trials.thisRepN,trials.thisTrialN,trials.thisN,trials.thisIndex,trials.ran,Colourcodes,participant,session,date,expName,psychopyVersion,OS,frameRate,study_id,trials_4.thisRepN,trials_4.thisTrialN,trials_4.thisN,trials_4.thisIndex,trials_4.ran,StimulusPos,key_resp.keys,key_resp.rt,key_resp_2.keys,key_resp_2.rt,key_resp_15.keys,key_resp_15.rt,key_resp_17.keys,key_resp_17.rt,key_resp_9.keys,key_resp_9.rt,key_resp_10.keys,key_resp_10.rt,Circle1_col,Ecc,Circle2_col,similarity,response_time,mouse_5.x,mouse_5.y,mouse_5.leftButton,mouse_5.midButton,mouse_5.rightButton,mouse_5.clicked_name,mouse_10.x,mouse_10.y,mouse_10.leftButton,mouse_10.midButton,mouse_10.rightButton,mouse_10.clicked_name,mouse_7.x,mouse_7.y,mouse_7.leftButton,mouse_7.midButton,mouse_7.rightButton,mouse_7.clicked_name,catchprac,catchnumberprac,mouse_6.x,mouse_6.y,mouse_6.leftButton,mouse_6.midButton,mouse_6.rightButton,mouse_6.clicked_name,duringprac.thisRepN,duringprac.thisTrialN,duringprac.thisN,duringprac.thisIndex,duringprac.ran,key_resp_22.keys,key_resp_22.rt,Circle1_colour,Circle2_colour,mouse.x,mouse.y,mouse.leftButton,mouse.midButton,mouse.rightButton,mouse.clicked_name,mouse_2.x,mouse_2.y,mouse_2.leftButton,mouse_2.midButton,mouse_2.rightButton,mouse_2.clicked_name,mouse_3.x,mouse_3.y,mouse_3.leftButton,mouse_3.midButton,mouse_3.rightButton,catchresponse,catchnumber,response_time_catch,Catch,mouse_11.x,mouse_11.y,mouse_11.leftButton,mouse_11.midButton,mouse_11.rightButton,trials_2.thisRepN,trials_2.thisTrialN,trials_2.thisN,trials_2.thisIndex,trials_2.ran,Colourpair,Temporder,mouse_3.clicked_name,mouse_11.clicked_name,trials_3.thisRepN,trials_3.thisTrialN,trials_3.thisN,trials_3.thisIndex,trials_3.ran,key_resp_instr_Ishi.keys,key_resp_instr_Ishi.rt,Ishi_trial_keyresp.keys,Ishi_textbox.text,Ishi_mouse.x,Ishi_mouse.y,Ishi_mouse.leftButton,Ishi_mouse.midButton,Ishi_mouse.rightButton,Ishi_mouse.clicked_name,Ishi_loop.thisRepN,Ishi_loop.thisTrialN,Ishi_loop.thisN,Ishi_loop.thisIndex,Ishi_loop.ran,imageaddress,textbox.text,mouse_4.x,mouse_4.y,mouse_4.leftButton,mouse_4.midButton,mouse_4.rightButton,mouse_4.clicked_name,textbox_2.text,mouse_8.x,mouse_8.y,mouse_8.leftButton,mouse_8.midButton,mouse_8.rightButton,mouse_8.clicked_name,textbox_3.text,mouse_9.x,mouse_9.y,mouse_9.leftButton,mouse_9.midButton,mouse_9.rightButton,mouse_9.clicked_name,textbox_4.text,mouse_12.x,mouse_12.y,mouse_12.leftButton,mouse_12.midButton,mouse_12.rightButton,mouse_12.clicked_name,textbox_5.text,mouse_13.x,mouse_13.y,mouse_13.leftButton,mouse_13.midButton,mouse_13.rightButton,mouse_13.clicked_name,textbox_6.text,mouse_14.x,mouse_14.y,mouse_14.leftButton,mouse_14.midButton,mouse_14.rightButton,mouse_14.clicked_name,textbox_7.text,mouse_15.x,mouse_15.y,mouse_15.leftButton,mouse_15.midButton,mouse_15.rightButton,mouse_15.clicked_name
0,0,0,5,1,,6162b219ce146c3f929c5c4c,62c539e9d2b6fa4cee194349,2022-07-06_09h31.29.213,Colour_Asymmetry_Pilot,2022.1.3,Win32,59.91252771,62c50e9c1127f2cd403a315f,,,,,,,,,,,,,,,,,,,,,,,,,,,,,,,,,,,,,,,,,,,,,,,,,,,,,,,,,,,,,,,,,,,,,,,,,,,,,,,,,,,,,,,,,,,,,,,,,,,,,,,,,,,,,,,,,,,,,,,,,,,,,,,,,,,,,,,,,,,,,,,,,,,,,,,,,,,,,,,,,,,
0,1,1,28,1,,6162b219ce146c3f929c5c4c,62c539e9d2b6fa4cee194349,2022-07-06_09h31.29.213,Colour_Asymmetry_Pilot,2022.1.3,Win32,59.91252771,62c50e9c1127f2cd403a315f,,,,,,,,,,,,,,,,,,,,,,,,,,,,,,,,,,,,,,,,,,,,,,,,,,,,,,,,,,,,,,,,,,,,,,,,,,,,,,,,,,,,,,,,,,,,,,,,,,,,,,,,,,,,,,,,,,,,,,,,,,,,,,,,,,,,,,,,,,,,,,,,,,,,,,,,,,,,,,,,,,,
0,2,2,71,1,,6162b219ce146c3f929c5c4c,62c539e9d2b6fa4cee194349,2022-07-06_09h31.29.213,Colour_Asymmetry_Pilot,2022.1.3,Win32,59.91252771,62c50e9c1127f2cd403a315f,,,,,,,,,,,,,,,,,,,,,,,,,,,,,,,,,,,,,,,,,,,,,,,,,,,,,,,,,,,,,,,,,,,,,,,,,,,,,,,,,,,,,,,,,,,,,,,,,,,,,,,,,,,,,,,,,,,,,,,,,,,,,,,,,,,,,,,,,,,,,,,,,,,,,,,,,,,,,,,,,,,
0,3,3,59,1,,6162b219ce146c3f929c5c4c,62c539e9d2b6fa4cee194349,2022-07-06_09h31.29.213,Colour_Asymmetry_Pilot,2022.1.3,Win32,59.91252771,62c50e9c1127f2cd403a315f,,,,,,,,,,,,,,,,,,,,,,,,,,,,,,,,,,,,,,,,,,,,,,,,,,,,,,,,,,,,,,,,,,,,,,,,,,,,,,,,,,,,,,,,,,,,,,,,,,,,,,,,,,,,,,,,,,,,,,,,,,,,,,,,,,,,,,,,,,,,,,,,,,,,,,,,,,,,,,,,,,,
0,4,4,90,1,,6162b219ce146c3f929c5c4c,62c539e9d2b6fa4cee194349,2022-07-06_09h31.29.213,Colour_Asymmetry_Pilot,2022.1.3,Win32,59.91252771,62c50e9c1127f2cd403a315f,,,,,,,,,,,,,,,,,,,,,,,,,,,,,,,,,,,,,,,,,,,,,,,,,,,,,,,,,,,,,,,,,,,,,,,,,,,,,,,,,,,,,,,,,,,,,,,,,,,,,,,,,,,,,,,,,,,,,,,,,,,,,,,,,,,,,,,,,,,,,,,,,,,,,,,,,,,,,,,,,,,
0,5,5,43,1,,6162b219ce146c3f929c5c4c,62c539e9d2b6fa4cee194349,2022-07-06_09h31.29.213,Colour_Asymmetry_Pilot,2022.1.3,Win32,59.91252771,62c50e9c1127f2cd403a315f,,,,,,,,,,,,,,,,,,,,,,,,,,,,,,,,,,,,,,,,,,,,,,,,,,,,,,,,,,,,,,,,,,,,,,,,,,,,,,,,,,,,,,,,,,,,,,,,,,,,,,,,,,,,,,,,,,,,,,,,,,,,,,,,,,,,,,,,,,,,,,,,,,,,,,,,,,,,,,,,,,,
0,6,6,79,1,,6162b219ce146c3f929c5c4c,62c539e9d2b6fa4cee194349,2022-07-06_09h31.29.213,Colour_Asymmetry_Pilot,2022.1.3,Win32,59.91252771,62c50e9c1127f2cd403a315f,,,,,,,,,,,,,,,,,,,,,,,,,,,,,,,,,,,,,,,,,,,,,,,,,,,,,,,,,,,,,,,,,,,,,,,,,,,,,,,,,,,,,,,,,,,,,,,,,,,,,,,,,,,,,,,,,,,,,,,,,,,,,,,,,,,,,,,,,,,,,,,,,,,,,,,,,,,,,,,,,,,
0,7,7,57,1,,6162b219ce146c3f929c5c4c,62c539e9d2b6fa4cee194349,2022-07-06_09h31.29.213,Colour_Asymmetry_Pilot,2022.1.3,Win32,59.91252771,62c50e9c1127f2cd403a315f,,,,,,,,,,,,,,,,,,,,,,,,,,,,,,,,,,,,,,,,,,,,,,,,,,,,,,,,,,,,,,,,,,,,,,,,,,,,,,,,,,,,,,,,,,,,,,,,,,,,,,,,,,,,,,,,,,,,,,,,,,,,,,,,,,,,,,,,,,,,,,,,,,,,,,,,,,,,,,,,,,,
0,8,8,85,1,,6162b219ce146c3f929c5c4c,62c539e9d2b6fa4cee194349,2022-07-06_09h31.29.213,Colour_Asymmetry_Pilot,2022.1.3,Win32,59.91252771,62c50e9c1127f2cd403a315f,,,,,,,,,,,,,,,,,,,,,,,,,,,,,,,,,,,,,,,,,,,,,,,,,,,,,,,,,,,,,,,,,,,,,,,,,,,,,,,,,,,,,,,,,,,,,,,,,,,,,,,,,,,,,,,,,,,,,,,,,,,,,,,,,,,,,,,,,,,,,,,,,,,,,,,,,,,,,,,,,,,
0,9,9,19,1,,6162b219ce146c3f929c5c4c,62c539e9d2b6fa4cee194349,2022-07-06_09h31.29.213,Colour_Asymmetry_Pilot,2022.1.3,Win32,59.91252771,62c50e9c1127f2cd403a315f,,,,,,,,,,,,,,,,,,,,,,,,,,,,,,,,,,,,,,,,,,,,,,,,,,,,,,,,,,,,,,,,,,,,,,,,,,,,,,,,,,,,,,,,,,,,,,,,,,,,,,,,,,,,,,,,,,,,,,,,,,,,,,,,,,,,,,,,,,,,,,,,,,,,,,,,,,,,,,,,,,,
0,10,10,66,1,,6162b219ce146c3f929c5c4c,62c539e9d2b6fa4cee194349,2022-07-06_09h31.29.213,Colour_Asymmetry_Pilot,2022.1.3,Win32,59.91252771,62c50e9c1127f2cd403a315f,,,,,,,,,,,,,,,,,,,,,,,,,,,,,,,,,,,,,,,,,,,,,,,,,,,,,,,,,,,,,,,,,,,,,,,,,,,,,,,,,,,,,,,,,,,,,,,,,,,,,,,,,,,,,,,,,,,,,,,,,,,,,,,,,,,,,,,,,,,,,,,,,,,,,,,,,,,,,,,,,,,
0,11,11,70,1,,6162b219ce146c3f929c5c4c,62c539e9d2b6fa4cee194349,2022-07-06_09h31.29.213,Colour_Asymmetry_Pilot,2022.1.3,Win32,59.91252771,62c50e9c1127f2cd403a315f,,,,,,,,,,,,,,,,,,,,,,,,,,,,,,,,,,,,,,,,,,,,,,,,,,,,,,,,,,,,,,,,,,,,,,,,,,,,,,,,,,,,,,,,,,,,,,,,,,,,,,,,,,,,,,,,,,,,,,,,,,,,,,,,,,,,,,,,,,,,,,,,,,,,,,,,,,,,,,,,,,,
0,12,12,27,1,,6162b219ce146c3f929c5c4c,62c539e9d2b6fa4cee194349,2022-07-06_09h31.29.213,Colour_Asymmetry_Pilot,2022.1.3,Win32,59.91252771,62c50e9c1127f2cd403a315f,,,,,,,,,,,,,,,,,,,,,,,,,,,,,,,,,,,,,,,,,,,,,,,,,,,,,,,,,,,,,,,,,,,,,,,,,,,,,,,,,,,,,,,,,,,,,,,,,,,,,,,,,,,,,,,,,,,,,,,,,,,,,,,,,,,,,,,,,,,,,,,,,,,,,,,,,,,,,,,,,,,
0,13,13,55,1,,6162b219ce146c3f929c5c4c,62c539e9d2b6fa4cee194349,2022-07-06_09h31.29.213,Colour_Asymmetry_Pilot,2022.1.3,Win32,59.91252771,62c50e9c1127f2cd403a315f,,,,,,,,,,,,,,,,,,,,,,,,,,,,,,,,,,,,,,,,,,,,,,,,,,,,,,,,,,,,,,,,,,,,,,,,,,,,,,,,,,,,,,,,,,,,,,,,,,,,,,,,,,,,,,,,,,,,,,,,,,,,,,,,,,,,,,,,,,,,,,,,,,,,,,,,,,,,,,,,,,,
0,14,14,65,1,,6162b219ce146c3f929c5c4c,62c539e9d2b6fa4cee194349,2022-07-06_09h31.29.213,Colour_Asymmetry_Pilot,2022.1.3,Win32,59.91252771,62c50e9c1127f2cd403a315f,,,,,,,,,,,,,,,,,,,,,,,,,,,,,,,,,,,,,,,,,,,,,,,,,,,,,,,,,,,,,,,,,,,,,,,,,,,,,,,,,,,,,,,,,,,,,,,,,,,,,,,,,,,,,,,,,,,,,,,,,,,,,,,,,,,,,,,,,,,,,,,,,,,,,,,,,,,,,,,,,,,
0,15,15,9,1,,6162b219ce146c3f929c5c4c,62c539e9d2b6fa4cee194349,2022-07-06_09h31.29.213,Colour_Asymmetry_Pilot,2022.1.3,Win32,59.91252771,62c50e9c1127f2cd403a315f,,,,,,,,,,,,,,,,,,,,,,,,,,,,,,,,,,,,,,,,,,,,,,,,,,,,,,,,,,,,,,,,,,,,,,,,,,,,,,,,,,,,,,,,,,,,,,,,,,,,,,,,,,,,,,,,,,,,,,,,,,,,,,,,,,,,,,,,,,,,,,,,,,,,,,,,,,,,,,,,,,,
0,16,16,61,1,,6162b219ce146c3f929c5c4c,62c539e9d2b6fa4cee194349,2022-07-06_09h31.29.213,Colour_Asymmetry_Pilot,2022.1.3,Win32,59.91252771,62c50e9c1127f2cd403a315f,,,,,,,,,,,,,,,,,,,,,,,,,,,,,,,,,,,,,,,,,,,,,,,,,,,,,,,,,,,,,,,,,,,,,,,,,,,,,,,,,,,,,,,,,,,,,,,,,,,,,,,,,,,,,,,,,,,,,,,,,,,,,,,,,,,,,,,,,,,,,,,,,,,,,,,,,,,,,,,,,,,
0,17,17,10,1,,6162b219ce146c3f929c5c4c,62c539e9d2b6fa4cee194349,2022-07-06_09h31.29.213,Colour_Asymmetry_Pilot,2022.1.3,Win32,59.91252771,62c50e9c1127f2cd403a315f,,,,,,,,,,,,,,,,,,,,,,,,,,,,,,,,,,,,,,,,,,,,,,,,,,,,,,,,,,,,,,,,,,,,,,,,,,,,,,,,,,,,,,,,,,,,,,,,,,,,,,,,,,,,,,,,,,,,,,,,,,,,,,,,,,,,,,,,,,,,,,,,,,,,,,,,,,,,,,,,,,,
0,18,18,88,1,,6162b219ce146c3f929c5c4c,62c539e9d2b6fa4cee194349,2022-07-06_09h31.29.213,Colour_Asymmetry_Pilot,2022.1.3,Win32,59.91252771,62c50e9c1127f2cd403a315f,,,,,,,,,,,,,,,,,,,,,,,,,,,,,,,,,,,,,,,,,,,,,,,,,,,,,,,,,,,,,,,,,,,,,,,,,,,,,,,,,,,,,,,,,,,,,,,,,,,,,,,,,,,,,,,,,,,,,,,,,,,,,,,,,,,,,,,,,,,,,,,,,,,,,,,,,,,,,,,,,,,
0,19,19,31,1,,6162b219ce146c3f929c5c4c,62c539e9d2b6fa4cee194349,2022-07-06_09h31.29.213,Colour_Asymmetry_Pilot,2022.1.3,Win32,59.91252771,62c50e9c1127f2cd403a315f,,,,,,,,,,,,,,,,,,,,,,,,,,,,,,,,,,,,,,,,,,,,,,,,,,,,,,,,,,,,,,,,,,,,,,,,,,,,,,,,,,,,,,,,,,,,,,,,,,,,,,,,,,,,,,,,,,,,,,,,,,,,,,,,,,,,,,,,,,,,,,,,,,,,,,,,,,,,,,,,,,,
0,20,20,41,1,,6162b219ce146c3f929c5c4c,62c539e9d2b6fa4cee194349,2022-07-06_09h31.29.213,Colour_Asymmetry_Pilot,2022.1.3,Win32,59.91252771,62c50e9c1127f2cd403a315f,,,,,,,,,,,,,,,,,,,,,,,,,,,,,,,,,,,,,,,,,,,,,,,,,,,,,,,,,,,,,,,,,,,,,,,,,,,,,,,,,,,,,,,,,,,,,,,,,,,,,,,,,,,,,,,,,,,,,,,,,,,,,,,,,,,,,,,,,,,,,,,,,,,,,,,,,,,,,,,,,,,
0,21,21,26,1,,6162b219ce146c3f929c5c4c,62c539e9d2b6fa4cee194349,2022-07-06_09h31.29.213,Colour_Asymmetry_Pilot,2022.1.3,Win32,59.91252771,62c50e9c1127f2cd403a315f,,,,,,,,,,,,,,,,,,,,,,,,,,,,,,,,,,,,,,,,,,,,,,,,,,,,,,,,,,,,,,,,,,,,,,,,,,,,,,,,,,,,,,,,,,,,,,,,,,,,,,,,,,,,,,,,,,,,,,,,,,,,,,,,,,,,,,,,,,,,,,,,,,,,,,,,,,,,,,,,,,,
0,22,22,63,1,,6162b219ce146c3f929c5c4c,62c539e9d2b6fa4cee194349,2022-07-06_09h31.29.213,Colour_Asymmetry_Pilot,2022.1.3,Win32,59.91252771,62c50e9c1127f2cd403a315f,,,,,,,,,,,,,,,,,,,,,,,,,,,,,,,,,,,,,,,,,,,,,,,,,,,,,,,,,,,,,,,,,,,,,,,,,,,,,,,,,,,,,,,,,,,,,,,,,,,,,,,,,,,,,,,,,,,,,,,,,,,,,,,,,,,,,,,,,,,,,,,,,,,,,,,,,,,,,,,,,,,
0,23,23,46,1,,6162b219ce146c3f929c5c4c,62c539e9d2b6fa4cee194349,2022-07-06_09h31.29.213,Colour_Asymmetry_Pilot,2022.1.3,Win32,59.91252771,62c50e9c1127f2cd403a315f,,,,,,,,,,,,,,,,,,,,,,,,,,,,,,,,,,,,,,,,,,,,,,,,,,,,,,,,,,,,,,,,,,,,,,,,,,,,,,,,,,,,,,,,,,,,,,,,,,,,,,,,,,,,,,,,,,,,,,,,,,,,,,,,,,,,,,,,,,,,,,,,,,,,,,,,,,,,,,,,,,,
0,24,24,18,1,,6162b219ce146c3f929c5c4c,62c539e9d2b6fa4cee194349,2022-07-06_09h31.29.213,Colour_Asymmetry_Pilot,2022.1.3,Win32,59.91252771,62c50e9c1127f2cd403a315f,,,,,,,,,,,,,,,,,,,,,,,,,,,,,,,,,,,,,,,,,,,,,,,,,,,,,,,,,,,,,,,,,,,,,,,,,,,,,,,,,,,,,,,,,,,,,,,,,,,,,,,,,,,,,,,,,,,,,,,,,,,,,,,,,,,,,,,,,,,,,,,,,,,,,,,,,,,,,,,,,,,
0,25,25,83,1,,6162b219ce146c3f929c5c4c,62c539e9d2b6fa4cee194349,2022-07-06_09h31.29.213,Colour_Asymmetry_Pilot,2022.1.3,Win32,59.91252771,62c50e9c1127f2cd403a315f,,,,,,,,,,,,,,,,,,,,,,,,,,,,,,,,,,,,,,,,,,,,,,,,,,,,,,,,,,,,,,,,,,,,,,,,,,,,,,,,,,,,,,,,,,,,,,,,,,,,,,,,,,,,,,,,,,,,,,,,,,,,,,,,,,,,,,,,,,,,,,,,,,,,,,,,,,,,,,,,,,,
0,26,26,53,1,,6162b219ce146c3f929c5c4c,62c539e9d2b6fa4cee194349,2022-07-06_09h31.29.213,Colour_Asymmetry_Pilot,2022.1.3,Win32,59.91252771,62c50e9c1127f2cd403a315f,,,,,,,,,,,,,,,,,,,,,,,,,,,,,,,,,,,,,,,,,,,,,,,,,,,,,,,,,,,,,,,,,,,,,,,,,,,,,,,,,,,,,,,,,,,,,,,,,,,,,,,,,,,,,,,,,,,,,,,,,,,,,,,,,,,,,,,,,,,,,,,,,,,,,,,,,,,,,,,,,,,
0,27,27,80,1,,6162b219ce146c3f929c5c4c,62c539e9d2b6fa4cee194349,2022-07-06_09h31.29.213,Colour_Asymmetry_Pilot,2022.1.3,Win32,59.91252771,62c50e9c1127f2cd403a315f,,,,,,,,,,,,,,,,,,,,,,,,,,,,,,,,,,,,,,,,,,,,,,,,,,,,,,,,,,,,,,,,,,,,,,,,,,,,,,,,,,,,,,,,,,,,,,,,,,,,,,,,,,,,,,,,,,,,,,,,,,,,,,,,,,,,,,,,,,,,,,,,,,,,,,,,,,,,,,,,,,,
0,28,28,72,1,,6162b219ce146c3f929c5c4c,62c539e9d2b6fa4cee194349,2022-07-06_09h31.29.213,Colour_Asymmetry_Pilot,2022.1.3,Win32,59.91252771,62c50e9c1127f2cd403a315f,,,,,,,,,,,,,,,,,,,,,,,,,,,,,,,,,,,,,,,,,,,,,,,,,,,,,,,,,,,,,,,,,,,,,,,,,,,,,,,,,,,,,,,,,,,,,,,,,,,,,,,,,,,,,,,,,,,,,,,,,,,,,,,,,,,,,,,,,,,,,,,,,,,,,,,,,,,,,,,,,,,
0,29,29,14,1,,6162b219ce146c3f929c5c4c,62c539e9d2b6fa4cee194349,2022-07-06_09h31.29.213,Colour_Asymmetry_Pilot,2022.1.3,Win32,59.91252771,62c50e9c1127f2cd403a315f,,,,,,,,,,,,,,,,,,,,,,,,,,,,,,,,,,,,,,,,,,,,,,,,,,,,,,,,,,,,,,,,,,,,,,,,,,,,,,,,,,,,,,,,,,,,,,,,,,,,,,,,,,,,,,,,,,,,,,,,,,,,,,,,,,,,,,,,,,,,,,,,,,,,,,,,,,,,,,,,,,,
0,30,30,21,1,,6162b219ce146c3f929c5c4c,62c539e9d2b6fa4cee194349,2022-07-06_09h31.29.213,Colour_Asymmetry_Pilot,2022.1.3,Win32,59.91252771,62c50e9c1127f2cd403a315f,,,,,,,,,,,,,,,,,,,,,,,,,,,,,,,,,,,,,,,,,,,,,,,,,,,,,,,,,,,,,,,,,,,,,,,,,,,,,,,,,,,,,,,,,,,,,,,,,,,,,,,,,,,,,,,,,,,,,,,,,,,,,,,,,,,,,,,,,,,,,,,,,,,,,,,,,,,,,,,,,,,
0,31,31,48,1,,6162b219ce146c3f929c5c4c,62c539e9d2b6fa4cee194349,2022-07-06_09h31.29.213,Colour_Asymmetry_Pilot,2022.1.3,Win32,59.91252771,62c50e9c1127f2cd403a315f,,,,,,,,,,,,,,,,,,,,,,,,,,,,,,,,,,,,,,,,,,,,,,,,,,,,,,,,,,,,,,,,,,,,,,,,,,,,,,,,,,,,,,,,,,,,,,,,,,,,,,,,,,,,,,,,,,,,,,,,,,,,,,,,,,,,,,,,,,,,,,,,,,,,,,,,,,,,,,,,,,,
0,32,32,12,1,,6162b219ce146c3f929c5c4c,62c539e9d2b6fa4cee194349,2022-07-06_09h31.29.213,Colour_Asymmetry_Pilot,2022.1.3,Win32,59.91252771,62c50e9c1127f2cd403a315f,,,,,,,,,,,,,,,,,,,,,,,,,,,,,,,,,,,,,,,,,,,,,,,,,,,,,,,,,,,,,,,,,,,,,,,,,,,,,,,,,,,,,,,,,,,,,,,,,,,,,,,,,,,,,,,,,,,,,,,,,,,,,,,,,,,,,,,,,,,,,,,,,,,,,,,,,,,,,,,,,,,
0,33,33,87,1,,6162b219ce146c3f929c5c4c,62c539e9d2b6fa4cee194349,2022-07-06_09h31.29.213,Colour_Asymmetry_Pilot,2022.1.3,Win32,59.91252771,62c50e9c1127f2cd403a315f,,,,,,,,,,,,,,,,,,,,,,,,,,,,,,,,,,,,,,,,,,,,,,,,,,,,,,,,,,,,,,,,,,,,,,,,,,,,,,,,,,,,,,,,,,,,,,,,,,,,,,,,,,,,,,,,,,,,,,,,,,,,,,,,,,,,,,,,,,,,,,,,,,,,,,,,,,,,,,,,,,,
0,34,34,32,1,,6162b219ce146c3f929c5c4c,62c539e9d2b6fa4cee194349,2022-07-06_09h31.29.213,Colour_Asymmetry_Pilot,2022.1.3,Win32,59.91252771,62c50e9c1127f2cd403a315f,,,,,,,,,,,,,,,,,,,,,,,,,,,,,,,,,,,,,,,,,,,,,,,,,,,,,,,,,,,,,,,,,,,,,,,,,,,,,,,,,,,,,,,,,,,,,,,,,,,,,,,,,,,,,,,,,,,,,,,,,,,,,,,,,,,,,,,,,,,,,,,,,,,,,,,,,,,,,,,,,,,
0,35,35,38,1,,6162b219ce146c3f929c5c4c,62c539e9d2b6fa4cee194349,2022-07-06_09h31.29.213,Colour_Asymmetry_Pilot,2022.1.3,Win32,59.91252771,62c50e9c1127f2cd403a315f,,,,,,,,,,,,,,,,,,,,,,,,,,,,,,,,,,,,,,,,,,,,,,,,,,,,,,,,,,,,,,,,,,,,,,,,,,,,,,,,,,,,,,,,,,,,,,,,,,,,,,,,,,,,,,,,,,,,,,,,,,,,,,,,,,,,,,,,,,,,,,,,,,,,,,,,,,,,,,,,,,,
0,36,36,69,1,,6162b219ce146c3f929c5c4c,62c539e9d2b6fa4cee194349,2022-07-06_09h31.29.213,Colour_Asymmetry_Pilot,2022.1.3,Win32,59.91252771,62c50e9c1127f2cd403a315f,,,,,,,,,,,,,,,,,,,,,,,,,,,,,,,,,,,,,,,,,,,,,,,,,,,,,,,,,,,,,,,,,,,,,,,,,,,,,,,,,,,,,,,,,,,,,,,,,,,,,,,,,,,,,,,,,,,,,,,,,,,,,,,,,,,,,,,,,,,,,,,,,,,,,,,,,,,,,,,,,,,
0,37,37,51,1,,6162b219ce146c3f929c5c4c,62c539e9d2b6fa4cee194349,2022-07-06_09h31.29.213,Colour_Asymmetry_Pilot,2022.1.3,Win32,59.91252771,62c50e9c1127f2cd403a315f,,,,,,,,,,,,,,,,,,,,,,,,,,,,,,,,,,,,,,,,,,,,,,,,,,,,,,,,,,,,,,,,,,,,,,,,,,,,,,,,,,,,,,,,,,,,,,,,,,,,,,,,,,,,,,,,,,,,,,,,,,,,,,,,,,,,,,,,,,,,,,,,,,,,,,,,,,,,,,,,,,,
0,38,38,84,1,,6162b219ce146c3f929c5c4c,62c539e9d2b6fa4cee194349,2022-07-06_09h31.29.213,Colour_Asymmetry_Pilot,2022.1.3,Win32,59.91252771,62c50e9c1127f2cd403a315f,,,,,,,,,,,,,,,,,,,,,,,,,,,,,,,,,,,,,,,,,,,,,,,,,,,,,,,,,,,,,,,,,,,,,,,,,,,,,,,,,,,,,,,,,,,,,,,,,,,,,,,,,,,,,,,,,,,,,,,,,,,,,,,,,,,,,,,,,,,,,,,,,,,,,,,,,,,,,,,,,,,
0,39,39,64,1,,6162b219ce146c3f929c5c4c,62c539e9d2b6fa4cee194349,2022-07-06_09h31.29.213,Colour_Asymmetry_Pilot,2022.1.3,Win32,59.91252771,62c50e9c1127f2cd403a315f,,,,,,,,,,,,,,,,,,,,,,,,,,,,,,,,,,,,,,,,,,,,,,,,,,,,,,,,,,,,,,,,,,,,,,,,,,,,,,,,,,,,,,,,,,,,,,,,,,,,,,,,,,,,,,,,,,,,,,,,,,,,,,,,,,,,,,,,,,,,,,,,,,,,,,,,,,,,,,,,,,,
0,40,40,17,1,,6162b219ce146c3f929c5c4c,62c539e9d2b6fa4cee194349,2022-07-06_09h31.29.213,Colour_Asymmetry_Pilot,2022.1.3,Win32,59.91252771,62c50e9c1127f2cd403a315f,,,,,,,,,,,,,,,,,,,,,,,,,,,,,,,,,,,,,,,,,,,,,,,,,,,,,,,,,,,,,,,,,,,,,,,,,,,,,,,,,,,,,,,,,,,,,,,,,,,,,,,,,,,,,,,,,,,,,,,,,,,,,,,,,,,,,,,,,,,,,,,,,,,,,,,,,,,,,,,,,,,
0,41,41,67,1,,6162b219ce146c3f929c5c4c,62c539e9d2b6fa4cee194349,2022-07-06_09h31.29.213,Colour_Asymmetry_Pilot,2022.1.3,Win32,59.91252771,62c50e9c1127f2cd403a315f,,,,,,,,,,,,,,,,,,,,,,,,,,,,,,,,,,,,,,,,,,,,,,,,,,,,,,,,,,,,,,,,,,,,,,,,,,,,,,,,,,,,,,,,,,,,,,,,,,,,,,,,,,,,,,,,,,,,,,,,,,,,,,,,,,,,,,,,,,,,,,,,,,,,,,,,,,,,,,,,,,,
0,42,42,15,1,,6162b219ce146c3f929c5c4c,62c539e9d2b6fa4cee194349,2022-07-06_09h31.29.213,Colour_Asymmetry_Pilot,2022.1.3,Win32,59.91252771,62c50e9c1127f2cd403a315f,,,,,,,,,,,,,,,,,,,,,,,,,,,,,,,,,,,,,,,,,,,,,,,,,,,,,,,,,,,,,,,,,,,,,,,,,,,,,,,,,,,,,,,,,,,,,,,,,,,,,,,,,,,,,,,,,,,,,,,,,,,,,,,,,,,,,,,,,,,,,,,,,,,,,,,,,,,,,,,,,,,
0,43,43,82,1,,6162b219ce146c3f929c5c4c,62c539e9d2b6fa4cee194349,2022-07-06_09h31.29.213,Colour_Asymmetry_Pilot,2022.1.3,Win32,59.91252771,62c50e9c1127f2cd403a315f,,,,,,,,,,,,,,,,,,,,,,,,,,,,,,,,,,,,,,,,,,,,,,,,,,,,,,,,,,,,,,,,,,,,,,,,,,,,,,,,,,,,,,,,,,,,,,,,,,,,,,,,,,,,,,,,,,,,,,,,,,,,,,,,,,,,,,,,,,,,,,,,,,,,,,,,,,,,,,,,,,,
0,44,44,89,1,,6162b219ce146c3f929c5c4c,62c539e9d2b6fa4cee194349,2022-07-06_09h31.29.213,Colour_Asymmetry_Pilot,2022.1.3,Win32,59.91252771,62c50e9c1127f2cd403a315f,,,,,,,,,,,,,,,,,,,,,,,,,,,,,,,,,,,,,,,,,,,,,,,,,,,,,,,,,,,,,,,,,,,,,,,,,,,,,,,,,,,,,,,,,,,,,,,,,,,,,,,,,,,,,,,,,,,,,,,,,,,,,,,,,,,,,,,,,,,,,,,,,,,,,,,,,,,,,,,,,,,
0,45,45,45,1,,6162b219ce146c3f929c5c4c,62c539e9d2b6fa4cee194349,2022-07-06_09h31.29.213,Colour_Asymmetry_Pilot,2022.1.3,Win32,59.91252771,62c50e9c1127f2cd403a315f,,,,,,,,,,,,,,,,,,,,,,,,,,,,,,,,,,,,,,,,,,,,,,,,,,,,,,,,,,,,,,,,,,,,,,,,,,,,,,,,,,,,,,,,,,,,,,,,,,,,,,,,,,,,,,,,,,,,,,,,,,,,,,,,,,,,,,,,,,,,,,,,,,,,,,,,,,,,,,,,,,,
0,46,46,77,1,,6162b219ce146c3f929c5c4c,62c539e9d2b6fa4cee194349,2022-07-06_09h31.29.213,Colour_Asymmetry_Pilot,2022.1.3,Win32,59.91252771,62c50e9c1127f2cd403a315f,,,,,,,,,,,,,,,,,,,,,,,,,,,,,,,,,,,,,,,,,,,,,,,,,,,,,,,,,,,,,,,,,,,,,,,,,,,,,,,,,,,,,,,,,,,,,,,,,,,,,,,,,,,,,,,,,,,,,,,,,,,,,,,,,,,,,,,,,,,,,,,,,,,,,,,,,,,,,,,,,,,
0,47,47,76,1,,6162b219ce146c3f929c5c4c,62c539e9d2b6fa4cee194349,2022-07-06_09h31.29.213,Colour_Asymmetry_Pilot,2022.1.3,Win32,59.91252771,62c50e9c1127f2cd403a315f,,,,,,,,,,,,,,,,,,,,,,,,,,,,,,,,,,,,,,,,,,,,,,,,,,,,,,,,,,,,,,,,,,,,,,,,,,,,,,,,,,,,,,,,,,,,,,,,,,,,,,,,,,,,,,,,,,,,,,,,,,,,,,,,,,,,,,,,,,,,,,,,,,,,,,,,,,,,,,,,,,,
0,48,48,74,1,,6162b219ce146c3f929c5c4c,62c539e9d2b6fa4cee194349,2022-07-06_09h31.29.213,Colour_Asymmetry_Pilot,2022.1.3,Win32,59.91252771,62c50e9c1127f2cd403a315f,,,,,,,,,,,,,,,,,,,,,,,,,,,,,,,,,,,,,,,,,,,,,,,,,,,,,,,,,,,,,,,,,,,,,,,,,,,,,,,,,,,,,,,,,,,,,,,,,,,,,,,,,,,,,,,,,,,,,,,,,,,,,,,,,,,,,,,,,,,,,,,,,,,,,,,,,,,,,,,,,,,
0,49,49,39,1,,6162b219ce146c3f929c5c4c,62c539e9d2b6fa4cee194349,2022-07-06_09h31.29.213,Colour_Asymmetry_Pilot,2022.1.3,Win32,59.91252771,62c50e9c1127f2cd403a315f,,,,,,,,,,,,,,,,,,,,,,,,,,,,,,,,,,,,,,,,,,,,,,,,,,,,,,,,,,,,,,,,,,,,,,,,,,,,,,,,,,,,,,,,,,,,,,,,,,,,,,,,,,,,,,,,,,,,,,,,,,,,,,,,,,,,,,,,,,,,,,,,,,,,,,,,,,,,,,,,,,,
0,50,50,22,1,,6162b219ce146c3f929c5c4c,62c539e9d2b6fa4cee194349,2022-07-06_09h31.29.213,Colour_Asymmetry_Pilot,2022.1.3,Win32,59.91252771,62c50e9c1127f2cd403a315f,,,,,,,,,,,,,,,,,,,,,,,,,,,,,,,,,,,,,,,,,,,,,,,,,,,,,,,,,,,,,,,,,,,,,,,,,,,,,,,,,,,,,,,,,,,,,,,,,,,,,,,,,,,,,,,,,,,,,,,,,,,,,,,,,,,,,,,,,,,,,,,,,,,,,,,,,,,,,,,,,,,
0,51,51,68,1,,6162b219ce146c3f929c5c4c,62c539e9d2b6fa4cee194349,2022-07-06_09h31.29.213,Colour_Asymmetry_Pilot,2022.1.3,Win32,59.91252771,62c50e9c1127f2cd403a315f,,,,,,,,,,,,,,,,,,,,,,,,,,,,,,,,,,,,,,,,,,,,,,,,,,,,,,,,,,,,,,,,,,,,,,,,,,,,,,,,,,,,,,,,,,,,,,,,,,,,,,,,,,,,,,,,,,,,,,,,,,,,,,,,,,,,,,,,,,,,,,,,,,,,,,,,,,,,,,,,,,,
0,52,52,11,1,,6162b219ce146c3f929c5c4c,62c539e9d2b6fa4cee194349,2022-07-06_09h31.29.213,Colour_Asymmetry_Pilot,2022.1.3,Win32,59.91252771,62c50e9c1127f2cd403a315f,,,,,,,,,,,,,,,,,,,,,,,,,,,,,,,,,,,,,,,,,,,,,,,,,,,,,,,,,,,,,,,,,,,,,,,,,,,,,,,,,,,,,,,,,,,,,,,,,,,,,,,,,,,,,,,,,,,,,,,,,,,,,,,,,,,,,,,,,,,,,,,,,,,,,,,,,,,,,,,,,,,
0,53,53,49,1,,6162b219ce146c3f929c5c4c,62c539e9d2b6fa4cee194349,2022-07-06_09h31.29.213,Colour_Asymmetry_Pilot,2022.1.3,Win32,59.91252771,62c50e9c1127f2cd403a315f,,,,,,,,,,,,,,,,,,,,,,,,,,,,,,,,,,,,,,,,,,,,,,,,,,,,,,,,,,,,,,,,,,,,,,,,,,,,,,,,,,,,,,,,,,,,,,,,,,,,,,,,,,,,,,,,,,,,,,,,,,,,,,,,,,,,,,,,,,,,,,,,,,,,,,,,,,,,,,,,,,,
0,54,54,29,1,,6162b219ce146c3f929c5c4c,62c539e9d2b6fa4cee194349,2022-07-06_09h31.29.213,Colour_Asymmetry_Pilot,2022.1.3,Win32,59.91252771,62c50e9c1127f2cd403a315f,,,,,,,,,,,,,,,,,,,,,,,,,,,,,,,,,,,,,,,,,,,,,,,,,,,,,,,,,,,,,,,,,,,,,,,,,,,,,,,,,,,,,,,,,,,,,,,,,,,,,,,,,,,,,,,,,,,,,,,,,,,,,,,,,,,,,,,,,,,,,,,,,,,,,,,,,,,,,,,,,,,
0,55,55,91,1,,6162b219ce146c3f929c5c4c,62c539e9d2b6fa4cee194349,2022-07-06_09h31.29.213,Colour_Asymmetry_Pilot,2022.1.3,Win32,59.91252771,62c50e9c1127f2cd403a315f,,,,,,,,,,,,,,,,,,,,,,,,,,,,,,,,,,,,,,,,,,,,,,,,,,,,,,,,,,,,,,,,,,,,,,,,,,,,,,,,,,,,,,,,,,,,,,,,,,,,,,,,,,,,,,,,,,,,,,,,,,,,,,,,,,,,,,,,,,,,,,,,,,,,,,,,,,,,,,,,,,,
0,56,56,7,1,,6162b219ce146c3f929c5c4c,62c539e9d2b6fa4cee194349,2022-07-06_09h31.29.213,Colour_Asymmetry_Pilot,2022.1.3,Win32,59.91252771,62c50e9c1127f2cd403a315f,,,,,,,,,,,,,,,,,,,,,,,,,,,,,,,,,,,,,,,,,,,,,,,,,,,,,,,,,,,,,,,,,,,,,,,,,,,,,,,,,,,,,,,,,,,,,,,,,,,,,,,,,,,,,,,,,,,,,,,,,,,,,,,,,,,,,,,,,,,,,,,,,,,,,,,,,,,,,,,,,,,
0,57,57,58,1,,6162b219ce146c3f929c5c4c,62c539e9d2b6fa4cee194349,2022-07-06_09h31.29.213,Colour_Asymmetry_Pilot,2022.1.3,Win32,59.91252771,62c50e9c1127f2cd403a315f,,,,,,,,,,,,,,,,,,,,,,,,,,,,,,,,,,,,,,,,,,,,,,,,,,,,,,,,,,,,,,,,,,,,,,,,,,,,,,,,,,,,,,,,,,,,,,,,,,,,,,,,,,,,,,,,,,,,,,,,,,,,,,,,,,,,,,,,,,,,,,,,,,,,,,,,,,,,,,,,,,,
0,58,58,92,1,,6162b219ce146c3f929c5c4c,62c539e9d2b6fa4cee194349,2022-07-06_09h31.29.213,Colour_Asymmetry_Pilot,2022.1.3,Win32,59.91252771,62c50e9c1127f2cd403a315f,,,,,,,,,,,,,,,,,,,,,,,,,,,,,,,,,,,,,,,,,,,,,,,,,,,,,,,,,,,,,,,,,,,,,,,,,,,,,,,,,,,,,,,,,,,,,,,,,,,,,,,,,,,,,,,,,,,,,,,,,,,,,,,,,,,,,,,,,,,,,,,,,,,,,,,,,,,,,,,,,,,
0,59,59,40,1,,6162b219ce146c3f929c5c4c,62c539e9d2b6fa4cee194349,2022-07-06_09h31.29.213,Colour_Asymmetry_Pilot,2022.1.3,Win32,59.91252771,62c50e9c1127f2cd403a315f,,,,,,,,,,,,,,,,,,,,,,,,,,,,,,,,,,,,,,,,,,,,,,,,,,,,,,,,,,,,,,,,,,,,,,,,,,,,,,,,,,,,,,,,,,,,,,,,,,,,,,,,,,,,,,,,,,,,,,,,,,,,,,,,,,,,,,,,,,,,,,,,,,,,,,,,,,,,,,,,,,,
0,60,60,75,1,,6162b219ce146c3f929c5c4c,62c539e9d2b6fa4cee194349,2022-07-06_09h31.29.213,Colour_Asymmetry_Pilot,2022.1.3,Win32,59.91252771,62c50e9c1127f2cd403a315f,,,,,,,,,,,,,,,,,,,,,,,,,,,,,,,,,,,,,,,,,,,,,,,,,,,,,,,,,,,,,,,,,,,,,,,,,,,,,,,,,,,,,,,,,,,,,,,,,,,,,,,,,,,,,,,,,,,,,,,,,,,,,,,,,,,,,,,,,,,,,,,,,,,,,,,,,,,,,,,,,,,
0,61,61,4,1,,6162b219ce146c3f929c5c4c,62c539e9d2b6fa4cee194349,2022-07-06_09h31.29.213,Colour_Asymmetry_Pilot,2022.1.3,Win32,59.91252771,62c50e9c1127f2cd403a315f,,,,,,,,,,,,,,,,,,,,,,,,,,,,,,,,,,,,,,,,,,,,,,,,,,,,,,,,,,,,,,,,,,,,,,,,,,,,,,,,,,,,,,,,,,,,,,,,,,,,,,,,,,,,,,,,,,,,,,,,,,,,,,,,,,,,,,,,,,,,,,,,,,,,,,,,,,,,,,,,,,,
0,62,62,73,1,,6162b219ce146c3f929c5c4c,62c539e9d2b6fa4cee194349,2022-07-06_09h31.29.213,Colour_Asymmetry_Pilot,2022.1.3,Win32,59.91252771,62c50e9c1127f2cd403a315f,,,,,,,,,,,,,,,,,,,,,,,,,,,,,,,,,,,,,,,,,,,,,,,,,,,,,,,,,,,,,,,,,,,,,,,,,,,,,,,,,,,,,,,,,,,,,,,,,,,,,,,,,,,,,,,,,,,,,,,,,,,,,,,,,,,,,,,,,,,,,,,,,,,,,,,,,,,,,,,,,,,
0,63,63,60,1,,6162b219ce146c3f929c5c4c,62c539e9d2b6fa4cee194349,2022-07-06_09h31.29.213,Colour_Asymmetry_Pilot,2022.1.3,Win32,59.91252771,62c50e9c1127f2cd403a315f,,,,,,,,,,,,,,,,,,,,,,,,,,,,,,,,,,,,,,,,,,,,,,,,,,,,,,,,,,,,,,,,,,,,,,,,,,,,,,,,,,,,,,,,,,,,,,,,,,,,,,,,,,,,,,,,,,,,,,,,,,,,,,,,,,,,,,,,,,,,,,,,,,,,,,,,,,,,,,,,,,,
0,64,64,2,1,,6162b219ce146c3f929c5c4c,62c539e9d2b6fa4cee194349,2022-07-06_09h31.29.213,Colour_Asymmetry_Pilot,2022.1.3,Win32,59.91252771,62c50e9c1127f2cd403a315f,,,,,,,,,,,,,,,,,,,,,,,,,,,,,,,,,,,,,,,,,,,,,,,,,,,,,,,,,,,,,,,,,,,,,,,,,,,,,,,,,,,,,,,,,,,,,,,,,,,,,,,,,,,,,,,,,,,,,,,,,,,,,,,,,,,,,,,,,,,,,,,,,,,,,,,,,,,,,,,,,,,
0,65,65,81,1,,6162b219ce146c3f929c5c4c,62c539e9d2b6fa4cee194349,2022-07-06_09h31.29.213,Colour_Asymmetry_Pilot,2022.1.3,Win32,59.91252771,62c50e9c1127f2cd403a315f,,,,,,,,,,,,,,,,,,,,,,,,,,,,,,,,,,,,,,,,,,,,,,,,,,,,,,,,,,,,,,,,,,,,,,,,,,,,,,,,,,,,,,,,,,,,,,,,,,,,,,,,,,,,,,,,,,,,,,,,,,,,,,,,,,,,,,,,,,,,,,,,,,,,,,,,,,,,,,,,,,,
0,66,66,54,1,,6162b219ce146c3f929c5c4c,62c539e9d2b6fa4cee194349,2022-07-06_09h31.29.213,Colour_Asymmetry_Pilot,2022.1.3,Win32,59.91252771,62c50e9c1127f2cd403a315f,,,,,,,,,,,,,,,,,,,,,,,,,,,,,,,,,,,,,,,,,,,,,,,,,,,,,,,,,,,,,,,,,,,,,,,,,,,,,,,,,,,,,,,,,,,,,,,,,,,,,,,,,,,,,,,,,,,,,,,,,,,,,,,,,,,,,,,,,,,,,,,,,,,,,,,,,,,,,,,,,,,
0,67,67,52,1,,6162b219ce146c3f929c5c4c,62c539e9d2b6fa4cee194349,2022-07-06_09h31.29.213,Colour_Asymmetry_Pilot,2022.1.3,Win32,59.91252771,62c50e9c1127f2cd403a315f,,,,,,,,,,,,,,,,,,,,,,,,,,,,,,,,,,,,,,,,,,,,,,,,,,,,,,,,,,,,,,,,,,,,,,,,,,,,,,,,,,,,,,,,,,,,,,,,,,,,,,,,,,,,,,,,,,,,,,,,,,,,,,,,,,,,,,,,,,,,,,,,,,,,,,,,,,,,,,,,,,,
0,68,68,1,1,,6162b219ce146c3f929c5c4c,62c539e9d2b6fa4cee194349,2022-07-06_09h31.29.213,Colour_Asymmetry_Pilot,2022.1.3,Win32,59.91252771,62c50e9c1127f2cd403a315f,,,,,,,,,,,,,,,,,,,,,,,,,,,,,,,,,,,,,,,,,,,,,,,,,,,,,,,,,,,,,,,,,,,,,,,,,,,,,,,,,,,,,,,,,,,,,,,,,,,,,,,,,,,,,,,,,,,,,,,,,,,,,,,,,,,,,,,,,,,,,,,,,,,,,,,,,,,,,,,,,,,
0,69,69,23,1,,6162b219ce146c3f929c5c4c,62c539e9d2b6fa4cee194349,2022-07-06_09h31.29.213,Colour_Asymmetry_Pilot,2022.1.3,Win32,59.91252771,62c50e9c1127f2cd403a315f,,,,,,,,,,,,,,,,,,,,,,,,,,,,,,,,,,,,,,,,,,,,,,,,,,,,,,,,,,,,,,,,,,,,,,,,,,,,,,,,,,,,,,,,,,,,,,,,,,,,,,,,,,,,,,,,,,,,,,,,,,,,,,,,,,,,,,,,,,,,,,,,,,,,,,,,,,,,,,,,,,,
0,70,70,42,1,,6162b219ce146c3f929c5c4c,62c539e9d2b6fa4cee194349,2022-07-06_09h31.29.213,Colour_Asymmetry_Pilot,2022.1.3,Win32,59.91252771,62c50e9c1127f2cd403a315f,,,,,,,,,,,,,,,,,,,,,,,,,,,,,,,,,,,,,,,,,,,,,,,,,,,,,,,,,,,,,,,,,,,,,,,,,,,,,,,,,,,,,,,,,,,,,,,,,,,,,,,,,,,,,,,,,,,,,,,,,,,,,,,,,,,,,,,,,,,,,,,,,,,,,,,,,,,,,,,,,,,
0,71,71,30,1,,6162b219ce146c3f929c5c4c,62c539e9d2b6fa4cee194349,2022-07-06_09h31.29.213,Colour_Asymmetry_Pilot,2022.1.3,Win32,59.91252771,62c50e9c1127f2cd403a315f,,,,,,,,,,,,,,,,,,,,,,,,,,,,,,,,,,,,,,,,,,,,,,,,,,,,,,,,,,,,,,,,,,,,,,,,,,,,,,,,,,,,,,,,,,,,,,,,,,,,,,,,,,,,,,,,,,,,,,,,,,,,,,,,,,,,,,,,,,,,,,,,,,,,,,,,,,,,,,,,,,,
0,72,72,86,1,,6162b219ce146c3f929c5c4c,62c539e9d2b6fa4cee194349,2022-07-06_09h31.29.213,Colour_Asymmetry_Pilot,2022.1.3,Win32,59.91252771,62c50e9c1127f2cd403a315f,,,,,,,,,,,,,,,,,,,,,,,,,,,,,,,,,,,,,,,,,,,,,,,,,,,,,,,,,,,,,,,,,,,,,,,,,,,,,,,,,,,,,,,,,,,,,,,,,,,,,,,,,,,,,,,,,,,,,,,,,,,,,,,,,,,,,,,,,,,,,,,,,,,,,,,,,,,,,,,,,,,
0,73,73,35,1,,6162b219ce146c3f929c5c4c,62c539e9d2b6fa4cee194349,2022-07-06_09h31.29.213,Colour_Asymmetry_Pilot,2022.1.3,Win32,59.91252771,62c50e9c1127f2cd403a315f,,,,,,,,,,,,,,,,,,,,,,,,,,,,,,,,,,,,,,,,,,,,,,,,,,,,,,,,,,,,,,,,,,,,,,,,,,,,,,,,,,,,,,,,,,,,,,,,,,,,,,,,,,,,,,,,,,,,,,,,,,,,,,,,,,,,,,,,,,,,,,,,,,,,,,,,,,,,,,,,,,,
0,74,74,56,1,,6162b219ce146c3f929c5c4c,62c539e9d2b6fa4cee194349,2022-07-06_09h31.29.213,Colour_Asymmetry_Pilot,2022.1.3,Win32,59.91252771,62c50e9c1127f2cd403a315f,,,,,,,,,,,,,,,,,,,,,,,,,,,,,,,,,,,,,,,,,,,,,,,,,,,,,,,,,,,,,,,,,,,,,,,,,,,,,,,,,,,,,,,,,,,,,,,,,,,,,,,,,,,,,,,,,,,,,,,,,,,,,,,,,,,,,,,,,,,,,,,,,,,,,,,,,,,,,,,,,,,
0,75,75,6,1,,6162b219ce146c3f929c5c4c,62c539e9d2b6fa4cee194349,2022-07-06_09h31.29.213,Colour_Asymmetry_Pilot,2022.1.3,Win32,59.91252771,62c50e9c1127f2cd403a315f,,,,,,,,,,,,,,,,,,,,,,,,,,,,,,,,,,,,,,,,,,,,,,,,,,,,,,,,,,,,,,,,,,,,,,,,,,,,,,,,,,,,,,,,,,,,,,,,,,,,,,,,,,,,,,,,,,,,,,,,,,,,,,,,,,,,,,,,,,,,,,,,,,,,,,,,,,,,,,,,,,,
0,76,76,50,1,,6162b219ce146c3f929c5c4c,62c539e9d2b6fa4cee194349,2022-07-06_09h31.29.213,Colour_Asymmetry_Pilot,2022.1.3,Win32,59.91252771,62c50e9c1127f2cd403a315f,,,,,,,,,,,,,,,,,,,,,,,,,,,,,,,,,,,,,,,,,,,,,,,,,,,,,,,,,,,,,,,,,,,,,,,,,,,,,,,,,,,,,,,,,,,,,,,,,,,,,,,,,,,,,,,,,,,,,,,,,,,,,,,,,,,,,,,,,,,,,,,,,,,,,,,,,,,,,,,,,,,
0,77,77,34,1,,6162b219ce146c3f929c5c4c,62c539e9d2b6fa4cee194349,2022-07-06_09h31.29.213,Colour_Asymmetry_Pilot,2022.1.3,Win32,59.91252771,62c50e9c1127f2cd403a315f,,,,,,,,,,,,,,,,,,,,,,,,,,,,,,,,,,,,,,,,,,,,,,,,,,,,,,,,,,,,,,,,,,,,,,,,,,,,,,,,,,,,,,,,,,,,,,,,,,,,,,,,,,,,,,,,,,,,,,,,,,,,,,,,,,,,,,,,,,,,,,,,,,,,,,,,,,,,,,,,,,,
0,78,78,25,1,,6162b219ce146c3f929c5c4c,62c539e9d2b6fa4cee194349,2022-07-06_09h31.29.213,Colour_Asymmetry_Pilot,2022.1.3,Win32,59.91252771,62c50e9c1127f2cd403a315f,,,,,,,,,,,,,,,,,,,,,,,,,,,,,,,,,,,,,,,,,,,,,,,,,,,,,,,,,,,,,,,,,,,,,,,,,,,,,,,,,,,,,,,,,,,,,,,,,,,,,,,,,,,,,,,,,,,,,,,,,,,,,,,,,,,,,,,,,,,,,,,,,,,,,,,,,,,,,,,,,,,
0,79,79,47,1,,6162b219ce146c3f929c5c4c,62c539e9d2b6fa4cee194349,2022-07-06_09h31.29.213,Colour_Asymmetry_Pilot,2022.1.3,Win32,59.91252771,62c50e9c1127f2cd403a315f,,,,,,,,,,,,,,,,,,,,,,,,,,,,,,,,,,,,,,,,,,,,,,,,,,,,,,,,,,,,,,,,,,,,,,,,,,,,,,,,,,,,,,,,,,,,,,,,,,,,,,,,,,,,,,,,,,,,,,,,,,,,,,,,,,,,,,,,,,,,,,,,,,,,,,,,,,,,,,,,,,,
0,80,80,13,1,,6162b219ce146c3f929c5c4c,62c539e9d2b6fa4cee194349,2022-07-06_09h31.29.213,Colour_Asymmetry_Pilot,2022.1.3,Win32,59.91252771,62c50e9c1127f2cd403a315f,,,,,,,,,,,,,,,,,,,,,,,,,,,,,,,,,,,,,,,,,,,,,,,,,,,,,,,,,,,,,,,,,,,,,,,,,,,,,,,,,,,,,,,,,,,,,,,,,,,,,,,,,,,,,,,,,,,,,,,,,,,,,,,,,,,,,,,,,,,,,,,,,,,,,,,,,,,,,,,,,,,
0,81,81,44,1,,6162b219ce146c3f929c5c4c,62c539e9d2b6fa4cee194349,2022-07-06_09h31.29.213,Colour_Asymmetry_Pilot,2022.1.3,Win32,59.91252771,62c50e9c1127f2cd403a315f,,,,,,,,,,,,,,,,,,,,,,,,,,,,,,,,,,,,,,,,,,,,,,,,,,,,,,,,,,,,,,,,,,,,,,,,,,,,,,,,,,,,,,,,,,,,,,,,,,,,,,,,,,,,,,,,,,,,,,,,,,,,,,,,,,,,,,,,,,,,,,,,,,,,,,,,,,,,,,,,,,,
0,82,82,16,1,,6162b219ce146c3f929c5c4c,62c539e9d2b6fa4cee194349,2022-07-06_09h31.29.213,Colour_Asymmetry_Pilot,2022.1.3,Win32,59.91252771,62c50e9c1127f2cd403a315f,,,,,,,,,,,,,,,,,,,,,,,,,,,,,,,,,,,,,,,,,,,,,,,,,,,,,,,,,,,,,,,,,,,,,,,,,,,,,,,,,,,,,,,,,,,,,,,,,,,,,,,,,,,,,,,,,,,,,,,,,,,,,,,,,,,,,,,,,,,,,,,,,,,,,,,,,,,,,,,,,,,
0,83,83,0,1,,6162b219ce146c3f929c5c4c,62c539e9d2b6fa4cee194349,2022-07-06_09h31.29.213,Colour_Asymmetry_Pilot,2022.1.3,Win32,59.91252771,62c50e9c1127f2cd403a315f,,,,,,,,,,,,,,,,,,,,,,,,,,,,,,,,,,,,,,,,,,,,,,,,,,,,,,,,,,,,,,,,,,,,,,,,,,,,,,,,,,,,,,,,,,,,,,,,,,,,,,,,,,,,,,,,,,,,,,,,,,,,,,,,,,,,,,,,,,,,,,,,,,,,,,,,,,,,,,,,,,,
0,84,84,78,1,,6162b219ce146c3f929c5c4c,62c539e9d2b6fa4cee194349,2022-07-06_09h31.29.213,Colour_Asymmetry_Pilot,2022.1.3,Win32,59.91252771,62c50e9c1127f2cd403a315f,,,,,,,,,,,,,,,,,,,,,,,,,,,,,,,,,,,,,,,,,,,,,,,,,,,,,,,,,,,,,,,,,,,,,,,,,,,,,,,,,,,,,,,,,,,,,,,,,,,,,,,,,,,,,,,,,,,,,,,,,,,,,,,,,,,,,,,,,,,,,,,,,,,,,,,,,,,,,,,,,,,
0,85,85,62,1,,6162b219ce146c3f929c5c4c,62c539e9d2b6fa4cee194349,2022-07-06_09h31.29.213,Colour_Asymmetry_Pilot,2022.1.3,Win32,59.91252771,62c50e9c1127f2cd403a315f,,,,,,,,,,,,,,,,,,,,,,,,,,,,,,,,,,,,,,,,,,,,,,,,,,,,,,,,,,,,,,,,,,,,,,,,,,,,,,,,,,,,,,,,,,,,,,,,,,,,,,,,,,,,,,,,,,,,,,,,,,,,,,,,,,,,,,,,,,,,,,,,,,,,,,,,,,,,,,,,,,,
0,86,86,8,1,,6162b219ce146c3f929c5c4c,62c539e9d2b6fa4cee194349,2022-07-06_09h31.29.213,Colour_Asymmetry_Pilot,2022.1.3,Win32,59.91252771,62c50e9c1127f2cd403a315f,,,,,,,,,,,,,,,,,,,,,,,,,,,,,,,,,,,,,,,,,,,,,,,,,,,,,,,,,,,,,,,,,,,,,,,,,,,,,,,,,,,,,,,,,,,,,,,,,,,,,,,,,,,,,,,,,,,,,,,,,,,,,,,,,,,,,,,,,,,,,,,,,,,,,,,,,,,,,,,,,,,
0,87,87,37,1,,6162b219ce146c3f929c5c4c,62c539e9d2b6fa4cee194349,2022-07-06_09h31.29.213,Colour_Asymmetry_Pilot,2022.1.3,Win32,59.91252771,62c50e9c1127f2cd403a315f,,,,,,,,,,,,,,,,,,,,,,,,,,,,,,,,,,,,,,,,,,,,,,,,,,,,,,,,,,,,,,,,,,,,,,,,,,,,,,,,,,,,,,,,,,,,,,,,,,,,,,,,,,,,,,,,,,,,,,,,,,,,,,,,,,,,,,,,,,,,,,,,,,,,,,,,,,,,,,,,,,,
0,88,88,36,1,,6162b219ce146c3f929c5c4c,62c539e9d2b6fa4cee194349,2022-07-06_09h31.29.213,Colour_Asymmetry_Pilot,2022.1.3,Win32,59.91252771,62c50e9c1127f2cd403a315f,,,,,,,,,,,,,,,,,,,,,,,,,,,,,,,,,,,,,,,,,,,,,,,,,,,,,,,,,,,,,,,,,,,,,,,,,,,,,,,,,,,,,,,,,,,,,,,,,,,,,,,,,,,,,,,,,,,,,,,,,,,,,,,,,,,,,,,,,,,,,,,,,,,,,,,,,,,,,,,,,,,
0,89,89,33,1,,6162b219ce146c3f929c5c4c,62c539e9d2b6fa4cee194349,2022-07-06_09h31.29.213,Colour_Asymmetry_Pilot,2022.1.3,Win32,59.91252771,62c50e9c1127f2cd403a315f,,,,,,,,,,,,,,,,,,,,,,,,,,,,,,,,,,,,,,,,,,,,,,,,,,,,,,,,,,,,,,,,,,,,,,,,,,,,,,,,,,,,,,,,,,,,,,,,,,,,,,,,,,,,,,,,,,,,,,,,,,,,,,,,,,,,,,,,,,,,,,,,,,,,,,,,,,,,,,,,,,,
0,90,90,24,1,,6162b219ce146c3f929c5c4c,62c539e9d2b6fa4cee194349,2022-07-06_09h31.29.213,Colour_Asymmetry_Pilot,2022.1.3,Win32,59.91252771,62c50e9c1127f2cd403a315f,,,,,,,,,,,,,,,,,,,,,,,,,,,,,,,,,,,,,,,,,,,,,,,,,,,,,,,,,,,,,,,,,,,,,,,,,,,,,,,,,,,,,,,,,,,,,,,,,,,,,,,,,,,,,,,,,,,,,,,,,,,,,,,,,,,,,,,,,,,,,,,,,,,,,,,,,,,,,,,,,,,
0,91,91,3,1,,6162b219ce146c3f929c5c4c,62c539e9d2b6fa4cee194349,2022-07-06_09h31.29.213,Colour_Asymmetry_Pilot,2022.1.3,Win32,59.91252771,62c50e9c1127f2cd403a315f,,,,,,,,,,,,,,,,,,,,,,,,,,,,,,,,,,,,,,,,,,,,,,,,,,,,,,,,,,,,,,,,,,,,,,,,,,,,,,,,,,,,,,,,,,,,,,,,,,,,,,,,,,,,,,,,,,,,,,,,,,,,,,,,,,,,,,,,,,,,,,,,,,,,,,,,,,,,,,,,,,,
0,92,92,20,1,,6162b219ce146c3f929c5c4c,62c539e9d2b6fa4cee194349,2022-07-06_09h31.29.213,Colour_Asymmetry_Pilot,2022.1.3,Win32,59.91252771,62c50e9c1127f2cd403a315f,,,,,,,,,,,,,,,,,,,,,,,,,,,,,,,,,,,,,,,,,,,,,,,,,,,,,,,,,,,,,,,,,,,,,,,,,,,,,,,,,,,,,,,,,,,,,,,,,,,,,,,,,,,,,,,,,,,,,,,,,,,,,,,,,,,,,,,,,,,,,,,,,,,,,,,,,,,,,,,,,,,
,,,,,,6162b219ce146c3f929c5c4c,62c539e9d2b6fa4cee194349,2022-07-06_09h31.29.213,Colour_Asymmetry_Pilot,2022.1.3,Win32,59.91252771,62c50e9c1127f2cd403a315f,0,0,0,136,1,onetwo,,,,,,,,,,,,,,,,,,,,,,,,,,,,,,,,,,,,,,,,,,,,,,,,,,,,,,,,,,,,,,,,,,,,,,,,,,,,,,,,,,,,,,,,,,,,,,,,,,,,,,,,,,,,,,,,,,,,,,,,,,,,,,,,,,,,,,,,,,,,,,,,,,,,,,,,,,,,,
,,,,,,6162b219ce146c3f929c5c4c,62c539e9d2b6fa4cee194349,2022-07-06_09h31.29.213,Colour_Asymmetry_Pilot,2022.1.3,Win32,59.91252771,62c50e9c1127f2cd403a315f,0,1,1,95,1,fourthree,,,,,,,,,,,,,,,,,,,,,,,,,,,,,,,,,,,,,,,,,,,,,,,,,,,,,,,,,,,,,,,,,,,,,,,,,,,,,,,,,,,,,,,,,,,,,,,,,,,,,,,,,,,,,,,,,,,,,,,,,,,,,,,,,,,,,,,,,,,,,,,,,,,,,,,,,,,,,
,,,,,,6162b219ce146c3f929c5c4c,62c539e9d2b6fa4cee194349,2022-07-06_09h31.29.213,Colour_Asymmetry_Pilot,2022.1.3,Win32,59.91252771,62c50e9c1127f2cd403a315f,0,2,2,130,1,twoone,,,,,,,,,,,,,,,,,,,,,,,,,,,,,,,,,,,,,,,,,,,,,,,,,,,,,,,,,,,,,,,,,,,,,,,,,,,,,,,,,,,,,,,,,,,,,,,,,,,,,,,,,,,,,,,,,,,,,,,,,,,,,,,,,,,,,,,,,,,,,,,,,,,,,,,,,,,,,
,,,,,,6162b219ce146c3f929c5c4c,62c539e9d2b6fa4cee194349,2022-07-06_09h31.29.213,Colour_Asymmetry_Pilot,2022.1.3,Win32,59.91252771,62c50e9c1127f2cd403a315f,0,3,3,111,1,fourthree,,,,,,,,,,,,,,,,,,,,,,,,,,,,,,,,,,,,,,,,,,,,,,,,,,,,,,,,,,,,,,,,,,,,,,,,,,,,,,,,,,,,,,,,,,,,,,,,,,,,,,,,,,,,,,,,,,,,,,,,,,,,,,,,,,,,,,,,,,,,,,,,,,,,,,,,,,,,,
,,,,,,6162b219ce146c3f929c5c4c,62c539e9d2b6fa4cee194349,2022-07-06_09h31.29.213,Colour_Asymmetry_Pilot,2022.1.3,Win32,59.91252771,62c50e9c1127f2cd403a315f,0,4,4,96,1,onetwo,,,,,,,,,,,,,,,,,,,,,,,,,,,,,,,,,,,,,,,,,,,,,,,,,,,,,,,,,,,,,,,,,,,,,,,,,,,,,,,,,,,,,,,,,,,,,,,,,,,,,,,,,,,,,,,,,,,,,,,,,,,,,,,,,,,,,,,,,,,,,,,,,,,,,,,,,,,,,
,,,,,,6162b219ce146c3f929c5c4c,62c539e9d2b6fa4cee194349,2022-07-06_09h31.29.213,Colour_Asymmetry_Pilot,2022.1.3,Win32,59.91252771,62c50e9c1127f2cd403a315f,0,5,5,109,1,threefour,,,,,,,,,,,,,,,,,,,,,,,,,,,,,,,,,,,,,,,,,,,,,,,,,,,,,,,,,,,,,,,,,,,,,,,,,,,,,,,,,,,,,,,,,,,,,,,,,,,,,,,,,,,,,,,,,,,,,,,,,,,,,,,,,,,,,,,,,,,,,,,,,,,,,,,,,,,,,
,,,,,,6162b219ce146c3f929c5c4c,62c539e9d2b6fa4cee194349,2022-07-06_09h31.29.213,Colour_Asymmetry_Pilot,2022.1.3,Win32,59.91252771,62c50e9c1127f2cd403a315f,0,6,6,102,1,fourtwo,,,,,,,,,,,,,,,,,,,,,,,,,,,,,,,,,,,,,,,,,,,,,,,,,,,,,,,,,,,,,,,,,,,,,,,,,,,,,,,,,,,,,,,,,,,,,,,,,,,,,,,,,,,,,,,,,,,,,,,,,,,,,,,,,,,,,,,,,,,,,,,,,,,,,,,,,,,,,
,,,,,,6162b219ce146c3f929c5c4c,62c539e9d2b6fa4cee194349,2022-07-06_09h31.29.213,Colour_Asymmetry_Pilot,2022.1.3,Win32,59.91252771,62c50e9c1127f2cd403a315f,0,7,7,89,1,onethree,,,,,,,,,,,,,,,,,,,,,,,,,,,,,,,,,,,,,,,,,,,,,,,,,,,,,,,,,,,,,,,,,,,,,,,,,,,,,,,,,,,,,,,,,,,,,,,,,,,,,,,,,,,,,,,,,,,,,,,,,,,,,,,,,,,,,,,,,,,,,,,,,,,,,,,,,,,,,
,,,,,,6162b219ce146c3f929c5c4c,62c539e9d2b6fa4cee194349,2022-07-06_09h31.29.213,Colour_Asymmetry_Pilot,2022.1.3,Win32,59.91252771,62c50e9c1127f2cd403a315f,0,8,8,10,1,twoone,,,,,,,,,,,,,,,,,,,,,,,,,,,,,,,,,,,,,,,,,,,,,,,,,,,,,,,,,,,,,,,,,,,,,,,,,,,,,,,,,,,,,,,,,,,,,,,,,,,,,,,,,,,,,,,,,,,,,,,,,,,,,,,,,,,,,,,,,,,,,,,,,,,,,,,,,,,,,
,,,,,,6162b219ce146c3f929c5c4c,62c539e9d2b6fa4cee194349,2022-07-06_09h31.29.213,Colour_Asymmetry_Pilot,2022.1.3,Win32,59.91252771,62c50e9c1127f2cd403a315f,0,9,9,66,1,twoone,,,,,,,,,,,,,,,,,,,,,,,,,,,,,,,,,,,,,,,,,,,,,,,,,,,,,,,,,,,,,,,,,,,,,,,,,,,,,,,,,,,,,,,,,,,,,,,,,,,,,,,,,,,,,,,,,,,,,,,,,,,,,,,,,,,,,,,,,,,,,,,,,,,,,,,,,,,,,
,,,,,,6162b219ce146c3f929c5c4c,62c539e9d2b6fa4cee194349,2022-07-06_09h31.29.213,Colour_Asymmetry_Pilot,2022.1.3,Win32,59.91252771,62c50e9c1127f2cd403a315f,0,10,10,19,1,twofour,,,,,,,,,,,,,,,,,,,,,,,,,,,,,,,,,,,,,,,,,,,,,,,,,,,,,,,,,,,,,,,,,,,,,,,,,,,,,,,,,,,,,,,,,,,,,,,,,,,,,,,,,,,,,,,,,,,,,,,,,,,,,,,,,,,,,,,,,,,,,,,,,,,,,,,,,,,,,
,,,,,,6162b219ce146c3f929c5c4c,62c539e9d2b6fa4cee194349,2022-07-06_09h31.29.213,Colour_Asymmetry_Pilot,2022.1.3,Win32,59.91252771,62c50e9c1127f2cd403a315f,0,11,11,50,1,twoone,,,,,,,,,,,,,,,,,,,,,,,,,,,,,,,,,,,,,,,,,,,,,,,,,,,,,,,,,,,,,,,,,,,,,,,,,,,,,,,,,,,,,,,,,,,,,,,,,,,,,,,,,,,,,,,,,,,,,,,,,,,,,,,,,,,,,,,,,,,,,,,,,,,,,,,,,,,,,
,,,,,,6162b219ce146c3f929c5c4c,62c539e9d2b6fa4cee194349,2022-07-06_09h31.29.213,Colour_Asymmetry_Pilot,2022.1.3,Win32,59.91252771,62c50e9c1127f2cd403a315f,0,12,12,17,1,onethree,,,,,,,,,,,,,,,,,,,,,,,,,,,,,,,,,,,,,,,,,,,,,,,,,,,,,,,,,,,,,,,,,,,,,,,,,,,,,,,,,,,,,,,,,,,,,,,,,,,,,,,,,,,,,,,,,,,,,,,,,,,,,,,,,,,,,,,,,,,,,,,,,,,,,,,,,,,,,
,,,,,,6162b219ce146c3f929c5c4c,62c539e9d2b6fa4cee194349,2022-07-06_09h31.29.213,Colour_Asymmetry_Pilot,2022.1.3,Win32,59.91252771,62c50e9c1127f2cd403a315f,0,13,13,13,1,threefour,,,,,,,,,,,,,,,,,,,,,,,,,,,,,,,,,,,,,,,,,,,,,,,,,,,,,,,,,,,,,,,,,,,,,,,,,,,,,,,,,,,,,,,,,,,,,,,,,,,,,,,,,,,,,,,,,,,,,,,,,,,,,,,,,,,,,,,,,,,,,,,,,,,,,,,,,,,,,
,,,,,,6162b219ce146c3f929c5c4c,62c539e9d2b6fa4cee194349,2022-07-06_09h31.29.213,Colour_Asymmetry_Pilot,2022.1.3,Win32,59.91252771,62c50e9c1127f2cd403a315f,0,14,14,155,1,twofour,,,,,,,,,,,,,,,,,,,,,,,,,,,,,,,,,,,,,,,,,,,,,,,,,,,,,,,,,,,,,,,,,,,,,,,,,,,,,,,,,,,,,,,,,,,,,,,,,,,,,,,,,,,,,,,,,,,,,,,,,,,,,,,,,,,,,,,,,,,,,,,,,,,,,,,,,,,,,
,,,,,,6162b219ce146c3f929c5c4c,62c539e9d2b6fa4cee194349,2022-07-06_09h31.29.213,Colour_Asymmetry_Pilot,2022.1.3,Win32,59.91252771,62c50e9c1127f2cd403a315f,0,15,15,78,1,fourtwo,,,,,,,,,,,,,,,,,,,,,,,,,,,,,,,,,,,,,,,,,,,,,,,,,,,,,,,,,,,,,,,,,,,,,,,,,,,,,,,,,,,,,,,,,,,,,,,,,,,,,,,,,,,,,,,,,,,,,,,,,,,,,,,,,,,,,,,,,,,,,,,,,,,,,,,,,,,,,
,,,,,,6162b219ce146c3f929c5c4c,62c539e9d2b6fa4cee194349,2022-07-06_09h31.29.213,Colour_Asymmetry_Pilot,2022.1.3,Win32,59.91252771,62c50e9c1127f2cd403a315f,0,16,16,18,1,twoone,,,,,,,,,,,,,,,,,,,,,,,,,,,,,,,,,,,,,,,,,,,,,,,,,,,,,,,,,,,,,,,,,,,,,,,,,,,,,,,,,,,,,,,,,,,,,,,,,,,,,,,,,,,,,,,,,,,,,,,,,,,,,,,,,,,,,,,,,,,,,,,,,,,,,,,,,,,,,
,,,,,,6162b219ce146c3f929c5c4c,62c539e9d2b6fa4cee194349,2022-07-06_09h31.29.213,Colour_Asymmetry_Pilot,2022.1.3,Win32,59.91252771,62c50e9c1127f2cd403a315f,0,17,17,144,1,onetwo,,,,,,,,,,,,,,,,,,,,,,,,,,,,,,,,,,,,,,,,,,,,,,,,,,,,,,,,,,,,,,,,,,,,,,,,,,,,,,,,,,,,,,,,,,,,,,,,,,,,,,,,,,,,,,,,,,,,,,,,,,,,,,,,,,,,,,,,,,,,,,,,,,,,,,,,,,,,,
,,,,,,6162b219ce146c3f929c5c4c,62c539e9d2b6fa4cee194349,2022-07-06_09h31.29.213,Colour_Asymmetry_Pilot,2022.1.3,Win32,59.91252771,62c50e9c1127f2cd403a315f,0,18,18,15,1,fourthree,,,,,,,,,,,,,,,,,,,,,,,,,,,,,,,,,,,,,,,,,,,,,,,,,,,,,,,,,,,,,,,,,,,,,,,,,,,,,,,,,,,,,,,,,,,,,,,,,,,,,,,,,,,,,,,,,,,,,,,,,,,,,,,,,,,,,,,,,,,,,,,,,,,,,,,,,,,,,
,,,,,,6162b219ce146c3f929c5c4c,62c539e9d2b6fa4cee194349,2022-07-06_09h31.29.213,Colour_Asymmetry_Pilot,2022.1.3,Win32,59.91252771,62c50e9c1127f2cd403a315f,0,19,19,124,1,threeone,,,,,,,,,,,,,,,,,,,,,,,,,,,,,,,,,,,,,,,,,,,,,,,,,,,,,,,,,,,,,,,,,,,,,,,,,,,,,,,,,,,,,,,,,,,,,,,,,,,,,,,,,,,,,,,,,,,,,,,,,,,,,,,,,,,,,,,,,,,,,,,,,,,,,,,,,,,,,
,,,,,,6162b219ce146c3f929c5c4c,62c539e9d2b6fa4cee194349,2022-07-06_09h31.29.213,Colour_Asymmetry_Pilot,2022.1.3,Win32,59.91252771,62c50e9c1127f2cd403a315f,0,20,20,117,1,threefour,,,,,,,,,,,,,,,,,,,,,,,,,,,,,,,,,,,,,,,,,,,,,,,,,,,,,,,,,,,,,,,,,,,,,,,,,,,,,,,,,,,,,,,,,,,,,,,,,,,,,,,,,,,,,,,,,,,,,,,,,,,,,,,,,,,,,,,,,,,,,,,,,,,,,,,,,,,,,
,,,,,,6162b219ce146c3f929c5c4c,62c539e9d2b6fa4cee194349,2022-07-06_09h31.29.213,Colour_Asymmetry_Pilot,2022.1.3,Win32,59.91252771,62c50e9c1127f2cd403a315f,0,21,21,159,1,fourthree,,,,,,,,,,,,,,,,,,,,,,,,,,,,,,,,,,,,,,,,,,,,,,,,,,,,,,,,,,,,,,,,,,,,,,,,,,,,,,,,,,,,,,,,,,,,,,,,,,,,,,,,,,,,,,,,,,,,,,,,,,,,,,,,,,,,,,,,,,,,,,,,,,,,,,,,,,,,,
,,,,,,6162b219ce146c3f929c5c4c,62c539e9d2b6fa4cee194349,2022-07-06_09h31.29.213,Colour_Asymmetry_Pilot,2022.1.3,Win32,59.91252771,62c50e9c1127f2cd403a315f,0,22,22,85,1,threefour,,,,,,,,,,,,,,,,,,,,,,,,,,,,,,,,,,,,,,,,,,,,,,,,,,,,,,,,,,,,,,,,,,,,,,,,,,,,,,,,,,,,,,,,,,,,,,,,,,,,,,,,,,,,,,,,,,,,,,,,,,,,,,,,,,,,,,,,,,,,,,,,,,,,,,,,,,,,,
,,,,,,6162b219ce146c3f929c5c4c,62c539e9d2b6fa4cee194349,2022-07-06_09h31.29.213,Colour_Asymmetry_Pilot,2022.1.3,Win32,59.91252771,62c50e9c1127f2cd403a315f,0,23,23,67,1,twofour,,,,,,,,,,,,,,,,,,,,,,,,,,,,,,,,,,,,,,,,,,,,,,,,,,,,,,,,,,,,,,,,,,,,,,,,,,,,,,,,,,,,,,,,,,,,,,,,,,,,,,,,,,,,,,,,,,,,,,,,,,,,,,,,,,,,,,,,,,,,,,,,,,,,,,,,,,,,,
,,,,,,6162b219ce146c3f929c5c4c,62c539e9d2b6fa4cee194349,2022-07-06_09h31.29.213,Colour_Asymmetry_Pilot,2022.1.3,Win32,59.91252771,62c50e9c1127f2cd403a315f,0,24,24,46,1,fourtwo,,,,,,,,,,,,,,,,,,,,,,,,,,,,,,,,,,,,,,,,,,,,,,,,,,,,,,,,,,,,,,,,,,,,,,,,,,,,,,,,,,,,,,,,,,,,,,,,,,,,,,,,,,,,,,,,,,,,,,,,,,,,,,,,,,,,,,,,,,,,,,,,,,,,,,,,,,,,,
,,,,,,6162b219ce146c3f929c5c4c,62c539e9d2b6fa4cee194349,2022-07-06_09h31.29.213,Colour_Asymmetry_Pilot,2022.1.3,Win32,59.91252771,62c50e9c1127f2cd403a315f,0,25,25,156,1,threeone,,,,,,,,,,,,,,,,,,,,,,,,,,,,,,,,,,,,,,,,,,,,,,,,,,,,,,,,,,,,,,,,,,,,,,,,,,,,,,,,,,,,,,,,,,,,,,,,,,,,,,,,,,,,,,,,,,,,,,,,,,,,,,,,,,,,,,,,,,,,,,,,,,,,,,,,,,,,,
,,,,,,6162b219ce146c3f929c5c4c,62c539e9d2b6fa4cee194349,2022-07-06_09h31.29.213,Colour_Asymmetry_Pilot,2022.1.3,Win32,59.91252771,62c50e9c1127f2cd403a315f,0,26,26,150,1,fourtwo,,,,,,,,,,,,,,,,,,,,,,,,,,,,,,,,,,,,,,,,,,,,,,,,,,,,,,,,,,,,,,,,,,,,,,,,,,,,,,,,,,,,,,,,,,,,,,,,,,,,,,,,,,,,,,,,,,,,,,,,,,,,,,,,,,,,,,,,,,,,,,,,,,,,,,,,,,,,,
,,,,,,6162b219ce146c3f929c5c4c,62c539e9d2b6fa4cee194349,2022-07-06_09h31.29.213,Colour_Asymmetry_Pilot,2022.1.3,Win32,59.91252771,62c50e9c1127f2cd403a315f,0,27,27,77,1,threefour,,,,,,,,,,,,,,,,,,,,,,,,,,,,,,,,,,,,,,,,,,,,,,,,,,,,,,,,,,,,,,,,,,,,,,,,,,,,,,,,,,,,,,,,,,,,,,,,,,,,,,,,,,,,,,,,,,,,,,,,,,,,,,,,,,,,,,,,,,,,,,,,,,,,,,,,,,,,,
,,,,,,6162b219ce146c3f929c5c4c,62c539e9d2b6fa4cee194349,2022-07-06_09h31.29.213,Colour_Asymmetry_Pilot,2022.1.3,Win32,59.91252771,62c50e9c1127f2cd403a315f,0,28,28,39,1,fourthree,,,,,,,,,,,,,,,,,,,,,,,,,,,,,,,,,,,,,,,,,,,,,,,,,,,,,,,,,,,,,,,,,,,,,,,,,,,,,,,,,,,,,,,,,,,,,,,,,,,,,,,,,,,,,,,,,,,,,,,,,,,,,,,,,,,,,,,,,,,,,,,,,,,,,,,,,,,,,
,,,,,,6162b219ce146c3f929c5c4c,62c539e9d2b6fa4cee194349,2022-07-06_09h31.29.213,Colour_Asymmetry_Pilot,2022.1.3,Win32,59.91252771,62c50e9c1127f2cd403a315f,0,29,29,105,1,onethree,,,,,,,,,,,,,,,,,,,,,,,,,,,,,,,,,,,,,,,,,,,,,,,,,,,,,,,,,,,,,,,,,,,,,,,,,,,,,,,,,,,,,,,,,,,,,,,,,,,,,,,,,,,,,,,,,,,,,,,,,,,,,,,,,,,,,,,,,,,,,,,,,,,,,,,,,,,,,
,,,,,,6162b219ce146c3f929c5c4c,62c539e9d2b6fa4cee194349,2022-07-06_09h31.29.213,Colour_Asymmetry_Pilot,2022.1.3,Win32,59.91252771,62c50e9c1127f2cd403a315f,0,30,30,88,1,onetwo,,,,,,,,,,,,,,,,,,,,,,,,,,,,,,,,,,,,,,,,,,,,,,,,,,,,,,,,,,,,,,,,,,,,,,,,,,,,,,,,,,,,,,,,,,,,,,,,,,,,,,,,,,,,,,,,,,,,,,,,,,,,,,,,,,,,,,,,,,,,,,,,,,,,,,,,,,,,,
,,,,,,6162b219ce146c3f929c5c4c,62c539e9d2b6fa4cee194349,2022-07-06_09h31.29.213,Colour_Asymmetry_Pilot,2022.1.3,Win32,59.91252771,62c50e9c1127f2cd403a315f,0,31,31,123,1,twofour,,,,,,,,,,,,,,,,,,,,,,,,,,,,,,,,,,,,,,,,,,,,,,,,,,,,,,,,,,,,,,,,,,,,,,,,,,,,,,,,,,,,,,,,,,,,,,,,,,,,,,,,,,,,,,,,,,,,,,,,,,,,,,,,,,,,,,,,,,,,,,,,,,,,,,,,,,,,,
,,,,,,6162b219ce146c3f929c5c4c,62c539e9d2b6fa4cee194349,2022-07-06_09h31.29.213,Colour_Asymmetry_Pilot,2022.1.3,Win32,59.91252771,62c50e9c1127f2cd403a315f,0,32,32,34,1,twoone,,,,,,,,,,,,,,,,,,,,,,,,,,,,,,,,,,,,,,,,,,,,,,,,,,,,,,,,,,,,,,,,,,,,,,,,,,,,,,,,,,,,,,,,,,,,,,,,,,,,,,,,,,,,,,,,,,,,,,,,,,,,,,,,,,,,,,,,,,,,,,,,,,,,,,,,,,,,,
,,,,,,6162b219ce146c3f929c5c4c,62c539e9d2b6fa4cee194349,2022-07-06_09h31.29.213,Colour_Asymmetry_Pilot,2022.1.3,Win32,59.91252771,62c50e9c1127f2cd403a315f,0,33,33,62,1,fourtwo,,,,,,,,,,,,,,,,,,,,,,,,,,,,,,,,,,,,,,,,,,,,,,,,,,,,,,,,,,,,,,,,,,,,,,,,,,,,,,,,,,,,,,,,,,,,,,,,,,,,,,,,,,,,,,,,,,,,,,,,,,,,,,,,,,,,,,,,,,,,,,,,,,,,,,,,,,,,,
,,,,,,6162b219ce146c3f929c5c4c,62c539e9d2b6fa4cee194349,2022-07-06_09h31.29.213,Colour_Asymmetry_Pilot,2022.1.3,Win32,59.91252771,62c50e9c1127f2cd403a315f,0,34,34,141,1,threefour,,,,,,,,,,,,,,,,,,,,,,,,,,,,,,,,,,,,,,,,,,,,,,,,,,,,,,,,,,,,,,,,,,,,,,,,,,,,,,,,,,,,,,,,,,,,,,,,,,,,,,,,,,,,,,,,,,,,,,,,,,,,,,,,,,,,,,,,,,,,,,,,,,,,,,,,,,,,,
,,,,,,6162b219ce146c3f929c5c4c,62c539e9d2b6fa4cee194349,2022-07-06_09h31.29.213,Colour_Asymmetry_Pilot,2022.1.3,Win32,59.91252771,62c50e9c1127f2cd403a315f,0,35,35,21,1,threefour,,,,,,,,,,,,,,,,,,,,,,,,,,,,,,,,,,,,,,,,,,,,,,,,,,,,,,,,,,,,,,,,,,,,,,,,,,,,,,,,,,,,,,,,,,,,,,,,,,,,,,,,,,,,,,,,,,,,,,,,,,,,,,,,,,,,,,,,,,,,,,,,,,,,,,,,,,,,,
,,,,,,6162b219ce146c3f929c5c4c,62c539e9d2b6fa4cee194349,2022-07-06_09h31.29.213,Colour_Asymmetry_Pilot,2022.1.3,Win32,59.91252771,62c50e9c1127f2cd403a315f,0,36,36,139,1,twofour,,,,,,,,,,,,,,,,,,,,,,,,,,,,,,,,,,,,,,,,,,,,,,,,,,,,,,,,,,,,,,,,,,,,,,,,,,,,,,,,,,,,,,,,,,,,,,,,,,,,,,,,,,,,,,,,,,,,,,,,,,,,,,,,,,,,,,,,,,,,,,,,,,,,,,,,,,,,,
,,,,,,6162b219ce146c3f929c5c4c,62c539e9d2b6fa4cee194349,2022-07-06_09h31.29.213,Colour_Asymmetry_Pilot,2022.1.3,Win32,59.91252771,62c50e9c1127f2cd403a315f,0,37,37,74,1,twoone,,,,,,,,,,,,,,,,,,,,,,,,,,,,,,,,,,,,,,,,,,,,,,,,,,,,,,,,,,,,,,,,,,,,,,,,,,,,,,,,,,,,,,,,,,,,,,,,,,,,,,,,,,,,,,,,,,,,,,,,,,,,,,,,,,,,,,,,,,,,,,,,,,,,,,,,,,,,,
,,,,,,6162b219ce146c3f929c5c4c,62c539e9d2b6fa4cee194349,2022-07-06_09h31.29.213,Colour_Asymmetry_Pilot,2022.1.3,Win32,59.91252771,62c50e9c1127f2cd403a315f,0,38,38,81,1,onethree,,,,,,,,,,,,,,,,,,,,,,,,,,,,,,,,,,,,,,,,,,,,,,,,,,,,,,,,,,,,,,,,,,,,,,,,,,,,,,,,,,,,,,,,,,,,,,,,,,,,,,,,,,,,,,,,,,,,,,,,,,,,,,,,,,,,,,,,,,,,,,,,,,,,,,,,,,,,,
,,,,,,6162b219ce146c3f929c5c4c,62c539e9d2b6fa4cee194349,2022-07-06_09h31.29.213,Colour_Asymmetry_Pilot,2022.1.3,Win32,59.91252771,62c50e9c1127f2cd403a315f,0,39,39,28,1,threeone,,,,,,,,,,,,,,,,,,,,,,,,,,,,,,,,,,,,,,,,,,,,,,,,,,,,,,,,,,,,,,,,,,,,,,,,,,,,,,,,,,,,,,,,,,,,,,,,,,,,,,,,,,,,,,,,,,,,,,,,,,,,,,,,,,,,,,,,,,,,,,,,,,,,,,,,,,,,,
,,,,,,6162b219ce146c3f929c5c4c,62c539e9d2b6fa4cee194349,2022-07-06_09h31.29.213,Colour_Asymmetry_Pilot,2022.1.3,Win32,59.91252771,62c50e9c1127f2cd403a315f,0,40,40,42,1,twoone,,,,,,,,,,,,,,,,,,,,,,,,,,,,,,,,,,,,,,,,,,,,,,,,,,,,,,,,,,,,,,,,,,,,,,,,,,,,,,,,,,,,,,,,,,,,,,,,,,,,,,,,,,,,,,,,,,,,,,,,,,,,,,,,,,,,,,,,,,,,,,,,,,,,,,,,,,,,,
,,,,,,6162b219ce146c3f929c5c4c,62c539e9d2b6fa4cee194349,2022-07-06_09h31.29.213,Colour_Asymmetry_Pilot,2022.1.3,Win32,59.91252771,62c50e9c1127f2cd403a315f,0,41,41,94,1,fourtwo,,,,,,,,,,,,,,,,,,,,,,,,,,,,,,,,,,,,,,,,,,,,,,,,,,,,,,,,,,,,,,,,,,,,,,,,,,,,,,,,,,,,,,,,,,,,,,,,,,,,,,,,,,,,,,,,,,,,,,,,,,,,,,,,,,,,,,,,,,,,,,,,,,,,,,,,,,,,,
,,,,,,6162b219ce146c3f929c5c4c,62c539e9d2b6fa4cee194349,2022-07-06_09h31.29.213,Colour_Asymmetry_Pilot,2022.1.3,Win32,59.91252771,62c50e9c1127f2cd403a315f,0,42,42,153,1,onethree,,,,,,,,,,,,,,,,,,,,,,,,,,,,,,,,,,,,,,,,,,,,,,,,,,,,,,,,,,,,,,,,,,,,,,,,,,,,,,,,,,,,,,,,,,,,,,,,,,,,,,,,,,,,,,,,,,,,,,,,,,,,,,,,,,,,,,,,,,,,,,,,,,,,,,,,,,,,,
,,,,,,6162b219ce146c3f929c5c4c,62c539e9d2b6fa4cee194349,2022-07-06_09h31.29.213,Colour_Asymmetry_Pilot,2022.1.3,Win32,59.91252771,62c50e9c1127f2cd403a315f,0,43,43,72,1,onetwo,,,,,,,,,,,,,,,,,,,,,,,,,,,,,,,,,,,,,,,,,,,,,,,,,,,,,,,,,,,,,,,,,,,,,,,,,,,,,,,,,,,,,,,,,,,,,,,,,,,,,,,,,,,,,,,,,,,,,,,,,,,,,,,,,,,,,,,,,,,,,,,,,,,,,,,,,,,,,
,,,,,,6162b219ce146c3f929c5c4c,62c539e9d2b6fa4cee194349,2022-07-06_09h31.29.213,Colour_Asymmetry_Pilot,2022.1.3,Win32,59.91252771,62c50e9c1127f2cd403a315f,0,44,44,120,1,onetwo,,,,,,,,,,,,,,,,,,,,,,,,,,,,,,,,,,,,,,,,,,,,,,,,,,,,,,,,,,,,,,,,,,,,,,,,,,,,,,,,,,,,,,,,,,,,,,,,,,,,,,,,,,,,,,,,,,,,,,,,,,,,,,,,,,,,,,,,,,,,,,,,,,,,,,,,,,,,,
,,,,,,6162b219ce146c3f929c5c4c,62c539e9d2b6fa4cee194349,2022-07-06_09h31.29.213,Colour_Asymmetry_Pilot,2022.1.3,Win32,59.91252771,62c50e9c1127f2cd403a315f,0,45,45,56,1,onetwo,,,,,,,,,,,,,,,,,,,,,,,,,,,,,,,,,,,,,,,,,,,,,,,,,,,,,,,,,,,,,,,,,,,,,,,,,,,,,,,,,,,,,,,,,,,,,,,,,,,,,,,,,,,,,,,,,,,,,,,,,,,,,,,,,,,,,,,,,,,,,,,,,,,,,,,,,,,,,
,,,,,,6162b219ce146c3f929c5c4c,62c539e9d2b6fa4cee194349,2022-07-06_09h31.29.213,Colour_Asymmetry_Pilot,2022.1.3,Win32,59.91252771,62c50e9c1127f2cd403a315f,0,46,46,68,1,threeone,,,,,,,,,,,,,,,,,,,,,,,,,,,,,,,,,,,,,,,,,,,,,,,,,,,,,,,,,,,,,,,,,,,,,,,,,,,,,,,,,,,,,,,,,,,,,,,,,,,,,,,,,,,,,,,,,,,,,,,,,,,,,,,,,,,,,,,,,,,,,,,,,,,,,,,,,,,,,
,,,,,,6162b219ce146c3f929c5c4c,62c539e9d2b6fa4cee194349,2022-07-06_09h31.29.213,Colour_Asymmetry_Pilot,2022.1.3,Win32,59.91252771,62c50e9c1127f2cd403a315f,0,47,47,86,1,fourtwo,,,,,,,,,,,,,,,,,,,,,,,,,,,,,,,,,,,,,,,,,,,,,,,,,,,,,,,,,,,,,,,,,,,,,,,,,,,,,,,,,,,,,,,,,,,,,,,,,,,,,,,,,,,,,,,,,,,,,,,,,,,,,,,,,,,,,,,,,,,,,,,,,,,,,,,,,,,,,
,,,,,,6162b219ce146c3f929c5c4c,62c539e9d2b6fa4cee194349,2022-07-06_09h31.29.213,Colour_Asymmetry_Pilot,2022.1.3,Win32,59.91252771,62c50e9c1127f2cd403a315f,0,48,48,161,1,onethree,,,,,,,,,,,,,,,,,,,,,,,,,,,,,,,,,,,,,,,,,,,,,,,,,,,,,,,,,,,,,,,,,,,,,,,,,,,,,,,,,,,,,,,,,,,,,,,,,,,,,,,,,,,,,,,,,,,,,,,,,,,,,,,,,,,,,,,,,,,,,,,,,,,,,,,,,,,,,
,,,,,,6162b219ce146c3f929c5c4c,62c539e9d2b6fa4cee194349,2022-07-06_09h31.29.213,Colour_Asymmetry_Pilot,2022.1.3,Win32,59.91252771,62c50e9c1127f2cd403a315f,0,49,49,0,1,onetwo,,,,,,,,,,,,,,,,,,,,,,,,,,,,,,,,,,,,,,,,,,,,,,,,,,,,,,,,,,,,,,,,,,,,,,,,,,,,,,,,,,,,,,,,,,,,,,,,,,,,,,,,,,,,,,,,,,,,,,,,,,,,,,,,,,,,,,,,,,,,,,,,,,,,,,,,,,,,,
,,,,,,6162b219ce146c3f929c5c4c,62c539e9d2b6fa4cee194349,2022-07-06_09h31.29.213,Colour_Asymmetry_Pilot,2022.1.3,Win32,59.91252771,62c50e9c1127f2cd403a315f,0,50,50,127,1,fourthree,,,,,,,,,,,,,,,,,,,,,,,,,,,,,,,,,,,,,,,,,,,,,,,,,,,,,,,,,,,,,,,,,,,,,,,,,,,,,,,,,,,,,,,,,,,,,,,,,,,,,,,,,,,,,,,,,,,,,,,,,,,,,,,,,,,,,,,,,,,,,,,,,,,,,,,,,,,,,
,,,,,,6162b219ce146c3f929c5c4c,62c539e9d2b6fa4cee194349,2022-07-06_09h31.29.213,Colour_Asymmetry_Pilot,2022.1.3,Win32,59.91252771,62c50e9c1127f2cd403a315f,0,51,51,147,1,twofour,,,,,,,,,,,,,,,,,,,,,,,,,,,,,,,,,,,,,,,,,,,,,,,,,,,,,,,,,,,,,,,,,,,,,,,,,,,,,,,,,,,,,,,,,,,,,,,,,,,,,,,,,,,,,,,,,,,,,,,,,,,,,,,,,,,,,,,,,,,,,,,,,,,,,,,,,,,,,
,,,,,,6162b219ce146c3f929c5c4c,62c539e9d2b6fa4cee194349,2022-07-06_09h31.29.213,Colour_Asymmetry_Pilot,2022.1.3,Win32,59.91252771,62c50e9c1127f2cd403a315f,0,52,52,92,1,threeone,,,,,,,,,,,,,,,,,,,,,,,,,,,,,,,,,,,,,,,,,,,,,,,,,,,,,,,,,,,,,,,,,,,,,,,,,,,,,,,,,,,,,,,,,,,,,,,,,,,,,,,,,,,,,,,,,,,,,,,,,,,,,,,,,,,,,,,,,,,,,,,,,,,,,,,,,,,,,
,,,,,,6162b219ce146c3f929c5c4c,62c539e9d2b6fa4cee194349,2022-07-06_09h31.29.213,Colour_Asymmetry_Pilot,2022.1.3,Win32,59.91252771,62c50e9c1127f2cd403a315f,0,53,53,83,1,twofour,,,,,,,,,,,,,,,,,,,,,,,,,,,,,,,,,,,,,,,,,,,,,,,,,,,,,,,,,,,,,,,,,,,,,,,,,,,,,,,,,,,,,,,,,,,,,,,,,,,,,,,,,,,,,,,,,,,,,,,,,,,,,,,,,,,,,,,,,,,,,,,,,,,,,,,,,,,,,
,,,,,,6162b219ce146c3f929c5c4c,62c539e9d2b6fa4cee194349,2022-07-06_09h31.29.213,Colour_Asymmetry_Pilot,2022.1.3,Win32,59.91252771,62c50e9c1127f2cd403a315f,0,54,54,43,1,twofour,,,,,,,,,,,,,,,,,,,,,,,,,,,,,,,,,,,,,,,,,,,,,,,,,,,,,,,,,,,,,,,,,,,,,,,,,,,,,,,,,,,,,,,,,,,,,,,,,,,,,,,,,,,,,,,,,,,,,,,,,,,,,,,,,,,,,,,,,,,,,,,,,,,,,,,,,,,,,
,,,,,,6162b219ce146c3f929c5c4c,62c539e9d2b6fa4cee194349,2022-07-06_09h31.29.213,Colour_Asymmetry_Pilot,2022.1.3,Win32,59.91252771,62c50e9c1127f2cd403a315f,0,55,55,2,1,twoone,,,,,,,,,,,,,,,,,,,,,,,,,,,,,,,,,,,,,,,,,,,,,,,,,,,,,,,,,,,,,,,,,,,,,,,,,,,,,,,,,,,,,,,,,,,,,,,,,,,,,,,,,,,,,,,,,,,,,,,,,,,,,,,,,,,,,,,,,,,,,,,,,,,,,,,,,,,,,
,,,,,,6162b219ce146c3f929c5c4c,62c539e9d2b6fa4cee194349,2022-07-06_09h31.29.213,Colour_Asymmetry_Pilot,2022.1.3,Win32,59.91252771,62c50e9c1127f2cd403a315f,0,56,56,93,1,threefour,,,,,,,,,,,,,,,,,,,,,,,,,,,,,,,,,,,,,,,,,,,,,,,,,,,,,,,,,,,,,,,,,,,,,,,,,,,,,,,,,,,,,,,,,,,,,,,,,,,,,,,,,,,,,,,,,,,,,,,,,,,,,,,,,,,,,,,,,,,,,,,,,,,,,,,,,,,,,
,,,,,,6162b219ce146c3f929c5c4c,62c539e9d2b6fa4cee194349,2022-07-06_09h31.29.213,Colour_Asymmetry_Pilot,2022.1.3,Win32,59.91252771,62c50e9c1127f2cd403a315f,0,57,57,31,1,fourthree,,,,,,,,,,,,,,,,,,,,,,,,,,,,,,,,,,,,,,,,,,,,,,,,,,,,,,,,,,,,,,,,,,,,,,,,,,,,,,,,,,,,,,,,,,,,,,,,,,,,,,,,,,,,,,,,,,,,,,,,,,,,,,,,,,,,,,,,,,,,,,,,,,,,,,,,,,,,,
,,,,,,6162b219ce146c3f929c5c4c,62c539e9d2b6fa4cee194349,2022-07-06_09h31.29.213,Colour_Asymmetry_Pilot,2022.1.3,Win32,59.91252771,62c50e9c1127f2cd403a315f,0,58,58,129,1,onethree,,,,,,,,,,,,,,,,,,,,,,,,,,,,,,,,,,,,,,,,,,,,,,,,,,,,,,,,,,,,,,,,,,,,,,,,,,,,,,,,,,,,,,,,,,,,,,,,,,,,,,,,,,,,,,,,,,,,,,,,,,,,,,,,,,,,,,,,,,,,,,,,,,,,,,,,,,,,,
,,,,,,6162b219ce146c3f929c5c4c,62c539e9d2b6fa4cee194349,2022-07-06_09h31.29.213,Colour_Asymmetry_Pilot,2022.1.3,Win32,59.91252771,62c50e9c1127f2cd403a315f,0,59,59,157,1,threefour,,,,,,,,,,,,,,,,,,,,,,,,,,,,,,,,,,,,,,,,,,,,,,,,,,,,,,,,,,,,,,,,,,,,,,,,,,,,,,,,,,,,,,,,,,,,,,,,,,,,,,,,,,,,,,,,,,,,,,,,,,,,,,,,,,,,,,,,,,,,,,,,,,,,,,,,,,,,,
,,,,,,6162b219ce146c3f929c5c4c,62c539e9d2b6fa4cee194349,2022-07-06_09h31.29.213,Colour_Asymmetry_Pilot,2022.1.3,Win32,59.91252771,62c50e9c1127f2cd403a315f,0,60,60,29,1,threefour,,,,,,,,,,,,,,,,,,,,,,,,,,,,,,,,,,,,,,,,,,,,,,,,,,,,,,,,,,,,,,,,,,,,,,,,,,,,,,,,,,,,,,,,,,,,,,,,,,,,,,,,,,,,,,,,,,,,,,,,,,,,,,,,,,,,,,,,,,,,,,,,,,,,,,,,,,,,,
,,,,,,6162b219ce146c3f929c5c4c,62c539e9d2b6fa4cee194349,2022-07-06_09h31.29.213,Colour_Asymmetry_Pilot,2022.1.3,Win32,59.91252771,62c50e9c1127f2cd403a315f,0,61,61,24,1,onetwo,,,,,,,,,,,,,,,,,,,,,,,,,,,,,,,,,,,,,,,,,,,,,,,,,,,,,,,,,,,,,,,,,,,,,,,,,,,,,,,,,,,,,,,,,,,,,,,,,,,,,,,,,,,,,,,,,,,,,,,,,,,,,,,,,,,,,,,,,,,,,,,,,,,,,,,,,,,,,
,,,,,,6162b219ce146c3f929c5c4c,62c539e9d2b6fa4cee194349,2022-07-06_09h31.29.213,Colour_Asymmetry_Pilot,2022.1.3,Win32,59.91252771,62c50e9c1127f2cd403a315f,0,62,62,112,1,onetwo,,,,,,,,,,,,,,,,,,,,,,,,,,,,,,,,,,,,,,,,,,,,,,,,,,,,,,,,,,,,,,,,,,,,,,,,,,,,,,,,,,,,,,,,,,,,,,,,,,,,,,,,,,,,,,,,,,,,,,,,,,,,,,,,,,,,,,,,,,,,,,,,,,,,,,,,,,,,,
,,,,,,6162b219ce146c3f929c5c4c,62c539e9d2b6fa4cee194349,2022-07-06_09h31.29.213,Colour_Asymmetry_Pilot,2022.1.3,Win32,59.91252771,62c50e9c1127f2cd403a315f,0,63,63,145,1,onethree,,,,,,,,,,,,,,,,,,,,,,,,,,,,,,,,,,,,,,,,,,,,,,,,,,,,,,,,,,,,,,,,,,,,,,,,,,,,,,,,,,,,,,,,,,,,,,,,,,,,,,,,,,,,,,,,,,,,,,,,,,,,,,,,,,,,,,,,,,,,,,,,,,,,,,,,,,,,,
,,,,,,6162b219ce146c3f929c5c4c,62c539e9d2b6fa4cee194349,2022-07-06_09h31.29.213,Colour_Asymmetry_Pilot,2022.1.3,Win32,59.91252771,62c50e9c1127f2cd403a315f,0,64,64,107,1,twofour,,,,,,,,,,,,,,,,,,,,,,,,,,,,,,,,,,,,,,,,,,,,,,,,,,,,,,,,,,,,,,,,,,,,,,,,,,,,,,,,,,,,,,,,,,,,,,,,,,,,,,,,,,,,,,,,,,,,,,,,,,,,,,,,,,,,,,,,,,,,,,,,,,,,,,,,,,,,,
,,,,,,6162b219ce146c3f929c5c4c,62c539e9d2b6fa4cee194349,2022-07-06_09h31.29.213,Colour_Asymmetry_Pilot,2022.1.3,Win32,59.91252771,62c50e9c1127f2cd403a315f,0,65,65,114,1,twoone,,,,,,,,,,,,,,,,,,,,,,,,,,,,,,,,,,,,,,,,,,,,,,,,,,,,,,,,,,,,,,,,,,,,,,,,,,,,,,,,,,,,,,,,,,,,,,,,,,,,,,,,,,,,,,,,,,,,,,,,,,,,,,,,,,,,,,,,,,,,,,,,,,,,,,,,,,,,,
,,,,,,6162b219ce146c3f929c5c4c,62c539e9d2b6fa4cee194349,2022-07-06_09h31.29.213,Colour_Asymmetry_Pilot,2022.1.3,Win32,59.91252771,62c50e9c1127f2cd403a315f,0,66,66,33,1,onethree,,,,,,,,,,,,,,,,,,,,,,,,,,,,,,,,,,,,,,,,,,,,,,,,,,,,,,,,,,,,,,,,,,,,,,,,,,,,,,,,,,,,,,,,,,,,,,,,,,,,,,,,,,,,,,,,,,,,,,,,,,,,,,,,,,,,,,,,,,,,,,,,,,,,,,,,,,,,,
,,,,,,6162b219ce146c3f929c5c4c,62c539e9d2b6fa4cee194349,2022-07-06_09h31.29.213,Colour_Asymmetry_Pilot,2022.1.3,Win32,59.91252771,62c50e9c1127f2cd403a315f,0,67,67,108,1,threeone,,,,,,,,,,,,,,,,,,,,,,,,,,,,,,,,,,,,,,,,,,,,,,,,,,,,,,,,,,,,,,,,,,,,,,,,,,,,,,,,,,,,,,,,,,,,,,,,,,,,,,,,,,,,,,,,,,,,,,,,,,,,,,,,,,,,,,,,,,,,,,,,,,,,,,,,,,,,,
,,,,,,6162b219ce146c3f929c5c4c,62c539e9d2b6fa4cee194349,2022-07-06_09h31.29.213,Colour_Asymmetry_Pilot,2022.1.3,Win32,59.91252771,62c50e9c1127f2cd403a315f,0,68,68,51,1,twofour,,,,,,,,,,,,,,,,,,,,,,,,,,,,,,,,,,,,,,,,,,,,,,,,,,,,,,,,,,,,,,,,,,,,,,,,,,,,,,,,,,,,,,,,,,,,,,,,,,,,,,,,,,,,,,,,,,,,,,,,,,,,,,,,,,,,,,,,,,,,,,,,,,,,,,,,,,,,,
,,,,,,6162b219ce146c3f929c5c4c,62c539e9d2b6fa4cee194349,2022-07-06_09h31.29.213,Colour_Asymmetry_Pilot,2022.1.3,Win32,59.91252771,62c50e9c1127f2cd403a315f,0,69,69,137,1,onethree,,,,,,,,,,,,,,,,,,,,,,,,,,,,,,,,,,,,,,,,,,,,,,,,,,,,,,,,,,,,,,,,,,,,,,,,,,,,,,,,,,,,,,,,,,,,,,,,,,,,,,,,,,,,,,,,,,,,,,,,,,,,,,,,,,,,,,,,,,,,,,,,,,,,,,,,,,,,,
,,,,,,6162b219ce146c3f929c5c4c,62c539e9d2b6fa4cee194349,2022-07-06_09h31.29.213,Colour_Asymmetry_Pilot,2022.1.3,Win32,59.91252771,62c50e9c1127f2cd403a315f,0,70,70,71,1,fourthree,,,,,,,,,,,,,,,,,,,,,,,,,,,,,,,,,,,,,,,,,,,,,,,,,,,,,,,,,,,,,,,,,,,,,,,,,,,,,,,,,,,,,,,,,,,,,,,,,,,,,,,,,,,,,,,,,,,,,,,,,,,,,,,,,,,,,,,,,,,,,,,,,,,,,,,,,,,,,
,,,,,,6162b219ce146c3f929c5c4c,62c539e9d2b6fa4cee194349,2022-07-06_09h31.29.213,Colour_Asymmetry_Pilot,2022.1.3,Win32,59.91252771,62c50e9c1127f2cd403a315f,0,71,71,45,1,threefour,,,,,,,,,,,,,,,,,,,,,,,,,,,,,,,,,,,,,,,,,,,,,,,,,,,,,,,,,,,,,,,,,,,,,,,,,,,,,,,,,,,,,,,,,,,,,,,,,,,,,,,,,,,,,,,,,,,,,,,,,,,,,,,,,,,,,,,,,,,,,,,,,,,,,,,,,,,,,
,,,,,,6162b219ce146c3f929c5c4c,62c539e9d2b6fa4cee194349,2022-07-06_09h31.29.213,Colour_Asymmetry_Pilot,2022.1.3,Win32,59.91252771,62c50e9c1127f2cd403a315f,0,72,72,152,1,onetwo,,,,,,,,,,,,,,,,,,,,,,,,,,,,,,,,,,,,,,,,,,,,,,,,,,,,,,,,,,,,,,,,,,,,,,,,,,,,,,,,,,,,,,,,,,,,,,,,,,,,,,,,,,,,,,,,,,,,,,,,,,,,,,,,,,,,,,,,,,,,,,,,,,,,,,,,,,,,,
,,,,,,6162b219ce146c3f929c5c4c,62c539e9d2b6fa4cee194349,2022-07-06_09h31.29.213,Colour_Asymmetry_Pilot,2022.1.3,Win32,59.91252771,62c50e9c1127f2cd403a315f,0,73,73,5,1,threefour,,,,,,,,,,,,,,,,,,,,,,,,,,,,,,,,,,,,,,,,,,,,,,,,,,,,,,,,,,,,,,,,,,,,,,,,,,,,,,,,,,,,,,,,,,,,,,,,,,,,,,,,,,,,,,,,,,,,,,,,,,,,,,,,,,,,,,,,,,,,,,,,,,,,,,,,,,,,,
,,,,,,6162b219ce146c3f929c5c4c,62c539e9d2b6fa4cee194349,2022-07-06_09h31.29.213,Colour_Asymmetry_Pilot,2022.1.3,Win32,59.91252771,62c50e9c1127f2cd403a315f,0,74,74,6,1,fourtwo,,,,,,,,,,,,,,,,,,,,,,,,,,,,,,,,,,,,,,,,,,,,,,,,,,,,,,,,,,,,,,,,,,,,,,,,,,,,,,,,,,,,,,,,,,,,,,,,,,,,,,,,,,,,,,,,,,,,,,,,,,,,,,,,,,,,,,,,,,,,,,,,,,,,,,,,,,,,,
,,,,,,6162b219ce146c3f929c5c4c,62c539e9d2b6fa4cee194349,2022-07-06_09h31.29.213,Colour_Asymmetry_Pilot,2022.1.3,Win32,59.91252771,62c50e9c1127f2cd403a315f,0,75,75,113,1,onethree,,,,,,,,,,,,,,,,,,,,,,,,,,,,,,,,,,,,,,,,,,,,,,,,,,,,,,,,,,,,,,,,,,,,,,,,,,,,,,,,,,,,,,,,,,,,,,,,,,,,,,,,,,,,,,,,,,,,,,,,,,,,,,,,,,,,,,,,,,,,,,,,,,,,,,,,,,,,,
,,,,,,6162b219ce146c3f929c5c4c,62c539e9d2b6fa4cee194349,2022-07-06_09h31.29.213,Colour_Asymmetry_Pilot,2022.1.3,Win32,59.91252771,62c50e9c1127f2cd403a315f,0,76,76,27,1,twofour,,,,,,,,,,,,,,,,,,,,,,,,,,,,,,,,,,,,,,,,,,,,,,,,,,,,,,,,,,,,,,,,,,,,,,,,,,,,,,,,,,,,,,,,,,,,,,,,,,,,,,,,,,,,,,,,,,,,,,,,,,,,,,,,,,,,,,,,,,,,,,,,,,,,,,,,,,,,,
,,,,,,6162b219ce146c3f929c5c4c,62c539e9d2b6fa4cee194349,2022-07-06_09h31.29.213,Colour_Asymmetry_Pilot,2022.1.3,Win32,59.91252771,62c50e9c1127f2cd403a315f,0,77,77,26,1,twoone,,,,,,,,,,,,,,,,,,,,,,,,,,,,,,,,,,,,,,,,,,,,,,,,,,,,,,,,,,,,,,,,,,,,,,,,,,,,,,,,,,,,,,,,,,,,,,,,,,,,,,,,,,,,,,,,,,,,,,,,,,,,,,,,,,,,,,,,,,,,,,,,,,,,,,,,,,,,,
,,,,,,6162b219ce146c3f929c5c4c,62c539e9d2b6fa4cee194349,2022-07-06_09h31.29.213,Colour_Asymmetry_Pilot,2022.1.3,Win32,59.91252771,62c50e9c1127f2cd403a315f,0,78,78,140,1,threeone,,,,,,,,,,,,,,,,,,,,,,,,,,,,,,,,,,,,,,,,,,,,,,,,,,,,,,,,,,,,,,,,,,,,,,,,,,,,,,,,,,,,,,,,,,,,,,,,,,,,,,,,,,,,,,,,,,,,,,,,,,,,,,,,,,,,,,,,,,,,,,,,,,,,,,,,,,,,,
,,,,,,6162b219ce146c3f929c5c4c,62c539e9d2b6fa4cee194349,2022-07-06_09h31.29.213,Colour_Asymmetry_Pilot,2022.1.3,Win32,59.91252771,62c50e9c1127f2cd403a315f,0,79,79,91,1,twofour,,,,,,,,,,,,,,,,,,,,,,,,,,,,,,,,,,,,,,,,,,,,,,,,,,,,,,,,,,,,,,,,,,,,,,,,,,,,,,,,,,,,,,,,,,,,,,,,,,,,,,,,,,,,,,,,,,,,,,,,,,,,,,,,,,,,,,,,,,,,,,,,,,,,,,,,,,,,,
,,,,,,6162b219ce146c3f929c5c4c,62c539e9d2b6fa4cee194349,2022-07-06_09h31.29.213,Colour_Asymmetry_Pilot,2022.1.3,Win32,59.91252771,62c50e9c1127f2cd403a315f,0,80,80,64,1,onetwo,,,,,,,,,,,,,,,,,,,,,,,,,,,,,,,,,,,,,,,,,,,,,,,,,,,,,,,,,,,,,,,,,,,,,,,,,,,,,,,,,,,,,,,,,,,,,,,,,,,,,,,,,,,,,,,,,,,,,,,,,,,,,,,,,,,,,,,,,,,,,,,,,,,,,,,,,,,,,
,,,,,,6162b219ce146c3f929c5c4c,62c539e9d2b6fa4cee194349,2022-07-06_09h31.29.213,Colour_Asymmetry_Pilot,2022.1.3,Win32,59.91252771,62c50e9c1127f2cd403a315f,0,81,81,118,1,fourtwo,,,,,,,,,,,,,,,,,,,,,,,,,,,,,,,,,,,,,,,,,,,,,,,,,,,,,,,,,,,,,,,,,,,,,,,,,,,,,,,,,,,,,,,,,,,,,,,,,,,,,,,,,,,,,,,,,,,,,,,,,,,,,,,,,,,,,,,,,,,,,,,,,,,,,,,,,,,,,
,,,,,,6162b219ce146c3f929c5c4c,62c539e9d2b6fa4cee194349,2022-07-06_09h31.29.213,Colour_Asymmetry_Pilot,2022.1.3,Win32,59.91252771,62c50e9c1127f2cd403a315f,0,82,82,69,1,threefour,,,,,,,,,,,,,,,,,,,,,,,,,,,,,,,,,,,,,,,,,,,,,,,,,,,,,,,,,,,,,,,,,,,,,,,,,,,,,,,,,,,,,,,,,,,,,,,,,,,,,,,,,,,,,,,,,,,,,,,,,,,,,,,,,,,,,,,,,,,,,,,,,,,,,,,,,,,,,
,,,,,,6162b219ce146c3f929c5c4c,62c539e9d2b6fa4cee194349,2022-07-06_09h31.29.213,Colour_Asymmetry_Pilot,2022.1.3,Win32,59.91252771,62c50e9c1127f2cd403a315f,0,83,83,121,1,onethree,,,,,,,,,,,,,,,,,,,,,,,,,,,,,,,,,,,,,,,,,,,,,,,,,,,,,,,,,,,,,,,,,,,,,,,,,,,,,,,,,,,,,,,,,,,,,,,,,,,,,,,,,,,,,,,,,,,,,,,,,,,,,,,,,,,,,,,,,,,,,,,,,,,,,,,,,,,,,
,,,,,,6162b219ce146c3f929c5c4c,62c539e9d2b6fa4cee194349,2022-07-06_09h31.29.213,Colour_Asymmetry_Pilot,2022.1.3,Win32,59.91252771,62c50e9c1127f2cd403a315f,0,84,84,106,1,twoone,,,,,,,,,,,,,,,,,,,,,,,,,,,,,,,,,,,,,,,,,,,,,,,,,,,,,,,,,,,,,,,,,,,,,,,,,,,,,,,,,,,,,,,,,,,,,,,,,,,,,,,,,,,,,,,,,,,,,,,,,,,,,,,,,,,,,,,,,,,,,,,,,,,,,,,,,,,,,
,,,,,,6162b219ce146c3f929c5c4c,62c539e9d2b6fa4cee194349,2022-07-06_09h31.29.213,Colour_Asymmetry_Pilot,2022.1.3,Win32,59.91252771,62c50e9c1127f2cd403a315f,0,85,85,79,1,fourthree,,,,,,,,,,,,,,,,,,,,,,,,,,,,,,,,,,,,,,,,,,,,,,,,,,,,,,,,,,,,,,,,,,,,,,,,,,,,,,,,,,,,,,,,,,,,,,,,,,,,,,,,,,,,,,,,,,,,,,,,,,,,,,,,,,,,,,,,,,,,,,,,,,,,,,,,,,,,,
,,,,,,6162b219ce146c3f929c5c4c,62c539e9d2b6fa4cee194349,2022-07-06_09h31.29.213,Colour_Asymmetry_Pilot,2022.1.3,Win32,59.91252771,62c50e9c1127f2cd403a315f,0,86,86,135,1,fourthree,,,,,,,,,,,,,,,,,,,,,,,,,,,,,,,,,,,,,,,,,,,,,,,,,,,,,,,,,,,,,,,,,,,,,,,,,,,,,,,,,,,,,,,,,,,,,,,,,,,,,,,,,,,,,,,,,,,,,,,,,,,,,,,,,,,,,,,,,,,,,,,,,,,,,,,,,,,,,
,,,,,,6162b219ce146c3f929c5c4c,62c539e9d2b6fa4cee194349,2022-07-06_09h31.29.213,Colour_Asymmetry_Pilot,2022.1.3,Win32,59.91252771,62c50e9c1127f2cd403a315f,0,87,87,99,1,twofour,,,,,,,,,,,,,,,,,,,,,,,,,,,,,,,,,,,,,,,,,,,,,,,,,,,,,,,,,,,,,,,,,,,,,,,,,,,,,,,,,,,,,,,,,,,,,,,,,,,,,,,,,,,,,,,,,,,,,,,,,,,,,,,,,,,,,,,,,,,,,,,,,,,,,,,,,,,,,
,,,,,,6162b219ce146c3f929c5c4c,62c539e9d2b6fa4cee194349,2022-07-06_09h31.29.213,Colour_Asymmetry_Pilot,2022.1.3,Win32,59.91252771,62c50e9c1127f2cd403a315f,0,88,88,52,1,threeone,,,,,,,,,,,,,,,,,,,,,,,,,,,,,,,,,,,,,,,,,,,,,,,,,,,,,,,,,,,,,,,,,,,,,,,,,,,,,,,,,,,,,,,,,,,,,,,,,,,,,,,,,,,,,,,,,,,,,,,,,,,,,,,,,,,,,,,,,,,,,,,,,,,,,,,,,,,,,
,,,,,,6162b219ce146c3f929c5c4c,62c539e9d2b6fa4cee194349,2022-07-06_09h31.29.213,Colour_Asymmetry_Pilot,2022.1.3,Win32,59.91252771,62c50e9c1127f2cd403a315f,0,89,89,53,1,threefour,,,,,,,,,,,,,,,,,,,,,,,,,,,,,,,,,,,,,,,,,,,,,,,,,,,,,,,,,,,,,,,,,,,,,,,,,,,,,,,,,,,,,,,,,,,,,,,,,,,,,,,,,,,,,,,,,,,,,,,,,,,,,,,,,,,,,,,,,,,,,,,,,,,,,,,,,,,,,
,,,,,,6162b219ce146c3f929c5c4c,62c539e9d2b6fa4cee194349,2022-07-06_09h31.29.213,Colour_Asymmetry_Pilot,2022.1.3,Win32,59.91252771,62c50e9c1127f2cd403a315f,0,90,90,82,1,twoone,,,,,,,,,,,,,,,,,,,,,,,,,,,,,,,,,,,,,,,,,,,,,,,,,,,,,,,,,,,,,,,,,,,,,,,,,,,,,,,,,,,,,,,,,,,,,,,,,,,,,,,,,,,,,,,,,,,,,,,,,,,,,,,,,,,,,,,,,,,,,,,,,,,,,,,,,,,,,
,,,,,,6162b219ce146c3f929c5c4c,62c539e9d2b6fa4cee194349,2022-07-06_09h31.29.213,Colour_Asymmetry_Pilot,2022.1.3,Win32,59.91252771,62c50e9c1127f2cd403a315f,0,91,91,40,1,onetwo,,,,,,,,,,,,,,,,,,,,,,,,,,,,,,,,,,,,,,,,,,,,,,,,,,,,,,,,,,,,,,,,,,,,,,,,,,,,,,,,,,,,,,,,,,,,,,,,,,,,,,,,,,,,,,,,,,,,,,,,,,,,,,,,,,,,,,,,,,,,,,,,,,,,,,,,,,,,,
,,,,,,6162b219ce146c3f929c5c4c,62c539e9d2b6fa4cee194349,2022-07-06_09h31.29.213,Colour_Asymmetry_Pilot,2022.1.3,Win32,59.91252771,62c50e9c1127f2cd403a315f,0,92,92,63,1,fourthree,,,,,,,,,,,,,,,,,,,,,,,,,,,,,,,,,,,,,,,,,,,,,,,,,,,,,,,,,,,,,,,,,,,,,,,,,,,,,,,,,,,,,,,,,,,,,,,,,,,,,,,,,,,,,,,,,,,,,,,,,,,,,,,,,,,,,,,,,,,,,,,,,,,,,,,,,,,,,
,,,,,,6162b219ce146c3f929c5c4c,62c539e9d2b6fa4cee194349,2022-07-06_09h31.29.213,Colour_Asymmetry_Pilot,2022.1.3,Win32,59.91252771,62c50e9c1127f2cd403a315f,0,93,93,54,1,fourtwo,,,,,,,,,,,,,,,,,,,,,,,,,,,,,,,,,,,,,,,,,,,,,,,,,,,,,,,,,,,,,,,,,,,,,,,,,,,,,,,,,,,,,,,,,,,,,,,,,,,,,,,,,,,,,,,,,,,,,,,,,,,,,,,,,,,,,,,,,,,,,,,,,,,,,,,,,,,,,
,,,,,,6162b219ce146c3f929c5c4c,62c539e9d2b6fa4cee194349,2022-07-06_09h31.29.213,Colour_Asymmetry_Pilot,2022.1.3,Win32,59.91252771,62c50e9c1127f2cd403a315f,0,94,94,37,1,threefour,,,,,,,,,,,,,,,,,,,,,,,,,,,,,,,,,,,,,,,,,,,,,,,,,,,,,,,,,,,,,,,,,,,,,,,,,,,,,,,,,,,,,,,,,,,,,,,,,,,,,,,,,,,,,,,,,,,,,,,,,,,,,,,,,,,,,,,,,,,,,,,,,,,,,,,,,,,,,
,,,,,,6162b219ce146c3f929c5c4c,62c539e9d2b6fa4cee194349,2022-07-06_09h31.29.213,Colour_Asymmetry_Pilot,2022.1.3,Win32,59.91252771,62c50e9c1127f2cd403a315f,0,95,95,57,1,onethree,,,,,,,,,,,,,,,,,,,,,,,,,,,,,,,,,,,,,,,,,,,,,,,,,,,,,,,,,,,,,,,,,,,,,,,,,,,,,,,,,,,,,,,,,,,,,,,,,,,,,,,,,,,,,,,,,,,,,,,,,,,,,,,,,,,,,,,,,,,,,,,,,,,,,,,,,,,,,
,,,,,,6162b219ce146c3f929c5c4c,62c539e9d2b6fa4cee194349,2022-07-06_09h31.29.213,Colour_Asymmetry_Pilot,2022.1.3,Win32,59.91252771,62c50e9c1127f2cd403a315f,0,96,96,101,1,threefour,,,,,,,,,,,,,,,,,,,,,,,,,,,,,,,,,,,,,,,,,,,,,,,,,,,,,,,,,,,,,,,,,,,,,,,,,,,,,,,,,,,,,,,,,,,,,,,,,,,,,,,,,,,,,,,,,,,,,,,,,,,,,,,,,,,,,,,,,,,,,,,,,,,,,,,,,,,,,
,,,,,,6162b219ce146c3f929c5c4c,62c539e9d2b6fa4cee194349,2022-07-06_09h31.29.213,Colour_Asymmetry_Pilot,2022.1.3,Win32,59.91252771,62c50e9c1127f2cd403a315f,0,97,97,84,1,threeone,,,,,,,,,,,,,,,,,,,,,,,,,,,,,,,,,,,,,,,,,,,,,,,,,,,,,,,,,,,,,,,,,,,,,,,,,,,,,,,,,,,,,,,,,,,,,,,,,,,,,,,,,,,,,,,,,,,,,,,,,,,,,,,,,,,,,,,,,,,,,,,,,,,,,,,,,,,,,
,,,,,,6162b219ce146c3f929c5c4c,62c539e9d2b6fa4cee194349,2022-07-06_09h31.29.213,Colour_Asymmetry_Pilot,2022.1.3,Win32,59.91252771,62c50e9c1127f2cd403a315f,0,98,98,30,1,fourtwo,,,,,,,,,,,,,,,,,,,,,,,,,,,,,,,,,,,,,,,,,,,,,,,,,,,,,,,,,,,,,,,,,,,,,,,,,,,,,,,,,,,,,,,,,,,,,,,,,,,,,,,,,,,,,,,,,,,,,,,,,,,,,,,,,,,,,,,,,,,,,,,,,,,,,,,,,,,,,
,,,,,,6162b219ce146c3f929c5c4c,62c539e9d2b6fa4cee194349,2022-07-06_09h31.29.213,Colour_Asymmetry_Pilot,2022.1.3,Win32,59.91252771,62c50e9c1127f2cd403a315f,0,99,99,44,1,threeone,,,,,,,,,,,,,,,,,,,,,,,,,,,,,,,,,,,,,,,,,,,,,,,,,,,,,,,,,,,,,,,,,,,,,,,,,,,,,,,,,,,,,,,,,,,,,,,,,,,,,,,,,,,,,,,,,,,,,,,,,,,,,,,,,,,,,,,,,,,,,,,,,,,,,,,,,,,,,
,,,,,,6162b219ce146c3f929c5c4c,62c539e9d2b6fa4cee194349,2022-07-06_09h31.29.213,Colour_Asymmetry_Pilot,2022.1.3,Win32,59.91252771,62c50e9c1127f2cd403a315f,0,100,100,16,1,onetwo,,,,,,,,,,,,,,,,,,,,,,,,,,,,,,,,,,,,,,,,,,,,,,,,,,,,,,,,,,,,,,,,,,,,,,,,,,,,,,,,,,,,,,,,,,,,,,,,,,,,,,,,,,,,,,,,,,,,,,,,,,,,,,,,,,,,,,,,,,,,,,,,,,,,,,,,,,,,,
,,,,,,6162b219ce146c3f929c5c4c,62c539e9d2b6fa4cee194349,2022-07-06_09h31.29.213,Colour_Asymmetry_Pilot,2022.1.3,Win32,59.91252771,62c50e9c1127f2cd403a315f,0,101,101,149,1,threefour,,,,,,,,,,,,,,,,,,,,,,,,,,,,,,,,,,,,,,,,,,,,,,,,,,,,,,,,,,,,,,,,,,,,,,,,,,,,,,,,,,,,,,,,,,,,,,,,,,,,,,,,,,,,,,,,,,,,,,,,,,,,,,,,,,,,,,,,,,,,,,,,,,,,,,,,,,,,,
,,,,,,6162b219ce146c3f929c5c4c,62c539e9d2b6fa4cee194349,2022-07-06_09h31.29.213,Colour_Asymmetry_Pilot,2022.1.3,Win32,59.91252771,62c50e9c1127f2cd403a315f,0,102,102,134,1,fourtwo,,,,,,,,,,,,,,,,,,,,,,,,,,,,,,,,,,,,,,,,,,,,,,,,,,,,,,,,,,,,,,,,,,,,,,,,,,,,,,,,,,,,,,,,,,,,,,,,,,,,,,,,,,,,,,,,,,,,,,,,,,,,,,,,,,,,,,,,,,,,,,,,,,,,,,,,,,,,,
,,,,,,6162b219ce146c3f929c5c4c,62c539e9d2b6fa4cee194349,2022-07-06_09h31.29.213,Colour_Asymmetry_Pilot,2022.1.3,Win32,59.91252771,62c50e9c1127f2cd403a315f,0,103,103,4,1,threeone,,,,,,,,,,,,,,,,,,,,,,,,,,,,,,,,,,,,,,,,,,,,,,,,,,,,,,,,,,,,,,,,,,,,,,,,,,,,,,,,,,,,,,,,,,,,,,,,,,,,,,,,,,,,,,,,,,,,,,,,,,,,,,,,,,,,,,,,,,,,,,,,,,,,,,,,,,,,,
,,,,,,6162b219ce146c3f929c5c4c,62c539e9d2b6fa4cee194349,2022-07-06_09h31.29.213,Colour_Asymmetry_Pilot,2022.1.3,Win32,59.91252771,62c50e9c1127f2cd403a315f,0,104,104,48,1,onetwo,,,,,,,,,,,,,,,,,,,,,,,,,,,,,,,,,,,,,,,,,,,,,,,,,,,,,,,,,,,,,,,,,,,,,,,,,,,,,,,,,,,,,,,,,,,,,,,,,,,,,,,,,,,,,,,,,,,,,,,,,,,,,,,,,,,,,,,,,,,,,,,,,,,,,,,,,,,,,
,,,,,,6162b219ce146c3f929c5c4c,62c539e9d2b6fa4cee194349,2022-07-06_09h31.29.213,Colour_Asymmetry_Pilot,2022.1.3,Win32,59.91252771,62c50e9c1127f2cd403a315f,0,105,105,11,1,twofour,,,,,,,,,,,,,,,,,,,,,,,,,,,,,,,,,,,,,,,,,,,,,,,,,,,,,,,,,,,,,,,,,,,,,,,,,,,,,,,,,,,,,,,,,,,,,,,,,,,,,,,,,,,,,,,,,,,,,,,,,,,,,,,,,,,,,,,,,,,,,,,,,,,,,,,,,,,,,
,,,,,,6162b219ce146c3f929c5c4c,62c539e9d2b6fa4cee194349,2022-07-06_09h31.29.213,Colour_Asymmetry_Pilot,2022.1.3,Win32,59.91252771,62c50e9c1127f2cd403a315f,0,106,106,131,1,twofour,,,,,,,,,,,,,,,,,,,,,,,,,,,,,,,,,,,,,,,,,,,,,,,,,,,,,,,,,,,,,,,,,,,,,,,,,,,,,,,,,,,,,,,,,,,,,,,,,,,,,,,,,,,,,,,,,,,,,,,,,,,,,,,,,,,,,,,,,,,,,,,,,,,,,,,,,,,,,
,,,,,,6162b219ce146c3f929c5c4c,62c539e9d2b6fa4cee194349,2022-07-06_09h31.29.213,Colour_Asymmetry_Pilot,2022.1.3,Win32,59.91252771,62c50e9c1127f2cd403a315f,0,107,107,148,1,threeone,,,,,,,,,,,,,,,,,,,,,,,,,,,,,,,,,,,,,,,,,,,,,,,,,,,,,,,,,,,,,,,,,,,,,,,,,,,,,,,,,,,,,,,,,,,,,,,,,,,,,,,,,,,,,,,,,,,,,,,,,,,,,,,,,,,,,,,,,,,,,,,,,,,,,,,,,,,,,
,,,,,,6162b219ce146c3f929c5c4c,62c539e9d2b6fa4cee194349,2022-07-06_09h31.29.213,Colour_Asymmetry_Pilot,2022.1.3,Win32,59.91252771,62c50e9c1127f2cd403a315f,0,108,108,98,1,twoone,,,,,,,,,,,,,,,,,,,,,,,,,,,,,,,,,,,,,,,,,,,,,,,,,,,,,,,,,,,,,,,,,,,,,,,,,,,,,,,,,,,,,,,,,,,,,,,,,,,,,,,,,,,,,,,,,,,,,,,,,,,,,,,,,,,,,,,,,,,,,,,,,,,,,,,,,,,,,
,,,,,,6162b219ce146c3f929c5c4c,62c539e9d2b6fa4cee194349,2022-07-06_09h31.29.213,Colour_Asymmetry_Pilot,2022.1.3,Win32,59.91252771,62c50e9c1127f2cd403a315f,0,109,109,1,1,onethree,,,,,,,,,,,,,,,,,,,,,,,,,,,,,,,,,,,,,,,,,,,,,,,,,,,,,,,,,,,,,,,,,,,,,,,,,,,,,,,,,,,,,,,,,,,,,,,,,,,,,,,,,,,,,,,,,,,,,,,,,,,,,,,,,,,,,,,,,,,,,,,,,,,,,,,,,,,,,
,,,,,,6162b219ce146c3f929c5c4c,62c539e9d2b6fa4cee194349,2022-07-06_09h31.29.213,Colour_Asymmetry_Pilot,2022.1.3,Win32,59.91252771,62c50e9c1127f2cd403a315f,0,110,110,59,1,twofour,,,,,,,,,,,,,,,,,,,,,,,,,,,,,,,,,,,,,,,,,,,,,,,,,,,,,,,,,,,,,,,,,,,,,,,,,,,,,,,,,,,,,,,,,,,,,,,,,,,,,,,,,,,,,,,,,,,,,,,,,,,,,,,,,,,,,,,,,,,,,,,,,,,,,,,,,,,,,
,,,,,,6162b219ce146c3f929c5c4c,62c539e9d2b6fa4cee194349,2022-07-06_09h31.29.213,Colour_Asymmetry_Pilot,2022.1.3,Win32,59.91252771,62c50e9c1127f2cd403a315f,0,111,111,80,1,onetwo,,,,,,,,,,,,,,,,,,,,,,,,,,,,,,,,,,,,,,,,,,,,,,,,,,,,,,,,,,,,,,,,,,,,,,,,,,,,,,,,,,,,,,,,,,,,,,,,,,,,,,,,,,,,,,,,,,,,,,,,,,,,,,,,,,,,,,,,,,,,,,,,,,,,,,,,,,,,,
,,,,,,6162b219ce146c3f929c5c4c,62c539e9d2b6fa4cee194349,2022-07-06_09h31.29.213,Colour_Asymmetry_Pilot,2022.1.3,Win32,59.91252771,62c50e9c1127f2cd403a315f,0,112,112,7,1,fourthree,,,,,,,,,,,,,,,,,,,,,,,,,,,,,,,,,,,,,,,,,,,,,,,,,,,,,,,,,,,,,,,,,,,,,,,,,,,,,,,,,,,,,,,,,,,,,,,,,,,,,,,,,,,,,,,,,,,,,,,,,,,,,,,,,,,,,,,,,,,,,,,,,,,,,,,,,,,,,
,,,,,,6162b219ce146c3f929c5c4c,62c539e9d2b6fa4cee194349,2022-07-06_09h31.29.213,Colour_Asymmetry_Pilot,2022.1.3,Win32,59.91252771,62c50e9c1127f2cd403a315f,0,113,113,151,1,fourthree,,,,,,,,,,,,,,,,,,,,,,,,,,,,,,,,,,,,,,,,,,,,,,,,,,,,,,,,,,,,,,,,,,,,,,,,,,,,,,,,,,,,,,,,,,,,,,,,,,,,,,,,,,,,,,,,,,,,,,,,,,,,,,,,,,,,,,,,,,,,,,,,,,,,,,,,,,,,,
,,,,,,6162b219ce146c3f929c5c4c,62c539e9d2b6fa4cee194349,2022-07-06_09h31.29.213,Colour_Asymmetry_Pilot,2022.1.3,Win32,59.91252771,62c50e9c1127f2cd403a315f,0,114,114,35,1,twofour,,,,,,,,,,,,,,,,,,,,,,,,,,,,,,,,,,,,,,,,,,,,,,,,,,,,,,,,,,,,,,,,,,,,,,,,,,,,,,,,,,,,,,,,,,,,,,,,,,,,,,,,,,,,,,,,,,,,,,,,,,,,,,,,,,,,,,,,,,,,,,,,,,,,,,,,,,,,,
,,,,,,6162b219ce146c3f929c5c4c,62c539e9d2b6fa4cee194349,2022-07-06_09h31.29.213,Colour_Asymmetry_Pilot,2022.1.3,Win32,59.91252771,62c50e9c1127f2cd403a315f,0,115,115,128,1,onetwo,,,,,,,,,,,,,,,,,,,,,,,,,,,,,,,,,,,,,,,,,,,,,,,,,,,,,,,,,,,,,,,,,,,,,,,,,,,,,,,,,,,,,,,,,,,,,,,,,,,,,,,,,,,,,,,,,,,,,,,,,,,,,,,,,,,,,,,,,,,,,,,,,,,,,,,,,,,,,
,,,,,,6162b219ce146c3f929c5c4c,62c539e9d2b6fa4cee194349,2022-07-06_09h31.29.213,Colour_Asymmetry_Pilot,2022.1.3,Win32,59.91252771,62c50e9c1127f2cd403a315f,0,116,116,3,1,twofour,,,,,,,,,,,,,,,,,,,,,,,,,,,,,,,,,,,,,,,,,,,,,,,,,,,,,,,,,,,,,,,,,,,,,,,,,,,,,,,,,,,,,,,,,,,,,,,,,,,,,,,,,,,,,,,,,,,,,,,,,,,,,,,,,,,,,,,,,,,,,,,,,,,,,,,,,,,,,
,,,,,,6162b219ce146c3f929c5c4c,62c539e9d2b6fa4cee194349,2022-07-06_09h31.29.213,Colour_Asymmetry_Pilot,2022.1.3,Win32,59.91252771,62c50e9c1127f2cd403a315f,0,117,117,132,1,threeone,,,,,,,,,,,,,,,,,,,,,,,,,,,,,,,,,,,,,,,,,,,,,,,,,,,,,,,,,,,,,,,,,,,,,,,,,,,,,,,,,,,,,,,,,,,,,,,,,,,,,,,,,,,,,,,,,,,,,,,,,,,,,,,,,,,,,,,,,,,,,,,,,,,,,,,,,,,,,
,,,,,,6162b219ce146c3f929c5c4c,62c539e9d2b6fa4cee194349,2022-07-06_09h31.29.213,Colour_Asymmetry_Pilot,2022.1.3,Win32,59.91252771,62c50e9c1127f2cd403a315f,0,118,118,22,1,fourtwo,,,,,,,,,,,,,,,,,,,,,,,,,,,,,,,,,,,,,,,,,,,,,,,,,,,,,,,,,,,,,,,,,,,,,,,,,,,,,,,,,,,,,,,,,,,,,,,,,,,,,,,,,,,,,,,,,,,,,,,,,,,,,,,,,,,,,,,,,,,,,,,,,,,,,,,,,,,,,
,,,,,,6162b219ce146c3f929c5c4c,62c539e9d2b6fa4cee194349,2022-07-06_09h31.29.213,Colour_Asymmetry_Pilot,2022.1.3,Win32,59.91252771,62c50e9c1127f2cd403a315f,0,119,119,125,1,threefour,,,,,,,,,,,,,,,,,,,,,,,,,,,,,,,,,,,,,,,,,,,,,,,,,,,,,,,,,,,,,,,,,,,,,,,,,,,,,,,,,,,,,,,,,,,,,,,,,,,,,,,,,,,,,,,,,,,,,,,,,,,,,,,,,,,,,,,,,,,,,,,,,,,,,,,,,,,,,
,,,,,,6162b219ce146c3f929c5c4c,62c539e9d2b6fa4cee194349,2022-07-06_09h31.29.213,Colour_Asymmetry_Pilot,2022.1.3,Win32,59.91252771,62c50e9c1127f2cd403a315f,0,120,120,55,1,fourthree,,,,,,,,,,,,,,,,,,,,,,,,,,,,,,,,,,,,,,,,,,,,,,,,,,,,,,,,,,,,,,,,,,,,,,,,,,,,,,,,,,,,,,,,,,,,,,,,,,,,,,,,,,,,,,,,,,,,,,,,,,,,,,,,,,,,,,,,,,,,,,,,,,,,,,,,,,,,,
,,,,,,6162b219ce146c3f929c5c4c,62c539e9d2b6fa4cee194349,2022-07-06_09h31.29.213,Colour_Asymmetry_Pilot,2022.1.3,Win32,59.91252771,62c50e9c1127f2cd403a315f,0,121,121,20,1,threeone,,,,,,,,,,,,,,,,,,,,,,,,,,,,,,,,,,,,,,,,,,,,,,,,,,,,,,,,,,,,,,,,,,,,,,,,,,,,,,,,,,,,,,,,,,,,,,,,,,,,,,,,,,,,,,,,,,,,,,,,,,,,,,,,,,,,,,,,,,,,,,,,,,,,,,,,,,,,,
,,,,,,6162b219ce146c3f929c5c4c,62c539e9d2b6fa4cee194349,2022-07-06_09h31.29.213,Colour_Asymmetry_Pilot,2022.1.3,Win32,59.91252771,62c50e9c1127f2cd403a315f,0,122,122,14,1,fourtwo,,,,,,,,,,,,,,,,,,,,,,,,,,,,,,,,,,,,,,,,,,,,,,,,,,,,,,,,,,,,,,,,,,,,,,,,,,,,,,,,,,,,,,,,,,,,,,,,,,,,,,,,,,,,,,,,,,,,,,,,,,,,,,,,,,,,,,,,,,,,,,,,,,,,,,,,,,,,,
,,,,,,6162b219ce146c3f929c5c4c,62c539e9d2b6fa4cee194349,2022-07-06_09h31.29.213,Colour_Asymmetry_Pilot,2022.1.3,Win32,59.91252771,62c50e9c1127f2cd403a315f,0,123,123,36,1,threeone,,,,,,,,,,,,,,,,,,,,,,,,,,,,,,,,,,,,,,,,,,,,,,,,,,,,,,,,,,,,,,,,,,,,,,,,,,,,,,,,,,,,,,,,,,,,,,,,,,,,,,,,,,,,,,,,,,,,,,,,,,,,,,,,,,,,,,,,,,,,,,,,,,,,,,,,,,,,,
,,,,,,6162b219ce146c3f929c5c4c,62c539e9d2b6fa4cee194349,2022-07-06_09h31.29.213,Colour_Asymmetry_Pilot,2022.1.3,Win32,59.91252771,62c50e9c1127f2cd403a315f,0,124,124,8,1,onetwo,,,,,,,,,,,,,,,,,,,,,,,,,,,,,,,,,,,,,,,,,,,,,,,,,,,,,,,,,,,,,,,,,,,,,,,,,,,,,,,,,,,,,,,,,,,,,,,,,,,,,,,,,,,,,,,,,,,,,,,,,,,,,,,,,,,,,,,,,,,,,,,,,,,,,,,,,,,,,
,,,,,,6162b219ce146c3f929c5c4c,62c539e9d2b6fa4cee194349,2022-07-06_09h31.29.213,Colour_Asymmetry_Pilot,2022.1.3,Win32,59.91252771,62c50e9c1127f2cd403a315f,0,125,125,104,1,onetwo,,,,,,,,,,,,,,,,,,,,,,,,,,,,,,,,,,,,,,,,,,,,,,,,,,,,,,,,,,,,,,,,,,,,,,,,,,,,,,,,,,,,,,,,,,,,,,,,,,,,,,,,,,,,,,,,,,,,,,,,,,,,,,,,,,,,,,,,,,,,,,,,,,,,,,,,,,,,,
,,,,,,6162b219ce146c3f929c5c4c,62c539e9d2b6fa4cee194349,2022-07-06_09h31.29.213,Colour_Asymmetry_Pilot,2022.1.3,Win32,59.91252771,62c50e9c1127f2cd403a315f,0,126,126,38,1,fourtwo,,,,,,,,,,,,,,,,,,,,,,,,,,,,,,,,,,,,,,,,,,,,,,,,,,,,,,,,,,,,,,,,,,,,,,,,,,,,,,,,,,,,,,,,,,,,,,,,,,,,,,,,,,,,,,,,,,,,,,,,,,,,,,,,,,,,,,,,,,,,,,,,,,,,,,,,,,,,,
,,,,,,6162b219ce146c3f929c5c4c,62c539e9d2b6fa4cee194349,2022-07-06_09h31.29.213,Colour_Asymmetry_Pilot,2022.1.3,Win32,59.91252771,62c50e9c1127f2cd403a315f,0,127,127,146,1,twoone,,,,,,,,,,,,,,,,,,,,,,,,,,,,,,,,,,,,,,,,,,,,,,,,,,,,,,,,,,,,,,,,,,,,,,,,,,,,,,,,,,,,,,,,,,,,,,,,,,,,,,,,,,,,,,,,,,,,,,,,,,,,,,,,,,,,,,,,,,,,,,,,,,,,,,,,,,,,,
,,,,,,6162b219ce146c3f929c5c4c,62c539e9d2b6fa4cee194349,2022-07-06_09h31.29.213,Colour_Asymmetry_Pilot,2022.1.3,Win32,59.91252771,62c50e9c1127f2cd403a315f,0,128,128,58,1,twoone,,,,,,,,,,,,,,,,,,,,,,,,,,,,,,,,,,,,,,,,,,,,,,,,,,,,,,,,,,,,,,,,,,,,,,,,,,,,,,,,,,,,,,,,,,,,,,,,,,,,,,,,,,,,,,,,,,,,,,,,,,,,,,,,,,,,,,,,,,,,,,,,,,,,,,,,,,,,,
,,,,,,6162b219ce146c3f929c5c4c,62c539e9d2b6fa4cee194349,2022-07-06_09h31.29.213,Colour_Asymmetry_Pilot,2022.1.3,Win32,59.91252771,62c50e9c1127f2cd403a315f,0,129,129,115,1,twofour,,,,,,,,,,,,,,,,,,,,,,,,,,,,,,,,,,,,,,,,,,,,,,,,,,,,,,,,,,,,,,,,,,,,,,,,,,,,,,,,,,,,,,,,,,,,,,,,,,,,,,,,,,,,,,,,,,,,,,,,,,,,,,,,,,,,,,,,,,,,,,,,,,,,,,,,,,,,,
,,,,,,6162b219ce146c3f929c5c4c,62c539e9d2b6fa4cee194349,2022-07-06_09h31.29.213,Colour_Asymmetry_Pilot,2022.1.3,Win32,59.91252771,62c50e9c1127f2cd403a315f,0,130,130,76,1,threeone,,,,,,,,,,,,,,,,,,,,,,,,,,,,,,,,,,,,,,,,,,,,,,,,,,,,,,,,,,,,,,,,,,,,,,,,,,,,,,,,,,,,,,,,,,,,,,,,,,,,,,,,,,,,,,,,,,,,,,,,,,,,,,,,,,,,,,,,,,,,,,,,,,,,,,,,,,,,,
,,,,,,6162b219ce146c3f929c5c4c,62c539e9d2b6fa4cee194349,2022-07-06_09h31.29.213,Colour_Asymmetry_Pilot,2022.1.3,Win32,59.91252771,62c50e9c1127f2cd403a315f,0,131,131,25,1,onethree,,,,,,,,,,,,,,,,,,,,,,,,,,,,,,,,,,,,,,,,,,,,,,,,,,,,,,,,,,,,,,,,,,,,,,,,,,,,,,,,,,,,,,,,,,,,,,,,,,,,,,,,,,,,,,,,,,,,,,,,,,,,,,,,,,,,,,,,,,,,,,,,,,,,,,,,,,,,,
,,,,,,6162b219ce146c3f929c5c4c,62c539e9d2b6fa4cee194349,2022-07-06_09h31.29.213,Colour_Asymmetry_Pilot,2022.1.3,Win32,59.91252771,62c50e9c1127f2cd403a315f,0,132,132,65,1,onethree,,,,,,,,,,,,,,,,,,,,,,,,,,,,,,,,,,,,,,,,,,,,,,,,,,,,,,,,,,,,,,,,,,,,,,,,,,,,,,,,,,,,,,,,,,,,,,,,,,,,,,,,,,,,,,,,,,,,,,,,,,,,,,,,,,,,,,,,,,,,,,,,,,,,,,,,,,,,,
,,,,,,6162b219ce146c3f929c5c4c,62c539e9d2b6fa4cee194349,2022-07-06_09h31.29.213,Colour_Asymmetry_Pilot,2022.1.3,Win32,59.91252771,62c50e9c1127f2cd403a315f,0,133,133,122,1,twoone,,,,,,,,,,,,,,,,,,,,,,,,,,,,,,,,,,,,,,,,,,,,,,,,,,,,,,,,,,,,,,,,,,,,,,,,,,,,,,,,,,,,,,,,,,,,,,,,,,,,,,,,,,,,,,,,,,,,,,,,,,,,,,,,,,,,,,,,,,,,,,,,,,,,,,,,,,,,,
,,,,,,6162b219ce146c3f929c5c4c,62c539e9d2b6fa4cee194349,2022-07-06_09h31.29.213,Colour_Asymmetry_Pilot,2022.1.3,Win32,59.91252771,62c50e9c1127f2cd403a315f,0,134,134,103,1,fourthree,,,,,,,,,,,,,,,,,,,,,,,,,,,,,,,,,,,,,,,,,,,,,,,,,,,,,,,,,,,,,,,,,,,,,,,,,,,,,,,,,,,,,,,,,,,,,,,,,,,,,,,,,,,,,,,,,,,,,,,,,,,,,,,,,,,,,,,,,,,,,,,,,,,,,,,,,,,,,
,,,,,,6162b219ce146c3f929c5c4c,62c539e9d2b6fa4cee194349,2022-07-06_09h31.29.213,Colour_Asymmetry_Pilot,2022.1.3,Win32,59.91252771,62c50e9c1127f2cd403a315f,0,135,135,116,1,threeone,,,,,,,,,,,,,,,,,,,,,,,,,,,,,,,,,,,,,,,,,,,,,,,,,,,,,,,,,,,,,,,,,,,,,,,,,,,,,,,,,,,,,,,,,,,,,,,,,,,,,,,,,,,,,,,,,,,,,,,,,,,,,,,,,,,,,,,,,,,,,,,,,,,,,,,,,,,,,
,,,,,,6162b219ce146c3f929c5c4c,62c539e9d2b6fa4cee194349,2022-07-06_09h31.29.213,Colour_Asymmetry_Pilot,2022.1.3,Win32,59.91252771,62c50e9c1127f2cd403a315f,0,136,136,154,1,twoone,,,,,,,,,,,,,,,,,,,,,,,,,,,,,,,,,,,,,,,,,,,,,,,,,,,,,,,,,,,,,,,,,,,,,,,,,,,,,,,,,,,,,,,,,,,,,,,,,,,,,,,,,,,,,,,,,,,,,,,,,,,,,,,,,,,,,,,,,,,,,,,,,,,,,,,,,,,,,
,,,,,,6162b219ce146c3f929c5c4c,62c539e9d2b6fa4cee194349,2022-07-06_09h31.29.213,Colour_Asymmetry_Pilot,2022.1.3,Win32,59.91252771,62c50e9c1127f2cd403a315f,0,137,137,75,1,twofour,,,,,,,,,,,,,,,,,,,,,,,,,,,,,,,,,,,,,,,,,,,,,,,,,,,,,,,,,,,,,,,,,,,,,,,,,,,,,,,,,,,,,,,,,,,,,,,,,,,,,,,,,,,,,,,,,,,,,,,,,,,,,,,,,,,,,,,,,,,,,,,,,,,,,,,,,,,,,
,,,,,,6162b219ce146c3f929c5c4c,62c539e9d2b6fa4cee194349,2022-07-06_09h31.29.213,Colour_Asymmetry_Pilot,2022.1.3,Win32,59.91252771,62c50e9c1127f2cd403a315f,0,138,138,60,1,threeone,,,,,,,,,,,,,,,,,,,,,,,,,,,,,,,,,,,,,,,,,,,,,,,,,,,,,,,,,,,,,,,,,,,,,,,,,,,,,,,,,,,,,,,,,,,,,,,,,,,,,,,,,,,,,,,,,,,,,,,,,,,,,,,,,,,,,,,,,,,,,,,,,,,,,,,,,,,,,
,,,,,,6162b219ce146c3f929c5c4c,62c539e9d2b6fa4cee194349,2022-07-06_09h31.29.213,Colour_Asymmetry_Pilot,2022.1.3,Win32,59.91252771,62c50e9c1127f2cd403a315f,0,139,139,41,1,onethree,,,,,,,,,,,,,,,,,,,,,,,,,,,,,,,,,,,,,,,,,,,,,,,,,,,,,,,,,,,,,,,,,,,,,,,,,,,,,,,,,,,,,,,,,,,,,,,,,,,,,,,,,,,,,,,,,,,,,,,,,,,,,,,,,,,,,,,,,,,,,,,,,,,,,,,,,,,,,
,,,,,,6162b219ce146c3f929c5c4c,62c539e9d2b6fa4cee194349,2022-07-06_09h31.29.213,Colour_Asymmetry_Pilot,2022.1.3,Win32,59.91252771,62c50e9c1127f2cd403a315f,0,140,140,138,1,twoone,,,,,,,,,,,,,,,,,,,,,,,,,,,,,,,,,,,,,,,,,,,,,,,,,,,,,,,,,,,,,,,,,,,,,,,,,,,,,,,,,,,,,,,,,,,,,,,,,,,,,,,,,,,,,,,,,,,,,,,,,,,,,,,,,,,,,,,,,,,,,,,,,,,,,,,,,,,,,
,,,,,,6162b219ce146c3f929c5c4c,62c539e9d2b6fa4cee194349,2022-07-06_09h31.29.213,Colour_Asymmetry_Pilot,2022.1.3,Win32,59.91252771,62c50e9c1127f2cd403a315f,0,141,141,133,1,threefour,,,,,,,,,,,,,,,,,,,,,,,,,,,,,,,,,,,,,,,,,,,,,,,,,,,,,,,,,,,,,,,,,,,,,,,,,,,,,,,,,,,,,,,,,,,,,,,,,,,,,,,,,,,,,,,,,,,,,,,,,,,,,,,,,,,,,,,,,,,,,,,,,,,,,,,,,,,,,
,,,,,,6162b219ce146c3f929c5c4c,62c539e9d2b6fa4cee194349,2022-07-06_09h31.29.213,Colour_Asymmetry_Pilot,2022.1.3,Win32,59.91252771,62c50e9c1127f2cd403a315f,0,142,142,160,1,onetwo,,,,,,,,,,,,,,,,,,,,,,,,,,,,,,,,,,,,,,,,,,,,,,,,,,,,,,,,,,,,,,,,,,,,,,,,,,,,,,,,,,,,,,,,,,,,,,,,,,,,,,,,,,,,,,,,,,,,,,,,,,,,,,,,,,,,,,,,,,,,,,,,,,,,,,,,,,,,,
,,,,,,6162b219ce146c3f929c5c4c,62c539e9d2b6fa4cee194349,2022-07-06_09h31.29.213,Colour_Asymmetry_Pilot,2022.1.3,Win32,59.91252771,62c50e9c1127f2cd403a315f,0,143,143,32,1,onetwo,,,,,,,,,,,,,,,,,,,,,,,,,,,,,,,,,,,,,,,,,,,,,,,,,,,,,,,,,,,,,,,,,,,,,,,,,,,,,,,,,,,,,,,,,,,,,,,,,,,,,,,,,,,,,,,,,,,,,,,,,,,,,,,,,,,,,,,,,,,,,,,,,,,,,,,,,,,,,
,,,,,,6162b219ce146c3f929c5c4c,62c539e9d2b6fa4cee194349,2022-07-06_09h31.29.213,Colour_Asymmetry_Pilot,2022.1.3,Win32,59.91252771,62c50e9c1127f2cd403a315f,0,144,144,61,1,threefour,,,,,,,,,,,,,,,,,,,,,,,,,,,,,,,,,,,,,,,,,,,,,,,,,,,,,,,,,,,,,,,,,,,,,,,,,,,,,,,,,,,,,,,,,,,,,,,,,,,,,,,,,,,,,,,,,,,,,,,,,,,,,,,,,,,,,,,,,,,,,,,,,,,,,,,,,,,,,
,,,,,,6162b219ce146c3f929c5c4c,62c539e9d2b6fa4cee194349,2022-07-06_09h31.29.213,Colour_Asymmetry_Pilot,2022.1.3,Win32,59.91252771,62c50e9c1127f2cd403a315f,0,145,145,97,1,onethree,,,,,,,,,,,,,,,,,,,,,,,,,,,,,,,,,,,,,,,,,,,,,,,,,,,,,,,,,,,,,,,,,,,,,,,,,,,,,,,,,,,,,,,,,,,,,,,,,,,,,,,,,,,,,,,,,,,,,,,,,,,,,,,,,,,,,,,,,,,,,,,,,,,,,,,,,,,,,
,,,,,,6162b219ce146c3f929c5c4c,62c539e9d2b6fa4cee194349,2022-07-06_09h31.29.213,Colour_Asymmetry_Pilot,2022.1.3,Win32,59.91252771,62c50e9c1127f2cd403a315f,0,146,146,90,1,twoone,,,,,,,,,,,,,,,,,,,,,,,,,,,,,,,,,,,,,,,,,,,,,,,,,,,,,,,,,,,,,,,,,,,,,,,,,,,,,,,,,,,,,,,,,,,,,,,,,,,,,,,,,,,,,,,,,,,,,,,,,,,,,,,,,,,,,,,,,,,,,,,,,,,,,,,,,,,,,
,,,,,,6162b219ce146c3f929c5c4c,62c539e9d2b6fa4cee194349,2022-07-06_09h31.29.213,Colour_Asymmetry_Pilot,2022.1.3,Win32,59.91252771,62c50e9c1127f2cd403a315f,0,147,147,126,1,fourtwo,,,,,,,,,,,,,,,,,,,,,,,,,,,,,,,,,,,,,,,,,,,,,,,,,,,,,,,,,,,,,,,,,,,,,,,,,,,,,,,,,,,,,,,,,,,,,,,,,,,,,,,,,,,,,,,,,,,,,,,,,,,,,,,,,,,,,,,,,,,,,,,,,,,,,,,,,,,,,
,,,,,,6162b219ce146c3f929c5c4c,62c539e9d2b6fa4cee194349,2022-07-06_09h31.29.213,Colour_Asymmetry_Pilot,2022.1.3,Win32,59.91252771,62c50e9c1127f2cd403a315f,0,148,148,9,1,onethree,,,,,,,,,,,,,,,,,,,,,,,,,,,,,,,,,,,,,,,,,,,,,,,,,,,,,,,,,,,,,,,,,,,,,,,,,,,,,,,,,,,,,,,,,,,,,,,,,,,,,,,,,,,,,,,,,,,,,,,,,,,,,,,,,,,,,,,,,,,,,,,,,,,,,,,,,,,,,
,,,,,,6162b219ce146c3f929c5c4c,62c539e9d2b6fa4cee194349,2022-07-06_09h31.29.213,Colour_Asymmetry_Pilot,2022.1.3,Win32,59.91252771,62c50e9c1127f2cd403a315f,0,149,149,100,1,threeone,,,,,,,,,,,,,,,,,,,,,,,,,,,,,,,,,,,,,,,,,,,,,,,,,,,,,,,,,,,,,,,,,,,,,,,,,,,,,,,,,,,,,,,,,,,,,,,,,,,,,,,,,,,,,,,,,,,,,,,,,,,,,,,,,,,,,,,,,,,,,,,,,,,,,,,,,,,,,
,,,,,,6162b219ce146c3f929c5c4c,62c539e9d2b6fa4cee194349,2022-07-06_09h31.29.213,Colour_Asymmetry_Pilot,2022.1.3,Win32,59.91252771,62c50e9c1127f2cd403a315f,0,150,150,143,1,fourthree,,,,,,,,,,,,,,,,,,,,,,,,,,,,,,,,,,,,,,,,,,,,,,,,,,,,,,,,,,,,,,,,,,,,,,,,,,,,,,,,,,,,,,,,,,,,,,,,,,,,,,,,,,,,,,,,,,,,,,,,,,,,,,,,,,,,,,,,,,,,,,,,,,,,,,,,,,,,,
,,,,,,6162b219ce146c3f929c5c4c,62c539e9d2b6fa4cee194349,2022-07-06_09h31.29.213,Colour_Asymmetry_Pilot,2022.1.3,Win32,59.91252771,62c50e9c1127f2cd403a315f,0,151,151,23,1,fourthree,,,,,,,,,,,,,,,,,,,,,,,,,,,,,,,,,,,,,,,,,,,,,,,,,,,,,,,,,,,,,,,,,,,,,,,,,,,,,,,,,,,,,,,,,,,,,,,,,,,,,,,,,,,,,,,,,,,,,,,,,,,,,,,,,,,,,,,,,,,,,,,,,,,,,,,,,,,,,
,,,,,,6162b219ce146c3f929c5c4c,62c539e9d2b6fa4cee194349,2022-07-06_09h31.29.213,Colour_Asymmetry_Pilot,2022.1.3,Win32,59.91252771,62c50e9c1127f2cd403a315f,0,152,152,47,1,fourthree,,,,,,,,,,,,,,,,,,,,,,,,,,,,,,,,,,,,,,,,,,,,,,,,,,,,,,,,,,,,,,,,,,,,,,,,,,,,,,,,,,,,,,,,,,,,,,,,,,,,,,,,,,,,,,,,,,,,,,,,,,,,,,,,,,,,,,,,,,,,,,,,,,,,,,,,,,,,,
,,,,,,6162b219ce146c3f929c5c4c,62c539e9d2b6fa4cee194349,2022-07-06_09h31.29.213,Colour_Asymmetry_Pilot,2022.1.3,Win32,59.91252771,62c50e9c1127f2cd403a315f,0,153,153,70,1,fourtwo,,,,,,,,,,,,,,,,,,,,,,,,,,,,,,,,,,,,,,,,,,,,,,,,,,,,,,,,,,,,,,,,,,,,,,,,,,,,,,,,,,,,,,,,,,,,,,,,,,,,,,,,,,,,,,,,,,,,,,,,,,,,,,,,,,,,,,,,,,,,,,,,,,,,,,,,,,,,,
,,,,,,6162b219ce146c3f929c5c4c,62c539e9d2b6fa4cee194349,2022-07-06_09h31.29.213,Colour_Asymmetry_Pilot,2022.1.3,Win32,59.91252771,62c50e9c1127f2cd403a315f,0,154,154,119,1,fourthree,,,,,,,,,,,,,,,,,,,,,,,,,,,,,,,,,,,,,,,,,,,,,,,,,,,,,,,,,,,,,,,,,,,,,,,,,,,,,,,,,,,,,,,,,,,,,,,,,,,,,,,,,,,,,,,,,,,,,,,,,,,,,,,,,,,,,,,,,,,,,,,,,,,,,,,,,,,,,
,,,,,,6162b219ce146c3f929c5c4c,62c539e9d2b6fa4cee194349,2022-07-06_09h31.29.213,Colour_Asymmetry_Pilot,2022.1.3,Win32,59.91252771,62c50e9c1127f2cd403a315f,0,155,155,158,1,fourtwo,,,,,,,,,,,,,,,,,,,,,,,,,,,,,,,,,,,,,,,,,,,,,,,,,,,,,,,,,,,,,,,,,,,,,,,,,,,,,,,,,,,,,,,,,,,,,,,,,,,,,,,,,,,,,,,,,,,,,,,,,,,,,,,,,,,,,,,,,,,,,,,,,,,,,,,,,,,,,
,,,,,,6162b219ce146c3f929c5c4c,62c539e9d2b6fa4cee194349,2022-07-06_09h31.29.213,Colour_Asymmetry_Pilot,2022.1.3,Win32,59.91252771,62c50e9c1127f2cd403a315f,0,156,156,110,1,fourtwo,,,,,,,,,,,,,,,,,,,,,,,,,,,,,,,,,,,,,,,,,,,,,,,,,,,,,,,,,,,,,,,,,,,,,,,,,,,,,,,,,,,,,,,,,,,,,,,,,,,,,,,,,,,,,,,,,,,,,,,,,,,,,,,,,,,,,,,,,,,,,,,,,,,,,,,,,,,,,
,,,,,,6162b219ce146c3f929c5c4c,62c539e9d2b6fa4cee194349,2022-07-06_09h31.29.213,Colour_Asymmetry_Pilot,2022.1.3,Win32,59.91252771,62c50e9c1127f2cd403a315f,0,157,157,142,1,fourtwo,,,,,,,,,,,,,,,,,,,,,,,,,,,,,,,,,,,,,,,,,,,,,,,,,,,,,,,,,,,,,,,,,,,,,,,,,,,,,,,,,,,,,,,,,,,,,,,,,,,,,,,,,,,,,,,,,,,,,,,,,,,,,,,,,,,,,,,,,,,,,,,,,,,,,,,,,,,,,
,,,,,,6162b219ce146c3f929c5c4c,62c539e9d2b6fa4cee194349,2022-07-06_09h31.29.213,Colour_Asymmetry_Pilot,2022.1.3,Win32,59.91252771,62c50e9c1127f2cd403a315f,0,158,158,73,1,onethree,,,,,,,,,,,,,,,,,,,,,,,,,,,,,,,,,,,,,,,,,,,,,,,,,,,,,,,,,,,,,,,,,,,,,,,,,,,,,,,,,,,,,,,,,,,,,,,,,,,,,,,,,,,,,,,,,,,,,,,,,,,,,,,,,,,,,,,,,,,,,,,,,,,,,,,,,,,,,
,,,,,,6162b219ce146c3f929c5c4c,62c539e9d2b6fa4cee194349,2022-07-06_09h31.29.213,Colour_Asymmetry_Pilot,2022.1.3,Win32,59.91252771,62c50e9c1127f2cd403a315f,0,159,159,49,1,onethree,,,,,,,,,,,,,,,,,,,,,,,,,,,,,,,,,,,,,,,,,,,,,,,,,,,,,,,,,,,,,,,,,,,,,,,,,,,,,,,,,,,,,,,,,,,,,,,,,,,,,,,,,,,,,,,,,,,,,,,,,,,,,,,,,,,,,,,,,,,,,,,,,,,,,,,,,,,,,
,,,,,,6162b219ce146c3f929c5c4c,62c539e9d2b6fa4cee194349,2022-07-06_09h31.29.213,Colour_Asymmetry_Pilot,2022.1.3,Win32,59.91252771,62c50e9c1127f2cd403a315f,0,160,160,12,1,threeone,,,,,,,,,,,,,,,,,,,,,,,,,,,,,,,,,,,,,,,,,,,,,,,,,,,,,,,,,,,,,,,,,,,,,,,,,,,,,,,,,,,,,,,,,,,,,,,,,,,,,,,,,,,,,,,,,,,,,,,,,,,,,,,,,,,,,,,,,,,,,,,,,,,,,,,,,,,,,
,,,,,,6162b219ce146c3f929c5c4c,62c539e9d2b6fa4cee194349,2022-07-06_09h31.29.213,Colour_Asymmetry_Pilot,2022.1.3,Win32,59.91252771,62c50e9c1127f2cd403a315f,0,161,161,87,1,fourthree,,,,,,,,,,,,,,,,,,,,,,,,,,,,,,,,,,,,,,,,,,,,,,,,,,,,,,,,,,,,,,,,,,,,,,,,,,,,,,,,,,,,,,,,,,,,,,,,,,,,,,,,,,,,,,,,,,,,,,,,,,,,,,,,,,,,,,,,,,,,,,,,,,,,,,,,,,,,,
,,,,,,6162b219ce146c3f929c5c4c,62c539e9d2b6fa4cee194349,2022-07-06_09h31.29.213,Colour_Asymmetry_Pilot,2022.1.3,Win32,59.91252771,62c50e9c1127f2cd403a315f,,,,,,,space,2.5215,space,26.7902,space,49.4587,space,45.8903,space,3.5935,space,6.7342,"[-0.9688,-0.38039999999999996,-0.41979999999999995]",onetwo,"[-0.011800000000000033,-0.906,-0.45100000000000007]",-4,4.4632,-47,100,1,0,0,response7disk_5,1,2,1,0,0,rectangle_8,81,-38,1,0,0,response3disk_7,5,2,13,-3,1,0,0,rectangle_4,0,0,0,0,1,,,,,,,,,,,,,,,,,,,,,,,,,,,,,,,,,,,,,,,,,,,,,,,,,,,,,,,,,,,,,,,,,,,,,,,,,,,,,,,,,,,,,,,,,,,,,,,,,,,,,,,,,,,,,
,,,,,,6162b219ce146c3f929c5c4c,62c539e9d2b6fa4cee194349,2022-07-06_09h31.29.213,Colour_Asymmetry_Pilot,2022.1.3,Win32,59.91252771,62c50e9c1127f2cd403a315f,,,,,,,,,,,,,,,,,,,"[-0.9688,-0.38039999999999996,-0.41979999999999995]",onethree,"[0.5449999999999999,-0.31000000000000005,-0.0354000000000001]",-4,4.4335,-54,90,1,0,0,response7disk_5,13,-2,1,0,0,rectangle_8,13,-2,1,0,0,,,2,13,-2,1,0,0,,1,0,1,0,1,,,,,,,,,,,,,,,,,,,,,,,,,,,,,,,,,,,,,,,,,,,,,,,,,,,,,,,,,,,,,,,,,,,,,,,,,,,,,,,,,,,,,,,,,,,,,,,,,,,,,,,,,,,,,
,,,,,,6162b219ce146c3f929c5c4c,62c539e9d2b6fa4cee194349,2022-07-06_09h31.29.213,Colour_Asymmetry_Pilot,2022.1.3,Win32,59.91252771,62c50e9c1127f2cd403a315f,,,,,,,,,,,,,,,,,,,"[-0.9688,-0.4902000000000001,-0.12159999999999993]",fourtwo,"[-0.050999999999999934,-0.6706000000000001,-0.804]",-4,3.1204,-41,80,1,0,0,response7disk_5,20,-3,1,0,0,rectangle_8,20,-3,1,0,0,,,2,20,-3,1,0,0,,2,0,2,0,1,,,,,,,,,,,,,,,,,,,,,,,,,,,,,,,,,,,,,,,,,,,,,,,,,,,,,,,,,,,,,,,,,,,,,,,,,,,,,,,,,,,,,,,,,,,,,,,,,,,,,,,,,,,,,
,,,,,,6162b219ce146c3f929c5c4c,62c539e9d2b6fa4cee194349,2022-07-06_09h31.29.213,Colour_Asymmetry_Pilot,2022.1.3,Win32,59.91252771,62c50e9c1127f2cd403a315f,,,,,,,,,,,,,,,,,,,"[0.23920000000000008,0.2704,0.16060000000000008]",onethree,"[0.34099999999999997,0.5841999999999998,-0.9844]",4,3.5799,31,84,1,0,0,response1disk_5,11,3,1,0,0,rectangle_8,84,-37,1,0,0,response3disk_7,5,2,16,14,1,0,0,rectangle_4,3,0,3,0,1,,,,,,,,,,,,,,,,,,,,,,,,,,,,,,,,,,,,,,,,,,,,,,,,,,,,,,,,,,,,,,,,,,,,,,,,,,,,,,,,,,,,,,,,,,,,,,,,,,,,,,,,,,,,,
,,,,,,6162b219ce146c3f929c5c4c,62c539e9d2b6fa4cee194349,2022-07-06_09h31.29.213,Colour_Asymmetry_Pilot,2022.1.3,Win32,59.91252771,62c50e9c1127f2cd403a315f,,,,,,,,,,,,,,,,,,,"[0.23920000000000008,0.2704,0.16060000000000008]",onethree,"[0.11359999999999992,0.6312,0.5213999999999999]",4,1.6729,35,80,1,0,0,response1disk_5,-2,-5,1,0,0,rectangle_8,-2,-5,1,0,0,,,2,-2,-5,1,0,0,,4,0,4,0,1,,,,,,,,,,,,,,,,,,,,,,,,,,,,,,,,,,,,,,,,,,,,,,,,,,,,,,,,,,,,,,,,,,,,,,,,,,,,,,,,,,,,,,,,,,,,,,,,,,,,,,,,,,,,,
,,,,,,6162b219ce146c3f929c5c4c,62c539e9d2b6fa4cee194349,2022-07-06_09h31.29.213,Colour_Asymmetry_Pilot,2022.1.3,Win32,59.91252771,62c50e9c1127f2cd403a315f,,,,,,,,,,,,,,,,,,,"[0.09799999999999986,-0.24719999999999998,0.15280000000000005]",threefour,"[0.9763999999999999,0.8588,-0.05900000000000005]",-4,1.3881,-44,79,1,0,0,response7disk_5,-9,-2,1,0,0,rectangle_8,-9,-2,1,0,0,,,2,-9,-2,1,0,0,,5,0,5,0,1,,,,,,,,,,,,,,,,,,,,,,,,,,,,,,,,,,,,,,,,,,,,,,,,,,,,,,,,,,,,,,,,,,,,,,,,,,,,,,,,,,,,,,,,,,,,,,,,,,,,,,,,,,,,,
,,,,,,6162b219ce146c3f929c5c4c,62c539e9d2b6fa4cee194349,2022-07-06_09h31.29.213,Colour_Asymmetry_Pilot,2022.1.3,Win32,59.91252771,62c50e9c1127f2cd403a315f,,,,,,,,,,,,,,,,,,,"[-0.8198,-0.5138,-0.7492000000000001]",twoone,"[0.34099999999999997,0.12939999999999996,-0.9766]",-4,2.9424,-42,104,1,0,0,response7disk_5,-10,3,1,0,0,rectangle_8,-10,3,1,0,0,,,2,-10,3,1,0,0,,6,0,6,0,1,,,,,,,,,,,,,,,,,,,,,,,,,,,,,,,,,,,,,,,,,,,,,,,,,,,,,,,,,,,,,,,,,,,,,,,,,,,,,,,,,,,,,,,,,,,,,,,,,,,,,,,,,,,,,
,,,,,,6162b219ce146c3f929c5c4c,62c539e9d2b6fa4cee194349,2022-07-06_09h31.29.213,Colour_Asymmetry_Pilot,2022.1.3,Win32,59.91252771,62c50e9c1127f2cd403a315f,,,,,,,,,,,,,,,,,,,,onetwo,,4,4.575,,,,,,,,,,,,,,,,,,,,,,,,,,,,,,,,space,4.8426,"[0.8274000000000001,-0.5844,-0.9452]","[0.23120000000000007,-0.7726,-0.34120000000000006]",45,88,1,0,0,response1disk,-3,4,1,0,0,rectangle,-3,4,1,0,0,,3,0.0022,0,-3,4,1,0,0,0,0,0,151,1,70,second,,,,,,,,,,,,,,,,,,,,,,,,,,,,,,,,,,,,,,,,,,,,,,,,,,,,,,,,,,,,,,,,,,,,,,,,
,,,,,,6162b219ce146c3f929c5c4c,62c539e9d2b6fa4cee194349,2022-07-06_09h31.29.213,Colour_Asymmetry_Pilot,2022.1.3,Win32,59.91252771,62c50e9c1127f2cd403a315f,,,,,,,,,,,,,,,,,,,,fourthree,,4,0.8873,,,,,,,,,,,,,,,,,,,,,,,,,,,,,,,,,,"[-0.8982,-0.37259999999999993,0.2784]","[-0.6,0.16860000000000008,0.44300000000000006]",44,78,1,0,0,response1disk,-9,6,1,0,0,rectangle,-9,6,1,0,0,,1,0.0021,0,-9,6,1,0,0,0,1,1,60,1,60,first,,,,,,,,,,,,,,,,,,,,,,,,,,,,,,,,,,,,,,,,,,,,,,,,,,,,,,,,,,,,,,,,,,,,,,,,
,,,,,,6162b219ce146c3f929c5c4c,62c539e9d2b6fa4cee194349,2022-07-06_09h31.29.213,Colour_Asymmetry_Pilot,2022.1.3,Win32,59.91252771,62c50e9c1127f2cd403a315f,,,,,,,,,,,,,,,,,,,,twoone,,-4,1.6727,,,,,,,,,,,,,,,,,,,,,,,,,,,,,,,,,,"[-0.9844,-0.9688,-0.9922]","[-0.01980000000000004,-0.5138,-0.38039999999999996]",-29,66,1,0,0,response7disk,8,2,1,0,0,rectangle,8,2,1,0,0,,3,0.0023,0,8,2,1,0,0,0,2,2,77,1,77,first,,,,,,,,,,,,,,,,,,,,,,,,,,,,,,,,,,,,,,,,,,,,,,,,,,,,,,,,,,,,,,,,,,,,,,,,
,,,,,,6162b219ce146c3f929c5c4c,62c539e9d2b6fa4cee194349,2022-07-06_09h31.29.213,Colour_Asymmetry_Pilot,2022.1.3,Win32,59.91252771,62c50e9c1127f2cd403a315f,,,,,,,,,,,,,,,,,,,,fourthree,,-4,1.9923,,,,,,,,,,,,,,,,,,,,,,,,,,,,,,,,,,"[0.30180000000000007,-0.7884,-0.9844]","[0.23920000000000008,0.2704,0.16060000000000008]",-35,81,1,0,0,response7disk,-3,-6,1,0,0,rectangle,57,-98,1,0,0,1,1,1.9509,1,22,10,1,0,0,0,3,3,76,1,76,first,response3disk_3,rectangle,,,,,,,,,,,,,,,,,,,,,,,,,,,,,,,,,,,,,,,,,,,,,,,,,,,,,,,,,,,,,,,,,,,,,,
,,,,,,6162b219ce146c3f929c5c4c,62c539e9d2b6fa4cee194349,2022-07-06_09h31.29.213,Colour_Asymmetry_Pilot,2022.1.3,Win32,59.91252771,62c50e9c1127f2cd403a315f,,,,,,,,,,,,,,,,,,,,onetwo,,4,5.0842,,,,,,,,,,,,,,,,,,,,,,,,,,,,,,,,,,"[-0.9766,-0.34920000000000007,0.2156]","[0.11359999999999992,0.6312,0.5213999999999999]",43,81,1,0,0,response1disk,-3,4,1,0,0,rectangle,-3,4,1,0,0,1,3,0.0023,0,-3,4,1,0,0,0,4,4,100,1,19,second,,,,,,,,,,,,,,,,,,,,,,,,,,,,,,,,,,,,,,,,,,,,,,,,,,,,,,,,,,,,,,,,,,,,,,,,
,,,,,,6162b219ce146c3f929c5c4c,62c539e9d2b6fa4cee194349,2022-07-06_09h31.29.213,Colour_Asymmetry_Pilot,2022.1.3,Win32,59.91252771,62c50e9c1127f2cd403a315f,,,,,,,,,,,,,,,,,,,,threefour,,-4,0.3641,,,,,,,,,,,,,,,,,,,,,,,,,,,,,,,,,,"[1,0.12939999999999996,-1]","[-0.38039999999999996,-0.4276,-0.1452]",-35,54,1,0,0,response7disk,4,-3,1,0,0,rectangle,4,-3,1,0,0,1,3,0.0035,0,4,-3,1,0,0,0,5,5,20,1,20,first,,,,,,,,,,,,,,,,,,,,,,,,,,,,,,,,,,,,,,,,,,,,,,,,,,,,,,,,,,,,,,,,,,,,,,,,
,,,,,,6162b219ce146c3f929c5c4c,62c539e9d2b6fa4cee194349,2022-07-06_09h31.29.213,Colour_Asymmetry_Pilot,2022.1.3,Win32,59.91252771,62c50e9c1127f2cd403a315f,,,,,,,,,,,,,,,,,,,,fourtwo,,-4,1.6727,,,,,,,,,,,,,,,,,,,,,,,,,,,,,,,,,,"[0.3802000000000001,0.19199999999999995,-0.6394]","[-0.9766,-0.6472,0.07440000000000002]",-46,95,1,0,0,response7disk,-12,-3,1,0,0,rectangle,-12,-3,1,0,0,1,3,0.0016,0,-12,-3,1,0,0,0,6,6,6,1,6,first,,,,,,,,,,,,,,,,,,,,,,,,,,,,,,,,,,,,,,,,,,,,,,,,,,,,,,,,,,,,,,,,,,,,,,,,
,,,,,,6162b219ce146c3f929c5c4c,62c539e9d2b6fa4cee194349,2022-07-06_09h31.29.213,Colour_Asymmetry_Pilot,2022.1.3,Win32,59.91252771,62c50e9c1127f2cd403a315f,,,,,,,,,,,,,,,,,,,,onethree,,4,0.6143,,,,,,,,,,,,,,,,,,,,,,,,,,,,,,,,,,"[-0.4746,-0.0354000000000001,0.5449999999999999]","[-0.24719999999999998,-0.0354000000000001,0.3175999999999999]",40,89,1,0,0,response1disk,0,-3,1,0,0,rectangle,0,-3,1,0,0,1,2,0.0024,0,0,-3,1,0,0,0,7,7,155,1,74,second,,,,,,,,,,,,,,,,,,,,,,,,,,,,,,,,,,,,,,,,,,,,,,,,,,,,,,,,,,,,,,,,,,,,,,,,
,,,,,,6162b219ce146c3f929c5c4c,62c539e9d2b6fa4cee194349,2022-07-06_09h31.29.213,Colour_Asymmetry_Pilot,2022.1.3,Win32,59.91252771,62c50e9c1127f2cd403a315f,,,,,,,,,,,,,,,,,,,,twoone,,-4,1.8756,,,,,,,,,,,,,,,,,,,,,,,,,,,,,,,,,,"[-0.26280000000000003,-0.4746,-0.2158]","[-0.9766,-0.34920000000000007,0.2156]",-32,93,1,0,0,response7disk,-8,0,1,0,0,rectangle,-8,0,1,0,0,1,1,0.0053,0,-8,0,1,0,0,0,8,8,110,1,29,second,,,,,,,,,,,,,,,,,,,,,,,,,,,,,,,,,,,,,,,,,,,,,,,,,,,,,,,,,,,,,,,,,,,,,,,,
,,,,,,6162b219ce146c3f929c5c4c,62c539e9d2b6fa4cee194349,2022-07-06_09h31.29.213,Colour_Asymmetry_Pilot,2022.1.3,Win32,59.91252771,62c50e9c1127f2cd403a315f,,,,,,,,,,,,,,,,,,,,twoone,,4,3.6064,,,,,,,,,,,,,,,,,,,,,,,,,,,,,,,,,,"[-0.6942,-0.7648,-0.12959999999999994]","[-0.4982,-0.2942,-0.0354000000000001]",17,85,1,0,0,response1disk,13,-1,1,0,0,rectangle,13,-1,1,0,0,1,2,0.0022,0,13,-1,1,0,0,0,9,9,14,1,14,first,,,,,,,,,,,,,,,,,,,,,,,,,,,,,,,,,,,,,,,,,,,,,,,,,,,,,,,,,,,,,,,,,,,,,,,,
,,,,,,6162b219ce146c3f929c5c4c,62c539e9d2b6fa4cee194349,2022-07-06_09h31.29.213,Colour_Asymmetry_Pilot,2022.1.3,Win32,59.91252771,62c50e9c1127f2cd403a315f,,,,,,,,,,,,,,,,,,,,twofour,,-4,1.1403,,,,,,,,,,,,,,,,,,,,,,,,,,,,,,,,,,"[0.3802000000000001,0.19199999999999995,-0.6394]","[0.23920000000000008,0.2704,0.16060000000000008]",-39,70,1,0,0,response7disk,12,-8,1,0,0,rectangle,12,-8,1,0,0,1,1,0.0025,0,12,-8,1,0,0,0,10,10,41,1,41,first,,,,,,,,,,,,,,,,,,,,,,,,,,,,,,,,,,,,,,,,,,,,,,,,,,,,,,,,,,,,,,,,,,,,,,,,
,,,,,,6162b219ce146c3f929c5c4c,62c539e9d2b6fa4cee194349,2022-07-06_09h31.29.213,Colour_Asymmetry_Pilot,2022.1.3,Win32,59.91252771,62c50e9c1127f2cd403a315f,,,,,,,,,,,,,,,,,,,,twoone,,-4,0.3435,,,,,,,,,,,,,,,,,,,,,,,,,,,,,,,,,,"[-0.5922000000000001,-0.7492000000000001,-0.5296000000000001]","[0.796,0.2156,-0.27859999999999996]",-58,85,1,0,0,response7disk,-2,5,1,0,0,rectangle,-2,5,1,0,0,1,1,0.0007,0,-2,5,1,0,0,0,11,11,93,1,12,second,,,,,,,,,,,,,,,,,,,,,,,,,,,,,,,,,,,,,,,,,,,,,,,,,,,,,,,,,,,,,,,,,,,,,,,,
,,,,,,6162b219ce146c3f929c5c4c,62c539e9d2b6fa4cee194349,2022-07-06_09h31.29.213,Colour_Asymmetry_Pilot,2022.1.3,Win32,59.91252771,62c50e9c1127f2cd403a315f,,,,,,,,,,,,,,,,,,,,onethree,,-4,0.3171,,,,,,,,,,,,,,,,,,,,,,,,,,,,,,,,,,"[0.37240000000000006,0.4980000000000002,-0.2864]","[-0.8198,-0.5138,-0.7492000000000001]",-46,88,1,0,0,response7disk,0,4,1,0,0,rectangle,0,4,1,0,0,1,2,0.0015,0,0,4,1,0,0,0,12,12,96,1,15,second,,,,,,,,,,,,,,,,,,,,,,,,,,,,,,,,,,,,,,,,,,,,,,,,,,,,,,,,,,,,,,,,,,,,,,,,
,,,,,,6162b219ce146c3f929c5c4c,62c539e9d2b6fa4cee194349,2022-07-06_09h31.29.213,Colour_Asymmetry_Pilot,2022.1.3,Win32,59.91252771,62c50e9c1127f2cd403a315f,,,,,,,,,,,,,,,,,,,,threefour,,4,0.3518,,,,,,,,,,,,,,,,,,,,,,,,,,,,,,,,,,"[-0.8118,-0.8198,-0.5452]","[-0.38039999999999996,-0.4276,-0.1452]",34,73,1,0,0,response1disk,6,-1,1,0,0,rectangle,6,-1,1,0,0,1,1,0.0023,0,6,-1,1,0,0,0,13,13,0,1,0,first,,,,,,,,,,,,,,,,,,,,,,,,,,,,,,,,,,,,,,,,,,,,,,,,,,,,,,,,,,,,,,,,,,,,,,,,
,,,,,,6162b219ce146c3f929c5c4c,62c539e9d2b6fa4cee194349,2022-07-06_09h31.29.213,Colour_Asymmetry_Pilot,2022.1.3,Win32,59.91252771,62c50e9c1127f2cd403a315f,,,,,,,,,,,,,,,,,,,,twofour,,-4,0.3004,,,,,,,,,,,,,,,,,,,,,,,,,,,,,,,,,,"[-0.10599999999999998,-0.10599999999999998,0.5841999999999998]","[0.3802000000000001,0.19199999999999995,-0.6394]",-35,77,1,0,0,response7disk,1,-4,1,0,0,rectangle,1,-4,1,0,0,1,3,0.0029,0,1,-4,1,0,0,0,14,14,98,1,17,second,,,,,,,,,,,,,,,,,,,,,,,,,,,,,,,,,,,,,,,,,,,,,,,,,,,,,,,,,,,,,,,,,,,,,,,,
,,,,,,6162b219ce146c3f929c5c4c,62c539e9d2b6fa4cee194349,2022-07-06_09h31.29.213,Colour_Asymmetry_Pilot,2022.1.3,Win32,59.91252771,62c50e9c1127f2cd403a315f,,,,,,,,,,,,,,,,,,,,fourtwo,,-4,0.9047,,,,,,,,,,,,,,,,,,,,,,,,,,,,,,,,,,"[0.9763999999999999,0.30979999999999985,-0.6786]","[-0.9766,-0.6472,0.07440000000000002]",-63,93,1,0,0,response7disk,-1,7,1,0,0,rectangle,-1,7,1,0,0,1,1,0.0028,0,-1,7,1,0,0,0,15,15,65,1,65,first,,,,,,,,,,,,,,,,,,,,,,,,,,,,,,,,,,,,,,,,,,,,,,,,,,,,,,,,,,,,,,,,,,,,,,,,
,,,,,,6162b219ce146c3f929c5c4c,62c539e9d2b6fa4cee194349,2022-07-06_09h31.29.213,Colour_Asymmetry_Pilot,2022.1.3,Win32,59.91252771,62c50e9c1127f2cd403a315f,,,,,,,,,,,,,,,,,,,,twoone,,-4,0.2992,,,,,,,,,,,,,,,,,,,,,,,,,,,,,,,,,,"[-0.4746,-0.0354000000000001,0.5449999999999999]","[0.9686000000000001,0.5763999999999998,0.11359999999999992]",-42,89,1,0,0,response7disk,2,5,1,0,0,rectangle,2,5,1,0,0,1,3,0.0022,0,2,5,1,0,0,0,16,16,10,1,10,first,,,,,,,,,,,,,,,,,,,,,,,,,,,,,,,,,,,,,,,,,,,,,,,,,,,,,,,,,,,,,,,,,,,,,,,,
,,,,,,6162b219ce146c3f929c5c4c,62c539e9d2b6fa4cee194349,2022-07-06_09h31.29.213,Colour_Asymmetry_Pilot,2022.1.3,Win32,59.91252771,62c50e9c1127f2cd403a315f,,,,,,,,,,,,,,,,,,,,onetwo,,-4,0.3572,,,,,,,,,,,,,,,,,,,,,,,,,,,,,,,,,,"[-0.26280000000000003,-0.4746,-0.2158]","[-0.07459999999999989,0.12139999999999995,-0.9922]",-40,73,1,0,0,response7disk,0,4,1,0,0,rectangle,0,4,1,0,0,1,1,0.003,0,0,4,1,0,0,0,17,17,27,1,27,first,,,,,,,,,,,,,,,,,,,,,,,,,,,,,,,,,,,,,,,,,,,,,,,,,,,,,,,,,,,,,,,,,,,,,,,,
