trials.thisRepN,trials.thisTrialN,trials.thisN,trials.thisIndex,trials.ran,Colourcodes,participant,session,date,expName,psychopyVersion,OS,frameRate,study_id,trials_4.thisRepN,trials_4.thisTrialN,trials_4.thisN,trials_4.thisIndex,trials_4.ran,StimulusPos,key_resp.keys,key_resp.rt,key_resp_2.keys,key_resp_2.rt,key_resp_15.keys,key_resp_15.rt,key_resp_17.keys,key_resp_17.rt,key_resp_9.keys,key_resp_9.rt,key_resp_10.keys,key_resp_10.rt,Circle1_col,Ecc,Circle2_col,similarity,response_time,mouse_5.x,mouse_5.y,mouse_5.leftButton,mouse_5.midButton,mouse_5.rightButton,mouse_5.clicked_name,mouse_10.x,mouse_10.y,mouse_10.leftButton,mouse_10.midButton,mouse_10.rightButton,mouse_10.clicked_name,mouse_7.x,mouse_7.y,mouse_7.leftButton,mouse_7.midButton,mouse_7.rightButton,catchnumberprac,mouse_6.x,mouse_6.y,mouse_6.leftButton,mouse_6.midButton,mouse_6.rightButton,duringprac.thisRepN,duringprac.thisTrialN,duringprac.thisN,duringprac.thisIndex,duringprac.ran,mouse_7.clicked_name,catchprac,mouse_6.clicked_name,key_resp_22.keys,key_resp_22.rt,Circle1_colour,Circle2_colour,mouse.x,mouse.y,mouse.leftButton,mouse.midButton,mouse.rightButton,mouse.clicked_name,mouse_2.x,mouse_2.y,mouse_2.leftButton,mouse_2.midButton,mouse_2.rightButton,mouse_2.clicked_name,mouse_3.x,mouse_3.y,mouse_3.leftButton,mouse_3.midButton,mouse_3.rightButton,catchresponse,catchnumber,response_time_catch,Catch,mouse_11.x,mouse_11.y,mouse_11.leftButton,mouse_11.midButton,mouse_11.rightButton,trials_2.thisRepN,trials_2.thisTrialN,trials_2.thisN,trials_2.thisIndex,trials_2.ran,Colourpair,Temporder,mouse_3.clicked_name,mouse_11.clicked_name,trials_3.thisRepN,trials_3.thisTrialN,trials_3.thisN,trials_3.thisIndex,trials_3.ran,key_resp_instr_Ishi.keys,key_resp_instr_Ishi.rt,Ishi_trial_keyresp.keys,Ishi_textbox.text,Ishi_mouse.x,Ishi_mouse.y,Ishi_mouse.leftButton,Ishi_mouse.midButton,Ishi_mouse.rightButton,Ishi_mouse.clicked_name,Ishi_loop.thisRepN,Ishi_loop.thisTrialN,Ishi_loop.thisN,Ishi_loop.thisIndex,Ishi_loop.ran,imageaddress,textbox.text,mouse_4.x,mouse_4.y,mouse_4.leftButton,mouse_4.midButton,mouse_4.rightButton,mouse_4.clicked_name,textbox_2.text,mouse_8.x,mouse_8.y,mouse_8.leftButton,mouse_8.midButton,mouse_8.rightButton,mouse_8.clicked_name,textbox_3.text,mouse_9.x,mouse_9.y,mouse_9.leftButton,mouse_9.midButton,mouse_9.rightButton,mouse_9.clicked_name,textbox_4.text,mouse_12.x,mouse_12.y,mouse_12.leftButton,mouse_12.midButton,mouse_12.rightButton,mouse_12.clicked_name,textbox_5.text,mouse_13.x,mouse_13.y,mouse_13.leftButton,mouse_13.midButton,mouse_13.rightButton,mouse_13.clicked_name,textbox_6.text,mouse_14.x,mouse_14.y,mouse_14.leftButton,mouse_14.midButton,mouse_14.rightButton,mouse_14.clicked_name,textbox_7.text,mouse_15.x,mouse_15.y,mouse_15.leftButton,mouse_15.midButton,mouse_15.rightButton,mouse_15.clicked_name
0,0,0,52,1,,60bff62d82d796cabcf1958e,62c53958a74ca2e5baf2d362,2022-07-06_24h29.12.113,Colour_Asymmetry_Pilot,2022.1.3,Win32,60.00960154,62c50e9c1127f2cd403a315f,,,,,,,,,,,,,,,,,,,,,,,,,,,,,,,,,,,,,,,,,,,,,,,,,,,,,,,,,,,,,,,,,,,,,,,,,,,,,,,,,,,,,,,,,,,,,,,,,,,,,,,,,,,,,,,,,,,,,,,,,,,,,,,,,,,,,,,,,,,,,,,,,,,,,,,,,,,,,,,,,,,
0,1,1,40,1,,60bff62d82d796cabcf1958e,62c53958a74ca2e5baf2d362,2022-07-06_24h29.12.113,Colour_Asymmetry_Pilot,2022.1.3,Win32,60.00960154,62c50e9c1127f2cd403a315f,,,,,,,,,,,,,,,,,,,,,,,,,,,,,,,,,,,,,,,,,,,,,,,,,,,,,,,,,,,,,,,,,,,,,,,,,,,,,,,,,,,,,,,,,,,,,,,,,,,,,,,,,,,,,,,,,,,,,,,,,,,,,,,,,,,,,,,,,,,,,,,,,,,,,,,,,,,,,,,,,,,
0,2,2,87,1,,60bff62d82d796cabcf1958e,62c53958a74ca2e5baf2d362,2022-07-06_24h29.12.113,Colour_Asymmetry_Pilot,2022.1.3,Win32,60.00960154,62c50e9c1127f2cd403a315f,,,,,,,,,,,,,,,,,,,,,,,,,,,,,,,,,,,,,,,,,,,,,,,,,,,,,,,,,,,,,,,,,,,,,,,,,,,,,,,,,,,,,,,,,,,,,,,,,,,,,,,,,,,,,,,,,,,,,,,,,,,,,,,,,,,,,,,,,,,,,,,,,,,,,,,,,,,,,,,,,,,
0,3,3,19,1,,60bff62d82d796cabcf1958e,62c53958a74ca2e5baf2d362,2022-07-06_24h29.12.113,Colour_Asymmetry_Pilot,2022.1.3,Win32,60.00960154,62c50e9c1127f2cd403a315f,,,,,,,,,,,,,,,,,,,,,,,,,,,,,,,,,,,,,,,,,,,,,,,,,,,,,,,,,,,,,,,,,,,,,,,,,,,,,,,,,,,,,,,,,,,,,,,,,,,,,,,,,,,,,,,,,,,,,,,,,,,,,,,,,,,,,,,,,,,,,,,,,,,,,,,,,,,,,,,,,,,
0,4,4,62,1,,60bff62d82d796cabcf1958e,62c53958a74ca2e5baf2d362,2022-07-06_24h29.12.113,Colour_Asymmetry_Pilot,2022.1.3,Win32,60.00960154,62c50e9c1127f2cd403a315f,,,,,,,,,,,,,,,,,,,,,,,,,,,,,,,,,,,,,,,,,,,,,,,,,,,,,,,,,,,,,,,,,,,,,,,,,,,,,,,,,,,,,,,,,,,,,,,,,,,,,,,,,,,,,,,,,,,,,,,,,,,,,,,,,,,,,,,,,,,,,,,,,,,,,,,,,,,,,,,,,,,
0,5,5,47,1,,60bff62d82d796cabcf1958e,62c53958a74ca2e5baf2d362,2022-07-06_24h29.12.113,Colour_Asymmetry_Pilot,2022.1.3,Win32,60.00960154,62c50e9c1127f2cd403a315f,,,,,,,,,,,,,,,,,,,,,,,,,,,,,,,,,,,,,,,,,,,,,,,,,,,,,,,,,,,,,,,,,,,,,,,,,,,,,,,,,,,,,,,,,,,,,,,,,,,,,,,,,,,,,,,,,,,,,,,,,,,,,,,,,,,,,,,,,,,,,,,,,,,,,,,,,,,,,,,,,,,
0,6,6,30,1,,60bff62d82d796cabcf1958e,62c53958a74ca2e5baf2d362,2022-07-06_24h29.12.113,Colour_Asymmetry_Pilot,2022.1.3,Win32,60.00960154,62c50e9c1127f2cd403a315f,,,,,,,,,,,,,,,,,,,,,,,,,,,,,,,,,,,,,,,,,,,,,,,,,,,,,,,,,,,,,,,,,,,,,,,,,,,,,,,,,,,,,,,,,,,,,,,,,,,,,,,,,,,,,,,,,,,,,,,,,,,,,,,,,,,,,,,,,,,,,,,,,,,,,,,,,,,,,,,,,,,
0,7,7,16,1,,60bff62d82d796cabcf1958e,62c53958a74ca2e5baf2d362,2022-07-06_24h29.12.113,Colour_Asymmetry_Pilot,2022.1.3,Win32,60.00960154,62c50e9c1127f2cd403a315f,,,,,,,,,,,,,,,,,,,,,,,,,,,,,,,,,,,,,,,,,,,,,,,,,,,,,,,,,,,,,,,,,,,,,,,,,,,,,,,,,,,,,,,,,,,,,,,,,,,,,,,,,,,,,,,,,,,,,,,,,,,,,,,,,,,,,,,,,,,,,,,,,,,,,,,,,,,,,,,,,,,
0,8,8,81,1,,60bff62d82d796cabcf1958e,62c53958a74ca2e5baf2d362,2022-07-06_24h29.12.113,Colour_Asymmetry_Pilot,2022.1.3,Win32,60.00960154,62c50e9c1127f2cd403a315f,,,,,,,,,,,,,,,,,,,,,,,,,,,,,,,,,,,,,,,,,,,,,,,,,,,,,,,,,,,,,,,,,,,,,,,,,,,,,,,,,,,,,,,,,,,,,,,,,,,,,,,,,,,,,,,,,,,,,,,,,,,,,,,,,,,,,,,,,,,,,,,,,,,,,,,,,,,,,,,,,,,
0,9,9,58,1,,60bff62d82d796cabcf1958e,62c53958a74ca2e5baf2d362,2022-07-06_24h29.12.113,Colour_Asymmetry_Pilot,2022.1.3,Win32,60.00960154,62c50e9c1127f2cd403a315f,,,,,,,,,,,,,,,,,,,,,,,,,,,,,,,,,,,,,,,,,,,,,,,,,,,,,,,,,,,,,,,,,,,,,,,,,,,,,,,,,,,,,,,,,,,,,,,,,,,,,,,,,,,,,,,,,,,,,,,,,,,,,,,,,,,,,,,,,,,,,,,,,,,,,,,,,,,,,,,,,,,
0,10,10,64,1,,60bff62d82d796cabcf1958e,62c53958a74ca2e5baf2d362,2022-07-06_24h29.12.113,Colour_Asymmetry_Pilot,2022.1.3,Win32,60.00960154,62c50e9c1127f2cd403a315f,,,,,,,,,,,,,,,,,,,,,,,,,,,,,,,,,,,,,,,,,,,,,,,,,,,,,,,,,,,,,,,,,,,,,,,,,,,,,,,,,,,,,,,,,,,,,,,,,,,,,,,,,,,,,,,,,,,,,,,,,,,,,,,,,,,,,,,,,,,,,,,,,,,,,,,,,,,,,,,,,,,
0,11,11,49,1,,60bff62d82d796cabcf1958e,62c53958a74ca2e5baf2d362,2022-07-06_24h29.12.113,Colour_Asymmetry_Pilot,2022.1.3,Win32,60.00960154,62c50e9c1127f2cd403a315f,,,,,,,,,,,,,,,,,,,,,,,,,,,,,,,,,,,,,,,,,,,,,,,,,,,,,,,,,,,,,,,,,,,,,,,,,,,,,,,,,,,,,,,,,,,,,,,,,,,,,,,,,,,,,,,,,,,,,,,,,,,,,,,,,,,,,,,,,,,,,,,,,,,,,,,,,,,,,,,,,,,
0,12,12,73,1,,60bff62d82d796cabcf1958e,62c53958a74ca2e5baf2d362,2022-07-06_24h29.12.113,Colour_Asymmetry_Pilot,2022.1.3,Win32,60.00960154,62c50e9c1127f2cd403a315f,,,,,,,,,,,,,,,,,,,,,,,,,,,,,,,,,,,,,,,,,,,,,,,,,,,,,,,,,,,,,,,,,,,,,,,,,,,,,,,,,,,,,,,,,,,,,,,,,,,,,,,,,,,,,,,,,,,,,,,,,,,,,,,,,,,,,,,,,,,,,,,,,,,,,,,,,,,,,,,,,,,
0,13,13,70,1,,60bff62d82d796cabcf1958e,62c53958a74ca2e5baf2d362,2022-07-06_24h29.12.113,Colour_Asymmetry_Pilot,2022.1.3,Win32,60.00960154,62c50e9c1127f2cd403a315f,,,,,,,,,,,,,,,,,,,,,,,,,,,,,,,,,,,,,,,,,,,,,,,,,,,,,,,,,,,,,,,,,,,,,,,,,,,,,,,,,,,,,,,,,,,,,,,,,,,,,,,,,,,,,,,,,,,,,,,,,,,,,,,,,,,,,,,,,,,,,,,,,,,,,,,,,,,,,,,,,,,
0,14,14,54,1,,60bff62d82d796cabcf1958e,62c53958a74ca2e5baf2d362,2022-07-06_24h29.12.113,Colour_Asymmetry_Pilot,2022.1.3,Win32,60.00960154,62c50e9c1127f2cd403a315f,,,,,,,,,,,,,,,,,,,,,,,,,,,,,,,,,,,,,,,,,,,,,,,,,,,,,,,,,,,,,,,,,,,,,,,,,,,,,,,,,,,,,,,,,,,,,,,,,,,,,,,,,,,,,,,,,,,,,,,,,,,,,,,,,,,,,,,,,,,,,,,,,,,,,,,,,,,,,,,,,,,
0,15,15,71,1,,60bff62d82d796cabcf1958e,62c53958a74ca2e5baf2d362,2022-07-06_24h29.12.113,Colour_Asymmetry_Pilot,2022.1.3,Win32,60.00960154,62c50e9c1127f2cd403a315f,,,,,,,,,,,,,,,,,,,,,,,,,,,,,,,,,,,,,,,,,,,,,,,,,,,,,,,,,,,,,,,,,,,,,,,,,,,,,,,,,,,,,,,,,,,,,,,,,,,,,,,,,,,,,,,,,,,,,,,,,,,,,,,,,,,,,,,,,,,,,,,,,,,,,,,,,,,,,,,,,,,
0,16,16,69,1,,60bff62d82d796cabcf1958e,62c53958a74ca2e5baf2d362,2022-07-06_24h29.12.113,Colour_Asymmetry_Pilot,2022.1.3,Win32,60.00960154,62c50e9c1127f2cd403a315f,,,,,,,,,,,,,,,,,,,,,,,,,,,,,,,,,,,,,,,,,,,,,,,,,,,,,,,,,,,,,,,,,,,,,,,,,,,,,,,,,,,,,,,,,,,,,,,,,,,,,,,,,,,,,,,,,,,,,,,,,,,,,,,,,,,,,,,,,,,,,,,,,,,,,,,,,,,,,,,,,,,
0,17,17,28,1,,60bff62d82d796cabcf1958e,62c53958a74ca2e5baf2d362,2022-07-06_24h29.12.113,Colour_Asymmetry_Pilot,2022.1.3,Win32,60.00960154,62c50e9c1127f2cd403a315f,,,,,,,,,,,,,,,,,,,,,,,,,,,,,,,,,,,,,,,,,,,,,,,,,,,,,,,,,,,,,,,,,,,,,,,,,,,,,,,,,,,,,,,,,,,,,,,,,,,,,,,,,,,,,,,,,,,,,,,,,,,,,,,,,,,,,,,,,,,,,,,,,,,,,,,,,,,,,,,,,,,
0,18,18,80,1,,60bff62d82d796cabcf1958e,62c53958a74ca2e5baf2d362,2022-07-06_24h29.12.113,Colour_Asymmetry_Pilot,2022.1.3,Win32,60.00960154,62c50e9c1127f2cd403a315f,,,,,,,,,,,,,,,,,,,,,,,,,,,,,,,,,,,,,,,,,,,,,,,,,,,,,,,,,,,,,,,,,,,,,,,,,,,,,,,,,,,,,,,,,,,,,,,,,,,,,,,,,,,,,,,,,,,,,,,,,,,,,,,,,,,,,,,,,,,,,,,,,,,,,,,,,,,,,,,,,,,
0,19,19,75,1,,60bff62d82d796cabcf1958e,62c53958a74ca2e5baf2d362,2022-07-06_24h29.12.113,Colour_Asymmetry_Pilot,2022.1.3,Win32,60.00960154,62c50e9c1127f2cd403a315f,,,,,,,,,,,,,,,,,,,,,,,,,,,,,,,,,,,,,,,,,,,,,,,,,,,,,,,,,,,,,,,,,,,,,,,,,,,,,,,,,,,,,,,,,,,,,,,,,,,,,,,,,,,,,,,,,,,,,,,,,,,,,,,,,,,,,,,,,,,,,,,,,,,,,,,,,,,,,,,,,,,
0,20,20,33,1,,60bff62d82d796cabcf1958e,62c53958a74ca2e5baf2d362,2022-07-06_24h29.12.113,Colour_Asymmetry_Pilot,2022.1.3,Win32,60.00960154,62c50e9c1127f2cd403a315f,,,,,,,,,,,,,,,,,,,,,,,,,,,,,,,,,,,,,,,,,,,,,,,,,,,,,,,,,,,,,,,,,,,,,,,,,,,,,,,,,,,,,,,,,,,,,,,,,,,,,,,,,,,,,,,,,,,,,,,,,,,,,,,,,,,,,,,,,,,,,,,,,,,,,,,,,,,,,,,,,,,
0,21,21,35,1,,60bff62d82d796cabcf1958e,62c53958a74ca2e5baf2d362,2022-07-06_24h29.12.113,Colour_Asymmetry_Pilot,2022.1.3,Win32,60.00960154,62c50e9c1127f2cd403a315f,,,,,,,,,,,,,,,,,,,,,,,,,,,,,,,,,,,,,,,,,,,,,,,,,,,,,,,,,,,,,,,,,,,,,,,,,,,,,,,,,,,,,,,,,,,,,,,,,,,,,,,,,,,,,,,,,,,,,,,,,,,,,,,,,,,,,,,,,,,,,,,,,,,,,,,,,,,,,,,,,,,
0,22,22,20,1,,60bff62d82d796cabcf1958e,62c53958a74ca2e5baf2d362,2022-07-06_24h29.12.113,Colour_Asymmetry_Pilot,2022.1.3,Win32,60.00960154,62c50e9c1127f2cd403a315f,,,,,,,,,,,,,,,,,,,,,,,,,,,,,,,,,,,,,,,,,,,,,,,,,,,,,,,,,,,,,,,,,,,,,,,,,,,,,,,,,,,,,,,,,,,,,,,,,,,,,,,,,,,,,,,,,,,,,,,,,,,,,,,,,,,,,,,,,,,,,,,,,,,,,,,,,,,,,,,,,,,
0,23,23,42,1,,60bff62d82d796cabcf1958e,62c53958a74ca2e5baf2d362,2022-07-06_24h29.12.113,Colour_Asymmetry_Pilot,2022.1.3,Win32,60.00960154,62c50e9c1127f2cd403a315f,,,,,,,,,,,,,,,,,,,,,,,,,,,,,,,,,,,,,,,,,,,,,,,,,,,,,,,,,,,,,,,,,,,,,,,,,,,,,,,,,,,,,,,,,,,,,,,,,,,,,,,,,,,,,,,,,,,,,,,,,,,,,,,,,,,,,,,,,,,,,,,,,,,,,,,,,,,,,,,,,,,
0,24,24,8,1,,60bff62d82d796cabcf1958e,62c53958a74ca2e5baf2d362,2022-07-06_24h29.12.113,Colour_Asymmetry_Pilot,2022.1.3,Win32,60.00960154,62c50e9c1127f2cd403a315f,,,,,,,,,,,,,,,,,,,,,,,,,,,,,,,,,,,,,,,,,,,,,,,,,,,,,,,,,,,,,,,,,,,,,,,,,,,,,,,,,,,,,,,,,,,,,,,,,,,,,,,,,,,,,,,,,,,,,,,,,,,,,,,,,,,,,,,,,,,,,,,,,,,,,,,,,,,,,,,,,,,
0,25,25,78,1,,60bff62d82d796cabcf1958e,62c53958a74ca2e5baf2d362,2022-07-06_24h29.12.113,Colour_Asymmetry_Pilot,2022.1.3,Win32,60.00960154,62c50e9c1127f2cd403a315f,,,,,,,,,,,,,,,,,,,,,,,,,,,,,,,,,,,,,,,,,,,,,,,,,,,,,,,,,,,,,,,,,,,,,,,,,,,,,,,,,,,,,,,,,,,,,,,,,,,,,,,,,,,,,,,,,,,,,,,,,,,,,,,,,,,,,,,,,,,,,,,,,,,,,,,,,,,,,,,,,,,
0,26,26,9,1,,60bff62d82d796cabcf1958e,62c53958a74ca2e5baf2d362,2022-07-06_24h29.12.113,Colour_Asymmetry_Pilot,2022.1.3,Win32,60.00960154,62c50e9c1127f2cd403a315f,,,,,,,,,,,,,,,,,,,,,,,,,,,,,,,,,,,,,,,,,,,,,,,,,,,,,,,,,,,,,,,,,,,,,,,,,,,,,,,,,,,,,,,,,,,,,,,,,,,,,,,,,,,,,,,,,,,,,,,,,,,,,,,,,,,,,,,,,,,,,,,,,,,,,,,,,,,,,,,,,,,
0,27,27,41,1,,60bff62d82d796cabcf1958e,62c53958a74ca2e5baf2d362,2022-07-06_24h29.12.113,Colour_Asymmetry_Pilot,2022.1.3,Win32,60.00960154,62c50e9c1127f2cd403a315f,,,,,,,,,,,,,,,,,,,,,,,,,,,,,,,,,,,,,,,,,,,,,,,,,,,,,,,,,,,,,,,,,,,,,,,,,,,,,,,,,,,,,,,,,,,,,,,,,,,,,,,,,,,,,,,,,,,,,,,,,,,,,,,,,,,,,,,,,,,,,,,,,,,,,,,,,,,,,,,,,,,
0,28,28,63,1,,60bff62d82d796cabcf1958e,62c53958a74ca2e5baf2d362,2022-07-06_24h29.12.113,Colour_Asymmetry_Pilot,2022.1.3,Win32,60.00960154,62c50e9c1127f2cd403a315f,,,,,,,,,,,,,,,,,,,,,,,,,,,,,,,,,,,,,,,,,,,,,,,,,,,,,,,,,,,,,,,,,,,,,,,,,,,,,,,,,,,,,,,,,,,,,,,,,,,,,,,,,,,,,,,,,,,,,,,,,,,,,,,,,,,,,,,,,,,,,,,,,,,,,,,,,,,,,,,,,,,
0,29,29,60,1,,60bff62d82d796cabcf1958e,62c53958a74ca2e5baf2d362,2022-07-06_24h29.12.113,Colour_Asymmetry_Pilot,2022.1.3,Win32,60.00960154,62c50e9c1127f2cd403a315f,,,,,,,,,,,,,,,,,,,,,,,,,,,,,,,,,,,,,,,,,,,,,,,,,,,,,,,,,,,,,,,,,,,,,,,,,,,,,,,,,,,,,,,,,,,,,,,,,,,,,,,,,,,,,,,,,,,,,,,,,,,,,,,,,,,,,,,,,,,,,,,,,,,,,,,,,,,,,,,,,,,
0,30,30,29,1,,60bff62d82d796cabcf1958e,62c53958a74ca2e5baf2d362,2022-07-06_24h29.12.113,Colour_Asymmetry_Pilot,2022.1.3,Win32,60.00960154,62c50e9c1127f2cd403a315f,,,,,,,,,,,,,,,,,,,,,,,,,,,,,,,,,,,,,,,,,,,,,,,,,,,,,,,,,,,,,,,,,,,,,,,,,,,,,,,,,,,,,,,,,,,,,,,,,,,,,,,,,,,,,,,,,,,,,,,,,,,,,,,,,,,,,,,,,,,,,,,,,,,,,,,,,,,,,,,,,,,
0,31,31,0,1,,60bff62d82d796cabcf1958e,62c53958a74ca2e5baf2d362,2022-07-06_24h29.12.113,Colour_Asymmetry_Pilot,2022.1.3,Win32,60.00960154,62c50e9c1127f2cd403a315f,,,,,,,,,,,,,,,,,,,,,,,,,,,,,,,,,,,,,,,,,,,,,,,,,,,,,,,,,,,,,,,,,,,,,,,,,,,,,,,,,,,,,,,,,,,,,,,,,,,,,,,,,,,,,,,,,,,,,,,,,,,,,,,,,,,,,,,,,,,,,,,,,,,,,,,,,,,,,,,,,,,
0,32,32,24,1,,60bff62d82d796cabcf1958e,62c53958a74ca2e5baf2d362,2022-07-06_24h29.12.113,Colour_Asymmetry_Pilot,2022.1.3,Win32,60.00960154,62c50e9c1127f2cd403a315f,,,,,,,,,,,,,,,,,,,,,,,,,,,,,,,,,,,,,,,,,,,,,,,,,,,,,,,,,,,,,,,,,,,,,,,,,,,,,,,,,,,,,,,,,,,,,,,,,,,,,,,,,,,,,,,,,,,,,,,,,,,,,,,,,,,,,,,,,,,,,,,,,,,,,,,,,,,,,,,,,,,
0,33,33,27,1,,60bff62d82d796cabcf1958e,62c53958a74ca2e5baf2d362,2022-07-06_24h29.12.113,Colour_Asymmetry_Pilot,2022.1.3,Win32,60.00960154,62c50e9c1127f2cd403a315f,,,,,,,,,,,,,,,,,,,,,,,,,,,,,,,,,,,,,,,,,,,,,,,,,,,,,,,,,,,,,,,,,,,,,,,,,,,,,,,,,,,,,,,,,,,,,,,,,,,,,,,,,,,,,,,,,,,,,,,,,,,,,,,,,,,,,,,,,,,,,,,,,,,,,,,,,,,,,,,,,,,
0,34,34,18,1,,60bff62d82d796cabcf1958e,62c53958a74ca2e5baf2d362,2022-07-06_24h29.12.113,Colour_Asymmetry_Pilot,2022.1.3,Win32,60.00960154,62c50e9c1127f2cd403a315f,,,,,,,,,,,,,,,,,,,,,,,,,,,,,,,,,,,,,,,,,,,,,,,,,,,,,,,,,,,,,,,,,,,,,,,,,,,,,,,,,,,,,,,,,,,,,,,,,,,,,,,,,,,,,,,,,,,,,,,,,,,,,,,,,,,,,,,,,,,,,,,,,,,,,,,,,,,,,,,,,,,
0,35,35,36,1,,60bff62d82d796cabcf1958e,62c53958a74ca2e5baf2d362,2022-07-06_24h29.12.113,Colour_Asymmetry_Pilot,2022.1.3,Win32,60.00960154,62c50e9c1127f2cd403a315f,,,,,,,,,,,,,,,,,,,,,,,,,,,,,,,,,,,,,,,,,,,,,,,,,,,,,,,,,,,,,,,,,,,,,,,,,,,,,,,,,,,,,,,,,,,,,,,,,,,,,,,,,,,,,,,,,,,,,,,,,,,,,,,,,,,,,,,,,,,,,,,,,,,,,,,,,,,,,,,,,,,
0,36,36,56,1,,60bff62d82d796cabcf1958e,62c53958a74ca2e5baf2d362,2022-07-06_24h29.12.113,Colour_Asymmetry_Pilot,2022.1.3,Win32,60.00960154,62c50e9c1127f2cd403a315f,,,,,,,,,,,,,,,,,,,,,,,,,,,,,,,,,,,,,,,,,,,,,,,,,,,,,,,,,,,,,,,,,,,,,,,,,,,,,,,,,,,,,,,,,,,,,,,,,,,,,,,,,,,,,,,,,,,,,,,,,,,,,,,,,,,,,,,,,,,,,,,,,,,,,,,,,,,,,,,,,,,
0,37,37,85,1,,60bff62d82d796cabcf1958e,62c53958a74ca2e5baf2d362,2022-07-06_24h29.12.113,Colour_Asymmetry_Pilot,2022.1.3,Win32,60.00960154,62c50e9c1127f2cd403a315f,,,,,,,,,,,,,,,,,,,,,,,,,,,,,,,,,,,,,,,,,,,,,,,,,,,,,,,,,,,,,,,,,,,,,,,,,,,,,,,,,,,,,,,,,,,,,,,,,,,,,,,,,,,,,,,,,,,,,,,,,,,,,,,,,,,,,,,,,,,,,,,,,,,,,,,,,,,,,,,,,,,
0,38,38,34,1,,60bff62d82d796cabcf1958e,62c53958a74ca2e5baf2d362,2022-07-06_24h29.12.113,Colour_Asymmetry_Pilot,2022.1.3,Win32,60.00960154,62c50e9c1127f2cd403a315f,,,,,,,,,,,,,,,,,,,,,,,,,,,,,,,,,,,,,,,,,,,,,,,,,,,,,,,,,,,,,,,,,,,,,,,,,,,,,,,,,,,,,,,,,,,,,,,,,,,,,,,,,,,,,,,,,,,,,,,,,,,,,,,,,,,,,,,,,,,,,,,,,,,,,,,,,,,,,,,,,,,
0,39,39,45,1,,60bff62d82d796cabcf1958e,62c53958a74ca2e5baf2d362,2022-07-06_24h29.12.113,Colour_Asymmetry_Pilot,2022.1.3,Win32,60.00960154,62c50e9c1127f2cd403a315f,,,,,,,,,,,,,,,,,,,,,,,,,,,,,,,,,,,,,,,,,,,,,,,,,,,,,,,,,,,,,,,,,,,,,,,,,,,,,,,,,,,,,,,,,,,,,,,,,,,,,,,,,,,,,,,,,,,,,,,,,,,,,,,,,,,,,,,,,,,,,,,,,,,,,,,,,,,,,,,,,,,
0,40,40,31,1,,60bff62d82d796cabcf1958e,62c53958a74ca2e5baf2d362,2022-07-06_24h29.12.113,Colour_Asymmetry_Pilot,2022.1.3,Win32,60.00960154,62c50e9c1127f2cd403a315f,,,,,,,,,,,,,,,,,,,,,,,,,,,,,,,,,,,,,,,,,,,,,,,,,,,,,,,,,,,,,,,,,,,,,,,,,,,,,,,,,,,,,,,,,,,,,,,,,,,,,,,,,,,,,,,,,,,,,,,,,,,,,,,,,,,,,,,,,,,,,,,,,,,,,,,,,,,,,,,,,,,
0,41,41,25,1,,60bff62d82d796cabcf1958e,62c53958a74ca2e5baf2d362,2022-07-06_24h29.12.113,Colour_Asymmetry_Pilot,2022.1.3,Win32,60.00960154,62c50e9c1127f2cd403a315f,,,,,,,,,,,,,,,,,,,,,,,,,,,,,,,,,,,,,,,,,,,,,,,,,,,,,,,,,,,,,,,,,,,,,,,,,,,,,,,,,,,,,,,,,,,,,,,,,,,,,,,,,,,,,,,,,,,,,,,,,,,,,,,,,,,,,,,,,,,,,,,,,,,,,,,,,,,,,,,,,,,
0,42,42,91,1,,60bff62d82d796cabcf1958e,62c53958a74ca2e5baf2d362,2022-07-06_24h29.12.113,Colour_Asymmetry_Pilot,2022.1.3,Win32,60.00960154,62c50e9c1127f2cd403a315f,,,,,,,,,,,,,,,,,,,,,,,,,,,,,,,,,,,,,,,,,,,,,,,,,,,,,,,,,,,,,,,,,,,,,,,,,,,,,,,,,,,,,,,,,,,,,,,,,,,,,,,,,,,,,,,,,,,,,,,,,,,,,,,,,,,,,,,,,,,,,,,,,,,,,,,,,,,,,,,,,,,
0,43,43,50,1,,60bff62d82d796cabcf1958e,62c53958a74ca2e5baf2d362,2022-07-06_24h29.12.113,Colour_Asymmetry_Pilot,2022.1.3,Win32,60.00960154,62c50e9c1127f2cd403a315f,,,,,,,,,,,,,,,,,,,,,,,,,,,,,,,,,,,,,,,,,,,,,,,,,,,,,,,,,,,,,,,,,,,,,,,,,,,,,,,,,,,,,,,,,,,,,,,,,,,,,,,,,,,,,,,,,,,,,,,,,,,,,,,,,,,,,,,,,,,,,,,,,,,,,,,,,,,,,,,,,,,
0,44,44,6,1,,60bff62d82d796cabcf1958e,62c53958a74ca2e5baf2d362,2022-07-06_24h29.12.113,Colour_Asymmetry_Pilot,2022.1.3,Win32,60.00960154,62c50e9c1127f2cd403a315f,,,,,,,,,,,,,,,,,,,,,,,,,,,,,,,,,,,,,,,,,,,,,,,,,,,,,,,,,,,,,,,,,,,,,,,,,,,,,,,,,,,,,,,,,,,,,,,,,,,,,,,,,,,,,,,,,,,,,,,,,,,,,,,,,,,,,,,,,,,,,,,,,,,,,,,,,,,,,,,,,,,
0,45,45,37,1,,60bff62d82d796cabcf1958e,62c53958a74ca2e5baf2d362,2022-07-06_24h29.12.113,Colour_Asymmetry_Pilot,2022.1.3,Win32,60.00960154,62c50e9c1127f2cd403a315f,,,,,,,,,,,,,,,,,,,,,,,,,,,,,,,,,,,,,,,,,,,,,,,,,,,,,,,,,,,,,,,,,,,,,,,,,,,,,,,,,,,,,,,,,,,,,,,,,,,,,,,,,,,,,,,,,,,,,,,,,,,,,,,,,,,,,,,,,,,,,,,,,,,,,,,,,,,,,,,,,,,
0,46,46,14,1,,60bff62d82d796cabcf1958e,62c53958a74ca2e5baf2d362,2022-07-06_24h29.12.113,Colour_Asymmetry_Pilot,2022.1.3,Win32,60.00960154,62c50e9c1127f2cd403a315f,,,,,,,,,,,,,,,,,,,,,,,,,,,,,,,,,,,,,,,,,,,,,,,,,,,,,,,,,,,,,,,,,,,,,,,,,,,,,,,,,,,,,,,,,,,,,,,,,,,,,,,,,,,,,,,,,,,,,,,,,,,,,,,,,,,,,,,,,,,,,,,,,,,,,,,,,,,,,,,,,,,
0,47,47,48,1,,60bff62d82d796cabcf1958e,62c53958a74ca2e5baf2d362,2022-07-06_24h29.12.113,Colour_Asymmetry_Pilot,2022.1.3,Win32,60.00960154,62c50e9c1127f2cd403a315f,,,,,,,,,,,,,,,,,,,,,,,,,,,,,,,,,,,,,,,,,,,,,,,,,,,,,,,,,,,,,,,,,,,,,,,,,,,,,,,,,,,,,,,,,,,,,,,,,,,,,,,,,,,,,,,,,,,,,,,,,,,,,,,,,,,,,,,,,,,,,,,,,,,,,,,,,,,,,,,,,,,
0,48,48,12,1,,60bff62d82d796cabcf1958e,62c53958a74ca2e5baf2d362,2022-07-06_24h29.12.113,Colour_Asymmetry_Pilot,2022.1.3,Win32,60.00960154,62c50e9c1127f2cd403a315f,,,,,,,,,,,,,,,,,,,,,,,,,,,,,,,,,,,,,,,,,,,,,,,,,,,,,,,,,,,,,,,,,,,,,,,,,,,,,,,,,,,,,,,,,,,,,,,,,,,,,,,,,,,,,,,,,,,,,,,,,,,,,,,,,,,,,,,,,,,,,,,,,,,,,,,,,,,,,,,,,,,
0,49,49,7,1,,60bff62d82d796cabcf1958e,62c53958a74ca2e5baf2d362,2022-07-06_24h29.12.113,Colour_Asymmetry_Pilot,2022.1.3,Win32,60.00960154,62c50e9c1127f2cd403a315f,,,,,,,,,,,,,,,,,,,,,,,,,,,,,,,,,,,,,,,,,,,,,,,,,,,,,,,,,,,,,,,,,,,,,,,,,,,,,,,,,,,,,,,,,,,,,,,,,,,,,,,,,,,,,,,,,,,,,,,,,,,,,,,,,,,,,,,,,,,,,,,,,,,,,,,,,,,,,,,,,,,
0,50,50,43,1,,60bff62d82d796cabcf1958e,62c53958a74ca2e5baf2d362,2022-07-06_24h29.12.113,Colour_Asymmetry_Pilot,2022.1.3,Win32,60.00960154,62c50e9c1127f2cd403a315f,,,,,,,,,,,,,,,,,,,,,,,,,,,,,,,,,,,,,,,,,,,,,,,,,,,,,,,,,,,,,,,,,,,,,,,,,,,,,,,,,,,,,,,,,,,,,,,,,,,,,,,,,,,,,,,,,,,,,,,,,,,,,,,,,,,,,,,,,,,,,,,,,,,,,,,,,,,,,,,,,,,
0,51,51,83,1,,60bff62d82d796cabcf1958e,62c53958a74ca2e5baf2d362,2022-07-06_24h29.12.113,Colour_Asymmetry_Pilot,2022.1.3,Win32,60.00960154,62c50e9c1127f2cd403a315f,,,,,,,,,,,,,,,,,,,,,,,,,,,,,,,,,,,,,,,,,,,,,,,,,,,,,,,,,,,,,,,,,,,,,,,,,,,,,,,,,,,,,,,,,,,,,,,,,,,,,,,,,,,,,,,,,,,,,,,,,,,,,,,,,,,,,,,,,,,,,,,,,,,,,,,,,,,,,,,,,,,
0,52,52,77,1,,60bff62d82d796cabcf1958e,62c53958a74ca2e5baf2d362,2022-07-06_24h29.12.113,Colour_Asymmetry_Pilot,2022.1.3,Win32,60.00960154,62c50e9c1127f2cd403a315f,,,,,,,,,,,,,,,,,,,,,,,,,,,,,,,,,,,,,,,,,,,,,,,,,,,,,,,,,,,,,,,,,,,,,,,,,,,,,,,,,,,,,,,,,,,,,,,,,,,,,,,,,,,,,,,,,,,,,,,,,,,,,,,,,,,,,,,,,,,,,,,,,,,,,,,,,,,,,,,,,,,
0,53,53,79,1,,60bff62d82d796cabcf1958e,62c53958a74ca2e5baf2d362,2022-07-06_24h29.12.113,Colour_Asymmetry_Pilot,2022.1.3,Win32,60.00960154,62c50e9c1127f2cd403a315f,,,,,,,,,,,,,,,,,,,,,,,,,,,,,,,,,,,,,,,,,,,,,,,,,,,,,,,,,,,,,,,,,,,,,,,,,,,,,,,,,,,,,,,,,,,,,,,,,,,,,,,,,,,,,,,,,,,,,,,,,,,,,,,,,,,,,,,,,,,,,,,,,,,,,,,,,,,,,,,,,,,
0,54,54,32,1,,60bff62d82d796cabcf1958e,62c53958a74ca2e5baf2d362,2022-07-06_24h29.12.113,Colour_Asymmetry_Pilot,2022.1.3,Win32,60.00960154,62c50e9c1127f2cd403a315f,,,,,,,,,,,,,,,,,,,,,,,,,,,,,,,,,,,,,,,,,,,,,,,,,,,,,,,,,,,,,,,,,,,,,,,,,,,,,,,,,,,,,,,,,,,,,,,,,,,,,,,,,,,,,,,,,,,,,,,,,,,,,,,,,,,,,,,,,,,,,,,,,,,,,,,,,,,,,,,,,,,
0,55,55,22,1,,60bff62d82d796cabcf1958e,62c53958a74ca2e5baf2d362,2022-07-06_24h29.12.113,Colour_Asymmetry_Pilot,2022.1.3,Win32,60.00960154,62c50e9c1127f2cd403a315f,,,,,,,,,,,,,,,,,,,,,,,,,,,,,,,,,,,,,,,,,,,,,,,,,,,,,,,,,,,,,,,,,,,,,,,,,,,,,,,,,,,,,,,,,,,,,,,,,,,,,,,,,,,,,,,,,,,,,,,,,,,,,,,,,,,,,,,,,,,,,,,,,,,,,,,,,,,,,,,,,,,
0,56,56,59,1,,60bff62d82d796cabcf1958e,62c53958a74ca2e5baf2d362,2022-07-06_24h29.12.113,Colour_Asymmetry_Pilot,2022.1.3,Win32,60.00960154,62c50e9c1127f2cd403a315f,,,,,,,,,,,,,,,,,,,,,,,,,,,,,,,,,,,,,,,,,,,,,,,,,,,,,,,,,,,,,,,,,,,,,,,,,,,,,,,,,,,,,,,,,,,,,,,,,,,,,,,,,,,,,,,,,,,,,,,,,,,,,,,,,,,,,,,,,,,,,,,,,,,,,,,,,,,,,,,,,,,
0,57,57,65,1,,60bff62d82d796cabcf1958e,62c53958a74ca2e5baf2d362,2022-07-06_24h29.12.113,Colour_Asymmetry_Pilot,2022.1.3,Win32,60.00960154,62c50e9c1127f2cd403a315f,,,,,,,,,,,,,,,,,,,,,,,,,,,,,,,,,,,,,,,,,,,,,,,,,,,,,,,,,,,,,,,,,,,,,,,,,,,,,,,,,,,,,,,,,,,,,,,,,,,,,,,,,,,,,,,,,,,,,,,,,,,,,,,,,,,,,,,,,,,,,,,,,,,,,,,,,,,,,,,,,,,
0,58,58,44,1,,60bff62d82d796cabcf1958e,62c53958a74ca2e5baf2d362,2022-07-06_24h29.12.113,Colour_Asymmetry_Pilot,2022.1.3,Win32,60.00960154,62c50e9c1127f2cd403a315f,,,,,,,,,,,,,,,,,,,,,,,,,,,,,,,,,,,,,,,,,,,,,,,,,,,,,,,,,,,,,,,,,,,,,,,,,,,,,,,,,,,,,,,,,,,,,,,,,,,,,,,,,,,,,,,,,,,,,,,,,,,,,,,,,,,,,,,,,,,,,,,,,,,,,,,,,,,,,,,,,,,
0,59,59,66,1,,60bff62d82d796cabcf1958e,62c53958a74ca2e5baf2d362,2022-07-06_24h29.12.113,Colour_Asymmetry_Pilot,2022.1.3,Win32,60.00960154,62c50e9c1127f2cd403a315f,,,,,,,,,,,,,,,,,,,,,,,,,,,,,,,,,,,,,,,,,,,,,,,,,,,,,,,,,,,,,,,,,,,,,,,,,,,,,,,,,,,,,,,,,,,,,,,,,,,,,,,,,,,,,,,,,,,,,,,,,,,,,,,,,,,,,,,,,,,,,,,,,,,,,,,,,,,,,,,,,,,
0,60,60,86,1,,60bff62d82d796cabcf1958e,62c53958a74ca2e5baf2d362,2022-07-06_24h29.12.113,Colour_Asymmetry_Pilot,2022.1.3,Win32,60.00960154,62c50e9c1127f2cd403a315f,,,,,,,,,,,,,,,,,,,,,,,,,,,,,,,,,,,,,,,,,,,,,,,,,,,,,,,,,,,,,,,,,,,,,,,,,,,,,,,,,,,,,,,,,,,,,,,,,,,,,,,,,,,,,,,,,,,,,,,,,,,,,,,,,,,,,,,,,,,,,,,,,,,,,,,,,,,,,,,,,,,
0,61,61,38,1,,60bff62d82d796cabcf1958e,62c53958a74ca2e5baf2d362,2022-07-06_24h29.12.113,Colour_Asymmetry_Pilot,2022.1.3,Win32,60.00960154,62c50e9c1127f2cd403a315f,,,,,,,,,,,,,,,,,,,,,,,,,,,,,,,,,,,,,,,,,,,,,,,,,,,,,,,,,,,,,,,,,,,,,,,,,,,,,,,,,,,,,,,,,,,,,,,,,,,,,,,,,,,,,,,,,,,,,,,,,,,,,,,,,,,,,,,,,,,,,,,,,,,,,,,,,,,,,,,,,,,
0,62,62,92,1,,60bff62d82d796cabcf1958e,62c53958a74ca2e5baf2d362,2022-07-06_24h29.12.113,Colour_Asymmetry_Pilot,2022.1.3,Win32,60.00960154,62c50e9c1127f2cd403a315f,,,,,,,,,,,,,,,,,,,,,,,,,,,,,,,,,,,,,,,,,,,,,,,,,,,,,,,,,,,,,,,,,,,,,,,,,,,,,,,,,,,,,,,,,,,,,,,,,,,,,,,,,,,,,,,,,,,,,,,,,,,,,,,,,,,,,,,,,,,,,,,,,,,,,,,,,,,,,,,,,,,
0,63,63,74,1,,60bff62d82d796cabcf1958e,62c53958a74ca2e5baf2d362,2022-07-06_24h29.12.113,Colour_Asymmetry_Pilot,2022.1.3,Win32,60.00960154,62c50e9c1127f2cd403a315f,,,,,,,,,,,,,,,,,,,,,,,,,,,,,,,,,,,,,,,,,,,,,,,,,,,,,,,,,,,,,,,,,,,,,,,,,,,,,,,,,,,,,,,,,,,,,,,,,,,,,,,,,,,,,,,,,,,,,,,,,,,,,,,,,,,,,,,,,,,,,,,,,,,,,,,,,,,,,,,,,,,
0,64,64,10,1,,60bff62d82d796cabcf1958e,62c53958a74ca2e5baf2d362,2022-07-06_24h29.12.113,Colour_Asymmetry_Pilot,2022.1.3,Win32,60.00960154,62c50e9c1127f2cd403a315f,,,,,,,,,,,,,,,,,,,,,,,,,,,,,,,,,,,,,,,,,,,,,,,,,,,,,,,,,,,,,,,,,,,,,,,,,,,,,,,,,,,,,,,,,,,,,,,,,,,,,,,,,,,,,,,,,,,,,,,,,,,,,,,,,,,,,,,,,,,,,,,,,,,,,,,,,,,,,,,,,,,
0,65,65,23,1,,60bff62d82d796cabcf1958e,62c53958a74ca2e5baf2d362,2022-07-06_24h29.12.113,Colour_Asymmetry_Pilot,2022.1.3,Win32,60.00960154,62c50e9c1127f2cd403a315f,,,,,,,,,,,,,,,,,,,,,,,,,,,,,,,,,,,,,,,,,,,,,,,,,,,,,,,,,,,,,,,,,,,,,,,,,,,,,,,,,,,,,,,,,,,,,,,,,,,,,,,,,,,,,,,,,,,,,,,,,,,,,,,,,,,,,,,,,,,,,,,,,,,,,,,,,,,,,,,,,,,
0,66,66,1,1,,60bff62d82d796cabcf1958e,62c53958a74ca2e5baf2d362,2022-07-06_24h29.12.113,Colour_Asymmetry_Pilot,2022.1.3,Win32,60.00960154,62c50e9c1127f2cd403a315f,,,,,,,,,,,,,,,,,,,,,,,,,,,,,,,,,,,,,,,,,,,,,,,,,,,,,,,,,,,,,,,,,,,,,,,,,,,,,,,,,,,,,,,,,,,,,,,,,,,,,,,,,,,,,,,,,,,,,,,,,,,,,,,,,,,,,,,,,,,,,,,,,,,,,,,,,,,,,,,,,,,
0,67,67,5,1,,60bff62d82d796cabcf1958e,62c53958a74ca2e5baf2d362,2022-07-06_24h29.12.113,Colour_Asymmetry_Pilot,2022.1.3,Win32,60.00960154,62c50e9c1127f2cd403a315f,,,,,,,,,,,,,,,,,,,,,,,,,,,,,,,,,,,,,,,,,,,,,,,,,,,,,,,,,,,,,,,,,,,,,,,,,,,,,,,,,,,,,,,,,,,,,,,,,,,,,,,,,,,,,,,,,,,,,,,,,,,,,,,,,,,,,,,,,,,,,,,,,,,,,,,,,,,,,,,,,,,
0,68,68,76,1,,60bff62d82d796cabcf1958e,62c53958a74ca2e5baf2d362,2022-07-06_24h29.12.113,Colour_Asymmetry_Pilot,2022.1.3,Win32,60.00960154,62c50e9c1127f2cd403a315f,,,,,,,,,,,,,,,,,,,,,,,,,,,,,,,,,,,,,,,,,,,,,,,,,,,,,,,,,,,,,,,,,,,,,,,,,,,,,,,,,,,,,,,,,,,,,,,,,,,,,,,,,,,,,,,,,,,,,,,,,,,,,,,,,,,,,,,,,,,,,,,,,,,,,,,,,,,,,,,,,,,
0,69,69,13,1,,60bff62d82d796cabcf1958e,62c53958a74ca2e5baf2d362,2022-07-06_24h29.12.113,Colour_Asymmetry_Pilot,2022.1.3,Win32,60.00960154,62c50e9c1127f2cd403a315f,,,,,,,,,,,,,,,,,,,,,,,,,,,,,,,,,,,,,,,,,,,,,,,,,,,,,,,,,,,,,,,,,,,,,,,,,,,,,,,,,,,,,,,,,,,,,,,,,,,,,,,,,,,,,,,,,,,,,,,,,,,,,,,,,,,,,,,,,,,,,,,,,,,,,,,,,,,,,,,,,,,
0,70,70,4,1,,60bff62d82d796cabcf1958e,62c53958a74ca2e5baf2d362,2022-07-06_24h29.12.113,Colour_Asymmetry_Pilot,2022.1.3,Win32,60.00960154,62c50e9c1127f2cd403a315f,,,,,,,,,,,,,,,,,,,,,,,,,,,,,,,,,,,,,,,,,,,,,,,,,,,,,,,,,,,,,,,,,,,,,,,,,,,,,,,,,,,,,,,,,,,,,,,,,,,,,,,,,,,,,,,,,,,,,,,,,,,,,,,,,,,,,,,,,,,,,,,,,,,,,,,,,,,,,,,,,,,
0,71,71,61,1,,60bff62d82d796cabcf1958e,62c53958a74ca2e5baf2d362,2022-07-06_24h29.12.113,Colour_Asymmetry_Pilot,2022.1.3,Win32,60.00960154,62c50e9c1127f2cd403a315f,,,,,,,,,,,,,,,,,,,,,,,,,,,,,,,,,,,,,,,,,,,,,,,,,,,,,,,,,,,,,,,,,,,,,,,,,,,,,,,,,,,,,,,,,,,,,,,,,,,,,,,,,,,,,,,,,,,,,,,,,,,,,,,,,,,,,,,,,,,,,,,,,,,,,,,,,,,,,,,,,,,
0,72,72,53,1,,60bff62d82d796cabcf1958e,62c53958a74ca2e5baf2d362,2022-07-06_24h29.12.113,Colour_Asymmetry_Pilot,2022.1.3,Win32,60.00960154,62c50e9c1127f2cd403a315f,,,,,,,,,,,,,,,,,,,,,,,,,,,,,,,,,,,,,,,,,,,,,,,,,,,,,,,,,,,,,,,,,,,,,,,,,,,,,,,,,,,,,,,,,,,,,,,,,,,,,,,,,,,,,,,,,,,,,,,,,,,,,,,,,,,,,,,,,,,,,,,,,,,,,,,,,,,,,,,,,,,
0,73,73,39,1,,60bff62d82d796cabcf1958e,62c53958a74ca2e5baf2d362,2022-07-06_24h29.12.113,Colour_Asymmetry_Pilot,2022.1.3,Win32,60.00960154,62c50e9c1127f2cd403a315f,,,,,,,,,,,,,,,,,,,,,,,,,,,,,,,,,,,,,,,,,,,,,,,,,,,,,,,,,,,,,,,,,,,,,,,,,,,,,,,,,,,,,,,,,,,,,,,,,,,,,,,,,,,,,,,,,,,,,,,,,,,,,,,,,,,,,,,,,,,,,,,,,,,,,,,,,,,,,,,,,,,
0,74,74,68,1,,60bff62d82d796cabcf1958e,62c53958a74ca2e5baf2d362,2022-07-06_24h29.12.113,Colour_Asymmetry_Pilot,2022.1.3,Win32,60.00960154,62c50e9c1127f2cd403a315f,,,,,,,,,,,,,,,,,,,,,,,,,,,,,,,,,,,,,,,,,,,,,,,,,,,,,,,,,,,,,,,,,,,,,,,,,,,,,,,,,,,,,,,,,,,,,,,,,,,,,,,,,,,,,,,,,,,,,,,,,,,,,,,,,,,,,,,,,,,,,,,,,,,,,,,,,,,,,,,,,,,
0,75,75,11,1,,60bff62d82d796cabcf1958e,62c53958a74ca2e5baf2d362,2022-07-06_24h29.12.113,Colour_Asymmetry_Pilot,2022.1.3,Win32,60.00960154,62c50e9c1127f2cd403a315f,,,,,,,,,,,,,,,,,,,,,,,,,,,,,,,,,,,,,,,,,,,,,,,,,,,,,,,,,,,,,,,,,,,,,,,,,,,,,,,,,,,,,,,,,,,,,,,,,,,,,,,,,,,,,,,,,,,,,,,,,,,,,,,,,,,,,,,,,,,,,,,,,,,,,,,,,,,,,,,,,,,
0,76,76,72,1,,60bff62d82d796cabcf1958e,62c53958a74ca2e5baf2d362,2022-07-06_24h29.12.113,Colour_Asymmetry_Pilot,2022.1.3,Win32,60.00960154,62c50e9c1127f2cd403a315f,,,,,,,,,,,,,,,,,,,,,,,,,,,,,,,,,,,,,,,,,,,,,,,,,,,,,,,,,,,,,,,,,,,,,,,,,,,,,,,,,,,,,,,,,,,,,,,,,,,,,,,,,,,,,,,,,,,,,,,,,,,,,,,,,,,,,,,,,,,,,,,,,,,,,,,,,,,,,,,,,,,
0,77,77,3,1,,60bff62d82d796cabcf1958e,62c53958a74ca2e5baf2d362,2022-07-06_24h29.12.113,Colour_Asymmetry_Pilot,2022.1.3,Win32,60.00960154,62c50e9c1127f2cd403a315f,,,,,,,,,,,,,,,,,,,,,,,,,,,,,,,,,,,,,,,,,,,,,,,,,,,,,,,,,,,,,,,,,,,,,,,,,,,,,,,,,,,,,,,,,,,,,,,,,,,,,,,,,,,,,,,,,,,,,,,,,,,,,,,,,,,,,,,,,,,,,,,,,,,,,,,,,,,,,,,,,,,
0,78,78,15,1,,60bff62d82d796cabcf1958e,62c53958a74ca2e5baf2d362,2022-07-06_24h29.12.113,Colour_Asymmetry_Pilot,2022.1.3,Win32,60.00960154,62c50e9c1127f2cd403a315f,,,,,,,,,,,,,,,,,,,,,,,,,,,,,,,,,,,,,,,,,,,,,,,,,,,,,,,,,,,,,,,,,,,,,,,,,,,,,,,,,,,,,,,,,,,,,,,,,,,,,,,,,,,,,,,,,,,,,,,,,,,,,,,,,,,,,,,,,,,,,,,,,,,,,,,,,,,,,,,,,,,
0,79,79,88,1,,60bff62d82d796cabcf1958e,62c53958a74ca2e5baf2d362,2022-07-06_24h29.12.113,Colour_Asymmetry_Pilot,2022.1.3,Win32,60.00960154,62c50e9c1127f2cd403a315f,,,,,,,,,,,,,,,,,,,,,,,,,,,,,,,,,,,,,,,,,,,,,,,,,,,,,,,,,,,,,,,,,,,,,,,,,,,,,,,,,,,,,,,,,,,,,,,,,,,,,,,,,,,,,,,,,,,,,,,,,,,,,,,,,,,,,,,,,,,,,,,,,,,,,,,,,,,,,,,,,,,
0,80,80,57,1,,60bff62d82d796cabcf1958e,62c53958a74ca2e5baf2d362,2022-07-06_24h29.12.113,Colour_Asymmetry_Pilot,2022.1.3,Win32,60.00960154,62c50e9c1127f2cd403a315f,,,,,,,,,,,,,,,,,,,,,,,,,,,,,,,,,,,,,,,,,,,,,,,,,,,,,,,,,,,,,,,,,,,,,,,,,,,,,,,,,,,,,,,,,,,,,,,,,,,,,,,,,,,,,,,,,,,,,,,,,,,,,,,,,,,,,,,,,,,,,,,,,,,,,,,,,,,,,,,,,,,
0,81,81,55,1,,60bff62d82d796cabcf1958e,62c53958a74ca2e5baf2d362,2022-07-06_24h29.12.113,Colour_Asymmetry_Pilot,2022.1.3,Win32,60.00960154,62c50e9c1127f2cd403a315f,,,,,,,,,,,,,,,,,,,,,,,,,,,,,,,,,,,,,,,,,,,,,,,,,,,,,,,,,,,,,,,,,,,,,,,,,,,,,,,,,,,,,,,,,,,,,,,,,,,,,,,,,,,,,,,,,,,,,,,,,,,,,,,,,,,,,,,,,,,,,,,,,,,,,,,,,,,,,,,,,,,
0,82,82,21,1,,60bff62d82d796cabcf1958e,62c53958a74ca2e5baf2d362,2022-07-06_24h29.12.113,Colour_Asymmetry_Pilot,2022.1.3,Win32,60.00960154,62c50e9c1127f2cd403a315f,,,,,,,,,,,,,,,,,,,,,,,,,,,,,,,,,,,,,,,,,,,,,,,,,,,,,,,,,,,,,,,,,,,,,,,,,,,,,,,,,,,,,,,,,,,,,,,,,,,,,,,,,,,,,,,,,,,,,,,,,,,,,,,,,,,,,,,,,,,,,,,,,,,,,,,,,,,,,,,,,,,
0,83,83,84,1,,60bff62d82d796cabcf1958e,62c53958a74ca2e5baf2d362,2022-07-06_24h29.12.113,Colour_Asymmetry_Pilot,2022.1.3,Win32,60.00960154,62c50e9c1127f2cd403a315f,,,,,,,,,,,,,,,,,,,,,,,,,,,,,,,,,,,,,,,,,,,,,,,,,,,,,,,,,,,,,,,,,,,,,,,,,,,,,,,,,,,,,,,,,,,,,,,,,,,,,,,,,,,,,,,,,,,,,,,,,,,,,,,,,,,,,,,,,,,,,,,,,,,,,,,,,,,,,,,,,,,
0,84,84,17,1,,60bff62d82d796cabcf1958e,62c53958a74ca2e5baf2d362,2022-07-06_24h29.12.113,Colour_Asymmetry_Pilot,2022.1.3,Win32,60.00960154,62c50e9c1127f2cd403a315f,,,,,,,,,,,,,,,,,,,,,,,,,,,,,,,,,,,,,,,,,,,,,,,,,,,,,,,,,,,,,,,,,,,,,,,,,,,,,,,,,,,,,,,,,,,,,,,,,,,,,,,,,,,,,,,,,,,,,,,,,,,,,,,,,,,,,,,,,,,,,,,,,,,,,,,,,,,,,,,,,,,
0,85,85,2,1,,60bff62d82d796cabcf1958e,62c53958a74ca2e5baf2d362,2022-07-06_24h29.12.113,Colour_Asymmetry_Pilot,2022.1.3,Win32,60.00960154,62c50e9c1127f2cd403a315f,,,,,,,,,,,,,,,,,,,,,,,,,,,,,,,,,,,,,,,,,,,,,,,,,,,,,,,,,,,,,,,,,,,,,,,,,,,,,,,,,,,,,,,,,,,,,,,,,,,,,,,,,,,,,,,,,,,,,,,,,,,,,,,,,,,,,,,,,,,,,,,,,,,,,,,,,,,,,,,,,,,
0,86,86,51,1,,60bff62d82d796cabcf1958e,62c53958a74ca2e5baf2d362,2022-07-06_24h29.12.113,Colour_Asymmetry_Pilot,2022.1.3,Win32,60.00960154,62c50e9c1127f2cd403a315f,,,,,,,,,,,,,,,,,,,,,,,,,,,,,,,,,,,,,,,,,,,,,,,,,,,,,,,,,,,,,,,,,,,,,,,,,,,,,,,,,,,,,,,,,,,,,,,,,,,,,,,,,,,,,,,,,,,,,,,,,,,,,,,,,,,,,,,,,,,,,,,,,,,,,,,,,,,,,,,,,,,
0,87,87,89,1,,60bff62d82d796cabcf1958e,62c53958a74ca2e5baf2d362,2022-07-06_24h29.12.113,Colour_Asymmetry_Pilot,2022.1.3,Win32,60.00960154,62c50e9c1127f2cd403a315f,,,,,,,,,,,,,,,,,,,,,,,,,,,,,,,,,,,,,,,,,,,,,,,,,,,,,,,,,,,,,,,,,,,,,,,,,,,,,,,,,,,,,,,,,,,,,,,,,,,,,,,,,,,,,,,,,,,,,,,,,,,,,,,,,,,,,,,,,,,,,,,,,,,,,,,,,,,,,,,,,,,
0,88,88,26,1,,60bff62d82d796cabcf1958e,62c53958a74ca2e5baf2d362,2022-07-06_24h29.12.113,Colour_Asymmetry_Pilot,2022.1.3,Win32,60.00960154,62c50e9c1127f2cd403a315f,,,,,,,,,,,,,,,,,,,,,,,,,,,,,,,,,,,,,,,,,,,,,,,,,,,,,,,,,,,,,,,,,,,,,,,,,,,,,,,,,,,,,,,,,,,,,,,,,,,,,,,,,,,,,,,,,,,,,,,,,,,,,,,,,,,,,,,,,,,,,,,,,,,,,,,,,,,,,,,,,,,
0,89,89,90,1,,60bff62d82d796cabcf1958e,62c53958a74ca2e5baf2d362,2022-07-06_24h29.12.113,Colour_Asymmetry_Pilot,2022.1.3,Win32,60.00960154,62c50e9c1127f2cd403a315f,,,,,,,,,,,,,,,,,,,,,,,,,,,,,,,,,,,,,,,,,,,,,,,,,,,,,,,,,,,,,,,,,,,,,,,,,,,,,,,,,,,,,,,,,,,,,,,,,,,,,,,,,,,,,,,,,,,,,,,,,,,,,,,,,,,,,,,,,,,,,,,,,,,,,,,,,,,,,,,,,,,
0,90,90,67,1,,60bff62d82d796cabcf1958e,62c53958a74ca2e5baf2d362,2022-07-06_24h29.12.113,Colour_Asymmetry_Pilot,2022.1.3,Win32,60.00960154,62c50e9c1127f2cd403a315f,,,,,,,,,,,,,,,,,,,,,,,,,,,,,,,,,,,,,,,,,,,,,,,,,,,,,,,,,,,,,,,,,,,,,,,,,,,,,,,,,,,,,,,,,,,,,,,,,,,,,,,,,,,,,,,,,,,,,,,,,,,,,,,,,,,,,,,,,,,,,,,,,,,,,,,,,,,,,,,,,,,
0,91,91,46,1,,60bff62d82d796cabcf1958e,62c53958a74ca2e5baf2d362,2022-07-06_24h29.12.113,Colour_Asymmetry_Pilot,2022.1.3,Win32,60.00960154,62c50e9c1127f2cd403a315f,,,,,,,,,,,,,,,,,,,,,,,,,,,,,,,,,,,,,,,,,,,,,,,,,,,,,,,,,,,,,,,,,,,,,,,,,,,,,,,,,,,,,,,,,,,,,,,,,,,,,,,,,,,,,,,,,,,,,,,,,,,,,,,,,,,,,,,,,,,,,,,,,,,,,,,,,,,,,,,,,,,
0,92,92,82,1,,60bff62d82d796cabcf1958e,62c53958a74ca2e5baf2d362,2022-07-06_24h29.12.113,Colour_Asymmetry_Pilot,2022.1.3,Win32,60.00960154,62c50e9c1127f2cd403a315f,,,,,,,,,,,,,,,,,,,,,,,,,,,,,,,,,,,,,,,,,,,,,,,,,,,,,,,,,,,,,,,,,,,,,,,,,,,,,,,,,,,,,,,,,,,,,,,,,,,,,,,,,,,,,,,,,,,,,,,,,,,,,,,,,,,,,,,,,,,,,,,,,,,,,,,,,,,,,,,,,,,
,,,,,,60bff62d82d796cabcf1958e,62c53958a74ca2e5baf2d362,2022-07-06_24h29.12.113,Colour_Asymmetry_Pilot,2022.1.3,Win32,60.00960154,62c50e9c1127f2cd403a315f,0,0,0,152,1,onetwo,,,,,,,,,,,,,,,,,,,,,,,,,,,,,,,,,,,,,,,,,,,,,,,,,,,,,,,,,,,,,,,,,,,,,,,,,,,,,,,,,,,,,,,,,,,,,,,,,,,,,,,,,,,,,,,,,,,,,,,,,,,,,,,,,,,,,,,,,,,,,,,,,,,,,,,,,,,,,
,,,,,,60bff62d82d796cabcf1958e,62c53958a74ca2e5baf2d362,2022-07-06_24h29.12.113,Colour_Asymmetry_Pilot,2022.1.3,Win32,60.00960154,62c50e9c1127f2cd403a315f,0,1,1,104,1,onetwo,,,,,,,,,,,,,,,,,,,,,,,,,,,,,,,,,,,,,,,,,,,,,,,,,,,,,,,,,,,,,,,,,,,,,,,,,,,,,,,,,,,,,,,,,,,,,,,,,,,,,,,,,,,,,,,,,,,,,,,,,,,,,,,,,,,,,,,,,,,,,,,,,,,,,,,,,,,,,
,,,,,,60bff62d82d796cabcf1958e,62c53958a74ca2e5baf2d362,2022-07-06_24h29.12.113,Colour_Asymmetry_Pilot,2022.1.3,Win32,60.00960154,62c50e9c1127f2cd403a315f,0,2,2,141,1,threefour,,,,,,,,,,,,,,,,,,,,,,,,,,,,,,,,,,,,,,,,,,,,,,,,,,,,,,,,,,,,,,,,,,,,,,,,,,,,,,,,,,,,,,,,,,,,,,,,,,,,,,,,,,,,,,,,,,,,,,,,,,,,,,,,,,,,,,,,,,,,,,,,,,,,,,,,,,,,,
,,,,,,60bff62d82d796cabcf1958e,62c53958a74ca2e5baf2d362,2022-07-06_24h29.12.113,Colour_Asymmetry_Pilot,2022.1.3,Win32,60.00960154,62c50e9c1127f2cd403a315f,0,3,3,80,1,onetwo,,,,,,,,,,,,,,,,,,,,,,,,,,,,,,,,,,,,,,,,,,,,,,,,,,,,,,,,,,,,,,,,,,,,,,,,,,,,,,,,,,,,,,,,,,,,,,,,,,,,,,,,,,,,,,,,,,,,,,,,,,,,,,,,,,,,,,,,,,,,,,,,,,,,,,,,,,,,,
,,,,,,60bff62d82d796cabcf1958e,62c53958a74ca2e5baf2d362,2022-07-06_24h29.12.113,Colour_Asymmetry_Pilot,2022.1.3,Win32,60.00960154,62c50e9c1127f2cd403a315f,0,4,4,73,1,onethree,,,,,,,,,,,,,,,,,,,,,,,,,,,,,,,,,,,,,,,,,,,,,,,,,,,,,,,,,,,,,,,,,,,,,,,,,,,,,,,,,,,,,,,,,,,,,,,,,,,,,,,,,,,,,,,,,,,,,,,,,,,,,,,,,,,,,,,,,,,,,,,,,,,,,,,,,,,,,
,,,,,,60bff62d82d796cabcf1958e,62c53958a74ca2e5baf2d362,2022-07-06_24h29.12.113,Colour_Asymmetry_Pilot,2022.1.3,Win32,60.00960154,62c50e9c1127f2cd403a315f,0,5,5,121,1,onethree,,,,,,,,,,,,,,,,,,,,,,,,,,,,,,,,,,,,,,,,,,,,,,,,,,,,,,,,,,,,,,,,,,,,,,,,,,,,,,,,,,,,,,,,,,,,,,,,,,,,,,,,,,,,,,,,,,,,,,,,,,,,,,,,,,,,,,,,,,,,,,,,,,,,,,,,,,,,,
,,,,,,60bff62d82d796cabcf1958e,62c53958a74ca2e5baf2d362,2022-07-06_24h29.12.113,Colour_Asymmetry_Pilot,2022.1.3,Win32,60.00960154,62c50e9c1127f2cd403a315f,0,6,6,144,1,onetwo,,,,,,,,,,,,,,,,,,,,,,,,,,,,,,,,,,,,,,,,,,,,,,,,,,,,,,,,,,,,,,,,,,,,,,,,,,,,,,,,,,,,,,,,,,,,,,,,,,,,,,,,,,,,,,,,,,,,,,,,,,,,,,,,,,,,,,,,,,,,,,,,,,,,,,,,,,,,,
,,,,,,60bff62d82d796cabcf1958e,62c53958a74ca2e5baf2d362,2022-07-06_24h29.12.113,Colour_Asymmetry_Pilot,2022.1.3,Win32,60.00960154,62c50e9c1127f2cd403a315f,0,7,7,55,1,fourthree,,,,,,,,,,,,,,,,,,,,,,,,,,,,,,,,,,,,,,,,,,,,,,,,,,,,,,,,,,,,,,,,,,,,,,,,,,,,,,,,,,,,,,,,,,,,,,,,,,,,,,,,,,,,,,,,,,,,,,,,,,,,,,,,,,,,,,,,,,,,,,,,,,,,,,,,,,,,,
,,,,,,60bff62d82d796cabcf1958e,62c53958a74ca2e5baf2d362,2022-07-06_24h29.12.113,Colour_Asymmetry_Pilot,2022.1.3,Win32,60.00960154,62c50e9c1127f2cd403a315f,0,8,8,89,1,onethree,,,,,,,,,,,,,,,,,,,,,,,,,,,,,,,,,,,,,,,,,,,,,,,,,,,,,,,,,,,,,,,,,,,,,,,,,,,,,,,,,,,,,,,,,,,,,,,,,,,,,,,,,,,,,,,,,,,,,,,,,,,,,,,,,,,,,,,,,,,,,,,,,,,,,,,,,,,,,
,,,,,,60bff62d82d796cabcf1958e,62c53958a74ca2e5baf2d362,2022-07-06_24h29.12.113,Colour_Asymmetry_Pilot,2022.1.3,Win32,60.00960154,62c50e9c1127f2cd403a315f,0,9,9,30,1,fourtwo,,,,,,,,,,,,,,,,,,,,,,,,,,,,,,,,,,,,,,,,,,,,,,,,,,,,,,,,,,,,,,,,,,,,,,,,,,,,,,,,,,,,,,,,,,,,,,,,,,,,,,,,,,,,,,,,,,,,,,,,,,,,,,,,,,,,,,,,,,,,,,,,,,,,,,,,,,,,,
,,,,,,60bff62d82d796cabcf1958e,62c53958a74ca2e5baf2d362,2022-07-06_24h29.12.113,Colour_Asymmetry_Pilot,2022.1.3,Win32,60.00960154,62c50e9c1127f2cd403a315f,0,10,10,96,1,onetwo,,,,,,,,,,,,,,,,,,,,,,,,,,,,,,,,,,,,,,,,,,,,,,,,,,,,,,,,,,,,,,,,,,,,,,,,,,,,,,,,,,,,,,,,,,,,,,,,,,,,,,,,,,,,,,,,,,,,,,,,,,,,,,,,,,,,,,,,,,,,,,,,,,,,,,,,,,,,,
,,,,,,60bff62d82d796cabcf1958e,62c53958a74ca2e5baf2d362,2022-07-06_24h29.12.113,Colour_Asymmetry_Pilot,2022.1.3,Win32,60.00960154,62c50e9c1127f2cd403a315f,0,11,11,1,1,onethree,,,,,,,,,,,,,,,,,,,,,,,,,,,,,,,,,,,,,,,,,,,,,,,,,,,,,,,,,,,,,,,,,,,,,,,,,,,,,,,,,,,,,,,,,,,,,,,,,,,,,,,,,,,,,,,,,,,,,,,,,,,,,,,,,,,,,,,,,,,,,,,,,,,,,,,,,,,,,
,,,,,,60bff62d82d796cabcf1958e,62c53958a74ca2e5baf2d362,2022-07-06_24h29.12.113,Colour_Asymmetry_Pilot,2022.1.3,Win32,60.00960154,62c50e9c1127f2cd403a315f,0,12,12,81,1,onethree,,,,,,,,,,,,,,,,,,,,,,,,,,,,,,,,,,,,,,,,,,,,,,,,,,,,,,,,,,,,,,,,,,,,,,,,,,,,,,,,,,,,,,,,,,,,,,,,,,,,,,,,,,,,,,,,,,,,,,,,,,,,,,,,,,,,,,,,,,,,,,,,,,,,,,,,,,,,,
,,,,,,60bff62d82d796cabcf1958e,62c53958a74ca2e5baf2d362,2022-07-06_24h29.12.113,Colour_Asymmetry_Pilot,2022.1.3,Win32,60.00960154,62c50e9c1127f2cd403a315f,0,13,13,115,1,twofour,,,,,,,,,,,,,,,,,,,,,,,,,,,,,,,,,,,,,,,,,,,,,,,,,,,,,,,,,,,,,,,,,,,,,,,,,,,,,,,,,,,,,,,,,,,,,,,,,,,,,,,,,,,,,,,,,,,,,,,,,,,,,,,,,,,,,,,,,,,,,,,,,,,,,,,,,,,,,
,,,,,,60bff62d82d796cabcf1958e,62c53958a74ca2e5baf2d362,2022-07-06_24h29.12.113,Colour_Asymmetry_Pilot,2022.1.3,Win32,60.00960154,62c50e9c1127f2cd403a315f,0,14,14,63,1,fourthree,,,,,,,,,,,,,,,,,,,,,,,,,,,,,,,,,,,,,,,,,,,,,,,,,,,,,,,,,,,,,,,,,,,,,,,,,,,,,,,,,,,,,,,,,,,,,,,,,,,,,,,,,,,,,,,,,,,,,,,,,,,,,,,,,,,,,,,,,,,,,,,,,,,,,,,,,,,,,
,,,,,,60bff62d82d796cabcf1958e,62c53958a74ca2e5baf2d362,2022-07-06_24h29.12.113,Colour_Asymmetry_Pilot,2022.1.3,Win32,60.00960154,62c50e9c1127f2cd403a315f,0,15,15,28,1,threeone,,,,,,,,,,,,,,,,,,,,,,,,,,,,,,,,,,,,,,,,,,,,,,,,,,,,,,,,,,,,,,,,,,,,,,,,,,,,,,,,,,,,,,,,,,,,,,,,,,,,,,,,,,,,,,,,,,,,,,,,,,,,,,,,,,,,,,,,,,,,,,,,,,,,,,,,,,,,,
,,,,,,60bff62d82d796cabcf1958e,62c53958a74ca2e5baf2d362,2022-07-06_24h29.12.113,Colour_Asymmetry_Pilot,2022.1.3,Win32,60.00960154,62c50e9c1127f2cd403a315f,0,16,16,150,1,fourtwo,,,,,,,,,,,,,,,,,,,,,,,,,,,,,,,,,,,,,,,,,,,,,,,,,,,,,,,,,,,,,,,,,,,,,,,,,,,,,,,,,,,,,,,,,,,,,,,,,,,,,,,,,,,,,,,,,,,,,,,,,,,,,,,,,,,,,,,,,,,,,,,,,,,,,,,,,,,,,
,,,,,,60bff62d82d796cabcf1958e,62c53958a74ca2e5baf2d362,2022-07-06_24h29.12.113,Colour_Asymmetry_Pilot,2022.1.3,Win32,60.00960154,62c50e9c1127f2cd403a315f,0,17,17,41,1,onethree,,,,,,,,,,,,,,,,,,,,,,,,,,,,,,,,,,,,,,,,,,,,,,,,,,,,,,,,,,,,,,,,,,,,,,,,,,,,,,,,,,,,,,,,,,,,,,,,,,,,,,,,,,,,,,,,,,,,,,,,,,,,,,,,,,,,,,,,,,,,,,,,,,,,,,,,,,,,,
,,,,,,60bff62d82d796cabcf1958e,62c53958a74ca2e5baf2d362,2022-07-06_24h29.12.113,Colour_Asymmetry_Pilot,2022.1.3,Win32,60.00960154,62c50e9c1127f2cd403a315f,0,18,18,103,1,fourthree,,,,,,,,,,,,,,,,,,,,,,,,,,,,,,,,,,,,,,,,,,,,,,,,,,,,,,,,,,,,,,,,,,,,,,,,,,,,,,,,,,,,,,,,,,,,,,,,,,,,,,,,,,,,,,,,,,,,,,,,,,,,,,,,,,,,,,,,,,,,,,,,,,,,,,,,,,,,,
,,,,,,60bff62d82d796cabcf1958e,62c53958a74ca2e5baf2d362,2022-07-06_24h29.12.113,Colour_Asymmetry_Pilot,2022.1.3,Win32,60.00960154,62c50e9c1127f2cd403a315f,0,19,19,139,1,twofour,,,,,,,,,,,,,,,,,,,,,,,,,,,,,,,,,,,,,,,,,,,,,,,,,,,,,,,,,,,,,,,,,,,,,,,,,,,,,,,,,,,,,,,,,,,,,,,,,,,,,,,,,,,,,,,,,,,,,,,,,,,,,,,,,,,,,,,,,,,,,,,,,,,,,,,,,,,,,
,,,,,,60bff62d82d796cabcf1958e,62c53958a74ca2e5baf2d362,2022-07-06_24h29.12.113,Colour_Asymmetry_Pilot,2022.1.3,Win32,60.00960154,62c50e9c1127f2cd403a315f,0,20,20,151,1,fourthree,,,,,,,,,,,,,,,,,,,,,,,,,,,,,,,,,,,,,,,,,,,,,,,,,,,,,,,,,,,,,,,,,,,,,,,,,,,,,,,,,,,,,,,,,,,,,,,,,,,,,,,,,,,,,,,,,,,,,,,,,,,,,,,,,,,,,,,,,,,,,,,,,,,,,,,,,,,,,
,,,,,,60bff62d82d796cabcf1958e,62c53958a74ca2e5baf2d362,2022-07-06_24h29.12.113,Colour_Asymmetry_Pilot,2022.1.3,Win32,60.00960154,62c50e9c1127f2cd403a315f,0,21,21,38,1,fourtwo,,,,,,,,,,,,,,,,,,,,,,,,,,,,,,,,,,,,,,,,,,,,,,,,,,,,,,,,,,,,,,,,,,,,,,,,,,,,,,,,,,,,,,,,,,,,,,,,,,,,,,,,,,,,,,,,,,,,,,,,,,,,,,,,,,,,,,,,,,,,,,,,,,,,,,,,,,,,,
,,,,,,60bff62d82d796cabcf1958e,62c53958a74ca2e5baf2d362,2022-07-06_24h29.12.113,Colour_Asymmetry_Pilot,2022.1.3,Win32,60.00960154,62c50e9c1127f2cd403a315f,0,22,22,72,1,onetwo,,,,,,,,,,,,,,,,,,,,,,,,,,,,,,,,,,,,,,,,,,,,,,,,,,,,,,,,,,,,,,,,,,,,,,,,,,,,,,,,,,,,,,,,,,,,,,,,,,,,,,,,,,,,,,,,,,,,,,,,,,,,,,,,,,,,,,,,,,,,,,,,,,,,,,,,,,,,,
,,,,,,60bff62d82d796cabcf1958e,62c53958a74ca2e5baf2d362,2022-07-06_24h29.12.113,Colour_Asymmetry_Pilot,2022.1.3,Win32,60.00960154,62c50e9c1127f2cd403a315f,0,23,23,128,1,onetwo,,,,,,,,,,,,,,,,,,,,,,,,,,,,,,,,,,,,,,,,,,,,,,,,,,,,,,,,,,,,,,,,,,,,,,,,,,,,,,,,,,,,,,,,,,,,,,,,,,,,,,,,,,,,,,,,,,,,,,,,,,,,,,,,,,,,,,,,,,,,,,,,,,,,,,,,,,,,,
,,,,,,60bff62d82d796cabcf1958e,62c53958a74ca2e5baf2d362,2022-07-06_24h29.12.113,Colour_Asymmetry_Pilot,2022.1.3,Win32,60.00960154,62c50e9c1127f2cd403a315f,0,24,24,113,1,onethree,,,,,,,,,,,,,,,,,,,,,,,,,,,,,,,,,,,,,,,,,,,,,,,,,,,,,,,,,,,,,,,,,,,,,,,,,,,,,,,,,,,,,,,,,,,,,,,,,,,,,,,,,,,,,,,,,,,,,,,,,,,,,,,,,,,,,,,,,,,,,,,,,,,,,,,,,,,,,
,,,,,,60bff62d82d796cabcf1958e,62c53958a74ca2e5baf2d362,2022-07-06_24h29.12.113,Colour_Asymmetry_Pilot,2022.1.3,Win32,60.00960154,62c50e9c1127f2cd403a315f,0,25,25,148,1,threeone,,,,,,,,,,,,,,,,,,,,,,,,,,,,,,,,,,,,,,,,,,,,,,,,,,,,,,,,,,,,,,,,,,,,,,,,,,,,,,,,,,,,,,,,,,,,,,,,,,,,,,,,,,,,,,,,,,,,,,,,,,,,,,,,,,,,,,,,,,,,,,,,,,,,,,,,,,,,,
,,,,,,60bff62d82d796cabcf1958e,62c53958a74ca2e5baf2d362,2022-07-06_24h29.12.113,Colour_Asymmetry_Pilot,2022.1.3,Win32,60.00960154,62c50e9c1127f2cd403a315f,0,26,26,153,1,onethree,,,,,,,,,,,,,,,,,,,,,,,,,,,,,,,,,,,,,,,,,,,,,,,,,,,,,,,,,,,,,,,,,,,,,,,,,,,,,,,,,,,,,,,,,,,,,,,,,,,,,,,,,,,,,,,,,,,,,,,,,,,,,,,,,,,,,,,,,,,,,,,,,,,,,,,,,,,,,
,,,,,,60bff62d82d796cabcf1958e,62c53958a74ca2e5baf2d362,2022-07-06_24h29.12.113,Colour_Asymmetry_Pilot,2022.1.3,Win32,60.00960154,62c50e9c1127f2cd403a315f,0,27,27,56,1,onetwo,,,,,,,,,,,,,,,,,,,,,,,,,,,,,,,,,,,,,,,,,,,,,,,,,,,,,,,,,,,,,,,,,,,,,,,,,,,,,,,,,,,,,,,,,,,,,,,,,,,,,,,,,,,,,,,,,,,,,,,,,,,,,,,,,,,,,,,,,,,,,,,,,,,,,,,,,,,,,
,,,,,,60bff62d82d796cabcf1958e,62c53958a74ca2e5baf2d362,2022-07-06_24h29.12.113,Colour_Asymmetry_Pilot,2022.1.3,Win32,60.00960154,62c50e9c1127f2cd403a315f,0,28,28,129,1,onethree,,,,,,,,,,,,,,,,,,,,,,,,,,,,,,,,,,,,,,,,,,,,,,,,,,,,,,,,,,,,,,,,,,,,,,,,,,,,,,,,,,,,,,,,,,,,,,,,,,,,,,,,,,,,,,,,,,,,,,,,,,,,,,,,,,,,,,,,,,,,,,,,,,,,,,,,,,,,,
,,,,,,60bff62d82d796cabcf1958e,62c53958a74ca2e5baf2d362,2022-07-06_24h29.12.113,Colour_Asymmetry_Pilot,2022.1.3,Win32,60.00960154,62c50e9c1127f2cd403a315f,0,29,29,120,1,onetwo,,,,,,,,,,,,,,,,,,,,,,,,,,,,,,,,,,,,,,,,,,,,,,,,,,,,,,,,,,,,,,,,,,,,,,,,,,,,,,,,,,,,,,,,,,,,,,,,,,,,,,,,,,,,,,,,,,,,,,,,,,,,,,,,,,,,,,,,,,,,,,,,,,,,,,,,,,,,,
,,,,,,60bff62d82d796cabcf1958e,62c53958a74ca2e5baf2d362,2022-07-06_24h29.12.113,Colour_Asymmetry_Pilot,2022.1.3,Win32,60.00960154,62c50e9c1127f2cd403a315f,0,30,30,48,1,onetwo,,,,,,,,,,,,,,,,,,,,,,,,,,,,,,,,,,,,,,,,,,,,,,,,,,,,,,,,,,,,,,,,,,,,,,,,,,,,,,,,,,,,,,,,,,,,,,,,,,,,,,,,,,,,,,,,,,,,,,,,,,,,,,,,,,,,,,,,,,,,,,,,,,,,,,,,,,,,,
,,,,,,60bff62d82d796cabcf1958e,62c53958a74ca2e5baf2d362,2022-07-06_24h29.12.113,Colour_Asymmetry_Pilot,2022.1.3,Win32,60.00960154,62c50e9c1127f2cd403a315f,0,31,31,50,1,twoone,,,,,,,,,,,,,,,,,,,,,,,,,,,,,,,,,,,,,,,,,,,,,,,,,,,,,,,,,,,,,,,,,,,,,,,,,,,,,,,,,,,,,,,,,,,,,,,,,,,,,,,,,,,,,,,,,,,,,,,,,,,,,,,,,,,,,,,,,,,,,,,,,,,,,,,,,,,,,
,,,,,,60bff62d82d796cabcf1958e,62c53958a74ca2e5baf2d362,2022-07-06_24h29.12.113,Colour_Asymmetry_Pilot,2022.1.3,Win32,60.00960154,62c50e9c1127f2cd403a315f,0,32,32,29,1,threefour,,,,,,,,,,,,,,,,,,,,,,,,,,,,,,,,,,,,,,,,,,,,,,,,,,,,,,,,,,,,,,,,,,,,,,,,,,,,,,,,,,,,,,,,,,,,,,,,,,,,,,,,,,,,,,,,,,,,,,,,,,,,,,,,,,,,,,,,,,,,,,,,,,,,,,,,,,,,,
,,,,,,60bff62d82d796cabcf1958e,62c53958a74ca2e5baf2d362,2022-07-06_24h29.12.113,Colour_Asymmetry_Pilot,2022.1.3,Win32,60.00960154,62c50e9c1127f2cd403a315f,0,33,33,27,1,twofour,,,,,,,,,,,,,,,,,,,,,,,,,,,,,,,,,,,,,,,,,,,,,,,,,,,,,,,,,,,,,,,,,,,,,,,,,,,,,,,,,,,,,,,,,,,,,,,,,,,,,,,,,,,,,,,,,,,,,,,,,,,,,,,,,,,,,,,,,,,,,,,,,,,,,,,,,,,,,
,,,,,,60bff62d82d796cabcf1958e,62c53958a74ca2e5baf2d362,2022-07-06_24h29.12.113,Colour_Asymmetry_Pilot,2022.1.3,Win32,60.00960154,62c50e9c1127f2cd403a315f,0,34,34,146,1,twoone,,,,,,,,,,,,,,,,,,,,,,,,,,,,,,,,,,,,,,,,,,,,,,,,,,,,,,,,,,,,,,,,,,,,,,,,,,,,,,,,,,,,,,,,,,,,,,,,,,,,,,,,,,,,,,,,,,,,,,,,,,,,,,,,,,,,,,,,,,,,,,,,,,,,,,,,,,,,,
,,,,,,60bff62d82d796cabcf1958e,62c53958a74ca2e5baf2d362,2022-07-06_24h29.12.113,Colour_Asymmetry_Pilot,2022.1.3,Win32,60.00960154,62c50e9c1127f2cd403a315f,0,35,35,37,1,threefour,,,,,,,,,,,,,,,,,,,,,,,,,,,,,,,,,,,,,,,,,,,,,,,,,,,,,,,,,,,,,,,,,,,,,,,,,,,,,,,,,,,,,,,,,,,,,,,,,,,,,,,,,,,,,,,,,,,,,,,,,,,,,,,,,,,,,,,,,,,,,,,,,,,,,,,,,,,,,
,,,,,,60bff62d82d796cabcf1958e,62c53958a74ca2e5baf2d362,2022-07-06_24h29.12.113,Colour_Asymmetry_Pilot,2022.1.3,Win32,60.00960154,62c50e9c1127f2cd403a315f,0,36,36,0,1,onetwo,,,,,,,,,,,,,,,,,,,,,,,,,,,,,,,,,,,,,,,,,,,,,,,,,,,,,,,,,,,,,,,,,,,,,,,,,,,,,,,,,,,,,,,,,,,,,,,,,,,,,,,,,,,,,,,,,,,,,,,,,,,,,,,,,,,,,,,,,,,,,,,,,,,,,,,,,,,,,
,,,,,,60bff62d82d796cabcf1958e,62c53958a74ca2e5baf2d362,2022-07-06_24h29.12.113,Colour_Asymmetry_Pilot,2022.1.3,Win32,60.00960154,62c50e9c1127f2cd403a315f,0,37,37,117,1,threefour,,,,,,,,,,,,,,,,,,,,,,,,,,,,,,,,,,,,,,,,,,,,,,,,,,,,,,,,,,,,,,,,,,,,,,,,,,,,,,,,,,,,,,,,,,,,,,,,,,,,,,,,,,,,,,,,,,,,,,,,,,,,,,,,,,,,,,,,,,,,,,,,,,,,,,,,,,,,,
,,,,,,60bff62d82d796cabcf1958e,62c53958a74ca2e5baf2d362,2022-07-06_24h29.12.113,Colour_Asymmetry_Pilot,2022.1.3,Win32,60.00960154,62c50e9c1127f2cd403a315f,0,38,38,147,1,twofour,,,,,,,,,,,,,,,,,,,,,,,,,,,,,,,,,,,,,,,,,,,,,,,,,,,,,,,,,,,,,,,,,,,,,,,,,,,,,,,,,,,,,,,,,,,,,,,,,,,,,,,,,,,,,,,,,,,,,,,,,,,,,,,,,,,,,,,,,,,,,,,,,,,,,,,,,,,,,
,,,,,,60bff62d82d796cabcf1958e,62c53958a74ca2e5baf2d362,2022-07-06_24h29.12.113,Colour_Asymmetry_Pilot,2022.1.3,Win32,60.00960154,62c50e9c1127f2cd403a315f,0,39,39,130,1,twoone,,,,,,,,,,,,,,,,,,,,,,,,,,,,,,,,,,,,,,,,,,,,,,,,,,,,,,,,,,,,,,,,,,,,,,,,,,,,,,,,,,,,,,,,,,,,,,,,,,,,,,,,,,,,,,,,,,,,,,,,,,,,,,,,,,,,,,,,,,,,,,,,,,,,,,,,,,,,,
,,,,,,60bff62d82d796cabcf1958e,62c53958a74ca2e5baf2d362,2022-07-06_24h29.12.113,Colour_Asymmetry_Pilot,2022.1.3,Win32,60.00960154,62c50e9c1127f2cd403a315f,0,40,40,22,1,fourtwo,,,,,,,,,,,,,,,,,,,,,,,,,,,,,,,,,,,,,,,,,,,,,,,,,,,,,,,,,,,,,,,,,,,,,,,,,,,,,,,,,,,,,,,,,,,,,,,,,,,,,,,,,,,,,,,,,,,,,,,,,,,,,,,,,,,,,,,,,,,,,,,,,,,,,,,,,,,,,
,,,,,,60bff62d82d796cabcf1958e,62c53958a74ca2e5baf2d362,2022-07-06_24h29.12.113,Colour_Asymmetry_Pilot,2022.1.3,Win32,60.00960154,62c50e9c1127f2cd403a315f,0,41,41,25,1,onethree,,,,,,,,,,,,,,,,,,,,,,,,,,,,,,,,,,,,,,,,,,,,,,,,,,,,,,,,,,,,,,,,,,,,,,,,,,,,,,,,,,,,,,,,,,,,,,,,,,,,,,,,,,,,,,,,,,,,,,,,,,,,,,,,,,,,,,,,,,,,,,,,,,,,,,,,,,,,,
,,,,,,60bff62d82d796cabcf1958e,62c53958a74ca2e5baf2d362,2022-07-06_24h29.12.113,Colour_Asymmetry_Pilot,2022.1.3,Win32,60.00960154,62c50e9c1127f2cd403a315f,0,42,42,84,1,threeone,,,,,,,,,,,,,,,,,,,,,,,,,,,,,,,,,,,,,,,,,,,,,,,,,,,,,,,,,,,,,,,,,,,,,,,,,,,,,,,,,,,,,,,,,,,,,,,,,,,,,,,,,,,,,,,,,,,,,,,,,,,,,,,,,,,,,,,,,,,,,,,,,,,,,,,,,,,,,
,,,,,,60bff62d82d796cabcf1958e,62c53958a74ca2e5baf2d362,2022-07-06_24h29.12.113,Colour_Asymmetry_Pilot,2022.1.3,Win32,60.00960154,62c50e9c1127f2cd403a315f,0,43,43,131,1,twofour,,,,,,,,,,,,,,,,,,,,,,,,,,,,,,,,,,,,,,,,,,,,,,,,,,,,,,,,,,,,,,,,,,,,,,,,,,,,,,,,,,,,,,,,,,,,,,,,,,,,,,,,,,,,,,,,,,,,,,,,,,,,,,,,,,,,,,,,,,,,,,,,,,,,,,,,,,,,,
,,,,,,60bff62d82d796cabcf1958e,62c53958a74ca2e5baf2d362,2022-07-06_24h29.12.113,Colour_Asymmetry_Pilot,2022.1.3,Win32,60.00960154,62c50e9c1127f2cd403a315f,0,44,44,2,1,twoone,,,,,,,,,,,,,,,,,,,,,,,,,,,,,,,,,,,,,,,,,,,,,,,,,,,,,,,,,,,,,,,,,,,,,,,,,,,,,,,,,,,,,,,,,,,,,,,,,,,,,,,,,,,,,,,,,,,,,,,,,,,,,,,,,,,,,,,,,,,,,,,,,,,,,,,,,,,,,
,,,,,,60bff62d82d796cabcf1958e,62c53958a74ca2e5baf2d362,2022-07-06_24h29.12.113,Colour_Asymmetry_Pilot,2022.1.3,Win32,60.00960154,62c50e9c1127f2cd403a315f,0,45,45,18,1,twoone,,,,,,,,,,,,,,,,,,,,,,,,,,,,,,,,,,,,,,,,,,,,,,,,,,,,,,,,,,,,,,,,,,,,,,,,,,,,,,,,,,,,,,,,,,,,,,,,,,,,,,,,,,,,,,,,,,,,,,,,,,,,,,,,,,,,,,,,,,,,,,,,,,,,,,,,,,,,,
,,,,,,60bff62d82d796cabcf1958e,62c53958a74ca2e5baf2d362,2022-07-06_24h29.12.113,Colour_Asymmetry_Pilot,2022.1.3,Win32,60.00960154,62c50e9c1127f2cd403a315f,0,46,46,108,1,threeone,,,,,,,,,,,,,,,,,,,,,,,,,,,,,,,,,,,,,,,,,,,,,,,,,,,,,,,,,,,,,,,,,,,,,,,,,,,,,,,,,,,,,,,,,,,,,,,,,,,,,,,,,,,,,,,,,,,,,,,,,,,,,,,,,,,,,,,,,,,,,,,,,,,,,,,,,,,,,
,,,,,,60bff62d82d796cabcf1958e,62c53958a74ca2e5baf2d362,2022-07-06_24h29.12.113,Colour_Asymmetry_Pilot,2022.1.3,Win32,60.00960154,62c50e9c1127f2cd403a315f,0,47,47,87,1,fourthree,,,,,,,,,,,,,,,,,,,,,,,,,,,,,,,,,,,,,,,,,,,,,,,,,,,,,,,,,,,,,,,,,,,,,,,,,,,,,,,,,,,,,,,,,,,,,,,,,,,,,,,,,,,,,,,,,,,,,,,,,,,,,,,,,,,,,,,,,,,,,,,,,,,,,,,,,,,,,
,,,,,,60bff62d82d796cabcf1958e,62c53958a74ca2e5baf2d362,2022-07-06_24h29.12.113,Colour_Asymmetry_Pilot,2022.1.3,Win32,60.00960154,62c50e9c1127f2cd403a315f,0,48,48,20,1,threeone,,,,,,,,,,,,,,,,,,,,,,,,,,,,,,,,,,,,,,,,,,,,,,,,,,,,,,,,,,,,,,,,,,,,,,,,,,,,,,,,,,,,,,,,,,,,,,,,,,,,,,,,,,,,,,,,,,,,,,,,,,,,,,,,,,,,,,,,,,,,,,,,,,,,,,,,,,,,,
,,,,,,60bff62d82d796cabcf1958e,62c53958a74ca2e5baf2d362,2022-07-06_24h29.12.113,Colour_Asymmetry_Pilot,2022.1.3,Win32,60.00960154,62c50e9c1127f2cd403a315f,0,49,49,145,1,onethree,,,,,,,,,,,,,,,,,,,,,,,,,,,,,,,,,,,,,,,,,,,,,,,,,,,,,,,,,,,,,,,,,,,,,,,,,,,,,,,,,,,,,,,,,,,,,,,,,,,,,,,,,,,,,,,,,,,,,,,,,,,,,,,,,,,,,,,,,,,,,,,,,,,,,,,,,,,,,
,,,,,,60bff62d82d796cabcf1958e,62c53958a74ca2e5baf2d362,2022-07-06_24h29.12.113,Colour_Asymmetry_Pilot,2022.1.3,Win32,60.00960154,62c50e9c1127f2cd403a315f,0,50,50,140,1,threeone,,,,,,,,,,,,,,,,,,,,,,,,,,,,,,,,,,,,,,,,,,,,,,,,,,,,,,,,,,,,,,,,,,,,,,,,,,,,,,,,,,,,,,,,,,,,,,,,,,,,,,,,,,,,,,,,,,,,,,,,,,,,,,,,,,,,,,,,,,,,,,,,,,,,,,,,,,,,,
,,,,,,60bff62d82d796cabcf1958e,62c53958a74ca2e5baf2d362,2022-07-06_24h29.12.113,Colour_Asymmetry_Pilot,2022.1.3,Win32,60.00960154,62c50e9c1127f2cd403a315f,0,51,51,40,1,onetwo,,,,,,,,,,,,,,,,,,,,,,,,,,,,,,,,,,,,,,,,,,,,,,,,,,,,,,,,,,,,,,,,,,,,,,,,,,,,,,,,,,,,,,,,,,,,,,,,,,,,,,,,,,,,,,,,,,,,,,,,,,,,,,,,,,,,,,,,,,,,,,,,,,,,,,,,,,,,,
,,,,,,60bff62d82d796cabcf1958e,62c53958a74ca2e5baf2d362,2022-07-06_24h29.12.113,Colour_Asymmetry_Pilot,2022.1.3,Win32,60.00960154,62c50e9c1127f2cd403a315f,0,52,52,51,1,twofour,,,,,,,,,,,,,,,,,,,,,,,,,,,,,,,,,,,,,,,,,,,,,,,,,,,,,,,,,,,,,,,,,,,,,,,,,,,,,,,,,,,,,,,,,,,,,,,,,,,,,,,,,,,,,,,,,,,,,,,,,,,,,,,,,,,,,,,,,,,,,,,,,,,,,,,,,,,,,
,,,,,,60bff62d82d796cabcf1958e,62c53958a74ca2e5baf2d362,2022-07-06_24h29.12.113,Colour_Asymmetry_Pilot,2022.1.3,Win32,60.00960154,62c50e9c1127f2cd403a315f,0,53,53,135,1,fourthree,,,,,,,,,,,,,,,,,,,,,,,,,,,,,,,,,,,,,,,,,,,,,,,,,,,,,,,,,,,,,,,,,,,,,,,,,,,,,,,,,,,,,,,,,,,,,,,,,,,,,,,,,,,,,,,,,,,,,,,,,,,,,,,,,,,,,,,,,,,,,,,,,,,,,,,,,,,,,
,,,,,,60bff62d82d796cabcf1958e,62c53958a74ca2e5baf2d362,2022-07-06_24h29.12.113,Colour_Asymmetry_Pilot,2022.1.3,Win32,60.00960154,62c50e9c1127f2cd403a315f,0,54,54,7,1,fourthree,,,,,,,,,,,,,,,,,,,,,,,,,,,,,,,,,,,,,,,,,,,,,,,,,,,,,,,,,,,,,,,,,,,,,,,,,,,,,,,,,,,,,,,,,,,,,,,,,,,,,,,,,,,,,,,,,,,,,,,,,,,,,,,,,,,,,,,,,,,,,,,,,,,,,,,,,,,,,
,,,,,,60bff62d82d796cabcf1958e,62c53958a74ca2e5baf2d362,2022-07-06_24h29.12.113,Colour_Asymmetry_Pilot,2022.1.3,Win32,60.00960154,62c50e9c1127f2cd403a315f,0,55,55,17,1,onethree,,,,,,,,,,,,,,,,,,,,,,,,,,,,,,,,,,,,,,,,,,,,,,,,,,,,,,,,,,,,,,,,,,,,,,,,,,,,,,,,,,,,,,,,,,,,,,,,,,,,,,,,,,,,,,,,,,,,,,,,,,,,,,,,,,,,,,,,,,,,,,,,,,,,,,,,,,,,,
,,,,,,60bff62d82d796cabcf1958e,62c53958a74ca2e5baf2d362,2022-07-06_24h29.12.113,Colour_Asymmetry_Pilot,2022.1.3,Win32,60.00960154,62c50e9c1127f2cd403a315f,0,56,56,33,1,onethree,,,,,,,,,,,,,,,,,,,,,,,,,,,,,,,,,,,,,,,,,,,,,,,,,,,,,,,,,,,,,,,,,,,,,,,,,,,,,,,,,,,,,,,,,,,,,,,,,,,,,,,,,,,,,,,,,,,,,,,,,,,,,,,,,,,,,,,,,,,,,,,,,,,,,,,,,,,,,
,,,,,,60bff62d82d796cabcf1958e,62c53958a74ca2e5baf2d362,2022-07-06_24h29.12.113,Colour_Asymmetry_Pilot,2022.1.3,Win32,60.00960154,62c50e9c1127f2cd403a315f,0,57,57,111,1,fourthree,,,,,,,,,,,,,,,,,,,,,,,,,,,,,,,,,,,,,,,,,,,,,,,,,,,,,,,,,,,,,,,,,,,,,,,,,,,,,,,,,,,,,,,,,,,,,,,,,,,,,,,,,,,,,,,,,,,,,,,,,,,,,,,,,,,,,,,,,,,,,,,,,,,,,,,,,,,,,
,,,,,,60bff62d82d796cabcf1958e,62c53958a74ca2e5baf2d362,2022-07-06_24h29.12.113,Colour_Asymmetry_Pilot,2022.1.3,Win32,60.00960154,62c50e9c1127f2cd403a315f,0,58,58,77,1,threefour,,,,,,,,,,,,,,,,,,,,,,,,,,,,,,,,,,,,,,,,,,,,,,,,,,,,,,,,,,,,,,,,,,,,,,,,,,,,,,,,,,,,,,,,,,,,,,,,,,,,,,,,,,,,,,,,,,,,,,,,,,,,,,,,,,,,,,,,,,,,,,,,,,,,,,,,,,,,,
,,,,,,60bff62d82d796cabcf1958e,62c53958a74ca2e5baf2d362,2022-07-06_24h29.12.113,Colour_Asymmetry_Pilot,2022.1.3,Win32,60.00960154,62c50e9c1127f2cd403a315f,0,59,59,8,1,onetwo,,,,,,,,,,,,,,,,,,,,,,,,,,,,,,,,,,,,,,,,,,,,,,,,,,,,,,,,,,,,,,,,,,,,,,,,,,,,,,,,,,,,,,,,,,,,,,,,,,,,,,,,,,,,,,,,,,,,,,,,,,,,,,,,,,,,,,,,,,,,,,,,,,,,,,,,,,,,,
,,,,,,60bff62d82d796cabcf1958e,62c53958a74ca2e5baf2d362,2022-07-06_24h29.12.113,Colour_Asymmetry_Pilot,2022.1.3,Win32,60.00960154,62c50e9c1127f2cd403a315f,0,60,60,110,1,fourtwo,,,,,,,,,,,,,,,,,,,,,,,,,,,,,,,,,,,,,,,,,,,,,,,,,,,,,,,,,,,,,,,,,,,,,,,,,,,,,,,,,,,,,,,,,,,,,,,,,,,,,,,,,,,,,,,,,,,,,,,,,,,,,,,,,,,,,,,,,,,,,,,,,,,,,,,,,,,,,
,,,,,,60bff62d82d796cabcf1958e,62c53958a74ca2e5baf2d362,2022-07-06_24h29.12.113,Colour_Asymmetry_Pilot,2022.1.3,Win32,60.00960154,62c50e9c1127f2cd403a315f,0,61,61,112,1,onetwo,,,,,,,,,,,,,,,,,,,,,,,,,,,,,,,,,,,,,,,,,,,,,,,,,,,,,,,,,,,,,,,,,,,,,,,,,,,,,,,,,,,,,,,,,,,,,,,,,,,,,,,,,,,,,,,,,,,,,,,,,,,,,,,,,,,,,,,,,,,,,,,,,,,,,,,,,,,,,
,,,,,,60bff62d82d796cabcf1958e,62c53958a74ca2e5baf2d362,2022-07-06_24h29.12.113,Colour_Asymmetry_Pilot,2022.1.3,Win32,60.00960154,62c50e9c1127f2cd403a315f,0,62,62,68,1,threeone,,,,,,,,,,,,,,,,,,,,,,,,,,,,,,,,,,,,,,,,,,,,,,,,,,,,,,,,,,,,,,,,,,,,,,,,,,,,,,,,,,,,,,,,,,,,,,,,,,,,,,,,,,,,,,,,,,,,,,,,,,,,,,,,,,,,,,,,,,,,,,,,,,,,,,,,,,,,,
,,,,,,60bff62d82d796cabcf1958e,62c53958a74ca2e5baf2d362,2022-07-06_24h29.12.113,Colour_Asymmetry_Pilot,2022.1.3,Win32,60.00960154,62c50e9c1127f2cd403a315f,0,63,63,92,1,threeone,,,,,,,,,,,,,,,,,,,,,,,,,,,,,,,,,,,,,,,,,,,,,,,,,,,,,,,,,,,,,,,,,,,,,,,,,,,,,,,,,,,,,,,,,,,,,,,,,,,,,,,,,,,,,,,,,,,,,,,,,,,,,,,,,,,,,,,,,,,,,,,,,,,,,,,,,,,,,
,,,,,,60bff62d82d796cabcf1958e,62c53958a74ca2e5baf2d362,2022-07-06_24h29.12.113,Colour_Asymmetry_Pilot,2022.1.3,Win32,60.00960154,62c50e9c1127f2cd403a315f,0,64,64,88,1,onetwo,,,,,,,,,,,,,,,,,,,,,,,,,,,,,,,,,,,,,,,,,,,,,,,,,,,,,,,,,,,,,,,,,,,,,,,,,,,,,,,,,,,,,,,,,,,,,,,,,,,,,,,,,,,,,,,,,,,,,,,,,,,,,,,,,,,,,,,,,,,,,,,,,,,,,,,,,,,,,
,,,,,,60bff62d82d796cabcf1958e,62c53958a74ca2e5baf2d362,2022-07-06_24h29.12.113,Colour_Asymmetry_Pilot,2022.1.3,Win32,60.00960154,62c50e9c1127f2cd403a315f,0,65,65,39,1,fourthree,,,,,,,,,,,,,,,,,,,,,,,,,,,,,,,,,,,,,,,,,,,,,,,,,,,,,,,,,,,,,,,,,,,,,,,,,,,,,,,,,,,,,,,,,,,,,,,,,,,,,,,,,,,,,,,,,,,,,,,,,,,,,,,,,,,,,,,,,,,,,,,,,,,,,,,,,,,,,
,,,,,,60bff62d82d796cabcf1958e,62c53958a74ca2e5baf2d362,2022-07-06_24h29.12.113,Colour_Asymmetry_Pilot,2022.1.3,Win32,60.00960154,62c50e9c1127f2cd403a315f,0,66,66,85,1,threefour,,,,,,,,,,,,,,,,,,,,,,,,,,,,,,,,,,,,,,,,,,,,,,,,,,,,,,,,,,,,,,,,,,,,,,,,,,,,,,,,,,,,,,,,,,,,,,,,,,,,,,,,,,,,,,,,,,,,,,,,,,,,,,,,,,,,,,,,,,,,,,,,,,,,,,,,,,,,,
,,,,,,60bff62d82d796cabcf1958e,62c53958a74ca2e5baf2d362,2022-07-06_24h29.12.113,Colour_Asymmetry_Pilot,2022.1.3,Win32,60.00960154,62c50e9c1127f2cd403a315f,0,67,67,161,1,onethree,,,,,,,,,,,,,,,,,,,,,,,,,,,,,,,,,,,,,,,,,,,,,,,,,,,,,,,,,,,,,,,,,,,,,,,,,,,,,,,,,,,,,,,,,,,,,,,,,,,,,,,,,,,,,,,,,,,,,,,,,,,,,,,,,,,,,,,,,,,,,,,,,,,,,,,,,,,,,
,,,,,,60bff62d82d796cabcf1958e,62c53958a74ca2e5baf2d362,2022-07-06_24h29.12.113,Colour_Asymmetry_Pilot,2022.1.3,Win32,60.00960154,62c50e9c1127f2cd403a315f,0,68,68,46,1,fourtwo,,,,,,,,,,,,,,,,,,,,,,,,,,,,,,,,,,,,,,,,,,,,,,,,,,,,,,,,,,,,,,,,,,,,,,,,,,,,,,,,,,,,,,,,,,,,,,,,,,,,,,,,,,,,,,,,,,,,,,,,,,,,,,,,,,,,,,,,,,,,,,,,,,,,,,,,,,,,,
,,,,,,60bff62d82d796cabcf1958e,62c53958a74ca2e5baf2d362,2022-07-06_24h29.12.113,Colour_Asymmetry_Pilot,2022.1.3,Win32,60.00960154,62c50e9c1127f2cd403a315f,0,69,69,61,1,threefour,,,,,,,,,,,,,,,,,,,,,,,,,,,,,,,,,,,,,,,,,,,,,,,,,,,,,,,,,,,,,,,,,,,,,,,,,,,,,,,,,,,,,,,,,,,,,,,,,,,,,,,,,,,,,,,,,,,,,,,,,,,,,,,,,,,,,,,,,,,,,,,,,,,,,,,,,,,,,
,,,,,,60bff62d82d796cabcf1958e,62c53958a74ca2e5baf2d362,2022-07-06_24h29.12.113,Colour_Asymmetry_Pilot,2022.1.3,Win32,60.00960154,62c50e9c1127f2cd403a315f,0,70,70,155,1,twofour,,,,,,,,,,,,,,,,,,,,,,,,,,,,,,,,,,,,,,,,,,,,,,,,,,,,,,,,,,,,,,,,,,,,,,,,,,,,,,,,,,,,,,,,,,,,,,,,,,,,,,,,,,,,,,,,,,,,,,,,,,,,,,,,,,,,,,,,,,,,,,,,,,,,,,,,,,,,,
,,,,,,60bff62d82d796cabcf1958e,62c53958a74ca2e5baf2d362,2022-07-06_24h29.12.113,Colour_Asymmetry_Pilot,2022.1.3,Win32,60.00960154,62c50e9c1127f2cd403a315f,0,71,71,158,1,fourtwo,,,,,,,,,,,,,,,,,,,,,,,,,,,,,,,,,,,,,,,,,,,,,,,,,,,,,,,,,,,,,,,,,,,,,,,,,,,,,,,,,,,,,,,,,,,,,,,,,,,,,,,,,,,,,,,,,,,,,,,,,,,,,,,,,,,,,,,,,,,,,,,,,,,,,,,,,,,,,
,,,,,,60bff62d82d796cabcf1958e,62c53958a74ca2e5baf2d362,2022-07-06_24h29.12.113,Colour_Asymmetry_Pilot,2022.1.3,Win32,60.00960154,62c50e9c1127f2cd403a315f,0,72,72,43,1,twofour,,,,,,,,,,,,,,,,,,,,,,,,,,,,,,,,,,,,,,,,,,,,,,,,,,,,,,,,,,,,,,,,,,,,,,,,,,,,,,,,,,,,,,,,,,,,,,,,,,,,,,,,,,,,,,,,,,,,,,,,,,,,,,,,,,,,,,,,,,,,,,,,,,,,,,,,,,,,,
,,,,,,60bff62d82d796cabcf1958e,62c53958a74ca2e5baf2d362,2022-07-06_24h29.12.113,Colour_Asymmetry_Pilot,2022.1.3,Win32,60.00960154,62c50e9c1127f2cd403a315f,0,73,73,74,1,twoone,,,,,,,,,,,,,,,,,,,,,,,,,,,,,,,,,,,,,,,,,,,,,,,,,,,,,,,,,,,,,,,,,,,,,,,,,,,,,,,,,,,,,,,,,,,,,,,,,,,,,,,,,,,,,,,,,,,,,,,,,,,,,,,,,,,,,,,,,,,,,,,,,,,,,,,,,,,,,
,,,,,,60bff62d82d796cabcf1958e,62c53958a74ca2e5baf2d362,2022-07-06_24h29.12.113,Colour_Asymmetry_Pilot,2022.1.3,Win32,60.00960154,62c50e9c1127f2cd403a315f,0,74,74,75,1,twofour,,,,,,,,,,,,,,,,,,,,,,,,,,,,,,,,,,,,,,,,,,,,,,,,,,,,,,,,,,,,,,,,,,,,,,,,,,,,,,,,,,,,,,,,,,,,,,,,,,,,,,,,,,,,,,,,,,,,,,,,,,,,,,,,,,,,,,,,,,,,,,,,,,,,,,,,,,,,,
,,,,,,60bff62d82d796cabcf1958e,62c53958a74ca2e5baf2d362,2022-07-06_24h29.12.113,Colour_Asymmetry_Pilot,2022.1.3,Win32,60.00960154,62c50e9c1127f2cd403a315f,0,75,75,52,1,threeone,,,,,,,,,,,,,,,,,,,,,,,,,,,,,,,,,,,,,,,,,,,,,,,,,,,,,,,,,,,,,,,,,,,,,,,,,,,,,,,,,,,,,,,,,,,,,,,,,,,,,,,,,,,,,,,,,,,,,,,,,,,,,,,,,,,,,,,,,,,,,,,,,,,,,,,,,,,,,
,,,,,,60bff62d82d796cabcf1958e,62c53958a74ca2e5baf2d362,2022-07-06_24h29.12.113,Colour_Asymmetry_Pilot,2022.1.3,Win32,60.00960154,62c50e9c1127f2cd403a315f,0,76,76,11,1,twofour,,,,,,,,,,,,,,,,,,,,,,,,,,,,,,,,,,,,,,,,,,,,,,,,,,,,,,,,,,,,,,,,,,,,,,,,,,,,,,,,,,,,,,,,,,,,,,,,,,,,,,,,,,,,,,,,,,,,,,,,,,,,,,,,,,,,,,,,,,,,,,,,,,,,,,,,,,,,,
,,,,,,60bff62d82d796cabcf1958e,62c53958a74ca2e5baf2d362,2022-07-06_24h29.12.113,Colour_Asymmetry_Pilot,2022.1.3,Win32,60.00960154,62c50e9c1127f2cd403a315f,0,77,77,45,1,threefour,,,,,,,,,,,,,,,,,,,,,,,,,,,,,,,,,,,,,,,,,,,,,,,,,,,,,,,,,,,,,,,,,,,,,,,,,,,,,,,,,,,,,,,,,,,,,,,,,,,,,,,,,,,,,,,,,,,,,,,,,,,,,,,,,,,,,,,,,,,,,,,,,,,,,,,,,,,,,
,,,,,,60bff62d82d796cabcf1958e,62c53958a74ca2e5baf2d362,2022-07-06_24h29.12.113,Colour_Asymmetry_Pilot,2022.1.3,Win32,60.00960154,62c50e9c1127f2cd403a315f,0,78,78,24,1,onetwo,,,,,,,,,,,,,,,,,,,,,,,,,,,,,,,,,,,,,,,,,,,,,,,,,,,,,,,,,,,,,,,,,,,,,,,,,,,,,,,,,,,,,,,,,,,,,,,,,,,,,,,,,,,,,,,,,,,,,,,,,,,,,,,,,,,,,,,,,,,,,,,,,,,,,,,,,,,,,
,,,,,,60bff62d82d796cabcf1958e,62c53958a74ca2e5baf2d362,2022-07-06_24h29.12.113,Colour_Asymmetry_Pilot,2022.1.3,Win32,60.00960154,62c50e9c1127f2cd403a315f,0,79,79,116,1,threeone,,,,,,,,,,,,,,,,,,,,,,,,,,,,,,,,,,,,,,,,,,,,,,,,,,,,,,,,,,,,,,,,,,,,,,,,,,,,,,,,,,,,,,,,,,,,,,,,,,,,,,,,,,,,,,,,,,,,,,,,,,,,,,,,,,,,,,,,,,,,,,,,,,,,,,,,,,,,,
,,,,,,60bff62d82d796cabcf1958e,62c53958a74ca2e5baf2d362,2022-07-06_24h29.12.113,Colour_Asymmetry_Pilot,2022.1.3,Win32,60.00960154,62c50e9c1127f2cd403a315f,0,80,80,65,1,onethree,,,,,,,,,,,,,,,,,,,,,,,,,,,,,,,,,,,,,,,,,,,,,,,,,,,,,,,,,,,,,,,,,,,,,,,,,,,,,,,,,,,,,,,,,,,,,,,,,,,,,,,,,,,,,,,,,,,,,,,,,,,,,,,,,,,,,,,,,,,,,,,,,,,,,,,,,,,,,
,,,,,,60bff62d82d796cabcf1958e,62c53958a74ca2e5baf2d362,2022-07-06_24h29.12.113,Colour_Asymmetry_Pilot,2022.1.3,Win32,60.00960154,62c50e9c1127f2cd403a315f,0,81,81,106,1,twoone,,,,,,,,,,,,,,,,,,,,,,,,,,,,,,,,,,,,,,,,,,,,,,,,,,,,,,,,,,,,,,,,,,,,,,,,,,,,,,,,,,,,,,,,,,,,,,,,,,,,,,,,,,,,,,,,,,,,,,,,,,,,,,,,,,,,,,,,,,,,,,,,,,,,,,,,,,,,,
,,,,,,60bff62d82d796cabcf1958e,62c53958a74ca2e5baf2d362,2022-07-06_24h29.12.113,Colour_Asymmetry_Pilot,2022.1.3,Win32,60.00960154,62c50e9c1127f2cd403a315f,0,82,82,109,1,threefour,,,,,,,,,,,,,,,,,,,,,,,,,,,,,,,,,,,,,,,,,,,,,,,,,,,,,,,,,,,,,,,,,,,,,,,,,,,,,,,,,,,,,,,,,,,,,,,,,,,,,,,,,,,,,,,,,,,,,,,,,,,,,,,,,,,,,,,,,,,,,,,,,,,,,,,,,,,,,
,,,,,,60bff62d82d796cabcf1958e,62c53958a74ca2e5baf2d362,2022-07-06_24h29.12.113,Colour_Asymmetry_Pilot,2022.1.3,Win32,60.00960154,62c50e9c1127f2cd403a315f,0,83,83,79,1,fourthree,,,,,,,,,,,,,,,,,,,,,,,,,,,,,,,,,,,,,,,,,,,,,,,,,,,,,,,,,,,,,,,,,,,,,,,,,,,,,,,,,,,,,,,,,,,,,,,,,,,,,,,,,,,,,,,,,,,,,,,,,,,,,,,,,,,,,,,,,,,,,,,,,,,,,,,,,,,,,
,,,,,,60bff62d82d796cabcf1958e,62c53958a74ca2e5baf2d362,2022-07-06_24h29.12.113,Colour_Asymmetry_Pilot,2022.1.3,Win32,60.00960154,62c50e9c1127f2cd403a315f,0,84,84,107,1,twofour,,,,,,,,,,,,,,,,,,,,,,,,,,,,,,,,,,,,,,,,,,,,,,,,,,,,,,,,,,,,,,,,,,,,,,,,,,,,,,,,,,,,,,,,,,,,,,,,,,,,,,,,,,,,,,,,,,,,,,,,,,,,,,,,,,,,,,,,,,,,,,,,,,,,,,,,,,,,,
,,,,,,60bff62d82d796cabcf1958e,62c53958a74ca2e5baf2d362,2022-07-06_24h29.12.113,Colour_Asymmetry_Pilot,2022.1.3,Win32,60.00960154,62c50e9c1127f2cd403a315f,0,85,85,69,1,threefour,,,,,,,,,,,,,,,,,,,,,,,,,,,,,,,,,,,,,,,,,,,,,,,,,,,,,,,,,,,,,,,,,,,,,,,,,,,,,,,,,,,,,,,,,,,,,,,,,,,,,,,,,,,,,,,,,,,,,,,,,,,,,,,,,,,,,,,,,,,,,,,,,,,,,,,,,,,,,
,,,,,,60bff62d82d796cabcf1958e,62c53958a74ca2e5baf2d362,2022-07-06_24h29.12.113,Colour_Asymmetry_Pilot,2022.1.3,Win32,60.00960154,62c50e9c1127f2cd403a315f,0,86,86,83,1,twofour,,,,,,,,,,,,,,,,,,,,,,,,,,,,,,,,,,,,,,,,,,,,,,,,,,,,,,,,,,,,,,,,,,,,,,,,,,,,,,,,,,,,,,,,,,,,,,,,,,,,,,,,,,,,,,,,,,,,,,,,,,,,,,,,,,,,,,,,,,,,,,,,,,,,,,,,,,,,,
,,,,,,60bff62d82d796cabcf1958e,62c53958a74ca2e5baf2d362,2022-07-06_24h29.12.113,Colour_Asymmetry_Pilot,2022.1.3,Win32,60.00960154,62c50e9c1127f2cd403a315f,0,87,87,102,1,fourtwo,,,,,,,,,,,,,,,,,,,,,,,,,,,,,,,,,,,,,,,,,,,,,,,,,,,,,,,,,,,,,,,,,,,,,,,,,,,,,,,,,,,,,,,,,,,,,,,,,,,,,,,,,,,,,,,,,,,,,,,,,,,,,,,,,,,,,,,,,,,,,,,,,,,,,,,,,,,,,
,,,,,,60bff62d82d796cabcf1958e,62c53958a74ca2e5baf2d362,2022-07-06_24h29.12.113,Colour_Asymmetry_Pilot,2022.1.3,Win32,60.00960154,62c50e9c1127f2cd403a315f,0,88,88,70,1,fourtwo,,,,,,,,,,,,,,,,,,,,,,,,,,,,,,,,,,,,,,,,,,,,,,,,,,,,,,,,,,,,,,,,,,,,,,,,,,,,,,,,,,,,,,,,,,,,,,,,,,,,,,,,,,,,,,,,,,,,,,,,,,,,,,,,,,,,,,,,,,,,,,,,,,,,,,,,,,,,,
,,,,,,60bff62d82d796cabcf1958e,62c53958a74ca2e5baf2d362,2022-07-06_24h29.12.113,Colour_Asymmetry_Pilot,2022.1.3,Win32,60.00960154,62c50e9c1127f2cd403a315f,0,89,89,3,1,twofour,,,,,,,,,,,,,,,,,,,,,,,,,,,,,,,,,,,,,,,,,,,,,,,,,,,,,,,,,,,,,,,,,,,,,,,,,,,,,,,,,,,,,,,,,,,,,,,,,,,,,,,,,,,,,,,,,,,,,,,,,,,,,,,,,,,,,,,,,,,,,,,,,,,,,,,,,,,,,
,,,,,,60bff62d82d796cabcf1958e,62c53958a74ca2e5baf2d362,2022-07-06_24h29.12.113,Colour_Asymmetry_Pilot,2022.1.3,Win32,60.00960154,62c50e9c1127f2cd403a315f,0,90,90,9,1,onethree,,,,,,,,,,,,,,,,,,,,,,,,,,,,,,,,,,,,,,,,,,,,,,,,,,,,,,,,,,,,,,,,,,,,,,,,,,,,,,,,,,,,,,,,,,,,,,,,,,,,,,,,,,,,,,,,,,,,,,,,,,,,,,,,,,,,,,,,,,,,,,,,,,,,,,,,,,,,,
,,,,,,60bff62d82d796cabcf1958e,62c53958a74ca2e5baf2d362,2022-07-06_24h29.12.113,Colour_Asymmetry_Pilot,2022.1.3,Win32,60.00960154,62c50e9c1127f2cd403a315f,0,91,91,98,1,twoone,,,,,,,,,,,,,,,,,,,,,,,,,,,,,,,,,,,,,,,,,,,,,,,,,,,,,,,,,,,,,,,,,,,,,,,,,,,,,,,,,,,,,,,,,,,,,,,,,,,,,,,,,,,,,,,,,,,,,,,,,,,,,,,,,,,,,,,,,,,,,,,,,,,,,,,,,,,,,
,,,,,,60bff62d82d796cabcf1958e,62c53958a74ca2e5baf2d362,2022-07-06_24h29.12.113,Colour_Asymmetry_Pilot,2022.1.3,Win32,60.00960154,62c50e9c1127f2cd403a315f,0,92,92,105,1,onethree,,,,,,,,,,,,,,,,,,,,,,,,,,,,,,,,,,,,,,,,,,,,,,,,,,,,,,,,,,,,,,,,,,,,,,,,,,,,,,,,,,,,,,,,,,,,,,,,,,,,,,,,,,,,,,,,,,,,,,,,,,,,,,,,,,,,,,,,,,,,,,,,,,,,,,,,,,,,,
,,,,,,60bff62d82d796cabcf1958e,62c53958a74ca2e5baf2d362,2022-07-06_24h29.12.113,Colour_Asymmetry_Pilot,2022.1.3,Win32,60.00960154,62c50e9c1127f2cd403a315f,0,93,93,127,1,fourthree,,,,,,,,,,,,,,,,,,,,,,,,,,,,,,,,,,,,,,,,,,,,,,,,,,,,,,,,,,,,,,,,,,,,,,,,,,,,,,,,,,,,,,,,,,,,,,,,,,,,,,,,,,,,,,,,,,,,,,,,,,,,,,,,,,,,,,,,,,,,,,,,,,,,,,,,,,,,,
,,,,,,60bff62d82d796cabcf1958e,62c53958a74ca2e5baf2d362,2022-07-06_24h29.12.113,Colour_Asymmetry_Pilot,2022.1.3,Win32,60.00960154,62c50e9c1127f2cd403a315f,0,94,94,71,1,fourthree,,,,,,,,,,,,,,,,,,,,,,,,,,,,,,,,,,,,,,,,,,,,,,,,,,,,,,,,,,,,,,,,,,,,,,,,,,,,,,,,,,,,,,,,,,,,,,,,,,,,,,,,,,,,,,,,,,,,,,,,,,,,,,,,,,,,,,,,,,,,,,,,,,,,,,,,,,,,,
,,,,,,60bff62d82d796cabcf1958e,62c53958a74ca2e5baf2d362,2022-07-06_24h29.12.113,Colour_Asymmetry_Pilot,2022.1.3,Win32,60.00960154,62c50e9c1127f2cd403a315f,0,95,95,21,1,threefour,,,,,,,,,,,,,,,,,,,,,,,,,,,,,,,,,,,,,,,,,,,,,,,,,,,,,,,,,,,,,,,,,,,,,,,,,,,,,,,,,,,,,,,,,,,,,,,,,,,,,,,,,,,,,,,,,,,,,,,,,,,,,,,,,,,,,,,,,,,,,,,,,,,,,,,,,,,,,
,,,,,,60bff62d82d796cabcf1958e,62c53958a74ca2e5baf2d362,2022-07-06_24h29.12.113,Colour_Asymmetry_Pilot,2022.1.3,Win32,60.00960154,62c50e9c1127f2cd403a315f,0,96,96,49,1,onethree,,,,,,,,,,,,,,,,,,,,,,,,,,,,,,,,,,,,,,,,,,,,,,,,,,,,,,,,,,,,,,,,,,,,,,,,,,,,,,,,,,,,,,,,,,,,,,,,,,,,,,,,,,,,,,,,,,,,,,,,,,,,,,,,,,,,,,,,,,,,,,,,,,,,,,,,,,,,,
,,,,,,60bff62d82d796cabcf1958e,62c53958a74ca2e5baf2d362,2022-07-06_24h29.12.113,Colour_Asymmetry_Pilot,2022.1.3,Win32,60.00960154,62c50e9c1127f2cd403a315f,0,97,97,123,1,twofour,,,,,,,,,,,,,,,,,,,,,,,,,,,,,,,,,,,,,,,,,,,,,,,,,,,,,,,,,,,,,,,,,,,,,,,,,,,,,,,,,,,,,,,,,,,,,,,,,,,,,,,,,,,,,,,,,,,,,,,,,,,,,,,,,,,,,,,,,,,,,,,,,,,,,,,,,,,,,
,,,,,,60bff62d82d796cabcf1958e,62c53958a74ca2e5baf2d362,2022-07-06_24h29.12.113,Colour_Asymmetry_Pilot,2022.1.3,Win32,60.00960154,62c50e9c1127f2cd403a315f,0,98,98,125,1,threefour,,,,,,,,,,,,,,,,,,,,,,,,,,,,,,,,,,,,,,,,,,,,,,,,,,,,,,,,,,,,,,,,,,,,,,,,,,,,,,,,,,,,,,,,,,,,,,,,,,,,,,,,,,,,,,,,,,,,,,,,,,,,,,,,,,,,,,,,,,,,,,,,,,,,,,,,,,,,,
,,,,,,60bff62d82d796cabcf1958e,62c53958a74ca2e5baf2d362,2022-07-06_24h29.12.113,Colour_Asymmetry_Pilot,2022.1.3,Win32,60.00960154,62c50e9c1127f2cd403a315f,0,99,99,44,1,threeone,,,,,,,,,,,,,,,,,,,,,,,,,,,,,,,,,,,,,,,,,,,,,,,,,,,,,,,,,,,,,,,,,,,,,,,,,,,,,,,,,,,,,,,,,,,,,,,,,,,,,,,,,,,,,,,,,,,,,,,,,,,,,,,,,,,,,,,,,,,,,,,,,,,,,,,,,,,,,
,,,,,,60bff62d82d796cabcf1958e,62c53958a74ca2e5baf2d362,2022-07-06_24h29.12.113,Colour_Asymmetry_Pilot,2022.1.3,Win32,60.00960154,62c50e9c1127f2cd403a315f,0,100,100,13,1,threefour,,,,,,,,,,,,,,,,,,,,,,,,,,,,,,,,,,,,,,,,,,,,,,,,,,,,,,,,,,,,,,,,,,,,,,,,,,,,,,,,,,,,,,,,,,,,,,,,,,,,,,,,,,,,,,,,,,,,,,,,,,,,,,,,,,,,,,,,,,,,,,,,,,,,,,,,,,,,,
,,,,,,60bff62d82d796cabcf1958e,62c53958a74ca2e5baf2d362,2022-07-06_24h29.12.113,Colour_Asymmetry_Pilot,2022.1.3,Win32,60.00960154,62c50e9c1127f2cd403a315f,0,101,101,124,1,threeone,,,,,,,,,,,,,,,,,,,,,,,,,,,,,,,,,,,,,,,,,,,,,,,,,,,,,,,,,,,,,,,,,,,,,,,,,,,,,,,,,,,,,,,,,,,,,,,,,,,,,,,,,,,,,,,,,,,,,,,,,,,,,,,,,,,,,,,,,,,,,,,,,,,,,,,,,,,,,
,,,,,,60bff62d82d796cabcf1958e,62c53958a74ca2e5baf2d362,2022-07-06_24h29.12.113,Colour_Asymmetry_Pilot,2022.1.3,Win32,60.00960154,62c50e9c1127f2cd403a315f,0,102,102,137,1,onethree,,,,,,,,,,,,,,,,,,,,,,,,,,,,,,,,,,,,,,,,,,,,,,,,,,,,,,,,,,,,,,,,,,,,,,,,,,,,,,,,,,,,,,,,,,,,,,,,,,,,,,,,,,,,,,,,,,,,,,,,,,,,,,,,,,,,,,,,,,,,,,,,,,,,,,,,,,,,,
,,,,,,60bff62d82d796cabcf1958e,62c53958a74ca2e5baf2d362,2022-07-06_24h29.12.113,Colour_Asymmetry_Pilot,2022.1.3,Win32,60.00960154,62c50e9c1127f2cd403a315f,0,103,103,91,1,twofour,,,,,,,,,,,,,,,,,,,,,,,,,,,,,,,,,,,,,,,,,,,,,,,,,,,,,,,,,,,,,,,,,,,,,,,,,,,,,,,,,,,,,,,,,,,,,,,,,,,,,,,,,,,,,,,,,,,,,,,,,,,,,,,,,,,,,,,,,,,,,,,,,,,,,,,,,,,,,
,,,,,,60bff62d82d796cabcf1958e,62c53958a74ca2e5baf2d362,2022-07-06_24h29.12.113,Colour_Asymmetry_Pilot,2022.1.3,Win32,60.00960154,62c50e9c1127f2cd403a315f,0,104,104,35,1,twofour,,,,,,,,,,,,,,,,,,,,,,,,,,,,,,,,,,,,,,,,,,,,,,,,,,,,,,,,,,,,,,,,,,,,,,,,,,,,,,,,,,,,,,,,,,,,,,,,,,,,,,,,,,,,,,,,,,,,,,,,,,,,,,,,,,,,,,,,,,,,,,,,,,,,,,,,,,,,,
,,,,,,60bff62d82d796cabcf1958e,62c53958a74ca2e5baf2d362,2022-07-06_24h29.12.113,Colour_Asymmetry_Pilot,2022.1.3,Win32,60.00960154,62c50e9c1127f2cd403a315f,0,105,105,15,1,fourthree,,,,,,,,,,,,,,,,,,,,,,,,,,,,,,,,,,,,,,,,,,,,,,,,,,,,,,,,,,,,,,,,,,,,,,,,,,,,,,,,,,,,,,,,,,,,,,,,,,,,,,,,,,,,,,,,,,,,,,,,,,,,,,,,,,,,,,,,,,,,,,,,,,,,,,,,,,,,,
,,,,,,60bff62d82d796cabcf1958e,62c53958a74ca2e5baf2d362,2022-07-06_24h29.12.113,Colour_Asymmetry_Pilot,2022.1.3,Win32,60.00960154,62c50e9c1127f2cd403a315f,0,106,106,64,1,onetwo,,,,,,,,,,,,,,,,,,,,,,,,,,,,,,,,,,,,,,,,,,,,,,,,,,,,,,,,,,,,,,,,,,,,,,,,,,,,,,,,,,,,,,,,,,,,,,,,,,,,,,,,,,,,,,,,,,,,,,,,,,,,,,,,,,,,,,,,,,,,,,,,,,,,,,,,,,,,,
,,,,,,60bff62d82d796cabcf1958e,62c53958a74ca2e5baf2d362,2022-07-06_24h29.12.113,Colour_Asymmetry_Pilot,2022.1.3,Win32,60.00960154,62c50e9c1127f2cd403a315f,0,107,107,82,1,twoone,,,,,,,,,,,,,,,,,,,,,,,,,,,,,,,,,,,,,,,,,,,,,,,,,,,,,,,,,,,,,,,,,,,,,,,,,,,,,,,,,,,,,,,,,,,,,,,,,,,,,,,,,,,,,,,,,,,,,,,,,,,,,,,,,,,,,,,,,,,,,,,,,,,,,,,,,,,,,
,,,,,,60bff62d82d796cabcf1958e,62c53958a74ca2e5baf2d362,2022-07-06_24h29.12.113,Colour_Asymmetry_Pilot,2022.1.3,Win32,60.00960154,62c50e9c1127f2cd403a315f,0,108,108,23,1,fourthree,,,,,,,,,,,,,,,,,,,,,,,,,,,,,,,,,,,,,,,,,,,,,,,,,,,,,,,,,,,,,,,,,,,,,,,,,,,,,,,,,,,,,,,,,,,,,,,,,,,,,,,,,,,,,,,,,,,,,,,,,,,,,,,,,,,,,,,,,,,,,,,,,,,,,,,,,,,,,
,,,,,,60bff62d82d796cabcf1958e,62c53958a74ca2e5baf2d362,2022-07-06_24h29.12.113,Colour_Asymmetry_Pilot,2022.1.3,Win32,60.00960154,62c50e9c1127f2cd403a315f,0,109,109,100,1,threeone,,,,,,,,,,,,,,,,,,,,,,,,,,,,,,,,,,,,,,,,,,,,,,,,,,,,,,,,,,,,,,,,,,,,,,,,,,,,,,,,,,,,,,,,,,,,,,,,,,,,,,,,,,,,,,,,,,,,,,,,,,,,,,,,,,,,,,,,,,,,,,,,,,,,,,,,,,,,,
,,,,,,60bff62d82d796cabcf1958e,62c53958a74ca2e5baf2d362,2022-07-06_24h29.12.113,Colour_Asymmetry_Pilot,2022.1.3,Win32,60.00960154,62c50e9c1127f2cd403a315f,0,110,110,32,1,onetwo,,,,,,,,,,,,,,,,,,,,,,,,,,,,,,,,,,,,,,,,,,,,,,,,,,,,,,,,,,,,,,,,,,,,,,,,,,,,,,,,,,,,,,,,,,,,,,,,,,,,,,,,,,,,,,,,,,,,,,,,,,,,,,,,,,,,,,,,,,,,,,,,,,,,,,,,,,,,,
,,,,,,60bff62d82d796cabcf1958e,62c53958a74ca2e5baf2d362,2022-07-06_24h29.12.113,Colour_Asymmetry_Pilot,2022.1.3,Win32,60.00960154,62c50e9c1127f2cd403a315f,0,111,111,10,1,twoone,,,,,,,,,,,,,,,,,,,,,,,,,,,,,,,,,,,,,,,,,,,,,,,,,,,,,,,,,,,,,,,,,,,,,,,,,,,,,,,,,,,,,,,,,,,,,,,,,,,,,,,,,,,,,,,,,,,,,,,,,,,,,,,,,,,,,,,,,,,,,,,,,,,,,,,,,,,,,
,,,,,,60bff62d82d796cabcf1958e,62c53958a74ca2e5baf2d362,2022-07-06_24h29.12.113,Colour_Asymmetry_Pilot,2022.1.3,Win32,60.00960154,62c50e9c1127f2cd403a315f,0,112,112,149,1,threefour,,,,,,,,,,,,,,,,,,,,,,,,,,,,,,,,,,,,,,,,,,,,,,,,,,,,,,,,,,,,,,,,,,,,,,,,,,,,,,,,,,,,,,,,,,,,,,,,,,,,,,,,,,,,,,,,,,,,,,,,,,,,,,,,,,,,,,,,,,,,,,,,,,,,,,,,,,,,,
,,,,,,60bff62d82d796cabcf1958e,62c53958a74ca2e5baf2d362,2022-07-06_24h29.12.113,Colour_Asymmetry_Pilot,2022.1.3,Win32,60.00960154,62c50e9c1127f2cd403a315f,0,113,113,58,1,twoone,,,,,,,,,,,,,,,,,,,,,,,,,,,,,,,,,,,,,,,,,,,,,,,,,,,,,,,,,,,,,,,,,,,,,,,,,,,,,,,,,,,,,,,,,,,,,,,,,,,,,,,,,,,,,,,,,,,,,,,,,,,,,,,,,,,,,,,,,,,,,,,,,,,,,,,,,,,,,
,,,,,,60bff62d82d796cabcf1958e,62c53958a74ca2e5baf2d362,2022-07-06_24h29.12.113,Colour_Asymmetry_Pilot,2022.1.3,Win32,60.00960154,62c50e9c1127f2cd403a315f,0,114,114,36,1,threeone,,,,,,,,,,,,,,,,,,,,,,,,,,,,,,,,,,,,,,,,,,,,,,,,,,,,,,,,,,,,,,,,,,,,,,,,,,,,,,,,,,,,,,,,,,,,,,,,,,,,,,,,,,,,,,,,,,,,,,,,,,,,,,,,,,,,,,,,,,,,,,,,,,,,,,,,,,,,,
,,,,,,60bff62d82d796cabcf1958e,62c53958a74ca2e5baf2d362,2022-07-06_24h29.12.113,Colour_Asymmetry_Pilot,2022.1.3,Win32,60.00960154,62c50e9c1127f2cd403a315f,0,115,115,143,1,fourthree,,,,,,,,,,,,,,,,,,,,,,,,,,,,,,,,,,,,,,,,,,,,,,,,,,,,,,,,,,,,,,,,,,,,,,,,,,,,,,,,,,,,,,,,,,,,,,,,,,,,,,,,,,,,,,,,,,,,,,,,,,,,,,,,,,,,,,,,,,,,,,,,,,,,,,,,,,,,,
,,,,,,60bff62d82d796cabcf1958e,62c53958a74ca2e5baf2d362,2022-07-06_24h29.12.113,Colour_Asymmetry_Pilot,2022.1.3,Win32,60.00960154,62c50e9c1127f2cd403a315f,0,116,116,53,1,threefour,,,,,,,,,,,,,,,,,,,,,,,,,,,,,,,,,,,,,,,,,,,,,,,,,,,,,,,,,,,,,,,,,,,,,,,,,,,,,,,,,,,,,,,,,,,,,,,,,,,,,,,,,,,,,,,,,,,,,,,,,,,,,,,,,,,,,,,,,,,,,,,,,,,,,,,,,,,,,
,,,,,,60bff62d82d796cabcf1958e,62c53958a74ca2e5baf2d362,2022-07-06_24h29.12.113,Colour_Asymmetry_Pilot,2022.1.3,Win32,60.00960154,62c50e9c1127f2cd403a315f,0,117,117,31,1,fourthree,,,,,,,,,,,,,,,,,,,,,,,,,,,,,,,,,,,,,,,,,,,,,,,,,,,,,,,,,,,,,,,,,,,,,,,,,,,,,,,,,,,,,,,,,,,,,,,,,,,,,,,,,,,,,,,,,,,,,,,,,,,,,,,,,,,,,,,,,,,,,,,,,,,,,,,,,,,,,
,,,,,,60bff62d82d796cabcf1958e,62c53958a74ca2e5baf2d362,2022-07-06_24h29.12.113,Colour_Asymmetry_Pilot,2022.1.3,Win32,60.00960154,62c50e9c1127f2cd403a315f,0,118,118,134,1,fourtwo,,,,,,,,,,,,,,,,,,,,,,,,,,,,,,,,,,,,,,,,,,,,,,,,,,,,,,,,,,,,,,,,,,,,,,,,,,,,,,,,,,,,,,,,,,,,,,,,,,,,,,,,,,,,,,,,,,,,,,,,,,,,,,,,,,,,,,,,,,,,,,,,,,,,,,,,,,,,,
,,,,,,60bff62d82d796cabcf1958e,62c53958a74ca2e5baf2d362,2022-07-06_24h29.12.113,Colour_Asymmetry_Pilot,2022.1.3,Win32,60.00960154,62c50e9c1127f2cd403a315f,0,119,119,160,1,onetwo,,,,,,,,,,,,,,,,,,,,,,,,,,,,,,,,,,,,,,,,,,,,,,,,,,,,,,,,,,,,,,,,,,,,,,,,,,,,,,,,,,,,,,,,,,,,,,,,,,,,,,,,,,,,,,,,,,,,,,,,,,,,,,,,,,,,,,,,,,,,,,,,,,,,,,,,,,,,,
,,,,,,60bff62d82d796cabcf1958e,62c53958a74ca2e5baf2d362,2022-07-06_24h29.12.113,Colour_Asymmetry_Pilot,2022.1.3,Win32,60.00960154,62c50e9c1127f2cd403a315f,0,120,120,76,1,threeone,,,,,,,,,,,,,,,,,,,,,,,,,,,,,,,,,,,,,,,,,,,,,,,,,,,,,,,,,,,,,,,,,,,,,,,,,,,,,,,,,,,,,,,,,,,,,,,,,,,,,,,,,,,,,,,,,,,,,,,,,,,,,,,,,,,,,,,,,,,,,,,,,,,,,,,,,,,,,
,,,,,,60bff62d82d796cabcf1958e,62c53958a74ca2e5baf2d362,2022-07-06_24h29.12.113,Colour_Asymmetry_Pilot,2022.1.3,Win32,60.00960154,62c50e9c1127f2cd403a315f,0,121,121,136,1,onetwo,,,,,,,,,,,,,,,,,,,,,,,,,,,,,,,,,,,,,,,,,,,,,,,,,,,,,,,,,,,,,,,,,,,,,,,,,,,,,,,,,,,,,,,,,,,,,,,,,,,,,,,,,,,,,,,,,,,,,,,,,,,,,,,,,,,,,,,,,,,,,,,,,,,,,,,,,,,,,
,,,,,,60bff62d82d796cabcf1958e,62c53958a74ca2e5baf2d362,2022-07-06_24h29.12.113,Colour_Asymmetry_Pilot,2022.1.3,Win32,60.00960154,62c50e9c1127f2cd403a315f,0,122,122,16,1,onetwo,,,,,,,,,,,,,,,,,,,,,,,,,,,,,,,,,,,,,,,,,,,,,,,,,,,,,,,,,,,,,,,,,,,,,,,,,,,,,,,,,,,,,,,,,,,,,,,,,,,,,,,,,,,,,,,,,,,,,,,,,,,,,,,,,,,,,,,,,,,,,,,,,,,,,,,,,,,,,
,,,,,,60bff62d82d796cabcf1958e,62c53958a74ca2e5baf2d362,2022-07-06_24h29.12.113,Colour_Asymmetry_Pilot,2022.1.3,Win32,60.00960154,62c50e9c1127f2cd403a315f,0,123,123,99,1,twofour,,,,,,,,,,,,,,,,,,,,,,,,,,,,,,,,,,,,,,,,,,,,,,,,,,,,,,,,,,,,,,,,,,,,,,,,,,,,,,,,,,,,,,,,,,,,,,,,,,,,,,,,,,,,,,,,,,,,,,,,,,,,,,,,,,,,,,,,,,,,,,,,,,,,,,,,,,,,,
,,,,,,60bff62d82d796cabcf1958e,62c53958a74ca2e5baf2d362,2022-07-06_24h29.12.113,Colour_Asymmetry_Pilot,2022.1.3,Win32,60.00960154,62c50e9c1127f2cd403a315f,0,124,124,132,1,threeone,,,,,,,,,,,,,,,,,,,,,,,,,,,,,,,,,,,,,,,,,,,,,,,,,,,,,,,,,,,,,,,,,,,,,,,,,,,,,,,,,,,,,,,,,,,,,,,,,,,,,,,,,,,,,,,,,,,,,,,,,,,,,,,,,,,,,,,,,,,,,,,,,,,,,,,,,,,,,
,,,,,,60bff62d82d796cabcf1958e,62c53958a74ca2e5baf2d362,2022-07-06_24h29.12.113,Colour_Asymmetry_Pilot,2022.1.3,Win32,60.00960154,62c50e9c1127f2cd403a315f,0,125,125,6,1,fourtwo,,,,,,,,,,,,,,,,,,,,,,,,,,,,,,,,,,,,,,,,,,,,,,,,,,,,,,,,,,,,,,,,,,,,,,,,,,,,,,,,,,,,,,,,,,,,,,,,,,,,,,,,,,,,,,,,,,,,,,,,,,,,,,,,,,,,,,,,,,,,,,,,,,,,,,,,,,,,,
,,,,,,60bff62d82d796cabcf1958e,62c53958a74ca2e5baf2d362,2022-07-06_24h29.12.113,Colour_Asymmetry_Pilot,2022.1.3,Win32,60.00960154,62c50e9c1127f2cd403a315f,0,126,126,47,1,fourthree,,,,,,,,,,,,,,,,,,,,,,,,,,,,,,,,,,,,,,,,,,,,,,,,,,,,,,,,,,,,,,,,,,,,,,,,,,,,,,,,,,,,,,,,,,,,,,,,,,,,,,,,,,,,,,,,,,,,,,,,,,,,,,,,,,,,,,,,,,,,,,,,,,,,,,,,,,,,,
,,,,,,60bff62d82d796cabcf1958e,62c53958a74ca2e5baf2d362,2022-07-06_24h29.12.113,Colour_Asymmetry_Pilot,2022.1.3,Win32,60.00960154,62c50e9c1127f2cd403a315f,0,127,127,97,1,onethree,,,,,,,,,,,,,,,,,,,,,,,,,,,,,,,,,,,,,,,,,,,,,,,,,,,,,,,,,,,,,,,,,,,,,,,,,,,,,,,,,,,,,,,,,,,,,,,,,,,,,,,,,,,,,,,,,,,,,,,,,,,,,,,,,,,,,,,,,,,,,,,,,,,,,,,,,,,,,
,,,,,,60bff62d82d796cabcf1958e,62c53958a74ca2e5baf2d362,2022-07-06_24h29.12.113,Colour_Asymmetry_Pilot,2022.1.3,Win32,60.00960154,62c50e9c1127f2cd403a315f,0,128,128,101,1,threefour,,,,,,,,,,,,,,,,,,,,,,,,,,,,,,,,,,,,,,,,,,,,,,,,,,,,,,,,,,,,,,,,,,,,,,,,,,,,,,,,,,,,,,,,,,,,,,,,,,,,,,,,,,,,,,,,,,,,,,,,,,,,,,,,,,,,,,,,,,,,,,,,,,,,,,,,,,,,,
,,,,,,60bff62d82d796cabcf1958e,62c53958a74ca2e5baf2d362,2022-07-06_24h29.12.113,Colour_Asymmetry_Pilot,2022.1.3,Win32,60.00960154,62c50e9c1127f2cd403a315f,0,129,129,122,1,twoone,,,,,,,,,,,,,,,,,,,,,,,,,,,,,,,,,,,,,,,,,,,,,,,,,,,,,,,,,,,,,,,,,,,,,,,,,,,,,,,,,,,,,,,,,,,,,,,,,,,,,,,,,,,,,,,,,,,,,,,,,,,,,,,,,,,,,,,,,,,,,,,,,,,,,,,,,,,,,
,,,,,,60bff62d82d796cabcf1958e,62c53958a74ca2e5baf2d362,2022-07-06_24h29.12.113,Colour_Asymmetry_Pilot,2022.1.3,Win32,60.00960154,62c50e9c1127f2cd403a315f,0,130,130,114,1,twoone,,,,,,,,,,,,,,,,,,,,,,,,,,,,,,,,,,,,,,,,,,,,,,,,,,,,,,,,,,,,,,,,,,,,,,,,,,,,,,,,,,,,,,,,,,,,,,,,,,,,,,,,,,,,,,,,,,,,,,,,,,,,,,,,,,,,,,,,,,,,,,,,,,,,,,,,,,,,,
,,,,,,60bff62d82d796cabcf1958e,62c53958a74ca2e5baf2d362,2022-07-06_24h29.12.113,Colour_Asymmetry_Pilot,2022.1.3,Win32,60.00960154,62c50e9c1127f2cd403a315f,0,131,131,78,1,fourtwo,,,,,,,,,,,,,,,,,,,,,,,,,,,,,,,,,,,,,,,,,,,,,,,,,,,,,,,,,,,,,,,,,,,,,,,,,,,,,,,,,,,,,,,,,,,,,,,,,,,,,,,,,,,,,,,,,,,,,,,,,,,,,,,,,,,,,,,,,,,,,,,,,,,,,,,,,,,,,
,,,,,,60bff62d82d796cabcf1958e,62c53958a74ca2e5baf2d362,2022-07-06_24h29.12.113,Colour_Asymmetry_Pilot,2022.1.3,Win32,60.00960154,62c50e9c1127f2cd403a315f,0,132,132,62,1,fourtwo,,,,,,,,,,,,,,,,,,,,,,,,,,,,,,,,,,,,,,,,,,,,,,,,,,,,,,,,,,,,,,,,,,,,,,,,,,,,,,,,,,,,,,,,,,,,,,,,,,,,,,,,,,,,,,,,,,,,,,,,,,,,,,,,,,,,,,,,,,,,,,,,,,,,,,,,,,,,,
,,,,,,60bff62d82d796cabcf1958e,62c53958a74ca2e5baf2d362,2022-07-06_24h29.12.113,Colour_Asymmetry_Pilot,2022.1.3,Win32,60.00960154,62c50e9c1127f2cd403a315f,0,133,133,157,1,threefour,,,,,,,,,,,,,,,,,,,,,,,,,,,,,,,,,,,,,,,,,,,,,,,,,,,,,,,,,,,,,,,,,,,,,,,,,,,,,,,,,,,,,,,,,,,,,,,,,,,,,,,,,,,,,,,,,,,,,,,,,,,,,,,,,,,,,,,,,,,,,,,,,,,,,,,,,,,,,
,,,,,,60bff62d82d796cabcf1958e,62c53958a74ca2e5baf2d362,2022-07-06_24h29.12.113,Colour_Asymmetry_Pilot,2022.1.3,Win32,60.00960154,62c50e9c1127f2cd403a315f,0,134,134,54,1,fourtwo,,,,,,,,,,,,,,,,,,,,,,,,,,,,,,,,,,,,,,,,,,,,,,,,,,,,,,,,,,,,,,,,,,,,,,,,,,,,,,,,,,,,,,,,,,,,,,,,,,,,,,,,,,,,,,,,,,,,,,,,,,,,,,,,,,,,,,,,,,,,,,,,,,,,,,,,,,,,,
,,,,,,60bff62d82d796cabcf1958e,62c53958a74ca2e5baf2d362,2022-07-06_24h29.12.113,Colour_Asymmetry_Pilot,2022.1.3,Win32,60.00960154,62c50e9c1127f2cd403a315f,0,135,135,133,1,threefour,,,,,,,,,,,,,,,,,,,,,,,,,,,,,,,,,,,,,,,,,,,,,,,,,,,,,,,,,,,,,,,,,,,,,,,,,,,,,,,,,,,,,,,,,,,,,,,,,,,,,,,,,,,,,,,,,,,,,,,,,,,,,,,,,,,,,,,,,,,,,,,,,,,,,,,,,,,,,
,,,,,,60bff62d82d796cabcf1958e,62c53958a74ca2e5baf2d362,2022-07-06_24h29.12.113,Colour_Asymmetry_Pilot,2022.1.3,Win32,60.00960154,62c50e9c1127f2cd403a315f,0,136,136,119,1,fourthree,,,,,,,,,,,,,,,,,,,,,,,,,,,,,,,,,,,,,,,,,,,,,,,,,,,,,,,,,,,,,,,,,,,,,,,,,,,,,,,,,,,,,,,,,,,,,,,,,,,,,,,,,,,,,,,,,,,,,,,,,,,,,,,,,,,,,,,,,,,,,,,,,,,,,,,,,,,,,
,,,,,,60bff62d82d796cabcf1958e,62c53958a74ca2e5baf2d362,2022-07-06_24h29.12.113,Colour_Asymmetry_Pilot,2022.1.3,Win32,60.00960154,62c50e9c1127f2cd403a315f,0,137,137,156,1,threeone,,,,,,,,,,,,,,,,,,,,,,,,,,,,,,,,,,,,,,,,,,,,,,,,,,,,,,,,,,,,,,,,,,,,,,,,,,,,,,,,,,,,,,,,,,,,,,,,,,,,,,,,,,,,,,,,,,,,,,,,,,,,,,,,,,,,,,,,,,,,,,,,,,,,,,,,,,,,,
,,,,,,60bff62d82d796cabcf1958e,62c53958a74ca2e5baf2d362,2022-07-06_24h29.12.113,Colour_Asymmetry_Pilot,2022.1.3,Win32,60.00960154,62c50e9c1127f2cd403a315f,0,138,138,126,1,fourtwo,,,,,,,,,,,,,,,,,,,,,,,,,,,,,,,,,,,,,,,,,,,,,,,,,,,,,,,,,,,,,,,,,,,,,,,,,,,,,,,,,,,,,,,,,,,,,,,,,,,,,,,,,,,,,,,,,,,,,,,,,,,,,,,,,,,,,,,,,,,,,,,,,,,,,,,,,,,,,
,,,,,,60bff62d82d796cabcf1958e,62c53958a74ca2e5baf2d362,2022-07-06_24h29.12.113,Colour_Asymmetry_Pilot,2022.1.3,Win32,60.00960154,62c50e9c1127f2cd403a315f,0,139,139,57,1,onethree,,,,,,,,,,,,,,,,,,,,,,,,,,,,,,,,,,,,,,,,,,,,,,,,,,,,,,,,,,,,,,,,,,,,,,,,,,,,,,,,,,,,,,,,,,,,,,,,,,,,,,,,,,,,,,,,,,,,,,,,,,,,,,,,,,,,,,,,,,,,,,,,,,,,,,,,,,,,,
,,,,,,60bff62d82d796cabcf1958e,62c53958a74ca2e5baf2d362,2022-07-06_24h29.12.113,Colour_Asymmetry_Pilot,2022.1.3,Win32,60.00960154,62c50e9c1127f2cd403a315f,0,140,140,66,1,twoone,,,,,,,,,,,,,,,,,,,,,,,,,,,,,,,,,,,,,,,,,,,,,,,,,,,,,,,,,,,,,,,,,,,,,,,,,,,,,,,,,,,,,,,,,,,,,,,,,,,,,,,,,,,,,,,,,,,,,,,,,,,,,,,,,,,,,,,,,,,,,,,,,,,,,,,,,,,,,
,,,,,,60bff62d82d796cabcf1958e,62c53958a74ca2e5baf2d362,2022-07-06_24h29.12.113,Colour_Asymmetry_Pilot,2022.1.3,Win32,60.00960154,62c50e9c1127f2cd403a315f,0,141,141,90,1,twoone,,,,,,,,,,,,,,,,,,,,,,,,,,,,,,,,,,,,,,,,,,,,,,,,,,,,,,,,,,,,,,,,,,,,,,,,,,,,,,,,,,,,,,,,,,,,,,,,,,,,,,,,,,,,,,,,,,,,,,,,,,,,,,,,,,,,,,,,,,,,,,,,,,,,,,,,,,,,,
,,,,,,60bff62d82d796cabcf1958e,62c53958a74ca2e5baf2d362,2022-07-06_24h29.12.113,Colour_Asymmetry_Pilot,2022.1.3,Win32,60.00960154,62c50e9c1127f2cd403a315f,0,142,142,60,1,threeone,,,,,,,,,,,,,,,,,,,,,,,,,,,,,,,,,,,,,,,,,,,,,,,,,,,,,,,,,,,,,,,,,,,,,,,,,,,,,,,,,,,,,,,,,,,,,,,,,,,,,,,,,,,,,,,,,,,,,,,,,,,,,,,,,,,,,,,,,,,,,,,,,,,,,,,,,,,,,
,,,,,,60bff62d82d796cabcf1958e,62c53958a74ca2e5baf2d362,2022-07-06_24h29.12.113,Colour_Asymmetry_Pilot,2022.1.3,Win32,60.00960154,62c50e9c1127f2cd403a315f,0,143,143,34,1,twoone,,,,,,,,,,,,,,,,,,,,,,,,,,,,,,,,,,,,,,,,,,,,,,,,,,,,,,,,,,,,,,,,,,,,,,,,,,,,,,,,,,,,,,,,,,,,,,,,,,,,,,,,,,,,,,,,,,,,,,,,,,,,,,,,,,,,,,,,,,,,,,,,,,,,,,,,,,,,,
,,,,,,60bff62d82d796cabcf1958e,62c53958a74ca2e5baf2d362,2022-07-06_24h29.12.113,Colour_Asymmetry_Pilot,2022.1.3,Win32,60.00960154,62c50e9c1127f2cd403a315f,0,144,144,12,1,threeone,,,,,,,,,,,,,,,,,,,,,,,,,,,,,,,,,,,,,,,,,,,,,,,,,,,,,,,,,,,,,,,,,,,,,,,,,,,,,,,,,,,,,,,,,,,,,,,,,,,,,,,,,,,,,,,,,,,,,,,,,,,,,,,,,,,,,,,,,,,,,,,,,,,,,,,,,,,,,
,,,,,,60bff62d82d796cabcf1958e,62c53958a74ca2e5baf2d362,2022-07-06_24h29.12.113,Colour_Asymmetry_Pilot,2022.1.3,Win32,60.00960154,62c50e9c1127f2cd403a315f,0,145,145,14,1,fourtwo,,,,,,,,,,,,,,,,,,,,,,,,,,,,,,,,,,,,,,,,,,,,,,,,,,,,,,,,,,,,,,,,,,,,,,,,,,,,,,,,,,,,,,,,,,,,,,,,,,,,,,,,,,,,,,,,,,,,,,,,,,,,,,,,,,,,,,,,,,,,,,,,,,,,,,,,,,,,,
,,,,,,60bff62d82d796cabcf1958e,62c53958a74ca2e5baf2d362,2022-07-06_24h29.12.113,Colour_Asymmetry_Pilot,2022.1.3,Win32,60.00960154,62c50e9c1127f2cd403a315f,0,146,146,67,1,twofour,,,,,,,,,,,,,,,,,,,,,,,,,,,,,,,,,,,,,,,,,,,,,,,,,,,,,,,,,,,,,,,,,,,,,,,,,,,,,,,,,,,,,,,,,,,,,,,,,,,,,,,,,,,,,,,,,,,,,,,,,,,,,,,,,,,,,,,,,,,,,,,,,,,,,,,,,,,,,
,,,,,,60bff62d82d796cabcf1958e,62c53958a74ca2e5baf2d362,2022-07-06_24h29.12.113,Colour_Asymmetry_Pilot,2022.1.3,Win32,60.00960154,62c50e9c1127f2cd403a315f,0,147,147,42,1,twoone,,,,,,,,,,,,,,,,,,,,,,,,,,,,,,,,,,,,,,,,,,,,,,,,,,,,,,,,,,,,,,,,,,,,,,,,,,,,,,,,,,,,,,,,,,,,,,,,,,,,,,,,,,,,,,,,,,,,,,,,,,,,,,,,,,,,,,,,,,,,,,,,,,,,,,,,,,,,,
,,,,,,60bff62d82d796cabcf1958e,62c53958a74ca2e5baf2d362,2022-07-06_24h29.12.113,Colour_Asymmetry_Pilot,2022.1.3,Win32,60.00960154,62c50e9c1127f2cd403a315f,0,148,148,154,1,twoone,,,,,,,,,,,,,,,,,,,,,,,,,,,,,,,,,,,,,,,,,,,,,,,,,,,,,,,,,,,,,,,,,,,,,,,,,,,,,,,,,,,,,,,,,,,,,,,,,,,,,,,,,,,,,,,,,,,,,,,,,,,,,,,,,,,,,,,,,,,,,,,,,,,,,,,,,,,,,
,,,,,,60bff62d82d796cabcf1958e,62c53958a74ca2e5baf2d362,2022-07-06_24h29.12.113,Colour_Asymmetry_Pilot,2022.1.3,Win32,60.00960154,62c50e9c1127f2cd403a315f,0,149,149,159,1,fourthree,,,,,,,,,,,,,,,,,,,,,,,,,,,,,,,,,,,,,,,,,,,,,,,,,,,,,,,,,,,,,,,,,,,,,,,,,,,,,,,,,,,,,,,,,,,,,,,,,,,,,,,,,,,,,,,,,,,,,,,,,,,,,,,,,,,,,,,,,,,,,,,,,,,,,,,,,,,,,
,,,,,,60bff62d82d796cabcf1958e,62c53958a74ca2e5baf2d362,2022-07-06_24h29.12.113,Colour_Asymmetry_Pilot,2022.1.3,Win32,60.00960154,62c50e9c1127f2cd403a315f,0,150,150,93,1,threefour,,,,,,,,,,,,,,,,,,,,,,,,,,,,,,,,,,,,,,,,,,,,,,,,,,,,,,,,,,,,,,,,,,,,,,,,,,,,,,,,,,,,,,,,,,,,,,,,,,,,,,,,,,,,,,,,,,,,,,,,,,,,,,,,,,,,,,,,,,,,,,,,,,,,,,,,,,,,,
,,,,,,60bff62d82d796cabcf1958e,62c53958a74ca2e5baf2d362,2022-07-06_24h29.12.113,Colour_Asymmetry_Pilot,2022.1.3,Win32,60.00960154,62c50e9c1127f2cd403a315f,0,151,151,118,1,fourtwo,,,,,,,,,,,,,,,,,,,,,,,,,,,,,,,,,,,,,,,,,,,,,,,,,,,,,,,,,,,,,,,,,,,,,,,,,,,,,,,,,,,,,,,,,,,,,,,,,,,,,,,,,,,,,,,,,,,,,,,,,,,,,,,,,,,,,,,,,,,,,,,,,,,,,,,,,,,,,
,,,,,,60bff62d82d796cabcf1958e,62c53958a74ca2e5baf2d362,2022-07-06_24h29.12.113,Colour_Asymmetry_Pilot,2022.1.3,Win32,60.00960154,62c50e9c1127f2cd403a315f,0,152,152,142,1,fourtwo,,,,,,,,,,,,,,,,,,,,,,,,,,,,,,,,,,,,,,,,,,,,,,,,,,,,,,,,,,,,,,,,,,,,,,,,,,,,,,,,,,,,,,,,,,,,,,,,,,,,,,,,,,,,,,,,,,,,,,,,,,,,,,,,,,,,,,,,,,,,,,,,,,,,,,,,,,,,,
,,,,,,60bff62d82d796cabcf1958e,62c53958a74ca2e5baf2d362,2022-07-06_24h29.12.113,Colour_Asymmetry_Pilot,2022.1.3,Win32,60.00960154,62c50e9c1127f2cd403a315f,0,153,153,94,1,fourtwo,,,,,,,,,,,,,,,,,,,,,,,,,,,,,,,,,,,,,,,,,,,,,,,,,,,,,,,,,,,,,,,,,,,,,,,,,,,,,,,,,,,,,,,,,,,,,,,,,,,,,,,,,,,,,,,,,,,,,,,,,,,,,,,,,,,,,,,,,,,,,,,,,,,,,,,,,,,,,
,,,,,,60bff62d82d796cabcf1958e,62c53958a74ca2e5baf2d362,2022-07-06_24h29.12.113,Colour_Asymmetry_Pilot,2022.1.3,Win32,60.00960154,62c50e9c1127f2cd403a315f,0,154,154,59,1,twofour,,,,,,,,,,,,,,,,,,,,,,,,,,,,,,,,,,,,,,,,,,,,,,,,,,,,,,,,,,,,,,,,,,,,,,,,,,,,,,,,,,,,,,,,,,,,,,,,,,,,,,,,,,,,,,,,,,,,,,,,,,,,,,,,,,,,,,,,,,,,,,,,,,,,,,,,,,,,,
,,,,,,60bff62d82d796cabcf1958e,62c53958a74ca2e5baf2d362,2022-07-06_24h29.12.113,Colour_Asymmetry_Pilot,2022.1.3,Win32,60.00960154,62c50e9c1127f2cd403a315f,0,155,155,19,1,twofour,,,,,,,,,,,,,,,,,,,,,,,,,,,,,,,,,,,,,,,,,,,,,,,,,,,,,,,,,,,,,,,,,,,,,,,,,,,,,,,,,,,,,,,,,,,,,,,,,,,,,,,,,,,,,,,,,,,,,,,,,,,,,,,,,,,,,,,,,,,,,,,,,,,,,,,,,,,,,
,,,,,,60bff62d82d796cabcf1958e,62c53958a74ca2e5baf2d362,2022-07-06_24h29.12.113,Colour_Asymmetry_Pilot,2022.1.3,Win32,60.00960154,62c50e9c1127f2cd403a315f,0,156,156,95,1,fourthree,,,,,,,,,,,,,,,,,,,,,,,,,,,,,,,,,,,,,,,,,,,,,,,,,,,,,,,,,,,,,,,,,,,,,,,,,,,,,,,,,,,,,,,,,,,,,,,,,,,,,,,,,,,,,,,,,,,,,,,,,,,,,,,,,,,,,,,,,,,,,,,,,,,,,,,,,,,,,
,,,,,,60bff62d82d796cabcf1958e,62c53958a74ca2e5baf2d362,2022-07-06_24h29.12.113,Colour_Asymmetry_Pilot,2022.1.3,Win32,60.00960154,62c50e9c1127f2cd403a315f,0,157,157,26,1,twoone,,,,,,,,,,,,,,,,,,,,,,,,,,,,,,,,,,,,,,,,,,,,,,,,,,,,,,,,,,,,,,,,,,,,,,,,,,,,,,,,,,,,,,,,,,,,,,,,,,,,,,,,,,,,,,,,,,,,,,,,,,,,,,,,,,,,,,,,,,,,,,,,,,,,,,,,,,,,,
,,,,,,60bff62d82d796cabcf1958e,62c53958a74ca2e5baf2d362,2022-07-06_24h29.12.113,Colour_Asymmetry_Pilot,2022.1.3,Win32,60.00960154,62c50e9c1127f2cd403a315f,0,158,158,86,1,fourtwo,,,,,,,,,,,,,,,,,,,,,,,,,,,,,,,,,,,,,,,,,,,,,,,,,,,,,,,,,,,,,,,,,,,,,,,,,,,,,,,,,,,,,,,,,,,,,,,,,,,,,,,,,,,,,,,,,,,,,,,,,,,,,,,,,,,,,,,,,,,,,,,,,,,,,,,,,,,,,
,,,,,,60bff62d82d796cabcf1958e,62c53958a74ca2e5baf2d362,2022-07-06_24h29.12.113,Colour_Asymmetry_Pilot,2022.1.3,Win32,60.00960154,62c50e9c1127f2cd403a315f,0,159,159,5,1,threefour,,,,,,,,,,,,,,,,,,,,,,,,,,,,,,,,,,,,,,,,,,,,,,,,,,,,,,,,,,,,,,,,,,,,,,,,,,,,,,,,,,,,,,,,,,,,,,,,,,,,,,,,,,,,,,,,,,,,,,,,,,,,,,,,,,,,,,,,,,,,,,,,,,,,,,,,,,,,,
,,,,,,60bff62d82d796cabcf1958e,62c53958a74ca2e5baf2d362,2022-07-06_24h29.12.113,Colour_Asymmetry_Pilot,2022.1.3,Win32,60.00960154,62c50e9c1127f2cd403a315f,0,160,160,4,1,threeone,,,,,,,,,,,,,,,,,,,,,,,,,,,,,,,,,,,,,,,,,,,,,,,,,,,,,,,,,,,,,,,,,,,,,,,,,,,,,,,,,,,,,,,,,,,,,,,,,,,,,,,,,,,,,,,,,,,,,,,,,,,,,,,,,,,,,,,,,,,,,,,,,,,,,,,,,,,,,
,,,,,,60bff62d82d796cabcf1958e,62c53958a74ca2e5baf2d362,2022-07-06_24h29.12.113,Colour_Asymmetry_Pilot,2022.1.3,Win32,60.00960154,62c50e9c1127f2cd403a315f,0,161,161,138,1,twoone,,,,,,,,,,,,,,,,,,,,,,,,,,,,,,,,,,,,,,,,,,,,,,,,,,,,,,,,,,,,,,,,,,,,,,,,,,,,,,,,,,,,,,,,,,,,,,,,,,,,,,,,,,,,,,,,,,,,,,,,,,,,,,,,,,,,,,,,,,,,,,,,,,,,,,,,,,,,,
,,,,,,60bff62d82d796cabcf1958e,62c53958a74ca2e5baf2d362,2022-07-06_24h29.12.113,Colour_Asymmetry_Pilot,2022.1.3,Win32,60.00960154,62c50e9c1127f2cd403a315f,,,,,,,space,19.0772,space,28.8563,space,58.1389,space,12.6195,space,26.5507,space,7.086,"[0.8115999999999999,-0.0040000000000000036,-0.09819999999999995]",onetwo,"[-0.4982,-0.2942,-0.0354000000000001]",-4,1.7828,-35,64,1,0,0,response7disk_5,3,2,1,0,0,rectangle_8,3,2,1,0,0,1,3,2,1,0,0,0,0,0,0,1,,,,,,,,,,,,,,,,,,,,,,,,,,,,,,,,,,,,,,,,,,,,,,,,,,,,,,,,,,,,,,,,,,,,,,,,,,,,,,,,,,,,,,,,,,,,,,,,,,,,,,,,,,,,,,,,
,,,,,,60bff62d82d796cabcf1958e,62c53958a74ca2e5baf2d362,2022-07-06_24h29.12.113,Colour_Asymmetry_Pilot,2022.1.3,Win32,60.00960154,62c50e9c1127f2cd403a315f,,,,,,,,,,,,,,,,,,,"[0.4196,0.4665999999999999,0.3568]",fourtwo,"[-0.9688,-0.38039999999999996,-0.41979999999999995]",2,2.5828,93,-28,1,0,0,response3disk_5,1,-2,1,0,0,rectangle_8,1,-2,1,0,0,1,1,-2,1,0,0,1,0,1,0,1,,,,,,,,,,,,,,,,,,,,,,,,,,,,,,,,,,,,,,,,,,,,,,,,,,,,,,,,,,,,,,,,,,,,,,,,,,,,,,,,,,,,,,,,,,,,,,,,,,,,,,,,,,,,,,,,
,,,,,,60bff62d82d796cabcf1958e,62c53958a74ca2e5baf2d362,2022-07-06_24h29.12.113,Colour_Asymmetry_Pilot,2022.1.3,Win32,60.00960154,62c50e9c1127f2cd403a315f,,,,,,,,,,,,,,,,,,,"[0.37240000000000006,-0.050999999999999934,-0.5216]",onethree,"[-0.9766,-0.6472,0.07440000000000002]",-4,1.3831,-23,76,1,0,0,response7disk_5,-3,2,1,0,0,rectangle_8,41,-96,1,0,0,1,-5,0,1,0,0,2,0,2,0,1,response3disk_7,4,rectangle_4,,,,,,,,,,,,,,,,,,,,,,,,,,,,,,,,,,,,,,,,,,,,,,,,,,,,,,,,,,,,,,,,,,,,,,,,,,,,,,,,,,,,,,,,,,,,,,,,,,,,,,,,,,,,,
,,,,,,60bff62d82d796cabcf1958e,62c53958a74ca2e5baf2d362,2022-07-06_24h29.12.113,Colour_Asymmetry_Pilot,2022.1.3,Win32,60.00960154,62c50e9c1127f2cd403a315f,,,,,,,,,,,,,,,,,,,"[0.30180000000000007,-0.7884,-0.9844]",twofour,"[0.5449999999999999,-0.31000000000000005,-0.0354000000000001]",3,2.2665,89,36,1,0,0,response1disk_5,-5,2,1,0,0,rectangle_8,-5,2,1,0,0,1,-5,2,1,0,0,3,0,3,0,1,,,,,,,,,,,,,,,,,,,,,,,,,,,,,,,,,,,,,,,,,,,,,,,,,,,,,,,,,,,,,,,,,,,,,,,,,,,,,,,,,,,,,,,,,,,,,,,,,,,,,,,,,,,,,,,,
,,,,,,60bff62d82d796cabcf1958e,62c53958a74ca2e5baf2d362,2022-07-06_24h29.12.113,Colour_Asymmetry_Pilot,2022.1.3,Win32,60.00960154,62c50e9c1127f2cd403a315f,,,,,,,,,,,,,,,,,,,"[0.34099999999999997,0.12939999999999996,-0.9766]",threeone,"[-0.9138,-0.5296000000000001,-0.5529999999999999]",1,2.2828,55,-82,1,0,0,response3disk_5,-7,4,1,0,0,rectangle_8,-7,4,1,0,0,1,-7,4,1,0,0,4,0,4,0,1,,,,,,,,,,,,,,,,,,,,,,,,,,,,,,,,,,,,,,,,,,,,,,,,,,,,,,,,,,,,,,,,,,,,,,,,,,,,,,,,,,,,,,,,,,,,,,,,,,,,,,,,,,,,,,,,
,,,,,,60bff62d82d796cabcf1958e,62c53958a74ca2e5baf2d362,2022-07-06_24h29.12.113,Colour_Asymmetry_Pilot,2022.1.3,Win32,60.00960154,62c50e9c1127f2cd403a315f,,,,,,,,,,,,,,,,,,,"[0.37240000000000006,-0.050999999999999934,-0.5216]",threeone,"[-0.9296,-0.12959999999999994,-0.043199999999999905]",2,3.2329,113,-40,1,0,0,response3disk_5,-1,-2,1,0,0,rectangle_8,-1,-2,1,0,0,1,-1,-2,1,0,0,5,0,5,0,1,,,,,,,,,,,,,,,,,,,,,,,,,,,,,,,,,,,,,,,,,,,,,,,,,,,,,,,,,,,,,,,,,,,,,,,,,,,,,,,,,,,,,,,,,,,,,,,,,,,,,,,,,,,,,,,,
,,,,,,60bff62d82d796cabcf1958e,62c53958a74ca2e5baf2d362,2022-07-06_24h29.12.113,Colour_Asymmetry_Pilot,2022.1.3,Win32,60.00960154,62c50e9c1127f2cd403a315f,,,,,,,,,,,,,,,,,,,"[-0.17659999999999998,-0.2864,-0.8354]",twoone,"[-0.07459999999999989,0.12139999999999995,-0.9922]",3,2.1994,93,72,1,0,0,response1disk_5,-3,-6,1,0,0,rectangle_8,-3,-6,1,0,0,1,-3,-6,1,0,0,6,0,6,0,1,,,,,,,,,,,,,,,,,,,,,,,,,,,,,,,,,,,,,,,,,,,,,,,,,,,,,,,,,,,,,,,,,,,,,,,,,,,,,,,,,,,,,,,,,,,,,,,,,,,,,,,,,,,,,,,,
,,,,,,60bff62d82d796cabcf1958e,62c53958a74ca2e5baf2d362,2022-07-06_24h29.12.113,Colour_Asymmetry_Pilot,2022.1.3,Win32,60.00960154,62c50e9c1127f2cd403a315f,,,,,,,,,,,,,,,,,,,,onetwo,,3,1.3334,,,,,,,,,,,,,,,,,,,,,,,,,,,,,,,,space,78.0339,"[-0.26280000000000003,-0.4746,-0.2158]","[0.3881999999999999,-0.23939999999999995,-0.05040000000000011]",91,51,1,0,0,response1disk,-3,-1,1,0,0,rectangle,-3,-1,1,0,0,,2,0.001,0,-3,-1,1,0,0,0,0,0,158,1,77,second,,,,,,,,,,,,,,,,,,,,,,,,,,,,,,,,,,,,,,,,,,,,,,,,,,,,,,,,,,,,,,,,,,,,,,,,
,,,,,,60bff62d82d796cabcf1958e,62c53958a74ca2e5baf2d362,2022-07-06_24h29.12.113,Colour_Asymmetry_Pilot,2022.1.3,Win32,60.00960154,62c50e9c1127f2cd403a315f,,,,,,,,,,,,,,,,,,,,onetwo,,4,1.4997,,,,,,,,,,,,,,,,,,,,,,,,,,,,,,,,,,"[-0.9688,-0.38039999999999996,-0.41979999999999995]","[0.11359999999999992,0.6312,0.5213999999999999]",39,79,1,0,0,response1disk,-5,-1,1,0,0,rectangle,-5,-1,1,0,0,,2,0.0002,0,-5,-1,1,0,0,0,1,1,68,1,68,first,,,,,,,,,,,,,,,,,,,,,,,,,,,,,,,,,,,,,,,,,,,,,,,,,,,,,,,,,,,,,,,,,,,,,,,,
,,,,,,60bff62d82d796cabcf1958e,62c53958a74ca2e5baf2d362,2022-07-06_24h29.12.113,Colour_Asymmetry_Pilot,2022.1.3,Win32,60.00960154,62c50e9c1127f2cd403a315f,,,,,,,,,,,,,,,,,,,,threefour,,-3,2.6327,,,,,,,,,,,,,,,,,,,,,,,,,,,,,,,,,,"[0.22340000000000004,-0.9296,-0.7884]","[-0.30200000000000005,0.14500000000000002,0.2784]",-67,55,1,0,0,response7disk,-3,-7,1,0,0,rectangle,-3,-7,1,0,0,,2,0.0001,0,-3,-7,1,0,0,0,2,2,59,1,59,first,,,,,,,,,,,,,,,,,,,,,,,,,,,,,,,,,,,,,,,,,,,,,,,,,,,,,,,,,,,,,,,,,,,,,,,,
,,,,,,60bff62d82d796cabcf1958e,62c53958a74ca2e5baf2d362,2022-07-06_24h29.12.113,Colour_Asymmetry_Pilot,2022.1.3,Win32,60.00960154,62c50e9c1127f2cd403a315f,,,,,,,,,,,,,,,,,,,,onetwo,,4,1.9162,,,,,,,,,,,,,,,,,,,,,,,,,,,,,,,,,,"[0.5528,0.7409999999999999,-0.71]","[0.9842,0.7409999999999999,-0.6628000000000001]",43,87,1,0,0,response1disk,1,-7,1,0,0,rectangle,1,-7,1,0,0,,3,0.0005,0,1,-7,1,0,0,0,3,3,107,1,26,second,,,,,,,,,,,,,,,,,,,,,,,,,,,,,,,,,,,,,,,,,,,,,,,,,,,,,,,,,,,,,,,,,,,,,,,,
,,,,,,60bff62d82d796cabcf1958e,62c53958a74ca2e5baf2d362,2022-07-06_24h29.12.113,Colour_Asymmetry_Pilot,2022.1.3,Win32,60.00960154,62c50e9c1127f2cd403a315f,,,,,,,,,,,,,,,,,,,,onethree,,-3,1.8498,,,,,,,,,,,,,,,,,,,,,,,,,,,,,,,,,,"[-0.2942,-0.24719999999999998,-0.357]","[0.8115999999999999,-0.0040000000000000036,-0.09819999999999995]",-83,37,1,0,0,response7disk,-5,-7,1,0,0,rectangle,111,45,1,0,0,3,3,3.1662,1,7,1,1,0,0,0,4,4,97,1,16,second,response1disk_3,rectangle,,,,,,,,,,,,,,,,,,,,,,,,,,,,,,,,,,,,,,,,,,,,,,,,,,,,,,,,,,,,,,,,,,,,,,
,,,,,,60bff62d82d796cabcf1958e,62c53958a74ca2e5baf2d362,2022-07-06_24h29.12.113,Colour_Asymmetry_Pilot,2022.1.3,Win32,60.00960154,62c50e9c1127f2cd403a315f,,,,,,,,,,,,,,,,,,,,onethree,,-2,1.3331,,,,,,,,,,,,,,,,,,,,,,,,,,,,,,,,,,"[-0.2942,-0.24719999999999998,-0.357]","[0.34099999999999997,0.5841999999999998,-0.9844]",-65,-39,1,0,0,response5disk,7,-7,1,0,0,rectangle,91,37,1,0,0,3,3,3.5327,1,-1,7,1,0,0,0,5,5,55,1,55,first,response1disk_3,rectangle,,,,,,,,,,,,,,,,,,,,,,,,,,,,,,,,,,,,,,,,,,,,,,,,,,,,,,,,,,,,,,,,,,,,,,
,,,,,,60bff62d82d796cabcf1958e,62c53958a74ca2e5baf2d362,2022-07-06_24h29.12.113,Colour_Asymmetry_Pilot,2022.1.3,Win32,60.00960154,62c50e9c1127f2cd403a315f,,,,,,,,,,,,,,,,,,,,onetwo,,-4,3.1494,,,,,,,,,,,,,,,,,,,,,,,,,,,,,,,,,,"[-0.4668,-0.8746,-0.2942]","[0.18419999999999992,-0.4276,-0.404]",-35,63,1,0,0,response7disk,9,3,1,0,0,rectangle,9,3,1,0,0,3,1,0.0008,0,9,3,1,0,0,0,6,6,146,1,65,second,,,,,,,,,,,,,,,,,,,,,,,,,,,,,,,,,,,,,,,,,,,,,,,,,,,,,,,,,,,,,,,,,,,,,,,,
,,,,,,60bff62d82d796cabcf1958e,62c53958a74ca2e5baf2d362,2022-07-06_24h29.12.113,Colour_Asymmetry_Pilot,2022.1.3,Win32,60.00960154,62c50e9c1127f2cd403a315f,,,,,,,,,,,,,,,,,,,,fourthree,,4,2.3829,,,,,,,,,,,,,,,,,,,,,,,,,,,,,,,,,,"[0.04299999999999993,0.16060000000000008,-0.6628000000000001]","[-0.9688,-0.38039999999999996,-0.41979999999999995]",55,71,1,0,0,response1disk,1,3,1,0,0,rectangle,1,3,1,0,0,3,1,0.0001,0,1,3,1,0,0,0,7,7,8,1,8,first,,,,,,,,,,,,,,,,,,,,,,,,,,,,,,,,,,,,,,,,,,,,,,,,,,,,,,,,,,,,,,,,,,,,,,,,
,,,,,,60bff62d82d796cabcf1958e,62c53958a74ca2e5baf2d362,2022-07-06_24h29.12.113,Colour_Asymmetry_Pilot,2022.1.3,Win32,60.00960154,62c50e9c1127f2cd403a315f,,,,,,,,,,,,,,,,,,,,onethree,,1,2.283,,,,,,,,,,,,,,,,,,,,,,,,,,,,,,,,,,"[-0.06680000000000008,-0.45100000000000007,-0.906]","[-0.26280000000000003,-0.4746,-0.2158]",61,-77,1,0,0,response3disk,3,-1,1,0,0,rectangle,3,-1,1,0,0,3,3,0.0007,0,3,-1,1,0,0,0,8,8,64,1,64,first,,,,,,,,,,,,,,,,,,,,,,,,,,,,,,,,,,,,,,,,,,,,,,,,,,,,,,,,,,,,,,,,,,,,,,,,
,,,,,,60bff62d82d796cabcf1958e,62c53958a74ca2e5baf2d362,2022-07-06_24h29.12.113,Colour_Asymmetry_Pilot,2022.1.3,Win32,60.00960154,62c50e9c1127f2cd403a315f,,,,,,,,,,,,,,,,,,,,fourtwo,,3,2.7495,,,,,,,,,,,,,,,,,,,,,,,,,,,,,,,,,,"[0.7802,-0.23140000000000005,-0.20799999999999996]","[0.09799999999999986,-0.24719999999999998,0.15280000000000005]",95,63,1,0,0,response1disk,9,1,1,0,0,rectangle,9,1,1,0,0,3,1,0.0007,0,9,1,1,0,0,0,9,9,106,1,25,second,,,,,,,,,,,,,,,,,,,,,,,,,,,,,,,,,,,,,,,,,,,,,,,,,,,,,,,,,,,,,,,,,,,,,,,,
,,,,,,60bff62d82d796cabcf1958e,62c53958a74ca2e5baf2d362,2022-07-06_24h29.12.113,Colour_Asymmetry_Pilot,2022.1.3,Win32,60.00960154,62c50e9c1127f2cd403a315f,,,,,,,,,,,,,,,,,,,,onetwo,,-4,1.833,,,,,,,,,,,,,,,,,,,,,,,,,,,,,,,,,,"[-0.8982,-0.37259999999999993,0.2784]","[1,0.12939999999999996,-1]",-27,49,1,0,0,response7disk,13,-3,1,0,0,rectangle,13,-3,1,0,0,3,1,0.0001,0,13,-3,1,0,0,0,10,10,29,1,29,first,,,,,,,,,,,,,,,,,,,,,,,,,,,,,,,,,,,,,,,,,,,,,,,,,,,,,,,,,,,,,,,,,,,,,,,,
,,,,,,60bff62d82d796cabcf1958e,62c53958a74ca2e5baf2d362,2022-07-06_24h29.12.113,Colour_Asymmetry_Pilot,2022.1.3,Win32,60.00960154,62c50e9c1127f2cd403a315f,,,,,,,,,,,,,,,,,,,,onethree,,4,0.7794,,,,,,,,,,,,,,,,,,,,,,,,,,,,,,,,,,"[-0.8982,-0.37259999999999993,0.2784]","[-0.8118,-0.8198,-0.5452]",37,67,1,0,0,response1disk,3,-7,1,0,0,rectangle,3,-7,1,0,0,3,2,0.0006,0,3,-7,1,0,0,0,11,11,90,1,9,second,,,,,,,,,,,,,,,,,,,,,,,,,,,,,,,,,,,,,,,,,,,,,,,,,,,,,,,,,,,,,,,,,,,,,,,,
,,,,,,60bff62d82d796cabcf1958e,62c53958a74ca2e5baf2d362,2022-07-06_24h29.12.113,Colour_Asymmetry_Pilot,2022.1.3,Win32,60.00960154,62c50e9c1127f2cd403a315f,,,,,,,,,,,,,,,,,,,,onethree,,-4,1.383,,,,,,,,,,,,,,,,,,,,,,,,,,,,,,,,,,"[-0.8198,-0.5138,-0.7492000000000001]","[0.796,0.2156,-0.27859999999999996]",-21,65,1,0,0,response7disk,1,-1,1,0,0,rectangle,1,-1,1,0,0,3,2,0.0002,0,1,-1,1,0,0,0,12,12,45,1,45,first,,,,,,,,,,,,,,,,,,,,,,,,,,,,,,,,,,,,,,,,,,,,,,,,,,,,,,,,,,,,,,,,,,,,,,,,
,,,,,,60bff62d82d796cabcf1958e,62c53958a74ca2e5baf2d362,2022-07-06_24h29.12.113,Colour_Asymmetry_Pilot,2022.1.3,Win32,60.00960154,62c50e9c1127f2cd403a315f,,,,,,,,,,,,,,,,,,,,twofour,,-2,2.433,,,,,,,,,,,,,,,,,,,,,,,,,,,,,,,,,,"[-0.30200000000000005,0.14500000000000002,0.2784]","[0.22340000000000004,-0.9296,-0.7884]",-97,-33,1,0,0,response5disk,-1,-1,1,0,0,rectangle,-1,-1,1,0,0,3,3,0.0006,0,-1,-1,1,0,0,0,13,13,140,1,59,second,,,,,,,,,,,,,,,,,,,,,,,,,,,,,,,,,,,,,,,,,,,,,,,,,,,,,,,,,,,,,,,,,,,,,,,,
,,,,,,60bff62d82d796cabcf1958e,62c53958a74ca2e5baf2d362,2022-07-06_24h29.12.113,Colour_Asymmetry_Pilot,2022.1.3,Win32,60.00960154,62c50e9c1127f2cd403a315f,,,,,,,,,,,,,,,,,,,,fourthree,,4,1.4664,,,,,,,,,,,,,,,,,,,,,,,,,,,,,,,,,,"[-0.4668,-0.8746,-0.2942]","[-0.26280000000000003,-0.4746,-0.2158]",35,79,1,0,0,response1disk,-1,-3,1,0,0,rectangle,-1,-3,1,0,0,3,3,0.0001,0,-1,-3,1,0,0,0,14,14,135,1,54,second,,,,,,,,,,,,,,,,,,,,,,,,,,,,,,,,,,,,,,,,,,,,,,,,,,,,,,,,,,,,,,,,,,,,,,,,
,,,,,,60bff62d82d796cabcf1958e,62c53958a74ca2e5baf2d362,2022-07-06_24h29.12.113,Colour_Asymmetry_Pilot,2022.1.3,Win32,60.00960154,62c50e9c1127f2cd403a315f,,,,,,,,,,,,,,,,,,,,threeone,,3,1.1165,,,,,,,,,,,,,,,,,,,,,,,,,,,,,,,,,,"[0.04299999999999993,0.16060000000000008,-0.6628000000000001]","[-0.2942,-0.24719999999999998,-0.357]",99,71,1,0,0,response1disk,-5,-5,1,0,0,rectangle,-5,-5,1,0,0,3,2,0.0005,0,-5,-5,1,0,0,0,15,15,81,1,0,second,,,,,,,,,,,,,,,,,,,,,,,,,,,,,,,,,,,,,,,,,,,,,,,,,,,,,,,,,,,,,,,,,,,,,,,,
,,,,,,60bff62d82d796cabcf1958e,62c53958a74ca2e5baf2d362,2022-07-06_24h29.12.113,Colour_Asymmetry_Pilot,2022.1.3,Win32,60.00960154,62c50e9c1127f2cd403a315f,,,,,,,,,,,,,,,,,,,,fourtwo,,-2,1.7664,,,,,,,,,,,,,,,,,,,,,,,,,,,,,,,,,,"[0.05879999999999996,0.2784,0.5841999999999998]","[0.796,0.2156,-0.27859999999999996]",-83,-41,1,0,0,response5disk,7,9,1,0,0,rectangle,7,9,1,0,0,3,2,0.0001,0,7,9,1,0,0,0,16,16,155,1,74,second,,,,,,,,,,,,,,,,,,,,,,,,,,,,,,,,,,,,,,,,,,,,,,,,,,,,,,,,,,,,,,,,,,,,,,,,
,,,,,,60bff62d82d796cabcf1958e,62c53958a74ca2e5baf2d362,2022-07-06_24h29.12.113,Colour_Asymmetry_Pilot,2022.1.3,Win32,60.00960154,62c50e9c1127f2cd403a315f,,,,,,,,,,,,,,,,,,,,onethree,,1,1.2631,,,,,,,,,,,,,,,,,,,,,,,,,,,,,,,,,,"[0.9763999999999999,-0.1137999999999999,-0.6314]","[-0.17659999999999998,-0.2864,-0.8354]",49,-91,1,0,0,response3disk,-7,5,1,0,0,rectangle,-7,5,1,0,0,3,3,0.0006,0,-7,5,1,0,0,0,17,17,147,1,66,second,,,,,,,,,,,,,,,,,,,,,,,,,,,,,,,,,,,,,,,,,,,,,,,,,,,,,,,,,,,,,,,,,,,,,,,,
