trials.thisRepN,trials.thisTrialN,trials.thisN,trials.thisIndex,trials.ran,Colourcodes,participant,session,date,expName,psychopyVersion,OS,frameRate,study_id,trials_4.thisRepN,trials_4.thisTrialN,trials_4.thisN,trials_4.thisIndex,trials_4.ran,StimulusPos,key_resp.keys,key_resp.rt,key_resp_2.keys,key_resp_2.rt,key_resp_15.keys,key_resp_15.rt,key_resp_17.keys,key_resp_17.rt,key_resp_9.keys,key_resp_9.rt,key_resp_10.keys,key_resp_10.rt,Circle1_col,Ecc,Circle2_col,similarity,response_time,mouse_5.x,mouse_5.y,mouse_5.leftButton,mouse_5.midButton,mouse_5.rightButton,mouse_5.clicked_name,mouse_10.x,mouse_10.y,mouse_10.leftButton,mouse_10.midButton,mouse_10.rightButton,mouse_10.clicked_name,mouse_7.x,mouse_7.y,mouse_7.leftButton,mouse_7.midButton,mouse_7.rightButton,mouse_7.clicked_name,catchprac,catchnumberprac,mouse_6.x,mouse_6.y,mouse_6.leftButton,mouse_6.midButton,mouse_6.rightButton,mouse_6.clicked_name,duringprac.thisRepN,duringprac.thisTrialN,duringprac.thisN,duringprac.thisIndex,duringprac.ran,key_resp_22.keys,key_resp_22.rt,Circle1_colour,Circle2_colour,mouse.x,mouse.y,mouse.leftButton,mouse.midButton,mouse.rightButton,mouse.clicked_name,mouse_2.x,mouse_2.y,mouse_2.leftButton,mouse_2.midButton,mouse_2.rightButton,mouse_2.clicked_name,mouse_3.x,mouse_3.y,mouse_3.leftButton,mouse_3.midButton,mouse_3.rightButton,catchresponse,catchnumber,response_time_catch,Catch,mouse_11.x,mouse_11.y,mouse_11.leftButton,mouse_11.midButton,mouse_11.rightButton,trials_2.thisRepN,trials_2.thisTrialN,trials_2.thisN,trials_2.thisIndex,trials_2.ran,Colourpair,Temporder,mouse_3.clicked_name,mouse_11.clicked_name,trials_3.thisRepN,trials_3.thisTrialN,trials_3.thisN,trials_3.thisIndex,trials_3.ran,key_resp_instr_Ishi.keys,key_resp_instr_Ishi.rt,Ishi_trial_keyresp.keys,Ishi_textbox.text,Ishi_mouse.x,Ishi_mouse.y,Ishi_mouse.leftButton,Ishi_mouse.midButton,Ishi_mouse.rightButton,Ishi_mouse.clicked_name,Ishi_loop.thisRepN,Ishi_loop.thisTrialN,Ishi_loop.thisN,Ishi_loop.thisIndex,Ishi_loop.ran,imageaddress,textbox.text,mouse_4.x,mouse_4.y,mouse_4.leftButton,mouse_4.midButton,mouse_4.rightButton,mouse_4.clicked_name,textbox_2.text,mouse_8.x,mouse_8.y,mouse_8.leftButton,mouse_8.midButton,mouse_8.rightButton,mouse_8.clicked_name,textbox_3.text,mouse_9.x,mouse_9.y,mouse_9.leftButton,mouse_9.midButton,mouse_9.rightButton,mouse_9.clicked_name,textbox_4.text,mouse_12.x,mouse_12.y,mouse_12.leftButton,mouse_12.midButton,mouse_12.rightButton,mouse_12.clicked_name,textbox_5.text,mouse_13.x,mouse_13.y,mouse_13.leftButton,mouse_13.midButton,mouse_13.rightButton,mouse_13.clicked_name,textbox_6.text,mouse_14.x,mouse_14.y,mouse_14.leftButton,mouse_14.midButton,mouse_14.rightButton,mouse_14.clicked_name,textbox_7.text,mouse_15.x,mouse_15.y,mouse_15.leftButton,mouse_15.midButton,mouse_15.rightButton,mouse_15.clicked_name
0,0,0,68,1,,61078ef40ecc3ae99ceb0b07,62c539c880569701d2f2d375,2022-07-06_24h29.33.331,Colour_Asymmetry_Pilot,2022.1.3,MacIntel,60.0024001,62c50e9c1127f2cd403a315f,,,,,,,,,,,,,,,,,,,,,,,,,,,,,,,,,,,,,,,,,,,,,,,,,,,,,,,,,,,,,,,,,,,,,,,,,,,,,,,,,,,,,,,,,,,,,,,,,,,,,,,,,,,,,,,,,,,,,,,,,,,,,,,,,,,,,,,,,,,,,,,,,,,,,,,,,,,,,,,,,,,
0,1,1,77,1,,61078ef40ecc3ae99ceb0b07,62c539c880569701d2f2d375,2022-07-06_24h29.33.331,Colour_Asymmetry_Pilot,2022.1.3,MacIntel,60.0024001,62c50e9c1127f2cd403a315f,,,,,,,,,,,,,,,,,,,,,,,,,,,,,,,,,,,,,,,,,,,,,,,,,,,,,,,,,,,,,,,,,,,,,,,,,,,,,,,,,,,,,,,,,,,,,,,,,,,,,,,,,,,,,,,,,,,,,,,,,,,,,,,,,,,,,,,,,,,,,,,,,,,,,,,,,,,,,,,,,,,
0,2,2,0,1,,61078ef40ecc3ae99ceb0b07,62c539c880569701d2f2d375,2022-07-06_24h29.33.331,Colour_Asymmetry_Pilot,2022.1.3,MacIntel,60.0024001,62c50e9c1127f2cd403a315f,,,,,,,,,,,,,,,,,,,,,,,,,,,,,,,,,,,,,,,,,,,,,,,,,,,,,,,,,,,,,,,,,,,,,,,,,,,,,,,,,,,,,,,,,,,,,,,,,,,,,,,,,,,,,,,,,,,,,,,,,,,,,,,,,,,,,,,,,,,,,,,,,,,,,,,,,,,,,,,,,,,
0,3,3,12,1,,61078ef40ecc3ae99ceb0b07,62c539c880569701d2f2d375,2022-07-06_24h29.33.331,Colour_Asymmetry_Pilot,2022.1.3,MacIntel,60.0024001,62c50e9c1127f2cd403a315f,,,,,,,,,,,,,,,,,,,,,,,,,,,,,,,,,,,,,,,,,,,,,,,,,,,,,,,,,,,,,,,,,,,,,,,,,,,,,,,,,,,,,,,,,,,,,,,,,,,,,,,,,,,,,,,,,,,,,,,,,,,,,,,,,,,,,,,,,,,,,,,,,,,,,,,,,,,,,,,,,,,
0,4,4,49,1,,61078ef40ecc3ae99ceb0b07,62c539c880569701d2f2d375,2022-07-06_24h29.33.331,Colour_Asymmetry_Pilot,2022.1.3,MacIntel,60.0024001,62c50e9c1127f2cd403a315f,,,,,,,,,,,,,,,,,,,,,,,,,,,,,,,,,,,,,,,,,,,,,,,,,,,,,,,,,,,,,,,,,,,,,,,,,,,,,,,,,,,,,,,,,,,,,,,,,,,,,,,,,,,,,,,,,,,,,,,,,,,,,,,,,,,,,,,,,,,,,,,,,,,,,,,,,,,,,,,,,,,
0,5,5,69,1,,61078ef40ecc3ae99ceb0b07,62c539c880569701d2f2d375,2022-07-06_24h29.33.331,Colour_Asymmetry_Pilot,2022.1.3,MacIntel,60.0024001,62c50e9c1127f2cd403a315f,,,,,,,,,,,,,,,,,,,,,,,,,,,,,,,,,,,,,,,,,,,,,,,,,,,,,,,,,,,,,,,,,,,,,,,,,,,,,,,,,,,,,,,,,,,,,,,,,,,,,,,,,,,,,,,,,,,,,,,,,,,,,,,,,,,,,,,,,,,,,,,,,,,,,,,,,,,,,,,,,,,
0,6,6,57,1,,61078ef40ecc3ae99ceb0b07,62c539c880569701d2f2d375,2022-07-06_24h29.33.331,Colour_Asymmetry_Pilot,2022.1.3,MacIntel,60.0024001,62c50e9c1127f2cd403a315f,,,,,,,,,,,,,,,,,,,,,,,,,,,,,,,,,,,,,,,,,,,,,,,,,,,,,,,,,,,,,,,,,,,,,,,,,,,,,,,,,,,,,,,,,,,,,,,,,,,,,,,,,,,,,,,,,,,,,,,,,,,,,,,,,,,,,,,,,,,,,,,,,,,,,,,,,,,,,,,,,,,
0,7,7,46,1,,61078ef40ecc3ae99ceb0b07,62c539c880569701d2f2d375,2022-07-06_24h29.33.331,Colour_Asymmetry_Pilot,2022.1.3,MacIntel,60.0024001,62c50e9c1127f2cd403a315f,,,,,,,,,,,,,,,,,,,,,,,,,,,,,,,,,,,,,,,,,,,,,,,,,,,,,,,,,,,,,,,,,,,,,,,,,,,,,,,,,,,,,,,,,,,,,,,,,,,,,,,,,,,,,,,,,,,,,,,,,,,,,,,,,,,,,,,,,,,,,,,,,,,,,,,,,,,,,,,,,,,
0,8,8,5,1,,61078ef40ecc3ae99ceb0b07,62c539c880569701d2f2d375,2022-07-06_24h29.33.331,Colour_Asymmetry_Pilot,2022.1.3,MacIntel,60.0024001,62c50e9c1127f2cd403a315f,,,,,,,,,,,,,,,,,,,,,,,,,,,,,,,,,,,,,,,,,,,,,,,,,,,,,,,,,,,,,,,,,,,,,,,,,,,,,,,,,,,,,,,,,,,,,,,,,,,,,,,,,,,,,,,,,,,,,,,,,,,,,,,,,,,,,,,,,,,,,,,,,,,,,,,,,,,,,,,,,,,
0,9,9,88,1,,61078ef40ecc3ae99ceb0b07,62c539c880569701d2f2d375,2022-07-06_24h29.33.331,Colour_Asymmetry_Pilot,2022.1.3,MacIntel,60.0024001,62c50e9c1127f2cd403a315f,,,,,,,,,,,,,,,,,,,,,,,,,,,,,,,,,,,,,,,,,,,,,,,,,,,,,,,,,,,,,,,,,,,,,,,,,,,,,,,,,,,,,,,,,,,,,,,,,,,,,,,,,,,,,,,,,,,,,,,,,,,,,,,,,,,,,,,,,,,,,,,,,,,,,,,,,,,,,,,,,,,
0,10,10,31,1,,61078ef40ecc3ae99ceb0b07,62c539c880569701d2f2d375,2022-07-06_24h29.33.331,Colour_Asymmetry_Pilot,2022.1.3,MacIntel,60.0024001,62c50e9c1127f2cd403a315f,,,,,,,,,,,,,,,,,,,,,,,,,,,,,,,,,,,,,,,,,,,,,,,,,,,,,,,,,,,,,,,,,,,,,,,,,,,,,,,,,,,,,,,,,,,,,,,,,,,,,,,,,,,,,,,,,,,,,,,,,,,,,,,,,,,,,,,,,,,,,,,,,,,,,,,,,,,,,,,,,,,
0,11,11,61,1,,61078ef40ecc3ae99ceb0b07,62c539c880569701d2f2d375,2022-07-06_24h29.33.331,Colour_Asymmetry_Pilot,2022.1.3,MacIntel,60.0024001,62c50e9c1127f2cd403a315f,,,,,,,,,,,,,,,,,,,,,,,,,,,,,,,,,,,,,,,,,,,,,,,,,,,,,,,,,,,,,,,,,,,,,,,,,,,,,,,,,,,,,,,,,,,,,,,,,,,,,,,,,,,,,,,,,,,,,,,,,,,,,,,,,,,,,,,,,,,,,,,,,,,,,,,,,,,,,,,,,,,
0,12,12,8,1,,61078ef40ecc3ae99ceb0b07,62c539c880569701d2f2d375,2022-07-06_24h29.33.331,Colour_Asymmetry_Pilot,2022.1.3,MacIntel,60.0024001,62c50e9c1127f2cd403a315f,,,,,,,,,,,,,,,,,,,,,,,,,,,,,,,,,,,,,,,,,,,,,,,,,,,,,,,,,,,,,,,,,,,,,,,,,,,,,,,,,,,,,,,,,,,,,,,,,,,,,,,,,,,,,,,,,,,,,,,,,,,,,,,,,,,,,,,,,,,,,,,,,,,,,,,,,,,,,,,,,,,
0,13,13,66,1,,61078ef40ecc3ae99ceb0b07,62c539c880569701d2f2d375,2022-07-06_24h29.33.331,Colour_Asymmetry_Pilot,2022.1.3,MacIntel,60.0024001,62c50e9c1127f2cd403a315f,,,,,,,,,,,,,,,,,,,,,,,,,,,,,,,,,,,,,,,,,,,,,,,,,,,,,,,,,,,,,,,,,,,,,,,,,,,,,,,,,,,,,,,,,,,,,,,,,,,,,,,,,,,,,,,,,,,,,,,,,,,,,,,,,,,,,,,,,,,,,,,,,,,,,,,,,,,,,,,,,,,
0,14,14,7,1,,61078ef40ecc3ae99ceb0b07,62c539c880569701d2f2d375,2022-07-06_24h29.33.331,Colour_Asymmetry_Pilot,2022.1.3,MacIntel,60.0024001,62c50e9c1127f2cd403a315f,,,,,,,,,,,,,,,,,,,,,,,,,,,,,,,,,,,,,,,,,,,,,,,,,,,,,,,,,,,,,,,,,,,,,,,,,,,,,,,,,,,,,,,,,,,,,,,,,,,,,,,,,,,,,,,,,,,,,,,,,,,,,,,,,,,,,,,,,,,,,,,,,,,,,,,,,,,,,,,,,,,
0,15,15,19,1,,61078ef40ecc3ae99ceb0b07,62c539c880569701d2f2d375,2022-07-06_24h29.33.331,Colour_Asymmetry_Pilot,2022.1.3,MacIntel,60.0024001,62c50e9c1127f2cd403a315f,,,,,,,,,,,,,,,,,,,,,,,,,,,,,,,,,,,,,,,,,,,,,,,,,,,,,,,,,,,,,,,,,,,,,,,,,,,,,,,,,,,,,,,,,,,,,,,,,,,,,,,,,,,,,,,,,,,,,,,,,,,,,,,,,,,,,,,,,,,,,,,,,,,,,,,,,,,,,,,,,,,
0,16,16,24,1,,61078ef40ecc3ae99ceb0b07,62c539c880569701d2f2d375,2022-07-06_24h29.33.331,Colour_Asymmetry_Pilot,2022.1.3,MacIntel,60.0024001,62c50e9c1127f2cd403a315f,,,,,,,,,,,,,,,,,,,,,,,,,,,,,,,,,,,,,,,,,,,,,,,,,,,,,,,,,,,,,,,,,,,,,,,,,,,,,,,,,,,,,,,,,,,,,,,,,,,,,,,,,,,,,,,,,,,,,,,,,,,,,,,,,,,,,,,,,,,,,,,,,,,,,,,,,,,,,,,,,,,
0,17,17,78,1,,61078ef40ecc3ae99ceb0b07,62c539c880569701d2f2d375,2022-07-06_24h29.33.331,Colour_Asymmetry_Pilot,2022.1.3,MacIntel,60.0024001,62c50e9c1127f2cd403a315f,,,,,,,,,,,,,,,,,,,,,,,,,,,,,,,,,,,,,,,,,,,,,,,,,,,,,,,,,,,,,,,,,,,,,,,,,,,,,,,,,,,,,,,,,,,,,,,,,,,,,,,,,,,,,,,,,,,,,,,,,,,,,,,,,,,,,,,,,,,,,,,,,,,,,,,,,,,,,,,,,,,
0,18,18,76,1,,61078ef40ecc3ae99ceb0b07,62c539c880569701d2f2d375,2022-07-06_24h29.33.331,Colour_Asymmetry_Pilot,2022.1.3,MacIntel,60.0024001,62c50e9c1127f2cd403a315f,,,,,,,,,,,,,,,,,,,,,,,,,,,,,,,,,,,,,,,,,,,,,,,,,,,,,,,,,,,,,,,,,,,,,,,,,,,,,,,,,,,,,,,,,,,,,,,,,,,,,,,,,,,,,,,,,,,,,,,,,,,,,,,,,,,,,,,,,,,,,,,,,,,,,,,,,,,,,,,,,,,
0,19,19,51,1,,61078ef40ecc3ae99ceb0b07,62c539c880569701d2f2d375,2022-07-06_24h29.33.331,Colour_Asymmetry_Pilot,2022.1.3,MacIntel,60.0024001,62c50e9c1127f2cd403a315f,,,,,,,,,,,,,,,,,,,,,,,,,,,,,,,,,,,,,,,,,,,,,,,,,,,,,,,,,,,,,,,,,,,,,,,,,,,,,,,,,,,,,,,,,,,,,,,,,,,,,,,,,,,,,,,,,,,,,,,,,,,,,,,,,,,,,,,,,,,,,,,,,,,,,,,,,,,,,,,,,,,
0,20,20,64,1,,61078ef40ecc3ae99ceb0b07,62c539c880569701d2f2d375,2022-07-06_24h29.33.331,Colour_Asymmetry_Pilot,2022.1.3,MacIntel,60.0024001,62c50e9c1127f2cd403a315f,,,,,,,,,,,,,,,,,,,,,,,,,,,,,,,,,,,,,,,,,,,,,,,,,,,,,,,,,,,,,,,,,,,,,,,,,,,,,,,,,,,,,,,,,,,,,,,,,,,,,,,,,,,,,,,,,,,,,,,,,,,,,,,,,,,,,,,,,,,,,,,,,,,,,,,,,,,,,,,,,,,
0,21,21,36,1,,61078ef40ecc3ae99ceb0b07,62c539c880569701d2f2d375,2022-07-06_24h29.33.331,Colour_Asymmetry_Pilot,2022.1.3,MacIntel,60.0024001,62c50e9c1127f2cd403a315f,,,,,,,,,,,,,,,,,,,,,,,,,,,,,,,,,,,,,,,,,,,,,,,,,,,,,,,,,,,,,,,,,,,,,,,,,,,,,,,,,,,,,,,,,,,,,,,,,,,,,,,,,,,,,,,,,,,,,,,,,,,,,,,,,,,,,,,,,,,,,,,,,,,,,,,,,,,,,,,,,,,
0,22,22,38,1,,61078ef40ecc3ae99ceb0b07,62c539c880569701d2f2d375,2022-07-06_24h29.33.331,Colour_Asymmetry_Pilot,2022.1.3,MacIntel,60.0024001,62c50e9c1127f2cd403a315f,,,,,,,,,,,,,,,,,,,,,,,,,,,,,,,,,,,,,,,,,,,,,,,,,,,,,,,,,,,,,,,,,,,,,,,,,,,,,,,,,,,,,,,,,,,,,,,,,,,,,,,,,,,,,,,,,,,,,,,,,,,,,,,,,,,,,,,,,,,,,,,,,,,,,,,,,,,,,,,,,,,
0,23,23,41,1,,61078ef40ecc3ae99ceb0b07,62c539c880569701d2f2d375,2022-07-06_24h29.33.331,Colour_Asymmetry_Pilot,2022.1.3,MacIntel,60.0024001,62c50e9c1127f2cd403a315f,,,,,,,,,,,,,,,,,,,,,,,,,,,,,,,,,,,,,,,,,,,,,,,,,,,,,,,,,,,,,,,,,,,,,,,,,,,,,,,,,,,,,,,,,,,,,,,,,,,,,,,,,,,,,,,,,,,,,,,,,,,,,,,,,,,,,,,,,,,,,,,,,,,,,,,,,,,,,,,,,,,
0,24,24,22,1,,61078ef40ecc3ae99ceb0b07,62c539c880569701d2f2d375,2022-07-06_24h29.33.331,Colour_Asymmetry_Pilot,2022.1.3,MacIntel,60.0024001,62c50e9c1127f2cd403a315f,,,,,,,,,,,,,,,,,,,,,,,,,,,,,,,,,,,,,,,,,,,,,,,,,,,,,,,,,,,,,,,,,,,,,,,,,,,,,,,,,,,,,,,,,,,,,,,,,,,,,,,,,,,,,,,,,,,,,,,,,,,,,,,,,,,,,,,,,,,,,,,,,,,,,,,,,,,,,,,,,,,
0,25,25,23,1,,61078ef40ecc3ae99ceb0b07,62c539c880569701d2f2d375,2022-07-06_24h29.33.331,Colour_Asymmetry_Pilot,2022.1.3,MacIntel,60.0024001,62c50e9c1127f2cd403a315f,,,,,,,,,,,,,,,,,,,,,,,,,,,,,,,,,,,,,,,,,,,,,,,,,,,,,,,,,,,,,,,,,,,,,,,,,,,,,,,,,,,,,,,,,,,,,,,,,,,,,,,,,,,,,,,,,,,,,,,,,,,,,,,,,,,,,,,,,,,,,,,,,,,,,,,,,,,,,,,,,,,
0,26,26,73,1,,61078ef40ecc3ae99ceb0b07,62c539c880569701d2f2d375,2022-07-06_24h29.33.331,Colour_Asymmetry_Pilot,2022.1.3,MacIntel,60.0024001,62c50e9c1127f2cd403a315f,,,,,,,,,,,,,,,,,,,,,,,,,,,,,,,,,,,,,,,,,,,,,,,,,,,,,,,,,,,,,,,,,,,,,,,,,,,,,,,,,,,,,,,,,,,,,,,,,,,,,,,,,,,,,,,,,,,,,,,,,,,,,,,,,,,,,,,,,,,,,,,,,,,,,,,,,,,,,,,,,,,
0,27,27,45,1,,61078ef40ecc3ae99ceb0b07,62c539c880569701d2f2d375,2022-07-06_24h29.33.331,Colour_Asymmetry_Pilot,2022.1.3,MacIntel,60.0024001,62c50e9c1127f2cd403a315f,,,,,,,,,,,,,,,,,,,,,,,,,,,,,,,,,,,,,,,,,,,,,,,,,,,,,,,,,,,,,,,,,,,,,,,,,,,,,,,,,,,,,,,,,,,,,,,,,,,,,,,,,,,,,,,,,,,,,,,,,,,,,,,,,,,,,,,,,,,,,,,,,,,,,,,,,,,,,,,,,,,
0,28,28,52,1,,61078ef40ecc3ae99ceb0b07,62c539c880569701d2f2d375,2022-07-06_24h29.33.331,Colour_Asymmetry_Pilot,2022.1.3,MacIntel,60.0024001,62c50e9c1127f2cd403a315f,,,,,,,,,,,,,,,,,,,,,,,,,,,,,,,,,,,,,,,,,,,,,,,,,,,,,,,,,,,,,,,,,,,,,,,,,,,,,,,,,,,,,,,,,,,,,,,,,,,,,,,,,,,,,,,,,,,,,,,,,,,,,,,,,,,,,,,,,,,,,,,,,,,,,,,,,,,,,,,,,,,
0,29,29,48,1,,61078ef40ecc3ae99ceb0b07,62c539c880569701d2f2d375,2022-07-06_24h29.33.331,Colour_Asymmetry_Pilot,2022.1.3,MacIntel,60.0024001,62c50e9c1127f2cd403a315f,,,,,,,,,,,,,,,,,,,,,,,,,,,,,,,,,,,,,,,,,,,,,,,,,,,,,,,,,,,,,,,,,,,,,,,,,,,,,,,,,,,,,,,,,,,,,,,,,,,,,,,,,,,,,,,,,,,,,,,,,,,,,,,,,,,,,,,,,,,,,,,,,,,,,,,,,,,,,,,,,,,
0,30,30,16,1,,61078ef40ecc3ae99ceb0b07,62c539c880569701d2f2d375,2022-07-06_24h29.33.331,Colour_Asymmetry_Pilot,2022.1.3,MacIntel,60.0024001,62c50e9c1127f2cd403a315f,,,,,,,,,,,,,,,,,,,,,,,,,,,,,,,,,,,,,,,,,,,,,,,,,,,,,,,,,,,,,,,,,,,,,,,,,,,,,,,,,,,,,,,,,,,,,,,,,,,,,,,,,,,,,,,,,,,,,,,,,,,,,,,,,,,,,,,,,,,,,,,,,,,,,,,,,,,,,,,,,,,
0,31,31,92,1,,61078ef40ecc3ae99ceb0b07,62c539c880569701d2f2d375,2022-07-06_24h29.33.331,Colour_Asymmetry_Pilot,2022.1.3,MacIntel,60.0024001,62c50e9c1127f2cd403a315f,,,,,,,,,,,,,,,,,,,,,,,,,,,,,,,,,,,,,,,,,,,,,,,,,,,,,,,,,,,,,,,,,,,,,,,,,,,,,,,,,,,,,,,,,,,,,,,,,,,,,,,,,,,,,,,,,,,,,,,,,,,,,,,,,,,,,,,,,,,,,,,,,,,,,,,,,,,,,,,,,,,
0,32,32,14,1,,61078ef40ecc3ae99ceb0b07,62c539c880569701d2f2d375,2022-07-06_24h29.33.331,Colour_Asymmetry_Pilot,2022.1.3,MacIntel,60.0024001,62c50e9c1127f2cd403a315f,,,,,,,,,,,,,,,,,,,,,,,,,,,,,,,,,,,,,,,,,,,,,,,,,,,,,,,,,,,,,,,,,,,,,,,,,,,,,,,,,,,,,,,,,,,,,,,,,,,,,,,,,,,,,,,,,,,,,,,,,,,,,,,,,,,,,,,,,,,,,,,,,,,,,,,,,,,,,,,,,,,
0,33,33,90,1,,61078ef40ecc3ae99ceb0b07,62c539c880569701d2f2d375,2022-07-06_24h29.33.331,Colour_Asymmetry_Pilot,2022.1.3,MacIntel,60.0024001,62c50e9c1127f2cd403a315f,,,,,,,,,,,,,,,,,,,,,,,,,,,,,,,,,,,,,,,,,,,,,,,,,,,,,,,,,,,,,,,,,,,,,,,,,,,,,,,,,,,,,,,,,,,,,,,,,,,,,,,,,,,,,,,,,,,,,,,,,,,,,,,,,,,,,,,,,,,,,,,,,,,,,,,,,,,,,,,,,,,
0,34,34,62,1,,61078ef40ecc3ae99ceb0b07,62c539c880569701d2f2d375,2022-07-06_24h29.33.331,Colour_Asymmetry_Pilot,2022.1.3,MacIntel,60.0024001,62c50e9c1127f2cd403a315f,,,,,,,,,,,,,,,,,,,,,,,,,,,,,,,,,,,,,,,,,,,,,,,,,,,,,,,,,,,,,,,,,,,,,,,,,,,,,,,,,,,,,,,,,,,,,,,,,,,,,,,,,,,,,,,,,,,,,,,,,,,,,,,,,,,,,,,,,,,,,,,,,,,,,,,,,,,,,,,,,,,
0,35,35,44,1,,61078ef40ecc3ae99ceb0b07,62c539c880569701d2f2d375,2022-07-06_24h29.33.331,Colour_Asymmetry_Pilot,2022.1.3,MacIntel,60.0024001,62c50e9c1127f2cd403a315f,,,,,,,,,,,,,,,,,,,,,,,,,,,,,,,,,,,,,,,,,,,,,,,,,,,,,,,,,,,,,,,,,,,,,,,,,,,,,,,,,,,,,,,,,,,,,,,,,,,,,,,,,,,,,,,,,,,,,,,,,,,,,,,,,,,,,,,,,,,,,,,,,,,,,,,,,,,,,,,,,,,
0,36,36,60,1,,61078ef40ecc3ae99ceb0b07,62c539c880569701d2f2d375,2022-07-06_24h29.33.331,Colour_Asymmetry_Pilot,2022.1.3,MacIntel,60.0024001,62c50e9c1127f2cd403a315f,,,,,,,,,,,,,,,,,,,,,,,,,,,,,,,,,,,,,,,,,,,,,,,,,,,,,,,,,,,,,,,,,,,,,,,,,,,,,,,,,,,,,,,,,,,,,,,,,,,,,,,,,,,,,,,,,,,,,,,,,,,,,,,,,,,,,,,,,,,,,,,,,,,,,,,,,,,,,,,,,,,
0,37,37,10,1,,61078ef40ecc3ae99ceb0b07,62c539c880569701d2f2d375,2022-07-06_24h29.33.331,Colour_Asymmetry_Pilot,2022.1.3,MacIntel,60.0024001,62c50e9c1127f2cd403a315f,,,,,,,,,,,,,,,,,,,,,,,,,,,,,,,,,,,,,,,,,,,,,,,,,,,,,,,,,,,,,,,,,,,,,,,,,,,,,,,,,,,,,,,,,,,,,,,,,,,,,,,,,,,,,,,,,,,,,,,,,,,,,,,,,,,,,,,,,,,,,,,,,,,,,,,,,,,,,,,,,,,
0,38,38,2,1,,61078ef40ecc3ae99ceb0b07,62c539c880569701d2f2d375,2022-07-06_24h29.33.331,Colour_Asymmetry_Pilot,2022.1.3,MacIntel,60.0024001,62c50e9c1127f2cd403a315f,,,,,,,,,,,,,,,,,,,,,,,,,,,,,,,,,,,,,,,,,,,,,,,,,,,,,,,,,,,,,,,,,,,,,,,,,,,,,,,,,,,,,,,,,,,,,,,,,,,,,,,,,,,,,,,,,,,,,,,,,,,,,,,,,,,,,,,,,,,,,,,,,,,,,,,,,,,,,,,,,,,
0,39,39,42,1,,61078ef40ecc3ae99ceb0b07,62c539c880569701d2f2d375,2022-07-06_24h29.33.331,Colour_Asymmetry_Pilot,2022.1.3,MacIntel,60.0024001,62c50e9c1127f2cd403a315f,,,,,,,,,,,,,,,,,,,,,,,,,,,,,,,,,,,,,,,,,,,,,,,,,,,,,,,,,,,,,,,,,,,,,,,,,,,,,,,,,,,,,,,,,,,,,,,,,,,,,,,,,,,,,,,,,,,,,,,,,,,,,,,,,,,,,,,,,,,,,,,,,,,,,,,,,,,,,,,,,,,
0,40,40,33,1,,61078ef40ecc3ae99ceb0b07,62c539c880569701d2f2d375,2022-07-06_24h29.33.331,Colour_Asymmetry_Pilot,2022.1.3,MacIntel,60.0024001,62c50e9c1127f2cd403a315f,,,,,,,,,,,,,,,,,,,,,,,,,,,,,,,,,,,,,,,,,,,,,,,,,,,,,,,,,,,,,,,,,,,,,,,,,,,,,,,,,,,,,,,,,,,,,,,,,,,,,,,,,,,,,,,,,,,,,,,,,,,,,,,,,,,,,,,,,,,,,,,,,,,,,,,,,,,,,,,,,,,
0,41,41,58,1,,61078ef40ecc3ae99ceb0b07,62c539c880569701d2f2d375,2022-07-06_24h29.33.331,Colour_Asymmetry_Pilot,2022.1.3,MacIntel,60.0024001,62c50e9c1127f2cd403a315f,,,,,,,,,,,,,,,,,,,,,,,,,,,,,,,,,,,,,,,,,,,,,,,,,,,,,,,,,,,,,,,,,,,,,,,,,,,,,,,,,,,,,,,,,,,,,,,,,,,,,,,,,,,,,,,,,,,,,,,,,,,,,,,,,,,,,,,,,,,,,,,,,,,,,,,,,,,,,,,,,,,
0,42,42,28,1,,61078ef40ecc3ae99ceb0b07,62c539c880569701d2f2d375,2022-07-06_24h29.33.331,Colour_Asymmetry_Pilot,2022.1.3,MacIntel,60.0024001,62c50e9c1127f2cd403a315f,,,,,,,,,,,,,,,,,,,,,,,,,,,,,,,,,,,,,,,,,,,,,,,,,,,,,,,,,,,,,,,,,,,,,,,,,,,,,,,,,,,,,,,,,,,,,,,,,,,,,,,,,,,,,,,,,,,,,,,,,,,,,,,,,,,,,,,,,,,,,,,,,,,,,,,,,,,,,,,,,,,
0,43,43,37,1,,61078ef40ecc3ae99ceb0b07,62c539c880569701d2f2d375,2022-07-06_24h29.33.331,Colour_Asymmetry_Pilot,2022.1.3,MacIntel,60.0024001,62c50e9c1127f2cd403a315f,,,,,,,,,,,,,,,,,,,,,,,,,,,,,,,,,,,,,,,,,,,,,,,,,,,,,,,,,,,,,,,,,,,,,,,,,,,,,,,,,,,,,,,,,,,,,,,,,,,,,,,,,,,,,,,,,,,,,,,,,,,,,,,,,,,,,,,,,,,,,,,,,,,,,,,,,,,,,,,,,,,
0,44,44,35,1,,61078ef40ecc3ae99ceb0b07,62c539c880569701d2f2d375,2022-07-06_24h29.33.331,Colour_Asymmetry_Pilot,2022.1.3,MacIntel,60.0024001,62c50e9c1127f2cd403a315f,,,,,,,,,,,,,,,,,,,,,,,,,,,,,,,,,,,,,,,,,,,,,,,,,,,,,,,,,,,,,,,,,,,,,,,,,,,,,,,,,,,,,,,,,,,,,,,,,,,,,,,,,,,,,,,,,,,,,,,,,,,,,,,,,,,,,,,,,,,,,,,,,,,,,,,,,,,,,,,,,,,
0,45,45,18,1,,61078ef40ecc3ae99ceb0b07,62c539c880569701d2f2d375,2022-07-06_24h29.33.331,Colour_Asymmetry_Pilot,2022.1.3,MacIntel,60.0024001,62c50e9c1127f2cd403a315f,,,,,,,,,,,,,,,,,,,,,,,,,,,,,,,,,,,,,,,,,,,,,,,,,,,,,,,,,,,,,,,,,,,,,,,,,,,,,,,,,,,,,,,,,,,,,,,,,,,,,,,,,,,,,,,,,,,,,,,,,,,,,,,,,,,,,,,,,,,,,,,,,,,,,,,,,,,,,,,,,,,
0,46,46,70,1,,61078ef40ecc3ae99ceb0b07,62c539c880569701d2f2d375,2022-07-06_24h29.33.331,Colour_Asymmetry_Pilot,2022.1.3,MacIntel,60.0024001,62c50e9c1127f2cd403a315f,,,,,,,,,,,,,,,,,,,,,,,,,,,,,,,,,,,,,,,,,,,,,,,,,,,,,,,,,,,,,,,,,,,,,,,,,,,,,,,,,,,,,,,,,,,,,,,,,,,,,,,,,,,,,,,,,,,,,,,,,,,,,,,,,,,,,,,,,,,,,,,,,,,,,,,,,,,,,,,,,,,
0,47,47,63,1,,61078ef40ecc3ae99ceb0b07,62c539c880569701d2f2d375,2022-07-06_24h29.33.331,Colour_Asymmetry_Pilot,2022.1.3,MacIntel,60.0024001,62c50e9c1127f2cd403a315f,,,,,,,,,,,,,,,,,,,,,,,,,,,,,,,,,,,,,,,,,,,,,,,,,,,,,,,,,,,,,,,,,,,,,,,,,,,,,,,,,,,,,,,,,,,,,,,,,,,,,,,,,,,,,,,,,,,,,,,,,,,,,,,,,,,,,,,,,,,,,,,,,,,,,,,,,,,,,,,,,,,
0,48,48,81,1,,61078ef40ecc3ae99ceb0b07,62c539c880569701d2f2d375,2022-07-06_24h29.33.331,Colour_Asymmetry_Pilot,2022.1.3,MacIntel,60.0024001,62c50e9c1127f2cd403a315f,,,,,,,,,,,,,,,,,,,,,,,,,,,,,,,,,,,,,,,,,,,,,,,,,,,,,,,,,,,,,,,,,,,,,,,,,,,,,,,,,,,,,,,,,,,,,,,,,,,,,,,,,,,,,,,,,,,,,,,,,,,,,,,,,,,,,,,,,,,,,,,,,,,,,,,,,,,,,,,,,,,
0,49,49,11,1,,61078ef40ecc3ae99ceb0b07,62c539c880569701d2f2d375,2022-07-06_24h29.33.331,Colour_Asymmetry_Pilot,2022.1.3,MacIntel,60.0024001,62c50e9c1127f2cd403a315f,,,,,,,,,,,,,,,,,,,,,,,,,,,,,,,,,,,,,,,,,,,,,,,,,,,,,,,,,,,,,,,,,,,,,,,,,,,,,,,,,,,,,,,,,,,,,,,,,,,,,,,,,,,,,,,,,,,,,,,,,,,,,,,,,,,,,,,,,,,,,,,,,,,,,,,,,,,,,,,,,,,
0,50,50,85,1,,61078ef40ecc3ae99ceb0b07,62c539c880569701d2f2d375,2022-07-06_24h29.33.331,Colour_Asymmetry_Pilot,2022.1.3,MacIntel,60.0024001,62c50e9c1127f2cd403a315f,,,,,,,,,,,,,,,,,,,,,,,,,,,,,,,,,,,,,,,,,,,,,,,,,,,,,,,,,,,,,,,,,,,,,,,,,,,,,,,,,,,,,,,,,,,,,,,,,,,,,,,,,,,,,,,,,,,,,,,,,,,,,,,,,,,,,,,,,,,,,,,,,,,,,,,,,,,,,,,,,,,
0,51,51,79,1,,61078ef40ecc3ae99ceb0b07,62c539c880569701d2f2d375,2022-07-06_24h29.33.331,Colour_Asymmetry_Pilot,2022.1.3,MacIntel,60.0024001,62c50e9c1127f2cd403a315f,,,,,,,,,,,,,,,,,,,,,,,,,,,,,,,,,,,,,,,,,,,,,,,,,,,,,,,,,,,,,,,,,,,,,,,,,,,,,,,,,,,,,,,,,,,,,,,,,,,,,,,,,,,,,,,,,,,,,,,,,,,,,,,,,,,,,,,,,,,,,,,,,,,,,,,,,,,,,,,,,,,
0,52,52,9,1,,61078ef40ecc3ae99ceb0b07,62c539c880569701d2f2d375,2022-07-06_24h29.33.331,Colour_Asymmetry_Pilot,2022.1.3,MacIntel,60.0024001,62c50e9c1127f2cd403a315f,,,,,,,,,,,,,,,,,,,,,,,,,,,,,,,,,,,,,,,,,,,,,,,,,,,,,,,,,,,,,,,,,,,,,,,,,,,,,,,,,,,,,,,,,,,,,,,,,,,,,,,,,,,,,,,,,,,,,,,,,,,,,,,,,,,,,,,,,,,,,,,,,,,,,,,,,,,,,,,,,,,
0,53,53,39,1,,61078ef40ecc3ae99ceb0b07,62c539c880569701d2f2d375,2022-07-06_24h29.33.331,Colour_Asymmetry_Pilot,2022.1.3,MacIntel,60.0024001,62c50e9c1127f2cd403a315f,,,,,,,,,,,,,,,,,,,,,,,,,,,,,,,,,,,,,,,,,,,,,,,,,,,,,,,,,,,,,,,,,,,,,,,,,,,,,,,,,,,,,,,,,,,,,,,,,,,,,,,,,,,,,,,,,,,,,,,,,,,,,,,,,,,,,,,,,,,,,,,,,,,,,,,,,,,,,,,,,,,
0,54,54,56,1,,61078ef40ecc3ae99ceb0b07,62c539c880569701d2f2d375,2022-07-06_24h29.33.331,Colour_Asymmetry_Pilot,2022.1.3,MacIntel,60.0024001,62c50e9c1127f2cd403a315f,,,,,,,,,,,,,,,,,,,,,,,,,,,,,,,,,,,,,,,,,,,,,,,,,,,,,,,,,,,,,,,,,,,,,,,,,,,,,,,,,,,,,,,,,,,,,,,,,,,,,,,,,,,,,,,,,,,,,,,,,,,,,,,,,,,,,,,,,,,,,,,,,,,,,,,,,,,,,,,,,,,
0,55,55,26,1,,61078ef40ecc3ae99ceb0b07,62c539c880569701d2f2d375,2022-07-06_24h29.33.331,Colour_Asymmetry_Pilot,2022.1.3,MacIntel,60.0024001,62c50e9c1127f2cd403a315f,,,,,,,,,,,,,,,,,,,,,,,,,,,,,,,,,,,,,,,,,,,,,,,,,,,,,,,,,,,,,,,,,,,,,,,,,,,,,,,,,,,,,,,,,,,,,,,,,,,,,,,,,,,,,,,,,,,,,,,,,,,,,,,,,,,,,,,,,,,,,,,,,,,,,,,,,,,,,,,,,,,
0,56,56,87,1,,61078ef40ecc3ae99ceb0b07,62c539c880569701d2f2d375,2022-07-06_24h29.33.331,Colour_Asymmetry_Pilot,2022.1.3,MacIntel,60.0024001,62c50e9c1127f2cd403a315f,,,,,,,,,,,,,,,,,,,,,,,,,,,,,,,,,,,,,,,,,,,,,,,,,,,,,,,,,,,,,,,,,,,,,,,,,,,,,,,,,,,,,,,,,,,,,,,,,,,,,,,,,,,,,,,,,,,,,,,,,,,,,,,,,,,,,,,,,,,,,,,,,,,,,,,,,,,,,,,,,,,
0,57,57,27,1,,61078ef40ecc3ae99ceb0b07,62c539c880569701d2f2d375,2022-07-06_24h29.33.331,Colour_Asymmetry_Pilot,2022.1.3,MacIntel,60.0024001,62c50e9c1127f2cd403a315f,,,,,,,,,,,,,,,,,,,,,,,,,,,,,,,,,,,,,,,,,,,,,,,,,,,,,,,,,,,,,,,,,,,,,,,,,,,,,,,,,,,,,,,,,,,,,,,,,,,,,,,,,,,,,,,,,,,,,,,,,,,,,,,,,,,,,,,,,,,,,,,,,,,,,,,,,,,,,,,,,,,
0,58,58,21,1,,61078ef40ecc3ae99ceb0b07,62c539c880569701d2f2d375,2022-07-06_24h29.33.331,Colour_Asymmetry_Pilot,2022.1.3,MacIntel,60.0024001,62c50e9c1127f2cd403a315f,,,,,,,,,,,,,,,,,,,,,,,,,,,,,,,,,,,,,,,,,,,,,,,,,,,,,,,,,,,,,,,,,,,,,,,,,,,,,,,,,,,,,,,,,,,,,,,,,,,,,,,,,,,,,,,,,,,,,,,,,,,,,,,,,,,,,,,,,,,,,,,,,,,,,,,,,,,,,,,,,,,
0,59,59,55,1,,61078ef40ecc3ae99ceb0b07,62c539c880569701d2f2d375,2022-07-06_24h29.33.331,Colour_Asymmetry_Pilot,2022.1.3,MacIntel,60.0024001,62c50e9c1127f2cd403a315f,,,,,,,,,,,,,,,,,,,,,,,,,,,,,,,,,,,,,,,,,,,,,,,,,,,,,,,,,,,,,,,,,,,,,,,,,,,,,,,,,,,,,,,,,,,,,,,,,,,,,,,,,,,,,,,,,,,,,,,,,,,,,,,,,,,,,,,,,,,,,,,,,,,,,,,,,,,,,,,,,,,
0,60,60,83,1,,61078ef40ecc3ae99ceb0b07,62c539c880569701d2f2d375,2022-07-06_24h29.33.331,Colour_Asymmetry_Pilot,2022.1.3,MacIntel,60.0024001,62c50e9c1127f2cd403a315f,,,,,,,,,,,,,,,,,,,,,,,,,,,,,,,,,,,,,,,,,,,,,,,,,,,,,,,,,,,,,,,,,,,,,,,,,,,,,,,,,,,,,,,,,,,,,,,,,,,,,,,,,,,,,,,,,,,,,,,,,,,,,,,,,,,,,,,,,,,,,,,,,,,,,,,,,,,,,,,,,,,
0,61,61,29,1,,61078ef40ecc3ae99ceb0b07,62c539c880569701d2f2d375,2022-07-06_24h29.33.331,Colour_Asymmetry_Pilot,2022.1.3,MacIntel,60.0024001,62c50e9c1127f2cd403a315f,,,,,,,,,,,,,,,,,,,,,,,,,,,,,,,,,,,,,,,,,,,,,,,,,,,,,,,,,,,,,,,,,,,,,,,,,,,,,,,,,,,,,,,,,,,,,,,,,,,,,,,,,,,,,,,,,,,,,,,,,,,,,,,,,,,,,,,,,,,,,,,,,,,,,,,,,,,,,,,,,,,
0,62,62,74,1,,61078ef40ecc3ae99ceb0b07,62c539c880569701d2f2d375,2022-07-06_24h29.33.331,Colour_Asymmetry_Pilot,2022.1.3,MacIntel,60.0024001,62c50e9c1127f2cd403a315f,,,,,,,,,,,,,,,,,,,,,,,,,,,,,,,,,,,,,,,,,,,,,,,,,,,,,,,,,,,,,,,,,,,,,,,,,,,,,,,,,,,,,,,,,,,,,,,,,,,,,,,,,,,,,,,,,,,,,,,,,,,,,,,,,,,,,,,,,,,,,,,,,,,,,,,,,,,,,,,,,,,
0,63,63,32,1,,61078ef40ecc3ae99ceb0b07,62c539c880569701d2f2d375,2022-07-06_24h29.33.331,Colour_Asymmetry_Pilot,2022.1.3,MacIntel,60.0024001,62c50e9c1127f2cd403a315f,,,,,,,,,,,,,,,,,,,,,,,,,,,,,,,,,,,,,,,,,,,,,,,,,,,,,,,,,,,,,,,,,,,,,,,,,,,,,,,,,,,,,,,,,,,,,,,,,,,,,,,,,,,,,,,,,,,,,,,,,,,,,,,,,,,,,,,,,,,,,,,,,,,,,,,,,,,,,,,,,,,
0,64,64,82,1,,61078ef40ecc3ae99ceb0b07,62c539c880569701d2f2d375,2022-07-06_24h29.33.331,Colour_Asymmetry_Pilot,2022.1.3,MacIntel,60.0024001,62c50e9c1127f2cd403a315f,,,,,,,,,,,,,,,,,,,,,,,,,,,,,,,,,,,,,,,,,,,,,,,,,,,,,,,,,,,,,,,,,,,,,,,,,,,,,,,,,,,,,,,,,,,,,,,,,,,,,,,,,,,,,,,,,,,,,,,,,,,,,,,,,,,,,,,,,,,,,,,,,,,,,,,,,,,,,,,,,,,
0,65,65,91,1,,61078ef40ecc3ae99ceb0b07,62c539c880569701d2f2d375,2022-07-06_24h29.33.331,Colour_Asymmetry_Pilot,2022.1.3,MacIntel,60.0024001,62c50e9c1127f2cd403a315f,,,,,,,,,,,,,,,,,,,,,,,,,,,,,,,,,,,,,,,,,,,,,,,,,,,,,,,,,,,,,,,,,,,,,,,,,,,,,,,,,,,,,,,,,,,,,,,,,,,,,,,,,,,,,,,,,,,,,,,,,,,,,,,,,,,,,,,,,,,,,,,,,,,,,,,,,,,,,,,,,,,
0,66,66,6,1,,61078ef40ecc3ae99ceb0b07,62c539c880569701d2f2d375,2022-07-06_24h29.33.331,Colour_Asymmetry_Pilot,2022.1.3,MacIntel,60.0024001,62c50e9c1127f2cd403a315f,,,,,,,,,,,,,,,,,,,,,,,,,,,,,,,,,,,,,,,,,,,,,,,,,,,,,,,,,,,,,,,,,,,,,,,,,,,,,,,,,,,,,,,,,,,,,,,,,,,,,,,,,,,,,,,,,,,,,,,,,,,,,,,,,,,,,,,,,,,,,,,,,,,,,,,,,,,,,,,,,,,
0,67,67,20,1,,61078ef40ecc3ae99ceb0b07,62c539c880569701d2f2d375,2022-07-06_24h29.33.331,Colour_Asymmetry_Pilot,2022.1.3,MacIntel,60.0024001,62c50e9c1127f2cd403a315f,,,,,,,,,,,,,,,,,,,,,,,,,,,,,,,,,,,,,,,,,,,,,,,,,,,,,,,,,,,,,,,,,,,,,,,,,,,,,,,,,,,,,,,,,,,,,,,,,,,,,,,,,,,,,,,,,,,,,,,,,,,,,,,,,,,,,,,,,,,,,,,,,,,,,,,,,,,,,,,,,,,
0,68,68,17,1,,61078ef40ecc3ae99ceb0b07,62c539c880569701d2f2d375,2022-07-06_24h29.33.331,Colour_Asymmetry_Pilot,2022.1.3,MacIntel,60.0024001,62c50e9c1127f2cd403a315f,,,,,,,,,,,,,,,,,,,,,,,,,,,,,,,,,,,,,,,,,,,,,,,,,,,,,,,,,,,,,,,,,,,,,,,,,,,,,,,,,,,,,,,,,,,,,,,,,,,,,,,,,,,,,,,,,,,,,,,,,,,,,,,,,,,,,,,,,,,,,,,,,,,,,,,,,,,,,,,,,,,
0,69,69,71,1,,61078ef40ecc3ae99ceb0b07,62c539c880569701d2f2d375,2022-07-06_24h29.33.331,Colour_Asymmetry_Pilot,2022.1.3,MacIntel,60.0024001,62c50e9c1127f2cd403a315f,,,,,,,,,,,,,,,,,,,,,,,,,,,,,,,,,,,,,,,,,,,,,,,,,,,,,,,,,,,,,,,,,,,,,,,,,,,,,,,,,,,,,,,,,,,,,,,,,,,,,,,,,,,,,,,,,,,,,,,,,,,,,,,,,,,,,,,,,,,,,,,,,,,,,,,,,,,,,,,,,,,
0,70,70,54,1,,61078ef40ecc3ae99ceb0b07,62c539c880569701d2f2d375,2022-07-06_24h29.33.331,Colour_Asymmetry_Pilot,2022.1.3,MacIntel,60.0024001,62c50e9c1127f2cd403a315f,,,,,,,,,,,,,,,,,,,,,,,,,,,,,,,,,,,,,,,,,,,,,,,,,,,,,,,,,,,,,,,,,,,,,,,,,,,,,,,,,,,,,,,,,,,,,,,,,,,,,,,,,,,,,,,,,,,,,,,,,,,,,,,,,,,,,,,,,,,,,,,,,,,,,,,,,,,,,,,,,,,
0,71,71,3,1,,61078ef40ecc3ae99ceb0b07,62c539c880569701d2f2d375,2022-07-06_24h29.33.331,Colour_Asymmetry_Pilot,2022.1.3,MacIntel,60.0024001,62c50e9c1127f2cd403a315f,,,,,,,,,,,,,,,,,,,,,,,,,,,,,,,,,,,,,,,,,,,,,,,,,,,,,,,,,,,,,,,,,,,,,,,,,,,,,,,,,,,,,,,,,,,,,,,,,,,,,,,,,,,,,,,,,,,,,,,,,,,,,,,,,,,,,,,,,,,,,,,,,,,,,,,,,,,,,,,,,,,
0,72,72,13,1,,61078ef40ecc3ae99ceb0b07,62c539c880569701d2f2d375,2022-07-06_24h29.33.331,Colour_Asymmetry_Pilot,2022.1.3,MacIntel,60.0024001,62c50e9c1127f2cd403a315f,,,,,,,,,,,,,,,,,,,,,,,,,,,,,,,,,,,,,,,,,,,,,,,,,,,,,,,,,,,,,,,,,,,,,,,,,,,,,,,,,,,,,,,,,,,,,,,,,,,,,,,,,,,,,,,,,,,,,,,,,,,,,,,,,,,,,,,,,,,,,,,,,,,,,,,,,,,,,,,,,,,
0,73,73,43,1,,61078ef40ecc3ae99ceb0b07,62c539c880569701d2f2d375,2022-07-06_24h29.33.331,Colour_Asymmetry_Pilot,2022.1.3,MacIntel,60.0024001,62c50e9c1127f2cd403a315f,,,,,,,,,,,,,,,,,,,,,,,,,,,,,,,,,,,,,,,,,,,,,,,,,,,,,,,,,,,,,,,,,,,,,,,,,,,,,,,,,,,,,,,,,,,,,,,,,,,,,,,,,,,,,,,,,,,,,,,,,,,,,,,,,,,,,,,,,,,,,,,,,,,,,,,,,,,,,,,,,,,
0,74,74,30,1,,61078ef40ecc3ae99ceb0b07,62c539c880569701d2f2d375,2022-07-06_24h29.33.331,Colour_Asymmetry_Pilot,2022.1.3,MacIntel,60.0024001,62c50e9c1127f2cd403a315f,,,,,,,,,,,,,,,,,,,,,,,,,,,,,,,,,,,,,,,,,,,,,,,,,,,,,,,,,,,,,,,,,,,,,,,,,,,,,,,,,,,,,,,,,,,,,,,,,,,,,,,,,,,,,,,,,,,,,,,,,,,,,,,,,,,,,,,,,,,,,,,,,,,,,,,,,,,,,,,,,,,
0,75,75,72,1,,61078ef40ecc3ae99ceb0b07,62c539c880569701d2f2d375,2022-07-06_24h29.33.331,Colour_Asymmetry_Pilot,2022.1.3,MacIntel,60.0024001,62c50e9c1127f2cd403a315f,,,,,,,,,,,,,,,,,,,,,,,,,,,,,,,,,,,,,,,,,,,,,,,,,,,,,,,,,,,,,,,,,,,,,,,,,,,,,,,,,,,,,,,,,,,,,,,,,,,,,,,,,,,,,,,,,,,,,,,,,,,,,,,,,,,,,,,,,,,,,,,,,,,,,,,,,,,,,,,,,,,
0,76,76,47,1,,61078ef40ecc3ae99ceb0b07,62c539c880569701d2f2d375,2022-07-06_24h29.33.331,Colour_Asymmetry_Pilot,2022.1.3,MacIntel,60.0024001,62c50e9c1127f2cd403a315f,,,,,,,,,,,,,,,,,,,,,,,,,,,,,,,,,,,,,,,,,,,,,,,,,,,,,,,,,,,,,,,,,,,,,,,,,,,,,,,,,,,,,,,,,,,,,,,,,,,,,,,,,,,,,,,,,,,,,,,,,,,,,,,,,,,,,,,,,,,,,,,,,,,,,,,,,,,,,,,,,,,
0,77,77,65,1,,61078ef40ecc3ae99ceb0b07,62c539c880569701d2f2d375,2022-07-06_24h29.33.331,Colour_Asymmetry_Pilot,2022.1.3,MacIntel,60.0024001,62c50e9c1127f2cd403a315f,,,,,,,,,,,,,,,,,,,,,,,,,,,,,,,,,,,,,,,,,,,,,,,,,,,,,,,,,,,,,,,,,,,,,,,,,,,,,,,,,,,,,,,,,,,,,,,,,,,,,,,,,,,,,,,,,,,,,,,,,,,,,,,,,,,,,,,,,,,,,,,,,,,,,,,,,,,,,,,,,,,
0,78,78,25,1,,61078ef40ecc3ae99ceb0b07,62c539c880569701d2f2d375,2022-07-06_24h29.33.331,Colour_Asymmetry_Pilot,2022.1.3,MacIntel,60.0024001,62c50e9c1127f2cd403a315f,,,,,,,,,,,,,,,,,,,,,,,,,,,,,,,,,,,,,,,,,,,,,,,,,,,,,,,,,,,,,,,,,,,,,,,,,,,,,,,,,,,,,,,,,,,,,,,,,,,,,,,,,,,,,,,,,,,,,,,,,,,,,,,,,,,,,,,,,,,,,,,,,,,,,,,,,,,,,,,,,,,
0,79,79,86,1,,61078ef40ecc3ae99ceb0b07,62c539c880569701d2f2d375,2022-07-06_24h29.33.331,Colour_Asymmetry_Pilot,2022.1.3,MacIntel,60.0024001,62c50e9c1127f2cd403a315f,,,,,,,,,,,,,,,,,,,,,,,,,,,,,,,,,,,,,,,,,,,,,,,,,,,,,,,,,,,,,,,,,,,,,,,,,,,,,,,,,,,,,,,,,,,,,,,,,,,,,,,,,,,,,,,,,,,,,,,,,,,,,,,,,,,,,,,,,,,,,,,,,,,,,,,,,,,,,,,,,,,
0,80,80,4,1,,61078ef40ecc3ae99ceb0b07,62c539c880569701d2f2d375,2022-07-06_24h29.33.331,Colour_Asymmetry_Pilot,2022.1.3,MacIntel,60.0024001,62c50e9c1127f2cd403a315f,,,,,,,,,,,,,,,,,,,,,,,,,,,,,,,,,,,,,,,,,,,,,,,,,,,,,,,,,,,,,,,,,,,,,,,,,,,,,,,,,,,,,,,,,,,,,,,,,,,,,,,,,,,,,,,,,,,,,,,,,,,,,,,,,,,,,,,,,,,,,,,,,,,,,,,,,,,,,,,,,,,
0,81,81,75,1,,61078ef40ecc3ae99ceb0b07,62c539c880569701d2f2d375,2022-07-06_24h29.33.331,Colour_Asymmetry_Pilot,2022.1.3,MacIntel,60.0024001,62c50e9c1127f2cd403a315f,,,,,,,,,,,,,,,,,,,,,,,,,,,,,,,,,,,,,,,,,,,,,,,,,,,,,,,,,,,,,,,,,,,,,,,,,,,,,,,,,,,,,,,,,,,,,,,,,,,,,,,,,,,,,,,,,,,,,,,,,,,,,,,,,,,,,,,,,,,,,,,,,,,,,,,,,,,,,,,,,,,
0,82,82,53,1,,61078ef40ecc3ae99ceb0b07,62c539c880569701d2f2d375,2022-07-06_24h29.33.331,Colour_Asymmetry_Pilot,2022.1.3,MacIntel,60.0024001,62c50e9c1127f2cd403a315f,,,,,,,,,,,,,,,,,,,,,,,,,,,,,,,,,,,,,,,,,,,,,,,,,,,,,,,,,,,,,,,,,,,,,,,,,,,,,,,,,,,,,,,,,,,,,,,,,,,,,,,,,,,,,,,,,,,,,,,,,,,,,,,,,,,,,,,,,,,,,,,,,,,,,,,,,,,,,,,,,,,
0,83,83,1,1,,61078ef40ecc3ae99ceb0b07,62c539c880569701d2f2d375,2022-07-06_24h29.33.331,Colour_Asymmetry_Pilot,2022.1.3,MacIntel,60.0024001,62c50e9c1127f2cd403a315f,,,,,,,,,,,,,,,,,,,,,,,,,,,,,,,,,,,,,,,,,,,,,,,,,,,,,,,,,,,,,,,,,,,,,,,,,,,,,,,,,,,,,,,,,,,,,,,,,,,,,,,,,,,,,,,,,,,,,,,,,,,,,,,,,,,,,,,,,,,,,,,,,,,,,,,,,,,,,,,,,,,
0,84,84,34,1,,61078ef40ecc3ae99ceb0b07,62c539c880569701d2f2d375,2022-07-06_24h29.33.331,Colour_Asymmetry_Pilot,2022.1.3,MacIntel,60.0024001,62c50e9c1127f2cd403a315f,,,,,,,,,,,,,,,,,,,,,,,,,,,,,,,,,,,,,,,,,,,,,,,,,,,,,,,,,,,,,,,,,,,,,,,,,,,,,,,,,,,,,,,,,,,,,,,,,,,,,,,,,,,,,,,,,,,,,,,,,,,,,,,,,,,,,,,,,,,,,,,,,,,,,,,,,,,,,,,,,,,
0,85,85,89,1,,61078ef40ecc3ae99ceb0b07,62c539c880569701d2f2d375,2022-07-06_24h29.33.331,Colour_Asymmetry_Pilot,2022.1.3,MacIntel,60.0024001,62c50e9c1127f2cd403a315f,,,,,,,,,,,,,,,,,,,,,,,,,,,,,,,,,,,,,,,,,,,,,,,,,,,,,,,,,,,,,,,,,,,,,,,,,,,,,,,,,,,,,,,,,,,,,,,,,,,,,,,,,,,,,,,,,,,,,,,,,,,,,,,,,,,,,,,,,,,,,,,,,,,,,,,,,,,,,,,,,,,
0,86,86,15,1,,61078ef40ecc3ae99ceb0b07,62c539c880569701d2f2d375,2022-07-06_24h29.33.331,Colour_Asymmetry_Pilot,2022.1.3,MacIntel,60.0024001,62c50e9c1127f2cd403a315f,,,,,,,,,,,,,,,,,,,,,,,,,,,,,,,,,,,,,,,,,,,,,,,,,,,,,,,,,,,,,,,,,,,,,,,,,,,,,,,,,,,,,,,,,,,,,,,,,,,,,,,,,,,,,,,,,,,,,,,,,,,,,,,,,,,,,,,,,,,,,,,,,,,,,,,,,,,,,,,,,,,
0,87,87,40,1,,61078ef40ecc3ae99ceb0b07,62c539c880569701d2f2d375,2022-07-06_24h29.33.331,Colour_Asymmetry_Pilot,2022.1.3,MacIntel,60.0024001,62c50e9c1127f2cd403a315f,,,,,,,,,,,,,,,,,,,,,,,,,,,,,,,,,,,,,,,,,,,,,,,,,,,,,,,,,,,,,,,,,,,,,,,,,,,,,,,,,,,,,,,,,,,,,,,,,,,,,,,,,,,,,,,,,,,,,,,,,,,,,,,,,,,,,,,,,,,,,,,,,,,,,,,,,,,,,,,,,,,
0,88,88,59,1,,61078ef40ecc3ae99ceb0b07,62c539c880569701d2f2d375,2022-07-06_24h29.33.331,Colour_Asymmetry_Pilot,2022.1.3,MacIntel,60.0024001,62c50e9c1127f2cd403a315f,,,,,,,,,,,,,,,,,,,,,,,,,,,,,,,,,,,,,,,,,,,,,,,,,,,,,,,,,,,,,,,,,,,,,,,,,,,,,,,,,,,,,,,,,,,,,,,,,,,,,,,,,,,,,,,,,,,,,,,,,,,,,,,,,,,,,,,,,,,,,,,,,,,,,,,,,,,,,,,,,,,
0,89,89,50,1,,61078ef40ecc3ae99ceb0b07,62c539c880569701d2f2d375,2022-07-06_24h29.33.331,Colour_Asymmetry_Pilot,2022.1.3,MacIntel,60.0024001,62c50e9c1127f2cd403a315f,,,,,,,,,,,,,,,,,,,,,,,,,,,,,,,,,,,,,,,,,,,,,,,,,,,,,,,,,,,,,,,,,,,,,,,,,,,,,,,,,,,,,,,,,,,,,,,,,,,,,,,,,,,,,,,,,,,,,,,,,,,,,,,,,,,,,,,,,,,,,,,,,,,,,,,,,,,,,,,,,,,
0,90,90,80,1,,61078ef40ecc3ae99ceb0b07,62c539c880569701d2f2d375,2022-07-06_24h29.33.331,Colour_Asymmetry_Pilot,2022.1.3,MacIntel,60.0024001,62c50e9c1127f2cd403a315f,,,,,,,,,,,,,,,,,,,,,,,,,,,,,,,,,,,,,,,,,,,,,,,,,,,,,,,,,,,,,,,,,,,,,,,,,,,,,,,,,,,,,,,,,,,,,,,,,,,,,,,,,,,,,,,,,,,,,,,,,,,,,,,,,,,,,,,,,,,,,,,,,,,,,,,,,,,,,,,,,,,
0,91,91,67,1,,61078ef40ecc3ae99ceb0b07,62c539c880569701d2f2d375,2022-07-06_24h29.33.331,Colour_Asymmetry_Pilot,2022.1.3,MacIntel,60.0024001,62c50e9c1127f2cd403a315f,,,,,,,,,,,,,,,,,,,,,,,,,,,,,,,,,,,,,,,,,,,,,,,,,,,,,,,,,,,,,,,,,,,,,,,,,,,,,,,,,,,,,,,,,,,,,,,,,,,,,,,,,,,,,,,,,,,,,,,,,,,,,,,,,,,,,,,,,,,,,,,,,,,,,,,,,,,,,,,,,,,
0,92,92,84,1,,61078ef40ecc3ae99ceb0b07,62c539c880569701d2f2d375,2022-07-06_24h29.33.331,Colour_Asymmetry_Pilot,2022.1.3,MacIntel,60.0024001,62c50e9c1127f2cd403a315f,,,,,,,,,,,,,,,,,,,,,,,,,,,,,,,,,,,,,,,,,,,,,,,,,,,,,,,,,,,,,,,,,,,,,,,,,,,,,,,,,,,,,,,,,,,,,,,,,,,,,,,,,,,,,,,,,,,,,,,,,,,,,,,,,,,,,,,,,,,,,,,,,,,,,,,,,,,,,,,,,,,
,,,,,,61078ef40ecc3ae99ceb0b07,62c539c880569701d2f2d375,2022-07-06_24h29.33.331,Colour_Asymmetry_Pilot,2022.1.3,MacIntel,60.0024001,62c50e9c1127f2cd403a315f,0,0,0,12,1,threeone,,,,,,,,,,,,,,,,,,,,,,,,,,,,,,,,,,,,,,,,,,,,,,,,,,,,,,,,,,,,,,,,,,,,,,,,,,,,,,,,,,,,,,,,,,,,,,,,,,,,,,,,,,,,,,,,,,,,,,,,,,,,,,,,,,,,,,,,,,,,,,,,,,,,,,,,,,,,,
,,,,,,61078ef40ecc3ae99ceb0b07,62c539c880569701d2f2d375,2022-07-06_24h29.33.331,Colour_Asymmetry_Pilot,2022.1.3,MacIntel,60.0024001,62c50e9c1127f2cd403a315f,0,1,1,136,1,onetwo,,,,,,,,,,,,,,,,,,,,,,,,,,,,,,,,,,,,,,,,,,,,,,,,,,,,,,,,,,,,,,,,,,,,,,,,,,,,,,,,,,,,,,,,,,,,,,,,,,,,,,,,,,,,,,,,,,,,,,,,,,,,,,,,,,,,,,,,,,,,,,,,,,,,,,,,,,,,,
,,,,,,61078ef40ecc3ae99ceb0b07,62c539c880569701d2f2d375,2022-07-06_24h29.33.331,Colour_Asymmetry_Pilot,2022.1.3,MacIntel,60.0024001,62c50e9c1127f2cd403a315f,0,2,2,58,1,twoone,,,,,,,,,,,,,,,,,,,,,,,,,,,,,,,,,,,,,,,,,,,,,,,,,,,,,,,,,,,,,,,,,,,,,,,,,,,,,,,,,,,,,,,,,,,,,,,,,,,,,,,,,,,,,,,,,,,,,,,,,,,,,,,,,,,,,,,,,,,,,,,,,,,,,,,,,,,,,
,,,,,,61078ef40ecc3ae99ceb0b07,62c539c880569701d2f2d375,2022-07-06_24h29.33.331,Colour_Asymmetry_Pilot,2022.1.3,MacIntel,60.0024001,62c50e9c1127f2cd403a315f,0,3,3,91,1,twofour,,,,,,,,,,,,,,,,,,,,,,,,,,,,,,,,,,,,,,,,,,,,,,,,,,,,,,,,,,,,,,,,,,,,,,,,,,,,,,,,,,,,,,,,,,,,,,,,,,,,,,,,,,,,,,,,,,,,,,,,,,,,,,,,,,,,,,,,,,,,,,,,,,,,,,,,,,,,,
,,,,,,61078ef40ecc3ae99ceb0b07,62c539c880569701d2f2d375,2022-07-06_24h29.33.331,Colour_Asymmetry_Pilot,2022.1.3,MacIntel,60.0024001,62c50e9c1127f2cd403a315f,0,4,4,125,1,threefour,,,,,,,,,,,,,,,,,,,,,,,,,,,,,,,,,,,,,,,,,,,,,,,,,,,,,,,,,,,,,,,,,,,,,,,,,,,,,,,,,,,,,,,,,,,,,,,,,,,,,,,,,,,,,,,,,,,,,,,,,,,,,,,,,,,,,,,,,,,,,,,,,,,,,,,,,,,,,
,,,,,,61078ef40ecc3ae99ceb0b07,62c539c880569701d2f2d375,2022-07-06_24h29.33.331,Colour_Asymmetry_Pilot,2022.1.3,MacIntel,60.0024001,62c50e9c1127f2cd403a315f,0,5,5,69,1,threefour,,,,,,,,,,,,,,,,,,,,,,,,,,,,,,,,,,,,,,,,,,,,,,,,,,,,,,,,,,,,,,,,,,,,,,,,,,,,,,,,,,,,,,,,,,,,,,,,,,,,,,,,,,,,,,,,,,,,,,,,,,,,,,,,,,,,,,,,,,,,,,,,,,,,,,,,,,,,,
,,,,,,61078ef40ecc3ae99ceb0b07,62c539c880569701d2f2d375,2022-07-06_24h29.33.331,Colour_Asymmetry_Pilot,2022.1.3,MacIntel,60.0024001,62c50e9c1127f2cd403a315f,0,6,6,7,1,fourthree,,,,,,,,,,,,,,,,,,,,,,,,,,,,,,,,,,,,,,,,,,,,,,,,,,,,,,,,,,,,,,,,,,,,,,,,,,,,,,,,,,,,,,,,,,,,,,,,,,,,,,,,,,,,,,,,,,,,,,,,,,,,,,,,,,,,,,,,,,,,,,,,,,,,,,,,,,,,,
,,,,,,61078ef40ecc3ae99ceb0b07,62c539c880569701d2f2d375,2022-07-06_24h29.33.331,Colour_Asymmetry_Pilot,2022.1.3,MacIntel,60.0024001,62c50e9c1127f2cd403a315f,0,7,7,84,1,threeone,,,,,,,,,,,,,,,,,,,,,,,,,,,,,,,,,,,,,,,,,,,,,,,,,,,,,,,,,,,,,,,,,,,,,,,,,,,,,,,,,,,,,,,,,,,,,,,,,,,,,,,,,,,,,,,,,,,,,,,,,,,,,,,,,,,,,,,,,,,,,,,,,,,,,,,,,,,,,
,,,,,,61078ef40ecc3ae99ceb0b07,62c539c880569701d2f2d375,2022-07-06_24h29.33.331,Colour_Asymmetry_Pilot,2022.1.3,MacIntel,60.0024001,62c50e9c1127f2cd403a315f,0,8,8,89,1,onethree,,,,,,,,,,,,,,,,,,,,,,,,,,,,,,,,,,,,,,,,,,,,,,,,,,,,,,,,,,,,,,,,,,,,,,,,,,,,,,,,,,,,,,,,,,,,,,,,,,,,,,,,,,,,,,,,,,,,,,,,,,,,,,,,,,,,,,,,,,,,,,,,,,,,,,,,,,,,,
,,,,,,61078ef40ecc3ae99ceb0b07,62c539c880569701d2f2d375,2022-07-06_24h29.33.331,Colour_Asymmetry_Pilot,2022.1.3,MacIntel,60.0024001,62c50e9c1127f2cd403a315f,0,9,9,111,1,fourthree,,,,,,,,,,,,,,,,,,,,,,,,,,,,,,,,,,,,,,,,,,,,,,,,,,,,,,,,,,,,,,,,,,,,,,,,,,,,,,,,,,,,,,,,,,,,,,,,,,,,,,,,,,,,,,,,,,,,,,,,,,,,,,,,,,,,,,,,,,,,,,,,,,,,,,,,,,,,,
,,,,,,61078ef40ecc3ae99ceb0b07,62c539c880569701d2f2d375,2022-07-06_24h29.33.331,Colour_Asymmetry_Pilot,2022.1.3,MacIntel,60.0024001,62c50e9c1127f2cd403a315f,0,10,10,88,1,onetwo,,,,,,,,,,,,,,,,,,,,,,,,,,,,,,,,,,,,,,,,,,,,,,,,,,,,,,,,,,,,,,,,,,,,,,,,,,,,,,,,,,,,,,,,,,,,,,,,,,,,,,,,,,,,,,,,,,,,,,,,,,,,,,,,,,,,,,,,,,,,,,,,,,,,,,,,,,,,,
,,,,,,61078ef40ecc3ae99ceb0b07,62c539c880569701d2f2d375,2022-07-06_24h29.33.331,Colour_Asymmetry_Pilot,2022.1.3,MacIntel,60.0024001,62c50e9c1127f2cd403a315f,0,11,11,52,1,threeone,,,,,,,,,,,,,,,,,,,,,,,,,,,,,,,,,,,,,,,,,,,,,,,,,,,,,,,,,,,,,,,,,,,,,,,,,,,,,,,,,,,,,,,,,,,,,,,,,,,,,,,,,,,,,,,,,,,,,,,,,,,,,,,,,,,,,,,,,,,,,,,,,,,,,,,,,,,,,
,,,,,,61078ef40ecc3ae99ceb0b07,62c539c880569701d2f2d375,2022-07-06_24h29.33.331,Colour_Asymmetry_Pilot,2022.1.3,MacIntel,60.0024001,62c50e9c1127f2cd403a315f,0,12,12,100,1,threeone,,,,,,,,,,,,,,,,,,,,,,,,,,,,,,,,,,,,,,,,,,,,,,,,,,,,,,,,,,,,,,,,,,,,,,,,,,,,,,,,,,,,,,,,,,,,,,,,,,,,,,,,,,,,,,,,,,,,,,,,,,,,,,,,,,,,,,,,,,,,,,,,,,,,,,,,,,,,,
,,,,,,61078ef40ecc3ae99ceb0b07,62c539c880569701d2f2d375,2022-07-06_24h29.33.331,Colour_Asymmetry_Pilot,2022.1.3,MacIntel,60.0024001,62c50e9c1127f2cd403a315f,0,13,13,120,1,onetwo,,,,,,,,,,,,,,,,,,,,,,,,,,,,,,,,,,,,,,,,,,,,,,,,,,,,,,,,,,,,,,,,,,,,,,,,,,,,,,,,,,,,,,,,,,,,,,,,,,,,,,,,,,,,,,,,,,,,,,,,,,,,,,,,,,,,,,,,,,,,,,,,,,,,,,,,,,,,,
,,,,,,61078ef40ecc3ae99ceb0b07,62c539c880569701d2f2d375,2022-07-06_24h29.33.331,Colour_Asymmetry_Pilot,2022.1.3,MacIntel,60.0024001,62c50e9c1127f2cd403a315f,0,14,14,128,1,onetwo,,,,,,,,,,,,,,,,,,,,,,,,,,,,,,,,,,,,,,,,,,,,,,,,,,,,,,,,,,,,,,,,,,,,,,,,,,,,,,,,,,,,,,,,,,,,,,,,,,,,,,,,,,,,,,,,,,,,,,,,,,,,,,,,,,,,,,,,,,,,,,,,,,,,,,,,,,,,,
,,,,,,61078ef40ecc3ae99ceb0b07,62c539c880569701d2f2d375,2022-07-06_24h29.33.331,Colour_Asymmetry_Pilot,2022.1.3,MacIntel,60.0024001,62c50e9c1127f2cd403a315f,0,15,15,147,1,twofour,,,,,,,,,,,,,,,,,,,,,,,,,,,,,,,,,,,,,,,,,,,,,,,,,,,,,,,,,,,,,,,,,,,,,,,,,,,,,,,,,,,,,,,,,,,,,,,,,,,,,,,,,,,,,,,,,,,,,,,,,,,,,,,,,,,,,,,,,,,,,,,,,,,,,,,,,,,,,
,,,,,,61078ef40ecc3ae99ceb0b07,62c539c880569701d2f2d375,2022-07-06_24h29.33.331,Colour_Asymmetry_Pilot,2022.1.3,MacIntel,60.0024001,62c50e9c1127f2cd403a315f,0,16,16,103,1,fourthree,,,,,,,,,,,,,,,,,,,,,,,,,,,,,,,,,,,,,,,,,,,,,,,,,,,,,,,,,,,,,,,,,,,,,,,,,,,,,,,,,,,,,,,,,,,,,,,,,,,,,,,,,,,,,,,,,,,,,,,,,,,,,,,,,,,,,,,,,,,,,,,,,,,,,,,,,,,,,
,,,,,,61078ef40ecc3ae99ceb0b07,62c539c880569701d2f2d375,2022-07-06_24h29.33.331,Colour_Asymmetry_Pilot,2022.1.3,MacIntel,60.0024001,62c50e9c1127f2cd403a315f,0,17,17,117,1,threefour,,,,,,,,,,,,,,,,,,,,,,,,,,,,,,,,,,,,,,,,,,,,,,,,,,,,,,,,,,,,,,,,,,,,,,,,,,,,,,,,,,,,,,,,,,,,,,,,,,,,,,,,,,,,,,,,,,,,,,,,,,,,,,,,,,,,,,,,,,,,,,,,,,,,,,,,,,,,,
,,,,,,61078ef40ecc3ae99ceb0b07,62c539c880569701d2f2d375,2022-07-06_24h29.33.331,Colour_Asymmetry_Pilot,2022.1.3,MacIntel,60.0024001,62c50e9c1127f2cd403a315f,0,18,18,5,1,threefour,,,,,,,,,,,,,,,,,,,,,,,,,,,,,,,,,,,,,,,,,,,,,,,,,,,,,,,,,,,,,,,,,,,,,,,,,,,,,,,,,,,,,,,,,,,,,,,,,,,,,,,,,,,,,,,,,,,,,,,,,,,,,,,,,,,,,,,,,,,,,,,,,,,,,,,,,,,,,
,,,,,,61078ef40ecc3ae99ceb0b07,62c539c880569701d2f2d375,2022-07-06_24h29.33.331,Colour_Asymmetry_Pilot,2022.1.3,MacIntel,60.0024001,62c50e9c1127f2cd403a315f,0,19,19,60,1,threeone,,,,,,,,,,,,,,,,,,,,,,,,,,,,,,,,,,,,,,,,,,,,,,,,,,,,,,,,,,,,,,,,,,,,,,,,,,,,,,,,,,,,,,,,,,,,,,,,,,,,,,,,,,,,,,,,,,,,,,,,,,,,,,,,,,,,,,,,,,,,,,,,,,,,,,,,,,,,,
,,,,,,61078ef40ecc3ae99ceb0b07,62c539c880569701d2f2d375,2022-07-06_24h29.33.331,Colour_Asymmetry_Pilot,2022.1.3,MacIntel,60.0024001,62c50e9c1127f2cd403a315f,0,20,20,74,1,twoone,,,,,,,,,,,,,,,,,,,,,,,,,,,,,,,,,,,,,,,,,,,,,,,,,,,,,,,,,,,,,,,,,,,,,,,,,,,,,,,,,,,,,,,,,,,,,,,,,,,,,,,,,,,,,,,,,,,,,,,,,,,,,,,,,,,,,,,,,,,,,,,,,,,,,,,,,,,,,
,,,,,,61078ef40ecc3ae99ceb0b07,62c539c880569701d2f2d375,2022-07-06_24h29.33.331,Colour_Asymmetry_Pilot,2022.1.3,MacIntel,60.0024001,62c50e9c1127f2cd403a315f,0,21,21,28,1,threeone,,,,,,,,,,,,,,,,,,,,,,,,,,,,,,,,,,,,,,,,,,,,,,,,,,,,,,,,,,,,,,,,,,,,,,,,,,,,,,,,,,,,,,,,,,,,,,,,,,,,,,,,,,,,,,,,,,,,,,,,,,,,,,,,,,,,,,,,,,,,,,,,,,,,,,,,,,,,,
,,,,,,61078ef40ecc3ae99ceb0b07,62c539c880569701d2f2d375,2022-07-06_24h29.33.331,Colour_Asymmetry_Pilot,2022.1.3,MacIntel,60.0024001,62c50e9c1127f2cd403a315f,0,22,22,63,1,fourthree,,,,,,,,,,,,,,,,,,,,,,,,,,,,,,,,,,,,,,,,,,,,,,,,,,,,,,,,,,,,,,,,,,,,,,,,,,,,,,,,,,,,,,,,,,,,,,,,,,,,,,,,,,,,,,,,,,,,,,,,,,,,,,,,,,,,,,,,,,,,,,,,,,,,,,,,,,,,,
,,,,,,61078ef40ecc3ae99ceb0b07,62c539c880569701d2f2d375,2022-07-06_24h29.33.331,Colour_Asymmetry_Pilot,2022.1.3,MacIntel,60.0024001,62c50e9c1127f2cd403a315f,0,23,23,72,1,onetwo,,,,,,,,,,,,,,,,,,,,,,,,,,,,,,,,,,,,,,,,,,,,,,,,,,,,,,,,,,,,,,,,,,,,,,,,,,,,,,,,,,,,,,,,,,,,,,,,,,,,,,,,,,,,,,,,,,,,,,,,,,,,,,,,,,,,,,,,,,,,,,,,,,,,,,,,,,,,,
,,,,,,61078ef40ecc3ae99ceb0b07,62c539c880569701d2f2d375,2022-07-06_24h29.33.331,Colour_Asymmetry_Pilot,2022.1.3,MacIntel,60.0024001,62c50e9c1127f2cd403a315f,0,24,24,22,1,fourtwo,,,,,,,,,,,,,,,,,,,,,,,,,,,,,,,,,,,,,,,,,,,,,,,,,,,,,,,,,,,,,,,,,,,,,,,,,,,,,,,,,,,,,,,,,,,,,,,,,,,,,,,,,,,,,,,,,,,,,,,,,,,,,,,,,,,,,,,,,,,,,,,,,,,,,,,,,,,,,
,,,,,,61078ef40ecc3ae99ceb0b07,62c539c880569701d2f2d375,2022-07-06_24h29.33.331,Colour_Asymmetry_Pilot,2022.1.3,MacIntel,60.0024001,62c50e9c1127f2cd403a315f,0,25,25,19,1,twofour,,,,,,,,,,,,,,,,,,,,,,,,,,,,,,,,,,,,,,,,,,,,,,,,,,,,,,,,,,,,,,,,,,,,,,,,,,,,,,,,,,,,,,,,,,,,,,,,,,,,,,,,,,,,,,,,,,,,,,,,,,,,,,,,,,,,,,,,,,,,,,,,,,,,,,,,,,,,,
,,,,,,61078ef40ecc3ae99ceb0b07,62c539c880569701d2f2d375,2022-07-06_24h29.33.331,Colour_Asymmetry_Pilot,2022.1.3,MacIntel,60.0024001,62c50e9c1127f2cd403a315f,0,26,26,20,1,threeone,,,,,,,,,,,,,,,,,,,,,,,,,,,,,,,,,,,,,,,,,,,,,,,,,,,,,,,,,,,,,,,,,,,,,,,,,,,,,,,,,,,,,,,,,,,,,,,,,,,,,,,,,,,,,,,,,,,,,,,,,,,,,,,,,,,,,,,,,,,,,,,,,,,,,,,,,,,,,
,,,,,,61078ef40ecc3ae99ceb0b07,62c539c880569701d2f2d375,2022-07-06_24h29.33.331,Colour_Asymmetry_Pilot,2022.1.3,MacIntel,60.0024001,62c50e9c1127f2cd403a315f,0,27,27,46,1,fourtwo,,,,,,,,,,,,,,,,,,,,,,,,,,,,,,,,,,,,,,,,,,,,,,,,,,,,,,,,,,,,,,,,,,,,,,,,,,,,,,,,,,,,,,,,,,,,,,,,,,,,,,,,,,,,,,,,,,,,,,,,,,,,,,,,,,,,,,,,,,,,,,,,,,,,,,,,,,,,,
,,,,,,61078ef40ecc3ae99ceb0b07,62c539c880569701d2f2d375,2022-07-06_24h29.33.331,Colour_Asymmetry_Pilot,2022.1.3,MacIntel,60.0024001,62c50e9c1127f2cd403a315f,0,28,28,75,1,twofour,,,,,,,,,,,,,,,,,,,,,,,,,,,,,,,,,,,,,,,,,,,,,,,,,,,,,,,,,,,,,,,,,,,,,,,,,,,,,,,,,,,,,,,,,,,,,,,,,,,,,,,,,,,,,,,,,,,,,,,,,,,,,,,,,,,,,,,,,,,,,,,,,,,,,,,,,,,,,
,,,,,,61078ef40ecc3ae99ceb0b07,62c539c880569701d2f2d375,2022-07-06_24h29.33.331,Colour_Asymmetry_Pilot,2022.1.3,MacIntel,60.0024001,62c50e9c1127f2cd403a315f,0,29,29,1,1,onethree,,,,,,,,,,,,,,,,,,,,,,,,,,,,,,,,,,,,,,,,,,,,,,,,,,,,,,,,,,,,,,,,,,,,,,,,,,,,,,,,,,,,,,,,,,,,,,,,,,,,,,,,,,,,,,,,,,,,,,,,,,,,,,,,,,,,,,,,,,,,,,,,,,,,,,,,,,,,,
,,,,,,61078ef40ecc3ae99ceb0b07,62c539c880569701d2f2d375,2022-07-06_24h29.33.331,Colour_Asymmetry_Pilot,2022.1.3,MacIntel,60.0024001,62c50e9c1127f2cd403a315f,0,30,30,85,1,threefour,,,,,,,,,,,,,,,,,,,,,,,,,,,,,,,,,,,,,,,,,,,,,,,,,,,,,,,,,,,,,,,,,,,,,,,,,,,,,,,,,,,,,,,,,,,,,,,,,,,,,,,,,,,,,,,,,,,,,,,,,,,,,,,,,,,,,,,,,,,,,,,,,,,,,,,,,,,,,
,,,,,,61078ef40ecc3ae99ceb0b07,62c539c880569701d2f2d375,2022-07-06_24h29.33.331,Colour_Asymmetry_Pilot,2022.1.3,MacIntel,60.0024001,62c50e9c1127f2cd403a315f,0,31,31,2,1,twoone,,,,,,,,,,,,,,,,,,,,,,,,,,,,,,,,,,,,,,,,,,,,,,,,,,,,,,,,,,,,,,,,,,,,,,,,,,,,,,,,,,,,,,,,,,,,,,,,,,,,,,,,,,,,,,,,,,,,,,,,,,,,,,,,,,,,,,,,,,,,,,,,,,,,,,,,,,,,,
,,,,,,61078ef40ecc3ae99ceb0b07,62c539c880569701d2f2d375,2022-07-06_24h29.33.331,Colour_Asymmetry_Pilot,2022.1.3,MacIntel,60.0024001,62c50e9c1127f2cd403a315f,0,32,32,123,1,twofour,,,,,,,,,,,,,,,,,,,,,,,,,,,,,,,,,,,,,,,,,,,,,,,,,,,,,,,,,,,,,,,,,,,,,,,,,,,,,,,,,,,,,,,,,,,,,,,,,,,,,,,,,,,,,,,,,,,,,,,,,,,,,,,,,,,,,,,,,,,,,,,,,,,,,,,,,,,,,
,,,,,,61078ef40ecc3ae99ceb0b07,62c539c880569701d2f2d375,2022-07-06_24h29.33.331,Colour_Asymmetry_Pilot,2022.1.3,MacIntel,60.0024001,62c50e9c1127f2cd403a315f,0,33,33,126,1,fourtwo,,,,,,,,,,,,,,,,,,,,,,,,,,,,,,,,,,,,,,,,,,,,,,,,,,,,,,,,,,,,,,,,,,,,,,,,,,,,,,,,,,,,,,,,,,,,,,,,,,,,,,,,,,,,,,,,,,,,,,,,,,,,,,,,,,,,,,,,,,,,,,,,,,,,,,,,,,,,,
,,,,,,61078ef40ecc3ae99ceb0b07,62c539c880569701d2f2d375,2022-07-06_24h29.33.331,Colour_Asymmetry_Pilot,2022.1.3,MacIntel,60.0024001,62c50e9c1127f2cd403a315f,0,34,34,159,1,fourthree,,,,,,,,,,,,,,,,,,,,,,,,,,,,,,,,,,,,,,,,,,,,,,,,,,,,,,,,,,,,,,,,,,,,,,,,,,,,,,,,,,,,,,,,,,,,,,,,,,,,,,,,,,,,,,,,,,,,,,,,,,,,,,,,,,,,,,,,,,,,,,,,,,,,,,,,,,,,,
,,,,,,61078ef40ecc3ae99ceb0b07,62c539c880569701d2f2d375,2022-07-06_24h29.33.331,Colour_Asymmetry_Pilot,2022.1.3,MacIntel,60.0024001,62c50e9c1127f2cd403a315f,0,35,35,107,1,twofour,,,,,,,,,,,,,,,,,,,,,,,,,,,,,,,,,,,,,,,,,,,,,,,,,,,,,,,,,,,,,,,,,,,,,,,,,,,,,,,,,,,,,,,,,,,,,,,,,,,,,,,,,,,,,,,,,,,,,,,,,,,,,,,,,,,,,,,,,,,,,,,,,,,,,,,,,,,,,
,,,,,,61078ef40ecc3ae99ceb0b07,62c539c880569701d2f2d375,2022-07-06_24h29.33.331,Colour_Asymmetry_Pilot,2022.1.3,MacIntel,60.0024001,62c50e9c1127f2cd403a315f,0,36,36,32,1,onetwo,,,,,,,,,,,,,,,,,,,,,,,,,,,,,,,,,,,,,,,,,,,,,,,,,,,,,,,,,,,,,,,,,,,,,,,,,,,,,,,,,,,,,,,,,,,,,,,,,,,,,,,,,,,,,,,,,,,,,,,,,,,,,,,,,,,,,,,,,,,,,,,,,,,,,,,,,,,,,
,,,,,,61078ef40ecc3ae99ceb0b07,62c539c880569701d2f2d375,2022-07-06_24h29.33.331,Colour_Asymmetry_Pilot,2022.1.3,MacIntel,60.0024001,62c50e9c1127f2cd403a315f,0,37,37,90,1,twoone,,,,,,,,,,,,,,,,,,,,,,,,,,,,,,,,,,,,,,,,,,,,,,,,,,,,,,,,,,,,,,,,,,,,,,,,,,,,,,,,,,,,,,,,,,,,,,,,,,,,,,,,,,,,,,,,,,,,,,,,,,,,,,,,,,,,,,,,,,,,,,,,,,,,,,,,,,,,,
,,,,,,61078ef40ecc3ae99ceb0b07,62c539c880569701d2f2d375,2022-07-06_24h29.33.331,Colour_Asymmetry_Pilot,2022.1.3,MacIntel,60.0024001,62c50e9c1127f2cd403a315f,0,38,38,118,1,fourtwo,,,,,,,,,,,,,,,,,,,,,,,,,,,,,,,,,,,,,,,,,,,,,,,,,,,,,,,,,,,,,,,,,,,,,,,,,,,,,,,,,,,,,,,,,,,,,,,,,,,,,,,,,,,,,,,,,,,,,,,,,,,,,,,,,,,,,,,,,,,,,,,,,,,,,,,,,,,,,
,,,,,,61078ef40ecc3ae99ceb0b07,62c539c880569701d2f2d375,2022-07-06_24h29.33.331,Colour_Asymmetry_Pilot,2022.1.3,MacIntel,60.0024001,62c50e9c1127f2cd403a315f,0,39,39,113,1,onethree,,,,,,,,,,,,,,,,,,,,,,,,,,,,,,,,,,,,,,,,,,,,,,,,,,,,,,,,,,,,,,,,,,,,,,,,,,,,,,,,,,,,,,,,,,,,,,,,,,,,,,,,,,,,,,,,,,,,,,,,,,,,,,,,,,,,,,,,,,,,,,,,,,,,,,,,,,,,,
,,,,,,61078ef40ecc3ae99ceb0b07,62c539c880569701d2f2d375,2022-07-06_24h29.33.331,Colour_Asymmetry_Pilot,2022.1.3,MacIntel,60.0024001,62c50e9c1127f2cd403a315f,0,40,40,145,1,onethree,,,,,,,,,,,,,,,,,,,,,,,,,,,,,,,,,,,,,,,,,,,,,,,,,,,,,,,,,,,,,,,,,,,,,,,,,,,,,,,,,,,,,,,,,,,,,,,,,,,,,,,,,,,,,,,,,,,,,,,,,,,,,,,,,,,,,,,,,,,,,,,,,,,,,,,,,,,,,
,,,,,,61078ef40ecc3ae99ceb0b07,62c539c880569701d2f2d375,2022-07-06_24h29.33.331,Colour_Asymmetry_Pilot,2022.1.3,MacIntel,60.0024001,62c50e9c1127f2cd403a315f,0,41,41,115,1,twofour,,,,,,,,,,,,,,,,,,,,,,,,,,,,,,,,,,,,,,,,,,,,,,,,,,,,,,,,,,,,,,,,,,,,,,,,,,,,,,,,,,,,,,,,,,,,,,,,,,,,,,,,,,,,,,,,,,,,,,,,,,,,,,,,,,,,,,,,,,,,,,,,,,,,,,,,,,,,,
,,,,,,61078ef40ecc3ae99ceb0b07,62c539c880569701d2f2d375,2022-07-06_24h29.33.331,Colour_Asymmetry_Pilot,2022.1.3,MacIntel,60.0024001,62c50e9c1127f2cd403a315f,0,42,42,43,1,twofour,,,,,,,,,,,,,,,,,,,,,,,,,,,,,,,,,,,,,,,,,,,,,,,,,,,,,,,,,,,,,,,,,,,,,,,,,,,,,,,,,,,,,,,,,,,,,,,,,,,,,,,,,,,,,,,,,,,,,,,,,,,,,,,,,,,,,,,,,,,,,,,,,,,,,,,,,,,,,
,,,,,,61078ef40ecc3ae99ceb0b07,62c539c880569701d2f2d375,2022-07-06_24h29.33.331,Colour_Asymmetry_Pilot,2022.1.3,MacIntel,60.0024001,62c50e9c1127f2cd403a315f,0,43,43,148,1,threeone,,,,,,,,,,,,,,,,,,,,,,,,,,,,,,,,,,,,,,,,,,,,,,,,,,,,,,,,,,,,,,,,,,,,,,,,,,,,,,,,,,,,,,,,,,,,,,,,,,,,,,,,,,,,,,,,,,,,,,,,,,,,,,,,,,,,,,,,,,,,,,,,,,,,,,,,,,,,,
,,,,,,61078ef40ecc3ae99ceb0b07,62c539c880569701d2f2d375,2022-07-06_24h29.33.331,Colour_Asymmetry_Pilot,2022.1.3,MacIntel,60.0024001,62c50e9c1127f2cd403a315f,0,44,44,134,1,fourtwo,,,,,,,,,,,,,,,,,,,,,,,,,,,,,,,,,,,,,,,,,,,,,,,,,,,,,,,,,,,,,,,,,,,,,,,,,,,,,,,,,,,,,,,,,,,,,,,,,,,,,,,,,,,,,,,,,,,,,,,,,,,,,,,,,,,,,,,,,,,,,,,,,,,,,,,,,,,,,
,,,,,,61078ef40ecc3ae99ceb0b07,62c539c880569701d2f2d375,2022-07-06_24h29.33.331,Colour_Asymmetry_Pilot,2022.1.3,MacIntel,60.0024001,62c50e9c1127f2cd403a315f,0,45,45,161,1,onethree,,,,,,,,,,,,,,,,,,,,,,,,,,,,,,,,,,,,,,,,,,,,,,,,,,,,,,,,,,,,,,,,,,,,,,,,,,,,,,,,,,,,,,,,,,,,,,,,,,,,,,,,,,,,,,,,,,,,,,,,,,,,,,,,,,,,,,,,,,,,,,,,,,,,,,,,,,,,,
,,,,,,61078ef40ecc3ae99ceb0b07,62c539c880569701d2f2d375,2022-07-06_24h29.33.331,Colour_Asymmetry_Pilot,2022.1.3,MacIntel,60.0024001,62c50e9c1127f2cd403a315f,0,46,46,105,1,onethree,,,,,,,,,,,,,,,,,,,,,,,,,,,,,,,,,,,,,,,,,,,,,,,,,,,,,,,,,,,,,,,,,,,,,,,,,,,,,,,,,,,,,,,,,,,,,,,,,,,,,,,,,,,,,,,,,,,,,,,,,,,,,,,,,,,,,,,,,,,,,,,,,,,,,,,,,,,,,
,,,,,,61078ef40ecc3ae99ceb0b07,62c539c880569701d2f2d375,2022-07-06_24h29.33.331,Colour_Asymmetry_Pilot,2022.1.3,MacIntel,60.0024001,62c50e9c1127f2cd403a315f,0,47,47,27,1,twofour,,,,,,,,,,,,,,,,,,,,,,,,,,,,,,,,,,,,,,,,,,,,,,,,,,,,,,,,,,,,,,,,,,,,,,,,,,,,,,,,,,,,,,,,,,,,,,,,,,,,,,,,,,,,,,,,,,,,,,,,,,,,,,,,,,,,,,,,,,,,,,,,,,,,,,,,,,,,,
,,,,,,61078ef40ecc3ae99ceb0b07,62c539c880569701d2f2d375,2022-07-06_24h29.33.331,Colour_Asymmetry_Pilot,2022.1.3,MacIntel,60.0024001,62c50e9c1127f2cd403a315f,0,48,48,73,1,onethree,,,,,,,,,,,,,,,,,,,,,,,,,,,,,,,,,,,,,,,,,,,,,,,,,,,,,,,,,,,,,,,,,,,,,,,,,,,,,,,,,,,,,,,,,,,,,,,,,,,,,,,,,,,,,,,,,,,,,,,,,,,,,,,,,,,,,,,,,,,,,,,,,,,,,,,,,,,,,
,,,,,,61078ef40ecc3ae99ceb0b07,62c539c880569701d2f2d375,2022-07-06_24h29.33.331,Colour_Asymmetry_Pilot,2022.1.3,MacIntel,60.0024001,62c50e9c1127f2cd403a315f,0,49,49,55,1,fourthree,,,,,,,,,,,,,,,,,,,,,,,,,,,,,,,,,,,,,,,,,,,,,,,,,,,,,,,,,,,,,,,,,,,,,,,,,,,,,,,,,,,,,,,,,,,,,,,,,,,,,,,,,,,,,,,,,,,,,,,,,,,,,,,,,,,,,,,,,,,,,,,,,,,,,,,,,,,,,
,,,,,,61078ef40ecc3ae99ceb0b07,62c539c880569701d2f2d375,2022-07-06_24h29.33.331,Colour_Asymmetry_Pilot,2022.1.3,MacIntel,60.0024001,62c50e9c1127f2cd403a315f,0,50,50,109,1,threefour,,,,,,,,,,,,,,,,,,,,,,,,,,,,,,,,,,,,,,,,,,,,,,,,,,,,,,,,,,,,,,,,,,,,,,,,,,,,,,,,,,,,,,,,,,,,,,,,,,,,,,,,,,,,,,,,,,,,,,,,,,,,,,,,,,,,,,,,,,,,,,,,,,,,,,,,,,,,,
,,,,,,61078ef40ecc3ae99ceb0b07,62c539c880569701d2f2d375,2022-07-06_24h29.33.331,Colour_Asymmetry_Pilot,2022.1.3,MacIntel,60.0024001,62c50e9c1127f2cd403a315f,0,51,51,0,1,onetwo,,,,,,,,,,,,,,,,,,,,,,,,,,,,,,,,,,,,,,,,,,,,,,,,,,,,,,,,,,,,,,,,,,,,,,,,,,,,,,,,,,,,,,,,,,,,,,,,,,,,,,,,,,,,,,,,,,,,,,,,,,,,,,,,,,,,,,,,,,,,,,,,,,,,,,,,,,,,,
,,,,,,61078ef40ecc3ae99ceb0b07,62c539c880569701d2f2d375,2022-07-06_24h29.33.331,Colour_Asymmetry_Pilot,2022.1.3,MacIntel,60.0024001,62c50e9c1127f2cd403a315f,0,52,52,101,1,threefour,,,,,,,,,,,,,,,,,,,,,,,,,,,,,,,,,,,,,,,,,,,,,,,,,,,,,,,,,,,,,,,,,,,,,,,,,,,,,,,,,,,,,,,,,,,,,,,,,,,,,,,,,,,,,,,,,,,,,,,,,,,,,,,,,,,,,,,,,,,,,,,,,,,,,,,,,,,,,
,,,,,,61078ef40ecc3ae99ceb0b07,62c539c880569701d2f2d375,2022-07-06_24h29.33.331,Colour_Asymmetry_Pilot,2022.1.3,MacIntel,60.0024001,62c50e9c1127f2cd403a315f,0,53,53,4,1,threeone,,,,,,,,,,,,,,,,,,,,,,,,,,,,,,,,,,,,,,,,,,,,,,,,,,,,,,,,,,,,,,,,,,,,,,,,,,,,,,,,,,,,,,,,,,,,,,,,,,,,,,,,,,,,,,,,,,,,,,,,,,,,,,,,,,,,,,,,,,,,,,,,,,,,,,,,,,,,,
,,,,,,61078ef40ecc3ae99ceb0b07,62c539c880569701d2f2d375,2022-07-06_24h29.33.331,Colour_Asymmetry_Pilot,2022.1.3,MacIntel,60.0024001,62c50e9c1127f2cd403a315f,0,54,54,139,1,twofour,,,,,,,,,,,,,,,,,,,,,,,,,,,,,,,,,,,,,,,,,,,,,,,,,,,,,,,,,,,,,,,,,,,,,,,,,,,,,,,,,,,,,,,,,,,,,,,,,,,,,,,,,,,,,,,,,,,,,,,,,,,,,,,,,,,,,,,,,,,,,,,,,,,,,,,,,,,,,
,,,,,,61078ef40ecc3ae99ceb0b07,62c539c880569701d2f2d375,2022-07-06_24h29.33.331,Colour_Asymmetry_Pilot,2022.1.3,MacIntel,60.0024001,62c50e9c1127f2cd403a315f,0,55,55,34,1,twoone,,,,,,,,,,,,,,,,,,,,,,,,,,,,,,,,,,,,,,,,,,,,,,,,,,,,,,,,,,,,,,,,,,,,,,,,,,,,,,,,,,,,,,,,,,,,,,,,,,,,,,,,,,,,,,,,,,,,,,,,,,,,,,,,,,,,,,,,,,,,,,,,,,,,,,,,,,,,,
,,,,,,61078ef40ecc3ae99ceb0b07,62c539c880569701d2f2d375,2022-07-06_24h29.33.331,Colour_Asymmetry_Pilot,2022.1.3,MacIntel,60.0024001,62c50e9c1127f2cd403a315f,0,56,56,10,1,twoone,,,,,,,,,,,,,,,,,,,,,,,,,,,,,,,,,,,,,,,,,,,,,,,,,,,,,,,,,,,,,,,,,,,,,,,,,,,,,,,,,,,,,,,,,,,,,,,,,,,,,,,,,,,,,,,,,,,,,,,,,,,,,,,,,,,,,,,,,,,,,,,,,,,,,,,,,,,,,
,,,,,,61078ef40ecc3ae99ceb0b07,62c539c880569701d2f2d375,2022-07-06_24h29.33.331,Colour_Asymmetry_Pilot,2022.1.3,MacIntel,60.0024001,62c50e9c1127f2cd403a315f,0,57,57,140,1,threeone,,,,,,,,,,,,,,,,,,,,,,,,,,,,,,,,,,,,,,,,,,,,,,,,,,,,,,,,,,,,,,,,,,,,,,,,,,,,,,,,,,,,,,,,,,,,,,,,,,,,,,,,,,,,,,,,,,,,,,,,,,,,,,,,,,,,,,,,,,,,,,,,,,,,,,,,,,,,,
,,,,,,61078ef40ecc3ae99ceb0b07,62c539c880569701d2f2d375,2022-07-06_24h29.33.331,Colour_Asymmetry_Pilot,2022.1.3,MacIntel,60.0024001,62c50e9c1127f2cd403a315f,0,58,58,94,1,fourtwo,,,,,,,,,,,,,,,,,,,,,,,,,,,,,,,,,,,,,,,,,,,,,,,,,,,,,,,,,,,,,,,,,,,,,,,,,,,,,,,,,,,,,,,,,,,,,,,,,,,,,,,,,,,,,,,,,,,,,,,,,,,,,,,,,,,,,,,,,,,,,,,,,,,,,,,,,,,,,
,,,,,,61078ef40ecc3ae99ceb0b07,62c539c880569701d2f2d375,2022-07-06_24h29.33.331,Colour_Asymmetry_Pilot,2022.1.3,MacIntel,60.0024001,62c50e9c1127f2cd403a315f,0,59,59,152,1,onetwo,,,,,,,,,,,,,,,,,,,,,,,,,,,,,,,,,,,,,,,,,,,,,,,,,,,,,,,,,,,,,,,,,,,,,,,,,,,,,,,,,,,,,,,,,,,,,,,,,,,,,,,,,,,,,,,,,,,,,,,,,,,,,,,,,,,,,,,,,,,,,,,,,,,,,,,,,,,,,
,,,,,,61078ef40ecc3ae99ceb0b07,62c539c880569701d2f2d375,2022-07-06_24h29.33.331,Colour_Asymmetry_Pilot,2022.1.3,MacIntel,60.0024001,62c50e9c1127f2cd403a315f,0,60,60,96,1,onetwo,,,,,,,,,,,,,,,,,,,,,,,,,,,,,,,,,,,,,,,,,,,,,,,,,,,,,,,,,,,,,,,,,,,,,,,,,,,,,,,,,,,,,,,,,,,,,,,,,,,,,,,,,,,,,,,,,,,,,,,,,,,,,,,,,,,,,,,,,,,,,,,,,,,,,,,,,,,,,
,,,,,,61078ef40ecc3ae99ceb0b07,62c539c880569701d2f2d375,2022-07-06_24h29.33.331,Colour_Asymmetry_Pilot,2022.1.3,MacIntel,60.0024001,62c50e9c1127f2cd403a315f,0,61,61,116,1,threeone,,,,,,,,,,,,,,,,,,,,,,,,,,,,,,,,,,,,,,,,,,,,,,,,,,,,,,,,,,,,,,,,,,,,,,,,,,,,,,,,,,,,,,,,,,,,,,,,,,,,,,,,,,,,,,,,,,,,,,,,,,,,,,,,,,,,,,,,,,,,,,,,,,,,,,,,,,,,,
,,,,,,61078ef40ecc3ae99ceb0b07,62c539c880569701d2f2d375,2022-07-06_24h29.33.331,Colour_Asymmetry_Pilot,2022.1.3,MacIntel,60.0024001,62c50e9c1127f2cd403a315f,0,62,62,47,1,fourthree,,,,,,,,,,,,,,,,,,,,,,,,,,,,,,,,,,,,,,,,,,,,,,,,,,,,,,,,,,,,,,,,,,,,,,,,,,,,,,,,,,,,,,,,,,,,,,,,,,,,,,,,,,,,,,,,,,,,,,,,,,,,,,,,,,,,,,,,,,,,,,,,,,,,,,,,,,,,,
,,,,,,61078ef40ecc3ae99ceb0b07,62c539c880569701d2f2d375,2022-07-06_24h29.33.331,Colour_Asymmetry_Pilot,2022.1.3,MacIntel,60.0024001,62c50e9c1127f2cd403a315f,0,63,63,53,1,threefour,,,,,,,,,,,,,,,,,,,,,,,,,,,,,,,,,,,,,,,,,,,,,,,,,,,,,,,,,,,,,,,,,,,,,,,,,,,,,,,,,,,,,,,,,,,,,,,,,,,,,,,,,,,,,,,,,,,,,,,,,,,,,,,,,,,,,,,,,,,,,,,,,,,,,,,,,,,,,
,,,,,,61078ef40ecc3ae99ceb0b07,62c539c880569701d2f2d375,2022-07-06_24h29.33.331,Colour_Asymmetry_Pilot,2022.1.3,MacIntel,60.0024001,62c50e9c1127f2cd403a315f,0,64,64,80,1,onetwo,,,,,,,,,,,,,,,,,,,,,,,,,,,,,,,,,,,,,,,,,,,,,,,,,,,,,,,,,,,,,,,,,,,,,,,,,,,,,,,,,,,,,,,,,,,,,,,,,,,,,,,,,,,,,,,,,,,,,,,,,,,,,,,,,,,,,,,,,,,,,,,,,,,,,,,,,,,,,
,,,,,,61078ef40ecc3ae99ceb0b07,62c539c880569701d2f2d375,2022-07-06_24h29.33.331,Colour_Asymmetry_Pilot,2022.1.3,MacIntel,60.0024001,62c50e9c1127f2cd403a315f,0,65,65,144,1,onetwo,,,,,,,,,,,,,,,,,,,,,,,,,,,,,,,,,,,,,,,,,,,,,,,,,,,,,,,,,,,,,,,,,,,,,,,,,,,,,,,,,,,,,,,,,,,,,,,,,,,,,,,,,,,,,,,,,,,,,,,,,,,,,,,,,,,,,,,,,,,,,,,,,,,,,,,,,,,,,
,,,,,,61078ef40ecc3ae99ceb0b07,62c539c880569701d2f2d375,2022-07-06_24h29.33.331,Colour_Asymmetry_Pilot,2022.1.3,MacIntel,60.0024001,62c50e9c1127f2cd403a315f,0,66,66,62,1,fourtwo,,,,,,,,,,,,,,,,,,,,,,,,,,,,,,,,,,,,,,,,,,,,,,,,,,,,,,,,,,,,,,,,,,,,,,,,,,,,,,,,,,,,,,,,,,,,,,,,,,,,,,,,,,,,,,,,,,,,,,,,,,,,,,,,,,,,,,,,,,,,,,,,,,,,,,,,,,,,,
,,,,,,61078ef40ecc3ae99ceb0b07,62c539c880569701d2f2d375,2022-07-06_24h29.33.331,Colour_Asymmetry_Pilot,2022.1.3,MacIntel,60.0024001,62c50e9c1127f2cd403a315f,0,67,67,41,1,onethree,,,,,,,,,,,,,,,,,,,,,,,,,,,,,,,,,,,,,,,,,,,,,,,,,,,,,,,,,,,,,,,,,,,,,,,,,,,,,,,,,,,,,,,,,,,,,,,,,,,,,,,,,,,,,,,,,,,,,,,,,,,,,,,,,,,,,,,,,,,,,,,,,,,,,,,,,,,,,
,,,,,,61078ef40ecc3ae99ceb0b07,62c539c880569701d2f2d375,2022-07-06_24h29.33.331,Colour_Asymmetry_Pilot,2022.1.3,MacIntel,60.0024001,62c50e9c1127f2cd403a315f,0,68,68,45,1,threefour,,,,,,,,,,,,,,,,,,,,,,,,,,,,,,,,,,,,,,,,,,,,,,,,,,,,,,,,,,,,,,,,,,,,,,,,,,,,,,,,,,,,,,,,,,,,,,,,,,,,,,,,,,,,,,,,,,,,,,,,,,,,,,,,,,,,,,,,,,,,,,,,,,,,,,,,,,,,,
,,,,,,61078ef40ecc3ae99ceb0b07,62c539c880569701d2f2d375,2022-07-06_24h29.33.331,Colour_Asymmetry_Pilot,2022.1.3,MacIntel,60.0024001,62c50e9c1127f2cd403a315f,0,69,69,156,1,threeone,,,,,,,,,,,,,,,,,,,,,,,,,,,,,,,,,,,,,,,,,,,,,,,,,,,,,,,,,,,,,,,,,,,,,,,,,,,,,,,,,,,,,,,,,,,,,,,,,,,,,,,,,,,,,,,,,,,,,,,,,,,,,,,,,,,,,,,,,,,,,,,,,,,,,,,,,,,,,
,,,,,,61078ef40ecc3ae99ceb0b07,62c539c880569701d2f2d375,2022-07-06_24h29.33.331,Colour_Asymmetry_Pilot,2022.1.3,MacIntel,60.0024001,62c50e9c1127f2cd403a315f,0,70,70,30,1,fourtwo,,,,,,,,,,,,,,,,,,,,,,,,,,,,,,,,,,,,,,,,,,,,,,,,,,,,,,,,,,,,,,,,,,,,,,,,,,,,,,,,,,,,,,,,,,,,,,,,,,,,,,,,,,,,,,,,,,,,,,,,,,,,,,,,,,,,,,,,,,,,,,,,,,,,,,,,,,,,,
,,,,,,61078ef40ecc3ae99ceb0b07,62c539c880569701d2f2d375,2022-07-06_24h29.33.331,Colour_Asymmetry_Pilot,2022.1.3,MacIntel,60.0024001,62c50e9c1127f2cd403a315f,0,71,71,129,1,onethree,,,,,,,,,,,,,,,,,,,,,,,,,,,,,,,,,,,,,,,,,,,,,,,,,,,,,,,,,,,,,,,,,,,,,,,,,,,,,,,,,,,,,,,,,,,,,,,,,,,,,,,,,,,,,,,,,,,,,,,,,,,,,,,,,,,,,,,,,,,,,,,,,,,,,,,,,,,,,
,,,,,,61078ef40ecc3ae99ceb0b07,62c539c880569701d2f2d375,2022-07-06_24h29.33.331,Colour_Asymmetry_Pilot,2022.1.3,MacIntel,60.0024001,62c50e9c1127f2cd403a315f,0,72,72,150,1,fourtwo,,,,,,,,,,,,,,,,,,,,,,,,,,,,,,,,,,,,,,,,,,,,,,,,,,,,,,,,,,,,,,,,,,,,,,,,,,,,,,,,,,,,,,,,,,,,,,,,,,,,,,,,,,,,,,,,,,,,,,,,,,,,,,,,,,,,,,,,,,,,,,,,,,,,,,,,,,,,,
,,,,,,61078ef40ecc3ae99ceb0b07,62c539c880569701d2f2d375,2022-07-06_24h29.33.331,Colour_Asymmetry_Pilot,2022.1.3,MacIntel,60.0024001,62c50e9c1127f2cd403a315f,0,73,73,97,1,onethree,,,,,,,,,,,,,,,,,,,,,,,,,,,,,,,,,,,,,,,,,,,,,,,,,,,,,,,,,,,,,,,,,,,,,,,,,,,,,,,,,,,,,,,,,,,,,,,,,,,,,,,,,,,,,,,,,,,,,,,,,,,,,,,,,,,,,,,,,,,,,,,,,,,,,,,,,,,,,
,,,,,,61078ef40ecc3ae99ceb0b07,62c539c880569701d2f2d375,2022-07-06_24h29.33.331,Colour_Asymmetry_Pilot,2022.1.3,MacIntel,60.0024001,62c50e9c1127f2cd403a315f,0,74,74,95,1,fourthree,,,,,,,,,,,,,,,,,,,,,,,,,,,,,,,,,,,,,,,,,,,,,,,,,,,,,,,,,,,,,,,,,,,,,,,,,,,,,,,,,,,,,,,,,,,,,,,,,,,,,,,,,,,,,,,,,,,,,,,,,,,,,,,,,,,,,,,,,,,,,,,,,,,,,,,,,,,,,
,,,,,,61078ef40ecc3ae99ceb0b07,62c539c880569701d2f2d375,2022-07-06_24h29.33.331,Colour_Asymmetry_Pilot,2022.1.3,MacIntel,60.0024001,62c50e9c1127f2cd403a315f,0,75,75,146,1,twoone,,,,,,,,,,,,,,,,,,,,,,,,,,,,,,,,,,,,,,,,,,,,,,,,,,,,,,,,,,,,,,,,,,,,,,,,,,,,,,,,,,,,,,,,,,,,,,,,,,,,,,,,,,,,,,,,,,,,,,,,,,,,,,,,,,,,,,,,,,,,,,,,,,,,,,,,,,,,,
,,,,,,61078ef40ecc3ae99ceb0b07,62c539c880569701d2f2d375,2022-07-06_24h29.33.331,Colour_Asymmetry_Pilot,2022.1.3,MacIntel,60.0024001,62c50e9c1127f2cd403a315f,0,76,76,131,1,twofour,,,,,,,,,,,,,,,,,,,,,,,,,,,,,,,,,,,,,,,,,,,,,,,,,,,,,,,,,,,,,,,,,,,,,,,,,,,,,,,,,,,,,,,,,,,,,,,,,,,,,,,,,,,,,,,,,,,,,,,,,,,,,,,,,,,,,,,,,,,,,,,,,,,,,,,,,,,,,
,,,,,,61078ef40ecc3ae99ceb0b07,62c539c880569701d2f2d375,2022-07-06_24h29.33.331,Colour_Asymmetry_Pilot,2022.1.3,MacIntel,60.0024001,62c50e9c1127f2cd403a315f,0,77,77,160,1,onetwo,,,,,,,,,,,,,,,,,,,,,,,,,,,,,,,,,,,,,,,,,,,,,,,,,,,,,,,,,,,,,,,,,,,,,,,,,,,,,,,,,,,,,,,,,,,,,,,,,,,,,,,,,,,,,,,,,,,,,,,,,,,,,,,,,,,,,,,,,,,,,,,,,,,,,,,,,,,,,
,,,,,,61078ef40ecc3ae99ceb0b07,62c539c880569701d2f2d375,2022-07-06_24h29.33.331,Colour_Asymmetry_Pilot,2022.1.3,MacIntel,60.0024001,62c50e9c1127f2cd403a315f,0,78,78,15,1,fourthree,,,,,,,,,,,,,,,,,,,,,,,,,,,,,,,,,,,,,,,,,,,,,,,,,,,,,,,,,,,,,,,,,,,,,,,,,,,,,,,,,,,,,,,,,,,,,,,,,,,,,,,,,,,,,,,,,,,,,,,,,,,,,,,,,,,,,,,,,,,,,,,,,,,,,,,,,,,,,
,,,,,,61078ef40ecc3ae99ceb0b07,62c539c880569701d2f2d375,2022-07-06_24h29.33.331,Colour_Asymmetry_Pilot,2022.1.3,MacIntel,60.0024001,62c50e9c1127f2cd403a315f,0,79,79,68,1,threeone,,,,,,,,,,,,,,,,,,,,,,,,,,,,,,,,,,,,,,,,,,,,,,,,,,,,,,,,,,,,,,,,,,,,,,,,,,,,,,,,,,,,,,,,,,,,,,,,,,,,,,,,,,,,,,,,,,,,,,,,,,,,,,,,,,,,,,,,,,,,,,,,,,,,,,,,,,,,,
,,,,,,61078ef40ecc3ae99ceb0b07,62c539c880569701d2f2d375,2022-07-06_24h29.33.331,Colour_Asymmetry_Pilot,2022.1.3,MacIntel,60.0024001,62c50e9c1127f2cd403a315f,0,80,80,82,1,twoone,,,,,,,,,,,,,,,,,,,,,,,,,,,,,,,,,,,,,,,,,,,,,,,,,,,,,,,,,,,,,,,,,,,,,,,,,,,,,,,,,,,,,,,,,,,,,,,,,,,,,,,,,,,,,,,,,,,,,,,,,,,,,,,,,,,,,,,,,,,,,,,,,,,,,,,,,,,,,
,,,,,,61078ef40ecc3ae99ceb0b07,62c539c880569701d2f2d375,2022-07-06_24h29.33.331,Colour_Asymmetry_Pilot,2022.1.3,MacIntel,60.0024001,62c50e9c1127f2cd403a315f,0,81,81,81,1,onethree,,,,,,,,,,,,,,,,,,,,,,,,,,,,,,,,,,,,,,,,,,,,,,,,,,,,,,,,,,,,,,,,,,,,,,,,,,,,,,,,,,,,,,,,,,,,,,,,,,,,,,,,,,,,,,,,,,,,,,,,,,,,,,,,,,,,,,,,,,,,,,,,,,,,,,,,,,,,,
,,,,,,61078ef40ecc3ae99ceb0b07,62c539c880569701d2f2d375,2022-07-06_24h29.33.331,Colour_Asymmetry_Pilot,2022.1.3,MacIntel,60.0024001,62c50e9c1127f2cd403a315f,0,82,82,54,1,fourtwo,,,,,,,,,,,,,,,,,,,,,,,,,,,,,,,,,,,,,,,,,,,,,,,,,,,,,,,,,,,,,,,,,,,,,,,,,,,,,,,,,,,,,,,,,,,,,,,,,,,,,,,,,,,,,,,,,,,,,,,,,,,,,,,,,,,,,,,,,,,,,,,,,,,,,,,,,,,,,
,,,,,,61078ef40ecc3ae99ceb0b07,62c539c880569701d2f2d375,2022-07-06_24h29.33.331,Colour_Asymmetry_Pilot,2022.1.3,MacIntel,60.0024001,62c50e9c1127f2cd403a315f,0,83,83,130,1,twoone,,,,,,,,,,,,,,,,,,,,,,,,,,,,,,,,,,,,,,,,,,,,,,,,,,,,,,,,,,,,,,,,,,,,,,,,,,,,,,,,,,,,,,,,,,,,,,,,,,,,,,,,,,,,,,,,,,,,,,,,,,,,,,,,,,,,,,,,,,,,,,,,,,,,,,,,,,,,,
,,,,,,61078ef40ecc3ae99ceb0b07,62c539c880569701d2f2d375,2022-07-06_24h29.33.331,Colour_Asymmetry_Pilot,2022.1.3,MacIntel,60.0024001,62c50e9c1127f2cd403a315f,0,84,84,104,1,onetwo,,,,,,,,,,,,,,,,,,,,,,,,,,,,,,,,,,,,,,,,,,,,,,,,,,,,,,,,,,,,,,,,,,,,,,,,,,,,,,,,,,,,,,,,,,,,,,,,,,,,,,,,,,,,,,,,,,,,,,,,,,,,,,,,,,,,,,,,,,,,,,,,,,,,,,,,,,,,,
,,,,,,61078ef40ecc3ae99ceb0b07,62c539c880569701d2f2d375,2022-07-06_24h29.33.331,Colour_Asymmetry_Pilot,2022.1.3,MacIntel,60.0024001,62c50e9c1127f2cd403a315f,0,85,85,102,1,fourtwo,,,,,,,,,,,,,,,,,,,,,,,,,,,,,,,,,,,,,,,,,,,,,,,,,,,,,,,,,,,,,,,,,,,,,,,,,,,,,,,,,,,,,,,,,,,,,,,,,,,,,,,,,,,,,,,,,,,,,,,,,,,,,,,,,,,,,,,,,,,,,,,,,,,,,,,,,,,,,
,,,,,,61078ef40ecc3ae99ceb0b07,62c539c880569701d2f2d375,2022-07-06_24h29.33.331,Colour_Asymmetry_Pilot,2022.1.3,MacIntel,60.0024001,62c50e9c1127f2cd403a315f,0,86,86,138,1,twoone,,,,,,,,,,,,,,,,,,,,,,,,,,,,,,,,,,,,,,,,,,,,,,,,,,,,,,,,,,,,,,,,,,,,,,,,,,,,,,,,,,,,,,,,,,,,,,,,,,,,,,,,,,,,,,,,,,,,,,,,,,,,,,,,,,,,,,,,,,,,,,,,,,,,,,,,,,,,,
,,,,,,61078ef40ecc3ae99ceb0b07,62c539c880569701d2f2d375,2022-07-06_24h29.33.331,Colour_Asymmetry_Pilot,2022.1.3,MacIntel,60.0024001,62c50e9c1127f2cd403a315f,0,87,87,158,1,fourtwo,,,,,,,,,,,,,,,,,,,,,,,,,,,,,,,,,,,,,,,,,,,,,,,,,,,,,,,,,,,,,,,,,,,,,,,,,,,,,,,,,,,,,,,,,,,,,,,,,,,,,,,,,,,,,,,,,,,,,,,,,,,,,,,,,,,,,,,,,,,,,,,,,,,,,,,,,,,,,
,,,,,,61078ef40ecc3ae99ceb0b07,62c539c880569701d2f2d375,2022-07-06_24h29.33.331,Colour_Asymmetry_Pilot,2022.1.3,MacIntel,60.0024001,62c50e9c1127f2cd403a315f,0,88,88,106,1,twoone,,,,,,,,,,,,,,,,,,,,,,,,,,,,,,,,,,,,,,,,,,,,,,,,,,,,,,,,,,,,,,,,,,,,,,,,,,,,,,,,,,,,,,,,,,,,,,,,,,,,,,,,,,,,,,,,,,,,,,,,,,,,,,,,,,,,,,,,,,,,,,,,,,,,,,,,,,,,,
,,,,,,61078ef40ecc3ae99ceb0b07,62c539c880569701d2f2d375,2022-07-06_24h29.33.331,Colour_Asymmetry_Pilot,2022.1.3,MacIntel,60.0024001,62c50e9c1127f2cd403a315f,0,89,89,37,1,threefour,,,,,,,,,,,,,,,,,,,,,,,,,,,,,,,,,,,,,,,,,,,,,,,,,,,,,,,,,,,,,,,,,,,,,,,,,,,,,,,,,,,,,,,,,,,,,,,,,,,,,,,,,,,,,,,,,,,,,,,,,,,,,,,,,,,,,,,,,,,,,,,,,,,,,,,,,,,,,
,,,,,,61078ef40ecc3ae99ceb0b07,62c539c880569701d2f2d375,2022-07-06_24h29.33.331,Colour_Asymmetry_Pilot,2022.1.3,MacIntel,60.0024001,62c50e9c1127f2cd403a315f,0,90,90,119,1,fourthree,,,,,,,,,,,,,,,,,,,,,,,,,,,,,,,,,,,,,,,,,,,,,,,,,,,,,,,,,,,,,,,,,,,,,,,,,,,,,,,,,,,,,,,,,,,,,,,,,,,,,,,,,,,,,,,,,,,,,,,,,,,,,,,,,,,,,,,,,,,,,,,,,,,,,,,,,,,,,
,,,,,,61078ef40ecc3ae99ceb0b07,62c539c880569701d2f2d375,2022-07-06_24h29.33.331,Colour_Asymmetry_Pilot,2022.1.3,MacIntel,60.0024001,62c50e9c1127f2cd403a315f,0,91,91,141,1,threefour,,,,,,,,,,,,,,,,,,,,,,,,,,,,,,,,,,,,,,,,,,,,,,,,,,,,,,,,,,,,,,,,,,,,,,,,,,,,,,,,,,,,,,,,,,,,,,,,,,,,,,,,,,,,,,,,,,,,,,,,,,,,,,,,,,,,,,,,,,,,,,,,,,,,,,,,,,,,,
,,,,,,61078ef40ecc3ae99ceb0b07,62c539c880569701d2f2d375,2022-07-06_24h29.33.331,Colour_Asymmetry_Pilot,2022.1.3,MacIntel,60.0024001,62c50e9c1127f2cd403a315f,0,92,92,35,1,twofour,,,,,,,,,,,,,,,,,,,,,,,,,,,,,,,,,,,,,,,,,,,,,,,,,,,,,,,,,,,,,,,,,,,,,,,,,,,,,,,,,,,,,,,,,,,,,,,,,,,,,,,,,,,,,,,,,,,,,,,,,,,,,,,,,,,,,,,,,,,,,,,,,,,,,,,,,,,,,
,,,,,,61078ef40ecc3ae99ceb0b07,62c539c880569701d2f2d375,2022-07-06_24h29.33.331,Colour_Asymmetry_Pilot,2022.1.3,MacIntel,60.0024001,62c50e9c1127f2cd403a315f,0,93,93,92,1,threeone,,,,,,,,,,,,,,,,,,,,,,,,,,,,,,,,,,,,,,,,,,,,,,,,,,,,,,,,,,,,,,,,,,,,,,,,,,,,,,,,,,,,,,,,,,,,,,,,,,,,,,,,,,,,,,,,,,,,,,,,,,,,,,,,,,,,,,,,,,,,,,,,,,,,,,,,,,,,,
,,,,,,61078ef40ecc3ae99ceb0b07,62c539c880569701d2f2d375,2022-07-06_24h29.33.331,Colour_Asymmetry_Pilot,2022.1.3,MacIntel,60.0024001,62c50e9c1127f2cd403a315f,0,94,94,121,1,onethree,,,,,,,,,,,,,,,,,,,,,,,,,,,,,,,,,,,,,,,,,,,,,,,,,,,,,,,,,,,,,,,,,,,,,,,,,,,,,,,,,,,,,,,,,,,,,,,,,,,,,,,,,,,,,,,,,,,,,,,,,,,,,,,,,,,,,,,,,,,,,,,,,,,,,,,,,,,,,
,,,,,,61078ef40ecc3ae99ceb0b07,62c539c880569701d2f2d375,2022-07-06_24h29.33.331,Colour_Asymmetry_Pilot,2022.1.3,MacIntel,60.0024001,62c50e9c1127f2cd403a315f,0,95,95,154,1,twoone,,,,,,,,,,,,,,,,,,,,,,,,,,,,,,,,,,,,,,,,,,,,,,,,,,,,,,,,,,,,,,,,,,,,,,,,,,,,,,,,,,,,,,,,,,,,,,,,,,,,,,,,,,,,,,,,,,,,,,,,,,,,,,,,,,,,,,,,,,,,,,,,,,,,,,,,,,,,,
,,,,,,61078ef40ecc3ae99ceb0b07,62c539c880569701d2f2d375,2022-07-06_24h29.33.331,Colour_Asymmetry_Pilot,2022.1.3,MacIntel,60.0024001,62c50e9c1127f2cd403a315f,0,96,96,133,1,threefour,,,,,,,,,,,,,,,,,,,,,,,,,,,,,,,,,,,,,,,,,,,,,,,,,,,,,,,,,,,,,,,,,,,,,,,,,,,,,,,,,,,,,,,,,,,,,,,,,,,,,,,,,,,,,,,,,,,,,,,,,,,,,,,,,,,,,,,,,,,,,,,,,,,,,,,,,,,,,
,,,,,,61078ef40ecc3ae99ceb0b07,62c539c880569701d2f2d375,2022-07-06_24h29.33.331,Colour_Asymmetry_Pilot,2022.1.3,MacIntel,60.0024001,62c50e9c1127f2cd403a315f,0,97,97,157,1,threefour,,,,,,,,,,,,,,,,,,,,,,,,,,,,,,,,,,,,,,,,,,,,,,,,,,,,,,,,,,,,,,,,,,,,,,,,,,,,,,,,,,,,,,,,,,,,,,,,,,,,,,,,,,,,,,,,,,,,,,,,,,,,,,,,,,,,,,,,,,,,,,,,,,,,,,,,,,,,,
,,,,,,61078ef40ecc3ae99ceb0b07,62c539c880569701d2f2d375,2022-07-06_24h29.33.331,Colour_Asymmetry_Pilot,2022.1.3,MacIntel,60.0024001,62c50e9c1127f2cd403a315f,0,98,98,13,1,threefour,,,,,,,,,,,,,,,,,,,,,,,,,,,,,,,,,,,,,,,,,,,,,,,,,,,,,,,,,,,,,,,,,,,,,,,,,,,,,,,,,,,,,,,,,,,,,,,,,,,,,,,,,,,,,,,,,,,,,,,,,,,,,,,,,,,,,,,,,,,,,,,,,,,,,,,,,,,,,
,,,,,,61078ef40ecc3ae99ceb0b07,62c539c880569701d2f2d375,2022-07-06_24h29.33.331,Colour_Asymmetry_Pilot,2022.1.3,MacIntel,60.0024001,62c50e9c1127f2cd403a315f,0,99,99,26,1,twoone,,,,,,,,,,,,,,,,,,,,,,,,,,,,,,,,,,,,,,,,,,,,,,,,,,,,,,,,,,,,,,,,,,,,,,,,,,,,,,,,,,,,,,,,,,,,,,,,,,,,,,,,,,,,,,,,,,,,,,,,,,,,,,,,,,,,,,,,,,,,,,,,,,,,,,,,,,,,,
,,,,,,61078ef40ecc3ae99ceb0b07,62c539c880569701d2f2d375,2022-07-06_24h29.33.331,Colour_Asymmetry_Pilot,2022.1.3,MacIntel,60.0024001,62c50e9c1127f2cd403a315f,0,100,100,135,1,fourthree,,,,,,,,,,,,,,,,,,,,,,,,,,,,,,,,,,,,,,,,,,,,,,,,,,,,,,,,,,,,,,,,,,,,,,,,,,,,,,,,,,,,,,,,,,,,,,,,,,,,,,,,,,,,,,,,,,,,,,,,,,,,,,,,,,,,,,,,,,,,,,,,,,,,,,,,,,,,,
,,,,,,61078ef40ecc3ae99ceb0b07,62c539c880569701d2f2d375,2022-07-06_24h29.33.331,Colour_Asymmetry_Pilot,2022.1.3,MacIntel,60.0024001,62c50e9c1127f2cd403a315f,0,101,101,66,1,twoone,,,,,,,,,,,,,,,,,,,,,,,,,,,,,,,,,,,,,,,,,,,,,,,,,,,,,,,,,,,,,,,,,,,,,,,,,,,,,,,,,,,,,,,,,,,,,,,,,,,,,,,,,,,,,,,,,,,,,,,,,,,,,,,,,,,,,,,,,,,,,,,,,,,,,,,,,,,,,
,,,,,,61078ef40ecc3ae99ceb0b07,62c539c880569701d2f2d375,2022-07-06_24h29.33.331,Colour_Asymmetry_Pilot,2022.1.3,MacIntel,60.0024001,62c50e9c1127f2cd403a315f,0,102,102,23,1,fourthree,,,,,,,,,,,,,,,,,,,,,,,,,,,,,,,,,,,,,,,,,,,,,,,,,,,,,,,,,,,,,,,,,,,,,,,,,,,,,,,,,,,,,,,,,,,,,,,,,,,,,,,,,,,,,,,,,,,,,,,,,,,,,,,,,,,,,,,,,,,,,,,,,,,,,,,,,,,,,
,,,,,,61078ef40ecc3ae99ceb0b07,62c539c880569701d2f2d375,2022-07-06_24h29.33.331,Colour_Asymmetry_Pilot,2022.1.3,MacIntel,60.0024001,62c50e9c1127f2cd403a315f,0,103,103,61,1,threefour,,,,,,,,,,,,,,,,,,,,,,,,,,,,,,,,,,,,,,,,,,,,,,,,,,,,,,,,,,,,,,,,,,,,,,,,,,,,,,,,,,,,,,,,,,,,,,,,,,,,,,,,,,,,,,,,,,,,,,,,,,,,,,,,,,,,,,,,,,,,,,,,,,,,,,,,,,,,,
,,,,,,61078ef40ecc3ae99ceb0b07,62c539c880569701d2f2d375,2022-07-06_24h29.33.331,Colour_Asymmetry_Pilot,2022.1.3,MacIntel,60.0024001,62c50e9c1127f2cd403a315f,0,104,104,77,1,threefour,,,,,,,,,,,,,,,,,,,,,,,,,,,,,,,,,,,,,,,,,,,,,,,,,,,,,,,,,,,,,,,,,,,,,,,,,,,,,,,,,,,,,,,,,,,,,,,,,,,,,,,,,,,,,,,,,,,,,,,,,,,,,,,,,,,,,,,,,,,,,,,,,,,,,,,,,,,,,
,,,,,,61078ef40ecc3ae99ceb0b07,62c539c880569701d2f2d375,2022-07-06_24h29.33.331,Colour_Asymmetry_Pilot,2022.1.3,MacIntel,60.0024001,62c50e9c1127f2cd403a315f,0,105,105,70,1,fourtwo,,,,,,,,,,,,,,,,,,,,,,,,,,,,,,,,,,,,,,,,,,,,,,,,,,,,,,,,,,,,,,,,,,,,,,,,,,,,,,,,,,,,,,,,,,,,,,,,,,,,,,,,,,,,,,,,,,,,,,,,,,,,,,,,,,,,,,,,,,,,,,,,,,,,,,,,,,,,,
,,,,,,61078ef40ecc3ae99ceb0b07,62c539c880569701d2f2d375,2022-07-06_24h29.33.331,Colour_Asymmetry_Pilot,2022.1.3,MacIntel,60.0024001,62c50e9c1127f2cd403a315f,0,106,106,114,1,twoone,,,,,,,,,,,,,,,,,,,,,,,,,,,,,,,,,,,,,,,,,,,,,,,,,,,,,,,,,,,,,,,,,,,,,,,,,,,,,,,,,,,,,,,,,,,,,,,,,,,,,,,,,,,,,,,,,,,,,,,,,,,,,,,,,,,,,,,,,,,,,,,,,,,,,,,,,,,,,
,,,,,,61078ef40ecc3ae99ceb0b07,62c539c880569701d2f2d375,2022-07-06_24h29.33.331,Colour_Asymmetry_Pilot,2022.1.3,MacIntel,60.0024001,62c50e9c1127f2cd403a315f,0,107,107,38,1,fourtwo,,,,,,,,,,,,,,,,,,,,,,,,,,,,,,,,,,,,,,,,,,,,,,,,,,,,,,,,,,,,,,,,,,,,,,,,,,,,,,,,,,,,,,,,,,,,,,,,,,,,,,,,,,,,,,,,,,,,,,,,,,,,,,,,,,,,,,,,,,,,,,,,,,,,,,,,,,,,,
,,,,,,61078ef40ecc3ae99ceb0b07,62c539c880569701d2f2d375,2022-07-06_24h29.33.331,Colour_Asymmetry_Pilot,2022.1.3,MacIntel,60.0024001,62c50e9c1127f2cd403a315f,0,108,108,132,1,threeone,,,,,,,,,,,,,,,,,,,,,,,,,,,,,,,,,,,,,,,,,,,,,,,,,,,,,,,,,,,,,,,,,,,,,,,,,,,,,,,,,,,,,,,,,,,,,,,,,,,,,,,,,,,,,,,,,,,,,,,,,,,,,,,,,,,,,,,,,,,,,,,,,,,,,,,,,,,,,
,,,,,,61078ef40ecc3ae99ceb0b07,62c539c880569701d2f2d375,2022-07-06_24h29.33.331,Colour_Asymmetry_Pilot,2022.1.3,MacIntel,60.0024001,62c50e9c1127f2cd403a315f,0,109,109,14,1,fourtwo,,,,,,,,,,,,,,,,,,,,,,,,,,,,,,,,,,,,,,,,,,,,,,,,,,,,,,,,,,,,,,,,,,,,,,,,,,,,,,,,,,,,,,,,,,,,,,,,,,,,,,,,,,,,,,,,,,,,,,,,,,,,,,,,,,,,,,,,,,,,,,,,,,,,,,,,,,,,,
,,,,,,61078ef40ecc3ae99ceb0b07,62c539c880569701d2f2d375,2022-07-06_24h29.33.331,Colour_Asymmetry_Pilot,2022.1.3,MacIntel,60.0024001,62c50e9c1127f2cd403a315f,0,110,110,64,1,onetwo,,,,,,,,,,,,,,,,,,,,,,,,,,,,,,,,,,,,,,,,,,,,,,,,,,,,,,,,,,,,,,,,,,,,,,,,,,,,,,,,,,,,,,,,,,,,,,,,,,,,,,,,,,,,,,,,,,,,,,,,,,,,,,,,,,,,,,,,,,,,,,,,,,,,,,,,,,,,,
,,,,,,61078ef40ecc3ae99ceb0b07,62c539c880569701d2f2d375,2022-07-06_24h29.33.331,Colour_Asymmetry_Pilot,2022.1.3,MacIntel,60.0024001,62c50e9c1127f2cd403a315f,0,111,111,142,1,fourtwo,,,,,,,,,,,,,,,,,,,,,,,,,,,,,,,,,,,,,,,,,,,,,,,,,,,,,,,,,,,,,,,,,,,,,,,,,,,,,,,,,,,,,,,,,,,,,,,,,,,,,,,,,,,,,,,,,,,,,,,,,,,,,,,,,,,,,,,,,,,,,,,,,,,,,,,,,,,,,
,,,,,,61078ef40ecc3ae99ceb0b07,62c539c880569701d2f2d375,2022-07-06_24h29.33.331,Colour_Asymmetry_Pilot,2022.1.3,MacIntel,60.0024001,62c50e9c1127f2cd403a315f,0,112,112,76,1,threeone,,,,,,,,,,,,,,,,,,,,,,,,,,,,,,,,,,,,,,,,,,,,,,,,,,,,,,,,,,,,,,,,,,,,,,,,,,,,,,,,,,,,,,,,,,,,,,,,,,,,,,,,,,,,,,,,,,,,,,,,,,,,,,,,,,,,,,,,,,,,,,,,,,,,,,,,,,,,,
,,,,,,61078ef40ecc3ae99ceb0b07,62c539c880569701d2f2d375,2022-07-06_24h29.33.331,Colour_Asymmetry_Pilot,2022.1.3,MacIntel,60.0024001,62c50e9c1127f2cd403a315f,0,113,113,71,1,fourthree,,,,,,,,,,,,,,,,,,,,,,,,,,,,,,,,,,,,,,,,,,,,,,,,,,,,,,,,,,,,,,,,,,,,,,,,,,,,,,,,,,,,,,,,,,,,,,,,,,,,,,,,,,,,,,,,,,,,,,,,,,,,,,,,,,,,,,,,,,,,,,,,,,,,,,,,,,,,,
,,,,,,61078ef40ecc3ae99ceb0b07,62c539c880569701d2f2d375,2022-07-06_24h29.33.331,Colour_Asymmetry_Pilot,2022.1.3,MacIntel,60.0024001,62c50e9c1127f2cd403a315f,0,114,114,8,1,onetwo,,,,,,,,,,,,,,,,,,,,,,,,,,,,,,,,,,,,,,,,,,,,,,,,,,,,,,,,,,,,,,,,,,,,,,,,,,,,,,,,,,,,,,,,,,,,,,,,,,,,,,,,,,,,,,,,,,,,,,,,,,,,,,,,,,,,,,,,,,,,,,,,,,,,,,,,,,,,,
,,,,,,61078ef40ecc3ae99ceb0b07,62c539c880569701d2f2d375,2022-07-06_24h29.33.331,Colour_Asymmetry_Pilot,2022.1.3,MacIntel,60.0024001,62c50e9c1127f2cd403a315f,0,115,115,57,1,onethree,,,,,,,,,,,,,,,,,,,,,,,,,,,,,,,,,,,,,,,,,,,,,,,,,,,,,,,,,,,,,,,,,,,,,,,,,,,,,,,,,,,,,,,,,,,,,,,,,,,,,,,,,,,,,,,,,,,,,,,,,,,,,,,,,,,,,,,,,,,,,,,,,,,,,,,,,,,,,
,,,,,,61078ef40ecc3ae99ceb0b07,62c539c880569701d2f2d375,2022-07-06_24h29.33.331,Colour_Asymmetry_Pilot,2022.1.3,MacIntel,60.0024001,62c50e9c1127f2cd403a315f,0,116,116,36,1,threeone,,,,,,,,,,,,,,,,,,,,,,,,,,,,,,,,,,,,,,,,,,,,,,,,,,,,,,,,,,,,,,,,,,,,,,,,,,,,,,,,,,,,,,,,,,,,,,,,,,,,,,,,,,,,,,,,,,,,,,,,,,,,,,,,,,,,,,,,,,,,,,,,,,,,,,,,,,,,,
,,,,,,61078ef40ecc3ae99ceb0b07,62c539c880569701d2f2d375,2022-07-06_24h29.33.331,Colour_Asymmetry_Pilot,2022.1.3,MacIntel,60.0024001,62c50e9c1127f2cd403a315f,0,117,117,137,1,onethree,,,,,,,,,,,,,,,,,,,,,,,,,,,,,,,,,,,,,,,,,,,,,,,,,,,,,,,,,,,,,,,,,,,,,,,,,,,,,,,,,,,,,,,,,,,,,,,,,,,,,,,,,,,,,,,,,,,,,,,,,,,,,,,,,,,,,,,,,,,,,,,,,,,,,,,,,,,,,
,,,,,,61078ef40ecc3ae99ceb0b07,62c539c880569701d2f2d375,2022-07-06_24h29.33.331,Colour_Asymmetry_Pilot,2022.1.3,MacIntel,60.0024001,62c50e9c1127f2cd403a315f,0,118,118,110,1,fourtwo,,,,,,,,,,,,,,,,,,,,,,,,,,,,,,,,,,,,,,,,,,,,,,,,,,,,,,,,,,,,,,,,,,,,,,,,,,,,,,,,,,,,,,,,,,,,,,,,,,,,,,,,,,,,,,,,,,,,,,,,,,,,,,,,,,,,,,,,,,,,,,,,,,,,,,,,,,,,,
,,,,,,61078ef40ecc3ae99ceb0b07,62c539c880569701d2f2d375,2022-07-06_24h29.33.331,Colour_Asymmetry_Pilot,2022.1.3,MacIntel,60.0024001,62c50e9c1127f2cd403a315f,0,119,119,86,1,fourtwo,,,,,,,,,,,,,,,,,,,,,,,,,,,,,,,,,,,,,,,,,,,,,,,,,,,,,,,,,,,,,,,,,,,,,,,,,,,,,,,,,,,,,,,,,,,,,,,,,,,,,,,,,,,,,,,,,,,,,,,,,,,,,,,,,,,,,,,,,,,,,,,,,,,,,,,,,,,,,
,,,,,,61078ef40ecc3ae99ceb0b07,62c539c880569701d2f2d375,2022-07-06_24h29.33.331,Colour_Asymmetry_Pilot,2022.1.3,MacIntel,60.0024001,62c50e9c1127f2cd403a315f,0,120,120,67,1,twofour,,,,,,,,,,,,,,,,,,,,,,,,,,,,,,,,,,,,,,,,,,,,,,,,,,,,,,,,,,,,,,,,,,,,,,,,,,,,,,,,,,,,,,,,,,,,,,,,,,,,,,,,,,,,,,,,,,,,,,,,,,,,,,,,,,,,,,,,,,,,,,,,,,,,,,,,,,,,,
,,,,,,61078ef40ecc3ae99ceb0b07,62c539c880569701d2f2d375,2022-07-06_24h29.33.331,Colour_Asymmetry_Pilot,2022.1.3,MacIntel,60.0024001,62c50e9c1127f2cd403a315f,0,121,121,39,1,fourthree,,,,,,,,,,,,,,,,,,,,,,,,,,,,,,,,,,,,,,,,,,,,,,,,,,,,,,,,,,,,,,,,,,,,,,,,,,,,,,,,,,,,,,,,,,,,,,,,,,,,,,,,,,,,,,,,,,,,,,,,,,,,,,,,,,,,,,,,,,,,,,,,,,,,,,,,,,,,,
,,,,,,61078ef40ecc3ae99ceb0b07,62c539c880569701d2f2d375,2022-07-06_24h29.33.331,Colour_Asymmetry_Pilot,2022.1.3,MacIntel,60.0024001,62c50e9c1127f2cd403a315f,0,122,122,50,1,twoone,,,,,,,,,,,,,,,,,,,,,,,,,,,,,,,,,,,,,,,,,,,,,,,,,,,,,,,,,,,,,,,,,,,,,,,,,,,,,,,,,,,,,,,,,,,,,,,,,,,,,,,,,,,,,,,,,,,,,,,,,,,,,,,,,,,,,,,,,,,,,,,,,,,,,,,,,,,,,
,,,,,,61078ef40ecc3ae99ceb0b07,62c539c880569701d2f2d375,2022-07-06_24h29.33.331,Colour_Asymmetry_Pilot,2022.1.3,MacIntel,60.0024001,62c50e9c1127f2cd403a315f,0,123,123,42,1,twoone,,,,,,,,,,,,,,,,,,,,,,,,,,,,,,,,,,,,,,,,,,,,,,,,,,,,,,,,,,,,,,,,,,,,,,,,,,,,,,,,,,,,,,,,,,,,,,,,,,,,,,,,,,,,,,,,,,,,,,,,,,,,,,,,,,,,,,,,,,,,,,,,,,,,,,,,,,,,,
,,,,,,61078ef40ecc3ae99ceb0b07,62c539c880569701d2f2d375,2022-07-06_24h29.33.331,Colour_Asymmetry_Pilot,2022.1.3,MacIntel,60.0024001,62c50e9c1127f2cd403a315f,0,124,124,143,1,fourthree,,,,,,,,,,,,,,,,,,,,,,,,,,,,,,,,,,,,,,,,,,,,,,,,,,,,,,,,,,,,,,,,,,,,,,,,,,,,,,,,,,,,,,,,,,,,,,,,,,,,,,,,,,,,,,,,,,,,,,,,,,,,,,,,,,,,,,,,,,,,,,,,,,,,,,,,,,,,,
,,,,,,61078ef40ecc3ae99ceb0b07,62c539c880569701d2f2d375,2022-07-06_24h29.33.331,Colour_Asymmetry_Pilot,2022.1.3,MacIntel,60.0024001,62c50e9c1127f2cd403a315f,0,125,125,127,1,fourthree,,,,,,,,,,,,,,,,,,,,,,,,,,,,,,,,,,,,,,,,,,,,,,,,,,,,,,,,,,,,,,,,,,,,,,,,,,,,,,,,,,,,,,,,,,,,,,,,,,,,,,,,,,,,,,,,,,,,,,,,,,,,,,,,,,,,,,,,,,,,,,,,,,,,,,,,,,,,,
,,,,,,61078ef40ecc3ae99ceb0b07,62c539c880569701d2f2d375,2022-07-06_24h29.33.331,Colour_Asymmetry_Pilot,2022.1.3,MacIntel,60.0024001,62c50e9c1127f2cd403a315f,0,126,126,17,1,onethree,,,,,,,,,,,,,,,,,,,,,,,,,,,,,,,,,,,,,,,,,,,,,,,,,,,,,,,,,,,,,,,,,,,,,,,,,,,,,,,,,,,,,,,,,,,,,,,,,,,,,,,,,,,,,,,,,,,,,,,,,,,,,,,,,,,,,,,,,,,,,,,,,,,,,,,,,,,,,
,,,,,,61078ef40ecc3ae99ceb0b07,62c539c880569701d2f2d375,2022-07-06_24h29.33.331,Colour_Asymmetry_Pilot,2022.1.3,MacIntel,60.0024001,62c50e9c1127f2cd403a315f,0,127,127,99,1,twofour,,,,,,,,,,,,,,,,,,,,,,,,,,,,,,,,,,,,,,,,,,,,,,,,,,,,,,,,,,,,,,,,,,,,,,,,,,,,,,,,,,,,,,,,,,,,,,,,,,,,,,,,,,,,,,,,,,,,,,,,,,,,,,,,,,,,,,,,,,,,,,,,,,,,,,,,,,,,,
,,,,,,61078ef40ecc3ae99ceb0b07,62c539c880569701d2f2d375,2022-07-06_24h29.33.331,Colour_Asymmetry_Pilot,2022.1.3,MacIntel,60.0024001,62c50e9c1127f2cd403a315f,0,128,128,49,1,onethree,,,,,,,,,,,,,,,,,,,,,,,,,,,,,,,,,,,,,,,,,,,,,,,,,,,,,,,,,,,,,,,,,,,,,,,,,,,,,,,,,,,,,,,,,,,,,,,,,,,,,,,,,,,,,,,,,,,,,,,,,,,,,,,,,,,,,,,,,,,,,,,,,,,,,,,,,,,,,
,,,,,,61078ef40ecc3ae99ceb0b07,62c539c880569701d2f2d375,2022-07-06_24h29.33.331,Colour_Asymmetry_Pilot,2022.1.3,MacIntel,60.0024001,62c50e9c1127f2cd403a315f,0,129,129,65,1,onethree,,,,,,,,,,,,,,,,,,,,,,,,,,,,,,,,,,,,,,,,,,,,,,,,,,,,,,,,,,,,,,,,,,,,,,,,,,,,,,,,,,,,,,,,,,,,,,,,,,,,,,,,,,,,,,,,,,,,,,,,,,,,,,,,,,,,,,,,,,,,,,,,,,,,,,,,,,,,,
,,,,,,61078ef40ecc3ae99ceb0b07,62c539c880569701d2f2d375,2022-07-06_24h29.33.331,Colour_Asymmetry_Pilot,2022.1.3,MacIntel,60.0024001,62c50e9c1127f2cd403a315f,0,130,130,83,1,twofour,,,,,,,,,,,,,,,,,,,,,,,,,,,,,,,,,,,,,,,,,,,,,,,,,,,,,,,,,,,,,,,,,,,,,,,,,,,,,,,,,,,,,,,,,,,,,,,,,,,,,,,,,,,,,,,,,,,,,,,,,,,,,,,,,,,,,,,,,,,,,,,,,,,,,,,,,,,,,
,,,,,,61078ef40ecc3ae99ceb0b07,62c539c880569701d2f2d375,2022-07-06_24h29.33.331,Colour_Asymmetry_Pilot,2022.1.3,MacIntel,60.0024001,62c50e9c1127f2cd403a315f,0,131,131,98,1,twoone,,,,,,,,,,,,,,,,,,,,,,,,,,,,,,,,,,,,,,,,,,,,,,,,,,,,,,,,,,,,,,,,,,,,,,,,,,,,,,,,,,,,,,,,,,,,,,,,,,,,,,,,,,,,,,,,,,,,,,,,,,,,,,,,,,,,,,,,,,,,,,,,,,,,,,,,,,,,,
,,,,,,61078ef40ecc3ae99ceb0b07,62c539c880569701d2f2d375,2022-07-06_24h29.33.331,Colour_Asymmetry_Pilot,2022.1.3,MacIntel,60.0024001,62c50e9c1127f2cd403a315f,0,132,132,18,1,twoone,,,,,,,,,,,,,,,,,,,,,,,,,,,,,,,,,,,,,,,,,,,,,,,,,,,,,,,,,,,,,,,,,,,,,,,,,,,,,,,,,,,,,,,,,,,,,,,,,,,,,,,,,,,,,,,,,,,,,,,,,,,,,,,,,,,,,,,,,,,,,,,,,,,,,,,,,,,,,
,,,,,,61078ef40ecc3ae99ceb0b07,62c539c880569701d2f2d375,2022-07-06_24h29.33.331,Colour_Asymmetry_Pilot,2022.1.3,MacIntel,60.0024001,62c50e9c1127f2cd403a315f,0,133,133,48,1,onetwo,,,,,,,,,,,,,,,,,,,,,,,,,,,,,,,,,,,,,,,,,,,,,,,,,,,,,,,,,,,,,,,,,,,,,,,,,,,,,,,,,,,,,,,,,,,,,,,,,,,,,,,,,,,,,,,,,,,,,,,,,,,,,,,,,,,,,,,,,,,,,,,,,,,,,,,,,,,,,
,,,,,,61078ef40ecc3ae99ceb0b07,62c539c880569701d2f2d375,2022-07-06_24h29.33.331,Colour_Asymmetry_Pilot,2022.1.3,MacIntel,60.0024001,62c50e9c1127f2cd403a315f,0,134,134,25,1,onethree,,,,,,,,,,,,,,,,,,,,,,,,,,,,,,,,,,,,,,,,,,,,,,,,,,,,,,,,,,,,,,,,,,,,,,,,,,,,,,,,,,,,,,,,,,,,,,,,,,,,,,,,,,,,,,,,,,,,,,,,,,,,,,,,,,,,,,,,,,,,,,,,,,,,,,,,,,,,,
,,,,,,61078ef40ecc3ae99ceb0b07,62c539c880569701d2f2d375,2022-07-06_24h29.33.331,Colour_Asymmetry_Pilot,2022.1.3,MacIntel,60.0024001,62c50e9c1127f2cd403a315f,0,135,135,79,1,fourthree,,,,,,,,,,,,,,,,,,,,,,,,,,,,,,,,,,,,,,,,,,,,,,,,,,,,,,,,,,,,,,,,,,,,,,,,,,,,,,,,,,,,,,,,,,,,,,,,,,,,,,,,,,,,,,,,,,,,,,,,,,,,,,,,,,,,,,,,,,,,,,,,,,,,,,,,,,,,,
,,,,,,61078ef40ecc3ae99ceb0b07,62c539c880569701d2f2d375,2022-07-06_24h29.33.331,Colour_Asymmetry_Pilot,2022.1.3,MacIntel,60.0024001,62c50e9c1127f2cd403a315f,0,136,136,21,1,threefour,,,,,,,,,,,,,,,,,,,,,,,,,,,,,,,,,,,,,,,,,,,,,,,,,,,,,,,,,,,,,,,,,,,,,,,,,,,,,,,,,,,,,,,,,,,,,,,,,,,,,,,,,,,,,,,,,,,,,,,,,,,,,,,,,,,,,,,,,,,,,,,,,,,,,,,,,,,,,
,,,,,,61078ef40ecc3ae99ceb0b07,62c539c880569701d2f2d375,2022-07-06_24h29.33.331,Colour_Asymmetry_Pilot,2022.1.3,MacIntel,60.0024001,62c50e9c1127f2cd403a315f,0,137,137,59,1,twofour,,,,,,,,,,,,,,,,,,,,,,,,,,,,,,,,,,,,,,,,,,,,,,,,,,,,,,,,,,,,,,,,,,,,,,,,,,,,,,,,,,,,,,,,,,,,,,,,,,,,,,,,,,,,,,,,,,,,,,,,,,,,,,,,,,,,,,,,,,,,,,,,,,,,,,,,,,,,,
,,,,,,61078ef40ecc3ae99ceb0b07,62c539c880569701d2f2d375,2022-07-06_24h29.33.331,Colour_Asymmetry_Pilot,2022.1.3,MacIntel,60.0024001,62c50e9c1127f2cd403a315f,0,138,138,124,1,threeone,,,,,,,,,,,,,,,,,,,,,,,,,,,,,,,,,,,,,,,,,,,,,,,,,,,,,,,,,,,,,,,,,,,,,,,,,,,,,,,,,,,,,,,,,,,,,,,,,,,,,,,,,,,,,,,,,,,,,,,,,,,,,,,,,,,,,,,,,,,,,,,,,,,,,,,,,,,,,
,,,,,,61078ef40ecc3ae99ceb0b07,62c539c880569701d2f2d375,2022-07-06_24h29.33.331,Colour_Asymmetry_Pilot,2022.1.3,MacIntel,60.0024001,62c50e9c1127f2cd403a315f,0,139,139,6,1,fourtwo,,,,,,,,,,,,,,,,,,,,,,,,,,,,,,,,,,,,,,,,,,,,,,,,,,,,,,,,,,,,,,,,,,,,,,,,,,,,,,,,,,,,,,,,,,,,,,,,,,,,,,,,,,,,,,,,,,,,,,,,,,,,,,,,,,,,,,,,,,,,,,,,,,,,,,,,,,,,,
,,,,,,61078ef40ecc3ae99ceb0b07,62c539c880569701d2f2d375,2022-07-06_24h29.33.331,Colour_Asymmetry_Pilot,2022.1.3,MacIntel,60.0024001,62c50e9c1127f2cd403a315f,0,140,140,40,1,onetwo,,,,,,,,,,,,,,,,,,,,,,,,,,,,,,,,,,,,,,,,,,,,,,,,,,,,,,,,,,,,,,,,,,,,,,,,,,,,,,,,,,,,,,,,,,,,,,,,,,,,,,,,,,,,,,,,,,,,,,,,,,,,,,,,,,,,,,,,,,,,,,,,,,,,,,,,,,,,,
,,,,,,61078ef40ecc3ae99ceb0b07,62c539c880569701d2f2d375,2022-07-06_24h29.33.331,Colour_Asymmetry_Pilot,2022.1.3,MacIntel,60.0024001,62c50e9c1127f2cd403a315f,0,141,141,11,1,twofour,,,,,,,,,,,,,,,,,,,,,,,,,,,,,,,,,,,,,,,,,,,,,,,,,,,,,,,,,,,,,,,,,,,,,,,,,,,,,,,,,,,,,,,,,,,,,,,,,,,,,,,,,,,,,,,,,,,,,,,,,,,,,,,,,,,,,,,,,,,,,,,,,,,,,,,,,,,,,
,,,,,,61078ef40ecc3ae99ceb0b07,62c539c880569701d2f2d375,2022-07-06_24h29.33.331,Colour_Asymmetry_Pilot,2022.1.3,MacIntel,60.0024001,62c50e9c1127f2cd403a315f,0,142,142,112,1,onetwo,,,,,,,,,,,,,,,,,,,,,,,,,,,,,,,,,,,,,,,,,,,,,,,,,,,,,,,,,,,,,,,,,,,,,,,,,,,,,,,,,,,,,,,,,,,,,,,,,,,,,,,,,,,,,,,,,,,,,,,,,,,,,,,,,,,,,,,,,,,,,,,,,,,,,,,,,,,,,
,,,,,,61078ef40ecc3ae99ceb0b07,62c539c880569701d2f2d375,2022-07-06_24h29.33.331,Colour_Asymmetry_Pilot,2022.1.3,MacIntel,60.0024001,62c50e9c1127f2cd403a315f,0,143,143,44,1,threeone,,,,,,,,,,,,,,,,,,,,,,,,,,,,,,,,,,,,,,,,,,,,,,,,,,,,,,,,,,,,,,,,,,,,,,,,,,,,,,,,,,,,,,,,,,,,,,,,,,,,,,,,,,,,,,,,,,,,,,,,,,,,,,,,,,,,,,,,,,,,,,,,,,,,,,,,,,,,,
,,,,,,61078ef40ecc3ae99ceb0b07,62c539c880569701d2f2d375,2022-07-06_24h29.33.331,Colour_Asymmetry_Pilot,2022.1.3,MacIntel,60.0024001,62c50e9c1127f2cd403a315f,0,144,144,153,1,onethree,,,,,,,,,,,,,,,,,,,,,,,,,,,,,,,,,,,,,,,,,,,,,,,,,,,,,,,,,,,,,,,,,,,,,,,,,,,,,,,,,,,,,,,,,,,,,,,,,,,,,,,,,,,,,,,,,,,,,,,,,,,,,,,,,,,,,,,,,,,,,,,,,,,,,,,,,,,,,
,,,,,,61078ef40ecc3ae99ceb0b07,62c539c880569701d2f2d375,2022-07-06_24h29.33.331,Colour_Asymmetry_Pilot,2022.1.3,MacIntel,60.0024001,62c50e9c1127f2cd403a315f,0,145,145,31,1,fourthree,,,,,,,,,,,,,,,,,,,,,,,,,,,,,,,,,,,,,,,,,,,,,,,,,,,,,,,,,,,,,,,,,,,,,,,,,,,,,,,,,,,,,,,,,,,,,,,,,,,,,,,,,,,,,,,,,,,,,,,,,,,,,,,,,,,,,,,,,,,,,,,,,,,,,,,,,,,,,
,,,,,,61078ef40ecc3ae99ceb0b07,62c539c880569701d2f2d375,2022-07-06_24h29.33.331,Colour_Asymmetry_Pilot,2022.1.3,MacIntel,60.0024001,62c50e9c1127f2cd403a315f,0,146,146,29,1,threefour,,,,,,,,,,,,,,,,,,,,,,,,,,,,,,,,,,,,,,,,,,,,,,,,,,,,,,,,,,,,,,,,,,,,,,,,,,,,,,,,,,,,,,,,,,,,,,,,,,,,,,,,,,,,,,,,,,,,,,,,,,,,,,,,,,,,,,,,,,,,,,,,,,,,,,,,,,,,,
,,,,,,61078ef40ecc3ae99ceb0b07,62c539c880569701d2f2d375,2022-07-06_24h29.33.331,Colour_Asymmetry_Pilot,2022.1.3,MacIntel,60.0024001,62c50e9c1127f2cd403a315f,0,147,147,108,1,threeone,,,,,,,,,,,,,,,,,,,,,,,,,,,,,,,,,,,,,,,,,,,,,,,,,,,,,,,,,,,,,,,,,,,,,,,,,,,,,,,,,,,,,,,,,,,,,,,,,,,,,,,,,,,,,,,,,,,,,,,,,,,,,,,,,,,,,,,,,,,,,,,,,,,,,,,,,,,,,
,,,,,,61078ef40ecc3ae99ceb0b07,62c539c880569701d2f2d375,2022-07-06_24h29.33.331,Colour_Asymmetry_Pilot,2022.1.3,MacIntel,60.0024001,62c50e9c1127f2cd403a315f,0,148,148,93,1,threefour,,,,,,,,,,,,,,,,,,,,,,,,,,,,,,,,,,,,,,,,,,,,,,,,,,,,,,,,,,,,,,,,,,,,,,,,,,,,,,,,,,,,,,,,,,,,,,,,,,,,,,,,,,,,,,,,,,,,,,,,,,,,,,,,,,,,,,,,,,,,,,,,,,,,,,,,,,,,,
,,,,,,61078ef40ecc3ae99ceb0b07,62c539c880569701d2f2d375,2022-07-06_24h29.33.331,Colour_Asymmetry_Pilot,2022.1.3,MacIntel,60.0024001,62c50e9c1127f2cd403a315f,0,149,149,16,1,onetwo,,,,,,,,,,,,,,,,,,,,,,,,,,,,,,,,,,,,,,,,,,,,,,,,,,,,,,,,,,,,,,,,,,,,,,,,,,,,,,,,,,,,,,,,,,,,,,,,,,,,,,,,,,,,,,,,,,,,,,,,,,,,,,,,,,,,,,,,,,,,,,,,,,,,,,,,,,,,,
,,,,,,61078ef40ecc3ae99ceb0b07,62c539c880569701d2f2d375,2022-07-06_24h29.33.331,Colour_Asymmetry_Pilot,2022.1.3,MacIntel,60.0024001,62c50e9c1127f2cd403a315f,0,150,150,122,1,twoone,,,,,,,,,,,,,,,,,,,,,,,,,,,,,,,,,,,,,,,,,,,,,,,,,,,,,,,,,,,,,,,,,,,,,,,,,,,,,,,,,,,,,,,,,,,,,,,,,,,,,,,,,,,,,,,,,,,,,,,,,,,,,,,,,,,,,,,,,,,,,,,,,,,,,,,,,,,,,
,,,,,,61078ef40ecc3ae99ceb0b07,62c539c880569701d2f2d375,2022-07-06_24h29.33.331,Colour_Asymmetry_Pilot,2022.1.3,MacIntel,60.0024001,62c50e9c1127f2cd403a315f,0,151,151,51,1,twofour,,,,,,,,,,,,,,,,,,,,,,,,,,,,,,,,,,,,,,,,,,,,,,,,,,,,,,,,,,,,,,,,,,,,,,,,,,,,,,,,,,,,,,,,,,,,,,,,,,,,,,,,,,,,,,,,,,,,,,,,,,,,,,,,,,,,,,,,,,,,,,,,,,,,,,,,,,,,,
,,,,,,61078ef40ecc3ae99ceb0b07,62c539c880569701d2f2d375,2022-07-06_24h29.33.331,Colour_Asymmetry_Pilot,2022.1.3,MacIntel,60.0024001,62c50e9c1127f2cd403a315f,0,152,152,87,1,fourthree,,,,,,,,,,,,,,,,,,,,,,,,,,,,,,,,,,,,,,,,,,,,,,,,,,,,,,,,,,,,,,,,,,,,,,,,,,,,,,,,,,,,,,,,,,,,,,,,,,,,,,,,,,,,,,,,,,,,,,,,,,,,,,,,,,,,,,,,,,,,,,,,,,,,,,,,,,,,,
,,,,,,61078ef40ecc3ae99ceb0b07,62c539c880569701d2f2d375,2022-07-06_24h29.33.331,Colour_Asymmetry_Pilot,2022.1.3,MacIntel,60.0024001,62c50e9c1127f2cd403a315f,0,153,153,151,1,fourthree,,,,,,,,,,,,,,,,,,,,,,,,,,,,,,,,,,,,,,,,,,,,,,,,,,,,,,,,,,,,,,,,,,,,,,,,,,,,,,,,,,,,,,,,,,,,,,,,,,,,,,,,,,,,,,,,,,,,,,,,,,,,,,,,,,,,,,,,,,,,,,,,,,,,,,,,,,,,,
,,,,,,61078ef40ecc3ae99ceb0b07,62c539c880569701d2f2d375,2022-07-06_24h29.33.331,Colour_Asymmetry_Pilot,2022.1.3,MacIntel,60.0024001,62c50e9c1127f2cd403a315f,0,154,154,9,1,onethree,,,,,,,,,,,,,,,,,,,,,,,,,,,,,,,,,,,,,,,,,,,,,,,,,,,,,,,,,,,,,,,,,,,,,,,,,,,,,,,,,,,,,,,,,,,,,,,,,,,,,,,,,,,,,,,,,,,,,,,,,,,,,,,,,,,,,,,,,,,,,,,,,,,,,,,,,,,,,
,,,,,,61078ef40ecc3ae99ceb0b07,62c539c880569701d2f2d375,2022-07-06_24h29.33.331,Colour_Asymmetry_Pilot,2022.1.3,MacIntel,60.0024001,62c50e9c1127f2cd403a315f,0,155,155,149,1,threefour,,,,,,,,,,,,,,,,,,,,,,,,,,,,,,,,,,,,,,,,,,,,,,,,,,,,,,,,,,,,,,,,,,,,,,,,,,,,,,,,,,,,,,,,,,,,,,,,,,,,,,,,,,,,,,,,,,,,,,,,,,,,,,,,,,,,,,,,,,,,,,,,,,,,,,,,,,,,,
,,,,,,61078ef40ecc3ae99ceb0b07,62c539c880569701d2f2d375,2022-07-06_24h29.33.331,Colour_Asymmetry_Pilot,2022.1.3,MacIntel,60.0024001,62c50e9c1127f2cd403a315f,0,156,156,24,1,onetwo,,,,,,,,,,,,,,,,,,,,,,,,,,,,,,,,,,,,,,,,,,,,,,,,,,,,,,,,,,,,,,,,,,,,,,,,,,,,,,,,,,,,,,,,,,,,,,,,,,,,,,,,,,,,,,,,,,,,,,,,,,,,,,,,,,,,,,,,,,,,,,,,,,,,,,,,,,,,,
,,,,,,61078ef40ecc3ae99ceb0b07,62c539c880569701d2f2d375,2022-07-06_24h29.33.331,Colour_Asymmetry_Pilot,2022.1.3,MacIntel,60.0024001,62c50e9c1127f2cd403a315f,0,157,157,155,1,twofour,,,,,,,,,,,,,,,,,,,,,,,,,,,,,,,,,,,,,,,,,,,,,,,,,,,,,,,,,,,,,,,,,,,,,,,,,,,,,,,,,,,,,,,,,,,,,,,,,,,,,,,,,,,,,,,,,,,,,,,,,,,,,,,,,,,,,,,,,,,,,,,,,,,,,,,,,,,,,
,,,,,,61078ef40ecc3ae99ceb0b07,62c539c880569701d2f2d375,2022-07-06_24h29.33.331,Colour_Asymmetry_Pilot,2022.1.3,MacIntel,60.0024001,62c50e9c1127f2cd403a315f,0,158,158,56,1,onetwo,,,,,,,,,,,,,,,,,,,,,,,,,,,,,,,,,,,,,,,,,,,,,,,,,,,,,,,,,,,,,,,,,,,,,,,,,,,,,,,,,,,,,,,,,,,,,,,,,,,,,,,,,,,,,,,,,,,,,,,,,,,,,,,,,,,,,,,,,,,,,,,,,,,,,,,,,,,,,
,,,,,,61078ef40ecc3ae99ceb0b07,62c539c880569701d2f2d375,2022-07-06_24h29.33.331,Colour_Asymmetry_Pilot,2022.1.3,MacIntel,60.0024001,62c50e9c1127f2cd403a315f,0,159,159,33,1,onethree,,,,,,,,,,,,,,,,,,,,,,,,,,,,,,,,,,,,,,,,,,,,,,,,,,,,,,,,,,,,,,,,,,,,,,,,,,,,,,,,,,,,,,,,,,,,,,,,,,,,,,,,,,,,,,,,,,,,,,,,,,,,,,,,,,,,,,,,,,,,,,,,,,,,,,,,,,,,,
,,,,,,61078ef40ecc3ae99ceb0b07,62c539c880569701d2f2d375,2022-07-06_24h29.33.331,Colour_Asymmetry_Pilot,2022.1.3,MacIntel,60.0024001,62c50e9c1127f2cd403a315f,0,160,160,78,1,fourtwo,,,,,,,,,,,,,,,,,,,,,,,,,,,,,,,,,,,,,,,,,,,,,,,,,,,,,,,,,,,,,,,,,,,,,,,,,,,,,,,,,,,,,,,,,,,,,,,,,,,,,,,,,,,,,,,,,,,,,,,,,,,,,,,,,,,,,,,,,,,,,,,,,,,,,,,,,,,,,
,,,,,,61078ef40ecc3ae99ceb0b07,62c539c880569701d2f2d375,2022-07-06_24h29.33.331,Colour_Asymmetry_Pilot,2022.1.3,MacIntel,60.0024001,62c50e9c1127f2cd403a315f,0,161,161,3,1,twofour,,,,,,,,,,,,,,,,,,,,,,,,,,,,,,,,,,,,,,,,,,,,,,,,,,,,,,,,,,,,,,,,,,,,,,,,,,,,,,,,,,,,,,,,,,,,,,,,,,,,,,,,,,,,,,,,,,,,,,,,,,,,,,,,,,,,,,,,,,,,,,,,,,,,,,,,,,,,,
,,,,,,61078ef40ecc3ae99ceb0b07,62c539c880569701d2f2d375,2022-07-06_24h29.33.331,Colour_Asymmetry_Pilot,2022.1.3,MacIntel,60.0024001,62c50e9c1127f2cd403a315f,,,,,,,space,1.6077,space,104.7188,space,18.8545,space,38.2543,space,2.9703,space,2.9073,"[0.5528,0.7409999999999999,-0.71]",threeone,"[0.7018,0.7802,-0.16079999999999994]",3,10.421,110.8789063,53.99609375,1,0,0,response1disk_5,4.4375,-3.8046875,1,0,0,rectangle_8,83.9921875,-48.08203125,1,0,0,response3disk_7,5,2,7.234375,0.8515625,1,0,0,rectangle_4,0,0,0,0,1,,,,,,,,,,,,,,,,,,,,,,,,,,,,,,,,,,,,,,,,,,,,,,,,,,,,,,,,,,,,,,,,,,,,,,,,,,,,,,,,,,,,,,,,,,,,,,,,,,,,,,,,,,,,,
,,,,,,61078ef40ecc3ae99ceb0b07,62c539c880569701d2f2d375,2022-07-06_24h29.33.331,Colour_Asymmetry_Pilot,2022.1.3,MacIntel,60.0024001,62c50e9c1127f2cd403a315f,,,,,,,,,,,,,,,,,,,"[0.18419999999999992,-0.4276,-0.404]",fourtwo,"[0.3881999999999999,-0.23939999999999995,-0.05040000000000011]",2,2.8333,74.09765625,-32.88671875,1,0,0,response3disk_5,30.4375,-3.16015625,1,0,0,rectangle_8,76.3046875,-41.00390625,1,0,0,response3disk_7,5,2,-9.71484375,11.8203125,1,0,0,rectangle_4,1,0,1,0,1,,,,,,,,,,,,,,,,,,,,,,,,,,,,,,,,,,,,,,,,,,,,,,,,,,,,,,,,,,,,,,,,,,,,,,,,,,,,,,,,,,,,,,,,,,,,,,,,,,,,,,,,,,,,,
,,,,,,61078ef40ecc3ae99ceb0b07,62c539c880569701d2f2d375,2022-07-06_24h29.33.331,Colour_Asymmetry_Pilot,2022.1.3,MacIntel,60.0024001,62c50e9c1127f2cd403a315f,,,,,,,,,,,,,,,,,,,"[0.7646000000000002,0.07440000000000002,0.2704]",twoone,"[0.6625999999999999,0.4980000000000002,-0.357]",-4,3.6162,-31.01171875,106.25,1,0,0,response7disk_5,7.15234375,-6.1171875,1,0,0,rectangle_8,7.15234375,-6.1171875,1,0,0,,,2,7.15234375,-6.1171875,1,0,0,,2,0,2,0,1,,,,,,,,,,,,,,,,,,,,,,,,,,,,,,,,,,,,,,,,,,,,,,,,,,,,,,,,,,,,,,,,,,,,,,,,,,,,,,,,,,,,,,,,,,,,,,,,,,,,,,,,,,,,,
,,,,,,61078ef40ecc3ae99ceb0b07,62c539c880569701d2f2d375,2022-07-06_24h29.33.331,Colour_Asymmetry_Pilot,2022.1.3,MacIntel,60.0024001,62c50e9c1127f2cd403a315f,,,,,,,,,,,,,,,,,,,"[0.796,0.2156,-0.27859999999999996]",twofour,"[-0.9216,-0.5529999999999999,-0.3962]",-4,1.1497,-19.90234375,55.01953125,1,0,0,response7disk_5,-3.734375,0.31640625,1,0,0,rectangle_8,-3.734375,0.31640625,1,0,0,,,2,-3.734375,0.31640625,1,0,0,,3,0,3,0,1,,,,,,,,,,,,,,,,,,,,,,,,,,,,,,,,,,,,,,,,,,,,,,,,,,,,,,,,,,,,,,,,,,,,,,,,,,,,,,,,,,,,,,,,,,,,,,,,,,,,,,,,,,,,,
,,,,,,61078ef40ecc3ae99ceb0b07,62c539c880569701d2f2d375,2022-07-06_24h29.33.331,Colour_Asymmetry_Pilot,2022.1.3,MacIntel,60.0024001,62c50e9c1127f2cd403a315f,,,,,,,,,,,,,,,,,,,"[-0.17659999999999998,-0.2864,-0.8354]",onetwo,"[0.9213999999999998,0.6391999999999998,-0.9922]",-4,2.0838,-30.2421875,57.7265625,1,0,0,response7disk_5,-10.44921875,6.9921875,1,0,0,rectangle_8,-10.44921875,6.9921875,1,0,0,,,2,-10.44921875,6.9921875,1,0,0,,4,0,4,0,1,,,,,,,,,,,,,,,,,,,,,,,,,,,,,,,,,,,,,,,,,,,,,,,,,,,,,,,,,,,,,,,,,,,,,,,,,,,,,,,,,,,,,,,,,,,,,,,,,,,,,,,,,,,,,
,,,,,,61078ef40ecc3ae99ceb0b07,62c539c880569701d2f2d375,2022-07-06_24h29.33.331,Colour_Asymmetry_Pilot,2022.1.3,MacIntel,60.0024001,62c50e9c1127f2cd403a315f,,,,,,,,,,,,,,,,,,,"[0.6547999999999998,-0.043199999999999905,-0.011800000000000033]",twofour,"[0.3881999999999999,-0.23939999999999995,-0.05040000000000011]",-1,2.683,-32.125,-59.94921875,1,0,0,response5disk_5,1.19140625,9.7734375,1,0,0,rectangle_8,1.19140625,9.7734375,1,0,0,,,2,1.19140625,9.7734375,1,0,0,,5,0,5,0,1,,,,,,,,,,,,,,,,,,,,,,,,,,,,,,,,,,,,,,,,,,,,,,,,,,,,,,,,,,,,,,,,,,,,,,,,,,,,,,,,,,,,,,,,,,,,,,,,,,,,,,,,,,,,,
,,,,,,61078ef40ecc3ae99ceb0b07,62c539c880569701d2f2d375,2022-07-06_24h29.33.331,Colour_Asymmetry_Pilot,2022.1.3,MacIntel,60.0024001,62c50e9c1127f2cd403a315f,,,,,,,,,,,,,,,,,,,"[0.6547999999999998,-0.043199999999999905,-0.011800000000000033]",twofour,"[-0.26280000000000003,-0.4746,-0.2158]",-4,0.8831,-50.3515625,96.39453125,1,0,0,response7disk_5,-2.54296875,-6.0625,1,0,0,rectangle_8,-2.54296875,-6.0625,1,0,0,,,2,-2.54296875,-6.0625,1,0,0,,6,0,6,0,1,,,,,,,,,,,,,,,,,,,,,,,,,,,,,,,,,,,,,,,,,,,,,,,,,,,,,,,,,,,,,,,,,,,,,,,,,,,,,,,,,,,,,,,,,,,,,,,,,,,,,,,,,,,,,
,,,,,,61078ef40ecc3ae99ceb0b07,62c539c880569701d2f2d375,2022-07-06_24h29.33.331,Colour_Asymmetry_Pilot,2022.1.3,MacIntel,60.0024001,62c50e9c1127f2cd403a315f,,,,,,,,,,,,,,,,,,,,threeone,,2,1.2832,,,,,,,,,,,,,,,,,,,,,,,,,,,,,,,,space,3.0094,"[0.09799999999999986,-0.24719999999999998,0.15280000000000005]","[-0.20799999999999996,-0.655,-0.01980000000000004]",75.44140625,-28.08984375,1,0,0,response3disk,12.4921875,-3.36328125,1,0,0,rectangle,12.4921875,-3.36328125,1,0,0,,2,0.0004,0,12.4921875,-3.36328125,1,0,0,0,0,0,46,1,46,first,,,,,,,,,,,,,,,,,,,,,,,,,,,,,,,,,,,,,,,,,,,,,,,,,,,,,,,,,,,,,,,,,,,,,,,,
,,,,,,61078ef40ecc3ae99ceb0b07,62c539c880569701d2f2d375,2022-07-06_24h29.33.331,Colour_Asymmetry_Pilot,2022.1.3,MacIntel,60.0024001,62c50e9c1127f2cd403a315f,,,,,,,,,,,,,,,,,,,,onetwo,,-4,0.9998,,,,,,,,,,,,,,,,,,,,,,,,,,,,,,,,,,"[0.04299999999999993,0.16060000000000008,-0.6628000000000001]","[-0.6942,-0.7648,-0.12959999999999994]",-27.34375,51.66015625,1,0,0,response7disk,2.61328125,-0.73828125,1,0,0,rectangle,2.61328125,-0.73828125,1,0,0,,2,0.0003,0,2.61328125,-0.73828125,1,0,0,0,1,1,43,1,43,first,,,,,,,,,,,,,,,,,,,,,,,,,,,,,,,,,,,,,,,,,,,,,,,,,,,,,,,,,,,,,,,,,,,,,,,,
,,,,,,61078ef40ecc3ae99ceb0b07,62c539c880569701d2f2d375,2022-07-06_24h29.33.331,Colour_Asymmetry_Pilot,2022.1.3,MacIntel,60.0024001,62c50e9c1127f2cd403a315f,,,,,,,,,,,,,,,,,,,,twoone,,1,1.8667,,,,,,,,,,,,,,,,,,,,,,,,,,,,,,,,,,"[-0.050999999999999934,-0.6706000000000001,-0.804]","[0.8274000000000001,-0.5844,-0.9452]",56.71484375,-96.734375,1,0,0,response3disk,4.6015625,9.4375,1,0,0,rectangle,4.6015625,9.4375,1,0,0,,3,0.0011,0,4.6015625,9.4375,1,0,0,0,2,2,33,1,33,first,,,,,,,,,,,,,,,,,,,,,,,,,,,,,,,,,,,,,,,,,,,,,,,,,,,,,,,,,,,,,,,,,,,,,,,,
,,,,,,61078ef40ecc3ae99ceb0b07,62c539c880569701d2f2d375,2022-07-06_24h29.33.331,Colour_Asymmetry_Pilot,2022.1.3,MacIntel,60.0024001,62c50e9c1127f2cd403a315f,,,,,,,,,,,,,,,,,,,,twofour,,-4,1.4671,,,,,,,,,,,,,,,,,,,,,,,,,,,,,,,,,,"[0.6547999999999998,-0.043199999999999905,-0.011800000000000033]","[-0.4668,-0.8746,-0.2942]",-38.390625,116.2539063,1,0,0,response7disk,-7.69921875,-3.04296875,1,0,0,rectangle,-7.69921875,-3.04296875,1,0,0,,3,0.0002,0,-7.69921875,-3.04296875,1,0,0,0,3,3,133,1,52,second,,,,,,,,,,,,,,,,,,,,,,,,,,,,,,,,,,,,,,,,,,,,,,,,,,,,,,,,,,,,,,,,,,,,,,,,
,,,,,,61078ef40ecc3ae99ceb0b07,62c539c880569701d2f2d375,2022-07-06_24h29.33.331,Colour_Asymmetry_Pilot,2022.1.3,MacIntel,60.0024001,62c50e9c1127f2cd403a315f,,,,,,,,,,,,,,,,,,,,threefour,,-4,0.4654,,,,,,,,,,,,,,,,,,,,,,,,,,,,,,,,,,"[0.23920000000000008,0.2704,0.16060000000000008]","[-0.4982,-0.2942,-0.0354000000000001]",-45.08984375,73.6015625,1,0,0,response7disk,-18.625,-6.55078125,1,0,0,rectangle,-18.625,-6.55078125,1,0,0,,1,0.001,0,-18.625,-6.55078125,1,0,0,0,4,4,74,1,74,first,,,,,,,,,,,,,,,,,,,,,,,,,,,,,,,,,,,,,,,,,,,,,,,,,,,,,,,,,,,,,,,,,,,,,,,,
,,,,,,61078ef40ecc3ae99ceb0b07,62c539c880569701d2f2d375,2022-07-06_24h29.33.331,Colour_Asymmetry_Pilot,2022.1.3,MacIntel,60.0024001,62c50e9c1127f2cd403a315f,,,,,,,,,,,,,,,,,,,,threefour,,3,1.9006,,,,,,,,,,,,,,,,,,,,,,,,,,,,,,,,,,"[-0.9688,-0.4902000000000001,-0.12159999999999993]","[-0.24719999999999998,-0.0354000000000001,0.3175999999999999]",87.38671875,55.20703125,1,0,0,response1disk,-1.77734375,-7.94140625,1,0,0,rectangle,-1.77734375,-7.94140625,1,0,0,,2,0.001,0,-1.77734375,-7.94140625,1,0,0,0,5,5,130,1,49,second,,,,,,,,,,,,,,,,,,,,,,,,,,,,,,,,,,,,,,,,,,,,,,,,,,,,,,,,,,,,,,,,,,,,,,,,
,,,,,,61078ef40ecc3ae99ceb0b07,62c539c880569701d2f2d375,2022-07-06_24h29.33.331,Colour_Asymmetry_Pilot,2022.1.3,MacIntel,60.0024001,62c50e9c1127f2cd403a315f,,,,,,,,,,,,,,,,,,,,fourthree,,-4,0.4672,,,,,,,,,,,,,,,,,,,,,,,,,,,,,,,,,,"[-0.26280000000000003,-0.4746,-0.2158]","[0.0351999999999999,0.41159999999999997,0.0038000000000000256]",-32.14453125,83.17578125,1,0,0,response7disk,8.87890625,-9.20703125,1,0,0,rectangle,8.87890625,-9.20703125,1,0,0,,3,0.0011,0,8.87890625,-9.20703125,1,0,0,0,6,6,19,1,19,first,,,,,,,,,,,,,,,,,,,,,,,,,,,,,,,,,,,,,,,,,,,,,,,,,,,,,,,,,,,,,,,,,,,,,,,,
,,,,,,61078ef40ecc3ae99ceb0b07,62c539c880569701d2f2d375,2022-07-06_24h29.33.331,Colour_Asymmetry_Pilot,2022.1.3,MacIntel,60.0024001,62c50e9c1127f2cd403a315f,,,,,,,,,,,,,,,,,,,,threeone,,-4,1.3838,,,,,,,,,,,,,,,,,,,,,,,,,,,,,,,,,,"[0.9213999999999998,0.6391999999999998,-0.9922]","[-0.26280000000000003,-0.2158,-0.3256]",-41.09765625,60.8203125,1,0,0,response7disk,7.421875,-0.09375,1,0,0,rectangle,7.421875,-0.09375,1,0,0,,1,0.0006,0,7.421875,-0.09375,1,0,0,0,7,7,95,1,14,second,,,,,,,,,,,,,,,,,,,,,,,,,,,,,,,,,,,,,,,,,,,,,,,,,,,,,,,,,,,,,,,,,,,,,,,,
,,,,,,61078ef40ecc3ae99ceb0b07,62c539c880569701d2f2d375,2022-07-06_24h29.33.331,Colour_Asymmetry_Pilot,2022.1.3,MacIntel,60.0024001,62c50e9c1127f2cd403a315f,,,,,,,,,,,,,,,,,,,,onethree,,-4,0.3491,,,,,,,,,,,,,,,,,,,,,,,,,,,,,,,,,,"[-0.20799999999999996,-0.655,-0.01980000000000004]","[0.5528,0.7409999999999999,-0.71]",-49.87890625,74.16015625,1,0,0,response7disk,-13.88671875,1.90625,1,0,0,rectangle,-13.88671875,1.90625,1,0,0,,2,0.0009,0,-13.88671875,1.90625,1,0,0,0,8,8,117,1,36,second,,,,,,,,,,,,,,,,,,,,,,,,,,,,,,,,,,,,,,,,,,,,,,,,,,,,,,,,,,,,,,,,,,,,,,,,
,,,,,,61078ef40ecc3ae99ceb0b07,62c539c880569701d2f2d375,2022-07-06_24h29.33.331,Colour_Asymmetry_Pilot,2022.1.3,MacIntel,60.0024001,62c50e9c1127f2cd403a315f,,,,,,,,,,,,,,,,,,,,fourthree,,-4,1.6659,,,,,,,,,,,,,,,,,,,,,,,,,,,,,,,,,,"[0.23920000000000008,0.2704,0.16060000000000008]","[1,0.12939999999999996,-1]",-28.8515625,60.703125,1,0,0,response7disk,5.79296875,-5.98828125,1,0,0,rectangle,5.79296875,-5.98828125,1,0,0,,3,0.0014,0,5.79296875,-5.98828125,1,0,0,0,9,9,92,1,11,second,,,,,,,,,,,,,,,,,,,,,,,,,,,,,,,,,,,,,,,,,,,,,,,,,,,,,,,,,,,,,,,,,,,,,,,,
,,,,,,61078ef40ecc3ae99ceb0b07,62c539c880569701d2f2d375,2022-07-06_24h29.33.331,Colour_Asymmetry_Pilot,2022.1.3,MacIntel,60.0024001,62c50e9c1127f2cd403a315f,,,,,,,,,,,,,,,,,,,,onetwo,,-4,2.8665,,,,,,,,,,,,,,,,,,,,,,,,,,,,,,,,,,"[-0.26280000000000003,-0.4746,-0.2158]","[-0.011800000000000033,-0.906,-0.45100000000000007]",-59.28515625,88.17578125,1,0,0,response7disk,-15.359375,-2.890625,1,0,0,rectangle,-15.359375,-2.890625,1,0,0,,3,0.0002,0,-15.359375,-2.890625,1,0,0,0,10,10,12,1,12,first,,,,,,,,,,,,,,,,,,,,,,,,,,,,,,,,,,,,,,,,,,,,,,,,,,,,,,,,,,,,,,,,,,,,,,,,
,,,,,,61078ef40ecc3ae99ceb0b07,62c539c880569701d2f2d375,2022-07-06_24h29.33.331,Colour_Asymmetry_Pilot,2022.1.3,MacIntel,60.0024001,62c50e9c1127f2cd403a315f,,,,,,,,,,,,,,,,,,,,threeone,,-3,1.0173,,,,,,,,,,,,,,,,,,,,,,,,,,,,,,,,,,"[-0.8982,-0.37259999999999993,0.2784]","[-0.8198,-0.5138,-0.7492000000000001]",-67.453125,34.09375,1,0,0,response7disk,-12.9453125,-5.74609375,1,0,0,rectangle,-12.9453125,-5.74609375,1,0,0,,2,0.0008,0,-12.9453125,-5.74609375,1,0,0,0,11,11,39,1,39,first,,,,,,,,,,,,,,,,,,,,,,,,,,,,,,,,,,,,,,,,,,,,,,,,,,,,,,,,,,,,,,,,,,,,,,,,
,,,,,,61078ef40ecc3ae99ceb0b07,62c539c880569701d2f2d375,2022-07-06_24h29.33.331,Colour_Asymmetry_Pilot,2022.1.3,MacIntel,60.0024001,62c50e9c1127f2cd403a315f,,,,,,,,,,,,,,,,,,,,threeone,,-4,1.5508,,,,,,,,,,,,,,,,,,,,,,,,,,,,,,,,,,"[0.30180000000000007,-0.7884,-0.9844]","[0.19199999999999995,0.18419999999999992,0.5136000000000001]",-35.0625,80.52734375,1,0,0,response7disk,-7.3125,-4.74609375,1,0,0,rectangle,-7.3125,-4.74609375,1,0,0,,2,0.0002,0,-7.3125,-4.74609375,1,0,0,0,12,12,113,1,32,second,,,,,,,,,,,,,,,,,,,,,,,,,,,,,,,,,,,,,,,,,,,,,,,,,,,,,,,,,,,,,,,,,,,,,,,,
,,,,,,61078ef40ecc3ae99ceb0b07,62c539c880569701d2f2d375,2022-07-06_24h29.33.331,Colour_Asymmetry_Pilot,2022.1.3,MacIntel,60.0024001,62c50e9c1127f2cd403a315f,,,,,,,,,,,,,,,,,,,,onetwo,,-1,4.0492,,,,,,,,,,,,,,,,,,,,,,,,,,,,,,,,,,"[-0.050999999999999934,-0.6706000000000001,-0.804]","[-0.4982,-0.2942,-0.0354000000000001]",-41.50390625,-83.5078125,1,0,0,response5disk,-4.90625,4.15234375,1,0,0,rectangle,-4.90625,4.15234375,1,0,0,,3,0.0017,0,-4.90625,4.15234375,1,0,0,0,13,13,41,1,41,first,,,,,,,,,,,,,,,,,,,,,,,,,,,,,,,,,,,,,,,,,,,,,,,,,,,,,,,,,,,,,,,,,,,,,,,,
