trials.thisRepN,trials.thisTrialN,trials.thisN,trials.thisIndex,trials.ran,Colourcodes,participant,session,date,expName,psychopyVersion,OS,frameRate,study_id,trials_4.thisRepN,trials_4.thisTrialN,trials_4.thisN,trials_4.thisIndex,trials_4.ran,StimulusPos,key_resp.keys,key_resp.rt,key_resp_2.keys,key_resp_2.rt,key_resp_15.keys,key_resp_15.rt,key_resp_17.keys,key_resp_17.rt,key_resp_9.keys,key_resp_9.rt,key_resp_10.keys,key_resp_10.rt,Circle1_col,Ecc,Circle2_col,similarity,response_time,mouse_5.x,mouse_5.y,mouse_5.leftButton,mouse_5.midButton,mouse_5.rightButton,mouse_5.clicked_name,mouse_10.x,mouse_10.y,mouse_10.leftButton,mouse_10.midButton,mouse_10.rightButton,mouse_10.clicked_name,mouse_7.x,mouse_7.y,mouse_7.leftButton,mouse_7.midButton,mouse_7.rightButton,catchnumberprac,mouse_6.x,mouse_6.y,mouse_6.leftButton,mouse_6.midButton,mouse_6.rightButton,duringprac.thisRepN,duringprac.thisTrialN,duringprac.thisN,duringprac.thisIndex,duringprac.ran,mouse_7.clicked_name,catchprac,mouse_6.clicked_name,key_resp_22.keys,key_resp_22.rt,Circle1_colour,Circle2_colour,mouse.x,mouse.y,mouse.leftButton,mouse.midButton,mouse.rightButton,mouse.clicked_name,mouse_2.x,mouse_2.y,mouse_2.leftButton,mouse_2.midButton,mouse_2.rightButton,mouse_2.clicked_name,mouse_3.x,mouse_3.y,mouse_3.leftButton,mouse_3.midButton,mouse_3.rightButton,mouse_3.clicked_name,catchresponse,catchnumber,response_time_catch,Catch,mouse_11.x,mouse_11.y,mouse_11.leftButton,mouse_11.midButton,mouse_11.rightButton,mouse_11.clicked_name,trials_2.thisRepN,trials_2.thisTrialN,trials_2.thisN,trials_2.thisIndex,trials_2.ran,Colourpair,Temporder,trials_3.thisRepN,trials_3.thisTrialN,trials_3.thisN,trials_3.thisIndex,trials_3.ran,key_resp_instr_Ishi.keys,key_resp_instr_Ishi.rt,Ishi_trial_keyresp.keys,Ishi_textbox.text,Ishi_mouse.x,Ishi_mouse.y,Ishi_mouse.leftButton,Ishi_mouse.midButton,Ishi_mouse.rightButton,Ishi_mouse.clicked_name,Ishi_loop.thisRepN,Ishi_loop.thisTrialN,Ishi_loop.thisN,Ishi_loop.thisIndex,Ishi_loop.ran,imageaddress,textbox.text,mouse_4.x,mouse_4.y,mouse_4.leftButton,mouse_4.midButton,mouse_4.rightButton,mouse_4.clicked_name,textbox_2.text,mouse_8.x,mouse_8.y,mouse_8.leftButton,mouse_8.midButton,mouse_8.rightButton,mouse_8.clicked_name,textbox_3.text,mouse_9.x,mouse_9.y,mouse_9.leftButton,mouse_9.midButton,mouse_9.rightButton,mouse_9.clicked_name,textbox_4.text,mouse_12.x,mouse_12.y,mouse_12.leftButton,mouse_12.midButton,mouse_12.rightButton,mouse_12.clicked_name,textbox_5.text,mouse_13.x,mouse_13.y,mouse_13.leftButton,mouse_13.midButton,mouse_13.rightButton,mouse_13.clicked_name,textbox_6.text,mouse_14.x,mouse_14.y,mouse_14.leftButton,mouse_14.midButton,mouse_14.rightButton,mouse_14.clicked_name,textbox_7.text,mouse_15.x,mouse_15.y,mouse_15.leftButton,mouse_15.midButton,mouse_15.rightButton,mouse_15.clicked_name
0,0,0,68,1,,610667edefdc1ad424021209,62c53a8af30b92daefb4e187,2022-07-06_09h37.27.006,Colour_Asymmetry_Pilot,2022.1.3,Win32,59.36832106,62c50e9c1127f2cd403a315f,,,,,,,,,,,,,,,,,,,,,,,,,,,,,,,,,,,,,,,,,,,,,,,,,,,,,,,,,,,,,,,,,,,,,,,,,,,,,,,,,,,,,,,,,,,,,,,,,,,,,,,,,,,,,,,,,,,,,,,,,,,,,,,,,,,,,,,,,,,,,,,,,,,,,,,,,,,,,,,,,,,
0,1,1,45,1,,610667edefdc1ad424021209,62c53a8af30b92daefb4e187,2022-07-06_09h37.27.006,Colour_Asymmetry_Pilot,2022.1.3,Win32,59.36832106,62c50e9c1127f2cd403a315f,,,,,,,,,,,,,,,,,,,,,,,,,,,,,,,,,,,,,,,,,,,,,,,,,,,,,,,,,,,,,,,,,,,,,,,,,,,,,,,,,,,,,,,,,,,,,,,,,,,,,,,,,,,,,,,,,,,,,,,,,,,,,,,,,,,,,,,,,,,,,,,,,,,,,,,,,,,,,,,,,,,
0,2,2,43,1,,610667edefdc1ad424021209,62c53a8af30b92daefb4e187,2022-07-06_09h37.27.006,Colour_Asymmetry_Pilot,2022.1.3,Win32,59.36832106,62c50e9c1127f2cd403a315f,,,,,,,,,,,,,,,,,,,,,,,,,,,,,,,,,,,,,,,,,,,,,,,,,,,,,,,,,,,,,,,,,,,,,,,,,,,,,,,,,,,,,,,,,,,,,,,,,,,,,,,,,,,,,,,,,,,,,,,,,,,,,,,,,,,,,,,,,,,,,,,,,,,,,,,,,,,,,,,,,,,
0,3,3,18,1,,610667edefdc1ad424021209,62c53a8af30b92daefb4e187,2022-07-06_09h37.27.006,Colour_Asymmetry_Pilot,2022.1.3,Win32,59.36832106,62c50e9c1127f2cd403a315f,,,,,,,,,,,,,,,,,,,,,,,,,,,,,,,,,,,,,,,,,,,,,,,,,,,,,,,,,,,,,,,,,,,,,,,,,,,,,,,,,,,,,,,,,,,,,,,,,,,,,,,,,,,,,,,,,,,,,,,,,,,,,,,,,,,,,,,,,,,,,,,,,,,,,,,,,,,,,,,,,,,
0,4,4,76,1,,610667edefdc1ad424021209,62c53a8af30b92daefb4e187,2022-07-06_09h37.27.006,Colour_Asymmetry_Pilot,2022.1.3,Win32,59.36832106,62c50e9c1127f2cd403a315f,,,,,,,,,,,,,,,,,,,,,,,,,,,,,,,,,,,,,,,,,,,,,,,,,,,,,,,,,,,,,,,,,,,,,,,,,,,,,,,,,,,,,,,,,,,,,,,,,,,,,,,,,,,,,,,,,,,,,,,,,,,,,,,,,,,,,,,,,,,,,,,,,,,,,,,,,,,,,,,,,,,
0,5,5,1,1,,610667edefdc1ad424021209,62c53a8af30b92daefb4e187,2022-07-06_09h37.27.006,Colour_Asymmetry_Pilot,2022.1.3,Win32,59.36832106,62c50e9c1127f2cd403a315f,,,,,,,,,,,,,,,,,,,,,,,,,,,,,,,,,,,,,,,,,,,,,,,,,,,,,,,,,,,,,,,,,,,,,,,,,,,,,,,,,,,,,,,,,,,,,,,,,,,,,,,,,,,,,,,,,,,,,,,,,,,,,,,,,,,,,,,,,,,,,,,,,,,,,,,,,,,,,,,,,,,
0,6,6,60,1,,610667edefdc1ad424021209,62c53a8af30b92daefb4e187,2022-07-06_09h37.27.006,Colour_Asymmetry_Pilot,2022.1.3,Win32,59.36832106,62c50e9c1127f2cd403a315f,,,,,,,,,,,,,,,,,,,,,,,,,,,,,,,,,,,,,,,,,,,,,,,,,,,,,,,,,,,,,,,,,,,,,,,,,,,,,,,,,,,,,,,,,,,,,,,,,,,,,,,,,,,,,,,,,,,,,,,,,,,,,,,,,,,,,,,,,,,,,,,,,,,,,,,,,,,,,,,,,,,
0,7,7,5,1,,610667edefdc1ad424021209,62c53a8af30b92daefb4e187,2022-07-06_09h37.27.006,Colour_Asymmetry_Pilot,2022.1.3,Win32,59.36832106,62c50e9c1127f2cd403a315f,,,,,,,,,,,,,,,,,,,,,,,,,,,,,,,,,,,,,,,,,,,,,,,,,,,,,,,,,,,,,,,,,,,,,,,,,,,,,,,,,,,,,,,,,,,,,,,,,,,,,,,,,,,,,,,,,,,,,,,,,,,,,,,,,,,,,,,,,,,,,,,,,,,,,,,,,,,,,,,,,,,
0,8,8,14,1,,610667edefdc1ad424021209,62c53a8af30b92daefb4e187,2022-07-06_09h37.27.006,Colour_Asymmetry_Pilot,2022.1.3,Win32,59.36832106,62c50e9c1127f2cd403a315f,,,,,,,,,,,,,,,,,,,,,,,,,,,,,,,,,,,,,,,,,,,,,,,,,,,,,,,,,,,,,,,,,,,,,,,,,,,,,,,,,,,,,,,,,,,,,,,,,,,,,,,,,,,,,,,,,,,,,,,,,,,,,,,,,,,,,,,,,,,,,,,,,,,,,,,,,,,,,,,,,,,
0,9,9,24,1,,610667edefdc1ad424021209,62c53a8af30b92daefb4e187,2022-07-06_09h37.27.006,Colour_Asymmetry_Pilot,2022.1.3,Win32,59.36832106,62c50e9c1127f2cd403a315f,,,,,,,,,,,,,,,,,,,,,,,,,,,,,,,,,,,,,,,,,,,,,,,,,,,,,,,,,,,,,,,,,,,,,,,,,,,,,,,,,,,,,,,,,,,,,,,,,,,,,,,,,,,,,,,,,,,,,,,,,,,,,,,,,,,,,,,,,,,,,,,,,,,,,,,,,,,,,,,,,,,
0,10,10,84,1,,610667edefdc1ad424021209,62c53a8af30b92daefb4e187,2022-07-06_09h37.27.006,Colour_Asymmetry_Pilot,2022.1.3,Win32,59.36832106,62c50e9c1127f2cd403a315f,,,,,,,,,,,,,,,,,,,,,,,,,,,,,,,,,,,,,,,,,,,,,,,,,,,,,,,,,,,,,,,,,,,,,,,,,,,,,,,,,,,,,,,,,,,,,,,,,,,,,,,,,,,,,,,,,,,,,,,,,,,,,,,,,,,,,,,,,,,,,,,,,,,,,,,,,,,,,,,,,,,
0,11,11,17,1,,610667edefdc1ad424021209,62c53a8af30b92daefb4e187,2022-07-06_09h37.27.006,Colour_Asymmetry_Pilot,2022.1.3,Win32,59.36832106,62c50e9c1127f2cd403a315f,,,,,,,,,,,,,,,,,,,,,,,,,,,,,,,,,,,,,,,,,,,,,,,,,,,,,,,,,,,,,,,,,,,,,,,,,,,,,,,,,,,,,,,,,,,,,,,,,,,,,,,,,,,,,,,,,,,,,,,,,,,,,,,,,,,,,,,,,,,,,,,,,,,,,,,,,,,,,,,,,,,
0,12,12,42,1,,610667edefdc1ad424021209,62c53a8af30b92daefb4e187,2022-07-06_09h37.27.006,Colour_Asymmetry_Pilot,2022.1.3,Win32,59.36832106,62c50e9c1127f2cd403a315f,,,,,,,,,,,,,,,,,,,,,,,,,,,,,,,,,,,,,,,,,,,,,,,,,,,,,,,,,,,,,,,,,,,,,,,,,,,,,,,,,,,,,,,,,,,,,,,,,,,,,,,,,,,,,,,,,,,,,,,,,,,,,,,,,,,,,,,,,,,,,,,,,,,,,,,,,,,,,,,,,,,
0,13,13,11,1,,610667edefdc1ad424021209,62c53a8af30b92daefb4e187,2022-07-06_09h37.27.006,Colour_Asymmetry_Pilot,2022.1.3,Win32,59.36832106,62c50e9c1127f2cd403a315f,,,,,,,,,,,,,,,,,,,,,,,,,,,,,,,,,,,,,,,,,,,,,,,,,,,,,,,,,,,,,,,,,,,,,,,,,,,,,,,,,,,,,,,,,,,,,,,,,,,,,,,,,,,,,,,,,,,,,,,,,,,,,,,,,,,,,,,,,,,,,,,,,,,,,,,,,,,,,,,,,,,
0,14,14,78,1,,610667edefdc1ad424021209,62c53a8af30b92daefb4e187,2022-07-06_09h37.27.006,Colour_Asymmetry_Pilot,2022.1.3,Win32,59.36832106,62c50e9c1127f2cd403a315f,,,,,,,,,,,,,,,,,,,,,,,,,,,,,,,,,,,,,,,,,,,,,,,,,,,,,,,,,,,,,,,,,,,,,,,,,,,,,,,,,,,,,,,,,,,,,,,,,,,,,,,,,,,,,,,,,,,,,,,,,,,,,,,,,,,,,,,,,,,,,,,,,,,,,,,,,,,,,,,,,,,
0,15,15,79,1,,610667edefdc1ad424021209,62c53a8af30b92daefb4e187,2022-07-06_09h37.27.006,Colour_Asymmetry_Pilot,2022.1.3,Win32,59.36832106,62c50e9c1127f2cd403a315f,,,,,,,,,,,,,,,,,,,,,,,,,,,,,,,,,,,,,,,,,,,,,,,,,,,,,,,,,,,,,,,,,,,,,,,,,,,,,,,,,,,,,,,,,,,,,,,,,,,,,,,,,,,,,,,,,,,,,,,,,,,,,,,,,,,,,,,,,,,,,,,,,,,,,,,,,,,,,,,,,,,
0,16,16,73,1,,610667edefdc1ad424021209,62c53a8af30b92daefb4e187,2022-07-06_09h37.27.006,Colour_Asymmetry_Pilot,2022.1.3,Win32,59.36832106,62c50e9c1127f2cd403a315f,,,,,,,,,,,,,,,,,,,,,,,,,,,,,,,,,,,,,,,,,,,,,,,,,,,,,,,,,,,,,,,,,,,,,,,,,,,,,,,,,,,,,,,,,,,,,,,,,,,,,,,,,,,,,,,,,,,,,,,,,,,,,,,,,,,,,,,,,,,,,,,,,,,,,,,,,,,,,,,,,,,
0,17,17,50,1,,610667edefdc1ad424021209,62c53a8af30b92daefb4e187,2022-07-06_09h37.27.006,Colour_Asymmetry_Pilot,2022.1.3,Win32,59.36832106,62c50e9c1127f2cd403a315f,,,,,,,,,,,,,,,,,,,,,,,,,,,,,,,,,,,,,,,,,,,,,,,,,,,,,,,,,,,,,,,,,,,,,,,,,,,,,,,,,,,,,,,,,,,,,,,,,,,,,,,,,,,,,,,,,,,,,,,,,,,,,,,,,,,,,,,,,,,,,,,,,,,,,,,,,,,,,,,,,,,
0,18,18,19,1,,610667edefdc1ad424021209,62c53a8af30b92daefb4e187,2022-07-06_09h37.27.006,Colour_Asymmetry_Pilot,2022.1.3,Win32,59.36832106,62c50e9c1127f2cd403a315f,,,,,,,,,,,,,,,,,,,,,,,,,,,,,,,,,,,,,,,,,,,,,,,,,,,,,,,,,,,,,,,,,,,,,,,,,,,,,,,,,,,,,,,,,,,,,,,,,,,,,,,,,,,,,,,,,,,,,,,,,,,,,,,,,,,,,,,,,,,,,,,,,,,,,,,,,,,,,,,,,,,
0,19,19,6,1,,610667edefdc1ad424021209,62c53a8af30b92daefb4e187,2022-07-06_09h37.27.006,Colour_Asymmetry_Pilot,2022.1.3,Win32,59.36832106,62c50e9c1127f2cd403a315f,,,,,,,,,,,,,,,,,,,,,,,,,,,,,,,,,,,,,,,,,,,,,,,,,,,,,,,,,,,,,,,,,,,,,,,,,,,,,,,,,,,,,,,,,,,,,,,,,,,,,,,,,,,,,,,,,,,,,,,,,,,,,,,,,,,,,,,,,,,,,,,,,,,,,,,,,,,,,,,,,,,
0,20,20,32,1,,610667edefdc1ad424021209,62c53a8af30b92daefb4e187,2022-07-06_09h37.27.006,Colour_Asymmetry_Pilot,2022.1.3,Win32,59.36832106,62c50e9c1127f2cd403a315f,,,,,,,,,,,,,,,,,,,,,,,,,,,,,,,,,,,,,,,,,,,,,,,,,,,,,,,,,,,,,,,,,,,,,,,,,,,,,,,,,,,,,,,,,,,,,,,,,,,,,,,,,,,,,,,,,,,,,,,,,,,,,,,,,,,,,,,,,,,,,,,,,,,,,,,,,,,,,,,,,,,
0,21,21,46,1,,610667edefdc1ad424021209,62c53a8af30b92daefb4e187,2022-07-06_09h37.27.006,Colour_Asymmetry_Pilot,2022.1.3,Win32,59.36832106,62c50e9c1127f2cd403a315f,,,,,,,,,,,,,,,,,,,,,,,,,,,,,,,,,,,,,,,,,,,,,,,,,,,,,,,,,,,,,,,,,,,,,,,,,,,,,,,,,,,,,,,,,,,,,,,,,,,,,,,,,,,,,,,,,,,,,,,,,,,,,,,,,,,,,,,,,,,,,,,,,,,,,,,,,,,,,,,,,,,
0,22,22,26,1,,610667edefdc1ad424021209,62c53a8af30b92daefb4e187,2022-07-06_09h37.27.006,Colour_Asymmetry_Pilot,2022.1.3,Win32,59.36832106,62c50e9c1127f2cd403a315f,,,,,,,,,,,,,,,,,,,,,,,,,,,,,,,,,,,,,,,,,,,,,,,,,,,,,,,,,,,,,,,,,,,,,,,,,,,,,,,,,,,,,,,,,,,,,,,,,,,,,,,,,,,,,,,,,,,,,,,,,,,,,,,,,,,,,,,,,,,,,,,,,,,,,,,,,,,,,,,,,,,
0,23,23,29,1,,610667edefdc1ad424021209,62c53a8af30b92daefb4e187,2022-07-06_09h37.27.006,Colour_Asymmetry_Pilot,2022.1.3,Win32,59.36832106,62c50e9c1127f2cd403a315f,,,,,,,,,,,,,,,,,,,,,,,,,,,,,,,,,,,,,,,,,,,,,,,,,,,,,,,,,,,,,,,,,,,,,,,,,,,,,,,,,,,,,,,,,,,,,,,,,,,,,,,,,,,,,,,,,,,,,,,,,,,,,,,,,,,,,,,,,,,,,,,,,,,,,,,,,,,,,,,,,,,
0,24,24,88,1,,610667edefdc1ad424021209,62c53a8af30b92daefb4e187,2022-07-06_09h37.27.006,Colour_Asymmetry_Pilot,2022.1.3,Win32,59.36832106,62c50e9c1127f2cd403a315f,,,,,,,,,,,,,,,,,,,,,,,,,,,,,,,,,,,,,,,,,,,,,,,,,,,,,,,,,,,,,,,,,,,,,,,,,,,,,,,,,,,,,,,,,,,,,,,,,,,,,,,,,,,,,,,,,,,,,,,,,,,,,,,,,,,,,,,,,,,,,,,,,,,,,,,,,,,,,,,,,,,
0,25,25,16,1,,610667edefdc1ad424021209,62c53a8af30b92daefb4e187,2022-07-06_09h37.27.006,Colour_Asymmetry_Pilot,2022.1.3,Win32,59.36832106,62c50e9c1127f2cd403a315f,,,,,,,,,,,,,,,,,,,,,,,,,,,,,,,,,,,,,,,,,,,,,,,,,,,,,,,,,,,,,,,,,,,,,,,,,,,,,,,,,,,,,,,,,,,,,,,,,,,,,,,,,,,,,,,,,,,,,,,,,,,,,,,,,,,,,,,,,,,,,,,,,,,,,,,,,,,,,,,,,,,
0,26,26,57,1,,610667edefdc1ad424021209,62c53a8af30b92daefb4e187,2022-07-06_09h37.27.006,Colour_Asymmetry_Pilot,2022.1.3,Win32,59.36832106,62c50e9c1127f2cd403a315f,,,,,,,,,,,,,,,,,,,,,,,,,,,,,,,,,,,,,,,,,,,,,,,,,,,,,,,,,,,,,,,,,,,,,,,,,,,,,,,,,,,,,,,,,,,,,,,,,,,,,,,,,,,,,,,,,,,,,,,,,,,,,,,,,,,,,,,,,,,,,,,,,,,,,,,,,,,,,,,,,,,
0,27,27,9,1,,610667edefdc1ad424021209,62c53a8af30b92daefb4e187,2022-07-06_09h37.27.006,Colour_Asymmetry_Pilot,2022.1.3,Win32,59.36832106,62c50e9c1127f2cd403a315f,,,,,,,,,,,,,,,,,,,,,,,,,,,,,,,,,,,,,,,,,,,,,,,,,,,,,,,,,,,,,,,,,,,,,,,,,,,,,,,,,,,,,,,,,,,,,,,,,,,,,,,,,,,,,,,,,,,,,,,,,,,,,,,,,,,,,,,,,,,,,,,,,,,,,,,,,,,,,,,,,,,
0,28,28,13,1,,610667edefdc1ad424021209,62c53a8af30b92daefb4e187,2022-07-06_09h37.27.006,Colour_Asymmetry_Pilot,2022.1.3,Win32,59.36832106,62c50e9c1127f2cd403a315f,,,,,,,,,,,,,,,,,,,,,,,,,,,,,,,,,,,,,,,,,,,,,,,,,,,,,,,,,,,,,,,,,,,,,,,,,,,,,,,,,,,,,,,,,,,,,,,,,,,,,,,,,,,,,,,,,,,,,,,,,,,,,,,,,,,,,,,,,,,,,,,,,,,,,,,,,,,,,,,,,,,
0,29,29,31,1,,610667edefdc1ad424021209,62c53a8af30b92daefb4e187,2022-07-06_09h37.27.006,Colour_Asymmetry_Pilot,2022.1.3,Win32,59.36832106,62c50e9c1127f2cd403a315f,,,,,,,,,,,,,,,,,,,,,,,,,,,,,,,,,,,,,,,,,,,,,,,,,,,,,,,,,,,,,,,,,,,,,,,,,,,,,,,,,,,,,,,,,,,,,,,,,,,,,,,,,,,,,,,,,,,,,,,,,,,,,,,,,,,,,,,,,,,,,,,,,,,,,,,,,,,,,,,,,,,
0,30,30,65,1,,610667edefdc1ad424021209,62c53a8af30b92daefb4e187,2022-07-06_09h37.27.006,Colour_Asymmetry_Pilot,2022.1.3,Win32,59.36832106,62c50e9c1127f2cd403a315f,,,,,,,,,,,,,,,,,,,,,,,,,,,,,,,,,,,,,,,,,,,,,,,,,,,,,,,,,,,,,,,,,,,,,,,,,,,,,,,,,,,,,,,,,,,,,,,,,,,,,,,,,,,,,,,,,,,,,,,,,,,,,,,,,,,,,,,,,,,,,,,,,,,,,,,,,,,,,,,,,,,
0,31,31,2,1,,610667edefdc1ad424021209,62c53a8af30b92daefb4e187,2022-07-06_09h37.27.006,Colour_Asymmetry_Pilot,2022.1.3,Win32,59.36832106,62c50e9c1127f2cd403a315f,,,,,,,,,,,,,,,,,,,,,,,,,,,,,,,,,,,,,,,,,,,,,,,,,,,,,,,,,,,,,,,,,,,,,,,,,,,,,,,,,,,,,,,,,,,,,,,,,,,,,,,,,,,,,,,,,,,,,,,,,,,,,,,,,,,,,,,,,,,,,,,,,,,,,,,,,,,,,,,,,,,
0,32,32,7,1,,610667edefdc1ad424021209,62c53a8af30b92daefb4e187,2022-07-06_09h37.27.006,Colour_Asymmetry_Pilot,2022.1.3,Win32,59.36832106,62c50e9c1127f2cd403a315f,,,,,,,,,,,,,,,,,,,,,,,,,,,,,,,,,,,,,,,,,,,,,,,,,,,,,,,,,,,,,,,,,,,,,,,,,,,,,,,,,,,,,,,,,,,,,,,,,,,,,,,,,,,,,,,,,,,,,,,,,,,,,,,,,,,,,,,,,,,,,,,,,,,,,,,,,,,,,,,,,,,
0,33,33,38,1,,610667edefdc1ad424021209,62c53a8af30b92daefb4e187,2022-07-06_09h37.27.006,Colour_Asymmetry_Pilot,2022.1.3,Win32,59.36832106,62c50e9c1127f2cd403a315f,,,,,,,,,,,,,,,,,,,,,,,,,,,,,,,,,,,,,,,,,,,,,,,,,,,,,,,,,,,,,,,,,,,,,,,,,,,,,,,,,,,,,,,,,,,,,,,,,,,,,,,,,,,,,,,,,,,,,,,,,,,,,,,,,,,,,,,,,,,,,,,,,,,,,,,,,,,,,,,,,,,
0,34,34,64,1,,610667edefdc1ad424021209,62c53a8af30b92daefb4e187,2022-07-06_09h37.27.006,Colour_Asymmetry_Pilot,2022.1.3,Win32,59.36832106,62c50e9c1127f2cd403a315f,,,,,,,,,,,,,,,,,,,,,,,,,,,,,,,,,,,,,,,,,,,,,,,,,,,,,,,,,,,,,,,,,,,,,,,,,,,,,,,,,,,,,,,,,,,,,,,,,,,,,,,,,,,,,,,,,,,,,,,,,,,,,,,,,,,,,,,,,,,,,,,,,,,,,,,,,,,,,,,,,,,
0,35,35,54,1,,610667edefdc1ad424021209,62c53a8af30b92daefb4e187,2022-07-06_09h37.27.006,Colour_Asymmetry_Pilot,2022.1.3,Win32,59.36832106,62c50e9c1127f2cd403a315f,,,,,,,,,,,,,,,,,,,,,,,,,,,,,,,,,,,,,,,,,,,,,,,,,,,,,,,,,,,,,,,,,,,,,,,,,,,,,,,,,,,,,,,,,,,,,,,,,,,,,,,,,,,,,,,,,,,,,,,,,,,,,,,,,,,,,,,,,,,,,,,,,,,,,,,,,,,,,,,,,,,
0,36,36,55,1,,610667edefdc1ad424021209,62c53a8af30b92daefb4e187,2022-07-06_09h37.27.006,Colour_Asymmetry_Pilot,2022.1.3,Win32,59.36832106,62c50e9c1127f2cd403a315f,,,,,,,,,,,,,,,,,,,,,,,,,,,,,,,,,,,,,,,,,,,,,,,,,,,,,,,,,,,,,,,,,,,,,,,,,,,,,,,,,,,,,,,,,,,,,,,,,,,,,,,,,,,,,,,,,,,,,,,,,,,,,,,,,,,,,,,,,,,,,,,,,,,,,,,,,,,,,,,,,,,
0,37,37,25,1,,610667edefdc1ad424021209,62c53a8af30b92daefb4e187,2022-07-06_09h37.27.006,Colour_Asymmetry_Pilot,2022.1.3,Win32,59.36832106,62c50e9c1127f2cd403a315f,,,,,,,,,,,,,,,,,,,,,,,,,,,,,,,,,,,,,,,,,,,,,,,,,,,,,,,,,,,,,,,,,,,,,,,,,,,,,,,,,,,,,,,,,,,,,,,,,,,,,,,,,,,,,,,,,,,,,,,,,,,,,,,,,,,,,,,,,,,,,,,,,,,,,,,,,,,,,,,,,,,
0,38,38,69,1,,610667edefdc1ad424021209,62c53a8af30b92daefb4e187,2022-07-06_09h37.27.006,Colour_Asymmetry_Pilot,2022.1.3,Win32,59.36832106,62c50e9c1127f2cd403a315f,,,,,,,,,,,,,,,,,,,,,,,,,,,,,,,,,,,,,,,,,,,,,,,,,,,,,,,,,,,,,,,,,,,,,,,,,,,,,,,,,,,,,,,,,,,,,,,,,,,,,,,,,,,,,,,,,,,,,,,,,,,,,,,,,,,,,,,,,,,,,,,,,,,,,,,,,,,,,,,,,,,
0,39,39,75,1,,610667edefdc1ad424021209,62c53a8af30b92daefb4e187,2022-07-06_09h37.27.006,Colour_Asymmetry_Pilot,2022.1.3,Win32,59.36832106,62c50e9c1127f2cd403a315f,,,,,,,,,,,,,,,,,,,,,,,,,,,,,,,,,,,,,,,,,,,,,,,,,,,,,,,,,,,,,,,,,,,,,,,,,,,,,,,,,,,,,,,,,,,,,,,,,,,,,,,,,,,,,,,,,,,,,,,,,,,,,,,,,,,,,,,,,,,,,,,,,,,,,,,,,,,,,,,,,,,
0,40,40,37,1,,610667edefdc1ad424021209,62c53a8af30b92daefb4e187,2022-07-06_09h37.27.006,Colour_Asymmetry_Pilot,2022.1.3,Win32,59.36832106,62c50e9c1127f2cd403a315f,,,,,,,,,,,,,,,,,,,,,,,,,,,,,,,,,,,,,,,,,,,,,,,,,,,,,,,,,,,,,,,,,,,,,,,,,,,,,,,,,,,,,,,,,,,,,,,,,,,,,,,,,,,,,,,,,,,,,,,,,,,,,,,,,,,,,,,,,,,,,,,,,,,,,,,,,,,,,,,,,,,
0,41,41,61,1,,610667edefdc1ad424021209,62c53a8af30b92daefb4e187,2022-07-06_09h37.27.006,Colour_Asymmetry_Pilot,2022.1.3,Win32,59.36832106,62c50e9c1127f2cd403a315f,,,,,,,,,,,,,,,,,,,,,,,,,,,,,,,,,,,,,,,,,,,,,,,,,,,,,,,,,,,,,,,,,,,,,,,,,,,,,,,,,,,,,,,,,,,,,,,,,,,,,,,,,,,,,,,,,,,,,,,,,,,,,,,,,,,,,,,,,,,,,,,,,,,,,,,,,,,,,,,,,,,
0,42,42,77,1,,610667edefdc1ad424021209,62c53a8af30b92daefb4e187,2022-07-06_09h37.27.006,Colour_Asymmetry_Pilot,2022.1.3,Win32,59.36832106,62c50e9c1127f2cd403a315f,,,,,,,,,,,,,,,,,,,,,,,,,,,,,,,,,,,,,,,,,,,,,,,,,,,,,,,,,,,,,,,,,,,,,,,,,,,,,,,,,,,,,,,,,,,,,,,,,,,,,,,,,,,,,,,,,,,,,,,,,,,,,,,,,,,,,,,,,,,,,,,,,,,,,,,,,,,,,,,,,,,
0,43,43,71,1,,610667edefdc1ad424021209,62c53a8af30b92daefb4e187,2022-07-06_09h37.27.006,Colour_Asymmetry_Pilot,2022.1.3,Win32,59.36832106,62c50e9c1127f2cd403a315f,,,,,,,,,,,,,,,,,,,,,,,,,,,,,,,,,,,,,,,,,,,,,,,,,,,,,,,,,,,,,,,,,,,,,,,,,,,,,,,,,,,,,,,,,,,,,,,,,,,,,,,,,,,,,,,,,,,,,,,,,,,,,,,,,,,,,,,,,,,,,,,,,,,,,,,,,,,,,,,,,,,
0,44,44,70,1,,610667edefdc1ad424021209,62c53a8af30b92daefb4e187,2022-07-06_09h37.27.006,Colour_Asymmetry_Pilot,2022.1.3,Win32,59.36832106,62c50e9c1127f2cd403a315f,,,,,,,,,,,,,,,,,,,,,,,,,,,,,,,,,,,,,,,,,,,,,,,,,,,,,,,,,,,,,,,,,,,,,,,,,,,,,,,,,,,,,,,,,,,,,,,,,,,,,,,,,,,,,,,,,,,,,,,,,,,,,,,,,,,,,,,,,,,,,,,,,,,,,,,,,,,,,,,,,,,
0,45,45,63,1,,610667edefdc1ad424021209,62c53a8af30b92daefb4e187,2022-07-06_09h37.27.006,Colour_Asymmetry_Pilot,2022.1.3,Win32,59.36832106,62c50e9c1127f2cd403a315f,,,,,,,,,,,,,,,,,,,,,,,,,,,,,,,,,,,,,,,,,,,,,,,,,,,,,,,,,,,,,,,,,,,,,,,,,,,,,,,,,,,,,,,,,,,,,,,,,,,,,,,,,,,,,,,,,,,,,,,,,,,,,,,,,,,,,,,,,,,,,,,,,,,,,,,,,,,,,,,,,,,
0,46,46,27,1,,610667edefdc1ad424021209,62c53a8af30b92daefb4e187,2022-07-06_09h37.27.006,Colour_Asymmetry_Pilot,2022.1.3,Win32,59.36832106,62c50e9c1127f2cd403a315f,,,,,,,,,,,,,,,,,,,,,,,,,,,,,,,,,,,,,,,,,,,,,,,,,,,,,,,,,,,,,,,,,,,,,,,,,,,,,,,,,,,,,,,,,,,,,,,,,,,,,,,,,,,,,,,,,,,,,,,,,,,,,,,,,,,,,,,,,,,,,,,,,,,,,,,,,,,,,,,,,,,
0,47,47,51,1,,610667edefdc1ad424021209,62c53a8af30b92daefb4e187,2022-07-06_09h37.27.006,Colour_Asymmetry_Pilot,2022.1.3,Win32,59.36832106,62c50e9c1127f2cd403a315f,,,,,,,,,,,,,,,,,,,,,,,,,,,,,,,,,,,,,,,,,,,,,,,,,,,,,,,,,,,,,,,,,,,,,,,,,,,,,,,,,,,,,,,,,,,,,,,,,,,,,,,,,,,,,,,,,,,,,,,,,,,,,,,,,,,,,,,,,,,,,,,,,,,,,,,,,,,,,,,,,,,
0,48,48,80,1,,610667edefdc1ad424021209,62c53a8af30b92daefb4e187,2022-07-06_09h37.27.006,Colour_Asymmetry_Pilot,2022.1.3,Win32,59.36832106,62c50e9c1127f2cd403a315f,,,,,,,,,,,,,,,,,,,,,,,,,,,,,,,,,,,,,,,,,,,,,,,,,,,,,,,,,,,,,,,,,,,,,,,,,,,,,,,,,,,,,,,,,,,,,,,,,,,,,,,,,,,,,,,,,,,,,,,,,,,,,,,,,,,,,,,,,,,,,,,,,,,,,,,,,,,,,,,,,,,
0,49,49,41,1,,610667edefdc1ad424021209,62c53a8af30b92daefb4e187,2022-07-06_09h37.27.006,Colour_Asymmetry_Pilot,2022.1.3,Win32,59.36832106,62c50e9c1127f2cd403a315f,,,,,,,,,,,,,,,,,,,,,,,,,,,,,,,,,,,,,,,,,,,,,,,,,,,,,,,,,,,,,,,,,,,,,,,,,,,,,,,,,,,,,,,,,,,,,,,,,,,,,,,,,,,,,,,,,,,,,,,,,,,,,,,,,,,,,,,,,,,,,,,,,,,,,,,,,,,,,,,,,,,
0,50,50,62,1,,610667edefdc1ad424021209,62c53a8af30b92daefb4e187,2022-07-06_09h37.27.006,Colour_Asymmetry_Pilot,2022.1.3,Win32,59.36832106,62c50e9c1127f2cd403a315f,,,,,,,,,,,,,,,,,,,,,,,,,,,,,,,,,,,,,,,,,,,,,,,,,,,,,,,,,,,,,,,,,,,,,,,,,,,,,,,,,,,,,,,,,,,,,,,,,,,,,,,,,,,,,,,,,,,,,,,,,,,,,,,,,,,,,,,,,,,,,,,,,,,,,,,,,,,,,,,,,,,
0,51,51,82,1,,610667edefdc1ad424021209,62c53a8af30b92daefb4e187,2022-07-06_09h37.27.006,Colour_Asymmetry_Pilot,2022.1.3,Win32,59.36832106,62c50e9c1127f2cd403a315f,,,,,,,,,,,,,,,,,,,,,,,,,,,,,,,,,,,,,,,,,,,,,,,,,,,,,,,,,,,,,,,,,,,,,,,,,,,,,,,,,,,,,,,,,,,,,,,,,,,,,,,,,,,,,,,,,,,,,,,,,,,,,,,,,,,,,,,,,,,,,,,,,,,,,,,,,,,,,,,,,,,
0,52,52,74,1,,610667edefdc1ad424021209,62c53a8af30b92daefb4e187,2022-07-06_09h37.27.006,Colour_Asymmetry_Pilot,2022.1.3,Win32,59.36832106,62c50e9c1127f2cd403a315f,,,,,,,,,,,,,,,,,,,,,,,,,,,,,,,,,,,,,,,,,,,,,,,,,,,,,,,,,,,,,,,,,,,,,,,,,,,,,,,,,,,,,,,,,,,,,,,,,,,,,,,,,,,,,,,,,,,,,,,,,,,,,,,,,,,,,,,,,,,,,,,,,,,,,,,,,,,,,,,,,,,
0,53,53,83,1,,610667edefdc1ad424021209,62c53a8af30b92daefb4e187,2022-07-06_09h37.27.006,Colour_Asymmetry_Pilot,2022.1.3,Win32,59.36832106,62c50e9c1127f2cd403a315f,,,,,,,,,,,,,,,,,,,,,,,,,,,,,,,,,,,,,,,,,,,,,,,,,,,,,,,,,,,,,,,,,,,,,,,,,,,,,,,,,,,,,,,,,,,,,,,,,,,,,,,,,,,,,,,,,,,,,,,,,,,,,,,,,,,,,,,,,,,,,,,,,,,,,,,,,,,,,,,,,,,
0,54,54,21,1,,610667edefdc1ad424021209,62c53a8af30b92daefb4e187,2022-07-06_09h37.27.006,Colour_Asymmetry_Pilot,2022.1.3,Win32,59.36832106,62c50e9c1127f2cd403a315f,,,,,,,,,,,,,,,,,,,,,,,,,,,,,,,,,,,,,,,,,,,,,,,,,,,,,,,,,,,,,,,,,,,,,,,,,,,,,,,,,,,,,,,,,,,,,,,,,,,,,,,,,,,,,,,,,,,,,,,,,,,,,,,,,,,,,,,,,,,,,,,,,,,,,,,,,,,,,,,,,,,
0,55,55,30,1,,610667edefdc1ad424021209,62c53a8af30b92daefb4e187,2022-07-06_09h37.27.006,Colour_Asymmetry_Pilot,2022.1.3,Win32,59.36832106,62c50e9c1127f2cd403a315f,,,,,,,,,,,,,,,,,,,,,,,,,,,,,,,,,,,,,,,,,,,,,,,,,,,,,,,,,,,,,,,,,,,,,,,,,,,,,,,,,,,,,,,,,,,,,,,,,,,,,,,,,,,,,,,,,,,,,,,,,,,,,,,,,,,,,,,,,,,,,,,,,,,,,,,,,,,,,,,,,,,
0,56,56,28,1,,610667edefdc1ad424021209,62c53a8af30b92daefb4e187,2022-07-06_09h37.27.006,Colour_Asymmetry_Pilot,2022.1.3,Win32,59.36832106,62c50e9c1127f2cd403a315f,,,,,,,,,,,,,,,,,,,,,,,,,,,,,,,,,,,,,,,,,,,,,,,,,,,,,,,,,,,,,,,,,,,,,,,,,,,,,,,,,,,,,,,,,,,,,,,,,,,,,,,,,,,,,,,,,,,,,,,,,,,,,,,,,,,,,,,,,,,,,,,,,,,,,,,,,,,,,,,,,,,
0,57,57,92,1,,610667edefdc1ad424021209,62c53a8af30b92daefb4e187,2022-07-06_09h37.27.006,Colour_Asymmetry_Pilot,2022.1.3,Win32,59.36832106,62c50e9c1127f2cd403a315f,,,,,,,,,,,,,,,,,,,,,,,,,,,,,,,,,,,,,,,,,,,,,,,,,,,,,,,,,,,,,,,,,,,,,,,,,,,,,,,,,,,,,,,,,,,,,,,,,,,,,,,,,,,,,,,,,,,,,,,,,,,,,,,,,,,,,,,,,,,,,,,,,,,,,,,,,,,,,,,,,,,
0,58,58,20,1,,610667edefdc1ad424021209,62c53a8af30b92daefb4e187,2022-07-06_09h37.27.006,Colour_Asymmetry_Pilot,2022.1.3,Win32,59.36832106,62c50e9c1127f2cd403a315f,,,,,,,,,,,,,,,,,,,,,,,,,,,,,,,,,,,,,,,,,,,,,,,,,,,,,,,,,,,,,,,,,,,,,,,,,,,,,,,,,,,,,,,,,,,,,,,,,,,,,,,,,,,,,,,,,,,,,,,,,,,,,,,,,,,,,,,,,,,,,,,,,,,,,,,,,,,,,,,,,,,
0,59,59,4,1,,610667edefdc1ad424021209,62c53a8af30b92daefb4e187,2022-07-06_09h37.27.006,Colour_Asymmetry_Pilot,2022.1.3,Win32,59.36832106,62c50e9c1127f2cd403a315f,,,,,,,,,,,,,,,,,,,,,,,,,,,,,,,,,,,,,,,,,,,,,,,,,,,,,,,,,,,,,,,,,,,,,,,,,,,,,,,,,,,,,,,,,,,,,,,,,,,,,,,,,,,,,,,,,,,,,,,,,,,,,,,,,,,,,,,,,,,,,,,,,,,,,,,,,,,,,,,,,,,
0,60,60,81,1,,610667edefdc1ad424021209,62c53a8af30b92daefb4e187,2022-07-06_09h37.27.006,Colour_Asymmetry_Pilot,2022.1.3,Win32,59.36832106,62c50e9c1127f2cd403a315f,,,,,,,,,,,,,,,,,,,,,,,,,,,,,,,,,,,,,,,,,,,,,,,,,,,,,,,,,,,,,,,,,,,,,,,,,,,,,,,,,,,,,,,,,,,,,,,,,,,,,,,,,,,,,,,,,,,,,,,,,,,,,,,,,,,,,,,,,,,,,,,,,,,,,,,,,,,,,,,,,,,
0,61,61,66,1,,610667edefdc1ad424021209,62c53a8af30b92daefb4e187,2022-07-06_09h37.27.006,Colour_Asymmetry_Pilot,2022.1.3,Win32,59.36832106,62c50e9c1127f2cd403a315f,,,,,,,,,,,,,,,,,,,,,,,,,,,,,,,,,,,,,,,,,,,,,,,,,,,,,,,,,,,,,,,,,,,,,,,,,,,,,,,,,,,,,,,,,,,,,,,,,,,,,,,,,,,,,,,,,,,,,,,,,,,,,,,,,,,,,,,,,,,,,,,,,,,,,,,,,,,,,,,,,,,
0,62,62,36,1,,610667edefdc1ad424021209,62c53a8af30b92daefb4e187,2022-07-06_09h37.27.006,Colour_Asymmetry_Pilot,2022.1.3,Win32,59.36832106,62c50e9c1127f2cd403a315f,,,,,,,,,,,,,,,,,,,,,,,,,,,,,,,,,,,,,,,,,,,,,,,,,,,,,,,,,,,,,,,,,,,,,,,,,,,,,,,,,,,,,,,,,,,,,,,,,,,,,,,,,,,,,,,,,,,,,,,,,,,,,,,,,,,,,,,,,,,,,,,,,,,,,,,,,,,,,,,,,,,
0,63,63,91,1,,610667edefdc1ad424021209,62c53a8af30b92daefb4e187,2022-07-06_09h37.27.006,Colour_Asymmetry_Pilot,2022.1.3,Win32,59.36832106,62c50e9c1127f2cd403a315f,,,,,,,,,,,,,,,,,,,,,,,,,,,,,,,,,,,,,,,,,,,,,,,,,,,,,,,,,,,,,,,,,,,,,,,,,,,,,,,,,,,,,,,,,,,,,,,,,,,,,,,,,,,,,,,,,,,,,,,,,,,,,,,,,,,,,,,,,,,,,,,,,,,,,,,,,,,,,,,,,,,
0,64,64,89,1,,610667edefdc1ad424021209,62c53a8af30b92daefb4e187,2022-07-06_09h37.27.006,Colour_Asymmetry_Pilot,2022.1.3,Win32,59.36832106,62c50e9c1127f2cd403a315f,,,,,,,,,,,,,,,,,,,,,,,,,,,,,,,,,,,,,,,,,,,,,,,,,,,,,,,,,,,,,,,,,,,,,,,,,,,,,,,,,,,,,,,,,,,,,,,,,,,,,,,,,,,,,,,,,,,,,,,,,,,,,,,,,,,,,,,,,,,,,,,,,,,,,,,,,,,,,,,,,,,
0,65,65,48,1,,610667edefdc1ad424021209,62c53a8af30b92daefb4e187,2022-07-06_09h37.27.006,Colour_Asymmetry_Pilot,2022.1.3,Win32,59.36832106,62c50e9c1127f2cd403a315f,,,,,,,,,,,,,,,,,,,,,,,,,,,,,,,,,,,,,,,,,,,,,,,,,,,,,,,,,,,,,,,,,,,,,,,,,,,,,,,,,,,,,,,,,,,,,,,,,,,,,,,,,,,,,,,,,,,,,,,,,,,,,,,,,,,,,,,,,,,,,,,,,,,,,,,,,,,,,,,,,,,
0,66,66,10,1,,610667edefdc1ad424021209,62c53a8af30b92daefb4e187,2022-07-06_09h37.27.006,Colour_Asymmetry_Pilot,2022.1.3,Win32,59.36832106,62c50e9c1127f2cd403a315f,,,,,,,,,,,,,,,,,,,,,,,,,,,,,,,,,,,,,,,,,,,,,,,,,,,,,,,,,,,,,,,,,,,,,,,,,,,,,,,,,,,,,,,,,,,,,,,,,,,,,,,,,,,,,,,,,,,,,,,,,,,,,,,,,,,,,,,,,,,,,,,,,,,,,,,,,,,,,,,,,,,
0,67,67,72,1,,610667edefdc1ad424021209,62c53a8af30b92daefb4e187,2022-07-06_09h37.27.006,Colour_Asymmetry_Pilot,2022.1.3,Win32,59.36832106,62c50e9c1127f2cd403a315f,,,,,,,,,,,,,,,,,,,,,,,,,,,,,,,,,,,,,,,,,,,,,,,,,,,,,,,,,,,,,,,,,,,,,,,,,,,,,,,,,,,,,,,,,,,,,,,,,,,,,,,,,,,,,,,,,,,,,,,,,,,,,,,,,,,,,,,,,,,,,,,,,,,,,,,,,,,,,,,,,,,
0,68,68,90,1,,610667edefdc1ad424021209,62c53a8af30b92daefb4e187,2022-07-06_09h37.27.006,Colour_Asymmetry_Pilot,2022.1.3,Win32,59.36832106,62c50e9c1127f2cd403a315f,,,,,,,,,,,,,,,,,,,,,,,,,,,,,,,,,,,,,,,,,,,,,,,,,,,,,,,,,,,,,,,,,,,,,,,,,,,,,,,,,,,,,,,,,,,,,,,,,,,,,,,,,,,,,,,,,,,,,,,,,,,,,,,,,,,,,,,,,,,,,,,,,,,,,,,,,,,,,,,,,,,
0,69,69,23,1,,610667edefdc1ad424021209,62c53a8af30b92daefb4e187,2022-07-06_09h37.27.006,Colour_Asymmetry_Pilot,2022.1.3,Win32,59.36832106,62c50e9c1127f2cd403a315f,,,,,,,,,,,,,,,,,,,,,,,,,,,,,,,,,,,,,,,,,,,,,,,,,,,,,,,,,,,,,,,,,,,,,,,,,,,,,,,,,,,,,,,,,,,,,,,,,,,,,,,,,,,,,,,,,,,,,,,,,,,,,,,,,,,,,,,,,,,,,,,,,,,,,,,,,,,,,,,,,,,
0,70,70,86,1,,610667edefdc1ad424021209,62c53a8af30b92daefb4e187,2022-07-06_09h37.27.006,Colour_Asymmetry_Pilot,2022.1.3,Win32,59.36832106,62c50e9c1127f2cd403a315f,,,,,,,,,,,,,,,,,,,,,,,,,,,,,,,,,,,,,,,,,,,,,,,,,,,,,,,,,,,,,,,,,,,,,,,,,,,,,,,,,,,,,,,,,,,,,,,,,,,,,,,,,,,,,,,,,,,,,,,,,,,,,,,,,,,,,,,,,,,,,,,,,,,,,,,,,,,,,,,,,,,
0,71,71,22,1,,610667edefdc1ad424021209,62c53a8af30b92daefb4e187,2022-07-06_09h37.27.006,Colour_Asymmetry_Pilot,2022.1.3,Win32,59.36832106,62c50e9c1127f2cd403a315f,,,,,,,,,,,,,,,,,,,,,,,,,,,,,,,,,,,,,,,,,,,,,,,,,,,,,,,,,,,,,,,,,,,,,,,,,,,,,,,,,,,,,,,,,,,,,,,,,,,,,,,,,,,,,,,,,,,,,,,,,,,,,,,,,,,,,,,,,,,,,,,,,,,,,,,,,,,,,,,,,,,
0,72,72,15,1,,610667edefdc1ad424021209,62c53a8af30b92daefb4e187,2022-07-06_09h37.27.006,Colour_Asymmetry_Pilot,2022.1.3,Win32,59.36832106,62c50e9c1127f2cd403a315f,,,,,,,,,,,,,,,,,,,,,,,,,,,,,,,,,,,,,,,,,,,,,,,,,,,,,,,,,,,,,,,,,,,,,,,,,,,,,,,,,,,,,,,,,,,,,,,,,,,,,,,,,,,,,,,,,,,,,,,,,,,,,,,,,,,,,,,,,,,,,,,,,,,,,,,,,,,,,,,,,,,
0,73,73,34,1,,610667edefdc1ad424021209,62c53a8af30b92daefb4e187,2022-07-06_09h37.27.006,Colour_Asymmetry_Pilot,2022.1.3,Win32,59.36832106,62c50e9c1127f2cd403a315f,,,,,,,,,,,,,,,,,,,,,,,,,,,,,,,,,,,,,,,,,,,,,,,,,,,,,,,,,,,,,,,,,,,,,,,,,,,,,,,,,,,,,,,,,,,,,,,,,,,,,,,,,,,,,,,,,,,,,,,,,,,,,,,,,,,,,,,,,,,,,,,,,,,,,,,,,,,,,,,,,,,
0,74,74,87,1,,610667edefdc1ad424021209,62c53a8af30b92daefb4e187,2022-07-06_09h37.27.006,Colour_Asymmetry_Pilot,2022.1.3,Win32,59.36832106,62c50e9c1127f2cd403a315f,,,,,,,,,,,,,,,,,,,,,,,,,,,,,,,,,,,,,,,,,,,,,,,,,,,,,,,,,,,,,,,,,,,,,,,,,,,,,,,,,,,,,,,,,,,,,,,,,,,,,,,,,,,,,,,,,,,,,,,,,,,,,,,,,,,,,,,,,,,,,,,,,,,,,,,,,,,,,,,,,,,
0,75,75,3,1,,610667edefdc1ad424021209,62c53a8af30b92daefb4e187,2022-07-06_09h37.27.006,Colour_Asymmetry_Pilot,2022.1.3,Win32,59.36832106,62c50e9c1127f2cd403a315f,,,,,,,,,,,,,,,,,,,,,,,,,,,,,,,,,,,,,,,,,,,,,,,,,,,,,,,,,,,,,,,,,,,,,,,,,,,,,,,,,,,,,,,,,,,,,,,,,,,,,,,,,,,,,,,,,,,,,,,,,,,,,,,,,,,,,,,,,,,,,,,,,,,,,,,,,,,,,,,,,,,
0,76,76,44,1,,610667edefdc1ad424021209,62c53a8af30b92daefb4e187,2022-07-06_09h37.27.006,Colour_Asymmetry_Pilot,2022.1.3,Win32,59.36832106,62c50e9c1127f2cd403a315f,,,,,,,,,,,,,,,,,,,,,,,,,,,,,,,,,,,,,,,,,,,,,,,,,,,,,,,,,,,,,,,,,,,,,,,,,,,,,,,,,,,,,,,,,,,,,,,,,,,,,,,,,,,,,,,,,,,,,,,,,,,,,,,,,,,,,,,,,,,,,,,,,,,,,,,,,,,,,,,,,,,
0,77,77,35,1,,610667edefdc1ad424021209,62c53a8af30b92daefb4e187,2022-07-06_09h37.27.006,Colour_Asymmetry_Pilot,2022.1.3,Win32,59.36832106,62c50e9c1127f2cd403a315f,,,,,,,,,,,,,,,,,,,,,,,,,,,,,,,,,,,,,,,,,,,,,,,,,,,,,,,,,,,,,,,,,,,,,,,,,,,,,,,,,,,,,,,,,,,,,,,,,,,,,,,,,,,,,,,,,,,,,,,,,,,,,,,,,,,,,,,,,,,,,,,,,,,,,,,,,,,,,,,,,,,
0,78,78,59,1,,610667edefdc1ad424021209,62c53a8af30b92daefb4e187,2022-07-06_09h37.27.006,Colour_Asymmetry_Pilot,2022.1.3,Win32,59.36832106,62c50e9c1127f2cd403a315f,,,,,,,,,,,,,,,,,,,,,,,,,,,,,,,,,,,,,,,,,,,,,,,,,,,,,,,,,,,,,,,,,,,,,,,,,,,,,,,,,,,,,,,,,,,,,,,,,,,,,,,,,,,,,,,,,,,,,,,,,,,,,,,,,,,,,,,,,,,,,,,,,,,,,,,,,,,,,,,,,,,
0,79,79,12,1,,610667edefdc1ad424021209,62c53a8af30b92daefb4e187,2022-07-06_09h37.27.006,Colour_Asymmetry_Pilot,2022.1.3,Win32,59.36832106,62c50e9c1127f2cd403a315f,,,,,,,,,,,,,,,,,,,,,,,,,,,,,,,,,,,,,,,,,,,,,,,,,,,,,,,,,,,,,,,,,,,,,,,,,,,,,,,,,,,,,,,,,,,,,,,,,,,,,,,,,,,,,,,,,,,,,,,,,,,,,,,,,,,,,,,,,,,,,,,,,,,,,,,,,,,,,,,,,,,
0,80,80,40,1,,610667edefdc1ad424021209,62c53a8af30b92daefb4e187,2022-07-06_09h37.27.006,Colour_Asymmetry_Pilot,2022.1.3,Win32,59.36832106,62c50e9c1127f2cd403a315f,,,,,,,,,,,,,,,,,,,,,,,,,,,,,,,,,,,,,,,,,,,,,,,,,,,,,,,,,,,,,,,,,,,,,,,,,,,,,,,,,,,,,,,,,,,,,,,,,,,,,,,,,,,,,,,,,,,,,,,,,,,,,,,,,,,,,,,,,,,,,,,,,,,,,,,,,,,,,,,,,,,
0,81,81,58,1,,610667edefdc1ad424021209,62c53a8af30b92daefb4e187,2022-07-06_09h37.27.006,Colour_Asymmetry_Pilot,2022.1.3,Win32,59.36832106,62c50e9c1127f2cd403a315f,,,,,,,,,,,,,,,,,,,,,,,,,,,,,,,,,,,,,,,,,,,,,,,,,,,,,,,,,,,,,,,,,,,,,,,,,,,,,,,,,,,,,,,,,,,,,,,,,,,,,,,,,,,,,,,,,,,,,,,,,,,,,,,,,,,,,,,,,,,,,,,,,,,,,,,,,,,,,,,,,,,
0,82,82,49,1,,610667edefdc1ad424021209,62c53a8af30b92daefb4e187,2022-07-06_09h37.27.006,Colour_Asymmetry_Pilot,2022.1.3,Win32,59.36832106,62c50e9c1127f2cd403a315f,,,,,,,,,,,,,,,,,,,,,,,,,,,,,,,,,,,,,,,,,,,,,,,,,,,,,,,,,,,,,,,,,,,,,,,,,,,,,,,,,,,,,,,,,,,,,,,,,,,,,,,,,,,,,,,,,,,,,,,,,,,,,,,,,,,,,,,,,,,,,,,,,,,,,,,,,,,,,,,,,,,
0,83,83,33,1,,610667edefdc1ad424021209,62c53a8af30b92daefb4e187,2022-07-06_09h37.27.006,Colour_Asymmetry_Pilot,2022.1.3,Win32,59.36832106,62c50e9c1127f2cd403a315f,,,,,,,,,,,,,,,,,,,,,,,,,,,,,,,,,,,,,,,,,,,,,,,,,,,,,,,,,,,,,,,,,,,,,,,,,,,,,,,,,,,,,,,,,,,,,,,,,,,,,,,,,,,,,,,,,,,,,,,,,,,,,,,,,,,,,,,,,,,,,,,,,,,,,,,,,,,,,,,,,,,
0,84,84,85,1,,610667edefdc1ad424021209,62c53a8af30b92daefb4e187,2022-07-06_09h37.27.006,Colour_Asymmetry_Pilot,2022.1.3,Win32,59.36832106,62c50e9c1127f2cd403a315f,,,,,,,,,,,,,,,,,,,,,,,,,,,,,,,,,,,,,,,,,,,,,,,,,,,,,,,,,,,,,,,,,,,,,,,,,,,,,,,,,,,,,,,,,,,,,,,,,,,,,,,,,,,,,,,,,,,,,,,,,,,,,,,,,,,,,,,,,,,,,,,,,,,,,,,,,,,,,,,,,,,
0,85,85,8,1,,610667edefdc1ad424021209,62c53a8af30b92daefb4e187,2022-07-06_09h37.27.006,Colour_Asymmetry_Pilot,2022.1.3,Win32,59.36832106,62c50e9c1127f2cd403a315f,,,,,,,,,,,,,,,,,,,,,,,,,,,,,,,,,,,,,,,,,,,,,,,,,,,,,,,,,,,,,,,,,,,,,,,,,,,,,,,,,,,,,,,,,,,,,,,,,,,,,,,,,,,,,,,,,,,,,,,,,,,,,,,,,,,,,,,,,,,,,,,,,,,,,,,,,,,,,,,,,,,
0,86,86,0,1,,610667edefdc1ad424021209,62c53a8af30b92daefb4e187,2022-07-06_09h37.27.006,Colour_Asymmetry_Pilot,2022.1.3,Win32,59.36832106,62c50e9c1127f2cd403a315f,,,,,,,,,,,,,,,,,,,,,,,,,,,,,,,,,,,,,,,,,,,,,,,,,,,,,,,,,,,,,,,,,,,,,,,,,,,,,,,,,,,,,,,,,,,,,,,,,,,,,,,,,,,,,,,,,,,,,,,,,,,,,,,,,,,,,,,,,,,,,,,,,,,,,,,,,,,,,,,,,,,
0,87,87,39,1,,610667edefdc1ad424021209,62c53a8af30b92daefb4e187,2022-07-06_09h37.27.006,Colour_Asymmetry_Pilot,2022.1.3,Win32,59.36832106,62c50e9c1127f2cd403a315f,,,,,,,,,,,,,,,,,,,,,,,,,,,,,,,,,,,,,,,,,,,,,,,,,,,,,,,,,,,,,,,,,,,,,,,,,,,,,,,,,,,,,,,,,,,,,,,,,,,,,,,,,,,,,,,,,,,,,,,,,,,,,,,,,,,,,,,,,,,,,,,,,,,,,,,,,,,,,,,,,,,
0,88,88,47,1,,610667edefdc1ad424021209,62c53a8af30b92daefb4e187,2022-07-06_09h37.27.006,Colour_Asymmetry_Pilot,2022.1.3,Win32,59.36832106,62c50e9c1127f2cd403a315f,,,,,,,,,,,,,,,,,,,,,,,,,,,,,,,,,,,,,,,,,,,,,,,,,,,,,,,,,,,,,,,,,,,,,,,,,,,,,,,,,,,,,,,,,,,,,,,,,,,,,,,,,,,,,,,,,,,,,,,,,,,,,,,,,,,,,,,,,,,,,,,,,,,,,,,,,,,,,,,,,,,
0,89,89,53,1,,610667edefdc1ad424021209,62c53a8af30b92daefb4e187,2022-07-06_09h37.27.006,Colour_Asymmetry_Pilot,2022.1.3,Win32,59.36832106,62c50e9c1127f2cd403a315f,,,,,,,,,,,,,,,,,,,,,,,,,,,,,,,,,,,,,,,,,,,,,,,,,,,,,,,,,,,,,,,,,,,,,,,,,,,,,,,,,,,,,,,,,,,,,,,,,,,,,,,,,,,,,,,,,,,,,,,,,,,,,,,,,,,,,,,,,,,,,,,,,,,,,,,,,,,,,,,,,,,
0,90,90,56,1,,610667edefdc1ad424021209,62c53a8af30b92daefb4e187,2022-07-06_09h37.27.006,Colour_Asymmetry_Pilot,2022.1.3,Win32,59.36832106,62c50e9c1127f2cd403a315f,,,,,,,,,,,,,,,,,,,,,,,,,,,,,,,,,,,,,,,,,,,,,,,,,,,,,,,,,,,,,,,,,,,,,,,,,,,,,,,,,,,,,,,,,,,,,,,,,,,,,,,,,,,,,,,,,,,,,,,,,,,,,,,,,,,,,,,,,,,,,,,,,,,,,,,,,,,,,,,,,,,
0,91,91,67,1,,610667edefdc1ad424021209,62c53a8af30b92daefb4e187,2022-07-06_09h37.27.006,Colour_Asymmetry_Pilot,2022.1.3,Win32,59.36832106,62c50e9c1127f2cd403a315f,,,,,,,,,,,,,,,,,,,,,,,,,,,,,,,,,,,,,,,,,,,,,,,,,,,,,,,,,,,,,,,,,,,,,,,,,,,,,,,,,,,,,,,,,,,,,,,,,,,,,,,,,,,,,,,,,,,,,,,,,,,,,,,,,,,,,,,,,,,,,,,,,,,,,,,,,,,,,,,,,,,
0,92,92,52,1,,610667edefdc1ad424021209,62c53a8af30b92daefb4e187,2022-07-06_09h37.27.006,Colour_Asymmetry_Pilot,2022.1.3,Win32,59.36832106,62c50e9c1127f2cd403a315f,,,,,,,,,,,,,,,,,,,,,,,,,,,,,,,,,,,,,,,,,,,,,,,,,,,,,,,,,,,,,,,,,,,,,,,,,,,,,,,,,,,,,,,,,,,,,,,,,,,,,,,,,,,,,,,,,,,,,,,,,,,,,,,,,,,,,,,,,,,,,,,,,,,,,,,,,,,,,,,,,,,
,,,,,,610667edefdc1ad424021209,62c53a8af30b92daefb4e187,2022-07-06_09h37.27.006,Colour_Asymmetry_Pilot,2022.1.3,Win32,59.36832106,62c50e9c1127f2cd403a315f,0,0,0,42,1,twoone,,,,,,,,,,,,,,,,,,,,,,,,,,,,,,,,,,,,,,,,,,,,,,,,,,,,,,,,,,,,,,,,,,,,,,,,,,,,,,,,,,,,,,,,,,,,,,,,,,,,,,,,,,,,,,,,,,,,,,,,,,,,,,,,,,,,,,,,,,,,,,,,,,,,,,,,,,,,,
,,,,,,610667edefdc1ad424021209,62c53a8af30b92daefb4e187,2022-07-06_09h37.27.006,Colour_Asymmetry_Pilot,2022.1.3,Win32,59.36832106,62c50e9c1127f2cd403a315f,0,1,1,150,1,fourtwo,,,,,,,,,,,,,,,,,,,,,,,,,,,,,,,,,,,,,,,,,,,,,,,,,,,,,,,,,,,,,,,,,,,,,,,,,,,,,,,,,,,,,,,,,,,,,,,,,,,,,,,,,,,,,,,,,,,,,,,,,,,,,,,,,,,,,,,,,,,,,,,,,,,,,,,,,,,,,
,,,,,,610667edefdc1ad424021209,62c53a8af30b92daefb4e187,2022-07-06_09h37.27.006,Colour_Asymmetry_Pilot,2022.1.3,Win32,59.36832106,62c50e9c1127f2cd403a315f,0,2,2,16,1,onetwo,,,,,,,,,,,,,,,,,,,,,,,,,,,,,,,,,,,,,,,,,,,,,,,,,,,,,,,,,,,,,,,,,,,,,,,,,,,,,,,,,,,,,,,,,,,,,,,,,,,,,,,,,,,,,,,,,,,,,,,,,,,,,,,,,,,,,,,,,,,,,,,,,,,,,,,,,,,,,
,,,,,,610667edefdc1ad424021209,62c53a8af30b92daefb4e187,2022-07-06_09h37.27.006,Colour_Asymmetry_Pilot,2022.1.3,Win32,59.36832106,62c50e9c1127f2cd403a315f,0,3,3,86,1,fourtwo,,,,,,,,,,,,,,,,,,,,,,,,,,,,,,,,,,,,,,,,,,,,,,,,,,,,,,,,,,,,,,,,,,,,,,,,,,,,,,,,,,,,,,,,,,,,,,,,,,,,,,,,,,,,,,,,,,,,,,,,,,,,,,,,,,,,,,,,,,,,,,,,,,,,,,,,,,,,,
,,,,,,610667edefdc1ad424021209,62c53a8af30b92daefb4e187,2022-07-06_09h37.27.006,Colour_Asymmetry_Pilot,2022.1.3,Win32,59.36832106,62c50e9c1127f2cd403a315f,0,4,4,76,1,threeone,,,,,,,,,,,,,,,,,,,,,,,,,,,,,,,,,,,,,,,,,,,,,,,,,,,,,,,,,,,,,,,,,,,,,,,,,,,,,,,,,,,,,,,,,,,,,,,,,,,,,,,,,,,,,,,,,,,,,,,,,,,,,,,,,,,,,,,,,,,,,,,,,,,,,,,,,,,,,
,,,,,,610667edefdc1ad424021209,62c53a8af30b92daefb4e187,2022-07-06_09h37.27.006,Colour_Asymmetry_Pilot,2022.1.3,Win32,59.36832106,62c50e9c1127f2cd403a315f,0,5,5,117,1,threefour,,,,,,,,,,,,,,,,,,,,,,,,,,,,,,,,,,,,,,,,,,,,,,,,,,,,,,,,,,,,,,,,,,,,,,,,,,,,,,,,,,,,,,,,,,,,,,,,,,,,,,,,,,,,,,,,,,,,,,,,,,,,,,,,,,,,,,,,,,,,,,,,,,,,,,,,,,,,,
,,,,,,610667edefdc1ad424021209,62c53a8af30b92daefb4e187,2022-07-06_09h37.27.006,Colour_Asymmetry_Pilot,2022.1.3,Win32,59.36832106,62c50e9c1127f2cd403a315f,0,6,6,80,1,onetwo,,,,,,,,,,,,,,,,,,,,,,,,,,,,,,,,,,,,,,,,,,,,,,,,,,,,,,,,,,,,,,,,,,,,,,,,,,,,,,,,,,,,,,,,,,,,,,,,,,,,,,,,,,,,,,,,,,,,,,,,,,,,,,,,,,,,,,,,,,,,,,,,,,,,,,,,,,,,,
,,,,,,610667edefdc1ad424021209,62c53a8af30b92daefb4e187,2022-07-06_09h37.27.006,Colour_Asymmetry_Pilot,2022.1.3,Win32,59.36832106,62c50e9c1127f2cd403a315f,0,7,7,134,1,fourtwo,,,,,,,,,,,,,,,,,,,,,,,,,,,,,,,,,,,,,,,,,,,,,,,,,,,,,,,,,,,,,,,,,,,,,,,,,,,,,,,,,,,,,,,,,,,,,,,,,,,,,,,,,,,,,,,,,,,,,,,,,,,,,,,,,,,,,,,,,,,,,,,,,,,,,,,,,,,,,
,,,,,,610667edefdc1ad424021209,62c53a8af30b92daefb4e187,2022-07-06_09h37.27.006,Colour_Asymmetry_Pilot,2022.1.3,Win32,59.36832106,62c50e9c1127f2cd403a315f,0,8,8,143,1,fourthree,,,,,,,,,,,,,,,,,,,,,,,,,,,,,,,,,,,,,,,,,,,,,,,,,,,,,,,,,,,,,,,,,,,,,,,,,,,,,,,,,,,,,,,,,,,,,,,,,,,,,,,,,,,,,,,,,,,,,,,,,,,,,,,,,,,,,,,,,,,,,,,,,,,,,,,,,,,,,
,,,,,,610667edefdc1ad424021209,62c53a8af30b92daefb4e187,2022-07-06_09h37.27.006,Colour_Asymmetry_Pilot,2022.1.3,Win32,59.36832106,62c50e9c1127f2cd403a315f,0,9,9,26,1,twoone,,,,,,,,,,,,,,,,,,,,,,,,,,,,,,,,,,,,,,,,,,,,,,,,,,,,,,,,,,,,,,,,,,,,,,,,,,,,,,,,,,,,,,,,,,,,,,,,,,,,,,,,,,,,,,,,,,,,,,,,,,,,,,,,,,,,,,,,,,,,,,,,,,,,,,,,,,,,,
,,,,,,610667edefdc1ad424021209,62c53a8af30b92daefb4e187,2022-07-06_09h37.27.006,Colour_Asymmetry_Pilot,2022.1.3,Win32,59.36832106,62c50e9c1127f2cd403a315f,0,10,10,51,1,twofour,,,,,,,,,,,,,,,,,,,,,,,,,,,,,,,,,,,,,,,,,,,,,,,,,,,,,,,,,,,,,,,,,,,,,,,,,,,,,,,,,,,,,,,,,,,,,,,,,,,,,,,,,,,,,,,,,,,,,,,,,,,,,,,,,,,,,,,,,,,,,,,,,,,,,,,,,,,,,
,,,,,,610667edefdc1ad424021209,62c53a8af30b92daefb4e187,2022-07-06_09h37.27.006,Colour_Asymmetry_Pilot,2022.1.3,Win32,59.36832106,62c50e9c1127f2cd403a315f,0,11,11,106,1,twoone,,,,,,,,,,,,,,,,,,,,,,,,,,,,,,,,,,,,,,,,,,,,,,,,,,,,,,,,,,,,,,,,,,,,,,,,,,,,,,,,,,,,,,,,,,,,,,,,,,,,,,,,,,,,,,,,,,,,,,,,,,,,,,,,,,,,,,,,,,,,,,,,,,,,,,,,,,,,,
,,,,,,610667edefdc1ad424021209,62c53a8af30b92daefb4e187,2022-07-06_09h37.27.006,Colour_Asymmetry_Pilot,2022.1.3,Win32,59.36832106,62c50e9c1127f2cd403a315f,0,12,12,148,1,threeone,,,,,,,,,,,,,,,,,,,,,,,,,,,,,,,,,,,,,,,,,,,,,,,,,,,,,,,,,,,,,,,,,,,,,,,,,,,,,,,,,,,,,,,,,,,,,,,,,,,,,,,,,,,,,,,,,,,,,,,,,,,,,,,,,,,,,,,,,,,,,,,,,,,,,,,,,,,,,
,,,,,,610667edefdc1ad424021209,62c53a8af30b92daefb4e187,2022-07-06_09h37.27.006,Colour_Asymmetry_Pilot,2022.1.3,Win32,59.36832106,62c50e9c1127f2cd403a315f,0,13,13,115,1,twofour,,,,,,,,,,,,,,,,,,,,,,,,,,,,,,,,,,,,,,,,,,,,,,,,,,,,,,,,,,,,,,,,,,,,,,,,,,,,,,,,,,,,,,,,,,,,,,,,,,,,,,,,,,,,,,,,,,,,,,,,,,,,,,,,,,,,,,,,,,,,,,,,,,,,,,,,,,,,,
,,,,,,610667edefdc1ad424021209,62c53a8af30b92daefb4e187,2022-07-06_09h37.27.006,Colour_Asymmetry_Pilot,2022.1.3,Win32,59.36832106,62c50e9c1127f2cd403a315f,0,14,14,45,1,threefour,,,,,,,,,,,,,,,,,,,,,,,,,,,,,,,,,,,,,,,,,,,,,,,,,,,,,,,,,,,,,,,,,,,,,,,,,,,,,,,,,,,,,,,,,,,,,,,,,,,,,,,,,,,,,,,,,,,,,,,,,,,,,,,,,,,,,,,,,,,,,,,,,,,,,,,,,,,,,
,,,,,,610667edefdc1ad424021209,62c53a8af30b92daefb4e187,2022-07-06_09h37.27.006,Colour_Asymmetry_Pilot,2022.1.3,Win32,59.36832106,62c50e9c1127f2cd403a315f,0,15,15,32,1,onetwo,,,,,,,,,,,,,,,,,,,,,,,,,,,,,,,,,,,,,,,,,,,,,,,,,,,,,,,,,,,,,,,,,,,,,,,,,,,,,,,,,,,,,,,,,,,,,,,,,,,,,,,,,,,,,,,,,,,,,,,,,,,,,,,,,,,,,,,,,,,,,,,,,,,,,,,,,,,,,
,,,,,,610667edefdc1ad424021209,62c53a8af30b92daefb4e187,2022-07-06_09h37.27.006,Colour_Asymmetry_Pilot,2022.1.3,Win32,59.36832106,62c50e9c1127f2cd403a315f,0,16,16,65,1,onethree,,,,,,,,,,,,,,,,,,,,,,,,,,,,,,,,,,,,,,,,,,,,,,,,,,,,,,,,,,,,,,,,,,,,,,,,,,,,,,,,,,,,,,,,,,,,,,,,,,,,,,,,,,,,,,,,,,,,,,,,,,,,,,,,,,,,,,,,,,,,,,,,,,,,,,,,,,,,,
,,,,,,610667edefdc1ad424021209,62c53a8af30b92daefb4e187,2022-07-06_09h37.27.006,Colour_Asymmetry_Pilot,2022.1.3,Win32,59.36832106,62c50e9c1127f2cd403a315f,0,17,17,159,1,fourthree,,,,,,,,,,,,,,,,,,,,,,,,,,,,,,,,,,,,,,,,,,,,,,,,,,,,,,,,,,,,,,,,,,,,,,,,,,,,,,,,,,,,,,,,,,,,,,,,,,,,,,,,,,,,,,,,,,,,,,,,,,,,,,,,,,,,,,,,,,,,,,,,,,,,,,,,,,,,,
,,,,,,610667edefdc1ad424021209,62c53a8af30b92daefb4e187,2022-07-06_09h37.27.006,Colour_Asymmetry_Pilot,2022.1.3,Win32,59.36832106,62c50e9c1127f2cd403a315f,0,18,18,122,1,twoone,,,,,,,,,,,,,,,,,,,,,,,,,,,,,,,,,,,,,,,,,,,,,,,,,,,,,,,,,,,,,,,,,,,,,,,,,,,,,,,,,,,,,,,,,,,,,,,,,,,,,,,,,,,,,,,,,,,,,,,,,,,,,,,,,,,,,,,,,,,,,,,,,,,,,,,,,,,,,
,,,,,,610667edefdc1ad424021209,62c53a8af30b92daefb4e187,2022-07-06_09h37.27.006,Colour_Asymmetry_Pilot,2022.1.3,Win32,59.36832106,62c50e9c1127f2cd403a315f,0,19,19,33,1,onethree,,,,,,,,,,,,,,,,,,,,,,,,,,,,,,,,,,,,,,,,,,,,,,,,,,,,,,,,,,,,,,,,,,,,,,,,,,,,,,,,,,,,,,,,,,,,,,,,,,,,,,,,,,,,,,,,,,,,,,,,,,,,,,,,,,,,,,,,,,,,,,,,,,,,,,,,,,,,,
,,,,,,610667edefdc1ad424021209,62c53a8af30b92daefb4e187,2022-07-06_09h37.27.006,Colour_Asymmetry_Pilot,2022.1.3,Win32,59.36832106,62c50e9c1127f2cd403a315f,0,20,20,30,1,fourtwo,,,,,,,,,,,,,,,,,,,,,,,,,,,,,,,,,,,,,,,,,,,,,,,,,,,,,,,,,,,,,,,,,,,,,,,,,,,,,,,,,,,,,,,,,,,,,,,,,,,,,,,,,,,,,,,,,,,,,,,,,,,,,,,,,,,,,,,,,,,,,,,,,,,,,,,,,,,,,
,,,,,,610667edefdc1ad424021209,62c53a8af30b92daefb4e187,2022-07-06_09h37.27.006,Colour_Asymmetry_Pilot,2022.1.3,Win32,59.36832106,62c50e9c1127f2cd403a315f,0,21,21,107,1,twofour,,,,,,,,,,,,,,,,,,,,,,,,,,,,,,,,,,,,,,,,,,,,,,,,,,,,,,,,,,,,,,,,,,,,,,,,,,,,,,,,,,,,,,,,,,,,,,,,,,,,,,,,,,,,,,,,,,,,,,,,,,,,,,,,,,,,,,,,,,,,,,,,,,,,,,,,,,,,,
,,,,,,610667edefdc1ad424021209,62c53a8af30b92daefb4e187,2022-07-06_09h37.27.006,Colour_Asymmetry_Pilot,2022.1.3,Win32,59.36832106,62c50e9c1127f2cd403a315f,0,22,22,142,1,fourtwo,,,,,,,,,,,,,,,,,,,,,,,,,,,,,,,,,,,,,,,,,,,,,,,,,,,,,,,,,,,,,,,,,,,,,,,,,,,,,,,,,,,,,,,,,,,,,,,,,,,,,,,,,,,,,,,,,,,,,,,,,,,,,,,,,,,,,,,,,,,,,,,,,,,,,,,,,,,,,
,,,,,,610667edefdc1ad424021209,62c53a8af30b92daefb4e187,2022-07-06_09h37.27.006,Colour_Asymmetry_Pilot,2022.1.3,Win32,59.36832106,62c50e9c1127f2cd403a315f,0,23,23,97,1,onethree,,,,,,,,,,,,,,,,,,,,,,,,,,,,,,,,,,,,,,,,,,,,,,,,,,,,,,,,,,,,,,,,,,,,,,,,,,,,,,,,,,,,,,,,,,,,,,,,,,,,,,,,,,,,,,,,,,,,,,,,,,,,,,,,,,,,,,,,,,,,,,,,,,,,,,,,,,,,,
,,,,,,610667edefdc1ad424021209,62c53a8af30b92daefb4e187,2022-07-06_09h37.27.006,Colour_Asymmetry_Pilot,2022.1.3,Win32,59.36832106,62c50e9c1127f2cd403a315f,0,24,24,102,1,fourtwo,,,,,,,,,,,,,,,,,,,,,,,,,,,,,,,,,,,,,,,,,,,,,,,,,,,,,,,,,,,,,,,,,,,,,,,,,,,,,,,,,,,,,,,,,,,,,,,,,,,,,,,,,,,,,,,,,,,,,,,,,,,,,,,,,,,,,,,,,,,,,,,,,,,,,,,,,,,,,
,,,,,,610667edefdc1ad424021209,62c53a8af30b92daefb4e187,2022-07-06_09h37.27.006,Colour_Asymmetry_Pilot,2022.1.3,Win32,59.36832106,62c50e9c1127f2cd403a315f,0,25,25,147,1,twofour,,,,,,,,,,,,,,,,,,,,,,,,,,,,,,,,,,,,,,,,,,,,,,,,,,,,,,,,,,,,,,,,,,,,,,,,,,,,,,,,,,,,,,,,,,,,,,,,,,,,,,,,,,,,,,,,,,,,,,,,,,,,,,,,,,,,,,,,,,,,,,,,,,,,,,,,,,,,,
,,,,,,610667edefdc1ad424021209,62c53a8af30b92daefb4e187,2022-07-06_09h37.27.006,Colour_Asymmetry_Pilot,2022.1.3,Win32,59.36832106,62c50e9c1127f2cd403a315f,0,26,26,94,1,fourtwo,,,,,,,,,,,,,,,,,,,,,,,,,,,,,,,,,,,,,,,,,,,,,,,,,,,,,,,,,,,,,,,,,,,,,,,,,,,,,,,,,,,,,,,,,,,,,,,,,,,,,,,,,,,,,,,,,,,,,,,,,,,,,,,,,,,,,,,,,,,,,,,,,,,,,,,,,,,,,
,,,,,,610667edefdc1ad424021209,62c53a8af30b92daefb4e187,2022-07-06_09h37.27.006,Colour_Asymmetry_Pilot,2022.1.3,Win32,59.36832106,62c50e9c1127f2cd403a315f,0,27,27,34,1,twoone,,,,,,,,,,,,,,,,,,,,,,,,,,,,,,,,,,,,,,,,,,,,,,,,,,,,,,,,,,,,,,,,,,,,,,,,,,,,,,,,,,,,,,,,,,,,,,,,,,,,,,,,,,,,,,,,,,,,,,,,,,,,,,,,,,,,,,,,,,,,,,,,,,,,,,,,,,,,,
,,,,,,610667edefdc1ad424021209,62c53a8af30b92daefb4e187,2022-07-06_09h37.27.006,Colour_Asymmetry_Pilot,2022.1.3,Win32,59.36832106,62c50e9c1127f2cd403a315f,0,28,28,135,1,fourthree,,,,,,,,,,,,,,,,,,,,,,,,,,,,,,,,,,,,,,,,,,,,,,,,,,,,,,,,,,,,,,,,,,,,,,,,,,,,,,,,,,,,,,,,,,,,,,,,,,,,,,,,,,,,,,,,,,,,,,,,,,,,,,,,,,,,,,,,,,,,,,,,,,,,,,,,,,,,,
,,,,,,610667edefdc1ad424021209,62c53a8af30b92daefb4e187,2022-07-06_09h37.27.006,Colour_Asymmetry_Pilot,2022.1.3,Win32,59.36832106,62c50e9c1127f2cd403a315f,0,29,29,69,1,threefour,,,,,,,,,,,,,,,,,,,,,,,,,,,,,,,,,,,,,,,,,,,,,,,,,,,,,,,,,,,,,,,,,,,,,,,,,,,,,,,,,,,,,,,,,,,,,,,,,,,,,,,,,,,,,,,,,,,,,,,,,,,,,,,,,,,,,,,,,,,,,,,,,,,,,,,,,,,,,
,,,,,,610667edefdc1ad424021209,62c53a8af30b92daefb4e187,2022-07-06_09h37.27.006,Colour_Asymmetry_Pilot,2022.1.3,Win32,59.36832106,62c50e9c1127f2cd403a315f,0,30,30,12,1,threeone,,,,,,,,,,,,,,,,,,,,,,,,,,,,,,,,,,,,,,,,,,,,,,,,,,,,,,,,,,,,,,,,,,,,,,,,,,,,,,,,,,,,,,,,,,,,,,,,,,,,,,,,,,,,,,,,,,,,,,,,,,,,,,,,,,,,,,,,,,,,,,,,,,,,,,,,,,,,,
,,,,,,610667edefdc1ad424021209,62c53a8af30b92daefb4e187,2022-07-06_09h37.27.006,Colour_Asymmetry_Pilot,2022.1.3,Win32,59.36832106,62c50e9c1127f2cd403a315f,0,31,31,6,1,fourtwo,,,,,,,,,,,,,,,,,,,,,,,,,,,,,,,,,,,,,,,,,,,,,,,,,,,,,,,,,,,,,,,,,,,,,,,,,,,,,,,,,,,,,,,,,,,,,,,,,,,,,,,,,,,,,,,,,,,,,,,,,,,,,,,,,,,,,,,,,,,,,,,,,,,,,,,,,,,,,
,,,,,,610667edefdc1ad424021209,62c53a8af30b92daefb4e187,2022-07-06_09h37.27.006,Colour_Asymmetry_Pilot,2022.1.3,Win32,59.36832106,62c50e9c1127f2cd403a315f,0,32,32,77,1,threefour,,,,,,,,,,,,,,,,,,,,,,,,,,,,,,,,,,,,,,,,,,,,,,,,,,,,,,,,,,,,,,,,,,,,,,,,,,,,,,,,,,,,,,,,,,,,,,,,,,,,,,,,,,,,,,,,,,,,,,,,,,,,,,,,,,,,,,,,,,,,,,,,,,,,,,,,,,,,,
,,,,,,610667edefdc1ad424021209,62c53a8af30b92daefb4e187,2022-07-06_09h37.27.006,Colour_Asymmetry_Pilot,2022.1.3,Win32,59.36832106,62c50e9c1127f2cd403a315f,0,33,33,68,1,threeone,,,,,,,,,,,,,,,,,,,,,,,,,,,,,,,,,,,,,,,,,,,,,,,,,,,,,,,,,,,,,,,,,,,,,,,,,,,,,,,,,,,,,,,,,,,,,,,,,,,,,,,,,,,,,,,,,,,,,,,,,,,,,,,,,,,,,,,,,,,,,,,,,,,,,,,,,,,,,
,,,,,,610667edefdc1ad424021209,62c53a8af30b92daefb4e187,2022-07-06_09h37.27.006,Colour_Asymmetry_Pilot,2022.1.3,Win32,59.36832106,62c50e9c1127f2cd403a315f,0,34,34,118,1,fourtwo,,,,,,,,,,,,,,,,,,,,,,,,,,,,,,,,,,,,,,,,,,,,,,,,,,,,,,,,,,,,,,,,,,,,,,,,,,,,,,,,,,,,,,,,,,,,,,,,,,,,,,,,,,,,,,,,,,,,,,,,,,,,,,,,,,,,,,,,,,,,,,,,,,,,,,,,,,,,,
,,,,,,610667edefdc1ad424021209,62c53a8af30b92daefb4e187,2022-07-06_09h37.27.006,Colour_Asymmetry_Pilot,2022.1.3,Win32,59.36832106,62c50e9c1127f2cd403a315f,0,35,35,87,1,fourthree,,,,,,,,,,,,,,,,,,,,,,,,,,,,,,,,,,,,,,,,,,,,,,,,,,,,,,,,,,,,,,,,,,,,,,,,,,,,,,,,,,,,,,,,,,,,,,,,,,,,,,,,,,,,,,,,,,,,,,,,,,,,,,,,,,,,,,,,,,,,,,,,,,,,,,,,,,,,,
,,,,,,610667edefdc1ad424021209,62c53a8af30b92daefb4e187,2022-07-06_09h37.27.006,Colour_Asymmetry_Pilot,2022.1.3,Win32,59.36832106,62c50e9c1127f2cd403a315f,0,36,36,62,1,fourtwo,,,,,,,,,,,,,,,,,,,,,,,,,,,,,,,,,,,,,,,,,,,,,,,,,,,,,,,,,,,,,,,,,,,,,,,,,,,,,,,,,,,,,,,,,,,,,,,,,,,,,,,,,,,,,,,,,,,,,,,,,,,,,,,,,,,,,,,,,,,,,,,,,,,,,,,,,,,,,
,,,,,,610667edefdc1ad424021209,62c53a8af30b92daefb4e187,2022-07-06_09h37.27.006,Colour_Asymmetry_Pilot,2022.1.3,Win32,59.36832106,62c50e9c1127f2cd403a315f,0,37,37,14,1,fourtwo,,,,,,,,,,,,,,,,,,,,,,,,,,,,,,,,,,,,,,,,,,,,,,,,,,,,,,,,,,,,,,,,,,,,,,,,,,,,,,,,,,,,,,,,,,,,,,,,,,,,,,,,,,,,,,,,,,,,,,,,,,,,,,,,,,,,,,,,,,,,,,,,,,,,,,,,,,,,,
,,,,,,610667edefdc1ad424021209,62c53a8af30b92daefb4e187,2022-07-06_09h37.27.006,Colour_Asymmetry_Pilot,2022.1.3,Win32,59.36832106,62c50e9c1127f2cd403a315f,0,38,38,114,1,twoone,,,,,,,,,,,,,,,,,,,,,,,,,,,,,,,,,,,,,,,,,,,,,,,,,,,,,,,,,,,,,,,,,,,,,,,,,,,,,,,,,,,,,,,,,,,,,,,,,,,,,,,,,,,,,,,,,,,,,,,,,,,,,,,,,,,,,,,,,,,,,,,,,,,,,,,,,,,,,
,,,,,,610667edefdc1ad424021209,62c53a8af30b92daefb4e187,2022-07-06_09h37.27.006,Colour_Asymmetry_Pilot,2022.1.3,Win32,59.36832106,62c50e9c1127f2cd403a315f,0,39,39,24,1,onetwo,,,,,,,,,,,,,,,,,,,,,,,,,,,,,,,,,,,,,,,,,,,,,,,,,,,,,,,,,,,,,,,,,,,,,,,,,,,,,,,,,,,,,,,,,,,,,,,,,,,,,,,,,,,,,,,,,,,,,,,,,,,,,,,,,,,,,,,,,,,,,,,,,,,,,,,,,,,,,
,,,,,,610667edefdc1ad424021209,62c53a8af30b92daefb4e187,2022-07-06_09h37.27.006,Colour_Asymmetry_Pilot,2022.1.3,Win32,59.36832106,62c50e9c1127f2cd403a315f,0,40,40,23,1,fourthree,,,,,,,,,,,,,,,,,,,,,,,,,,,,,,,,,,,,,,,,,,,,,,,,,,,,,,,,,,,,,,,,,,,,,,,,,,,,,,,,,,,,,,,,,,,,,,,,,,,,,,,,,,,,,,,,,,,,,,,,,,,,,,,,,,,,,,,,,,,,,,,,,,,,,,,,,,,,,
,,,,,,610667edefdc1ad424021209,62c53a8af30b92daefb4e187,2022-07-06_09h37.27.006,Colour_Asymmetry_Pilot,2022.1.3,Win32,59.36832106,62c50e9c1127f2cd403a315f,0,41,41,10,1,twoone,,,,,,,,,,,,,,,,,,,,,,,,,,,,,,,,,,,,,,,,,,,,,,,,,,,,,,,,,,,,,,,,,,,,,,,,,,,,,,,,,,,,,,,,,,,,,,,,,,,,,,,,,,,,,,,,,,,,,,,,,,,,,,,,,,,,,,,,,,,,,,,,,,,,,,,,,,,,,
,,,,,,610667edefdc1ad424021209,62c53a8af30b92daefb4e187,2022-07-06_09h37.27.006,Colour_Asymmetry_Pilot,2022.1.3,Win32,59.36832106,62c50e9c1127f2cd403a315f,0,42,42,101,1,threefour,,,,,,,,,,,,,,,,,,,,,,,,,,,,,,,,,,,,,,,,,,,,,,,,,,,,,,,,,,,,,,,,,,,,,,,,,,,,,,,,,,,,,,,,,,,,,,,,,,,,,,,,,,,,,,,,,,,,,,,,,,,,,,,,,,,,,,,,,,,,,,,,,,,,,,,,,,,,,
,,,,,,610667edefdc1ad424021209,62c53a8af30b92daefb4e187,2022-07-06_09h37.27.006,Colour_Asymmetry_Pilot,2022.1.3,Win32,59.36832106,62c50e9c1127f2cd403a315f,0,43,43,79,1,fourthree,,,,,,,,,,,,,,,,,,,,,,,,,,,,,,,,,,,,,,,,,,,,,,,,,,,,,,,,,,,,,,,,,,,,,,,,,,,,,,,,,,,,,,,,,,,,,,,,,,,,,,,,,,,,,,,,,,,,,,,,,,,,,,,,,,,,,,,,,,,,,,,,,,,,,,,,,,,,,
,,,,,,610667edefdc1ad424021209,62c53a8af30b92daefb4e187,2022-07-06_09h37.27.006,Colour_Asymmetry_Pilot,2022.1.3,Win32,59.36832106,62c50e9c1127f2cd403a315f,0,44,44,124,1,threeone,,,,,,,,,,,,,,,,,,,,,,,,,,,,,,,,,,,,,,,,,,,,,,,,,,,,,,,,,,,,,,,,,,,,,,,,,,,,,,,,,,,,,,,,,,,,,,,,,,,,,,,,,,,,,,,,,,,,,,,,,,,,,,,,,,,,,,,,,,,,,,,,,,,,,,,,,,,,,
,,,,,,610667edefdc1ad424021209,62c53a8af30b92daefb4e187,2022-07-06_09h37.27.006,Colour_Asymmetry_Pilot,2022.1.3,Win32,59.36832106,62c50e9c1127f2cd403a315f,0,45,45,55,1,fourthree,,,,,,,,,,,,,,,,,,,,,,,,,,,,,,,,,,,,,,,,,,,,,,,,,,,,,,,,,,,,,,,,,,,,,,,,,,,,,,,,,,,,,,,,,,,,,,,,,,,,,,,,,,,,,,,,,,,,,,,,,,,,,,,,,,,,,,,,,,,,,,,,,,,,,,,,,,,,,
,,,,,,610667edefdc1ad424021209,62c53a8af30b92daefb4e187,2022-07-06_09h37.27.006,Colour_Asymmetry_Pilot,2022.1.3,Win32,59.36832106,62c50e9c1127f2cd403a315f,0,46,46,27,1,twofour,,,,,,,,,,,,,,,,,,,,,,,,,,,,,,,,,,,,,,,,,,,,,,,,,,,,,,,,,,,,,,,,,,,,,,,,,,,,,,,,,,,,,,,,,,,,,,,,,,,,,,,,,,,,,,,,,,,,,,,,,,,,,,,,,,,,,,,,,,,,,,,,,,,,,,,,,,,,,
,,,,,,610667edefdc1ad424021209,62c53a8af30b92daefb4e187,2022-07-06_09h37.27.006,Colour_Asymmetry_Pilot,2022.1.3,Win32,59.36832106,62c50e9c1127f2cd403a315f,0,47,47,132,1,threeone,,,,,,,,,,,,,,,,,,,,,,,,,,,,,,,,,,,,,,,,,,,,,,,,,,,,,,,,,,,,,,,,,,,,,,,,,,,,,,,,,,,,,,,,,,,,,,,,,,,,,,,,,,,,,,,,,,,,,,,,,,,,,,,,,,,,,,,,,,,,,,,,,,,,,,,,,,,,,
,,,,,,610667edefdc1ad424021209,62c53a8af30b92daefb4e187,2022-07-06_09h37.27.006,Colour_Asymmetry_Pilot,2022.1.3,Win32,59.36832106,62c50e9c1127f2cd403a315f,0,48,48,125,1,threefour,,,,,,,,,,,,,,,,,,,,,,,,,,,,,,,,,,,,,,,,,,,,,,,,,,,,,,,,,,,,,,,,,,,,,,,,,,,,,,,,,,,,,,,,,,,,,,,,,,,,,,,,,,,,,,,,,,,,,,,,,,,,,,,,,,,,,,,,,,,,,,,,,,,,,,,,,,,,,
,,,,,,610667edefdc1ad424021209,62c53a8af30b92daefb4e187,2022-07-06_09h37.27.006,Colour_Asymmetry_Pilot,2022.1.3,Win32,59.36832106,62c50e9c1127f2cd403a315f,0,49,49,84,1,threeone,,,,,,,,,,,,,,,,,,,,,,,,,,,,,,,,,,,,,,,,,,,,,,,,,,,,,,,,,,,,,,,,,,,,,,,,,,,,,,,,,,,,,,,,,,,,,,,,,,,,,,,,,,,,,,,,,,,,,,,,,,,,,,,,,,,,,,,,,,,,,,,,,,,,,,,,,,,,,
,,,,,,610667edefdc1ad424021209,62c53a8af30b92daefb4e187,2022-07-06_09h37.27.006,Colour_Asymmetry_Pilot,2022.1.3,Win32,59.36832106,62c50e9c1127f2cd403a315f,0,50,50,46,1,fourtwo,,,,,,,,,,,,,,,,,,,,,,,,,,,,,,,,,,,,,,,,,,,,,,,,,,,,,,,,,,,,,,,,,,,,,,,,,,,,,,,,,,,,,,,,,,,,,,,,,,,,,,,,,,,,,,,,,,,,,,,,,,,,,,,,,,,,,,,,,,,,,,,,,,,,,,,,,,,,,
,,,,,,610667edefdc1ad424021209,62c53a8af30b92daefb4e187,2022-07-06_09h37.27.006,Colour_Asymmetry_Pilot,2022.1.3,Win32,59.36832106,62c50e9c1127f2cd403a315f,0,51,51,78,1,fourtwo,,,,,,,,,,,,,,,,,,,,,,,,,,,,,,,,,,,,,,,,,,,,,,,,,,,,,,,,,,,,,,,,,,,,,,,,,,,,,,,,,,,,,,,,,,,,,,,,,,,,,,,,,,,,,,,,,,,,,,,,,,,,,,,,,,,,,,,,,,,,,,,,,,,,,,,,,,,,,
,,,,,,610667edefdc1ad424021209,62c53a8af30b92daefb4e187,2022-07-06_09h37.27.006,Colour_Asymmetry_Pilot,2022.1.3,Win32,59.36832106,62c50e9c1127f2cd403a315f,0,52,52,138,1,twoone,,,,,,,,,,,,,,,,,,,,,,,,,,,,,,,,,,,,,,,,,,,,,,,,,,,,,,,,,,,,,,,,,,,,,,,,,,,,,,,,,,,,,,,,,,,,,,,,,,,,,,,,,,,,,,,,,,,,,,,,,,,,,,,,,,,,,,,,,,,,,,,,,,,,,,,,,,,,,
,,,,,,610667edefdc1ad424021209,62c53a8af30b92daefb4e187,2022-07-06_09h37.27.006,Colour_Asymmetry_Pilot,2022.1.3,Win32,59.36832106,62c50e9c1127f2cd403a315f,0,53,53,108,1,threeone,,,,,,,,,,,,,,,,,,,,,,,,,,,,,,,,,,,,,,,,,,,,,,,,,,,,,,,,,,,,,,,,,,,,,,,,,,,,,,,,,,,,,,,,,,,,,,,,,,,,,,,,,,,,,,,,,,,,,,,,,,,,,,,,,,,,,,,,,,,,,,,,,,,,,,,,,,,,,
,,,,,,610667edefdc1ad424021209,62c53a8af30b92daefb4e187,2022-07-06_09h37.27.006,Colour_Asymmetry_Pilot,2022.1.3,Win32,59.36832106,62c50e9c1127f2cd403a315f,0,54,54,104,1,onetwo,,,,,,,,,,,,,,,,,,,,,,,,,,,,,,,,,,,,,,,,,,,,,,,,,,,,,,,,,,,,,,,,,,,,,,,,,,,,,,,,,,,,,,,,,,,,,,,,,,,,,,,,,,,,,,,,,,,,,,,,,,,,,,,,,,,,,,,,,,,,,,,,,,,,,,,,,,,,,
,,,,,,610667edefdc1ad424021209,62c53a8af30b92daefb4e187,2022-07-06_09h37.27.006,Colour_Asymmetry_Pilot,2022.1.3,Win32,59.36832106,62c50e9c1127f2cd403a315f,0,55,55,59,1,twofour,,,,,,,,,,,,,,,,,,,,,,,,,,,,,,,,,,,,,,,,,,,,,,,,,,,,,,,,,,,,,,,,,,,,,,,,,,,,,,,,,,,,,,,,,,,,,,,,,,,,,,,,,,,,,,,,,,,,,,,,,,,,,,,,,,,,,,,,,,,,,,,,,,,,,,,,,,,,,
,,,,,,610667edefdc1ad424021209,62c53a8af30b92daefb4e187,2022-07-06_09h37.27.006,Colour_Asymmetry_Pilot,2022.1.3,Win32,59.36832106,62c50e9c1127f2cd403a315f,0,56,56,25,1,onethree,,,,,,,,,,,,,,,,,,,,,,,,,,,,,,,,,,,,,,,,,,,,,,,,,,,,,,,,,,,,,,,,,,,,,,,,,,,,,,,,,,,,,,,,,,,,,,,,,,,,,,,,,,,,,,,,,,,,,,,,,,,,,,,,,,,,,,,,,,,,,,,,,,,,,,,,,,,,,
,,,,,,610667edefdc1ad424021209,62c53a8af30b92daefb4e187,2022-07-06_09h37.27.006,Colour_Asymmetry_Pilot,2022.1.3,Win32,59.36832106,62c50e9c1127f2cd403a315f,0,57,57,82,1,twoone,,,,,,,,,,,,,,,,,,,,,,,,,,,,,,,,,,,,,,,,,,,,,,,,,,,,,,,,,,,,,,,,,,,,,,,,,,,,,,,,,,,,,,,,,,,,,,,,,,,,,,,,,,,,,,,,,,,,,,,,,,,,,,,,,,,,,,,,,,,,,,,,,,,,,,,,,,,,,
,,,,,,610667edefdc1ad424021209,62c53a8af30b92daefb4e187,2022-07-06_09h37.27.006,Colour_Asymmetry_Pilot,2022.1.3,Win32,59.36832106,62c50e9c1127f2cd403a315f,0,58,58,93,1,threefour,,,,,,,,,,,,,,,,,,,,,,,,,,,,,,,,,,,,,,,,,,,,,,,,,,,,,,,,,,,,,,,,,,,,,,,,,,,,,,,,,,,,,,,,,,,,,,,,,,,,,,,,,,,,,,,,,,,,,,,,,,,,,,,,,,,,,,,,,,,,,,,,,,,,,,,,,,,,,
,,,,,,610667edefdc1ad424021209,62c53a8af30b92daefb4e187,2022-07-06_09h37.27.006,Colour_Asymmetry_Pilot,2022.1.3,Win32,59.36832106,62c50e9c1127f2cd403a315f,0,59,59,130,1,twoone,,,,,,,,,,,,,,,,,,,,,,,,,,,,,,,,,,,,,,,,,,,,,,,,,,,,,,,,,,,,,,,,,,,,,,,,,,,,,,,,,,,,,,,,,,,,,,,,,,,,,,,,,,,,,,,,,,,,,,,,,,,,,,,,,,,,,,,,,,,,,,,,,,,,,,,,,,,,,
,,,,,,610667edefdc1ad424021209,62c53a8af30b92daefb4e187,2022-07-06_09h37.27.006,Colour_Asymmetry_Pilot,2022.1.3,Win32,59.36832106,62c50e9c1127f2cd403a315f,0,60,60,105,1,onethree,,,,,,,,,,,,,,,,,,,,,,,,,,,,,,,,,,,,,,,,,,,,,,,,,,,,,,,,,,,,,,,,,,,,,,,,,,,,,,,,,,,,,,,,,,,,,,,,,,,,,,,,,,,,,,,,,,,,,,,,,,,,,,,,,,,,,,,,,,,,,,,,,,,,,,,,,,,,,
,,,,,,610667edefdc1ad424021209,62c53a8af30b92daefb4e187,2022-07-06_09h37.27.006,Colour_Asymmetry_Pilot,2022.1.3,Win32,59.36832106,62c50e9c1127f2cd403a315f,0,61,61,54,1,fourtwo,,,,,,,,,,,,,,,,,,,,,,,,,,,,,,,,,,,,,,,,,,,,,,,,,,,,,,,,,,,,,,,,,,,,,,,,,,,,,,,,,,,,,,,,,,,,,,,,,,,,,,,,,,,,,,,,,,,,,,,,,,,,,,,,,,,,,,,,,,,,,,,,,,,,,,,,,,,,,
,,,,,,610667edefdc1ad424021209,62c53a8af30b92daefb4e187,2022-07-06_09h37.27.006,Colour_Asymmetry_Pilot,2022.1.3,Win32,59.36832106,62c50e9c1127f2cd403a315f,0,62,62,7,1,fourthree,,,,,,,,,,,,,,,,,,,,,,,,,,,,,,,,,,,,,,,,,,,,,,,,,,,,,,,,,,,,,,,,,,,,,,,,,,,,,,,,,,,,,,,,,,,,,,,,,,,,,,,,,,,,,,,,,,,,,,,,,,,,,,,,,,,,,,,,,,,,,,,,,,,,,,,,,,,,,
,,,,,,610667edefdc1ad424021209,62c53a8af30b92daefb4e187,2022-07-06_09h37.27.006,Colour_Asymmetry_Pilot,2022.1.3,Win32,59.36832106,62c50e9c1127f2cd403a315f,0,63,63,40,1,onetwo,,,,,,,,,,,,,,,,,,,,,,,,,,,,,,,,,,,,,,,,,,,,,,,,,,,,,,,,,,,,,,,,,,,,,,,,,,,,,,,,,,,,,,,,,,,,,,,,,,,,,,,,,,,,,,,,,,,,,,,,,,,,,,,,,,,,,,,,,,,,,,,,,,,,,,,,,,,,,
,,,,,,610667edefdc1ad424021209,62c53a8af30b92daefb4e187,2022-07-06_09h37.27.006,Colour_Asymmetry_Pilot,2022.1.3,Win32,59.36832106,62c50e9c1127f2cd403a315f,0,64,64,146,1,twoone,,,,,,,,,,,,,,,,,,,,,,,,,,,,,,,,,,,,,,,,,,,,,,,,,,,,,,,,,,,,,,,,,,,,,,,,,,,,,,,,,,,,,,,,,,,,,,,,,,,,,,,,,,,,,,,,,,,,,,,,,,,,,,,,,,,,,,,,,,,,,,,,,,,,,,,,,,,,,
,,,,,,610667edefdc1ad424021209,62c53a8af30b92daefb4e187,2022-07-06_09h37.27.006,Colour_Asymmetry_Pilot,2022.1.3,Win32,59.36832106,62c50e9c1127f2cd403a315f,0,65,65,89,1,onethree,,,,,,,,,,,,,,,,,,,,,,,,,,,,,,,,,,,,,,,,,,,,,,,,,,,,,,,,,,,,,,,,,,,,,,,,,,,,,,,,,,,,,,,,,,,,,,,,,,,,,,,,,,,,,,,,,,,,,,,,,,,,,,,,,,,,,,,,,,,,,,,,,,,,,,,,,,,,,
,,,,,,610667edefdc1ad424021209,62c53a8af30b92daefb4e187,2022-07-06_09h37.27.006,Colour_Asymmetry_Pilot,2022.1.3,Win32,59.36832106,62c50e9c1127f2cd403a315f,0,66,66,48,1,onetwo,,,,,,,,,,,,,,,,,,,,,,,,,,,,,,,,,,,,,,,,,,,,,,,,,,,,,,,,,,,,,,,,,,,,,,,,,,,,,,,,,,,,,,,,,,,,,,,,,,,,,,,,,,,,,,,,,,,,,,,,,,,,,,,,,,,,,,,,,,,,,,,,,,,,,,,,,,,,,
,,,,,,610667edefdc1ad424021209,62c53a8af30b92daefb4e187,2022-07-06_09h37.27.006,Colour_Asymmetry_Pilot,2022.1.3,Win32,59.36832106,62c50e9c1127f2cd403a315f,0,67,67,60,1,threeone,,,,,,,,,,,,,,,,,,,,,,,,,,,,,,,,,,,,,,,,,,,,,,,,,,,,,,,,,,,,,,,,,,,,,,,,,,,,,,,,,,,,,,,,,,,,,,,,,,,,,,,,,,,,,,,,,,,,,,,,,,,,,,,,,,,,,,,,,,,,,,,,,,,,,,,,,,,,,
,,,,,,610667edefdc1ad424021209,62c53a8af30b92daefb4e187,2022-07-06_09h37.27.006,Colour_Asymmetry_Pilot,2022.1.3,Win32,59.36832106,62c50e9c1127f2cd403a315f,0,68,68,151,1,fourthree,,,,,,,,,,,,,,,,,,,,,,,,,,,,,,,,,,,,,,,,,,,,,,,,,,,,,,,,,,,,,,,,,,,,,,,,,,,,,,,,,,,,,,,,,,,,,,,,,,,,,,,,,,,,,,,,,,,,,,,,,,,,,,,,,,,,,,,,,,,,,,,,,,,,,,,,,,,,,
,,,,,,610667edefdc1ad424021209,62c53a8af30b92daefb4e187,2022-07-06_09h37.27.006,Colour_Asymmetry_Pilot,2022.1.3,Win32,59.36832106,62c50e9c1127f2cd403a315f,0,69,69,157,1,threefour,,,,,,,,,,,,,,,,,,,,,,,,,,,,,,,,,,,,,,,,,,,,,,,,,,,,,,,,,,,,,,,,,,,,,,,,,,,,,,,,,,,,,,,,,,,,,,,,,,,,,,,,,,,,,,,,,,,,,,,,,,,,,,,,,,,,,,,,,,,,,,,,,,,,,,,,,,,,,
,,,,,,610667edefdc1ad424021209,62c53a8af30b92daefb4e187,2022-07-06_09h37.27.006,Colour_Asymmetry_Pilot,2022.1.3,Win32,59.36832106,62c50e9c1127f2cd403a315f,0,70,70,70,1,fourtwo,,,,,,,,,,,,,,,,,,,,,,,,,,,,,,,,,,,,,,,,,,,,,,,,,,,,,,,,,,,,,,,,,,,,,,,,,,,,,,,,,,,,,,,,,,,,,,,,,,,,,,,,,,,,,,,,,,,,,,,,,,,,,,,,,,,,,,,,,,,,,,,,,,,,,,,,,,,,,
,,,,,,610667edefdc1ad424021209,62c53a8af30b92daefb4e187,2022-07-06_09h37.27.006,Colour_Asymmetry_Pilot,2022.1.3,Win32,59.36832106,62c50e9c1127f2cd403a315f,0,71,71,99,1,twofour,,,,,,,,,,,,,,,,,,,,,,,,,,,,,,,,,,,,,,,,,,,,,,,,,,,,,,,,,,,,,,,,,,,,,,,,,,,,,,,,,,,,,,,,,,,,,,,,,,,,,,,,,,,,,,,,,,,,,,,,,,,,,,,,,,,,,,,,,,,,,,,,,,,,,,,,,,,,,
,,,,,,610667edefdc1ad424021209,62c53a8af30b92daefb4e187,2022-07-06_09h37.27.006,Colour_Asymmetry_Pilot,2022.1.3,Win32,59.36832106,62c50e9c1127f2cd403a315f,0,72,72,41,1,onethree,,,,,,,,,,,,,,,,,,,,,,,,,,,,,,,,,,,,,,,,,,,,,,,,,,,,,,,,,,,,,,,,,,,,,,,,,,,,,,,,,,,,,,,,,,,,,,,,,,,,,,,,,,,,,,,,,,,,,,,,,,,,,,,,,,,,,,,,,,,,,,,,,,,,,,,,,,,,,
,,,,,,610667edefdc1ad424021209,62c53a8af30b92daefb4e187,2022-07-06_09h37.27.006,Colour_Asymmetry_Pilot,2022.1.3,Win32,59.36832106,62c50e9c1127f2cd403a315f,0,73,73,149,1,threefour,,,,,,,,,,,,,,,,,,,,,,,,,,,,,,,,,,,,,,,,,,,,,,,,,,,,,,,,,,,,,,,,,,,,,,,,,,,,,,,,,,,,,,,,,,,,,,,,,,,,,,,,,,,,,,,,,,,,,,,,,,,,,,,,,,,,,,,,,,,,,,,,,,,,,,,,,,,,,
,,,,,,610667edefdc1ad424021209,62c53a8af30b92daefb4e187,2022-07-06_09h37.27.006,Colour_Asymmetry_Pilot,2022.1.3,Win32,59.36832106,62c50e9c1127f2cd403a315f,0,74,74,91,1,twofour,,,,,,,,,,,,,,,,,,,,,,,,,,,,,,,,,,,,,,,,,,,,,,,,,,,,,,,,,,,,,,,,,,,,,,,,,,,,,,,,,,,,,,,,,,,,,,,,,,,,,,,,,,,,,,,,,,,,,,,,,,,,,,,,,,,,,,,,,,,,,,,,,,,,,,,,,,,,,
,,,,,,610667edefdc1ad424021209,62c53a8af30b92daefb4e187,2022-07-06_09h37.27.006,Colour_Asymmetry_Pilot,2022.1.3,Win32,59.36832106,62c50e9c1127f2cd403a315f,0,75,75,75,1,twofour,,,,,,,,,,,,,,,,,,,,,,,,,,,,,,,,,,,,,,,,,,,,,,,,,,,,,,,,,,,,,,,,,,,,,,,,,,,,,,,,,,,,,,,,,,,,,,,,,,,,,,,,,,,,,,,,,,,,,,,,,,,,,,,,,,,,,,,,,,,,,,,,,,,,,,,,,,,,,
,,,,,,610667edefdc1ad424021209,62c53a8af30b92daefb4e187,2022-07-06_09h37.27.006,Colour_Asymmetry_Pilot,2022.1.3,Win32,59.36832106,62c50e9c1127f2cd403a315f,0,76,76,139,1,twofour,,,,,,,,,,,,,,,,,,,,,,,,,,,,,,,,,,,,,,,,,,,,,,,,,,,,,,,,,,,,,,,,,,,,,,,,,,,,,,,,,,,,,,,,,,,,,,,,,,,,,,,,,,,,,,,,,,,,,,,,,,,,,,,,,,,,,,,,,,,,,,,,,,,,,,,,,,,,,
,,,,,,610667edefdc1ad424021209,62c53a8af30b92daefb4e187,2022-07-06_09h37.27.006,Colour_Asymmetry_Pilot,2022.1.3,Win32,59.36832106,62c50e9c1127f2cd403a315f,0,77,77,53,1,threefour,,,,,,,,,,,,,,,,,,,,,,,,,,,,,,,,,,,,,,,,,,,,,,,,,,,,,,,,,,,,,,,,,,,,,,,,,,,,,,,,,,,,,,,,,,,,,,,,,,,,,,,,,,,,,,,,,,,,,,,,,,,,,,,,,,,,,,,,,,,,,,,,,,,,,,,,,,,,,
,,,,,,610667edefdc1ad424021209,62c53a8af30b92daefb4e187,2022-07-06_09h37.27.006,Colour_Asymmetry_Pilot,2022.1.3,Win32,59.36832106,62c50e9c1127f2cd403a315f,0,78,78,31,1,fourthree,,,,,,,,,,,,,,,,,,,,,,,,,,,,,,,,,,,,,,,,,,,,,,,,,,,,,,,,,,,,,,,,,,,,,,,,,,,,,,,,,,,,,,,,,,,,,,,,,,,,,,,,,,,,,,,,,,,,,,,,,,,,,,,,,,,,,,,,,,,,,,,,,,,,,,,,,,,,,
,,,,,,610667edefdc1ad424021209,62c53a8af30b92daefb4e187,2022-07-06_09h37.27.006,Colour_Asymmetry_Pilot,2022.1.3,Win32,59.36832106,62c50e9c1127f2cd403a315f,0,79,79,120,1,onetwo,,,,,,,,,,,,,,,,,,,,,,,,,,,,,,,,,,,,,,,,,,,,,,,,,,,,,,,,,,,,,,,,,,,,,,,,,,,,,,,,,,,,,,,,,,,,,,,,,,,,,,,,,,,,,,,,,,,,,,,,,,,,,,,,,,,,,,,,,,,,,,,,,,,,,,,,,,,,,
,,,,,,610667edefdc1ad424021209,62c53a8af30b92daefb4e187,2022-07-06_09h37.27.006,Colour_Asymmetry_Pilot,2022.1.3,Win32,59.36832106,62c50e9c1127f2cd403a315f,0,80,80,61,1,threefour,,,,,,,,,,,,,,,,,,,,,,,,,,,,,,,,,,,,,,,,,,,,,,,,,,,,,,,,,,,,,,,,,,,,,,,,,,,,,,,,,,,,,,,,,,,,,,,,,,,,,,,,,,,,,,,,,,,,,,,,,,,,,,,,,,,,,,,,,,,,,,,,,,,,,,,,,,,,,
,,,,,,610667edefdc1ad424021209,62c53a8af30b92daefb4e187,2022-07-06_09h37.27.006,Colour_Asymmetry_Pilot,2022.1.3,Win32,59.36832106,62c50e9c1127f2cd403a315f,0,81,81,110,1,fourtwo,,,,,,,,,,,,,,,,,,,,,,,,,,,,,,,,,,,,,,,,,,,,,,,,,,,,,,,,,,,,,,,,,,,,,,,,,,,,,,,,,,,,,,,,,,,,,,,,,,,,,,,,,,,,,,,,,,,,,,,,,,,,,,,,,,,,,,,,,,,,,,,,,,,,,,,,,,,,,
,,,,,,610667edefdc1ad424021209,62c53a8af30b92daefb4e187,2022-07-06_09h37.27.006,Colour_Asymmetry_Pilot,2022.1.3,Win32,59.36832106,62c50e9c1127f2cd403a315f,0,82,82,58,1,twoone,,,,,,,,,,,,,,,,,,,,,,,,,,,,,,,,,,,,,,,,,,,,,,,,,,,,,,,,,,,,,,,,,,,,,,,,,,,,,,,,,,,,,,,,,,,,,,,,,,,,,,,,,,,,,,,,,,,,,,,,,,,,,,,,,,,,,,,,,,,,,,,,,,,,,,,,,,,,,
,,,,,,610667edefdc1ad424021209,62c53a8af30b92daefb4e187,2022-07-06_09h37.27.006,Colour_Asymmetry_Pilot,2022.1.3,Win32,59.36832106,62c50e9c1127f2cd403a315f,0,83,83,74,1,twoone,,,,,,,,,,,,,,,,,,,,,,,,,,,,,,,,,,,,,,,,,,,,,,,,,,,,,,,,,,,,,,,,,,,,,,,,,,,,,,,,,,,,,,,,,,,,,,,,,,,,,,,,,,,,,,,,,,,,,,,,,,,,,,,,,,,,,,,,,,,,,,,,,,,,,,,,,,,,,
,,,,,,610667edefdc1ad424021209,62c53a8af30b92daefb4e187,2022-07-06_09h37.27.006,Colour_Asymmetry_Pilot,2022.1.3,Win32,59.36832106,62c50e9c1127f2cd403a315f,0,84,84,22,1,fourtwo,,,,,,,,,,,,,,,,,,,,,,,,,,,,,,,,,,,,,,,,,,,,,,,,,,,,,,,,,,,,,,,,,,,,,,,,,,,,,,,,,,,,,,,,,,,,,,,,,,,,,,,,,,,,,,,,,,,,,,,,,,,,,,,,,,,,,,,,,,,,,,,,,,,,,,,,,,,,,
,,,,,,610667edefdc1ad424021209,62c53a8af30b92daefb4e187,2022-07-06_09h37.27.006,Colour_Asymmetry_Pilot,2022.1.3,Win32,59.36832106,62c50e9c1127f2cd403a315f,0,85,85,133,1,threefour,,,,,,,,,,,,,,,,,,,,,,,,,,,,,,,,,,,,,,,,,,,,,,,,,,,,,,,,,,,,,,,,,,,,,,,,,,,,,,,,,,,,,,,,,,,,,,,,,,,,,,,,,,,,,,,,,,,,,,,,,,,,,,,,,,,,,,,,,,,,,,,,,,,,,,,,,,,,,
,,,,,,610667edefdc1ad424021209,62c53a8af30b92daefb4e187,2022-07-06_09h37.27.006,Colour_Asymmetry_Pilot,2022.1.3,Win32,59.36832106,62c50e9c1127f2cd403a315f,0,86,86,73,1,onethree,,,,,,,,,,,,,,,,,,,,,,,,,,,,,,,,,,,,,,,,,,,,,,,,,,,,,,,,,,,,,,,,,,,,,,,,,,,,,,,,,,,,,,,,,,,,,,,,,,,,,,,,,,,,,,,,,,,,,,,,,,,,,,,,,,,,,,,,,,,,,,,,,,,,,,,,,,,,,
,,,,,,610667edefdc1ad424021209,62c53a8af30b92daefb4e187,2022-07-06_09h37.27.006,Colour_Asymmetry_Pilot,2022.1.3,Win32,59.36832106,62c50e9c1127f2cd403a315f,0,87,87,156,1,threeone,,,,,,,,,,,,,,,,,,,,,,,,,,,,,,,,,,,,,,,,,,,,,,,,,,,,,,,,,,,,,,,,,,,,,,,,,,,,,,,,,,,,,,,,,,,,,,,,,,,,,,,,,,,,,,,,,,,,,,,,,,,,,,,,,,,,,,,,,,,,,,,,,,,,,,,,,,,,,
,,,,,,610667edefdc1ad424021209,62c53a8af30b92daefb4e187,2022-07-06_09h37.27.006,Colour_Asymmetry_Pilot,2022.1.3,Win32,59.36832106,62c50e9c1127f2cd403a315f,0,88,88,28,1,threeone,,,,,,,,,,,,,,,,,,,,,,,,,,,,,,,,,,,,,,,,,,,,,,,,,,,,,,,,,,,,,,,,,,,,,,,,,,,,,,,,,,,,,,,,,,,,,,,,,,,,,,,,,,,,,,,,,,,,,,,,,,,,,,,,,,,,,,,,,,,,,,,,,,,,,,,,,,,,,
,,,,,,610667edefdc1ad424021209,62c53a8af30b92daefb4e187,2022-07-06_09h37.27.006,Colour_Asymmetry_Pilot,2022.1.3,Win32,59.36832106,62c50e9c1127f2cd403a315f,0,89,89,116,1,threeone,,,,,,,,,,,,,,,,,,,,,,,,,,,,,,,,,,,,,,,,,,,,,,,,,,,,,,,,,,,,,,,,,,,,,,,,,,,,,,,,,,,,,,,,,,,,,,,,,,,,,,,,,,,,,,,,,,,,,,,,,,,,,,,,,,,,,,,,,,,,,,,,,,,,,,,,,,,,,
,,,,,,610667edefdc1ad424021209,62c53a8af30b92daefb4e187,2022-07-06_09h37.27.006,Colour_Asymmetry_Pilot,2022.1.3,Win32,59.36832106,62c50e9c1127f2cd403a315f,0,90,90,5,1,threefour,,,,,,,,,,,,,,,,,,,,,,,,,,,,,,,,,,,,,,,,,,,,,,,,,,,,,,,,,,,,,,,,,,,,,,,,,,,,,,,,,,,,,,,,,,,,,,,,,,,,,,,,,,,,,,,,,,,,,,,,,,,,,,,,,,,,,,,,,,,,,,,,,,,,,,,,,,,,,
,,,,,,610667edefdc1ad424021209,62c53a8af30b92daefb4e187,2022-07-06_09h37.27.006,Colour_Asymmetry_Pilot,2022.1.3,Win32,59.36832106,62c50e9c1127f2cd403a315f,0,91,91,96,1,onetwo,,,,,,,,,,,,,,,,,,,,,,,,,,,,,,,,,,,,,,,,,,,,,,,,,,,,,,,,,,,,,,,,,,,,,,,,,,,,,,,,,,,,,,,,,,,,,,,,,,,,,,,,,,,,,,,,,,,,,,,,,,,,,,,,,,,,,,,,,,,,,,,,,,,,,,,,,,,,,
,,,,,,610667edefdc1ad424021209,62c53a8af30b92daefb4e187,2022-07-06_09h37.27.006,Colour_Asymmetry_Pilot,2022.1.3,Win32,59.36832106,62c50e9c1127f2cd403a315f,0,92,92,144,1,onetwo,,,,,,,,,,,,,,,,,,,,,,,,,,,,,,,,,,,,,,,,,,,,,,,,,,,,,,,,,,,,,,,,,,,,,,,,,,,,,,,,,,,,,,,,,,,,,,,,,,,,,,,,,,,,,,,,,,,,,,,,,,,,,,,,,,,,,,,,,,,,,,,,,,,,,,,,,,,,,
,,,,,,610667edefdc1ad424021209,62c53a8af30b92daefb4e187,2022-07-06_09h37.27.006,Colour_Asymmetry_Pilot,2022.1.3,Win32,59.36832106,62c50e9c1127f2cd403a315f,0,93,93,111,1,fourthree,,,,,,,,,,,,,,,,,,,,,,,,,,,,,,,,,,,,,,,,,,,,,,,,,,,,,,,,,,,,,,,,,,,,,,,,,,,,,,,,,,,,,,,,,,,,,,,,,,,,,,,,,,,,,,,,,,,,,,,,,,,,,,,,,,,,,,,,,,,,,,,,,,,,,,,,,,,,,
,,,,,,610667edefdc1ad424021209,62c53a8af30b92daefb4e187,2022-07-06_09h37.27.006,Colour_Asymmetry_Pilot,2022.1.3,Win32,59.36832106,62c50e9c1127f2cd403a315f,0,94,94,112,1,onetwo,,,,,,,,,,,,,,,,,,,,,,,,,,,,,,,,,,,,,,,,,,,,,,,,,,,,,,,,,,,,,,,,,,,,,,,,,,,,,,,,,,,,,,,,,,,,,,,,,,,,,,,,,,,,,,,,,,,,,,,,,,,,,,,,,,,,,,,,,,,,,,,,,,,,,,,,,,,,,
,,,,,,610667edefdc1ad424021209,62c53a8af30b92daefb4e187,2022-07-06_09h37.27.006,Colour_Asymmetry_Pilot,2022.1.3,Win32,59.36832106,62c50e9c1127f2cd403a315f,0,95,95,109,1,threefour,,,,,,,,,,,,,,,,,,,,,,,,,,,,,,,,,,,,,,,,,,,,,,,,,,,,,,,,,,,,,,,,,,,,,,,,,,,,,,,,,,,,,,,,,,,,,,,,,,,,,,,,,,,,,,,,,,,,,,,,,,,,,,,,,,,,,,,,,,,,,,,,,,,,,,,,,,,,,
,,,,,,610667edefdc1ad424021209,62c53a8af30b92daefb4e187,2022-07-06_09h37.27.006,Colour_Asymmetry_Pilot,2022.1.3,Win32,59.36832106,62c50e9c1127f2cd403a315f,0,96,96,4,1,threeone,,,,,,,,,,,,,,,,,,,,,,,,,,,,,,,,,,,,,,,,,,,,,,,,,,,,,,,,,,,,,,,,,,,,,,,,,,,,,,,,,,,,,,,,,,,,,,,,,,,,,,,,,,,,,,,,,,,,,,,,,,,,,,,,,,,,,,,,,,,,,,,,,,,,,,,,,,,,,
,,,,,,610667edefdc1ad424021209,62c53a8af30b92daefb4e187,2022-07-06_09h37.27.006,Colour_Asymmetry_Pilot,2022.1.3,Win32,59.36832106,62c50e9c1127f2cd403a315f,0,97,97,1,1,onethree,,,,,,,,,,,,,,,,,,,,,,,,,,,,,,,,,,,,,,,,,,,,,,,,,,,,,,,,,,,,,,,,,,,,,,,,,,,,,,,,,,,,,,,,,,,,,,,,,,,,,,,,,,,,,,,,,,,,,,,,,,,,,,,,,,,,,,,,,,,,,,,,,,,,,,,,,,,,,
,,,,,,610667edefdc1ad424021209,62c53a8af30b92daefb4e187,2022-07-06_09h37.27.006,Colour_Asymmetry_Pilot,2022.1.3,Win32,59.36832106,62c50e9c1127f2cd403a315f,0,98,98,160,1,onetwo,,,,,,,,,,,,,,,,,,,,,,,,,,,,,,,,,,,,,,,,,,,,,,,,,,,,,,,,,,,,,,,,,,,,,,,,,,,,,,,,,,,,,,,,,,,,,,,,,,,,,,,,,,,,,,,,,,,,,,,,,,,,,,,,,,,,,,,,,,,,,,,,,,,,,,,,,,,,,
,,,,,,610667edefdc1ad424021209,62c53a8af30b92daefb4e187,2022-07-06_09h37.27.006,Colour_Asymmetry_Pilot,2022.1.3,Win32,59.36832106,62c50e9c1127f2cd403a315f,0,99,99,103,1,fourthree,,,,,,,,,,,,,,,,,,,,,,,,,,,,,,,,,,,,,,,,,,,,,,,,,,,,,,,,,,,,,,,,,,,,,,,,,,,,,,,,,,,,,,,,,,,,,,,,,,,,,,,,,,,,,,,,,,,,,,,,,,,,,,,,,,,,,,,,,,,,,,,,,,,,,,,,,,,,,
,,,,,,610667edefdc1ad424021209,62c53a8af30b92daefb4e187,2022-07-06_09h37.27.006,Colour_Asymmetry_Pilot,2022.1.3,Win32,59.36832106,62c50e9c1127f2cd403a315f,0,100,100,47,1,fourthree,,,,,,,,,,,,,,,,,,,,,,,,,,,,,,,,,,,,,,,,,,,,,,,,,,,,,,,,,,,,,,,,,,,,,,,,,,,,,,,,,,,,,,,,,,,,,,,,,,,,,,,,,,,,,,,,,,,,,,,,,,,,,,,,,,,,,,,,,,,,,,,,,,,,,,,,,,,,,
,,,,,,610667edefdc1ad424021209,62c53a8af30b92daefb4e187,2022-07-06_09h37.27.006,Colour_Asymmetry_Pilot,2022.1.3,Win32,59.36832106,62c50e9c1127f2cd403a315f,0,101,101,71,1,fourthree,,,,,,,,,,,,,,,,,,,,,,,,,,,,,,,,,,,,,,,,,,,,,,,,,,,,,,,,,,,,,,,,,,,,,,,,,,,,,,,,,,,,,,,,,,,,,,,,,,,,,,,,,,,,,,,,,,,,,,,,,,,,,,,,,,,,,,,,,,,,,,,,,,,,,,,,,,,,,
,,,,,,610667edefdc1ad424021209,62c53a8af30b92daefb4e187,2022-07-06_09h37.27.006,Colour_Asymmetry_Pilot,2022.1.3,Win32,59.36832106,62c50e9c1127f2cd403a315f,0,102,102,36,1,threeone,,,,,,,,,,,,,,,,,,,,,,,,,,,,,,,,,,,,,,,,,,,,,,,,,,,,,,,,,,,,,,,,,,,,,,,,,,,,,,,,,,,,,,,,,,,,,,,,,,,,,,,,,,,,,,,,,,,,,,,,,,,,,,,,,,,,,,,,,,,,,,,,,,,,,,,,,,,,,
,,,,,,610667edefdc1ad424021209,62c53a8af30b92daefb4e187,2022-07-06_09h37.27.006,Colour_Asymmetry_Pilot,2022.1.3,Win32,59.36832106,62c50e9c1127f2cd403a315f,0,103,103,3,1,twofour,,,,,,,,,,,,,,,,,,,,,,,,,,,,,,,,,,,,,,,,,,,,,,,,,,,,,,,,,,,,,,,,,,,,,,,,,,,,,,,,,,,,,,,,,,,,,,,,,,,,,,,,,,,,,,,,,,,,,,,,,,,,,,,,,,,,,,,,,,,,,,,,,,,,,,,,,,,,,
,,,,,,610667edefdc1ad424021209,62c53a8af30b92daefb4e187,2022-07-06_09h37.27.006,Colour_Asymmetry_Pilot,2022.1.3,Win32,59.36832106,62c50e9c1127f2cd403a315f,0,104,104,145,1,onethree,,,,,,,,,,,,,,,,,,,,,,,,,,,,,,,,,,,,,,,,,,,,,,,,,,,,,,,,,,,,,,,,,,,,,,,,,,,,,,,,,,,,,,,,,,,,,,,,,,,,,,,,,,,,,,,,,,,,,,,,,,,,,,,,,,,,,,,,,,,,,,,,,,,,,,,,,,,,,
,,,,,,610667edefdc1ad424021209,62c53a8af30b92daefb4e187,2022-07-06_09h37.27.006,Colour_Asymmetry_Pilot,2022.1.3,Win32,59.36832106,62c50e9c1127f2cd403a315f,0,105,105,152,1,onetwo,,,,,,,,,,,,,,,,,,,,,,,,,,,,,,,,,,,,,,,,,,,,,,,,,,,,,,,,,,,,,,,,,,,,,,,,,,,,,,,,,,,,,,,,,,,,,,,,,,,,,,,,,,,,,,,,,,,,,,,,,,,,,,,,,,,,,,,,,,,,,,,,,,,,,,,,,,,,,
,,,,,,610667edefdc1ad424021209,62c53a8af30b92daefb4e187,2022-07-06_09h37.27.006,Colour_Asymmetry_Pilot,2022.1.3,Win32,59.36832106,62c50e9c1127f2cd403a315f,0,106,106,161,1,onethree,,,,,,,,,,,,,,,,,,,,,,,,,,,,,,,,,,,,,,,,,,,,,,,,,,,,,,,,,,,,,,,,,,,,,,,,,,,,,,,,,,,,,,,,,,,,,,,,,,,,,,,,,,,,,,,,,,,,,,,,,,,,,,,,,,,,,,,,,,,,,,,,,,,,,,,,,,,,,
,,,,,,610667edefdc1ad424021209,62c53a8af30b92daefb4e187,2022-07-06_09h37.27.006,Colour_Asymmetry_Pilot,2022.1.3,Win32,59.36832106,62c50e9c1127f2cd403a315f,0,107,107,0,1,onetwo,,,,,,,,,,,,,,,,,,,,,,,,,,,,,,,,,,,,,,,,,,,,,,,,,,,,,,,,,,,,,,,,,,,,,,,,,,,,,,,,,,,,,,,,,,,,,,,,,,,,,,,,,,,,,,,,,,,,,,,,,,,,,,,,,,,,,,,,,,,,,,,,,,,,,,,,,,,,,
,,,,,,610667edefdc1ad424021209,62c53a8af30b92daefb4e187,2022-07-06_09h37.27.006,Colour_Asymmetry_Pilot,2022.1.3,Win32,59.36832106,62c50e9c1127f2cd403a315f,0,108,108,90,1,twoone,,,,,,,,,,,,,,,,,,,,,,,,,,,,,,,,,,,,,,,,,,,,,,,,,,,,,,,,,,,,,,,,,,,,,,,,,,,,,,,,,,,,,,,,,,,,,,,,,,,,,,,,,,,,,,,,,,,,,,,,,,,,,,,,,,,,,,,,,,,,,,,,,,,,,,,,,,,,,
,,,,,,610667edefdc1ad424021209,62c53a8af30b92daefb4e187,2022-07-06_09h37.27.006,Colour_Asymmetry_Pilot,2022.1.3,Win32,59.36832106,62c50e9c1127f2cd403a315f,0,109,109,56,1,onetwo,,,,,,,,,,,,,,,,,,,,,,,,,,,,,,,,,,,,,,,,,,,,,,,,,,,,,,,,,,,,,,,,,,,,,,,,,,,,,,,,,,,,,,,,,,,,,,,,,,,,,,,,,,,,,,,,,,,,,,,,,,,,,,,,,,,,,,,,,,,,,,,,,,,,,,,,,,,,,
,,,,,,610667edefdc1ad424021209,62c53a8af30b92daefb4e187,2022-07-06_09h37.27.006,Colour_Asymmetry_Pilot,2022.1.3,Win32,59.36832106,62c50e9c1127f2cd403a315f,0,110,110,153,1,onethree,,,,,,,,,,,,,,,,,,,,,,,,,,,,,,,,,,,,,,,,,,,,,,,,,,,,,,,,,,,,,,,,,,,,,,,,,,,,,,,,,,,,,,,,,,,,,,,,,,,,,,,,,,,,,,,,,,,,,,,,,,,,,,,,,,,,,,,,,,,,,,,,,,,,,,,,,,,,,
,,,,,,610667edefdc1ad424021209,62c53a8af30b92daefb4e187,2022-07-06_09h37.27.006,Colour_Asymmetry_Pilot,2022.1.3,Win32,59.36832106,62c50e9c1127f2cd403a315f,0,111,111,72,1,onetwo,,,,,,,,,,,,,,,,,,,,,,,,,,,,,,,,,,,,,,,,,,,,,,,,,,,,,,,,,,,,,,,,,,,,,,,,,,,,,,,,,,,,,,,,,,,,,,,,,,,,,,,,,,,,,,,,,,,,,,,,,,,,,,,,,,,,,,,,,,,,,,,,,,,,,,,,,,,,,
,,,,,,610667edefdc1ad424021209,62c53a8af30b92daefb4e187,2022-07-06_09h37.27.006,Colour_Asymmetry_Pilot,2022.1.3,Win32,59.36832106,62c50e9c1127f2cd403a315f,0,112,112,92,1,threeone,,,,,,,,,,,,,,,,,,,,,,,,,,,,,,,,,,,,,,,,,,,,,,,,,,,,,,,,,,,,,,,,,,,,,,,,,,,,,,,,,,,,,,,,,,,,,,,,,,,,,,,,,,,,,,,,,,,,,,,,,,,,,,,,,,,,,,,,,,,,,,,,,,,,,,,,,,,,,
,,,,,,610667edefdc1ad424021209,62c53a8af30b92daefb4e187,2022-07-06_09h37.27.006,Colour_Asymmetry_Pilot,2022.1.3,Win32,59.36832106,62c50e9c1127f2cd403a315f,0,113,113,43,1,twofour,,,,,,,,,,,,,,,,,,,,,,,,,,,,,,,,,,,,,,,,,,,,,,,,,,,,,,,,,,,,,,,,,,,,,,,,,,,,,,,,,,,,,,,,,,,,,,,,,,,,,,,,,,,,,,,,,,,,,,,,,,,,,,,,,,,,,,,,,,,,,,,,,,,,,,,,,,,,,
,,,,,,610667edefdc1ad424021209,62c53a8af30b92daefb4e187,2022-07-06_09h37.27.006,Colour_Asymmetry_Pilot,2022.1.3,Win32,59.36832106,62c50e9c1127f2cd403a315f,0,114,114,98,1,twoone,,,,,,,,,,,,,,,,,,,,,,,,,,,,,,,,,,,,,,,,,,,,,,,,,,,,,,,,,,,,,,,,,,,,,,,,,,,,,,,,,,,,,,,,,,,,,,,,,,,,,,,,,,,,,,,,,,,,,,,,,,,,,,,,,,,,,,,,,,,,,,,,,,,,,,,,,,,,,
,,,,,,610667edefdc1ad424021209,62c53a8af30b92daefb4e187,2022-07-06_09h37.27.006,Colour_Asymmetry_Pilot,2022.1.3,Win32,59.36832106,62c50e9c1127f2cd403a315f,0,115,115,155,1,twofour,,,,,,,,,,,,,,,,,,,,,,,,,,,,,,,,,,,,,,,,,,,,,,,,,,,,,,,,,,,,,,,,,,,,,,,,,,,,,,,,,,,,,,,,,,,,,,,,,,,,,,,,,,,,,,,,,,,,,,,,,,,,,,,,,,,,,,,,,,,,,,,,,,,,,,,,,,,,,
,,,,,,610667edefdc1ad424021209,62c53a8af30b92daefb4e187,2022-07-06_09h37.27.006,Colour_Asymmetry_Pilot,2022.1.3,Win32,59.36832106,62c50e9c1127f2cd403a315f,0,116,116,113,1,onethree,,,,,,,,,,,,,,,,,,,,,,,,,,,,,,,,,,,,,,,,,,,,,,,,,,,,,,,,,,,,,,,,,,,,,,,,,,,,,,,,,,,,,,,,,,,,,,,,,,,,,,,,,,,,,,,,,,,,,,,,,,,,,,,,,,,,,,,,,,,,,,,,,,,,,,,,,,,,,
,,,,,,610667edefdc1ad424021209,62c53a8af30b92daefb4e187,2022-07-06_09h37.27.006,Colour_Asymmetry_Pilot,2022.1.3,Win32,59.36832106,62c50e9c1127f2cd403a315f,0,117,117,63,1,fourthree,,,,,,,,,,,,,,,,,,,,,,,,,,,,,,,,,,,,,,,,,,,,,,,,,,,,,,,,,,,,,,,,,,,,,,,,,,,,,,,,,,,,,,,,,,,,,,,,,,,,,,,,,,,,,,,,,,,,,,,,,,,,,,,,,,,,,,,,,,,,,,,,,,,,,,,,,,,,,
,,,,,,610667edefdc1ad424021209,62c53a8af30b92daefb4e187,2022-07-06_09h37.27.006,Colour_Asymmetry_Pilot,2022.1.3,Win32,59.36832106,62c50e9c1127f2cd403a315f,0,118,118,52,1,threeone,,,,,,,,,,,,,,,,,,,,,,,,,,,,,,,,,,,,,,,,,,,,,,,,,,,,,,,,,,,,,,,,,,,,,,,,,,,,,,,,,,,,,,,,,,,,,,,,,,,,,,,,,,,,,,,,,,,,,,,,,,,,,,,,,,,,,,,,,,,,,,,,,,,,,,,,,,,,,
,,,,,,610667edefdc1ad424021209,62c53a8af30b92daefb4e187,2022-07-06_09h37.27.006,Colour_Asymmetry_Pilot,2022.1.3,Win32,59.36832106,62c50e9c1127f2cd403a315f,0,119,119,137,1,onethree,,,,,,,,,,,,,,,,,,,,,,,,,,,,,,,,,,,,,,,,,,,,,,,,,,,,,,,,,,,,,,,,,,,,,,,,,,,,,,,,,,,,,,,,,,,,,,,,,,,,,,,,,,,,,,,,,,,,,,,,,,,,,,,,,,,,,,,,,,,,,,,,,,,,,,,,,,,,,
,,,,,,610667edefdc1ad424021209,62c53a8af30b92daefb4e187,2022-07-06_09h37.27.006,Colour_Asymmetry_Pilot,2022.1.3,Win32,59.36832106,62c50e9c1127f2cd403a315f,0,120,120,17,1,onethree,,,,,,,,,,,,,,,,,,,,,,,,,,,,,,,,,,,,,,,,,,,,,,,,,,,,,,,,,,,,,,,,,,,,,,,,,,,,,,,,,,,,,,,,,,,,,,,,,,,,,,,,,,,,,,,,,,,,,,,,,,,,,,,,,,,,,,,,,,,,,,,,,,,,,,,,,,,,,
,,,,,,610667edefdc1ad424021209,62c53a8af30b92daefb4e187,2022-07-06_09h37.27.006,Colour_Asymmetry_Pilot,2022.1.3,Win32,59.36832106,62c50e9c1127f2cd403a315f,0,121,121,29,1,threefour,,,,,,,,,,,,,,,,,,,,,,,,,,,,,,,,,,,,,,,,,,,,,,,,,,,,,,,,,,,,,,,,,,,,,,,,,,,,,,,,,,,,,,,,,,,,,,,,,,,,,,,,,,,,,,,,,,,,,,,,,,,,,,,,,,,,,,,,,,,,,,,,,,,,,,,,,,,,,
,,,,,,610667edefdc1ad424021209,62c53a8af30b92daefb4e187,2022-07-06_09h37.27.006,Colour_Asymmetry_Pilot,2022.1.3,Win32,59.36832106,62c50e9c1127f2cd403a315f,0,122,122,39,1,fourthree,,,,,,,,,,,,,,,,,,,,,,,,,,,,,,,,,,,,,,,,,,,,,,,,,,,,,,,,,,,,,,,,,,,,,,,,,,,,,,,,,,,,,,,,,,,,,,,,,,,,,,,,,,,,,,,,,,,,,,,,,,,,,,,,,,,,,,,,,,,,,,,,,,,,,,,,,,,,,
,,,,,,610667edefdc1ad424021209,62c53a8af30b92daefb4e187,2022-07-06_09h37.27.006,Colour_Asymmetry_Pilot,2022.1.3,Win32,59.36832106,62c50e9c1127f2cd403a315f,0,123,123,57,1,onethree,,,,,,,,,,,,,,,,,,,,,,,,,,,,,,,,,,,,,,,,,,,,,,,,,,,,,,,,,,,,,,,,,,,,,,,,,,,,,,,,,,,,,,,,,,,,,,,,,,,,,,,,,,,,,,,,,,,,,,,,,,,,,,,,,,,,,,,,,,,,,,,,,,,,,,,,,,,,,
,,,,,,610667edefdc1ad424021209,62c53a8af30b92daefb4e187,2022-07-06_09h37.27.006,Colour_Asymmetry_Pilot,2022.1.3,Win32,59.36832106,62c50e9c1127f2cd403a315f,0,124,124,15,1,fourthree,,,,,,,,,,,,,,,,,,,,,,,,,,,,,,,,,,,,,,,,,,,,,,,,,,,,,,,,,,,,,,,,,,,,,,,,,,,,,,,,,,,,,,,,,,,,,,,,,,,,,,,,,,,,,,,,,,,,,,,,,,,,,,,,,,,,,,,,,,,,,,,,,,,,,,,,,,,,,
,,,,,,610667edefdc1ad424021209,62c53a8af30b92daefb4e187,2022-07-06_09h37.27.006,Colour_Asymmetry_Pilot,2022.1.3,Win32,59.36832106,62c50e9c1127f2cd403a315f,0,125,125,129,1,onethree,,,,,,,,,,,,,,,,,,,,,,,,,,,,,,,,,,,,,,,,,,,,,,,,,,,,,,,,,,,,,,,,,,,,,,,,,,,,,,,,,,,,,,,,,,,,,,,,,,,,,,,,,,,,,,,,,,,,,,,,,,,,,,,,,,,,,,,,,,,,,,,,,,,,,,,,,,,,,
,,,,,,610667edefdc1ad424021209,62c53a8af30b92daefb4e187,2022-07-06_09h37.27.006,Colour_Asymmetry_Pilot,2022.1.3,Win32,59.36832106,62c50e9c1127f2cd403a315f,0,126,126,18,1,twoone,,,,,,,,,,,,,,,,,,,,,,,,,,,,,,,,,,,,,,,,,,,,,,,,,,,,,,,,,,,,,,,,,,,,,,,,,,,,,,,,,,,,,,,,,,,,,,,,,,,,,,,,,,,,,,,,,,,,,,,,,,,,,,,,,,,,,,,,,,,,,,,,,,,,,,,,,,,,,
,,,,,,610667edefdc1ad424021209,62c53a8af30b92daefb4e187,2022-07-06_09h37.27.006,Colour_Asymmetry_Pilot,2022.1.3,Win32,59.36832106,62c50e9c1127f2cd403a315f,0,127,127,44,1,threeone,,,,,,,,,,,,,,,,,,,,,,,,,,,,,,,,,,,,,,,,,,,,,,,,,,,,,,,,,,,,,,,,,,,,,,,,,,,,,,,,,,,,,,,,,,,,,,,,,,,,,,,,,,,,,,,,,,,,,,,,,,,,,,,,,,,,,,,,,,,,,,,,,,,,,,,,,,,,,
,,,,,,610667edefdc1ad424021209,62c53a8af30b92daefb4e187,2022-07-06_09h37.27.006,Colour_Asymmetry_Pilot,2022.1.3,Win32,59.36832106,62c50e9c1127f2cd403a315f,0,128,128,19,1,twofour,,,,,,,,,,,,,,,,,,,,,,,,,,,,,,,,,,,,,,,,,,,,,,,,,,,,,,,,,,,,,,,,,,,,,,,,,,,,,,,,,,,,,,,,,,,,,,,,,,,,,,,,,,,,,,,,,,,,,,,,,,,,,,,,,,,,,,,,,,,,,,,,,,,,,,,,,,,,,
,,,,,,610667edefdc1ad424021209,62c53a8af30b92daefb4e187,2022-07-06_09h37.27.006,Colour_Asymmetry_Pilot,2022.1.3,Win32,59.36832106,62c50e9c1127f2cd403a315f,0,129,129,20,1,threeone,,,,,,,,,,,,,,,,,,,,,,,,,,,,,,,,,,,,,,,,,,,,,,,,,,,,,,,,,,,,,,,,,,,,,,,,,,,,,,,,,,,,,,,,,,,,,,,,,,,,,,,,,,,,,,,,,,,,,,,,,,,,,,,,,,,,,,,,,,,,,,,,,,,,,,,,,,,,,
,,,,,,610667edefdc1ad424021209,62c53a8af30b92daefb4e187,2022-07-06_09h37.27.006,Colour_Asymmetry_Pilot,2022.1.3,Win32,59.36832106,62c50e9c1127f2cd403a315f,0,130,130,100,1,threeone,,,,,,,,,,,,,,,,,,,,,,,,,,,,,,,,,,,,,,,,,,,,,,,,,,,,,,,,,,,,,,,,,,,,,,,,,,,,,,,,,,,,,,,,,,,,,,,,,,,,,,,,,,,,,,,,,,,,,,,,,,,,,,,,,,,,,,,,,,,,,,,,,,,,,,,,,,,,,
,,,,,,610667edefdc1ad424021209,62c53a8af30b92daefb4e187,2022-07-06_09h37.27.006,Colour_Asymmetry_Pilot,2022.1.3,Win32,59.36832106,62c50e9c1127f2cd403a315f,0,131,131,85,1,threefour,,,,,,,,,,,,,,,,,,,,,,,,,,,,,,,,,,,,,,,,,,,,,,,,,,,,,,,,,,,,,,,,,,,,,,,,,,,,,,,,,,,,,,,,,,,,,,,,,,,,,,,,,,,,,,,,,,,,,,,,,,,,,,,,,,,,,,,,,,,,,,,,,,,,,,,,,,,,,
,,,,,,610667edefdc1ad424021209,62c53a8af30b92daefb4e187,2022-07-06_09h37.27.006,Colour_Asymmetry_Pilot,2022.1.3,Win32,59.36832106,62c50e9c1127f2cd403a315f,0,132,132,154,1,twoone,,,,,,,,,,,,,,,,,,,,,,,,,,,,,,,,,,,,,,,,,,,,,,,,,,,,,,,,,,,,,,,,,,,,,,,,,,,,,,,,,,,,,,,,,,,,,,,,,,,,,,,,,,,,,,,,,,,,,,,,,,,,,,,,,,,,,,,,,,,,,,,,,,,,,,,,,,,,,
,,,,,,610667edefdc1ad424021209,62c53a8af30b92daefb4e187,2022-07-06_09h37.27.006,Colour_Asymmetry_Pilot,2022.1.3,Win32,59.36832106,62c50e9c1127f2cd403a315f,0,133,133,158,1,fourtwo,,,,,,,,,,,,,,,,,,,,,,,,,,,,,,,,,,,,,,,,,,,,,,,,,,,,,,,,,,,,,,,,,,,,,,,,,,,,,,,,,,,,,,,,,,,,,,,,,,,,,,,,,,,,,,,,,,,,,,,,,,,,,,,,,,,,,,,,,,,,,,,,,,,,,,,,,,,,,
,,,,,,610667edefdc1ad424021209,62c53a8af30b92daefb4e187,2022-07-06_09h37.27.006,Colour_Asymmetry_Pilot,2022.1.3,Win32,59.36832106,62c50e9c1127f2cd403a315f,0,134,134,83,1,twofour,,,,,,,,,,,,,,,,,,,,,,,,,,,,,,,,,,,,,,,,,,,,,,,,,,,,,,,,,,,,,,,,,,,,,,,,,,,,,,,,,,,,,,,,,,,,,,,,,,,,,,,,,,,,,,,,,,,,,,,,,,,,,,,,,,,,,,,,,,,,,,,,,,,,,,,,,,,,,
,,,,,,610667edefdc1ad424021209,62c53a8af30b92daefb4e187,2022-07-06_09h37.27.006,Colour_Asymmetry_Pilot,2022.1.3,Win32,59.36832106,62c50e9c1127f2cd403a315f,0,135,135,13,1,threefour,,,,,,,,,,,,,,,,,,,,,,,,,,,,,,,,,,,,,,,,,,,,,,,,,,,,,,,,,,,,,,,,,,,,,,,,,,,,,,,,,,,,,,,,,,,,,,,,,,,,,,,,,,,,,,,,,,,,,,,,,,,,,,,,,,,,,,,,,,,,,,,,,,,,,,,,,,,,,
,,,,,,610667edefdc1ad424021209,62c53a8af30b92daefb4e187,2022-07-06_09h37.27.006,Colour_Asymmetry_Pilot,2022.1.3,Win32,59.36832106,62c50e9c1127f2cd403a315f,0,136,136,2,1,twoone,,,,,,,,,,,,,,,,,,,,,,,,,,,,,,,,,,,,,,,,,,,,,,,,,,,,,,,,,,,,,,,,,,,,,,,,,,,,,,,,,,,,,,,,,,,,,,,,,,,,,,,,,,,,,,,,,,,,,,,,,,,,,,,,,,,,,,,,,,,,,,,,,,,,,,,,,,,,,
,,,,,,610667edefdc1ad424021209,62c53a8af30b92daefb4e187,2022-07-06_09h37.27.006,Colour_Asymmetry_Pilot,2022.1.3,Win32,59.36832106,62c50e9c1127f2cd403a315f,0,137,137,64,1,onetwo,,,,,,,,,,,,,,,,,,,,,,,,,,,,,,,,,,,,,,,,,,,,,,,,,,,,,,,,,,,,,,,,,,,,,,,,,,,,,,,,,,,,,,,,,,,,,,,,,,,,,,,,,,,,,,,,,,,,,,,,,,,,,,,,,,,,,,,,,,,,,,,,,,,,,,,,,,,,,
,,,,,,610667edefdc1ad424021209,62c53a8af30b92daefb4e187,2022-07-06_09h37.27.006,Colour_Asymmetry_Pilot,2022.1.3,Win32,59.36832106,62c50e9c1127f2cd403a315f,0,138,138,119,1,fourthree,,,,,,,,,,,,,,,,,,,,,,,,,,,,,,,,,,,,,,,,,,,,,,,,,,,,,,,,,,,,,,,,,,,,,,,,,,,,,,,,,,,,,,,,,,,,,,,,,,,,,,,,,,,,,,,,,,,,,,,,,,,,,,,,,,,,,,,,,,,,,,,,,,,,,,,,,,,,,
,,,,,,610667edefdc1ad424021209,62c53a8af30b92daefb4e187,2022-07-06_09h37.27.006,Colour_Asymmetry_Pilot,2022.1.3,Win32,59.36832106,62c50e9c1127f2cd403a315f,0,139,139,123,1,twofour,,,,,,,,,,,,,,,,,,,,,,,,,,,,,,,,,,,,,,,,,,,,,,,,,,,,,,,,,,,,,,,,,,,,,,,,,,,,,,,,,,,,,,,,,,,,,,,,,,,,,,,,,,,,,,,,,,,,,,,,,,,,,,,,,,,,,,,,,,,,,,,,,,,,,,,,,,,,,
,,,,,,610667edefdc1ad424021209,62c53a8af30b92daefb4e187,2022-07-06_09h37.27.006,Colour_Asymmetry_Pilot,2022.1.3,Win32,59.36832106,62c50e9c1127f2cd403a315f,0,140,140,121,1,onethree,,,,,,,,,,,,,,,,,,,,,,,,,,,,,,,,,,,,,,,,,,,,,,,,,,,,,,,,,,,,,,,,,,,,,,,,,,,,,,,,,,,,,,,,,,,,,,,,,,,,,,,,,,,,,,,,,,,,,,,,,,,,,,,,,,,,,,,,,,,,,,,,,,,,,,,,,,,,,
,,,,,,610667edefdc1ad424021209,62c53a8af30b92daefb4e187,2022-07-06_09h37.27.006,Colour_Asymmetry_Pilot,2022.1.3,Win32,59.36832106,62c50e9c1127f2cd403a315f,0,141,141,131,1,twofour,,,,,,,,,,,,,,,,,,,,,,,,,,,,,,,,,,,,,,,,,,,,,,,,,,,,,,,,,,,,,,,,,,,,,,,,,,,,,,,,,,,,,,,,,,,,,,,,,,,,,,,,,,,,,,,,,,,,,,,,,,,,,,,,,,,,,,,,,,,,,,,,,,,,,,,,,,,,,
,,,,,,610667edefdc1ad424021209,62c53a8af30b92daefb4e187,2022-07-06_09h37.27.006,Colour_Asymmetry_Pilot,2022.1.3,Win32,59.36832106,62c50e9c1127f2cd403a315f,0,142,142,8,1,onetwo,,,,,,,,,,,,,,,,,,,,,,,,,,,,,,,,,,,,,,,,,,,,,,,,,,,,,,,,,,,,,,,,,,,,,,,,,,,,,,,,,,,,,,,,,,,,,,,,,,,,,,,,,,,,,,,,,,,,,,,,,,,,,,,,,,,,,,,,,,,,,,,,,,,,,,,,,,,,,
,,,,,,610667edefdc1ad424021209,62c53a8af30b92daefb4e187,2022-07-06_09h37.27.006,Colour_Asymmetry_Pilot,2022.1.3,Win32,59.36832106,62c50e9c1127f2cd403a315f,0,143,143,127,1,fourthree,,,,,,,,,,,,,,,,,,,,,,,,,,,,,,,,,,,,,,,,,,,,,,,,,,,,,,,,,,,,,,,,,,,,,,,,,,,,,,,,,,,,,,,,,,,,,,,,,,,,,,,,,,,,,,,,,,,,,,,,,,,,,,,,,,,,,,,,,,,,,,,,,,,,,,,,,,,,,
,,,,,,610667edefdc1ad424021209,62c53a8af30b92daefb4e187,2022-07-06_09h37.27.006,Colour_Asymmetry_Pilot,2022.1.3,Win32,59.36832106,62c50e9c1127f2cd403a315f,0,144,144,11,1,twofour,,,,,,,,,,,,,,,,,,,,,,,,,,,,,,,,,,,,,,,,,,,,,,,,,,,,,,,,,,,,,,,,,,,,,,,,,,,,,,,,,,,,,,,,,,,,,,,,,,,,,,,,,,,,,,,,,,,,,,,,,,,,,,,,,,,,,,,,,,,,,,,,,,,,,,,,,,,,,
,,,,,,610667edefdc1ad424021209,62c53a8af30b92daefb4e187,2022-07-06_09h37.27.006,Colour_Asymmetry_Pilot,2022.1.3,Win32,59.36832106,62c50e9c1127f2cd403a315f,0,145,145,66,1,twoone,,,,,,,,,,,,,,,,,,,,,,,,,,,,,,,,,,,,,,,,,,,,,,,,,,,,,,,,,,,,,,,,,,,,,,,,,,,,,,,,,,,,,,,,,,,,,,,,,,,,,,,,,,,,,,,,,,,,,,,,,,,,,,,,,,,,,,,,,,,,,,,,,,,,,,,,,,,,,
,,,,,,610667edefdc1ad424021209,62c53a8af30b92daefb4e187,2022-07-06_09h37.27.006,Colour_Asymmetry_Pilot,2022.1.3,Win32,59.36832106,62c50e9c1127f2cd403a315f,0,146,146,67,1,twofour,,,,,,,,,,,,,,,,,,,,,,,,,,,,,,,,,,,,,,,,,,,,,,,,,,,,,,,,,,,,,,,,,,,,,,,,,,,,,,,,,,,,,,,,,,,,,,,,,,,,,,,,,,,,,,,,,,,,,,,,,,,,,,,,,,,,,,,,,,,,,,,,,,,,,,,,,,,,,
,,,,,,610667edefdc1ad424021209,62c53a8af30b92daefb4e187,2022-07-06_09h37.27.006,Colour_Asymmetry_Pilot,2022.1.3,Win32,59.36832106,62c50e9c1127f2cd403a315f,0,147,147,37,1,threefour,,,,,,,,,,,,,,,,,,,,,,,,,,,,,,,,,,,,,,,,,,,,,,,,,,,,,,,,,,,,,,,,,,,,,,,,,,,,,,,,,,,,,,,,,,,,,,,,,,,,,,,,,,,,,,,,,,,,,,,,,,,,,,,,,,,,,,,,,,,,,,,,,,,,,,,,,,,,,
,,,,,,610667edefdc1ad424021209,62c53a8af30b92daefb4e187,2022-07-06_09h37.27.006,Colour_Asymmetry_Pilot,2022.1.3,Win32,59.36832106,62c50e9c1127f2cd403a315f,0,148,148,35,1,twofour,,,,,,,,,,,,,,,,,,,,,,,,,,,,,,,,,,,,,,,,,,,,,,,,,,,,,,,,,,,,,,,,,,,,,,,,,,,,,,,,,,,,,,,,,,,,,,,,,,,,,,,,,,,,,,,,,,,,,,,,,,,,,,,,,,,,,,,,,,,,,,,,,,,,,,,,,,,,,
,,,,,,610667edefdc1ad424021209,62c53a8af30b92daefb4e187,2022-07-06_09h37.27.006,Colour_Asymmetry_Pilot,2022.1.3,Win32,59.36832106,62c50e9c1127f2cd403a315f,0,149,149,140,1,threeone,,,,,,,,,,,,,,,,,,,,,,,,,,,,,,,,,,,,,,,,,,,,,,,,,,,,,,,,,,,,,,,,,,,,,,,,,,,,,,,,,,,,,,,,,,,,,,,,,,,,,,,,,,,,,,,,,,,,,,,,,,,,,,,,,,,,,,,,,,,,,,,,,,,,,,,,,,,,,
,,,,,,610667edefdc1ad424021209,62c53a8af30b92daefb4e187,2022-07-06_09h37.27.006,Colour_Asymmetry_Pilot,2022.1.3,Win32,59.36832106,62c50e9c1127f2cd403a315f,0,150,150,49,1,onethree,,,,,,,,,,,,,,,,,,,,,,,,,,,,,,,,,,,,,,,,,,,,,,,,,,,,,,,,,,,,,,,,,,,,,,,,,,,,,,,,,,,,,,,,,,,,,,,,,,,,,,,,,,,,,,,,,,,,,,,,,,,,,,,,,,,,,,,,,,,,,,,,,,,,,,,,,,,,,
,,,,,,610667edefdc1ad424021209,62c53a8af30b92daefb4e187,2022-07-06_09h37.27.006,Colour_Asymmetry_Pilot,2022.1.3,Win32,59.36832106,62c50e9c1127f2cd403a315f,0,151,151,128,1,onetwo,,,,,,,,,,,,,,,,,,,,,,,,,,,,,,,,,,,,,,,,,,,,,,,,,,,,,,,,,,,,,,,,,,,,,,,,,,,,,,,,,,,,,,,,,,,,,,,,,,,,,,,,,,,,,,,,,,,,,,,,,,,,,,,,,,,,,,,,,,,,,,,,,,,,,,,,,,,,,
,,,,,,610667edefdc1ad424021209,62c53a8af30b92daefb4e187,2022-07-06_09h37.27.006,Colour_Asymmetry_Pilot,2022.1.3,Win32,59.36832106,62c50e9c1127f2cd403a315f,0,152,152,50,1,twoone,,,,,,,,,,,,,,,,,,,,,,,,,,,,,,,,,,,,,,,,,,,,,,,,,,,,,,,,,,,,,,,,,,,,,,,,,,,,,,,,,,,,,,,,,,,,,,,,,,,,,,,,,,,,,,,,,,,,,,,,,,,,,,,,,,,,,,,,,,,,,,,,,,,,,,,,,,,,,
,,,,,,610667edefdc1ad424021209,62c53a8af30b92daefb4e187,2022-07-06_09h37.27.006,Colour_Asymmetry_Pilot,2022.1.3,Win32,59.36832106,62c50e9c1127f2cd403a315f,0,153,153,21,1,threefour,,,,,,,,,,,,,,,,,,,,,,,,,,,,,,,,,,,,,,,,,,,,,,,,,,,,,,,,,,,,,,,,,,,,,,,,,,,,,,,,,,,,,,,,,,,,,,,,,,,,,,,,,,,,,,,,,,,,,,,,,,,,,,,,,,,,,,,,,,,,,,,,,,,,,,,,,,,,,
,,,,,,610667edefdc1ad424021209,62c53a8af30b92daefb4e187,2022-07-06_09h37.27.006,Colour_Asymmetry_Pilot,2022.1.3,Win32,59.36832106,62c50e9c1127f2cd403a315f,0,154,154,95,1,fourthree,,,,,,,,,,,,,,,,,,,,,,,,,,,,,,,,,,,,,,,,,,,,,,,,,,,,,,,,,,,,,,,,,,,,,,,,,,,,,,,,,,,,,,,,,,,,,,,,,,,,,,,,,,,,,,,,,,,,,,,,,,,,,,,,,,,,,,,,,,,,,,,,,,,,,,,,,,,,,
,,,,,,610667edefdc1ad424021209,62c53a8af30b92daefb4e187,2022-07-06_09h37.27.006,Colour_Asymmetry_Pilot,2022.1.3,Win32,59.36832106,62c50e9c1127f2cd403a315f,0,155,155,136,1,onetwo,,,,,,,,,,,,,,,,,,,,,,,,,,,,,,,,,,,,,,,,,,,,,,,,,,,,,,,,,,,,,,,,,,,,,,,,,,,,,,,,,,,,,,,,,,,,,,,,,,,,,,,,,,,,,,,,,,,,,,,,,,,,,,,,,,,,,,,,,,,,,,,,,,,,,,,,,,,,,
,,,,,,610667edefdc1ad424021209,62c53a8af30b92daefb4e187,2022-07-06_09h37.27.006,Colour_Asymmetry_Pilot,2022.1.3,Win32,59.36832106,62c50e9c1127f2cd403a315f,0,156,156,88,1,onetwo,,,,,,,,,,,,,,,,,,,,,,,,,,,,,,,,,,,,,,,,,,,,,,,,,,,,,,,,,,,,,,,,,,,,,,,,,,,,,,,,,,,,,,,,,,,,,,,,,,,,,,,,,,,,,,,,,,,,,,,,,,,,,,,,,,,,,,,,,,,,,,,,,,,,,,,,,,,,,
,,,,,,610667edefdc1ad424021209,62c53a8af30b92daefb4e187,2022-07-06_09h37.27.006,Colour_Asymmetry_Pilot,2022.1.3,Win32,59.36832106,62c50e9c1127f2cd403a315f,0,157,157,9,1,onethree,,,,,,,,,,,,,,,,,,,,,,,,,,,,,,,,,,,,,,,,,,,,,,,,,,,,,,,,,,,,,,,,,,,,,,,,,,,,,,,,,,,,,,,,,,,,,,,,,,,,,,,,,,,,,,,,,,,,,,,,,,,,,,,,,,,,,,,,,,,,,,,,,,,,,,,,,,,,,
,,,,,,610667edefdc1ad424021209,62c53a8af30b92daefb4e187,2022-07-06_09h37.27.006,Colour_Asymmetry_Pilot,2022.1.3,Win32,59.36832106,62c50e9c1127f2cd403a315f,0,158,158,126,1,fourtwo,,,,,,,,,,,,,,,,,,,,,,,,,,,,,,,,,,,,,,,,,,,,,,,,,,,,,,,,,,,,,,,,,,,,,,,,,,,,,,,,,,,,,,,,,,,,,,,,,,,,,,,,,,,,,,,,,,,,,,,,,,,,,,,,,,,,,,,,,,,,,,,,,,,,,,,,,,,,,
,,,,,,610667edefdc1ad424021209,62c53a8af30b92daefb4e187,2022-07-06_09h37.27.006,Colour_Asymmetry_Pilot,2022.1.3,Win32,59.36832106,62c50e9c1127f2cd403a315f,0,159,159,141,1,threefour,,,,,,,,,,,,,,,,,,,,,,,,,,,,,,,,,,,,,,,,,,,,,,,,,,,,,,,,,,,,,,,,,,,,,,,,,,,,,,,,,,,,,,,,,,,,,,,,,,,,,,,,,,,,,,,,,,,,,,,,,,,,,,,,,,,,,,,,,,,,,,,,,,,,,,,,,,,,,
,,,,,,610667edefdc1ad424021209,62c53a8af30b92daefb4e187,2022-07-06_09h37.27.006,Colour_Asymmetry_Pilot,2022.1.3,Win32,59.36832106,62c50e9c1127f2cd403a315f,0,160,160,38,1,fourtwo,,,,,,,,,,,,,,,,,,,,,,,,,,,,,,,,,,,,,,,,,,,,,,,,,,,,,,,,,,,,,,,,,,,,,,,,,,,,,,,,,,,,,,,,,,,,,,,,,,,,,,,,,,,,,,,,,,,,,,,,,,,,,,,,,,,,,,,,,,,,,,,,,,,,,,,,,,,,,
,,,,,,610667edefdc1ad424021209,62c53a8af30b92daefb4e187,2022-07-06_09h37.27.006,Colour_Asymmetry_Pilot,2022.1.3,Win32,59.36832106,62c50e9c1127f2cd403a315f,0,161,161,81,1,onethree,,,,,,,,,,,,,,,,,,,,,,,,,,,,,,,,,,,,,,,,,,,,,,,,,,,,,,,,,,,,,,,,,,,,,,,,,,,,,,,,,,,,,,,,,,,,,,,,,,,,,,,,,,,,,,,,,,,,,,,,,,,,,,,,,,,,,,,,,,,,,,,,,,,,,,,,,,,,,
,,,,,,610667edefdc1ad424021209,62c53a8af30b92daefb4e187,2022-07-06_09h37.27.006,Colour_Asymmetry_Pilot,2022.1.3,Win32,59.36832106,62c50e9c1127f2cd403a315f,,,,,,,space,5.447,space,45.2232,space,39.2458,space,69.6763,space,3.3188,space,5.0565,"[0.9372,0.20779999999999998,0.2704]",twofour,"[-0.8982,-0.37259999999999993,0.2784]",-4,109.634,-50,112,1,0,0,response7disk_5,-13,10,1,0,0,rectangle_8,-13,10,1,0,0,1,-13,10,1,0,0,0,0,0,0,1,,,,,,,,,,,,,,,,,,,,,,,,,,,,,,,,,,,,,,,,,,,,,,,,,,,,,,,,,,,,,,,,,,,,,,,,,,,,,,,,,,,,,,,,,,,,,,,,,,,,,,,,,,,,,,,,
,,,,,,610667edefdc1ad424021209,62c53a8af30b92daefb4e187,2022-07-06_09h37.27.006,Colour_Asymmetry_Pilot,2022.1.3,Win32,59.36832106,62c50e9c1127f2cd403a315f,,,,,,,,,,,,,,,,,,,"[-0.06680000000000008,-0.45100000000000007,-0.906]",twofour,"[-0.9688,-0.38039999999999996,-0.41979999999999995]",-4,6.4863,-34,98,1,0,0,response7disk_5,-18,-4,1,0,0,rectangle_8,-18,-4,1,0,0,1,-18,-4,1,0,0,1,0,1,0,1,,,,,,,,,,,,,,,,,,,,,,,,,,,,,,,,,,,,,,,,,,,,,,,,,,,,,,,,,,,,,,,,,,,,,,,,,,,,,,,,,,,,,,,,,,,,,,,,,,,,,,,,,,,,,,,,
,,,,,,610667edefdc1ad424021209,62c53a8af30b92daefb4e187,2022-07-06_09h37.27.006,Colour_Asymmetry_Pilot,2022.1.3,Win32,59.36832106,62c50e9c1127f2cd403a315f,,,,,,,,,,,,,,,,,,,"[-0.9688,-0.7412000000000001,-0.4902000000000001]",twoone,"[0.796,0.2156,-0.27859999999999996]",-4,1.7828,-36,71,1,0,0,response7disk_5,-7,-8,1,0,0,rectangle_8,-7,-8,1,0,0,1,-7,-8,1,0,0,2,0,2,0,1,,,,,,,,,,,,,,,,,,,,,,,,,,,,,,,,,,,,,,,,,,,,,,,,,,,,,,,,,,,,,,,,,,,,,,,,,,,,,,,,,,,,,,,,,,,,,,,,,,,,,,,,,,,,,,,,
,,,,,,610667edefdc1ad424021209,62c53a8af30b92daefb4e187,2022-07-06_09h37.27.006,Colour_Asymmetry_Pilot,2022.1.3,Win32,59.36832106,62c50e9c1127f2cd403a315f,,,,,,,,,,,,,,,,,,,"[-0.4902000000000001,0.2704,-0.45899999999999996]",threeone,"[0.09799999999999986,-0.24719999999999998,0.15280000000000005]",-4,3.3365,-41,71,1,0,0,response7disk_5,-8,14,1,0,0,rectangle_8,59,-85,1,0,0,1,0,1,1,0,0,3,0,3,0,1,response3disk_7,4,rectangle_4,,,,,,,,,,,,,,,,,,,,,,,,,,,,,,,,,,,,,,,,,,,,,,,,,,,,,,,,,,,,,,,,,,,,,,,,,,,,,,,,,,,,,,,,,,,,,,,,,,,,,,,,,,,,,
,,,,,,610667edefdc1ad424021209,62c53a8af30b92daefb4e187,2022-07-06_09h37.27.006,Colour_Asymmetry_Pilot,2022.1.3,Win32,59.36832106,62c50e9c1127f2cd403a315f,,,,,,,,,,,,,,,,,,,"[-0.20799999999999996,-0.655,-0.01980000000000004]",onetwo,"[0.23920000000000008,0.2704,0.16060000000000008]",-3,3.4596,-74,36,1,0,0,response7disk_5,-4,5,1,0,0,rectangle_8,-4,5,1,0,0,1,-4,5,1,0,0,4,0,4,0,1,,,,,,,,,,,,,,,,,,,,,,,,,,,,,,,,,,,,,,,,,,,,,,,,,,,,,,,,,,,,,,,,,,,,,,,,,,,,,,,,,,,,,,,,,,,,,,,,,,,,,,,,,,,,,,,,
,,,,,,610667edefdc1ad424021209,62c53a8af30b92daefb4e187,2022-07-06_09h37.27.006,Colour_Asymmetry_Pilot,2022.1.3,Win32,59.36832106,62c50e9c1127f2cd403a315f,,,,,,,,,,,,,,,,,,,"[-0.26280000000000003,-0.2158,-0.3256]",threeone,"[0.7176,-0.906,-0.6864]",-4,2.094,-41,117,1,0,0,response7disk_5,-4,9,1,0,0,rectangle_8,-4,9,1,0,0,1,-4,9,1,0,0,5,0,5,0,1,,,,,,,,,,,,,,,,,,,,,,,,,,,,,,,,,,,,,,,,,,,,,,,,,,,,,,,,,,,,,,,,,,,,,,,,,,,,,,,,,,,,,,,,,,,,,,,,,,,,,,,,,,,,,,,,
,,,,,,610667edefdc1ad424021209,62c53a8af30b92daefb4e187,2022-07-06_09h37.27.006,Colour_Asymmetry_Pilot,2022.1.3,Win32,59.36832106,62c50e9c1127f2cd403a315f,,,,,,,,,,,,,,,,,,,"[0.3802000000000001,0.19199999999999995,-0.6394]",onethree,"[0.9372,0.20779999999999998,0.2704]",-3,1.8352,-58,32,1,0,0,response7disk_5,18,-8,1,0,0,rectangle_8,18,-8,1,0,0,1,18,-8,1,0,0,6,0,6,0,1,,,,,,,,,,,,,,,,,,,,,,,,,,,,,,,,,,,,,,,,,,,,,,,,,,,,,,,,,,,,,,,,,,,,,,,,,,,,,,,,,,,,,,,,,,,,,,,,,,,,,,,,,,,,,,,,
,,,,,,610667edefdc1ad424021209,62c53a8af30b92daefb4e187,2022-07-06_09h37.27.006,Colour_Asymmetry_Pilot,2022.1.3,Win32,59.36832106,62c50e9c1127f2cd403a315f,,,,,,,,,,,,,,,,,,,,twoone,,3,1.9745,,,,,,,,,,,,,,,,,,,,,,,,,,,,,,,,space,7.3119,"[-0.8198,-0.5138,-0.7492000000000001]","[-0.5922000000000001,-0.7492000000000001,-0.5296000000000001]",77,42,1,0,0,response1disk,14,5,1,0,0,rectangle,91,50,1,0,0,response1disk_3,3,3,2.6193,1,18,4,1,0,0,rectangle,0,0,0,161,1,80,second,,,,,,,,,,,,,,,,,,,,,,,,,,,,,,,,,,,,,,,,,,,,,,,,,,,,,,,,,,,,,,,,,,,,,,
,,,,,,610667edefdc1ad424021209,62c53a8af30b92daefb4e187,2022-07-06_09h37.27.006,Colour_Asymmetry_Pilot,2022.1.3,Win32,59.36832106,62c50e9c1127f2cd403a315f,,,,,,,,,,,,,,,,,,,,fourtwo,,-2,1.9829,,,,,,,,,,,,,,,,,,,,,,,,,,,,,,,,,,"[-0.2942,-0.7648,-0.7492000000000001]","[0.796,0.2156,-0.27859999999999996]",-59,-23,1,0,0,response5disk,-18,-6,1,0,0,rectangle,-18,-6,1,0,0,,3,3,0.0006,0,-18,-6,1,0,0,,0,1,1,158,1,77,second,,,,,,,,,,,,,,,,,,,,,,,,,,,,,,,,,,,,,,,,,,,,,,,,,,,,,,,,,,,,,,,,,,,,,,
,,,,,,610667edefdc1ad424021209,62c53a8af30b92daefb4e187,2022-07-06_09h37.27.006,Colour_Asymmetry_Pilot,2022.1.3,Win32,59.36832106,62c50e9c1127f2cd403a315f,,,,,,,,,,,,,,,,,,,,onetwo,,1,4.2683,,,,,,,,,,,,,,,,,,,,,,,,,,,,,,,,,,"[-0.050999999999999934,-0.6706000000000001,-0.804]","[0.04299999999999993,0.16060000000000008,-0.6628000000000001]",38,-61,1,0,0,response3disk,1,7,1,0,0,rectangle,1,7,1,0,0,,3,3,0.0004,0,1,7,1,0,0,,0,2,2,89,1,8,second,,,,,,,,,,,,,,,,,,,,,,,,,,,,,,,,,,,,,,,,,,,,,,,,,,,,,,,,,,,,,,,,,,,,,,
,,,,,,610667edefdc1ad424021209,62c53a8af30b92daefb4e187,2022-07-06_09h37.27.006,Colour_Asymmetry_Pilot,2022.1.3,Win32,59.36832106,62c50e9c1127f2cd403a315f,,,,,,,,,,,,,,,,,,,,fourtwo,,-1,3.9343,,,,,,,,,,,,,,,,,,,,,,,,,,,,,,,,,,"[-0.09019999999999995,0.44300000000000006,0.5371999999999999]","[0.9763999999999999,0.8588,-0.05900000000000005]",-30,-83,1,0,0,response5disk,26,13,1,0,0,rectangle,26,13,1,0,0,,3,1,0.0019,0,26,13,1,0,0,,0,3,3,121,1,40,second,,,,,,,,,,,,,,,,,,,,,,,,,,,,,,,,,,,,,,,,,,,,,,,,,,,,,,,,,,,,,,,,,,,,,,
,,,,,,610667edefdc1ad424021209,62c53a8af30b92daefb4e187,2022-07-06_09h37.27.006,Colour_Asymmetry_Pilot,2022.1.3,Win32,59.36832106,62c50e9c1127f2cd403a315f,,,,,,,,,,,,,,,,,,,,threeone,,-1,2.7318,,,,,,,,,,,,,,,,,,,,,,,,,,,,,,,,,,"[-0.6,0.16860000000000008,0.44300000000000006]","[-0.5922000000000001,-0.7492000000000001,-0.5296000000000001]",-35,-75,1,0,0,response5disk,7,-1,1,0,0,rectangle,7,-1,1,0,0,,3,1,0.0003,0,7,-1,1,0,0,,0,4,4,115,1,34,second,,,,,,,,,,,,,,,,,,,,,,,,,,,,,,,,,,,,,,,,,,,,,,,,,,,,,,,,,,,,,,,,,,,,,,
,,,,,,610667edefdc1ad424021209,62c53a8af30b92daefb4e187,2022-07-06_09h37.27.006,Colour_Asymmetry_Pilot,2022.1.3,Win32,59.36832106,62c50e9c1127f2cd403a315f,,,,,,,,,,,,,,,,,,,,threefour,,2,1.5443,,,,,,,,,,,,,,,,,,,,,,,,,,,,,,,,,,"[-0.9688,-0.4902000000000001,-0.12159999999999993]","[-0.2942,-0.24719999999999998,-0.357]",85,-39,1,0,0,response3disk,17,4,1,0,0,rectangle,17,4,1,0,0,,3,1,0.0003,0,17,4,1,0,0,,0,5,5,72,1,72,first,,,,,,,,,,,,,,,,,,,,,,,,,,,,,,,,,,,,,,,,,,,,,,,,,,,,,,,,,,,,,,,,,,,,,,
,,,,,,610667edefdc1ad424021209,62c53a8af30b92daefb4e187,2022-07-06_09h37.27.006,Colour_Asymmetry_Pilot,2022.1.3,Win32,59.36832106,62c50e9c1127f2cd403a315f,,,,,,,,,,,,,,,,,,,,onetwo,,-1,1.7889,,,,,,,,,,,,,,,,,,,,,,,,,,,,,,,,,,"[-0.6942,-0.7648,-0.12959999999999994]","[0.0351999999999999,0.41159999999999997,0.0038000000000000256]",-46,-107,1,0,0,response5disk,8,-8,1,0,0,rectangle,8,-8,1,0,0,,3,2,0.0013,0,8,-8,1,0,0,,0,6,6,83,1,2,second,,,,,,,,,,,,,,,,,,,,,,,,,,,,,,,,,,,,,,,,,,,,,,,,,,,,,,,,,,,,,,,,,,,,,,
,,,,,,610667edefdc1ad424021209,62c53a8af30b92daefb4e187,2022-07-06_09h37.27.006,Colour_Asymmetry_Pilot,2022.1.3,Win32,59.36832106,62c50e9c1127f2cd403a315f,,,,,,,,,,,,,,,,,,,,fourtwo,,-2,2.6032,,,,,,,,,,,,,,,,,,,,,,,,,,,,,,,,,,"[0.37240000000000006,0.4980000000000002,-0.2864]","[-0.9296,-0.12959999999999994,-0.043199999999999905]",-66,-33,1,0,0,response5disk,-3,8,1,0,0,rectangle,-3,8,1,0,0,,3,2,0.0004,0,-3,8,1,0,0,,0,7,7,146,1,65,second,,,,,,,,,,,,,,,,,,,,,,,,,,,,,,,,,,,,,,,,,,,,,,,,,,,,,,,,,,,,,,,,,,,,,,
,,,,,,610667edefdc1ad424021209,62c53a8af30b92daefb4e187,2022-07-06_09h37.27.006,Colour_Asymmetry_Pilot,2022.1.3,Win32,59.36832106,62c50e9c1127f2cd403a315f,,,,,,,,,,,,,,,,,,,,fourthree,,-2,1.9831,,,,,,,,,,,,,,,,,,,,,,,,,,,,,,,,,,"[0.22340000000000004,-0.9296,-0.7884]","[-0.2942,-0.24719999999999998,-0.357]",-77,-54,1,0,0,response5disk,-19,-9,1,0,0,rectangle,-19,-9,1,0,0,,3,1,0.0031,0,-19,-9,1,0,0,,0,8,8,23,1,23,first,,,,,,,,,,,,,,,,,,,,,,,,,,,,,,,,,,,,,,,,,,,,,,,,,,,,,,,,,,,,,,,,,,,,,,
,,,,,,610667edefdc1ad424021209,62c53a8af30b92daefb4e187,2022-07-06_09h37.27.006,Colour_Asymmetry_Pilot,2022.1.3,Win32,59.36832106,62c50e9c1127f2cd403a315f,,,,,,,,,,,,,,,,,,,,twoone,,2,3.7267,,,,,,,,,,,,,,,,,,,,,,,,,,,,,,,,,,"[0.19199999999999995,0.18419999999999992,0.5136000000000001]","[0.11359999999999992,0.6312,0.5213999999999999]",92,-23,1,0,0,response3disk,-9,8,1,0,0,rectangle,53,-78,1,0,0,response3disk_3,1,1,2.4199,1,-8,7,1,0,0,rectangle,0,9,9,55,1,55,first,,,,,,,,,,,,,,,,,,,,,,,,,,,,,,,,,,,,,,,,,,,,,,,,,,,,,,,,,,,,,,,,,,,,,,
,,,,,,610667edefdc1ad424021209,62c53a8af30b92daefb4e187,2022-07-06_09h37.27.006,Colour_Asymmetry_Pilot,2022.1.3,Win32,59.36832106,62c50e9c1127f2cd403a315f,,,,,,,,,,,,,,,,,,,,twofour,,3,1.2759,,,,,,,,,,,,,,,,,,,,,,,,,,,,,,,,,,"[-0.07459999999999989,0.12139999999999995,-0.9922]","[-0.7412000000000001,-0.08239999999999992,-0.6864]",77,44,1,0,0,response1disk,12,1,1,0,0,rectangle,12,1,1,0,0,,1,1,0.0002,0,12,1,1,0,0,,0,10,10,56,1,56,first,,,,,,,,,,,,,,,,,,,,,,,,,,,,,,,,,,,,,,,,,,,,,,,,,,,,,,,,,,,,,,,,,,,,,,
,,,,,,610667edefdc1ad424021209,62c53a8af30b92daefb4e187,2022-07-06_09h37.27.006,Colour_Asymmetry_Pilot,2022.1.3,Win32,59.36832106,62c50e9c1127f2cd403a315f,,,,,,,,,,,,,,,,,,,,twoone,,2,2.387,,,,,,,,,,,,,,,,,,,,,,,,,,,,,,,,,,"[-0.9296,-0.12959999999999994,-0.043199999999999905]","[0.2862,0.7802,0.3568]",71,-51,1,0,0,response3disk,17,-1,1,0,0,rectangle,17,-1,1,0,0,,1,2,0.0016,0,17,-1,1,0,0,,0,11,11,120,1,39,second,,,,,,,,,,,,,,,,,,,,,,,,,,,,,,,,,,,,,,,,,,,,,,,,,,,,,,,,,,,,,,,,,,,,,,
,,,,,,610667edefdc1ad424021209,62c53a8af30b92daefb4e187,2022-07-06_09h37.27.006,Colour_Asymmetry_Pilot,2022.1.3,Win32,59.36832106,62c50e9c1127f2cd403a315f,,,,,,,,,,,,,,,,,,,,threeone,,4,0.9684,,,,,,,,,,,,,,,,,,,,,,,,,,,,,,,,,,"[-0.10599999999999998,-0.10599999999999998,0.5841999999999998]","[0.09799999999999986,-0.24719999999999998,0.15280000000000005]",51,75,1,0,0,response1disk,-4,-8,1,0,0,rectangle,-4,-8,1,0,0,,1,2,0.0006,0,-4,-8,1,0,0,,0,12,12,90,1,9,second,,,,,,,,,,,,,,,,,,,,,,,,,,,,,,,,,,,,,,,,,,,,,,,,,,,,,,,,,,,,,,,,,,,,,,
,,,,,,610667edefdc1ad424021209,62c53a8af30b92daefb4e187,2022-07-06_09h37.27.006,Colour_Asymmetry_Pilot,2022.1.3,Win32,59.36832106,62c50e9c1127f2cd403a315f,,,,,,,,,,,,,,,,,,,,twofour,,-2,1.101,,,,,,,,,,,,,,,,,,,,,,,,,,,,,,,,,,"[-0.9296,-0.12959999999999994,-0.043199999999999905]","[0.37240000000000006,0.4980000000000002,-0.2864]",-66,-40,1,0,0,response5disk,-14,-6,1,0,0,rectangle,-14,-6,1,0,0,,1,1,0.0015,0,-14,-6,1,0,0,,0,13,13,65,1,65,first,,,,,,,,,,,,,,,,,,,,,,,,,,,,,,,,,,,,,,,,,,,,,,,,,,,,,,,,,,,,,,,,,,,,,,
,,,,,,610667edefdc1ad424021209,62c53a8af30b92daefb4e187,2022-07-06_09h37.27.006,Colour_Asymmetry_Pilot,2022.1.3,Win32,59.36832106,62c50e9c1127f2cd403a315f,,,,,,,,,,,,,,,,,,,,threefour,,1,2.1836,,,,,,,,,,,,,,,,,,,,,,,,,,,,,,,,,,"[0.7018,0.7176,0.6155999999999999]","[-0.17659999999999998,0.3253999999999999,0.19999999999999996]",56,-73,1,0,0,response3disk,8,0,1,0,0,rectangle,8,0,1,0,0,,1,2,0.0022,0,8,0,1,0,0,,0,14,14,125,1,44,second,,,,,,,,,,,,,,,,,,,,,,,,,,,,,,,,,,,,,,,,,,,,,,,,,,,,,,,,,,,,,,,,,,,,,,
,,,,,,610667edefdc1ad424021209,62c53a8af30b92daefb4e187,2022-07-06_09h37.27.006,Colour_Asymmetry_Pilot,2022.1.3,Win32,59.36832106,62c50e9c1127f2cd403a315f,,,,,,,,,,,,,,,,,,,,onetwo,,1,1.1857,,,,,,,,,,,,,,,,,,,,,,,,,,,,,,,,,,"[0.09799999999999986,-0.24719999999999998,0.15280000000000005]","[-0.10599999999999998,-0.10599999999999998,0.5841999999999998]",34,-52,1,0,0,response3disk,6,4,1,0,0,rectangle,6,4,1,0,0,,1,1,0.0017,0,6,4,1,0,0,,0,15,15,9,1,9,first,,,,,,,,,,,,,,,,,,,,,,,,,,,,,,,,,,,,,,,,,,,,,,,,,,,,,,,,,,,,,,,,,,,,,,
,,,,,,610667edefdc1ad424021209,62c53a8af30b92daefb4e187,2022-07-06_09h37.27.006,Colour_Asymmetry_Pilot,2022.1.3,Win32,59.36832106,62c50e9c1127f2cd403a315f,,,,,,,,,,,,,,,,,,,,onethree,,-1,2.1026,,,,,,,,,,,,,,,,,,,,,,,,,,,,,,,,,,"[-0.45899999999999996,-0.3256,-0.9374]","[-0.9688,-0.7412000000000001,-0.4902000000000001]",-59,-66,1,0,0,response5disk,2,-1,1,0,0,rectangle,2,-1,1,0,0,,1,3,0.0015,0,2,-1,1,0,0,,0,16,16,66,1,66,first,,,,,,,,,,,,,,,,,,,,,,,,,,,,,,,,,,,,,,,,,,,,,,,,,,,,,,,,,,,,,,,,,,,,,,
,,,,,,610667edefdc1ad424021209,62c53a8af30b92daefb4e187,2022-07-06_09h37.27.006,Colour_Asymmetry_Pilot,2022.1.3,Win32,59.36832106,62c50e9c1127f2cd403a315f,,,,,,,,,,,,,,,,,,,,fourthree,,-4,0.9207,,,,,,,,,,,,,,,,,,,,,,,,,,,,,,,,,,"[-0.6706000000000001,-0.6157999999999999,-0.6786]","[1,0.12939999999999996,-1]",-31,67,1,0,0,response7disk,-9,9,1,0,0,rectangle,-9,9,1,0,0,,1,2,0.0015,0,-9,9,1,0,0,,0,17,17,116,1,35,second,,,,,,,,,,,,,,,,,,,,,,,,,,,,,,,,,,,,,,,,,,,,,,,,,,,,,,,,,,,,,,,,,,,,,,
