trials.thisRepN,trials.thisTrialN,trials.thisN,trials.thisIndex,trials.ran,Colourcodes,participant,session,date,expName,psychopyVersion,OS,frameRate,study_id,trials_4.thisRepN,trials_4.thisTrialN,trials_4.thisN,trials_4.thisIndex,trials_4.ran,StimulusPos,key_resp.keys,key_resp.rt,key_resp_2.keys,key_resp_2.rt,key_resp_15.keys,key_resp_15.rt,key_resp_17.keys,key_resp_17.rt,key_resp_9.keys,key_resp_9.rt,key_resp_10.keys,key_resp_10.rt,Circle1_col,Ecc,Circle2_col,similarity,response_time,mouse_5.x,mouse_5.y,mouse_5.leftButton,mouse_5.midButton,mouse_5.rightButton,mouse_5.clicked_name,mouse_10.x,mouse_10.y,mouse_10.leftButton,mouse_10.midButton,mouse_10.rightButton,mouse_10.clicked_name,mouse_7.x,mouse_7.y,mouse_7.leftButton,mouse_7.midButton,mouse_7.rightButton,catchnumberprac,mouse_6.x,mouse_6.y,mouse_6.leftButton,mouse_6.midButton,mouse_6.rightButton,duringprac.thisRepN,duringprac.thisTrialN,duringprac.thisN,duringprac.thisIndex,duringprac.ran,mouse_7.clicked_name,catchprac,mouse_6.clicked_name,key_resp_22.keys,key_resp_22.rt,Circle1_colour,Circle2_colour,mouse.x,mouse.y,mouse.leftButton,mouse.midButton,mouse.rightButton,mouse.clicked_name,mouse_2.x,mouse_2.y,mouse_2.leftButton,mouse_2.midButton,mouse_2.rightButton,mouse_2.clicked_name,mouse_3.x,mouse_3.y,mouse_3.leftButton,mouse_3.midButton,mouse_3.rightButton,catchresponse,catchnumber,response_time_catch,Catch,mouse_11.x,mouse_11.y,mouse_11.leftButton,mouse_11.midButton,mouse_11.rightButton,trials_2.thisRepN,trials_2.thisTrialN,trials_2.thisN,trials_2.thisIndex,trials_2.ran,Colourpair,Temporder,mouse_3.clicked_name,mouse_11.clicked_name,trials_3.thisRepN,trials_3.thisTrialN,trials_3.thisN,trials_3.thisIndex,trials_3.ran,key_resp_instr_Ishi.keys,key_resp_instr_Ishi.rt,Ishi_trial_keyresp.keys,Ishi_textbox.text,Ishi_mouse.x,Ishi_mouse.y,Ishi_mouse.leftButton,Ishi_mouse.midButton,Ishi_mouse.rightButton,Ishi_mouse.clicked_name,Ishi_loop.thisRepN,Ishi_loop.thisTrialN,Ishi_loop.thisN,Ishi_loop.thisIndex,Ishi_loop.ran,imageaddress,textbox.text,mouse_4.x,mouse_4.y,mouse_4.leftButton,mouse_4.midButton,mouse_4.rightButton,mouse_4.clicked_name,textbox_2.text,mouse_8.x,mouse_8.y,mouse_8.leftButton,mouse_8.midButton,mouse_8.rightButton,mouse_8.clicked_name,textbox_3.text,mouse_9.x,mouse_9.y,mouse_9.leftButton,mouse_9.midButton,mouse_9.rightButton,mouse_9.clicked_name,textbox_4.text,mouse_12.x,mouse_12.y,mouse_12.leftButton,mouse_12.midButton,mouse_12.rightButton,mouse_12.clicked_name,textbox_5.text,mouse_13.x,mouse_13.y,mouse_13.leftButton,mouse_13.midButton,mouse_13.rightButton,mouse_13.clicked_name,textbox_6.text,mouse_14.x,mouse_14.y,mouse_14.leftButton,mouse_14.midButton,mouse_14.rightButton,textbox_7.text,mouse_15.x,mouse_15.y,mouse_15.leftButton,mouse_15.midButton,mouse_15.rightButton,mouse_15.clicked_name
0,0,0,11,1,,615a05ea9fa698f79ec834a7,62c5393dd4c09d92ed7b8ccd,2022-07-06_09h27.36.767,Colour_Asymmetry_Pilot,2022.1.3,Win32,60.04202942,62c50e9c1127f2cd403a315f,,,,,,,,,,,,,,,,,,,,,,,,,,,,,,,,,,,,,,,,,,,,,,,,,,,,,,,,,,,,,,,,,,,,,,,,,,,,,,,,,,,,,,,,,,,,,,,,,,,,,,,,,,,,,,,,,,,,,,,,,,,,,,,,,,,,,,,,,,,,,,,,,,,,,,,,,,,,,,,,,,
0,1,1,4,1,,615a05ea9fa698f79ec834a7,62c5393dd4c09d92ed7b8ccd,2022-07-06_09h27.36.767,Colour_Asymmetry_Pilot,2022.1.3,Win32,60.04202942,62c50e9c1127f2cd403a315f,,,,,,,,,,,,,,,,,,,,,,,,,,,,,,,,,,,,,,,,,,,,,,,,,,,,,,,,,,,,,,,,,,,,,,,,,,,,,,,,,,,,,,,,,,,,,,,,,,,,,,,,,,,,,,,,,,,,,,,,,,,,,,,,,,,,,,,,,,,,,,,,,,,,,,,,,,,,,,,,,,
0,2,2,69,1,,615a05ea9fa698f79ec834a7,62c5393dd4c09d92ed7b8ccd,2022-07-06_09h27.36.767,Colour_Asymmetry_Pilot,2022.1.3,Win32,60.04202942,62c50e9c1127f2cd403a315f,,,,,,,,,,,,,,,,,,,,,,,,,,,,,,,,,,,,,,,,,,,,,,,,,,,,,,,,,,,,,,,,,,,,,,,,,,,,,,,,,,,,,,,,,,,,,,,,,,,,,,,,,,,,,,,,,,,,,,,,,,,,,,,,,,,,,,,,,,,,,,,,,,,,,,,,,,,,,,,,,,
0,3,3,40,1,,615a05ea9fa698f79ec834a7,62c5393dd4c09d92ed7b8ccd,2022-07-06_09h27.36.767,Colour_Asymmetry_Pilot,2022.1.3,Win32,60.04202942,62c50e9c1127f2cd403a315f,,,,,,,,,,,,,,,,,,,,,,,,,,,,,,,,,,,,,,,,,,,,,,,,,,,,,,,,,,,,,,,,,,,,,,,,,,,,,,,,,,,,,,,,,,,,,,,,,,,,,,,,,,,,,,,,,,,,,,,,,,,,,,,,,,,,,,,,,,,,,,,,,,,,,,,,,,,,,,,,,,
0,4,4,41,1,,615a05ea9fa698f79ec834a7,62c5393dd4c09d92ed7b8ccd,2022-07-06_09h27.36.767,Colour_Asymmetry_Pilot,2022.1.3,Win32,60.04202942,62c50e9c1127f2cd403a315f,,,,,,,,,,,,,,,,,,,,,,,,,,,,,,,,,,,,,,,,,,,,,,,,,,,,,,,,,,,,,,,,,,,,,,,,,,,,,,,,,,,,,,,,,,,,,,,,,,,,,,,,,,,,,,,,,,,,,,,,,,,,,,,,,,,,,,,,,,,,,,,,,,,,,,,,,,,,,,,,,,
0,5,5,42,1,,615a05ea9fa698f79ec834a7,62c5393dd4c09d92ed7b8ccd,2022-07-06_09h27.36.767,Colour_Asymmetry_Pilot,2022.1.3,Win32,60.04202942,62c50e9c1127f2cd403a315f,,,,,,,,,,,,,,,,,,,,,,,,,,,,,,,,,,,,,,,,,,,,,,,,,,,,,,,,,,,,,,,,,,,,,,,,,,,,,,,,,,,,,,,,,,,,,,,,,,,,,,,,,,,,,,,,,,,,,,,,,,,,,,,,,,,,,,,,,,,,,,,,,,,,,,,,,,,,,,,,,,
0,6,6,47,1,,615a05ea9fa698f79ec834a7,62c5393dd4c09d92ed7b8ccd,2022-07-06_09h27.36.767,Colour_Asymmetry_Pilot,2022.1.3,Win32,60.04202942,62c50e9c1127f2cd403a315f,,,,,,,,,,,,,,,,,,,,,,,,,,,,,,,,,,,,,,,,,,,,,,,,,,,,,,,,,,,,,,,,,,,,,,,,,,,,,,,,,,,,,,,,,,,,,,,,,,,,,,,,,,,,,,,,,,,,,,,,,,,,,,,,,,,,,,,,,,,,,,,,,,,,,,,,,,,,,,,,,,
0,7,7,23,1,,615a05ea9fa698f79ec834a7,62c5393dd4c09d92ed7b8ccd,2022-07-06_09h27.36.767,Colour_Asymmetry_Pilot,2022.1.3,Win32,60.04202942,62c50e9c1127f2cd403a315f,,,,,,,,,,,,,,,,,,,,,,,,,,,,,,,,,,,,,,,,,,,,,,,,,,,,,,,,,,,,,,,,,,,,,,,,,,,,,,,,,,,,,,,,,,,,,,,,,,,,,,,,,,,,,,,,,,,,,,,,,,,,,,,,,,,,,,,,,,,,,,,,,,,,,,,,,,,,,,,,,,
0,8,8,31,1,,615a05ea9fa698f79ec834a7,62c5393dd4c09d92ed7b8ccd,2022-07-06_09h27.36.767,Colour_Asymmetry_Pilot,2022.1.3,Win32,60.04202942,62c50e9c1127f2cd403a315f,,,,,,,,,,,,,,,,,,,,,,,,,,,,,,,,,,,,,,,,,,,,,,,,,,,,,,,,,,,,,,,,,,,,,,,,,,,,,,,,,,,,,,,,,,,,,,,,,,,,,,,,,,,,,,,,,,,,,,,,,,,,,,,,,,,,,,,,,,,,,,,,,,,,,,,,,,,,,,,,,,
0,9,9,39,1,,615a05ea9fa698f79ec834a7,62c5393dd4c09d92ed7b8ccd,2022-07-06_09h27.36.767,Colour_Asymmetry_Pilot,2022.1.3,Win32,60.04202942,62c50e9c1127f2cd403a315f,,,,,,,,,,,,,,,,,,,,,,,,,,,,,,,,,,,,,,,,,,,,,,,,,,,,,,,,,,,,,,,,,,,,,,,,,,,,,,,,,,,,,,,,,,,,,,,,,,,,,,,,,,,,,,,,,,,,,,,,,,,,,,,,,,,,,,,,,,,,,,,,,,,,,,,,,,,,,,,,,,
0,10,10,21,1,,615a05ea9fa698f79ec834a7,62c5393dd4c09d92ed7b8ccd,2022-07-06_09h27.36.767,Colour_Asymmetry_Pilot,2022.1.3,Win32,60.04202942,62c50e9c1127f2cd403a315f,,,,,,,,,,,,,,,,,,,,,,,,,,,,,,,,,,,,,,,,,,,,,,,,,,,,,,,,,,,,,,,,,,,,,,,,,,,,,,,,,,,,,,,,,,,,,,,,,,,,,,,,,,,,,,,,,,,,,,,,,,,,,,,,,,,,,,,,,,,,,,,,,,,,,,,,,,,,,,,,,,
0,11,11,88,1,,615a05ea9fa698f79ec834a7,62c5393dd4c09d92ed7b8ccd,2022-07-06_09h27.36.767,Colour_Asymmetry_Pilot,2022.1.3,Win32,60.04202942,62c50e9c1127f2cd403a315f,,,,,,,,,,,,,,,,,,,,,,,,,,,,,,,,,,,,,,,,,,,,,,,,,,,,,,,,,,,,,,,,,,,,,,,,,,,,,,,,,,,,,,,,,,,,,,,,,,,,,,,,,,,,,,,,,,,,,,,,,,,,,,,,,,,,,,,,,,,,,,,,,,,,,,,,,,,,,,,,,,
0,12,12,33,1,,615a05ea9fa698f79ec834a7,62c5393dd4c09d92ed7b8ccd,2022-07-06_09h27.36.767,Colour_Asymmetry_Pilot,2022.1.3,Win32,60.04202942,62c50e9c1127f2cd403a315f,,,,,,,,,,,,,,,,,,,,,,,,,,,,,,,,,,,,,,,,,,,,,,,,,,,,,,,,,,,,,,,,,,,,,,,,,,,,,,,,,,,,,,,,,,,,,,,,,,,,,,,,,,,,,,,,,,,,,,,,,,,,,,,,,,,,,,,,,,,,,,,,,,,,,,,,,,,,,,,,,,
0,13,13,46,1,,615a05ea9fa698f79ec834a7,62c5393dd4c09d92ed7b8ccd,2022-07-06_09h27.36.767,Colour_Asymmetry_Pilot,2022.1.3,Win32,60.04202942,62c50e9c1127f2cd403a315f,,,,,,,,,,,,,,,,,,,,,,,,,,,,,,,,,,,,,,,,,,,,,,,,,,,,,,,,,,,,,,,,,,,,,,,,,,,,,,,,,,,,,,,,,,,,,,,,,,,,,,,,,,,,,,,,,,,,,,,,,,,,,,,,,,,,,,,,,,,,,,,,,,,,,,,,,,,,,,,,,,
0,14,14,17,1,,615a05ea9fa698f79ec834a7,62c5393dd4c09d92ed7b8ccd,2022-07-06_09h27.36.767,Colour_Asymmetry_Pilot,2022.1.3,Win32,60.04202942,62c50e9c1127f2cd403a315f,,,,,,,,,,,,,,,,,,,,,,,,,,,,,,,,,,,,,,,,,,,,,,,,,,,,,,,,,,,,,,,,,,,,,,,,,,,,,,,,,,,,,,,,,,,,,,,,,,,,,,,,,,,,,,,,,,,,,,,,,,,,,,,,,,,,,,,,,,,,,,,,,,,,,,,,,,,,,,,,,,
0,15,15,66,1,,615a05ea9fa698f79ec834a7,62c5393dd4c09d92ed7b8ccd,2022-07-06_09h27.36.767,Colour_Asymmetry_Pilot,2022.1.3,Win32,60.04202942,62c50e9c1127f2cd403a315f,,,,,,,,,,,,,,,,,,,,,,,,,,,,,,,,,,,,,,,,,,,,,,,,,,,,,,,,,,,,,,,,,,,,,,,,,,,,,,,,,,,,,,,,,,,,,,,,,,,,,,,,,,,,,,,,,,,,,,,,,,,,,,,,,,,,,,,,,,,,,,,,,,,,,,,,,,,,,,,,,,
0,16,16,45,1,,615a05ea9fa698f79ec834a7,62c5393dd4c09d92ed7b8ccd,2022-07-06_09h27.36.767,Colour_Asymmetry_Pilot,2022.1.3,Win32,60.04202942,62c50e9c1127f2cd403a315f,,,,,,,,,,,,,,,,,,,,,,,,,,,,,,,,,,,,,,,,,,,,,,,,,,,,,,,,,,,,,,,,,,,,,,,,,,,,,,,,,,,,,,,,,,,,,,,,,,,,,,,,,,,,,,,,,,,,,,,,,,,,,,,,,,,,,,,,,,,,,,,,,,,,,,,,,,,,,,,,,,
0,17,17,58,1,,615a05ea9fa698f79ec834a7,62c5393dd4c09d92ed7b8ccd,2022-07-06_09h27.36.767,Colour_Asymmetry_Pilot,2022.1.3,Win32,60.04202942,62c50e9c1127f2cd403a315f,,,,,,,,,,,,,,,,,,,,,,,,,,,,,,,,,,,,,,,,,,,,,,,,,,,,,,,,,,,,,,,,,,,,,,,,,,,,,,,,,,,,,,,,,,,,,,,,,,,,,,,,,,,,,,,,,,,,,,,,,,,,,,,,,,,,,,,,,,,,,,,,,,,,,,,,,,,,,,,,,,
0,18,18,16,1,,615a05ea9fa698f79ec834a7,62c5393dd4c09d92ed7b8ccd,2022-07-06_09h27.36.767,Colour_Asymmetry_Pilot,2022.1.3,Win32,60.04202942,62c50e9c1127f2cd403a315f,,,,,,,,,,,,,,,,,,,,,,,,,,,,,,,,,,,,,,,,,,,,,,,,,,,,,,,,,,,,,,,,,,,,,,,,,,,,,,,,,,,,,,,,,,,,,,,,,,,,,,,,,,,,,,,,,,,,,,,,,,,,,,,,,,,,,,,,,,,,,,,,,,,,,,,,,,,,,,,,,,
0,19,19,37,1,,615a05ea9fa698f79ec834a7,62c5393dd4c09d92ed7b8ccd,2022-07-06_09h27.36.767,Colour_Asymmetry_Pilot,2022.1.3,Win32,60.04202942,62c50e9c1127f2cd403a315f,,,,,,,,,,,,,,,,,,,,,,,,,,,,,,,,,,,,,,,,,,,,,,,,,,,,,,,,,,,,,,,,,,,,,,,,,,,,,,,,,,,,,,,,,,,,,,,,,,,,,,,,,,,,,,,,,,,,,,,,,,,,,,,,,,,,,,,,,,,,,,,,,,,,,,,,,,,,,,,,,,
0,20,20,44,1,,615a05ea9fa698f79ec834a7,62c5393dd4c09d92ed7b8ccd,2022-07-06_09h27.36.767,Colour_Asymmetry_Pilot,2022.1.3,Win32,60.04202942,62c50e9c1127f2cd403a315f,,,,,,,,,,,,,,,,,,,,,,,,,,,,,,,,,,,,,,,,,,,,,,,,,,,,,,,,,,,,,,,,,,,,,,,,,,,,,,,,,,,,,,,,,,,,,,,,,,,,,,,,,,,,,,,,,,,,,,,,,,,,,,,,,,,,,,,,,,,,,,,,,,,,,,,,,,,,,,,,,,
0,21,21,2,1,,615a05ea9fa698f79ec834a7,62c5393dd4c09d92ed7b8ccd,2022-07-06_09h27.36.767,Colour_Asymmetry_Pilot,2022.1.3,Win32,60.04202942,62c50e9c1127f2cd403a315f,,,,,,,,,,,,,,,,,,,,,,,,,,,,,,,,,,,,,,,,,,,,,,,,,,,,,,,,,,,,,,,,,,,,,,,,,,,,,,,,,,,,,,,,,,,,,,,,,,,,,,,,,,,,,,,,,,,,,,,,,,,,,,,,,,,,,,,,,,,,,,,,,,,,,,,,,,,,,,,,,,
0,22,22,7,1,,615a05ea9fa698f79ec834a7,62c5393dd4c09d92ed7b8ccd,2022-07-06_09h27.36.767,Colour_Asymmetry_Pilot,2022.1.3,Win32,60.04202942,62c50e9c1127f2cd403a315f,,,,,,,,,,,,,,,,,,,,,,,,,,,,,,,,,,,,,,,,,,,,,,,,,,,,,,,,,,,,,,,,,,,,,,,,,,,,,,,,,,,,,,,,,,,,,,,,,,,,,,,,,,,,,,,,,,,,,,,,,,,,,,,,,,,,,,,,,,,,,,,,,,,,,,,,,,,,,,,,,,
0,23,23,15,1,,615a05ea9fa698f79ec834a7,62c5393dd4c09d92ed7b8ccd,2022-07-06_09h27.36.767,Colour_Asymmetry_Pilot,2022.1.3,Win32,60.04202942,62c50e9c1127f2cd403a315f,,,,,,,,,,,,,,,,,,,,,,,,,,,,,,,,,,,,,,,,,,,,,,,,,,,,,,,,,,,,,,,,,,,,,,,,,,,,,,,,,,,,,,,,,,,,,,,,,,,,,,,,,,,,,,,,,,,,,,,,,,,,,,,,,,,,,,,,,,,,,,,,,,,,,,,,,,,,,,,,,,
0,24,24,1,1,,615a05ea9fa698f79ec834a7,62c5393dd4c09d92ed7b8ccd,2022-07-06_09h27.36.767,Colour_Asymmetry_Pilot,2022.1.3,Win32,60.04202942,62c50e9c1127f2cd403a315f,,,,,,,,,,,,,,,,,,,,,,,,,,,,,,,,,,,,,,,,,,,,,,,,,,,,,,,,,,,,,,,,,,,,,,,,,,,,,,,,,,,,,,,,,,,,,,,,,,,,,,,,,,,,,,,,,,,,,,,,,,,,,,,,,,,,,,,,,,,,,,,,,,,,,,,,,,,,,,,,,,
0,25,25,92,1,,615a05ea9fa698f79ec834a7,62c5393dd4c09d92ed7b8ccd,2022-07-06_09h27.36.767,Colour_Asymmetry_Pilot,2022.1.3,Win32,60.04202942,62c50e9c1127f2cd403a315f,,,,,,,,,,,,,,,,,,,,,,,,,,,,,,,,,,,,,,,,,,,,,,,,,,,,,,,,,,,,,,,,,,,,,,,,,,,,,,,,,,,,,,,,,,,,,,,,,,,,,,,,,,,,,,,,,,,,,,,,,,,,,,,,,,,,,,,,,,,,,,,,,,,,,,,,,,,,,,,,,,
0,26,26,28,1,,615a05ea9fa698f79ec834a7,62c5393dd4c09d92ed7b8ccd,2022-07-06_09h27.36.767,Colour_Asymmetry_Pilot,2022.1.3,Win32,60.04202942,62c50e9c1127f2cd403a315f,,,,,,,,,,,,,,,,,,,,,,,,,,,,,,,,,,,,,,,,,,,,,,,,,,,,,,,,,,,,,,,,,,,,,,,,,,,,,,,,,,,,,,,,,,,,,,,,,,,,,,,,,,,,,,,,,,,,,,,,,,,,,,,,,,,,,,,,,,,,,,,,,,,,,,,,,,,,,,,,,,
0,27,27,72,1,,615a05ea9fa698f79ec834a7,62c5393dd4c09d92ed7b8ccd,2022-07-06_09h27.36.767,Colour_Asymmetry_Pilot,2022.1.3,Win32,60.04202942,62c50e9c1127f2cd403a315f,,,,,,,,,,,,,,,,,,,,,,,,,,,,,,,,,,,,,,,,,,,,,,,,,,,,,,,,,,,,,,,,,,,,,,,,,,,,,,,,,,,,,,,,,,,,,,,,,,,,,,,,,,,,,,,,,,,,,,,,,,,,,,,,,,,,,,,,,,,,,,,,,,,,,,,,,,,,,,,,,,
0,28,28,56,1,,615a05ea9fa698f79ec834a7,62c5393dd4c09d92ed7b8ccd,2022-07-06_09h27.36.767,Colour_Asymmetry_Pilot,2022.1.3,Win32,60.04202942,62c50e9c1127f2cd403a315f,,,,,,,,,,,,,,,,,,,,,,,,,,,,,,,,,,,,,,,,,,,,,,,,,,,,,,,,,,,,,,,,,,,,,,,,,,,,,,,,,,,,,,,,,,,,,,,,,,,,,,,,,,,,,,,,,,,,,,,,,,,,,,,,,,,,,,,,,,,,,,,,,,,,,,,,,,,,,,,,,,
0,29,29,91,1,,615a05ea9fa698f79ec834a7,62c5393dd4c09d92ed7b8ccd,2022-07-06_09h27.36.767,Colour_Asymmetry_Pilot,2022.1.3,Win32,60.04202942,62c50e9c1127f2cd403a315f,,,,,,,,,,,,,,,,,,,,,,,,,,,,,,,,,,,,,,,,,,,,,,,,,,,,,,,,,,,,,,,,,,,,,,,,,,,,,,,,,,,,,,,,,,,,,,,,,,,,,,,,,,,,,,,,,,,,,,,,,,,,,,,,,,,,,,,,,,,,,,,,,,,,,,,,,,,,,,,,,,
0,30,30,6,1,,615a05ea9fa698f79ec834a7,62c5393dd4c09d92ed7b8ccd,2022-07-06_09h27.36.767,Colour_Asymmetry_Pilot,2022.1.3,Win32,60.04202942,62c50e9c1127f2cd403a315f,,,,,,,,,,,,,,,,,,,,,,,,,,,,,,,,,,,,,,,,,,,,,,,,,,,,,,,,,,,,,,,,,,,,,,,,,,,,,,,,,,,,,,,,,,,,,,,,,,,,,,,,,,,,,,,,,,,,,,,,,,,,,,,,,,,,,,,,,,,,,,,,,,,,,,,,,,,,,,,,,,
0,31,31,10,1,,615a05ea9fa698f79ec834a7,62c5393dd4c09d92ed7b8ccd,2022-07-06_09h27.36.767,Colour_Asymmetry_Pilot,2022.1.3,Win32,60.04202942,62c50e9c1127f2cd403a315f,,,,,,,,,,,,,,,,,,,,,,,,,,,,,,,,,,,,,,,,,,,,,,,,,,,,,,,,,,,,,,,,,,,,,,,,,,,,,,,,,,,,,,,,,,,,,,,,,,,,,,,,,,,,,,,,,,,,,,,,,,,,,,,,,,,,,,,,,,,,,,,,,,,,,,,,,,,,,,,,,,
0,32,32,62,1,,615a05ea9fa698f79ec834a7,62c5393dd4c09d92ed7b8ccd,2022-07-06_09h27.36.767,Colour_Asymmetry_Pilot,2022.1.3,Win32,60.04202942,62c50e9c1127f2cd403a315f,,,,,,,,,,,,,,,,,,,,,,,,,,,,,,,,,,,,,,,,,,,,,,,,,,,,,,,,,,,,,,,,,,,,,,,,,,,,,,,,,,,,,,,,,,,,,,,,,,,,,,,,,,,,,,,,,,,,,,,,,,,,,,,,,,,,,,,,,,,,,,,,,,,,,,,,,,,,,,,,,,
0,33,33,12,1,,615a05ea9fa698f79ec834a7,62c5393dd4c09d92ed7b8ccd,2022-07-06_09h27.36.767,Colour_Asymmetry_Pilot,2022.1.3,Win32,60.04202942,62c50e9c1127f2cd403a315f,,,,,,,,,,,,,,,,,,,,,,,,,,,,,,,,,,,,,,,,,,,,,,,,,,,,,,,,,,,,,,,,,,,,,,,,,,,,,,,,,,,,,,,,,,,,,,,,,,,,,,,,,,,,,,,,,,,,,,,,,,,,,,,,,,,,,,,,,,,,,,,,,,,,,,,,,,,,,,,,,,
0,34,34,77,1,,615a05ea9fa698f79ec834a7,62c5393dd4c09d92ed7b8ccd,2022-07-06_09h27.36.767,Colour_Asymmetry_Pilot,2022.1.3,Win32,60.04202942,62c50e9c1127f2cd403a315f,,,,,,,,,,,,,,,,,,,,,,,,,,,,,,,,,,,,,,,,,,,,,,,,,,,,,,,,,,,,,,,,,,,,,,,,,,,,,,,,,,,,,,,,,,,,,,,,,,,,,,,,,,,,,,,,,,,,,,,,,,,,,,,,,,,,,,,,,,,,,,,,,,,,,,,,,,,,,,,,,,
0,35,35,34,1,,615a05ea9fa698f79ec834a7,62c5393dd4c09d92ed7b8ccd,2022-07-06_09h27.36.767,Colour_Asymmetry_Pilot,2022.1.3,Win32,60.04202942,62c50e9c1127f2cd403a315f,,,,,,,,,,,,,,,,,,,,,,,,,,,,,,,,,,,,,,,,,,,,,,,,,,,,,,,,,,,,,,,,,,,,,,,,,,,,,,,,,,,,,,,,,,,,,,,,,,,,,,,,,,,,,,,,,,,,,,,,,,,,,,,,,,,,,,,,,,,,,,,,,,,,,,,,,,,,,,,,,,
0,36,36,53,1,,615a05ea9fa698f79ec834a7,62c5393dd4c09d92ed7b8ccd,2022-07-06_09h27.36.767,Colour_Asymmetry_Pilot,2022.1.3,Win32,60.04202942,62c50e9c1127f2cd403a315f,,,,,,,,,,,,,,,,,,,,,,,,,,,,,,,,,,,,,,,,,,,,,,,,,,,,,,,,,,,,,,,,,,,,,,,,,,,,,,,,,,,,,,,,,,,,,,,,,,,,,,,,,,,,,,,,,,,,,,,,,,,,,,,,,,,,,,,,,,,,,,,,,,,,,,,,,,,,,,,,,,
0,37,37,24,1,,615a05ea9fa698f79ec834a7,62c5393dd4c09d92ed7b8ccd,2022-07-06_09h27.36.767,Colour_Asymmetry_Pilot,2022.1.3,Win32,60.04202942,62c50e9c1127f2cd403a315f,,,,,,,,,,,,,,,,,,,,,,,,,,,,,,,,,,,,,,,,,,,,,,,,,,,,,,,,,,,,,,,,,,,,,,,,,,,,,,,,,,,,,,,,,,,,,,,,,,,,,,,,,,,,,,,,,,,,,,,,,,,,,,,,,,,,,,,,,,,,,,,,,,,,,,,,,,,,,,,,,,
0,38,38,13,1,,615a05ea9fa698f79ec834a7,62c5393dd4c09d92ed7b8ccd,2022-07-06_09h27.36.767,Colour_Asymmetry_Pilot,2022.1.3,Win32,60.04202942,62c50e9c1127f2cd403a315f,,,,,,,,,,,,,,,,,,,,,,,,,,,,,,,,,,,,,,,,,,,,,,,,,,,,,,,,,,,,,,,,,,,,,,,,,,,,,,,,,,,,,,,,,,,,,,,,,,,,,,,,,,,,,,,,,,,,,,,,,,,,,,,,,,,,,,,,,,,,,,,,,,,,,,,,,,,,,,,,,,
0,39,39,49,1,,615a05ea9fa698f79ec834a7,62c5393dd4c09d92ed7b8ccd,2022-07-06_09h27.36.767,Colour_Asymmetry_Pilot,2022.1.3,Win32,60.04202942,62c50e9c1127f2cd403a315f,,,,,,,,,,,,,,,,,,,,,,,,,,,,,,,,,,,,,,,,,,,,,,,,,,,,,,,,,,,,,,,,,,,,,,,,,,,,,,,,,,,,,,,,,,,,,,,,,,,,,,,,,,,,,,,,,,,,,,,,,,,,,,,,,,,,,,,,,,,,,,,,,,,,,,,,,,,,,,,,,,
0,40,40,82,1,,615a05ea9fa698f79ec834a7,62c5393dd4c09d92ed7b8ccd,2022-07-06_09h27.36.767,Colour_Asymmetry_Pilot,2022.1.3,Win32,60.04202942,62c50e9c1127f2cd403a315f,,,,,,,,,,,,,,,,,,,,,,,,,,,,,,,,,,,,,,,,,,,,,,,,,,,,,,,,,,,,,,,,,,,,,,,,,,,,,,,,,,,,,,,,,,,,,,,,,,,,,,,,,,,,,,,,,,,,,,,,,,,,,,,,,,,,,,,,,,,,,,,,,,,,,,,,,,,,,,,,,,
0,41,41,27,1,,615a05ea9fa698f79ec834a7,62c5393dd4c09d92ed7b8ccd,2022-07-06_09h27.36.767,Colour_Asymmetry_Pilot,2022.1.3,Win32,60.04202942,62c50e9c1127f2cd403a315f,,,,,,,,,,,,,,,,,,,,,,,,,,,,,,,,,,,,,,,,,,,,,,,,,,,,,,,,,,,,,,,,,,,,,,,,,,,,,,,,,,,,,,,,,,,,,,,,,,,,,,,,,,,,,,,,,,,,,,,,,,,,,,,,,,,,,,,,,,,,,,,,,,,,,,,,,,,,,,,,,,
0,42,42,79,1,,615a05ea9fa698f79ec834a7,62c5393dd4c09d92ed7b8ccd,2022-07-06_09h27.36.767,Colour_Asymmetry_Pilot,2022.1.3,Win32,60.04202942,62c50e9c1127f2cd403a315f,,,,,,,,,,,,,,,,,,,,,,,,,,,,,,,,,,,,,,,,,,,,,,,,,,,,,,,,,,,,,,,,,,,,,,,,,,,,,,,,,,,,,,,,,,,,,,,,,,,,,,,,,,,,,,,,,,,,,,,,,,,,,,,,,,,,,,,,,,,,,,,,,,,,,,,,,,,,,,,,,,
0,43,43,73,1,,615a05ea9fa698f79ec834a7,62c5393dd4c09d92ed7b8ccd,2022-07-06_09h27.36.767,Colour_Asymmetry_Pilot,2022.1.3,Win32,60.04202942,62c50e9c1127f2cd403a315f,,,,,,,,,,,,,,,,,,,,,,,,,,,,,,,,,,,,,,,,,,,,,,,,,,,,,,,,,,,,,,,,,,,,,,,,,,,,,,,,,,,,,,,,,,,,,,,,,,,,,,,,,,,,,,,,,,,,,,,,,,,,,,,,,,,,,,,,,,,,,,,,,,,,,,,,,,,,,,,,,,
0,44,44,14,1,,615a05ea9fa698f79ec834a7,62c5393dd4c09d92ed7b8ccd,2022-07-06_09h27.36.767,Colour_Asymmetry_Pilot,2022.1.3,Win32,60.04202942,62c50e9c1127f2cd403a315f,,,,,,,,,,,,,,,,,,,,,,,,,,,,,,,,,,,,,,,,,,,,,,,,,,,,,,,,,,,,,,,,,,,,,,,,,,,,,,,,,,,,,,,,,,,,,,,,,,,,,,,,,,,,,,,,,,,,,,,,,,,,,,,,,,,,,,,,,,,,,,,,,,,,,,,,,,,,,,,,,,
0,45,45,70,1,,615a05ea9fa698f79ec834a7,62c5393dd4c09d92ed7b8ccd,2022-07-06_09h27.36.767,Colour_Asymmetry_Pilot,2022.1.3,Win32,60.04202942,62c50e9c1127f2cd403a315f,,,,,,,,,,,,,,,,,,,,,,,,,,,,,,,,,,,,,,,,,,,,,,,,,,,,,,,,,,,,,,,,,,,,,,,,,,,,,,,,,,,,,,,,,,,,,,,,,,,,,,,,,,,,,,,,,,,,,,,,,,,,,,,,,,,,,,,,,,,,,,,,,,,,,,,,,,,,,,,,,,
0,46,46,5,1,,615a05ea9fa698f79ec834a7,62c5393dd4c09d92ed7b8ccd,2022-07-06_09h27.36.767,Colour_Asymmetry_Pilot,2022.1.3,Win32,60.04202942,62c50e9c1127f2cd403a315f,,,,,,,,,,,,,,,,,,,,,,,,,,,,,,,,,,,,,,,,,,,,,,,,,,,,,,,,,,,,,,,,,,,,,,,,,,,,,,,,,,,,,,,,,,,,,,,,,,,,,,,,,,,,,,,,,,,,,,,,,,,,,,,,,,,,,,,,,,,,,,,,,,,,,,,,,,,,,,,,,,
0,47,47,30,1,,615a05ea9fa698f79ec834a7,62c5393dd4c09d92ed7b8ccd,2022-07-06_09h27.36.767,Colour_Asymmetry_Pilot,2022.1.3,Win32,60.04202942,62c50e9c1127f2cd403a315f,,,,,,,,,,,,,,,,,,,,,,,,,,,,,,,,,,,,,,,,,,,,,,,,,,,,,,,,,,,,,,,,,,,,,,,,,,,,,,,,,,,,,,,,,,,,,,,,,,,,,,,,,,,,,,,,,,,,,,,,,,,,,,,,,,,,,,,,,,,,,,,,,,,,,,,,,,,,,,,,,,
0,48,48,64,1,,615a05ea9fa698f79ec834a7,62c5393dd4c09d92ed7b8ccd,2022-07-06_09h27.36.767,Colour_Asymmetry_Pilot,2022.1.3,Win32,60.04202942,62c50e9c1127f2cd403a315f,,,,,,,,,,,,,,,,,,,,,,,,,,,,,,,,,,,,,,,,,,,,,,,,,,,,,,,,,,,,,,,,,,,,,,,,,,,,,,,,,,,,,,,,,,,,,,,,,,,,,,,,,,,,,,,,,,,,,,,,,,,,,,,,,,,,,,,,,,,,,,,,,,,,,,,,,,,,,,,,,,
0,49,49,57,1,,615a05ea9fa698f79ec834a7,62c5393dd4c09d92ed7b8ccd,2022-07-06_09h27.36.767,Colour_Asymmetry_Pilot,2022.1.3,Win32,60.04202942,62c50e9c1127f2cd403a315f,,,,,,,,,,,,,,,,,,,,,,,,,,,,,,,,,,,,,,,,,,,,,,,,,,,,,,,,,,,,,,,,,,,,,,,,,,,,,,,,,,,,,,,,,,,,,,,,,,,,,,,,,,,,,,,,,,,,,,,,,,,,,,,,,,,,,,,,,,,,,,,,,,,,,,,,,,,,,,,,,,
0,50,50,8,1,,615a05ea9fa698f79ec834a7,62c5393dd4c09d92ed7b8ccd,2022-07-06_09h27.36.767,Colour_Asymmetry_Pilot,2022.1.3,Win32,60.04202942,62c50e9c1127f2cd403a315f,,,,,,,,,,,,,,,,,,,,,,,,,,,,,,,,,,,,,,,,,,,,,,,,,,,,,,,,,,,,,,,,,,,,,,,,,,,,,,,,,,,,,,,,,,,,,,,,,,,,,,,,,,,,,,,,,,,,,,,,,,,,,,,,,,,,,,,,,,,,,,,,,,,,,,,,,,,,,,,,,,
0,51,51,59,1,,615a05ea9fa698f79ec834a7,62c5393dd4c09d92ed7b8ccd,2022-07-06_09h27.36.767,Colour_Asymmetry_Pilot,2022.1.3,Win32,60.04202942,62c50e9c1127f2cd403a315f,,,,,,,,,,,,,,,,,,,,,,,,,,,,,,,,,,,,,,,,,,,,,,,,,,,,,,,,,,,,,,,,,,,,,,,,,,,,,,,,,,,,,,,,,,,,,,,,,,,,,,,,,,,,,,,,,,,,,,,,,,,,,,,,,,,,,,,,,,,,,,,,,,,,,,,,,,,,,,,,,,
0,52,52,74,1,,615a05ea9fa698f79ec834a7,62c5393dd4c09d92ed7b8ccd,2022-07-06_09h27.36.767,Colour_Asymmetry_Pilot,2022.1.3,Win32,60.04202942,62c50e9c1127f2cd403a315f,,,,,,,,,,,,,,,,,,,,,,,,,,,,,,,,,,,,,,,,,,,,,,,,,,,,,,,,,,,,,,,,,,,,,,,,,,,,,,,,,,,,,,,,,,,,,,,,,,,,,,,,,,,,,,,,,,,,,,,,,,,,,,,,,,,,,,,,,,,,,,,,,,,,,,,,,,,,,,,,,,
0,53,53,89,1,,615a05ea9fa698f79ec834a7,62c5393dd4c09d92ed7b8ccd,2022-07-06_09h27.36.767,Colour_Asymmetry_Pilot,2022.1.3,Win32,60.04202942,62c50e9c1127f2cd403a315f,,,,,,,,,,,,,,,,,,,,,,,,,,,,,,,,,,,,,,,,,,,,,,,,,,,,,,,,,,,,,,,,,,,,,,,,,,,,,,,,,,,,,,,,,,,,,,,,,,,,,,,,,,,,,,,,,,,,,,,,,,,,,,,,,,,,,,,,,,,,,,,,,,,,,,,,,,,,,,,,,,
0,54,54,78,1,,615a05ea9fa698f79ec834a7,62c5393dd4c09d92ed7b8ccd,2022-07-06_09h27.36.767,Colour_Asymmetry_Pilot,2022.1.3,Win32,60.04202942,62c50e9c1127f2cd403a315f,,,,,,,,,,,,,,,,,,,,,,,,,,,,,,,,,,,,,,,,,,,,,,,,,,,,,,,,,,,,,,,,,,,,,,,,,,,,,,,,,,,,,,,,,,,,,,,,,,,,,,,,,,,,,,,,,,,,,,,,,,,,,,,,,,,,,,,,,,,,,,,,,,,,,,,,,,,,,,,,,,
0,55,55,35,1,,615a05ea9fa698f79ec834a7,62c5393dd4c09d92ed7b8ccd,2022-07-06_09h27.36.767,Colour_Asymmetry_Pilot,2022.1.3,Win32,60.04202942,62c50e9c1127f2cd403a315f,,,,,,,,,,,,,,,,,,,,,,,,,,,,,,,,,,,,,,,,,,,,,,,,,,,,,,,,,,,,,,,,,,,,,,,,,,,,,,,,,,,,,,,,,,,,,,,,,,,,,,,,,,,,,,,,,,,,,,,,,,,,,,,,,,,,,,,,,,,,,,,,,,,,,,,,,,,,,,,,,,
0,56,56,85,1,,615a05ea9fa698f79ec834a7,62c5393dd4c09d92ed7b8ccd,2022-07-06_09h27.36.767,Colour_Asymmetry_Pilot,2022.1.3,Win32,60.04202942,62c50e9c1127f2cd403a315f,,,,,,,,,,,,,,,,,,,,,,,,,,,,,,,,,,,,,,,,,,,,,,,,,,,,,,,,,,,,,,,,,,,,,,,,,,,,,,,,,,,,,,,,,,,,,,,,,,,,,,,,,,,,,,,,,,,,,,,,,,,,,,,,,,,,,,,,,,,,,,,,,,,,,,,,,,,,,,,,,,
0,57,57,48,1,,615a05ea9fa698f79ec834a7,62c5393dd4c09d92ed7b8ccd,2022-07-06_09h27.36.767,Colour_Asymmetry_Pilot,2022.1.3,Win32,60.04202942,62c50e9c1127f2cd403a315f,,,,,,,,,,,,,,,,,,,,,,,,,,,,,,,,,,,,,,,,,,,,,,,,,,,,,,,,,,,,,,,,,,,,,,,,,,,,,,,,,,,,,,,,,,,,,,,,,,,,,,,,,,,,,,,,,,,,,,,,,,,,,,,,,,,,,,,,,,,,,,,,,,,,,,,,,,,,,,,,,,
0,58,58,20,1,,615a05ea9fa698f79ec834a7,62c5393dd4c09d92ed7b8ccd,2022-07-06_09h27.36.767,Colour_Asymmetry_Pilot,2022.1.3,Win32,60.04202942,62c50e9c1127f2cd403a315f,,,,,,,,,,,,,,,,,,,,,,,,,,,,,,,,,,,,,,,,,,,,,,,,,,,,,,,,,,,,,,,,,,,,,,,,,,,,,,,,,,,,,,,,,,,,,,,,,,,,,,,,,,,,,,,,,,,,,,,,,,,,,,,,,,,,,,,,,,,,,,,,,,,,,,,,,,,,,,,,,,
0,59,59,75,1,,615a05ea9fa698f79ec834a7,62c5393dd4c09d92ed7b8ccd,2022-07-06_09h27.36.767,Colour_Asymmetry_Pilot,2022.1.3,Win32,60.04202942,62c50e9c1127f2cd403a315f,,,,,,,,,,,,,,,,,,,,,,,,,,,,,,,,,,,,,,,,,,,,,,,,,,,,,,,,,,,,,,,,,,,,,,,,,,,,,,,,,,,,,,,,,,,,,,,,,,,,,,,,,,,,,,,,,,,,,,,,,,,,,,,,,,,,,,,,,,,,,,,,,,,,,,,,,,,,,,,,,,
0,60,60,18,1,,615a05ea9fa698f79ec834a7,62c5393dd4c09d92ed7b8ccd,2022-07-06_09h27.36.767,Colour_Asymmetry_Pilot,2022.1.3,Win32,60.04202942,62c50e9c1127f2cd403a315f,,,,,,,,,,,,,,,,,,,,,,,,,,,,,,,,,,,,,,,,,,,,,,,,,,,,,,,,,,,,,,,,,,,,,,,,,,,,,,,,,,,,,,,,,,,,,,,,,,,,,,,,,,,,,,,,,,,,,,,,,,,,,,,,,,,,,,,,,,,,,,,,,,,,,,,,,,,,,,,,,,
0,61,61,0,1,,615a05ea9fa698f79ec834a7,62c5393dd4c09d92ed7b8ccd,2022-07-06_09h27.36.767,Colour_Asymmetry_Pilot,2022.1.3,Win32,60.04202942,62c50e9c1127f2cd403a315f,,,,,,,,,,,,,,,,,,,,,,,,,,,,,,,,,,,,,,,,,,,,,,,,,,,,,,,,,,,,,,,,,,,,,,,,,,,,,,,,,,,,,,,,,,,,,,,,,,,,,,,,,,,,,,,,,,,,,,,,,,,,,,,,,,,,,,,,,,,,,,,,,,,,,,,,,,,,,,,,,,
0,62,62,29,1,,615a05ea9fa698f79ec834a7,62c5393dd4c09d92ed7b8ccd,2022-07-06_09h27.36.767,Colour_Asymmetry_Pilot,2022.1.3,Win32,60.04202942,62c50e9c1127f2cd403a315f,,,,,,,,,,,,,,,,,,,,,,,,,,,,,,,,,,,,,,,,,,,,,,,,,,,,,,,,,,,,,,,,,,,,,,,,,,,,,,,,,,,,,,,,,,,,,,,,,,,,,,,,,,,,,,,,,,,,,,,,,,,,,,,,,,,,,,,,,,,,,,,,,,,,,,,,,,,,,,,,,,
0,63,63,61,1,,615a05ea9fa698f79ec834a7,62c5393dd4c09d92ed7b8ccd,2022-07-06_09h27.36.767,Colour_Asymmetry_Pilot,2022.1.3,Win32,60.04202942,62c50e9c1127f2cd403a315f,,,,,,,,,,,,,,,,,,,,,,,,,,,,,,,,,,,,,,,,,,,,,,,,,,,,,,,,,,,,,,,,,,,,,,,,,,,,,,,,,,,,,,,,,,,,,,,,,,,,,,,,,,,,,,,,,,,,,,,,,,,,,,,,,,,,,,,,,,,,,,,,,,,,,,,,,,,,,,,,,,
0,64,64,43,1,,615a05ea9fa698f79ec834a7,62c5393dd4c09d92ed7b8ccd,2022-07-06_09h27.36.767,Colour_Asymmetry_Pilot,2022.1.3,Win32,60.04202942,62c50e9c1127f2cd403a315f,,,,,,,,,,,,,,,,,,,,,,,,,,,,,,,,,,,,,,,,,,,,,,,,,,,,,,,,,,,,,,,,,,,,,,,,,,,,,,,,,,,,,,,,,,,,,,,,,,,,,,,,,,,,,,,,,,,,,,,,,,,,,,,,,,,,,,,,,,,,,,,,,,,,,,,,,,,,,,,,,,
0,65,65,36,1,,615a05ea9fa698f79ec834a7,62c5393dd4c09d92ed7b8ccd,2022-07-06_09h27.36.767,Colour_Asymmetry_Pilot,2022.1.3,Win32,60.04202942,62c50e9c1127f2cd403a315f,,,,,,,,,,,,,,,,,,,,,,,,,,,,,,,,,,,,,,,,,,,,,,,,,,,,,,,,,,,,,,,,,,,,,,,,,,,,,,,,,,,,,,,,,,,,,,,,,,,,,,,,,,,,,,,,,,,,,,,,,,,,,,,,,,,,,,,,,,,,,,,,,,,,,,,,,,,,,,,,,,
0,66,66,80,1,,615a05ea9fa698f79ec834a7,62c5393dd4c09d92ed7b8ccd,2022-07-06_09h27.36.767,Colour_Asymmetry_Pilot,2022.1.3,Win32,60.04202942,62c50e9c1127f2cd403a315f,,,,,,,,,,,,,,,,,,,,,,,,,,,,,,,,,,,,,,,,,,,,,,,,,,,,,,,,,,,,,,,,,,,,,,,,,,,,,,,,,,,,,,,,,,,,,,,,,,,,,,,,,,,,,,,,,,,,,,,,,,,,,,,,,,,,,,,,,,,,,,,,,,,,,,,,,,,,,,,,,,
0,67,67,71,1,,615a05ea9fa698f79ec834a7,62c5393dd4c09d92ed7b8ccd,2022-07-06_09h27.36.767,Colour_Asymmetry_Pilot,2022.1.3,Win32,60.04202942,62c50e9c1127f2cd403a315f,,,,,,,,,,,,,,,,,,,,,,,,,,,,,,,,,,,,,,,,,,,,,,,,,,,,,,,,,,,,,,,,,,,,,,,,,,,,,,,,,,,,,,,,,,,,,,,,,,,,,,,,,,,,,,,,,,,,,,,,,,,,,,,,,,,,,,,,,,,,,,,,,,,,,,,,,,,,,,,,,,
0,68,68,52,1,,615a05ea9fa698f79ec834a7,62c5393dd4c09d92ed7b8ccd,2022-07-06_09h27.36.767,Colour_Asymmetry_Pilot,2022.1.3,Win32,60.04202942,62c50e9c1127f2cd403a315f,,,,,,,,,,,,,,,,,,,,,,,,,,,,,,,,,,,,,,,,,,,,,,,,,,,,,,,,,,,,,,,,,,,,,,,,,,,,,,,,,,,,,,,,,,,,,,,,,,,,,,,,,,,,,,,,,,,,,,,,,,,,,,,,,,,,,,,,,,,,,,,,,,,,,,,,,,,,,,,,,,
0,69,69,81,1,,615a05ea9fa698f79ec834a7,62c5393dd4c09d92ed7b8ccd,2022-07-06_09h27.36.767,Colour_Asymmetry_Pilot,2022.1.3,Win32,60.04202942,62c50e9c1127f2cd403a315f,,,,,,,,,,,,,,,,,,,,,,,,,,,,,,,,,,,,,,,,,,,,,,,,,,,,,,,,,,,,,,,,,,,,,,,,,,,,,,,,,,,,,,,,,,,,,,,,,,,,,,,,,,,,,,,,,,,,,,,,,,,,,,,,,,,,,,,,,,,,,,,,,,,,,,,,,,,,,,,,,,
0,70,70,3,1,,615a05ea9fa698f79ec834a7,62c5393dd4c09d92ed7b8ccd,2022-07-06_09h27.36.767,Colour_Asymmetry_Pilot,2022.1.3,Win32,60.04202942,62c50e9c1127f2cd403a315f,,,,,,,,,,,,,,,,,,,,,,,,,,,,,,,,,,,,,,,,,,,,,,,,,,,,,,,,,,,,,,,,,,,,,,,,,,,,,,,,,,,,,,,,,,,,,,,,,,,,,,,,,,,,,,,,,,,,,,,,,,,,,,,,,,,,,,,,,,,,,,,,,,,,,,,,,,,,,,,,,,
0,71,71,26,1,,615a05ea9fa698f79ec834a7,62c5393dd4c09d92ed7b8ccd,2022-07-06_09h27.36.767,Colour_Asymmetry_Pilot,2022.1.3,Win32,60.04202942,62c50e9c1127f2cd403a315f,,,,,,,,,,,,,,,,,,,,,,,,,,,,,,,,,,,,,,,,,,,,,,,,,,,,,,,,,,,,,,,,,,,,,,,,,,,,,,,,,,,,,,,,,,,,,,,,,,,,,,,,,,,,,,,,,,,,,,,,,,,,,,,,,,,,,,,,,,,,,,,,,,,,,,,,,,,,,,,,,,
0,72,72,54,1,,615a05ea9fa698f79ec834a7,62c5393dd4c09d92ed7b8ccd,2022-07-06_09h27.36.767,Colour_Asymmetry_Pilot,2022.1.3,Win32,60.04202942,62c50e9c1127f2cd403a315f,,,,,,,,,,,,,,,,,,,,,,,,,,,,,,,,,,,,,,,,,,,,,,,,,,,,,,,,,,,,,,,,,,,,,,,,,,,,,,,,,,,,,,,,,,,,,,,,,,,,,,,,,,,,,,,,,,,,,,,,,,,,,,,,,,,,,,,,,,,,,,,,,,,,,,,,,,,,,,,,,,
0,73,73,90,1,,615a05ea9fa698f79ec834a7,62c5393dd4c09d92ed7b8ccd,2022-07-06_09h27.36.767,Colour_Asymmetry_Pilot,2022.1.3,Win32,60.04202942,62c50e9c1127f2cd403a315f,,,,,,,,,,,,,,,,,,,,,,,,,,,,,,,,,,,,,,,,,,,,,,,,,,,,,,,,,,,,,,,,,,,,,,,,,,,,,,,,,,,,,,,,,,,,,,,,,,,,,,,,,,,,,,,,,,,,,,,,,,,,,,,,,,,,,,,,,,,,,,,,,,,,,,,,,,,,,,,,,,
0,74,74,87,1,,615a05ea9fa698f79ec834a7,62c5393dd4c09d92ed7b8ccd,2022-07-06_09h27.36.767,Colour_Asymmetry_Pilot,2022.1.3,Win32,60.04202942,62c50e9c1127f2cd403a315f,,,,,,,,,,,,,,,,,,,,,,,,,,,,,,,,,,,,,,,,,,,,,,,,,,,,,,,,,,,,,,,,,,,,,,,,,,,,,,,,,,,,,,,,,,,,,,,,,,,,,,,,,,,,,,,,,,,,,,,,,,,,,,,,,,,,,,,,,,,,,,,,,,,,,,,,,,,,,,,,,,
0,75,75,84,1,,615a05ea9fa698f79ec834a7,62c5393dd4c09d92ed7b8ccd,2022-07-06_09h27.36.767,Colour_Asymmetry_Pilot,2022.1.3,Win32,60.04202942,62c50e9c1127f2cd403a315f,,,,,,,,,,,,,,,,,,,,,,,,,,,,,,,,,,,,,,,,,,,,,,,,,,,,,,,,,,,,,,,,,,,,,,,,,,,,,,,,,,,,,,,,,,,,,,,,,,,,,,,,,,,,,,,,,,,,,,,,,,,,,,,,,,,,,,,,,,,,,,,,,,,,,,,,,,,,,,,,,,
0,76,76,32,1,,615a05ea9fa698f79ec834a7,62c5393dd4c09d92ed7b8ccd,2022-07-06_09h27.36.767,Colour_Asymmetry_Pilot,2022.1.3,Win32,60.04202942,62c50e9c1127f2cd403a315f,,,,,,,,,,,,,,,,,,,,,,,,,,,,,,,,,,,,,,,,,,,,,,,,,,,,,,,,,,,,,,,,,,,,,,,,,,,,,,,,,,,,,,,,,,,,,,,,,,,,,,,,,,,,,,,,,,,,,,,,,,,,,,,,,,,,,,,,,,,,,,,,,,,,,,,,,,,,,,,,,,
0,77,77,9,1,,615a05ea9fa698f79ec834a7,62c5393dd4c09d92ed7b8ccd,2022-07-06_09h27.36.767,Colour_Asymmetry_Pilot,2022.1.3,Win32,60.04202942,62c50e9c1127f2cd403a315f,,,,,,,,,,,,,,,,,,,,,,,,,,,,,,,,,,,,,,,,,,,,,,,,,,,,,,,,,,,,,,,,,,,,,,,,,,,,,,,,,,,,,,,,,,,,,,,,,,,,,,,,,,,,,,,,,,,,,,,,,,,,,,,,,,,,,,,,,,,,,,,,,,,,,,,,,,,,,,,,,,
0,78,78,22,1,,615a05ea9fa698f79ec834a7,62c5393dd4c09d92ed7b8ccd,2022-07-06_09h27.36.767,Colour_Asymmetry_Pilot,2022.1.3,Win32,60.04202942,62c50e9c1127f2cd403a315f,,,,,,,,,,,,,,,,,,,,,,,,,,,,,,,,,,,,,,,,,,,,,,,,,,,,,,,,,,,,,,,,,,,,,,,,,,,,,,,,,,,,,,,,,,,,,,,,,,,,,,,,,,,,,,,,,,,,,,,,,,,,,,,,,,,,,,,,,,,,,,,,,,,,,,,,,,,,,,,,,,
0,79,79,83,1,,615a05ea9fa698f79ec834a7,62c5393dd4c09d92ed7b8ccd,2022-07-06_09h27.36.767,Colour_Asymmetry_Pilot,2022.1.3,Win32,60.04202942,62c50e9c1127f2cd403a315f,,,,,,,,,,,,,,,,,,,,,,,,,,,,,,,,,,,,,,,,,,,,,,,,,,,,,,,,,,,,,,,,,,,,,,,,,,,,,,,,,,,,,,,,,,,,,,,,,,,,,,,,,,,,,,,,,,,,,,,,,,,,,,,,,,,,,,,,,,,,,,,,,,,,,,,,,,,,,,,,,,
0,80,80,19,1,,615a05ea9fa698f79ec834a7,62c5393dd4c09d92ed7b8ccd,2022-07-06_09h27.36.767,Colour_Asymmetry_Pilot,2022.1.3,Win32,60.04202942,62c50e9c1127f2cd403a315f,,,,,,,,,,,,,,,,,,,,,,,,,,,,,,,,,,,,,,,,,,,,,,,,,,,,,,,,,,,,,,,,,,,,,,,,,,,,,,,,,,,,,,,,,,,,,,,,,,,,,,,,,,,,,,,,,,,,,,,,,,,,,,,,,,,,,,,,,,,,,,,,,,,,,,,,,,,,,,,,,,
0,81,81,67,1,,615a05ea9fa698f79ec834a7,62c5393dd4c09d92ed7b8ccd,2022-07-06_09h27.36.767,Colour_Asymmetry_Pilot,2022.1.3,Win32,60.04202942,62c50e9c1127f2cd403a315f,,,,,,,,,,,,,,,,,,,,,,,,,,,,,,,,,,,,,,,,,,,,,,,,,,,,,,,,,,,,,,,,,,,,,,,,,,,,,,,,,,,,,,,,,,,,,,,,,,,,,,,,,,,,,,,,,,,,,,,,,,,,,,,,,,,,,,,,,,,,,,,,,,,,,,,,,,,,,,,,,,
0,82,82,50,1,,615a05ea9fa698f79ec834a7,62c5393dd4c09d92ed7b8ccd,2022-07-06_09h27.36.767,Colour_Asymmetry_Pilot,2022.1.3,Win32,60.04202942,62c50e9c1127f2cd403a315f,,,,,,,,,,,,,,,,,,,,,,,,,,,,,,,,,,,,,,,,,,,,,,,,,,,,,,,,,,,,,,,,,,,,,,,,,,,,,,,,,,,,,,,,,,,,,,,,,,,,,,,,,,,,,,,,,,,,,,,,,,,,,,,,,,,,,,,,,,,,,,,,,,,,,,,,,,,,,,,,,,
0,83,83,65,1,,615a05ea9fa698f79ec834a7,62c5393dd4c09d92ed7b8ccd,2022-07-06_09h27.36.767,Colour_Asymmetry_Pilot,2022.1.3,Win32,60.04202942,62c50e9c1127f2cd403a315f,,,,,,,,,,,,,,,,,,,,,,,,,,,,,,,,,,,,,,,,,,,,,,,,,,,,,,,,,,,,,,,,,,,,,,,,,,,,,,,,,,,,,,,,,,,,,,,,,,,,,,,,,,,,,,,,,,,,,,,,,,,,,,,,,,,,,,,,,,,,,,,,,,,,,,,,,,,,,,,,,,
0,84,84,38,1,,615a05ea9fa698f79ec834a7,62c5393dd4c09d92ed7b8ccd,2022-07-06_09h27.36.767,Colour_Asymmetry_Pilot,2022.1.3,Win32,60.04202942,62c50e9c1127f2cd403a315f,,,,,,,,,,,,,,,,,,,,,,,,,,,,,,,,,,,,,,,,,,,,,,,,,,,,,,,,,,,,,,,,,,,,,,,,,,,,,,,,,,,,,,,,,,,,,,,,,,,,,,,,,,,,,,,,,,,,,,,,,,,,,,,,,,,,,,,,,,,,,,,,,,,,,,,,,,,,,,,,,,
0,85,85,86,1,,615a05ea9fa698f79ec834a7,62c5393dd4c09d92ed7b8ccd,2022-07-06_09h27.36.767,Colour_Asymmetry_Pilot,2022.1.3,Win32,60.04202942,62c50e9c1127f2cd403a315f,,,,,,,,,,,,,,,,,,,,,,,,,,,,,,,,,,,,,,,,,,,,,,,,,,,,,,,,,,,,,,,,,,,,,,,,,,,,,,,,,,,,,,,,,,,,,,,,,,,,,,,,,,,,,,,,,,,,,,,,,,,,,,,,,,,,,,,,,,,,,,,,,,,,,,,,,,,,,,,,,,
0,86,86,25,1,,615a05ea9fa698f79ec834a7,62c5393dd4c09d92ed7b8ccd,2022-07-06_09h27.36.767,Colour_Asymmetry_Pilot,2022.1.3,Win32,60.04202942,62c50e9c1127f2cd403a315f,,,,,,,,,,,,,,,,,,,,,,,,,,,,,,,,,,,,,,,,,,,,,,,,,,,,,,,,,,,,,,,,,,,,,,,,,,,,,,,,,,,,,,,,,,,,,,,,,,,,,,,,,,,,,,,,,,,,,,,,,,,,,,,,,,,,,,,,,,,,,,,,,,,,,,,,,,,,,,,,,,
0,87,87,55,1,,615a05ea9fa698f79ec834a7,62c5393dd4c09d92ed7b8ccd,2022-07-06_09h27.36.767,Colour_Asymmetry_Pilot,2022.1.3,Win32,60.04202942,62c50e9c1127f2cd403a315f,,,,,,,,,,,,,,,,,,,,,,,,,,,,,,,,,,,,,,,,,,,,,,,,,,,,,,,,,,,,,,,,,,,,,,,,,,,,,,,,,,,,,,,,,,,,,,,,,,,,,,,,,,,,,,,,,,,,,,,,,,,,,,,,,,,,,,,,,,,,,,,,,,,,,,,,,,,,,,,,,,
0,88,88,60,1,,615a05ea9fa698f79ec834a7,62c5393dd4c09d92ed7b8ccd,2022-07-06_09h27.36.767,Colour_Asymmetry_Pilot,2022.1.3,Win32,60.04202942,62c50e9c1127f2cd403a315f,,,,,,,,,,,,,,,,,,,,,,,,,,,,,,,,,,,,,,,,,,,,,,,,,,,,,,,,,,,,,,,,,,,,,,,,,,,,,,,,,,,,,,,,,,,,,,,,,,,,,,,,,,,,,,,,,,,,,,,,,,,,,,,,,,,,,,,,,,,,,,,,,,,,,,,,,,,,,,,,,,
0,89,89,63,1,,615a05ea9fa698f79ec834a7,62c5393dd4c09d92ed7b8ccd,2022-07-06_09h27.36.767,Colour_Asymmetry_Pilot,2022.1.3,Win32,60.04202942,62c50e9c1127f2cd403a315f,,,,,,,,,,,,,,,,,,,,,,,,,,,,,,,,,,,,,,,,,,,,,,,,,,,,,,,,,,,,,,,,,,,,,,,,,,,,,,,,,,,,,,,,,,,,,,,,,,,,,,,,,,,,,,,,,,,,,,,,,,,,,,,,,,,,,,,,,,,,,,,,,,,,,,,,,,,,,,,,,,
0,90,90,76,1,,615a05ea9fa698f79ec834a7,62c5393dd4c09d92ed7b8ccd,2022-07-06_09h27.36.767,Colour_Asymmetry_Pilot,2022.1.3,Win32,60.04202942,62c50e9c1127f2cd403a315f,,,,,,,,,,,,,,,,,,,,,,,,,,,,,,,,,,,,,,,,,,,,,,,,,,,,,,,,,,,,,,,,,,,,,,,,,,,,,,,,,,,,,,,,,,,,,,,,,,,,,,,,,,,,,,,,,,,,,,,,,,,,,,,,,,,,,,,,,,,,,,,,,,,,,,,,,,,,,,,,,,
0,91,91,68,1,,615a05ea9fa698f79ec834a7,62c5393dd4c09d92ed7b8ccd,2022-07-06_09h27.36.767,Colour_Asymmetry_Pilot,2022.1.3,Win32,60.04202942,62c50e9c1127f2cd403a315f,,,,,,,,,,,,,,,,,,,,,,,,,,,,,,,,,,,,,,,,,,,,,,,,,,,,,,,,,,,,,,,,,,,,,,,,,,,,,,,,,,,,,,,,,,,,,,,,,,,,,,,,,,,,,,,,,,,,,,,,,,,,,,,,,,,,,,,,,,,,,,,,,,,,,,,,,,,,,,,,,,
0,92,92,51,1,,615a05ea9fa698f79ec834a7,62c5393dd4c09d92ed7b8ccd,2022-07-06_09h27.36.767,Colour_Asymmetry_Pilot,2022.1.3,Win32,60.04202942,62c50e9c1127f2cd403a315f,,,,,,,,,,,,,,,,,,,,,,,,,,,,,,,,,,,,,,,,,,,,,,,,,,,,,,,,,,,,,,,,,,,,,,,,,,,,,,,,,,,,,,,,,,,,,,,,,,,,,,,,,,,,,,,,,,,,,,,,,,,,,,,,,,,,,,,,,,,,,,,,,,,,,,,,,,,,,,,,,,
,,,,,,615a05ea9fa698f79ec834a7,62c5393dd4c09d92ed7b8ccd,2022-07-06_09h27.36.767,Colour_Asymmetry_Pilot,2022.1.3,Win32,60.04202942,62c50e9c1127f2cd403a315f,0,0,0,77,1,threefour,,,,,,,,,,,,,,,,,,,,,,,,,,,,,,,,,,,,,,,,,,,,,,,,,,,,,,,,,,,,,,,,,,,,,,,,,,,,,,,,,,,,,,,,,,,,,,,,,,,,,,,,,,,,,,,,,,,,,,,,,,,,,,,,,,,,,,,,,,,,,,,,,,,,,,,,,,,,
,,,,,,615a05ea9fa698f79ec834a7,62c5393dd4c09d92ed7b8ccd,2022-07-06_09h27.36.767,Colour_Asymmetry_Pilot,2022.1.3,Win32,60.04202942,62c50e9c1127f2cd403a315f,0,1,1,85,1,threefour,,,,,,,,,,,,,,,,,,,,,,,,,,,,,,,,,,,,,,,,,,,,,,,,,,,,,,,,,,,,,,,,,,,,,,,,,,,,,,,,,,,,,,,,,,,,,,,,,,,,,,,,,,,,,,,,,,,,,,,,,,,,,,,,,,,,,,,,,,,,,,,,,,,,,,,,,,,,
,,,,,,615a05ea9fa698f79ec834a7,62c5393dd4c09d92ed7b8ccd,2022-07-06_09h27.36.767,Colour_Asymmetry_Pilot,2022.1.3,Win32,60.04202942,62c50e9c1127f2cd403a315f,0,2,2,84,1,threeone,,,,,,,,,,,,,,,,,,,,,,,,,,,,,,,,,,,,,,,,,,,,,,,,,,,,,,,,,,,,,,,,,,,,,,,,,,,,,,,,,,,,,,,,,,,,,,,,,,,,,,,,,,,,,,,,,,,,,,,,,,,,,,,,,,,,,,,,,,,,,,,,,,,,,,,,,,,,
,,,,,,615a05ea9fa698f79ec834a7,62c5393dd4c09d92ed7b8ccd,2022-07-06_09h27.36.767,Colour_Asymmetry_Pilot,2022.1.3,Win32,60.04202942,62c50e9c1127f2cd403a315f,0,3,3,14,1,fourtwo,,,,,,,,,,,,,,,,,,,,,,,,,,,,,,,,,,,,,,,,,,,,,,,,,,,,,,,,,,,,,,,,,,,,,,,,,,,,,,,,,,,,,,,,,,,,,,,,,,,,,,,,,,,,,,,,,,,,,,,,,,,,,,,,,,,,,,,,,,,,,,,,,,,,,,,,,,,,
,,,,,,615a05ea9fa698f79ec834a7,62c5393dd4c09d92ed7b8ccd,2022-07-06_09h27.36.767,Colour_Asymmetry_Pilot,2022.1.3,Win32,60.04202942,62c50e9c1127f2cd403a315f,0,4,4,10,1,twoone,,,,,,,,,,,,,,,,,,,,,,,,,,,,,,,,,,,,,,,,,,,,,,,,,,,,,,,,,,,,,,,,,,,,,,,,,,,,,,,,,,,,,,,,,,,,,,,,,,,,,,,,,,,,,,,,,,,,,,,,,,,,,,,,,,,,,,,,,,,,,,,,,,,,,,,,,,,,
,,,,,,615a05ea9fa698f79ec834a7,62c5393dd4c09d92ed7b8ccd,2022-07-06_09h27.36.767,Colour_Asymmetry_Pilot,2022.1.3,Win32,60.04202942,62c50e9c1127f2cd403a315f,0,5,5,61,1,threefour,,,,,,,,,,,,,,,,,,,,,,,,,,,,,,,,,,,,,,,,,,,,,,,,,,,,,,,,,,,,,,,,,,,,,,,,,,,,,,,,,,,,,,,,,,,,,,,,,,,,,,,,,,,,,,,,,,,,,,,,,,,,,,,,,,,,,,,,,,,,,,,,,,,,,,,,,,,,
,,,,,,615a05ea9fa698f79ec834a7,62c5393dd4c09d92ed7b8ccd,2022-07-06_09h27.36.767,Colour_Asymmetry_Pilot,2022.1.3,Win32,60.04202942,62c50e9c1127f2cd403a315f,0,6,6,111,1,fourthree,,,,,,,,,,,,,,,,,,,,,,,,,,,,,,,,,,,,,,,,,,,,,,,,,,,,,,,,,,,,,,,,,,,,,,,,,,,,,,,,,,,,,,,,,,,,,,,,,,,,,,,,,,,,,,,,,,,,,,,,,,,,,,,,,,,,,,,,,,,,,,,,,,,,,,,,,,,,
,,,,,,615a05ea9fa698f79ec834a7,62c5393dd4c09d92ed7b8ccd,2022-07-06_09h27.36.767,Colour_Asymmetry_Pilot,2022.1.3,Win32,60.04202942,62c50e9c1127f2cd403a315f,0,7,7,83,1,twofour,,,,,,,,,,,,,,,,,,,,,,,,,,,,,,,,,,,,,,,,,,,,,,,,,,,,,,,,,,,,,,,,,,,,,,,,,,,,,,,,,,,,,,,,,,,,,,,,,,,,,,,,,,,,,,,,,,,,,,,,,,,,,,,,,,,,,,,,,,,,,,,,,,,,,,,,,,,,
,,,,,,615a05ea9fa698f79ec834a7,62c5393dd4c09d92ed7b8ccd,2022-07-06_09h27.36.767,Colour_Asymmetry_Pilot,2022.1.3,Win32,60.04202942,62c50e9c1127f2cd403a315f,0,8,8,32,1,onetwo,,,,,,,,,,,,,,,,,,,,,,,,,,,,,,,,,,,,,,,,,,,,,,,,,,,,,,,,,,,,,,,,,,,,,,,,,,,,,,,,,,,,,,,,,,,,,,,,,,,,,,,,,,,,,,,,,,,,,,,,,,,,,,,,,,,,,,,,,,,,,,,,,,,,,,,,,,,,
,,,,,,615a05ea9fa698f79ec834a7,62c5393dd4c09d92ed7b8ccd,2022-07-06_09h27.36.767,Colour_Asymmetry_Pilot,2022.1.3,Win32,60.04202942,62c50e9c1127f2cd403a315f,0,9,9,123,1,twofour,,,,,,,,,,,,,,,,,,,,,,,,,,,,,,,,,,,,,,,,,,,,,,,,,,,,,,,,,,,,,,,,,,,,,,,,,,,,,,,,,,,,,,,,,,,,,,,,,,,,,,,,,,,,,,,,,,,,,,,,,,,,,,,,,,,,,,,,,,,,,,,,,,,,,,,,,,,,
,,,,,,615a05ea9fa698f79ec834a7,62c5393dd4c09d92ed7b8ccd,2022-07-06_09h27.36.767,Colour_Asymmetry_Pilot,2022.1.3,Win32,60.04202942,62c50e9c1127f2cd403a315f,0,10,10,99,1,twofour,,,,,,,,,,,,,,,,,,,,,,,,,,,,,,,,,,,,,,,,,,,,,,,,,,,,,,,,,,,,,,,,,,,,,,,,,,,,,,,,,,,,,,,,,,,,,,,,,,,,,,,,,,,,,,,,,,,,,,,,,,,,,,,,,,,,,,,,,,,,,,,,,,,,,,,,,,,,
,,,,,,615a05ea9fa698f79ec834a7,62c5393dd4c09d92ed7b8ccd,2022-07-06_09h27.36.767,Colour_Asymmetry_Pilot,2022.1.3,Win32,60.04202942,62c50e9c1127f2cd403a315f,0,11,11,69,1,threefour,,,,,,,,,,,,,,,,,,,,,,,,,,,,,,,,,,,,,,,,,,,,,,,,,,,,,,,,,,,,,,,,,,,,,,,,,,,,,,,,,,,,,,,,,,,,,,,,,,,,,,,,,,,,,,,,,,,,,,,,,,,,,,,,,,,,,,,,,,,,,,,,,,,,,,,,,,,,
,,,,,,615a05ea9fa698f79ec834a7,62c5393dd4c09d92ed7b8ccd,2022-07-06_09h27.36.767,Colour_Asymmetry_Pilot,2022.1.3,Win32,60.04202942,62c50e9c1127f2cd403a315f,0,12,12,131,1,twofour,,,,,,,,,,,,,,,,,,,,,,,,,,,,,,,,,,,,,,,,,,,,,,,,,,,,,,,,,,,,,,,,,,,,,,,,,,,,,,,,,,,,,,,,,,,,,,,,,,,,,,,,,,,,,,,,,,,,,,,,,,,,,,,,,,,,,,,,,,,,,,,,,,,,,,,,,,,,
,,,,,,615a05ea9fa698f79ec834a7,62c5393dd4c09d92ed7b8ccd,2022-07-06_09h27.36.767,Colour_Asymmetry_Pilot,2022.1.3,Win32,60.04202942,62c50e9c1127f2cd403a315f,0,13,13,59,1,twofour,,,,,,,,,,,,,,,,,,,,,,,,,,,,,,,,,,,,,,,,,,,,,,,,,,,,,,,,,,,,,,,,,,,,,,,,,,,,,,,,,,,,,,,,,,,,,,,,,,,,,,,,,,,,,,,,,,,,,,,,,,,,,,,,,,,,,,,,,,,,,,,,,,,,,,,,,,,,
,,,,,,615a05ea9fa698f79ec834a7,62c5393dd4c09d92ed7b8ccd,2022-07-06_09h27.36.767,Colour_Asymmetry_Pilot,2022.1.3,Win32,60.04202942,62c50e9c1127f2cd403a315f,0,14,14,126,1,fourtwo,,,,,,,,,,,,,,,,,,,,,,,,,,,,,,,,,,,,,,,,,,,,,,,,,,,,,,,,,,,,,,,,,,,,,,,,,,,,,,,,,,,,,,,,,,,,,,,,,,,,,,,,,,,,,,,,,,,,,,,,,,,,,,,,,,,,,,,,,,,,,,,,,,,,,,,,,,,,
,,,,,,615a05ea9fa698f79ec834a7,62c5393dd4c09d92ed7b8ccd,2022-07-06_09h27.36.767,Colour_Asymmetry_Pilot,2022.1.3,Win32,60.04202942,62c50e9c1127f2cd403a315f,0,15,15,37,1,threefour,,,,,,,,,,,,,,,,,,,,,,,,,,,,,,,,,,,,,,,,,,,,,,,,,,,,,,,,,,,,,,,,,,,,,,,,,,,,,,,,,,,,,,,,,,,,,,,,,,,,,,,,,,,,,,,,,,,,,,,,,,,,,,,,,,,,,,,,,,,,,,,,,,,,,,,,,,,,
,,,,,,615a05ea9fa698f79ec834a7,62c5393dd4c09d92ed7b8ccd,2022-07-06_09h27.36.767,Colour_Asymmetry_Pilot,2022.1.3,Win32,60.04202942,62c50e9c1127f2cd403a315f,0,16,16,156,1,threeone,,,,,,,,,,,,,,,,,,,,,,,,,,,,,,,,,,,,,,,,,,,,,,,,,,,,,,,,,,,,,,,,,,,,,,,,,,,,,,,,,,,,,,,,,,,,,,,,,,,,,,,,,,,,,,,,,,,,,,,,,,,,,,,,,,,,,,,,,,,,,,,,,,,,,,,,,,,,
,,,,,,615a05ea9fa698f79ec834a7,62c5393dd4c09d92ed7b8ccd,2022-07-06_09h27.36.767,Colour_Asymmetry_Pilot,2022.1.3,Win32,60.04202942,62c50e9c1127f2cd403a315f,0,17,17,88,1,onetwo,,,,,,,,,,,,,,,,,,,,,,,,,,,,,,,,,,,,,,,,,,,,,,,,,,,,,,,,,,,,,,,,,,,,,,,,,,,,,,,,,,,,,,,,,,,,,,,,,,,,,,,,,,,,,,,,,,,,,,,,,,,,,,,,,,,,,,,,,,,,,,,,,,,,,,,,,,,,
,,,,,,615a05ea9fa698f79ec834a7,62c5393dd4c09d92ed7b8ccd,2022-07-06_09h27.36.767,Colour_Asymmetry_Pilot,2022.1.3,Win32,60.04202942,62c50e9c1127f2cd403a315f,0,18,18,76,1,threeone,,,,,,,,,,,,,,,,,,,,,,,,,,,,,,,,,,,,,,,,,,,,,,,,,,,,,,,,,,,,,,,,,,,,,,,,,,,,,,,,,,,,,,,,,,,,,,,,,,,,,,,,,,,,,,,,,,,,,,,,,,,,,,,,,,,,,,,,,,,,,,,,,,,,,,,,,,,,
,,,,,,615a05ea9fa698f79ec834a7,62c5393dd4c09d92ed7b8ccd,2022-07-06_09h27.36.767,Colour_Asymmetry_Pilot,2022.1.3,Win32,60.04202942,62c50e9c1127f2cd403a315f,0,19,19,79,1,fourthree,,,,,,,,,,,,,,,,,,,,,,,,,,,,,,,,,,,,,,,,,,,,,,,,,,,,,,,,,,,,,,,,,,,,,,,,,,,,,,,,,,,,,,,,,,,,,,,,,,,,,,,,,,,,,,,,,,,,,,,,,,,,,,,,,,,,,,,,,,,,,,,,,,,,,,,,,,,,
,,,,,,615a05ea9fa698f79ec834a7,62c5393dd4c09d92ed7b8ccd,2022-07-06_09h27.36.767,Colour_Asymmetry_Pilot,2022.1.3,Win32,60.04202942,62c50e9c1127f2cd403a315f,0,20,20,38,1,fourtwo,,,,,,,,,,,,,,,,,,,,,,,,,,,,,,,,,,,,,,,,,,,,,,,,,,,,,,,,,,,,,,,,,,,,,,,,,,,,,,,,,,,,,,,,,,,,,,,,,,,,,,,,,,,,,,,,,,,,,,,,,,,,,,,,,,,,,,,,,,,,,,,,,,,,,,,,,,,,
,,,,,,615a05ea9fa698f79ec834a7,62c5393dd4c09d92ed7b8ccd,2022-07-06_09h27.36.767,Colour_Asymmetry_Pilot,2022.1.3,Win32,60.04202942,62c50e9c1127f2cd403a315f,0,21,21,137,1,onethree,,,,,,,,,,,,,,,,,,,,,,,,,,,,,,,,,,,,,,,,,,,,,,,,,,,,,,,,,,,,,,,,,,,,,,,,,,,,,,,,,,,,,,,,,,,,,,,,,,,,,,,,,,,,,,,,,,,,,,,,,,,,,,,,,,,,,,,,,,,,,,,,,,,,,,,,,,,,
,,,,,,615a05ea9fa698f79ec834a7,62c5393dd4c09d92ed7b8ccd,2022-07-06_09h27.36.767,Colour_Asymmetry_Pilot,2022.1.3,Win32,60.04202942,62c50e9c1127f2cd403a315f,0,22,22,8,1,onetwo,,,,,,,,,,,,,,,,,,,,,,,,,,,,,,,,,,,,,,,,,,,,,,,,,,,,,,,,,,,,,,,,,,,,,,,,,,,,,,,,,,,,,,,,,,,,,,,,,,,,,,,,,,,,,,,,,,,,,,,,,,,,,,,,,,,,,,,,,,,,,,,,,,,,,,,,,,,,
,,,,,,615a05ea9fa698f79ec834a7,62c5393dd4c09d92ed7b8ccd,2022-07-06_09h27.36.767,Colour_Asymmetry_Pilot,2022.1.3,Win32,60.04202942,62c50e9c1127f2cd403a315f,0,23,23,78,1,fourtwo,,,,,,,,,,,,,,,,,,,,,,,,,,,,,,,,,,,,,,,,,,,,,,,,,,,,,,,,,,,,,,,,,,,,,,,,,,,,,,,,,,,,,,,,,,,,,,,,,,,,,,,,,,,,,,,,,,,,,,,,,,,,,,,,,,,,,,,,,,,,,,,,,,,,,,,,,,,,
,,,,,,615a05ea9fa698f79ec834a7,62c5393dd4c09d92ed7b8ccd,2022-07-06_09h27.36.767,Colour_Asymmetry_Pilot,2022.1.3,Win32,60.04202942,62c50e9c1127f2cd403a315f,0,24,24,125,1,threefour,,,,,,,,,,,,,,,,,,,,,,,,,,,,,,,,,,,,,,,,,,,,,,,,,,,,,,,,,,,,,,,,,,,,,,,,,,,,,,,,,,,,,,,,,,,,,,,,,,,,,,,,,,,,,,,,,,,,,,,,,,,,,,,,,,,,,,,,,,,,,,,,,,,,,,,,,,,,
,,,,,,615a05ea9fa698f79ec834a7,62c5393dd4c09d92ed7b8ccd,2022-07-06_09h27.36.767,Colour_Asymmetry_Pilot,2022.1.3,Win32,60.04202942,62c50e9c1127f2cd403a315f,0,25,25,148,1,threeone,,,,,,,,,,,,,,,,,,,,,,,,,,,,,,,,,,,,,,,,,,,,,,,,,,,,,,,,,,,,,,,,,,,,,,,,,,,,,,,,,,,,,,,,,,,,,,,,,,,,,,,,,,,,,,,,,,,,,,,,,,,,,,,,,,,,,,,,,,,,,,,,,,,,,,,,,,,,
,,,,,,615a05ea9fa698f79ec834a7,62c5393dd4c09d92ed7b8ccd,2022-07-06_09h27.36.767,Colour_Asymmetry_Pilot,2022.1.3,Win32,60.04202942,62c50e9c1127f2cd403a315f,0,26,26,114,1,twoone,,,,,,,,,,,,,,,,,,,,,,,,,,,,,,,,,,,,,,,,,,,,,,,,,,,,,,,,,,,,,,,,,,,,,,,,,,,,,,,,,,,,,,,,,,,,,,,,,,,,,,,,,,,,,,,,,,,,,,,,,,,,,,,,,,,,,,,,,,,,,,,,,,,,,,,,,,,,
,,,,,,615a05ea9fa698f79ec834a7,62c5393dd4c09d92ed7b8ccd,2022-07-06_09h27.36.767,Colour_Asymmetry_Pilot,2022.1.3,Win32,60.04202942,62c50e9c1127f2cd403a315f,0,27,27,11,1,twofour,,,,,,,,,,,,,,,,,,,,,,,,,,,,,,,,,,,,,,,,,,,,,,,,,,,,,,,,,,,,,,,,,,,,,,,,,,,,,,,,,,,,,,,,,,,,,,,,,,,,,,,,,,,,,,,,,,,,,,,,,,,,,,,,,,,,,,,,,,,,,,,,,,,,,,,,,,,,
,,,,,,615a05ea9fa698f79ec834a7,62c5393dd4c09d92ed7b8ccd,2022-07-06_09h27.36.767,Colour_Asymmetry_Pilot,2022.1.3,Win32,60.04202942,62c50e9c1127f2cd403a315f,0,28,28,56,1,onetwo,,,,,,,,,,,,,,,,,,,,,,,,,,,,,,,,,,,,,,,,,,,,,,,,,,,,,,,,,,,,,,,,,,,,,,,,,,,,,,,,,,,,,,,,,,,,,,,,,,,,,,,,,,,,,,,,,,,,,,,,,,,,,,,,,,,,,,,,,,,,,,,,,,,,,,,,,,,,
,,,,,,615a05ea9fa698f79ec834a7,62c5393dd4c09d92ed7b8ccd,2022-07-06_09h27.36.767,Colour_Asymmetry_Pilot,2022.1.3,Win32,60.04202942,62c50e9c1127f2cd403a315f,0,29,29,109,1,threefour,,,,,,,,,,,,,,,,,,,,,,,,,,,,,,,,,,,,,,,,,,,,,,,,,,,,,,,,,,,,,,,,,,,,,,,,,,,,,,,,,,,,,,,,,,,,,,,,,,,,,,,,,,,,,,,,,,,,,,,,,,,,,,,,,,,,,,,,,,,,,,,,,,,,,,,,,,,,
,,,,,,615a05ea9fa698f79ec834a7,62c5393dd4c09d92ed7b8ccd,2022-07-06_09h27.36.767,Colour_Asymmetry_Pilot,2022.1.3,Win32,60.04202942,62c50e9c1127f2cd403a315f,0,30,30,17,1,onethree,,,,,,,,,,,,,,,,,,,,,,,,,,,,,,,,,,,,,,,,,,,,,,,,,,,,,,,,,,,,,,,,,,,,,,,,,,,,,,,,,,,,,,,,,,,,,,,,,,,,,,,,,,,,,,,,,,,,,,,,,,,,,,,,,,,,,,,,,,,,,,,,,,,,,,,,,,,,
,,,,,,615a05ea9fa698f79ec834a7,62c5393dd4c09d92ed7b8ccd,2022-07-06_09h27.36.767,Colour_Asymmetry_Pilot,2022.1.3,Win32,60.04202942,62c50e9c1127f2cd403a315f,0,31,31,143,1,fourthree,,,,,,,,,,,,,,,,,,,,,,,,,,,,,,,,,,,,,,,,,,,,,,,,,,,,,,,,,,,,,,,,,,,,,,,,,,,,,,,,,,,,,,,,,,,,,,,,,,,,,,,,,,,,,,,,,,,,,,,,,,,,,,,,,,,,,,,,,,,,,,,,,,,,,,,,,,,,
,,,,,,615a05ea9fa698f79ec834a7,62c5393dd4c09d92ed7b8ccd,2022-07-06_09h27.36.767,Colour_Asymmetry_Pilot,2022.1.3,Win32,60.04202942,62c50e9c1127f2cd403a315f,0,32,32,40,1,onetwo,,,,,,,,,,,,,,,,,,,,,,,,,,,,,,,,,,,,,,,,,,,,,,,,,,,,,,,,,,,,,,,,,,,,,,,,,,,,,,,,,,,,,,,,,,,,,,,,,,,,,,,,,,,,,,,,,,,,,,,,,,,,,,,,,,,,,,,,,,,,,,,,,,,,,,,,,,,,
,,,,,,615a05ea9fa698f79ec834a7,62c5393dd4c09d92ed7b8ccd,2022-07-06_09h27.36.767,Colour_Asymmetry_Pilot,2022.1.3,Win32,60.04202942,62c50e9c1127f2cd403a315f,0,33,33,15,1,fourthree,,,,,,,,,,,,,,,,,,,,,,,,,,,,,,,,,,,,,,,,,,,,,,,,,,,,,,,,,,,,,,,,,,,,,,,,,,,,,,,,,,,,,,,,,,,,,,,,,,,,,,,,,,,,,,,,,,,,,,,,,,,,,,,,,,,,,,,,,,,,,,,,,,,,,,,,,,,,
,,,,,,615a05ea9fa698f79ec834a7,62c5393dd4c09d92ed7b8ccd,2022-07-06_09h27.36.767,Colour_Asymmetry_Pilot,2022.1.3,Win32,60.04202942,62c50e9c1127f2cd403a315f,0,34,34,49,1,onethree,,,,,,,,,,,,,,,,,,,,,,,,,,,,,,,,,,,,,,,,,,,,,,,,,,,,,,,,,,,,,,,,,,,,,,,,,,,,,,,,,,,,,,,,,,,,,,,,,,,,,,,,,,,,,,,,,,,,,,,,,,,,,,,,,,,,,,,,,,,,,,,,,,,,,,,,,,,,
,,,,,,615a05ea9fa698f79ec834a7,62c5393dd4c09d92ed7b8ccd,2022-07-06_09h27.36.767,Colour_Asymmetry_Pilot,2022.1.3,Win32,60.04202942,62c50e9c1127f2cd403a315f,0,35,35,129,1,onethree,,,,,,,,,,,,,,,,,,,,,,,,,,,,,,,,,,,,,,,,,,,,,,,,,,,,,,,,,,,,,,,,,,,,,,,,,,,,,,,,,,,,,,,,,,,,,,,,,,,,,,,,,,,,,,,,,,,,,,,,,,,,,,,,,,,,,,,,,,,,,,,,,,,,,,,,,,,,
,,,,,,615a05ea9fa698f79ec834a7,62c5393dd4c09d92ed7b8ccd,2022-07-06_09h27.36.767,Colour_Asymmetry_Pilot,2022.1.3,Win32,60.04202942,62c50e9c1127f2cd403a315f,0,36,36,72,1,onetwo,,,,,,,,,,,,,,,,,,,,,,,,,,,,,,,,,,,,,,,,,,,,,,,,,,,,,,,,,,,,,,,,,,,,,,,,,,,,,,,,,,,,,,,,,,,,,,,,,,,,,,,,,,,,,,,,,,,,,,,,,,,,,,,,,,,,,,,,,,,,,,,,,,,,,,,,,,,,
,,,,,,615a05ea9fa698f79ec834a7,62c5393dd4c09d92ed7b8ccd,2022-07-06_09h27.36.767,Colour_Asymmetry_Pilot,2022.1.3,Win32,60.04202942,62c50e9c1127f2cd403a315f,0,37,37,53,1,threefour,,,,,,,,,,,,,,,,,,,,,,,,,,,,,,,,,,,,,,,,,,,,,,,,,,,,,,,,,,,,,,,,,,,,,,,,,,,,,,,,,,,,,,,,,,,,,,,,,,,,,,,,,,,,,,,,,,,,,,,,,,,,,,,,,,,,,,,,,,,,,,,,,,,,,,,,,,,,
,,,,,,615a05ea9fa698f79ec834a7,62c5393dd4c09d92ed7b8ccd,2022-07-06_09h27.36.767,Colour_Asymmetry_Pilot,2022.1.3,Win32,60.04202942,62c50e9c1127f2cd403a315f,0,38,38,43,1,twofour,,,,,,,,,,,,,,,,,,,,,,,,,,,,,,,,,,,,,,,,,,,,,,,,,,,,,,,,,,,,,,,,,,,,,,,,,,,,,,,,,,,,,,,,,,,,,,,,,,,,,,,,,,,,,,,,,,,,,,,,,,,,,,,,,,,,,,,,,,,,,,,,,,,,,,,,,,,,
,,,,,,615a05ea9fa698f79ec834a7,62c5393dd4c09d92ed7b8ccd,2022-07-06_09h27.36.767,Colour_Asymmetry_Pilot,2022.1.3,Win32,60.04202942,62c50e9c1127f2cd403a315f,0,39,39,161,1,onethree,,,,,,,,,,,,,,,,,,,,,,,,,,,,,,,,,,,,,,,,,,,,,,,,,,,,,,,,,,,,,,,,,,,,,,,,,,,,,,,,,,,,,,,,,,,,,,,,,,,,,,,,,,,,,,,,,,,,,,,,,,,,,,,,,,,,,,,,,,,,,,,,,,,,,,,,,,,,
,,,,,,615a05ea9fa698f79ec834a7,62c5393dd4c09d92ed7b8ccd,2022-07-06_09h27.36.767,Colour_Asymmetry_Pilot,2022.1.3,Win32,60.04202942,62c50e9c1127f2cd403a315f,0,40,40,101,1,threefour,,,,,,,,,,,,,,,,,,,,,,,,,,,,,,,,,,,,,,,,,,,,,,,,,,,,,,,,,,,,,,,,,,,,,,,,,,,,,,,,,,,,,,,,,,,,,,,,,,,,,,,,,,,,,,,,,,,,,,,,,,,,,,,,,,,,,,,,,,,,,,,,,,,,,,,,,,,,
,,,,,,615a05ea9fa698f79ec834a7,62c5393dd4c09d92ed7b8ccd,2022-07-06_09h27.36.767,Colour_Asymmetry_Pilot,2022.1.3,Win32,60.04202942,62c50e9c1127f2cd403a315f,0,41,41,150,1,fourtwo,,,,,,,,,,,,,,,,,,,,,,,,,,,,,,,,,,,,,,,,,,,,,,,,,,,,,,,,,,,,,,,,,,,,,,,,,,,,,,,,,,,,,,,,,,,,,,,,,,,,,,,,,,,,,,,,,,,,,,,,,,,,,,,,,,,,,,,,,,,,,,,,,,,,,,,,,,,,
,,,,,,615a05ea9fa698f79ec834a7,62c5393dd4c09d92ed7b8ccd,2022-07-06_09h27.36.767,Colour_Asymmetry_Pilot,2022.1.3,Win32,60.04202942,62c50e9c1127f2cd403a315f,0,42,42,95,1,fourthree,,,,,,,,,,,,,,,,,,,,,,,,,,,,,,,,,,,,,,,,,,,,,,,,,,,,,,,,,,,,,,,,,,,,,,,,,,,,,,,,,,,,,,,,,,,,,,,,,,,,,,,,,,,,,,,,,,,,,,,,,,,,,,,,,,,,,,,,,,,,,,,,,,,,,,,,,,,,
,,,,,,615a05ea9fa698f79ec834a7,62c5393dd4c09d92ed7b8ccd,2022-07-06_09h27.36.767,Colour_Asymmetry_Pilot,2022.1.3,Win32,60.04202942,62c50e9c1127f2cd403a315f,0,43,43,142,1,fourtwo,,,,,,,,,,,,,,,,,,,,,,,,,,,,,,,,,,,,,,,,,,,,,,,,,,,,,,,,,,,,,,,,,,,,,,,,,,,,,,,,,,,,,,,,,,,,,,,,,,,,,,,,,,,,,,,,,,,,,,,,,,,,,,,,,,,,,,,,,,,,,,,,,,,,,,,,,,,,
,,,,,,615a05ea9fa698f79ec834a7,62c5393dd4c09d92ed7b8ccd,2022-07-06_09h27.36.767,Colour_Asymmetry_Pilot,2022.1.3,Win32,60.04202942,62c50e9c1127f2cd403a315f,0,44,44,20,1,threeone,,,,,,,,,,,,,,,,,,,,,,,,,,,,,,,,,,,,,,,,,,,,,,,,,,,,,,,,,,,,,,,,,,,,,,,,,,,,,,,,,,,,,,,,,,,,,,,,,,,,,,,,,,,,,,,,,,,,,,,,,,,,,,,,,,,,,,,,,,,,,,,,,,,,,,,,,,,,
,,,,,,615a05ea9fa698f79ec834a7,62c5393dd4c09d92ed7b8ccd,2022-07-06_09h27.36.767,Colour_Asymmetry_Pilot,2022.1.3,Win32,60.04202942,62c50e9c1127f2cd403a315f,0,45,45,45,1,threefour,,,,,,,,,,,,,,,,,,,,,,,,,,,,,,,,,,,,,,,,,,,,,,,,,,,,,,,,,,,,,,,,,,,,,,,,,,,,,,,,,,,,,,,,,,,,,,,,,,,,,,,,,,,,,,,,,,,,,,,,,,,,,,,,,,,,,,,,,,,,,,,,,,,,,,,,,,,,
,,,,,,615a05ea9fa698f79ec834a7,62c5393dd4c09d92ed7b8ccd,2022-07-06_09h27.36.767,Colour_Asymmetry_Pilot,2022.1.3,Win32,60.04202942,62c50e9c1127f2cd403a315f,0,46,46,94,1,fourtwo,,,,,,,,,,,,,,,,,,,,,,,,,,,,,,,,,,,,,,,,,,,,,,,,,,,,,,,,,,,,,,,,,,,,,,,,,,,,,,,,,,,,,,,,,,,,,,,,,,,,,,,,,,,,,,,,,,,,,,,,,,,,,,,,,,,,,,,,,,,,,,,,,,,,,,,,,,,,
,,,,,,615a05ea9fa698f79ec834a7,62c5393dd4c09d92ed7b8ccd,2022-07-06_09h27.36.767,Colour_Asymmetry_Pilot,2022.1.3,Win32,60.04202942,62c50e9c1127f2cd403a315f,0,47,47,155,1,twofour,,,,,,,,,,,,,,,,,,,,,,,,,,,,,,,,,,,,,,,,,,,,,,,,,,,,,,,,,,,,,,,,,,,,,,,,,,,,,,,,,,,,,,,,,,,,,,,,,,,,,,,,,,,,,,,,,,,,,,,,,,,,,,,,,,,,,,,,,,,,,,,,,,,,,,,,,,,,
,,,,,,615a05ea9fa698f79ec834a7,62c5393dd4c09d92ed7b8ccd,2022-07-06_09h27.36.767,Colour_Asymmetry_Pilot,2022.1.3,Win32,60.04202942,62c50e9c1127f2cd403a315f,0,48,48,121,1,onethree,,,,,,,,,,,,,,,,,,,,,,,,,,,,,,,,,,,,,,,,,,,,,,,,,,,,,,,,,,,,,,,,,,,,,,,,,,,,,,,,,,,,,,,,,,,,,,,,,,,,,,,,,,,,,,,,,,,,,,,,,,,,,,,,,,,,,,,,,,,,,,,,,,,,,,,,,,,,
,,,,,,615a05ea9fa698f79ec834a7,62c5393dd4c09d92ed7b8ccd,2022-07-06_09h27.36.767,Colour_Asymmetry_Pilot,2022.1.3,Win32,60.04202942,62c50e9c1127f2cd403a315f,0,49,49,102,1,fourtwo,,,,,,,,,,,,,,,,,,,,,,,,,,,,,,,,,,,,,,,,,,,,,,,,,,,,,,,,,,,,,,,,,,,,,,,,,,,,,,,,,,,,,,,,,,,,,,,,,,,,,,,,,,,,,,,,,,,,,,,,,,,,,,,,,,,,,,,,,,,,,,,,,,,,,,,,,,,,
,,,,,,615a05ea9fa698f79ec834a7,62c5393dd4c09d92ed7b8ccd,2022-07-06_09h27.36.767,Colour_Asymmetry_Pilot,2022.1.3,Win32,60.04202942,62c50e9c1127f2cd403a315f,0,50,50,34,1,twoone,,,,,,,,,,,,,,,,,,,,,,,,,,,,,,,,,,,,,,,,,,,,,,,,,,,,,,,,,,,,,,,,,,,,,,,,,,,,,,,,,,,,,,,,,,,,,,,,,,,,,,,,,,,,,,,,,,,,,,,,,,,,,,,,,,,,,,,,,,,,,,,,,,,,,,,,,,,,
,,,,,,615a05ea9fa698f79ec834a7,62c5393dd4c09d92ed7b8ccd,2022-07-06_09h27.36.767,Colour_Asymmetry_Pilot,2022.1.3,Win32,60.04202942,62c50e9c1127f2cd403a315f,0,51,51,96,1,onetwo,,,,,,,,,,,,,,,,,,,,,,,,,,,,,,,,,,,,,,,,,,,,,,,,,,,,,,,,,,,,,,,,,,,,,,,,,,,,,,,,,,,,,,,,,,,,,,,,,,,,,,,,,,,,,,,,,,,,,,,,,,,,,,,,,,,,,,,,,,,,,,,,,,,,,,,,,,,,
,,,,,,615a05ea9fa698f79ec834a7,62c5393dd4c09d92ed7b8ccd,2022-07-06_09h27.36.767,Colour_Asymmetry_Pilot,2022.1.3,Win32,60.04202942,62c50e9c1127f2cd403a315f,0,52,52,146,1,twoone,,,,,,,,,,,,,,,,,,,,,,,,,,,,,,,,,,,,,,,,,,,,,,,,,,,,,,,,,,,,,,,,,,,,,,,,,,,,,,,,,,,,,,,,,,,,,,,,,,,,,,,,,,,,,,,,,,,,,,,,,,,,,,,,,,,,,,,,,,,,,,,,,,,,,,,,,,,,
,,,,,,615a05ea9fa698f79ec834a7,62c5393dd4c09d92ed7b8ccd,2022-07-06_09h27.36.767,Colour_Asymmetry_Pilot,2022.1.3,Win32,60.04202942,62c50e9c1127f2cd403a315f,0,53,53,65,1,onethree,,,,,,,,,,,,,,,,,,,,,,,,,,,,,,,,,,,,,,,,,,,,,,,,,,,,,,,,,,,,,,,,,,,,,,,,,,,,,,,,,,,,,,,,,,,,,,,,,,,,,,,,,,,,,,,,,,,,,,,,,,,,,,,,,,,,,,,,,,,,,,,,,,,,,,,,,,,,
,,,,,,615a05ea9fa698f79ec834a7,62c5393dd4c09d92ed7b8ccd,2022-07-06_09h27.36.767,Colour_Asymmetry_Pilot,2022.1.3,Win32,60.04202942,62c50e9c1127f2cd403a315f,0,54,54,152,1,onetwo,,,,,,,,,,,,,,,,,,,,,,,,,,,,,,,,,,,,,,,,,,,,,,,,,,,,,,,,,,,,,,,,,,,,,,,,,,,,,,,,,,,,,,,,,,,,,,,,,,,,,,,,,,,,,,,,,,,,,,,,,,,,,,,,,,,,,,,,,,,,,,,,,,,,,,,,,,,,
,,,,,,615a05ea9fa698f79ec834a7,62c5393dd4c09d92ed7b8ccd,2022-07-06_09h27.36.767,Colour_Asymmetry_Pilot,2022.1.3,Win32,60.04202942,62c50e9c1127f2cd403a315f,0,55,55,18,1,twoone,,,,,,,,,,,,,,,,,,,,,,,,,,,,,,,,,,,,,,,,,,,,,,,,,,,,,,,,,,,,,,,,,,,,,,,,,,,,,,,,,,,,,,,,,,,,,,,,,,,,,,,,,,,,,,,,,,,,,,,,,,,,,,,,,,,,,,,,,,,,,,,,,,,,,,,,,,,,
,,,,,,615a05ea9fa698f79ec834a7,62c5393dd4c09d92ed7b8ccd,2022-07-06_09h27.36.767,Colour_Asymmetry_Pilot,2022.1.3,Win32,60.04202942,62c50e9c1127f2cd403a315f,0,56,56,31,1,fourthree,,,,,,,,,,,,,,,,,,,,,,,,,,,,,,,,,,,,,,,,,,,,,,,,,,,,,,,,,,,,,,,,,,,,,,,,,,,,,,,,,,,,,,,,,,,,,,,,,,,,,,,,,,,,,,,,,,,,,,,,,,,,,,,,,,,,,,,,,,,,,,,,,,,,,,,,,,,,
,,,,,,615a05ea9fa698f79ec834a7,62c5393dd4c09d92ed7b8ccd,2022-07-06_09h27.36.767,Colour_Asymmetry_Pilot,2022.1.3,Win32,60.04202942,62c50e9c1127f2cd403a315f,0,57,57,13,1,threefour,,,,,,,,,,,,,,,,,,,,,,,,,,,,,,,,,,,,,,,,,,,,,,,,,,,,,,,,,,,,,,,,,,,,,,,,,,,,,,,,,,,,,,,,,,,,,,,,,,,,,,,,,,,,,,,,,,,,,,,,,,,,,,,,,,,,,,,,,,,,,,,,,,,,,,,,,,,,
,,,,,,615a05ea9fa698f79ec834a7,62c5393dd4c09d92ed7b8ccd,2022-07-06_09h27.36.767,Colour_Asymmetry_Pilot,2022.1.3,Win32,60.04202942,62c50e9c1127f2cd403a315f,0,58,58,117,1,threefour,,,,,,,,,,,,,,,,,,,,,,,,,,,,,,,,,,,,,,,,,,,,,,,,,,,,,,,,,,,,,,,,,,,,,,,,,,,,,,,,,,,,,,,,,,,,,,,,,,,,,,,,,,,,,,,,,,,,,,,,,,,,,,,,,,,,,,,,,,,,,,,,,,,,,,,,,,,,
,,,,,,615a05ea9fa698f79ec834a7,62c5393dd4c09d92ed7b8ccd,2022-07-06_09h27.36.767,Colour_Asymmetry_Pilot,2022.1.3,Win32,60.04202942,62c50e9c1127f2cd403a315f,0,59,59,97,1,onethree,,,,,,,,,,,,,,,,,,,,,,,,,,,,,,,,,,,,,,,,,,,,,,,,,,,,,,,,,,,,,,,,,,,,,,,,,,,,,,,,,,,,,,,,,,,,,,,,,,,,,,,,,,,,,,,,,,,,,,,,,,,,,,,,,,,,,,,,,,,,,,,,,,,,,,,,,,,,
,,,,,,615a05ea9fa698f79ec834a7,62c5393dd4c09d92ed7b8ccd,2022-07-06_09h27.36.767,Colour_Asymmetry_Pilot,2022.1.3,Win32,60.04202942,62c50e9c1127f2cd403a315f,0,60,60,2,1,twoone,,,,,,,,,,,,,,,,,,,,,,,,,,,,,,,,,,,,,,,,,,,,,,,,,,,,,,,,,,,,,,,,,,,,,,,,,,,,,,,,,,,,,,,,,,,,,,,,,,,,,,,,,,,,,,,,,,,,,,,,,,,,,,,,,,,,,,,,,,,,,,,,,,,,,,,,,,,,
,,,,,,615a05ea9fa698f79ec834a7,62c5393dd4c09d92ed7b8ccd,2022-07-06_09h27.36.767,Colour_Asymmetry_Pilot,2022.1.3,Win32,60.04202942,62c50e9c1127f2cd403a315f,0,61,61,48,1,onetwo,,,,,,,,,,,,,,,,,,,,,,,,,,,,,,,,,,,,,,,,,,,,,,,,,,,,,,,,,,,,,,,,,,,,,,,,,,,,,,,,,,,,,,,,,,,,,,,,,,,,,,,,,,,,,,,,,,,,,,,,,,,,,,,,,,,,,,,,,,,,,,,,,,,,,,,,,,,,
,,,,,,615a05ea9fa698f79ec834a7,62c5393dd4c09d92ed7b8ccd,2022-07-06_09h27.36.767,Colour_Asymmetry_Pilot,2022.1.3,Win32,60.04202942,62c50e9c1127f2cd403a315f,0,62,62,21,1,threefour,,,,,,,,,,,,,,,,,,,,,,,,,,,,,,,,,,,,,,,,,,,,,,,,,,,,,,,,,,,,,,,,,,,,,,,,,,,,,,,,,,,,,,,,,,,,,,,,,,,,,,,,,,,,,,,,,,,,,,,,,,,,,,,,,,,,,,,,,,,,,,,,,,,,,,,,,,,,
,,,,,,615a05ea9fa698f79ec834a7,62c5393dd4c09d92ed7b8ccd,2022-07-06_09h27.36.767,Colour_Asymmetry_Pilot,2022.1.3,Win32,60.04202942,62c50e9c1127f2cd403a315f,0,63,63,60,1,threeone,,,,,,,,,,,,,,,,,,,,,,,,,,,,,,,,,,,,,,,,,,,,,,,,,,,,,,,,,,,,,,,,,,,,,,,,,,,,,,,,,,,,,,,,,,,,,,,,,,,,,,,,,,,,,,,,,,,,,,,,,,,,,,,,,,,,,,,,,,,,,,,,,,,,,,,,,,,,
,,,,,,615a05ea9fa698f79ec834a7,62c5393dd4c09d92ed7b8ccd,2022-07-06_09h27.36.767,Colour_Asymmetry_Pilot,2022.1.3,Win32,60.04202942,62c50e9c1127f2cd403a315f,0,64,64,39,1,fourthree,,,,,,,,,,,,,,,,,,,,,,,,,,,,,,,,,,,,,,,,,,,,,,,,,,,,,,,,,,,,,,,,,,,,,,,,,,,,,,,,,,,,,,,,,,,,,,,,,,,,,,,,,,,,,,,,,,,,,,,,,,,,,,,,,,,,,,,,,,,,,,,,,,,,,,,,,,,,
,,,,,,615a05ea9fa698f79ec834a7,62c5393dd4c09d92ed7b8ccd,2022-07-06_09h27.36.767,Colour_Asymmetry_Pilot,2022.1.3,Win32,60.04202942,62c50e9c1127f2cd403a315f,0,65,65,1,1,onethree,,,,,,,,,,,,,,,,,,,,,,,,,,,,,,,,,,,,,,,,,,,,,,,,,,,,,,,,,,,,,,,,,,,,,,,,,,,,,,,,,,,,,,,,,,,,,,,,,,,,,,,,,,,,,,,,,,,,,,,,,,,,,,,,,,,,,,,,,,,,,,,,,,,,,,,,,,,,
,,,,,,615a05ea9fa698f79ec834a7,62c5393dd4c09d92ed7b8ccd,2022-07-06_09h27.36.767,Colour_Asymmetry_Pilot,2022.1.3,Win32,60.04202942,62c50e9c1127f2cd403a315f,0,66,66,0,1,onetwo,,,,,,,,,,,,,,,,,,,,,,,,,,,,,,,,,,,,,,,,,,,,,,,,,,,,,,,,,,,,,,,,,,,,,,,,,,,,,,,,,,,,,,,,,,,,,,,,,,,,,,,,,,,,,,,,,,,,,,,,,,,,,,,,,,,,,,,,,,,,,,,,,,,,,,,,,,,,
,,,,,,615a05ea9fa698f79ec834a7,62c5393dd4c09d92ed7b8ccd,2022-07-06_09h27.36.767,Colour_Asymmetry_Pilot,2022.1.3,Win32,60.04202942,62c50e9c1127f2cd403a315f,0,67,67,27,1,twofour,,,,,,,,,,,,,,,,,,,,,,,,,,,,,,,,,,,,,,,,,,,,,,,,,,,,,,,,,,,,,,,,,,,,,,,,,,,,,,,,,,,,,,,,,,,,,,,,,,,,,,,,,,,,,,,,,,,,,,,,,,,,,,,,,,,,,,,,,,,,,,,,,,,,,,,,,,,,
,,,,,,615a05ea9fa698f79ec834a7,62c5393dd4c09d92ed7b8ccd,2022-07-06_09h27.36.767,Colour_Asymmetry_Pilot,2022.1.3,Win32,60.04202942,62c50e9c1127f2cd403a315f,0,68,68,16,1,onetwo,,,,,,,,,,,,,,,,,,,,,,,,,,,,,,,,,,,,,,,,,,,,,,,,,,,,,,,,,,,,,,,,,,,,,,,,,,,,,,,,,,,,,,,,,,,,,,,,,,,,,,,,,,,,,,,,,,,,,,,,,,,,,,,,,,,,,,,,,,,,,,,,,,,,,,,,,,,,
,,,,,,615a05ea9fa698f79ec834a7,62c5393dd4c09d92ed7b8ccd,2022-07-06_09h27.36.767,Colour_Asymmetry_Pilot,2022.1.3,Win32,60.04202942,62c50e9c1127f2cd403a315f,0,69,69,5,1,threefour,,,,,,,,,,,,,,,,,,,,,,,,,,,,,,,,,,,,,,,,,,,,,,,,,,,,,,,,,,,,,,,,,,,,,,,,,,,,,,,,,,,,,,,,,,,,,,,,,,,,,,,,,,,,,,,,,,,,,,,,,,,,,,,,,,,,,,,,,,,,,,,,,,,,,,,,,,,,
,,,,,,615a05ea9fa698f79ec834a7,62c5393dd4c09d92ed7b8ccd,2022-07-06_09h27.36.767,Colour_Asymmetry_Pilot,2022.1.3,Win32,60.04202942,62c50e9c1127f2cd403a315f,0,70,70,108,1,threeone,,,,,,,,,,,,,,,,,,,,,,,,,,,,,,,,,,,,,,,,,,,,,,,,,,,,,,,,,,,,,,,,,,,,,,,,,,,,,,,,,,,,,,,,,,,,,,,,,,,,,,,,,,,,,,,,,,,,,,,,,,,,,,,,,,,,,,,,,,,,,,,,,,,,,,,,,,,,
,,,,,,615a05ea9fa698f79ec834a7,62c5393dd4c09d92ed7b8ccd,2022-07-06_09h27.36.767,Colour_Asymmetry_Pilot,2022.1.3,Win32,60.04202942,62c50e9c1127f2cd403a315f,0,71,71,110,1,fourtwo,,,,,,,,,,,,,,,,,,,,,,,,,,,,,,,,,,,,,,,,,,,,,,,,,,,,,,,,,,,,,,,,,,,,,,,,,,,,,,,,,,,,,,,,,,,,,,,,,,,,,,,,,,,,,,,,,,,,,,,,,,,,,,,,,,,,,,,,,,,,,,,,,,,,,,,,,,,,
,,,,,,615a05ea9fa698f79ec834a7,62c5393dd4c09d92ed7b8ccd,2022-07-06_09h27.36.767,Colour_Asymmetry_Pilot,2022.1.3,Win32,60.04202942,62c50e9c1127f2cd403a315f,0,72,72,141,1,threefour,,,,,,,,,,,,,,,,,,,,,,,,,,,,,,,,,,,,,,,,,,,,,,,,,,,,,,,,,,,,,,,,,,,,,,,,,,,,,,,,,,,,,,,,,,,,,,,,,,,,,,,,,,,,,,,,,,,,,,,,,,,,,,,,,,,,,,,,,,,,,,,,,,,,,,,,,,,,
,,,,,,615a05ea9fa698f79ec834a7,62c5393dd4c09d92ed7b8ccd,2022-07-06_09h27.36.767,Colour_Asymmetry_Pilot,2022.1.3,Win32,60.04202942,62c50e9c1127f2cd403a315f,0,73,73,54,1,fourtwo,,,,,,,,,,,,,,,,,,,,,,,,,,,,,,,,,,,,,,,,,,,,,,,,,,,,,,,,,,,,,,,,,,,,,,,,,,,,,,,,,,,,,,,,,,,,,,,,,,,,,,,,,,,,,,,,,,,,,,,,,,,,,,,,,,,,,,,,,,,,,,,,,,,,,,,,,,,,
,,,,,,615a05ea9fa698f79ec834a7,62c5393dd4c09d92ed7b8ccd,2022-07-06_09h27.36.767,Colour_Asymmetry_Pilot,2022.1.3,Win32,60.04202942,62c50e9c1127f2cd403a315f,0,74,74,90,1,twoone,,,,,,,,,,,,,,,,,,,,,,,,,,,,,,,,,,,,,,,,,,,,,,,,,,,,,,,,,,,,,,,,,,,,,,,,,,,,,,,,,,,,,,,,,,,,,,,,,,,,,,,,,,,,,,,,,,,,,,,,,,,,,,,,,,,,,,,,,,,,,,,,,,,,,,,,,,,,
,,,,,,615a05ea9fa698f79ec834a7,62c5393dd4c09d92ed7b8ccd,2022-07-06_09h27.36.767,Colour_Asymmetry_Pilot,2022.1.3,Win32,60.04202942,62c50e9c1127f2cd403a315f,0,75,75,104,1,onetwo,,,,,,,,,,,,,,,,,,,,,,,,,,,,,,,,,,,,,,,,,,,,,,,,,,,,,,,,,,,,,,,,,,,,,,,,,,,,,,,,,,,,,,,,,,,,,,,,,,,,,,,,,,,,,,,,,,,,,,,,,,,,,,,,,,,,,,,,,,,,,,,,,,,,,,,,,,,,
,,,,,,615a05ea9fa698f79ec834a7,62c5393dd4c09d92ed7b8ccd,2022-07-06_09h27.36.767,Colour_Asymmetry_Pilot,2022.1.3,Win32,60.04202942,62c50e9c1127f2cd403a315f,0,76,76,57,1,onethree,,,,,,,,,,,,,,,,,,,,,,,,,,,,,,,,,,,,,,,,,,,,,,,,,,,,,,,,,,,,,,,,,,,,,,,,,,,,,,,,,,,,,,,,,,,,,,,,,,,,,,,,,,,,,,,,,,,,,,,,,,,,,,,,,,,,,,,,,,,,,,,,,,,,,,,,,,,,
,,,,,,615a05ea9fa698f79ec834a7,62c5393dd4c09d92ed7b8ccd,2022-07-06_09h27.36.767,Colour_Asymmetry_Pilot,2022.1.3,Win32,60.04202942,62c50e9c1127f2cd403a315f,0,77,77,29,1,threefour,,,,,,,,,,,,,,,,,,,,,,,,,,,,,,,,,,,,,,,,,,,,,,,,,,,,,,,,,,,,,,,,,,,,,,,,,,,,,,,,,,,,,,,,,,,,,,,,,,,,,,,,,,,,,,,,,,,,,,,,,,,,,,,,,,,,,,,,,,,,,,,,,,,,,,,,,,,,
,,,,,,615a05ea9fa698f79ec834a7,62c5393dd4c09d92ed7b8ccd,2022-07-06_09h27.36.767,Colour_Asymmetry_Pilot,2022.1.3,Win32,60.04202942,62c50e9c1127f2cd403a315f,0,78,78,68,1,threeone,,,,,,,,,,,,,,,,,,,,,,,,,,,,,,,,,,,,,,,,,,,,,,,,,,,,,,,,,,,,,,,,,,,,,,,,,,,,,,,,,,,,,,,,,,,,,,,,,,,,,,,,,,,,,,,,,,,,,,,,,,,,,,,,,,,,,,,,,,,,,,,,,,,,,,,,,,,,
,,,,,,615a05ea9fa698f79ec834a7,62c5393dd4c09d92ed7b8ccd,2022-07-06_09h27.36.767,Colour_Asymmetry_Pilot,2022.1.3,Win32,60.04202942,62c50e9c1127f2cd403a315f,0,79,79,149,1,threefour,,,,,,,,,,,,,,,,,,,,,,,,,,,,,,,,,,,,,,,,,,,,,,,,,,,,,,,,,,,,,,,,,,,,,,,,,,,,,,,,,,,,,,,,,,,,,,,,,,,,,,,,,,,,,,,,,,,,,,,,,,,,,,,,,,,,,,,,,,,,,,,,,,,,,,,,,,,,
,,,,,,615a05ea9fa698f79ec834a7,62c5393dd4c09d92ed7b8ccd,2022-07-06_09h27.36.767,Colour_Asymmetry_Pilot,2022.1.3,Win32,60.04202942,62c50e9c1127f2cd403a315f,0,80,80,44,1,threeone,,,,,,,,,,,,,,,,,,,,,,,,,,,,,,,,,,,,,,,,,,,,,,,,,,,,,,,,,,,,,,,,,,,,,,,,,,,,,,,,,,,,,,,,,,,,,,,,,,,,,,,,,,,,,,,,,,,,,,,,,,,,,,,,,,,,,,,,,,,,,,,,,,,,,,,,,,,,
,,,,,,615a05ea9fa698f79ec834a7,62c5393dd4c09d92ed7b8ccd,2022-07-06_09h27.36.767,Colour_Asymmetry_Pilot,2022.1.3,Win32,60.04202942,62c50e9c1127f2cd403a315f,0,81,81,116,1,threeone,,,,,,,,,,,,,,,,,,,,,,,,,,,,,,,,,,,,,,,,,,,,,,,,,,,,,,,,,,,,,,,,,,,,,,,,,,,,,,,,,,,,,,,,,,,,,,,,,,,,,,,,,,,,,,,,,,,,,,,,,,,,,,,,,,,,,,,,,,,,,,,,,,,,,,,,,,,,
,,,,,,615a05ea9fa698f79ec834a7,62c5393dd4c09d92ed7b8ccd,2022-07-06_09h27.36.767,Colour_Asymmetry_Pilot,2022.1.3,Win32,60.04202942,62c50e9c1127f2cd403a315f,0,82,82,154,1,twoone,,,,,,,,,,,,,,,,,,,,,,,,,,,,,,,,,,,,,,,,,,,,,,,,,,,,,,,,,,,,,,,,,,,,,,,,,,,,,,,,,,,,,,,,,,,,,,,,,,,,,,,,,,,,,,,,,,,,,,,,,,,,,,,,,,,,,,,,,,,,,,,,,,,,,,,,,,,,
,,,,,,615a05ea9fa698f79ec834a7,62c5393dd4c09d92ed7b8ccd,2022-07-06_09h27.36.767,Colour_Asymmetry_Pilot,2022.1.3,Win32,60.04202942,62c50e9c1127f2cd403a315f,0,83,83,36,1,threeone,,,,,,,,,,,,,,,,,,,,,,,,,,,,,,,,,,,,,,,,,,,,,,,,,,,,,,,,,,,,,,,,,,,,,,,,,,,,,,,,,,,,,,,,,,,,,,,,,,,,,,,,,,,,,,,,,,,,,,,,,,,,,,,,,,,,,,,,,,,,,,,,,,,,,,,,,,,,
,,,,,,615a05ea9fa698f79ec834a7,62c5393dd4c09d92ed7b8ccd,2022-07-06_09h27.36.767,Colour_Asymmetry_Pilot,2022.1.3,Win32,60.04202942,62c50e9c1127f2cd403a315f,0,84,84,58,1,twoone,,,,,,,,,,,,,,,,,,,,,,,,,,,,,,,,,,,,,,,,,,,,,,,,,,,,,,,,,,,,,,,,,,,,,,,,,,,,,,,,,,,,,,,,,,,,,,,,,,,,,,,,,,,,,,,,,,,,,,,,,,,,,,,,,,,,,,,,,,,,,,,,,,,,,,,,,,,,
,,,,,,615a05ea9fa698f79ec834a7,62c5393dd4c09d92ed7b8ccd,2022-07-06_09h27.36.767,Colour_Asymmetry_Pilot,2022.1.3,Win32,60.04202942,62c50e9c1127f2cd403a315f,0,85,85,62,1,fourtwo,,,,,,,,,,,,,,,,,,,,,,,,,,,,,,,,,,,,,,,,,,,,,,,,,,,,,,,,,,,,,,,,,,,,,,,,,,,,,,,,,,,,,,,,,,,,,,,,,,,,,,,,,,,,,,,,,,,,,,,,,,,,,,,,,,,,,,,,,,,,,,,,,,,,,,,,,,,,
,,,,,,615a05ea9fa698f79ec834a7,62c5393dd4c09d92ed7b8ccd,2022-07-06_09h27.36.767,Colour_Asymmetry_Pilot,2022.1.3,Win32,60.04202942,62c50e9c1127f2cd403a315f,0,86,86,132,1,threeone,,,,,,,,,,,,,,,,,,,,,,,,,,,,,,,,,,,,,,,,,,,,,,,,,,,,,,,,,,,,,,,,,,,,,,,,,,,,,,,,,,,,,,,,,,,,,,,,,,,,,,,,,,,,,,,,,,,,,,,,,,,,,,,,,,,,,,,,,,,,,,,,,,,,,,,,,,,,
,,,,,,615a05ea9fa698f79ec834a7,62c5393dd4c09d92ed7b8ccd,2022-07-06_09h27.36.767,Colour_Asymmetry_Pilot,2022.1.3,Win32,60.04202942,62c50e9c1127f2cd403a315f,0,87,87,67,1,twofour,,,,,,,,,,,,,,,,,,,,,,,,,,,,,,,,,,,,,,,,,,,,,,,,,,,,,,,,,,,,,,,,,,,,,,,,,,,,,,,,,,,,,,,,,,,,,,,,,,,,,,,,,,,,,,,,,,,,,,,,,,,,,,,,,,,,,,,,,,,,,,,,,,,,,,,,,,,,
,,,,,,615a05ea9fa698f79ec834a7,62c5393dd4c09d92ed7b8ccd,2022-07-06_09h27.36.767,Colour_Asymmetry_Pilot,2022.1.3,Win32,60.04202942,62c50e9c1127f2cd403a315f,0,88,88,124,1,threeone,,,,,,,,,,,,,,,,,,,,,,,,,,,,,,,,,,,,,,,,,,,,,,,,,,,,,,,,,,,,,,,,,,,,,,,,,,,,,,,,,,,,,,,,,,,,,,,,,,,,,,,,,,,,,,,,,,,,,,,,,,,,,,,,,,,,,,,,,,,,,,,,,,,,,,,,,,,,
,,,,,,615a05ea9fa698f79ec834a7,62c5393dd4c09d92ed7b8ccd,2022-07-06_09h27.36.767,Colour_Asymmetry_Pilot,2022.1.3,Win32,60.04202942,62c50e9c1127f2cd403a315f,0,89,89,12,1,threeone,,,,,,,,,,,,,,,,,,,,,,,,,,,,,,,,,,,,,,,,,,,,,,,,,,,,,,,,,,,,,,,,,,,,,,,,,,,,,,,,,,,,,,,,,,,,,,,,,,,,,,,,,,,,,,,,,,,,,,,,,,,,,,,,,,,,,,,,,,,,,,,,,,,,,,,,,,,,
,,,,,,615a05ea9fa698f79ec834a7,62c5393dd4c09d92ed7b8ccd,2022-07-06_09h27.36.767,Colour_Asymmetry_Pilot,2022.1.3,Win32,60.04202942,62c50e9c1127f2cd403a315f,0,90,90,75,1,twofour,,,,,,,,,,,,,,,,,,,,,,,,,,,,,,,,,,,,,,,,,,,,,,,,,,,,,,,,,,,,,,,,,,,,,,,,,,,,,,,,,,,,,,,,,,,,,,,,,,,,,,,,,,,,,,,,,,,,,,,,,,,,,,,,,,,,,,,,,,,,,,,,,,,,,,,,,,,,
,,,,,,615a05ea9fa698f79ec834a7,62c5393dd4c09d92ed7b8ccd,2022-07-06_09h27.36.767,Colour_Asymmetry_Pilot,2022.1.3,Win32,60.04202942,62c50e9c1127f2cd403a315f,0,91,91,89,1,onethree,,,,,,,,,,,,,,,,,,,,,,,,,,,,,,,,,,,,,,,,,,,,,,,,,,,,,,,,,,,,,,,,,,,,,,,,,,,,,,,,,,,,,,,,,,,,,,,,,,,,,,,,,,,,,,,,,,,,,,,,,,,,,,,,,,,,,,,,,,,,,,,,,,,,,,,,,,,,
,,,,,,615a05ea9fa698f79ec834a7,62c5393dd4c09d92ed7b8ccd,2022-07-06_09h27.36.767,Colour_Asymmetry_Pilot,2022.1.3,Win32,60.04202942,62c50e9c1127f2cd403a315f,0,92,92,103,1,fourthree,,,,,,,,,,,,,,,,,,,,,,,,,,,,,,,,,,,,,,,,,,,,,,,,,,,,,,,,,,,,,,,,,,,,,,,,,,,,,,,,,,,,,,,,,,,,,,,,,,,,,,,,,,,,,,,,,,,,,,,,,,,,,,,,,,,,,,,,,,,,,,,,,,,,,,,,,,,,
,,,,,,615a05ea9fa698f79ec834a7,62c5393dd4c09d92ed7b8ccd,2022-07-06_09h27.36.767,Colour_Asymmetry_Pilot,2022.1.3,Win32,60.04202942,62c50e9c1127f2cd403a315f,0,93,93,119,1,fourthree,,,,,,,,,,,,,,,,,,,,,,,,,,,,,,,,,,,,,,,,,,,,,,,,,,,,,,,,,,,,,,,,,,,,,,,,,,,,,,,,,,,,,,,,,,,,,,,,,,,,,,,,,,,,,,,,,,,,,,,,,,,,,,,,,,,,,,,,,,,,,,,,,,,,,,,,,,,,
,,,,,,615a05ea9fa698f79ec834a7,62c5393dd4c09d92ed7b8ccd,2022-07-06_09h27.36.767,Colour_Asymmetry_Pilot,2022.1.3,Win32,60.04202942,62c50e9c1127f2cd403a315f,0,94,94,23,1,fourthree,,,,,,,,,,,,,,,,,,,,,,,,,,,,,,,,,,,,,,,,,,,,,,,,,,,,,,,,,,,,,,,,,,,,,,,,,,,,,,,,,,,,,,,,,,,,,,,,,,,,,,,,,,,,,,,,,,,,,,,,,,,,,,,,,,,,,,,,,,,,,,,,,,,,,,,,,,,,
,,,,,,615a05ea9fa698f79ec834a7,62c5393dd4c09d92ed7b8ccd,2022-07-06_09h27.36.767,Colour_Asymmetry_Pilot,2022.1.3,Win32,60.04202942,62c50e9c1127f2cd403a315f,0,95,95,63,1,fourthree,,,,,,,,,,,,,,,,,,,,,,,,,,,,,,,,,,,,,,,,,,,,,,,,,,,,,,,,,,,,,,,,,,,,,,,,,,,,,,,,,,,,,,,,,,,,,,,,,,,,,,,,,,,,,,,,,,,,,,,,,,,,,,,,,,,,,,,,,,,,,,,,,,,,,,,,,,,,
,,,,,,615a05ea9fa698f79ec834a7,62c5393dd4c09d92ed7b8ccd,2022-07-06_09h27.36.767,Colour_Asymmetry_Pilot,2022.1.3,Win32,60.04202942,62c50e9c1127f2cd403a315f,0,96,96,138,1,twoone,,,,,,,,,,,,,,,,,,,,,,,,,,,,,,,,,,,,,,,,,,,,,,,,,,,,,,,,,,,,,,,,,,,,,,,,,,,,,,,,,,,,,,,,,,,,,,,,,,,,,,,,,,,,,,,,,,,,,,,,,,,,,,,,,,,,,,,,,,,,,,,,,,,,,,,,,,,,
,,,,,,615a05ea9fa698f79ec834a7,62c5393dd4c09d92ed7b8ccd,2022-07-06_09h27.36.767,Colour_Asymmetry_Pilot,2022.1.3,Win32,60.04202942,62c50e9c1127f2cd403a315f,0,97,97,128,1,onetwo,,,,,,,,,,,,,,,,,,,,,,,,,,,,,,,,,,,,,,,,,,,,,,,,,,,,,,,,,,,,,,,,,,,,,,,,,,,,,,,,,,,,,,,,,,,,,,,,,,,,,,,,,,,,,,,,,,,,,,,,,,,,,,,,,,,,,,,,,,,,,,,,,,,,,,,,,,,,
,,,,,,615a05ea9fa698f79ec834a7,62c5393dd4c09d92ed7b8ccd,2022-07-06_09h27.36.767,Colour_Asymmetry_Pilot,2022.1.3,Win32,60.04202942,62c50e9c1127f2cd403a315f,0,98,98,30,1,fourtwo,,,,,,,,,,,,,,,,,,,,,,,,,,,,,,,,,,,,,,,,,,,,,,,,,,,,,,,,,,,,,,,,,,,,,,,,,,,,,,,,,,,,,,,,,,,,,,,,,,,,,,,,,,,,,,,,,,,,,,,,,,,,,,,,,,,,,,,,,,,,,,,,,,,,,,,,,,,,
,,,,,,615a05ea9fa698f79ec834a7,62c5393dd4c09d92ed7b8ccd,2022-07-06_09h27.36.767,Colour_Asymmetry_Pilot,2022.1.3,Win32,60.04202942,62c50e9c1127f2cd403a315f,0,99,99,92,1,threeone,,,,,,,,,,,,,,,,,,,,,,,,,,,,,,,,,,,,,,,,,,,,,,,,,,,,,,,,,,,,,,,,,,,,,,,,,,,,,,,,,,,,,,,,,,,,,,,,,,,,,,,,,,,,,,,,,,,,,,,,,,,,,,,,,,,,,,,,,,,,,,,,,,,,,,,,,,,,
,,,,,,615a05ea9fa698f79ec834a7,62c5393dd4c09d92ed7b8ccd,2022-07-06_09h27.36.767,Colour_Asymmetry_Pilot,2022.1.3,Win32,60.04202942,62c50e9c1127f2cd403a315f,0,100,100,98,1,twoone,,,,,,,,,,,,,,,,,,,,,,,,,,,,,,,,,,,,,,,,,,,,,,,,,,,,,,,,,,,,,,,,,,,,,,,,,,,,,,,,,,,,,,,,,,,,,,,,,,,,,,,,,,,,,,,,,,,,,,,,,,,,,,,,,,,,,,,,,,,,,,,,,,,,,,,,,,,,
,,,,,,615a05ea9fa698f79ec834a7,62c5393dd4c09d92ed7b8ccd,2022-07-06_09h27.36.767,Colour_Asymmetry_Pilot,2022.1.3,Win32,60.04202942,62c50e9c1127f2cd403a315f,0,101,101,113,1,onethree,,,,,,,,,,,,,,,,,,,,,,,,,,,,,,,,,,,,,,,,,,,,,,,,,,,,,,,,,,,,,,,,,,,,,,,,,,,,,,,,,,,,,,,,,,,,,,,,,,,,,,,,,,,,,,,,,,,,,,,,,,,,,,,,,,,,,,,,,,,,,,,,,,,,,,,,,,,,
,,,,,,615a05ea9fa698f79ec834a7,62c5393dd4c09d92ed7b8ccd,2022-07-06_09h27.36.767,Colour_Asymmetry_Pilot,2022.1.3,Win32,60.04202942,62c50e9c1127f2cd403a315f,0,102,102,100,1,threeone,,,,,,,,,,,,,,,,,,,,,,,,,,,,,,,,,,,,,,,,,,,,,,,,,,,,,,,,,,,,,,,,,,,,,,,,,,,,,,,,,,,,,,,,,,,,,,,,,,,,,,,,,,,,,,,,,,,,,,,,,,,,,,,,,,,,,,,,,,,,,,,,,,,,,,,,,,,,
,,,,,,615a05ea9fa698f79ec834a7,62c5393dd4c09d92ed7b8ccd,2022-07-06_09h27.36.767,Colour_Asymmetry_Pilot,2022.1.3,Win32,60.04202942,62c50e9c1127f2cd403a315f,0,103,103,86,1,fourtwo,,,,,,,,,,,,,,,,,,,,,,,,,,,,,,,,,,,,,,,,,,,,,,,,,,,,,,,,,,,,,,,,,,,,,,,,,,,,,,,,,,,,,,,,,,,,,,,,,,,,,,,,,,,,,,,,,,,,,,,,,,,,,,,,,,,,,,,,,,,,,,,,,,,,,,,,,,,,
,,,,,,615a05ea9fa698f79ec834a7,62c5393dd4c09d92ed7b8ccd,2022-07-06_09h27.36.767,Colour_Asymmetry_Pilot,2022.1.3,Win32,60.04202942,62c50e9c1127f2cd403a315f,0,104,104,135,1,fourthree,,,,,,,,,,,,,,,,,,,,,,,,,,,,,,,,,,,,,,,,,,,,,,,,,,,,,,,,,,,,,,,,,,,,,,,,,,,,,,,,,,,,,,,,,,,,,,,,,,,,,,,,,,,,,,,,,,,,,,,,,,,,,,,,,,,,,,,,,,,,,,,,,,,,,,,,,,,,
,,,,,,615a05ea9fa698f79ec834a7,62c5393dd4c09d92ed7b8ccd,2022-07-06_09h27.36.767,Colour_Asymmetry_Pilot,2022.1.3,Win32,60.04202942,62c50e9c1127f2cd403a315f,0,105,105,115,1,twofour,,,,,,,,,,,,,,,,,,,,,,,,,,,,,,,,,,,,,,,,,,,,,,,,,,,,,,,,,,,,,,,,,,,,,,,,,,,,,,,,,,,,,,,,,,,,,,,,,,,,,,,,,,,,,,,,,,,,,,,,,,,,,,,,,,,,,,,,,,,,,,,,,,,,,,,,,,,,
,,,,,,615a05ea9fa698f79ec834a7,62c5393dd4c09d92ed7b8ccd,2022-07-06_09h27.36.767,Colour_Asymmetry_Pilot,2022.1.3,Win32,60.04202942,62c50e9c1127f2cd403a315f,0,106,106,160,1,onetwo,,,,,,,,,,,,,,,,,,,,,,,,,,,,,,,,,,,,,,,,,,,,,,,,,,,,,,,,,,,,,,,,,,,,,,,,,,,,,,,,,,,,,,,,,,,,,,,,,,,,,,,,,,,,,,,,,,,,,,,,,,,,,,,,,,,,,,,,,,,,,,,,,,,,,,,,,,,,
,,,,,,615a05ea9fa698f79ec834a7,62c5393dd4c09d92ed7b8ccd,2022-07-06_09h27.36.767,Colour_Asymmetry_Pilot,2022.1.3,Win32,60.04202942,62c50e9c1127f2cd403a315f,0,107,107,130,1,twoone,,,,,,,,,,,,,,,,,,,,,,,,,,,,,,,,,,,,,,,,,,,,,,,,,,,,,,,,,,,,,,,,,,,,,,,,,,,,,,,,,,,,,,,,,,,,,,,,,,,,,,,,,,,,,,,,,,,,,,,,,,,,,,,,,,,,,,,,,,,,,,,,,,,,,,,,,,,,
,,,,,,615a05ea9fa698f79ec834a7,62c5393dd4c09d92ed7b8ccd,2022-07-06_09h27.36.767,Colour_Asymmetry_Pilot,2022.1.3,Win32,60.04202942,62c50e9c1127f2cd403a315f,0,108,108,112,1,onetwo,,,,,,,,,,,,,,,,,,,,,,,,,,,,,,,,,,,,,,,,,,,,,,,,,,,,,,,,,,,,,,,,,,,,,,,,,,,,,,,,,,,,,,,,,,,,,,,,,,,,,,,,,,,,,,,,,,,,,,,,,,,,,,,,,,,,,,,,,,,,,,,,,,,,,,,,,,,,
,,,,,,615a05ea9fa698f79ec834a7,62c5393dd4c09d92ed7b8ccd,2022-07-06_09h27.36.767,Colour_Asymmetry_Pilot,2022.1.3,Win32,60.04202942,62c50e9c1127f2cd403a315f,0,109,109,71,1,fourthree,,,,,,,,,,,,,,,,,,,,,,,,,,,,,,,,,,,,,,,,,,,,,,,,,,,,,,,,,,,,,,,,,,,,,,,,,,,,,,,,,,,,,,,,,,,,,,,,,,,,,,,,,,,,,,,,,,,,,,,,,,,,,,,,,,,,,,,,,,,,,,,,,,,,,,,,,,,,
,,,,,,615a05ea9fa698f79ec834a7,62c5393dd4c09d92ed7b8ccd,2022-07-06_09h27.36.767,Colour_Asymmetry_Pilot,2022.1.3,Win32,60.04202942,62c50e9c1127f2cd403a315f,0,110,110,140,1,threeone,,,,,,,,,,,,,,,,,,,,,,,,,,,,,,,,,,,,,,,,,,,,,,,,,,,,,,,,,,,,,,,,,,,,,,,,,,,,,,,,,,,,,,,,,,,,,,,,,,,,,,,,,,,,,,,,,,,,,,,,,,,,,,,,,,,,,,,,,,,,,,,,,,,,,,,,,,,,
,,,,,,615a05ea9fa698f79ec834a7,62c5393dd4c09d92ed7b8ccd,2022-07-06_09h27.36.767,Colour_Asymmetry_Pilot,2022.1.3,Win32,60.04202942,62c50e9c1127f2cd403a315f,0,111,111,66,1,twoone,,,,,,,,,,,,,,,,,,,,,,,,,,,,,,,,,,,,,,,,,,,,,,,,,,,,,,,,,,,,,,,,,,,,,,,,,,,,,,,,,,,,,,,,,,,,,,,,,,,,,,,,,,,,,,,,,,,,,,,,,,,,,,,,,,,,,,,,,,,,,,,,,,,,,,,,,,,,
,,,,,,615a05ea9fa698f79ec834a7,62c5393dd4c09d92ed7b8ccd,2022-07-06_09h27.36.767,Colour_Asymmetry_Pilot,2022.1.3,Win32,60.04202942,62c50e9c1127f2cd403a315f,0,112,112,26,1,twoone,,,,,,,,,,,,,,,,,,,,,,,,,,,,,,,,,,,,,,,,,,,,,,,,,,,,,,,,,,,,,,,,,,,,,,,,,,,,,,,,,,,,,,,,,,,,,,,,,,,,,,,,,,,,,,,,,,,,,,,,,,,,,,,,,,,,,,,,,,,,,,,,,,,,,,,,,,,,
,,,,,,615a05ea9fa698f79ec834a7,62c5393dd4c09d92ed7b8ccd,2022-07-06_09h27.36.767,Colour_Asymmetry_Pilot,2022.1.3,Win32,60.04202942,62c50e9c1127f2cd403a315f,0,113,113,22,1,fourtwo,,,,,,,,,,,,,,,,,,,,,,,,,,,,,,,,,,,,,,,,,,,,,,,,,,,,,,,,,,,,,,,,,,,,,,,,,,,,,,,,,,,,,,,,,,,,,,,,,,,,,,,,,,,,,,,,,,,,,,,,,,,,,,,,,,,,,,,,,,,,,,,,,,,,,,,,,,,,
,,,,,,615a05ea9fa698f79ec834a7,62c5393dd4c09d92ed7b8ccd,2022-07-06_09h27.36.767,Colour_Asymmetry_Pilot,2022.1.3,Win32,60.04202942,62c50e9c1127f2cd403a315f,0,114,114,82,1,twoone,,,,,,,,,,,,,,,,,,,,,,,,,,,,,,,,,,,,,,,,,,,,,,,,,,,,,,,,,,,,,,,,,,,,,,,,,,,,,,,,,,,,,,,,,,,,,,,,,,,,,,,,,,,,,,,,,,,,,,,,,,,,,,,,,,,,,,,,,,,,,,,,,,,,,,,,,,,,
,,,,,,615a05ea9fa698f79ec834a7,62c5393dd4c09d92ed7b8ccd,2022-07-06_09h27.36.767,Colour_Asymmetry_Pilot,2022.1.3,Win32,60.04202942,62c50e9c1127f2cd403a315f,0,115,115,134,1,fourtwo,,,,,,,,,,,,,,,,,,,,,,,,,,,,,,,,,,,,,,,,,,,,,,,,,,,,,,,,,,,,,,,,,,,,,,,,,,,,,,,,,,,,,,,,,,,,,,,,,,,,,,,,,,,,,,,,,,,,,,,,,,,,,,,,,,,,,,,,,,,,,,,,,,,,,,,,,,,,
,,,,,,615a05ea9fa698f79ec834a7,62c5393dd4c09d92ed7b8ccd,2022-07-06_09h27.36.767,Colour_Asymmetry_Pilot,2022.1.3,Win32,60.04202942,62c50e9c1127f2cd403a315f,0,116,116,80,1,onetwo,,,,,,,,,,,,,,,,,,,,,,,,,,,,,,,,,,,,,,,,,,,,,,,,,,,,,,,,,,,,,,,,,,,,,,,,,,,,,,,,,,,,,,,,,,,,,,,,,,,,,,,,,,,,,,,,,,,,,,,,,,,,,,,,,,,,,,,,,,,,,,,,,,,,,,,,,,,,
,,,,,,615a05ea9fa698f79ec834a7,62c5393dd4c09d92ed7b8ccd,2022-07-06_09h27.36.767,Colour_Asymmetry_Pilot,2022.1.3,Win32,60.04202942,62c50e9c1127f2cd403a315f,0,117,117,33,1,onethree,,,,,,,,,,,,,,,,,,,,,,,,,,,,,,,,,,,,,,,,,,,,,,,,,,,,,,,,,,,,,,,,,,,,,,,,,,,,,,,,,,,,,,,,,,,,,,,,,,,,,,,,,,,,,,,,,,,,,,,,,,,,,,,,,,,,,,,,,,,,,,,,,,,,,,,,,,,,
,,,,,,615a05ea9fa698f79ec834a7,62c5393dd4c09d92ed7b8ccd,2022-07-06_09h27.36.767,Colour_Asymmetry_Pilot,2022.1.3,Win32,60.04202942,62c50e9c1127f2cd403a315f,0,118,118,47,1,fourthree,,,,,,,,,,,,,,,,,,,,,,,,,,,,,,,,,,,,,,,,,,,,,,,,,,,,,,,,,,,,,,,,,,,,,,,,,,,,,,,,,,,,,,,,,,,,,,,,,,,,,,,,,,,,,,,,,,,,,,,,,,,,,,,,,,,,,,,,,,,,,,,,,,,,,,,,,,,,
,,,,,,615a05ea9fa698f79ec834a7,62c5393dd4c09d92ed7b8ccd,2022-07-06_09h27.36.767,Colour_Asymmetry_Pilot,2022.1.3,Win32,60.04202942,62c50e9c1127f2cd403a315f,0,119,119,52,1,threeone,,,,,,,,,,,,,,,,,,,,,,,,,,,,,,,,,,,,,,,,,,,,,,,,,,,,,,,,,,,,,,,,,,,,,,,,,,,,,,,,,,,,,,,,,,,,,,,,,,,,,,,,,,,,,,,,,,,,,,,,,,,,,,,,,,,,,,,,,,,,,,,,,,,,,,,,,,,,
,,,,,,615a05ea9fa698f79ec834a7,62c5393dd4c09d92ed7b8ccd,2022-07-06_09h27.36.767,Colour_Asymmetry_Pilot,2022.1.3,Win32,60.04202942,62c50e9c1127f2cd403a315f,0,120,120,74,1,twoone,,,,,,,,,,,,,,,,,,,,,,,,,,,,,,,,,,,,,,,,,,,,,,,,,,,,,,,,,,,,,,,,,,,,,,,,,,,,,,,,,,,,,,,,,,,,,,,,,,,,,,,,,,,,,,,,,,,,,,,,,,,,,,,,,,,,,,,,,,,,,,,,,,,,,,,,,,,,
,,,,,,615a05ea9fa698f79ec834a7,62c5393dd4c09d92ed7b8ccd,2022-07-06_09h27.36.767,Colour_Asymmetry_Pilot,2022.1.3,Win32,60.04202942,62c50e9c1127f2cd403a315f,0,121,121,6,1,fourtwo,,,,,,,,,,,,,,,,,,,,,,,,,,,,,,,,,,,,,,,,,,,,,,,,,,,,,,,,,,,,,,,,,,,,,,,,,,,,,,,,,,,,,,,,,,,,,,,,,,,,,,,,,,,,,,,,,,,,,,,,,,,,,,,,,,,,,,,,,,,,,,,,,,,,,,,,,,,,
,,,,,,615a05ea9fa698f79ec834a7,62c5393dd4c09d92ed7b8ccd,2022-07-06_09h27.36.767,Colour_Asymmetry_Pilot,2022.1.3,Win32,60.04202942,62c50e9c1127f2cd403a315f,0,122,122,107,1,twofour,,,,,,,,,,,,,,,,,,,,,,,,,,,,,,,,,,,,,,,,,,,,,,,,,,,,,,,,,,,,,,,,,,,,,,,,,,,,,,,,,,,,,,,,,,,,,,,,,,,,,,,,,,,,,,,,,,,,,,,,,,,,,,,,,,,,,,,,,,,,,,,,,,,,,,,,,,,,
,,,,,,615a05ea9fa698f79ec834a7,62c5393dd4c09d92ed7b8ccd,2022-07-06_09h27.36.767,Colour_Asymmetry_Pilot,2022.1.3,Win32,60.04202942,62c50e9c1127f2cd403a315f,0,123,123,93,1,threefour,,,,,,,,,,,,,,,,,,,,,,,,,,,,,,,,,,,,,,,,,,,,,,,,,,,,,,,,,,,,,,,,,,,,,,,,,,,,,,,,,,,,,,,,,,,,,,,,,,,,,,,,,,,,,,,,,,,,,,,,,,,,,,,,,,,,,,,,,,,,,,,,,,,,,,,,,,,,
,,,,,,615a05ea9fa698f79ec834a7,62c5393dd4c09d92ed7b8ccd,2022-07-06_09h27.36.767,Colour_Asymmetry_Pilot,2022.1.3,Win32,60.04202942,62c50e9c1127f2cd403a315f,0,124,124,159,1,fourthree,,,,,,,,,,,,,,,,,,,,,,,,,,,,,,,,,,,,,,,,,,,,,,,,,,,,,,,,,,,,,,,,,,,,,,,,,,,,,,,,,,,,,,,,,,,,,,,,,,,,,,,,,,,,,,,,,,,,,,,,,,,,,,,,,,,,,,,,,,,,,,,,,,,,,,,,,,,,
,,,,,,615a05ea9fa698f79ec834a7,62c5393dd4c09d92ed7b8ccd,2022-07-06_09h27.36.767,Colour_Asymmetry_Pilot,2022.1.3,Win32,60.04202942,62c50e9c1127f2cd403a315f,0,125,125,105,1,onethree,,,,,,,,,,,,,,,,,,,,,,,,,,,,,,,,,,,,,,,,,,,,,,,,,,,,,,,,,,,,,,,,,,,,,,,,,,,,,,,,,,,,,,,,,,,,,,,,,,,,,,,,,,,,,,,,,,,,,,,,,,,,,,,,,,,,,,,,,,,,,,,,,,,,,,,,,,,,
,,,,,,615a05ea9fa698f79ec834a7,62c5393dd4c09d92ed7b8ccd,2022-07-06_09h27.36.767,Colour_Asymmetry_Pilot,2022.1.3,Win32,60.04202942,62c50e9c1127f2cd403a315f,0,126,126,25,1,onethree,,,,,,,,,,,,,,,,,,,,,,,,,,,,,,,,,,,,,,,,,,,,,,,,,,,,,,,,,,,,,,,,,,,,,,,,,,,,,,,,,,,,,,,,,,,,,,,,,,,,,,,,,,,,,,,,,,,,,,,,,,,,,,,,,,,,,,,,,,,,,,,,,,,,,,,,,,,,
,,,,,,615a05ea9fa698f79ec834a7,62c5393dd4c09d92ed7b8ccd,2022-07-06_09h27.36.767,Colour_Asymmetry_Pilot,2022.1.3,Win32,60.04202942,62c50e9c1127f2cd403a315f,0,127,127,51,1,twofour,,,,,,,,,,,,,,,,,,,,,,,,,,,,,,,,,,,,,,,,,,,,,,,,,,,,,,,,,,,,,,,,,,,,,,,,,,,,,,,,,,,,,,,,,,,,,,,,,,,,,,,,,,,,,,,,,,,,,,,,,,,,,,,,,,,,,,,,,,,,,,,,,,,,,,,,,,,,
,,,,,,615a05ea9fa698f79ec834a7,62c5393dd4c09d92ed7b8ccd,2022-07-06_09h27.36.767,Colour_Asymmetry_Pilot,2022.1.3,Win32,60.04202942,62c50e9c1127f2cd403a315f,0,128,128,19,1,twofour,,,,,,,,,,,,,,,,,,,,,,,,,,,,,,,,,,,,,,,,,,,,,,,,,,,,,,,,,,,,,,,,,,,,,,,,,,,,,,,,,,,,,,,,,,,,,,,,,,,,,,,,,,,,,,,,,,,,,,,,,,,,,,,,,,,,,,,,,,,,,,,,,,,,,,,,,,,,
,,,,,,615a05ea9fa698f79ec834a7,62c5393dd4c09d92ed7b8ccd,2022-07-06_09h27.36.767,Colour_Asymmetry_Pilot,2022.1.3,Win32,60.04202942,62c50e9c1127f2cd403a315f,0,129,129,145,1,onethree,,,,,,,,,,,,,,,,,,,,,,,,,,,,,,,,,,,,,,,,,,,,,,,,,,,,,,,,,,,,,,,,,,,,,,,,,,,,,,,,,,,,,,,,,,,,,,,,,,,,,,,,,,,,,,,,,,,,,,,,,,,,,,,,,,,,,,,,,,,,,,,,,,,,,,,,,,,,
,,,,,,615a05ea9fa698f79ec834a7,62c5393dd4c09d92ed7b8ccd,2022-07-06_09h27.36.767,Colour_Asymmetry_Pilot,2022.1.3,Win32,60.04202942,62c50e9c1127f2cd403a315f,0,130,130,91,1,twofour,,,,,,,,,,,,,,,,,,,,,,,,,,,,,,,,,,,,,,,,,,,,,,,,,,,,,,,,,,,,,,,,,,,,,,,,,,,,,,,,,,,,,,,,,,,,,,,,,,,,,,,,,,,,,,,,,,,,,,,,,,,,,,,,,,,,,,,,,,,,,,,,,,,,,,,,,,,,
,,,,,,615a05ea9fa698f79ec834a7,62c5393dd4c09d92ed7b8ccd,2022-07-06_09h27.36.767,Colour_Asymmetry_Pilot,2022.1.3,Win32,60.04202942,62c50e9c1127f2cd403a315f,0,131,131,127,1,fourthree,,,,,,,,,,,,,,,,,,,,,,,,,,,,,,,,,,,,,,,,,,,,,,,,,,,,,,,,,,,,,,,,,,,,,,,,,,,,,,,,,,,,,,,,,,,,,,,,,,,,,,,,,,,,,,,,,,,,,,,,,,,,,,,,,,,,,,,,,,,,,,,,,,,,,,,,,,,,
,,,,,,615a05ea9fa698f79ec834a7,62c5393dd4c09d92ed7b8ccd,2022-07-06_09h27.36.767,Colour_Asymmetry_Pilot,2022.1.3,Win32,60.04202942,62c50e9c1127f2cd403a315f,0,132,132,136,1,onetwo,,,,,,,,,,,,,,,,,,,,,,,,,,,,,,,,,,,,,,,,,,,,,,,,,,,,,,,,,,,,,,,,,,,,,,,,,,,,,,,,,,,,,,,,,,,,,,,,,,,,,,,,,,,,,,,,,,,,,,,,,,,,,,,,,,,,,,,,,,,,,,,,,,,,,,,,,,,,
,,,,,,615a05ea9fa698f79ec834a7,62c5393dd4c09d92ed7b8ccd,2022-07-06_09h27.36.767,Colour_Asymmetry_Pilot,2022.1.3,Win32,60.04202942,62c50e9c1127f2cd403a315f,0,133,133,46,1,fourtwo,,,,,,,,,,,,,,,,,,,,,,,,,,,,,,,,,,,,,,,,,,,,,,,,,,,,,,,,,,,,,,,,,,,,,,,,,,,,,,,,,,,,,,,,,,,,,,,,,,,,,,,,,,,,,,,,,,,,,,,,,,,,,,,,,,,,,,,,,,,,,,,,,,,,,,,,,,,,
,,,,,,615a05ea9fa698f79ec834a7,62c5393dd4c09d92ed7b8ccd,2022-07-06_09h27.36.767,Colour_Asymmetry_Pilot,2022.1.3,Win32,60.04202942,62c50e9c1127f2cd403a315f,0,134,134,157,1,threefour,,,,,,,,,,,,,,,,,,,,,,,,,,,,,,,,,,,,,,,,,,,,,,,,,,,,,,,,,,,,,,,,,,,,,,,,,,,,,,,,,,,,,,,,,,,,,,,,,,,,,,,,,,,,,,,,,,,,,,,,,,,,,,,,,,,,,,,,,,,,,,,,,,,,,,,,,,,,
,,,,,,615a05ea9fa698f79ec834a7,62c5393dd4c09d92ed7b8ccd,2022-07-06_09h27.36.767,Colour_Asymmetry_Pilot,2022.1.3,Win32,60.04202942,62c50e9c1127f2cd403a315f,0,135,135,139,1,twofour,,,,,,,,,,,,,,,,,,,,,,,,,,,,,,,,,,,,,,,,,,,,,,,,,,,,,,,,,,,,,,,,,,,,,,,,,,,,,,,,,,,,,,,,,,,,,,,,,,,,,,,,,,,,,,,,,,,,,,,,,,,,,,,,,,,,,,,,,,,,,,,,,,,,,,,,,,,,
,,,,,,615a05ea9fa698f79ec834a7,62c5393dd4c09d92ed7b8ccd,2022-07-06_09h27.36.767,Colour_Asymmetry_Pilot,2022.1.3,Win32,60.04202942,62c50e9c1127f2cd403a315f,0,136,136,70,1,fourtwo,,,,,,,,,,,,,,,,,,,,,,,,,,,,,,,,,,,,,,,,,,,,,,,,,,,,,,,,,,,,,,,,,,,,,,,,,,,,,,,,,,,,,,,,,,,,,,,,,,,,,,,,,,,,,,,,,,,,,,,,,,,,,,,,,,,,,,,,,,,,,,,,,,,,,,,,,,,,
,,,,,,615a05ea9fa698f79ec834a7,62c5393dd4c09d92ed7b8ccd,2022-07-06_09h27.36.767,Colour_Asymmetry_Pilot,2022.1.3,Win32,60.04202942,62c50e9c1127f2cd403a315f,0,137,137,73,1,onethree,,,,,,,,,,,,,,,,,,,,,,,,,,,,,,,,,,,,,,,,,,,,,,,,,,,,,,,,,,,,,,,,,,,,,,,,,,,,,,,,,,,,,,,,,,,,,,,,,,,,,,,,,,,,,,,,,,,,,,,,,,,,,,,,,,,,,,,,,,,,,,,,,,,,,,,,,,,,
,,,,,,615a05ea9fa698f79ec834a7,62c5393dd4c09d92ed7b8ccd,2022-07-06_09h27.36.767,Colour_Asymmetry_Pilot,2022.1.3,Win32,60.04202942,62c50e9c1127f2cd403a315f,0,138,138,7,1,fourthree,,,,,,,,,,,,,,,,,,,,,,,,,,,,,,,,,,,,,,,,,,,,,,,,,,,,,,,,,,,,,,,,,,,,,,,,,,,,,,,,,,,,,,,,,,,,,,,,,,,,,,,,,,,,,,,,,,,,,,,,,,,,,,,,,,,,,,,,,,,,,,,,,,,,,,,,,,,,
,,,,,,615a05ea9fa698f79ec834a7,62c5393dd4c09d92ed7b8ccd,2022-07-06_09h27.36.767,Colour_Asymmetry_Pilot,2022.1.3,Win32,60.04202942,62c50e9c1127f2cd403a315f,0,139,139,122,1,twoone,,,,,,,,,,,,,,,,,,,,,,,,,,,,,,,,,,,,,,,,,,,,,,,,,,,,,,,,,,,,,,,,,,,,,,,,,,,,,,,,,,,,,,,,,,,,,,,,,,,,,,,,,,,,,,,,,,,,,,,,,,,,,,,,,,,,,,,,,,,,,,,,,,,,,,,,,,,,
,,,,,,615a05ea9fa698f79ec834a7,62c5393dd4c09d92ed7b8ccd,2022-07-06_09h27.36.767,Colour_Asymmetry_Pilot,2022.1.3,Win32,60.04202942,62c50e9c1127f2cd403a315f,0,140,140,9,1,onethree,,,,,,,,,,,,,,,,,,,,,,,,,,,,,,,,,,,,,,,,,,,,,,,,,,,,,,,,,,,,,,,,,,,,,,,,,,,,,,,,,,,,,,,,,,,,,,,,,,,,,,,,,,,,,,,,,,,,,,,,,,,,,,,,,,,,,,,,,,,,,,,,,,,,,,,,,,,,
,,,,,,615a05ea9fa698f79ec834a7,62c5393dd4c09d92ed7b8ccd,2022-07-06_09h27.36.767,Colour_Asymmetry_Pilot,2022.1.3,Win32,60.04202942,62c50e9c1127f2cd403a315f,0,141,141,4,1,threeone,,,,,,,,,,,,,,,,,,,,,,,,,,,,,,,,,,,,,,,,,,,,,,,,,,,,,,,,,,,,,,,,,,,,,,,,,,,,,,,,,,,,,,,,,,,,,,,,,,,,,,,,,,,,,,,,,,,,,,,,,,,,,,,,,,,,,,,,,,,,,,,,,,,,,,,,,,,,
,,,,,,615a05ea9fa698f79ec834a7,62c5393dd4c09d92ed7b8ccd,2022-07-06_09h27.36.767,Colour_Asymmetry_Pilot,2022.1.3,Win32,60.04202942,62c50e9c1127f2cd403a315f,0,142,142,151,1,fourthree,,,,,,,,,,,,,,,,,,,,,,,,,,,,,,,,,,,,,,,,,,,,,,,,,,,,,,,,,,,,,,,,,,,,,,,,,,,,,,,,,,,,,,,,,,,,,,,,,,,,,,,,,,,,,,,,,,,,,,,,,,,,,,,,,,,,,,,,,,,,,,,,,,,,,,,,,,,,
,,,,,,615a05ea9fa698f79ec834a7,62c5393dd4c09d92ed7b8ccd,2022-07-06_09h27.36.767,Colour_Asymmetry_Pilot,2022.1.3,Win32,60.04202942,62c50e9c1127f2cd403a315f,0,143,143,3,1,twofour,,,,,,,,,,,,,,,,,,,,,,,,,,,,,,,,,,,,,,,,,,,,,,,,,,,,,,,,,,,,,,,,,,,,,,,,,,,,,,,,,,,,,,,,,,,,,,,,,,,,,,,,,,,,,,,,,,,,,,,,,,,,,,,,,,,,,,,,,,,,,,,,,,,,,,,,,,,,
,,,,,,615a05ea9fa698f79ec834a7,62c5393dd4c09d92ed7b8ccd,2022-07-06_09h27.36.767,Colour_Asymmetry_Pilot,2022.1.3,Win32,60.04202942,62c50e9c1127f2cd403a315f,0,144,144,118,1,fourtwo,,,,,,,,,,,,,,,,,,,,,,,,,,,,,,,,,,,,,,,,,,,,,,,,,,,,,,,,,,,,,,,,,,,,,,,,,,,,,,,,,,,,,,,,,,,,,,,,,,,,,,,,,,,,,,,,,,,,,,,,,,,,,,,,,,,,,,,,,,,,,,,,,,,,,,,,,,,,
,,,,,,615a05ea9fa698f79ec834a7,62c5393dd4c09d92ed7b8ccd,2022-07-06_09h27.36.767,Colour_Asymmetry_Pilot,2022.1.3,Win32,60.04202942,62c50e9c1127f2cd403a315f,0,145,145,120,1,onetwo,,,,,,,,,,,,,,,,,,,,,,,,,,,,,,,,,,,,,,,,,,,,,,,,,,,,,,,,,,,,,,,,,,,,,,,,,,,,,,,,,,,,,,,,,,,,,,,,,,,,,,,,,,,,,,,,,,,,,,,,,,,,,,,,,,,,,,,,,,,,,,,,,,,,,,,,,,,,
,,,,,,615a05ea9fa698f79ec834a7,62c5393dd4c09d92ed7b8ccd,2022-07-06_09h27.36.767,Colour_Asymmetry_Pilot,2022.1.3,Win32,60.04202942,62c50e9c1127f2cd403a315f,0,146,146,64,1,onetwo,,,,,,,,,,,,,,,,,,,,,,,,,,,,,,,,,,,,,,,,,,,,,,,,,,,,,,,,,,,,,,,,,,,,,,,,,,,,,,,,,,,,,,,,,,,,,,,,,,,,,,,,,,,,,,,,,,,,,,,,,,,,,,,,,,,,,,,,,,,,,,,,,,,,,,,,,,,,
,,,,,,615a05ea9fa698f79ec834a7,62c5393dd4c09d92ed7b8ccd,2022-07-06_09h27.36.767,Colour_Asymmetry_Pilot,2022.1.3,Win32,60.04202942,62c50e9c1127f2cd403a315f,0,147,147,106,1,twoone,,,,,,,,,,,,,,,,,,,,,,,,,,,,,,,,,,,,,,,,,,,,,,,,,,,,,,,,,,,,,,,,,,,,,,,,,,,,,,,,,,,,,,,,,,,,,,,,,,,,,,,,,,,,,,,,,,,,,,,,,,,,,,,,,,,,,,,,,,,,,,,,,,,,,,,,,,,,
,,,,,,615a05ea9fa698f79ec834a7,62c5393dd4c09d92ed7b8ccd,2022-07-06_09h27.36.767,Colour_Asymmetry_Pilot,2022.1.3,Win32,60.04202942,62c50e9c1127f2cd403a315f,0,148,148,158,1,fourtwo,,,,,,,,,,,,,,,,,,,,,,,,,,,,,,,,,,,,,,,,,,,,,,,,,,,,,,,,,,,,,,,,,,,,,,,,,,,,,,,,,,,,,,,,,,,,,,,,,,,,,,,,,,,,,,,,,,,,,,,,,,,,,,,,,,,,,,,,,,,,,,,,,,,,,,,,,,,,
,,,,,,615a05ea9fa698f79ec834a7,62c5393dd4c09d92ed7b8ccd,2022-07-06_09h27.36.767,Colour_Asymmetry_Pilot,2022.1.3,Win32,60.04202942,62c50e9c1127f2cd403a315f,0,149,149,153,1,onethree,,,,,,,,,,,,,,,,,,,,,,,,,,,,,,,,,,,,,,,,,,,,,,,,,,,,,,,,,,,,,,,,,,,,,,,,,,,,,,,,,,,,,,,,,,,,,,,,,,,,,,,,,,,,,,,,,,,,,,,,,,,,,,,,,,,,,,,,,,,,,,,,,,,,,,,,,,,,
,,,,,,615a05ea9fa698f79ec834a7,62c5393dd4c09d92ed7b8ccd,2022-07-06_09h27.36.767,Colour_Asymmetry_Pilot,2022.1.3,Win32,60.04202942,62c50e9c1127f2cd403a315f,0,150,150,42,1,twoone,,,,,,,,,,,,,,,,,,,,,,,,,,,,,,,,,,,,,,,,,,,,,,,,,,,,,,,,,,,,,,,,,,,,,,,,,,,,,,,,,,,,,,,,,,,,,,,,,,,,,,,,,,,,,,,,,,,,,,,,,,,,,,,,,,,,,,,,,,,,,,,,,,,,,,,,,,,,
,,,,,,615a05ea9fa698f79ec834a7,62c5393dd4c09d92ed7b8ccd,2022-07-06_09h27.36.767,Colour_Asymmetry_Pilot,2022.1.3,Win32,60.04202942,62c50e9c1127f2cd403a315f,0,151,151,41,1,onethree,,,,,,,,,,,,,,,,,,,,,,,,,,,,,,,,,,,,,,,,,,,,,,,,,,,,,,,,,,,,,,,,,,,,,,,,,,,,,,,,,,,,,,,,,,,,,,,,,,,,,,,,,,,,,,,,,,,,,,,,,,,,,,,,,,,,,,,,,,,,,,,,,,,,,,,,,,,,
,,,,,,615a05ea9fa698f79ec834a7,62c5393dd4c09d92ed7b8ccd,2022-07-06_09h27.36.767,Colour_Asymmetry_Pilot,2022.1.3,Win32,60.04202942,62c50e9c1127f2cd403a315f,0,152,152,28,1,threeone,,,,,,,,,,,,,,,,,,,,,,,,,,,,,,,,,,,,,,,,,,,,,,,,,,,,,,,,,,,,,,,,,,,,,,,,,,,,,,,,,,,,,,,,,,,,,,,,,,,,,,,,,,,,,,,,,,,,,,,,,,,,,,,,,,,,,,,,,,,,,,,,,,,,,,,,,,,,
,,,,,,615a05ea9fa698f79ec834a7,62c5393dd4c09d92ed7b8ccd,2022-07-06_09h27.36.767,Colour_Asymmetry_Pilot,2022.1.3,Win32,60.04202942,62c50e9c1127f2cd403a315f,0,153,153,87,1,fourthree,,,,,,,,,,,,,,,,,,,,,,,,,,,,,,,,,,,,,,,,,,,,,,,,,,,,,,,,,,,,,,,,,,,,,,,,,,,,,,,,,,,,,,,,,,,,,,,,,,,,,,,,,,,,,,,,,,,,,,,,,,,,,,,,,,,,,,,,,,,,,,,,,,,,,,,,,,,,
,,,,,,615a05ea9fa698f79ec834a7,62c5393dd4c09d92ed7b8ccd,2022-07-06_09h27.36.767,Colour_Asymmetry_Pilot,2022.1.3,Win32,60.04202942,62c50e9c1127f2cd403a315f,0,154,154,133,1,threefour,,,,,,,,,,,,,,,,,,,,,,,,,,,,,,,,,,,,,,,,,,,,,,,,,,,,,,,,,,,,,,,,,,,,,,,,,,,,,,,,,,,,,,,,,,,,,,,,,,,,,,,,,,,,,,,,,,,,,,,,,,,,,,,,,,,,,,,,,,,,,,,,,,,,,,,,,,,,
,,,,,,615a05ea9fa698f79ec834a7,62c5393dd4c09d92ed7b8ccd,2022-07-06_09h27.36.767,Colour_Asymmetry_Pilot,2022.1.3,Win32,60.04202942,62c50e9c1127f2cd403a315f,0,155,155,24,1,onetwo,,,,,,,,,,,,,,,,,,,,,,,,,,,,,,,,,,,,,,,,,,,,,,,,,,,,,,,,,,,,,,,,,,,,,,,,,,,,,,,,,,,,,,,,,,,,,,,,,,,,,,,,,,,,,,,,,,,,,,,,,,,,,,,,,,,,,,,,,,,,,,,,,,,,,,,,,,,,
,,,,,,615a05ea9fa698f79ec834a7,62c5393dd4c09d92ed7b8ccd,2022-07-06_09h27.36.767,Colour_Asymmetry_Pilot,2022.1.3,Win32,60.04202942,62c50e9c1127f2cd403a315f,0,156,156,55,1,fourthree,,,,,,,,,,,,,,,,,,,,,,,,,,,,,,,,,,,,,,,,,,,,,,,,,,,,,,,,,,,,,,,,,,,,,,,,,,,,,,,,,,,,,,,,,,,,,,,,,,,,,,,,,,,,,,,,,,,,,,,,,,,,,,,,,,,,,,,,,,,,,,,,,,,,,,,,,,,,
,,,,,,615a05ea9fa698f79ec834a7,62c5393dd4c09d92ed7b8ccd,2022-07-06_09h27.36.767,Colour_Asymmetry_Pilot,2022.1.3,Win32,60.04202942,62c50e9c1127f2cd403a315f,0,157,157,81,1,onethree,,,,,,,,,,,,,,,,,,,,,,,,,,,,,,,,,,,,,,,,,,,,,,,,,,,,,,,,,,,,,,,,,,,,,,,,,,,,,,,,,,,,,,,,,,,,,,,,,,,,,,,,,,,,,,,,,,,,,,,,,,,,,,,,,,,,,,,,,,,,,,,,,,,,,,,,,,,,
,,,,,,615a05ea9fa698f79ec834a7,62c5393dd4c09d92ed7b8ccd,2022-07-06_09h27.36.767,Colour_Asymmetry_Pilot,2022.1.3,Win32,60.04202942,62c50e9c1127f2cd403a315f,0,158,158,50,1,twoone,,,,,,,,,,,,,,,,,,,,,,,,,,,,,,,,,,,,,,,,,,,,,,,,,,,,,,,,,,,,,,,,,,,,,,,,,,,,,,,,,,,,,,,,,,,,,,,,,,,,,,,,,,,,,,,,,,,,,,,,,,,,,,,,,,,,,,,,,,,,,,,,,,,,,,,,,,,,
,,,,,,615a05ea9fa698f79ec834a7,62c5393dd4c09d92ed7b8ccd,2022-07-06_09h27.36.767,Colour_Asymmetry_Pilot,2022.1.3,Win32,60.04202942,62c50e9c1127f2cd403a315f,0,159,159,147,1,twofour,,,,,,,,,,,,,,,,,,,,,,,,,,,,,,,,,,,,,,,,,,,,,,,,,,,,,,,,,,,,,,,,,,,,,,,,,,,,,,,,,,,,,,,,,,,,,,,,,,,,,,,,,,,,,,,,,,,,,,,,,,,,,,,,,,,,,,,,,,,,,,,,,,,,,,,,,,,,
,,,,,,615a05ea9fa698f79ec834a7,62c5393dd4c09d92ed7b8ccd,2022-07-06_09h27.36.767,Colour_Asymmetry_Pilot,2022.1.3,Win32,60.04202942,62c50e9c1127f2cd403a315f,0,160,160,35,1,twofour,,,,,,,,,,,,,,,,,,,,,,,,,,,,,,,,,,,,,,,,,,,,,,,,,,,,,,,,,,,,,,,,,,,,,,,,,,,,,,,,,,,,,,,,,,,,,,,,,,,,,,,,,,,,,,,,,,,,,,,,,,,,,,,,,,,,,,,,,,,,,,,,,,,,,,,,,,,,
,,,,,,615a05ea9fa698f79ec834a7,62c5393dd4c09d92ed7b8ccd,2022-07-06_09h27.36.767,Colour_Asymmetry_Pilot,2022.1.3,Win32,60.04202942,62c50e9c1127f2cd403a315f,0,161,161,144,1,onetwo,,,,,,,,,,,,,,,,,,,,,,,,,,,,,,,,,,,,,,,,,,,,,,,,,,,,,,,,,,,,,,,,,,,,,,,,,,,,,,,,,,,,,,,,,,,,,,,,,,,,,,,,,,,,,,,,,,,,,,,,,,,,,,,,,,,,,,,,,,,,,,,,,,,,,,,,,,,,
,,,,,,615a05ea9fa698f79ec834a7,62c5393dd4c09d92ed7b8ccd,2022-07-06_09h27.36.767,Colour_Asymmetry_Pilot,2022.1.3,Win32,60.04202942,62c50e9c1127f2cd403a315f,,,,,,,space,83.825,space,34.1885,space,36.3806,space,29.0701,space,5.1942,space,6.7,"[0.9686000000000001,0.5763999999999998,0.11359999999999992]",threeone,"[0.7802,-0.23140000000000005,-0.20799999999999996]",2,16.3588,67,-44,1,0,0,response3disk_5,-1,-2,1,0,0,rectangle_8,-1,-2,1,0,0,2,-1,-2,1,0,0,0,0,0,0,1,,,,,,,,,,,,,,,,,,,,,,,,,,,,,,,,,,,,,,,,,,,,,,,,,,,,,,,,,,,,,,,,,,,,,,,,,,,,,,,,,,,,,,,,,,,,,,,,,,,,,,,,,,,,,,,
,,,,,,615a05ea9fa698f79ec834a7,62c5393dd4c09d92ed7b8ccd,2022-07-06_09h27.36.767,Colour_Asymmetry_Pilot,2022.1.3,Win32,60.04202942,62c50e9c1127f2cd403a315f,,,,,,,,,,,,,,,,,,,"[-0.06680000000000008,-0.45100000000000007,-0.906]",twoone,"[0.9763999999999999,-0.1137999999999999,-0.6314]",-1,4.0984,-36,-78,1,0,0,response5disk_5,-16,-2,1,0,0,rectangle_8,-16,-2,1,0,0,2,-16,-2,1,0,0,1,0,1,0,1,,,,,,,,,,,,,,,,,,,,,,,,,,,,,,,,,,,,,,,,,,,,,,,,,,,,,,,,,,,,,,,,,,,,,,,,,,,,,,,,,,,,,,,,,,,,,,,,,,,,,,,,,,,,,,,
,,,,,,615a05ea9fa698f79ec834a7,62c5393dd4c09d92ed7b8ccd,2022-07-06_09h27.36.767,Colour_Asymmetry_Pilot,2022.1.3,Win32,60.04202942,62c50e9c1127f2cd403a315f,,,,,,,,,,,,,,,,,,,"[0.9213999999999998,0.6391999999999998,-0.9922]",threefour,"[-0.20799999999999996,-0.655,-0.01980000000000004]",-1,1.8818,-34,-99,1,0,0,response5disk_5,6,-11,1,0,0,rectangle_8,6,-11,1,0,0,2,6,-11,1,0,0,2,0,2,0,1,,,,,,,,,,,,,,,,,,,,,,,,,,,,,,,,,,,,,,,,,,,,,,,,,,,,,,,,,,,,,,,,,,,,,,,,,,,,,,,,,,,,,,,,,,,,,,,,,,,,,,,,,,,,,,,
,,,,,,615a05ea9fa698f79ec834a7,62c5393dd4c09d92ed7b8ccd,2022-07-06_09h27.36.767,Colour_Asymmetry_Pilot,2022.1.3,Win32,60.04202942,62c50e9c1127f2cd403a315f,,,,,,,,,,,,,,,,,,,"[-0.2942,-0.24719999999999998,-0.357]",fourthree,"[-0.4746,-0.0354000000000001,0.5449999999999999]",-2,3.4141,-86,-37,1,0,0,response5disk_5,-22,9,1,0,0,rectangle_8,-22,9,1,0,0,2,-22,9,1,0,0,3,0,3,0,1,,,,,,,,,,,,,,,,,,,,,,,,,,,,,,,,,,,,,,,,,,,,,,,,,,,,,,,,,,,,,,,,,,,,,,,,,,,,,,,,,,,,,,,,,,,,,,,,,,,,,,,,,,,,,,,
,,,,,,615a05ea9fa698f79ec834a7,62c5393dd4c09d92ed7b8ccd,2022-07-06_09h27.36.767,Colour_Asymmetry_Pilot,2022.1.3,Win32,60.04202942,62c50e9c1127f2cd403a315f,,,,,,,,,,,,,,,,,,,"[0.7646000000000002,0.07440000000000002,0.2704]",fourthree,"[-0.5452,-0.608,0.2470000000000001]",-3,6.1292,-103,61,1,0,0,response7disk_5,-2,-2,1,0,0,rectangle_8,83,-36,1,0,0,2,-18,2,1,0,0,4,0,4,0,1,response3disk_7,5,rectangle_4,,,,,,,,,,,,,,,,,,,,,,,,,,,,,,,,,,,,,,,,,,,,,,,,,,,,,,,,,,,,,,,,,,,,,,,,,,,,,,,,,,,,,,,,,,,,,,,,,,,,,,,,,,,,
,,,,,,615a05ea9fa698f79ec834a7,62c5393dd4c09d92ed7b8ccd,2022-07-06_09h27.36.767,Colour_Asymmetry_Pilot,2022.1.3,Win32,60.04202942,62c50e9c1127f2cd403a315f,,,,,,,,,,,,,,,,,,,"[-0.17659999999999998,0.3253999999999999,0.19999999999999996]",fourtwo,"[-0.4276,0.0038000000000000256,-0.3256]",1,2.9352,52,-73,1,0,0,response3disk_5,18,-2,1,0,0,rectangle_8,76,-50,1,0,0,2,-1,5,1,0,0,5,0,5,0,1,response3disk_7,5,rectangle_4,,,,,,,,,,,,,,,,,,,,,,,,,,,,,,,,,,,,,,,,,,,,,,,,,,,,,,,,,,,,,,,,,,,,,,,,,,,,,,,,,,,,,,,,,,,,,,,,,,,,,,,,,,,,
,,,,,,615a05ea9fa698f79ec834a7,62c5393dd4c09d92ed7b8ccd,2022-07-06_09h27.36.767,Colour_Asymmetry_Pilot,2022.1.3,Win32,60.04202942,62c50e9c1127f2cd403a315f,,,,,,,,,,,,,,,,,,,"[-0.24719999999999998,-0.0354000000000001,0.3175999999999999]",onetwo,"[-0.8118,-0.8198,-0.5452]",3,2.3463,83,18,1,0,0,response1disk_5,25,2,1,0,0,rectangle_8,25,2,1,0,0,2,25,2,1,0,0,6,0,6,0,1,,,,,,,,,,,,,,,,,,,,,,,,,,,,,,,,,,,,,,,,,,,,,,,,,,,,,,,,,,,,,,,,,,,,,,,,,,,,,,,,,,,,,,,,,,,,,,,,,,,,,,,,,,,,,,,
,,,,,,615a05ea9fa698f79ec834a7,62c5393dd4c09d92ed7b8ccd,2022-07-06_09h27.36.767,Colour_Asymmetry_Pilot,2022.1.3,Win32,60.04202942,62c50e9c1127f2cd403a315f,,,,,,,,,,,,,,,,,,,,threefour,,-4,2.4013,,,,,,,,,,,,,,,,,,,,,,,,,,,,,,,,space,21.2156,"[0.7018,0.7802,-0.16079999999999994]","[-0.6235999999999999,-0.6786,-0.08239999999999992]",-43,79,1,0,0,response7disk,-2,-1,1,0,0,rectangle,-2,-1,1,0,0,,1,0.0029,0,-2,-1,1,0,0,0,0,0,126,1,45,second,,,,,,,,,,,,,,,,,,,,,,,,,,,,,,,,,,,,,,,,,,,,,,,,,,,,,,,,,,,,,,,,,,,,,,,
,,,,,,615a05ea9fa698f79ec834a7,62c5393dd4c09d92ed7b8ccd,2022-07-06_09h27.36.767,Colour_Asymmetry_Pilot,2022.1.3,Win32,60.04202942,62c50e9c1127f2cd403a315f,,,,,,,,,,,,,,,,,,,,threefour,,1,1.388,,,,,,,,,,,,,,,,,,,,,,,,,,,,,,,,,,"[0.9686000000000001,0.5763999999999998,0.11359999999999992]","[0.0351999999999999,0.41159999999999997,0.0038000000000000256]",34,-99,1,0,0,response3disk,-18,14,1,0,0,rectangle,-18,14,1,0,0,,1,0.0016,0,-18,14,1,0,0,0,1,1,42,1,42,first,,,,,,,,,,,,,,,,,,,,,,,,,,,,,,,,,,,,,,,,,,,,,,,,,,,,,,,,,,,,,,,,,,,,,,,
,,,,,,615a05ea9fa698f79ec834a7,62c5393dd4c09d92ed7b8ccd,2022-07-06_09h27.36.767,Colour_Asymmetry_Pilot,2022.1.3,Win32,60.04202942,62c50e9c1127f2cd403a315f,,,,,,,,,,,,,,,,,,,,threeone,,-4,0.8511,,,,,,,,,,,,,,,,,,,,,,,,,,,,,,,,,,"[-0.0040000000000000036,0.02739999999999987,-0.08239999999999992]","[0.7802,-0.23140000000000005,-0.20799999999999996]",-42,94,1,0,0,response7disk,19,-9,1,0,0,rectangle,19,-9,1,0,0,,2,0.0015,0,19,-9,1,0,0,0,2,2,154,1,73,second,,,,,,,,,,,,,,,,,,,,,,,,,,,,,,,,,,,,,,,,,,,,,,,,,,,,,,,,,,,,,,,,,,,,,,,
,,,,,,615a05ea9fa698f79ec834a7,62c5393dd4c09d92ed7b8ccd,2022-07-06_09h27.36.767,Colour_Asymmetry_Pilot,2022.1.3,Win32,60.04202942,62c50e9c1127f2cd403a315f,,,,,,,,,,,,,,,,,,,,fourtwo,,-4,0.9678,,,,,,,,,,,,,,,,,,,,,,,,,,,,,,,,,,"[0.7802,-0.23140000000000005,-0.20799999999999996]","[-0.9296,-0.12959999999999994,-0.043199999999999905]",-28,85,1,0,0,response7disk,14,-4,1,0,0,rectangle,14,-4,1,0,0,,1,0.0007,0,14,-4,1,0,0,0,3,3,62,1,62,first,,,,,,,,,,,,,,,,,,,,,,,,,,,,,,,,,,,,,,,,,,,,,,,,,,,,,,,,,,,,,,,,,,,,,,,
,,,,,,615a05ea9fa698f79ec834a7,62c5393dd4c09d92ed7b8ccd,2022-07-06_09h27.36.767,Colour_Asymmetry_Pilot,2022.1.3,Win32,60.04202942,62c50e9c1127f2cd403a315f,,,,,,,,,,,,,,,,,,,,twoone,,1,2.1331,,,,,,,,,,,,,,,,,,,,,,,,,,,,,,,,,,"[0.7018,0.7176,0.6155999999999999]","[0.19199999999999995,0.18419999999999992,0.5136000000000001]",30,-70,1,0,0,response3disk,6,-5,1,0,0,rectangle,6,-5,1,0,0,,3,0.0019,0,6,-5,1,0,0,0,4,4,157,1,76,second,,,,,,,,,,,,,,,,,,,,,,,,,,,,,,,,,,,,,,,,,,,,,,,,,,,,,,,,,,,,,,,,,,,,,,,
,,,,,,615a05ea9fa698f79ec834a7,62c5393dd4c09d92ed7b8ccd,2022-07-06_09h27.36.767,Colour_Asymmetry_Pilot,2022.1.3,Win32,60.04202942,62c50e9c1127f2cd403a315f,,,,,,,,,,,,,,,,,,,,threefour,,-2,1.3154,,,,,,,,,,,,,,,,,,,,,,,,,,,,,,,,,,"[0.0351999999999999,0.41159999999999997,0.0038000000000000256]","[0.9686000000000001,0.5763999999999998,0.11359999999999992]",-67,-31,1,0,0,response5disk,-12,-6,1,0,0,rectangle,-12,-6,1,0,0,,2,0.0025,0,-12,-6,1,0,0,0,5,5,123,1,42,second,,,,,,,,,,,,,,,,,,,,,,,,,,,,,,,,,,,,,,,,,,,,,,,,,,,,,,,,,,,,,,,,,,,,,,,
,,,,,,615a05ea9fa698f79ec834a7,62c5393dd4c09d92ed7b8ccd,2022-07-06_09h27.36.767,Colour_Asymmetry_Pilot,2022.1.3,Win32,60.04202942,62c50e9c1127f2cd403a315f,,,,,,,,,,,,,,,,,,,,fourthree,,-4,0.6838,,,,,,,,,,,,,,,,,,,,,,,,,,,,,,,,,,"[0.9213999999999998,0.6391999999999998,-0.9922]","[-0.6235999999999999,-0.6786,-0.08239999999999992]",-43,90,1,0,0,response7disk,14,2,1,0,0,rectangle,14,2,1,0,0,,3,0.0014,0,14,2,1,0,0,0,6,6,79,1,79,first,,,,,,,,,,,,,,,,,,,,,,,,,,,,,,,,,,,,,,,,,,,,,,,,,,,,,,,,,,,,,,,,,,,,,,,
,,,,,,615a05ea9fa698f79ec834a7,62c5393dd4c09d92ed7b8ccd,2022-07-06_09h27.36.767,Colour_Asymmetry_Pilot,2022.1.3,Win32,60.04202942,62c50e9c1127f2cd403a315f,,,,,,,,,,,,,,,,,,,,twofour,,-4,0.7335,,,,,,,,,,,,,,,,,,,,,,,,,,,,,,,,,,"[-0.9766,-0.6472,0.07440000000000002]","[-0.050999999999999934,-0.6706000000000001,-0.804]",-47,92,1,0,0,response7disk,3,2,1,0,0,rectangle,3,2,1,0,0,,2,0.0014,0,3,2,1,0,0,0,7,7,111,1,30,second,,,,,,,,,,,,,,,,,,,,,,,,,,,,,,,,,,,,,,,,,,,,,,,,,,,,,,,,,,,,,,,,,,,,,,,
,,,,,,615a05ea9fa698f79ec834a7,62c5393dd4c09d92ed7b8ccd,2022-07-06_09h27.36.767,Colour_Asymmetry_Pilot,2022.1.3,Win32,60.04202942,62c50e9c1127f2cd403a315f,,,,,,,,,,,,,,,,,,,,onetwo,,-4,0.6871,,,,,,,,,,,,,,,,,,,,,,,,,,,,,,,,,,"[0.11359999999999992,0.6312,0.5213999999999999]","[-0.011800000000000033,-0.906,-0.45100000000000007]",-43,86,1,0,0,response7disk,4,-3,1,0,0,rectangle,4,-3,1,0,0,,3,0.006,0,4,-3,1,0,0,0,8,8,12,1,12,first,,,,,,,,,,,,,,,,,,,,,,,,,,,,,,,,,,,,,,,,,,,,,,,,,,,,,,,,,,,,,,,,,,,,,,,
,,,,,,615a05ea9fa698f79ec834a7,62c5393dd4c09d92ed7b8ccd,2022-07-06_09h27.36.767,Colour_Asymmetry_Pilot,2022.1.3,Win32,60.04202942,62c50e9c1127f2cd403a315f,,,,,,,,,,,,,,,,,,,,twofour,,-4,0.6496,,,,,,,,,,,,,,,,,,,,,,,,,,,,,,,,,,"[0.3881999999999999,-0.23939999999999995,-0.05040000000000011]","[0.9213999999999998,0.6391999999999998,-0.9922]",-37,69,1,0,0,response7disk,1,3,1,0,0,rectangle,1,3,1,0,0,,1,0.0018,0,1,3,1,0,0,0,9,9,114,1,33,second,,,,,,,,,,,,,,,,,,,,,,,,,,,,,,,,,,,,,,,,,,,,,,,,,,,,,,,,,,,,,,,,,,,,,,,
,,,,,,615a05ea9fa698f79ec834a7,62c5393dd4c09d92ed7b8ccd,2022-07-06_09h27.36.767,Colour_Asymmetry_Pilot,2022.1.3,Win32,60.04202942,62c50e9c1127f2cd403a315f,,,,,,,,,,,,,,,,,,,,twofour,,-3,3.0939,,,,,,,,,,,,,,,,,,,,,,,,,,,,,,,,,,"[-0.9844,-0.9688,-0.9922]","[-0.20799999999999996,-0.655,-0.01980000000000004]",-77,33,1,0,0,response7disk,4,-4,1,0,0,rectangle,4,-4,1,0,0,,1,0.0009,0,4,-4,1,0,0,0,10,10,142,1,61,second,,,,,,,,,,,,,,,,,,,,,,,,,,,,,,,,,,,,,,,,,,,,,,,,,,,,,,,,,,,,,,,,,,,,,,,
,,,,,,615a05ea9fa698f79ec834a7,62c5393dd4c09d92ed7b8ccd,2022-07-06_09h27.36.767,Colour_Asymmetry_Pilot,2022.1.3,Win32,60.04202942,62c50e9c1127f2cd403a315f,,,,,,,,,,,,,,,,,,,,threefour,,-4,1.0349,,,,,,,,,,,,,,,,,,,,,,,,,,,,,,,,,,"[0.34099999999999997,0.12939999999999996,-0.9766]","[0.5449999999999999,-0.31000000000000005,-0.0354000000000001]",-54,99,1,0,0,response7disk,13,1,1,0,0,rectangle,13,1,1,0,0,,1,0.0004,0,13,1,1,0,0,0,11,11,91,1,10,second,,,,,,,,,,,,,,,,,,,,,,,,,,,,,,,,,,,,,,,,,,,,,,,,,,,,,,,,,,,,,,,,,,,,,,,
,,,,,,615a05ea9fa698f79ec834a7,62c5393dd4c09d92ed7b8ccd,2022-07-06_09h27.36.767,Colour_Asymmetry_Pilot,2022.1.3,Win32,60.04202942,62c50e9c1127f2cd403a315f,,,,,,,,,,,,,,,,,,,,twofour,,-4,0.4641,,,,,,,,,,,,,,,,,,,,,,,,,,,,,,,,,,"[0.30180000000000007,-0.7884,-0.9844]","[0.12939999999999996,-0.2864,0.3253999999999999]",-57,96,1,0,0,response7disk,-1,10,1,0,0,rectangle,-1,10,1,0,0,,1,0.0004,0,-1,10,1,0,0,0,12,12,3,1,3,first,,,,,,,,,,,,,,,,,,,,,,,,,,,,,,,,,,,,,,,,,,,,,,,,,,,,,,,,,,,,,,,,,,,,,,,
,,,,,,615a05ea9fa698f79ec834a7,62c5393dd4c09d92ed7b8ccd,2022-07-06_09h27.36.767,Colour_Asymmetry_Pilot,2022.1.3,Win32,60.04202942,62c50e9c1127f2cd403a315f,,,,,,,,,,,,,,,,,,,,twofour,,-4,0.5333,,,,,,,,,,,,,,,,,,,,,,,,,,,,,,,,,,"[0.12939999999999996,-0.2864,0.3253999999999999]","[-0.5688,-0.08239999999999992,-0.1844]",-36,80,1,0,0,response7disk,11,4,1,0,0,rectangle,11,4,1,0,0,,2,0.0014,0,11,4,1,0,0,0,13,13,83,1,2,second,,,,,,,,,,,,,,,,,,,,,,,,,,,,,,,,,,,,,,,,,,,,,,,,,,,,,,,,,,,,,,,,,,,,,,,
,,,,,,615a05ea9fa698f79ec834a7,62c5393dd4c09d92ed7b8ccd,2022-07-06_09h27.36.767,Colour_Asymmetry_Pilot,2022.1.3,Win32,60.04202942,62c50e9c1127f2cd403a315f,,,,,,,,,,,,,,,,,,,,fourtwo,,-4,0.5494,,,,,,,,,,,,,,,,,,,,,,,,,,,,,,,,,,"[-0.5688,-0.08239999999999992,-0.1844]","[0.796,0.2156,-0.27859999999999996]",-49,100,1,0,0,response7disk,-1,6,1,0,0,rectangle,-1,6,1,0,0,,3,0.002,0,-1,6,1,0,0,0,14,14,46,1,46,first,,,,,,,,,,,,,,,,,,,,,,,,,,,,,,,,,,,,,,,,,,,,,,,,,,,,,,,,,,,,,,,,,,,,,,,
,,,,,,615a05ea9fa698f79ec834a7,62c5393dd4c09d92ed7b8ccd,2022-07-06_09h27.36.767,Colour_Asymmetry_Pilot,2022.1.3,Win32,60.04202942,62c50e9c1127f2cd403a315f,,,,,,,,,,,,,,,,,,,,threefour,,1,3.2301,,,,,,,,,,,,,,,,,,,,,,,,,,,,,,,,,,"[-0.9844,-0.9688,-0.9922]","[-0.8118,-0.8198,-0.5452]",33,-84,1,0,0,response3disk,13,1,1,0,0,rectangle,13,1,1,0,0,,3,0.0006,0,13,1,1,0,0,0,15,15,40,1,40,first,,,,,,,,,,,,,,,,,,,,,,,,,,,,,,,,,,,,,,,,,,,,,,,,,,,,,,,,,,,,,,,,,,,,,,,
,,,,,,615a05ea9fa698f79ec834a7,62c5393dd4c09d92ed7b8ccd,2022-07-06_09h27.36.767,Colour_Asymmetry_Pilot,2022.1.3,Win32,60.04202942,62c50e9c1127f2cd403a315f,,,,,,,,,,,,,,,,,,,,threeone,,-3,0.668,,,,,,,,,,,,,,,,,,,,,,,,,,,,,,,,,,"[0.09799999999999986,-0.24719999999999998,0.15280000000000005]","[0.2784,-0.31000000000000005,-0.5452]",-55,40,1,0,0,response7disk,7,-6,1,0,0,rectangle,7,-6,1,0,0,,3,0.0006,0,7,-6,1,0,0,0,16,16,148,1,67,second,,,,,,,,,,,,,,,,,,,,,,,,,,,,,,,,,,,,,,,,,,,,,,,,,,,,,,,,,,,,,,,,,,,,,,,
,,,,,,615a05ea9fa698f79ec834a7,62c5393dd4c09d92ed7b8ccd,2022-07-06_09h27.36.767,Colour_Asymmetry_Pilot,2022.1.3,Win32,60.04202942,62c50e9c1127f2cd403a315f,,,,,,,,,,,,,,,,,,,,onetwo,,1,3.128,,,,,,,,,,,,,,,,,,,,,,,,,,,,,,,,,,"[0.5528,0.7409999999999999,-0.71]","[0.9686000000000001,0.5763999999999998,0.11359999999999992]",54,-105,1,0,0,response3disk,9,1,1,0,0,rectangle,9,1,1,0,0,,1,0.0008,0,9,1,1,0,0,0,17,17,147,1,66,second,,,,,,,,,,,,,,,,,,,,,,,,,,,,,,,,,,,,,,,,,,,,,,,,,,,,,,,,,,,,,,,,,,,,,,,
