trials.thisRepN,trials.thisTrialN,trials.thisN,trials.thisIndex,trials.ran,Colourcodes,participant,session,date,expName,psychopyVersion,OS,frameRate,study_id,trials_4.thisRepN,trials_4.thisTrialN,trials_4.thisN,trials_4.thisIndex,trials_4.ran,StimulusPos,key_resp.keys,key_resp.rt,key_resp_2.keys,key_resp_2.rt,key_resp_15.keys,key_resp_15.rt,key_resp_17.keys,key_resp_17.rt,key_resp_9.keys,key_resp_9.rt,key_resp_10.keys,key_resp_10.rt,Circle1_col,Ecc,Circle2_col,similarity,response_time,mouse_5.x,mouse_5.y,mouse_5.leftButton,mouse_5.midButton,mouse_5.rightButton,mouse_5.clicked_name,mouse_10.x,mouse_10.y,mouse_10.leftButton,mouse_10.midButton,mouse_10.rightButton,mouse_10.clicked_name,mouse_7.x,mouse_7.y,mouse_7.leftButton,mouse_7.midButton,mouse_7.rightButton,catchnumberprac,mouse_6.x,mouse_6.y,mouse_6.leftButton,mouse_6.midButton,mouse_6.rightButton,duringprac.thisRepN,duringprac.thisTrialN,duringprac.thisN,duringprac.thisIndex,duringprac.ran,mouse_7.clicked_name,catchprac,mouse_6.clicked_name,key_resp_22.keys,key_resp_22.rt,Circle1_colour,Circle2_colour,mouse.x,mouse.y,mouse.leftButton,mouse.midButton,mouse.rightButton,mouse.clicked_name,mouse_2.x,mouse_2.y,mouse_2.leftButton,mouse_2.midButton,mouse_2.rightButton,mouse_2.clicked_name,mouse_3.x,mouse_3.y,mouse_3.leftButton,mouse_3.midButton,mouse_3.rightButton,mouse_3.clicked_name,catchresponse,catchnumber,response_time_catch,Catch,mouse_11.x,mouse_11.y,mouse_11.leftButton,mouse_11.midButton,mouse_11.rightButton,mouse_11.clicked_name,trials_2.thisRepN,trials_2.thisTrialN,trials_2.thisN,trials_2.thisIndex,trials_2.ran,Colourpair,Temporder,trials_3.thisRepN,trials_3.thisTrialN,trials_3.thisN,trials_3.thisIndex,trials_3.ran,key_resp_instr_Ishi.keys,key_resp_instr_Ishi.rt,Ishi_trial_keyresp.keys,Ishi_textbox.text,Ishi_mouse.x,Ishi_mouse.y,Ishi_mouse.leftButton,Ishi_mouse.midButton,Ishi_mouse.rightButton,Ishi_mouse.clicked_name,Ishi_loop.thisRepN,Ishi_loop.thisTrialN,Ishi_loop.thisN,Ishi_loop.thisIndex,Ishi_loop.ran,imageaddress,textbox.text,mouse_4.x,mouse_4.y,mouse_4.leftButton,mouse_4.midButton,mouse_4.rightButton,mouse_4.clicked_name,textbox_2.text,mouse_8.x,mouse_8.y,mouse_8.leftButton,mouse_8.midButton,mouse_8.rightButton,mouse_8.clicked_name,textbox_3.text,mouse_9.x,mouse_9.y,mouse_9.leftButton,mouse_9.midButton,mouse_9.rightButton,mouse_9.clicked_name,textbox_4.text,mouse_12.x,mouse_12.y,mouse_12.leftButton,mouse_12.midButton,mouse_12.rightButton,mouse_12.clicked_name,textbox_5.text,mouse_13.x,mouse_13.y,mouse_13.leftButton,mouse_13.midButton,mouse_13.rightButton,mouse_13.clicked_name,textbox_6.text,mouse_14.x,mouse_14.y,mouse_14.leftButton,mouse_14.midButton,mouse_14.rightButton,mouse_14.clicked_name,textbox_7.text,mouse_15.x,mouse_15.y,mouse_15.leftButton,mouse_15.midButton,mouse_15.rightButton,mouse_15.clicked_name
0,0,0,39,1,,56a5684481a8ca000d3e544f,62c53a22f93e51d4ae53c7c3,2022-07-06_09h31.03.505,Colour_Asymmetry_Pilot,2022.1.3,Win32,59.8372427,62c50e9c1127f2cd403a315f,,,,,,,,,,,,,,,,,,,,,,,,,,,,,,,,,,,,,,,,,,,,,,,,,,,,,,,,,,,,,,,,,,,,,,,,,,,,,,,,,,,,,,,,,,,,,,,,,,,,,,,,,,,,,,,,,,,,,,,,,,,,,,,,,,,,,,,,,,,,,,,,,,,,,,,,,,,,,,,,,,,
0,1,1,18,1,,56a5684481a8ca000d3e544f,62c53a22f93e51d4ae53c7c3,2022-07-06_09h31.03.505,Colour_Asymmetry_Pilot,2022.1.3,Win32,59.8372427,62c50e9c1127f2cd403a315f,,,,,,,,,,,,,,,,,,,,,,,,,,,,,,,,,,,,,,,,,,,,,,,,,,,,,,,,,,,,,,,,,,,,,,,,,,,,,,,,,,,,,,,,,,,,,,,,,,,,,,,,,,,,,,,,,,,,,,,,,,,,,,,,,,,,,,,,,,,,,,,,,,,,,,,,,,,,,,,,,,,
0,2,2,87,1,,56a5684481a8ca000d3e544f,62c53a22f93e51d4ae53c7c3,2022-07-06_09h31.03.505,Colour_Asymmetry_Pilot,2022.1.3,Win32,59.8372427,62c50e9c1127f2cd403a315f,,,,,,,,,,,,,,,,,,,,,,,,,,,,,,,,,,,,,,,,,,,,,,,,,,,,,,,,,,,,,,,,,,,,,,,,,,,,,,,,,,,,,,,,,,,,,,,,,,,,,,,,,,,,,,,,,,,,,,,,,,,,,,,,,,,,,,,,,,,,,,,,,,,,,,,,,,,,,,,,,,,
0,3,3,84,1,,56a5684481a8ca000d3e544f,62c53a22f93e51d4ae53c7c3,2022-07-06_09h31.03.505,Colour_Asymmetry_Pilot,2022.1.3,Win32,59.8372427,62c50e9c1127f2cd403a315f,,,,,,,,,,,,,,,,,,,,,,,,,,,,,,,,,,,,,,,,,,,,,,,,,,,,,,,,,,,,,,,,,,,,,,,,,,,,,,,,,,,,,,,,,,,,,,,,,,,,,,,,,,,,,,,,,,,,,,,,,,,,,,,,,,,,,,,,,,,,,,,,,,,,,,,,,,,,,,,,,,,
0,4,4,45,1,,56a5684481a8ca000d3e544f,62c53a22f93e51d4ae53c7c3,2022-07-06_09h31.03.505,Colour_Asymmetry_Pilot,2022.1.3,Win32,59.8372427,62c50e9c1127f2cd403a315f,,,,,,,,,,,,,,,,,,,,,,,,,,,,,,,,,,,,,,,,,,,,,,,,,,,,,,,,,,,,,,,,,,,,,,,,,,,,,,,,,,,,,,,,,,,,,,,,,,,,,,,,,,,,,,,,,,,,,,,,,,,,,,,,,,,,,,,,,,,,,,,,,,,,,,,,,,,,,,,,,,,
0,5,5,48,1,,56a5684481a8ca000d3e544f,62c53a22f93e51d4ae53c7c3,2022-07-06_09h31.03.505,Colour_Asymmetry_Pilot,2022.1.3,Win32,59.8372427,62c50e9c1127f2cd403a315f,,,,,,,,,,,,,,,,,,,,,,,,,,,,,,,,,,,,,,,,,,,,,,,,,,,,,,,,,,,,,,,,,,,,,,,,,,,,,,,,,,,,,,,,,,,,,,,,,,,,,,,,,,,,,,,,,,,,,,,,,,,,,,,,,,,,,,,,,,,,,,,,,,,,,,,,,,,,,,,,,,,
0,6,6,25,1,,56a5684481a8ca000d3e544f,62c53a22f93e51d4ae53c7c3,2022-07-06_09h31.03.505,Colour_Asymmetry_Pilot,2022.1.3,Win32,59.8372427,62c50e9c1127f2cd403a315f,,,,,,,,,,,,,,,,,,,,,,,,,,,,,,,,,,,,,,,,,,,,,,,,,,,,,,,,,,,,,,,,,,,,,,,,,,,,,,,,,,,,,,,,,,,,,,,,,,,,,,,,,,,,,,,,,,,,,,,,,,,,,,,,,,,,,,,,,,,,,,,,,,,,,,,,,,,,,,,,,,,
0,7,7,24,1,,56a5684481a8ca000d3e544f,62c53a22f93e51d4ae53c7c3,2022-07-06_09h31.03.505,Colour_Asymmetry_Pilot,2022.1.3,Win32,59.8372427,62c50e9c1127f2cd403a315f,,,,,,,,,,,,,,,,,,,,,,,,,,,,,,,,,,,,,,,,,,,,,,,,,,,,,,,,,,,,,,,,,,,,,,,,,,,,,,,,,,,,,,,,,,,,,,,,,,,,,,,,,,,,,,,,,,,,,,,,,,,,,,,,,,,,,,,,,,,,,,,,,,,,,,,,,,,,,,,,,,,
0,8,8,29,1,,56a5684481a8ca000d3e544f,62c53a22f93e51d4ae53c7c3,2022-07-06_09h31.03.505,Colour_Asymmetry_Pilot,2022.1.3,Win32,59.8372427,62c50e9c1127f2cd403a315f,,,,,,,,,,,,,,,,,,,,,,,,,,,,,,,,,,,,,,,,,,,,,,,,,,,,,,,,,,,,,,,,,,,,,,,,,,,,,,,,,,,,,,,,,,,,,,,,,,,,,,,,,,,,,,,,,,,,,,,,,,,,,,,,,,,,,,,,,,,,,,,,,,,,,,,,,,,,,,,,,,,
0,9,9,79,1,,56a5684481a8ca000d3e544f,62c53a22f93e51d4ae53c7c3,2022-07-06_09h31.03.505,Colour_Asymmetry_Pilot,2022.1.3,Win32,59.8372427,62c50e9c1127f2cd403a315f,,,,,,,,,,,,,,,,,,,,,,,,,,,,,,,,,,,,,,,,,,,,,,,,,,,,,,,,,,,,,,,,,,,,,,,,,,,,,,,,,,,,,,,,,,,,,,,,,,,,,,,,,,,,,,,,,,,,,,,,,,,,,,,,,,,,,,,,,,,,,,,,,,,,,,,,,,,,,,,,,,,
0,10,10,61,1,,56a5684481a8ca000d3e544f,62c53a22f93e51d4ae53c7c3,2022-07-06_09h31.03.505,Colour_Asymmetry_Pilot,2022.1.3,Win32,59.8372427,62c50e9c1127f2cd403a315f,,,,,,,,,,,,,,,,,,,,,,,,,,,,,,,,,,,,,,,,,,,,,,,,,,,,,,,,,,,,,,,,,,,,,,,,,,,,,,,,,,,,,,,,,,,,,,,,,,,,,,,,,,,,,,,,,,,,,,,,,,,,,,,,,,,,,,,,,,,,,,,,,,,,,,,,,,,,,,,,,,,
0,11,11,0,1,,56a5684481a8ca000d3e544f,62c53a22f93e51d4ae53c7c3,2022-07-06_09h31.03.505,Colour_Asymmetry_Pilot,2022.1.3,Win32,59.8372427,62c50e9c1127f2cd403a315f,,,,,,,,,,,,,,,,,,,,,,,,,,,,,,,,,,,,,,,,,,,,,,,,,,,,,,,,,,,,,,,,,,,,,,,,,,,,,,,,,,,,,,,,,,,,,,,,,,,,,,,,,,,,,,,,,,,,,,,,,,,,,,,,,,,,,,,,,,,,,,,,,,,,,,,,,,,,,,,,,,,
0,12,12,33,1,,56a5684481a8ca000d3e544f,62c53a22f93e51d4ae53c7c3,2022-07-06_09h31.03.505,Colour_Asymmetry_Pilot,2022.1.3,Win32,59.8372427,62c50e9c1127f2cd403a315f,,,,,,,,,,,,,,,,,,,,,,,,,,,,,,,,,,,,,,,,,,,,,,,,,,,,,,,,,,,,,,,,,,,,,,,,,,,,,,,,,,,,,,,,,,,,,,,,,,,,,,,,,,,,,,,,,,,,,,,,,,,,,,,,,,,,,,,,,,,,,,,,,,,,,,,,,,,,,,,,,,,
0,13,13,66,1,,56a5684481a8ca000d3e544f,62c53a22f93e51d4ae53c7c3,2022-07-06_09h31.03.505,Colour_Asymmetry_Pilot,2022.1.3,Win32,59.8372427,62c50e9c1127f2cd403a315f,,,,,,,,,,,,,,,,,,,,,,,,,,,,,,,,,,,,,,,,,,,,,,,,,,,,,,,,,,,,,,,,,,,,,,,,,,,,,,,,,,,,,,,,,,,,,,,,,,,,,,,,,,,,,,,,,,,,,,,,,,,,,,,,,,,,,,,,,,,,,,,,,,,,,,,,,,,,,,,,,,,
0,14,14,43,1,,56a5684481a8ca000d3e544f,62c53a22f93e51d4ae53c7c3,2022-07-06_09h31.03.505,Colour_Asymmetry_Pilot,2022.1.3,Win32,59.8372427,62c50e9c1127f2cd403a315f,,,,,,,,,,,,,,,,,,,,,,,,,,,,,,,,,,,,,,,,,,,,,,,,,,,,,,,,,,,,,,,,,,,,,,,,,,,,,,,,,,,,,,,,,,,,,,,,,,,,,,,,,,,,,,,,,,,,,,,,,,,,,,,,,,,,,,,,,,,,,,,,,,,,,,,,,,,,,,,,,,,
0,15,15,88,1,,56a5684481a8ca000d3e544f,62c53a22f93e51d4ae53c7c3,2022-07-06_09h31.03.505,Colour_Asymmetry_Pilot,2022.1.3,Win32,59.8372427,62c50e9c1127f2cd403a315f,,,,,,,,,,,,,,,,,,,,,,,,,,,,,,,,,,,,,,,,,,,,,,,,,,,,,,,,,,,,,,,,,,,,,,,,,,,,,,,,,,,,,,,,,,,,,,,,,,,,,,,,,,,,,,,,,,,,,,,,,,,,,,,,,,,,,,,,,,,,,,,,,,,,,,,,,,,,,,,,,,,
0,16,16,30,1,,56a5684481a8ca000d3e544f,62c53a22f93e51d4ae53c7c3,2022-07-06_09h31.03.505,Colour_Asymmetry_Pilot,2022.1.3,Win32,59.8372427,62c50e9c1127f2cd403a315f,,,,,,,,,,,,,,,,,,,,,,,,,,,,,,,,,,,,,,,,,,,,,,,,,,,,,,,,,,,,,,,,,,,,,,,,,,,,,,,,,,,,,,,,,,,,,,,,,,,,,,,,,,,,,,,,,,,,,,,,,,,,,,,,,,,,,,,,,,,,,,,,,,,,,,,,,,,,,,,,,,,
0,17,17,65,1,,56a5684481a8ca000d3e544f,62c53a22f93e51d4ae53c7c3,2022-07-06_09h31.03.505,Colour_Asymmetry_Pilot,2022.1.3,Win32,59.8372427,62c50e9c1127f2cd403a315f,,,,,,,,,,,,,,,,,,,,,,,,,,,,,,,,,,,,,,,,,,,,,,,,,,,,,,,,,,,,,,,,,,,,,,,,,,,,,,,,,,,,,,,,,,,,,,,,,,,,,,,,,,,,,,,,,,,,,,,,,,,,,,,,,,,,,,,,,,,,,,,,,,,,,,,,,,,,,,,,,,,
0,18,18,76,1,,56a5684481a8ca000d3e544f,62c53a22f93e51d4ae53c7c3,2022-07-06_09h31.03.505,Colour_Asymmetry_Pilot,2022.1.3,Win32,59.8372427,62c50e9c1127f2cd403a315f,,,,,,,,,,,,,,,,,,,,,,,,,,,,,,,,,,,,,,,,,,,,,,,,,,,,,,,,,,,,,,,,,,,,,,,,,,,,,,,,,,,,,,,,,,,,,,,,,,,,,,,,,,,,,,,,,,,,,,,,,,,,,,,,,,,,,,,,,,,,,,,,,,,,,,,,,,,,,,,,,,,
0,19,19,60,1,,56a5684481a8ca000d3e544f,62c53a22f93e51d4ae53c7c3,2022-07-06_09h31.03.505,Colour_Asymmetry_Pilot,2022.1.3,Win32,59.8372427,62c50e9c1127f2cd403a315f,,,,,,,,,,,,,,,,,,,,,,,,,,,,,,,,,,,,,,,,,,,,,,,,,,,,,,,,,,,,,,,,,,,,,,,,,,,,,,,,,,,,,,,,,,,,,,,,,,,,,,,,,,,,,,,,,,,,,,,,,,,,,,,,,,,,,,,,,,,,,,,,,,,,,,,,,,,,,,,,,,,
0,20,20,34,1,,56a5684481a8ca000d3e544f,62c53a22f93e51d4ae53c7c3,2022-07-06_09h31.03.505,Colour_Asymmetry_Pilot,2022.1.3,Win32,59.8372427,62c50e9c1127f2cd403a315f,,,,,,,,,,,,,,,,,,,,,,,,,,,,,,,,,,,,,,,,,,,,,,,,,,,,,,,,,,,,,,,,,,,,,,,,,,,,,,,,,,,,,,,,,,,,,,,,,,,,,,,,,,,,,,,,,,,,,,,,,,,,,,,,,,,,,,,,,,,,,,,,,,,,,,,,,,,,,,,,,,,
0,21,21,57,1,,56a5684481a8ca000d3e544f,62c53a22f93e51d4ae53c7c3,2022-07-06_09h31.03.505,Colour_Asymmetry_Pilot,2022.1.3,Win32,59.8372427,62c50e9c1127f2cd403a315f,,,,,,,,,,,,,,,,,,,,,,,,,,,,,,,,,,,,,,,,,,,,,,,,,,,,,,,,,,,,,,,,,,,,,,,,,,,,,,,,,,,,,,,,,,,,,,,,,,,,,,,,,,,,,,,,,,,,,,,,,,,,,,,,,,,,,,,,,,,,,,,,,,,,,,,,,,,,,,,,,,,
0,22,22,2,1,,56a5684481a8ca000d3e544f,62c53a22f93e51d4ae53c7c3,2022-07-06_09h31.03.505,Colour_Asymmetry_Pilot,2022.1.3,Win32,59.8372427,62c50e9c1127f2cd403a315f,,,,,,,,,,,,,,,,,,,,,,,,,,,,,,,,,,,,,,,,,,,,,,,,,,,,,,,,,,,,,,,,,,,,,,,,,,,,,,,,,,,,,,,,,,,,,,,,,,,,,,,,,,,,,,,,,,,,,,,,,,,,,,,,,,,,,,,,,,,,,,,,,,,,,,,,,,,,,,,,,,,
0,23,23,52,1,,56a5684481a8ca000d3e544f,62c53a22f93e51d4ae53c7c3,2022-07-06_09h31.03.505,Colour_Asymmetry_Pilot,2022.1.3,Win32,59.8372427,62c50e9c1127f2cd403a315f,,,,,,,,,,,,,,,,,,,,,,,,,,,,,,,,,,,,,,,,,,,,,,,,,,,,,,,,,,,,,,,,,,,,,,,,,,,,,,,,,,,,,,,,,,,,,,,,,,,,,,,,,,,,,,,,,,,,,,,,,,,,,,,,,,,,,,,,,,,,,,,,,,,,,,,,,,,,,,,,,,,
0,24,24,78,1,,56a5684481a8ca000d3e544f,62c53a22f93e51d4ae53c7c3,2022-07-06_09h31.03.505,Colour_Asymmetry_Pilot,2022.1.3,Win32,59.8372427,62c50e9c1127f2cd403a315f,,,,,,,,,,,,,,,,,,,,,,,,,,,,,,,,,,,,,,,,,,,,,,,,,,,,,,,,,,,,,,,,,,,,,,,,,,,,,,,,,,,,,,,,,,,,,,,,,,,,,,,,,,,,,,,,,,,,,,,,,,,,,,,,,,,,,,,,,,,,,,,,,,,,,,,,,,,,,,,,,,,
0,25,25,31,1,,56a5684481a8ca000d3e544f,62c53a22f93e51d4ae53c7c3,2022-07-06_09h31.03.505,Colour_Asymmetry_Pilot,2022.1.3,Win32,59.8372427,62c50e9c1127f2cd403a315f,,,,,,,,,,,,,,,,,,,,,,,,,,,,,,,,,,,,,,,,,,,,,,,,,,,,,,,,,,,,,,,,,,,,,,,,,,,,,,,,,,,,,,,,,,,,,,,,,,,,,,,,,,,,,,,,,,,,,,,,,,,,,,,,,,,,,,,,,,,,,,,,,,,,,,,,,,,,,,,,,,,
0,26,26,64,1,,56a5684481a8ca000d3e544f,62c53a22f93e51d4ae53c7c3,2022-07-06_09h31.03.505,Colour_Asymmetry_Pilot,2022.1.3,Win32,59.8372427,62c50e9c1127f2cd403a315f,,,,,,,,,,,,,,,,,,,,,,,,,,,,,,,,,,,,,,,,,,,,,,,,,,,,,,,,,,,,,,,,,,,,,,,,,,,,,,,,,,,,,,,,,,,,,,,,,,,,,,,,,,,,,,,,,,,,,,,,,,,,,,,,,,,,,,,,,,,,,,,,,,,,,,,,,,,,,,,,,,,
0,27,27,58,1,,56a5684481a8ca000d3e544f,62c53a22f93e51d4ae53c7c3,2022-07-06_09h31.03.505,Colour_Asymmetry_Pilot,2022.1.3,Win32,59.8372427,62c50e9c1127f2cd403a315f,,,,,,,,,,,,,,,,,,,,,,,,,,,,,,,,,,,,,,,,,,,,,,,,,,,,,,,,,,,,,,,,,,,,,,,,,,,,,,,,,,,,,,,,,,,,,,,,,,,,,,,,,,,,,,,,,,,,,,,,,,,,,,,,,,,,,,,,,,,,,,,,,,,,,,,,,,,,,,,,,,,
0,28,28,69,1,,56a5684481a8ca000d3e544f,62c53a22f93e51d4ae53c7c3,2022-07-06_09h31.03.505,Colour_Asymmetry_Pilot,2022.1.3,Win32,59.8372427,62c50e9c1127f2cd403a315f,,,,,,,,,,,,,,,,,,,,,,,,,,,,,,,,,,,,,,,,,,,,,,,,,,,,,,,,,,,,,,,,,,,,,,,,,,,,,,,,,,,,,,,,,,,,,,,,,,,,,,,,,,,,,,,,,,,,,,,,,,,,,,,,,,,,,,,,,,,,,,,,,,,,,,,,,,,,,,,,,,,
0,29,29,63,1,,56a5684481a8ca000d3e544f,62c53a22f93e51d4ae53c7c3,2022-07-06_09h31.03.505,Colour_Asymmetry_Pilot,2022.1.3,Win32,59.8372427,62c50e9c1127f2cd403a315f,,,,,,,,,,,,,,,,,,,,,,,,,,,,,,,,,,,,,,,,,,,,,,,,,,,,,,,,,,,,,,,,,,,,,,,,,,,,,,,,,,,,,,,,,,,,,,,,,,,,,,,,,,,,,,,,,,,,,,,,,,,,,,,,,,,,,,,,,,,,,,,,,,,,,,,,,,,,,,,,,,,
0,30,30,7,1,,56a5684481a8ca000d3e544f,62c53a22f93e51d4ae53c7c3,2022-07-06_09h31.03.505,Colour_Asymmetry_Pilot,2022.1.3,Win32,59.8372427,62c50e9c1127f2cd403a315f,,,,,,,,,,,,,,,,,,,,,,,,,,,,,,,,,,,,,,,,,,,,,,,,,,,,,,,,,,,,,,,,,,,,,,,,,,,,,,,,,,,,,,,,,,,,,,,,,,,,,,,,,,,,,,,,,,,,,,,,,,,,,,,,,,,,,,,,,,,,,,,,,,,,,,,,,,,,,,,,,,,
0,31,31,47,1,,56a5684481a8ca000d3e544f,62c53a22f93e51d4ae53c7c3,2022-07-06_09h31.03.505,Colour_Asymmetry_Pilot,2022.1.3,Win32,59.8372427,62c50e9c1127f2cd403a315f,,,,,,,,,,,,,,,,,,,,,,,,,,,,,,,,,,,,,,,,,,,,,,,,,,,,,,,,,,,,,,,,,,,,,,,,,,,,,,,,,,,,,,,,,,,,,,,,,,,,,,,,,,,,,,,,,,,,,,,,,,,,,,,,,,,,,,,,,,,,,,,,,,,,,,,,,,,,,,,,,,,
0,32,32,27,1,,56a5684481a8ca000d3e544f,62c53a22f93e51d4ae53c7c3,2022-07-06_09h31.03.505,Colour_Asymmetry_Pilot,2022.1.3,Win32,59.8372427,62c50e9c1127f2cd403a315f,,,,,,,,,,,,,,,,,,,,,,,,,,,,,,,,,,,,,,,,,,,,,,,,,,,,,,,,,,,,,,,,,,,,,,,,,,,,,,,,,,,,,,,,,,,,,,,,,,,,,,,,,,,,,,,,,,,,,,,,,,,,,,,,,,,,,,,,,,,,,,,,,,,,,,,,,,,,,,,,,,,
0,33,33,35,1,,56a5684481a8ca000d3e544f,62c53a22f93e51d4ae53c7c3,2022-07-06_09h31.03.505,Colour_Asymmetry_Pilot,2022.1.3,Win32,59.8372427,62c50e9c1127f2cd403a315f,,,,,,,,,,,,,,,,,,,,,,,,,,,,,,,,,,,,,,,,,,,,,,,,,,,,,,,,,,,,,,,,,,,,,,,,,,,,,,,,,,,,,,,,,,,,,,,,,,,,,,,,,,,,,,,,,,,,,,,,,,,,,,,,,,,,,,,,,,,,,,,,,,,,,,,,,,,,,,,,,,,
0,34,34,28,1,,56a5684481a8ca000d3e544f,62c53a22f93e51d4ae53c7c3,2022-07-06_09h31.03.505,Colour_Asymmetry_Pilot,2022.1.3,Win32,59.8372427,62c50e9c1127f2cd403a315f,,,,,,,,,,,,,,,,,,,,,,,,,,,,,,,,,,,,,,,,,,,,,,,,,,,,,,,,,,,,,,,,,,,,,,,,,,,,,,,,,,,,,,,,,,,,,,,,,,,,,,,,,,,,,,,,,,,,,,,,,,,,,,,,,,,,,,,,,,,,,,,,,,,,,,,,,,,,,,,,,,,
0,35,35,85,1,,56a5684481a8ca000d3e544f,62c53a22f93e51d4ae53c7c3,2022-07-06_09h31.03.505,Colour_Asymmetry_Pilot,2022.1.3,Win32,59.8372427,62c50e9c1127f2cd403a315f,,,,,,,,,,,,,,,,,,,,,,,,,,,,,,,,,,,,,,,,,,,,,,,,,,,,,,,,,,,,,,,,,,,,,,,,,,,,,,,,,,,,,,,,,,,,,,,,,,,,,,,,,,,,,,,,,,,,,,,,,,,,,,,,,,,,,,,,,,,,,,,,,,,,,,,,,,,,,,,,,,,
0,36,36,82,1,,56a5684481a8ca000d3e544f,62c53a22f93e51d4ae53c7c3,2022-07-06_09h31.03.505,Colour_Asymmetry_Pilot,2022.1.3,Win32,59.8372427,62c50e9c1127f2cd403a315f,,,,,,,,,,,,,,,,,,,,,,,,,,,,,,,,,,,,,,,,,,,,,,,,,,,,,,,,,,,,,,,,,,,,,,,,,,,,,,,,,,,,,,,,,,,,,,,,,,,,,,,,,,,,,,,,,,,,,,,,,,,,,,,,,,,,,,,,,,,,,,,,,,,,,,,,,,,,,,,,,,,
0,37,37,38,1,,56a5684481a8ca000d3e544f,62c53a22f93e51d4ae53c7c3,2022-07-06_09h31.03.505,Colour_Asymmetry_Pilot,2022.1.3,Win32,59.8372427,62c50e9c1127f2cd403a315f,,,,,,,,,,,,,,,,,,,,,,,,,,,,,,,,,,,,,,,,,,,,,,,,,,,,,,,,,,,,,,,,,,,,,,,,,,,,,,,,,,,,,,,,,,,,,,,,,,,,,,,,,,,,,,,,,,,,,,,,,,,,,,,,,,,,,,,,,,,,,,,,,,,,,,,,,,,,,,,,,,,
0,38,38,44,1,,56a5684481a8ca000d3e544f,62c53a22f93e51d4ae53c7c3,2022-07-06_09h31.03.505,Colour_Asymmetry_Pilot,2022.1.3,Win32,59.8372427,62c50e9c1127f2cd403a315f,,,,,,,,,,,,,,,,,,,,,,,,,,,,,,,,,,,,,,,,,,,,,,,,,,,,,,,,,,,,,,,,,,,,,,,,,,,,,,,,,,,,,,,,,,,,,,,,,,,,,,,,,,,,,,,,,,,,,,,,,,,,,,,,,,,,,,,,,,,,,,,,,,,,,,,,,,,,,,,,,,,
0,39,39,92,1,,56a5684481a8ca000d3e544f,62c53a22f93e51d4ae53c7c3,2022-07-06_09h31.03.505,Colour_Asymmetry_Pilot,2022.1.3,Win32,59.8372427,62c50e9c1127f2cd403a315f,,,,,,,,,,,,,,,,,,,,,,,,,,,,,,,,,,,,,,,,,,,,,,,,,,,,,,,,,,,,,,,,,,,,,,,,,,,,,,,,,,,,,,,,,,,,,,,,,,,,,,,,,,,,,,,,,,,,,,,,,,,,,,,,,,,,,,,,,,,,,,,,,,,,,,,,,,,,,,,,,,,
0,40,40,19,1,,56a5684481a8ca000d3e544f,62c53a22f93e51d4ae53c7c3,2022-07-06_09h31.03.505,Colour_Asymmetry_Pilot,2022.1.3,Win32,59.8372427,62c50e9c1127f2cd403a315f,,,,,,,,,,,,,,,,,,,,,,,,,,,,,,,,,,,,,,,,,,,,,,,,,,,,,,,,,,,,,,,,,,,,,,,,,,,,,,,,,,,,,,,,,,,,,,,,,,,,,,,,,,,,,,,,,,,,,,,,,,,,,,,,,,,,,,,,,,,,,,,,,,,,,,,,,,,,,,,,,,,
0,41,41,75,1,,56a5684481a8ca000d3e544f,62c53a22f93e51d4ae53c7c3,2022-07-06_09h31.03.505,Colour_Asymmetry_Pilot,2022.1.3,Win32,59.8372427,62c50e9c1127f2cd403a315f,,,,,,,,,,,,,,,,,,,,,,,,,,,,,,,,,,,,,,,,,,,,,,,,,,,,,,,,,,,,,,,,,,,,,,,,,,,,,,,,,,,,,,,,,,,,,,,,,,,,,,,,,,,,,,,,,,,,,,,,,,,,,,,,,,,,,,,,,,,,,,,,,,,,,,,,,,,,,,,,,,,
0,42,42,67,1,,56a5684481a8ca000d3e544f,62c53a22f93e51d4ae53c7c3,2022-07-06_09h31.03.505,Colour_Asymmetry_Pilot,2022.1.3,Win32,59.8372427,62c50e9c1127f2cd403a315f,,,,,,,,,,,,,,,,,,,,,,,,,,,,,,,,,,,,,,,,,,,,,,,,,,,,,,,,,,,,,,,,,,,,,,,,,,,,,,,,,,,,,,,,,,,,,,,,,,,,,,,,,,,,,,,,,,,,,,,,,,,,,,,,,,,,,,,,,,,,,,,,,,,,,,,,,,,,,,,,,,,
0,43,43,12,1,,56a5684481a8ca000d3e544f,62c53a22f93e51d4ae53c7c3,2022-07-06_09h31.03.505,Colour_Asymmetry_Pilot,2022.1.3,Win32,59.8372427,62c50e9c1127f2cd403a315f,,,,,,,,,,,,,,,,,,,,,,,,,,,,,,,,,,,,,,,,,,,,,,,,,,,,,,,,,,,,,,,,,,,,,,,,,,,,,,,,,,,,,,,,,,,,,,,,,,,,,,,,,,,,,,,,,,,,,,,,,,,,,,,,,,,,,,,,,,,,,,,,,,,,,,,,,,,,,,,,,,,
0,44,44,70,1,,56a5684481a8ca000d3e544f,62c53a22f93e51d4ae53c7c3,2022-07-06_09h31.03.505,Colour_Asymmetry_Pilot,2022.1.3,Win32,59.8372427,62c50e9c1127f2cd403a315f,,,,,,,,,,,,,,,,,,,,,,,,,,,,,,,,,,,,,,,,,,,,,,,,,,,,,,,,,,,,,,,,,,,,,,,,,,,,,,,,,,,,,,,,,,,,,,,,,,,,,,,,,,,,,,,,,,,,,,,,,,,,,,,,,,,,,,,,,,,,,,,,,,,,,,,,,,,,,,,,,,,
0,45,45,6,1,,56a5684481a8ca000d3e544f,62c53a22f93e51d4ae53c7c3,2022-07-06_09h31.03.505,Colour_Asymmetry_Pilot,2022.1.3,Win32,59.8372427,62c50e9c1127f2cd403a315f,,,,,,,,,,,,,,,,,,,,,,,,,,,,,,,,,,,,,,,,,,,,,,,,,,,,,,,,,,,,,,,,,,,,,,,,,,,,,,,,,,,,,,,,,,,,,,,,,,,,,,,,,,,,,,,,,,,,,,,,,,,,,,,,,,,,,,,,,,,,,,,,,,,,,,,,,,,,,,,,,,,
0,46,46,14,1,,56a5684481a8ca000d3e544f,62c53a22f93e51d4ae53c7c3,2022-07-06_09h31.03.505,Colour_Asymmetry_Pilot,2022.1.3,Win32,59.8372427,62c50e9c1127f2cd403a315f,,,,,,,,,,,,,,,,,,,,,,,,,,,,,,,,,,,,,,,,,,,,,,,,,,,,,,,,,,,,,,,,,,,,,,,,,,,,,,,,,,,,,,,,,,,,,,,,,,,,,,,,,,,,,,,,,,,,,,,,,,,,,,,,,,,,,,,,,,,,,,,,,,,,,,,,,,,,,,,,,,,
0,47,47,16,1,,56a5684481a8ca000d3e544f,62c53a22f93e51d4ae53c7c3,2022-07-06_09h31.03.505,Colour_Asymmetry_Pilot,2022.1.3,Win32,59.8372427,62c50e9c1127f2cd403a315f,,,,,,,,,,,,,,,,,,,,,,,,,,,,,,,,,,,,,,,,,,,,,,,,,,,,,,,,,,,,,,,,,,,,,,,,,,,,,,,,,,,,,,,,,,,,,,,,,,,,,,,,,,,,,,,,,,,,,,,,,,,,,,,,,,,,,,,,,,,,,,,,,,,,,,,,,,,,,,,,,,,
0,48,48,53,1,,56a5684481a8ca000d3e544f,62c53a22f93e51d4ae53c7c3,2022-07-06_09h31.03.505,Colour_Asymmetry_Pilot,2022.1.3,Win32,59.8372427,62c50e9c1127f2cd403a315f,,,,,,,,,,,,,,,,,,,,,,,,,,,,,,,,,,,,,,,,,,,,,,,,,,,,,,,,,,,,,,,,,,,,,,,,,,,,,,,,,,,,,,,,,,,,,,,,,,,,,,,,,,,,,,,,,,,,,,,,,,,,,,,,,,,,,,,,,,,,,,,,,,,,,,,,,,,,,,,,,,,
0,49,49,83,1,,56a5684481a8ca000d3e544f,62c53a22f93e51d4ae53c7c3,2022-07-06_09h31.03.505,Colour_Asymmetry_Pilot,2022.1.3,Win32,59.8372427,62c50e9c1127f2cd403a315f,,,,,,,,,,,,,,,,,,,,,,,,,,,,,,,,,,,,,,,,,,,,,,,,,,,,,,,,,,,,,,,,,,,,,,,,,,,,,,,,,,,,,,,,,,,,,,,,,,,,,,,,,,,,,,,,,,,,,,,,,,,,,,,,,,,,,,,,,,,,,,,,,,,,,,,,,,,,,,,,,,,
0,50,50,37,1,,56a5684481a8ca000d3e544f,62c53a22f93e51d4ae53c7c3,2022-07-06_09h31.03.505,Colour_Asymmetry_Pilot,2022.1.3,Win32,59.8372427,62c50e9c1127f2cd403a315f,,,,,,,,,,,,,,,,,,,,,,,,,,,,,,,,,,,,,,,,,,,,,,,,,,,,,,,,,,,,,,,,,,,,,,,,,,,,,,,,,,,,,,,,,,,,,,,,,,,,,,,,,,,,,,,,,,,,,,,,,,,,,,,,,,,,,,,,,,,,,,,,,,,,,,,,,,,,,,,,,,,
0,51,51,90,1,,56a5684481a8ca000d3e544f,62c53a22f93e51d4ae53c7c3,2022-07-06_09h31.03.505,Colour_Asymmetry_Pilot,2022.1.3,Win32,59.8372427,62c50e9c1127f2cd403a315f,,,,,,,,,,,,,,,,,,,,,,,,,,,,,,,,,,,,,,,,,,,,,,,,,,,,,,,,,,,,,,,,,,,,,,,,,,,,,,,,,,,,,,,,,,,,,,,,,,,,,,,,,,,,,,,,,,,,,,,,,,,,,,,,,,,,,,,,,,,,,,,,,,,,,,,,,,,,,,,,,,,
0,52,52,49,1,,56a5684481a8ca000d3e544f,62c53a22f93e51d4ae53c7c3,2022-07-06_09h31.03.505,Colour_Asymmetry_Pilot,2022.1.3,Win32,59.8372427,62c50e9c1127f2cd403a315f,,,,,,,,,,,,,,,,,,,,,,,,,,,,,,,,,,,,,,,,,,,,,,,,,,,,,,,,,,,,,,,,,,,,,,,,,,,,,,,,,,,,,,,,,,,,,,,,,,,,,,,,,,,,,,,,,,,,,,,,,,,,,,,,,,,,,,,,,,,,,,,,,,,,,,,,,,,,,,,,,,,
0,53,53,81,1,,56a5684481a8ca000d3e544f,62c53a22f93e51d4ae53c7c3,2022-07-06_09h31.03.505,Colour_Asymmetry_Pilot,2022.1.3,Win32,59.8372427,62c50e9c1127f2cd403a315f,,,,,,,,,,,,,,,,,,,,,,,,,,,,,,,,,,,,,,,,,,,,,,,,,,,,,,,,,,,,,,,,,,,,,,,,,,,,,,,,,,,,,,,,,,,,,,,,,,,,,,,,,,,,,,,,,,,,,,,,,,,,,,,,,,,,,,,,,,,,,,,,,,,,,,,,,,,,,,,,,,,
0,54,54,73,1,,56a5684481a8ca000d3e544f,62c53a22f93e51d4ae53c7c3,2022-07-06_09h31.03.505,Colour_Asymmetry_Pilot,2022.1.3,Win32,59.8372427,62c50e9c1127f2cd403a315f,,,,,,,,,,,,,,,,,,,,,,,,,,,,,,,,,,,,,,,,,,,,,,,,,,,,,,,,,,,,,,,,,,,,,,,,,,,,,,,,,,,,,,,,,,,,,,,,,,,,,,,,,,,,,,,,,,,,,,,,,,,,,,,,,,,,,,,,,,,,,,,,,,,,,,,,,,,,,,,,,,,
0,55,55,91,1,,56a5684481a8ca000d3e544f,62c53a22f93e51d4ae53c7c3,2022-07-06_09h31.03.505,Colour_Asymmetry_Pilot,2022.1.3,Win32,59.8372427,62c50e9c1127f2cd403a315f,,,,,,,,,,,,,,,,,,,,,,,,,,,,,,,,,,,,,,,,,,,,,,,,,,,,,,,,,,,,,,,,,,,,,,,,,,,,,,,,,,,,,,,,,,,,,,,,,,,,,,,,,,,,,,,,,,,,,,,,,,,,,,,,,,,,,,,,,,,,,,,,,,,,,,,,,,,,,,,,,,,
0,56,56,5,1,,56a5684481a8ca000d3e544f,62c53a22f93e51d4ae53c7c3,2022-07-06_09h31.03.505,Colour_Asymmetry_Pilot,2022.1.3,Win32,59.8372427,62c50e9c1127f2cd403a315f,,,,,,,,,,,,,,,,,,,,,,,,,,,,,,,,,,,,,,,,,,,,,,,,,,,,,,,,,,,,,,,,,,,,,,,,,,,,,,,,,,,,,,,,,,,,,,,,,,,,,,,,,,,,,,,,,,,,,,,,,,,,,,,,,,,,,,,,,,,,,,,,,,,,,,,,,,,,,,,,,,,
0,57,57,62,1,,56a5684481a8ca000d3e544f,62c53a22f93e51d4ae53c7c3,2022-07-06_09h31.03.505,Colour_Asymmetry_Pilot,2022.1.3,Win32,59.8372427,62c50e9c1127f2cd403a315f,,,,,,,,,,,,,,,,,,,,,,,,,,,,,,,,,,,,,,,,,,,,,,,,,,,,,,,,,,,,,,,,,,,,,,,,,,,,,,,,,,,,,,,,,,,,,,,,,,,,,,,,,,,,,,,,,,,,,,,,,,,,,,,,,,,,,,,,,,,,,,,,,,,,,,,,,,,,,,,,,,,
0,58,58,3,1,,56a5684481a8ca000d3e544f,62c53a22f93e51d4ae53c7c3,2022-07-06_09h31.03.505,Colour_Asymmetry_Pilot,2022.1.3,Win32,59.8372427,62c50e9c1127f2cd403a315f,,,,,,,,,,,,,,,,,,,,,,,,,,,,,,,,,,,,,,,,,,,,,,,,,,,,,,,,,,,,,,,,,,,,,,,,,,,,,,,,,,,,,,,,,,,,,,,,,,,,,,,,,,,,,,,,,,,,,,,,,,,,,,,,,,,,,,,,,,,,,,,,,,,,,,,,,,,,,,,,,,,
0,59,59,72,1,,56a5684481a8ca000d3e544f,62c53a22f93e51d4ae53c7c3,2022-07-06_09h31.03.505,Colour_Asymmetry_Pilot,2022.1.3,Win32,59.8372427,62c50e9c1127f2cd403a315f,,,,,,,,,,,,,,,,,,,,,,,,,,,,,,,,,,,,,,,,,,,,,,,,,,,,,,,,,,,,,,,,,,,,,,,,,,,,,,,,,,,,,,,,,,,,,,,,,,,,,,,,,,,,,,,,,,,,,,,,,,,,,,,,,,,,,,,,,,,,,,,,,,,,,,,,,,,,,,,,,,,
0,60,60,17,1,,56a5684481a8ca000d3e544f,62c53a22f93e51d4ae53c7c3,2022-07-06_09h31.03.505,Colour_Asymmetry_Pilot,2022.1.3,Win32,59.8372427,62c50e9c1127f2cd403a315f,,,,,,,,,,,,,,,,,,,,,,,,,,,,,,,,,,,,,,,,,,,,,,,,,,,,,,,,,,,,,,,,,,,,,,,,,,,,,,,,,,,,,,,,,,,,,,,,,,,,,,,,,,,,,,,,,,,,,,,,,,,,,,,,,,,,,,,,,,,,,,,,,,,,,,,,,,,,,,,,,,,
0,61,61,55,1,,56a5684481a8ca000d3e544f,62c53a22f93e51d4ae53c7c3,2022-07-06_09h31.03.505,Colour_Asymmetry_Pilot,2022.1.3,Win32,59.8372427,62c50e9c1127f2cd403a315f,,,,,,,,,,,,,,,,,,,,,,,,,,,,,,,,,,,,,,,,,,,,,,,,,,,,,,,,,,,,,,,,,,,,,,,,,,,,,,,,,,,,,,,,,,,,,,,,,,,,,,,,,,,,,,,,,,,,,,,,,,,,,,,,,,,,,,,,,,,,,,,,,,,,,,,,,,,,,,,,,,,
0,62,62,21,1,,56a5684481a8ca000d3e544f,62c53a22f93e51d4ae53c7c3,2022-07-06_09h31.03.505,Colour_Asymmetry_Pilot,2022.1.3,Win32,59.8372427,62c50e9c1127f2cd403a315f,,,,,,,,,,,,,,,,,,,,,,,,,,,,,,,,,,,,,,,,,,,,,,,,,,,,,,,,,,,,,,,,,,,,,,,,,,,,,,,,,,,,,,,,,,,,,,,,,,,,,,,,,,,,,,,,,,,,,,,,,,,,,,,,,,,,,,,,,,,,,,,,,,,,,,,,,,,,,,,,,,,
0,63,63,80,1,,56a5684481a8ca000d3e544f,62c53a22f93e51d4ae53c7c3,2022-07-06_09h31.03.505,Colour_Asymmetry_Pilot,2022.1.3,Win32,59.8372427,62c50e9c1127f2cd403a315f,,,,,,,,,,,,,,,,,,,,,,,,,,,,,,,,,,,,,,,,,,,,,,,,,,,,,,,,,,,,,,,,,,,,,,,,,,,,,,,,,,,,,,,,,,,,,,,,,,,,,,,,,,,,,,,,,,,,,,,,,,,,,,,,,,,,,,,,,,,,,,,,,,,,,,,,,,,,,,,,,,,
0,64,64,22,1,,56a5684481a8ca000d3e544f,62c53a22f93e51d4ae53c7c3,2022-07-06_09h31.03.505,Colour_Asymmetry_Pilot,2022.1.3,Win32,59.8372427,62c50e9c1127f2cd403a315f,,,,,,,,,,,,,,,,,,,,,,,,,,,,,,,,,,,,,,,,,,,,,,,,,,,,,,,,,,,,,,,,,,,,,,,,,,,,,,,,,,,,,,,,,,,,,,,,,,,,,,,,,,,,,,,,,,,,,,,,,,,,,,,,,,,,,,,,,,,,,,,,,,,,,,,,,,,,,,,,,,,
0,65,65,32,1,,56a5684481a8ca000d3e544f,62c53a22f93e51d4ae53c7c3,2022-07-06_09h31.03.505,Colour_Asymmetry_Pilot,2022.1.3,Win32,59.8372427,62c50e9c1127f2cd403a315f,,,,,,,,,,,,,,,,,,,,,,,,,,,,,,,,,,,,,,,,,,,,,,,,,,,,,,,,,,,,,,,,,,,,,,,,,,,,,,,,,,,,,,,,,,,,,,,,,,,,,,,,,,,,,,,,,,,,,,,,,,,,,,,,,,,,,,,,,,,,,,,,,,,,,,,,,,,,,,,,,,,
0,66,66,8,1,,56a5684481a8ca000d3e544f,62c53a22f93e51d4ae53c7c3,2022-07-06_09h31.03.505,Colour_Asymmetry_Pilot,2022.1.3,Win32,59.8372427,62c50e9c1127f2cd403a315f,,,,,,,,,,,,,,,,,,,,,,,,,,,,,,,,,,,,,,,,,,,,,,,,,,,,,,,,,,,,,,,,,,,,,,,,,,,,,,,,,,,,,,,,,,,,,,,,,,,,,,,,,,,,,,,,,,,,,,,,,,,,,,,,,,,,,,,,,,,,,,,,,,,,,,,,,,,,,,,,,,,
0,67,67,59,1,,56a5684481a8ca000d3e544f,62c53a22f93e51d4ae53c7c3,2022-07-06_09h31.03.505,Colour_Asymmetry_Pilot,2022.1.3,Win32,59.8372427,62c50e9c1127f2cd403a315f,,,,,,,,,,,,,,,,,,,,,,,,,,,,,,,,,,,,,,,,,,,,,,,,,,,,,,,,,,,,,,,,,,,,,,,,,,,,,,,,,,,,,,,,,,,,,,,,,,,,,,,,,,,,,,,,,,,,,,,,,,,,,,,,,,,,,,,,,,,,,,,,,,,,,,,,,,,,,,,,,,,
0,68,68,13,1,,56a5684481a8ca000d3e544f,62c53a22f93e51d4ae53c7c3,2022-07-06_09h31.03.505,Colour_Asymmetry_Pilot,2022.1.3,Win32,59.8372427,62c50e9c1127f2cd403a315f,,,,,,,,,,,,,,,,,,,,,,,,,,,,,,,,,,,,,,,,,,,,,,,,,,,,,,,,,,,,,,,,,,,,,,,,,,,,,,,,,,,,,,,,,,,,,,,,,,,,,,,,,,,,,,,,,,,,,,,,,,,,,,,,,,,,,,,,,,,,,,,,,,,,,,,,,,,,,,,,,,,
0,69,69,56,1,,56a5684481a8ca000d3e544f,62c53a22f93e51d4ae53c7c3,2022-07-06_09h31.03.505,Colour_Asymmetry_Pilot,2022.1.3,Win32,59.8372427,62c50e9c1127f2cd403a315f,,,,,,,,,,,,,,,,,,,,,,,,,,,,,,,,,,,,,,,,,,,,,,,,,,,,,,,,,,,,,,,,,,,,,,,,,,,,,,,,,,,,,,,,,,,,,,,,,,,,,,,,,,,,,,,,,,,,,,,,,,,,,,,,,,,,,,,,,,,,,,,,,,,,,,,,,,,,,,,,,,,
0,70,70,15,1,,56a5684481a8ca000d3e544f,62c53a22f93e51d4ae53c7c3,2022-07-06_09h31.03.505,Colour_Asymmetry_Pilot,2022.1.3,Win32,59.8372427,62c50e9c1127f2cd403a315f,,,,,,,,,,,,,,,,,,,,,,,,,,,,,,,,,,,,,,,,,,,,,,,,,,,,,,,,,,,,,,,,,,,,,,,,,,,,,,,,,,,,,,,,,,,,,,,,,,,,,,,,,,,,,,,,,,,,,,,,,,,,,,,,,,,,,,,,,,,,,,,,,,,,,,,,,,,,,,,,,,,
0,71,71,26,1,,56a5684481a8ca000d3e544f,62c53a22f93e51d4ae53c7c3,2022-07-06_09h31.03.505,Colour_Asymmetry_Pilot,2022.1.3,Win32,59.8372427,62c50e9c1127f2cd403a315f,,,,,,,,,,,,,,,,,,,,,,,,,,,,,,,,,,,,,,,,,,,,,,,,,,,,,,,,,,,,,,,,,,,,,,,,,,,,,,,,,,,,,,,,,,,,,,,,,,,,,,,,,,,,,,,,,,,,,,,,,,,,,,,,,,,,,,,,,,,,,,,,,,,,,,,,,,,,,,,,,,,
0,72,72,42,1,,56a5684481a8ca000d3e544f,62c53a22f93e51d4ae53c7c3,2022-07-06_09h31.03.505,Colour_Asymmetry_Pilot,2022.1.3,Win32,59.8372427,62c50e9c1127f2cd403a315f,,,,,,,,,,,,,,,,,,,,,,,,,,,,,,,,,,,,,,,,,,,,,,,,,,,,,,,,,,,,,,,,,,,,,,,,,,,,,,,,,,,,,,,,,,,,,,,,,,,,,,,,,,,,,,,,,,,,,,,,,,,,,,,,,,,,,,,,,,,,,,,,,,,,,,,,,,,,,,,,,,,
0,73,73,20,1,,56a5684481a8ca000d3e544f,62c53a22f93e51d4ae53c7c3,2022-07-06_09h31.03.505,Colour_Asymmetry_Pilot,2022.1.3,Win32,59.8372427,62c50e9c1127f2cd403a315f,,,,,,,,,,,,,,,,,,,,,,,,,,,,,,,,,,,,,,,,,,,,,,,,,,,,,,,,,,,,,,,,,,,,,,,,,,,,,,,,,,,,,,,,,,,,,,,,,,,,,,,,,,,,,,,,,,,,,,,,,,,,,,,,,,,,,,,,,,,,,,,,,,,,,,,,,,,,,,,,,,,
0,74,74,23,1,,56a5684481a8ca000d3e544f,62c53a22f93e51d4ae53c7c3,2022-07-06_09h31.03.505,Colour_Asymmetry_Pilot,2022.1.3,Win32,59.8372427,62c50e9c1127f2cd403a315f,,,,,,,,,,,,,,,,,,,,,,,,,,,,,,,,,,,,,,,,,,,,,,,,,,,,,,,,,,,,,,,,,,,,,,,,,,,,,,,,,,,,,,,,,,,,,,,,,,,,,,,,,,,,,,,,,,,,,,,,,,,,,,,,,,,,,,,,,,,,,,,,,,,,,,,,,,,,,,,,,,,
0,75,75,51,1,,56a5684481a8ca000d3e544f,62c53a22f93e51d4ae53c7c3,2022-07-06_09h31.03.505,Colour_Asymmetry_Pilot,2022.1.3,Win32,59.8372427,62c50e9c1127f2cd403a315f,,,,,,,,,,,,,,,,,,,,,,,,,,,,,,,,,,,,,,,,,,,,,,,,,,,,,,,,,,,,,,,,,,,,,,,,,,,,,,,,,,,,,,,,,,,,,,,,,,,,,,,,,,,,,,,,,,,,,,,,,,,,,,,,,,,,,,,,,,,,,,,,,,,,,,,,,,,,,,,,,,,
0,76,76,86,1,,56a5684481a8ca000d3e544f,62c53a22f93e51d4ae53c7c3,2022-07-06_09h31.03.505,Colour_Asymmetry_Pilot,2022.1.3,Win32,59.8372427,62c50e9c1127f2cd403a315f,,,,,,,,,,,,,,,,,,,,,,,,,,,,,,,,,,,,,,,,,,,,,,,,,,,,,,,,,,,,,,,,,,,,,,,,,,,,,,,,,,,,,,,,,,,,,,,,,,,,,,,,,,,,,,,,,,,,,,,,,,,,,,,,,,,,,,,,,,,,,,,,,,,,,,,,,,,,,,,,,,,
0,77,77,54,1,,56a5684481a8ca000d3e544f,62c53a22f93e51d4ae53c7c3,2022-07-06_09h31.03.505,Colour_Asymmetry_Pilot,2022.1.3,Win32,59.8372427,62c50e9c1127f2cd403a315f,,,,,,,,,,,,,,,,,,,,,,,,,,,,,,,,,,,,,,,,,,,,,,,,,,,,,,,,,,,,,,,,,,,,,,,,,,,,,,,,,,,,,,,,,,,,,,,,,,,,,,,,,,,,,,,,,,,,,,,,,,,,,,,,,,,,,,,,,,,,,,,,,,,,,,,,,,,,,,,,,,,
0,78,78,36,1,,56a5684481a8ca000d3e544f,62c53a22f93e51d4ae53c7c3,2022-07-06_09h31.03.505,Colour_Asymmetry_Pilot,2022.1.3,Win32,59.8372427,62c50e9c1127f2cd403a315f,,,,,,,,,,,,,,,,,,,,,,,,,,,,,,,,,,,,,,,,,,,,,,,,,,,,,,,,,,,,,,,,,,,,,,,,,,,,,,,,,,,,,,,,,,,,,,,,,,,,,,,,,,,,,,,,,,,,,,,,,,,,,,,,,,,,,,,,,,,,,,,,,,,,,,,,,,,,,,,,,,,
0,79,79,11,1,,56a5684481a8ca000d3e544f,62c53a22f93e51d4ae53c7c3,2022-07-06_09h31.03.505,Colour_Asymmetry_Pilot,2022.1.3,Win32,59.8372427,62c50e9c1127f2cd403a315f,,,,,,,,,,,,,,,,,,,,,,,,,,,,,,,,,,,,,,,,,,,,,,,,,,,,,,,,,,,,,,,,,,,,,,,,,,,,,,,,,,,,,,,,,,,,,,,,,,,,,,,,,,,,,,,,,,,,,,,,,,,,,,,,,,,,,,,,,,,,,,,,,,,,,,,,,,,,,,,,,,,
0,80,80,1,1,,56a5684481a8ca000d3e544f,62c53a22f93e51d4ae53c7c3,2022-07-06_09h31.03.505,Colour_Asymmetry_Pilot,2022.1.3,Win32,59.8372427,62c50e9c1127f2cd403a315f,,,,,,,,,,,,,,,,,,,,,,,,,,,,,,,,,,,,,,,,,,,,,,,,,,,,,,,,,,,,,,,,,,,,,,,,,,,,,,,,,,,,,,,,,,,,,,,,,,,,,,,,,,,,,,,,,,,,,,,,,,,,,,,,,,,,,,,,,,,,,,,,,,,,,,,,,,,,,,,,,,,
0,81,81,50,1,,56a5684481a8ca000d3e544f,62c53a22f93e51d4ae53c7c3,2022-07-06_09h31.03.505,Colour_Asymmetry_Pilot,2022.1.3,Win32,59.8372427,62c50e9c1127f2cd403a315f,,,,,,,,,,,,,,,,,,,,,,,,,,,,,,,,,,,,,,,,,,,,,,,,,,,,,,,,,,,,,,,,,,,,,,,,,,,,,,,,,,,,,,,,,,,,,,,,,,,,,,,,,,,,,,,,,,,,,,,,,,,,,,,,,,,,,,,,,,,,,,,,,,,,,,,,,,,,,,,,,,,
0,82,82,10,1,,56a5684481a8ca000d3e544f,62c53a22f93e51d4ae53c7c3,2022-07-06_09h31.03.505,Colour_Asymmetry_Pilot,2022.1.3,Win32,59.8372427,62c50e9c1127f2cd403a315f,,,,,,,,,,,,,,,,,,,,,,,,,,,,,,,,,,,,,,,,,,,,,,,,,,,,,,,,,,,,,,,,,,,,,,,,,,,,,,,,,,,,,,,,,,,,,,,,,,,,,,,,,,,,,,,,,,,,,,,,,,,,,,,,,,,,,,,,,,,,,,,,,,,,,,,,,,,,,,,,,,,
0,83,83,71,1,,56a5684481a8ca000d3e544f,62c53a22f93e51d4ae53c7c3,2022-07-06_09h31.03.505,Colour_Asymmetry_Pilot,2022.1.3,Win32,59.8372427,62c50e9c1127f2cd403a315f,,,,,,,,,,,,,,,,,,,,,,,,,,,,,,,,,,,,,,,,,,,,,,,,,,,,,,,,,,,,,,,,,,,,,,,,,,,,,,,,,,,,,,,,,,,,,,,,,,,,,,,,,,,,,,,,,,,,,,,,,,,,,,,,,,,,,,,,,,,,,,,,,,,,,,,,,,,,,,,,,,,
0,84,84,40,1,,56a5684481a8ca000d3e544f,62c53a22f93e51d4ae53c7c3,2022-07-06_09h31.03.505,Colour_Asymmetry_Pilot,2022.1.3,Win32,59.8372427,62c50e9c1127f2cd403a315f,,,,,,,,,,,,,,,,,,,,,,,,,,,,,,,,,,,,,,,,,,,,,,,,,,,,,,,,,,,,,,,,,,,,,,,,,,,,,,,,,,,,,,,,,,,,,,,,,,,,,,,,,,,,,,,,,,,,,,,,,,,,,,,,,,,,,,,,,,,,,,,,,,,,,,,,,,,,,,,,,,,
0,85,85,74,1,,56a5684481a8ca000d3e544f,62c53a22f93e51d4ae53c7c3,2022-07-06_09h31.03.505,Colour_Asymmetry_Pilot,2022.1.3,Win32,59.8372427,62c50e9c1127f2cd403a315f,,,,,,,,,,,,,,,,,,,,,,,,,,,,,,,,,,,,,,,,,,,,,,,,,,,,,,,,,,,,,,,,,,,,,,,,,,,,,,,,,,,,,,,,,,,,,,,,,,,,,,,,,,,,,,,,,,,,,,,,,,,,,,,,,,,,,,,,,,,,,,,,,,,,,,,,,,,,,,,,,,,
0,86,86,41,1,,56a5684481a8ca000d3e544f,62c53a22f93e51d4ae53c7c3,2022-07-06_09h31.03.505,Colour_Asymmetry_Pilot,2022.1.3,Win32,59.8372427,62c50e9c1127f2cd403a315f,,,,,,,,,,,,,,,,,,,,,,,,,,,,,,,,,,,,,,,,,,,,,,,,,,,,,,,,,,,,,,,,,,,,,,,,,,,,,,,,,,,,,,,,,,,,,,,,,,,,,,,,,,,,,,,,,,,,,,,,,,,,,,,,,,,,,,,,,,,,,,,,,,,,,,,,,,,,,,,,,,,
0,87,87,89,1,,56a5684481a8ca000d3e544f,62c53a22f93e51d4ae53c7c3,2022-07-06_09h31.03.505,Colour_Asymmetry_Pilot,2022.1.3,Win32,59.8372427,62c50e9c1127f2cd403a315f,,,,,,,,,,,,,,,,,,,,,,,,,,,,,,,,,,,,,,,,,,,,,,,,,,,,,,,,,,,,,,,,,,,,,,,,,,,,,,,,,,,,,,,,,,,,,,,,,,,,,,,,,,,,,,,,,,,,,,,,,,,,,,,,,,,,,,,,,,,,,,,,,,,,,,,,,,,,,,,,,,,
0,88,88,68,1,,56a5684481a8ca000d3e544f,62c53a22f93e51d4ae53c7c3,2022-07-06_09h31.03.505,Colour_Asymmetry_Pilot,2022.1.3,Win32,59.8372427,62c50e9c1127f2cd403a315f,,,,,,,,,,,,,,,,,,,,,,,,,,,,,,,,,,,,,,,,,,,,,,,,,,,,,,,,,,,,,,,,,,,,,,,,,,,,,,,,,,,,,,,,,,,,,,,,,,,,,,,,,,,,,,,,,,,,,,,,,,,,,,,,,,,,,,,,,,,,,,,,,,,,,,,,,,,,,,,,,,,
0,89,89,9,1,,56a5684481a8ca000d3e544f,62c53a22f93e51d4ae53c7c3,2022-07-06_09h31.03.505,Colour_Asymmetry_Pilot,2022.1.3,Win32,59.8372427,62c50e9c1127f2cd403a315f,,,,,,,,,,,,,,,,,,,,,,,,,,,,,,,,,,,,,,,,,,,,,,,,,,,,,,,,,,,,,,,,,,,,,,,,,,,,,,,,,,,,,,,,,,,,,,,,,,,,,,,,,,,,,,,,,,,,,,,,,,,,,,,,,,,,,,,,,,,,,,,,,,,,,,,,,,,,,,,,,,,
0,90,90,46,1,,56a5684481a8ca000d3e544f,62c53a22f93e51d4ae53c7c3,2022-07-06_09h31.03.505,Colour_Asymmetry_Pilot,2022.1.3,Win32,59.8372427,62c50e9c1127f2cd403a315f,,,,,,,,,,,,,,,,,,,,,,,,,,,,,,,,,,,,,,,,,,,,,,,,,,,,,,,,,,,,,,,,,,,,,,,,,,,,,,,,,,,,,,,,,,,,,,,,,,,,,,,,,,,,,,,,,,,,,,,,,,,,,,,,,,,,,,,,,,,,,,,,,,,,,,,,,,,,,,,,,,,
0,91,91,4,1,,56a5684481a8ca000d3e544f,62c53a22f93e51d4ae53c7c3,2022-07-06_09h31.03.505,Colour_Asymmetry_Pilot,2022.1.3,Win32,59.8372427,62c50e9c1127f2cd403a315f,,,,,,,,,,,,,,,,,,,,,,,,,,,,,,,,,,,,,,,,,,,,,,,,,,,,,,,,,,,,,,,,,,,,,,,,,,,,,,,,,,,,,,,,,,,,,,,,,,,,,,,,,,,,,,,,,,,,,,,,,,,,,,,,,,,,,,,,,,,,,,,,,,,,,,,,,,,,,,,,,,,
0,92,92,77,1,,56a5684481a8ca000d3e544f,62c53a22f93e51d4ae53c7c3,2022-07-06_09h31.03.505,Colour_Asymmetry_Pilot,2022.1.3,Win32,59.8372427,62c50e9c1127f2cd403a315f,,,,,,,,,,,,,,,,,,,,,,,,,,,,,,,,,,,,,,,,,,,,,,,,,,,,,,,,,,,,,,,,,,,,,,,,,,,,,,,,,,,,,,,,,,,,,,,,,,,,,,,,,,,,,,,,,,,,,,,,,,,,,,,,,,,,,,,,,,,,,,,,,,,,,,,,,,,,,,,,,,,
,,,,,,56a5684481a8ca000d3e544f,62c53a22f93e51d4ae53c7c3,2022-07-06_09h31.03.505,Colour_Asymmetry_Pilot,2022.1.3,Win32,59.8372427,62c50e9c1127f2cd403a315f,0,0,0,112,1,onetwo,,,,,,,,,,,,,,,,,,,,,,,,,,,,,,,,,,,,,,,,,,,,,,,,,,,,,,,,,,,,,,,,,,,,,,,,,,,,,,,,,,,,,,,,,,,,,,,,,,,,,,,,,,,,,,,,,,,,,,,,,,,,,,,,,,,,,,,,,,,,,,,,,,,,,,,,,,,,,
,,,,,,56a5684481a8ca000d3e544f,62c53a22f93e51d4ae53c7c3,2022-07-06_09h31.03.505,Colour_Asymmetry_Pilot,2022.1.3,Win32,59.8372427,62c50e9c1127f2cd403a315f,0,1,1,18,1,twoone,,,,,,,,,,,,,,,,,,,,,,,,,,,,,,,,,,,,,,,,,,,,,,,,,,,,,,,,,,,,,,,,,,,,,,,,,,,,,,,,,,,,,,,,,,,,,,,,,,,,,,,,,,,,,,,,,,,,,,,,,,,,,,,,,,,,,,,,,,,,,,,,,,,,,,,,,,,,,
,,,,,,56a5684481a8ca000d3e544f,62c53a22f93e51d4ae53c7c3,2022-07-06_09h31.03.505,Colour_Asymmetry_Pilot,2022.1.3,Win32,59.8372427,62c50e9c1127f2cd403a315f,0,2,2,161,1,onethree,,,,,,,,,,,,,,,,,,,,,,,,,,,,,,,,,,,,,,,,,,,,,,,,,,,,,,,,,,,,,,,,,,,,,,,,,,,,,,,,,,,,,,,,,,,,,,,,,,,,,,,,,,,,,,,,,,,,,,,,,,,,,,,,,,,,,,,,,,,,,,,,,,,,,,,,,,,,,
,,,,,,56a5684481a8ca000d3e544f,62c53a22f93e51d4ae53c7c3,2022-07-06_09h31.03.505,Colour_Asymmetry_Pilot,2022.1.3,Win32,59.8372427,62c50e9c1127f2cd403a315f,0,3,3,98,1,twoone,,,,,,,,,,,,,,,,,,,,,,,,,,,,,,,,,,,,,,,,,,,,,,,,,,,,,,,,,,,,,,,,,,,,,,,,,,,,,,,,,,,,,,,,,,,,,,,,,,,,,,,,,,,,,,,,,,,,,,,,,,,,,,,,,,,,,,,,,,,,,,,,,,,,,,,,,,,,,
,,,,,,56a5684481a8ca000d3e544f,62c53a22f93e51d4ae53c7c3,2022-07-06_09h31.03.505,Colour_Asymmetry_Pilot,2022.1.3,Win32,59.8372427,62c50e9c1127f2cd403a315f,0,4,4,128,1,onetwo,,,,,,,,,,,,,,,,,,,,,,,,,,,,,,,,,,,,,,,,,,,,,,,,,,,,,,,,,,,,,,,,,,,,,,,,,,,,,,,,,,,,,,,,,,,,,,,,,,,,,,,,,,,,,,,,,,,,,,,,,,,,,,,,,,,,,,,,,,,,,,,,,,,,,,,,,,,,,
,,,,,,56a5684481a8ca000d3e544f,62c53a22f93e51d4ae53c7c3,2022-07-06_09h31.03.505,Colour_Asymmetry_Pilot,2022.1.3,Win32,59.8372427,62c50e9c1127f2cd403a315f,0,5,5,69,1,threefour,,,,,,,,,,,,,,,,,,,,,,,,,,,,,,,,,,,,,,,,,,,,,,,,,,,,,,,,,,,,,,,,,,,,,,,,,,,,,,,,,,,,,,,,,,,,,,,,,,,,,,,,,,,,,,,,,,,,,,,,,,,,,,,,,,,,,,,,,,,,,,,,,,,,,,,,,,,,,
,,,,,,56a5684481a8ca000d3e544f,62c53a22f93e51d4ae53c7c3,2022-07-06_09h31.03.505,Colour_Asymmetry_Pilot,2022.1.3,Win32,59.8372427,62c50e9c1127f2cd403a315f,0,6,6,35,1,twofour,,,,,,,,,,,,,,,,,,,,,,,,,,,,,,,,,,,,,,,,,,,,,,,,,,,,,,,,,,,,,,,,,,,,,,,,,,,,,,,,,,,,,,,,,,,,,,,,,,,,,,,,,,,,,,,,,,,,,,,,,,,,,,,,,,,,,,,,,,,,,,,,,,,,,,,,,,,,,
,,,,,,56a5684481a8ca000d3e544f,62c53a22f93e51d4ae53c7c3,2022-07-06_09h31.03.505,Colour_Asymmetry_Pilot,2022.1.3,Win32,59.8372427,62c50e9c1127f2cd403a315f,0,7,7,76,1,threeone,,,,,,,,,,,,,,,,,,,,,,,,,,,,,,,,,,,,,,,,,,,,,,,,,,,,,,,,,,,,,,,,,,,,,,,,,,,,,,,,,,,,,,,,,,,,,,,,,,,,,,,,,,,,,,,,,,,,,,,,,,,,,,,,,,,,,,,,,,,,,,,,,,,,,,,,,,,,,
,,,,,,56a5684481a8ca000d3e544f,62c53a22f93e51d4ae53c7c3,2022-07-06_09h31.03.505,Colour_Asymmetry_Pilot,2022.1.3,Win32,59.8372427,62c50e9c1127f2cd403a315f,0,8,8,36,1,threeone,,,,,,,,,,,,,,,,,,,,,,,,,,,,,,,,,,,,,,,,,,,,,,,,,,,,,,,,,,,,,,,,,,,,,,,,,,,,,,,,,,,,,,,,,,,,,,,,,,,,,,,,,,,,,,,,,,,,,,,,,,,,,,,,,,,,,,,,,,,,,,,,,,,,,,,,,,,,,
,,,,,,56a5684481a8ca000d3e544f,62c53a22f93e51d4ae53c7c3,2022-07-06_09h31.03.505,Colour_Asymmetry_Pilot,2022.1.3,Win32,59.8372427,62c50e9c1127f2cd403a315f,0,9,9,55,1,fourthree,,,,,,,,,,,,,,,,,,,,,,,,,,,,,,,,,,,,,,,,,,,,,,,,,,,,,,,,,,,,,,,,,,,,,,,,,,,,,,,,,,,,,,,,,,,,,,,,,,,,,,,,,,,,,,,,,,,,,,,,,,,,,,,,,,,,,,,,,,,,,,,,,,,,,,,,,,,,,
,,,,,,56a5684481a8ca000d3e544f,62c53a22f93e51d4ae53c7c3,2022-07-06_09h31.03.505,Colour_Asymmetry_Pilot,2022.1.3,Win32,59.8372427,62c50e9c1127f2cd403a315f,0,10,10,64,1,onetwo,,,,,,,,,,,,,,,,,,,,,,,,,,,,,,,,,,,,,,,,,,,,,,,,,,,,,,,,,,,,,,,,,,,,,,,,,,,,,,,,,,,,,,,,,,,,,,,,,,,,,,,,,,,,,,,,,,,,,,,,,,,,,,,,,,,,,,,,,,,,,,,,,,,,,,,,,,,,,
,,,,,,56a5684481a8ca000d3e544f,62c53a22f93e51d4ae53c7c3,2022-07-06_09h31.03.505,Colour_Asymmetry_Pilot,2022.1.3,Win32,59.8372427,62c50e9c1127f2cd403a315f,0,11,11,148,1,threeone,,,,,,,,,,,,,,,,,,,,,,,,,,,,,,,,,,,,,,,,,,,,,,,,,,,,,,,,,,,,,,,,,,,,,,,,,,,,,,,,,,,,,,,,,,,,,,,,,,,,,,,,,,,,,,,,,,,,,,,,,,,,,,,,,,,,,,,,,,,,,,,,,,,,,,,,,,,,,
,,,,,,56a5684481a8ca000d3e544f,62c53a22f93e51d4ae53c7c3,2022-07-06_09h31.03.505,Colour_Asymmetry_Pilot,2022.1.3,Win32,59.8372427,62c50e9c1127f2cd403a315f,0,12,12,91,1,twofour,,,,,,,,,,,,,,,,,,,,,,,,,,,,,,,,,,,,,,,,,,,,,,,,,,,,,,,,,,,,,,,,,,,,,,,,,,,,,,,,,,,,,,,,,,,,,,,,,,,,,,,,,,,,,,,,,,,,,,,,,,,,,,,,,,,,,,,,,,,,,,,,,,,,,,,,,,,,,
,,,,,,56a5684481a8ca000d3e544f,62c53a22f93e51d4ae53c7c3,2022-07-06_09h31.03.505,Colour_Asymmetry_Pilot,2022.1.3,Win32,59.8372427,62c50e9c1127f2cd403a315f,0,13,13,40,1,onetwo,,,,,,,,,,,,,,,,,,,,,,,,,,,,,,,,,,,,,,,,,,,,,,,,,,,,,,,,,,,,,,,,,,,,,,,,,,,,,,,,,,,,,,,,,,,,,,,,,,,,,,,,,,,,,,,,,,,,,,,,,,,,,,,,,,,,,,,,,,,,,,,,,,,,,,,,,,,,,
,,,,,,56a5684481a8ca000d3e544f,62c53a22f93e51d4ae53c7c3,2022-07-06_09h31.03.505,Colour_Asymmetry_Pilot,2022.1.3,Win32,59.8372427,62c50e9c1127f2cd403a315f,0,14,14,156,1,threeone,,,,,,,,,,,,,,,,,,,,,,,,,,,,,,,,,,,,,,,,,,,,,,,,,,,,,,,,,,,,,,,,,,,,,,,,,,,,,,,,,,,,,,,,,,,,,,,,,,,,,,,,,,,,,,,,,,,,,,,,,,,,,,,,,,,,,,,,,,,,,,,,,,,,,,,,,,,,,
,,,,,,56a5684481a8ca000d3e544f,62c53a22f93e51d4ae53c7c3,2022-07-06_09h31.03.505,Colour_Asymmetry_Pilot,2022.1.3,Win32,59.8372427,62c50e9c1127f2cd403a315f,0,15,15,97,1,onethree,,,,,,,,,,,,,,,,,,,,,,,,,,,,,,,,,,,,,,,,,,,,,,,,,,,,,,,,,,,,,,,,,,,,,,,,,,,,,,,,,,,,,,,,,,,,,,,,,,,,,,,,,,,,,,,,,,,,,,,,,,,,,,,,,,,,,,,,,,,,,,,,,,,,,,,,,,,,,
,,,,,,56a5684481a8ca000d3e544f,62c53a22f93e51d4ae53c7c3,2022-07-06_09h31.03.505,Colour_Asymmetry_Pilot,2022.1.3,Win32,59.8372427,62c50e9c1127f2cd403a315f,0,16,16,11,1,twofour,,,,,,,,,,,,,,,,,,,,,,,,,,,,,,,,,,,,,,,,,,,,,,,,,,,,,,,,,,,,,,,,,,,,,,,,,,,,,,,,,,,,,,,,,,,,,,,,,,,,,,,,,,,,,,,,,,,,,,,,,,,,,,,,,,,,,,,,,,,,,,,,,,,,,,,,,,,,,
,,,,,,56a5684481a8ca000d3e544f,62c53a22f93e51d4ae53c7c3,2022-07-06_09h31.03.505,Colour_Asymmetry_Pilot,2022.1.3,Win32,59.8372427,62c50e9c1127f2cd403a315f,0,17,17,136,1,onetwo,,,,,,,,,,,,,,,,,,,,,,,,,,,,,,,,,,,,,,,,,,,,,,,,,,,,,,,,,,,,,,,,,,,,,,,,,,,,,,,,,,,,,,,,,,,,,,,,,,,,,,,,,,,,,,,,,,,,,,,,,,,,,,,,,,,,,,,,,,,,,,,,,,,,,,,,,,,,,
,,,,,,56a5684481a8ca000d3e544f,62c53a22f93e51d4ae53c7c3,2022-07-06_09h31.03.505,Colour_Asymmetry_Pilot,2022.1.3,Win32,59.8372427,62c50e9c1127f2cd403a315f,0,18,18,49,1,onethree,,,,,,,,,,,,,,,,,,,,,,,,,,,,,,,,,,,,,,,,,,,,,,,,,,,,,,,,,,,,,,,,,,,,,,,,,,,,,,,,,,,,,,,,,,,,,,,,,,,,,,,,,,,,,,,,,,,,,,,,,,,,,,,,,,,,,,,,,,,,,,,,,,,,,,,,,,,,,
,,,,,,56a5684481a8ca000d3e544f,62c53a22f93e51d4ae53c7c3,2022-07-06_09h31.03.505,Colour_Asymmetry_Pilot,2022.1.3,Win32,59.8372427,62c50e9c1127f2cd403a315f,0,19,19,125,1,threefour,,,,,,,,,,,,,,,,,,,,,,,,,,,,,,,,,,,,,,,,,,,,,,,,,,,,,,,,,,,,,,,,,,,,,,,,,,,,,,,,,,,,,,,,,,,,,,,,,,,,,,,,,,,,,,,,,,,,,,,,,,,,,,,,,,,,,,,,,,,,,,,,,,,,,,,,,,,,,
,,,,,,56a5684481a8ca000d3e544f,62c53a22f93e51d4ae53c7c3,2022-07-06_09h31.03.505,Colour_Asymmetry_Pilot,2022.1.3,Win32,59.8372427,62c50e9c1127f2cd403a315f,0,20,20,114,1,twoone,,,,,,,,,,,,,,,,,,,,,,,,,,,,,,,,,,,,,,,,,,,,,,,,,,,,,,,,,,,,,,,,,,,,,,,,,,,,,,,,,,,,,,,,,,,,,,,,,,,,,,,,,,,,,,,,,,,,,,,,,,,,,,,,,,,,,,,,,,,,,,,,,,,,,,,,,,,,,
,,,,,,56a5684481a8ca000d3e544f,62c53a22f93e51d4ae53c7c3,2022-07-06_09h31.03.505,Colour_Asymmetry_Pilot,2022.1.3,Win32,59.8372427,62c50e9c1127f2cd403a315f,0,21,21,8,1,onetwo,,,,,,,,,,,,,,,,,,,,,,,,,,,,,,,,,,,,,,,,,,,,,,,,,,,,,,,,,,,,,,,,,,,,,,,,,,,,,,,,,,,,,,,,,,,,,,,,,,,,,,,,,,,,,,,,,,,,,,,,,,,,,,,,,,,,,,,,,,,,,,,,,,,,,,,,,,,,,
,,,,,,56a5684481a8ca000d3e544f,62c53a22f93e51d4ae53c7c3,2022-07-06_09h31.03.505,Colour_Asymmetry_Pilot,2022.1.3,Win32,59.8372427,62c50e9c1127f2cd403a315f,0,22,22,117,1,threefour,,,,,,,,,,,,,,,,,,,,,,,,,,,,,,,,,,,,,,,,,,,,,,,,,,,,,,,,,,,,,,,,,,,,,,,,,,,,,,,,,,,,,,,,,,,,,,,,,,,,,,,,,,,,,,,,,,,,,,,,,,,,,,,,,,,,,,,,,,,,,,,,,,,,,,,,,,,,,
,,,,,,56a5684481a8ca000d3e544f,62c53a22f93e51d4ae53c7c3,2022-07-06_09h31.03.505,Colour_Asymmetry_Pilot,2022.1.3,Win32,59.8372427,62c50e9c1127f2cd403a315f,0,23,23,116,1,threeone,,,,,,,,,,,,,,,,,,,,,,,,,,,,,,,,,,,,,,,,,,,,,,,,,,,,,,,,,,,,,,,,,,,,,,,,,,,,,,,,,,,,,,,,,,,,,,,,,,,,,,,,,,,,,,,,,,,,,,,,,,,,,,,,,,,,,,,,,,,,,,,,,,,,,,,,,,,,,
,,,,,,56a5684481a8ca000d3e544f,62c53a22f93e51d4ae53c7c3,2022-07-06_09h31.03.505,Colour_Asymmetry_Pilot,2022.1.3,Win32,59.8372427,62c50e9c1127f2cd403a315f,0,24,24,13,1,threefour,,,,,,,,,,,,,,,,,,,,,,,,,,,,,,,,,,,,,,,,,,,,,,,,,,,,,,,,,,,,,,,,,,,,,,,,,,,,,,,,,,,,,,,,,,,,,,,,,,,,,,,,,,,,,,,,,,,,,,,,,,,,,,,,,,,,,,,,,,,,,,,,,,,,,,,,,,,,,
,,,,,,56a5684481a8ca000d3e544f,62c53a22f93e51d4ae53c7c3,2022-07-06_09h31.03.505,Colour_Asymmetry_Pilot,2022.1.3,Win32,59.8372427,62c50e9c1127f2cd403a315f,0,25,25,108,1,threeone,,,,,,,,,,,,,,,,,,,,,,,,,,,,,,,,,,,,,,,,,,,,,,,,,,,,,,,,,,,,,,,,,,,,,,,,,,,,,,,,,,,,,,,,,,,,,,,,,,,,,,,,,,,,,,,,,,,,,,,,,,,,,,,,,,,,,,,,,,,,,,,,,,,,,,,,,,,,,
,,,,,,56a5684481a8ca000d3e544f,62c53a22f93e51d4ae53c7c3,2022-07-06_09h31.03.505,Colour_Asymmetry_Pilot,2022.1.3,Win32,59.8372427,62c50e9c1127f2cd403a315f,0,26,26,79,1,fourthree,,,,,,,,,,,,,,,,,,,,,,,,,,,,,,,,,,,,,,,,,,,,,,,,,,,,,,,,,,,,,,,,,,,,,,,,,,,,,,,,,,,,,,,,,,,,,,,,,,,,,,,,,,,,,,,,,,,,,,,,,,,,,,,,,,,,,,,,,,,,,,,,,,,,,,,,,,,,,
,,,,,,56a5684481a8ca000d3e544f,62c53a22f93e51d4ae53c7c3,2022-07-06_09h31.03.505,Colour_Asymmetry_Pilot,2022.1.3,Win32,59.8372427,62c50e9c1127f2cd403a315f,0,27,27,124,1,threeone,,,,,,,,,,,,,,,,,,,,,,,,,,,,,,,,,,,,,,,,,,,,,,,,,,,,,,,,,,,,,,,,,,,,,,,,,,,,,,,,,,,,,,,,,,,,,,,,,,,,,,,,,,,,,,,,,,,,,,,,,,,,,,,,,,,,,,,,,,,,,,,,,,,,,,,,,,,,,
,,,,,,56a5684481a8ca000d3e544f,62c53a22f93e51d4ae53c7c3,2022-07-06_09h31.03.505,Colour_Asymmetry_Pilot,2022.1.3,Win32,59.8372427,62c50e9c1127f2cd403a315f,0,28,28,84,1,threeone,,,,,,,,,,,,,,,,,,,,,,,,,,,,,,,,,,,,,,,,,,,,,,,,,,,,,,,,,,,,,,,,,,,,,,,,,,,,,,,,,,,,,,,,,,,,,,,,,,,,,,,,,,,,,,,,,,,,,,,,,,,,,,,,,,,,,,,,,,,,,,,,,,,,,,,,,,,,,
,,,,,,56a5684481a8ca000d3e544f,62c53a22f93e51d4ae53c7c3,2022-07-06_09h31.03.505,Colour_Asymmetry_Pilot,2022.1.3,Win32,59.8372427,62c50e9c1127f2cd403a315f,0,29,29,157,1,threefour,,,,,,,,,,,,,,,,,,,,,,,,,,,,,,,,,,,,,,,,,,,,,,,,,,,,,,,,,,,,,,,,,,,,,,,,,,,,,,,,,,,,,,,,,,,,,,,,,,,,,,,,,,,,,,,,,,,,,,,,,,,,,,,,,,,,,,,,,,,,,,,,,,,,,,,,,,,,,
,,,,,,56a5684481a8ca000d3e544f,62c53a22f93e51d4ae53c7c3,2022-07-06_09h31.03.505,Colour_Asymmetry_Pilot,2022.1.3,Win32,59.8372427,62c50e9c1127f2cd403a315f,0,30,30,94,1,fourtwo,,,,,,,,,,,,,,,,,,,,,,,,,,,,,,,,,,,,,,,,,,,,,,,,,,,,,,,,,,,,,,,,,,,,,,,,,,,,,,,,,,,,,,,,,,,,,,,,,,,,,,,,,,,,,,,,,,,,,,,,,,,,,,,,,,,,,,,,,,,,,,,,,,,,,,,,,,,,,
,,,,,,56a5684481a8ca000d3e544f,62c53a22f93e51d4ae53c7c3,2022-07-06_09h31.03.505,Colour_Asymmetry_Pilot,2022.1.3,Win32,59.8372427,62c50e9c1127f2cd403a315f,0,31,31,6,1,fourtwo,,,,,,,,,,,,,,,,,,,,,,,,,,,,,,,,,,,,,,,,,,,,,,,,,,,,,,,,,,,,,,,,,,,,,,,,,,,,,,,,,,,,,,,,,,,,,,,,,,,,,,,,,,,,,,,,,,,,,,,,,,,,,,,,,,,,,,,,,,,,,,,,,,,,,,,,,,,,,
,,,,,,56a5684481a8ca000d3e544f,62c53a22f93e51d4ae53c7c3,2022-07-06_09h31.03.505,Colour_Asymmetry_Pilot,2022.1.3,Win32,59.8372427,62c50e9c1127f2cd403a315f,0,32,32,141,1,threefour,,,,,,,,,,,,,,,,,,,,,,,,,,,,,,,,,,,,,,,,,,,,,,,,,,,,,,,,,,,,,,,,,,,,,,,,,,,,,,,,,,,,,,,,,,,,,,,,,,,,,,,,,,,,,,,,,,,,,,,,,,,,,,,,,,,,,,,,,,,,,,,,,,,,,,,,,,,,,
,,,,,,56a5684481a8ca000d3e544f,62c53a22f93e51d4ae53c7c3,2022-07-06_09h31.03.505,Colour_Asymmetry_Pilot,2022.1.3,Win32,59.8372427,62c50e9c1127f2cd403a315f,0,33,33,100,1,threeone,,,,,,,,,,,,,,,,,,,,,,,,,,,,,,,,,,,,,,,,,,,,,,,,,,,,,,,,,,,,,,,,,,,,,,,,,,,,,,,,,,,,,,,,,,,,,,,,,,,,,,,,,,,,,,,,,,,,,,,,,,,,,,,,,,,,,,,,,,,,,,,,,,,,,,,,,,,,,
,,,,,,56a5684481a8ca000d3e544f,62c53a22f93e51d4ae53c7c3,2022-07-06_09h31.03.505,Colour_Asymmetry_Pilot,2022.1.3,Win32,59.8372427,62c50e9c1127f2cd403a315f,0,34,34,61,1,threefour,,,,,,,,,,,,,,,,,,,,,,,,,,,,,,,,,,,,,,,,,,,,,,,,,,,,,,,,,,,,,,,,,,,,,,,,,,,,,,,,,,,,,,,,,,,,,,,,,,,,,,,,,,,,,,,,,,,,,,,,,,,,,,,,,,,,,,,,,,,,,,,,,,,,,,,,,,,,,
,,,,,,56a5684481a8ca000d3e544f,62c53a22f93e51d4ae53c7c3,2022-07-06_09h31.03.505,Colour_Asymmetry_Pilot,2022.1.3,Win32,59.8372427,62c50e9c1127f2cd403a315f,0,35,35,103,1,fourthree,,,,,,,,,,,,,,,,,,,,,,,,,,,,,,,,,,,,,,,,,,,,,,,,,,,,,,,,,,,,,,,,,,,,,,,,,,,,,,,,,,,,,,,,,,,,,,,,,,,,,,,,,,,,,,,,,,,,,,,,,,,,,,,,,,,,,,,,,,,,,,,,,,,,,,,,,,,,,
,,,,,,56a5684481a8ca000d3e544f,62c53a22f93e51d4ae53c7c3,2022-07-06_09h31.03.505,Colour_Asymmetry_Pilot,2022.1.3,Win32,59.8372427,62c50e9c1127f2cd403a315f,0,36,36,42,1,twoone,,,,,,,,,,,,,,,,,,,,,,,,,,,,,,,,,,,,,,,,,,,,,,,,,,,,,,,,,,,,,,,,,,,,,,,,,,,,,,,,,,,,,,,,,,,,,,,,,,,,,,,,,,,,,,,,,,,,,,,,,,,,,,,,,,,,,,,,,,,,,,,,,,,,,,,,,,,,,
,,,,,,56a5684481a8ca000d3e544f,62c53a22f93e51d4ae53c7c3,2022-07-06_09h31.03.505,Colour_Asymmetry_Pilot,2022.1.3,Win32,59.8372427,62c50e9c1127f2cd403a315f,0,37,37,71,1,fourthree,,,,,,,,,,,,,,,,,,,,,,,,,,,,,,,,,,,,,,,,,,,,,,,,,,,,,,,,,,,,,,,,,,,,,,,,,,,,,,,,,,,,,,,,,,,,,,,,,,,,,,,,,,,,,,,,,,,,,,,,,,,,,,,,,,,,,,,,,,,,,,,,,,,,,,,,,,,,,
,,,,,,56a5684481a8ca000d3e544f,62c53a22f93e51d4ae53c7c3,2022-07-06_09h31.03.505,Colour_Asymmetry_Pilot,2022.1.3,Win32,59.8372427,62c50e9c1127f2cd403a315f,0,38,38,129,1,onethree,,,,,,,,,,,,,,,,,,,,,,,,,,,,,,,,,,,,,,,,,,,,,,,,,,,,,,,,,,,,,,,,,,,,,,,,,,,,,,,,,,,,,,,,,,,,,,,,,,,,,,,,,,,,,,,,,,,,,,,,,,,,,,,,,,,,,,,,,,,,,,,,,,,,,,,,,,,,,
,,,,,,56a5684481a8ca000d3e544f,62c53a22f93e51d4ae53c7c3,2022-07-06_09h31.03.505,Colour_Asymmetry_Pilot,2022.1.3,Win32,59.8372427,62c50e9c1127f2cd403a315f,0,39,39,10,1,twoone,,,,,,,,,,,,,,,,,,,,,,,,,,,,,,,,,,,,,,,,,,,,,,,,,,,,,,,,,,,,,,,,,,,,,,,,,,,,,,,,,,,,,,,,,,,,,,,,,,,,,,,,,,,,,,,,,,,,,,,,,,,,,,,,,,,,,,,,,,,,,,,,,,,,,,,,,,,,,
,,,,,,56a5684481a8ca000d3e544f,62c53a22f93e51d4ae53c7c3,2022-07-06_09h31.03.505,Colour_Asymmetry_Pilot,2022.1.3,Win32,59.8372427,62c50e9c1127f2cd403a315f,0,40,40,142,1,fourtwo,,,,,,,,,,,,,,,,,,,,,,,,,,,,,,,,,,,,,,,,,,,,,,,,,,,,,,,,,,,,,,,,,,,,,,,,,,,,,,,,,,,,,,,,,,,,,,,,,,,,,,,,,,,,,,,,,,,,,,,,,,,,,,,,,,,,,,,,,,,,,,,,,,,,,,,,,,,,,
,,,,,,56a5684481a8ca000d3e544f,62c53a22f93e51d4ae53c7c3,2022-07-06_09h31.03.505,Colour_Asymmetry_Pilot,2022.1.3,Win32,59.8372427,62c50e9c1127f2cd403a315f,0,41,41,75,1,twofour,,,,,,,,,,,,,,,,,,,,,,,,,,,,,,,,,,,,,,,,,,,,,,,,,,,,,,,,,,,,,,,,,,,,,,,,,,,,,,,,,,,,,,,,,,,,,,,,,,,,,,,,,,,,,,,,,,,,,,,,,,,,,,,,,,,,,,,,,,,,,,,,,,,,,,,,,,,,,
,,,,,,56a5684481a8ca000d3e544f,62c53a22f93e51d4ae53c7c3,2022-07-06_09h31.03.505,Colour_Asymmetry_Pilot,2022.1.3,Win32,59.8372427,62c50e9c1127f2cd403a315f,0,42,42,62,1,fourtwo,,,,,,,,,,,,,,,,,,,,,,,,,,,,,,,,,,,,,,,,,,,,,,,,,,,,,,,,,,,,,,,,,,,,,,,,,,,,,,,,,,,,,,,,,,,,,,,,,,,,,,,,,,,,,,,,,,,,,,,,,,,,,,,,,,,,,,,,,,,,,,,,,,,,,,,,,,,,,
,,,,,,56a5684481a8ca000d3e544f,62c53a22f93e51d4ae53c7c3,2022-07-06_09h31.03.505,Colour_Asymmetry_Pilot,2022.1.3,Win32,59.8372427,62c50e9c1127f2cd403a315f,0,43,43,58,1,twoone,,,,,,,,,,,,,,,,,,,,,,,,,,,,,,,,,,,,,,,,,,,,,,,,,,,,,,,,,,,,,,,,,,,,,,,,,,,,,,,,,,,,,,,,,,,,,,,,,,,,,,,,,,,,,,,,,,,,,,,,,,,,,,,,,,,,,,,,,,,,,,,,,,,,,,,,,,,,,
,,,,,,56a5684481a8ca000d3e544f,62c53a22f93e51d4ae53c7c3,2022-07-06_09h31.03.505,Colour_Asymmetry_Pilot,2022.1.3,Win32,59.8372427,62c50e9c1127f2cd403a315f,0,44,44,17,1,onethree,,,,,,,,,,,,,,,,,,,,,,,,,,,,,,,,,,,,,,,,,,,,,,,,,,,,,,,,,,,,,,,,,,,,,,,,,,,,,,,,,,,,,,,,,,,,,,,,,,,,,,,,,,,,,,,,,,,,,,,,,,,,,,,,,,,,,,,,,,,,,,,,,,,,,,,,,,,,,
,,,,,,56a5684481a8ca000d3e544f,62c53a22f93e51d4ae53c7c3,2022-07-06_09h31.03.505,Colour_Asymmetry_Pilot,2022.1.3,Win32,59.8372427,62c50e9c1127f2cd403a315f,0,45,45,118,1,fourtwo,,,,,,,,,,,,,,,,,,,,,,,,,,,,,,,,,,,,,,,,,,,,,,,,,,,,,,,,,,,,,,,,,,,,,,,,,,,,,,,,,,,,,,,,,,,,,,,,,,,,,,,,,,,,,,,,,,,,,,,,,,,,,,,,,,,,,,,,,,,,,,,,,,,,,,,,,,,,,
,,,,,,56a5684481a8ca000d3e544f,62c53a22f93e51d4ae53c7c3,2022-07-06_09h31.03.505,Colour_Asymmetry_Pilot,2022.1.3,Win32,59.8372427,62c50e9c1127f2cd403a315f,0,46,46,158,1,fourtwo,,,,,,,,,,,,,,,,,,,,,,,,,,,,,,,,,,,,,,,,,,,,,,,,,,,,,,,,,,,,,,,,,,,,,,,,,,,,,,,,,,,,,,,,,,,,,,,,,,,,,,,,,,,,,,,,,,,,,,,,,,,,,,,,,,,,,,,,,,,,,,,,,,,,,,,,,,,,,
,,,,,,56a5684481a8ca000d3e544f,62c53a22f93e51d4ae53c7c3,2022-07-06_09h31.03.505,Colour_Asymmetry_Pilot,2022.1.3,Win32,59.8372427,62c50e9c1127f2cd403a315f,0,47,47,144,1,onetwo,,,,,,,,,,,,,,,,,,,,,,,,,,,,,,,,,,,,,,,,,,,,,,,,,,,,,,,,,,,,,,,,,,,,,,,,,,,,,,,,,,,,,,,,,,,,,,,,,,,,,,,,,,,,,,,,,,,,,,,,,,,,,,,,,,,,,,,,,,,,,,,,,,,,,,,,,,,,,
,,,,,,56a5684481a8ca000d3e544f,62c53a22f93e51d4ae53c7c3,2022-07-06_09h31.03.505,Colour_Asymmetry_Pilot,2022.1.3,Win32,59.8372427,62c50e9c1127f2cd403a315f,0,48,48,150,1,fourtwo,,,,,,,,,,,,,,,,,,,,,,,,,,,,,,,,,,,,,,,,,,,,,,,,,,,,,,,,,,,,,,,,,,,,,,,,,,,,,,,,,,,,,,,,,,,,,,,,,,,,,,,,,,,,,,,,,,,,,,,,,,,,,,,,,,,,,,,,,,,,,,,,,,,,,,,,,,,,,
,,,,,,56a5684481a8ca000d3e544f,62c53a22f93e51d4ae53c7c3,2022-07-06_09h31.03.505,Colour_Asymmetry_Pilot,2022.1.3,Win32,59.8372427,62c50e9c1127f2cd403a315f,0,49,49,60,1,threeone,,,,,,,,,,,,,,,,,,,,,,,,,,,,,,,,,,,,,,,,,,,,,,,,,,,,,,,,,,,,,,,,,,,,,,,,,,,,,,,,,,,,,,,,,,,,,,,,,,,,,,,,,,,,,,,,,,,,,,,,,,,,,,,,,,,,,,,,,,,,,,,,,,,,,,,,,,,,,
,,,,,,56a5684481a8ca000d3e544f,62c53a22f93e51d4ae53c7c3,2022-07-06_09h31.03.505,Colour_Asymmetry_Pilot,2022.1.3,Win32,59.8372427,62c50e9c1127f2cd403a315f,0,50,50,143,1,fourthree,,,,,,,,,,,,,,,,,,,,,,,,,,,,,,,,,,,,,,,,,,,,,,,,,,,,,,,,,,,,,,,,,,,,,,,,,,,,,,,,,,,,,,,,,,,,,,,,,,,,,,,,,,,,,,,,,,,,,,,,,,,,,,,,,,,,,,,,,,,,,,,,,,,,,,,,,,,,,
,,,,,,56a5684481a8ca000d3e544f,62c53a22f93e51d4ae53c7c3,2022-07-06_09h31.03.505,Colour_Asymmetry_Pilot,2022.1.3,Win32,59.8372427,62c50e9c1127f2cd403a315f,0,51,51,115,1,twofour,,,,,,,,,,,,,,,,,,,,,,,,,,,,,,,,,,,,,,,,,,,,,,,,,,,,,,,,,,,,,,,,,,,,,,,,,,,,,,,,,,,,,,,,,,,,,,,,,,,,,,,,,,,,,,,,,,,,,,,,,,,,,,,,,,,,,,,,,,,,,,,,,,,,,,,,,,,,,
,,,,,,56a5684481a8ca000d3e544f,62c53a22f93e51d4ae53c7c3,2022-07-06_09h31.03.505,Colour_Asymmetry_Pilot,2022.1.3,Win32,59.8372427,62c50e9c1127f2cd403a315f,0,52,52,86,1,fourtwo,,,,,,,,,,,,,,,,,,,,,,,,,,,,,,,,,,,,,,,,,,,,,,,,,,,,,,,,,,,,,,,,,,,,,,,,,,,,,,,,,,,,,,,,,,,,,,,,,,,,,,,,,,,,,,,,,,,,,,,,,,,,,,,,,,,,,,,,,,,,,,,,,,,,,,,,,,,,,
,,,,,,56a5684481a8ca000d3e544f,62c53a22f93e51d4ae53c7c3,2022-07-06_09h31.03.505,Colour_Asymmetry_Pilot,2022.1.3,Win32,59.8372427,62c50e9c1127f2cd403a315f,0,53,53,92,1,threeone,,,,,,,,,,,,,,,,,,,,,,,,,,,,,,,,,,,,,,,,,,,,,,,,,,,,,,,,,,,,,,,,,,,,,,,,,,,,,,,,,,,,,,,,,,,,,,,,,,,,,,,,,,,,,,,,,,,,,,,,,,,,,,,,,,,,,,,,,,,,,,,,,,,,,,,,,,,,,
,,,,,,56a5684481a8ca000d3e544f,62c53a22f93e51d4ae53c7c3,2022-07-06_09h31.03.505,Colour_Asymmetry_Pilot,2022.1.3,Win32,59.8372427,62c50e9c1127f2cd403a315f,0,54,54,26,1,twoone,,,,,,,,,,,,,,,,,,,,,,,,,,,,,,,,,,,,,,,,,,,,,,,,,,,,,,,,,,,,,,,,,,,,,,,,,,,,,,,,,,,,,,,,,,,,,,,,,,,,,,,,,,,,,,,,,,,,,,,,,,,,,,,,,,,,,,,,,,,,,,,,,,,,,,,,,,,,,
,,,,,,56a5684481a8ca000d3e544f,62c53a22f93e51d4ae53c7c3,2022-07-06_09h31.03.505,Colour_Asymmetry_Pilot,2022.1.3,Win32,59.8372427,62c50e9c1127f2cd403a315f,0,55,55,37,1,threefour,,,,,,,,,,,,,,,,,,,,,,,,,,,,,,,,,,,,,,,,,,,,,,,,,,,,,,,,,,,,,,,,,,,,,,,,,,,,,,,,,,,,,,,,,,,,,,,,,,,,,,,,,,,,,,,,,,,,,,,,,,,,,,,,,,,,,,,,,,,,,,,,,,,,,,,,,,,,,
,,,,,,56a5684481a8ca000d3e544f,62c53a22f93e51d4ae53c7c3,2022-07-06_09h31.03.505,Colour_Asymmetry_Pilot,2022.1.3,Win32,59.8372427,62c50e9c1127f2cd403a315f,0,56,56,134,1,fourtwo,,,,,,,,,,,,,,,,,,,,,,,,,,,,,,,,,,,,,,,,,,,,,,,,,,,,,,,,,,,,,,,,,,,,,,,,,,,,,,,,,,,,,,,,,,,,,,,,,,,,,,,,,,,,,,,,,,,,,,,,,,,,,,,,,,,,,,,,,,,,,,,,,,,,,,,,,,,,,
,,,,,,56a5684481a8ca000d3e544f,62c53a22f93e51d4ae53c7c3,2022-07-06_09h31.03.505,Colour_Asymmetry_Pilot,2022.1.3,Win32,59.8372427,62c50e9c1127f2cd403a315f,0,57,57,51,1,twofour,,,,,,,,,,,,,,,,,,,,,,,,,,,,,,,,,,,,,,,,,,,,,,,,,,,,,,,,,,,,,,,,,,,,,,,,,,,,,,,,,,,,,,,,,,,,,,,,,,,,,,,,,,,,,,,,,,,,,,,,,,,,,,,,,,,,,,,,,,,,,,,,,,,,,,,,,,,,,
,,,,,,56a5684481a8ca000d3e544f,62c53a22f93e51d4ae53c7c3,2022-07-06_09h31.03.505,Colour_Asymmetry_Pilot,2022.1.3,Win32,59.8372427,62c50e9c1127f2cd403a315f,0,58,58,65,1,onethree,,,,,,,,,,,,,,,,,,,,,,,,,,,,,,,,,,,,,,,,,,,,,,,,,,,,,,,,,,,,,,,,,,,,,,,,,,,,,,,,,,,,,,,,,,,,,,,,,,,,,,,,,,,,,,,,,,,,,,,,,,,,,,,,,,,,,,,,,,,,,,,,,,,,,,,,,,,,,
,,,,,,56a5684481a8ca000d3e544f,62c53a22f93e51d4ae53c7c3,2022-07-06_09h31.03.505,Colour_Asymmetry_Pilot,2022.1.3,Win32,59.8372427,62c50e9c1127f2cd403a315f,0,59,59,90,1,twoone,,,,,,,,,,,,,,,,,,,,,,,,,,,,,,,,,,,,,,,,,,,,,,,,,,,,,,,,,,,,,,,,,,,,,,,,,,,,,,,,,,,,,,,,,,,,,,,,,,,,,,,,,,,,,,,,,,,,,,,,,,,,,,,,,,,,,,,,,,,,,,,,,,,,,,,,,,,,,
,,,,,,56a5684481a8ca000d3e544f,62c53a22f93e51d4ae53c7c3,2022-07-06_09h31.03.505,Colour_Asymmetry_Pilot,2022.1.3,Win32,59.8372427,62c50e9c1127f2cd403a315f,0,60,60,39,1,fourthree,,,,,,,,,,,,,,,,,,,,,,,,,,,,,,,,,,,,,,,,,,,,,,,,,,,,,,,,,,,,,,,,,,,,,,,,,,,,,,,,,,,,,,,,,,,,,,,,,,,,,,,,,,,,,,,,,,,,,,,,,,,,,,,,,,,,,,,,,,,,,,,,,,,,,,,,,,,,,
,,,,,,56a5684481a8ca000d3e544f,62c53a22f93e51d4ae53c7c3,2022-07-06_09h31.03.505,Colour_Asymmetry_Pilot,2022.1.3,Win32,59.8372427,62c50e9c1127f2cd403a315f,0,61,61,140,1,threeone,,,,,,,,,,,,,,,,,,,,,,,,,,,,,,,,,,,,,,,,,,,,,,,,,,,,,,,,,,,,,,,,,,,,,,,,,,,,,,,,,,,,,,,,,,,,,,,,,,,,,,,,,,,,,,,,,,,,,,,,,,,,,,,,,,,,,,,,,,,,,,,,,,,,,,,,,,,,,
,,,,,,56a5684481a8ca000d3e544f,62c53a22f93e51d4ae53c7c3,2022-07-06_09h31.03.505,Colour_Asymmetry_Pilot,2022.1.3,Win32,59.8372427,62c50e9c1127f2cd403a315f,0,62,62,93,1,threefour,,,,,,,,,,,,,,,,,,,,,,,,,,,,,,,,,,,,,,,,,,,,,,,,,,,,,,,,,,,,,,,,,,,,,,,,,,,,,,,,,,,,,,,,,,,,,,,,,,,,,,,,,,,,,,,,,,,,,,,,,,,,,,,,,,,,,,,,,,,,,,,,,,,,,,,,,,,,,
,,,,,,56a5684481a8ca000d3e544f,62c53a22f93e51d4ae53c7c3,2022-07-06_09h31.03.505,Colour_Asymmetry_Pilot,2022.1.3,Win32,59.8372427,62c50e9c1127f2cd403a315f,0,63,63,149,1,threefour,,,,,,,,,,,,,,,,,,,,,,,,,,,,,,,,,,,,,,,,,,,,,,,,,,,,,,,,,,,,,,,,,,,,,,,,,,,,,,,,,,,,,,,,,,,,,,,,,,,,,,,,,,,,,,,,,,,,,,,,,,,,,,,,,,,,,,,,,,,,,,,,,,,,,,,,,,,,,
,,,,,,56a5684481a8ca000d3e544f,62c53a22f93e51d4ae53c7c3,2022-07-06_09h31.03.505,Colour_Asymmetry_Pilot,2022.1.3,Win32,59.8372427,62c50e9c1127f2cd403a315f,0,64,64,121,1,onethree,,,,,,,,,,,,,,,,,,,,,,,,,,,,,,,,,,,,,,,,,,,,,,,,,,,,,,,,,,,,,,,,,,,,,,,,,,,,,,,,,,,,,,,,,,,,,,,,,,,,,,,,,,,,,,,,,,,,,,,,,,,,,,,,,,,,,,,,,,,,,,,,,,,,,,,,,,,,,
,,,,,,56a5684481a8ca000d3e544f,62c53a22f93e51d4ae53c7c3,2022-07-06_09h31.03.505,Colour_Asymmetry_Pilot,2022.1.3,Win32,59.8372427,62c50e9c1127f2cd403a315f,0,65,65,22,1,fourtwo,,,,,,,,,,,,,,,,,,,,,,,,,,,,,,,,,,,,,,,,,,,,,,,,,,,,,,,,,,,,,,,,,,,,,,,,,,,,,,,,,,,,,,,,,,,,,,,,,,,,,,,,,,,,,,,,,,,,,,,,,,,,,,,,,,,,,,,,,,,,,,,,,,,,,,,,,,,,,
,,,,,,56a5684481a8ca000d3e544f,62c53a22f93e51d4ae53c7c3,2022-07-06_09h31.03.505,Colour_Asymmetry_Pilot,2022.1.3,Win32,59.8372427,62c50e9c1127f2cd403a315f,0,66,66,3,1,twofour,,,,,,,,,,,,,,,,,,,,,,,,,,,,,,,,,,,,,,,,,,,,,,,,,,,,,,,,,,,,,,,,,,,,,,,,,,,,,,,,,,,,,,,,,,,,,,,,,,,,,,,,,,,,,,,,,,,,,,,,,,,,,,,,,,,,,,,,,,,,,,,,,,,,,,,,,,,,,
,,,,,,56a5684481a8ca000d3e544f,62c53a22f93e51d4ae53c7c3,2022-07-06_09h31.03.505,Colour_Asymmetry_Pilot,2022.1.3,Win32,59.8372427,62c50e9c1127f2cd403a315f,0,67,67,34,1,twoone,,,,,,,,,,,,,,,,,,,,,,,,,,,,,,,,,,,,,,,,,,,,,,,,,,,,,,,,,,,,,,,,,,,,,,,,,,,,,,,,,,,,,,,,,,,,,,,,,,,,,,,,,,,,,,,,,,,,,,,,,,,,,,,,,,,,,,,,,,,,,,,,,,,,,,,,,,,,,
,,,,,,56a5684481a8ca000d3e544f,62c53a22f93e51d4ae53c7c3,2022-07-06_09h31.03.505,Colour_Asymmetry_Pilot,2022.1.3,Win32,59.8372427,62c50e9c1127f2cd403a315f,0,68,68,53,1,threefour,,,,,,,,,,,,,,,,,,,,,,,,,,,,,,,,,,,,,,,,,,,,,,,,,,,,,,,,,,,,,,,,,,,,,,,,,,,,,,,,,,,,,,,,,,,,,,,,,,,,,,,,,,,,,,,,,,,,,,,,,,,,,,,,,,,,,,,,,,,,,,,,,,,,,,,,,,,,,
,,,,,,56a5684481a8ca000d3e544f,62c53a22f93e51d4ae53c7c3,2022-07-06_09h31.03.505,Colour_Asymmetry_Pilot,2022.1.3,Win32,59.8372427,62c50e9c1127f2cd403a315f,0,69,69,29,1,threefour,,,,,,,,,,,,,,,,,,,,,,,,,,,,,,,,,,,,,,,,,,,,,,,,,,,,,,,,,,,,,,,,,,,,,,,,,,,,,,,,,,,,,,,,,,,,,,,,,,,,,,,,,,,,,,,,,,,,,,,,,,,,,,,,,,,,,,,,,,,,,,,,,,,,,,,,,,,,,
,,,,,,56a5684481a8ca000d3e544f,62c53a22f93e51d4ae53c7c3,2022-07-06_09h31.03.505,Colour_Asymmetry_Pilot,2022.1.3,Win32,59.8372427,62c50e9c1127f2cd403a315f,0,70,70,154,1,twoone,,,,,,,,,,,,,,,,,,,,,,,,,,,,,,,,,,,,,,,,,,,,,,,,,,,,,,,,,,,,,,,,,,,,,,,,,,,,,,,,,,,,,,,,,,,,,,,,,,,,,,,,,,,,,,,,,,,,,,,,,,,,,,,,,,,,,,,,,,,,,,,,,,,,,,,,,,,,,
,,,,,,56a5684481a8ca000d3e544f,62c53a22f93e51d4ae53c7c3,2022-07-06_09h31.03.505,Colour_Asymmetry_Pilot,2022.1.3,Win32,59.8372427,62c50e9c1127f2cd403a315f,0,71,71,70,1,fourtwo,,,,,,,,,,,,,,,,,,,,,,,,,,,,,,,,,,,,,,,,,,,,,,,,,,,,,,,,,,,,,,,,,,,,,,,,,,,,,,,,,,,,,,,,,,,,,,,,,,,,,,,,,,,,,,,,,,,,,,,,,,,,,,,,,,,,,,,,,,,,,,,,,,,,,,,,,,,,,
,,,,,,56a5684481a8ca000d3e544f,62c53a22f93e51d4ae53c7c3,2022-07-06_09h31.03.505,Colour_Asymmetry_Pilot,2022.1.3,Win32,59.8372427,62c50e9c1127f2cd403a315f,0,72,72,14,1,fourtwo,,,,,,,,,,,,,,,,,,,,,,,,,,,,,,,,,,,,,,,,,,,,,,,,,,,,,,,,,,,,,,,,,,,,,,,,,,,,,,,,,,,,,,,,,,,,,,,,,,,,,,,,,,,,,,,,,,,,,,,,,,,,,,,,,,,,,,,,,,,,,,,,,,,,,,,,,,,,,
,,,,,,56a5684481a8ca000d3e544f,62c53a22f93e51d4ae53c7c3,2022-07-06_09h31.03.505,Colour_Asymmetry_Pilot,2022.1.3,Win32,59.8372427,62c50e9c1127f2cd403a315f,0,73,73,31,1,fourthree,,,,,,,,,,,,,,,,,,,,,,,,,,,,,,,,,,,,,,,,,,,,,,,,,,,,,,,,,,,,,,,,,,,,,,,,,,,,,,,,,,,,,,,,,,,,,,,,,,,,,,,,,,,,,,,,,,,,,,,,,,,,,,,,,,,,,,,,,,,,,,,,,,,,,,,,,,,,,
,,,,,,56a5684481a8ca000d3e544f,62c53a22f93e51d4ae53c7c3,2022-07-06_09h31.03.505,Colour_Asymmetry_Pilot,2022.1.3,Win32,59.8372427,62c50e9c1127f2cd403a315f,0,74,74,73,1,onethree,,,,,,,,,,,,,,,,,,,,,,,,,,,,,,,,,,,,,,,,,,,,,,,,,,,,,,,,,,,,,,,,,,,,,,,,,,,,,,,,,,,,,,,,,,,,,,,,,,,,,,,,,,,,,,,,,,,,,,,,,,,,,,,,,,,,,,,,,,,,,,,,,,,,,,,,,,,,,
,,,,,,56a5684481a8ca000d3e544f,62c53a22f93e51d4ae53c7c3,2022-07-06_09h31.03.505,Colour_Asymmetry_Pilot,2022.1.3,Win32,59.8372427,62c50e9c1127f2cd403a315f,0,75,75,28,1,threeone,,,,,,,,,,,,,,,,,,,,,,,,,,,,,,,,,,,,,,,,,,,,,,,,,,,,,,,,,,,,,,,,,,,,,,,,,,,,,,,,,,,,,,,,,,,,,,,,,,,,,,,,,,,,,,,,,,,,,,,,,,,,,,,,,,,,,,,,,,,,,,,,,,,,,,,,,,,,,
,,,,,,56a5684481a8ca000d3e544f,62c53a22f93e51d4ae53c7c3,2022-07-06_09h31.03.505,Colour_Asymmetry_Pilot,2022.1.3,Win32,59.8372427,62c50e9c1127f2cd403a315f,0,76,76,45,1,threefour,,,,,,,,,,,,,,,,,,,,,,,,,,,,,,,,,,,,,,,,,,,,,,,,,,,,,,,,,,,,,,,,,,,,,,,,,,,,,,,,,,,,,,,,,,,,,,,,,,,,,,,,,,,,,,,,,,,,,,,,,,,,,,,,,,,,,,,,,,,,,,,,,,,,,,,,,,,,,
,,,,,,56a5684481a8ca000d3e544f,62c53a22f93e51d4ae53c7c3,2022-07-06_09h31.03.505,Colour_Asymmetry_Pilot,2022.1.3,Win32,59.8372427,62c50e9c1127f2cd403a315f,0,77,77,123,1,twofour,,,,,,,,,,,,,,,,,,,,,,,,,,,,,,,,,,,,,,,,,,,,,,,,,,,,,,,,,,,,,,,,,,,,,,,,,,,,,,,,,,,,,,,,,,,,,,,,,,,,,,,,,,,,,,,,,,,,,,,,,,,,,,,,,,,,,,,,,,,,,,,,,,,,,,,,,,,,,
,,,,,,56a5684481a8ca000d3e544f,62c53a22f93e51d4ae53c7c3,2022-07-06_09h31.03.505,Colour_Asymmetry_Pilot,2022.1.3,Win32,59.8372427,62c50e9c1127f2cd403a315f,0,78,78,56,1,onetwo,,,,,,,,,,,,,,,,,,,,,,,,,,,,,,,,,,,,,,,,,,,,,,,,,,,,,,,,,,,,,,,,,,,,,,,,,,,,,,,,,,,,,,,,,,,,,,,,,,,,,,,,,,,,,,,,,,,,,,,,,,,,,,,,,,,,,,,,,,,,,,,,,,,,,,,,,,,,,
,,,,,,56a5684481a8ca000d3e544f,62c53a22f93e51d4ae53c7c3,2022-07-06_09h31.03.505,Colour_Asymmetry_Pilot,2022.1.3,Win32,59.8372427,62c50e9c1127f2cd403a315f,0,79,79,104,1,onetwo,,,,,,,,,,,,,,,,,,,,,,,,,,,,,,,,,,,,,,,,,,,,,,,,,,,,,,,,,,,,,,,,,,,,,,,,,,,,,,,,,,,,,,,,,,,,,,,,,,,,,,,,,,,,,,,,,,,,,,,,,,,,,,,,,,,,,,,,,,,,,,,,,,,,,,,,,,,,,
,,,,,,56a5684481a8ca000d3e544f,62c53a22f93e51d4ae53c7c3,2022-07-06_09h31.03.505,Colour_Asymmetry_Pilot,2022.1.3,Win32,59.8372427,62c50e9c1127f2cd403a315f,0,80,80,16,1,onetwo,,,,,,,,,,,,,,,,,,,,,,,,,,,,,,,,,,,,,,,,,,,,,,,,,,,,,,,,,,,,,,,,,,,,,,,,,,,,,,,,,,,,,,,,,,,,,,,,,,,,,,,,,,,,,,,,,,,,,,,,,,,,,,,,,,,,,,,,,,,,,,,,,,,,,,,,,,,,,
,,,,,,56a5684481a8ca000d3e544f,62c53a22f93e51d4ae53c7c3,2022-07-06_09h31.03.505,Colour_Asymmetry_Pilot,2022.1.3,Win32,59.8372427,62c50e9c1127f2cd403a315f,0,81,81,52,1,threeone,,,,,,,,,,,,,,,,,,,,,,,,,,,,,,,,,,,,,,,,,,,,,,,,,,,,,,,,,,,,,,,,,,,,,,,,,,,,,,,,,,,,,,,,,,,,,,,,,,,,,,,,,,,,,,,,,,,,,,,,,,,,,,,,,,,,,,,,,,,,,,,,,,,,,,,,,,,,,
,,,,,,56a5684481a8ca000d3e544f,62c53a22f93e51d4ae53c7c3,2022-07-06_09h31.03.505,Colour_Asymmetry_Pilot,2022.1.3,Win32,59.8372427,62c50e9c1127f2cd403a315f,0,82,82,78,1,fourtwo,,,,,,,,,,,,,,,,,,,,,,,,,,,,,,,,,,,,,,,,,,,,,,,,,,,,,,,,,,,,,,,,,,,,,,,,,,,,,,,,,,,,,,,,,,,,,,,,,,,,,,,,,,,,,,,,,,,,,,,,,,,,,,,,,,,,,,,,,,,,,,,,,,,,,,,,,,,,,
,,,,,,56a5684481a8ca000d3e544f,62c53a22f93e51d4ae53c7c3,2022-07-06_09h31.03.505,Colour_Asymmetry_Pilot,2022.1.3,Win32,59.8372427,62c50e9c1127f2cd403a315f,0,83,83,54,1,fourtwo,,,,,,,,,,,,,,,,,,,,,,,,,,,,,,,,,,,,,,,,,,,,,,,,,,,,,,,,,,,,,,,,,,,,,,,,,,,,,,,,,,,,,,,,,,,,,,,,,,,,,,,,,,,,,,,,,,,,,,,,,,,,,,,,,,,,,,,,,,,,,,,,,,,,,,,,,,,,,
,,,,,,56a5684481a8ca000d3e544f,62c53a22f93e51d4ae53c7c3,2022-07-06_09h31.03.505,Colour_Asymmetry_Pilot,2022.1.3,Win32,59.8372427,62c50e9c1127f2cd403a315f,0,84,84,38,1,fourtwo,,,,,,,,,,,,,,,,,,,,,,,,,,,,,,,,,,,,,,,,,,,,,,,,,,,,,,,,,,,,,,,,,,,,,,,,,,,,,,,,,,,,,,,,,,,,,,,,,,,,,,,,,,,,,,,,,,,,,,,,,,,,,,,,,,,,,,,,,,,,,,,,,,,,,,,,,,,,,
,,,,,,56a5684481a8ca000d3e544f,62c53a22f93e51d4ae53c7c3,2022-07-06_09h31.03.505,Colour_Asymmetry_Pilot,2022.1.3,Win32,59.8372427,62c50e9c1127f2cd403a315f,0,85,85,50,1,twoone,,,,,,,,,,,,,,,,,,,,,,,,,,,,,,,,,,,,,,,,,,,,,,,,,,,,,,,,,,,,,,,,,,,,,,,,,,,,,,,,,,,,,,,,,,,,,,,,,,,,,,,,,,,,,,,,,,,,,,,,,,,,,,,,,,,,,,,,,,,,,,,,,,,,,,,,,,,,,
,,,,,,56a5684481a8ca000d3e544f,62c53a22f93e51d4ae53c7c3,2022-07-06_09h31.03.505,Colour_Asymmetry_Pilot,2022.1.3,Win32,59.8372427,62c50e9c1127f2cd403a315f,0,86,86,0,1,onetwo,,,,,,,,,,,,,,,,,,,,,,,,,,,,,,,,,,,,,,,,,,,,,,,,,,,,,,,,,,,,,,,,,,,,,,,,,,,,,,,,,,,,,,,,,,,,,,,,,,,,,,,,,,,,,,,,,,,,,,,,,,,,,,,,,,,,,,,,,,,,,,,,,,,,,,,,,,,,,
,,,,,,56a5684481a8ca000d3e544f,62c53a22f93e51d4ae53c7c3,2022-07-06_09h31.03.505,Colour_Asymmetry_Pilot,2022.1.3,Win32,59.8372427,62c50e9c1127f2cd403a315f,0,87,87,152,1,onetwo,,,,,,,,,,,,,,,,,,,,,,,,,,,,,,,,,,,,,,,,,,,,,,,,,,,,,,,,,,,,,,,,,,,,,,,,,,,,,,,,,,,,,,,,,,,,,,,,,,,,,,,,,,,,,,,,,,,,,,,,,,,,,,,,,,,,,,,,,,,,,,,,,,,,,,,,,,,,,
,,,,,,56a5684481a8ca000d3e544f,62c53a22f93e51d4ae53c7c3,2022-07-06_09h31.03.505,Colour_Asymmetry_Pilot,2022.1.3,Win32,59.8372427,62c50e9c1127f2cd403a315f,0,88,88,146,1,twoone,,,,,,,,,,,,,,,,,,,,,,,,,,,,,,,,,,,,,,,,,,,,,,,,,,,,,,,,,,,,,,,,,,,,,,,,,,,,,,,,,,,,,,,,,,,,,,,,,,,,,,,,,,,,,,,,,,,,,,,,,,,,,,,,,,,,,,,,,,,,,,,,,,,,,,,,,,,,,
,,,,,,56a5684481a8ca000d3e544f,62c53a22f93e51d4ae53c7c3,2022-07-06_09h31.03.505,Colour_Asymmetry_Pilot,2022.1.3,Win32,59.8372427,62c50e9c1127f2cd403a315f,0,89,89,47,1,fourthree,,,,,,,,,,,,,,,,,,,,,,,,,,,,,,,,,,,,,,,,,,,,,,,,,,,,,,,,,,,,,,,,,,,,,,,,,,,,,,,,,,,,,,,,,,,,,,,,,,,,,,,,,,,,,,,,,,,,,,,,,,,,,,,,,,,,,,,,,,,,,,,,,,,,,,,,,,,,,
,,,,,,56a5684481a8ca000d3e544f,62c53a22f93e51d4ae53c7c3,2022-07-06_09h31.03.505,Colour_Asymmetry_Pilot,2022.1.3,Win32,59.8372427,62c50e9c1127f2cd403a315f,0,90,90,32,1,onetwo,,,,,,,,,,,,,,,,,,,,,,,,,,,,,,,,,,,,,,,,,,,,,,,,,,,,,,,,,,,,,,,,,,,,,,,,,,,,,,,,,,,,,,,,,,,,,,,,,,,,,,,,,,,,,,,,,,,,,,,,,,,,,,,,,,,,,,,,,,,,,,,,,,,,,,,,,,,,,
,,,,,,56a5684481a8ca000d3e544f,62c53a22f93e51d4ae53c7c3,2022-07-06_09h31.03.505,Colour_Asymmetry_Pilot,2022.1.3,Win32,59.8372427,62c50e9c1127f2cd403a315f,0,91,91,127,1,fourthree,,,,,,,,,,,,,,,,,,,,,,,,,,,,,,,,,,,,,,,,,,,,,,,,,,,,,,,,,,,,,,,,,,,,,,,,,,,,,,,,,,,,,,,,,,,,,,,,,,,,,,,,,,,,,,,,,,,,,,,,,,,,,,,,,,,,,,,,,,,,,,,,,,,,,,,,,,,,,
,,,,,,56a5684481a8ca000d3e544f,62c53a22f93e51d4ae53c7c3,2022-07-06_09h31.03.505,Colour_Asymmetry_Pilot,2022.1.3,Win32,59.8372427,62c50e9c1127f2cd403a315f,0,92,92,4,1,threeone,,,,,,,,,,,,,,,,,,,,,,,,,,,,,,,,,,,,,,,,,,,,,,,,,,,,,,,,,,,,,,,,,,,,,,,,,,,,,,,,,,,,,,,,,,,,,,,,,,,,,,,,,,,,,,,,,,,,,,,,,,,,,,,,,,,,,,,,,,,,,,,,,,,,,,,,,,,,,
,,,,,,56a5684481a8ca000d3e544f,62c53a22f93e51d4ae53c7c3,2022-07-06_09h31.03.505,Colour_Asymmetry_Pilot,2022.1.3,Win32,59.8372427,62c50e9c1127f2cd403a315f,0,93,93,67,1,twofour,,,,,,,,,,,,,,,,,,,,,,,,,,,,,,,,,,,,,,,,,,,,,,,,,,,,,,,,,,,,,,,,,,,,,,,,,,,,,,,,,,,,,,,,,,,,,,,,,,,,,,,,,,,,,,,,,,,,,,,,,,,,,,,,,,,,,,,,,,,,,,,,,,,,,,,,,,,,,
,,,,,,56a5684481a8ca000d3e544f,62c53a22f93e51d4ae53c7c3,2022-07-06_09h31.03.505,Colour_Asymmetry_Pilot,2022.1.3,Win32,59.8372427,62c50e9c1127f2cd403a315f,0,94,94,107,1,twofour,,,,,,,,,,,,,,,,,,,,,,,,,,,,,,,,,,,,,,,,,,,,,,,,,,,,,,,,,,,,,,,,,,,,,,,,,,,,,,,,,,,,,,,,,,,,,,,,,,,,,,,,,,,,,,,,,,,,,,,,,,,,,,,,,,,,,,,,,,,,,,,,,,,,,,,,,,,,,
,,,,,,56a5684481a8ca000d3e544f,62c53a22f93e51d4ae53c7c3,2022-07-06_09h31.03.505,Colour_Asymmetry_Pilot,2022.1.3,Win32,59.8372427,62c50e9c1127f2cd403a315f,0,95,95,44,1,threeone,,,,,,,,,,,,,,,,,,,,,,,,,,,,,,,,,,,,,,,,,,,,,,,,,,,,,,,,,,,,,,,,,,,,,,,,,,,,,,,,,,,,,,,,,,,,,,,,,,,,,,,,,,,,,,,,,,,,,,,,,,,,,,,,,,,,,,,,,,,,,,,,,,,,,,,,,,,,,
,,,,,,56a5684481a8ca000d3e544f,62c53a22f93e51d4ae53c7c3,2022-07-06_09h31.03.505,Colour_Asymmetry_Pilot,2022.1.3,Win32,59.8372427,62c50e9c1127f2cd403a315f,0,96,96,96,1,onetwo,,,,,,,,,,,,,,,,,,,,,,,,,,,,,,,,,,,,,,,,,,,,,,,,,,,,,,,,,,,,,,,,,,,,,,,,,,,,,,,,,,,,,,,,,,,,,,,,,,,,,,,,,,,,,,,,,,,,,,,,,,,,,,,,,,,,,,,,,,,,,,,,,,,,,,,,,,,,,
,,,,,,56a5684481a8ca000d3e544f,62c53a22f93e51d4ae53c7c3,2022-07-06_09h31.03.505,Colour_Asymmetry_Pilot,2022.1.3,Win32,59.8372427,62c50e9c1127f2cd403a315f,0,97,97,77,1,threefour,,,,,,,,,,,,,,,,,,,,,,,,,,,,,,,,,,,,,,,,,,,,,,,,,,,,,,,,,,,,,,,,,,,,,,,,,,,,,,,,,,,,,,,,,,,,,,,,,,,,,,,,,,,,,,,,,,,,,,,,,,,,,,,,,,,,,,,,,,,,,,,,,,,,,,,,,,,,,
,,,,,,56a5684481a8ca000d3e544f,62c53a22f93e51d4ae53c7c3,2022-07-06_09h31.03.505,Colour_Asymmetry_Pilot,2022.1.3,Win32,59.8372427,62c50e9c1127f2cd403a315f,0,98,98,105,1,onethree,,,,,,,,,,,,,,,,,,,,,,,,,,,,,,,,,,,,,,,,,,,,,,,,,,,,,,,,,,,,,,,,,,,,,,,,,,,,,,,,,,,,,,,,,,,,,,,,,,,,,,,,,,,,,,,,,,,,,,,,,,,,,,,,,,,,,,,,,,,,,,,,,,,,,,,,,,,,,
,,,,,,56a5684481a8ca000d3e544f,62c53a22f93e51d4ae53c7c3,2022-07-06_09h31.03.505,Colour_Asymmetry_Pilot,2022.1.3,Win32,59.8372427,62c50e9c1127f2cd403a315f,0,99,99,145,1,onethree,,,,,,,,,,,,,,,,,,,,,,,,,,,,,,,,,,,,,,,,,,,,,,,,,,,,,,,,,,,,,,,,,,,,,,,,,,,,,,,,,,,,,,,,,,,,,,,,,,,,,,,,,,,,,,,,,,,,,,,,,,,,,,,,,,,,,,,,,,,,,,,,,,,,,,,,,,,,,
,,,,,,56a5684481a8ca000d3e544f,62c53a22f93e51d4ae53c7c3,2022-07-06_09h31.03.505,Colour_Asymmetry_Pilot,2022.1.3,Win32,59.8372427,62c50e9c1127f2cd403a315f,0,100,100,111,1,fourthree,,,,,,,,,,,,,,,,,,,,,,,,,,,,,,,,,,,,,,,,,,,,,,,,,,,,,,,,,,,,,,,,,,,,,,,,,,,,,,,,,,,,,,,,,,,,,,,,,,,,,,,,,,,,,,,,,,,,,,,,,,,,,,,,,,,,,,,,,,,,,,,,,,,,,,,,,,,,,
,,,,,,56a5684481a8ca000d3e544f,62c53a22f93e51d4ae53c7c3,2022-07-06_09h31.03.505,Colour_Asymmetry_Pilot,2022.1.3,Win32,59.8372427,62c50e9c1127f2cd403a315f,0,101,101,139,1,twofour,,,,,,,,,,,,,,,,,,,,,,,,,,,,,,,,,,,,,,,,,,,,,,,,,,,,,,,,,,,,,,,,,,,,,,,,,,,,,,,,,,,,,,,,,,,,,,,,,,,,,,,,,,,,,,,,,,,,,,,,,,,,,,,,,,,,,,,,,,,,,,,,,,,,,,,,,,,,,
,,,,,,56a5684481a8ca000d3e544f,62c53a22f93e51d4ae53c7c3,2022-07-06_09h31.03.505,Colour_Asymmetry_Pilot,2022.1.3,Win32,59.8372427,62c50e9c1127f2cd403a315f,0,102,102,1,1,onethree,,,,,,,,,,,,,,,,,,,,,,,,,,,,,,,,,,,,,,,,,,,,,,,,,,,,,,,,,,,,,,,,,,,,,,,,,,,,,,,,,,,,,,,,,,,,,,,,,,,,,,,,,,,,,,,,,,,,,,,,,,,,,,,,,,,,,,,,,,,,,,,,,,,,,,,,,,,,,
,,,,,,56a5684481a8ca000d3e544f,62c53a22f93e51d4ae53c7c3,2022-07-06_09h31.03.505,Colour_Asymmetry_Pilot,2022.1.3,Win32,59.8372427,62c50e9c1127f2cd403a315f,0,103,103,15,1,fourthree,,,,,,,,,,,,,,,,,,,,,,,,,,,,,,,,,,,,,,,,,,,,,,,,,,,,,,,,,,,,,,,,,,,,,,,,,,,,,,,,,,,,,,,,,,,,,,,,,,,,,,,,,,,,,,,,,,,,,,,,,,,,,,,,,,,,,,,,,,,,,,,,,,,,,,,,,,,,,
,,,,,,56a5684481a8ca000d3e544f,62c53a22f93e51d4ae53c7c3,2022-07-06_09h31.03.505,Colour_Asymmetry_Pilot,2022.1.3,Win32,59.8372427,62c50e9c1127f2cd403a315f,0,104,104,83,1,twofour,,,,,,,,,,,,,,,,,,,,,,,,,,,,,,,,,,,,,,,,,,,,,,,,,,,,,,,,,,,,,,,,,,,,,,,,,,,,,,,,,,,,,,,,,,,,,,,,,,,,,,,,,,,,,,,,,,,,,,,,,,,,,,,,,,,,,,,,,,,,,,,,,,,,,,,,,,,,,
,,,,,,56a5684481a8ca000d3e544f,62c53a22f93e51d4ae53c7c3,2022-07-06_09h31.03.505,Colour_Asymmetry_Pilot,2022.1.3,Win32,59.8372427,62c50e9c1127f2cd403a315f,0,105,105,126,1,fourtwo,,,,,,,,,,,,,,,,,,,,,,,,,,,,,,,,,,,,,,,,,,,,,,,,,,,,,,,,,,,,,,,,,,,,,,,,,,,,,,,,,,,,,,,,,,,,,,,,,,,,,,,,,,,,,,,,,,,,,,,,,,,,,,,,,,,,,,,,,,,,,,,,,,,,,,,,,,,,,
,,,,,,56a5684481a8ca000d3e544f,62c53a22f93e51d4ae53c7c3,2022-07-06_09h31.03.505,Colour_Asymmetry_Pilot,2022.1.3,Win32,59.8372427,62c50e9c1127f2cd403a315f,0,106,106,25,1,onethree,,,,,,,,,,,,,,,,,,,,,,,,,,,,,,,,,,,,,,,,,,,,,,,,,,,,,,,,,,,,,,,,,,,,,,,,,,,,,,,,,,,,,,,,,,,,,,,,,,,,,,,,,,,,,,,,,,,,,,,,,,,,,,,,,,,,,,,,,,,,,,,,,,,,,,,,,,,,,
,,,,,,56a5684481a8ca000d3e544f,62c53a22f93e51d4ae53c7c3,2022-07-06_09h31.03.505,Colour_Asymmetry_Pilot,2022.1.3,Win32,59.8372427,62c50e9c1127f2cd403a315f,0,107,107,21,1,threefour,,,,,,,,,,,,,,,,,,,,,,,,,,,,,,,,,,,,,,,,,,,,,,,,,,,,,,,,,,,,,,,,,,,,,,,,,,,,,,,,,,,,,,,,,,,,,,,,,,,,,,,,,,,,,,,,,,,,,,,,,,,,,,,,,,,,,,,,,,,,,,,,,,,,,,,,,,,,,
,,,,,,56a5684481a8ca000d3e544f,62c53a22f93e51d4ae53c7c3,2022-07-06_09h31.03.505,Colour_Asymmetry_Pilot,2022.1.3,Win32,59.8372427,62c50e9c1127f2cd403a315f,0,108,108,81,1,onethree,,,,,,,,,,,,,,,,,,,,,,,,,,,,,,,,,,,,,,,,,,,,,,,,,,,,,,,,,,,,,,,,,,,,,,,,,,,,,,,,,,,,,,,,,,,,,,,,,,,,,,,,,,,,,,,,,,,,,,,,,,,,,,,,,,,,,,,,,,,,,,,,,,,,,,,,,,,,,
,,,,,,56a5684481a8ca000d3e544f,62c53a22f93e51d4ae53c7c3,2022-07-06_09h31.03.505,Colour_Asymmetry_Pilot,2022.1.3,Win32,59.8372427,62c50e9c1127f2cd403a315f,0,109,109,66,1,twoone,,,,,,,,,,,,,,,,,,,,,,,,,,,,,,,,,,,,,,,,,,,,,,,,,,,,,,,,,,,,,,,,,,,,,,,,,,,,,,,,,,,,,,,,,,,,,,,,,,,,,,,,,,,,,,,,,,,,,,,,,,,,,,,,,,,,,,,,,,,,,,,,,,,,,,,,,,,,,
,,,,,,56a5684481a8ca000d3e544f,62c53a22f93e51d4ae53c7c3,2022-07-06_09h31.03.505,Colour_Asymmetry_Pilot,2022.1.3,Win32,59.8372427,62c50e9c1127f2cd403a315f,0,110,110,43,1,twofour,,,,,,,,,,,,,,,,,,,,,,,,,,,,,,,,,,,,,,,,,,,,,,,,,,,,,,,,,,,,,,,,,,,,,,,,,,,,,,,,,,,,,,,,,,,,,,,,,,,,,,,,,,,,,,,,,,,,,,,,,,,,,,,,,,,,,,,,,,,,,,,,,,,,,,,,,,,,,
,,,,,,56a5684481a8ca000d3e544f,62c53a22f93e51d4ae53c7c3,2022-07-06_09h31.03.505,Colour_Asymmetry_Pilot,2022.1.3,Win32,59.8372427,62c50e9c1127f2cd403a315f,0,111,111,153,1,onethree,,,,,,,,,,,,,,,,,,,,,,,,,,,,,,,,,,,,,,,,,,,,,,,,,,,,,,,,,,,,,,,,,,,,,,,,,,,,,,,,,,,,,,,,,,,,,,,,,,,,,,,,,,,,,,,,,,,,,,,,,,,,,,,,,,,,,,,,,,,,,,,,,,,,,,,,,,,,,
,,,,,,56a5684481a8ca000d3e544f,62c53a22f93e51d4ae53c7c3,2022-07-06_09h31.03.505,Colour_Asymmetry_Pilot,2022.1.3,Win32,59.8372427,62c50e9c1127f2cd403a315f,0,112,112,110,1,fourtwo,,,,,,,,,,,,,,,,,,,,,,,,,,,,,,,,,,,,,,,,,,,,,,,,,,,,,,,,,,,,,,,,,,,,,,,,,,,,,,,,,,,,,,,,,,,,,,,,,,,,,,,,,,,,,,,,,,,,,,,,,,,,,,,,,,,,,,,,,,,,,,,,,,,,,,,,,,,,,
,,,,,,56a5684481a8ca000d3e544f,62c53a22f93e51d4ae53c7c3,2022-07-06_09h31.03.505,Colour_Asymmetry_Pilot,2022.1.3,Win32,59.8372427,62c50e9c1127f2cd403a315f,0,113,113,99,1,twofour,,,,,,,,,,,,,,,,,,,,,,,,,,,,,,,,,,,,,,,,,,,,,,,,,,,,,,,,,,,,,,,,,,,,,,,,,,,,,,,,,,,,,,,,,,,,,,,,,,,,,,,,,,,,,,,,,,,,,,,,,,,,,,,,,,,,,,,,,,,,,,,,,,,,,,,,,,,,,
,,,,,,56a5684481a8ca000d3e544f,62c53a22f93e51d4ae53c7c3,2022-07-06_09h31.03.505,Colour_Asymmetry_Pilot,2022.1.3,Win32,59.8372427,62c50e9c1127f2cd403a315f,0,114,114,72,1,onetwo,,,,,,,,,,,,,,,,,,,,,,,,,,,,,,,,,,,,,,,,,,,,,,,,,,,,,,,,,,,,,,,,,,,,,,,,,,,,,,,,,,,,,,,,,,,,,,,,,,,,,,,,,,,,,,,,,,,,,,,,,,,,,,,,,,,,,,,,,,,,,,,,,,,,,,,,,,,,,
,,,,,,56a5684481a8ca000d3e544f,62c53a22f93e51d4ae53c7c3,2022-07-06_09h31.03.505,Colour_Asymmetry_Pilot,2022.1.3,Win32,59.8372427,62c50e9c1127f2cd403a315f,0,115,115,33,1,onethree,,,,,,,,,,,,,,,,,,,,,,,,,,,,,,,,,,,,,,,,,,,,,,,,,,,,,,,,,,,,,,,,,,,,,,,,,,,,,,,,,,,,,,,,,,,,,,,,,,,,,,,,,,,,,,,,,,,,,,,,,,,,,,,,,,,,,,,,,,,,,,,,,,,,,,,,,,,,,
,,,,,,56a5684481a8ca000d3e544f,62c53a22f93e51d4ae53c7c3,2022-07-06_09h31.03.505,Colour_Asymmetry_Pilot,2022.1.3,Win32,59.8372427,62c50e9c1127f2cd403a315f,0,116,116,46,1,fourtwo,,,,,,,,,,,,,,,,,,,,,,,,,,,,,,,,,,,,,,,,,,,,,,,,,,,,,,,,,,,,,,,,,,,,,,,,,,,,,,,,,,,,,,,,,,,,,,,,,,,,,,,,,,,,,,,,,,,,,,,,,,,,,,,,,,,,,,,,,,,,,,,,,,,,,,,,,,,,,
,,,,,,56a5684481a8ca000d3e544f,62c53a22f93e51d4ae53c7c3,2022-07-06_09h31.03.505,Colour_Asymmetry_Pilot,2022.1.3,Win32,59.8372427,62c50e9c1127f2cd403a315f,0,117,117,68,1,threeone,,,,,,,,,,,,,,,,,,,,,,,,,,,,,,,,,,,,,,,,,,,,,,,,,,,,,,,,,,,,,,,,,,,,,,,,,,,,,,,,,,,,,,,,,,,,,,,,,,,,,,,,,,,,,,,,,,,,,,,,,,,,,,,,,,,,,,,,,,,,,,,,,,,,,,,,,,,,,
,,,,,,56a5684481a8ca000d3e544f,62c53a22f93e51d4ae53c7c3,2022-07-06_09h31.03.505,Colour_Asymmetry_Pilot,2022.1.3,Win32,59.8372427,62c50e9c1127f2cd403a315f,0,118,118,147,1,twofour,,,,,,,,,,,,,,,,,,,,,,,,,,,,,,,,,,,,,,,,,,,,,,,,,,,,,,,,,,,,,,,,,,,,,,,,,,,,,,,,,,,,,,,,,,,,,,,,,,,,,,,,,,,,,,,,,,,,,,,,,,,,,,,,,,,,,,,,,,,,,,,,,,,,,,,,,,,,,
,,,,,,56a5684481a8ca000d3e544f,62c53a22f93e51d4ae53c7c3,2022-07-06_09h31.03.505,Colour_Asymmetry_Pilot,2022.1.3,Win32,59.8372427,62c50e9c1127f2cd403a315f,0,119,119,48,1,onetwo,,,,,,,,,,,,,,,,,,,,,,,,,,,,,,,,,,,,,,,,,,,,,,,,,,,,,,,,,,,,,,,,,,,,,,,,,,,,,,,,,,,,,,,,,,,,,,,,,,,,,,,,,,,,,,,,,,,,,,,,,,,,,,,,,,,,,,,,,,,,,,,,,,,,,,,,,,,,,
,,,,,,56a5684481a8ca000d3e544f,62c53a22f93e51d4ae53c7c3,2022-07-06_09h31.03.505,Colour_Asymmetry_Pilot,2022.1.3,Win32,59.8372427,62c50e9c1127f2cd403a315f,0,120,120,59,1,twofour,,,,,,,,,,,,,,,,,,,,,,,,,,,,,,,,,,,,,,,,,,,,,,,,,,,,,,,,,,,,,,,,,,,,,,,,,,,,,,,,,,,,,,,,,,,,,,,,,,,,,,,,,,,,,,,,,,,,,,,,,,,,,,,,,,,,,,,,,,,,,,,,,,,,,,,,,,,,,
,,,,,,56a5684481a8ca000d3e544f,62c53a22f93e51d4ae53c7c3,2022-07-06_09h31.03.505,Colour_Asymmetry_Pilot,2022.1.3,Win32,59.8372427,62c50e9c1127f2cd403a315f,0,121,121,151,1,fourthree,,,,,,,,,,,,,,,,,,,,,,,,,,,,,,,,,,,,,,,,,,,,,,,,,,,,,,,,,,,,,,,,,,,,,,,,,,,,,,,,,,,,,,,,,,,,,,,,,,,,,,,,,,,,,,,,,,,,,,,,,,,,,,,,,,,,,,,,,,,,,,,,,,,,,,,,,,,,,
,,,,,,56a5684481a8ca000d3e544f,62c53a22f93e51d4ae53c7c3,2022-07-06_09h31.03.505,Colour_Asymmetry_Pilot,2022.1.3,Win32,59.8372427,62c50e9c1127f2cd403a315f,0,122,122,113,1,onethree,,,,,,,,,,,,,,,,,,,,,,,,,,,,,,,,,,,,,,,,,,,,,,,,,,,,,,,,,,,,,,,,,,,,,,,,,,,,,,,,,,,,,,,,,,,,,,,,,,,,,,,,,,,,,,,,,,,,,,,,,,,,,,,,,,,,,,,,,,,,,,,,,,,,,,,,,,,,,
,,,,,,56a5684481a8ca000d3e544f,62c53a22f93e51d4ae53c7c3,2022-07-06_09h31.03.505,Colour_Asymmetry_Pilot,2022.1.3,Win32,59.8372427,62c50e9c1127f2cd403a315f,0,123,123,74,1,twoone,,,,,,,,,,,,,,,,,,,,,,,,,,,,,,,,,,,,,,,,,,,,,,,,,,,,,,,,,,,,,,,,,,,,,,,,,,,,,,,,,,,,,,,,,,,,,,,,,,,,,,,,,,,,,,,,,,,,,,,,,,,,,,,,,,,,,,,,,,,,,,,,,,,,,,,,,,,,,
,,,,,,56a5684481a8ca000d3e544f,62c53a22f93e51d4ae53c7c3,2022-07-06_09h31.03.505,Colour_Asymmetry_Pilot,2022.1.3,Win32,59.8372427,62c50e9c1127f2cd403a315f,0,124,124,160,1,onetwo,,,,,,,,,,,,,,,,,,,,,,,,,,,,,,,,,,,,,,,,,,,,,,,,,,,,,,,,,,,,,,,,,,,,,,,,,,,,,,,,,,,,,,,,,,,,,,,,,,,,,,,,,,,,,,,,,,,,,,,,,,,,,,,,,,,,,,,,,,,,,,,,,,,,,,,,,,,,,
,,,,,,56a5684481a8ca000d3e544f,62c53a22f93e51d4ae53c7c3,2022-07-06_09h31.03.505,Colour_Asymmetry_Pilot,2022.1.3,Win32,59.8372427,62c50e9c1127f2cd403a315f,0,125,125,2,1,twoone,,,,,,,,,,,,,,,,,,,,,,,,,,,,,,,,,,,,,,,,,,,,,,,,,,,,,,,,,,,,,,,,,,,,,,,,,,,,,,,,,,,,,,,,,,,,,,,,,,,,,,,,,,,,,,,,,,,,,,,,,,,,,,,,,,,,,,,,,,,,,,,,,,,,,,,,,,,,,
,,,,,,56a5684481a8ca000d3e544f,62c53a22f93e51d4ae53c7c3,2022-07-06_09h31.03.505,Colour_Asymmetry_Pilot,2022.1.3,Win32,59.8372427,62c50e9c1127f2cd403a315f,0,126,126,137,1,onethree,,,,,,,,,,,,,,,,,,,,,,,,,,,,,,,,,,,,,,,,,,,,,,,,,,,,,,,,,,,,,,,,,,,,,,,,,,,,,,,,,,,,,,,,,,,,,,,,,,,,,,,,,,,,,,,,,,,,,,,,,,,,,,,,,,,,,,,,,,,,,,,,,,,,,,,,,,,,,
,,,,,,56a5684481a8ca000d3e544f,62c53a22f93e51d4ae53c7c3,2022-07-06_09h31.03.505,Colour_Asymmetry_Pilot,2022.1.3,Win32,59.8372427,62c50e9c1127f2cd403a315f,0,127,127,159,1,fourthree,,,,,,,,,,,,,,,,,,,,,,,,,,,,,,,,,,,,,,,,,,,,,,,,,,,,,,,,,,,,,,,,,,,,,,,,,,,,,,,,,,,,,,,,,,,,,,,,,,,,,,,,,,,,,,,,,,,,,,,,,,,,,,,,,,,,,,,,,,,,,,,,,,,,,,,,,,,,,
,,,,,,56a5684481a8ca000d3e544f,62c53a22f93e51d4ae53c7c3,2022-07-06_09h31.03.505,Colour_Asymmetry_Pilot,2022.1.3,Win32,59.8372427,62c50e9c1127f2cd403a315f,0,128,128,109,1,threefour,,,,,,,,,,,,,,,,,,,,,,,,,,,,,,,,,,,,,,,,,,,,,,,,,,,,,,,,,,,,,,,,,,,,,,,,,,,,,,,,,,,,,,,,,,,,,,,,,,,,,,,,,,,,,,,,,,,,,,,,,,,,,,,,,,,,,,,,,,,,,,,,,,,,,,,,,,,,,
,,,,,,56a5684481a8ca000d3e544f,62c53a22f93e51d4ae53c7c3,2022-07-06_09h31.03.505,Colour_Asymmetry_Pilot,2022.1.3,Win32,59.8372427,62c50e9c1127f2cd403a315f,0,129,129,106,1,twoone,,,,,,,,,,,,,,,,,,,,,,,,,,,,,,,,,,,,,,,,,,,,,,,,,,,,,,,,,,,,,,,,,,,,,,,,,,,,,,,,,,,,,,,,,,,,,,,,,,,,,,,,,,,,,,,,,,,,,,,,,,,,,,,,,,,,,,,,,,,,,,,,,,,,,,,,,,,,,
,,,,,,56a5684481a8ca000d3e544f,62c53a22f93e51d4ae53c7c3,2022-07-06_09h31.03.505,Colour_Asymmetry_Pilot,2022.1.3,Win32,59.8372427,62c50e9c1127f2cd403a315f,0,130,130,9,1,onethree,,,,,,,,,,,,,,,,,,,,,,,,,,,,,,,,,,,,,,,,,,,,,,,,,,,,,,,,,,,,,,,,,,,,,,,,,,,,,,,,,,,,,,,,,,,,,,,,,,,,,,,,,,,,,,,,,,,,,,,,,,,,,,,,,,,,,,,,,,,,,,,,,,,,,,,,,,,,,
,,,,,,56a5684481a8ca000d3e544f,62c53a22f93e51d4ae53c7c3,2022-07-06_09h31.03.505,Colour_Asymmetry_Pilot,2022.1.3,Win32,59.8372427,62c50e9c1127f2cd403a315f,0,131,131,19,1,twofour,,,,,,,,,,,,,,,,,,,,,,,,,,,,,,,,,,,,,,,,,,,,,,,,,,,,,,,,,,,,,,,,,,,,,,,,,,,,,,,,,,,,,,,,,,,,,,,,,,,,,,,,,,,,,,,,,,,,,,,,,,,,,,,,,,,,,,,,,,,,,,,,,,,,,,,,,,,,,
,,,,,,56a5684481a8ca000d3e544f,62c53a22f93e51d4ae53c7c3,2022-07-06_09h31.03.505,Colour_Asymmetry_Pilot,2022.1.3,Win32,59.8372427,62c50e9c1127f2cd403a315f,0,132,132,135,1,fourthree,,,,,,,,,,,,,,,,,,,,,,,,,,,,,,,,,,,,,,,,,,,,,,,,,,,,,,,,,,,,,,,,,,,,,,,,,,,,,,,,,,,,,,,,,,,,,,,,,,,,,,,,,,,,,,,,,,,,,,,,,,,,,,,,,,,,,,,,,,,,,,,,,,,,,,,,,,,,,
,,,,,,56a5684481a8ca000d3e544f,62c53a22f93e51d4ae53c7c3,2022-07-06_09h31.03.505,Colour_Asymmetry_Pilot,2022.1.3,Win32,59.8372427,62c50e9c1127f2cd403a315f,0,133,133,101,1,threefour,,,,,,,,,,,,,,,,,,,,,,,,,,,,,,,,,,,,,,,,,,,,,,,,,,,,,,,,,,,,,,,,,,,,,,,,,,,,,,,,,,,,,,,,,,,,,,,,,,,,,,,,,,,,,,,,,,,,,,,,,,,,,,,,,,,,,,,,,,,,,,,,,,,,,,,,,,,,,
,,,,,,56a5684481a8ca000d3e544f,62c53a22f93e51d4ae53c7c3,2022-07-06_09h31.03.505,Colour_Asymmetry_Pilot,2022.1.3,Win32,59.8372427,62c50e9c1127f2cd403a315f,0,134,134,138,1,twoone,,,,,,,,,,,,,,,,,,,,,,,,,,,,,,,,,,,,,,,,,,,,,,,,,,,,,,,,,,,,,,,,,,,,,,,,,,,,,,,,,,,,,,,,,,,,,,,,,,,,,,,,,,,,,,,,,,,,,,,,,,,,,,,,,,,,,,,,,,,,,,,,,,,,,,,,,,,,,
,,,,,,56a5684481a8ca000d3e544f,62c53a22f93e51d4ae53c7c3,2022-07-06_09h31.03.505,Colour_Asymmetry_Pilot,2022.1.3,Win32,59.8372427,62c50e9c1127f2cd403a315f,0,135,135,102,1,fourtwo,,,,,,,,,,,,,,,,,,,,,,,,,,,,,,,,,,,,,,,,,,,,,,,,,,,,,,,,,,,,,,,,,,,,,,,,,,,,,,,,,,,,,,,,,,,,,,,,,,,,,,,,,,,,,,,,,,,,,,,,,,,,,,,,,,,,,,,,,,,,,,,,,,,,,,,,,,,,,
,,,,,,56a5684481a8ca000d3e544f,62c53a22f93e51d4ae53c7c3,2022-07-06_09h31.03.505,Colour_Asymmetry_Pilot,2022.1.3,Win32,59.8372427,62c50e9c1127f2cd403a315f,0,136,136,20,1,threeone,,,,,,,,,,,,,,,,,,,,,,,,,,,,,,,,,,,,,,,,,,,,,,,,,,,,,,,,,,,,,,,,,,,,,,,,,,,,,,,,,,,,,,,,,,,,,,,,,,,,,,,,,,,,,,,,,,,,,,,,,,,,,,,,,,,,,,,,,,,,,,,,,,,,,,,,,,,,,
,,,,,,56a5684481a8ca000d3e544f,62c53a22f93e51d4ae53c7c3,2022-07-06_09h31.03.505,Colour_Asymmetry_Pilot,2022.1.3,Win32,59.8372427,62c50e9c1127f2cd403a315f,0,137,137,82,1,twoone,,,,,,,,,,,,,,,,,,,,,,,,,,,,,,,,,,,,,,,,,,,,,,,,,,,,,,,,,,,,,,,,,,,,,,,,,,,,,,,,,,,,,,,,,,,,,,,,,,,,,,,,,,,,,,,,,,,,,,,,,,,,,,,,,,,,,,,,,,,,,,,,,,,,,,,,,,,,,
,,,,,,56a5684481a8ca000d3e544f,62c53a22f93e51d4ae53c7c3,2022-07-06_09h31.03.505,Colour_Asymmetry_Pilot,2022.1.3,Win32,59.8372427,62c50e9c1127f2cd403a315f,0,138,138,23,1,fourthree,,,,,,,,,,,,,,,,,,,,,,,,,,,,,,,,,,,,,,,,,,,,,,,,,,,,,,,,,,,,,,,,,,,,,,,,,,,,,,,,,,,,,,,,,,,,,,,,,,,,,,,,,,,,,,,,,,,,,,,,,,,,,,,,,,,,,,,,,,,,,,,,,,,,,,,,,,,,,
,,,,,,56a5684481a8ca000d3e544f,62c53a22f93e51d4ae53c7c3,2022-07-06_09h31.03.505,Colour_Asymmetry_Pilot,2022.1.3,Win32,59.8372427,62c50e9c1127f2cd403a315f,0,139,139,27,1,twofour,,,,,,,,,,,,,,,,,,,,,,,,,,,,,,,,,,,,,,,,,,,,,,,,,,,,,,,,,,,,,,,,,,,,,,,,,,,,,,,,,,,,,,,,,,,,,,,,,,,,,,,,,,,,,,,,,,,,,,,,,,,,,,,,,,,,,,,,,,,,,,,,,,,,,,,,,,,,,
,,,,,,56a5684481a8ca000d3e544f,62c53a22f93e51d4ae53c7c3,2022-07-06_09h31.03.505,Colour_Asymmetry_Pilot,2022.1.3,Win32,59.8372427,62c50e9c1127f2cd403a315f,0,140,140,80,1,onetwo,,,,,,,,,,,,,,,,,,,,,,,,,,,,,,,,,,,,,,,,,,,,,,,,,,,,,,,,,,,,,,,,,,,,,,,,,,,,,,,,,,,,,,,,,,,,,,,,,,,,,,,,,,,,,,,,,,,,,,,,,,,,,,,,,,,,,,,,,,,,,,,,,,,,,,,,,,,,,
,,,,,,56a5684481a8ca000d3e544f,62c53a22f93e51d4ae53c7c3,2022-07-06_09h31.03.505,Colour_Asymmetry_Pilot,2022.1.3,Win32,59.8372427,62c50e9c1127f2cd403a315f,0,141,141,89,1,onethree,,,,,,,,,,,,,,,,,,,,,,,,,,,,,,,,,,,,,,,,,,,,,,,,,,,,,,,,,,,,,,,,,,,,,,,,,,,,,,,,,,,,,,,,,,,,,,,,,,,,,,,,,,,,,,,,,,,,,,,,,,,,,,,,,,,,,,,,,,,,,,,,,,,,,,,,,,,,,
,,,,,,56a5684481a8ca000d3e544f,62c53a22f93e51d4ae53c7c3,2022-07-06_09h31.03.505,Colour_Asymmetry_Pilot,2022.1.3,Win32,59.8372427,62c50e9c1127f2cd403a315f,0,142,142,87,1,fourthree,,,,,,,,,,,,,,,,,,,,,,,,,,,,,,,,,,,,,,,,,,,,,,,,,,,,,,,,,,,,,,,,,,,,,,,,,,,,,,,,,,,,,,,,,,,,,,,,,,,,,,,,,,,,,,,,,,,,,,,,,,,,,,,,,,,,,,,,,,,,,,,,,,,,,,,,,,,,,
,,,,,,56a5684481a8ca000d3e544f,62c53a22f93e51d4ae53c7c3,2022-07-06_09h31.03.505,Colour_Asymmetry_Pilot,2022.1.3,Win32,59.8372427,62c50e9c1127f2cd403a315f,0,143,143,5,1,threefour,,,,,,,,,,,,,,,,,,,,,,,,,,,,,,,,,,,,,,,,,,,,,,,,,,,,,,,,,,,,,,,,,,,,,,,,,,,,,,,,,,,,,,,,,,,,,,,,,,,,,,,,,,,,,,,,,,,,,,,,,,,,,,,,,,,,,,,,,,,,,,,,,,,,,,,,,,,,,
,,,,,,56a5684481a8ca000d3e544f,62c53a22f93e51d4ae53c7c3,2022-07-06_09h31.03.505,Colour_Asymmetry_Pilot,2022.1.3,Win32,59.8372427,62c50e9c1127f2cd403a315f,0,144,144,132,1,threeone,,,,,,,,,,,,,,,,,,,,,,,,,,,,,,,,,,,,,,,,,,,,,,,,,,,,,,,,,,,,,,,,,,,,,,,,,,,,,,,,,,,,,,,,,,,,,,,,,,,,,,,,,,,,,,,,,,,,,,,,,,,,,,,,,,,,,,,,,,,,,,,,,,,,,,,,,,,,,
,,,,,,56a5684481a8ca000d3e544f,62c53a22f93e51d4ae53c7c3,2022-07-06_09h31.03.505,Colour_Asymmetry_Pilot,2022.1.3,Win32,59.8372427,62c50e9c1127f2cd403a315f,0,145,145,119,1,fourthree,,,,,,,,,,,,,,,,,,,,,,,,,,,,,,,,,,,,,,,,,,,,,,,,,,,,,,,,,,,,,,,,,,,,,,,,,,,,,,,,,,,,,,,,,,,,,,,,,,,,,,,,,,,,,,,,,,,,,,,,,,,,,,,,,,,,,,,,,,,,,,,,,,,,,,,,,,,,,
,,,,,,56a5684481a8ca000d3e544f,62c53a22f93e51d4ae53c7c3,2022-07-06_09h31.03.505,Colour_Asymmetry_Pilot,2022.1.3,Win32,59.8372427,62c50e9c1127f2cd403a315f,0,146,146,12,1,threeone,,,,,,,,,,,,,,,,,,,,,,,,,,,,,,,,,,,,,,,,,,,,,,,,,,,,,,,,,,,,,,,,,,,,,,,,,,,,,,,,,,,,,,,,,,,,,,,,,,,,,,,,,,,,,,,,,,,,,,,,,,,,,,,,,,,,,,,,,,,,,,,,,,,,,,,,,,,,,
,,,,,,56a5684481a8ca000d3e544f,62c53a22f93e51d4ae53c7c3,2022-07-06_09h31.03.505,Colour_Asymmetry_Pilot,2022.1.3,Win32,59.8372427,62c50e9c1127f2cd403a315f,0,147,147,120,1,onetwo,,,,,,,,,,,,,,,,,,,,,,,,,,,,,,,,,,,,,,,,,,,,,,,,,,,,,,,,,,,,,,,,,,,,,,,,,,,,,,,,,,,,,,,,,,,,,,,,,,,,,,,,,,,,,,,,,,,,,,,,,,,,,,,,,,,,,,,,,,,,,,,,,,,,,,,,,,,,,
,,,,,,56a5684481a8ca000d3e544f,62c53a22f93e51d4ae53c7c3,2022-07-06_09h31.03.505,Colour_Asymmetry_Pilot,2022.1.3,Win32,59.8372427,62c50e9c1127f2cd403a315f,0,148,148,130,1,twoone,,,,,,,,,,,,,,,,,,,,,,,,,,,,,,,,,,,,,,,,,,,,,,,,,,,,,,,,,,,,,,,,,,,,,,,,,,,,,,,,,,,,,,,,,,,,,,,,,,,,,,,,,,,,,,,,,,,,,,,,,,,,,,,,,,,,,,,,,,,,,,,,,,,,,,,,,,,,,
,,,,,,56a5684481a8ca000d3e544f,62c53a22f93e51d4ae53c7c3,2022-07-06_09h31.03.505,Colour_Asymmetry_Pilot,2022.1.3,Win32,59.8372427,62c50e9c1127f2cd403a315f,0,149,149,155,1,twofour,,,,,,,,,,,,,,,,,,,,,,,,,,,,,,,,,,,,,,,,,,,,,,,,,,,,,,,,,,,,,,,,,,,,,,,,,,,,,,,,,,,,,,,,,,,,,,,,,,,,,,,,,,,,,,,,,,,,,,,,,,,,,,,,,,,,,,,,,,,,,,,,,,,,,,,,,,,,,
,,,,,,56a5684481a8ca000d3e544f,62c53a22f93e51d4ae53c7c3,2022-07-06_09h31.03.505,Colour_Asymmetry_Pilot,2022.1.3,Win32,59.8372427,62c50e9c1127f2cd403a315f,0,150,150,63,1,fourthree,,,,,,,,,,,,,,,,,,,,,,,,,,,,,,,,,,,,,,,,,,,,,,,,,,,,,,,,,,,,,,,,,,,,,,,,,,,,,,,,,,,,,,,,,,,,,,,,,,,,,,,,,,,,,,,,,,,,,,,,,,,,,,,,,,,,,,,,,,,,,,,,,,,,,,,,,,,,,
,,,,,,56a5684481a8ca000d3e544f,62c53a22f93e51d4ae53c7c3,2022-07-06_09h31.03.505,Colour_Asymmetry_Pilot,2022.1.3,Win32,59.8372427,62c50e9c1127f2cd403a315f,0,151,151,85,1,threefour,,,,,,,,,,,,,,,,,,,,,,,,,,,,,,,,,,,,,,,,,,,,,,,,,,,,,,,,,,,,,,,,,,,,,,,,,,,,,,,,,,,,,,,,,,,,,,,,,,,,,,,,,,,,,,,,,,,,,,,,,,,,,,,,,,,,,,,,,,,,,,,,,,,,,,,,,,,,,
,,,,,,56a5684481a8ca000d3e544f,62c53a22f93e51d4ae53c7c3,2022-07-06_09h31.03.505,Colour_Asymmetry_Pilot,2022.1.3,Win32,59.8372427,62c50e9c1127f2cd403a315f,0,152,152,7,1,fourthree,,,,,,,,,,,,,,,,,,,,,,,,,,,,,,,,,,,,,,,,,,,,,,,,,,,,,,,,,,,,,,,,,,,,,,,,,,,,,,,,,,,,,,,,,,,,,,,,,,,,,,,,,,,,,,,,,,,,,,,,,,,,,,,,,,,,,,,,,,,,,,,,,,,,,,,,,,,,,
,,,,,,56a5684481a8ca000d3e544f,62c53a22f93e51d4ae53c7c3,2022-07-06_09h31.03.505,Colour_Asymmetry_Pilot,2022.1.3,Win32,59.8372427,62c50e9c1127f2cd403a315f,0,153,153,131,1,twofour,,,,,,,,,,,,,,,,,,,,,,,,,,,,,,,,,,,,,,,,,,,,,,,,,,,,,,,,,,,,,,,,,,,,,,,,,,,,,,,,,,,,,,,,,,,,,,,,,,,,,,,,,,,,,,,,,,,,,,,,,,,,,,,,,,,,,,,,,,,,,,,,,,,,,,,,,,,,,
,,,,,,56a5684481a8ca000d3e544f,62c53a22f93e51d4ae53c7c3,2022-07-06_09h31.03.505,Colour_Asymmetry_Pilot,2022.1.3,Win32,59.8372427,62c50e9c1127f2cd403a315f,0,154,154,41,1,onethree,,,,,,,,,,,,,,,,,,,,,,,,,,,,,,,,,,,,,,,,,,,,,,,,,,,,,,,,,,,,,,,,,,,,,,,,,,,,,,,,,,,,,,,,,,,,,,,,,,,,,,,,,,,,,,,,,,,,,,,,,,,,,,,,,,,,,,,,,,,,,,,,,,,,,,,,,,,,,
,,,,,,56a5684481a8ca000d3e544f,62c53a22f93e51d4ae53c7c3,2022-07-06_09h31.03.505,Colour_Asymmetry_Pilot,2022.1.3,Win32,59.8372427,62c50e9c1127f2cd403a315f,0,155,155,57,1,onethree,,,,,,,,,,,,,,,,,,,,,,,,,,,,,,,,,,,,,,,,,,,,,,,,,,,,,,,,,,,,,,,,,,,,,,,,,,,,,,,,,,,,,,,,,,,,,,,,,,,,,,,,,,,,,,,,,,,,,,,,,,,,,,,,,,,,,,,,,,,,,,,,,,,,,,,,,,,,,
,,,,,,56a5684481a8ca000d3e544f,62c53a22f93e51d4ae53c7c3,2022-07-06_09h31.03.505,Colour_Asymmetry_Pilot,2022.1.3,Win32,59.8372427,62c50e9c1127f2cd403a315f,0,156,156,30,1,fourtwo,,,,,,,,,,,,,,,,,,,,,,,,,,,,,,,,,,,,,,,,,,,,,,,,,,,,,,,,,,,,,,,,,,,,,,,,,,,,,,,,,,,,,,,,,,,,,,,,,,,,,,,,,,,,,,,,,,,,,,,,,,,,,,,,,,,,,,,,,,,,,,,,,,,,,,,,,,,,,
,,,,,,56a5684481a8ca000d3e544f,62c53a22f93e51d4ae53c7c3,2022-07-06_09h31.03.505,Colour_Asymmetry_Pilot,2022.1.3,Win32,59.8372427,62c50e9c1127f2cd403a315f,0,157,157,122,1,twoone,,,,,,,,,,,,,,,,,,,,,,,,,,,,,,,,,,,,,,,,,,,,,,,,,,,,,,,,,,,,,,,,,,,,,,,,,,,,,,,,,,,,,,,,,,,,,,,,,,,,,,,,,,,,,,,,,,,,,,,,,,,,,,,,,,,,,,,,,,,,,,,,,,,,,,,,,,,,,
,,,,,,56a5684481a8ca000d3e544f,62c53a22f93e51d4ae53c7c3,2022-07-06_09h31.03.505,Colour_Asymmetry_Pilot,2022.1.3,Win32,59.8372427,62c50e9c1127f2cd403a315f,0,158,158,88,1,onetwo,,,,,,,,,,,,,,,,,,,,,,,,,,,,,,,,,,,,,,,,,,,,,,,,,,,,,,,,,,,,,,,,,,,,,,,,,,,,,,,,,,,,,,,,,,,,,,,,,,,,,,,,,,,,,,,,,,,,,,,,,,,,,,,,,,,,,,,,,,,,,,,,,,,,,,,,,,,,,
,,,,,,56a5684481a8ca000d3e544f,62c53a22f93e51d4ae53c7c3,2022-07-06_09h31.03.505,Colour_Asymmetry_Pilot,2022.1.3,Win32,59.8372427,62c50e9c1127f2cd403a315f,0,159,159,24,1,onetwo,,,,,,,,,,,,,,,,,,,,,,,,,,,,,,,,,,,,,,,,,,,,,,,,,,,,,,,,,,,,,,,,,,,,,,,,,,,,,,,,,,,,,,,,,,,,,,,,,,,,,,,,,,,,,,,,,,,,,,,,,,,,,,,,,,,,,,,,,,,,,,,,,,,,,,,,,,,,,
,,,,,,56a5684481a8ca000d3e544f,62c53a22f93e51d4ae53c7c3,2022-07-06_09h31.03.505,Colour_Asymmetry_Pilot,2022.1.3,Win32,59.8372427,62c50e9c1127f2cd403a315f,0,160,160,95,1,fourthree,,,,,,,,,,,,,,,,,,,,,,,,,,,,,,,,,,,,,,,,,,,,,,,,,,,,,,,,,,,,,,,,,,,,,,,,,,,,,,,,,,,,,,,,,,,,,,,,,,,,,,,,,,,,,,,,,,,,,,,,,,,,,,,,,,,,,,,,,,,,,,,,,,,,,,,,,,,,,
,,,,,,56a5684481a8ca000d3e544f,62c53a22f93e51d4ae53c7c3,2022-07-06_09h31.03.505,Colour_Asymmetry_Pilot,2022.1.3,Win32,59.8372427,62c50e9c1127f2cd403a315f,0,161,161,133,1,threefour,,,,,,,,,,,,,,,,,,,,,,,,,,,,,,,,,,,,,,,,,,,,,,,,,,,,,,,,,,,,,,,,,,,,,,,,,,,,,,,,,,,,,,,,,,,,,,,,,,,,,,,,,,,,,,,,,,,,,,,,,,,,,,,,,,,,,,,,,,,,,,,,,,,,,,,,,,,,,
,,,,,,56a5684481a8ca000d3e544f,62c53a22f93e51d4ae53c7c3,2022-07-06_09h31.03.505,Colour_Asymmetry_Pilot,2022.1.3,Win32,59.8372427,62c50e9c1127f2cd403a315f,,,,,,,space,5.1899,space,4.5677,space,23.0457,space,20.0039,space,3.1619,space,4.9812,"[0.04299999999999993,0.16060000000000008,-0.6628000000000001]",onetwo,"[-0.5452,-0.608,0.2470000000000001]",-1,4.8692,-41,-94,1,0,0,response5disk_5,-7,7,1,0,0,rectangle_8,-7,7,1,0,0,4,-7,7,1,0,0,0,0,0,0,1,,,,,,,,,,,,,,,,,,,,,,,,,,,,,,,,,,,,,,,,,,,,,,,,,,,,,,,,,,,,,,,,,,,,,,,,,,,,,,,,,,,,,,,,,,,,,,,,,,,,,,,,,,,,,,,,
,,,,,,56a5684481a8ca000d3e544f,62c53a22f93e51d4ae53c7c3,2022-07-06_09h31.03.505,Colour_Asymmetry_Pilot,2022.1.3,Win32,59.8372427,62c50e9c1127f2cd403a315f,,,,,,,,,,,,,,,,,,,"[-0.2942,-0.7648,-0.7492000000000001]",twofour,"[0.12939999999999996,-0.2864,0.3253999999999999]",2,3.2274,83,-47,1,0,0,response3disk_5,-15,2,1,0,0,rectangle_8,-15,2,1,0,0,4,-15,2,1,0,0,1,0,1,0,1,,,,,,,,,,,,,,,,,,,,,,,,,,,,,,,,,,,,,,,,,,,,,,,,,,,,,,,,,,,,,,,,,,,,,,,,,,,,,,,,,,,,,,,,,,,,,,,,,,,,,,,,,,,,,,,,
,,,,,,56a5684481a8ca000d3e544f,62c53a22f93e51d4ae53c7c3,2022-07-06_09h31.03.505,Colour_Asymmetry_Pilot,2022.1.3,Win32,59.8372427,62c50e9c1127f2cd403a315f,,,,,,,,,,,,,,,,,,,"[-0.10599999999999998,-0.10599999999999998,0.5841999999999998]",twofour,"[0.9763999999999999,0.30979999999999985,-0.6786]",-1,1.2048,-39,-81,1,0,0,response5disk_5,-16,4,1,0,0,rectangle_8,-16,4,1,0,0,4,-16,4,1,0,0,2,0,2,0,1,,,,,,,,,,,,,,,,,,,,,,,,,,,,,,,,,,,,,,,,,,,,,,,,,,,,,,,,,,,,,,,,,,,,,,,,,,,,,,,,,,,,,,,,,,,,,,,,,,,,,,,,,,,,,,,,
,,,,,,56a5684481a8ca000d3e544f,62c53a22f93e51d4ae53c7c3,2022-07-06_09h31.03.505,Colour_Asymmetry_Pilot,2022.1.3,Win32,59.8372427,62c50e9c1127f2cd403a315f,,,,,,,,,,,,,,,,,,,"[-0.4746,-0.0354000000000001,0.5449999999999999]",onethree,"[-0.06680000000000008,-0.45100000000000007,-0.906]",-1,1.3215,-41,-85,1,0,0,response5disk_5,-6,-5,1,0,0,rectangle_8,-6,-5,1,0,0,4,-6,-5,1,0,0,3,0,3,0,1,,,,,,,,,,,,,,,,,,,,,,,,,,,,,,,,,,,,,,,,,,,,,,,,,,,,,,,,,,,,,,,,,,,,,,,,,,,,,,,,,,,,,,,,,,,,,,,,,,,,,,,,,,,,,,,,
,,,,,,56a5684481a8ca000d3e544f,62c53a22f93e51d4ae53c7c3,2022-07-06_09h31.03.505,Colour_Asymmetry_Pilot,2022.1.3,Win32,59.8372427,62c50e9c1127f2cd403a315f,,,,,,,,,,,,,,,,,,,"[-0.26280000000000003,-0.2158,-0.3256]",fourtwo,"[0.34099999999999997,0.12939999999999996,-0.9766]",-1,1.7389,-66,-99,1,0,0,response5disk_5,-6,2,1,0,0,rectangle_8,36,91,1,0,0,4,-16,4,1,0,0,4,0,4,0,1,response1disk_7,7,rectangle_4,,,,,,,,,,,,,,,,,,,,,,,,,,,,,,,,,,,,,,,,,,,,,,,,,,,,,,,,,,,,,,,,,,,,,,,,,,,,,,,,,,,,,,,,,,,,,,,,,,,,,,,,,,,,,
,,,,,,56a5684481a8ca000d3e544f,62c53a22f93e51d4ae53c7c3,2022-07-06_09h31.03.505,Colour_Asymmetry_Pilot,2022.1.3,Win32,59.8372427,62c50e9c1127f2cd403a315f,,,,,,,,,,,,,,,,,,,"[0.9763999999999999,-0.1137999999999999,-0.6314]",twoone,"[-0.2942,-0.24719999999999998,-0.357]",-1,1.07,-29,-81,1,0,0,response5disk_5,12,2,1,0,0,rectangle_8,30,85,1,0,0,4,6,7,1,0,0,5,0,5,0,1,response1disk_7,7,rectangle_4,,,,,,,,,,,,,,,,,,,,,,,,,,,,,,,,,,,,,,,,,,,,,,,,,,,,,,,,,,,,,,,,,,,,,,,,,,,,,,,,,,,,,,,,,,,,,,,,,,,,,,,,,,,,,
,,,,,,56a5684481a8ca000d3e544f,62c53a22f93e51d4ae53c7c3,2022-07-06_09h31.03.505,Colour_Asymmetry_Pilot,2022.1.3,Win32,59.8372427,62c50e9c1127f2cd403a315f,,,,,,,,,,,,,,,,,,,"[0.8115999999999999,-0.0040000000000000036,-0.09819999999999995]",threeone,"[-0.011800000000000033,-0.906,-0.45100000000000007]",2,2.9936,97,-48,1,0,0,response3disk_5,5,2,1,0,0,rectangle_8,5,2,1,0,0,4,5,2,1,0,0,6,0,6,0,1,,,,,,,,,,,,,,,,,,,,,,,,,,,,,,,,,,,,,,,,,,,,,,,,,,,,,,,,,,,,,,,,,,,,,,,,,,,,,,,,,,,,,,,,,,,,,,,,,,,,,,,,,,,,,,,,
,,,,,,56a5684481a8ca000d3e544f,62c53a22f93e51d4ae53c7c3,2022-07-06_09h31.03.505,Colour_Asymmetry_Pilot,2022.1.3,Win32,59.8372427,62c50e9c1127f2cd403a315f,,,,,,,,,,,,,,,,,,,,onetwo,,-1,1.5391,,,,,,,,,,,,,,,,,,,,,,,,,,,,,,,,space,3.6551,"[-0.9766,-0.6472,0.07440000000000002]","[0.37240000000000006,0.4980000000000002,-0.2864]",-49,-63,1,0,0,response5disk,-1,5,1,0,0,rectangle,91,-34,1,0,0,response3disk_3,2,2,2.7265,1,-16,8,1,0,0,rectangle,0,0,0,55,1,55,first,,,,,,,,,,,,,,,,,,,,,,,,,,,,,,,,,,,,,,,,,,,,,,,,,,,,,,,,,,,,,,,,,,,,,,
,,,,,,56a5684481a8ca000d3e544f,62c53a22f93e51d4ae53c7c3,2022-07-06_09h31.03.505,Colour_Asymmetry_Pilot,2022.1.3,Win32,59.8372427,62c50e9c1127f2cd403a315f,,,,,,,,,,,,,,,,,,,,twoone,,-3,4.9173,,,,,,,,,,,,,,,,,,,,,,,,,,,,,,,,,,"[0.23920000000000008,0.2704,0.16060000000000008]","[0.19199999999999995,0.18419999999999992,0.5136000000000001]",-122,23,1,0,0,response7disk,-4,7,1,0,0,rectangle,33,-106,1,0,0,response3disk_3,1,1,2.3399,1,-15,9,1,0,0,rectangle,0,1,1,159,1,78,second,,,,,,,,,,,,,,,,,,,,,,,,,,,,,,,,,,,,,,,,,,,,,,,,,,,,,,,,,,,,,,,,,,,,,,
,,,,,,56a5684481a8ca000d3e544f,62c53a22f93e51d4ae53c7c3,2022-07-06_09h31.03.505,Colour_Asymmetry_Pilot,2022.1.3,Win32,59.8372427,62c50e9c1127f2cd403a315f,,,,,,,,,,,,,,,,,,,,onethree,,-1,1.3045,,,,,,,,,,,,,,,,,,,,,,,,,,,,,,,,,,"[0.0351999999999999,0.41159999999999997,0.0038000000000000256]","[-0.9766,-0.6472,0.07440000000000002]",-44,-97,1,0,0,response5disk,-8,4,1,0,0,rectangle,-8,4,1,0,0,,1,3,0.0034,0,-8,4,1,0,0,,0,2,2,63,1,63,first,,,,,,,,,,,,,,,,,,,,,,,,,,,,,,,,,,,,,,,,,,,,,,,,,,,,,,,,,,,,,,,,,,,,,,
,,,,,,56a5684481a8ca000d3e544f,62c53a22f93e51d4ae53c7c3,2022-07-06_09h31.03.505,Colour_Asymmetry_Pilot,2022.1.3,Win32,59.8372427,62c50e9c1127f2cd403a315f,,,,,,,,,,,,,,,,,,,,twoone,,-1,0.736,,,,,,,,,,,,,,,,,,,,,,,,,,,,,,,,,,"[-0.06680000000000008,-0.45100000000000007,-0.906]","[-0.09019999999999995,0.44300000000000006,0.5371999999999999]",-46,-94,1,0,0,response5disk,-5,3,1,0,0,rectangle,88,32,1,0,0,response1disk_3,3,3,2.2577,1,-20,5,1,0,0,rectangle,0,3,3,160,1,79,second,,,,,,,,,,,,,,,,,,,,,,,,,,,,,,,,,,,,,,,,,,,,,,,,,,,,,,,,,,,,,,,,,,,,,,
,,,,,,56a5684481a8ca000d3e544f,62c53a22f93e51d4ae53c7c3,2022-07-06_09h31.03.505,Colour_Asymmetry_Pilot,2022.1.3,Win32,59.8372427,62c50e9c1127f2cd403a315f,,,,,,,,,,,,,,,,,,,,onetwo,,-3,2.2575,,,,,,,,,,,,,,,,,,,,,,,,,,,,,,,,,,"[-0.26280000000000003,-0.2158,-0.3256]","[-0.34920000000000007,-0.702,-0.5216]",-82,39,1,0,0,response7disk,1,5,1,0,0,rectangle,1,5,1,0,0,,3,2,0.0007,0,1,5,1,0,0,,0,4,4,12,1,12,first,,,,,,,,,,,,,,,,,,,,,,,,,,,,,,,,,,,,,,,,,,,,,,,,,,,,,,,,,,,,,,,,,,,,,,
,,,,,,56a5684481a8ca000d3e544f,62c53a22f93e51d4ae53c7c3,2022-07-06_09h31.03.505,Colour_Asymmetry_Pilot,2022.1.3,Win32,59.8372427,62c50e9c1127f2cd403a315f,,,,,,,,,,,,,,,,,,,,threefour,,2,2.2413,,,,,,,,,,,,,,,,,,,,,,,,,,,,,,,,,,"[-0.5452,-0.608,0.2470000000000001]","[0.09799999999999986,-0.24719999999999998,0.15280000000000005]",92,-19,1,0,0,response3disk,1,4,1,0,0,rectangle,1,4,1,0,0,,3,1,0.0022,0,1,4,1,0,0,,0,5,5,133,1,52,second,,,,,,,,,,,,,,,,,,,,,,,,,,,,,,,,,,,,,,,,,,,,,,,,,,,,,,,,,,,,,,,,,,,,,,
,,,,,,56a5684481a8ca000d3e544f,62c53a22f93e51d4ae53c7c3,2022-07-06_09h31.03.505,Colour_Asymmetry_Pilot,2022.1.3,Win32,59.8372427,62c50e9c1127f2cd403a315f,,,,,,,,,,,,,,,,,,,,twofour,,4,3.0777,,,,,,,,,,,,,,,,,,,,,,,,,,,,,,,,,,"[-0.9688,-0.4902000000000001,-0.12159999999999993]","[-0.48240000000000005,0.3175999999999999,0.2156]",38,98,1,0,0,response1disk,-7,6,1,0,0,rectangle,-7,6,1,0,0,,3,2,0.0022,0,-7,6,1,0,0,,0,6,6,71,1,71,first,,,,,,,,,,,,,,,,,,,,,,,,,,,,,,,,,,,,,,,,,,,,,,,,,,,,,,,,,,,,,,,,,,,,,,
,,,,,,56a5684481a8ca000d3e544f,62c53a22f93e51d4ae53c7c3,2022-07-06_09h31.03.505,Colour_Asymmetry_Pilot,2022.1.3,Win32,59.8372427,62c50e9c1127f2cd403a315f,,,,,,,,,,,,,,,,,,,,threeone,,2,2.7097,,,,,,,,,,,,,,,,,,,,,,,,,,,,,,,,,,"[0.37240000000000006,0.4980000000000002,-0.2864]","[-0.9688,-0.38039999999999996,-0.41979999999999995]",98,-40,1,0,0,response3disk,-13,2,1,0,0,rectangle,-13,2,1,0,0,,3,2,0.0003,0,-13,2,1,0,0,,0,7,7,156,1,75,second,,,,,,,,,,,,,,,,,,,,,,,,,,,,,,,,,,,,,,,,,,,,,,,,,,,,,,,,,,,,,,,,,,,,,,
,,,,,,56a5684481a8ca000d3e544f,62c53a22f93e51d4ae53c7c3,2022-07-06_09h31.03.505,Colour_Asymmetry_Pilot,2022.1.3,Win32,59.8372427,62c50e9c1127f2cd403a315f,,,,,,,,,,,,,,,,,,,,threeone,,2,1.1708,,,,,,,,,,,,,,,,,,,,,,,,,,,,,,,,,,"[-0.06680000000000008,-0.45100000000000007,-0.906]","[0.9686000000000001,0.3802000000000001,0.19999999999999996]",76,-30,1,0,0,response3disk,-11,-2,1,0,0,rectangle,-11,-2,1,0,0,,3,1,0.0021,0,-11,-2,1,0,0,,0,8,8,111,1,30,second,,,,,,,,,,,,,,,,,,,,,,,,,,,,,,,,,,,,,,,,,,,,,,,,,,,,,,,,,,,,,,,,,,,,,,
,,,,,,56a5684481a8ca000d3e544f,62c53a22f93e51d4ae53c7c3,2022-07-06_09h31.03.505,Colour_Asymmetry_Pilot,2022.1.3,Win32,59.8372427,62c50e9c1127f2cd403a315f,,,,,,,,,,,,,,,,,,,,fourthree,,-1,0.8364,,,,,,,,,,,,,,,,,,,,,,,,,,,,,,,,,,"[-0.07459999999999989,0.12139999999999995,-0.9922]","[0.7802,-0.23140000000000005,-0.20799999999999996]",-44,-81,1,0,0,response5disk,-7,-2,1,0,0,rectangle,-7,-2,1,0,0,,3,2,0.0012,0,-7,-2,1,0,0,,0,9,9,67,1,67,first,,,,,,,,,,,,,,,,,,,,,,,,,,,,,,,,,,,,,,,,,,,,,,,,,,,,,,,,,,,,,,,,,,,,,,
,,,,,,56a5684481a8ca000d3e544f,62c53a22f93e51d4ae53c7c3,2022-07-06_09h31.03.505,Colour_Asymmetry_Pilot,2022.1.3,Win32,59.8372427,62c50e9c1127f2cd403a315f,,,,,,,,,,,,,,,,,,,,onetwo,,-3,1.3047,,,,,,,,,,,,,,,,,,,,,,,,,,,,,,,,,,"[-0.9296,-0.12959999999999994,-0.043199999999999905]","[0.7018,0.7802,-0.16079999999999994]",-76,26,1,0,0,response7disk,10,4,1,0,0,rectangle,10,4,1,0,0,,3,1,0.002,0,10,4,1,0,0,,0,10,10,99,1,18,second,,,,,,,,,,,,,,,,,,,,,,,,,,,,,,,,,,,,,,,,,,,,,,,,,,,,,,,,,,,,,,,,,,,,,,
,,,,,,56a5684481a8ca000d3e544f,62c53a22f93e51d4ae53c7c3,2022-07-06_09h31.03.505,Colour_Asymmetry_Pilot,2022.1.3,Win32,59.8372427,62c50e9c1127f2cd403a315f,,,,,,,,,,,,,,,,,,,,threeone,,-1,0.6187,,,,,,,,,,,,,,,,,,,,,,,,,,,,,,,,,,"[0.6625999999999999,0.4980000000000002,-0.357]","[-0.2942,-0.24719999999999998,-0.357]",-38,-81,1,0,0,response5disk,2,8,1,0,0,rectangle,2,8,1,0,0,,3,1,0.0003,0,2,8,1,0,0,,0,11,11,107,1,26,second,,,,,,,,,,,,,,,,,,,,,,,,,,,,,,,,,,,,,,,,,,,,,,,,,,,,,,,,,,,,,,,,,,,,,,
,,,,,,56a5684481a8ca000d3e544f,62c53a22f93e51d4ae53c7c3,2022-07-06_09h31.03.505,Colour_Asymmetry_Pilot,2022.1.3,Win32,59.8372427,62c50e9c1127f2cd403a315f,,,,,,,,,,,,,,,,,,,,twofour,,-1,0.8701,,,,,,,,,,,,,,,,,,,,,,,,,,,,,,,,,,"[0.3568,-0.20799999999999996,-0.9844]","[-0.24719999999999998,0.5213999999999999,-0.12959999999999994]",-44,-98,1,0,0,response5disk,-3,-8,1,0,0,rectangle,-3,-8,1,0,0,,3,2,0.002,0,-3,-8,1,0,0,,0,12,12,157,1,76,second,,,,,,,,,,,,,,,,,,,,,,,,,,,,,,,,,,,,,,,,,,,,,,,,,,,,,,,,,,,,,,,,,,,,,,
,,,,,,56a5684481a8ca000d3e544f,62c53a22f93e51d4ae53c7c3,2022-07-06_09h31.03.505,Colour_Asymmetry_Pilot,2022.1.3,Win32,59.8372427,62c50e9c1127f2cd403a315f,,,,,,,,,,,,,,,,,,,,onetwo,,-1,1.1039,,,,,,,,,,,,,,,,,,,,,,,,,,,,,,,,,,"[-0.4746,-0.0354000000000001,0.5449999999999999]","[-0.24719999999999998,0.5213999999999999,-0.12959999999999994]",-42,-86,1,0,0,response5disk,-14,-2,1,0,0,rectangle,-14,-2,1,0,0,,3,2,0.0003,0,-14,-2,1,0,0,,0,13,13,138,1,57,second,,,,,,,,,,,,,,,,,,,,,,,,,,,,,,,,,,,,,,,,,,,,,,,,,,,,,,,,,,,,,,,,,,,,,,
,,,,,,56a5684481a8ca000d3e544f,62c53a22f93e51d4ae53c7c3,2022-07-06_09h31.03.505,Colour_Asymmetry_Pilot,2022.1.3,Win32,59.8372427,62c50e9c1127f2cd403a315f,,,,,,,,,,,,,,,,,,,,threeone,,-1,0.9869,,,,,,,,,,,,,,,,,,,,,,,,,,,,,,,,,,"[0.18419999999999992,-0.4276,-0.404]","[-0.26280000000000003,-0.2158,-0.3256]",-43,-91,1,0,0,response5disk,-10,-6,1,0,0,rectangle,-10,-6,1,0,0,,3,3,0.002,0,-10,-6,1,0,0,,0,14,14,118,1,37,second,,,,,,,,,,,,,,,,,,,,,,,,,,,,,,,,,,,,,,,,,,,,,,,,,,,,,,,,,,,,,,,,,,,,,,
,,,,,,56a5684481a8ca000d3e544f,62c53a22f93e51d4ae53c7c3,2022-07-06_09h31.03.505,Colour_Asymmetry_Pilot,2022.1.3,Win32,59.8372427,62c50e9c1127f2cd403a315f,,,,,,,,,,,,,,,,,,,,onethree,,-2,1.6727,,,,,,,,,,,,,,,,,,,,,,,,,,,,,,,,,,"[-0.6,0.16860000000000008,0.44300000000000006]","[0.9763999999999999,0.8588,-0.05900000000000005]",-88,-21,1,0,0,response5disk,-4,6,1,0,0,rectangle,-4,6,1,0,0,,3,1,0.001,0,-4,6,1,0,0,,0,15,15,127,1,46,second,,,,,,,,,,,,,,,,,,,,,,,,,,,,,,,,,,,,,,,,,,,,,,,,,,,,,,,,,,,,,,,,,,,,,,
,,,,,,56a5684481a8ca000d3e544f,62c53a22f93e51d4ae53c7c3,2022-07-06_09h31.03.505,Colour_Asymmetry_Pilot,2022.1.3,Win32,59.8372427,62c50e9c1127f2cd403a315f,,,,,,,,,,,,,,,,,,,,twofour,,-1,0.6524,,,,,,,,,,,,,,,,,,,,,,,,,,,,,,,,,,"[-0.9766,-0.6472,0.07440000000000002]","[0.0351999999999999,0.41159999999999997,0.0038000000000000256]",-35,-78,1,0,0,response5disk,13,2,1,0,0,rectangle,13,2,1,0,0,,3,2,0.002,0,13,2,1,0,0,,0,16,16,144,1,63,second,,,,,,,,,,,,,,,,,,,,,,,,,,,,,,,,,,,,,,,,,,,,,,,,,,,,,,,,,,,,,,,,,,,,,,
,,,,,,56a5684481a8ca000d3e544f,62c53a22f93e51d4ae53c7c3,2022-07-06_09h31.03.505,Colour_Asymmetry_Pilot,2022.1.3,Win32,59.8372427,62c50e9c1127f2cd403a315f,,,,,,,,,,,,,,,,,,,,onetwo,,-1,0.6522,,,,,,,,,,,,,,,,,,,,,,,,,,,,,,,,,,"[0.3881999999999999,-0.23939999999999995,-0.05040000000000011]","[-0.7412000000000001,-0.08239999999999992,-0.6864]",-27,-79,1,0,0,response5disk,-4,-6,1,0,0,rectangle,-4,-6,1,0,0,,3,1,0.0021,0,-4,-6,1,0,0,,0,17,17,145,1,64,second,,,,,,,,,,,,,,,,,,,,,,,,,,,,,,,,,,,,,,,,,,,,,,,,,,,,,,,,,,,,,,,,,,,,,,
