trials.thisRepN,trials.thisTrialN,trials.thisN,trials.thisIndex,trials.ran,Colourcodes,participant,session,date,expName,psychopyVersion,OS,frameRate,study_id,trials_4.thisRepN,trials_4.thisTrialN,trials_4.thisN,trials_4.thisIndex,trials_4.ran,StimulusPos,key_resp.keys,key_resp.rt,key_resp_2.keys,key_resp_2.rt,key_resp_15.keys,key_resp_15.rt,key_resp_17.keys,key_resp_17.rt,key_resp_9.keys,key_resp_9.rt,key_resp_10.keys,key_resp_10.rt,Circle1_col,Ecc,Circle2_col,similarity,response_time,mouse_5.x,mouse_5.y,mouse_5.leftButton,mouse_5.midButton,mouse_5.rightButton,mouse_5.clicked_name,mouse_10.x,mouse_10.y,mouse_10.leftButton,mouse_10.midButton,mouse_10.rightButton,mouse_10.clicked_name,mouse_7.x,mouse_7.y,mouse_7.leftButton,mouse_7.midButton,mouse_7.rightButton,catchnumberprac,mouse_6.x,mouse_6.y,mouse_6.leftButton,mouse_6.midButton,mouse_6.rightButton,duringprac.thisRepN,duringprac.thisTrialN,duringprac.thisN,duringprac.thisIndex,duringprac.ran,mouse_7.clicked_name,catchprac,mouse_6.clicked_name,key_resp_22.keys,key_resp_22.rt,Circle1_colour,Circle2_colour,mouse.x,mouse.y,mouse.leftButton,mouse.midButton,mouse.rightButton,mouse.clicked_name,mouse_2.x,mouse_2.y,mouse_2.leftButton,mouse_2.midButton,mouse_2.rightButton,mouse_2.clicked_name,mouse_3.x,mouse_3.y,mouse_3.leftButton,mouse_3.midButton,mouse_3.rightButton,catchresponse,catchnumber,response_time_catch,Catch,mouse_11.x,mouse_11.y,mouse_11.leftButton,mouse_11.midButton,mouse_11.rightButton,trials_2.thisRepN,trials_2.thisTrialN,trials_2.thisN,trials_2.thisIndex,trials_2.ran,Colourpair,Temporder,mouse_3.clicked_name,mouse_11.clicked_name,trials_3.thisRepN,trials_3.thisTrialN,trials_3.thisN,trials_3.thisIndex,trials_3.ran,key_resp_instr_Ishi.keys,key_resp_instr_Ishi.rt,Ishi_trial_keyresp.keys,Ishi_textbox.text,Ishi_mouse.x,Ishi_mouse.y,Ishi_mouse.leftButton,Ishi_mouse.midButton,Ishi_mouse.rightButton,Ishi_mouse.clicked_name,Ishi_loop.thisRepN,Ishi_loop.thisTrialN,Ishi_loop.thisN,Ishi_loop.thisIndex,Ishi_loop.ran,imageaddress,textbox.text,mouse_4.x,mouse_4.y,mouse_4.leftButton,mouse_4.midButton,mouse_4.rightButton,mouse_4.clicked_name,textbox_2.text,mouse_8.x,mouse_8.y,mouse_8.leftButton,mouse_8.midButton,mouse_8.rightButton,mouse_8.clicked_name,textbox_3.text,mouse_9.x,mouse_9.y,mouse_9.leftButton,mouse_9.midButton,mouse_9.rightButton,mouse_9.clicked_name,textbox_4.text,mouse_12.x,mouse_12.y,mouse_12.leftButton,mouse_12.midButton,mouse_12.rightButton,mouse_12.clicked_name,textbox_5.text,mouse_13.x,mouse_13.y,mouse_13.leftButton,mouse_13.midButton,mouse_13.rightButton,mouse_13.clicked_name,textbox_6.text,mouse_14.x,mouse_14.y,mouse_14.leftButton,mouse_14.midButton,mouse_14.rightButton,mouse_14.clicked_name,textbox_7.text,mouse_15.x,mouse_15.y,mouse_15.leftButton,mouse_15.midButton,mouse_15.rightButton,mouse_15.clicked_name
0,0,0,33,1,,614d061aa0abbd89a703844f,62c539739b00c337733a3177,2022-07-06_02h28.14.631,Colour_Asymmetry_Pilot,2022.1.3,MacIntel,59.93407252,62c50e9c1127f2cd403a315f,,,,,,,,,,,,,,,,,,,,,,,,,,,,,,,,,,,,,,,,,,,,,,,,,,,,,,,,,,,,,,,,,,,,,,,,,,,,,,,,,,,,,,,,,,,,,,,,,,,,,,,,,,,,,,,,,,,,,,,,,,,,,,,,,,,,,,,,,,,,,,,,,,,,,,,,,,,,,,,,,,,
0,1,1,31,1,,614d061aa0abbd89a703844f,62c539739b00c337733a3177,2022-07-06_02h28.14.631,Colour_Asymmetry_Pilot,2022.1.3,MacIntel,59.93407252,62c50e9c1127f2cd403a315f,,,,,,,,,,,,,,,,,,,,,,,,,,,,,,,,,,,,,,,,,,,,,,,,,,,,,,,,,,,,,,,,,,,,,,,,,,,,,,,,,,,,,,,,,,,,,,,,,,,,,,,,,,,,,,,,,,,,,,,,,,,,,,,,,,,,,,,,,,,,,,,,,,,,,,,,,,,,,,,,,,,
0,2,2,74,1,,614d061aa0abbd89a703844f,62c539739b00c337733a3177,2022-07-06_02h28.14.631,Colour_Asymmetry_Pilot,2022.1.3,MacIntel,59.93407252,62c50e9c1127f2cd403a315f,,,,,,,,,,,,,,,,,,,,,,,,,,,,,,,,,,,,,,,,,,,,,,,,,,,,,,,,,,,,,,,,,,,,,,,,,,,,,,,,,,,,,,,,,,,,,,,,,,,,,,,,,,,,,,,,,,,,,,,,,,,,,,,,,,,,,,,,,,,,,,,,,,,,,,,,,,,,,,,,,,,
0,3,3,0,1,,614d061aa0abbd89a703844f,62c539739b00c337733a3177,2022-07-06_02h28.14.631,Colour_Asymmetry_Pilot,2022.1.3,MacIntel,59.93407252,62c50e9c1127f2cd403a315f,,,,,,,,,,,,,,,,,,,,,,,,,,,,,,,,,,,,,,,,,,,,,,,,,,,,,,,,,,,,,,,,,,,,,,,,,,,,,,,,,,,,,,,,,,,,,,,,,,,,,,,,,,,,,,,,,,,,,,,,,,,,,,,,,,,,,,,,,,,,,,,,,,,,,,,,,,,,,,,,,,,
0,4,4,2,1,,614d061aa0abbd89a703844f,62c539739b00c337733a3177,2022-07-06_02h28.14.631,Colour_Asymmetry_Pilot,2022.1.3,MacIntel,59.93407252,62c50e9c1127f2cd403a315f,,,,,,,,,,,,,,,,,,,,,,,,,,,,,,,,,,,,,,,,,,,,,,,,,,,,,,,,,,,,,,,,,,,,,,,,,,,,,,,,,,,,,,,,,,,,,,,,,,,,,,,,,,,,,,,,,,,,,,,,,,,,,,,,,,,,,,,,,,,,,,,,,,,,,,,,,,,,,,,,,,,
0,5,5,12,1,,614d061aa0abbd89a703844f,62c539739b00c337733a3177,2022-07-06_02h28.14.631,Colour_Asymmetry_Pilot,2022.1.3,MacIntel,59.93407252,62c50e9c1127f2cd403a315f,,,,,,,,,,,,,,,,,,,,,,,,,,,,,,,,,,,,,,,,,,,,,,,,,,,,,,,,,,,,,,,,,,,,,,,,,,,,,,,,,,,,,,,,,,,,,,,,,,,,,,,,,,,,,,,,,,,,,,,,,,,,,,,,,,,,,,,,,,,,,,,,,,,,,,,,,,,,,,,,,,,
0,6,6,25,1,,614d061aa0abbd89a703844f,62c539739b00c337733a3177,2022-07-06_02h28.14.631,Colour_Asymmetry_Pilot,2022.1.3,MacIntel,59.93407252,62c50e9c1127f2cd403a315f,,,,,,,,,,,,,,,,,,,,,,,,,,,,,,,,,,,,,,,,,,,,,,,,,,,,,,,,,,,,,,,,,,,,,,,,,,,,,,,,,,,,,,,,,,,,,,,,,,,,,,,,,,,,,,,,,,,,,,,,,,,,,,,,,,,,,,,,,,,,,,,,,,,,,,,,,,,,,,,,,,,
0,7,7,47,1,,614d061aa0abbd89a703844f,62c539739b00c337733a3177,2022-07-06_02h28.14.631,Colour_Asymmetry_Pilot,2022.1.3,MacIntel,59.93407252,62c50e9c1127f2cd403a315f,,,,,,,,,,,,,,,,,,,,,,,,,,,,,,,,,,,,,,,,,,,,,,,,,,,,,,,,,,,,,,,,,,,,,,,,,,,,,,,,,,,,,,,,,,,,,,,,,,,,,,,,,,,,,,,,,,,,,,,,,,,,,,,,,,,,,,,,,,,,,,,,,,,,,,,,,,,,,,,,,,,
0,8,8,57,1,,614d061aa0abbd89a703844f,62c539739b00c337733a3177,2022-07-06_02h28.14.631,Colour_Asymmetry_Pilot,2022.1.3,MacIntel,59.93407252,62c50e9c1127f2cd403a315f,,,,,,,,,,,,,,,,,,,,,,,,,,,,,,,,,,,,,,,,,,,,,,,,,,,,,,,,,,,,,,,,,,,,,,,,,,,,,,,,,,,,,,,,,,,,,,,,,,,,,,,,,,,,,,,,,,,,,,,,,,,,,,,,,,,,,,,,,,,,,,,,,,,,,,,,,,,,,,,,,,,
0,9,9,84,1,,614d061aa0abbd89a703844f,62c539739b00c337733a3177,2022-07-06_02h28.14.631,Colour_Asymmetry_Pilot,2022.1.3,MacIntel,59.93407252,62c50e9c1127f2cd403a315f,,,,,,,,,,,,,,,,,,,,,,,,,,,,,,,,,,,,,,,,,,,,,,,,,,,,,,,,,,,,,,,,,,,,,,,,,,,,,,,,,,,,,,,,,,,,,,,,,,,,,,,,,,,,,,,,,,,,,,,,,,,,,,,,,,,,,,,,,,,,,,,,,,,,,,,,,,,,,,,,,,,
0,10,10,4,1,,614d061aa0abbd89a703844f,62c539739b00c337733a3177,2022-07-06_02h28.14.631,Colour_Asymmetry_Pilot,2022.1.3,MacIntel,59.93407252,62c50e9c1127f2cd403a315f,,,,,,,,,,,,,,,,,,,,,,,,,,,,,,,,,,,,,,,,,,,,,,,,,,,,,,,,,,,,,,,,,,,,,,,,,,,,,,,,,,,,,,,,,,,,,,,,,,,,,,,,,,,,,,,,,,,,,,,,,,,,,,,,,,,,,,,,,,,,,,,,,,,,,,,,,,,,,,,,,,,
0,11,11,9,1,,614d061aa0abbd89a703844f,62c539739b00c337733a3177,2022-07-06_02h28.14.631,Colour_Asymmetry_Pilot,2022.1.3,MacIntel,59.93407252,62c50e9c1127f2cd403a315f,,,,,,,,,,,,,,,,,,,,,,,,,,,,,,,,,,,,,,,,,,,,,,,,,,,,,,,,,,,,,,,,,,,,,,,,,,,,,,,,,,,,,,,,,,,,,,,,,,,,,,,,,,,,,,,,,,,,,,,,,,,,,,,,,,,,,,,,,,,,,,,,,,,,,,,,,,,,,,,,,,,
0,12,12,17,1,,614d061aa0abbd89a703844f,62c539739b00c337733a3177,2022-07-06_02h28.14.631,Colour_Asymmetry_Pilot,2022.1.3,MacIntel,59.93407252,62c50e9c1127f2cd403a315f,,,,,,,,,,,,,,,,,,,,,,,,,,,,,,,,,,,,,,,,,,,,,,,,,,,,,,,,,,,,,,,,,,,,,,,,,,,,,,,,,,,,,,,,,,,,,,,,,,,,,,,,,,,,,,,,,,,,,,,,,,,,,,,,,,,,,,,,,,,,,,,,,,,,,,,,,,,,,,,,,,,
0,13,13,69,1,,614d061aa0abbd89a703844f,62c539739b00c337733a3177,2022-07-06_02h28.14.631,Colour_Asymmetry_Pilot,2022.1.3,MacIntel,59.93407252,62c50e9c1127f2cd403a315f,,,,,,,,,,,,,,,,,,,,,,,,,,,,,,,,,,,,,,,,,,,,,,,,,,,,,,,,,,,,,,,,,,,,,,,,,,,,,,,,,,,,,,,,,,,,,,,,,,,,,,,,,,,,,,,,,,,,,,,,,,,,,,,,,,,,,,,,,,,,,,,,,,,,,,,,,,,,,,,,,,,
0,14,14,79,1,,614d061aa0abbd89a703844f,62c539739b00c337733a3177,2022-07-06_02h28.14.631,Colour_Asymmetry_Pilot,2022.1.3,MacIntel,59.93407252,62c50e9c1127f2cd403a315f,,,,,,,,,,,,,,,,,,,,,,,,,,,,,,,,,,,,,,,,,,,,,,,,,,,,,,,,,,,,,,,,,,,,,,,,,,,,,,,,,,,,,,,,,,,,,,,,,,,,,,,,,,,,,,,,,,,,,,,,,,,,,,,,,,,,,,,,,,,,,,,,,,,,,,,,,,,,,,,,,,,
0,15,15,91,1,,614d061aa0abbd89a703844f,62c539739b00c337733a3177,2022-07-06_02h28.14.631,Colour_Asymmetry_Pilot,2022.1.3,MacIntel,59.93407252,62c50e9c1127f2cd403a315f,,,,,,,,,,,,,,,,,,,,,,,,,,,,,,,,,,,,,,,,,,,,,,,,,,,,,,,,,,,,,,,,,,,,,,,,,,,,,,,,,,,,,,,,,,,,,,,,,,,,,,,,,,,,,,,,,,,,,,,,,,,,,,,,,,,,,,,,,,,,,,,,,,,,,,,,,,,,,,,,,,,
0,16,16,82,1,,614d061aa0abbd89a703844f,62c539739b00c337733a3177,2022-07-06_02h28.14.631,Colour_Asymmetry_Pilot,2022.1.3,MacIntel,59.93407252,62c50e9c1127f2cd403a315f,,,,,,,,,,,,,,,,,,,,,,,,,,,,,,,,,,,,,,,,,,,,,,,,,,,,,,,,,,,,,,,,,,,,,,,,,,,,,,,,,,,,,,,,,,,,,,,,,,,,,,,,,,,,,,,,,,,,,,,,,,,,,,,,,,,,,,,,,,,,,,,,,,,,,,,,,,,,,,,,,,,
0,17,17,61,1,,614d061aa0abbd89a703844f,62c539739b00c337733a3177,2022-07-06_02h28.14.631,Colour_Asymmetry_Pilot,2022.1.3,MacIntel,59.93407252,62c50e9c1127f2cd403a315f,,,,,,,,,,,,,,,,,,,,,,,,,,,,,,,,,,,,,,,,,,,,,,,,,,,,,,,,,,,,,,,,,,,,,,,,,,,,,,,,,,,,,,,,,,,,,,,,,,,,,,,,,,,,,,,,,,,,,,,,,,,,,,,,,,,,,,,,,,,,,,,,,,,,,,,,,,,,,,,,,,,
0,18,18,29,1,,614d061aa0abbd89a703844f,62c539739b00c337733a3177,2022-07-06_02h28.14.631,Colour_Asymmetry_Pilot,2022.1.3,MacIntel,59.93407252,62c50e9c1127f2cd403a315f,,,,,,,,,,,,,,,,,,,,,,,,,,,,,,,,,,,,,,,,,,,,,,,,,,,,,,,,,,,,,,,,,,,,,,,,,,,,,,,,,,,,,,,,,,,,,,,,,,,,,,,,,,,,,,,,,,,,,,,,,,,,,,,,,,,,,,,,,,,,,,,,,,,,,,,,,,,,,,,,,,,
0,19,19,71,1,,614d061aa0abbd89a703844f,62c539739b00c337733a3177,2022-07-06_02h28.14.631,Colour_Asymmetry_Pilot,2022.1.3,MacIntel,59.93407252,62c50e9c1127f2cd403a315f,,,,,,,,,,,,,,,,,,,,,,,,,,,,,,,,,,,,,,,,,,,,,,,,,,,,,,,,,,,,,,,,,,,,,,,,,,,,,,,,,,,,,,,,,,,,,,,,,,,,,,,,,,,,,,,,,,,,,,,,,,,,,,,,,,,,,,,,,,,,,,,,,,,,,,,,,,,,,,,,,,,
0,20,20,60,1,,614d061aa0abbd89a703844f,62c539739b00c337733a3177,2022-07-06_02h28.14.631,Colour_Asymmetry_Pilot,2022.1.3,MacIntel,59.93407252,62c50e9c1127f2cd403a315f,,,,,,,,,,,,,,,,,,,,,,,,,,,,,,,,,,,,,,,,,,,,,,,,,,,,,,,,,,,,,,,,,,,,,,,,,,,,,,,,,,,,,,,,,,,,,,,,,,,,,,,,,,,,,,,,,,,,,,,,,,,,,,,,,,,,,,,,,,,,,,,,,,,,,,,,,,,,,,,,,,,
0,21,21,55,1,,614d061aa0abbd89a703844f,62c539739b00c337733a3177,2022-07-06_02h28.14.631,Colour_Asymmetry_Pilot,2022.1.3,MacIntel,59.93407252,62c50e9c1127f2cd403a315f,,,,,,,,,,,,,,,,,,,,,,,,,,,,,,,,,,,,,,,,,,,,,,,,,,,,,,,,,,,,,,,,,,,,,,,,,,,,,,,,,,,,,,,,,,,,,,,,,,,,,,,,,,,,,,,,,,,,,,,,,,,,,,,,,,,,,,,,,,,,,,,,,,,,,,,,,,,,,,,,,,,
0,22,22,92,1,,614d061aa0abbd89a703844f,62c539739b00c337733a3177,2022-07-06_02h28.14.631,Colour_Asymmetry_Pilot,2022.1.3,MacIntel,59.93407252,62c50e9c1127f2cd403a315f,,,,,,,,,,,,,,,,,,,,,,,,,,,,,,,,,,,,,,,,,,,,,,,,,,,,,,,,,,,,,,,,,,,,,,,,,,,,,,,,,,,,,,,,,,,,,,,,,,,,,,,,,,,,,,,,,,,,,,,,,,,,,,,,,,,,,,,,,,,,,,,,,,,,,,,,,,,,,,,,,,,
0,23,23,11,1,,614d061aa0abbd89a703844f,62c539739b00c337733a3177,2022-07-06_02h28.14.631,Colour_Asymmetry_Pilot,2022.1.3,MacIntel,59.93407252,62c50e9c1127f2cd403a315f,,,,,,,,,,,,,,,,,,,,,,,,,,,,,,,,,,,,,,,,,,,,,,,,,,,,,,,,,,,,,,,,,,,,,,,,,,,,,,,,,,,,,,,,,,,,,,,,,,,,,,,,,,,,,,,,,,,,,,,,,,,,,,,,,,,,,,,,,,,,,,,,,,,,,,,,,,,,,,,,,,,
0,24,24,8,1,,614d061aa0abbd89a703844f,62c539739b00c337733a3177,2022-07-06_02h28.14.631,Colour_Asymmetry_Pilot,2022.1.3,MacIntel,59.93407252,62c50e9c1127f2cd403a315f,,,,,,,,,,,,,,,,,,,,,,,,,,,,,,,,,,,,,,,,,,,,,,,,,,,,,,,,,,,,,,,,,,,,,,,,,,,,,,,,,,,,,,,,,,,,,,,,,,,,,,,,,,,,,,,,,,,,,,,,,,,,,,,,,,,,,,,,,,,,,,,,,,,,,,,,,,,,,,,,,,,
0,25,25,14,1,,614d061aa0abbd89a703844f,62c539739b00c337733a3177,2022-07-06_02h28.14.631,Colour_Asymmetry_Pilot,2022.1.3,MacIntel,59.93407252,62c50e9c1127f2cd403a315f,,,,,,,,,,,,,,,,,,,,,,,,,,,,,,,,,,,,,,,,,,,,,,,,,,,,,,,,,,,,,,,,,,,,,,,,,,,,,,,,,,,,,,,,,,,,,,,,,,,,,,,,,,,,,,,,,,,,,,,,,,,,,,,,,,,,,,,,,,,,,,,,,,,,,,,,,,,,,,,,,,,
0,26,26,6,1,,614d061aa0abbd89a703844f,62c539739b00c337733a3177,2022-07-06_02h28.14.631,Colour_Asymmetry_Pilot,2022.1.3,MacIntel,59.93407252,62c50e9c1127f2cd403a315f,,,,,,,,,,,,,,,,,,,,,,,,,,,,,,,,,,,,,,,,,,,,,,,,,,,,,,,,,,,,,,,,,,,,,,,,,,,,,,,,,,,,,,,,,,,,,,,,,,,,,,,,,,,,,,,,,,,,,,,,,,,,,,,,,,,,,,,,,,,,,,,,,,,,,,,,,,,,,,,,,,,
0,27,27,37,1,,614d061aa0abbd89a703844f,62c539739b00c337733a3177,2022-07-06_02h28.14.631,Colour_Asymmetry_Pilot,2022.1.3,MacIntel,59.93407252,62c50e9c1127f2cd403a315f,,,,,,,,,,,,,,,,,,,,,,,,,,,,,,,,,,,,,,,,,,,,,,,,,,,,,,,,,,,,,,,,,,,,,,,,,,,,,,,,,,,,,,,,,,,,,,,,,,,,,,,,,,,,,,,,,,,,,,,,,,,,,,,,,,,,,,,,,,,,,,,,,,,,,,,,,,,,,,,,,,,
0,28,28,46,1,,614d061aa0abbd89a703844f,62c539739b00c337733a3177,2022-07-06_02h28.14.631,Colour_Asymmetry_Pilot,2022.1.3,MacIntel,59.93407252,62c50e9c1127f2cd403a315f,,,,,,,,,,,,,,,,,,,,,,,,,,,,,,,,,,,,,,,,,,,,,,,,,,,,,,,,,,,,,,,,,,,,,,,,,,,,,,,,,,,,,,,,,,,,,,,,,,,,,,,,,,,,,,,,,,,,,,,,,,,,,,,,,,,,,,,,,,,,,,,,,,,,,,,,,,,,,,,,,,,
0,29,29,35,1,,614d061aa0abbd89a703844f,62c539739b00c337733a3177,2022-07-06_02h28.14.631,Colour_Asymmetry_Pilot,2022.1.3,MacIntel,59.93407252,62c50e9c1127f2cd403a315f,,,,,,,,,,,,,,,,,,,,,,,,,,,,,,,,,,,,,,,,,,,,,,,,,,,,,,,,,,,,,,,,,,,,,,,,,,,,,,,,,,,,,,,,,,,,,,,,,,,,,,,,,,,,,,,,,,,,,,,,,,,,,,,,,,,,,,,,,,,,,,,,,,,,,,,,,,,,,,,,,,,
0,30,30,65,1,,614d061aa0abbd89a703844f,62c539739b00c337733a3177,2022-07-06_02h28.14.631,Colour_Asymmetry_Pilot,2022.1.3,MacIntel,59.93407252,62c50e9c1127f2cd403a315f,,,,,,,,,,,,,,,,,,,,,,,,,,,,,,,,,,,,,,,,,,,,,,,,,,,,,,,,,,,,,,,,,,,,,,,,,,,,,,,,,,,,,,,,,,,,,,,,,,,,,,,,,,,,,,,,,,,,,,,,,,,,,,,,,,,,,,,,,,,,,,,,,,,,,,,,,,,,,,,,,,,
0,31,31,13,1,,614d061aa0abbd89a703844f,62c539739b00c337733a3177,2022-07-06_02h28.14.631,Colour_Asymmetry_Pilot,2022.1.3,MacIntel,59.93407252,62c50e9c1127f2cd403a315f,,,,,,,,,,,,,,,,,,,,,,,,,,,,,,,,,,,,,,,,,,,,,,,,,,,,,,,,,,,,,,,,,,,,,,,,,,,,,,,,,,,,,,,,,,,,,,,,,,,,,,,,,,,,,,,,,,,,,,,,,,,,,,,,,,,,,,,,,,,,,,,,,,,,,,,,,,,,,,,,,,,
0,32,32,10,1,,614d061aa0abbd89a703844f,62c539739b00c337733a3177,2022-07-06_02h28.14.631,Colour_Asymmetry_Pilot,2022.1.3,MacIntel,59.93407252,62c50e9c1127f2cd403a315f,,,,,,,,,,,,,,,,,,,,,,,,,,,,,,,,,,,,,,,,,,,,,,,,,,,,,,,,,,,,,,,,,,,,,,,,,,,,,,,,,,,,,,,,,,,,,,,,,,,,,,,,,,,,,,,,,,,,,,,,,,,,,,,,,,,,,,,,,,,,,,,,,,,,,,,,,,,,,,,,,,,
0,33,33,41,1,,614d061aa0abbd89a703844f,62c539739b00c337733a3177,2022-07-06_02h28.14.631,Colour_Asymmetry_Pilot,2022.1.3,MacIntel,59.93407252,62c50e9c1127f2cd403a315f,,,,,,,,,,,,,,,,,,,,,,,,,,,,,,,,,,,,,,,,,,,,,,,,,,,,,,,,,,,,,,,,,,,,,,,,,,,,,,,,,,,,,,,,,,,,,,,,,,,,,,,,,,,,,,,,,,,,,,,,,,,,,,,,,,,,,,,,,,,,,,,,,,,,,,,,,,,,,,,,,,,
0,34,34,54,1,,614d061aa0abbd89a703844f,62c539739b00c337733a3177,2022-07-06_02h28.14.631,Colour_Asymmetry_Pilot,2022.1.3,MacIntel,59.93407252,62c50e9c1127f2cd403a315f,,,,,,,,,,,,,,,,,,,,,,,,,,,,,,,,,,,,,,,,,,,,,,,,,,,,,,,,,,,,,,,,,,,,,,,,,,,,,,,,,,,,,,,,,,,,,,,,,,,,,,,,,,,,,,,,,,,,,,,,,,,,,,,,,,,,,,,,,,,,,,,,,,,,,,,,,,,,,,,,,,,
0,35,35,81,1,,614d061aa0abbd89a703844f,62c539739b00c337733a3177,2022-07-06_02h28.14.631,Colour_Asymmetry_Pilot,2022.1.3,MacIntel,59.93407252,62c50e9c1127f2cd403a315f,,,,,,,,,,,,,,,,,,,,,,,,,,,,,,,,,,,,,,,,,,,,,,,,,,,,,,,,,,,,,,,,,,,,,,,,,,,,,,,,,,,,,,,,,,,,,,,,,,,,,,,,,,,,,,,,,,,,,,,,,,,,,,,,,,,,,,,,,,,,,,,,,,,,,,,,,,,,,,,,,,,
0,36,36,23,1,,614d061aa0abbd89a703844f,62c539739b00c337733a3177,2022-07-06_02h28.14.631,Colour_Asymmetry_Pilot,2022.1.3,MacIntel,59.93407252,62c50e9c1127f2cd403a315f,,,,,,,,,,,,,,,,,,,,,,,,,,,,,,,,,,,,,,,,,,,,,,,,,,,,,,,,,,,,,,,,,,,,,,,,,,,,,,,,,,,,,,,,,,,,,,,,,,,,,,,,,,,,,,,,,,,,,,,,,,,,,,,,,,,,,,,,,,,,,,,,,,,,,,,,,,,,,,,,,,,
0,37,37,30,1,,614d061aa0abbd89a703844f,62c539739b00c337733a3177,2022-07-06_02h28.14.631,Colour_Asymmetry_Pilot,2022.1.3,MacIntel,59.93407252,62c50e9c1127f2cd403a315f,,,,,,,,,,,,,,,,,,,,,,,,,,,,,,,,,,,,,,,,,,,,,,,,,,,,,,,,,,,,,,,,,,,,,,,,,,,,,,,,,,,,,,,,,,,,,,,,,,,,,,,,,,,,,,,,,,,,,,,,,,,,,,,,,,,,,,,,,,,,,,,,,,,,,,,,,,,,,,,,,,,
0,38,38,85,1,,614d061aa0abbd89a703844f,62c539739b00c337733a3177,2022-07-06_02h28.14.631,Colour_Asymmetry_Pilot,2022.1.3,MacIntel,59.93407252,62c50e9c1127f2cd403a315f,,,,,,,,,,,,,,,,,,,,,,,,,,,,,,,,,,,,,,,,,,,,,,,,,,,,,,,,,,,,,,,,,,,,,,,,,,,,,,,,,,,,,,,,,,,,,,,,,,,,,,,,,,,,,,,,,,,,,,,,,,,,,,,,,,,,,,,,,,,,,,,,,,,,,,,,,,,,,,,,,,,
0,39,39,66,1,,614d061aa0abbd89a703844f,62c539739b00c337733a3177,2022-07-06_02h28.14.631,Colour_Asymmetry_Pilot,2022.1.3,MacIntel,59.93407252,62c50e9c1127f2cd403a315f,,,,,,,,,,,,,,,,,,,,,,,,,,,,,,,,,,,,,,,,,,,,,,,,,,,,,,,,,,,,,,,,,,,,,,,,,,,,,,,,,,,,,,,,,,,,,,,,,,,,,,,,,,,,,,,,,,,,,,,,,,,,,,,,,,,,,,,,,,,,,,,,,,,,,,,,,,,,,,,,,,,
0,40,40,32,1,,614d061aa0abbd89a703844f,62c539739b00c337733a3177,2022-07-06_02h28.14.631,Colour_Asymmetry_Pilot,2022.1.3,MacIntel,59.93407252,62c50e9c1127f2cd403a315f,,,,,,,,,,,,,,,,,,,,,,,,,,,,,,,,,,,,,,,,,,,,,,,,,,,,,,,,,,,,,,,,,,,,,,,,,,,,,,,,,,,,,,,,,,,,,,,,,,,,,,,,,,,,,,,,,,,,,,,,,,,,,,,,,,,,,,,,,,,,,,,,,,,,,,,,,,,,,,,,,,,
0,41,41,88,1,,614d061aa0abbd89a703844f,62c539739b00c337733a3177,2022-07-06_02h28.14.631,Colour_Asymmetry_Pilot,2022.1.3,MacIntel,59.93407252,62c50e9c1127f2cd403a315f,,,,,,,,,,,,,,,,,,,,,,,,,,,,,,,,,,,,,,,,,,,,,,,,,,,,,,,,,,,,,,,,,,,,,,,,,,,,,,,,,,,,,,,,,,,,,,,,,,,,,,,,,,,,,,,,,,,,,,,,,,,,,,,,,,,,,,,,,,,,,,,,,,,,,,,,,,,,,,,,,,,
0,42,42,77,1,,614d061aa0abbd89a703844f,62c539739b00c337733a3177,2022-07-06_02h28.14.631,Colour_Asymmetry_Pilot,2022.1.3,MacIntel,59.93407252,62c50e9c1127f2cd403a315f,,,,,,,,,,,,,,,,,,,,,,,,,,,,,,,,,,,,,,,,,,,,,,,,,,,,,,,,,,,,,,,,,,,,,,,,,,,,,,,,,,,,,,,,,,,,,,,,,,,,,,,,,,,,,,,,,,,,,,,,,,,,,,,,,,,,,,,,,,,,,,,,,,,,,,,,,,,,,,,,,,,
0,43,43,58,1,,614d061aa0abbd89a703844f,62c539739b00c337733a3177,2022-07-06_02h28.14.631,Colour_Asymmetry_Pilot,2022.1.3,MacIntel,59.93407252,62c50e9c1127f2cd403a315f,,,,,,,,,,,,,,,,,,,,,,,,,,,,,,,,,,,,,,,,,,,,,,,,,,,,,,,,,,,,,,,,,,,,,,,,,,,,,,,,,,,,,,,,,,,,,,,,,,,,,,,,,,,,,,,,,,,,,,,,,,,,,,,,,,,,,,,,,,,,,,,,,,,,,,,,,,,,,,,,,,,
0,44,44,72,1,,614d061aa0abbd89a703844f,62c539739b00c337733a3177,2022-07-06_02h28.14.631,Colour_Asymmetry_Pilot,2022.1.3,MacIntel,59.93407252,62c50e9c1127f2cd403a315f,,,,,,,,,,,,,,,,,,,,,,,,,,,,,,,,,,,,,,,,,,,,,,,,,,,,,,,,,,,,,,,,,,,,,,,,,,,,,,,,,,,,,,,,,,,,,,,,,,,,,,,,,,,,,,,,,,,,,,,,,,,,,,,,,,,,,,,,,,,,,,,,,,,,,,,,,,,,,,,,,,,
0,45,45,27,1,,614d061aa0abbd89a703844f,62c539739b00c337733a3177,2022-07-06_02h28.14.631,Colour_Asymmetry_Pilot,2022.1.3,MacIntel,59.93407252,62c50e9c1127f2cd403a315f,,,,,,,,,,,,,,,,,,,,,,,,,,,,,,,,,,,,,,,,,,,,,,,,,,,,,,,,,,,,,,,,,,,,,,,,,,,,,,,,,,,,,,,,,,,,,,,,,,,,,,,,,,,,,,,,,,,,,,,,,,,,,,,,,,,,,,,,,,,,,,,,,,,,,,,,,,,,,,,,,,,
0,46,46,51,1,,614d061aa0abbd89a703844f,62c539739b00c337733a3177,2022-07-06_02h28.14.631,Colour_Asymmetry_Pilot,2022.1.3,MacIntel,59.93407252,62c50e9c1127f2cd403a315f,,,,,,,,,,,,,,,,,,,,,,,,,,,,,,,,,,,,,,,,,,,,,,,,,,,,,,,,,,,,,,,,,,,,,,,,,,,,,,,,,,,,,,,,,,,,,,,,,,,,,,,,,,,,,,,,,,,,,,,,,,,,,,,,,,,,,,,,,,,,,,,,,,,,,,,,,,,,,,,,,,,
0,47,47,86,1,,614d061aa0abbd89a703844f,62c539739b00c337733a3177,2022-07-06_02h28.14.631,Colour_Asymmetry_Pilot,2022.1.3,MacIntel,59.93407252,62c50e9c1127f2cd403a315f,,,,,,,,,,,,,,,,,,,,,,,,,,,,,,,,,,,,,,,,,,,,,,,,,,,,,,,,,,,,,,,,,,,,,,,,,,,,,,,,,,,,,,,,,,,,,,,,,,,,,,,,,,,,,,,,,,,,,,,,,,,,,,,,,,,,,,,,,,,,,,,,,,,,,,,,,,,,,,,,,,,
0,48,48,22,1,,614d061aa0abbd89a703844f,62c539739b00c337733a3177,2022-07-06_02h28.14.631,Colour_Asymmetry_Pilot,2022.1.3,MacIntel,59.93407252,62c50e9c1127f2cd403a315f,,,,,,,,,,,,,,,,,,,,,,,,,,,,,,,,,,,,,,,,,,,,,,,,,,,,,,,,,,,,,,,,,,,,,,,,,,,,,,,,,,,,,,,,,,,,,,,,,,,,,,,,,,,,,,,,,,,,,,,,,,,,,,,,,,,,,,,,,,,,,,,,,,,,,,,,,,,,,,,,,,,
0,49,49,40,1,,614d061aa0abbd89a703844f,62c539739b00c337733a3177,2022-07-06_02h28.14.631,Colour_Asymmetry_Pilot,2022.1.3,MacIntel,59.93407252,62c50e9c1127f2cd403a315f,,,,,,,,,,,,,,,,,,,,,,,,,,,,,,,,,,,,,,,,,,,,,,,,,,,,,,,,,,,,,,,,,,,,,,,,,,,,,,,,,,,,,,,,,,,,,,,,,,,,,,,,,,,,,,,,,,,,,,,,,,,,,,,,,,,,,,,,,,,,,,,,,,,,,,,,,,,,,,,,,,,
0,50,50,42,1,,614d061aa0abbd89a703844f,62c539739b00c337733a3177,2022-07-06_02h28.14.631,Colour_Asymmetry_Pilot,2022.1.3,MacIntel,59.93407252,62c50e9c1127f2cd403a315f,,,,,,,,,,,,,,,,,,,,,,,,,,,,,,,,,,,,,,,,,,,,,,,,,,,,,,,,,,,,,,,,,,,,,,,,,,,,,,,,,,,,,,,,,,,,,,,,,,,,,,,,,,,,,,,,,,,,,,,,,,,,,,,,,,,,,,,,,,,,,,,,,,,,,,,,,,,,,,,,,,,
0,51,51,15,1,,614d061aa0abbd89a703844f,62c539739b00c337733a3177,2022-07-06_02h28.14.631,Colour_Asymmetry_Pilot,2022.1.3,MacIntel,59.93407252,62c50e9c1127f2cd403a315f,,,,,,,,,,,,,,,,,,,,,,,,,,,,,,,,,,,,,,,,,,,,,,,,,,,,,,,,,,,,,,,,,,,,,,,,,,,,,,,,,,,,,,,,,,,,,,,,,,,,,,,,,,,,,,,,,,,,,,,,,,,,,,,,,,,,,,,,,,,,,,,,,,,,,,,,,,,,,,,,,,,
0,52,52,28,1,,614d061aa0abbd89a703844f,62c539739b00c337733a3177,2022-07-06_02h28.14.631,Colour_Asymmetry_Pilot,2022.1.3,MacIntel,59.93407252,62c50e9c1127f2cd403a315f,,,,,,,,,,,,,,,,,,,,,,,,,,,,,,,,,,,,,,,,,,,,,,,,,,,,,,,,,,,,,,,,,,,,,,,,,,,,,,,,,,,,,,,,,,,,,,,,,,,,,,,,,,,,,,,,,,,,,,,,,,,,,,,,,,,,,,,,,,,,,,,,,,,,,,,,,,,,,,,,,,,
0,53,53,56,1,,614d061aa0abbd89a703844f,62c539739b00c337733a3177,2022-07-06_02h28.14.631,Colour_Asymmetry_Pilot,2022.1.3,MacIntel,59.93407252,62c50e9c1127f2cd403a315f,,,,,,,,,,,,,,,,,,,,,,,,,,,,,,,,,,,,,,,,,,,,,,,,,,,,,,,,,,,,,,,,,,,,,,,,,,,,,,,,,,,,,,,,,,,,,,,,,,,,,,,,,,,,,,,,,,,,,,,,,,,,,,,,,,,,,,,,,,,,,,,,,,,,,,,,,,,,,,,,,,,
0,54,54,5,1,,614d061aa0abbd89a703844f,62c539739b00c337733a3177,2022-07-06_02h28.14.631,Colour_Asymmetry_Pilot,2022.1.3,MacIntel,59.93407252,62c50e9c1127f2cd403a315f,,,,,,,,,,,,,,,,,,,,,,,,,,,,,,,,,,,,,,,,,,,,,,,,,,,,,,,,,,,,,,,,,,,,,,,,,,,,,,,,,,,,,,,,,,,,,,,,,,,,,,,,,,,,,,,,,,,,,,,,,,,,,,,,,,,,,,,,,,,,,,,,,,,,,,,,,,,,,,,,,,,
0,55,55,34,1,,614d061aa0abbd89a703844f,62c539739b00c337733a3177,2022-07-06_02h28.14.631,Colour_Asymmetry_Pilot,2022.1.3,MacIntel,59.93407252,62c50e9c1127f2cd403a315f,,,,,,,,,,,,,,,,,,,,,,,,,,,,,,,,,,,,,,,,,,,,,,,,,,,,,,,,,,,,,,,,,,,,,,,,,,,,,,,,,,,,,,,,,,,,,,,,,,,,,,,,,,,,,,,,,,,,,,,,,,,,,,,,,,,,,,,,,,,,,,,,,,,,,,,,,,,,,,,,,,,
0,56,56,24,1,,614d061aa0abbd89a703844f,62c539739b00c337733a3177,2022-07-06_02h28.14.631,Colour_Asymmetry_Pilot,2022.1.3,MacIntel,59.93407252,62c50e9c1127f2cd403a315f,,,,,,,,,,,,,,,,,,,,,,,,,,,,,,,,,,,,,,,,,,,,,,,,,,,,,,,,,,,,,,,,,,,,,,,,,,,,,,,,,,,,,,,,,,,,,,,,,,,,,,,,,,,,,,,,,,,,,,,,,,,,,,,,,,,,,,,,,,,,,,,,,,,,,,,,,,,,,,,,,,,
0,57,57,52,1,,614d061aa0abbd89a703844f,62c539739b00c337733a3177,2022-07-06_02h28.14.631,Colour_Asymmetry_Pilot,2022.1.3,MacIntel,59.93407252,62c50e9c1127f2cd403a315f,,,,,,,,,,,,,,,,,,,,,,,,,,,,,,,,,,,,,,,,,,,,,,,,,,,,,,,,,,,,,,,,,,,,,,,,,,,,,,,,,,,,,,,,,,,,,,,,,,,,,,,,,,,,,,,,,,,,,,,,,,,,,,,,,,,,,,,,,,,,,,,,,,,,,,,,,,,,,,,,,,,
0,58,58,78,1,,614d061aa0abbd89a703844f,62c539739b00c337733a3177,2022-07-06_02h28.14.631,Colour_Asymmetry_Pilot,2022.1.3,MacIntel,59.93407252,62c50e9c1127f2cd403a315f,,,,,,,,,,,,,,,,,,,,,,,,,,,,,,,,,,,,,,,,,,,,,,,,,,,,,,,,,,,,,,,,,,,,,,,,,,,,,,,,,,,,,,,,,,,,,,,,,,,,,,,,,,,,,,,,,,,,,,,,,,,,,,,,,,,,,,,,,,,,,,,,,,,,,,,,,,,,,,,,,,,
0,59,59,19,1,,614d061aa0abbd89a703844f,62c539739b00c337733a3177,2022-07-06_02h28.14.631,Colour_Asymmetry_Pilot,2022.1.3,MacIntel,59.93407252,62c50e9c1127f2cd403a315f,,,,,,,,,,,,,,,,,,,,,,,,,,,,,,,,,,,,,,,,,,,,,,,,,,,,,,,,,,,,,,,,,,,,,,,,,,,,,,,,,,,,,,,,,,,,,,,,,,,,,,,,,,,,,,,,,,,,,,,,,,,,,,,,,,,,,,,,,,,,,,,,,,,,,,,,,,,,,,,,,,,
0,60,60,45,1,,614d061aa0abbd89a703844f,62c539739b00c337733a3177,2022-07-06_02h28.14.631,Colour_Asymmetry_Pilot,2022.1.3,MacIntel,59.93407252,62c50e9c1127f2cd403a315f,,,,,,,,,,,,,,,,,,,,,,,,,,,,,,,,,,,,,,,,,,,,,,,,,,,,,,,,,,,,,,,,,,,,,,,,,,,,,,,,,,,,,,,,,,,,,,,,,,,,,,,,,,,,,,,,,,,,,,,,,,,,,,,,,,,,,,,,,,,,,,,,,,,,,,,,,,,,,,,,,,,
0,61,61,80,1,,614d061aa0abbd89a703844f,62c539739b00c337733a3177,2022-07-06_02h28.14.631,Colour_Asymmetry_Pilot,2022.1.3,MacIntel,59.93407252,62c50e9c1127f2cd403a315f,,,,,,,,,,,,,,,,,,,,,,,,,,,,,,,,,,,,,,,,,,,,,,,,,,,,,,,,,,,,,,,,,,,,,,,,,,,,,,,,,,,,,,,,,,,,,,,,,,,,,,,,,,,,,,,,,,,,,,,,,,,,,,,,,,,,,,,,,,,,,,,,,,,,,,,,,,,,,,,,,,,
0,62,62,3,1,,614d061aa0abbd89a703844f,62c539739b00c337733a3177,2022-07-06_02h28.14.631,Colour_Asymmetry_Pilot,2022.1.3,MacIntel,59.93407252,62c50e9c1127f2cd403a315f,,,,,,,,,,,,,,,,,,,,,,,,,,,,,,,,,,,,,,,,,,,,,,,,,,,,,,,,,,,,,,,,,,,,,,,,,,,,,,,,,,,,,,,,,,,,,,,,,,,,,,,,,,,,,,,,,,,,,,,,,,,,,,,,,,,,,,,,,,,,,,,,,,,,,,,,,,,,,,,,,,,
0,63,63,90,1,,614d061aa0abbd89a703844f,62c539739b00c337733a3177,2022-07-06_02h28.14.631,Colour_Asymmetry_Pilot,2022.1.3,MacIntel,59.93407252,62c50e9c1127f2cd403a315f,,,,,,,,,,,,,,,,,,,,,,,,,,,,,,,,,,,,,,,,,,,,,,,,,,,,,,,,,,,,,,,,,,,,,,,,,,,,,,,,,,,,,,,,,,,,,,,,,,,,,,,,,,,,,,,,,,,,,,,,,,,,,,,,,,,,,,,,,,,,,,,,,,,,,,,,,,,,,,,,,,,
0,64,64,18,1,,614d061aa0abbd89a703844f,62c539739b00c337733a3177,2022-07-06_02h28.14.631,Colour_Asymmetry_Pilot,2022.1.3,MacIntel,59.93407252,62c50e9c1127f2cd403a315f,,,,,,,,,,,,,,,,,,,,,,,,,,,,,,,,,,,,,,,,,,,,,,,,,,,,,,,,,,,,,,,,,,,,,,,,,,,,,,,,,,,,,,,,,,,,,,,,,,,,,,,,,,,,,,,,,,,,,,,,,,,,,,,,,,,,,,,,,,,,,,,,,,,,,,,,,,,,,,,,,,,
0,65,65,76,1,,614d061aa0abbd89a703844f,62c539739b00c337733a3177,2022-07-06_02h28.14.631,Colour_Asymmetry_Pilot,2022.1.3,MacIntel,59.93407252,62c50e9c1127f2cd403a315f,,,,,,,,,,,,,,,,,,,,,,,,,,,,,,,,,,,,,,,,,,,,,,,,,,,,,,,,,,,,,,,,,,,,,,,,,,,,,,,,,,,,,,,,,,,,,,,,,,,,,,,,,,,,,,,,,,,,,,,,,,,,,,,,,,,,,,,,,,,,,,,,,,,,,,,,,,,,,,,,,,,
0,66,66,75,1,,614d061aa0abbd89a703844f,62c539739b00c337733a3177,2022-07-06_02h28.14.631,Colour_Asymmetry_Pilot,2022.1.3,MacIntel,59.93407252,62c50e9c1127f2cd403a315f,,,,,,,,,,,,,,,,,,,,,,,,,,,,,,,,,,,,,,,,,,,,,,,,,,,,,,,,,,,,,,,,,,,,,,,,,,,,,,,,,,,,,,,,,,,,,,,,,,,,,,,,,,,,,,,,,,,,,,,,,,,,,,,,,,,,,,,,,,,,,,,,,,,,,,,,,,,,,,,,,,,
0,67,67,67,1,,614d061aa0abbd89a703844f,62c539739b00c337733a3177,2022-07-06_02h28.14.631,Colour_Asymmetry_Pilot,2022.1.3,MacIntel,59.93407252,62c50e9c1127f2cd403a315f,,,,,,,,,,,,,,,,,,,,,,,,,,,,,,,,,,,,,,,,,,,,,,,,,,,,,,,,,,,,,,,,,,,,,,,,,,,,,,,,,,,,,,,,,,,,,,,,,,,,,,,,,,,,,,,,,,,,,,,,,,,,,,,,,,,,,,,,,,,,,,,,,,,,,,,,,,,,,,,,,,,
0,68,68,44,1,,614d061aa0abbd89a703844f,62c539739b00c337733a3177,2022-07-06_02h28.14.631,Colour_Asymmetry_Pilot,2022.1.3,MacIntel,59.93407252,62c50e9c1127f2cd403a315f,,,,,,,,,,,,,,,,,,,,,,,,,,,,,,,,,,,,,,,,,,,,,,,,,,,,,,,,,,,,,,,,,,,,,,,,,,,,,,,,,,,,,,,,,,,,,,,,,,,,,,,,,,,,,,,,,,,,,,,,,,,,,,,,,,,,,,,,,,,,,,,,,,,,,,,,,,,,,,,,,,,
0,69,69,48,1,,614d061aa0abbd89a703844f,62c539739b00c337733a3177,2022-07-06_02h28.14.631,Colour_Asymmetry_Pilot,2022.1.3,MacIntel,59.93407252,62c50e9c1127f2cd403a315f,,,,,,,,,,,,,,,,,,,,,,,,,,,,,,,,,,,,,,,,,,,,,,,,,,,,,,,,,,,,,,,,,,,,,,,,,,,,,,,,,,,,,,,,,,,,,,,,,,,,,,,,,,,,,,,,,,,,,,,,,,,,,,,,,,,,,,,,,,,,,,,,,,,,,,,,,,,,,,,,,,,
0,70,70,38,1,,614d061aa0abbd89a703844f,62c539739b00c337733a3177,2022-07-06_02h28.14.631,Colour_Asymmetry_Pilot,2022.1.3,MacIntel,59.93407252,62c50e9c1127f2cd403a315f,,,,,,,,,,,,,,,,,,,,,,,,,,,,,,,,,,,,,,,,,,,,,,,,,,,,,,,,,,,,,,,,,,,,,,,,,,,,,,,,,,,,,,,,,,,,,,,,,,,,,,,,,,,,,,,,,,,,,,,,,,,,,,,,,,,,,,,,,,,,,,,,,,,,,,,,,,,,,,,,,,,
0,71,71,53,1,,614d061aa0abbd89a703844f,62c539739b00c337733a3177,2022-07-06_02h28.14.631,Colour_Asymmetry_Pilot,2022.1.3,MacIntel,59.93407252,62c50e9c1127f2cd403a315f,,,,,,,,,,,,,,,,,,,,,,,,,,,,,,,,,,,,,,,,,,,,,,,,,,,,,,,,,,,,,,,,,,,,,,,,,,,,,,,,,,,,,,,,,,,,,,,,,,,,,,,,,,,,,,,,,,,,,,,,,,,,,,,,,,,,,,,,,,,,,,,,,,,,,,,,,,,,,,,,,,,
0,72,72,50,1,,614d061aa0abbd89a703844f,62c539739b00c337733a3177,2022-07-06_02h28.14.631,Colour_Asymmetry_Pilot,2022.1.3,MacIntel,59.93407252,62c50e9c1127f2cd403a315f,,,,,,,,,,,,,,,,,,,,,,,,,,,,,,,,,,,,,,,,,,,,,,,,,,,,,,,,,,,,,,,,,,,,,,,,,,,,,,,,,,,,,,,,,,,,,,,,,,,,,,,,,,,,,,,,,,,,,,,,,,,,,,,,,,,,,,,,,,,,,,,,,,,,,,,,,,,,,,,,,,,
0,73,73,73,1,,614d061aa0abbd89a703844f,62c539739b00c337733a3177,2022-07-06_02h28.14.631,Colour_Asymmetry_Pilot,2022.1.3,MacIntel,59.93407252,62c50e9c1127f2cd403a315f,,,,,,,,,,,,,,,,,,,,,,,,,,,,,,,,,,,,,,,,,,,,,,,,,,,,,,,,,,,,,,,,,,,,,,,,,,,,,,,,,,,,,,,,,,,,,,,,,,,,,,,,,,,,,,,,,,,,,,,,,,,,,,,,,,,,,,,,,,,,,,,,,,,,,,,,,,,,,,,,,,,
0,74,74,62,1,,614d061aa0abbd89a703844f,62c539739b00c337733a3177,2022-07-06_02h28.14.631,Colour_Asymmetry_Pilot,2022.1.3,MacIntel,59.93407252,62c50e9c1127f2cd403a315f,,,,,,,,,,,,,,,,,,,,,,,,,,,,,,,,,,,,,,,,,,,,,,,,,,,,,,,,,,,,,,,,,,,,,,,,,,,,,,,,,,,,,,,,,,,,,,,,,,,,,,,,,,,,,,,,,,,,,,,,,,,,,,,,,,,,,,,,,,,,,,,,,,,,,,,,,,,,,,,,,,,
0,75,75,83,1,,614d061aa0abbd89a703844f,62c539739b00c337733a3177,2022-07-06_02h28.14.631,Colour_Asymmetry_Pilot,2022.1.3,MacIntel,59.93407252,62c50e9c1127f2cd403a315f,,,,,,,,,,,,,,,,,,,,,,,,,,,,,,,,,,,,,,,,,,,,,,,,,,,,,,,,,,,,,,,,,,,,,,,,,,,,,,,,,,,,,,,,,,,,,,,,,,,,,,,,,,,,,,,,,,,,,,,,,,,,,,,,,,,,,,,,,,,,,,,,,,,,,,,,,,,,,,,,,,,
0,76,76,64,1,,614d061aa0abbd89a703844f,62c539739b00c337733a3177,2022-07-06_02h28.14.631,Colour_Asymmetry_Pilot,2022.1.3,MacIntel,59.93407252,62c50e9c1127f2cd403a315f,,,,,,,,,,,,,,,,,,,,,,,,,,,,,,,,,,,,,,,,,,,,,,,,,,,,,,,,,,,,,,,,,,,,,,,,,,,,,,,,,,,,,,,,,,,,,,,,,,,,,,,,,,,,,,,,,,,,,,,,,,,,,,,,,,,,,,,,,,,,,,,,,,,,,,,,,,,,,,,,,,,
0,77,77,39,1,,614d061aa0abbd89a703844f,62c539739b00c337733a3177,2022-07-06_02h28.14.631,Colour_Asymmetry_Pilot,2022.1.3,MacIntel,59.93407252,62c50e9c1127f2cd403a315f,,,,,,,,,,,,,,,,,,,,,,,,,,,,,,,,,,,,,,,,,,,,,,,,,,,,,,,,,,,,,,,,,,,,,,,,,,,,,,,,,,,,,,,,,,,,,,,,,,,,,,,,,,,,,,,,,,,,,,,,,,,,,,,,,,,,,,,,,,,,,,,,,,,,,,,,,,,,,,,,,,,
0,78,78,87,1,,614d061aa0abbd89a703844f,62c539739b00c337733a3177,2022-07-06_02h28.14.631,Colour_Asymmetry_Pilot,2022.1.3,MacIntel,59.93407252,62c50e9c1127f2cd403a315f,,,,,,,,,,,,,,,,,,,,,,,,,,,,,,,,,,,,,,,,,,,,,,,,,,,,,,,,,,,,,,,,,,,,,,,,,,,,,,,,,,,,,,,,,,,,,,,,,,,,,,,,,,,,,,,,,,,,,,,,,,,,,,,,,,,,,,,,,,,,,,,,,,,,,,,,,,,,,,,,,,,
0,79,79,21,1,,614d061aa0abbd89a703844f,62c539739b00c337733a3177,2022-07-06_02h28.14.631,Colour_Asymmetry_Pilot,2022.1.3,MacIntel,59.93407252,62c50e9c1127f2cd403a315f,,,,,,,,,,,,,,,,,,,,,,,,,,,,,,,,,,,,,,,,,,,,,,,,,,,,,,,,,,,,,,,,,,,,,,,,,,,,,,,,,,,,,,,,,,,,,,,,,,,,,,,,,,,,,,,,,,,,,,,,,,,,,,,,,,,,,,,,,,,,,,,,,,,,,,,,,,,,,,,,,,,
0,80,80,1,1,,614d061aa0abbd89a703844f,62c539739b00c337733a3177,2022-07-06_02h28.14.631,Colour_Asymmetry_Pilot,2022.1.3,MacIntel,59.93407252,62c50e9c1127f2cd403a315f,,,,,,,,,,,,,,,,,,,,,,,,,,,,,,,,,,,,,,,,,,,,,,,,,,,,,,,,,,,,,,,,,,,,,,,,,,,,,,,,,,,,,,,,,,,,,,,,,,,,,,,,,,,,,,,,,,,,,,,,,,,,,,,,,,,,,,,,,,,,,,,,,,,,,,,,,,,,,,,,,,,
0,81,81,16,1,,614d061aa0abbd89a703844f,62c539739b00c337733a3177,2022-07-06_02h28.14.631,Colour_Asymmetry_Pilot,2022.1.3,MacIntel,59.93407252,62c50e9c1127f2cd403a315f,,,,,,,,,,,,,,,,,,,,,,,,,,,,,,,,,,,,,,,,,,,,,,,,,,,,,,,,,,,,,,,,,,,,,,,,,,,,,,,,,,,,,,,,,,,,,,,,,,,,,,,,,,,,,,,,,,,,,,,,,,,,,,,,,,,,,,,,,,,,,,,,,,,,,,,,,,,,,,,,,,,
0,82,82,7,1,,614d061aa0abbd89a703844f,62c539739b00c337733a3177,2022-07-06_02h28.14.631,Colour_Asymmetry_Pilot,2022.1.3,MacIntel,59.93407252,62c50e9c1127f2cd403a315f,,,,,,,,,,,,,,,,,,,,,,,,,,,,,,,,,,,,,,,,,,,,,,,,,,,,,,,,,,,,,,,,,,,,,,,,,,,,,,,,,,,,,,,,,,,,,,,,,,,,,,,,,,,,,,,,,,,,,,,,,,,,,,,,,,,,,,,,,,,,,,,,,,,,,,,,,,,,,,,,,,,
0,83,83,36,1,,614d061aa0abbd89a703844f,62c539739b00c337733a3177,2022-07-06_02h28.14.631,Colour_Asymmetry_Pilot,2022.1.3,MacIntel,59.93407252,62c50e9c1127f2cd403a315f,,,,,,,,,,,,,,,,,,,,,,,,,,,,,,,,,,,,,,,,,,,,,,,,,,,,,,,,,,,,,,,,,,,,,,,,,,,,,,,,,,,,,,,,,,,,,,,,,,,,,,,,,,,,,,,,,,,,,,,,,,,,,,,,,,,,,,,,,,,,,,,,,,,,,,,,,,,,,,,,,,,
0,84,84,20,1,,614d061aa0abbd89a703844f,62c539739b00c337733a3177,2022-07-06_02h28.14.631,Colour_Asymmetry_Pilot,2022.1.3,MacIntel,59.93407252,62c50e9c1127f2cd403a315f,,,,,,,,,,,,,,,,,,,,,,,,,,,,,,,,,,,,,,,,,,,,,,,,,,,,,,,,,,,,,,,,,,,,,,,,,,,,,,,,,,,,,,,,,,,,,,,,,,,,,,,,,,,,,,,,,,,,,,,,,,,,,,,,,,,,,,,,,,,,,,,,,,,,,,,,,,,,,,,,,,,
0,85,85,43,1,,614d061aa0abbd89a703844f,62c539739b00c337733a3177,2022-07-06_02h28.14.631,Colour_Asymmetry_Pilot,2022.1.3,MacIntel,59.93407252,62c50e9c1127f2cd403a315f,,,,,,,,,,,,,,,,,,,,,,,,,,,,,,,,,,,,,,,,,,,,,,,,,,,,,,,,,,,,,,,,,,,,,,,,,,,,,,,,,,,,,,,,,,,,,,,,,,,,,,,,,,,,,,,,,,,,,,,,,,,,,,,,,,,,,,,,,,,,,,,,,,,,,,,,,,,,,,,,,,,
0,86,86,63,1,,614d061aa0abbd89a703844f,62c539739b00c337733a3177,2022-07-06_02h28.14.631,Colour_Asymmetry_Pilot,2022.1.3,MacIntel,59.93407252,62c50e9c1127f2cd403a315f,,,,,,,,,,,,,,,,,,,,,,,,,,,,,,,,,,,,,,,,,,,,,,,,,,,,,,,,,,,,,,,,,,,,,,,,,,,,,,,,,,,,,,,,,,,,,,,,,,,,,,,,,,,,,,,,,,,,,,,,,,,,,,,,,,,,,,,,,,,,,,,,,,,,,,,,,,,,,,,,,,,
0,87,87,49,1,,614d061aa0abbd89a703844f,62c539739b00c337733a3177,2022-07-06_02h28.14.631,Colour_Asymmetry_Pilot,2022.1.3,MacIntel,59.93407252,62c50e9c1127f2cd403a315f,,,,,,,,,,,,,,,,,,,,,,,,,,,,,,,,,,,,,,,,,,,,,,,,,,,,,,,,,,,,,,,,,,,,,,,,,,,,,,,,,,,,,,,,,,,,,,,,,,,,,,,,,,,,,,,,,,,,,,,,,,,,,,,,,,,,,,,,,,,,,,,,,,,,,,,,,,,,,,,,,,,
0,88,88,59,1,,614d061aa0abbd89a703844f,62c539739b00c337733a3177,2022-07-06_02h28.14.631,Colour_Asymmetry_Pilot,2022.1.3,MacIntel,59.93407252,62c50e9c1127f2cd403a315f,,,,,,,,,,,,,,,,,,,,,,,,,,,,,,,,,,,,,,,,,,,,,,,,,,,,,,,,,,,,,,,,,,,,,,,,,,,,,,,,,,,,,,,,,,,,,,,,,,,,,,,,,,,,,,,,,,,,,,,,,,,,,,,,,,,,,,,,,,,,,,,,,,,,,,,,,,,,,,,,,,,
0,89,89,26,1,,614d061aa0abbd89a703844f,62c539739b00c337733a3177,2022-07-06_02h28.14.631,Colour_Asymmetry_Pilot,2022.1.3,MacIntel,59.93407252,62c50e9c1127f2cd403a315f,,,,,,,,,,,,,,,,,,,,,,,,,,,,,,,,,,,,,,,,,,,,,,,,,,,,,,,,,,,,,,,,,,,,,,,,,,,,,,,,,,,,,,,,,,,,,,,,,,,,,,,,,,,,,,,,,,,,,,,,,,,,,,,,,,,,,,,,,,,,,,,,,,,,,,,,,,,,,,,,,,,
0,90,90,68,1,,614d061aa0abbd89a703844f,62c539739b00c337733a3177,2022-07-06_02h28.14.631,Colour_Asymmetry_Pilot,2022.1.3,MacIntel,59.93407252,62c50e9c1127f2cd403a315f,,,,,,,,,,,,,,,,,,,,,,,,,,,,,,,,,,,,,,,,,,,,,,,,,,,,,,,,,,,,,,,,,,,,,,,,,,,,,,,,,,,,,,,,,,,,,,,,,,,,,,,,,,,,,,,,,,,,,,,,,,,,,,,,,,,,,,,,,,,,,,,,,,,,,,,,,,,,,,,,,,,
0,91,91,70,1,,614d061aa0abbd89a703844f,62c539739b00c337733a3177,2022-07-06_02h28.14.631,Colour_Asymmetry_Pilot,2022.1.3,MacIntel,59.93407252,62c50e9c1127f2cd403a315f,,,,,,,,,,,,,,,,,,,,,,,,,,,,,,,,,,,,,,,,,,,,,,,,,,,,,,,,,,,,,,,,,,,,,,,,,,,,,,,,,,,,,,,,,,,,,,,,,,,,,,,,,,,,,,,,,,,,,,,,,,,,,,,,,,,,,,,,,,,,,,,,,,,,,,,,,,,,,,,,,,,
0,92,92,89,1,,614d061aa0abbd89a703844f,62c539739b00c337733a3177,2022-07-06_02h28.14.631,Colour_Asymmetry_Pilot,2022.1.3,MacIntel,59.93407252,62c50e9c1127f2cd403a315f,,,,,,,,,,,,,,,,,,,,,,,,,,,,,,,,,,,,,,,,,,,,,,,,,,,,,,,,,,,,,,,,,,,,,,,,,,,,,,,,,,,,,,,,,,,,,,,,,,,,,,,,,,,,,,,,,,,,,,,,,,,,,,,,,,,,,,,,,,,,,,,,,,,,,,,,,,,,,,,,,,,
,,,,,,614d061aa0abbd89a703844f,62c539739b00c337733a3177,2022-07-06_02h28.14.631,Colour_Asymmetry_Pilot,2022.1.3,MacIntel,59.93407252,62c50e9c1127f2cd403a315f,0,0,0,92,1,threeone,,,,,,,,,,,,,,,,,,,,,,,,,,,,,,,,,,,,,,,,,,,,,,,,,,,,,,,,,,,,,,,,,,,,,,,,,,,,,,,,,,,,,,,,,,,,,,,,,,,,,,,,,,,,,,,,,,,,,,,,,,,,,,,,,,,,,,,,,,,,,,,,,,,,,,,,,,,,,
,,,,,,614d061aa0abbd89a703844f,62c539739b00c337733a3177,2022-07-06_02h28.14.631,Colour_Asymmetry_Pilot,2022.1.3,MacIntel,59.93407252,62c50e9c1127f2cd403a315f,0,1,1,27,1,twofour,,,,,,,,,,,,,,,,,,,,,,,,,,,,,,,,,,,,,,,,,,,,,,,,,,,,,,,,,,,,,,,,,,,,,,,,,,,,,,,,,,,,,,,,,,,,,,,,,,,,,,,,,,,,,,,,,,,,,,,,,,,,,,,,,,,,,,,,,,,,,,,,,,,,,,,,,,,,,
,,,,,,614d061aa0abbd89a703844f,62c539739b00c337733a3177,2022-07-06_02h28.14.631,Colour_Asymmetry_Pilot,2022.1.3,MacIntel,59.93407252,62c50e9c1127f2cd403a315f,0,2,2,86,1,fourtwo,,,,,,,,,,,,,,,,,,,,,,,,,,,,,,,,,,,,,,,,,,,,,,,,,,,,,,,,,,,,,,,,,,,,,,,,,,,,,,,,,,,,,,,,,,,,,,,,,,,,,,,,,,,,,,,,,,,,,,,,,,,,,,,,,,,,,,,,,,,,,,,,,,,,,,,,,,,,,
,,,,,,614d061aa0abbd89a703844f,62c539739b00c337733a3177,2022-07-06_02h28.14.631,Colour_Asymmetry_Pilot,2022.1.3,MacIntel,59.93407252,62c50e9c1127f2cd403a315f,0,3,3,120,1,onetwo,,,,,,,,,,,,,,,,,,,,,,,,,,,,,,,,,,,,,,,,,,,,,,,,,,,,,,,,,,,,,,,,,,,,,,,,,,,,,,,,,,,,,,,,,,,,,,,,,,,,,,,,,,,,,,,,,,,,,,,,,,,,,,,,,,,,,,,,,,,,,,,,,,,,,,,,,,,,,
,,,,,,614d061aa0abbd89a703844f,62c539739b00c337733a3177,2022-07-06_02h28.14.631,Colour_Asymmetry_Pilot,2022.1.3,MacIntel,59.93407252,62c50e9c1127f2cd403a315f,0,4,4,53,1,threefour,,,,,,,,,,,,,,,,,,,,,,,,,,,,,,,,,,,,,,,,,,,,,,,,,,,,,,,,,,,,,,,,,,,,,,,,,,,,,,,,,,,,,,,,,,,,,,,,,,,,,,,,,,,,,,,,,,,,,,,,,,,,,,,,,,,,,,,,,,,,,,,,,,,,,,,,,,,,,
,,,,,,614d061aa0abbd89a703844f,62c539739b00c337733a3177,2022-07-06_02h28.14.631,Colour_Asymmetry_Pilot,2022.1.3,MacIntel,59.93407252,62c50e9c1127f2cd403a315f,0,5,5,104,1,onetwo,,,,,,,,,,,,,,,,,,,,,,,,,,,,,,,,,,,,,,,,,,,,,,,,,,,,,,,,,,,,,,,,,,,,,,,,,,,,,,,,,,,,,,,,,,,,,,,,,,,,,,,,,,,,,,,,,,,,,,,,,,,,,,,,,,,,,,,,,,,,,,,,,,,,,,,,,,,,,
,,,,,,614d061aa0abbd89a703844f,62c539739b00c337733a3177,2022-07-06_02h28.14.631,Colour_Asymmetry_Pilot,2022.1.3,MacIntel,59.93407252,62c50e9c1127f2cd403a315f,0,6,6,145,1,onethree,,,,,,,,,,,,,,,,,,,,,,,,,,,,,,,,,,,,,,,,,,,,,,,,,,,,,,,,,,,,,,,,,,,,,,,,,,,,,,,,,,,,,,,,,,,,,,,,,,,,,,,,,,,,,,,,,,,,,,,,,,,,,,,,,,,,,,,,,,,,,,,,,,,,,,,,,,,,,
,,,,,,614d061aa0abbd89a703844f,62c539739b00c337733a3177,2022-07-06_02h28.14.631,Colour_Asymmetry_Pilot,2022.1.3,MacIntel,59.93407252,62c50e9c1127f2cd403a315f,0,7,7,26,1,twoone,,,,,,,,,,,,,,,,,,,,,,,,,,,,,,,,,,,,,,,,,,,,,,,,,,,,,,,,,,,,,,,,,,,,,,,,,,,,,,,,,,,,,,,,,,,,,,,,,,,,,,,,,,,,,,,,,,,,,,,,,,,,,,,,,,,,,,,,,,,,,,,,,,,,,,,,,,,,,
,,,,,,614d061aa0abbd89a703844f,62c539739b00c337733a3177,2022-07-06_02h28.14.631,Colour_Asymmetry_Pilot,2022.1.3,MacIntel,59.93407252,62c50e9c1127f2cd403a315f,0,8,8,32,1,onetwo,,,,,,,,,,,,,,,,,,,,,,,,,,,,,,,,,,,,,,,,,,,,,,,,,,,,,,,,,,,,,,,,,,,,,,,,,,,,,,,,,,,,,,,,,,,,,,,,,,,,,,,,,,,,,,,,,,,,,,,,,,,,,,,,,,,,,,,,,,,,,,,,,,,,,,,,,,,,,
,,,,,,614d061aa0abbd89a703844f,62c539739b00c337733a3177,2022-07-06_02h28.14.631,Colour_Asymmetry_Pilot,2022.1.3,MacIntel,59.93407252,62c50e9c1127f2cd403a315f,0,9,9,56,1,onetwo,,,,,,,,,,,,,,,,,,,,,,,,,,,,,,,,,,,,,,,,,,,,,,,,,,,,,,,,,,,,,,,,,,,,,,,,,,,,,,,,,,,,,,,,,,,,,,,,,,,,,,,,,,,,,,,,,,,,,,,,,,,,,,,,,,,,,,,,,,,,,,,,,,,,,,,,,,,,,
,,,,,,614d061aa0abbd89a703844f,62c539739b00c337733a3177,2022-07-06_02h28.14.631,Colour_Asymmetry_Pilot,2022.1.3,MacIntel,59.93407252,62c50e9c1127f2cd403a315f,0,10,10,64,1,onetwo,,,,,,,,,,,,,,,,,,,,,,,,,,,,,,,,,,,,,,,,,,,,,,,,,,,,,,,,,,,,,,,,,,,,,,,,,,,,,,,,,,,,,,,,,,,,,,,,,,,,,,,,,,,,,,,,,,,,,,,,,,,,,,,,,,,,,,,,,,,,,,,,,,,,,,,,,,,,,
,,,,,,614d061aa0abbd89a703844f,62c539739b00c337733a3177,2022-07-06_02h28.14.631,Colour_Asymmetry_Pilot,2022.1.3,MacIntel,59.93407252,62c50e9c1127f2cd403a315f,0,11,11,51,1,twofour,,,,,,,,,,,,,,,,,,,,,,,,,,,,,,,,,,,,,,,,,,,,,,,,,,,,,,,,,,,,,,,,,,,,,,,,,,,,,,,,,,,,,,,,,,,,,,,,,,,,,,,,,,,,,,,,,,,,,,,,,,,,,,,,,,,,,,,,,,,,,,,,,,,,,,,,,,,,,
,,,,,,614d061aa0abbd89a703844f,62c539739b00c337733a3177,2022-07-06_02h28.14.631,Colour_Asymmetry_Pilot,2022.1.3,MacIntel,59.93407252,62c50e9c1127f2cd403a315f,0,12,12,43,1,twofour,,,,,,,,,,,,,,,,,,,,,,,,,,,,,,,,,,,,,,,,,,,,,,,,,,,,,,,,,,,,,,,,,,,,,,,,,,,,,,,,,,,,,,,,,,,,,,,,,,,,,,,,,,,,,,,,,,,,,,,,,,,,,,,,,,,,,,,,,,,,,,,,,,,,,,,,,,,,,
,,,,,,614d061aa0abbd89a703844f,62c539739b00c337733a3177,2022-07-06_02h28.14.631,Colour_Asymmetry_Pilot,2022.1.3,MacIntel,59.93407252,62c50e9c1127f2cd403a315f,0,13,13,134,1,fourtwo,,,,,,,,,,,,,,,,,,,,,,,,,,,,,,,,,,,,,,,,,,,,,,,,,,,,,,,,,,,,,,,,,,,,,,,,,,,,,,,,,,,,,,,,,,,,,,,,,,,,,,,,,,,,,,,,,,,,,,,,,,,,,,,,,,,,,,,,,,,,,,,,,,,,,,,,,,,,,
,,,,,,614d061aa0abbd89a703844f,62c539739b00c337733a3177,2022-07-06_02h28.14.631,Colour_Asymmetry_Pilot,2022.1.3,MacIntel,59.93407252,62c50e9c1127f2cd403a315f,0,14,14,157,1,threefour,,,,,,,,,,,,,,,,,,,,,,,,,,,,,,,,,,,,,,,,,,,,,,,,,,,,,,,,,,,,,,,,,,,,,,,,,,,,,,,,,,,,,,,,,,,,,,,,,,,,,,,,,,,,,,,,,,,,,,,,,,,,,,,,,,,,,,,,,,,,,,,,,,,,,,,,,,,,,
,,,,,,614d061aa0abbd89a703844f,62c539739b00c337733a3177,2022-07-06_02h28.14.631,Colour_Asymmetry_Pilot,2022.1.3,MacIntel,59.93407252,62c50e9c1127f2cd403a315f,0,15,15,143,1,fourthree,,,,,,,,,,,,,,,,,,,,,,,,,,,,,,,,,,,,,,,,,,,,,,,,,,,,,,,,,,,,,,,,,,,,,,,,,,,,,,,,,,,,,,,,,,,,,,,,,,,,,,,,,,,,,,,,,,,,,,,,,,,,,,,,,,,,,,,,,,,,,,,,,,,,,,,,,,,,,
,,,,,,614d061aa0abbd89a703844f,62c539739b00c337733a3177,2022-07-06_02h28.14.631,Colour_Asymmetry_Pilot,2022.1.3,MacIntel,59.93407252,62c50e9c1127f2cd403a315f,0,16,16,29,1,threefour,,,,,,,,,,,,,,,,,,,,,,,,,,,,,,,,,,,,,,,,,,,,,,,,,,,,,,,,,,,,,,,,,,,,,,,,,,,,,,,,,,,,,,,,,,,,,,,,,,,,,,,,,,,,,,,,,,,,,,,,,,,,,,,,,,,,,,,,,,,,,,,,,,,,,,,,,,,,,
,,,,,,614d061aa0abbd89a703844f,62c539739b00c337733a3177,2022-07-06_02h28.14.631,Colour_Asymmetry_Pilot,2022.1.3,MacIntel,59.93407252,62c50e9c1127f2cd403a315f,0,17,17,106,1,twoone,,,,,,,,,,,,,,,,,,,,,,,,,,,,,,,,,,,,,,,,,,,,,,,,,,,,,,,,,,,,,,,,,,,,,,,,,,,,,,,,,,,,,,,,,,,,,,,,,,,,,,,,,,,,,,,,,,,,,,,,,,,,,,,,,,,,,,,,,,,,,,,,,,,,,,,,,,,,,
,,,,,,614d061aa0abbd89a703844f,62c539739b00c337733a3177,2022-07-06_02h28.14.631,Colour_Asymmetry_Pilot,2022.1.3,MacIntel,59.93407252,62c50e9c1127f2cd403a315f,0,18,18,47,1,fourthree,,,,,,,,,,,,,,,,,,,,,,,,,,,,,,,,,,,,,,,,,,,,,,,,,,,,,,,,,,,,,,,,,,,,,,,,,,,,,,,,,,,,,,,,,,,,,,,,,,,,,,,,,,,,,,,,,,,,,,,,,,,,,,,,,,,,,,,,,,,,,,,,,,,,,,,,,,,,,
,,,,,,614d061aa0abbd89a703844f,62c539739b00c337733a3177,2022-07-06_02h28.14.631,Colour_Asymmetry_Pilot,2022.1.3,MacIntel,59.93407252,62c50e9c1127f2cd403a315f,0,19,19,52,1,threeone,,,,,,,,,,,,,,,,,,,,,,,,,,,,,,,,,,,,,,,,,,,,,,,,,,,,,,,,,,,,,,,,,,,,,,,,,,,,,,,,,,,,,,,,,,,,,,,,,,,,,,,,,,,,,,,,,,,,,,,,,,,,,,,,,,,,,,,,,,,,,,,,,,,,,,,,,,,,,
,,,,,,614d061aa0abbd89a703844f,62c539739b00c337733a3177,2022-07-06_02h28.14.631,Colour_Asymmetry_Pilot,2022.1.3,MacIntel,59.93407252,62c50e9c1127f2cd403a315f,0,20,20,7,1,fourthree,,,,,,,,,,,,,,,,,,,,,,,,,,,,,,,,,,,,,,,,,,,,,,,,,,,,,,,,,,,,,,,,,,,,,,,,,,,,,,,,,,,,,,,,,,,,,,,,,,,,,,,,,,,,,,,,,,,,,,,,,,,,,,,,,,,,,,,,,,,,,,,,,,,,,,,,,,,,,
,,,,,,614d061aa0abbd89a703844f,62c539739b00c337733a3177,2022-07-06_02h28.14.631,Colour_Asymmetry_Pilot,2022.1.3,MacIntel,59.93407252,62c50e9c1127f2cd403a315f,0,21,21,159,1,fourthree,,,,,,,,,,,,,,,,,,,,,,,,,,,,,,,,,,,,,,,,,,,,,,,,,,,,,,,,,,,,,,,,,,,,,,,,,,,,,,,,,,,,,,,,,,,,,,,,,,,,,,,,,,,,,,,,,,,,,,,,,,,,,,,,,,,,,,,,,,,,,,,,,,,,,,,,,,,,,
,,,,,,614d061aa0abbd89a703844f,62c539739b00c337733a3177,2022-07-06_02h28.14.631,Colour_Asymmetry_Pilot,2022.1.3,MacIntel,59.93407252,62c50e9c1127f2cd403a315f,0,22,22,129,1,onethree,,,,,,,,,,,,,,,,,,,,,,,,,,,,,,,,,,,,,,,,,,,,,,,,,,,,,,,,,,,,,,,,,,,,,,,,,,,,,,,,,,,,,,,,,,,,,,,,,,,,,,,,,,,,,,,,,,,,,,,,,,,,,,,,,,,,,,,,,,,,,,,,,,,,,,,,,,,,,
,,,,,,614d061aa0abbd89a703844f,62c539739b00c337733a3177,2022-07-06_02h28.14.631,Colour_Asymmetry_Pilot,2022.1.3,MacIntel,59.93407252,62c50e9c1127f2cd403a315f,0,23,23,121,1,onethree,,,,,,,,,,,,,,,,,,,,,,,,,,,,,,,,,,,,,,,,,,,,,,,,,,,,,,,,,,,,,,,,,,,,,,,,,,,,,,,,,,,,,,,,,,,,,,,,,,,,,,,,,,,,,,,,,,,,,,,,,,,,,,,,,,,,,,,,,,,,,,,,,,,,,,,,,,,,,
,,,,,,614d061aa0abbd89a703844f,62c539739b00c337733a3177,2022-07-06_02h28.14.631,Colour_Asymmetry_Pilot,2022.1.3,MacIntel,59.93407252,62c50e9c1127f2cd403a315f,0,24,24,72,1,onetwo,,,,,,,,,,,,,,,,,,,,,,,,,,,,,,,,,,,,,,,,,,,,,,,,,,,,,,,,,,,,,,,,,,,,,,,,,,,,,,,,,,,,,,,,,,,,,,,,,,,,,,,,,,,,,,,,,,,,,,,,,,,,,,,,,,,,,,,,,,,,,,,,,,,,,,,,,,,,,
,,,,,,614d061aa0abbd89a703844f,62c539739b00c337733a3177,2022-07-06_02h28.14.631,Colour_Asymmetry_Pilot,2022.1.3,MacIntel,59.93407252,62c50e9c1127f2cd403a315f,0,25,25,37,1,threefour,,,,,,,,,,,,,,,,,,,,,,,,,,,,,,,,,,,,,,,,,,,,,,,,,,,,,,,,,,,,,,,,,,,,,,,,,,,,,,,,,,,,,,,,,,,,,,,,,,,,,,,,,,,,,,,,,,,,,,,,,,,,,,,,,,,,,,,,,,,,,,,,,,,,,,,,,,,,,
,,,,,,614d061aa0abbd89a703844f,62c539739b00c337733a3177,2022-07-06_02h28.14.631,Colour_Asymmetry_Pilot,2022.1.3,MacIntel,59.93407252,62c50e9c1127f2cd403a315f,0,26,26,65,1,onethree,,,,,,,,,,,,,,,,,,,,,,,,,,,,,,,,,,,,,,,,,,,,,,,,,,,,,,,,,,,,,,,,,,,,,,,,,,,,,,,,,,,,,,,,,,,,,,,,,,,,,,,,,,,,,,,,,,,,,,,,,,,,,,,,,,,,,,,,,,,,,,,,,,,,,,,,,,,,,
,,,,,,614d061aa0abbd89a703844f,62c539739b00c337733a3177,2022-07-06_02h28.14.631,Colour_Asymmetry_Pilot,2022.1.3,MacIntel,59.93407252,62c50e9c1127f2cd403a315f,0,27,27,95,1,fourthree,,,,,,,,,,,,,,,,,,,,,,,,,,,,,,,,,,,,,,,,,,,,,,,,,,,,,,,,,,,,,,,,,,,,,,,,,,,,,,,,,,,,,,,,,,,,,,,,,,,,,,,,,,,,,,,,,,,,,,,,,,,,,,,,,,,,,,,,,,,,,,,,,,,,,,,,,,,,,
,,,,,,614d061aa0abbd89a703844f,62c539739b00c337733a3177,2022-07-06_02h28.14.631,Colour_Asymmetry_Pilot,2022.1.3,MacIntel,59.93407252,62c50e9c1127f2cd403a315f,0,28,28,2,1,twoone,,,,,,,,,,,,,,,,,,,,,,,,,,,,,,,,,,,,,,,,,,,,,,,,,,,,,,,,,,,,,,,,,,,,,,,,,,,,,,,,,,,,,,,,,,,,,,,,,,,,,,,,,,,,,,,,,,,,,,,,,,,,,,,,,,,,,,,,,,,,,,,,,,,,,,,,,,,,,
,,,,,,614d061aa0abbd89a703844f,62c539739b00c337733a3177,2022-07-06_02h28.14.631,Colour_Asymmetry_Pilot,2022.1.3,MacIntel,59.93407252,62c50e9c1127f2cd403a315f,0,29,29,131,1,twofour,,,,,,,,,,,,,,,,,,,,,,,,,,,,,,,,,,,,,,,,,,,,,,,,,,,,,,,,,,,,,,,,,,,,,,,,,,,,,,,,,,,,,,,,,,,,,,,,,,,,,,,,,,,,,,,,,,,,,,,,,,,,,,,,,,,,,,,,,,,,,,,,,,,,,,,,,,,,,
,,,,,,614d061aa0abbd89a703844f,62c539739b00c337733a3177,2022-07-06_02h28.14.631,Colour_Asymmetry_Pilot,2022.1.3,MacIntel,59.93407252,62c50e9c1127f2cd403a315f,0,30,30,46,1,fourtwo,,,,,,,,,,,,,,,,,,,,,,,,,,,,,,,,,,,,,,,,,,,,,,,,,,,,,,,,,,,,,,,,,,,,,,,,,,,,,,,,,,,,,,,,,,,,,,,,,,,,,,,,,,,,,,,,,,,,,,,,,,,,,,,,,,,,,,,,,,,,,,,,,,,,,,,,,,,,,
,,,,,,614d061aa0abbd89a703844f,62c539739b00c337733a3177,2022-07-06_02h28.14.631,Colour_Asymmetry_Pilot,2022.1.3,MacIntel,59.93407252,62c50e9c1127f2cd403a315f,0,31,31,87,1,fourthree,,,,,,,,,,,,,,,,,,,,,,,,,,,,,,,,,,,,,,,,,,,,,,,,,,,,,,,,,,,,,,,,,,,,,,,,,,,,,,,,,,,,,,,,,,,,,,,,,,,,,,,,,,,,,,,,,,,,,,,,,,,,,,,,,,,,,,,,,,,,,,,,,,,,,,,,,,,,,
,,,,,,614d061aa0abbd89a703844f,62c539739b00c337733a3177,2022-07-06_02h28.14.631,Colour_Asymmetry_Pilot,2022.1.3,MacIntel,59.93407252,62c50e9c1127f2cd403a315f,0,32,32,6,1,fourtwo,,,,,,,,,,,,,,,,,,,,,,,,,,,,,,,,,,,,,,,,,,,,,,,,,,,,,,,,,,,,,,,,,,,,,,,,,,,,,,,,,,,,,,,,,,,,,,,,,,,,,,,,,,,,,,,,,,,,,,,,,,,,,,,,,,,,,,,,,,,,,,,,,,,,,,,,,,,,,
,,,,,,614d061aa0abbd89a703844f,62c539739b00c337733a3177,2022-07-06_02h28.14.631,Colour_Asymmetry_Pilot,2022.1.3,MacIntel,59.93407252,62c50e9c1127f2cd403a315f,0,33,33,13,1,threefour,,,,,,,,,,,,,,,,,,,,,,,,,,,,,,,,,,,,,,,,,,,,,,,,,,,,,,,,,,,,,,,,,,,,,,,,,,,,,,,,,,,,,,,,,,,,,,,,,,,,,,,,,,,,,,,,,,,,,,,,,,,,,,,,,,,,,,,,,,,,,,,,,,,,,,,,,,,,,
,,,,,,614d061aa0abbd89a703844f,62c539739b00c337733a3177,2022-07-06_02h28.14.631,Colour_Asymmetry_Pilot,2022.1.3,MacIntel,59.93407252,62c50e9c1127f2cd403a315f,0,34,34,76,1,threeone,,,,,,,,,,,,,,,,,,,,,,,,,,,,,,,,,,,,,,,,,,,,,,,,,,,,,,,,,,,,,,,,,,,,,,,,,,,,,,,,,,,,,,,,,,,,,,,,,,,,,,,,,,,,,,,,,,,,,,,,,,,,,,,,,,,,,,,,,,,,,,,,,,,,,,,,,,,,,
,,,,,,614d061aa0abbd89a703844f,62c539739b00c337733a3177,2022-07-06_02h28.14.631,Colour_Asymmetry_Pilot,2022.1.3,MacIntel,59.93407252,62c50e9c1127f2cd403a315f,0,35,35,155,1,twofour,,,,,,,,,,,,,,,,,,,,,,,,,,,,,,,,,,,,,,,,,,,,,,,,,,,,,,,,,,,,,,,,,,,,,,,,,,,,,,,,,,,,,,,,,,,,,,,,,,,,,,,,,,,,,,,,,,,,,,,,,,,,,,,,,,,,,,,,,,,,,,,,,,,,,,,,,,,,,
,,,,,,614d061aa0abbd89a703844f,62c539739b00c337733a3177,2022-07-06_02h28.14.631,Colour_Asymmetry_Pilot,2022.1.3,MacIntel,59.93407252,62c50e9c1127f2cd403a315f,0,36,36,75,1,twofour,,,,,,,,,,,,,,,,,,,,,,,,,,,,,,,,,,,,,,,,,,,,,,,,,,,,,,,,,,,,,,,,,,,,,,,,,,,,,,,,,,,,,,,,,,,,,,,,,,,,,,,,,,,,,,,,,,,,,,,,,,,,,,,,,,,,,,,,,,,,,,,,,,,,,,,,,,,,,
,,,,,,614d061aa0abbd89a703844f,62c539739b00c337733a3177,2022-07-06_02h28.14.631,Colour_Asymmetry_Pilot,2022.1.3,MacIntel,59.93407252,62c50e9c1127f2cd403a315f,0,37,37,139,1,twofour,,,,,,,,,,,,,,,,,,,,,,,,,,,,,,,,,,,,,,,,,,,,,,,,,,,,,,,,,,,,,,,,,,,,,,,,,,,,,,,,,,,,,,,,,,,,,,,,,,,,,,,,,,,,,,,,,,,,,,,,,,,,,,,,,,,,,,,,,,,,,,,,,,,,,,,,,,,,,
,,,,,,614d061aa0abbd89a703844f,62c539739b00c337733a3177,2022-07-06_02h28.14.631,Colour_Asymmetry_Pilot,2022.1.3,MacIntel,59.93407252,62c50e9c1127f2cd403a315f,0,38,38,93,1,threefour,,,,,,,,,,,,,,,,,,,,,,,,,,,,,,,,,,,,,,,,,,,,,,,,,,,,,,,,,,,,,,,,,,,,,,,,,,,,,,,,,,,,,,,,,,,,,,,,,,,,,,,,,,,,,,,,,,,,,,,,,,,,,,,,,,,,,,,,,,,,,,,,,,,,,,,,,,,,,
,,,,,,614d061aa0abbd89a703844f,62c539739b00c337733a3177,2022-07-06_02h28.14.631,Colour_Asymmetry_Pilot,2022.1.3,MacIntel,59.93407252,62c50e9c1127f2cd403a315f,0,39,39,151,1,fourthree,,,,,,,,,,,,,,,,,,,,,,,,,,,,,,,,,,,,,,,,,,,,,,,,,,,,,,,,,,,,,,,,,,,,,,,,,,,,,,,,,,,,,,,,,,,,,,,,,,,,,,,,,,,,,,,,,,,,,,,,,,,,,,,,,,,,,,,,,,,,,,,,,,,,,,,,,,,,,
,,,,,,614d061aa0abbd89a703844f,62c539739b00c337733a3177,2022-07-06_02h28.14.631,Colour_Asymmetry_Pilot,2022.1.3,MacIntel,59.93407252,62c50e9c1127f2cd403a315f,0,40,40,132,1,threeone,,,,,,,,,,,,,,,,,,,,,,,,,,,,,,,,,,,,,,,,,,,,,,,,,,,,,,,,,,,,,,,,,,,,,,,,,,,,,,,,,,,,,,,,,,,,,,,,,,,,,,,,,,,,,,,,,,,,,,,,,,,,,,,,,,,,,,,,,,,,,,,,,,,,,,,,,,,,,
,,,,,,614d061aa0abbd89a703844f,62c539739b00c337733a3177,2022-07-06_02h28.14.631,Colour_Asymmetry_Pilot,2022.1.3,MacIntel,59.93407252,62c50e9c1127f2cd403a315f,0,41,41,0,1,onetwo,,,,,,,,,,,,,,,,,,,,,,,,,,,,,,,,,,,,,,,,,,,,,,,,,,,,,,,,,,,,,,,,,,,,,,,,,,,,,,,,,,,,,,,,,,,,,,,,,,,,,,,,,,,,,,,,,,,,,,,,,,,,,,,,,,,,,,,,,,,,,,,,,,,,,,,,,,,,,
,,,,,,614d061aa0abbd89a703844f,62c539739b00c337733a3177,2022-07-06_02h28.14.631,Colour_Asymmetry_Pilot,2022.1.3,MacIntel,59.93407252,62c50e9c1127f2cd403a315f,0,42,42,20,1,threeone,,,,,,,,,,,,,,,,,,,,,,,,,,,,,,,,,,,,,,,,,,,,,,,,,,,,,,,,,,,,,,,,,,,,,,,,,,,,,,,,,,,,,,,,,,,,,,,,,,,,,,,,,,,,,,,,,,,,,,,,,,,,,,,,,,,,,,,,,,,,,,,,,,,,,,,,,,,,,
,,,,,,614d061aa0abbd89a703844f,62c539739b00c337733a3177,2022-07-06_02h28.14.631,Colour_Asymmetry_Pilot,2022.1.3,MacIntel,59.93407252,62c50e9c1127f2cd403a315f,0,43,43,61,1,threefour,,,,,,,,,,,,,,,,,,,,,,,,,,,,,,,,,,,,,,,,,,,,,,,,,,,,,,,,,,,,,,,,,,,,,,,,,,,,,,,,,,,,,,,,,,,,,,,,,,,,,,,,,,,,,,,,,,,,,,,,,,,,,,,,,,,,,,,,,,,,,,,,,,,,,,,,,,,,,
,,,,,,614d061aa0abbd89a703844f,62c539739b00c337733a3177,2022-07-06_02h28.14.631,Colour_Asymmetry_Pilot,2022.1.3,MacIntel,59.93407252,62c50e9c1127f2cd403a315f,0,44,44,48,1,onetwo,,,,,,,,,,,,,,,,,,,,,,,,,,,,,,,,,,,,,,,,,,,,,,,,,,,,,,,,,,,,,,,,,,,,,,,,,,,,,,,,,,,,,,,,,,,,,,,,,,,,,,,,,,,,,,,,,,,,,,,,,,,,,,,,,,,,,,,,,,,,,,,,,,,,,,,,,,,,,
,,,,,,614d061aa0abbd89a703844f,62c539739b00c337733a3177,2022-07-06_02h28.14.631,Colour_Asymmetry_Pilot,2022.1.3,MacIntel,59.93407252,62c50e9c1127f2cd403a315f,0,45,45,55,1,fourthree,,,,,,,,,,,,,,,,,,,,,,,,,,,,,,,,,,,,,,,,,,,,,,,,,,,,,,,,,,,,,,,,,,,,,,,,,,,,,,,,,,,,,,,,,,,,,,,,,,,,,,,,,,,,,,,,,,,,,,,,,,,,,,,,,,,,,,,,,,,,,,,,,,,,,,,,,,,,,
,,,,,,614d061aa0abbd89a703844f,62c539739b00c337733a3177,2022-07-06_02h28.14.631,Colour_Asymmetry_Pilot,2022.1.3,MacIntel,59.93407252,62c50e9c1127f2cd403a315f,0,46,46,5,1,threefour,,,,,,,,,,,,,,,,,,,,,,,,,,,,,,,,,,,,,,,,,,,,,,,,,,,,,,,,,,,,,,,,,,,,,,,,,,,,,,,,,,,,,,,,,,,,,,,,,,,,,,,,,,,,,,,,,,,,,,,,,,,,,,,,,,,,,,,,,,,,,,,,,,,,,,,,,,,,,
,,,,,,614d061aa0abbd89a703844f,62c539739b00c337733a3177,2022-07-06_02h28.14.631,Colour_Asymmetry_Pilot,2022.1.3,MacIntel,59.93407252,62c50e9c1127f2cd403a315f,0,47,47,60,1,threeone,,,,,,,,,,,,,,,,,,,,,,,,,,,,,,,,,,,,,,,,,,,,,,,,,,,,,,,,,,,,,,,,,,,,,,,,,,,,,,,,,,,,,,,,,,,,,,,,,,,,,,,,,,,,,,,,,,,,,,,,,,,,,,,,,,,,,,,,,,,,,,,,,,,,,,,,,,,,,
,,,,,,614d061aa0abbd89a703844f,62c539739b00c337733a3177,2022-07-06_02h28.14.631,Colour_Asymmetry_Pilot,2022.1.3,MacIntel,59.93407252,62c50e9c1127f2cd403a315f,0,48,48,68,1,threeone,,,,,,,,,,,,,,,,,,,,,,,,,,,,,,,,,,,,,,,,,,,,,,,,,,,,,,,,,,,,,,,,,,,,,,,,,,,,,,,,,,,,,,,,,,,,,,,,,,,,,,,,,,,,,,,,,,,,,,,,,,,,,,,,,,,,,,,,,,,,,,,,,,,,,,,,,,,,,
,,,,,,614d061aa0abbd89a703844f,62c539739b00c337733a3177,2022-07-06_02h28.14.631,Colour_Asymmetry_Pilot,2022.1.3,MacIntel,59.93407252,62c50e9c1127f2cd403a315f,0,49,49,100,1,threeone,,,,,,,,,,,,,,,,,,,,,,,,,,,,,,,,,,,,,,,,,,,,,,,,,,,,,,,,,,,,,,,,,,,,,,,,,,,,,,,,,,,,,,,,,,,,,,,,,,,,,,,,,,,,,,,,,,,,,,,,,,,,,,,,,,,,,,,,,,,,,,,,,,,,,,,,,,,,,
,,,,,,614d061aa0abbd89a703844f,62c539739b00c337733a3177,2022-07-06_02h28.14.631,Colour_Asymmetry_Pilot,2022.1.3,MacIntel,59.93407252,62c50e9c1127f2cd403a315f,0,50,50,130,1,twoone,,,,,,,,,,,,,,,,,,,,,,,,,,,,,,,,,,,,,,,,,,,,,,,,,,,,,,,,,,,,,,,,,,,,,,,,,,,,,,,,,,,,,,,,,,,,,,,,,,,,,,,,,,,,,,,,,,,,,,,,,,,,,,,,,,,,,,,,,,,,,,,,,,,,,,,,,,,,,
,,,,,,614d061aa0abbd89a703844f,62c539739b00c337733a3177,2022-07-06_02h28.14.631,Colour_Asymmetry_Pilot,2022.1.3,MacIntel,59.93407252,62c50e9c1127f2cd403a315f,0,51,51,45,1,threefour,,,,,,,,,,,,,,,,,,,,,,,,,,,,,,,,,,,,,,,,,,,,,,,,,,,,,,,,,,,,,,,,,,,,,,,,,,,,,,,,,,,,,,,,,,,,,,,,,,,,,,,,,,,,,,,,,,,,,,,,,,,,,,,,,,,,,,,,,,,,,,,,,,,,,,,,,,,,,
,,,,,,614d061aa0abbd89a703844f,62c539739b00c337733a3177,2022-07-06_02h28.14.631,Colour_Asymmetry_Pilot,2022.1.3,MacIntel,59.93407252,62c50e9c1127f2cd403a315f,0,52,52,35,1,twofour,,,,,,,,,,,,,,,,,,,,,,,,,,,,,,,,,,,,,,,,,,,,,,,,,,,,,,,,,,,,,,,,,,,,,,,,,,,,,,,,,,,,,,,,,,,,,,,,,,,,,,,,,,,,,,,,,,,,,,,,,,,,,,,,,,,,,,,,,,,,,,,,,,,,,,,,,,,,,
,,,,,,614d061aa0abbd89a703844f,62c539739b00c337733a3177,2022-07-06_02h28.14.631,Colour_Asymmetry_Pilot,2022.1.3,MacIntel,59.93407252,62c50e9c1127f2cd403a315f,0,53,53,150,1,fourtwo,,,,,,,,,,,,,,,,,,,,,,,,,,,,,,,,,,,,,,,,,,,,,,,,,,,,,,,,,,,,,,,,,,,,,,,,,,,,,,,,,,,,,,,,,,,,,,,,,,,,,,,,,,,,,,,,,,,,,,,,,,,,,,,,,,,,,,,,,,,,,,,,,,,,,,,,,,,,,
,,,,,,614d061aa0abbd89a703844f,62c539739b00c337733a3177,2022-07-06_02h28.14.631,Colour_Asymmetry_Pilot,2022.1.3,MacIntel,59.93407252,62c50e9c1127f2cd403a315f,0,54,54,105,1,onethree,,,,,,,,,,,,,,,,,,,,,,,,,,,,,,,,,,,,,,,,,,,,,,,,,,,,,,,,,,,,,,,,,,,,,,,,,,,,,,,,,,,,,,,,,,,,,,,,,,,,,,,,,,,,,,,,,,,,,,,,,,,,,,,,,,,,,,,,,,,,,,,,,,,,,,,,,,,,,
,,,,,,614d061aa0abbd89a703844f,62c539739b00c337733a3177,2022-07-06_02h28.14.631,Colour_Asymmetry_Pilot,2022.1.3,MacIntel,59.93407252,62c50e9c1127f2cd403a315f,0,55,55,67,1,twofour,,,,,,,,,,,,,,,,,,,,,,,,,,,,,,,,,,,,,,,,,,,,,,,,,,,,,,,,,,,,,,,,,,,,,,,,,,,,,,,,,,,,,,,,,,,,,,,,,,,,,,,,,,,,,,,,,,,,,,,,,,,,,,,,,,,,,,,,,,,,,,,,,,,,,,,,,,,,,
,,,,,,614d061aa0abbd89a703844f,62c539739b00c337733a3177,2022-07-06_02h28.14.631,Colour_Asymmetry_Pilot,2022.1.3,MacIntel,59.93407252,62c50e9c1127f2cd403a315f,0,56,56,161,1,onethree,,,,,,,,,,,,,,,,,,,,,,,,,,,,,,,,,,,,,,,,,,,,,,,,,,,,,,,,,,,,,,,,,,,,,,,,,,,,,,,,,,,,,,,,,,,,,,,,,,,,,,,,,,,,,,,,,,,,,,,,,,,,,,,,,,,,,,,,,,,,,,,,,,,,,,,,,,,,,
,,,,,,614d061aa0abbd89a703844f,62c539739b00c337733a3177,2022-07-06_02h28.14.631,Colour_Asymmetry_Pilot,2022.1.3,MacIntel,59.93407252,62c50e9c1127f2cd403a315f,0,57,57,77,1,threefour,,,,,,,,,,,,,,,,,,,,,,,,,,,,,,,,,,,,,,,,,,,,,,,,,,,,,,,,,,,,,,,,,,,,,,,,,,,,,,,,,,,,,,,,,,,,,,,,,,,,,,,,,,,,,,,,,,,,,,,,,,,,,,,,,,,,,,,,,,,,,,,,,,,,,,,,,,,,,
,,,,,,614d061aa0abbd89a703844f,62c539739b00c337733a3177,2022-07-06_02h28.14.631,Colour_Asymmetry_Pilot,2022.1.3,MacIntel,59.93407252,62c50e9c1127f2cd403a315f,0,58,58,94,1,fourtwo,,,,,,,,,,,,,,,,,,,,,,,,,,,,,,,,,,,,,,,,,,,,,,,,,,,,,,,,,,,,,,,,,,,,,,,,,,,,,,,,,,,,,,,,,,,,,,,,,,,,,,,,,,,,,,,,,,,,,,,,,,,,,,,,,,,,,,,,,,,,,,,,,,,,,,,,,,,,,
,,,,,,614d061aa0abbd89a703844f,62c539739b00c337733a3177,2022-07-06_02h28.14.631,Colour_Asymmetry_Pilot,2022.1.3,MacIntel,59.93407252,62c50e9c1127f2cd403a315f,0,59,59,153,1,onethree,,,,,,,,,,,,,,,,,,,,,,,,,,,,,,,,,,,,,,,,,,,,,,,,,,,,,,,,,,,,,,,,,,,,,,,,,,,,,,,,,,,,,,,,,,,,,,,,,,,,,,,,,,,,,,,,,,,,,,,,,,,,,,,,,,,,,,,,,,,,,,,,,,,,,,,,,,,,,
,,,,,,614d061aa0abbd89a703844f,62c539739b00c337733a3177,2022-07-06_02h28.14.631,Colour_Asymmetry_Pilot,2022.1.3,MacIntel,59.93407252,62c50e9c1127f2cd403a315f,0,60,60,19,1,twofour,,,,,,,,,,,,,,,,,,,,,,,,,,,,,,,,,,,,,,,,,,,,,,,,,,,,,,,,,,,,,,,,,,,,,,,,,,,,,,,,,,,,,,,,,,,,,,,,,,,,,,,,,,,,,,,,,,,,,,,,,,,,,,,,,,,,,,,,,,,,,,,,,,,,,,,,,,,,,
,,,,,,614d061aa0abbd89a703844f,62c539739b00c337733a3177,2022-07-06_02h28.14.631,Colour_Asymmetry_Pilot,2022.1.3,MacIntel,59.93407252,62c50e9c1127f2cd403a315f,0,61,61,69,1,threefour,,,,,,,,,,,,,,,,,,,,,,,,,,,,,,,,,,,,,,,,,,,,,,,,,,,,,,,,,,,,,,,,,,,,,,,,,,,,,,,,,,,,,,,,,,,,,,,,,,,,,,,,,,,,,,,,,,,,,,,,,,,,,,,,,,,,,,,,,,,,,,,,,,,,,,,,,,,,,
,,,,,,614d061aa0abbd89a703844f,62c539739b00c337733a3177,2022-07-06_02h28.14.631,Colour_Asymmetry_Pilot,2022.1.3,MacIntel,59.93407252,62c50e9c1127f2cd403a315f,0,62,62,80,1,onetwo,,,,,,,,,,,,,,,,,,,,,,,,,,,,,,,,,,,,,,,,,,,,,,,,,,,,,,,,,,,,,,,,,,,,,,,,,,,,,,,,,,,,,,,,,,,,,,,,,,,,,,,,,,,,,,,,,,,,,,,,,,,,,,,,,,,,,,,,,,,,,,,,,,,,,,,,,,,,,
,,,,,,614d061aa0abbd89a703844f,62c539739b00c337733a3177,2022-07-06_02h28.14.631,Colour_Asymmetry_Pilot,2022.1.3,MacIntel,59.93407252,62c50e9c1127f2cd403a315f,0,63,63,148,1,threeone,,,,,,,,,,,,,,,,,,,,,,,,,,,,,,,,,,,,,,,,,,,,,,,,,,,,,,,,,,,,,,,,,,,,,,,,,,,,,,,,,,,,,,,,,,,,,,,,,,,,,,,,,,,,,,,,,,,,,,,,,,,,,,,,,,,,,,,,,,,,,,,,,,,,,,,,,,,,,
,,,,,,614d061aa0abbd89a703844f,62c539739b00c337733a3177,2022-07-06_02h28.14.631,Colour_Asymmetry_Pilot,2022.1.3,MacIntel,59.93407252,62c50e9c1127f2cd403a315f,0,64,64,115,1,twofour,,,,,,,,,,,,,,,,,,,,,,,,,,,,,,,,,,,,,,,,,,,,,,,,,,,,,,,,,,,,,,,,,,,,,,,,,,,,,,,,,,,,,,,,,,,,,,,,,,,,,,,,,,,,,,,,,,,,,,,,,,,,,,,,,,,,,,,,,,,,,,,,,,,,,,,,,,,,,
,,,,,,614d061aa0abbd89a703844f,62c539739b00c337733a3177,2022-07-06_02h28.14.631,Colour_Asymmetry_Pilot,2022.1.3,MacIntel,59.93407252,62c50e9c1127f2cd403a315f,0,65,65,152,1,onetwo,,,,,,,,,,,,,,,,,,,,,,,,,,,,,,,,,,,,,,,,,,,,,,,,,,,,,,,,,,,,,,,,,,,,,,,,,,,,,,,,,,,,,,,,,,,,,,,,,,,,,,,,,,,,,,,,,,,,,,,,,,,,,,,,,,,,,,,,,,,,,,,,,,,,,,,,,,,,,
,,,,,,614d061aa0abbd89a703844f,62c539739b00c337733a3177,2022-07-06_02h28.14.631,Colour_Asymmetry_Pilot,2022.1.3,MacIntel,59.93407252,62c50e9c1127f2cd403a315f,0,66,66,101,1,threefour,,,,,,,,,,,,,,,,,,,,,,,,,,,,,,,,,,,,,,,,,,,,,,,,,,,,,,,,,,,,,,,,,,,,,,,,,,,,,,,,,,,,,,,,,,,,,,,,,,,,,,,,,,,,,,,,,,,,,,,,,,,,,,,,,,,,,,,,,,,,,,,,,,,,,,,,,,,,,
,,,,,,614d061aa0abbd89a703844f,62c539739b00c337733a3177,2022-07-06_02h28.14.631,Colour_Asymmetry_Pilot,2022.1.3,MacIntel,59.93407252,62c50e9c1127f2cd403a315f,0,67,67,141,1,threefour,,,,,,,,,,,,,,,,,,,,,,,,,,,,,,,,,,,,,,,,,,,,,,,,,,,,,,,,,,,,,,,,,,,,,,,,,,,,,,,,,,,,,,,,,,,,,,,,,,,,,,,,,,,,,,,,,,,,,,,,,,,,,,,,,,,,,,,,,,,,,,,,,,,,,,,,,,,,,
,,,,,,614d061aa0abbd89a703844f,62c539739b00c337733a3177,2022-07-06_02h28.14.631,Colour_Asymmetry_Pilot,2022.1.3,MacIntel,59.93407252,62c50e9c1127f2cd403a315f,0,68,68,10,1,twoone,,,,,,,,,,,,,,,,,,,,,,,,,,,,,,,,,,,,,,,,,,,,,,,,,,,,,,,,,,,,,,,,,,,,,,,,,,,,,,,,,,,,,,,,,,,,,,,,,,,,,,,,,,,,,,,,,,,,,,,,,,,,,,,,,,,,,,,,,,,,,,,,,,,,,,,,,,,,,
,,,,,,614d061aa0abbd89a703844f,62c539739b00c337733a3177,2022-07-06_02h28.14.631,Colour_Asymmetry_Pilot,2022.1.3,MacIntel,59.93407252,62c50e9c1127f2cd403a315f,0,69,69,122,1,twoone,,,,,,,,,,,,,,,,,,,,,,,,,,,,,,,,,,,,,,,,,,,,,,,,,,,,,,,,,,,,,,,,,,,,,,,,,,,,,,,,,,,,,,,,,,,,,,,,,,,,,,,,,,,,,,,,,,,,,,,,,,,,,,,,,,,,,,,,,,,,,,,,,,,,,,,,,,,,,
,,,,,,614d061aa0abbd89a703844f,62c539739b00c337733a3177,2022-07-06_02h28.14.631,Colour_Asymmetry_Pilot,2022.1.3,MacIntel,59.93407252,62c50e9c1127f2cd403a315f,0,70,70,125,1,threefour,,,,,,,,,,,,,,,,,,,,,,,,,,,,,,,,,,,,,,,,,,,,,,,,,,,,,,,,,,,,,,,,,,,,,,,,,,,,,,,,,,,,,,,,,,,,,,,,,,,,,,,,,,,,,,,,,,,,,,,,,,,,,,,,,,,,,,,,,,,,,,,,,,,,,,,,,,,,,
,,,,,,614d061aa0abbd89a703844f,62c539739b00c337733a3177,2022-07-06_02h28.14.631,Colour_Asymmetry_Pilot,2022.1.3,MacIntel,59.93407252,62c50e9c1127f2cd403a315f,0,71,71,3,1,twofour,,,,,,,,,,,,,,,,,,,,,,,,,,,,,,,,,,,,,,,,,,,,,,,,,,,,,,,,,,,,,,,,,,,,,,,,,,,,,,,,,,,,,,,,,,,,,,,,,,,,,,,,,,,,,,,,,,,,,,,,,,,,,,,,,,,,,,,,,,,,,,,,,,,,,,,,,,,,,
,,,,,,614d061aa0abbd89a703844f,62c539739b00c337733a3177,2022-07-06_02h28.14.631,Colour_Asymmetry_Pilot,2022.1.3,MacIntel,59.93407252,62c50e9c1127f2cd403a315f,0,72,72,107,1,twofour,,,,,,,,,,,,,,,,,,,,,,,,,,,,,,,,,,,,,,,,,,,,,,,,,,,,,,,,,,,,,,,,,,,,,,,,,,,,,,,,,,,,,,,,,,,,,,,,,,,,,,,,,,,,,,,,,,,,,,,,,,,,,,,,,,,,,,,,,,,,,,,,,,,,,,,,,,,,,
,,,,,,614d061aa0abbd89a703844f,62c539739b00c337733a3177,2022-07-06_02h28.14.631,Colour_Asymmetry_Pilot,2022.1.3,MacIntel,59.93407252,62c50e9c1127f2cd403a315f,0,73,73,11,1,twofour,,,,,,,,,,,,,,,,,,,,,,,,,,,,,,,,,,,,,,,,,,,,,,,,,,,,,,,,,,,,,,,,,,,,,,,,,,,,,,,,,,,,,,,,,,,,,,,,,,,,,,,,,,,,,,,,,,,,,,,,,,,,,,,,,,,,,,,,,,,,,,,,,,,,,,,,,,,,,
,,,,,,614d061aa0abbd89a703844f,62c539739b00c337733a3177,2022-07-06_02h28.14.631,Colour_Asymmetry_Pilot,2022.1.3,MacIntel,59.93407252,62c50e9c1127f2cd403a315f,0,74,74,142,1,fourtwo,,,,,,,,,,,,,,,,,,,,,,,,,,,,,,,,,,,,,,,,,,,,,,,,,,,,,,,,,,,,,,,,,,,,,,,,,,,,,,,,,,,,,,,,,,,,,,,,,,,,,,,,,,,,,,,,,,,,,,,,,,,,,,,,,,,,,,,,,,,,,,,,,,,,,,,,,,,,,
,,,,,,614d061aa0abbd89a703844f,62c539739b00c337733a3177,2022-07-06_02h28.14.631,Colour_Asymmetry_Pilot,2022.1.3,MacIntel,59.93407252,62c50e9c1127f2cd403a315f,0,75,75,30,1,fourtwo,,,,,,,,,,,,,,,,,,,,,,,,,,,,,,,,,,,,,,,,,,,,,,,,,,,,,,,,,,,,,,,,,,,,,,,,,,,,,,,,,,,,,,,,,,,,,,,,,,,,,,,,,,,,,,,,,,,,,,,,,,,,,,,,,,,,,,,,,,,,,,,,,,,,,,,,,,,,,
,,,,,,614d061aa0abbd89a703844f,62c539739b00c337733a3177,2022-07-06_02h28.14.631,Colour_Asymmetry_Pilot,2022.1.3,MacIntel,59.93407252,62c50e9c1127f2cd403a315f,0,76,76,144,1,onetwo,,,,,,,,,,,,,,,,,,,,,,,,,,,,,,,,,,,,,,,,,,,,,,,,,,,,,,,,,,,,,,,,,,,,,,,,,,,,,,,,,,,,,,,,,,,,,,,,,,,,,,,,,,,,,,,,,,,,,,,,,,,,,,,,,,,,,,,,,,,,,,,,,,,,,,,,,,,,,
,,,,,,614d061aa0abbd89a703844f,62c539739b00c337733a3177,2022-07-06_02h28.14.631,Colour_Asymmetry_Pilot,2022.1.3,MacIntel,59.93407252,62c50e9c1127f2cd403a315f,0,77,77,128,1,onetwo,,,,,,,,,,,,,,,,,,,,,,,,,,,,,,,,,,,,,,,,,,,,,,,,,,,,,,,,,,,,,,,,,,,,,,,,,,,,,,,,,,,,,,,,,,,,,,,,,,,,,,,,,,,,,,,,,,,,,,,,,,,,,,,,,,,,,,,,,,,,,,,,,,,,,,,,,,,,,
,,,,,,614d061aa0abbd89a703844f,62c539739b00c337733a3177,2022-07-06_02h28.14.631,Colour_Asymmetry_Pilot,2022.1.3,MacIntel,59.93407252,62c50e9c1127f2cd403a315f,0,78,78,78,1,fourtwo,,,,,,,,,,,,,,,,,,,,,,,,,,,,,,,,,,,,,,,,,,,,,,,,,,,,,,,,,,,,,,,,,,,,,,,,,,,,,,,,,,,,,,,,,,,,,,,,,,,,,,,,,,,,,,,,,,,,,,,,,,,,,,,,,,,,,,,,,,,,,,,,,,,,,,,,,,,,,
,,,,,,614d061aa0abbd89a703844f,62c539739b00c337733a3177,2022-07-06_02h28.14.631,Colour_Asymmetry_Pilot,2022.1.3,MacIntel,59.93407252,62c50e9c1127f2cd403a315f,0,79,79,84,1,threeone,,,,,,,,,,,,,,,,,,,,,,,,,,,,,,,,,,,,,,,,,,,,,,,,,,,,,,,,,,,,,,,,,,,,,,,,,,,,,,,,,,,,,,,,,,,,,,,,,,,,,,,,,,,,,,,,,,,,,,,,,,,,,,,,,,,,,,,,,,,,,,,,,,,,,,,,,,,,,
,,,,,,614d061aa0abbd89a703844f,62c539739b00c337733a3177,2022-07-06_02h28.14.631,Colour_Asymmetry_Pilot,2022.1.3,MacIntel,59.93407252,62c50e9c1127f2cd403a315f,0,80,80,14,1,fourtwo,,,,,,,,,,,,,,,,,,,,,,,,,,,,,,,,,,,,,,,,,,,,,,,,,,,,,,,,,,,,,,,,,,,,,,,,,,,,,,,,,,,,,,,,,,,,,,,,,,,,,,,,,,,,,,,,,,,,,,,,,,,,,,,,,,,,,,,,,,,,,,,,,,,,,,,,,,,,,
,,,,,,614d061aa0abbd89a703844f,62c539739b00c337733a3177,2022-07-06_02h28.14.631,Colour_Asymmetry_Pilot,2022.1.3,MacIntel,59.93407252,62c50e9c1127f2cd403a315f,0,81,81,66,1,twoone,,,,,,,,,,,,,,,,,,,,,,,,,,,,,,,,,,,,,,,,,,,,,,,,,,,,,,,,,,,,,,,,,,,,,,,,,,,,,,,,,,,,,,,,,,,,,,,,,,,,,,,,,,,,,,,,,,,,,,,,,,,,,,,,,,,,,,,,,,,,,,,,,,,,,,,,,,,,,
,,,,,,614d061aa0abbd89a703844f,62c539739b00c337733a3177,2022-07-06_02h28.14.631,Colour_Asymmetry_Pilot,2022.1.3,MacIntel,59.93407252,62c50e9c1127f2cd403a315f,0,82,82,42,1,twoone,,,,,,,,,,,,,,,,,,,,,,,,,,,,,,,,,,,,,,,,,,,,,,,,,,,,,,,,,,,,,,,,,,,,,,,,,,,,,,,,,,,,,,,,,,,,,,,,,,,,,,,,,,,,,,,,,,,,,,,,,,,,,,,,,,,,,,,,,,,,,,,,,,,,,,,,,,,,,
,,,,,,614d061aa0abbd89a703844f,62c539739b00c337733a3177,2022-07-06_02h28.14.631,Colour_Asymmetry_Pilot,2022.1.3,MacIntel,59.93407252,62c50e9c1127f2cd403a315f,0,83,83,54,1,fourtwo,,,,,,,,,,,,,,,,,,,,,,,,,,,,,,,,,,,,,,,,,,,,,,,,,,,,,,,,,,,,,,,,,,,,,,,,,,,,,,,,,,,,,,,,,,,,,,,,,,,,,,,,,,,,,,,,,,,,,,,,,,,,,,,,,,,,,,,,,,,,,,,,,,,,,,,,,,,,,
,,,,,,614d061aa0abbd89a703844f,62c539739b00c337733a3177,2022-07-06_02h28.14.631,Colour_Asymmetry_Pilot,2022.1.3,MacIntel,59.93407252,62c50e9c1127f2cd403a315f,0,84,84,88,1,onetwo,,,,,,,,,,,,,,,,,,,,,,,,,,,,,,,,,,,,,,,,,,,,,,,,,,,,,,,,,,,,,,,,,,,,,,,,,,,,,,,,,,,,,,,,,,,,,,,,,,,,,,,,,,,,,,,,,,,,,,,,,,,,,,,,,,,,,,,,,,,,,,,,,,,,,,,,,,,,,
,,,,,,614d061aa0abbd89a703844f,62c539739b00c337733a3177,2022-07-06_02h28.14.631,Colour_Asymmetry_Pilot,2022.1.3,MacIntel,59.93407252,62c50e9c1127f2cd403a315f,0,85,85,90,1,twoone,,,,,,,,,,,,,,,,,,,,,,,,,,,,,,,,,,,,,,,,,,,,,,,,,,,,,,,,,,,,,,,,,,,,,,,,,,,,,,,,,,,,,,,,,,,,,,,,,,,,,,,,,,,,,,,,,,,,,,,,,,,,,,,,,,,,,,,,,,,,,,,,,,,,,,,,,,,,,
,,,,,,614d061aa0abbd89a703844f,62c539739b00c337733a3177,2022-07-06_02h28.14.631,Colour_Asymmetry_Pilot,2022.1.3,MacIntel,59.93407252,62c50e9c1127f2cd403a315f,0,86,86,8,1,onetwo,,,,,,,,,,,,,,,,,,,,,,,,,,,,,,,,,,,,,,,,,,,,,,,,,,,,,,,,,,,,,,,,,,,,,,,,,,,,,,,,,,,,,,,,,,,,,,,,,,,,,,,,,,,,,,,,,,,,,,,,,,,,,,,,,,,,,,,,,,,,,,,,,,,,,,,,,,,,,
,,,,,,614d061aa0abbd89a703844f,62c539739b00c337733a3177,2022-07-06_02h28.14.631,Colour_Asymmetry_Pilot,2022.1.3,MacIntel,59.93407252,62c50e9c1127f2cd403a315f,0,87,87,146,1,twoone,,,,,,,,,,,,,,,,,,,,,,,,,,,,,,,,,,,,,,,,,,,,,,,,,,,,,,,,,,,,,,,,,,,,,,,,,,,,,,,,,,,,,,,,,,,,,,,,,,,,,,,,,,,,,,,,,,,,,,,,,,,,,,,,,,,,,,,,,,,,,,,,,,,,,,,,,,,,,
,,,,,,614d061aa0abbd89a703844f,62c539739b00c337733a3177,2022-07-06_02h28.14.631,Colour_Asymmetry_Pilot,2022.1.3,MacIntel,59.93407252,62c50e9c1127f2cd403a315f,0,88,88,17,1,onethree,,,,,,,,,,,,,,,,,,,,,,,,,,,,,,,,,,,,,,,,,,,,,,,,,,,,,,,,,,,,,,,,,,,,,,,,,,,,,,,,,,,,,,,,,,,,,,,,,,,,,,,,,,,,,,,,,,,,,,,,,,,,,,,,,,,,,,,,,,,,,,,,,,,,,,,,,,,,,
,,,,,,614d061aa0abbd89a703844f,62c539739b00c337733a3177,2022-07-06_02h28.14.631,Colour_Asymmetry_Pilot,2022.1.3,MacIntel,59.93407252,62c50e9c1127f2cd403a315f,0,89,89,140,1,threeone,,,,,,,,,,,,,,,,,,,,,,,,,,,,,,,,,,,,,,,,,,,,,,,,,,,,,,,,,,,,,,,,,,,,,,,,,,,,,,,,,,,,,,,,,,,,,,,,,,,,,,,,,,,,,,,,,,,,,,,,,,,,,,,,,,,,,,,,,,,,,,,,,,,,,,,,,,,,,
,,,,,,614d061aa0abbd89a703844f,62c539739b00c337733a3177,2022-07-06_02h28.14.631,Colour_Asymmetry_Pilot,2022.1.3,MacIntel,59.93407252,62c50e9c1127f2cd403a315f,0,90,90,57,1,onethree,,,,,,,,,,,,,,,,,,,,,,,,,,,,,,,,,,,,,,,,,,,,,,,,,,,,,,,,,,,,,,,,,,,,,,,,,,,,,,,,,,,,,,,,,,,,,,,,,,,,,,,,,,,,,,,,,,,,,,,,,,,,,,,,,,,,,,,,,,,,,,,,,,,,,,,,,,,,,
,,,,,,614d061aa0abbd89a703844f,62c539739b00c337733a3177,2022-07-06_02h28.14.631,Colour_Asymmetry_Pilot,2022.1.3,MacIntel,59.93407252,62c50e9c1127f2cd403a315f,0,91,91,110,1,fourtwo,,,,,,,,,,,,,,,,,,,,,,,,,,,,,,,,,,,,,,,,,,,,,,,,,,,,,,,,,,,,,,,,,,,,,,,,,,,,,,,,,,,,,,,,,,,,,,,,,,,,,,,,,,,,,,,,,,,,,,,,,,,,,,,,,,,,,,,,,,,,,,,,,,,,,,,,,,,,,
,,,,,,614d061aa0abbd89a703844f,62c539739b00c337733a3177,2022-07-06_02h28.14.631,Colour_Asymmetry_Pilot,2022.1.3,MacIntel,59.93407252,62c50e9c1127f2cd403a315f,0,92,92,24,1,onetwo,,,,,,,,,,,,,,,,,,,,,,,,,,,,,,,,,,,,,,,,,,,,,,,,,,,,,,,,,,,,,,,,,,,,,,,,,,,,,,,,,,,,,,,,,,,,,,,,,,,,,,,,,,,,,,,,,,,,,,,,,,,,,,,,,,,,,,,,,,,,,,,,,,,,,,,,,,,,,
,,,,,,614d061aa0abbd89a703844f,62c539739b00c337733a3177,2022-07-06_02h28.14.631,Colour_Asymmetry_Pilot,2022.1.3,MacIntel,59.93407252,62c50e9c1127f2cd403a315f,0,93,93,123,1,twofour,,,,,,,,,,,,,,,,,,,,,,,,,,,,,,,,,,,,,,,,,,,,,,,,,,,,,,,,,,,,,,,,,,,,,,,,,,,,,,,,,,,,,,,,,,,,,,,,,,,,,,,,,,,,,,,,,,,,,,,,,,,,,,,,,,,,,,,,,,,,,,,,,,,,,,,,,,,,,
,,,,,,614d061aa0abbd89a703844f,62c539739b00c337733a3177,2022-07-06_02h28.14.631,Colour_Asymmetry_Pilot,2022.1.3,MacIntel,59.93407252,62c50e9c1127f2cd403a315f,0,94,94,31,1,fourthree,,,,,,,,,,,,,,,,,,,,,,,,,,,,,,,,,,,,,,,,,,,,,,,,,,,,,,,,,,,,,,,,,,,,,,,,,,,,,,,,,,,,,,,,,,,,,,,,,,,,,,,,,,,,,,,,,,,,,,,,,,,,,,,,,,,,,,,,,,,,,,,,,,,,,,,,,,,,,
,,,,,,614d061aa0abbd89a703844f,62c539739b00c337733a3177,2022-07-06_02h28.14.631,Colour_Asymmetry_Pilot,2022.1.3,MacIntel,59.93407252,62c50e9c1127f2cd403a315f,0,95,95,114,1,twoone,,,,,,,,,,,,,,,,,,,,,,,,,,,,,,,,,,,,,,,,,,,,,,,,,,,,,,,,,,,,,,,,,,,,,,,,,,,,,,,,,,,,,,,,,,,,,,,,,,,,,,,,,,,,,,,,,,,,,,,,,,,,,,,,,,,,,,,,,,,,,,,,,,,,,,,,,,,,,
,,,,,,614d061aa0abbd89a703844f,62c539739b00c337733a3177,2022-07-06_02h28.14.631,Colour_Asymmetry_Pilot,2022.1.3,MacIntel,59.93407252,62c50e9c1127f2cd403a315f,0,96,96,119,1,fourthree,,,,,,,,,,,,,,,,,,,,,,,,,,,,,,,,,,,,,,,,,,,,,,,,,,,,,,,,,,,,,,,,,,,,,,,,,,,,,,,,,,,,,,,,,,,,,,,,,,,,,,,,,,,,,,,,,,,,,,,,,,,,,,,,,,,,,,,,,,,,,,,,,,,,,,,,,,,,,
,,,,,,614d061aa0abbd89a703844f,62c539739b00c337733a3177,2022-07-06_02h28.14.631,Colour_Asymmetry_Pilot,2022.1.3,MacIntel,59.93407252,62c50e9c1127f2cd403a315f,0,97,97,70,1,fourtwo,,,,,,,,,,,,,,,,,,,,,,,,,,,,,,,,,,,,,,,,,,,,,,,,,,,,,,,,,,,,,,,,,,,,,,,,,,,,,,,,,,,,,,,,,,,,,,,,,,,,,,,,,,,,,,,,,,,,,,,,,,,,,,,,,,,,,,,,,,,,,,,,,,,,,,,,,,,,,
,,,,,,614d061aa0abbd89a703844f,62c539739b00c337733a3177,2022-07-06_02h28.14.631,Colour_Asymmetry_Pilot,2022.1.3,MacIntel,59.93407252,62c50e9c1127f2cd403a315f,0,98,98,58,1,twoone,,,,,,,,,,,,,,,,,,,,,,,,,,,,,,,,,,,,,,,,,,,,,,,,,,,,,,,,,,,,,,,,,,,,,,,,,,,,,,,,,,,,,,,,,,,,,,,,,,,,,,,,,,,,,,,,,,,,,,,,,,,,,,,,,,,,,,,,,,,,,,,,,,,,,,,,,,,,,
,,,,,,614d061aa0abbd89a703844f,62c539739b00c337733a3177,2022-07-06_02h28.14.631,Colour_Asymmetry_Pilot,2022.1.3,MacIntel,59.93407252,62c50e9c1127f2cd403a315f,0,99,99,156,1,threeone,,,,,,,,,,,,,,,,,,,,,,,,,,,,,,,,,,,,,,,,,,,,,,,,,,,,,,,,,,,,,,,,,,,,,,,,,,,,,,,,,,,,,,,,,,,,,,,,,,,,,,,,,,,,,,,,,,,,,,,,,,,,,,,,,,,,,,,,,,,,,,,,,,,,,,,,,,,,,
,,,,,,614d061aa0abbd89a703844f,62c539739b00c337733a3177,2022-07-06_02h28.14.631,Colour_Asymmetry_Pilot,2022.1.3,MacIntel,59.93407252,62c50e9c1127f2cd403a315f,0,100,100,112,1,onetwo,,,,,,,,,,,,,,,,,,,,,,,,,,,,,,,,,,,,,,,,,,,,,,,,,,,,,,,,,,,,,,,,,,,,,,,,,,,,,,,,,,,,,,,,,,,,,,,,,,,,,,,,,,,,,,,,,,,,,,,,,,,,,,,,,,,,,,,,,,,,,,,,,,,,,,,,,,,,,
,,,,,,614d061aa0abbd89a703844f,62c539739b00c337733a3177,2022-07-06_02h28.14.631,Colour_Asymmetry_Pilot,2022.1.3,MacIntel,59.93407252,62c50e9c1127f2cd403a315f,0,101,101,160,1,onetwo,,,,,,,,,,,,,,,,,,,,,,,,,,,,,,,,,,,,,,,,,,,,,,,,,,,,,,,,,,,,,,,,,,,,,,,,,,,,,,,,,,,,,,,,,,,,,,,,,,,,,,,,,,,,,,,,,,,,,,,,,,,,,,,,,,,,,,,,,,,,,,,,,,,,,,,,,,,,,
,,,,,,614d061aa0abbd89a703844f,62c539739b00c337733a3177,2022-07-06_02h28.14.631,Colour_Asymmetry_Pilot,2022.1.3,MacIntel,59.93407252,62c50e9c1127f2cd403a315f,0,102,102,44,1,threeone,,,,,,,,,,,,,,,,,,,,,,,,,,,,,,,,,,,,,,,,,,,,,,,,,,,,,,,,,,,,,,,,,,,,,,,,,,,,,,,,,,,,,,,,,,,,,,,,,,,,,,,,,,,,,,,,,,,,,,,,,,,,,,,,,,,,,,,,,,,,,,,,,,,,,,,,,,,,,
,,,,,,614d061aa0abbd89a703844f,62c539739b00c337733a3177,2022-07-06_02h28.14.631,Colour_Asymmetry_Pilot,2022.1.3,MacIntel,59.93407252,62c50e9c1127f2cd403a315f,0,103,103,12,1,threeone,,,,,,,,,,,,,,,,,,,,,,,,,,,,,,,,,,,,,,,,,,,,,,,,,,,,,,,,,,,,,,,,,,,,,,,,,,,,,,,,,,,,,,,,,,,,,,,,,,,,,,,,,,,,,,,,,,,,,,,,,,,,,,,,,,,,,,,,,,,,,,,,,,,,,,,,,,,,,
,,,,,,614d061aa0abbd89a703844f,62c539739b00c337733a3177,2022-07-06_02h28.14.631,Colour_Asymmetry_Pilot,2022.1.3,MacIntel,59.93407252,62c50e9c1127f2cd403a315f,0,104,104,49,1,onethree,,,,,,,,,,,,,,,,,,,,,,,,,,,,,,,,,,,,,,,,,,,,,,,,,,,,,,,,,,,,,,,,,,,,,,,,,,,,,,,,,,,,,,,,,,,,,,,,,,,,,,,,,,,,,,,,,,,,,,,,,,,,,,,,,,,,,,,,,,,,,,,,,,,,,,,,,,,,,
,,,,,,614d061aa0abbd89a703844f,62c539739b00c337733a3177,2022-07-06_02h28.14.631,Colour_Asymmetry_Pilot,2022.1.3,MacIntel,59.93407252,62c50e9c1127f2cd403a315f,0,105,105,34,1,twoone,,,,,,,,,,,,,,,,,,,,,,,,,,,,,,,,,,,,,,,,,,,,,,,,,,,,,,,,,,,,,,,,,,,,,,,,,,,,,,,,,,,,,,,,,,,,,,,,,,,,,,,,,,,,,,,,,,,,,,,,,,,,,,,,,,,,,,,,,,,,,,,,,,,,,,,,,,,,,
,,,,,,614d061aa0abbd89a703844f,62c539739b00c337733a3177,2022-07-06_02h28.14.631,Colour_Asymmetry_Pilot,2022.1.3,MacIntel,59.93407252,62c50e9c1127f2cd403a315f,0,106,106,149,1,threefour,,,,,,,,,,,,,,,,,,,,,,,,,,,,,,,,,,,,,,,,,,,,,,,,,,,,,,,,,,,,,,,,,,,,,,,,,,,,,,,,,,,,,,,,,,,,,,,,,,,,,,,,,,,,,,,,,,,,,,,,,,,,,,,,,,,,,,,,,,,,,,,,,,,,,,,,,,,,,
,,,,,,614d061aa0abbd89a703844f,62c539739b00c337733a3177,2022-07-06_02h28.14.631,Colour_Asymmetry_Pilot,2022.1.3,MacIntel,59.93407252,62c50e9c1127f2cd403a315f,0,107,107,9,1,onethree,,,,,,,,,,,,,,,,,,,,,,,,,,,,,,,,,,,,,,,,,,,,,,,,,,,,,,,,,,,,,,,,,,,,,,,,,,,,,,,,,,,,,,,,,,,,,,,,,,,,,,,,,,,,,,,,,,,,,,,,,,,,,,,,,,,,,,,,,,,,,,,,,,,,,,,,,,,,,
,,,,,,614d061aa0abbd89a703844f,62c539739b00c337733a3177,2022-07-06_02h28.14.631,Colour_Asymmetry_Pilot,2022.1.3,MacIntel,59.93407252,62c50e9c1127f2cd403a315f,0,108,108,116,1,threeone,,,,,,,,,,,,,,,,,,,,,,,,,,,,,,,,,,,,,,,,,,,,,,,,,,,,,,,,,,,,,,,,,,,,,,,,,,,,,,,,,,,,,,,,,,,,,,,,,,,,,,,,,,,,,,,,,,,,,,,,,,,,,,,,,,,,,,,,,,,,,,,,,,,,,,,,,,,,,
,,,,,,614d061aa0abbd89a703844f,62c539739b00c337733a3177,2022-07-06_02h28.14.631,Colour_Asymmetry_Pilot,2022.1.3,MacIntel,59.93407252,62c50e9c1127f2cd403a315f,0,109,109,15,1,fourthree,,,,,,,,,,,,,,,,,,,,,,,,,,,,,,,,,,,,,,,,,,,,,,,,,,,,,,,,,,,,,,,,,,,,,,,,,,,,,,,,,,,,,,,,,,,,,,,,,,,,,,,,,,,,,,,,,,,,,,,,,,,,,,,,,,,,,,,,,,,,,,,,,,,,,,,,,,,,,
,,,,,,614d061aa0abbd89a703844f,62c539739b00c337733a3177,2022-07-06_02h28.14.631,Colour_Asymmetry_Pilot,2022.1.3,MacIntel,59.93407252,62c50e9c1127f2cd403a315f,0,110,110,133,1,threefour,,,,,,,,,,,,,,,,,,,,,,,,,,,,,,,,,,,,,,,,,,,,,,,,,,,,,,,,,,,,,,,,,,,,,,,,,,,,,,,,,,,,,,,,,,,,,,,,,,,,,,,,,,,,,,,,,,,,,,,,,,,,,,,,,,,,,,,,,,,,,,,,,,,,,,,,,,,,,
,,,,,,614d061aa0abbd89a703844f,62c539739b00c337733a3177,2022-07-06_02h28.14.631,Colour_Asymmetry_Pilot,2022.1.3,MacIntel,59.93407252,62c50e9c1127f2cd403a315f,0,111,111,18,1,twoone,,,,,,,,,,,,,,,,,,,,,,,,,,,,,,,,,,,,,,,,,,,,,,,,,,,,,,,,,,,,,,,,,,,,,,,,,,,,,,,,,,,,,,,,,,,,,,,,,,,,,,,,,,,,,,,,,,,,,,,,,,,,,,,,,,,,,,,,,,,,,,,,,,,,,,,,,,,,,
,,,,,,614d061aa0abbd89a703844f,62c539739b00c337733a3177,2022-07-06_02h28.14.631,Colour_Asymmetry_Pilot,2022.1.3,MacIntel,59.93407252,62c50e9c1127f2cd403a315f,0,112,112,16,1,onetwo,,,,,,,,,,,,,,,,,,,,,,,,,,,,,,,,,,,,,,,,,,,,,,,,,,,,,,,,,,,,,,,,,,,,,,,,,,,,,,,,,,,,,,,,,,,,,,,,,,,,,,,,,,,,,,,,,,,,,,,,,,,,,,,,,,,,,,,,,,,,,,,,,,,,,,,,,,,,,
,,,,,,614d061aa0abbd89a703844f,62c539739b00c337733a3177,2022-07-06_02h28.14.631,Colour_Asymmetry_Pilot,2022.1.3,MacIntel,59.93407252,62c50e9c1127f2cd403a315f,0,113,113,127,1,fourthree,,,,,,,,,,,,,,,,,,,,,,,,,,,,,,,,,,,,,,,,,,,,,,,,,,,,,,,,,,,,,,,,,,,,,,,,,,,,,,,,,,,,,,,,,,,,,,,,,,,,,,,,,,,,,,,,,,,,,,,,,,,,,,,,,,,,,,,,,,,,,,,,,,,,,,,,,,,,,
,,,,,,614d061aa0abbd89a703844f,62c539739b00c337733a3177,2022-07-06_02h28.14.631,Colour_Asymmetry_Pilot,2022.1.3,MacIntel,59.93407252,62c50e9c1127f2cd403a315f,0,114,114,73,1,onethree,,,,,,,,,,,,,,,,,,,,,,,,,,,,,,,,,,,,,,,,,,,,,,,,,,,,,,,,,,,,,,,,,,,,,,,,,,,,,,,,,,,,,,,,,,,,,,,,,,,,,,,,,,,,,,,,,,,,,,,,,,,,,,,,,,,,,,,,,,,,,,,,,,,,,,,,,,,,,
,,,,,,614d061aa0abbd89a703844f,62c539739b00c337733a3177,2022-07-06_02h28.14.631,Colour_Asymmetry_Pilot,2022.1.3,MacIntel,59.93407252,62c50e9c1127f2cd403a315f,0,115,115,154,1,twoone,,,,,,,,,,,,,,,,,,,,,,,,,,,,,,,,,,,,,,,,,,,,,,,,,,,,,,,,,,,,,,,,,,,,,,,,,,,,,,,,,,,,,,,,,,,,,,,,,,,,,,,,,,,,,,,,,,,,,,,,,,,,,,,,,,,,,,,,,,,,,,,,,,,,,,,,,,,,,
,,,,,,614d061aa0abbd89a703844f,62c539739b00c337733a3177,2022-07-06_02h28.14.631,Colour_Asymmetry_Pilot,2022.1.3,MacIntel,59.93407252,62c50e9c1127f2cd403a315f,0,116,116,33,1,onethree,,,,,,,,,,,,,,,,,,,,,,,,,,,,,,,,,,,,,,,,,,,,,,,,,,,,,,,,,,,,,,,,,,,,,,,,,,,,,,,,,,,,,,,,,,,,,,,,,,,,,,,,,,,,,,,,,,,,,,,,,,,,,,,,,,,,,,,,,,,,,,,,,,,,,,,,,,,,,
,,,,,,614d061aa0abbd89a703844f,62c539739b00c337733a3177,2022-07-06_02h28.14.631,Colour_Asymmetry_Pilot,2022.1.3,MacIntel,59.93407252,62c50e9c1127f2cd403a315f,0,117,117,124,1,threeone,,,,,,,,,,,,,,,,,,,,,,,,,,,,,,,,,,,,,,,,,,,,,,,,,,,,,,,,,,,,,,,,,,,,,,,,,,,,,,,,,,,,,,,,,,,,,,,,,,,,,,,,,,,,,,,,,,,,,,,,,,,,,,,,,,,,,,,,,,,,,,,,,,,,,,,,,,,,,
,,,,,,614d061aa0abbd89a703844f,62c539739b00c337733a3177,2022-07-06_02h28.14.631,Colour_Asymmetry_Pilot,2022.1.3,MacIntel,59.93407252,62c50e9c1127f2cd403a315f,0,118,118,98,1,twoone,,,,,,,,,,,,,,,,,,,,,,,,,,,,,,,,,,,,,,,,,,,,,,,,,,,,,,,,,,,,,,,,,,,,,,,,,,,,,,,,,,,,,,,,,,,,,,,,,,,,,,,,,,,,,,,,,,,,,,,,,,,,,,,,,,,,,,,,,,,,,,,,,,,,,,,,,,,,,
,,,,,,614d061aa0abbd89a703844f,62c539739b00c337733a3177,2022-07-06_02h28.14.631,Colour_Asymmetry_Pilot,2022.1.3,MacIntel,59.93407252,62c50e9c1127f2cd403a315f,0,119,119,117,1,threefour,,,,,,,,,,,,,,,,,,,,,,,,,,,,,,,,,,,,,,,,,,,,,,,,,,,,,,,,,,,,,,,,,,,,,,,,,,,,,,,,,,,,,,,,,,,,,,,,,,,,,,,,,,,,,,,,,,,,,,,,,,,,,,,,,,,,,,,,,,,,,,,,,,,,,,,,,,,,,
,,,,,,614d061aa0abbd89a703844f,62c539739b00c337733a3177,2022-07-06_02h28.14.631,Colour_Asymmetry_Pilot,2022.1.3,MacIntel,59.93407252,62c50e9c1127f2cd403a315f,0,120,120,108,1,threeone,,,,,,,,,,,,,,,,,,,,,,,,,,,,,,,,,,,,,,,,,,,,,,,,,,,,,,,,,,,,,,,,,,,,,,,,,,,,,,,,,,,,,,,,,,,,,,,,,,,,,,,,,,,,,,,,,,,,,,,,,,,,,,,,,,,,,,,,,,,,,,,,,,,,,,,,,,,,,
,,,,,,614d061aa0abbd89a703844f,62c539739b00c337733a3177,2022-07-06_02h28.14.631,Colour_Asymmetry_Pilot,2022.1.3,MacIntel,59.93407252,62c50e9c1127f2cd403a315f,0,121,121,91,1,twofour,,,,,,,,,,,,,,,,,,,,,,,,,,,,,,,,,,,,,,,,,,,,,,,,,,,,,,,,,,,,,,,,,,,,,,,,,,,,,,,,,,,,,,,,,,,,,,,,,,,,,,,,,,,,,,,,,,,,,,,,,,,,,,,,,,,,,,,,,,,,,,,,,,,,,,,,,,,,,
,,,,,,614d061aa0abbd89a703844f,62c539739b00c337733a3177,2022-07-06_02h28.14.631,Colour_Asymmetry_Pilot,2022.1.3,MacIntel,59.93407252,62c50e9c1127f2cd403a315f,0,122,122,102,1,fourtwo,,,,,,,,,,,,,,,,,,,,,,,,,,,,,,,,,,,,,,,,,,,,,,,,,,,,,,,,,,,,,,,,,,,,,,,,,,,,,,,,,,,,,,,,,,,,,,,,,,,,,,,,,,,,,,,,,,,,,,,,,,,,,,,,,,,,,,,,,,,,,,,,,,,,,,,,,,,,,
,,,,,,614d061aa0abbd89a703844f,62c539739b00c337733a3177,2022-07-06_02h28.14.631,Colour_Asymmetry_Pilot,2022.1.3,MacIntel,59.93407252,62c50e9c1127f2cd403a315f,0,123,123,21,1,threefour,,,,,,,,,,,,,,,,,,,,,,,,,,,,,,,,,,,,,,,,,,,,,,,,,,,,,,,,,,,,,,,,,,,,,,,,,,,,,,,,,,,,,,,,,,,,,,,,,,,,,,,,,,,,,,,,,,,,,,,,,,,,,,,,,,,,,,,,,,,,,,,,,,,,,,,,,,,,,
,,,,,,614d061aa0abbd89a703844f,62c539739b00c337733a3177,2022-07-06_02h28.14.631,Colour_Asymmetry_Pilot,2022.1.3,MacIntel,59.93407252,62c50e9c1127f2cd403a315f,0,124,124,118,1,fourtwo,,,,,,,,,,,,,,,,,,,,,,,,,,,,,,,,,,,,,,,,,,,,,,,,,,,,,,,,,,,,,,,,,,,,,,,,,,,,,,,,,,,,,,,,,,,,,,,,,,,,,,,,,,,,,,,,,,,,,,,,,,,,,,,,,,,,,,,,,,,,,,,,,,,,,,,,,,,,,
,,,,,,614d061aa0abbd89a703844f,62c539739b00c337733a3177,2022-07-06_02h28.14.631,Colour_Asymmetry_Pilot,2022.1.3,MacIntel,59.93407252,62c50e9c1127f2cd403a315f,0,125,125,85,1,threefour,,,,,,,,,,,,,,,,,,,,,,,,,,,,,,,,,,,,,,,,,,,,,,,,,,,,,,,,,,,,,,,,,,,,,,,,,,,,,,,,,,,,,,,,,,,,,,,,,,,,,,,,,,,,,,,,,,,,,,,,,,,,,,,,,,,,,,,,,,,,,,,,,,,,,,,,,,,,,
,,,,,,614d061aa0abbd89a703844f,62c539739b00c337733a3177,2022-07-06_02h28.14.631,Colour_Asymmetry_Pilot,2022.1.3,MacIntel,59.93407252,62c50e9c1127f2cd403a315f,0,126,126,41,1,onethree,,,,,,,,,,,,,,,,,,,,,,,,,,,,,,,,,,,,,,,,,,,,,,,,,,,,,,,,,,,,,,,,,,,,,,,,,,,,,,,,,,,,,,,,,,,,,,,,,,,,,,,,,,,,,,,,,,,,,,,,,,,,,,,,,,,,,,,,,,,,,,,,,,,,,,,,,,,,,
,,,,,,614d061aa0abbd89a703844f,62c539739b00c337733a3177,2022-07-06_02h28.14.631,Colour_Asymmetry_Pilot,2022.1.3,MacIntel,59.93407252,62c50e9c1127f2cd403a315f,0,127,127,39,1,fourthree,,,,,,,,,,,,,,,,,,,,,,,,,,,,,,,,,,,,,,,,,,,,,,,,,,,,,,,,,,,,,,,,,,,,,,,,,,,,,,,,,,,,,,,,,,,,,,,,,,,,,,,,,,,,,,,,,,,,,,,,,,,,,,,,,,,,,,,,,,,,,,,,,,,,,,,,,,,,,
,,,,,,614d061aa0abbd89a703844f,62c539739b00c337733a3177,2022-07-06_02h28.14.631,Colour_Asymmetry_Pilot,2022.1.3,MacIntel,59.93407252,62c50e9c1127f2cd403a315f,0,128,128,81,1,onethree,,,,,,,,,,,,,,,,,,,,,,,,,,,,,,,,,,,,,,,,,,,,,,,,,,,,,,,,,,,,,,,,,,,,,,,,,,,,,,,,,,,,,,,,,,,,,,,,,,,,,,,,,,,,,,,,,,,,,,,,,,,,,,,,,,,,,,,,,,,,,,,,,,,,,,,,,,,,,
,,,,,,614d061aa0abbd89a703844f,62c539739b00c337733a3177,2022-07-06_02h28.14.631,Colour_Asymmetry_Pilot,2022.1.3,MacIntel,59.93407252,62c50e9c1127f2cd403a315f,0,129,129,79,1,fourthree,,,,,,,,,,,,,,,,,,,,,,,,,,,,,,,,,,,,,,,,,,,,,,,,,,,,,,,,,,,,,,,,,,,,,,,,,,,,,,,,,,,,,,,,,,,,,,,,,,,,,,,,,,,,,,,,,,,,,,,,,,,,,,,,,,,,,,,,,,,,,,,,,,,,,,,,,,,,,
,,,,,,614d061aa0abbd89a703844f,62c539739b00c337733a3177,2022-07-06_02h28.14.631,Colour_Asymmetry_Pilot,2022.1.3,MacIntel,59.93407252,62c50e9c1127f2cd403a315f,0,130,130,1,1,onethree,,,,,,,,,,,,,,,,,,,,,,,,,,,,,,,,,,,,,,,,,,,,,,,,,,,,,,,,,,,,,,,,,,,,,,,,,,,,,,,,,,,,,,,,,,,,,,,,,,,,,,,,,,,,,,,,,,,,,,,,,,,,,,,,,,,,,,,,,,,,,,,,,,,,,,,,,,,,,
,,,,,,614d061aa0abbd89a703844f,62c539739b00c337733a3177,2022-07-06_02h28.14.631,Colour_Asymmetry_Pilot,2022.1.3,MacIntel,59.93407252,62c50e9c1127f2cd403a315f,0,131,131,96,1,onetwo,,,,,,,,,,,,,,,,,,,,,,,,,,,,,,,,,,,,,,,,,,,,,,,,,,,,,,,,,,,,,,,,,,,,,,,,,,,,,,,,,,,,,,,,,,,,,,,,,,,,,,,,,,,,,,,,,,,,,,,,,,,,,,,,,,,,,,,,,,,,,,,,,,,,,,,,,,,,,
,,,,,,614d061aa0abbd89a703844f,62c539739b00c337733a3177,2022-07-06_02h28.14.631,Colour_Asymmetry_Pilot,2022.1.3,MacIntel,59.93407252,62c50e9c1127f2cd403a315f,0,132,132,59,1,twofour,,,,,,,,,,,,,,,,,,,,,,,,,,,,,,,,,,,,,,,,,,,,,,,,,,,,,,,,,,,,,,,,,,,,,,,,,,,,,,,,,,,,,,,,,,,,,,,,,,,,,,,,,,,,,,,,,,,,,,,,,,,,,,,,,,,,,,,,,,,,,,,,,,,,,,,,,,,,,
,,,,,,614d061aa0abbd89a703844f,62c539739b00c337733a3177,2022-07-06_02h28.14.631,Colour_Asymmetry_Pilot,2022.1.3,MacIntel,59.93407252,62c50e9c1127f2cd403a315f,0,133,133,28,1,threeone,,,,,,,,,,,,,,,,,,,,,,,,,,,,,,,,,,,,,,,,,,,,,,,,,,,,,,,,,,,,,,,,,,,,,,,,,,,,,,,,,,,,,,,,,,,,,,,,,,,,,,,,,,,,,,,,,,,,,,,,,,,,,,,,,,,,,,,,,,,,,,,,,,,,,,,,,,,,,
,,,,,,614d061aa0abbd89a703844f,62c539739b00c337733a3177,2022-07-06_02h28.14.631,Colour_Asymmetry_Pilot,2022.1.3,MacIntel,59.93407252,62c50e9c1127f2cd403a315f,0,134,134,63,1,fourthree,,,,,,,,,,,,,,,,,,,,,,,,,,,,,,,,,,,,,,,,,,,,,,,,,,,,,,,,,,,,,,,,,,,,,,,,,,,,,,,,,,,,,,,,,,,,,,,,,,,,,,,,,,,,,,,,,,,,,,,,,,,,,,,,,,,,,,,,,,,,,,,,,,,,,,,,,,,,,
,,,,,,614d061aa0abbd89a703844f,62c539739b00c337733a3177,2022-07-06_02h28.14.631,Colour_Asymmetry_Pilot,2022.1.3,MacIntel,59.93407252,62c50e9c1127f2cd403a315f,0,135,135,36,1,threeone,,,,,,,,,,,,,,,,,,,,,,,,,,,,,,,,,,,,,,,,,,,,,,,,,,,,,,,,,,,,,,,,,,,,,,,,,,,,,,,,,,,,,,,,,,,,,,,,,,,,,,,,,,,,,,,,,,,,,,,,,,,,,,,,,,,,,,,,,,,,,,,,,,,,,,,,,,,,,
,,,,,,614d061aa0abbd89a703844f,62c539739b00c337733a3177,2022-07-06_02h28.14.631,Colour_Asymmetry_Pilot,2022.1.3,MacIntel,59.93407252,62c50e9c1127f2cd403a315f,0,136,136,4,1,threeone,,,,,,,,,,,,,,,,,,,,,,,,,,,,,,,,,,,,,,,,,,,,,,,,,,,,,,,,,,,,,,,,,,,,,,,,,,,,,,,,,,,,,,,,,,,,,,,,,,,,,,,,,,,,,,,,,,,,,,,,,,,,,,,,,,,,,,,,,,,,,,,,,,,,,,,,,,,,,
,,,,,,614d061aa0abbd89a703844f,62c539739b00c337733a3177,2022-07-06_02h28.14.631,Colour_Asymmetry_Pilot,2022.1.3,MacIntel,59.93407252,62c50e9c1127f2cd403a315f,0,137,137,22,1,fourtwo,,,,,,,,,,,,,,,,,,,,,,,,,,,,,,,,,,,,,,,,,,,,,,,,,,,,,,,,,,,,,,,,,,,,,,,,,,,,,,,,,,,,,,,,,,,,,,,,,,,,,,,,,,,,,,,,,,,,,,,,,,,,,,,,,,,,,,,,,,,,,,,,,,,,,,,,,,,,,
,,,,,,614d061aa0abbd89a703844f,62c539739b00c337733a3177,2022-07-06_02h28.14.631,Colour_Asymmetry_Pilot,2022.1.3,MacIntel,59.93407252,62c50e9c1127f2cd403a315f,0,138,138,99,1,twofour,,,,,,,,,,,,,,,,,,,,,,,,,,,,,,,,,,,,,,,,,,,,,,,,,,,,,,,,,,,,,,,,,,,,,,,,,,,,,,,,,,,,,,,,,,,,,,,,,,,,,,,,,,,,,,,,,,,,,,,,,,,,,,,,,,,,,,,,,,,,,,,,,,,,,,,,,,,,,
,,,,,,614d061aa0abbd89a703844f,62c539739b00c337733a3177,2022-07-06_02h28.14.631,Colour_Asymmetry_Pilot,2022.1.3,MacIntel,59.93407252,62c50e9c1127f2cd403a315f,0,139,139,50,1,twoone,,,,,,,,,,,,,,,,,,,,,,,,,,,,,,,,,,,,,,,,,,,,,,,,,,,,,,,,,,,,,,,,,,,,,,,,,,,,,,,,,,,,,,,,,,,,,,,,,,,,,,,,,,,,,,,,,,,,,,,,,,,,,,,,,,,,,,,,,,,,,,,,,,,,,,,,,,,,,
,,,,,,614d061aa0abbd89a703844f,62c539739b00c337733a3177,2022-07-06_02h28.14.631,Colour_Asymmetry_Pilot,2022.1.3,MacIntel,59.93407252,62c50e9c1127f2cd403a315f,0,140,140,126,1,fourtwo,,,,,,,,,,,,,,,,,,,,,,,,,,,,,,,,,,,,,,,,,,,,,,,,,,,,,,,,,,,,,,,,,,,,,,,,,,,,,,,,,,,,,,,,,,,,,,,,,,,,,,,,,,,,,,,,,,,,,,,,,,,,,,,,,,,,,,,,,,,,,,,,,,,,,,,,,,,,,
,,,,,,614d061aa0abbd89a703844f,62c539739b00c337733a3177,2022-07-06_02h28.14.631,Colour_Asymmetry_Pilot,2022.1.3,MacIntel,59.93407252,62c50e9c1127f2cd403a315f,0,141,141,137,1,onethree,,,,,,,,,,,,,,,,,,,,,,,,,,,,,,,,,,,,,,,,,,,,,,,,,,,,,,,,,,,,,,,,,,,,,,,,,,,,,,,,,,,,,,,,,,,,,,,,,,,,,,,,,,,,,,,,,,,,,,,,,,,,,,,,,,,,,,,,,,,,,,,,,,,,,,,,,,,,,
,,,,,,614d061aa0abbd89a703844f,62c539739b00c337733a3177,2022-07-06_02h28.14.631,Colour_Asymmetry_Pilot,2022.1.3,MacIntel,59.93407252,62c50e9c1127f2cd403a315f,0,142,142,71,1,fourthree,,,,,,,,,,,,,,,,,,,,,,,,,,,,,,,,,,,,,,,,,,,,,,,,,,,,,,,,,,,,,,,,,,,,,,,,,,,,,,,,,,,,,,,,,,,,,,,,,,,,,,,,,,,,,,,,,,,,,,,,,,,,,,,,,,,,,,,,,,,,,,,,,,,,,,,,,,,,,
,,,,,,614d061aa0abbd89a703844f,62c539739b00c337733a3177,2022-07-06_02h28.14.631,Colour_Asymmetry_Pilot,2022.1.3,MacIntel,59.93407252,62c50e9c1127f2cd403a315f,0,143,143,113,1,onethree,,,,,,,,,,,,,,,,,,,,,,,,,,,,,,,,,,,,,,,,,,,,,,,,,,,,,,,,,,,,,,,,,,,,,,,,,,,,,,,,,,,,,,,,,,,,,,,,,,,,,,,,,,,,,,,,,,,,,,,,,,,,,,,,,,,,,,,,,,,,,,,,,,,,,,,,,,,,,
,,,,,,614d061aa0abbd89a703844f,62c539739b00c337733a3177,2022-07-06_02h28.14.631,Colour_Asymmetry_Pilot,2022.1.3,MacIntel,59.93407252,62c50e9c1127f2cd403a315f,0,144,144,135,1,fourthree,,,,,,,,,,,,,,,,,,,,,,,,,,,,,,,,,,,,,,,,,,,,,,,,,,,,,,,,,,,,,,,,,,,,,,,,,,,,,,,,,,,,,,,,,,,,,,,,,,,,,,,,,,,,,,,,,,,,,,,,,,,,,,,,,,,,,,,,,,,,,,,,,,,,,,,,,,,,,
,,,,,,614d061aa0abbd89a703844f,62c539739b00c337733a3177,2022-07-06_02h28.14.631,Colour_Asymmetry_Pilot,2022.1.3,MacIntel,59.93407252,62c50e9c1127f2cd403a315f,0,145,145,97,1,onethree,,,,,,,,,,,,,,,,,,,,,,,,,,,,,,,,,,,,,,,,,,,,,,,,,,,,,,,,,,,,,,,,,,,,,,,,,,,,,,,,,,,,,,,,,,,,,,,,,,,,,,,,,,,,,,,,,,,,,,,,,,,,,,,,,,,,,,,,,,,,,,,,,,,,,,,,,,,,,
,,,,,,614d061aa0abbd89a703844f,62c539739b00c337733a3177,2022-07-06_02h28.14.631,Colour_Asymmetry_Pilot,2022.1.3,MacIntel,59.93407252,62c50e9c1127f2cd403a315f,0,146,146,83,1,twofour,,,,,,,,,,,,,,,,,,,,,,,,,,,,,,,,,,,,,,,,,,,,,,,,,,,,,,,,,,,,,,,,,,,,,,,,,,,,,,,,,,,,,,,,,,,,,,,,,,,,,,,,,,,,,,,,,,,,,,,,,,,,,,,,,,,,,,,,,,,,,,,,,,,,,,,,,,,,,
,,,,,,614d061aa0abbd89a703844f,62c539739b00c337733a3177,2022-07-06_02h28.14.631,Colour_Asymmetry_Pilot,2022.1.3,MacIntel,59.93407252,62c50e9c1127f2cd403a315f,0,147,147,147,1,twofour,,,,,,,,,,,,,,,,,,,,,,,,,,,,,,,,,,,,,,,,,,,,,,,,,,,,,,,,,,,,,,,,,,,,,,,,,,,,,,,,,,,,,,,,,,,,,,,,,,,,,,,,,,,,,,,,,,,,,,,,,,,,,,,,,,,,,,,,,,,,,,,,,,,,,,,,,,,,,
,,,,,,614d061aa0abbd89a703844f,62c539739b00c337733a3177,2022-07-06_02h28.14.631,Colour_Asymmetry_Pilot,2022.1.3,MacIntel,59.93407252,62c50e9c1127f2cd403a315f,0,148,148,23,1,fourthree,,,,,,,,,,,,,,,,,,,,,,,,,,,,,,,,,,,,,,,,,,,,,,,,,,,,,,,,,,,,,,,,,,,,,,,,,,,,,,,,,,,,,,,,,,,,,,,,,,,,,,,,,,,,,,,,,,,,,,,,,,,,,,,,,,,,,,,,,,,,,,,,,,,,,,,,,,,,,
,,,,,,614d061aa0abbd89a703844f,62c539739b00c337733a3177,2022-07-06_02h28.14.631,Colour_Asymmetry_Pilot,2022.1.3,MacIntel,59.93407252,62c50e9c1127f2cd403a315f,0,149,149,74,1,twoone,,,,,,,,,,,,,,,,,,,,,,,,,,,,,,,,,,,,,,,,,,,,,,,,,,,,,,,,,,,,,,,,,,,,,,,,,,,,,,,,,,,,,,,,,,,,,,,,,,,,,,,,,,,,,,,,,,,,,,,,,,,,,,,,,,,,,,,,,,,,,,,,,,,,,,,,,,,,,
,,,,,,614d061aa0abbd89a703844f,62c539739b00c337733a3177,2022-07-06_02h28.14.631,Colour_Asymmetry_Pilot,2022.1.3,MacIntel,59.93407252,62c50e9c1127f2cd403a315f,0,150,150,103,1,fourthree,,,,,,,,,,,,,,,,,,,,,,,,,,,,,,,,,,,,,,,,,,,,,,,,,,,,,,,,,,,,,,,,,,,,,,,,,,,,,,,,,,,,,,,,,,,,,,,,,,,,,,,,,,,,,,,,,,,,,,,,,,,,,,,,,,,,,,,,,,,,,,,,,,,,,,,,,,,,,
,,,,,,614d061aa0abbd89a703844f,62c539739b00c337733a3177,2022-07-06_02h28.14.631,Colour_Asymmetry_Pilot,2022.1.3,MacIntel,59.93407252,62c50e9c1127f2cd403a315f,0,151,151,38,1,fourtwo,,,,,,,,,,,,,,,,,,,,,,,,,,,,,,,,,,,,,,,,,,,,,,,,,,,,,,,,,,,,,,,,,,,,,,,,,,,,,,,,,,,,,,,,,,,,,,,,,,,,,,,,,,,,,,,,,,,,,,,,,,,,,,,,,,,,,,,,,,,,,,,,,,,,,,,,,,,,,
,,,,,,614d061aa0abbd89a703844f,62c539739b00c337733a3177,2022-07-06_02h28.14.631,Colour_Asymmetry_Pilot,2022.1.3,MacIntel,59.93407252,62c50e9c1127f2cd403a315f,0,152,152,136,1,onetwo,,,,,,,,,,,,,,,,,,,,,,,,,,,,,,,,,,,,,,,,,,,,,,,,,,,,,,,,,,,,,,,,,,,,,,,,,,,,,,,,,,,,,,,,,,,,,,,,,,,,,,,,,,,,,,,,,,,,,,,,,,,,,,,,,,,,,,,,,,,,,,,,,,,,,,,,,,,,,
,,,,,,614d061aa0abbd89a703844f,62c539739b00c337733a3177,2022-07-06_02h28.14.631,Colour_Asymmetry_Pilot,2022.1.3,MacIntel,59.93407252,62c50e9c1127f2cd403a315f,0,153,153,25,1,onethree,,,,,,,,,,,,,,,,,,,,,,,,,,,,,,,,,,,,,,,,,,,,,,,,,,,,,,,,,,,,,,,,,,,,,,,,,,,,,,,,,,,,,,,,,,,,,,,,,,,,,,,,,,,,,,,,,,,,,,,,,,,,,,,,,,,,,,,,,,,,,,,,,,,,,,,,,,,,,
,,,,,,614d061aa0abbd89a703844f,62c539739b00c337733a3177,2022-07-06_02h28.14.631,Colour_Asymmetry_Pilot,2022.1.3,MacIntel,59.93407252,62c50e9c1127f2cd403a315f,0,154,154,111,1,fourthree,,,,,,,,,,,,,,,,,,,,,,,,,,,,,,,,,,,,,,,,,,,,,,,,,,,,,,,,,,,,,,,,,,,,,,,,,,,,,,,,,,,,,,,,,,,,,,,,,,,,,,,,,,,,,,,,,,,,,,,,,,,,,,,,,,,,,,,,,,,,,,,,,,,,,,,,,,,,,
,,,,,,614d061aa0abbd89a703844f,62c539739b00c337733a3177,2022-07-06_02h28.14.631,Colour_Asymmetry_Pilot,2022.1.3,MacIntel,59.93407252,62c50e9c1127f2cd403a315f,0,155,155,82,1,twoone,,,,,,,,,,,,,,,,,,,,,,,,,,,,,,,,,,,,,,,,,,,,,,,,,,,,,,,,,,,,,,,,,,,,,,,,,,,,,,,,,,,,,,,,,,,,,,,,,,,,,,,,,,,,,,,,,,,,,,,,,,,,,,,,,,,,,,,,,,,,,,,,,,,,,,,,,,,,,
,,,,,,614d061aa0abbd89a703844f,62c539739b00c337733a3177,2022-07-06_02h28.14.631,Colour_Asymmetry_Pilot,2022.1.3,MacIntel,59.93407252,62c50e9c1127f2cd403a315f,0,156,156,40,1,onetwo,,,,,,,,,,,,,,,,,,,,,,,,,,,,,,,,,,,,,,,,,,,,,,,,,,,,,,,,,,,,,,,,,,,,,,,,,,,,,,,,,,,,,,,,,,,,,,,,,,,,,,,,,,,,,,,,,,,,,,,,,,,,,,,,,,,,,,,,,,,,,,,,,,,,,,,,,,,,,
,,,,,,614d061aa0abbd89a703844f,62c539739b00c337733a3177,2022-07-06_02h28.14.631,Colour_Asymmetry_Pilot,2022.1.3,MacIntel,59.93407252,62c50e9c1127f2cd403a315f,0,157,157,138,1,twoone,,,,,,,,,,,,,,,,,,,,,,,,,,,,,,,,,,,,,,,,,,,,,,,,,,,,,,,,,,,,,,,,,,,,,,,,,,,,,,,,,,,,,,,,,,,,,,,,,,,,,,,,,,,,,,,,,,,,,,,,,,,,,,,,,,,,,,,,,,,,,,,,,,,,,,,,,,,,,
,,,,,,614d061aa0abbd89a703844f,62c539739b00c337733a3177,2022-07-06_02h28.14.631,Colour_Asymmetry_Pilot,2022.1.3,MacIntel,59.93407252,62c50e9c1127f2cd403a315f,0,158,158,109,1,threefour,,,,,,,,,,,,,,,,,,,,,,,,,,,,,,,,,,,,,,,,,,,,,,,,,,,,,,,,,,,,,,,,,,,,,,,,,,,,,,,,,,,,,,,,,,,,,,,,,,,,,,,,,,,,,,,,,,,,,,,,,,,,,,,,,,,,,,,,,,,,,,,,,,,,,,,,,,,,,
,,,,,,614d061aa0abbd89a703844f,62c539739b00c337733a3177,2022-07-06_02h28.14.631,Colour_Asymmetry_Pilot,2022.1.3,MacIntel,59.93407252,62c50e9c1127f2cd403a315f,0,159,159,158,1,fourtwo,,,,,,,,,,,,,,,,,,,,,,,,,,,,,,,,,,,,,,,,,,,,,,,,,,,,,,,,,,,,,,,,,,,,,,,,,,,,,,,,,,,,,,,,,,,,,,,,,,,,,,,,,,,,,,,,,,,,,,,,,,,,,,,,,,,,,,,,,,,,,,,,,,,,,,,,,,,,,
,,,,,,614d061aa0abbd89a703844f,62c539739b00c337733a3177,2022-07-06_02h28.14.631,Colour_Asymmetry_Pilot,2022.1.3,MacIntel,59.93407252,62c50e9c1127f2cd403a315f,0,160,160,62,1,fourtwo,,,,,,,,,,,,,,,,,,,,,,,,,,,,,,,,,,,,,,,,,,,,,,,,,,,,,,,,,,,,,,,,,,,,,,,,,,,,,,,,,,,,,,,,,,,,,,,,,,,,,,,,,,,,,,,,,,,,,,,,,,,,,,,,,,,,,,,,,,,,,,,,,,,,,,,,,,,,,
,,,,,,614d061aa0abbd89a703844f,62c539739b00c337733a3177,2022-07-06_02h28.14.631,Colour_Asymmetry_Pilot,2022.1.3,MacIntel,59.93407252,62c50e9c1127f2cd403a315f,0,161,161,89,1,onethree,,,,,,,,,,,,,,,,,,,,,,,,,,,,,,,,,,,,,,,,,,,,,,,,,,,,,,,,,,,,,,,,,,,,,,,,,,,,,,,,,,,,,,,,,,,,,,,,,,,,,,,,,,,,,,,,,,,,,,,,,,,,,,,,,,,,,,,,,,,,,,,,,,,,,,,,,,,,,
,,,,,,614d061aa0abbd89a703844f,62c539739b00c337733a3177,2022-07-06_02h28.14.631,Colour_Asymmetry_Pilot,2022.1.3,MacIntel,59.93407252,62c50e9c1127f2cd403a315f,,,,,,,space,10.898,space,18.4659,space,18.2641,space,7.211,space,1.3355,space,4.719,"[-0.9766,-0.34920000000000007,0.2156]",onethree,"[0.9686000000000001,0.3802000000000001,0.19999999999999996]",-4,8.1331,-45.00390625,96.00390625,1,0,0,response7disk_5,4.99609375,-7.99609375,1,0,0,rectangle_8,4.99609375,-7.99609375,1,0,0,3,4.99609375,-7.99609375,1,0,0,0,0,0,0,1,,,,,,,,,,,,,,,,,,,,,,,,,,,,,,,,,,,,,,,,,,,,,,,,,,,,,,,,,,,,,,,,,,,,,,,,,,,,,,,,,,,,,,,,,,,,,,,,,,,,,,,,,,,,,,,,
,,,,,,614d061aa0abbd89a703844f,62c539739b00c337733a3177,2022-07-06_02h28.14.631,Colour_Asymmetry_Pilot,2022.1.3,MacIntel,59.93407252,62c50e9c1127f2cd403a315f,,,,,,,,,,,,,,,,,,,"[0.09799999999999986,-0.24719999999999998,0.15280000000000005]",twofour,"[-0.9216,-0.5529999999999999,-0.3962]",-4,1.5349,-41,90,1,0,0,response7disk_5,-1.00390625,2.00390625,1,0,0,rectangle_8,112.9960938,44.00390625,1,0,0,3,12.00390625,-8,1,0,0,1,0,1,0,1,response1disk_7,6,rectangle_4,,,,,,,,,,,,,,,,,,,,,,,,,,,,,,,,,,,,,,,,,,,,,,,,,,,,,,,,,,,,,,,,,,,,,,,,,,,,,,,,,,,,,,,,,,,,,,,,,,,,,,,,,,,,,
,,,,,,614d061aa0abbd89a703844f,62c539739b00c337733a3177,2022-07-06_02h28.14.631,Colour_Asymmetry_Pilot,2022.1.3,MacIntel,59.93407252,62c50e9c1127f2cd403a315f,,,,,,,,,,,,,,,,,,,"[-0.4668,-0.8746,-0.2942]",fourtwo,"[1,0.12939999999999996,-1]",-4,1.2177,-39,97,1,0,0,response7disk_5,0.99609375,-6.99609375,1,0,0,rectangle_8,0.99609375,-6.99609375,1,0,0,3,0.99609375,-6.99609375,1,0,0,2,0,2,0,1,,,,,,,,,,,,,,,,,,,,,,,,,,,,,,,,,,,,,,,,,,,,,,,,,,,,,,,,,,,,,,,,,,,,,,,,,,,,,,,,,,,,,,,,,,,,,,,,,,,,,,,,,,,,,,,,
,,,,,,614d061aa0abbd89a703844f,62c539739b00c337733a3177,2022-07-06_02h28.14.631,Colour_Asymmetry_Pilot,2022.1.3,MacIntel,59.93407252,62c50e9c1127f2cd403a315f,,,,,,,,,,,,,,,,,,,"[-0.9688,-0.38039999999999996,-0.41979999999999995]",threefour,"[0.7646000000000002,0.07440000000000002,0.2704]",-4,0.9346,-43.99609375,80,1,0,0,response7disk_5,-9.00390625,-0.99609375,1,0,0,rectangle_8,-9.00390625,-0.99609375,1,0,0,3,-9.00390625,-0.99609375,1,0,0,3,0,3,0,1,,,,,,,,,,,,,,,,,,,,,,,,,,,,,,,,,,,,,,,,,,,,,,,,,,,,,,,,,,,,,,,,,,,,,,,,,,,,,,,,,,,,,,,,,,,,,,,,,,,,,,,,,,,,,,,,
,,,,,,614d061aa0abbd89a703844f,62c539739b00c337733a3177,2022-07-06_02h28.14.631,Colour_Asymmetry_Pilot,2022.1.3,MacIntel,59.93407252,62c50e9c1127f2cd403a315f,,,,,,,,,,,,,,,,,,,"[-0.06680000000000008,-0.45100000000000007,-0.906]",threefour,"[0.2862,0.7802,0.3568]",-4,11.7794,-31.00390625,81.00390625,1,0,0,response7disk_5,-2.99609375,8,1,0,0,rectangle_8,-2.99609375,8,1,0,0,3,-2.99609375,8,1,0,0,4,0,4,0,1,,,,,,,,,,,,,,,,,,,,,,,,,,,,,,,,,,,,,,,,,,,,,,,,,,,,,,,,,,,,,,,,,,,,,,,,,,,,,,,,,,,,,,,,,,,,,,,,,,,,,,,,,,,,,,,,
,,,,,,614d061aa0abbd89a703844f,62c539739b00c337733a3177,2022-07-06_02h28.14.631,Colour_Asymmetry_Pilot,2022.1.3,MacIntel,59.93407252,62c50e9c1127f2cd403a315f,,,,,,,,,,,,,,,,,,,"[-0.2942,-0.24719999999999998,-0.357]",twofour,"[-0.6706000000000001,-0.6157999999999999,-0.6786]",4,1.1518,57.99609375,90.00390625,1,0,0,response1disk_5,-7.00390625,-10.99609375,1,0,0,rectangle_8,-7.00390625,-10.99609375,1,0,0,3,-7.00390625,-10.99609375,1,0,0,5,0,5,0,1,,,,,,,,,,,,,,,,,,,,,,,,,,,,,,,,,,,,,,,,,,,,,,,,,,,,,,,,,,,,,,,,,,,,,,,,,,,,,,,,,,,,,,,,,,,,,,,,,,,,,,,,,,,,,,,,
,,,,,,614d061aa0abbd89a703844f,62c539739b00c337733a3177,2022-07-06_02h28.14.631,Colour_Asymmetry_Pilot,2022.1.3,MacIntel,59.93407252,62c50e9c1127f2cd403a315f,,,,,,,,,,,,,,,,,,,"[0.7018,0.7176,0.6155999999999999]",twofour,"[0.9763999999999999,0.30979999999999985,-0.6786]",-4,0.6001,-35,68,1,0,0,response7disk_5,-2.00390625,-0.99609375,1,0,0,rectangle_8,-2.00390625,-0.99609375,1,0,0,3,-2.00390625,-0.99609375,1,0,0,6,0,6,0,1,,,,,,,,,,,,,,,,,,,,,,,,,,,,,,,,,,,,,,,,,,,,,,,,,,,,,,,,,,,,,,,,,,,,,,,,,,,,,,,,,,,,,,,,,,,,,,,,,,,,,,,,,,,,,,,,
,,,,,,614d061aa0abbd89a703844f,62c539739b00c337733a3177,2022-07-06_02h28.14.631,Colour_Asymmetry_Pilot,2022.1.3,MacIntel,59.93407252,62c50e9c1127f2cd403a315f,,,,,,,,,,,,,,,,,,,,threeone,,-4,0.5668,,,,,,,,,,,,,,,,,,,,,,,,,,,,,,,,space,2.651,"[0.19199999999999995,0.18419999999999992,0.5136000000000001]","[0.6547999999999998,-0.043199999999999905,-0.011800000000000033]",-31.00390625,99.00390625,1,0,0,response7disk,-2.00390625,-1.99609375,1,0,0,rectangle,-2.00390625,-1.99609375,1,0,0,,3,0.0017,0,-2.00390625,-1.99609375,1,0,0,0,0,0,119,1,38,second,,,,,,,,,,,,,,,,,,,,,,,,,,,,,,,,,,,,,,,,,,,,,,,,,,,,,,,,,,,,,,,,,,,,,,,,
,,,,,,614d061aa0abbd89a703844f,62c539739b00c337733a3177,2022-07-06_02h28.14.631,Colour_Asymmetry_Pilot,2022.1.3,MacIntel,59.93407252,62c50e9c1127f2cd403a315f,,,,,,,,,,,,,,,,,,,,twofour,,-4,0.4004,,,,,,,,,,,,,,,,,,,,,,,,,,,,,,,,,,"[0.7018,0.7802,-0.16079999999999994]","[-0.48240000000000005,0.3175999999999999,0.2156]",-29.00390625,79.00390625,1,0,0,response7disk,-3.00390625,0.00390625,1,0,0,rectangle,-3.00390625,0.00390625,1,0,0,,2,0.0008,0,-3.00390625,0.00390625,1,0,0,0,1,1,135,1,54,second,,,,,,,,,,,,,,,,,,,,,,,,,,,,,,,,,,,,,,,,,,,,,,,,,,,,,,,,,,,,,,,,,,,,,,,,
,,,,,,614d061aa0abbd89a703844f,62c539739b00c337733a3177,2022-07-06_02h28.14.631,Colour_Asymmetry_Pilot,2022.1.3,MacIntel,59.93407252,62c50e9c1127f2cd403a315f,,,,,,,,,,,,,,,,,,,,fourtwo,,3,2.4036,,,,,,,,,,,,,,,,,,,,,,,,,,,,,,,,,,"[-0.07459999999999989,0.12139999999999995,-0.9922]","[-0.6706000000000001,-0.6157999999999999,-0.6786]",75.9921875,33.00390625,1,0,0,response1disk,7.00390625,3,1,0,0,rectangle,7.00390625,3,1,0,0,,3,0.0008,0,7.00390625,3,1,0,0,0,2,2,56,1,56,first,,,,,,,,,,,,,,,,,,,,,,,,,,,,,,,,,,,,,,,,,,,,,,,,,,,,,,,,,,,,,,,,,,,,,,,,
,,,,,,614d061aa0abbd89a703844f,62c539739b00c337733a3177,2022-07-06_02h28.14.631,Colour_Asymmetry_Pilot,2022.1.3,MacIntel,59.93407252,62c50e9c1127f2cd403a315f,,,,,,,,,,,,,,,,,,,,onetwo,,-4,0.3667,,,,,,,,,,,,,,,,,,,,,,,,,,,,,,,,,,"[-0.9688,-0.7412000000000001,-0.4902000000000001]","[0.3802000000000001,0.19199999999999995,-0.6394]",-50,85,1,0,0,response7disk,-6,8,1,0,0,rectangle,-6,8,1,0,0,,2,0.0009,0,-6,8,1,0,0,0,3,3,67,1,67,first,,,,,,,,,,,,,,,,,,,,,,,,,,,,,,,,,,,,,,,,,,,,,,,,,,,,,,,,,,,,,,,,,,,,,,,,
,,,,,,614d061aa0abbd89a703844f,62c539739b00c337733a3177,2022-07-06_02h28.14.631,Colour_Asymmetry_Pilot,2022.1.3,MacIntel,59.93407252,62c50e9c1127f2cd403a315f,,,,,,,,,,,,,,,,,,,,threefour,,-4,0.4832,,,,,,,,,,,,,,,,,,,,,,,,,,,,,,,,,,"[-0.24719999999999998,0.5213999999999999,-0.12959999999999994]","[-0.6942,-0.7648,-0.12959999999999994]",-32,83,1,0,0,response7disk,-5.00390625,7.00390625,1,0,0,rectangle,-5.00390625,7.00390625,1,0,0,,3,0.0009,0,-5.00390625,7.00390625,1,0,0,0,4,4,143,1,62,second,,,,,,,,,,,,,,,,,,,,,,,,,,,,,,,,,,,,,,,,,,,,,,,,,,,,,,,,,,,,,,,,,,,,,,,,
,,,,,,614d061aa0abbd89a703844f,62c539739b00c337733a3177,2022-07-06_02h28.14.631,Colour_Asymmetry_Pilot,2022.1.3,MacIntel,59.93407252,62c50e9c1127f2cd403a315f,,,,,,,,,,,,,,,,,,,,onetwo,,-4,0.6671,,,,,,,,,,,,,,,,,,,,,,,,,,,,,,,,,,"[-0.26280000000000003,-0.2158,-0.3256]","[0.9686000000000001,0.5763999999999998,0.11359999999999992]",-32.00390625,82.00390625,1,0,0,response7disk,4.99609375,-0.99609375,1,0,0,rectangle,4.99609375,-0.99609375,1,0,0,,1,0.0007,0,4.99609375,-0.99609375,1,0,0,0,5,5,150,1,69,second,,,,,,,,,,,,,,,,,,,,,,,,,,,,,,,,,,,,,,,,,,,,,,,,,,,,,,,,,,,,,,,,,,,,,,,,
,,,,,,614d061aa0abbd89a703844f,62c539739b00c337733a3177,2022-07-06_02h28.14.631,Colour_Asymmetry_Pilot,2022.1.3,MacIntel,59.93407252,62c50e9c1127f2cd403a315f,,,,,,,,,,,,,,,,,,,,onethree,,4,2.9204,,,,,,,,,,,,,,,,,,,,,,,,,,,,,,,,,,"[-0.011800000000000033,-0.906,-0.45100000000000007]","[0.40379999999999994,0.09000000000000008,0.44300000000000006]",45,65,1,0,0,response1disk,7,3,1,0,0,rectangle,7,3,1,0,0,,2,0.0016,0,7,3,1,0,0,0,6,6,103,1,22,second,,,,,,,,,,,,,,,,,,,,,,,,,,,,,,,,,,,,,,,,,,,,,,,,,,,,,,,,,,,,,,,,,,,,,,,,
,,,,,,614d061aa0abbd89a703844f,62c539739b00c337733a3177,2022-07-06_02h28.14.631,Colour_Asymmetry_Pilot,2022.1.3,MacIntel,59.93407252,62c50e9c1127f2cd403a315f,,,,,,,,,,,,,,,,,,,,twoone,,4,1.1173,,,,,,,,,,,,,,,,,,,,,,,,,,,,,,,,,,"[-0.9766,-0.34920000000000007,0.2156]","[-0.26280000000000003,-0.4746,-0.2158]",40.99609375,82.00390625,1,0,0,response1disk,5,0,1,0,0,rectangle,5,0,1,0,0,,2,0.0002,0,5,0,1,0,0,0,7,7,115,1,34,second,,,,,,,,,,,,,,,,,,,,,,,,,,,,,,,,,,,,,,,,,,,,,,,,,,,,,,,,,,,,,,,,,,,,,,,,
,,,,,,614d061aa0abbd89a703844f,62c539739b00c337733a3177,2022-07-06_02h28.14.631,Colour_Asymmetry_Pilot,2022.1.3,MacIntel,59.93407252,62c50e9c1127f2cd403a315f,,,,,,,,,,,,,,,,,,,,onetwo,,4,0.4512,,,,,,,,,,,,,,,,,,,,,,,,,,,,,,,,,,"[0.8274000000000001,-0.5844,-0.9452]","[0.8274000000000001,-0.5844,-0.9452]",45,89,1,0,0,response1disk,0.99609375,-0.99609375,1,0,0,rectangle,0.99609375,-0.99609375,1,0,0,,3,0.0008,0,0.99609375,-0.99609375,1,0,0,0,8,8,46,1,46,first,,,,,,,,,,,,,,,,,,,,,,,,,,,,,,,,,,,,,,,,,,,,,,,,,,,,,,,,,,,,,,,,,,,,,,,,
,,,,,,614d061aa0abbd89a703844f,62c539739b00c337733a3177,2022-07-06_02h28.14.631,Colour_Asymmetry_Pilot,2022.1.3,MacIntel,59.93407252,62c50e9c1127f2cd403a315f,,,,,,,,,,,,,,,,,,,,onetwo,,-4,0.3662,,,,,,,,,,,,,,,,,,,,,,,,,,,,,,,,,,"[-0.34920000000000007,-0.702,-0.5216]","[-0.06680000000000008,-0.45100000000000007,-0.906]",-34.00390625,62.00390625,1,0,0,response7disk,1.99609375,6.00390625,1,0,0,rectangle,1.99609375,6.00390625,1,0,0,,1,0.0009,0,1.99609375,6.00390625,1,0,0,0,9,9,33,1,33,first,,,,,,,,,,,,,,,,,,,,,,,,,,,,,,,,,,,,,,,,,,,,,,,,,,,,,,,,,,,,,,,,,,,,,,,,
,,,,,,614d061aa0abbd89a703844f,62c539739b00c337733a3177,2022-07-06_02h28.14.631,Colour_Asymmetry_Pilot,2022.1.3,MacIntel,59.93407252,62c50e9c1127f2cd403a315f,,,,,,,,,,,,,,,,,,,,onetwo,,-4,0.8511,,,,,,,,,,,,,,,,,,,,,,,,,,,,,,,,,,"[-0.9216,-0.5529999999999999,-0.3962]","[-0.45899999999999996,-0.3256,-0.9374]",-34,72,1,0,0,response7disk,5.99609375,2.00390625,1,0,0,rectangle,5.99609375,2.00390625,1,0,0,,2,0.0008,0,5.99609375,2.00390625,1,0,0,0,10,10,158,1,77,second,,,,,,,,,,,,,,,,,,,,,,,,,,,,,,,,,,,,,,,,,,,,,,,,,,,,,,,,,,,,,,,,,,,,,,,,
,,,,,,614d061aa0abbd89a703844f,62c539739b00c337733a3177,2022-07-06_02h28.14.631,Colour_Asymmetry_Pilot,2022.1.3,MacIntel,59.93407252,62c50e9c1127f2cd403a315f,,,,,,,,,,,,,,,,,,,,twofour,,-4,0.3672,,,,,,,,,,,,,,,,,,,,,,,,,,,,,,,,,,"[-0.5688,-0.08239999999999992,-0.1844]","[0.37240000000000006,0.4980000000000002,-0.2864]",-29.0078125,79.00390625,1,0,0,response7disk,6,1,1,0,0,rectangle,82.99609375,-45.99609375,1,0,0,2,2,4.0384,1,4.92578125,-7.16015625,1,0,0,0,11,11,11,1,11,first,response3disk_3,rectangle,,,,,,,,,,,,,,,,,,,,,,,,,,,,,,,,,,,,,,,,,,,,,,,,,,,,,,,,,,,,,,,,,,,,,,
,,,,,,614d061aa0abbd89a703844f,62c539739b00c337733a3177,2022-07-06_02h28.14.631,Colour_Asymmetry_Pilot,2022.1.3,MacIntel,59.93407252,62c50e9c1127f2cd403a315f,,,,,,,,,,,,,,,,,,,,twofour,,-4,0.3344,,,,,,,,,,,,,,,,,,,,,,,,,,,,,,,,,,"[-0.050999999999999934,-0.6706000000000001,-0.804]","[-0.07459999999999989,0.12139999999999995,-0.9922]",-32.9921875,100,1,0,0,response7disk,-5,3,1,0,0,rectangle,-5,3,1,0,0,2,3,0.001,0,-5,3,1,0,0,0,12,12,31,1,31,first,,,,,,,,,,,,,,,,,,,,,,,,,,,,,,,,,,,,,,,,,,,,,,,,,,,,,,,,,,,,,,,,,,,,,,,,
,,,,,,614d061aa0abbd89a703844f,62c539739b00c337733a3177,2022-07-06_02h28.14.631,Colour_Asymmetry_Pilot,2022.1.3,MacIntel,59.93407252,62c50e9c1127f2cd403a315f,,,,,,,,,,,,,,,,,,,,fourtwo,,-4,0.2842,,,,,,,,,,,,,,,,,,,,,,,,,,,,,,,,,,"[0.9372,0.9450000000000001,0.8980000000000001]","[-0.10599999999999998,-0.10599999999999998,0.5841999999999998]",-39,86,1,0,0,response7disk,-1,-11,1,0,0,rectangle,-1,-11,1,0,0,2,3,1E-04,0,-1,-11,1,0,0,0,13,13,29,1,29,first,,,,,,,,,,,,,,,,,,,,,,,,,,,,,,,,,,,,,,,,,,,,,,,,,,,,,,,,,,,,,,,,,,,,,,,,
