trials.thisRepN,trials.thisTrialN,trials.thisN,trials.thisIndex,trials.ran,Colourcodes,participant,session,date,expName,psychopyVersion,OS,frameRate,study_id,trials_4.thisRepN,trials_4.thisTrialN,trials_4.thisN,trials_4.thisIndex,trials_4.ran,StimulusPos,key_resp.keys,key_resp.rt,key_resp_2.keys,key_resp_2.rt,key_resp_15.keys,key_resp_15.rt,key_resp_17.keys,key_resp_17.rt,key_resp_9.keys,key_resp_9.rt,key_resp_10.keys,key_resp_10.rt,Circle1_col,Ecc,Circle2_col,similarity,response_time,mouse_5.x,mouse_5.y,mouse_5.leftButton,mouse_5.midButton,mouse_5.rightButton,mouse_5.clicked_name,mouse_10.x,mouse_10.y,mouse_10.leftButton,mouse_10.midButton,mouse_10.rightButton,mouse_10.clicked_name,mouse_7.x,mouse_7.y,mouse_7.leftButton,mouse_7.midButton,mouse_7.rightButton,catchnumberprac,mouse_6.x,mouse_6.y,mouse_6.leftButton,mouse_6.midButton,mouse_6.rightButton,duringprac.thisRepN,duringprac.thisTrialN,duringprac.thisN,duringprac.thisIndex,duringprac.ran,mouse_7.clicked_name,catchprac,mouse_6.clicked_name,key_resp_22.keys,key_resp_22.rt,Circle1_colour,Circle2_colour,mouse.x,mouse.y,mouse.leftButton,mouse.midButton,mouse.rightButton,mouse.clicked_name,mouse_2.x,mouse_2.y,mouse_2.leftButton,mouse_2.midButton,mouse_2.rightButton,mouse_2.clicked_name,mouse_3.x,mouse_3.y,mouse_3.leftButton,mouse_3.midButton,mouse_3.rightButton,mouse_3.clicked_name,catchresponse,catchnumber,response_time_catch,Catch,mouse_11.x,mouse_11.y,mouse_11.leftButton,mouse_11.midButton,mouse_11.rightButton,mouse_11.clicked_name,trials_2.thisRepN,trials_2.thisTrialN,trials_2.thisN,trials_2.thisIndex,trials_2.ran,Colourpair,Temporder,trials_3.thisRepN,trials_3.thisTrialN,trials_3.thisN,trials_3.thisIndex,trials_3.ran,key_resp_instr_Ishi.keys,key_resp_instr_Ishi.rt,Ishi_trial_keyresp.keys,Ishi_textbox.text,Ishi_mouse.x,Ishi_mouse.y,Ishi_mouse.leftButton,Ishi_mouse.midButton,Ishi_mouse.rightButton,Ishi_mouse.clicked_name,Ishi_loop.thisRepN,Ishi_loop.thisTrialN,Ishi_loop.thisN,Ishi_loop.thisIndex,Ishi_loop.ran,imageaddress,textbox.text,mouse_4.x,mouse_4.y,mouse_4.leftButton,mouse_4.midButton,mouse_4.rightButton,mouse_4.clicked_name,textbox_2.text,mouse_8.x,mouse_8.y,mouse_8.leftButton,mouse_8.midButton,mouse_8.rightButton,mouse_8.clicked_name,textbox_3.text,mouse_9.x,mouse_9.y,mouse_9.leftButton,mouse_9.midButton,mouse_9.rightButton,mouse_9.clicked_name,textbox_4.text,mouse_12.x,mouse_12.y,mouse_12.leftButton,mouse_12.midButton,mouse_12.rightButton,mouse_12.clicked_name,textbox_5.text,mouse_13.x,mouse_13.y,mouse_13.leftButton,mouse_13.midButton,mouse_13.rightButton,mouse_13.clicked_name,textbox_6.text,mouse_14.x,mouse_14.y,mouse_14.leftButton,mouse_14.midButton,mouse_14.rightButton,mouse_14.clicked_name,textbox_7.text,mouse_15.x,mouse_15.y,mouse_15.leftButton,mouse_15.midButton,mouse_15.rightButton,mouse_15.clicked_name
0,0,0,4,1,,616bb057f8368c4787a35348,62c5398e54c23d5b03dab9c2,2022-07-06_09h29.03.500,Colour_Asymmetry_Pilot,2022.1.3,Win32,60.07088364,62c50e9c1127f2cd403a315f,,,,,,,,,,,,,,,,,,,,,,,,,,,,,,,,,,,,,,,,,,,,,,,,,,,,,,,,,,,,,,,,,,,,,,,,,,,,,,,,,,,,,,,,,,,,,,,,,,,,,,,,,,,,,,,,,,,,,,,,,,,,,,,,,,,,,,,,,,,,,,,,,,,,,,,,,,,,,,,,,,,
0,1,1,19,1,,616bb057f8368c4787a35348,62c5398e54c23d5b03dab9c2,2022-07-06_09h29.03.500,Colour_Asymmetry_Pilot,2022.1.3,Win32,60.07088364,62c50e9c1127f2cd403a315f,,,,,,,,,,,,,,,,,,,,,,,,,,,,,,,,,,,,,,,,,,,,,,,,,,,,,,,,,,,,,,,,,,,,,,,,,,,,,,,,,,,,,,,,,,,,,,,,,,,,,,,,,,,,,,,,,,,,,,,,,,,,,,,,,,,,,,,,,,,,,,,,,,,,,,,,,,,,,,,,,,,
0,2,2,15,1,,616bb057f8368c4787a35348,62c5398e54c23d5b03dab9c2,2022-07-06_09h29.03.500,Colour_Asymmetry_Pilot,2022.1.3,Win32,60.07088364,62c50e9c1127f2cd403a315f,,,,,,,,,,,,,,,,,,,,,,,,,,,,,,,,,,,,,,,,,,,,,,,,,,,,,,,,,,,,,,,,,,,,,,,,,,,,,,,,,,,,,,,,,,,,,,,,,,,,,,,,,,,,,,,,,,,,,,,,,,,,,,,,,,,,,,,,,,,,,,,,,,,,,,,,,,,,,,,,,,,
0,3,3,56,1,,616bb057f8368c4787a35348,62c5398e54c23d5b03dab9c2,2022-07-06_09h29.03.500,Colour_Asymmetry_Pilot,2022.1.3,Win32,60.07088364,62c50e9c1127f2cd403a315f,,,,,,,,,,,,,,,,,,,,,,,,,,,,,,,,,,,,,,,,,,,,,,,,,,,,,,,,,,,,,,,,,,,,,,,,,,,,,,,,,,,,,,,,,,,,,,,,,,,,,,,,,,,,,,,,,,,,,,,,,,,,,,,,,,,,,,,,,,,,,,,,,,,,,,,,,,,,,,,,,,,
0,4,4,2,1,,616bb057f8368c4787a35348,62c5398e54c23d5b03dab9c2,2022-07-06_09h29.03.500,Colour_Asymmetry_Pilot,2022.1.3,Win32,60.07088364,62c50e9c1127f2cd403a315f,,,,,,,,,,,,,,,,,,,,,,,,,,,,,,,,,,,,,,,,,,,,,,,,,,,,,,,,,,,,,,,,,,,,,,,,,,,,,,,,,,,,,,,,,,,,,,,,,,,,,,,,,,,,,,,,,,,,,,,,,,,,,,,,,,,,,,,,,,,,,,,,,,,,,,,,,,,,,,,,,,,
0,5,5,38,1,,616bb057f8368c4787a35348,62c5398e54c23d5b03dab9c2,2022-07-06_09h29.03.500,Colour_Asymmetry_Pilot,2022.1.3,Win32,60.07088364,62c50e9c1127f2cd403a315f,,,,,,,,,,,,,,,,,,,,,,,,,,,,,,,,,,,,,,,,,,,,,,,,,,,,,,,,,,,,,,,,,,,,,,,,,,,,,,,,,,,,,,,,,,,,,,,,,,,,,,,,,,,,,,,,,,,,,,,,,,,,,,,,,,,,,,,,,,,,,,,,,,,,,,,,,,,,,,,,,,,
0,6,6,26,1,,616bb057f8368c4787a35348,62c5398e54c23d5b03dab9c2,2022-07-06_09h29.03.500,Colour_Asymmetry_Pilot,2022.1.3,Win32,60.07088364,62c50e9c1127f2cd403a315f,,,,,,,,,,,,,,,,,,,,,,,,,,,,,,,,,,,,,,,,,,,,,,,,,,,,,,,,,,,,,,,,,,,,,,,,,,,,,,,,,,,,,,,,,,,,,,,,,,,,,,,,,,,,,,,,,,,,,,,,,,,,,,,,,,,,,,,,,,,,,,,,,,,,,,,,,,,,,,,,,,,
0,7,7,44,1,,616bb057f8368c4787a35348,62c5398e54c23d5b03dab9c2,2022-07-06_09h29.03.500,Colour_Asymmetry_Pilot,2022.1.3,Win32,60.07088364,62c50e9c1127f2cd403a315f,,,,,,,,,,,,,,,,,,,,,,,,,,,,,,,,,,,,,,,,,,,,,,,,,,,,,,,,,,,,,,,,,,,,,,,,,,,,,,,,,,,,,,,,,,,,,,,,,,,,,,,,,,,,,,,,,,,,,,,,,,,,,,,,,,,,,,,,,,,,,,,,,,,,,,,,,,,,,,,,,,,
0,8,8,7,1,,616bb057f8368c4787a35348,62c5398e54c23d5b03dab9c2,2022-07-06_09h29.03.500,Colour_Asymmetry_Pilot,2022.1.3,Win32,60.07088364,62c50e9c1127f2cd403a315f,,,,,,,,,,,,,,,,,,,,,,,,,,,,,,,,,,,,,,,,,,,,,,,,,,,,,,,,,,,,,,,,,,,,,,,,,,,,,,,,,,,,,,,,,,,,,,,,,,,,,,,,,,,,,,,,,,,,,,,,,,,,,,,,,,,,,,,,,,,,,,,,,,,,,,,,,,,,,,,,,,,
0,9,9,14,1,,616bb057f8368c4787a35348,62c5398e54c23d5b03dab9c2,2022-07-06_09h29.03.500,Colour_Asymmetry_Pilot,2022.1.3,Win32,60.07088364,62c50e9c1127f2cd403a315f,,,,,,,,,,,,,,,,,,,,,,,,,,,,,,,,,,,,,,,,,,,,,,,,,,,,,,,,,,,,,,,,,,,,,,,,,,,,,,,,,,,,,,,,,,,,,,,,,,,,,,,,,,,,,,,,,,,,,,,,,,,,,,,,,,,,,,,,,,,,,,,,,,,,,,,,,,,,,,,,,,,
0,10,10,92,1,,616bb057f8368c4787a35348,62c5398e54c23d5b03dab9c2,2022-07-06_09h29.03.500,Colour_Asymmetry_Pilot,2022.1.3,Win32,60.07088364,62c50e9c1127f2cd403a315f,,,,,,,,,,,,,,,,,,,,,,,,,,,,,,,,,,,,,,,,,,,,,,,,,,,,,,,,,,,,,,,,,,,,,,,,,,,,,,,,,,,,,,,,,,,,,,,,,,,,,,,,,,,,,,,,,,,,,,,,,,,,,,,,,,,,,,,,,,,,,,,,,,,,,,,,,,,,,,,,,,,
0,11,11,55,1,,616bb057f8368c4787a35348,62c5398e54c23d5b03dab9c2,2022-07-06_09h29.03.500,Colour_Asymmetry_Pilot,2022.1.3,Win32,60.07088364,62c50e9c1127f2cd403a315f,,,,,,,,,,,,,,,,,,,,,,,,,,,,,,,,,,,,,,,,,,,,,,,,,,,,,,,,,,,,,,,,,,,,,,,,,,,,,,,,,,,,,,,,,,,,,,,,,,,,,,,,,,,,,,,,,,,,,,,,,,,,,,,,,,,,,,,,,,,,,,,,,,,,,,,,,,,,,,,,,,,
0,12,12,16,1,,616bb057f8368c4787a35348,62c5398e54c23d5b03dab9c2,2022-07-06_09h29.03.500,Colour_Asymmetry_Pilot,2022.1.3,Win32,60.07088364,62c50e9c1127f2cd403a315f,,,,,,,,,,,,,,,,,,,,,,,,,,,,,,,,,,,,,,,,,,,,,,,,,,,,,,,,,,,,,,,,,,,,,,,,,,,,,,,,,,,,,,,,,,,,,,,,,,,,,,,,,,,,,,,,,,,,,,,,,,,,,,,,,,,,,,,,,,,,,,,,,,,,,,,,,,,,,,,,,,,
0,13,13,8,1,,616bb057f8368c4787a35348,62c5398e54c23d5b03dab9c2,2022-07-06_09h29.03.500,Colour_Asymmetry_Pilot,2022.1.3,Win32,60.07088364,62c50e9c1127f2cd403a315f,,,,,,,,,,,,,,,,,,,,,,,,,,,,,,,,,,,,,,,,,,,,,,,,,,,,,,,,,,,,,,,,,,,,,,,,,,,,,,,,,,,,,,,,,,,,,,,,,,,,,,,,,,,,,,,,,,,,,,,,,,,,,,,,,,,,,,,,,,,,,,,,,,,,,,,,,,,,,,,,,,,
0,14,14,45,1,,616bb057f8368c4787a35348,62c5398e54c23d5b03dab9c2,2022-07-06_09h29.03.500,Colour_Asymmetry_Pilot,2022.1.3,Win32,60.07088364,62c50e9c1127f2cd403a315f,,,,,,,,,,,,,,,,,,,,,,,,,,,,,,,,,,,,,,,,,,,,,,,,,,,,,,,,,,,,,,,,,,,,,,,,,,,,,,,,,,,,,,,,,,,,,,,,,,,,,,,,,,,,,,,,,,,,,,,,,,,,,,,,,,,,,,,,,,,,,,,,,,,,,,,,,,,,,,,,,,,
0,15,15,43,1,,616bb057f8368c4787a35348,62c5398e54c23d5b03dab9c2,2022-07-06_09h29.03.500,Colour_Asymmetry_Pilot,2022.1.3,Win32,60.07088364,62c50e9c1127f2cd403a315f,,,,,,,,,,,,,,,,,,,,,,,,,,,,,,,,,,,,,,,,,,,,,,,,,,,,,,,,,,,,,,,,,,,,,,,,,,,,,,,,,,,,,,,,,,,,,,,,,,,,,,,,,,,,,,,,,,,,,,,,,,,,,,,,,,,,,,,,,,,,,,,,,,,,,,,,,,,,,,,,,,,
0,16,16,84,1,,616bb057f8368c4787a35348,62c5398e54c23d5b03dab9c2,2022-07-06_09h29.03.500,Colour_Asymmetry_Pilot,2022.1.3,Win32,60.07088364,62c50e9c1127f2cd403a315f,,,,,,,,,,,,,,,,,,,,,,,,,,,,,,,,,,,,,,,,,,,,,,,,,,,,,,,,,,,,,,,,,,,,,,,,,,,,,,,,,,,,,,,,,,,,,,,,,,,,,,,,,,,,,,,,,,,,,,,,,,,,,,,,,,,,,,,,,,,,,,,,,,,,,,,,,,,,,,,,,,,
0,17,17,40,1,,616bb057f8368c4787a35348,62c5398e54c23d5b03dab9c2,2022-07-06_09h29.03.500,Colour_Asymmetry_Pilot,2022.1.3,Win32,60.07088364,62c50e9c1127f2cd403a315f,,,,,,,,,,,,,,,,,,,,,,,,,,,,,,,,,,,,,,,,,,,,,,,,,,,,,,,,,,,,,,,,,,,,,,,,,,,,,,,,,,,,,,,,,,,,,,,,,,,,,,,,,,,,,,,,,,,,,,,,,,,,,,,,,,,,,,,,,,,,,,,,,,,,,,,,,,,,,,,,,,,
0,18,18,88,1,,616bb057f8368c4787a35348,62c5398e54c23d5b03dab9c2,2022-07-06_09h29.03.500,Colour_Asymmetry_Pilot,2022.1.3,Win32,60.07088364,62c50e9c1127f2cd403a315f,,,,,,,,,,,,,,,,,,,,,,,,,,,,,,,,,,,,,,,,,,,,,,,,,,,,,,,,,,,,,,,,,,,,,,,,,,,,,,,,,,,,,,,,,,,,,,,,,,,,,,,,,,,,,,,,,,,,,,,,,,,,,,,,,,,,,,,,,,,,,,,,,,,,,,,,,,,,,,,,,,,
0,19,19,78,1,,616bb057f8368c4787a35348,62c5398e54c23d5b03dab9c2,2022-07-06_09h29.03.500,Colour_Asymmetry_Pilot,2022.1.3,Win32,60.07088364,62c50e9c1127f2cd403a315f,,,,,,,,,,,,,,,,,,,,,,,,,,,,,,,,,,,,,,,,,,,,,,,,,,,,,,,,,,,,,,,,,,,,,,,,,,,,,,,,,,,,,,,,,,,,,,,,,,,,,,,,,,,,,,,,,,,,,,,,,,,,,,,,,,,,,,,,,,,,,,,,,,,,,,,,,,,,,,,,,,,
0,20,20,32,1,,616bb057f8368c4787a35348,62c5398e54c23d5b03dab9c2,2022-07-06_09h29.03.500,Colour_Asymmetry_Pilot,2022.1.3,Win32,60.07088364,62c50e9c1127f2cd403a315f,,,,,,,,,,,,,,,,,,,,,,,,,,,,,,,,,,,,,,,,,,,,,,,,,,,,,,,,,,,,,,,,,,,,,,,,,,,,,,,,,,,,,,,,,,,,,,,,,,,,,,,,,,,,,,,,,,,,,,,,,,,,,,,,,,,,,,,,,,,,,,,,,,,,,,,,,,,,,,,,,,,
0,21,21,17,1,,616bb057f8368c4787a35348,62c5398e54c23d5b03dab9c2,2022-07-06_09h29.03.500,Colour_Asymmetry_Pilot,2022.1.3,Win32,60.07088364,62c50e9c1127f2cd403a315f,,,,,,,,,,,,,,,,,,,,,,,,,,,,,,,,,,,,,,,,,,,,,,,,,,,,,,,,,,,,,,,,,,,,,,,,,,,,,,,,,,,,,,,,,,,,,,,,,,,,,,,,,,,,,,,,,,,,,,,,,,,,,,,,,,,,,,,,,,,,,,,,,,,,,,,,,,,,,,,,,,,
0,22,22,72,1,,616bb057f8368c4787a35348,62c5398e54c23d5b03dab9c2,2022-07-06_09h29.03.500,Colour_Asymmetry_Pilot,2022.1.3,Win32,60.07088364,62c50e9c1127f2cd403a315f,,,,,,,,,,,,,,,,,,,,,,,,,,,,,,,,,,,,,,,,,,,,,,,,,,,,,,,,,,,,,,,,,,,,,,,,,,,,,,,,,,,,,,,,,,,,,,,,,,,,,,,,,,,,,,,,,,,,,,,,,,,,,,,,,,,,,,,,,,,,,,,,,,,,,,,,,,,,,,,,,,,
0,23,23,28,1,,616bb057f8368c4787a35348,62c5398e54c23d5b03dab9c2,2022-07-06_09h29.03.500,Colour_Asymmetry_Pilot,2022.1.3,Win32,60.07088364,62c50e9c1127f2cd403a315f,,,,,,,,,,,,,,,,,,,,,,,,,,,,,,,,,,,,,,,,,,,,,,,,,,,,,,,,,,,,,,,,,,,,,,,,,,,,,,,,,,,,,,,,,,,,,,,,,,,,,,,,,,,,,,,,,,,,,,,,,,,,,,,,,,,,,,,,,,,,,,,,,,,,,,,,,,,,,,,,,,,
0,24,24,36,1,,616bb057f8368c4787a35348,62c5398e54c23d5b03dab9c2,2022-07-06_09h29.03.500,Colour_Asymmetry_Pilot,2022.1.3,Win32,60.07088364,62c50e9c1127f2cd403a315f,,,,,,,,,,,,,,,,,,,,,,,,,,,,,,,,,,,,,,,,,,,,,,,,,,,,,,,,,,,,,,,,,,,,,,,,,,,,,,,,,,,,,,,,,,,,,,,,,,,,,,,,,,,,,,,,,,,,,,,,,,,,,,,,,,,,,,,,,,,,,,,,,,,,,,,,,,,,,,,,,,,
0,25,25,71,1,,616bb057f8368c4787a35348,62c5398e54c23d5b03dab9c2,2022-07-06_09h29.03.500,Colour_Asymmetry_Pilot,2022.1.3,Win32,60.07088364,62c50e9c1127f2cd403a315f,,,,,,,,,,,,,,,,,,,,,,,,,,,,,,,,,,,,,,,,,,,,,,,,,,,,,,,,,,,,,,,,,,,,,,,,,,,,,,,,,,,,,,,,,,,,,,,,,,,,,,,,,,,,,,,,,,,,,,,,,,,,,,,,,,,,,,,,,,,,,,,,,,,,,,,,,,,,,,,,,,,
0,26,26,52,1,,616bb057f8368c4787a35348,62c5398e54c23d5b03dab9c2,2022-07-06_09h29.03.500,Colour_Asymmetry_Pilot,2022.1.3,Win32,60.07088364,62c50e9c1127f2cd403a315f,,,,,,,,,,,,,,,,,,,,,,,,,,,,,,,,,,,,,,,,,,,,,,,,,,,,,,,,,,,,,,,,,,,,,,,,,,,,,,,,,,,,,,,,,,,,,,,,,,,,,,,,,,,,,,,,,,,,,,,,,,,,,,,,,,,,,,,,,,,,,,,,,,,,,,,,,,,,,,,,,,,
0,27,27,90,1,,616bb057f8368c4787a35348,62c5398e54c23d5b03dab9c2,2022-07-06_09h29.03.500,Colour_Asymmetry_Pilot,2022.1.3,Win32,60.07088364,62c50e9c1127f2cd403a315f,,,,,,,,,,,,,,,,,,,,,,,,,,,,,,,,,,,,,,,,,,,,,,,,,,,,,,,,,,,,,,,,,,,,,,,,,,,,,,,,,,,,,,,,,,,,,,,,,,,,,,,,,,,,,,,,,,,,,,,,,,,,,,,,,,,,,,,,,,,,,,,,,,,,,,,,,,,,,,,,,,,
0,28,28,86,1,,616bb057f8368c4787a35348,62c5398e54c23d5b03dab9c2,2022-07-06_09h29.03.500,Colour_Asymmetry_Pilot,2022.1.3,Win32,60.07088364,62c50e9c1127f2cd403a315f,,,,,,,,,,,,,,,,,,,,,,,,,,,,,,,,,,,,,,,,,,,,,,,,,,,,,,,,,,,,,,,,,,,,,,,,,,,,,,,,,,,,,,,,,,,,,,,,,,,,,,,,,,,,,,,,,,,,,,,,,,,,,,,,,,,,,,,,,,,,,,,,,,,,,,,,,,,,,,,,,,,
0,29,29,0,1,,616bb057f8368c4787a35348,62c5398e54c23d5b03dab9c2,2022-07-06_09h29.03.500,Colour_Asymmetry_Pilot,2022.1.3,Win32,60.07088364,62c50e9c1127f2cd403a315f,,,,,,,,,,,,,,,,,,,,,,,,,,,,,,,,,,,,,,,,,,,,,,,,,,,,,,,,,,,,,,,,,,,,,,,,,,,,,,,,,,,,,,,,,,,,,,,,,,,,,,,,,,,,,,,,,,,,,,,,,,,,,,,,,,,,,,,,,,,,,,,,,,,,,,,,,,,,,,,,,,,
0,30,30,62,1,,616bb057f8368c4787a35348,62c5398e54c23d5b03dab9c2,2022-07-06_09h29.03.500,Colour_Asymmetry_Pilot,2022.1.3,Win32,60.07088364,62c50e9c1127f2cd403a315f,,,,,,,,,,,,,,,,,,,,,,,,,,,,,,,,,,,,,,,,,,,,,,,,,,,,,,,,,,,,,,,,,,,,,,,,,,,,,,,,,,,,,,,,,,,,,,,,,,,,,,,,,,,,,,,,,,,,,,,,,,,,,,,,,,,,,,,,,,,,,,,,,,,,,,,,,,,,,,,,,,,
0,31,31,57,1,,616bb057f8368c4787a35348,62c5398e54c23d5b03dab9c2,2022-07-06_09h29.03.500,Colour_Asymmetry_Pilot,2022.1.3,Win32,60.07088364,62c50e9c1127f2cd403a315f,,,,,,,,,,,,,,,,,,,,,,,,,,,,,,,,,,,,,,,,,,,,,,,,,,,,,,,,,,,,,,,,,,,,,,,,,,,,,,,,,,,,,,,,,,,,,,,,,,,,,,,,,,,,,,,,,,,,,,,,,,,,,,,,,,,,,,,,,,,,,,,,,,,,,,,,,,,,,,,,,,,
0,32,32,1,1,,616bb057f8368c4787a35348,62c5398e54c23d5b03dab9c2,2022-07-06_09h29.03.500,Colour_Asymmetry_Pilot,2022.1.3,Win32,60.07088364,62c50e9c1127f2cd403a315f,,,,,,,,,,,,,,,,,,,,,,,,,,,,,,,,,,,,,,,,,,,,,,,,,,,,,,,,,,,,,,,,,,,,,,,,,,,,,,,,,,,,,,,,,,,,,,,,,,,,,,,,,,,,,,,,,,,,,,,,,,,,,,,,,,,,,,,,,,,,,,,,,,,,,,,,,,,,,,,,,,,
0,33,33,77,1,,616bb057f8368c4787a35348,62c5398e54c23d5b03dab9c2,2022-07-06_09h29.03.500,Colour_Asymmetry_Pilot,2022.1.3,Win32,60.07088364,62c50e9c1127f2cd403a315f,,,,,,,,,,,,,,,,,,,,,,,,,,,,,,,,,,,,,,,,,,,,,,,,,,,,,,,,,,,,,,,,,,,,,,,,,,,,,,,,,,,,,,,,,,,,,,,,,,,,,,,,,,,,,,,,,,,,,,,,,,,,,,,,,,,,,,,,,,,,,,,,,,,,,,,,,,,,,,,,,,,
0,34,34,91,1,,616bb057f8368c4787a35348,62c5398e54c23d5b03dab9c2,2022-07-06_09h29.03.500,Colour_Asymmetry_Pilot,2022.1.3,Win32,60.07088364,62c50e9c1127f2cd403a315f,,,,,,,,,,,,,,,,,,,,,,,,,,,,,,,,,,,,,,,,,,,,,,,,,,,,,,,,,,,,,,,,,,,,,,,,,,,,,,,,,,,,,,,,,,,,,,,,,,,,,,,,,,,,,,,,,,,,,,,,,,,,,,,,,,,,,,,,,,,,,,,,,,,,,,,,,,,,,,,,,,,
0,35,35,73,1,,616bb057f8368c4787a35348,62c5398e54c23d5b03dab9c2,2022-07-06_09h29.03.500,Colour_Asymmetry_Pilot,2022.1.3,Win32,60.07088364,62c50e9c1127f2cd403a315f,,,,,,,,,,,,,,,,,,,,,,,,,,,,,,,,,,,,,,,,,,,,,,,,,,,,,,,,,,,,,,,,,,,,,,,,,,,,,,,,,,,,,,,,,,,,,,,,,,,,,,,,,,,,,,,,,,,,,,,,,,,,,,,,,,,,,,,,,,,,,,,,,,,,,,,,,,,,,,,,,,,
0,36,36,22,1,,616bb057f8368c4787a35348,62c5398e54c23d5b03dab9c2,2022-07-06_09h29.03.500,Colour_Asymmetry_Pilot,2022.1.3,Win32,60.07088364,62c50e9c1127f2cd403a315f,,,,,,,,,,,,,,,,,,,,,,,,,,,,,,,,,,,,,,,,,,,,,,,,,,,,,,,,,,,,,,,,,,,,,,,,,,,,,,,,,,,,,,,,,,,,,,,,,,,,,,,,,,,,,,,,,,,,,,,,,,,,,,,,,,,,,,,,,,,,,,,,,,,,,,,,,,,,,,,,,,,
0,37,37,58,1,,616bb057f8368c4787a35348,62c5398e54c23d5b03dab9c2,2022-07-06_09h29.03.500,Colour_Asymmetry_Pilot,2022.1.3,Win32,60.07088364,62c50e9c1127f2cd403a315f,,,,,,,,,,,,,,,,,,,,,,,,,,,,,,,,,,,,,,,,,,,,,,,,,,,,,,,,,,,,,,,,,,,,,,,,,,,,,,,,,,,,,,,,,,,,,,,,,,,,,,,,,,,,,,,,,,,,,,,,,,,,,,,,,,,,,,,,,,,,,,,,,,,,,,,,,,,,,,,,,,,
0,38,38,31,1,,616bb057f8368c4787a35348,62c5398e54c23d5b03dab9c2,2022-07-06_09h29.03.500,Colour_Asymmetry_Pilot,2022.1.3,Win32,60.07088364,62c50e9c1127f2cd403a315f,,,,,,,,,,,,,,,,,,,,,,,,,,,,,,,,,,,,,,,,,,,,,,,,,,,,,,,,,,,,,,,,,,,,,,,,,,,,,,,,,,,,,,,,,,,,,,,,,,,,,,,,,,,,,,,,,,,,,,,,,,,,,,,,,,,,,,,,,,,,,,,,,,,,,,,,,,,,,,,,,,,
0,39,39,69,1,,616bb057f8368c4787a35348,62c5398e54c23d5b03dab9c2,2022-07-06_09h29.03.500,Colour_Asymmetry_Pilot,2022.1.3,Win32,60.07088364,62c50e9c1127f2cd403a315f,,,,,,,,,,,,,,,,,,,,,,,,,,,,,,,,,,,,,,,,,,,,,,,,,,,,,,,,,,,,,,,,,,,,,,,,,,,,,,,,,,,,,,,,,,,,,,,,,,,,,,,,,,,,,,,,,,,,,,,,,,,,,,,,,,,,,,,,,,,,,,,,,,,,,,,,,,,,,,,,,,,
0,40,40,18,1,,616bb057f8368c4787a35348,62c5398e54c23d5b03dab9c2,2022-07-06_09h29.03.500,Colour_Asymmetry_Pilot,2022.1.3,Win32,60.07088364,62c50e9c1127f2cd403a315f,,,,,,,,,,,,,,,,,,,,,,,,,,,,,,,,,,,,,,,,,,,,,,,,,,,,,,,,,,,,,,,,,,,,,,,,,,,,,,,,,,,,,,,,,,,,,,,,,,,,,,,,,,,,,,,,,,,,,,,,,,,,,,,,,,,,,,,,,,,,,,,,,,,,,,,,,,,,,,,,,,,
0,41,41,10,1,,616bb057f8368c4787a35348,62c5398e54c23d5b03dab9c2,2022-07-06_09h29.03.500,Colour_Asymmetry_Pilot,2022.1.3,Win32,60.07088364,62c50e9c1127f2cd403a315f,,,,,,,,,,,,,,,,,,,,,,,,,,,,,,,,,,,,,,,,,,,,,,,,,,,,,,,,,,,,,,,,,,,,,,,,,,,,,,,,,,,,,,,,,,,,,,,,,,,,,,,,,,,,,,,,,,,,,,,,,,,,,,,,,,,,,,,,,,,,,,,,,,,,,,,,,,,,,,,,,,,
0,42,42,79,1,,616bb057f8368c4787a35348,62c5398e54c23d5b03dab9c2,2022-07-06_09h29.03.500,Colour_Asymmetry_Pilot,2022.1.3,Win32,60.07088364,62c50e9c1127f2cd403a315f,,,,,,,,,,,,,,,,,,,,,,,,,,,,,,,,,,,,,,,,,,,,,,,,,,,,,,,,,,,,,,,,,,,,,,,,,,,,,,,,,,,,,,,,,,,,,,,,,,,,,,,,,,,,,,,,,,,,,,,,,,,,,,,,,,,,,,,,,,,,,,,,,,,,,,,,,,,,,,,,,,,
0,43,43,65,1,,616bb057f8368c4787a35348,62c5398e54c23d5b03dab9c2,2022-07-06_09h29.03.500,Colour_Asymmetry_Pilot,2022.1.3,Win32,60.07088364,62c50e9c1127f2cd403a315f,,,,,,,,,,,,,,,,,,,,,,,,,,,,,,,,,,,,,,,,,,,,,,,,,,,,,,,,,,,,,,,,,,,,,,,,,,,,,,,,,,,,,,,,,,,,,,,,,,,,,,,,,,,,,,,,,,,,,,,,,,,,,,,,,,,,,,,,,,,,,,,,,,,,,,,,,,,,,,,,,,,
0,44,44,53,1,,616bb057f8368c4787a35348,62c5398e54c23d5b03dab9c2,2022-07-06_09h29.03.500,Colour_Asymmetry_Pilot,2022.1.3,Win32,60.07088364,62c50e9c1127f2cd403a315f,,,,,,,,,,,,,,,,,,,,,,,,,,,,,,,,,,,,,,,,,,,,,,,,,,,,,,,,,,,,,,,,,,,,,,,,,,,,,,,,,,,,,,,,,,,,,,,,,,,,,,,,,,,,,,,,,,,,,,,,,,,,,,,,,,,,,,,,,,,,,,,,,,,,,,,,,,,,,,,,,,,
0,45,45,50,1,,616bb057f8368c4787a35348,62c5398e54c23d5b03dab9c2,2022-07-06_09h29.03.500,Colour_Asymmetry_Pilot,2022.1.3,Win32,60.07088364,62c50e9c1127f2cd403a315f,,,,,,,,,,,,,,,,,,,,,,,,,,,,,,,,,,,,,,,,,,,,,,,,,,,,,,,,,,,,,,,,,,,,,,,,,,,,,,,,,,,,,,,,,,,,,,,,,,,,,,,,,,,,,,,,,,,,,,,,,,,,,,,,,,,,,,,,,,,,,,,,,,,,,,,,,,,,,,,,,,,
0,46,46,11,1,,616bb057f8368c4787a35348,62c5398e54c23d5b03dab9c2,2022-07-06_09h29.03.500,Colour_Asymmetry_Pilot,2022.1.3,Win32,60.07088364,62c50e9c1127f2cd403a315f,,,,,,,,,,,,,,,,,,,,,,,,,,,,,,,,,,,,,,,,,,,,,,,,,,,,,,,,,,,,,,,,,,,,,,,,,,,,,,,,,,,,,,,,,,,,,,,,,,,,,,,,,,,,,,,,,,,,,,,,,,,,,,,,,,,,,,,,,,,,,,,,,,,,,,,,,,,,,,,,,,,
0,47,47,75,1,,616bb057f8368c4787a35348,62c5398e54c23d5b03dab9c2,2022-07-06_09h29.03.500,Colour_Asymmetry_Pilot,2022.1.3,Win32,60.07088364,62c50e9c1127f2cd403a315f,,,,,,,,,,,,,,,,,,,,,,,,,,,,,,,,,,,,,,,,,,,,,,,,,,,,,,,,,,,,,,,,,,,,,,,,,,,,,,,,,,,,,,,,,,,,,,,,,,,,,,,,,,,,,,,,,,,,,,,,,,,,,,,,,,,,,,,,,,,,,,,,,,,,,,,,,,,,,,,,,,,
0,48,48,37,1,,616bb057f8368c4787a35348,62c5398e54c23d5b03dab9c2,2022-07-06_09h29.03.500,Colour_Asymmetry_Pilot,2022.1.3,Win32,60.07088364,62c50e9c1127f2cd403a315f,,,,,,,,,,,,,,,,,,,,,,,,,,,,,,,,,,,,,,,,,,,,,,,,,,,,,,,,,,,,,,,,,,,,,,,,,,,,,,,,,,,,,,,,,,,,,,,,,,,,,,,,,,,,,,,,,,,,,,,,,,,,,,,,,,,,,,,,,,,,,,,,,,,,,,,,,,,,,,,,,,,
0,49,49,54,1,,616bb057f8368c4787a35348,62c5398e54c23d5b03dab9c2,2022-07-06_09h29.03.500,Colour_Asymmetry_Pilot,2022.1.3,Win32,60.07088364,62c50e9c1127f2cd403a315f,,,,,,,,,,,,,,,,,,,,,,,,,,,,,,,,,,,,,,,,,,,,,,,,,,,,,,,,,,,,,,,,,,,,,,,,,,,,,,,,,,,,,,,,,,,,,,,,,,,,,,,,,,,,,,,,,,,,,,,,,,,,,,,,,,,,,,,,,,,,,,,,,,,,,,,,,,,,,,,,,,,
0,50,50,13,1,,616bb057f8368c4787a35348,62c5398e54c23d5b03dab9c2,2022-07-06_09h29.03.500,Colour_Asymmetry_Pilot,2022.1.3,Win32,60.07088364,62c50e9c1127f2cd403a315f,,,,,,,,,,,,,,,,,,,,,,,,,,,,,,,,,,,,,,,,,,,,,,,,,,,,,,,,,,,,,,,,,,,,,,,,,,,,,,,,,,,,,,,,,,,,,,,,,,,,,,,,,,,,,,,,,,,,,,,,,,,,,,,,,,,,,,,,,,,,,,,,,,,,,,,,,,,,,,,,,,,
0,51,51,29,1,,616bb057f8368c4787a35348,62c5398e54c23d5b03dab9c2,2022-07-06_09h29.03.500,Colour_Asymmetry_Pilot,2022.1.3,Win32,60.07088364,62c50e9c1127f2cd403a315f,,,,,,,,,,,,,,,,,,,,,,,,,,,,,,,,,,,,,,,,,,,,,,,,,,,,,,,,,,,,,,,,,,,,,,,,,,,,,,,,,,,,,,,,,,,,,,,,,,,,,,,,,,,,,,,,,,,,,,,,,,,,,,,,,,,,,,,,,,,,,,,,,,,,,,,,,,,,,,,,,,,
0,52,52,9,1,,616bb057f8368c4787a35348,62c5398e54c23d5b03dab9c2,2022-07-06_09h29.03.500,Colour_Asymmetry_Pilot,2022.1.3,Win32,60.07088364,62c50e9c1127f2cd403a315f,,,,,,,,,,,,,,,,,,,,,,,,,,,,,,,,,,,,,,,,,,,,,,,,,,,,,,,,,,,,,,,,,,,,,,,,,,,,,,,,,,,,,,,,,,,,,,,,,,,,,,,,,,,,,,,,,,,,,,,,,,,,,,,,,,,,,,,,,,,,,,,,,,,,,,,,,,,,,,,,,,,
0,53,53,24,1,,616bb057f8368c4787a35348,62c5398e54c23d5b03dab9c2,2022-07-06_09h29.03.500,Colour_Asymmetry_Pilot,2022.1.3,Win32,60.07088364,62c50e9c1127f2cd403a315f,,,,,,,,,,,,,,,,,,,,,,,,,,,,,,,,,,,,,,,,,,,,,,,,,,,,,,,,,,,,,,,,,,,,,,,,,,,,,,,,,,,,,,,,,,,,,,,,,,,,,,,,,,,,,,,,,,,,,,,,,,,,,,,,,,,,,,,,,,,,,,,,,,,,,,,,,,,,,,,,,,,
0,54,54,80,1,,616bb057f8368c4787a35348,62c5398e54c23d5b03dab9c2,2022-07-06_09h29.03.500,Colour_Asymmetry_Pilot,2022.1.3,Win32,60.07088364,62c50e9c1127f2cd403a315f,,,,,,,,,,,,,,,,,,,,,,,,,,,,,,,,,,,,,,,,,,,,,,,,,,,,,,,,,,,,,,,,,,,,,,,,,,,,,,,,,,,,,,,,,,,,,,,,,,,,,,,,,,,,,,,,,,,,,,,,,,,,,,,,,,,,,,,,,,,,,,,,,,,,,,,,,,,,,,,,,,,
0,55,55,21,1,,616bb057f8368c4787a35348,62c5398e54c23d5b03dab9c2,2022-07-06_09h29.03.500,Colour_Asymmetry_Pilot,2022.1.3,Win32,60.07088364,62c50e9c1127f2cd403a315f,,,,,,,,,,,,,,,,,,,,,,,,,,,,,,,,,,,,,,,,,,,,,,,,,,,,,,,,,,,,,,,,,,,,,,,,,,,,,,,,,,,,,,,,,,,,,,,,,,,,,,,,,,,,,,,,,,,,,,,,,,,,,,,,,,,,,,,,,,,,,,,,,,,,,,,,,,,,,,,,,,,
0,56,56,85,1,,616bb057f8368c4787a35348,62c5398e54c23d5b03dab9c2,2022-07-06_09h29.03.500,Colour_Asymmetry_Pilot,2022.1.3,Win32,60.07088364,62c50e9c1127f2cd403a315f,,,,,,,,,,,,,,,,,,,,,,,,,,,,,,,,,,,,,,,,,,,,,,,,,,,,,,,,,,,,,,,,,,,,,,,,,,,,,,,,,,,,,,,,,,,,,,,,,,,,,,,,,,,,,,,,,,,,,,,,,,,,,,,,,,,,,,,,,,,,,,,,,,,,,,,,,,,,,,,,,,,
0,57,57,61,1,,616bb057f8368c4787a35348,62c5398e54c23d5b03dab9c2,2022-07-06_09h29.03.500,Colour_Asymmetry_Pilot,2022.1.3,Win32,60.07088364,62c50e9c1127f2cd403a315f,,,,,,,,,,,,,,,,,,,,,,,,,,,,,,,,,,,,,,,,,,,,,,,,,,,,,,,,,,,,,,,,,,,,,,,,,,,,,,,,,,,,,,,,,,,,,,,,,,,,,,,,,,,,,,,,,,,,,,,,,,,,,,,,,,,,,,,,,,,,,,,,,,,,,,,,,,,,,,,,,,,
0,58,58,83,1,,616bb057f8368c4787a35348,62c5398e54c23d5b03dab9c2,2022-07-06_09h29.03.500,Colour_Asymmetry_Pilot,2022.1.3,Win32,60.07088364,62c50e9c1127f2cd403a315f,,,,,,,,,,,,,,,,,,,,,,,,,,,,,,,,,,,,,,,,,,,,,,,,,,,,,,,,,,,,,,,,,,,,,,,,,,,,,,,,,,,,,,,,,,,,,,,,,,,,,,,,,,,,,,,,,,,,,,,,,,,,,,,,,,,,,,,,,,,,,,,,,,,,,,,,,,,,,,,,,,,
0,59,59,51,1,,616bb057f8368c4787a35348,62c5398e54c23d5b03dab9c2,2022-07-06_09h29.03.500,Colour_Asymmetry_Pilot,2022.1.3,Win32,60.07088364,62c50e9c1127f2cd403a315f,,,,,,,,,,,,,,,,,,,,,,,,,,,,,,,,,,,,,,,,,,,,,,,,,,,,,,,,,,,,,,,,,,,,,,,,,,,,,,,,,,,,,,,,,,,,,,,,,,,,,,,,,,,,,,,,,,,,,,,,,,,,,,,,,,,,,,,,,,,,,,,,,,,,,,,,,,,,,,,,,,,
0,60,60,82,1,,616bb057f8368c4787a35348,62c5398e54c23d5b03dab9c2,2022-07-06_09h29.03.500,Colour_Asymmetry_Pilot,2022.1.3,Win32,60.07088364,62c50e9c1127f2cd403a315f,,,,,,,,,,,,,,,,,,,,,,,,,,,,,,,,,,,,,,,,,,,,,,,,,,,,,,,,,,,,,,,,,,,,,,,,,,,,,,,,,,,,,,,,,,,,,,,,,,,,,,,,,,,,,,,,,,,,,,,,,,,,,,,,,,,,,,,,,,,,,,,,,,,,,,,,,,,,,,,,,,,
0,61,61,76,1,,616bb057f8368c4787a35348,62c5398e54c23d5b03dab9c2,2022-07-06_09h29.03.500,Colour_Asymmetry_Pilot,2022.1.3,Win32,60.07088364,62c50e9c1127f2cd403a315f,,,,,,,,,,,,,,,,,,,,,,,,,,,,,,,,,,,,,,,,,,,,,,,,,,,,,,,,,,,,,,,,,,,,,,,,,,,,,,,,,,,,,,,,,,,,,,,,,,,,,,,,,,,,,,,,,,,,,,,,,,,,,,,,,,,,,,,,,,,,,,,,,,,,,,,,,,,,,,,,,,,
0,62,62,47,1,,616bb057f8368c4787a35348,62c5398e54c23d5b03dab9c2,2022-07-06_09h29.03.500,Colour_Asymmetry_Pilot,2022.1.3,Win32,60.07088364,62c50e9c1127f2cd403a315f,,,,,,,,,,,,,,,,,,,,,,,,,,,,,,,,,,,,,,,,,,,,,,,,,,,,,,,,,,,,,,,,,,,,,,,,,,,,,,,,,,,,,,,,,,,,,,,,,,,,,,,,,,,,,,,,,,,,,,,,,,,,,,,,,,,,,,,,,,,,,,,,,,,,,,,,,,,,,,,,,,,
0,63,63,27,1,,616bb057f8368c4787a35348,62c5398e54c23d5b03dab9c2,2022-07-06_09h29.03.500,Colour_Asymmetry_Pilot,2022.1.3,Win32,60.07088364,62c50e9c1127f2cd403a315f,,,,,,,,,,,,,,,,,,,,,,,,,,,,,,,,,,,,,,,,,,,,,,,,,,,,,,,,,,,,,,,,,,,,,,,,,,,,,,,,,,,,,,,,,,,,,,,,,,,,,,,,,,,,,,,,,,,,,,,,,,,,,,,,,,,,,,,,,,,,,,,,,,,,,,,,,,,,,,,,,,,
0,64,64,3,1,,616bb057f8368c4787a35348,62c5398e54c23d5b03dab9c2,2022-07-06_09h29.03.500,Colour_Asymmetry_Pilot,2022.1.3,Win32,60.07088364,62c50e9c1127f2cd403a315f,,,,,,,,,,,,,,,,,,,,,,,,,,,,,,,,,,,,,,,,,,,,,,,,,,,,,,,,,,,,,,,,,,,,,,,,,,,,,,,,,,,,,,,,,,,,,,,,,,,,,,,,,,,,,,,,,,,,,,,,,,,,,,,,,,,,,,,,,,,,,,,,,,,,,,,,,,,,,,,,,,,
0,65,65,60,1,,616bb057f8368c4787a35348,62c5398e54c23d5b03dab9c2,2022-07-06_09h29.03.500,Colour_Asymmetry_Pilot,2022.1.3,Win32,60.07088364,62c50e9c1127f2cd403a315f,,,,,,,,,,,,,,,,,,,,,,,,,,,,,,,,,,,,,,,,,,,,,,,,,,,,,,,,,,,,,,,,,,,,,,,,,,,,,,,,,,,,,,,,,,,,,,,,,,,,,,,,,,,,,,,,,,,,,,,,,,,,,,,,,,,,,,,,,,,,,,,,,,,,,,,,,,,,,,,,,,,
0,66,66,33,1,,616bb057f8368c4787a35348,62c5398e54c23d5b03dab9c2,2022-07-06_09h29.03.500,Colour_Asymmetry_Pilot,2022.1.3,Win32,60.07088364,62c50e9c1127f2cd403a315f,,,,,,,,,,,,,,,,,,,,,,,,,,,,,,,,,,,,,,,,,,,,,,,,,,,,,,,,,,,,,,,,,,,,,,,,,,,,,,,,,,,,,,,,,,,,,,,,,,,,,,,,,,,,,,,,,,,,,,,,,,,,,,,,,,,,,,,,,,,,,,,,,,,,,,,,,,,,,,,,,,,
0,67,67,39,1,,616bb057f8368c4787a35348,62c5398e54c23d5b03dab9c2,2022-07-06_09h29.03.500,Colour_Asymmetry_Pilot,2022.1.3,Win32,60.07088364,62c50e9c1127f2cd403a315f,,,,,,,,,,,,,,,,,,,,,,,,,,,,,,,,,,,,,,,,,,,,,,,,,,,,,,,,,,,,,,,,,,,,,,,,,,,,,,,,,,,,,,,,,,,,,,,,,,,,,,,,,,,,,,,,,,,,,,,,,,,,,,,,,,,,,,,,,,,,,,,,,,,,,,,,,,,,,,,,,,,
0,68,68,89,1,,616bb057f8368c4787a35348,62c5398e54c23d5b03dab9c2,2022-07-06_09h29.03.500,Colour_Asymmetry_Pilot,2022.1.3,Win32,60.07088364,62c50e9c1127f2cd403a315f,,,,,,,,,,,,,,,,,,,,,,,,,,,,,,,,,,,,,,,,,,,,,,,,,,,,,,,,,,,,,,,,,,,,,,,,,,,,,,,,,,,,,,,,,,,,,,,,,,,,,,,,,,,,,,,,,,,,,,,,,,,,,,,,,,,,,,,,,,,,,,,,,,,,,,,,,,,,,,,,,,,
0,69,69,81,1,,616bb057f8368c4787a35348,62c5398e54c23d5b03dab9c2,2022-07-06_09h29.03.500,Colour_Asymmetry_Pilot,2022.1.3,Win32,60.07088364,62c50e9c1127f2cd403a315f,,,,,,,,,,,,,,,,,,,,,,,,,,,,,,,,,,,,,,,,,,,,,,,,,,,,,,,,,,,,,,,,,,,,,,,,,,,,,,,,,,,,,,,,,,,,,,,,,,,,,,,,,,,,,,,,,,,,,,,,,,,,,,,,,,,,,,,,,,,,,,,,,,,,,,,,,,,,,,,,,,,
0,70,70,70,1,,616bb057f8368c4787a35348,62c5398e54c23d5b03dab9c2,2022-07-06_09h29.03.500,Colour_Asymmetry_Pilot,2022.1.3,Win32,60.07088364,62c50e9c1127f2cd403a315f,,,,,,,,,,,,,,,,,,,,,,,,,,,,,,,,,,,,,,,,,,,,,,,,,,,,,,,,,,,,,,,,,,,,,,,,,,,,,,,,,,,,,,,,,,,,,,,,,,,,,,,,,,,,,,,,,,,,,,,,,,,,,,,,,,,,,,,,,,,,,,,,,,,,,,,,,,,,,,,,,,,
0,71,71,67,1,,616bb057f8368c4787a35348,62c5398e54c23d5b03dab9c2,2022-07-06_09h29.03.500,Colour_Asymmetry_Pilot,2022.1.3,Win32,60.07088364,62c50e9c1127f2cd403a315f,,,,,,,,,,,,,,,,,,,,,,,,,,,,,,,,,,,,,,,,,,,,,,,,,,,,,,,,,,,,,,,,,,,,,,,,,,,,,,,,,,,,,,,,,,,,,,,,,,,,,,,,,,,,,,,,,,,,,,,,,,,,,,,,,,,,,,,,,,,,,,,,,,,,,,,,,,,,,,,,,,,
0,72,72,64,1,,616bb057f8368c4787a35348,62c5398e54c23d5b03dab9c2,2022-07-06_09h29.03.500,Colour_Asymmetry_Pilot,2022.1.3,Win32,60.07088364,62c50e9c1127f2cd403a315f,,,,,,,,,,,,,,,,,,,,,,,,,,,,,,,,,,,,,,,,,,,,,,,,,,,,,,,,,,,,,,,,,,,,,,,,,,,,,,,,,,,,,,,,,,,,,,,,,,,,,,,,,,,,,,,,,,,,,,,,,,,,,,,,,,,,,,,,,,,,,,,,,,,,,,,,,,,,,,,,,,,
0,73,73,34,1,,616bb057f8368c4787a35348,62c5398e54c23d5b03dab9c2,2022-07-06_09h29.03.500,Colour_Asymmetry_Pilot,2022.1.3,Win32,60.07088364,62c50e9c1127f2cd403a315f,,,,,,,,,,,,,,,,,,,,,,,,,,,,,,,,,,,,,,,,,,,,,,,,,,,,,,,,,,,,,,,,,,,,,,,,,,,,,,,,,,,,,,,,,,,,,,,,,,,,,,,,,,,,,,,,,,,,,,,,,,,,,,,,,,,,,,,,,,,,,,,,,,,,,,,,,,,,,,,,,,,
0,74,74,12,1,,616bb057f8368c4787a35348,62c5398e54c23d5b03dab9c2,2022-07-06_09h29.03.500,Colour_Asymmetry_Pilot,2022.1.3,Win32,60.07088364,62c50e9c1127f2cd403a315f,,,,,,,,,,,,,,,,,,,,,,,,,,,,,,,,,,,,,,,,,,,,,,,,,,,,,,,,,,,,,,,,,,,,,,,,,,,,,,,,,,,,,,,,,,,,,,,,,,,,,,,,,,,,,,,,,,,,,,,,,,,,,,,,,,,,,,,,,,,,,,,,,,,,,,,,,,,,,,,,,,,
0,75,75,30,1,,616bb057f8368c4787a35348,62c5398e54c23d5b03dab9c2,2022-07-06_09h29.03.500,Colour_Asymmetry_Pilot,2022.1.3,Win32,60.07088364,62c50e9c1127f2cd403a315f,,,,,,,,,,,,,,,,,,,,,,,,,,,,,,,,,,,,,,,,,,,,,,,,,,,,,,,,,,,,,,,,,,,,,,,,,,,,,,,,,,,,,,,,,,,,,,,,,,,,,,,,,,,,,,,,,,,,,,,,,,,,,,,,,,,,,,,,,,,,,,,,,,,,,,,,,,,,,,,,,,,
0,76,76,87,1,,616bb057f8368c4787a35348,62c5398e54c23d5b03dab9c2,2022-07-06_09h29.03.500,Colour_Asymmetry_Pilot,2022.1.3,Win32,60.07088364,62c50e9c1127f2cd403a315f,,,,,,,,,,,,,,,,,,,,,,,,,,,,,,,,,,,,,,,,,,,,,,,,,,,,,,,,,,,,,,,,,,,,,,,,,,,,,,,,,,,,,,,,,,,,,,,,,,,,,,,,,,,,,,,,,,,,,,,,,,,,,,,,,,,,,,,,,,,,,,,,,,,,,,,,,,,,,,,,,,,
0,77,77,35,1,,616bb057f8368c4787a35348,62c5398e54c23d5b03dab9c2,2022-07-06_09h29.03.500,Colour_Asymmetry_Pilot,2022.1.3,Win32,60.07088364,62c50e9c1127f2cd403a315f,,,,,,,,,,,,,,,,,,,,,,,,,,,,,,,,,,,,,,,,,,,,,,,,,,,,,,,,,,,,,,,,,,,,,,,,,,,,,,,,,,,,,,,,,,,,,,,,,,,,,,,,,,,,,,,,,,,,,,,,,,,,,,,,,,,,,,,,,,,,,,,,,,,,,,,,,,,,,,,,,,,
0,78,78,5,1,,616bb057f8368c4787a35348,62c5398e54c23d5b03dab9c2,2022-07-06_09h29.03.500,Colour_Asymmetry_Pilot,2022.1.3,Win32,60.07088364,62c50e9c1127f2cd403a315f,,,,,,,,,,,,,,,,,,,,,,,,,,,,,,,,,,,,,,,,,,,,,,,,,,,,,,,,,,,,,,,,,,,,,,,,,,,,,,,,,,,,,,,,,,,,,,,,,,,,,,,,,,,,,,,,,,,,,,,,,,,,,,,,,,,,,,,,,,,,,,,,,,,,,,,,,,,,,,,,,,,
0,79,79,23,1,,616bb057f8368c4787a35348,62c5398e54c23d5b03dab9c2,2022-07-06_09h29.03.500,Colour_Asymmetry_Pilot,2022.1.3,Win32,60.07088364,62c50e9c1127f2cd403a315f,,,,,,,,,,,,,,,,,,,,,,,,,,,,,,,,,,,,,,,,,,,,,,,,,,,,,,,,,,,,,,,,,,,,,,,,,,,,,,,,,,,,,,,,,,,,,,,,,,,,,,,,,,,,,,,,,,,,,,,,,,,,,,,,,,,,,,,,,,,,,,,,,,,,,,,,,,,,,,,,,,,
0,80,80,41,1,,616bb057f8368c4787a35348,62c5398e54c23d5b03dab9c2,2022-07-06_09h29.03.500,Colour_Asymmetry_Pilot,2022.1.3,Win32,60.07088364,62c50e9c1127f2cd403a315f,,,,,,,,,,,,,,,,,,,,,,,,,,,,,,,,,,,,,,,,,,,,,,,,,,,,,,,,,,,,,,,,,,,,,,,,,,,,,,,,,,,,,,,,,,,,,,,,,,,,,,,,,,,,,,,,,,,,,,,,,,,,,,,,,,,,,,,,,,,,,,,,,,,,,,,,,,,,,,,,,,,
0,81,81,63,1,,616bb057f8368c4787a35348,62c5398e54c23d5b03dab9c2,2022-07-06_09h29.03.500,Colour_Asymmetry_Pilot,2022.1.3,Win32,60.07088364,62c50e9c1127f2cd403a315f,,,,,,,,,,,,,,,,,,,,,,,,,,,,,,,,,,,,,,,,,,,,,,,,,,,,,,,,,,,,,,,,,,,,,,,,,,,,,,,,,,,,,,,,,,,,,,,,,,,,,,,,,,,,,,,,,,,,,,,,,,,,,,,,,,,,,,,,,,,,,,,,,,,,,,,,,,,,,,,,,,,
0,82,82,25,1,,616bb057f8368c4787a35348,62c5398e54c23d5b03dab9c2,2022-07-06_09h29.03.500,Colour_Asymmetry_Pilot,2022.1.3,Win32,60.07088364,62c50e9c1127f2cd403a315f,,,,,,,,,,,,,,,,,,,,,,,,,,,,,,,,,,,,,,,,,,,,,,,,,,,,,,,,,,,,,,,,,,,,,,,,,,,,,,,,,,,,,,,,,,,,,,,,,,,,,,,,,,,,,,,,,,,,,,,,,,,,,,,,,,,,,,,,,,,,,,,,,,,,,,,,,,,,,,,,,,,
0,83,83,48,1,,616bb057f8368c4787a35348,62c5398e54c23d5b03dab9c2,2022-07-06_09h29.03.500,Colour_Asymmetry_Pilot,2022.1.3,Win32,60.07088364,62c50e9c1127f2cd403a315f,,,,,,,,,,,,,,,,,,,,,,,,,,,,,,,,,,,,,,,,,,,,,,,,,,,,,,,,,,,,,,,,,,,,,,,,,,,,,,,,,,,,,,,,,,,,,,,,,,,,,,,,,,,,,,,,,,,,,,,,,,,,,,,,,,,,,,,,,,,,,,,,,,,,,,,,,,,,,,,,,,,
0,84,84,66,1,,616bb057f8368c4787a35348,62c5398e54c23d5b03dab9c2,2022-07-06_09h29.03.500,Colour_Asymmetry_Pilot,2022.1.3,Win32,60.07088364,62c50e9c1127f2cd403a315f,,,,,,,,,,,,,,,,,,,,,,,,,,,,,,,,,,,,,,,,,,,,,,,,,,,,,,,,,,,,,,,,,,,,,,,,,,,,,,,,,,,,,,,,,,,,,,,,,,,,,,,,,,,,,,,,,,,,,,,,,,,,,,,,,,,,,,,,,,,,,,,,,,,,,,,,,,,,,,,,,,,
0,85,85,6,1,,616bb057f8368c4787a35348,62c5398e54c23d5b03dab9c2,2022-07-06_09h29.03.500,Colour_Asymmetry_Pilot,2022.1.3,Win32,60.07088364,62c50e9c1127f2cd403a315f,,,,,,,,,,,,,,,,,,,,,,,,,,,,,,,,,,,,,,,,,,,,,,,,,,,,,,,,,,,,,,,,,,,,,,,,,,,,,,,,,,,,,,,,,,,,,,,,,,,,,,,,,,,,,,,,,,,,,,,,,,,,,,,,,,,,,,,,,,,,,,,,,,,,,,,,,,,,,,,,,,,
0,86,86,74,1,,616bb057f8368c4787a35348,62c5398e54c23d5b03dab9c2,2022-07-06_09h29.03.500,Colour_Asymmetry_Pilot,2022.1.3,Win32,60.07088364,62c50e9c1127f2cd403a315f,,,,,,,,,,,,,,,,,,,,,,,,,,,,,,,,,,,,,,,,,,,,,,,,,,,,,,,,,,,,,,,,,,,,,,,,,,,,,,,,,,,,,,,,,,,,,,,,,,,,,,,,,,,,,,,,,,,,,,,,,,,,,,,,,,,,,,,,,,,,,,,,,,,,,,,,,,,,,,,,,,,
0,87,87,59,1,,616bb057f8368c4787a35348,62c5398e54c23d5b03dab9c2,2022-07-06_09h29.03.500,Colour_Asymmetry_Pilot,2022.1.3,Win32,60.07088364,62c50e9c1127f2cd403a315f,,,,,,,,,,,,,,,,,,,,,,,,,,,,,,,,,,,,,,,,,,,,,,,,,,,,,,,,,,,,,,,,,,,,,,,,,,,,,,,,,,,,,,,,,,,,,,,,,,,,,,,,,,,,,,,,,,,,,,,,,,,,,,,,,,,,,,,,,,,,,,,,,,,,,,,,,,,,,,,,,,,
0,88,88,68,1,,616bb057f8368c4787a35348,62c5398e54c23d5b03dab9c2,2022-07-06_09h29.03.500,Colour_Asymmetry_Pilot,2022.1.3,Win32,60.07088364,62c50e9c1127f2cd403a315f,,,,,,,,,,,,,,,,,,,,,,,,,,,,,,,,,,,,,,,,,,,,,,,,,,,,,,,,,,,,,,,,,,,,,,,,,,,,,,,,,,,,,,,,,,,,,,,,,,,,,,,,,,,,,,,,,,,,,,,,,,,,,,,,,,,,,,,,,,,,,,,,,,,,,,,,,,,,,,,,,,,
0,89,89,49,1,,616bb057f8368c4787a35348,62c5398e54c23d5b03dab9c2,2022-07-06_09h29.03.500,Colour_Asymmetry_Pilot,2022.1.3,Win32,60.07088364,62c50e9c1127f2cd403a315f,,,,,,,,,,,,,,,,,,,,,,,,,,,,,,,,,,,,,,,,,,,,,,,,,,,,,,,,,,,,,,,,,,,,,,,,,,,,,,,,,,,,,,,,,,,,,,,,,,,,,,,,,,,,,,,,,,,,,,,,,,,,,,,,,,,,,,,,,,,,,,,,,,,,,,,,,,,,,,,,,,,
0,90,90,42,1,,616bb057f8368c4787a35348,62c5398e54c23d5b03dab9c2,2022-07-06_09h29.03.500,Colour_Asymmetry_Pilot,2022.1.3,Win32,60.07088364,62c50e9c1127f2cd403a315f,,,,,,,,,,,,,,,,,,,,,,,,,,,,,,,,,,,,,,,,,,,,,,,,,,,,,,,,,,,,,,,,,,,,,,,,,,,,,,,,,,,,,,,,,,,,,,,,,,,,,,,,,,,,,,,,,,,,,,,,,,,,,,,,,,,,,,,,,,,,,,,,,,,,,,,,,,,,,,,,,,,
0,91,91,20,1,,616bb057f8368c4787a35348,62c5398e54c23d5b03dab9c2,2022-07-06_09h29.03.500,Colour_Asymmetry_Pilot,2022.1.3,Win32,60.07088364,62c50e9c1127f2cd403a315f,,,,,,,,,,,,,,,,,,,,,,,,,,,,,,,,,,,,,,,,,,,,,,,,,,,,,,,,,,,,,,,,,,,,,,,,,,,,,,,,,,,,,,,,,,,,,,,,,,,,,,,,,,,,,,,,,,,,,,,,,,,,,,,,,,,,,,,,,,,,,,,,,,,,,,,,,,,,,,,,,,,
0,92,92,46,1,,616bb057f8368c4787a35348,62c5398e54c23d5b03dab9c2,2022-07-06_09h29.03.500,Colour_Asymmetry_Pilot,2022.1.3,Win32,60.07088364,62c50e9c1127f2cd403a315f,,,,,,,,,,,,,,,,,,,,,,,,,,,,,,,,,,,,,,,,,,,,,,,,,,,,,,,,,,,,,,,,,,,,,,,,,,,,,,,,,,,,,,,,,,,,,,,,,,,,,,,,,,,,,,,,,,,,,,,,,,,,,,,,,,,,,,,,,,,,,,,,,,,,,,,,,,,,,,,,,,,
,,,,,,616bb057f8368c4787a35348,62c5398e54c23d5b03dab9c2,2022-07-06_09h29.03.500,Colour_Asymmetry_Pilot,2022.1.3,Win32,60.07088364,62c50e9c1127f2cd403a315f,0,0,0,40,1,onetwo,,,,,,,,,,,,,,,,,,,,,,,,,,,,,,,,,,,,,,,,,,,,,,,,,,,,,,,,,,,,,,,,,,,,,,,,,,,,,,,,,,,,,,,,,,,,,,,,,,,,,,,,,,,,,,,,,,,,,,,,,,,,,,,,,,,,,,,,,,,,,,,,,,,,,,,,,,,,,
,,,,,,616bb057f8368c4787a35348,62c5398e54c23d5b03dab9c2,2022-07-06_09h29.03.500,Colour_Asymmetry_Pilot,2022.1.3,Win32,60.07088364,62c50e9c1127f2cd403a315f,0,1,1,61,1,threefour,,,,,,,,,,,,,,,,,,,,,,,,,,,,,,,,,,,,,,,,,,,,,,,,,,,,,,,,,,,,,,,,,,,,,,,,,,,,,,,,,,,,,,,,,,,,,,,,,,,,,,,,,,,,,,,,,,,,,,,,,,,,,,,,,,,,,,,,,,,,,,,,,,,,,,,,,,,,,
,,,,,,616bb057f8368c4787a35348,62c5398e54c23d5b03dab9c2,2022-07-06_09h29.03.500,Colour_Asymmetry_Pilot,2022.1.3,Win32,60.07088364,62c50e9c1127f2cd403a315f,0,2,2,24,1,onetwo,,,,,,,,,,,,,,,,,,,,,,,,,,,,,,,,,,,,,,,,,,,,,,,,,,,,,,,,,,,,,,,,,,,,,,,,,,,,,,,,,,,,,,,,,,,,,,,,,,,,,,,,,,,,,,,,,,,,,,,,,,,,,,,,,,,,,,,,,,,,,,,,,,,,,,,,,,,,,
,,,,,,616bb057f8368c4787a35348,62c5398e54c23d5b03dab9c2,2022-07-06_09h29.03.500,Colour_Asymmetry_Pilot,2022.1.3,Win32,60.07088364,62c50e9c1127f2cd403a315f,0,3,3,98,1,twoone,,,,,,,,,,,,,,,,,,,,,,,,,,,,,,,,,,,,,,,,,,,,,,,,,,,,,,,,,,,,,,,,,,,,,,,,,,,,,,,,,,,,,,,,,,,,,,,,,,,,,,,,,,,,,,,,,,,,,,,,,,,,,,,,,,,,,,,,,,,,,,,,,,,,,,,,,,,,,
,,,,,,616bb057f8368c4787a35348,62c5398e54c23d5b03dab9c2,2022-07-06_09h29.03.500,Colour_Asymmetry_Pilot,2022.1.3,Win32,60.07088364,62c50e9c1127f2cd403a315f,0,4,4,112,1,onetwo,,,,,,,,,,,,,,,,,,,,,,,,,,,,,,,,,,,,,,,,,,,,,,,,,,,,,,,,,,,,,,,,,,,,,,,,,,,,,,,,,,,,,,,,,,,,,,,,,,,,,,,,,,,,,,,,,,,,,,,,,,,,,,,,,,,,,,,,,,,,,,,,,,,,,,,,,,,,,
,,,,,,616bb057f8368c4787a35348,62c5398e54c23d5b03dab9c2,2022-07-06_09h29.03.500,Colour_Asymmetry_Pilot,2022.1.3,Win32,60.07088364,62c50e9c1127f2cd403a315f,0,5,5,103,1,fourthree,,,,,,,,,,,,,,,,,,,,,,,,,,,,,,,,,,,,,,,,,,,,,,,,,,,,,,,,,,,,,,,,,,,,,,,,,,,,,,,,,,,,,,,,,,,,,,,,,,,,,,,,,,,,,,,,,,,,,,,,,,,,,,,,,,,,,,,,,,,,,,,,,,,,,,,,,,,,,
,,,,,,616bb057f8368c4787a35348,62c5398e54c23d5b03dab9c2,2022-07-06_09h29.03.500,Colour_Asymmetry_Pilot,2022.1.3,Win32,60.07088364,62c50e9c1127f2cd403a315f,0,6,6,66,1,twoone,,,,,,,,,,,,,,,,,,,,,,,,,,,,,,,,,,,,,,,,,,,,,,,,,,,,,,,,,,,,,,,,,,,,,,,,,,,,,,,,,,,,,,,,,,,,,,,,,,,,,,,,,,,,,,,,,,,,,,,,,,,,,,,,,,,,,,,,,,,,,,,,,,,,,,,,,,,,,
,,,,,,616bb057f8368c4787a35348,62c5398e54c23d5b03dab9c2,2022-07-06_09h29.03.500,Colour_Asymmetry_Pilot,2022.1.3,Win32,60.07088364,62c50e9c1127f2cd403a315f,0,7,7,41,1,onethree,,,,,,,,,,,,,,,,,,,,,,,,,,,,,,,,,,,,,,,,,,,,,,,,,,,,,,,,,,,,,,,,,,,,,,,,,,,,,,,,,,,,,,,,,,,,,,,,,,,,,,,,,,,,,,,,,,,,,,,,,,,,,,,,,,,,,,,,,,,,,,,,,,,,,,,,,,,,,
,,,,,,616bb057f8368c4787a35348,62c5398e54c23d5b03dab9c2,2022-07-06_09h29.03.500,Colour_Asymmetry_Pilot,2022.1.3,Win32,60.07088364,62c50e9c1127f2cd403a315f,0,8,8,8,1,onetwo,,,,,,,,,,,,,,,,,,,,,,,,,,,,,,,,,,,,,,,,,,,,,,,,,,,,,,,,,,,,,,,,,,,,,,,,,,,,,,,,,,,,,,,,,,,,,,,,,,,,,,,,,,,,,,,,,,,,,,,,,,,,,,,,,,,,,,,,,,,,,,,,,,,,,,,,,,,,,
,,,,,,616bb057f8368c4787a35348,62c5398e54c23d5b03dab9c2,2022-07-06_09h29.03.500,Colour_Asymmetry_Pilot,2022.1.3,Win32,60.07088364,62c50e9c1127f2cd403a315f,0,9,9,105,1,onethree,,,,,,,,,,,,,,,,,,,,,,,,,,,,,,,,,,,,,,,,,,,,,,,,,,,,,,,,,,,,,,,,,,,,,,,,,,,,,,,,,,,,,,,,,,,,,,,,,,,,,,,,,,,,,,,,,,,,,,,,,,,,,,,,,,,,,,,,,,,,,,,,,,,,,,,,,,,,,
,,,,,,616bb057f8368c4787a35348,62c5398e54c23d5b03dab9c2,2022-07-06_09h29.03.500,Colour_Asymmetry_Pilot,2022.1.3,Win32,60.07088364,62c50e9c1127f2cd403a315f,0,10,10,30,1,fourtwo,,,,,,,,,,,,,,,,,,,,,,,,,,,,,,,,,,,,,,,,,,,,,,,,,,,,,,,,,,,,,,,,,,,,,,,,,,,,,,,,,,,,,,,,,,,,,,,,,,,,,,,,,,,,,,,,,,,,,,,,,,,,,,,,,,,,,,,,,,,,,,,,,,,,,,,,,,,,,
,,,,,,616bb057f8368c4787a35348,62c5398e54c23d5b03dab9c2,2022-07-06_09h29.03.500,Colour_Asymmetry_Pilot,2022.1.3,Win32,60.07088364,62c50e9c1127f2cd403a315f,0,11,11,4,1,threeone,,,,,,,,,,,,,,,,,,,,,,,,,,,,,,,,,,,,,,,,,,,,,,,,,,,,,,,,,,,,,,,,,,,,,,,,,,,,,,,,,,,,,,,,,,,,,,,,,,,,,,,,,,,,,,,,,,,,,,,,,,,,,,,,,,,,,,,,,,,,,,,,,,,,,,,,,,,,,
,,,,,,616bb057f8368c4787a35348,62c5398e54c23d5b03dab9c2,2022-07-06_09h29.03.500,Colour_Asymmetry_Pilot,2022.1.3,Win32,60.07088364,62c50e9c1127f2cd403a315f,0,12,12,68,1,threeone,,,,,,,,,,,,,,,,,,,,,,,,,,,,,,,,,,,,,,,,,,,,,,,,,,,,,,,,,,,,,,,,,,,,,,,,,,,,,,,,,,,,,,,,,,,,,,,,,,,,,,,,,,,,,,,,,,,,,,,,,,,,,,,,,,,,,,,,,,,,,,,,,,,,,,,,,,,,,
,,,,,,616bb057f8368c4787a35348,62c5398e54c23d5b03dab9c2,2022-07-06_09h29.03.500,Colour_Asymmetry_Pilot,2022.1.3,Win32,60.07088364,62c50e9c1127f2cd403a315f,0,13,13,13,1,threefour,,,,,,,,,,,,,,,,,,,,,,,,,,,,,,,,,,,,,,,,,,,,,,,,,,,,,,,,,,,,,,,,,,,,,,,,,,,,,,,,,,,,,,,,,,,,,,,,,,,,,,,,,,,,,,,,,,,,,,,,,,,,,,,,,,,,,,,,,,,,,,,,,,,,,,,,,,,,,
,,,,,,616bb057f8368c4787a35348,62c5398e54c23d5b03dab9c2,2022-07-06_09h29.03.500,Colour_Asymmetry_Pilot,2022.1.3,Win32,60.07088364,62c50e9c1127f2cd403a315f,0,14,14,60,1,threeone,,,,,,,,,,,,,,,,,,,,,,,,,,,,,,,,,,,,,,,,,,,,,,,,,,,,,,,,,,,,,,,,,,,,,,,,,,,,,,,,,,,,,,,,,,,,,,,,,,,,,,,,,,,,,,,,,,,,,,,,,,,,,,,,,,,,,,,,,,,,,,,,,,,,,,,,,,,,,
,,,,,,616bb057f8368c4787a35348,62c5398e54c23d5b03dab9c2,2022-07-06_09h29.03.500,Colour_Asymmetry_Pilot,2022.1.3,Win32,60.07088364,62c50e9c1127f2cd403a315f,0,15,15,86,1,fourtwo,,,,,,,,,,,,,,,,,,,,,,,,,,,,,,,,,,,,,,,,,,,,,,,,,,,,,,,,,,,,,,,,,,,,,,,,,,,,,,,,,,,,,,,,,,,,,,,,,,,,,,,,,,,,,,,,,,,,,,,,,,,,,,,,,,,,,,,,,,,,,,,,,,,,,,,,,,,,,
,,,,,,616bb057f8368c4787a35348,62c5398e54c23d5b03dab9c2,2022-07-06_09h29.03.500,Colour_Asymmetry_Pilot,2022.1.3,Win32,60.07088364,62c50e9c1127f2cd403a315f,0,16,16,2,1,twoone,,,,,,,,,,,,,,,,,,,,,,,,,,,,,,,,,,,,,,,,,,,,,,,,,,,,,,,,,,,,,,,,,,,,,,,,,,,,,,,,,,,,,,,,,,,,,,,,,,,,,,,,,,,,,,,,,,,,,,,,,,,,,,,,,,,,,,,,,,,,,,,,,,,,,,,,,,,,,
,,,,,,616bb057f8368c4787a35348,62c5398e54c23d5b03dab9c2,2022-07-06_09h29.03.500,Colour_Asymmetry_Pilot,2022.1.3,Win32,60.07088364,62c50e9c1127f2cd403a315f,0,17,17,78,1,fourtwo,,,,,,,,,,,,,,,,,,,,,,,,,,,,,,,,,,,,,,,,,,,,,,,,,,,,,,,,,,,,,,,,,,,,,,,,,,,,,,,,,,,,,,,,,,,,,,,,,,,,,,,,,,,,,,,,,,,,,,,,,,,,,,,,,,,,,,,,,,,,,,,,,,,,,,,,,,,,,
,,,,,,616bb057f8368c4787a35348,62c5398e54c23d5b03dab9c2,2022-07-06_09h29.03.500,Colour_Asymmetry_Pilot,2022.1.3,Win32,60.07088364,62c50e9c1127f2cd403a315f,0,18,18,69,1,threefour,,,,,,,,,,,,,,,,,,,,,,,,,,,,,,,,,,,,,,,,,,,,,,,,,,,,,,,,,,,,,,,,,,,,,,,,,,,,,,,,,,,,,,,,,,,,,,,,,,,,,,,,,,,,,,,,,,,,,,,,,,,,,,,,,,,,,,,,,,,,,,,,,,,,,,,,,,,,,
,,,,,,616bb057f8368c4787a35348,62c5398e54c23d5b03dab9c2,2022-07-06_09h29.03.500,Colour_Asymmetry_Pilot,2022.1.3,Win32,60.07088364,62c50e9c1127f2cd403a315f,0,19,19,104,1,onetwo,,,,,,,,,,,,,,,,,,,,,,,,,,,,,,,,,,,,,,,,,,,,,,,,,,,,,,,,,,,,,,,,,,,,,,,,,,,,,,,,,,,,,,,,,,,,,,,,,,,,,,,,,,,,,,,,,,,,,,,,,,,,,,,,,,,,,,,,,,,,,,,,,,,,,,,,,,,,,
,,,,,,616bb057f8368c4787a35348,62c5398e54c23d5b03dab9c2,2022-07-06_09h29.03.500,Colour_Asymmetry_Pilot,2022.1.3,Win32,60.07088364,62c50e9c1127f2cd403a315f,0,20,20,91,1,twofour,,,,,,,,,,,,,,,,,,,,,,,,,,,,,,,,,,,,,,,,,,,,,,,,,,,,,,,,,,,,,,,,,,,,,,,,,,,,,,,,,,,,,,,,,,,,,,,,,,,,,,,,,,,,,,,,,,,,,,,,,,,,,,,,,,,,,,,,,,,,,,,,,,,,,,,,,,,,,
,,,,,,616bb057f8368c4787a35348,62c5398e54c23d5b03dab9c2,2022-07-06_09h29.03.500,Colour_Asymmetry_Pilot,2022.1.3,Win32,60.07088364,62c50e9c1127f2cd403a315f,0,21,21,71,1,fourthree,,,,,,,,,,,,,,,,,,,,,,,,,,,,,,,,,,,,,,,,,,,,,,,,,,,,,,,,,,,,,,,,,,,,,,,,,,,,,,,,,,,,,,,,,,,,,,,,,,,,,,,,,,,,,,,,,,,,,,,,,,,,,,,,,,,,,,,,,,,,,,,,,,,,,,,,,,,,,
,,,,,,616bb057f8368c4787a35348,62c5398e54c23d5b03dab9c2,2022-07-06_09h29.03.500,Colour_Asymmetry_Pilot,2022.1.3,Win32,60.07088364,62c50e9c1127f2cd403a315f,0,22,22,161,1,onethree,,,,,,,,,,,,,,,,,,,,,,,,,,,,,,,,,,,,,,,,,,,,,,,,,,,,,,,,,,,,,,,,,,,,,,,,,,,,,,,,,,,,,,,,,,,,,,,,,,,,,,,,,,,,,,,,,,,,,,,,,,,,,,,,,,,,,,,,,,,,,,,,,,,,,,,,,,,,,
,,,,,,616bb057f8368c4787a35348,62c5398e54c23d5b03dab9c2,2022-07-06_09h29.03.500,Colour_Asymmetry_Pilot,2022.1.3,Win32,60.07088364,62c50e9c1127f2cd403a315f,0,23,23,38,1,fourtwo,,,,,,,,,,,,,,,,,,,,,,,,,,,,,,,,,,,,,,,,,,,,,,,,,,,,,,,,,,,,,,,,,,,,,,,,,,,,,,,,,,,,,,,,,,,,,,,,,,,,,,,,,,,,,,,,,,,,,,,,,,,,,,,,,,,,,,,,,,,,,,,,,,,,,,,,,,,,,
,,,,,,616bb057f8368c4787a35348,62c5398e54c23d5b03dab9c2,2022-07-06_09h29.03.500,Colour_Asymmetry_Pilot,2022.1.3,Win32,60.07088364,62c50e9c1127f2cd403a315f,0,24,24,1,1,onethree,,,,,,,,,,,,,,,,,,,,,,,,,,,,,,,,,,,,,,,,,,,,,,,,,,,,,,,,,,,,,,,,,,,,,,,,,,,,,,,,,,,,,,,,,,,,,,,,,,,,,,,,,,,,,,,,,,,,,,,,,,,,,,,,,,,,,,,,,,,,,,,,,,,,,,,,,,,,,
,,,,,,616bb057f8368c4787a35348,62c5398e54c23d5b03dab9c2,2022-07-06_09h29.03.500,Colour_Asymmetry_Pilot,2022.1.3,Win32,60.07088364,62c50e9c1127f2cd403a315f,0,25,25,121,1,onethree,,,,,,,,,,,,,,,,,,,,,,,,,,,,,,,,,,,,,,,,,,,,,,,,,,,,,,,,,,,,,,,,,,,,,,,,,,,,,,,,,,,,,,,,,,,,,,,,,,,,,,,,,,,,,,,,,,,,,,,,,,,,,,,,,,,,,,,,,,,,,,,,,,,,,,,,,,,,,
,,,,,,616bb057f8368c4787a35348,62c5398e54c23d5b03dab9c2,2022-07-06_09h29.03.500,Colour_Asymmetry_Pilot,2022.1.3,Win32,60.07088364,62c50e9c1127f2cd403a315f,0,26,26,29,1,threefour,,,,,,,,,,,,,,,,,,,,,,,,,,,,,,,,,,,,,,,,,,,,,,,,,,,,,,,,,,,,,,,,,,,,,,,,,,,,,,,,,,,,,,,,,,,,,,,,,,,,,,,,,,,,,,,,,,,,,,,,,,,,,,,,,,,,,,,,,,,,,,,,,,,,,,,,,,,,,
,,,,,,616bb057f8368c4787a35348,62c5398e54c23d5b03dab9c2,2022-07-06_09h29.03.500,Colour_Asymmetry_Pilot,2022.1.3,Win32,60.07088364,62c50e9c1127f2cd403a315f,0,27,27,73,1,onethree,,,,,,,,,,,,,,,,,,,,,,,,,,,,,,,,,,,,,,,,,,,,,,,,,,,,,,,,,,,,,,,,,,,,,,,,,,,,,,,,,,,,,,,,,,,,,,,,,,,,,,,,,,,,,,,,,,,,,,,,,,,,,,,,,,,,,,,,,,,,,,,,,,,,,,,,,,,,,
,,,,,,616bb057f8368c4787a35348,62c5398e54c23d5b03dab9c2,2022-07-06_09h29.03.500,Colour_Asymmetry_Pilot,2022.1.3,Win32,60.07088364,62c50e9c1127f2cd403a315f,0,28,28,21,1,threefour,,,,,,,,,,,,,,,,,,,,,,,,,,,,,,,,,,,,,,,,,,,,,,,,,,,,,,,,,,,,,,,,,,,,,,,,,,,,,,,,,,,,,,,,,,,,,,,,,,,,,,,,,,,,,,,,,,,,,,,,,,,,,,,,,,,,,,,,,,,,,,,,,,,,,,,,,,,,,
,,,,,,616bb057f8368c4787a35348,62c5398e54c23d5b03dab9c2,2022-07-06_09h29.03.500,Colour_Asymmetry_Pilot,2022.1.3,Win32,60.07088364,62c50e9c1127f2cd403a315f,0,29,29,149,1,threefour,,,,,,,,,,,,,,,,,,,,,,,,,,,,,,,,,,,,,,,,,,,,,,,,,,,,,,,,,,,,,,,,,,,,,,,,,,,,,,,,,,,,,,,,,,,,,,,,,,,,,,,,,,,,,,,,,,,,,,,,,,,,,,,,,,,,,,,,,,,,,,,,,,,,,,,,,,,,,
,,,,,,616bb057f8368c4787a35348,62c5398e54c23d5b03dab9c2,2022-07-06_09h29.03.500,Colour_Asymmetry_Pilot,2022.1.3,Win32,60.07088364,62c50e9c1127f2cd403a315f,0,30,30,113,1,onethree,,,,,,,,,,,,,,,,,,,,,,,,,,,,,,,,,,,,,,,,,,,,,,,,,,,,,,,,,,,,,,,,,,,,,,,,,,,,,,,,,,,,,,,,,,,,,,,,,,,,,,,,,,,,,,,,,,,,,,,,,,,,,,,,,,,,,,,,,,,,,,,,,,,,,,,,,,,,,
,,,,,,616bb057f8368c4787a35348,62c5398e54c23d5b03dab9c2,2022-07-06_09h29.03.500,Colour_Asymmetry_Pilot,2022.1.3,Win32,60.07088364,62c50e9c1127f2cd403a315f,0,31,31,131,1,twofour,,,,,,,,,,,,,,,,,,,,,,,,,,,,,,,,,,,,,,,,,,,,,,,,,,,,,,,,,,,,,,,,,,,,,,,,,,,,,,,,,,,,,,,,,,,,,,,,,,,,,,,,,,,,,,,,,,,,,,,,,,,,,,,,,,,,,,,,,,,,,,,,,,,,,,,,,,,,,
,,,,,,616bb057f8368c4787a35348,62c5398e54c23d5b03dab9c2,2022-07-06_09h29.03.500,Colour_Asymmetry_Pilot,2022.1.3,Win32,60.07088364,62c50e9c1127f2cd403a315f,0,32,32,5,1,threefour,,,,,,,,,,,,,,,,,,,,,,,,,,,,,,,,,,,,,,,,,,,,,,,,,,,,,,,,,,,,,,,,,,,,,,,,,,,,,,,,,,,,,,,,,,,,,,,,,,,,,,,,,,,,,,,,,,,,,,,,,,,,,,,,,,,,,,,,,,,,,,,,,,,,,,,,,,,,,
,,,,,,616bb057f8368c4787a35348,62c5398e54c23d5b03dab9c2,2022-07-06_09h29.03.500,Colour_Asymmetry_Pilot,2022.1.3,Win32,60.07088364,62c50e9c1127f2cd403a315f,0,33,33,16,1,onetwo,,,,,,,,,,,,,,,,,,,,,,,,,,,,,,,,,,,,,,,,,,,,,,,,,,,,,,,,,,,,,,,,,,,,,,,,,,,,,,,,,,,,,,,,,,,,,,,,,,,,,,,,,,,,,,,,,,,,,,,,,,,,,,,,,,,,,,,,,,,,,,,,,,,,,,,,,,,,,
,,,,,,616bb057f8368c4787a35348,62c5398e54c23d5b03dab9c2,2022-07-06_09h29.03.500,Colour_Asymmetry_Pilot,2022.1.3,Win32,60.07088364,62c50e9c1127f2cd403a315f,0,34,34,11,1,twofour,,,,,,,,,,,,,,,,,,,,,,,,,,,,,,,,,,,,,,,,,,,,,,,,,,,,,,,,,,,,,,,,,,,,,,,,,,,,,,,,,,,,,,,,,,,,,,,,,,,,,,,,,,,,,,,,,,,,,,,,,,,,,,,,,,,,,,,,,,,,,,,,,,,,,,,,,,,,,
,,,,,,616bb057f8368c4787a35348,62c5398e54c23d5b03dab9c2,2022-07-06_09h29.03.500,Colour_Asymmetry_Pilot,2022.1.3,Win32,60.07088364,62c50e9c1127f2cd403a315f,0,35,35,154,1,twoone,,,,,,,,,,,,,,,,,,,,,,,,,,,,,,,,,,,,,,,,,,,,,,,,,,,,,,,,,,,,,,,,,,,,,,,,,,,,,,,,,,,,,,,,,,,,,,,,,,,,,,,,,,,,,,,,,,,,,,,,,,,,,,,,,,,,,,,,,,,,,,,,,,,,,,,,,,,,,
,,,,,,616bb057f8368c4787a35348,62c5398e54c23d5b03dab9c2,2022-07-06_09h29.03.500,Colour_Asymmetry_Pilot,2022.1.3,Win32,60.07088364,62c50e9c1127f2cd403a315f,0,36,36,77,1,threefour,,,,,,,,,,,,,,,,,,,,,,,,,,,,,,,,,,,,,,,,,,,,,,,,,,,,,,,,,,,,,,,,,,,,,,,,,,,,,,,,,,,,,,,,,,,,,,,,,,,,,,,,,,,,,,,,,,,,,,,,,,,,,,,,,,,,,,,,,,,,,,,,,,,,,,,,,,,,,
,,,,,,616bb057f8368c4787a35348,62c5398e54c23d5b03dab9c2,2022-07-06_09h29.03.500,Colour_Asymmetry_Pilot,2022.1.3,Win32,60.07088364,62c50e9c1127f2cd403a315f,0,37,37,33,1,onethree,,,,,,,,,,,,,,,,,,,,,,,,,,,,,,,,,,,,,,,,,,,,,,,,,,,,,,,,,,,,,,,,,,,,,,,,,,,,,,,,,,,,,,,,,,,,,,,,,,,,,,,,,,,,,,,,,,,,,,,,,,,,,,,,,,,,,,,,,,,,,,,,,,,,,,,,,,,,,
,,,,,,616bb057f8368c4787a35348,62c5398e54c23d5b03dab9c2,2022-07-06_09h29.03.500,Colour_Asymmetry_Pilot,2022.1.3,Win32,60.07088364,62c50e9c1127f2cd403a315f,0,38,38,132,1,threeone,,,,,,,,,,,,,,,,,,,,,,,,,,,,,,,,,,,,,,,,,,,,,,,,,,,,,,,,,,,,,,,,,,,,,,,,,,,,,,,,,,,,,,,,,,,,,,,,,,,,,,,,,,,,,,,,,,,,,,,,,,,,,,,,,,,,,,,,,,,,,,,,,,,,,,,,,,,,,
,,,,,,616bb057f8368c4787a35348,62c5398e54c23d5b03dab9c2,2022-07-06_09h29.03.500,Colour_Asymmetry_Pilot,2022.1.3,Win32,60.07088364,62c50e9c1127f2cd403a315f,0,39,39,144,1,onetwo,,,,,,,,,,,,,,,,,,,,,,,,,,,,,,,,,,,,,,,,,,,,,,,,,,,,,,,,,,,,,,,,,,,,,,,,,,,,,,,,,,,,,,,,,,,,,,,,,,,,,,,,,,,,,,,,,,,,,,,,,,,,,,,,,,,,,,,,,,,,,,,,,,,,,,,,,,,,,
,,,,,,616bb057f8368c4787a35348,62c5398e54c23d5b03dab9c2,2022-07-06_09h29.03.500,Colour_Asymmetry_Pilot,2022.1.3,Win32,60.07088364,62c50e9c1127f2cd403a315f,0,40,40,35,1,twofour,,,,,,,,,,,,,,,,,,,,,,,,,,,,,,,,,,,,,,,,,,,,,,,,,,,,,,,,,,,,,,,,,,,,,,,,,,,,,,,,,,,,,,,,,,,,,,,,,,,,,,,,,,,,,,,,,,,,,,,,,,,,,,,,,,,,,,,,,,,,,,,,,,,,,,,,,,,,,
,,,,,,616bb057f8368c4787a35348,62c5398e54c23d5b03dab9c2,2022-07-06_09h29.03.500,Colour_Asymmetry_Pilot,2022.1.3,Win32,60.07088364,62c50e9c1127f2cd403a315f,0,41,41,59,1,twofour,,,,,,,,,,,,,,,,,,,,,,,,,,,,,,,,,,,,,,,,,,,,,,,,,,,,,,,,,,,,,,,,,,,,,,,,,,,,,,,,,,,,,,,,,,,,,,,,,,,,,,,,,,,,,,,,,,,,,,,,,,,,,,,,,,,,,,,,,,,,,,,,,,,,,,,,,,,,,
,,,,,,616bb057f8368c4787a35348,62c5398e54c23d5b03dab9c2,2022-07-06_09h29.03.500,Colour_Asymmetry_Pilot,2022.1.3,Win32,60.07088364,62c50e9c1127f2cd403a315f,0,42,42,102,1,fourtwo,,,,,,,,,,,,,,,,,,,,,,,,,,,,,,,,,,,,,,,,,,,,,,,,,,,,,,,,,,,,,,,,,,,,,,,,,,,,,,,,,,,,,,,,,,,,,,,,,,,,,,,,,,,,,,,,,,,,,,,,,,,,,,,,,,,,,,,,,,,,,,,,,,,,,,,,,,,,,
,,,,,,616bb057f8368c4787a35348,62c5398e54c23d5b03dab9c2,2022-07-06_09h29.03.500,Colour_Asymmetry_Pilot,2022.1.3,Win32,60.07088364,62c50e9c1127f2cd403a315f,0,43,43,129,1,onethree,,,,,,,,,,,,,,,,,,,,,,,,,,,,,,,,,,,,,,,,,,,,,,,,,,,,,,,,,,,,,,,,,,,,,,,,,,,,,,,,,,,,,,,,,,,,,,,,,,,,,,,,,,,,,,,,,,,,,,,,,,,,,,,,,,,,,,,,,,,,,,,,,,,,,,,,,,,,,
,,,,,,616bb057f8368c4787a35348,62c5398e54c23d5b03dab9c2,2022-07-06_09h29.03.500,Colour_Asymmetry_Pilot,2022.1.3,Win32,60.07088364,62c50e9c1127f2cd403a315f,0,44,44,120,1,onetwo,,,,,,,,,,,,,,,,,,,,,,,,,,,,,,,,,,,,,,,,,,,,,,,,,,,,,,,,,,,,,,,,,,,,,,,,,,,,,,,,,,,,,,,,,,,,,,,,,,,,,,,,,,,,,,,,,,,,,,,,,,,,,,,,,,,,,,,,,,,,,,,,,,,,,,,,,,,,,
,,,,,,616bb057f8368c4787a35348,62c5398e54c23d5b03dab9c2,2022-07-06_09h29.03.500,Colour_Asymmetry_Pilot,2022.1.3,Win32,60.07088364,62c50e9c1127f2cd403a315f,0,45,45,97,1,onethree,,,,,,,,,,,,,,,,,,,,,,,,,,,,,,,,,,,,,,,,,,,,,,,,,,,,,,,,,,,,,,,,,,,,,,,,,,,,,,,,,,,,,,,,,,,,,,,,,,,,,,,,,,,,,,,,,,,,,,,,,,,,,,,,,,,,,,,,,,,,,,,,,,,,,,,,,,,,,
,,,,,,616bb057f8368c4787a35348,62c5398e54c23d5b03dab9c2,2022-07-06_09h29.03.500,Colour_Asymmetry_Pilot,2022.1.3,Win32,60.07088364,62c50e9c1127f2cd403a315f,0,46,46,133,1,threefour,,,,,,,,,,,,,,,,,,,,,,,,,,,,,,,,,,,,,,,,,,,,,,,,,,,,,,,,,,,,,,,,,,,,,,,,,,,,,,,,,,,,,,,,,,,,,,,,,,,,,,,,,,,,,,,,,,,,,,,,,,,,,,,,,,,,,,,,,,,,,,,,,,,,,,,,,,,,,
,,,,,,616bb057f8368c4787a35348,62c5398e54c23d5b03dab9c2,2022-07-06_09h29.03.500,Colour_Asymmetry_Pilot,2022.1.3,Win32,60.07088364,62c50e9c1127f2cd403a315f,0,47,47,76,1,threeone,,,,,,,,,,,,,,,,,,,,,,,,,,,,,,,,,,,,,,,,,,,,,,,,,,,,,,,,,,,,,,,,,,,,,,,,,,,,,,,,,,,,,,,,,,,,,,,,,,,,,,,,,,,,,,,,,,,,,,,,,,,,,,,,,,,,,,,,,,,,,,,,,,,,,,,,,,,,,
,,,,,,616bb057f8368c4787a35348,62c5398e54c23d5b03dab9c2,2022-07-06_09h29.03.500,Colour_Asymmetry_Pilot,2022.1.3,Win32,60.07088364,62c50e9c1127f2cd403a315f,0,48,48,64,1,onetwo,,,,,,,,,,,,,,,,,,,,,,,,,,,,,,,,,,,,,,,,,,,,,,,,,,,,,,,,,,,,,,,,,,,,,,,,,,,,,,,,,,,,,,,,,,,,,,,,,,,,,,,,,,,,,,,,,,,,,,,,,,,,,,,,,,,,,,,,,,,,,,,,,,,,,,,,,,,,,
,,,,,,616bb057f8368c4787a35348,62c5398e54c23d5b03dab9c2,2022-07-06_09h29.03.500,Colour_Asymmetry_Pilot,2022.1.3,Win32,60.07088364,62c50e9c1127f2cd403a315f,0,49,49,58,1,twoone,,,,,,,,,,,,,,,,,,,,,,,,,,,,,,,,,,,,,,,,,,,,,,,,,,,,,,,,,,,,,,,,,,,,,,,,,,,,,,,,,,,,,,,,,,,,,,,,,,,,,,,,,,,,,,,,,,,,,,,,,,,,,,,,,,,,,,,,,,,,,,,,,,,,,,,,,,,,,
,,,,,,616bb057f8368c4787a35348,62c5398e54c23d5b03dab9c2,2022-07-06_09h29.03.500,Colour_Asymmetry_Pilot,2022.1.3,Win32,60.07088364,62c50e9c1127f2cd403a315f,0,50,50,100,1,threeone,,,,,,,,,,,,,,,,,,,,,,,,,,,,,,,,,,,,,,,,,,,,,,,,,,,,,,,,,,,,,,,,,,,,,,,,,,,,,,,,,,,,,,,,,,,,,,,,,,,,,,,,,,,,,,,,,,,,,,,,,,,,,,,,,,,,,,,,,,,,,,,,,,,,,,,,,,,,,
,,,,,,616bb057f8368c4787a35348,62c5398e54c23d5b03dab9c2,2022-07-06_09h29.03.500,Colour_Asymmetry_Pilot,2022.1.3,Win32,60.07088364,62c50e9c1127f2cd403a315f,0,51,51,28,1,threeone,,,,,,,,,,,,,,,,,,,,,,,,,,,,,,,,,,,,,,,,,,,,,,,,,,,,,,,,,,,,,,,,,,,,,,,,,,,,,,,,,,,,,,,,,,,,,,,,,,,,,,,,,,,,,,,,,,,,,,,,,,,,,,,,,,,,,,,,,,,,,,,,,,,,,,,,,,,,,
,,,,,,616bb057f8368c4787a35348,62c5398e54c23d5b03dab9c2,2022-07-06_09h29.03.500,Colour_Asymmetry_Pilot,2022.1.3,Win32,60.07088364,62c50e9c1127f2cd403a315f,0,52,52,94,1,fourtwo,,,,,,,,,,,,,,,,,,,,,,,,,,,,,,,,,,,,,,,,,,,,,,,,,,,,,,,,,,,,,,,,,,,,,,,,,,,,,,,,,,,,,,,,,,,,,,,,,,,,,,,,,,,,,,,,,,,,,,,,,,,,,,,,,,,,,,,,,,,,,,,,,,,,,,,,,,,,,
,,,,,,616bb057f8368c4787a35348,62c5398e54c23d5b03dab9c2,2022-07-06_09h29.03.500,Colour_Asymmetry_Pilot,2022.1.3,Win32,60.07088364,62c50e9c1127f2cd403a315f,0,53,53,89,1,onethree,,,,,,,,,,,,,,,,,,,,,,,,,,,,,,,,,,,,,,,,,,,,,,,,,,,,,,,,,,,,,,,,,,,,,,,,,,,,,,,,,,,,,,,,,,,,,,,,,,,,,,,,,,,,,,,,,,,,,,,,,,,,,,,,,,,,,,,,,,,,,,,,,,,,,,,,,,,,,
,,,,,,616bb057f8368c4787a35348,62c5398e54c23d5b03dab9c2,2022-07-06_09h29.03.500,Colour_Asymmetry_Pilot,2022.1.3,Win32,60.07088364,62c50e9c1127f2cd403a315f,0,54,54,148,1,threeone,,,,,,,,,,,,,,,,,,,,,,,,,,,,,,,,,,,,,,,,,,,,,,,,,,,,,,,,,,,,,,,,,,,,,,,,,,,,,,,,,,,,,,,,,,,,,,,,,,,,,,,,,,,,,,,,,,,,,,,,,,,,,,,,,,,,,,,,,,,,,,,,,,,,,,,,,,,,,
,,,,,,616bb057f8368c4787a35348,62c5398e54c23d5b03dab9c2,2022-07-06_09h29.03.500,Colour_Asymmetry_Pilot,2022.1.3,Win32,60.07088364,62c50e9c1127f2cd403a315f,0,55,55,111,1,fourthree,,,,,,,,,,,,,,,,,,,,,,,,,,,,,,,,,,,,,,,,,,,,,,,,,,,,,,,,,,,,,,,,,,,,,,,,,,,,,,,,,,,,,,,,,,,,,,,,,,,,,,,,,,,,,,,,,,,,,,,,,,,,,,,,,,,,,,,,,,,,,,,,,,,,,,,,,,,,,
,,,,,,616bb057f8368c4787a35348,62c5398e54c23d5b03dab9c2,2022-07-06_09h29.03.500,Colour_Asymmetry_Pilot,2022.1.3,Win32,60.07088364,62c50e9c1127f2cd403a315f,0,56,56,135,1,fourthree,,,,,,,,,,,,,,,,,,,,,,,,,,,,,,,,,,,,,,,,,,,,,,,,,,,,,,,,,,,,,,,,,,,,,,,,,,,,,,,,,,,,,,,,,,,,,,,,,,,,,,,,,,,,,,,,,,,,,,,,,,,,,,,,,,,,,,,,,,,,,,,,,,,,,,,,,,,,,
,,,,,,616bb057f8368c4787a35348,62c5398e54c23d5b03dab9c2,2022-07-06_09h29.03.500,Colour_Asymmetry_Pilot,2022.1.3,Win32,60.07088364,62c50e9c1127f2cd403a315f,0,57,57,109,1,threefour,,,,,,,,,,,,,,,,,,,,,,,,,,,,,,,,,,,,,,,,,,,,,,,,,,,,,,,,,,,,,,,,,,,,,,,,,,,,,,,,,,,,,,,,,,,,,,,,,,,,,,,,,,,,,,,,,,,,,,,,,,,,,,,,,,,,,,,,,,,,,,,,,,,,,,,,,,,,,
,,,,,,616bb057f8368c4787a35348,62c5398e54c23d5b03dab9c2,2022-07-06_09h29.03.500,Colour_Asymmetry_Pilot,2022.1.3,Win32,60.07088364,62c50e9c1127f2cd403a315f,0,58,58,96,1,onetwo,,,,,,,,,,,,,,,,,,,,,,,,,,,,,,,,,,,,,,,,,,,,,,,,,,,,,,,,,,,,,,,,,,,,,,,,,,,,,,,,,,,,,,,,,,,,,,,,,,,,,,,,,,,,,,,,,,,,,,,,,,,,,,,,,,,,,,,,,,,,,,,,,,,,,,,,,,,,,
,,,,,,616bb057f8368c4787a35348,62c5398e54c23d5b03dab9c2,2022-07-06_09h29.03.500,Colour_Asymmetry_Pilot,2022.1.3,Win32,60.07088364,62c50e9c1127f2cd403a315f,0,59,59,92,1,threeone,,,,,,,,,,,,,,,,,,,,,,,,,,,,,,,,,,,,,,,,,,,,,,,,,,,,,,,,,,,,,,,,,,,,,,,,,,,,,,,,,,,,,,,,,,,,,,,,,,,,,,,,,,,,,,,,,,,,,,,,,,,,,,,,,,,,,,,,,,,,,,,,,,,,,,,,,,,,,
,,,,,,616bb057f8368c4787a35348,62c5398e54c23d5b03dab9c2,2022-07-06_09h29.03.500,Colour_Asymmetry_Pilot,2022.1.3,Win32,60.07088364,62c50e9c1127f2cd403a315f,0,60,60,50,1,twoone,,,,,,,,,,,,,,,,,,,,,,,,,,,,,,,,,,,,,,,,,,,,,,,,,,,,,,,,,,,,,,,,,,,,,,,,,,,,,,,,,,,,,,,,,,,,,,,,,,,,,,,,,,,,,,,,,,,,,,,,,,,,,,,,,,,,,,,,,,,,,,,,,,,,,,,,,,,,,
,,,,,,616bb057f8368c4787a35348,62c5398e54c23d5b03dab9c2,2022-07-06_09h29.03.500,Colour_Asymmetry_Pilot,2022.1.3,Win32,60.07088364,62c50e9c1127f2cd403a315f,0,61,61,157,1,threefour,,,,,,,,,,,,,,,,,,,,,,,,,,,,,,,,,,,,,,,,,,,,,,,,,,,,,,,,,,,,,,,,,,,,,,,,,,,,,,,,,,,,,,,,,,,,,,,,,,,,,,,,,,,,,,,,,,,,,,,,,,,,,,,,,,,,,,,,,,,,,,,,,,,,,,,,,,,,,
,,,,,,616bb057f8368c4787a35348,62c5398e54c23d5b03dab9c2,2022-07-06_09h29.03.500,Colour_Asymmetry_Pilot,2022.1.3,Win32,60.07088364,62c50e9c1127f2cd403a315f,0,62,62,62,1,fourtwo,,,,,,,,,,,,,,,,,,,,,,,,,,,,,,,,,,,,,,,,,,,,,,,,,,,,,,,,,,,,,,,,,,,,,,,,,,,,,,,,,,,,,,,,,,,,,,,,,,,,,,,,,,,,,,,,,,,,,,,,,,,,,,,,,,,,,,,,,,,,,,,,,,,,,,,,,,,,,
,,,,,,616bb057f8368c4787a35348,62c5398e54c23d5b03dab9c2,2022-07-06_09h29.03.500,Colour_Asymmetry_Pilot,2022.1.3,Win32,60.07088364,62c50e9c1127f2cd403a315f,0,63,63,18,1,twoone,,,,,,,,,,,,,,,,,,,,,,,,,,,,,,,,,,,,,,,,,,,,,,,,,,,,,,,,,,,,,,,,,,,,,,,,,,,,,,,,,,,,,,,,,,,,,,,,,,,,,,,,,,,,,,,,,,,,,,,,,,,,,,,,,,,,,,,,,,,,,,,,,,,,,,,,,,,,,
,,,,,,616bb057f8368c4787a35348,62c5398e54c23d5b03dab9c2,2022-07-06_09h29.03.500,Colour_Asymmetry_Pilot,2022.1.3,Win32,60.07088364,62c50e9c1127f2cd403a315f,0,64,64,84,1,threeone,,,,,,,,,,,,,,,,,,,,,,,,,,,,,,,,,,,,,,,,,,,,,,,,,,,,,,,,,,,,,,,,,,,,,,,,,,,,,,,,,,,,,,,,,,,,,,,,,,,,,,,,,,,,,,,,,,,,,,,,,,,,,,,,,,,,,,,,,,,,,,,,,,,,,,,,,,,,,
,,,,,,616bb057f8368c4787a35348,62c5398e54c23d5b03dab9c2,2022-07-06_09h29.03.500,Colour_Asymmetry_Pilot,2022.1.3,Win32,60.07088364,62c50e9c1127f2cd403a315f,0,65,65,55,1,fourthree,,,,,,,,,,,,,,,,,,,,,,,,,,,,,,,,,,,,,,,,,,,,,,,,,,,,,,,,,,,,,,,,,,,,,,,,,,,,,,,,,,,,,,,,,,,,,,,,,,,,,,,,,,,,,,,,,,,,,,,,,,,,,,,,,,,,,,,,,,,,,,,,,,,,,,,,,,,,,
,,,,,,616bb057f8368c4787a35348,62c5398e54c23d5b03dab9c2,2022-07-06_09h29.03.500,Colour_Asymmetry_Pilot,2022.1.3,Win32,60.07088364,62c50e9c1127f2cd403a315f,0,66,66,7,1,fourthree,,,,,,,,,,,,,,,,,,,,,,,,,,,,,,,,,,,,,,,,,,,,,,,,,,,,,,,,,,,,,,,,,,,,,,,,,,,,,,,,,,,,,,,,,,,,,,,,,,,,,,,,,,,,,,,,,,,,,,,,,,,,,,,,,,,,,,,,,,,,,,,,,,,,,,,,,,,,,
,,,,,,616bb057f8368c4787a35348,62c5398e54c23d5b03dab9c2,2022-07-06_09h29.03.500,Colour_Asymmetry_Pilot,2022.1.3,Win32,60.07088364,62c50e9c1127f2cd403a315f,0,67,67,3,1,twofour,,,,,,,,,,,,,,,,,,,,,,,,,,,,,,,,,,,,,,,,,,,,,,,,,,,,,,,,,,,,,,,,,,,,,,,,,,,,,,,,,,,,,,,,,,,,,,,,,,,,,,,,,,,,,,,,,,,,,,,,,,,,,,,,,,,,,,,,,,,,,,,,,,,,,,,,,,,,,
,,,,,,616bb057f8368c4787a35348,62c5398e54c23d5b03dab9c2,2022-07-06_09h29.03.500,Colour_Asymmetry_Pilot,2022.1.3,Win32,60.07088364,62c50e9c1127f2cd403a315f,0,68,68,82,1,twoone,,,,,,,,,,,,,,,,,,,,,,,,,,,,,,,,,,,,,,,,,,,,,,,,,,,,,,,,,,,,,,,,,,,,,,,,,,,,,,,,,,,,,,,,,,,,,,,,,,,,,,,,,,,,,,,,,,,,,,,,,,,,,,,,,,,,,,,,,,,,,,,,,,,,,,,,,,,,,
,,,,,,616bb057f8368c4787a35348,62c5398e54c23d5b03dab9c2,2022-07-06_09h29.03.500,Colour_Asymmetry_Pilot,2022.1.3,Win32,60.07088364,62c50e9c1127f2cd403a315f,0,69,69,147,1,twofour,,,,,,,,,,,,,,,,,,,,,,,,,,,,,,,,,,,,,,,,,,,,,,,,,,,,,,,,,,,,,,,,,,,,,,,,,,,,,,,,,,,,,,,,,,,,,,,,,,,,,,,,,,,,,,,,,,,,,,,,,,,,,,,,,,,,,,,,,,,,,,,,,,,,,,,,,,,,,
,,,,,,616bb057f8368c4787a35348,62c5398e54c23d5b03dab9c2,2022-07-06_09h29.03.500,Colour_Asymmetry_Pilot,2022.1.3,Win32,60.07088364,62c50e9c1127f2cd403a315f,0,70,70,87,1,fourthree,,,,,,,,,,,,,,,,,,,,,,,,,,,,,,,,,,,,,,,,,,,,,,,,,,,,,,,,,,,,,,,,,,,,,,,,,,,,,,,,,,,,,,,,,,,,,,,,,,,,,,,,,,,,,,,,,,,,,,,,,,,,,,,,,,,,,,,,,,,,,,,,,,,,,,,,,,,,,
,,,,,,616bb057f8368c4787a35348,62c5398e54c23d5b03dab9c2,2022-07-06_09h29.03.500,Colour_Asymmetry_Pilot,2022.1.3,Win32,60.07088364,62c50e9c1127f2cd403a315f,0,71,71,152,1,onetwo,,,,,,,,,,,,,,,,,,,,,,,,,,,,,,,,,,,,,,,,,,,,,,,,,,,,,,,,,,,,,,,,,,,,,,,,,,,,,,,,,,,,,,,,,,,,,,,,,,,,,,,,,,,,,,,,,,,,,,,,,,,,,,,,,,,,,,,,,,,,,,,,,,,,,,,,,,,,,
,,,,,,616bb057f8368c4787a35348,62c5398e54c23d5b03dab9c2,2022-07-06_09h29.03.500,Colour_Asymmetry_Pilot,2022.1.3,Win32,60.07088364,62c50e9c1127f2cd403a315f,0,72,72,90,1,twoone,,,,,,,,,,,,,,,,,,,,,,,,,,,,,,,,,,,,,,,,,,,,,,,,,,,,,,,,,,,,,,,,,,,,,,,,,,,,,,,,,,,,,,,,,,,,,,,,,,,,,,,,,,,,,,,,,,,,,,,,,,,,,,,,,,,,,,,,,,,,,,,,,,,,,,,,,,,,,
,,,,,,616bb057f8368c4787a35348,62c5398e54c23d5b03dab9c2,2022-07-06_09h29.03.500,Colour_Asymmetry_Pilot,2022.1.3,Win32,60.07088364,62c50e9c1127f2cd403a315f,0,73,73,22,1,fourtwo,,,,,,,,,,,,,,,,,,,,,,,,,,,,,,,,,,,,,,,,,,,,,,,,,,,,,,,,,,,,,,,,,,,,,,,,,,,,,,,,,,,,,,,,,,,,,,,,,,,,,,,,,,,,,,,,,,,,,,,,,,,,,,,,,,,,,,,,,,,,,,,,,,,,,,,,,,,,,
,,,,,,616bb057f8368c4787a35348,62c5398e54c23d5b03dab9c2,2022-07-06_09h29.03.500,Colour_Asymmetry_Pilot,2022.1.3,Win32,60.07088364,62c50e9c1127f2cd403a315f,0,74,74,88,1,onetwo,,,,,,,,,,,,,,,,,,,,,,,,,,,,,,,,,,,,,,,,,,,,,,,,,,,,,,,,,,,,,,,,,,,,,,,,,,,,,,,,,,,,,,,,,,,,,,,,,,,,,,,,,,,,,,,,,,,,,,,,,,,,,,,,,,,,,,,,,,,,,,,,,,,,,,,,,,,,,
,,,,,,616bb057f8368c4787a35348,62c5398e54c23d5b03dab9c2,2022-07-06_09h29.03.500,Colour_Asymmetry_Pilot,2022.1.3,Win32,60.07088364,62c50e9c1127f2cd403a315f,0,75,75,141,1,threefour,,,,,,,,,,,,,,,,,,,,,,,,,,,,,,,,,,,,,,,,,,,,,,,,,,,,,,,,,,,,,,,,,,,,,,,,,,,,,,,,,,,,,,,,,,,,,,,,,,,,,,,,,,,,,,,,,,,,,,,,,,,,,,,,,,,,,,,,,,,,,,,,,,,,,,,,,,,,,
,,,,,,616bb057f8368c4787a35348,62c5398e54c23d5b03dab9c2,2022-07-06_09h29.03.500,Colour_Asymmetry_Pilot,2022.1.3,Win32,60.07088364,62c50e9c1127f2cd403a315f,0,76,76,85,1,threefour,,,,,,,,,,,,,,,,,,,,,,,,,,,,,,,,,,,,,,,,,,,,,,,,,,,,,,,,,,,,,,,,,,,,,,,,,,,,,,,,,,,,,,,,,,,,,,,,,,,,,,,,,,,,,,,,,,,,,,,,,,,,,,,,,,,,,,,,,,,,,,,,,,,,,,,,,,,,,
,,,,,,616bb057f8368c4787a35348,62c5398e54c23d5b03dab9c2,2022-07-06_09h29.03.500,Colour_Asymmetry_Pilot,2022.1.3,Win32,60.07088364,62c50e9c1127f2cd403a315f,0,77,77,126,1,fourtwo,,,,,,,,,,,,,,,,,,,,,,,,,,,,,,,,,,,,,,,,,,,,,,,,,,,,,,,,,,,,,,,,,,,,,,,,,,,,,,,,,,,,,,,,,,,,,,,,,,,,,,,,,,,,,,,,,,,,,,,,,,,,,,,,,,,,,,,,,,,,,,,,,,,,,,,,,,,,,
,,,,,,616bb057f8368c4787a35348,62c5398e54c23d5b03dab9c2,2022-07-06_09h29.03.500,Colour_Asymmetry_Pilot,2022.1.3,Win32,60.07088364,62c50e9c1127f2cd403a315f,0,78,78,20,1,threeone,,,,,,,,,,,,,,,,,,,,,,,,,,,,,,,,,,,,,,,,,,,,,,,,,,,,,,,,,,,,,,,,,,,,,,,,,,,,,,,,,,,,,,,,,,,,,,,,,,,,,,,,,,,,,,,,,,,,,,,,,,,,,,,,,,,,,,,,,,,,,,,,,,,,,,,,,,,,,
,,,,,,616bb057f8368c4787a35348,62c5398e54c23d5b03dab9c2,2022-07-06_09h29.03.500,Colour_Asymmetry_Pilot,2022.1.3,Win32,60.07088364,62c50e9c1127f2cd403a315f,0,79,79,54,1,fourtwo,,,,,,,,,,,,,,,,,,,,,,,,,,,,,,,,,,,,,,,,,,,,,,,,,,,,,,,,,,,,,,,,,,,,,,,,,,,,,,,,,,,,,,,,,,,,,,,,,,,,,,,,,,,,,,,,,,,,,,,,,,,,,,,,,,,,,,,,,,,,,,,,,,,,,,,,,,,,,
,,,,,,616bb057f8368c4787a35348,62c5398e54c23d5b03dab9c2,2022-07-06_09h29.03.500,Colour_Asymmetry_Pilot,2022.1.3,Win32,60.07088364,62c50e9c1127f2cd403a315f,0,80,80,139,1,twofour,,,,,,,,,,,,,,,,,,,,,,,,,,,,,,,,,,,,,,,,,,,,,,,,,,,,,,,,,,,,,,,,,,,,,,,,,,,,,,,,,,,,,,,,,,,,,,,,,,,,,,,,,,,,,,,,,,,,,,,,,,,,,,,,,,,,,,,,,,,,,,,,,,,,,,,,,,,,,
,,,,,,616bb057f8368c4787a35348,62c5398e54c23d5b03dab9c2,2022-07-06_09h29.03.500,Colour_Asymmetry_Pilot,2022.1.3,Win32,60.07088364,62c50e9c1127f2cd403a315f,0,81,81,130,1,twoone,,,,,,,,,,,,,,,,,,,,,,,,,,,,,,,,,,,,,,,,,,,,,,,,,,,,,,,,,,,,,,,,,,,,,,,,,,,,,,,,,,,,,,,,,,,,,,,,,,,,,,,,,,,,,,,,,,,,,,,,,,,,,,,,,,,,,,,,,,,,,,,,,,,,,,,,,,,,,
,,,,,,616bb057f8368c4787a35348,62c5398e54c23d5b03dab9c2,2022-07-06_09h29.03.500,Colour_Asymmetry_Pilot,2022.1.3,Win32,60.07088364,62c50e9c1127f2cd403a315f,0,82,82,14,1,fourtwo,,,,,,,,,,,,,,,,,,,,,,,,,,,,,,,,,,,,,,,,,,,,,,,,,,,,,,,,,,,,,,,,,,,,,,,,,,,,,,,,,,,,,,,,,,,,,,,,,,,,,,,,,,,,,,,,,,,,,,,,,,,,,,,,,,,,,,,,,,,,,,,,,,,,,,,,,,,,,
,,,,,,616bb057f8368c4787a35348,62c5398e54c23d5b03dab9c2,2022-07-06_09h29.03.500,Colour_Asymmetry_Pilot,2022.1.3,Win32,60.07088364,62c50e9c1127f2cd403a315f,0,83,83,52,1,threeone,,,,,,,,,,,,,,,,,,,,,,,,,,,,,,,,,,,,,,,,,,,,,,,,,,,,,,,,,,,,,,,,,,,,,,,,,,,,,,,,,,,,,,,,,,,,,,,,,,,,,,,,,,,,,,,,,,,,,,,,,,,,,,,,,,,,,,,,,,,,,,,,,,,,,,,,,,,,,
,,,,,,616bb057f8368c4787a35348,62c5398e54c23d5b03dab9c2,2022-07-06_09h29.03.500,Colour_Asymmetry_Pilot,2022.1.3,Win32,60.07088364,62c50e9c1127f2cd403a315f,0,84,84,27,1,twofour,,,,,,,,,,,,,,,,,,,,,,,,,,,,,,,,,,,,,,,,,,,,,,,,,,,,,,,,,,,,,,,,,,,,,,,,,,,,,,,,,,,,,,,,,,,,,,,,,,,,,,,,,,,,,,,,,,,,,,,,,,,,,,,,,,,,,,,,,,,,,,,,,,,,,,,,,,,,,
,,,,,,616bb057f8368c4787a35348,62c5398e54c23d5b03dab9c2,2022-07-06_09h29.03.500,Colour_Asymmetry_Pilot,2022.1.3,Win32,60.07088364,62c50e9c1127f2cd403a315f,0,85,85,114,1,twoone,,,,,,,,,,,,,,,,,,,,,,,,,,,,,,,,,,,,,,,,,,,,,,,,,,,,,,,,,,,,,,,,,,,,,,,,,,,,,,,,,,,,,,,,,,,,,,,,,,,,,,,,,,,,,,,,,,,,,,,,,,,,,,,,,,,,,,,,,,,,,,,,,,,,,,,,,,,,,
,,,,,,616bb057f8368c4787a35348,62c5398e54c23d5b03dab9c2,2022-07-06_09h29.03.500,Colour_Asymmetry_Pilot,2022.1.3,Win32,60.07088364,62c50e9c1127f2cd403a315f,0,86,86,115,1,twofour,,,,,,,,,,,,,,,,,,,,,,,,,,,,,,,,,,,,,,,,,,,,,,,,,,,,,,,,,,,,,,,,,,,,,,,,,,,,,,,,,,,,,,,,,,,,,,,,,,,,,,,,,,,,,,,,,,,,,,,,,,,,,,,,,,,,,,,,,,,,,,,,,,,,,,,,,,,,,
,,,,,,616bb057f8368c4787a35348,62c5398e54c23d5b03dab9c2,2022-07-06_09h29.03.500,Colour_Asymmetry_Pilot,2022.1.3,Win32,60.07088364,62c50e9c1127f2cd403a315f,0,87,87,99,1,twofour,,,,,,,,,,,,,,,,,,,,,,,,,,,,,,,,,,,,,,,,,,,,,,,,,,,,,,,,,,,,,,,,,,,,,,,,,,,,,,,,,,,,,,,,,,,,,,,,,,,,,,,,,,,,,,,,,,,,,,,,,,,,,,,,,,,,,,,,,,,,,,,,,,,,,,,,,,,,,
,,,,,,616bb057f8368c4787a35348,62c5398e54c23d5b03dab9c2,2022-07-06_09h29.03.500,Colour_Asymmetry_Pilot,2022.1.3,Win32,60.07088364,62c50e9c1127f2cd403a315f,0,88,88,128,1,onetwo,,,,,,,,,,,,,,,,,,,,,,,,,,,,,,,,,,,,,,,,,,,,,,,,,,,,,,,,,,,,,,,,,,,,,,,,,,,,,,,,,,,,,,,,,,,,,,,,,,,,,,,,,,,,,,,,,,,,,,,,,,,,,,,,,,,,,,,,,,,,,,,,,,,,,,,,,,,,,
,,,,,,616bb057f8368c4787a35348,62c5398e54c23d5b03dab9c2,2022-07-06_09h29.03.500,Colour_Asymmetry_Pilot,2022.1.3,Win32,60.07088364,62c50e9c1127f2cd403a315f,0,89,89,145,1,onethree,,,,,,,,,,,,,,,,,,,,,,,,,,,,,,,,,,,,,,,,,,,,,,,,,,,,,,,,,,,,,,,,,,,,,,,,,,,,,,,,,,,,,,,,,,,,,,,,,,,,,,,,,,,,,,,,,,,,,,,,,,,,,,,,,,,,,,,,,,,,,,,,,,,,,,,,,,,,,
,,,,,,616bb057f8368c4787a35348,62c5398e54c23d5b03dab9c2,2022-07-06_09h29.03.500,Colour_Asymmetry_Pilot,2022.1.3,Win32,60.07088364,62c50e9c1127f2cd403a315f,0,90,90,65,1,onethree,,,,,,,,,,,,,,,,,,,,,,,,,,,,,,,,,,,,,,,,,,,,,,,,,,,,,,,,,,,,,,,,,,,,,,,,,,,,,,,,,,,,,,,,,,,,,,,,,,,,,,,,,,,,,,,,,,,,,,,,,,,,,,,,,,,,,,,,,,,,,,,,,,,,,,,,,,,,,
,,,,,,616bb057f8368c4787a35348,62c5398e54c23d5b03dab9c2,2022-07-06_09h29.03.500,Colour_Asymmetry_Pilot,2022.1.3,Win32,60.07088364,62c50e9c1127f2cd403a315f,0,91,91,45,1,threefour,,,,,,,,,,,,,,,,,,,,,,,,,,,,,,,,,,,,,,,,,,,,,,,,,,,,,,,,,,,,,,,,,,,,,,,,,,,,,,,,,,,,,,,,,,,,,,,,,,,,,,,,,,,,,,,,,,,,,,,,,,,,,,,,,,,,,,,,,,,,,,,,,,,,,,,,,,,,,
,,,,,,616bb057f8368c4787a35348,62c5398e54c23d5b03dab9c2,2022-07-06_09h29.03.500,Colour_Asymmetry_Pilot,2022.1.3,Win32,60.07088364,62c50e9c1127f2cd403a315f,0,92,92,74,1,twoone,,,,,,,,,,,,,,,,,,,,,,,,,,,,,,,,,,,,,,,,,,,,,,,,,,,,,,,,,,,,,,,,,,,,,,,,,,,,,,,,,,,,,,,,,,,,,,,,,,,,,,,,,,,,,,,,,,,,,,,,,,,,,,,,,,,,,,,,,,,,,,,,,,,,,,,,,,,,,
,,,,,,616bb057f8368c4787a35348,62c5398e54c23d5b03dab9c2,2022-07-06_09h29.03.500,Colour_Asymmetry_Pilot,2022.1.3,Win32,60.07088364,62c50e9c1127f2cd403a315f,0,93,93,10,1,twoone,,,,,,,,,,,,,,,,,,,,,,,,,,,,,,,,,,,,,,,,,,,,,,,,,,,,,,,,,,,,,,,,,,,,,,,,,,,,,,,,,,,,,,,,,,,,,,,,,,,,,,,,,,,,,,,,,,,,,,,,,,,,,,,,,,,,,,,,,,,,,,,,,,,,,,,,,,,,,
,,,,,,616bb057f8368c4787a35348,62c5398e54c23d5b03dab9c2,2022-07-06_09h29.03.500,Colour_Asymmetry_Pilot,2022.1.3,Win32,60.07088364,62c50e9c1127f2cd403a315f,0,94,94,15,1,fourthree,,,,,,,,,,,,,,,,,,,,,,,,,,,,,,,,,,,,,,,,,,,,,,,,,,,,,,,,,,,,,,,,,,,,,,,,,,,,,,,,,,,,,,,,,,,,,,,,,,,,,,,,,,,,,,,,,,,,,,,,,,,,,,,,,,,,,,,,,,,,,,,,,,,,,,,,,,,,,
,,,,,,616bb057f8368c4787a35348,62c5398e54c23d5b03dab9c2,2022-07-06_09h29.03.500,Colour_Asymmetry_Pilot,2022.1.3,Win32,60.07088364,62c50e9c1127f2cd403a315f,0,95,95,44,1,threeone,,,,,,,,,,,,,,,,,,,,,,,,,,,,,,,,,,,,,,,,,,,,,,,,,,,,,,,,,,,,,,,,,,,,,,,,,,,,,,,,,,,,,,,,,,,,,,,,,,,,,,,,,,,,,,,,,,,,,,,,,,,,,,,,,,,,,,,,,,,,,,,,,,,,,,,,,,,,,
,,,,,,616bb057f8368c4787a35348,62c5398e54c23d5b03dab9c2,2022-07-06_09h29.03.500,Colour_Asymmetry_Pilot,2022.1.3,Win32,60.07088364,62c50e9c1127f2cd403a315f,0,96,96,36,1,threeone,,,,,,,,,,,,,,,,,,,,,,,,,,,,,,,,,,,,,,,,,,,,,,,,,,,,,,,,,,,,,,,,,,,,,,,,,,,,,,,,,,,,,,,,,,,,,,,,,,,,,,,,,,,,,,,,,,,,,,,,,,,,,,,,,,,,,,,,,,,,,,,,,,,,,,,,,,,,,
,,,,,,616bb057f8368c4787a35348,62c5398e54c23d5b03dab9c2,2022-07-06_09h29.03.500,Colour_Asymmetry_Pilot,2022.1.3,Win32,60.07088364,62c50e9c1127f2cd403a315f,0,97,97,72,1,onetwo,,,,,,,,,,,,,,,,,,,,,,,,,,,,,,,,,,,,,,,,,,,,,,,,,,,,,,,,,,,,,,,,,,,,,,,,,,,,,,,,,,,,,,,,,,,,,,,,,,,,,,,,,,,,,,,,,,,,,,,,,,,,,,,,,,,,,,,,,,,,,,,,,,,,,,,,,,,,,
,,,,,,616bb057f8368c4787a35348,62c5398e54c23d5b03dab9c2,2022-07-06_09h29.03.500,Colour_Asymmetry_Pilot,2022.1.3,Win32,60.07088364,62c50e9c1127f2cd403a315f,0,98,98,150,1,fourtwo,,,,,,,,,,,,,,,,,,,,,,,,,,,,,,,,,,,,,,,,,,,,,,,,,,,,,,,,,,,,,,,,,,,,,,,,,,,,,,,,,,,,,,,,,,,,,,,,,,,,,,,,,,,,,,,,,,,,,,,,,,,,,,,,,,,,,,,,,,,,,,,,,,,,,,,,,,,,,
,,,,,,616bb057f8368c4787a35348,62c5398e54c23d5b03dab9c2,2022-07-06_09h29.03.500,Colour_Asymmetry_Pilot,2022.1.3,Win32,60.07088364,62c50e9c1127f2cd403a315f,0,99,99,6,1,fourtwo,,,,,,,,,,,,,,,,,,,,,,,,,,,,,,,,,,,,,,,,,,,,,,,,,,,,,,,,,,,,,,,,,,,,,,,,,,,,,,,,,,,,,,,,,,,,,,,,,,,,,,,,,,,,,,,,,,,,,,,,,,,,,,,,,,,,,,,,,,,,,,,,,,,,,,,,,,,,,
,,,,,,616bb057f8368c4787a35348,62c5398e54c23d5b03dab9c2,2022-07-06_09h29.03.500,Colour_Asymmetry_Pilot,2022.1.3,Win32,60.07088364,62c50e9c1127f2cd403a315f,0,100,100,142,1,fourtwo,,,,,,,,,,,,,,,,,,,,,,,,,,,,,,,,,,,,,,,,,,,,,,,,,,,,,,,,,,,,,,,,,,,,,,,,,,,,,,,,,,,,,,,,,,,,,,,,,,,,,,,,,,,,,,,,,,,,,,,,,,,,,,,,,,,,,,,,,,,,,,,,,,,,,,,,,,,,,
,,,,,,616bb057f8368c4787a35348,62c5398e54c23d5b03dab9c2,2022-07-06_09h29.03.500,Colour_Asymmetry_Pilot,2022.1.3,Win32,60.07088364,62c50e9c1127f2cd403a315f,0,101,101,39,1,fourthree,,,,,,,,,,,,,,,,,,,,,,,,,,,,,,,,,,,,,,,,,,,,,,,,,,,,,,,,,,,,,,,,,,,,,,,,,,,,,,,,,,,,,,,,,,,,,,,,,,,,,,,,,,,,,,,,,,,,,,,,,,,,,,,,,,,,,,,,,,,,,,,,,,,,,,,,,,,,,
,,,,,,616bb057f8368c4787a35348,62c5398e54c23d5b03dab9c2,2022-07-06_09h29.03.500,Colour_Asymmetry_Pilot,2022.1.3,Win32,60.07088364,62c50e9c1127f2cd403a315f,0,102,102,49,1,onethree,,,,,,,,,,,,,,,,,,,,,,,,,,,,,,,,,,,,,,,,,,,,,,,,,,,,,,,,,,,,,,,,,,,,,,,,,,,,,,,,,,,,,,,,,,,,,,,,,,,,,,,,,,,,,,,,,,,,,,,,,,,,,,,,,,,,,,,,,,,,,,,,,,,,,,,,,,,,,
,,,,,,616bb057f8368c4787a35348,62c5398e54c23d5b03dab9c2,2022-07-06_09h29.03.500,Colour_Asymmetry_Pilot,2022.1.3,Win32,60.07088364,62c50e9c1127f2cd403a315f,0,103,103,46,1,fourtwo,,,,,,,,,,,,,,,,,,,,,,,,,,,,,,,,,,,,,,,,,,,,,,,,,,,,,,,,,,,,,,,,,,,,,,,,,,,,,,,,,,,,,,,,,,,,,,,,,,,,,,,,,,,,,,,,,,,,,,,,,,,,,,,,,,,,,,,,,,,,,,,,,,,,,,,,,,,,,
,,,,,,616bb057f8368c4787a35348,62c5398e54c23d5b03dab9c2,2022-07-06_09h29.03.500,Colour_Asymmetry_Pilot,2022.1.3,Win32,60.07088364,62c50e9c1127f2cd403a315f,0,104,104,81,1,onethree,,,,,,,,,,,,,,,,,,,,,,,,,,,,,,,,,,,,,,,,,,,,,,,,,,,,,,,,,,,,,,,,,,,,,,,,,,,,,,,,,,,,,,,,,,,,,,,,,,,,,,,,,,,,,,,,,,,,,,,,,,,,,,,,,,,,,,,,,,,,,,,,,,,,,,,,,,,,,
,,,,,,616bb057f8368c4787a35348,62c5398e54c23d5b03dab9c2,2022-07-06_09h29.03.500,Colour_Asymmetry_Pilot,2022.1.3,Win32,60.07088364,62c50e9c1127f2cd403a315f,0,105,105,56,1,onetwo,,,,,,,,,,,,,,,,,,,,,,,,,,,,,,,,,,,,,,,,,,,,,,,,,,,,,,,,,,,,,,,,,,,,,,,,,,,,,,,,,,,,,,,,,,,,,,,,,,,,,,,,,,,,,,,,,,,,,,,,,,,,,,,,,,,,,,,,,,,,,,,,,,,,,,,,,,,,,
,,,,,,616bb057f8368c4787a35348,62c5398e54c23d5b03dab9c2,2022-07-06_09h29.03.500,Colour_Asymmetry_Pilot,2022.1.3,Win32,60.07088364,62c50e9c1127f2cd403a315f,0,106,106,9,1,onethree,,,,,,,,,,,,,,,,,,,,,,,,,,,,,,,,,,,,,,,,,,,,,,,,,,,,,,,,,,,,,,,,,,,,,,,,,,,,,,,,,,,,,,,,,,,,,,,,,,,,,,,,,,,,,,,,,,,,,,,,,,,,,,,,,,,,,,,,,,,,,,,,,,,,,,,,,,,,,
,,,,,,616bb057f8368c4787a35348,62c5398e54c23d5b03dab9c2,2022-07-06_09h29.03.500,Colour_Asymmetry_Pilot,2022.1.3,Win32,60.07088364,62c50e9c1127f2cd403a315f,0,107,107,75,1,twofour,,,,,,,,,,,,,,,,,,,,,,,,,,,,,,,,,,,,,,,,,,,,,,,,,,,,,,,,,,,,,,,,,,,,,,,,,,,,,,,,,,,,,,,,,,,,,,,,,,,,,,,,,,,,,,,,,,,,,,,,,,,,,,,,,,,,,,,,,,,,,,,,,,,,,,,,,,,,,
,,,,,,616bb057f8368c4787a35348,62c5398e54c23d5b03dab9c2,2022-07-06_09h29.03.500,Colour_Asymmetry_Pilot,2022.1.3,Win32,60.07088364,62c50e9c1127f2cd403a315f,0,108,108,117,1,threefour,,,,,,,,,,,,,,,,,,,,,,,,,,,,,,,,,,,,,,,,,,,,,,,,,,,,,,,,,,,,,,,,,,,,,,,,,,,,,,,,,,,,,,,,,,,,,,,,,,,,,,,,,,,,,,,,,,,,,,,,,,,,,,,,,,,,,,,,,,,,,,,,,,,,,,,,,,,,,
,,,,,,616bb057f8368c4787a35348,62c5398e54c23d5b03dab9c2,2022-07-06_09h29.03.500,Colour_Asymmetry_Pilot,2022.1.3,Win32,60.07088364,62c50e9c1127f2cd403a315f,0,109,109,159,1,fourthree,,,,,,,,,,,,,,,,,,,,,,,,,,,,,,,,,,,,,,,,,,,,,,,,,,,,,,,,,,,,,,,,,,,,,,,,,,,,,,,,,,,,,,,,,,,,,,,,,,,,,,,,,,,,,,,,,,,,,,,,,,,,,,,,,,,,,,,,,,,,,,,,,,,,,,,,,,,,,
,,,,,,616bb057f8368c4787a35348,62c5398e54c23d5b03dab9c2,2022-07-06_09h29.03.500,Colour_Asymmetry_Pilot,2022.1.3,Win32,60.07088364,62c50e9c1127f2cd403a315f,0,110,110,127,1,fourthree,,,,,,,,,,,,,,,,,,,,,,,,,,,,,,,,,,,,,,,,,,,,,,,,,,,,,,,,,,,,,,,,,,,,,,,,,,,,,,,,,,,,,,,,,,,,,,,,,,,,,,,,,,,,,,,,,,,,,,,,,,,,,,,,,,,,,,,,,,,,,,,,,,,,,,,,,,,,,
,,,,,,616bb057f8368c4787a35348,62c5398e54c23d5b03dab9c2,2022-07-06_09h29.03.500,Colour_Asymmetry_Pilot,2022.1.3,Win32,60.07088364,62c50e9c1127f2cd403a315f,0,111,111,151,1,fourthree,,,,,,,,,,,,,,,,,,,,,,,,,,,,,,,,,,,,,,,,,,,,,,,,,,,,,,,,,,,,,,,,,,,,,,,,,,,,,,,,,,,,,,,,,,,,,,,,,,,,,,,,,,,,,,,,,,,,,,,,,,,,,,,,,,,,,,,,,,,,,,,,,,,,,,,,,,,,,
,,,,,,616bb057f8368c4787a35348,62c5398e54c23d5b03dab9c2,2022-07-06_09h29.03.500,Colour_Asymmetry_Pilot,2022.1.3,Win32,60.07088364,62c50e9c1127f2cd403a315f,0,112,112,138,1,twoone,,,,,,,,,,,,,,,,,,,,,,,,,,,,,,,,,,,,,,,,,,,,,,,,,,,,,,,,,,,,,,,,,,,,,,,,,,,,,,,,,,,,,,,,,,,,,,,,,,,,,,,,,,,,,,,,,,,,,,,,,,,,,,,,,,,,,,,,,,,,,,,,,,,,,,,,,,,,,
,,,,,,616bb057f8368c4787a35348,62c5398e54c23d5b03dab9c2,2022-07-06_09h29.03.500,Colour_Asymmetry_Pilot,2022.1.3,Win32,60.07088364,62c50e9c1127f2cd403a315f,0,113,113,137,1,onethree,,,,,,,,,,,,,,,,,,,,,,,,,,,,,,,,,,,,,,,,,,,,,,,,,,,,,,,,,,,,,,,,,,,,,,,,,,,,,,,,,,,,,,,,,,,,,,,,,,,,,,,,,,,,,,,,,,,,,,,,,,,,,,,,,,,,,,,,,,,,,,,,,,,,,,,,,,,,,
,,,,,,616bb057f8368c4787a35348,62c5398e54c23d5b03dab9c2,2022-07-06_09h29.03.500,Colour_Asymmetry_Pilot,2022.1.3,Win32,60.07088364,62c50e9c1127f2cd403a315f,0,114,114,37,1,threefour,,,,,,,,,,,,,,,,,,,,,,,,,,,,,,,,,,,,,,,,,,,,,,,,,,,,,,,,,,,,,,,,,,,,,,,,,,,,,,,,,,,,,,,,,,,,,,,,,,,,,,,,,,,,,,,,,,,,,,,,,,,,,,,,,,,,,,,,,,,,,,,,,,,,,,,,,,,,,
,,,,,,616bb057f8368c4787a35348,62c5398e54c23d5b03dab9c2,2022-07-06_09h29.03.500,Colour_Asymmetry_Pilot,2022.1.3,Win32,60.07088364,62c50e9c1127f2cd403a315f,0,115,115,12,1,threeone,,,,,,,,,,,,,,,,,,,,,,,,,,,,,,,,,,,,,,,,,,,,,,,,,,,,,,,,,,,,,,,,,,,,,,,,,,,,,,,,,,,,,,,,,,,,,,,,,,,,,,,,,,,,,,,,,,,,,,,,,,,,,,,,,,,,,,,,,,,,,,,,,,,,,,,,,,,,,
,,,,,,616bb057f8368c4787a35348,62c5398e54c23d5b03dab9c2,2022-07-06_09h29.03.500,Colour_Asymmetry_Pilot,2022.1.3,Win32,60.07088364,62c50e9c1127f2cd403a315f,0,116,116,110,1,fourtwo,,,,,,,,,,,,,,,,,,,,,,,,,,,,,,,,,,,,,,,,,,,,,,,,,,,,,,,,,,,,,,,,,,,,,,,,,,,,,,,,,,,,,,,,,,,,,,,,,,,,,,,,,,,,,,,,,,,,,,,,,,,,,,,,,,,,,,,,,,,,,,,,,,,,,,,,,,,,,
,,,,,,616bb057f8368c4787a35348,62c5398e54c23d5b03dab9c2,2022-07-06_09h29.03.500,Colour_Asymmetry_Pilot,2022.1.3,Win32,60.07088364,62c50e9c1127f2cd403a315f,0,117,117,63,1,fourthree,,,,,,,,,,,,,,,,,,,,,,,,,,,,,,,,,,,,,,,,,,,,,,,,,,,,,,,,,,,,,,,,,,,,,,,,,,,,,,,,,,,,,,,,,,,,,,,,,,,,,,,,,,,,,,,,,,,,,,,,,,,,,,,,,,,,,,,,,,,,,,,,,,,,,,,,,,,,,
,,,,,,616bb057f8368c4787a35348,62c5398e54c23d5b03dab9c2,2022-07-06_09h29.03.500,Colour_Asymmetry_Pilot,2022.1.3,Win32,60.07088364,62c50e9c1127f2cd403a315f,0,118,118,116,1,threeone,,,,,,,,,,,,,,,,,,,,,,,,,,,,,,,,,,,,,,,,,,,,,,,,,,,,,,,,,,,,,,,,,,,,,,,,,,,,,,,,,,,,,,,,,,,,,,,,,,,,,,,,,,,,,,,,,,,,,,,,,,,,,,,,,,,,,,,,,,,,,,,,,,,,,,,,,,,,,
,,,,,,616bb057f8368c4787a35348,62c5398e54c23d5b03dab9c2,2022-07-06_09h29.03.500,Colour_Asymmetry_Pilot,2022.1.3,Win32,60.07088364,62c50e9c1127f2cd403a315f,0,119,119,70,1,fourtwo,,,,,,,,,,,,,,,,,,,,,,,,,,,,,,,,,,,,,,,,,,,,,,,,,,,,,,,,,,,,,,,,,,,,,,,,,,,,,,,,,,,,,,,,,,,,,,,,,,,,,,,,,,,,,,,,,,,,,,,,,,,,,,,,,,,,,,,,,,,,,,,,,,,,,,,,,,,,,
,,,,,,616bb057f8368c4787a35348,62c5398e54c23d5b03dab9c2,2022-07-06_09h29.03.500,Colour_Asymmetry_Pilot,2022.1.3,Win32,60.07088364,62c50e9c1127f2cd403a315f,0,120,120,34,1,twoone,,,,,,,,,,,,,,,,,,,,,,,,,,,,,,,,,,,,,,,,,,,,,,,,,,,,,,,,,,,,,,,,,,,,,,,,,,,,,,,,,,,,,,,,,,,,,,,,,,,,,,,,,,,,,,,,,,,,,,,,,,,,,,,,,,,,,,,,,,,,,,,,,,,,,,,,,,,,,
,,,,,,616bb057f8368c4787a35348,62c5398e54c23d5b03dab9c2,2022-07-06_09h29.03.500,Colour_Asymmetry_Pilot,2022.1.3,Win32,60.07088364,62c50e9c1127f2cd403a315f,0,121,121,19,1,twofour,,,,,,,,,,,,,,,,,,,,,,,,,,,,,,,,,,,,,,,,,,,,,,,,,,,,,,,,,,,,,,,,,,,,,,,,,,,,,,,,,,,,,,,,,,,,,,,,,,,,,,,,,,,,,,,,,,,,,,,,,,,,,,,,,,,,,,,,,,,,,,,,,,,,,,,,,,,,,
,,,,,,616bb057f8368c4787a35348,62c5398e54c23d5b03dab9c2,2022-07-06_09h29.03.500,Colour_Asymmetry_Pilot,2022.1.3,Win32,60.07088364,62c50e9c1127f2cd403a315f,0,122,122,158,1,fourtwo,,,,,,,,,,,,,,,,,,,,,,,,,,,,,,,,,,,,,,,,,,,,,,,,,,,,,,,,,,,,,,,,,,,,,,,,,,,,,,,,,,,,,,,,,,,,,,,,,,,,,,,,,,,,,,,,,,,,,,,,,,,,,,,,,,,,,,,,,,,,,,,,,,,,,,,,,,,,,
,,,,,,616bb057f8368c4787a35348,62c5398e54c23d5b03dab9c2,2022-07-06_09h29.03.500,Colour_Asymmetry_Pilot,2022.1.3,Win32,60.07088364,62c50e9c1127f2cd403a315f,0,123,123,108,1,threeone,,,,,,,,,,,,,,,,,,,,,,,,,,,,,,,,,,,,,,,,,,,,,,,,,,,,,,,,,,,,,,,,,,,,,,,,,,,,,,,,,,,,,,,,,,,,,,,,,,,,,,,,,,,,,,,,,,,,,,,,,,,,,,,,,,,,,,,,,,,,,,,,,,,,,,,,,,,,,
,,,,,,616bb057f8368c4787a35348,62c5398e54c23d5b03dab9c2,2022-07-06_09h29.03.500,Colour_Asymmetry_Pilot,2022.1.3,Win32,60.07088364,62c50e9c1127f2cd403a315f,0,124,124,43,1,twofour,,,,,,,,,,,,,,,,,,,,,,,,,,,,,,,,,,,,,,,,,,,,,,,,,,,,,,,,,,,,,,,,,,,,,,,,,,,,,,,,,,,,,,,,,,,,,,,,,,,,,,,,,,,,,,,,,,,,,,,,,,,,,,,,,,,,,,,,,,,,,,,,,,,,,,,,,,,,,
,,,,,,616bb057f8368c4787a35348,62c5398e54c23d5b03dab9c2,2022-07-06_09h29.03.500,Colour_Asymmetry_Pilot,2022.1.3,Win32,60.07088364,62c50e9c1127f2cd403a315f,0,125,125,136,1,onetwo,,,,,,,,,,,,,,,,,,,,,,,,,,,,,,,,,,,,,,,,,,,,,,,,,,,,,,,,,,,,,,,,,,,,,,,,,,,,,,,,,,,,,,,,,,,,,,,,,,,,,,,,,,,,,,,,,,,,,,,,,,,,,,,,,,,,,,,,,,,,,,,,,,,,,,,,,,,,,
,,,,,,616bb057f8368c4787a35348,62c5398e54c23d5b03dab9c2,2022-07-06_09h29.03.500,Colour_Asymmetry_Pilot,2022.1.3,Win32,60.07088364,62c50e9c1127f2cd403a315f,0,126,126,156,1,threeone,,,,,,,,,,,,,,,,,,,,,,,,,,,,,,,,,,,,,,,,,,,,,,,,,,,,,,,,,,,,,,,,,,,,,,,,,,,,,,,,,,,,,,,,,,,,,,,,,,,,,,,,,,,,,,,,,,,,,,,,,,,,,,,,,,,,,,,,,,,,,,,,,,,,,,,,,,,,,
,,,,,,616bb057f8368c4787a35348,62c5398e54c23d5b03dab9c2,2022-07-06_09h29.03.500,Colour_Asymmetry_Pilot,2022.1.3,Win32,60.07088364,62c50e9c1127f2cd403a315f,0,127,127,93,1,threefour,,,,,,,,,,,,,,,,,,,,,,,,,,,,,,,,,,,,,,,,,,,,,,,,,,,,,,,,,,,,,,,,,,,,,,,,,,,,,,,,,,,,,,,,,,,,,,,,,,,,,,,,,,,,,,,,,,,,,,,,,,,,,,,,,,,,,,,,,,,,,,,,,,,,,,,,,,,,,
,,,,,,616bb057f8368c4787a35348,62c5398e54c23d5b03dab9c2,2022-07-06_09h29.03.500,Colour_Asymmetry_Pilot,2022.1.3,Win32,60.07088364,62c50e9c1127f2cd403a315f,0,128,128,125,1,threefour,,,,,,,,,,,,,,,,,,,,,,,,,,,,,,,,,,,,,,,,,,,,,,,,,,,,,,,,,,,,,,,,,,,,,,,,,,,,,,,,,,,,,,,,,,,,,,,,,,,,,,,,,,,,,,,,,,,,,,,,,,,,,,,,,,,,,,,,,,,,,,,,,,,,,,,,,,,,,
,,,,,,616bb057f8368c4787a35348,62c5398e54c23d5b03dab9c2,2022-07-06_09h29.03.500,Colour_Asymmetry_Pilot,2022.1.3,Win32,60.07088364,62c50e9c1127f2cd403a315f,0,129,129,0,1,onetwo,,,,,,,,,,,,,,,,,,,,,,,,,,,,,,,,,,,,,,,,,,,,,,,,,,,,,,,,,,,,,,,,,,,,,,,,,,,,,,,,,,,,,,,,,,,,,,,,,,,,,,,,,,,,,,,,,,,,,,,,,,,,,,,,,,,,,,,,,,,,,,,,,,,,,,,,,,,,,
,,,,,,616bb057f8368c4787a35348,62c5398e54c23d5b03dab9c2,2022-07-06_09h29.03.500,Colour_Asymmetry_Pilot,2022.1.3,Win32,60.07088364,62c50e9c1127f2cd403a315f,0,130,130,42,1,twoone,,,,,,,,,,,,,,,,,,,,,,,,,,,,,,,,,,,,,,,,,,,,,,,,,,,,,,,,,,,,,,,,,,,,,,,,,,,,,,,,,,,,,,,,,,,,,,,,,,,,,,,,,,,,,,,,,,,,,,,,,,,,,,,,,,,,,,,,,,,,,,,,,,,,,,,,,,,,,
,,,,,,616bb057f8368c4787a35348,62c5398e54c23d5b03dab9c2,2022-07-06_09h29.03.500,Colour_Asymmetry_Pilot,2022.1.3,Win32,60.07088364,62c50e9c1127f2cd403a315f,0,131,131,146,1,twoone,,,,,,,,,,,,,,,,,,,,,,,,,,,,,,,,,,,,,,,,,,,,,,,,,,,,,,,,,,,,,,,,,,,,,,,,,,,,,,,,,,,,,,,,,,,,,,,,,,,,,,,,,,,,,,,,,,,,,,,,,,,,,,,,,,,,,,,,,,,,,,,,,,,,,,,,,,,,,
,,,,,,616bb057f8368c4787a35348,62c5398e54c23d5b03dab9c2,2022-07-06_09h29.03.500,Colour_Asymmetry_Pilot,2022.1.3,Win32,60.07088364,62c50e9c1127f2cd403a315f,0,132,132,25,1,onethree,,,,,,,,,,,,,,,,,,,,,,,,,,,,,,,,,,,,,,,,,,,,,,,,,,,,,,,,,,,,,,,,,,,,,,,,,,,,,,,,,,,,,,,,,,,,,,,,,,,,,,,,,,,,,,,,,,,,,,,,,,,,,,,,,,,,,,,,,,,,,,,,,,,,,,,,,,,,,
,,,,,,616bb057f8368c4787a35348,62c5398e54c23d5b03dab9c2,2022-07-06_09h29.03.500,Colour_Asymmetry_Pilot,2022.1.3,Win32,60.07088364,62c50e9c1127f2cd403a315f,0,133,133,32,1,onetwo,,,,,,,,,,,,,,,,,,,,,,,,,,,,,,,,,,,,,,,,,,,,,,,,,,,,,,,,,,,,,,,,,,,,,,,,,,,,,,,,,,,,,,,,,,,,,,,,,,,,,,,,,,,,,,,,,,,,,,,,,,,,,,,,,,,,,,,,,,,,,,,,,,,,,,,,,,,,,
,,,,,,616bb057f8368c4787a35348,62c5398e54c23d5b03dab9c2,2022-07-06_09h29.03.500,Colour_Asymmetry_Pilot,2022.1.3,Win32,60.07088364,62c50e9c1127f2cd403a315f,0,134,134,47,1,fourthree,,,,,,,,,,,,,,,,,,,,,,,,,,,,,,,,,,,,,,,,,,,,,,,,,,,,,,,,,,,,,,,,,,,,,,,,,,,,,,,,,,,,,,,,,,,,,,,,,,,,,,,,,,,,,,,,,,,,,,,,,,,,,,,,,,,,,,,,,,,,,,,,,,,,,,,,,,,,,
,,,,,,616bb057f8368c4787a35348,62c5398e54c23d5b03dab9c2,2022-07-06_09h29.03.500,Colour_Asymmetry_Pilot,2022.1.3,Win32,60.07088364,62c50e9c1127f2cd403a315f,0,135,135,57,1,onethree,,,,,,,,,,,,,,,,,,,,,,,,,,,,,,,,,,,,,,,,,,,,,,,,,,,,,,,,,,,,,,,,,,,,,,,,,,,,,,,,,,,,,,,,,,,,,,,,,,,,,,,,,,,,,,,,,,,,,,,,,,,,,,,,,,,,,,,,,,,,,,,,,,,,,,,,,,,,,
,,,,,,616bb057f8368c4787a35348,62c5398e54c23d5b03dab9c2,2022-07-06_09h29.03.500,Colour_Asymmetry_Pilot,2022.1.3,Win32,60.07088364,62c50e9c1127f2cd403a315f,0,136,136,140,1,threeone,,,,,,,,,,,,,,,,,,,,,,,,,,,,,,,,,,,,,,,,,,,,,,,,,,,,,,,,,,,,,,,,,,,,,,,,,,,,,,,,,,,,,,,,,,,,,,,,,,,,,,,,,,,,,,,,,,,,,,,,,,,,,,,,,,,,,,,,,,,,,,,,,,,,,,,,,,,,,
,,,,,,616bb057f8368c4787a35348,62c5398e54c23d5b03dab9c2,2022-07-06_09h29.03.500,Colour_Asymmetry_Pilot,2022.1.3,Win32,60.07088364,62c50e9c1127f2cd403a315f,0,137,137,107,1,twofour,,,,,,,,,,,,,,,,,,,,,,,,,,,,,,,,,,,,,,,,,,,,,,,,,,,,,,,,,,,,,,,,,,,,,,,,,,,,,,,,,,,,,,,,,,,,,,,,,,,,,,,,,,,,,,,,,,,,,,,,,,,,,,,,,,,,,,,,,,,,,,,,,,,,,,,,,,,,,
,,,,,,616bb057f8368c4787a35348,62c5398e54c23d5b03dab9c2,2022-07-06_09h29.03.500,Colour_Asymmetry_Pilot,2022.1.3,Win32,60.07088364,62c50e9c1127f2cd403a315f,0,138,138,153,1,onethree,,,,,,,,,,,,,,,,,,,,,,,,,,,,,,,,,,,,,,,,,,,,,,,,,,,,,,,,,,,,,,,,,,,,,,,,,,,,,,,,,,,,,,,,,,,,,,,,,,,,,,,,,,,,,,,,,,,,,,,,,,,,,,,,,,,,,,,,,,,,,,,,,,,,,,,,,,,,,
,,,,,,616bb057f8368c4787a35348,62c5398e54c23d5b03dab9c2,2022-07-06_09h29.03.500,Colour_Asymmetry_Pilot,2022.1.3,Win32,60.07088364,62c50e9c1127f2cd403a315f,0,139,139,26,1,twoone,,,,,,,,,,,,,,,,,,,,,,,,,,,,,,,,,,,,,,,,,,,,,,,,,,,,,,,,,,,,,,,,,,,,,,,,,,,,,,,,,,,,,,,,,,,,,,,,,,,,,,,,,,,,,,,,,,,,,,,,,,,,,,,,,,,,,,,,,,,,,,,,,,,,,,,,,,,,,
,,,,,,616bb057f8368c4787a35348,62c5398e54c23d5b03dab9c2,2022-07-06_09h29.03.500,Colour_Asymmetry_Pilot,2022.1.3,Win32,60.07088364,62c50e9c1127f2cd403a315f,0,140,140,53,1,threefour,,,,,,,,,,,,,,,,,,,,,,,,,,,,,,,,,,,,,,,,,,,,,,,,,,,,,,,,,,,,,,,,,,,,,,,,,,,,,,,,,,,,,,,,,,,,,,,,,,,,,,,,,,,,,,,,,,,,,,,,,,,,,,,,,,,,,,,,,,,,,,,,,,,,,,,,,,,,,
,,,,,,616bb057f8368c4787a35348,62c5398e54c23d5b03dab9c2,2022-07-06_09h29.03.500,Colour_Asymmetry_Pilot,2022.1.3,Win32,60.07088364,62c50e9c1127f2cd403a315f,0,141,141,67,1,twofour,,,,,,,,,,,,,,,,,,,,,,,,,,,,,,,,,,,,,,,,,,,,,,,,,,,,,,,,,,,,,,,,,,,,,,,,,,,,,,,,,,,,,,,,,,,,,,,,,,,,,,,,,,,,,,,,,,,,,,,,,,,,,,,,,,,,,,,,,,,,,,,,,,,,,,,,,,,,,
,,,,,,616bb057f8368c4787a35348,62c5398e54c23d5b03dab9c2,2022-07-06_09h29.03.500,Colour_Asymmetry_Pilot,2022.1.3,Win32,60.07088364,62c50e9c1127f2cd403a315f,0,142,142,31,1,fourthree,,,,,,,,,,,,,,,,,,,,,,,,,,,,,,,,,,,,,,,,,,,,,,,,,,,,,,,,,,,,,,,,,,,,,,,,,,,,,,,,,,,,,,,,,,,,,,,,,,,,,,,,,,,,,,,,,,,,,,,,,,,,,,,,,,,,,,,,,,,,,,,,,,,,,,,,,,,,,
,,,,,,616bb057f8368c4787a35348,62c5398e54c23d5b03dab9c2,2022-07-06_09h29.03.500,Colour_Asymmetry_Pilot,2022.1.3,Win32,60.07088364,62c50e9c1127f2cd403a315f,0,143,143,160,1,onetwo,,,,,,,,,,,,,,,,,,,,,,,,,,,,,,,,,,,,,,,,,,,,,,,,,,,,,,,,,,,,,,,,,,,,,,,,,,,,,,,,,,,,,,,,,,,,,,,,,,,,,,,,,,,,,,,,,,,,,,,,,,,,,,,,,,,,,,,,,,,,,,,,,,,,,,,,,,,,,
,,,,,,616bb057f8368c4787a35348,62c5398e54c23d5b03dab9c2,2022-07-06_09h29.03.500,Colour_Asymmetry_Pilot,2022.1.3,Win32,60.07088364,62c50e9c1127f2cd403a315f,0,144,144,101,1,threefour,,,,,,,,,,,,,,,,,,,,,,,,,,,,,,,,,,,,,,,,,,,,,,,,,,,,,,,,,,,,,,,,,,,,,,,,,,,,,,,,,,,,,,,,,,,,,,,,,,,,,,,,,,,,,,,,,,,,,,,,,,,,,,,,,,,,,,,,,,,,,,,,,,,,,,,,,,,,,
,,,,,,616bb057f8368c4787a35348,62c5398e54c23d5b03dab9c2,2022-07-06_09h29.03.500,Colour_Asymmetry_Pilot,2022.1.3,Win32,60.07088364,62c50e9c1127f2cd403a315f,0,145,145,51,1,twofour,,,,,,,,,,,,,,,,,,,,,,,,,,,,,,,,,,,,,,,,,,,,,,,,,,,,,,,,,,,,,,,,,,,,,,,,,,,,,,,,,,,,,,,,,,,,,,,,,,,,,,,,,,,,,,,,,,,,,,,,,,,,,,,,,,,,,,,,,,,,,,,,,,,,,,,,,,,,,
,,,,,,616bb057f8368c4787a35348,62c5398e54c23d5b03dab9c2,2022-07-06_09h29.03.500,Colour_Asymmetry_Pilot,2022.1.3,Win32,60.07088364,62c50e9c1127f2cd403a315f,0,146,146,17,1,onethree,,,,,,,,,,,,,,,,,,,,,,,,,,,,,,,,,,,,,,,,,,,,,,,,,,,,,,,,,,,,,,,,,,,,,,,,,,,,,,,,,,,,,,,,,,,,,,,,,,,,,,,,,,,,,,,,,,,,,,,,,,,,,,,,,,,,,,,,,,,,,,,,,,,,,,,,,,,,,
,,,,,,616bb057f8368c4787a35348,62c5398e54c23d5b03dab9c2,2022-07-06_09h29.03.500,Colour_Asymmetry_Pilot,2022.1.3,Win32,60.07088364,62c50e9c1127f2cd403a315f,0,147,147,119,1,fourthree,,,,,,,,,,,,,,,,,,,,,,,,,,,,,,,,,,,,,,,,,,,,,,,,,,,,,,,,,,,,,,,,,,,,,,,,,,,,,,,,,,,,,,,,,,,,,,,,,,,,,,,,,,,,,,,,,,,,,,,,,,,,,,,,,,,,,,,,,,,,,,,,,,,,,,,,,,,,,
,,,,,,616bb057f8368c4787a35348,62c5398e54c23d5b03dab9c2,2022-07-06_09h29.03.500,Colour_Asymmetry_Pilot,2022.1.3,Win32,60.07088364,62c50e9c1127f2cd403a315f,0,148,148,80,1,onetwo,,,,,,,,,,,,,,,,,,,,,,,,,,,,,,,,,,,,,,,,,,,,,,,,,,,,,,,,,,,,,,,,,,,,,,,,,,,,,,,,,,,,,,,,,,,,,,,,,,,,,,,,,,,,,,,,,,,,,,,,,,,,,,,,,,,,,,,,,,,,,,,,,,,,,,,,,,,,,
,,,,,,616bb057f8368c4787a35348,62c5398e54c23d5b03dab9c2,2022-07-06_09h29.03.500,Colour_Asymmetry_Pilot,2022.1.3,Win32,60.07088364,62c50e9c1127f2cd403a315f,0,149,149,106,1,twoone,,,,,,,,,,,,,,,,,,,,,,,,,,,,,,,,,,,,,,,,,,,,,,,,,,,,,,,,,,,,,,,,,,,,,,,,,,,,,,,,,,,,,,,,,,,,,,,,,,,,,,,,,,,,,,,,,,,,,,,,,,,,,,,,,,,,,,,,,,,,,,,,,,,,,,,,,,,,,
,,,,,,616bb057f8368c4787a35348,62c5398e54c23d5b03dab9c2,2022-07-06_09h29.03.500,Colour_Asymmetry_Pilot,2022.1.3,Win32,60.07088364,62c50e9c1127f2cd403a315f,0,150,150,143,1,fourthree,,,,,,,,,,,,,,,,,,,,,,,,,,,,,,,,,,,,,,,,,,,,,,,,,,,,,,,,,,,,,,,,,,,,,,,,,,,,,,,,,,,,,,,,,,,,,,,,,,,,,,,,,,,,,,,,,,,,,,,,,,,,,,,,,,,,,,,,,,,,,,,,,,,,,,,,,,,,,
,,,,,,616bb057f8368c4787a35348,62c5398e54c23d5b03dab9c2,2022-07-06_09h29.03.500,Colour_Asymmetry_Pilot,2022.1.3,Win32,60.07088364,62c50e9c1127f2cd403a315f,0,151,151,79,1,fourthree,,,,,,,,,,,,,,,,,,,,,,,,,,,,,,,,,,,,,,,,,,,,,,,,,,,,,,,,,,,,,,,,,,,,,,,,,,,,,,,,,,,,,,,,,,,,,,,,,,,,,,,,,,,,,,,,,,,,,,,,,,,,,,,,,,,,,,,,,,,,,,,,,,,,,,,,,,,,,
,,,,,,616bb057f8368c4787a35348,62c5398e54c23d5b03dab9c2,2022-07-06_09h29.03.500,Colour_Asymmetry_Pilot,2022.1.3,Win32,60.07088364,62c50e9c1127f2cd403a315f,0,152,152,155,1,twofour,,,,,,,,,,,,,,,,,,,,,,,,,,,,,,,,,,,,,,,,,,,,,,,,,,,,,,,,,,,,,,,,,,,,,,,,,,,,,,,,,,,,,,,,,,,,,,,,,,,,,,,,,,,,,,,,,,,,,,,,,,,,,,,,,,,,,,,,,,,,,,,,,,,,,,,,,,,,,
,,,,,,616bb057f8368c4787a35348,62c5398e54c23d5b03dab9c2,2022-07-06_09h29.03.500,Colour_Asymmetry_Pilot,2022.1.3,Win32,60.07088364,62c50e9c1127f2cd403a315f,0,153,153,118,1,fourtwo,,,,,,,,,,,,,,,,,,,,,,,,,,,,,,,,,,,,,,,,,,,,,,,,,,,,,,,,,,,,,,,,,,,,,,,,,,,,,,,,,,,,,,,,,,,,,,,,,,,,,,,,,,,,,,,,,,,,,,,,,,,,,,,,,,,,,,,,,,,,,,,,,,,,,,,,,,,,,
,,,,,,616bb057f8368c4787a35348,62c5398e54c23d5b03dab9c2,2022-07-06_09h29.03.500,Colour_Asymmetry_Pilot,2022.1.3,Win32,60.07088364,62c50e9c1127f2cd403a315f,0,154,154,23,1,fourthree,,,,,,,,,,,,,,,,,,,,,,,,,,,,,,,,,,,,,,,,,,,,,,,,,,,,,,,,,,,,,,,,,,,,,,,,,,,,,,,,,,,,,,,,,,,,,,,,,,,,,,,,,,,,,,,,,,,,,,,,,,,,,,,,,,,,,,,,,,,,,,,,,,,,,,,,,,,,,
,,,,,,616bb057f8368c4787a35348,62c5398e54c23d5b03dab9c2,2022-07-06_09h29.03.500,Colour_Asymmetry_Pilot,2022.1.3,Win32,60.07088364,62c50e9c1127f2cd403a315f,0,155,155,95,1,fourthree,,,,,,,,,,,,,,,,,,,,,,,,,,,,,,,,,,,,,,,,,,,,,,,,,,,,,,,,,,,,,,,,,,,,,,,,,,,,,,,,,,,,,,,,,,,,,,,,,,,,,,,,,,,,,,,,,,,,,,,,,,,,,,,,,,,,,,,,,,,,,,,,,,,,,,,,,,,,,
,,,,,,616bb057f8368c4787a35348,62c5398e54c23d5b03dab9c2,2022-07-06_09h29.03.500,Colour_Asymmetry_Pilot,2022.1.3,Win32,60.07088364,62c50e9c1127f2cd403a315f,0,156,156,123,1,twofour,,,,,,,,,,,,,,,,,,,,,,,,,,,,,,,,,,,,,,,,,,,,,,,,,,,,,,,,,,,,,,,,,,,,,,,,,,,,,,,,,,,,,,,,,,,,,,,,,,,,,,,,,,,,,,,,,,,,,,,,,,,,,,,,,,,,,,,,,,,,,,,,,,,,,,,,,,,,,
,,,,,,616bb057f8368c4787a35348,62c5398e54c23d5b03dab9c2,2022-07-06_09h29.03.500,Colour_Asymmetry_Pilot,2022.1.3,Win32,60.07088364,62c50e9c1127f2cd403a315f,0,157,157,134,1,fourtwo,,,,,,,,,,,,,,,,,,,,,,,,,,,,,,,,,,,,,,,,,,,,,,,,,,,,,,,,,,,,,,,,,,,,,,,,,,,,,,,,,,,,,,,,,,,,,,,,,,,,,,,,,,,,,,,,,,,,,,,,,,,,,,,,,,,,,,,,,,,,,,,,,,,,,,,,,,,,,
,,,,,,616bb057f8368c4787a35348,62c5398e54c23d5b03dab9c2,2022-07-06_09h29.03.500,Colour_Asymmetry_Pilot,2022.1.3,Win32,60.07088364,62c50e9c1127f2cd403a315f,0,158,158,122,1,twoone,,,,,,,,,,,,,,,,,,,,,,,,,,,,,,,,,,,,,,,,,,,,,,,,,,,,,,,,,,,,,,,,,,,,,,,,,,,,,,,,,,,,,,,,,,,,,,,,,,,,,,,,,,,,,,,,,,,,,,,,,,,,,,,,,,,,,,,,,,,,,,,,,,,,,,,,,,,,,
,,,,,,616bb057f8368c4787a35348,62c5398e54c23d5b03dab9c2,2022-07-06_09h29.03.500,Colour_Asymmetry_Pilot,2022.1.3,Win32,60.07088364,62c50e9c1127f2cd403a315f,0,159,159,124,1,threeone,,,,,,,,,,,,,,,,,,,,,,,,,,,,,,,,,,,,,,,,,,,,,,,,,,,,,,,,,,,,,,,,,,,,,,,,,,,,,,,,,,,,,,,,,,,,,,,,,,,,,,,,,,,,,,,,,,,,,,,,,,,,,,,,,,,,,,,,,,,,,,,,,,,,,,,,,,,,,
,,,,,,616bb057f8368c4787a35348,62c5398e54c23d5b03dab9c2,2022-07-06_09h29.03.500,Colour_Asymmetry_Pilot,2022.1.3,Win32,60.07088364,62c50e9c1127f2cd403a315f,0,160,160,83,1,twofour,,,,,,,,,,,,,,,,,,,,,,,,,,,,,,,,,,,,,,,,,,,,,,,,,,,,,,,,,,,,,,,,,,,,,,,,,,,,,,,,,,,,,,,,,,,,,,,,,,,,,,,,,,,,,,,,,,,,,,,,,,,,,,,,,,,,,,,,,,,,,,,,,,,,,,,,,,,,,
,,,,,,616bb057f8368c4787a35348,62c5398e54c23d5b03dab9c2,2022-07-06_09h29.03.500,Colour_Asymmetry_Pilot,2022.1.3,Win32,60.07088364,62c50e9c1127f2cd403a315f,0,161,161,48,1,onetwo,,,,,,,,,,,,,,,,,,,,,,,,,,,,,,,,,,,,,,,,,,,,,,,,,,,,,,,,,,,,,,,,,,,,,,,,,,,,,,,,,,,,,,,,,,,,,,,,,,,,,,,,,,,,,,,,,,,,,,,,,,,,,,,,,,,,,,,,,,,,,,,,,,,,,,,,,,,,,
,,,,,,616bb057f8368c4787a35348,62c5398e54c23d5b03dab9c2,2022-07-06_09h29.03.500,Colour_Asymmetry_Pilot,2022.1.3,Win32,60.07088364,62c50e9c1127f2cd403a315f,,,,,,,space,3.5766,space,4.0994,space,33.6191,space,35.8863,space,7.2938,space,7.1979,"[0.19199999999999995,0.18419999999999992,0.5136000000000001]",fourtwo,"[-0.5452,-0.608,0.2470000000000001]",4,6.1114,52,79,1,0,0,response1disk_5,-6,-4,1,0,0,rectangle_8,-6,-4,1,0,0,3,-6,-4,1,0,0,0,0,0,0,1,,,,,,,,,,,,,,,,,,,,,,,,,,,,,,,,,,,,,,,,,,,,,,,,,,,,,,,,,,,,,,,,,,,,,,,,,,,,,,,,,,,,,,,,,,,,,,,,,,,,,,,,,,,,,,,,
,,,,,,616bb057f8368c4787a35348,62c5398e54c23d5b03dab9c2,2022-07-06_09h29.03.500,Colour_Asymmetry_Pilot,2022.1.3,Win32,60.07088364,62c50e9c1127f2cd403a315f,,,,,,,,,,,,,,,,,,,"[0.2784,-0.31000000000000005,-0.5452]",onetwo,"[0.23920000000000008,0.2704,0.16060000000000008]",-4,8.5528,-34,68,1,0,0,response7disk_5,-1,2,1,0,0,rectangle_8,-1,2,1,0,0,3,-1,2,1,0,0,1,0,1,0,1,,,,,,,,,,,,,,,,,,,,,,,,,,,,,,,,,,,,,,,,,,,,,,,,,,,,,,,,,,,,,,,,,,,,,,,,,,,,,,,,,,,,,,,,,,,,,,,,,,,,,,,,,,,,,,,,
,,,,,,616bb057f8368c4787a35348,62c5398e54c23d5b03dab9c2,2022-07-06_09h29.03.500,Colour_Asymmetry_Pilot,2022.1.3,Win32,60.07088364,62c50e9c1127f2cd403a315f,,,,,,,,,,,,,,,,,,,"[0.23120000000000007,-0.7726,-0.34120000000000006]",twofour,"[-0.0040000000000000036,0.02739999999999987,-0.08239999999999992]",-4,10.5713,-40,84,1,0,0,response7disk_5,3,0,1,0,0,rectangle_8,3,0,1,0,0,3,3,0,1,0,0,2,0,2,0,1,,,,,,,,,,,,,,,,,,,,,,,,,,,,,,,,,,,,,,,,,,,,,,,,,,,,,,,,,,,,,,,,,,,,,,,,,,,,,,,,,,,,,,,,,,,,,,,,,,,,,,,,,,,,,,,,
,,,,,,616bb057f8368c4787a35348,62c5398e54c23d5b03dab9c2,2022-07-06_09h29.03.500,Colour_Asymmetry_Pilot,2022.1.3,Win32,60.07088364,62c50e9c1127f2cd403a315f,,,,,,,,,,,,,,,,,,,"[0.4196,0.4665999999999999,0.3568]",threeone,"[0.6625999999999999,0.4980000000000002,-0.357]",-4,2.2348,-34,79,1,0,0,response7disk_5,10,-1,1,0,0,rectangle_8,96,39,1,0,0,3,1,-5,1,0,0,3,0,3,0,1,response1disk_7,6,rectangle_4,,,,,,,,,,,,,,,,,,,,,,,,,,,,,,,,,,,,,,,,,,,,,,,,,,,,,,,,,,,,,,,,,,,,,,,,,,,,,,,,,,,,,,,,,,,,,,,,,,,,,,,,,,,,,
,,,,,,616bb057f8368c4787a35348,62c5398e54c23d5b03dab9c2,2022-07-06_09h29.03.500,Colour_Asymmetry_Pilot,2022.1.3,Win32,60.07088364,62c50e9c1127f2cd403a315f,,,,,,,,,,,,,,,,,,,"[0.04299999999999993,0.16060000000000008,-0.6628000000000001]",fourthree,"[-0.4982,-0.2942,-0.0354000000000001]",-4,1.6502,-34,83,1,0,0,response7disk_5,-15,-1,1,0,0,rectangle_8,-15,-1,1,0,0,3,-15,-1,1,0,0,4,0,4,0,1,,,,,,,,,,,,,,,,,,,,,,,,,,,,,,,,,,,,,,,,,,,,,,,,,,,,,,,,,,,,,,,,,,,,,,,,,,,,,,,,,,,,,,,,,,,,,,,,,,,,,,,,,,,,,,,,
,,,,,,616bb057f8368c4787a35348,62c5398e54c23d5b03dab9c2,2022-07-06_09h29.03.500,Colour_Asymmetry_Pilot,2022.1.3,Win32,60.07088364,62c50e9c1127f2cd403a315f,,,,,,,,,,,,,,,,,,,"[0.11359999999999992,0.6312,0.5213999999999999]",onethree,"[0.30180000000000007,-0.7884,-0.9844]",-4,1.2829,-31,68,1,0,0,response7disk_5,-2,-7,1,0,0,rectangle_8,84,42,1,0,0,3,10,-2,1,0,0,5,0,5,0,1,response1disk_7,6,rectangle_4,,,,,,,,,,,,,,,,,,,,,,,,,,,,,,,,,,,,,,,,,,,,,,,,,,,,,,,,,,,,,,,,,,,,,,,,,,,,,,,,,,,,,,,,,,,,,,,,,,,,,,,,,,,,,
,,,,,,616bb057f8368c4787a35348,62c5398e54c23d5b03dab9c2,2022-07-06_09h29.03.500,Colour_Asymmetry_Pilot,2022.1.3,Win32,60.07088364,62c50e9c1127f2cd403a315f,,,,,,,,,,,,,,,,,,,"[0.9686000000000001,0.5763999999999998,0.11359999999999992]",threefour,"[-0.7412000000000001,-0.08239999999999992,-0.6864]",-4,1.6995,-35,86,1,0,0,response7disk_5,7,-3,1,0,0,rectangle_8,7,-3,1,0,0,3,7,-3,1,0,0,6,0,6,0,1,,,,,,,,,,,,,,,,,,,,,,,,,,,,,,,,,,,,,,,,,,,,,,,,,,,,,,,,,,,,,,,,,,,,,,,,,,,,,,,,,,,,,,,,,,,,,,,,,,,,,,,,,,,,,,,,
,,,,,,616bb057f8368c4787a35348,62c5398e54c23d5b03dab9c2,2022-07-06_09h29.03.500,Colour_Asymmetry_Pilot,2022.1.3,Win32,60.07088364,62c50e9c1127f2cd403a315f,,,,,,,,,,,,,,,,,,,,onetwo,,-4,1.7865,,,,,,,,,,,,,,,,,,,,,,,,,,,,,,,,space,6.0359,"[-0.050999999999999934,-0.6706000000000001,-0.804]","[0.0351999999999999,0.41159999999999997,0.0038000000000000256]",-49,86,1,0,0,response7disk,2,-1,1,0,0,rectangle,92,37,1,0,0,response1disk_3,3,3,2.9347,1,-5,2,1,0,0,rectangle,0,0,0,55,1,55,first,,,,,,,,,,,,,,,,,,,,,,,,,,,,,,,,,,,,,,,,,,,,,,,,,,,,,,,,,,,,,,,,,,,,,,
,,,,,,616bb057f8368c4787a35348,62c5398e54c23d5b03dab9c2,2022-07-06_09h29.03.500,Colour_Asymmetry_Pilot,2022.1.3,Win32,60.07088364,62c50e9c1127f2cd403a315f,,,,,,,,,,,,,,,,,,,,threefour,,-4,1.1175,,,,,,,,,,,,,,,,,,,,,,,,,,,,,,,,,,"[-0.09019999999999995,0.44300000000000006,0.5371999999999999]","[0.34099999999999997,0.5841999999999998,-0.9844]",-35,92,1,0,0,response7disk,8,3,1,0,0,rectangle,32,-95,1,0,0,response3disk_3,1,1,3.1505,1,16,5,1,0,0,rectangle,0,1,1,159,1,78,second,,,,,,,,,,,,,,,,,,,,,,,,,,,,,,,,,,,,,,,,,,,,,,,,,,,,,,,,,,,,,,,,,,,,,,
,,,,,,616bb057f8368c4787a35348,62c5398e54c23d5b03dab9c2,2022-07-06_09h29.03.500,Colour_Asymmetry_Pilot,2022.1.3,Win32,60.07088364,62c50e9c1127f2cd403a315f,,,,,,,,,,,,,,,,,,,,onetwo,,-4,0.9673,,,,,,,,,,,,,,,,,,,,,,,,,,,,,,,,,,"[0.796,0.2156,-0.27859999999999996]","[0.7646000000000002,0.07440000000000002,0.2704]",-34,81,1,0,0,response7disk,10,-4,1,0,0,rectangle,10,-4,1,0,0,,1,2,0.0025,0,10,-4,1,0,0,,0,2,2,63,1,63,first,,,,,,,,,,,,,,,,,,,,,,,,,,,,,,,,,,,,,,,,,,,,,,,,,,,,,,,,,,,,,,,,,,,,,,
,,,,,,616bb057f8368c4787a35348,62c5398e54c23d5b03dab9c2,2022-07-06_09h29.03.500,Colour_Asymmetry_Pilot,2022.1.3,Win32,60.07088364,62c50e9c1127f2cd403a315f,,,,,,,,,,,,,,,,,,,,twoone,,-4,0.8506,,,,,,,,,,,,,,,,,,,,,,,,,,,,,,,,,,"[-0.9138,-0.5296000000000001,-0.5529999999999999]","[0.19199999999999995,0.18419999999999992,0.5136000000000001]",-37,75,1,0,0,response7disk,6,-1,1,0,0,rectangle,66,-88,1,0,0,response3disk_3,1,1,2.0988,1,-6,7,1,0,0,rectangle,0,3,3,160,1,79,second,,,,,,,,,,,,,,,,,,,,,,,,,,,,,,,,,,,,,,,,,,,,,,,,,,,,,,,,,,,,,,,,,,,,,,
,,,,,,616bb057f8368c4787a35348,62c5398e54c23d5b03dab9c2,2022-07-06_09h29.03.500,Colour_Asymmetry_Pilot,2022.1.3,Win32,60.07088364,62c50e9c1127f2cd403a315f,,,,,,,,,,,,,,,,,,,,onetwo,,-4,1.6163,,,,,,,,,,,,,,,,,,,,,,,,,,,,,,,,,,"[-0.10599999999999998,-0.15300000000000002,0.15280000000000005]","[-0.24719999999999998,0.5213999999999999,-0.12959999999999994]",-55,78,1,0,0,response7disk,3,-6,1,0,0,rectangle,3,-6,1,0,0,,1,2,0.0017,0,3,-6,1,0,0,,0,4,4,12,1,12,first,,,,,,,,,,,,,,,,,,,,,,,,,,,,,,,,,,,,,,,,,,,,,,,,,,,,,,,,,,,,,,,,,,,,,,
,,,,,,616bb057f8368c4787a35348,62c5398e54c23d5b03dab9c2,2022-07-06_09h29.03.500,Colour_Asymmetry_Pilot,2022.1.3,Win32,60.07088364,62c50e9c1127f2cd403a315f,,,,,,,,,,,,,,,,,,,,fourthree,,-4,1.0796,,,,,,,,,,,,,,,,,,,,,,,,,,,,,,,,,,"[-0.4902000000000001,0.2704,-0.45899999999999996]","[0.11359999999999992,0.6312,0.5213999999999999]",-35,86,1,0,0,response7disk,4,8,1,0,0,rectangle,4,8,1,0,0,,1,3,0.0021,0,4,8,1,0,0,,0,5,5,133,1,52,second,,,,,,,,,,,,,,,,,,,,,,,,,,,,,,,,,,,,,,,,,,,,,,,,,,,,,,,,,,,,,,,,,,,,,,
,,,,,,616bb057f8368c4787a35348,62c5398e54c23d5b03dab9c2,2022-07-06_09h29.03.500,Colour_Asymmetry_Pilot,2022.1.3,Win32,60.07088364,62c50e9c1127f2cd403a315f,,,,,,,,,,,,,,,,,,,,twoone,,-4,1.1344,,,,,,,,,,,,,,,,,,,,,,,,,,,,,,,,,,"[0.11359999999999992,0.6312,0.5213999999999999]","[-0.34920000000000007,-0.702,-0.5216]",-31,77,1,0,0,response7disk,-4,2,1,0,0,rectangle,-4,2,1,0,0,,1,1,0.0024,0,-4,2,1,0,0,,0,6,6,71,1,71,first,,,,,,,,,,,,,,,,,,,,,,,,,,,,,,,,,,,,,,,,,,,,,,,,,,,,,,,,,,,,,,,,,,,,,,
,,,,,,616bb057f8368c4787a35348,62c5398e54c23d5b03dab9c2,2022-07-06_09h29.03.500,Colour_Asymmetry_Pilot,2022.1.3,Win32,60.07088364,62c50e9c1127f2cd403a315f,,,,,,,,,,,,,,,,,,,,onethree,,-3,4.4681,,,,,,,,,,,,,,,,,,,,,,,,,,,,,,,,,,"[-0.0040000000000000036,0.02739999999999987,-0.08239999999999992]","[0.30180000000000007,-0.7884,-0.9844]",-73,29,1,0,0,response7disk,-23,4,1,0,0,rectangle,-23,4,1,0,0,,1,2,0.0025,0,-23,4,1,0,0,,0,7,7,156,1,75,second,,,,,,,,,,,,,,,,,,,,,,,,,,,,,,,,,,,,,,,,,,,,,,,,,,,,,,,,,,,,,,,,,,,,,,
,,,,,,616bb057f8368c4787a35348,62c5398e54c23d5b03dab9c2,2022-07-06_09h29.03.500,Colour_Asymmetry_Pilot,2022.1.3,Win32,60.07088364,62c50e9c1127f2cd403a315f,,,,,,,,,,,,,,,,,,,,onetwo,,-4,2.1397,,,,,,,,,,,,,,,,,,,,,,,,,,,,,,,,,,"[-0.34920000000000007,-0.702,-0.5216]","[0.34099999999999997,0.5841999999999998,-0.9844]",-41,80,1,0,0,response7disk,15,-6,1,0,0,rectangle,15,-6,1,0,0,,1,1,0.0016,0,15,-6,1,0,0,,0,8,8,111,1,30,second,,,,,,,,,,,,,,,,,,,,,,,,,,,,,,,,,,,,,,,,,,,,,,,,,,,,,,,,,,,,,,,,,,,,,,
,,,,,,616bb057f8368c4787a35348,62c5398e54c23d5b03dab9c2,2022-07-06_09h29.03.500,Colour_Asymmetry_Pilot,2022.1.3,Win32,60.07088364,62c50e9c1127f2cd403a315f,,,,,,,,,,,,,,,,,,,,onethree,,-4,1.0007,,,,,,,,,,,,,,,,,,,,,,,,,,,,,,,,,,"[-0.17659999999999998,0.3253999999999999,0.19999999999999996]","[0.40379999999999994,0.09000000000000008,0.44300000000000006]",-53,80,1,0,0,response7disk,2,-1,1,0,0,rectangle,2,-1,1,0,0,,1,1,0.0004,0,2,-1,1,0,0,,0,9,9,67,1,67,first,,,,,,,,,,,,,,,,,,,,,,,,,,,,,,,,,,,,,,,,,,,,,,,,,,,,,,,,,,,,,,,,,,,,,,
,,,,,,616bb057f8368c4787a35348,62c5398e54c23d5b03dab9c2,2022-07-06_09h29.03.500,Colour_Asymmetry_Pilot,2022.1.3,Win32,60.07088364,62c50e9c1127f2cd403a315f,,,,,,,,,,,,,,,,,,,,fourtwo,,-4,0.7002,,,,,,,,,,,,,,,,,,,,,,,,,,,,,,,,,,"[0.9763999999999999,0.30979999999999985,-0.6786]","[0.8274000000000001,-0.5844,-0.9452]",-45,70,1,0,0,response7disk,1,6,1,0,0,rectangle,1,6,1,0,0,,1,2,0.0016,0,1,6,1,0,0,,0,10,10,99,1,18,second,,,,,,,,,,,,,,,,,,,,,,,,,,,,,,,,,,,,,,,,,,,,,,,,,,,,,,,,,,,,,,,,,,,,,,
,,,,,,616bb057f8368c4787a35348,62c5398e54c23d5b03dab9c2,2022-07-06_09h29.03.500,Colour_Asymmetry_Pilot,2022.1.3,Win32,60.07088364,62c50e9c1127f2cd403a315f,,,,,,,,,,,,,,,,,,,,threeone,,-4,3.3974,,,,,,,,,,,,,,,,,,,,,,,,,,,,,,,,,,"[0.5528,0.7409999999999999,-0.71]","[0.37240000000000006,0.4980000000000002,-0.2864]",-36,74,1,0,0,response7disk,11,-2,1,0,0,rectangle,11,-2,1,0,0,,1,1,0.0018,0,11,-2,1,0,0,,0,11,11,107,1,26,second,,,,,,,,,,,,,,,,,,,,,,,,,,,,,,,,,,,,,,,,,,,,,,,,,,,,,,,,,,,,,,,,,,,,,,
,,,,,,616bb057f8368c4787a35348,62c5398e54c23d5b03dab9c2,2022-07-06_09h29.03.500,Colour_Asymmetry_Pilot,2022.1.3,Win32,60.07088364,62c50e9c1127f2cd403a315f,,,,,,,,,,,,,,,,,,,,threeone,,-4,1.5178,,,,,,,,,,,,,,,,,,,,,,,,,,,,,,,,,,"[0.9686000000000001,0.3802000000000001,0.19999999999999996]","[0.3568,-0.20799999999999996,-0.9844]",-31,65,1,0,0,response7disk,12,10,1,0,0,rectangle,12,10,1,0,0,,1,3,0.0019,0,12,10,1,0,0,,0,12,12,157,1,76,second,,,,,,,,,,,,,,,,,,,,,,,,,,,,,,,,,,,,,,,,,,,,,,,,,,,,,,,,,,,,,,,,,,,,,,
,,,,,,616bb057f8368c4787a35348,62c5398e54c23d5b03dab9c2,2022-07-06_09h29.03.500,Colour_Asymmetry_Pilot,2022.1.3,Win32,60.07088364,62c50e9c1127f2cd403a315f,,,,,,,,,,,,,,,,,,,,threefour,,-4,3.5863,,,,,,,,,,,,,,,,,,,,,,,,,,,,,,,,,,"[0.09799999999999986,-0.24719999999999998,0.15280000000000005]","[0.9372,0.9450000000000001,0.8980000000000001]",-29,80,1,0,0,response7disk,-3,9,1,0,0,rectangle,-3,9,1,0,0,,1,2,0.0026,0,-3,9,1,0,0,,0,13,13,138,1,57,second,,,,,,,,,,,,,,,,,,,,,,,,,,,,,,,,,,,,,,,,,,,,,,,,,,,,,,,,,,,,,,,,,,,,,,
,,,,,,616bb057f8368c4787a35348,62c5398e54c23d5b03dab9c2,2022-07-06_09h29.03.500,Colour_Asymmetry_Pilot,2022.1.3,Win32,60.07088364,62c50e9c1127f2cd403a315f,,,,,,,,,,,,,,,,,,,,threeone,,-4,35.7912,,,,,,,,,,,,,,,,,,,,,,,,,,,,,,,,,,"[-0.4982,-0.2942,-0.0354000000000001]","[-0.9296,-0.12959999999999994,-0.043199999999999905]",-19,74,1,0,0,response7disk,2,6,1,0,0,rectangle,2,6,1,0,0,,1,3,0.0027,0,2,6,1,0,0,,0,14,14,118,1,37,second,,,,,,,,,,,,,,,,,,,,,,,,,,,,,,,,,,,,,,,,,,,,,,,,,,,,,,,,,,,,,,,,,,,,,,
,,,,,,616bb057f8368c4787a35348,62c5398e54c23d5b03dab9c2,2022-07-06_09h29.03.500,Colour_Asymmetry_Pilot,2022.1.3,Win32,60.07088364,62c50e9c1127f2cd403a315f,,,,,,,,,,,,,,,,,,,,fourtwo,,-4,0.5058,,,,,,,,,,,,,,,,,,,,,,,,,,,,,,,,,,"[0.7646000000000002,0.07440000000000002,0.2704]","[0.5528,0.7409999999999999,-0.71]",-30,51,1,0,0,response7disk,8,0,1,0,0,rectangle,8,0,1,0,0,,1,1,0.0023,0,8,0,1,0,0,,0,15,15,127,1,46,second,,,,,,,,,,,,,,,,,,,,,,,,,,,,,,,,,,,,,,,,,,,,,,,,,,,,,,,,,,,,,,,,,,,,,,
,,,,,,616bb057f8368c4787a35348,62c5398e54c23d5b03dab9c2,2022-07-06_09h29.03.500,Colour_Asymmetry_Pilot,2022.1.3,Win32,60.07088364,62c50e9c1127f2cd403a315f,,,,,,,,,,,,,,,,,,,,twoone,,-4,0.6839,,,,,,,,,,,,,,,,,,,,,,,,,,,,,,,,,,"[0.7646000000000002,0.07440000000000002,0.2704]","[0.796,0.2156,-0.27859999999999996]",-40,77,1,0,0,response7disk,-11,6,1,0,0,rectangle,-11,6,1,0,0,,1,3,0.0018,0,-11,6,1,0,0,,0,16,16,144,1,63,second,,,,,,,,,,,,,,,,,,,,,,,,,,,,,,,,,,,,,,,,,,,,,,,,,,,,,,,,,,,,,,,,,,,,,,
