trials.thisRepN,trials.thisTrialN,trials.thisN,trials.thisIndex,trials.ran,Colourcodes,participant,session,date,expName,psychopyVersion,OS,frameRate,study_id,trials_4.thisRepN,trials_4.thisTrialN,trials_4.thisN,trials_4.thisIndex,trials_4.ran,StimulusPos,key_resp.keys,key_resp.rt,key_resp_2.keys,key_resp_2.rt,key_resp_15.keys,key_resp_15.rt,key_resp_17.keys,key_resp_17.rt,key_resp_9.keys,key_resp_9.rt,key_resp_10.keys,key_resp_10.rt,Circle1_col,Ecc,Circle2_col,similarity,response_time,mouse_5.x,mouse_5.y,mouse_5.leftButton,mouse_5.midButton,mouse_5.rightButton,mouse_5.clicked_name,mouse_10.x,mouse_10.y,mouse_10.leftButton,mouse_10.midButton,mouse_10.rightButton,mouse_10.clicked_name,mouse_7.x,mouse_7.y,mouse_7.leftButton,mouse_7.midButton,mouse_7.rightButton,catchnumberprac,mouse_6.x,mouse_6.y,mouse_6.leftButton,mouse_6.midButton,mouse_6.rightButton,duringprac.thisRepN,duringprac.thisTrialN,duringprac.thisN,duringprac.thisIndex,duringprac.ran,mouse_7.clicked_name,catchprac,mouse_6.clicked_name,key_resp_22.keys,key_resp_22.rt,Circle1_colour,Circle2_colour,mouse.x,mouse.y,mouse.leftButton,mouse.midButton,mouse.rightButton,mouse.clicked_name,mouse_2.x,mouse_2.y,mouse_2.leftButton,mouse_2.midButton,mouse_2.rightButton,mouse_2.clicked_name,mouse_3.x,mouse_3.y,mouse_3.leftButton,mouse_3.midButton,mouse_3.rightButton,catchresponse,catchnumber,response_time_catch,Catch,mouse_11.x,mouse_11.y,mouse_11.leftButton,mouse_11.midButton,mouse_11.rightButton,trials_2.thisRepN,trials_2.thisTrialN,trials_2.thisN,trials_2.thisIndex,trials_2.ran,Colourpair,Temporder,mouse_3.clicked_name,mouse_11.clicked_name,trials_3.thisRepN,trials_3.thisTrialN,trials_3.thisN,trials_3.thisIndex,trials_3.ran,key_resp_instr_Ishi.keys,key_resp_instr_Ishi.rt,Ishi_trial_keyresp.keys,Ishi_textbox.text,Ishi_mouse.x,Ishi_mouse.y,Ishi_mouse.leftButton,Ishi_mouse.midButton,Ishi_mouse.rightButton,Ishi_mouse.clicked_name,Ishi_loop.thisRepN,Ishi_loop.thisTrialN,Ishi_loop.thisN,Ishi_loop.thisIndex,Ishi_loop.ran,imageaddress,textbox.text,mouse_4.x,mouse_4.y,mouse_4.leftButton,mouse_4.midButton,mouse_4.rightButton,mouse_4.clicked_name,textbox_2.text,mouse_8.x,mouse_8.y,mouse_8.leftButton,mouse_8.midButton,mouse_8.rightButton,mouse_8.clicked_name,textbox_3.text,mouse_9.x,mouse_9.y,mouse_9.leftButton,mouse_9.midButton,mouse_9.rightButton,mouse_9.clicked_name,textbox_4.text,mouse_12.x,mouse_12.y,mouse_12.leftButton,mouse_12.midButton,mouse_12.rightButton,mouse_12.clicked_name,textbox_5.text,mouse_13.x,mouse_13.y,mouse_13.leftButton,mouse_13.midButton,mouse_13.rightButton,mouse_13.clicked_name,textbox_6.text,mouse_14.x,mouse_14.y,mouse_14.leftButton,mouse_14.midButton,mouse_14.rightButton,mouse_14.clicked_name,textbox_7.text,mouse_15.x,mouse_15.y,mouse_15.leftButton,mouse_15.midButton,mouse_15.rightButton,mouse_15.clicked_name
0,0,0,90,1,,5f26a9c838b9f84004646fec,62c53a921717f38ec2182ad3,2022-07-06_09h32.46.671,Colour_Asymmetry_Pilot,2022.1.3,Win32,61.03143119,62c50e9c1127f2cd403a315f,,,,,,,,,,,,,,,,,,,,,,,,,,,,,,,,,,,,,,,,,,,,,,,,,,,,,,,,,,,,,,,,,,,,,,,,,,,,,,,,,,,,,,,,,,,,,,,,,,,,,,,,,,,,,,,,,,,,,,,,,,,,,,,,,,,,,,,,,,,,,,,,,,,,,,,,,,,,,,,,,,,
0,1,1,37,1,,5f26a9c838b9f84004646fec,62c53a921717f38ec2182ad3,2022-07-06_09h32.46.671,Colour_Asymmetry_Pilot,2022.1.3,Win32,61.03143119,62c50e9c1127f2cd403a315f,,,,,,,,,,,,,,,,,,,,,,,,,,,,,,,,,,,,,,,,,,,,,,,,,,,,,,,,,,,,,,,,,,,,,,,,,,,,,,,,,,,,,,,,,,,,,,,,,,,,,,,,,,,,,,,,,,,,,,,,,,,,,,,,,,,,,,,,,,,,,,,,,,,,,,,,,,,,,,,,,,,
0,2,2,27,1,,5f26a9c838b9f84004646fec,62c53a921717f38ec2182ad3,2022-07-06_09h32.46.671,Colour_Asymmetry_Pilot,2022.1.3,Win32,61.03143119,62c50e9c1127f2cd403a315f,,,,,,,,,,,,,,,,,,,,,,,,,,,,,,,,,,,,,,,,,,,,,,,,,,,,,,,,,,,,,,,,,,,,,,,,,,,,,,,,,,,,,,,,,,,,,,,,,,,,,,,,,,,,,,,,,,,,,,,,,,,,,,,,,,,,,,,,,,,,,,,,,,,,,,,,,,,,,,,,,,,
0,3,3,17,1,,5f26a9c838b9f84004646fec,62c53a921717f38ec2182ad3,2022-07-06_09h32.46.671,Colour_Asymmetry_Pilot,2022.1.3,Win32,61.03143119,62c50e9c1127f2cd403a315f,,,,,,,,,,,,,,,,,,,,,,,,,,,,,,,,,,,,,,,,,,,,,,,,,,,,,,,,,,,,,,,,,,,,,,,,,,,,,,,,,,,,,,,,,,,,,,,,,,,,,,,,,,,,,,,,,,,,,,,,,,,,,,,,,,,,,,,,,,,,,,,,,,,,,,,,,,,,,,,,,,,
0,4,4,45,1,,5f26a9c838b9f84004646fec,62c53a921717f38ec2182ad3,2022-07-06_09h32.46.671,Colour_Asymmetry_Pilot,2022.1.3,Win32,61.03143119,62c50e9c1127f2cd403a315f,,,,,,,,,,,,,,,,,,,,,,,,,,,,,,,,,,,,,,,,,,,,,,,,,,,,,,,,,,,,,,,,,,,,,,,,,,,,,,,,,,,,,,,,,,,,,,,,,,,,,,,,,,,,,,,,,,,,,,,,,,,,,,,,,,,,,,,,,,,,,,,,,,,,,,,,,,,,,,,,,,,
0,5,5,8,1,,5f26a9c838b9f84004646fec,62c53a921717f38ec2182ad3,2022-07-06_09h32.46.671,Colour_Asymmetry_Pilot,2022.1.3,Win32,61.03143119,62c50e9c1127f2cd403a315f,,,,,,,,,,,,,,,,,,,,,,,,,,,,,,,,,,,,,,,,,,,,,,,,,,,,,,,,,,,,,,,,,,,,,,,,,,,,,,,,,,,,,,,,,,,,,,,,,,,,,,,,,,,,,,,,,,,,,,,,,,,,,,,,,,,,,,,,,,,,,,,,,,,,,,,,,,,,,,,,,,,
0,6,6,35,1,,5f26a9c838b9f84004646fec,62c53a921717f38ec2182ad3,2022-07-06_09h32.46.671,Colour_Asymmetry_Pilot,2022.1.3,Win32,61.03143119,62c50e9c1127f2cd403a315f,,,,,,,,,,,,,,,,,,,,,,,,,,,,,,,,,,,,,,,,,,,,,,,,,,,,,,,,,,,,,,,,,,,,,,,,,,,,,,,,,,,,,,,,,,,,,,,,,,,,,,,,,,,,,,,,,,,,,,,,,,,,,,,,,,,,,,,,,,,,,,,,,,,,,,,,,,,,,,,,,,,
0,7,7,73,1,,5f26a9c838b9f84004646fec,62c53a921717f38ec2182ad3,2022-07-06_09h32.46.671,Colour_Asymmetry_Pilot,2022.1.3,Win32,61.03143119,62c50e9c1127f2cd403a315f,,,,,,,,,,,,,,,,,,,,,,,,,,,,,,,,,,,,,,,,,,,,,,,,,,,,,,,,,,,,,,,,,,,,,,,,,,,,,,,,,,,,,,,,,,,,,,,,,,,,,,,,,,,,,,,,,,,,,,,,,,,,,,,,,,,,,,,,,,,,,,,,,,,,,,,,,,,,,,,,,,,
0,8,8,69,1,,5f26a9c838b9f84004646fec,62c53a921717f38ec2182ad3,2022-07-06_09h32.46.671,Colour_Asymmetry_Pilot,2022.1.3,Win32,61.03143119,62c50e9c1127f2cd403a315f,,,,,,,,,,,,,,,,,,,,,,,,,,,,,,,,,,,,,,,,,,,,,,,,,,,,,,,,,,,,,,,,,,,,,,,,,,,,,,,,,,,,,,,,,,,,,,,,,,,,,,,,,,,,,,,,,,,,,,,,,,,,,,,,,,,,,,,,,,,,,,,,,,,,,,,,,,,,,,,,,,,
0,9,9,53,1,,5f26a9c838b9f84004646fec,62c53a921717f38ec2182ad3,2022-07-06_09h32.46.671,Colour_Asymmetry_Pilot,2022.1.3,Win32,61.03143119,62c50e9c1127f2cd403a315f,,,,,,,,,,,,,,,,,,,,,,,,,,,,,,,,,,,,,,,,,,,,,,,,,,,,,,,,,,,,,,,,,,,,,,,,,,,,,,,,,,,,,,,,,,,,,,,,,,,,,,,,,,,,,,,,,,,,,,,,,,,,,,,,,,,,,,,,,,,,,,,,,,,,,,,,,,,,,,,,,,,
0,10,10,9,1,,5f26a9c838b9f84004646fec,62c53a921717f38ec2182ad3,2022-07-06_09h32.46.671,Colour_Asymmetry_Pilot,2022.1.3,Win32,61.03143119,62c50e9c1127f2cd403a315f,,,,,,,,,,,,,,,,,,,,,,,,,,,,,,,,,,,,,,,,,,,,,,,,,,,,,,,,,,,,,,,,,,,,,,,,,,,,,,,,,,,,,,,,,,,,,,,,,,,,,,,,,,,,,,,,,,,,,,,,,,,,,,,,,,,,,,,,,,,,,,,,,,,,,,,,,,,,,,,,,,,
0,11,11,6,1,,5f26a9c838b9f84004646fec,62c53a921717f38ec2182ad3,2022-07-06_09h32.46.671,Colour_Asymmetry_Pilot,2022.1.3,Win32,61.03143119,62c50e9c1127f2cd403a315f,,,,,,,,,,,,,,,,,,,,,,,,,,,,,,,,,,,,,,,,,,,,,,,,,,,,,,,,,,,,,,,,,,,,,,,,,,,,,,,,,,,,,,,,,,,,,,,,,,,,,,,,,,,,,,,,,,,,,,,,,,,,,,,,,,,,,,,,,,,,,,,,,,,,,,,,,,,,,,,,,,,
0,12,12,59,1,,5f26a9c838b9f84004646fec,62c53a921717f38ec2182ad3,2022-07-06_09h32.46.671,Colour_Asymmetry_Pilot,2022.1.3,Win32,61.03143119,62c50e9c1127f2cd403a315f,,,,,,,,,,,,,,,,,,,,,,,,,,,,,,,,,,,,,,,,,,,,,,,,,,,,,,,,,,,,,,,,,,,,,,,,,,,,,,,,,,,,,,,,,,,,,,,,,,,,,,,,,,,,,,,,,,,,,,,,,,,,,,,,,,,,,,,,,,,,,,,,,,,,,,,,,,,,,,,,,,,
0,13,13,92,1,,5f26a9c838b9f84004646fec,62c53a921717f38ec2182ad3,2022-07-06_09h32.46.671,Colour_Asymmetry_Pilot,2022.1.3,Win32,61.03143119,62c50e9c1127f2cd403a315f,,,,,,,,,,,,,,,,,,,,,,,,,,,,,,,,,,,,,,,,,,,,,,,,,,,,,,,,,,,,,,,,,,,,,,,,,,,,,,,,,,,,,,,,,,,,,,,,,,,,,,,,,,,,,,,,,,,,,,,,,,,,,,,,,,,,,,,,,,,,,,,,,,,,,,,,,,,,,,,,,,,
0,14,14,4,1,,5f26a9c838b9f84004646fec,62c53a921717f38ec2182ad3,2022-07-06_09h32.46.671,Colour_Asymmetry_Pilot,2022.1.3,Win32,61.03143119,62c50e9c1127f2cd403a315f,,,,,,,,,,,,,,,,,,,,,,,,,,,,,,,,,,,,,,,,,,,,,,,,,,,,,,,,,,,,,,,,,,,,,,,,,,,,,,,,,,,,,,,,,,,,,,,,,,,,,,,,,,,,,,,,,,,,,,,,,,,,,,,,,,,,,,,,,,,,,,,,,,,,,,,,,,,,,,,,,,,
0,15,15,15,1,,5f26a9c838b9f84004646fec,62c53a921717f38ec2182ad3,2022-07-06_09h32.46.671,Colour_Asymmetry_Pilot,2022.1.3,Win32,61.03143119,62c50e9c1127f2cd403a315f,,,,,,,,,,,,,,,,,,,,,,,,,,,,,,,,,,,,,,,,,,,,,,,,,,,,,,,,,,,,,,,,,,,,,,,,,,,,,,,,,,,,,,,,,,,,,,,,,,,,,,,,,,,,,,,,,,,,,,,,,,,,,,,,,,,,,,,,,,,,,,,,,,,,,,,,,,,,,,,,,,,
0,16,16,91,1,,5f26a9c838b9f84004646fec,62c53a921717f38ec2182ad3,2022-07-06_09h32.46.671,Colour_Asymmetry_Pilot,2022.1.3,Win32,61.03143119,62c50e9c1127f2cd403a315f,,,,,,,,,,,,,,,,,,,,,,,,,,,,,,,,,,,,,,,,,,,,,,,,,,,,,,,,,,,,,,,,,,,,,,,,,,,,,,,,,,,,,,,,,,,,,,,,,,,,,,,,,,,,,,,,,,,,,,,,,,,,,,,,,,,,,,,,,,,,,,,,,,,,,,,,,,,,,,,,,,,
0,17,17,64,1,,5f26a9c838b9f84004646fec,62c53a921717f38ec2182ad3,2022-07-06_09h32.46.671,Colour_Asymmetry_Pilot,2022.1.3,Win32,61.03143119,62c50e9c1127f2cd403a315f,,,,,,,,,,,,,,,,,,,,,,,,,,,,,,,,,,,,,,,,,,,,,,,,,,,,,,,,,,,,,,,,,,,,,,,,,,,,,,,,,,,,,,,,,,,,,,,,,,,,,,,,,,,,,,,,,,,,,,,,,,,,,,,,,,,,,,,,,,,,,,,,,,,,,,,,,,,,,,,,,,,
0,18,18,31,1,,5f26a9c838b9f84004646fec,62c53a921717f38ec2182ad3,2022-07-06_09h32.46.671,Colour_Asymmetry_Pilot,2022.1.3,Win32,61.03143119,62c50e9c1127f2cd403a315f,,,,,,,,,,,,,,,,,,,,,,,,,,,,,,,,,,,,,,,,,,,,,,,,,,,,,,,,,,,,,,,,,,,,,,,,,,,,,,,,,,,,,,,,,,,,,,,,,,,,,,,,,,,,,,,,,,,,,,,,,,,,,,,,,,,,,,,,,,,,,,,,,,,,,,,,,,,,,,,,,,,
0,19,19,81,1,,5f26a9c838b9f84004646fec,62c53a921717f38ec2182ad3,2022-07-06_09h32.46.671,Colour_Asymmetry_Pilot,2022.1.3,Win32,61.03143119,62c50e9c1127f2cd403a315f,,,,,,,,,,,,,,,,,,,,,,,,,,,,,,,,,,,,,,,,,,,,,,,,,,,,,,,,,,,,,,,,,,,,,,,,,,,,,,,,,,,,,,,,,,,,,,,,,,,,,,,,,,,,,,,,,,,,,,,,,,,,,,,,,,,,,,,,,,,,,,,,,,,,,,,,,,,,,,,,,,,
0,20,20,79,1,,5f26a9c838b9f84004646fec,62c53a921717f38ec2182ad3,2022-07-06_09h32.46.671,Colour_Asymmetry_Pilot,2022.1.3,Win32,61.03143119,62c50e9c1127f2cd403a315f,,,,,,,,,,,,,,,,,,,,,,,,,,,,,,,,,,,,,,,,,,,,,,,,,,,,,,,,,,,,,,,,,,,,,,,,,,,,,,,,,,,,,,,,,,,,,,,,,,,,,,,,,,,,,,,,,,,,,,,,,,,,,,,,,,,,,,,,,,,,,,,,,,,,,,,,,,,,,,,,,,,
0,21,21,49,1,,5f26a9c838b9f84004646fec,62c53a921717f38ec2182ad3,2022-07-06_09h32.46.671,Colour_Asymmetry_Pilot,2022.1.3,Win32,61.03143119,62c50e9c1127f2cd403a315f,,,,,,,,,,,,,,,,,,,,,,,,,,,,,,,,,,,,,,,,,,,,,,,,,,,,,,,,,,,,,,,,,,,,,,,,,,,,,,,,,,,,,,,,,,,,,,,,,,,,,,,,,,,,,,,,,,,,,,,,,,,,,,,,,,,,,,,,,,,,,,,,,,,,,,,,,,,,,,,,,,,
0,22,22,36,1,,5f26a9c838b9f84004646fec,62c53a921717f38ec2182ad3,2022-07-06_09h32.46.671,Colour_Asymmetry_Pilot,2022.1.3,Win32,61.03143119,62c50e9c1127f2cd403a315f,,,,,,,,,,,,,,,,,,,,,,,,,,,,,,,,,,,,,,,,,,,,,,,,,,,,,,,,,,,,,,,,,,,,,,,,,,,,,,,,,,,,,,,,,,,,,,,,,,,,,,,,,,,,,,,,,,,,,,,,,,,,,,,,,,,,,,,,,,,,,,,,,,,,,,,,,,,,,,,,,,,
0,23,23,28,1,,5f26a9c838b9f84004646fec,62c53a921717f38ec2182ad3,2022-07-06_09h32.46.671,Colour_Asymmetry_Pilot,2022.1.3,Win32,61.03143119,62c50e9c1127f2cd403a315f,,,,,,,,,,,,,,,,,,,,,,,,,,,,,,,,,,,,,,,,,,,,,,,,,,,,,,,,,,,,,,,,,,,,,,,,,,,,,,,,,,,,,,,,,,,,,,,,,,,,,,,,,,,,,,,,,,,,,,,,,,,,,,,,,,,,,,,,,,,,,,,,,,,,,,,,,,,,,,,,,,,
0,24,24,86,1,,5f26a9c838b9f84004646fec,62c53a921717f38ec2182ad3,2022-07-06_09h32.46.671,Colour_Asymmetry_Pilot,2022.1.3,Win32,61.03143119,62c50e9c1127f2cd403a315f,,,,,,,,,,,,,,,,,,,,,,,,,,,,,,,,,,,,,,,,,,,,,,,,,,,,,,,,,,,,,,,,,,,,,,,,,,,,,,,,,,,,,,,,,,,,,,,,,,,,,,,,,,,,,,,,,,,,,,,,,,,,,,,,,,,,,,,,,,,,,,,,,,,,,,,,,,,,,,,,,,,
0,25,25,82,1,,5f26a9c838b9f84004646fec,62c53a921717f38ec2182ad3,2022-07-06_09h32.46.671,Colour_Asymmetry_Pilot,2022.1.3,Win32,61.03143119,62c50e9c1127f2cd403a315f,,,,,,,,,,,,,,,,,,,,,,,,,,,,,,,,,,,,,,,,,,,,,,,,,,,,,,,,,,,,,,,,,,,,,,,,,,,,,,,,,,,,,,,,,,,,,,,,,,,,,,,,,,,,,,,,,,,,,,,,,,,,,,,,,,,,,,,,,,,,,,,,,,,,,,,,,,,,,,,,,,,
0,26,26,60,1,,5f26a9c838b9f84004646fec,62c53a921717f38ec2182ad3,2022-07-06_09h32.46.671,Colour_Asymmetry_Pilot,2022.1.3,Win32,61.03143119,62c50e9c1127f2cd403a315f,,,,,,,,,,,,,,,,,,,,,,,,,,,,,,,,,,,,,,,,,,,,,,,,,,,,,,,,,,,,,,,,,,,,,,,,,,,,,,,,,,,,,,,,,,,,,,,,,,,,,,,,,,,,,,,,,,,,,,,,,,,,,,,,,,,,,,,,,,,,,,,,,,,,,,,,,,,,,,,,,,,
0,27,27,20,1,,5f26a9c838b9f84004646fec,62c53a921717f38ec2182ad3,2022-07-06_09h32.46.671,Colour_Asymmetry_Pilot,2022.1.3,Win32,61.03143119,62c50e9c1127f2cd403a315f,,,,,,,,,,,,,,,,,,,,,,,,,,,,,,,,,,,,,,,,,,,,,,,,,,,,,,,,,,,,,,,,,,,,,,,,,,,,,,,,,,,,,,,,,,,,,,,,,,,,,,,,,,,,,,,,,,,,,,,,,,,,,,,,,,,,,,,,,,,,,,,,,,,,,,,,,,,,,,,,,,,
0,28,28,5,1,,5f26a9c838b9f84004646fec,62c53a921717f38ec2182ad3,2022-07-06_09h32.46.671,Colour_Asymmetry_Pilot,2022.1.3,Win32,61.03143119,62c50e9c1127f2cd403a315f,,,,,,,,,,,,,,,,,,,,,,,,,,,,,,,,,,,,,,,,,,,,,,,,,,,,,,,,,,,,,,,,,,,,,,,,,,,,,,,,,,,,,,,,,,,,,,,,,,,,,,,,,,,,,,,,,,,,,,,,,,,,,,,,,,,,,,,,,,,,,,,,,,,,,,,,,,,,,,,,,,,
0,29,29,83,1,,5f26a9c838b9f84004646fec,62c53a921717f38ec2182ad3,2022-07-06_09h32.46.671,Colour_Asymmetry_Pilot,2022.1.3,Win32,61.03143119,62c50e9c1127f2cd403a315f,,,,,,,,,,,,,,,,,,,,,,,,,,,,,,,,,,,,,,,,,,,,,,,,,,,,,,,,,,,,,,,,,,,,,,,,,,,,,,,,,,,,,,,,,,,,,,,,,,,,,,,,,,,,,,,,,,,,,,,,,,,,,,,,,,,,,,,,,,,,,,,,,,,,,,,,,,,,,,,,,,,
0,30,30,76,1,,5f26a9c838b9f84004646fec,62c53a921717f38ec2182ad3,2022-07-06_09h32.46.671,Colour_Asymmetry_Pilot,2022.1.3,Win32,61.03143119,62c50e9c1127f2cd403a315f,,,,,,,,,,,,,,,,,,,,,,,,,,,,,,,,,,,,,,,,,,,,,,,,,,,,,,,,,,,,,,,,,,,,,,,,,,,,,,,,,,,,,,,,,,,,,,,,,,,,,,,,,,,,,,,,,,,,,,,,,,,,,,,,,,,,,,,,,,,,,,,,,,,,,,,,,,,,,,,,,,,
0,31,31,19,1,,5f26a9c838b9f84004646fec,62c53a921717f38ec2182ad3,2022-07-06_09h32.46.671,Colour_Asymmetry_Pilot,2022.1.3,Win32,61.03143119,62c50e9c1127f2cd403a315f,,,,,,,,,,,,,,,,,,,,,,,,,,,,,,,,,,,,,,,,,,,,,,,,,,,,,,,,,,,,,,,,,,,,,,,,,,,,,,,,,,,,,,,,,,,,,,,,,,,,,,,,,,,,,,,,,,,,,,,,,,,,,,,,,,,,,,,,,,,,,,,,,,,,,,,,,,,,,,,,,,,
0,32,32,68,1,,5f26a9c838b9f84004646fec,62c53a921717f38ec2182ad3,2022-07-06_09h32.46.671,Colour_Asymmetry_Pilot,2022.1.3,Win32,61.03143119,62c50e9c1127f2cd403a315f,,,,,,,,,,,,,,,,,,,,,,,,,,,,,,,,,,,,,,,,,,,,,,,,,,,,,,,,,,,,,,,,,,,,,,,,,,,,,,,,,,,,,,,,,,,,,,,,,,,,,,,,,,,,,,,,,,,,,,,,,,,,,,,,,,,,,,,,,,,,,,,,,,,,,,,,,,,,,,,,,,,
0,33,33,21,1,,5f26a9c838b9f84004646fec,62c53a921717f38ec2182ad3,2022-07-06_09h32.46.671,Colour_Asymmetry_Pilot,2022.1.3,Win32,61.03143119,62c50e9c1127f2cd403a315f,,,,,,,,,,,,,,,,,,,,,,,,,,,,,,,,,,,,,,,,,,,,,,,,,,,,,,,,,,,,,,,,,,,,,,,,,,,,,,,,,,,,,,,,,,,,,,,,,,,,,,,,,,,,,,,,,,,,,,,,,,,,,,,,,,,,,,,,,,,,,,,,,,,,,,,,,,,,,,,,,,,
0,34,34,18,1,,5f26a9c838b9f84004646fec,62c53a921717f38ec2182ad3,2022-07-06_09h32.46.671,Colour_Asymmetry_Pilot,2022.1.3,Win32,61.03143119,62c50e9c1127f2cd403a315f,,,,,,,,,,,,,,,,,,,,,,,,,,,,,,,,,,,,,,,,,,,,,,,,,,,,,,,,,,,,,,,,,,,,,,,,,,,,,,,,,,,,,,,,,,,,,,,,,,,,,,,,,,,,,,,,,,,,,,,,,,,,,,,,,,,,,,,,,,,,,,,,,,,,,,,,,,,,,,,,,,,
0,35,35,46,1,,5f26a9c838b9f84004646fec,62c53a921717f38ec2182ad3,2022-07-06_09h32.46.671,Colour_Asymmetry_Pilot,2022.1.3,Win32,61.03143119,62c50e9c1127f2cd403a315f,,,,,,,,,,,,,,,,,,,,,,,,,,,,,,,,,,,,,,,,,,,,,,,,,,,,,,,,,,,,,,,,,,,,,,,,,,,,,,,,,,,,,,,,,,,,,,,,,,,,,,,,,,,,,,,,,,,,,,,,,,,,,,,,,,,,,,,,,,,,,,,,,,,,,,,,,,,,,,,,,,,
0,36,36,12,1,,5f26a9c838b9f84004646fec,62c53a921717f38ec2182ad3,2022-07-06_09h32.46.671,Colour_Asymmetry_Pilot,2022.1.3,Win32,61.03143119,62c50e9c1127f2cd403a315f,,,,,,,,,,,,,,,,,,,,,,,,,,,,,,,,,,,,,,,,,,,,,,,,,,,,,,,,,,,,,,,,,,,,,,,,,,,,,,,,,,,,,,,,,,,,,,,,,,,,,,,,,,,,,,,,,,,,,,,,,,,,,,,,,,,,,,,,,,,,,,,,,,,,,,,,,,,,,,,,,,,
0,37,37,42,1,,5f26a9c838b9f84004646fec,62c53a921717f38ec2182ad3,2022-07-06_09h32.46.671,Colour_Asymmetry_Pilot,2022.1.3,Win32,61.03143119,62c50e9c1127f2cd403a315f,,,,,,,,,,,,,,,,,,,,,,,,,,,,,,,,,,,,,,,,,,,,,,,,,,,,,,,,,,,,,,,,,,,,,,,,,,,,,,,,,,,,,,,,,,,,,,,,,,,,,,,,,,,,,,,,,,,,,,,,,,,,,,,,,,,,,,,,,,,,,,,,,,,,,,,,,,,,,,,,,,,
0,38,38,48,1,,5f26a9c838b9f84004646fec,62c53a921717f38ec2182ad3,2022-07-06_09h32.46.671,Colour_Asymmetry_Pilot,2022.1.3,Win32,61.03143119,62c50e9c1127f2cd403a315f,,,,,,,,,,,,,,,,,,,,,,,,,,,,,,,,,,,,,,,,,,,,,,,,,,,,,,,,,,,,,,,,,,,,,,,,,,,,,,,,,,,,,,,,,,,,,,,,,,,,,,,,,,,,,,,,,,,,,,,,,,,,,,,,,,,,,,,,,,,,,,,,,,,,,,,,,,,,,,,,,,,
0,39,39,84,1,,5f26a9c838b9f84004646fec,62c53a921717f38ec2182ad3,2022-07-06_09h32.46.671,Colour_Asymmetry_Pilot,2022.1.3,Win32,61.03143119,62c50e9c1127f2cd403a315f,,,,,,,,,,,,,,,,,,,,,,,,,,,,,,,,,,,,,,,,,,,,,,,,,,,,,,,,,,,,,,,,,,,,,,,,,,,,,,,,,,,,,,,,,,,,,,,,,,,,,,,,,,,,,,,,,,,,,,,,,,,,,,,,,,,,,,,,,,,,,,,,,,,,,,,,,,,,,,,,,,,
0,40,40,80,1,,5f26a9c838b9f84004646fec,62c53a921717f38ec2182ad3,2022-07-06_09h32.46.671,Colour_Asymmetry_Pilot,2022.1.3,Win32,61.03143119,62c50e9c1127f2cd403a315f,,,,,,,,,,,,,,,,,,,,,,,,,,,,,,,,,,,,,,,,,,,,,,,,,,,,,,,,,,,,,,,,,,,,,,,,,,,,,,,,,,,,,,,,,,,,,,,,,,,,,,,,,,,,,,,,,,,,,,,,,,,,,,,,,,,,,,,,,,,,,,,,,,,,,,,,,,,,,,,,,,,
0,41,41,40,1,,5f26a9c838b9f84004646fec,62c53a921717f38ec2182ad3,2022-07-06_09h32.46.671,Colour_Asymmetry_Pilot,2022.1.3,Win32,61.03143119,62c50e9c1127f2cd403a315f,,,,,,,,,,,,,,,,,,,,,,,,,,,,,,,,,,,,,,,,,,,,,,,,,,,,,,,,,,,,,,,,,,,,,,,,,,,,,,,,,,,,,,,,,,,,,,,,,,,,,,,,,,,,,,,,,,,,,,,,,,,,,,,,,,,,,,,,,,,,,,,,,,,,,,,,,,,,,,,,,,,
0,42,42,77,1,,5f26a9c838b9f84004646fec,62c53a921717f38ec2182ad3,2022-07-06_09h32.46.671,Colour_Asymmetry_Pilot,2022.1.3,Win32,61.03143119,62c50e9c1127f2cd403a315f,,,,,,,,,,,,,,,,,,,,,,,,,,,,,,,,,,,,,,,,,,,,,,,,,,,,,,,,,,,,,,,,,,,,,,,,,,,,,,,,,,,,,,,,,,,,,,,,,,,,,,,,,,,,,,,,,,,,,,,,,,,,,,,,,,,,,,,,,,,,,,,,,,,,,,,,,,,,,,,,,,,
0,43,43,62,1,,5f26a9c838b9f84004646fec,62c53a921717f38ec2182ad3,2022-07-06_09h32.46.671,Colour_Asymmetry_Pilot,2022.1.3,Win32,61.03143119,62c50e9c1127f2cd403a315f,,,,,,,,,,,,,,,,,,,,,,,,,,,,,,,,,,,,,,,,,,,,,,,,,,,,,,,,,,,,,,,,,,,,,,,,,,,,,,,,,,,,,,,,,,,,,,,,,,,,,,,,,,,,,,,,,,,,,,,,,,,,,,,,,,,,,,,,,,,,,,,,,,,,,,,,,,,,,,,,,,,
0,44,44,43,1,,5f26a9c838b9f84004646fec,62c53a921717f38ec2182ad3,2022-07-06_09h32.46.671,Colour_Asymmetry_Pilot,2022.1.3,Win32,61.03143119,62c50e9c1127f2cd403a315f,,,,,,,,,,,,,,,,,,,,,,,,,,,,,,,,,,,,,,,,,,,,,,,,,,,,,,,,,,,,,,,,,,,,,,,,,,,,,,,,,,,,,,,,,,,,,,,,,,,,,,,,,,,,,,,,,,,,,,,,,,,,,,,,,,,,,,,,,,,,,,,,,,,,,,,,,,,,,,,,,,,
0,45,45,7,1,,5f26a9c838b9f84004646fec,62c53a921717f38ec2182ad3,2022-07-06_09h32.46.671,Colour_Asymmetry_Pilot,2022.1.3,Win32,61.03143119,62c50e9c1127f2cd403a315f,,,,,,,,,,,,,,,,,,,,,,,,,,,,,,,,,,,,,,,,,,,,,,,,,,,,,,,,,,,,,,,,,,,,,,,,,,,,,,,,,,,,,,,,,,,,,,,,,,,,,,,,,,,,,,,,,,,,,,,,,,,,,,,,,,,,,,,,,,,,,,,,,,,,,,,,,,,,,,,,,,,
0,46,46,2,1,,5f26a9c838b9f84004646fec,62c53a921717f38ec2182ad3,2022-07-06_09h32.46.671,Colour_Asymmetry_Pilot,2022.1.3,Win32,61.03143119,62c50e9c1127f2cd403a315f,,,,,,,,,,,,,,,,,,,,,,,,,,,,,,,,,,,,,,,,,,,,,,,,,,,,,,,,,,,,,,,,,,,,,,,,,,,,,,,,,,,,,,,,,,,,,,,,,,,,,,,,,,,,,,,,,,,,,,,,,,,,,,,,,,,,,,,,,,,,,,,,,,,,,,,,,,,,,,,,,,,
0,47,47,32,1,,5f26a9c838b9f84004646fec,62c53a921717f38ec2182ad3,2022-07-06_09h32.46.671,Colour_Asymmetry_Pilot,2022.1.3,Win32,61.03143119,62c50e9c1127f2cd403a315f,,,,,,,,,,,,,,,,,,,,,,,,,,,,,,,,,,,,,,,,,,,,,,,,,,,,,,,,,,,,,,,,,,,,,,,,,,,,,,,,,,,,,,,,,,,,,,,,,,,,,,,,,,,,,,,,,,,,,,,,,,,,,,,,,,,,,,,,,,,,,,,,,,,,,,,,,,,,,,,,,,,
0,48,48,89,1,,5f26a9c838b9f84004646fec,62c53a921717f38ec2182ad3,2022-07-06_09h32.46.671,Colour_Asymmetry_Pilot,2022.1.3,Win32,61.03143119,62c50e9c1127f2cd403a315f,,,,,,,,,,,,,,,,,,,,,,,,,,,,,,,,,,,,,,,,,,,,,,,,,,,,,,,,,,,,,,,,,,,,,,,,,,,,,,,,,,,,,,,,,,,,,,,,,,,,,,,,,,,,,,,,,,,,,,,,,,,,,,,,,,,,,,,,,,,,,,,,,,,,,,,,,,,,,,,,,,,
0,49,49,52,1,,5f26a9c838b9f84004646fec,62c53a921717f38ec2182ad3,2022-07-06_09h32.46.671,Colour_Asymmetry_Pilot,2022.1.3,Win32,61.03143119,62c50e9c1127f2cd403a315f,,,,,,,,,,,,,,,,,,,,,,,,,,,,,,,,,,,,,,,,,,,,,,,,,,,,,,,,,,,,,,,,,,,,,,,,,,,,,,,,,,,,,,,,,,,,,,,,,,,,,,,,,,,,,,,,,,,,,,,,,,,,,,,,,,,,,,,,,,,,,,,,,,,,,,,,,,,,,,,,,,,
0,50,50,61,1,,5f26a9c838b9f84004646fec,62c53a921717f38ec2182ad3,2022-07-06_09h32.46.671,Colour_Asymmetry_Pilot,2022.1.3,Win32,61.03143119,62c50e9c1127f2cd403a315f,,,,,,,,,,,,,,,,,,,,,,,,,,,,,,,,,,,,,,,,,,,,,,,,,,,,,,,,,,,,,,,,,,,,,,,,,,,,,,,,,,,,,,,,,,,,,,,,,,,,,,,,,,,,,,,,,,,,,,,,,,,,,,,,,,,,,,,,,,,,,,,,,,,,,,,,,,,,,,,,,,,
0,51,51,63,1,,5f26a9c838b9f84004646fec,62c53a921717f38ec2182ad3,2022-07-06_09h32.46.671,Colour_Asymmetry_Pilot,2022.1.3,Win32,61.03143119,62c50e9c1127f2cd403a315f,,,,,,,,,,,,,,,,,,,,,,,,,,,,,,,,,,,,,,,,,,,,,,,,,,,,,,,,,,,,,,,,,,,,,,,,,,,,,,,,,,,,,,,,,,,,,,,,,,,,,,,,,,,,,,,,,,,,,,,,,,,,,,,,,,,,,,,,,,,,,,,,,,,,,,,,,,,,,,,,,,,
0,52,52,67,1,,5f26a9c838b9f84004646fec,62c53a921717f38ec2182ad3,2022-07-06_09h32.46.671,Colour_Asymmetry_Pilot,2022.1.3,Win32,61.03143119,62c50e9c1127f2cd403a315f,,,,,,,,,,,,,,,,,,,,,,,,,,,,,,,,,,,,,,,,,,,,,,,,,,,,,,,,,,,,,,,,,,,,,,,,,,,,,,,,,,,,,,,,,,,,,,,,,,,,,,,,,,,,,,,,,,,,,,,,,,,,,,,,,,,,,,,,,,,,,,,,,,,,,,,,,,,,,,,,,,,
0,53,53,23,1,,5f26a9c838b9f84004646fec,62c53a921717f38ec2182ad3,2022-07-06_09h32.46.671,Colour_Asymmetry_Pilot,2022.1.3,Win32,61.03143119,62c50e9c1127f2cd403a315f,,,,,,,,,,,,,,,,,,,,,,,,,,,,,,,,,,,,,,,,,,,,,,,,,,,,,,,,,,,,,,,,,,,,,,,,,,,,,,,,,,,,,,,,,,,,,,,,,,,,,,,,,,,,,,,,,,,,,,,,,,,,,,,,,,,,,,,,,,,,,,,,,,,,,,,,,,,,,,,,,,,
0,54,54,72,1,,5f26a9c838b9f84004646fec,62c53a921717f38ec2182ad3,2022-07-06_09h32.46.671,Colour_Asymmetry_Pilot,2022.1.3,Win32,61.03143119,62c50e9c1127f2cd403a315f,,,,,,,,,,,,,,,,,,,,,,,,,,,,,,,,,,,,,,,,,,,,,,,,,,,,,,,,,,,,,,,,,,,,,,,,,,,,,,,,,,,,,,,,,,,,,,,,,,,,,,,,,,,,,,,,,,,,,,,,,,,,,,,,,,,,,,,,,,,,,,,,,,,,,,,,,,,,,,,,,,,
0,55,55,34,1,,5f26a9c838b9f84004646fec,62c53a921717f38ec2182ad3,2022-07-06_09h32.46.671,Colour_Asymmetry_Pilot,2022.1.3,Win32,61.03143119,62c50e9c1127f2cd403a315f,,,,,,,,,,,,,,,,,,,,,,,,,,,,,,,,,,,,,,,,,,,,,,,,,,,,,,,,,,,,,,,,,,,,,,,,,,,,,,,,,,,,,,,,,,,,,,,,,,,,,,,,,,,,,,,,,,,,,,,,,,,,,,,,,,,,,,,,,,,,,,,,,,,,,,,,,,,,,,,,,,,
0,56,56,16,1,,5f26a9c838b9f84004646fec,62c53a921717f38ec2182ad3,2022-07-06_09h32.46.671,Colour_Asymmetry_Pilot,2022.1.3,Win32,61.03143119,62c50e9c1127f2cd403a315f,,,,,,,,,,,,,,,,,,,,,,,,,,,,,,,,,,,,,,,,,,,,,,,,,,,,,,,,,,,,,,,,,,,,,,,,,,,,,,,,,,,,,,,,,,,,,,,,,,,,,,,,,,,,,,,,,,,,,,,,,,,,,,,,,,,,,,,,,,,,,,,,,,,,,,,,,,,,,,,,,,,
0,57,57,58,1,,5f26a9c838b9f84004646fec,62c53a921717f38ec2182ad3,2022-07-06_09h32.46.671,Colour_Asymmetry_Pilot,2022.1.3,Win32,61.03143119,62c50e9c1127f2cd403a315f,,,,,,,,,,,,,,,,,,,,,,,,,,,,,,,,,,,,,,,,,,,,,,,,,,,,,,,,,,,,,,,,,,,,,,,,,,,,,,,,,,,,,,,,,,,,,,,,,,,,,,,,,,,,,,,,,,,,,,,,,,,,,,,,,,,,,,,,,,,,,,,,,,,,,,,,,,,,,,,,,,,
0,58,58,11,1,,5f26a9c838b9f84004646fec,62c53a921717f38ec2182ad3,2022-07-06_09h32.46.671,Colour_Asymmetry_Pilot,2022.1.3,Win32,61.03143119,62c50e9c1127f2cd403a315f,,,,,,,,,,,,,,,,,,,,,,,,,,,,,,,,,,,,,,,,,,,,,,,,,,,,,,,,,,,,,,,,,,,,,,,,,,,,,,,,,,,,,,,,,,,,,,,,,,,,,,,,,,,,,,,,,,,,,,,,,,,,,,,,,,,,,,,,,,,,,,,,,,,,,,,,,,,,,,,,,,,
0,59,59,22,1,,5f26a9c838b9f84004646fec,62c53a921717f38ec2182ad3,2022-07-06_09h32.46.671,Colour_Asymmetry_Pilot,2022.1.3,Win32,61.03143119,62c50e9c1127f2cd403a315f,,,,,,,,,,,,,,,,,,,,,,,,,,,,,,,,,,,,,,,,,,,,,,,,,,,,,,,,,,,,,,,,,,,,,,,,,,,,,,,,,,,,,,,,,,,,,,,,,,,,,,,,,,,,,,,,,,,,,,,,,,,,,,,,,,,,,,,,,,,,,,,,,,,,,,,,,,,,,,,,,,,
0,60,60,3,1,,5f26a9c838b9f84004646fec,62c53a921717f38ec2182ad3,2022-07-06_09h32.46.671,Colour_Asymmetry_Pilot,2022.1.3,Win32,61.03143119,62c50e9c1127f2cd403a315f,,,,,,,,,,,,,,,,,,,,,,,,,,,,,,,,,,,,,,,,,,,,,,,,,,,,,,,,,,,,,,,,,,,,,,,,,,,,,,,,,,,,,,,,,,,,,,,,,,,,,,,,,,,,,,,,,,,,,,,,,,,,,,,,,,,,,,,,,,,,,,,,,,,,,,,,,,,,,,,,,,,
0,61,61,25,1,,5f26a9c838b9f84004646fec,62c53a921717f38ec2182ad3,2022-07-06_09h32.46.671,Colour_Asymmetry_Pilot,2022.1.3,Win32,61.03143119,62c50e9c1127f2cd403a315f,,,,,,,,,,,,,,,,,,,,,,,,,,,,,,,,,,,,,,,,,,,,,,,,,,,,,,,,,,,,,,,,,,,,,,,,,,,,,,,,,,,,,,,,,,,,,,,,,,,,,,,,,,,,,,,,,,,,,,,,,,,,,,,,,,,,,,,,,,,,,,,,,,,,,,,,,,,,,,,,,,,
0,62,62,66,1,,5f26a9c838b9f84004646fec,62c53a921717f38ec2182ad3,2022-07-06_09h32.46.671,Colour_Asymmetry_Pilot,2022.1.3,Win32,61.03143119,62c50e9c1127f2cd403a315f,,,,,,,,,,,,,,,,,,,,,,,,,,,,,,,,,,,,,,,,,,,,,,,,,,,,,,,,,,,,,,,,,,,,,,,,,,,,,,,,,,,,,,,,,,,,,,,,,,,,,,,,,,,,,,,,,,,,,,,,,,,,,,,,,,,,,,,,,,,,,,,,,,,,,,,,,,,,,,,,,,,
0,63,63,44,1,,5f26a9c838b9f84004646fec,62c53a921717f38ec2182ad3,2022-07-06_09h32.46.671,Colour_Asymmetry_Pilot,2022.1.3,Win32,61.03143119,62c50e9c1127f2cd403a315f,,,,,,,,,,,,,,,,,,,,,,,,,,,,,,,,,,,,,,,,,,,,,,,,,,,,,,,,,,,,,,,,,,,,,,,,,,,,,,,,,,,,,,,,,,,,,,,,,,,,,,,,,,,,,,,,,,,,,,,,,,,,,,,,,,,,,,,,,,,,,,,,,,,,,,,,,,,,,,,,,,,
0,64,64,13,1,,5f26a9c838b9f84004646fec,62c53a921717f38ec2182ad3,2022-07-06_09h32.46.671,Colour_Asymmetry_Pilot,2022.1.3,Win32,61.03143119,62c50e9c1127f2cd403a315f,,,,,,,,,,,,,,,,,,,,,,,,,,,,,,,,,,,,,,,,,,,,,,,,,,,,,,,,,,,,,,,,,,,,,,,,,,,,,,,,,,,,,,,,,,,,,,,,,,,,,,,,,,,,,,,,,,,,,,,,,,,,,,,,,,,,,,,,,,,,,,,,,,,,,,,,,,,,,,,,,,,
0,65,65,74,1,,5f26a9c838b9f84004646fec,62c53a921717f38ec2182ad3,2022-07-06_09h32.46.671,Colour_Asymmetry_Pilot,2022.1.3,Win32,61.03143119,62c50e9c1127f2cd403a315f,,,,,,,,,,,,,,,,,,,,,,,,,,,,,,,,,,,,,,,,,,,,,,,,,,,,,,,,,,,,,,,,,,,,,,,,,,,,,,,,,,,,,,,,,,,,,,,,,,,,,,,,,,,,,,,,,,,,,,,,,,,,,,,,,,,,,,,,,,,,,,,,,,,,,,,,,,,,,,,,,,,
0,66,66,29,1,,5f26a9c838b9f84004646fec,62c53a921717f38ec2182ad3,2022-07-06_09h32.46.671,Colour_Asymmetry_Pilot,2022.1.3,Win32,61.03143119,62c50e9c1127f2cd403a315f,,,,,,,,,,,,,,,,,,,,,,,,,,,,,,,,,,,,,,,,,,,,,,,,,,,,,,,,,,,,,,,,,,,,,,,,,,,,,,,,,,,,,,,,,,,,,,,,,,,,,,,,,,,,,,,,,,,,,,,,,,,,,,,,,,,,,,,,,,,,,,,,,,,,,,,,,,,,,,,,,,,
0,67,67,30,1,,5f26a9c838b9f84004646fec,62c53a921717f38ec2182ad3,2022-07-06_09h32.46.671,Colour_Asymmetry_Pilot,2022.1.3,Win32,61.03143119,62c50e9c1127f2cd403a315f,,,,,,,,,,,,,,,,,,,,,,,,,,,,,,,,,,,,,,,,,,,,,,,,,,,,,,,,,,,,,,,,,,,,,,,,,,,,,,,,,,,,,,,,,,,,,,,,,,,,,,,,,,,,,,,,,,,,,,,,,,,,,,,,,,,,,,,,,,,,,,,,,,,,,,,,,,,,,,,,,,,
0,68,68,71,1,,5f26a9c838b9f84004646fec,62c53a921717f38ec2182ad3,2022-07-06_09h32.46.671,Colour_Asymmetry_Pilot,2022.1.3,Win32,61.03143119,62c50e9c1127f2cd403a315f,,,,,,,,,,,,,,,,,,,,,,,,,,,,,,,,,,,,,,,,,,,,,,,,,,,,,,,,,,,,,,,,,,,,,,,,,,,,,,,,,,,,,,,,,,,,,,,,,,,,,,,,,,,,,,,,,,,,,,,,,,,,,,,,,,,,,,,,,,,,,,,,,,,,,,,,,,,,,,,,,,,
0,69,69,47,1,,5f26a9c838b9f84004646fec,62c53a921717f38ec2182ad3,2022-07-06_09h32.46.671,Colour_Asymmetry_Pilot,2022.1.3,Win32,61.03143119,62c50e9c1127f2cd403a315f,,,,,,,,,,,,,,,,,,,,,,,,,,,,,,,,,,,,,,,,,,,,,,,,,,,,,,,,,,,,,,,,,,,,,,,,,,,,,,,,,,,,,,,,,,,,,,,,,,,,,,,,,,,,,,,,,,,,,,,,,,,,,,,,,,,,,,,,,,,,,,,,,,,,,,,,,,,,,,,,,,,
0,70,70,87,1,,5f26a9c838b9f84004646fec,62c53a921717f38ec2182ad3,2022-07-06_09h32.46.671,Colour_Asymmetry_Pilot,2022.1.3,Win32,61.03143119,62c50e9c1127f2cd403a315f,,,,,,,,,,,,,,,,,,,,,,,,,,,,,,,,,,,,,,,,,,,,,,,,,,,,,,,,,,,,,,,,,,,,,,,,,,,,,,,,,,,,,,,,,,,,,,,,,,,,,,,,,,,,,,,,,,,,,,,,,,,,,,,,,,,,,,,,,,,,,,,,,,,,,,,,,,,,,,,,,,,
0,71,71,56,1,,5f26a9c838b9f84004646fec,62c53a921717f38ec2182ad3,2022-07-06_09h32.46.671,Colour_Asymmetry_Pilot,2022.1.3,Win32,61.03143119,62c50e9c1127f2cd403a315f,,,,,,,,,,,,,,,,,,,,,,,,,,,,,,,,,,,,,,,,,,,,,,,,,,,,,,,,,,,,,,,,,,,,,,,,,,,,,,,,,,,,,,,,,,,,,,,,,,,,,,,,,,,,,,,,,,,,,,,,,,,,,,,,,,,,,,,,,,,,,,,,,,,,,,,,,,,,,,,,,,,
0,72,72,24,1,,5f26a9c838b9f84004646fec,62c53a921717f38ec2182ad3,2022-07-06_09h32.46.671,Colour_Asymmetry_Pilot,2022.1.3,Win32,61.03143119,62c50e9c1127f2cd403a315f,,,,,,,,,,,,,,,,,,,,,,,,,,,,,,,,,,,,,,,,,,,,,,,,,,,,,,,,,,,,,,,,,,,,,,,,,,,,,,,,,,,,,,,,,,,,,,,,,,,,,,,,,,,,,,,,,,,,,,,,,,,,,,,,,,,,,,,,,,,,,,,,,,,,,,,,,,,,,,,,,,,
0,73,73,85,1,,5f26a9c838b9f84004646fec,62c53a921717f38ec2182ad3,2022-07-06_09h32.46.671,Colour_Asymmetry_Pilot,2022.1.3,Win32,61.03143119,62c50e9c1127f2cd403a315f,,,,,,,,,,,,,,,,,,,,,,,,,,,,,,,,,,,,,,,,,,,,,,,,,,,,,,,,,,,,,,,,,,,,,,,,,,,,,,,,,,,,,,,,,,,,,,,,,,,,,,,,,,,,,,,,,,,,,,,,,,,,,,,,,,,,,,,,,,,,,,,,,,,,,,,,,,,,,,,,,,,
0,74,74,54,1,,5f26a9c838b9f84004646fec,62c53a921717f38ec2182ad3,2022-07-06_09h32.46.671,Colour_Asymmetry_Pilot,2022.1.3,Win32,61.03143119,62c50e9c1127f2cd403a315f,,,,,,,,,,,,,,,,,,,,,,,,,,,,,,,,,,,,,,,,,,,,,,,,,,,,,,,,,,,,,,,,,,,,,,,,,,,,,,,,,,,,,,,,,,,,,,,,,,,,,,,,,,,,,,,,,,,,,,,,,,,,,,,,,,,,,,,,,,,,,,,,,,,,,,,,,,,,,,,,,,,
0,75,75,39,1,,5f26a9c838b9f84004646fec,62c53a921717f38ec2182ad3,2022-07-06_09h32.46.671,Colour_Asymmetry_Pilot,2022.1.3,Win32,61.03143119,62c50e9c1127f2cd403a315f,,,,,,,,,,,,,,,,,,,,,,,,,,,,,,,,,,,,,,,,,,,,,,,,,,,,,,,,,,,,,,,,,,,,,,,,,,,,,,,,,,,,,,,,,,,,,,,,,,,,,,,,,,,,,,,,,,,,,,,,,,,,,,,,,,,,,,,,,,,,,,,,,,,,,,,,,,,,,,,,,,,
0,76,76,50,1,,5f26a9c838b9f84004646fec,62c53a921717f38ec2182ad3,2022-07-06_09h32.46.671,Colour_Asymmetry_Pilot,2022.1.3,Win32,61.03143119,62c50e9c1127f2cd403a315f,,,,,,,,,,,,,,,,,,,,,,,,,,,,,,,,,,,,,,,,,,,,,,,,,,,,,,,,,,,,,,,,,,,,,,,,,,,,,,,,,,,,,,,,,,,,,,,,,,,,,,,,,,,,,,,,,,,,,,,,,,,,,,,,,,,,,,,,,,,,,,,,,,,,,,,,,,,,,,,,,,,
0,77,77,26,1,,5f26a9c838b9f84004646fec,62c53a921717f38ec2182ad3,2022-07-06_09h32.46.671,Colour_Asymmetry_Pilot,2022.1.3,Win32,61.03143119,62c50e9c1127f2cd403a315f,,,,,,,,,,,,,,,,,,,,,,,,,,,,,,,,,,,,,,,,,,,,,,,,,,,,,,,,,,,,,,,,,,,,,,,,,,,,,,,,,,,,,,,,,,,,,,,,,,,,,,,,,,,,,,,,,,,,,,,,,,,,,,,,,,,,,,,,,,,,,,,,,,,,,,,,,,,,,,,,,,,
0,78,78,51,1,,5f26a9c838b9f84004646fec,62c53a921717f38ec2182ad3,2022-07-06_09h32.46.671,Colour_Asymmetry_Pilot,2022.1.3,Win32,61.03143119,62c50e9c1127f2cd403a315f,,,,,,,,,,,,,,,,,,,,,,,,,,,,,,,,,,,,,,,,,,,,,,,,,,,,,,,,,,,,,,,,,,,,,,,,,,,,,,,,,,,,,,,,,,,,,,,,,,,,,,,,,,,,,,,,,,,,,,,,,,,,,,,,,,,,,,,,,,,,,,,,,,,,,,,,,,,,,,,,,,,
0,79,79,75,1,,5f26a9c838b9f84004646fec,62c53a921717f38ec2182ad3,2022-07-06_09h32.46.671,Colour_Asymmetry_Pilot,2022.1.3,Win32,61.03143119,62c50e9c1127f2cd403a315f,,,,,,,,,,,,,,,,,,,,,,,,,,,,,,,,,,,,,,,,,,,,,,,,,,,,,,,,,,,,,,,,,,,,,,,,,,,,,,,,,,,,,,,,,,,,,,,,,,,,,,,,,,,,,,,,,,,,,,,,,,,,,,,,,,,,,,,,,,,,,,,,,,,,,,,,,,,,,,,,,,,
0,80,80,0,1,,5f26a9c838b9f84004646fec,62c53a921717f38ec2182ad3,2022-07-06_09h32.46.671,Colour_Asymmetry_Pilot,2022.1.3,Win32,61.03143119,62c50e9c1127f2cd403a315f,,,,,,,,,,,,,,,,,,,,,,,,,,,,,,,,,,,,,,,,,,,,,,,,,,,,,,,,,,,,,,,,,,,,,,,,,,,,,,,,,,,,,,,,,,,,,,,,,,,,,,,,,,,,,,,,,,,,,,,,,,,,,,,,,,,,,,,,,,,,,,,,,,,,,,,,,,,,,,,,,,,
0,81,81,1,1,,5f26a9c838b9f84004646fec,62c53a921717f38ec2182ad3,2022-07-06_09h32.46.671,Colour_Asymmetry_Pilot,2022.1.3,Win32,61.03143119,62c50e9c1127f2cd403a315f,,,,,,,,,,,,,,,,,,,,,,,,,,,,,,,,,,,,,,,,,,,,,,,,,,,,,,,,,,,,,,,,,,,,,,,,,,,,,,,,,,,,,,,,,,,,,,,,,,,,,,,,,,,,,,,,,,,,,,,,,,,,,,,,,,,,,,,,,,,,,,,,,,,,,,,,,,,,,,,,,,,
0,82,82,57,1,,5f26a9c838b9f84004646fec,62c53a921717f38ec2182ad3,2022-07-06_09h32.46.671,Colour_Asymmetry_Pilot,2022.1.3,Win32,61.03143119,62c50e9c1127f2cd403a315f,,,,,,,,,,,,,,,,,,,,,,,,,,,,,,,,,,,,,,,,,,,,,,,,,,,,,,,,,,,,,,,,,,,,,,,,,,,,,,,,,,,,,,,,,,,,,,,,,,,,,,,,,,,,,,,,,,,,,,,,,,,,,,,,,,,,,,,,,,,,,,,,,,,,,,,,,,,,,,,,,,,
0,83,83,70,1,,5f26a9c838b9f84004646fec,62c53a921717f38ec2182ad3,2022-07-06_09h32.46.671,Colour_Asymmetry_Pilot,2022.1.3,Win32,61.03143119,62c50e9c1127f2cd403a315f,,,,,,,,,,,,,,,,,,,,,,,,,,,,,,,,,,,,,,,,,,,,,,,,,,,,,,,,,,,,,,,,,,,,,,,,,,,,,,,,,,,,,,,,,,,,,,,,,,,,,,,,,,,,,,,,,,,,,,,,,,,,,,,,,,,,,,,,,,,,,,,,,,,,,,,,,,,,,,,,,,,
0,84,84,38,1,,5f26a9c838b9f84004646fec,62c53a921717f38ec2182ad3,2022-07-06_09h32.46.671,Colour_Asymmetry_Pilot,2022.1.3,Win32,61.03143119,62c50e9c1127f2cd403a315f,,,,,,,,,,,,,,,,,,,,,,,,,,,,,,,,,,,,,,,,,,,,,,,,,,,,,,,,,,,,,,,,,,,,,,,,,,,,,,,,,,,,,,,,,,,,,,,,,,,,,,,,,,,,,,,,,,,,,,,,,,,,,,,,,,,,,,,,,,,,,,,,,,,,,,,,,,,,,,,,,,,
0,85,85,65,1,,5f26a9c838b9f84004646fec,62c53a921717f38ec2182ad3,2022-07-06_09h32.46.671,Colour_Asymmetry_Pilot,2022.1.3,Win32,61.03143119,62c50e9c1127f2cd403a315f,,,,,,,,,,,,,,,,,,,,,,,,,,,,,,,,,,,,,,,,,,,,,,,,,,,,,,,,,,,,,,,,,,,,,,,,,,,,,,,,,,,,,,,,,,,,,,,,,,,,,,,,,,,,,,,,,,,,,,,,,,,,,,,,,,,,,,,,,,,,,,,,,,,,,,,,,,,,,,,,,,,
0,86,86,55,1,,5f26a9c838b9f84004646fec,62c53a921717f38ec2182ad3,2022-07-06_09h32.46.671,Colour_Asymmetry_Pilot,2022.1.3,Win32,61.03143119,62c50e9c1127f2cd403a315f,,,,,,,,,,,,,,,,,,,,,,,,,,,,,,,,,,,,,,,,,,,,,,,,,,,,,,,,,,,,,,,,,,,,,,,,,,,,,,,,,,,,,,,,,,,,,,,,,,,,,,,,,,,,,,,,,,,,,,,,,,,,,,,,,,,,,,,,,,,,,,,,,,,,,,,,,,,,,,,,,,,
0,87,87,41,1,,5f26a9c838b9f84004646fec,62c53a921717f38ec2182ad3,2022-07-06_09h32.46.671,Colour_Asymmetry_Pilot,2022.1.3,Win32,61.03143119,62c50e9c1127f2cd403a315f,,,,,,,,,,,,,,,,,,,,,,,,,,,,,,,,,,,,,,,,,,,,,,,,,,,,,,,,,,,,,,,,,,,,,,,,,,,,,,,,,,,,,,,,,,,,,,,,,,,,,,,,,,,,,,,,,,,,,,,,,,,,,,,,,,,,,,,,,,,,,,,,,,,,,,,,,,,,,,,,,,,
0,88,88,14,1,,5f26a9c838b9f84004646fec,62c53a921717f38ec2182ad3,2022-07-06_09h32.46.671,Colour_Asymmetry_Pilot,2022.1.3,Win32,61.03143119,62c50e9c1127f2cd403a315f,,,,,,,,,,,,,,,,,,,,,,,,,,,,,,,,,,,,,,,,,,,,,,,,,,,,,,,,,,,,,,,,,,,,,,,,,,,,,,,,,,,,,,,,,,,,,,,,,,,,,,,,,,,,,,,,,,,,,,,,,,,,,,,,,,,,,,,,,,,,,,,,,,,,,,,,,,,,,,,,,,,
0,89,89,10,1,,5f26a9c838b9f84004646fec,62c53a921717f38ec2182ad3,2022-07-06_09h32.46.671,Colour_Asymmetry_Pilot,2022.1.3,Win32,61.03143119,62c50e9c1127f2cd403a315f,,,,,,,,,,,,,,,,,,,,,,,,,,,,,,,,,,,,,,,,,,,,,,,,,,,,,,,,,,,,,,,,,,,,,,,,,,,,,,,,,,,,,,,,,,,,,,,,,,,,,,,,,,,,,,,,,,,,,,,,,,,,,,,,,,,,,,,,,,,,,,,,,,,,,,,,,,,,,,,,,,,
0,90,90,78,1,,5f26a9c838b9f84004646fec,62c53a921717f38ec2182ad3,2022-07-06_09h32.46.671,Colour_Asymmetry_Pilot,2022.1.3,Win32,61.03143119,62c50e9c1127f2cd403a315f,,,,,,,,,,,,,,,,,,,,,,,,,,,,,,,,,,,,,,,,,,,,,,,,,,,,,,,,,,,,,,,,,,,,,,,,,,,,,,,,,,,,,,,,,,,,,,,,,,,,,,,,,,,,,,,,,,,,,,,,,,,,,,,,,,,,,,,,,,,,,,,,,,,,,,,,,,,,,,,,,,,
0,91,91,33,1,,5f26a9c838b9f84004646fec,62c53a921717f38ec2182ad3,2022-07-06_09h32.46.671,Colour_Asymmetry_Pilot,2022.1.3,Win32,61.03143119,62c50e9c1127f2cd403a315f,,,,,,,,,,,,,,,,,,,,,,,,,,,,,,,,,,,,,,,,,,,,,,,,,,,,,,,,,,,,,,,,,,,,,,,,,,,,,,,,,,,,,,,,,,,,,,,,,,,,,,,,,,,,,,,,,,,,,,,,,,,,,,,,,,,,,,,,,,,,,,,,,,,,,,,,,,,,,,,,,,,
0,92,92,88,1,,5f26a9c838b9f84004646fec,62c53a921717f38ec2182ad3,2022-07-06_09h32.46.671,Colour_Asymmetry_Pilot,2022.1.3,Win32,61.03143119,62c50e9c1127f2cd403a315f,,,,,,,,,,,,,,,,,,,,,,,,,,,,,,,,,,,,,,,,,,,,,,,,,,,,,,,,,,,,,,,,,,,,,,,,,,,,,,,,,,,,,,,,,,,,,,,,,,,,,,,,,,,,,,,,,,,,,,,,,,,,,,,,,,,,,,,,,,,,,,,,,,,,,,,,,,,,,,,,,,,
,,,,,,5f26a9c838b9f84004646fec,62c53a921717f38ec2182ad3,2022-07-06_09h32.46.671,Colour_Asymmetry_Pilot,2022.1.3,Win32,61.03143119,62c50e9c1127f2cd403a315f,0,0,0,41,1,onethree,,,,,,,,,,,,,,,,,,,,,,,,,,,,,,,,,,,,,,,,,,,,,,,,,,,,,,,,,,,,,,,,,,,,,,,,,,,,,,,,,,,,,,,,,,,,,,,,,,,,,,,,,,,,,,,,,,,,,,,,,,,,,,,,,,,,,,,,,,,,,,,,,,,,,,,,,,,,,
,,,,,,5f26a9c838b9f84004646fec,62c53a921717f38ec2182ad3,2022-07-06_09h32.46.671,Colour_Asymmetry_Pilot,2022.1.3,Win32,61.03143119,62c50e9c1127f2cd403a315f,0,1,1,133,1,threefour,,,,,,,,,,,,,,,,,,,,,,,,,,,,,,,,,,,,,,,,,,,,,,,,,,,,,,,,,,,,,,,,,,,,,,,,,,,,,,,,,,,,,,,,,,,,,,,,,,,,,,,,,,,,,,,,,,,,,,,,,,,,,,,,,,,,,,,,,,,,,,,,,,,,,,,,,,,,,
,,,,,,5f26a9c838b9f84004646fec,62c53a921717f38ec2182ad3,2022-07-06_09h32.46.671,Colour_Asymmetry_Pilot,2022.1.3,Win32,61.03143119,62c50e9c1127f2cd403a315f,0,2,2,30,1,fourtwo,,,,,,,,,,,,,,,,,,,,,,,,,,,,,,,,,,,,,,,,,,,,,,,,,,,,,,,,,,,,,,,,,,,,,,,,,,,,,,,,,,,,,,,,,,,,,,,,,,,,,,,,,,,,,,,,,,,,,,,,,,,,,,,,,,,,,,,,,,,,,,,,,,,,,,,,,,,,,
,,,,,,5f26a9c838b9f84004646fec,62c53a921717f38ec2182ad3,2022-07-06_09h32.46.671,Colour_Asymmetry_Pilot,2022.1.3,Win32,61.03143119,62c50e9c1127f2cd403a315f,0,3,3,142,1,fourtwo,,,,,,,,,,,,,,,,,,,,,,,,,,,,,,,,,,,,,,,,,,,,,,,,,,,,,,,,,,,,,,,,,,,,,,,,,,,,,,,,,,,,,,,,,,,,,,,,,,,,,,,,,,,,,,,,,,,,,,,,,,,,,,,,,,,,,,,,,,,,,,,,,,,,,,,,,,,,,
,,,,,,5f26a9c838b9f84004646fec,62c53a921717f38ec2182ad3,2022-07-06_09h32.46.671,Colour_Asymmetry_Pilot,2022.1.3,Win32,61.03143119,62c50e9c1127f2cd403a315f,0,4,4,145,1,onethree,,,,,,,,,,,,,,,,,,,,,,,,,,,,,,,,,,,,,,,,,,,,,,,,,,,,,,,,,,,,,,,,,,,,,,,,,,,,,,,,,,,,,,,,,,,,,,,,,,,,,,,,,,,,,,,,,,,,,,,,,,,,,,,,,,,,,,,,,,,,,,,,,,,,,,,,,,,,,
,,,,,,5f26a9c838b9f84004646fec,62c53a921717f38ec2182ad3,2022-07-06_09h32.46.671,Colour_Asymmetry_Pilot,2022.1.3,Win32,61.03143119,62c50e9c1127f2cd403a315f,0,5,5,21,1,threefour,,,,,,,,,,,,,,,,,,,,,,,,,,,,,,,,,,,,,,,,,,,,,,,,,,,,,,,,,,,,,,,,,,,,,,,,,,,,,,,,,,,,,,,,,,,,,,,,,,,,,,,,,,,,,,,,,,,,,,,,,,,,,,,,,,,,,,,,,,,,,,,,,,,,,,,,,,,,,
,,,,,,5f26a9c838b9f84004646fec,62c53a921717f38ec2182ad3,2022-07-06_09h32.46.671,Colour_Asymmetry_Pilot,2022.1.3,Win32,61.03143119,62c50e9c1127f2cd403a315f,0,6,6,70,1,fourtwo,,,,,,,,,,,,,,,,,,,,,,,,,,,,,,,,,,,,,,,,,,,,,,,,,,,,,,,,,,,,,,,,,,,,,,,,,,,,,,,,,,,,,,,,,,,,,,,,,,,,,,,,,,,,,,,,,,,,,,,,,,,,,,,,,,,,,,,,,,,,,,,,,,,,,,,,,,,,,
,,,,,,5f26a9c838b9f84004646fec,62c53a921717f38ec2182ad3,2022-07-06_09h32.46.671,Colour_Asymmetry_Pilot,2022.1.3,Win32,61.03143119,62c50e9c1127f2cd403a315f,0,7,7,2,1,twoone,,,,,,,,,,,,,,,,,,,,,,,,,,,,,,,,,,,,,,,,,,,,,,,,,,,,,,,,,,,,,,,,,,,,,,,,,,,,,,,,,,,,,,,,,,,,,,,,,,,,,,,,,,,,,,,,,,,,,,,,,,,,,,,,,,,,,,,,,,,,,,,,,,,,,,,,,,,,,
,,,,,,5f26a9c838b9f84004646fec,62c53a921717f38ec2182ad3,2022-07-06_09h32.46.671,Colour_Asymmetry_Pilot,2022.1.3,Win32,61.03143119,62c50e9c1127f2cd403a315f,0,8,8,33,1,onethree,,,,,,,,,,,,,,,,,,,,,,,,,,,,,,,,,,,,,,,,,,,,,,,,,,,,,,,,,,,,,,,,,,,,,,,,,,,,,,,,,,,,,,,,,,,,,,,,,,,,,,,,,,,,,,,,,,,,,,,,,,,,,,,,,,,,,,,,,,,,,,,,,,,,,,,,,,,,,
,,,,,,5f26a9c838b9f84004646fec,62c53a921717f38ec2182ad3,2022-07-06_09h32.46.671,Colour_Asymmetry_Pilot,2022.1.3,Win32,61.03143119,62c50e9c1127f2cd403a315f,0,9,9,118,1,fourtwo,,,,,,,,,,,,,,,,,,,,,,,,,,,,,,,,,,,,,,,,,,,,,,,,,,,,,,,,,,,,,,,,,,,,,,,,,,,,,,,,,,,,,,,,,,,,,,,,,,,,,,,,,,,,,,,,,,,,,,,,,,,,,,,,,,,,,,,,,,,,,,,,,,,,,,,,,,,,,
,,,,,,5f26a9c838b9f84004646fec,62c53a921717f38ec2182ad3,2022-07-06_09h32.46.671,Colour_Asymmetry_Pilot,2022.1.3,Win32,61.03143119,62c50e9c1127f2cd403a315f,0,10,10,25,1,onethree,,,,,,,,,,,,,,,,,,,,,,,,,,,,,,,,,,,,,,,,,,,,,,,,,,,,,,,,,,,,,,,,,,,,,,,,,,,,,,,,,,,,,,,,,,,,,,,,,,,,,,,,,,,,,,,,,,,,,,,,,,,,,,,,,,,,,,,,,,,,,,,,,,,,,,,,,,,,,
,,,,,,5f26a9c838b9f84004646fec,62c53a921717f38ec2182ad3,2022-07-06_09h32.46.671,Colour_Asymmetry_Pilot,2022.1.3,Win32,61.03143119,62c50e9c1127f2cd403a315f,0,11,11,149,1,threefour,,,,,,,,,,,,,,,,,,,,,,,,,,,,,,,,,,,,,,,,,,,,,,,,,,,,,,,,,,,,,,,,,,,,,,,,,,,,,,,,,,,,,,,,,,,,,,,,,,,,,,,,,,,,,,,,,,,,,,,,,,,,,,,,,,,,,,,,,,,,,,,,,,,,,,,,,,,,,
,,,,,,5f26a9c838b9f84004646fec,62c53a921717f38ec2182ad3,2022-07-06_09h32.46.671,Colour_Asymmetry_Pilot,2022.1.3,Win32,61.03143119,62c50e9c1127f2cd403a315f,0,12,12,151,1,fourthree,,,,,,,,,,,,,,,,,,,,,,,,,,,,,,,,,,,,,,,,,,,,,,,,,,,,,,,,,,,,,,,,,,,,,,,,,,,,,,,,,,,,,,,,,,,,,,,,,,,,,,,,,,,,,,,,,,,,,,,,,,,,,,,,,,,,,,,,,,,,,,,,,,,,,,,,,,,,,
,,,,,,5f26a9c838b9f84004646fec,62c53a921717f38ec2182ad3,2022-07-06_09h32.46.671,Colour_Asymmetry_Pilot,2022.1.3,Win32,61.03143119,62c50e9c1127f2cd403a315f,0,13,13,57,1,onethree,,,,,,,,,,,,,,,,,,,,,,,,,,,,,,,,,,,,,,,,,,,,,,,,,,,,,,,,,,,,,,,,,,,,,,,,,,,,,,,,,,,,,,,,,,,,,,,,,,,,,,,,,,,,,,,,,,,,,,,,,,,,,,,,,,,,,,,,,,,,,,,,,,,,,,,,,,,,,
,,,,,,5f26a9c838b9f84004646fec,62c53a921717f38ec2182ad3,2022-07-06_09h32.46.671,Colour_Asymmetry_Pilot,2022.1.3,Win32,61.03143119,62c50e9c1127f2cd403a315f,0,14,14,129,1,onethree,,,,,,,,,,,,,,,,,,,,,,,,,,,,,,,,,,,,,,,,,,,,,,,,,,,,,,,,,,,,,,,,,,,,,,,,,,,,,,,,,,,,,,,,,,,,,,,,,,,,,,,,,,,,,,,,,,,,,,,,,,,,,,,,,,,,,,,,,,,,,,,,,,,,,,,,,,,,,
,,,,,,5f26a9c838b9f84004646fec,62c53a921717f38ec2182ad3,2022-07-06_09h32.46.671,Colour_Asymmetry_Pilot,2022.1.3,Win32,61.03143119,62c50e9c1127f2cd403a315f,0,15,15,53,1,threefour,,,,,,,,,,,,,,,,,,,,,,,,,,,,,,,,,,,,,,,,,,,,,,,,,,,,,,,,,,,,,,,,,,,,,,,,,,,,,,,,,,,,,,,,,,,,,,,,,,,,,,,,,,,,,,,,,,,,,,,,,,,,,,,,,,,,,,,,,,,,,,,,,,,,,,,,,,,,,
,,,,,,5f26a9c838b9f84004646fec,62c53a921717f38ec2182ad3,2022-07-06_09h32.46.671,Colour_Asymmetry_Pilot,2022.1.3,Win32,61.03143119,62c50e9c1127f2cd403a315f,0,16,16,76,1,threeone,,,,,,,,,,,,,,,,,,,,,,,,,,,,,,,,,,,,,,,,,,,,,,,,,,,,,,,,,,,,,,,,,,,,,,,,,,,,,,,,,,,,,,,,,,,,,,,,,,,,,,,,,,,,,,,,,,,,,,,,,,,,,,,,,,,,,,,,,,,,,,,,,,,,,,,,,,,,,
,,,,,,5f26a9c838b9f84004646fec,62c53a921717f38ec2182ad3,2022-07-06_09h32.46.671,Colour_Asymmetry_Pilot,2022.1.3,Win32,61.03143119,62c50e9c1127f2cd403a315f,0,17,17,63,1,fourthree,,,,,,,,,,,,,,,,,,,,,,,,,,,,,,,,,,,,,,,,,,,,,,,,,,,,,,,,,,,,,,,,,,,,,,,,,,,,,,,,,,,,,,,,,,,,,,,,,,,,,,,,,,,,,,,,,,,,,,,,,,,,,,,,,,,,,,,,,,,,,,,,,,,,,,,,,,,,,
,,,,,,5f26a9c838b9f84004646fec,62c53a921717f38ec2182ad3,2022-07-06_09h32.46.671,Colour_Asymmetry_Pilot,2022.1.3,Win32,61.03143119,62c50e9c1127f2cd403a315f,0,18,18,96,1,onetwo,,,,,,,,,,,,,,,,,,,,,,,,,,,,,,,,,,,,,,,,,,,,,,,,,,,,,,,,,,,,,,,,,,,,,,,,,,,,,,,,,,,,,,,,,,,,,,,,,,,,,,,,,,,,,,,,,,,,,,,,,,,,,,,,,,,,,,,,,,,,,,,,,,,,,,,,,,,,,
,,,,,,5f26a9c838b9f84004646fec,62c53a921717f38ec2182ad3,2022-07-06_09h32.46.671,Colour_Asymmetry_Pilot,2022.1.3,Win32,61.03143119,62c50e9c1127f2cd403a315f,0,19,19,109,1,threefour,,,,,,,,,,,,,,,,,,,,,,,,,,,,,,,,,,,,,,,,,,,,,,,,,,,,,,,,,,,,,,,,,,,,,,,,,,,,,,,,,,,,,,,,,,,,,,,,,,,,,,,,,,,,,,,,,,,,,,,,,,,,,,,,,,,,,,,,,,,,,,,,,,,,,,,,,,,,,
,,,,,,5f26a9c838b9f84004646fec,62c53a921717f38ec2182ad3,2022-07-06_09h32.46.671,Colour_Asymmetry_Pilot,2022.1.3,Win32,61.03143119,62c50e9c1127f2cd403a315f,0,20,20,137,1,onethree,,,,,,,,,,,,,,,,,,,,,,,,,,,,,,,,,,,,,,,,,,,,,,,,,,,,,,,,,,,,,,,,,,,,,,,,,,,,,,,,,,,,,,,,,,,,,,,,,,,,,,,,,,,,,,,,,,,,,,,,,,,,,,,,,,,,,,,,,,,,,,,,,,,,,,,,,,,,,
,,,,,,5f26a9c838b9f84004646fec,62c53a921717f38ec2182ad3,2022-07-06_09h32.46.671,Colour_Asymmetry_Pilot,2022.1.3,Win32,61.03143119,62c50e9c1127f2cd403a315f,0,21,21,34,1,twoone,,,,,,,,,,,,,,,,,,,,,,,,,,,,,,,,,,,,,,,,,,,,,,,,,,,,,,,,,,,,,,,,,,,,,,,,,,,,,,,,,,,,,,,,,,,,,,,,,,,,,,,,,,,,,,,,,,,,,,,,,,,,,,,,,,,,,,,,,,,,,,,,,,,,,,,,,,,,,
,,,,,,5f26a9c838b9f84004646fec,62c53a921717f38ec2182ad3,2022-07-06_09h32.46.671,Colour_Asymmetry_Pilot,2022.1.3,Win32,61.03143119,62c50e9c1127f2cd403a315f,0,22,22,7,1,fourthree,,,,,,,,,,,,,,,,,,,,,,,,,,,,,,,,,,,,,,,,,,,,,,,,,,,,,,,,,,,,,,,,,,,,,,,,,,,,,,,,,,,,,,,,,,,,,,,,,,,,,,,,,,,,,,,,,,,,,,,,,,,,,,,,,,,,,,,,,,,,,,,,,,,,,,,,,,,,,
,,,,,,5f26a9c838b9f84004646fec,62c53a921717f38ec2182ad3,2022-07-06_09h32.46.671,Colour_Asymmetry_Pilot,2022.1.3,Win32,61.03143119,62c50e9c1127f2cd403a315f,0,23,23,78,1,fourtwo,,,,,,,,,,,,,,,,,,,,,,,,,,,,,,,,,,,,,,,,,,,,,,,,,,,,,,,,,,,,,,,,,,,,,,,,,,,,,,,,,,,,,,,,,,,,,,,,,,,,,,,,,,,,,,,,,,,,,,,,,,,,,,,,,,,,,,,,,,,,,,,,,,,,,,,,,,,,,
,,,,,,5f26a9c838b9f84004646fec,62c53a921717f38ec2182ad3,2022-07-06_09h32.46.671,Colour_Asymmetry_Pilot,2022.1.3,Win32,61.03143119,62c50e9c1127f2cd403a315f,0,24,24,86,1,fourtwo,,,,,,,,,,,,,,,,,,,,,,,,,,,,,,,,,,,,,,,,,,,,,,,,,,,,,,,,,,,,,,,,,,,,,,,,,,,,,,,,,,,,,,,,,,,,,,,,,,,,,,,,,,,,,,,,,,,,,,,,,,,,,,,,,,,,,,,,,,,,,,,,,,,,,,,,,,,,,
,,,,,,5f26a9c838b9f84004646fec,62c53a921717f38ec2182ad3,2022-07-06_09h32.46.671,Colour_Asymmetry_Pilot,2022.1.3,Win32,61.03143119,62c50e9c1127f2cd403a315f,0,25,25,130,1,twoone,,,,,,,,,,,,,,,,,,,,,,,,,,,,,,,,,,,,,,,,,,,,,,,,,,,,,,,,,,,,,,,,,,,,,,,,,,,,,,,,,,,,,,,,,,,,,,,,,,,,,,,,,,,,,,,,,,,,,,,,,,,,,,,,,,,,,,,,,,,,,,,,,,,,,,,,,,,,,
,,,,,,5f26a9c838b9f84004646fec,62c53a921717f38ec2182ad3,2022-07-06_09h32.46.671,Colour_Asymmetry_Pilot,2022.1.3,Win32,61.03143119,62c50e9c1127f2cd403a315f,0,26,26,102,1,fourtwo,,,,,,,,,,,,,,,,,,,,,,,,,,,,,,,,,,,,,,,,,,,,,,,,,,,,,,,,,,,,,,,,,,,,,,,,,,,,,,,,,,,,,,,,,,,,,,,,,,,,,,,,,,,,,,,,,,,,,,,,,,,,,,,,,,,,,,,,,,,,,,,,,,,,,,,,,,,,,
,,,,,,5f26a9c838b9f84004646fec,62c53a921717f38ec2182ad3,2022-07-06_09h32.46.671,Colour_Asymmetry_Pilot,2022.1.3,Win32,61.03143119,62c50e9c1127f2cd403a315f,0,27,27,154,1,twoone,,,,,,,,,,,,,,,,,,,,,,,,,,,,,,,,,,,,,,,,,,,,,,,,,,,,,,,,,,,,,,,,,,,,,,,,,,,,,,,,,,,,,,,,,,,,,,,,,,,,,,,,,,,,,,,,,,,,,,,,,,,,,,,,,,,,,,,,,,,,,,,,,,,,,,,,,,,,,
,,,,,,5f26a9c838b9f84004646fec,62c53a921717f38ec2182ad3,2022-07-06_09h32.46.671,Colour_Asymmetry_Pilot,2022.1.3,Win32,61.03143119,62c50e9c1127f2cd403a315f,0,28,28,75,1,twofour,,,,,,,,,,,,,,,,,,,,,,,,,,,,,,,,,,,,,,,,,,,,,,,,,,,,,,,,,,,,,,,,,,,,,,,,,,,,,,,,,,,,,,,,,,,,,,,,,,,,,,,,,,,,,,,,,,,,,,,,,,,,,,,,,,,,,,,,,,,,,,,,,,,,,,,,,,,,,
,,,,,,5f26a9c838b9f84004646fec,62c53a921717f38ec2182ad3,2022-07-06_09h32.46.671,Colour_Asymmetry_Pilot,2022.1.3,Win32,61.03143119,62c50e9c1127f2cd403a315f,0,29,29,5,1,threefour,,,,,,,,,,,,,,,,,,,,,,,,,,,,,,,,,,,,,,,,,,,,,,,,,,,,,,,,,,,,,,,,,,,,,,,,,,,,,,,,,,,,,,,,,,,,,,,,,,,,,,,,,,,,,,,,,,,,,,,,,,,,,,,,,,,,,,,,,,,,,,,,,,,,,,,,,,,,,
,,,,,,5f26a9c838b9f84004646fec,62c53a921717f38ec2182ad3,2022-07-06_09h32.46.671,Colour_Asymmetry_Pilot,2022.1.3,Win32,61.03143119,62c50e9c1127f2cd403a315f,0,30,30,66,1,twoone,,,,,,,,,,,,,,,,,,,,,,,,,,,,,,,,,,,,,,,,,,,,,,,,,,,,,,,,,,,,,,,,,,,,,,,,,,,,,,,,,,,,,,,,,,,,,,,,,,,,,,,,,,,,,,,,,,,,,,,,,,,,,,,,,,,,,,,,,,,,,,,,,,,,,,,,,,,,,
,,,,,,5f26a9c838b9f84004646fec,62c53a921717f38ec2182ad3,2022-07-06_09h32.46.671,Colour_Asymmetry_Pilot,2022.1.3,Win32,61.03143119,62c50e9c1127f2cd403a315f,0,31,31,89,1,onethree,,,,,,,,,,,,,,,,,,,,,,,,,,,,,,,,,,,,,,,,,,,,,,,,,,,,,,,,,,,,,,,,,,,,,,,,,,,,,,,,,,,,,,,,,,,,,,,,,,,,,,,,,,,,,,,,,,,,,,,,,,,,,,,,,,,,,,,,,,,,,,,,,,,,,,,,,,,,,
,,,,,,5f26a9c838b9f84004646fec,62c53a921717f38ec2182ad3,2022-07-06_09h32.46.671,Colour_Asymmetry_Pilot,2022.1.3,Win32,61.03143119,62c50e9c1127f2cd403a315f,0,32,32,105,1,onethree,,,,,,,,,,,,,,,,,,,,,,,,,,,,,,,,,,,,,,,,,,,,,,,,,,,,,,,,,,,,,,,,,,,,,,,,,,,,,,,,,,,,,,,,,,,,,,,,,,,,,,,,,,,,,,,,,,,,,,,,,,,,,,,,,,,,,,,,,,,,,,,,,,,,,,,,,,,,,
,,,,,,5f26a9c838b9f84004646fec,62c53a921717f38ec2182ad3,2022-07-06_09h32.46.671,Colour_Asymmetry_Pilot,2022.1.3,Win32,61.03143119,62c50e9c1127f2cd403a315f,0,33,33,58,1,twoone,,,,,,,,,,,,,,,,,,,,,,,,,,,,,,,,,,,,,,,,,,,,,,,,,,,,,,,,,,,,,,,,,,,,,,,,,,,,,,,,,,,,,,,,,,,,,,,,,,,,,,,,,,,,,,,,,,,,,,,,,,,,,,,,,,,,,,,,,,,,,,,,,,,,,,,,,,,,,
,,,,,,5f26a9c838b9f84004646fec,62c53a921717f38ec2182ad3,2022-07-06_09h32.46.671,Colour_Asymmetry_Pilot,2022.1.3,Win32,61.03143119,62c50e9c1127f2cd403a315f,0,34,34,91,1,twofour,,,,,,,,,,,,,,,,,,,,,,,,,,,,,,,,,,,,,,,,,,,,,,,,,,,,,,,,,,,,,,,,,,,,,,,,,,,,,,,,,,,,,,,,,,,,,,,,,,,,,,,,,,,,,,,,,,,,,,,,,,,,,,,,,,,,,,,,,,,,,,,,,,,,,,,,,,,,,
,,,,,,5f26a9c838b9f84004646fec,62c53a921717f38ec2182ad3,2022-07-06_09h32.46.671,Colour_Asymmetry_Pilot,2022.1.3,Win32,61.03143119,62c50e9c1127f2cd403a315f,0,35,35,112,1,onetwo,,,,,,,,,,,,,,,,,,,,,,,,,,,,,,,,,,,,,,,,,,,,,,,,,,,,,,,,,,,,,,,,,,,,,,,,,,,,,,,,,,,,,,,,,,,,,,,,,,,,,,,,,,,,,,,,,,,,,,,,,,,,,,,,,,,,,,,,,,,,,,,,,,,,,,,,,,,,,
,,,,,,5f26a9c838b9f84004646fec,62c53a921717f38ec2182ad3,2022-07-06_09h32.46.671,Colour_Asymmetry_Pilot,2022.1.3,Win32,61.03143119,62c50e9c1127f2cd403a315f,0,36,36,127,1,fourthree,,,,,,,,,,,,,,,,,,,,,,,,,,,,,,,,,,,,,,,,,,,,,,,,,,,,,,,,,,,,,,,,,,,,,,,,,,,,,,,,,,,,,,,,,,,,,,,,,,,,,,,,,,,,,,,,,,,,,,,,,,,,,,,,,,,,,,,,,,,,,,,,,,,,,,,,,,,,,
,,,,,,5f26a9c838b9f84004646fec,62c53a921717f38ec2182ad3,2022-07-06_09h32.46.671,Colour_Asymmetry_Pilot,2022.1.3,Win32,61.03143119,62c50e9c1127f2cd403a315f,0,37,37,134,1,fourtwo,,,,,,,,,,,,,,,,,,,,,,,,,,,,,,,,,,,,,,,,,,,,,,,,,,,,,,,,,,,,,,,,,,,,,,,,,,,,,,,,,,,,,,,,,,,,,,,,,,,,,,,,,,,,,,,,,,,,,,,,,,,,,,,,,,,,,,,,,,,,,,,,,,,,,,,,,,,,,
,,,,,,5f26a9c838b9f84004646fec,62c53a921717f38ec2182ad3,2022-07-06_09h32.46.671,Colour_Asymmetry_Pilot,2022.1.3,Win32,61.03143119,62c50e9c1127f2cd403a315f,0,38,38,68,1,threeone,,,,,,,,,,,,,,,,,,,,,,,,,,,,,,,,,,,,,,,,,,,,,,,,,,,,,,,,,,,,,,,,,,,,,,,,,,,,,,,,,,,,,,,,,,,,,,,,,,,,,,,,,,,,,,,,,,,,,,,,,,,,,,,,,,,,,,,,,,,,,,,,,,,,,,,,,,,,,
,,,,,,5f26a9c838b9f84004646fec,62c53a921717f38ec2182ad3,2022-07-06_09h32.46.671,Colour_Asymmetry_Pilot,2022.1.3,Win32,61.03143119,62c50e9c1127f2cd403a315f,0,39,39,94,1,fourtwo,,,,,,,,,,,,,,,,,,,,,,,,,,,,,,,,,,,,,,,,,,,,,,,,,,,,,,,,,,,,,,,,,,,,,,,,,,,,,,,,,,,,,,,,,,,,,,,,,,,,,,,,,,,,,,,,,,,,,,,,,,,,,,,,,,,,,,,,,,,,,,,,,,,,,,,,,,,,,
,,,,,,5f26a9c838b9f84004646fec,62c53a921717f38ec2182ad3,2022-07-06_09h32.46.671,Colour_Asymmetry_Pilot,2022.1.3,Win32,61.03143119,62c50e9c1127f2cd403a315f,0,40,40,72,1,onetwo,,,,,,,,,,,,,,,,,,,,,,,,,,,,,,,,,,,,,,,,,,,,,,,,,,,,,,,,,,,,,,,,,,,,,,,,,,,,,,,,,,,,,,,,,,,,,,,,,,,,,,,,,,,,,,,,,,,,,,,,,,,,,,,,,,,,,,,,,,,,,,,,,,,,,,,,,,,,,
,,,,,,5f26a9c838b9f84004646fec,62c53a921717f38ec2182ad3,2022-07-06_09h32.46.671,Colour_Asymmetry_Pilot,2022.1.3,Win32,61.03143119,62c50e9c1127f2cd403a315f,0,41,41,22,1,fourtwo,,,,,,,,,,,,,,,,,,,,,,,,,,,,,,,,,,,,,,,,,,,,,,,,,,,,,,,,,,,,,,,,,,,,,,,,,,,,,,,,,,,,,,,,,,,,,,,,,,,,,,,,,,,,,,,,,,,,,,,,,,,,,,,,,,,,,,,,,,,,,,,,,,,,,,,,,,,,,
,,,,,,5f26a9c838b9f84004646fec,62c53a921717f38ec2182ad3,2022-07-06_09h32.46.671,Colour_Asymmetry_Pilot,2022.1.3,Win32,61.03143119,62c50e9c1127f2cd403a315f,0,42,42,116,1,threeone,,,,,,,,,,,,,,,,,,,,,,,,,,,,,,,,,,,,,,,,,,,,,,,,,,,,,,,,,,,,,,,,,,,,,,,,,,,,,,,,,,,,,,,,,,,,,,,,,,,,,,,,,,,,,,,,,,,,,,,,,,,,,,,,,,,,,,,,,,,,,,,,,,,,,,,,,,,,,
,,,,,,5f26a9c838b9f84004646fec,62c53a921717f38ec2182ad3,2022-07-06_09h32.46.671,Colour_Asymmetry_Pilot,2022.1.3,Win32,61.03143119,62c50e9c1127f2cd403a315f,0,43,43,42,1,twoone,,,,,,,,,,,,,,,,,,,,,,,,,,,,,,,,,,,,,,,,,,,,,,,,,,,,,,,,,,,,,,,,,,,,,,,,,,,,,,,,,,,,,,,,,,,,,,,,,,,,,,,,,,,,,,,,,,,,,,,,,,,,,,,,,,,,,,,,,,,,,,,,,,,,,,,,,,,,,
,,,,,,5f26a9c838b9f84004646fec,62c53a921717f38ec2182ad3,2022-07-06_09h32.46.671,Colour_Asymmetry_Pilot,2022.1.3,Win32,61.03143119,62c50e9c1127f2cd403a315f,0,44,44,3,1,twofour,,,,,,,,,,,,,,,,,,,,,,,,,,,,,,,,,,,,,,,,,,,,,,,,,,,,,,,,,,,,,,,,,,,,,,,,,,,,,,,,,,,,,,,,,,,,,,,,,,,,,,,,,,,,,,,,,,,,,,,,,,,,,,,,,,,,,,,,,,,,,,,,,,,,,,,,,,,,,
,,,,,,5f26a9c838b9f84004646fec,62c53a921717f38ec2182ad3,2022-07-06_09h32.46.671,Colour_Asymmetry_Pilot,2022.1.3,Win32,61.03143119,62c50e9c1127f2cd403a315f,0,45,45,51,1,twofour,,,,,,,,,,,,,,,,,,,,,,,,,,,,,,,,,,,,,,,,,,,,,,,,,,,,,,,,,,,,,,,,,,,,,,,,,,,,,,,,,,,,,,,,,,,,,,,,,,,,,,,,,,,,,,,,,,,,,,,,,,,,,,,,,,,,,,,,,,,,,,,,,,,,,,,,,,,,,
,,,,,,5f26a9c838b9f84004646fec,62c53a921717f38ec2182ad3,2022-07-06_09h32.46.671,Colour_Asymmetry_Pilot,2022.1.3,Win32,61.03143119,62c50e9c1127f2cd403a315f,0,46,46,29,1,threefour,,,,,,,,,,,,,,,,,,,,,,,,,,,,,,,,,,,,,,,,,,,,,,,,,,,,,,,,,,,,,,,,,,,,,,,,,,,,,,,,,,,,,,,,,,,,,,,,,,,,,,,,,,,,,,,,,,,,,,,,,,,,,,,,,,,,,,,,,,,,,,,,,,,,,,,,,,,,,
,,,,,,5f26a9c838b9f84004646fec,62c53a921717f38ec2182ad3,2022-07-06_09h32.46.671,Colour_Asymmetry_Pilot,2022.1.3,Win32,61.03143119,62c50e9c1127f2cd403a315f,0,47,47,97,1,onethree,,,,,,,,,,,,,,,,,,,,,,,,,,,,,,,,,,,,,,,,,,,,,,,,,,,,,,,,,,,,,,,,,,,,,,,,,,,,,,,,,,,,,,,,,,,,,,,,,,,,,,,,,,,,,,,,,,,,,,,,,,,,,,,,,,,,,,,,,,,,,,,,,,,,,,,,,,,,,
,,,,,,5f26a9c838b9f84004646fec,62c53a921717f38ec2182ad3,2022-07-06_09h32.46.671,Colour_Asymmetry_Pilot,2022.1.3,Win32,61.03143119,62c50e9c1127f2cd403a315f,0,48,48,148,1,threeone,,,,,,,,,,,,,,,,,,,,,,,,,,,,,,,,,,,,,,,,,,,,,,,,,,,,,,,,,,,,,,,,,,,,,,,,,,,,,,,,,,,,,,,,,,,,,,,,,,,,,,,,,,,,,,,,,,,,,,,,,,,,,,,,,,,,,,,,,,,,,,,,,,,,,,,,,,,,,
,,,,,,5f26a9c838b9f84004646fec,62c53a921717f38ec2182ad3,2022-07-06_09h32.46.671,Colour_Asymmetry_Pilot,2022.1.3,Win32,61.03143119,62c50e9c1127f2cd403a315f,0,49,49,147,1,twofour,,,,,,,,,,,,,,,,,,,,,,,,,,,,,,,,,,,,,,,,,,,,,,,,,,,,,,,,,,,,,,,,,,,,,,,,,,,,,,,,,,,,,,,,,,,,,,,,,,,,,,,,,,,,,,,,,,,,,,,,,,,,,,,,,,,,,,,,,,,,,,,,,,,,,,,,,,,,,
,,,,,,5f26a9c838b9f84004646fec,62c53a921717f38ec2182ad3,2022-07-06_09h32.46.671,Colour_Asymmetry_Pilot,2022.1.3,Win32,61.03143119,62c50e9c1127f2cd403a315f,0,50,50,85,1,threefour,,,,,,,,,,,,,,,,,,,,,,,,,,,,,,,,,,,,,,,,,,,,,,,,,,,,,,,,,,,,,,,,,,,,,,,,,,,,,,,,,,,,,,,,,,,,,,,,,,,,,,,,,,,,,,,,,,,,,,,,,,,,,,,,,,,,,,,,,,,,,,,,,,,,,,,,,,,,,
,,,,,,5f26a9c838b9f84004646fec,62c53a921717f38ec2182ad3,2022-07-06_09h32.46.671,Colour_Asymmetry_Pilot,2022.1.3,Win32,61.03143119,62c50e9c1127f2cd403a315f,0,51,51,155,1,twofour,,,,,,,,,,,,,,,,,,,,,,,,,,,,,,,,,,,,,,,,,,,,,,,,,,,,,,,,,,,,,,,,,,,,,,,,,,,,,,,,,,,,,,,,,,,,,,,,,,,,,,,,,,,,,,,,,,,,,,,,,,,,,,,,,,,,,,,,,,,,,,,,,,,,,,,,,,,,,
,,,,,,5f26a9c838b9f84004646fec,62c53a921717f38ec2182ad3,2022-07-06_09h32.46.671,Colour_Asymmetry_Pilot,2022.1.3,Win32,61.03143119,62c50e9c1127f2cd403a315f,0,52,52,160,1,onetwo,,,,,,,,,,,,,,,,,,,,,,,,,,,,,,,,,,,,,,,,,,,,,,,,,,,,,,,,,,,,,,,,,,,,,,,,,,,,,,,,,,,,,,,,,,,,,,,,,,,,,,,,,,,,,,,,,,,,,,,,,,,,,,,,,,,,,,,,,,,,,,,,,,,,,,,,,,,,,
,,,,,,5f26a9c838b9f84004646fec,62c53a921717f38ec2182ad3,2022-07-06_09h32.46.671,Colour_Asymmetry_Pilot,2022.1.3,Win32,61.03143119,62c50e9c1127f2cd403a315f,0,53,53,82,1,twoone,,,,,,,,,,,,,,,,,,,,,,,,,,,,,,,,,,,,,,,,,,,,,,,,,,,,,,,,,,,,,,,,,,,,,,,,,,,,,,,,,,,,,,,,,,,,,,,,,,,,,,,,,,,,,,,,,,,,,,,,,,,,,,,,,,,,,,,,,,,,,,,,,,,,,,,,,,,,,
,,,,,,5f26a9c838b9f84004646fec,62c53a921717f38ec2182ad3,2022-07-06_09h32.46.671,Colour_Asymmetry_Pilot,2022.1.3,Win32,61.03143119,62c50e9c1127f2cd403a315f,0,54,54,43,1,twofour,,,,,,,,,,,,,,,,,,,,,,,,,,,,,,,,,,,,,,,,,,,,,,,,,,,,,,,,,,,,,,,,,,,,,,,,,,,,,,,,,,,,,,,,,,,,,,,,,,,,,,,,,,,,,,,,,,,,,,,,,,,,,,,,,,,,,,,,,,,,,,,,,,,,,,,,,,,,,
,,,,,,5f26a9c838b9f84004646fec,62c53a921717f38ec2182ad3,2022-07-06_09h32.46.671,Colour_Asymmetry_Pilot,2022.1.3,Win32,61.03143119,62c50e9c1127f2cd403a315f,0,55,55,136,1,onetwo,,,,,,,,,,,,,,,,,,,,,,,,,,,,,,,,,,,,,,,,,,,,,,,,,,,,,,,,,,,,,,,,,,,,,,,,,,,,,,,,,,,,,,,,,,,,,,,,,,,,,,,,,,,,,,,,,,,,,,,,,,,,,,,,,,,,,,,,,,,,,,,,,,,,,,,,,,,,,
,,,,,,5f26a9c838b9f84004646fec,62c53a921717f38ec2182ad3,2022-07-06_09h32.46.671,Colour_Asymmetry_Pilot,2022.1.3,Win32,61.03143119,62c50e9c1127f2cd403a315f,0,56,56,158,1,fourtwo,,,,,,,,,,,,,,,,,,,,,,,,,,,,,,,,,,,,,,,,,,,,,,,,,,,,,,,,,,,,,,,,,,,,,,,,,,,,,,,,,,,,,,,,,,,,,,,,,,,,,,,,,,,,,,,,,,,,,,,,,,,,,,,,,,,,,,,,,,,,,,,,,,,,,,,,,,,,,
,,,,,,5f26a9c838b9f84004646fec,62c53a921717f38ec2182ad3,2022-07-06_09h32.46.671,Colour_Asymmetry_Pilot,2022.1.3,Win32,61.03143119,62c50e9c1127f2cd403a315f,0,57,57,31,1,fourthree,,,,,,,,,,,,,,,,,,,,,,,,,,,,,,,,,,,,,,,,,,,,,,,,,,,,,,,,,,,,,,,,,,,,,,,,,,,,,,,,,,,,,,,,,,,,,,,,,,,,,,,,,,,,,,,,,,,,,,,,,,,,,,,,,,,,,,,,,,,,,,,,,,,,,,,,,,,,,
,,,,,,5f26a9c838b9f84004646fec,62c53a921717f38ec2182ad3,2022-07-06_09h32.46.671,Colour_Asymmetry_Pilot,2022.1.3,Win32,61.03143119,62c50e9c1127f2cd403a315f,0,58,58,93,1,threefour,,,,,,,,,,,,,,,,,,,,,,,,,,,,,,,,,,,,,,,,,,,,,,,,,,,,,,,,,,,,,,,,,,,,,,,,,,,,,,,,,,,,,,,,,,,,,,,,,,,,,,,,,,,,,,,,,,,,,,,,,,,,,,,,,,,,,,,,,,,,,,,,,,,,,,,,,,,,,
,,,,,,5f26a9c838b9f84004646fec,62c53a921717f38ec2182ad3,2022-07-06_09h32.46.671,Colour_Asymmetry_Pilot,2022.1.3,Win32,61.03143119,62c50e9c1127f2cd403a315f,0,59,59,87,1,fourthree,,,,,,,,,,,,,,,,,,,,,,,,,,,,,,,,,,,,,,,,,,,,,,,,,,,,,,,,,,,,,,,,,,,,,,,,,,,,,,,,,,,,,,,,,,,,,,,,,,,,,,,,,,,,,,,,,,,,,,,,,,,,,,,,,,,,,,,,,,,,,,,,,,,,,,,,,,,,,
,,,,,,5f26a9c838b9f84004646fec,62c53a921717f38ec2182ad3,2022-07-06_09h32.46.671,Colour_Asymmetry_Pilot,2022.1.3,Win32,61.03143119,62c50e9c1127f2cd403a315f,0,60,60,106,1,twoone,,,,,,,,,,,,,,,,,,,,,,,,,,,,,,,,,,,,,,,,,,,,,,,,,,,,,,,,,,,,,,,,,,,,,,,,,,,,,,,,,,,,,,,,,,,,,,,,,,,,,,,,,,,,,,,,,,,,,,,,,,,,,,,,,,,,,,,,,,,,,,,,,,,,,,,,,,,,,
,,,,,,5f26a9c838b9f84004646fec,62c53a921717f38ec2182ad3,2022-07-06_09h32.46.671,Colour_Asymmetry_Pilot,2022.1.3,Win32,61.03143119,62c50e9c1127f2cd403a315f,0,61,61,19,1,twofour,,,,,,,,,,,,,,,,,,,,,,,,,,,,,,,,,,,,,,,,,,,,,,,,,,,,,,,,,,,,,,,,,,,,,,,,,,,,,,,,,,,,,,,,,,,,,,,,,,,,,,,,,,,,,,,,,,,,,,,,,,,,,,,,,,,,,,,,,,,,,,,,,,,,,,,,,,,,,
,,,,,,5f26a9c838b9f84004646fec,62c53a921717f38ec2182ad3,2022-07-06_09h32.46.671,Colour_Asymmetry_Pilot,2022.1.3,Win32,61.03143119,62c50e9c1127f2cd403a315f,0,62,62,23,1,fourthree,,,,,,,,,,,,,,,,,,,,,,,,,,,,,,,,,,,,,,,,,,,,,,,,,,,,,,,,,,,,,,,,,,,,,,,,,,,,,,,,,,,,,,,,,,,,,,,,,,,,,,,,,,,,,,,,,,,,,,,,,,,,,,,,,,,,,,,,,,,,,,,,,,,,,,,,,,,,,
,,,,,,5f26a9c838b9f84004646fec,62c53a921717f38ec2182ad3,2022-07-06_09h32.46.671,Colour_Asymmetry_Pilot,2022.1.3,Win32,61.03143119,62c50e9c1127f2cd403a315f,0,63,63,39,1,fourthree,,,,,,,,,,,,,,,,,,,,,,,,,,,,,,,,,,,,,,,,,,,,,,,,,,,,,,,,,,,,,,,,,,,,,,,,,,,,,,,,,,,,,,,,,,,,,,,,,,,,,,,,,,,,,,,,,,,,,,,,,,,,,,,,,,,,,,,,,,,,,,,,,,,,,,,,,,,,,
,,,,,,5f26a9c838b9f84004646fec,62c53a921717f38ec2182ad3,2022-07-06_09h32.46.671,Colour_Asymmetry_Pilot,2022.1.3,Win32,61.03143119,62c50e9c1127f2cd403a315f,0,64,64,52,1,threeone,,,,,,,,,,,,,,,,,,,,,,,,,,,,,,,,,,,,,,,,,,,,,,,,,,,,,,,,,,,,,,,,,,,,,,,,,,,,,,,,,,,,,,,,,,,,,,,,,,,,,,,,,,,,,,,,,,,,,,,,,,,,,,,,,,,,,,,,,,,,,,,,,,,,,,,,,,,,,
,,,,,,5f26a9c838b9f84004646fec,62c53a921717f38ec2182ad3,2022-07-06_09h32.46.671,Colour_Asymmetry_Pilot,2022.1.3,Win32,61.03143119,62c50e9c1127f2cd403a315f,0,65,65,60,1,threeone,,,,,,,,,,,,,,,,,,,,,,,,,,,,,,,,,,,,,,,,,,,,,,,,,,,,,,,,,,,,,,,,,,,,,,,,,,,,,,,,,,,,,,,,,,,,,,,,,,,,,,,,,,,,,,,,,,,,,,,,,,,,,,,,,,,,,,,,,,,,,,,,,,,,,,,,,,,,,
,,,,,,5f26a9c838b9f84004646fec,62c53a921717f38ec2182ad3,2022-07-06_09h32.46.671,Colour_Asymmetry_Pilot,2022.1.3,Win32,61.03143119,62c50e9c1127f2cd403a315f,0,66,66,56,1,onetwo,,,,,,,,,,,,,,,,,,,,,,,,,,,,,,,,,,,,,,,,,,,,,,,,,,,,,,,,,,,,,,,,,,,,,,,,,,,,,,,,,,,,,,,,,,,,,,,,,,,,,,,,,,,,,,,,,,,,,,,,,,,,,,,,,,,,,,,,,,,,,,,,,,,,,,,,,,,,,
,,,,,,5f26a9c838b9f84004646fec,62c53a921717f38ec2182ad3,2022-07-06_09h32.46.671,Colour_Asymmetry_Pilot,2022.1.3,Win32,61.03143119,62c50e9c1127f2cd403a315f,0,67,67,16,1,onetwo,,,,,,,,,,,,,,,,,,,,,,,,,,,,,,,,,,,,,,,,,,,,,,,,,,,,,,,,,,,,,,,,,,,,,,,,,,,,,,,,,,,,,,,,,,,,,,,,,,,,,,,,,,,,,,,,,,,,,,,,,,,,,,,,,,,,,,,,,,,,,,,,,,,,,,,,,,,,,
,,,,,,5f26a9c838b9f84004646fec,62c53a921717f38ec2182ad3,2022-07-06_09h32.46.671,Colour_Asymmetry_Pilot,2022.1.3,Win32,61.03143119,62c50e9c1127f2cd403a315f,0,68,68,50,1,twoone,,,,,,,,,,,,,,,,,,,,,,,,,,,,,,,,,,,,,,,,,,,,,,,,,,,,,,,,,,,,,,,,,,,,,,,,,,,,,,,,,,,,,,,,,,,,,,,,,,,,,,,,,,,,,,,,,,,,,,,,,,,,,,,,,,,,,,,,,,,,,,,,,,,,,,,,,,,,,
,,,,,,5f26a9c838b9f84004646fec,62c53a921717f38ec2182ad3,2022-07-06_09h32.46.671,Colour_Asymmetry_Pilot,2022.1.3,Win32,61.03143119,62c50e9c1127f2cd403a315f,0,69,69,47,1,fourthree,,,,,,,,,,,,,,,,,,,,,,,,,,,,,,,,,,,,,,,,,,,,,,,,,,,,,,,,,,,,,,,,,,,,,,,,,,,,,,,,,,,,,,,,,,,,,,,,,,,,,,,,,,,,,,,,,,,,,,,,,,,,,,,,,,,,,,,,,,,,,,,,,,,,,,,,,,,,,
,,,,,,5f26a9c838b9f84004646fec,62c53a921717f38ec2182ad3,2022-07-06_09h32.46.671,Colour_Asymmetry_Pilot,2022.1.3,Win32,61.03143119,62c50e9c1127f2cd403a315f,0,70,70,54,1,fourtwo,,,,,,,,,,,,,,,,,,,,,,,,,,,,,,,,,,,,,,,,,,,,,,,,,,,,,,,,,,,,,,,,,,,,,,,,,,,,,,,,,,,,,,,,,,,,,,,,,,,,,,,,,,,,,,,,,,,,,,,,,,,,,,,,,,,,,,,,,,,,,,,,,,,,,,,,,,,,,
,,,,,,5f26a9c838b9f84004646fec,62c53a921717f38ec2182ad3,2022-07-06_09h32.46.671,Colour_Asymmetry_Pilot,2022.1.3,Win32,61.03143119,62c50e9c1127f2cd403a315f,0,71,71,1,1,onethree,,,,,,,,,,,,,,,,,,,,,,,,,,,,,,,,,,,,,,,,,,,,,,,,,,,,,,,,,,,,,,,,,,,,,,,,,,,,,,,,,,,,,,,,,,,,,,,,,,,,,,,,,,,,,,,,,,,,,,,,,,,,,,,,,,,,,,,,,,,,,,,,,,,,,,,,,,,,,
,,,,,,5f26a9c838b9f84004646fec,62c53a921717f38ec2182ad3,2022-07-06_09h32.46.671,Colour_Asymmetry_Pilot,2022.1.3,Win32,61.03143119,62c50e9c1127f2cd403a315f,0,72,72,32,1,onetwo,,,,,,,,,,,,,,,,,,,,,,,,,,,,,,,,,,,,,,,,,,,,,,,,,,,,,,,,,,,,,,,,,,,,,,,,,,,,,,,,,,,,,,,,,,,,,,,,,,,,,,,,,,,,,,,,,,,,,,,,,,,,,,,,,,,,,,,,,,,,,,,,,,,,,,,,,,,,,
,,,,,,5f26a9c838b9f84004646fec,62c53a921717f38ec2182ad3,2022-07-06_09h32.46.671,Colour_Asymmetry_Pilot,2022.1.3,Win32,61.03143119,62c50e9c1127f2cd403a315f,0,73,73,132,1,threeone,,,,,,,,,,,,,,,,,,,,,,,,,,,,,,,,,,,,,,,,,,,,,,,,,,,,,,,,,,,,,,,,,,,,,,,,,,,,,,,,,,,,,,,,,,,,,,,,,,,,,,,,,,,,,,,,,,,,,,,,,,,,,,,,,,,,,,,,,,,,,,,,,,,,,,,,,,,,,
,,,,,,5f26a9c838b9f84004646fec,62c53a921717f38ec2182ad3,2022-07-06_09h32.46.671,Colour_Asymmetry_Pilot,2022.1.3,Win32,61.03143119,62c50e9c1127f2cd403a315f,0,74,74,122,1,twoone,,,,,,,,,,,,,,,,,,,,,,,,,,,,,,,,,,,,,,,,,,,,,,,,,,,,,,,,,,,,,,,,,,,,,,,,,,,,,,,,,,,,,,,,,,,,,,,,,,,,,,,,,,,,,,,,,,,,,,,,,,,,,,,,,,,,,,,,,,,,,,,,,,,,,,,,,,,,,
,,,,,,5f26a9c838b9f84004646fec,62c53a921717f38ec2182ad3,2022-07-06_09h32.46.671,Colour_Asymmetry_Pilot,2022.1.3,Win32,61.03143119,62c50e9c1127f2cd403a315f,0,75,75,74,1,twoone,,,,,,,,,,,,,,,,,,,,,,,,,,,,,,,,,,,,,,,,,,,,,,,,,,,,,,,,,,,,,,,,,,,,,,,,,,,,,,,,,,,,,,,,,,,,,,,,,,,,,,,,,,,,,,,,,,,,,,,,,,,,,,,,,,,,,,,,,,,,,,,,,,,,,,,,,,,,,
,,,,,,5f26a9c838b9f84004646fec,62c53a921717f38ec2182ad3,2022-07-06_09h32.46.671,Colour_Asymmetry_Pilot,2022.1.3,Win32,61.03143119,62c50e9c1127f2cd403a315f,0,76,76,4,1,threeone,,,,,,,,,,,,,,,,,,,,,,,,,,,,,,,,,,,,,,,,,,,,,,,,,,,,,,,,,,,,,,,,,,,,,,,,,,,,,,,,,,,,,,,,,,,,,,,,,,,,,,,,,,,,,,,,,,,,,,,,,,,,,,,,,,,,,,,,,,,,,,,,,,,,,,,,,,,,,
,,,,,,5f26a9c838b9f84004646fec,62c53a921717f38ec2182ad3,2022-07-06_09h32.46.671,Colour_Asymmetry_Pilot,2022.1.3,Win32,61.03143119,62c50e9c1127f2cd403a315f,0,77,77,27,1,twofour,,,,,,,,,,,,,,,,,,,,,,,,,,,,,,,,,,,,,,,,,,,,,,,,,,,,,,,,,,,,,,,,,,,,,,,,,,,,,,,,,,,,,,,,,,,,,,,,,,,,,,,,,,,,,,,,,,,,,,,,,,,,,,,,,,,,,,,,,,,,,,,,,,,,,,,,,,,,,
,,,,,,5f26a9c838b9f84004646fec,62c53a921717f38ec2182ad3,2022-07-06_09h32.46.671,Colour_Asymmetry_Pilot,2022.1.3,Win32,61.03143119,62c50e9c1127f2cd403a315f,0,78,78,35,1,twofour,,,,,,,,,,,,,,,,,,,,,,,,,,,,,,,,,,,,,,,,,,,,,,,,,,,,,,,,,,,,,,,,,,,,,,,,,,,,,,,,,,,,,,,,,,,,,,,,,,,,,,,,,,,,,,,,,,,,,,,,,,,,,,,,,,,,,,,,,,,,,,,,,,,,,,,,,,,,,
,,,,,,5f26a9c838b9f84004646fec,62c53a921717f38ec2182ad3,2022-07-06_09h32.46.671,Colour_Asymmetry_Pilot,2022.1.3,Win32,61.03143119,62c50e9c1127f2cd403a315f,0,79,79,38,1,fourtwo,,,,,,,,,,,,,,,,,,,,,,,,,,,,,,,,,,,,,,,,,,,,,,,,,,,,,,,,,,,,,,,,,,,,,,,,,,,,,,,,,,,,,,,,,,,,,,,,,,,,,,,,,,,,,,,,,,,,,,,,,,,,,,,,,,,,,,,,,,,,,,,,,,,,,,,,,,,,,
,,,,,,5f26a9c838b9f84004646fec,62c53a921717f38ec2182ad3,2022-07-06_09h32.46.671,Colour_Asymmetry_Pilot,2022.1.3,Win32,61.03143119,62c50e9c1127f2cd403a315f,0,80,80,20,1,threeone,,,,,,,,,,,,,,,,,,,,,,,,,,,,,,,,,,,,,,,,,,,,,,,,,,,,,,,,,,,,,,,,,,,,,,,,,,,,,,,,,,,,,,,,,,,,,,,,,,,,,,,,,,,,,,,,,,,,,,,,,,,,,,,,,,,,,,,,,,,,,,,,,,,,,,,,,,,,,
,,,,,,5f26a9c838b9f84004646fec,62c53a921717f38ec2182ad3,2022-07-06_09h32.46.671,Colour_Asymmetry_Pilot,2022.1.3,Win32,61.03143119,62c50e9c1127f2cd403a315f,0,81,81,26,1,twoone,,,,,,,,,,,,,,,,,,,,,,,,,,,,,,,,,,,,,,,,,,,,,,,,,,,,,,,,,,,,,,,,,,,,,,,,,,,,,,,,,,,,,,,,,,,,,,,,,,,,,,,,,,,,,,,,,,,,,,,,,,,,,,,,,,,,,,,,,,,,,,,,,,,,,,,,,,,,,
,,,,,,5f26a9c838b9f84004646fec,62c53a921717f38ec2182ad3,2022-07-06_09h32.46.671,Colour_Asymmetry_Pilot,2022.1.3,Win32,61.03143119,62c50e9c1127f2cd403a315f,0,82,82,156,1,threeone,,,,,,,,,,,,,,,,,,,,,,,,,,,,,,,,,,,,,,,,,,,,,,,,,,,,,,,,,,,,,,,,,,,,,,,,,,,,,,,,,,,,,,,,,,,,,,,,,,,,,,,,,,,,,,,,,,,,,,,,,,,,,,,,,,,,,,,,,,,,,,,,,,,,,,,,,,,,,
,,,,,,5f26a9c838b9f84004646fec,62c53a921717f38ec2182ad3,2022-07-06_09h32.46.671,Colour_Asymmetry_Pilot,2022.1.3,Win32,61.03143119,62c50e9c1127f2cd403a315f,0,83,83,28,1,threeone,,,,,,,,,,,,,,,,,,,,,,,,,,,,,,,,,,,,,,,,,,,,,,,,,,,,,,,,,,,,,,,,,,,,,,,,,,,,,,,,,,,,,,,,,,,,,,,,,,,,,,,,,,,,,,,,,,,,,,,,,,,,,,,,,,,,,,,,,,,,,,,,,,,,,,,,,,,,,
,,,,,,5f26a9c838b9f84004646fec,62c53a921717f38ec2182ad3,2022-07-06_09h32.46.671,Colour_Asymmetry_Pilot,2022.1.3,Win32,61.03143119,62c50e9c1127f2cd403a315f,0,84,84,115,1,twofour,,,,,,,,,,,,,,,,,,,,,,,,,,,,,,,,,,,,,,,,,,,,,,,,,,,,,,,,,,,,,,,,,,,,,,,,,,,,,,,,,,,,,,,,,,,,,,,,,,,,,,,,,,,,,,,,,,,,,,,,,,,,,,,,,,,,,,,,,,,,,,,,,,,,,,,,,,,,,
,,,,,,5f26a9c838b9f84004646fec,62c53a921717f38ec2182ad3,2022-07-06_09h32.46.671,Colour_Asymmetry_Pilot,2022.1.3,Win32,61.03143119,62c50e9c1127f2cd403a315f,0,85,85,84,1,threeone,,,,,,,,,,,,,,,,,,,,,,,,,,,,,,,,,,,,,,,,,,,,,,,,,,,,,,,,,,,,,,,,,,,,,,,,,,,,,,,,,,,,,,,,,,,,,,,,,,,,,,,,,,,,,,,,,,,,,,,,,,,,,,,,,,,,,,,,,,,,,,,,,,,,,,,,,,,,,
,,,,,,5f26a9c838b9f84004646fec,62c53a921717f38ec2182ad3,2022-07-06_09h32.46.671,Colour_Asymmetry_Pilot,2022.1.3,Win32,61.03143119,62c50e9c1127f2cd403a315f,0,86,86,114,1,twoone,,,,,,,,,,,,,,,,,,,,,,,,,,,,,,,,,,,,,,,,,,,,,,,,,,,,,,,,,,,,,,,,,,,,,,,,,,,,,,,,,,,,,,,,,,,,,,,,,,,,,,,,,,,,,,,,,,,,,,,,,,,,,,,,,,,,,,,,,,,,,,,,,,,,,,,,,,,,,
,,,,,,5f26a9c838b9f84004646fec,62c53a921717f38ec2182ad3,2022-07-06_09h32.46.671,Colour_Asymmetry_Pilot,2022.1.3,Win32,61.03143119,62c50e9c1127f2cd403a315f,0,87,87,126,1,fourtwo,,,,,,,,,,,,,,,,,,,,,,,,,,,,,,,,,,,,,,,,,,,,,,,,,,,,,,,,,,,,,,,,,,,,,,,,,,,,,,,,,,,,,,,,,,,,,,,,,,,,,,,,,,,,,,,,,,,,,,,,,,,,,,,,,,,,,,,,,,,,,,,,,,,,,,,,,,,,,
,,,,,,5f26a9c838b9f84004646fec,62c53a921717f38ec2182ad3,2022-07-06_09h32.46.671,Colour_Asymmetry_Pilot,2022.1.3,Win32,61.03143119,62c50e9c1127f2cd403a315f,0,88,88,139,1,twofour,,,,,,,,,,,,,,,,,,,,,,,,,,,,,,,,,,,,,,,,,,,,,,,,,,,,,,,,,,,,,,,,,,,,,,,,,,,,,,,,,,,,,,,,,,,,,,,,,,,,,,,,,,,,,,,,,,,,,,,,,,,,,,,,,,,,,,,,,,,,,,,,,,,,,,,,,,,,,
,,,,,,5f26a9c838b9f84004646fec,62c53a921717f38ec2182ad3,2022-07-06_09h32.46.671,Colour_Asymmetry_Pilot,2022.1.3,Win32,61.03143119,62c50e9c1127f2cd403a315f,0,89,89,159,1,fourthree,,,,,,,,,,,,,,,,,,,,,,,,,,,,,,,,,,,,,,,,,,,,,,,,,,,,,,,,,,,,,,,,,,,,,,,,,,,,,,,,,,,,,,,,,,,,,,,,,,,,,,,,,,,,,,,,,,,,,,,,,,,,,,,,,,,,,,,,,,,,,,,,,,,,,,,,,,,,,
,,,,,,5f26a9c838b9f84004646fec,62c53a921717f38ec2182ad3,2022-07-06_09h32.46.671,Colour_Asymmetry_Pilot,2022.1.3,Win32,61.03143119,62c50e9c1127f2cd403a315f,0,90,90,92,1,threeone,,,,,,,,,,,,,,,,,,,,,,,,,,,,,,,,,,,,,,,,,,,,,,,,,,,,,,,,,,,,,,,,,,,,,,,,,,,,,,,,,,,,,,,,,,,,,,,,,,,,,,,,,,,,,,,,,,,,,,,,,,,,,,,,,,,,,,,,,,,,,,,,,,,,,,,,,,,,,
,,,,,,5f26a9c838b9f84004646fec,62c53a921717f38ec2182ad3,2022-07-06_09h32.46.671,Colour_Asymmetry_Pilot,2022.1.3,Win32,61.03143119,62c50e9c1127f2cd403a315f,0,91,91,117,1,threefour,,,,,,,,,,,,,,,,,,,,,,,,,,,,,,,,,,,,,,,,,,,,,,,,,,,,,,,,,,,,,,,,,,,,,,,,,,,,,,,,,,,,,,,,,,,,,,,,,,,,,,,,,,,,,,,,,,,,,,,,,,,,,,,,,,,,,,,,,,,,,,,,,,,,,,,,,,,,,
,,,,,,5f26a9c838b9f84004646fec,62c53a921717f38ec2182ad3,2022-07-06_09h32.46.671,Colour_Asymmetry_Pilot,2022.1.3,Win32,61.03143119,62c50e9c1127f2cd403a315f,0,92,92,108,1,threeone,,,,,,,,,,,,,,,,,,,,,,,,,,,,,,,,,,,,,,,,,,,,,,,,,,,,,,,,,,,,,,,,,,,,,,,,,,,,,,,,,,,,,,,,,,,,,,,,,,,,,,,,,,,,,,,,,,,,,,,,,,,,,,,,,,,,,,,,,,,,,,,,,,,,,,,,,,,,,
,,,,,,5f26a9c838b9f84004646fec,62c53a921717f38ec2182ad3,2022-07-06_09h32.46.671,Colour_Asymmetry_Pilot,2022.1.3,Win32,61.03143119,62c50e9c1127f2cd403a315f,0,93,93,101,1,threefour,,,,,,,,,,,,,,,,,,,,,,,,,,,,,,,,,,,,,,,,,,,,,,,,,,,,,,,,,,,,,,,,,,,,,,,,,,,,,,,,,,,,,,,,,,,,,,,,,,,,,,,,,,,,,,,,,,,,,,,,,,,,,,,,,,,,,,,,,,,,,,,,,,,,,,,,,,,,,
,,,,,,5f26a9c838b9f84004646fec,62c53a921717f38ec2182ad3,2022-07-06_09h32.46.671,Colour_Asymmetry_Pilot,2022.1.3,Win32,61.03143119,62c50e9c1127f2cd403a315f,0,94,94,140,1,threeone,,,,,,,,,,,,,,,,,,,,,,,,,,,,,,,,,,,,,,,,,,,,,,,,,,,,,,,,,,,,,,,,,,,,,,,,,,,,,,,,,,,,,,,,,,,,,,,,,,,,,,,,,,,,,,,,,,,,,,,,,,,,,,,,,,,,,,,,,,,,,,,,,,,,,,,,,,,,,
,,,,,,5f26a9c838b9f84004646fec,62c53a921717f38ec2182ad3,2022-07-06_09h32.46.671,Colour_Asymmetry_Pilot,2022.1.3,Win32,61.03143119,62c50e9c1127f2cd403a315f,0,95,95,107,1,twofour,,,,,,,,,,,,,,,,,,,,,,,,,,,,,,,,,,,,,,,,,,,,,,,,,,,,,,,,,,,,,,,,,,,,,,,,,,,,,,,,,,,,,,,,,,,,,,,,,,,,,,,,,,,,,,,,,,,,,,,,,,,,,,,,,,,,,,,,,,,,,,,,,,,,,,,,,,,,,
,,,,,,5f26a9c838b9f84004646fec,62c53a921717f38ec2182ad3,2022-07-06_09h32.46.671,Colour_Asymmetry_Pilot,2022.1.3,Win32,61.03143119,62c50e9c1127f2cd403a315f,0,96,96,88,1,onetwo,,,,,,,,,,,,,,,,,,,,,,,,,,,,,,,,,,,,,,,,,,,,,,,,,,,,,,,,,,,,,,,,,,,,,,,,,,,,,,,,,,,,,,,,,,,,,,,,,,,,,,,,,,,,,,,,,,,,,,,,,,,,,,,,,,,,,,,,,,,,,,,,,,,,,,,,,,,,,
,,,,,,5f26a9c838b9f84004646fec,62c53a921717f38ec2182ad3,2022-07-06_09h32.46.671,Colour_Asymmetry_Pilot,2022.1.3,Win32,61.03143119,62c50e9c1127f2cd403a315f,0,97,97,15,1,fourthree,,,,,,,,,,,,,,,,,,,,,,,,,,,,,,,,,,,,,,,,,,,,,,,,,,,,,,,,,,,,,,,,,,,,,,,,,,,,,,,,,,,,,,,,,,,,,,,,,,,,,,,,,,,,,,,,,,,,,,,,,,,,,,,,,,,,,,,,,,,,,,,,,,,,,,,,,,,,,
,,,,,,5f26a9c838b9f84004646fec,62c53a921717f38ec2182ad3,2022-07-06_09h32.46.671,Colour_Asymmetry_Pilot,2022.1.3,Win32,61.03143119,62c50e9c1127f2cd403a315f,0,98,98,59,1,twofour,,,,,,,,,,,,,,,,,,,,,,,,,,,,,,,,,,,,,,,,,,,,,,,,,,,,,,,,,,,,,,,,,,,,,,,,,,,,,,,,,,,,,,,,,,,,,,,,,,,,,,,,,,,,,,,,,,,,,,,,,,,,,,,,,,,,,,,,,,,,,,,,,,,,,,,,,,,,,
,,,,,,5f26a9c838b9f84004646fec,62c53a921717f38ec2182ad3,2022-07-06_09h32.46.671,Colour_Asymmetry_Pilot,2022.1.3,Win32,61.03143119,62c50e9c1127f2cd403a315f,0,99,99,11,1,twofour,,,,,,,,,,,,,,,,,,,,,,,,,,,,,,,,,,,,,,,,,,,,,,,,,,,,,,,,,,,,,,,,,,,,,,,,,,,,,,,,,,,,,,,,,,,,,,,,,,,,,,,,,,,,,,,,,,,,,,,,,,,,,,,,,,,,,,,,,,,,,,,,,,,,,,,,,,,,,
,,,,,,5f26a9c838b9f84004646fec,62c53a921717f38ec2182ad3,2022-07-06_09h32.46.671,Colour_Asymmetry_Pilot,2022.1.3,Win32,61.03143119,62c50e9c1127f2cd403a315f,0,100,100,71,1,fourthree,,,,,,,,,,,,,,,,,,,,,,,,,,,,,,,,,,,,,,,,,,,,,,,,,,,,,,,,,,,,,,,,,,,,,,,,,,,,,,,,,,,,,,,,,,,,,,,,,,,,,,,,,,,,,,,,,,,,,,,,,,,,,,,,,,,,,,,,,,,,,,,,,,,,,,,,,,,,,
,,,,,,5f26a9c838b9f84004646fec,62c53a921717f38ec2182ad3,2022-07-06_09h32.46.671,Colour_Asymmetry_Pilot,2022.1.3,Win32,61.03143119,62c50e9c1127f2cd403a315f,0,101,101,80,1,onetwo,,,,,,,,,,,,,,,,,,,,,,,,,,,,,,,,,,,,,,,,,,,,,,,,,,,,,,,,,,,,,,,,,,,,,,,,,,,,,,,,,,,,,,,,,,,,,,,,,,,,,,,,,,,,,,,,,,,,,,,,,,,,,,,,,,,,,,,,,,,,,,,,,,,,,,,,,,,,,
,,,,,,5f26a9c838b9f84004646fec,62c53a921717f38ec2182ad3,2022-07-06_09h32.46.671,Colour_Asymmetry_Pilot,2022.1.3,Win32,61.03143119,62c50e9c1127f2cd403a315f,0,102,102,143,1,fourthree,,,,,,,,,,,,,,,,,,,,,,,,,,,,,,,,,,,,,,,,,,,,,,,,,,,,,,,,,,,,,,,,,,,,,,,,,,,,,,,,,,,,,,,,,,,,,,,,,,,,,,,,,,,,,,,,,,,,,,,,,,,,,,,,,,,,,,,,,,,,,,,,,,,,,,,,,,,,,
,,,,,,5f26a9c838b9f84004646fec,62c53a921717f38ec2182ad3,2022-07-06_09h32.46.671,Colour_Asymmetry_Pilot,2022.1.3,Win32,61.03143119,62c50e9c1127f2cd403a315f,0,103,103,45,1,threefour,,,,,,,,,,,,,,,,,,,,,,,,,,,,,,,,,,,,,,,,,,,,,,,,,,,,,,,,,,,,,,,,,,,,,,,,,,,,,,,,,,,,,,,,,,,,,,,,,,,,,,,,,,,,,,,,,,,,,,,,,,,,,,,,,,,,,,,,,,,,,,,,,,,,,,,,,,,,,
,,,,,,5f26a9c838b9f84004646fec,62c53a921717f38ec2182ad3,2022-07-06_09h32.46.671,Colour_Asymmetry_Pilot,2022.1.3,Win32,61.03143119,62c50e9c1127f2cd403a315f,0,104,104,44,1,threeone,,,,,,,,,,,,,,,,,,,,,,,,,,,,,,,,,,,,,,,,,,,,,,,,,,,,,,,,,,,,,,,,,,,,,,,,,,,,,,,,,,,,,,,,,,,,,,,,,,,,,,,,,,,,,,,,,,,,,,,,,,,,,,,,,,,,,,,,,,,,,,,,,,,,,,,,,,,,,
,,,,,,5f26a9c838b9f84004646fec,62c53a921717f38ec2182ad3,2022-07-06_09h32.46.671,Colour_Asymmetry_Pilot,2022.1.3,Win32,61.03143119,62c50e9c1127f2cd403a315f,0,105,105,125,1,threefour,,,,,,,,,,,,,,,,,,,,,,,,,,,,,,,,,,,,,,,,,,,,,,,,,,,,,,,,,,,,,,,,,,,,,,,,,,,,,,,,,,,,,,,,,,,,,,,,,,,,,,,,,,,,,,,,,,,,,,,,,,,,,,,,,,,,,,,,,,,,,,,,,,,,,,,,,,,,,
,,,,,,5f26a9c838b9f84004646fec,62c53a921717f38ec2182ad3,2022-07-06_09h32.46.671,Colour_Asymmetry_Pilot,2022.1.3,Win32,61.03143119,62c50e9c1127f2cd403a315f,0,106,106,0,1,onetwo,,,,,,,,,,,,,,,,,,,,,,,,,,,,,,,,,,,,,,,,,,,,,,,,,,,,,,,,,,,,,,,,,,,,,,,,,,,,,,,,,,,,,,,,,,,,,,,,,,,,,,,,,,,,,,,,,,,,,,,,,,,,,,,,,,,,,,,,,,,,,,,,,,,,,,,,,,,,,
,,,,,,5f26a9c838b9f84004646fec,62c53a921717f38ec2182ad3,2022-07-06_09h32.46.671,Colour_Asymmetry_Pilot,2022.1.3,Win32,61.03143119,62c50e9c1127f2cd403a315f,0,107,107,95,1,fourthree,,,,,,,,,,,,,,,,,,,,,,,,,,,,,,,,,,,,,,,,,,,,,,,,,,,,,,,,,,,,,,,,,,,,,,,,,,,,,,,,,,,,,,,,,,,,,,,,,,,,,,,,,,,,,,,,,,,,,,,,,,,,,,,,,,,,,,,,,,,,,,,,,,,,,,,,,,,,,
,,,,,,5f26a9c838b9f84004646fec,62c53a921717f38ec2182ad3,2022-07-06_09h32.46.671,Colour_Asymmetry_Pilot,2022.1.3,Win32,61.03143119,62c50e9c1127f2cd403a315f,0,108,108,13,1,threefour,,,,,,,,,,,,,,,,,,,,,,,,,,,,,,,,,,,,,,,,,,,,,,,,,,,,,,,,,,,,,,,,,,,,,,,,,,,,,,,,,,,,,,,,,,,,,,,,,,,,,,,,,,,,,,,,,,,,,,,,,,,,,,,,,,,,,,,,,,,,,,,,,,,,,,,,,,,,,
,,,,,,5f26a9c838b9f84004646fec,62c53a921717f38ec2182ad3,2022-07-06_09h32.46.671,Colour_Asymmetry_Pilot,2022.1.3,Win32,61.03143119,62c50e9c1127f2cd403a315f,0,109,109,18,1,twoone,,,,,,,,,,,,,,,,,,,,,,,,,,,,,,,,,,,,,,,,,,,,,,,,,,,,,,,,,,,,,,,,,,,,,,,,,,,,,,,,,,,,,,,,,,,,,,,,,,,,,,,,,,,,,,,,,,,,,,,,,,,,,,,,,,,,,,,,,,,,,,,,,,,,,,,,,,,,,
,,,,,,5f26a9c838b9f84004646fec,62c53a921717f38ec2182ad3,2022-07-06_09h32.46.671,Colour_Asymmetry_Pilot,2022.1.3,Win32,61.03143119,62c50e9c1127f2cd403a315f,0,110,110,77,1,threefour,,,,,,,,,,,,,,,,,,,,,,,,,,,,,,,,,,,,,,,,,,,,,,,,,,,,,,,,,,,,,,,,,,,,,,,,,,,,,,,,,,,,,,,,,,,,,,,,,,,,,,,,,,,,,,,,,,,,,,,,,,,,,,,,,,,,,,,,,,,,,,,,,,,,,,,,,,,,,
,,,,,,5f26a9c838b9f84004646fec,62c53a921717f38ec2182ad3,2022-07-06_09h32.46.671,Colour_Asymmetry_Pilot,2022.1.3,Win32,61.03143119,62c50e9c1127f2cd403a315f,0,111,111,161,1,onethree,,,,,,,,,,,,,,,,,,,,,,,,,,,,,,,,,,,,,,,,,,,,,,,,,,,,,,,,,,,,,,,,,,,,,,,,,,,,,,,,,,,,,,,,,,,,,,,,,,,,,,,,,,,,,,,,,,,,,,,,,,,,,,,,,,,,,,,,,,,,,,,,,,,,,,,,,,,,,
,,,,,,5f26a9c838b9f84004646fec,62c53a921717f38ec2182ad3,2022-07-06_09h32.46.671,Colour_Asymmetry_Pilot,2022.1.3,Win32,61.03143119,62c50e9c1127f2cd403a315f,0,112,112,62,1,fourtwo,,,,,,,,,,,,,,,,,,,,,,,,,,,,,,,,,,,,,,,,,,,,,,,,,,,,,,,,,,,,,,,,,,,,,,,,,,,,,,,,,,,,,,,,,,,,,,,,,,,,,,,,,,,,,,,,,,,,,,,,,,,,,,,,,,,,,,,,,,,,,,,,,,,,,,,,,,,,,
,,,,,,5f26a9c838b9f84004646fec,62c53a921717f38ec2182ad3,2022-07-06_09h32.46.671,Colour_Asymmetry_Pilot,2022.1.3,Win32,61.03143119,62c50e9c1127f2cd403a315f,0,113,113,12,1,threeone,,,,,,,,,,,,,,,,,,,,,,,,,,,,,,,,,,,,,,,,,,,,,,,,,,,,,,,,,,,,,,,,,,,,,,,,,,,,,,,,,,,,,,,,,,,,,,,,,,,,,,,,,,,,,,,,,,,,,,,,,,,,,,,,,,,,,,,,,,,,,,,,,,,,,,,,,,,,,
,,,,,,5f26a9c838b9f84004646fec,62c53a921717f38ec2182ad3,2022-07-06_09h32.46.671,Colour_Asymmetry_Pilot,2022.1.3,Win32,61.03143119,62c50e9c1127f2cd403a315f,0,114,114,81,1,onethree,,,,,,,,,,,,,,,,,,,,,,,,,,,,,,,,,,,,,,,,,,,,,,,,,,,,,,,,,,,,,,,,,,,,,,,,,,,,,,,,,,,,,,,,,,,,,,,,,,,,,,,,,,,,,,,,,,,,,,,,,,,,,,,,,,,,,,,,,,,,,,,,,,,,,,,,,,,,,
,,,,,,5f26a9c838b9f84004646fec,62c53a921717f38ec2182ad3,2022-07-06_09h32.46.671,Colour_Asymmetry_Pilot,2022.1.3,Win32,61.03143119,62c50e9c1127f2cd403a315f,0,115,115,121,1,onethree,,,,,,,,,,,,,,,,,,,,,,,,,,,,,,,,,,,,,,,,,,,,,,,,,,,,,,,,,,,,,,,,,,,,,,,,,,,,,,,,,,,,,,,,,,,,,,,,,,,,,,,,,,,,,,,,,,,,,,,,,,,,,,,,,,,,,,,,,,,,,,,,,,,,,,,,,,,,,
,,,,,,5f26a9c838b9f84004646fec,62c53a921717f38ec2182ad3,2022-07-06_09h32.46.671,Colour_Asymmetry_Pilot,2022.1.3,Win32,61.03143119,62c50e9c1127f2cd403a315f,0,116,116,17,1,onethree,,,,,,,,,,,,,,,,,,,,,,,,,,,,,,,,,,,,,,,,,,,,,,,,,,,,,,,,,,,,,,,,,,,,,,,,,,,,,,,,,,,,,,,,,,,,,,,,,,,,,,,,,,,,,,,,,,,,,,,,,,,,,,,,,,,,,,,,,,,,,,,,,,,,,,,,,,,,,
,,,,,,5f26a9c838b9f84004646fec,62c53a921717f38ec2182ad3,2022-07-06_09h32.46.671,Colour_Asymmetry_Pilot,2022.1.3,Win32,61.03143119,62c50e9c1127f2cd403a315f,0,117,117,103,1,fourthree,,,,,,,,,,,,,,,,,,,,,,,,,,,,,,,,,,,,,,,,,,,,,,,,,,,,,,,,,,,,,,,,,,,,,,,,,,,,,,,,,,,,,,,,,,,,,,,,,,,,,,,,,,,,,,,,,,,,,,,,,,,,,,,,,,,,,,,,,,,,,,,,,,,,,,,,,,,,,
,,,,,,5f26a9c838b9f84004646fec,62c53a921717f38ec2182ad3,2022-07-06_09h32.46.671,Colour_Asymmetry_Pilot,2022.1.3,Win32,61.03143119,62c50e9c1127f2cd403a315f,0,118,118,67,1,twofour,,,,,,,,,,,,,,,,,,,,,,,,,,,,,,,,,,,,,,,,,,,,,,,,,,,,,,,,,,,,,,,,,,,,,,,,,,,,,,,,,,,,,,,,,,,,,,,,,,,,,,,,,,,,,,,,,,,,,,,,,,,,,,,,,,,,,,,,,,,,,,,,,,,,,,,,,,,,,
,,,,,,5f26a9c838b9f84004646fec,62c53a921717f38ec2182ad3,2022-07-06_09h32.46.671,Colour_Asymmetry_Pilot,2022.1.3,Win32,61.03143119,62c50e9c1127f2cd403a315f,0,119,119,40,1,onetwo,,,,,,,,,,,,,,,,,,,,,,,,,,,,,,,,,,,,,,,,,,,,,,,,,,,,,,,,,,,,,,,,,,,,,,,,,,,,,,,,,,,,,,,,,,,,,,,,,,,,,,,,,,,,,,,,,,,,,,,,,,,,,,,,,,,,,,,,,,,,,,,,,,,,,,,,,,,,,
,,,,,,5f26a9c838b9f84004646fec,62c53a921717f38ec2182ad3,2022-07-06_09h32.46.671,Colour_Asymmetry_Pilot,2022.1.3,Win32,61.03143119,62c50e9c1127f2cd403a315f,0,120,120,61,1,threefour,,,,,,,,,,,,,,,,,,,,,,,,,,,,,,,,,,,,,,,,,,,,,,,,,,,,,,,,,,,,,,,,,,,,,,,,,,,,,,,,,,,,,,,,,,,,,,,,,,,,,,,,,,,,,,,,,,,,,,,,,,,,,,,,,,,,,,,,,,,,,,,,,,,,,,,,,,,,,
,,,,,,5f26a9c838b9f84004646fec,62c53a921717f38ec2182ad3,2022-07-06_09h32.46.671,Colour_Asymmetry_Pilot,2022.1.3,Win32,61.03143119,62c50e9c1127f2cd403a315f,0,121,121,113,1,onethree,,,,,,,,,,,,,,,,,,,,,,,,,,,,,,,,,,,,,,,,,,,,,,,,,,,,,,,,,,,,,,,,,,,,,,,,,,,,,,,,,,,,,,,,,,,,,,,,,,,,,,,,,,,,,,,,,,,,,,,,,,,,,,,,,,,,,,,,,,,,,,,,,,,,,,,,,,,,,
,,,,,,5f26a9c838b9f84004646fec,62c53a921717f38ec2182ad3,2022-07-06_09h32.46.671,Colour_Asymmetry_Pilot,2022.1.3,Win32,61.03143119,62c50e9c1127f2cd403a315f,0,122,122,146,1,twoone,,,,,,,,,,,,,,,,,,,,,,,,,,,,,,,,,,,,,,,,,,,,,,,,,,,,,,,,,,,,,,,,,,,,,,,,,,,,,,,,,,,,,,,,,,,,,,,,,,,,,,,,,,,,,,,,,,,,,,,,,,,,,,,,,,,,,,,,,,,,,,,,,,,,,,,,,,,,,
,,,,,,5f26a9c838b9f84004646fec,62c53a921717f38ec2182ad3,2022-07-06_09h32.46.671,Colour_Asymmetry_Pilot,2022.1.3,Win32,61.03143119,62c50e9c1127f2cd403a315f,0,123,123,128,1,onetwo,,,,,,,,,,,,,,,,,,,,,,,,,,,,,,,,,,,,,,,,,,,,,,,,,,,,,,,,,,,,,,,,,,,,,,,,,,,,,,,,,,,,,,,,,,,,,,,,,,,,,,,,,,,,,,,,,,,,,,,,,,,,,,,,,,,,,,,,,,,,,,,,,,,,,,,,,,,,,
,,,,,,5f26a9c838b9f84004646fec,62c53a921717f38ec2182ad3,2022-07-06_09h32.46.671,Colour_Asymmetry_Pilot,2022.1.3,Win32,61.03143119,62c50e9c1127f2cd403a315f,0,124,124,48,1,onetwo,,,,,,,,,,,,,,,,,,,,,,,,,,,,,,,,,,,,,,,,,,,,,,,,,,,,,,,,,,,,,,,,,,,,,,,,,,,,,,,,,,,,,,,,,,,,,,,,,,,,,,,,,,,,,,,,,,,,,,,,,,,,,,,,,,,,,,,,,,,,,,,,,,,,,,,,,,,,,
,,,,,,5f26a9c838b9f84004646fec,62c53a921717f38ec2182ad3,2022-07-06_09h32.46.671,Colour_Asymmetry_Pilot,2022.1.3,Win32,61.03143119,62c50e9c1127f2cd403a315f,0,125,125,138,1,twoone,,,,,,,,,,,,,,,,,,,,,,,,,,,,,,,,,,,,,,,,,,,,,,,,,,,,,,,,,,,,,,,,,,,,,,,,,,,,,,,,,,,,,,,,,,,,,,,,,,,,,,,,,,,,,,,,,,,,,,,,,,,,,,,,,,,,,,,,,,,,,,,,,,,,,,,,,,,,,
,,,,,,5f26a9c838b9f84004646fec,62c53a921717f38ec2182ad3,2022-07-06_09h32.46.671,Colour_Asymmetry_Pilot,2022.1.3,Win32,61.03143119,62c50e9c1127f2cd403a315f,0,126,126,37,1,threefour,,,,,,,,,,,,,,,,,,,,,,,,,,,,,,,,,,,,,,,,,,,,,,,,,,,,,,,,,,,,,,,,,,,,,,,,,,,,,,,,,,,,,,,,,,,,,,,,,,,,,,,,,,,,,,,,,,,,,,,,,,,,,,,,,,,,,,,,,,,,,,,,,,,,,,,,,,,,,
,,,,,,5f26a9c838b9f84004646fec,62c53a921717f38ec2182ad3,2022-07-06_09h32.46.671,Colour_Asymmetry_Pilot,2022.1.3,Win32,61.03143119,62c50e9c1127f2cd403a315f,0,127,127,90,1,twoone,,,,,,,,,,,,,,,,,,,,,,,,,,,,,,,,,,,,,,,,,,,,,,,,,,,,,,,,,,,,,,,,,,,,,,,,,,,,,,,,,,,,,,,,,,,,,,,,,,,,,,,,,,,,,,,,,,,,,,,,,,,,,,,,,,,,,,,,,,,,,,,,,,,,,,,,,,,,,
,,,,,,5f26a9c838b9f84004646fec,62c53a921717f38ec2182ad3,2022-07-06_09h32.46.671,Colour_Asymmetry_Pilot,2022.1.3,Win32,61.03143119,62c50e9c1127f2cd403a315f,0,128,128,144,1,onetwo,,,,,,,,,,,,,,,,,,,,,,,,,,,,,,,,,,,,,,,,,,,,,,,,,,,,,,,,,,,,,,,,,,,,,,,,,,,,,,,,,,,,,,,,,,,,,,,,,,,,,,,,,,,,,,,,,,,,,,,,,,,,,,,,,,,,,,,,,,,,,,,,,,,,,,,,,,,,,
,,,,,,5f26a9c838b9f84004646fec,62c53a921717f38ec2182ad3,2022-07-06_09h32.46.671,Colour_Asymmetry_Pilot,2022.1.3,Win32,61.03143119,62c50e9c1127f2cd403a315f,0,129,129,9,1,onethree,,,,,,,,,,,,,,,,,,,,,,,,,,,,,,,,,,,,,,,,,,,,,,,,,,,,,,,,,,,,,,,,,,,,,,,,,,,,,,,,,,,,,,,,,,,,,,,,,,,,,,,,,,,,,,,,,,,,,,,,,,,,,,,,,,,,,,,,,,,,,,,,,,,,,,,,,,,,,
,,,,,,5f26a9c838b9f84004646fec,62c53a921717f38ec2182ad3,2022-07-06_09h32.46.671,Colour_Asymmetry_Pilot,2022.1.3,Win32,61.03143119,62c50e9c1127f2cd403a315f,0,130,130,119,1,fourthree,,,,,,,,,,,,,,,,,,,,,,,,,,,,,,,,,,,,,,,,,,,,,,,,,,,,,,,,,,,,,,,,,,,,,,,,,,,,,,,,,,,,,,,,,,,,,,,,,,,,,,,,,,,,,,,,,,,,,,,,,,,,,,,,,,,,,,,,,,,,,,,,,,,,,,,,,,,,,
,,,,,,5f26a9c838b9f84004646fec,62c53a921717f38ec2182ad3,2022-07-06_09h32.46.671,Colour_Asymmetry_Pilot,2022.1.3,Win32,61.03143119,62c50e9c1127f2cd403a315f,0,131,131,98,1,twoone,,,,,,,,,,,,,,,,,,,,,,,,,,,,,,,,,,,,,,,,,,,,,,,,,,,,,,,,,,,,,,,,,,,,,,,,,,,,,,,,,,,,,,,,,,,,,,,,,,,,,,,,,,,,,,,,,,,,,,,,,,,,,,,,,,,,,,,,,,,,,,,,,,,,,,,,,,,,,
,,,,,,5f26a9c838b9f84004646fec,62c53a921717f38ec2182ad3,2022-07-06_09h32.46.671,Colour_Asymmetry_Pilot,2022.1.3,Win32,61.03143119,62c50e9c1127f2cd403a315f,0,132,132,83,1,twofour,,,,,,,,,,,,,,,,,,,,,,,,,,,,,,,,,,,,,,,,,,,,,,,,,,,,,,,,,,,,,,,,,,,,,,,,,,,,,,,,,,,,,,,,,,,,,,,,,,,,,,,,,,,,,,,,,,,,,,,,,,,,,,,,,,,,,,,,,,,,,,,,,,,,,,,,,,,,,
,,,,,,5f26a9c838b9f84004646fec,62c53a921717f38ec2182ad3,2022-07-06_09h32.46.671,Colour_Asymmetry_Pilot,2022.1.3,Win32,61.03143119,62c50e9c1127f2cd403a315f,0,133,133,150,1,fourtwo,,,,,,,,,,,,,,,,,,,,,,,,,,,,,,,,,,,,,,,,,,,,,,,,,,,,,,,,,,,,,,,,,,,,,,,,,,,,,,,,,,,,,,,,,,,,,,,,,,,,,,,,,,,,,,,,,,,,,,,,,,,,,,,,,,,,,,,,,,,,,,,,,,,,,,,,,,,,,
,,,,,,5f26a9c838b9f84004646fec,62c53a921717f38ec2182ad3,2022-07-06_09h32.46.671,Colour_Asymmetry_Pilot,2022.1.3,Win32,61.03143119,62c50e9c1127f2cd403a315f,0,134,134,10,1,twoone,,,,,,,,,,,,,,,,,,,,,,,,,,,,,,,,,,,,,,,,,,,,,,,,,,,,,,,,,,,,,,,,,,,,,,,,,,,,,,,,,,,,,,,,,,,,,,,,,,,,,,,,,,,,,,,,,,,,,,,,,,,,,,,,,,,,,,,,,,,,,,,,,,,,,,,,,,,,,
,,,,,,5f26a9c838b9f84004646fec,62c53a921717f38ec2182ad3,2022-07-06_09h32.46.671,Colour_Asymmetry_Pilot,2022.1.3,Win32,61.03143119,62c50e9c1127f2cd403a315f,0,135,135,141,1,threefour,,,,,,,,,,,,,,,,,,,,,,,,,,,,,,,,,,,,,,,,,,,,,,,,,,,,,,,,,,,,,,,,,,,,,,,,,,,,,,,,,,,,,,,,,,,,,,,,,,,,,,,,,,,,,,,,,,,,,,,,,,,,,,,,,,,,,,,,,,,,,,,,,,,,,,,,,,,,,
,,,,,,5f26a9c838b9f84004646fec,62c53a921717f38ec2182ad3,2022-07-06_09h32.46.671,Colour_Asymmetry_Pilot,2022.1.3,Win32,61.03143119,62c50e9c1127f2cd403a315f,0,136,136,135,1,fourthree,,,,,,,,,,,,,,,,,,,,,,,,,,,,,,,,,,,,,,,,,,,,,,,,,,,,,,,,,,,,,,,,,,,,,,,,,,,,,,,,,,,,,,,,,,,,,,,,,,,,,,,,,,,,,,,,,,,,,,,,,,,,,,,,,,,,,,,,,,,,,,,,,,,,,,,,,,,,,
,,,,,,5f26a9c838b9f84004646fec,62c53a921717f38ec2182ad3,2022-07-06_09h32.46.671,Colour_Asymmetry_Pilot,2022.1.3,Win32,61.03143119,62c50e9c1127f2cd403a315f,0,137,137,153,1,onethree,,,,,,,,,,,,,,,,,,,,,,,,,,,,,,,,,,,,,,,,,,,,,,,,,,,,,,,,,,,,,,,,,,,,,,,,,,,,,,,,,,,,,,,,,,,,,,,,,,,,,,,,,,,,,,,,,,,,,,,,,,,,,,,,,,,,,,,,,,,,,,,,,,,,,,,,,,,,,
,,,,,,5f26a9c838b9f84004646fec,62c53a921717f38ec2182ad3,2022-07-06_09h32.46.671,Colour_Asymmetry_Pilot,2022.1.3,Win32,61.03143119,62c50e9c1127f2cd403a315f,0,138,138,65,1,onethree,,,,,,,,,,,,,,,,,,,,,,,,,,,,,,,,,,,,,,,,,,,,,,,,,,,,,,,,,,,,,,,,,,,,,,,,,,,,,,,,,,,,,,,,,,,,,,,,,,,,,,,,,,,,,,,,,,,,,,,,,,,,,,,,,,,,,,,,,,,,,,,,,,,,,,,,,,,,,
,,,,,,5f26a9c838b9f84004646fec,62c53a921717f38ec2182ad3,2022-07-06_09h32.46.671,Colour_Asymmetry_Pilot,2022.1.3,Win32,61.03143119,62c50e9c1127f2cd403a315f,0,139,139,6,1,fourtwo,,,,,,,,,,,,,,,,,,,,,,,,,,,,,,,,,,,,,,,,,,,,,,,,,,,,,,,,,,,,,,,,,,,,,,,,,,,,,,,,,,,,,,,,,,,,,,,,,,,,,,,,,,,,,,,,,,,,,,,,,,,,,,,,,,,,,,,,,,,,,,,,,,,,,,,,,,,,,
,,,,,,5f26a9c838b9f84004646fec,62c53a921717f38ec2182ad3,2022-07-06_09h32.46.671,Colour_Asymmetry_Pilot,2022.1.3,Win32,61.03143119,62c50e9c1127f2cd403a315f,0,140,140,24,1,onetwo,,,,,,,,,,,,,,,,,,,,,,,,,,,,,,,,,,,,,,,,,,,,,,,,,,,,,,,,,,,,,,,,,,,,,,,,,,,,,,,,,,,,,,,,,,,,,,,,,,,,,,,,,,,,,,,,,,,,,,,,,,,,,,,,,,,,,,,,,,,,,,,,,,,,,,,,,,,,,
,,,,,,5f26a9c838b9f84004646fec,62c53a921717f38ec2182ad3,2022-07-06_09h32.46.671,Colour_Asymmetry_Pilot,2022.1.3,Win32,61.03143119,62c50e9c1127f2cd403a315f,0,141,141,99,1,twofour,,,,,,,,,,,,,,,,,,,,,,,,,,,,,,,,,,,,,,,,,,,,,,,,,,,,,,,,,,,,,,,,,,,,,,,,,,,,,,,,,,,,,,,,,,,,,,,,,,,,,,,,,,,,,,,,,,,,,,,,,,,,,,,,,,,,,,,,,,,,,,,,,,,,,,,,,,,,,
,,,,,,5f26a9c838b9f84004646fec,62c53a921717f38ec2182ad3,2022-07-06_09h32.46.671,Colour_Asymmetry_Pilot,2022.1.3,Win32,61.03143119,62c50e9c1127f2cd403a315f,0,142,142,111,1,fourthree,,,,,,,,,,,,,,,,,,,,,,,,,,,,,,,,,,,,,,,,,,,,,,,,,,,,,,,,,,,,,,,,,,,,,,,,,,,,,,,,,,,,,,,,,,,,,,,,,,,,,,,,,,,,,,,,,,,,,,,,,,,,,,,,,,,,,,,,,,,,,,,,,,,,,,,,,,,,,
,,,,,,5f26a9c838b9f84004646fec,62c53a921717f38ec2182ad3,2022-07-06_09h32.46.671,Colour_Asymmetry_Pilot,2022.1.3,Win32,61.03143119,62c50e9c1127f2cd403a315f,0,143,143,73,1,onethree,,,,,,,,,,,,,,,,,,,,,,,,,,,,,,,,,,,,,,,,,,,,,,,,,,,,,,,,,,,,,,,,,,,,,,,,,,,,,,,,,,,,,,,,,,,,,,,,,,,,,,,,,,,,,,,,,,,,,,,,,,,,,,,,,,,,,,,,,,,,,,,,,,,,,,,,,,,,,
,,,,,,5f26a9c838b9f84004646fec,62c53a921717f38ec2182ad3,2022-07-06_09h32.46.671,Colour_Asymmetry_Pilot,2022.1.3,Win32,61.03143119,62c50e9c1127f2cd403a315f,0,144,144,131,1,twofour,,,,,,,,,,,,,,,,,,,,,,,,,,,,,,,,,,,,,,,,,,,,,,,,,,,,,,,,,,,,,,,,,,,,,,,,,,,,,,,,,,,,,,,,,,,,,,,,,,,,,,,,,,,,,,,,,,,,,,,,,,,,,,,,,,,,,,,,,,,,,,,,,,,,,,,,,,,,,
,,,,,,5f26a9c838b9f84004646fec,62c53a921717f38ec2182ad3,2022-07-06_09h32.46.671,Colour_Asymmetry_Pilot,2022.1.3,Win32,61.03143119,62c50e9c1127f2cd403a315f,0,145,145,79,1,fourthree,,,,,,,,,,,,,,,,,,,,,,,,,,,,,,,,,,,,,,,,,,,,,,,,,,,,,,,,,,,,,,,,,,,,,,,,,,,,,,,,,,,,,,,,,,,,,,,,,,,,,,,,,,,,,,,,,,,,,,,,,,,,,,,,,,,,,,,,,,,,,,,,,,,,,,,,,,,,,
,,,,,,5f26a9c838b9f84004646fec,62c53a921717f38ec2182ad3,2022-07-06_09h32.46.671,Colour_Asymmetry_Pilot,2022.1.3,Win32,61.03143119,62c50e9c1127f2cd403a315f,0,146,146,157,1,threefour,,,,,,,,,,,,,,,,,,,,,,,,,,,,,,,,,,,,,,,,,,,,,,,,,,,,,,,,,,,,,,,,,,,,,,,,,,,,,,,,,,,,,,,,,,,,,,,,,,,,,,,,,,,,,,,,,,,,,,,,,,,,,,,,,,,,,,,,,,,,,,,,,,,,,,,,,,,,,
,,,,,,5f26a9c838b9f84004646fec,62c53a921717f38ec2182ad3,2022-07-06_09h32.46.671,Colour_Asymmetry_Pilot,2022.1.3,Win32,61.03143119,62c50e9c1127f2cd403a315f,0,147,147,110,1,fourtwo,,,,,,,,,,,,,,,,,,,,,,,,,,,,,,,,,,,,,,,,,,,,,,,,,,,,,,,,,,,,,,,,,,,,,,,,,,,,,,,,,,,,,,,,,,,,,,,,,,,,,,,,,,,,,,,,,,,,,,,,,,,,,,,,,,,,,,,,,,,,,,,,,,,,,,,,,,,,,
,,,,,,5f26a9c838b9f84004646fec,62c53a921717f38ec2182ad3,2022-07-06_09h32.46.671,Colour_Asymmetry_Pilot,2022.1.3,Win32,61.03143119,62c50e9c1127f2cd403a315f,0,148,148,124,1,threeone,,,,,,,,,,,,,,,,,,,,,,,,,,,,,,,,,,,,,,,,,,,,,,,,,,,,,,,,,,,,,,,,,,,,,,,,,,,,,,,,,,,,,,,,,,,,,,,,,,,,,,,,,,,,,,,,,,,,,,,,,,,,,,,,,,,,,,,,,,,,,,,,,,,,,,,,,,,,,
,,,,,,5f26a9c838b9f84004646fec,62c53a921717f38ec2182ad3,2022-07-06_09h32.46.671,Colour_Asymmetry_Pilot,2022.1.3,Win32,61.03143119,62c50e9c1127f2cd403a315f,0,149,149,8,1,onetwo,,,,,,,,,,,,,,,,,,,,,,,,,,,,,,,,,,,,,,,,,,,,,,,,,,,,,,,,,,,,,,,,,,,,,,,,,,,,,,,,,,,,,,,,,,,,,,,,,,,,,,,,,,,,,,,,,,,,,,,,,,,,,,,,,,,,,,,,,,,,,,,,,,,,,,,,,,,,,
,,,,,,5f26a9c838b9f84004646fec,62c53a921717f38ec2182ad3,2022-07-06_09h32.46.671,Colour_Asymmetry_Pilot,2022.1.3,Win32,61.03143119,62c50e9c1127f2cd403a315f,0,150,150,120,1,onetwo,,,,,,,,,,,,,,,,,,,,,,,,,,,,,,,,,,,,,,,,,,,,,,,,,,,,,,,,,,,,,,,,,,,,,,,,,,,,,,,,,,,,,,,,,,,,,,,,,,,,,,,,,,,,,,,,,,,,,,,,,,,,,,,,,,,,,,,,,,,,,,,,,,,,,,,,,,,,,
,,,,,,5f26a9c838b9f84004646fec,62c53a921717f38ec2182ad3,2022-07-06_09h32.46.671,Colour_Asymmetry_Pilot,2022.1.3,Win32,61.03143119,62c50e9c1127f2cd403a315f,0,151,151,64,1,onetwo,,,,,,,,,,,,,,,,,,,,,,,,,,,,,,,,,,,,,,,,,,,,,,,,,,,,,,,,,,,,,,,,,,,,,,,,,,,,,,,,,,,,,,,,,,,,,,,,,,,,,,,,,,,,,,,,,,,,,,,,,,,,,,,,,,,,,,,,,,,,,,,,,,,,,,,,,,,,,
,,,,,,5f26a9c838b9f84004646fec,62c53a921717f38ec2182ad3,2022-07-06_09h32.46.671,Colour_Asymmetry_Pilot,2022.1.3,Win32,61.03143119,62c50e9c1127f2cd403a315f,0,152,152,69,1,threefour,,,,,,,,,,,,,,,,,,,,,,,,,,,,,,,,,,,,,,,,,,,,,,,,,,,,,,,,,,,,,,,,,,,,,,,,,,,,,,,,,,,,,,,,,,,,,,,,,,,,,,,,,,,,,,,,,,,,,,,,,,,,,,,,,,,,,,,,,,,,,,,,,,,,,,,,,,,,,
,,,,,,5f26a9c838b9f84004646fec,62c53a921717f38ec2182ad3,2022-07-06_09h32.46.671,Colour_Asymmetry_Pilot,2022.1.3,Win32,61.03143119,62c50e9c1127f2cd403a315f,0,153,153,36,1,threeone,,,,,,,,,,,,,,,,,,,,,,,,,,,,,,,,,,,,,,,,,,,,,,,,,,,,,,,,,,,,,,,,,,,,,,,,,,,,,,,,,,,,,,,,,,,,,,,,,,,,,,,,,,,,,,,,,,,,,,,,,,,,,,,,,,,,,,,,,,,,,,,,,,,,,,,,,,,,,
,,,,,,5f26a9c838b9f84004646fec,62c53a921717f38ec2182ad3,2022-07-06_09h32.46.671,Colour_Asymmetry_Pilot,2022.1.3,Win32,61.03143119,62c50e9c1127f2cd403a315f,0,154,154,55,1,fourthree,,,,,,,,,,,,,,,,,,,,,,,,,,,,,,,,,,,,,,,,,,,,,,,,,,,,,,,,,,,,,,,,,,,,,,,,,,,,,,,,,,,,,,,,,,,,,,,,,,,,,,,,,,,,,,,,,,,,,,,,,,,,,,,,,,,,,,,,,,,,,,,,,,,,,,,,,,,,,
,,,,,,5f26a9c838b9f84004646fec,62c53a921717f38ec2182ad3,2022-07-06_09h32.46.671,Colour_Asymmetry_Pilot,2022.1.3,Win32,61.03143119,62c50e9c1127f2cd403a315f,0,155,155,104,1,onetwo,,,,,,,,,,,,,,,,,,,,,,,,,,,,,,,,,,,,,,,,,,,,,,,,,,,,,,,,,,,,,,,,,,,,,,,,,,,,,,,,,,,,,,,,,,,,,,,,,,,,,,,,,,,,,,,,,,,,,,,,,,,,,,,,,,,,,,,,,,,,,,,,,,,,,,,,,,,,,
,,,,,,5f26a9c838b9f84004646fec,62c53a921717f38ec2182ad3,2022-07-06_09h32.46.671,Colour_Asymmetry_Pilot,2022.1.3,Win32,61.03143119,62c50e9c1127f2cd403a315f,0,156,156,152,1,onetwo,,,,,,,,,,,,,,,,,,,,,,,,,,,,,,,,,,,,,,,,,,,,,,,,,,,,,,,,,,,,,,,,,,,,,,,,,,,,,,,,,,,,,,,,,,,,,,,,,,,,,,,,,,,,,,,,,,,,,,,,,,,,,,,,,,,,,,,,,,,,,,,,,,,,,,,,,,,,,
,,,,,,5f26a9c838b9f84004646fec,62c53a921717f38ec2182ad3,2022-07-06_09h32.46.671,Colour_Asymmetry_Pilot,2022.1.3,Win32,61.03143119,62c50e9c1127f2cd403a315f,0,157,157,14,1,fourtwo,,,,,,,,,,,,,,,,,,,,,,,,,,,,,,,,,,,,,,,,,,,,,,,,,,,,,,,,,,,,,,,,,,,,,,,,,,,,,,,,,,,,,,,,,,,,,,,,,,,,,,,,,,,,,,,,,,,,,,,,,,,,,,,,,,,,,,,,,,,,,,,,,,,,,,,,,,,,,
,,,,,,5f26a9c838b9f84004646fec,62c53a921717f38ec2182ad3,2022-07-06_09h32.46.671,Colour_Asymmetry_Pilot,2022.1.3,Win32,61.03143119,62c50e9c1127f2cd403a315f,0,158,158,49,1,onethree,,,,,,,,,,,,,,,,,,,,,,,,,,,,,,,,,,,,,,,,,,,,,,,,,,,,,,,,,,,,,,,,,,,,,,,,,,,,,,,,,,,,,,,,,,,,,,,,,,,,,,,,,,,,,,,,,,,,,,,,,,,,,,,,,,,,,,,,,,,,,,,,,,,,,,,,,,,,,
,,,,,,5f26a9c838b9f84004646fec,62c53a921717f38ec2182ad3,2022-07-06_09h32.46.671,Colour_Asymmetry_Pilot,2022.1.3,Win32,61.03143119,62c50e9c1127f2cd403a315f,0,159,159,46,1,fourtwo,,,,,,,,,,,,,,,,,,,,,,,,,,,,,,,,,,,,,,,,,,,,,,,,,,,,,,,,,,,,,,,,,,,,,,,,,,,,,,,,,,,,,,,,,,,,,,,,,,,,,,,,,,,,,,,,,,,,,,,,,,,,,,,,,,,,,,,,,,,,,,,,,,,,,,,,,,,,,
,,,,,,5f26a9c838b9f84004646fec,62c53a921717f38ec2182ad3,2022-07-06_09h32.46.671,Colour_Asymmetry_Pilot,2022.1.3,Win32,61.03143119,62c50e9c1127f2cd403a315f,0,160,160,100,1,threeone,,,,,,,,,,,,,,,,,,,,,,,,,,,,,,,,,,,,,,,,,,,,,,,,,,,,,,,,,,,,,,,,,,,,,,,,,,,,,,,,,,,,,,,,,,,,,,,,,,,,,,,,,,,,,,,,,,,,,,,,,,,,,,,,,,,,,,,,,,,,,,,,,,,,,,,,,,,,,
,,,,,,5f26a9c838b9f84004646fec,62c53a921717f38ec2182ad3,2022-07-06_09h32.46.671,Colour_Asymmetry_Pilot,2022.1.3,Win32,61.03143119,62c50e9c1127f2cd403a315f,0,161,161,123,1,twofour,,,,,,,,,,,,,,,,,,,,,,,,,,,,,,,,,,,,,,,,,,,,,,,,,,,,,,,,,,,,,,,,,,,,,,,,,,,,,,,,,,,,,,,,,,,,,,,,,,,,,,,,,,,,,,,,,,,,,,,,,,,,,,,,,,,,,,,,,,,,,,,,,,,,,,,,,,,,,
,,,,,,5f26a9c838b9f84004646fec,62c53a921717f38ec2182ad3,2022-07-06_09h32.46.671,Colour_Asymmetry_Pilot,2022.1.3,Win32,61.03143119,62c50e9c1127f2cd403a315f,,,,,,,space,5.0811,space,2.0093,space,17.8183,space,25.1997,space,1.3309,space,5.0524,"[-0.9766,-0.6472,0.07440000000000002]",twoone,"[0.9763999999999999,-0.1137999999999999,-0.6314]",-4,6.2307,-55,115,1,0,0,response7disk_5,4,6,1,0,0,rectangle_8,4,6,1,0,0,3,4,6,1,0,0,0,0,0,0,1,,,,,,,,,,,,,,,,,,,,,,,,,,,,,,,,,,,,,,,,,,,,,,,,,,,,,,,,,,,,,,,,,,,,,,,,,,,,,,,,,,,,,,,,,,,,,,,,,,,,,,,,,,,,,,,,
,,,,,,5f26a9c838b9f84004646fec,62c53a921717f38ec2182ad3,2022-07-06_09h32.46.671,Colour_Asymmetry_Pilot,2022.1.3,Win32,61.03143119,62c50e9c1127f2cd403a315f,,,,,,,,,,,,,,,,,,,"[-0.9216,-0.5529999999999999,-0.3962]",onethree,"[0.8115999999999999,-0.0040000000000000036,-0.09819999999999995]",-3,3.2536,-128,56,1,0,0,response7disk_5,6,4,1,0,0,rectangle_8,6,4,1,0,0,3,6,4,1,0,0,1,0,1,0,1,,,,,,,,,,,,,,,,,,,,,,,,,,,,,,,,,,,,,,,,,,,,,,,,,,,,,,,,,,,,,,,,,,,,,,,,,,,,,,,,,,,,,,,,,,,,,,,,,,,,,,,,,,,,,,,,
,,,,,,5f26a9c838b9f84004646fec,62c53a921717f38ec2182ad3,2022-07-06_09h32.46.671,Colour_Asymmetry_Pilot,2022.1.3,Win32,61.03143119,62c50e9c1127f2cd403a315f,,,,,,,,,,,,,,,,,,,"[0.9763999999999999,0.30979999999999985,-0.6786]",threefour,"[0.5449999999999999,-0.31000000000000005,-0.0354000000000001]",-3,3.2211,-135,49,1,0,0,response7disk_5,3,0,1,0,0,rectangle_8,3,0,1,0,0,3,3,0,1,0,0,2,0,2,0,1,,,,,,,,,,,,,,,,,,,,,,,,,,,,,,,,,,,,,,,,,,,,,,,,,,,,,,,,,,,,,,,,,,,,,,,,,,,,,,,,,,,,,,,,,,,,,,,,,,,,,,,,,,,,,,,,
,,,,,,5f26a9c838b9f84004646fec,62c53a921717f38ec2182ad3,2022-07-06_09h32.46.671,Colour_Asymmetry_Pilot,2022.1.3,Win32,61.03143119,62c50e9c1127f2cd403a315f,,,,,,,,,,,,,,,,,,,"[0.8274000000000001,-0.5844,-0.9452]",threeone,"[-0.8198,-0.5138,-0.7492000000000001]",-3,1.3514,-140,46,1,0,0,response7disk_5,19,1,1,0,0,rectangle_8,19,1,1,0,0,3,19,1,1,0,0,3,0,3,0,1,,,,,,,,,,,,,,,,,,,,,,,,,,,,,,,,,,,,,,,,,,,,,,,,,,,,,,,,,,,,,,,,,,,,,,,,,,,,,,,,,,,,,,,,,,,,,,,,,,,,,,,,,,,,,,,,
,,,,,,5f26a9c838b9f84004646fec,62c53a921717f38ec2182ad3,2022-07-06_09h32.46.671,Colour_Asymmetry_Pilot,2022.1.3,Win32,61.03143119,62c50e9c1127f2cd403a315f,,,,,,,,,,,,,,,,,,,"[0.8274000000000001,-0.5844,-0.9452]",twofour,"[1,0.12939999999999996,-1]",1,2.6718,90,-145,1,0,0,response3disk_5,6,21,1,0,0,rectangle_8,6,21,1,0,0,3,6,21,1,0,0,4,0,4,0,1,,,,,,,,,,,,,,,,,,,,,,,,,,,,,,,,,,,,,,,,,,,,,,,,,,,,,,,,,,,,,,,,,,,,,,,,,,,,,,,,,,,,,,,,,,,,,,,,,,,,,,,,,,,,,,,,
,,,,,,5f26a9c838b9f84004646fec,62c53a921717f38ec2182ad3,2022-07-06_09h32.46.671,Colour_Asymmetry_Pilot,2022.1.3,Win32,61.03143119,62c50e9c1127f2cd403a315f,,,,,,,,,,,,,,,,,,,"[-0.6942,-0.7648,-0.12959999999999994]",twofour,"[-0.6706000000000001,-0.6157999999999999,-0.6786]",-1,1.9862,-58,-145,1,0,0,response5disk_5,-1,-7,1,0,0,rectangle_8,136,49,1,0,0,3,17,9,1,0,0,5,0,5,0,1,response1disk_7,6,rectangle_4,,,,,,,,,,,,,,,,,,,,,,,,,,,,,,,,,,,,,,,,,,,,,,,,,,,,,,,,,,,,,,,,,,,,,,,,,,,,,,,,,,,,,,,,,,,,,,,,,,,,,,,,,,,,,
,,,,,,5f26a9c838b9f84004646fec,62c53a921717f38ec2182ad3,2022-07-06_09h32.46.671,Colour_Asymmetry_Pilot,2022.1.3,Win32,61.03143119,62c50e9c1127f2cd403a315f,,,,,,,,,,,,,,,,,,,"[-0.45899999999999996,-0.3256,-0.9374]",fourtwo,"[-0.2942,-0.24719999999999998,-0.357]",3,2.5187,120,43,1,0,0,response1disk_5,4,-10,1,0,0,rectangle_8,4,-10,1,0,0,3,4,-10,1,0,0,6,0,6,0,1,,,,,,,,,,,,,,,,,,,,,,,,,,,,,,,,,,,,,,,,,,,,,,,,,,,,,,,,,,,,,,,,,,,,,,,,,,,,,,,,,,,,,,,,,,,,,,,,,,,,,,,,,,,,,,,,
,,,,,,5f26a9c838b9f84004646fec,62c53a921717f38ec2182ad3,2022-07-06_09h32.46.671,Colour_Asymmetry_Pilot,2022.1.3,Win32,61.03143119,62c50e9c1127f2cd403a315f,,,,,,,,,,,,,,,,,,,,onethree,,2,2.0519,,,,,,,,,,,,,,,,,,,,,,,,,,,,,,,,space,24.2071,"[0.8274000000000001,-0.5844,-0.9452]","[0.6547999999999998,-0.043199999999999905,-0.011800000000000033]",122,-57,1,0,0,response3disk,-2,0,1,0,0,rectangle,-2,0,1,0,0,,3,0.002,0,-2,0,1,0,0,0,0,0,94,1,13,second,,,,,,,,,,,,,,,,,,,,,,,,,,,,,,,,,,,,,,,,,,,,,,,,,,,,,,,,,,,,,,,,,,,,,,,,
,,,,,,5f26a9c838b9f84004646fec,62c53a921717f38ec2182ad3,2022-07-06_09h32.46.671,Colour_Asymmetry_Pilot,2022.1.3,Win32,61.03143119,62c50e9c1127f2cd403a315f,,,,,,,,,,,,,,,,,,,,threefour,,-1,2.8363,,,,,,,,,,,,,,,,,,,,,,,,,,,,,,,,,,"[-0.011800000000000033,-0.906,-0.45100000000000007]","[-0.0040000000000000036,0.02739999999999987,-0.08239999999999992]",-60,-138,1,0,0,response5disk,-12,-5,1,0,0,rectangle,-12,-5,1,0,0,,1,0.0005,0,-12,-5,1,0,0,0,1,1,95,1,14,second,,,,,,,,,,,,,,,,,,,,,,,,,,,,,,,,,,,,,,,,,,,,,,,,,,,,,,,,,,,,,,,,,,,,,,,,
,,,,,,5f26a9c838b9f84004646fec,62c53a921717f38ec2182ad3,2022-07-06_09h32.46.671,Colour_Asymmetry_Pilot,2022.1.3,Win32,61.03143119,62c50e9c1127f2cd403a315f,,,,,,,,,,,,,,,,,,,,fourtwo,,4,2.202,,,,,,,,,,,,,,,,,,,,,,,,,,,,,,,,,,"[-0.5452,-0.608,0.2470000000000001]","[-0.9688,-0.4902000000000001,-0.12159999999999993]",60,91,1,0,0,response1disk,3,-1,1,0,0,rectangle,3,-1,1,0,0,,2,0.0006,0,3,-1,1,0,0,0,2,2,146,1,65,second,,,,,,,,,,,,,,,,,,,,,,,,,,,,,,,,,,,,,,,,,,,,,,,,,,,,,,,,,,,,,,,,,,,,,,,,
,,,,,,5f26a9c838b9f84004646fec,62c53a921717f38ec2182ad3,2022-07-06_09h32.46.671,Colour_Asymmetry_Pilot,2022.1.3,Win32,61.03143119,62c50e9c1127f2cd403a315f,,,,,,,,,,,,,,,,,,,,fourtwo,,-2,1.2015,,,,,,,,,,,,,,,,,,,,,,,,,,,,,,,,,,"[0.8274000000000001,-0.5844,-0.9452]","[0.23920000000000008,0.2704,0.16060000000000008]",-116,-75,1,0,0,response5disk,-21,4,1,0,0,rectangle,59,-124,1,0,0,1,1,3.3726,1,-4,2,1,0,0,0,3,3,159,1,78,second,response3disk_3,rectangle,,,,,,,,,,,,,,,,,,,,,,,,,,,,,,,,,,,,,,,,,,,,,,,,,,,,,,,,,,,,,,,,,,,,,,
,,,,,,5f26a9c838b9f84004646fec,62c53a921717f38ec2182ad3,2022-07-06_09h32.46.671,Colour_Asymmetry_Pilot,2022.1.3,Win32,61.03143119,62c50e9c1127f2cd403a315f,,,,,,,,,,,,,,,,,,,,onethree,,4,0.7509,,,,,,,,,,,,,,,,,,,,,,,,,,,,,,,,,,"[0.0351999999999999,0.41159999999999997,0.0038000000000000256]","[0.0351999999999999,0.41159999999999997,0.0038000000000000256]",42,114,1,0,0,response1disk,7,-3,1,0,0,rectangle,7,-3,1,0,0,1,2,0.0005,0,7,-3,1,0,0,0,4,4,90,1,9,second,,,,,,,,,,,,,,,,,,,,,,,,,,,,,,,,,,,,,,,,,,,,,,,,,,,,,,,,,,,,,,,,,,,,,,,,
,,,,,,5f26a9c838b9f84004646fec,62c53a921717f38ec2182ad3,2022-07-06_09h32.46.671,Colour_Asymmetry_Pilot,2022.1.3,Win32,61.03143119,62c50e9c1127f2cd403a315f,,,,,,,,,,,,,,,,,,,,threefour,,3,0.5669,,,,,,,,,,,,,,,,,,,,,,,,,,,,,,,,,,"[-0.5922000000000001,-0.7492000000000001,-0.5296000000000001]","[-0.4982,-0.2942,-0.0354000000000001]",93,48,1,0,0,response1disk,-3,-1,1,0,0,rectangle,-3,-1,1,0,0,1,1,0.0007,0,-3,-1,1,0,0,0,5,5,123,1,42,second,,,,,,,,,,,,,,,,,,,,,,,,,,,,,,,,,,,,,,,,,,,,,,,,,,,,,,,,,,,,,,,,,,,,,,,,
,,,,,,5f26a9c838b9f84004646fec,62c53a921717f38ec2182ad3,2022-07-06_09h32.46.671,Colour_Asymmetry_Pilot,2022.1.3,Win32,61.03143119,62c50e9c1127f2cd403a315f,,,,,,,,,,,,,,,,,,,,fourtwo,,-2,1.5679,,,,,,,,,,,,,,,,,,,,,,,,,,,,,,,,,,"[-0.24719999999999998,-0.0354000000000001,0.3175999999999999]","[-0.17659999999999998,0.3253999999999999,0.19999999999999996]",-132,-52,1,0,0,response5disk,12,17,1,0,0,rectangle,12,17,1,0,0,1,3,0.0006,0,12,17,1,0,0,0,6,6,122,1,41,second,,,,,,,,,,,,,,,,,,,,,,,,,,,,,,,,,,,,,,,,,,,,,,,,,,,,,,,,,,,,,,,,,,,,,,,,
,,,,,,5f26a9c838b9f84004646fec,62c53a921717f38ec2182ad3,2022-07-06_09h32.46.671,Colour_Asymmetry_Pilot,2022.1.3,Win32,61.03143119,62c50e9c1127f2cd403a315f,,,,,,,,,,,,,,,,,,,,twoone,,-3,0.8181,,,,,,,,,,,,,,,,,,,,,,,,,,,,,,,,,,"[-0.9138,-0.5296000000000001,-0.5529999999999999]","[-0.8982,-0.37259999999999993,0.2784]",-117,50,1,0,0,response7disk,16,7,1,0,0,rectangle,16,7,1,0,0,1,2,0.0005,0,16,7,1,0,0,0,7,7,79,1,79,first,,,,,,,,,,,,,,,,,,,,,,,,,,,,,,,,,,,,,,,,,,,,,,,,,,,,,,,,,,,,,,,,,,,,,,,,
,,,,,,5f26a9c838b9f84004646fec,62c53a921717f38ec2182ad3,2022-07-06_09h32.46.671,Colour_Asymmetry_Pilot,2022.1.3,Win32,61.03143119,62c50e9c1127f2cd403a315f,,,,,,,,,,,,,,,,,,,,onethree,,-3,0.6509,,,,,,,,,,,,,,,,,,,,,,,,,,,,,,,,,,"[0.3568,-0.20799999999999996,-0.9844]","[-0.26280000000000003,-0.2158,-0.3256]",-119,49,1,0,0,response7disk,6,-2,1,0,0,rectangle,6,-2,1,0,0,1,1,0.002,0,6,-2,1,0,0,0,8,8,107,1,26,second,,,,,,,,,,,,,,,,,,,,,,,,,,,,,,,,,,,,,,,,,,,,,,,,,,,,,,,,,,,,,,,,,,,,,,,,
,,,,,,5f26a9c838b9f84004646fec,62c53a921717f38ec2182ad3,2022-07-06_09h32.46.671,Colour_Asymmetry_Pilot,2022.1.3,Win32,61.03143119,62c50e9c1127f2cd403a315f,,,,,,,,,,,,,,,,,,,,fourtwo,,-3,0.4668,,,,,,,,,,,,,,,,,,,,,,,,,,,,,,,,,,"[0.796,0.2156,-0.27859999999999996]","[-0.6706000000000001,-0.6157999999999999,-0.6786]",-84,41,1,0,0,response7disk,28,-11,1,0,0,rectangle,28,-11,1,0,0,1,3,0.0006,0,28,-11,1,0,0,0,9,9,81,1,0,second,,,,,,,,,,,,,,,,,,,,,,,,,,,,,,,,,,,,,,,,,,,,,,,,,,,,,,,,,,,,,,,,,,,,,,,,
,,,,,,5f26a9c838b9f84004646fec,62c53a921717f38ec2182ad3,2022-07-06_09h32.46.671,Colour_Asymmetry_Pilot,2022.1.3,Win32,61.03143119,62c50e9c1127f2cd403a315f,,,,,,,,,,,,,,,,,,,,onethree,,1,1.285,,,,,,,,,,,,,,,,,,,,,,,,,,,,,,,,,,"[-0.01980000000000004,-0.5138,-0.38039999999999996]","[-0.2942,-0.7648,-0.7492000000000001]",77,-134,1,0,0,response3disk,1,-11,1,0,0,rectangle,1,-11,1,0,0,1,3,0.0001,0,1,-11,1,0,0,0,10,10,30,1,30,first,,,,,,,,,,,,,,,,,,,,,,,,,,,,,,,,,,,,,,,,,,,,,,,,,,,,,,,,,,,,,,,,,,,,,,,,
,,,,,,5f26a9c838b9f84004646fec,62c53a921717f38ec2182ad3,2022-07-06_09h32.46.671,Colour_Asymmetry_Pilot,2022.1.3,Win32,61.03143119,62c50e9c1127f2cd403a315f,,,,,,,,,,,,,,,,,,,,threefour,,-4,0.9176,,,,,,,,,,,,,,,,,,,,,,,,,,,,,,,,,,"[-0.5688,-0.08239999999999992,-0.1844]","[0.9763999999999999,0.30979999999999985,-0.6786]",-55,111,1,0,0,response7disk,35,-20,1,0,0,rectangle,35,-20,1,0,0,1,1,0.0006,0,35,-20,1,0,0,0,11,11,110,1,29,second,,,,,,,,,,,,,,,,,,,,,,,,,,,,,,,,,,,,,,,,,,,,,,,,,,,,,,,,,,,,,,,,,,,,,,,,
,,,,,,5f26a9c838b9f84004646fec,62c53a921717f38ec2182ad3,2022-07-06_09h32.46.671,Colour_Asymmetry_Pilot,2022.1.3,Win32,61.03143119,62c50e9c1127f2cd403a315f,,,,,,,,,,,,,,,,,,,,fourthree,,-4,0.4663,,,,,,,,,,,,,,,,,,,,,,,,,,,,,,,,,,"[-0.2942,-0.7648,-0.7492000000000001]","[-0.17659999999999998,0.3253999999999999,0.19999999999999996]",-43,115,1,0,0,response7disk,18,5,1,0,0,rectangle,18,5,1,0,0,1,3,0.002,0,18,5,1,0,0,0,12,12,92,1,11,second,,,,,,,,,,,,,,,,,,,,,,,,,,,,,,,,,,,,,,,,,,,,,,,,,,,,,,,,,,,,,,,,,,,,,,,,
,,,,,,5f26a9c838b9f84004646fec,62c53a921717f38ec2182ad3,2022-07-06_09h32.46.671,Colour_Asymmetry_Pilot,2022.1.3,Win32,61.03143119,62c50e9c1127f2cd403a315f,,,,,,,,,,,,,,,,,,,,onethree,,3,0.6004,,,,,,,,,,,,,,,,,,,,,,,,,,,,,,,,,,"[-0.4276,0.0038000000000000256,-0.3256]","[-0.7412000000000001,-0.08239999999999992,-0.6864]",110,60,1,0,0,response1disk,-9,7,1,0,0,rectangle,-9,7,1,0,0,1,3,0,0,-9,7,1,0,0,0,13,13,8,1,8,first,,,,,,,,,,,,,,,,,,,,,,,,,,,,,,,,,,,,,,,,,,,,,,,,,,,,,,,,,,,,,,,,,,,,,,,,
,,,,,,5f26a9c838b9f84004646fec,62c53a921717f38ec2182ad3,2022-07-06_09h32.46.671,Colour_Asymmetry_Pilot,2022.1.3,Win32,61.03143119,62c50e9c1127f2cd403a315f,,,,,,,,,,,,,,,,,,,,onethree,,-2,1.2678,,,,,,,,,,,,,,,,,,,,,,,,,,,,,,,,,,"[-0.17659999999999998,0.3253999999999999,0.19999999999999996]","[0.2784,-0.31000000000000005,-0.5452]",-92,-54,1,0,0,response5disk,28,10,1,0,0,rectangle,28,10,1,0,0,1,1,0.0007,0,28,10,1,0,0,0,14,14,66,1,66,first,,,,,,,,,,,,,,,,,,,,,,,,,,,,,,,,,,,,,,,,,,,,,,,,,,,,,,,,,,,,,,,,,,,,,,,,
,,,,,,5f26a9c838b9f84004646fec,62c53a921717f38ec2182ad3,2022-07-06_09h32.46.671,Colour_Asymmetry_Pilot,2022.1.3,Win32,61.03143119,62c50e9c1127f2cd403a315f,,,,,,,,,,,,,,,,,,,,threefour,,-3,0.3837,,,,,,,,,,,,,,,,,,,,,,,,,,,,,,,,,,"[-0.8982,-0.37259999999999993,0.2784]","[-0.9138,-0.5296000000000001,-0.5529999999999999]",-97,45,1,0,0,response7disk,29,0,1,0,0,rectangle,132,-65,1,0,0,2,2,2.1685,1,-11,-4,1,0,0,0,15,15,160,1,79,second,response3disk_3,rectangle,,,,,,,,,,,,,,,,,,,,,,,,,,,,,,,,,,,,,,,,,,,,,,,,,,,,,,,,,,,,,,,,,,,,,,
,,,,,,5f26a9c838b9f84004646fec,62c53a921717f38ec2182ad3,2022-07-06_09h32.46.671,Colour_Asymmetry_Pilot,2022.1.3,Win32,61.03143119,62c50e9c1127f2cd403a315f,,,,,,,,,,,,,,,,,,,,threeone,,-4,0.4997,,,,,,,,,,,,,,,,,,,,,,,,,,,,,,,,,,"[0.04299999999999993,0.16060000000000008,-0.6628000000000001]","[-0.4746,-0.0354000000000001,0.5449999999999999]",-73,96,1,0,0,response7disk,1,-15,1,0,0,rectangle,1,-15,1,0,0,2,3,0.0019,0,1,-15,1,0,0,0,16,16,45,1,45,first,,,,,,,,,,,,,,,,,,,,,,,,,,,,,,,,,,,,,,,,,,,,,,,,,,,,,,,,,,,,,,,,,,,,,,,,
,,,,,,5f26a9c838b9f84004646fec,62c53a921717f38ec2182ad3,2022-07-06_09h32.46.671,Colour_Asymmetry_Pilot,2022.1.3,Win32,61.03143119,62c50e9c1127f2cd403a315f,,,,,,,,,,,,,,,,,,,,fourthree,,-1,1.8183,,,,,,,,,,,,,,,,,,,,,,,,,,,,,,,,,,"[-0.34920000000000007,-0.702,-0.5216]","[0.7176,-0.906,-0.6864]",-40,-138,1,0,0,response5disk,0,-2,1,0,0,rectangle,0,-2,1,0,0,2,1,0.0007,0,0,-2,1,0,0,0,17,17,133,1,52,second,,,,,,,,,,,,,,,,,,,,,,,,,,,,,,,,,,,,,,,,,,,,,,,,,,,,,,,,,,,,,,,,,,,,,,,,
