trials.thisRepN,trials.thisTrialN,trials.thisN,trials.thisIndex,trials.ran,Colourcodes,participant,session,date,expName,psychopyVersion,OS,frameRate,study_id,trials_4.thisRepN,trials_4.thisTrialN,trials_4.thisN,trials_4.thisIndex,trials_4.ran,StimulusPos,key_resp.keys,key_resp.rt,key_resp_2.keys,key_resp_2.rt,key_resp_15.keys,key_resp_15.rt,key_resp_17.keys,key_resp_17.rt,key_resp_9.keys,key_resp_9.rt,key_resp_10.keys,key_resp_10.rt,Circle1_col,Ecc,Circle2_col,similarity,response_time,mouse_5.x,mouse_5.y,mouse_5.leftButton,mouse_5.midButton,mouse_5.rightButton,mouse_5.clicked_name,mouse_10.x,mouse_10.y,mouse_10.leftButton,mouse_10.midButton,mouse_10.rightButton,mouse_10.clicked_name,mouse_7.x,mouse_7.y,mouse_7.leftButton,mouse_7.midButton,mouse_7.rightButton,mouse_7.clicked_name,catchprac,catchnumberprac,mouse_6.x,mouse_6.y,mouse_6.leftButton,mouse_6.midButton,mouse_6.rightButton,mouse_6.clicked_name,duringprac.thisRepN,duringprac.thisTrialN,duringprac.thisN,duringprac.thisIndex,duringprac.ran,key_resp_22.keys,key_resp_22.rt,Circle1_colour,Circle2_colour,mouse.x,mouse.y,mouse.leftButton,mouse.midButton,mouse.rightButton,mouse.clicked_name,mouse_2.x,mouse_2.y,mouse_2.leftButton,mouse_2.midButton,mouse_2.rightButton,mouse_2.clicked_name,mouse_3.x,mouse_3.y,mouse_3.leftButton,mouse_3.midButton,mouse_3.rightButton,catchresponse,catchnumber,response_time_catch,Catch,mouse_11.x,mouse_11.y,mouse_11.leftButton,mouse_11.midButton,mouse_11.rightButton,trials_2.thisRepN,trials_2.thisTrialN,trials_2.thisN,trials_2.thisIndex,trials_2.ran,Colourpair,Temporder,mouse_3.clicked_name,mouse_11.clicked_name,trials_3.thisRepN,trials_3.thisTrialN,trials_3.thisN,trials_3.thisIndex,trials_3.ran,key_resp_instr_Ishi.keys,key_resp_instr_Ishi.rt,Ishi_trial_keyresp.keys,Ishi_textbox.text,Ishi_mouse.x,Ishi_mouse.y,Ishi_mouse.leftButton,Ishi_mouse.midButton,Ishi_mouse.rightButton,Ishi_mouse.clicked_name,Ishi_loop.thisRepN,Ishi_loop.thisTrialN,Ishi_loop.thisN,Ishi_loop.thisIndex,Ishi_loop.ran,imageaddress,textbox.text,mouse_4.x,mouse_4.y,mouse_4.leftButton,mouse_4.midButton,mouse_4.rightButton,mouse_4.clicked_name,textbox_2.text,mouse_8.x,mouse_8.y,mouse_8.leftButton,mouse_8.midButton,mouse_8.rightButton,mouse_8.clicked_name,textbox_3.text,mouse_9.x,mouse_9.y,mouse_9.leftButton,mouse_9.midButton,mouse_9.rightButton,mouse_9.clicked_name,textbox_4.text,mouse_12.x,mouse_12.y,mouse_12.leftButton,mouse_12.midButton,mouse_12.rightButton,mouse_12.clicked_name,textbox_5.text,mouse_13.x,mouse_13.y,mouse_13.leftButton,mouse_13.midButton,mouse_13.rightButton,mouse_13.clicked_name,textbox_6.text,mouse_14.x,mouse_14.y,mouse_14.leftButton,mouse_14.midButton,mouse_14.rightButton,mouse_14.clicked_name,textbox_7.text,mouse_15.x,mouse_15.y,mouse_15.leftButton,mouse_15.midButton,mouse_15.rightButton,mouse_15.clicked_name
0,0,0,78,1,,605a0e721e341cf7eb75c28e,62c538f4270234594f182abb,2022-07-06_09h25.57.680,Colour_Asymmetry_Pilot,2022.1.3,Win32,59.24872615,62c50e9c1127f2cd403a315f,,,,,,,,,,,,,,,,,,,,,,,,,,,,,,,,,,,,,,,,,,,,,,,,,,,,,,,,,,,,,,,,,,,,,,,,,,,,,,,,,,,,,,,,,,,,,,,,,,,,,,,,,,,,,,,,,,,,,,,,,,,,,,,,,,,,,,,,,,,,,,,,,,,,,,,,,,,,,,,,,,,
0,1,1,58,1,,605a0e721e341cf7eb75c28e,62c538f4270234594f182abb,2022-07-06_09h25.57.680,Colour_Asymmetry_Pilot,2022.1.3,Win32,59.24872615,62c50e9c1127f2cd403a315f,,,,,,,,,,,,,,,,,,,,,,,,,,,,,,,,,,,,,,,,,,,,,,,,,,,,,,,,,,,,,,,,,,,,,,,,,,,,,,,,,,,,,,,,,,,,,,,,,,,,,,,,,,,,,,,,,,,,,,,,,,,,,,,,,,,,,,,,,,,,,,,,,,,,,,,,,,,,,,,,,,,
0,2,2,62,1,,605a0e721e341cf7eb75c28e,62c538f4270234594f182abb,2022-07-06_09h25.57.680,Colour_Asymmetry_Pilot,2022.1.3,Win32,59.24872615,62c50e9c1127f2cd403a315f,,,,,,,,,,,,,,,,,,,,,,,,,,,,,,,,,,,,,,,,,,,,,,,,,,,,,,,,,,,,,,,,,,,,,,,,,,,,,,,,,,,,,,,,,,,,,,,,,,,,,,,,,,,,,,,,,,,,,,,,,,,,,,,,,,,,,,,,,,,,,,,,,,,,,,,,,,,,,,,,,,,
0,3,3,14,1,,605a0e721e341cf7eb75c28e,62c538f4270234594f182abb,2022-07-06_09h25.57.680,Colour_Asymmetry_Pilot,2022.1.3,Win32,59.24872615,62c50e9c1127f2cd403a315f,,,,,,,,,,,,,,,,,,,,,,,,,,,,,,,,,,,,,,,,,,,,,,,,,,,,,,,,,,,,,,,,,,,,,,,,,,,,,,,,,,,,,,,,,,,,,,,,,,,,,,,,,,,,,,,,,,,,,,,,,,,,,,,,,,,,,,,,,,,,,,,,,,,,,,,,,,,,,,,,,,,
0,4,4,53,1,,605a0e721e341cf7eb75c28e,62c538f4270234594f182abb,2022-07-06_09h25.57.680,Colour_Asymmetry_Pilot,2022.1.3,Win32,59.24872615,62c50e9c1127f2cd403a315f,,,,,,,,,,,,,,,,,,,,,,,,,,,,,,,,,,,,,,,,,,,,,,,,,,,,,,,,,,,,,,,,,,,,,,,,,,,,,,,,,,,,,,,,,,,,,,,,,,,,,,,,,,,,,,,,,,,,,,,,,,,,,,,,,,,,,,,,,,,,,,,,,,,,,,,,,,,,,,,,,,,
0,5,5,49,1,,605a0e721e341cf7eb75c28e,62c538f4270234594f182abb,2022-07-06_09h25.57.680,Colour_Asymmetry_Pilot,2022.1.3,Win32,59.24872615,62c50e9c1127f2cd403a315f,,,,,,,,,,,,,,,,,,,,,,,,,,,,,,,,,,,,,,,,,,,,,,,,,,,,,,,,,,,,,,,,,,,,,,,,,,,,,,,,,,,,,,,,,,,,,,,,,,,,,,,,,,,,,,,,,,,,,,,,,,,,,,,,,,,,,,,,,,,,,,,,,,,,,,,,,,,,,,,,,,,
0,6,6,16,1,,605a0e721e341cf7eb75c28e,62c538f4270234594f182abb,2022-07-06_09h25.57.680,Colour_Asymmetry_Pilot,2022.1.3,Win32,59.24872615,62c50e9c1127f2cd403a315f,,,,,,,,,,,,,,,,,,,,,,,,,,,,,,,,,,,,,,,,,,,,,,,,,,,,,,,,,,,,,,,,,,,,,,,,,,,,,,,,,,,,,,,,,,,,,,,,,,,,,,,,,,,,,,,,,,,,,,,,,,,,,,,,,,,,,,,,,,,,,,,,,,,,,,,,,,,,,,,,,,,
0,7,7,87,1,,605a0e721e341cf7eb75c28e,62c538f4270234594f182abb,2022-07-06_09h25.57.680,Colour_Asymmetry_Pilot,2022.1.3,Win32,59.24872615,62c50e9c1127f2cd403a315f,,,,,,,,,,,,,,,,,,,,,,,,,,,,,,,,,,,,,,,,,,,,,,,,,,,,,,,,,,,,,,,,,,,,,,,,,,,,,,,,,,,,,,,,,,,,,,,,,,,,,,,,,,,,,,,,,,,,,,,,,,,,,,,,,,,,,,,,,,,,,,,,,,,,,,,,,,,,,,,,,,,
0,8,8,18,1,,605a0e721e341cf7eb75c28e,62c538f4270234594f182abb,2022-07-06_09h25.57.680,Colour_Asymmetry_Pilot,2022.1.3,Win32,59.24872615,62c50e9c1127f2cd403a315f,,,,,,,,,,,,,,,,,,,,,,,,,,,,,,,,,,,,,,,,,,,,,,,,,,,,,,,,,,,,,,,,,,,,,,,,,,,,,,,,,,,,,,,,,,,,,,,,,,,,,,,,,,,,,,,,,,,,,,,,,,,,,,,,,,,,,,,,,,,,,,,,,,,,,,,,,,,,,,,,,,,
0,9,9,43,1,,605a0e721e341cf7eb75c28e,62c538f4270234594f182abb,2022-07-06_09h25.57.680,Colour_Asymmetry_Pilot,2022.1.3,Win32,59.24872615,62c50e9c1127f2cd403a315f,,,,,,,,,,,,,,,,,,,,,,,,,,,,,,,,,,,,,,,,,,,,,,,,,,,,,,,,,,,,,,,,,,,,,,,,,,,,,,,,,,,,,,,,,,,,,,,,,,,,,,,,,,,,,,,,,,,,,,,,,,,,,,,,,,,,,,,,,,,,,,,,,,,,,,,,,,,,,,,,,,,
0,10,10,85,1,,605a0e721e341cf7eb75c28e,62c538f4270234594f182abb,2022-07-06_09h25.57.680,Colour_Asymmetry_Pilot,2022.1.3,Win32,59.24872615,62c50e9c1127f2cd403a315f,,,,,,,,,,,,,,,,,,,,,,,,,,,,,,,,,,,,,,,,,,,,,,,,,,,,,,,,,,,,,,,,,,,,,,,,,,,,,,,,,,,,,,,,,,,,,,,,,,,,,,,,,,,,,,,,,,,,,,,,,,,,,,,,,,,,,,,,,,,,,,,,,,,,,,,,,,,,,,,,,,,
0,11,11,30,1,,605a0e721e341cf7eb75c28e,62c538f4270234594f182abb,2022-07-06_09h25.57.680,Colour_Asymmetry_Pilot,2022.1.3,Win32,59.24872615,62c50e9c1127f2cd403a315f,,,,,,,,,,,,,,,,,,,,,,,,,,,,,,,,,,,,,,,,,,,,,,,,,,,,,,,,,,,,,,,,,,,,,,,,,,,,,,,,,,,,,,,,,,,,,,,,,,,,,,,,,,,,,,,,,,,,,,,,,,,,,,,,,,,,,,,,,,,,,,,,,,,,,,,,,,,,,,,,,,,
0,12,12,38,1,,605a0e721e341cf7eb75c28e,62c538f4270234594f182abb,2022-07-06_09h25.57.680,Colour_Asymmetry_Pilot,2022.1.3,Win32,59.24872615,62c50e9c1127f2cd403a315f,,,,,,,,,,,,,,,,,,,,,,,,,,,,,,,,,,,,,,,,,,,,,,,,,,,,,,,,,,,,,,,,,,,,,,,,,,,,,,,,,,,,,,,,,,,,,,,,,,,,,,,,,,,,,,,,,,,,,,,,,,,,,,,,,,,,,,,,,,,,,,,,,,,,,,,,,,,,,,,,,,,
0,13,13,9,1,,605a0e721e341cf7eb75c28e,62c538f4270234594f182abb,2022-07-06_09h25.57.680,Colour_Asymmetry_Pilot,2022.1.3,Win32,59.24872615,62c50e9c1127f2cd403a315f,,,,,,,,,,,,,,,,,,,,,,,,,,,,,,,,,,,,,,,,,,,,,,,,,,,,,,,,,,,,,,,,,,,,,,,,,,,,,,,,,,,,,,,,,,,,,,,,,,,,,,,,,,,,,,,,,,,,,,,,,,,,,,,,,,,,,,,,,,,,,,,,,,,,,,,,,,,,,,,,,,,
0,14,14,36,1,,605a0e721e341cf7eb75c28e,62c538f4270234594f182abb,2022-07-06_09h25.57.680,Colour_Asymmetry_Pilot,2022.1.3,Win32,59.24872615,62c50e9c1127f2cd403a315f,,,,,,,,,,,,,,,,,,,,,,,,,,,,,,,,,,,,,,,,,,,,,,,,,,,,,,,,,,,,,,,,,,,,,,,,,,,,,,,,,,,,,,,,,,,,,,,,,,,,,,,,,,,,,,,,,,,,,,,,,,,,,,,,,,,,,,,,,,,,,,,,,,,,,,,,,,,,,,,,,,,
0,15,15,83,1,,605a0e721e341cf7eb75c28e,62c538f4270234594f182abb,2022-07-06_09h25.57.680,Colour_Asymmetry_Pilot,2022.1.3,Win32,59.24872615,62c50e9c1127f2cd403a315f,,,,,,,,,,,,,,,,,,,,,,,,,,,,,,,,,,,,,,,,,,,,,,,,,,,,,,,,,,,,,,,,,,,,,,,,,,,,,,,,,,,,,,,,,,,,,,,,,,,,,,,,,,,,,,,,,,,,,,,,,,,,,,,,,,,,,,,,,,,,,,,,,,,,,,,,,,,,,,,,,,,
0,16,16,80,1,,605a0e721e341cf7eb75c28e,62c538f4270234594f182abb,2022-07-06_09h25.57.680,Colour_Asymmetry_Pilot,2022.1.3,Win32,59.24872615,62c50e9c1127f2cd403a315f,,,,,,,,,,,,,,,,,,,,,,,,,,,,,,,,,,,,,,,,,,,,,,,,,,,,,,,,,,,,,,,,,,,,,,,,,,,,,,,,,,,,,,,,,,,,,,,,,,,,,,,,,,,,,,,,,,,,,,,,,,,,,,,,,,,,,,,,,,,,,,,,,,,,,,,,,,,,,,,,,,,
0,17,17,76,1,,605a0e721e341cf7eb75c28e,62c538f4270234594f182abb,2022-07-06_09h25.57.680,Colour_Asymmetry_Pilot,2022.1.3,Win32,59.24872615,62c50e9c1127f2cd403a315f,,,,,,,,,,,,,,,,,,,,,,,,,,,,,,,,,,,,,,,,,,,,,,,,,,,,,,,,,,,,,,,,,,,,,,,,,,,,,,,,,,,,,,,,,,,,,,,,,,,,,,,,,,,,,,,,,,,,,,,,,,,,,,,,,,,,,,,,,,,,,,,,,,,,,,,,,,,,,,,,,,,
0,18,18,0,1,,605a0e721e341cf7eb75c28e,62c538f4270234594f182abb,2022-07-06_09h25.57.680,Colour_Asymmetry_Pilot,2022.1.3,Win32,59.24872615,62c50e9c1127f2cd403a315f,,,,,,,,,,,,,,,,,,,,,,,,,,,,,,,,,,,,,,,,,,,,,,,,,,,,,,,,,,,,,,,,,,,,,,,,,,,,,,,,,,,,,,,,,,,,,,,,,,,,,,,,,,,,,,,,,,,,,,,,,,,,,,,,,,,,,,,,,,,,,,,,,,,,,,,,,,,,,,,,,,,
0,19,19,54,1,,605a0e721e341cf7eb75c28e,62c538f4270234594f182abb,2022-07-06_09h25.57.680,Colour_Asymmetry_Pilot,2022.1.3,Win32,59.24872615,62c50e9c1127f2cd403a315f,,,,,,,,,,,,,,,,,,,,,,,,,,,,,,,,,,,,,,,,,,,,,,,,,,,,,,,,,,,,,,,,,,,,,,,,,,,,,,,,,,,,,,,,,,,,,,,,,,,,,,,,,,,,,,,,,,,,,,,,,,,,,,,,,,,,,,,,,,,,,,,,,,,,,,,,,,,,,,,,,,,
0,20,20,66,1,,605a0e721e341cf7eb75c28e,62c538f4270234594f182abb,2022-07-06_09h25.57.680,Colour_Asymmetry_Pilot,2022.1.3,Win32,59.24872615,62c50e9c1127f2cd403a315f,,,,,,,,,,,,,,,,,,,,,,,,,,,,,,,,,,,,,,,,,,,,,,,,,,,,,,,,,,,,,,,,,,,,,,,,,,,,,,,,,,,,,,,,,,,,,,,,,,,,,,,,,,,,,,,,,,,,,,,,,,,,,,,,,,,,,,,,,,,,,,,,,,,,,,,,,,,,,,,,,,,
0,21,21,26,1,,605a0e721e341cf7eb75c28e,62c538f4270234594f182abb,2022-07-06_09h25.57.680,Colour_Asymmetry_Pilot,2022.1.3,Win32,59.24872615,62c50e9c1127f2cd403a315f,,,,,,,,,,,,,,,,,,,,,,,,,,,,,,,,,,,,,,,,,,,,,,,,,,,,,,,,,,,,,,,,,,,,,,,,,,,,,,,,,,,,,,,,,,,,,,,,,,,,,,,,,,,,,,,,,,,,,,,,,,,,,,,,,,,,,,,,,,,,,,,,,,,,,,,,,,,,,,,,,,,
0,22,22,70,1,,605a0e721e341cf7eb75c28e,62c538f4270234594f182abb,2022-07-06_09h25.57.680,Colour_Asymmetry_Pilot,2022.1.3,Win32,59.24872615,62c50e9c1127f2cd403a315f,,,,,,,,,,,,,,,,,,,,,,,,,,,,,,,,,,,,,,,,,,,,,,,,,,,,,,,,,,,,,,,,,,,,,,,,,,,,,,,,,,,,,,,,,,,,,,,,,,,,,,,,,,,,,,,,,,,,,,,,,,,,,,,,,,,,,,,,,,,,,,,,,,,,,,,,,,,,,,,,,,,
0,23,23,19,1,,605a0e721e341cf7eb75c28e,62c538f4270234594f182abb,2022-07-06_09h25.57.680,Colour_Asymmetry_Pilot,2022.1.3,Win32,59.24872615,62c50e9c1127f2cd403a315f,,,,,,,,,,,,,,,,,,,,,,,,,,,,,,,,,,,,,,,,,,,,,,,,,,,,,,,,,,,,,,,,,,,,,,,,,,,,,,,,,,,,,,,,,,,,,,,,,,,,,,,,,,,,,,,,,,,,,,,,,,,,,,,,,,,,,,,,,,,,,,,,,,,,,,,,,,,,,,,,,,,
0,24,24,27,1,,605a0e721e341cf7eb75c28e,62c538f4270234594f182abb,2022-07-06_09h25.57.680,Colour_Asymmetry_Pilot,2022.1.3,Win32,59.24872615,62c50e9c1127f2cd403a315f,,,,,,,,,,,,,,,,,,,,,,,,,,,,,,,,,,,,,,,,,,,,,,,,,,,,,,,,,,,,,,,,,,,,,,,,,,,,,,,,,,,,,,,,,,,,,,,,,,,,,,,,,,,,,,,,,,,,,,,,,,,,,,,,,,,,,,,,,,,,,,,,,,,,,,,,,,,,,,,,,,,
0,25,25,29,1,,605a0e721e341cf7eb75c28e,62c538f4270234594f182abb,2022-07-06_09h25.57.680,Colour_Asymmetry_Pilot,2022.1.3,Win32,59.24872615,62c50e9c1127f2cd403a315f,,,,,,,,,,,,,,,,,,,,,,,,,,,,,,,,,,,,,,,,,,,,,,,,,,,,,,,,,,,,,,,,,,,,,,,,,,,,,,,,,,,,,,,,,,,,,,,,,,,,,,,,,,,,,,,,,,,,,,,,,,,,,,,,,,,,,,,,,,,,,,,,,,,,,,,,,,,,,,,,,,,
0,26,26,33,1,,605a0e721e341cf7eb75c28e,62c538f4270234594f182abb,2022-07-06_09h25.57.680,Colour_Asymmetry_Pilot,2022.1.3,Win32,59.24872615,62c50e9c1127f2cd403a315f,,,,,,,,,,,,,,,,,,,,,,,,,,,,,,,,,,,,,,,,,,,,,,,,,,,,,,,,,,,,,,,,,,,,,,,,,,,,,,,,,,,,,,,,,,,,,,,,,,,,,,,,,,,,,,,,,,,,,,,,,,,,,,,,,,,,,,,,,,,,,,,,,,,,,,,,,,,,,,,,,,,
0,27,27,75,1,,605a0e721e341cf7eb75c28e,62c538f4270234594f182abb,2022-07-06_09h25.57.680,Colour_Asymmetry_Pilot,2022.1.3,Win32,59.24872615,62c50e9c1127f2cd403a315f,,,,,,,,,,,,,,,,,,,,,,,,,,,,,,,,,,,,,,,,,,,,,,,,,,,,,,,,,,,,,,,,,,,,,,,,,,,,,,,,,,,,,,,,,,,,,,,,,,,,,,,,,,,,,,,,,,,,,,,,,,,,,,,,,,,,,,,,,,,,,,,,,,,,,,,,,,,,,,,,,,,
0,28,28,86,1,,605a0e721e341cf7eb75c28e,62c538f4270234594f182abb,2022-07-06_09h25.57.680,Colour_Asymmetry_Pilot,2022.1.3,Win32,59.24872615,62c50e9c1127f2cd403a315f,,,,,,,,,,,,,,,,,,,,,,,,,,,,,,,,,,,,,,,,,,,,,,,,,,,,,,,,,,,,,,,,,,,,,,,,,,,,,,,,,,,,,,,,,,,,,,,,,,,,,,,,,,,,,,,,,,,,,,,,,,,,,,,,,,,,,,,,,,,,,,,,,,,,,,,,,,,,,,,,,,,
0,29,29,40,1,,605a0e721e341cf7eb75c28e,62c538f4270234594f182abb,2022-07-06_09h25.57.680,Colour_Asymmetry_Pilot,2022.1.3,Win32,59.24872615,62c50e9c1127f2cd403a315f,,,,,,,,,,,,,,,,,,,,,,,,,,,,,,,,,,,,,,,,,,,,,,,,,,,,,,,,,,,,,,,,,,,,,,,,,,,,,,,,,,,,,,,,,,,,,,,,,,,,,,,,,,,,,,,,,,,,,,,,,,,,,,,,,,,,,,,,,,,,,,,,,,,,,,,,,,,,,,,,,,,
0,30,30,81,1,,605a0e721e341cf7eb75c28e,62c538f4270234594f182abb,2022-07-06_09h25.57.680,Colour_Asymmetry_Pilot,2022.1.3,Win32,59.24872615,62c50e9c1127f2cd403a315f,,,,,,,,,,,,,,,,,,,,,,,,,,,,,,,,,,,,,,,,,,,,,,,,,,,,,,,,,,,,,,,,,,,,,,,,,,,,,,,,,,,,,,,,,,,,,,,,,,,,,,,,,,,,,,,,,,,,,,,,,,,,,,,,,,,,,,,,,,,,,,,,,,,,,,,,,,,,,,,,,,,
0,31,31,17,1,,605a0e721e341cf7eb75c28e,62c538f4270234594f182abb,2022-07-06_09h25.57.680,Colour_Asymmetry_Pilot,2022.1.3,Win32,59.24872615,62c50e9c1127f2cd403a315f,,,,,,,,,,,,,,,,,,,,,,,,,,,,,,,,,,,,,,,,,,,,,,,,,,,,,,,,,,,,,,,,,,,,,,,,,,,,,,,,,,,,,,,,,,,,,,,,,,,,,,,,,,,,,,,,,,,,,,,,,,,,,,,,,,,,,,,,,,,,,,,,,,,,,,,,,,,,,,,,,,,
0,32,32,90,1,,605a0e721e341cf7eb75c28e,62c538f4270234594f182abb,2022-07-06_09h25.57.680,Colour_Asymmetry_Pilot,2022.1.3,Win32,59.24872615,62c50e9c1127f2cd403a315f,,,,,,,,,,,,,,,,,,,,,,,,,,,,,,,,,,,,,,,,,,,,,,,,,,,,,,,,,,,,,,,,,,,,,,,,,,,,,,,,,,,,,,,,,,,,,,,,,,,,,,,,,,,,,,,,,,,,,,,,,,,,,,,,,,,,,,,,,,,,,,,,,,,,,,,,,,,,,,,,,,,
0,33,33,31,1,,605a0e721e341cf7eb75c28e,62c538f4270234594f182abb,2022-07-06_09h25.57.680,Colour_Asymmetry_Pilot,2022.1.3,Win32,59.24872615,62c50e9c1127f2cd403a315f,,,,,,,,,,,,,,,,,,,,,,,,,,,,,,,,,,,,,,,,,,,,,,,,,,,,,,,,,,,,,,,,,,,,,,,,,,,,,,,,,,,,,,,,,,,,,,,,,,,,,,,,,,,,,,,,,,,,,,,,,,,,,,,,,,,,,,,,,,,,,,,,,,,,,,,,,,,,,,,,,,,
0,34,34,51,1,,605a0e721e341cf7eb75c28e,62c538f4270234594f182abb,2022-07-06_09h25.57.680,Colour_Asymmetry_Pilot,2022.1.3,Win32,59.24872615,62c50e9c1127f2cd403a315f,,,,,,,,,,,,,,,,,,,,,,,,,,,,,,,,,,,,,,,,,,,,,,,,,,,,,,,,,,,,,,,,,,,,,,,,,,,,,,,,,,,,,,,,,,,,,,,,,,,,,,,,,,,,,,,,,,,,,,,,,,,,,,,,,,,,,,,,,,,,,,,,,,,,,,,,,,,,,,,,,,,
0,35,35,44,1,,605a0e721e341cf7eb75c28e,62c538f4270234594f182abb,2022-07-06_09h25.57.680,Colour_Asymmetry_Pilot,2022.1.3,Win32,59.24872615,62c50e9c1127f2cd403a315f,,,,,,,,,,,,,,,,,,,,,,,,,,,,,,,,,,,,,,,,,,,,,,,,,,,,,,,,,,,,,,,,,,,,,,,,,,,,,,,,,,,,,,,,,,,,,,,,,,,,,,,,,,,,,,,,,,,,,,,,,,,,,,,,,,,,,,,,,,,,,,,,,,,,,,,,,,,,,,,,,,,
0,36,36,13,1,,605a0e721e341cf7eb75c28e,62c538f4270234594f182abb,2022-07-06_09h25.57.680,Colour_Asymmetry_Pilot,2022.1.3,Win32,59.24872615,62c50e9c1127f2cd403a315f,,,,,,,,,,,,,,,,,,,,,,,,,,,,,,,,,,,,,,,,,,,,,,,,,,,,,,,,,,,,,,,,,,,,,,,,,,,,,,,,,,,,,,,,,,,,,,,,,,,,,,,,,,,,,,,,,,,,,,,,,,,,,,,,,,,,,,,,,,,,,,,,,,,,,,,,,,,,,,,,,,,
0,37,37,67,1,,605a0e721e341cf7eb75c28e,62c538f4270234594f182abb,2022-07-06_09h25.57.680,Colour_Asymmetry_Pilot,2022.1.3,Win32,59.24872615,62c50e9c1127f2cd403a315f,,,,,,,,,,,,,,,,,,,,,,,,,,,,,,,,,,,,,,,,,,,,,,,,,,,,,,,,,,,,,,,,,,,,,,,,,,,,,,,,,,,,,,,,,,,,,,,,,,,,,,,,,,,,,,,,,,,,,,,,,,,,,,,,,,,,,,,,,,,,,,,,,,,,,,,,,,,,,,,,,,,
0,38,38,89,1,,605a0e721e341cf7eb75c28e,62c538f4270234594f182abb,2022-07-06_09h25.57.680,Colour_Asymmetry_Pilot,2022.1.3,Win32,59.24872615,62c50e9c1127f2cd403a315f,,,,,,,,,,,,,,,,,,,,,,,,,,,,,,,,,,,,,,,,,,,,,,,,,,,,,,,,,,,,,,,,,,,,,,,,,,,,,,,,,,,,,,,,,,,,,,,,,,,,,,,,,,,,,,,,,,,,,,,,,,,,,,,,,,,,,,,,,,,,,,,,,,,,,,,,,,,,,,,,,,,
0,39,39,42,1,,605a0e721e341cf7eb75c28e,62c538f4270234594f182abb,2022-07-06_09h25.57.680,Colour_Asymmetry_Pilot,2022.1.3,Win32,59.24872615,62c50e9c1127f2cd403a315f,,,,,,,,,,,,,,,,,,,,,,,,,,,,,,,,,,,,,,,,,,,,,,,,,,,,,,,,,,,,,,,,,,,,,,,,,,,,,,,,,,,,,,,,,,,,,,,,,,,,,,,,,,,,,,,,,,,,,,,,,,,,,,,,,,,,,,,,,,,,,,,,,,,,,,,,,,,,,,,,,,,
0,40,40,11,1,,605a0e721e341cf7eb75c28e,62c538f4270234594f182abb,2022-07-06_09h25.57.680,Colour_Asymmetry_Pilot,2022.1.3,Win32,59.24872615,62c50e9c1127f2cd403a315f,,,,,,,,,,,,,,,,,,,,,,,,,,,,,,,,,,,,,,,,,,,,,,,,,,,,,,,,,,,,,,,,,,,,,,,,,,,,,,,,,,,,,,,,,,,,,,,,,,,,,,,,,,,,,,,,,,,,,,,,,,,,,,,,,,,,,,,,,,,,,,,,,,,,,,,,,,,,,,,,,,,
0,41,41,35,1,,605a0e721e341cf7eb75c28e,62c538f4270234594f182abb,2022-07-06_09h25.57.680,Colour_Asymmetry_Pilot,2022.1.3,Win32,59.24872615,62c50e9c1127f2cd403a315f,,,,,,,,,,,,,,,,,,,,,,,,,,,,,,,,,,,,,,,,,,,,,,,,,,,,,,,,,,,,,,,,,,,,,,,,,,,,,,,,,,,,,,,,,,,,,,,,,,,,,,,,,,,,,,,,,,,,,,,,,,,,,,,,,,,,,,,,,,,,,,,,,,,,,,,,,,,,,,,,,,,
0,42,42,32,1,,605a0e721e341cf7eb75c28e,62c538f4270234594f182abb,2022-07-06_09h25.57.680,Colour_Asymmetry_Pilot,2022.1.3,Win32,59.24872615,62c50e9c1127f2cd403a315f,,,,,,,,,,,,,,,,,,,,,,,,,,,,,,,,,,,,,,,,,,,,,,,,,,,,,,,,,,,,,,,,,,,,,,,,,,,,,,,,,,,,,,,,,,,,,,,,,,,,,,,,,,,,,,,,,,,,,,,,,,,,,,,,,,,,,,,,,,,,,,,,,,,,,,,,,,,,,,,,,,,
0,43,43,22,1,,605a0e721e341cf7eb75c28e,62c538f4270234594f182abb,2022-07-06_09h25.57.680,Colour_Asymmetry_Pilot,2022.1.3,Win32,59.24872615,62c50e9c1127f2cd403a315f,,,,,,,,,,,,,,,,,,,,,,,,,,,,,,,,,,,,,,,,,,,,,,,,,,,,,,,,,,,,,,,,,,,,,,,,,,,,,,,,,,,,,,,,,,,,,,,,,,,,,,,,,,,,,,,,,,,,,,,,,,,,,,,,,,,,,,,,,,,,,,,,,,,,,,,,,,,,,,,,,,,
0,44,44,45,1,,605a0e721e341cf7eb75c28e,62c538f4270234594f182abb,2022-07-06_09h25.57.680,Colour_Asymmetry_Pilot,2022.1.3,Win32,59.24872615,62c50e9c1127f2cd403a315f,,,,,,,,,,,,,,,,,,,,,,,,,,,,,,,,,,,,,,,,,,,,,,,,,,,,,,,,,,,,,,,,,,,,,,,,,,,,,,,,,,,,,,,,,,,,,,,,,,,,,,,,,,,,,,,,,,,,,,,,,,,,,,,,,,,,,,,,,,,,,,,,,,,,,,,,,,,,,,,,,,,
0,45,45,57,1,,605a0e721e341cf7eb75c28e,62c538f4270234594f182abb,2022-07-06_09h25.57.680,Colour_Asymmetry_Pilot,2022.1.3,Win32,59.24872615,62c50e9c1127f2cd403a315f,,,,,,,,,,,,,,,,,,,,,,,,,,,,,,,,,,,,,,,,,,,,,,,,,,,,,,,,,,,,,,,,,,,,,,,,,,,,,,,,,,,,,,,,,,,,,,,,,,,,,,,,,,,,,,,,,,,,,,,,,,,,,,,,,,,,,,,,,,,,,,,,,,,,,,,,,,,,,,,,,,,
0,46,46,69,1,,605a0e721e341cf7eb75c28e,62c538f4270234594f182abb,2022-07-06_09h25.57.680,Colour_Asymmetry_Pilot,2022.1.3,Win32,59.24872615,62c50e9c1127f2cd403a315f,,,,,,,,,,,,,,,,,,,,,,,,,,,,,,,,,,,,,,,,,,,,,,,,,,,,,,,,,,,,,,,,,,,,,,,,,,,,,,,,,,,,,,,,,,,,,,,,,,,,,,,,,,,,,,,,,,,,,,,,,,,,,,,,,,,,,,,,,,,,,,,,,,,,,,,,,,,,,,,,,,,
0,47,47,12,1,,605a0e721e341cf7eb75c28e,62c538f4270234594f182abb,2022-07-06_09h25.57.680,Colour_Asymmetry_Pilot,2022.1.3,Win32,59.24872615,62c50e9c1127f2cd403a315f,,,,,,,,,,,,,,,,,,,,,,,,,,,,,,,,,,,,,,,,,,,,,,,,,,,,,,,,,,,,,,,,,,,,,,,,,,,,,,,,,,,,,,,,,,,,,,,,,,,,,,,,,,,,,,,,,,,,,,,,,,,,,,,,,,,,,,,,,,,,,,,,,,,,,,,,,,,,,,,,,,,
0,48,48,7,1,,605a0e721e341cf7eb75c28e,62c538f4270234594f182abb,2022-07-06_09h25.57.680,Colour_Asymmetry_Pilot,2022.1.3,Win32,59.24872615,62c50e9c1127f2cd403a315f,,,,,,,,,,,,,,,,,,,,,,,,,,,,,,,,,,,,,,,,,,,,,,,,,,,,,,,,,,,,,,,,,,,,,,,,,,,,,,,,,,,,,,,,,,,,,,,,,,,,,,,,,,,,,,,,,,,,,,,,,,,,,,,,,,,,,,,,,,,,,,,,,,,,,,,,,,,,,,,,,,,
0,49,49,34,1,,605a0e721e341cf7eb75c28e,62c538f4270234594f182abb,2022-07-06_09h25.57.680,Colour_Asymmetry_Pilot,2022.1.3,Win32,59.24872615,62c50e9c1127f2cd403a315f,,,,,,,,,,,,,,,,,,,,,,,,,,,,,,,,,,,,,,,,,,,,,,,,,,,,,,,,,,,,,,,,,,,,,,,,,,,,,,,,,,,,,,,,,,,,,,,,,,,,,,,,,,,,,,,,,,,,,,,,,,,,,,,,,,,,,,,,,,,,,,,,,,,,,,,,,,,,,,,,,,,
0,50,50,84,1,,605a0e721e341cf7eb75c28e,62c538f4270234594f182abb,2022-07-06_09h25.57.680,Colour_Asymmetry_Pilot,2022.1.3,Win32,59.24872615,62c50e9c1127f2cd403a315f,,,,,,,,,,,,,,,,,,,,,,,,,,,,,,,,,,,,,,,,,,,,,,,,,,,,,,,,,,,,,,,,,,,,,,,,,,,,,,,,,,,,,,,,,,,,,,,,,,,,,,,,,,,,,,,,,,,,,,,,,,,,,,,,,,,,,,,,,,,,,,,,,,,,,,,,,,,,,,,,,,,
0,51,51,4,1,,605a0e721e341cf7eb75c28e,62c538f4270234594f182abb,2022-07-06_09h25.57.680,Colour_Asymmetry_Pilot,2022.1.3,Win32,59.24872615,62c50e9c1127f2cd403a315f,,,,,,,,,,,,,,,,,,,,,,,,,,,,,,,,,,,,,,,,,,,,,,,,,,,,,,,,,,,,,,,,,,,,,,,,,,,,,,,,,,,,,,,,,,,,,,,,,,,,,,,,,,,,,,,,,,,,,,,,,,,,,,,,,,,,,,,,,,,,,,,,,,,,,,,,,,,,,,,,,,,
0,52,52,52,1,,605a0e721e341cf7eb75c28e,62c538f4270234594f182abb,2022-07-06_09h25.57.680,Colour_Asymmetry_Pilot,2022.1.3,Win32,59.24872615,62c50e9c1127f2cd403a315f,,,,,,,,,,,,,,,,,,,,,,,,,,,,,,,,,,,,,,,,,,,,,,,,,,,,,,,,,,,,,,,,,,,,,,,,,,,,,,,,,,,,,,,,,,,,,,,,,,,,,,,,,,,,,,,,,,,,,,,,,,,,,,,,,,,,,,,,,,,,,,,,,,,,,,,,,,,,,,,,,,,
0,53,53,71,1,,605a0e721e341cf7eb75c28e,62c538f4270234594f182abb,2022-07-06_09h25.57.680,Colour_Asymmetry_Pilot,2022.1.3,Win32,59.24872615,62c50e9c1127f2cd403a315f,,,,,,,,,,,,,,,,,,,,,,,,,,,,,,,,,,,,,,,,,,,,,,,,,,,,,,,,,,,,,,,,,,,,,,,,,,,,,,,,,,,,,,,,,,,,,,,,,,,,,,,,,,,,,,,,,,,,,,,,,,,,,,,,,,,,,,,,,,,,,,,,,,,,,,,,,,,,,,,,,,,
0,54,54,92,1,,605a0e721e341cf7eb75c28e,62c538f4270234594f182abb,2022-07-06_09h25.57.680,Colour_Asymmetry_Pilot,2022.1.3,Win32,59.24872615,62c50e9c1127f2cd403a315f,,,,,,,,,,,,,,,,,,,,,,,,,,,,,,,,,,,,,,,,,,,,,,,,,,,,,,,,,,,,,,,,,,,,,,,,,,,,,,,,,,,,,,,,,,,,,,,,,,,,,,,,,,,,,,,,,,,,,,,,,,,,,,,,,,,,,,,,,,,,,,,,,,,,,,,,,,,,,,,,,,,
0,55,55,20,1,,605a0e721e341cf7eb75c28e,62c538f4270234594f182abb,2022-07-06_09h25.57.680,Colour_Asymmetry_Pilot,2022.1.3,Win32,59.24872615,62c50e9c1127f2cd403a315f,,,,,,,,,,,,,,,,,,,,,,,,,,,,,,,,,,,,,,,,,,,,,,,,,,,,,,,,,,,,,,,,,,,,,,,,,,,,,,,,,,,,,,,,,,,,,,,,,,,,,,,,,,,,,,,,,,,,,,,,,,,,,,,,,,,,,,,,,,,,,,,,,,,,,,,,,,,,,,,,,,,
0,56,56,55,1,,605a0e721e341cf7eb75c28e,62c538f4270234594f182abb,2022-07-06_09h25.57.680,Colour_Asymmetry_Pilot,2022.1.3,Win32,59.24872615,62c50e9c1127f2cd403a315f,,,,,,,,,,,,,,,,,,,,,,,,,,,,,,,,,,,,,,,,,,,,,,,,,,,,,,,,,,,,,,,,,,,,,,,,,,,,,,,,,,,,,,,,,,,,,,,,,,,,,,,,,,,,,,,,,,,,,,,,,,,,,,,,,,,,,,,,,,,,,,,,,,,,,,,,,,,,,,,,,,,
0,57,57,91,1,,605a0e721e341cf7eb75c28e,62c538f4270234594f182abb,2022-07-06_09h25.57.680,Colour_Asymmetry_Pilot,2022.1.3,Win32,59.24872615,62c50e9c1127f2cd403a315f,,,,,,,,,,,,,,,,,,,,,,,,,,,,,,,,,,,,,,,,,,,,,,,,,,,,,,,,,,,,,,,,,,,,,,,,,,,,,,,,,,,,,,,,,,,,,,,,,,,,,,,,,,,,,,,,,,,,,,,,,,,,,,,,,,,,,,,,,,,,,,,,,,,,,,,,,,,,,,,,,,,
0,58,58,73,1,,605a0e721e341cf7eb75c28e,62c538f4270234594f182abb,2022-07-06_09h25.57.680,Colour_Asymmetry_Pilot,2022.1.3,Win32,59.24872615,62c50e9c1127f2cd403a315f,,,,,,,,,,,,,,,,,,,,,,,,,,,,,,,,,,,,,,,,,,,,,,,,,,,,,,,,,,,,,,,,,,,,,,,,,,,,,,,,,,,,,,,,,,,,,,,,,,,,,,,,,,,,,,,,,,,,,,,,,,,,,,,,,,,,,,,,,,,,,,,,,,,,,,,,,,,,,,,,,,,
0,59,59,64,1,,605a0e721e341cf7eb75c28e,62c538f4270234594f182abb,2022-07-06_09h25.57.680,Colour_Asymmetry_Pilot,2022.1.3,Win32,59.24872615,62c50e9c1127f2cd403a315f,,,,,,,,,,,,,,,,,,,,,,,,,,,,,,,,,,,,,,,,,,,,,,,,,,,,,,,,,,,,,,,,,,,,,,,,,,,,,,,,,,,,,,,,,,,,,,,,,,,,,,,,,,,,,,,,,,,,,,,,,,,,,,,,,,,,,,,,,,,,,,,,,,,,,,,,,,,,,,,,,,,
0,60,60,10,1,,605a0e721e341cf7eb75c28e,62c538f4270234594f182abb,2022-07-06_09h25.57.680,Colour_Asymmetry_Pilot,2022.1.3,Win32,59.24872615,62c50e9c1127f2cd403a315f,,,,,,,,,,,,,,,,,,,,,,,,,,,,,,,,,,,,,,,,,,,,,,,,,,,,,,,,,,,,,,,,,,,,,,,,,,,,,,,,,,,,,,,,,,,,,,,,,,,,,,,,,,,,,,,,,,,,,,,,,,,,,,,,,,,,,,,,,,,,,,,,,,,,,,,,,,,,,,,,,,,
0,61,61,21,1,,605a0e721e341cf7eb75c28e,62c538f4270234594f182abb,2022-07-06_09h25.57.680,Colour_Asymmetry_Pilot,2022.1.3,Win32,59.24872615,62c50e9c1127f2cd403a315f,,,,,,,,,,,,,,,,,,,,,,,,,,,,,,,,,,,,,,,,,,,,,,,,,,,,,,,,,,,,,,,,,,,,,,,,,,,,,,,,,,,,,,,,,,,,,,,,,,,,,,,,,,,,,,,,,,,,,,,,,,,,,,,,,,,,,,,,,,,,,,,,,,,,,,,,,,,,,,,,,,,
0,62,62,1,1,,605a0e721e341cf7eb75c28e,62c538f4270234594f182abb,2022-07-06_09h25.57.680,Colour_Asymmetry_Pilot,2022.1.3,Win32,59.24872615,62c50e9c1127f2cd403a315f,,,,,,,,,,,,,,,,,,,,,,,,,,,,,,,,,,,,,,,,,,,,,,,,,,,,,,,,,,,,,,,,,,,,,,,,,,,,,,,,,,,,,,,,,,,,,,,,,,,,,,,,,,,,,,,,,,,,,,,,,,,,,,,,,,,,,,,,,,,,,,,,,,,,,,,,,,,,,,,,,,,
0,63,63,59,1,,605a0e721e341cf7eb75c28e,62c538f4270234594f182abb,2022-07-06_09h25.57.680,Colour_Asymmetry_Pilot,2022.1.3,Win32,59.24872615,62c50e9c1127f2cd403a315f,,,,,,,,,,,,,,,,,,,,,,,,,,,,,,,,,,,,,,,,,,,,,,,,,,,,,,,,,,,,,,,,,,,,,,,,,,,,,,,,,,,,,,,,,,,,,,,,,,,,,,,,,,,,,,,,,,,,,,,,,,,,,,,,,,,,,,,,,,,,,,,,,,,,,,,,,,,,,,,,,,,
0,64,64,5,1,,605a0e721e341cf7eb75c28e,62c538f4270234594f182abb,2022-07-06_09h25.57.680,Colour_Asymmetry_Pilot,2022.1.3,Win32,59.24872615,62c50e9c1127f2cd403a315f,,,,,,,,,,,,,,,,,,,,,,,,,,,,,,,,,,,,,,,,,,,,,,,,,,,,,,,,,,,,,,,,,,,,,,,,,,,,,,,,,,,,,,,,,,,,,,,,,,,,,,,,,,,,,,,,,,,,,,,,,,,,,,,,,,,,,,,,,,,,,,,,,,,,,,,,,,,,,,,,,,,
0,65,65,3,1,,605a0e721e341cf7eb75c28e,62c538f4270234594f182abb,2022-07-06_09h25.57.680,Colour_Asymmetry_Pilot,2022.1.3,Win32,59.24872615,62c50e9c1127f2cd403a315f,,,,,,,,,,,,,,,,,,,,,,,,,,,,,,,,,,,,,,,,,,,,,,,,,,,,,,,,,,,,,,,,,,,,,,,,,,,,,,,,,,,,,,,,,,,,,,,,,,,,,,,,,,,,,,,,,,,,,,,,,,,,,,,,,,,,,,,,,,,,,,,,,,,,,,,,,,,,,,,,,,,
0,66,66,50,1,,605a0e721e341cf7eb75c28e,62c538f4270234594f182abb,2022-07-06_09h25.57.680,Colour_Asymmetry_Pilot,2022.1.3,Win32,59.24872615,62c50e9c1127f2cd403a315f,,,,,,,,,,,,,,,,,,,,,,,,,,,,,,,,,,,,,,,,,,,,,,,,,,,,,,,,,,,,,,,,,,,,,,,,,,,,,,,,,,,,,,,,,,,,,,,,,,,,,,,,,,,,,,,,,,,,,,,,,,,,,,,,,,,,,,,,,,,,,,,,,,,,,,,,,,,,,,,,,,,
0,67,67,60,1,,605a0e721e341cf7eb75c28e,62c538f4270234594f182abb,2022-07-06_09h25.57.680,Colour_Asymmetry_Pilot,2022.1.3,Win32,59.24872615,62c50e9c1127f2cd403a315f,,,,,,,,,,,,,,,,,,,,,,,,,,,,,,,,,,,,,,,,,,,,,,,,,,,,,,,,,,,,,,,,,,,,,,,,,,,,,,,,,,,,,,,,,,,,,,,,,,,,,,,,,,,,,,,,,,,,,,,,,,,,,,,,,,,,,,,,,,,,,,,,,,,,,,,,,,,,,,,,,,,
0,68,68,88,1,,605a0e721e341cf7eb75c28e,62c538f4270234594f182abb,2022-07-06_09h25.57.680,Colour_Asymmetry_Pilot,2022.1.3,Win32,59.24872615,62c50e9c1127f2cd403a315f,,,,,,,,,,,,,,,,,,,,,,,,,,,,,,,,,,,,,,,,,,,,,,,,,,,,,,,,,,,,,,,,,,,,,,,,,,,,,,,,,,,,,,,,,,,,,,,,,,,,,,,,,,,,,,,,,,,,,,,,,,,,,,,,,,,,,,,,,,,,,,,,,,,,,,,,,,,,,,,,,,,
0,69,69,15,1,,605a0e721e341cf7eb75c28e,62c538f4270234594f182abb,2022-07-06_09h25.57.680,Colour_Asymmetry_Pilot,2022.1.3,Win32,59.24872615,62c50e9c1127f2cd403a315f,,,,,,,,,,,,,,,,,,,,,,,,,,,,,,,,,,,,,,,,,,,,,,,,,,,,,,,,,,,,,,,,,,,,,,,,,,,,,,,,,,,,,,,,,,,,,,,,,,,,,,,,,,,,,,,,,,,,,,,,,,,,,,,,,,,,,,,,,,,,,,,,,,,,,,,,,,,,,,,,,,,
0,70,70,23,1,,605a0e721e341cf7eb75c28e,62c538f4270234594f182abb,2022-07-06_09h25.57.680,Colour_Asymmetry_Pilot,2022.1.3,Win32,59.24872615,62c50e9c1127f2cd403a315f,,,,,,,,,,,,,,,,,,,,,,,,,,,,,,,,,,,,,,,,,,,,,,,,,,,,,,,,,,,,,,,,,,,,,,,,,,,,,,,,,,,,,,,,,,,,,,,,,,,,,,,,,,,,,,,,,,,,,,,,,,,,,,,,,,,,,,,,,,,,,,,,,,,,,,,,,,,,,,,,,,,
0,71,71,61,1,,605a0e721e341cf7eb75c28e,62c538f4270234594f182abb,2022-07-06_09h25.57.680,Colour_Asymmetry_Pilot,2022.1.3,Win32,59.24872615,62c50e9c1127f2cd403a315f,,,,,,,,,,,,,,,,,,,,,,,,,,,,,,,,,,,,,,,,,,,,,,,,,,,,,,,,,,,,,,,,,,,,,,,,,,,,,,,,,,,,,,,,,,,,,,,,,,,,,,,,,,,,,,,,,,,,,,,,,,,,,,,,,,,,,,,,,,,,,,,,,,,,,,,,,,,,,,,,,,,
0,72,72,24,1,,605a0e721e341cf7eb75c28e,62c538f4270234594f182abb,2022-07-06_09h25.57.680,Colour_Asymmetry_Pilot,2022.1.3,Win32,59.24872615,62c50e9c1127f2cd403a315f,,,,,,,,,,,,,,,,,,,,,,,,,,,,,,,,,,,,,,,,,,,,,,,,,,,,,,,,,,,,,,,,,,,,,,,,,,,,,,,,,,,,,,,,,,,,,,,,,,,,,,,,,,,,,,,,,,,,,,,,,,,,,,,,,,,,,,,,,,,,,,,,,,,,,,,,,,,,,,,,,,,
0,73,73,72,1,,605a0e721e341cf7eb75c28e,62c538f4270234594f182abb,2022-07-06_09h25.57.680,Colour_Asymmetry_Pilot,2022.1.3,Win32,59.24872615,62c50e9c1127f2cd403a315f,,,,,,,,,,,,,,,,,,,,,,,,,,,,,,,,,,,,,,,,,,,,,,,,,,,,,,,,,,,,,,,,,,,,,,,,,,,,,,,,,,,,,,,,,,,,,,,,,,,,,,,,,,,,,,,,,,,,,,,,,,,,,,,,,,,,,,,,,,,,,,,,,,,,,,,,,,,,,,,,,,,
0,74,74,39,1,,605a0e721e341cf7eb75c28e,62c538f4270234594f182abb,2022-07-06_09h25.57.680,Colour_Asymmetry_Pilot,2022.1.3,Win32,59.24872615,62c50e9c1127f2cd403a315f,,,,,,,,,,,,,,,,,,,,,,,,,,,,,,,,,,,,,,,,,,,,,,,,,,,,,,,,,,,,,,,,,,,,,,,,,,,,,,,,,,,,,,,,,,,,,,,,,,,,,,,,,,,,,,,,,,,,,,,,,,,,,,,,,,,,,,,,,,,,,,,,,,,,,,,,,,,,,,,,,,,
0,75,75,48,1,,605a0e721e341cf7eb75c28e,62c538f4270234594f182abb,2022-07-06_09h25.57.680,Colour_Asymmetry_Pilot,2022.1.3,Win32,59.24872615,62c50e9c1127f2cd403a315f,,,,,,,,,,,,,,,,,,,,,,,,,,,,,,,,,,,,,,,,,,,,,,,,,,,,,,,,,,,,,,,,,,,,,,,,,,,,,,,,,,,,,,,,,,,,,,,,,,,,,,,,,,,,,,,,,,,,,,,,,,,,,,,,,,,,,,,,,,,,,,,,,,,,,,,,,,,,,,,,,,,
0,76,76,28,1,,605a0e721e341cf7eb75c28e,62c538f4270234594f182abb,2022-07-06_09h25.57.680,Colour_Asymmetry_Pilot,2022.1.3,Win32,59.24872615,62c50e9c1127f2cd403a315f,,,,,,,,,,,,,,,,,,,,,,,,,,,,,,,,,,,,,,,,,,,,,,,,,,,,,,,,,,,,,,,,,,,,,,,,,,,,,,,,,,,,,,,,,,,,,,,,,,,,,,,,,,,,,,,,,,,,,,,,,,,,,,,,,,,,,,,,,,,,,,,,,,,,,,,,,,,,,,,,,,,
0,77,77,68,1,,605a0e721e341cf7eb75c28e,62c538f4270234594f182abb,2022-07-06_09h25.57.680,Colour_Asymmetry_Pilot,2022.1.3,Win32,59.24872615,62c50e9c1127f2cd403a315f,,,,,,,,,,,,,,,,,,,,,,,,,,,,,,,,,,,,,,,,,,,,,,,,,,,,,,,,,,,,,,,,,,,,,,,,,,,,,,,,,,,,,,,,,,,,,,,,,,,,,,,,,,,,,,,,,,,,,,,,,,,,,,,,,,,,,,,,,,,,,,,,,,,,,,,,,,,,,,,,,,,
0,78,78,6,1,,605a0e721e341cf7eb75c28e,62c538f4270234594f182abb,2022-07-06_09h25.57.680,Colour_Asymmetry_Pilot,2022.1.3,Win32,59.24872615,62c50e9c1127f2cd403a315f,,,,,,,,,,,,,,,,,,,,,,,,,,,,,,,,,,,,,,,,,,,,,,,,,,,,,,,,,,,,,,,,,,,,,,,,,,,,,,,,,,,,,,,,,,,,,,,,,,,,,,,,,,,,,,,,,,,,,,,,,,,,,,,,,,,,,,,,,,,,,,,,,,,,,,,,,,,,,,,,,,,
0,79,79,8,1,,605a0e721e341cf7eb75c28e,62c538f4270234594f182abb,2022-07-06_09h25.57.680,Colour_Asymmetry_Pilot,2022.1.3,Win32,59.24872615,62c50e9c1127f2cd403a315f,,,,,,,,,,,,,,,,,,,,,,,,,,,,,,,,,,,,,,,,,,,,,,,,,,,,,,,,,,,,,,,,,,,,,,,,,,,,,,,,,,,,,,,,,,,,,,,,,,,,,,,,,,,,,,,,,,,,,,,,,,,,,,,,,,,,,,,,,,,,,,,,,,,,,,,,,,,,,,,,,,,
0,80,80,46,1,,605a0e721e341cf7eb75c28e,62c538f4270234594f182abb,2022-07-06_09h25.57.680,Colour_Asymmetry_Pilot,2022.1.3,Win32,59.24872615,62c50e9c1127f2cd403a315f,,,,,,,,,,,,,,,,,,,,,,,,,,,,,,,,,,,,,,,,,,,,,,,,,,,,,,,,,,,,,,,,,,,,,,,,,,,,,,,,,,,,,,,,,,,,,,,,,,,,,,,,,,,,,,,,,,,,,,,,,,,,,,,,,,,,,,,,,,,,,,,,,,,,,,,,,,,,,,,,,,,
0,81,81,47,1,,605a0e721e341cf7eb75c28e,62c538f4270234594f182abb,2022-07-06_09h25.57.680,Colour_Asymmetry_Pilot,2022.1.3,Win32,59.24872615,62c50e9c1127f2cd403a315f,,,,,,,,,,,,,,,,,,,,,,,,,,,,,,,,,,,,,,,,,,,,,,,,,,,,,,,,,,,,,,,,,,,,,,,,,,,,,,,,,,,,,,,,,,,,,,,,,,,,,,,,,,,,,,,,,,,,,,,,,,,,,,,,,,,,,,,,,,,,,,,,,,,,,,,,,,,,,,,,,,,
0,82,82,65,1,,605a0e721e341cf7eb75c28e,62c538f4270234594f182abb,2022-07-06_09h25.57.680,Colour_Asymmetry_Pilot,2022.1.3,Win32,59.24872615,62c50e9c1127f2cd403a315f,,,,,,,,,,,,,,,,,,,,,,,,,,,,,,,,,,,,,,,,,,,,,,,,,,,,,,,,,,,,,,,,,,,,,,,,,,,,,,,,,,,,,,,,,,,,,,,,,,,,,,,,,,,,,,,,,,,,,,,,,,,,,,,,,,,,,,,,,,,,,,,,,,,,,,,,,,,,,,,,,,,
0,83,83,82,1,,605a0e721e341cf7eb75c28e,62c538f4270234594f182abb,2022-07-06_09h25.57.680,Colour_Asymmetry_Pilot,2022.1.3,Win32,59.24872615,62c50e9c1127f2cd403a315f,,,,,,,,,,,,,,,,,,,,,,,,,,,,,,,,,,,,,,,,,,,,,,,,,,,,,,,,,,,,,,,,,,,,,,,,,,,,,,,,,,,,,,,,,,,,,,,,,,,,,,,,,,,,,,,,,,,,,,,,,,,,,,,,,,,,,,,,,,,,,,,,,,,,,,,,,,,,,,,,,,,
0,84,84,41,1,,605a0e721e341cf7eb75c28e,62c538f4270234594f182abb,2022-07-06_09h25.57.680,Colour_Asymmetry_Pilot,2022.1.3,Win32,59.24872615,62c50e9c1127f2cd403a315f,,,,,,,,,,,,,,,,,,,,,,,,,,,,,,,,,,,,,,,,,,,,,,,,,,,,,,,,,,,,,,,,,,,,,,,,,,,,,,,,,,,,,,,,,,,,,,,,,,,,,,,,,,,,,,,,,,,,,,,,,,,,,,,,,,,,,,,,,,,,,,,,,,,,,,,,,,,,,,,,,,,
0,85,85,25,1,,605a0e721e341cf7eb75c28e,62c538f4270234594f182abb,2022-07-06_09h25.57.680,Colour_Asymmetry_Pilot,2022.1.3,Win32,59.24872615,62c50e9c1127f2cd403a315f,,,,,,,,,,,,,,,,,,,,,,,,,,,,,,,,,,,,,,,,,,,,,,,,,,,,,,,,,,,,,,,,,,,,,,,,,,,,,,,,,,,,,,,,,,,,,,,,,,,,,,,,,,,,,,,,,,,,,,,,,,,,,,,,,,,,,,,,,,,,,,,,,,,,,,,,,,,,,,,,,,,
0,86,86,79,1,,605a0e721e341cf7eb75c28e,62c538f4270234594f182abb,2022-07-06_09h25.57.680,Colour_Asymmetry_Pilot,2022.1.3,Win32,59.24872615,62c50e9c1127f2cd403a315f,,,,,,,,,,,,,,,,,,,,,,,,,,,,,,,,,,,,,,,,,,,,,,,,,,,,,,,,,,,,,,,,,,,,,,,,,,,,,,,,,,,,,,,,,,,,,,,,,,,,,,,,,,,,,,,,,,,,,,,,,,,,,,,,,,,,,,,,,,,,,,,,,,,,,,,,,,,,,,,,,,,
0,87,87,37,1,,605a0e721e341cf7eb75c28e,62c538f4270234594f182abb,2022-07-06_09h25.57.680,Colour_Asymmetry_Pilot,2022.1.3,Win32,59.24872615,62c50e9c1127f2cd403a315f,,,,,,,,,,,,,,,,,,,,,,,,,,,,,,,,,,,,,,,,,,,,,,,,,,,,,,,,,,,,,,,,,,,,,,,,,,,,,,,,,,,,,,,,,,,,,,,,,,,,,,,,,,,,,,,,,,,,,,,,,,,,,,,,,,,,,,,,,,,,,,,,,,,,,,,,,,,,,,,,,,,
0,88,88,74,1,,605a0e721e341cf7eb75c28e,62c538f4270234594f182abb,2022-07-06_09h25.57.680,Colour_Asymmetry_Pilot,2022.1.3,Win32,59.24872615,62c50e9c1127f2cd403a315f,,,,,,,,,,,,,,,,,,,,,,,,,,,,,,,,,,,,,,,,,,,,,,,,,,,,,,,,,,,,,,,,,,,,,,,,,,,,,,,,,,,,,,,,,,,,,,,,,,,,,,,,,,,,,,,,,,,,,,,,,,,,,,,,,,,,,,,,,,,,,,,,,,,,,,,,,,,,,,,,,,,
0,89,89,56,1,,605a0e721e341cf7eb75c28e,62c538f4270234594f182abb,2022-07-06_09h25.57.680,Colour_Asymmetry_Pilot,2022.1.3,Win32,59.24872615,62c50e9c1127f2cd403a315f,,,,,,,,,,,,,,,,,,,,,,,,,,,,,,,,,,,,,,,,,,,,,,,,,,,,,,,,,,,,,,,,,,,,,,,,,,,,,,,,,,,,,,,,,,,,,,,,,,,,,,,,,,,,,,,,,,,,,,,,,,,,,,,,,,,,,,,,,,,,,,,,,,,,,,,,,,,,,,,,,,,
0,90,90,63,1,,605a0e721e341cf7eb75c28e,62c538f4270234594f182abb,2022-07-06_09h25.57.680,Colour_Asymmetry_Pilot,2022.1.3,Win32,59.24872615,62c50e9c1127f2cd403a315f,,,,,,,,,,,,,,,,,,,,,,,,,,,,,,,,,,,,,,,,,,,,,,,,,,,,,,,,,,,,,,,,,,,,,,,,,,,,,,,,,,,,,,,,,,,,,,,,,,,,,,,,,,,,,,,,,,,,,,,,,,,,,,,,,,,,,,,,,,,,,,,,,,,,,,,,,,,,,,,,,,,
0,91,91,77,1,,605a0e721e341cf7eb75c28e,62c538f4270234594f182abb,2022-07-06_09h25.57.680,Colour_Asymmetry_Pilot,2022.1.3,Win32,59.24872615,62c50e9c1127f2cd403a315f,,,,,,,,,,,,,,,,,,,,,,,,,,,,,,,,,,,,,,,,,,,,,,,,,,,,,,,,,,,,,,,,,,,,,,,,,,,,,,,,,,,,,,,,,,,,,,,,,,,,,,,,,,,,,,,,,,,,,,,,,,,,,,,,,,,,,,,,,,,,,,,,,,,,,,,,,,,,,,,,,,,
0,92,92,2,1,,605a0e721e341cf7eb75c28e,62c538f4270234594f182abb,2022-07-06_09h25.57.680,Colour_Asymmetry_Pilot,2022.1.3,Win32,59.24872615,62c50e9c1127f2cd403a315f,,,,,,,,,,,,,,,,,,,,,,,,,,,,,,,,,,,,,,,,,,,,,,,,,,,,,,,,,,,,,,,,,,,,,,,,,,,,,,,,,,,,,,,,,,,,,,,,,,,,,,,,,,,,,,,,,,,,,,,,,,,,,,,,,,,,,,,,,,,,,,,,,,,,,,,,,,,,,,,,,,,
,,,,,,605a0e721e341cf7eb75c28e,62c538f4270234594f182abb,2022-07-06_09h25.57.680,Colour_Asymmetry_Pilot,2022.1.3,Win32,59.24872615,62c50e9c1127f2cd403a315f,0,0,0,3,1,twofour,,,,,,,,,,,,,,,,,,,,,,,,,,,,,,,,,,,,,,,,,,,,,,,,,,,,,,,,,,,,,,,,,,,,,,,,,,,,,,,,,,,,,,,,,,,,,,,,,,,,,,,,,,,,,,,,,,,,,,,,,,,,,,,,,,,,,,,,,,,,,,,,,,,,,,,,,,,,,
,,,,,,605a0e721e341cf7eb75c28e,62c538f4270234594f182abb,2022-07-06_09h25.57.680,Colour_Asymmetry_Pilot,2022.1.3,Win32,59.24872615,62c50e9c1127f2cd403a315f,0,1,1,115,1,twofour,,,,,,,,,,,,,,,,,,,,,,,,,,,,,,,,,,,,,,,,,,,,,,,,,,,,,,,,,,,,,,,,,,,,,,,,,,,,,,,,,,,,,,,,,,,,,,,,,,,,,,,,,,,,,,,,,,,,,,,,,,,,,,,,,,,,,,,,,,,,,,,,,,,,,,,,,,,,,
,,,,,,605a0e721e341cf7eb75c28e,62c538f4270234594f182abb,2022-07-06_09h25.57.680,Colour_Asymmetry_Pilot,2022.1.3,Win32,59.24872615,62c50e9c1127f2cd403a315f,0,2,2,32,1,onetwo,,,,,,,,,,,,,,,,,,,,,,,,,,,,,,,,,,,,,,,,,,,,,,,,,,,,,,,,,,,,,,,,,,,,,,,,,,,,,,,,,,,,,,,,,,,,,,,,,,,,,,,,,,,,,,,,,,,,,,,,,,,,,,,,,,,,,,,,,,,,,,,,,,,,,,,,,,,,,
,,,,,,605a0e721e341cf7eb75c28e,62c538f4270234594f182abb,2022-07-06_09h25.57.680,Colour_Asymmetry_Pilot,2022.1.3,Win32,59.24872615,62c50e9c1127f2cd403a315f,0,3,3,7,1,fourthree,,,,,,,,,,,,,,,,,,,,,,,,,,,,,,,,,,,,,,,,,,,,,,,,,,,,,,,,,,,,,,,,,,,,,,,,,,,,,,,,,,,,,,,,,,,,,,,,,,,,,,,,,,,,,,,,,,,,,,,,,,,,,,,,,,,,,,,,,,,,,,,,,,,,,,,,,,,,,
,,,,,,605a0e721e341cf7eb75c28e,62c538f4270234594f182abb,2022-07-06_09h25.57.680,Colour_Asymmetry_Pilot,2022.1.3,Win32,59.24872615,62c50e9c1127f2cd403a315f,0,4,4,102,1,fourtwo,,,,,,,,,,,,,,,,,,,,,,,,,,,,,,,,,,,,,,,,,,,,,,,,,,,,,,,,,,,,,,,,,,,,,,,,,,,,,,,,,,,,,,,,,,,,,,,,,,,,,,,,,,,,,,,,,,,,,,,,,,,,,,,,,,,,,,,,,,,,,,,,,,,,,,,,,,,,,
,,,,,,605a0e721e341cf7eb75c28e,62c538f4270234594f182abb,2022-07-06_09h25.57.680,Colour_Asymmetry_Pilot,2022.1.3,Win32,59.24872615,62c50e9c1127f2cd403a315f,0,5,5,47,1,fourthree,,,,,,,,,,,,,,,,,,,,,,,,,,,,,,,,,,,,,,,,,,,,,,,,,,,,,,,,,,,,,,,,,,,,,,,,,,,,,,,,,,,,,,,,,,,,,,,,,,,,,,,,,,,,,,,,,,,,,,,,,,,,,,,,,,,,,,,,,,,,,,,,,,,,,,,,,,,,,
,,,,,,605a0e721e341cf7eb75c28e,62c538f4270234594f182abb,2022-07-06_09h25.57.680,Colour_Asymmetry_Pilot,2022.1.3,Win32,59.24872615,62c50e9c1127f2cd403a315f,0,6,6,122,1,twoone,,,,,,,,,,,,,,,,,,,,,,,,,,,,,,,,,,,,,,,,,,,,,,,,,,,,,,,,,,,,,,,,,,,,,,,,,,,,,,,,,,,,,,,,,,,,,,,,,,,,,,,,,,,,,,,,,,,,,,,,,,,,,,,,,,,,,,,,,,,,,,,,,,,,,,,,,,,,,
,,,,,,605a0e721e341cf7eb75c28e,62c538f4270234594f182abb,2022-07-06_09h25.57.680,Colour_Asymmetry_Pilot,2022.1.3,Win32,59.24872615,62c50e9c1127f2cd403a315f,0,7,7,144,1,onetwo,,,,,,,,,,,,,,,,,,,,,,,,,,,,,,,,,,,,,,,,,,,,,,,,,,,,,,,,,,,,,,,,,,,,,,,,,,,,,,,,,,,,,,,,,,,,,,,,,,,,,,,,,,,,,,,,,,,,,,,,,,,,,,,,,,,,,,,,,,,,,,,,,,,,,,,,,,,,,
,,,,,,605a0e721e341cf7eb75c28e,62c538f4270234594f182abb,2022-07-06_09h25.57.680,Colour_Asymmetry_Pilot,2022.1.3,Win32,59.24872615,62c50e9c1127f2cd403a315f,0,8,8,124,1,threeone,,,,,,,,,,,,,,,,,,,,,,,,,,,,,,,,,,,,,,,,,,,,,,,,,,,,,,,,,,,,,,,,,,,,,,,,,,,,,,,,,,,,,,,,,,,,,,,,,,,,,,,,,,,,,,,,,,,,,,,,,,,,,,,,,,,,,,,,,,,,,,,,,,,,,,,,,,,,,
,,,,,,605a0e721e341cf7eb75c28e,62c538f4270234594f182abb,2022-07-06_09h25.57.680,Colour_Asymmetry_Pilot,2022.1.3,Win32,59.24872615,62c50e9c1127f2cd403a315f,0,9,9,64,1,onetwo,,,,,,,,,,,,,,,,,,,,,,,,,,,,,,,,,,,,,,,,,,,,,,,,,,,,,,,,,,,,,,,,,,,,,,,,,,,,,,,,,,,,,,,,,,,,,,,,,,,,,,,,,,,,,,,,,,,,,,,,,,,,,,,,,,,,,,,,,,,,,,,,,,,,,,,,,,,,,
,,,,,,605a0e721e341cf7eb75c28e,62c538f4270234594f182abb,2022-07-06_09h25.57.680,Colour_Asymmetry_Pilot,2022.1.3,Win32,59.24872615,62c50e9c1127f2cd403a315f,0,10,10,54,1,fourtwo,,,,,,,,,,,,,,,,,,,,,,,,,,,,,,,,,,,,,,,,,,,,,,,,,,,,,,,,,,,,,,,,,,,,,,,,,,,,,,,,,,,,,,,,,,,,,,,,,,,,,,,,,,,,,,,,,,,,,,,,,,,,,,,,,,,,,,,,,,,,,,,,,,,,,,,,,,,,,
,,,,,,605a0e721e341cf7eb75c28e,62c538f4270234594f182abb,2022-07-06_09h25.57.680,Colour_Asymmetry_Pilot,2022.1.3,Win32,59.24872615,62c50e9c1127f2cd403a315f,0,11,11,41,1,onethree,,,,,,,,,,,,,,,,,,,,,,,,,,,,,,,,,,,,,,,,,,,,,,,,,,,,,,,,,,,,,,,,,,,,,,,,,,,,,,,,,,,,,,,,,,,,,,,,,,,,,,,,,,,,,,,,,,,,,,,,,,,,,,,,,,,,,,,,,,,,,,,,,,,,,,,,,,,,,
,,,,,,605a0e721e341cf7eb75c28e,62c538f4270234594f182abb,2022-07-06_09h25.57.680,Colour_Asymmetry_Pilot,2022.1.3,Win32,59.24872615,62c50e9c1127f2cd403a315f,0,12,12,25,1,onethree,,,,,,,,,,,,,,,,,,,,,,,,,,,,,,,,,,,,,,,,,,,,,,,,,,,,,,,,,,,,,,,,,,,,,,,,,,,,,,,,,,,,,,,,,,,,,,,,,,,,,,,,,,,,,,,,,,,,,,,,,,,,,,,,,,,,,,,,,,,,,,,,,,,,,,,,,,,,,
,,,,,,605a0e721e341cf7eb75c28e,62c538f4270234594f182abb,2022-07-06_09h25.57.680,Colour_Asymmetry_Pilot,2022.1.3,Win32,59.24872615,62c50e9c1127f2cd403a315f,0,13,13,76,1,threeone,,,,,,,,,,,,,,,,,,,,,,,,,,,,,,,,,,,,,,,,,,,,,,,,,,,,,,,,,,,,,,,,,,,,,,,,,,,,,,,,,,,,,,,,,,,,,,,,,,,,,,,,,,,,,,,,,,,,,,,,,,,,,,,,,,,,,,,,,,,,,,,,,,,,,,,,,,,,,
,,,,,,605a0e721e341cf7eb75c28e,62c538f4270234594f182abb,2022-07-06_09h25.57.680,Colour_Asymmetry_Pilot,2022.1.3,Win32,59.24872615,62c50e9c1127f2cd403a315f,0,14,14,99,1,twofour,,,,,,,,,,,,,,,,,,,,,,,,,,,,,,,,,,,,,,,,,,,,,,,,,,,,,,,,,,,,,,,,,,,,,,,,,,,,,,,,,,,,,,,,,,,,,,,,,,,,,,,,,,,,,,,,,,,,,,,,,,,,,,,,,,,,,,,,,,,,,,,,,,,,,,,,,,,,,
,,,,,,605a0e721e341cf7eb75c28e,62c538f4270234594f182abb,2022-07-06_09h25.57.680,Colour_Asymmetry_Pilot,2022.1.3,Win32,59.24872615,62c50e9c1127f2cd403a315f,0,15,15,93,1,threefour,,,,,,,,,,,,,,,,,,,,,,,,,,,,,,,,,,,,,,,,,,,,,,,,,,,,,,,,,,,,,,,,,,,,,,,,,,,,,,,,,,,,,,,,,,,,,,,,,,,,,,,,,,,,,,,,,,,,,,,,,,,,,,,,,,,,,,,,,,,,,,,,,,,,,,,,,,,,,
,,,,,,605a0e721e341cf7eb75c28e,62c538f4270234594f182abb,2022-07-06_09h25.57.680,Colour_Asymmetry_Pilot,2022.1.3,Win32,59.24872615,62c50e9c1127f2cd403a315f,0,16,16,134,1,fourtwo,,,,,,,,,,,,,,,,,,,,,,,,,,,,,,,,,,,,,,,,,,,,,,,,,,,,,,,,,,,,,,,,,,,,,,,,,,,,,,,,,,,,,,,,,,,,,,,,,,,,,,,,,,,,,,,,,,,,,,,,,,,,,,,,,,,,,,,,,,,,,,,,,,,,,,,,,,,,,
,,,,,,605a0e721e341cf7eb75c28e,62c538f4270234594f182abb,2022-07-06_09h25.57.680,Colour_Asymmetry_Pilot,2022.1.3,Win32,59.24872615,62c50e9c1127f2cd403a315f,0,17,17,35,1,twofour,,,,,,,,,,,,,,,,,,,,,,,,,,,,,,,,,,,,,,,,,,,,,,,,,,,,,,,,,,,,,,,,,,,,,,,,,,,,,,,,,,,,,,,,,,,,,,,,,,,,,,,,,,,,,,,,,,,,,,,,,,,,,,,,,,,,,,,,,,,,,,,,,,,,,,,,,,,,,
,,,,,,605a0e721e341cf7eb75c28e,62c538f4270234594f182abb,2022-07-06_09h25.57.680,Colour_Asymmetry_Pilot,2022.1.3,Win32,59.24872615,62c50e9c1127f2cd403a315f,0,18,18,150,1,fourtwo,,,,,,,,,,,,,,,,,,,,,,,,,,,,,,,,,,,,,,,,,,,,,,,,,,,,,,,,,,,,,,,,,,,,,,,,,,,,,,,,,,,,,,,,,,,,,,,,,,,,,,,,,,,,,,,,,,,,,,,,,,,,,,,,,,,,,,,,,,,,,,,,,,,,,,,,,,,,,
,,,,,,605a0e721e341cf7eb75c28e,62c538f4270234594f182abb,2022-07-06_09h25.57.680,Colour_Asymmetry_Pilot,2022.1.3,Win32,59.24872615,62c50e9c1127f2cd403a315f,0,19,19,79,1,fourthree,,,,,,,,,,,,,,,,,,,,,,,,,,,,,,,,,,,,,,,,,,,,,,,,,,,,,,,,,,,,,,,,,,,,,,,,,,,,,,,,,,,,,,,,,,,,,,,,,,,,,,,,,,,,,,,,,,,,,,,,,,,,,,,,,,,,,,,,,,,,,,,,,,,,,,,,,,,,,
,,,,,,605a0e721e341cf7eb75c28e,62c538f4270234594f182abb,2022-07-06_09h25.57.680,Colour_Asymmetry_Pilot,2022.1.3,Win32,59.24872615,62c50e9c1127f2cd403a315f,0,20,20,75,1,twofour,,,,,,,,,,,,,,,,,,,,,,,,,,,,,,,,,,,,,,,,,,,,,,,,,,,,,,,,,,,,,,,,,,,,,,,,,,,,,,,,,,,,,,,,,,,,,,,,,,,,,,,,,,,,,,,,,,,,,,,,,,,,,,,,,,,,,,,,,,,,,,,,,,,,,,,,,,,,,
,,,,,,605a0e721e341cf7eb75c28e,62c538f4270234594f182abb,2022-07-06_09h25.57.680,Colour_Asymmetry_Pilot,2022.1.3,Win32,59.24872615,62c50e9c1127f2cd403a315f,0,21,21,45,1,threefour,,,,,,,,,,,,,,,,,,,,,,,,,,,,,,,,,,,,,,,,,,,,,,,,,,,,,,,,,,,,,,,,,,,,,,,,,,,,,,,,,,,,,,,,,,,,,,,,,,,,,,,,,,,,,,,,,,,,,,,,,,,,,,,,,,,,,,,,,,,,,,,,,,,,,,,,,,,,,
,,,,,,605a0e721e341cf7eb75c28e,62c538f4270234594f182abb,2022-07-06_09h25.57.680,Colour_Asymmetry_Pilot,2022.1.3,Win32,59.24872615,62c50e9c1127f2cd403a315f,0,22,22,73,1,onethree,,,,,,,,,,,,,,,,,,,,,,,,,,,,,,,,,,,,,,,,,,,,,,,,,,,,,,,,,,,,,,,,,,,,,,,,,,,,,,,,,,,,,,,,,,,,,,,,,,,,,,,,,,,,,,,,,,,,,,,,,,,,,,,,,,,,,,,,,,,,,,,,,,,,,,,,,,,,,
,,,,,,605a0e721e341cf7eb75c28e,62c538f4270234594f182abb,2022-07-06_09h25.57.680,Colour_Asymmetry_Pilot,2022.1.3,Win32,59.24872615,62c50e9c1127f2cd403a315f,0,23,23,95,1,fourthree,,,,,,,,,,,,,,,,,,,,,,,,,,,,,,,,,,,,,,,,,,,,,,,,,,,,,,,,,,,,,,,,,,,,,,,,,,,,,,,,,,,,,,,,,,,,,,,,,,,,,,,,,,,,,,,,,,,,,,,,,,,,,,,,,,,,,,,,,,,,,,,,,,,,,,,,,,,,,
,,,,,,605a0e721e341cf7eb75c28e,62c538f4270234594f182abb,2022-07-06_09h25.57.680,Colour_Asymmetry_Pilot,2022.1.3,Win32,59.24872615,62c50e9c1127f2cd403a315f,0,24,24,156,1,threeone,,,,,,,,,,,,,,,,,,,,,,,,,,,,,,,,,,,,,,,,,,,,,,,,,,,,,,,,,,,,,,,,,,,,,,,,,,,,,,,,,,,,,,,,,,,,,,,,,,,,,,,,,,,,,,,,,,,,,,,,,,,,,,,,,,,,,,,,,,,,,,,,,,,,,,,,,,,,,
,,,,,,605a0e721e341cf7eb75c28e,62c538f4270234594f182abb,2022-07-06_09h25.57.680,Colour_Asymmetry_Pilot,2022.1.3,Win32,59.24872615,62c50e9c1127f2cd403a315f,0,25,25,153,1,onethree,,,,,,,,,,,,,,,,,,,,,,,,,,,,,,,,,,,,,,,,,,,,,,,,,,,,,,,,,,,,,,,,,,,,,,,,,,,,,,,,,,,,,,,,,,,,,,,,,,,,,,,,,,,,,,,,,,,,,,,,,,,,,,,,,,,,,,,,,,,,,,,,,,,,,,,,,,,,,
,,,,,,605a0e721e341cf7eb75c28e,62c538f4270234594f182abb,2022-07-06_09h25.57.680,Colour_Asymmetry_Pilot,2022.1.3,Win32,59.24872615,62c50e9c1127f2cd403a315f,0,26,26,9,1,onethree,,,,,,,,,,,,,,,,,,,,,,,,,,,,,,,,,,,,,,,,,,,,,,,,,,,,,,,,,,,,,,,,,,,,,,,,,,,,,,,,,,,,,,,,,,,,,,,,,,,,,,,,,,,,,,,,,,,,,,,,,,,,,,,,,,,,,,,,,,,,,,,,,,,,,,,,,,,,,
,,,,,,605a0e721e341cf7eb75c28e,62c538f4270234594f182abb,2022-07-06_09h25.57.680,Colour_Asymmetry_Pilot,2022.1.3,Win32,59.24872615,62c50e9c1127f2cd403a315f,0,27,27,148,1,threeone,,,,,,,,,,,,,,,,,,,,,,,,,,,,,,,,,,,,,,,,,,,,,,,,,,,,,,,,,,,,,,,,,,,,,,,,,,,,,,,,,,,,,,,,,,,,,,,,,,,,,,,,,,,,,,,,,,,,,,,,,,,,,,,,,,,,,,,,,,,,,,,,,,,,,,,,,,,,,
,,,,,,605a0e721e341cf7eb75c28e,62c538f4270234594f182abb,2022-07-06_09h25.57.680,Colour_Asymmetry_Pilot,2022.1.3,Win32,59.24872615,62c50e9c1127f2cd403a315f,0,28,28,21,1,threefour,,,,,,,,,,,,,,,,,,,,,,,,,,,,,,,,,,,,,,,,,,,,,,,,,,,,,,,,,,,,,,,,,,,,,,,,,,,,,,,,,,,,,,,,,,,,,,,,,,,,,,,,,,,,,,,,,,,,,,,,,,,,,,,,,,,,,,,,,,,,,,,,,,,,,,,,,,,,,
,,,,,,605a0e721e341cf7eb75c28e,62c538f4270234594f182abb,2022-07-06_09h25.57.680,Colour_Asymmetry_Pilot,2022.1.3,Win32,59.24872615,62c50e9c1127f2cd403a315f,0,29,29,103,1,fourthree,,,,,,,,,,,,,,,,,,,,,,,,,,,,,,,,,,,,,,,,,,,,,,,,,,,,,,,,,,,,,,,,,,,,,,,,,,,,,,,,,,,,,,,,,,,,,,,,,,,,,,,,,,,,,,,,,,,,,,,,,,,,,,,,,,,,,,,,,,,,,,,,,,,,,,,,,,,,,
,,,,,,605a0e721e341cf7eb75c28e,62c538f4270234594f182abb,2022-07-06_09h25.57.680,Colour_Asymmetry_Pilot,2022.1.3,Win32,59.24872615,62c50e9c1127f2cd403a315f,0,30,30,24,1,onetwo,,,,,,,,,,,,,,,,,,,,,,,,,,,,,,,,,,,,,,,,,,,,,,,,,,,,,,,,,,,,,,,,,,,,,,,,,,,,,,,,,,,,,,,,,,,,,,,,,,,,,,,,,,,,,,,,,,,,,,,,,,,,,,,,,,,,,,,,,,,,,,,,,,,,,,,,,,,,,
,,,,,,605a0e721e341cf7eb75c28e,62c538f4270234594f182abb,2022-07-06_09h25.57.680,Colour_Asymmetry_Pilot,2022.1.3,Win32,59.24872615,62c50e9c1127f2cd403a315f,0,31,31,128,1,onetwo,,,,,,,,,,,,,,,,,,,,,,,,,,,,,,,,,,,,,,,,,,,,,,,,,,,,,,,,,,,,,,,,,,,,,,,,,,,,,,,,,,,,,,,,,,,,,,,,,,,,,,,,,,,,,,,,,,,,,,,,,,,,,,,,,,,,,,,,,,,,,,,,,,,,,,,,,,,,,
,,,,,,605a0e721e341cf7eb75c28e,62c538f4270234594f182abb,2022-07-06_09h25.57.680,Colour_Asymmetry_Pilot,2022.1.3,Win32,59.24872615,62c50e9c1127f2cd403a315f,0,32,32,19,1,twofour,,,,,,,,,,,,,,,,,,,,,,,,,,,,,,,,,,,,,,,,,,,,,,,,,,,,,,,,,,,,,,,,,,,,,,,,,,,,,,,,,,,,,,,,,,,,,,,,,,,,,,,,,,,,,,,,,,,,,,,,,,,,,,,,,,,,,,,,,,,,,,,,,,,,,,,,,,,,,
,,,,,,605a0e721e341cf7eb75c28e,62c538f4270234594f182abb,2022-07-06_09h25.57.680,Colour_Asymmetry_Pilot,2022.1.3,Win32,59.24872615,62c50e9c1127f2cd403a315f,0,33,33,85,1,threefour,,,,,,,,,,,,,,,,,,,,,,,,,,,,,,,,,,,,,,,,,,,,,,,,,,,,,,,,,,,,,,,,,,,,,,,,,,,,,,,,,,,,,,,,,,,,,,,,,,,,,,,,,,,,,,,,,,,,,,,,,,,,,,,,,,,,,,,,,,,,,,,,,,,,,,,,,,,,,
,,,,,,605a0e721e341cf7eb75c28e,62c538f4270234594f182abb,2022-07-06_09h25.57.680,Colour_Asymmetry_Pilot,2022.1.3,Win32,59.24872615,62c50e9c1127f2cd403a315f,0,34,34,29,1,threefour,,,,,,,,,,,,,,,,,,,,,,,,,,,,,,,,,,,,,,,,,,,,,,,,,,,,,,,,,,,,,,,,,,,,,,,,,,,,,,,,,,,,,,,,,,,,,,,,,,,,,,,,,,,,,,,,,,,,,,,,,,,,,,,,,,,,,,,,,,,,,,,,,,,,,,,,,,,,,
,,,,,,605a0e721e341cf7eb75c28e,62c538f4270234594f182abb,2022-07-06_09h25.57.680,Colour_Asymmetry_Pilot,2022.1.3,Win32,59.24872615,62c50e9c1127f2cd403a315f,0,35,35,8,1,onetwo,,,,,,,,,,,,,,,,,,,,,,,,,,,,,,,,,,,,,,,,,,,,,,,,,,,,,,,,,,,,,,,,,,,,,,,,,,,,,,,,,,,,,,,,,,,,,,,,,,,,,,,,,,,,,,,,,,,,,,,,,,,,,,,,,,,,,,,,,,,,,,,,,,,,,,,,,,,,,
,,,,,,605a0e721e341cf7eb75c28e,62c538f4270234594f182abb,2022-07-06_09h25.57.680,Colour_Asymmetry_Pilot,2022.1.3,Win32,59.24872615,62c50e9c1127f2cd403a315f,0,36,36,147,1,twofour,,,,,,,,,,,,,,,,,,,,,,,,,,,,,,,,,,,,,,,,,,,,,,,,,,,,,,,,,,,,,,,,,,,,,,,,,,,,,,,,,,,,,,,,,,,,,,,,,,,,,,,,,,,,,,,,,,,,,,,,,,,,,,,,,,,,,,,,,,,,,,,,,,,,,,,,,,,,,
,,,,,,605a0e721e341cf7eb75c28e,62c538f4270234594f182abb,2022-07-06_09h25.57.680,Colour_Asymmetry_Pilot,2022.1.3,Win32,59.24872615,62c50e9c1127f2cd403a315f,0,37,37,6,1,fourtwo,,,,,,,,,,,,,,,,,,,,,,,,,,,,,,,,,,,,,,,,,,,,,,,,,,,,,,,,,,,,,,,,,,,,,,,,,,,,,,,,,,,,,,,,,,,,,,,,,,,,,,,,,,,,,,,,,,,,,,,,,,,,,,,,,,,,,,,,,,,,,,,,,,,,,,,,,,,,,
,,,,,,605a0e721e341cf7eb75c28e,62c538f4270234594f182abb,2022-07-06_09h25.57.680,Colour_Asymmetry_Pilot,2022.1.3,Win32,59.24872615,62c50e9c1127f2cd403a315f,0,38,38,129,1,onethree,,,,,,,,,,,,,,,,,,,,,,,,,,,,,,,,,,,,,,,,,,,,,,,,,,,,,,,,,,,,,,,,,,,,,,,,,,,,,,,,,,,,,,,,,,,,,,,,,,,,,,,,,,,,,,,,,,,,,,,,,,,,,,,,,,,,,,,,,,,,,,,,,,,,,,,,,,,,,
,,,,,,605a0e721e341cf7eb75c28e,62c538f4270234594f182abb,2022-07-06_09h25.57.680,Colour_Asymmetry_Pilot,2022.1.3,Win32,59.24872615,62c50e9c1127f2cd403a315f,0,39,39,137,1,onethree,,,,,,,,,,,,,,,,,,,,,,,,,,,,,,,,,,,,,,,,,,,,,,,,,,,,,,,,,,,,,,,,,,,,,,,,,,,,,,,,,,,,,,,,,,,,,,,,,,,,,,,,,,,,,,,,,,,,,,,,,,,,,,,,,,,,,,,,,,,,,,,,,,,,,,,,,,,,,
,,,,,,605a0e721e341cf7eb75c28e,62c538f4270234594f182abb,2022-07-06_09h25.57.680,Colour_Asymmetry_Pilot,2022.1.3,Win32,59.24872615,62c50e9c1127f2cd403a315f,0,40,40,154,1,twoone,,,,,,,,,,,,,,,,,,,,,,,,,,,,,,,,,,,,,,,,,,,,,,,,,,,,,,,,,,,,,,,,,,,,,,,,,,,,,,,,,,,,,,,,,,,,,,,,,,,,,,,,,,,,,,,,,,,,,,,,,,,,,,,,,,,,,,,,,,,,,,,,,,,,,,,,,,,,,
,,,,,,605a0e721e341cf7eb75c28e,62c538f4270234594f182abb,2022-07-06_09h25.57.680,Colour_Asymmetry_Pilot,2022.1.3,Win32,59.24872615,62c50e9c1127f2cd403a315f,0,41,41,88,1,onetwo,,,,,,,,,,,,,,,,,,,,,,,,,,,,,,,,,,,,,,,,,,,,,,,,,,,,,,,,,,,,,,,,,,,,,,,,,,,,,,,,,,,,,,,,,,,,,,,,,,,,,,,,,,,,,,,,,,,,,,,,,,,,,,,,,,,,,,,,,,,,,,,,,,,,,,,,,,,,,
,,,,,,605a0e721e341cf7eb75c28e,62c538f4270234594f182abb,2022-07-06_09h25.57.680,Colour_Asymmetry_Pilot,2022.1.3,Win32,59.24872615,62c50e9c1127f2cd403a315f,0,42,42,160,1,onetwo,,,,,,,,,,,,,,,,,,,,,,,,,,,,,,,,,,,,,,,,,,,,,,,,,,,,,,,,,,,,,,,,,,,,,,,,,,,,,,,,,,,,,,,,,,,,,,,,,,,,,,,,,,,,,,,,,,,,,,,,,,,,,,,,,,,,,,,,,,,,,,,,,,,,,,,,,,,,,
,,,,,,605a0e721e341cf7eb75c28e,62c538f4270234594f182abb,2022-07-06_09h25.57.680,Colour_Asymmetry_Pilot,2022.1.3,Win32,59.24872615,62c50e9c1127f2cd403a315f,0,43,43,27,1,twofour,,,,,,,,,,,,,,,,,,,,,,,,,,,,,,,,,,,,,,,,,,,,,,,,,,,,,,,,,,,,,,,,,,,,,,,,,,,,,,,,,,,,,,,,,,,,,,,,,,,,,,,,,,,,,,,,,,,,,,,,,,,,,,,,,,,,,,,,,,,,,,,,,,,,,,,,,,,,,
,,,,,,605a0e721e341cf7eb75c28e,62c538f4270234594f182abb,2022-07-06_09h25.57.680,Colour_Asymmetry_Pilot,2022.1.3,Win32,59.24872615,62c50e9c1127f2cd403a315f,0,44,44,100,1,threeone,,,,,,,,,,,,,,,,,,,,,,,,,,,,,,,,,,,,,,,,,,,,,,,,,,,,,,,,,,,,,,,,,,,,,,,,,,,,,,,,,,,,,,,,,,,,,,,,,,,,,,,,,,,,,,,,,,,,,,,,,,,,,,,,,,,,,,,,,,,,,,,,,,,,,,,,,,,,,
,,,,,,605a0e721e341cf7eb75c28e,62c538f4270234594f182abb,2022-07-06_09h25.57.680,Colour_Asymmetry_Pilot,2022.1.3,Win32,59.24872615,62c50e9c1127f2cd403a315f,0,45,45,123,1,twofour,,,,,,,,,,,,,,,,,,,,,,,,,,,,,,,,,,,,,,,,,,,,,,,,,,,,,,,,,,,,,,,,,,,,,,,,,,,,,,,,,,,,,,,,,,,,,,,,,,,,,,,,,,,,,,,,,,,,,,,,,,,,,,,,,,,,,,,,,,,,,,,,,,,,,,,,,,,,,
,,,,,,605a0e721e341cf7eb75c28e,62c538f4270234594f182abb,2022-07-06_09h25.57.680,Colour_Asymmetry_Pilot,2022.1.3,Win32,59.24872615,62c50e9c1127f2cd403a315f,0,46,46,16,1,onetwo,,,,,,,,,,,,,,,,,,,,,,,,,,,,,,,,,,,,,,,,,,,,,,,,,,,,,,,,,,,,,,,,,,,,,,,,,,,,,,,,,,,,,,,,,,,,,,,,,,,,,,,,,,,,,,,,,,,,,,,,,,,,,,,,,,,,,,,,,,,,,,,,,,,,,,,,,,,,,
,,,,,,605a0e721e341cf7eb75c28e,62c538f4270234594f182abb,2022-07-06_09h25.57.680,Colour_Asymmetry_Pilot,2022.1.3,Win32,59.24872615,62c50e9c1127f2cd403a315f,0,47,47,18,1,twoone,,,,,,,,,,,,,,,,,,,,,,,,,,,,,,,,,,,,,,,,,,,,,,,,,,,,,,,,,,,,,,,,,,,,,,,,,,,,,,,,,,,,,,,,,,,,,,,,,,,,,,,,,,,,,,,,,,,,,,,,,,,,,,,,,,,,,,,,,,,,,,,,,,,,,,,,,,,,,
,,,,,,605a0e721e341cf7eb75c28e,62c538f4270234594f182abb,2022-07-06_09h25.57.680,Colour_Asymmetry_Pilot,2022.1.3,Win32,59.24872615,62c50e9c1127f2cd403a315f,0,48,48,159,1,fourthree,,,,,,,,,,,,,,,,,,,,,,,,,,,,,,,,,,,,,,,,,,,,,,,,,,,,,,,,,,,,,,,,,,,,,,,,,,,,,,,,,,,,,,,,,,,,,,,,,,,,,,,,,,,,,,,,,,,,,,,,,,,,,,,,,,,,,,,,,,,,,,,,,,,,,,,,,,,,,
,,,,,,605a0e721e341cf7eb75c28e,62c538f4270234594f182abb,2022-07-06_09h25.57.680,Colour_Asymmetry_Pilot,2022.1.3,Win32,59.24872615,62c50e9c1127f2cd403a315f,0,49,49,51,1,twofour,,,,,,,,,,,,,,,,,,,,,,,,,,,,,,,,,,,,,,,,,,,,,,,,,,,,,,,,,,,,,,,,,,,,,,,,,,,,,,,,,,,,,,,,,,,,,,,,,,,,,,,,,,,,,,,,,,,,,,,,,,,,,,,,,,,,,,,,,,,,,,,,,,,,,,,,,,,,,
,,,,,,605a0e721e341cf7eb75c28e,62c538f4270234594f182abb,2022-07-06_09h25.57.680,Colour_Asymmetry_Pilot,2022.1.3,Win32,59.24872615,62c50e9c1127f2cd403a315f,0,50,50,67,1,twofour,,,,,,,,,,,,,,,,,,,,,,,,,,,,,,,,,,,,,,,,,,,,,,,,,,,,,,,,,,,,,,,,,,,,,,,,,,,,,,,,,,,,,,,,,,,,,,,,,,,,,,,,,,,,,,,,,,,,,,,,,,,,,,,,,,,,,,,,,,,,,,,,,,,,,,,,,,,,,
,,,,,,605a0e721e341cf7eb75c28e,62c538f4270234594f182abb,2022-07-06_09h25.57.680,Colour_Asymmetry_Pilot,2022.1.3,Win32,59.24872615,62c50e9c1127f2cd403a315f,0,51,51,106,1,twoone,,,,,,,,,,,,,,,,,,,,,,,,,,,,,,,,,,,,,,,,,,,,,,,,,,,,,,,,,,,,,,,,,,,,,,,,,,,,,,,,,,,,,,,,,,,,,,,,,,,,,,,,,,,,,,,,,,,,,,,,,,,,,,,,,,,,,,,,,,,,,,,,,,,,,,,,,,,,,
,,,,,,605a0e721e341cf7eb75c28e,62c538f4270234594f182abb,2022-07-06_09h25.57.680,Colour_Asymmetry_Pilot,2022.1.3,Win32,59.24872615,62c50e9c1127f2cd403a315f,0,52,52,69,1,threefour,,,,,,,,,,,,,,,,,,,,,,,,,,,,,,,,,,,,,,,,,,,,,,,,,,,,,,,,,,,,,,,,,,,,,,,,,,,,,,,,,,,,,,,,,,,,,,,,,,,,,,,,,,,,,,,,,,,,,,,,,,,,,,,,,,,,,,,,,,,,,,,,,,,,,,,,,,,,,
,,,,,,605a0e721e341cf7eb75c28e,62c538f4270234594f182abb,2022-07-06_09h25.57.680,Colour_Asymmetry_Pilot,2022.1.3,Win32,59.24872615,62c50e9c1127f2cd403a315f,0,53,53,158,1,fourtwo,,,,,,,,,,,,,,,,,,,,,,,,,,,,,,,,,,,,,,,,,,,,,,,,,,,,,,,,,,,,,,,,,,,,,,,,,,,,,,,,,,,,,,,,,,,,,,,,,,,,,,,,,,,,,,,,,,,,,,,,,,,,,,,,,,,,,,,,,,,,,,,,,,,,,,,,,,,,,
,,,,,,605a0e721e341cf7eb75c28e,62c538f4270234594f182abb,2022-07-06_09h25.57.680,Colour_Asymmetry_Pilot,2022.1.3,Win32,59.24872615,62c50e9c1127f2cd403a315f,0,54,54,39,1,fourthree,,,,,,,,,,,,,,,,,,,,,,,,,,,,,,,,,,,,,,,,,,,,,,,,,,,,,,,,,,,,,,,,,,,,,,,,,,,,,,,,,,,,,,,,,,,,,,,,,,,,,,,,,,,,,,,,,,,,,,,,,,,,,,,,,,,,,,,,,,,,,,,,,,,,,,,,,,,,,
,,,,,,605a0e721e341cf7eb75c28e,62c538f4270234594f182abb,2022-07-06_09h25.57.680,Colour_Asymmetry_Pilot,2022.1.3,Win32,59.24872615,62c50e9c1127f2cd403a315f,0,55,55,84,1,threeone,,,,,,,,,,,,,,,,,,,,,,,,,,,,,,,,,,,,,,,,,,,,,,,,,,,,,,,,,,,,,,,,,,,,,,,,,,,,,,,,,,,,,,,,,,,,,,,,,,,,,,,,,,,,,,,,,,,,,,,,,,,,,,,,,,,,,,,,,,,,,,,,,,,,,,,,,,,,,
,,,,,,605a0e721e341cf7eb75c28e,62c538f4270234594f182abb,2022-07-06_09h25.57.680,Colour_Asymmetry_Pilot,2022.1.3,Win32,59.24872615,62c50e9c1127f2cd403a315f,0,56,56,23,1,fourthree,,,,,,,,,,,,,,,,,,,,,,,,,,,,,,,,,,,,,,,,,,,,,,,,,,,,,,,,,,,,,,,,,,,,,,,,,,,,,,,,,,,,,,,,,,,,,,,,,,,,,,,,,,,,,,,,,,,,,,,,,,,,,,,,,,,,,,,,,,,,,,,,,,,,,,,,,,,,,
,,,,,,605a0e721e341cf7eb75c28e,62c538f4270234594f182abb,2022-07-06_09h25.57.680,Colour_Asymmetry_Pilot,2022.1.3,Win32,59.24872615,62c50e9c1127f2cd403a315f,0,57,57,71,1,fourthree,,,,,,,,,,,,,,,,,,,,,,,,,,,,,,,,,,,,,,,,,,,,,,,,,,,,,,,,,,,,,,,,,,,,,,,,,,,,,,,,,,,,,,,,,,,,,,,,,,,,,,,,,,,,,,,,,,,,,,,,,,,,,,,,,,,,,,,,,,,,,,,,,,,,,,,,,,,,,
,,,,,,605a0e721e341cf7eb75c28e,62c538f4270234594f182abb,2022-07-06_09h25.57.680,Colour_Asymmetry_Pilot,2022.1.3,Win32,59.24872615,62c50e9c1127f2cd403a315f,0,58,58,12,1,threeone,,,,,,,,,,,,,,,,,,,,,,,,,,,,,,,,,,,,,,,,,,,,,,,,,,,,,,,,,,,,,,,,,,,,,,,,,,,,,,,,,,,,,,,,,,,,,,,,,,,,,,,,,,,,,,,,,,,,,,,,,,,,,,,,,,,,,,,,,,,,,,,,,,,,,,,,,,,,,
,,,,,,605a0e721e341cf7eb75c28e,62c538f4270234594f182abb,2022-07-06_09h25.57.680,Colour_Asymmetry_Pilot,2022.1.3,Win32,59.24872615,62c50e9c1127f2cd403a315f,0,59,59,13,1,threefour,,,,,,,,,,,,,,,,,,,,,,,,,,,,,,,,,,,,,,,,,,,,,,,,,,,,,,,,,,,,,,,,,,,,,,,,,,,,,,,,,,,,,,,,,,,,,,,,,,,,,,,,,,,,,,,,,,,,,,,,,,,,,,,,,,,,,,,,,,,,,,,,,,,,,,,,,,,,,
,,,,,,605a0e721e341cf7eb75c28e,62c538f4270234594f182abb,2022-07-06_09h25.57.680,Colour_Asymmetry_Pilot,2022.1.3,Win32,59.24872615,62c50e9c1127f2cd403a315f,0,60,60,92,1,threeone,,,,,,,,,,,,,,,,,,,,,,,,,,,,,,,,,,,,,,,,,,,,,,,,,,,,,,,,,,,,,,,,,,,,,,,,,,,,,,,,,,,,,,,,,,,,,,,,,,,,,,,,,,,,,,,,,,,,,,,,,,,,,,,,,,,,,,,,,,,,,,,,,,,,,,,,,,,,,
,,,,,,605a0e721e341cf7eb75c28e,62c538f4270234594f182abb,2022-07-06_09h25.57.680,Colour_Asymmetry_Pilot,2022.1.3,Win32,59.24872615,62c50e9c1127f2cd403a315f,0,61,61,26,1,twoone,,,,,,,,,,,,,,,,,,,,,,,,,,,,,,,,,,,,,,,,,,,,,,,,,,,,,,,,,,,,,,,,,,,,,,,,,,,,,,,,,,,,,,,,,,,,,,,,,,,,,,,,,,,,,,,,,,,,,,,,,,,,,,,,,,,,,,,,,,,,,,,,,,,,,,,,,,,,,
,,,,,,605a0e721e341cf7eb75c28e,62c538f4270234594f182abb,2022-07-06_09h25.57.680,Colour_Asymmetry_Pilot,2022.1.3,Win32,59.24872615,62c50e9c1127f2cd403a315f,0,62,62,63,1,fourthree,,,,,,,,,,,,,,,,,,,,,,,,,,,,,,,,,,,,,,,,,,,,,,,,,,,,,,,,,,,,,,,,,,,,,,,,,,,,,,,,,,,,,,,,,,,,,,,,,,,,,,,,,,,,,,,,,,,,,,,,,,,,,,,,,,,,,,,,,,,,,,,,,,,,,,,,,,,,,
,,,,,,605a0e721e341cf7eb75c28e,62c538f4270234594f182abb,2022-07-06_09h25.57.680,Colour_Asymmetry_Pilot,2022.1.3,Win32,59.24872615,62c50e9c1127f2cd403a315f,0,63,63,161,1,onethree,,,,,,,,,,,,,,,,,,,,,,,,,,,,,,,,,,,,,,,,,,,,,,,,,,,,,,,,,,,,,,,,,,,,,,,,,,,,,,,,,,,,,,,,,,,,,,,,,,,,,,,,,,,,,,,,,,,,,,,,,,,,,,,,,,,,,,,,,,,,,,,,,,,,,,,,,,,,,
,,,,,,605a0e721e341cf7eb75c28e,62c538f4270234594f182abb,2022-07-06_09h25.57.680,Colour_Asymmetry_Pilot,2022.1.3,Win32,59.24872615,62c50e9c1127f2cd403a315f,0,64,64,135,1,fourthree,,,,,,,,,,,,,,,,,,,,,,,,,,,,,,,,,,,,,,,,,,,,,,,,,,,,,,,,,,,,,,,,,,,,,,,,,,,,,,,,,,,,,,,,,,,,,,,,,,,,,,,,,,,,,,,,,,,,,,,,,,,,,,,,,,,,,,,,,,,,,,,,,,,,,,,,,,,,,
,,,,,,605a0e721e341cf7eb75c28e,62c538f4270234594f182abb,2022-07-06_09h25.57.680,Colour_Asymmetry_Pilot,2022.1.3,Win32,59.24872615,62c50e9c1127f2cd403a315f,0,65,65,94,1,fourtwo,,,,,,,,,,,,,,,,,,,,,,,,,,,,,,,,,,,,,,,,,,,,,,,,,,,,,,,,,,,,,,,,,,,,,,,,,,,,,,,,,,,,,,,,,,,,,,,,,,,,,,,,,,,,,,,,,,,,,,,,,,,,,,,,,,,,,,,,,,,,,,,,,,,,,,,,,,,,,
,,,,,,605a0e721e341cf7eb75c28e,62c538f4270234594f182abb,2022-07-06_09h25.57.680,Colour_Asymmetry_Pilot,2022.1.3,Win32,59.24872615,62c50e9c1127f2cd403a315f,0,66,66,58,1,twoone,,,,,,,,,,,,,,,,,,,,,,,,,,,,,,,,,,,,,,,,,,,,,,,,,,,,,,,,,,,,,,,,,,,,,,,,,,,,,,,,,,,,,,,,,,,,,,,,,,,,,,,,,,,,,,,,,,,,,,,,,,,,,,,,,,,,,,,,,,,,,,,,,,,,,,,,,,,,,
,,,,,,605a0e721e341cf7eb75c28e,62c538f4270234594f182abb,2022-07-06_09h25.57.680,Colour_Asymmetry_Pilot,2022.1.3,Win32,59.24872615,62c50e9c1127f2cd403a315f,0,67,67,140,1,threeone,,,,,,,,,,,,,,,,,,,,,,,,,,,,,,,,,,,,,,,,,,,,,,,,,,,,,,,,,,,,,,,,,,,,,,,,,,,,,,,,,,,,,,,,,,,,,,,,,,,,,,,,,,,,,,,,,,,,,,,,,,,,,,,,,,,,,,,,,,,,,,,,,,,,,,,,,,,,,
,,,,,,605a0e721e341cf7eb75c28e,62c538f4270234594f182abb,2022-07-06_09h25.57.680,Colour_Asymmetry_Pilot,2022.1.3,Win32,59.24872615,62c50e9c1127f2cd403a315f,0,68,68,44,1,threeone,,,,,,,,,,,,,,,,,,,,,,,,,,,,,,,,,,,,,,,,,,,,,,,,,,,,,,,,,,,,,,,,,,,,,,,,,,,,,,,,,,,,,,,,,,,,,,,,,,,,,,,,,,,,,,,,,,,,,,,,,,,,,,,,,,,,,,,,,,,,,,,,,,,,,,,,,,,,,
,,,,,,605a0e721e341cf7eb75c28e,62c538f4270234594f182abb,2022-07-06_09h25.57.680,Colour_Asymmetry_Pilot,2022.1.3,Win32,59.24872615,62c50e9c1127f2cd403a315f,0,69,69,143,1,fourthree,,,,,,,,,,,,,,,,,,,,,,,,,,,,,,,,,,,,,,,,,,,,,,,,,,,,,,,,,,,,,,,,,,,,,,,,,,,,,,,,,,,,,,,,,,,,,,,,,,,,,,,,,,,,,,,,,,,,,,,,,,,,,,,,,,,,,,,,,,,,,,,,,,,,,,,,,,,,,
,,,,,,605a0e721e341cf7eb75c28e,62c538f4270234594f182abb,2022-07-06_09h25.57.680,Colour_Asymmetry_Pilot,2022.1.3,Win32,59.24872615,62c50e9c1127f2cd403a315f,0,70,70,53,1,threefour,,,,,,,,,,,,,,,,,,,,,,,,,,,,,,,,,,,,,,,,,,,,,,,,,,,,,,,,,,,,,,,,,,,,,,,,,,,,,,,,,,,,,,,,,,,,,,,,,,,,,,,,,,,,,,,,,,,,,,,,,,,,,,,,,,,,,,,,,,,,,,,,,,,,,,,,,,,,,
,,,,,,605a0e721e341cf7eb75c28e,62c538f4270234594f182abb,2022-07-06_09h25.57.680,Colour_Asymmetry_Pilot,2022.1.3,Win32,59.24872615,62c50e9c1127f2cd403a315f,0,71,71,97,1,onethree,,,,,,,,,,,,,,,,,,,,,,,,,,,,,,,,,,,,,,,,,,,,,,,,,,,,,,,,,,,,,,,,,,,,,,,,,,,,,,,,,,,,,,,,,,,,,,,,,,,,,,,,,,,,,,,,,,,,,,,,,,,,,,,,,,,,,,,,,,,,,,,,,,,,,,,,,,,,,
,,,,,,605a0e721e341cf7eb75c28e,62c538f4270234594f182abb,2022-07-06_09h25.57.680,Colour_Asymmetry_Pilot,2022.1.3,Win32,59.24872615,62c50e9c1127f2cd403a315f,0,72,72,49,1,onethree,,,,,,,,,,,,,,,,,,,,,,,,,,,,,,,,,,,,,,,,,,,,,,,,,,,,,,,,,,,,,,,,,,,,,,,,,,,,,,,,,,,,,,,,,,,,,,,,,,,,,,,,,,,,,,,,,,,,,,,,,,,,,,,,,,,,,,,,,,,,,,,,,,,,,,,,,,,,,
,,,,,,605a0e721e341cf7eb75c28e,62c538f4270234594f182abb,2022-07-06_09h25.57.680,Colour_Asymmetry_Pilot,2022.1.3,Win32,59.24872615,62c50e9c1127f2cd403a315f,0,73,73,52,1,threeone,,,,,,,,,,,,,,,,,,,,,,,,,,,,,,,,,,,,,,,,,,,,,,,,,,,,,,,,,,,,,,,,,,,,,,,,,,,,,,,,,,,,,,,,,,,,,,,,,,,,,,,,,,,,,,,,,,,,,,,,,,,,,,,,,,,,,,,,,,,,,,,,,,,,,,,,,,,,,
,,,,,,605a0e721e341cf7eb75c28e,62c538f4270234594f182abb,2022-07-06_09h25.57.680,Colour_Asymmetry_Pilot,2022.1.3,Win32,59.24872615,62c50e9c1127f2cd403a315f,0,74,74,141,1,threefour,,,,,,,,,,,,,,,,,,,,,,,,,,,,,,,,,,,,,,,,,,,,,,,,,,,,,,,,,,,,,,,,,,,,,,,,,,,,,,,,,,,,,,,,,,,,,,,,,,,,,,,,,,,,,,,,,,,,,,,,,,,,,,,,,,,,,,,,,,,,,,,,,,,,,,,,,,,,,
,,,,,,605a0e721e341cf7eb75c28e,62c538f4270234594f182abb,2022-07-06_09h25.57.680,Colour_Asymmetry_Pilot,2022.1.3,Win32,59.24872615,62c50e9c1127f2cd403a315f,0,75,75,89,1,onethree,,,,,,,,,,,,,,,,,,,,,,,,,,,,,,,,,,,,,,,,,,,,,,,,,,,,,,,,,,,,,,,,,,,,,,,,,,,,,,,,,,,,,,,,,,,,,,,,,,,,,,,,,,,,,,,,,,,,,,,,,,,,,,,,,,,,,,,,,,,,,,,,,,,,,,,,,,,,,
,,,,,,605a0e721e341cf7eb75c28e,62c538f4270234594f182abb,2022-07-06_09h25.57.680,Colour_Asymmetry_Pilot,2022.1.3,Win32,59.24872615,62c50e9c1127f2cd403a315f,0,76,76,11,1,twofour,,,,,,,,,,,,,,,,,,,,,,,,,,,,,,,,,,,,,,,,,,,,,,,,,,,,,,,,,,,,,,,,,,,,,,,,,,,,,,,,,,,,,,,,,,,,,,,,,,,,,,,,,,,,,,,,,,,,,,,,,,,,,,,,,,,,,,,,,,,,,,,,,,,,,,,,,,,,,
,,,,,,605a0e721e341cf7eb75c28e,62c538f4270234594f182abb,2022-07-06_09h25.57.680,Colour_Asymmetry_Pilot,2022.1.3,Win32,59.24872615,62c50e9c1127f2cd403a315f,0,77,77,66,1,twoone,,,,,,,,,,,,,,,,,,,,,,,,,,,,,,,,,,,,,,,,,,,,,,,,,,,,,,,,,,,,,,,,,,,,,,,,,,,,,,,,,,,,,,,,,,,,,,,,,,,,,,,,,,,,,,,,,,,,,,,,,,,,,,,,,,,,,,,,,,,,,,,,,,,,,,,,,,,,,
,,,,,,605a0e721e341cf7eb75c28e,62c538f4270234594f182abb,2022-07-06_09h25.57.680,Colour_Asymmetry_Pilot,2022.1.3,Win32,59.24872615,62c50e9c1127f2cd403a315f,0,78,78,110,1,fourtwo,,,,,,,,,,,,,,,,,,,,,,,,,,,,,,,,,,,,,,,,,,,,,,,,,,,,,,,,,,,,,,,,,,,,,,,,,,,,,,,,,,,,,,,,,,,,,,,,,,,,,,,,,,,,,,,,,,,,,,,,,,,,,,,,,,,,,,,,,,,,,,,,,,,,,,,,,,,,,
,,,,,,605a0e721e341cf7eb75c28e,62c538f4270234594f182abb,2022-07-06_09h25.57.680,Colour_Asymmetry_Pilot,2022.1.3,Win32,59.24872615,62c50e9c1127f2cd403a315f,0,79,79,60,1,threeone,,,,,,,,,,,,,,,,,,,,,,,,,,,,,,,,,,,,,,,,,,,,,,,,,,,,,,,,,,,,,,,,,,,,,,,,,,,,,,,,,,,,,,,,,,,,,,,,,,,,,,,,,,,,,,,,,,,,,,,,,,,,,,,,,,,,,,,,,,,,,,,,,,,,,,,,,,,,,
,,,,,,605a0e721e341cf7eb75c28e,62c538f4270234594f182abb,2022-07-06_09h25.57.680,Colour_Asymmetry_Pilot,2022.1.3,Win32,59.24872615,62c50e9c1127f2cd403a315f,0,80,80,155,1,twofour,,,,,,,,,,,,,,,,,,,,,,,,,,,,,,,,,,,,,,,,,,,,,,,,,,,,,,,,,,,,,,,,,,,,,,,,,,,,,,,,,,,,,,,,,,,,,,,,,,,,,,,,,,,,,,,,,,,,,,,,,,,,,,,,,,,,,,,,,,,,,,,,,,,,,,,,,,,,,
,,,,,,605a0e721e341cf7eb75c28e,62c538f4270234594f182abb,2022-07-06_09h25.57.680,Colour_Asymmetry_Pilot,2022.1.3,Win32,59.24872615,62c50e9c1127f2cd403a315f,0,81,81,1,1,onethree,,,,,,,,,,,,,,,,,,,,,,,,,,,,,,,,,,,,,,,,,,,,,,,,,,,,,,,,,,,,,,,,,,,,,,,,,,,,,,,,,,,,,,,,,,,,,,,,,,,,,,,,,,,,,,,,,,,,,,,,,,,,,,,,,,,,,,,,,,,,,,,,,,,,,,,,,,,,,
,,,,,,605a0e721e341cf7eb75c28e,62c538f4270234594f182abb,2022-07-06_09h25.57.680,Colour_Asymmetry_Pilot,2022.1.3,Win32,59.24872615,62c50e9c1127f2cd403a315f,0,82,82,37,1,threefour,,,,,,,,,,,,,,,,,,,,,,,,,,,,,,,,,,,,,,,,,,,,,,,,,,,,,,,,,,,,,,,,,,,,,,,,,,,,,,,,,,,,,,,,,,,,,,,,,,,,,,,,,,,,,,,,,,,,,,,,,,,,,,,,,,,,,,,,,,,,,,,,,,,,,,,,,,,,,
,,,,,,605a0e721e341cf7eb75c28e,62c538f4270234594f182abb,2022-07-06_09h25.57.680,Colour_Asymmetry_Pilot,2022.1.3,Win32,59.24872615,62c50e9c1127f2cd403a315f,0,83,83,91,1,twofour,,,,,,,,,,,,,,,,,,,,,,,,,,,,,,,,,,,,,,,,,,,,,,,,,,,,,,,,,,,,,,,,,,,,,,,,,,,,,,,,,,,,,,,,,,,,,,,,,,,,,,,,,,,,,,,,,,,,,,,,,,,,,,,,,,,,,,,,,,,,,,,,,,,,,,,,,,,,,
,,,,,,605a0e721e341cf7eb75c28e,62c538f4270234594f182abb,2022-07-06_09h25.57.680,Colour_Asymmetry_Pilot,2022.1.3,Win32,59.24872615,62c50e9c1127f2cd403a315f,0,84,84,50,1,twoone,,,,,,,,,,,,,,,,,,,,,,,,,,,,,,,,,,,,,,,,,,,,,,,,,,,,,,,,,,,,,,,,,,,,,,,,,,,,,,,,,,,,,,,,,,,,,,,,,,,,,,,,,,,,,,,,,,,,,,,,,,,,,,,,,,,,,,,,,,,,,,,,,,,,,,,,,,,,,
,,,,,,605a0e721e341cf7eb75c28e,62c538f4270234594f182abb,2022-07-06_09h25.57.680,Colour_Asymmetry_Pilot,2022.1.3,Win32,59.24872615,62c50e9c1127f2cd403a315f,0,85,85,90,1,twoone,,,,,,,,,,,,,,,,,,,,,,,,,,,,,,,,,,,,,,,,,,,,,,,,,,,,,,,,,,,,,,,,,,,,,,,,,,,,,,,,,,,,,,,,,,,,,,,,,,,,,,,,,,,,,,,,,,,,,,,,,,,,,,,,,,,,,,,,,,,,,,,,,,,,,,,,,,,,,
,,,,,,605a0e721e341cf7eb75c28e,62c538f4270234594f182abb,2022-07-06_09h25.57.680,Colour_Asymmetry_Pilot,2022.1.3,Win32,59.24872615,62c50e9c1127f2cd403a315f,0,86,86,138,1,twoone,,,,,,,,,,,,,,,,,,,,,,,,,,,,,,,,,,,,,,,,,,,,,,,,,,,,,,,,,,,,,,,,,,,,,,,,,,,,,,,,,,,,,,,,,,,,,,,,,,,,,,,,,,,,,,,,,,,,,,,,,,,,,,,,,,,,,,,,,,,,,,,,,,,,,,,,,,,,,
,,,,,,605a0e721e341cf7eb75c28e,62c538f4270234594f182abb,2022-07-06_09h25.57.680,Colour_Asymmetry_Pilot,2022.1.3,Win32,59.24872615,62c50e9c1127f2cd403a315f,0,87,87,0,1,onetwo,,,,,,,,,,,,,,,,,,,,,,,,,,,,,,,,,,,,,,,,,,,,,,,,,,,,,,,,,,,,,,,,,,,,,,,,,,,,,,,,,,,,,,,,,,,,,,,,,,,,,,,,,,,,,,,,,,,,,,,,,,,,,,,,,,,,,,,,,,,,,,,,,,,,,,,,,,,,,
,,,,,,605a0e721e341cf7eb75c28e,62c538f4270234594f182abb,2022-07-06_09h25.57.680,Colour_Asymmetry_Pilot,2022.1.3,Win32,59.24872615,62c50e9c1127f2cd403a315f,0,88,88,120,1,onetwo,,,,,,,,,,,,,,,,,,,,,,,,,,,,,,,,,,,,,,,,,,,,,,,,,,,,,,,,,,,,,,,,,,,,,,,,,,,,,,,,,,,,,,,,,,,,,,,,,,,,,,,,,,,,,,,,,,,,,,,,,,,,,,,,,,,,,,,,,,,,,,,,,,,,,,,,,,,,,
,,,,,,605a0e721e341cf7eb75c28e,62c538f4270234594f182abb,2022-07-06_09h25.57.680,Colour_Asymmetry_Pilot,2022.1.3,Win32,59.24872615,62c50e9c1127f2cd403a315f,0,89,89,80,1,onetwo,,,,,,,,,,,,,,,,,,,,,,,,,,,,,,,,,,,,,,,,,,,,,,,,,,,,,,,,,,,,,,,,,,,,,,,,,,,,,,,,,,,,,,,,,,,,,,,,,,,,,,,,,,,,,,,,,,,,,,,,,,,,,,,,,,,,,,,,,,,,,,,,,,,,,,,,,,,,,
,,,,,,605a0e721e341cf7eb75c28e,62c538f4270234594f182abb,2022-07-06_09h25.57.680,Colour_Asymmetry_Pilot,2022.1.3,Win32,59.24872615,62c50e9c1127f2cd403a315f,0,90,90,34,1,twoone,,,,,,,,,,,,,,,,,,,,,,,,,,,,,,,,,,,,,,,,,,,,,,,,,,,,,,,,,,,,,,,,,,,,,,,,,,,,,,,,,,,,,,,,,,,,,,,,,,,,,,,,,,,,,,,,,,,,,,,,,,,,,,,,,,,,,,,,,,,,,,,,,,,,,,,,,,,,,
,,,,,,605a0e721e341cf7eb75c28e,62c538f4270234594f182abb,2022-07-06_09h25.57.680,Colour_Asymmetry_Pilot,2022.1.3,Win32,59.24872615,62c50e9c1127f2cd403a315f,0,91,91,22,1,fourtwo,,,,,,,,,,,,,,,,,,,,,,,,,,,,,,,,,,,,,,,,,,,,,,,,,,,,,,,,,,,,,,,,,,,,,,,,,,,,,,,,,,,,,,,,,,,,,,,,,,,,,,,,,,,,,,,,,,,,,,,,,,,,,,,,,,,,,,,,,,,,,,,,,,,,,,,,,,,,,
,,,,,,605a0e721e341cf7eb75c28e,62c538f4270234594f182abb,2022-07-06_09h25.57.680,Colour_Asymmetry_Pilot,2022.1.3,Win32,59.24872615,62c50e9c1127f2cd403a315f,0,92,92,133,1,threefour,,,,,,,,,,,,,,,,,,,,,,,,,,,,,,,,,,,,,,,,,,,,,,,,,,,,,,,,,,,,,,,,,,,,,,,,,,,,,,,,,,,,,,,,,,,,,,,,,,,,,,,,,,,,,,,,,,,,,,,,,,,,,,,,,,,,,,,,,,,,,,,,,,,,,,,,,,,,,
,,,,,,605a0e721e341cf7eb75c28e,62c538f4270234594f182abb,2022-07-06_09h25.57.680,Colour_Asymmetry_Pilot,2022.1.3,Win32,59.24872615,62c50e9c1127f2cd403a315f,0,93,93,10,1,twoone,,,,,,,,,,,,,,,,,,,,,,,,,,,,,,,,,,,,,,,,,,,,,,,,,,,,,,,,,,,,,,,,,,,,,,,,,,,,,,,,,,,,,,,,,,,,,,,,,,,,,,,,,,,,,,,,,,,,,,,,,,,,,,,,,,,,,,,,,,,,,,,,,,,,,,,,,,,,,
,,,,,,605a0e721e341cf7eb75c28e,62c538f4270234594f182abb,2022-07-06_09h25.57.680,Colour_Asymmetry_Pilot,2022.1.3,Win32,59.24872615,62c50e9c1127f2cd403a315f,0,94,94,116,1,threeone,,,,,,,,,,,,,,,,,,,,,,,,,,,,,,,,,,,,,,,,,,,,,,,,,,,,,,,,,,,,,,,,,,,,,,,,,,,,,,,,,,,,,,,,,,,,,,,,,,,,,,,,,,,,,,,,,,,,,,,,,,,,,,,,,,,,,,,,,,,,,,,,,,,,,,,,,,,,,
,,,,,,605a0e721e341cf7eb75c28e,62c538f4270234594f182abb,2022-07-06_09h25.57.680,Colour_Asymmetry_Pilot,2022.1.3,Win32,59.24872615,62c50e9c1127f2cd403a315f,0,95,95,114,1,twoone,,,,,,,,,,,,,,,,,,,,,,,,,,,,,,,,,,,,,,,,,,,,,,,,,,,,,,,,,,,,,,,,,,,,,,,,,,,,,,,,,,,,,,,,,,,,,,,,,,,,,,,,,,,,,,,,,,,,,,,,,,,,,,,,,,,,,,,,,,,,,,,,,,,,,,,,,,,,,
,,,,,,605a0e721e341cf7eb75c28e,62c538f4270234594f182abb,2022-07-06_09h25.57.680,Colour_Asymmetry_Pilot,2022.1.3,Win32,59.24872615,62c50e9c1127f2cd403a315f,0,96,96,96,1,onetwo,,,,,,,,,,,,,,,,,,,,,,,,,,,,,,,,,,,,,,,,,,,,,,,,,,,,,,,,,,,,,,,,,,,,,,,,,,,,,,,,,,,,,,,,,,,,,,,,,,,,,,,,,,,,,,,,,,,,,,,,,,,,,,,,,,,,,,,,,,,,,,,,,,,,,,,,,,,,,
,,,,,,605a0e721e341cf7eb75c28e,62c538f4270234594f182abb,2022-07-06_09h25.57.680,Colour_Asymmetry_Pilot,2022.1.3,Win32,59.24872615,62c50e9c1127f2cd403a315f,0,97,97,4,1,threeone,,,,,,,,,,,,,,,,,,,,,,,,,,,,,,,,,,,,,,,,,,,,,,,,,,,,,,,,,,,,,,,,,,,,,,,,,,,,,,,,,,,,,,,,,,,,,,,,,,,,,,,,,,,,,,,,,,,,,,,,,,,,,,,,,,,,,,,,,,,,,,,,,,,,,,,,,,,,,
,,,,,,605a0e721e341cf7eb75c28e,62c538f4270234594f182abb,2022-07-06_09h25.57.680,Colour_Asymmetry_Pilot,2022.1.3,Win32,59.24872615,62c50e9c1127f2cd403a315f,0,98,98,31,1,fourthree,,,,,,,,,,,,,,,,,,,,,,,,,,,,,,,,,,,,,,,,,,,,,,,,,,,,,,,,,,,,,,,,,,,,,,,,,,,,,,,,,,,,,,,,,,,,,,,,,,,,,,,,,,,,,,,,,,,,,,,,,,,,,,,,,,,,,,,,,,,,,,,,,,,,,,,,,,,,,
,,,,,,605a0e721e341cf7eb75c28e,62c538f4270234594f182abb,2022-07-06_09h25.57.680,Colour_Asymmetry_Pilot,2022.1.3,Win32,59.24872615,62c50e9c1127f2cd403a315f,0,99,99,5,1,threefour,,,,,,,,,,,,,,,,,,,,,,,,,,,,,,,,,,,,,,,,,,,,,,,,,,,,,,,,,,,,,,,,,,,,,,,,,,,,,,,,,,,,,,,,,,,,,,,,,,,,,,,,,,,,,,,,,,,,,,,,,,,,,,,,,,,,,,,,,,,,,,,,,,,,,,,,,,,,,
,,,,,,605a0e721e341cf7eb75c28e,62c538f4270234594f182abb,2022-07-06_09h25.57.680,Colour_Asymmetry_Pilot,2022.1.3,Win32,59.24872615,62c50e9c1127f2cd403a315f,0,100,100,130,1,twoone,,,,,,,,,,,,,,,,,,,,,,,,,,,,,,,,,,,,,,,,,,,,,,,,,,,,,,,,,,,,,,,,,,,,,,,,,,,,,,,,,,,,,,,,,,,,,,,,,,,,,,,,,,,,,,,,,,,,,,,,,,,,,,,,,,,,,,,,,,,,,,,,,,,,,,,,,,,,,
,,,,,,605a0e721e341cf7eb75c28e,62c538f4270234594f182abb,2022-07-06_09h25.57.680,Colour_Asymmetry_Pilot,2022.1.3,Win32,59.24872615,62c50e9c1127f2cd403a315f,0,101,101,146,1,twoone,,,,,,,,,,,,,,,,,,,,,,,,,,,,,,,,,,,,,,,,,,,,,,,,,,,,,,,,,,,,,,,,,,,,,,,,,,,,,,,,,,,,,,,,,,,,,,,,,,,,,,,,,,,,,,,,,,,,,,,,,,,,,,,,,,,,,,,,,,,,,,,,,,,,,,,,,,,,,
,,,,,,605a0e721e341cf7eb75c28e,62c538f4270234594f182abb,2022-07-06_09h25.57.680,Colour_Asymmetry_Pilot,2022.1.3,Win32,59.24872615,62c50e9c1127f2cd403a315f,0,102,102,121,1,onethree,,,,,,,,,,,,,,,,,,,,,,,,,,,,,,,,,,,,,,,,,,,,,,,,,,,,,,,,,,,,,,,,,,,,,,,,,,,,,,,,,,,,,,,,,,,,,,,,,,,,,,,,,,,,,,,,,,,,,,,,,,,,,,,,,,,,,,,,,,,,,,,,,,,,,,,,,,,,,
,,,,,,605a0e721e341cf7eb75c28e,62c538f4270234594f182abb,2022-07-06_09h25.57.680,Colour_Asymmetry_Pilot,2022.1.3,Win32,59.24872615,62c50e9c1127f2cd403a315f,0,103,103,14,1,fourtwo,,,,,,,,,,,,,,,,,,,,,,,,,,,,,,,,,,,,,,,,,,,,,,,,,,,,,,,,,,,,,,,,,,,,,,,,,,,,,,,,,,,,,,,,,,,,,,,,,,,,,,,,,,,,,,,,,,,,,,,,,,,,,,,,,,,,,,,,,,,,,,,,,,,,,,,,,,,,,
,,,,,,605a0e721e341cf7eb75c28e,62c538f4270234594f182abb,2022-07-06_09h25.57.680,Colour_Asymmetry_Pilot,2022.1.3,Win32,59.24872615,62c50e9c1127f2cd403a315f,0,104,104,142,1,fourtwo,,,,,,,,,,,,,,,,,,,,,,,,,,,,,,,,,,,,,,,,,,,,,,,,,,,,,,,,,,,,,,,,,,,,,,,,,,,,,,,,,,,,,,,,,,,,,,,,,,,,,,,,,,,,,,,,,,,,,,,,,,,,,,,,,,,,,,,,,,,,,,,,,,,,,,,,,,,,,
,,,,,,605a0e721e341cf7eb75c28e,62c538f4270234594f182abb,2022-07-06_09h25.57.680,Colour_Asymmetry_Pilot,2022.1.3,Win32,59.24872615,62c50e9c1127f2cd403a315f,0,105,105,59,1,twofour,,,,,,,,,,,,,,,,,,,,,,,,,,,,,,,,,,,,,,,,,,,,,,,,,,,,,,,,,,,,,,,,,,,,,,,,,,,,,,,,,,,,,,,,,,,,,,,,,,,,,,,,,,,,,,,,,,,,,,,,,,,,,,,,,,,,,,,,,,,,,,,,,,,,,,,,,,,,,
,,,,,,605a0e721e341cf7eb75c28e,62c538f4270234594f182abb,2022-07-06_09h25.57.680,Colour_Asymmetry_Pilot,2022.1.3,Win32,59.24872615,62c50e9c1127f2cd403a315f,0,106,106,83,1,twofour,,,,,,,,,,,,,,,,,,,,,,,,,,,,,,,,,,,,,,,,,,,,,,,,,,,,,,,,,,,,,,,,,,,,,,,,,,,,,,,,,,,,,,,,,,,,,,,,,,,,,,,,,,,,,,,,,,,,,,,,,,,,,,,,,,,,,,,,,,,,,,,,,,,,,,,,,,,,,
,,,,,,605a0e721e341cf7eb75c28e,62c538f4270234594f182abb,2022-07-06_09h25.57.680,Colour_Asymmetry_Pilot,2022.1.3,Win32,59.24872615,62c50e9c1127f2cd403a315f,0,107,107,65,1,onethree,,,,,,,,,,,,,,,,,,,,,,,,,,,,,,,,,,,,,,,,,,,,,,,,,,,,,,,,,,,,,,,,,,,,,,,,,,,,,,,,,,,,,,,,,,,,,,,,,,,,,,,,,,,,,,,,,,,,,,,,,,,,,,,,,,,,,,,,,,,,,,,,,,,,,,,,,,,,,
,,,,,,605a0e721e341cf7eb75c28e,62c538f4270234594f182abb,2022-07-06_09h25.57.680,Colour_Asymmetry_Pilot,2022.1.3,Win32,59.24872615,62c50e9c1127f2cd403a315f,0,108,108,87,1,fourthree,,,,,,,,,,,,,,,,,,,,,,,,,,,,,,,,,,,,,,,,,,,,,,,,,,,,,,,,,,,,,,,,,,,,,,,,,,,,,,,,,,,,,,,,,,,,,,,,,,,,,,,,,,,,,,,,,,,,,,,,,,,,,,,,,,,,,,,,,,,,,,,,,,,,,,,,,,,,,
,,,,,,605a0e721e341cf7eb75c28e,62c538f4270234594f182abb,2022-07-06_09h25.57.680,Colour_Asymmetry_Pilot,2022.1.3,Win32,59.24872615,62c50e9c1127f2cd403a315f,0,109,109,46,1,fourtwo,,,,,,,,,,,,,,,,,,,,,,,,,,,,,,,,,,,,,,,,,,,,,,,,,,,,,,,,,,,,,,,,,,,,,,,,,,,,,,,,,,,,,,,,,,,,,,,,,,,,,,,,,,,,,,,,,,,,,,,,,,,,,,,,,,,,,,,,,,,,,,,,,,,,,,,,,,,,,
,,,,,,605a0e721e341cf7eb75c28e,62c538f4270234594f182abb,2022-07-06_09h25.57.680,Colour_Asymmetry_Pilot,2022.1.3,Win32,59.24872615,62c50e9c1127f2cd403a315f,0,110,110,113,1,onethree,,,,,,,,,,,,,,,,,,,,,,,,,,,,,,,,,,,,,,,,,,,,,,,,,,,,,,,,,,,,,,,,,,,,,,,,,,,,,,,,,,,,,,,,,,,,,,,,,,,,,,,,,,,,,,,,,,,,,,,,,,,,,,,,,,,,,,,,,,,,,,,,,,,,,,,,,,,,,
,,,,,,605a0e721e341cf7eb75c28e,62c538f4270234594f182abb,2022-07-06_09h25.57.680,Colour_Asymmetry_Pilot,2022.1.3,Win32,59.24872615,62c50e9c1127f2cd403a315f,0,111,111,108,1,threeone,,,,,,,,,,,,,,,,,,,,,,,,,,,,,,,,,,,,,,,,,,,,,,,,,,,,,,,,,,,,,,,,,,,,,,,,,,,,,,,,,,,,,,,,,,,,,,,,,,,,,,,,,,,,,,,,,,,,,,,,,,,,,,,,,,,,,,,,,,,,,,,,,,,,,,,,,,,,,
,,,,,,605a0e721e341cf7eb75c28e,62c538f4270234594f182abb,2022-07-06_09h25.57.680,Colour_Asymmetry_Pilot,2022.1.3,Win32,59.24872615,62c50e9c1127f2cd403a315f,0,112,112,2,1,twoone,,,,,,,,,,,,,,,,,,,,,,,,,,,,,,,,,,,,,,,,,,,,,,,,,,,,,,,,,,,,,,,,,,,,,,,,,,,,,,,,,,,,,,,,,,,,,,,,,,,,,,,,,,,,,,,,,,,,,,,,,,,,,,,,,,,,,,,,,,,,,,,,,,,,,,,,,,,,,
,,,,,,605a0e721e341cf7eb75c28e,62c538f4270234594f182abb,2022-07-06_09h25.57.680,Colour_Asymmetry_Pilot,2022.1.3,Win32,59.24872615,62c50e9c1127f2cd403a315f,0,113,113,56,1,onetwo,,,,,,,,,,,,,,,,,,,,,,,,,,,,,,,,,,,,,,,,,,,,,,,,,,,,,,,,,,,,,,,,,,,,,,,,,,,,,,,,,,,,,,,,,,,,,,,,,,,,,,,,,,,,,,,,,,,,,,,,,,,,,,,,,,,,,,,,,,,,,,,,,,,,,,,,,,,,,
,,,,,,605a0e721e341cf7eb75c28e,62c538f4270234594f182abb,2022-07-06_09h25.57.680,Colour_Asymmetry_Pilot,2022.1.3,Win32,59.24872615,62c50e9c1127f2cd403a315f,0,114,114,55,1,fourthree,,,,,,,,,,,,,,,,,,,,,,,,,,,,,,,,,,,,,,,,,,,,,,,,,,,,,,,,,,,,,,,,,,,,,,,,,,,,,,,,,,,,,,,,,,,,,,,,,,,,,,,,,,,,,,,,,,,,,,,,,,,,,,,,,,,,,,,,,,,,,,,,,,,,,,,,,,,,,
,,,,,,605a0e721e341cf7eb75c28e,62c538f4270234594f182abb,2022-07-06_09h25.57.680,Colour_Asymmetry_Pilot,2022.1.3,Win32,59.24872615,62c50e9c1127f2cd403a315f,0,115,115,98,1,twoone,,,,,,,,,,,,,,,,,,,,,,,,,,,,,,,,,,,,,,,,,,,,,,,,,,,,,,,,,,,,,,,,,,,,,,,,,,,,,,,,,,,,,,,,,,,,,,,,,,,,,,,,,,,,,,,,,,,,,,,,,,,,,,,,,,,,,,,,,,,,,,,,,,,,,,,,,,,,,
,,,,,,605a0e721e341cf7eb75c28e,62c538f4270234594f182abb,2022-07-06_09h25.57.680,Colour_Asymmetry_Pilot,2022.1.3,Win32,59.24872615,62c50e9c1127f2cd403a315f,0,116,116,62,1,fourtwo,,,,,,,,,,,,,,,,,,,,,,,,,,,,,,,,,,,,,,,,,,,,,,,,,,,,,,,,,,,,,,,,,,,,,,,,,,,,,,,,,,,,,,,,,,,,,,,,,,,,,,,,,,,,,,,,,,,,,,,,,,,,,,,,,,,,,,,,,,,,,,,,,,,,,,,,,,,,,
,,,,,,605a0e721e341cf7eb75c28e,62c538f4270234594f182abb,2022-07-06_09h25.57.680,Colour_Asymmetry_Pilot,2022.1.3,Win32,59.24872615,62c50e9c1127f2cd403a315f,0,117,117,70,1,fourtwo,,,,,,,,,,,,,,,,,,,,,,,,,,,,,,,,,,,,,,,,,,,,,,,,,,,,,,,,,,,,,,,,,,,,,,,,,,,,,,,,,,,,,,,,,,,,,,,,,,,,,,,,,,,,,,,,,,,,,,,,,,,,,,,,,,,,,,,,,,,,,,,,,,,,,,,,,,,,,
,,,,,,605a0e721e341cf7eb75c28e,62c538f4270234594f182abb,2022-07-06_09h25.57.680,Colour_Asymmetry_Pilot,2022.1.3,Win32,59.24872615,62c50e9c1127f2cd403a315f,0,118,118,127,1,fourthree,,,,,,,,,,,,,,,,,,,,,,,,,,,,,,,,,,,,,,,,,,,,,,,,,,,,,,,,,,,,,,,,,,,,,,,,,,,,,,,,,,,,,,,,,,,,,,,,,,,,,,,,,,,,,,,,,,,,,,,,,,,,,,,,,,,,,,,,,,,,,,,,,,,,,,,,,,,,,
,,,,,,605a0e721e341cf7eb75c28e,62c538f4270234594f182abb,2022-07-06_09h25.57.680,Colour_Asymmetry_Pilot,2022.1.3,Win32,59.24872615,62c50e9c1127f2cd403a315f,0,119,119,136,1,onetwo,,,,,,,,,,,,,,,,,,,,,,,,,,,,,,,,,,,,,,,,,,,,,,,,,,,,,,,,,,,,,,,,,,,,,,,,,,,,,,,,,,,,,,,,,,,,,,,,,,,,,,,,,,,,,,,,,,,,,,,,,,,,,,,,,,,,,,,,,,,,,,,,,,,,,,,,,,,,,
,,,,,,605a0e721e341cf7eb75c28e,62c538f4270234594f182abb,2022-07-06_09h25.57.680,Colour_Asymmetry_Pilot,2022.1.3,Win32,59.24872615,62c50e9c1127f2cd403a315f,0,120,120,119,1,fourthree,,,,,,,,,,,,,,,,,,,,,,,,,,,,,,,,,,,,,,,,,,,,,,,,,,,,,,,,,,,,,,,,,,,,,,,,,,,,,,,,,,,,,,,,,,,,,,,,,,,,,,,,,,,,,,,,,,,,,,,,,,,,,,,,,,,,,,,,,,,,,,,,,,,,,,,,,,,,,
,,,,,,605a0e721e341cf7eb75c28e,62c538f4270234594f182abb,2022-07-06_09h25.57.680,Colour_Asymmetry_Pilot,2022.1.3,Win32,59.24872615,62c50e9c1127f2cd403a315f,0,121,121,86,1,fourtwo,,,,,,,,,,,,,,,,,,,,,,,,,,,,,,,,,,,,,,,,,,,,,,,,,,,,,,,,,,,,,,,,,,,,,,,,,,,,,,,,,,,,,,,,,,,,,,,,,,,,,,,,,,,,,,,,,,,,,,,,,,,,,,,,,,,,,,,,,,,,,,,,,,,,,,,,,,,,,
,,,,,,605a0e721e341cf7eb75c28e,62c538f4270234594f182abb,2022-07-06_09h25.57.680,Colour_Asymmetry_Pilot,2022.1.3,Win32,59.24872615,62c50e9c1127f2cd403a315f,0,122,122,139,1,twofour,,,,,,,,,,,,,,,,,,,,,,,,,,,,,,,,,,,,,,,,,,,,,,,,,,,,,,,,,,,,,,,,,,,,,,,,,,,,,,,,,,,,,,,,,,,,,,,,,,,,,,,,,,,,,,,,,,,,,,,,,,,,,,,,,,,,,,,,,,,,,,,,,,,,,,,,,,,,,
,,,,,,605a0e721e341cf7eb75c28e,62c538f4270234594f182abb,2022-07-06_09h25.57.680,Colour_Asymmetry_Pilot,2022.1.3,Win32,59.24872615,62c50e9c1127f2cd403a315f,0,123,123,78,1,fourtwo,,,,,,,,,,,,,,,,,,,,,,,,,,,,,,,,,,,,,,,,,,,,,,,,,,,,,,,,,,,,,,,,,,,,,,,,,,,,,,,,,,,,,,,,,,,,,,,,,,,,,,,,,,,,,,,,,,,,,,,,,,,,,,,,,,,,,,,,,,,,,,,,,,,,,,,,,,,,,
,,,,,,605a0e721e341cf7eb75c28e,62c538f4270234594f182abb,2022-07-06_09h25.57.680,Colour_Asymmetry_Pilot,2022.1.3,Win32,59.24872615,62c50e9c1127f2cd403a315f,0,124,124,111,1,fourthree,,,,,,,,,,,,,,,,,,,,,,,,,,,,,,,,,,,,,,,,,,,,,,,,,,,,,,,,,,,,,,,,,,,,,,,,,,,,,,,,,,,,,,,,,,,,,,,,,,,,,,,,,,,,,,,,,,,,,,,,,,,,,,,,,,,,,,,,,,,,,,,,,,,,,,,,,,,,,
,,,,,,605a0e721e341cf7eb75c28e,62c538f4270234594f182abb,2022-07-06_09h25.57.680,Colour_Asymmetry_Pilot,2022.1.3,Win32,59.24872615,62c50e9c1127f2cd403a315f,0,125,125,15,1,fourthree,,,,,,,,,,,,,,,,,,,,,,,,,,,,,,,,,,,,,,,,,,,,,,,,,,,,,,,,,,,,,,,,,,,,,,,,,,,,,,,,,,,,,,,,,,,,,,,,,,,,,,,,,,,,,,,,,,,,,,,,,,,,,,,,,,,,,,,,,,,,,,,,,,,,,,,,,,,,,
,,,,,,605a0e721e341cf7eb75c28e,62c538f4270234594f182abb,2022-07-06_09h25.57.680,Colour_Asymmetry_Pilot,2022.1.3,Win32,59.24872615,62c50e9c1127f2cd403a315f,0,126,126,107,1,twofour,,,,,,,,,,,,,,,,,,,,,,,,,,,,,,,,,,,,,,,,,,,,,,,,,,,,,,,,,,,,,,,,,,,,,,,,,,,,,,,,,,,,,,,,,,,,,,,,,,,,,,,,,,,,,,,,,,,,,,,,,,,,,,,,,,,,,,,,,,,,,,,,,,,,,,,,,,,,,
,,,,,,605a0e721e341cf7eb75c28e,62c538f4270234594f182abb,2022-07-06_09h25.57.680,Colour_Asymmetry_Pilot,2022.1.3,Win32,59.24872615,62c50e9c1127f2cd403a315f,0,127,127,125,1,threefour,,,,,,,,,,,,,,,,,,,,,,,,,,,,,,,,,,,,,,,,,,,,,,,,,,,,,,,,,,,,,,,,,,,,,,,,,,,,,,,,,,,,,,,,,,,,,,,,,,,,,,,,,,,,,,,,,,,,,,,,,,,,,,,,,,,,,,,,,,,,,,,,,,,,,,,,,,,,,
,,,,,,605a0e721e341cf7eb75c28e,62c538f4270234594f182abb,2022-07-06_09h25.57.680,Colour_Asymmetry_Pilot,2022.1.3,Win32,59.24872615,62c50e9c1127f2cd403a315f,0,128,128,131,1,twofour,,,,,,,,,,,,,,,,,,,,,,,,,,,,,,,,,,,,,,,,,,,,,,,,,,,,,,,,,,,,,,,,,,,,,,,,,,,,,,,,,,,,,,,,,,,,,,,,,,,,,,,,,,,,,,,,,,,,,,,,,,,,,,,,,,,,,,,,,,,,,,,,,,,,,,,,,,,,,
,,,,,,605a0e721e341cf7eb75c28e,62c538f4270234594f182abb,2022-07-06_09h25.57.680,Colour_Asymmetry_Pilot,2022.1.3,Win32,59.24872615,62c50e9c1127f2cd403a315f,0,129,129,17,1,onethree,,,,,,,,,,,,,,,,,,,,,,,,,,,,,,,,,,,,,,,,,,,,,,,,,,,,,,,,,,,,,,,,,,,,,,,,,,,,,,,,,,,,,,,,,,,,,,,,,,,,,,,,,,,,,,,,,,,,,,,,,,,,,,,,,,,,,,,,,,,,,,,,,,,,,,,,,,,,,
,,,,,,605a0e721e341cf7eb75c28e,62c538f4270234594f182abb,2022-07-06_09h25.57.680,Colour_Asymmetry_Pilot,2022.1.3,Win32,59.24872615,62c50e9c1127f2cd403a315f,0,130,130,42,1,twoone,,,,,,,,,,,,,,,,,,,,,,,,,,,,,,,,,,,,,,,,,,,,,,,,,,,,,,,,,,,,,,,,,,,,,,,,,,,,,,,,,,,,,,,,,,,,,,,,,,,,,,,,,,,,,,,,,,,,,,,,,,,,,,,,,,,,,,,,,,,,,,,,,,,,,,,,,,,,,
,,,,,,605a0e721e341cf7eb75c28e,62c538f4270234594f182abb,2022-07-06_09h25.57.680,Colour_Asymmetry_Pilot,2022.1.3,Win32,59.24872615,62c50e9c1127f2cd403a315f,0,131,131,152,1,onetwo,,,,,,,,,,,,,,,,,,,,,,,,,,,,,,,,,,,,,,,,,,,,,,,,,,,,,,,,,,,,,,,,,,,,,,,,,,,,,,,,,,,,,,,,,,,,,,,,,,,,,,,,,,,,,,,,,,,,,,,,,,,,,,,,,,,,,,,,,,,,,,,,,,,,,,,,,,,,,
,,,,,,605a0e721e341cf7eb75c28e,62c538f4270234594f182abb,2022-07-06_09h25.57.680,Colour_Asymmetry_Pilot,2022.1.3,Win32,59.24872615,62c50e9c1127f2cd403a315f,0,132,132,61,1,threefour,,,,,,,,,,,,,,,,,,,,,,,,,,,,,,,,,,,,,,,,,,,,,,,,,,,,,,,,,,,,,,,,,,,,,,,,,,,,,,,,,,,,,,,,,,,,,,,,,,,,,,,,,,,,,,,,,,,,,,,,,,,,,,,,,,,,,,,,,,,,,,,,,,,,,,,,,,,,,
,,,,,,605a0e721e341cf7eb75c28e,62c538f4270234594f182abb,2022-07-06_09h25.57.680,Colour_Asymmetry_Pilot,2022.1.3,Win32,59.24872615,62c50e9c1127f2cd403a315f,0,133,133,126,1,fourtwo,,,,,,,,,,,,,,,,,,,,,,,,,,,,,,,,,,,,,,,,,,,,,,,,,,,,,,,,,,,,,,,,,,,,,,,,,,,,,,,,,,,,,,,,,,,,,,,,,,,,,,,,,,,,,,,,,,,,,,,,,,,,,,,,,,,,,,,,,,,,,,,,,,,,,,,,,,,,,
,,,,,,605a0e721e341cf7eb75c28e,62c538f4270234594f182abb,2022-07-06_09h25.57.680,Colour_Asymmetry_Pilot,2022.1.3,Win32,59.24872615,62c50e9c1127f2cd403a315f,0,134,134,36,1,threeone,,,,,,,,,,,,,,,,,,,,,,,,,,,,,,,,,,,,,,,,,,,,,,,,,,,,,,,,,,,,,,,,,,,,,,,,,,,,,,,,,,,,,,,,,,,,,,,,,,,,,,,,,,,,,,,,,,,,,,,,,,,,,,,,,,,,,,,,,,,,,,,,,,,,,,,,,,,,,
,,,,,,605a0e721e341cf7eb75c28e,62c538f4270234594f182abb,2022-07-06_09h25.57.680,Colour_Asymmetry_Pilot,2022.1.3,Win32,59.24872615,62c50e9c1127f2cd403a315f,0,135,135,38,1,fourtwo,,,,,,,,,,,,,,,,,,,,,,,,,,,,,,,,,,,,,,,,,,,,,,,,,,,,,,,,,,,,,,,,,,,,,,,,,,,,,,,,,,,,,,,,,,,,,,,,,,,,,,,,,,,,,,,,,,,,,,,,,,,,,,,,,,,,,,,,,,,,,,,,,,,,,,,,,,,,,
,,,,,,605a0e721e341cf7eb75c28e,62c538f4270234594f182abb,2022-07-06_09h25.57.680,Colour_Asymmetry_Pilot,2022.1.3,Win32,59.24872615,62c50e9c1127f2cd403a315f,0,136,136,77,1,threefour,,,,,,,,,,,,,,,,,,,,,,,,,,,,,,,,,,,,,,,,,,,,,,,,,,,,,,,,,,,,,,,,,,,,,,,,,,,,,,,,,,,,,,,,,,,,,,,,,,,,,,,,,,,,,,,,,,,,,,,,,,,,,,,,,,,,,,,,,,,,,,,,,,,,,,,,,,,,,
,,,,,,605a0e721e341cf7eb75c28e,62c538f4270234594f182abb,2022-07-06_09h25.57.680,Colour_Asymmetry_Pilot,2022.1.3,Win32,59.24872615,62c50e9c1127f2cd403a315f,0,137,137,43,1,twofour,,,,,,,,,,,,,,,,,,,,,,,,,,,,,,,,,,,,,,,,,,,,,,,,,,,,,,,,,,,,,,,,,,,,,,,,,,,,,,,,,,,,,,,,,,,,,,,,,,,,,,,,,,,,,,,,,,,,,,,,,,,,,,,,,,,,,,,,,,,,,,,,,,,,,,,,,,,,,
,,,,,,605a0e721e341cf7eb75c28e,62c538f4270234594f182abb,2022-07-06_09h25.57.680,Colour_Asymmetry_Pilot,2022.1.3,Win32,59.24872615,62c50e9c1127f2cd403a315f,0,138,138,112,1,onetwo,,,,,,,,,,,,,,,,,,,,,,,,,,,,,,,,,,,,,,,,,,,,,,,,,,,,,,,,,,,,,,,,,,,,,,,,,,,,,,,,,,,,,,,,,,,,,,,,,,,,,,,,,,,,,,,,,,,,,,,,,,,,,,,,,,,,,,,,,,,,,,,,,,,,,,,,,,,,,
,,,,,,605a0e721e341cf7eb75c28e,62c538f4270234594f182abb,2022-07-06_09h25.57.680,Colour_Asymmetry_Pilot,2022.1.3,Win32,59.24872615,62c50e9c1127f2cd403a315f,0,139,139,104,1,onetwo,,,,,,,,,,,,,,,,,,,,,,,,,,,,,,,,,,,,,,,,,,,,,,,,,,,,,,,,,,,,,,,,,,,,,,,,,,,,,,,,,,,,,,,,,,,,,,,,,,,,,,,,,,,,,,,,,,,,,,,,,,,,,,,,,,,,,,,,,,,,,,,,,,,,,,,,,,,,,
,,,,,,605a0e721e341cf7eb75c28e,62c538f4270234594f182abb,2022-07-06_09h25.57.680,Colour_Asymmetry_Pilot,2022.1.3,Win32,59.24872615,62c50e9c1127f2cd403a315f,0,140,140,72,1,onetwo,,,,,,,,,,,,,,,,,,,,,,,,,,,,,,,,,,,,,,,,,,,,,,,,,,,,,,,,,,,,,,,,,,,,,,,,,,,,,,,,,,,,,,,,,,,,,,,,,,,,,,,,,,,,,,,,,,,,,,,,,,,,,,,,,,,,,,,,,,,,,,,,,,,,,,,,,,,,,
,,,,,,605a0e721e341cf7eb75c28e,62c538f4270234594f182abb,2022-07-06_09h25.57.680,Colour_Asymmetry_Pilot,2022.1.3,Win32,59.24872615,62c50e9c1127f2cd403a315f,0,141,141,81,1,onethree,,,,,,,,,,,,,,,,,,,,,,,,,,,,,,,,,,,,,,,,,,,,,,,,,,,,,,,,,,,,,,,,,,,,,,,,,,,,,,,,,,,,,,,,,,,,,,,,,,,,,,,,,,,,,,,,,,,,,,,,,,,,,,,,,,,,,,,,,,,,,,,,,,,,,,,,,,,,,
,,,,,,605a0e721e341cf7eb75c28e,62c538f4270234594f182abb,2022-07-06_09h25.57.680,Colour_Asymmetry_Pilot,2022.1.3,Win32,59.24872615,62c50e9c1127f2cd403a315f,0,142,142,145,1,onethree,,,,,,,,,,,,,,,,,,,,,,,,,,,,,,,,,,,,,,,,,,,,,,,,,,,,,,,,,,,,,,,,,,,,,,,,,,,,,,,,,,,,,,,,,,,,,,,,,,,,,,,,,,,,,,,,,,,,,,,,,,,,,,,,,,,,,,,,,,,,,,,,,,,,,,,,,,,,,
,,,,,,605a0e721e341cf7eb75c28e,62c538f4270234594f182abb,2022-07-06_09h25.57.680,Colour_Asymmetry_Pilot,2022.1.3,Win32,59.24872615,62c50e9c1127f2cd403a315f,0,143,143,30,1,fourtwo,,,,,,,,,,,,,,,,,,,,,,,,,,,,,,,,,,,,,,,,,,,,,,,,,,,,,,,,,,,,,,,,,,,,,,,,,,,,,,,,,,,,,,,,,,,,,,,,,,,,,,,,,,,,,,,,,,,,,,,,,,,,,,,,,,,,,,,,,,,,,,,,,,,,,,,,,,,,,
,,,,,,605a0e721e341cf7eb75c28e,62c538f4270234594f182abb,2022-07-06_09h25.57.680,Colour_Asymmetry_Pilot,2022.1.3,Win32,59.24872615,62c50e9c1127f2cd403a315f,0,144,144,48,1,onetwo,,,,,,,,,,,,,,,,,,,,,,,,,,,,,,,,,,,,,,,,,,,,,,,,,,,,,,,,,,,,,,,,,,,,,,,,,,,,,,,,,,,,,,,,,,,,,,,,,,,,,,,,,,,,,,,,,,,,,,,,,,,,,,,,,,,,,,,,,,,,,,,,,,,,,,,,,,,,,
,,,,,,605a0e721e341cf7eb75c28e,62c538f4270234594f182abb,2022-07-06_09h25.57.680,Colour_Asymmetry_Pilot,2022.1.3,Win32,59.24872615,62c50e9c1127f2cd403a315f,0,145,145,151,1,fourthree,,,,,,,,,,,,,,,,,,,,,,,,,,,,,,,,,,,,,,,,,,,,,,,,,,,,,,,,,,,,,,,,,,,,,,,,,,,,,,,,,,,,,,,,,,,,,,,,,,,,,,,,,,,,,,,,,,,,,,,,,,,,,,,,,,,,,,,,,,,,,,,,,,,,,,,,,,,,,
,,,,,,605a0e721e341cf7eb75c28e,62c538f4270234594f182abb,2022-07-06_09h25.57.680,Colour_Asymmetry_Pilot,2022.1.3,Win32,59.24872615,62c50e9c1127f2cd403a315f,0,146,146,132,1,threeone,,,,,,,,,,,,,,,,,,,,,,,,,,,,,,,,,,,,,,,,,,,,,,,,,,,,,,,,,,,,,,,,,,,,,,,,,,,,,,,,,,,,,,,,,,,,,,,,,,,,,,,,,,,,,,,,,,,,,,,,,,,,,,,,,,,,,,,,,,,,,,,,,,,,,,,,,,,,,
,,,,,,605a0e721e341cf7eb75c28e,62c538f4270234594f182abb,2022-07-06_09h25.57.680,Colour_Asymmetry_Pilot,2022.1.3,Win32,59.24872615,62c50e9c1127f2cd403a315f,0,147,147,57,1,onethree,,,,,,,,,,,,,,,,,,,,,,,,,,,,,,,,,,,,,,,,,,,,,,,,,,,,,,,,,,,,,,,,,,,,,,,,,,,,,,,,,,,,,,,,,,,,,,,,,,,,,,,,,,,,,,,,,,,,,,,,,,,,,,,,,,,,,,,,,,,,,,,,,,,,,,,,,,,,,
,,,,,,605a0e721e341cf7eb75c28e,62c538f4270234594f182abb,2022-07-06_09h25.57.680,Colour_Asymmetry_Pilot,2022.1.3,Win32,59.24872615,62c50e9c1127f2cd403a315f,0,148,148,82,1,twoone,,,,,,,,,,,,,,,,,,,,,,,,,,,,,,,,,,,,,,,,,,,,,,,,,,,,,,,,,,,,,,,,,,,,,,,,,,,,,,,,,,,,,,,,,,,,,,,,,,,,,,,,,,,,,,,,,,,,,,,,,,,,,,,,,,,,,,,,,,,,,,,,,,,,,,,,,,,,,
,,,,,,605a0e721e341cf7eb75c28e,62c538f4270234594f182abb,2022-07-06_09h25.57.680,Colour_Asymmetry_Pilot,2022.1.3,Win32,59.24872615,62c50e9c1127f2cd403a315f,0,149,149,157,1,threefour,,,,,,,,,,,,,,,,,,,,,,,,,,,,,,,,,,,,,,,,,,,,,,,,,,,,,,,,,,,,,,,,,,,,,,,,,,,,,,,,,,,,,,,,,,,,,,,,,,,,,,,,,,,,,,,,,,,,,,,,,,,,,,,,,,,,,,,,,,,,,,,,,,,,,,,,,,,,,
,,,,,,605a0e721e341cf7eb75c28e,62c538f4270234594f182abb,2022-07-06_09h25.57.680,Colour_Asymmetry_Pilot,2022.1.3,Win32,59.24872615,62c50e9c1127f2cd403a315f,0,150,150,109,1,threefour,,,,,,,,,,,,,,,,,,,,,,,,,,,,,,,,,,,,,,,,,,,,,,,,,,,,,,,,,,,,,,,,,,,,,,,,,,,,,,,,,,,,,,,,,,,,,,,,,,,,,,,,,,,,,,,,,,,,,,,,,,,,,,,,,,,,,,,,,,,,,,,,,,,,,,,,,,,,,
,,,,,,605a0e721e341cf7eb75c28e,62c538f4270234594f182abb,2022-07-06_09h25.57.680,Colour_Asymmetry_Pilot,2022.1.3,Win32,59.24872615,62c50e9c1127f2cd403a315f,0,151,151,68,1,threeone,,,,,,,,,,,,,,,,,,,,,,,,,,,,,,,,,,,,,,,,,,,,,,,,,,,,,,,,,,,,,,,,,,,,,,,,,,,,,,,,,,,,,,,,,,,,,,,,,,,,,,,,,,,,,,,,,,,,,,,,,,,,,,,,,,,,,,,,,,,,,,,,,,,,,,,,,,,,,
,,,,,,605a0e721e341cf7eb75c28e,62c538f4270234594f182abb,2022-07-06_09h25.57.680,Colour_Asymmetry_Pilot,2022.1.3,Win32,59.24872615,62c50e9c1127f2cd403a315f,0,152,152,118,1,fourtwo,,,,,,,,,,,,,,,,,,,,,,,,,,,,,,,,,,,,,,,,,,,,,,,,,,,,,,,,,,,,,,,,,,,,,,,,,,,,,,,,,,,,,,,,,,,,,,,,,,,,,,,,,,,,,,,,,,,,,,,,,,,,,,,,,,,,,,,,,,,,,,,,,,,,,,,,,,,,,
,,,,,,605a0e721e341cf7eb75c28e,62c538f4270234594f182abb,2022-07-06_09h25.57.680,Colour_Asymmetry_Pilot,2022.1.3,Win32,59.24872615,62c50e9c1127f2cd403a315f,0,153,153,33,1,onethree,,,,,,,,,,,,,,,,,,,,,,,,,,,,,,,,,,,,,,,,,,,,,,,,,,,,,,,,,,,,,,,,,,,,,,,,,,,,,,,,,,,,,,,,,,,,,,,,,,,,,,,,,,,,,,,,,,,,,,,,,,,,,,,,,,,,,,,,,,,,,,,,,,,,,,,,,,,,,
,,,,,,605a0e721e341cf7eb75c28e,62c538f4270234594f182abb,2022-07-06_09h25.57.680,Colour_Asymmetry_Pilot,2022.1.3,Win32,59.24872615,62c50e9c1127f2cd403a315f,0,154,154,105,1,onethree,,,,,,,,,,,,,,,,,,,,,,,,,,,,,,,,,,,,,,,,,,,,,,,,,,,,,,,,,,,,,,,,,,,,,,,,,,,,,,,,,,,,,,,,,,,,,,,,,,,,,,,,,,,,,,,,,,,,,,,,,,,,,,,,,,,,,,,,,,,,,,,,,,,,,,,,,,,,,
,,,,,,605a0e721e341cf7eb75c28e,62c538f4270234594f182abb,2022-07-06_09h25.57.680,Colour_Asymmetry_Pilot,2022.1.3,Win32,59.24872615,62c50e9c1127f2cd403a315f,0,155,155,20,1,threeone,,,,,,,,,,,,,,,,,,,,,,,,,,,,,,,,,,,,,,,,,,,,,,,,,,,,,,,,,,,,,,,,,,,,,,,,,,,,,,,,,,,,,,,,,,,,,,,,,,,,,,,,,,,,,,,,,,,,,,,,,,,,,,,,,,,,,,,,,,,,,,,,,,,,,,,,,,,,,
,,,,,,605a0e721e341cf7eb75c28e,62c538f4270234594f182abb,2022-07-06_09h25.57.680,Colour_Asymmetry_Pilot,2022.1.3,Win32,59.24872615,62c50e9c1127f2cd403a315f,0,156,156,74,1,twoone,,,,,,,,,,,,,,,,,,,,,,,,,,,,,,,,,,,,,,,,,,,,,,,,,,,,,,,,,,,,,,,,,,,,,,,,,,,,,,,,,,,,,,,,,,,,,,,,,,,,,,,,,,,,,,,,,,,,,,,,,,,,,,,,,,,,,,,,,,,,,,,,,,,,,,,,,,,,,
,,,,,,605a0e721e341cf7eb75c28e,62c538f4270234594f182abb,2022-07-06_09h25.57.680,Colour_Asymmetry_Pilot,2022.1.3,Win32,59.24872615,62c50e9c1127f2cd403a315f,0,157,157,28,1,threeone,,,,,,,,,,,,,,,,,,,,,,,,,,,,,,,,,,,,,,,,,,,,,,,,,,,,,,,,,,,,,,,,,,,,,,,,,,,,,,,,,,,,,,,,,,,,,,,,,,,,,,,,,,,,,,,,,,,,,,,,,,,,,,,,,,,,,,,,,,,,,,,,,,,,,,,,,,,,,
,,,,,,605a0e721e341cf7eb75c28e,62c538f4270234594f182abb,2022-07-06_09h25.57.680,Colour_Asymmetry_Pilot,2022.1.3,Win32,59.24872615,62c50e9c1127f2cd403a315f,0,158,158,101,1,threefour,,,,,,,,,,,,,,,,,,,,,,,,,,,,,,,,,,,,,,,,,,,,,,,,,,,,,,,,,,,,,,,,,,,,,,,,,,,,,,,,,,,,,,,,,,,,,,,,,,,,,,,,,,,,,,,,,,,,,,,,,,,,,,,,,,,,,,,,,,,,,,,,,,,,,,,,,,,,,
,,,,,,605a0e721e341cf7eb75c28e,62c538f4270234594f182abb,2022-07-06_09h25.57.680,Colour_Asymmetry_Pilot,2022.1.3,Win32,59.24872615,62c50e9c1127f2cd403a315f,0,159,159,117,1,threefour,,,,,,,,,,,,,,,,,,,,,,,,,,,,,,,,,,,,,,,,,,,,,,,,,,,,,,,,,,,,,,,,,,,,,,,,,,,,,,,,,,,,,,,,,,,,,,,,,,,,,,,,,,,,,,,,,,,,,,,,,,,,,,,,,,,,,,,,,,,,,,,,,,,,,,,,,,,,,
,,,,,,605a0e721e341cf7eb75c28e,62c538f4270234594f182abb,2022-07-06_09h25.57.680,Colour_Asymmetry_Pilot,2022.1.3,Win32,59.24872615,62c50e9c1127f2cd403a315f,0,160,160,149,1,threefour,,,,,,,,,,,,,,,,,,,,,,,,,,,,,,,,,,,,,,,,,,,,,,,,,,,,,,,,,,,,,,,,,,,,,,,,,,,,,,,,,,,,,,,,,,,,,,,,,,,,,,,,,,,,,,,,,,,,,,,,,,,,,,,,,,,,,,,,,,,,,,,,,,,,,,,,,,,,,
,,,,,,605a0e721e341cf7eb75c28e,62c538f4270234594f182abb,2022-07-06_09h25.57.680,Colour_Asymmetry_Pilot,2022.1.3,Win32,59.24872615,62c50e9c1127f2cd403a315f,0,161,161,40,1,onetwo,,,,,,,,,,,,,,,,,,,,,,,,,,,,,,,,,,,,,,,,,,,,,,,,,,,,,,,,,,,,,,,,,,,,,,,,,,,,,,,,,,,,,,,,,,,,,,,,,,,,,,,,,,,,,,,,,,,,,,,,,,,,,,,,,,,,,,,,,,,,,,,,,,,,,,,,,,,,,
,,,,,,605a0e721e341cf7eb75c28e,62c538f4270234594f182abb,2022-07-06_09h25.57.680,Colour_Asymmetry_Pilot,2022.1.3,Win32,59.24872615,62c50e9c1127f2cd403a315f,,,,,,,space,2.3732,space,62.4494,space,32.3782,space,6.5268,space,23.4327,space,2.331,"[0.34099999999999997,0.5841999999999998,-0.9844]",threefour,"[-0.8198,-0.5138,-0.7492000000000001]",1,6.258,24,-83.33334351,1,0,0,response3disk_5,-3.333312988,4.666656494,1,0,0,rectangle_8,76,29.33331299,1,0,0,response1disk_7,6,3,2.666687012,-4,1,0,0,rectangle_4,0,0,0,0,1,,,,,,,,,,,,,,,,,,,,,,,,,,,,,,,,,,,,,,,,,,,,,,,,,,,,,,,,,,,,,,,,,,,,,,,,,,,,,,,,,,,,,,,,,,,,,,,,,,,,,,,,,,,,,
,,,,,,605a0e721e341cf7eb75c28e,62c538f4270234594f182abb,2022-07-06_09h25.57.680,Colour_Asymmetry_Pilot,2022.1.3,Win32,59.24872615,62c50e9c1127f2cd403a315f,,,,,,,,,,,,,,,,,,,"[-0.2942,-0.7648,-0.7492000000000001]",onethree,"[0.34099999999999997,0.12939999999999996,-0.9766]",1,4.7311,34.66668701,-87.33334351,1,0,0,response3disk_5,5.333374023,0.666656494,1,0,0,rectangle_8,5.333374023,0.666656494,1,0,0,,,3,5.333374023,0.666656494,1,0,0,,1,0,1,0,1,,,,,,,,,,,,,,,,,,,,,,,,,,,,,,,,,,,,,,,,,,,,,,,,,,,,,,,,,,,,,,,,,,,,,,,,,,,,,,,,,,,,,,,,,,,,,,,,,,,,,,,,,,,,,
,,,,,,605a0e721e341cf7eb75c28e,62c538f4270234594f182abb,2022-07-06_09h25.57.680,Colour_Asymmetry_Pilot,2022.1.3,Win32,59.24872615,62c50e9c1127f2cd403a315f,,,,,,,,,,,,,,,,,,,"[0.3802000000000001,0.19199999999999995,-0.6394]",fourtwo,"[-0.01980000000000004,-0.5138,-0.38039999999999996]",-1,1.3373,-28,-66.66668701,1,0,0,response5disk_5,-1.333312988,-2,1,0,0,rectangle_8,-1.333312988,-2,1,0,0,,,3,-1.333312988,-2,1,0,0,,2,0,2,0,1,,,,,,,,,,,,,,,,,,,,,,,,,,,,,,,,,,,,,,,,,,,,,,,,,,,,,,,,,,,,,,,,,,,,,,,,,,,,,,,,,,,,,,,,,,,,,,,,,,,,,,,,,,,,,
,,,,,,605a0e721e341cf7eb75c28e,62c538f4270234594f182abb,2022-07-06_09h25.57.680,Colour_Asymmetry_Pilot,2022.1.3,Win32,59.24872615,62c50e9c1127f2cd403a315f,,,,,,,,,,,,,,,,,,,"[0.22340000000000004,-0.9296,-0.7884]",onetwo,"[-0.8982,-0.37259999999999993,0.2784]",-4,1.3364,-28,54.66665649,1,0,0,response7disk_5,-6,2,1,0,0,rectangle_8,-6,2,1,0,0,,,3,-6,2,1,0,0,,3,0,3,0,1,,,,,,,,,,,,,,,,,,,,,,,,,,,,,,,,,,,,,,,,,,,,,,,,,,,,,,,,,,,,,,,,,,,,,,,,,,,,,,,,,,,,,,,,,,,,,,,,,,,,,,,,,,,,,
,,,,,,605a0e721e341cf7eb75c28e,62c538f4270234594f182abb,2022-07-06_09h25.57.680,Colour_Asymmetry_Pilot,2022.1.3,Win32,59.24872615,62c50e9c1127f2cd403a315f,,,,,,,,,,,,,,,,,,,"[0.34099999999999997,0.5841999999999998,-0.9844]",fourthree,"[1,0.12939999999999996,-1]",2,1.9709,46,-44,1,0,0,response3disk_5,-11.33331299,0,1,0,0,rectangle_8,88.66668701,32,1,0,0,response1disk_7,6,3,2.666687012,-2,1,0,0,rectangle_4,4,0,4,0,1,,,,,,,,,,,,,,,,,,,,,,,,,,,,,,,,,,,,,,,,,,,,,,,,,,,,,,,,,,,,,,,,,,,,,,,,,,,,,,,,,,,,,,,,,,,,,,,,,,,,,,,,,,,,,
,,,,,,605a0e721e341cf7eb75c28e,62c538f4270234594f182abb,2022-07-06_09h25.57.680,Colour_Asymmetry_Pilot,2022.1.3,Win32,59.24872615,62c50e9c1127f2cd403a315f,,,,,,,,,,,,,,,,,,,"[-0.4982,-0.2942,-0.0354000000000001]",fourthree,"[-0.48240000000000005,0.3175999999999999,0.2156]",3,1.2188,60,24.66665649,1,0,0,response1disk_5,-16,-9.333343506,1,0,0,rectangle_8,-16,-9.333343506,1,0,0,,,3,-16,-9.333343506,1,0,0,,5,0,5,0,1,,,,,,,,,,,,,,,,,,,,,,,,,,,,,,,,,,,,,,,,,,,,,,,,,,,,,,,,,,,,,,,,,,,,,,,,,,,,,,,,,,,,,,,,,,,,,,,,,,,,,,,,,,,,,
,,,,,,605a0e721e341cf7eb75c28e,62c538f4270234594f182abb,2022-07-06_09h25.57.680,Colour_Asymmetry_Pilot,2022.1.3,Win32,59.24872615,62c50e9c1127f2cd403a315f,,,,,,,,,,,,,,,,,,,"[0.34099999999999997,0.5841999999999998,-0.9844]",twoone,"[0.23920000000000008,0.2704,0.16060000000000008]",3,1.0368,75.33337402,36.66665649,1,0,0,response1disk_5,-2,-5.333343506,1,0,0,rectangle_8,-2,-5.333343506,1,0,0,,,3,-2,-5.333343506,1,0,0,,6,0,6,0,1,,,,,,,,,,,,,,,,,,,,,,,,,,,,,,,,,,,,,,,,,,,,,,,,,,,,,,,,,,,,,,,,,,,,,,,,,,,,,,,,,,,,,,,,,,,,,,,,,,,,,,,,,,,,,
,,,,,,605a0e721e341cf7eb75c28e,62c538f4270234594f182abb,2022-07-06_09h25.57.680,Colour_Asymmetry_Pilot,2022.1.3,Win32,59.24872615,62c50e9c1127f2cd403a315f,,,,,,,,,,,,,,,,,,,,twofour,,2,0.7914,,,,,,,,,,,,,,,,,,,,,,,,,,,,,,,,space,2.916,"[0.7018,0.7176,0.6155999999999999]","[0.34099999999999997,0.5841999999999998,-0.9844]",64.66668701,-33.33334351,1,0,0,response3disk,-13.33331299,-8.666687012,1,0,0,rectangle,-13.33331299,-8.666687012,1,0,0,,3,0.0022,0,-13.33331299,-8.666687012,1,0,0,0,0,0,116,1,35,second,,,,,,,,,,,,,,,,,,,,,,,,,,,,,,,,,,,,,,,,,,,,,,,,,,,,,,,,,,,,,,,,,,,,,,,,
,,,,,,605a0e721e341cf7eb75c28e,62c538f4270234594f182abb,2022-07-06_09h25.57.680,Colour_Asymmetry_Pilot,2022.1.3,Win32,59.24872615,62c50e9c1127f2cd403a315f,,,,,,,,,,,,,,,,,,,,twofour,,1,2.3706,,,,,,,,,,,,,,,,,,,,,,,,,,,,,,,,,,"[0.12939999999999996,-0.2864,0.3253999999999999]","[-0.30200000000000005,0.14500000000000002,0.2784]",30,-70.66668701,1,0,0,response3disk,-12,-5.333343506,1,0,0,rectangle,-12,-5.333343506,1,0,0,,1,0.0032,0,-12,-5.333343506,1,0,0,0,1,1,37,1,37,first,,,,,,,,,,,,,,,,,,,,,,,,,,,,,,,,,,,,,,,,,,,,,,,,,,,,,,,,,,,,,,,,,,,,,,,,
,,,,,,605a0e721e341cf7eb75c28e,62c538f4270234594f182abb,2022-07-06_09h25.57.680,Colour_Asymmetry_Pilot,2022.1.3,Win32,59.24872615,62c50e9c1127f2cd403a315f,,,,,,,,,,,,,,,,,,,,onetwo,,2,0.4861,,,,,,,,,,,,,,,,,,,,,,,,,,,,,,,,,,"[0.04299999999999993,0.16060000000000008,-0.6628000000000001]","[0.11359999999999992,0.6312,0.5213999999999999]",55.33337402,-36.66668701,1,0,0,response3disk,-16,-1.333343506,1,0,0,rectangle,-16,-1.333343506,1,0,0,,1,0.0003,0,-16,-1.333343506,1,0,0,0,2,2,81,1,0,second,,,,,,,,,,,,,,,,,,,,,,,,,,,,,,,,,,,,,,,,,,,,,,,,,,,,,,,,,,,,,,,,,,,,,,,,
,,,,,,605a0e721e341cf7eb75c28e,62c538f4270234594f182abb,2022-07-06_09h25.57.680,Colour_Asymmetry_Pilot,2022.1.3,Win32,59.24872615,62c50e9c1127f2cd403a315f,,,,,,,,,,,,,,,,,,,,fourthree,,2,1.1093,,,,,,,,,,,,,,,,,,,,,,,,,,,,,,,,,,"[-0.9688,-0.38039999999999996,-0.41979999999999995]","[-0.6235999999999999,-0.6786,-0.08239999999999992]",68.66668701,-35.33334351,1,0,0,response3disk,-2,-4.666687012,1,0,0,rectangle,-2,-4.666687012,1,0,0,,3,0.0012,0,-2,-4.666687012,1,0,0,0,3,3,71,1,71,first,,,,,,,,,,,,,,,,,,,,,,,,,,,,,,,,,,,,,,,,,,,,,,,,,,,,,,,,,,,,,,,,,,,,,,,,
,,,,,,605a0e721e341cf7eb75c28e,62c538f4270234594f182abb,2022-07-06_09h25.57.680,Colour_Asymmetry_Pilot,2022.1.3,Win32,59.24872615,62c50e9c1127f2cd403a315f,,,,,,,,,,,,,,,,,,,,fourtwo,,4,0.9868,,,,,,,,,,,,,,,,,,,,,,,,,,,,,,,,,,"[0.5449999999999999,-0.31000000000000005,-0.0354000000000001]","[0.40379999999999994,0.09000000000000008,0.44300000000000006]",40.66668701,64.66665649,1,0,0,response1disk,0,4.666656494,1,0,0,rectangle,0,4.666656494,1,0,0,,1,0.0015,0,0,4.666656494,1,0,0,0,4,4,48,1,48,first,,,,,,,,,,,,,,,,,,,,,,,,,,,,,,,,,,,,,,,,,,,,,,,,,,,,,,,,,,,,,,,,,,,,,,,,
,,,,,,605a0e721e341cf7eb75c28e,62c538f4270234594f182abb,2022-07-06_09h25.57.680,Colour_Asymmetry_Pilot,2022.1.3,Win32,59.24872615,62c50e9c1127f2cd403a315f,,,,,,,,,,,,,,,,,,,,fourthree,,2,0.5006,,,,,,,,,,,,,,,,,,,,,,,,,,,,,,,,,,"[0.37240000000000006,0.4980000000000002,-0.2864]","[0.9686000000000001,0.5763999999999998,0.11359999999999992]",70,-38,1,0,0,response3disk,12.66668701,1.333312988,1,0,0,rectangle,12.66668701,1.333312988,1,0,0,,2,0.0016,0,12.66668701,1.333312988,1,0,0,0,5,5,30,1,30,first,,,,,,,,,,,,,,,,,,,,,,,,,,,,,,,,,,,,,,,,,,,,,,,,,,,,,,,,,,,,,,,,,,,,,,,,
,,,,,,605a0e721e341cf7eb75c28e,62c538f4270234594f182abb,2022-07-06_09h25.57.680,Colour_Asymmetry_Pilot,2022.1.3,Win32,59.24872615,62c50e9c1127f2cd403a315f,,,,,,,,,,,,,,,,,,,,twoone,,3,0.487,,,,,,,,,,,,,,,,,,,,,,,,,,,,,,,,,,"[-0.4276,0.0038000000000000256,-0.3256]","[-0.07459999999999989,0.12139999999999995,-0.9922]",72,38,1,0,0,response1disk,-0.666625977,-1.333343506,1,0,0,rectangle,-0.666625977,-1.333343506,1,0,0,,1,0.002,0,-0.666625977,-1.333343506,1,0,0,0,6,6,24,1,24,first,,,,,,,,,,,,,,,,,,,,,,,,,,,,,,,,,,,,,,,,,,,,,,,,,,,,,,,,,,,,,,,,,,,,,,,,
,,,,,,605a0e721e341cf7eb75c28e,62c538f4270234594f182abb,2022-07-06_09h25.57.680,Colour_Asymmetry_Pilot,2022.1.3,Win32,59.24872615,62c50e9c1127f2cd403a315f,,,,,,,,,,,,,,,,,,,,onetwo,,4,0.4688,,,,,,,,,,,,,,,,,,,,,,,,,,,,,,,,,,"[0.4196,0.4665999999999999,0.3568]","[0.23920000000000008,0.2704,0.16060000000000008]",30,64.66665649,1,0,0,response1disk,-13.33331299,4,1,0,0,rectangle,-13.33331299,4,1,0,0,,3,0.0017,0,-13.33331299,4,1,0,0,0,7,7,156,1,75,second,,,,,,,,,,,,,,,,,,,,,,,,,,,,,,,,,,,,,,,,,,,,,,,,,,,,,,,,,,,,,,,,,,,,,,,,
,,,,,,605a0e721e341cf7eb75c28e,62c538f4270234594f182abb,2022-07-06_09h25.57.680,Colour_Asymmetry_Pilot,2022.1.3,Win32,59.24872615,62c50e9c1127f2cd403a315f,,,,,,,,,,,,,,,,,,,,threeone,,4,0.6189,,,,,,,,,,,,,,,,,,,,,,,,,,,,,,,,,,"[-0.07459999999999989,0.12139999999999995,-0.9922]","[-0.4276,0.0038000000000000256,-0.3256]",26.66668701,68,1,0,0,response1disk,-14.66662598,-2.666687012,1,0,0,rectangle,-14.66662598,-2.666687012,1,0,0,,3,0.0006,0,-14.66662598,-2.666687012,1,0,0,0,8,8,105,1,24,second,,,,,,,,,,,,,,,,,,,,,,,,,,,,,,,,,,,,,,,,,,,,,,,,,,,,,,,,,,,,,,,,,,,,,,,,
,,,,,,605a0e721e341cf7eb75c28e,62c538f4270234594f182abb,2022-07-06_09h25.57.680,Colour_Asymmetry_Pilot,2022.1.3,Win32,59.24872615,62c50e9c1127f2cd403a315f,,,,,,,,,,,,,,,,,,,,onetwo,,2,0.4189,,,,,,,,,,,,,,,,,,,,,,,,,,,,,,,,,,"[-0.45899999999999996,-0.3256,-0.9374]","[-0.48240000000000005,0.3175999999999999,0.2156]",59.33337402,-37.33334351,1,0,0,response3disk,12,8.666656494,1,0,0,rectangle,12,8.666656494,1,0,0,,2,0.0015,0,12,8.666656494,1,0,0,0,9,9,4,1,4,first,,,,,,,,,,,,,,,,,,,,,,,,,,,,,,,,,,,,,,,,,,,,,,,,,,,,,,,,,,,,,,,,,,,,,,,,
,,,,,,605a0e721e341cf7eb75c28e,62c538f4270234594f182abb,2022-07-06_09h25.57.680,Colour_Asymmetry_Pilot,2022.1.3,Win32,59.24872615,62c50e9c1127f2cd403a315f,,,,,,,,,,,,,,,,,,,,fourtwo,,1,0.4661,,,,,,,,,,,,,,,,,,,,,,,,,,,,,,,,,,"[-0.6706000000000001,-0.6157999999999999,-0.6786]","[-0.20799999999999996,-0.655,-0.01980000000000004]",32.66668701,-52.66668701,1,0,0,response3disk,9.333374023,-12.66668701,1,0,0,rectangle,9.333374023,-12.66668701,1,0,0,,1,0.0011,0,9.333374023,-12.66668701,1,0,0,0,10,10,38,1,38,first,,,,,,,,,,,,,,,,,,,,,,,,,,,,,,,,,,,,,,,,,,,,,,,,,,,,,,,,,,,,,,,,,,,,,,,,
,,,,,,605a0e721e341cf7eb75c28e,62c538f4270234594f182abb,2022-07-06_09h25.57.680,Colour_Asymmetry_Pilot,2022.1.3,Win32,59.24872615,62c50e9c1127f2cd403a315f,,,,,,,,,,,,,,,,,,,,onethree,,-1,0.7511,,,,,,,,,,,,,,,,,,,,,,,,,,,,,,,,,,"[-0.9766,-0.34920000000000007,0.2156]","[0.5528,0.7409999999999999,-0.71]",-30,-75.33334351,1,0,0,response5disk,-10,-7.333343506,1,0,0,rectangle,-10,-7.333343506,1,0,0,,2,0.0015,0,-10,-7.333343506,1,0,0,0,11,11,135,1,54,second,,,,,,,,,,,,,,,,,,,,,,,,,,,,,,,,,,,,,,,,,,,,,,,,,,,,,,,,,,,,,,,,,,,,,,,,
,,,,,,605a0e721e341cf7eb75c28e,62c538f4270234594f182abb,2022-07-06_09h25.57.680,Colour_Asymmetry_Pilot,2022.1.3,Win32,59.24872615,62c50e9c1127f2cd403a315f,,,,,,,,,,,,,,,,,,,,onethree,,-4,0.5182,,,,,,,,,,,,,,,,,,,,,,,,,,,,,,,,,,"[-0.17659999999999998,0.3253999999999999,0.19999999999999996]","[0.37240000000000006,-0.050999999999999934,-0.5216]",-59.33331299,105.333313,1,0,0,response7disk,6.666687012,7.333312988,1,0,0,rectangle,6.666687012,7.333312988,1,0,0,,2,0.0003,0,6.666687012,7.333312988,1,0,0,0,12,12,60,1,60,first,,,,,,,,,,,,,,,,,,,,,,,,,,,,,,,,,,,,,,,,,,,,,,,,,,,,,,,,,,,,,,,,,,,,,,,,
,,,,,,605a0e721e341cf7eb75c28e,62c538f4270234594f182abb,2022-07-06_09h25.57.680,Colour_Asymmetry_Pilot,2022.1.3,Win32,59.24872615,62c50e9c1127f2cd403a315f,,,,,,,,,,,,,,,,,,,,threeone,,-2,3.5469,,,,,,,,,,,,,,,,,,,,,,,,,,,,,,,,,,"[-0.20799999999999996,-0.655,-0.01980000000000004]","[-0.6706000000000001,-0.6157999999999999,-0.6786]",-70,-25.33334351,1,0,0,response5disk,12,8,1,0,0,rectangle,12,8,1,0,0,,3,0.0016,0,12,8,1,0,0,0,13,13,119,1,38,second,,,,,,,,,,,,,,,,,,,,,,,,,,,,,,,,,,,,,,,,,,,,,,,,,,,,,,,,,,,,,,,,,,,,,,,,
,,,,,,605a0e721e341cf7eb75c28e,62c538f4270234594f182abb,2022-07-06_09h25.57.680,Colour_Asymmetry_Pilot,2022.1.3,Win32,59.24872615,62c50e9c1127f2cd403a315f,,,,,,,,,,,,,,,,,,,,twofour,,1,0.3504,,,,,,,,,,,,,,,,,,,,,,,,,,,,,,,,,,"[0.7646000000000002,0.07440000000000002,0.2704]","[0.6625999999999999,0.4980000000000002,-0.357]",17.33337402,-80.66668701,1,0,0,response3disk,0,-4.666687012,1,0,0,rectangle,0,-4.666687012,1,0,0,,3,0.0006,0,0,-4.666687012,1,0,0,0,14,14,120,1,39,second,,,,,,,,,,,,,,,,,,,,,,,,,,,,,,,,,,,,,,,,,,,,,,,,,,,,,,,,,,,,,,,,,,,,,,,,
,,,,,,605a0e721e341cf7eb75c28e,62c538f4270234594f182abb,2022-07-06_09h25.57.680,Colour_Asymmetry_Pilot,2022.1.3,Win32,59.24872615,62c50e9c1127f2cd403a315f,,,,,,,,,,,,,,,,,,,,threefour,,-3,0.5539,,,,,,,,,,,,,,,,,,,,,,,,,,,,,,,,,,"[-0.5922000000000001,-0.7492000000000001,-0.5296000000000001]","[0.3568,-0.20799999999999996,-0.9844]",-77.33331299,19.33331299,1,0,0,response7disk,-20.66662598,-10,1,0,0,rectangle,-20.66662598,-10,1,0,0,,2,0.0051,0,-20.66662598,-10,1,0,0,0,15,15,94,1,13,second,,,,,,,,,,,,,,,,,,,,,,,,,,,,,,,,,,,,,,,,,,,,,,,,,,,,,,,,,,,,,,,,,,,,,,,,
