trials.thisRepN,trials.thisTrialN,trials.thisN,trials.thisIndex,trials.ran,Colourcodes,participant,session,date,expName,psychopyVersion,OS,frameRate,study_id,trials_4.thisRepN,trials_4.thisTrialN,trials_4.thisN,trials_4.thisIndex,trials_4.ran,StimulusPos,key_resp.keys,key_resp.rt,key_resp_2.keys,key_resp_2.rt,key_resp_15.keys,key_resp_15.rt,key_resp_17.keys,key_resp_17.rt,key_resp_9.keys,key_resp_9.rt,key_resp_10.keys,key_resp_10.rt,Circle1_col,Ecc,Circle2_col,similarity,response_time,mouse_5.x,mouse_5.y,mouse_5.leftButton,mouse_5.midButton,mouse_5.rightButton,mouse_5.clicked_name,mouse_10.x,mouse_10.y,mouse_10.leftButton,mouse_10.midButton,mouse_10.rightButton,mouse_10.clicked_name,mouse_7.x,mouse_7.y,mouse_7.leftButton,mouse_7.midButton,mouse_7.rightButton,mouse_7.clicked_name,catchprac,catchnumberprac,mouse_6.x,mouse_6.y,mouse_6.leftButton,mouse_6.midButton,mouse_6.rightButton,mouse_6.clicked_name,duringprac.thisRepN,duringprac.thisTrialN,duringprac.thisN,duringprac.thisIndex,duringprac.ran,key_resp_22.keys,key_resp_22.rt,Circle1_colour,Circle2_colour,mouse.x,mouse.y,mouse.leftButton,mouse.midButton,mouse.rightButton,mouse.clicked_name,mouse_2.x,mouse_2.y,mouse_2.leftButton,mouse_2.midButton,mouse_2.rightButton,mouse_2.clicked_name,mouse_3.x,mouse_3.y,mouse_3.leftButton,mouse_3.midButton,mouse_3.rightButton,catchresponse,catchnumber,response_time_catch,Catch,mouse_11.x,mouse_11.y,mouse_11.leftButton,mouse_11.midButton,mouse_11.rightButton,trials_2.thisRepN,trials_2.thisTrialN,trials_2.thisN,trials_2.thisIndex,trials_2.ran,Colourpair,Temporder,mouse_3.clicked_name,mouse_11.clicked_name,trials_3.thisRepN,trials_3.thisTrialN,trials_3.thisN,trials_3.thisIndex,trials_3.ran,key_resp_instr_Ishi.keys,key_resp_instr_Ishi.rt,Ishi_trial_keyresp.keys,Ishi_textbox.text,Ishi_mouse.x,Ishi_mouse.y,Ishi_mouse.leftButton,Ishi_mouse.midButton,Ishi_mouse.rightButton,Ishi_mouse.clicked_name,Ishi_loop.thisRepN,Ishi_loop.thisTrialN,Ishi_loop.thisN,Ishi_loop.thisIndex,Ishi_loop.ran,imageaddress,textbox.text,mouse_4.x,mouse_4.y,mouse_4.leftButton,mouse_4.midButton,mouse_4.rightButton,mouse_4.clicked_name,textbox_2.text,mouse_8.x,mouse_8.y,mouse_8.leftButton,mouse_8.midButton,mouse_8.rightButton,mouse_8.clicked_name,textbox_3.text,mouse_9.x,mouse_9.y,mouse_9.leftButton,mouse_9.midButton,mouse_9.rightButton,mouse_9.clicked_name,textbox_4.text,mouse_12.x,mouse_12.y,mouse_12.leftButton,mouse_12.midButton,mouse_12.rightButton,mouse_12.clicked_name,textbox_5.text,mouse_13.x,mouse_13.y,mouse_13.leftButton,mouse_13.midButton,mouse_13.rightButton,mouse_13.clicked_name,textbox_6.text,mouse_14.x,mouse_14.y,mouse_14.leftButton,mouse_14.midButton,mouse_14.rightButton,mouse_14.clicked_name,textbox_7.text,mouse_15.x,mouse_15.y,mouse_15.leftButton,mouse_15.midButton,mouse_15.rightButton,mouse_15.clicked_name
0,0,0,83,1,,5f10d13957b4763f401690e5,62c53b5f12f839c363f3eecd,2022-07-06_09h38.09.788,Colour_Asymmetry_Pilot,2022.1.3,Win32,59.84082341,62c50e9c1127f2cd403a315f,,,,,,,,,,,,,,,,,,,,,,,,,,,,,,,,,,,,,,,,,,,,,,,,,,,,,,,,,,,,,,,,,,,,,,,,,,,,,,,,,,,,,,,,,,,,,,,,,,,,,,,,,,,,,,,,,,,,,,,,,,,,,,,,,,,,,,,,,,,,,,,,,,,,,,,,,,,,,,,,,,,
0,1,1,66,1,,5f10d13957b4763f401690e5,62c53b5f12f839c363f3eecd,2022-07-06_09h38.09.788,Colour_Asymmetry_Pilot,2022.1.3,Win32,59.84082341,62c50e9c1127f2cd403a315f,,,,,,,,,,,,,,,,,,,,,,,,,,,,,,,,,,,,,,,,,,,,,,,,,,,,,,,,,,,,,,,,,,,,,,,,,,,,,,,,,,,,,,,,,,,,,,,,,,,,,,,,,,,,,,,,,,,,,,,,,,,,,,,,,,,,,,,,,,,,,,,,,,,,,,,,,,,,,,,,,,,
0,2,2,57,1,,5f10d13957b4763f401690e5,62c53b5f12f839c363f3eecd,2022-07-06_09h38.09.788,Colour_Asymmetry_Pilot,2022.1.3,Win32,59.84082341,62c50e9c1127f2cd403a315f,,,,,,,,,,,,,,,,,,,,,,,,,,,,,,,,,,,,,,,,,,,,,,,,,,,,,,,,,,,,,,,,,,,,,,,,,,,,,,,,,,,,,,,,,,,,,,,,,,,,,,,,,,,,,,,,,,,,,,,,,,,,,,,,,,,,,,,,,,,,,,,,,,,,,,,,,,,,,,,,,,,
0,3,3,23,1,,5f10d13957b4763f401690e5,62c53b5f12f839c363f3eecd,2022-07-06_09h38.09.788,Colour_Asymmetry_Pilot,2022.1.3,Win32,59.84082341,62c50e9c1127f2cd403a315f,,,,,,,,,,,,,,,,,,,,,,,,,,,,,,,,,,,,,,,,,,,,,,,,,,,,,,,,,,,,,,,,,,,,,,,,,,,,,,,,,,,,,,,,,,,,,,,,,,,,,,,,,,,,,,,,,,,,,,,,,,,,,,,,,,,,,,,,,,,,,,,,,,,,,,,,,,,,,,,,,,,
0,4,4,9,1,,5f10d13957b4763f401690e5,62c53b5f12f839c363f3eecd,2022-07-06_09h38.09.788,Colour_Asymmetry_Pilot,2022.1.3,Win32,59.84082341,62c50e9c1127f2cd403a315f,,,,,,,,,,,,,,,,,,,,,,,,,,,,,,,,,,,,,,,,,,,,,,,,,,,,,,,,,,,,,,,,,,,,,,,,,,,,,,,,,,,,,,,,,,,,,,,,,,,,,,,,,,,,,,,,,,,,,,,,,,,,,,,,,,,,,,,,,,,,,,,,,,,,,,,,,,,,,,,,,,,
0,5,5,37,1,,5f10d13957b4763f401690e5,62c53b5f12f839c363f3eecd,2022-07-06_09h38.09.788,Colour_Asymmetry_Pilot,2022.1.3,Win32,59.84082341,62c50e9c1127f2cd403a315f,,,,,,,,,,,,,,,,,,,,,,,,,,,,,,,,,,,,,,,,,,,,,,,,,,,,,,,,,,,,,,,,,,,,,,,,,,,,,,,,,,,,,,,,,,,,,,,,,,,,,,,,,,,,,,,,,,,,,,,,,,,,,,,,,,,,,,,,,,,,,,,,,,,,,,,,,,,,,,,,,,,
0,6,6,22,1,,5f10d13957b4763f401690e5,62c53b5f12f839c363f3eecd,2022-07-06_09h38.09.788,Colour_Asymmetry_Pilot,2022.1.3,Win32,59.84082341,62c50e9c1127f2cd403a315f,,,,,,,,,,,,,,,,,,,,,,,,,,,,,,,,,,,,,,,,,,,,,,,,,,,,,,,,,,,,,,,,,,,,,,,,,,,,,,,,,,,,,,,,,,,,,,,,,,,,,,,,,,,,,,,,,,,,,,,,,,,,,,,,,,,,,,,,,,,,,,,,,,,,,,,,,,,,,,,,,,,
0,7,7,30,1,,5f10d13957b4763f401690e5,62c53b5f12f839c363f3eecd,2022-07-06_09h38.09.788,Colour_Asymmetry_Pilot,2022.1.3,Win32,59.84082341,62c50e9c1127f2cd403a315f,,,,,,,,,,,,,,,,,,,,,,,,,,,,,,,,,,,,,,,,,,,,,,,,,,,,,,,,,,,,,,,,,,,,,,,,,,,,,,,,,,,,,,,,,,,,,,,,,,,,,,,,,,,,,,,,,,,,,,,,,,,,,,,,,,,,,,,,,,,,,,,,,,,,,,,,,,,,,,,,,,,
0,8,8,59,1,,5f10d13957b4763f401690e5,62c53b5f12f839c363f3eecd,2022-07-06_09h38.09.788,Colour_Asymmetry_Pilot,2022.1.3,Win32,59.84082341,62c50e9c1127f2cd403a315f,,,,,,,,,,,,,,,,,,,,,,,,,,,,,,,,,,,,,,,,,,,,,,,,,,,,,,,,,,,,,,,,,,,,,,,,,,,,,,,,,,,,,,,,,,,,,,,,,,,,,,,,,,,,,,,,,,,,,,,,,,,,,,,,,,,,,,,,,,,,,,,,,,,,,,,,,,,,,,,,,,,
0,9,9,63,1,,5f10d13957b4763f401690e5,62c53b5f12f839c363f3eecd,2022-07-06_09h38.09.788,Colour_Asymmetry_Pilot,2022.1.3,Win32,59.84082341,62c50e9c1127f2cd403a315f,,,,,,,,,,,,,,,,,,,,,,,,,,,,,,,,,,,,,,,,,,,,,,,,,,,,,,,,,,,,,,,,,,,,,,,,,,,,,,,,,,,,,,,,,,,,,,,,,,,,,,,,,,,,,,,,,,,,,,,,,,,,,,,,,,,,,,,,,,,,,,,,,,,,,,,,,,,,,,,,,,,
0,10,10,15,1,,5f10d13957b4763f401690e5,62c53b5f12f839c363f3eecd,2022-07-06_09h38.09.788,Colour_Asymmetry_Pilot,2022.1.3,Win32,59.84082341,62c50e9c1127f2cd403a315f,,,,,,,,,,,,,,,,,,,,,,,,,,,,,,,,,,,,,,,,,,,,,,,,,,,,,,,,,,,,,,,,,,,,,,,,,,,,,,,,,,,,,,,,,,,,,,,,,,,,,,,,,,,,,,,,,,,,,,,,,,,,,,,,,,,,,,,,,,,,,,,,,,,,,,,,,,,,,,,,,,,
0,11,11,64,1,,5f10d13957b4763f401690e5,62c53b5f12f839c363f3eecd,2022-07-06_09h38.09.788,Colour_Asymmetry_Pilot,2022.1.3,Win32,59.84082341,62c50e9c1127f2cd403a315f,,,,,,,,,,,,,,,,,,,,,,,,,,,,,,,,,,,,,,,,,,,,,,,,,,,,,,,,,,,,,,,,,,,,,,,,,,,,,,,,,,,,,,,,,,,,,,,,,,,,,,,,,,,,,,,,,,,,,,,,,,,,,,,,,,,,,,,,,,,,,,,,,,,,,,,,,,,,,,,,,,,
0,12,12,78,1,,5f10d13957b4763f401690e5,62c53b5f12f839c363f3eecd,2022-07-06_09h38.09.788,Colour_Asymmetry_Pilot,2022.1.3,Win32,59.84082341,62c50e9c1127f2cd403a315f,,,,,,,,,,,,,,,,,,,,,,,,,,,,,,,,,,,,,,,,,,,,,,,,,,,,,,,,,,,,,,,,,,,,,,,,,,,,,,,,,,,,,,,,,,,,,,,,,,,,,,,,,,,,,,,,,,,,,,,,,,,,,,,,,,,,,,,,,,,,,,,,,,,,,,,,,,,,,,,,,,,
0,13,13,82,1,,5f10d13957b4763f401690e5,62c53b5f12f839c363f3eecd,2022-07-06_09h38.09.788,Colour_Asymmetry_Pilot,2022.1.3,Win32,59.84082341,62c50e9c1127f2cd403a315f,,,,,,,,,,,,,,,,,,,,,,,,,,,,,,,,,,,,,,,,,,,,,,,,,,,,,,,,,,,,,,,,,,,,,,,,,,,,,,,,,,,,,,,,,,,,,,,,,,,,,,,,,,,,,,,,,,,,,,,,,,,,,,,,,,,,,,,,,,,,,,,,,,,,,,,,,,,,,,,,,,,
0,14,14,8,1,,5f10d13957b4763f401690e5,62c53b5f12f839c363f3eecd,2022-07-06_09h38.09.788,Colour_Asymmetry_Pilot,2022.1.3,Win32,59.84082341,62c50e9c1127f2cd403a315f,,,,,,,,,,,,,,,,,,,,,,,,,,,,,,,,,,,,,,,,,,,,,,,,,,,,,,,,,,,,,,,,,,,,,,,,,,,,,,,,,,,,,,,,,,,,,,,,,,,,,,,,,,,,,,,,,,,,,,,,,,,,,,,,,,,,,,,,,,,,,,,,,,,,,,,,,,,,,,,,,,,
0,15,15,75,1,,5f10d13957b4763f401690e5,62c53b5f12f839c363f3eecd,2022-07-06_09h38.09.788,Colour_Asymmetry_Pilot,2022.1.3,Win32,59.84082341,62c50e9c1127f2cd403a315f,,,,,,,,,,,,,,,,,,,,,,,,,,,,,,,,,,,,,,,,,,,,,,,,,,,,,,,,,,,,,,,,,,,,,,,,,,,,,,,,,,,,,,,,,,,,,,,,,,,,,,,,,,,,,,,,,,,,,,,,,,,,,,,,,,,,,,,,,,,,,,,,,,,,,,,,,,,,,,,,,,,
0,16,16,2,1,,5f10d13957b4763f401690e5,62c53b5f12f839c363f3eecd,2022-07-06_09h38.09.788,Colour_Asymmetry_Pilot,2022.1.3,Win32,59.84082341,62c50e9c1127f2cd403a315f,,,,,,,,,,,,,,,,,,,,,,,,,,,,,,,,,,,,,,,,,,,,,,,,,,,,,,,,,,,,,,,,,,,,,,,,,,,,,,,,,,,,,,,,,,,,,,,,,,,,,,,,,,,,,,,,,,,,,,,,,,,,,,,,,,,,,,,,,,,,,,,,,,,,,,,,,,,,,,,,,,,
0,17,17,90,1,,5f10d13957b4763f401690e5,62c53b5f12f839c363f3eecd,2022-07-06_09h38.09.788,Colour_Asymmetry_Pilot,2022.1.3,Win32,59.84082341,62c50e9c1127f2cd403a315f,,,,,,,,,,,,,,,,,,,,,,,,,,,,,,,,,,,,,,,,,,,,,,,,,,,,,,,,,,,,,,,,,,,,,,,,,,,,,,,,,,,,,,,,,,,,,,,,,,,,,,,,,,,,,,,,,,,,,,,,,,,,,,,,,,,,,,,,,,,,,,,,,,,,,,,,,,,,,,,,,,,
0,18,18,13,1,,5f10d13957b4763f401690e5,62c53b5f12f839c363f3eecd,2022-07-06_09h38.09.788,Colour_Asymmetry_Pilot,2022.1.3,Win32,59.84082341,62c50e9c1127f2cd403a315f,,,,,,,,,,,,,,,,,,,,,,,,,,,,,,,,,,,,,,,,,,,,,,,,,,,,,,,,,,,,,,,,,,,,,,,,,,,,,,,,,,,,,,,,,,,,,,,,,,,,,,,,,,,,,,,,,,,,,,,,,,,,,,,,,,,,,,,,,,,,,,,,,,,,,,,,,,,,,,,,,,,
0,19,19,28,1,,5f10d13957b4763f401690e5,62c53b5f12f839c363f3eecd,2022-07-06_09h38.09.788,Colour_Asymmetry_Pilot,2022.1.3,Win32,59.84082341,62c50e9c1127f2cd403a315f,,,,,,,,,,,,,,,,,,,,,,,,,,,,,,,,,,,,,,,,,,,,,,,,,,,,,,,,,,,,,,,,,,,,,,,,,,,,,,,,,,,,,,,,,,,,,,,,,,,,,,,,,,,,,,,,,,,,,,,,,,,,,,,,,,,,,,,,,,,,,,,,,,,,,,,,,,,,,,,,,,,
0,20,20,3,1,,5f10d13957b4763f401690e5,62c53b5f12f839c363f3eecd,2022-07-06_09h38.09.788,Colour_Asymmetry_Pilot,2022.1.3,Win32,59.84082341,62c50e9c1127f2cd403a315f,,,,,,,,,,,,,,,,,,,,,,,,,,,,,,,,,,,,,,,,,,,,,,,,,,,,,,,,,,,,,,,,,,,,,,,,,,,,,,,,,,,,,,,,,,,,,,,,,,,,,,,,,,,,,,,,,,,,,,,,,,,,,,,,,,,,,,,,,,,,,,,,,,,,,,,,,,,,,,,,,,,
0,21,21,48,1,,5f10d13957b4763f401690e5,62c53b5f12f839c363f3eecd,2022-07-06_09h38.09.788,Colour_Asymmetry_Pilot,2022.1.3,Win32,59.84082341,62c50e9c1127f2cd403a315f,,,,,,,,,,,,,,,,,,,,,,,,,,,,,,,,,,,,,,,,,,,,,,,,,,,,,,,,,,,,,,,,,,,,,,,,,,,,,,,,,,,,,,,,,,,,,,,,,,,,,,,,,,,,,,,,,,,,,,,,,,,,,,,,,,,,,,,,,,,,,,,,,,,,,,,,,,,,,,,,,,,
0,22,22,33,1,,5f10d13957b4763f401690e5,62c53b5f12f839c363f3eecd,2022-07-06_09h38.09.788,Colour_Asymmetry_Pilot,2022.1.3,Win32,59.84082341,62c50e9c1127f2cd403a315f,,,,,,,,,,,,,,,,,,,,,,,,,,,,,,,,,,,,,,,,,,,,,,,,,,,,,,,,,,,,,,,,,,,,,,,,,,,,,,,,,,,,,,,,,,,,,,,,,,,,,,,,,,,,,,,,,,,,,,,,,,,,,,,,,,,,,,,,,,,,,,,,,,,,,,,,,,,,,,,,,,,
0,23,23,58,1,,5f10d13957b4763f401690e5,62c53b5f12f839c363f3eecd,2022-07-06_09h38.09.788,Colour_Asymmetry_Pilot,2022.1.3,Win32,59.84082341,62c50e9c1127f2cd403a315f,,,,,,,,,,,,,,,,,,,,,,,,,,,,,,,,,,,,,,,,,,,,,,,,,,,,,,,,,,,,,,,,,,,,,,,,,,,,,,,,,,,,,,,,,,,,,,,,,,,,,,,,,,,,,,,,,,,,,,,,,,,,,,,,,,,,,,,,,,,,,,,,,,,,,,,,,,,,,,,,,,,
0,24,24,89,1,,5f10d13957b4763f401690e5,62c53b5f12f839c363f3eecd,2022-07-06_09h38.09.788,Colour_Asymmetry_Pilot,2022.1.3,Win32,59.84082341,62c50e9c1127f2cd403a315f,,,,,,,,,,,,,,,,,,,,,,,,,,,,,,,,,,,,,,,,,,,,,,,,,,,,,,,,,,,,,,,,,,,,,,,,,,,,,,,,,,,,,,,,,,,,,,,,,,,,,,,,,,,,,,,,,,,,,,,,,,,,,,,,,,,,,,,,,,,,,,,,,,,,,,,,,,,,,,,,,,,
0,25,25,51,1,,5f10d13957b4763f401690e5,62c53b5f12f839c363f3eecd,2022-07-06_09h38.09.788,Colour_Asymmetry_Pilot,2022.1.3,Win32,59.84082341,62c50e9c1127f2cd403a315f,,,,,,,,,,,,,,,,,,,,,,,,,,,,,,,,,,,,,,,,,,,,,,,,,,,,,,,,,,,,,,,,,,,,,,,,,,,,,,,,,,,,,,,,,,,,,,,,,,,,,,,,,,,,,,,,,,,,,,,,,,,,,,,,,,,,,,,,,,,,,,,,,,,,,,,,,,,,,,,,,,,
0,26,26,76,1,,5f10d13957b4763f401690e5,62c53b5f12f839c363f3eecd,2022-07-06_09h38.09.788,Colour_Asymmetry_Pilot,2022.1.3,Win32,59.84082341,62c50e9c1127f2cd403a315f,,,,,,,,,,,,,,,,,,,,,,,,,,,,,,,,,,,,,,,,,,,,,,,,,,,,,,,,,,,,,,,,,,,,,,,,,,,,,,,,,,,,,,,,,,,,,,,,,,,,,,,,,,,,,,,,,,,,,,,,,,,,,,,,,,,,,,,,,,,,,,,,,,,,,,,,,,,,,,,,,,,
0,27,27,32,1,,5f10d13957b4763f401690e5,62c53b5f12f839c363f3eecd,2022-07-06_09h38.09.788,Colour_Asymmetry_Pilot,2022.1.3,Win32,59.84082341,62c50e9c1127f2cd403a315f,,,,,,,,,,,,,,,,,,,,,,,,,,,,,,,,,,,,,,,,,,,,,,,,,,,,,,,,,,,,,,,,,,,,,,,,,,,,,,,,,,,,,,,,,,,,,,,,,,,,,,,,,,,,,,,,,,,,,,,,,,,,,,,,,,,,,,,,,,,,,,,,,,,,,,,,,,,,,,,,,,,
0,28,28,74,1,,5f10d13957b4763f401690e5,62c53b5f12f839c363f3eecd,2022-07-06_09h38.09.788,Colour_Asymmetry_Pilot,2022.1.3,Win32,59.84082341,62c50e9c1127f2cd403a315f,,,,,,,,,,,,,,,,,,,,,,,,,,,,,,,,,,,,,,,,,,,,,,,,,,,,,,,,,,,,,,,,,,,,,,,,,,,,,,,,,,,,,,,,,,,,,,,,,,,,,,,,,,,,,,,,,,,,,,,,,,,,,,,,,,,,,,,,,,,,,,,,,,,,,,,,,,,,,,,,,,,
0,29,29,65,1,,5f10d13957b4763f401690e5,62c53b5f12f839c363f3eecd,2022-07-06_09h38.09.788,Colour_Asymmetry_Pilot,2022.1.3,Win32,59.84082341,62c50e9c1127f2cd403a315f,,,,,,,,,,,,,,,,,,,,,,,,,,,,,,,,,,,,,,,,,,,,,,,,,,,,,,,,,,,,,,,,,,,,,,,,,,,,,,,,,,,,,,,,,,,,,,,,,,,,,,,,,,,,,,,,,,,,,,,,,,,,,,,,,,,,,,,,,,,,,,,,,,,,,,,,,,,,,,,,,,,
0,30,30,16,1,,5f10d13957b4763f401690e5,62c53b5f12f839c363f3eecd,2022-07-06_09h38.09.788,Colour_Asymmetry_Pilot,2022.1.3,Win32,59.84082341,62c50e9c1127f2cd403a315f,,,,,,,,,,,,,,,,,,,,,,,,,,,,,,,,,,,,,,,,,,,,,,,,,,,,,,,,,,,,,,,,,,,,,,,,,,,,,,,,,,,,,,,,,,,,,,,,,,,,,,,,,,,,,,,,,,,,,,,,,,,,,,,,,,,,,,,,,,,,,,,,,,,,,,,,,,,,,,,,,,,
0,31,31,92,1,,5f10d13957b4763f401690e5,62c53b5f12f839c363f3eecd,2022-07-06_09h38.09.788,Colour_Asymmetry_Pilot,2022.1.3,Win32,59.84082341,62c50e9c1127f2cd403a315f,,,,,,,,,,,,,,,,,,,,,,,,,,,,,,,,,,,,,,,,,,,,,,,,,,,,,,,,,,,,,,,,,,,,,,,,,,,,,,,,,,,,,,,,,,,,,,,,,,,,,,,,,,,,,,,,,,,,,,,,,,,,,,,,,,,,,,,,,,,,,,,,,,,,,,,,,,,,,,,,,,,
0,32,32,68,1,,5f10d13957b4763f401690e5,62c53b5f12f839c363f3eecd,2022-07-06_09h38.09.788,Colour_Asymmetry_Pilot,2022.1.3,Win32,59.84082341,62c50e9c1127f2cd403a315f,,,,,,,,,,,,,,,,,,,,,,,,,,,,,,,,,,,,,,,,,,,,,,,,,,,,,,,,,,,,,,,,,,,,,,,,,,,,,,,,,,,,,,,,,,,,,,,,,,,,,,,,,,,,,,,,,,,,,,,,,,,,,,,,,,,,,,,,,,,,,,,,,,,,,,,,,,,,,,,,,,,
0,33,33,20,1,,5f10d13957b4763f401690e5,62c53b5f12f839c363f3eecd,2022-07-06_09h38.09.788,Colour_Asymmetry_Pilot,2022.1.3,Win32,59.84082341,62c50e9c1127f2cd403a315f,,,,,,,,,,,,,,,,,,,,,,,,,,,,,,,,,,,,,,,,,,,,,,,,,,,,,,,,,,,,,,,,,,,,,,,,,,,,,,,,,,,,,,,,,,,,,,,,,,,,,,,,,,,,,,,,,,,,,,,,,,,,,,,,,,,,,,,,,,,,,,,,,,,,,,,,,,,,,,,,,,,
0,34,34,61,1,,5f10d13957b4763f401690e5,62c53b5f12f839c363f3eecd,2022-07-06_09h38.09.788,Colour_Asymmetry_Pilot,2022.1.3,Win32,59.84082341,62c50e9c1127f2cd403a315f,,,,,,,,,,,,,,,,,,,,,,,,,,,,,,,,,,,,,,,,,,,,,,,,,,,,,,,,,,,,,,,,,,,,,,,,,,,,,,,,,,,,,,,,,,,,,,,,,,,,,,,,,,,,,,,,,,,,,,,,,,,,,,,,,,,,,,,,,,,,,,,,,,,,,,,,,,,,,,,,,,,
0,35,35,79,1,,5f10d13957b4763f401690e5,62c53b5f12f839c363f3eecd,2022-07-06_09h38.09.788,Colour_Asymmetry_Pilot,2022.1.3,Win32,59.84082341,62c50e9c1127f2cd403a315f,,,,,,,,,,,,,,,,,,,,,,,,,,,,,,,,,,,,,,,,,,,,,,,,,,,,,,,,,,,,,,,,,,,,,,,,,,,,,,,,,,,,,,,,,,,,,,,,,,,,,,,,,,,,,,,,,,,,,,,,,,,,,,,,,,,,,,,,,,,,,,,,,,,,,,,,,,,,,,,,,,,
0,36,36,31,1,,5f10d13957b4763f401690e5,62c53b5f12f839c363f3eecd,2022-07-06_09h38.09.788,Colour_Asymmetry_Pilot,2022.1.3,Win32,59.84082341,62c50e9c1127f2cd403a315f,,,,,,,,,,,,,,,,,,,,,,,,,,,,,,,,,,,,,,,,,,,,,,,,,,,,,,,,,,,,,,,,,,,,,,,,,,,,,,,,,,,,,,,,,,,,,,,,,,,,,,,,,,,,,,,,,,,,,,,,,,,,,,,,,,,,,,,,,,,,,,,,,,,,,,,,,,,,,,,,,,,
0,37,37,0,1,,5f10d13957b4763f401690e5,62c53b5f12f839c363f3eecd,2022-07-06_09h38.09.788,Colour_Asymmetry_Pilot,2022.1.3,Win32,59.84082341,62c50e9c1127f2cd403a315f,,,,,,,,,,,,,,,,,,,,,,,,,,,,,,,,,,,,,,,,,,,,,,,,,,,,,,,,,,,,,,,,,,,,,,,,,,,,,,,,,,,,,,,,,,,,,,,,,,,,,,,,,,,,,,,,,,,,,,,,,,,,,,,,,,,,,,,,,,,,,,,,,,,,,,,,,,,,,,,,,,,
0,38,38,1,1,,5f10d13957b4763f401690e5,62c53b5f12f839c363f3eecd,2022-07-06_09h38.09.788,Colour_Asymmetry_Pilot,2022.1.3,Win32,59.84082341,62c50e9c1127f2cd403a315f,,,,,,,,,,,,,,,,,,,,,,,,,,,,,,,,,,,,,,,,,,,,,,,,,,,,,,,,,,,,,,,,,,,,,,,,,,,,,,,,,,,,,,,,,,,,,,,,,,,,,,,,,,,,,,,,,,,,,,,,,,,,,,,,,,,,,,,,,,,,,,,,,,,,,,,,,,,,,,,,,,,
0,39,39,29,1,,5f10d13957b4763f401690e5,62c53b5f12f839c363f3eecd,2022-07-06_09h38.09.788,Colour_Asymmetry_Pilot,2022.1.3,Win32,59.84082341,62c50e9c1127f2cd403a315f,,,,,,,,,,,,,,,,,,,,,,,,,,,,,,,,,,,,,,,,,,,,,,,,,,,,,,,,,,,,,,,,,,,,,,,,,,,,,,,,,,,,,,,,,,,,,,,,,,,,,,,,,,,,,,,,,,,,,,,,,,,,,,,,,,,,,,,,,,,,,,,,,,,,,,,,,,,,,,,,,,,
0,40,40,85,1,,5f10d13957b4763f401690e5,62c53b5f12f839c363f3eecd,2022-07-06_09h38.09.788,Colour_Asymmetry_Pilot,2022.1.3,Win32,59.84082341,62c50e9c1127f2cd403a315f,,,,,,,,,,,,,,,,,,,,,,,,,,,,,,,,,,,,,,,,,,,,,,,,,,,,,,,,,,,,,,,,,,,,,,,,,,,,,,,,,,,,,,,,,,,,,,,,,,,,,,,,,,,,,,,,,,,,,,,,,,,,,,,,,,,,,,,,,,,,,,,,,,,,,,,,,,,,,,,,,,,
0,41,41,67,1,,5f10d13957b4763f401690e5,62c53b5f12f839c363f3eecd,2022-07-06_09h38.09.788,Colour_Asymmetry_Pilot,2022.1.3,Win32,59.84082341,62c50e9c1127f2cd403a315f,,,,,,,,,,,,,,,,,,,,,,,,,,,,,,,,,,,,,,,,,,,,,,,,,,,,,,,,,,,,,,,,,,,,,,,,,,,,,,,,,,,,,,,,,,,,,,,,,,,,,,,,,,,,,,,,,,,,,,,,,,,,,,,,,,,,,,,,,,,,,,,,,,,,,,,,,,,,,,,,,,,
0,42,42,71,1,,5f10d13957b4763f401690e5,62c53b5f12f839c363f3eecd,2022-07-06_09h38.09.788,Colour_Asymmetry_Pilot,2022.1.3,Win32,59.84082341,62c50e9c1127f2cd403a315f,,,,,,,,,,,,,,,,,,,,,,,,,,,,,,,,,,,,,,,,,,,,,,,,,,,,,,,,,,,,,,,,,,,,,,,,,,,,,,,,,,,,,,,,,,,,,,,,,,,,,,,,,,,,,,,,,,,,,,,,,,,,,,,,,,,,,,,,,,,,,,,,,,,,,,,,,,,,,,,,,,,
0,43,43,44,1,,5f10d13957b4763f401690e5,62c53b5f12f839c363f3eecd,2022-07-06_09h38.09.788,Colour_Asymmetry_Pilot,2022.1.3,Win32,59.84082341,62c50e9c1127f2cd403a315f,,,,,,,,,,,,,,,,,,,,,,,,,,,,,,,,,,,,,,,,,,,,,,,,,,,,,,,,,,,,,,,,,,,,,,,,,,,,,,,,,,,,,,,,,,,,,,,,,,,,,,,,,,,,,,,,,,,,,,,,,,,,,,,,,,,,,,,,,,,,,,,,,,,,,,,,,,,,,,,,,,,
0,44,44,27,1,,5f10d13957b4763f401690e5,62c53b5f12f839c363f3eecd,2022-07-06_09h38.09.788,Colour_Asymmetry_Pilot,2022.1.3,Win32,59.84082341,62c50e9c1127f2cd403a315f,,,,,,,,,,,,,,,,,,,,,,,,,,,,,,,,,,,,,,,,,,,,,,,,,,,,,,,,,,,,,,,,,,,,,,,,,,,,,,,,,,,,,,,,,,,,,,,,,,,,,,,,,,,,,,,,,,,,,,,,,,,,,,,,,,,,,,,,,,,,,,,,,,,,,,,,,,,,,,,,,,,
0,45,45,24,1,,5f10d13957b4763f401690e5,62c53b5f12f839c363f3eecd,2022-07-06_09h38.09.788,Colour_Asymmetry_Pilot,2022.1.3,Win32,59.84082341,62c50e9c1127f2cd403a315f,,,,,,,,,,,,,,,,,,,,,,,,,,,,,,,,,,,,,,,,,,,,,,,,,,,,,,,,,,,,,,,,,,,,,,,,,,,,,,,,,,,,,,,,,,,,,,,,,,,,,,,,,,,,,,,,,,,,,,,,,,,,,,,,,,,,,,,,,,,,,,,,,,,,,,,,,,,,,,,,,,,
0,46,46,50,1,,5f10d13957b4763f401690e5,62c53b5f12f839c363f3eecd,2022-07-06_09h38.09.788,Colour_Asymmetry_Pilot,2022.1.3,Win32,59.84082341,62c50e9c1127f2cd403a315f,,,,,,,,,,,,,,,,,,,,,,,,,,,,,,,,,,,,,,,,,,,,,,,,,,,,,,,,,,,,,,,,,,,,,,,,,,,,,,,,,,,,,,,,,,,,,,,,,,,,,,,,,,,,,,,,,,,,,,,,,,,,,,,,,,,,,,,,,,,,,,,,,,,,,,,,,,,,,,,,,,,
0,47,47,40,1,,5f10d13957b4763f401690e5,62c53b5f12f839c363f3eecd,2022-07-06_09h38.09.788,Colour_Asymmetry_Pilot,2022.1.3,Win32,59.84082341,62c50e9c1127f2cd403a315f,,,,,,,,,,,,,,,,,,,,,,,,,,,,,,,,,,,,,,,,,,,,,,,,,,,,,,,,,,,,,,,,,,,,,,,,,,,,,,,,,,,,,,,,,,,,,,,,,,,,,,,,,,,,,,,,,,,,,,,,,,,,,,,,,,,,,,,,,,,,,,,,,,,,,,,,,,,,,,,,,,,
0,48,48,87,1,,5f10d13957b4763f401690e5,62c53b5f12f839c363f3eecd,2022-07-06_09h38.09.788,Colour_Asymmetry_Pilot,2022.1.3,Win32,59.84082341,62c50e9c1127f2cd403a315f,,,,,,,,,,,,,,,,,,,,,,,,,,,,,,,,,,,,,,,,,,,,,,,,,,,,,,,,,,,,,,,,,,,,,,,,,,,,,,,,,,,,,,,,,,,,,,,,,,,,,,,,,,,,,,,,,,,,,,,,,,,,,,,,,,,,,,,,,,,,,,,,,,,,,,,,,,,,,,,,,,,
0,49,49,17,1,,5f10d13957b4763f401690e5,62c53b5f12f839c363f3eecd,2022-07-06_09h38.09.788,Colour_Asymmetry_Pilot,2022.1.3,Win32,59.84082341,62c50e9c1127f2cd403a315f,,,,,,,,,,,,,,,,,,,,,,,,,,,,,,,,,,,,,,,,,,,,,,,,,,,,,,,,,,,,,,,,,,,,,,,,,,,,,,,,,,,,,,,,,,,,,,,,,,,,,,,,,,,,,,,,,,,,,,,,,,,,,,,,,,,,,,,,,,,,,,,,,,,,,,,,,,,,,,,,,,,
0,50,50,18,1,,5f10d13957b4763f401690e5,62c53b5f12f839c363f3eecd,2022-07-06_09h38.09.788,Colour_Asymmetry_Pilot,2022.1.3,Win32,59.84082341,62c50e9c1127f2cd403a315f,,,,,,,,,,,,,,,,,,,,,,,,,,,,,,,,,,,,,,,,,,,,,,,,,,,,,,,,,,,,,,,,,,,,,,,,,,,,,,,,,,,,,,,,,,,,,,,,,,,,,,,,,,,,,,,,,,,,,,,,,,,,,,,,,,,,,,,,,,,,,,,,,,,,,,,,,,,,,,,,,,,
0,51,51,62,1,,5f10d13957b4763f401690e5,62c53b5f12f839c363f3eecd,2022-07-06_09h38.09.788,Colour_Asymmetry_Pilot,2022.1.3,Win32,59.84082341,62c50e9c1127f2cd403a315f,,,,,,,,,,,,,,,,,,,,,,,,,,,,,,,,,,,,,,,,,,,,,,,,,,,,,,,,,,,,,,,,,,,,,,,,,,,,,,,,,,,,,,,,,,,,,,,,,,,,,,,,,,,,,,,,,,,,,,,,,,,,,,,,,,,,,,,,,,,,,,,,,,,,,,,,,,,,,,,,,,,
0,52,52,46,1,,5f10d13957b4763f401690e5,62c53b5f12f839c363f3eecd,2022-07-06_09h38.09.788,Colour_Asymmetry_Pilot,2022.1.3,Win32,59.84082341,62c50e9c1127f2cd403a315f,,,,,,,,,,,,,,,,,,,,,,,,,,,,,,,,,,,,,,,,,,,,,,,,,,,,,,,,,,,,,,,,,,,,,,,,,,,,,,,,,,,,,,,,,,,,,,,,,,,,,,,,,,,,,,,,,,,,,,,,,,,,,,,,,,,,,,,,,,,,,,,,,,,,,,,,,,,,,,,,,,,
0,53,53,81,1,,5f10d13957b4763f401690e5,62c53b5f12f839c363f3eecd,2022-07-06_09h38.09.788,Colour_Asymmetry_Pilot,2022.1.3,Win32,59.84082341,62c50e9c1127f2cd403a315f,,,,,,,,,,,,,,,,,,,,,,,,,,,,,,,,,,,,,,,,,,,,,,,,,,,,,,,,,,,,,,,,,,,,,,,,,,,,,,,,,,,,,,,,,,,,,,,,,,,,,,,,,,,,,,,,,,,,,,,,,,,,,,,,,,,,,,,,,,,,,,,,,,,,,,,,,,,,,,,,,,,
0,54,54,72,1,,5f10d13957b4763f401690e5,62c53b5f12f839c363f3eecd,2022-07-06_09h38.09.788,Colour_Asymmetry_Pilot,2022.1.3,Win32,59.84082341,62c50e9c1127f2cd403a315f,,,,,,,,,,,,,,,,,,,,,,,,,,,,,,,,,,,,,,,,,,,,,,,,,,,,,,,,,,,,,,,,,,,,,,,,,,,,,,,,,,,,,,,,,,,,,,,,,,,,,,,,,,,,,,,,,,,,,,,,,,,,,,,,,,,,,,,,,,,,,,,,,,,,,,,,,,,,,,,,,,,
0,55,55,54,1,,5f10d13957b4763f401690e5,62c53b5f12f839c363f3eecd,2022-07-06_09h38.09.788,Colour_Asymmetry_Pilot,2022.1.3,Win32,59.84082341,62c50e9c1127f2cd403a315f,,,,,,,,,,,,,,,,,,,,,,,,,,,,,,,,,,,,,,,,,,,,,,,,,,,,,,,,,,,,,,,,,,,,,,,,,,,,,,,,,,,,,,,,,,,,,,,,,,,,,,,,,,,,,,,,,,,,,,,,,,,,,,,,,,,,,,,,,,,,,,,,,,,,,,,,,,,,,,,,,,,
0,56,56,86,1,,5f10d13957b4763f401690e5,62c53b5f12f839c363f3eecd,2022-07-06_09h38.09.788,Colour_Asymmetry_Pilot,2022.1.3,Win32,59.84082341,62c50e9c1127f2cd403a315f,,,,,,,,,,,,,,,,,,,,,,,,,,,,,,,,,,,,,,,,,,,,,,,,,,,,,,,,,,,,,,,,,,,,,,,,,,,,,,,,,,,,,,,,,,,,,,,,,,,,,,,,,,,,,,,,,,,,,,,,,,,,,,,,,,,,,,,,,,,,,,,,,,,,,,,,,,,,,,,,,,,
0,57,57,69,1,,5f10d13957b4763f401690e5,62c53b5f12f839c363f3eecd,2022-07-06_09h38.09.788,Colour_Asymmetry_Pilot,2022.1.3,Win32,59.84082341,62c50e9c1127f2cd403a315f,,,,,,,,,,,,,,,,,,,,,,,,,,,,,,,,,,,,,,,,,,,,,,,,,,,,,,,,,,,,,,,,,,,,,,,,,,,,,,,,,,,,,,,,,,,,,,,,,,,,,,,,,,,,,,,,,,,,,,,,,,,,,,,,,,,,,,,,,,,,,,,,,,,,,,,,,,,,,,,,,,,
0,58,58,88,1,,5f10d13957b4763f401690e5,62c53b5f12f839c363f3eecd,2022-07-06_09h38.09.788,Colour_Asymmetry_Pilot,2022.1.3,Win32,59.84082341,62c50e9c1127f2cd403a315f,,,,,,,,,,,,,,,,,,,,,,,,,,,,,,,,,,,,,,,,,,,,,,,,,,,,,,,,,,,,,,,,,,,,,,,,,,,,,,,,,,,,,,,,,,,,,,,,,,,,,,,,,,,,,,,,,,,,,,,,,,,,,,,,,,,,,,,,,,,,,,,,,,,,,,,,,,,,,,,,,,,
0,59,59,73,1,,5f10d13957b4763f401690e5,62c53b5f12f839c363f3eecd,2022-07-06_09h38.09.788,Colour_Asymmetry_Pilot,2022.1.3,Win32,59.84082341,62c50e9c1127f2cd403a315f,,,,,,,,,,,,,,,,,,,,,,,,,,,,,,,,,,,,,,,,,,,,,,,,,,,,,,,,,,,,,,,,,,,,,,,,,,,,,,,,,,,,,,,,,,,,,,,,,,,,,,,,,,,,,,,,,,,,,,,,,,,,,,,,,,,,,,,,,,,,,,,,,,,,,,,,,,,,,,,,,,,
0,60,60,55,1,,5f10d13957b4763f401690e5,62c53b5f12f839c363f3eecd,2022-07-06_09h38.09.788,Colour_Asymmetry_Pilot,2022.1.3,Win32,59.84082341,62c50e9c1127f2cd403a315f,,,,,,,,,,,,,,,,,,,,,,,,,,,,,,,,,,,,,,,,,,,,,,,,,,,,,,,,,,,,,,,,,,,,,,,,,,,,,,,,,,,,,,,,,,,,,,,,,,,,,,,,,,,,,,,,,,,,,,,,,,,,,,,,,,,,,,,,,,,,,,,,,,,,,,,,,,,,,,,,,,,
0,61,61,14,1,,5f10d13957b4763f401690e5,62c53b5f12f839c363f3eecd,2022-07-06_09h38.09.788,Colour_Asymmetry_Pilot,2022.1.3,Win32,59.84082341,62c50e9c1127f2cd403a315f,,,,,,,,,,,,,,,,,,,,,,,,,,,,,,,,,,,,,,,,,,,,,,,,,,,,,,,,,,,,,,,,,,,,,,,,,,,,,,,,,,,,,,,,,,,,,,,,,,,,,,,,,,,,,,,,,,,,,,,,,,,,,,,,,,,,,,,,,,,,,,,,,,,,,,,,,,,,,,,,,,,
0,62,62,38,1,,5f10d13957b4763f401690e5,62c53b5f12f839c363f3eecd,2022-07-06_09h38.09.788,Colour_Asymmetry_Pilot,2022.1.3,Win32,59.84082341,62c50e9c1127f2cd403a315f,,,,,,,,,,,,,,,,,,,,,,,,,,,,,,,,,,,,,,,,,,,,,,,,,,,,,,,,,,,,,,,,,,,,,,,,,,,,,,,,,,,,,,,,,,,,,,,,,,,,,,,,,,,,,,,,,,,,,,,,,,,,,,,,,,,,,,,,,,,,,,,,,,,,,,,,,,,,,,,,,,,
0,63,63,10,1,,5f10d13957b4763f401690e5,62c53b5f12f839c363f3eecd,2022-07-06_09h38.09.788,Colour_Asymmetry_Pilot,2022.1.3,Win32,59.84082341,62c50e9c1127f2cd403a315f,,,,,,,,,,,,,,,,,,,,,,,,,,,,,,,,,,,,,,,,,,,,,,,,,,,,,,,,,,,,,,,,,,,,,,,,,,,,,,,,,,,,,,,,,,,,,,,,,,,,,,,,,,,,,,,,,,,,,,,,,,,,,,,,,,,,,,,,,,,,,,,,,,,,,,,,,,,,,,,,,,,
0,64,64,12,1,,5f10d13957b4763f401690e5,62c53b5f12f839c363f3eecd,2022-07-06_09h38.09.788,Colour_Asymmetry_Pilot,2022.1.3,Win32,59.84082341,62c50e9c1127f2cd403a315f,,,,,,,,,,,,,,,,,,,,,,,,,,,,,,,,,,,,,,,,,,,,,,,,,,,,,,,,,,,,,,,,,,,,,,,,,,,,,,,,,,,,,,,,,,,,,,,,,,,,,,,,,,,,,,,,,,,,,,,,,,,,,,,,,,,,,,,,,,,,,,,,,,,,,,,,,,,,,,,,,,,
0,65,65,25,1,,5f10d13957b4763f401690e5,62c53b5f12f839c363f3eecd,2022-07-06_09h38.09.788,Colour_Asymmetry_Pilot,2022.1.3,Win32,59.84082341,62c50e9c1127f2cd403a315f,,,,,,,,,,,,,,,,,,,,,,,,,,,,,,,,,,,,,,,,,,,,,,,,,,,,,,,,,,,,,,,,,,,,,,,,,,,,,,,,,,,,,,,,,,,,,,,,,,,,,,,,,,,,,,,,,,,,,,,,,,,,,,,,,,,,,,,,,,,,,,,,,,,,,,,,,,,,,,,,,,,
0,66,66,84,1,,5f10d13957b4763f401690e5,62c53b5f12f839c363f3eecd,2022-07-06_09h38.09.788,Colour_Asymmetry_Pilot,2022.1.3,Win32,59.84082341,62c50e9c1127f2cd403a315f,,,,,,,,,,,,,,,,,,,,,,,,,,,,,,,,,,,,,,,,,,,,,,,,,,,,,,,,,,,,,,,,,,,,,,,,,,,,,,,,,,,,,,,,,,,,,,,,,,,,,,,,,,,,,,,,,,,,,,,,,,,,,,,,,,,,,,,,,,,,,,,,,,,,,,,,,,,,,,,,,,,
0,67,67,49,1,,5f10d13957b4763f401690e5,62c53b5f12f839c363f3eecd,2022-07-06_09h38.09.788,Colour_Asymmetry_Pilot,2022.1.3,Win32,59.84082341,62c50e9c1127f2cd403a315f,,,,,,,,,,,,,,,,,,,,,,,,,,,,,,,,,,,,,,,,,,,,,,,,,,,,,,,,,,,,,,,,,,,,,,,,,,,,,,,,,,,,,,,,,,,,,,,,,,,,,,,,,,,,,,,,,,,,,,,,,,,,,,,,,,,,,,,,,,,,,,,,,,,,,,,,,,,,,,,,,,,
0,68,68,56,1,,5f10d13957b4763f401690e5,62c53b5f12f839c363f3eecd,2022-07-06_09h38.09.788,Colour_Asymmetry_Pilot,2022.1.3,Win32,59.84082341,62c50e9c1127f2cd403a315f,,,,,,,,,,,,,,,,,,,,,,,,,,,,,,,,,,,,,,,,,,,,,,,,,,,,,,,,,,,,,,,,,,,,,,,,,,,,,,,,,,,,,,,,,,,,,,,,,,,,,,,,,,,,,,,,,,,,,,,,,,,,,,,,,,,,,,,,,,,,,,,,,,,,,,,,,,,,,,,,,,,
0,69,69,5,1,,5f10d13957b4763f401690e5,62c53b5f12f839c363f3eecd,2022-07-06_09h38.09.788,Colour_Asymmetry_Pilot,2022.1.3,Win32,59.84082341,62c50e9c1127f2cd403a315f,,,,,,,,,,,,,,,,,,,,,,,,,,,,,,,,,,,,,,,,,,,,,,,,,,,,,,,,,,,,,,,,,,,,,,,,,,,,,,,,,,,,,,,,,,,,,,,,,,,,,,,,,,,,,,,,,,,,,,,,,,,,,,,,,,,,,,,,,,,,,,,,,,,,,,,,,,,,,,,,,,,
0,70,70,35,1,,5f10d13957b4763f401690e5,62c53b5f12f839c363f3eecd,2022-07-06_09h38.09.788,Colour_Asymmetry_Pilot,2022.1.3,Win32,59.84082341,62c50e9c1127f2cd403a315f,,,,,,,,,,,,,,,,,,,,,,,,,,,,,,,,,,,,,,,,,,,,,,,,,,,,,,,,,,,,,,,,,,,,,,,,,,,,,,,,,,,,,,,,,,,,,,,,,,,,,,,,,,,,,,,,,,,,,,,,,,,,,,,,,,,,,,,,,,,,,,,,,,,,,,,,,,,,,,,,,,,
0,71,71,53,1,,5f10d13957b4763f401690e5,62c53b5f12f839c363f3eecd,2022-07-06_09h38.09.788,Colour_Asymmetry_Pilot,2022.1.3,Win32,59.84082341,62c50e9c1127f2cd403a315f,,,,,,,,,,,,,,,,,,,,,,,,,,,,,,,,,,,,,,,,,,,,,,,,,,,,,,,,,,,,,,,,,,,,,,,,,,,,,,,,,,,,,,,,,,,,,,,,,,,,,,,,,,,,,,,,,,,,,,,,,,,,,,,,,,,,,,,,,,,,,,,,,,,,,,,,,,,,,,,,,,,
0,72,72,7,1,,5f10d13957b4763f401690e5,62c53b5f12f839c363f3eecd,2022-07-06_09h38.09.788,Colour_Asymmetry_Pilot,2022.1.3,Win32,59.84082341,62c50e9c1127f2cd403a315f,,,,,,,,,,,,,,,,,,,,,,,,,,,,,,,,,,,,,,,,,,,,,,,,,,,,,,,,,,,,,,,,,,,,,,,,,,,,,,,,,,,,,,,,,,,,,,,,,,,,,,,,,,,,,,,,,,,,,,,,,,,,,,,,,,,,,,,,,,,,,,,,,,,,,,,,,,,,,,,,,,,
0,73,73,77,1,,5f10d13957b4763f401690e5,62c53b5f12f839c363f3eecd,2022-07-06_09h38.09.788,Colour_Asymmetry_Pilot,2022.1.3,Win32,59.84082341,62c50e9c1127f2cd403a315f,,,,,,,,,,,,,,,,,,,,,,,,,,,,,,,,,,,,,,,,,,,,,,,,,,,,,,,,,,,,,,,,,,,,,,,,,,,,,,,,,,,,,,,,,,,,,,,,,,,,,,,,,,,,,,,,,,,,,,,,,,,,,,,,,,,,,,,,,,,,,,,,,,,,,,,,,,,,,,,,,,,
0,74,74,19,1,,5f10d13957b4763f401690e5,62c53b5f12f839c363f3eecd,2022-07-06_09h38.09.788,Colour_Asymmetry_Pilot,2022.1.3,Win32,59.84082341,62c50e9c1127f2cd403a315f,,,,,,,,,,,,,,,,,,,,,,,,,,,,,,,,,,,,,,,,,,,,,,,,,,,,,,,,,,,,,,,,,,,,,,,,,,,,,,,,,,,,,,,,,,,,,,,,,,,,,,,,,,,,,,,,,,,,,,,,,,,,,,,,,,,,,,,,,,,,,,,,,,,,,,,,,,,,,,,,,,,
0,75,75,91,1,,5f10d13957b4763f401690e5,62c53b5f12f839c363f3eecd,2022-07-06_09h38.09.788,Colour_Asymmetry_Pilot,2022.1.3,Win32,59.84082341,62c50e9c1127f2cd403a315f,,,,,,,,,,,,,,,,,,,,,,,,,,,,,,,,,,,,,,,,,,,,,,,,,,,,,,,,,,,,,,,,,,,,,,,,,,,,,,,,,,,,,,,,,,,,,,,,,,,,,,,,,,,,,,,,,,,,,,,,,,,,,,,,,,,,,,,,,,,,,,,,,,,,,,,,,,,,,,,,,,,
0,76,76,47,1,,5f10d13957b4763f401690e5,62c53b5f12f839c363f3eecd,2022-07-06_09h38.09.788,Colour_Asymmetry_Pilot,2022.1.3,Win32,59.84082341,62c50e9c1127f2cd403a315f,,,,,,,,,,,,,,,,,,,,,,,,,,,,,,,,,,,,,,,,,,,,,,,,,,,,,,,,,,,,,,,,,,,,,,,,,,,,,,,,,,,,,,,,,,,,,,,,,,,,,,,,,,,,,,,,,,,,,,,,,,,,,,,,,,,,,,,,,,,,,,,,,,,,,,,,,,,,,,,,,,,
0,77,77,43,1,,5f10d13957b4763f401690e5,62c53b5f12f839c363f3eecd,2022-07-06_09h38.09.788,Colour_Asymmetry_Pilot,2022.1.3,Win32,59.84082341,62c50e9c1127f2cd403a315f,,,,,,,,,,,,,,,,,,,,,,,,,,,,,,,,,,,,,,,,,,,,,,,,,,,,,,,,,,,,,,,,,,,,,,,,,,,,,,,,,,,,,,,,,,,,,,,,,,,,,,,,,,,,,,,,,,,,,,,,,,,,,,,,,,,,,,,,,,,,,,,,,,,,,,,,,,,,,,,,,,,
0,78,78,11,1,,5f10d13957b4763f401690e5,62c53b5f12f839c363f3eecd,2022-07-06_09h38.09.788,Colour_Asymmetry_Pilot,2022.1.3,Win32,59.84082341,62c50e9c1127f2cd403a315f,,,,,,,,,,,,,,,,,,,,,,,,,,,,,,,,,,,,,,,,,,,,,,,,,,,,,,,,,,,,,,,,,,,,,,,,,,,,,,,,,,,,,,,,,,,,,,,,,,,,,,,,,,,,,,,,,,,,,,,,,,,,,,,,,,,,,,,,,,,,,,,,,,,,,,,,,,,,,,,,,,,
0,79,79,70,1,,5f10d13957b4763f401690e5,62c53b5f12f839c363f3eecd,2022-07-06_09h38.09.788,Colour_Asymmetry_Pilot,2022.1.3,Win32,59.84082341,62c50e9c1127f2cd403a315f,,,,,,,,,,,,,,,,,,,,,,,,,,,,,,,,,,,,,,,,,,,,,,,,,,,,,,,,,,,,,,,,,,,,,,,,,,,,,,,,,,,,,,,,,,,,,,,,,,,,,,,,,,,,,,,,,,,,,,,,,,,,,,,,,,,,,,,,,,,,,,,,,,,,,,,,,,,,,,,,,,,
0,80,80,34,1,,5f10d13957b4763f401690e5,62c53b5f12f839c363f3eecd,2022-07-06_09h38.09.788,Colour_Asymmetry_Pilot,2022.1.3,Win32,59.84082341,62c50e9c1127f2cd403a315f,,,,,,,,,,,,,,,,,,,,,,,,,,,,,,,,,,,,,,,,,,,,,,,,,,,,,,,,,,,,,,,,,,,,,,,,,,,,,,,,,,,,,,,,,,,,,,,,,,,,,,,,,,,,,,,,,,,,,,,,,,,,,,,,,,,,,,,,,,,,,,,,,,,,,,,,,,,,,,,,,,,
0,81,81,60,1,,5f10d13957b4763f401690e5,62c53b5f12f839c363f3eecd,2022-07-06_09h38.09.788,Colour_Asymmetry_Pilot,2022.1.3,Win32,59.84082341,62c50e9c1127f2cd403a315f,,,,,,,,,,,,,,,,,,,,,,,,,,,,,,,,,,,,,,,,,,,,,,,,,,,,,,,,,,,,,,,,,,,,,,,,,,,,,,,,,,,,,,,,,,,,,,,,,,,,,,,,,,,,,,,,,,,,,,,,,,,,,,,,,,,,,,,,,,,,,,,,,,,,,,,,,,,,,,,,,,,
0,82,82,80,1,,5f10d13957b4763f401690e5,62c53b5f12f839c363f3eecd,2022-07-06_09h38.09.788,Colour_Asymmetry_Pilot,2022.1.3,Win32,59.84082341,62c50e9c1127f2cd403a315f,,,,,,,,,,,,,,,,,,,,,,,,,,,,,,,,,,,,,,,,,,,,,,,,,,,,,,,,,,,,,,,,,,,,,,,,,,,,,,,,,,,,,,,,,,,,,,,,,,,,,,,,,,,,,,,,,,,,,,,,,,,,,,,,,,,,,,,,,,,,,,,,,,,,,,,,,,,,,,,,,,,
0,83,83,52,1,,5f10d13957b4763f401690e5,62c53b5f12f839c363f3eecd,2022-07-06_09h38.09.788,Colour_Asymmetry_Pilot,2022.1.3,Win32,59.84082341,62c50e9c1127f2cd403a315f,,,,,,,,,,,,,,,,,,,,,,,,,,,,,,,,,,,,,,,,,,,,,,,,,,,,,,,,,,,,,,,,,,,,,,,,,,,,,,,,,,,,,,,,,,,,,,,,,,,,,,,,,,,,,,,,,,,,,,,,,,,,,,,,,,,,,,,,,,,,,,,,,,,,,,,,,,,,,,,,,,,
0,84,84,42,1,,5f10d13957b4763f401690e5,62c53b5f12f839c363f3eecd,2022-07-06_09h38.09.788,Colour_Asymmetry_Pilot,2022.1.3,Win32,59.84082341,62c50e9c1127f2cd403a315f,,,,,,,,,,,,,,,,,,,,,,,,,,,,,,,,,,,,,,,,,,,,,,,,,,,,,,,,,,,,,,,,,,,,,,,,,,,,,,,,,,,,,,,,,,,,,,,,,,,,,,,,,,,,,,,,,,,,,,,,,,,,,,,,,,,,,,,,,,,,,,,,,,,,,,,,,,,,,,,,,,,
0,85,85,6,1,,5f10d13957b4763f401690e5,62c53b5f12f839c363f3eecd,2022-07-06_09h38.09.788,Colour_Asymmetry_Pilot,2022.1.3,Win32,59.84082341,62c50e9c1127f2cd403a315f,,,,,,,,,,,,,,,,,,,,,,,,,,,,,,,,,,,,,,,,,,,,,,,,,,,,,,,,,,,,,,,,,,,,,,,,,,,,,,,,,,,,,,,,,,,,,,,,,,,,,,,,,,,,,,,,,,,,,,,,,,,,,,,,,,,,,,,,,,,,,,,,,,,,,,,,,,,,,,,,,,,
0,86,86,45,1,,5f10d13957b4763f401690e5,62c53b5f12f839c363f3eecd,2022-07-06_09h38.09.788,Colour_Asymmetry_Pilot,2022.1.3,Win32,59.84082341,62c50e9c1127f2cd403a315f,,,,,,,,,,,,,,,,,,,,,,,,,,,,,,,,,,,,,,,,,,,,,,,,,,,,,,,,,,,,,,,,,,,,,,,,,,,,,,,,,,,,,,,,,,,,,,,,,,,,,,,,,,,,,,,,,,,,,,,,,,,,,,,,,,,,,,,,,,,,,,,,,,,,,,,,,,,,,,,,,,,
0,87,87,4,1,,5f10d13957b4763f401690e5,62c53b5f12f839c363f3eecd,2022-07-06_09h38.09.788,Colour_Asymmetry_Pilot,2022.1.3,Win32,59.84082341,62c50e9c1127f2cd403a315f,,,,,,,,,,,,,,,,,,,,,,,,,,,,,,,,,,,,,,,,,,,,,,,,,,,,,,,,,,,,,,,,,,,,,,,,,,,,,,,,,,,,,,,,,,,,,,,,,,,,,,,,,,,,,,,,,,,,,,,,,,,,,,,,,,,,,,,,,,,,,,,,,,,,,,,,,,,,,,,,,,,
0,88,88,39,1,,5f10d13957b4763f401690e5,62c53b5f12f839c363f3eecd,2022-07-06_09h38.09.788,Colour_Asymmetry_Pilot,2022.1.3,Win32,59.84082341,62c50e9c1127f2cd403a315f,,,,,,,,,,,,,,,,,,,,,,,,,,,,,,,,,,,,,,,,,,,,,,,,,,,,,,,,,,,,,,,,,,,,,,,,,,,,,,,,,,,,,,,,,,,,,,,,,,,,,,,,,,,,,,,,,,,,,,,,,,,,,,,,,,,,,,,,,,,,,,,,,,,,,,,,,,,,,,,,,,,
0,89,89,41,1,,5f10d13957b4763f401690e5,62c53b5f12f839c363f3eecd,2022-07-06_09h38.09.788,Colour_Asymmetry_Pilot,2022.1.3,Win32,59.84082341,62c50e9c1127f2cd403a315f,,,,,,,,,,,,,,,,,,,,,,,,,,,,,,,,,,,,,,,,,,,,,,,,,,,,,,,,,,,,,,,,,,,,,,,,,,,,,,,,,,,,,,,,,,,,,,,,,,,,,,,,,,,,,,,,,,,,,,,,,,,,,,,,,,,,,,,,,,,,,,,,,,,,,,,,,,,,,,,,,,,
0,90,90,21,1,,5f10d13957b4763f401690e5,62c53b5f12f839c363f3eecd,2022-07-06_09h38.09.788,Colour_Asymmetry_Pilot,2022.1.3,Win32,59.84082341,62c50e9c1127f2cd403a315f,,,,,,,,,,,,,,,,,,,,,,,,,,,,,,,,,,,,,,,,,,,,,,,,,,,,,,,,,,,,,,,,,,,,,,,,,,,,,,,,,,,,,,,,,,,,,,,,,,,,,,,,,,,,,,,,,,,,,,,,,,,,,,,,,,,,,,,,,,,,,,,,,,,,,,,,,,,,,,,,,,,
0,91,91,26,1,,5f10d13957b4763f401690e5,62c53b5f12f839c363f3eecd,2022-07-06_09h38.09.788,Colour_Asymmetry_Pilot,2022.1.3,Win32,59.84082341,62c50e9c1127f2cd403a315f,,,,,,,,,,,,,,,,,,,,,,,,,,,,,,,,,,,,,,,,,,,,,,,,,,,,,,,,,,,,,,,,,,,,,,,,,,,,,,,,,,,,,,,,,,,,,,,,,,,,,,,,,,,,,,,,,,,,,,,,,,,,,,,,,,,,,,,,,,,,,,,,,,,,,,,,,,,,,,,,,,,
0,92,92,36,1,,5f10d13957b4763f401690e5,62c53b5f12f839c363f3eecd,2022-07-06_09h38.09.788,Colour_Asymmetry_Pilot,2022.1.3,Win32,59.84082341,62c50e9c1127f2cd403a315f,,,,,,,,,,,,,,,,,,,,,,,,,,,,,,,,,,,,,,,,,,,,,,,,,,,,,,,,,,,,,,,,,,,,,,,,,,,,,,,,,,,,,,,,,,,,,,,,,,,,,,,,,,,,,,,,,,,,,,,,,,,,,,,,,,,,,,,,,,,,,,,,,,,,,,,,,,,,,,,,,,,
,,,,,,5f10d13957b4763f401690e5,62c53b5f12f839c363f3eecd,2022-07-06_09h38.09.788,Colour_Asymmetry_Pilot,2022.1.3,Win32,59.84082341,62c50e9c1127f2cd403a315f,0,0,0,40,1,onetwo,,,,,,,,,,,,,,,,,,,,,,,,,,,,,,,,,,,,,,,,,,,,,,,,,,,,,,,,,,,,,,,,,,,,,,,,,,,,,,,,,,,,,,,,,,,,,,,,,,,,,,,,,,,,,,,,,,,,,,,,,,,,,,,,,,,,,,,,,,,,,,,,,,,,,,,,,,,,,
,,,,,,5f10d13957b4763f401690e5,62c53b5f12f839c363f3eecd,2022-07-06_09h38.09.788,Colour_Asymmetry_Pilot,2022.1.3,Win32,59.84082341,62c50e9c1127f2cd403a315f,0,1,1,153,1,onethree,,,,,,,,,,,,,,,,,,,,,,,,,,,,,,,,,,,,,,,,,,,,,,,,,,,,,,,,,,,,,,,,,,,,,,,,,,,,,,,,,,,,,,,,,,,,,,,,,,,,,,,,,,,,,,,,,,,,,,,,,,,,,,,,,,,,,,,,,,,,,,,,,,,,,,,,,,,,,
,,,,,,5f10d13957b4763f401690e5,62c53b5f12f839c363f3eecd,2022-07-06_09h38.09.788,Colour_Asymmetry_Pilot,2022.1.3,Win32,59.84082341,62c50e9c1127f2cd403a315f,0,2,2,14,1,fourtwo,,,,,,,,,,,,,,,,,,,,,,,,,,,,,,,,,,,,,,,,,,,,,,,,,,,,,,,,,,,,,,,,,,,,,,,,,,,,,,,,,,,,,,,,,,,,,,,,,,,,,,,,,,,,,,,,,,,,,,,,,,,,,,,,,,,,,,,,,,,,,,,,,,,,,,,,,,,,,
,,,,,,5f10d13957b4763f401690e5,62c53b5f12f839c363f3eecd,2022-07-06_09h38.09.788,Colour_Asymmetry_Pilot,2022.1.3,Win32,59.84082341,62c50e9c1127f2cd403a315f,0,3,3,135,1,fourthree,,,,,,,,,,,,,,,,,,,,,,,,,,,,,,,,,,,,,,,,,,,,,,,,,,,,,,,,,,,,,,,,,,,,,,,,,,,,,,,,,,,,,,,,,,,,,,,,,,,,,,,,,,,,,,,,,,,,,,,,,,,,,,,,,,,,,,,,,,,,,,,,,,,,,,,,,,,,,
,,,,,,5f10d13957b4763f401690e5,62c53b5f12f839c363f3eecd,2022-07-06_09h38.09.788,Colour_Asymmetry_Pilot,2022.1.3,Win32,59.84082341,62c50e9c1127f2cd403a315f,0,4,4,89,1,onethree,,,,,,,,,,,,,,,,,,,,,,,,,,,,,,,,,,,,,,,,,,,,,,,,,,,,,,,,,,,,,,,,,,,,,,,,,,,,,,,,,,,,,,,,,,,,,,,,,,,,,,,,,,,,,,,,,,,,,,,,,,,,,,,,,,,,,,,,,,,,,,,,,,,,,,,,,,,,,
,,,,,,5f10d13957b4763f401690e5,62c53b5f12f839c363f3eecd,2022-07-06_09h38.09.788,Colour_Asymmetry_Pilot,2022.1.3,Win32,59.84082341,62c50e9c1127f2cd403a315f,0,5,5,119,1,fourthree,,,,,,,,,,,,,,,,,,,,,,,,,,,,,,,,,,,,,,,,,,,,,,,,,,,,,,,,,,,,,,,,,,,,,,,,,,,,,,,,,,,,,,,,,,,,,,,,,,,,,,,,,,,,,,,,,,,,,,,,,,,,,,,,,,,,,,,,,,,,,,,,,,,,,,,,,,,,,
,,,,,,5f10d13957b4763f401690e5,62c53b5f12f839c363f3eecd,2022-07-06_09h38.09.788,Colour_Asymmetry_Pilot,2022.1.3,Win32,59.84082341,62c50e9c1127f2cd403a315f,0,6,6,103,1,fourthree,,,,,,,,,,,,,,,,,,,,,,,,,,,,,,,,,,,,,,,,,,,,,,,,,,,,,,,,,,,,,,,,,,,,,,,,,,,,,,,,,,,,,,,,,,,,,,,,,,,,,,,,,,,,,,,,,,,,,,,,,,,,,,,,,,,,,,,,,,,,,,,,,,,,,,,,,,,,,
,,,,,,5f10d13957b4763f401690e5,62c53b5f12f839c363f3eecd,2022-07-06_09h38.09.788,Colour_Asymmetry_Pilot,2022.1.3,Win32,59.84082341,62c50e9c1127f2cd403a315f,0,7,7,73,1,onethree,,,,,,,,,,,,,,,,,,,,,,,,,,,,,,,,,,,,,,,,,,,,,,,,,,,,,,,,,,,,,,,,,,,,,,,,,,,,,,,,,,,,,,,,,,,,,,,,,,,,,,,,,,,,,,,,,,,,,,,,,,,,,,,,,,,,,,,,,,,,,,,,,,,,,,,,,,,,,
,,,,,,5f10d13957b4763f401690e5,62c53b5f12f839c363f3eecd,2022-07-06_09h38.09.788,Colour_Asymmetry_Pilot,2022.1.3,Win32,59.84082341,62c50e9c1127f2cd403a315f,0,8,8,142,1,fourtwo,,,,,,,,,,,,,,,,,,,,,,,,,,,,,,,,,,,,,,,,,,,,,,,,,,,,,,,,,,,,,,,,,,,,,,,,,,,,,,,,,,,,,,,,,,,,,,,,,,,,,,,,,,,,,,,,,,,,,,,,,,,,,,,,,,,,,,,,,,,,,,,,,,,,,,,,,,,,,
,,,,,,5f10d13957b4763f401690e5,62c53b5f12f839c363f3eecd,2022-07-06_09h38.09.788,Colour_Asymmetry_Pilot,2022.1.3,Win32,59.84082341,62c50e9c1127f2cd403a315f,0,9,9,105,1,onethree,,,,,,,,,,,,,,,,,,,,,,,,,,,,,,,,,,,,,,,,,,,,,,,,,,,,,,,,,,,,,,,,,,,,,,,,,,,,,,,,,,,,,,,,,,,,,,,,,,,,,,,,,,,,,,,,,,,,,,,,,,,,,,,,,,,,,,,,,,,,,,,,,,,,,,,,,,,,,
,,,,,,5f10d13957b4763f401690e5,62c53b5f12f839c363f3eecd,2022-07-06_09h38.09.788,Colour_Asymmetry_Pilot,2022.1.3,Win32,59.84082341,62c50e9c1127f2cd403a315f,0,10,10,156,1,threeone,,,,,,,,,,,,,,,,,,,,,,,,,,,,,,,,,,,,,,,,,,,,,,,,,,,,,,,,,,,,,,,,,,,,,,,,,,,,,,,,,,,,,,,,,,,,,,,,,,,,,,,,,,,,,,,,,,,,,,,,,,,,,,,,,,,,,,,,,,,,,,,,,,,,,,,,,,,,,
,,,,,,5f10d13957b4763f401690e5,62c53b5f12f839c363f3eecd,2022-07-06_09h38.09.788,Colour_Asymmetry_Pilot,2022.1.3,Win32,59.84082341,62c50e9c1127f2cd403a315f,0,11,11,83,1,twofour,,,,,,,,,,,,,,,,,,,,,,,,,,,,,,,,,,,,,,,,,,,,,,,,,,,,,,,,,,,,,,,,,,,,,,,,,,,,,,,,,,,,,,,,,,,,,,,,,,,,,,,,,,,,,,,,,,,,,,,,,,,,,,,,,,,,,,,,,,,,,,,,,,,,,,,,,,,,,
,,,,,,5f10d13957b4763f401690e5,62c53b5f12f839c363f3eecd,2022-07-06_09h38.09.788,Colour_Asymmetry_Pilot,2022.1.3,Win32,59.84082341,62c50e9c1127f2cd403a315f,0,12,12,71,1,fourthree,,,,,,,,,,,,,,,,,,,,,,,,,,,,,,,,,,,,,,,,,,,,,,,,,,,,,,,,,,,,,,,,,,,,,,,,,,,,,,,,,,,,,,,,,,,,,,,,,,,,,,,,,,,,,,,,,,,,,,,,,,,,,,,,,,,,,,,,,,,,,,,,,,,,,,,,,,,,,
,,,,,,5f10d13957b4763f401690e5,62c53b5f12f839c363f3eecd,2022-07-06_09h38.09.788,Colour_Asymmetry_Pilot,2022.1.3,Win32,59.84082341,62c50e9c1127f2cd403a315f,0,13,13,117,1,threefour,,,,,,,,,,,,,,,,,,,,,,,,,,,,,,,,,,,,,,,,,,,,,,,,,,,,,,,,,,,,,,,,,,,,,,,,,,,,,,,,,,,,,,,,,,,,,,,,,,,,,,,,,,,,,,,,,,,,,,,,,,,,,,,,,,,,,,,,,,,,,,,,,,,,,,,,,,,,,
,,,,,,5f10d13957b4763f401690e5,62c53b5f12f839c363f3eecd,2022-07-06_09h38.09.788,Colour_Asymmetry_Pilot,2022.1.3,Win32,59.84082341,62c50e9c1127f2cd403a315f,0,14,14,111,1,fourthree,,,,,,,,,,,,,,,,,,,,,,,,,,,,,,,,,,,,,,,,,,,,,,,,,,,,,,,,,,,,,,,,,,,,,,,,,,,,,,,,,,,,,,,,,,,,,,,,,,,,,,,,,,,,,,,,,,,,,,,,,,,,,,,,,,,,,,,,,,,,,,,,,,,,,,,,,,,,,
,,,,,,5f10d13957b4763f401690e5,62c53b5f12f839c363f3eecd,2022-07-06_09h38.09.788,Colour_Asymmetry_Pilot,2022.1.3,Win32,59.84082341,62c50e9c1127f2cd403a315f,0,15,15,44,1,threeone,,,,,,,,,,,,,,,,,,,,,,,,,,,,,,,,,,,,,,,,,,,,,,,,,,,,,,,,,,,,,,,,,,,,,,,,,,,,,,,,,,,,,,,,,,,,,,,,,,,,,,,,,,,,,,,,,,,,,,,,,,,,,,,,,,,,,,,,,,,,,,,,,,,,,,,,,,,,,
,,,,,,5f10d13957b4763f401690e5,62c53b5f12f839c363f3eecd,2022-07-06_09h38.09.788,Colour_Asymmetry_Pilot,2022.1.3,Win32,59.84082341,62c50e9c1127f2cd403a315f,0,16,16,158,1,fourtwo,,,,,,,,,,,,,,,,,,,,,,,,,,,,,,,,,,,,,,,,,,,,,,,,,,,,,,,,,,,,,,,,,,,,,,,,,,,,,,,,,,,,,,,,,,,,,,,,,,,,,,,,,,,,,,,,,,,,,,,,,,,,,,,,,,,,,,,,,,,,,,,,,,,,,,,,,,,,,
,,,,,,5f10d13957b4763f401690e5,62c53b5f12f839c363f3eecd,2022-07-06_09h38.09.788,Colour_Asymmetry_Pilot,2022.1.3,Win32,59.84082341,62c50e9c1127f2cd403a315f,0,17,17,8,1,onetwo,,,,,,,,,,,,,,,,,,,,,,,,,,,,,,,,,,,,,,,,,,,,,,,,,,,,,,,,,,,,,,,,,,,,,,,,,,,,,,,,,,,,,,,,,,,,,,,,,,,,,,,,,,,,,,,,,,,,,,,,,,,,,,,,,,,,,,,,,,,,,,,,,,,,,,,,,,,,,
,,,,,,5f10d13957b4763f401690e5,62c53b5f12f839c363f3eecd,2022-07-06_09h38.09.788,Colour_Asymmetry_Pilot,2022.1.3,Win32,59.84082341,62c50e9c1127f2cd403a315f,0,18,18,134,1,fourtwo,,,,,,,,,,,,,,,,,,,,,,,,,,,,,,,,,,,,,,,,,,,,,,,,,,,,,,,,,,,,,,,,,,,,,,,,,,,,,,,,,,,,,,,,,,,,,,,,,,,,,,,,,,,,,,,,,,,,,,,,,,,,,,,,,,,,,,,,,,,,,,,,,,,,,,,,,,,,,
,,,,,,5f10d13957b4763f401690e5,62c53b5f12f839c363f3eecd,2022-07-06_09h38.09.788,Colour_Asymmetry_Pilot,2022.1.3,Win32,59.84082341,62c50e9c1127f2cd403a315f,0,19,19,138,1,twoone,,,,,,,,,,,,,,,,,,,,,,,,,,,,,,,,,,,,,,,,,,,,,,,,,,,,,,,,,,,,,,,,,,,,,,,,,,,,,,,,,,,,,,,,,,,,,,,,,,,,,,,,,,,,,,,,,,,,,,,,,,,,,,,,,,,,,,,,,,,,,,,,,,,,,,,,,,,,,
,,,,,,5f10d13957b4763f401690e5,62c53b5f12f839c363f3eecd,2022-07-06_09h38.09.788,Colour_Asymmetry_Pilot,2022.1.3,Win32,59.84082341,62c50e9c1127f2cd403a315f,0,20,20,56,1,onetwo,,,,,,,,,,,,,,,,,,,,,,,,,,,,,,,,,,,,,,,,,,,,,,,,,,,,,,,,,,,,,,,,,,,,,,,,,,,,,,,,,,,,,,,,,,,,,,,,,,,,,,,,,,,,,,,,,,,,,,,,,,,,,,,,,,,,,,,,,,,,,,,,,,,,,,,,,,,,,
,,,,,,5f10d13957b4763f401690e5,62c53b5f12f839c363f3eecd,2022-07-06_09h38.09.788,Colour_Asymmetry_Pilot,2022.1.3,Win32,59.84082341,62c50e9c1127f2cd403a315f,0,21,21,78,1,fourtwo,,,,,,,,,,,,,,,,,,,,,,,,,,,,,,,,,,,,,,,,,,,,,,,,,,,,,,,,,,,,,,,,,,,,,,,,,,,,,,,,,,,,,,,,,,,,,,,,,,,,,,,,,,,,,,,,,,,,,,,,,,,,,,,,,,,,,,,,,,,,,,,,,,,,,,,,,,,,,
,,,,,,5f10d13957b4763f401690e5,62c53b5f12f839c363f3eecd,2022-07-06_09h38.09.788,Colour_Asymmetry_Pilot,2022.1.3,Win32,59.84082341,62c50e9c1127f2cd403a315f,0,22,22,114,1,twoone,,,,,,,,,,,,,,,,,,,,,,,,,,,,,,,,,,,,,,,,,,,,,,,,,,,,,,,,,,,,,,,,,,,,,,,,,,,,,,,,,,,,,,,,,,,,,,,,,,,,,,,,,,,,,,,,,,,,,,,,,,,,,,,,,,,,,,,,,,,,,,,,,,,,,,,,,,,,,
,,,,,,5f10d13957b4763f401690e5,62c53b5f12f839c363f3eecd,2022-07-06_09h38.09.788,Colour_Asymmetry_Pilot,2022.1.3,Win32,59.84082341,62c50e9c1127f2cd403a315f,0,23,23,154,1,twoone,,,,,,,,,,,,,,,,,,,,,,,,,,,,,,,,,,,,,,,,,,,,,,,,,,,,,,,,,,,,,,,,,,,,,,,,,,,,,,,,,,,,,,,,,,,,,,,,,,,,,,,,,,,,,,,,,,,,,,,,,,,,,,,,,,,,,,,,,,,,,,,,,,,,,,,,,,,,,
,,,,,,5f10d13957b4763f401690e5,62c53b5f12f839c363f3eecd,2022-07-06_09h38.09.788,Colour_Asymmetry_Pilot,2022.1.3,Win32,59.84082341,62c50e9c1127f2cd403a315f,0,24,24,145,1,onethree,,,,,,,,,,,,,,,,,,,,,,,,,,,,,,,,,,,,,,,,,,,,,,,,,,,,,,,,,,,,,,,,,,,,,,,,,,,,,,,,,,,,,,,,,,,,,,,,,,,,,,,,,,,,,,,,,,,,,,,,,,,,,,,,,,,,,,,,,,,,,,,,,,,,,,,,,,,,,
,,,,,,5f10d13957b4763f401690e5,62c53b5f12f839c363f3eecd,2022-07-06_09h38.09.788,Colour_Asymmetry_Pilot,2022.1.3,Win32,59.84082341,62c50e9c1127f2cd403a315f,0,25,25,12,1,threeone,,,,,,,,,,,,,,,,,,,,,,,,,,,,,,,,,,,,,,,,,,,,,,,,,,,,,,,,,,,,,,,,,,,,,,,,,,,,,,,,,,,,,,,,,,,,,,,,,,,,,,,,,,,,,,,,,,,,,,,,,,,,,,,,,,,,,,,,,,,,,,,,,,,,,,,,,,,,,
,,,,,,5f10d13957b4763f401690e5,62c53b5f12f839c363f3eecd,2022-07-06_09h38.09.788,Colour_Asymmetry_Pilot,2022.1.3,Win32,59.84082341,62c50e9c1127f2cd403a315f,0,26,26,49,1,onethree,,,,,,,,,,,,,,,,,,,,,,,,,,,,,,,,,,,,,,,,,,,,,,,,,,,,,,,,,,,,,,,,,,,,,,,,,,,,,,,,,,,,,,,,,,,,,,,,,,,,,,,,,,,,,,,,,,,,,,,,,,,,,,,,,,,,,,,,,,,,,,,,,,,,,,,,,,,,,
,,,,,,5f10d13957b4763f401690e5,62c53b5f12f839c363f3eecd,2022-07-06_09h38.09.788,Colour_Asymmetry_Pilot,2022.1.3,Win32,59.84082341,62c50e9c1127f2cd403a315f,0,27,27,151,1,fourthree,,,,,,,,,,,,,,,,,,,,,,,,,,,,,,,,,,,,,,,,,,,,,,,,,,,,,,,,,,,,,,,,,,,,,,,,,,,,,,,,,,,,,,,,,,,,,,,,,,,,,,,,,,,,,,,,,,,,,,,,,,,,,,,,,,,,,,,,,,,,,,,,,,,,,,,,,,,,,
,,,,,,5f10d13957b4763f401690e5,62c53b5f12f839c363f3eecd,2022-07-06_09h38.09.788,Colour_Asymmetry_Pilot,2022.1.3,Win32,59.84082341,62c50e9c1127f2cd403a315f,0,28,28,150,1,fourtwo,,,,,,,,,,,,,,,,,,,,,,,,,,,,,,,,,,,,,,,,,,,,,,,,,,,,,,,,,,,,,,,,,,,,,,,,,,,,,,,,,,,,,,,,,,,,,,,,,,,,,,,,,,,,,,,,,,,,,,,,,,,,,,,,,,,,,,,,,,,,,,,,,,,,,,,,,,,,,
,,,,,,5f10d13957b4763f401690e5,62c53b5f12f839c363f3eecd,2022-07-06_09h38.09.788,Colour_Asymmetry_Pilot,2022.1.3,Win32,59.84082341,62c50e9c1127f2cd403a315f,0,29,29,77,1,threefour,,,,,,,,,,,,,,,,,,,,,,,,,,,,,,,,,,,,,,,,,,,,,,,,,,,,,,,,,,,,,,,,,,,,,,,,,,,,,,,,,,,,,,,,,,,,,,,,,,,,,,,,,,,,,,,,,,,,,,,,,,,,,,,,,,,,,,,,,,,,,,,,,,,,,,,,,,,,,
,,,,,,5f10d13957b4763f401690e5,62c53b5f12f839c363f3eecd,2022-07-06_09h38.09.788,Colour_Asymmetry_Pilot,2022.1.3,Win32,59.84082341,62c50e9c1127f2cd403a315f,0,30,30,104,1,onetwo,,,,,,,,,,,,,,,,,,,,,,,,,,,,,,,,,,,,,,,,,,,,,,,,,,,,,,,,,,,,,,,,,,,,,,,,,,,,,,,,,,,,,,,,,,,,,,,,,,,,,,,,,,,,,,,,,,,,,,,,,,,,,,,,,,,,,,,,,,,,,,,,,,,,,,,,,,,,,
,,,,,,5f10d13957b4763f401690e5,62c53b5f12f839c363f3eecd,2022-07-06_09h38.09.788,Colour_Asymmetry_Pilot,2022.1.3,Win32,59.84082341,62c50e9c1127f2cd403a315f,0,31,31,110,1,fourtwo,,,,,,,,,,,,,,,,,,,,,,,,,,,,,,,,,,,,,,,,,,,,,,,,,,,,,,,,,,,,,,,,,,,,,,,,,,,,,,,,,,,,,,,,,,,,,,,,,,,,,,,,,,,,,,,,,,,,,,,,,,,,,,,,,,,,,,,,,,,,,,,,,,,,,,,,,,,,,
,,,,,,5f10d13957b4763f401690e5,62c53b5f12f839c363f3eecd,2022-07-06_09h38.09.788,Colour_Asymmetry_Pilot,2022.1.3,Win32,59.84082341,62c50e9c1127f2cd403a315f,0,32,32,85,1,threefour,,,,,,,,,,,,,,,,,,,,,,,,,,,,,,,,,,,,,,,,,,,,,,,,,,,,,,,,,,,,,,,,,,,,,,,,,,,,,,,,,,,,,,,,,,,,,,,,,,,,,,,,,,,,,,,,,,,,,,,,,,,,,,,,,,,,,,,,,,,,,,,,,,,,,,,,,,,,,
,,,,,,5f10d13957b4763f401690e5,62c53b5f12f839c363f3eecd,2022-07-06_09h38.09.788,Colour_Asymmetry_Pilot,2022.1.3,Win32,59.84082341,62c50e9c1127f2cd403a315f,0,33,33,23,1,fourthree,,,,,,,,,,,,,,,,,,,,,,,,,,,,,,,,,,,,,,,,,,,,,,,,,,,,,,,,,,,,,,,,,,,,,,,,,,,,,,,,,,,,,,,,,,,,,,,,,,,,,,,,,,,,,,,,,,,,,,,,,,,,,,,,,,,,,,,,,,,,,,,,,,,,,,,,,,,,,
,,,,,,5f10d13957b4763f401690e5,62c53b5f12f839c363f3eecd,2022-07-06_09h38.09.788,Colour_Asymmetry_Pilot,2022.1.3,Win32,59.84082341,62c50e9c1127f2cd403a315f,0,34,34,144,1,onetwo,,,,,,,,,,,,,,,,,,,,,,,,,,,,,,,,,,,,,,,,,,,,,,,,,,,,,,,,,,,,,,,,,,,,,,,,,,,,,,,,,,,,,,,,,,,,,,,,,,,,,,,,,,,,,,,,,,,,,,,,,,,,,,,,,,,,,,,,,,,,,,,,,,,,,,,,,,,,,
,,,,,,5f10d13957b4763f401690e5,62c53b5f12f839c363f3eecd,2022-07-06_09h38.09.788,Colour_Asymmetry_Pilot,2022.1.3,Win32,59.84082341,62c50e9c1127f2cd403a315f,0,35,35,20,1,threeone,,,,,,,,,,,,,,,,,,,,,,,,,,,,,,,,,,,,,,,,,,,,,,,,,,,,,,,,,,,,,,,,,,,,,,,,,,,,,,,,,,,,,,,,,,,,,,,,,,,,,,,,,,,,,,,,,,,,,,,,,,,,,,,,,,,,,,,,,,,,,,,,,,,,,,,,,,,,,
,,,,,,5f10d13957b4763f401690e5,62c53b5f12f839c363f3eecd,2022-07-06_09h38.09.788,Colour_Asymmetry_Pilot,2022.1.3,Win32,59.84082341,62c50e9c1127f2cd403a315f,0,36,36,21,1,threefour,,,,,,,,,,,,,,,,,,,,,,,,,,,,,,,,,,,,,,,,,,,,,,,,,,,,,,,,,,,,,,,,,,,,,,,,,,,,,,,,,,,,,,,,,,,,,,,,,,,,,,,,,,,,,,,,,,,,,,,,,,,,,,,,,,,,,,,,,,,,,,,,,,,,,,,,,,,,,
,,,,,,5f10d13957b4763f401690e5,62c53b5f12f839c363f3eecd,2022-07-06_09h38.09.788,Colour_Asymmetry_Pilot,2022.1.3,Win32,59.84082341,62c50e9c1127f2cd403a315f,0,37,37,79,1,fourthree,,,,,,,,,,,,,,,,,,,,,,,,,,,,,,,,,,,,,,,,,,,,,,,,,,,,,,,,,,,,,,,,,,,,,,,,,,,,,,,,,,,,,,,,,,,,,,,,,,,,,,,,,,,,,,,,,,,,,,,,,,,,,,,,,,,,,,,,,,,,,,,,,,,,,,,,,,,,,
,,,,,,5f10d13957b4763f401690e5,62c53b5f12f839c363f3eecd,2022-07-06_09h38.09.788,Colour_Asymmetry_Pilot,2022.1.3,Win32,59.84082341,62c50e9c1127f2cd403a315f,0,38,38,98,1,twoone,,,,,,,,,,,,,,,,,,,,,,,,,,,,,,,,,,,,,,,,,,,,,,,,,,,,,,,,,,,,,,,,,,,,,,,,,,,,,,,,,,,,,,,,,,,,,,,,,,,,,,,,,,,,,,,,,,,,,,,,,,,,,,,,,,,,,,,,,,,,,,,,,,,,,,,,,,,,,
,,,,,,5f10d13957b4763f401690e5,62c53b5f12f839c363f3eecd,2022-07-06_09h38.09.788,Colour_Asymmetry_Pilot,2022.1.3,Win32,59.84082341,62c50e9c1127f2cd403a315f,0,39,39,128,1,onetwo,,,,,,,,,,,,,,,,,,,,,,,,,,,,,,,,,,,,,,,,,,,,,,,,,,,,,,,,,,,,,,,,,,,,,,,,,,,,,,,,,,,,,,,,,,,,,,,,,,,,,,,,,,,,,,,,,,,,,,,,,,,,,,,,,,,,,,,,,,,,,,,,,,,,,,,,,,,,,
,,,,,,5f10d13957b4763f401690e5,62c53b5f12f839c363f3eecd,2022-07-06_09h38.09.788,Colour_Asymmetry_Pilot,2022.1.3,Win32,59.84082341,62c50e9c1127f2cd403a315f,0,40,40,88,1,onetwo,,,,,,,,,,,,,,,,,,,,,,,,,,,,,,,,,,,,,,,,,,,,,,,,,,,,,,,,,,,,,,,,,,,,,,,,,,,,,,,,,,,,,,,,,,,,,,,,,,,,,,,,,,,,,,,,,,,,,,,,,,,,,,,,,,,,,,,,,,,,,,,,,,,,,,,,,,,,,
,,,,,,5f10d13957b4763f401690e5,62c53b5f12f839c363f3eecd,2022-07-06_09h38.09.788,Colour_Asymmetry_Pilot,2022.1.3,Win32,59.84082341,62c50e9c1127f2cd403a315f,0,41,41,72,1,onetwo,,,,,,,,,,,,,,,,,,,,,,,,,,,,,,,,,,,,,,,,,,,,,,,,,,,,,,,,,,,,,,,,,,,,,,,,,,,,,,,,,,,,,,,,,,,,,,,,,,,,,,,,,,,,,,,,,,,,,,,,,,,,,,,,,,,,,,,,,,,,,,,,,,,,,,,,,,,,,
,,,,,,5f10d13957b4763f401690e5,62c53b5f12f839c363f3eecd,2022-07-06_09h38.09.788,Colour_Asymmetry_Pilot,2022.1.3,Win32,59.84082341,62c50e9c1127f2cd403a315f,0,42,42,149,1,threefour,,,,,,,,,,,,,,,,,,,,,,,,,,,,,,,,,,,,,,,,,,,,,,,,,,,,,,,,,,,,,,,,,,,,,,,,,,,,,,,,,,,,,,,,,,,,,,,,,,,,,,,,,,,,,,,,,,,,,,,,,,,,,,,,,,,,,,,,,,,,,,,,,,,,,,,,,,,,,
,,,,,,5f10d13957b4763f401690e5,62c53b5f12f839c363f3eecd,2022-07-06_09h38.09.788,Colour_Asymmetry_Pilot,2022.1.3,Win32,59.84082341,62c50e9c1127f2cd403a315f,0,43,43,51,1,twofour,,,,,,,,,,,,,,,,,,,,,,,,,,,,,,,,,,,,,,,,,,,,,,,,,,,,,,,,,,,,,,,,,,,,,,,,,,,,,,,,,,,,,,,,,,,,,,,,,,,,,,,,,,,,,,,,,,,,,,,,,,,,,,,,,,,,,,,,,,,,,,,,,,,,,,,,,,,,,
,,,,,,5f10d13957b4763f401690e5,62c53b5f12f839c363f3eecd,2022-07-06_09h38.09.788,Colour_Asymmetry_Pilot,2022.1.3,Win32,59.84082341,62c50e9c1127f2cd403a315f,0,44,44,113,1,onethree,,,,,,,,,,,,,,,,,,,,,,,,,,,,,,,,,,,,,,,,,,,,,,,,,,,,,,,,,,,,,,,,,,,,,,,,,,,,,,,,,,,,,,,,,,,,,,,,,,,,,,,,,,,,,,,,,,,,,,,,,,,,,,,,,,,,,,,,,,,,,,,,,,,,,,,,,,,,,
,,,,,,5f10d13957b4763f401690e5,62c53b5f12f839c363f3eecd,2022-07-06_09h38.09.788,Colour_Asymmetry_Pilot,2022.1.3,Win32,59.84082341,62c50e9c1127f2cd403a315f,0,45,45,131,1,twofour,,,,,,,,,,,,,,,,,,,,,,,,,,,,,,,,,,,,,,,,,,,,,,,,,,,,,,,,,,,,,,,,,,,,,,,,,,,,,,,,,,,,,,,,,,,,,,,,,,,,,,,,,,,,,,,,,,,,,,,,,,,,,,,,,,,,,,,,,,,,,,,,,,,,,,,,,,,,,
,,,,,,5f10d13957b4763f401690e5,62c53b5f12f839c363f3eecd,2022-07-06_09h38.09.788,Colour_Asymmetry_Pilot,2022.1.3,Win32,59.84082341,62c50e9c1127f2cd403a315f,0,46,46,118,1,fourtwo,,,,,,,,,,,,,,,,,,,,,,,,,,,,,,,,,,,,,,,,,,,,,,,,,,,,,,,,,,,,,,,,,,,,,,,,,,,,,,,,,,,,,,,,,,,,,,,,,,,,,,,,,,,,,,,,,,,,,,,,,,,,,,,,,,,,,,,,,,,,,,,,,,,,,,,,,,,,,
,,,,,,5f10d13957b4763f401690e5,62c53b5f12f839c363f3eecd,2022-07-06_09h38.09.788,Colour_Asymmetry_Pilot,2022.1.3,Win32,59.84082341,62c50e9c1127f2cd403a315f,0,47,47,59,1,twofour,,,,,,,,,,,,,,,,,,,,,,,,,,,,,,,,,,,,,,,,,,,,,,,,,,,,,,,,,,,,,,,,,,,,,,,,,,,,,,,,,,,,,,,,,,,,,,,,,,,,,,,,,,,,,,,,,,,,,,,,,,,,,,,,,,,,,,,,,,,,,,,,,,,,,,,,,,,,,
,,,,,,5f10d13957b4763f401690e5,62c53b5f12f839c363f3eecd,2022-07-06_09h38.09.788,Colour_Asymmetry_Pilot,2022.1.3,Win32,59.84082341,62c50e9c1127f2cd403a315f,0,48,48,96,1,onetwo,,,,,,,,,,,,,,,,,,,,,,,,,,,,,,,,,,,,,,,,,,,,,,,,,,,,,,,,,,,,,,,,,,,,,,,,,,,,,,,,,,,,,,,,,,,,,,,,,,,,,,,,,,,,,,,,,,,,,,,,,,,,,,,,,,,,,,,,,,,,,,,,,,,,,,,,,,,,,
,,,,,,5f10d13957b4763f401690e5,62c53b5f12f839c363f3eecd,2022-07-06_09h38.09.788,Colour_Asymmetry_Pilot,2022.1.3,Win32,59.84082341,62c50e9c1127f2cd403a315f,0,49,49,84,1,threeone,,,,,,,,,,,,,,,,,,,,,,,,,,,,,,,,,,,,,,,,,,,,,,,,,,,,,,,,,,,,,,,,,,,,,,,,,,,,,,,,,,,,,,,,,,,,,,,,,,,,,,,,,,,,,,,,,,,,,,,,,,,,,,,,,,,,,,,,,,,,,,,,,,,,,,,,,,,,,
,,,,,,5f10d13957b4763f401690e5,62c53b5f12f839c363f3eecd,2022-07-06_09h38.09.788,Colour_Asymmetry_Pilot,2022.1.3,Win32,59.84082341,62c50e9c1127f2cd403a315f,0,50,50,132,1,threeone,,,,,,,,,,,,,,,,,,,,,,,,,,,,,,,,,,,,,,,,,,,,,,,,,,,,,,,,,,,,,,,,,,,,,,,,,,,,,,,,,,,,,,,,,,,,,,,,,,,,,,,,,,,,,,,,,,,,,,,,,,,,,,,,,,,,,,,,,,,,,,,,,,,,,,,,,,,,,
,,,,,,5f10d13957b4763f401690e5,62c53b5f12f839c363f3eecd,2022-07-06_09h38.09.788,Colour_Asymmetry_Pilot,2022.1.3,Win32,59.84082341,62c50e9c1127f2cd403a315f,0,51,51,28,1,threeone,,,,,,,,,,,,,,,,,,,,,,,,,,,,,,,,,,,,,,,,,,,,,,,,,,,,,,,,,,,,,,,,,,,,,,,,,,,,,,,,,,,,,,,,,,,,,,,,,,,,,,,,,,,,,,,,,,,,,,,,,,,,,,,,,,,,,,,,,,,,,,,,,,,,,,,,,,,,,
,,,,,,5f10d13957b4763f401690e5,62c53b5f12f839c363f3eecd,2022-07-06_09h38.09.788,Colour_Asymmetry_Pilot,2022.1.3,Win32,59.84082341,62c50e9c1127f2cd403a315f,0,52,52,68,1,threeone,,,,,,,,,,,,,,,,,,,,,,,,,,,,,,,,,,,,,,,,,,,,,,,,,,,,,,,,,,,,,,,,,,,,,,,,,,,,,,,,,,,,,,,,,,,,,,,,,,,,,,,,,,,,,,,,,,,,,,,,,,,,,,,,,,,,,,,,,,,,,,,,,,,,,,,,,,,,,
,,,,,,5f10d13957b4763f401690e5,62c53b5f12f839c363f3eecd,2022-07-06_09h38.09.788,Colour_Asymmetry_Pilot,2022.1.3,Win32,59.84082341,62c50e9c1127f2cd403a315f,0,53,53,86,1,fourtwo,,,,,,,,,,,,,,,,,,,,,,,,,,,,,,,,,,,,,,,,,,,,,,,,,,,,,,,,,,,,,,,,,,,,,,,,,,,,,,,,,,,,,,,,,,,,,,,,,,,,,,,,,,,,,,,,,,,,,,,,,,,,,,,,,,,,,,,,,,,,,,,,,,,,,,,,,,,,,
,,,,,,5f10d13957b4763f401690e5,62c53b5f12f839c363f3eecd,2022-07-06_09h38.09.788,Colour_Asymmetry_Pilot,2022.1.3,Win32,59.84082341,62c50e9c1127f2cd403a315f,0,54,54,127,1,fourthree,,,,,,,,,,,,,,,,,,,,,,,,,,,,,,,,,,,,,,,,,,,,,,,,,,,,,,,,,,,,,,,,,,,,,,,,,,,,,,,,,,,,,,,,,,,,,,,,,,,,,,,,,,,,,,,,,,,,,,,,,,,,,,,,,,,,,,,,,,,,,,,,,,,,,,,,,,,,,
,,,,,,5f10d13957b4763f401690e5,62c53b5f12f839c363f3eecd,2022-07-06_09h38.09.788,Colour_Asymmetry_Pilot,2022.1.3,Win32,59.84082341,62c50e9c1127f2cd403a315f,0,55,55,18,1,twoone,,,,,,,,,,,,,,,,,,,,,,,,,,,,,,,,,,,,,,,,,,,,,,,,,,,,,,,,,,,,,,,,,,,,,,,,,,,,,,,,,,,,,,,,,,,,,,,,,,,,,,,,,,,,,,,,,,,,,,,,,,,,,,,,,,,,,,,,,,,,,,,,,,,,,,,,,,,,,
,,,,,,5f10d13957b4763f401690e5,62c53b5f12f839c363f3eecd,2022-07-06_09h38.09.788,Colour_Asymmetry_Pilot,2022.1.3,Win32,59.84082341,62c50e9c1127f2cd403a315f,0,56,56,62,1,fourtwo,,,,,,,,,,,,,,,,,,,,,,,,,,,,,,,,,,,,,,,,,,,,,,,,,,,,,,,,,,,,,,,,,,,,,,,,,,,,,,,,,,,,,,,,,,,,,,,,,,,,,,,,,,,,,,,,,,,,,,,,,,,,,,,,,,,,,,,,,,,,,,,,,,,,,,,,,,,,,
,,,,,,5f10d13957b4763f401690e5,62c53b5f12f839c363f3eecd,2022-07-06_09h38.09.788,Colour_Asymmetry_Pilot,2022.1.3,Win32,59.84082341,62c50e9c1127f2cd403a315f,0,57,57,90,1,twoone,,,,,,,,,,,,,,,,,,,,,,,,,,,,,,,,,,,,,,,,,,,,,,,,,,,,,,,,,,,,,,,,,,,,,,,,,,,,,,,,,,,,,,,,,,,,,,,,,,,,,,,,,,,,,,,,,,,,,,,,,,,,,,,,,,,,,,,,,,,,,,,,,,,,,,,,,,,,,
,,,,,,5f10d13957b4763f401690e5,62c53b5f12f839c363f3eecd,2022-07-06_09h38.09.788,Colour_Asymmetry_Pilot,2022.1.3,Win32,59.84082341,62c50e9c1127f2cd403a315f,0,58,58,81,1,onethree,,,,,,,,,,,,,,,,,,,,,,,,,,,,,,,,,,,,,,,,,,,,,,,,,,,,,,,,,,,,,,,,,,,,,,,,,,,,,,,,,,,,,,,,,,,,,,,,,,,,,,,,,,,,,,,,,,,,,,,,,,,,,,,,,,,,,,,,,,,,,,,,,,,,,,,,,,,,,
,,,,,,5f10d13957b4763f401690e5,62c53b5f12f839c363f3eecd,2022-07-06_09h38.09.788,Colour_Asymmetry_Pilot,2022.1.3,Win32,59.84082341,62c50e9c1127f2cd403a315f,0,59,59,43,1,twofour,,,,,,,,,,,,,,,,,,,,,,,,,,,,,,,,,,,,,,,,,,,,,,,,,,,,,,,,,,,,,,,,,,,,,,,,,,,,,,,,,,,,,,,,,,,,,,,,,,,,,,,,,,,,,,,,,,,,,,,,,,,,,,,,,,,,,,,,,,,,,,,,,,,,,,,,,,,,,
,,,,,,5f10d13957b4763f401690e5,62c53b5f12f839c363f3eecd,2022-07-06_09h38.09.788,Colour_Asymmetry_Pilot,2022.1.3,Win32,59.84082341,62c50e9c1127f2cd403a315f,0,60,60,24,1,onetwo,,,,,,,,,,,,,,,,,,,,,,,,,,,,,,,,,,,,,,,,,,,,,,,,,,,,,,,,,,,,,,,,,,,,,,,,,,,,,,,,,,,,,,,,,,,,,,,,,,,,,,,,,,,,,,,,,,,,,,,,,,,,,,,,,,,,,,,,,,,,,,,,,,,,,,,,,,,,,
,,,,,,5f10d13957b4763f401690e5,62c53b5f12f839c363f3eecd,2022-07-06_09h38.09.788,Colour_Asymmetry_Pilot,2022.1.3,Win32,59.84082341,62c50e9c1127f2cd403a315f,0,61,61,123,1,twofour,,,,,,,,,,,,,,,,,,,,,,,,,,,,,,,,,,,,,,,,,,,,,,,,,,,,,,,,,,,,,,,,,,,,,,,,,,,,,,,,,,,,,,,,,,,,,,,,,,,,,,,,,,,,,,,,,,,,,,,,,,,,,,,,,,,,,,,,,,,,,,,,,,,,,,,,,,,,,
,,,,,,5f10d13957b4763f401690e5,62c53b5f12f839c363f3eecd,2022-07-06_09h38.09.788,Colour_Asymmetry_Pilot,2022.1.3,Win32,59.84082341,62c50e9c1127f2cd403a315f,0,62,62,1,1,onethree,,,,,,,,,,,,,,,,,,,,,,,,,,,,,,,,,,,,,,,,,,,,,,,,,,,,,,,,,,,,,,,,,,,,,,,,,,,,,,,,,,,,,,,,,,,,,,,,,,,,,,,,,,,,,,,,,,,,,,,,,,,,,,,,,,,,,,,,,,,,,,,,,,,,,,,,,,,,,
,,,,,,5f10d13957b4763f401690e5,62c53b5f12f839c363f3eecd,2022-07-06_09h38.09.788,Colour_Asymmetry_Pilot,2022.1.3,Win32,59.84082341,62c50e9c1127f2cd403a315f,0,63,63,4,1,threeone,,,,,,,,,,,,,,,,,,,,,,,,,,,,,,,,,,,,,,,,,,,,,,,,,,,,,,,,,,,,,,,,,,,,,,,,,,,,,,,,,,,,,,,,,,,,,,,,,,,,,,,,,,,,,,,,,,,,,,,,,,,,,,,,,,,,,,,,,,,,,,,,,,,,,,,,,,,,,
,,,,,,5f10d13957b4763f401690e5,62c53b5f12f839c363f3eecd,2022-07-06_09h38.09.788,Colour_Asymmetry_Pilot,2022.1.3,Win32,59.84082341,62c50e9c1127f2cd403a315f,0,64,64,125,1,threefour,,,,,,,,,,,,,,,,,,,,,,,,,,,,,,,,,,,,,,,,,,,,,,,,,,,,,,,,,,,,,,,,,,,,,,,,,,,,,,,,,,,,,,,,,,,,,,,,,,,,,,,,,,,,,,,,,,,,,,,,,,,,,,,,,,,,,,,,,,,,,,,,,,,,,,,,,,,,,
,,,,,,5f10d13957b4763f401690e5,62c53b5f12f839c363f3eecd,2022-07-06_09h38.09.788,Colour_Asymmetry_Pilot,2022.1.3,Win32,59.84082341,62c50e9c1127f2cd403a315f,0,65,65,6,1,fourtwo,,,,,,,,,,,,,,,,,,,,,,,,,,,,,,,,,,,,,,,,,,,,,,,,,,,,,,,,,,,,,,,,,,,,,,,,,,,,,,,,,,,,,,,,,,,,,,,,,,,,,,,,,,,,,,,,,,,,,,,,,,,,,,,,,,,,,,,,,,,,,,,,,,,,,,,,,,,,,
,,,,,,5f10d13957b4763f401690e5,62c53b5f12f839c363f3eecd,2022-07-06_09h38.09.788,Colour_Asymmetry_Pilot,2022.1.3,Win32,59.84082341,62c50e9c1127f2cd403a315f,0,66,66,106,1,twoone,,,,,,,,,,,,,,,,,,,,,,,,,,,,,,,,,,,,,,,,,,,,,,,,,,,,,,,,,,,,,,,,,,,,,,,,,,,,,,,,,,,,,,,,,,,,,,,,,,,,,,,,,,,,,,,,,,,,,,,,,,,,,,,,,,,,,,,,,,,,,,,,,,,,,,,,,,,,,
,,,,,,5f10d13957b4763f401690e5,62c53b5f12f839c363f3eecd,2022-07-06_09h38.09.788,Colour_Asymmetry_Pilot,2022.1.3,Win32,59.84082341,62c50e9c1127f2cd403a315f,0,67,67,112,1,onetwo,,,,,,,,,,,,,,,,,,,,,,,,,,,,,,,,,,,,,,,,,,,,,,,,,,,,,,,,,,,,,,,,,,,,,,,,,,,,,,,,,,,,,,,,,,,,,,,,,,,,,,,,,,,,,,,,,,,,,,,,,,,,,,,,,,,,,,,,,,,,,,,,,,,,,,,,,,,,,
,,,,,,5f10d13957b4763f401690e5,62c53b5f12f839c363f3eecd,2022-07-06_09h38.09.788,Colour_Asymmetry_Pilot,2022.1.3,Win32,59.84082341,62c50e9c1127f2cd403a315f,0,68,68,3,1,twofour,,,,,,,,,,,,,,,,,,,,,,,,,,,,,,,,,,,,,,,,,,,,,,,,,,,,,,,,,,,,,,,,,,,,,,,,,,,,,,,,,,,,,,,,,,,,,,,,,,,,,,,,,,,,,,,,,,,,,,,,,,,,,,,,,,,,,,,,,,,,,,,,,,,,,,,,,,,,,
,,,,,,5f10d13957b4763f401690e5,62c53b5f12f839c363f3eecd,2022-07-06_09h38.09.788,Colour_Asymmetry_Pilot,2022.1.3,Win32,59.84082341,62c50e9c1127f2cd403a315f,0,69,69,140,1,threeone,,,,,,,,,,,,,,,,,,,,,,,,,,,,,,,,,,,,,,,,,,,,,,,,,,,,,,,,,,,,,,,,,,,,,,,,,,,,,,,,,,,,,,,,,,,,,,,,,,,,,,,,,,,,,,,,,,,,,,,,,,,,,,,,,,,,,,,,,,,,,,,,,,,,,,,,,,,,,
,,,,,,5f10d13957b4763f401690e5,62c53b5f12f839c363f3eecd,2022-07-06_09h38.09.788,Colour_Asymmetry_Pilot,2022.1.3,Win32,59.84082341,62c50e9c1127f2cd403a315f,0,70,70,29,1,threefour,,,,,,,,,,,,,,,,,,,,,,,,,,,,,,,,,,,,,,,,,,,,,,,,,,,,,,,,,,,,,,,,,,,,,,,,,,,,,,,,,,,,,,,,,,,,,,,,,,,,,,,,,,,,,,,,,,,,,,,,,,,,,,,,,,,,,,,,,,,,,,,,,,,,,,,,,,,,,
,,,,,,5f10d13957b4763f401690e5,62c53b5f12f839c363f3eecd,2022-07-06_09h38.09.788,Colour_Asymmetry_Pilot,2022.1.3,Win32,59.84082341,62c50e9c1127f2cd403a315f,0,71,71,67,1,twofour,,,,,,,,,,,,,,,,,,,,,,,,,,,,,,,,,,,,,,,,,,,,,,,,,,,,,,,,,,,,,,,,,,,,,,,,,,,,,,,,,,,,,,,,,,,,,,,,,,,,,,,,,,,,,,,,,,,,,,,,,,,,,,,,,,,,,,,,,,,,,,,,,,,,,,,,,,,,,
,,,,,,5f10d13957b4763f401690e5,62c53b5f12f839c363f3eecd,2022-07-06_09h38.09.788,Colour_Asymmetry_Pilot,2022.1.3,Win32,59.84082341,62c50e9c1127f2cd403a315f,0,72,72,101,1,threefour,,,,,,,,,,,,,,,,,,,,,,,,,,,,,,,,,,,,,,,,,,,,,,,,,,,,,,,,,,,,,,,,,,,,,,,,,,,,,,,,,,,,,,,,,,,,,,,,,,,,,,,,,,,,,,,,,,,,,,,,,,,,,,,,,,,,,,,,,,,,,,,,,,,,,,,,,,,,,
,,,,,,5f10d13957b4763f401690e5,62c53b5f12f839c363f3eecd,2022-07-06_09h38.09.788,Colour_Asymmetry_Pilot,2022.1.3,Win32,59.84082341,62c50e9c1127f2cd403a315f,0,73,73,91,1,twofour,,,,,,,,,,,,,,,,,,,,,,,,,,,,,,,,,,,,,,,,,,,,,,,,,,,,,,,,,,,,,,,,,,,,,,,,,,,,,,,,,,,,,,,,,,,,,,,,,,,,,,,,,,,,,,,,,,,,,,,,,,,,,,,,,,,,,,,,,,,,,,,,,,,,,,,,,,,,,
,,,,,,5f10d13957b4763f401690e5,62c53b5f12f839c363f3eecd,2022-07-06_09h38.09.788,Colour_Asymmetry_Pilot,2022.1.3,Win32,59.84082341,62c50e9c1127f2cd403a315f,0,74,74,130,1,twoone,,,,,,,,,,,,,,,,,,,,,,,,,,,,,,,,,,,,,,,,,,,,,,,,,,,,,,,,,,,,,,,,,,,,,,,,,,,,,,,,,,,,,,,,,,,,,,,,,,,,,,,,,,,,,,,,,,,,,,,,,,,,,,,,,,,,,,,,,,,,,,,,,,,,,,,,,,,,,
,,,,,,5f10d13957b4763f401690e5,62c53b5f12f839c363f3eecd,2022-07-06_09h38.09.788,Colour_Asymmetry_Pilot,2022.1.3,Win32,59.84082341,62c50e9c1127f2cd403a315f,0,75,75,82,1,twoone,,,,,,,,,,,,,,,,,,,,,,,,,,,,,,,,,,,,,,,,,,,,,,,,,,,,,,,,,,,,,,,,,,,,,,,,,,,,,,,,,,,,,,,,,,,,,,,,,,,,,,,,,,,,,,,,,,,,,,,,,,,,,,,,,,,,,,,,,,,,,,,,,,,,,,,,,,,,,
,,,,,,5f10d13957b4763f401690e5,62c53b5f12f839c363f3eecd,2022-07-06_09h38.09.788,Colour_Asymmetry_Pilot,2022.1.3,Win32,59.84082341,62c50e9c1127f2cd403a315f,0,76,76,102,1,fourtwo,,,,,,,,,,,,,,,,,,,,,,,,,,,,,,,,,,,,,,,,,,,,,,,,,,,,,,,,,,,,,,,,,,,,,,,,,,,,,,,,,,,,,,,,,,,,,,,,,,,,,,,,,,,,,,,,,,,,,,,,,,,,,,,,,,,,,,,,,,,,,,,,,,,,,,,,,,,,,
,,,,,,5f10d13957b4763f401690e5,62c53b5f12f839c363f3eecd,2022-07-06_09h38.09.788,Colour_Asymmetry_Pilot,2022.1.3,Win32,59.84082341,62c50e9c1127f2cd403a315f,0,77,77,136,1,onetwo,,,,,,,,,,,,,,,,,,,,,,,,,,,,,,,,,,,,,,,,,,,,,,,,,,,,,,,,,,,,,,,,,,,,,,,,,,,,,,,,,,,,,,,,,,,,,,,,,,,,,,,,,,,,,,,,,,,,,,,,,,,,,,,,,,,,,,,,,,,,,,,,,,,,,,,,,,,,,
,,,,,,5f10d13957b4763f401690e5,62c53b5f12f839c363f3eecd,2022-07-06_09h38.09.788,Colour_Asymmetry_Pilot,2022.1.3,Win32,59.84082341,62c50e9c1127f2cd403a315f,0,78,78,47,1,fourthree,,,,,,,,,,,,,,,,,,,,,,,,,,,,,,,,,,,,,,,,,,,,,,,,,,,,,,,,,,,,,,,,,,,,,,,,,,,,,,,,,,,,,,,,,,,,,,,,,,,,,,,,,,,,,,,,,,,,,,,,,,,,,,,,,,,,,,,,,,,,,,,,,,,,,,,,,,,,,
,,,,,,5f10d13957b4763f401690e5,62c53b5f12f839c363f3eecd,2022-07-06_09h38.09.788,Colour_Asymmetry_Pilot,2022.1.3,Win32,59.84082341,62c50e9c1127f2cd403a315f,0,79,79,155,1,twofour,,,,,,,,,,,,,,,,,,,,,,,,,,,,,,,,,,,,,,,,,,,,,,,,,,,,,,,,,,,,,,,,,,,,,,,,,,,,,,,,,,,,,,,,,,,,,,,,,,,,,,,,,,,,,,,,,,,,,,,,,,,,,,,,,,,,,,,,,,,,,,,,,,,,,,,,,,,,,
,,,,,,5f10d13957b4763f401690e5,62c53b5f12f839c363f3eecd,2022-07-06_09h38.09.788,Colour_Asymmetry_Pilot,2022.1.3,Win32,59.84082341,62c50e9c1127f2cd403a315f,0,80,80,133,1,threefour,,,,,,,,,,,,,,,,,,,,,,,,,,,,,,,,,,,,,,,,,,,,,,,,,,,,,,,,,,,,,,,,,,,,,,,,,,,,,,,,,,,,,,,,,,,,,,,,,,,,,,,,,,,,,,,,,,,,,,,,,,,,,,,,,,,,,,,,,,,,,,,,,,,,,,,,,,,,,
,,,,,,5f10d13957b4763f401690e5,62c53b5f12f839c363f3eecd,2022-07-06_09h38.09.788,Colour_Asymmetry_Pilot,2022.1.3,Win32,59.84082341,62c50e9c1127f2cd403a315f,0,81,81,45,1,threefour,,,,,,,,,,,,,,,,,,,,,,,,,,,,,,,,,,,,,,,,,,,,,,,,,,,,,,,,,,,,,,,,,,,,,,,,,,,,,,,,,,,,,,,,,,,,,,,,,,,,,,,,,,,,,,,,,,,,,,,,,,,,,,,,,,,,,,,,,,,,,,,,,,,,,,,,,,,,,
,,,,,,5f10d13957b4763f401690e5,62c53b5f12f839c363f3eecd,2022-07-06_09h38.09.788,Colour_Asymmetry_Pilot,2022.1.3,Win32,59.84082341,62c50e9c1127f2cd403a315f,0,82,82,39,1,fourthree,,,,,,,,,,,,,,,,,,,,,,,,,,,,,,,,,,,,,,,,,,,,,,,,,,,,,,,,,,,,,,,,,,,,,,,,,,,,,,,,,,,,,,,,,,,,,,,,,,,,,,,,,,,,,,,,,,,,,,,,,,,,,,,,,,,,,,,,,,,,,,,,,,,,,,,,,,,,,
,,,,,,5f10d13957b4763f401690e5,62c53b5f12f839c363f3eecd,2022-07-06_09h38.09.788,Colour_Asymmetry_Pilot,2022.1.3,Win32,59.84082341,62c50e9c1127f2cd403a315f,0,83,83,13,1,threefour,,,,,,,,,,,,,,,,,,,,,,,,,,,,,,,,,,,,,,,,,,,,,,,,,,,,,,,,,,,,,,,,,,,,,,,,,,,,,,,,,,,,,,,,,,,,,,,,,,,,,,,,,,,,,,,,,,,,,,,,,,,,,,,,,,,,,,,,,,,,,,,,,,,,,,,,,,,,,
,,,,,,5f10d13957b4763f401690e5,62c53b5f12f839c363f3eecd,2022-07-06_09h38.09.788,Colour_Asymmetry_Pilot,2022.1.3,Win32,59.84082341,62c50e9c1127f2cd403a315f,0,84,84,42,1,twoone,,,,,,,,,,,,,,,,,,,,,,,,,,,,,,,,,,,,,,,,,,,,,,,,,,,,,,,,,,,,,,,,,,,,,,,,,,,,,,,,,,,,,,,,,,,,,,,,,,,,,,,,,,,,,,,,,,,,,,,,,,,,,,,,,,,,,,,,,,,,,,,,,,,,,,,,,,,,,
,,,,,,5f10d13957b4763f401690e5,62c53b5f12f839c363f3eecd,2022-07-06_09h38.09.788,Colour_Asymmetry_Pilot,2022.1.3,Win32,59.84082341,62c50e9c1127f2cd403a315f,0,85,85,147,1,twofour,,,,,,,,,,,,,,,,,,,,,,,,,,,,,,,,,,,,,,,,,,,,,,,,,,,,,,,,,,,,,,,,,,,,,,,,,,,,,,,,,,,,,,,,,,,,,,,,,,,,,,,,,,,,,,,,,,,,,,,,,,,,,,,,,,,,,,,,,,,,,,,,,,,,,,,,,,,,,
,,,,,,5f10d13957b4763f401690e5,62c53b5f12f839c363f3eecd,2022-07-06_09h38.09.788,Colour_Asymmetry_Pilot,2022.1.3,Win32,59.84082341,62c50e9c1127f2cd403a315f,0,86,86,139,1,twofour,,,,,,,,,,,,,,,,,,,,,,,,,,,,,,,,,,,,,,,,,,,,,,,,,,,,,,,,,,,,,,,,,,,,,,,,,,,,,,,,,,,,,,,,,,,,,,,,,,,,,,,,,,,,,,,,,,,,,,,,,,,,,,,,,,,,,,,,,,,,,,,,,,,,,,,,,,,,,
,,,,,,5f10d13957b4763f401690e5,62c53b5f12f839c363f3eecd,2022-07-06_09h38.09.788,Colour_Asymmetry_Pilot,2022.1.3,Win32,59.84082341,62c50e9c1127f2cd403a315f,0,87,87,129,1,onethree,,,,,,,,,,,,,,,,,,,,,,,,,,,,,,,,,,,,,,,,,,,,,,,,,,,,,,,,,,,,,,,,,,,,,,,,,,,,,,,,,,,,,,,,,,,,,,,,,,,,,,,,,,,,,,,,,,,,,,,,,,,,,,,,,,,,,,,,,,,,,,,,,,,,,,,,,,,,,
,,,,,,5f10d13957b4763f401690e5,62c53b5f12f839c363f3eecd,2022-07-06_09h38.09.788,Colour_Asymmetry_Pilot,2022.1.3,Win32,59.84082341,62c50e9c1127f2cd403a315f,0,88,88,97,1,onethree,,,,,,,,,,,,,,,,,,,,,,,,,,,,,,,,,,,,,,,,,,,,,,,,,,,,,,,,,,,,,,,,,,,,,,,,,,,,,,,,,,,,,,,,,,,,,,,,,,,,,,,,,,,,,,,,,,,,,,,,,,,,,,,,,,,,,,,,,,,,,,,,,,,,,,,,,,,,,
,,,,,,5f10d13957b4763f401690e5,62c53b5f12f839c363f3eecd,2022-07-06_09h38.09.788,Colour_Asymmetry_Pilot,2022.1.3,Win32,59.84082341,62c50e9c1127f2cd403a315f,0,89,89,57,1,onethree,,,,,,,,,,,,,,,,,,,,,,,,,,,,,,,,,,,,,,,,,,,,,,,,,,,,,,,,,,,,,,,,,,,,,,,,,,,,,,,,,,,,,,,,,,,,,,,,,,,,,,,,,,,,,,,,,,,,,,,,,,,,,,,,,,,,,,,,,,,,,,,,,,,,,,,,,,,,,
,,,,,,5f10d13957b4763f401690e5,62c53b5f12f839c363f3eecd,2022-07-06_09h38.09.788,Colour_Asymmetry_Pilot,2022.1.3,Win32,59.84082341,62c50e9c1127f2cd403a315f,0,90,90,66,1,twoone,,,,,,,,,,,,,,,,,,,,,,,,,,,,,,,,,,,,,,,,,,,,,,,,,,,,,,,,,,,,,,,,,,,,,,,,,,,,,,,,,,,,,,,,,,,,,,,,,,,,,,,,,,,,,,,,,,,,,,,,,,,,,,,,,,,,,,,,,,,,,,,,,,,,,,,,,,,,,
,,,,,,5f10d13957b4763f401690e5,62c53b5f12f839c363f3eecd,2022-07-06_09h38.09.788,Colour_Asymmetry_Pilot,2022.1.3,Win32,59.84082341,62c50e9c1127f2cd403a315f,0,91,91,126,1,fourtwo,,,,,,,,,,,,,,,,,,,,,,,,,,,,,,,,,,,,,,,,,,,,,,,,,,,,,,,,,,,,,,,,,,,,,,,,,,,,,,,,,,,,,,,,,,,,,,,,,,,,,,,,,,,,,,,,,,,,,,,,,,,,,,,,,,,,,,,,,,,,,,,,,,,,,,,,,,,,,
,,,,,,5f10d13957b4763f401690e5,62c53b5f12f839c363f3eecd,2022-07-06_09h38.09.788,Colour_Asymmetry_Pilot,2022.1.3,Win32,59.84082341,62c50e9c1127f2cd403a315f,0,92,92,37,1,threefour,,,,,,,,,,,,,,,,,,,,,,,,,,,,,,,,,,,,,,,,,,,,,,,,,,,,,,,,,,,,,,,,,,,,,,,,,,,,,,,,,,,,,,,,,,,,,,,,,,,,,,,,,,,,,,,,,,,,,,,,,,,,,,,,,,,,,,,,,,,,,,,,,,,,,,,,,,,,,
,,,,,,5f10d13957b4763f401690e5,62c53b5f12f839c363f3eecd,2022-07-06_09h38.09.788,Colour_Asymmetry_Pilot,2022.1.3,Win32,59.84082341,62c50e9c1127f2cd403a315f,0,93,93,0,1,onetwo,,,,,,,,,,,,,,,,,,,,,,,,,,,,,,,,,,,,,,,,,,,,,,,,,,,,,,,,,,,,,,,,,,,,,,,,,,,,,,,,,,,,,,,,,,,,,,,,,,,,,,,,,,,,,,,,,,,,,,,,,,,,,,,,,,,,,,,,,,,,,,,,,,,,,,,,,,,,,
,,,,,,5f10d13957b4763f401690e5,62c53b5f12f839c363f3eecd,2022-07-06_09h38.09.788,Colour_Asymmetry_Pilot,2022.1.3,Win32,59.84082341,62c50e9c1127f2cd403a315f,0,94,94,161,1,onethree,,,,,,,,,,,,,,,,,,,,,,,,,,,,,,,,,,,,,,,,,,,,,,,,,,,,,,,,,,,,,,,,,,,,,,,,,,,,,,,,,,,,,,,,,,,,,,,,,,,,,,,,,,,,,,,,,,,,,,,,,,,,,,,,,,,,,,,,,,,,,,,,,,,,,,,,,,,,,
,,,,,,5f10d13957b4763f401690e5,62c53b5f12f839c363f3eecd,2022-07-06_09h38.09.788,Colour_Asymmetry_Pilot,2022.1.3,Win32,59.84082341,62c50e9c1127f2cd403a315f,0,95,95,70,1,fourtwo,,,,,,,,,,,,,,,,,,,,,,,,,,,,,,,,,,,,,,,,,,,,,,,,,,,,,,,,,,,,,,,,,,,,,,,,,,,,,,,,,,,,,,,,,,,,,,,,,,,,,,,,,,,,,,,,,,,,,,,,,,,,,,,,,,,,,,,,,,,,,,,,,,,,,,,,,,,,,
,,,,,,5f10d13957b4763f401690e5,62c53b5f12f839c363f3eecd,2022-07-06_09h38.09.788,Colour_Asymmetry_Pilot,2022.1.3,Win32,59.84082341,62c50e9c1127f2cd403a315f,0,96,96,115,1,twofour,,,,,,,,,,,,,,,,,,,,,,,,,,,,,,,,,,,,,,,,,,,,,,,,,,,,,,,,,,,,,,,,,,,,,,,,,,,,,,,,,,,,,,,,,,,,,,,,,,,,,,,,,,,,,,,,,,,,,,,,,,,,,,,,,,,,,,,,,,,,,,,,,,,,,,,,,,,,,
,,,,,,5f10d13957b4763f401690e5,62c53b5f12f839c363f3eecd,2022-07-06_09h38.09.788,Colour_Asymmetry_Pilot,2022.1.3,Win32,59.84082341,62c50e9c1127f2cd403a315f,0,97,97,53,1,threefour,,,,,,,,,,,,,,,,,,,,,,,,,,,,,,,,,,,,,,,,,,,,,,,,,,,,,,,,,,,,,,,,,,,,,,,,,,,,,,,,,,,,,,,,,,,,,,,,,,,,,,,,,,,,,,,,,,,,,,,,,,,,,,,,,,,,,,,,,,,,,,,,,,,,,,,,,,,,,
,,,,,,5f10d13957b4763f401690e5,62c53b5f12f839c363f3eecd,2022-07-06_09h38.09.788,Colour_Asymmetry_Pilot,2022.1.3,Win32,59.84082341,62c50e9c1127f2cd403a315f,0,98,98,26,1,twoone,,,,,,,,,,,,,,,,,,,,,,,,,,,,,,,,,,,,,,,,,,,,,,,,,,,,,,,,,,,,,,,,,,,,,,,,,,,,,,,,,,,,,,,,,,,,,,,,,,,,,,,,,,,,,,,,,,,,,,,,,,,,,,,,,,,,,,,,,,,,,,,,,,,,,,,,,,,,,
,,,,,,5f10d13957b4763f401690e5,62c53b5f12f839c363f3eecd,2022-07-06_09h38.09.788,Colour_Asymmetry_Pilot,2022.1.3,Win32,59.84082341,62c50e9c1127f2cd403a315f,0,99,99,116,1,threeone,,,,,,,,,,,,,,,,,,,,,,,,,,,,,,,,,,,,,,,,,,,,,,,,,,,,,,,,,,,,,,,,,,,,,,,,,,,,,,,,,,,,,,,,,,,,,,,,,,,,,,,,,,,,,,,,,,,,,,,,,,,,,,,,,,,,,,,,,,,,,,,,,,,,,,,,,,,,,
,,,,,,5f10d13957b4763f401690e5,62c53b5f12f839c363f3eecd,2022-07-06_09h38.09.788,Colour_Asymmetry_Pilot,2022.1.3,Win32,59.84082341,62c50e9c1127f2cd403a315f,0,100,100,64,1,onetwo,,,,,,,,,,,,,,,,,,,,,,,,,,,,,,,,,,,,,,,,,,,,,,,,,,,,,,,,,,,,,,,,,,,,,,,,,,,,,,,,,,,,,,,,,,,,,,,,,,,,,,,,,,,,,,,,,,,,,,,,,,,,,,,,,,,,,,,,,,,,,,,,,,,,,,,,,,,,,
,,,,,,5f10d13957b4763f401690e5,62c53b5f12f839c363f3eecd,2022-07-06_09h38.09.788,Colour_Asymmetry_Pilot,2022.1.3,Win32,59.84082341,62c50e9c1127f2cd403a315f,0,101,101,61,1,threefour,,,,,,,,,,,,,,,,,,,,,,,,,,,,,,,,,,,,,,,,,,,,,,,,,,,,,,,,,,,,,,,,,,,,,,,,,,,,,,,,,,,,,,,,,,,,,,,,,,,,,,,,,,,,,,,,,,,,,,,,,,,,,,,,,,,,,,,,,,,,,,,,,,,,,,,,,,,,,
,,,,,,5f10d13957b4763f401690e5,62c53b5f12f839c363f3eecd,2022-07-06_09h38.09.788,Colour_Asymmetry_Pilot,2022.1.3,Win32,59.84082341,62c50e9c1127f2cd403a315f,0,102,102,87,1,fourthree,,,,,,,,,,,,,,,,,,,,,,,,,,,,,,,,,,,,,,,,,,,,,,,,,,,,,,,,,,,,,,,,,,,,,,,,,,,,,,,,,,,,,,,,,,,,,,,,,,,,,,,,,,,,,,,,,,,,,,,,,,,,,,,,,,,,,,,,,,,,,,,,,,,,,,,,,,,,,
,,,,,,5f10d13957b4763f401690e5,62c53b5f12f839c363f3eecd,2022-07-06_09h38.09.788,Colour_Asymmetry_Pilot,2022.1.3,Win32,59.84082341,62c50e9c1127f2cd403a315f,0,103,103,63,1,fourthree,,,,,,,,,,,,,,,,,,,,,,,,,,,,,,,,,,,,,,,,,,,,,,,,,,,,,,,,,,,,,,,,,,,,,,,,,,,,,,,,,,,,,,,,,,,,,,,,,,,,,,,,,,,,,,,,,,,,,,,,,,,,,,,,,,,,,,,,,,,,,,,,,,,,,,,,,,,,,
,,,,,,5f10d13957b4763f401690e5,62c53b5f12f839c363f3eecd,2022-07-06_09h38.09.788,Colour_Asymmetry_Pilot,2022.1.3,Win32,59.84082341,62c50e9c1127f2cd403a315f,0,104,104,93,1,threefour,,,,,,,,,,,,,,,,,,,,,,,,,,,,,,,,,,,,,,,,,,,,,,,,,,,,,,,,,,,,,,,,,,,,,,,,,,,,,,,,,,,,,,,,,,,,,,,,,,,,,,,,,,,,,,,,,,,,,,,,,,,,,,,,,,,,,,,,,,,,,,,,,,,,,,,,,,,,,
,,,,,,5f10d13957b4763f401690e5,62c53b5f12f839c363f3eecd,2022-07-06_09h38.09.788,Colour_Asymmetry_Pilot,2022.1.3,Win32,59.84082341,62c50e9c1127f2cd403a315f,0,105,105,2,1,twoone,,,,,,,,,,,,,,,,,,,,,,,,,,,,,,,,,,,,,,,,,,,,,,,,,,,,,,,,,,,,,,,,,,,,,,,,,,,,,,,,,,,,,,,,,,,,,,,,,,,,,,,,,,,,,,,,,,,,,,,,,,,,,,,,,,,,,,,,,,,,,,,,,,,,,,,,,,,,,
,,,,,,5f10d13957b4763f401690e5,62c53b5f12f839c363f3eecd,2022-07-06_09h38.09.788,Colour_Asymmetry_Pilot,2022.1.3,Win32,59.84082341,62c50e9c1127f2cd403a315f,0,106,106,10,1,twoone,,,,,,,,,,,,,,,,,,,,,,,,,,,,,,,,,,,,,,,,,,,,,,,,,,,,,,,,,,,,,,,,,,,,,,,,,,,,,,,,,,,,,,,,,,,,,,,,,,,,,,,,,,,,,,,,,,,,,,,,,,,,,,,,,,,,,,,,,,,,,,,,,,,,,,,,,,,,,
,,,,,,5f10d13957b4763f401690e5,62c53b5f12f839c363f3eecd,2022-07-06_09h38.09.788,Colour_Asymmetry_Pilot,2022.1.3,Win32,59.84082341,62c50e9c1127f2cd403a315f,0,107,107,152,1,onetwo,,,,,,,,,,,,,,,,,,,,,,,,,,,,,,,,,,,,,,,,,,,,,,,,,,,,,,,,,,,,,,,,,,,,,,,,,,,,,,,,,,,,,,,,,,,,,,,,,,,,,,,,,,,,,,,,,,,,,,,,,,,,,,,,,,,,,,,,,,,,,,,,,,,,,,,,,,,,,
,,,,,,5f10d13957b4763f401690e5,62c53b5f12f839c363f3eecd,2022-07-06_09h38.09.788,Colour_Asymmetry_Pilot,2022.1.3,Win32,59.84082341,62c50e9c1127f2cd403a315f,0,108,108,35,1,twofour,,,,,,,,,,,,,,,,,,,,,,,,,,,,,,,,,,,,,,,,,,,,,,,,,,,,,,,,,,,,,,,,,,,,,,,,,,,,,,,,,,,,,,,,,,,,,,,,,,,,,,,,,,,,,,,,,,,,,,,,,,,,,,,,,,,,,,,,,,,,,,,,,,,,,,,,,,,,,
,,,,,,5f10d13957b4763f401690e5,62c53b5f12f839c363f3eecd,2022-07-06_09h38.09.788,Colour_Asymmetry_Pilot,2022.1.3,Win32,59.84082341,62c50e9c1127f2cd403a315f,0,109,109,25,1,onethree,,,,,,,,,,,,,,,,,,,,,,,,,,,,,,,,,,,,,,,,,,,,,,,,,,,,,,,,,,,,,,,,,,,,,,,,,,,,,,,,,,,,,,,,,,,,,,,,,,,,,,,,,,,,,,,,,,,,,,,,,,,,,,,,,,,,,,,,,,,,,,,,,,,,,,,,,,,,,
,,,,,,5f10d13957b4763f401690e5,62c53b5f12f839c363f3eecd,2022-07-06_09h38.09.788,Colour_Asymmetry_Pilot,2022.1.3,Win32,59.84082341,62c50e9c1127f2cd403a315f,0,110,110,99,1,twofour,,,,,,,,,,,,,,,,,,,,,,,,,,,,,,,,,,,,,,,,,,,,,,,,,,,,,,,,,,,,,,,,,,,,,,,,,,,,,,,,,,,,,,,,,,,,,,,,,,,,,,,,,,,,,,,,,,,,,,,,,,,,,,,,,,,,,,,,,,,,,,,,,,,,,,,,,,,,,
,,,,,,5f10d13957b4763f401690e5,62c53b5f12f839c363f3eecd,2022-07-06_09h38.09.788,Colour_Asymmetry_Pilot,2022.1.3,Win32,59.84082341,62c50e9c1127f2cd403a315f,0,111,111,27,1,twofour,,,,,,,,,,,,,,,,,,,,,,,,,,,,,,,,,,,,,,,,,,,,,,,,,,,,,,,,,,,,,,,,,,,,,,,,,,,,,,,,,,,,,,,,,,,,,,,,,,,,,,,,,,,,,,,,,,,,,,,,,,,,,,,,,,,,,,,,,,,,,,,,,,,,,,,,,,,,,
,,,,,,5f10d13957b4763f401690e5,62c53b5f12f839c363f3eecd,2022-07-06_09h38.09.788,Colour_Asymmetry_Pilot,2022.1.3,Win32,59.84082341,62c50e9c1127f2cd403a315f,0,112,112,50,1,twoone,,,,,,,,,,,,,,,,,,,,,,,,,,,,,,,,,,,,,,,,,,,,,,,,,,,,,,,,,,,,,,,,,,,,,,,,,,,,,,,,,,,,,,,,,,,,,,,,,,,,,,,,,,,,,,,,,,,,,,,,,,,,,,,,,,,,,,,,,,,,,,,,,,,,,,,,,,,,,
,,,,,,5f10d13957b4763f401690e5,62c53b5f12f839c363f3eecd,2022-07-06_09h38.09.788,Colour_Asymmetry_Pilot,2022.1.3,Win32,59.84082341,62c50e9c1127f2cd403a315f,0,113,113,32,1,onetwo,,,,,,,,,,,,,,,,,,,,,,,,,,,,,,,,,,,,,,,,,,,,,,,,,,,,,,,,,,,,,,,,,,,,,,,,,,,,,,,,,,,,,,,,,,,,,,,,,,,,,,,,,,,,,,,,,,,,,,,,,,,,,,,,,,,,,,,,,,,,,,,,,,,,,,,,,,,,,
,,,,,,5f10d13957b4763f401690e5,62c53b5f12f839c363f3eecd,2022-07-06_09h38.09.788,Colour_Asymmetry_Pilot,2022.1.3,Win32,59.84082341,62c50e9c1127f2cd403a315f,0,114,114,160,1,onetwo,,,,,,,,,,,,,,,,,,,,,,,,,,,,,,,,,,,,,,,,,,,,,,,,,,,,,,,,,,,,,,,,,,,,,,,,,,,,,,,,,,,,,,,,,,,,,,,,,,,,,,,,,,,,,,,,,,,,,,,,,,,,,,,,,,,,,,,,,,,,,,,,,,,,,,,,,,,,,
,,,,,,5f10d13957b4763f401690e5,62c53b5f12f839c363f3eecd,2022-07-06_09h38.09.788,Colour_Asymmetry_Pilot,2022.1.3,Win32,59.84082341,62c50e9c1127f2cd403a315f,0,115,115,46,1,fourtwo,,,,,,,,,,,,,,,,,,,,,,,,,,,,,,,,,,,,,,,,,,,,,,,,,,,,,,,,,,,,,,,,,,,,,,,,,,,,,,,,,,,,,,,,,,,,,,,,,,,,,,,,,,,,,,,,,,,,,,,,,,,,,,,,,,,,,,,,,,,,,,,,,,,,,,,,,,,,,
,,,,,,5f10d13957b4763f401690e5,62c53b5f12f839c363f3eecd,2022-07-06_09h38.09.788,Colour_Asymmetry_Pilot,2022.1.3,Win32,59.84082341,62c50e9c1127f2cd403a315f,0,116,116,55,1,fourthree,,,,,,,,,,,,,,,,,,,,,,,,,,,,,,,,,,,,,,,,,,,,,,,,,,,,,,,,,,,,,,,,,,,,,,,,,,,,,,,,,,,,,,,,,,,,,,,,,,,,,,,,,,,,,,,,,,,,,,,,,,,,,,,,,,,,,,,,,,,,,,,,,,,,,,,,,,,,,
,,,,,,5f10d13957b4763f401690e5,62c53b5f12f839c363f3eecd,2022-07-06_09h38.09.788,Colour_Asymmetry_Pilot,2022.1.3,Win32,59.84082341,62c50e9c1127f2cd403a315f,0,117,117,148,1,threeone,,,,,,,,,,,,,,,,,,,,,,,,,,,,,,,,,,,,,,,,,,,,,,,,,,,,,,,,,,,,,,,,,,,,,,,,,,,,,,,,,,,,,,,,,,,,,,,,,,,,,,,,,,,,,,,,,,,,,,,,,,,,,,,,,,,,,,,,,,,,,,,,,,,,,,,,,,,,,
,,,,,,5f10d13957b4763f401690e5,62c53b5f12f839c363f3eecd,2022-07-06_09h38.09.788,Colour_Asymmetry_Pilot,2022.1.3,Win32,59.84082341,62c50e9c1127f2cd403a315f,0,118,118,5,1,threefour,,,,,,,,,,,,,,,,,,,,,,,,,,,,,,,,,,,,,,,,,,,,,,,,,,,,,,,,,,,,,,,,,,,,,,,,,,,,,,,,,,,,,,,,,,,,,,,,,,,,,,,,,,,,,,,,,,,,,,,,,,,,,,,,,,,,,,,,,,,,,,,,,,,,,,,,,,,,,
,,,,,,5f10d13957b4763f401690e5,62c53b5f12f839c363f3eecd,2022-07-06_09h38.09.788,Colour_Asymmetry_Pilot,2022.1.3,Win32,59.84082341,62c50e9c1127f2cd403a315f,0,119,119,38,1,fourtwo,,,,,,,,,,,,,,,,,,,,,,,,,,,,,,,,,,,,,,,,,,,,,,,,,,,,,,,,,,,,,,,,,,,,,,,,,,,,,,,,,,,,,,,,,,,,,,,,,,,,,,,,,,,,,,,,,,,,,,,,,,,,,,,,,,,,,,,,,,,,,,,,,,,,,,,,,,,,,
,,,,,,5f10d13957b4763f401690e5,62c53b5f12f839c363f3eecd,2022-07-06_09h38.09.788,Colour_Asymmetry_Pilot,2022.1.3,Win32,59.84082341,62c50e9c1127f2cd403a315f,0,120,120,69,1,threefour,,,,,,,,,,,,,,,,,,,,,,,,,,,,,,,,,,,,,,,,,,,,,,,,,,,,,,,,,,,,,,,,,,,,,,,,,,,,,,,,,,,,,,,,,,,,,,,,,,,,,,,,,,,,,,,,,,,,,,,,,,,,,,,,,,,,,,,,,,,,,,,,,,,,,,,,,,,,,
,,,,,,5f10d13957b4763f401690e5,62c53b5f12f839c363f3eecd,2022-07-06_09h38.09.788,Colour_Asymmetry_Pilot,2022.1.3,Win32,59.84082341,62c50e9c1127f2cd403a315f,0,121,121,17,1,onethree,,,,,,,,,,,,,,,,,,,,,,,,,,,,,,,,,,,,,,,,,,,,,,,,,,,,,,,,,,,,,,,,,,,,,,,,,,,,,,,,,,,,,,,,,,,,,,,,,,,,,,,,,,,,,,,,,,,,,,,,,,,,,,,,,,,,,,,,,,,,,,,,,,,,,,,,,,,,,
,,,,,,5f10d13957b4763f401690e5,62c53b5f12f839c363f3eecd,2022-07-06_09h38.09.788,Colour_Asymmetry_Pilot,2022.1.3,Win32,59.84082341,62c50e9c1127f2cd403a315f,0,122,122,157,1,threefour,,,,,,,,,,,,,,,,,,,,,,,,,,,,,,,,,,,,,,,,,,,,,,,,,,,,,,,,,,,,,,,,,,,,,,,,,,,,,,,,,,,,,,,,,,,,,,,,,,,,,,,,,,,,,,,,,,,,,,,,,,,,,,,,,,,,,,,,,,,,,,,,,,,,,,,,,,,,,
,,,,,,5f10d13957b4763f401690e5,62c53b5f12f839c363f3eecd,2022-07-06_09h38.09.788,Colour_Asymmetry_Pilot,2022.1.3,Win32,59.84082341,62c50e9c1127f2cd403a315f,0,123,123,22,1,fourtwo,,,,,,,,,,,,,,,,,,,,,,,,,,,,,,,,,,,,,,,,,,,,,,,,,,,,,,,,,,,,,,,,,,,,,,,,,,,,,,,,,,,,,,,,,,,,,,,,,,,,,,,,,,,,,,,,,,,,,,,,,,,,,,,,,,,,,,,,,,,,,,,,,,,,,,,,,,,,,
,,,,,,5f10d13957b4763f401690e5,62c53b5f12f839c363f3eecd,2022-07-06_09h38.09.788,Colour_Asymmetry_Pilot,2022.1.3,Win32,59.84082341,62c50e9c1127f2cd403a315f,0,124,124,36,1,threeone,,,,,,,,,,,,,,,,,,,,,,,,,,,,,,,,,,,,,,,,,,,,,,,,,,,,,,,,,,,,,,,,,,,,,,,,,,,,,,,,,,,,,,,,,,,,,,,,,,,,,,,,,,,,,,,,,,,,,,,,,,,,,,,,,,,,,,,,,,,,,,,,,,,,,,,,,,,,,
,,,,,,5f10d13957b4763f401690e5,62c53b5f12f839c363f3eecd,2022-07-06_09h38.09.788,Colour_Asymmetry_Pilot,2022.1.3,Win32,59.84082341,62c50e9c1127f2cd403a315f,0,125,125,41,1,onethree,,,,,,,,,,,,,,,,,,,,,,,,,,,,,,,,,,,,,,,,,,,,,,,,,,,,,,,,,,,,,,,,,,,,,,,,,,,,,,,,,,,,,,,,,,,,,,,,,,,,,,,,,,,,,,,,,,,,,,,,,,,,,,,,,,,,,,,,,,,,,,,,,,,,,,,,,,,,,
,,,,,,5f10d13957b4763f401690e5,62c53b5f12f839c363f3eecd,2022-07-06_09h38.09.788,Colour_Asymmetry_Pilot,2022.1.3,Win32,59.84082341,62c50e9c1127f2cd403a315f,0,126,126,65,1,onethree,,,,,,,,,,,,,,,,,,,,,,,,,,,,,,,,,,,,,,,,,,,,,,,,,,,,,,,,,,,,,,,,,,,,,,,,,,,,,,,,,,,,,,,,,,,,,,,,,,,,,,,,,,,,,,,,,,,,,,,,,,,,,,,,,,,,,,,,,,,,,,,,,,,,,,,,,,,,,
,,,,,,5f10d13957b4763f401690e5,62c53b5f12f839c363f3eecd,2022-07-06_09h38.09.788,Colour_Asymmetry_Pilot,2022.1.3,Win32,59.84082341,62c50e9c1127f2cd403a315f,0,127,127,92,1,threeone,,,,,,,,,,,,,,,,,,,,,,,,,,,,,,,,,,,,,,,,,,,,,,,,,,,,,,,,,,,,,,,,,,,,,,,,,,,,,,,,,,,,,,,,,,,,,,,,,,,,,,,,,,,,,,,,,,,,,,,,,,,,,,,,,,,,,,,,,,,,,,,,,,,,,,,,,,,,,
,,,,,,5f10d13957b4763f401690e5,62c53b5f12f839c363f3eecd,2022-07-06_09h38.09.788,Colour_Asymmetry_Pilot,2022.1.3,Win32,59.84082341,62c50e9c1127f2cd403a315f,0,128,128,146,1,twoone,,,,,,,,,,,,,,,,,,,,,,,,,,,,,,,,,,,,,,,,,,,,,,,,,,,,,,,,,,,,,,,,,,,,,,,,,,,,,,,,,,,,,,,,,,,,,,,,,,,,,,,,,,,,,,,,,,,,,,,,,,,,,,,,,,,,,,,,,,,,,,,,,,,,,,,,,,,,,
,,,,,,5f10d13957b4763f401690e5,62c53b5f12f839c363f3eecd,2022-07-06_09h38.09.788,Colour_Asymmetry_Pilot,2022.1.3,Win32,59.84082341,62c50e9c1127f2cd403a315f,0,129,129,74,1,twoone,,,,,,,,,,,,,,,,,,,,,,,,,,,,,,,,,,,,,,,,,,,,,,,,,,,,,,,,,,,,,,,,,,,,,,,,,,,,,,,,,,,,,,,,,,,,,,,,,,,,,,,,,,,,,,,,,,,,,,,,,,,,,,,,,,,,,,,,,,,,,,,,,,,,,,,,,,,,,
,,,,,,5f10d13957b4763f401690e5,62c53b5f12f839c363f3eecd,2022-07-06_09h38.09.788,Colour_Asymmetry_Pilot,2022.1.3,Win32,59.84082341,62c50e9c1127f2cd403a315f,0,130,130,76,1,threeone,,,,,,,,,,,,,,,,,,,,,,,,,,,,,,,,,,,,,,,,,,,,,,,,,,,,,,,,,,,,,,,,,,,,,,,,,,,,,,,,,,,,,,,,,,,,,,,,,,,,,,,,,,,,,,,,,,,,,,,,,,,,,,,,,,,,,,,,,,,,,,,,,,,,,,,,,,,,,
,,,,,,5f10d13957b4763f401690e5,62c53b5f12f839c363f3eecd,2022-07-06_09h38.09.788,Colour_Asymmetry_Pilot,2022.1.3,Win32,59.84082341,62c50e9c1127f2cd403a315f,0,131,131,80,1,onetwo,,,,,,,,,,,,,,,,,,,,,,,,,,,,,,,,,,,,,,,,,,,,,,,,,,,,,,,,,,,,,,,,,,,,,,,,,,,,,,,,,,,,,,,,,,,,,,,,,,,,,,,,,,,,,,,,,,,,,,,,,,,,,,,,,,,,,,,,,,,,,,,,,,,,,,,,,,,,,
,,,,,,5f10d13957b4763f401690e5,62c53b5f12f839c363f3eecd,2022-07-06_09h38.09.788,Colour_Asymmetry_Pilot,2022.1.3,Win32,59.84082341,62c50e9c1127f2cd403a315f,0,132,132,143,1,fourthree,,,,,,,,,,,,,,,,,,,,,,,,,,,,,,,,,,,,,,,,,,,,,,,,,,,,,,,,,,,,,,,,,,,,,,,,,,,,,,,,,,,,,,,,,,,,,,,,,,,,,,,,,,,,,,,,,,,,,,,,,,,,,,,,,,,,,,,,,,,,,,,,,,,,,,,,,,,,,
,,,,,,5f10d13957b4763f401690e5,62c53b5f12f839c363f3eecd,2022-07-06_09h38.09.788,Colour_Asymmetry_Pilot,2022.1.3,Win32,59.84082341,62c50e9c1127f2cd403a315f,0,133,133,16,1,onetwo,,,,,,,,,,,,,,,,,,,,,,,,,,,,,,,,,,,,,,,,,,,,,,,,,,,,,,,,,,,,,,,,,,,,,,,,,,,,,,,,,,,,,,,,,,,,,,,,,,,,,,,,,,,,,,,,,,,,,,,,,,,,,,,,,,,,,,,,,,,,,,,,,,,,,,,,,,,,,
,,,,,,5f10d13957b4763f401690e5,62c53b5f12f839c363f3eecd,2022-07-06_09h38.09.788,Colour_Asymmetry_Pilot,2022.1.3,Win32,59.84082341,62c50e9c1127f2cd403a315f,0,134,134,58,1,twoone,,,,,,,,,,,,,,,,,,,,,,,,,,,,,,,,,,,,,,,,,,,,,,,,,,,,,,,,,,,,,,,,,,,,,,,,,,,,,,,,,,,,,,,,,,,,,,,,,,,,,,,,,,,,,,,,,,,,,,,,,,,,,,,,,,,,,,,,,,,,,,,,,,,,,,,,,,,,,
,,,,,,5f10d13957b4763f401690e5,62c53b5f12f839c363f3eecd,2022-07-06_09h38.09.788,Colour_Asymmetry_Pilot,2022.1.3,Win32,59.84082341,62c50e9c1127f2cd403a315f,0,135,135,19,1,twofour,,,,,,,,,,,,,,,,,,,,,,,,,,,,,,,,,,,,,,,,,,,,,,,,,,,,,,,,,,,,,,,,,,,,,,,,,,,,,,,,,,,,,,,,,,,,,,,,,,,,,,,,,,,,,,,,,,,,,,,,,,,,,,,,,,,,,,,,,,,,,,,,,,,,,,,,,,,,,
,,,,,,5f10d13957b4763f401690e5,62c53b5f12f839c363f3eecd,2022-07-06_09h38.09.788,Colour_Asymmetry_Pilot,2022.1.3,Win32,59.84082341,62c50e9c1127f2cd403a315f,0,136,136,109,1,threefour,,,,,,,,,,,,,,,,,,,,,,,,,,,,,,,,,,,,,,,,,,,,,,,,,,,,,,,,,,,,,,,,,,,,,,,,,,,,,,,,,,,,,,,,,,,,,,,,,,,,,,,,,,,,,,,,,,,,,,,,,,,,,,,,,,,,,,,,,,,,,,,,,,,,,,,,,,,,,
,,,,,,5f10d13957b4763f401690e5,62c53b5f12f839c363f3eecd,2022-07-06_09h38.09.788,Colour_Asymmetry_Pilot,2022.1.3,Win32,59.84082341,62c50e9c1127f2cd403a315f,0,137,137,7,1,fourthree,,,,,,,,,,,,,,,,,,,,,,,,,,,,,,,,,,,,,,,,,,,,,,,,,,,,,,,,,,,,,,,,,,,,,,,,,,,,,,,,,,,,,,,,,,,,,,,,,,,,,,,,,,,,,,,,,,,,,,,,,,,,,,,,,,,,,,,,,,,,,,,,,,,,,,,,,,,,,
,,,,,,5f10d13957b4763f401690e5,62c53b5f12f839c363f3eecd,2022-07-06_09h38.09.788,Colour_Asymmetry_Pilot,2022.1.3,Win32,59.84082341,62c50e9c1127f2cd403a315f,0,138,138,33,1,onethree,,,,,,,,,,,,,,,,,,,,,,,,,,,,,,,,,,,,,,,,,,,,,,,,,,,,,,,,,,,,,,,,,,,,,,,,,,,,,,,,,,,,,,,,,,,,,,,,,,,,,,,,,,,,,,,,,,,,,,,,,,,,,,,,,,,,,,,,,,,,,,,,,,,,,,,,,,,,,
,,,,,,5f10d13957b4763f401690e5,62c53b5f12f839c363f3eecd,2022-07-06_09h38.09.788,Colour_Asymmetry_Pilot,2022.1.3,Win32,59.84082341,62c50e9c1127f2cd403a315f,0,139,139,141,1,threefour,,,,,,,,,,,,,,,,,,,,,,,,,,,,,,,,,,,,,,,,,,,,,,,,,,,,,,,,,,,,,,,,,,,,,,,,,,,,,,,,,,,,,,,,,,,,,,,,,,,,,,,,,,,,,,,,,,,,,,,,,,,,,,,,,,,,,,,,,,,,,,,,,,,,,,,,,,,,,
,,,,,,5f10d13957b4763f401690e5,62c53b5f12f839c363f3eecd,2022-07-06_09h38.09.788,Colour_Asymmetry_Pilot,2022.1.3,Win32,59.84082341,62c50e9c1127f2cd403a315f,0,140,140,75,1,twofour,,,,,,,,,,,,,,,,,,,,,,,,,,,,,,,,,,,,,,,,,,,,,,,,,,,,,,,,,,,,,,,,,,,,,,,,,,,,,,,,,,,,,,,,,,,,,,,,,,,,,,,,,,,,,,,,,,,,,,,,,,,,,,,,,,,,,,,,,,,,,,,,,,,,,,,,,,,,,
,,,,,,5f10d13957b4763f401690e5,62c53b5f12f839c363f3eecd,2022-07-06_09h38.09.788,Colour_Asymmetry_Pilot,2022.1.3,Win32,59.84082341,62c50e9c1127f2cd403a315f,0,141,141,11,1,twofour,,,,,,,,,,,,,,,,,,,,,,,,,,,,,,,,,,,,,,,,,,,,,,,,,,,,,,,,,,,,,,,,,,,,,,,,,,,,,,,,,,,,,,,,,,,,,,,,,,,,,,,,,,,,,,,,,,,,,,,,,,,,,,,,,,,,,,,,,,,,,,,,,,,,,,,,,,,,,
,,,,,,5f10d13957b4763f401690e5,62c53b5f12f839c363f3eecd,2022-07-06_09h38.09.788,Colour_Asymmetry_Pilot,2022.1.3,Win32,59.84082341,62c50e9c1127f2cd403a315f,0,142,142,94,1,fourtwo,,,,,,,,,,,,,,,,,,,,,,,,,,,,,,,,,,,,,,,,,,,,,,,,,,,,,,,,,,,,,,,,,,,,,,,,,,,,,,,,,,,,,,,,,,,,,,,,,,,,,,,,,,,,,,,,,,,,,,,,,,,,,,,,,,,,,,,,,,,,,,,,,,,,,,,,,,,,,
,,,,,,5f10d13957b4763f401690e5,62c53b5f12f839c363f3eecd,2022-07-06_09h38.09.788,Colour_Asymmetry_Pilot,2022.1.3,Win32,59.84082341,62c50e9c1127f2cd403a315f,0,143,143,120,1,onetwo,,,,,,,,,,,,,,,,,,,,,,,,,,,,,,,,,,,,,,,,,,,,,,,,,,,,,,,,,,,,,,,,,,,,,,,,,,,,,,,,,,,,,,,,,,,,,,,,,,,,,,,,,,,,,,,,,,,,,,,,,,,,,,,,,,,,,,,,,,,,,,,,,,,,,,,,,,,,,
,,,,,,5f10d13957b4763f401690e5,62c53b5f12f839c363f3eecd,2022-07-06_09h38.09.788,Colour_Asymmetry_Pilot,2022.1.3,Win32,59.84082341,62c50e9c1127f2cd403a315f,0,144,144,30,1,fourtwo,,,,,,,,,,,,,,,,,,,,,,,,,,,,,,,,,,,,,,,,,,,,,,,,,,,,,,,,,,,,,,,,,,,,,,,,,,,,,,,,,,,,,,,,,,,,,,,,,,,,,,,,,,,,,,,,,,,,,,,,,,,,,,,,,,,,,,,,,,,,,,,,,,,,,,,,,,,,,
,,,,,,5f10d13957b4763f401690e5,62c53b5f12f839c363f3eecd,2022-07-06_09h38.09.788,Colour_Asymmetry_Pilot,2022.1.3,Win32,59.84082341,62c50e9c1127f2cd403a315f,0,145,145,60,1,threeone,,,,,,,,,,,,,,,,,,,,,,,,,,,,,,,,,,,,,,,,,,,,,,,,,,,,,,,,,,,,,,,,,,,,,,,,,,,,,,,,,,,,,,,,,,,,,,,,,,,,,,,,,,,,,,,,,,,,,,,,,,,,,,,,,,,,,,,,,,,,,,,,,,,,,,,,,,,,,
,,,,,,5f10d13957b4763f401690e5,62c53b5f12f839c363f3eecd,2022-07-06_09h38.09.788,Colour_Asymmetry_Pilot,2022.1.3,Win32,59.84082341,62c50e9c1127f2cd403a315f,0,146,146,121,1,onethree,,,,,,,,,,,,,,,,,,,,,,,,,,,,,,,,,,,,,,,,,,,,,,,,,,,,,,,,,,,,,,,,,,,,,,,,,,,,,,,,,,,,,,,,,,,,,,,,,,,,,,,,,,,,,,,,,,,,,,,,,,,,,,,,,,,,,,,,,,,,,,,,,,,,,,,,,,,,,
,,,,,,5f10d13957b4763f401690e5,62c53b5f12f839c363f3eecd,2022-07-06_09h38.09.788,Colour_Asymmetry_Pilot,2022.1.3,Win32,59.84082341,62c50e9c1127f2cd403a315f,0,147,147,100,1,threeone,,,,,,,,,,,,,,,,,,,,,,,,,,,,,,,,,,,,,,,,,,,,,,,,,,,,,,,,,,,,,,,,,,,,,,,,,,,,,,,,,,,,,,,,,,,,,,,,,,,,,,,,,,,,,,,,,,,,,,,,,,,,,,,,,,,,,,,,,,,,,,,,,,,,,,,,,,,,,
,,,,,,5f10d13957b4763f401690e5,62c53b5f12f839c363f3eecd,2022-07-06_09h38.09.788,Colour_Asymmetry_Pilot,2022.1.3,Win32,59.84082341,62c50e9c1127f2cd403a315f,0,148,148,137,1,onethree,,,,,,,,,,,,,,,,,,,,,,,,,,,,,,,,,,,,,,,,,,,,,,,,,,,,,,,,,,,,,,,,,,,,,,,,,,,,,,,,,,,,,,,,,,,,,,,,,,,,,,,,,,,,,,,,,,,,,,,,,,,,,,,,,,,,,,,,,,,,,,,,,,,,,,,,,,,,,
,,,,,,5f10d13957b4763f401690e5,62c53b5f12f839c363f3eecd,2022-07-06_09h38.09.788,Colour_Asymmetry_Pilot,2022.1.3,Win32,59.84082341,62c50e9c1127f2cd403a315f,0,149,149,52,1,threeone,,,,,,,,,,,,,,,,,,,,,,,,,,,,,,,,,,,,,,,,,,,,,,,,,,,,,,,,,,,,,,,,,,,,,,,,,,,,,,,,,,,,,,,,,,,,,,,,,,,,,,,,,,,,,,,,,,,,,,,,,,,,,,,,,,,,,,,,,,,,,,,,,,,,,,,,,,,,,
,,,,,,5f10d13957b4763f401690e5,62c53b5f12f839c363f3eecd,2022-07-06_09h38.09.788,Colour_Asymmetry_Pilot,2022.1.3,Win32,59.84082341,62c50e9c1127f2cd403a315f,0,150,150,95,1,fourthree,,,,,,,,,,,,,,,,,,,,,,,,,,,,,,,,,,,,,,,,,,,,,,,,,,,,,,,,,,,,,,,,,,,,,,,,,,,,,,,,,,,,,,,,,,,,,,,,,,,,,,,,,,,,,,,,,,,,,,,,,,,,,,,,,,,,,,,,,,,,,,,,,,,,,,,,,,,,,
,,,,,,5f10d13957b4763f401690e5,62c53b5f12f839c363f3eecd,2022-07-06_09h38.09.788,Colour_Asymmetry_Pilot,2022.1.3,Win32,59.84082341,62c50e9c1127f2cd403a315f,0,151,151,122,1,twoone,,,,,,,,,,,,,,,,,,,,,,,,,,,,,,,,,,,,,,,,,,,,,,,,,,,,,,,,,,,,,,,,,,,,,,,,,,,,,,,,,,,,,,,,,,,,,,,,,,,,,,,,,,,,,,,,,,,,,,,,,,,,,,,,,,,,,,,,,,,,,,,,,,,,,,,,,,,,,
,,,,,,5f10d13957b4763f401690e5,62c53b5f12f839c363f3eecd,2022-07-06_09h38.09.788,Colour_Asymmetry_Pilot,2022.1.3,Win32,59.84082341,62c50e9c1127f2cd403a315f,0,152,152,9,1,onethree,,,,,,,,,,,,,,,,,,,,,,,,,,,,,,,,,,,,,,,,,,,,,,,,,,,,,,,,,,,,,,,,,,,,,,,,,,,,,,,,,,,,,,,,,,,,,,,,,,,,,,,,,,,,,,,,,,,,,,,,,,,,,,,,,,,,,,,,,,,,,,,,,,,,,,,,,,,,,
,,,,,,5f10d13957b4763f401690e5,62c53b5f12f839c363f3eecd,2022-07-06_09h38.09.788,Colour_Asymmetry_Pilot,2022.1.3,Win32,59.84082341,62c50e9c1127f2cd403a315f,0,153,153,54,1,fourtwo,,,,,,,,,,,,,,,,,,,,,,,,,,,,,,,,,,,,,,,,,,,,,,,,,,,,,,,,,,,,,,,,,,,,,,,,,,,,,,,,,,,,,,,,,,,,,,,,,,,,,,,,,,,,,,,,,,,,,,,,,,,,,,,,,,,,,,,,,,,,,,,,,,,,,,,,,,,,,
,,,,,,5f10d13957b4763f401690e5,62c53b5f12f839c363f3eecd,2022-07-06_09h38.09.788,Colour_Asymmetry_Pilot,2022.1.3,Win32,59.84082341,62c50e9c1127f2cd403a315f,0,154,154,159,1,fourthree,,,,,,,,,,,,,,,,,,,,,,,,,,,,,,,,,,,,,,,,,,,,,,,,,,,,,,,,,,,,,,,,,,,,,,,,,,,,,,,,,,,,,,,,,,,,,,,,,,,,,,,,,,,,,,,,,,,,,,,,,,,,,,,,,,,,,,,,,,,,,,,,,,,,,,,,,,,,,
,,,,,,5f10d13957b4763f401690e5,62c53b5f12f839c363f3eecd,2022-07-06_09h38.09.788,Colour_Asymmetry_Pilot,2022.1.3,Win32,59.84082341,62c50e9c1127f2cd403a315f,0,155,155,48,1,onetwo,,,,,,,,,,,,,,,,,,,,,,,,,,,,,,,,,,,,,,,,,,,,,,,,,,,,,,,,,,,,,,,,,,,,,,,,,,,,,,,,,,,,,,,,,,,,,,,,,,,,,,,,,,,,,,,,,,,,,,,,,,,,,,,,,,,,,,,,,,,,,,,,,,,,,,,,,,,,,
,,,,,,5f10d13957b4763f401690e5,62c53b5f12f839c363f3eecd,2022-07-06_09h38.09.788,Colour_Asymmetry_Pilot,2022.1.3,Win32,59.84082341,62c50e9c1127f2cd403a315f,0,156,156,124,1,threeone,,,,,,,,,,,,,,,,,,,,,,,,,,,,,,,,,,,,,,,,,,,,,,,,,,,,,,,,,,,,,,,,,,,,,,,,,,,,,,,,,,,,,,,,,,,,,,,,,,,,,,,,,,,,,,,,,,,,,,,,,,,,,,,,,,,,,,,,,,,,,,,,,,,,,,,,,,,,,
,,,,,,5f10d13957b4763f401690e5,62c53b5f12f839c363f3eecd,2022-07-06_09h38.09.788,Colour_Asymmetry_Pilot,2022.1.3,Win32,59.84082341,62c50e9c1127f2cd403a315f,0,157,157,107,1,twofour,,,,,,,,,,,,,,,,,,,,,,,,,,,,,,,,,,,,,,,,,,,,,,,,,,,,,,,,,,,,,,,,,,,,,,,,,,,,,,,,,,,,,,,,,,,,,,,,,,,,,,,,,,,,,,,,,,,,,,,,,,,,,,,,,,,,,,,,,,,,,,,,,,,,,,,,,,,,,
,,,,,,5f10d13957b4763f401690e5,62c53b5f12f839c363f3eecd,2022-07-06_09h38.09.788,Colour_Asymmetry_Pilot,2022.1.3,Win32,59.84082341,62c50e9c1127f2cd403a315f,0,158,158,31,1,fourthree,,,,,,,,,,,,,,,,,,,,,,,,,,,,,,,,,,,,,,,,,,,,,,,,,,,,,,,,,,,,,,,,,,,,,,,,,,,,,,,,,,,,,,,,,,,,,,,,,,,,,,,,,,,,,,,,,,,,,,,,,,,,,,,,,,,,,,,,,,,,,,,,,,,,,,,,,,,,,
,,,,,,5f10d13957b4763f401690e5,62c53b5f12f839c363f3eecd,2022-07-06_09h38.09.788,Colour_Asymmetry_Pilot,2022.1.3,Win32,59.84082341,62c50e9c1127f2cd403a315f,0,159,159,108,1,threeone,,,,,,,,,,,,,,,,,,,,,,,,,,,,,,,,,,,,,,,,,,,,,,,,,,,,,,,,,,,,,,,,,,,,,,,,,,,,,,,,,,,,,,,,,,,,,,,,,,,,,,,,,,,,,,,,,,,,,,,,,,,,,,,,,,,,,,,,,,,,,,,,,,,,,,,,,,,,,
,,,,,,5f10d13957b4763f401690e5,62c53b5f12f839c363f3eecd,2022-07-06_09h38.09.788,Colour_Asymmetry_Pilot,2022.1.3,Win32,59.84082341,62c50e9c1127f2cd403a315f,0,160,160,15,1,fourthree,,,,,,,,,,,,,,,,,,,,,,,,,,,,,,,,,,,,,,,,,,,,,,,,,,,,,,,,,,,,,,,,,,,,,,,,,,,,,,,,,,,,,,,,,,,,,,,,,,,,,,,,,,,,,,,,,,,,,,,,,,,,,,,,,,,,,,,,,,,,,,,,,,,,,,,,,,,,,
,,,,,,5f10d13957b4763f401690e5,62c53b5f12f839c363f3eecd,2022-07-06_09h38.09.788,Colour_Asymmetry_Pilot,2022.1.3,Win32,59.84082341,62c50e9c1127f2cd403a315f,0,161,161,34,1,twoone,,,,,,,,,,,,,,,,,,,,,,,,,,,,,,,,,,,,,,,,,,,,,,,,,,,,,,,,,,,,,,,,,,,,,,,,,,,,,,,,,,,,,,,,,,,,,,,,,,,,,,,,,,,,,,,,,,,,,,,,,,,,,,,,,,,,,,,,,,,,,,,,,,,,,,,,,,,,,
,,,,,,5f10d13957b4763f401690e5,62c53b5f12f839c363f3eecd,2022-07-06_09h38.09.788,Colour_Asymmetry_Pilot,2022.1.3,Win32,59.84082341,62c50e9c1127f2cd403a315f,,,,,,,space,7.7041,space,26.2425,space,216.9663,space,30.1822,space,10.4223,space,24.6968,"[0.18419999999999992,-0.4276,-0.404]",onethree,"[-0.09019999999999995,0.44300000000000006,0.5371999999999999]",4,7.5851,42,100,1,0,0,response1disk_5,-2,0,1,0,0,rectangle_8,48,87,1,0,0,response1disk_7,7,4,-6,5,1,0,0,rectangle_4,0,0,0,0,1,,,,,,,,,,,,,,,,,,,,,,,,,,,,,,,,,,,,,,,,,,,,,,,,,,,,,,,,,,,,,,,,,,,,,,,,,,,,,,,,,,,,,,,,,,,,,,,,,,,,,,,,,,,,,
,,,,,,5f10d13957b4763f401690e5,62c53b5f12f839c363f3eecd,2022-07-06_09h38.09.788,Colour_Asymmetry_Pilot,2022.1.3,Win32,59.84082341,62c50e9c1127f2cd403a315f,,,,,,,,,,,,,,,,,,,"[0.3802000000000001,0.19199999999999995,-0.6394]",twofour,"[0.34099999999999997,0.12939999999999996,-0.9766]",4,1.936,43,80,1,0,0,response1disk_5,-7,1,1,0,0,rectangle_8,-7,1,1,0,0,,,4,-7,1,1,0,0,,1,0,1,0,1,,,,,,,,,,,,,,,,,,,,,,,,,,,,,,,,,,,,,,,,,,,,,,,,,,,,,,,,,,,,,,,,,,,,,,,,,,,,,,,,,,,,,,,,,,,,,,,,,,,,,,,,,,,,,
,,,,,,5f10d13957b4763f401690e5,62c53b5f12f839c363f3eecd,2022-07-06_09h38.09.788,Colour_Asymmetry_Pilot,2022.1.3,Win32,59.84082341,62c50e9c1127f2cd403a315f,,,,,,,,,,,,,,,,,,,"[-0.9296,-0.12959999999999994,-0.043199999999999905]",threeone,"[-0.6706000000000001,-0.6157999999999999,-0.6786]",-4,3.9182,-43,74,1,0,0,response7disk_5,-2,5,1,0,0,rectangle_8,-2,5,1,0,0,,,4,-2,5,1,0,0,,2,0,2,0,1,,,,,,,,,,,,,,,,,,,,,,,,,,,,,,,,,,,,,,,,,,,,,,,,,,,,,,,,,,,,,,,,,,,,,,,,,,,,,,,,,,,,,,,,,,,,,,,,,,,,,,,,,,,,,
,,,,,,5f10d13957b4763f401690e5,62c53b5f12f839c363f3eecd,2022-07-06_09h38.09.788,Colour_Asymmetry_Pilot,2022.1.3,Win32,59.84082341,62c50e9c1127f2cd403a315f,,,,,,,,,,,,,,,,,,,"[0.37240000000000006,0.4980000000000002,-0.2864]",onetwo,"[0.7646000000000002,0.07440000000000002,0.2704]",-4,2.0011,-59,86,1,0,0,response7disk_5,8,7,1,0,0,rectangle_8,8,7,1,0,0,,,4,8,7,1,0,0,,3,0,3,0,1,,,,,,,,,,,,,,,,,,,,,,,,,,,,,,,,,,,,,,,,,,,,,,,,,,,,,,,,,,,,,,,,,,,,,,,,,,,,,,,,,,,,,,,,,,,,,,,,,,,,,,,,,,,,,
,,,,,,5f10d13957b4763f401690e5,62c53b5f12f839c363f3eecd,2022-07-06_09h38.09.788,Colour_Asymmetry_Pilot,2022.1.3,Win32,59.84082341,62c50e9c1127f2cd403a315f,,,,,,,,,,,,,,,,,,,"[-0.0040000000000000036,0.02739999999999987,-0.08239999999999992]",twofour,"[0.4196,0.4665999999999999,0.3568]",-4,1.6679,-42,77,1,0,0,response7disk_5,-1,4,1,0,0,rectangle_8,36,88,1,0,0,response1disk_7,7,4,-10,2,1,0,0,rectangle_4,4,0,4,0,1,,,,,,,,,,,,,,,,,,,,,,,,,,,,,,,,,,,,,,,,,,,,,,,,,,,,,,,,,,,,,,,,,,,,,,,,,,,,,,,,,,,,,,,,,,,,,,,,,,,,,,,,,,,,,
,,,,,,5f10d13957b4763f401690e5,62c53b5f12f839c363f3eecd,2022-07-06_09h38.09.788,Colour_Asymmetry_Pilot,2022.1.3,Win32,59.84082341,62c50e9c1127f2cd403a315f,,,,,,,,,,,,,,,,,,,"[0.6547999999999998,-0.043199999999999905,-0.011800000000000033]",onethree,"[-0.9766,-0.34920000000000007,0.2156]",-4,2.0351,-35,81,1,0,0,response7disk_5,-4,0,1,0,0,rectangle_8,-4,0,1,0,0,,,4,-4,0,1,0,0,,5,0,5,0,1,,,,,,,,,,,,,,,,,,,,,,,,,,,,,,,,,,,,,,,,,,,,,,,,,,,,,,,,,,,,,,,,,,,,,,,,,,,,,,,,,,,,,,,,,,,,,,,,,,,,,,,,,,,,,
,,,,,,5f10d13957b4763f401690e5,62c53b5f12f839c363f3eecd,2022-07-06_09h38.09.788,Colour_Asymmetry_Pilot,2022.1.3,Win32,59.84082341,62c50e9c1127f2cd403a315f,,,,,,,,,,,,,,,,,,,"[-0.4746,-0.0354000000000001,0.5449999999999999]",fourthree,"[0.9686000000000001,0.5763999999999998,0.11359999999999992]",-4,1.0849,-48,96,1,0,0,response7disk_5,-17,-3,1,0,0,rectangle_8,-17,-3,1,0,0,,,4,-17,-3,1,0,0,,6,0,6,0,1,,,,,,,,,,,,,,,,,,,,,,,,,,,,,,,,,,,,,,,,,,,,,,,,,,,,,,,,,,,,,,,,,,,,,,,,,,,,,,,,,,,,,,,,,,,,,,,,,,,,,,,,,,,,,
,,,,,,5f10d13957b4763f401690e5,62c53b5f12f839c363f3eecd,2022-07-06_09h38.09.788,Colour_Asymmetry_Pilot,2022.1.3,Win32,59.84082341,62c50e9c1127f2cd403a315f,,,,,,,,,,,,,,,,,,,,onetwo,,4,1.3177,,,,,,,,,,,,,,,,,,,,,,,,,,,,,,,,space,5.4266,"[0.34099999999999997,0.5841999999999998,-0.9844]","[-0.8198,-0.5138,-0.7492000000000001]",34,80,1,0,0,response1disk,-14,1,1,0,0,rectangle,-14,1,1,0,0,,1,0.0019,0,-14,1,1,0,0,0,0,0,113,1,32,second,,,,,,,,,,,,,,,,,,,,,,,,,,,,,,,,,,,,,,,,,,,,,,,,,,,,,,,,,,,,,,,,,,,,,,,,
,,,,,,5f10d13957b4763f401690e5,62c53b5f12f839c363f3eecd,2022-07-06_09h38.09.788,Colour_Asymmetry_Pilot,2022.1.3,Win32,59.84082341,62c50e9c1127f2cd403a315f,,,,,,,,,,,,,,,,,,,,onethree,,-4,0.7839,,,,,,,,,,,,,,,,,,,,,,,,,,,,,,,,,,"[0.19199999999999995,0.18419999999999992,0.5136000000000001]","[0.34099999999999997,0.5841999999999998,-0.9844]",-37,84,1,0,0,response7disk,-1,-7,1,0,0,rectangle,-1,-7,1,0,0,,1,0.0006,0,-1,-7,1,0,0,0,1,1,60,1,60,first,,,,,,,,,,,,,,,,,,,,,,,,,,,,,,,,,,,,,,,,,,,,,,,,,,,,,,,,,,,,,,,,,,,,,,,,
,,,,,,5f10d13957b4763f401690e5,62c53b5f12f839c363f3eecd,2022-07-06_09h38.09.788,Colour_Asymmetry_Pilot,2022.1.3,Win32,59.84082341,62c50e9c1127f2cd403a315f,,,,,,,,,,,,,,,,,,,,fourtwo,,-4,0.6337,,,,,,,,,,,,,,,,,,,,,,,,,,,,,,,,,,"[-0.4982,-0.2942,-0.0354000000000001]","[0.0351999999999999,0.41159999999999997,0.0038000000000000256]",-31,84,1,0,0,response7disk,6,10,1,0,0,rectangle,6,10,1,0,0,,1,0.0002,0,6,10,1,0,0,0,2,2,7,1,7,first,,,,,,,,,,,,,,,,,,,,,,,,,,,,,,,,,,,,,,,,,,,,,,,,,,,,,,,,,,,,,,,,,,,,,,,,
,,,,,,5f10d13957b4763f401690e5,62c53b5f12f839c363f3eecd,2022-07-06_09h38.09.788,Colour_Asymmetry_Pilot,2022.1.3,Win32,59.84082341,62c50e9c1127f2cd403a315f,,,,,,,,,,,,,,,,,,,,fourthree,,-4,0.8671,,,,,,,,,,,,,,,,,,,,,,,,,,,,,,,,,,"[-0.24719999999999998,0.5213999999999999,-0.12959999999999994]","[0.18419999999999992,-0.4276,-0.404]",-34,70,1,0,0,response7disk,-2,-2,1,0,0,rectangle,-2,-2,1,0,0,,2,0.0014,0,-2,-2,1,0,0,0,3,3,56,1,56,first,,,,,,,,,,,,,,,,,,,,,,,,,,,,,,,,,,,,,,,,,,,,,,,,,,,,,,,,,,,,,,,,,,,,,,,,
,,,,,,5f10d13957b4763f401690e5,62c53b5f12f839c363f3eecd,2022-07-06_09h38.09.788,Colour_Asymmetry_Pilot,2022.1.3,Win32,59.84082341,62c50e9c1127f2cd403a315f,,,,,,,,,,,,,,,,,,,,onethree,,4,0.6669,,,,,,,,,,,,,,,,,,,,,,,,,,,,,,,,,,"[0.7018,0.7802,-0.16079999999999994]","[0.2862,0.7802,0.3568]",44,79,1,0,0,response1disk,-1,4,1,0,0,rectangle,-1,4,1,0,0,,3,0.0013,0,-1,4,1,0,0,0,4,4,2,1,2,first,,,,,,,,,,,,,,,,,,,,,,,,,,,,,,,,,,,,,,,,,,,,,,,,,,,,,,,,,,,,,,,,,,,,,,,,
,,,,,,5f10d13957b4763f401690e5,62c53b5f12f839c363f3eecd,2022-07-06_09h38.09.788,Colour_Asymmetry_Pilot,2022.1.3,Win32,59.84082341,62c50e9c1127f2cd403a315f,,,,,,,,,,,,,,,,,,,,fourthree,,-4,1.3026,,,,,,,,,,,,,,,,,,,,,,,,,,,,,,,,,,"[0.9372,0.9450000000000001,0.8980000000000001]","[-0.5922000000000001,-0.7492000000000001,-0.5296000000000001]",-48,97,1,0,0,response7disk,-2,5,1,0,0,rectangle,-2,5,1,0,0,,1,0.0013,0,-2,5,1,0,0,0,5,5,68,1,68,first,,,,,,,,,,,,,,,,,,,,,,,,,,,,,,,,,,,,,,,,,,,,,,,,,,,,,,,,,,,,,,,,,,,,,,,,
,,,,,,5f10d13957b4763f401690e5,62c53b5f12f839c363f3eecd,2022-07-06_09h38.09.788,Colour_Asymmetry_Pilot,2022.1.3,Win32,59.84082341,62c50e9c1127f2cd403a315f,,,,,,,,,,,,,,,,,,,,fourthree,,-4,1.284,,,,,,,,,,,,,,,,,,,,,,,,,,,,,,,,,,"[0.34099999999999997,0.12939999999999996,-0.9766]","[-0.38039999999999996,-0.4276,-0.1452]",-61,94,1,0,0,response7disk,-8,7,1,0,0,rectangle,-8,7,1,0,0,,2,0.0016,0,-8,7,1,0,0,0,6,6,92,1,11,second,,,,,,,,,,,,,,,,,,,,,,,,,,,,,,,,,,,,,,,,,,,,,,,,,,,,,,,,,,,,,,,,,,,,,,,,
,,,,,,5f10d13957b4763f401690e5,62c53b5f12f839c363f3eecd,2022-07-06_09h38.09.788,Colour_Asymmetry_Pilot,2022.1.3,Win32,59.84082341,62c50e9c1127f2cd403a315f,,,,,,,,,,,,,,,,,,,,onethree,,-4,0.7006,,,,,,,,,,,,,,,,,,,,,,,,,,,,,,,,,,"[0.9372,0.20779999999999998,0.2704]","[-0.38039999999999996,-0.4276,-0.1452]",-38,82,1,0,0,response7disk,-10,-2,1,0,0,rectangle,-10,-2,1,0,0,,1,0.0014,0,-10,-2,1,0,0,0,7,7,148,1,67,second,,,,,,,,,,,,,,,,,,,,,,,,,,,,,,,,,,,,,,,,,,,,,,,,,,,,,,,,,,,,,,,,,,,,,,,,
,,,,,,5f10d13957b4763f401690e5,62c53b5f12f839c363f3eecd,2022-07-06_09h38.09.788,Colour_Asymmetry_Pilot,2022.1.3,Win32,59.84082341,62c50e9c1127f2cd403a315f,,,,,,,,,,,,,,,,,,,,fourtwo,,-4,0.5336,,,,,,,,,,,,,,,,,,,,,,,,,,,,,,,,,,"[0.34099999999999997,0.5841999999999998,-0.9844]","[-0.9766,-0.34920000000000007,0.2156]",-33,78,1,0,0,response7disk,5,7,1,0,0,rectangle,5,7,1,0,0,,3,0.0014,0,5,7,1,0,0,0,8,8,48,1,48,first,,,,,,,,,,,,,,,,,,,,,,,,,,,,,,,,,,,,,,,,,,,,,,,,,,,,,,,,,,,,,,,,,,,,,,,,
,,,,,,5f10d13957b4763f401690e5,62c53b5f12f839c363f3eecd,2022-07-06_09h38.09.788,Colour_Asymmetry_Pilot,2022.1.3,Win32,59.84082341,62c50e9c1127f2cd403a315f,,,,,,,,,,,,,,,,,,,,onethree,,-4,0.5661,,,,,,,,,,,,,,,,,,,,,,,,,,,,,,,,,,"[0.23120000000000007,-0.7726,-0.34120000000000006]","[0.34099999999999997,0.5841999999999998,-0.9844]",-45,77,1,0,0,response7disk,-6,6,1,0,0,rectangle,-6,6,1,0,0,,3,0.0003,0,-6,6,1,0,0,0,9,9,5,1,5,first,,,,,,,,,,,,,,,,,,,,,,,,,,,,,,,,,,,,,,,,,,,,,,,,,,,,,,,,,,,,,,,,,,,,,,,,
,,,,,,5f10d13957b4763f401690e5,62c53b5f12f839c363f3eecd,2022-07-06_09h38.09.788,Colour_Asymmetry_Pilot,2022.1.3,Win32,59.84082341,62c50e9c1127f2cd403a315f,,,,,,,,,,,,,,,,,,,,threeone,,4,0.599,,,,,,,,,,,,,,,,,,,,,,,,,,,,,,,,,,"[-0.6,0.16860000000000008,0.44300000000000006]","[0.19199999999999995,0.18419999999999992,0.5136000000000001]",25,79,1,0,0,response1disk,-8,4,1,0,0,rectangle,-8,4,1,0,0,,2,0.0013,0,-8,4,1,0,0,0,10,10,70,1,70,first,,,,,,,,,,,,,,,,,,,,,,,,,,,,,,,,,,,,,,,,,,,,,,,,,,,,,,,,,,,,,,,,,,,,,,,,
,,,,,,5f10d13957b4763f401690e5,62c53b5f12f839c363f3eecd,2022-07-06_09h38.09.788,Colour_Asymmetry_Pilot,2022.1.3,Win32,59.84082341,62c50e9c1127f2cd403a315f,,,,,,,,,,,,,,,,,,,,twofour,,-4,0.8837,,,,,,,,,,,,,,,,,,,,,,,,,,,,,,,,,,"[0.5449999999999999,-0.31000000000000005,-0.0354000000000001]","[-0.9138,-0.5296000000000001,-0.5529999999999999]",-52,82,1,0,0,response7disk,-2,2,1,0,0,rectangle,-2,2,1,0,0,,3,0.0012,0,-2,2,1,0,0,0,11,11,45,1,45,first,,,,,,,,,,,,,,,,,,,,,,,,,,,,,,,,,,,,,,,,,,,,,,,,,,,,,,,,,,,,,,,,,,,,,,,,
,,,,,,5f10d13957b4763f401690e5,62c53b5f12f839c363f3eecd,2022-07-06_09h38.09.788,Colour_Asymmetry_Pilot,2022.1.3,Win32,59.84082341,62c50e9c1127f2cd403a315f,,,,,,,,,,,,,,,,,,,,fourthree,,4,0.5493,,,,,,,,,,,,,,,,,,,,,,,,,,,,,,,,,,"[0.19199999999999995,0.18419999999999992,0.5136000000000001]","[-0.6,0.16860000000000008,0.44300000000000006]",31,76,1,0,0,response1disk,3,12,1,0,0,rectangle,3,12,1,0,0,,2,0.0015,0,3,12,1,0,0,0,12,12,151,1,70,second,,,,,,,,,,,,,,,,,,,,,,,,,,,,,,,,,,,,,,,,,,,,,,,,,,,,,,,,,,,,,,,,,,,,,,,,
,,,,,,5f10d13957b4763f401690e5,62c53b5f12f839c363f3eecd,2022-07-06_09h38.09.788,Colour_Asymmetry_Pilot,2022.1.3,Win32,59.84082341,62c50e9c1127f2cd403a315f,,,,,,,,,,,,,,,,,,,,threefour,,-4,0.6503,,,,,,,,,,,,,,,,,,,,,,,,,,,,,,,,,,"[0.5528,0.7409999999999999,-0.71]","[0.05879999999999996,0.2784,0.5841999999999998]",-38,76,1,0,0,response7disk,-5,-3,1,0,0,rectangle,-5,-3,1,0,0,,2,0.0005,0,-5,-3,1,0,0,0,13,13,108,1,27,second,,,,,,,,,,,,,,,,,,,,,,,,,,,,,,,,,,,,,,,,,,,,,,,,,,,,,,,,,,,,,,,,,,,,,,,,
,,,,,,5f10d13957b4763f401690e5,62c53b5f12f839c363f3eecd,2022-07-06_09h38.09.788,Colour_Asymmetry_Pilot,2022.1.3,Win32,59.84082341,62c50e9c1127f2cd403a315f,,,,,,,,,,,,,,,,,,,,fourthree,,4,0.7004,,,,,,,,,,,,,,,,,,,,,,,,,,,,,,,,,,"[0.0351999999999999,0.41159999999999997,0.0038000000000000256]","[-0.7412000000000001,-0.08239999999999992,-0.6864]",33,80,1,0,0,response1disk,-8,-5,1,0,0,rectangle,-8,-5,1,0,0,,3,0.0013,0,-8,-5,1,0,0,0,14,14,132,1,51,second,,,,,,,,,,,,,,,,,,,,,,,,,,,,,,,,,,,,,,,,,,,,,,,,,,,,,,,,,,,,,,,,,,,,,,,,
,,,,,,5f10d13957b4763f401690e5,62c53b5f12f839c363f3eecd,2022-07-06_09h38.09.788,Colour_Asymmetry_Pilot,2022.1.3,Win32,59.84082341,62c50e9c1127f2cd403a315f,,,,,,,,,,,,,,,,,,,,threeone,,-4,0.6173,,,,,,,,,,,,,,,,,,,,,,,,,,,,,,,,,,"[0.3881999999999999,-0.23939999999999995,-0.05040000000000011]","[-0.6235999999999999,-0.6786,-0.08239999999999992]",-39,66,1,0,0,response7disk,4,10,1,0,0,rectangle,4,10,1,0,0,,1,0.0014,0,4,10,1,0,0,0,15,15,93,1,12,second,,,,,,,,,,,,,,,,,,,,,,,,,,,,,,,,,,,,,,,,,,,,,,,,,,,,,,,,,,,,,,,,,,,,,,,,
,,,,,,5f10d13957b4763f401690e5,62c53b5f12f839c363f3eecd,2022-07-06_09h38.09.788,Colour_Asymmetry_Pilot,2022.1.3,Win32,59.84082341,62c50e9c1127f2cd403a315f,,,,,,,,,,,,,,,,,,,,fourtwo,,-4,0.5501,,,,,,,,,,,,,,,,,,,,,,,,,,,,,,,,,,"[-0.6235999999999999,-0.6786,-0.08239999999999992]","[0.18419999999999992,-0.4276,-0.404]",-31,69,1,0,0,response7disk,-2,-3,1,0,0,rectangle,-2,-3,1,0,0,,3,0.0014,0,-2,-3,1,0,0,0,16,16,135,1,54,second,,,,,,,,,,,,,,,,,,,,,,,,,,,,,,,,,,,,,,,,,,,,,,,,,,,,,,,,,,,,,,,,,,,,,,,,
,,,,,,5f10d13957b4763f401690e5,62c53b5f12f839c363f3eecd,2022-07-06_09h38.09.788,Colour_Asymmetry_Pilot,2022.1.3,Win32,59.84082341,62c50e9c1127f2cd403a315f,,,,,,,,,,,,,,,,,,,,onetwo,,-4,1.3009,,,,,,,,,,,,,,,,,,,,,,,,,,,,,,,,,,"[-0.6,0.16860000000000008,0.44300000000000006]","[0.9372,0.9450000000000001,0.8980000000000001]",-30,96,1,0,0,response7disk,-1,-1,1,0,0,rectangle,-1,-1,1,0,0,,2,0.0011,0,-1,-1,1,0,0,0,17,17,39,1,39,first,,,,,,,,,,,,,,,,,,,,,,,,,,,,,,,,,,,,,,,,,,,,,,,,,,,,,,,,,,,,,,,,,,,,,,,,
