trials.thisRepN,trials.thisTrialN,trials.thisN,trials.thisIndex,trials.ran,Colourcodes,participant,session,date,expName,psychopyVersion,OS,frameRate,study_id,trials_4.thisRepN,trials_4.thisTrialN,trials_4.thisN,trials_4.thisIndex,trials_4.ran,StimulusPos,key_resp.keys,key_resp.rt,key_resp_2.keys,key_resp_2.rt,key_resp_15.keys,key_resp_15.rt,key_resp_17.keys,key_resp_17.rt,key_resp_9.keys,key_resp_9.rt,key_resp_10.keys,key_resp_10.rt,Circle1_col,Ecc,Circle2_col,similarity,response_time,mouse_5.x,mouse_5.y,mouse_5.leftButton,mouse_5.midButton,mouse_5.rightButton,mouse_5.clicked_name,mouse_10.x,mouse_10.y,mouse_10.leftButton,mouse_10.midButton,mouse_10.rightButton,mouse_10.clicked_name,mouse_7.x,mouse_7.y,mouse_7.leftButton,mouse_7.midButton,mouse_7.rightButton,catchnumberprac,mouse_6.x,mouse_6.y,mouse_6.leftButton,mouse_6.midButton,mouse_6.rightButton,duringprac.thisRepN,duringprac.thisTrialN,duringprac.thisN,duringprac.thisIndex,duringprac.ran,mouse_7.clicked_name,catchprac,mouse_6.clicked_name,key_resp_22.keys,key_resp_22.rt,Circle1_colour,Circle2_colour,mouse.x,mouse.y,mouse.leftButton,mouse.midButton,mouse.rightButton,mouse.clicked_name,mouse_2.x,mouse_2.y,mouse_2.leftButton,mouse_2.midButton,mouse_2.rightButton,mouse_2.clicked_name,mouse_3.x,mouse_3.y,mouse_3.leftButton,mouse_3.midButton,mouse_3.rightButton,catchresponse,catchnumber,response_time_catch,Catch,mouse_11.x,mouse_11.y,mouse_11.leftButton,mouse_11.midButton,mouse_11.rightButton,trials_2.thisRepN,trials_2.thisTrialN,trials_2.thisN,trials_2.thisIndex,trials_2.ran,Colourpair,Temporder,mouse_3.clicked_name,mouse_11.clicked_name,trials_3.thisRepN,trials_3.thisTrialN,trials_3.thisN,trials_3.thisIndex,trials_3.ran,key_resp_instr_Ishi.keys,key_resp_instr_Ishi.rt,Ishi_trial_keyresp.keys,Ishi_textbox.text,Ishi_mouse.x,Ishi_mouse.y,Ishi_mouse.leftButton,Ishi_mouse.midButton,Ishi_mouse.rightButton,Ishi_mouse.clicked_name,Ishi_loop.thisRepN,Ishi_loop.thisTrialN,Ishi_loop.thisN,Ishi_loop.thisIndex,Ishi_loop.ran,imageaddress,textbox.text,mouse_4.x,mouse_4.y,mouse_4.leftButton,mouse_4.midButton,mouse_4.rightButton,mouse_4.clicked_name,textbox_2.text,mouse_8.x,mouse_8.y,mouse_8.leftButton,mouse_8.midButton,mouse_8.rightButton,mouse_8.clicked_name,textbox_3.text,mouse_9.x,mouse_9.y,mouse_9.leftButton,mouse_9.midButton,mouse_9.rightButton,mouse_9.clicked_name,textbox_4.text,mouse_12.x,mouse_12.y,mouse_12.leftButton,mouse_12.midButton,mouse_12.rightButton,mouse_12.clicked_name,textbox_5.text,mouse_13.x,mouse_13.y,mouse_13.leftButton,mouse_13.midButton,mouse_13.rightButton,mouse_13.clicked_name,textbox_6.text,mouse_14.x,mouse_14.y,mouse_14.leftButton,mouse_14.midButton,mouse_14.rightButton,mouse_14.clicked_name,textbox_7.text,mouse_15.x,mouse_15.y,mouse_15.leftButton,mouse_15.midButton,mouse_15.rightButton,mouse_15.clicked_name
0,0,0,46,1,,6113dc7ee718f73116fcdc8a,62c538b40f4e9eb445dab9c7,2022-07-06_09h44.48.400,Colour_Asymmetry_Pilot,2022.1.3,Win32,60.2373351,62c50e9c1127f2cd403a315f,,,,,,,,,,,,,,,,,,,,,,,,,,,,,,,,,,,,,,,,,,,,,,,,,,,,,,,,,,,,,,,,,,,,,,,,,,,,,,,,,,,,,,,,,,,,,,,,,,,,,,,,,,,,,,,,,,,,,,,,,,,,,,,,,,,,,,,,,,,,,,,,,,,,,,,,,,,,,,,,,,,
0,1,1,30,1,,6113dc7ee718f73116fcdc8a,62c538b40f4e9eb445dab9c7,2022-07-06_09h44.48.400,Colour_Asymmetry_Pilot,2022.1.3,Win32,60.2373351,62c50e9c1127f2cd403a315f,,,,,,,,,,,,,,,,,,,,,,,,,,,,,,,,,,,,,,,,,,,,,,,,,,,,,,,,,,,,,,,,,,,,,,,,,,,,,,,,,,,,,,,,,,,,,,,,,,,,,,,,,,,,,,,,,,,,,,,,,,,,,,,,,,,,,,,,,,,,,,,,,,,,,,,,,,,,,,,,,,,
0,2,2,62,1,,6113dc7ee718f73116fcdc8a,62c538b40f4e9eb445dab9c7,2022-07-06_09h44.48.400,Colour_Asymmetry_Pilot,2022.1.3,Win32,60.2373351,62c50e9c1127f2cd403a315f,,,,,,,,,,,,,,,,,,,,,,,,,,,,,,,,,,,,,,,,,,,,,,,,,,,,,,,,,,,,,,,,,,,,,,,,,,,,,,,,,,,,,,,,,,,,,,,,,,,,,,,,,,,,,,,,,,,,,,,,,,,,,,,,,,,,,,,,,,,,,,,,,,,,,,,,,,,,,,,,,,,
0,3,3,79,1,,6113dc7ee718f73116fcdc8a,62c538b40f4e9eb445dab9c7,2022-07-06_09h44.48.400,Colour_Asymmetry_Pilot,2022.1.3,Win32,60.2373351,62c50e9c1127f2cd403a315f,,,,,,,,,,,,,,,,,,,,,,,,,,,,,,,,,,,,,,,,,,,,,,,,,,,,,,,,,,,,,,,,,,,,,,,,,,,,,,,,,,,,,,,,,,,,,,,,,,,,,,,,,,,,,,,,,,,,,,,,,,,,,,,,,,,,,,,,,,,,,,,,,,,,,,,,,,,,,,,,,,,
0,4,4,28,1,,6113dc7ee718f73116fcdc8a,62c538b40f4e9eb445dab9c7,2022-07-06_09h44.48.400,Colour_Asymmetry_Pilot,2022.1.3,Win32,60.2373351,62c50e9c1127f2cd403a315f,,,,,,,,,,,,,,,,,,,,,,,,,,,,,,,,,,,,,,,,,,,,,,,,,,,,,,,,,,,,,,,,,,,,,,,,,,,,,,,,,,,,,,,,,,,,,,,,,,,,,,,,,,,,,,,,,,,,,,,,,,,,,,,,,,,,,,,,,,,,,,,,,,,,,,,,,,,,,,,,,,,
0,5,5,32,1,,6113dc7ee718f73116fcdc8a,62c538b40f4e9eb445dab9c7,2022-07-06_09h44.48.400,Colour_Asymmetry_Pilot,2022.1.3,Win32,60.2373351,62c50e9c1127f2cd403a315f,,,,,,,,,,,,,,,,,,,,,,,,,,,,,,,,,,,,,,,,,,,,,,,,,,,,,,,,,,,,,,,,,,,,,,,,,,,,,,,,,,,,,,,,,,,,,,,,,,,,,,,,,,,,,,,,,,,,,,,,,,,,,,,,,,,,,,,,,,,,,,,,,,,,,,,,,,,,,,,,,,,
0,6,6,26,1,,6113dc7ee718f73116fcdc8a,62c538b40f4e9eb445dab9c7,2022-07-06_09h44.48.400,Colour_Asymmetry_Pilot,2022.1.3,Win32,60.2373351,62c50e9c1127f2cd403a315f,,,,,,,,,,,,,,,,,,,,,,,,,,,,,,,,,,,,,,,,,,,,,,,,,,,,,,,,,,,,,,,,,,,,,,,,,,,,,,,,,,,,,,,,,,,,,,,,,,,,,,,,,,,,,,,,,,,,,,,,,,,,,,,,,,,,,,,,,,,,,,,,,,,,,,,,,,,,,,,,,,,
0,7,7,6,1,,6113dc7ee718f73116fcdc8a,62c538b40f4e9eb445dab9c7,2022-07-06_09h44.48.400,Colour_Asymmetry_Pilot,2022.1.3,Win32,60.2373351,62c50e9c1127f2cd403a315f,,,,,,,,,,,,,,,,,,,,,,,,,,,,,,,,,,,,,,,,,,,,,,,,,,,,,,,,,,,,,,,,,,,,,,,,,,,,,,,,,,,,,,,,,,,,,,,,,,,,,,,,,,,,,,,,,,,,,,,,,,,,,,,,,,,,,,,,,,,,,,,,,,,,,,,,,,,,,,,,,,,
0,8,8,31,1,,6113dc7ee718f73116fcdc8a,62c538b40f4e9eb445dab9c7,2022-07-06_09h44.48.400,Colour_Asymmetry_Pilot,2022.1.3,Win32,60.2373351,62c50e9c1127f2cd403a315f,,,,,,,,,,,,,,,,,,,,,,,,,,,,,,,,,,,,,,,,,,,,,,,,,,,,,,,,,,,,,,,,,,,,,,,,,,,,,,,,,,,,,,,,,,,,,,,,,,,,,,,,,,,,,,,,,,,,,,,,,,,,,,,,,,,,,,,,,,,,,,,,,,,,,,,,,,,,,,,,,,,
0,9,9,23,1,,6113dc7ee718f73116fcdc8a,62c538b40f4e9eb445dab9c7,2022-07-06_09h44.48.400,Colour_Asymmetry_Pilot,2022.1.3,Win32,60.2373351,62c50e9c1127f2cd403a315f,,,,,,,,,,,,,,,,,,,,,,,,,,,,,,,,,,,,,,,,,,,,,,,,,,,,,,,,,,,,,,,,,,,,,,,,,,,,,,,,,,,,,,,,,,,,,,,,,,,,,,,,,,,,,,,,,,,,,,,,,,,,,,,,,,,,,,,,,,,,,,,,,,,,,,,,,,,,,,,,,,,
0,10,10,3,1,,6113dc7ee718f73116fcdc8a,62c538b40f4e9eb445dab9c7,2022-07-06_09h44.48.400,Colour_Asymmetry_Pilot,2022.1.3,Win32,60.2373351,62c50e9c1127f2cd403a315f,,,,,,,,,,,,,,,,,,,,,,,,,,,,,,,,,,,,,,,,,,,,,,,,,,,,,,,,,,,,,,,,,,,,,,,,,,,,,,,,,,,,,,,,,,,,,,,,,,,,,,,,,,,,,,,,,,,,,,,,,,,,,,,,,,,,,,,,,,,,,,,,,,,,,,,,,,,,,,,,,,,
0,11,11,14,1,,6113dc7ee718f73116fcdc8a,62c538b40f4e9eb445dab9c7,2022-07-06_09h44.48.400,Colour_Asymmetry_Pilot,2022.1.3,Win32,60.2373351,62c50e9c1127f2cd403a315f,,,,,,,,,,,,,,,,,,,,,,,,,,,,,,,,,,,,,,,,,,,,,,,,,,,,,,,,,,,,,,,,,,,,,,,,,,,,,,,,,,,,,,,,,,,,,,,,,,,,,,,,,,,,,,,,,,,,,,,,,,,,,,,,,,,,,,,,,,,,,,,,,,,,,,,,,,,,,,,,,,,
0,12,12,74,1,,6113dc7ee718f73116fcdc8a,62c538b40f4e9eb445dab9c7,2022-07-06_09h44.48.400,Colour_Asymmetry_Pilot,2022.1.3,Win32,60.2373351,62c50e9c1127f2cd403a315f,,,,,,,,,,,,,,,,,,,,,,,,,,,,,,,,,,,,,,,,,,,,,,,,,,,,,,,,,,,,,,,,,,,,,,,,,,,,,,,,,,,,,,,,,,,,,,,,,,,,,,,,,,,,,,,,,,,,,,,,,,,,,,,,,,,,,,,,,,,,,,,,,,,,,,,,,,,,,,,,,,,
0,13,13,13,1,,6113dc7ee718f73116fcdc8a,62c538b40f4e9eb445dab9c7,2022-07-06_09h44.48.400,Colour_Asymmetry_Pilot,2022.1.3,Win32,60.2373351,62c50e9c1127f2cd403a315f,,,,,,,,,,,,,,,,,,,,,,,,,,,,,,,,,,,,,,,,,,,,,,,,,,,,,,,,,,,,,,,,,,,,,,,,,,,,,,,,,,,,,,,,,,,,,,,,,,,,,,,,,,,,,,,,,,,,,,,,,,,,,,,,,,,,,,,,,,,,,,,,,,,,,,,,,,,,,,,,,,,
0,14,14,11,1,,6113dc7ee718f73116fcdc8a,62c538b40f4e9eb445dab9c7,2022-07-06_09h44.48.400,Colour_Asymmetry_Pilot,2022.1.3,Win32,60.2373351,62c50e9c1127f2cd403a315f,,,,,,,,,,,,,,,,,,,,,,,,,,,,,,,,,,,,,,,,,,,,,,,,,,,,,,,,,,,,,,,,,,,,,,,,,,,,,,,,,,,,,,,,,,,,,,,,,,,,,,,,,,,,,,,,,,,,,,,,,,,,,,,,,,,,,,,,,,,,,,,,,,,,,,,,,,,,,,,,,,,
0,15,15,60,1,,6113dc7ee718f73116fcdc8a,62c538b40f4e9eb445dab9c7,2022-07-06_09h44.48.400,Colour_Asymmetry_Pilot,2022.1.3,Win32,60.2373351,62c50e9c1127f2cd403a315f,,,,,,,,,,,,,,,,,,,,,,,,,,,,,,,,,,,,,,,,,,,,,,,,,,,,,,,,,,,,,,,,,,,,,,,,,,,,,,,,,,,,,,,,,,,,,,,,,,,,,,,,,,,,,,,,,,,,,,,,,,,,,,,,,,,,,,,,,,,,,,,,,,,,,,,,,,,,,,,,,,,
0,16,16,17,1,,6113dc7ee718f73116fcdc8a,62c538b40f4e9eb445dab9c7,2022-07-06_09h44.48.400,Colour_Asymmetry_Pilot,2022.1.3,Win32,60.2373351,62c50e9c1127f2cd403a315f,,,,,,,,,,,,,,,,,,,,,,,,,,,,,,,,,,,,,,,,,,,,,,,,,,,,,,,,,,,,,,,,,,,,,,,,,,,,,,,,,,,,,,,,,,,,,,,,,,,,,,,,,,,,,,,,,,,,,,,,,,,,,,,,,,,,,,,,,,,,,,,,,,,,,,,,,,,,,,,,,,,
0,17,17,20,1,,6113dc7ee718f73116fcdc8a,62c538b40f4e9eb445dab9c7,2022-07-06_09h44.48.400,Colour_Asymmetry_Pilot,2022.1.3,Win32,60.2373351,62c50e9c1127f2cd403a315f,,,,,,,,,,,,,,,,,,,,,,,,,,,,,,,,,,,,,,,,,,,,,,,,,,,,,,,,,,,,,,,,,,,,,,,,,,,,,,,,,,,,,,,,,,,,,,,,,,,,,,,,,,,,,,,,,,,,,,,,,,,,,,,,,,,,,,,,,,,,,,,,,,,,,,,,,,,,,,,,,,,
0,18,18,90,1,,6113dc7ee718f73116fcdc8a,62c538b40f4e9eb445dab9c7,2022-07-06_09h44.48.400,Colour_Asymmetry_Pilot,2022.1.3,Win32,60.2373351,62c50e9c1127f2cd403a315f,,,,,,,,,,,,,,,,,,,,,,,,,,,,,,,,,,,,,,,,,,,,,,,,,,,,,,,,,,,,,,,,,,,,,,,,,,,,,,,,,,,,,,,,,,,,,,,,,,,,,,,,,,,,,,,,,,,,,,,,,,,,,,,,,,,,,,,,,,,,,,,,,,,,,,,,,,,,,,,,,,,
0,19,19,78,1,,6113dc7ee718f73116fcdc8a,62c538b40f4e9eb445dab9c7,2022-07-06_09h44.48.400,Colour_Asymmetry_Pilot,2022.1.3,Win32,60.2373351,62c50e9c1127f2cd403a315f,,,,,,,,,,,,,,,,,,,,,,,,,,,,,,,,,,,,,,,,,,,,,,,,,,,,,,,,,,,,,,,,,,,,,,,,,,,,,,,,,,,,,,,,,,,,,,,,,,,,,,,,,,,,,,,,,,,,,,,,,,,,,,,,,,,,,,,,,,,,,,,,,,,,,,,,,,,,,,,,,,,
0,20,20,27,1,,6113dc7ee718f73116fcdc8a,62c538b40f4e9eb445dab9c7,2022-07-06_09h44.48.400,Colour_Asymmetry_Pilot,2022.1.3,Win32,60.2373351,62c50e9c1127f2cd403a315f,,,,,,,,,,,,,,,,,,,,,,,,,,,,,,,,,,,,,,,,,,,,,,,,,,,,,,,,,,,,,,,,,,,,,,,,,,,,,,,,,,,,,,,,,,,,,,,,,,,,,,,,,,,,,,,,,,,,,,,,,,,,,,,,,,,,,,,,,,,,,,,,,,,,,,,,,,,,,,,,,,,
0,21,21,43,1,,6113dc7ee718f73116fcdc8a,62c538b40f4e9eb445dab9c7,2022-07-06_09h44.48.400,Colour_Asymmetry_Pilot,2022.1.3,Win32,60.2373351,62c50e9c1127f2cd403a315f,,,,,,,,,,,,,,,,,,,,,,,,,,,,,,,,,,,,,,,,,,,,,,,,,,,,,,,,,,,,,,,,,,,,,,,,,,,,,,,,,,,,,,,,,,,,,,,,,,,,,,,,,,,,,,,,,,,,,,,,,,,,,,,,,,,,,,,,,,,,,,,,,,,,,,,,,,,,,,,,,,,
0,22,22,39,1,,6113dc7ee718f73116fcdc8a,62c538b40f4e9eb445dab9c7,2022-07-06_09h44.48.400,Colour_Asymmetry_Pilot,2022.1.3,Win32,60.2373351,62c50e9c1127f2cd403a315f,,,,,,,,,,,,,,,,,,,,,,,,,,,,,,,,,,,,,,,,,,,,,,,,,,,,,,,,,,,,,,,,,,,,,,,,,,,,,,,,,,,,,,,,,,,,,,,,,,,,,,,,,,,,,,,,,,,,,,,,,,,,,,,,,,,,,,,,,,,,,,,,,,,,,,,,,,,,,,,,,,,
0,23,23,56,1,,6113dc7ee718f73116fcdc8a,62c538b40f4e9eb445dab9c7,2022-07-06_09h44.48.400,Colour_Asymmetry_Pilot,2022.1.3,Win32,60.2373351,62c50e9c1127f2cd403a315f,,,,,,,,,,,,,,,,,,,,,,,,,,,,,,,,,,,,,,,,,,,,,,,,,,,,,,,,,,,,,,,,,,,,,,,,,,,,,,,,,,,,,,,,,,,,,,,,,,,,,,,,,,,,,,,,,,,,,,,,,,,,,,,,,,,,,,,,,,,,,,,,,,,,,,,,,,,,,,,,,,,
0,24,24,37,1,,6113dc7ee718f73116fcdc8a,62c538b40f4e9eb445dab9c7,2022-07-06_09h44.48.400,Colour_Asymmetry_Pilot,2022.1.3,Win32,60.2373351,62c50e9c1127f2cd403a315f,,,,,,,,,,,,,,,,,,,,,,,,,,,,,,,,,,,,,,,,,,,,,,,,,,,,,,,,,,,,,,,,,,,,,,,,,,,,,,,,,,,,,,,,,,,,,,,,,,,,,,,,,,,,,,,,,,,,,,,,,,,,,,,,,,,,,,,,,,,,,,,,,,,,,,,,,,,,,,,,,,,
0,25,25,5,1,,6113dc7ee718f73116fcdc8a,62c538b40f4e9eb445dab9c7,2022-07-06_09h44.48.400,Colour_Asymmetry_Pilot,2022.1.3,Win32,60.2373351,62c50e9c1127f2cd403a315f,,,,,,,,,,,,,,,,,,,,,,,,,,,,,,,,,,,,,,,,,,,,,,,,,,,,,,,,,,,,,,,,,,,,,,,,,,,,,,,,,,,,,,,,,,,,,,,,,,,,,,,,,,,,,,,,,,,,,,,,,,,,,,,,,,,,,,,,,,,,,,,,,,,,,,,,,,,,,,,,,,,
0,26,26,77,1,,6113dc7ee718f73116fcdc8a,62c538b40f4e9eb445dab9c7,2022-07-06_09h44.48.400,Colour_Asymmetry_Pilot,2022.1.3,Win32,60.2373351,62c50e9c1127f2cd403a315f,,,,,,,,,,,,,,,,,,,,,,,,,,,,,,,,,,,,,,,,,,,,,,,,,,,,,,,,,,,,,,,,,,,,,,,,,,,,,,,,,,,,,,,,,,,,,,,,,,,,,,,,,,,,,,,,,,,,,,,,,,,,,,,,,,,,,,,,,,,,,,,,,,,,,,,,,,,,,,,,,,,
0,27,27,0,1,,6113dc7ee718f73116fcdc8a,62c538b40f4e9eb445dab9c7,2022-07-06_09h44.48.400,Colour_Asymmetry_Pilot,2022.1.3,Win32,60.2373351,62c50e9c1127f2cd403a315f,,,,,,,,,,,,,,,,,,,,,,,,,,,,,,,,,,,,,,,,,,,,,,,,,,,,,,,,,,,,,,,,,,,,,,,,,,,,,,,,,,,,,,,,,,,,,,,,,,,,,,,,,,,,,,,,,,,,,,,,,,,,,,,,,,,,,,,,,,,,,,,,,,,,,,,,,,,,,,,,,,,
0,28,28,67,1,,6113dc7ee718f73116fcdc8a,62c538b40f4e9eb445dab9c7,2022-07-06_09h44.48.400,Colour_Asymmetry_Pilot,2022.1.3,Win32,60.2373351,62c50e9c1127f2cd403a315f,,,,,,,,,,,,,,,,,,,,,,,,,,,,,,,,,,,,,,,,,,,,,,,,,,,,,,,,,,,,,,,,,,,,,,,,,,,,,,,,,,,,,,,,,,,,,,,,,,,,,,,,,,,,,,,,,,,,,,,,,,,,,,,,,,,,,,,,,,,,,,,,,,,,,,,,,,,,,,,,,,,
0,29,29,87,1,,6113dc7ee718f73116fcdc8a,62c538b40f4e9eb445dab9c7,2022-07-06_09h44.48.400,Colour_Asymmetry_Pilot,2022.1.3,Win32,60.2373351,62c50e9c1127f2cd403a315f,,,,,,,,,,,,,,,,,,,,,,,,,,,,,,,,,,,,,,,,,,,,,,,,,,,,,,,,,,,,,,,,,,,,,,,,,,,,,,,,,,,,,,,,,,,,,,,,,,,,,,,,,,,,,,,,,,,,,,,,,,,,,,,,,,,,,,,,,,,,,,,,,,,,,,,,,,,,,,,,,,,
0,30,30,57,1,,6113dc7ee718f73116fcdc8a,62c538b40f4e9eb445dab9c7,2022-07-06_09h44.48.400,Colour_Asymmetry_Pilot,2022.1.3,Win32,60.2373351,62c50e9c1127f2cd403a315f,,,,,,,,,,,,,,,,,,,,,,,,,,,,,,,,,,,,,,,,,,,,,,,,,,,,,,,,,,,,,,,,,,,,,,,,,,,,,,,,,,,,,,,,,,,,,,,,,,,,,,,,,,,,,,,,,,,,,,,,,,,,,,,,,,,,,,,,,,,,,,,,,,,,,,,,,,,,,,,,,,,
0,31,31,49,1,,6113dc7ee718f73116fcdc8a,62c538b40f4e9eb445dab9c7,2022-07-06_09h44.48.400,Colour_Asymmetry_Pilot,2022.1.3,Win32,60.2373351,62c50e9c1127f2cd403a315f,,,,,,,,,,,,,,,,,,,,,,,,,,,,,,,,,,,,,,,,,,,,,,,,,,,,,,,,,,,,,,,,,,,,,,,,,,,,,,,,,,,,,,,,,,,,,,,,,,,,,,,,,,,,,,,,,,,,,,,,,,,,,,,,,,,,,,,,,,,,,,,,,,,,,,,,,,,,,,,,,,,
0,32,32,50,1,,6113dc7ee718f73116fcdc8a,62c538b40f4e9eb445dab9c7,2022-07-06_09h44.48.400,Colour_Asymmetry_Pilot,2022.1.3,Win32,60.2373351,62c50e9c1127f2cd403a315f,,,,,,,,,,,,,,,,,,,,,,,,,,,,,,,,,,,,,,,,,,,,,,,,,,,,,,,,,,,,,,,,,,,,,,,,,,,,,,,,,,,,,,,,,,,,,,,,,,,,,,,,,,,,,,,,,,,,,,,,,,,,,,,,,,,,,,,,,,,,,,,,,,,,,,,,,,,,,,,,,,,
0,33,33,59,1,,6113dc7ee718f73116fcdc8a,62c538b40f4e9eb445dab9c7,2022-07-06_09h44.48.400,Colour_Asymmetry_Pilot,2022.1.3,Win32,60.2373351,62c50e9c1127f2cd403a315f,,,,,,,,,,,,,,,,,,,,,,,,,,,,,,,,,,,,,,,,,,,,,,,,,,,,,,,,,,,,,,,,,,,,,,,,,,,,,,,,,,,,,,,,,,,,,,,,,,,,,,,,,,,,,,,,,,,,,,,,,,,,,,,,,,,,,,,,,,,,,,,,,,,,,,,,,,,,,,,,,,,
0,34,34,4,1,,6113dc7ee718f73116fcdc8a,62c538b40f4e9eb445dab9c7,2022-07-06_09h44.48.400,Colour_Asymmetry_Pilot,2022.1.3,Win32,60.2373351,62c50e9c1127f2cd403a315f,,,,,,,,,,,,,,,,,,,,,,,,,,,,,,,,,,,,,,,,,,,,,,,,,,,,,,,,,,,,,,,,,,,,,,,,,,,,,,,,,,,,,,,,,,,,,,,,,,,,,,,,,,,,,,,,,,,,,,,,,,,,,,,,,,,,,,,,,,,,,,,,,,,,,,,,,,,,,,,,,,,
0,35,35,42,1,,6113dc7ee718f73116fcdc8a,62c538b40f4e9eb445dab9c7,2022-07-06_09h44.48.400,Colour_Asymmetry_Pilot,2022.1.3,Win32,60.2373351,62c50e9c1127f2cd403a315f,,,,,,,,,,,,,,,,,,,,,,,,,,,,,,,,,,,,,,,,,,,,,,,,,,,,,,,,,,,,,,,,,,,,,,,,,,,,,,,,,,,,,,,,,,,,,,,,,,,,,,,,,,,,,,,,,,,,,,,,,,,,,,,,,,,,,,,,,,,,,,,,,,,,,,,,,,,,,,,,,,,
0,36,36,2,1,,6113dc7ee718f73116fcdc8a,62c538b40f4e9eb445dab9c7,2022-07-06_09h44.48.400,Colour_Asymmetry_Pilot,2022.1.3,Win32,60.2373351,62c50e9c1127f2cd403a315f,,,,,,,,,,,,,,,,,,,,,,,,,,,,,,,,,,,,,,,,,,,,,,,,,,,,,,,,,,,,,,,,,,,,,,,,,,,,,,,,,,,,,,,,,,,,,,,,,,,,,,,,,,,,,,,,,,,,,,,,,,,,,,,,,,,,,,,,,,,,,,,,,,,,,,,,,,,,,,,,,,,
0,37,37,91,1,,6113dc7ee718f73116fcdc8a,62c538b40f4e9eb445dab9c7,2022-07-06_09h44.48.400,Colour_Asymmetry_Pilot,2022.1.3,Win32,60.2373351,62c50e9c1127f2cd403a315f,,,,,,,,,,,,,,,,,,,,,,,,,,,,,,,,,,,,,,,,,,,,,,,,,,,,,,,,,,,,,,,,,,,,,,,,,,,,,,,,,,,,,,,,,,,,,,,,,,,,,,,,,,,,,,,,,,,,,,,,,,,,,,,,,,,,,,,,,,,,,,,,,,,,,,,,,,,,,,,,,,,
0,38,38,40,1,,6113dc7ee718f73116fcdc8a,62c538b40f4e9eb445dab9c7,2022-07-06_09h44.48.400,Colour_Asymmetry_Pilot,2022.1.3,Win32,60.2373351,62c50e9c1127f2cd403a315f,,,,,,,,,,,,,,,,,,,,,,,,,,,,,,,,,,,,,,,,,,,,,,,,,,,,,,,,,,,,,,,,,,,,,,,,,,,,,,,,,,,,,,,,,,,,,,,,,,,,,,,,,,,,,,,,,,,,,,,,,,,,,,,,,,,,,,,,,,,,,,,,,,,,,,,,,,,,,,,,,,,
0,39,39,29,1,,6113dc7ee718f73116fcdc8a,62c538b40f4e9eb445dab9c7,2022-07-06_09h44.48.400,Colour_Asymmetry_Pilot,2022.1.3,Win32,60.2373351,62c50e9c1127f2cd403a315f,,,,,,,,,,,,,,,,,,,,,,,,,,,,,,,,,,,,,,,,,,,,,,,,,,,,,,,,,,,,,,,,,,,,,,,,,,,,,,,,,,,,,,,,,,,,,,,,,,,,,,,,,,,,,,,,,,,,,,,,,,,,,,,,,,,,,,,,,,,,,,,,,,,,,,,,,,,,,,,,,,,
0,40,40,47,1,,6113dc7ee718f73116fcdc8a,62c538b40f4e9eb445dab9c7,2022-07-06_09h44.48.400,Colour_Asymmetry_Pilot,2022.1.3,Win32,60.2373351,62c50e9c1127f2cd403a315f,,,,,,,,,,,,,,,,,,,,,,,,,,,,,,,,,,,,,,,,,,,,,,,,,,,,,,,,,,,,,,,,,,,,,,,,,,,,,,,,,,,,,,,,,,,,,,,,,,,,,,,,,,,,,,,,,,,,,,,,,,,,,,,,,,,,,,,,,,,,,,,,,,,,,,,,,,,,,,,,,,,
0,41,41,19,1,,6113dc7ee718f73116fcdc8a,62c538b40f4e9eb445dab9c7,2022-07-06_09h44.48.400,Colour_Asymmetry_Pilot,2022.1.3,Win32,60.2373351,62c50e9c1127f2cd403a315f,,,,,,,,,,,,,,,,,,,,,,,,,,,,,,,,,,,,,,,,,,,,,,,,,,,,,,,,,,,,,,,,,,,,,,,,,,,,,,,,,,,,,,,,,,,,,,,,,,,,,,,,,,,,,,,,,,,,,,,,,,,,,,,,,,,,,,,,,,,,,,,,,,,,,,,,,,,,,,,,,,,
0,42,42,8,1,,6113dc7ee718f73116fcdc8a,62c538b40f4e9eb445dab9c7,2022-07-06_09h44.48.400,Colour_Asymmetry_Pilot,2022.1.3,Win32,60.2373351,62c50e9c1127f2cd403a315f,,,,,,,,,,,,,,,,,,,,,,,,,,,,,,,,,,,,,,,,,,,,,,,,,,,,,,,,,,,,,,,,,,,,,,,,,,,,,,,,,,,,,,,,,,,,,,,,,,,,,,,,,,,,,,,,,,,,,,,,,,,,,,,,,,,,,,,,,,,,,,,,,,,,,,,,,,,,,,,,,,,
0,43,43,68,1,,6113dc7ee718f73116fcdc8a,62c538b40f4e9eb445dab9c7,2022-07-06_09h44.48.400,Colour_Asymmetry_Pilot,2022.1.3,Win32,60.2373351,62c50e9c1127f2cd403a315f,,,,,,,,,,,,,,,,,,,,,,,,,,,,,,,,,,,,,,,,,,,,,,,,,,,,,,,,,,,,,,,,,,,,,,,,,,,,,,,,,,,,,,,,,,,,,,,,,,,,,,,,,,,,,,,,,,,,,,,,,,,,,,,,,,,,,,,,,,,,,,,,,,,,,,,,,,,,,,,,,,,
0,44,44,53,1,,6113dc7ee718f73116fcdc8a,62c538b40f4e9eb445dab9c7,2022-07-06_09h44.48.400,Colour_Asymmetry_Pilot,2022.1.3,Win32,60.2373351,62c50e9c1127f2cd403a315f,,,,,,,,,,,,,,,,,,,,,,,,,,,,,,,,,,,,,,,,,,,,,,,,,,,,,,,,,,,,,,,,,,,,,,,,,,,,,,,,,,,,,,,,,,,,,,,,,,,,,,,,,,,,,,,,,,,,,,,,,,,,,,,,,,,,,,,,,,,,,,,,,,,,,,,,,,,,,,,,,,,
0,45,45,86,1,,6113dc7ee718f73116fcdc8a,62c538b40f4e9eb445dab9c7,2022-07-06_09h44.48.400,Colour_Asymmetry_Pilot,2022.1.3,Win32,60.2373351,62c50e9c1127f2cd403a315f,,,,,,,,,,,,,,,,,,,,,,,,,,,,,,,,,,,,,,,,,,,,,,,,,,,,,,,,,,,,,,,,,,,,,,,,,,,,,,,,,,,,,,,,,,,,,,,,,,,,,,,,,,,,,,,,,,,,,,,,,,,,,,,,,,,,,,,,,,,,,,,,,,,,,,,,,,,,,,,,,,,
0,46,46,22,1,,6113dc7ee718f73116fcdc8a,62c538b40f4e9eb445dab9c7,2022-07-06_09h44.48.400,Colour_Asymmetry_Pilot,2022.1.3,Win32,60.2373351,62c50e9c1127f2cd403a315f,,,,,,,,,,,,,,,,,,,,,,,,,,,,,,,,,,,,,,,,,,,,,,,,,,,,,,,,,,,,,,,,,,,,,,,,,,,,,,,,,,,,,,,,,,,,,,,,,,,,,,,,,,,,,,,,,,,,,,,,,,,,,,,,,,,,,,,,,,,,,,,,,,,,,,,,,,,,,,,,,,,
0,47,47,61,1,,6113dc7ee718f73116fcdc8a,62c538b40f4e9eb445dab9c7,2022-07-06_09h44.48.400,Colour_Asymmetry_Pilot,2022.1.3,Win32,60.2373351,62c50e9c1127f2cd403a315f,,,,,,,,,,,,,,,,,,,,,,,,,,,,,,,,,,,,,,,,,,,,,,,,,,,,,,,,,,,,,,,,,,,,,,,,,,,,,,,,,,,,,,,,,,,,,,,,,,,,,,,,,,,,,,,,,,,,,,,,,,,,,,,,,,,,,,,,,,,,,,,,,,,,,,,,,,,,,,,,,,,
0,48,48,36,1,,6113dc7ee718f73116fcdc8a,62c538b40f4e9eb445dab9c7,2022-07-06_09h44.48.400,Colour_Asymmetry_Pilot,2022.1.3,Win32,60.2373351,62c50e9c1127f2cd403a315f,,,,,,,,,,,,,,,,,,,,,,,,,,,,,,,,,,,,,,,,,,,,,,,,,,,,,,,,,,,,,,,,,,,,,,,,,,,,,,,,,,,,,,,,,,,,,,,,,,,,,,,,,,,,,,,,,,,,,,,,,,,,,,,,,,,,,,,,,,,,,,,,,,,,,,,,,,,,,,,,,,,
0,49,49,84,1,,6113dc7ee718f73116fcdc8a,62c538b40f4e9eb445dab9c7,2022-07-06_09h44.48.400,Colour_Asymmetry_Pilot,2022.1.3,Win32,60.2373351,62c50e9c1127f2cd403a315f,,,,,,,,,,,,,,,,,,,,,,,,,,,,,,,,,,,,,,,,,,,,,,,,,,,,,,,,,,,,,,,,,,,,,,,,,,,,,,,,,,,,,,,,,,,,,,,,,,,,,,,,,,,,,,,,,,,,,,,,,,,,,,,,,,,,,,,,,,,,,,,,,,,,,,,,,,,,,,,,,,,
0,50,50,58,1,,6113dc7ee718f73116fcdc8a,62c538b40f4e9eb445dab9c7,2022-07-06_09h44.48.400,Colour_Asymmetry_Pilot,2022.1.3,Win32,60.2373351,62c50e9c1127f2cd403a315f,,,,,,,,,,,,,,,,,,,,,,,,,,,,,,,,,,,,,,,,,,,,,,,,,,,,,,,,,,,,,,,,,,,,,,,,,,,,,,,,,,,,,,,,,,,,,,,,,,,,,,,,,,,,,,,,,,,,,,,,,,,,,,,,,,,,,,,,,,,,,,,,,,,,,,,,,,,,,,,,,,,
0,51,51,70,1,,6113dc7ee718f73116fcdc8a,62c538b40f4e9eb445dab9c7,2022-07-06_09h44.48.400,Colour_Asymmetry_Pilot,2022.1.3,Win32,60.2373351,62c50e9c1127f2cd403a315f,,,,,,,,,,,,,,,,,,,,,,,,,,,,,,,,,,,,,,,,,,,,,,,,,,,,,,,,,,,,,,,,,,,,,,,,,,,,,,,,,,,,,,,,,,,,,,,,,,,,,,,,,,,,,,,,,,,,,,,,,,,,,,,,,,,,,,,,,,,,,,,,,,,,,,,,,,,,,,,,,,,
0,52,52,21,1,,6113dc7ee718f73116fcdc8a,62c538b40f4e9eb445dab9c7,2022-07-06_09h44.48.400,Colour_Asymmetry_Pilot,2022.1.3,Win32,60.2373351,62c50e9c1127f2cd403a315f,,,,,,,,,,,,,,,,,,,,,,,,,,,,,,,,,,,,,,,,,,,,,,,,,,,,,,,,,,,,,,,,,,,,,,,,,,,,,,,,,,,,,,,,,,,,,,,,,,,,,,,,,,,,,,,,,,,,,,,,,,,,,,,,,,,,,,,,,,,,,,,,,,,,,,,,,,,,,,,,,,,
0,53,53,66,1,,6113dc7ee718f73116fcdc8a,62c538b40f4e9eb445dab9c7,2022-07-06_09h44.48.400,Colour_Asymmetry_Pilot,2022.1.3,Win32,60.2373351,62c50e9c1127f2cd403a315f,,,,,,,,,,,,,,,,,,,,,,,,,,,,,,,,,,,,,,,,,,,,,,,,,,,,,,,,,,,,,,,,,,,,,,,,,,,,,,,,,,,,,,,,,,,,,,,,,,,,,,,,,,,,,,,,,,,,,,,,,,,,,,,,,,,,,,,,,,,,,,,,,,,,,,,,,,,,,,,,,,,
0,54,54,65,1,,6113dc7ee718f73116fcdc8a,62c538b40f4e9eb445dab9c7,2022-07-06_09h44.48.400,Colour_Asymmetry_Pilot,2022.1.3,Win32,60.2373351,62c50e9c1127f2cd403a315f,,,,,,,,,,,,,,,,,,,,,,,,,,,,,,,,,,,,,,,,,,,,,,,,,,,,,,,,,,,,,,,,,,,,,,,,,,,,,,,,,,,,,,,,,,,,,,,,,,,,,,,,,,,,,,,,,,,,,,,,,,,,,,,,,,,,,,,,,,,,,,,,,,,,,,,,,,,,,,,,,,,
0,55,55,25,1,,6113dc7ee718f73116fcdc8a,62c538b40f4e9eb445dab9c7,2022-07-06_09h44.48.400,Colour_Asymmetry_Pilot,2022.1.3,Win32,60.2373351,62c50e9c1127f2cd403a315f,,,,,,,,,,,,,,,,,,,,,,,,,,,,,,,,,,,,,,,,,,,,,,,,,,,,,,,,,,,,,,,,,,,,,,,,,,,,,,,,,,,,,,,,,,,,,,,,,,,,,,,,,,,,,,,,,,,,,,,,,,,,,,,,,,,,,,,,,,,,,,,,,,,,,,,,,,,,,,,,,,,
0,56,56,69,1,,6113dc7ee718f73116fcdc8a,62c538b40f4e9eb445dab9c7,2022-07-06_09h44.48.400,Colour_Asymmetry_Pilot,2022.1.3,Win32,60.2373351,62c50e9c1127f2cd403a315f,,,,,,,,,,,,,,,,,,,,,,,,,,,,,,,,,,,,,,,,,,,,,,,,,,,,,,,,,,,,,,,,,,,,,,,,,,,,,,,,,,,,,,,,,,,,,,,,,,,,,,,,,,,,,,,,,,,,,,,,,,,,,,,,,,,,,,,,,,,,,,,,,,,,,,,,,,,,,,,,,,,
0,57,57,10,1,,6113dc7ee718f73116fcdc8a,62c538b40f4e9eb445dab9c7,2022-07-06_09h44.48.400,Colour_Asymmetry_Pilot,2022.1.3,Win32,60.2373351,62c50e9c1127f2cd403a315f,,,,,,,,,,,,,,,,,,,,,,,,,,,,,,,,,,,,,,,,,,,,,,,,,,,,,,,,,,,,,,,,,,,,,,,,,,,,,,,,,,,,,,,,,,,,,,,,,,,,,,,,,,,,,,,,,,,,,,,,,,,,,,,,,,,,,,,,,,,,,,,,,,,,,,,,,,,,,,,,,,,
0,58,58,45,1,,6113dc7ee718f73116fcdc8a,62c538b40f4e9eb445dab9c7,2022-07-06_09h44.48.400,Colour_Asymmetry_Pilot,2022.1.3,Win32,60.2373351,62c50e9c1127f2cd403a315f,,,,,,,,,,,,,,,,,,,,,,,,,,,,,,,,,,,,,,,,,,,,,,,,,,,,,,,,,,,,,,,,,,,,,,,,,,,,,,,,,,,,,,,,,,,,,,,,,,,,,,,,,,,,,,,,,,,,,,,,,,,,,,,,,,,,,,,,,,,,,,,,,,,,,,,,,,,,,,,,,,,
0,59,59,1,1,,6113dc7ee718f73116fcdc8a,62c538b40f4e9eb445dab9c7,2022-07-06_09h44.48.400,Colour_Asymmetry_Pilot,2022.1.3,Win32,60.2373351,62c50e9c1127f2cd403a315f,,,,,,,,,,,,,,,,,,,,,,,,,,,,,,,,,,,,,,,,,,,,,,,,,,,,,,,,,,,,,,,,,,,,,,,,,,,,,,,,,,,,,,,,,,,,,,,,,,,,,,,,,,,,,,,,,,,,,,,,,,,,,,,,,,,,,,,,,,,,,,,,,,,,,,,,,,,,,,,,,,,
0,60,60,83,1,,6113dc7ee718f73116fcdc8a,62c538b40f4e9eb445dab9c7,2022-07-06_09h44.48.400,Colour_Asymmetry_Pilot,2022.1.3,Win32,60.2373351,62c50e9c1127f2cd403a315f,,,,,,,,,,,,,,,,,,,,,,,,,,,,,,,,,,,,,,,,,,,,,,,,,,,,,,,,,,,,,,,,,,,,,,,,,,,,,,,,,,,,,,,,,,,,,,,,,,,,,,,,,,,,,,,,,,,,,,,,,,,,,,,,,,,,,,,,,,,,,,,,,,,,,,,,,,,,,,,,,,,
0,61,61,12,1,,6113dc7ee718f73116fcdc8a,62c538b40f4e9eb445dab9c7,2022-07-06_09h44.48.400,Colour_Asymmetry_Pilot,2022.1.3,Win32,60.2373351,62c50e9c1127f2cd403a315f,,,,,,,,,,,,,,,,,,,,,,,,,,,,,,,,,,,,,,,,,,,,,,,,,,,,,,,,,,,,,,,,,,,,,,,,,,,,,,,,,,,,,,,,,,,,,,,,,,,,,,,,,,,,,,,,,,,,,,,,,,,,,,,,,,,,,,,,,,,,,,,,,,,,,,,,,,,,,,,,,,,
0,62,62,76,1,,6113dc7ee718f73116fcdc8a,62c538b40f4e9eb445dab9c7,2022-07-06_09h44.48.400,Colour_Asymmetry_Pilot,2022.1.3,Win32,60.2373351,62c50e9c1127f2cd403a315f,,,,,,,,,,,,,,,,,,,,,,,,,,,,,,,,,,,,,,,,,,,,,,,,,,,,,,,,,,,,,,,,,,,,,,,,,,,,,,,,,,,,,,,,,,,,,,,,,,,,,,,,,,,,,,,,,,,,,,,,,,,,,,,,,,,,,,,,,,,,,,,,,,,,,,,,,,,,,,,,,,,
0,63,63,80,1,,6113dc7ee718f73116fcdc8a,62c538b40f4e9eb445dab9c7,2022-07-06_09h44.48.400,Colour_Asymmetry_Pilot,2022.1.3,Win32,60.2373351,62c50e9c1127f2cd403a315f,,,,,,,,,,,,,,,,,,,,,,,,,,,,,,,,,,,,,,,,,,,,,,,,,,,,,,,,,,,,,,,,,,,,,,,,,,,,,,,,,,,,,,,,,,,,,,,,,,,,,,,,,,,,,,,,,,,,,,,,,,,,,,,,,,,,,,,,,,,,,,,,,,,,,,,,,,,,,,,,,,,
0,64,64,7,1,,6113dc7ee718f73116fcdc8a,62c538b40f4e9eb445dab9c7,2022-07-06_09h44.48.400,Colour_Asymmetry_Pilot,2022.1.3,Win32,60.2373351,62c50e9c1127f2cd403a315f,,,,,,,,,,,,,,,,,,,,,,,,,,,,,,,,,,,,,,,,,,,,,,,,,,,,,,,,,,,,,,,,,,,,,,,,,,,,,,,,,,,,,,,,,,,,,,,,,,,,,,,,,,,,,,,,,,,,,,,,,,,,,,,,,,,,,,,,,,,,,,,,,,,,,,,,,,,,,,,,,,,
0,65,65,92,1,,6113dc7ee718f73116fcdc8a,62c538b40f4e9eb445dab9c7,2022-07-06_09h44.48.400,Colour_Asymmetry_Pilot,2022.1.3,Win32,60.2373351,62c50e9c1127f2cd403a315f,,,,,,,,,,,,,,,,,,,,,,,,,,,,,,,,,,,,,,,,,,,,,,,,,,,,,,,,,,,,,,,,,,,,,,,,,,,,,,,,,,,,,,,,,,,,,,,,,,,,,,,,,,,,,,,,,,,,,,,,,,,,,,,,,,,,,,,,,,,,,,,,,,,,,,,,,,,,,,,,,,,
0,66,66,16,1,,6113dc7ee718f73116fcdc8a,62c538b40f4e9eb445dab9c7,2022-07-06_09h44.48.400,Colour_Asymmetry_Pilot,2022.1.3,Win32,60.2373351,62c50e9c1127f2cd403a315f,,,,,,,,,,,,,,,,,,,,,,,,,,,,,,,,,,,,,,,,,,,,,,,,,,,,,,,,,,,,,,,,,,,,,,,,,,,,,,,,,,,,,,,,,,,,,,,,,,,,,,,,,,,,,,,,,,,,,,,,,,,,,,,,,,,,,,,,,,,,,,,,,,,,,,,,,,,,,,,,,,,
0,67,67,81,1,,6113dc7ee718f73116fcdc8a,62c538b40f4e9eb445dab9c7,2022-07-06_09h44.48.400,Colour_Asymmetry_Pilot,2022.1.3,Win32,60.2373351,62c50e9c1127f2cd403a315f,,,,,,,,,,,,,,,,,,,,,,,,,,,,,,,,,,,,,,,,,,,,,,,,,,,,,,,,,,,,,,,,,,,,,,,,,,,,,,,,,,,,,,,,,,,,,,,,,,,,,,,,,,,,,,,,,,,,,,,,,,,,,,,,,,,,,,,,,,,,,,,,,,,,,,,,,,,,,,,,,,,
0,68,68,41,1,,6113dc7ee718f73116fcdc8a,62c538b40f4e9eb445dab9c7,2022-07-06_09h44.48.400,Colour_Asymmetry_Pilot,2022.1.3,Win32,60.2373351,62c50e9c1127f2cd403a315f,,,,,,,,,,,,,,,,,,,,,,,,,,,,,,,,,,,,,,,,,,,,,,,,,,,,,,,,,,,,,,,,,,,,,,,,,,,,,,,,,,,,,,,,,,,,,,,,,,,,,,,,,,,,,,,,,,,,,,,,,,,,,,,,,,,,,,,,,,,,,,,,,,,,,,,,,,,,,,,,,,,
0,69,69,33,1,,6113dc7ee718f73116fcdc8a,62c538b40f4e9eb445dab9c7,2022-07-06_09h44.48.400,Colour_Asymmetry_Pilot,2022.1.3,Win32,60.2373351,62c50e9c1127f2cd403a315f,,,,,,,,,,,,,,,,,,,,,,,,,,,,,,,,,,,,,,,,,,,,,,,,,,,,,,,,,,,,,,,,,,,,,,,,,,,,,,,,,,,,,,,,,,,,,,,,,,,,,,,,,,,,,,,,,,,,,,,,,,,,,,,,,,,,,,,,,,,,,,,,,,,,,,,,,,,,,,,,,,,
0,70,70,48,1,,6113dc7ee718f73116fcdc8a,62c538b40f4e9eb445dab9c7,2022-07-06_09h44.48.400,Colour_Asymmetry_Pilot,2022.1.3,Win32,60.2373351,62c50e9c1127f2cd403a315f,,,,,,,,,,,,,,,,,,,,,,,,,,,,,,,,,,,,,,,,,,,,,,,,,,,,,,,,,,,,,,,,,,,,,,,,,,,,,,,,,,,,,,,,,,,,,,,,,,,,,,,,,,,,,,,,,,,,,,,,,,,,,,,,,,,,,,,,,,,,,,,,,,,,,,,,,,,,,,,,,,,
0,71,71,24,1,,6113dc7ee718f73116fcdc8a,62c538b40f4e9eb445dab9c7,2022-07-06_09h44.48.400,Colour_Asymmetry_Pilot,2022.1.3,Win32,60.2373351,62c50e9c1127f2cd403a315f,,,,,,,,,,,,,,,,,,,,,,,,,,,,,,,,,,,,,,,,,,,,,,,,,,,,,,,,,,,,,,,,,,,,,,,,,,,,,,,,,,,,,,,,,,,,,,,,,,,,,,,,,,,,,,,,,,,,,,,,,,,,,,,,,,,,,,,,,,,,,,,,,,,,,,,,,,,,,,,,,,,
0,72,72,75,1,,6113dc7ee718f73116fcdc8a,62c538b40f4e9eb445dab9c7,2022-07-06_09h44.48.400,Colour_Asymmetry_Pilot,2022.1.3,Win32,60.2373351,62c50e9c1127f2cd403a315f,,,,,,,,,,,,,,,,,,,,,,,,,,,,,,,,,,,,,,,,,,,,,,,,,,,,,,,,,,,,,,,,,,,,,,,,,,,,,,,,,,,,,,,,,,,,,,,,,,,,,,,,,,,,,,,,,,,,,,,,,,,,,,,,,,,,,,,,,,,,,,,,,,,,,,,,,,,,,,,,,,,
0,73,73,38,1,,6113dc7ee718f73116fcdc8a,62c538b40f4e9eb445dab9c7,2022-07-06_09h44.48.400,Colour_Asymmetry_Pilot,2022.1.3,Win32,60.2373351,62c50e9c1127f2cd403a315f,,,,,,,,,,,,,,,,,,,,,,,,,,,,,,,,,,,,,,,,,,,,,,,,,,,,,,,,,,,,,,,,,,,,,,,,,,,,,,,,,,,,,,,,,,,,,,,,,,,,,,,,,,,,,,,,,,,,,,,,,,,,,,,,,,,,,,,,,,,,,,,,,,,,,,,,,,,,,,,,,,,
0,74,74,55,1,,6113dc7ee718f73116fcdc8a,62c538b40f4e9eb445dab9c7,2022-07-06_09h44.48.400,Colour_Asymmetry_Pilot,2022.1.3,Win32,60.2373351,62c50e9c1127f2cd403a315f,,,,,,,,,,,,,,,,,,,,,,,,,,,,,,,,,,,,,,,,,,,,,,,,,,,,,,,,,,,,,,,,,,,,,,,,,,,,,,,,,,,,,,,,,,,,,,,,,,,,,,,,,,,,,,,,,,,,,,,,,,,,,,,,,,,,,,,,,,,,,,,,,,,,,,,,,,,,,,,,,,,
0,75,75,64,1,,6113dc7ee718f73116fcdc8a,62c538b40f4e9eb445dab9c7,2022-07-06_09h44.48.400,Colour_Asymmetry_Pilot,2022.1.3,Win32,60.2373351,62c50e9c1127f2cd403a315f,,,,,,,,,,,,,,,,,,,,,,,,,,,,,,,,,,,,,,,,,,,,,,,,,,,,,,,,,,,,,,,,,,,,,,,,,,,,,,,,,,,,,,,,,,,,,,,,,,,,,,,,,,,,,,,,,,,,,,,,,,,,,,,,,,,,,,,,,,,,,,,,,,,,,,,,,,,,,,,,,,,
0,76,76,35,1,,6113dc7ee718f73116fcdc8a,62c538b40f4e9eb445dab9c7,2022-07-06_09h44.48.400,Colour_Asymmetry_Pilot,2022.1.3,Win32,60.2373351,62c50e9c1127f2cd403a315f,,,,,,,,,,,,,,,,,,,,,,,,,,,,,,,,,,,,,,,,,,,,,,,,,,,,,,,,,,,,,,,,,,,,,,,,,,,,,,,,,,,,,,,,,,,,,,,,,,,,,,,,,,,,,,,,,,,,,,,,,,,,,,,,,,,,,,,,,,,,,,,,,,,,,,,,,,,,,,,,,,,
0,77,77,71,1,,6113dc7ee718f73116fcdc8a,62c538b40f4e9eb445dab9c7,2022-07-06_09h44.48.400,Colour_Asymmetry_Pilot,2022.1.3,Win32,60.2373351,62c50e9c1127f2cd403a315f,,,,,,,,,,,,,,,,,,,,,,,,,,,,,,,,,,,,,,,,,,,,,,,,,,,,,,,,,,,,,,,,,,,,,,,,,,,,,,,,,,,,,,,,,,,,,,,,,,,,,,,,,,,,,,,,,,,,,,,,,,,,,,,,,,,,,,,,,,,,,,,,,,,,,,,,,,,,,,,,,,,
0,78,78,44,1,,6113dc7ee718f73116fcdc8a,62c538b40f4e9eb445dab9c7,2022-07-06_09h44.48.400,Colour_Asymmetry_Pilot,2022.1.3,Win32,60.2373351,62c50e9c1127f2cd403a315f,,,,,,,,,,,,,,,,,,,,,,,,,,,,,,,,,,,,,,,,,,,,,,,,,,,,,,,,,,,,,,,,,,,,,,,,,,,,,,,,,,,,,,,,,,,,,,,,,,,,,,,,,,,,,,,,,,,,,,,,,,,,,,,,,,,,,,,,,,,,,,,,,,,,,,,,,,,,,,,,,,,
0,79,79,89,1,,6113dc7ee718f73116fcdc8a,62c538b40f4e9eb445dab9c7,2022-07-06_09h44.48.400,Colour_Asymmetry_Pilot,2022.1.3,Win32,60.2373351,62c50e9c1127f2cd403a315f,,,,,,,,,,,,,,,,,,,,,,,,,,,,,,,,,,,,,,,,,,,,,,,,,,,,,,,,,,,,,,,,,,,,,,,,,,,,,,,,,,,,,,,,,,,,,,,,,,,,,,,,,,,,,,,,,,,,,,,,,,,,,,,,,,,,,,,,,,,,,,,,,,,,,,,,,,,,,,,,,,,
0,80,80,51,1,,6113dc7ee718f73116fcdc8a,62c538b40f4e9eb445dab9c7,2022-07-06_09h44.48.400,Colour_Asymmetry_Pilot,2022.1.3,Win32,60.2373351,62c50e9c1127f2cd403a315f,,,,,,,,,,,,,,,,,,,,,,,,,,,,,,,,,,,,,,,,,,,,,,,,,,,,,,,,,,,,,,,,,,,,,,,,,,,,,,,,,,,,,,,,,,,,,,,,,,,,,,,,,,,,,,,,,,,,,,,,,,,,,,,,,,,,,,,,,,,,,,,,,,,,,,,,,,,,,,,,,,,
0,81,81,9,1,,6113dc7ee718f73116fcdc8a,62c538b40f4e9eb445dab9c7,2022-07-06_09h44.48.400,Colour_Asymmetry_Pilot,2022.1.3,Win32,60.2373351,62c50e9c1127f2cd403a315f,,,,,,,,,,,,,,,,,,,,,,,,,,,,,,,,,,,,,,,,,,,,,,,,,,,,,,,,,,,,,,,,,,,,,,,,,,,,,,,,,,,,,,,,,,,,,,,,,,,,,,,,,,,,,,,,,,,,,,,,,,,,,,,,,,,,,,,,,,,,,,,,,,,,,,,,,,,,,,,,,,,
0,82,82,72,1,,6113dc7ee718f73116fcdc8a,62c538b40f4e9eb445dab9c7,2022-07-06_09h44.48.400,Colour_Asymmetry_Pilot,2022.1.3,Win32,60.2373351,62c50e9c1127f2cd403a315f,,,,,,,,,,,,,,,,,,,,,,,,,,,,,,,,,,,,,,,,,,,,,,,,,,,,,,,,,,,,,,,,,,,,,,,,,,,,,,,,,,,,,,,,,,,,,,,,,,,,,,,,,,,,,,,,,,,,,,,,,,,,,,,,,,,,,,,,,,,,,,,,,,,,,,,,,,,,,,,,,,,
0,83,83,18,1,,6113dc7ee718f73116fcdc8a,62c538b40f4e9eb445dab9c7,2022-07-06_09h44.48.400,Colour_Asymmetry_Pilot,2022.1.3,Win32,60.2373351,62c50e9c1127f2cd403a315f,,,,,,,,,,,,,,,,,,,,,,,,,,,,,,,,,,,,,,,,,,,,,,,,,,,,,,,,,,,,,,,,,,,,,,,,,,,,,,,,,,,,,,,,,,,,,,,,,,,,,,,,,,,,,,,,,,,,,,,,,,,,,,,,,,,,,,,,,,,,,,,,,,,,,,,,,,,,,,,,,,,
0,84,84,85,1,,6113dc7ee718f73116fcdc8a,62c538b40f4e9eb445dab9c7,2022-07-06_09h44.48.400,Colour_Asymmetry_Pilot,2022.1.3,Win32,60.2373351,62c50e9c1127f2cd403a315f,,,,,,,,,,,,,,,,,,,,,,,,,,,,,,,,,,,,,,,,,,,,,,,,,,,,,,,,,,,,,,,,,,,,,,,,,,,,,,,,,,,,,,,,,,,,,,,,,,,,,,,,,,,,,,,,,,,,,,,,,,,,,,,,,,,,,,,,,,,,,,,,,,,,,,,,,,,,,,,,,,,
0,85,85,73,1,,6113dc7ee718f73116fcdc8a,62c538b40f4e9eb445dab9c7,2022-07-06_09h44.48.400,Colour_Asymmetry_Pilot,2022.1.3,Win32,60.2373351,62c50e9c1127f2cd403a315f,,,,,,,,,,,,,,,,,,,,,,,,,,,,,,,,,,,,,,,,,,,,,,,,,,,,,,,,,,,,,,,,,,,,,,,,,,,,,,,,,,,,,,,,,,,,,,,,,,,,,,,,,,,,,,,,,,,,,,,,,,,,,,,,,,,,,,,,,,,,,,,,,,,,,,,,,,,,,,,,,,,
0,86,86,88,1,,6113dc7ee718f73116fcdc8a,62c538b40f4e9eb445dab9c7,2022-07-06_09h44.48.400,Colour_Asymmetry_Pilot,2022.1.3,Win32,60.2373351,62c50e9c1127f2cd403a315f,,,,,,,,,,,,,,,,,,,,,,,,,,,,,,,,,,,,,,,,,,,,,,,,,,,,,,,,,,,,,,,,,,,,,,,,,,,,,,,,,,,,,,,,,,,,,,,,,,,,,,,,,,,,,,,,,,,,,,,,,,,,,,,,,,,,,,,,,,,,,,,,,,,,,,,,,,,,,,,,,,,
0,87,87,54,1,,6113dc7ee718f73116fcdc8a,62c538b40f4e9eb445dab9c7,2022-07-06_09h44.48.400,Colour_Asymmetry_Pilot,2022.1.3,Win32,60.2373351,62c50e9c1127f2cd403a315f,,,,,,,,,,,,,,,,,,,,,,,,,,,,,,,,,,,,,,,,,,,,,,,,,,,,,,,,,,,,,,,,,,,,,,,,,,,,,,,,,,,,,,,,,,,,,,,,,,,,,,,,,,,,,,,,,,,,,,,,,,,,,,,,,,,,,,,,,,,,,,,,,,,,,,,,,,,,,,,,,,,
0,88,88,52,1,,6113dc7ee718f73116fcdc8a,62c538b40f4e9eb445dab9c7,2022-07-06_09h44.48.400,Colour_Asymmetry_Pilot,2022.1.3,Win32,60.2373351,62c50e9c1127f2cd403a315f,,,,,,,,,,,,,,,,,,,,,,,,,,,,,,,,,,,,,,,,,,,,,,,,,,,,,,,,,,,,,,,,,,,,,,,,,,,,,,,,,,,,,,,,,,,,,,,,,,,,,,,,,,,,,,,,,,,,,,,,,,,,,,,,,,,,,,,,,,,,,,,,,,,,,,,,,,,,,,,,,,,
0,89,89,15,1,,6113dc7ee718f73116fcdc8a,62c538b40f4e9eb445dab9c7,2022-07-06_09h44.48.400,Colour_Asymmetry_Pilot,2022.1.3,Win32,60.2373351,62c50e9c1127f2cd403a315f,,,,,,,,,,,,,,,,,,,,,,,,,,,,,,,,,,,,,,,,,,,,,,,,,,,,,,,,,,,,,,,,,,,,,,,,,,,,,,,,,,,,,,,,,,,,,,,,,,,,,,,,,,,,,,,,,,,,,,,,,,,,,,,,,,,,,,,,,,,,,,,,,,,,,,,,,,,,,,,,,,,
0,90,90,34,1,,6113dc7ee718f73116fcdc8a,62c538b40f4e9eb445dab9c7,2022-07-06_09h44.48.400,Colour_Asymmetry_Pilot,2022.1.3,Win32,60.2373351,62c50e9c1127f2cd403a315f,,,,,,,,,,,,,,,,,,,,,,,,,,,,,,,,,,,,,,,,,,,,,,,,,,,,,,,,,,,,,,,,,,,,,,,,,,,,,,,,,,,,,,,,,,,,,,,,,,,,,,,,,,,,,,,,,,,,,,,,,,,,,,,,,,,,,,,,,,,,,,,,,,,,,,,,,,,,,,,,,,,
0,91,91,82,1,,6113dc7ee718f73116fcdc8a,62c538b40f4e9eb445dab9c7,2022-07-06_09h44.48.400,Colour_Asymmetry_Pilot,2022.1.3,Win32,60.2373351,62c50e9c1127f2cd403a315f,,,,,,,,,,,,,,,,,,,,,,,,,,,,,,,,,,,,,,,,,,,,,,,,,,,,,,,,,,,,,,,,,,,,,,,,,,,,,,,,,,,,,,,,,,,,,,,,,,,,,,,,,,,,,,,,,,,,,,,,,,,,,,,,,,,,,,,,,,,,,,,,,,,,,,,,,,,,,,,,,,,
0,92,92,63,1,,6113dc7ee718f73116fcdc8a,62c538b40f4e9eb445dab9c7,2022-07-06_09h44.48.400,Colour_Asymmetry_Pilot,2022.1.3,Win32,60.2373351,62c50e9c1127f2cd403a315f,,,,,,,,,,,,,,,,,,,,,,,,,,,,,,,,,,,,,,,,,,,,,,,,,,,,,,,,,,,,,,,,,,,,,,,,,,,,,,,,,,,,,,,,,,,,,,,,,,,,,,,,,,,,,,,,,,,,,,,,,,,,,,,,,,,,,,,,,,,,,,,,,,,,,,,,,,,,,,,,,,,
,,,,,,6113dc7ee718f73116fcdc8a,62c538b40f4e9eb445dab9c7,2022-07-06_09h44.48.400,Colour_Asymmetry_Pilot,2022.1.3,Win32,60.2373351,62c50e9c1127f2cd403a315f,0,0,0,38,1,fourtwo,,,,,,,,,,,,,,,,,,,,,,,,,,,,,,,,,,,,,,,,,,,,,,,,,,,,,,,,,,,,,,,,,,,,,,,,,,,,,,,,,,,,,,,,,,,,,,,,,,,,,,,,,,,,,,,,,,,,,,,,,,,,,,,,,,,,,,,,,,,,,,,,,,,,,,,,,,,,,
,,,,,,6113dc7ee718f73116fcdc8a,62c538b40f4e9eb445dab9c7,2022-07-06_09h44.48.400,Colour_Asymmetry_Pilot,2022.1.3,Win32,60.2373351,62c50e9c1127f2cd403a315f,0,1,1,161,1,onethree,,,,,,,,,,,,,,,,,,,,,,,,,,,,,,,,,,,,,,,,,,,,,,,,,,,,,,,,,,,,,,,,,,,,,,,,,,,,,,,,,,,,,,,,,,,,,,,,,,,,,,,,,,,,,,,,,,,,,,,,,,,,,,,,,,,,,,,,,,,,,,,,,,,,,,,,,,,,,
,,,,,,6113dc7ee718f73116fcdc8a,62c538b40f4e9eb445dab9c7,2022-07-06_09h44.48.400,Colour_Asymmetry_Pilot,2022.1.3,Win32,60.2373351,62c50e9c1127f2cd403a315f,0,2,2,111,1,fourthree,,,,,,,,,,,,,,,,,,,,,,,,,,,,,,,,,,,,,,,,,,,,,,,,,,,,,,,,,,,,,,,,,,,,,,,,,,,,,,,,,,,,,,,,,,,,,,,,,,,,,,,,,,,,,,,,,,,,,,,,,,,,,,,,,,,,,,,,,,,,,,,,,,,,,,,,,,,,,
,,,,,,6113dc7ee718f73116fcdc8a,62c538b40f4e9eb445dab9c7,2022-07-06_09h44.48.400,Colour_Asymmetry_Pilot,2022.1.3,Win32,60.2373351,62c50e9c1127f2cd403a315f,0,3,3,114,1,twoone,,,,,,,,,,,,,,,,,,,,,,,,,,,,,,,,,,,,,,,,,,,,,,,,,,,,,,,,,,,,,,,,,,,,,,,,,,,,,,,,,,,,,,,,,,,,,,,,,,,,,,,,,,,,,,,,,,,,,,,,,,,,,,,,,,,,,,,,,,,,,,,,,,,,,,,,,,,,,
,,,,,,6113dc7ee718f73116fcdc8a,62c538b40f4e9eb445dab9c7,2022-07-06_09h44.48.400,Colour_Asymmetry_Pilot,2022.1.3,Win32,60.2373351,62c50e9c1127f2cd403a315f,0,4,4,154,1,twoone,,,,,,,,,,,,,,,,,,,,,,,,,,,,,,,,,,,,,,,,,,,,,,,,,,,,,,,,,,,,,,,,,,,,,,,,,,,,,,,,,,,,,,,,,,,,,,,,,,,,,,,,,,,,,,,,,,,,,,,,,,,,,,,,,,,,,,,,,,,,,,,,,,,,,,,,,,,,,
,,,,,,6113dc7ee718f73116fcdc8a,62c538b40f4e9eb445dab9c7,2022-07-06_09h44.48.400,Colour_Asymmetry_Pilot,2022.1.3,Win32,60.2373351,62c50e9c1127f2cd403a315f,0,5,5,18,1,twoone,,,,,,,,,,,,,,,,,,,,,,,,,,,,,,,,,,,,,,,,,,,,,,,,,,,,,,,,,,,,,,,,,,,,,,,,,,,,,,,,,,,,,,,,,,,,,,,,,,,,,,,,,,,,,,,,,,,,,,,,,,,,,,,,,,,,,,,,,,,,,,,,,,,,,,,,,,,,,
,,,,,,6113dc7ee718f73116fcdc8a,62c538b40f4e9eb445dab9c7,2022-07-06_09h44.48.400,Colour_Asymmetry_Pilot,2022.1.3,Win32,60.2373351,62c50e9c1127f2cd403a315f,0,6,6,6,1,fourtwo,,,,,,,,,,,,,,,,,,,,,,,,,,,,,,,,,,,,,,,,,,,,,,,,,,,,,,,,,,,,,,,,,,,,,,,,,,,,,,,,,,,,,,,,,,,,,,,,,,,,,,,,,,,,,,,,,,,,,,,,,,,,,,,,,,,,,,,,,,,,,,,,,,,,,,,,,,,,,
,,,,,,6113dc7ee718f73116fcdc8a,62c538b40f4e9eb445dab9c7,2022-07-06_09h44.48.400,Colour_Asymmetry_Pilot,2022.1.3,Win32,60.2373351,62c50e9c1127f2cd403a315f,0,7,7,119,1,fourthree,,,,,,,,,,,,,,,,,,,,,,,,,,,,,,,,,,,,,,,,,,,,,,,,,,,,,,,,,,,,,,,,,,,,,,,,,,,,,,,,,,,,,,,,,,,,,,,,,,,,,,,,,,,,,,,,,,,,,,,,,,,,,,,,,,,,,,,,,,,,,,,,,,,,,,,,,,,,,
,,,,,,6113dc7ee718f73116fcdc8a,62c538b40f4e9eb445dab9c7,2022-07-06_09h44.48.400,Colour_Asymmetry_Pilot,2022.1.3,Win32,60.2373351,62c50e9c1127f2cd403a315f,0,8,8,90,1,twoone,,,,,,,,,,,,,,,,,,,,,,,,,,,,,,,,,,,,,,,,,,,,,,,,,,,,,,,,,,,,,,,,,,,,,,,,,,,,,,,,,,,,,,,,,,,,,,,,,,,,,,,,,,,,,,,,,,,,,,,,,,,,,,,,,,,,,,,,,,,,,,,,,,,,,,,,,,,,,
,,,,,,6113dc7ee718f73116fcdc8a,62c538b40f4e9eb445dab9c7,2022-07-06_09h44.48.400,Colour_Asymmetry_Pilot,2022.1.3,Win32,60.2373351,62c50e9c1127f2cd403a315f,0,9,9,76,1,threeone,,,,,,,,,,,,,,,,,,,,,,,,,,,,,,,,,,,,,,,,,,,,,,,,,,,,,,,,,,,,,,,,,,,,,,,,,,,,,,,,,,,,,,,,,,,,,,,,,,,,,,,,,,,,,,,,,,,,,,,,,,,,,,,,,,,,,,,,,,,,,,,,,,,,,,,,,,,,,
,,,,,,6113dc7ee718f73116fcdc8a,62c538b40f4e9eb445dab9c7,2022-07-06_09h44.48.400,Colour_Asymmetry_Pilot,2022.1.3,Win32,60.2373351,62c50e9c1127f2cd403a315f,0,10,10,37,1,threefour,,,,,,,,,,,,,,,,,,,,,,,,,,,,,,,,,,,,,,,,,,,,,,,,,,,,,,,,,,,,,,,,,,,,,,,,,,,,,,,,,,,,,,,,,,,,,,,,,,,,,,,,,,,,,,,,,,,,,,,,,,,,,,,,,,,,,,,,,,,,,,,,,,,,,,,,,,,,,
,,,,,,6113dc7ee718f73116fcdc8a,62c538b40f4e9eb445dab9c7,2022-07-06_09h44.48.400,Colour_Asymmetry_Pilot,2022.1.3,Win32,60.2373351,62c50e9c1127f2cd403a315f,0,11,11,107,1,twofour,,,,,,,,,,,,,,,,,,,,,,,,,,,,,,,,,,,,,,,,,,,,,,,,,,,,,,,,,,,,,,,,,,,,,,,,,,,,,,,,,,,,,,,,,,,,,,,,,,,,,,,,,,,,,,,,,,,,,,,,,,,,,,,,,,,,,,,,,,,,,,,,,,,,,,,,,,,,,
,,,,,,6113dc7ee718f73116fcdc8a,62c538b40f4e9eb445dab9c7,2022-07-06_09h44.48.400,Colour_Asymmetry_Pilot,2022.1.3,Win32,60.2373351,62c50e9c1127f2cd403a315f,0,12,12,50,1,twoone,,,,,,,,,,,,,,,,,,,,,,,,,,,,,,,,,,,,,,,,,,,,,,,,,,,,,,,,,,,,,,,,,,,,,,,,,,,,,,,,,,,,,,,,,,,,,,,,,,,,,,,,,,,,,,,,,,,,,,,,,,,,,,,,,,,,,,,,,,,,,,,,,,,,,,,,,,,,,
,,,,,,6113dc7ee718f73116fcdc8a,62c538b40f4e9eb445dab9c7,2022-07-06_09h44.48.400,Colour_Asymmetry_Pilot,2022.1.3,Win32,60.2373351,62c50e9c1127f2cd403a315f,0,13,13,123,1,twofour,,,,,,,,,,,,,,,,,,,,,,,,,,,,,,,,,,,,,,,,,,,,,,,,,,,,,,,,,,,,,,,,,,,,,,,,,,,,,,,,,,,,,,,,,,,,,,,,,,,,,,,,,,,,,,,,,,,,,,,,,,,,,,,,,,,,,,,,,,,,,,,,,,,,,,,,,,,,,
,,,,,,6113dc7ee718f73116fcdc8a,62c538b40f4e9eb445dab9c7,2022-07-06_09h44.48.400,Colour_Asymmetry_Pilot,2022.1.3,Win32,60.2373351,62c50e9c1127f2cd403a315f,0,14,14,109,1,threefour,,,,,,,,,,,,,,,,,,,,,,,,,,,,,,,,,,,,,,,,,,,,,,,,,,,,,,,,,,,,,,,,,,,,,,,,,,,,,,,,,,,,,,,,,,,,,,,,,,,,,,,,,,,,,,,,,,,,,,,,,,,,,,,,,,,,,,,,,,,,,,,,,,,,,,,,,,,,,
,,,,,,6113dc7ee718f73116fcdc8a,62c538b40f4e9eb445dab9c7,2022-07-06_09h44.48.400,Colour_Asymmetry_Pilot,2022.1.3,Win32,60.2373351,62c50e9c1127f2cd403a315f,0,15,15,151,1,fourthree,,,,,,,,,,,,,,,,,,,,,,,,,,,,,,,,,,,,,,,,,,,,,,,,,,,,,,,,,,,,,,,,,,,,,,,,,,,,,,,,,,,,,,,,,,,,,,,,,,,,,,,,,,,,,,,,,,,,,,,,,,,,,,,,,,,,,,,,,,,,,,,,,,,,,,,,,,,,,
,,,,,,6113dc7ee718f73116fcdc8a,62c538b40f4e9eb445dab9c7,2022-07-06_09h44.48.400,Colour_Asymmetry_Pilot,2022.1.3,Win32,60.2373351,62c50e9c1127f2cd403a315f,0,16,16,57,1,onethree,,,,,,,,,,,,,,,,,,,,,,,,,,,,,,,,,,,,,,,,,,,,,,,,,,,,,,,,,,,,,,,,,,,,,,,,,,,,,,,,,,,,,,,,,,,,,,,,,,,,,,,,,,,,,,,,,,,,,,,,,,,,,,,,,,,,,,,,,,,,,,,,,,,,,,,,,,,,,
,,,,,,6113dc7ee718f73116fcdc8a,62c538b40f4e9eb445dab9c7,2022-07-06_09h44.48.400,Colour_Asymmetry_Pilot,2022.1.3,Win32,60.2373351,62c50e9c1127f2cd403a315f,0,17,17,134,1,fourtwo,,,,,,,,,,,,,,,,,,,,,,,,,,,,,,,,,,,,,,,,,,,,,,,,,,,,,,,,,,,,,,,,,,,,,,,,,,,,,,,,,,,,,,,,,,,,,,,,,,,,,,,,,,,,,,,,,,,,,,,,,,,,,,,,,,,,,,,,,,,,,,,,,,,,,,,,,,,,,
,,,,,,6113dc7ee718f73116fcdc8a,62c538b40f4e9eb445dab9c7,2022-07-06_09h44.48.400,Colour_Asymmetry_Pilot,2022.1.3,Win32,60.2373351,62c50e9c1127f2cd403a315f,0,18,18,65,1,onethree,,,,,,,,,,,,,,,,,,,,,,,,,,,,,,,,,,,,,,,,,,,,,,,,,,,,,,,,,,,,,,,,,,,,,,,,,,,,,,,,,,,,,,,,,,,,,,,,,,,,,,,,,,,,,,,,,,,,,,,,,,,,,,,,,,,,,,,,,,,,,,,,,,,,,,,,,,,,,
,,,,,,6113dc7ee718f73116fcdc8a,62c538b40f4e9eb445dab9c7,2022-07-06_09h44.48.400,Colour_Asymmetry_Pilot,2022.1.3,Win32,60.2373351,62c50e9c1127f2cd403a315f,0,19,19,150,1,fourtwo,,,,,,,,,,,,,,,,,,,,,,,,,,,,,,,,,,,,,,,,,,,,,,,,,,,,,,,,,,,,,,,,,,,,,,,,,,,,,,,,,,,,,,,,,,,,,,,,,,,,,,,,,,,,,,,,,,,,,,,,,,,,,,,,,,,,,,,,,,,,,,,,,,,,,,,,,,,,,
,,,,,,6113dc7ee718f73116fcdc8a,62c538b40f4e9eb445dab9c7,2022-07-06_09h44.48.400,Colour_Asymmetry_Pilot,2022.1.3,Win32,60.2373351,62c50e9c1127f2cd403a315f,0,20,20,44,1,threeone,,,,,,,,,,,,,,,,,,,,,,,,,,,,,,,,,,,,,,,,,,,,,,,,,,,,,,,,,,,,,,,,,,,,,,,,,,,,,,,,,,,,,,,,,,,,,,,,,,,,,,,,,,,,,,,,,,,,,,,,,,,,,,,,,,,,,,,,,,,,,,,,,,,,,,,,,,,,,
,,,,,,6113dc7ee718f73116fcdc8a,62c538b40f4e9eb445dab9c7,2022-07-06_09h44.48.400,Colour_Asymmetry_Pilot,2022.1.3,Win32,60.2373351,62c50e9c1127f2cd403a315f,0,21,21,128,1,onetwo,,,,,,,,,,,,,,,,,,,,,,,,,,,,,,,,,,,,,,,,,,,,,,,,,,,,,,,,,,,,,,,,,,,,,,,,,,,,,,,,,,,,,,,,,,,,,,,,,,,,,,,,,,,,,,,,,,,,,,,,,,,,,,,,,,,,,,,,,,,,,,,,,,,,,,,,,,,,,
,,,,,,6113dc7ee718f73116fcdc8a,62c538b40f4e9eb445dab9c7,2022-07-06_09h44.48.400,Colour_Asymmetry_Pilot,2022.1.3,Win32,60.2373351,62c50e9c1127f2cd403a315f,0,22,22,152,1,onetwo,,,,,,,,,,,,,,,,,,,,,,,,,,,,,,,,,,,,,,,,,,,,,,,,,,,,,,,,,,,,,,,,,,,,,,,,,,,,,,,,,,,,,,,,,,,,,,,,,,,,,,,,,,,,,,,,,,,,,,,,,,,,,,,,,,,,,,,,,,,,,,,,,,,,,,,,,,,,,
,,,,,,6113dc7ee718f73116fcdc8a,62c538b40f4e9eb445dab9c7,2022-07-06_09h44.48.400,Colour_Asymmetry_Pilot,2022.1.3,Win32,60.2373351,62c50e9c1127f2cd403a315f,0,23,23,140,1,threeone,,,,,,,,,,,,,,,,,,,,,,,,,,,,,,,,,,,,,,,,,,,,,,,,,,,,,,,,,,,,,,,,,,,,,,,,,,,,,,,,,,,,,,,,,,,,,,,,,,,,,,,,,,,,,,,,,,,,,,,,,,,,,,,,,,,,,,,,,,,,,,,,,,,,,,,,,,,,,
,,,,,,6113dc7ee718f73116fcdc8a,62c538b40f4e9eb445dab9c7,2022-07-06_09h44.48.400,Colour_Asymmetry_Pilot,2022.1.3,Win32,60.2373351,62c50e9c1127f2cd403a315f,0,24,24,47,1,fourthree,,,,,,,,,,,,,,,,,,,,,,,,,,,,,,,,,,,,,,,,,,,,,,,,,,,,,,,,,,,,,,,,,,,,,,,,,,,,,,,,,,,,,,,,,,,,,,,,,,,,,,,,,,,,,,,,,,,,,,,,,,,,,,,,,,,,,,,,,,,,,,,,,,,,,,,,,,,,,
,,,,,,6113dc7ee718f73116fcdc8a,62c538b40f4e9eb445dab9c7,2022-07-06_09h44.48.400,Colour_Asymmetry_Pilot,2022.1.3,Win32,60.2373351,62c50e9c1127f2cd403a315f,0,25,25,5,1,threefour,,,,,,,,,,,,,,,,,,,,,,,,,,,,,,,,,,,,,,,,,,,,,,,,,,,,,,,,,,,,,,,,,,,,,,,,,,,,,,,,,,,,,,,,,,,,,,,,,,,,,,,,,,,,,,,,,,,,,,,,,,,,,,,,,,,,,,,,,,,,,,,,,,,,,,,,,,,,,
,,,,,,6113dc7ee718f73116fcdc8a,62c538b40f4e9eb445dab9c7,2022-07-06_09h44.48.400,Colour_Asymmetry_Pilot,2022.1.3,Win32,60.2373351,62c50e9c1127f2cd403a315f,0,26,26,55,1,fourthree,,,,,,,,,,,,,,,,,,,,,,,,,,,,,,,,,,,,,,,,,,,,,,,,,,,,,,,,,,,,,,,,,,,,,,,,,,,,,,,,,,,,,,,,,,,,,,,,,,,,,,,,,,,,,,,,,,,,,,,,,,,,,,,,,,,,,,,,,,,,,,,,,,,,,,,,,,,,,
,,,,,,6113dc7ee718f73116fcdc8a,62c538b40f4e9eb445dab9c7,2022-07-06_09h44.48.400,Colour_Asymmetry_Pilot,2022.1.3,Win32,60.2373351,62c50e9c1127f2cd403a315f,0,27,27,67,1,twofour,,,,,,,,,,,,,,,,,,,,,,,,,,,,,,,,,,,,,,,,,,,,,,,,,,,,,,,,,,,,,,,,,,,,,,,,,,,,,,,,,,,,,,,,,,,,,,,,,,,,,,,,,,,,,,,,,,,,,,,,,,,,,,,,,,,,,,,,,,,,,,,,,,,,,,,,,,,,,
,,,,,,6113dc7ee718f73116fcdc8a,62c538b40f4e9eb445dab9c7,2022-07-06_09h44.48.400,Colour_Asymmetry_Pilot,2022.1.3,Win32,60.2373351,62c50e9c1127f2cd403a315f,0,28,28,0,1,onetwo,,,,,,,,,,,,,,,,,,,,,,,,,,,,,,,,,,,,,,,,,,,,,,,,,,,,,,,,,,,,,,,,,,,,,,,,,,,,,,,,,,,,,,,,,,,,,,,,,,,,,,,,,,,,,,,,,,,,,,,,,,,,,,,,,,,,,,,,,,,,,,,,,,,,,,,,,,,,,
,,,,,,6113dc7ee718f73116fcdc8a,62c538b40f4e9eb445dab9c7,2022-07-06_09h44.48.400,Colour_Asymmetry_Pilot,2022.1.3,Win32,60.2373351,62c50e9c1127f2cd403a315f,0,29,29,46,1,fourtwo,,,,,,,,,,,,,,,,,,,,,,,,,,,,,,,,,,,,,,,,,,,,,,,,,,,,,,,,,,,,,,,,,,,,,,,,,,,,,,,,,,,,,,,,,,,,,,,,,,,,,,,,,,,,,,,,,,,,,,,,,,,,,,,,,,,,,,,,,,,,,,,,,,,,,,,,,,,,,
,,,,,,6113dc7ee718f73116fcdc8a,62c538b40f4e9eb445dab9c7,2022-07-06_09h44.48.400,Colour_Asymmetry_Pilot,2022.1.3,Win32,60.2373351,62c50e9c1127f2cd403a315f,0,30,30,73,1,onethree,,,,,,,,,,,,,,,,,,,,,,,,,,,,,,,,,,,,,,,,,,,,,,,,,,,,,,,,,,,,,,,,,,,,,,,,,,,,,,,,,,,,,,,,,,,,,,,,,,,,,,,,,,,,,,,,,,,,,,,,,,,,,,,,,,,,,,,,,,,,,,,,,,,,,,,,,,,,,
,,,,,,6113dc7ee718f73116fcdc8a,62c538b40f4e9eb445dab9c7,2022-07-06_09h44.48.400,Colour_Asymmetry_Pilot,2022.1.3,Win32,60.2373351,62c50e9c1127f2cd403a315f,0,31,31,112,1,onetwo,,,,,,,,,,,,,,,,,,,,,,,,,,,,,,,,,,,,,,,,,,,,,,,,,,,,,,,,,,,,,,,,,,,,,,,,,,,,,,,,,,,,,,,,,,,,,,,,,,,,,,,,,,,,,,,,,,,,,,,,,,,,,,,,,,,,,,,,,,,,,,,,,,,,,,,,,,,,,
,,,,,,6113dc7ee718f73116fcdc8a,62c538b40f4e9eb445dab9c7,2022-07-06_09h44.48.400,Colour_Asymmetry_Pilot,2022.1.3,Win32,60.2373351,62c50e9c1127f2cd403a315f,0,32,32,60,1,threeone,,,,,,,,,,,,,,,,,,,,,,,,,,,,,,,,,,,,,,,,,,,,,,,,,,,,,,,,,,,,,,,,,,,,,,,,,,,,,,,,,,,,,,,,,,,,,,,,,,,,,,,,,,,,,,,,,,,,,,,,,,,,,,,,,,,,,,,,,,,,,,,,,,,,,,,,,,,,,
,,,,,,6113dc7ee718f73116fcdc8a,62c538b40f4e9eb445dab9c7,2022-07-06_09h44.48.400,Colour_Asymmetry_Pilot,2022.1.3,Win32,60.2373351,62c50e9c1127f2cd403a315f,0,33,33,88,1,onetwo,,,,,,,,,,,,,,,,,,,,,,,,,,,,,,,,,,,,,,,,,,,,,,,,,,,,,,,,,,,,,,,,,,,,,,,,,,,,,,,,,,,,,,,,,,,,,,,,,,,,,,,,,,,,,,,,,,,,,,,,,,,,,,,,,,,,,,,,,,,,,,,,,,,,,,,,,,,,,
,,,,,,6113dc7ee718f73116fcdc8a,62c538b40f4e9eb445dab9c7,2022-07-06_09h44.48.400,Colour_Asymmetry_Pilot,2022.1.3,Win32,60.2373351,62c50e9c1127f2cd403a315f,0,34,34,54,1,fourtwo,,,,,,,,,,,,,,,,,,,,,,,,,,,,,,,,,,,,,,,,,,,,,,,,,,,,,,,,,,,,,,,,,,,,,,,,,,,,,,,,,,,,,,,,,,,,,,,,,,,,,,,,,,,,,,,,,,,,,,,,,,,,,,,,,,,,,,,,,,,,,,,,,,,,,,,,,,,,,
,,,,,,6113dc7ee718f73116fcdc8a,62c538b40f4e9eb445dab9c7,2022-07-06_09h44.48.400,Colour_Asymmetry_Pilot,2022.1.3,Win32,60.2373351,62c50e9c1127f2cd403a315f,0,35,35,144,1,onetwo,,,,,,,,,,,,,,,,,,,,,,,,,,,,,,,,,,,,,,,,,,,,,,,,,,,,,,,,,,,,,,,,,,,,,,,,,,,,,,,,,,,,,,,,,,,,,,,,,,,,,,,,,,,,,,,,,,,,,,,,,,,,,,,,,,,,,,,,,,,,,,,,,,,,,,,,,,,,,
,,,,,,6113dc7ee718f73116fcdc8a,62c538b40f4e9eb445dab9c7,2022-07-06_09h44.48.400,Colour_Asymmetry_Pilot,2022.1.3,Win32,60.2373351,62c50e9c1127f2cd403a315f,0,36,36,116,1,threeone,,,,,,,,,,,,,,,,,,,,,,,,,,,,,,,,,,,,,,,,,,,,,,,,,,,,,,,,,,,,,,,,,,,,,,,,,,,,,,,,,,,,,,,,,,,,,,,,,,,,,,,,,,,,,,,,,,,,,,,,,,,,,,,,,,,,,,,,,,,,,,,,,,,,,,,,,,,,,
,,,,,,6113dc7ee718f73116fcdc8a,62c538b40f4e9eb445dab9c7,2022-07-06_09h44.48.400,Colour_Asymmetry_Pilot,2022.1.3,Win32,60.2373351,62c50e9c1127f2cd403a315f,0,37,37,62,1,fourtwo,,,,,,,,,,,,,,,,,,,,,,,,,,,,,,,,,,,,,,,,,,,,,,,,,,,,,,,,,,,,,,,,,,,,,,,,,,,,,,,,,,,,,,,,,,,,,,,,,,,,,,,,,,,,,,,,,,,,,,,,,,,,,,,,,,,,,,,,,,,,,,,,,,,,,,,,,,,,,
,,,,,,6113dc7ee718f73116fcdc8a,62c538b40f4e9eb445dab9c7,2022-07-06_09h44.48.400,Colour_Asymmetry_Pilot,2022.1.3,Win32,60.2373351,62c50e9c1127f2cd403a315f,0,38,38,2,1,twoone,,,,,,,,,,,,,,,,,,,,,,,,,,,,,,,,,,,,,,,,,,,,,,,,,,,,,,,,,,,,,,,,,,,,,,,,,,,,,,,,,,,,,,,,,,,,,,,,,,,,,,,,,,,,,,,,,,,,,,,,,,,,,,,,,,,,,,,,,,,,,,,,,,,,,,,,,,,,,
,,,,,,6113dc7ee718f73116fcdc8a,62c538b40f4e9eb445dab9c7,2022-07-06_09h44.48.400,Colour_Asymmetry_Pilot,2022.1.3,Win32,60.2373351,62c50e9c1127f2cd403a315f,0,39,39,110,1,fourtwo,,,,,,,,,,,,,,,,,,,,,,,,,,,,,,,,,,,,,,,,,,,,,,,,,,,,,,,,,,,,,,,,,,,,,,,,,,,,,,,,,,,,,,,,,,,,,,,,,,,,,,,,,,,,,,,,,,,,,,,,,,,,,,,,,,,,,,,,,,,,,,,,,,,,,,,,,,,,,
,,,,,,6113dc7ee718f73116fcdc8a,62c538b40f4e9eb445dab9c7,2022-07-06_09h44.48.400,Colour_Asymmetry_Pilot,2022.1.3,Win32,60.2373351,62c50e9c1127f2cd403a315f,0,40,40,156,1,threeone,,,,,,,,,,,,,,,,,,,,,,,,,,,,,,,,,,,,,,,,,,,,,,,,,,,,,,,,,,,,,,,,,,,,,,,,,,,,,,,,,,,,,,,,,,,,,,,,,,,,,,,,,,,,,,,,,,,,,,,,,,,,,,,,,,,,,,,,,,,,,,,,,,,,,,,,,,,,,
,,,,,,6113dc7ee718f73116fcdc8a,62c538b40f4e9eb445dab9c7,2022-07-06_09h44.48.400,Colour_Asymmetry_Pilot,2022.1.3,Win32,60.2373351,62c50e9c1127f2cd403a315f,0,41,41,133,1,threefour,,,,,,,,,,,,,,,,,,,,,,,,,,,,,,,,,,,,,,,,,,,,,,,,,,,,,,,,,,,,,,,,,,,,,,,,,,,,,,,,,,,,,,,,,,,,,,,,,,,,,,,,,,,,,,,,,,,,,,,,,,,,,,,,,,,,,,,,,,,,,,,,,,,,,,,,,,,,,
,,,,,,6113dc7ee718f73116fcdc8a,62c538b40f4e9eb445dab9c7,2022-07-06_09h44.48.400,Colour_Asymmetry_Pilot,2022.1.3,Win32,60.2373351,62c50e9c1127f2cd403a315f,0,42,42,10,1,twoone,,,,,,,,,,,,,,,,,,,,,,,,,,,,,,,,,,,,,,,,,,,,,,,,,,,,,,,,,,,,,,,,,,,,,,,,,,,,,,,,,,,,,,,,,,,,,,,,,,,,,,,,,,,,,,,,,,,,,,,,,,,,,,,,,,,,,,,,,,,,,,,,,,,,,,,,,,,,,
,,,,,,6113dc7ee718f73116fcdc8a,62c538b40f4e9eb445dab9c7,2022-07-06_09h44.48.400,Colour_Asymmetry_Pilot,2022.1.3,Win32,60.2373351,62c50e9c1127f2cd403a315f,0,43,43,94,1,fourtwo,,,,,,,,,,,,,,,,,,,,,,,,,,,,,,,,,,,,,,,,,,,,,,,,,,,,,,,,,,,,,,,,,,,,,,,,,,,,,,,,,,,,,,,,,,,,,,,,,,,,,,,,,,,,,,,,,,,,,,,,,,,,,,,,,,,,,,,,,,,,,,,,,,,,,,,,,,,,,
,,,,,,6113dc7ee718f73116fcdc8a,62c538b40f4e9eb445dab9c7,2022-07-06_09h44.48.400,Colour_Asymmetry_Pilot,2022.1.3,Win32,60.2373351,62c50e9c1127f2cd403a315f,0,44,44,103,1,fourthree,,,,,,,,,,,,,,,,,,,,,,,,,,,,,,,,,,,,,,,,,,,,,,,,,,,,,,,,,,,,,,,,,,,,,,,,,,,,,,,,,,,,,,,,,,,,,,,,,,,,,,,,,,,,,,,,,,,,,,,,,,,,,,,,,,,,,,,,,,,,,,,,,,,,,,,,,,,,,
,,,,,,6113dc7ee718f73116fcdc8a,62c538b40f4e9eb445dab9c7,2022-07-06_09h44.48.400,Colour_Asymmetry_Pilot,2022.1.3,Win32,60.2373351,62c50e9c1127f2cd403a315f,0,45,45,81,1,onethree,,,,,,,,,,,,,,,,,,,,,,,,,,,,,,,,,,,,,,,,,,,,,,,,,,,,,,,,,,,,,,,,,,,,,,,,,,,,,,,,,,,,,,,,,,,,,,,,,,,,,,,,,,,,,,,,,,,,,,,,,,,,,,,,,,,,,,,,,,,,,,,,,,,,,,,,,,,,,
,,,,,,6113dc7ee718f73116fcdc8a,62c538b40f4e9eb445dab9c7,2022-07-06_09h44.48.400,Colour_Asymmetry_Pilot,2022.1.3,Win32,60.2373351,62c50e9c1127f2cd403a315f,0,46,46,121,1,onethree,,,,,,,,,,,,,,,,,,,,,,,,,,,,,,,,,,,,,,,,,,,,,,,,,,,,,,,,,,,,,,,,,,,,,,,,,,,,,,,,,,,,,,,,,,,,,,,,,,,,,,,,,,,,,,,,,,,,,,,,,,,,,,,,,,,,,,,,,,,,,,,,,,,,,,,,,,,,,
,,,,,,6113dc7ee718f73116fcdc8a,62c538b40f4e9eb445dab9c7,2022-07-06_09h44.48.400,Colour_Asymmetry_Pilot,2022.1.3,Win32,60.2373351,62c50e9c1127f2cd403a315f,0,47,47,142,1,fourtwo,,,,,,,,,,,,,,,,,,,,,,,,,,,,,,,,,,,,,,,,,,,,,,,,,,,,,,,,,,,,,,,,,,,,,,,,,,,,,,,,,,,,,,,,,,,,,,,,,,,,,,,,,,,,,,,,,,,,,,,,,,,,,,,,,,,,,,,,,,,,,,,,,,,,,,,,,,,,,
,,,,,,6113dc7ee718f73116fcdc8a,62c538b40f4e9eb445dab9c7,2022-07-06_09h44.48.400,Colour_Asymmetry_Pilot,2022.1.3,Win32,60.2373351,62c50e9c1127f2cd403a315f,0,48,48,53,1,threefour,,,,,,,,,,,,,,,,,,,,,,,,,,,,,,,,,,,,,,,,,,,,,,,,,,,,,,,,,,,,,,,,,,,,,,,,,,,,,,,,,,,,,,,,,,,,,,,,,,,,,,,,,,,,,,,,,,,,,,,,,,,,,,,,,,,,,,,,,,,,,,,,,,,,,,,,,,,,,
,,,,,,6113dc7ee718f73116fcdc8a,62c538b40f4e9eb445dab9c7,2022-07-06_09h44.48.400,Colour_Asymmetry_Pilot,2022.1.3,Win32,60.2373351,62c50e9c1127f2cd403a315f,0,49,49,72,1,onetwo,,,,,,,,,,,,,,,,,,,,,,,,,,,,,,,,,,,,,,,,,,,,,,,,,,,,,,,,,,,,,,,,,,,,,,,,,,,,,,,,,,,,,,,,,,,,,,,,,,,,,,,,,,,,,,,,,,,,,,,,,,,,,,,,,,,,,,,,,,,,,,,,,,,,,,,,,,,,,
,,,,,,6113dc7ee718f73116fcdc8a,62c538b40f4e9eb445dab9c7,2022-07-06_09h44.48.400,Colour_Asymmetry_Pilot,2022.1.3,Win32,60.2373351,62c50e9c1127f2cd403a315f,0,50,50,13,1,threefour,,,,,,,,,,,,,,,,,,,,,,,,,,,,,,,,,,,,,,,,,,,,,,,,,,,,,,,,,,,,,,,,,,,,,,,,,,,,,,,,,,,,,,,,,,,,,,,,,,,,,,,,,,,,,,,,,,,,,,,,,,,,,,,,,,,,,,,,,,,,,,,,,,,,,,,,,,,,,
,,,,,,6113dc7ee718f73116fcdc8a,62c538b40f4e9eb445dab9c7,2022-07-06_09h44.48.400,Colour_Asymmetry_Pilot,2022.1.3,Win32,60.2373351,62c50e9c1127f2cd403a315f,0,51,51,92,1,threeone,,,,,,,,,,,,,,,,,,,,,,,,,,,,,,,,,,,,,,,,,,,,,,,,,,,,,,,,,,,,,,,,,,,,,,,,,,,,,,,,,,,,,,,,,,,,,,,,,,,,,,,,,,,,,,,,,,,,,,,,,,,,,,,,,,,,,,,,,,,,,,,,,,,,,,,,,,,,,
,,,,,,6113dc7ee718f73116fcdc8a,62c538b40f4e9eb445dab9c7,2022-07-06_09h44.48.400,Colour_Asymmetry_Pilot,2022.1.3,Win32,60.2373351,62c50e9c1127f2cd403a315f,0,52,52,48,1,onetwo,,,,,,,,,,,,,,,,,,,,,,,,,,,,,,,,,,,,,,,,,,,,,,,,,,,,,,,,,,,,,,,,,,,,,,,,,,,,,,,,,,,,,,,,,,,,,,,,,,,,,,,,,,,,,,,,,,,,,,,,,,,,,,,,,,,,,,,,,,,,,,,,,,,,,,,,,,,,,
,,,,,,6113dc7ee718f73116fcdc8a,62c538b40f4e9eb445dab9c7,2022-07-06_09h44.48.400,Colour_Asymmetry_Pilot,2022.1.3,Win32,60.2373351,62c50e9c1127f2cd403a315f,0,53,53,19,1,twofour,,,,,,,,,,,,,,,,,,,,,,,,,,,,,,,,,,,,,,,,,,,,,,,,,,,,,,,,,,,,,,,,,,,,,,,,,,,,,,,,,,,,,,,,,,,,,,,,,,,,,,,,,,,,,,,,,,,,,,,,,,,,,,,,,,,,,,,,,,,,,,,,,,,,,,,,,,,,,
,,,,,,6113dc7ee718f73116fcdc8a,62c538b40f4e9eb445dab9c7,2022-07-06_09h44.48.400,Colour_Asymmetry_Pilot,2022.1.3,Win32,60.2373351,62c50e9c1127f2cd403a315f,0,54,54,106,1,twoone,,,,,,,,,,,,,,,,,,,,,,,,,,,,,,,,,,,,,,,,,,,,,,,,,,,,,,,,,,,,,,,,,,,,,,,,,,,,,,,,,,,,,,,,,,,,,,,,,,,,,,,,,,,,,,,,,,,,,,,,,,,,,,,,,,,,,,,,,,,,,,,,,,,,,,,,,,,,,
,,,,,,6113dc7ee718f73116fcdc8a,62c538b40f4e9eb445dab9c7,2022-07-06_09h44.48.400,Colour_Asymmetry_Pilot,2022.1.3,Win32,60.2373351,62c50e9c1127f2cd403a315f,0,55,55,11,1,twofour,,,,,,,,,,,,,,,,,,,,,,,,,,,,,,,,,,,,,,,,,,,,,,,,,,,,,,,,,,,,,,,,,,,,,,,,,,,,,,,,,,,,,,,,,,,,,,,,,,,,,,,,,,,,,,,,,,,,,,,,,,,,,,,,,,,,,,,,,,,,,,,,,,,,,,,,,,,,,
,,,,,,6113dc7ee718f73116fcdc8a,62c538b40f4e9eb445dab9c7,2022-07-06_09h44.48.400,Colour_Asymmetry_Pilot,2022.1.3,Win32,60.2373351,62c50e9c1127f2cd403a315f,0,56,56,27,1,twofour,,,,,,,,,,,,,,,,,,,,,,,,,,,,,,,,,,,,,,,,,,,,,,,,,,,,,,,,,,,,,,,,,,,,,,,,,,,,,,,,,,,,,,,,,,,,,,,,,,,,,,,,,,,,,,,,,,,,,,,,,,,,,,,,,,,,,,,,,,,,,,,,,,,,,,,,,,,,,
,,,,,,6113dc7ee718f73116fcdc8a,62c538b40f4e9eb445dab9c7,2022-07-06_09h44.48.400,Colour_Asymmetry_Pilot,2022.1.3,Win32,60.2373351,62c50e9c1127f2cd403a315f,0,57,57,40,1,onetwo,,,,,,,,,,,,,,,,,,,,,,,,,,,,,,,,,,,,,,,,,,,,,,,,,,,,,,,,,,,,,,,,,,,,,,,,,,,,,,,,,,,,,,,,,,,,,,,,,,,,,,,,,,,,,,,,,,,,,,,,,,,,,,,,,,,,,,,,,,,,,,,,,,,,,,,,,,,,,
,,,,,,6113dc7ee718f73116fcdc8a,62c538b40f4e9eb445dab9c7,2022-07-06_09h44.48.400,Colour_Asymmetry_Pilot,2022.1.3,Win32,60.2373351,62c50e9c1127f2cd403a315f,0,58,58,33,1,onethree,,,,,,,,,,,,,,,,,,,,,,,,,,,,,,,,,,,,,,,,,,,,,,,,,,,,,,,,,,,,,,,,,,,,,,,,,,,,,,,,,,,,,,,,,,,,,,,,,,,,,,,,,,,,,,,,,,,,,,,,,,,,,,,,,,,,,,,,,,,,,,,,,,,,,,,,,,,,,
,,,,,,6113dc7ee718f73116fcdc8a,62c538b40f4e9eb445dab9c7,2022-07-06_09h44.48.400,Colour_Asymmetry_Pilot,2022.1.3,Win32,60.2373351,62c50e9c1127f2cd403a315f,0,59,59,4,1,threeone,,,,,,,,,,,,,,,,,,,,,,,,,,,,,,,,,,,,,,,,,,,,,,,,,,,,,,,,,,,,,,,,,,,,,,,,,,,,,,,,,,,,,,,,,,,,,,,,,,,,,,,,,,,,,,,,,,,,,,,,,,,,,,,,,,,,,,,,,,,,,,,,,,,,,,,,,,,,,
,,,,,,6113dc7ee718f73116fcdc8a,62c538b40f4e9eb445dab9c7,2022-07-06_09h44.48.400,Colour_Asymmetry_Pilot,2022.1.3,Win32,60.2373351,62c50e9c1127f2cd403a315f,0,60,60,98,1,twoone,,,,,,,,,,,,,,,,,,,,,,,,,,,,,,,,,,,,,,,,,,,,,,,,,,,,,,,,,,,,,,,,,,,,,,,,,,,,,,,,,,,,,,,,,,,,,,,,,,,,,,,,,,,,,,,,,,,,,,,,,,,,,,,,,,,,,,,,,,,,,,,,,,,,,,,,,,,,,
,,,,,,6113dc7ee718f73116fcdc8a,62c538b40f4e9eb445dab9c7,2022-07-06_09h44.48.400,Colour_Asymmetry_Pilot,2022.1.3,Win32,60.2373351,62c50e9c1127f2cd403a315f,0,61,61,91,1,twofour,,,,,,,,,,,,,,,,,,,,,,,,,,,,,,,,,,,,,,,,,,,,,,,,,,,,,,,,,,,,,,,,,,,,,,,,,,,,,,,,,,,,,,,,,,,,,,,,,,,,,,,,,,,,,,,,,,,,,,,,,,,,,,,,,,,,,,,,,,,,,,,,,,,,,,,,,,,,,
,,,,,,6113dc7ee718f73116fcdc8a,62c538b40f4e9eb445dab9c7,2022-07-06_09h44.48.400,Colour_Asymmetry_Pilot,2022.1.3,Win32,60.2373351,62c50e9c1127f2cd403a315f,0,62,62,105,1,onethree,,,,,,,,,,,,,,,,,,,,,,,,,,,,,,,,,,,,,,,,,,,,,,,,,,,,,,,,,,,,,,,,,,,,,,,,,,,,,,,,,,,,,,,,,,,,,,,,,,,,,,,,,,,,,,,,,,,,,,,,,,,,,,,,,,,,,,,,,,,,,,,,,,,,,,,,,,,,,
,,,,,,6113dc7ee718f73116fcdc8a,62c538b40f4e9eb445dab9c7,2022-07-06_09h44.48.400,Colour_Asymmetry_Pilot,2022.1.3,Win32,60.2373351,62c50e9c1127f2cd403a315f,0,63,63,159,1,fourthree,,,,,,,,,,,,,,,,,,,,,,,,,,,,,,,,,,,,,,,,,,,,,,,,,,,,,,,,,,,,,,,,,,,,,,,,,,,,,,,,,,,,,,,,,,,,,,,,,,,,,,,,,,,,,,,,,,,,,,,,,,,,,,,,,,,,,,,,,,,,,,,,,,,,,,,,,,,,,
,,,,,,6113dc7ee718f73116fcdc8a,62c538b40f4e9eb445dab9c7,2022-07-06_09h44.48.400,Colour_Asymmetry_Pilot,2022.1.3,Win32,60.2373351,62c50e9c1127f2cd403a315f,0,64,64,20,1,threeone,,,,,,,,,,,,,,,,,,,,,,,,,,,,,,,,,,,,,,,,,,,,,,,,,,,,,,,,,,,,,,,,,,,,,,,,,,,,,,,,,,,,,,,,,,,,,,,,,,,,,,,,,,,,,,,,,,,,,,,,,,,,,,,,,,,,,,,,,,,,,,,,,,,,,,,,,,,,,
,,,,,,6113dc7ee718f73116fcdc8a,62c538b40f4e9eb445dab9c7,2022-07-06_09h44.48.400,Colour_Asymmetry_Pilot,2022.1.3,Win32,60.2373351,62c50e9c1127f2cd403a315f,0,65,65,131,1,twofour,,,,,,,,,,,,,,,,,,,,,,,,,,,,,,,,,,,,,,,,,,,,,,,,,,,,,,,,,,,,,,,,,,,,,,,,,,,,,,,,,,,,,,,,,,,,,,,,,,,,,,,,,,,,,,,,,,,,,,,,,,,,,,,,,,,,,,,,,,,,,,,,,,,,,,,,,,,,,
,,,,,,6113dc7ee718f73116fcdc8a,62c538b40f4e9eb445dab9c7,2022-07-06_09h44.48.400,Colour_Asymmetry_Pilot,2022.1.3,Win32,60.2373351,62c50e9c1127f2cd403a315f,0,66,66,118,1,fourtwo,,,,,,,,,,,,,,,,,,,,,,,,,,,,,,,,,,,,,,,,,,,,,,,,,,,,,,,,,,,,,,,,,,,,,,,,,,,,,,,,,,,,,,,,,,,,,,,,,,,,,,,,,,,,,,,,,,,,,,,,,,,,,,,,,,,,,,,,,,,,,,,,,,,,,,,,,,,,,
,,,,,,6113dc7ee718f73116fcdc8a,62c538b40f4e9eb445dab9c7,2022-07-06_09h44.48.400,Colour_Asymmetry_Pilot,2022.1.3,Win32,60.2373351,62c50e9c1127f2cd403a315f,0,67,67,146,1,twoone,,,,,,,,,,,,,,,,,,,,,,,,,,,,,,,,,,,,,,,,,,,,,,,,,,,,,,,,,,,,,,,,,,,,,,,,,,,,,,,,,,,,,,,,,,,,,,,,,,,,,,,,,,,,,,,,,,,,,,,,,,,,,,,,,,,,,,,,,,,,,,,,,,,,,,,,,,,,,
,,,,,,6113dc7ee718f73116fcdc8a,62c538b40f4e9eb445dab9c7,2022-07-06_09h44.48.400,Colour_Asymmetry_Pilot,2022.1.3,Win32,60.2373351,62c50e9c1127f2cd403a315f,0,68,68,63,1,fourthree,,,,,,,,,,,,,,,,,,,,,,,,,,,,,,,,,,,,,,,,,,,,,,,,,,,,,,,,,,,,,,,,,,,,,,,,,,,,,,,,,,,,,,,,,,,,,,,,,,,,,,,,,,,,,,,,,,,,,,,,,,,,,,,,,,,,,,,,,,,,,,,,,,,,,,,,,,,,,
,,,,,,6113dc7ee718f73116fcdc8a,62c538b40f4e9eb445dab9c7,2022-07-06_09h44.48.400,Colour_Asymmetry_Pilot,2022.1.3,Win32,60.2373351,62c50e9c1127f2cd403a315f,0,69,69,97,1,onethree,,,,,,,,,,,,,,,,,,,,,,,,,,,,,,,,,,,,,,,,,,,,,,,,,,,,,,,,,,,,,,,,,,,,,,,,,,,,,,,,,,,,,,,,,,,,,,,,,,,,,,,,,,,,,,,,,,,,,,,,,,,,,,,,,,,,,,,,,,,,,,,,,,,,,,,,,,,,,
,,,,,,6113dc7ee718f73116fcdc8a,62c538b40f4e9eb445dab9c7,2022-07-06_09h44.48.400,Colour_Asymmetry_Pilot,2022.1.3,Win32,60.2373351,62c50e9c1127f2cd403a315f,0,70,70,70,1,fourtwo,,,,,,,,,,,,,,,,,,,,,,,,,,,,,,,,,,,,,,,,,,,,,,,,,,,,,,,,,,,,,,,,,,,,,,,,,,,,,,,,,,,,,,,,,,,,,,,,,,,,,,,,,,,,,,,,,,,,,,,,,,,,,,,,,,,,,,,,,,,,,,,,,,,,,,,,,,,,,
,,,,,,6113dc7ee718f73116fcdc8a,62c538b40f4e9eb445dab9c7,2022-07-06_09h44.48.400,Colour_Asymmetry_Pilot,2022.1.3,Win32,60.2373351,62c50e9c1127f2cd403a315f,0,71,71,25,1,onethree,,,,,,,,,,,,,,,,,,,,,,,,,,,,,,,,,,,,,,,,,,,,,,,,,,,,,,,,,,,,,,,,,,,,,,,,,,,,,,,,,,,,,,,,,,,,,,,,,,,,,,,,,,,,,,,,,,,,,,,,,,,,,,,,,,,,,,,,,,,,,,,,,,,,,,,,,,,,,
,,,,,,6113dc7ee718f73116fcdc8a,62c538b40f4e9eb445dab9c7,2022-07-06_09h44.48.400,Colour_Asymmetry_Pilot,2022.1.3,Win32,60.2373351,62c50e9c1127f2cd403a315f,0,72,72,42,1,twoone,,,,,,,,,,,,,,,,,,,,,,,,,,,,,,,,,,,,,,,,,,,,,,,,,,,,,,,,,,,,,,,,,,,,,,,,,,,,,,,,,,,,,,,,,,,,,,,,,,,,,,,,,,,,,,,,,,,,,,,,,,,,,,,,,,,,,,,,,,,,,,,,,,,,,,,,,,,,,
,,,,,,6113dc7ee718f73116fcdc8a,62c538b40f4e9eb445dab9c7,2022-07-06_09h44.48.400,Colour_Asymmetry_Pilot,2022.1.3,Win32,60.2373351,62c50e9c1127f2cd403a315f,0,73,73,135,1,fourthree,,,,,,,,,,,,,,,,,,,,,,,,,,,,,,,,,,,,,,,,,,,,,,,,,,,,,,,,,,,,,,,,,,,,,,,,,,,,,,,,,,,,,,,,,,,,,,,,,,,,,,,,,,,,,,,,,,,,,,,,,,,,,,,,,,,,,,,,,,,,,,,,,,,,,,,,,,,,,
,,,,,,6113dc7ee718f73116fcdc8a,62c538b40f4e9eb445dab9c7,2022-07-06_09h44.48.400,Colour_Asymmetry_Pilot,2022.1.3,Win32,60.2373351,62c50e9c1127f2cd403a315f,0,74,74,36,1,threeone,,,,,,,,,,,,,,,,,,,,,,,,,,,,,,,,,,,,,,,,,,,,,,,,,,,,,,,,,,,,,,,,,,,,,,,,,,,,,,,,,,,,,,,,,,,,,,,,,,,,,,,,,,,,,,,,,,,,,,,,,,,,,,,,,,,,,,,,,,,,,,,,,,,,,,,,,,,,,
,,,,,,6113dc7ee718f73116fcdc8a,62c538b40f4e9eb445dab9c7,2022-07-06_09h44.48.400,Colour_Asymmetry_Pilot,2022.1.3,Win32,60.2373351,62c50e9c1127f2cd403a315f,0,75,75,124,1,threeone,,,,,,,,,,,,,,,,,,,,,,,,,,,,,,,,,,,,,,,,,,,,,,,,,,,,,,,,,,,,,,,,,,,,,,,,,,,,,,,,,,,,,,,,,,,,,,,,,,,,,,,,,,,,,,,,,,,,,,,,,,,,,,,,,,,,,,,,,,,,,,,,,,,,,,,,,,,,,
,,,,,,6113dc7ee718f73116fcdc8a,62c538b40f4e9eb445dab9c7,2022-07-06_09h44.48.400,Colour_Asymmetry_Pilot,2022.1.3,Win32,60.2373351,62c50e9c1127f2cd403a315f,0,76,76,125,1,threefour,,,,,,,,,,,,,,,,,,,,,,,,,,,,,,,,,,,,,,,,,,,,,,,,,,,,,,,,,,,,,,,,,,,,,,,,,,,,,,,,,,,,,,,,,,,,,,,,,,,,,,,,,,,,,,,,,,,,,,,,,,,,,,,,,,,,,,,,,,,,,,,,,,,,,,,,,,,,,
,,,,,,6113dc7ee718f73116fcdc8a,62c538b40f4e9eb445dab9c7,2022-07-06_09h44.48.400,Colour_Asymmetry_Pilot,2022.1.3,Win32,60.2373351,62c50e9c1127f2cd403a315f,0,77,77,39,1,fourthree,,,,,,,,,,,,,,,,,,,,,,,,,,,,,,,,,,,,,,,,,,,,,,,,,,,,,,,,,,,,,,,,,,,,,,,,,,,,,,,,,,,,,,,,,,,,,,,,,,,,,,,,,,,,,,,,,,,,,,,,,,,,,,,,,,,,,,,,,,,,,,,,,,,,,,,,,,,,,
,,,,,,6113dc7ee718f73116fcdc8a,62c538b40f4e9eb445dab9c7,2022-07-06_09h44.48.400,Colour_Asymmetry_Pilot,2022.1.3,Win32,60.2373351,62c50e9c1127f2cd403a315f,0,78,78,8,1,onetwo,,,,,,,,,,,,,,,,,,,,,,,,,,,,,,,,,,,,,,,,,,,,,,,,,,,,,,,,,,,,,,,,,,,,,,,,,,,,,,,,,,,,,,,,,,,,,,,,,,,,,,,,,,,,,,,,,,,,,,,,,,,,,,,,,,,,,,,,,,,,,,,,,,,,,,,,,,,,,
,,,,,,6113dc7ee718f73116fcdc8a,62c538b40f4e9eb445dab9c7,2022-07-06_09h44.48.400,Colour_Asymmetry_Pilot,2022.1.3,Win32,60.2373351,62c50e9c1127f2cd403a315f,0,79,79,30,1,fourtwo,,,,,,,,,,,,,,,,,,,,,,,,,,,,,,,,,,,,,,,,,,,,,,,,,,,,,,,,,,,,,,,,,,,,,,,,,,,,,,,,,,,,,,,,,,,,,,,,,,,,,,,,,,,,,,,,,,,,,,,,,,,,,,,,,,,,,,,,,,,,,,,,,,,,,,,,,,,,,
,,,,,,6113dc7ee718f73116fcdc8a,62c538b40f4e9eb445dab9c7,2022-07-06_09h44.48.400,Colour_Asymmetry_Pilot,2022.1.3,Win32,60.2373351,62c50e9c1127f2cd403a315f,0,80,80,86,1,fourtwo,,,,,,,,,,,,,,,,,,,,,,,,,,,,,,,,,,,,,,,,,,,,,,,,,,,,,,,,,,,,,,,,,,,,,,,,,,,,,,,,,,,,,,,,,,,,,,,,,,,,,,,,,,,,,,,,,,,,,,,,,,,,,,,,,,,,,,,,,,,,,,,,,,,,,,,,,,,,,
,,,,,,6113dc7ee718f73116fcdc8a,62c538b40f4e9eb445dab9c7,2022-07-06_09h44.48.400,Colour_Asymmetry_Pilot,2022.1.3,Win32,60.2373351,62c50e9c1127f2cd403a315f,0,81,81,69,1,threefour,,,,,,,,,,,,,,,,,,,,,,,,,,,,,,,,,,,,,,,,,,,,,,,,,,,,,,,,,,,,,,,,,,,,,,,,,,,,,,,,,,,,,,,,,,,,,,,,,,,,,,,,,,,,,,,,,,,,,,,,,,,,,,,,,,,,,,,,,,,,,,,,,,,,,,,,,,,,,
,,,,,,6113dc7ee718f73116fcdc8a,62c538b40f4e9eb445dab9c7,2022-07-06_09h44.48.400,Colour_Asymmetry_Pilot,2022.1.3,Win32,60.2373351,62c50e9c1127f2cd403a315f,0,82,82,160,1,onetwo,,,,,,,,,,,,,,,,,,,,,,,,,,,,,,,,,,,,,,,,,,,,,,,,,,,,,,,,,,,,,,,,,,,,,,,,,,,,,,,,,,,,,,,,,,,,,,,,,,,,,,,,,,,,,,,,,,,,,,,,,,,,,,,,,,,,,,,,,,,,,,,,,,,,,,,,,,,,,
,,,,,,6113dc7ee718f73116fcdc8a,62c538b40f4e9eb445dab9c7,2022-07-06_09h44.48.400,Colour_Asymmetry_Pilot,2022.1.3,Win32,60.2373351,62c50e9c1127f2cd403a315f,0,83,83,31,1,fourthree,,,,,,,,,,,,,,,,,,,,,,,,,,,,,,,,,,,,,,,,,,,,,,,,,,,,,,,,,,,,,,,,,,,,,,,,,,,,,,,,,,,,,,,,,,,,,,,,,,,,,,,,,,,,,,,,,,,,,,,,,,,,,,,,,,,,,,,,,,,,,,,,,,,,,,,,,,,,,
,,,,,,6113dc7ee718f73116fcdc8a,62c538b40f4e9eb445dab9c7,2022-07-06_09h44.48.400,Colour_Asymmetry_Pilot,2022.1.3,Win32,60.2373351,62c50e9c1127f2cd403a315f,0,84,84,7,1,fourthree,,,,,,,,,,,,,,,,,,,,,,,,,,,,,,,,,,,,,,,,,,,,,,,,,,,,,,,,,,,,,,,,,,,,,,,,,,,,,,,,,,,,,,,,,,,,,,,,,,,,,,,,,,,,,,,,,,,,,,,,,,,,,,,,,,,,,,,,,,,,,,,,,,,,,,,,,,,,,
,,,,,,6113dc7ee718f73116fcdc8a,62c538b40f4e9eb445dab9c7,2022-07-06_09h44.48.400,Colour_Asymmetry_Pilot,2022.1.3,Win32,60.2373351,62c50e9c1127f2cd403a315f,0,85,85,45,1,threefour,,,,,,,,,,,,,,,,,,,,,,,,,,,,,,,,,,,,,,,,,,,,,,,,,,,,,,,,,,,,,,,,,,,,,,,,,,,,,,,,,,,,,,,,,,,,,,,,,,,,,,,,,,,,,,,,,,,,,,,,,,,,,,,,,,,,,,,,,,,,,,,,,,,,,,,,,,,,,
,,,,,,6113dc7ee718f73116fcdc8a,62c538b40f4e9eb445dab9c7,2022-07-06_09h44.48.400,Colour_Asymmetry_Pilot,2022.1.3,Win32,60.2373351,62c50e9c1127f2cd403a315f,0,86,86,12,1,threeone,,,,,,,,,,,,,,,,,,,,,,,,,,,,,,,,,,,,,,,,,,,,,,,,,,,,,,,,,,,,,,,,,,,,,,,,,,,,,,,,,,,,,,,,,,,,,,,,,,,,,,,,,,,,,,,,,,,,,,,,,,,,,,,,,,,,,,,,,,,,,,,,,,,,,,,,,,,,,
,,,,,,6113dc7ee718f73116fcdc8a,62c538b40f4e9eb445dab9c7,2022-07-06_09h44.48.400,Colour_Asymmetry_Pilot,2022.1.3,Win32,60.2373351,62c50e9c1127f2cd403a315f,0,87,87,102,1,fourtwo,,,,,,,,,,,,,,,,,,,,,,,,,,,,,,,,,,,,,,,,,,,,,,,,,,,,,,,,,,,,,,,,,,,,,,,,,,,,,,,,,,,,,,,,,,,,,,,,,,,,,,,,,,,,,,,,,,,,,,,,,,,,,,,,,,,,,,,,,,,,,,,,,,,,,,,,,,,,,
,,,,,,6113dc7ee718f73116fcdc8a,62c538b40f4e9eb445dab9c7,2022-07-06_09h44.48.400,Colour_Asymmetry_Pilot,2022.1.3,Win32,60.2373351,62c50e9c1127f2cd403a315f,0,88,88,58,1,twoone,,,,,,,,,,,,,,,,,,,,,,,,,,,,,,,,,,,,,,,,,,,,,,,,,,,,,,,,,,,,,,,,,,,,,,,,,,,,,,,,,,,,,,,,,,,,,,,,,,,,,,,,,,,,,,,,,,,,,,,,,,,,,,,,,,,,,,,,,,,,,,,,,,,,,,,,,,,,,
,,,,,,6113dc7ee718f73116fcdc8a,62c538b40f4e9eb445dab9c7,2022-07-06_09h44.48.400,Colour_Asymmetry_Pilot,2022.1.3,Win32,60.2373351,62c50e9c1127f2cd403a315f,0,89,89,100,1,threeone,,,,,,,,,,,,,,,,,,,,,,,,,,,,,,,,,,,,,,,,,,,,,,,,,,,,,,,,,,,,,,,,,,,,,,,,,,,,,,,,,,,,,,,,,,,,,,,,,,,,,,,,,,,,,,,,,,,,,,,,,,,,,,,,,,,,,,,,,,,,,,,,,,,,,,,,,,,,,
,,,,,,6113dc7ee718f73116fcdc8a,62c538b40f4e9eb445dab9c7,2022-07-06_09h44.48.400,Colour_Asymmetry_Pilot,2022.1.3,Win32,60.2373351,62c50e9c1127f2cd403a315f,0,90,90,64,1,onetwo,,,,,,,,,,,,,,,,,,,,,,,,,,,,,,,,,,,,,,,,,,,,,,,,,,,,,,,,,,,,,,,,,,,,,,,,,,,,,,,,,,,,,,,,,,,,,,,,,,,,,,,,,,,,,,,,,,,,,,,,,,,,,,,,,,,,,,,,,,,,,,,,,,,,,,,,,,,,,
,,,,,,6113dc7ee718f73116fcdc8a,62c538b40f4e9eb445dab9c7,2022-07-06_09h44.48.400,Colour_Asymmetry_Pilot,2022.1.3,Win32,60.2373351,62c50e9c1127f2cd403a315f,0,91,91,1,1,onethree,,,,,,,,,,,,,,,,,,,,,,,,,,,,,,,,,,,,,,,,,,,,,,,,,,,,,,,,,,,,,,,,,,,,,,,,,,,,,,,,,,,,,,,,,,,,,,,,,,,,,,,,,,,,,,,,,,,,,,,,,,,,,,,,,,,,,,,,,,,,,,,,,,,,,,,,,,,,,
,,,,,,6113dc7ee718f73116fcdc8a,62c538b40f4e9eb445dab9c7,2022-07-06_09h44.48.400,Colour_Asymmetry_Pilot,2022.1.3,Win32,60.2373351,62c50e9c1127f2cd403a315f,0,92,92,74,1,twoone,,,,,,,,,,,,,,,,,,,,,,,,,,,,,,,,,,,,,,,,,,,,,,,,,,,,,,,,,,,,,,,,,,,,,,,,,,,,,,,,,,,,,,,,,,,,,,,,,,,,,,,,,,,,,,,,,,,,,,,,,,,,,,,,,,,,,,,,,,,,,,,,,,,,,,,,,,,,,
,,,,,,6113dc7ee718f73116fcdc8a,62c538b40f4e9eb445dab9c7,2022-07-06_09h44.48.400,Colour_Asymmetry_Pilot,2022.1.3,Win32,60.2373351,62c50e9c1127f2cd403a315f,0,93,93,147,1,twofour,,,,,,,,,,,,,,,,,,,,,,,,,,,,,,,,,,,,,,,,,,,,,,,,,,,,,,,,,,,,,,,,,,,,,,,,,,,,,,,,,,,,,,,,,,,,,,,,,,,,,,,,,,,,,,,,,,,,,,,,,,,,,,,,,,,,,,,,,,,,,,,,,,,,,,,,,,,,,
,,,,,,6113dc7ee718f73116fcdc8a,62c538b40f4e9eb445dab9c7,2022-07-06_09h44.48.400,Colour_Asymmetry_Pilot,2022.1.3,Win32,60.2373351,62c50e9c1127f2cd403a315f,0,94,94,141,1,threefour,,,,,,,,,,,,,,,,,,,,,,,,,,,,,,,,,,,,,,,,,,,,,,,,,,,,,,,,,,,,,,,,,,,,,,,,,,,,,,,,,,,,,,,,,,,,,,,,,,,,,,,,,,,,,,,,,,,,,,,,,,,,,,,,,,,,,,,,,,,,,,,,,,,,,,,,,,,,,
,,,,,,6113dc7ee718f73116fcdc8a,62c538b40f4e9eb445dab9c7,2022-07-06_09h44.48.400,Colour_Asymmetry_Pilot,2022.1.3,Win32,60.2373351,62c50e9c1127f2cd403a315f,0,95,95,9,1,onethree,,,,,,,,,,,,,,,,,,,,,,,,,,,,,,,,,,,,,,,,,,,,,,,,,,,,,,,,,,,,,,,,,,,,,,,,,,,,,,,,,,,,,,,,,,,,,,,,,,,,,,,,,,,,,,,,,,,,,,,,,,,,,,,,,,,,,,,,,,,,,,,,,,,,,,,,,,,,,
,,,,,,6113dc7ee718f73116fcdc8a,62c538b40f4e9eb445dab9c7,2022-07-06_09h44.48.400,Colour_Asymmetry_Pilot,2022.1.3,Win32,60.2373351,62c50e9c1127f2cd403a315f,0,96,96,41,1,onethree,,,,,,,,,,,,,,,,,,,,,,,,,,,,,,,,,,,,,,,,,,,,,,,,,,,,,,,,,,,,,,,,,,,,,,,,,,,,,,,,,,,,,,,,,,,,,,,,,,,,,,,,,,,,,,,,,,,,,,,,,,,,,,,,,,,,,,,,,,,,,,,,,,,,,,,,,,,,,
,,,,,,6113dc7ee718f73116fcdc8a,62c538b40f4e9eb445dab9c7,2022-07-06_09h44.48.400,Colour_Asymmetry_Pilot,2022.1.3,Win32,60.2373351,62c50e9c1127f2cd403a315f,0,97,97,153,1,onethree,,,,,,,,,,,,,,,,,,,,,,,,,,,,,,,,,,,,,,,,,,,,,,,,,,,,,,,,,,,,,,,,,,,,,,,,,,,,,,,,,,,,,,,,,,,,,,,,,,,,,,,,,,,,,,,,,,,,,,,,,,,,,,,,,,,,,,,,,,,,,,,,,,,,,,,,,,,,,
,,,,,,6113dc7ee718f73116fcdc8a,62c538b40f4e9eb445dab9c7,2022-07-06_09h44.48.400,Colour_Asymmetry_Pilot,2022.1.3,Win32,60.2373351,62c50e9c1127f2cd403a315f,0,98,98,85,1,threefour,,,,,,,,,,,,,,,,,,,,,,,,,,,,,,,,,,,,,,,,,,,,,,,,,,,,,,,,,,,,,,,,,,,,,,,,,,,,,,,,,,,,,,,,,,,,,,,,,,,,,,,,,,,,,,,,,,,,,,,,,,,,,,,,,,,,,,,,,,,,,,,,,,,,,,,,,,,,,
,,,,,,6113dc7ee718f73116fcdc8a,62c538b40f4e9eb445dab9c7,2022-07-06_09h44.48.400,Colour_Asymmetry_Pilot,2022.1.3,Win32,60.2373351,62c50e9c1127f2cd403a315f,0,99,99,32,1,onetwo,,,,,,,,,,,,,,,,,,,,,,,,,,,,,,,,,,,,,,,,,,,,,,,,,,,,,,,,,,,,,,,,,,,,,,,,,,,,,,,,,,,,,,,,,,,,,,,,,,,,,,,,,,,,,,,,,,,,,,,,,,,,,,,,,,,,,,,,,,,,,,,,,,,,,,,,,,,,,
,,,,,,6113dc7ee718f73116fcdc8a,62c538b40f4e9eb445dab9c7,2022-07-06_09h44.48.400,Colour_Asymmetry_Pilot,2022.1.3,Win32,60.2373351,62c50e9c1127f2cd403a315f,0,100,100,21,1,threefour,,,,,,,,,,,,,,,,,,,,,,,,,,,,,,,,,,,,,,,,,,,,,,,,,,,,,,,,,,,,,,,,,,,,,,,,,,,,,,,,,,,,,,,,,,,,,,,,,,,,,,,,,,,,,,,,,,,,,,,,,,,,,,,,,,,,,,,,,,,,,,,,,,,,,,,,,,,,,
,,,,,,6113dc7ee718f73116fcdc8a,62c538b40f4e9eb445dab9c7,2022-07-06_09h44.48.400,Colour_Asymmetry_Pilot,2022.1.3,Win32,60.2373351,62c50e9c1127f2cd403a315f,0,101,101,15,1,fourthree,,,,,,,,,,,,,,,,,,,,,,,,,,,,,,,,,,,,,,,,,,,,,,,,,,,,,,,,,,,,,,,,,,,,,,,,,,,,,,,,,,,,,,,,,,,,,,,,,,,,,,,,,,,,,,,,,,,,,,,,,,,,,,,,,,,,,,,,,,,,,,,,,,,,,,,,,,,,,
,,,,,,6113dc7ee718f73116fcdc8a,62c538b40f4e9eb445dab9c7,2022-07-06_09h44.48.400,Colour_Asymmetry_Pilot,2022.1.3,Win32,60.2373351,62c50e9c1127f2cd403a315f,0,102,102,83,1,twofour,,,,,,,,,,,,,,,,,,,,,,,,,,,,,,,,,,,,,,,,,,,,,,,,,,,,,,,,,,,,,,,,,,,,,,,,,,,,,,,,,,,,,,,,,,,,,,,,,,,,,,,,,,,,,,,,,,,,,,,,,,,,,,,,,,,,,,,,,,,,,,,,,,,,,,,,,,,,,
,,,,,,6113dc7ee718f73116fcdc8a,62c538b40f4e9eb445dab9c7,2022-07-06_09h44.48.400,Colour_Asymmetry_Pilot,2022.1.3,Win32,60.2373351,62c50e9c1127f2cd403a315f,0,103,103,80,1,onetwo,,,,,,,,,,,,,,,,,,,,,,,,,,,,,,,,,,,,,,,,,,,,,,,,,,,,,,,,,,,,,,,,,,,,,,,,,,,,,,,,,,,,,,,,,,,,,,,,,,,,,,,,,,,,,,,,,,,,,,,,,,,,,,,,,,,,,,,,,,,,,,,,,,,,,,,,,,,,,
,,,,,,6113dc7ee718f73116fcdc8a,62c538b40f4e9eb445dab9c7,2022-07-06_09h44.48.400,Colour_Asymmetry_Pilot,2022.1.3,Win32,60.2373351,62c50e9c1127f2cd403a315f,0,104,104,132,1,threeone,,,,,,,,,,,,,,,,,,,,,,,,,,,,,,,,,,,,,,,,,,,,,,,,,,,,,,,,,,,,,,,,,,,,,,,,,,,,,,,,,,,,,,,,,,,,,,,,,,,,,,,,,,,,,,,,,,,,,,,,,,,,,,,,,,,,,,,,,,,,,,,,,,,,,,,,,,,,,
,,,,,,6113dc7ee718f73116fcdc8a,62c538b40f4e9eb445dab9c7,2022-07-06_09h44.48.400,Colour_Asymmetry_Pilot,2022.1.3,Win32,60.2373351,62c50e9c1127f2cd403a315f,0,105,105,145,1,onethree,,,,,,,,,,,,,,,,,,,,,,,,,,,,,,,,,,,,,,,,,,,,,,,,,,,,,,,,,,,,,,,,,,,,,,,,,,,,,,,,,,,,,,,,,,,,,,,,,,,,,,,,,,,,,,,,,,,,,,,,,,,,,,,,,,,,,,,,,,,,,,,,,,,,,,,,,,,,,
,,,,,,6113dc7ee718f73116fcdc8a,62c538b40f4e9eb445dab9c7,2022-07-06_09h44.48.400,Colour_Asymmetry_Pilot,2022.1.3,Win32,60.2373351,62c50e9c1127f2cd403a315f,0,106,106,104,1,onetwo,,,,,,,,,,,,,,,,,,,,,,,,,,,,,,,,,,,,,,,,,,,,,,,,,,,,,,,,,,,,,,,,,,,,,,,,,,,,,,,,,,,,,,,,,,,,,,,,,,,,,,,,,,,,,,,,,,,,,,,,,,,,,,,,,,,,,,,,,,,,,,,,,,,,,,,,,,,,,
,,,,,,6113dc7ee718f73116fcdc8a,62c538b40f4e9eb445dab9c7,2022-07-06_09h44.48.400,Colour_Asymmetry_Pilot,2022.1.3,Win32,60.2373351,62c50e9c1127f2cd403a315f,0,107,107,66,1,twoone,,,,,,,,,,,,,,,,,,,,,,,,,,,,,,,,,,,,,,,,,,,,,,,,,,,,,,,,,,,,,,,,,,,,,,,,,,,,,,,,,,,,,,,,,,,,,,,,,,,,,,,,,,,,,,,,,,,,,,,,,,,,,,,,,,,,,,,,,,,,,,,,,,,,,,,,,,,,,
,,,,,,6113dc7ee718f73116fcdc8a,62c538b40f4e9eb445dab9c7,2022-07-06_09h44.48.400,Colour_Asymmetry_Pilot,2022.1.3,Win32,60.2373351,62c50e9c1127f2cd403a315f,0,108,108,138,1,twoone,,,,,,,,,,,,,,,,,,,,,,,,,,,,,,,,,,,,,,,,,,,,,,,,,,,,,,,,,,,,,,,,,,,,,,,,,,,,,,,,,,,,,,,,,,,,,,,,,,,,,,,,,,,,,,,,,,,,,,,,,,,,,,,,,,,,,,,,,,,,,,,,,,,,,,,,,,,,,
,,,,,,6113dc7ee718f73116fcdc8a,62c538b40f4e9eb445dab9c7,2022-07-06_09h44.48.400,Colour_Asymmetry_Pilot,2022.1.3,Win32,60.2373351,62c50e9c1127f2cd403a315f,0,109,109,43,1,twofour,,,,,,,,,,,,,,,,,,,,,,,,,,,,,,,,,,,,,,,,,,,,,,,,,,,,,,,,,,,,,,,,,,,,,,,,,,,,,,,,,,,,,,,,,,,,,,,,,,,,,,,,,,,,,,,,,,,,,,,,,,,,,,,,,,,,,,,,,,,,,,,,,,,,,,,,,,,,,
,,,,,,6113dc7ee718f73116fcdc8a,62c538b40f4e9eb445dab9c7,2022-07-06_09h44.48.400,Colour_Asymmetry_Pilot,2022.1.3,Win32,60.2373351,62c50e9c1127f2cd403a315f,0,110,110,61,1,threefour,,,,,,,,,,,,,,,,,,,,,,,,,,,,,,,,,,,,,,,,,,,,,,,,,,,,,,,,,,,,,,,,,,,,,,,,,,,,,,,,,,,,,,,,,,,,,,,,,,,,,,,,,,,,,,,,,,,,,,,,,,,,,,,,,,,,,,,,,,,,,,,,,,,,,,,,,,,,,
,,,,,,6113dc7ee718f73116fcdc8a,62c538b40f4e9eb445dab9c7,2022-07-06_09h44.48.400,Colour_Asymmetry_Pilot,2022.1.3,Win32,60.2373351,62c50e9c1127f2cd403a315f,0,111,111,14,1,fourtwo,,,,,,,,,,,,,,,,,,,,,,,,,,,,,,,,,,,,,,,,,,,,,,,,,,,,,,,,,,,,,,,,,,,,,,,,,,,,,,,,,,,,,,,,,,,,,,,,,,,,,,,,,,,,,,,,,,,,,,,,,,,,,,,,,,,,,,,,,,,,,,,,,,,,,,,,,,,,,
,,,,,,6113dc7ee718f73116fcdc8a,62c538b40f4e9eb445dab9c7,2022-07-06_09h44.48.400,Colour_Asymmetry_Pilot,2022.1.3,Win32,60.2373351,62c50e9c1127f2cd403a315f,0,112,112,99,1,twofour,,,,,,,,,,,,,,,,,,,,,,,,,,,,,,,,,,,,,,,,,,,,,,,,,,,,,,,,,,,,,,,,,,,,,,,,,,,,,,,,,,,,,,,,,,,,,,,,,,,,,,,,,,,,,,,,,,,,,,,,,,,,,,,,,,,,,,,,,,,,,,,,,,,,,,,,,,,,,
,,,,,,6113dc7ee718f73116fcdc8a,62c538b40f4e9eb445dab9c7,2022-07-06_09h44.48.400,Colour_Asymmetry_Pilot,2022.1.3,Win32,60.2373351,62c50e9c1127f2cd403a315f,0,113,113,71,1,fourthree,,,,,,,,,,,,,,,,,,,,,,,,,,,,,,,,,,,,,,,,,,,,,,,,,,,,,,,,,,,,,,,,,,,,,,,,,,,,,,,,,,,,,,,,,,,,,,,,,,,,,,,,,,,,,,,,,,,,,,,,,,,,,,,,,,,,,,,,,,,,,,,,,,,,,,,,,,,,,
,,,,,,6113dc7ee718f73116fcdc8a,62c538b40f4e9eb445dab9c7,2022-07-06_09h44.48.400,Colour_Asymmetry_Pilot,2022.1.3,Win32,60.2373351,62c50e9c1127f2cd403a315f,0,114,114,108,1,threeone,,,,,,,,,,,,,,,,,,,,,,,,,,,,,,,,,,,,,,,,,,,,,,,,,,,,,,,,,,,,,,,,,,,,,,,,,,,,,,,,,,,,,,,,,,,,,,,,,,,,,,,,,,,,,,,,,,,,,,,,,,,,,,,,,,,,,,,,,,,,,,,,,,,,,,,,,,,,,
,,,,,,6113dc7ee718f73116fcdc8a,62c538b40f4e9eb445dab9c7,2022-07-06_09h44.48.400,Colour_Asymmetry_Pilot,2022.1.3,Win32,60.2373351,62c50e9c1127f2cd403a315f,0,115,115,79,1,fourthree,,,,,,,,,,,,,,,,,,,,,,,,,,,,,,,,,,,,,,,,,,,,,,,,,,,,,,,,,,,,,,,,,,,,,,,,,,,,,,,,,,,,,,,,,,,,,,,,,,,,,,,,,,,,,,,,,,,,,,,,,,,,,,,,,,,,,,,,,,,,,,,,,,,,,,,,,,,,,
,,,,,,6113dc7ee718f73116fcdc8a,62c538b40f4e9eb445dab9c7,2022-07-06_09h44.48.400,Colour_Asymmetry_Pilot,2022.1.3,Win32,60.2373351,62c50e9c1127f2cd403a315f,0,116,116,96,1,onetwo,,,,,,,,,,,,,,,,,,,,,,,,,,,,,,,,,,,,,,,,,,,,,,,,,,,,,,,,,,,,,,,,,,,,,,,,,,,,,,,,,,,,,,,,,,,,,,,,,,,,,,,,,,,,,,,,,,,,,,,,,,,,,,,,,,,,,,,,,,,,,,,,,,,,,,,,,,,,,
,,,,,,6113dc7ee718f73116fcdc8a,62c538b40f4e9eb445dab9c7,2022-07-06_09h44.48.400,Colour_Asymmetry_Pilot,2022.1.3,Win32,60.2373351,62c50e9c1127f2cd403a315f,0,117,117,127,1,fourthree,,,,,,,,,,,,,,,,,,,,,,,,,,,,,,,,,,,,,,,,,,,,,,,,,,,,,,,,,,,,,,,,,,,,,,,,,,,,,,,,,,,,,,,,,,,,,,,,,,,,,,,,,,,,,,,,,,,,,,,,,,,,,,,,,,,,,,,,,,,,,,,,,,,,,,,,,,,,,
,,,,,,6113dc7ee718f73116fcdc8a,62c538b40f4e9eb445dab9c7,2022-07-06_09h44.48.400,Colour_Asymmetry_Pilot,2022.1.3,Win32,60.2373351,62c50e9c1127f2cd403a315f,0,118,118,139,1,twofour,,,,,,,,,,,,,,,,,,,,,,,,,,,,,,,,,,,,,,,,,,,,,,,,,,,,,,,,,,,,,,,,,,,,,,,,,,,,,,,,,,,,,,,,,,,,,,,,,,,,,,,,,,,,,,,,,,,,,,,,,,,,,,,,,,,,,,,,,,,,,,,,,,,,,,,,,,,,,
,,,,,,6113dc7ee718f73116fcdc8a,62c538b40f4e9eb445dab9c7,2022-07-06_09h44.48.400,Colour_Asymmetry_Pilot,2022.1.3,Win32,60.2373351,62c50e9c1127f2cd403a315f,0,119,119,158,1,fourtwo,,,,,,,,,,,,,,,,,,,,,,,,,,,,,,,,,,,,,,,,,,,,,,,,,,,,,,,,,,,,,,,,,,,,,,,,,,,,,,,,,,,,,,,,,,,,,,,,,,,,,,,,,,,,,,,,,,,,,,,,,,,,,,,,,,,,,,,,,,,,,,,,,,,,,,,,,,,,,
,,,,,,6113dc7ee718f73116fcdc8a,62c538b40f4e9eb445dab9c7,2022-07-06_09h44.48.400,Colour_Asymmetry_Pilot,2022.1.3,Win32,60.2373351,62c50e9c1127f2cd403a315f,0,120,120,155,1,twofour,,,,,,,,,,,,,,,,,,,,,,,,,,,,,,,,,,,,,,,,,,,,,,,,,,,,,,,,,,,,,,,,,,,,,,,,,,,,,,,,,,,,,,,,,,,,,,,,,,,,,,,,,,,,,,,,,,,,,,,,,,,,,,,,,,,,,,,,,,,,,,,,,,,,,,,,,,,,,
,,,,,,6113dc7ee718f73116fcdc8a,62c538b40f4e9eb445dab9c7,2022-07-06_09h44.48.400,Colour_Asymmetry_Pilot,2022.1.3,Win32,60.2373351,62c50e9c1127f2cd403a315f,0,121,121,16,1,onetwo,,,,,,,,,,,,,,,,,,,,,,,,,,,,,,,,,,,,,,,,,,,,,,,,,,,,,,,,,,,,,,,,,,,,,,,,,,,,,,,,,,,,,,,,,,,,,,,,,,,,,,,,,,,,,,,,,,,,,,,,,,,,,,,,,,,,,,,,,,,,,,,,,,,,,,,,,,,,,
,,,,,,6113dc7ee718f73116fcdc8a,62c538b40f4e9eb445dab9c7,2022-07-06_09h44.48.400,Colour_Asymmetry_Pilot,2022.1.3,Win32,60.2373351,62c50e9c1127f2cd403a315f,0,122,122,149,1,threefour,,,,,,,,,,,,,,,,,,,,,,,,,,,,,,,,,,,,,,,,,,,,,,,,,,,,,,,,,,,,,,,,,,,,,,,,,,,,,,,,,,,,,,,,,,,,,,,,,,,,,,,,,,,,,,,,,,,,,,,,,,,,,,,,,,,,,,,,,,,,,,,,,,,,,,,,,,,,,
,,,,,,6113dc7ee718f73116fcdc8a,62c538b40f4e9eb445dab9c7,2022-07-06_09h44.48.400,Colour_Asymmetry_Pilot,2022.1.3,Win32,60.2373351,62c50e9c1127f2cd403a315f,0,123,123,77,1,threefour,,,,,,,,,,,,,,,,,,,,,,,,,,,,,,,,,,,,,,,,,,,,,,,,,,,,,,,,,,,,,,,,,,,,,,,,,,,,,,,,,,,,,,,,,,,,,,,,,,,,,,,,,,,,,,,,,,,,,,,,,,,,,,,,,,,,,,,,,,,,,,,,,,,,,,,,,,,,,
,,,,,,6113dc7ee718f73116fcdc8a,62c538b40f4e9eb445dab9c7,2022-07-06_09h44.48.400,Colour_Asymmetry_Pilot,2022.1.3,Win32,60.2373351,62c50e9c1127f2cd403a315f,0,124,124,56,1,onetwo,,,,,,,,,,,,,,,,,,,,,,,,,,,,,,,,,,,,,,,,,,,,,,,,,,,,,,,,,,,,,,,,,,,,,,,,,,,,,,,,,,,,,,,,,,,,,,,,,,,,,,,,,,,,,,,,,,,,,,,,,,,,,,,,,,,,,,,,,,,,,,,,,,,,,,,,,,,,,
,,,,,,6113dc7ee718f73116fcdc8a,62c538b40f4e9eb445dab9c7,2022-07-06_09h44.48.400,Colour_Asymmetry_Pilot,2022.1.3,Win32,60.2373351,62c50e9c1127f2cd403a315f,0,125,125,52,1,threeone,,,,,,,,,,,,,,,,,,,,,,,,,,,,,,,,,,,,,,,,,,,,,,,,,,,,,,,,,,,,,,,,,,,,,,,,,,,,,,,,,,,,,,,,,,,,,,,,,,,,,,,,,,,,,,,,,,,,,,,,,,,,,,,,,,,,,,,,,,,,,,,,,,,,,,,,,,,,,
,,,,,,6113dc7ee718f73116fcdc8a,62c538b40f4e9eb445dab9c7,2022-07-06_09h44.48.400,Colour_Asymmetry_Pilot,2022.1.3,Win32,60.2373351,62c50e9c1127f2cd403a315f,0,126,126,75,1,twofour,,,,,,,,,,,,,,,,,,,,,,,,,,,,,,,,,,,,,,,,,,,,,,,,,,,,,,,,,,,,,,,,,,,,,,,,,,,,,,,,,,,,,,,,,,,,,,,,,,,,,,,,,,,,,,,,,,,,,,,,,,,,,,,,,,,,,,,,,,,,,,,,,,,,,,,,,,,,,
,,,,,,6113dc7ee718f73116fcdc8a,62c538b40f4e9eb445dab9c7,2022-07-06_09h44.48.400,Colour_Asymmetry_Pilot,2022.1.3,Win32,60.2373351,62c50e9c1127f2cd403a315f,0,127,127,34,1,twoone,,,,,,,,,,,,,,,,,,,,,,,,,,,,,,,,,,,,,,,,,,,,,,,,,,,,,,,,,,,,,,,,,,,,,,,,,,,,,,,,,,,,,,,,,,,,,,,,,,,,,,,,,,,,,,,,,,,,,,,,,,,,,,,,,,,,,,,,,,,,,,,,,,,,,,,,,,,,,
,,,,,,6113dc7ee718f73116fcdc8a,62c538b40f4e9eb445dab9c7,2022-07-06_09h44.48.400,Colour_Asymmetry_Pilot,2022.1.3,Win32,60.2373351,62c50e9c1127f2cd403a315f,0,128,128,59,1,twofour,,,,,,,,,,,,,,,,,,,,,,,,,,,,,,,,,,,,,,,,,,,,,,,,,,,,,,,,,,,,,,,,,,,,,,,,,,,,,,,,,,,,,,,,,,,,,,,,,,,,,,,,,,,,,,,,,,,,,,,,,,,,,,,,,,,,,,,,,,,,,,,,,,,,,,,,,,,,,
,,,,,,6113dc7ee718f73116fcdc8a,62c538b40f4e9eb445dab9c7,2022-07-06_09h44.48.400,Colour_Asymmetry_Pilot,2022.1.3,Win32,60.2373351,62c50e9c1127f2cd403a315f,0,129,129,136,1,onetwo,,,,,,,,,,,,,,,,,,,,,,,,,,,,,,,,,,,,,,,,,,,,,,,,,,,,,,,,,,,,,,,,,,,,,,,,,,,,,,,,,,,,,,,,,,,,,,,,,,,,,,,,,,,,,,,,,,,,,,,,,,,,,,,,,,,,,,,,,,,,,,,,,,,,,,,,,,,,,
,,,,,,6113dc7ee718f73116fcdc8a,62c538b40f4e9eb445dab9c7,2022-07-06_09h44.48.400,Colour_Asymmetry_Pilot,2022.1.3,Win32,60.2373351,62c50e9c1127f2cd403a315f,0,130,130,95,1,fourthree,,,,,,,,,,,,,,,,,,,,,,,,,,,,,,,,,,,,,,,,,,,,,,,,,,,,,,,,,,,,,,,,,,,,,,,,,,,,,,,,,,,,,,,,,,,,,,,,,,,,,,,,,,,,,,,,,,,,,,,,,,,,,,,,,,,,,,,,,,,,,,,,,,,,,,,,,,,,,
,,,,,,6113dc7ee718f73116fcdc8a,62c538b40f4e9eb445dab9c7,2022-07-06_09h44.48.400,Colour_Asymmetry_Pilot,2022.1.3,Win32,60.2373351,62c50e9c1127f2cd403a315f,0,131,131,129,1,onethree,,,,,,,,,,,,,,,,,,,,,,,,,,,,,,,,,,,,,,,,,,,,,,,,,,,,,,,,,,,,,,,,,,,,,,,,,,,,,,,,,,,,,,,,,,,,,,,,,,,,,,,,,,,,,,,,,,,,,,,,,,,,,,,,,,,,,,,,,,,,,,,,,,,,,,,,,,,,,
,,,,,,6113dc7ee718f73116fcdc8a,62c538b40f4e9eb445dab9c7,2022-07-06_09h44.48.400,Colour_Asymmetry_Pilot,2022.1.3,Win32,60.2373351,62c50e9c1127f2cd403a315f,0,132,132,17,1,onethree,,,,,,,,,,,,,,,,,,,,,,,,,,,,,,,,,,,,,,,,,,,,,,,,,,,,,,,,,,,,,,,,,,,,,,,,,,,,,,,,,,,,,,,,,,,,,,,,,,,,,,,,,,,,,,,,,,,,,,,,,,,,,,,,,,,,,,,,,,,,,,,,,,,,,,,,,,,,,
,,,,,,6113dc7ee718f73116fcdc8a,62c538b40f4e9eb445dab9c7,2022-07-06_09h44.48.400,Colour_Asymmetry_Pilot,2022.1.3,Win32,60.2373351,62c50e9c1127f2cd403a315f,0,133,133,122,1,twoone,,,,,,,,,,,,,,,,,,,,,,,,,,,,,,,,,,,,,,,,,,,,,,,,,,,,,,,,,,,,,,,,,,,,,,,,,,,,,,,,,,,,,,,,,,,,,,,,,,,,,,,,,,,,,,,,,,,,,,,,,,,,,,,,,,,,,,,,,,,,,,,,,,,,,,,,,,,,,
,,,,,,6113dc7ee718f73116fcdc8a,62c538b40f4e9eb445dab9c7,2022-07-06_09h44.48.400,Colour_Asymmetry_Pilot,2022.1.3,Win32,60.2373351,62c50e9c1127f2cd403a315f,0,134,134,78,1,fourtwo,,,,,,,,,,,,,,,,,,,,,,,,,,,,,,,,,,,,,,,,,,,,,,,,,,,,,,,,,,,,,,,,,,,,,,,,,,,,,,,,,,,,,,,,,,,,,,,,,,,,,,,,,,,,,,,,,,,,,,,,,,,,,,,,,,,,,,,,,,,,,,,,,,,,,,,,,,,,,
,,,,,,6113dc7ee718f73116fcdc8a,62c538b40f4e9eb445dab9c7,2022-07-06_09h44.48.400,Colour_Asymmetry_Pilot,2022.1.3,Win32,60.2373351,62c50e9c1127f2cd403a315f,0,135,135,22,1,fourtwo,,,,,,,,,,,,,,,,,,,,,,,,,,,,,,,,,,,,,,,,,,,,,,,,,,,,,,,,,,,,,,,,,,,,,,,,,,,,,,,,,,,,,,,,,,,,,,,,,,,,,,,,,,,,,,,,,,,,,,,,,,,,,,,,,,,,,,,,,,,,,,,,,,,,,,,,,,,,,
,,,,,,6113dc7ee718f73116fcdc8a,62c538b40f4e9eb445dab9c7,2022-07-06_09h44.48.400,Colour_Asymmetry_Pilot,2022.1.3,Win32,60.2373351,62c50e9c1127f2cd403a315f,0,136,136,157,1,threefour,,,,,,,,,,,,,,,,,,,,,,,,,,,,,,,,,,,,,,,,,,,,,,,,,,,,,,,,,,,,,,,,,,,,,,,,,,,,,,,,,,,,,,,,,,,,,,,,,,,,,,,,,,,,,,,,,,,,,,,,,,,,,,,,,,,,,,,,,,,,,,,,,,,,,,,,,,,,,
,,,,,,6113dc7ee718f73116fcdc8a,62c538b40f4e9eb445dab9c7,2022-07-06_09h44.48.400,Colour_Asymmetry_Pilot,2022.1.3,Win32,60.2373351,62c50e9c1127f2cd403a315f,0,137,137,68,1,threeone,,,,,,,,,,,,,,,,,,,,,,,,,,,,,,,,,,,,,,,,,,,,,,,,,,,,,,,,,,,,,,,,,,,,,,,,,,,,,,,,,,,,,,,,,,,,,,,,,,,,,,,,,,,,,,,,,,,,,,,,,,,,,,,,,,,,,,,,,,,,,,,,,,,,,,,,,,,,,
,,,,,,6113dc7ee718f73116fcdc8a,62c538b40f4e9eb445dab9c7,2022-07-06_09h44.48.400,Colour_Asymmetry_Pilot,2022.1.3,Win32,60.2373351,62c50e9c1127f2cd403a315f,0,138,138,3,1,twofour,,,,,,,,,,,,,,,,,,,,,,,,,,,,,,,,,,,,,,,,,,,,,,,,,,,,,,,,,,,,,,,,,,,,,,,,,,,,,,,,,,,,,,,,,,,,,,,,,,,,,,,,,,,,,,,,,,,,,,,,,,,,,,,,,,,,,,,,,,,,,,,,,,,,,,,,,,,,,
,,,,,,6113dc7ee718f73116fcdc8a,62c538b40f4e9eb445dab9c7,2022-07-06_09h44.48.400,Colour_Asymmetry_Pilot,2022.1.3,Win32,60.2373351,62c50e9c1127f2cd403a315f,0,139,139,143,1,fourthree,,,,,,,,,,,,,,,,,,,,,,,,,,,,,,,,,,,,,,,,,,,,,,,,,,,,,,,,,,,,,,,,,,,,,,,,,,,,,,,,,,,,,,,,,,,,,,,,,,,,,,,,,,,,,,,,,,,,,,,,,,,,,,,,,,,,,,,,,,,,,,,,,,,,,,,,,,,,,
,,,,,,6113dc7ee718f73116fcdc8a,62c538b40f4e9eb445dab9c7,2022-07-06_09h44.48.400,Colour_Asymmetry_Pilot,2022.1.3,Win32,60.2373351,62c50e9c1127f2cd403a315f,0,140,140,24,1,onetwo,,,,,,,,,,,,,,,,,,,,,,,,,,,,,,,,,,,,,,,,,,,,,,,,,,,,,,,,,,,,,,,,,,,,,,,,,,,,,,,,,,,,,,,,,,,,,,,,,,,,,,,,,,,,,,,,,,,,,,,,,,,,,,,,,,,,,,,,,,,,,,,,,,,,,,,,,,,,,
,,,,,,6113dc7ee718f73116fcdc8a,62c538b40f4e9eb445dab9c7,2022-07-06_09h44.48.400,Colour_Asymmetry_Pilot,2022.1.3,Win32,60.2373351,62c50e9c1127f2cd403a315f,0,141,141,49,1,onethree,,,,,,,,,,,,,,,,,,,,,,,,,,,,,,,,,,,,,,,,,,,,,,,,,,,,,,,,,,,,,,,,,,,,,,,,,,,,,,,,,,,,,,,,,,,,,,,,,,,,,,,,,,,,,,,,,,,,,,,,,,,,,,,,,,,,,,,,,,,,,,,,,,,,,,,,,,,,,
,,,,,,6113dc7ee718f73116fcdc8a,62c538b40f4e9eb445dab9c7,2022-07-06_09h44.48.400,Colour_Asymmetry_Pilot,2022.1.3,Win32,60.2373351,62c50e9c1127f2cd403a315f,0,142,142,93,1,threefour,,,,,,,,,,,,,,,,,,,,,,,,,,,,,,,,,,,,,,,,,,,,,,,,,,,,,,,,,,,,,,,,,,,,,,,,,,,,,,,,,,,,,,,,,,,,,,,,,,,,,,,,,,,,,,,,,,,,,,,,,,,,,,,,,,,,,,,,,,,,,,,,,,,,,,,,,,,,,
,,,,,,6113dc7ee718f73116fcdc8a,62c538b40f4e9eb445dab9c7,2022-07-06_09h44.48.400,Colour_Asymmetry_Pilot,2022.1.3,Win32,60.2373351,62c50e9c1127f2cd403a315f,0,143,143,82,1,twoone,,,,,,,,,,,,,,,,,,,,,,,,,,,,,,,,,,,,,,,,,,,,,,,,,,,,,,,,,,,,,,,,,,,,,,,,,,,,,,,,,,,,,,,,,,,,,,,,,,,,,,,,,,,,,,,,,,,,,,,,,,,,,,,,,,,,,,,,,,,,,,,,,,,,,,,,,,,,,
,,,,,,6113dc7ee718f73116fcdc8a,62c538b40f4e9eb445dab9c7,2022-07-06_09h44.48.400,Colour_Asymmetry_Pilot,2022.1.3,Win32,60.2373351,62c50e9c1127f2cd403a315f,0,144,144,29,1,threefour,,,,,,,,,,,,,,,,,,,,,,,,,,,,,,,,,,,,,,,,,,,,,,,,,,,,,,,,,,,,,,,,,,,,,,,,,,,,,,,,,,,,,,,,,,,,,,,,,,,,,,,,,,,,,,,,,,,,,,,,,,,,,,,,,,,,,,,,,,,,,,,,,,,,,,,,,,,,,
,,,,,,6113dc7ee718f73116fcdc8a,62c538b40f4e9eb445dab9c7,2022-07-06_09h44.48.400,Colour_Asymmetry_Pilot,2022.1.3,Win32,60.2373351,62c50e9c1127f2cd403a315f,0,145,145,148,1,threeone,,,,,,,,,,,,,,,,,,,,,,,,,,,,,,,,,,,,,,,,,,,,,,,,,,,,,,,,,,,,,,,,,,,,,,,,,,,,,,,,,,,,,,,,,,,,,,,,,,,,,,,,,,,,,,,,,,,,,,,,,,,,,,,,,,,,,,,,,,,,,,,,,,,,,,,,,,,,,
,,,,,,6113dc7ee718f73116fcdc8a,62c538b40f4e9eb445dab9c7,2022-07-06_09h44.48.400,Colour_Asymmetry_Pilot,2022.1.3,Win32,60.2373351,62c50e9c1127f2cd403a315f,0,146,146,23,1,fourthree,,,,,,,,,,,,,,,,,,,,,,,,,,,,,,,,,,,,,,,,,,,,,,,,,,,,,,,,,,,,,,,,,,,,,,,,,,,,,,,,,,,,,,,,,,,,,,,,,,,,,,,,,,,,,,,,,,,,,,,,,,,,,,,,,,,,,,,,,,,,,,,,,,,,,,,,,,,,,
,,,,,,6113dc7ee718f73116fcdc8a,62c538b40f4e9eb445dab9c7,2022-07-06_09h44.48.400,Colour_Asymmetry_Pilot,2022.1.3,Win32,60.2373351,62c50e9c1127f2cd403a315f,0,147,147,117,1,threefour,,,,,,,,,,,,,,,,,,,,,,,,,,,,,,,,,,,,,,,,,,,,,,,,,,,,,,,,,,,,,,,,,,,,,,,,,,,,,,,,,,,,,,,,,,,,,,,,,,,,,,,,,,,,,,,,,,,,,,,,,,,,,,,,,,,,,,,,,,,,,,,,,,,,,,,,,,,,,
,,,,,,6113dc7ee718f73116fcdc8a,62c538b40f4e9eb445dab9c7,2022-07-06_09h44.48.400,Colour_Asymmetry_Pilot,2022.1.3,Win32,60.2373351,62c50e9c1127f2cd403a315f,0,148,148,89,1,onethree,,,,,,,,,,,,,,,,,,,,,,,,,,,,,,,,,,,,,,,,,,,,,,,,,,,,,,,,,,,,,,,,,,,,,,,,,,,,,,,,,,,,,,,,,,,,,,,,,,,,,,,,,,,,,,,,,,,,,,,,,,,,,,,,,,,,,,,,,,,,,,,,,,,,,,,,,,,,,
,,,,,,6113dc7ee718f73116fcdc8a,62c538b40f4e9eb445dab9c7,2022-07-06_09h44.48.400,Colour_Asymmetry_Pilot,2022.1.3,Win32,60.2373351,62c50e9c1127f2cd403a315f,0,149,149,51,1,twofour,,,,,,,,,,,,,,,,,,,,,,,,,,,,,,,,,,,,,,,,,,,,,,,,,,,,,,,,,,,,,,,,,,,,,,,,,,,,,,,,,,,,,,,,,,,,,,,,,,,,,,,,,,,,,,,,,,,,,,,,,,,,,,,,,,,,,,,,,,,,,,,,,,,,,,,,,,,,,
,,,,,,6113dc7ee718f73116fcdc8a,62c538b40f4e9eb445dab9c7,2022-07-06_09h44.48.400,Colour_Asymmetry_Pilot,2022.1.3,Win32,60.2373351,62c50e9c1127f2cd403a315f,0,150,150,115,1,twofour,,,,,,,,,,,,,,,,,,,,,,,,,,,,,,,,,,,,,,,,,,,,,,,,,,,,,,,,,,,,,,,,,,,,,,,,,,,,,,,,,,,,,,,,,,,,,,,,,,,,,,,,,,,,,,,,,,,,,,,,,,,,,,,,,,,,,,,,,,,,,,,,,,,,,,,,,,,,,
,,,,,,6113dc7ee718f73116fcdc8a,62c538b40f4e9eb445dab9c7,2022-07-06_09h44.48.400,Colour_Asymmetry_Pilot,2022.1.3,Win32,60.2373351,62c50e9c1127f2cd403a315f,0,151,151,28,1,threeone,,,,,,,,,,,,,,,,,,,,,,,,,,,,,,,,,,,,,,,,,,,,,,,,,,,,,,,,,,,,,,,,,,,,,,,,,,,,,,,,,,,,,,,,,,,,,,,,,,,,,,,,,,,,,,,,,,,,,,,,,,,,,,,,,,,,,,,,,,,,,,,,,,,,,,,,,,,,,
,,,,,,6113dc7ee718f73116fcdc8a,62c538b40f4e9eb445dab9c7,2022-07-06_09h44.48.400,Colour_Asymmetry_Pilot,2022.1.3,Win32,60.2373351,62c50e9c1127f2cd403a315f,0,152,152,120,1,onetwo,,,,,,,,,,,,,,,,,,,,,,,,,,,,,,,,,,,,,,,,,,,,,,,,,,,,,,,,,,,,,,,,,,,,,,,,,,,,,,,,,,,,,,,,,,,,,,,,,,,,,,,,,,,,,,,,,,,,,,,,,,,,,,,,,,,,,,,,,,,,,,,,,,,,,,,,,,,,,
,,,,,,6113dc7ee718f73116fcdc8a,62c538b40f4e9eb445dab9c7,2022-07-06_09h44.48.400,Colour_Asymmetry_Pilot,2022.1.3,Win32,60.2373351,62c50e9c1127f2cd403a315f,0,153,153,137,1,onethree,,,,,,,,,,,,,,,,,,,,,,,,,,,,,,,,,,,,,,,,,,,,,,,,,,,,,,,,,,,,,,,,,,,,,,,,,,,,,,,,,,,,,,,,,,,,,,,,,,,,,,,,,,,,,,,,,,,,,,,,,,,,,,,,,,,,,,,,,,,,,,,,,,,,,,,,,,,,,
,,,,,,6113dc7ee718f73116fcdc8a,62c538b40f4e9eb445dab9c7,2022-07-06_09h44.48.400,Colour_Asymmetry_Pilot,2022.1.3,Win32,60.2373351,62c50e9c1127f2cd403a315f,0,154,154,113,1,onethree,,,,,,,,,,,,,,,,,,,,,,,,,,,,,,,,,,,,,,,,,,,,,,,,,,,,,,,,,,,,,,,,,,,,,,,,,,,,,,,,,,,,,,,,,,,,,,,,,,,,,,,,,,,,,,,,,,,,,,,,,,,,,,,,,,,,,,,,,,,,,,,,,,,,,,,,,,,,,
,,,,,,6113dc7ee718f73116fcdc8a,62c538b40f4e9eb445dab9c7,2022-07-06_09h44.48.400,Colour_Asymmetry_Pilot,2022.1.3,Win32,60.2373351,62c50e9c1127f2cd403a315f,0,155,155,126,1,fourtwo,,,,,,,,,,,,,,,,,,,,,,,,,,,,,,,,,,,,,,,,,,,,,,,,,,,,,,,,,,,,,,,,,,,,,,,,,,,,,,,,,,,,,,,,,,,,,,,,,,,,,,,,,,,,,,,,,,,,,,,,,,,,,,,,,,,,,,,,,,,,,,,,,,,,,,,,,,,,,
,,,,,,6113dc7ee718f73116fcdc8a,62c538b40f4e9eb445dab9c7,2022-07-06_09h44.48.400,Colour_Asymmetry_Pilot,2022.1.3,Win32,60.2373351,62c50e9c1127f2cd403a315f,0,156,156,101,1,threefour,,,,,,,,,,,,,,,,,,,,,,,,,,,,,,,,,,,,,,,,,,,,,,,,,,,,,,,,,,,,,,,,,,,,,,,,,,,,,,,,,,,,,,,,,,,,,,,,,,,,,,,,,,,,,,,,,,,,,,,,,,,,,,,,,,,,,,,,,,,,,,,,,,,,,,,,,,,,,
,,,,,,6113dc7ee718f73116fcdc8a,62c538b40f4e9eb445dab9c7,2022-07-06_09h44.48.400,Colour_Asymmetry_Pilot,2022.1.3,Win32,60.2373351,62c50e9c1127f2cd403a315f,0,157,157,84,1,threeone,,,,,,,,,,,,,,,,,,,,,,,,,,,,,,,,,,,,,,,,,,,,,,,,,,,,,,,,,,,,,,,,,,,,,,,,,,,,,,,,,,,,,,,,,,,,,,,,,,,,,,,,,,,,,,,,,,,,,,,,,,,,,,,,,,,,,,,,,,,,,,,,,,,,,,,,,,,,,
,,,,,,6113dc7ee718f73116fcdc8a,62c538b40f4e9eb445dab9c7,2022-07-06_09h44.48.400,Colour_Asymmetry_Pilot,2022.1.3,Win32,60.2373351,62c50e9c1127f2cd403a315f,0,158,158,87,1,fourthree,,,,,,,,,,,,,,,,,,,,,,,,,,,,,,,,,,,,,,,,,,,,,,,,,,,,,,,,,,,,,,,,,,,,,,,,,,,,,,,,,,,,,,,,,,,,,,,,,,,,,,,,,,,,,,,,,,,,,,,,,,,,,,,,,,,,,,,,,,,,,,,,,,,,,,,,,,,,,
,,,,,,6113dc7ee718f73116fcdc8a,62c538b40f4e9eb445dab9c7,2022-07-06_09h44.48.400,Colour_Asymmetry_Pilot,2022.1.3,Win32,60.2373351,62c50e9c1127f2cd403a315f,0,159,159,35,1,twofour,,,,,,,,,,,,,,,,,,,,,,,,,,,,,,,,,,,,,,,,,,,,,,,,,,,,,,,,,,,,,,,,,,,,,,,,,,,,,,,,,,,,,,,,,,,,,,,,,,,,,,,,,,,,,,,,,,,,,,,,,,,,,,,,,,,,,,,,,,,,,,,,,,,,,,,,,,,,,
,,,,,,6113dc7ee718f73116fcdc8a,62c538b40f4e9eb445dab9c7,2022-07-06_09h44.48.400,Colour_Asymmetry_Pilot,2022.1.3,Win32,60.2373351,62c50e9c1127f2cd403a315f,0,160,160,130,1,twoone,,,,,,,,,,,,,,,,,,,,,,,,,,,,,,,,,,,,,,,,,,,,,,,,,,,,,,,,,,,,,,,,,,,,,,,,,,,,,,,,,,,,,,,,,,,,,,,,,,,,,,,,,,,,,,,,,,,,,,,,,,,,,,,,,,,,,,,,,,,,,,,,,,,,,,,,,,,,,
,,,,,,6113dc7ee718f73116fcdc8a,62c538b40f4e9eb445dab9c7,2022-07-06_09h44.48.400,Colour_Asymmetry_Pilot,2022.1.3,Win32,60.2373351,62c50e9c1127f2cd403a315f,0,161,161,26,1,twoone,,,,,,,,,,,,,,,,,,,,,,,,,,,,,,,,,,,,,,,,,,,,,,,,,,,,,,,,,,,,,,,,,,,,,,,,,,,,,,,,,,,,,,,,,,,,,,,,,,,,,,,,,,,,,,,,,,,,,,,,,,,,,,,,,,,,,,,,,,,,,,,,,,,,,,,,,,,,,
,,,,,,6113dc7ee718f73116fcdc8a,62c538b40f4e9eb445dab9c7,2022-07-06_09h44.48.400,Colour_Asymmetry_Pilot,2022.1.3,Win32,60.2373351,62c50e9c1127f2cd403a315f,,,,,,,space,2.3867,space,87.7595,space,236.0526,space,15.9494,space,4.2021,space,8.7277,"[0.6625999999999999,0.4980000000000002,-0.357]",twoone,"[-0.5452,-0.608,0.2470000000000001]",4,2.1396,40,89.6000061,1,0,0,response1disk_5,-0.799987793,-2.399993896,1,0,0,rectangle_8,-0.799987793,-2.399993896,1,0,0,1,-0.799987793,-2.399993896,1,0,0,0,0,0,0,1,,,,,,,,,,,,,,,,,,,,,,,,,,,,,,,,,,,,,,,,,,,,,,,,,,,,,,,,,,,,,,,,,,,,,,,,,,,,,,,,,,,,,,,,,,,,,,,,,,,,,,,,,,,,,,,,
,,,,,,6113dc7ee718f73116fcdc8a,62c538b40f4e9eb445dab9c7,2022-07-06_09h44.48.400,Colour_Asymmetry_Pilot,2022.1.3,Win32,60.2373351,62c50e9c1127f2cd403a315f,,,,,,,,,,,,,,,,,,,"[-0.2942,-0.24719999999999998,-0.357]",fourthree,"[-0.4276,0.0038000000000000256,-0.3256]",4,1.4836,37.60003662,95.19998169,1,0,0,response1disk_5,-1.599975586,-6.399993896,1,0,0,rectangle_8,-1.599975586,-6.399993896,1,0,0,1,-1.599975586,-6.399993896,1,0,0,1,0,1,0,1,,,,,,,,,,,,,,,,,,,,,,,,,,,,,,,,,,,,,,,,,,,,,,,,,,,,,,,,,,,,,,,,,,,,,,,,,,,,,,,,,,,,,,,,,,,,,,,,,,,,,,,,,,,,,,,,
,,,,,,6113dc7ee718f73116fcdc8a,62c538b40f4e9eb445dab9c7,2022-07-06_09h44.48.400,Colour_Asymmetry_Pilot,2022.1.3,Win32,60.2373351,62c50e9c1127f2cd403a315f,,,,,,,,,,,,,,,,,,,"[-0.8118,-0.8198,-0.5452]",fourtwo,"[-0.07459999999999989,0.12139999999999995,-0.9922]",-4,1.7339,-42.39996338,85.6000061,1,0,0,response7disk_5,6.400024414,-1.600006104,1,0,0,rectangle_8,6.400024414,-1.600006104,1,0,0,1,6.400024414,-1.600006104,1,0,0,2,0,2,0,1,,,,,,,,,,,,,,,,,,,,,,,,,,,,,,,,,,,,,,,,,,,,,,,,,,,,,,,,,,,,,,,,,,,,,,,,,,,,,,,,,,,,,,,,,,,,,,,,,,,,,,,,,,,,,,,,
,,,,,,6113dc7ee718f73116fcdc8a,62c538b40f4e9eb445dab9c7,2022-07-06_09h44.48.400,Colour_Asymmetry_Pilot,2022.1.3,Win32,60.2373351,62c50e9c1127f2cd403a315f,,,,,,,,,,,,,,,,,,,"[-0.48240000000000005,0.3175999999999999,0.2156]",threefour,"[-0.34920000000000007,-0.702,-0.5216]",-4,1.2,-34.39996338,87.19998169,1,0,0,response7disk_5,-0.799987793,-0.800018311,1,0,0,rectangle_8,-0.799987793,-0.800018311,1,0,0,1,-0.799987793,-0.800018311,1,0,0,3,0,3,0,1,,,,,,,,,,,,,,,,,,,,,,,,,,,,,,,,,,,,,,,,,,,,,,,,,,,,,,,,,,,,,,,,,,,,,,,,,,,,,,,,,,,,,,,,,,,,,,,,,,,,,,,,,,,,,,,,
,,,,,,6113dc7ee718f73116fcdc8a,62c538b40f4e9eb445dab9c7,2022-07-06_09h44.48.400,Colour_Asymmetry_Pilot,2022.1.3,Win32,60.2373351,62c50e9c1127f2cd403a315f,,,,,,,,,,,,,,,,,,,"[0.05879999999999996,0.2784,0.5841999999999998]",onetwo,"[-0.8118,-0.8198,-0.5452]",4,1.2669,36,78.3999939,1,0,0,response1disk_5,3.200012207,-3.200012207,1,0,0,rectangle_8,3.200012207,-3.200012207,1,0,0,1,3.200012207,-3.200012207,1,0,0,4,0,4,0,1,,,,,,,,,,,,,,,,,,,,,,,,,,,,,,,,,,,,,,,,,,,,,,,,,,,,,,,,,,,,,,,,,,,,,,,,,,,,,,,,,,,,,,,,,,,,,,,,,,,,,,,,,,,,,,,,
,,,,,,6113dc7ee718f73116fcdc8a,62c538b40f4e9eb445dab9c7,2022-07-06_09h44.48.400,Colour_Asymmetry_Pilot,2022.1.3,Win32,60.2373351,62c50e9c1127f2cd403a315f,,,,,,,,,,,,,,,,,,,"[0.40379999999999994,0.09000000000000008,0.44300000000000006]",fourtwo,"[0.19199999999999995,0.18419999999999992,0.5136000000000001]",4,1.1008,44.79998779,73.6000061,1,0,0,response1disk_5,2.400024414,-6.399993896,1,0,0,rectangle_8,-44.79998779,-99.20001221,1,0,0,1,0,-3.200012207,1,0,0,5,0,5,0,1,response5disk_7,3,rectangle_4,,,,,,,,,,,,,,,,,,,,,,,,,,,,,,,,,,,,,,,,,,,,,,,,,,,,,,,,,,,,,,,,,,,,,,,,,,,,,,,,,,,,,,,,,,,,,,,,,,,,,,,,,,,,,
,,,,,,6113dc7ee718f73116fcdc8a,62c538b40f4e9eb445dab9c7,2022-07-06_09h44.48.400,Colour_Asymmetry_Pilot,2022.1.3,Win32,60.2373351,62c50e9c1127f2cd403a315f,,,,,,,,,,,,,,,,,,,"[-0.2942,-0.7648,-0.7492000000000001]",fourtwo,"[-0.4982,-0.2942,-0.0354000000000001]",-4,1.3162,-30.39996338,96,1,0,0,response7disk_5,-4,2.399993896,1,0,0,rectangle_8,-4,2.399993896,1,0,0,1,-4,2.399993896,1,0,0,6,0,6,0,1,,,,,,,,,,,,,,,,,,,,,,,,,,,,,,,,,,,,,,,,,,,,,,,,,,,,,,,,,,,,,,,,,,,,,,,,,,,,,,,,,,,,,,,,,,,,,,,,,,,,,,,,,,,,,,,,
,,,,,,6113dc7ee718f73116fcdc8a,62c538b40f4e9eb445dab9c7,2022-07-06_09h44.48.400,Colour_Asymmetry_Pilot,2022.1.3,Win32,60.2373351,62c50e9c1127f2cd403a315f,,,,,,,,,,,,,,,,,,,,fourtwo,,4,1.7346,,,,,,,,,,,,,,,,,,,,,,,,,,,,,,,,space,9.6243,"[0.2862,0.7802,0.3568]","[-0.0040000000000000036,0.02739999999999987,-0.08239999999999992]",46.40002441,99.19998169,1,0,0,response1disk,4.799987793,4,1,0,0,rectangle,4.799987793,4,1,0,0,,3,0.0041,0,4.799987793,4,1,0,0,0,0,0,84,1,3,second,,,,,,,,,,,,,,,,,,,,,,,,,,,,,,,,,,,,,,,,,,,,,,,,,,,,,,,,,,,,,,,,,,,,,,,,
,,,,,,6113dc7ee718f73116fcdc8a,62c538b40f4e9eb445dab9c7,2022-07-06_09h44.48.400,Colour_Asymmetry_Pilot,2022.1.3,Win32,60.2373351,62c50e9c1127f2cd403a315f,,,,,,,,,,,,,,,,,,,,onethree,,4,1.3,,,,,,,,,,,,,,,,,,,,,,,,,,,,,,,,,,"[0.22340000000000004,-0.9296,-0.7884]","[-0.050999999999999934,-0.6706000000000001,-0.804]",28.79998779,90.3999939,1,0,0,response1disk,-9.599975586,4,1,0,0,rectangle,-9.599975586,4,1,0,0,,3,0.0006,0,-9.599975586,4,1,0,0,0,1,1,74,1,74,first,,,,,,,,,,,,,,,,,,,,,,,,,,,,,,,,,,,,,,,,,,,,,,,,,,,,,,,,,,,,,,,,,,,,,,,,
,,,,,,6113dc7ee718f73116fcdc8a,62c538b40f4e9eb445dab9c7,2022-07-06_09h44.48.400,Colour_Asymmetry_Pilot,2022.1.3,Win32,60.2373351,62c50e9c1127f2cd403a315f,,,,,,,,,,,,,,,,,,,,fourthree,,-4,0.5671,,,,,,,,,,,,,,,,,,,,,,,,,,,,,,,,,,"[-0.48240000000000005,0.3175999999999999,0.2156]","[0.19199999999999995,0.18419999999999992,0.5136000000000001]",-42.39996338,68.79998779,1,0,0,response7disk,9.600036621,14.3999939,1,0,0,rectangle,9.600036621,14.3999939,1,0,0,,3,0.0004,0,9.600036621,14.3999939,1,0,0,0,2,2,8,1,8,first,,,,,,,,,,,,,,,,,,,,,,,,,,,,,,,,,,,,,,,,,,,,,,,,,,,,,,,,,,,,,,,,,,,,,,,,
,,,,,,6113dc7ee718f73116fcdc8a,62c538b40f4e9eb445dab9c7,2022-07-06_09h44.48.400,Colour_Asymmetry_Pilot,2022.1.3,Win32,60.2373351,62c50e9c1127f2cd403a315f,,,,,,,,,,,,,,,,,,,,twoone,,4,0.5667,,,,,,,,,,,,,,,,,,,,,,,,,,,,,,,,,,"[-0.9296,-0.12959999999999994,-0.043199999999999905]","[-0.5688,-0.08239999999999992,-0.1844]",28.79998779,82.3999939,1,0,0,response1disk,12,-4,1,0,0,rectangle,12,-4,1,0,0,,1,0.0024,0,12,-4,1,0,0,0,3,3,145,1,64,second,,,,,,,,,,,,,,,,,,,,,,,,,,,,,,,,,,,,,,,,,,,,,,,,,,,,,,,,,,,,,,,,,,,,,,,,
,,,,,,6113dc7ee718f73116fcdc8a,62c538b40f4e9eb445dab9c7,2022-07-06_09h44.48.400,Colour_Asymmetry_Pilot,2022.1.3,Win32,60.2373351,62c50e9c1127f2cd403a315f,,,,,,,,,,,,,,,,,,,,twoone,,-4,0.4662,,,,,,,,,,,,,,,,,,,,,,,,,,,,,,,,,,"[0.3802000000000001,0.19199999999999995,-0.6394]","[-0.10599999999999998,-0.10599999999999998,0.5841999999999998]",-44.79998779,74.3999939,1,0,0,response7disk,6.400024414,12,1,0,0,rectangle,6.400024414,12,1,0,0,,1,0.0003,0,6.400024414,12,1,0,0,0,4,4,152,1,71,second,,,,,,,,,,,,,,,,,,,,,,,,,,,,,,,,,,,,,,,,,,,,,,,,,,,,,,,,,,,,,,,,,,,,,,,,
,,,,,,6113dc7ee718f73116fcdc8a,62c538b40f4e9eb445dab9c7,2022-07-06_09h44.48.400,Colour_Asymmetry_Pilot,2022.1.3,Win32,60.2373351,62c50e9c1127f2cd403a315f,,,,,,,,,,,,,,,,,,,,twoone,,-4,0.4502,,,,,,,,,,,,,,,,,,,,,,,,,,,,,,,,,,"[-0.5922000000000001,-0.7492000000000001,-0.5296000000000001]","[0.5449999999999999,-0.31000000000000005,-0.0354000000000001]",-36.79998779,49.6000061,1,0,0,response7disk,6.400024414,8,1,0,0,rectangle,6.400024414,8,1,0,0,,2,0.0025,0,6.400024414,8,1,0,0,0,5,5,106,1,25,second,,,,,,,,,,,,,,,,,,,,,,,,,,,,,,,,,,,,,,,,,,,,,,,,,,,,,,,,,,,,,,,,,,,,,,,,
,,,,,,6113dc7ee718f73116fcdc8a,62c538b40f4e9eb445dab9c7,2022-07-06_09h44.48.400,Colour_Asymmetry_Pilot,2022.1.3,Win32,60.2373351,62c50e9c1127f2cd403a315f,,,,,,,,,,,,,,,,,,,,fourtwo,,-4,0.4827,,,,,,,,,,,,,,,,,,,,,,,,,,,,,,,,,,"[-0.17659999999999998,0.3253999999999999,0.19999999999999996]","[-0.38039999999999996,-0.4276,-0.1452]",-28.79998779,73.6000061,1,0,0,response7disk,-0.799987793,6.399993896,1,0,0,rectangle,-0.799987793,6.399993896,1,0,0,,1,0.0022,0,-0.799987793,6.399993896,1,0,0,0,6,6,37,1,37,first,,,,,,,,,,,,,,,,,,,,,,,,,,,,,,,,,,,,,,,,,,,,,,,,,,,,,,,,,,,,,,,,,,,,,,,,
,,,,,,6113dc7ee718f73116fcdc8a,62c538b40f4e9eb445dab9c7,2022-07-06_09h44.48.400,Colour_Asymmetry_Pilot,2022.1.3,Win32,60.2373351,62c50e9c1127f2cd403a315f,,,,,,,,,,,,,,,,,,,,fourthree,,-4,0.3831,,,,,,,,,,,,,,,,,,,,,,,,,,,,,,,,,,"[0.0351999999999999,0.41159999999999997,0.0038000000000000256]","[0.7802,-0.23140000000000005,-0.20799999999999996]",-30.39996338,76.79998779,1,0,0,response7disk,5.600036621,3.199981689,1,0,0,rectangle,5.600036621,3.199981689,1,0,0,,2,0.0025,0,5.600036621,3.199981689,1,0,0,0,7,7,49,1,49,first,,,,,,,,,,,,,,,,,,,,,,,,,,,,,,,,,,,,,,,,,,,,,,,,,,,,,,,,,,,,,,,,,,,,,,,,
,,,,,,6113dc7ee718f73116fcdc8a,62c538b40f4e9eb445dab9c7,2022-07-06_09h44.48.400,Colour_Asymmetry_Pilot,2022.1.3,Win32,60.2373351,62c50e9c1127f2cd403a315f,,,,,,,,,,,,,,,,,,,,twoone,,-4,0.2997,,,,,,,,,,,,,,,,,,,,,,,,,,,,,,,,,,"[0.9842,0.7409999999999999,-0.6628000000000001]","[-0.38039999999999996,-0.4276,-0.1452]",-40,73.6000061,1,0,0,response7disk,-8,12,1,0,0,rectangle,-8,12,1,0,0,,1,0.0013,0,-8,12,1,0,0,0,8,8,119,1,38,second,,,,,,,,,,,,,,,,,,,,,,,,,,,,,,,,,,,,,,,,,,,,,,,,,,,,,,,,,,,,,,,,,,,,,,,,
,,,,,,6113dc7ee718f73116fcdc8a,62c538b40f4e9eb445dab9c7,2022-07-06_09h44.48.400,Colour_Asymmetry_Pilot,2022.1.3,Win32,60.2373351,62c50e9c1127f2cd403a315f,,,,,,,,,,,,,,,,,,,,threeone,,-4,0.2829,,,,,,,,,,,,,,,,,,,,,,,,,,,,,,,,,,"[0.6625999999999999,0.4980000000000002,-0.357]","[-0.6706000000000001,-0.6157999999999999,-0.6786]",-36.79998779,73.6000061,1,0,0,response7disk,4.799987793,16,1,0,0,rectangle,4.799987793,16,1,0,0,,2,0.0028,0,4.799987793,16,1,0,0,0,9,9,52,1,52,first,,,,,,,,,,,,,,,,,,,,,,,,,,,,,,,,,,,,,,,,,,,,,,,,,,,,,,,,,,,,,,,,,,,,,,,,
,,,,,,6113dc7ee718f73116fcdc8a,62c538b40f4e9eb445dab9c7,2022-07-06_09h44.48.400,Colour_Asymmetry_Pilot,2022.1.3,Win32,60.2373351,62c50e9c1127f2cd403a315f,,,,,,,,,,,,,,,,,,,,threefour,,-4,0.7332,,,,,,,,,,,,,,,,,,,,,,,,,,,,,,,,,,"[-0.17659999999999998,-0.2864,-0.8354]","[0.23920000000000008,0.2704,0.16060000000000008]",-49.59997559,72,1,0,0,response7disk,4.799987793,-8,1,0,0,rectangle,4.799987793,-8,1,0,0,,3,0.0025,0,4.799987793,-8,1,0,0,0,10,10,14,1,14,first,,,,,,,,,,,,,,,,,,,,,,,,,,,,,,,,,,,,,,,,,,,,,,,,,,,,,,,,,,,,,,,,,,,,,,,,
,,,,,,6113dc7ee718f73116fcdc8a,62c538b40f4e9eb445dab9c7,2022-07-06_09h44.48.400,Colour_Asymmetry_Pilot,2022.1.3,Win32,60.2373351,62c50e9c1127f2cd403a315f,,,,,,,,,,,,,,,,,,,,twofour,,-4,0.3331,,,,,,,,,,,,,,,,,,,,,,,,,,,,,,,,,,"[-0.6,0.16860000000000008,0.44300000000000006]","[0.9686000000000001,0.3802000000000001,0.19999999999999996]",-32.79998779,60.79998779,1,0,0,response7disk,-0.799987793,9.600006104,1,0,0,rectangle,-0.799987793,9.600006104,1,0,0,,3,1E-04,0,-0.799987793,9.600006104,1,0,0,0,11,11,100,1,19,second,,,,,,,,,,,,,,,,,,,,,,,,,,,,,,,,,,,,,,,,,,,,,,,,,,,,,,,,,,,,,,,,,,,,,,,,
,,,,,,6113dc7ee718f73116fcdc8a,62c538b40f4e9eb445dab9c7,2022-07-06_09h44.48.400,Colour_Asymmetry_Pilot,2022.1.3,Win32,60.2373351,62c50e9c1127f2cd403a315f,,,,,,,,,,,,,,,,,,,,twoone,,-4,0.2836,,,,,,,,,,,,,,,,,,,,,,,,,,,,,,,,,,"[0.9372,0.9450000000000001,0.8980000000000001]","[0.9686000000000001,0.3802000000000001,0.19999999999999996]",-35.20001221,75.19998169,1,0,0,response7disk,11.20001221,2.399993896,1,0,0,rectangle,11.20001221,2.399993896,1,0,0,,1,0.0028,0,11.20001221,2.399993896,1,0,0,0,12,12,138,1,57,second,,,,,,,,,,,,,,,,,,,,,,,,,,,,,,,,,,,,,,,,,,,,,,,,,,,,,,,,,,,,,,,,,,,,,,,,
,,,,,,6113dc7ee718f73116fcdc8a,62c538b40f4e9eb445dab9c7,2022-07-06_09h44.48.400,Colour_Asymmetry_Pilot,2022.1.3,Win32,60.2373351,62c50e9c1127f2cd403a315f,,,,,,,,,,,,,,,,,,,,twofour,,-4,0.3161,,,,,,,,,,,,,,,,,,,,,,,,,,,,,,,,,,"[0.3568,-0.20799999999999996,-0.9844]","[0.11359999999999992,0.6312,0.5213999999999999]",-28.79998779,56.79998779,1,0,0,response7disk,-8.799987793,6.399993896,1,0,0,rectangle,-8.799987793,6.399993896,1,0,0,,2,0.0027,0,-8.799987793,6.399993896,1,0,0,0,13,13,9,1,9,first,,,,,,,,,,,,,,,,,,,,,,,,,,,,,,,,,,,,,,,,,,,,,,,,,,,,,,,,,,,,,,,,,,,,,,,,
,,,,,,6113dc7ee718f73116fcdc8a,62c538b40f4e9eb445dab9c7,2022-07-06_09h44.48.400,Colour_Asymmetry_Pilot,2022.1.3,Win32,60.2373351,62c50e9c1127f2cd403a315f,,,,,,,,,,,,,,,,,,,,threefour,,4,0.4833,,,,,,,,,,,,,,,,,,,,,,,,,,,,,,,,,,"[0.9213999999999998,0.6391999999999998,-0.9922]","[0.34099999999999997,0.12939999999999996,-0.9766]",31.20001221,60.79998779,1,0,0,response1disk,9.600036621,6.399993896,1,0,0,rectangle,9.600036621,6.399993896,1,0,0,,1,0.0027,0,9.600036621,6.399993896,1,0,0,0,14,14,78,1,78,first,,,,,,,,,,,,,,,,,,,,,,,,,,,,,,,,,,,,,,,,,,,,,,,,,,,,,,,,,,,,,,,,,,,,,,,,
,,,,,,6113dc7ee718f73116fcdc8a,62c538b40f4e9eb445dab9c7,2022-07-06_09h44.48.400,Colour_Asymmetry_Pilot,2022.1.3,Win32,60.2373351,62c50e9c1127f2cd403a315f,,,,,,,,,,,,,,,,,,,,fourthree,,-4,0.3336,,,,,,,,,,,,,,,,,,,,,,,,,,,,,,,,,,"[-0.9688,-0.38039999999999996,-0.41979999999999995]","[-0.4982,-0.2942,-0.0354000000000001]",-23.20001221,78.3999939,1,0,0,response7disk,-1.599975586,16,1,0,0,rectangle,-1.599975586,16,1,0,0,,3,0.0011,0,-1.599975586,16,1,0,0,0,15,15,127,1,46,second,,,,,,,,,,,,,,,,,,,,,,,,,,,,,,,,,,,,,,,,,,,,,,,,,,,,,,,,,,,,,,,,,,,,,,,,
