trials.thisRepN,trials.thisTrialN,trials.thisN,trials.thisIndex,trials.ran,Colourcodes,participant,session,date,expName,psychopyVersion,OS,frameRate,study_id,trials_4.thisRepN,trials_4.thisTrialN,trials_4.thisN,trials_4.thisIndex,trials_4.ran,StimulusPos,key_resp.keys,key_resp.rt,key_resp_2.keys,key_resp_2.rt,key_resp_15.keys,key_resp_15.rt,key_resp_17.keys,key_resp_17.rt,key_resp_9.keys,key_resp_9.rt,key_resp_10.keys,key_resp_10.rt,Circle1_col,Ecc,Circle2_col,similarity,response_time,mouse_5.x,mouse_5.y,mouse_5.leftButton,mouse_5.midButton,mouse_5.rightButton,mouse_5.clicked_name,mouse_10.x,mouse_10.y,mouse_10.leftButton,mouse_10.midButton,mouse_10.rightButton,mouse_10.clicked_name,mouse_7.x,mouse_7.y,mouse_7.leftButton,mouse_7.midButton,mouse_7.rightButton,catchnumberprac,mouse_6.x,mouse_6.y,mouse_6.leftButton,mouse_6.midButton,mouse_6.rightButton,duringprac.thisRepN,duringprac.thisTrialN,duringprac.thisN,duringprac.thisIndex,duringprac.ran,key_resp_22.keys,key_resp_22.rt,Circle1_colour,Circle2_colour,mouse.x,mouse.y,mouse.leftButton,mouse.midButton,mouse.rightButton,mouse.clicked_name,mouse_2.x,mouse_2.y,mouse_2.leftButton,mouse_2.midButton,mouse_2.rightButton,mouse_2.clicked_name,mouse_3.x,mouse_3.y,mouse_3.leftButton,mouse_3.midButton,mouse_3.rightButton,catchresponse,catchnumber,response_time_catch,Catch,mouse_11.x,mouse_11.y,mouse_11.leftButton,mouse_11.midButton,mouse_11.rightButton,trials_2.thisRepN,trials_2.thisTrialN,trials_2.thisN,trials_2.thisIndex,trials_2.ran,Colourpair,Temporder,mouse_3.clicked_name,mouse_11.clicked_name,trials_3.thisRepN,trials_3.thisTrialN,trials_3.thisN,trials_3.thisIndex,trials_3.ran,key_resp_instr_Ishi.keys,key_resp_instr_Ishi.rt,Ishi_trial_keyresp.keys,Ishi_textbox.text,Ishi_mouse.x,Ishi_mouse.y,Ishi_mouse.leftButton,Ishi_mouse.midButton,Ishi_mouse.rightButton,Ishi_mouse.clicked_name,Ishi_loop.thisRepN,Ishi_loop.thisTrialN,Ishi_loop.thisN,Ishi_loop.thisIndex,Ishi_loop.ran,imageaddress,textbox.text,mouse_4.x,mouse_4.y,mouse_4.leftButton,mouse_4.midButton,mouse_4.rightButton,mouse_4.clicked_name,textbox_2.text,mouse_8.x,mouse_8.y,mouse_8.leftButton,mouse_8.midButton,mouse_8.rightButton,mouse_8.clicked_name,textbox_3.text,mouse_9.x,mouse_9.y,mouse_9.leftButton,mouse_9.midButton,mouse_9.rightButton,mouse_9.clicked_name,textbox_4.text,mouse_12.x,mouse_12.y,mouse_12.leftButton,mouse_12.midButton,mouse_12.rightButton,mouse_12.clicked_name,textbox_5.text,mouse_13.x,mouse_13.y,mouse_13.leftButton,mouse_13.midButton,mouse_13.rightButton,mouse_13.clicked_name,textbox_6.text,mouse_14.x,mouse_14.y,mouse_14.leftButton,mouse_14.midButton,mouse_14.rightButton,textbox_7.text,mouse_15.x,mouse_15.y,mouse_15.leftButton,mouse_15.midButton,mouse_15.rightButton,mouse_15.clicked_name
0,0,0,7,1,,5bb511c6689fc5000149c703,62c5599c57f3a82b564ebbed,2022-07-06_05h00.05.664,Colour_Asymmetry_Pilot,2022.1.3,Win32,60.37189085,62c50e9c1127f2cd403a315f,,,,,,,,,,,,,,,,,,,,,,,,,,,,,,,,,,,,,,,,,,,,,,,,,,,,,,,,,,,,,,,,,,,,,,,,,,,,,,,,,,,,,,,,,,,,,,,,,,,,,,,,,,,,,,,,,,,,,,,,,,,,,,,,,,,,,,,,,,,,,,,,,,,,,,,,,,,,,,,
0,1,1,36,1,,5bb511c6689fc5000149c703,62c5599c57f3a82b564ebbed,2022-07-06_05h00.05.664,Colour_Asymmetry_Pilot,2022.1.3,Win32,60.37189085,62c50e9c1127f2cd403a315f,,,,,,,,,,,,,,,,,,,,,,,,,,,,,,,,,,,,,,,,,,,,,,,,,,,,,,,,,,,,,,,,,,,,,,,,,,,,,,,,,,,,,,,,,,,,,,,,,,,,,,,,,,,,,,,,,,,,,,,,,,,,,,,,,,,,,,,,,,,,,,,,,,,,,,,,,,,,,,,
0,2,2,76,1,,5bb511c6689fc5000149c703,62c5599c57f3a82b564ebbed,2022-07-06_05h00.05.664,Colour_Asymmetry_Pilot,2022.1.3,Win32,60.37189085,62c50e9c1127f2cd403a315f,,,,,,,,,,,,,,,,,,,,,,,,,,,,,,,,,,,,,,,,,,,,,,,,,,,,,,,,,,,,,,,,,,,,,,,,,,,,,,,,,,,,,,,,,,,,,,,,,,,,,,,,,,,,,,,,,,,,,,,,,,,,,,,,,,,,,,,,,,,,,,,,,,,,,,,,,,,,,,,
0,3,3,19,1,,5bb511c6689fc5000149c703,62c5599c57f3a82b564ebbed,2022-07-06_05h00.05.664,Colour_Asymmetry_Pilot,2022.1.3,Win32,60.37189085,62c50e9c1127f2cd403a315f,,,,,,,,,,,,,,,,,,,,,,,,,,,,,,,,,,,,,,,,,,,,,,,,,,,,,,,,,,,,,,,,,,,,,,,,,,,,,,,,,,,,,,,,,,,,,,,,,,,,,,,,,,,,,,,,,,,,,,,,,,,,,,,,,,,,,,,,,,,,,,,,,,,,,,,,,,,,,,,
0,4,4,77,1,,5bb511c6689fc5000149c703,62c5599c57f3a82b564ebbed,2022-07-06_05h00.05.664,Colour_Asymmetry_Pilot,2022.1.3,Win32,60.37189085,62c50e9c1127f2cd403a315f,,,,,,,,,,,,,,,,,,,,,,,,,,,,,,,,,,,,,,,,,,,,,,,,,,,,,,,,,,,,,,,,,,,,,,,,,,,,,,,,,,,,,,,,,,,,,,,,,,,,,,,,,,,,,,,,,,,,,,,,,,,,,,,,,,,,,,,,,,,,,,,,,,,,,,,,,,,,,,,
0,5,5,85,1,,5bb511c6689fc5000149c703,62c5599c57f3a82b564ebbed,2022-07-06_05h00.05.664,Colour_Asymmetry_Pilot,2022.1.3,Win32,60.37189085,62c50e9c1127f2cd403a315f,,,,,,,,,,,,,,,,,,,,,,,,,,,,,,,,,,,,,,,,,,,,,,,,,,,,,,,,,,,,,,,,,,,,,,,,,,,,,,,,,,,,,,,,,,,,,,,,,,,,,,,,,,,,,,,,,,,,,,,,,,,,,,,,,,,,,,,,,,,,,,,,,,,,,,,,,,,,,,,
0,6,6,20,1,,5bb511c6689fc5000149c703,62c5599c57f3a82b564ebbed,2022-07-06_05h00.05.664,Colour_Asymmetry_Pilot,2022.1.3,Win32,60.37189085,62c50e9c1127f2cd403a315f,,,,,,,,,,,,,,,,,,,,,,,,,,,,,,,,,,,,,,,,,,,,,,,,,,,,,,,,,,,,,,,,,,,,,,,,,,,,,,,,,,,,,,,,,,,,,,,,,,,,,,,,,,,,,,,,,,,,,,,,,,,,,,,,,,,,,,,,,,,,,,,,,,,,,,,,,,,,,,,
0,7,7,25,1,,5bb511c6689fc5000149c703,62c5599c57f3a82b564ebbed,2022-07-06_05h00.05.664,Colour_Asymmetry_Pilot,2022.1.3,Win32,60.37189085,62c50e9c1127f2cd403a315f,,,,,,,,,,,,,,,,,,,,,,,,,,,,,,,,,,,,,,,,,,,,,,,,,,,,,,,,,,,,,,,,,,,,,,,,,,,,,,,,,,,,,,,,,,,,,,,,,,,,,,,,,,,,,,,,,,,,,,,,,,,,,,,,,,,,,,,,,,,,,,,,,,,,,,,,,,,,,,,
0,8,8,47,1,,5bb511c6689fc5000149c703,62c5599c57f3a82b564ebbed,2022-07-06_05h00.05.664,Colour_Asymmetry_Pilot,2022.1.3,Win32,60.37189085,62c50e9c1127f2cd403a315f,,,,,,,,,,,,,,,,,,,,,,,,,,,,,,,,,,,,,,,,,,,,,,,,,,,,,,,,,,,,,,,,,,,,,,,,,,,,,,,,,,,,,,,,,,,,,,,,,,,,,,,,,,,,,,,,,,,,,,,,,,,,,,,,,,,,,,,,,,,,,,,,,,,,,,,,,,,,,,,
0,9,9,43,1,,5bb511c6689fc5000149c703,62c5599c57f3a82b564ebbed,2022-07-06_05h00.05.664,Colour_Asymmetry_Pilot,2022.1.3,Win32,60.37189085,62c50e9c1127f2cd403a315f,,,,,,,,,,,,,,,,,,,,,,,,,,,,,,,,,,,,,,,,,,,,,,,,,,,,,,,,,,,,,,,,,,,,,,,,,,,,,,,,,,,,,,,,,,,,,,,,,,,,,,,,,,,,,,,,,,,,,,,,,,,,,,,,,,,,,,,,,,,,,,,,,,,,,,,,,,,,,,,
0,10,10,54,1,,5bb511c6689fc5000149c703,62c5599c57f3a82b564ebbed,2022-07-06_05h00.05.664,Colour_Asymmetry_Pilot,2022.1.3,Win32,60.37189085,62c50e9c1127f2cd403a315f,,,,,,,,,,,,,,,,,,,,,,,,,,,,,,,,,,,,,,,,,,,,,,,,,,,,,,,,,,,,,,,,,,,,,,,,,,,,,,,,,,,,,,,,,,,,,,,,,,,,,,,,,,,,,,,,,,,,,,,,,,,,,,,,,,,,,,,,,,,,,,,,,,,,,,,,,,,,,,,
0,11,11,46,1,,5bb511c6689fc5000149c703,62c5599c57f3a82b564ebbed,2022-07-06_05h00.05.664,Colour_Asymmetry_Pilot,2022.1.3,Win32,60.37189085,62c50e9c1127f2cd403a315f,,,,,,,,,,,,,,,,,,,,,,,,,,,,,,,,,,,,,,,,,,,,,,,,,,,,,,,,,,,,,,,,,,,,,,,,,,,,,,,,,,,,,,,,,,,,,,,,,,,,,,,,,,,,,,,,,,,,,,,,,,,,,,,,,,,,,,,,,,,,,,,,,,,,,,,,,,,,,,,
0,12,12,57,1,,5bb511c6689fc5000149c703,62c5599c57f3a82b564ebbed,2022-07-06_05h00.05.664,Colour_Asymmetry_Pilot,2022.1.3,Win32,60.37189085,62c50e9c1127f2cd403a315f,,,,,,,,,,,,,,,,,,,,,,,,,,,,,,,,,,,,,,,,,,,,,,,,,,,,,,,,,,,,,,,,,,,,,,,,,,,,,,,,,,,,,,,,,,,,,,,,,,,,,,,,,,,,,,,,,,,,,,,,,,,,,,,,,,,,,,,,,,,,,,,,,,,,,,,,,,,,,,,
0,13,13,79,1,,5bb511c6689fc5000149c703,62c5599c57f3a82b564ebbed,2022-07-06_05h00.05.664,Colour_Asymmetry_Pilot,2022.1.3,Win32,60.37189085,62c50e9c1127f2cd403a315f,,,,,,,,,,,,,,,,,,,,,,,,,,,,,,,,,,,,,,,,,,,,,,,,,,,,,,,,,,,,,,,,,,,,,,,,,,,,,,,,,,,,,,,,,,,,,,,,,,,,,,,,,,,,,,,,,,,,,,,,,,,,,,,,,,,,,,,,,,,,,,,,,,,,,,,,,,,,,,,
0,14,14,53,1,,5bb511c6689fc5000149c703,62c5599c57f3a82b564ebbed,2022-07-06_05h00.05.664,Colour_Asymmetry_Pilot,2022.1.3,Win32,60.37189085,62c50e9c1127f2cd403a315f,,,,,,,,,,,,,,,,,,,,,,,,,,,,,,,,,,,,,,,,,,,,,,,,,,,,,,,,,,,,,,,,,,,,,,,,,,,,,,,,,,,,,,,,,,,,,,,,,,,,,,,,,,,,,,,,,,,,,,,,,,,,,,,,,,,,,,,,,,,,,,,,,,,,,,,,,,,,,,,
0,15,15,38,1,,5bb511c6689fc5000149c703,62c5599c57f3a82b564ebbed,2022-07-06_05h00.05.664,Colour_Asymmetry_Pilot,2022.1.3,Win32,60.37189085,62c50e9c1127f2cd403a315f,,,,,,,,,,,,,,,,,,,,,,,,,,,,,,,,,,,,,,,,,,,,,,,,,,,,,,,,,,,,,,,,,,,,,,,,,,,,,,,,,,,,,,,,,,,,,,,,,,,,,,,,,,,,,,,,,,,,,,,,,,,,,,,,,,,,,,,,,,,,,,,,,,,,,,,,,,,,,,,
0,16,16,24,1,,5bb511c6689fc5000149c703,62c5599c57f3a82b564ebbed,2022-07-06_05h00.05.664,Colour_Asymmetry_Pilot,2022.1.3,Win32,60.37189085,62c50e9c1127f2cd403a315f,,,,,,,,,,,,,,,,,,,,,,,,,,,,,,,,,,,,,,,,,,,,,,,,,,,,,,,,,,,,,,,,,,,,,,,,,,,,,,,,,,,,,,,,,,,,,,,,,,,,,,,,,,,,,,,,,,,,,,,,,,,,,,,,,,,,,,,,,,,,,,,,,,,,,,,,,,,,,,,
0,17,17,73,1,,5bb511c6689fc5000149c703,62c5599c57f3a82b564ebbed,2022-07-06_05h00.05.664,Colour_Asymmetry_Pilot,2022.1.3,Win32,60.37189085,62c50e9c1127f2cd403a315f,,,,,,,,,,,,,,,,,,,,,,,,,,,,,,,,,,,,,,,,,,,,,,,,,,,,,,,,,,,,,,,,,,,,,,,,,,,,,,,,,,,,,,,,,,,,,,,,,,,,,,,,,,,,,,,,,,,,,,,,,,,,,,,,,,,,,,,,,,,,,,,,,,,,,,,,,,,,,,,
0,18,18,59,1,,5bb511c6689fc5000149c703,62c5599c57f3a82b564ebbed,2022-07-06_05h00.05.664,Colour_Asymmetry_Pilot,2022.1.3,Win32,60.37189085,62c50e9c1127f2cd403a315f,,,,,,,,,,,,,,,,,,,,,,,,,,,,,,,,,,,,,,,,,,,,,,,,,,,,,,,,,,,,,,,,,,,,,,,,,,,,,,,,,,,,,,,,,,,,,,,,,,,,,,,,,,,,,,,,,,,,,,,,,,,,,,,,,,,,,,,,,,,,,,,,,,,,,,,,,,,,,,,
0,19,19,66,1,,5bb511c6689fc5000149c703,62c5599c57f3a82b564ebbed,2022-07-06_05h00.05.664,Colour_Asymmetry_Pilot,2022.1.3,Win32,60.37189085,62c50e9c1127f2cd403a315f,,,,,,,,,,,,,,,,,,,,,,,,,,,,,,,,,,,,,,,,,,,,,,,,,,,,,,,,,,,,,,,,,,,,,,,,,,,,,,,,,,,,,,,,,,,,,,,,,,,,,,,,,,,,,,,,,,,,,,,,,,,,,,,,,,,,,,,,,,,,,,,,,,,,,,,,,,,,,,,
0,20,20,63,1,,5bb511c6689fc5000149c703,62c5599c57f3a82b564ebbed,2022-07-06_05h00.05.664,Colour_Asymmetry_Pilot,2022.1.3,Win32,60.37189085,62c50e9c1127f2cd403a315f,,,,,,,,,,,,,,,,,,,,,,,,,,,,,,,,,,,,,,,,,,,,,,,,,,,,,,,,,,,,,,,,,,,,,,,,,,,,,,,,,,,,,,,,,,,,,,,,,,,,,,,,,,,,,,,,,,,,,,,,,,,,,,,,,,,,,,,,,,,,,,,,,,,,,,,,,,,,,,,
0,21,21,51,1,,5bb511c6689fc5000149c703,62c5599c57f3a82b564ebbed,2022-07-06_05h00.05.664,Colour_Asymmetry_Pilot,2022.1.3,Win32,60.37189085,62c50e9c1127f2cd403a315f,,,,,,,,,,,,,,,,,,,,,,,,,,,,,,,,,,,,,,,,,,,,,,,,,,,,,,,,,,,,,,,,,,,,,,,,,,,,,,,,,,,,,,,,,,,,,,,,,,,,,,,,,,,,,,,,,,,,,,,,,,,,,,,,,,,,,,,,,,,,,,,,,,,,,,,,,,,,,,,
0,22,22,42,1,,5bb511c6689fc5000149c703,62c5599c57f3a82b564ebbed,2022-07-06_05h00.05.664,Colour_Asymmetry_Pilot,2022.1.3,Win32,60.37189085,62c50e9c1127f2cd403a315f,,,,,,,,,,,,,,,,,,,,,,,,,,,,,,,,,,,,,,,,,,,,,,,,,,,,,,,,,,,,,,,,,,,,,,,,,,,,,,,,,,,,,,,,,,,,,,,,,,,,,,,,,,,,,,,,,,,,,,,,,,,,,,,,,,,,,,,,,,,,,,,,,,,,,,,,,,,,,,,
0,23,23,86,1,,5bb511c6689fc5000149c703,62c5599c57f3a82b564ebbed,2022-07-06_05h00.05.664,Colour_Asymmetry_Pilot,2022.1.3,Win32,60.37189085,62c50e9c1127f2cd403a315f,,,,,,,,,,,,,,,,,,,,,,,,,,,,,,,,,,,,,,,,,,,,,,,,,,,,,,,,,,,,,,,,,,,,,,,,,,,,,,,,,,,,,,,,,,,,,,,,,,,,,,,,,,,,,,,,,,,,,,,,,,,,,,,,,,,,,,,,,,,,,,,,,,,,,,,,,,,,,,,
0,24,24,61,1,,5bb511c6689fc5000149c703,62c5599c57f3a82b564ebbed,2022-07-06_05h00.05.664,Colour_Asymmetry_Pilot,2022.1.3,Win32,60.37189085,62c50e9c1127f2cd403a315f,,,,,,,,,,,,,,,,,,,,,,,,,,,,,,,,,,,,,,,,,,,,,,,,,,,,,,,,,,,,,,,,,,,,,,,,,,,,,,,,,,,,,,,,,,,,,,,,,,,,,,,,,,,,,,,,,,,,,,,,,,,,,,,,,,,,,,,,,,,,,,,,,,,,,,,,,,,,,,,
0,25,25,29,1,,5bb511c6689fc5000149c703,62c5599c57f3a82b564ebbed,2022-07-06_05h00.05.664,Colour_Asymmetry_Pilot,2022.1.3,Win32,60.37189085,62c50e9c1127f2cd403a315f,,,,,,,,,,,,,,,,,,,,,,,,,,,,,,,,,,,,,,,,,,,,,,,,,,,,,,,,,,,,,,,,,,,,,,,,,,,,,,,,,,,,,,,,,,,,,,,,,,,,,,,,,,,,,,,,,,,,,,,,,,,,,,,,,,,,,,,,,,,,,,,,,,,,,,,,,,,,,,,
0,26,26,81,1,,5bb511c6689fc5000149c703,62c5599c57f3a82b564ebbed,2022-07-06_05h00.05.664,Colour_Asymmetry_Pilot,2022.1.3,Win32,60.37189085,62c50e9c1127f2cd403a315f,,,,,,,,,,,,,,,,,,,,,,,,,,,,,,,,,,,,,,,,,,,,,,,,,,,,,,,,,,,,,,,,,,,,,,,,,,,,,,,,,,,,,,,,,,,,,,,,,,,,,,,,,,,,,,,,,,,,,,,,,,,,,,,,,,,,,,,,,,,,,,,,,,,,,,,,,,,,,,,
0,27,27,1,1,,5bb511c6689fc5000149c703,62c5599c57f3a82b564ebbed,2022-07-06_05h00.05.664,Colour_Asymmetry_Pilot,2022.1.3,Win32,60.37189085,62c50e9c1127f2cd403a315f,,,,,,,,,,,,,,,,,,,,,,,,,,,,,,,,,,,,,,,,,,,,,,,,,,,,,,,,,,,,,,,,,,,,,,,,,,,,,,,,,,,,,,,,,,,,,,,,,,,,,,,,,,,,,,,,,,,,,,,,,,,,,,,,,,,,,,,,,,,,,,,,,,,,,,,,,,,,,,,
0,28,28,69,1,,5bb511c6689fc5000149c703,62c5599c57f3a82b564ebbed,2022-07-06_05h00.05.664,Colour_Asymmetry_Pilot,2022.1.3,Win32,60.37189085,62c50e9c1127f2cd403a315f,,,,,,,,,,,,,,,,,,,,,,,,,,,,,,,,,,,,,,,,,,,,,,,,,,,,,,,,,,,,,,,,,,,,,,,,,,,,,,,,,,,,,,,,,,,,,,,,,,,,,,,,,,,,,,,,,,,,,,,,,,,,,,,,,,,,,,,,,,,,,,,,,,,,,,,,,,,,,,,
0,29,29,74,1,,5bb511c6689fc5000149c703,62c5599c57f3a82b564ebbed,2022-07-06_05h00.05.664,Colour_Asymmetry_Pilot,2022.1.3,Win32,60.37189085,62c50e9c1127f2cd403a315f,,,,,,,,,,,,,,,,,,,,,,,,,,,,,,,,,,,,,,,,,,,,,,,,,,,,,,,,,,,,,,,,,,,,,,,,,,,,,,,,,,,,,,,,,,,,,,,,,,,,,,,,,,,,,,,,,,,,,,,,,,,,,,,,,,,,,,,,,,,,,,,,,,,,,,,,,,,,,,,
0,30,30,4,1,,5bb511c6689fc5000149c703,62c5599c57f3a82b564ebbed,2022-07-06_05h00.05.664,Colour_Asymmetry_Pilot,2022.1.3,Win32,60.37189085,62c50e9c1127f2cd403a315f,,,,,,,,,,,,,,,,,,,,,,,,,,,,,,,,,,,,,,,,,,,,,,,,,,,,,,,,,,,,,,,,,,,,,,,,,,,,,,,,,,,,,,,,,,,,,,,,,,,,,,,,,,,,,,,,,,,,,,,,,,,,,,,,,,,,,,,,,,,,,,,,,,,,,,,,,,,,,,,
0,31,31,45,1,,5bb511c6689fc5000149c703,62c5599c57f3a82b564ebbed,2022-07-06_05h00.05.664,Colour_Asymmetry_Pilot,2022.1.3,Win32,60.37189085,62c50e9c1127f2cd403a315f,,,,,,,,,,,,,,,,,,,,,,,,,,,,,,,,,,,,,,,,,,,,,,,,,,,,,,,,,,,,,,,,,,,,,,,,,,,,,,,,,,,,,,,,,,,,,,,,,,,,,,,,,,,,,,,,,,,,,,,,,,,,,,,,,,,,,,,,,,,,,,,,,,,,,,,,,,,,,,,
0,32,32,17,1,,5bb511c6689fc5000149c703,62c5599c57f3a82b564ebbed,2022-07-06_05h00.05.664,Colour_Asymmetry_Pilot,2022.1.3,Win32,60.37189085,62c50e9c1127f2cd403a315f,,,,,,,,,,,,,,,,,,,,,,,,,,,,,,,,,,,,,,,,,,,,,,,,,,,,,,,,,,,,,,,,,,,,,,,,,,,,,,,,,,,,,,,,,,,,,,,,,,,,,,,,,,,,,,,,,,,,,,,,,,,,,,,,,,,,,,,,,,,,,,,,,,,,,,,,,,,,,,,
0,33,33,18,1,,5bb511c6689fc5000149c703,62c5599c57f3a82b564ebbed,2022-07-06_05h00.05.664,Colour_Asymmetry_Pilot,2022.1.3,Win32,60.37189085,62c50e9c1127f2cd403a315f,,,,,,,,,,,,,,,,,,,,,,,,,,,,,,,,,,,,,,,,,,,,,,,,,,,,,,,,,,,,,,,,,,,,,,,,,,,,,,,,,,,,,,,,,,,,,,,,,,,,,,,,,,,,,,,,,,,,,,,,,,,,,,,,,,,,,,,,,,,,,,,,,,,,,,,,,,,,,,,
0,34,34,58,1,,5bb511c6689fc5000149c703,62c5599c57f3a82b564ebbed,2022-07-06_05h00.05.664,Colour_Asymmetry_Pilot,2022.1.3,Win32,60.37189085,62c50e9c1127f2cd403a315f,,,,,,,,,,,,,,,,,,,,,,,,,,,,,,,,,,,,,,,,,,,,,,,,,,,,,,,,,,,,,,,,,,,,,,,,,,,,,,,,,,,,,,,,,,,,,,,,,,,,,,,,,,,,,,,,,,,,,,,,,,,,,,,,,,,,,,,,,,,,,,,,,,,,,,,,,,,,,,,
0,35,35,75,1,,5bb511c6689fc5000149c703,62c5599c57f3a82b564ebbed,2022-07-06_05h00.05.664,Colour_Asymmetry_Pilot,2022.1.3,Win32,60.37189085,62c50e9c1127f2cd403a315f,,,,,,,,,,,,,,,,,,,,,,,,,,,,,,,,,,,,,,,,,,,,,,,,,,,,,,,,,,,,,,,,,,,,,,,,,,,,,,,,,,,,,,,,,,,,,,,,,,,,,,,,,,,,,,,,,,,,,,,,,,,,,,,,,,,,,,,,,,,,,,,,,,,,,,,,,,,,,,,
0,36,36,55,1,,5bb511c6689fc5000149c703,62c5599c57f3a82b564ebbed,2022-07-06_05h00.05.664,Colour_Asymmetry_Pilot,2022.1.3,Win32,60.37189085,62c50e9c1127f2cd403a315f,,,,,,,,,,,,,,,,,,,,,,,,,,,,,,,,,,,,,,,,,,,,,,,,,,,,,,,,,,,,,,,,,,,,,,,,,,,,,,,,,,,,,,,,,,,,,,,,,,,,,,,,,,,,,,,,,,,,,,,,,,,,,,,,,,,,,,,,,,,,,,,,,,,,,,,,,,,,,,,
0,37,37,8,1,,5bb511c6689fc5000149c703,62c5599c57f3a82b564ebbed,2022-07-06_05h00.05.664,Colour_Asymmetry_Pilot,2022.1.3,Win32,60.37189085,62c50e9c1127f2cd403a315f,,,,,,,,,,,,,,,,,,,,,,,,,,,,,,,,,,,,,,,,,,,,,,,,,,,,,,,,,,,,,,,,,,,,,,,,,,,,,,,,,,,,,,,,,,,,,,,,,,,,,,,,,,,,,,,,,,,,,,,,,,,,,,,,,,,,,,,,,,,,,,,,,,,,,,,,,,,,,,,
0,38,38,35,1,,5bb511c6689fc5000149c703,62c5599c57f3a82b564ebbed,2022-07-06_05h00.05.664,Colour_Asymmetry_Pilot,2022.1.3,Win32,60.37189085,62c50e9c1127f2cd403a315f,,,,,,,,,,,,,,,,,,,,,,,,,,,,,,,,,,,,,,,,,,,,,,,,,,,,,,,,,,,,,,,,,,,,,,,,,,,,,,,,,,,,,,,,,,,,,,,,,,,,,,,,,,,,,,,,,,,,,,,,,,,,,,,,,,,,,,,,,,,,,,,,,,,,,,,,,,,,,,,
0,39,39,71,1,,5bb511c6689fc5000149c703,62c5599c57f3a82b564ebbed,2022-07-06_05h00.05.664,Colour_Asymmetry_Pilot,2022.1.3,Win32,60.37189085,62c50e9c1127f2cd403a315f,,,,,,,,,,,,,,,,,,,,,,,,,,,,,,,,,,,,,,,,,,,,,,,,,,,,,,,,,,,,,,,,,,,,,,,,,,,,,,,,,,,,,,,,,,,,,,,,,,,,,,,,,,,,,,,,,,,,,,,,,,,,,,,,,,,,,,,,,,,,,,,,,,,,,,,,,,,,,,,
0,40,40,88,1,,5bb511c6689fc5000149c703,62c5599c57f3a82b564ebbed,2022-07-06_05h00.05.664,Colour_Asymmetry_Pilot,2022.1.3,Win32,60.37189085,62c50e9c1127f2cd403a315f,,,,,,,,,,,,,,,,,,,,,,,,,,,,,,,,,,,,,,,,,,,,,,,,,,,,,,,,,,,,,,,,,,,,,,,,,,,,,,,,,,,,,,,,,,,,,,,,,,,,,,,,,,,,,,,,,,,,,,,,,,,,,,,,,,,,,,,,,,,,,,,,,,,,,,,,,,,,,,,
0,41,41,23,1,,5bb511c6689fc5000149c703,62c5599c57f3a82b564ebbed,2022-07-06_05h00.05.664,Colour_Asymmetry_Pilot,2022.1.3,Win32,60.37189085,62c50e9c1127f2cd403a315f,,,,,,,,,,,,,,,,,,,,,,,,,,,,,,,,,,,,,,,,,,,,,,,,,,,,,,,,,,,,,,,,,,,,,,,,,,,,,,,,,,,,,,,,,,,,,,,,,,,,,,,,,,,,,,,,,,,,,,,,,,,,,,,,,,,,,,,,,,,,,,,,,,,,,,,,,,,,,,,
0,42,42,12,1,,5bb511c6689fc5000149c703,62c5599c57f3a82b564ebbed,2022-07-06_05h00.05.664,Colour_Asymmetry_Pilot,2022.1.3,Win32,60.37189085,62c50e9c1127f2cd403a315f,,,,,,,,,,,,,,,,,,,,,,,,,,,,,,,,,,,,,,,,,,,,,,,,,,,,,,,,,,,,,,,,,,,,,,,,,,,,,,,,,,,,,,,,,,,,,,,,,,,,,,,,,,,,,,,,,,,,,,,,,,,,,,,,,,,,,,,,,,,,,,,,,,,,,,,,,,,,,,,
0,43,43,6,1,,5bb511c6689fc5000149c703,62c5599c57f3a82b564ebbed,2022-07-06_05h00.05.664,Colour_Asymmetry_Pilot,2022.1.3,Win32,60.37189085,62c50e9c1127f2cd403a315f,,,,,,,,,,,,,,,,,,,,,,,,,,,,,,,,,,,,,,,,,,,,,,,,,,,,,,,,,,,,,,,,,,,,,,,,,,,,,,,,,,,,,,,,,,,,,,,,,,,,,,,,,,,,,,,,,,,,,,,,,,,,,,,,,,,,,,,,,,,,,,,,,,,,,,,,,,,,,,,
0,44,44,84,1,,5bb511c6689fc5000149c703,62c5599c57f3a82b564ebbed,2022-07-06_05h00.05.664,Colour_Asymmetry_Pilot,2022.1.3,Win32,60.37189085,62c50e9c1127f2cd403a315f,,,,,,,,,,,,,,,,,,,,,,,,,,,,,,,,,,,,,,,,,,,,,,,,,,,,,,,,,,,,,,,,,,,,,,,,,,,,,,,,,,,,,,,,,,,,,,,,,,,,,,,,,,,,,,,,,,,,,,,,,,,,,,,,,,,,,,,,,,,,,,,,,,,,,,,,,,,,,,,
0,45,45,10,1,,5bb511c6689fc5000149c703,62c5599c57f3a82b564ebbed,2022-07-06_05h00.05.664,Colour_Asymmetry_Pilot,2022.1.3,Win32,60.37189085,62c50e9c1127f2cd403a315f,,,,,,,,,,,,,,,,,,,,,,,,,,,,,,,,,,,,,,,,,,,,,,,,,,,,,,,,,,,,,,,,,,,,,,,,,,,,,,,,,,,,,,,,,,,,,,,,,,,,,,,,,,,,,,,,,,,,,,,,,,,,,,,,,,,,,,,,,,,,,,,,,,,,,,,,,,,,,,,
0,46,46,49,1,,5bb511c6689fc5000149c703,62c5599c57f3a82b564ebbed,2022-07-06_05h00.05.664,Colour_Asymmetry_Pilot,2022.1.3,Win32,60.37189085,62c50e9c1127f2cd403a315f,,,,,,,,,,,,,,,,,,,,,,,,,,,,,,,,,,,,,,,,,,,,,,,,,,,,,,,,,,,,,,,,,,,,,,,,,,,,,,,,,,,,,,,,,,,,,,,,,,,,,,,,,,,,,,,,,,,,,,,,,,,,,,,,,,,,,,,,,,,,,,,,,,,,,,,,,,,,,,,
0,47,47,3,1,,5bb511c6689fc5000149c703,62c5599c57f3a82b564ebbed,2022-07-06_05h00.05.664,Colour_Asymmetry_Pilot,2022.1.3,Win32,60.37189085,62c50e9c1127f2cd403a315f,,,,,,,,,,,,,,,,,,,,,,,,,,,,,,,,,,,,,,,,,,,,,,,,,,,,,,,,,,,,,,,,,,,,,,,,,,,,,,,,,,,,,,,,,,,,,,,,,,,,,,,,,,,,,,,,,,,,,,,,,,,,,,,,,,,,,,,,,,,,,,,,,,,,,,,,,,,,,,,
0,48,48,22,1,,5bb511c6689fc5000149c703,62c5599c57f3a82b564ebbed,2022-07-06_05h00.05.664,Colour_Asymmetry_Pilot,2022.1.3,Win32,60.37189085,62c50e9c1127f2cd403a315f,,,,,,,,,,,,,,,,,,,,,,,,,,,,,,,,,,,,,,,,,,,,,,,,,,,,,,,,,,,,,,,,,,,,,,,,,,,,,,,,,,,,,,,,,,,,,,,,,,,,,,,,,,,,,,,,,,,,,,,,,,,,,,,,,,,,,,,,,,,,,,,,,,,,,,,,,,,,,,,
0,49,49,13,1,,5bb511c6689fc5000149c703,62c5599c57f3a82b564ebbed,2022-07-06_05h00.05.664,Colour_Asymmetry_Pilot,2022.1.3,Win32,60.37189085,62c50e9c1127f2cd403a315f,,,,,,,,,,,,,,,,,,,,,,,,,,,,,,,,,,,,,,,,,,,,,,,,,,,,,,,,,,,,,,,,,,,,,,,,,,,,,,,,,,,,,,,,,,,,,,,,,,,,,,,,,,,,,,,,,,,,,,,,,,,,,,,,,,,,,,,,,,,,,,,,,,,,,,,,,,,,,,,
0,50,50,67,1,,5bb511c6689fc5000149c703,62c5599c57f3a82b564ebbed,2022-07-06_05h00.05.664,Colour_Asymmetry_Pilot,2022.1.3,Win32,60.37189085,62c50e9c1127f2cd403a315f,,,,,,,,,,,,,,,,,,,,,,,,,,,,,,,,,,,,,,,,,,,,,,,,,,,,,,,,,,,,,,,,,,,,,,,,,,,,,,,,,,,,,,,,,,,,,,,,,,,,,,,,,,,,,,,,,,,,,,,,,,,,,,,,,,,,,,,,,,,,,,,,,,,,,,,,,,,,,,,
0,51,51,68,1,,5bb511c6689fc5000149c703,62c5599c57f3a82b564ebbed,2022-07-06_05h00.05.664,Colour_Asymmetry_Pilot,2022.1.3,Win32,60.37189085,62c50e9c1127f2cd403a315f,,,,,,,,,,,,,,,,,,,,,,,,,,,,,,,,,,,,,,,,,,,,,,,,,,,,,,,,,,,,,,,,,,,,,,,,,,,,,,,,,,,,,,,,,,,,,,,,,,,,,,,,,,,,,,,,,,,,,,,,,,,,,,,,,,,,,,,,,,,,,,,,,,,,,,,,,,,,,,,
0,52,52,82,1,,5bb511c6689fc5000149c703,62c5599c57f3a82b564ebbed,2022-07-06_05h00.05.664,Colour_Asymmetry_Pilot,2022.1.3,Win32,60.37189085,62c50e9c1127f2cd403a315f,,,,,,,,,,,,,,,,,,,,,,,,,,,,,,,,,,,,,,,,,,,,,,,,,,,,,,,,,,,,,,,,,,,,,,,,,,,,,,,,,,,,,,,,,,,,,,,,,,,,,,,,,,,,,,,,,,,,,,,,,,,,,,,,,,,,,,,,,,,,,,,,,,,,,,,,,,,,,,,
0,53,53,30,1,,5bb511c6689fc5000149c703,62c5599c57f3a82b564ebbed,2022-07-06_05h00.05.664,Colour_Asymmetry_Pilot,2022.1.3,Win32,60.37189085,62c50e9c1127f2cd403a315f,,,,,,,,,,,,,,,,,,,,,,,,,,,,,,,,,,,,,,,,,,,,,,,,,,,,,,,,,,,,,,,,,,,,,,,,,,,,,,,,,,,,,,,,,,,,,,,,,,,,,,,,,,,,,,,,,,,,,,,,,,,,,,,,,,,,,,,,,,,,,,,,,,,,,,,,,,,,,,,
0,54,54,15,1,,5bb511c6689fc5000149c703,62c5599c57f3a82b564ebbed,2022-07-06_05h00.05.664,Colour_Asymmetry_Pilot,2022.1.3,Win32,60.37189085,62c50e9c1127f2cd403a315f,,,,,,,,,,,,,,,,,,,,,,,,,,,,,,,,,,,,,,,,,,,,,,,,,,,,,,,,,,,,,,,,,,,,,,,,,,,,,,,,,,,,,,,,,,,,,,,,,,,,,,,,,,,,,,,,,,,,,,,,,,,,,,,,,,,,,,,,,,,,,,,,,,,,,,,,,,,,,,,
0,55,55,31,1,,5bb511c6689fc5000149c703,62c5599c57f3a82b564ebbed,2022-07-06_05h00.05.664,Colour_Asymmetry_Pilot,2022.1.3,Win32,60.37189085,62c50e9c1127f2cd403a315f,,,,,,,,,,,,,,,,,,,,,,,,,,,,,,,,,,,,,,,,,,,,,,,,,,,,,,,,,,,,,,,,,,,,,,,,,,,,,,,,,,,,,,,,,,,,,,,,,,,,,,,,,,,,,,,,,,,,,,,,,,,,,,,,,,,,,,,,,,,,,,,,,,,,,,,,,,,,,,,
0,56,56,50,1,,5bb511c6689fc5000149c703,62c5599c57f3a82b564ebbed,2022-07-06_05h00.05.664,Colour_Asymmetry_Pilot,2022.1.3,Win32,60.37189085,62c50e9c1127f2cd403a315f,,,,,,,,,,,,,,,,,,,,,,,,,,,,,,,,,,,,,,,,,,,,,,,,,,,,,,,,,,,,,,,,,,,,,,,,,,,,,,,,,,,,,,,,,,,,,,,,,,,,,,,,,,,,,,,,,,,,,,,,,,,,,,,,,,,,,,,,,,,,,,,,,,,,,,,,,,,,,,,
0,57,57,89,1,,5bb511c6689fc5000149c703,62c5599c57f3a82b564ebbed,2022-07-06_05h00.05.664,Colour_Asymmetry_Pilot,2022.1.3,Win32,60.37189085,62c50e9c1127f2cd403a315f,,,,,,,,,,,,,,,,,,,,,,,,,,,,,,,,,,,,,,,,,,,,,,,,,,,,,,,,,,,,,,,,,,,,,,,,,,,,,,,,,,,,,,,,,,,,,,,,,,,,,,,,,,,,,,,,,,,,,,,,,,,,,,,,,,,,,,,,,,,,,,,,,,,,,,,,,,,,,,,
0,58,58,14,1,,5bb511c6689fc5000149c703,62c5599c57f3a82b564ebbed,2022-07-06_05h00.05.664,Colour_Asymmetry_Pilot,2022.1.3,Win32,60.37189085,62c50e9c1127f2cd403a315f,,,,,,,,,,,,,,,,,,,,,,,,,,,,,,,,,,,,,,,,,,,,,,,,,,,,,,,,,,,,,,,,,,,,,,,,,,,,,,,,,,,,,,,,,,,,,,,,,,,,,,,,,,,,,,,,,,,,,,,,,,,,,,,,,,,,,,,,,,,,,,,,,,,,,,,,,,,,,,,
0,59,59,37,1,,5bb511c6689fc5000149c703,62c5599c57f3a82b564ebbed,2022-07-06_05h00.05.664,Colour_Asymmetry_Pilot,2022.1.3,Win32,60.37189085,62c50e9c1127f2cd403a315f,,,,,,,,,,,,,,,,,,,,,,,,,,,,,,,,,,,,,,,,,,,,,,,,,,,,,,,,,,,,,,,,,,,,,,,,,,,,,,,,,,,,,,,,,,,,,,,,,,,,,,,,,,,,,,,,,,,,,,,,,,,,,,,,,,,,,,,,,,,,,,,,,,,,,,,,,,,,,,,
0,60,60,9,1,,5bb511c6689fc5000149c703,62c5599c57f3a82b564ebbed,2022-07-06_05h00.05.664,Colour_Asymmetry_Pilot,2022.1.3,Win32,60.37189085,62c50e9c1127f2cd403a315f,,,,,,,,,,,,,,,,,,,,,,,,,,,,,,,,,,,,,,,,,,,,,,,,,,,,,,,,,,,,,,,,,,,,,,,,,,,,,,,,,,,,,,,,,,,,,,,,,,,,,,,,,,,,,,,,,,,,,,,,,,,,,,,,,,,,,,,,,,,,,,,,,,,,,,,,,,,,,,,
0,61,61,16,1,,5bb511c6689fc5000149c703,62c5599c57f3a82b564ebbed,2022-07-06_05h00.05.664,Colour_Asymmetry_Pilot,2022.1.3,Win32,60.37189085,62c50e9c1127f2cd403a315f,,,,,,,,,,,,,,,,,,,,,,,,,,,,,,,,,,,,,,,,,,,,,,,,,,,,,,,,,,,,,,,,,,,,,,,,,,,,,,,,,,,,,,,,,,,,,,,,,,,,,,,,,,,,,,,,,,,,,,,,,,,,,,,,,,,,,,,,,,,,,,,,,,,,,,,,,,,,,,,
0,62,62,52,1,,5bb511c6689fc5000149c703,62c5599c57f3a82b564ebbed,2022-07-06_05h00.05.664,Colour_Asymmetry_Pilot,2022.1.3,Win32,60.37189085,62c50e9c1127f2cd403a315f,,,,,,,,,,,,,,,,,,,,,,,,,,,,,,,,,,,,,,,,,,,,,,,,,,,,,,,,,,,,,,,,,,,,,,,,,,,,,,,,,,,,,,,,,,,,,,,,,,,,,,,,,,,,,,,,,,,,,,,,,,,,,,,,,,,,,,,,,,,,,,,,,,,,,,,,,,,,,,,
0,63,63,78,1,,5bb511c6689fc5000149c703,62c5599c57f3a82b564ebbed,2022-07-06_05h00.05.664,Colour_Asymmetry_Pilot,2022.1.3,Win32,60.37189085,62c50e9c1127f2cd403a315f,,,,,,,,,,,,,,,,,,,,,,,,,,,,,,,,,,,,,,,,,,,,,,,,,,,,,,,,,,,,,,,,,,,,,,,,,,,,,,,,,,,,,,,,,,,,,,,,,,,,,,,,,,,,,,,,,,,,,,,,,,,,,,,,,,,,,,,,,,,,,,,,,,,,,,,,,,,,,,,
0,64,64,87,1,,5bb511c6689fc5000149c703,62c5599c57f3a82b564ebbed,2022-07-06_05h00.05.664,Colour_Asymmetry_Pilot,2022.1.3,Win32,60.37189085,62c50e9c1127f2cd403a315f,,,,,,,,,,,,,,,,,,,,,,,,,,,,,,,,,,,,,,,,,,,,,,,,,,,,,,,,,,,,,,,,,,,,,,,,,,,,,,,,,,,,,,,,,,,,,,,,,,,,,,,,,,,,,,,,,,,,,,,,,,,,,,,,,,,,,,,,,,,,,,,,,,,,,,,,,,,,,,,
0,65,65,2,1,,5bb511c6689fc5000149c703,62c5599c57f3a82b564ebbed,2022-07-06_05h00.05.664,Colour_Asymmetry_Pilot,2022.1.3,Win32,60.37189085,62c50e9c1127f2cd403a315f,,,,,,,,,,,,,,,,,,,,,,,,,,,,,,,,,,,,,,,,,,,,,,,,,,,,,,,,,,,,,,,,,,,,,,,,,,,,,,,,,,,,,,,,,,,,,,,,,,,,,,,,,,,,,,,,,,,,,,,,,,,,,,,,,,,,,,,,,,,,,,,,,,,,,,,,,,,,,,,
0,66,66,41,1,,5bb511c6689fc5000149c703,62c5599c57f3a82b564ebbed,2022-07-06_05h00.05.664,Colour_Asymmetry_Pilot,2022.1.3,Win32,60.37189085,62c50e9c1127f2cd403a315f,,,,,,,,,,,,,,,,,,,,,,,,,,,,,,,,,,,,,,,,,,,,,,,,,,,,,,,,,,,,,,,,,,,,,,,,,,,,,,,,,,,,,,,,,,,,,,,,,,,,,,,,,,,,,,,,,,,,,,,,,,,,,,,,,,,,,,,,,,,,,,,,,,,,,,,,,,,,,,,
0,67,67,92,1,,5bb511c6689fc5000149c703,62c5599c57f3a82b564ebbed,2022-07-06_05h00.05.664,Colour_Asymmetry_Pilot,2022.1.3,Win32,60.37189085,62c50e9c1127f2cd403a315f,,,,,,,,,,,,,,,,,,,,,,,,,,,,,,,,,,,,,,,,,,,,,,,,,,,,,,,,,,,,,,,,,,,,,,,,,,,,,,,,,,,,,,,,,,,,,,,,,,,,,,,,,,,,,,,,,,,,,,,,,,,,,,,,,,,,,,,,,,,,,,,,,,,,,,,,,,,,,,,
0,68,68,40,1,,5bb511c6689fc5000149c703,62c5599c57f3a82b564ebbed,2022-07-06_05h00.05.664,Colour_Asymmetry_Pilot,2022.1.3,Win32,60.37189085,62c50e9c1127f2cd403a315f,,,,,,,,,,,,,,,,,,,,,,,,,,,,,,,,,,,,,,,,,,,,,,,,,,,,,,,,,,,,,,,,,,,,,,,,,,,,,,,,,,,,,,,,,,,,,,,,,,,,,,,,,,,,,,,,,,,,,,,,,,,,,,,,,,,,,,,,,,,,,,,,,,,,,,,,,,,,,,,
0,69,69,21,1,,5bb511c6689fc5000149c703,62c5599c57f3a82b564ebbed,2022-07-06_05h00.05.664,Colour_Asymmetry_Pilot,2022.1.3,Win32,60.37189085,62c50e9c1127f2cd403a315f,,,,,,,,,,,,,,,,,,,,,,,,,,,,,,,,,,,,,,,,,,,,,,,,,,,,,,,,,,,,,,,,,,,,,,,,,,,,,,,,,,,,,,,,,,,,,,,,,,,,,,,,,,,,,,,,,,,,,,,,,,,,,,,,,,,,,,,,,,,,,,,,,,,,,,,,,,,,,,,
0,70,70,91,1,,5bb511c6689fc5000149c703,62c5599c57f3a82b564ebbed,2022-07-06_05h00.05.664,Colour_Asymmetry_Pilot,2022.1.3,Win32,60.37189085,62c50e9c1127f2cd403a315f,,,,,,,,,,,,,,,,,,,,,,,,,,,,,,,,,,,,,,,,,,,,,,,,,,,,,,,,,,,,,,,,,,,,,,,,,,,,,,,,,,,,,,,,,,,,,,,,,,,,,,,,,,,,,,,,,,,,,,,,,,,,,,,,,,,,,,,,,,,,,,,,,,,,,,,,,,,,,,,
0,71,71,83,1,,5bb511c6689fc5000149c703,62c5599c57f3a82b564ebbed,2022-07-06_05h00.05.664,Colour_Asymmetry_Pilot,2022.1.3,Win32,60.37189085,62c50e9c1127f2cd403a315f,,,,,,,,,,,,,,,,,,,,,,,,,,,,,,,,,,,,,,,,,,,,,,,,,,,,,,,,,,,,,,,,,,,,,,,,,,,,,,,,,,,,,,,,,,,,,,,,,,,,,,,,,,,,,,,,,,,,,,,,,,,,,,,,,,,,,,,,,,,,,,,,,,,,,,,,,,,,,,,
0,72,72,11,1,,5bb511c6689fc5000149c703,62c5599c57f3a82b564ebbed,2022-07-06_05h00.05.664,Colour_Asymmetry_Pilot,2022.1.3,Win32,60.37189085,62c50e9c1127f2cd403a315f,,,,,,,,,,,,,,,,,,,,,,,,,,,,,,,,,,,,,,,,,,,,,,,,,,,,,,,,,,,,,,,,,,,,,,,,,,,,,,,,,,,,,,,,,,,,,,,,,,,,,,,,,,,,,,,,,,,,,,,,,,,,,,,,,,,,,,,,,,,,,,,,,,,,,,,,,,,,,,,
0,73,73,32,1,,5bb511c6689fc5000149c703,62c5599c57f3a82b564ebbed,2022-07-06_05h00.05.664,Colour_Asymmetry_Pilot,2022.1.3,Win32,60.37189085,62c50e9c1127f2cd403a315f,,,,,,,,,,,,,,,,,,,,,,,,,,,,,,,,,,,,,,,,,,,,,,,,,,,,,,,,,,,,,,,,,,,,,,,,,,,,,,,,,,,,,,,,,,,,,,,,,,,,,,,,,,,,,,,,,,,,,,,,,,,,,,,,,,,,,,,,,,,,,,,,,,,,,,,,,,,,,,,
0,74,74,64,1,,5bb511c6689fc5000149c703,62c5599c57f3a82b564ebbed,2022-07-06_05h00.05.664,Colour_Asymmetry_Pilot,2022.1.3,Win32,60.37189085,62c50e9c1127f2cd403a315f,,,,,,,,,,,,,,,,,,,,,,,,,,,,,,,,,,,,,,,,,,,,,,,,,,,,,,,,,,,,,,,,,,,,,,,,,,,,,,,,,,,,,,,,,,,,,,,,,,,,,,,,,,,,,,,,,,,,,,,,,,,,,,,,,,,,,,,,,,,,,,,,,,,,,,,,,,,,,,,
0,75,75,26,1,,5bb511c6689fc5000149c703,62c5599c57f3a82b564ebbed,2022-07-06_05h00.05.664,Colour_Asymmetry_Pilot,2022.1.3,Win32,60.37189085,62c50e9c1127f2cd403a315f,,,,,,,,,,,,,,,,,,,,,,,,,,,,,,,,,,,,,,,,,,,,,,,,,,,,,,,,,,,,,,,,,,,,,,,,,,,,,,,,,,,,,,,,,,,,,,,,,,,,,,,,,,,,,,,,,,,,,,,,,,,,,,,,,,,,,,,,,,,,,,,,,,,,,,,,,,,,,,,
0,76,76,80,1,,5bb511c6689fc5000149c703,62c5599c57f3a82b564ebbed,2022-07-06_05h00.05.664,Colour_Asymmetry_Pilot,2022.1.3,Win32,60.37189085,62c50e9c1127f2cd403a315f,,,,,,,,,,,,,,,,,,,,,,,,,,,,,,,,,,,,,,,,,,,,,,,,,,,,,,,,,,,,,,,,,,,,,,,,,,,,,,,,,,,,,,,,,,,,,,,,,,,,,,,,,,,,,,,,,,,,,,,,,,,,,,,,,,,,,,,,,,,,,,,,,,,,,,,,,,,,,,,
0,77,77,90,1,,5bb511c6689fc5000149c703,62c5599c57f3a82b564ebbed,2022-07-06_05h00.05.664,Colour_Asymmetry_Pilot,2022.1.3,Win32,60.37189085,62c50e9c1127f2cd403a315f,,,,,,,,,,,,,,,,,,,,,,,,,,,,,,,,,,,,,,,,,,,,,,,,,,,,,,,,,,,,,,,,,,,,,,,,,,,,,,,,,,,,,,,,,,,,,,,,,,,,,,,,,,,,,,,,,,,,,,,,,,,,,,,,,,,,,,,,,,,,,,,,,,,,,,,,,,,,,,,
0,78,78,72,1,,5bb511c6689fc5000149c703,62c5599c57f3a82b564ebbed,2022-07-06_05h00.05.664,Colour_Asymmetry_Pilot,2022.1.3,Win32,60.37189085,62c50e9c1127f2cd403a315f,,,,,,,,,,,,,,,,,,,,,,,,,,,,,,,,,,,,,,,,,,,,,,,,,,,,,,,,,,,,,,,,,,,,,,,,,,,,,,,,,,,,,,,,,,,,,,,,,,,,,,,,,,,,,,,,,,,,,,,,,,,,,,,,,,,,,,,,,,,,,,,,,,,,,,,,,,,,,,,
0,79,79,39,1,,5bb511c6689fc5000149c703,62c5599c57f3a82b564ebbed,2022-07-06_05h00.05.664,Colour_Asymmetry_Pilot,2022.1.3,Win32,60.37189085,62c50e9c1127f2cd403a315f,,,,,,,,,,,,,,,,,,,,,,,,,,,,,,,,,,,,,,,,,,,,,,,,,,,,,,,,,,,,,,,,,,,,,,,,,,,,,,,,,,,,,,,,,,,,,,,,,,,,,,,,,,,,,,,,,,,,,,,,,,,,,,,,,,,,,,,,,,,,,,,,,,,,,,,,,,,,,,,
0,80,80,60,1,,5bb511c6689fc5000149c703,62c5599c57f3a82b564ebbed,2022-07-06_05h00.05.664,Colour_Asymmetry_Pilot,2022.1.3,Win32,60.37189085,62c50e9c1127f2cd403a315f,,,,,,,,,,,,,,,,,,,,,,,,,,,,,,,,,,,,,,,,,,,,,,,,,,,,,,,,,,,,,,,,,,,,,,,,,,,,,,,,,,,,,,,,,,,,,,,,,,,,,,,,,,,,,,,,,,,,,,,,,,,,,,,,,,,,,,,,,,,,,,,,,,,,,,,,,,,,,,,
0,81,81,34,1,,5bb511c6689fc5000149c703,62c5599c57f3a82b564ebbed,2022-07-06_05h00.05.664,Colour_Asymmetry_Pilot,2022.1.3,Win32,60.37189085,62c50e9c1127f2cd403a315f,,,,,,,,,,,,,,,,,,,,,,,,,,,,,,,,,,,,,,,,,,,,,,,,,,,,,,,,,,,,,,,,,,,,,,,,,,,,,,,,,,,,,,,,,,,,,,,,,,,,,,,,,,,,,,,,,,,,,,,,,,,,,,,,,,,,,,,,,,,,,,,,,,,,,,,,,,,,,,,
0,82,82,70,1,,5bb511c6689fc5000149c703,62c5599c57f3a82b564ebbed,2022-07-06_05h00.05.664,Colour_Asymmetry_Pilot,2022.1.3,Win32,60.37189085,62c50e9c1127f2cd403a315f,,,,,,,,,,,,,,,,,,,,,,,,,,,,,,,,,,,,,,,,,,,,,,,,,,,,,,,,,,,,,,,,,,,,,,,,,,,,,,,,,,,,,,,,,,,,,,,,,,,,,,,,,,,,,,,,,,,,,,,,,,,,,,,,,,,,,,,,,,,,,,,,,,,,,,,,,,,,,,,
0,83,83,48,1,,5bb511c6689fc5000149c703,62c5599c57f3a82b564ebbed,2022-07-06_05h00.05.664,Colour_Asymmetry_Pilot,2022.1.3,Win32,60.37189085,62c50e9c1127f2cd403a315f,,,,,,,,,,,,,,,,,,,,,,,,,,,,,,,,,,,,,,,,,,,,,,,,,,,,,,,,,,,,,,,,,,,,,,,,,,,,,,,,,,,,,,,,,,,,,,,,,,,,,,,,,,,,,,,,,,,,,,,,,,,,,,,,,,,,,,,,,,,,,,,,,,,,,,,,,,,,,,,
0,84,84,5,1,,5bb511c6689fc5000149c703,62c5599c57f3a82b564ebbed,2022-07-06_05h00.05.664,Colour_Asymmetry_Pilot,2022.1.3,Win32,60.37189085,62c50e9c1127f2cd403a315f,,,,,,,,,,,,,,,,,,,,,,,,,,,,,,,,,,,,,,,,,,,,,,,,,,,,,,,,,,,,,,,,,,,,,,,,,,,,,,,,,,,,,,,,,,,,,,,,,,,,,,,,,,,,,,,,,,,,,,,,,,,,,,,,,,,,,,,,,,,,,,,,,,,,,,,,,,,,,,,
0,85,85,56,1,,5bb511c6689fc5000149c703,62c5599c57f3a82b564ebbed,2022-07-06_05h00.05.664,Colour_Asymmetry_Pilot,2022.1.3,Win32,60.37189085,62c50e9c1127f2cd403a315f,,,,,,,,,,,,,,,,,,,,,,,,,,,,,,,,,,,,,,,,,,,,,,,,,,,,,,,,,,,,,,,,,,,,,,,,,,,,,,,,,,,,,,,,,,,,,,,,,,,,,,,,,,,,,,,,,,,,,,,,,,,,,,,,,,,,,,,,,,,,,,,,,,,,,,,,,,,,,,,
0,86,86,33,1,,5bb511c6689fc5000149c703,62c5599c57f3a82b564ebbed,2022-07-06_05h00.05.664,Colour_Asymmetry_Pilot,2022.1.3,Win32,60.37189085,62c50e9c1127f2cd403a315f,,,,,,,,,,,,,,,,,,,,,,,,,,,,,,,,,,,,,,,,,,,,,,,,,,,,,,,,,,,,,,,,,,,,,,,,,,,,,,,,,,,,,,,,,,,,,,,,,,,,,,,,,,,,,,,,,,,,,,,,,,,,,,,,,,,,,,,,,,,,,,,,,,,,,,,,,,,,,,,
0,87,87,0,1,,5bb511c6689fc5000149c703,62c5599c57f3a82b564ebbed,2022-07-06_05h00.05.664,Colour_Asymmetry_Pilot,2022.1.3,Win32,60.37189085,62c50e9c1127f2cd403a315f,,,,,,,,,,,,,,,,,,,,,,,,,,,,,,,,,,,,,,,,,,,,,,,,,,,,,,,,,,,,,,,,,,,,,,,,,,,,,,,,,,,,,,,,,,,,,,,,,,,,,,,,,,,,,,,,,,,,,,,,,,,,,,,,,,,,,,,,,,,,,,,,,,,,,,,,,,,,,,,
0,88,88,65,1,,5bb511c6689fc5000149c703,62c5599c57f3a82b564ebbed,2022-07-06_05h00.05.664,Colour_Asymmetry_Pilot,2022.1.3,Win32,60.37189085,62c50e9c1127f2cd403a315f,,,,,,,,,,,,,,,,,,,,,,,,,,,,,,,,,,,,,,,,,,,,,,,,,,,,,,,,,,,,,,,,,,,,,,,,,,,,,,,,,,,,,,,,,,,,,,,,,,,,,,,,,,,,,,,,,,,,,,,,,,,,,,,,,,,,,,,,,,,,,,,,,,,,,,,,,,,,,,,
0,89,89,27,1,,5bb511c6689fc5000149c703,62c5599c57f3a82b564ebbed,2022-07-06_05h00.05.664,Colour_Asymmetry_Pilot,2022.1.3,Win32,60.37189085,62c50e9c1127f2cd403a315f,,,,,,,,,,,,,,,,,,,,,,,,,,,,,,,,,,,,,,,,,,,,,,,,,,,,,,,,,,,,,,,,,,,,,,,,,,,,,,,,,,,,,,,,,,,,,,,,,,,,,,,,,,,,,,,,,,,,,,,,,,,,,,,,,,,,,,,,,,,,,,,,,,,,,,,,,,,,,,,
0,90,90,28,1,,5bb511c6689fc5000149c703,62c5599c57f3a82b564ebbed,2022-07-06_05h00.05.664,Colour_Asymmetry_Pilot,2022.1.3,Win32,60.37189085,62c50e9c1127f2cd403a315f,,,,,,,,,,,,,,,,,,,,,,,,,,,,,,,,,,,,,,,,,,,,,,,,,,,,,,,,,,,,,,,,,,,,,,,,,,,,,,,,,,,,,,,,,,,,,,,,,,,,,,,,,,,,,,,,,,,,,,,,,,,,,,,,,,,,,,,,,,,,,,,,,,,,,,,,,,,,,,,
0,91,91,62,1,,5bb511c6689fc5000149c703,62c5599c57f3a82b564ebbed,2022-07-06_05h00.05.664,Colour_Asymmetry_Pilot,2022.1.3,Win32,60.37189085,62c50e9c1127f2cd403a315f,,,,,,,,,,,,,,,,,,,,,,,,,,,,,,,,,,,,,,,,,,,,,,,,,,,,,,,,,,,,,,,,,,,,,,,,,,,,,,,,,,,,,,,,,,,,,,,,,,,,,,,,,,,,,,,,,,,,,,,,,,,,,,,,,,,,,,,,,,,,,,,,,,,,,,,,,,,,,,,
0,92,92,44,1,,5bb511c6689fc5000149c703,62c5599c57f3a82b564ebbed,2022-07-06_05h00.05.664,Colour_Asymmetry_Pilot,2022.1.3,Win32,60.37189085,62c50e9c1127f2cd403a315f,,,,,,,,,,,,,,,,,,,,,,,,,,,,,,,,,,,,,,,,,,,,,,,,,,,,,,,,,,,,,,,,,,,,,,,,,,,,,,,,,,,,,,,,,,,,,,,,,,,,,,,,,,,,,,,,,,,,,,,,,,,,,,,,,,,,,,,,,,,,,,,,,,,,,,,,,,,,,,,
,,,,,,5bb511c6689fc5000149c703,62c5599c57f3a82b564ebbed,2022-07-06_05h00.05.664,Colour_Asymmetry_Pilot,2022.1.3,Win32,60.37189085,62c50e9c1127f2cd403a315f,0,0,0,152,1,onetwo,,,,,,,,,,,,,,,,,,,,,,,,,,,,,,,,,,,,,,,,,,,,,,,,,,,,,,,,,,,,,,,,,,,,,,,,,,,,,,,,,,,,,,,,,,,,,,,,,,,,,,,,,,,,,,,,,,,,,,,,,,,,,,,,,,,,,,,,,,,,,,,,,,,,,,,,,
,,,,,,5bb511c6689fc5000149c703,62c5599c57f3a82b564ebbed,2022-07-06_05h00.05.664,Colour_Asymmetry_Pilot,2022.1.3,Win32,60.37189085,62c50e9c1127f2cd403a315f,0,1,1,23,1,fourthree,,,,,,,,,,,,,,,,,,,,,,,,,,,,,,,,,,,,,,,,,,,,,,,,,,,,,,,,,,,,,,,,,,,,,,,,,,,,,,,,,,,,,,,,,,,,,,,,,,,,,,,,,,,,,,,,,,,,,,,,,,,,,,,,,,,,,,,,,,,,,,,,,,,,,,,,,
,,,,,,5bb511c6689fc5000149c703,62c5599c57f3a82b564ebbed,2022-07-06_05h00.05.664,Colour_Asymmetry_Pilot,2022.1.3,Win32,60.37189085,62c50e9c1127f2cd403a315f,0,2,2,133,1,threefour,,,,,,,,,,,,,,,,,,,,,,,,,,,,,,,,,,,,,,,,,,,,,,,,,,,,,,,,,,,,,,,,,,,,,,,,,,,,,,,,,,,,,,,,,,,,,,,,,,,,,,,,,,,,,,,,,,,,,,,,,,,,,,,,,,,,,,,,,,,,,,,,,,,,,,,,,
,,,,,,5bb511c6689fc5000149c703,62c5599c57f3a82b564ebbed,2022-07-06_05h00.05.664,Colour_Asymmetry_Pilot,2022.1.3,Win32,60.37189085,62c50e9c1127f2cd403a315f,0,3,3,144,1,onetwo,,,,,,,,,,,,,,,,,,,,,,,,,,,,,,,,,,,,,,,,,,,,,,,,,,,,,,,,,,,,,,,,,,,,,,,,,,,,,,,,,,,,,,,,,,,,,,,,,,,,,,,,,,,,,,,,,,,,,,,,,,,,,,,,,,,,,,,,,,,,,,,,,,,,,,,,,
,,,,,,5bb511c6689fc5000149c703,62c5599c57f3a82b564ebbed,2022-07-06_05h00.05.664,Colour_Asymmetry_Pilot,2022.1.3,Win32,60.37189085,62c50e9c1127f2cd403a315f,0,4,4,48,1,onetwo,,,,,,,,,,,,,,,,,,,,,,,,,,,,,,,,,,,,,,,,,,,,,,,,,,,,,,,,,,,,,,,,,,,,,,,,,,,,,,,,,,,,,,,,,,,,,,,,,,,,,,,,,,,,,,,,,,,,,,,,,,,,,,,,,,,,,,,,,,,,,,,,,,,,,,,,,
,,,,,,5bb511c6689fc5000149c703,62c5599c57f3a82b564ebbed,2022-07-06_05h00.05.664,Colour_Asymmetry_Pilot,2022.1.3,Win32,60.37189085,62c50e9c1127f2cd403a315f,0,5,5,8,1,onetwo,,,,,,,,,,,,,,,,,,,,,,,,,,,,,,,,,,,,,,,,,,,,,,,,,,,,,,,,,,,,,,,,,,,,,,,,,,,,,,,,,,,,,,,,,,,,,,,,,,,,,,,,,,,,,,,,,,,,,,,,,,,,,,,,,,,,,,,,,,,,,,,,,,,,,,,,,
,,,,,,5bb511c6689fc5000149c703,62c5599c57f3a82b564ebbed,2022-07-06_05h00.05.664,Colour_Asymmetry_Pilot,2022.1.3,Win32,60.37189085,62c50e9c1127f2cd403a315f,0,6,6,56,1,onetwo,,,,,,,,,,,,,,,,,,,,,,,,,,,,,,,,,,,,,,,,,,,,,,,,,,,,,,,,,,,,,,,,,,,,,,,,,,,,,,,,,,,,,,,,,,,,,,,,,,,,,,,,,,,,,,,,,,,,,,,,,,,,,,,,,,,,,,,,,,,,,,,,,,,,,,,,,
,,,,,,5bb511c6689fc5000149c703,62c5599c57f3a82b564ebbed,2022-07-06_05h00.05.664,Colour_Asymmetry_Pilot,2022.1.3,Win32,60.37189085,62c50e9c1127f2cd403a315f,0,7,7,60,1,threeone,,,,,,,,,,,,,,,,,,,,,,,,,,,,,,,,,,,,,,,,,,,,,,,,,,,,,,,,,,,,,,,,,,,,,,,,,,,,,,,,,,,,,,,,,,,,,,,,,,,,,,,,,,,,,,,,,,,,,,,,,,,,,,,,,,,,,,,,,,,,,,,,,,,,,,,,,
,,,,,,5bb511c6689fc5000149c703,62c5599c57f3a82b564ebbed,2022-07-06_05h00.05.664,Colour_Asymmetry_Pilot,2022.1.3,Win32,60.37189085,62c50e9c1127f2cd403a315f,0,8,8,12,1,threeone,,,,,,,,,,,,,,,,,,,,,,,,,,,,,,,,,,,,,,,,,,,,,,,,,,,,,,,,,,,,,,,,,,,,,,,,,,,,,,,,,,,,,,,,,,,,,,,,,,,,,,,,,,,,,,,,,,,,,,,,,,,,,,,,,,,,,,,,,,,,,,,,,,,,,,,,,
,,,,,,5bb511c6689fc5000149c703,62c5599c57f3a82b564ebbed,2022-07-06_05h00.05.664,Colour_Asymmetry_Pilot,2022.1.3,Win32,60.37189085,62c50e9c1127f2cd403a315f,0,9,9,54,1,fourtwo,,,,,,,,,,,,,,,,,,,,,,,,,,,,,,,,,,,,,,,,,,,,,,,,,,,,,,,,,,,,,,,,,,,,,,,,,,,,,,,,,,,,,,,,,,,,,,,,,,,,,,,,,,,,,,,,,,,,,,,,,,,,,,,,,,,,,,,,,,,,,,,,,,,,,,,,,
,,,,,,5bb511c6689fc5000149c703,62c5599c57f3a82b564ebbed,2022-07-06_05h00.05.664,Colour_Asymmetry_Pilot,2022.1.3,Win32,60.37189085,62c50e9c1127f2cd403a315f,0,10,10,83,1,twofour,,,,,,,,,,,,,,,,,,,,,,,,,,,,,,,,,,,,,,,,,,,,,,,,,,,,,,,,,,,,,,,,,,,,,,,,,,,,,,,,,,,,,,,,,,,,,,,,,,,,,,,,,,,,,,,,,,,,,,,,,,,,,,,,,,,,,,,,,,,,,,,,,,,,,,,,,
,,,,,,5bb511c6689fc5000149c703,62c5599c57f3a82b564ebbed,2022-07-06_05h00.05.664,Colour_Asymmetry_Pilot,2022.1.3,Win32,60.37189085,62c50e9c1127f2cd403a315f,0,11,11,88,1,onetwo,,,,,,,,,,,,,,,,,,,,,,,,,,,,,,,,,,,,,,,,,,,,,,,,,,,,,,,,,,,,,,,,,,,,,,,,,,,,,,,,,,,,,,,,,,,,,,,,,,,,,,,,,,,,,,,,,,,,,,,,,,,,,,,,,,,,,,,,,,,,,,,,,,,,,,,,,
,,,,,,5bb511c6689fc5000149c703,62c5599c57f3a82b564ebbed,2022-07-06_05h00.05.664,Colour_Asymmetry_Pilot,2022.1.3,Win32,60.37189085,62c50e9c1127f2cd403a315f,0,12,12,68,1,threeone,,,,,,,,,,,,,,,,,,,,,,,,,,,,,,,,,,,,,,,,,,,,,,,,,,,,,,,,,,,,,,,,,,,,,,,,,,,,,,,,,,,,,,,,,,,,,,,,,,,,,,,,,,,,,,,,,,,,,,,,,,,,,,,,,,,,,,,,,,,,,,,,,,,,,,,,,
,,,,,,5bb511c6689fc5000149c703,62c5599c57f3a82b564ebbed,2022-07-06_05h00.05.664,Colour_Asymmetry_Pilot,2022.1.3,Win32,60.37189085,62c50e9c1127f2cd403a315f,0,13,13,57,1,onethree,,,,,,,,,,,,,,,,,,,,,,,,,,,,,,,,,,,,,,,,,,,,,,,,,,,,,,,,,,,,,,,,,,,,,,,,,,,,,,,,,,,,,,,,,,,,,,,,,,,,,,,,,,,,,,,,,,,,,,,,,,,,,,,,,,,,,,,,,,,,,,,,,,,,,,,,,
,,,,,,5bb511c6689fc5000149c703,62c5599c57f3a82b564ebbed,2022-07-06_05h00.05.664,Colour_Asymmetry_Pilot,2022.1.3,Win32,60.37189085,62c50e9c1127f2cd403a315f,0,14,14,129,1,onethree,,,,,,,,,,,,,,,,,,,,,,,,,,,,,,,,,,,,,,,,,,,,,,,,,,,,,,,,,,,,,,,,,,,,,,,,,,,,,,,,,,,,,,,,,,,,,,,,,,,,,,,,,,,,,,,,,,,,,,,,,,,,,,,,,,,,,,,,,,,,,,,,,,,,,,,,,
,,,,,,5bb511c6689fc5000149c703,62c5599c57f3a82b564ebbed,2022-07-06_05h00.05.664,Colour_Asymmetry_Pilot,2022.1.3,Win32,60.37189085,62c50e9c1127f2cd403a315f,0,15,15,33,1,onethree,,,,,,,,,,,,,,,,,,,,,,,,,,,,,,,,,,,,,,,,,,,,,,,,,,,,,,,,,,,,,,,,,,,,,,,,,,,,,,,,,,,,,,,,,,,,,,,,,,,,,,,,,,,,,,,,,,,,,,,,,,,,,,,,,,,,,,,,,,,,,,,,,,,,,,,,,
,,,,,,5bb511c6689fc5000149c703,62c5599c57f3a82b564ebbed,2022-07-06_05h00.05.664,Colour_Asymmetry_Pilot,2022.1.3,Win32,60.37189085,62c50e9c1127f2cd403a315f,0,16,16,98,1,twoone,,,,,,,,,,,,,,,,,,,,,,,,,,,,,,,,,,,,,,,,,,,,,,,,,,,,,,,,,,,,,,,,,,,,,,,,,,,,,,,,,,,,,,,,,,,,,,,,,,,,,,,,,,,,,,,,,,,,,,,,,,,,,,,,,,,,,,,,,,,,,,,,,,,,,,,,,
,,,,,,5bb511c6689fc5000149c703,62c5599c57f3a82b564ebbed,2022-07-06_05h00.05.664,Colour_Asymmetry_Pilot,2022.1.3,Win32,60.37189085,62c50e9c1127f2cd403a315f,0,17,17,117,1,threefour,,,,,,,,,,,,,,,,,,,,,,,,,,,,,,,,,,,,,,,,,,,,,,,,,,,,,,,,,,,,,,,,,,,,,,,,,,,,,,,,,,,,,,,,,,,,,,,,,,,,,,,,,,,,,,,,,,,,,,,,,,,,,,,,,,,,,,,,,,,,,,,,,,,,,,,,,
,,,,,,5bb511c6689fc5000149c703,62c5599c57f3a82b564ebbed,2022-07-06_05h00.05.664,Colour_Asymmetry_Pilot,2022.1.3,Win32,60.37189085,62c50e9c1127f2cd403a315f,0,18,18,78,1,fourtwo,,,,,,,,,,,,,,,,,,,,,,,,,,,,,,,,,,,,,,,,,,,,,,,,,,,,,,,,,,,,,,,,,,,,,,,,,,,,,,,,,,,,,,,,,,,,,,,,,,,,,,,,,,,,,,,,,,,,,,,,,,,,,,,,,,,,,,,,,,,,,,,,,,,,,,,,,
,,,,,,5bb511c6689fc5000149c703,62c5599c57f3a82b564ebbed,2022-07-06_05h00.05.664,Colour_Asymmetry_Pilot,2022.1.3,Win32,60.37189085,62c50e9c1127f2cd403a315f,0,19,19,6,1,fourtwo,,,,,,,,,,,,,,,,,,,,,,,,,,,,,,,,,,,,,,,,,,,,,,,,,,,,,,,,,,,,,,,,,,,,,,,,,,,,,,,,,,,,,,,,,,,,,,,,,,,,,,,,,,,,,,,,,,,,,,,,,,,,,,,,,,,,,,,,,,,,,,,,,,,,,,,,,
,,,,,,5bb511c6689fc5000149c703,62c5599c57f3a82b564ebbed,2022-07-06_05h00.05.664,Colour_Asymmetry_Pilot,2022.1.3,Win32,60.37189085,62c50e9c1127f2cd403a315f,0,20,20,5,1,threefour,,,,,,,,,,,,,,,,,,,,,,,,,,,,,,,,,,,,,,,,,,,,,,,,,,,,,,,,,,,,,,,,,,,,,,,,,,,,,,,,,,,,,,,,,,,,,,,,,,,,,,,,,,,,,,,,,,,,,,,,,,,,,,,,,,,,,,,,,,,,,,,,,,,,,,,,,
,,,,,,5bb511c6689fc5000149c703,62c5599c57f3a82b564ebbed,2022-07-06_05h00.05.664,Colour_Asymmetry_Pilot,2022.1.3,Win32,60.37189085,62c50e9c1127f2cd403a315f,0,21,21,91,1,twofour,,,,,,,,,,,,,,,,,,,,,,,,,,,,,,,,,,,,,,,,,,,,,,,,,,,,,,,,,,,,,,,,,,,,,,,,,,,,,,,,,,,,,,,,,,,,,,,,,,,,,,,,,,,,,,,,,,,,,,,,,,,,,,,,,,,,,,,,,,,,,,,,,,,,,,,,,
,,,,,,5bb511c6689fc5000149c703,62c5599c57f3a82b564ebbed,2022-07-06_05h00.05.664,Colour_Asymmetry_Pilot,2022.1.3,Win32,60.37189085,62c50e9c1127f2cd403a315f,0,22,22,100,1,threeone,,,,,,,,,,,,,,,,,,,,,,,,,,,,,,,,,,,,,,,,,,,,,,,,,,,,,,,,,,,,,,,,,,,,,,,,,,,,,,,,,,,,,,,,,,,,,,,,,,,,,,,,,,,,,,,,,,,,,,,,,,,,,,,,,,,,,,,,,,,,,,,,,,,,,,,,,
,,,,,,5bb511c6689fc5000149c703,62c5599c57f3a82b564ebbed,2022-07-06_05h00.05.664,Colour_Asymmetry_Pilot,2022.1.3,Win32,60.37189085,62c50e9c1127f2cd403a315f,0,23,23,62,1,fourtwo,,,,,,,,,,,,,,,,,,,,,,,,,,,,,,,,,,,,,,,,,,,,,,,,,,,,,,,,,,,,,,,,,,,,,,,,,,,,,,,,,,,,,,,,,,,,,,,,,,,,,,,,,,,,,,,,,,,,,,,,,,,,,,,,,,,,,,,,,,,,,,,,,,,,,,,,,
,,,,,,5bb511c6689fc5000149c703,62c5599c57f3a82b564ebbed,2022-07-06_05h00.05.664,Colour_Asymmetry_Pilot,2022.1.3,Win32,60.37189085,62c50e9c1127f2cd403a315f,0,24,24,64,1,onetwo,,,,,,,,,,,,,,,,,,,,,,,,,,,,,,,,,,,,,,,,,,,,,,,,,,,,,,,,,,,,,,,,,,,,,,,,,,,,,,,,,,,,,,,,,,,,,,,,,,,,,,,,,,,,,,,,,,,,,,,,,,,,,,,,,,,,,,,,,,,,,,,,,,,,,,,,,
,,,,,,5bb511c6689fc5000149c703,62c5599c57f3a82b564ebbed,2022-07-06_05h00.05.664,Colour_Asymmetry_Pilot,2022.1.3,Win32,60.37189085,62c50e9c1127f2cd403a315f,0,25,25,84,1,threeone,,,,,,,,,,,,,,,,,,,,,,,,,,,,,,,,,,,,,,,,,,,,,,,,,,,,,,,,,,,,,,,,,,,,,,,,,,,,,,,,,,,,,,,,,,,,,,,,,,,,,,,,,,,,,,,,,,,,,,,,,,,,,,,,,,,,,,,,,,,,,,,,,,,,,,,,,
,,,,,,5bb511c6689fc5000149c703,62c5599c57f3a82b564ebbed,2022-07-06_05h00.05.664,Colour_Asymmetry_Pilot,2022.1.3,Win32,60.37189085,62c50e9c1127f2cd403a315f,0,26,26,69,1,threefour,,,,,,,,,,,,,,,,,,,,,,,,,,,,,,,,,,,,,,,,,,,,,,,,,,,,,,,,,,,,,,,,,,,,,,,,,,,,,,,,,,,,,,,,,,,,,,,,,,,,,,,,,,,,,,,,,,,,,,,,,,,,,,,,,,,,,,,,,,,,,,,,,,,,,,,,,
,,,,,,5bb511c6689fc5000149c703,62c5599c57f3a82b564ebbed,2022-07-06_05h00.05.664,Colour_Asymmetry_Pilot,2022.1.3,Win32,60.37189085,62c50e9c1127f2cd403a315f,0,27,27,124,1,threeone,,,,,,,,,,,,,,,,,,,,,,,,,,,,,,,,,,,,,,,,,,,,,,,,,,,,,,,,,,,,,,,,,,,,,,,,,,,,,,,,,,,,,,,,,,,,,,,,,,,,,,,,,,,,,,,,,,,,,,,,,,,,,,,,,,,,,,,,,,,,,,,,,,,,,,,,,
,,,,,,5bb511c6689fc5000149c703,62c5599c57f3a82b564ebbed,2022-07-06_05h00.05.664,Colour_Asymmetry_Pilot,2022.1.3,Win32,60.37189085,62c50e9c1127f2cd403a315f,0,28,28,18,1,twoone,,,,,,,,,,,,,,,,,,,,,,,,,,,,,,,,,,,,,,,,,,,,,,,,,,,,,,,,,,,,,,,,,,,,,,,,,,,,,,,,,,,,,,,,,,,,,,,,,,,,,,,,,,,,,,,,,,,,,,,,,,,,,,,,,,,,,,,,,,,,,,,,,,,,,,,,,
,,,,,,5bb511c6689fc5000149c703,62c5599c57f3a82b564ebbed,2022-07-06_05h00.05.664,Colour_Asymmetry_Pilot,2022.1.3,Win32,60.37189085,62c50e9c1127f2cd403a315f,0,29,29,131,1,twofour,,,,,,,,,,,,,,,,,,,,,,,,,,,,,,,,,,,,,,,,,,,,,,,,,,,,,,,,,,,,,,,,,,,,,,,,,,,,,,,,,,,,,,,,,,,,,,,,,,,,,,,,,,,,,,,,,,,,,,,,,,,,,,,,,,,,,,,,,,,,,,,,,,,,,,,,,
,,,,,,5bb511c6689fc5000149c703,62c5599c57f3a82b564ebbed,2022-07-06_05h00.05.664,Colour_Asymmetry_Pilot,2022.1.3,Win32,60.37189085,62c50e9c1127f2cd403a315f,0,30,30,30,1,fourtwo,,,,,,,,,,,,,,,,,,,,,,,,,,,,,,,,,,,,,,,,,,,,,,,,,,,,,,,,,,,,,,,,,,,,,,,,,,,,,,,,,,,,,,,,,,,,,,,,,,,,,,,,,,,,,,,,,,,,,,,,,,,,,,,,,,,,,,,,,,,,,,,,,,,,,,,,,
,,,,,,5bb511c6689fc5000149c703,62c5599c57f3a82b564ebbed,2022-07-06_05h00.05.664,Colour_Asymmetry_Pilot,2022.1.3,Win32,60.37189085,62c50e9c1127f2cd403a315f,0,31,31,82,1,twoone,,,,,,,,,,,,,,,,,,,,,,,,,,,,,,,,,,,,,,,,,,,,,,,,,,,,,,,,,,,,,,,,,,,,,,,,,,,,,,,,,,,,,,,,,,,,,,,,,,,,,,,,,,,,,,,,,,,,,,,,,,,,,,,,,,,,,,,,,,,,,,,,,,,,,,,,,
,,,,,,5bb511c6689fc5000149c703,62c5599c57f3a82b564ebbed,2022-07-06_05h00.05.664,Colour_Asymmetry_Pilot,2022.1.3,Win32,60.37189085,62c50e9c1127f2cd403a315f,0,32,32,32,1,onetwo,,,,,,,,,,,,,,,,,,,,,,,,,,,,,,,,,,,,,,,,,,,,,,,,,,,,,,,,,,,,,,,,,,,,,,,,,,,,,,,,,,,,,,,,,,,,,,,,,,,,,,,,,,,,,,,,,,,,,,,,,,,,,,,,,,,,,,,,,,,,,,,,,,,,,,,,,
,,,,,,5bb511c6689fc5000149c703,62c5599c57f3a82b564ebbed,2022-07-06_05h00.05.664,Colour_Asymmetry_Pilot,2022.1.3,Win32,60.37189085,62c50e9c1127f2cd403a315f,0,33,33,87,1,fourthree,,,,,,,,,,,,,,,,,,,,,,,,,,,,,,,,,,,,,,,,,,,,,,,,,,,,,,,,,,,,,,,,,,,,,,,,,,,,,,,,,,,,,,,,,,,,,,,,,,,,,,,,,,,,,,,,,,,,,,,,,,,,,,,,,,,,,,,,,,,,,,,,,,,,,,,,,
,,,,,,5bb511c6689fc5000149c703,62c5599c57f3a82b564ebbed,2022-07-06_05h00.05.664,Colour_Asymmetry_Pilot,2022.1.3,Win32,60.37189085,62c50e9c1127f2cd403a315f,0,34,34,44,1,threeone,,,,,,,,,,,,,,,,,,,,,,,,,,,,,,,,,,,,,,,,,,,,,,,,,,,,,,,,,,,,,,,,,,,,,,,,,,,,,,,,,,,,,,,,,,,,,,,,,,,,,,,,,,,,,,,,,,,,,,,,,,,,,,,,,,,,,,,,,,,,,,,,,,,,,,,,,
,,,,,,5bb511c6689fc5000149c703,62c5599c57f3a82b564ebbed,2022-07-06_05h00.05.664,Colour_Asymmetry_Pilot,2022.1.3,Win32,60.37189085,62c50e9c1127f2cd403a315f,0,35,35,156,1,threeone,,,,,,,,,,,,,,,,,,,,,,,,,,,,,,,,,,,,,,,,,,,,,,,,,,,,,,,,,,,,,,,,,,,,,,,,,,,,,,,,,,,,,,,,,,,,,,,,,,,,,,,,,,,,,,,,,,,,,,,,,,,,,,,,,,,,,,,,,,,,,,,,,,,,,,,,,
,,,,,,5bb511c6689fc5000149c703,62c5599c57f3a82b564ebbed,2022-07-06_05h00.05.664,Colour_Asymmetry_Pilot,2022.1.3,Win32,60.37189085,62c50e9c1127f2cd403a315f,0,36,36,39,1,fourthree,,,,,,,,,,,,,,,,,,,,,,,,,,,,,,,,,,,,,,,,,,,,,,,,,,,,,,,,,,,,,,,,,,,,,,,,,,,,,,,,,,,,,,,,,,,,,,,,,,,,,,,,,,,,,,,,,,,,,,,,,,,,,,,,,,,,,,,,,,,,,,,,,,,,,,,,,
,,,,,,5bb511c6689fc5000149c703,62c5599c57f3a82b564ebbed,2022-07-06_05h00.05.664,Colour_Asymmetry_Pilot,2022.1.3,Win32,60.37189085,62c50e9c1127f2cd403a315f,0,37,37,150,1,fourtwo,,,,,,,,,,,,,,,,,,,,,,,,,,,,,,,,,,,,,,,,,,,,,,,,,,,,,,,,,,,,,,,,,,,,,,,,,,,,,,,,,,,,,,,,,,,,,,,,,,,,,,,,,,,,,,,,,,,,,,,,,,,,,,,,,,,,,,,,,,,,,,,,,,,,,,,,,
,,,,,,5bb511c6689fc5000149c703,62c5599c57f3a82b564ebbed,2022-07-06_05h00.05.664,Colour_Asymmetry_Pilot,2022.1.3,Win32,60.37189085,62c50e9c1127f2cd403a315f,0,38,38,104,1,onetwo,,,,,,,,,,,,,,,,,,,,,,,,,,,,,,,,,,,,,,,,,,,,,,,,,,,,,,,,,,,,,,,,,,,,,,,,,,,,,,,,,,,,,,,,,,,,,,,,,,,,,,,,,,,,,,,,,,,,,,,,,,,,,,,,,,,,,,,,,,,,,,,,,,,,,,,,,
,,,,,,5bb511c6689fc5000149c703,62c5599c57f3a82b564ebbed,2022-07-06_05h00.05.664,Colour_Asymmetry_Pilot,2022.1.3,Win32,60.37189085,62c50e9c1127f2cd403a315f,0,39,39,22,1,fourtwo,,,,,,,,,,,,,,,,,,,,,,,,,,,,,,,,,,,,,,,,,,,,,,,,,,,,,,,,,,,,,,,,,,,,,,,,,,,,,,,,,,,,,,,,,,,,,,,,,,,,,,,,,,,,,,,,,,,,,,,,,,,,,,,,,,,,,,,,,,,,,,,,,,,,,,,,,
,,,,,,5bb511c6689fc5000149c703,62c5599c57f3a82b564ebbed,2022-07-06_05h00.05.664,Colour_Asymmetry_Pilot,2022.1.3,Win32,60.37189085,62c50e9c1127f2cd403a315f,0,40,40,115,1,twofour,,,,,,,,,,,,,,,,,,,,,,,,,,,,,,,,,,,,,,,,,,,,,,,,,,,,,,,,,,,,,,,,,,,,,,,,,,,,,,,,,,,,,,,,,,,,,,,,,,,,,,,,,,,,,,,,,,,,,,,,,,,,,,,,,,,,,,,,,,,,,,,,,,,,,,,,,
,,,,,,5bb511c6689fc5000149c703,62c5599c57f3a82b564ebbed,2022-07-06_05h00.05.664,Colour_Asymmetry_Pilot,2022.1.3,Win32,60.37189085,62c50e9c1127f2cd403a315f,0,41,41,93,1,threefour,,,,,,,,,,,,,,,,,,,,,,,,,,,,,,,,,,,,,,,,,,,,,,,,,,,,,,,,,,,,,,,,,,,,,,,,,,,,,,,,,,,,,,,,,,,,,,,,,,,,,,,,,,,,,,,,,,,,,,,,,,,,,,,,,,,,,,,,,,,,,,,,,,,,,,,,,
,,,,,,5bb511c6689fc5000149c703,62c5599c57f3a82b564ebbed,2022-07-06_05h00.05.664,Colour_Asymmetry_Pilot,2022.1.3,Win32,60.37189085,62c50e9c1127f2cd403a315f,0,42,42,72,1,onetwo,,,,,,,,,,,,,,,,,,,,,,,,,,,,,,,,,,,,,,,,,,,,,,,,,,,,,,,,,,,,,,,,,,,,,,,,,,,,,,,,,,,,,,,,,,,,,,,,,,,,,,,,,,,,,,,,,,,,,,,,,,,,,,,,,,,,,,,,,,,,,,,,,,,,,,,,,
,,,,,,5bb511c6689fc5000149c703,62c5599c57f3a82b564ebbed,2022-07-06_05h00.05.664,Colour_Asymmetry_Pilot,2022.1.3,Win32,60.37189085,62c50e9c1127f2cd403a315f,0,43,43,37,1,threefour,,,,,,,,,,,,,,,,,,,,,,,,,,,,,,,,,,,,,,,,,,,,,,,,,,,,,,,,,,,,,,,,,,,,,,,,,,,,,,,,,,,,,,,,,,,,,,,,,,,,,,,,,,,,,,,,,,,,,,,,,,,,,,,,,,,,,,,,,,,,,,,,,,,,,,,,,
,,,,,,5bb511c6689fc5000149c703,62c5599c57f3a82b564ebbed,2022-07-06_05h00.05.664,Colour_Asymmetry_Pilot,2022.1.3,Win32,60.37189085,62c50e9c1127f2cd403a315f,0,44,44,59,1,twofour,,,,,,,,,,,,,,,,,,,,,,,,,,,,,,,,,,,,,,,,,,,,,,,,,,,,,,,,,,,,,,,,,,,,,,,,,,,,,,,,,,,,,,,,,,,,,,,,,,,,,,,,,,,,,,,,,,,,,,,,,,,,,,,,,,,,,,,,,,,,,,,,,,,,,,,,,
,,,,,,5bb511c6689fc5000149c703,62c5599c57f3a82b564ebbed,2022-07-06_05h00.05.664,Colour_Asymmetry_Pilot,2022.1.3,Win32,60.37189085,62c50e9c1127f2cd403a315f,0,45,45,13,1,threefour,,,,,,,,,,,,,,,,,,,,,,,,,,,,,,,,,,,,,,,,,,,,,,,,,,,,,,,,,,,,,,,,,,,,,,,,,,,,,,,,,,,,,,,,,,,,,,,,,,,,,,,,,,,,,,,,,,,,,,,,,,,,,,,,,,,,,,,,,,,,,,,,,,,,,,,,,
,,,,,,5bb511c6689fc5000149c703,62c5599c57f3a82b564ebbed,2022-07-06_05h00.05.664,Colour_Asymmetry_Pilot,2022.1.3,Win32,60.37189085,62c50e9c1127f2cd403a315f,0,46,46,128,1,onetwo,,,,,,,,,,,,,,,,,,,,,,,,,,,,,,,,,,,,,,,,,,,,,,,,,,,,,,,,,,,,,,,,,,,,,,,,,,,,,,,,,,,,,,,,,,,,,,,,,,,,,,,,,,,,,,,,,,,,,,,,,,,,,,,,,,,,,,,,,,,,,,,,,,,,,,,,,
,,,,,,5bb511c6689fc5000149c703,62c5599c57f3a82b564ebbed,2022-07-06_05h00.05.664,Colour_Asymmetry_Pilot,2022.1.3,Win32,60.37189085,62c50e9c1127f2cd403a315f,0,47,47,63,1,fourthree,,,,,,,,,,,,,,,,,,,,,,,,,,,,,,,,,,,,,,,,,,,,,,,,,,,,,,,,,,,,,,,,,,,,,,,,,,,,,,,,,,,,,,,,,,,,,,,,,,,,,,,,,,,,,,,,,,,,,,,,,,,,,,,,,,,,,,,,,,,,,,,,,,,,,,,,,
,,,,,,5bb511c6689fc5000149c703,62c5599c57f3a82b564ebbed,2022-07-06_05h00.05.664,Colour_Asymmetry_Pilot,2022.1.3,Win32,60.37189085,62c50e9c1127f2cd403a315f,0,48,48,67,1,twofour,,,,,,,,,,,,,,,,,,,,,,,,,,,,,,,,,,,,,,,,,,,,,,,,,,,,,,,,,,,,,,,,,,,,,,,,,,,,,,,,,,,,,,,,,,,,,,,,,,,,,,,,,,,,,,,,,,,,,,,,,,,,,,,,,,,,,,,,,,,,,,,,,,,,,,,,,
,,,,,,5bb511c6689fc5000149c703,62c5599c57f3a82b564ebbed,2022-07-06_05h00.05.664,Colour_Asymmetry_Pilot,2022.1.3,Win32,60.37189085,62c50e9c1127f2cd403a315f,0,49,49,65,1,onethree,,,,,,,,,,,,,,,,,,,,,,,,,,,,,,,,,,,,,,,,,,,,,,,,,,,,,,,,,,,,,,,,,,,,,,,,,,,,,,,,,,,,,,,,,,,,,,,,,,,,,,,,,,,,,,,,,,,,,,,,,,,,,,,,,,,,,,,,,,,,,,,,,,,,,,,,,
,,,,,,5bb511c6689fc5000149c703,62c5599c57f3a82b564ebbed,2022-07-06_05h00.05.664,Colour_Asymmetry_Pilot,2022.1.3,Win32,60.37189085,62c50e9c1127f2cd403a315f,0,50,50,40,1,onetwo,,,,,,,,,,,,,,,,,,,,,,,,,,,,,,,,,,,,,,,,,,,,,,,,,,,,,,,,,,,,,,,,,,,,,,,,,,,,,,,,,,,,,,,,,,,,,,,,,,,,,,,,,,,,,,,,,,,,,,,,,,,,,,,,,,,,,,,,,,,,,,,,,,,,,,,,,
,,,,,,5bb511c6689fc5000149c703,62c5599c57f3a82b564ebbed,2022-07-06_05h00.05.664,Colour_Asymmetry_Pilot,2022.1.3,Win32,60.37189085,62c50e9c1127f2cd403a315f,0,51,51,108,1,threeone,,,,,,,,,,,,,,,,,,,,,,,,,,,,,,,,,,,,,,,,,,,,,,,,,,,,,,,,,,,,,,,,,,,,,,,,,,,,,,,,,,,,,,,,,,,,,,,,,,,,,,,,,,,,,,,,,,,,,,,,,,,,,,,,,,,,,,,,,,,,,,,,,,,,,,,,,
,,,,,,5bb511c6689fc5000149c703,62c5599c57f3a82b564ebbed,2022-07-06_05h00.05.664,Colour_Asymmetry_Pilot,2022.1.3,Win32,60.37189085,62c50e9c1127f2cd403a315f,0,52,52,51,1,twofour,,,,,,,,,,,,,,,,,,,,,,,,,,,,,,,,,,,,,,,,,,,,,,,,,,,,,,,,,,,,,,,,,,,,,,,,,,,,,,,,,,,,,,,,,,,,,,,,,,,,,,,,,,,,,,,,,,,,,,,,,,,,,,,,,,,,,,,,,,,,,,,,,,,,,,,,,
,,,,,,5bb511c6689fc5000149c703,62c5599c57f3a82b564ebbed,2022-07-06_05h00.05.664,Colour_Asymmetry_Pilot,2022.1.3,Win32,60.37189085,62c50e9c1127f2cd403a315f,0,53,53,139,1,twofour,,,,,,,,,,,,,,,,,,,,,,,,,,,,,,,,,,,,,,,,,,,,,,,,,,,,,,,,,,,,,,,,,,,,,,,,,,,,,,,,,,,,,,,,,,,,,,,,,,,,,,,,,,,,,,,,,,,,,,,,,,,,,,,,,,,,,,,,,,,,,,,,,,,,,,,,,
,,,,,,5bb511c6689fc5000149c703,62c5599c57f3a82b564ebbed,2022-07-06_05h00.05.664,Colour_Asymmetry_Pilot,2022.1.3,Win32,60.37189085,62c50e9c1127f2cd403a315f,0,54,54,146,1,twoone,,,,,,,,,,,,,,,,,,,,,,,,,,,,,,,,,,,,,,,,,,,,,,,,,,,,,,,,,,,,,,,,,,,,,,,,,,,,,,,,,,,,,,,,,,,,,,,,,,,,,,,,,,,,,,,,,,,,,,,,,,,,,,,,,,,,,,,,,,,,,,,,,,,,,,,,,
,,,,,,5bb511c6689fc5000149c703,62c5599c57f3a82b564ebbed,2022-07-06_05h00.05.664,Colour_Asymmetry_Pilot,2022.1.3,Win32,60.37189085,62c50e9c1127f2cd403a315f,0,55,55,96,1,onetwo,,,,,,,,,,,,,,,,,,,,,,,,,,,,,,,,,,,,,,,,,,,,,,,,,,,,,,,,,,,,,,,,,,,,,,,,,,,,,,,,,,,,,,,,,,,,,,,,,,,,,,,,,,,,,,,,,,,,,,,,,,,,,,,,,,,,,,,,,,,,,,,,,,,,,,,,,
,,,,,,5bb511c6689fc5000149c703,62c5599c57f3a82b564ebbed,2022-07-06_05h00.05.664,Colour_Asymmetry_Pilot,2022.1.3,Win32,60.37189085,62c50e9c1127f2cd403a315f,0,56,56,118,1,fourtwo,,,,,,,,,,,,,,,,,,,,,,,,,,,,,,,,,,,,,,,,,,,,,,,,,,,,,,,,,,,,,,,,,,,,,,,,,,,,,,,,,,,,,,,,,,,,,,,,,,,,,,,,,,,,,,,,,,,,,,,,,,,,,,,,,,,,,,,,,,,,,,,,,,,,,,,,,
,,,,,,5bb511c6689fc5000149c703,62c5599c57f3a82b564ebbed,2022-07-06_05h00.05.664,Colour_Asymmetry_Pilot,2022.1.3,Win32,60.37189085,62c50e9c1127f2cd403a315f,0,57,57,147,1,twofour,,,,,,,,,,,,,,,,,,,,,,,,,,,,,,,,,,,,,,,,,,,,,,,,,,,,,,,,,,,,,,,,,,,,,,,,,,,,,,,,,,,,,,,,,,,,,,,,,,,,,,,,,,,,,,,,,,,,,,,,,,,,,,,,,,,,,,,,,,,,,,,,,,,,,,,,,
,,,,,,5bb511c6689fc5000149c703,62c5599c57f3a82b564ebbed,2022-07-06_05h00.05.664,Colour_Asymmetry_Pilot,2022.1.3,Win32,60.37189085,62c50e9c1127f2cd403a315f,0,58,58,21,1,threefour,,,,,,,,,,,,,,,,,,,,,,,,,,,,,,,,,,,,,,,,,,,,,,,,,,,,,,,,,,,,,,,,,,,,,,,,,,,,,,,,,,,,,,,,,,,,,,,,,,,,,,,,,,,,,,,,,,,,,,,,,,,,,,,,,,,,,,,,,,,,,,,,,,,,,,,,,
,,,,,,5bb511c6689fc5000149c703,62c5599c57f3a82b564ebbed,2022-07-06_05h00.05.664,Colour_Asymmetry_Pilot,2022.1.3,Win32,60.37189085,62c50e9c1127f2cd403a315f,0,59,59,85,1,threefour,,,,,,,,,,,,,,,,,,,,,,,,,,,,,,,,,,,,,,,,,,,,,,,,,,,,,,,,,,,,,,,,,,,,,,,,,,,,,,,,,,,,,,,,,,,,,,,,,,,,,,,,,,,,,,,,,,,,,,,,,,,,,,,,,,,,,,,,,,,,,,,,,,,,,,,,,
,,,,,,5bb511c6689fc5000149c703,62c5599c57f3a82b564ebbed,2022-07-06_05h00.05.664,Colour_Asymmetry_Pilot,2022.1.3,Win32,60.37189085,62c50e9c1127f2cd403a315f,0,60,60,17,1,onethree,,,,,,,,,,,,,,,,,,,,,,,,,,,,,,,,,,,,,,,,,,,,,,,,,,,,,,,,,,,,,,,,,,,,,,,,,,,,,,,,,,,,,,,,,,,,,,,,,,,,,,,,,,,,,,,,,,,,,,,,,,,,,,,,,,,,,,,,,,,,,,,,,,,,,,,,,
,,,,,,5bb511c6689fc5000149c703,62c5599c57f3a82b564ebbed,2022-07-06_05h00.05.664,Colour_Asymmetry_Pilot,2022.1.3,Win32,60.37189085,62c50e9c1127f2cd403a315f,0,61,61,3,1,twofour,,,,,,,,,,,,,,,,,,,,,,,,,,,,,,,,,,,,,,,,,,,,,,,,,,,,,,,,,,,,,,,,,,,,,,,,,,,,,,,,,,,,,,,,,,,,,,,,,,,,,,,,,,,,,,,,,,,,,,,,,,,,,,,,,,,,,,,,,,,,,,,,,,,,,,,,,
,,,,,,5bb511c6689fc5000149c703,62c5599c57f3a82b564ebbed,2022-07-06_05h00.05.664,Colour_Asymmetry_Pilot,2022.1.3,Win32,60.37189085,62c50e9c1127f2cd403a315f,0,62,62,120,1,onetwo,,,,,,,,,,,,,,,,,,,,,,,,,,,,,,,,,,,,,,,,,,,,,,,,,,,,,,,,,,,,,,,,,,,,,,,,,,,,,,,,,,,,,,,,,,,,,,,,,,,,,,,,,,,,,,,,,,,,,,,,,,,,,,,,,,,,,,,,,,,,,,,,,,,,,,,,,
,,,,,,5bb511c6689fc5000149c703,62c5599c57f3a82b564ebbed,2022-07-06_05h00.05.664,Colour_Asymmetry_Pilot,2022.1.3,Win32,60.37189085,62c50e9c1127f2cd403a315f,0,63,63,19,1,twofour,,,,,,,,,,,,,,,,,,,,,,,,,,,,,,,,,,,,,,,,,,,,,,,,,,,,,,,,,,,,,,,,,,,,,,,,,,,,,,,,,,,,,,,,,,,,,,,,,,,,,,,,,,,,,,,,,,,,,,,,,,,,,,,,,,,,,,,,,,,,,,,,,,,,,,,,,
,,,,,,5bb511c6689fc5000149c703,62c5599c57f3a82b564ebbed,2022-07-06_05h00.05.664,Colour_Asymmetry_Pilot,2022.1.3,Win32,60.37189085,62c50e9c1127f2cd403a315f,0,64,64,101,1,threefour,,,,,,,,,,,,,,,,,,,,,,,,,,,,,,,,,,,,,,,,,,,,,,,,,,,,,,,,,,,,,,,,,,,,,,,,,,,,,,,,,,,,,,,,,,,,,,,,,,,,,,,,,,,,,,,,,,,,,,,,,,,,,,,,,,,,,,,,,,,,,,,,,,,,,,,,,
,,,,,,5bb511c6689fc5000149c703,62c5599c57f3a82b564ebbed,2022-07-06_05h00.05.664,Colour_Asymmetry_Pilot,2022.1.3,Win32,60.37189085,62c50e9c1127f2cd403a315f,0,65,65,92,1,threeone,,,,,,,,,,,,,,,,,,,,,,,,,,,,,,,,,,,,,,,,,,,,,,,,,,,,,,,,,,,,,,,,,,,,,,,,,,,,,,,,,,,,,,,,,,,,,,,,,,,,,,,,,,,,,,,,,,,,,,,,,,,,,,,,,,,,,,,,,,,,,,,,,,,,,,,,,
,,,,,,5bb511c6689fc5000149c703,62c5599c57f3a82b564ebbed,2022-07-06_05h00.05.664,Colour_Asymmetry_Pilot,2022.1.3,Win32,60.37189085,62c50e9c1127f2cd403a315f,0,66,66,137,1,onethree,,,,,,,,,,,,,,,,,,,,,,,,,,,,,,,,,,,,,,,,,,,,,,,,,,,,,,,,,,,,,,,,,,,,,,,,,,,,,,,,,,,,,,,,,,,,,,,,,,,,,,,,,,,,,,,,,,,,,,,,,,,,,,,,,,,,,,,,,,,,,,,,,,,,,,,,,
,,,,,,5bb511c6689fc5000149c703,62c5599c57f3a82b564ebbed,2022-07-06_05h00.05.664,Colour_Asymmetry_Pilot,2022.1.3,Win32,60.37189085,62c50e9c1127f2cd403a315f,0,67,67,102,1,fourtwo,,,,,,,,,,,,,,,,,,,,,,,,,,,,,,,,,,,,,,,,,,,,,,,,,,,,,,,,,,,,,,,,,,,,,,,,,,,,,,,,,,,,,,,,,,,,,,,,,,,,,,,,,,,,,,,,,,,,,,,,,,,,,,,,,,,,,,,,,,,,,,,,,,,,,,,,,
,,,,,,5bb511c6689fc5000149c703,62c5599c57f3a82b564ebbed,2022-07-06_05h00.05.664,Colour_Asymmetry_Pilot,2022.1.3,Win32,60.37189085,62c50e9c1127f2cd403a315f,0,68,68,145,1,onethree,,,,,,,,,,,,,,,,,,,,,,,,,,,,,,,,,,,,,,,,,,,,,,,,,,,,,,,,,,,,,,,,,,,,,,,,,,,,,,,,,,,,,,,,,,,,,,,,,,,,,,,,,,,,,,,,,,,,,,,,,,,,,,,,,,,,,,,,,,,,,,,,,,,,,,,,,
,,,,,,5bb511c6689fc5000149c703,62c5599c57f3a82b564ebbed,2022-07-06_05h00.05.664,Colour_Asymmetry_Pilot,2022.1.3,Win32,60.37189085,62c50e9c1127f2cd403a315f,0,69,69,148,1,threeone,,,,,,,,,,,,,,,,,,,,,,,,,,,,,,,,,,,,,,,,,,,,,,,,,,,,,,,,,,,,,,,,,,,,,,,,,,,,,,,,,,,,,,,,,,,,,,,,,,,,,,,,,,,,,,,,,,,,,,,,,,,,,,,,,,,,,,,,,,,,,,,,,,,,,,,,,
,,,,,,5bb511c6689fc5000149c703,62c5599c57f3a82b564ebbed,2022-07-06_05h00.05.664,Colour_Asymmetry_Pilot,2022.1.3,Win32,60.37189085,62c50e9c1127f2cd403a315f,0,70,70,47,1,fourthree,,,,,,,,,,,,,,,,,,,,,,,,,,,,,,,,,,,,,,,,,,,,,,,,,,,,,,,,,,,,,,,,,,,,,,,,,,,,,,,,,,,,,,,,,,,,,,,,,,,,,,,,,,,,,,,,,,,,,,,,,,,,,,,,,,,,,,,,,,,,,,,,,,,,,,,,,
,,,,,,5bb511c6689fc5000149c703,62c5599c57f3a82b564ebbed,2022-07-06_05h00.05.664,Colour_Asymmetry_Pilot,2022.1.3,Win32,60.37189085,62c50e9c1127f2cd403a315f,0,71,71,20,1,threeone,,,,,,,,,,,,,,,,,,,,,,,,,,,,,,,,,,,,,,,,,,,,,,,,,,,,,,,,,,,,,,,,,,,,,,,,,,,,,,,,,,,,,,,,,,,,,,,,,,,,,,,,,,,,,,,,,,,,,,,,,,,,,,,,,,,,,,,,,,,,,,,,,,,,,,,,,
,,,,,,5bb511c6689fc5000149c703,62c5599c57f3a82b564ebbed,2022-07-06_05h00.05.664,Colour_Asymmetry_Pilot,2022.1.3,Win32,60.37189085,62c50e9c1127f2cd403a315f,0,72,72,14,1,fourtwo,,,,,,,,,,,,,,,,,,,,,,,,,,,,,,,,,,,,,,,,,,,,,,,,,,,,,,,,,,,,,,,,,,,,,,,,,,,,,,,,,,,,,,,,,,,,,,,,,,,,,,,,,,,,,,,,,,,,,,,,,,,,,,,,,,,,,,,,,,,,,,,,,,,,,,,,,
,,,,,,5bb511c6689fc5000149c703,62c5599c57f3a82b564ebbed,2022-07-06_05h00.05.664,Colour_Asymmetry_Pilot,2022.1.3,Win32,60.37189085,62c50e9c1127f2cd403a315f,0,73,73,7,1,fourthree,,,,,,,,,,,,,,,,,,,,,,,,,,,,,,,,,,,,,,,,,,,,,,,,,,,,,,,,,,,,,,,,,,,,,,,,,,,,,,,,,,,,,,,,,,,,,,,,,,,,,,,,,,,,,,,,,,,,,,,,,,,,,,,,,,,,,,,,,,,,,,,,,,,,,,,,,
,,,,,,5bb511c6689fc5000149c703,62c5599c57f3a82b564ebbed,2022-07-06_05h00.05.664,Colour_Asymmetry_Pilot,2022.1.3,Win32,60.37189085,62c50e9c1127f2cd403a315f,0,74,74,79,1,fourthree,,,,,,,,,,,,,,,,,,,,,,,,,,,,,,,,,,,,,,,,,,,,,,,,,,,,,,,,,,,,,,,,,,,,,,,,,,,,,,,,,,,,,,,,,,,,,,,,,,,,,,,,,,,,,,,,,,,,,,,,,,,,,,,,,,,,,,,,,,,,,,,,,,,,,,,,,
,,,,,,5bb511c6689fc5000149c703,62c5599c57f3a82b564ebbed,2022-07-06_05h00.05.664,Colour_Asymmetry_Pilot,2022.1.3,Win32,60.37189085,62c50e9c1127f2cd403a315f,0,75,75,99,1,twofour,,,,,,,,,,,,,,,,,,,,,,,,,,,,,,,,,,,,,,,,,,,,,,,,,,,,,,,,,,,,,,,,,,,,,,,,,,,,,,,,,,,,,,,,,,,,,,,,,,,,,,,,,,,,,,,,,,,,,,,,,,,,,,,,,,,,,,,,,,,,,,,,,,,,,,,,,
,,,,,,5bb511c6689fc5000149c703,62c5599c57f3a82b564ebbed,2022-07-06_05h00.05.664,Colour_Asymmetry_Pilot,2022.1.3,Win32,60.37189085,62c50e9c1127f2cd403a315f,0,76,76,55,1,fourthree,,,,,,,,,,,,,,,,,,,,,,,,,,,,,,,,,,,,,,,,,,,,,,,,,,,,,,,,,,,,,,,,,,,,,,,,,,,,,,,,,,,,,,,,,,,,,,,,,,,,,,,,,,,,,,,,,,,,,,,,,,,,,,,,,,,,,,,,,,,,,,,,,,,,,,,,,
,,,,,,5bb511c6689fc5000149c703,62c5599c57f3a82b564ebbed,2022-07-06_05h00.05.664,Colour_Asymmetry_Pilot,2022.1.3,Win32,60.37189085,62c50e9c1127f2cd403a315f,0,77,77,112,1,onetwo,,,,,,,,,,,,,,,,,,,,,,,,,,,,,,,,,,,,,,,,,,,,,,,,,,,,,,,,,,,,,,,,,,,,,,,,,,,,,,,,,,,,,,,,,,,,,,,,,,,,,,,,,,,,,,,,,,,,,,,,,,,,,,,,,,,,,,,,,,,,,,,,,,,,,,,,,
,,,,,,5bb511c6689fc5000149c703,62c5599c57f3a82b564ebbed,2022-07-06_05h00.05.664,Colour_Asymmetry_Pilot,2022.1.3,Win32,60.37189085,62c50e9c1127f2cd403a315f,0,78,78,125,1,threefour,,,,,,,,,,,,,,,,,,,,,,,,,,,,,,,,,,,,,,,,,,,,,,,,,,,,,,,,,,,,,,,,,,,,,,,,,,,,,,,,,,,,,,,,,,,,,,,,,,,,,,,,,,,,,,,,,,,,,,,,,,,,,,,,,,,,,,,,,,,,,,,,,,,,,,,,,
,,,,,,5bb511c6689fc5000149c703,62c5599c57f3a82b564ebbed,2022-07-06_05h00.05.664,Colour_Asymmetry_Pilot,2022.1.3,Win32,60.37189085,62c50e9c1127f2cd403a315f,0,79,79,143,1,fourthree,,,,,,,,,,,,,,,,,,,,,,,,,,,,,,,,,,,,,,,,,,,,,,,,,,,,,,,,,,,,,,,,,,,,,,,,,,,,,,,,,,,,,,,,,,,,,,,,,,,,,,,,,,,,,,,,,,,,,,,,,,,,,,,,,,,,,,,,,,,,,,,,,,,,,,,,,
,,,,,,5bb511c6689fc5000149c703,62c5599c57f3a82b564ebbed,2022-07-06_05h00.05.664,Colour_Asymmetry_Pilot,2022.1.3,Win32,60.37189085,62c50e9c1127f2cd403a315f,0,80,80,58,1,twoone,,,,,,,,,,,,,,,,,,,,,,,,,,,,,,,,,,,,,,,,,,,,,,,,,,,,,,,,,,,,,,,,,,,,,,,,,,,,,,,,,,,,,,,,,,,,,,,,,,,,,,,,,,,,,,,,,,,,,,,,,,,,,,,,,,,,,,,,,,,,,,,,,,,,,,,,,
,,,,,,5bb511c6689fc5000149c703,62c5599c57f3a82b564ebbed,2022-07-06_05h00.05.664,Colour_Asymmetry_Pilot,2022.1.3,Win32,60.37189085,62c50e9c1127f2cd403a315f,0,81,81,127,1,fourthree,,,,,,,,,,,,,,,,,,,,,,,,,,,,,,,,,,,,,,,,,,,,,,,,,,,,,,,,,,,,,,,,,,,,,,,,,,,,,,,,,,,,,,,,,,,,,,,,,,,,,,,,,,,,,,,,,,,,,,,,,,,,,,,,,,,,,,,,,,,,,,,,,,,,,,,,,
,,,,,,5bb511c6689fc5000149c703,62c5599c57f3a82b564ebbed,2022-07-06_05h00.05.664,Colour_Asymmetry_Pilot,2022.1.3,Win32,60.37189085,62c50e9c1127f2cd403a315f,0,82,82,121,1,onethree,,,,,,,,,,,,,,,,,,,,,,,,,,,,,,,,,,,,,,,,,,,,,,,,,,,,,,,,,,,,,,,,,,,,,,,,,,,,,,,,,,,,,,,,,,,,,,,,,,,,,,,,,,,,,,,,,,,,,,,,,,,,,,,,,,,,,,,,,,,,,,,,,,,,,,,,,
,,,,,,5bb511c6689fc5000149c703,62c5599c57f3a82b564ebbed,2022-07-06_05h00.05.664,Colour_Asymmetry_Pilot,2022.1.3,Win32,60.37189085,62c50e9c1127f2cd403a315f,0,83,83,34,1,twoone,,,,,,,,,,,,,,,,,,,,,,,,,,,,,,,,,,,,,,,,,,,,,,,,,,,,,,,,,,,,,,,,,,,,,,,,,,,,,,,,,,,,,,,,,,,,,,,,,,,,,,,,,,,,,,,,,,,,,,,,,,,,,,,,,,,,,,,,,,,,,,,,,,,,,,,,,
,,,,,,5bb511c6689fc5000149c703,62c5599c57f3a82b564ebbed,2022-07-06_05h00.05.664,Colour_Asymmetry_Pilot,2022.1.3,Win32,60.37189085,62c50e9c1127f2cd403a315f,0,84,84,97,1,onethree,,,,,,,,,,,,,,,,,,,,,,,,,,,,,,,,,,,,,,,,,,,,,,,,,,,,,,,,,,,,,,,,,,,,,,,,,,,,,,,,,,,,,,,,,,,,,,,,,,,,,,,,,,,,,,,,,,,,,,,,,,,,,,,,,,,,,,,,,,,,,,,,,,,,,,,,,
,,,,,,5bb511c6689fc5000149c703,62c5599c57f3a82b564ebbed,2022-07-06_05h00.05.664,Colour_Asymmetry_Pilot,2022.1.3,Win32,60.37189085,62c50e9c1127f2cd403a315f,0,85,85,103,1,fourthree,,,,,,,,,,,,,,,,,,,,,,,,,,,,,,,,,,,,,,,,,,,,,,,,,,,,,,,,,,,,,,,,,,,,,,,,,,,,,,,,,,,,,,,,,,,,,,,,,,,,,,,,,,,,,,,,,,,,,,,,,,,,,,,,,,,,,,,,,,,,,,,,,,,,,,,,,
,,,,,,5bb511c6689fc5000149c703,62c5599c57f3a82b564ebbed,2022-07-06_05h00.05.664,Colour_Asymmetry_Pilot,2022.1.3,Win32,60.37189085,62c50e9c1127f2cd403a315f,0,86,86,77,1,threefour,,,,,,,,,,,,,,,,,,,,,,,,,,,,,,,,,,,,,,,,,,,,,,,,,,,,,,,,,,,,,,,,,,,,,,,,,,,,,,,,,,,,,,,,,,,,,,,,,,,,,,,,,,,,,,,,,,,,,,,,,,,,,,,,,,,,,,,,,,,,,,,,,,,,,,,,,
,,,,,,5bb511c6689fc5000149c703,62c5599c57f3a82b564ebbed,2022-07-06_05h00.05.664,Colour_Asymmetry_Pilot,2022.1.3,Win32,60.37189085,62c50e9c1127f2cd403a315f,0,87,87,43,1,twofour,,,,,,,,,,,,,,,,,,,,,,,,,,,,,,,,,,,,,,,,,,,,,,,,,,,,,,,,,,,,,,,,,,,,,,,,,,,,,,,,,,,,,,,,,,,,,,,,,,,,,,,,,,,,,,,,,,,,,,,,,,,,,,,,,,,,,,,,,,,,,,,,,,,,,,,,,
,,,,,,5bb511c6689fc5000149c703,62c5599c57f3a82b564ebbed,2022-07-06_05h00.05.664,Colour_Asymmetry_Pilot,2022.1.3,Win32,60.37189085,62c50e9c1127f2cd403a315f,0,88,88,52,1,threeone,,,,,,,,,,,,,,,,,,,,,,,,,,,,,,,,,,,,,,,,,,,,,,,,,,,,,,,,,,,,,,,,,,,,,,,,,,,,,,,,,,,,,,,,,,,,,,,,,,,,,,,,,,,,,,,,,,,,,,,,,,,,,,,,,,,,,,,,,,,,,,,,,,,,,,,,,
,,,,,,5bb511c6689fc5000149c703,62c5599c57f3a82b564ebbed,2022-07-06_05h00.05.664,Colour_Asymmetry_Pilot,2022.1.3,Win32,60.37189085,62c50e9c1127f2cd403a315f,0,89,89,141,1,threefour,,,,,,,,,,,,,,,,,,,,,,,,,,,,,,,,,,,,,,,,,,,,,,,,,,,,,,,,,,,,,,,,,,,,,,,,,,,,,,,,,,,,,,,,,,,,,,,,,,,,,,,,,,,,,,,,,,,,,,,,,,,,,,,,,,,,,,,,,,,,,,,,,,,,,,,,,
,,,,,,5bb511c6689fc5000149c703,62c5599c57f3a82b564ebbed,2022-07-06_05h00.05.664,Colour_Asymmetry_Pilot,2022.1.3,Win32,60.37189085,62c50e9c1127f2cd403a315f,0,90,90,110,1,fourtwo,,,,,,,,,,,,,,,,,,,,,,,,,,,,,,,,,,,,,,,,,,,,,,,,,,,,,,,,,,,,,,,,,,,,,,,,,,,,,,,,,,,,,,,,,,,,,,,,,,,,,,,,,,,,,,,,,,,,,,,,,,,,,,,,,,,,,,,,,,,,,,,,,,,,,,,,,
,,,,,,5bb511c6689fc5000149c703,62c5599c57f3a82b564ebbed,2022-07-06_05h00.05.664,Colour_Asymmetry_Pilot,2022.1.3,Win32,60.37189085,62c50e9c1127f2cd403a315f,0,91,91,111,1,fourthree,,,,,,,,,,,,,,,,,,,,,,,,,,,,,,,,,,,,,,,,,,,,,,,,,,,,,,,,,,,,,,,,,,,,,,,,,,,,,,,,,,,,,,,,,,,,,,,,,,,,,,,,,,,,,,,,,,,,,,,,,,,,,,,,,,,,,,,,,,,,,,,,,,,,,,,,,
,,,,,,5bb511c6689fc5000149c703,62c5599c57f3a82b564ebbed,2022-07-06_05h00.05.664,Colour_Asymmetry_Pilot,2022.1.3,Win32,60.37189085,62c50e9c1127f2cd403a315f,0,92,92,24,1,onetwo,,,,,,,,,,,,,,,,,,,,,,,,,,,,,,,,,,,,,,,,,,,,,,,,,,,,,,,,,,,,,,,,,,,,,,,,,,,,,,,,,,,,,,,,,,,,,,,,,,,,,,,,,,,,,,,,,,,,,,,,,,,,,,,,,,,,,,,,,,,,,,,,,,,,,,,,,
,,,,,,5bb511c6689fc5000149c703,62c5599c57f3a82b564ebbed,2022-07-06_05h00.05.664,Colour_Asymmetry_Pilot,2022.1.3,Win32,60.37189085,62c50e9c1127f2cd403a315f,0,93,93,36,1,threeone,,,,,,,,,,,,,,,,,,,,,,,,,,,,,,,,,,,,,,,,,,,,,,,,,,,,,,,,,,,,,,,,,,,,,,,,,,,,,,,,,,,,,,,,,,,,,,,,,,,,,,,,,,,,,,,,,,,,,,,,,,,,,,,,,,,,,,,,,,,,,,,,,,,,,,,,,
,,,,,,5bb511c6689fc5000149c703,62c5599c57f3a82b564ebbed,2022-07-06_05h00.05.664,Colour_Asymmetry_Pilot,2022.1.3,Win32,60.37189085,62c50e9c1127f2cd403a315f,0,94,94,158,1,fourtwo,,,,,,,,,,,,,,,,,,,,,,,,,,,,,,,,,,,,,,,,,,,,,,,,,,,,,,,,,,,,,,,,,,,,,,,,,,,,,,,,,,,,,,,,,,,,,,,,,,,,,,,,,,,,,,,,,,,,,,,,,,,,,,,,,,,,,,,,,,,,,,,,,,,,,,,,,
,,,,,,5bb511c6689fc5000149c703,62c5599c57f3a82b564ebbed,2022-07-06_05h00.05.664,Colour_Asymmetry_Pilot,2022.1.3,Win32,60.37189085,62c50e9c1127f2cd403a315f,0,95,95,95,1,fourthree,,,,,,,,,,,,,,,,,,,,,,,,,,,,,,,,,,,,,,,,,,,,,,,,,,,,,,,,,,,,,,,,,,,,,,,,,,,,,,,,,,,,,,,,,,,,,,,,,,,,,,,,,,,,,,,,,,,,,,,,,,,,,,,,,,,,,,,,,,,,,,,,,,,,,,,,,
,,,,,,5bb511c6689fc5000149c703,62c5599c57f3a82b564ebbed,2022-07-06_05h00.05.664,Colour_Asymmetry_Pilot,2022.1.3,Win32,60.37189085,62c50e9c1127f2cd403a315f,0,96,96,74,1,twoone,,,,,,,,,,,,,,,,,,,,,,,,,,,,,,,,,,,,,,,,,,,,,,,,,,,,,,,,,,,,,,,,,,,,,,,,,,,,,,,,,,,,,,,,,,,,,,,,,,,,,,,,,,,,,,,,,,,,,,,,,,,,,,,,,,,,,,,,,,,,,,,,,,,,,,,,,
,,,,,,5bb511c6689fc5000149c703,62c5599c57f3a82b564ebbed,2022-07-06_05h00.05.664,Colour_Asymmetry_Pilot,2022.1.3,Win32,60.37189085,62c50e9c1127f2cd403a315f,0,97,97,154,1,twoone,,,,,,,,,,,,,,,,,,,,,,,,,,,,,,,,,,,,,,,,,,,,,,,,,,,,,,,,,,,,,,,,,,,,,,,,,,,,,,,,,,,,,,,,,,,,,,,,,,,,,,,,,,,,,,,,,,,,,,,,,,,,,,,,,,,,,,,,,,,,,,,,,,,,,,,,,
,,,,,,5bb511c6689fc5000149c703,62c5599c57f3a82b564ebbed,2022-07-06_05h00.05.664,Colour_Asymmetry_Pilot,2022.1.3,Win32,60.37189085,62c50e9c1127f2cd403a315f,0,98,98,159,1,fourthree,,,,,,,,,,,,,,,,,,,,,,,,,,,,,,,,,,,,,,,,,,,,,,,,,,,,,,,,,,,,,,,,,,,,,,,,,,,,,,,,,,,,,,,,,,,,,,,,,,,,,,,,,,,,,,,,,,,,,,,,,,,,,,,,,,,,,,,,,,,,,,,,,,,,,,,,,
,,,,,,5bb511c6689fc5000149c703,62c5599c57f3a82b564ebbed,2022-07-06_05h00.05.664,Colour_Asymmetry_Pilot,2022.1.3,Win32,60.37189085,62c50e9c1127f2cd403a315f,0,99,99,15,1,fourthree,,,,,,,,,,,,,,,,,,,,,,,,,,,,,,,,,,,,,,,,,,,,,,,,,,,,,,,,,,,,,,,,,,,,,,,,,,,,,,,,,,,,,,,,,,,,,,,,,,,,,,,,,,,,,,,,,,,,,,,,,,,,,,,,,,,,,,,,,,,,,,,,,,,,,,,,,
,,,,,,5bb511c6689fc5000149c703,62c5599c57f3a82b564ebbed,2022-07-06_05h00.05.664,Colour_Asymmetry_Pilot,2022.1.3,Win32,60.37189085,62c50e9c1127f2cd403a315f,0,100,100,126,1,fourtwo,,,,,,,,,,,,,,,,,,,,,,,,,,,,,,,,,,,,,,,,,,,,,,,,,,,,,,,,,,,,,,,,,,,,,,,,,,,,,,,,,,,,,,,,,,,,,,,,,,,,,,,,,,,,,,,,,,,,,,,,,,,,,,,,,,,,,,,,,,,,,,,,,,,,,,,,,
,,,,,,5bb511c6689fc5000149c703,62c5599c57f3a82b564ebbed,2022-07-06_05h00.05.664,Colour_Asymmetry_Pilot,2022.1.3,Win32,60.37189085,62c50e9c1127f2cd403a315f,0,101,101,149,1,threefour,,,,,,,,,,,,,,,,,,,,,,,,,,,,,,,,,,,,,,,,,,,,,,,,,,,,,,,,,,,,,,,,,,,,,,,,,,,,,,,,,,,,,,,,,,,,,,,,,,,,,,,,,,,,,,,,,,,,,,,,,,,,,,,,,,,,,,,,,,,,,,,,,,,,,,,,,
,,,,,,5bb511c6689fc5000149c703,62c5599c57f3a82b564ebbed,2022-07-06_05h00.05.664,Colour_Asymmetry_Pilot,2022.1.3,Win32,60.37189085,62c50e9c1127f2cd403a315f,0,102,102,49,1,onethree,,,,,,,,,,,,,,,,,,,,,,,,,,,,,,,,,,,,,,,,,,,,,,,,,,,,,,,,,,,,,,,,,,,,,,,,,,,,,,,,,,,,,,,,,,,,,,,,,,,,,,,,,,,,,,,,,,,,,,,,,,,,,,,,,,,,,,,,,,,,,,,,,,,,,,,,,
,,,,,,5bb511c6689fc5000149c703,62c5599c57f3a82b564ebbed,2022-07-06_05h00.05.664,Colour_Asymmetry_Pilot,2022.1.3,Win32,60.37189085,62c50e9c1127f2cd403a315f,0,103,103,107,1,twofour,,,,,,,,,,,,,,,,,,,,,,,,,,,,,,,,,,,,,,,,,,,,,,,,,,,,,,,,,,,,,,,,,,,,,,,,,,,,,,,,,,,,,,,,,,,,,,,,,,,,,,,,,,,,,,,,,,,,,,,,,,,,,,,,,,,,,,,,,,,,,,,,,,,,,,,,,
,,,,,,5bb511c6689fc5000149c703,62c5599c57f3a82b564ebbed,2022-07-06_05h00.05.664,Colour_Asymmetry_Pilot,2022.1.3,Win32,60.37189085,62c50e9c1127f2cd403a315f,0,104,104,25,1,onethree,,,,,,,,,,,,,,,,,,,,,,,,,,,,,,,,,,,,,,,,,,,,,,,,,,,,,,,,,,,,,,,,,,,,,,,,,,,,,,,,,,,,,,,,,,,,,,,,,,,,,,,,,,,,,,,,,,,,,,,,,,,,,,,,,,,,,,,,,,,,,,,,,,,,,,,,,
,,,,,,5bb511c6689fc5000149c703,62c5599c57f3a82b564ebbed,2022-07-06_05h00.05.664,Colour_Asymmetry_Pilot,2022.1.3,Win32,60.37189085,62c50e9c1127f2cd403a315f,0,105,105,0,1,onetwo,,,,,,,,,,,,,,,,,,,,,,,,,,,,,,,,,,,,,,,,,,,,,,,,,,,,,,,,,,,,,,,,,,,,,,,,,,,,,,,,,,,,,,,,,,,,,,,,,,,,,,,,,,,,,,,,,,,,,,,,,,,,,,,,,,,,,,,,,,,,,,,,,,,,,,,,,
,,,,,,5bb511c6689fc5000149c703,62c5599c57f3a82b564ebbed,2022-07-06_05h00.05.664,Colour_Asymmetry_Pilot,2022.1.3,Win32,60.37189085,62c50e9c1127f2cd403a315f,0,106,106,27,1,twofour,,,,,,,,,,,,,,,,,,,,,,,,,,,,,,,,,,,,,,,,,,,,,,,,,,,,,,,,,,,,,,,,,,,,,,,,,,,,,,,,,,,,,,,,,,,,,,,,,,,,,,,,,,,,,,,,,,,,,,,,,,,,,,,,,,,,,,,,,,,,,,,,,,,,,,,,,
,,,,,,5bb511c6689fc5000149c703,62c5599c57f3a82b564ebbed,2022-07-06_05h00.05.664,Colour_Asymmetry_Pilot,2022.1.3,Win32,60.37189085,62c50e9c1127f2cd403a315f,0,107,107,106,1,twoone,,,,,,,,,,,,,,,,,,,,,,,,,,,,,,,,,,,,,,,,,,,,,,,,,,,,,,,,,,,,,,,,,,,,,,,,,,,,,,,,,,,,,,,,,,,,,,,,,,,,,,,,,,,,,,,,,,,,,,,,,,,,,,,,,,,,,,,,,,,,,,,,,,,,,,,,,
,,,,,,5bb511c6689fc5000149c703,62c5599c57f3a82b564ebbed,2022-07-06_05h00.05.664,Colour_Asymmetry_Pilot,2022.1.3,Win32,60.37189085,62c50e9c1127f2cd403a315f,0,108,108,140,1,threeone,,,,,,,,,,,,,,,,,,,,,,,,,,,,,,,,,,,,,,,,,,,,,,,,,,,,,,,,,,,,,,,,,,,,,,,,,,,,,,,,,,,,,,,,,,,,,,,,,,,,,,,,,,,,,,,,,,,,,,,,,,,,,,,,,,,,,,,,,,,,,,,,,,,,,,,,,
,,,,,,5bb511c6689fc5000149c703,62c5599c57f3a82b564ebbed,2022-07-06_05h00.05.664,Colour_Asymmetry_Pilot,2022.1.3,Win32,60.37189085,62c50e9c1127f2cd403a315f,0,109,109,161,1,onethree,,,,,,,,,,,,,,,,,,,,,,,,,,,,,,,,,,,,,,,,,,,,,,,,,,,,,,,,,,,,,,,,,,,,,,,,,,,,,,,,,,,,,,,,,,,,,,,,,,,,,,,,,,,,,,,,,,,,,,,,,,,,,,,,,,,,,,,,,,,,,,,,,,,,,,,,,
,,,,,,5bb511c6689fc5000149c703,62c5599c57f3a82b564ebbed,2022-07-06_05h00.05.664,Colour_Asymmetry_Pilot,2022.1.3,Win32,60.37189085,62c50e9c1127f2cd403a315f,0,110,110,80,1,onetwo,,,,,,,,,,,,,,,,,,,,,,,,,,,,,,,,,,,,,,,,,,,,,,,,,,,,,,,,,,,,,,,,,,,,,,,,,,,,,,,,,,,,,,,,,,,,,,,,,,,,,,,,,,,,,,,,,,,,,,,,,,,,,,,,,,,,,,,,,,,,,,,,,,,,,,,,,
,,,,,,5bb511c6689fc5000149c703,62c5599c57f3a82b564ebbed,2022-07-06_05h00.05.664,Colour_Asymmetry_Pilot,2022.1.3,Win32,60.37189085,62c50e9c1127f2cd403a315f,0,111,111,71,1,fourthree,,,,,,,,,,,,,,,,,,,,,,,,,,,,,,,,,,,,,,,,,,,,,,,,,,,,,,,,,,,,,,,,,,,,,,,,,,,,,,,,,,,,,,,,,,,,,,,,,,,,,,,,,,,,,,,,,,,,,,,,,,,,,,,,,,,,,,,,,,,,,,,,,,,,,,,,,
,,,,,,5bb511c6689fc5000149c703,62c5599c57f3a82b564ebbed,2022-07-06_05h00.05.664,Colour_Asymmetry_Pilot,2022.1.3,Win32,60.37189085,62c50e9c1127f2cd403a315f,0,112,112,1,1,onethree,,,,,,,,,,,,,,,,,,,,,,,,,,,,,,,,,,,,,,,,,,,,,,,,,,,,,,,,,,,,,,,,,,,,,,,,,,,,,,,,,,,,,,,,,,,,,,,,,,,,,,,,,,,,,,,,,,,,,,,,,,,,,,,,,,,,,,,,,,,,,,,,,,,,,,,,,
,,,,,,5bb511c6689fc5000149c703,62c5599c57f3a82b564ebbed,2022-07-06_05h00.05.664,Colour_Asymmetry_Pilot,2022.1.3,Win32,60.37189085,62c50e9c1127f2cd403a315f,0,113,113,113,1,onethree,,,,,,,,,,,,,,,,,,,,,,,,,,,,,,,,,,,,,,,,,,,,,,,,,,,,,,,,,,,,,,,,,,,,,,,,,,,,,,,,,,,,,,,,,,,,,,,,,,,,,,,,,,,,,,,,,,,,,,,,,,,,,,,,,,,,,,,,,,,,,,,,,,,,,,,,,
,,,,,,5bb511c6689fc5000149c703,62c5599c57f3a82b564ebbed,2022-07-06_05h00.05.664,Colour_Asymmetry_Pilot,2022.1.3,Win32,60.37189085,62c50e9c1127f2cd403a315f,0,114,114,130,1,twoone,,,,,,,,,,,,,,,,,,,,,,,,,,,,,,,,,,,,,,,,,,,,,,,,,,,,,,,,,,,,,,,,,,,,,,,,,,,,,,,,,,,,,,,,,,,,,,,,,,,,,,,,,,,,,,,,,,,,,,,,,,,,,,,,,,,,,,,,,,,,,,,,,,,,,,,,,
,,,,,,5bb511c6689fc5000149c703,62c5599c57f3a82b564ebbed,2022-07-06_05h00.05.664,Colour_Asymmetry_Pilot,2022.1.3,Win32,60.37189085,62c50e9c1127f2cd403a315f,0,115,115,132,1,threeone,,,,,,,,,,,,,,,,,,,,,,,,,,,,,,,,,,,,,,,,,,,,,,,,,,,,,,,,,,,,,,,,,,,,,,,,,,,,,,,,,,,,,,,,,,,,,,,,,,,,,,,,,,,,,,,,,,,,,,,,,,,,,,,,,,,,,,,,,,,,,,,,,,,,,,,,,
,,,,,,5bb511c6689fc5000149c703,62c5599c57f3a82b564ebbed,2022-07-06_05h00.05.664,Colour_Asymmetry_Pilot,2022.1.3,Win32,60.37189085,62c50e9c1127f2cd403a315f,0,116,116,135,1,fourthree,,,,,,,,,,,,,,,,,,,,,,,,,,,,,,,,,,,,,,,,,,,,,,,,,,,,,,,,,,,,,,,,,,,,,,,,,,,,,,,,,,,,,,,,,,,,,,,,,,,,,,,,,,,,,,,,,,,,,,,,,,,,,,,,,,,,,,,,,,,,,,,,,,,,,,,,,
,,,,,,5bb511c6689fc5000149c703,62c5599c57f3a82b564ebbed,2022-07-06_05h00.05.664,Colour_Asymmetry_Pilot,2022.1.3,Win32,60.37189085,62c50e9c1127f2cd403a315f,0,117,117,119,1,fourthree,,,,,,,,,,,,,,,,,,,,,,,,,,,,,,,,,,,,,,,,,,,,,,,,,,,,,,,,,,,,,,,,,,,,,,,,,,,,,,,,,,,,,,,,,,,,,,,,,,,,,,,,,,,,,,,,,,,,,,,,,,,,,,,,,,,,,,,,,,,,,,,,,,,,,,,,,
,,,,,,5bb511c6689fc5000149c703,62c5599c57f3a82b564ebbed,2022-07-06_05h00.05.664,Colour_Asymmetry_Pilot,2022.1.3,Win32,60.37189085,62c50e9c1127f2cd403a315f,0,118,118,28,1,threeone,,,,,,,,,,,,,,,,,,,,,,,,,,,,,,,,,,,,,,,,,,,,,,,,,,,,,,,,,,,,,,,,,,,,,,,,,,,,,,,,,,,,,,,,,,,,,,,,,,,,,,,,,,,,,,,,,,,,,,,,,,,,,,,,,,,,,,,,,,,,,,,,,,,,,,,,,
,,,,,,5bb511c6689fc5000149c703,62c5599c57f3a82b564ebbed,2022-07-06_05h00.05.664,Colour_Asymmetry_Pilot,2022.1.3,Win32,60.37189085,62c50e9c1127f2cd403a315f,0,119,119,50,1,twoone,,,,,,,,,,,,,,,,,,,,,,,,,,,,,,,,,,,,,,,,,,,,,,,,,,,,,,,,,,,,,,,,,,,,,,,,,,,,,,,,,,,,,,,,,,,,,,,,,,,,,,,,,,,,,,,,,,,,,,,,,,,,,,,,,,,,,,,,,,,,,,,,,,,,,,,,,
,,,,,,5bb511c6689fc5000149c703,62c5599c57f3a82b564ebbed,2022-07-06_05h00.05.664,Colour_Asymmetry_Pilot,2022.1.3,Win32,60.37189085,62c50e9c1127f2cd403a315f,0,120,120,66,1,twoone,,,,,,,,,,,,,,,,,,,,,,,,,,,,,,,,,,,,,,,,,,,,,,,,,,,,,,,,,,,,,,,,,,,,,,,,,,,,,,,,,,,,,,,,,,,,,,,,,,,,,,,,,,,,,,,,,,,,,,,,,,,,,,,,,,,,,,,,,,,,,,,,,,,,,,,,,
,,,,,,5bb511c6689fc5000149c703,62c5599c57f3a82b564ebbed,2022-07-06_05h00.05.664,Colour_Asymmetry_Pilot,2022.1.3,Win32,60.37189085,62c50e9c1127f2cd403a315f,0,121,121,86,1,fourtwo,,,,,,,,,,,,,,,,,,,,,,,,,,,,,,,,,,,,,,,,,,,,,,,,,,,,,,,,,,,,,,,,,,,,,,,,,,,,,,,,,,,,,,,,,,,,,,,,,,,,,,,,,,,,,,,,,,,,,,,,,,,,,,,,,,,,,,,,,,,,,,,,,,,,,,,,,
,,,,,,5bb511c6689fc5000149c703,62c5599c57f3a82b564ebbed,2022-07-06_05h00.05.664,Colour_Asymmetry_Pilot,2022.1.3,Win32,60.37189085,62c50e9c1127f2cd403a315f,0,122,122,9,1,onethree,,,,,,,,,,,,,,,,,,,,,,,,,,,,,,,,,,,,,,,,,,,,,,,,,,,,,,,,,,,,,,,,,,,,,,,,,,,,,,,,,,,,,,,,,,,,,,,,,,,,,,,,,,,,,,,,,,,,,,,,,,,,,,,,,,,,,,,,,,,,,,,,,,,,,,,,,
,,,,,,5bb511c6689fc5000149c703,62c5599c57f3a82b564ebbed,2022-07-06_05h00.05.664,Colour_Asymmetry_Pilot,2022.1.3,Win32,60.37189085,62c50e9c1127f2cd403a315f,0,123,123,10,1,twoone,,,,,,,,,,,,,,,,,,,,,,,,,,,,,,,,,,,,,,,,,,,,,,,,,,,,,,,,,,,,,,,,,,,,,,,,,,,,,,,,,,,,,,,,,,,,,,,,,,,,,,,,,,,,,,,,,,,,,,,,,,,,,,,,,,,,,,,,,,,,,,,,,,,,,,,,,
,,,,,,5bb511c6689fc5000149c703,62c5599c57f3a82b564ebbed,2022-07-06_05h00.05.664,Colour_Asymmetry_Pilot,2022.1.3,Win32,60.37189085,62c50e9c1127f2cd403a315f,0,124,124,153,1,onethree,,,,,,,,,,,,,,,,,,,,,,,,,,,,,,,,,,,,,,,,,,,,,,,,,,,,,,,,,,,,,,,,,,,,,,,,,,,,,,,,,,,,,,,,,,,,,,,,,,,,,,,,,,,,,,,,,,,,,,,,,,,,,,,,,,,,,,,,,,,,,,,,,,,,,,,,,
,,,,,,5bb511c6689fc5000149c703,62c5599c57f3a82b564ebbed,2022-07-06_05h00.05.664,Colour_Asymmetry_Pilot,2022.1.3,Win32,60.37189085,62c50e9c1127f2cd403a315f,0,125,125,81,1,onethree,,,,,,,,,,,,,,,,,,,,,,,,,,,,,,,,,,,,,,,,,,,,,,,,,,,,,,,,,,,,,,,,,,,,,,,,,,,,,,,,,,,,,,,,,,,,,,,,,,,,,,,,,,,,,,,,,,,,,,,,,,,,,,,,,,,,,,,,,,,,,,,,,,,,,,,,,
,,,,,,5bb511c6689fc5000149c703,62c5599c57f3a82b564ebbed,2022-07-06_05h00.05.664,Colour_Asymmetry_Pilot,2022.1.3,Win32,60.37189085,62c50e9c1127f2cd403a315f,0,126,126,45,1,threefour,,,,,,,,,,,,,,,,,,,,,,,,,,,,,,,,,,,,,,,,,,,,,,,,,,,,,,,,,,,,,,,,,,,,,,,,,,,,,,,,,,,,,,,,,,,,,,,,,,,,,,,,,,,,,,,,,,,,,,,,,,,,,,,,,,,,,,,,,,,,,,,,,,,,,,,,,
,,,,,,5bb511c6689fc5000149c703,62c5599c57f3a82b564ebbed,2022-07-06_05h00.05.664,Colour_Asymmetry_Pilot,2022.1.3,Win32,60.37189085,62c50e9c1127f2cd403a315f,0,127,127,105,1,onethree,,,,,,,,,,,,,,,,,,,,,,,,,,,,,,,,,,,,,,,,,,,,,,,,,,,,,,,,,,,,,,,,,,,,,,,,,,,,,,,,,,,,,,,,,,,,,,,,,,,,,,,,,,,,,,,,,,,,,,,,,,,,,,,,,,,,,,,,,,,,,,,,,,,,,,,,,
,,,,,,5bb511c6689fc5000149c703,62c5599c57f3a82b564ebbed,2022-07-06_05h00.05.664,Colour_Asymmetry_Pilot,2022.1.3,Win32,60.37189085,62c50e9c1127f2cd403a315f,0,128,128,136,1,onetwo,,,,,,,,,,,,,,,,,,,,,,,,,,,,,,,,,,,,,,,,,,,,,,,,,,,,,,,,,,,,,,,,,,,,,,,,,,,,,,,,,,,,,,,,,,,,,,,,,,,,,,,,,,,,,,,,,,,,,,,,,,,,,,,,,,,,,,,,,,,,,,,,,,,,,,,,,
,,,,,,5bb511c6689fc5000149c703,62c5599c57f3a82b564ebbed,2022-07-06_05h00.05.664,Colour_Asymmetry_Pilot,2022.1.3,Win32,60.37189085,62c50e9c1127f2cd403a315f,0,129,129,35,1,twofour,,,,,,,,,,,,,,,,,,,,,,,,,,,,,,,,,,,,,,,,,,,,,,,,,,,,,,,,,,,,,,,,,,,,,,,,,,,,,,,,,,,,,,,,,,,,,,,,,,,,,,,,,,,,,,,,,,,,,,,,,,,,,,,,,,,,,,,,,,,,,,,,,,,,,,,,,
,,,,,,5bb511c6689fc5000149c703,62c5599c57f3a82b564ebbed,2022-07-06_05h00.05.664,Colour_Asymmetry_Pilot,2022.1.3,Win32,60.37189085,62c50e9c1127f2cd403a315f,0,130,130,114,1,twoone,,,,,,,,,,,,,,,,,,,,,,,,,,,,,,,,,,,,,,,,,,,,,,,,,,,,,,,,,,,,,,,,,,,,,,,,,,,,,,,,,,,,,,,,,,,,,,,,,,,,,,,,,,,,,,,,,,,,,,,,,,,,,,,,,,,,,,,,,,,,,,,,,,,,,,,,,
,,,,,,5bb511c6689fc5000149c703,62c5599c57f3a82b564ebbed,2022-07-06_05h00.05.664,Colour_Asymmetry_Pilot,2022.1.3,Win32,60.37189085,62c50e9c1127f2cd403a315f,0,131,131,90,1,twoone,,,,,,,,,,,,,,,,,,,,,,,,,,,,,,,,,,,,,,,,,,,,,,,,,,,,,,,,,,,,,,,,,,,,,,,,,,,,,,,,,,,,,,,,,,,,,,,,,,,,,,,,,,,,,,,,,,,,,,,,,,,,,,,,,,,,,,,,,,,,,,,,,,,,,,,,,
,,,,,,5bb511c6689fc5000149c703,62c5599c57f3a82b564ebbed,2022-07-06_05h00.05.664,Colour_Asymmetry_Pilot,2022.1.3,Win32,60.37189085,62c50e9c1127f2cd403a315f,0,132,132,26,1,twoone,,,,,,,,,,,,,,,,,,,,,,,,,,,,,,,,,,,,,,,,,,,,,,,,,,,,,,,,,,,,,,,,,,,,,,,,,,,,,,,,,,,,,,,,,,,,,,,,,,,,,,,,,,,,,,,,,,,,,,,,,,,,,,,,,,,,,,,,,,,,,,,,,,,,,,,,,
,,,,,,5bb511c6689fc5000149c703,62c5599c57f3a82b564ebbed,2022-07-06_05h00.05.664,Colour_Asymmetry_Pilot,2022.1.3,Win32,60.37189085,62c50e9c1127f2cd403a315f,0,133,133,16,1,onetwo,,,,,,,,,,,,,,,,,,,,,,,,,,,,,,,,,,,,,,,,,,,,,,,,,,,,,,,,,,,,,,,,,,,,,,,,,,,,,,,,,,,,,,,,,,,,,,,,,,,,,,,,,,,,,,,,,,,,,,,,,,,,,,,,,,,,,,,,,,,,,,,,,,,,,,,,,
,,,,,,5bb511c6689fc5000149c703,62c5599c57f3a82b564ebbed,2022-07-06_05h00.05.664,Colour_Asymmetry_Pilot,2022.1.3,Win32,60.37189085,62c50e9c1127f2cd403a315f,0,134,134,122,1,twoone,,,,,,,,,,,,,,,,,,,,,,,,,,,,,,,,,,,,,,,,,,,,,,,,,,,,,,,,,,,,,,,,,,,,,,,,,,,,,,,,,,,,,,,,,,,,,,,,,,,,,,,,,,,,,,,,,,,,,,,,,,,,,,,,,,,,,,,,,,,,,,,,,,,,,,,,,
,,,,,,5bb511c6689fc5000149c703,62c5599c57f3a82b564ebbed,2022-07-06_05h00.05.664,Colour_Asymmetry_Pilot,2022.1.3,Win32,60.37189085,62c50e9c1127f2cd403a315f,0,135,135,2,1,twoone,,,,,,,,,,,,,,,,,,,,,,,,,,,,,,,,,,,,,,,,,,,,,,,,,,,,,,,,,,,,,,,,,,,,,,,,,,,,,,,,,,,,,,,,,,,,,,,,,,,,,,,,,,,,,,,,,,,,,,,,,,,,,,,,,,,,,,,,,,,,,,,,,,,,,,,,,
,,,,,,5bb511c6689fc5000149c703,62c5599c57f3a82b564ebbed,2022-07-06_05h00.05.664,Colour_Asymmetry_Pilot,2022.1.3,Win32,60.37189085,62c50e9c1127f2cd403a315f,0,136,136,116,1,threeone,,,,,,,,,,,,,,,,,,,,,,,,,,,,,,,,,,,,,,,,,,,,,,,,,,,,,,,,,,,,,,,,,,,,,,,,,,,,,,,,,,,,,,,,,,,,,,,,,,,,,,,,,,,,,,,,,,,,,,,,,,,,,,,,,,,,,,,,,,,,,,,,,,,,,,,,,
,,,,,,5bb511c6689fc5000149c703,62c5599c57f3a82b564ebbed,2022-07-06_05h00.05.664,Colour_Asymmetry_Pilot,2022.1.3,Win32,60.37189085,62c50e9c1127f2cd403a315f,0,137,137,157,1,threefour,,,,,,,,,,,,,,,,,,,,,,,,,,,,,,,,,,,,,,,,,,,,,,,,,,,,,,,,,,,,,,,,,,,,,,,,,,,,,,,,,,,,,,,,,,,,,,,,,,,,,,,,,,,,,,,,,,,,,,,,,,,,,,,,,,,,,,,,,,,,,,,,,,,,,,,,,
,,,,,,5bb511c6689fc5000149c703,62c5599c57f3a82b564ebbed,2022-07-06_05h00.05.664,Colour_Asymmetry_Pilot,2022.1.3,Win32,60.37189085,62c50e9c1127f2cd403a315f,0,138,138,53,1,threefour,,,,,,,,,,,,,,,,,,,,,,,,,,,,,,,,,,,,,,,,,,,,,,,,,,,,,,,,,,,,,,,,,,,,,,,,,,,,,,,,,,,,,,,,,,,,,,,,,,,,,,,,,,,,,,,,,,,,,,,,,,,,,,,,,,,,,,,,,,,,,,,,,,,,,,,,,
,,,,,,5bb511c6689fc5000149c703,62c5599c57f3a82b564ebbed,2022-07-06_05h00.05.664,Colour_Asymmetry_Pilot,2022.1.3,Win32,60.37189085,62c50e9c1127f2cd403a315f,0,139,139,75,1,twofour,,,,,,,,,,,,,,,,,,,,,,,,,,,,,,,,,,,,,,,,,,,,,,,,,,,,,,,,,,,,,,,,,,,,,,,,,,,,,,,,,,,,,,,,,,,,,,,,,,,,,,,,,,,,,,,,,,,,,,,,,,,,,,,,,,,,,,,,,,,,,,,,,,,,,,,,,
,,,,,,5bb511c6689fc5000149c703,62c5599c57f3a82b564ebbed,2022-07-06_05h00.05.664,Colour_Asymmetry_Pilot,2022.1.3,Win32,60.37189085,62c50e9c1127f2cd403a315f,0,140,140,123,1,twofour,,,,,,,,,,,,,,,,,,,,,,,,,,,,,,,,,,,,,,,,,,,,,,,,,,,,,,,,,,,,,,,,,,,,,,,,,,,,,,,,,,,,,,,,,,,,,,,,,,,,,,,,,,,,,,,,,,,,,,,,,,,,,,,,,,,,,,,,,,,,,,,,,,,,,,,,,
,,,,,,5bb511c6689fc5000149c703,62c5599c57f3a82b564ebbed,2022-07-06_05h00.05.664,Colour_Asymmetry_Pilot,2022.1.3,Win32,60.37189085,62c50e9c1127f2cd403a315f,0,141,141,109,1,threefour,,,,,,,,,,,,,,,,,,,,,,,,,,,,,,,,,,,,,,,,,,,,,,,,,,,,,,,,,,,,,,,,,,,,,,,,,,,,,,,,,,,,,,,,,,,,,,,,,,,,,,,,,,,,,,,,,,,,,,,,,,,,,,,,,,,,,,,,,,,,,,,,,,,,,,,,,
,,,,,,5bb511c6689fc5000149c703,62c5599c57f3a82b564ebbed,2022-07-06_05h00.05.664,Colour_Asymmetry_Pilot,2022.1.3,Win32,60.37189085,62c50e9c1127f2cd403a315f,0,142,142,138,1,twoone,,,,,,,,,,,,,,,,,,,,,,,,,,,,,,,,,,,,,,,,,,,,,,,,,,,,,,,,,,,,,,,,,,,,,,,,,,,,,,,,,,,,,,,,,,,,,,,,,,,,,,,,,,,,,,,,,,,,,,,,,,,,,,,,,,,,,,,,,,,,,,,,,,,,,,,,,
,,,,,,5bb511c6689fc5000149c703,62c5599c57f3a82b564ebbed,2022-07-06_05h00.05.664,Colour_Asymmetry_Pilot,2022.1.3,Win32,60.37189085,62c50e9c1127f2cd403a315f,0,143,143,76,1,threeone,,,,,,,,,,,,,,,,,,,,,,,,,,,,,,,,,,,,,,,,,,,,,,,,,,,,,,,,,,,,,,,,,,,,,,,,,,,,,,,,,,,,,,,,,,,,,,,,,,,,,,,,,,,,,,,,,,,,,,,,,,,,,,,,,,,,,,,,,,,,,,,,,,,,,,,,,
,,,,,,5bb511c6689fc5000149c703,62c5599c57f3a82b564ebbed,2022-07-06_05h00.05.664,Colour_Asymmetry_Pilot,2022.1.3,Win32,60.37189085,62c50e9c1127f2cd403a315f,0,144,144,89,1,onethree,,,,,,,,,,,,,,,,,,,,,,,,,,,,,,,,,,,,,,,,,,,,,,,,,,,,,,,,,,,,,,,,,,,,,,,,,,,,,,,,,,,,,,,,,,,,,,,,,,,,,,,,,,,,,,,,,,,,,,,,,,,,,,,,,,,,,,,,,,,,,,,,,,,,,,,,,
,,,,,,5bb511c6689fc5000149c703,62c5599c57f3a82b564ebbed,2022-07-06_05h00.05.664,Colour_Asymmetry_Pilot,2022.1.3,Win32,60.37189085,62c50e9c1127f2cd403a315f,0,145,145,61,1,threefour,,,,,,,,,,,,,,,,,,,,,,,,,,,,,,,,,,,,,,,,,,,,,,,,,,,,,,,,,,,,,,,,,,,,,,,,,,,,,,,,,,,,,,,,,,,,,,,,,,,,,,,,,,,,,,,,,,,,,,,,,,,,,,,,,,,,,,,,,,,,,,,,,,,,,,,,,
,,,,,,5bb511c6689fc5000149c703,62c5599c57f3a82b564ebbed,2022-07-06_05h00.05.664,Colour_Asymmetry_Pilot,2022.1.3,Win32,60.37189085,62c50e9c1127f2cd403a315f,0,146,146,4,1,threeone,,,,,,,,,,,,,,,,,,,,,,,,,,,,,,,,,,,,,,,,,,,,,,,,,,,,,,,,,,,,,,,,,,,,,,,,,,,,,,,,,,,,,,,,,,,,,,,,,,,,,,,,,,,,,,,,,,,,,,,,,,,,,,,,,,,,,,,,,,,,,,,,,,,,,,,,,
,,,,,,5bb511c6689fc5000149c703,62c5599c57f3a82b564ebbed,2022-07-06_05h00.05.664,Colour_Asymmetry_Pilot,2022.1.3,Win32,60.37189085,62c50e9c1127f2cd403a315f,0,147,147,160,1,onetwo,,,,,,,,,,,,,,,,,,,,,,,,,,,,,,,,,,,,,,,,,,,,,,,,,,,,,,,,,,,,,,,,,,,,,,,,,,,,,,,,,,,,,,,,,,,,,,,,,,,,,,,,,,,,,,,,,,,,,,,,,,,,,,,,,,,,,,,,,,,,,,,,,,,,,,,,,
,,,,,,5bb511c6689fc5000149c703,62c5599c57f3a82b564ebbed,2022-07-06_05h00.05.664,Colour_Asymmetry_Pilot,2022.1.3,Win32,60.37189085,62c50e9c1127f2cd403a315f,0,148,148,70,1,fourtwo,,,,,,,,,,,,,,,,,,,,,,,,,,,,,,,,,,,,,,,,,,,,,,,,,,,,,,,,,,,,,,,,,,,,,,,,,,,,,,,,,,,,,,,,,,,,,,,,,,,,,,,,,,,,,,,,,,,,,,,,,,,,,,,,,,,,,,,,,,,,,,,,,,,,,,,,,
,,,,,,5bb511c6689fc5000149c703,62c5599c57f3a82b564ebbed,2022-07-06_05h00.05.664,Colour_Asymmetry_Pilot,2022.1.3,Win32,60.37189085,62c50e9c1127f2cd403a315f,0,149,149,42,1,twoone,,,,,,,,,,,,,,,,,,,,,,,,,,,,,,,,,,,,,,,,,,,,,,,,,,,,,,,,,,,,,,,,,,,,,,,,,,,,,,,,,,,,,,,,,,,,,,,,,,,,,,,,,,,,,,,,,,,,,,,,,,,,,,,,,,,,,,,,,,,,,,,,,,,,,,,,,
,,,,,,5bb511c6689fc5000149c703,62c5599c57f3a82b564ebbed,2022-07-06_05h00.05.664,Colour_Asymmetry_Pilot,2022.1.3,Win32,60.37189085,62c50e9c1127f2cd403a315f,0,150,150,155,1,twofour,,,,,,,,,,,,,,,,,,,,,,,,,,,,,,,,,,,,,,,,,,,,,,,,,,,,,,,,,,,,,,,,,,,,,,,,,,,,,,,,,,,,,,,,,,,,,,,,,,,,,,,,,,,,,,,,,,,,,,,,,,,,,,,,,,,,,,,,,,,,,,,,,,,,,,,,,
,,,,,,5bb511c6689fc5000149c703,62c5599c57f3a82b564ebbed,2022-07-06_05h00.05.664,Colour_Asymmetry_Pilot,2022.1.3,Win32,60.37189085,62c50e9c1127f2cd403a315f,0,151,151,38,1,fourtwo,,,,,,,,,,,,,,,,,,,,,,,,,,,,,,,,,,,,,,,,,,,,,,,,,,,,,,,,,,,,,,,,,,,,,,,,,,,,,,,,,,,,,,,,,,,,,,,,,,,,,,,,,,,,,,,,,,,,,,,,,,,,,,,,,,,,,,,,,,,,,,,,,,,,,,,,,
,,,,,,5bb511c6689fc5000149c703,62c5599c57f3a82b564ebbed,2022-07-06_05h00.05.664,Colour_Asymmetry_Pilot,2022.1.3,Win32,60.37189085,62c50e9c1127f2cd403a315f,0,152,152,41,1,onethree,,,,,,,,,,,,,,,,,,,,,,,,,,,,,,,,,,,,,,,,,,,,,,,,,,,,,,,,,,,,,,,,,,,,,,,,,,,,,,,,,,,,,,,,,,,,,,,,,,,,,,,,,,,,,,,,,,,,,,,,,,,,,,,,,,,,,,,,,,,,,,,,,,,,,,,,,
,,,,,,5bb511c6689fc5000149c703,62c5599c57f3a82b564ebbed,2022-07-06_05h00.05.664,Colour_Asymmetry_Pilot,2022.1.3,Win32,60.37189085,62c50e9c1127f2cd403a315f,0,153,153,11,1,twofour,,,,,,,,,,,,,,,,,,,,,,,,,,,,,,,,,,,,,,,,,,,,,,,,,,,,,,,,,,,,,,,,,,,,,,,,,,,,,,,,,,,,,,,,,,,,,,,,,,,,,,,,,,,,,,,,,,,,,,,,,,,,,,,,,,,,,,,,,,,,,,,,,,,,,,,,,
,,,,,,5bb511c6689fc5000149c703,62c5599c57f3a82b564ebbed,2022-07-06_05h00.05.664,Colour_Asymmetry_Pilot,2022.1.3,Win32,60.37189085,62c50e9c1127f2cd403a315f,0,154,154,73,1,onethree,,,,,,,,,,,,,,,,,,,,,,,,,,,,,,,,,,,,,,,,,,,,,,,,,,,,,,,,,,,,,,,,,,,,,,,,,,,,,,,,,,,,,,,,,,,,,,,,,,,,,,,,,,,,,,,,,,,,,,,,,,,,,,,,,,,,,,,,,,,,,,,,,,,,,,,,,
,,,,,,5bb511c6689fc5000149c703,62c5599c57f3a82b564ebbed,2022-07-06_05h00.05.664,Colour_Asymmetry_Pilot,2022.1.3,Win32,60.37189085,62c50e9c1127f2cd403a315f,0,155,155,94,1,fourtwo,,,,,,,,,,,,,,,,,,,,,,,,,,,,,,,,,,,,,,,,,,,,,,,,,,,,,,,,,,,,,,,,,,,,,,,,,,,,,,,,,,,,,,,,,,,,,,,,,,,,,,,,,,,,,,,,,,,,,,,,,,,,,,,,,,,,,,,,,,,,,,,,,,,,,,,,,
,,,,,,5bb511c6689fc5000149c703,62c5599c57f3a82b564ebbed,2022-07-06_05h00.05.664,Colour_Asymmetry_Pilot,2022.1.3,Win32,60.37189085,62c50e9c1127f2cd403a315f,0,156,156,31,1,fourthree,,,,,,,,,,,,,,,,,,,,,,,,,,,,,,,,,,,,,,,,,,,,,,,,,,,,,,,,,,,,,,,,,,,,,,,,,,,,,,,,,,,,,,,,,,,,,,,,,,,,,,,,,,,,,,,,,,,,,,,,,,,,,,,,,,,,,,,,,,,,,,,,,,,,,,,,,
,,,,,,5bb511c6689fc5000149c703,62c5599c57f3a82b564ebbed,2022-07-06_05h00.05.664,Colour_Asymmetry_Pilot,2022.1.3,Win32,60.37189085,62c50e9c1127f2cd403a315f,0,157,157,46,1,fourtwo,,,,,,,,,,,,,,,,,,,,,,,,,,,,,,,,,,,,,,,,,,,,,,,,,,,,,,,,,,,,,,,,,,,,,,,,,,,,,,,,,,,,,,,,,,,,,,,,,,,,,,,,,,,,,,,,,,,,,,,,,,,,,,,,,,,,,,,,,,,,,,,,,,,,,,,,,
,,,,,,5bb511c6689fc5000149c703,62c5599c57f3a82b564ebbed,2022-07-06_05h00.05.664,Colour_Asymmetry_Pilot,2022.1.3,Win32,60.37189085,62c50e9c1127f2cd403a315f,0,158,158,151,1,fourthree,,,,,,,,,,,,,,,,,,,,,,,,,,,,,,,,,,,,,,,,,,,,,,,,,,,,,,,,,,,,,,,,,,,,,,,,,,,,,,,,,,,,,,,,,,,,,,,,,,,,,,,,,,,,,,,,,,,,,,,,,,,,,,,,,,,,,,,,,,,,,,,,,,,,,,,,,
,,,,,,5bb511c6689fc5000149c703,62c5599c57f3a82b564ebbed,2022-07-06_05h00.05.664,Colour_Asymmetry_Pilot,2022.1.3,Win32,60.37189085,62c50e9c1127f2cd403a315f,0,159,159,134,1,fourtwo,,,,,,,,,,,,,,,,,,,,,,,,,,,,,,,,,,,,,,,,,,,,,,,,,,,,,,,,,,,,,,,,,,,,,,,,,,,,,,,,,,,,,,,,,,,,,,,,,,,,,,,,,,,,,,,,,,,,,,,,,,,,,,,,,,,,,,,,,,,,,,,,,,,,,,,,,
,,,,,,5bb511c6689fc5000149c703,62c5599c57f3a82b564ebbed,2022-07-06_05h00.05.664,Colour_Asymmetry_Pilot,2022.1.3,Win32,60.37189085,62c50e9c1127f2cd403a315f,0,160,160,142,1,fourtwo,,,,,,,,,,,,,,,,,,,,,,,,,,,,,,,,,,,,,,,,,,,,,,,,,,,,,,,,,,,,,,,,,,,,,,,,,,,,,,,,,,,,,,,,,,,,,,,,,,,,,,,,,,,,,,,,,,,,,,,,,,,,,,,,,,,,,,,,,,,,,,,,,,,,,,,,,
,,,,,,5bb511c6689fc5000149c703,62c5599c57f3a82b564ebbed,2022-07-06_05h00.05.664,Colour_Asymmetry_Pilot,2022.1.3,Win32,60.37189085,62c50e9c1127f2cd403a315f,0,161,161,29,1,threefour,,,,,,,,,,,,,,,,,,,,,,,,,,,,,,,,,,,,,,,,,,,,,,,,,,,,,,,,,,,,,,,,,,,,,,,,,,,,,,,,,,,,,,,,,,,,,,,,,,,,,,,,,,,,,,,,,,,,,,,,,,,,,,,,,,,,,,,,,,,,,,,,,,,,,,,,,
,,,,,,5bb511c6689fc5000149c703,62c5599c57f3a82b564ebbed,2022-07-06_05h00.05.664,Colour_Asymmetry_Pilot,2022.1.3,Win32,60.37189085,62c50e9c1127f2cd403a315f,,,,,,,space,2.2423,space,3.2537,space,41.9739,space,8.8798,space,2.5791,space,4.4954,"[-0.17659999999999998,-0.2864,-0.8354]",threeone,"[0.796,0.2156,-0.27859999999999996]",-1,5.7378,-44,-85,1,0,0,response5disk_5,-11,13,1,0,0,rectangle_8,-11,13,1,0,0,3,-11,13,1,0,0,0,0,0,0,1,,,,,,,,,,,,,,,,,,,,,,,,,,,,,,,,,,,,,,,,,,,,,,,,,,,,,,,,,,,,,,,,,,,,,,,,,,,,,,,,,,,,,,,,,,,,,,,,,,,,,,,,,,,,
,,,,,,5bb511c6689fc5000149c703,62c5599c57f3a82b564ebbed,2022-07-06_05h00.05.664,Colour_Asymmetry_Pilot,2022.1.3,Win32,60.37189085,62c50e9c1127f2cd403a315f,,,,,,,,,,,,,,,,,,,"[-0.24719999999999998,-0.0354000000000001,0.3175999999999999]",threefour,"[-0.4276,0.0038000000000000256,-0.3256]",2,3.0176,66,-48,1,0,0,response3disk_5,9,14,1,0,0,rectangle_8,9,14,1,0,0,3,9,14,1,0,0,1,0,1,0,1,,,,,,,,,,,,,,,,,,,,,,,,,,,,,,,,,,,,,,,,,,,,,,,,,,,,,,,,,,,,,,,,,,,,,,,,,,,,,,,,,,,,,,,,,,,,,,,,,,,,,,,,,,,,
,,,,,,5bb511c6689fc5000149c703,62c5599c57f3a82b564ebbed,2022-07-06_05h00.05.664,Colour_Asymmetry_Pilot,2022.1.3,Win32,60.37189085,62c50e9c1127f2cd403a315f,,,,,,,,,,,,,,,,,,,"[0.9686000000000001,0.3802000000000001,0.19999999999999996]",onethree,"[0.37240000000000006,0.4980000000000002,-0.2864]",2,1.1187,66,-22,1,0,0,response3disk_5,-12,9,1,0,0,rectangle_8,-12,9,1,0,0,3,-12,9,1,0,0,2,0,2,0,1,,,,,,,,,,,,,,,,,,,,,,,,,,,,,,,,,,,,,,,,,,,,,,,,,,,,,,,,,,,,,,,,,,,,,,,,,,,,,,,,,,,,,,,,,,,,,,,,,,,,,,,,,,,,
,,,,,,5bb511c6689fc5000149c703,62c5599c57f3a82b564ebbed,2022-07-06_05h00.05.664,Colour_Asymmetry_Pilot,2022.1.3,Win32,60.37189085,62c50e9c1127f2cd403a315f,,,,,,,,,,,,,,,,,,,"[-0.4982,-0.2942,-0.0354000000000001]",fourthree,"[-0.2942,-0.7648,-0.7492000000000001]",-1,1.3347,-31,-77,1,0,0,response5disk_5,10,7,1,0,0,rectangle_8,10,7,1,0,0,3,10,7,1,0,0,3,0,3,0,1,,,,,,,,,,,,,,,,,,,,,,,,,,,,,,,,,,,,,,,,,,,,,,,,,,,,,,,,,,,,,,,,,,,,,,,,,,,,,,,,,,,,,,,,,,,,,,,,,,,,,,,,,,,,
,,,,,,5bb511c6689fc5000149c703,62c5599c57f3a82b564ebbed,2022-07-06_05h00.05.664,Colour_Asymmetry_Pilot,2022.1.3,Win32,60.37189085,62c50e9c1127f2cd403a315f,,,,,,,,,,,,,,,,,,,"[-0.9844,-0.9688,-0.9922]",fourtwo,"[-0.4902000000000001,0.2704,-0.45899999999999996]",-4,1.0286,-33,63,1,0,0,response7disk_5,-1,-4,1,0,0,rectangle_8,-1,-4,1,0,0,3,-1,-4,1,0,0,4,0,4,0,1,,,,,,,,,,,,,,,,,,,,,,,,,,,,,,,,,,,,,,,,,,,,,,,,,,,,,,,,,,,,,,,,,,,,,,,,,,,,,,,,,,,,,,,,,,,,,,,,,,,,,,,,,,,,
,,,,,,5bb511c6689fc5000149c703,62c5599c57f3a82b564ebbed,2022-07-06_05h00.05.664,Colour_Asymmetry_Pilot,2022.1.3,Win32,60.37189085,62c50e9c1127f2cd403a315f,,,,,,,,,,,,,,,,,,,"[0.04299999999999993,0.16060000000000008,-0.6628000000000001]",threefour,"[-0.8118,-0.8198,-0.5452]",-4,1.7117,-36,108,1,0,0,response7disk_5,-1,-1,1,0,0,rectangle_8,-1,-1,1,0,0,3,-1,-1,1,0,0,5,0,5,0,1,,,,,,,,,,,,,,,,,,,,,,,,,,,,,,,,,,,,,,,,,,,,,,,,,,,,,,,,,,,,,,,,,,,,,,,,,,,,,,,,,,,,,,,,,,,,,,,,,,,,,,,,,,,,
,,,,,,5bb511c6689fc5000149c703,62c5599c57f3a82b564ebbed,2022-07-06_05h00.05.664,Colour_Asymmetry_Pilot,2022.1.3,Win32,60.37189085,62c50e9c1127f2cd403a315f,,,,,,,,,,,,,,,,,,,"[-0.30200000000000005,0.14500000000000002,0.2784]",onetwo,"[-0.2942,-0.24719999999999998,-0.357]",2,1.5955,85,-49,1,0,0,response3disk_5,8,9,1,0,0,rectangle_8,8,9,1,0,0,3,8,9,1,0,0,6,0,6,0,1,,,,,,,,,,,,,,,,,,,,,,,,,,,,,,,,,,,,,,,,,,,,,,,,,,,,,,,,,,,,,,,,,,,,,,,,,,,,,,,,,,,,,,,,,,,,,,,,,,,,,,,,,,,,
,,,,,,5bb511c6689fc5000149c703,62c5599c57f3a82b564ebbed,2022-07-06_05h00.05.664,Colour_Asymmetry_Pilot,2022.1.3,Win32,60.37189085,62c50e9c1127f2cd403a315f,,,,,,,,,,,,,,,,,,,,onetwo,,-3,0.7958,,,,,,,,,,,,,,,,,,,,,,,,,,,,,space,2.84,"[-0.6942,-0.7648,-0.12959999999999994]","[0.9686000000000001,0.3802000000000001,0.19999999999999996]",-60,33,1,0,0,response7disk,-18,8,1,0,0,rectangle,-18,8,1,0,0,,1,0.0079,0,-18,8,1,0,0,0,0,0,123,1,42,second,,,,,,,,,,,,,,,,,,,,,,,,,,,,,,,,,,,,,,,,,,,,,,,,,,,,,,,,,,,,,,,,,,,,,,,
,,,,,,5bb511c6689fc5000149c703,62c5599c57f3a82b564ebbed,2022-07-06_05h00.05.664,Colour_Asymmetry_Pilot,2022.1.3,Win32,60.37189085,62c50e9c1127f2cd403a315f,,,,,,,,,,,,,,,,,,,,fourthree,,-4,0.4736,,,,,,,,,,,,,,,,,,,,,,,,,,,,,,,"[0.30180000000000007,-0.7884,-0.9844]","[-0.17659999999999998,0.3253999999999999,0.19999999999999996]",-26,65,1,0,0,response7disk,7,7,1,0,0,rectangle,7,7,1,0,0,,2,0.0049,0,7,7,1,0,0,0,1,1,81,1,0,second,,,,,,,,,,,,,,,,,,,,,,,,,,,,,,,,,,,,,,,,,,,,,,,,,,,,,,,,,,,,,,,,,,,,,,,
,,,,,,5bb511c6689fc5000149c703,62c5599c57f3a82b564ebbed,2022-07-06_05h00.05.664,Colour_Asymmetry_Pilot,2022.1.3,Win32,60.37189085,62c50e9c1127f2cd403a315f,,,,,,,,,,,,,,,,,,,,threefour,,4,0.4647,,,,,,,,,,,,,,,,,,,,,,,,,,,,,,,"[0.5449999999999999,-0.31000000000000005,-0.0354000000000001]","[0.9372,0.20779999999999998,0.2704]",40,89,1,0,0,response1disk,24,3,1,0,0,rectangle,43,-68,1,0,0,1,1,1.4853,1,-3,2,1,0,0,0,2,2,55,1,55,first,response3disk_3,rectangle,,,,,,,,,,,,,,,,,,,,,,,,,,,,,,,,,,,,,,,,,,,,,,,,,,,,,,,,,,,,,,,,,,,,,
,,,,,,5bb511c6689fc5000149c703,62c5599c57f3a82b564ebbed,2022-07-06_05h00.05.664,Colour_Asymmetry_Pilot,2022.1.3,Win32,60.37189085,62c50e9c1127f2cd403a315f,,,,,,,,,,,,,,,,,,,,onetwo,,-1,1.5509,,,,,,,,,,,,,,,,,,,,,,,,,,,,,,,"[0.34099999999999997,0.12939999999999996,-0.9766]","[0.40379999999999994,0.09000000000000008,0.44300000000000006]",-26,-95,1,0,0,response5disk,4,-7,1,0,0,rectangle,4,-7,1,0,0,1,2,0.0035,0,4,-7,1,0,0,0,3,3,17,1,17,first,,,,,,,,,,,,,,,,,,,,,,,,,,,,,,,,,,,,,,,,,,,,,,,,,,,,,,,,,,,,,,,,,,,,,,,
,,,,,,5bb511c6689fc5000149c703,62c5599c57f3a82b564ebbed,2022-07-06_05h00.05.664,Colour_Asymmetry_Pilot,2022.1.3,Win32,60.37189085,62c50e9c1127f2cd403a315f,,,,,,,,,,,,,,,,,,,,onetwo,,3,0.7883,,,,,,,,,,,,,,,,,,,,,,,,,,,,,,,"[0.0351999999999999,0.41159999999999997,0.0038000000000000256]","[0.7018,0.7802,-0.16079999999999994]",74,32,1,0,0,response1disk,4,2,1,0,0,rectangle,4,2,1,0,0,1,2,0.0009,0,4,2,1,0,0,0,4,4,40,1,40,first,,,,,,,,,,,,,,,,,,,,,,,,,,,,,,,,,,,,,,,,,,,,,,,,,,,,,,,,,,,,,,,,,,,,,,,
,,,,,,5bb511c6689fc5000149c703,62c5599c57f3a82b564ebbed,2022-07-06_05h00.05.664,Colour_Asymmetry_Pilot,2022.1.3,Win32,60.37189085,62c50e9c1127f2cd403a315f,,,,,,,,,,,,,,,,,,,,onetwo,,-2,0.7791,,,,,,,,,,,,,,,,,,,,,,,,,,,,,,,"[0.11359999999999992,0.6312,0.5213999999999999]","[0.04299999999999993,0.16060000000000008,-0.6628000000000001]",-94,-43,1,0,0,response5disk,4,-2,1,0,0,rectangle,4,-2,1,0,0,1,1,0.0063,0,4,-2,1,0,0,0,5,5,33,1,33,first,,,,,,,,,,,,,,,,,,,,,,,,,,,,,,,,,,,,,,,,,,,,,,,,,,,,,,,,,,,,,,,,,,,,,,,
,,,,,,5bb511c6689fc5000149c703,62c5599c57f3a82b564ebbed,2022-07-06_05h00.05.664,Colour_Asymmetry_Pilot,2022.1.3,Win32,60.37189085,62c50e9c1127f2cd403a315f,,,,,,,,,,,,,,,,,,,,onetwo,,-4,0.4664,,,,,,,,,,,,,,,,,,,,,,,,,,,,,,,"[0.30180000000000007,-0.7884,-0.9844]","[0.34099999999999997,0.5841999999999998,-0.9844]",-46,60,1,0,0,response7disk,-4,-1,1,0,0,rectangle,-4,-1,1,0,0,1,3,0.0028,0,-4,-1,1,0,0,0,6,6,99,1,18,second,,,,,,,,,,,,,,,,,,,,,,,,,,,,,,,,,,,,,,,,,,,,,,,,,,,,,,,,,,,,,,,,,,,,,,,
,,,,,,5bb511c6689fc5000149c703,62c5599c57f3a82b564ebbed,2022-07-06_05h00.05.664,Colour_Asymmetry_Pilot,2022.1.3,Win32,60.37189085,62c50e9c1127f2cd403a315f,,,,,,,,,,,,,,,,,,,,threeone,,2,1.0825,,,,,,,,,,,,,,,,,,,,,,,,,,,,,,,"[-0.7412000000000001,-0.08239999999999992,-0.6864]","[-0.9688,-0.4902000000000001,-0.12159999999999993]",85,-43,1,0,0,response3disk,10,-8,1,0,0,rectangle,10,-8,1,0,0,1,3,0.0008,0,10,-8,1,0,0,0,7,7,144,1,63,second,,,,,,,,,,,,,,,,,,,,,,,,,,,,,,,,,,,,,,,,,,,,,,,,,,,,,,,,,,,,,,,,,,,,,,,
,,,,,,5bb511c6689fc5000149c703,62c5599c57f3a82b564ebbed,2022-07-06_05h00.05.664,Colour_Asymmetry_Pilot,2022.1.3,Win32,60.37189085,62c50e9c1127f2cd403a315f,,,,,,,,,,,,,,,,,,,,threeone,,-3,1.2508,,,,,,,,,,,,,,,,,,,,,,,,,,,,,,,"[-0.17659999999999998,0.3253999999999999,0.19999999999999996]","[0.30180000000000007,-0.7884,-0.9844]",-73,31,1,0,0,response7disk,-29,4,1,0,0,rectangle,-29,4,1,0,0,1,1,0.003,0,-29,4,1,0,0,0,8,8,0,1,0,first,,,,,,,,,,,,,,,,,,,,,,,,,,,,,,,,,,,,,,,,,,,,,,,,,,,,,,,,,,,,,,,,,,,,,,,
,,,,,,5bb511c6689fc5000149c703,62c5599c57f3a82b564ebbed,2022-07-06_05h00.05.664,Colour_Asymmetry_Pilot,2022.1.3,Win32,60.37189085,62c50e9c1127f2cd403a315f,,,,,,,,,,,,,,,,,,,,fourtwo,,3,2.1739,,,,,,,,,,,,,,,,,,,,,,,,,,,,,,,"[-0.9844,-0.9688,-0.9922]","[-0.8118,-0.8198,-0.5452]",86,26,1,0,0,response1disk,3,7,1,0,0,rectangle,3,7,1,0,0,1,1,0.0006,0,3,7,1,0,0,0,9,9,142,1,61,second,,,,,,,,,,,,,,,,,,,,,,,,,,,,,,,,,,,,,,,,,,,,,,,,,,,,,,,,,,,,,,,,,,,,,,,
,,,,,,5bb511c6689fc5000149c703,62c5599c57f3a82b564ebbed,2022-07-06_05h00.05.664,Colour_Asymmetry_Pilot,2022.1.3,Win32,60.37189085,62c50e9c1127f2cd403a315f,,,,,,,,,,,,,,,,,,,,twofour,,-4,1.5852,,,,,,,,,,,,,,,,,,,,,,,,,,,,,,,"[0.4196,0.4665999999999999,0.3568]","[0.8274000000000001,-0.5844,-0.9452]",-52,73,1,0,0,response7disk,-2,8,1,0,0,rectangle,93,-71,1,0,0,2,2,1.5544,1,7,-8,1,0,0,0,10,10,97,1,16,second,response3disk_3,rectangle,,,,,,,,,,,,,,,,,,,,,,,,,,,,,,,,,,,,,,,,,,,,,,,,,,,,,,,,,,,,,,,,,,,,,
,,,,,,5bb511c6689fc5000149c703,62c5599c57f3a82b564ebbed,2022-07-06_05h00.05.664,Colour_Asymmetry_Pilot,2022.1.3,Win32,60.37189085,62c50e9c1127f2cd403a315f,,,,,,,,,,,,,,,,,,,,onetwo,,-4,1.7588,,,,,,,,,,,,,,,,,,,,,,,,,,,,,,,"[-0.9766,-0.6472,0.07440000000000002]","[-0.0040000000000000036,0.02739999999999987,-0.08239999999999992]",-43,94,1,0,0,response7disk,-4,-10,1,0,0,rectangle,-4,-10,1,0,0,2,2,0.0005,0,-4,-10,1,0,0,0,11,11,80,1,80,first,,,,,,,,,,,,,,,,,,,,,,,,,,,,,,,,,,,,,,,,,,,,,,,,,,,,,,,,,,,,,,,,,,,,,,,
,,,,,,5bb511c6689fc5000149c703,62c5599c57f3a82b564ebbed,2022-07-06_05h00.05.664,Colour_Asymmetry_Pilot,2022.1.3,Win32,60.37189085,62c50e9c1127f2cd403a315f,,,,,,,,,,,,,,,,,,,,threeone,,1,1.0657,,,,,,,,,,,,,,,,,,,,,,,,,,,,,,,"[-0.4276,0.0038000000000000256,-0.3256]","[-0.30200000000000005,0.14500000000000002,0.2784]",38,-94,1,0,0,response3disk,-8,-1,1,0,0,rectangle,-8,-1,1,0,0,2,3,0.0026,0,-8,-1,1,0,0,0,12,12,48,1,48,first,,,,,,,,,,,,,,,,,,,,,,,,,,,,,,,,,,,,,,,,,,,,,,,,,,,,,,,,,,,,,,,,,,,,,,,
,,,,,,5bb511c6689fc5000149c703,62c5599c57f3a82b564ebbed,2022-07-06_05h00.05.664,Colour_Asymmetry_Pilot,2022.1.3,Win32,60.37189085,62c50e9c1127f2cd403a315f,,,,,,,,,,,,,,,,,,,,onethree,,-1,1.924,,,,,,,,,,,,,,,,,,,,,,,,,,,,,,,"[0.9686000000000001,0.5763999999999998,0.11359999999999992]","[-0.34920000000000007,-0.702,-0.5216]",-37,-70,1,0,0,response5disk,-13,-10,1,0,0,rectangle,-13,-10,1,0,0,2,1,0.0028,0,-13,-10,1,0,0,0,13,13,108,1,27,second,,,,,,,,,,,,,,,,,,,,,,,,,,,,,,,,,,,,,,,,,,,,,,,,,,,,,,,,,,,,,,,,,,,,,,,
,,,,,,5bb511c6689fc5000149c703,62c5599c57f3a82b564ebbed,2022-07-06_05h00.05.664,Colour_Asymmetry_Pilot,2022.1.3,Win32,60.37189085,62c50e9c1127f2cd403a315f,,,,,,,,,,,,,,,,,,,,onethree,,4,0.6078,,,,,,,,,,,,,,,,,,,,,,,,,,,,,,,"[0.9842,0.7409999999999999,-0.6628000000000001]","[0.9763999999999999,0.8588,-0.05900000000000005]",31,65,1,0,0,response1disk,15,12,1,0,0,rectangle,15,12,1,0,0,2,1,0.0004,0,15,12,1,0,0,0,14,14,66,1,66,first,,,,,,,,,,,,,,,,,,,,,,,,,,,,,,,,,,,,,,,,,,,,,,,,,,,,,,,,,,,,,,,,,,,,,,,
,,,,,,5bb511c6689fc5000149c703,62c5599c57f3a82b564ebbed,2022-07-06_05h00.05.664,Colour_Asymmetry_Pilot,2022.1.3,Win32,60.37189085,62c50e9c1127f2cd403a315f,,,,,,,,,,,,,,,,,,,,onethree,,-1,1.1376,,,,,,,,,,,,,,,,,,,,,,,,,,,,,,,"[0.0351999999999999,0.41159999999999997,0.0038000000000000256]","[0.3802000000000001,0.19199999999999995,-0.6394]",-25,-84,1,0,0,response5disk,0,7,1,0,0,rectangle,0,7,1,0,0,2,3,0.003,0,0,7,1,0,0,0,15,15,111,1,30,second,,,,,,,,,,,,,,,,,,,,,,,,,,,,,,,,,,,,,,,,,,,,,,,,,,,,,,,,,,,,,,,,,,,,,,,
,,,,,,5bb511c6689fc5000149c703,62c5599c57f3a82b564ebbed,2022-07-06_05h00.05.664,Colour_Asymmetry_Pilot,2022.1.3,Win32,60.37189085,62c50e9c1127f2cd403a315f,,,,,,,,,,,,,,,,,,,,twoone,,1,0.784,,,,,,,,,,,,,,,,,,,,,,,,,,,,,,,"[0.09799999999999986,-0.24719999999999998,0.15280000000000005]","[-0.4746,-0.0354000000000001,0.5449999999999999]",46,-65,1,0,0,response3disk,-2,0,1,0,0,rectangle,-2,0,1,0,0,2,2,0.003,0,-2,0,1,0,0,0,16,16,135,1,54,second,,,,,,,,,,,,,,,,,,,,,,,,,,,,,,,,,,,,,,,,,,,,,,,,,,,,,,,,,,,,,,,,,,,,,,,
,,,,,,5bb511c6689fc5000149c703,62c5599c57f3a82b564ebbed,2022-07-06_05h00.05.664,Colour_Asymmetry_Pilot,2022.1.3,Win32,60.37189085,62c50e9c1127f2cd403a315f,,,,,,,,,,,,,,,,,,,,threefour,,-1,0.512,,,,,,,,,,,,,,,,,,,,,,,,,,,,,,,"[0.19199999999999995,0.18419999999999992,0.5136000000000001]","[0.37240000000000006,-0.050999999999999934,-0.5216]",-44,-77,1,0,0,response5disk,3,-1,1,0,0,rectangle,3,-1,1,0,0,2,3,0.0026,0,3,-1,1,0,0,0,17,17,109,1,28,second,,,,,,,,,,,,,,,,,,,,,,,,,,,,,,,,,,,,,,,,,,,,,,,,,,,,,,,,,,,,,,,,,,,,,,,
,,,,,,5bb511c6689fc5000149c703,62c5599c57f3a82b564ebbed,2022-07-06_05h00.05.664,Colour_Asymmetry_Pilot,2022.1.3,Win32,60.37189085,62c50e9c1127f2cd403a315f,,,,,,,,,,,,,,,,,,,,fourtwo,,-2,0.7675,,,,,,,,,,,,,,,,,,,,,,,,,,,,,,,"[0.796,0.2156,-0.27859999999999996]","[0.05879999999999996,0.2784,0.5841999999999998]",-77,-17,1,0,0,response5disk,-27,-4,1,0,0,rectangle,-27,-4,1,0,0,2,1,0.0028,0,-27,-4,1,0,0,0,18,18,64,1,64,first,,,,,,,,,,,,,,,,,,,,,,,,,,,,,,,,,,,,,,,,,,,,,,,,,,,,,,,,,,,,,,,,,,,,,,,
,,,,,,5bb511c6689fc5000149c703,62c5599c57f3a82b564ebbed,2022-07-06_05h00.05.664,Colour_Asymmetry_Pilot,2022.1.3,Win32,60.37189085,62c50e9c1127f2cd403a315f,,,,,,,,,,,,,,,,,,,,fourtwo,,-2,0.9033,,,,,,,,,,,,,,,,,,,,,,,,,,,,,,,"[-0.4276,0.0038000000000000256,-0.3256]","[0.09799999999999986,-0.24719999999999998,0.15280000000000005]",-44,-18,1,0,0,response5disk,5,-6,1,0,0,rectangle,5,-6,1,0,0,2,1,0.0007,0,5,-6,1,0,0,0,19,19,53,1,53,first,,,,,,,,,,,,,,,,,,,,,,,,,,,,,,,,,,,,,,,,,,,,,,,,,,,,,,,,,,,,,,,,,,,,,,,
