trials.thisRepN,trials.thisTrialN,trials.thisN,trials.thisIndex,trials.ran,Colourcodes,participant,session,date,expName,psychopyVersion,OS,frameRate,study_id,trials_4.thisRepN,trials_4.thisTrialN,trials_4.thisN,trials_4.thisIndex,trials_4.ran,StimulusPos,key_resp.keys,key_resp.rt,key_resp_2.keys,key_resp_2.rt,key_resp_15.keys,key_resp_15.rt,key_resp_17.keys,key_resp_17.rt,key_resp_9.keys,key_resp_9.rt,key_resp_10.keys,key_resp_10.rt,Circle1_col,Ecc,Circle2_col,similarity,response_time,mouse_5.x,mouse_5.y,mouse_5.leftButton,mouse_5.midButton,mouse_5.rightButton,mouse_5.clicked_name,mouse_10.x,mouse_10.y,mouse_10.leftButton,mouse_10.midButton,mouse_10.rightButton,mouse_10.clicked_name,mouse_7.x,mouse_7.y,mouse_7.leftButton,mouse_7.midButton,mouse_7.rightButton,catchnumberprac,mouse_6.x,mouse_6.y,mouse_6.leftButton,mouse_6.midButton,mouse_6.rightButton,duringprac.thisRepN,duringprac.thisTrialN,duringprac.thisN,duringprac.thisIndex,duringprac.ran,mouse_7.clicked_name,catchprac,mouse_6.clicked_name,key_resp_22.keys,key_resp_22.rt,Circle1_colour,Circle2_colour,mouse.x,mouse.y,mouse.leftButton,mouse.midButton,mouse.rightButton,mouse.clicked_name,mouse_2.x,mouse_2.y,mouse_2.leftButton,mouse_2.midButton,mouse_2.rightButton,mouse_2.clicked_name,mouse_3.x,mouse_3.y,mouse_3.leftButton,mouse_3.midButton,mouse_3.rightButton,catchresponse,catchnumber,response_time_catch,Catch,mouse_11.x,mouse_11.y,mouse_11.leftButton,mouse_11.midButton,mouse_11.rightButton,trials_2.thisRepN,trials_2.thisTrialN,trials_2.thisN,trials_2.thisIndex,trials_2.ran,Colourpair,Temporder,mouse_3.clicked_name,mouse_11.clicked_name,trials_3.thisRepN,trials_3.thisTrialN,trials_3.thisN,trials_3.thisIndex,trials_3.ran,key_resp_instr_Ishi.keys,key_resp_instr_Ishi.rt,Ishi_trial_keyresp.keys,Ishi_textbox.text,Ishi_mouse.x,Ishi_mouse.y,Ishi_mouse.leftButton,Ishi_mouse.midButton,Ishi_mouse.rightButton,Ishi_mouse.clicked_name,Ishi_loop.thisRepN,Ishi_loop.thisTrialN,Ishi_loop.thisN,Ishi_loop.thisIndex,Ishi_loop.ran,imageaddress,textbox.text,mouse_4.x,mouse_4.y,mouse_4.leftButton,mouse_4.midButton,mouse_4.rightButton,mouse_4.clicked_name,textbox_2.text,mouse_8.x,mouse_8.y,mouse_8.leftButton,mouse_8.midButton,mouse_8.rightButton,mouse_8.clicked_name,textbox_3.text,mouse_9.x,mouse_9.y,mouse_9.leftButton,mouse_9.midButton,mouse_9.rightButton,mouse_9.clicked_name,textbox_4.text,mouse_12.x,mouse_12.y,mouse_12.leftButton,mouse_12.midButton,mouse_12.rightButton,mouse_12.clicked_name,textbox_5.text,mouse_13.x,mouse_13.y,mouse_13.leftButton,mouse_13.midButton,mouse_13.rightButton,mouse_13.clicked_name,textbox_6.text,mouse_14.x,mouse_14.y,mouse_14.leftButton,mouse_14.midButton,mouse_14.rightButton,mouse_14.clicked_name,textbox_7.text,mouse_15.x,mouse_15.y,mouse_15.leftButton,mouse_15.midButton,mouse_15.rightButton,mouse_15.clicked_name
0,0,0,29,1,,600f11d527aa57080e819df3,62c53a0e44e01e2e1a2aae8f,2022-07-06_09h33.43.609,Colour_Asymmetry_Pilot,2022.1.3,Win32,60.39376736,62c50e9c1127f2cd403a315f,,,,,,,,,,,,,,,,,,,,,,,,,,,,,,,,,,,,,,,,,,,,,,,,,,,,,,,,,,,,,,,,,,,,,,,,,,,,,,,,,,,,,,,,,,,,,,,,,,,,,,,,,,,,,,,,,,,,,,,,,,,,,,,,,,,,,,,,,,,,,,,,,,,,,,,,,,,,,,,,,,,
0,1,1,40,1,,600f11d527aa57080e819df3,62c53a0e44e01e2e1a2aae8f,2022-07-06_09h33.43.609,Colour_Asymmetry_Pilot,2022.1.3,Win32,60.39376736,62c50e9c1127f2cd403a315f,,,,,,,,,,,,,,,,,,,,,,,,,,,,,,,,,,,,,,,,,,,,,,,,,,,,,,,,,,,,,,,,,,,,,,,,,,,,,,,,,,,,,,,,,,,,,,,,,,,,,,,,,,,,,,,,,,,,,,,,,,,,,,,,,,,,,,,,,,,,,,,,,,,,,,,,,,,,,,,,,,,
0,2,2,61,1,,600f11d527aa57080e819df3,62c53a0e44e01e2e1a2aae8f,2022-07-06_09h33.43.609,Colour_Asymmetry_Pilot,2022.1.3,Win32,60.39376736,62c50e9c1127f2cd403a315f,,,,,,,,,,,,,,,,,,,,,,,,,,,,,,,,,,,,,,,,,,,,,,,,,,,,,,,,,,,,,,,,,,,,,,,,,,,,,,,,,,,,,,,,,,,,,,,,,,,,,,,,,,,,,,,,,,,,,,,,,,,,,,,,,,,,,,,,,,,,,,,,,,,,,,,,,,,,,,,,,,,
0,3,3,4,1,,600f11d527aa57080e819df3,62c53a0e44e01e2e1a2aae8f,2022-07-06_09h33.43.609,Colour_Asymmetry_Pilot,2022.1.3,Win32,60.39376736,62c50e9c1127f2cd403a315f,,,,,,,,,,,,,,,,,,,,,,,,,,,,,,,,,,,,,,,,,,,,,,,,,,,,,,,,,,,,,,,,,,,,,,,,,,,,,,,,,,,,,,,,,,,,,,,,,,,,,,,,,,,,,,,,,,,,,,,,,,,,,,,,,,,,,,,,,,,,,,,,,,,,,,,,,,,,,,,,,,,
0,4,4,1,1,,600f11d527aa57080e819df3,62c53a0e44e01e2e1a2aae8f,2022-07-06_09h33.43.609,Colour_Asymmetry_Pilot,2022.1.3,Win32,60.39376736,62c50e9c1127f2cd403a315f,,,,,,,,,,,,,,,,,,,,,,,,,,,,,,,,,,,,,,,,,,,,,,,,,,,,,,,,,,,,,,,,,,,,,,,,,,,,,,,,,,,,,,,,,,,,,,,,,,,,,,,,,,,,,,,,,,,,,,,,,,,,,,,,,,,,,,,,,,,,,,,,,,,,,,,,,,,,,,,,,,,
0,5,5,81,1,,600f11d527aa57080e819df3,62c53a0e44e01e2e1a2aae8f,2022-07-06_09h33.43.609,Colour_Asymmetry_Pilot,2022.1.3,Win32,60.39376736,62c50e9c1127f2cd403a315f,,,,,,,,,,,,,,,,,,,,,,,,,,,,,,,,,,,,,,,,,,,,,,,,,,,,,,,,,,,,,,,,,,,,,,,,,,,,,,,,,,,,,,,,,,,,,,,,,,,,,,,,,,,,,,,,,,,,,,,,,,,,,,,,,,,,,,,,,,,,,,,,,,,,,,,,,,,,,,,,,,,
0,6,6,73,1,,600f11d527aa57080e819df3,62c53a0e44e01e2e1a2aae8f,2022-07-06_09h33.43.609,Colour_Asymmetry_Pilot,2022.1.3,Win32,60.39376736,62c50e9c1127f2cd403a315f,,,,,,,,,,,,,,,,,,,,,,,,,,,,,,,,,,,,,,,,,,,,,,,,,,,,,,,,,,,,,,,,,,,,,,,,,,,,,,,,,,,,,,,,,,,,,,,,,,,,,,,,,,,,,,,,,,,,,,,,,,,,,,,,,,,,,,,,,,,,,,,,,,,,,,,,,,,,,,,,,,,
0,7,7,71,1,,600f11d527aa57080e819df3,62c53a0e44e01e2e1a2aae8f,2022-07-06_09h33.43.609,Colour_Asymmetry_Pilot,2022.1.3,Win32,60.39376736,62c50e9c1127f2cd403a315f,,,,,,,,,,,,,,,,,,,,,,,,,,,,,,,,,,,,,,,,,,,,,,,,,,,,,,,,,,,,,,,,,,,,,,,,,,,,,,,,,,,,,,,,,,,,,,,,,,,,,,,,,,,,,,,,,,,,,,,,,,,,,,,,,,,,,,,,,,,,,,,,,,,,,,,,,,,,,,,,,,,
0,8,8,45,1,,600f11d527aa57080e819df3,62c53a0e44e01e2e1a2aae8f,2022-07-06_09h33.43.609,Colour_Asymmetry_Pilot,2022.1.3,Win32,60.39376736,62c50e9c1127f2cd403a315f,,,,,,,,,,,,,,,,,,,,,,,,,,,,,,,,,,,,,,,,,,,,,,,,,,,,,,,,,,,,,,,,,,,,,,,,,,,,,,,,,,,,,,,,,,,,,,,,,,,,,,,,,,,,,,,,,,,,,,,,,,,,,,,,,,,,,,,,,,,,,,,,,,,,,,,,,,,,,,,,,,,
0,9,9,37,1,,600f11d527aa57080e819df3,62c53a0e44e01e2e1a2aae8f,2022-07-06_09h33.43.609,Colour_Asymmetry_Pilot,2022.1.3,Win32,60.39376736,62c50e9c1127f2cd403a315f,,,,,,,,,,,,,,,,,,,,,,,,,,,,,,,,,,,,,,,,,,,,,,,,,,,,,,,,,,,,,,,,,,,,,,,,,,,,,,,,,,,,,,,,,,,,,,,,,,,,,,,,,,,,,,,,,,,,,,,,,,,,,,,,,,,,,,,,,,,,,,,,,,,,,,,,,,,,,,,,,,,
0,10,10,80,1,,600f11d527aa57080e819df3,62c53a0e44e01e2e1a2aae8f,2022-07-06_09h33.43.609,Colour_Asymmetry_Pilot,2022.1.3,Win32,60.39376736,62c50e9c1127f2cd403a315f,,,,,,,,,,,,,,,,,,,,,,,,,,,,,,,,,,,,,,,,,,,,,,,,,,,,,,,,,,,,,,,,,,,,,,,,,,,,,,,,,,,,,,,,,,,,,,,,,,,,,,,,,,,,,,,,,,,,,,,,,,,,,,,,,,,,,,,,,,,,,,,,,,,,,,,,,,,,,,,,,,,
0,11,11,48,1,,600f11d527aa57080e819df3,62c53a0e44e01e2e1a2aae8f,2022-07-06_09h33.43.609,Colour_Asymmetry_Pilot,2022.1.3,Win32,60.39376736,62c50e9c1127f2cd403a315f,,,,,,,,,,,,,,,,,,,,,,,,,,,,,,,,,,,,,,,,,,,,,,,,,,,,,,,,,,,,,,,,,,,,,,,,,,,,,,,,,,,,,,,,,,,,,,,,,,,,,,,,,,,,,,,,,,,,,,,,,,,,,,,,,,,,,,,,,,,,,,,,,,,,,,,,,,,,,,,,,,,
0,12,12,88,1,,600f11d527aa57080e819df3,62c53a0e44e01e2e1a2aae8f,2022-07-06_09h33.43.609,Colour_Asymmetry_Pilot,2022.1.3,Win32,60.39376736,62c50e9c1127f2cd403a315f,,,,,,,,,,,,,,,,,,,,,,,,,,,,,,,,,,,,,,,,,,,,,,,,,,,,,,,,,,,,,,,,,,,,,,,,,,,,,,,,,,,,,,,,,,,,,,,,,,,,,,,,,,,,,,,,,,,,,,,,,,,,,,,,,,,,,,,,,,,,,,,,,,,,,,,,,,,,,,,,,,,
0,13,13,36,1,,600f11d527aa57080e819df3,62c53a0e44e01e2e1a2aae8f,2022-07-06_09h33.43.609,Colour_Asymmetry_Pilot,2022.1.3,Win32,60.39376736,62c50e9c1127f2cd403a315f,,,,,,,,,,,,,,,,,,,,,,,,,,,,,,,,,,,,,,,,,,,,,,,,,,,,,,,,,,,,,,,,,,,,,,,,,,,,,,,,,,,,,,,,,,,,,,,,,,,,,,,,,,,,,,,,,,,,,,,,,,,,,,,,,,,,,,,,,,,,,,,,,,,,,,,,,,,,,,,,,,,
0,14,14,91,1,,600f11d527aa57080e819df3,62c53a0e44e01e2e1a2aae8f,2022-07-06_09h33.43.609,Colour_Asymmetry_Pilot,2022.1.3,Win32,60.39376736,62c50e9c1127f2cd403a315f,,,,,,,,,,,,,,,,,,,,,,,,,,,,,,,,,,,,,,,,,,,,,,,,,,,,,,,,,,,,,,,,,,,,,,,,,,,,,,,,,,,,,,,,,,,,,,,,,,,,,,,,,,,,,,,,,,,,,,,,,,,,,,,,,,,,,,,,,,,,,,,,,,,,,,,,,,,,,,,,,,,
0,15,15,62,1,,600f11d527aa57080e819df3,62c53a0e44e01e2e1a2aae8f,2022-07-06_09h33.43.609,Colour_Asymmetry_Pilot,2022.1.3,Win32,60.39376736,62c50e9c1127f2cd403a315f,,,,,,,,,,,,,,,,,,,,,,,,,,,,,,,,,,,,,,,,,,,,,,,,,,,,,,,,,,,,,,,,,,,,,,,,,,,,,,,,,,,,,,,,,,,,,,,,,,,,,,,,,,,,,,,,,,,,,,,,,,,,,,,,,,,,,,,,,,,,,,,,,,,,,,,,,,,,,,,,,,,
0,16,16,44,1,,600f11d527aa57080e819df3,62c53a0e44e01e2e1a2aae8f,2022-07-06_09h33.43.609,Colour_Asymmetry_Pilot,2022.1.3,Win32,60.39376736,62c50e9c1127f2cd403a315f,,,,,,,,,,,,,,,,,,,,,,,,,,,,,,,,,,,,,,,,,,,,,,,,,,,,,,,,,,,,,,,,,,,,,,,,,,,,,,,,,,,,,,,,,,,,,,,,,,,,,,,,,,,,,,,,,,,,,,,,,,,,,,,,,,,,,,,,,,,,,,,,,,,,,,,,,,,,,,,,,,,
0,17,17,51,1,,600f11d527aa57080e819df3,62c53a0e44e01e2e1a2aae8f,2022-07-06_09h33.43.609,Colour_Asymmetry_Pilot,2022.1.3,Win32,60.39376736,62c50e9c1127f2cd403a315f,,,,,,,,,,,,,,,,,,,,,,,,,,,,,,,,,,,,,,,,,,,,,,,,,,,,,,,,,,,,,,,,,,,,,,,,,,,,,,,,,,,,,,,,,,,,,,,,,,,,,,,,,,,,,,,,,,,,,,,,,,,,,,,,,,,,,,,,,,,,,,,,,,,,,,,,,,,,,,,,,,,
0,18,18,56,1,,600f11d527aa57080e819df3,62c53a0e44e01e2e1a2aae8f,2022-07-06_09h33.43.609,Colour_Asymmetry_Pilot,2022.1.3,Win32,60.39376736,62c50e9c1127f2cd403a315f,,,,,,,,,,,,,,,,,,,,,,,,,,,,,,,,,,,,,,,,,,,,,,,,,,,,,,,,,,,,,,,,,,,,,,,,,,,,,,,,,,,,,,,,,,,,,,,,,,,,,,,,,,,,,,,,,,,,,,,,,,,,,,,,,,,,,,,,,,,,,,,,,,,,,,,,,,,,,,,,,,,
0,19,19,78,1,,600f11d527aa57080e819df3,62c53a0e44e01e2e1a2aae8f,2022-07-06_09h33.43.609,Colour_Asymmetry_Pilot,2022.1.3,Win32,60.39376736,62c50e9c1127f2cd403a315f,,,,,,,,,,,,,,,,,,,,,,,,,,,,,,,,,,,,,,,,,,,,,,,,,,,,,,,,,,,,,,,,,,,,,,,,,,,,,,,,,,,,,,,,,,,,,,,,,,,,,,,,,,,,,,,,,,,,,,,,,,,,,,,,,,,,,,,,,,,,,,,,,,,,,,,,,,,,,,,,,,,
0,20,20,50,1,,600f11d527aa57080e819df3,62c53a0e44e01e2e1a2aae8f,2022-07-06_09h33.43.609,Colour_Asymmetry_Pilot,2022.1.3,Win32,60.39376736,62c50e9c1127f2cd403a315f,,,,,,,,,,,,,,,,,,,,,,,,,,,,,,,,,,,,,,,,,,,,,,,,,,,,,,,,,,,,,,,,,,,,,,,,,,,,,,,,,,,,,,,,,,,,,,,,,,,,,,,,,,,,,,,,,,,,,,,,,,,,,,,,,,,,,,,,,,,,,,,,,,,,,,,,,,,,,,,,,,,
0,21,21,18,1,,600f11d527aa57080e819df3,62c53a0e44e01e2e1a2aae8f,2022-07-06_09h33.43.609,Colour_Asymmetry_Pilot,2022.1.3,Win32,60.39376736,62c50e9c1127f2cd403a315f,,,,,,,,,,,,,,,,,,,,,,,,,,,,,,,,,,,,,,,,,,,,,,,,,,,,,,,,,,,,,,,,,,,,,,,,,,,,,,,,,,,,,,,,,,,,,,,,,,,,,,,,,,,,,,,,,,,,,,,,,,,,,,,,,,,,,,,,,,,,,,,,,,,,,,,,,,,,,,,,,,,
0,22,22,65,1,,600f11d527aa57080e819df3,62c53a0e44e01e2e1a2aae8f,2022-07-06_09h33.43.609,Colour_Asymmetry_Pilot,2022.1.3,Win32,60.39376736,62c50e9c1127f2cd403a315f,,,,,,,,,,,,,,,,,,,,,,,,,,,,,,,,,,,,,,,,,,,,,,,,,,,,,,,,,,,,,,,,,,,,,,,,,,,,,,,,,,,,,,,,,,,,,,,,,,,,,,,,,,,,,,,,,,,,,,,,,,,,,,,,,,,,,,,,,,,,,,,,,,,,,,,,,,,,,,,,,,,
0,23,23,26,1,,600f11d527aa57080e819df3,62c53a0e44e01e2e1a2aae8f,2022-07-06_09h33.43.609,Colour_Asymmetry_Pilot,2022.1.3,Win32,60.39376736,62c50e9c1127f2cd403a315f,,,,,,,,,,,,,,,,,,,,,,,,,,,,,,,,,,,,,,,,,,,,,,,,,,,,,,,,,,,,,,,,,,,,,,,,,,,,,,,,,,,,,,,,,,,,,,,,,,,,,,,,,,,,,,,,,,,,,,,,,,,,,,,,,,,,,,,,,,,,,,,,,,,,,,,,,,,,,,,,,,,
0,24,24,67,1,,600f11d527aa57080e819df3,62c53a0e44e01e2e1a2aae8f,2022-07-06_09h33.43.609,Colour_Asymmetry_Pilot,2022.1.3,Win32,60.39376736,62c50e9c1127f2cd403a315f,,,,,,,,,,,,,,,,,,,,,,,,,,,,,,,,,,,,,,,,,,,,,,,,,,,,,,,,,,,,,,,,,,,,,,,,,,,,,,,,,,,,,,,,,,,,,,,,,,,,,,,,,,,,,,,,,,,,,,,,,,,,,,,,,,,,,,,,,,,,,,,,,,,,,,,,,,,,,,,,,,,
0,25,25,42,1,,600f11d527aa57080e819df3,62c53a0e44e01e2e1a2aae8f,2022-07-06_09h33.43.609,Colour_Asymmetry_Pilot,2022.1.3,Win32,60.39376736,62c50e9c1127f2cd403a315f,,,,,,,,,,,,,,,,,,,,,,,,,,,,,,,,,,,,,,,,,,,,,,,,,,,,,,,,,,,,,,,,,,,,,,,,,,,,,,,,,,,,,,,,,,,,,,,,,,,,,,,,,,,,,,,,,,,,,,,,,,,,,,,,,,,,,,,,,,,,,,,,,,,,,,,,,,,,,,,,,,,
0,26,26,13,1,,600f11d527aa57080e819df3,62c53a0e44e01e2e1a2aae8f,2022-07-06_09h33.43.609,Colour_Asymmetry_Pilot,2022.1.3,Win32,60.39376736,62c50e9c1127f2cd403a315f,,,,,,,,,,,,,,,,,,,,,,,,,,,,,,,,,,,,,,,,,,,,,,,,,,,,,,,,,,,,,,,,,,,,,,,,,,,,,,,,,,,,,,,,,,,,,,,,,,,,,,,,,,,,,,,,,,,,,,,,,,,,,,,,,,,,,,,,,,,,,,,,,,,,,,,,,,,,,,,,,,,
0,27,27,47,1,,600f11d527aa57080e819df3,62c53a0e44e01e2e1a2aae8f,2022-07-06_09h33.43.609,Colour_Asymmetry_Pilot,2022.1.3,Win32,60.39376736,62c50e9c1127f2cd403a315f,,,,,,,,,,,,,,,,,,,,,,,,,,,,,,,,,,,,,,,,,,,,,,,,,,,,,,,,,,,,,,,,,,,,,,,,,,,,,,,,,,,,,,,,,,,,,,,,,,,,,,,,,,,,,,,,,,,,,,,,,,,,,,,,,,,,,,,,,,,,,,,,,,,,,,,,,,,,,,,,,,,
0,28,28,6,1,,600f11d527aa57080e819df3,62c53a0e44e01e2e1a2aae8f,2022-07-06_09h33.43.609,Colour_Asymmetry_Pilot,2022.1.3,Win32,60.39376736,62c50e9c1127f2cd403a315f,,,,,,,,,,,,,,,,,,,,,,,,,,,,,,,,,,,,,,,,,,,,,,,,,,,,,,,,,,,,,,,,,,,,,,,,,,,,,,,,,,,,,,,,,,,,,,,,,,,,,,,,,,,,,,,,,,,,,,,,,,,,,,,,,,,,,,,,,,,,,,,,,,,,,,,,,,,,,,,,,,,
0,29,29,30,1,,600f11d527aa57080e819df3,62c53a0e44e01e2e1a2aae8f,2022-07-06_09h33.43.609,Colour_Asymmetry_Pilot,2022.1.3,Win32,60.39376736,62c50e9c1127f2cd403a315f,,,,,,,,,,,,,,,,,,,,,,,,,,,,,,,,,,,,,,,,,,,,,,,,,,,,,,,,,,,,,,,,,,,,,,,,,,,,,,,,,,,,,,,,,,,,,,,,,,,,,,,,,,,,,,,,,,,,,,,,,,,,,,,,,,,,,,,,,,,,,,,,,,,,,,,,,,,,,,,,,,,
0,30,30,86,1,,600f11d527aa57080e819df3,62c53a0e44e01e2e1a2aae8f,2022-07-06_09h33.43.609,Colour_Asymmetry_Pilot,2022.1.3,Win32,60.39376736,62c50e9c1127f2cd403a315f,,,,,,,,,,,,,,,,,,,,,,,,,,,,,,,,,,,,,,,,,,,,,,,,,,,,,,,,,,,,,,,,,,,,,,,,,,,,,,,,,,,,,,,,,,,,,,,,,,,,,,,,,,,,,,,,,,,,,,,,,,,,,,,,,,,,,,,,,,,,,,,,,,,,,,,,,,,,,,,,,,,
0,31,31,33,1,,600f11d527aa57080e819df3,62c53a0e44e01e2e1a2aae8f,2022-07-06_09h33.43.609,Colour_Asymmetry_Pilot,2022.1.3,Win32,60.39376736,62c50e9c1127f2cd403a315f,,,,,,,,,,,,,,,,,,,,,,,,,,,,,,,,,,,,,,,,,,,,,,,,,,,,,,,,,,,,,,,,,,,,,,,,,,,,,,,,,,,,,,,,,,,,,,,,,,,,,,,,,,,,,,,,,,,,,,,,,,,,,,,,,,,,,,,,,,,,,,,,,,,,,,,,,,,,,,,,,,,
0,32,32,43,1,,600f11d527aa57080e819df3,62c53a0e44e01e2e1a2aae8f,2022-07-06_09h33.43.609,Colour_Asymmetry_Pilot,2022.1.3,Win32,60.39376736,62c50e9c1127f2cd403a315f,,,,,,,,,,,,,,,,,,,,,,,,,,,,,,,,,,,,,,,,,,,,,,,,,,,,,,,,,,,,,,,,,,,,,,,,,,,,,,,,,,,,,,,,,,,,,,,,,,,,,,,,,,,,,,,,,,,,,,,,,,,,,,,,,,,,,,,,,,,,,,,,,,,,,,,,,,,,,,,,,,,
0,33,33,10,1,,600f11d527aa57080e819df3,62c53a0e44e01e2e1a2aae8f,2022-07-06_09h33.43.609,Colour_Asymmetry_Pilot,2022.1.3,Win32,60.39376736,62c50e9c1127f2cd403a315f,,,,,,,,,,,,,,,,,,,,,,,,,,,,,,,,,,,,,,,,,,,,,,,,,,,,,,,,,,,,,,,,,,,,,,,,,,,,,,,,,,,,,,,,,,,,,,,,,,,,,,,,,,,,,,,,,,,,,,,,,,,,,,,,,,,,,,,,,,,,,,,,,,,,,,,,,,,,,,,,,,,
0,34,34,5,1,,600f11d527aa57080e819df3,62c53a0e44e01e2e1a2aae8f,2022-07-06_09h33.43.609,Colour_Asymmetry_Pilot,2022.1.3,Win32,60.39376736,62c50e9c1127f2cd403a315f,,,,,,,,,,,,,,,,,,,,,,,,,,,,,,,,,,,,,,,,,,,,,,,,,,,,,,,,,,,,,,,,,,,,,,,,,,,,,,,,,,,,,,,,,,,,,,,,,,,,,,,,,,,,,,,,,,,,,,,,,,,,,,,,,,,,,,,,,,,,,,,,,,,,,,,,,,,,,,,,,,,
0,35,35,87,1,,600f11d527aa57080e819df3,62c53a0e44e01e2e1a2aae8f,2022-07-06_09h33.43.609,Colour_Asymmetry_Pilot,2022.1.3,Win32,60.39376736,62c50e9c1127f2cd403a315f,,,,,,,,,,,,,,,,,,,,,,,,,,,,,,,,,,,,,,,,,,,,,,,,,,,,,,,,,,,,,,,,,,,,,,,,,,,,,,,,,,,,,,,,,,,,,,,,,,,,,,,,,,,,,,,,,,,,,,,,,,,,,,,,,,,,,,,,,,,,,,,,,,,,,,,,,,,,,,,,,,,
0,36,36,25,1,,600f11d527aa57080e819df3,62c53a0e44e01e2e1a2aae8f,2022-07-06_09h33.43.609,Colour_Asymmetry_Pilot,2022.1.3,Win32,60.39376736,62c50e9c1127f2cd403a315f,,,,,,,,,,,,,,,,,,,,,,,,,,,,,,,,,,,,,,,,,,,,,,,,,,,,,,,,,,,,,,,,,,,,,,,,,,,,,,,,,,,,,,,,,,,,,,,,,,,,,,,,,,,,,,,,,,,,,,,,,,,,,,,,,,,,,,,,,,,,,,,,,,,,,,,,,,,,,,,,,,,
0,37,37,90,1,,600f11d527aa57080e819df3,62c53a0e44e01e2e1a2aae8f,2022-07-06_09h33.43.609,Colour_Asymmetry_Pilot,2022.1.3,Win32,60.39376736,62c50e9c1127f2cd403a315f,,,,,,,,,,,,,,,,,,,,,,,,,,,,,,,,,,,,,,,,,,,,,,,,,,,,,,,,,,,,,,,,,,,,,,,,,,,,,,,,,,,,,,,,,,,,,,,,,,,,,,,,,,,,,,,,,,,,,,,,,,,,,,,,,,,,,,,,,,,,,,,,,,,,,,,,,,,,,,,,,,,
0,38,38,32,1,,600f11d527aa57080e819df3,62c53a0e44e01e2e1a2aae8f,2022-07-06_09h33.43.609,Colour_Asymmetry_Pilot,2022.1.3,Win32,60.39376736,62c50e9c1127f2cd403a315f,,,,,,,,,,,,,,,,,,,,,,,,,,,,,,,,,,,,,,,,,,,,,,,,,,,,,,,,,,,,,,,,,,,,,,,,,,,,,,,,,,,,,,,,,,,,,,,,,,,,,,,,,,,,,,,,,,,,,,,,,,,,,,,,,,,,,,,,,,,,,,,,,,,,,,,,,,,,,,,,,,,
0,39,39,84,1,,600f11d527aa57080e819df3,62c53a0e44e01e2e1a2aae8f,2022-07-06_09h33.43.609,Colour_Asymmetry_Pilot,2022.1.3,Win32,60.39376736,62c50e9c1127f2cd403a315f,,,,,,,,,,,,,,,,,,,,,,,,,,,,,,,,,,,,,,,,,,,,,,,,,,,,,,,,,,,,,,,,,,,,,,,,,,,,,,,,,,,,,,,,,,,,,,,,,,,,,,,,,,,,,,,,,,,,,,,,,,,,,,,,,,,,,,,,,,,,,,,,,,,,,,,,,,,,,,,,,,,
0,40,40,55,1,,600f11d527aa57080e819df3,62c53a0e44e01e2e1a2aae8f,2022-07-06_09h33.43.609,Colour_Asymmetry_Pilot,2022.1.3,Win32,60.39376736,62c50e9c1127f2cd403a315f,,,,,,,,,,,,,,,,,,,,,,,,,,,,,,,,,,,,,,,,,,,,,,,,,,,,,,,,,,,,,,,,,,,,,,,,,,,,,,,,,,,,,,,,,,,,,,,,,,,,,,,,,,,,,,,,,,,,,,,,,,,,,,,,,,,,,,,,,,,,,,,,,,,,,,,,,,,,,,,,,,,
0,41,41,83,1,,600f11d527aa57080e819df3,62c53a0e44e01e2e1a2aae8f,2022-07-06_09h33.43.609,Colour_Asymmetry_Pilot,2022.1.3,Win32,60.39376736,62c50e9c1127f2cd403a315f,,,,,,,,,,,,,,,,,,,,,,,,,,,,,,,,,,,,,,,,,,,,,,,,,,,,,,,,,,,,,,,,,,,,,,,,,,,,,,,,,,,,,,,,,,,,,,,,,,,,,,,,,,,,,,,,,,,,,,,,,,,,,,,,,,,,,,,,,,,,,,,,,,,,,,,,,,,,,,,,,,,
0,42,42,85,1,,600f11d527aa57080e819df3,62c53a0e44e01e2e1a2aae8f,2022-07-06_09h33.43.609,Colour_Asymmetry_Pilot,2022.1.3,Win32,60.39376736,62c50e9c1127f2cd403a315f,,,,,,,,,,,,,,,,,,,,,,,,,,,,,,,,,,,,,,,,,,,,,,,,,,,,,,,,,,,,,,,,,,,,,,,,,,,,,,,,,,,,,,,,,,,,,,,,,,,,,,,,,,,,,,,,,,,,,,,,,,,,,,,,,,,,,,,,,,,,,,,,,,,,,,,,,,,,,,,,,,,
0,43,43,82,1,,600f11d527aa57080e819df3,62c53a0e44e01e2e1a2aae8f,2022-07-06_09h33.43.609,Colour_Asymmetry_Pilot,2022.1.3,Win32,60.39376736,62c50e9c1127f2cd403a315f,,,,,,,,,,,,,,,,,,,,,,,,,,,,,,,,,,,,,,,,,,,,,,,,,,,,,,,,,,,,,,,,,,,,,,,,,,,,,,,,,,,,,,,,,,,,,,,,,,,,,,,,,,,,,,,,,,,,,,,,,,,,,,,,,,,,,,,,,,,,,,,,,,,,,,,,,,,,,,,,,,,
0,44,44,41,1,,600f11d527aa57080e819df3,62c53a0e44e01e2e1a2aae8f,2022-07-06_09h33.43.609,Colour_Asymmetry_Pilot,2022.1.3,Win32,60.39376736,62c50e9c1127f2cd403a315f,,,,,,,,,,,,,,,,,,,,,,,,,,,,,,,,,,,,,,,,,,,,,,,,,,,,,,,,,,,,,,,,,,,,,,,,,,,,,,,,,,,,,,,,,,,,,,,,,,,,,,,,,,,,,,,,,,,,,,,,,,,,,,,,,,,,,,,,,,,,,,,,,,,,,,,,,,,,,,,,,,,
0,45,45,27,1,,600f11d527aa57080e819df3,62c53a0e44e01e2e1a2aae8f,2022-07-06_09h33.43.609,Colour_Asymmetry_Pilot,2022.1.3,Win32,60.39376736,62c50e9c1127f2cd403a315f,,,,,,,,,,,,,,,,,,,,,,,,,,,,,,,,,,,,,,,,,,,,,,,,,,,,,,,,,,,,,,,,,,,,,,,,,,,,,,,,,,,,,,,,,,,,,,,,,,,,,,,,,,,,,,,,,,,,,,,,,,,,,,,,,,,,,,,,,,,,,,,,,,,,,,,,,,,,,,,,,,,
0,46,46,64,1,,600f11d527aa57080e819df3,62c53a0e44e01e2e1a2aae8f,2022-07-06_09h33.43.609,Colour_Asymmetry_Pilot,2022.1.3,Win32,60.39376736,62c50e9c1127f2cd403a315f,,,,,,,,,,,,,,,,,,,,,,,,,,,,,,,,,,,,,,,,,,,,,,,,,,,,,,,,,,,,,,,,,,,,,,,,,,,,,,,,,,,,,,,,,,,,,,,,,,,,,,,,,,,,,,,,,,,,,,,,,,,,,,,,,,,,,,,,,,,,,,,,,,,,,,,,,,,,,,,,,,,
0,47,47,58,1,,600f11d527aa57080e819df3,62c53a0e44e01e2e1a2aae8f,2022-07-06_09h33.43.609,Colour_Asymmetry_Pilot,2022.1.3,Win32,60.39376736,62c50e9c1127f2cd403a315f,,,,,,,,,,,,,,,,,,,,,,,,,,,,,,,,,,,,,,,,,,,,,,,,,,,,,,,,,,,,,,,,,,,,,,,,,,,,,,,,,,,,,,,,,,,,,,,,,,,,,,,,,,,,,,,,,,,,,,,,,,,,,,,,,,,,,,,,,,,,,,,,,,,,,,,,,,,,,,,,,,,
0,48,48,22,1,,600f11d527aa57080e819df3,62c53a0e44e01e2e1a2aae8f,2022-07-06_09h33.43.609,Colour_Asymmetry_Pilot,2022.1.3,Win32,60.39376736,62c50e9c1127f2cd403a315f,,,,,,,,,,,,,,,,,,,,,,,,,,,,,,,,,,,,,,,,,,,,,,,,,,,,,,,,,,,,,,,,,,,,,,,,,,,,,,,,,,,,,,,,,,,,,,,,,,,,,,,,,,,,,,,,,,,,,,,,,,,,,,,,,,,,,,,,,,,,,,,,,,,,,,,,,,,,,,,,,,,
0,49,49,2,1,,600f11d527aa57080e819df3,62c53a0e44e01e2e1a2aae8f,2022-07-06_09h33.43.609,Colour_Asymmetry_Pilot,2022.1.3,Win32,60.39376736,62c50e9c1127f2cd403a315f,,,,,,,,,,,,,,,,,,,,,,,,,,,,,,,,,,,,,,,,,,,,,,,,,,,,,,,,,,,,,,,,,,,,,,,,,,,,,,,,,,,,,,,,,,,,,,,,,,,,,,,,,,,,,,,,,,,,,,,,,,,,,,,,,,,,,,,,,,,,,,,,,,,,,,,,,,,,,,,,,,,
0,50,50,54,1,,600f11d527aa57080e819df3,62c53a0e44e01e2e1a2aae8f,2022-07-06_09h33.43.609,Colour_Asymmetry_Pilot,2022.1.3,Win32,60.39376736,62c50e9c1127f2cd403a315f,,,,,,,,,,,,,,,,,,,,,,,,,,,,,,,,,,,,,,,,,,,,,,,,,,,,,,,,,,,,,,,,,,,,,,,,,,,,,,,,,,,,,,,,,,,,,,,,,,,,,,,,,,,,,,,,,,,,,,,,,,,,,,,,,,,,,,,,,,,,,,,,,,,,,,,,,,,,,,,,,,,
0,51,51,53,1,,600f11d527aa57080e819df3,62c53a0e44e01e2e1a2aae8f,2022-07-06_09h33.43.609,Colour_Asymmetry_Pilot,2022.1.3,Win32,60.39376736,62c50e9c1127f2cd403a315f,,,,,,,,,,,,,,,,,,,,,,,,,,,,,,,,,,,,,,,,,,,,,,,,,,,,,,,,,,,,,,,,,,,,,,,,,,,,,,,,,,,,,,,,,,,,,,,,,,,,,,,,,,,,,,,,,,,,,,,,,,,,,,,,,,,,,,,,,,,,,,,,,,,,,,,,,,,,,,,,,,,
0,52,52,76,1,,600f11d527aa57080e819df3,62c53a0e44e01e2e1a2aae8f,2022-07-06_09h33.43.609,Colour_Asymmetry_Pilot,2022.1.3,Win32,60.39376736,62c50e9c1127f2cd403a315f,,,,,,,,,,,,,,,,,,,,,,,,,,,,,,,,,,,,,,,,,,,,,,,,,,,,,,,,,,,,,,,,,,,,,,,,,,,,,,,,,,,,,,,,,,,,,,,,,,,,,,,,,,,,,,,,,,,,,,,,,,,,,,,,,,,,,,,,,,,,,,,,,,,,,,,,,,,,,,,,,,,
0,53,53,23,1,,600f11d527aa57080e819df3,62c53a0e44e01e2e1a2aae8f,2022-07-06_09h33.43.609,Colour_Asymmetry_Pilot,2022.1.3,Win32,60.39376736,62c50e9c1127f2cd403a315f,,,,,,,,,,,,,,,,,,,,,,,,,,,,,,,,,,,,,,,,,,,,,,,,,,,,,,,,,,,,,,,,,,,,,,,,,,,,,,,,,,,,,,,,,,,,,,,,,,,,,,,,,,,,,,,,,,,,,,,,,,,,,,,,,,,,,,,,,,,,,,,,,,,,,,,,,,,,,,,,,,,
0,54,54,70,1,,600f11d527aa57080e819df3,62c53a0e44e01e2e1a2aae8f,2022-07-06_09h33.43.609,Colour_Asymmetry_Pilot,2022.1.3,Win32,60.39376736,62c50e9c1127f2cd403a315f,,,,,,,,,,,,,,,,,,,,,,,,,,,,,,,,,,,,,,,,,,,,,,,,,,,,,,,,,,,,,,,,,,,,,,,,,,,,,,,,,,,,,,,,,,,,,,,,,,,,,,,,,,,,,,,,,,,,,,,,,,,,,,,,,,,,,,,,,,,,,,,,,,,,,,,,,,,,,,,,,,,
0,55,55,9,1,,600f11d527aa57080e819df3,62c53a0e44e01e2e1a2aae8f,2022-07-06_09h33.43.609,Colour_Asymmetry_Pilot,2022.1.3,Win32,60.39376736,62c50e9c1127f2cd403a315f,,,,,,,,,,,,,,,,,,,,,,,,,,,,,,,,,,,,,,,,,,,,,,,,,,,,,,,,,,,,,,,,,,,,,,,,,,,,,,,,,,,,,,,,,,,,,,,,,,,,,,,,,,,,,,,,,,,,,,,,,,,,,,,,,,,,,,,,,,,,,,,,,,,,,,,,,,,,,,,,,,,
0,56,56,34,1,,600f11d527aa57080e819df3,62c53a0e44e01e2e1a2aae8f,2022-07-06_09h33.43.609,Colour_Asymmetry_Pilot,2022.1.3,Win32,60.39376736,62c50e9c1127f2cd403a315f,,,,,,,,,,,,,,,,,,,,,,,,,,,,,,,,,,,,,,,,,,,,,,,,,,,,,,,,,,,,,,,,,,,,,,,,,,,,,,,,,,,,,,,,,,,,,,,,,,,,,,,,,,,,,,,,,,,,,,,,,,,,,,,,,,,,,,,,,,,,,,,,,,,,,,,,,,,,,,,,,,,
0,57,57,52,1,,600f11d527aa57080e819df3,62c53a0e44e01e2e1a2aae8f,2022-07-06_09h33.43.609,Colour_Asymmetry_Pilot,2022.1.3,Win32,60.39376736,62c50e9c1127f2cd403a315f,,,,,,,,,,,,,,,,,,,,,,,,,,,,,,,,,,,,,,,,,,,,,,,,,,,,,,,,,,,,,,,,,,,,,,,,,,,,,,,,,,,,,,,,,,,,,,,,,,,,,,,,,,,,,,,,,,,,,,,,,,,,,,,,,,,,,,,,,,,,,,,,,,,,,,,,,,,,,,,,,,,
0,58,58,72,1,,600f11d527aa57080e819df3,62c53a0e44e01e2e1a2aae8f,2022-07-06_09h33.43.609,Colour_Asymmetry_Pilot,2022.1.3,Win32,60.39376736,62c50e9c1127f2cd403a315f,,,,,,,,,,,,,,,,,,,,,,,,,,,,,,,,,,,,,,,,,,,,,,,,,,,,,,,,,,,,,,,,,,,,,,,,,,,,,,,,,,,,,,,,,,,,,,,,,,,,,,,,,,,,,,,,,,,,,,,,,,,,,,,,,,,,,,,,,,,,,,,,,,,,,,,,,,,,,,,,,,,
0,59,59,38,1,,600f11d527aa57080e819df3,62c53a0e44e01e2e1a2aae8f,2022-07-06_09h33.43.609,Colour_Asymmetry_Pilot,2022.1.3,Win32,60.39376736,62c50e9c1127f2cd403a315f,,,,,,,,,,,,,,,,,,,,,,,,,,,,,,,,,,,,,,,,,,,,,,,,,,,,,,,,,,,,,,,,,,,,,,,,,,,,,,,,,,,,,,,,,,,,,,,,,,,,,,,,,,,,,,,,,,,,,,,,,,,,,,,,,,,,,,,,,,,,,,,,,,,,,,,,,,,,,,,,,,,
0,60,60,77,1,,600f11d527aa57080e819df3,62c53a0e44e01e2e1a2aae8f,2022-07-06_09h33.43.609,Colour_Asymmetry_Pilot,2022.1.3,Win32,60.39376736,62c50e9c1127f2cd403a315f,,,,,,,,,,,,,,,,,,,,,,,,,,,,,,,,,,,,,,,,,,,,,,,,,,,,,,,,,,,,,,,,,,,,,,,,,,,,,,,,,,,,,,,,,,,,,,,,,,,,,,,,,,,,,,,,,,,,,,,,,,,,,,,,,,,,,,,,,,,,,,,,,,,,,,,,,,,,,,,,,,,
0,61,61,49,1,,600f11d527aa57080e819df3,62c53a0e44e01e2e1a2aae8f,2022-07-06_09h33.43.609,Colour_Asymmetry_Pilot,2022.1.3,Win32,60.39376736,62c50e9c1127f2cd403a315f,,,,,,,,,,,,,,,,,,,,,,,,,,,,,,,,,,,,,,,,,,,,,,,,,,,,,,,,,,,,,,,,,,,,,,,,,,,,,,,,,,,,,,,,,,,,,,,,,,,,,,,,,,,,,,,,,,,,,,,,,,,,,,,,,,,,,,,,,,,,,,,,,,,,,,,,,,,,,,,,,,,
0,62,62,15,1,,600f11d527aa57080e819df3,62c53a0e44e01e2e1a2aae8f,2022-07-06_09h33.43.609,Colour_Asymmetry_Pilot,2022.1.3,Win32,60.39376736,62c50e9c1127f2cd403a315f,,,,,,,,,,,,,,,,,,,,,,,,,,,,,,,,,,,,,,,,,,,,,,,,,,,,,,,,,,,,,,,,,,,,,,,,,,,,,,,,,,,,,,,,,,,,,,,,,,,,,,,,,,,,,,,,,,,,,,,,,,,,,,,,,,,,,,,,,,,,,,,,,,,,,,,,,,,,,,,,,,,
0,63,63,28,1,,600f11d527aa57080e819df3,62c53a0e44e01e2e1a2aae8f,2022-07-06_09h33.43.609,Colour_Asymmetry_Pilot,2022.1.3,Win32,60.39376736,62c50e9c1127f2cd403a315f,,,,,,,,,,,,,,,,,,,,,,,,,,,,,,,,,,,,,,,,,,,,,,,,,,,,,,,,,,,,,,,,,,,,,,,,,,,,,,,,,,,,,,,,,,,,,,,,,,,,,,,,,,,,,,,,,,,,,,,,,,,,,,,,,,,,,,,,,,,,,,,,,,,,,,,,,,,,,,,,,,,
0,64,64,3,1,,600f11d527aa57080e819df3,62c53a0e44e01e2e1a2aae8f,2022-07-06_09h33.43.609,Colour_Asymmetry_Pilot,2022.1.3,Win32,60.39376736,62c50e9c1127f2cd403a315f,,,,,,,,,,,,,,,,,,,,,,,,,,,,,,,,,,,,,,,,,,,,,,,,,,,,,,,,,,,,,,,,,,,,,,,,,,,,,,,,,,,,,,,,,,,,,,,,,,,,,,,,,,,,,,,,,,,,,,,,,,,,,,,,,,,,,,,,,,,,,,,,,,,,,,,,,,,,,,,,,,,
0,65,65,35,1,,600f11d527aa57080e819df3,62c53a0e44e01e2e1a2aae8f,2022-07-06_09h33.43.609,Colour_Asymmetry_Pilot,2022.1.3,Win32,60.39376736,62c50e9c1127f2cd403a315f,,,,,,,,,,,,,,,,,,,,,,,,,,,,,,,,,,,,,,,,,,,,,,,,,,,,,,,,,,,,,,,,,,,,,,,,,,,,,,,,,,,,,,,,,,,,,,,,,,,,,,,,,,,,,,,,,,,,,,,,,,,,,,,,,,,,,,,,,,,,,,,,,,,,,,,,,,,,,,,,,,,
0,66,66,66,1,,600f11d527aa57080e819df3,62c53a0e44e01e2e1a2aae8f,2022-07-06_09h33.43.609,Colour_Asymmetry_Pilot,2022.1.3,Win32,60.39376736,62c50e9c1127f2cd403a315f,,,,,,,,,,,,,,,,,,,,,,,,,,,,,,,,,,,,,,,,,,,,,,,,,,,,,,,,,,,,,,,,,,,,,,,,,,,,,,,,,,,,,,,,,,,,,,,,,,,,,,,,,,,,,,,,,,,,,,,,,,,,,,,,,,,,,,,,,,,,,,,,,,,,,,,,,,,,,,,,,,,
0,67,67,7,1,,600f11d527aa57080e819df3,62c53a0e44e01e2e1a2aae8f,2022-07-06_09h33.43.609,Colour_Asymmetry_Pilot,2022.1.3,Win32,60.39376736,62c50e9c1127f2cd403a315f,,,,,,,,,,,,,,,,,,,,,,,,,,,,,,,,,,,,,,,,,,,,,,,,,,,,,,,,,,,,,,,,,,,,,,,,,,,,,,,,,,,,,,,,,,,,,,,,,,,,,,,,,,,,,,,,,,,,,,,,,,,,,,,,,,,,,,,,,,,,,,,,,,,,,,,,,,,,,,,,,,,
0,68,68,8,1,,600f11d527aa57080e819df3,62c53a0e44e01e2e1a2aae8f,2022-07-06_09h33.43.609,Colour_Asymmetry_Pilot,2022.1.3,Win32,60.39376736,62c50e9c1127f2cd403a315f,,,,,,,,,,,,,,,,,,,,,,,,,,,,,,,,,,,,,,,,,,,,,,,,,,,,,,,,,,,,,,,,,,,,,,,,,,,,,,,,,,,,,,,,,,,,,,,,,,,,,,,,,,,,,,,,,,,,,,,,,,,,,,,,,,,,,,,,,,,,,,,,,,,,,,,,,,,,,,,,,,,
0,69,69,74,1,,600f11d527aa57080e819df3,62c53a0e44e01e2e1a2aae8f,2022-07-06_09h33.43.609,Colour_Asymmetry_Pilot,2022.1.3,Win32,60.39376736,62c50e9c1127f2cd403a315f,,,,,,,,,,,,,,,,,,,,,,,,,,,,,,,,,,,,,,,,,,,,,,,,,,,,,,,,,,,,,,,,,,,,,,,,,,,,,,,,,,,,,,,,,,,,,,,,,,,,,,,,,,,,,,,,,,,,,,,,,,,,,,,,,,,,,,,,,,,,,,,,,,,,,,,,,,,,,,,,,,,
0,70,70,20,1,,600f11d527aa57080e819df3,62c53a0e44e01e2e1a2aae8f,2022-07-06_09h33.43.609,Colour_Asymmetry_Pilot,2022.1.3,Win32,60.39376736,62c50e9c1127f2cd403a315f,,,,,,,,,,,,,,,,,,,,,,,,,,,,,,,,,,,,,,,,,,,,,,,,,,,,,,,,,,,,,,,,,,,,,,,,,,,,,,,,,,,,,,,,,,,,,,,,,,,,,,,,,,,,,,,,,,,,,,,,,,,,,,,,,,,,,,,,,,,,,,,,,,,,,,,,,,,,,,,,,,,
0,71,71,17,1,,600f11d527aa57080e819df3,62c53a0e44e01e2e1a2aae8f,2022-07-06_09h33.43.609,Colour_Asymmetry_Pilot,2022.1.3,Win32,60.39376736,62c50e9c1127f2cd403a315f,,,,,,,,,,,,,,,,,,,,,,,,,,,,,,,,,,,,,,,,,,,,,,,,,,,,,,,,,,,,,,,,,,,,,,,,,,,,,,,,,,,,,,,,,,,,,,,,,,,,,,,,,,,,,,,,,,,,,,,,,,,,,,,,,,,,,,,,,,,,,,,,,,,,,,,,,,,,,,,,,,,
0,72,72,0,1,,600f11d527aa57080e819df3,62c53a0e44e01e2e1a2aae8f,2022-07-06_09h33.43.609,Colour_Asymmetry_Pilot,2022.1.3,Win32,60.39376736,62c50e9c1127f2cd403a315f,,,,,,,,,,,,,,,,,,,,,,,,,,,,,,,,,,,,,,,,,,,,,,,,,,,,,,,,,,,,,,,,,,,,,,,,,,,,,,,,,,,,,,,,,,,,,,,,,,,,,,,,,,,,,,,,,,,,,,,,,,,,,,,,,,,,,,,,,,,,,,,,,,,,,,,,,,,,,,,,,,,
0,73,73,12,1,,600f11d527aa57080e819df3,62c53a0e44e01e2e1a2aae8f,2022-07-06_09h33.43.609,Colour_Asymmetry_Pilot,2022.1.3,Win32,60.39376736,62c50e9c1127f2cd403a315f,,,,,,,,,,,,,,,,,,,,,,,,,,,,,,,,,,,,,,,,,,,,,,,,,,,,,,,,,,,,,,,,,,,,,,,,,,,,,,,,,,,,,,,,,,,,,,,,,,,,,,,,,,,,,,,,,,,,,,,,,,,,,,,,,,,,,,,,,,,,,,,,,,,,,,,,,,,,,,,,,,,
0,74,74,79,1,,600f11d527aa57080e819df3,62c53a0e44e01e2e1a2aae8f,2022-07-06_09h33.43.609,Colour_Asymmetry_Pilot,2022.1.3,Win32,60.39376736,62c50e9c1127f2cd403a315f,,,,,,,,,,,,,,,,,,,,,,,,,,,,,,,,,,,,,,,,,,,,,,,,,,,,,,,,,,,,,,,,,,,,,,,,,,,,,,,,,,,,,,,,,,,,,,,,,,,,,,,,,,,,,,,,,,,,,,,,,,,,,,,,,,,,,,,,,,,,,,,,,,,,,,,,,,,,,,,,,,,
0,75,75,14,1,,600f11d527aa57080e819df3,62c53a0e44e01e2e1a2aae8f,2022-07-06_09h33.43.609,Colour_Asymmetry_Pilot,2022.1.3,Win32,60.39376736,62c50e9c1127f2cd403a315f,,,,,,,,,,,,,,,,,,,,,,,,,,,,,,,,,,,,,,,,,,,,,,,,,,,,,,,,,,,,,,,,,,,,,,,,,,,,,,,,,,,,,,,,,,,,,,,,,,,,,,,,,,,,,,,,,,,,,,,,,,,,,,,,,,,,,,,,,,,,,,,,,,,,,,,,,,,,,,,,,,,
0,76,76,19,1,,600f11d527aa57080e819df3,62c53a0e44e01e2e1a2aae8f,2022-07-06_09h33.43.609,Colour_Asymmetry_Pilot,2022.1.3,Win32,60.39376736,62c50e9c1127f2cd403a315f,,,,,,,,,,,,,,,,,,,,,,,,,,,,,,,,,,,,,,,,,,,,,,,,,,,,,,,,,,,,,,,,,,,,,,,,,,,,,,,,,,,,,,,,,,,,,,,,,,,,,,,,,,,,,,,,,,,,,,,,,,,,,,,,,,,,,,,,,,,,,,,,,,,,,,,,,,,,,,,,,,,
0,77,77,69,1,,600f11d527aa57080e819df3,62c53a0e44e01e2e1a2aae8f,2022-07-06_09h33.43.609,Colour_Asymmetry_Pilot,2022.1.3,Win32,60.39376736,62c50e9c1127f2cd403a315f,,,,,,,,,,,,,,,,,,,,,,,,,,,,,,,,,,,,,,,,,,,,,,,,,,,,,,,,,,,,,,,,,,,,,,,,,,,,,,,,,,,,,,,,,,,,,,,,,,,,,,,,,,,,,,,,,,,,,,,,,,,,,,,,,,,,,,,,,,,,,,,,,,,,,,,,,,,,,,,,,,,
0,78,78,68,1,,600f11d527aa57080e819df3,62c53a0e44e01e2e1a2aae8f,2022-07-06_09h33.43.609,Colour_Asymmetry_Pilot,2022.1.3,Win32,60.39376736,62c50e9c1127f2cd403a315f,,,,,,,,,,,,,,,,,,,,,,,,,,,,,,,,,,,,,,,,,,,,,,,,,,,,,,,,,,,,,,,,,,,,,,,,,,,,,,,,,,,,,,,,,,,,,,,,,,,,,,,,,,,,,,,,,,,,,,,,,,,,,,,,,,,,,,,,,,,,,,,,,,,,,,,,,,,,,,,,,,,
0,79,79,59,1,,600f11d527aa57080e819df3,62c53a0e44e01e2e1a2aae8f,2022-07-06_09h33.43.609,Colour_Asymmetry_Pilot,2022.1.3,Win32,60.39376736,62c50e9c1127f2cd403a315f,,,,,,,,,,,,,,,,,,,,,,,,,,,,,,,,,,,,,,,,,,,,,,,,,,,,,,,,,,,,,,,,,,,,,,,,,,,,,,,,,,,,,,,,,,,,,,,,,,,,,,,,,,,,,,,,,,,,,,,,,,,,,,,,,,,,,,,,,,,,,,,,,,,,,,,,,,,,,,,,,,,
0,80,80,92,1,,600f11d527aa57080e819df3,62c53a0e44e01e2e1a2aae8f,2022-07-06_09h33.43.609,Colour_Asymmetry_Pilot,2022.1.3,Win32,60.39376736,62c50e9c1127f2cd403a315f,,,,,,,,,,,,,,,,,,,,,,,,,,,,,,,,,,,,,,,,,,,,,,,,,,,,,,,,,,,,,,,,,,,,,,,,,,,,,,,,,,,,,,,,,,,,,,,,,,,,,,,,,,,,,,,,,,,,,,,,,,,,,,,,,,,,,,,,,,,,,,,,,,,,,,,,,,,,,,,,,,,
0,81,81,21,1,,600f11d527aa57080e819df3,62c53a0e44e01e2e1a2aae8f,2022-07-06_09h33.43.609,Colour_Asymmetry_Pilot,2022.1.3,Win32,60.39376736,62c50e9c1127f2cd403a315f,,,,,,,,,,,,,,,,,,,,,,,,,,,,,,,,,,,,,,,,,,,,,,,,,,,,,,,,,,,,,,,,,,,,,,,,,,,,,,,,,,,,,,,,,,,,,,,,,,,,,,,,,,,,,,,,,,,,,,,,,,,,,,,,,,,,,,,,,,,,,,,,,,,,,,,,,,,,,,,,,,,
0,82,82,75,1,,600f11d527aa57080e819df3,62c53a0e44e01e2e1a2aae8f,2022-07-06_09h33.43.609,Colour_Asymmetry_Pilot,2022.1.3,Win32,60.39376736,62c50e9c1127f2cd403a315f,,,,,,,,,,,,,,,,,,,,,,,,,,,,,,,,,,,,,,,,,,,,,,,,,,,,,,,,,,,,,,,,,,,,,,,,,,,,,,,,,,,,,,,,,,,,,,,,,,,,,,,,,,,,,,,,,,,,,,,,,,,,,,,,,,,,,,,,,,,,,,,,,,,,,,,,,,,,,,,,,,,
0,83,83,39,1,,600f11d527aa57080e819df3,62c53a0e44e01e2e1a2aae8f,2022-07-06_09h33.43.609,Colour_Asymmetry_Pilot,2022.1.3,Win32,60.39376736,62c50e9c1127f2cd403a315f,,,,,,,,,,,,,,,,,,,,,,,,,,,,,,,,,,,,,,,,,,,,,,,,,,,,,,,,,,,,,,,,,,,,,,,,,,,,,,,,,,,,,,,,,,,,,,,,,,,,,,,,,,,,,,,,,,,,,,,,,,,,,,,,,,,,,,,,,,,,,,,,,,,,,,,,,,,,,,,,,,,
0,84,84,57,1,,600f11d527aa57080e819df3,62c53a0e44e01e2e1a2aae8f,2022-07-06_09h33.43.609,Colour_Asymmetry_Pilot,2022.1.3,Win32,60.39376736,62c50e9c1127f2cd403a315f,,,,,,,,,,,,,,,,,,,,,,,,,,,,,,,,,,,,,,,,,,,,,,,,,,,,,,,,,,,,,,,,,,,,,,,,,,,,,,,,,,,,,,,,,,,,,,,,,,,,,,,,,,,,,,,,,,,,,,,,,,,,,,,,,,,,,,,,,,,,,,,,,,,,,,,,,,,,,,,,,,,
0,85,85,89,1,,600f11d527aa57080e819df3,62c53a0e44e01e2e1a2aae8f,2022-07-06_09h33.43.609,Colour_Asymmetry_Pilot,2022.1.3,Win32,60.39376736,62c50e9c1127f2cd403a315f,,,,,,,,,,,,,,,,,,,,,,,,,,,,,,,,,,,,,,,,,,,,,,,,,,,,,,,,,,,,,,,,,,,,,,,,,,,,,,,,,,,,,,,,,,,,,,,,,,,,,,,,,,,,,,,,,,,,,,,,,,,,,,,,,,,,,,,,,,,,,,,,,,,,,,,,,,,,,,,,,,,
0,86,86,46,1,,600f11d527aa57080e819df3,62c53a0e44e01e2e1a2aae8f,2022-07-06_09h33.43.609,Colour_Asymmetry_Pilot,2022.1.3,Win32,60.39376736,62c50e9c1127f2cd403a315f,,,,,,,,,,,,,,,,,,,,,,,,,,,,,,,,,,,,,,,,,,,,,,,,,,,,,,,,,,,,,,,,,,,,,,,,,,,,,,,,,,,,,,,,,,,,,,,,,,,,,,,,,,,,,,,,,,,,,,,,,,,,,,,,,,,,,,,,,,,,,,,,,,,,,,,,,,,,,,,,,,,
0,87,87,60,1,,600f11d527aa57080e819df3,62c53a0e44e01e2e1a2aae8f,2022-07-06_09h33.43.609,Colour_Asymmetry_Pilot,2022.1.3,Win32,60.39376736,62c50e9c1127f2cd403a315f,,,,,,,,,,,,,,,,,,,,,,,,,,,,,,,,,,,,,,,,,,,,,,,,,,,,,,,,,,,,,,,,,,,,,,,,,,,,,,,,,,,,,,,,,,,,,,,,,,,,,,,,,,,,,,,,,,,,,,,,,,,,,,,,,,,,,,,,,,,,,,,,,,,,,,,,,,,,,,,,,,,
0,88,88,11,1,,600f11d527aa57080e819df3,62c53a0e44e01e2e1a2aae8f,2022-07-06_09h33.43.609,Colour_Asymmetry_Pilot,2022.1.3,Win32,60.39376736,62c50e9c1127f2cd403a315f,,,,,,,,,,,,,,,,,,,,,,,,,,,,,,,,,,,,,,,,,,,,,,,,,,,,,,,,,,,,,,,,,,,,,,,,,,,,,,,,,,,,,,,,,,,,,,,,,,,,,,,,,,,,,,,,,,,,,,,,,,,,,,,,,,,,,,,,,,,,,,,,,,,,,,,,,,,,,,,,,,,
0,89,89,16,1,,600f11d527aa57080e819df3,62c53a0e44e01e2e1a2aae8f,2022-07-06_09h33.43.609,Colour_Asymmetry_Pilot,2022.1.3,Win32,60.39376736,62c50e9c1127f2cd403a315f,,,,,,,,,,,,,,,,,,,,,,,,,,,,,,,,,,,,,,,,,,,,,,,,,,,,,,,,,,,,,,,,,,,,,,,,,,,,,,,,,,,,,,,,,,,,,,,,,,,,,,,,,,,,,,,,,,,,,,,,,,,,,,,,,,,,,,,,,,,,,,,,,,,,,,,,,,,,,,,,,,,
0,90,90,31,1,,600f11d527aa57080e819df3,62c53a0e44e01e2e1a2aae8f,2022-07-06_09h33.43.609,Colour_Asymmetry_Pilot,2022.1.3,Win32,60.39376736,62c50e9c1127f2cd403a315f,,,,,,,,,,,,,,,,,,,,,,,,,,,,,,,,,,,,,,,,,,,,,,,,,,,,,,,,,,,,,,,,,,,,,,,,,,,,,,,,,,,,,,,,,,,,,,,,,,,,,,,,,,,,,,,,,,,,,,,,,,,,,,,,,,,,,,,,,,,,,,,,,,,,,,,,,,,,,,,,,,,
0,91,91,24,1,,600f11d527aa57080e819df3,62c53a0e44e01e2e1a2aae8f,2022-07-06_09h33.43.609,Colour_Asymmetry_Pilot,2022.1.3,Win32,60.39376736,62c50e9c1127f2cd403a315f,,,,,,,,,,,,,,,,,,,,,,,,,,,,,,,,,,,,,,,,,,,,,,,,,,,,,,,,,,,,,,,,,,,,,,,,,,,,,,,,,,,,,,,,,,,,,,,,,,,,,,,,,,,,,,,,,,,,,,,,,,,,,,,,,,,,,,,,,,,,,,,,,,,,,,,,,,,,,,,,,,,
0,92,92,63,1,,600f11d527aa57080e819df3,62c53a0e44e01e2e1a2aae8f,2022-07-06_09h33.43.609,Colour_Asymmetry_Pilot,2022.1.3,Win32,60.39376736,62c50e9c1127f2cd403a315f,,,,,,,,,,,,,,,,,,,,,,,,,,,,,,,,,,,,,,,,,,,,,,,,,,,,,,,,,,,,,,,,,,,,,,,,,,,,,,,,,,,,,,,,,,,,,,,,,,,,,,,,,,,,,,,,,,,,,,,,,,,,,,,,,,,,,,,,,,,,,,,,,,,,,,,,,,,,,,,,,,,
,,,,,,600f11d527aa57080e819df3,62c53a0e44e01e2e1a2aae8f,2022-07-06_09h33.43.609,Colour_Asymmetry_Pilot,2022.1.3,Win32,60.39376736,62c50e9c1127f2cd403a315f,0,0,0,72,1,onetwo,,,,,,,,,,,,,,,,,,,,,,,,,,,,,,,,,,,,,,,,,,,,,,,,,,,,,,,,,,,,,,,,,,,,,,,,,,,,,,,,,,,,,,,,,,,,,,,,,,,,,,,,,,,,,,,,,,,,,,,,,,,,,,,,,,,,,,,,,,,,,,,,,,,,,,,,,,,,,
,,,,,,600f11d527aa57080e819df3,62c53a0e44e01e2e1a2aae8f,2022-07-06_09h33.43.609,Colour_Asymmetry_Pilot,2022.1.3,Win32,60.39376736,62c50e9c1127f2cd403a315f,0,1,1,97,1,onethree,,,,,,,,,,,,,,,,,,,,,,,,,,,,,,,,,,,,,,,,,,,,,,,,,,,,,,,,,,,,,,,,,,,,,,,,,,,,,,,,,,,,,,,,,,,,,,,,,,,,,,,,,,,,,,,,,,,,,,,,,,,,,,,,,,,,,,,,,,,,,,,,,,,,,,,,,,,,,
,,,,,,600f11d527aa57080e819df3,62c53a0e44e01e2e1a2aae8f,2022-07-06_09h33.43.609,Colour_Asymmetry_Pilot,2022.1.3,Win32,60.39376736,62c50e9c1127f2cd403a315f,0,2,2,83,1,twofour,,,,,,,,,,,,,,,,,,,,,,,,,,,,,,,,,,,,,,,,,,,,,,,,,,,,,,,,,,,,,,,,,,,,,,,,,,,,,,,,,,,,,,,,,,,,,,,,,,,,,,,,,,,,,,,,,,,,,,,,,,,,,,,,,,,,,,,,,,,,,,,,,,,,,,,,,,,,,
,,,,,,600f11d527aa57080e819df3,62c53a0e44e01e2e1a2aae8f,2022-07-06_09h33.43.609,Colour_Asymmetry_Pilot,2022.1.3,Win32,60.39376736,62c50e9c1127f2cd403a315f,0,3,3,93,1,threefour,,,,,,,,,,,,,,,,,,,,,,,,,,,,,,,,,,,,,,,,,,,,,,,,,,,,,,,,,,,,,,,,,,,,,,,,,,,,,,,,,,,,,,,,,,,,,,,,,,,,,,,,,,,,,,,,,,,,,,,,,,,,,,,,,,,,,,,,,,,,,,,,,,,,,,,,,,,,,
,,,,,,600f11d527aa57080e819df3,62c53a0e44e01e2e1a2aae8f,2022-07-06_09h33.43.609,Colour_Asymmetry_Pilot,2022.1.3,Win32,60.39376736,62c50e9c1127f2cd403a315f,0,4,4,5,1,threefour,,,,,,,,,,,,,,,,,,,,,,,,,,,,,,,,,,,,,,,,,,,,,,,,,,,,,,,,,,,,,,,,,,,,,,,,,,,,,,,,,,,,,,,,,,,,,,,,,,,,,,,,,,,,,,,,,,,,,,,,,,,,,,,,,,,,,,,,,,,,,,,,,,,,,,,,,,,,,
,,,,,,600f11d527aa57080e819df3,62c53a0e44e01e2e1a2aae8f,2022-07-06_09h33.43.609,Colour_Asymmetry_Pilot,2022.1.3,Win32,60.39376736,62c50e9c1127f2cd403a315f,0,5,5,120,1,onetwo,,,,,,,,,,,,,,,,,,,,,,,,,,,,,,,,,,,,,,,,,,,,,,,,,,,,,,,,,,,,,,,,,,,,,,,,,,,,,,,,,,,,,,,,,,,,,,,,,,,,,,,,,,,,,,,,,,,,,,,,,,,,,,,,,,,,,,,,,,,,,,,,,,,,,,,,,,,,,
,,,,,,600f11d527aa57080e819df3,62c53a0e44e01e2e1a2aae8f,2022-07-06_09h33.43.609,Colour_Asymmetry_Pilot,2022.1.3,Win32,60.39376736,62c50e9c1127f2cd403a315f,0,6,6,102,1,fourtwo,,,,,,,,,,,,,,,,,,,,,,,,,,,,,,,,,,,,,,,,,,,,,,,,,,,,,,,,,,,,,,,,,,,,,,,,,,,,,,,,,,,,,,,,,,,,,,,,,,,,,,,,,,,,,,,,,,,,,,,,,,,,,,,,,,,,,,,,,,,,,,,,,,,,,,,,,,,,,
,,,,,,600f11d527aa57080e819df3,62c53a0e44e01e2e1a2aae8f,2022-07-06_09h33.43.609,Colour_Asymmetry_Pilot,2022.1.3,Win32,60.39376736,62c50e9c1127f2cd403a315f,0,7,7,71,1,fourthree,,,,,,,,,,,,,,,,,,,,,,,,,,,,,,,,,,,,,,,,,,,,,,,,,,,,,,,,,,,,,,,,,,,,,,,,,,,,,,,,,,,,,,,,,,,,,,,,,,,,,,,,,,,,,,,,,,,,,,,,,,,,,,,,,,,,,,,,,,,,,,,,,,,,,,,,,,,,,
,,,,,,600f11d527aa57080e819df3,62c53a0e44e01e2e1a2aae8f,2022-07-06_09h33.43.609,Colour_Asymmetry_Pilot,2022.1.3,Win32,60.39376736,62c50e9c1127f2cd403a315f,0,8,8,60,1,threeone,,,,,,,,,,,,,,,,,,,,,,,,,,,,,,,,,,,,,,,,,,,,,,,,,,,,,,,,,,,,,,,,,,,,,,,,,,,,,,,,,,,,,,,,,,,,,,,,,,,,,,,,,,,,,,,,,,,,,,,,,,,,,,,,,,,,,,,,,,,,,,,,,,,,,,,,,,,,,
,,,,,,600f11d527aa57080e819df3,62c53a0e44e01e2e1a2aae8f,2022-07-06_09h33.43.609,Colour_Asymmetry_Pilot,2022.1.3,Win32,60.39376736,62c50e9c1127f2cd403a315f,0,9,9,30,1,fourtwo,,,,,,,,,,,,,,,,,,,,,,,,,,,,,,,,,,,,,,,,,,,,,,,,,,,,,,,,,,,,,,,,,,,,,,,,,,,,,,,,,,,,,,,,,,,,,,,,,,,,,,,,,,,,,,,,,,,,,,,,,,,,,,,,,,,,,,,,,,,,,,,,,,,,,,,,,,,,,
,,,,,,600f11d527aa57080e819df3,62c53a0e44e01e2e1a2aae8f,2022-07-06_09h33.43.609,Colour_Asymmetry_Pilot,2022.1.3,Win32,60.39376736,62c50e9c1127f2cd403a315f,0,10,10,146,1,twoone,,,,,,,,,,,,,,,,,,,,,,,,,,,,,,,,,,,,,,,,,,,,,,,,,,,,,,,,,,,,,,,,,,,,,,,,,,,,,,,,,,,,,,,,,,,,,,,,,,,,,,,,,,,,,,,,,,,,,,,,,,,,,,,,,,,,,,,,,,,,,,,,,,,,,,,,,,,,,
,,,,,,600f11d527aa57080e819df3,62c53a0e44e01e2e1a2aae8f,2022-07-06_09h33.43.609,Colour_Asymmetry_Pilot,2022.1.3,Win32,60.39376736,62c50e9c1127f2cd403a315f,0,11,11,128,1,onetwo,,,,,,,,,,,,,,,,,,,,,,,,,,,,,,,,,,,,,,,,,,,,,,,,,,,,,,,,,,,,,,,,,,,,,,,,,,,,,,,,,,,,,,,,,,,,,,,,,,,,,,,,,,,,,,,,,,,,,,,,,,,,,,,,,,,,,,,,,,,,,,,,,,,,,,,,,,,,,
,,,,,,600f11d527aa57080e819df3,62c53a0e44e01e2e1a2aae8f,2022-07-06_09h33.43.609,Colour_Asymmetry_Pilot,2022.1.3,Win32,60.39376736,62c50e9c1127f2cd403a315f,0,12,12,61,1,threefour,,,,,,,,,,,,,,,,,,,,,,,,,,,,,,,,,,,,,,,,,,,,,,,,,,,,,,,,,,,,,,,,,,,,,,,,,,,,,,,,,,,,,,,,,,,,,,,,,,,,,,,,,,,,,,,,,,,,,,,,,,,,,,,,,,,,,,,,,,,,,,,,,,,,,,,,,,,,,
,,,,,,600f11d527aa57080e819df3,62c53a0e44e01e2e1a2aae8f,2022-07-06_09h33.43.609,Colour_Asymmetry_Pilot,2022.1.3,Win32,60.39376736,62c50e9c1127f2cd403a315f,0,13,13,143,1,fourthree,,,,,,,,,,,,,,,,,,,,,,,,,,,,,,,,,,,,,,,,,,,,,,,,,,,,,,,,,,,,,,,,,,,,,,,,,,,,,,,,,,,,,,,,,,,,,,,,,,,,,,,,,,,,,,,,,,,,,,,,,,,,,,,,,,,,,,,,,,,,,,,,,,,,,,,,,,,,,
,,,,,,600f11d527aa57080e819df3,62c53a0e44e01e2e1a2aae8f,2022-07-06_09h33.43.609,Colour_Asymmetry_Pilot,2022.1.3,Win32,60.39376736,62c50e9c1127f2cd403a315f,0,14,14,51,1,twofour,,,,,,,,,,,,,,,,,,,,,,,,,,,,,,,,,,,,,,,,,,,,,,,,,,,,,,,,,,,,,,,,,,,,,,,,,,,,,,,,,,,,,,,,,,,,,,,,,,,,,,,,,,,,,,,,,,,,,,,,,,,,,,,,,,,,,,,,,,,,,,,,,,,,,,,,,,,,,
,,,,,,600f11d527aa57080e819df3,62c53a0e44e01e2e1a2aae8f,2022-07-06_09h33.43.609,Colour_Asymmetry_Pilot,2022.1.3,Win32,60.39376736,62c50e9c1127f2cd403a315f,0,15,15,151,1,fourthree,,,,,,,,,,,,,,,,,,,,,,,,,,,,,,,,,,,,,,,,,,,,,,,,,,,,,,,,,,,,,,,,,,,,,,,,,,,,,,,,,,,,,,,,,,,,,,,,,,,,,,,,,,,,,,,,,,,,,,,,,,,,,,,,,,,,,,,,,,,,,,,,,,,,,,,,,,,,,
,,,,,,600f11d527aa57080e819df3,62c53a0e44e01e2e1a2aae8f,2022-07-06_09h33.43.609,Colour_Asymmetry_Pilot,2022.1.3,Win32,60.39376736,62c50e9c1127f2cd403a315f,0,16,16,67,1,twofour,,,,,,,,,,,,,,,,,,,,,,,,,,,,,,,,,,,,,,,,,,,,,,,,,,,,,,,,,,,,,,,,,,,,,,,,,,,,,,,,,,,,,,,,,,,,,,,,,,,,,,,,,,,,,,,,,,,,,,,,,,,,,,,,,,,,,,,,,,,,,,,,,,,,,,,,,,,,,
,,,,,,600f11d527aa57080e819df3,62c53a0e44e01e2e1a2aae8f,2022-07-06_09h33.43.609,Colour_Asymmetry_Pilot,2022.1.3,Win32,60.39376736,62c50e9c1127f2cd403a315f,0,17,17,116,1,threeone,,,,,,,,,,,,,,,,,,,,,,,,,,,,,,,,,,,,,,,,,,,,,,,,,,,,,,,,,,,,,,,,,,,,,,,,,,,,,,,,,,,,,,,,,,,,,,,,,,,,,,,,,,,,,,,,,,,,,,,,,,,,,,,,,,,,,,,,,,,,,,,,,,,,,,,,,,,,,
,,,,,,600f11d527aa57080e819df3,62c53a0e44e01e2e1a2aae8f,2022-07-06_09h33.43.609,Colour_Asymmetry_Pilot,2022.1.3,Win32,60.39376736,62c50e9c1127f2cd403a315f,0,18,18,80,1,onetwo,,,,,,,,,,,,,,,,,,,,,,,,,,,,,,,,,,,,,,,,,,,,,,,,,,,,,,,,,,,,,,,,,,,,,,,,,,,,,,,,,,,,,,,,,,,,,,,,,,,,,,,,,,,,,,,,,,,,,,,,,,,,,,,,,,,,,,,,,,,,,,,,,,,,,,,,,,,,,
,,,,,,600f11d527aa57080e819df3,62c53a0e44e01e2e1a2aae8f,2022-07-06_09h33.43.609,Colour_Asymmetry_Pilot,2022.1.3,Win32,60.39376736,62c50e9c1127f2cd403a315f,0,19,19,65,1,onethree,,,,,,,,,,,,,,,,,,,,,,,,,,,,,,,,,,,,,,,,,,,,,,,,,,,,,,,,,,,,,,,,,,,,,,,,,,,,,,,,,,,,,,,,,,,,,,,,,,,,,,,,,,,,,,,,,,,,,,,,,,,,,,,,,,,,,,,,,,,,,,,,,,,,,,,,,,,,,
,,,,,,600f11d527aa57080e819df3,62c53a0e44e01e2e1a2aae8f,2022-07-06_09h33.43.609,Colour_Asymmetry_Pilot,2022.1.3,Win32,60.39376736,62c50e9c1127f2cd403a315f,0,20,20,76,1,threeone,,,,,,,,,,,,,,,,,,,,,,,,,,,,,,,,,,,,,,,,,,,,,,,,,,,,,,,,,,,,,,,,,,,,,,,,,,,,,,,,,,,,,,,,,,,,,,,,,,,,,,,,,,,,,,,,,,,,,,,,,,,,,,,,,,,,,,,,,,,,,,,,,,,,,,,,,,,,,
,,,,,,600f11d527aa57080e819df3,62c53a0e44e01e2e1a2aae8f,2022-07-06_09h33.43.609,Colour_Asymmetry_Pilot,2022.1.3,Win32,60.39376736,62c50e9c1127f2cd403a315f,0,21,21,74,1,twoone,,,,,,,,,,,,,,,,,,,,,,,,,,,,,,,,,,,,,,,,,,,,,,,,,,,,,,,,,,,,,,,,,,,,,,,,,,,,,,,,,,,,,,,,,,,,,,,,,,,,,,,,,,,,,,,,,,,,,,,,,,,,,,,,,,,,,,,,,,,,,,,,,,,,,,,,,,,,,
,,,,,,600f11d527aa57080e819df3,62c53a0e44e01e2e1a2aae8f,2022-07-06_09h33.43.609,Colour_Asymmetry_Pilot,2022.1.3,Win32,60.39376736,62c50e9c1127f2cd403a315f,0,22,22,10,1,twoone,,,,,,,,,,,,,,,,,,,,,,,,,,,,,,,,,,,,,,,,,,,,,,,,,,,,,,,,,,,,,,,,,,,,,,,,,,,,,,,,,,,,,,,,,,,,,,,,,,,,,,,,,,,,,,,,,,,,,,,,,,,,,,,,,,,,,,,,,,,,,,,,,,,,,,,,,,,,,
,,,,,,600f11d527aa57080e819df3,62c53a0e44e01e2e1a2aae8f,2022-07-06_09h33.43.609,Colour_Asymmetry_Pilot,2022.1.3,Win32,60.39376736,62c50e9c1127f2cd403a315f,0,23,23,4,1,threeone,,,,,,,,,,,,,,,,,,,,,,,,,,,,,,,,,,,,,,,,,,,,,,,,,,,,,,,,,,,,,,,,,,,,,,,,,,,,,,,,,,,,,,,,,,,,,,,,,,,,,,,,,,,,,,,,,,,,,,,,,,,,,,,,,,,,,,,,,,,,,,,,,,,,,,,,,,,,,
,,,,,,600f11d527aa57080e819df3,62c53a0e44e01e2e1a2aae8f,2022-07-06_09h33.43.609,Colour_Asymmetry_Pilot,2022.1.3,Win32,60.39376736,62c50e9c1127f2cd403a315f,0,24,24,111,1,fourthree,,,,,,,,,,,,,,,,,,,,,,,,,,,,,,,,,,,,,,,,,,,,,,,,,,,,,,,,,,,,,,,,,,,,,,,,,,,,,,,,,,,,,,,,,,,,,,,,,,,,,,,,,,,,,,,,,,,,,,,,,,,,,,,,,,,,,,,,,,,,,,,,,,,,,,,,,,,,,
,,,,,,600f11d527aa57080e819df3,62c53a0e44e01e2e1a2aae8f,2022-07-06_09h33.43.609,Colour_Asymmetry_Pilot,2022.1.3,Win32,60.39376736,62c50e9c1127f2cd403a315f,0,25,25,11,1,twofour,,,,,,,,,,,,,,,,,,,,,,,,,,,,,,,,,,,,,,,,,,,,,,,,,,,,,,,,,,,,,,,,,,,,,,,,,,,,,,,,,,,,,,,,,,,,,,,,,,,,,,,,,,,,,,,,,,,,,,,,,,,,,,,,,,,,,,,,,,,,,,,,,,,,,,,,,,,,,
,,,,,,600f11d527aa57080e819df3,62c53a0e44e01e2e1a2aae8f,2022-07-06_09h33.43.609,Colour_Asymmetry_Pilot,2022.1.3,Win32,60.39376736,62c50e9c1127f2cd403a315f,0,26,26,107,1,twofour,,,,,,,,,,,,,,,,,,,,,,,,,,,,,,,,,,,,,,,,,,,,,,,,,,,,,,,,,,,,,,,,,,,,,,,,,,,,,,,,,,,,,,,,,,,,,,,,,,,,,,,,,,,,,,,,,,,,,,,,,,,,,,,,,,,,,,,,,,,,,,,,,,,,,,,,,,,,,
,,,,,,600f11d527aa57080e819df3,62c53a0e44e01e2e1a2aae8f,2022-07-06_09h33.43.609,Colour_Asymmetry_Pilot,2022.1.3,Win32,60.39376736,62c50e9c1127f2cd403a315f,0,27,27,160,1,onetwo,,,,,,,,,,,,,,,,,,,,,,,,,,,,,,,,,,,,,,,,,,,,,,,,,,,,,,,,,,,,,,,,,,,,,,,,,,,,,,,,,,,,,,,,,,,,,,,,,,,,,,,,,,,,,,,,,,,,,,,,,,,,,,,,,,,,,,,,,,,,,,,,,,,,,,,,,,,,,
,,,,,,600f11d527aa57080e819df3,62c53a0e44e01e2e1a2aae8f,2022-07-06_09h33.43.609,Colour_Asymmetry_Pilot,2022.1.3,Win32,60.39376736,62c50e9c1127f2cd403a315f,0,28,28,140,1,threeone,,,,,,,,,,,,,,,,,,,,,,,,,,,,,,,,,,,,,,,,,,,,,,,,,,,,,,,,,,,,,,,,,,,,,,,,,,,,,,,,,,,,,,,,,,,,,,,,,,,,,,,,,,,,,,,,,,,,,,,,,,,,,,,,,,,,,,,,,,,,,,,,,,,,,,,,,,,,,
,,,,,,600f11d527aa57080e819df3,62c53a0e44e01e2e1a2aae8f,2022-07-06_09h33.43.609,Colour_Asymmetry_Pilot,2022.1.3,Win32,60.39376736,62c50e9c1127f2cd403a315f,0,29,29,147,1,twofour,,,,,,,,,,,,,,,,,,,,,,,,,,,,,,,,,,,,,,,,,,,,,,,,,,,,,,,,,,,,,,,,,,,,,,,,,,,,,,,,,,,,,,,,,,,,,,,,,,,,,,,,,,,,,,,,,,,,,,,,,,,,,,,,,,,,,,,,,,,,,,,,,,,,,,,,,,,,,
,,,,,,600f11d527aa57080e819df3,62c53a0e44e01e2e1a2aae8f,2022-07-06_09h33.43.609,Colour_Asymmetry_Pilot,2022.1.3,Win32,60.39376736,62c50e9c1127f2cd403a315f,0,30,30,17,1,onethree,,,,,,,,,,,,,,,,,,,,,,,,,,,,,,,,,,,,,,,,,,,,,,,,,,,,,,,,,,,,,,,,,,,,,,,,,,,,,,,,,,,,,,,,,,,,,,,,,,,,,,,,,,,,,,,,,,,,,,,,,,,,,,,,,,,,,,,,,,,,,,,,,,,,,,,,,,,,,
,,,,,,600f11d527aa57080e819df3,62c53a0e44e01e2e1a2aae8f,2022-07-06_09h33.43.609,Colour_Asymmetry_Pilot,2022.1.3,Win32,60.39376736,62c50e9c1127f2cd403a315f,0,31,31,21,1,threefour,,,,,,,,,,,,,,,,,,,,,,,,,,,,,,,,,,,,,,,,,,,,,,,,,,,,,,,,,,,,,,,,,,,,,,,,,,,,,,,,,,,,,,,,,,,,,,,,,,,,,,,,,,,,,,,,,,,,,,,,,,,,,,,,,,,,,,,,,,,,,,,,,,,,,,,,,,,,,
,,,,,,600f11d527aa57080e819df3,62c53a0e44e01e2e1a2aae8f,2022-07-06_09h33.43.609,Colour_Asymmetry_Pilot,2022.1.3,Win32,60.39376736,62c50e9c1127f2cd403a315f,0,32,32,114,1,twoone,,,,,,,,,,,,,,,,,,,,,,,,,,,,,,,,,,,,,,,,,,,,,,,,,,,,,,,,,,,,,,,,,,,,,,,,,,,,,,,,,,,,,,,,,,,,,,,,,,,,,,,,,,,,,,,,,,,,,,,,,,,,,,,,,,,,,,,,,,,,,,,,,,,,,,,,,,,,,
,,,,,,600f11d527aa57080e819df3,62c53a0e44e01e2e1a2aae8f,2022-07-06_09h33.43.609,Colour_Asymmetry_Pilot,2022.1.3,Win32,60.39376736,62c50e9c1127f2cd403a315f,0,33,33,125,1,threefour,,,,,,,,,,,,,,,,,,,,,,,,,,,,,,,,,,,,,,,,,,,,,,,,,,,,,,,,,,,,,,,,,,,,,,,,,,,,,,,,,,,,,,,,,,,,,,,,,,,,,,,,,,,,,,,,,,,,,,,,,,,,,,,,,,,,,,,,,,,,,,,,,,,,,,,,,,,,,
,,,,,,600f11d527aa57080e819df3,62c53a0e44e01e2e1a2aae8f,2022-07-06_09h33.43.609,Colour_Asymmetry_Pilot,2022.1.3,Win32,60.39376736,62c50e9c1127f2cd403a315f,0,34,34,26,1,twoone,,,,,,,,,,,,,,,,,,,,,,,,,,,,,,,,,,,,,,,,,,,,,,,,,,,,,,,,,,,,,,,,,,,,,,,,,,,,,,,,,,,,,,,,,,,,,,,,,,,,,,,,,,,,,,,,,,,,,,,,,,,,,,,,,,,,,,,,,,,,,,,,,,,,,,,,,,,,,
,,,,,,600f11d527aa57080e819df3,62c53a0e44e01e2e1a2aae8f,2022-07-06_09h33.43.609,Colour_Asymmetry_Pilot,2022.1.3,Win32,60.39376736,62c50e9c1127f2cd403a315f,0,35,35,104,1,onetwo,,,,,,,,,,,,,,,,,,,,,,,,,,,,,,,,,,,,,,,,,,,,,,,,,,,,,,,,,,,,,,,,,,,,,,,,,,,,,,,,,,,,,,,,,,,,,,,,,,,,,,,,,,,,,,,,,,,,,,,,,,,,,,,,,,,,,,,,,,,,,,,,,,,,,,,,,,,,,
,,,,,,600f11d527aa57080e819df3,62c53a0e44e01e2e1a2aae8f,2022-07-06_09h33.43.609,Colour_Asymmetry_Pilot,2022.1.3,Win32,60.39376736,62c50e9c1127f2cd403a315f,0,36,36,130,1,twoone,,,,,,,,,,,,,,,,,,,,,,,,,,,,,,,,,,,,,,,,,,,,,,,,,,,,,,,,,,,,,,,,,,,,,,,,,,,,,,,,,,,,,,,,,,,,,,,,,,,,,,,,,,,,,,,,,,,,,,,,,,,,,,,,,,,,,,,,,,,,,,,,,,,,,,,,,,,,,
,,,,,,600f11d527aa57080e819df3,62c53a0e44e01e2e1a2aae8f,2022-07-06_09h33.43.609,Colour_Asymmetry_Pilot,2022.1.3,Win32,60.39376736,62c50e9c1127f2cd403a315f,0,37,37,95,1,fourthree,,,,,,,,,,,,,,,,,,,,,,,,,,,,,,,,,,,,,,,,,,,,,,,,,,,,,,,,,,,,,,,,,,,,,,,,,,,,,,,,,,,,,,,,,,,,,,,,,,,,,,,,,,,,,,,,,,,,,,,,,,,,,,,,,,,,,,,,,,,,,,,,,,,,,,,,,,,,,
,,,,,,600f11d527aa57080e819df3,62c53a0e44e01e2e1a2aae8f,2022-07-06_09h33.43.609,Colour_Asymmetry_Pilot,2022.1.3,Win32,60.39376736,62c50e9c1127f2cd403a315f,0,38,38,141,1,threefour,,,,,,,,,,,,,,,,,,,,,,,,,,,,,,,,,,,,,,,,,,,,,,,,,,,,,,,,,,,,,,,,,,,,,,,,,,,,,,,,,,,,,,,,,,,,,,,,,,,,,,,,,,,,,,,,,,,,,,,,,,,,,,,,,,,,,,,,,,,,,,,,,,,,,,,,,,,,,
,,,,,,600f11d527aa57080e819df3,62c53a0e44e01e2e1a2aae8f,2022-07-06_09h33.43.609,Colour_Asymmetry_Pilot,2022.1.3,Win32,60.39376736,62c50e9c1127f2cd403a315f,0,39,39,79,1,fourthree,,,,,,,,,,,,,,,,,,,,,,,,,,,,,,,,,,,,,,,,,,,,,,,,,,,,,,,,,,,,,,,,,,,,,,,,,,,,,,,,,,,,,,,,,,,,,,,,,,,,,,,,,,,,,,,,,,,,,,,,,,,,,,,,,,,,,,,,,,,,,,,,,,,,,,,,,,,,,
,,,,,,600f11d527aa57080e819df3,62c53a0e44e01e2e1a2aae8f,2022-07-06_09h33.43.609,Colour_Asymmetry_Pilot,2022.1.3,Win32,60.39376736,62c50e9c1127f2cd403a315f,0,40,40,119,1,fourthree,,,,,,,,,,,,,,,,,,,,,,,,,,,,,,,,,,,,,,,,,,,,,,,,,,,,,,,,,,,,,,,,,,,,,,,,,,,,,,,,,,,,,,,,,,,,,,,,,,,,,,,,,,,,,,,,,,,,,,,,,,,,,,,,,,,,,,,,,,,,,,,,,,,,,,,,,,,,,
,,,,,,600f11d527aa57080e819df3,62c53a0e44e01e2e1a2aae8f,2022-07-06_09h33.43.609,Colour_Asymmetry_Pilot,2022.1.3,Win32,60.39376736,62c50e9c1127f2cd403a315f,0,41,41,99,1,twofour,,,,,,,,,,,,,,,,,,,,,,,,,,,,,,,,,,,,,,,,,,,,,,,,,,,,,,,,,,,,,,,,,,,,,,,,,,,,,,,,,,,,,,,,,,,,,,,,,,,,,,,,,,,,,,,,,,,,,,,,,,,,,,,,,,,,,,,,,,,,,,,,,,,,,,,,,,,,,
,,,,,,600f11d527aa57080e819df3,62c53a0e44e01e2e1a2aae8f,2022-07-06_09h33.43.609,Colour_Asymmetry_Pilot,2022.1.3,Win32,60.39376736,62c50e9c1127f2cd403a315f,0,42,42,121,1,onethree,,,,,,,,,,,,,,,,,,,,,,,,,,,,,,,,,,,,,,,,,,,,,,,,,,,,,,,,,,,,,,,,,,,,,,,,,,,,,,,,,,,,,,,,,,,,,,,,,,,,,,,,,,,,,,,,,,,,,,,,,,,,,,,,,,,,,,,,,,,,,,,,,,,,,,,,,,,,,
,,,,,,600f11d527aa57080e819df3,62c53a0e44e01e2e1a2aae8f,2022-07-06_09h33.43.609,Colour_Asymmetry_Pilot,2022.1.3,Win32,60.39376736,62c50e9c1127f2cd403a315f,0,43,43,43,1,twofour,,,,,,,,,,,,,,,,,,,,,,,,,,,,,,,,,,,,,,,,,,,,,,,,,,,,,,,,,,,,,,,,,,,,,,,,,,,,,,,,,,,,,,,,,,,,,,,,,,,,,,,,,,,,,,,,,,,,,,,,,,,,,,,,,,,,,,,,,,,,,,,,,,,,,,,,,,,,,
,,,,,,600f11d527aa57080e819df3,62c53a0e44e01e2e1a2aae8f,2022-07-06_09h33.43.609,Colour_Asymmetry_Pilot,2022.1.3,Win32,60.39376736,62c50e9c1127f2cd403a315f,0,44,44,157,1,threefour,,,,,,,,,,,,,,,,,,,,,,,,,,,,,,,,,,,,,,,,,,,,,,,,,,,,,,,,,,,,,,,,,,,,,,,,,,,,,,,,,,,,,,,,,,,,,,,,,,,,,,,,,,,,,,,,,,,,,,,,,,,,,,,,,,,,,,,,,,,,,,,,,,,,,,,,,,,,,
,,,,,,600f11d527aa57080e819df3,62c53a0e44e01e2e1a2aae8f,2022-07-06_09h33.43.609,Colour_Asymmetry_Pilot,2022.1.3,Win32,60.39376736,62c50e9c1127f2cd403a315f,0,45,45,96,1,onetwo,,,,,,,,,,,,,,,,,,,,,,,,,,,,,,,,,,,,,,,,,,,,,,,,,,,,,,,,,,,,,,,,,,,,,,,,,,,,,,,,,,,,,,,,,,,,,,,,,,,,,,,,,,,,,,,,,,,,,,,,,,,,,,,,,,,,,,,,,,,,,,,,,,,,,,,,,,,,,
,,,,,,600f11d527aa57080e819df3,62c53a0e44e01e2e1a2aae8f,2022-07-06_09h33.43.609,Colour_Asymmetry_Pilot,2022.1.3,Win32,60.39376736,62c50e9c1127f2cd403a315f,0,46,46,75,1,twofour,,,,,,,,,,,,,,,,,,,,,,,,,,,,,,,,,,,,,,,,,,,,,,,,,,,,,,,,,,,,,,,,,,,,,,,,,,,,,,,,,,,,,,,,,,,,,,,,,,,,,,,,,,,,,,,,,,,,,,,,,,,,,,,,,,,,,,,,,,,,,,,,,,,,,,,,,,,,,
,,,,,,600f11d527aa57080e819df3,62c53a0e44e01e2e1a2aae8f,2022-07-06_09h33.43.609,Colour_Asymmetry_Pilot,2022.1.3,Win32,60.39376736,62c50e9c1127f2cd403a315f,0,47,47,161,1,onethree,,,,,,,,,,,,,,,,,,,,,,,,,,,,,,,,,,,,,,,,,,,,,,,,,,,,,,,,,,,,,,,,,,,,,,,,,,,,,,,,,,,,,,,,,,,,,,,,,,,,,,,,,,,,,,,,,,,,,,,,,,,,,,,,,,,,,,,,,,,,,,,,,,,,,,,,,,,,,
,,,,,,600f11d527aa57080e819df3,62c53a0e44e01e2e1a2aae8f,2022-07-06_09h33.43.609,Colour_Asymmetry_Pilot,2022.1.3,Win32,60.39376736,62c50e9c1127f2cd403a315f,0,48,48,115,1,twofour,,,,,,,,,,,,,,,,,,,,,,,,,,,,,,,,,,,,,,,,,,,,,,,,,,,,,,,,,,,,,,,,,,,,,,,,,,,,,,,,,,,,,,,,,,,,,,,,,,,,,,,,,,,,,,,,,,,,,,,,,,,,,,,,,,,,,,,,,,,,,,,,,,,,,,,,,,,,,
,,,,,,600f11d527aa57080e819df3,62c53a0e44e01e2e1a2aae8f,2022-07-06_09h33.43.609,Colour_Asymmetry_Pilot,2022.1.3,Win32,60.39376736,62c50e9c1127f2cd403a315f,0,49,49,40,1,onetwo,,,,,,,,,,,,,,,,,,,,,,,,,,,,,,,,,,,,,,,,,,,,,,,,,,,,,,,,,,,,,,,,,,,,,,,,,,,,,,,,,,,,,,,,,,,,,,,,,,,,,,,,,,,,,,,,,,,,,,,,,,,,,,,,,,,,,,,,,,,,,,,,,,,,,,,,,,,,,
,,,,,,600f11d527aa57080e819df3,62c53a0e44e01e2e1a2aae8f,2022-07-06_09h33.43.609,Colour_Asymmetry_Pilot,2022.1.3,Win32,60.39376736,62c50e9c1127f2cd403a315f,0,50,50,98,1,twoone,,,,,,,,,,,,,,,,,,,,,,,,,,,,,,,,,,,,,,,,,,,,,,,,,,,,,,,,,,,,,,,,,,,,,,,,,,,,,,,,,,,,,,,,,,,,,,,,,,,,,,,,,,,,,,,,,,,,,,,,,,,,,,,,,,,,,,,,,,,,,,,,,,,,,,,,,,,,,
,,,,,,600f11d527aa57080e819df3,62c53a0e44e01e2e1a2aae8f,2022-07-06_09h33.43.609,Colour_Asymmetry_Pilot,2022.1.3,Win32,60.39376736,62c50e9c1127f2cd403a315f,0,51,51,101,1,threefour,,,,,,,,,,,,,,,,,,,,,,,,,,,,,,,,,,,,,,,,,,,,,,,,,,,,,,,,,,,,,,,,,,,,,,,,,,,,,,,,,,,,,,,,,,,,,,,,,,,,,,,,,,,,,,,,,,,,,,,,,,,,,,,,,,,,,,,,,,,,,,,,,,,,,,,,,,,,,
,,,,,,600f11d527aa57080e819df3,62c53a0e44e01e2e1a2aae8f,2022-07-06_09h33.43.609,Colour_Asymmetry_Pilot,2022.1.3,Win32,60.39376736,62c50e9c1127f2cd403a315f,0,52,52,127,1,fourthree,,,,,,,,,,,,,,,,,,,,,,,,,,,,,,,,,,,,,,,,,,,,,,,,,,,,,,,,,,,,,,,,,,,,,,,,,,,,,,,,,,,,,,,,,,,,,,,,,,,,,,,,,,,,,,,,,,,,,,,,,,,,,,,,,,,,,,,,,,,,,,,,,,,,,,,,,,,,,
,,,,,,600f11d527aa57080e819df3,62c53a0e44e01e2e1a2aae8f,2022-07-06_09h33.43.609,Colour_Asymmetry_Pilot,2022.1.3,Win32,60.39376736,62c50e9c1127f2cd403a315f,0,53,53,123,1,twofour,,,,,,,,,,,,,,,,,,,,,,,,,,,,,,,,,,,,,,,,,,,,,,,,,,,,,,,,,,,,,,,,,,,,,,,,,,,,,,,,,,,,,,,,,,,,,,,,,,,,,,,,,,,,,,,,,,,,,,,,,,,,,,,,,,,,,,,,,,,,,,,,,,,,,,,,,,,,,
,,,,,,600f11d527aa57080e819df3,62c53a0e44e01e2e1a2aae8f,2022-07-06_09h33.43.609,Colour_Asymmetry_Pilot,2022.1.3,Win32,60.39376736,62c50e9c1127f2cd403a315f,0,54,54,89,1,onethree,,,,,,,,,,,,,,,,,,,,,,,,,,,,,,,,,,,,,,,,,,,,,,,,,,,,,,,,,,,,,,,,,,,,,,,,,,,,,,,,,,,,,,,,,,,,,,,,,,,,,,,,,,,,,,,,,,,,,,,,,,,,,,,,,,,,,,,,,,,,,,,,,,,,,,,,,,,,,
,,,,,,600f11d527aa57080e819df3,62c53a0e44e01e2e1a2aae8f,2022-07-06_09h33.43.609,Colour_Asymmetry_Pilot,2022.1.3,Win32,60.39376736,62c50e9c1127f2cd403a315f,0,55,55,139,1,twofour,,,,,,,,,,,,,,,,,,,,,,,,,,,,,,,,,,,,,,,,,,,,,,,,,,,,,,,,,,,,,,,,,,,,,,,,,,,,,,,,,,,,,,,,,,,,,,,,,,,,,,,,,,,,,,,,,,,,,,,,,,,,,,,,,,,,,,,,,,,,,,,,,,,,,,,,,,,,,
,,,,,,600f11d527aa57080e819df3,62c53a0e44e01e2e1a2aae8f,2022-07-06_09h33.43.609,Colour_Asymmetry_Pilot,2022.1.3,Win32,60.39376736,62c50e9c1127f2cd403a315f,0,56,56,103,1,fourthree,,,,,,,,,,,,,,,,,,,,,,,,,,,,,,,,,,,,,,,,,,,,,,,,,,,,,,,,,,,,,,,,,,,,,,,,,,,,,,,,,,,,,,,,,,,,,,,,,,,,,,,,,,,,,,,,,,,,,,,,,,,,,,,,,,,,,,,,,,,,,,,,,,,,,,,,,,,,,
,,,,,,600f11d527aa57080e819df3,62c53a0e44e01e2e1a2aae8f,2022-07-06_09h33.43.609,Colour_Asymmetry_Pilot,2022.1.3,Win32,60.39376736,62c50e9c1127f2cd403a315f,0,57,57,35,1,twofour,,,,,,,,,,,,,,,,,,,,,,,,,,,,,,,,,,,,,,,,,,,,,,,,,,,,,,,,,,,,,,,,,,,,,,,,,,,,,,,,,,,,,,,,,,,,,,,,,,,,,,,,,,,,,,,,,,,,,,,,,,,,,,,,,,,,,,,,,,,,,,,,,,,,,,,,,,,,,
,,,,,,600f11d527aa57080e819df3,62c53a0e44e01e2e1a2aae8f,2022-07-06_09h33.43.609,Colour_Asymmetry_Pilot,2022.1.3,Win32,60.39376736,62c50e9c1127f2cd403a315f,0,58,58,29,1,threefour,,,,,,,,,,,,,,,,,,,,,,,,,,,,,,,,,,,,,,,,,,,,,,,,,,,,,,,,,,,,,,,,,,,,,,,,,,,,,,,,,,,,,,,,,,,,,,,,,,,,,,,,,,,,,,,,,,,,,,,,,,,,,,,,,,,,,,,,,,,,,,,,,,,,,,,,,,,,,
,,,,,,600f11d527aa57080e819df3,62c53a0e44e01e2e1a2aae8f,2022-07-06_09h33.43.609,Colour_Asymmetry_Pilot,2022.1.3,Win32,60.39376736,62c50e9c1127f2cd403a315f,0,59,59,144,1,onetwo,,,,,,,,,,,,,,,,,,,,,,,,,,,,,,,,,,,,,,,,,,,,,,,,,,,,,,,,,,,,,,,,,,,,,,,,,,,,,,,,,,,,,,,,,,,,,,,,,,,,,,,,,,,,,,,,,,,,,,,,,,,,,,,,,,,,,,,,,,,,,,,,,,,,,,,,,,,,,
,,,,,,600f11d527aa57080e819df3,62c53a0e44e01e2e1a2aae8f,2022-07-06_09h33.43.609,Colour_Asymmetry_Pilot,2022.1.3,Win32,60.39376736,62c50e9c1127f2cd403a315f,0,60,60,42,1,twoone,,,,,,,,,,,,,,,,,,,,,,,,,,,,,,,,,,,,,,,,,,,,,,,,,,,,,,,,,,,,,,,,,,,,,,,,,,,,,,,,,,,,,,,,,,,,,,,,,,,,,,,,,,,,,,,,,,,,,,,,,,,,,,,,,,,,,,,,,,,,,,,,,,,,,,,,,,,,,
,,,,,,600f11d527aa57080e819df3,62c53a0e44e01e2e1a2aae8f,2022-07-06_09h33.43.609,Colour_Asymmetry_Pilot,2022.1.3,Win32,60.39376736,62c50e9c1127f2cd403a315f,0,61,61,112,1,onetwo,,,,,,,,,,,,,,,,,,,,,,,,,,,,,,,,,,,,,,,,,,,,,,,,,,,,,,,,,,,,,,,,,,,,,,,,,,,,,,,,,,,,,,,,,,,,,,,,,,,,,,,,,,,,,,,,,,,,,,,,,,,,,,,,,,,,,,,,,,,,,,,,,,,,,,,,,,,,,
,,,,,,600f11d527aa57080e819df3,62c53a0e44e01e2e1a2aae8f,2022-07-06_09h33.43.609,Colour_Asymmetry_Pilot,2022.1.3,Win32,60.39376736,62c50e9c1127f2cd403a315f,0,62,62,137,1,onethree,,,,,,,,,,,,,,,,,,,,,,,,,,,,,,,,,,,,,,,,,,,,,,,,,,,,,,,,,,,,,,,,,,,,,,,,,,,,,,,,,,,,,,,,,,,,,,,,,,,,,,,,,,,,,,,,,,,,,,,,,,,,,,,,,,,,,,,,,,,,,,,,,,,,,,,,,,,,,
,,,,,,600f11d527aa57080e819df3,62c53a0e44e01e2e1a2aae8f,2022-07-06_09h33.43.609,Colour_Asymmetry_Pilot,2022.1.3,Win32,60.39376736,62c50e9c1127f2cd403a315f,0,63,63,152,1,onetwo,,,,,,,,,,,,,,,,,,,,,,,,,,,,,,,,,,,,,,,,,,,,,,,,,,,,,,,,,,,,,,,,,,,,,,,,,,,,,,,,,,,,,,,,,,,,,,,,,,,,,,,,,,,,,,,,,,,,,,,,,,,,,,,,,,,,,,,,,,,,,,,,,,,,,,,,,,,,,
,,,,,,600f11d527aa57080e819df3,62c53a0e44e01e2e1a2aae8f,2022-07-06_09h33.43.609,Colour_Asymmetry_Pilot,2022.1.3,Win32,60.39376736,62c50e9c1127f2cd403a315f,0,64,64,149,1,threefour,,,,,,,,,,,,,,,,,,,,,,,,,,,,,,,,,,,,,,,,,,,,,,,,,,,,,,,,,,,,,,,,,,,,,,,,,,,,,,,,,,,,,,,,,,,,,,,,,,,,,,,,,,,,,,,,,,,,,,,,,,,,,,,,,,,,,,,,,,,,,,,,,,,,,,,,,,,,,
,,,,,,600f11d527aa57080e819df3,62c53a0e44e01e2e1a2aae8f,2022-07-06_09h33.43.609,Colour_Asymmetry_Pilot,2022.1.3,Win32,60.39376736,62c50e9c1127f2cd403a315f,0,65,65,100,1,threeone,,,,,,,,,,,,,,,,,,,,,,,,,,,,,,,,,,,,,,,,,,,,,,,,,,,,,,,,,,,,,,,,,,,,,,,,,,,,,,,,,,,,,,,,,,,,,,,,,,,,,,,,,,,,,,,,,,,,,,,,,,,,,,,,,,,,,,,,,,,,,,,,,,,,,,,,,,,,,
,,,,,,600f11d527aa57080e819df3,62c53a0e44e01e2e1a2aae8f,2022-07-06_09h33.43.609,Colour_Asymmetry_Pilot,2022.1.3,Win32,60.39376736,62c50e9c1127f2cd403a315f,0,66,66,20,1,threeone,,,,,,,,,,,,,,,,,,,,,,,,,,,,,,,,,,,,,,,,,,,,,,,,,,,,,,,,,,,,,,,,,,,,,,,,,,,,,,,,,,,,,,,,,,,,,,,,,,,,,,,,,,,,,,,,,,,,,,,,,,,,,,,,,,,,,,,,,,,,,,,,,,,,,,,,,,,,,
,,,,,,600f11d527aa57080e819df3,62c53a0e44e01e2e1a2aae8f,2022-07-06_09h33.43.609,Colour_Asymmetry_Pilot,2022.1.3,Win32,60.39376736,62c50e9c1127f2cd403a315f,0,67,67,73,1,onethree,,,,,,,,,,,,,,,,,,,,,,,,,,,,,,,,,,,,,,,,,,,,,,,,,,,,,,,,,,,,,,,,,,,,,,,,,,,,,,,,,,,,,,,,,,,,,,,,,,,,,,,,,,,,,,,,,,,,,,,,,,,,,,,,,,,,,,,,,,,,,,,,,,,,,,,,,,,,,
,,,,,,600f11d527aa57080e819df3,62c53a0e44e01e2e1a2aae8f,2022-07-06_09h33.43.609,Colour_Asymmetry_Pilot,2022.1.3,Win32,60.39376736,62c50e9c1127f2cd403a315f,0,68,68,129,1,onethree,,,,,,,,,,,,,,,,,,,,,,,,,,,,,,,,,,,,,,,,,,,,,,,,,,,,,,,,,,,,,,,,,,,,,,,,,,,,,,,,,,,,,,,,,,,,,,,,,,,,,,,,,,,,,,,,,,,,,,,,,,,,,,,,,,,,,,,,,,,,,,,,,,,,,,,,,,,,,
,,,,,,600f11d527aa57080e819df3,62c53a0e44e01e2e1a2aae8f,2022-07-06_09h33.43.609,Colour_Asymmetry_Pilot,2022.1.3,Win32,60.39376736,62c50e9c1127f2cd403a315f,0,69,69,150,1,fourtwo,,,,,,,,,,,,,,,,,,,,,,,,,,,,,,,,,,,,,,,,,,,,,,,,,,,,,,,,,,,,,,,,,,,,,,,,,,,,,,,,,,,,,,,,,,,,,,,,,,,,,,,,,,,,,,,,,,,,,,,,,,,,,,,,,,,,,,,,,,,,,,,,,,,,,,,,,,,,,
,,,,,,600f11d527aa57080e819df3,62c53a0e44e01e2e1a2aae8f,2022-07-06_09h33.43.609,Colour_Asymmetry_Pilot,2022.1.3,Win32,60.39376736,62c50e9c1127f2cd403a315f,0,70,70,2,1,twoone,,,,,,,,,,,,,,,,,,,,,,,,,,,,,,,,,,,,,,,,,,,,,,,,,,,,,,,,,,,,,,,,,,,,,,,,,,,,,,,,,,,,,,,,,,,,,,,,,,,,,,,,,,,,,,,,,,,,,,,,,,,,,,,,,,,,,,,,,,,,,,,,,,,,,,,,,,,,,
,,,,,,600f11d527aa57080e819df3,62c53a0e44e01e2e1a2aae8f,2022-07-06_09h33.43.609,Colour_Asymmetry_Pilot,2022.1.3,Win32,60.39376736,62c50e9c1127f2cd403a315f,0,71,71,57,1,onethree,,,,,,,,,,,,,,,,,,,,,,,,,,,,,,,,,,,,,,,,,,,,,,,,,,,,,,,,,,,,,,,,,,,,,,,,,,,,,,,,,,,,,,,,,,,,,,,,,,,,,,,,,,,,,,,,,,,,,,,,,,,,,,,,,,,,,,,,,,,,,,,,,,,,,,,,,,,,,
,,,,,,600f11d527aa57080e819df3,62c53a0e44e01e2e1a2aae8f,2022-07-06_09h33.43.609,Colour_Asymmetry_Pilot,2022.1.3,Win32,60.39376736,62c50e9c1127f2cd403a315f,0,72,72,19,1,twofour,,,,,,,,,,,,,,,,,,,,,,,,,,,,,,,,,,,,,,,,,,,,,,,,,,,,,,,,,,,,,,,,,,,,,,,,,,,,,,,,,,,,,,,,,,,,,,,,,,,,,,,,,,,,,,,,,,,,,,,,,,,,,,,,,,,,,,,,,,,,,,,,,,,,,,,,,,,,,
,,,,,,600f11d527aa57080e819df3,62c53a0e44e01e2e1a2aae8f,2022-07-06_09h33.43.609,Colour_Asymmetry_Pilot,2022.1.3,Win32,60.39376736,62c50e9c1127f2cd403a315f,0,73,73,36,1,threeone,,,,,,,,,,,,,,,,,,,,,,,,,,,,,,,,,,,,,,,,,,,,,,,,,,,,,,,,,,,,,,,,,,,,,,,,,,,,,,,,,,,,,,,,,,,,,,,,,,,,,,,,,,,,,,,,,,,,,,,,,,,,,,,,,,,,,,,,,,,,,,,,,,,,,,,,,,,,,
,,,,,,600f11d527aa57080e819df3,62c53a0e44e01e2e1a2aae8f,2022-07-06_09h33.43.609,Colour_Asymmetry_Pilot,2022.1.3,Win32,60.39376736,62c50e9c1127f2cd403a315f,0,74,74,59,1,twofour,,,,,,,,,,,,,,,,,,,,,,,,,,,,,,,,,,,,,,,,,,,,,,,,,,,,,,,,,,,,,,,,,,,,,,,,,,,,,,,,,,,,,,,,,,,,,,,,,,,,,,,,,,,,,,,,,,,,,,,,,,,,,,,,,,,,,,,,,,,,,,,,,,,,,,,,,,,,,
,,,,,,600f11d527aa57080e819df3,62c53a0e44e01e2e1a2aae8f,2022-07-06_09h33.43.609,Colour_Asymmetry_Pilot,2022.1.3,Win32,60.39376736,62c50e9c1127f2cd403a315f,0,75,75,53,1,threefour,,,,,,,,,,,,,,,,,,,,,,,,,,,,,,,,,,,,,,,,,,,,,,,,,,,,,,,,,,,,,,,,,,,,,,,,,,,,,,,,,,,,,,,,,,,,,,,,,,,,,,,,,,,,,,,,,,,,,,,,,,,,,,,,,,,,,,,,,,,,,,,,,,,,,,,,,,,,,
,,,,,,600f11d527aa57080e819df3,62c53a0e44e01e2e1a2aae8f,2022-07-06_09h33.43.609,Colour_Asymmetry_Pilot,2022.1.3,Win32,60.39376736,62c50e9c1127f2cd403a315f,0,76,76,122,1,twoone,,,,,,,,,,,,,,,,,,,,,,,,,,,,,,,,,,,,,,,,,,,,,,,,,,,,,,,,,,,,,,,,,,,,,,,,,,,,,,,,,,,,,,,,,,,,,,,,,,,,,,,,,,,,,,,,,,,,,,,,,,,,,,,,,,,,,,,,,,,,,,,,,,,,,,,,,,,,,
,,,,,,600f11d527aa57080e819df3,62c53a0e44e01e2e1a2aae8f,2022-07-06_09h33.43.609,Colour_Asymmetry_Pilot,2022.1.3,Win32,60.39376736,62c50e9c1127f2cd403a315f,0,77,77,54,1,fourtwo,,,,,,,,,,,,,,,,,,,,,,,,,,,,,,,,,,,,,,,,,,,,,,,,,,,,,,,,,,,,,,,,,,,,,,,,,,,,,,,,,,,,,,,,,,,,,,,,,,,,,,,,,,,,,,,,,,,,,,,,,,,,,,,,,,,,,,,,,,,,,,,,,,,,,,,,,,,,,
,,,,,,600f11d527aa57080e819df3,62c53a0e44e01e2e1a2aae8f,2022-07-06_09h33.43.609,Colour_Asymmetry_Pilot,2022.1.3,Win32,60.39376736,62c50e9c1127f2cd403a315f,0,78,78,24,1,onetwo,,,,,,,,,,,,,,,,,,,,,,,,,,,,,,,,,,,,,,,,,,,,,,,,,,,,,,,,,,,,,,,,,,,,,,,,,,,,,,,,,,,,,,,,,,,,,,,,,,,,,,,,,,,,,,,,,,,,,,,,,,,,,,,,,,,,,,,,,,,,,,,,,,,,,,,,,,,,,
,,,,,,600f11d527aa57080e819df3,62c53a0e44e01e2e1a2aae8f,2022-07-06_09h33.43.609,Colour_Asymmetry_Pilot,2022.1.3,Win32,60.39376736,62c50e9c1127f2cd403a315f,0,79,79,64,1,onetwo,,,,,,,,,,,,,,,,,,,,,,,,,,,,,,,,,,,,,,,,,,,,,,,,,,,,,,,,,,,,,,,,,,,,,,,,,,,,,,,,,,,,,,,,,,,,,,,,,,,,,,,,,,,,,,,,,,,,,,,,,,,,,,,,,,,,,,,,,,,,,,,,,,,,,,,,,,,,,
,,,,,,600f11d527aa57080e819df3,62c53a0e44e01e2e1a2aae8f,2022-07-06_09h33.43.609,Colour_Asymmetry_Pilot,2022.1.3,Win32,60.39376736,62c50e9c1127f2cd403a315f,0,80,80,84,1,threeone,,,,,,,,,,,,,,,,,,,,,,,,,,,,,,,,,,,,,,,,,,,,,,,,,,,,,,,,,,,,,,,,,,,,,,,,,,,,,,,,,,,,,,,,,,,,,,,,,,,,,,,,,,,,,,,,,,,,,,,,,,,,,,,,,,,,,,,,,,,,,,,,,,,,,,,,,,,,,
,,,,,,600f11d527aa57080e819df3,62c53a0e44e01e2e1a2aae8f,2022-07-06_09h33.43.609,Colour_Asymmetry_Pilot,2022.1.3,Win32,60.39376736,62c50e9c1127f2cd403a315f,0,81,81,78,1,fourtwo,,,,,,,,,,,,,,,,,,,,,,,,,,,,,,,,,,,,,,,,,,,,,,,,,,,,,,,,,,,,,,,,,,,,,,,,,,,,,,,,,,,,,,,,,,,,,,,,,,,,,,,,,,,,,,,,,,,,,,,,,,,,,,,,,,,,,,,,,,,,,,,,,,,,,,,,,,,,,
,,,,,,600f11d527aa57080e819df3,62c53a0e44e01e2e1a2aae8f,2022-07-06_09h33.43.609,Colour_Asymmetry_Pilot,2022.1.3,Win32,60.39376736,62c50e9c1127f2cd403a315f,0,82,82,55,1,fourthree,,,,,,,,,,,,,,,,,,,,,,,,,,,,,,,,,,,,,,,,,,,,,,,,,,,,,,,,,,,,,,,,,,,,,,,,,,,,,,,,,,,,,,,,,,,,,,,,,,,,,,,,,,,,,,,,,,,,,,,,,,,,,,,,,,,,,,,,,,,,,,,,,,,,,,,,,,,,,
,,,,,,600f11d527aa57080e819df3,62c53a0e44e01e2e1a2aae8f,2022-07-06_09h33.43.609,Colour_Asymmetry_Pilot,2022.1.3,Win32,60.39376736,62c50e9c1127f2cd403a315f,0,83,83,52,1,threeone,,,,,,,,,,,,,,,,,,,,,,,,,,,,,,,,,,,,,,,,,,,,,,,,,,,,,,,,,,,,,,,,,,,,,,,,,,,,,,,,,,,,,,,,,,,,,,,,,,,,,,,,,,,,,,,,,,,,,,,,,,,,,,,,,,,,,,,,,,,,,,,,,,,,,,,,,,,,,
,,,,,,600f11d527aa57080e819df3,62c53a0e44e01e2e1a2aae8f,2022-07-06_09h33.43.609,Colour_Asymmetry_Pilot,2022.1.3,Win32,60.39376736,62c50e9c1127f2cd403a315f,0,84,84,31,1,fourthree,,,,,,,,,,,,,,,,,,,,,,,,,,,,,,,,,,,,,,,,,,,,,,,,,,,,,,,,,,,,,,,,,,,,,,,,,,,,,,,,,,,,,,,,,,,,,,,,,,,,,,,,,,,,,,,,,,,,,,,,,,,,,,,,,,,,,,,,,,,,,,,,,,,,,,,,,,,,,
,,,,,,600f11d527aa57080e819df3,62c53a0e44e01e2e1a2aae8f,2022-07-06_09h33.43.609,Colour_Asymmetry_Pilot,2022.1.3,Win32,60.39376736,62c50e9c1127f2cd403a315f,0,85,85,1,1,onethree,,,,,,,,,,,,,,,,,,,,,,,,,,,,,,,,,,,,,,,,,,,,,,,,,,,,,,,,,,,,,,,,,,,,,,,,,,,,,,,,,,,,,,,,,,,,,,,,,,,,,,,,,,,,,,,,,,,,,,,,,,,,,,,,,,,,,,,,,,,,,,,,,,,,,,,,,,,,,
,,,,,,600f11d527aa57080e819df3,62c53a0e44e01e2e1a2aae8f,2022-07-06_09h33.43.609,Colour_Asymmetry_Pilot,2022.1.3,Win32,60.39376736,62c50e9c1127f2cd403a315f,0,86,86,28,1,threeone,,,,,,,,,,,,,,,,,,,,,,,,,,,,,,,,,,,,,,,,,,,,,,,,,,,,,,,,,,,,,,,,,,,,,,,,,,,,,,,,,,,,,,,,,,,,,,,,,,,,,,,,,,,,,,,,,,,,,,,,,,,,,,,,,,,,,,,,,,,,,,,,,,,,,,,,,,,,,
,,,,,,600f11d527aa57080e819df3,62c53a0e44e01e2e1a2aae8f,2022-07-06_09h33.43.609,Colour_Asymmetry_Pilot,2022.1.3,Win32,60.39376736,62c50e9c1127f2cd403a315f,0,87,87,50,1,twoone,,,,,,,,,,,,,,,,,,,,,,,,,,,,,,,,,,,,,,,,,,,,,,,,,,,,,,,,,,,,,,,,,,,,,,,,,,,,,,,,,,,,,,,,,,,,,,,,,,,,,,,,,,,,,,,,,,,,,,,,,,,,,,,,,,,,,,,,,,,,,,,,,,,,,,,,,,,,,
,,,,,,600f11d527aa57080e819df3,62c53a0e44e01e2e1a2aae8f,2022-07-06_09h33.43.609,Colour_Asymmetry_Pilot,2022.1.3,Win32,60.39376736,62c50e9c1127f2cd403a315f,0,88,88,81,1,onethree,,,,,,,,,,,,,,,,,,,,,,,,,,,,,,,,,,,,,,,,,,,,,,,,,,,,,,,,,,,,,,,,,,,,,,,,,,,,,,,,,,,,,,,,,,,,,,,,,,,,,,,,,,,,,,,,,,,,,,,,,,,,,,,,,,,,,,,,,,,,,,,,,,,,,,,,,,,,,
,,,,,,600f11d527aa57080e819df3,62c53a0e44e01e2e1a2aae8f,2022-07-06_09h33.43.609,Colour_Asymmetry_Pilot,2022.1.3,Win32,60.39376736,62c50e9c1127f2cd403a315f,0,89,89,87,1,fourthree,,,,,,,,,,,,,,,,,,,,,,,,,,,,,,,,,,,,,,,,,,,,,,,,,,,,,,,,,,,,,,,,,,,,,,,,,,,,,,,,,,,,,,,,,,,,,,,,,,,,,,,,,,,,,,,,,,,,,,,,,,,,,,,,,,,,,,,,,,,,,,,,,,,,,,,,,,,,,
,,,,,,600f11d527aa57080e819df3,62c53a0e44e01e2e1a2aae8f,2022-07-06_09h33.43.609,Colour_Asymmetry_Pilot,2022.1.3,Win32,60.39376736,62c50e9c1127f2cd403a315f,0,90,90,15,1,fourthree,,,,,,,,,,,,,,,,,,,,,,,,,,,,,,,,,,,,,,,,,,,,,,,,,,,,,,,,,,,,,,,,,,,,,,,,,,,,,,,,,,,,,,,,,,,,,,,,,,,,,,,,,,,,,,,,,,,,,,,,,,,,,,,,,,,,,,,,,,,,,,,,,,,,,,,,,,,,,
,,,,,,600f11d527aa57080e819df3,62c53a0e44e01e2e1a2aae8f,2022-07-06_09h33.43.609,Colour_Asymmetry_Pilot,2022.1.3,Win32,60.39376736,62c50e9c1127f2cd403a315f,0,91,91,158,1,fourtwo,,,,,,,,,,,,,,,,,,,,,,,,,,,,,,,,,,,,,,,,,,,,,,,,,,,,,,,,,,,,,,,,,,,,,,,,,,,,,,,,,,,,,,,,,,,,,,,,,,,,,,,,,,,,,,,,,,,,,,,,,,,,,,,,,,,,,,,,,,,,,,,,,,,,,,,,,,,,,
,,,,,,600f11d527aa57080e819df3,62c53a0e44e01e2e1a2aae8f,2022-07-06_09h33.43.609,Colour_Asymmetry_Pilot,2022.1.3,Win32,60.39376736,62c50e9c1127f2cd403a315f,0,92,92,48,1,onetwo,,,,,,,,,,,,,,,,,,,,,,,,,,,,,,,,,,,,,,,,,,,,,,,,,,,,,,,,,,,,,,,,,,,,,,,,,,,,,,,,,,,,,,,,,,,,,,,,,,,,,,,,,,,,,,,,,,,,,,,,,,,,,,,,,,,,,,,,,,,,,,,,,,,,,,,,,,,,,
,,,,,,600f11d527aa57080e819df3,62c53a0e44e01e2e1a2aae8f,2022-07-06_09h33.43.609,Colour_Asymmetry_Pilot,2022.1.3,Win32,60.39376736,62c50e9c1127f2cd403a315f,0,93,93,12,1,threeone,,,,,,,,,,,,,,,,,,,,,,,,,,,,,,,,,,,,,,,,,,,,,,,,,,,,,,,,,,,,,,,,,,,,,,,,,,,,,,,,,,,,,,,,,,,,,,,,,,,,,,,,,,,,,,,,,,,,,,,,,,,,,,,,,,,,,,,,,,,,,,,,,,,,,,,,,,,,,
,,,,,,600f11d527aa57080e819df3,62c53a0e44e01e2e1a2aae8f,2022-07-06_09h33.43.609,Colour_Asymmetry_Pilot,2022.1.3,Win32,60.39376736,62c50e9c1127f2cd403a315f,0,94,94,16,1,onetwo,,,,,,,,,,,,,,,,,,,,,,,,,,,,,,,,,,,,,,,,,,,,,,,,,,,,,,,,,,,,,,,,,,,,,,,,,,,,,,,,,,,,,,,,,,,,,,,,,,,,,,,,,,,,,,,,,,,,,,,,,,,,,,,,,,,,,,,,,,,,,,,,,,,,,,,,,,,,,
,,,,,,600f11d527aa57080e819df3,62c53a0e44e01e2e1a2aae8f,2022-07-06_09h33.43.609,Colour_Asymmetry_Pilot,2022.1.3,Win32,60.39376736,62c50e9c1127f2cd403a315f,0,95,95,155,1,twofour,,,,,,,,,,,,,,,,,,,,,,,,,,,,,,,,,,,,,,,,,,,,,,,,,,,,,,,,,,,,,,,,,,,,,,,,,,,,,,,,,,,,,,,,,,,,,,,,,,,,,,,,,,,,,,,,,,,,,,,,,,,,,,,,,,,,,,,,,,,,,,,,,,,,,,,,,,,,,
,,,,,,600f11d527aa57080e819df3,62c53a0e44e01e2e1a2aae8f,2022-07-06_09h33.43.609,Colour_Asymmetry_Pilot,2022.1.3,Win32,60.39376736,62c50e9c1127f2cd403a315f,0,96,96,45,1,threefour,,,,,,,,,,,,,,,,,,,,,,,,,,,,,,,,,,,,,,,,,,,,,,,,,,,,,,,,,,,,,,,,,,,,,,,,,,,,,,,,,,,,,,,,,,,,,,,,,,,,,,,,,,,,,,,,,,,,,,,,,,,,,,,,,,,,,,,,,,,,,,,,,,,,,,,,,,,,,
,,,,,,600f11d527aa57080e819df3,62c53a0e44e01e2e1a2aae8f,2022-07-06_09h33.43.609,Colour_Asymmetry_Pilot,2022.1.3,Win32,60.39376736,62c50e9c1127f2cd403a315f,0,97,97,105,1,onethree,,,,,,,,,,,,,,,,,,,,,,,,,,,,,,,,,,,,,,,,,,,,,,,,,,,,,,,,,,,,,,,,,,,,,,,,,,,,,,,,,,,,,,,,,,,,,,,,,,,,,,,,,,,,,,,,,,,,,,,,,,,,,,,,,,,,,,,,,,,,,,,,,,,,,,,,,,,,,
,,,,,,600f11d527aa57080e819df3,62c53a0e44e01e2e1a2aae8f,2022-07-06_09h33.43.609,Colour_Asymmetry_Pilot,2022.1.3,Win32,60.39376736,62c50e9c1127f2cd403a315f,0,98,98,85,1,threefour,,,,,,,,,,,,,,,,,,,,,,,,,,,,,,,,,,,,,,,,,,,,,,,,,,,,,,,,,,,,,,,,,,,,,,,,,,,,,,,,,,,,,,,,,,,,,,,,,,,,,,,,,,,,,,,,,,,,,,,,,,,,,,,,,,,,,,,,,,,,,,,,,,,,,,,,,,,,,
,,,,,,600f11d527aa57080e819df3,62c53a0e44e01e2e1a2aae8f,2022-07-06_09h33.43.609,Colour_Asymmetry_Pilot,2022.1.3,Win32,60.39376736,62c50e9c1127f2cd403a315f,0,99,99,3,1,twofour,,,,,,,,,,,,,,,,,,,,,,,,,,,,,,,,,,,,,,,,,,,,,,,,,,,,,,,,,,,,,,,,,,,,,,,,,,,,,,,,,,,,,,,,,,,,,,,,,,,,,,,,,,,,,,,,,,,,,,,,,,,,,,,,,,,,,,,,,,,,,,,,,,,,,,,,,,,,,
,,,,,,600f11d527aa57080e819df3,62c53a0e44e01e2e1a2aae8f,2022-07-06_09h33.43.609,Colour_Asymmetry_Pilot,2022.1.3,Win32,60.39376736,62c50e9c1127f2cd403a315f,0,100,100,91,1,twofour,,,,,,,,,,,,,,,,,,,,,,,,,,,,,,,,,,,,,,,,,,,,,,,,,,,,,,,,,,,,,,,,,,,,,,,,,,,,,,,,,,,,,,,,,,,,,,,,,,,,,,,,,,,,,,,,,,,,,,,,,,,,,,,,,,,,,,,,,,,,,,,,,,,,,,,,,,,,,
,,,,,,600f11d527aa57080e819df3,62c53a0e44e01e2e1a2aae8f,2022-07-06_09h33.43.609,Colour_Asymmetry_Pilot,2022.1.3,Win32,60.39376736,62c50e9c1127f2cd403a315f,0,101,101,148,1,threeone,,,,,,,,,,,,,,,,,,,,,,,,,,,,,,,,,,,,,,,,,,,,,,,,,,,,,,,,,,,,,,,,,,,,,,,,,,,,,,,,,,,,,,,,,,,,,,,,,,,,,,,,,,,,,,,,,,,,,,,,,,,,,,,,,,,,,,,,,,,,,,,,,,,,,,,,,,,,,
,,,,,,600f11d527aa57080e819df3,62c53a0e44e01e2e1a2aae8f,2022-07-06_09h33.43.609,Colour_Asymmetry_Pilot,2022.1.3,Win32,60.39376736,62c50e9c1127f2cd403a315f,0,102,102,68,1,threeone,,,,,,,,,,,,,,,,,,,,,,,,,,,,,,,,,,,,,,,,,,,,,,,,,,,,,,,,,,,,,,,,,,,,,,,,,,,,,,,,,,,,,,,,,,,,,,,,,,,,,,,,,,,,,,,,,,,,,,,,,,,,,,,,,,,,,,,,,,,,,,,,,,,,,,,,,,,,,
,,,,,,600f11d527aa57080e819df3,62c53a0e44e01e2e1a2aae8f,2022-07-06_09h33.43.609,Colour_Asymmetry_Pilot,2022.1.3,Win32,60.39376736,62c50e9c1127f2cd403a315f,0,103,103,132,1,threeone,,,,,,,,,,,,,,,,,,,,,,,,,,,,,,,,,,,,,,,,,,,,,,,,,,,,,,,,,,,,,,,,,,,,,,,,,,,,,,,,,,,,,,,,,,,,,,,,,,,,,,,,,,,,,,,,,,,,,,,,,,,,,,,,,,,,,,,,,,,,,,,,,,,,,,,,,,,,,
,,,,,,600f11d527aa57080e819df3,62c53a0e44e01e2e1a2aae8f,2022-07-06_09h33.43.609,Colour_Asymmetry_Pilot,2022.1.3,Win32,60.39376736,62c50e9c1127f2cd403a315f,0,104,104,134,1,fourtwo,,,,,,,,,,,,,,,,,,,,,,,,,,,,,,,,,,,,,,,,,,,,,,,,,,,,,,,,,,,,,,,,,,,,,,,,,,,,,,,,,,,,,,,,,,,,,,,,,,,,,,,,,,,,,,,,,,,,,,,,,,,,,,,,,,,,,,,,,,,,,,,,,,,,,,,,,,,,,
,,,,,,600f11d527aa57080e819df3,62c53a0e44e01e2e1a2aae8f,2022-07-06_09h33.43.609,Colour_Asymmetry_Pilot,2022.1.3,Win32,60.39376736,62c50e9c1127f2cd403a315f,0,105,105,88,1,onetwo,,,,,,,,,,,,,,,,,,,,,,,,,,,,,,,,,,,,,,,,,,,,,,,,,,,,,,,,,,,,,,,,,,,,,,,,,,,,,,,,,,,,,,,,,,,,,,,,,,,,,,,,,,,,,,,,,,,,,,,,,,,,,,,,,,,,,,,,,,,,,,,,,,,,,,,,,,,,,
,,,,,,600f11d527aa57080e819df3,62c53a0e44e01e2e1a2aae8f,2022-07-06_09h33.43.609,Colour_Asymmetry_Pilot,2022.1.3,Win32,60.39376736,62c50e9c1127f2cd403a315f,0,106,106,113,1,onethree,,,,,,,,,,,,,,,,,,,,,,,,,,,,,,,,,,,,,,,,,,,,,,,,,,,,,,,,,,,,,,,,,,,,,,,,,,,,,,,,,,,,,,,,,,,,,,,,,,,,,,,,,,,,,,,,,,,,,,,,,,,,,,,,,,,,,,,,,,,,,,,,,,,,,,,,,,,,,
,,,,,,600f11d527aa57080e819df3,62c53a0e44e01e2e1a2aae8f,2022-07-06_09h33.43.609,Colour_Asymmetry_Pilot,2022.1.3,Win32,60.39376736,62c50e9c1127f2cd403a315f,0,107,107,25,1,onethree,,,,,,,,,,,,,,,,,,,,,,,,,,,,,,,,,,,,,,,,,,,,,,,,,,,,,,,,,,,,,,,,,,,,,,,,,,,,,,,,,,,,,,,,,,,,,,,,,,,,,,,,,,,,,,,,,,,,,,,,,,,,,,,,,,,,,,,,,,,,,,,,,,,,,,,,,,,,,
,,,,,,600f11d527aa57080e819df3,62c53a0e44e01e2e1a2aae8f,2022-07-06_09h33.43.609,Colour_Asymmetry_Pilot,2022.1.3,Win32,60.39376736,62c50e9c1127f2cd403a315f,0,108,108,33,1,onethree,,,,,,,,,,,,,,,,,,,,,,,,,,,,,,,,,,,,,,,,,,,,,,,,,,,,,,,,,,,,,,,,,,,,,,,,,,,,,,,,,,,,,,,,,,,,,,,,,,,,,,,,,,,,,,,,,,,,,,,,,,,,,,,,,,,,,,,,,,,,,,,,,,,,,,,,,,,,,
,,,,,,600f11d527aa57080e819df3,62c53a0e44e01e2e1a2aae8f,2022-07-06_09h33.43.609,Colour_Asymmetry_Pilot,2022.1.3,Win32,60.39376736,62c50e9c1127f2cd403a315f,0,109,109,0,1,onetwo,,,,,,,,,,,,,,,,,,,,,,,,,,,,,,,,,,,,,,,,,,,,,,,,,,,,,,,,,,,,,,,,,,,,,,,,,,,,,,,,,,,,,,,,,,,,,,,,,,,,,,,,,,,,,,,,,,,,,,,,,,,,,,,,,,,,,,,,,,,,,,,,,,,,,,,,,,,,,
,,,,,,600f11d527aa57080e819df3,62c53a0e44e01e2e1a2aae8f,2022-07-06_09h33.43.609,Colour_Asymmetry_Pilot,2022.1.3,Win32,60.39376736,62c50e9c1127f2cd403a315f,0,110,110,109,1,threefour,,,,,,,,,,,,,,,,,,,,,,,,,,,,,,,,,,,,,,,,,,,,,,,,,,,,,,,,,,,,,,,,,,,,,,,,,,,,,,,,,,,,,,,,,,,,,,,,,,,,,,,,,,,,,,,,,,,,,,,,,,,,,,,,,,,,,,,,,,,,,,,,,,,,,,,,,,,,,
,,,,,,600f11d527aa57080e819df3,62c53a0e44e01e2e1a2aae8f,2022-07-06_09h33.43.609,Colour_Asymmetry_Pilot,2022.1.3,Win32,60.39376736,62c50e9c1127f2cd403a315f,0,111,111,135,1,fourthree,,,,,,,,,,,,,,,,,,,,,,,,,,,,,,,,,,,,,,,,,,,,,,,,,,,,,,,,,,,,,,,,,,,,,,,,,,,,,,,,,,,,,,,,,,,,,,,,,,,,,,,,,,,,,,,,,,,,,,,,,,,,,,,,,,,,,,,,,,,,,,,,,,,,,,,,,,,,,
,,,,,,600f11d527aa57080e819df3,62c53a0e44e01e2e1a2aae8f,2022-07-06_09h33.43.609,Colour_Asymmetry_Pilot,2022.1.3,Win32,60.39376736,62c50e9c1127f2cd403a315f,0,112,112,159,1,fourthree,,,,,,,,,,,,,,,,,,,,,,,,,,,,,,,,,,,,,,,,,,,,,,,,,,,,,,,,,,,,,,,,,,,,,,,,,,,,,,,,,,,,,,,,,,,,,,,,,,,,,,,,,,,,,,,,,,,,,,,,,,,,,,,,,,,,,,,,,,,,,,,,,,,,,,,,,,,,,
,,,,,,600f11d527aa57080e819df3,62c53a0e44e01e2e1a2aae8f,2022-07-06_09h33.43.609,Colour_Asymmetry_Pilot,2022.1.3,Win32,60.39376736,62c50e9c1127f2cd403a315f,0,113,113,8,1,onetwo,,,,,,,,,,,,,,,,,,,,,,,,,,,,,,,,,,,,,,,,,,,,,,,,,,,,,,,,,,,,,,,,,,,,,,,,,,,,,,,,,,,,,,,,,,,,,,,,,,,,,,,,,,,,,,,,,,,,,,,,,,,,,,,,,,,,,,,,,,,,,,,,,,,,,,,,,,,,,
,,,,,,600f11d527aa57080e819df3,62c53a0e44e01e2e1a2aae8f,2022-07-06_09h33.43.609,Colour_Asymmetry_Pilot,2022.1.3,Win32,60.39376736,62c50e9c1127f2cd403a315f,0,114,114,154,1,twoone,,,,,,,,,,,,,,,,,,,,,,,,,,,,,,,,,,,,,,,,,,,,,,,,,,,,,,,,,,,,,,,,,,,,,,,,,,,,,,,,,,,,,,,,,,,,,,,,,,,,,,,,,,,,,,,,,,,,,,,,,,,,,,,,,,,,,,,,,,,,,,,,,,,,,,,,,,,,,
,,,,,,600f11d527aa57080e819df3,62c53a0e44e01e2e1a2aae8f,2022-07-06_09h33.43.609,Colour_Asymmetry_Pilot,2022.1.3,Win32,60.39376736,62c50e9c1127f2cd403a315f,0,115,115,34,1,twoone,,,,,,,,,,,,,,,,,,,,,,,,,,,,,,,,,,,,,,,,,,,,,,,,,,,,,,,,,,,,,,,,,,,,,,,,,,,,,,,,,,,,,,,,,,,,,,,,,,,,,,,,,,,,,,,,,,,,,,,,,,,,,,,,,,,,,,,,,,,,,,,,,,,,,,,,,,,,,
,,,,,,600f11d527aa57080e819df3,62c53a0e44e01e2e1a2aae8f,2022-07-06_09h33.43.609,Colour_Asymmetry_Pilot,2022.1.3,Win32,60.39376736,62c50e9c1127f2cd403a315f,0,116,116,110,1,fourtwo,,,,,,,,,,,,,,,,,,,,,,,,,,,,,,,,,,,,,,,,,,,,,,,,,,,,,,,,,,,,,,,,,,,,,,,,,,,,,,,,,,,,,,,,,,,,,,,,,,,,,,,,,,,,,,,,,,,,,,,,,,,,,,,,,,,,,,,,,,,,,,,,,,,,,,,,,,,,,
,,,,,,600f11d527aa57080e819df3,62c53a0e44e01e2e1a2aae8f,2022-07-06_09h33.43.609,Colour_Asymmetry_Pilot,2022.1.3,Win32,60.39376736,62c50e9c1127f2cd403a315f,0,117,117,37,1,threefour,,,,,,,,,,,,,,,,,,,,,,,,,,,,,,,,,,,,,,,,,,,,,,,,,,,,,,,,,,,,,,,,,,,,,,,,,,,,,,,,,,,,,,,,,,,,,,,,,,,,,,,,,,,,,,,,,,,,,,,,,,,,,,,,,,,,,,,,,,,,,,,,,,,,,,,,,,,,,
,,,,,,600f11d527aa57080e819df3,62c53a0e44e01e2e1a2aae8f,2022-07-06_09h33.43.609,Colour_Asymmetry_Pilot,2022.1.3,Win32,60.39376736,62c50e9c1127f2cd403a315f,0,118,118,94,1,fourtwo,,,,,,,,,,,,,,,,,,,,,,,,,,,,,,,,,,,,,,,,,,,,,,,,,,,,,,,,,,,,,,,,,,,,,,,,,,,,,,,,,,,,,,,,,,,,,,,,,,,,,,,,,,,,,,,,,,,,,,,,,,,,,,,,,,,,,,,,,,,,,,,,,,,,,,,,,,,,,
,,,,,,600f11d527aa57080e819df3,62c53a0e44e01e2e1a2aae8f,2022-07-06_09h33.43.609,Colour_Asymmetry_Pilot,2022.1.3,Win32,60.39376736,62c50e9c1127f2cd403a315f,0,119,119,136,1,onetwo,,,,,,,,,,,,,,,,,,,,,,,,,,,,,,,,,,,,,,,,,,,,,,,,,,,,,,,,,,,,,,,,,,,,,,,,,,,,,,,,,,,,,,,,,,,,,,,,,,,,,,,,,,,,,,,,,,,,,,,,,,,,,,,,,,,,,,,,,,,,,,,,,,,,,,,,,,,,,
,,,,,,600f11d527aa57080e819df3,62c53a0e44e01e2e1a2aae8f,2022-07-06_09h33.43.609,Colour_Asymmetry_Pilot,2022.1.3,Win32,60.39376736,62c50e9c1127f2cd403a315f,0,120,120,117,1,threefour,,,,,,,,,,,,,,,,,,,,,,,,,,,,,,,,,,,,,,,,,,,,,,,,,,,,,,,,,,,,,,,,,,,,,,,,,,,,,,,,,,,,,,,,,,,,,,,,,,,,,,,,,,,,,,,,,,,,,,,,,,,,,,,,,,,,,,,,,,,,,,,,,,,,,,,,,,,,,
,,,,,,600f11d527aa57080e819df3,62c53a0e44e01e2e1a2aae8f,2022-07-06_09h33.43.609,Colour_Asymmetry_Pilot,2022.1.3,Win32,60.39376736,62c50e9c1127f2cd403a315f,0,121,121,27,1,twofour,,,,,,,,,,,,,,,,,,,,,,,,,,,,,,,,,,,,,,,,,,,,,,,,,,,,,,,,,,,,,,,,,,,,,,,,,,,,,,,,,,,,,,,,,,,,,,,,,,,,,,,,,,,,,,,,,,,,,,,,,,,,,,,,,,,,,,,,,,,,,,,,,,,,,,,,,,,,,
,,,,,,600f11d527aa57080e819df3,62c53a0e44e01e2e1a2aae8f,2022-07-06_09h33.43.609,Colour_Asymmetry_Pilot,2022.1.3,Win32,60.39376736,62c50e9c1127f2cd403a315f,0,122,122,14,1,fourtwo,,,,,,,,,,,,,,,,,,,,,,,,,,,,,,,,,,,,,,,,,,,,,,,,,,,,,,,,,,,,,,,,,,,,,,,,,,,,,,,,,,,,,,,,,,,,,,,,,,,,,,,,,,,,,,,,,,,,,,,,,,,,,,,,,,,,,,,,,,,,,,,,,,,,,,,,,,,,,
,,,,,,600f11d527aa57080e819df3,62c53a0e44e01e2e1a2aae8f,2022-07-06_09h33.43.609,Colour_Asymmetry_Pilot,2022.1.3,Win32,60.39376736,62c50e9c1127f2cd403a315f,0,123,123,92,1,threeone,,,,,,,,,,,,,,,,,,,,,,,,,,,,,,,,,,,,,,,,,,,,,,,,,,,,,,,,,,,,,,,,,,,,,,,,,,,,,,,,,,,,,,,,,,,,,,,,,,,,,,,,,,,,,,,,,,,,,,,,,,,,,,,,,,,,,,,,,,,,,,,,,,,,,,,,,,,,,
,,,,,,600f11d527aa57080e819df3,62c53a0e44e01e2e1a2aae8f,2022-07-06_09h33.43.609,Colour_Asymmetry_Pilot,2022.1.3,Win32,60.39376736,62c50e9c1127f2cd403a315f,0,124,124,142,1,fourtwo,,,,,,,,,,,,,,,,,,,,,,,,,,,,,,,,,,,,,,,,,,,,,,,,,,,,,,,,,,,,,,,,,,,,,,,,,,,,,,,,,,,,,,,,,,,,,,,,,,,,,,,,,,,,,,,,,,,,,,,,,,,,,,,,,,,,,,,,,,,,,,,,,,,,,,,,,,,,,
,,,,,,600f11d527aa57080e819df3,62c53a0e44e01e2e1a2aae8f,2022-07-06_09h33.43.609,Colour_Asymmetry_Pilot,2022.1.3,Win32,60.39376736,62c50e9c1127f2cd403a315f,0,125,125,124,1,threeone,,,,,,,,,,,,,,,,,,,,,,,,,,,,,,,,,,,,,,,,,,,,,,,,,,,,,,,,,,,,,,,,,,,,,,,,,,,,,,,,,,,,,,,,,,,,,,,,,,,,,,,,,,,,,,,,,,,,,,,,,,,,,,,,,,,,,,,,,,,,,,,,,,,,,,,,,,,,,
,,,,,,600f11d527aa57080e819df3,62c53a0e44e01e2e1a2aae8f,2022-07-06_09h33.43.609,Colour_Asymmetry_Pilot,2022.1.3,Win32,60.39376736,62c50e9c1127f2cd403a315f,0,126,126,66,1,twoone,,,,,,,,,,,,,,,,,,,,,,,,,,,,,,,,,,,,,,,,,,,,,,,,,,,,,,,,,,,,,,,,,,,,,,,,,,,,,,,,,,,,,,,,,,,,,,,,,,,,,,,,,,,,,,,,,,,,,,,,,,,,,,,,,,,,,,,,,,,,,,,,,,,,,,,,,,,,,
,,,,,,600f11d527aa57080e819df3,62c53a0e44e01e2e1a2aae8f,2022-07-06_09h33.43.609,Colour_Asymmetry_Pilot,2022.1.3,Win32,60.39376736,62c50e9c1127f2cd403a315f,0,127,127,58,1,twoone,,,,,,,,,,,,,,,,,,,,,,,,,,,,,,,,,,,,,,,,,,,,,,,,,,,,,,,,,,,,,,,,,,,,,,,,,,,,,,,,,,,,,,,,,,,,,,,,,,,,,,,,,,,,,,,,,,,,,,,,,,,,,,,,,,,,,,,,,,,,,,,,,,,,,,,,,,,,,
,,,,,,600f11d527aa57080e819df3,62c53a0e44e01e2e1a2aae8f,2022-07-06_09h33.43.609,Colour_Asymmetry_Pilot,2022.1.3,Win32,60.39376736,62c50e9c1127f2cd403a315f,0,128,128,49,1,onethree,,,,,,,,,,,,,,,,,,,,,,,,,,,,,,,,,,,,,,,,,,,,,,,,,,,,,,,,,,,,,,,,,,,,,,,,,,,,,,,,,,,,,,,,,,,,,,,,,,,,,,,,,,,,,,,,,,,,,,,,,,,,,,,,,,,,,,,,,,,,,,,,,,,,,,,,,,,,,
,,,,,,600f11d527aa57080e819df3,62c53a0e44e01e2e1a2aae8f,2022-07-06_09h33.43.609,Colour_Asymmetry_Pilot,2022.1.3,Win32,60.39376736,62c50e9c1127f2cd403a315f,0,129,129,22,1,fourtwo,,,,,,,,,,,,,,,,,,,,,,,,,,,,,,,,,,,,,,,,,,,,,,,,,,,,,,,,,,,,,,,,,,,,,,,,,,,,,,,,,,,,,,,,,,,,,,,,,,,,,,,,,,,,,,,,,,,,,,,,,,,,,,,,,,,,,,,,,,,,,,,,,,,,,,,,,,,,,
,,,,,,600f11d527aa57080e819df3,62c53a0e44e01e2e1a2aae8f,2022-07-06_09h33.43.609,Colour_Asymmetry_Pilot,2022.1.3,Win32,60.39376736,62c50e9c1127f2cd403a315f,0,130,130,126,1,fourtwo,,,,,,,,,,,,,,,,,,,,,,,,,,,,,,,,,,,,,,,,,,,,,,,,,,,,,,,,,,,,,,,,,,,,,,,,,,,,,,,,,,,,,,,,,,,,,,,,,,,,,,,,,,,,,,,,,,,,,,,,,,,,,,,,,,,,,,,,,,,,,,,,,,,,,,,,,,,,,
,,,,,,600f11d527aa57080e819df3,62c53a0e44e01e2e1a2aae8f,2022-07-06_09h33.43.609,Colour_Asymmetry_Pilot,2022.1.3,Win32,60.39376736,62c50e9c1127f2cd403a315f,0,131,131,62,1,fourtwo,,,,,,,,,,,,,,,,,,,,,,,,,,,,,,,,,,,,,,,,,,,,,,,,,,,,,,,,,,,,,,,,,,,,,,,,,,,,,,,,,,,,,,,,,,,,,,,,,,,,,,,,,,,,,,,,,,,,,,,,,,,,,,,,,,,,,,,,,,,,,,,,,,,,,,,,,,,,,
,,,,,,600f11d527aa57080e819df3,62c53a0e44e01e2e1a2aae8f,2022-07-06_09h33.43.609,Colour_Asymmetry_Pilot,2022.1.3,Win32,60.39376736,62c50e9c1127f2cd403a315f,0,132,132,47,1,fourthree,,,,,,,,,,,,,,,,,,,,,,,,,,,,,,,,,,,,,,,,,,,,,,,,,,,,,,,,,,,,,,,,,,,,,,,,,,,,,,,,,,,,,,,,,,,,,,,,,,,,,,,,,,,,,,,,,,,,,,,,,,,,,,,,,,,,,,,,,,,,,,,,,,,,,,,,,,,,,
,,,,,,600f11d527aa57080e819df3,62c53a0e44e01e2e1a2aae8f,2022-07-06_09h33.43.609,Colour_Asymmetry_Pilot,2022.1.3,Win32,60.39376736,62c50e9c1127f2cd403a315f,0,133,133,133,1,threefour,,,,,,,,,,,,,,,,,,,,,,,,,,,,,,,,,,,,,,,,,,,,,,,,,,,,,,,,,,,,,,,,,,,,,,,,,,,,,,,,,,,,,,,,,,,,,,,,,,,,,,,,,,,,,,,,,,,,,,,,,,,,,,,,,,,,,,,,,,,,,,,,,,,,,,,,,,,,,
,,,,,,600f11d527aa57080e819df3,62c53a0e44e01e2e1a2aae8f,2022-07-06_09h33.43.609,Colour_Asymmetry_Pilot,2022.1.3,Win32,60.39376736,62c50e9c1127f2cd403a315f,0,134,134,44,1,threeone,,,,,,,,,,,,,,,,,,,,,,,,,,,,,,,,,,,,,,,,,,,,,,,,,,,,,,,,,,,,,,,,,,,,,,,,,,,,,,,,,,,,,,,,,,,,,,,,,,,,,,,,,,,,,,,,,,,,,,,,,,,,,,,,,,,,,,,,,,,,,,,,,,,,,,,,,,,,,
,,,,,,600f11d527aa57080e819df3,62c53a0e44e01e2e1a2aae8f,2022-07-06_09h33.43.609,Colour_Asymmetry_Pilot,2022.1.3,Win32,60.39376736,62c50e9c1127f2cd403a315f,0,135,135,77,1,threefour,,,,,,,,,,,,,,,,,,,,,,,,,,,,,,,,,,,,,,,,,,,,,,,,,,,,,,,,,,,,,,,,,,,,,,,,,,,,,,,,,,,,,,,,,,,,,,,,,,,,,,,,,,,,,,,,,,,,,,,,,,,,,,,,,,,,,,,,,,,,,,,,,,,,,,,,,,,,,
,,,,,,600f11d527aa57080e819df3,62c53a0e44e01e2e1a2aae8f,2022-07-06_09h33.43.609,Colour_Asymmetry_Pilot,2022.1.3,Win32,60.39376736,62c50e9c1127f2cd403a315f,0,136,136,153,1,onethree,,,,,,,,,,,,,,,,,,,,,,,,,,,,,,,,,,,,,,,,,,,,,,,,,,,,,,,,,,,,,,,,,,,,,,,,,,,,,,,,,,,,,,,,,,,,,,,,,,,,,,,,,,,,,,,,,,,,,,,,,,,,,,,,,,,,,,,,,,,,,,,,,,,,,,,,,,,,,
,,,,,,600f11d527aa57080e819df3,62c53a0e44e01e2e1a2aae8f,2022-07-06_09h33.43.609,Colour_Asymmetry_Pilot,2022.1.3,Win32,60.39376736,62c50e9c1127f2cd403a315f,0,137,137,38,1,fourtwo,,,,,,,,,,,,,,,,,,,,,,,,,,,,,,,,,,,,,,,,,,,,,,,,,,,,,,,,,,,,,,,,,,,,,,,,,,,,,,,,,,,,,,,,,,,,,,,,,,,,,,,,,,,,,,,,,,,,,,,,,,,,,,,,,,,,,,,,,,,,,,,,,,,,,,,,,,,,,
,,,,,,600f11d527aa57080e819df3,62c53a0e44e01e2e1a2aae8f,2022-07-06_09h33.43.609,Colour_Asymmetry_Pilot,2022.1.3,Win32,60.39376736,62c50e9c1127f2cd403a315f,0,138,138,56,1,onetwo,,,,,,,,,,,,,,,,,,,,,,,,,,,,,,,,,,,,,,,,,,,,,,,,,,,,,,,,,,,,,,,,,,,,,,,,,,,,,,,,,,,,,,,,,,,,,,,,,,,,,,,,,,,,,,,,,,,,,,,,,,,,,,,,,,,,,,,,,,,,,,,,,,,,,,,,,,,,,
,,,,,,600f11d527aa57080e819df3,62c53a0e44e01e2e1a2aae8f,2022-07-06_09h33.43.609,Colour_Asymmetry_Pilot,2022.1.3,Win32,60.39376736,62c50e9c1127f2cd403a315f,0,139,139,6,1,fourtwo,,,,,,,,,,,,,,,,,,,,,,,,,,,,,,,,,,,,,,,,,,,,,,,,,,,,,,,,,,,,,,,,,,,,,,,,,,,,,,,,,,,,,,,,,,,,,,,,,,,,,,,,,,,,,,,,,,,,,,,,,,,,,,,,,,,,,,,,,,,,,,,,,,,,,,,,,,,,,
,,,,,,600f11d527aa57080e819df3,62c53a0e44e01e2e1a2aae8f,2022-07-06_09h33.43.609,Colour_Asymmetry_Pilot,2022.1.3,Win32,60.39376736,62c50e9c1127f2cd403a315f,0,140,140,69,1,threefour,,,,,,,,,,,,,,,,,,,,,,,,,,,,,,,,,,,,,,,,,,,,,,,,,,,,,,,,,,,,,,,,,,,,,,,,,,,,,,,,,,,,,,,,,,,,,,,,,,,,,,,,,,,,,,,,,,,,,,,,,,,,,,,,,,,,,,,,,,,,,,,,,,,,,,,,,,,,,
,,,,,,600f11d527aa57080e819df3,62c53a0e44e01e2e1a2aae8f,2022-07-06_09h33.43.609,Colour_Asymmetry_Pilot,2022.1.3,Win32,60.39376736,62c50e9c1127f2cd403a315f,0,141,141,7,1,fourthree,,,,,,,,,,,,,,,,,,,,,,,,,,,,,,,,,,,,,,,,,,,,,,,,,,,,,,,,,,,,,,,,,,,,,,,,,,,,,,,,,,,,,,,,,,,,,,,,,,,,,,,,,,,,,,,,,,,,,,,,,,,,,,,,,,,,,,,,,,,,,,,,,,,,,,,,,,,,,
,,,,,,600f11d527aa57080e819df3,62c53a0e44e01e2e1a2aae8f,2022-07-06_09h33.43.609,Colour_Asymmetry_Pilot,2022.1.3,Win32,60.39376736,62c50e9c1127f2cd403a315f,0,142,142,145,1,onethree,,,,,,,,,,,,,,,,,,,,,,,,,,,,,,,,,,,,,,,,,,,,,,,,,,,,,,,,,,,,,,,,,,,,,,,,,,,,,,,,,,,,,,,,,,,,,,,,,,,,,,,,,,,,,,,,,,,,,,,,,,,,,,,,,,,,,,,,,,,,,,,,,,,,,,,,,,,,,
,,,,,,600f11d527aa57080e819df3,62c53a0e44e01e2e1a2aae8f,2022-07-06_09h33.43.609,Colour_Asymmetry_Pilot,2022.1.3,Win32,60.39376736,62c50e9c1127f2cd403a315f,0,143,143,23,1,fourthree,,,,,,,,,,,,,,,,,,,,,,,,,,,,,,,,,,,,,,,,,,,,,,,,,,,,,,,,,,,,,,,,,,,,,,,,,,,,,,,,,,,,,,,,,,,,,,,,,,,,,,,,,,,,,,,,,,,,,,,,,,,,,,,,,,,,,,,,,,,,,,,,,,,,,,,,,,,,,
,,,,,,600f11d527aa57080e819df3,62c53a0e44e01e2e1a2aae8f,2022-07-06_09h33.43.609,Colour_Asymmetry_Pilot,2022.1.3,Win32,60.39376736,62c50e9c1127f2cd403a315f,0,144,144,106,1,twoone,,,,,,,,,,,,,,,,,,,,,,,,,,,,,,,,,,,,,,,,,,,,,,,,,,,,,,,,,,,,,,,,,,,,,,,,,,,,,,,,,,,,,,,,,,,,,,,,,,,,,,,,,,,,,,,,,,,,,,,,,,,,,,,,,,,,,,,,,,,,,,,,,,,,,,,,,,,,,
,,,,,,600f11d527aa57080e819df3,62c53a0e44e01e2e1a2aae8f,2022-07-06_09h33.43.609,Colour_Asymmetry_Pilot,2022.1.3,Win32,60.39376736,62c50e9c1127f2cd403a315f,0,145,145,131,1,twofour,,,,,,,,,,,,,,,,,,,,,,,,,,,,,,,,,,,,,,,,,,,,,,,,,,,,,,,,,,,,,,,,,,,,,,,,,,,,,,,,,,,,,,,,,,,,,,,,,,,,,,,,,,,,,,,,,,,,,,,,,,,,,,,,,,,,,,,,,,,,,,,,,,,,,,,,,,,,,
,,,,,,600f11d527aa57080e819df3,62c53a0e44e01e2e1a2aae8f,2022-07-06_09h33.43.609,Colour_Asymmetry_Pilot,2022.1.3,Win32,60.39376736,62c50e9c1127f2cd403a315f,0,146,146,138,1,twoone,,,,,,,,,,,,,,,,,,,,,,,,,,,,,,,,,,,,,,,,,,,,,,,,,,,,,,,,,,,,,,,,,,,,,,,,,,,,,,,,,,,,,,,,,,,,,,,,,,,,,,,,,,,,,,,,,,,,,,,,,,,,,,,,,,,,,,,,,,,,,,,,,,,,,,,,,,,,,
,,,,,,600f11d527aa57080e819df3,62c53a0e44e01e2e1a2aae8f,2022-07-06_09h33.43.609,Colour_Asymmetry_Pilot,2022.1.3,Win32,60.39376736,62c50e9c1127f2cd403a315f,0,147,147,108,1,threeone,,,,,,,,,,,,,,,,,,,,,,,,,,,,,,,,,,,,,,,,,,,,,,,,,,,,,,,,,,,,,,,,,,,,,,,,,,,,,,,,,,,,,,,,,,,,,,,,,,,,,,,,,,,,,,,,,,,,,,,,,,,,,,,,,,,,,,,,,,,,,,,,,,,,,,,,,,,,,
,,,,,,600f11d527aa57080e819df3,62c53a0e44e01e2e1a2aae8f,2022-07-06_09h33.43.609,Colour_Asymmetry_Pilot,2022.1.3,Win32,60.39376736,62c50e9c1127f2cd403a315f,0,148,148,32,1,onetwo,,,,,,,,,,,,,,,,,,,,,,,,,,,,,,,,,,,,,,,,,,,,,,,,,,,,,,,,,,,,,,,,,,,,,,,,,,,,,,,,,,,,,,,,,,,,,,,,,,,,,,,,,,,,,,,,,,,,,,,,,,,,,,,,,,,,,,,,,,,,,,,,,,,,,,,,,,,,,
,,,,,,600f11d527aa57080e819df3,62c53a0e44e01e2e1a2aae8f,2022-07-06_09h33.43.609,Colour_Asymmetry_Pilot,2022.1.3,Win32,60.39376736,62c50e9c1127f2cd403a315f,0,149,149,156,1,threeone,,,,,,,,,,,,,,,,,,,,,,,,,,,,,,,,,,,,,,,,,,,,,,,,,,,,,,,,,,,,,,,,,,,,,,,,,,,,,,,,,,,,,,,,,,,,,,,,,,,,,,,,,,,,,,,,,,,,,,,,,,,,,,,,,,,,,,,,,,,,,,,,,,,,,,,,,,,,,
,,,,,,600f11d527aa57080e819df3,62c53a0e44e01e2e1a2aae8f,2022-07-06_09h33.43.609,Colour_Asymmetry_Pilot,2022.1.3,Win32,60.39376736,62c50e9c1127f2cd403a315f,0,150,150,90,1,twoone,,,,,,,,,,,,,,,,,,,,,,,,,,,,,,,,,,,,,,,,,,,,,,,,,,,,,,,,,,,,,,,,,,,,,,,,,,,,,,,,,,,,,,,,,,,,,,,,,,,,,,,,,,,,,,,,,,,,,,,,,,,,,,,,,,,,,,,,,,,,,,,,,,,,,,,,,,,,,
,,,,,,600f11d527aa57080e819df3,62c53a0e44e01e2e1a2aae8f,2022-07-06_09h33.43.609,Colour_Asymmetry_Pilot,2022.1.3,Win32,60.39376736,62c50e9c1127f2cd403a315f,0,151,151,13,1,threefour,,,,,,,,,,,,,,,,,,,,,,,,,,,,,,,,,,,,,,,,,,,,,,,,,,,,,,,,,,,,,,,,,,,,,,,,,,,,,,,,,,,,,,,,,,,,,,,,,,,,,,,,,,,,,,,,,,,,,,,,,,,,,,,,,,,,,,,,,,,,,,,,,,,,,,,,,,,,,
,,,,,,600f11d527aa57080e819df3,62c53a0e44e01e2e1a2aae8f,2022-07-06_09h33.43.609,Colour_Asymmetry_Pilot,2022.1.3,Win32,60.39376736,62c50e9c1127f2cd403a315f,0,152,152,86,1,fourtwo,,,,,,,,,,,,,,,,,,,,,,,,,,,,,,,,,,,,,,,,,,,,,,,,,,,,,,,,,,,,,,,,,,,,,,,,,,,,,,,,,,,,,,,,,,,,,,,,,,,,,,,,,,,,,,,,,,,,,,,,,,,,,,,,,,,,,,,,,,,,,,,,,,,,,,,,,,,,,
,,,,,,600f11d527aa57080e819df3,62c53a0e44e01e2e1a2aae8f,2022-07-06_09h33.43.609,Colour_Asymmetry_Pilot,2022.1.3,Win32,60.39376736,62c50e9c1127f2cd403a315f,0,153,153,46,1,fourtwo,,,,,,,,,,,,,,,,,,,,,,,,,,,,,,,,,,,,,,,,,,,,,,,,,,,,,,,,,,,,,,,,,,,,,,,,,,,,,,,,,,,,,,,,,,,,,,,,,,,,,,,,,,,,,,,,,,,,,,,,,,,,,,,,,,,,,,,,,,,,,,,,,,,,,,,,,,,,,
,,,,,,600f11d527aa57080e819df3,62c53a0e44e01e2e1a2aae8f,2022-07-06_09h33.43.609,Colour_Asymmetry_Pilot,2022.1.3,Win32,60.39376736,62c50e9c1127f2cd403a315f,0,154,154,9,1,onethree,,,,,,,,,,,,,,,,,,,,,,,,,,,,,,,,,,,,,,,,,,,,,,,,,,,,,,,,,,,,,,,,,,,,,,,,,,,,,,,,,,,,,,,,,,,,,,,,,,,,,,,,,,,,,,,,,,,,,,,,,,,,,,,,,,,,,,,,,,,,,,,,,,,,,,,,,,,,,
,,,,,,600f11d527aa57080e819df3,62c53a0e44e01e2e1a2aae8f,2022-07-06_09h33.43.609,Colour_Asymmetry_Pilot,2022.1.3,Win32,60.39376736,62c50e9c1127f2cd403a315f,0,155,155,70,1,fourtwo,,,,,,,,,,,,,,,,,,,,,,,,,,,,,,,,,,,,,,,,,,,,,,,,,,,,,,,,,,,,,,,,,,,,,,,,,,,,,,,,,,,,,,,,,,,,,,,,,,,,,,,,,,,,,,,,,,,,,,,,,,,,,,,,,,,,,,,,,,,,,,,,,,,,,,,,,,,,,
,,,,,,600f11d527aa57080e819df3,62c53a0e44e01e2e1a2aae8f,2022-07-06_09h33.43.609,Colour_Asymmetry_Pilot,2022.1.3,Win32,60.39376736,62c50e9c1127f2cd403a315f,0,156,156,39,1,fourthree,,,,,,,,,,,,,,,,,,,,,,,,,,,,,,,,,,,,,,,,,,,,,,,,,,,,,,,,,,,,,,,,,,,,,,,,,,,,,,,,,,,,,,,,,,,,,,,,,,,,,,,,,,,,,,,,,,,,,,,,,,,,,,,,,,,,,,,,,,,,,,,,,,,,,,,,,,,,,
,,,,,,600f11d527aa57080e819df3,62c53a0e44e01e2e1a2aae8f,2022-07-06_09h33.43.609,Colour_Asymmetry_Pilot,2022.1.3,Win32,60.39376736,62c50e9c1127f2cd403a315f,0,157,157,18,1,twoone,,,,,,,,,,,,,,,,,,,,,,,,,,,,,,,,,,,,,,,,,,,,,,,,,,,,,,,,,,,,,,,,,,,,,,,,,,,,,,,,,,,,,,,,,,,,,,,,,,,,,,,,,,,,,,,,,,,,,,,,,,,,,,,,,,,,,,,,,,,,,,,,,,,,,,,,,,,,,
,,,,,,600f11d527aa57080e819df3,62c53a0e44e01e2e1a2aae8f,2022-07-06_09h33.43.609,Colour_Asymmetry_Pilot,2022.1.3,Win32,60.39376736,62c50e9c1127f2cd403a315f,0,158,158,118,1,fourtwo,,,,,,,,,,,,,,,,,,,,,,,,,,,,,,,,,,,,,,,,,,,,,,,,,,,,,,,,,,,,,,,,,,,,,,,,,,,,,,,,,,,,,,,,,,,,,,,,,,,,,,,,,,,,,,,,,,,,,,,,,,,,,,,,,,,,,,,,,,,,,,,,,,,,,,,,,,,,,
,,,,,,600f11d527aa57080e819df3,62c53a0e44e01e2e1a2aae8f,2022-07-06_09h33.43.609,Colour_Asymmetry_Pilot,2022.1.3,Win32,60.39376736,62c50e9c1127f2cd403a315f,0,159,159,41,1,onethree,,,,,,,,,,,,,,,,,,,,,,,,,,,,,,,,,,,,,,,,,,,,,,,,,,,,,,,,,,,,,,,,,,,,,,,,,,,,,,,,,,,,,,,,,,,,,,,,,,,,,,,,,,,,,,,,,,,,,,,,,,,,,,,,,,,,,,,,,,,,,,,,,,,,,,,,,,,,,
,,,,,,600f11d527aa57080e819df3,62c53a0e44e01e2e1a2aae8f,2022-07-06_09h33.43.609,Colour_Asymmetry_Pilot,2022.1.3,Win32,60.39376736,62c50e9c1127f2cd403a315f,0,160,160,63,1,fourthree,,,,,,,,,,,,,,,,,,,,,,,,,,,,,,,,,,,,,,,,,,,,,,,,,,,,,,,,,,,,,,,,,,,,,,,,,,,,,,,,,,,,,,,,,,,,,,,,,,,,,,,,,,,,,,,,,,,,,,,,,,,,,,,,,,,,,,,,,,,,,,,,,,,,,,,,,,,,,
,,,,,,600f11d527aa57080e819df3,62c53a0e44e01e2e1a2aae8f,2022-07-06_09h33.43.609,Colour_Asymmetry_Pilot,2022.1.3,Win32,60.39376736,62c50e9c1127f2cd403a315f,0,161,161,82,1,twoone,,,,,,,,,,,,,,,,,,,,,,,,,,,,,,,,,,,,,,,,,,,,,,,,,,,,,,,,,,,,,,,,,,,,,,,,,,,,,,,,,,,,,,,,,,,,,,,,,,,,,,,,,,,,,,,,,,,,,,,,,,,,,,,,,,,,,,,,,,,,,,,,,,,,,,,,,,,,,
,,,,,,600f11d527aa57080e819df3,62c53a0e44e01e2e1a2aae8f,2022-07-06_09h33.43.609,Colour_Asymmetry_Pilot,2022.1.3,Win32,60.39376736,62c50e9c1127f2cd403a315f,,,,,,,space,2.0902,space,10.6313,space,23.8591,space,14.5144,space,2.983,space,4.9826,"[0.05879999999999996,0.2784,0.5841999999999998]",twofour,"[-0.45899999999999996,-0.3256,-0.9374]",4,1.1486,40,82,1,0,0,response1disk_5,-2,-6,1,0,0,rectangle_8,-2,-6,1,0,0,4,-2,-6,1,0,0,0,0,0,0,1,,,,,,,,,,,,,,,,,,,,,,,,,,,,,,,,,,,,,,,,,,,,,,,,,,,,,,,,,,,,,,,,,,,,,,,,,,,,,,,,,,,,,,,,,,,,,,,,,,,,,,,,,,,,,,,,
,,,,,,600f11d527aa57080e819df3,62c53a0e44e01e2e1a2aae8f,2022-07-06_09h33.43.609,Colour_Asymmetry_Pilot,2022.1.3,Win32,60.39376736,62c50e9c1127f2cd403a315f,,,,,,,,,,,,,,,,,,,"[0.7018,0.7176,0.6155999999999999]",onethree,"[-0.4982,-0.2942,-0.0354000000000001]",-4,0.9824,-41,78,1,0,0,response7disk_5,7,1,1,0,0,rectangle_8,7,1,1,0,0,4,7,1,1,0,0,1,0,1,0,1,,,,,,,,,,,,,,,,,,,,,,,,,,,,,,,,,,,,,,,,,,,,,,,,,,,,,,,,,,,,,,,,,,,,,,,,,,,,,,,,,,,,,,,,,,,,,,,,,,,,,,,,,,,,,,,,
,,,,,,600f11d527aa57080e819df3,62c53a0e44e01e2e1a2aae8f,2022-07-06_09h33.43.609,Colour_Asymmetry_Pilot,2022.1.3,Win32,60.39376736,62c50e9c1127f2cd403a315f,,,,,,,,,,,,,,,,,,,"[-0.4902000000000001,0.2704,-0.45899999999999996]",onetwo,"[0.37240000000000006,0.4980000000000002,-0.2864]",-4,0.949,-29,81,1,0,0,response7disk_5,-15,0,1,0,0,rectangle_8,-15,0,1,0,0,4,-15,0,1,0,0,2,0,2,0,1,,,,,,,,,,,,,,,,,,,,,,,,,,,,,,,,,,,,,,,,,,,,,,,,,,,,,,,,,,,,,,,,,,,,,,,,,,,,,,,,,,,,,,,,,,,,,,,,,,,,,,,,,,,,,,,,
,,,,,,600f11d527aa57080e819df3,62c53a0e44e01e2e1a2aae8f,2022-07-06_09h33.43.609,Colour_Asymmetry_Pilot,2022.1.3,Win32,60.39376736,62c50e9c1127f2cd403a315f,,,,,,,,,,,,,,,,,,,"[-0.30200000000000005,0.14500000000000002,0.2784]",onetwo,"[-0.06680000000000008,-0.45100000000000007,-0.906]",-4,0.7657,-24,88,1,0,0,response7disk_5,0,3,1,0,0,rectangle_8,34,78,1,0,0,4,-2,-4,1,0,0,3,0,3,0,1,response1disk_7,7,rectangle_4,,,,,,,,,,,,,,,,,,,,,,,,,,,,,,,,,,,,,,,,,,,,,,,,,,,,,,,,,,,,,,,,,,,,,,,,,,,,,,,,,,,,,,,,,,,,,,,,,,,,,,,,,,,,,
,,,,,,600f11d527aa57080e819df3,62c53a0e44e01e2e1a2aae8f,2022-07-06_09h33.43.609,Colour_Asymmetry_Pilot,2022.1.3,Win32,60.39376736,62c50e9c1127f2cd403a315f,,,,,,,,,,,,,,,,,,,"[0.04299999999999993,0.16060000000000008,-0.6628000000000001]",threefour,"[0.37240000000000006,-0.050999999999999934,-0.5216]",-4,1.8816,-20,68,1,0,0,response7disk_5,-3,7,1,0,0,rectangle_8,-3,7,1,0,0,4,-3,7,1,0,0,4,0,4,0,1,,,,,,,,,,,,,,,,,,,,,,,,,,,,,,,,,,,,,,,,,,,,,,,,,,,,,,,,,,,,,,,,,,,,,,,,,,,,,,,,,,,,,,,,,,,,,,,,,,,,,,,,,,,,,,,,
,,,,,,600f11d527aa57080e819df3,62c53a0e44e01e2e1a2aae8f,2022-07-06_09h33.43.609,Colour_Asymmetry_Pilot,2022.1.3,Win32,60.39376736,62c50e9c1127f2cd403a315f,,,,,,,,,,,,,,,,,,,"[-0.07459999999999989,0.12139999999999995,-0.9922]",onethree,"[0.9842,0.7409999999999999,-0.6628000000000001]",-4,0.8993,-32,89,1,0,0,response7disk_5,-7,3,1,0,0,rectangle_8,34,85,1,0,0,4,5,-1,1,0,0,5,0,5,0,1,response1disk_7,7,rectangle_4,,,,,,,,,,,,,,,,,,,,,,,,,,,,,,,,,,,,,,,,,,,,,,,,,,,,,,,,,,,,,,,,,,,,,,,,,,,,,,,,,,,,,,,,,,,,,,,,,,,,,,,,,,,,,
,,,,,,600f11d527aa57080e819df3,62c53a0e44e01e2e1a2aae8f,2022-07-06_09h33.43.609,Colour_Asymmetry_Pilot,2022.1.3,Win32,60.39376736,62c50e9c1127f2cd403a315f,,,,,,,,,,,,,,,,,,,"[0.9842,0.7409999999999999,-0.6628000000000001]",twofour,"[-0.2942,-0.24719999999999998,-0.357]",-4,1.0656,-30,85,1,0,0,response7disk_5,1,-8,1,0,0,rectangle_8,1,-8,1,0,0,4,1,-8,1,0,0,6,0,6,0,1,,,,,,,,,,,,,,,,,,,,,,,,,,,,,,,,,,,,,,,,,,,,,,,,,,,,,,,,,,,,,,,,,,,,,,,,,,,,,,,,,,,,,,,,,,,,,,,,,,,,,,,,,,,,,,,,
,,,,,,600f11d527aa57080e819df3,62c53a0e44e01e2e1a2aae8f,2022-07-06_09h33.43.609,Colour_Asymmetry_Pilot,2022.1.3,Win32,60.39376736,62c50e9c1127f2cd403a315f,,,,,,,,,,,,,,,,,,,,onetwo,,-4,1.2324,,,,,,,,,,,,,,,,,,,,,,,,,,,,,,,,space,6.0788,"[-0.30200000000000005,0.14500000000000002,0.2784]","[0.9686000000000001,0.3802000000000001,0.19999999999999996]",-30,60,1,0,0,response7disk,-9,-1,1,0,0,rectangle,-9,-1,1,0,0,,3,0.0027,0,-9,-1,1,0,0,0,0,0,116,1,35,second,,,,,,,,,,,,,,,,,,,,,,,,,,,,,,,,,,,,,,,,,,,,,,,,,,,,,,,,,,,,,,,,,,,,,,,,
,,,,,,600f11d527aa57080e819df3,62c53a0e44e01e2e1a2aae8f,2022-07-06_09h33.43.609,Colour_Asymmetry_Pilot,2022.1.3,Win32,60.39376736,62c50e9c1127f2cd403a315f,,,,,,,,,,,,,,,,,,,,onethree,,-4,0.5979,,,,,,,,,,,,,,,,,,,,,,,,,,,,,,,,,,"[0.40379999999999994,0.09000000000000008,0.44300000000000006]","[-0.9688,-0.4902000000000001,-0.12159999999999993]",-38,71,1,0,0,response7disk,-9,11,1,0,0,rectangle,-9,11,1,0,0,,1,0.0043,0,-9,11,1,0,0,0,1,1,37,1,37,first,,,,,,,,,,,,,,,,,,,,,,,,,,,,,,,,,,,,,,,,,,,,,,,,,,,,,,,,,,,,,,,,,,,,,,,,
,,,,,,600f11d527aa57080e819df3,62c53a0e44e01e2e1a2aae8f,2022-07-06_09h33.43.609,Colour_Asymmetry_Pilot,2022.1.3,Win32,60.39376736,62c50e9c1127f2cd403a315f,,,,,,,,,,,,,,,,,,,,twofour,,-4,0.9157,,,,,,,,,,,,,,,,,,,,,,,,,,,,,,,,,,"[-0.24719999999999998,0.5213999999999999,-0.12959999999999994]","[-0.0040000000000000036,0.02739999999999987,-0.08239999999999992]",-27,76,1,0,0,response7disk,13,-2,1,0,0,rectangle,13,-2,1,0,0,,2,0.0017,0,13,-2,1,0,0,0,2,2,81,1,0,second,,,,,,,,,,,,,,,,,,,,,,,,,,,,,,,,,,,,,,,,,,,,,,,,,,,,,,,,,,,,,,,,,,,,,,,,
,,,,,,600f11d527aa57080e819df3,62c53a0e44e01e2e1a2aae8f,2022-07-06_09h33.43.609,Colour_Asymmetry_Pilot,2022.1.3,Win32,60.39376736,62c50e9c1127f2cd403a315f,,,,,,,,,,,,,,,,,,,,threefour,,-4,0.9653,,,,,,,,,,,,,,,,,,,,,,,,,,,,,,,,,,"[0.9842,0.7409999999999999,-0.6628000000000001]","[-0.30200000000000005,0.14500000000000002,0.2784]",-27,93,1,0,0,response7disk,-3,8,1,0,0,rectangle,-3,8,1,0,0,,1,0.0011,0,-3,8,1,0,0,0,3,3,71,1,71,first,,,,,,,,,,,,,,,,,,,,,,,,,,,,,,,,,,,,,,,,,,,,,,,,,,,,,,,,,,,,,,,,,,,,,,,,
,,,,,,600f11d527aa57080e819df3,62c53a0e44e01e2e1a2aae8f,2022-07-06_09h33.43.609,Colour_Asymmetry_Pilot,2022.1.3,Win32,60.39376736,62c50e9c1127f2cd403a315f,,,,,,,,,,,,,,,,,,,,threefour,,4,0.749,,,,,,,,,,,,,,,,,,,,,,,,,,,,,,,,,,"[0.8115999999999999,-0.0040000000000000036,-0.09819999999999995]","[0.2784,-0.31000000000000005,-0.5452]",29,95,1,0,0,response1disk,16,-1,1,0,0,rectangle,16,-1,1,0,0,,3,0.0024,0,16,-1,1,0,0,0,4,4,48,1,48,first,,,,,,,,,,,,,,,,,,,,,,,,,,,,,,,,,,,,,,,,,,,,,,,,,,,,,,,,,,,,,,,,,,,,,,,,
,,,,,,600f11d527aa57080e819df3,62c53a0e44e01e2e1a2aae8f,2022-07-06_09h33.43.609,Colour_Asymmetry_Pilot,2022.1.3,Win32,60.39376736,62c50e9c1127f2cd403a315f,,,,,,,,,,,,,,,,,,,,onetwo,,-4,0.6832,,,,,,,,,,,,,,,,,,,,,,,,,,,,,,,,,,"[0.3881999999999999,-0.23939999999999995,-0.05040000000000011]","[-0.4746,-0.0354000000000001,0.5449999999999999]",-35,90,1,0,0,response7disk,-11,7,1,0,0,rectangle,-11,7,1,0,0,,2,0.0026,0,-11,7,1,0,0,0,5,5,30,1,30,first,,,,,,,,,,,,,,,,,,,,,,,,,,,,,,,,,,,,,,,,,,,,,,,,,,,,,,,,,,,,,,,,,,,,,,,,
,,,,,,600f11d527aa57080e819df3,62c53a0e44e01e2e1a2aae8f,2022-07-06_09h33.43.609,Colour_Asymmetry_Pilot,2022.1.3,Win32,60.39376736,62c50e9c1127f2cd403a315f,,,,,,,,,,,,,,,,,,,,fourtwo,,4,0.6991,,,,,,,,,,,,,,,,,,,,,,,,,,,,,,,,,,"[-0.26280000000000003,-0.2158,-0.3256]","[-0.0040000000000000036,0.02739999999999987,-0.08239999999999992]",47,87,1,0,0,response1disk,14,-2,1,0,0,rectangle,14,-2,1,0,0,,2,9.99999E-05,0,14,-2,1,0,0,0,6,6,24,1,24,first,,,,,,,,,,,,,,,,,,,,,,,,,,,,,,,,,,,,,,,,,,,,,,,,,,,,,,,,,,,,,,,,,,,,,,,,
,,,,,,600f11d527aa57080e819df3,62c53a0e44e01e2e1a2aae8f,2022-07-06_09h33.43.609,Colour_Asymmetry_Pilot,2022.1.3,Win32,60.39376736,62c50e9c1127f2cd403a315f,,,,,,,,,,,,,,,,,,,,fourthree,,-4,0.6159,,,,,,,,,,,,,,,,,,,,,,,,,,,,,,,,,,"[-0.30200000000000005,0.14500000000000002,0.2784]","[0.6625999999999999,0.4980000000000002,-0.357]",-32,85,1,0,0,response7disk,-12,7,1,0,0,rectangle,-12,7,1,0,0,,3,0.0009,0,-12,7,1,0,0,0,7,7,156,1,75,second,,,,,,,,,,,,,,,,,,,,,,,,,,,,,,,,,,,,,,,,,,,,,,,,,,,,,,,,,,,,,,,,,,,,,,,,
,,,,,,600f11d527aa57080e819df3,62c53a0e44e01e2e1a2aae8f,2022-07-06_09h33.43.609,Colour_Asymmetry_Pilot,2022.1.3,Win32,60.39376736,62c50e9c1127f2cd403a315f,,,,,,,,,,,,,,,,,,,,threeone,,4,1.7151,,,,,,,,,,,,,,,,,,,,,,,,,,,,,,,,,,"[-0.0040000000000000036,0.02739999999999987,-0.08239999999999992]","[-0.26280000000000003,-0.2158,-0.3256]",22,97,1,0,0,response1disk,-2,11,1,0,0,rectangle,-2,11,1,0,0,,1,0.0033,0,-2,11,1,0,0,0,8,8,105,1,24,second,,,,,,,,,,,,,,,,,,,,,,,,,,,,,,,,,,,,,,,,,,,,,,,,,,,,,,,,,,,,,,,,,,,,,,,,
,,,,,,600f11d527aa57080e819df3,62c53a0e44e01e2e1a2aae8f,2022-07-06_09h33.43.609,Colour_Asymmetry_Pilot,2022.1.3,Win32,60.39376736,62c50e9c1127f2cd403a315f,,,,,,,,,,,,,,,,,,,,fourtwo,,4,0.7492,,,,,,,,,,,,,,,,,,,,,,,,,,,,,,,,,,"[0.23120000000000007,-0.7726,-0.34120000000000006]","[0.22340000000000004,-0.9296,-0.7884]",48,101,1,0,0,response1disk,16,3,1,0,0,rectangle,16,3,1,0,0,,3,0.001,0,16,3,1,0,0,0,9,9,4,1,4,first,,,,,,,,,,,,,,,,,,,,,,,,,,,,,,,,,,,,,,,,,,,,,,,,,,,,,,,,,,,,,,,,,,,,,,,,
,,,,,,600f11d527aa57080e819df3,62c53a0e44e01e2e1a2aae8f,2022-07-06_09h33.43.609,Colour_Asymmetry_Pilot,2022.1.3,Win32,60.39376736,62c50e9c1127f2cd403a315f,,,,,,,,,,,,,,,,,,,,twoone,,-4,1.1158,,,,,,,,,,,,,,,,,,,,,,,,,,,,,,,,,,"[-0.30200000000000005,0.14500000000000002,0.2784]","[0.3881999999999999,-0.23939999999999995,-0.05040000000000011]",-37,83,1,0,0,response7disk,-7,-2,1,0,0,rectangle,-7,-2,1,0,0,,1,0.0009,0,-7,-2,1,0,0,0,10,10,38,1,38,first,,,,,,,,,,,,,,,,,,,,,,,,,,,,,,,,,,,,,,,,,,,,,,,,,,,,,,,,,,,,,,,,,,,,,,,,
,,,,,,600f11d527aa57080e819df3,62c53a0e44e01e2e1a2aae8f,2022-07-06_09h33.43.609,Colour_Asymmetry_Pilot,2022.1.3,Win32,60.39376736,62c50e9c1127f2cd403a315f,,,,,,,,,,,,,,,,,,,,onetwo,,-4,0.4663,,,,,,,,,,,,,,,,,,,,,,,,,,,,,,,,,,"[0.05879999999999996,0.2784,0.5841999999999998]","[-0.011800000000000033,-0.906,-0.45100000000000007]",-56,96,1,0,0,response7disk,-8,11,1,0,0,rectangle,-8,11,1,0,0,,1,0.0002,0,-8,11,1,0,0,0,11,11,135,1,54,second,,,,,,,,,,,,,,,,,,,,,,,,,,,,,,,,,,,,,,,,,,,,,,,,,,,,,,,,,,,,,,,,,,,,,,,,
,,,,,,600f11d527aa57080e819df3,62c53a0e44e01e2e1a2aae8f,2022-07-06_09h33.43.609,Colour_Asymmetry_Pilot,2022.1.3,Win32,60.39376736,62c50e9c1127f2cd403a315f,,,,,,,,,,,,,,,,,,,,threefour,,-4,0.4328,,,,,,,,,,,,,,,,,,,,,,,,,,,,,,,,,,"[0.6625999999999999,0.4980000000000002,-0.357]","[0.7802,-0.23140000000000005,-0.20799999999999996]",-35,85,1,0,0,response7disk,16,3,1,0,0,rectangle,16,3,1,0,0,,2,0.001,0,16,3,1,0,0,0,12,12,60,1,60,first,,,,,,,,,,,,,,,,,,,,,,,,,,,,,,,,,,,,,,,,,,,,,,,,,,,,,,,,,,,,,,,,,,,,,,,,
,,,,,,600f11d527aa57080e819df3,62c53a0e44e01e2e1a2aae8f,2022-07-06_09h33.43.609,Colour_Asymmetry_Pilot,2022.1.3,Win32,60.39376736,62c50e9c1127f2cd403a315f,,,,,,,,,,,,,,,,,,,,fourthree,,-4,0.4659,,,,,,,,,,,,,,,,,,,,,,,,,,,,,,,,,,"[0.3881999999999999,-0.23939999999999995,-0.05040000000000011]","[-0.30200000000000005,0.14500000000000002,0.2784]",-33,80,1,0,0,response7disk,-1,-1,1,0,0,rectangle,-1,-1,1,0,0,,1,0.0016,0,-1,-1,1,0,0,0,13,13,119,1,38,second,,,,,,,,,,,,,,,,,,,,,,,,,,,,,,,,,,,,,,,,,,,,,,,,,,,,,,,,,,,,,,,,,,,,,,,,
,,,,,,600f11d527aa57080e819df3,62c53a0e44e01e2e1a2aae8f,2022-07-06_09h33.43.609,Colour_Asymmetry_Pilot,2022.1.3,Win32,60.39376736,62c50e9c1127f2cd403a315f,,,,,,,,,,,,,,,,,,,,twofour,,-4,0.4995,,,,,,,,,,,,,,,,,,,,,,,,,,,,,,,,,,"[0.2784,-0.31000000000000005,-0.5452]","[0.5449999999999999,-0.31000000000000005,-0.0354000000000001]",-27,85,1,0,0,response7disk,12,-3,1,0,0,rectangle,12,-3,1,0,0,,2,0.0023,0,12,-3,1,0,0,0,14,14,120,1,39,second,,,,,,,,,,,,,,,,,,,,,,,,,,,,,,,,,,,,,,,,,,,,,,,,,,,,,,,,,,,,,,,,,,,,,,,,
,,,,,,600f11d527aa57080e819df3,62c53a0e44e01e2e1a2aae8f,2022-07-06_09h33.43.609,Colour_Asymmetry_Pilot,2022.1.3,Win32,60.39376736,62c50e9c1127f2cd403a315f,,,,,,,,,,,,,,,,,,,,fourthree,,-4,0.3493,,,,,,,,,,,,,,,,,,,,,,,,,,,,,,,,,,"[1,0.12939999999999996,-1]","[-0.8198,-0.5138,-0.7492000000000001]",-24,66,1,0,0,response7disk,0,-1,1,0,0,rectangle,0,-1,1,0,0,,3,0.0019,0,0,-1,1,0,0,0,15,15,94,1,13,second,,,,,,,,,,,,,,,,,,,,,,,,,,,,,,,,,,,,,,,,,,,,,,,,,,,,,,,,,,,,,,,,,,,,,,,,
,,,,,,600f11d527aa57080e819df3,62c53a0e44e01e2e1a2aae8f,2022-07-06_09h33.43.609,Colour_Asymmetry_Pilot,2022.1.3,Win32,60.39376736,62c50e9c1127f2cd403a315f,,,,,,,,,,,,,,,,,,,,twofour,,-4,0.3492,,,,,,,,,,,,,,,,,,,,,,,,,,,,,,,,,,"[0.9763999999999999,-0.1137999999999999,-0.6314]","[0.19199999999999995,0.18419999999999992,0.5136000000000001]",-48,68,1,0,0,response7disk,-20,3,1,0,0,rectangle,-20,3,1,0,0,,2,0.002,0,-20,3,1,0,0,0,16,16,67,1,67,first,,,,,,,,,,,,,,,,,,,,,,,,,,,,,,,,,,,,,,,,,,,,,,,,,,,,,,,,,,,,,,,,,,,,,,,,
