trials.thisRepN,trials.thisTrialN,trials.thisN,trials.thisIndex,trials.ran,Colourcodes,participant,session,date,expName,psychopyVersion,OS,frameRate,study_id,trials_4.thisRepN,trials_4.thisTrialN,trials_4.thisN,trials_4.thisIndex,trials_4.ran,StimulusPos,key_resp.keys,key_resp.rt,key_resp_2.keys,key_resp_2.rt,key_resp_15.keys,key_resp_15.rt,key_resp_17.keys,key_resp_17.rt,key_resp_9.keys,key_resp_9.rt,key_resp_10.keys,key_resp_10.rt,Circle1_col,Ecc,Circle2_col,similarity,response_time,mouse_5.x,mouse_5.y,mouse_5.leftButton,mouse_5.midButton,mouse_5.rightButton,mouse_5.clicked_name,mouse_10.x,mouse_10.y,mouse_10.leftButton,mouse_10.midButton,mouse_10.rightButton,mouse_10.clicked_name,mouse_7.x,mouse_7.y,mouse_7.leftButton,mouse_7.midButton,mouse_7.rightButton,catchnumberprac,mouse_6.x,mouse_6.y,mouse_6.leftButton,mouse_6.midButton,mouse_6.rightButton,duringprac.thisRepN,duringprac.thisTrialN,duringprac.thisN,duringprac.thisIndex,duringprac.ran,mouse_7.clicked_name,catchprac,mouse_6.clicked_name,key_resp_22.keys,key_resp_22.rt,Circle1_colour,Circle2_colour,mouse.x,mouse.y,mouse.leftButton,mouse.midButton,mouse.rightButton,mouse.clicked_name,mouse_2.x,mouse_2.y,mouse_2.leftButton,mouse_2.midButton,mouse_2.rightButton,mouse_2.clicked_name,mouse_3.x,mouse_3.y,mouse_3.leftButton,mouse_3.midButton,mouse_3.rightButton,catchresponse,catchnumber,response_time_catch,Catch,mouse_11.x,mouse_11.y,mouse_11.leftButton,mouse_11.midButton,mouse_11.rightButton,trials_2.thisRepN,trials_2.thisTrialN,trials_2.thisN,trials_2.thisIndex,trials_2.ran,Colourpair,Temporder,mouse_3.clicked_name,mouse_11.clicked_name,trials_3.thisRepN,trials_3.thisTrialN,trials_3.thisN,trials_3.thisIndex,trials_3.ran,key_resp_instr_Ishi.keys,key_resp_instr_Ishi.rt,Ishi_trial_keyresp.keys,Ishi_textbox.text,Ishi_mouse.x,Ishi_mouse.y,Ishi_mouse.leftButton,Ishi_mouse.midButton,Ishi_mouse.rightButton,Ishi_mouse.clicked_name,Ishi_loop.thisRepN,Ishi_loop.thisTrialN,Ishi_loop.thisN,Ishi_loop.thisIndex,Ishi_loop.ran,imageaddress,textbox.text,mouse_4.x,mouse_4.y,mouse_4.leftButton,mouse_4.midButton,mouse_4.rightButton,mouse_4.clicked_name,textbox_2.text,mouse_8.x,mouse_8.y,mouse_8.leftButton,mouse_8.midButton,mouse_8.rightButton,mouse_8.clicked_name,textbox_3.text,mouse_9.x,mouse_9.y,mouse_9.leftButton,mouse_9.midButton,mouse_9.rightButton,mouse_9.clicked_name,textbox_4.text,mouse_12.x,mouse_12.y,mouse_12.leftButton,mouse_12.midButton,mouse_12.rightButton,mouse_12.clicked_name,textbox_5.text,mouse_13.x,mouse_13.y,mouse_13.leftButton,mouse_13.midButton,mouse_13.rightButton,mouse_13.clicked_name,textbox_6.text,mouse_14.x,mouse_14.y,mouse_14.leftButton,mouse_14.midButton,mouse_14.rightButton,mouse_14.clicked_name,textbox_7.text,mouse_15.x,mouse_15.y,mouse_15.leftButton,mouse_15.midButton,mouse_15.rightButton,mouse_15.clicked_name
0,0,0,88,1,,615ec7c4f3481a9eec10e0e0,62c53a807f81ed87f953c7d4,2022-07-06_09h32.12.416,Colour_Asymmetry_Pilot,2022.1.3,Win32,59.73002031,62c50e9c1127f2cd403a315f,,,,,,,,,,,,,,,,,,,,,,,,,,,,,,,,,,,,,,,,,,,,,,,,,,,,,,,,,,,,,,,,,,,,,,,,,,,,,,,,,,,,,,,,,,,,,,,,,,,,,,,,,,,,,,,,,,,,,,,,,,,,,,,,,,,,,,,,,,,,,,,,,,,,,,,,,,,,,,,,,,,
0,1,1,92,1,,615ec7c4f3481a9eec10e0e0,62c53a807f81ed87f953c7d4,2022-07-06_09h32.12.416,Colour_Asymmetry_Pilot,2022.1.3,Win32,59.73002031,62c50e9c1127f2cd403a315f,,,,,,,,,,,,,,,,,,,,,,,,,,,,,,,,,,,,,,,,,,,,,,,,,,,,,,,,,,,,,,,,,,,,,,,,,,,,,,,,,,,,,,,,,,,,,,,,,,,,,,,,,,,,,,,,,,,,,,,,,,,,,,,,,,,,,,,,,,,,,,,,,,,,,,,,,,,,,,,,,,,
0,2,2,63,1,,615ec7c4f3481a9eec10e0e0,62c53a807f81ed87f953c7d4,2022-07-06_09h32.12.416,Colour_Asymmetry_Pilot,2022.1.3,Win32,59.73002031,62c50e9c1127f2cd403a315f,,,,,,,,,,,,,,,,,,,,,,,,,,,,,,,,,,,,,,,,,,,,,,,,,,,,,,,,,,,,,,,,,,,,,,,,,,,,,,,,,,,,,,,,,,,,,,,,,,,,,,,,,,,,,,,,,,,,,,,,,,,,,,,,,,,,,,,,,,,,,,,,,,,,,,,,,,,,,,,,,,,
0,3,3,70,1,,615ec7c4f3481a9eec10e0e0,62c53a807f81ed87f953c7d4,2022-07-06_09h32.12.416,Colour_Asymmetry_Pilot,2022.1.3,Win32,59.73002031,62c50e9c1127f2cd403a315f,,,,,,,,,,,,,,,,,,,,,,,,,,,,,,,,,,,,,,,,,,,,,,,,,,,,,,,,,,,,,,,,,,,,,,,,,,,,,,,,,,,,,,,,,,,,,,,,,,,,,,,,,,,,,,,,,,,,,,,,,,,,,,,,,,,,,,,,,,,,,,,,,,,,,,,,,,,,,,,,,,,
0,4,4,19,1,,615ec7c4f3481a9eec10e0e0,62c53a807f81ed87f953c7d4,2022-07-06_09h32.12.416,Colour_Asymmetry_Pilot,2022.1.3,Win32,59.73002031,62c50e9c1127f2cd403a315f,,,,,,,,,,,,,,,,,,,,,,,,,,,,,,,,,,,,,,,,,,,,,,,,,,,,,,,,,,,,,,,,,,,,,,,,,,,,,,,,,,,,,,,,,,,,,,,,,,,,,,,,,,,,,,,,,,,,,,,,,,,,,,,,,,,,,,,,,,,,,,,,,,,,,,,,,,,,,,,,,,,
0,5,5,75,1,,615ec7c4f3481a9eec10e0e0,62c53a807f81ed87f953c7d4,2022-07-06_09h32.12.416,Colour_Asymmetry_Pilot,2022.1.3,Win32,59.73002031,62c50e9c1127f2cd403a315f,,,,,,,,,,,,,,,,,,,,,,,,,,,,,,,,,,,,,,,,,,,,,,,,,,,,,,,,,,,,,,,,,,,,,,,,,,,,,,,,,,,,,,,,,,,,,,,,,,,,,,,,,,,,,,,,,,,,,,,,,,,,,,,,,,,,,,,,,,,,,,,,,,,,,,,,,,,,,,,,,,,
0,6,6,86,1,,615ec7c4f3481a9eec10e0e0,62c53a807f81ed87f953c7d4,2022-07-06_09h32.12.416,Colour_Asymmetry_Pilot,2022.1.3,Win32,59.73002031,62c50e9c1127f2cd403a315f,,,,,,,,,,,,,,,,,,,,,,,,,,,,,,,,,,,,,,,,,,,,,,,,,,,,,,,,,,,,,,,,,,,,,,,,,,,,,,,,,,,,,,,,,,,,,,,,,,,,,,,,,,,,,,,,,,,,,,,,,,,,,,,,,,,,,,,,,,,,,,,,,,,,,,,,,,,,,,,,,,,
0,7,7,16,1,,615ec7c4f3481a9eec10e0e0,62c53a807f81ed87f953c7d4,2022-07-06_09h32.12.416,Colour_Asymmetry_Pilot,2022.1.3,Win32,59.73002031,62c50e9c1127f2cd403a315f,,,,,,,,,,,,,,,,,,,,,,,,,,,,,,,,,,,,,,,,,,,,,,,,,,,,,,,,,,,,,,,,,,,,,,,,,,,,,,,,,,,,,,,,,,,,,,,,,,,,,,,,,,,,,,,,,,,,,,,,,,,,,,,,,,,,,,,,,,,,,,,,,,,,,,,,,,,,,,,,,,,
0,8,8,8,1,,615ec7c4f3481a9eec10e0e0,62c53a807f81ed87f953c7d4,2022-07-06_09h32.12.416,Colour_Asymmetry_Pilot,2022.1.3,Win32,59.73002031,62c50e9c1127f2cd403a315f,,,,,,,,,,,,,,,,,,,,,,,,,,,,,,,,,,,,,,,,,,,,,,,,,,,,,,,,,,,,,,,,,,,,,,,,,,,,,,,,,,,,,,,,,,,,,,,,,,,,,,,,,,,,,,,,,,,,,,,,,,,,,,,,,,,,,,,,,,,,,,,,,,,,,,,,,,,,,,,,,,,
0,9,9,39,1,,615ec7c4f3481a9eec10e0e0,62c53a807f81ed87f953c7d4,2022-07-06_09h32.12.416,Colour_Asymmetry_Pilot,2022.1.3,Win32,59.73002031,62c50e9c1127f2cd403a315f,,,,,,,,,,,,,,,,,,,,,,,,,,,,,,,,,,,,,,,,,,,,,,,,,,,,,,,,,,,,,,,,,,,,,,,,,,,,,,,,,,,,,,,,,,,,,,,,,,,,,,,,,,,,,,,,,,,,,,,,,,,,,,,,,,,,,,,,,,,,,,,,,,,,,,,,,,,,,,,,,,,
0,10,10,6,1,,615ec7c4f3481a9eec10e0e0,62c53a807f81ed87f953c7d4,2022-07-06_09h32.12.416,Colour_Asymmetry_Pilot,2022.1.3,Win32,59.73002031,62c50e9c1127f2cd403a315f,,,,,,,,,,,,,,,,,,,,,,,,,,,,,,,,,,,,,,,,,,,,,,,,,,,,,,,,,,,,,,,,,,,,,,,,,,,,,,,,,,,,,,,,,,,,,,,,,,,,,,,,,,,,,,,,,,,,,,,,,,,,,,,,,,,,,,,,,,,,,,,,,,,,,,,,,,,,,,,,,,,
0,11,11,76,1,,615ec7c4f3481a9eec10e0e0,62c53a807f81ed87f953c7d4,2022-07-06_09h32.12.416,Colour_Asymmetry_Pilot,2022.1.3,Win32,59.73002031,62c50e9c1127f2cd403a315f,,,,,,,,,,,,,,,,,,,,,,,,,,,,,,,,,,,,,,,,,,,,,,,,,,,,,,,,,,,,,,,,,,,,,,,,,,,,,,,,,,,,,,,,,,,,,,,,,,,,,,,,,,,,,,,,,,,,,,,,,,,,,,,,,,,,,,,,,,,,,,,,,,,,,,,,,,,,,,,,,,,
0,12,12,10,1,,615ec7c4f3481a9eec10e0e0,62c53a807f81ed87f953c7d4,2022-07-06_09h32.12.416,Colour_Asymmetry_Pilot,2022.1.3,Win32,59.73002031,62c50e9c1127f2cd403a315f,,,,,,,,,,,,,,,,,,,,,,,,,,,,,,,,,,,,,,,,,,,,,,,,,,,,,,,,,,,,,,,,,,,,,,,,,,,,,,,,,,,,,,,,,,,,,,,,,,,,,,,,,,,,,,,,,,,,,,,,,,,,,,,,,,,,,,,,,,,,,,,,,,,,,,,,,,,,,,,,,,,
0,13,13,62,1,,615ec7c4f3481a9eec10e0e0,62c53a807f81ed87f953c7d4,2022-07-06_09h32.12.416,Colour_Asymmetry_Pilot,2022.1.3,Win32,59.73002031,62c50e9c1127f2cd403a315f,,,,,,,,,,,,,,,,,,,,,,,,,,,,,,,,,,,,,,,,,,,,,,,,,,,,,,,,,,,,,,,,,,,,,,,,,,,,,,,,,,,,,,,,,,,,,,,,,,,,,,,,,,,,,,,,,,,,,,,,,,,,,,,,,,,,,,,,,,,,,,,,,,,,,,,,,,,,,,,,,,,
0,14,14,87,1,,615ec7c4f3481a9eec10e0e0,62c53a807f81ed87f953c7d4,2022-07-06_09h32.12.416,Colour_Asymmetry_Pilot,2022.1.3,Win32,59.73002031,62c50e9c1127f2cd403a315f,,,,,,,,,,,,,,,,,,,,,,,,,,,,,,,,,,,,,,,,,,,,,,,,,,,,,,,,,,,,,,,,,,,,,,,,,,,,,,,,,,,,,,,,,,,,,,,,,,,,,,,,,,,,,,,,,,,,,,,,,,,,,,,,,,,,,,,,,,,,,,,,,,,,,,,,,,,,,,,,,,,
0,15,15,82,1,,615ec7c4f3481a9eec10e0e0,62c53a807f81ed87f953c7d4,2022-07-06_09h32.12.416,Colour_Asymmetry_Pilot,2022.1.3,Win32,59.73002031,62c50e9c1127f2cd403a315f,,,,,,,,,,,,,,,,,,,,,,,,,,,,,,,,,,,,,,,,,,,,,,,,,,,,,,,,,,,,,,,,,,,,,,,,,,,,,,,,,,,,,,,,,,,,,,,,,,,,,,,,,,,,,,,,,,,,,,,,,,,,,,,,,,,,,,,,,,,,,,,,,,,,,,,,,,,,,,,,,,,
0,16,16,38,1,,615ec7c4f3481a9eec10e0e0,62c53a807f81ed87f953c7d4,2022-07-06_09h32.12.416,Colour_Asymmetry_Pilot,2022.1.3,Win32,59.73002031,62c50e9c1127f2cd403a315f,,,,,,,,,,,,,,,,,,,,,,,,,,,,,,,,,,,,,,,,,,,,,,,,,,,,,,,,,,,,,,,,,,,,,,,,,,,,,,,,,,,,,,,,,,,,,,,,,,,,,,,,,,,,,,,,,,,,,,,,,,,,,,,,,,,,,,,,,,,,,,,,,,,,,,,,,,,,,,,,,,,
0,17,17,30,1,,615ec7c4f3481a9eec10e0e0,62c53a807f81ed87f953c7d4,2022-07-06_09h32.12.416,Colour_Asymmetry_Pilot,2022.1.3,Win32,59.73002031,62c50e9c1127f2cd403a315f,,,,,,,,,,,,,,,,,,,,,,,,,,,,,,,,,,,,,,,,,,,,,,,,,,,,,,,,,,,,,,,,,,,,,,,,,,,,,,,,,,,,,,,,,,,,,,,,,,,,,,,,,,,,,,,,,,,,,,,,,,,,,,,,,,,,,,,,,,,,,,,,,,,,,,,,,,,,,,,,,,,
0,18,18,22,1,,615ec7c4f3481a9eec10e0e0,62c53a807f81ed87f953c7d4,2022-07-06_09h32.12.416,Colour_Asymmetry_Pilot,2022.1.3,Win32,59.73002031,62c50e9c1127f2cd403a315f,,,,,,,,,,,,,,,,,,,,,,,,,,,,,,,,,,,,,,,,,,,,,,,,,,,,,,,,,,,,,,,,,,,,,,,,,,,,,,,,,,,,,,,,,,,,,,,,,,,,,,,,,,,,,,,,,,,,,,,,,,,,,,,,,,,,,,,,,,,,,,,,,,,,,,,,,,,,,,,,,,,
0,19,19,77,1,,615ec7c4f3481a9eec10e0e0,62c53a807f81ed87f953c7d4,2022-07-06_09h32.12.416,Colour_Asymmetry_Pilot,2022.1.3,Win32,59.73002031,62c50e9c1127f2cd403a315f,,,,,,,,,,,,,,,,,,,,,,,,,,,,,,,,,,,,,,,,,,,,,,,,,,,,,,,,,,,,,,,,,,,,,,,,,,,,,,,,,,,,,,,,,,,,,,,,,,,,,,,,,,,,,,,,,,,,,,,,,,,,,,,,,,,,,,,,,,,,,,,,,,,,,,,,,,,,,,,,,,,
0,20,20,33,1,,615ec7c4f3481a9eec10e0e0,62c53a807f81ed87f953c7d4,2022-07-06_09h32.12.416,Colour_Asymmetry_Pilot,2022.1.3,Win32,59.73002031,62c50e9c1127f2cd403a315f,,,,,,,,,,,,,,,,,,,,,,,,,,,,,,,,,,,,,,,,,,,,,,,,,,,,,,,,,,,,,,,,,,,,,,,,,,,,,,,,,,,,,,,,,,,,,,,,,,,,,,,,,,,,,,,,,,,,,,,,,,,,,,,,,,,,,,,,,,,,,,,,,,,,,,,,,,,,,,,,,,,
0,21,21,5,1,,615ec7c4f3481a9eec10e0e0,62c53a807f81ed87f953c7d4,2022-07-06_09h32.12.416,Colour_Asymmetry_Pilot,2022.1.3,Win32,59.73002031,62c50e9c1127f2cd403a315f,,,,,,,,,,,,,,,,,,,,,,,,,,,,,,,,,,,,,,,,,,,,,,,,,,,,,,,,,,,,,,,,,,,,,,,,,,,,,,,,,,,,,,,,,,,,,,,,,,,,,,,,,,,,,,,,,,,,,,,,,,,,,,,,,,,,,,,,,,,,,,,,,,,,,,,,,,,,,,,,,,,
0,22,22,90,1,,615ec7c4f3481a9eec10e0e0,62c53a807f81ed87f953c7d4,2022-07-06_09h32.12.416,Colour_Asymmetry_Pilot,2022.1.3,Win32,59.73002031,62c50e9c1127f2cd403a315f,,,,,,,,,,,,,,,,,,,,,,,,,,,,,,,,,,,,,,,,,,,,,,,,,,,,,,,,,,,,,,,,,,,,,,,,,,,,,,,,,,,,,,,,,,,,,,,,,,,,,,,,,,,,,,,,,,,,,,,,,,,,,,,,,,,,,,,,,,,,,,,,,,,,,,,,,,,,,,,,,,,
0,23,23,81,1,,615ec7c4f3481a9eec10e0e0,62c53a807f81ed87f953c7d4,2022-07-06_09h32.12.416,Colour_Asymmetry_Pilot,2022.1.3,Win32,59.73002031,62c50e9c1127f2cd403a315f,,,,,,,,,,,,,,,,,,,,,,,,,,,,,,,,,,,,,,,,,,,,,,,,,,,,,,,,,,,,,,,,,,,,,,,,,,,,,,,,,,,,,,,,,,,,,,,,,,,,,,,,,,,,,,,,,,,,,,,,,,,,,,,,,,,,,,,,,,,,,,,,,,,,,,,,,,,,,,,,,,,
0,24,24,48,1,,615ec7c4f3481a9eec10e0e0,62c53a807f81ed87f953c7d4,2022-07-06_09h32.12.416,Colour_Asymmetry_Pilot,2022.1.3,Win32,59.73002031,62c50e9c1127f2cd403a315f,,,,,,,,,,,,,,,,,,,,,,,,,,,,,,,,,,,,,,,,,,,,,,,,,,,,,,,,,,,,,,,,,,,,,,,,,,,,,,,,,,,,,,,,,,,,,,,,,,,,,,,,,,,,,,,,,,,,,,,,,,,,,,,,,,,,,,,,,,,,,,,,,,,,,,,,,,,,,,,,,,,
0,25,25,17,1,,615ec7c4f3481a9eec10e0e0,62c53a807f81ed87f953c7d4,2022-07-06_09h32.12.416,Colour_Asymmetry_Pilot,2022.1.3,Win32,59.73002031,62c50e9c1127f2cd403a315f,,,,,,,,,,,,,,,,,,,,,,,,,,,,,,,,,,,,,,,,,,,,,,,,,,,,,,,,,,,,,,,,,,,,,,,,,,,,,,,,,,,,,,,,,,,,,,,,,,,,,,,,,,,,,,,,,,,,,,,,,,,,,,,,,,,,,,,,,,,,,,,,,,,,,,,,,,,,,,,,,,,
0,26,26,15,1,,615ec7c4f3481a9eec10e0e0,62c53a807f81ed87f953c7d4,2022-07-06_09h32.12.416,Colour_Asymmetry_Pilot,2022.1.3,Win32,59.73002031,62c50e9c1127f2cd403a315f,,,,,,,,,,,,,,,,,,,,,,,,,,,,,,,,,,,,,,,,,,,,,,,,,,,,,,,,,,,,,,,,,,,,,,,,,,,,,,,,,,,,,,,,,,,,,,,,,,,,,,,,,,,,,,,,,,,,,,,,,,,,,,,,,,,,,,,,,,,,,,,,,,,,,,,,,,,,,,,,,,,
0,27,27,14,1,,615ec7c4f3481a9eec10e0e0,62c53a807f81ed87f953c7d4,2022-07-06_09h32.12.416,Colour_Asymmetry_Pilot,2022.1.3,Win32,59.73002031,62c50e9c1127f2cd403a315f,,,,,,,,,,,,,,,,,,,,,,,,,,,,,,,,,,,,,,,,,,,,,,,,,,,,,,,,,,,,,,,,,,,,,,,,,,,,,,,,,,,,,,,,,,,,,,,,,,,,,,,,,,,,,,,,,,,,,,,,,,,,,,,,,,,,,,,,,,,,,,,,,,,,,,,,,,,,,,,,,,,
0,28,28,66,1,,615ec7c4f3481a9eec10e0e0,62c53a807f81ed87f953c7d4,2022-07-06_09h32.12.416,Colour_Asymmetry_Pilot,2022.1.3,Win32,59.73002031,62c50e9c1127f2cd403a315f,,,,,,,,,,,,,,,,,,,,,,,,,,,,,,,,,,,,,,,,,,,,,,,,,,,,,,,,,,,,,,,,,,,,,,,,,,,,,,,,,,,,,,,,,,,,,,,,,,,,,,,,,,,,,,,,,,,,,,,,,,,,,,,,,,,,,,,,,,,,,,,,,,,,,,,,,,,,,,,,,,,
0,29,29,18,1,,615ec7c4f3481a9eec10e0e0,62c53a807f81ed87f953c7d4,2022-07-06_09h32.12.416,Colour_Asymmetry_Pilot,2022.1.3,Win32,59.73002031,62c50e9c1127f2cd403a315f,,,,,,,,,,,,,,,,,,,,,,,,,,,,,,,,,,,,,,,,,,,,,,,,,,,,,,,,,,,,,,,,,,,,,,,,,,,,,,,,,,,,,,,,,,,,,,,,,,,,,,,,,,,,,,,,,,,,,,,,,,,,,,,,,,,,,,,,,,,,,,,,,,,,,,,,,,,,,,,,,,,
0,30,30,0,1,,615ec7c4f3481a9eec10e0e0,62c53a807f81ed87f953c7d4,2022-07-06_09h32.12.416,Colour_Asymmetry_Pilot,2022.1.3,Win32,59.73002031,62c50e9c1127f2cd403a315f,,,,,,,,,,,,,,,,,,,,,,,,,,,,,,,,,,,,,,,,,,,,,,,,,,,,,,,,,,,,,,,,,,,,,,,,,,,,,,,,,,,,,,,,,,,,,,,,,,,,,,,,,,,,,,,,,,,,,,,,,,,,,,,,,,,,,,,,,,,,,,,,,,,,,,,,,,,,,,,,,,,
0,31,31,51,1,,615ec7c4f3481a9eec10e0e0,62c53a807f81ed87f953c7d4,2022-07-06_09h32.12.416,Colour_Asymmetry_Pilot,2022.1.3,Win32,59.73002031,62c50e9c1127f2cd403a315f,,,,,,,,,,,,,,,,,,,,,,,,,,,,,,,,,,,,,,,,,,,,,,,,,,,,,,,,,,,,,,,,,,,,,,,,,,,,,,,,,,,,,,,,,,,,,,,,,,,,,,,,,,,,,,,,,,,,,,,,,,,,,,,,,,,,,,,,,,,,,,,,,,,,,,,,,,,,,,,,,,,
0,32,32,80,1,,615ec7c4f3481a9eec10e0e0,62c53a807f81ed87f953c7d4,2022-07-06_09h32.12.416,Colour_Asymmetry_Pilot,2022.1.3,Win32,59.73002031,62c50e9c1127f2cd403a315f,,,,,,,,,,,,,,,,,,,,,,,,,,,,,,,,,,,,,,,,,,,,,,,,,,,,,,,,,,,,,,,,,,,,,,,,,,,,,,,,,,,,,,,,,,,,,,,,,,,,,,,,,,,,,,,,,,,,,,,,,,,,,,,,,,,,,,,,,,,,,,,,,,,,,,,,,,,,,,,,,,,
0,33,33,21,1,,615ec7c4f3481a9eec10e0e0,62c53a807f81ed87f953c7d4,2022-07-06_09h32.12.416,Colour_Asymmetry_Pilot,2022.1.3,Win32,59.73002031,62c50e9c1127f2cd403a315f,,,,,,,,,,,,,,,,,,,,,,,,,,,,,,,,,,,,,,,,,,,,,,,,,,,,,,,,,,,,,,,,,,,,,,,,,,,,,,,,,,,,,,,,,,,,,,,,,,,,,,,,,,,,,,,,,,,,,,,,,,,,,,,,,,,,,,,,,,,,,,,,,,,,,,,,,,,,,,,,,,,
0,34,34,20,1,,615ec7c4f3481a9eec10e0e0,62c53a807f81ed87f953c7d4,2022-07-06_09h32.12.416,Colour_Asymmetry_Pilot,2022.1.3,Win32,59.73002031,62c50e9c1127f2cd403a315f,,,,,,,,,,,,,,,,,,,,,,,,,,,,,,,,,,,,,,,,,,,,,,,,,,,,,,,,,,,,,,,,,,,,,,,,,,,,,,,,,,,,,,,,,,,,,,,,,,,,,,,,,,,,,,,,,,,,,,,,,,,,,,,,,,,,,,,,,,,,,,,,,,,,,,,,,,,,,,,,,,,
0,35,35,56,1,,615ec7c4f3481a9eec10e0e0,62c53a807f81ed87f953c7d4,2022-07-06_09h32.12.416,Colour_Asymmetry_Pilot,2022.1.3,Win32,59.73002031,62c50e9c1127f2cd403a315f,,,,,,,,,,,,,,,,,,,,,,,,,,,,,,,,,,,,,,,,,,,,,,,,,,,,,,,,,,,,,,,,,,,,,,,,,,,,,,,,,,,,,,,,,,,,,,,,,,,,,,,,,,,,,,,,,,,,,,,,,,,,,,,,,,,,,,,,,,,,,,,,,,,,,,,,,,,,,,,,,,,
0,36,36,34,1,,615ec7c4f3481a9eec10e0e0,62c53a807f81ed87f953c7d4,2022-07-06_09h32.12.416,Colour_Asymmetry_Pilot,2022.1.3,Win32,59.73002031,62c50e9c1127f2cd403a315f,,,,,,,,,,,,,,,,,,,,,,,,,,,,,,,,,,,,,,,,,,,,,,,,,,,,,,,,,,,,,,,,,,,,,,,,,,,,,,,,,,,,,,,,,,,,,,,,,,,,,,,,,,,,,,,,,,,,,,,,,,,,,,,,,,,,,,,,,,,,,,,,,,,,,,,,,,,,,,,,,,,
0,37,37,24,1,,615ec7c4f3481a9eec10e0e0,62c53a807f81ed87f953c7d4,2022-07-06_09h32.12.416,Colour_Asymmetry_Pilot,2022.1.3,Win32,59.73002031,62c50e9c1127f2cd403a315f,,,,,,,,,,,,,,,,,,,,,,,,,,,,,,,,,,,,,,,,,,,,,,,,,,,,,,,,,,,,,,,,,,,,,,,,,,,,,,,,,,,,,,,,,,,,,,,,,,,,,,,,,,,,,,,,,,,,,,,,,,,,,,,,,,,,,,,,,,,,,,,,,,,,,,,,,,,,,,,,,,,
0,38,38,43,1,,615ec7c4f3481a9eec10e0e0,62c53a807f81ed87f953c7d4,2022-07-06_09h32.12.416,Colour_Asymmetry_Pilot,2022.1.3,Win32,59.73002031,62c50e9c1127f2cd403a315f,,,,,,,,,,,,,,,,,,,,,,,,,,,,,,,,,,,,,,,,,,,,,,,,,,,,,,,,,,,,,,,,,,,,,,,,,,,,,,,,,,,,,,,,,,,,,,,,,,,,,,,,,,,,,,,,,,,,,,,,,,,,,,,,,,,,,,,,,,,,,,,,,,,,,,,,,,,,,,,,,,,
0,39,39,84,1,,615ec7c4f3481a9eec10e0e0,62c53a807f81ed87f953c7d4,2022-07-06_09h32.12.416,Colour_Asymmetry_Pilot,2022.1.3,Win32,59.73002031,62c50e9c1127f2cd403a315f,,,,,,,,,,,,,,,,,,,,,,,,,,,,,,,,,,,,,,,,,,,,,,,,,,,,,,,,,,,,,,,,,,,,,,,,,,,,,,,,,,,,,,,,,,,,,,,,,,,,,,,,,,,,,,,,,,,,,,,,,,,,,,,,,,,,,,,,,,,,,,,,,,,,,,,,,,,,,,,,,,,
0,40,40,79,1,,615ec7c4f3481a9eec10e0e0,62c53a807f81ed87f953c7d4,2022-07-06_09h32.12.416,Colour_Asymmetry_Pilot,2022.1.3,Win32,59.73002031,62c50e9c1127f2cd403a315f,,,,,,,,,,,,,,,,,,,,,,,,,,,,,,,,,,,,,,,,,,,,,,,,,,,,,,,,,,,,,,,,,,,,,,,,,,,,,,,,,,,,,,,,,,,,,,,,,,,,,,,,,,,,,,,,,,,,,,,,,,,,,,,,,,,,,,,,,,,,,,,,,,,,,,,,,,,,,,,,,,,
0,41,41,13,1,,615ec7c4f3481a9eec10e0e0,62c53a807f81ed87f953c7d4,2022-07-06_09h32.12.416,Colour_Asymmetry_Pilot,2022.1.3,Win32,59.73002031,62c50e9c1127f2cd403a315f,,,,,,,,,,,,,,,,,,,,,,,,,,,,,,,,,,,,,,,,,,,,,,,,,,,,,,,,,,,,,,,,,,,,,,,,,,,,,,,,,,,,,,,,,,,,,,,,,,,,,,,,,,,,,,,,,,,,,,,,,,,,,,,,,,,,,,,,,,,,,,,,,,,,,,,,,,,,,,,,,,,
0,42,42,7,1,,615ec7c4f3481a9eec10e0e0,62c53a807f81ed87f953c7d4,2022-07-06_09h32.12.416,Colour_Asymmetry_Pilot,2022.1.3,Win32,59.73002031,62c50e9c1127f2cd403a315f,,,,,,,,,,,,,,,,,,,,,,,,,,,,,,,,,,,,,,,,,,,,,,,,,,,,,,,,,,,,,,,,,,,,,,,,,,,,,,,,,,,,,,,,,,,,,,,,,,,,,,,,,,,,,,,,,,,,,,,,,,,,,,,,,,,,,,,,,,,,,,,,,,,,,,,,,,,,,,,,,,,
0,43,43,91,1,,615ec7c4f3481a9eec10e0e0,62c53a807f81ed87f953c7d4,2022-07-06_09h32.12.416,Colour_Asymmetry_Pilot,2022.1.3,Win32,59.73002031,62c50e9c1127f2cd403a315f,,,,,,,,,,,,,,,,,,,,,,,,,,,,,,,,,,,,,,,,,,,,,,,,,,,,,,,,,,,,,,,,,,,,,,,,,,,,,,,,,,,,,,,,,,,,,,,,,,,,,,,,,,,,,,,,,,,,,,,,,,,,,,,,,,,,,,,,,,,,,,,,,,,,,,,,,,,,,,,,,,,
0,44,44,47,1,,615ec7c4f3481a9eec10e0e0,62c53a807f81ed87f953c7d4,2022-07-06_09h32.12.416,Colour_Asymmetry_Pilot,2022.1.3,Win32,59.73002031,62c50e9c1127f2cd403a315f,,,,,,,,,,,,,,,,,,,,,,,,,,,,,,,,,,,,,,,,,,,,,,,,,,,,,,,,,,,,,,,,,,,,,,,,,,,,,,,,,,,,,,,,,,,,,,,,,,,,,,,,,,,,,,,,,,,,,,,,,,,,,,,,,,,,,,,,,,,,,,,,,,,,,,,,,,,,,,,,,,,
0,45,45,23,1,,615ec7c4f3481a9eec10e0e0,62c53a807f81ed87f953c7d4,2022-07-06_09h32.12.416,Colour_Asymmetry_Pilot,2022.1.3,Win32,59.73002031,62c50e9c1127f2cd403a315f,,,,,,,,,,,,,,,,,,,,,,,,,,,,,,,,,,,,,,,,,,,,,,,,,,,,,,,,,,,,,,,,,,,,,,,,,,,,,,,,,,,,,,,,,,,,,,,,,,,,,,,,,,,,,,,,,,,,,,,,,,,,,,,,,,,,,,,,,,,,,,,,,,,,,,,,,,,,,,,,,,,
0,46,46,2,1,,615ec7c4f3481a9eec10e0e0,62c53a807f81ed87f953c7d4,2022-07-06_09h32.12.416,Colour_Asymmetry_Pilot,2022.1.3,Win32,59.73002031,62c50e9c1127f2cd403a315f,,,,,,,,,,,,,,,,,,,,,,,,,,,,,,,,,,,,,,,,,,,,,,,,,,,,,,,,,,,,,,,,,,,,,,,,,,,,,,,,,,,,,,,,,,,,,,,,,,,,,,,,,,,,,,,,,,,,,,,,,,,,,,,,,,,,,,,,,,,,,,,,,,,,,,,,,,,,,,,,,,,
0,47,47,42,1,,615ec7c4f3481a9eec10e0e0,62c53a807f81ed87f953c7d4,2022-07-06_09h32.12.416,Colour_Asymmetry_Pilot,2022.1.3,Win32,59.73002031,62c50e9c1127f2cd403a315f,,,,,,,,,,,,,,,,,,,,,,,,,,,,,,,,,,,,,,,,,,,,,,,,,,,,,,,,,,,,,,,,,,,,,,,,,,,,,,,,,,,,,,,,,,,,,,,,,,,,,,,,,,,,,,,,,,,,,,,,,,,,,,,,,,,,,,,,,,,,,,,,,,,,,,,,,,,,,,,,,,,
0,48,48,78,1,,615ec7c4f3481a9eec10e0e0,62c53a807f81ed87f953c7d4,2022-07-06_09h32.12.416,Colour_Asymmetry_Pilot,2022.1.3,Win32,59.73002031,62c50e9c1127f2cd403a315f,,,,,,,,,,,,,,,,,,,,,,,,,,,,,,,,,,,,,,,,,,,,,,,,,,,,,,,,,,,,,,,,,,,,,,,,,,,,,,,,,,,,,,,,,,,,,,,,,,,,,,,,,,,,,,,,,,,,,,,,,,,,,,,,,,,,,,,,,,,,,,,,,,,,,,,,,,,,,,,,,,,
0,49,49,46,1,,615ec7c4f3481a9eec10e0e0,62c53a807f81ed87f953c7d4,2022-07-06_09h32.12.416,Colour_Asymmetry_Pilot,2022.1.3,Win32,59.73002031,62c50e9c1127f2cd403a315f,,,,,,,,,,,,,,,,,,,,,,,,,,,,,,,,,,,,,,,,,,,,,,,,,,,,,,,,,,,,,,,,,,,,,,,,,,,,,,,,,,,,,,,,,,,,,,,,,,,,,,,,,,,,,,,,,,,,,,,,,,,,,,,,,,,,,,,,,,,,,,,,,,,,,,,,,,,,,,,,,,,
0,50,50,9,1,,615ec7c4f3481a9eec10e0e0,62c53a807f81ed87f953c7d4,2022-07-06_09h32.12.416,Colour_Asymmetry_Pilot,2022.1.3,Win32,59.73002031,62c50e9c1127f2cd403a315f,,,,,,,,,,,,,,,,,,,,,,,,,,,,,,,,,,,,,,,,,,,,,,,,,,,,,,,,,,,,,,,,,,,,,,,,,,,,,,,,,,,,,,,,,,,,,,,,,,,,,,,,,,,,,,,,,,,,,,,,,,,,,,,,,,,,,,,,,,,,,,,,,,,,,,,,,,,,,,,,,,,
0,51,51,83,1,,615ec7c4f3481a9eec10e0e0,62c53a807f81ed87f953c7d4,2022-07-06_09h32.12.416,Colour_Asymmetry_Pilot,2022.1.3,Win32,59.73002031,62c50e9c1127f2cd403a315f,,,,,,,,,,,,,,,,,,,,,,,,,,,,,,,,,,,,,,,,,,,,,,,,,,,,,,,,,,,,,,,,,,,,,,,,,,,,,,,,,,,,,,,,,,,,,,,,,,,,,,,,,,,,,,,,,,,,,,,,,,,,,,,,,,,,,,,,,,,,,,,,,,,,,,,,,,,,,,,,,,,
0,52,52,72,1,,615ec7c4f3481a9eec10e0e0,62c53a807f81ed87f953c7d4,2022-07-06_09h32.12.416,Colour_Asymmetry_Pilot,2022.1.3,Win32,59.73002031,62c50e9c1127f2cd403a315f,,,,,,,,,,,,,,,,,,,,,,,,,,,,,,,,,,,,,,,,,,,,,,,,,,,,,,,,,,,,,,,,,,,,,,,,,,,,,,,,,,,,,,,,,,,,,,,,,,,,,,,,,,,,,,,,,,,,,,,,,,,,,,,,,,,,,,,,,,,,,,,,,,,,,,,,,,,,,,,,,,,
0,53,53,12,1,,615ec7c4f3481a9eec10e0e0,62c53a807f81ed87f953c7d4,2022-07-06_09h32.12.416,Colour_Asymmetry_Pilot,2022.1.3,Win32,59.73002031,62c50e9c1127f2cd403a315f,,,,,,,,,,,,,,,,,,,,,,,,,,,,,,,,,,,,,,,,,,,,,,,,,,,,,,,,,,,,,,,,,,,,,,,,,,,,,,,,,,,,,,,,,,,,,,,,,,,,,,,,,,,,,,,,,,,,,,,,,,,,,,,,,,,,,,,,,,,,,,,,,,,,,,,,,,,,,,,,,,,
0,54,54,35,1,,615ec7c4f3481a9eec10e0e0,62c53a807f81ed87f953c7d4,2022-07-06_09h32.12.416,Colour_Asymmetry_Pilot,2022.1.3,Win32,59.73002031,62c50e9c1127f2cd403a315f,,,,,,,,,,,,,,,,,,,,,,,,,,,,,,,,,,,,,,,,,,,,,,,,,,,,,,,,,,,,,,,,,,,,,,,,,,,,,,,,,,,,,,,,,,,,,,,,,,,,,,,,,,,,,,,,,,,,,,,,,,,,,,,,,,,,,,,,,,,,,,,,,,,,,,,,,,,,,,,,,,,
0,55,55,74,1,,615ec7c4f3481a9eec10e0e0,62c53a807f81ed87f953c7d4,2022-07-06_09h32.12.416,Colour_Asymmetry_Pilot,2022.1.3,Win32,59.73002031,62c50e9c1127f2cd403a315f,,,,,,,,,,,,,,,,,,,,,,,,,,,,,,,,,,,,,,,,,,,,,,,,,,,,,,,,,,,,,,,,,,,,,,,,,,,,,,,,,,,,,,,,,,,,,,,,,,,,,,,,,,,,,,,,,,,,,,,,,,,,,,,,,,,,,,,,,,,,,,,,,,,,,,,,,,,,,,,,,,,
0,56,56,45,1,,615ec7c4f3481a9eec10e0e0,62c53a807f81ed87f953c7d4,2022-07-06_09h32.12.416,Colour_Asymmetry_Pilot,2022.1.3,Win32,59.73002031,62c50e9c1127f2cd403a315f,,,,,,,,,,,,,,,,,,,,,,,,,,,,,,,,,,,,,,,,,,,,,,,,,,,,,,,,,,,,,,,,,,,,,,,,,,,,,,,,,,,,,,,,,,,,,,,,,,,,,,,,,,,,,,,,,,,,,,,,,,,,,,,,,,,,,,,,,,,,,,,,,,,,,,,,,,,,,,,,,,,
0,57,57,71,1,,615ec7c4f3481a9eec10e0e0,62c53a807f81ed87f953c7d4,2022-07-06_09h32.12.416,Colour_Asymmetry_Pilot,2022.1.3,Win32,59.73002031,62c50e9c1127f2cd403a315f,,,,,,,,,,,,,,,,,,,,,,,,,,,,,,,,,,,,,,,,,,,,,,,,,,,,,,,,,,,,,,,,,,,,,,,,,,,,,,,,,,,,,,,,,,,,,,,,,,,,,,,,,,,,,,,,,,,,,,,,,,,,,,,,,,,,,,,,,,,,,,,,,,,,,,,,,,,,,,,,,,,
0,58,58,31,1,,615ec7c4f3481a9eec10e0e0,62c53a807f81ed87f953c7d4,2022-07-06_09h32.12.416,Colour_Asymmetry_Pilot,2022.1.3,Win32,59.73002031,62c50e9c1127f2cd403a315f,,,,,,,,,,,,,,,,,,,,,,,,,,,,,,,,,,,,,,,,,,,,,,,,,,,,,,,,,,,,,,,,,,,,,,,,,,,,,,,,,,,,,,,,,,,,,,,,,,,,,,,,,,,,,,,,,,,,,,,,,,,,,,,,,,,,,,,,,,,,,,,,,,,,,,,,,,,,,,,,,,,
0,59,59,52,1,,615ec7c4f3481a9eec10e0e0,62c53a807f81ed87f953c7d4,2022-07-06_09h32.12.416,Colour_Asymmetry_Pilot,2022.1.3,Win32,59.73002031,62c50e9c1127f2cd403a315f,,,,,,,,,,,,,,,,,,,,,,,,,,,,,,,,,,,,,,,,,,,,,,,,,,,,,,,,,,,,,,,,,,,,,,,,,,,,,,,,,,,,,,,,,,,,,,,,,,,,,,,,,,,,,,,,,,,,,,,,,,,,,,,,,,,,,,,,,,,,,,,,,,,,,,,,,,,,,,,,,,,
0,60,60,58,1,,615ec7c4f3481a9eec10e0e0,62c53a807f81ed87f953c7d4,2022-07-06_09h32.12.416,Colour_Asymmetry_Pilot,2022.1.3,Win32,59.73002031,62c50e9c1127f2cd403a315f,,,,,,,,,,,,,,,,,,,,,,,,,,,,,,,,,,,,,,,,,,,,,,,,,,,,,,,,,,,,,,,,,,,,,,,,,,,,,,,,,,,,,,,,,,,,,,,,,,,,,,,,,,,,,,,,,,,,,,,,,,,,,,,,,,,,,,,,,,,,,,,,,,,,,,,,,,,,,,,,,,,
0,61,61,55,1,,615ec7c4f3481a9eec10e0e0,62c53a807f81ed87f953c7d4,2022-07-06_09h32.12.416,Colour_Asymmetry_Pilot,2022.1.3,Win32,59.73002031,62c50e9c1127f2cd403a315f,,,,,,,,,,,,,,,,,,,,,,,,,,,,,,,,,,,,,,,,,,,,,,,,,,,,,,,,,,,,,,,,,,,,,,,,,,,,,,,,,,,,,,,,,,,,,,,,,,,,,,,,,,,,,,,,,,,,,,,,,,,,,,,,,,,,,,,,,,,,,,,,,,,,,,,,,,,,,,,,,,,
0,62,62,60,1,,615ec7c4f3481a9eec10e0e0,62c53a807f81ed87f953c7d4,2022-07-06_09h32.12.416,Colour_Asymmetry_Pilot,2022.1.3,Win32,59.73002031,62c50e9c1127f2cd403a315f,,,,,,,,,,,,,,,,,,,,,,,,,,,,,,,,,,,,,,,,,,,,,,,,,,,,,,,,,,,,,,,,,,,,,,,,,,,,,,,,,,,,,,,,,,,,,,,,,,,,,,,,,,,,,,,,,,,,,,,,,,,,,,,,,,,,,,,,,,,,,,,,,,,,,,,,,,,,,,,,,,,
0,63,63,29,1,,615ec7c4f3481a9eec10e0e0,62c53a807f81ed87f953c7d4,2022-07-06_09h32.12.416,Colour_Asymmetry_Pilot,2022.1.3,Win32,59.73002031,62c50e9c1127f2cd403a315f,,,,,,,,,,,,,,,,,,,,,,,,,,,,,,,,,,,,,,,,,,,,,,,,,,,,,,,,,,,,,,,,,,,,,,,,,,,,,,,,,,,,,,,,,,,,,,,,,,,,,,,,,,,,,,,,,,,,,,,,,,,,,,,,,,,,,,,,,,,,,,,,,,,,,,,,,,,,,,,,,,,
0,64,64,41,1,,615ec7c4f3481a9eec10e0e0,62c53a807f81ed87f953c7d4,2022-07-06_09h32.12.416,Colour_Asymmetry_Pilot,2022.1.3,Win32,59.73002031,62c50e9c1127f2cd403a315f,,,,,,,,,,,,,,,,,,,,,,,,,,,,,,,,,,,,,,,,,,,,,,,,,,,,,,,,,,,,,,,,,,,,,,,,,,,,,,,,,,,,,,,,,,,,,,,,,,,,,,,,,,,,,,,,,,,,,,,,,,,,,,,,,,,,,,,,,,,,,,,,,,,,,,,,,,,,,,,,,,,
0,65,65,37,1,,615ec7c4f3481a9eec10e0e0,62c53a807f81ed87f953c7d4,2022-07-06_09h32.12.416,Colour_Asymmetry_Pilot,2022.1.3,Win32,59.73002031,62c50e9c1127f2cd403a315f,,,,,,,,,,,,,,,,,,,,,,,,,,,,,,,,,,,,,,,,,,,,,,,,,,,,,,,,,,,,,,,,,,,,,,,,,,,,,,,,,,,,,,,,,,,,,,,,,,,,,,,,,,,,,,,,,,,,,,,,,,,,,,,,,,,,,,,,,,,,,,,,,,,,,,,,,,,,,,,,,,,
0,66,66,1,1,,615ec7c4f3481a9eec10e0e0,62c53a807f81ed87f953c7d4,2022-07-06_09h32.12.416,Colour_Asymmetry_Pilot,2022.1.3,Win32,59.73002031,62c50e9c1127f2cd403a315f,,,,,,,,,,,,,,,,,,,,,,,,,,,,,,,,,,,,,,,,,,,,,,,,,,,,,,,,,,,,,,,,,,,,,,,,,,,,,,,,,,,,,,,,,,,,,,,,,,,,,,,,,,,,,,,,,,,,,,,,,,,,,,,,,,,,,,,,,,,,,,,,,,,,,,,,,,,,,,,,,,,
0,67,67,65,1,,615ec7c4f3481a9eec10e0e0,62c53a807f81ed87f953c7d4,2022-07-06_09h32.12.416,Colour_Asymmetry_Pilot,2022.1.3,Win32,59.73002031,62c50e9c1127f2cd403a315f,,,,,,,,,,,,,,,,,,,,,,,,,,,,,,,,,,,,,,,,,,,,,,,,,,,,,,,,,,,,,,,,,,,,,,,,,,,,,,,,,,,,,,,,,,,,,,,,,,,,,,,,,,,,,,,,,,,,,,,,,,,,,,,,,,,,,,,,,,,,,,,,,,,,,,,,,,,,,,,,,,,
0,68,68,69,1,,615ec7c4f3481a9eec10e0e0,62c53a807f81ed87f953c7d4,2022-07-06_09h32.12.416,Colour_Asymmetry_Pilot,2022.1.3,Win32,59.73002031,62c50e9c1127f2cd403a315f,,,,,,,,,,,,,,,,,,,,,,,,,,,,,,,,,,,,,,,,,,,,,,,,,,,,,,,,,,,,,,,,,,,,,,,,,,,,,,,,,,,,,,,,,,,,,,,,,,,,,,,,,,,,,,,,,,,,,,,,,,,,,,,,,,,,,,,,,,,,,,,,,,,,,,,,,,,,,,,,,,,
0,69,69,36,1,,615ec7c4f3481a9eec10e0e0,62c53a807f81ed87f953c7d4,2022-07-06_09h32.12.416,Colour_Asymmetry_Pilot,2022.1.3,Win32,59.73002031,62c50e9c1127f2cd403a315f,,,,,,,,,,,,,,,,,,,,,,,,,,,,,,,,,,,,,,,,,,,,,,,,,,,,,,,,,,,,,,,,,,,,,,,,,,,,,,,,,,,,,,,,,,,,,,,,,,,,,,,,,,,,,,,,,,,,,,,,,,,,,,,,,,,,,,,,,,,,,,,,,,,,,,,,,,,,,,,,,,,
0,70,70,50,1,,615ec7c4f3481a9eec10e0e0,62c53a807f81ed87f953c7d4,2022-07-06_09h32.12.416,Colour_Asymmetry_Pilot,2022.1.3,Win32,59.73002031,62c50e9c1127f2cd403a315f,,,,,,,,,,,,,,,,,,,,,,,,,,,,,,,,,,,,,,,,,,,,,,,,,,,,,,,,,,,,,,,,,,,,,,,,,,,,,,,,,,,,,,,,,,,,,,,,,,,,,,,,,,,,,,,,,,,,,,,,,,,,,,,,,,,,,,,,,,,,,,,,,,,,,,,,,,,,,,,,,,,
0,71,71,11,1,,615ec7c4f3481a9eec10e0e0,62c53a807f81ed87f953c7d4,2022-07-06_09h32.12.416,Colour_Asymmetry_Pilot,2022.1.3,Win32,59.73002031,62c50e9c1127f2cd403a315f,,,,,,,,,,,,,,,,,,,,,,,,,,,,,,,,,,,,,,,,,,,,,,,,,,,,,,,,,,,,,,,,,,,,,,,,,,,,,,,,,,,,,,,,,,,,,,,,,,,,,,,,,,,,,,,,,,,,,,,,,,,,,,,,,,,,,,,,,,,,,,,,,,,,,,,,,,,,,,,,,,,
0,72,72,64,1,,615ec7c4f3481a9eec10e0e0,62c53a807f81ed87f953c7d4,2022-07-06_09h32.12.416,Colour_Asymmetry_Pilot,2022.1.3,Win32,59.73002031,62c50e9c1127f2cd403a315f,,,,,,,,,,,,,,,,,,,,,,,,,,,,,,,,,,,,,,,,,,,,,,,,,,,,,,,,,,,,,,,,,,,,,,,,,,,,,,,,,,,,,,,,,,,,,,,,,,,,,,,,,,,,,,,,,,,,,,,,,,,,,,,,,,,,,,,,,,,,,,,,,,,,,,,,,,,,,,,,,,,
0,73,73,67,1,,615ec7c4f3481a9eec10e0e0,62c53a807f81ed87f953c7d4,2022-07-06_09h32.12.416,Colour_Asymmetry_Pilot,2022.1.3,Win32,59.73002031,62c50e9c1127f2cd403a315f,,,,,,,,,,,,,,,,,,,,,,,,,,,,,,,,,,,,,,,,,,,,,,,,,,,,,,,,,,,,,,,,,,,,,,,,,,,,,,,,,,,,,,,,,,,,,,,,,,,,,,,,,,,,,,,,,,,,,,,,,,,,,,,,,,,,,,,,,,,,,,,,,,,,,,,,,,,,,,,,,,,
0,74,74,26,1,,615ec7c4f3481a9eec10e0e0,62c53a807f81ed87f953c7d4,2022-07-06_09h32.12.416,Colour_Asymmetry_Pilot,2022.1.3,Win32,59.73002031,62c50e9c1127f2cd403a315f,,,,,,,,,,,,,,,,,,,,,,,,,,,,,,,,,,,,,,,,,,,,,,,,,,,,,,,,,,,,,,,,,,,,,,,,,,,,,,,,,,,,,,,,,,,,,,,,,,,,,,,,,,,,,,,,,,,,,,,,,,,,,,,,,,,,,,,,,,,,,,,,,,,,,,,,,,,,,,,,,,,
0,75,75,25,1,,615ec7c4f3481a9eec10e0e0,62c53a807f81ed87f953c7d4,2022-07-06_09h32.12.416,Colour_Asymmetry_Pilot,2022.1.3,Win32,59.73002031,62c50e9c1127f2cd403a315f,,,,,,,,,,,,,,,,,,,,,,,,,,,,,,,,,,,,,,,,,,,,,,,,,,,,,,,,,,,,,,,,,,,,,,,,,,,,,,,,,,,,,,,,,,,,,,,,,,,,,,,,,,,,,,,,,,,,,,,,,,,,,,,,,,,,,,,,,,,,,,,,,,,,,,,,,,,,,,,,,,,
0,76,76,57,1,,615ec7c4f3481a9eec10e0e0,62c53a807f81ed87f953c7d4,2022-07-06_09h32.12.416,Colour_Asymmetry_Pilot,2022.1.3,Win32,59.73002031,62c50e9c1127f2cd403a315f,,,,,,,,,,,,,,,,,,,,,,,,,,,,,,,,,,,,,,,,,,,,,,,,,,,,,,,,,,,,,,,,,,,,,,,,,,,,,,,,,,,,,,,,,,,,,,,,,,,,,,,,,,,,,,,,,,,,,,,,,,,,,,,,,,,,,,,,,,,,,,,,,,,,,,,,,,,,,,,,,,,
0,77,77,61,1,,615ec7c4f3481a9eec10e0e0,62c53a807f81ed87f953c7d4,2022-07-06_09h32.12.416,Colour_Asymmetry_Pilot,2022.1.3,Win32,59.73002031,62c50e9c1127f2cd403a315f,,,,,,,,,,,,,,,,,,,,,,,,,,,,,,,,,,,,,,,,,,,,,,,,,,,,,,,,,,,,,,,,,,,,,,,,,,,,,,,,,,,,,,,,,,,,,,,,,,,,,,,,,,,,,,,,,,,,,,,,,,,,,,,,,,,,,,,,,,,,,,,,,,,,,,,,,,,,,,,,,,,
0,78,78,54,1,,615ec7c4f3481a9eec10e0e0,62c53a807f81ed87f953c7d4,2022-07-06_09h32.12.416,Colour_Asymmetry_Pilot,2022.1.3,Win32,59.73002031,62c50e9c1127f2cd403a315f,,,,,,,,,,,,,,,,,,,,,,,,,,,,,,,,,,,,,,,,,,,,,,,,,,,,,,,,,,,,,,,,,,,,,,,,,,,,,,,,,,,,,,,,,,,,,,,,,,,,,,,,,,,,,,,,,,,,,,,,,,,,,,,,,,,,,,,,,,,,,,,,,,,,,,,,,,,,,,,,,,,
0,79,79,49,1,,615ec7c4f3481a9eec10e0e0,62c53a807f81ed87f953c7d4,2022-07-06_09h32.12.416,Colour_Asymmetry_Pilot,2022.1.3,Win32,59.73002031,62c50e9c1127f2cd403a315f,,,,,,,,,,,,,,,,,,,,,,,,,,,,,,,,,,,,,,,,,,,,,,,,,,,,,,,,,,,,,,,,,,,,,,,,,,,,,,,,,,,,,,,,,,,,,,,,,,,,,,,,,,,,,,,,,,,,,,,,,,,,,,,,,,,,,,,,,,,,,,,,,,,,,,,,,,,,,,,,,,,
0,80,80,3,1,,615ec7c4f3481a9eec10e0e0,62c53a807f81ed87f953c7d4,2022-07-06_09h32.12.416,Colour_Asymmetry_Pilot,2022.1.3,Win32,59.73002031,62c50e9c1127f2cd403a315f,,,,,,,,,,,,,,,,,,,,,,,,,,,,,,,,,,,,,,,,,,,,,,,,,,,,,,,,,,,,,,,,,,,,,,,,,,,,,,,,,,,,,,,,,,,,,,,,,,,,,,,,,,,,,,,,,,,,,,,,,,,,,,,,,,,,,,,,,,,,,,,,,,,,,,,,,,,,,,,,,,,
0,81,81,68,1,,615ec7c4f3481a9eec10e0e0,62c53a807f81ed87f953c7d4,2022-07-06_09h32.12.416,Colour_Asymmetry_Pilot,2022.1.3,Win32,59.73002031,62c50e9c1127f2cd403a315f,,,,,,,,,,,,,,,,,,,,,,,,,,,,,,,,,,,,,,,,,,,,,,,,,,,,,,,,,,,,,,,,,,,,,,,,,,,,,,,,,,,,,,,,,,,,,,,,,,,,,,,,,,,,,,,,,,,,,,,,,,,,,,,,,,,,,,,,,,,,,,,,,,,,,,,,,,,,,,,,,,,
0,82,82,53,1,,615ec7c4f3481a9eec10e0e0,62c53a807f81ed87f953c7d4,2022-07-06_09h32.12.416,Colour_Asymmetry_Pilot,2022.1.3,Win32,59.73002031,62c50e9c1127f2cd403a315f,,,,,,,,,,,,,,,,,,,,,,,,,,,,,,,,,,,,,,,,,,,,,,,,,,,,,,,,,,,,,,,,,,,,,,,,,,,,,,,,,,,,,,,,,,,,,,,,,,,,,,,,,,,,,,,,,,,,,,,,,,,,,,,,,,,,,,,,,,,,,,,,,,,,,,,,,,,,,,,,,,,
0,83,83,27,1,,615ec7c4f3481a9eec10e0e0,62c53a807f81ed87f953c7d4,2022-07-06_09h32.12.416,Colour_Asymmetry_Pilot,2022.1.3,Win32,59.73002031,62c50e9c1127f2cd403a315f,,,,,,,,,,,,,,,,,,,,,,,,,,,,,,,,,,,,,,,,,,,,,,,,,,,,,,,,,,,,,,,,,,,,,,,,,,,,,,,,,,,,,,,,,,,,,,,,,,,,,,,,,,,,,,,,,,,,,,,,,,,,,,,,,,,,,,,,,,,,,,,,,,,,,,,,,,,,,,,,,,,
0,84,84,44,1,,615ec7c4f3481a9eec10e0e0,62c53a807f81ed87f953c7d4,2022-07-06_09h32.12.416,Colour_Asymmetry_Pilot,2022.1.3,Win32,59.73002031,62c50e9c1127f2cd403a315f,,,,,,,,,,,,,,,,,,,,,,,,,,,,,,,,,,,,,,,,,,,,,,,,,,,,,,,,,,,,,,,,,,,,,,,,,,,,,,,,,,,,,,,,,,,,,,,,,,,,,,,,,,,,,,,,,,,,,,,,,,,,,,,,,,,,,,,,,,,,,,,,,,,,,,,,,,,,,,,,,,,
0,85,85,89,1,,615ec7c4f3481a9eec10e0e0,62c53a807f81ed87f953c7d4,2022-07-06_09h32.12.416,Colour_Asymmetry_Pilot,2022.1.3,Win32,59.73002031,62c50e9c1127f2cd403a315f,,,,,,,,,,,,,,,,,,,,,,,,,,,,,,,,,,,,,,,,,,,,,,,,,,,,,,,,,,,,,,,,,,,,,,,,,,,,,,,,,,,,,,,,,,,,,,,,,,,,,,,,,,,,,,,,,,,,,,,,,,,,,,,,,,,,,,,,,,,,,,,,,,,,,,,,,,,,,,,,,,,
0,86,86,4,1,,615ec7c4f3481a9eec10e0e0,62c53a807f81ed87f953c7d4,2022-07-06_09h32.12.416,Colour_Asymmetry_Pilot,2022.1.3,Win32,59.73002031,62c50e9c1127f2cd403a315f,,,,,,,,,,,,,,,,,,,,,,,,,,,,,,,,,,,,,,,,,,,,,,,,,,,,,,,,,,,,,,,,,,,,,,,,,,,,,,,,,,,,,,,,,,,,,,,,,,,,,,,,,,,,,,,,,,,,,,,,,,,,,,,,,,,,,,,,,,,,,,,,,,,,,,,,,,,,,,,,,,,
0,87,87,32,1,,615ec7c4f3481a9eec10e0e0,62c53a807f81ed87f953c7d4,2022-07-06_09h32.12.416,Colour_Asymmetry_Pilot,2022.1.3,Win32,59.73002031,62c50e9c1127f2cd403a315f,,,,,,,,,,,,,,,,,,,,,,,,,,,,,,,,,,,,,,,,,,,,,,,,,,,,,,,,,,,,,,,,,,,,,,,,,,,,,,,,,,,,,,,,,,,,,,,,,,,,,,,,,,,,,,,,,,,,,,,,,,,,,,,,,,,,,,,,,,,,,,,,,,,,,,,,,,,,,,,,,,,
0,88,88,40,1,,615ec7c4f3481a9eec10e0e0,62c53a807f81ed87f953c7d4,2022-07-06_09h32.12.416,Colour_Asymmetry_Pilot,2022.1.3,Win32,59.73002031,62c50e9c1127f2cd403a315f,,,,,,,,,,,,,,,,,,,,,,,,,,,,,,,,,,,,,,,,,,,,,,,,,,,,,,,,,,,,,,,,,,,,,,,,,,,,,,,,,,,,,,,,,,,,,,,,,,,,,,,,,,,,,,,,,,,,,,,,,,,,,,,,,,,,,,,,,,,,,,,,,,,,,,,,,,,,,,,,,,,
0,89,89,28,1,,615ec7c4f3481a9eec10e0e0,62c53a807f81ed87f953c7d4,2022-07-06_09h32.12.416,Colour_Asymmetry_Pilot,2022.1.3,Win32,59.73002031,62c50e9c1127f2cd403a315f,,,,,,,,,,,,,,,,,,,,,,,,,,,,,,,,,,,,,,,,,,,,,,,,,,,,,,,,,,,,,,,,,,,,,,,,,,,,,,,,,,,,,,,,,,,,,,,,,,,,,,,,,,,,,,,,,,,,,,,,,,,,,,,,,,,,,,,,,,,,,,,,,,,,,,,,,,,,,,,,,,,
0,90,90,59,1,,615ec7c4f3481a9eec10e0e0,62c53a807f81ed87f953c7d4,2022-07-06_09h32.12.416,Colour_Asymmetry_Pilot,2022.1.3,Win32,59.73002031,62c50e9c1127f2cd403a315f,,,,,,,,,,,,,,,,,,,,,,,,,,,,,,,,,,,,,,,,,,,,,,,,,,,,,,,,,,,,,,,,,,,,,,,,,,,,,,,,,,,,,,,,,,,,,,,,,,,,,,,,,,,,,,,,,,,,,,,,,,,,,,,,,,,,,,,,,,,,,,,,,,,,,,,,,,,,,,,,,,,
0,91,91,85,1,,615ec7c4f3481a9eec10e0e0,62c53a807f81ed87f953c7d4,2022-07-06_09h32.12.416,Colour_Asymmetry_Pilot,2022.1.3,Win32,59.73002031,62c50e9c1127f2cd403a315f,,,,,,,,,,,,,,,,,,,,,,,,,,,,,,,,,,,,,,,,,,,,,,,,,,,,,,,,,,,,,,,,,,,,,,,,,,,,,,,,,,,,,,,,,,,,,,,,,,,,,,,,,,,,,,,,,,,,,,,,,,,,,,,,,,,,,,,,,,,,,,,,,,,,,,,,,,,,,,,,,,,
0,92,92,73,1,,615ec7c4f3481a9eec10e0e0,62c53a807f81ed87f953c7d4,2022-07-06_09h32.12.416,Colour_Asymmetry_Pilot,2022.1.3,Win32,59.73002031,62c50e9c1127f2cd403a315f,,,,,,,,,,,,,,,,,,,,,,,,,,,,,,,,,,,,,,,,,,,,,,,,,,,,,,,,,,,,,,,,,,,,,,,,,,,,,,,,,,,,,,,,,,,,,,,,,,,,,,,,,,,,,,,,,,,,,,,,,,,,,,,,,,,,,,,,,,,,,,,,,,,,,,,,,,,,,,,,,,,
,,,,,,615ec7c4f3481a9eec10e0e0,62c53a807f81ed87f953c7d4,2022-07-06_09h32.12.416,Colour_Asymmetry_Pilot,2022.1.3,Win32,59.73002031,62c50e9c1127f2cd403a315f,0,0,0,155,1,twofour,,,,,,,,,,,,,,,,,,,,,,,,,,,,,,,,,,,,,,,,,,,,,,,,,,,,,,,,,,,,,,,,,,,,,,,,,,,,,,,,,,,,,,,,,,,,,,,,,,,,,,,,,,,,,,,,,,,,,,,,,,,,,,,,,,,,,,,,,,,,,,,,,,,,,,,,,,,,,
,,,,,,615ec7c4f3481a9eec10e0e0,62c53a807f81ed87f953c7d4,2022-07-06_09h32.12.416,Colour_Asymmetry_Pilot,2022.1.3,Win32,59.73002031,62c50e9c1127f2cd403a315f,0,1,1,137,1,onethree,,,,,,,,,,,,,,,,,,,,,,,,,,,,,,,,,,,,,,,,,,,,,,,,,,,,,,,,,,,,,,,,,,,,,,,,,,,,,,,,,,,,,,,,,,,,,,,,,,,,,,,,,,,,,,,,,,,,,,,,,,,,,,,,,,,,,,,,,,,,,,,,,,,,,,,,,,,,,
,,,,,,615ec7c4f3481a9eec10e0e0,62c53a807f81ed87f953c7d4,2022-07-06_09h32.12.416,Colour_Asymmetry_Pilot,2022.1.3,Win32,59.73002031,62c50e9c1127f2cd403a315f,0,2,2,102,1,fourtwo,,,,,,,,,,,,,,,,,,,,,,,,,,,,,,,,,,,,,,,,,,,,,,,,,,,,,,,,,,,,,,,,,,,,,,,,,,,,,,,,,,,,,,,,,,,,,,,,,,,,,,,,,,,,,,,,,,,,,,,,,,,,,,,,,,,,,,,,,,,,,,,,,,,,,,,,,,,,,
,,,,,,615ec7c4f3481a9eec10e0e0,62c53a807f81ed87f953c7d4,2022-07-06_09h32.12.416,Colour_Asymmetry_Pilot,2022.1.3,Win32,59.73002031,62c50e9c1127f2cd403a315f,0,3,3,158,1,fourtwo,,,,,,,,,,,,,,,,,,,,,,,,,,,,,,,,,,,,,,,,,,,,,,,,,,,,,,,,,,,,,,,,,,,,,,,,,,,,,,,,,,,,,,,,,,,,,,,,,,,,,,,,,,,,,,,,,,,,,,,,,,,,,,,,,,,,,,,,,,,,,,,,,,,,,,,,,,,,,
,,,,,,615ec7c4f3481a9eec10e0e0,62c53a807f81ed87f953c7d4,2022-07-06_09h32.12.416,Colour_Asymmetry_Pilot,2022.1.3,Win32,59.73002031,62c50e9c1127f2cd403a315f,0,4,4,25,1,onethree,,,,,,,,,,,,,,,,,,,,,,,,,,,,,,,,,,,,,,,,,,,,,,,,,,,,,,,,,,,,,,,,,,,,,,,,,,,,,,,,,,,,,,,,,,,,,,,,,,,,,,,,,,,,,,,,,,,,,,,,,,,,,,,,,,,,,,,,,,,,,,,,,,,,,,,,,,,,,
,,,,,,615ec7c4f3481a9eec10e0e0,62c53a807f81ed87f953c7d4,2022-07-06_09h32.12.416,Colour_Asymmetry_Pilot,2022.1.3,Win32,59.73002031,62c50e9c1127f2cd403a315f,0,5,5,81,1,onethree,,,,,,,,,,,,,,,,,,,,,,,,,,,,,,,,,,,,,,,,,,,,,,,,,,,,,,,,,,,,,,,,,,,,,,,,,,,,,,,,,,,,,,,,,,,,,,,,,,,,,,,,,,,,,,,,,,,,,,,,,,,,,,,,,,,,,,,,,,,,,,,,,,,,,,,,,,,,,
,,,,,,615ec7c4f3481a9eec10e0e0,62c53a807f81ed87f953c7d4,2022-07-06_09h32.12.416,Colour_Asymmetry_Pilot,2022.1.3,Win32,59.73002031,62c50e9c1127f2cd403a315f,0,6,6,146,1,twoone,,,,,,,,,,,,,,,,,,,,,,,,,,,,,,,,,,,,,,,,,,,,,,,,,,,,,,,,,,,,,,,,,,,,,,,,,,,,,,,,,,,,,,,,,,,,,,,,,,,,,,,,,,,,,,,,,,,,,,,,,,,,,,,,,,,,,,,,,,,,,,,,,,,,,,,,,,,,,
,,,,,,615ec7c4f3481a9eec10e0e0,62c53a807f81ed87f953c7d4,2022-07-06_09h32.12.416,Colour_Asymmetry_Pilot,2022.1.3,Win32,59.73002031,62c50e9c1127f2cd403a315f,0,7,7,84,1,threeone,,,,,,,,,,,,,,,,,,,,,,,,,,,,,,,,,,,,,,,,,,,,,,,,,,,,,,,,,,,,,,,,,,,,,,,,,,,,,,,,,,,,,,,,,,,,,,,,,,,,,,,,,,,,,,,,,,,,,,,,,,,,,,,,,,,,,,,,,,,,,,,,,,,,,,,,,,,,,
,,,,,,615ec7c4f3481a9eec10e0e0,62c53a807f81ed87f953c7d4,2022-07-06_09h32.12.416,Colour_Asymmetry_Pilot,2022.1.3,Win32,59.73002031,62c50e9c1127f2cd403a315f,0,8,8,145,1,onethree,,,,,,,,,,,,,,,,,,,,,,,,,,,,,,,,,,,,,,,,,,,,,,,,,,,,,,,,,,,,,,,,,,,,,,,,,,,,,,,,,,,,,,,,,,,,,,,,,,,,,,,,,,,,,,,,,,,,,,,,,,,,,,,,,,,,,,,,,,,,,,,,,,,,,,,,,,,,,
,,,,,,615ec7c4f3481a9eec10e0e0,62c53a807f81ed87f953c7d4,2022-07-06_09h32.12.416,Colour_Asymmetry_Pilot,2022.1.3,Win32,59.73002031,62c50e9c1127f2cd403a315f,0,9,9,92,1,threeone,,,,,,,,,,,,,,,,,,,,,,,,,,,,,,,,,,,,,,,,,,,,,,,,,,,,,,,,,,,,,,,,,,,,,,,,,,,,,,,,,,,,,,,,,,,,,,,,,,,,,,,,,,,,,,,,,,,,,,,,,,,,,,,,,,,,,,,,,,,,,,,,,,,,,,,,,,,,,
,,,,,,615ec7c4f3481a9eec10e0e0,62c53a807f81ed87f953c7d4,2022-07-06_09h32.12.416,Colour_Asymmetry_Pilot,2022.1.3,Win32,59.73002031,62c50e9c1127f2cd403a315f,0,10,10,21,1,threefour,,,,,,,,,,,,,,,,,,,,,,,,,,,,,,,,,,,,,,,,,,,,,,,,,,,,,,,,,,,,,,,,,,,,,,,,,,,,,,,,,,,,,,,,,,,,,,,,,,,,,,,,,,,,,,,,,,,,,,,,,,,,,,,,,,,,,,,,,,,,,,,,,,,,,,,,,,,,,
,,,,,,615ec7c4f3481a9eec10e0e0,62c53a807f81ed87f953c7d4,2022-07-06_09h32.12.416,Colour_Asymmetry_Pilot,2022.1.3,Win32,59.73002031,62c50e9c1127f2cd403a315f,0,11,11,87,1,fourthree,,,,,,,,,,,,,,,,,,,,,,,,,,,,,,,,,,,,,,,,,,,,,,,,,,,,,,,,,,,,,,,,,,,,,,,,,,,,,,,,,,,,,,,,,,,,,,,,,,,,,,,,,,,,,,,,,,,,,,,,,,,,,,,,,,,,,,,,,,,,,,,,,,,,,,,,,,,,,
,,,,,,615ec7c4f3481a9eec10e0e0,62c53a807f81ed87f953c7d4,2022-07-06_09h32.12.416,Colour_Asymmetry_Pilot,2022.1.3,Win32,59.73002031,62c50e9c1127f2cd403a315f,0,12,12,147,1,twofour,,,,,,,,,,,,,,,,,,,,,,,,,,,,,,,,,,,,,,,,,,,,,,,,,,,,,,,,,,,,,,,,,,,,,,,,,,,,,,,,,,,,,,,,,,,,,,,,,,,,,,,,,,,,,,,,,,,,,,,,,,,,,,,,,,,,,,,,,,,,,,,,,,,,,,,,,,,,,
,,,,,,615ec7c4f3481a9eec10e0e0,62c53a807f81ed87f953c7d4,2022-07-06_09h32.12.416,Colour_Asymmetry_Pilot,2022.1.3,Win32,59.73002031,62c50e9c1127f2cd403a315f,0,13,13,103,1,fourthree,,,,,,,,,,,,,,,,,,,,,,,,,,,,,,,,,,,,,,,,,,,,,,,,,,,,,,,,,,,,,,,,,,,,,,,,,,,,,,,,,,,,,,,,,,,,,,,,,,,,,,,,,,,,,,,,,,,,,,,,,,,,,,,,,,,,,,,,,,,,,,,,,,,,,,,,,,,,,
,,,,,,615ec7c4f3481a9eec10e0e0,62c53a807f81ed87f953c7d4,2022-07-06_09h32.12.416,Colour_Asymmetry_Pilot,2022.1.3,Win32,59.73002031,62c50e9c1127f2cd403a315f,0,14,14,37,1,threefour,,,,,,,,,,,,,,,,,,,,,,,,,,,,,,,,,,,,,,,,,,,,,,,,,,,,,,,,,,,,,,,,,,,,,,,,,,,,,,,,,,,,,,,,,,,,,,,,,,,,,,,,,,,,,,,,,,,,,,,,,,,,,,,,,,,,,,,,,,,,,,,,,,,,,,,,,,,,,
,,,,,,615ec7c4f3481a9eec10e0e0,62c53a807f81ed87f953c7d4,2022-07-06_09h32.12.416,Colour_Asymmetry_Pilot,2022.1.3,Win32,59.73002031,62c50e9c1127f2cd403a315f,0,15,15,153,1,onethree,,,,,,,,,,,,,,,,,,,,,,,,,,,,,,,,,,,,,,,,,,,,,,,,,,,,,,,,,,,,,,,,,,,,,,,,,,,,,,,,,,,,,,,,,,,,,,,,,,,,,,,,,,,,,,,,,,,,,,,,,,,,,,,,,,,,,,,,,,,,,,,,,,,,,,,,,,,,,
,,,,,,615ec7c4f3481a9eec10e0e0,62c53a807f81ed87f953c7d4,2022-07-06_09h32.12.416,Colour_Asymmetry_Pilot,2022.1.3,Win32,59.73002031,62c50e9c1127f2cd403a315f,0,16,16,24,1,onetwo,,,,,,,,,,,,,,,,,,,,,,,,,,,,,,,,,,,,,,,,,,,,,,,,,,,,,,,,,,,,,,,,,,,,,,,,,,,,,,,,,,,,,,,,,,,,,,,,,,,,,,,,,,,,,,,,,,,,,,,,,,,,,,,,,,,,,,,,,,,,,,,,,,,,,,,,,,,,,
,,,,,,615ec7c4f3481a9eec10e0e0,62c53a807f81ed87f953c7d4,2022-07-06_09h32.12.416,Colour_Asymmetry_Pilot,2022.1.3,Win32,59.73002031,62c50e9c1127f2cd403a315f,0,17,17,6,1,fourtwo,,,,,,,,,,,,,,,,,,,,,,,,,,,,,,,,,,,,,,,,,,,,,,,,,,,,,,,,,,,,,,,,,,,,,,,,,,,,,,,,,,,,,,,,,,,,,,,,,,,,,,,,,,,,,,,,,,,,,,,,,,,,,,,,,,,,,,,,,,,,,,,,,,,,,,,,,,,,,
,,,,,,615ec7c4f3481a9eec10e0e0,62c53a807f81ed87f953c7d4,2022-07-06_09h32.12.416,Colour_Asymmetry_Pilot,2022.1.3,Win32,59.73002031,62c50e9c1127f2cd403a315f,0,18,18,111,1,fourthree,,,,,,,,,,,,,,,,,,,,,,,,,,,,,,,,,,,,,,,,,,,,,,,,,,,,,,,,,,,,,,,,,,,,,,,,,,,,,,,,,,,,,,,,,,,,,,,,,,,,,,,,,,,,,,,,,,,,,,,,,,,,,,,,,,,,,,,,,,,,,,,,,,,,,,,,,,,,,
,,,,,,615ec7c4f3481a9eec10e0e0,62c53a807f81ed87f953c7d4,2022-07-06_09h32.12.416,Colour_Asymmetry_Pilot,2022.1.3,Win32,59.73002031,62c50e9c1127f2cd403a315f,0,19,19,79,1,fourthree,,,,,,,,,,,,,,,,,,,,,,,,,,,,,,,,,,,,,,,,,,,,,,,,,,,,,,,,,,,,,,,,,,,,,,,,,,,,,,,,,,,,,,,,,,,,,,,,,,,,,,,,,,,,,,,,,,,,,,,,,,,,,,,,,,,,,,,,,,,,,,,,,,,,,,,,,,,,,
,,,,,,615ec7c4f3481a9eec10e0e0,62c53a807f81ed87f953c7d4,2022-07-06_09h32.12.416,Colour_Asymmetry_Pilot,2022.1.3,Win32,59.73002031,62c50e9c1127f2cd403a315f,0,20,20,100,1,threeone,,,,,,,,,,,,,,,,,,,,,,,,,,,,,,,,,,,,,,,,,,,,,,,,,,,,,,,,,,,,,,,,,,,,,,,,,,,,,,,,,,,,,,,,,,,,,,,,,,,,,,,,,,,,,,,,,,,,,,,,,,,,,,,,,,,,,,,,,,,,,,,,,,,,,,,,,,,,,
,,,,,,615ec7c4f3481a9eec10e0e0,62c53a807f81ed87f953c7d4,2022-07-06_09h32.12.416,Colour_Asymmetry_Pilot,2022.1.3,Win32,59.73002031,62c50e9c1127f2cd403a315f,0,21,21,156,1,threeone,,,,,,,,,,,,,,,,,,,,,,,,,,,,,,,,,,,,,,,,,,,,,,,,,,,,,,,,,,,,,,,,,,,,,,,,,,,,,,,,,,,,,,,,,,,,,,,,,,,,,,,,,,,,,,,,,,,,,,,,,,,,,,,,,,,,,,,,,,,,,,,,,,,,,,,,,,,,,
,,,,,,615ec7c4f3481a9eec10e0e0,62c53a807f81ed87f953c7d4,2022-07-06_09h32.12.416,Colour_Asymmetry_Pilot,2022.1.3,Win32,59.73002031,62c50e9c1127f2cd403a315f,0,22,22,112,1,onetwo,,,,,,,,,,,,,,,,,,,,,,,,,,,,,,,,,,,,,,,,,,,,,,,,,,,,,,,,,,,,,,,,,,,,,,,,,,,,,,,,,,,,,,,,,,,,,,,,,,,,,,,,,,,,,,,,,,,,,,,,,,,,,,,,,,,,,,,,,,,,,,,,,,,,,,,,,,,,,
,,,,,,615ec7c4f3481a9eec10e0e0,62c53a807f81ed87f953c7d4,2022-07-06_09h32.12.416,Colour_Asymmetry_Pilot,2022.1.3,Win32,59.73002031,62c50e9c1127f2cd403a315f,0,23,23,125,1,threefour,,,,,,,,,,,,,,,,,,,,,,,,,,,,,,,,,,,,,,,,,,,,,,,,,,,,,,,,,,,,,,,,,,,,,,,,,,,,,,,,,,,,,,,,,,,,,,,,,,,,,,,,,,,,,,,,,,,,,,,,,,,,,,,,,,,,,,,,,,,,,,,,,,,,,,,,,,,,,
,,,,,,615ec7c4f3481a9eec10e0e0,62c53a807f81ed87f953c7d4,2022-07-06_09h32.12.416,Colour_Asymmetry_Pilot,2022.1.3,Win32,59.73002031,62c50e9c1127f2cd403a315f,0,24,24,53,1,threefour,,,,,,,,,,,,,,,,,,,,,,,,,,,,,,,,,,,,,,,,,,,,,,,,,,,,,,,,,,,,,,,,,,,,,,,,,,,,,,,,,,,,,,,,,,,,,,,,,,,,,,,,,,,,,,,,,,,,,,,,,,,,,,,,,,,,,,,,,,,,,,,,,,,,,,,,,,,,,
,,,,,,615ec7c4f3481a9eec10e0e0,62c53a807f81ed87f953c7d4,2022-07-06_09h32.12.416,Colour_Asymmetry_Pilot,2022.1.3,Win32,59.73002031,62c50e9c1127f2cd403a315f,0,25,25,26,1,twoone,,,,,,,,,,,,,,,,,,,,,,,,,,,,,,,,,,,,,,,,,,,,,,,,,,,,,,,,,,,,,,,,,,,,,,,,,,,,,,,,,,,,,,,,,,,,,,,,,,,,,,,,,,,,,,,,,,,,,,,,,,,,,,,,,,,,,,,,,,,,,,,,,,,,,,,,,,,,,
,,,,,,615ec7c4f3481a9eec10e0e0,62c53a807f81ed87f953c7d4,2022-07-06_09h32.12.416,Colour_Asymmetry_Pilot,2022.1.3,Win32,59.73002031,62c50e9c1127f2cd403a315f,0,26,26,97,1,onethree,,,,,,,,,,,,,,,,,,,,,,,,,,,,,,,,,,,,,,,,,,,,,,,,,,,,,,,,,,,,,,,,,,,,,,,,,,,,,,,,,,,,,,,,,,,,,,,,,,,,,,,,,,,,,,,,,,,,,,,,,,,,,,,,,,,,,,,,,,,,,,,,,,,,,,,,,,,,,
,,,,,,615ec7c4f3481a9eec10e0e0,62c53a807f81ed87f953c7d4,2022-07-06_09h32.12.416,Colour_Asymmetry_Pilot,2022.1.3,Win32,59.73002031,62c50e9c1127f2cd403a315f,0,27,27,152,1,onetwo,,,,,,,,,,,,,,,,,,,,,,,,,,,,,,,,,,,,,,,,,,,,,,,,,,,,,,,,,,,,,,,,,,,,,,,,,,,,,,,,,,,,,,,,,,,,,,,,,,,,,,,,,,,,,,,,,,,,,,,,,,,,,,,,,,,,,,,,,,,,,,,,,,,,,,,,,,,,,
,,,,,,615ec7c4f3481a9eec10e0e0,62c53a807f81ed87f953c7d4,2022-07-06_09h32.12.416,Colour_Asymmetry_Pilot,2022.1.3,Win32,59.73002031,62c50e9c1127f2cd403a315f,0,28,28,40,1,onetwo,,,,,,,,,,,,,,,,,,,,,,,,,,,,,,,,,,,,,,,,,,,,,,,,,,,,,,,,,,,,,,,,,,,,,,,,,,,,,,,,,,,,,,,,,,,,,,,,,,,,,,,,,,,,,,,,,,,,,,,,,,,,,,,,,,,,,,,,,,,,,,,,,,,,,,,,,,,,,
,,,,,,615ec7c4f3481a9eec10e0e0,62c53a807f81ed87f953c7d4,2022-07-06_09h32.12.416,Colour_Asymmetry_Pilot,2022.1.3,Win32,59.73002031,62c50e9c1127f2cd403a315f,0,29,29,96,1,onetwo,,,,,,,,,,,,,,,,,,,,,,,,,,,,,,,,,,,,,,,,,,,,,,,,,,,,,,,,,,,,,,,,,,,,,,,,,,,,,,,,,,,,,,,,,,,,,,,,,,,,,,,,,,,,,,,,,,,,,,,,,,,,,,,,,,,,,,,,,,,,,,,,,,,,,,,,,,,,,
,,,,,,615ec7c4f3481a9eec10e0e0,62c53a807f81ed87f953c7d4,2022-07-06_09h32.12.416,Colour_Asymmetry_Pilot,2022.1.3,Win32,59.73002031,62c50e9c1127f2cd403a315f,0,30,30,110,1,fourtwo,,,,,,,,,,,,,,,,,,,,,,,,,,,,,,,,,,,,,,,,,,,,,,,,,,,,,,,,,,,,,,,,,,,,,,,,,,,,,,,,,,,,,,,,,,,,,,,,,,,,,,,,,,,,,,,,,,,,,,,,,,,,,,,,,,,,,,,,,,,,,,,,,,,,,,,,,,,,,
,,,,,,615ec7c4f3481a9eec10e0e0,62c53a807f81ed87f953c7d4,2022-07-06_09h32.12.416,Colour_Asymmetry_Pilot,2022.1.3,Win32,59.73002031,62c50e9c1127f2cd403a315f,0,31,31,109,1,threefour,,,,,,,,,,,,,,,,,,,,,,,,,,,,,,,,,,,,,,,,,,,,,,,,,,,,,,,,,,,,,,,,,,,,,,,,,,,,,,,,,,,,,,,,,,,,,,,,,,,,,,,,,,,,,,,,,,,,,,,,,,,,,,,,,,,,,,,,,,,,,,,,,,,,,,,,,,,,,
,,,,,,615ec7c4f3481a9eec10e0e0,62c53a807f81ed87f953c7d4,2022-07-06_09h32.12.416,Colour_Asymmetry_Pilot,2022.1.3,Win32,59.73002031,62c50e9c1127f2cd403a315f,0,32,32,161,1,onethree,,,,,,,,,,,,,,,,,,,,,,,,,,,,,,,,,,,,,,,,,,,,,,,,,,,,,,,,,,,,,,,,,,,,,,,,,,,,,,,,,,,,,,,,,,,,,,,,,,,,,,,,,,,,,,,,,,,,,,,,,,,,,,,,,,,,,,,,,,,,,,,,,,,,,,,,,,,,,
,,,,,,615ec7c4f3481a9eec10e0e0,62c53a807f81ed87f953c7d4,2022-07-06_09h32.12.416,Colour_Asymmetry_Pilot,2022.1.3,Win32,59.73002031,62c50e9c1127f2cd403a315f,0,33,33,80,1,onetwo,,,,,,,,,,,,,,,,,,,,,,,,,,,,,,,,,,,,,,,,,,,,,,,,,,,,,,,,,,,,,,,,,,,,,,,,,,,,,,,,,,,,,,,,,,,,,,,,,,,,,,,,,,,,,,,,,,,,,,,,,,,,,,,,,,,,,,,,,,,,,,,,,,,,,,,,,,,,,
,,,,,,615ec7c4f3481a9eec10e0e0,62c53a807f81ed87f953c7d4,2022-07-06_09h32.12.416,Colour_Asymmetry_Pilot,2022.1.3,Win32,59.73002031,62c50e9c1127f2cd403a315f,0,34,34,133,1,threefour,,,,,,,,,,,,,,,,,,,,,,,,,,,,,,,,,,,,,,,,,,,,,,,,,,,,,,,,,,,,,,,,,,,,,,,,,,,,,,,,,,,,,,,,,,,,,,,,,,,,,,,,,,,,,,,,,,,,,,,,,,,,,,,,,,,,,,,,,,,,,,,,,,,,,,,,,,,,,
,,,,,,615ec7c4f3481a9eec10e0e0,62c53a807f81ed87f953c7d4,2022-07-06_09h32.12.416,Colour_Asymmetry_Pilot,2022.1.3,Win32,59.73002031,62c50e9c1127f2cd403a315f,0,35,35,85,1,threefour,,,,,,,,,,,,,,,,,,,,,,,,,,,,,,,,,,,,,,,,,,,,,,,,,,,,,,,,,,,,,,,,,,,,,,,,,,,,,,,,,,,,,,,,,,,,,,,,,,,,,,,,,,,,,,,,,,,,,,,,,,,,,,,,,,,,,,,,,,,,,,,,,,,,,,,,,,,,,
,,,,,,615ec7c4f3481a9eec10e0e0,62c53a807f81ed87f953c7d4,2022-07-06_09h32.12.416,Colour_Asymmetry_Pilot,2022.1.3,Win32,59.73002031,62c50e9c1127f2cd403a315f,0,36,36,62,1,fourtwo,,,,,,,,,,,,,,,,,,,,,,,,,,,,,,,,,,,,,,,,,,,,,,,,,,,,,,,,,,,,,,,,,,,,,,,,,,,,,,,,,,,,,,,,,,,,,,,,,,,,,,,,,,,,,,,,,,,,,,,,,,,,,,,,,,,,,,,,,,,,,,,,,,,,,,,,,,,,,
,,,,,,615ec7c4f3481a9eec10e0e0,62c53a807f81ed87f953c7d4,2022-07-06_09h32.12.416,Colour_Asymmetry_Pilot,2022.1.3,Win32,59.73002031,62c50e9c1127f2cd403a315f,0,37,37,78,1,fourtwo,,,,,,,,,,,,,,,,,,,,,,,,,,,,,,,,,,,,,,,,,,,,,,,,,,,,,,,,,,,,,,,,,,,,,,,,,,,,,,,,,,,,,,,,,,,,,,,,,,,,,,,,,,,,,,,,,,,,,,,,,,,,,,,,,,,,,,,,,,,,,,,,,,,,,,,,,,,,,
,,,,,,615ec7c4f3481a9eec10e0e0,62c53a807f81ed87f953c7d4,2022-07-06_09h32.12.416,Colour_Asymmetry_Pilot,2022.1.3,Win32,59.73002031,62c50e9c1127f2cd403a315f,0,38,38,31,1,fourthree,,,,,,,,,,,,,,,,,,,,,,,,,,,,,,,,,,,,,,,,,,,,,,,,,,,,,,,,,,,,,,,,,,,,,,,,,,,,,,,,,,,,,,,,,,,,,,,,,,,,,,,,,,,,,,,,,,,,,,,,,,,,,,,,,,,,,,,,,,,,,,,,,,,,,,,,,,,,,
,,,,,,615ec7c4f3481a9eec10e0e0,62c53a807f81ed87f953c7d4,2022-07-06_09h32.12.416,Colour_Asymmetry_Pilot,2022.1.3,Win32,59.73002031,62c50e9c1127f2cd403a315f,0,39,39,99,1,twofour,,,,,,,,,,,,,,,,,,,,,,,,,,,,,,,,,,,,,,,,,,,,,,,,,,,,,,,,,,,,,,,,,,,,,,,,,,,,,,,,,,,,,,,,,,,,,,,,,,,,,,,,,,,,,,,,,,,,,,,,,,,,,,,,,,,,,,,,,,,,,,,,,,,,,,,,,,,,,
,,,,,,615ec7c4f3481a9eec10e0e0,62c53a807f81ed87f953c7d4,2022-07-06_09h32.12.416,Colour_Asymmetry_Pilot,2022.1.3,Win32,59.73002031,62c50e9c1127f2cd403a315f,0,40,40,9,1,onethree,,,,,,,,,,,,,,,,,,,,,,,,,,,,,,,,,,,,,,,,,,,,,,,,,,,,,,,,,,,,,,,,,,,,,,,,,,,,,,,,,,,,,,,,,,,,,,,,,,,,,,,,,,,,,,,,,,,,,,,,,,,,,,,,,,,,,,,,,,,,,,,,,,,,,,,,,,,,,
,,,,,,615ec7c4f3481a9eec10e0e0,62c53a807f81ed87f953c7d4,2022-07-06_09h32.12.416,Colour_Asymmetry_Pilot,2022.1.3,Win32,59.73002031,62c50e9c1127f2cd403a315f,0,41,41,116,1,threeone,,,,,,,,,,,,,,,,,,,,,,,,,,,,,,,,,,,,,,,,,,,,,,,,,,,,,,,,,,,,,,,,,,,,,,,,,,,,,,,,,,,,,,,,,,,,,,,,,,,,,,,,,,,,,,,,,,,,,,,,,,,,,,,,,,,,,,,,,,,,,,,,,,,,,,,,,,,,,
,,,,,,615ec7c4f3481a9eec10e0e0,62c53a807f81ed87f953c7d4,2022-07-06_09h32.12.416,Colour_Asymmetry_Pilot,2022.1.3,Win32,59.73002031,62c50e9c1127f2cd403a315f,0,42,42,108,1,threeone,,,,,,,,,,,,,,,,,,,,,,,,,,,,,,,,,,,,,,,,,,,,,,,,,,,,,,,,,,,,,,,,,,,,,,,,,,,,,,,,,,,,,,,,,,,,,,,,,,,,,,,,,,,,,,,,,,,,,,,,,,,,,,,,,,,,,,,,,,,,,,,,,,,,,,,,,,,,,
,,,,,,615ec7c4f3481a9eec10e0e0,62c53a807f81ed87f953c7d4,2022-07-06_09h32.12.416,Colour_Asymmetry_Pilot,2022.1.3,Win32,59.73002031,62c50e9c1127f2cd403a315f,0,43,43,77,1,threefour,,,,,,,,,,,,,,,,,,,,,,,,,,,,,,,,,,,,,,,,,,,,,,,,,,,,,,,,,,,,,,,,,,,,,,,,,,,,,,,,,,,,,,,,,,,,,,,,,,,,,,,,,,,,,,,,,,,,,,,,,,,,,,,,,,,,,,,,,,,,,,,,,,,,,,,,,,,,,
,,,,,,615ec7c4f3481a9eec10e0e0,62c53a807f81ed87f953c7d4,2022-07-06_09h32.12.416,Colour_Asymmetry_Pilot,2022.1.3,Win32,59.73002031,62c50e9c1127f2cd403a315f,0,44,44,132,1,threeone,,,,,,,,,,,,,,,,,,,,,,,,,,,,,,,,,,,,,,,,,,,,,,,,,,,,,,,,,,,,,,,,,,,,,,,,,,,,,,,,,,,,,,,,,,,,,,,,,,,,,,,,,,,,,,,,,,,,,,,,,,,,,,,,,,,,,,,,,,,,,,,,,,,,,,,,,,,,,
,,,,,,615ec7c4f3481a9eec10e0e0,62c53a807f81ed87f953c7d4,2022-07-06_09h32.12.416,Colour_Asymmetry_Pilot,2022.1.3,Win32,59.73002031,62c50e9c1127f2cd403a315f,0,45,45,68,1,threeone,,,,,,,,,,,,,,,,,,,,,,,,,,,,,,,,,,,,,,,,,,,,,,,,,,,,,,,,,,,,,,,,,,,,,,,,,,,,,,,,,,,,,,,,,,,,,,,,,,,,,,,,,,,,,,,,,,,,,,,,,,,,,,,,,,,,,,,,,,,,,,,,,,,,,,,,,,,,,
,,,,,,615ec7c4f3481a9eec10e0e0,62c53a807f81ed87f953c7d4,2022-07-06_09h32.12.416,Colour_Asymmetry_Pilot,2022.1.3,Win32,59.73002031,62c50e9c1127f2cd403a315f,0,46,46,121,1,onethree,,,,,,,,,,,,,,,,,,,,,,,,,,,,,,,,,,,,,,,,,,,,,,,,,,,,,,,,,,,,,,,,,,,,,,,,,,,,,,,,,,,,,,,,,,,,,,,,,,,,,,,,,,,,,,,,,,,,,,,,,,,,,,,,,,,,,,,,,,,,,,,,,,,,,,,,,,,,,
,,,,,,615ec7c4f3481a9eec10e0e0,62c53a807f81ed87f953c7d4,2022-07-06_09h32.12.416,Colour_Asymmetry_Pilot,2022.1.3,Win32,59.73002031,62c50e9c1127f2cd403a315f,0,47,47,70,1,fourtwo,,,,,,,,,,,,,,,,,,,,,,,,,,,,,,,,,,,,,,,,,,,,,,,,,,,,,,,,,,,,,,,,,,,,,,,,,,,,,,,,,,,,,,,,,,,,,,,,,,,,,,,,,,,,,,,,,,,,,,,,,,,,,,,,,,,,,,,,,,,,,,,,,,,,,,,,,,,,,
,,,,,,615ec7c4f3481a9eec10e0e0,62c53a807f81ed87f953c7d4,2022-07-06_09h32.12.416,Colour_Asymmetry_Pilot,2022.1.3,Win32,59.73002031,62c50e9c1127f2cd403a315f,0,48,48,104,1,onetwo,,,,,,,,,,,,,,,,,,,,,,,,,,,,,,,,,,,,,,,,,,,,,,,,,,,,,,,,,,,,,,,,,,,,,,,,,,,,,,,,,,,,,,,,,,,,,,,,,,,,,,,,,,,,,,,,,,,,,,,,,,,,,,,,,,,,,,,,,,,,,,,,,,,,,,,,,,,,,
,,,,,,615ec7c4f3481a9eec10e0e0,62c53a807f81ed87f953c7d4,2022-07-06_09h32.12.416,Colour_Asymmetry_Pilot,2022.1.3,Win32,59.73002031,62c50e9c1127f2cd403a315f,0,49,49,43,1,twofour,,,,,,,,,,,,,,,,,,,,,,,,,,,,,,,,,,,,,,,,,,,,,,,,,,,,,,,,,,,,,,,,,,,,,,,,,,,,,,,,,,,,,,,,,,,,,,,,,,,,,,,,,,,,,,,,,,,,,,,,,,,,,,,,,,,,,,,,,,,,,,,,,,,,,,,,,,,,,
,,,,,,615ec7c4f3481a9eec10e0e0,62c53a807f81ed87f953c7d4,2022-07-06_09h32.12.416,Colour_Asymmetry_Pilot,2022.1.3,Win32,59.73002031,62c50e9c1127f2cd403a315f,0,50,50,60,1,threeone,,,,,,,,,,,,,,,,,,,,,,,,,,,,,,,,,,,,,,,,,,,,,,,,,,,,,,,,,,,,,,,,,,,,,,,,,,,,,,,,,,,,,,,,,,,,,,,,,,,,,,,,,,,,,,,,,,,,,,,,,,,,,,,,,,,,,,,,,,,,,,,,,,,,,,,,,,,,,
,,,,,,615ec7c4f3481a9eec10e0e0,62c53a807f81ed87f953c7d4,2022-07-06_09h32.12.416,Colour_Asymmetry_Pilot,2022.1.3,Win32,59.73002031,62c50e9c1127f2cd403a315f,0,51,51,29,1,threefour,,,,,,,,,,,,,,,,,,,,,,,,,,,,,,,,,,,,,,,,,,,,,,,,,,,,,,,,,,,,,,,,,,,,,,,,,,,,,,,,,,,,,,,,,,,,,,,,,,,,,,,,,,,,,,,,,,,,,,,,,,,,,,,,,,,,,,,,,,,,,,,,,,,,,,,,,,,,,
,,,,,,615ec7c4f3481a9eec10e0e0,62c53a807f81ed87f953c7d4,2022-07-06_09h32.12.416,Colour_Asymmetry_Pilot,2022.1.3,Win32,59.73002031,62c50e9c1127f2cd403a315f,0,52,52,33,1,onethree,,,,,,,,,,,,,,,,,,,,,,,,,,,,,,,,,,,,,,,,,,,,,,,,,,,,,,,,,,,,,,,,,,,,,,,,,,,,,,,,,,,,,,,,,,,,,,,,,,,,,,,,,,,,,,,,,,,,,,,,,,,,,,,,,,,,,,,,,,,,,,,,,,,,,,,,,,,,,
,,,,,,615ec7c4f3481a9eec10e0e0,62c53a807f81ed87f953c7d4,2022-07-06_09h32.12.416,Colour_Asymmetry_Pilot,2022.1.3,Win32,59.73002031,62c50e9c1127f2cd403a315f,0,53,53,71,1,fourthree,,,,,,,,,,,,,,,,,,,,,,,,,,,,,,,,,,,,,,,,,,,,,,,,,,,,,,,,,,,,,,,,,,,,,,,,,,,,,,,,,,,,,,,,,,,,,,,,,,,,,,,,,,,,,,,,,,,,,,,,,,,,,,,,,,,,,,,,,,,,,,,,,,,,,,,,,,,,,
,,,,,,615ec7c4f3481a9eec10e0e0,62c53a807f81ed87f953c7d4,2022-07-06_09h32.12.416,Colour_Asymmetry_Pilot,2022.1.3,Win32,59.73002031,62c50e9c1127f2cd403a315f,0,54,54,3,1,twofour,,,,,,,,,,,,,,,,,,,,,,,,,,,,,,,,,,,,,,,,,,,,,,,,,,,,,,,,,,,,,,,,,,,,,,,,,,,,,,,,,,,,,,,,,,,,,,,,,,,,,,,,,,,,,,,,,,,,,,,,,,,,,,,,,,,,,,,,,,,,,,,,,,,,,,,,,,,,,
,,,,,,615ec7c4f3481a9eec10e0e0,62c53a807f81ed87f953c7d4,2022-07-06_09h32.12.416,Colour_Asymmetry_Pilot,2022.1.3,Win32,59.73002031,62c50e9c1127f2cd403a315f,0,55,55,15,1,fourthree,,,,,,,,,,,,,,,,,,,,,,,,,,,,,,,,,,,,,,,,,,,,,,,,,,,,,,,,,,,,,,,,,,,,,,,,,,,,,,,,,,,,,,,,,,,,,,,,,,,,,,,,,,,,,,,,,,,,,,,,,,,,,,,,,,,,,,,,,,,,,,,,,,,,,,,,,,,,,
,,,,,,615ec7c4f3481a9eec10e0e0,62c53a807f81ed87f953c7d4,2022-07-06_09h32.12.416,Colour_Asymmetry_Pilot,2022.1.3,Win32,59.73002031,62c50e9c1127f2cd403a315f,0,56,56,54,1,fourtwo,,,,,,,,,,,,,,,,,,,,,,,,,,,,,,,,,,,,,,,,,,,,,,,,,,,,,,,,,,,,,,,,,,,,,,,,,,,,,,,,,,,,,,,,,,,,,,,,,,,,,,,,,,,,,,,,,,,,,,,,,,,,,,,,,,,,,,,,,,,,,,,,,,,,,,,,,,,,,
,,,,,,615ec7c4f3481a9eec10e0e0,62c53a807f81ed87f953c7d4,2022-07-06_09h32.12.416,Colour_Asymmetry_Pilot,2022.1.3,Win32,59.73002031,62c50e9c1127f2cd403a315f,0,57,57,38,1,fourtwo,,,,,,,,,,,,,,,,,,,,,,,,,,,,,,,,,,,,,,,,,,,,,,,,,,,,,,,,,,,,,,,,,,,,,,,,,,,,,,,,,,,,,,,,,,,,,,,,,,,,,,,,,,,,,,,,,,,,,,,,,,,,,,,,,,,,,,,,,,,,,,,,,,,,,,,,,,,,,
,,,,,,615ec7c4f3481a9eec10e0e0,62c53a807f81ed87f953c7d4,2022-07-06_09h32.12.416,Colour_Asymmetry_Pilot,2022.1.3,Win32,59.73002031,62c50e9c1127f2cd403a315f,0,58,58,130,1,twoone,,,,,,,,,,,,,,,,,,,,,,,,,,,,,,,,,,,,,,,,,,,,,,,,,,,,,,,,,,,,,,,,,,,,,,,,,,,,,,,,,,,,,,,,,,,,,,,,,,,,,,,,,,,,,,,,,,,,,,,,,,,,,,,,,,,,,,,,,,,,,,,,,,,,,,,,,,,,,
,,,,,,615ec7c4f3481a9eec10e0e0,62c53a807f81ed87f953c7d4,2022-07-06_09h32.12.416,Colour_Asymmetry_Pilot,2022.1.3,Win32,59.73002031,62c50e9c1127f2cd403a315f,0,59,59,83,1,twofour,,,,,,,,,,,,,,,,,,,,,,,,,,,,,,,,,,,,,,,,,,,,,,,,,,,,,,,,,,,,,,,,,,,,,,,,,,,,,,,,,,,,,,,,,,,,,,,,,,,,,,,,,,,,,,,,,,,,,,,,,,,,,,,,,,,,,,,,,,,,,,,,,,,,,,,,,,,,,
,,,,,,615ec7c4f3481a9eec10e0e0,62c53a807f81ed87f953c7d4,2022-07-06_09h32.12.416,Colour_Asymmetry_Pilot,2022.1.3,Win32,59.73002031,62c50e9c1127f2cd403a315f,0,60,60,58,1,twoone,,,,,,,,,,,,,,,,,,,,,,,,,,,,,,,,,,,,,,,,,,,,,,,,,,,,,,,,,,,,,,,,,,,,,,,,,,,,,,,,,,,,,,,,,,,,,,,,,,,,,,,,,,,,,,,,,,,,,,,,,,,,,,,,,,,,,,,,,,,,,,,,,,,,,,,,,,,,,
,,,,,,615ec7c4f3481a9eec10e0e0,62c53a807f81ed87f953c7d4,2022-07-06_09h32.12.416,Colour_Asymmetry_Pilot,2022.1.3,Win32,59.73002031,62c50e9c1127f2cd403a315f,0,61,61,30,1,fourtwo,,,,,,,,,,,,,,,,,,,,,,,,,,,,,,,,,,,,,,,,,,,,,,,,,,,,,,,,,,,,,,,,,,,,,,,,,,,,,,,,,,,,,,,,,,,,,,,,,,,,,,,,,,,,,,,,,,,,,,,,,,,,,,,,,,,,,,,,,,,,,,,,,,,,,,,,,,,,,
,,,,,,615ec7c4f3481a9eec10e0e0,62c53a807f81ed87f953c7d4,2022-07-06_09h32.12.416,Colour_Asymmetry_Pilot,2022.1.3,Win32,59.73002031,62c50e9c1127f2cd403a315f,0,62,62,101,1,threefour,,,,,,,,,,,,,,,,,,,,,,,,,,,,,,,,,,,,,,,,,,,,,,,,,,,,,,,,,,,,,,,,,,,,,,,,,,,,,,,,,,,,,,,,,,,,,,,,,,,,,,,,,,,,,,,,,,,,,,,,,,,,,,,,,,,,,,,,,,,,,,,,,,,,,,,,,,,,,
,,,,,,615ec7c4f3481a9eec10e0e0,62c53a807f81ed87f953c7d4,2022-07-06_09h32.12.416,Colour_Asymmetry_Pilot,2022.1.3,Win32,59.73002031,62c50e9c1127f2cd403a315f,0,63,63,20,1,threeone,,,,,,,,,,,,,,,,,,,,,,,,,,,,,,,,,,,,,,,,,,,,,,,,,,,,,,,,,,,,,,,,,,,,,,,,,,,,,,,,,,,,,,,,,,,,,,,,,,,,,,,,,,,,,,,,,,,,,,,,,,,,,,,,,,,,,,,,,,,,,,,,,,,,,,,,,,,,,
,,,,,,615ec7c4f3481a9eec10e0e0,62c53a807f81ed87f953c7d4,2022-07-06_09h32.12.416,Colour_Asymmetry_Pilot,2022.1.3,Win32,59.73002031,62c50e9c1127f2cd403a315f,0,64,64,157,1,threefour,,,,,,,,,,,,,,,,,,,,,,,,,,,,,,,,,,,,,,,,,,,,,,,,,,,,,,,,,,,,,,,,,,,,,,,,,,,,,,,,,,,,,,,,,,,,,,,,,,,,,,,,,,,,,,,,,,,,,,,,,,,,,,,,,,,,,,,,,,,,,,,,,,,,,,,,,,,,,
,,,,,,615ec7c4f3481a9eec10e0e0,62c53a807f81ed87f953c7d4,2022-07-06_09h32.12.416,Colour_Asymmetry_Pilot,2022.1.3,Win32,59.73002031,62c50e9c1127f2cd403a315f,0,65,65,136,1,onetwo,,,,,,,,,,,,,,,,,,,,,,,,,,,,,,,,,,,,,,,,,,,,,,,,,,,,,,,,,,,,,,,,,,,,,,,,,,,,,,,,,,,,,,,,,,,,,,,,,,,,,,,,,,,,,,,,,,,,,,,,,,,,,,,,,,,,,,,,,,,,,,,,,,,,,,,,,,,,,
,,,,,,615ec7c4f3481a9eec10e0e0,62c53a807f81ed87f953c7d4,2022-07-06_09h32.12.416,Colour_Asymmetry_Pilot,2022.1.3,Win32,59.73002031,62c50e9c1127f2cd403a315f,0,66,66,4,1,threeone,,,,,,,,,,,,,,,,,,,,,,,,,,,,,,,,,,,,,,,,,,,,,,,,,,,,,,,,,,,,,,,,,,,,,,,,,,,,,,,,,,,,,,,,,,,,,,,,,,,,,,,,,,,,,,,,,,,,,,,,,,,,,,,,,,,,,,,,,,,,,,,,,,,,,,,,,,,,,
,,,,,,615ec7c4f3481a9eec10e0e0,62c53a807f81ed87f953c7d4,2022-07-06_09h32.12.416,Colour_Asymmetry_Pilot,2022.1.3,Win32,59.73002031,62c50e9c1127f2cd403a315f,0,67,67,76,1,threeone,,,,,,,,,,,,,,,,,,,,,,,,,,,,,,,,,,,,,,,,,,,,,,,,,,,,,,,,,,,,,,,,,,,,,,,,,,,,,,,,,,,,,,,,,,,,,,,,,,,,,,,,,,,,,,,,,,,,,,,,,,,,,,,,,,,,,,,,,,,,,,,,,,,,,,,,,,,,,
,,,,,,615ec7c4f3481a9eec10e0e0,62c53a807f81ed87f953c7d4,2022-07-06_09h32.12.416,Colour_Asymmetry_Pilot,2022.1.3,Win32,59.73002031,62c50e9c1127f2cd403a315f,0,68,68,91,1,twofour,,,,,,,,,,,,,,,,,,,,,,,,,,,,,,,,,,,,,,,,,,,,,,,,,,,,,,,,,,,,,,,,,,,,,,,,,,,,,,,,,,,,,,,,,,,,,,,,,,,,,,,,,,,,,,,,,,,,,,,,,,,,,,,,,,,,,,,,,,,,,,,,,,,,,,,,,,,,,
,,,,,,615ec7c4f3481a9eec10e0e0,62c53a807f81ed87f953c7d4,2022-07-06_09h32.12.416,Colour_Asymmetry_Pilot,2022.1.3,Win32,59.73002031,62c50e9c1127f2cd403a315f,0,69,69,159,1,fourthree,,,,,,,,,,,,,,,,,,,,,,,,,,,,,,,,,,,,,,,,,,,,,,,,,,,,,,,,,,,,,,,,,,,,,,,,,,,,,,,,,,,,,,,,,,,,,,,,,,,,,,,,,,,,,,,,,,,,,,,,,,,,,,,,,,,,,,,,,,,,,,,,,,,,,,,,,,,,,
,,,,,,615ec7c4f3481a9eec10e0e0,62c53a807f81ed87f953c7d4,2022-07-06_09h32.12.416,Colour_Asymmetry_Pilot,2022.1.3,Win32,59.73002031,62c50e9c1127f2cd403a315f,0,70,70,73,1,onethree,,,,,,,,,,,,,,,,,,,,,,,,,,,,,,,,,,,,,,,,,,,,,,,,,,,,,,,,,,,,,,,,,,,,,,,,,,,,,,,,,,,,,,,,,,,,,,,,,,,,,,,,,,,,,,,,,,,,,,,,,,,,,,,,,,,,,,,,,,,,,,,,,,,,,,,,,,,,,
,,,,,,615ec7c4f3481a9eec10e0e0,62c53a807f81ed87f953c7d4,2022-07-06_09h32.12.416,Colour_Asymmetry_Pilot,2022.1.3,Win32,59.73002031,62c50e9c1127f2cd403a315f,0,71,71,138,1,twoone,,,,,,,,,,,,,,,,,,,,,,,,,,,,,,,,,,,,,,,,,,,,,,,,,,,,,,,,,,,,,,,,,,,,,,,,,,,,,,,,,,,,,,,,,,,,,,,,,,,,,,,,,,,,,,,,,,,,,,,,,,,,,,,,,,,,,,,,,,,,,,,,,,,,,,,,,,,,,
,,,,,,615ec7c4f3481a9eec10e0e0,62c53a807f81ed87f953c7d4,2022-07-06_09h32.12.416,Colour_Asymmetry_Pilot,2022.1.3,Win32,59.73002031,62c50e9c1127f2cd403a315f,0,72,72,142,1,fourtwo,,,,,,,,,,,,,,,,,,,,,,,,,,,,,,,,,,,,,,,,,,,,,,,,,,,,,,,,,,,,,,,,,,,,,,,,,,,,,,,,,,,,,,,,,,,,,,,,,,,,,,,,,,,,,,,,,,,,,,,,,,,,,,,,,,,,,,,,,,,,,,,,,,,,,,,,,,,,,
,,,,,,615ec7c4f3481a9eec10e0e0,62c53a807f81ed87f953c7d4,2022-07-06_09h32.12.416,Colour_Asymmetry_Pilot,2022.1.3,Win32,59.73002031,62c50e9c1127f2cd403a315f,0,73,73,59,1,twofour,,,,,,,,,,,,,,,,,,,,,,,,,,,,,,,,,,,,,,,,,,,,,,,,,,,,,,,,,,,,,,,,,,,,,,,,,,,,,,,,,,,,,,,,,,,,,,,,,,,,,,,,,,,,,,,,,,,,,,,,,,,,,,,,,,,,,,,,,,,,,,,,,,,,,,,,,,,,,
,,,,,,615ec7c4f3481a9eec10e0e0,62c53a807f81ed87f953c7d4,2022-07-06_09h32.12.416,Colour_Asymmetry_Pilot,2022.1.3,Win32,59.73002031,62c50e9c1127f2cd403a315f,0,74,74,39,1,fourthree,,,,,,,,,,,,,,,,,,,,,,,,,,,,,,,,,,,,,,,,,,,,,,,,,,,,,,,,,,,,,,,,,,,,,,,,,,,,,,,,,,,,,,,,,,,,,,,,,,,,,,,,,,,,,,,,,,,,,,,,,,,,,,,,,,,,,,,,,,,,,,,,,,,,,,,,,,,,,
,,,,,,615ec7c4f3481a9eec10e0e0,62c53a807f81ed87f953c7d4,2022-07-06_09h32.12.416,Colour_Asymmetry_Pilot,2022.1.3,Win32,59.73002031,62c50e9c1127f2cd403a315f,0,75,75,67,1,twofour,,,,,,,,,,,,,,,,,,,,,,,,,,,,,,,,,,,,,,,,,,,,,,,,,,,,,,,,,,,,,,,,,,,,,,,,,,,,,,,,,,,,,,,,,,,,,,,,,,,,,,,,,,,,,,,,,,,,,,,,,,,,,,,,,,,,,,,,,,,,,,,,,,,,,,,,,,,,,
,,,,,,615ec7c4f3481a9eec10e0e0,62c53a807f81ed87f953c7d4,2022-07-06_09h32.12.416,Colour_Asymmetry_Pilot,2022.1.3,Win32,59.73002031,62c50e9c1127f2cd403a315f,0,76,76,149,1,threefour,,,,,,,,,,,,,,,,,,,,,,,,,,,,,,,,,,,,,,,,,,,,,,,,,,,,,,,,,,,,,,,,,,,,,,,,,,,,,,,,,,,,,,,,,,,,,,,,,,,,,,,,,,,,,,,,,,,,,,,,,,,,,,,,,,,,,,,,,,,,,,,,,,,,,,,,,,,,,
,,,,,,615ec7c4f3481a9eec10e0e0,62c53a807f81ed87f953c7d4,2022-07-06_09h32.12.416,Colour_Asymmetry_Pilot,2022.1.3,Win32,59.73002031,62c50e9c1127f2cd403a315f,0,77,77,42,1,twoone,,,,,,,,,,,,,,,,,,,,,,,,,,,,,,,,,,,,,,,,,,,,,,,,,,,,,,,,,,,,,,,,,,,,,,,,,,,,,,,,,,,,,,,,,,,,,,,,,,,,,,,,,,,,,,,,,,,,,,,,,,,,,,,,,,,,,,,,,,,,,,,,,,,,,,,,,,,,,
,,,,,,615ec7c4f3481a9eec10e0e0,62c53a807f81ed87f953c7d4,2022-07-06_09h32.12.416,Colour_Asymmetry_Pilot,2022.1.3,Win32,59.73002031,62c50e9c1127f2cd403a315f,0,78,78,119,1,fourthree,,,,,,,,,,,,,,,,,,,,,,,,,,,,,,,,,,,,,,,,,,,,,,,,,,,,,,,,,,,,,,,,,,,,,,,,,,,,,,,,,,,,,,,,,,,,,,,,,,,,,,,,,,,,,,,,,,,,,,,,,,,,,,,,,,,,,,,,,,,,,,,,,,,,,,,,,,,,,
,,,,,,615ec7c4f3481a9eec10e0e0,62c53a807f81ed87f953c7d4,2022-07-06_09h32.12.416,Colour_Asymmetry_Pilot,2022.1.3,Win32,59.73002031,62c50e9c1127f2cd403a315f,0,79,79,131,1,twofour,,,,,,,,,,,,,,,,,,,,,,,,,,,,,,,,,,,,,,,,,,,,,,,,,,,,,,,,,,,,,,,,,,,,,,,,,,,,,,,,,,,,,,,,,,,,,,,,,,,,,,,,,,,,,,,,,,,,,,,,,,,,,,,,,,,,,,,,,,,,,,,,,,,,,,,,,,,,,
,,,,,,615ec7c4f3481a9eec10e0e0,62c53a807f81ed87f953c7d4,2022-07-06_09h32.12.416,Colour_Asymmetry_Pilot,2022.1.3,Win32,59.73002031,62c50e9c1127f2cd403a315f,0,80,80,89,1,onethree,,,,,,,,,,,,,,,,,,,,,,,,,,,,,,,,,,,,,,,,,,,,,,,,,,,,,,,,,,,,,,,,,,,,,,,,,,,,,,,,,,,,,,,,,,,,,,,,,,,,,,,,,,,,,,,,,,,,,,,,,,,,,,,,,,,,,,,,,,,,,,,,,,,,,,,,,,,,,
,,,,,,615ec7c4f3481a9eec10e0e0,62c53a807f81ed87f953c7d4,2022-07-06_09h32.12.416,Colour_Asymmetry_Pilot,2022.1.3,Win32,59.73002031,62c50e9c1127f2cd403a315f,0,81,81,8,1,onetwo,,,,,,,,,,,,,,,,,,,,,,,,,,,,,,,,,,,,,,,,,,,,,,,,,,,,,,,,,,,,,,,,,,,,,,,,,,,,,,,,,,,,,,,,,,,,,,,,,,,,,,,,,,,,,,,,,,,,,,,,,,,,,,,,,,,,,,,,,,,,,,,,,,,,,,,,,,,,,
,,,,,,615ec7c4f3481a9eec10e0e0,62c53a807f81ed87f953c7d4,2022-07-06_09h32.12.416,Colour_Asymmetry_Pilot,2022.1.3,Win32,59.73002031,62c50e9c1127f2cd403a315f,0,82,82,49,1,onethree,,,,,,,,,,,,,,,,,,,,,,,,,,,,,,,,,,,,,,,,,,,,,,,,,,,,,,,,,,,,,,,,,,,,,,,,,,,,,,,,,,,,,,,,,,,,,,,,,,,,,,,,,,,,,,,,,,,,,,,,,,,,,,,,,,,,,,,,,,,,,,,,,,,,,,,,,,,,,
,,,,,,615ec7c4f3481a9eec10e0e0,62c53a807f81ed87f953c7d4,2022-07-06_09h32.12.416,Colour_Asymmetry_Pilot,2022.1.3,Win32,59.73002031,62c50e9c1127f2cd403a315f,0,83,83,93,1,threefour,,,,,,,,,,,,,,,,,,,,,,,,,,,,,,,,,,,,,,,,,,,,,,,,,,,,,,,,,,,,,,,,,,,,,,,,,,,,,,,,,,,,,,,,,,,,,,,,,,,,,,,,,,,,,,,,,,,,,,,,,,,,,,,,,,,,,,,,,,,,,,,,,,,,,,,,,,,,,
,,,,,,615ec7c4f3481a9eec10e0e0,62c53a807f81ed87f953c7d4,2022-07-06_09h32.12.416,Colour_Asymmetry_Pilot,2022.1.3,Win32,59.73002031,62c50e9c1127f2cd403a315f,0,84,84,118,1,fourtwo,,,,,,,,,,,,,,,,,,,,,,,,,,,,,,,,,,,,,,,,,,,,,,,,,,,,,,,,,,,,,,,,,,,,,,,,,,,,,,,,,,,,,,,,,,,,,,,,,,,,,,,,,,,,,,,,,,,,,,,,,,,,,,,,,,,,,,,,,,,,,,,,,,,,,,,,,,,,,
,,,,,,615ec7c4f3481a9eec10e0e0,62c53a807f81ed87f953c7d4,2022-07-06_09h32.12.416,Colour_Asymmetry_Pilot,2022.1.3,Win32,59.73002031,62c50e9c1127f2cd403a315f,0,85,85,124,1,threeone,,,,,,,,,,,,,,,,,,,,,,,,,,,,,,,,,,,,,,,,,,,,,,,,,,,,,,,,,,,,,,,,,,,,,,,,,,,,,,,,,,,,,,,,,,,,,,,,,,,,,,,,,,,,,,,,,,,,,,,,,,,,,,,,,,,,,,,,,,,,,,,,,,,,,,,,,,,,,
,,,,,,615ec7c4f3481a9eec10e0e0,62c53a807f81ed87f953c7d4,2022-07-06_09h32.12.416,Colour_Asymmetry_Pilot,2022.1.3,Win32,59.73002031,62c50e9c1127f2cd403a315f,0,86,86,12,1,threeone,,,,,,,,,,,,,,,,,,,,,,,,,,,,,,,,,,,,,,,,,,,,,,,,,,,,,,,,,,,,,,,,,,,,,,,,,,,,,,,,,,,,,,,,,,,,,,,,,,,,,,,,,,,,,,,,,,,,,,,,,,,,,,,,,,,,,,,,,,,,,,,,,,,,,,,,,,,,,
,,,,,,615ec7c4f3481a9eec10e0e0,62c53a807f81ed87f953c7d4,2022-07-06_09h32.12.416,Colour_Asymmetry_Pilot,2022.1.3,Win32,59.73002031,62c50e9c1127f2cd403a315f,0,87,87,18,1,twoone,,,,,,,,,,,,,,,,,,,,,,,,,,,,,,,,,,,,,,,,,,,,,,,,,,,,,,,,,,,,,,,,,,,,,,,,,,,,,,,,,,,,,,,,,,,,,,,,,,,,,,,,,,,,,,,,,,,,,,,,,,,,,,,,,,,,,,,,,,,,,,,,,,,,,,,,,,,,,
,,,,,,615ec7c4f3481a9eec10e0e0,62c53a807f81ed87f953c7d4,2022-07-06_09h32.12.416,Colour_Asymmetry_Pilot,2022.1.3,Win32,59.73002031,62c50e9c1127f2cd403a315f,0,88,88,56,1,onetwo,,,,,,,,,,,,,,,,,,,,,,,,,,,,,,,,,,,,,,,,,,,,,,,,,,,,,,,,,,,,,,,,,,,,,,,,,,,,,,,,,,,,,,,,,,,,,,,,,,,,,,,,,,,,,,,,,,,,,,,,,,,,,,,,,,,,,,,,,,,,,,,,,,,,,,,,,,,,,
,,,,,,615ec7c4f3481a9eec10e0e0,62c53a807f81ed87f953c7d4,2022-07-06_09h32.12.416,Colour_Asymmetry_Pilot,2022.1.3,Win32,59.73002031,62c50e9c1127f2cd403a315f,0,89,89,135,1,fourthree,,,,,,,,,,,,,,,,,,,,,,,,,,,,,,,,,,,,,,,,,,,,,,,,,,,,,,,,,,,,,,,,,,,,,,,,,,,,,,,,,,,,,,,,,,,,,,,,,,,,,,,,,,,,,,,,,,,,,,,,,,,,,,,,,,,,,,,,,,,,,,,,,,,,,,,,,,,,,
,,,,,,615ec7c4f3481a9eec10e0e0,62c53a807f81ed87f953c7d4,2022-07-06_09h32.12.416,Colour_Asymmetry_Pilot,2022.1.3,Win32,59.73002031,62c50e9c1127f2cd403a315f,0,90,90,127,1,fourthree,,,,,,,,,,,,,,,,,,,,,,,,,,,,,,,,,,,,,,,,,,,,,,,,,,,,,,,,,,,,,,,,,,,,,,,,,,,,,,,,,,,,,,,,,,,,,,,,,,,,,,,,,,,,,,,,,,,,,,,,,,,,,,,,,,,,,,,,,,,,,,,,,,,,,,,,,,,,,
,,,,,,615ec7c4f3481a9eec10e0e0,62c53a807f81ed87f953c7d4,2022-07-06_09h32.12.416,Colour_Asymmetry_Pilot,2022.1.3,Win32,59.73002031,62c50e9c1127f2cd403a315f,0,91,91,144,1,onetwo,,,,,,,,,,,,,,,,,,,,,,,,,,,,,,,,,,,,,,,,,,,,,,,,,,,,,,,,,,,,,,,,,,,,,,,,,,,,,,,,,,,,,,,,,,,,,,,,,,,,,,,,,,,,,,,,,,,,,,,,,,,,,,,,,,,,,,,,,,,,,,,,,,,,,,,,,,,,,
,,,,,,615ec7c4f3481a9eec10e0e0,62c53a807f81ed87f953c7d4,2022-07-06_09h32.12.416,Colour_Asymmetry_Pilot,2022.1.3,Win32,59.73002031,62c50e9c1127f2cd403a315f,0,92,92,16,1,onetwo,,,,,,,,,,,,,,,,,,,,,,,,,,,,,,,,,,,,,,,,,,,,,,,,,,,,,,,,,,,,,,,,,,,,,,,,,,,,,,,,,,,,,,,,,,,,,,,,,,,,,,,,,,,,,,,,,,,,,,,,,,,,,,,,,,,,,,,,,,,,,,,,,,,,,,,,,,,,,
,,,,,,615ec7c4f3481a9eec10e0e0,62c53a807f81ed87f953c7d4,2022-07-06_09h32.12.416,Colour_Asymmetry_Pilot,2022.1.3,Win32,59.73002031,62c50e9c1127f2cd403a315f,0,93,93,123,1,twofour,,,,,,,,,,,,,,,,,,,,,,,,,,,,,,,,,,,,,,,,,,,,,,,,,,,,,,,,,,,,,,,,,,,,,,,,,,,,,,,,,,,,,,,,,,,,,,,,,,,,,,,,,,,,,,,,,,,,,,,,,,,,,,,,,,,,,,,,,,,,,,,,,,,,,,,,,,,,,
,,,,,,615ec7c4f3481a9eec10e0e0,62c53a807f81ed87f953c7d4,2022-07-06_09h32.12.416,Colour_Asymmetry_Pilot,2022.1.3,Win32,59.73002031,62c50e9c1127f2cd403a315f,0,94,94,48,1,onetwo,,,,,,,,,,,,,,,,,,,,,,,,,,,,,,,,,,,,,,,,,,,,,,,,,,,,,,,,,,,,,,,,,,,,,,,,,,,,,,,,,,,,,,,,,,,,,,,,,,,,,,,,,,,,,,,,,,,,,,,,,,,,,,,,,,,,,,,,,,,,,,,,,,,,,,,,,,,,,
,,,,,,615ec7c4f3481a9eec10e0e0,62c53a807f81ed87f953c7d4,2022-07-06_09h32.12.416,Colour_Asymmetry_Pilot,2022.1.3,Win32,59.73002031,62c50e9c1127f2cd403a315f,0,95,95,47,1,fourthree,,,,,,,,,,,,,,,,,,,,,,,,,,,,,,,,,,,,,,,,,,,,,,,,,,,,,,,,,,,,,,,,,,,,,,,,,,,,,,,,,,,,,,,,,,,,,,,,,,,,,,,,,,,,,,,,,,,,,,,,,,,,,,,,,,,,,,,,,,,,,,,,,,,,,,,,,,,,,
,,,,,,615ec7c4f3481a9eec10e0e0,62c53a807f81ed87f953c7d4,2022-07-06_09h32.12.416,Colour_Asymmetry_Pilot,2022.1.3,Win32,59.73002031,62c50e9c1127f2cd403a315f,0,96,96,129,1,onethree,,,,,,,,,,,,,,,,,,,,,,,,,,,,,,,,,,,,,,,,,,,,,,,,,,,,,,,,,,,,,,,,,,,,,,,,,,,,,,,,,,,,,,,,,,,,,,,,,,,,,,,,,,,,,,,,,,,,,,,,,,,,,,,,,,,,,,,,,,,,,,,,,,,,,,,,,,,,,
,,,,,,615ec7c4f3481a9eec10e0e0,62c53a807f81ed87f953c7d4,2022-07-06_09h32.12.416,Colour_Asymmetry_Pilot,2022.1.3,Win32,59.73002031,62c50e9c1127f2cd403a315f,0,97,97,74,1,twoone,,,,,,,,,,,,,,,,,,,,,,,,,,,,,,,,,,,,,,,,,,,,,,,,,,,,,,,,,,,,,,,,,,,,,,,,,,,,,,,,,,,,,,,,,,,,,,,,,,,,,,,,,,,,,,,,,,,,,,,,,,,,,,,,,,,,,,,,,,,,,,,,,,,,,,,,,,,,,
,,,,,,615ec7c4f3481a9eec10e0e0,62c53a807f81ed87f953c7d4,2022-07-06_09h32.12.416,Colour_Asymmetry_Pilot,2022.1.3,Win32,59.73002031,62c50e9c1127f2cd403a315f,0,98,98,35,1,twofour,,,,,,,,,,,,,,,,,,,,,,,,,,,,,,,,,,,,,,,,,,,,,,,,,,,,,,,,,,,,,,,,,,,,,,,,,,,,,,,,,,,,,,,,,,,,,,,,,,,,,,,,,,,,,,,,,,,,,,,,,,,,,,,,,,,,,,,,,,,,,,,,,,,,,,,,,,,,,
,,,,,,615ec7c4f3481a9eec10e0e0,62c53a807f81ed87f953c7d4,2022-07-06_09h32.12.416,Colour_Asymmetry_Pilot,2022.1.3,Win32,59.73002031,62c50e9c1127f2cd403a315f,0,99,99,75,1,twofour,,,,,,,,,,,,,,,,,,,,,,,,,,,,,,,,,,,,,,,,,,,,,,,,,,,,,,,,,,,,,,,,,,,,,,,,,,,,,,,,,,,,,,,,,,,,,,,,,,,,,,,,,,,,,,,,,,,,,,,,,,,,,,,,,,,,,,,,,,,,,,,,,,,,,,,,,,,,,
,,,,,,615ec7c4f3481a9eec10e0e0,62c53a807f81ed87f953c7d4,2022-07-06_09h32.12.416,Colour_Asymmetry_Pilot,2022.1.3,Win32,59.73002031,62c50e9c1127f2cd403a315f,0,100,100,128,1,onetwo,,,,,,,,,,,,,,,,,,,,,,,,,,,,,,,,,,,,,,,,,,,,,,,,,,,,,,,,,,,,,,,,,,,,,,,,,,,,,,,,,,,,,,,,,,,,,,,,,,,,,,,,,,,,,,,,,,,,,,,,,,,,,,,,,,,,,,,,,,,,,,,,,,,,,,,,,,,,,
,,,,,,615ec7c4f3481a9eec10e0e0,62c53a807f81ed87f953c7d4,2022-07-06_09h32.12.416,Colour_Asymmetry_Pilot,2022.1.3,Win32,59.73002031,62c50e9c1127f2cd403a315f,0,101,101,86,1,fourtwo,,,,,,,,,,,,,,,,,,,,,,,,,,,,,,,,,,,,,,,,,,,,,,,,,,,,,,,,,,,,,,,,,,,,,,,,,,,,,,,,,,,,,,,,,,,,,,,,,,,,,,,,,,,,,,,,,,,,,,,,,,,,,,,,,,,,,,,,,,,,,,,,,,,,,,,,,,,,,
,,,,,,615ec7c4f3481a9eec10e0e0,62c53a807f81ed87f953c7d4,2022-07-06_09h32.12.416,Colour_Asymmetry_Pilot,2022.1.3,Win32,59.73002031,62c50e9c1127f2cd403a315f,0,102,102,63,1,fourthree,,,,,,,,,,,,,,,,,,,,,,,,,,,,,,,,,,,,,,,,,,,,,,,,,,,,,,,,,,,,,,,,,,,,,,,,,,,,,,,,,,,,,,,,,,,,,,,,,,,,,,,,,,,,,,,,,,,,,,,,,,,,,,,,,,,,,,,,,,,,,,,,,,,,,,,,,,,,,
,,,,,,615ec7c4f3481a9eec10e0e0,62c53a807f81ed87f953c7d4,2022-07-06_09h32.12.416,Colour_Asymmetry_Pilot,2022.1.3,Win32,59.73002031,62c50e9c1127f2cd403a315f,0,103,103,115,1,twofour,,,,,,,,,,,,,,,,,,,,,,,,,,,,,,,,,,,,,,,,,,,,,,,,,,,,,,,,,,,,,,,,,,,,,,,,,,,,,,,,,,,,,,,,,,,,,,,,,,,,,,,,,,,,,,,,,,,,,,,,,,,,,,,,,,,,,,,,,,,,,,,,,,,,,,,,,,,,,
,,,,,,615ec7c4f3481a9eec10e0e0,62c53a807f81ed87f953c7d4,2022-07-06_09h32.12.416,Colour_Asymmetry_Pilot,2022.1.3,Win32,59.73002031,62c50e9c1127f2cd403a315f,0,104,104,94,1,fourtwo,,,,,,,,,,,,,,,,,,,,,,,,,,,,,,,,,,,,,,,,,,,,,,,,,,,,,,,,,,,,,,,,,,,,,,,,,,,,,,,,,,,,,,,,,,,,,,,,,,,,,,,,,,,,,,,,,,,,,,,,,,,,,,,,,,,,,,,,,,,,,,,,,,,,,,,,,,,,,
,,,,,,615ec7c4f3481a9eec10e0e0,62c53a807f81ed87f953c7d4,2022-07-06_09h32.12.416,Colour_Asymmetry_Pilot,2022.1.3,Win32,59.73002031,62c50e9c1127f2cd403a315f,0,105,105,11,1,twofour,,,,,,,,,,,,,,,,,,,,,,,,,,,,,,,,,,,,,,,,,,,,,,,,,,,,,,,,,,,,,,,,,,,,,,,,,,,,,,,,,,,,,,,,,,,,,,,,,,,,,,,,,,,,,,,,,,,,,,,,,,,,,,,,,,,,,,,,,,,,,,,,,,,,,,,,,,,,,
,,,,,,615ec7c4f3481a9eec10e0e0,62c53a807f81ed87f953c7d4,2022-07-06_09h32.12.416,Colour_Asymmetry_Pilot,2022.1.3,Win32,59.73002031,62c50e9c1127f2cd403a315f,0,106,106,150,1,fourtwo,,,,,,,,,,,,,,,,,,,,,,,,,,,,,,,,,,,,,,,,,,,,,,,,,,,,,,,,,,,,,,,,,,,,,,,,,,,,,,,,,,,,,,,,,,,,,,,,,,,,,,,,,,,,,,,,,,,,,,,,,,,,,,,,,,,,,,,,,,,,,,,,,,,,,,,,,,,,,
,,,,,,615ec7c4f3481a9eec10e0e0,62c53a807f81ed87f953c7d4,2022-07-06_09h32.12.416,Colour_Asymmetry_Pilot,2022.1.3,Win32,59.73002031,62c50e9c1127f2cd403a315f,0,107,107,143,1,fourthree,,,,,,,,,,,,,,,,,,,,,,,,,,,,,,,,,,,,,,,,,,,,,,,,,,,,,,,,,,,,,,,,,,,,,,,,,,,,,,,,,,,,,,,,,,,,,,,,,,,,,,,,,,,,,,,,,,,,,,,,,,,,,,,,,,,,,,,,,,,,,,,,,,,,,,,,,,,,,
,,,,,,615ec7c4f3481a9eec10e0e0,62c53a807f81ed87f953c7d4,2022-07-06_09h32.12.416,Colour_Asymmetry_Pilot,2022.1.3,Win32,59.73002031,62c50e9c1127f2cd403a315f,0,108,108,141,1,threefour,,,,,,,,,,,,,,,,,,,,,,,,,,,,,,,,,,,,,,,,,,,,,,,,,,,,,,,,,,,,,,,,,,,,,,,,,,,,,,,,,,,,,,,,,,,,,,,,,,,,,,,,,,,,,,,,,,,,,,,,,,,,,,,,,,,,,,,,,,,,,,,,,,,,,,,,,,,,,
,,,,,,615ec7c4f3481a9eec10e0e0,62c53a807f81ed87f953c7d4,2022-07-06_09h32.12.416,Colour_Asymmetry_Pilot,2022.1.3,Win32,59.73002031,62c50e9c1127f2cd403a315f,0,109,109,51,1,twofour,,,,,,,,,,,,,,,,,,,,,,,,,,,,,,,,,,,,,,,,,,,,,,,,,,,,,,,,,,,,,,,,,,,,,,,,,,,,,,,,,,,,,,,,,,,,,,,,,,,,,,,,,,,,,,,,,,,,,,,,,,,,,,,,,,,,,,,,,,,,,,,,,,,,,,,,,,,,,
,,,,,,615ec7c4f3481a9eec10e0e0,62c53a807f81ed87f953c7d4,2022-07-06_09h32.12.416,Colour_Asymmetry_Pilot,2022.1.3,Win32,59.73002031,62c50e9c1127f2cd403a315f,0,110,110,126,1,fourtwo,,,,,,,,,,,,,,,,,,,,,,,,,,,,,,,,,,,,,,,,,,,,,,,,,,,,,,,,,,,,,,,,,,,,,,,,,,,,,,,,,,,,,,,,,,,,,,,,,,,,,,,,,,,,,,,,,,,,,,,,,,,,,,,,,,,,,,,,,,,,,,,,,,,,,,,,,,,,,
,,,,,,615ec7c4f3481a9eec10e0e0,62c53a807f81ed87f953c7d4,2022-07-06_09h32.12.416,Colour_Asymmetry_Pilot,2022.1.3,Win32,59.73002031,62c50e9c1127f2cd403a315f,0,111,111,65,1,onethree,,,,,,,,,,,,,,,,,,,,,,,,,,,,,,,,,,,,,,,,,,,,,,,,,,,,,,,,,,,,,,,,,,,,,,,,,,,,,,,,,,,,,,,,,,,,,,,,,,,,,,,,,,,,,,,,,,,,,,,,,,,,,,,,,,,,,,,,,,,,,,,,,,,,,,,,,,,,,
,,,,,,615ec7c4f3481a9eec10e0e0,62c53a807f81ed87f953c7d4,2022-07-06_09h32.12.416,Colour_Asymmetry_Pilot,2022.1.3,Win32,59.73002031,62c50e9c1127f2cd403a315f,0,112,112,64,1,onetwo,,,,,,,,,,,,,,,,,,,,,,,,,,,,,,,,,,,,,,,,,,,,,,,,,,,,,,,,,,,,,,,,,,,,,,,,,,,,,,,,,,,,,,,,,,,,,,,,,,,,,,,,,,,,,,,,,,,,,,,,,,,,,,,,,,,,,,,,,,,,,,,,,,,,,,,,,,,,,
,,,,,,615ec7c4f3481a9eec10e0e0,62c53a807f81ed87f953c7d4,2022-07-06_09h32.12.416,Colour_Asymmetry_Pilot,2022.1.3,Win32,59.73002031,62c50e9c1127f2cd403a315f,0,113,113,88,1,onetwo,,,,,,,,,,,,,,,,,,,,,,,,,,,,,,,,,,,,,,,,,,,,,,,,,,,,,,,,,,,,,,,,,,,,,,,,,,,,,,,,,,,,,,,,,,,,,,,,,,,,,,,,,,,,,,,,,,,,,,,,,,,,,,,,,,,,,,,,,,,,,,,,,,,,,,,,,,,,,
,,,,,,615ec7c4f3481a9eec10e0e0,62c53a807f81ed87f953c7d4,2022-07-06_09h32.12.416,Colour_Asymmetry_Pilot,2022.1.3,Win32,59.73002031,62c50e9c1127f2cd403a315f,0,114,114,61,1,threefour,,,,,,,,,,,,,,,,,,,,,,,,,,,,,,,,,,,,,,,,,,,,,,,,,,,,,,,,,,,,,,,,,,,,,,,,,,,,,,,,,,,,,,,,,,,,,,,,,,,,,,,,,,,,,,,,,,,,,,,,,,,,,,,,,,,,,,,,,,,,,,,,,,,,,,,,,,,,,
,,,,,,615ec7c4f3481a9eec10e0e0,62c53a807f81ed87f953c7d4,2022-07-06_09h32.12.416,Colour_Asymmetry_Pilot,2022.1.3,Win32,59.73002031,62c50e9c1127f2cd403a315f,0,115,115,69,1,threefour,,,,,,,,,,,,,,,,,,,,,,,,,,,,,,,,,,,,,,,,,,,,,,,,,,,,,,,,,,,,,,,,,,,,,,,,,,,,,,,,,,,,,,,,,,,,,,,,,,,,,,,,,,,,,,,,,,,,,,,,,,,,,,,,,,,,,,,,,,,,,,,,,,,,,,,,,,,,,
,,,,,,615ec7c4f3481a9eec10e0e0,62c53a807f81ed87f953c7d4,2022-07-06_09h32.12.416,Colour_Asymmetry_Pilot,2022.1.3,Win32,59.73002031,62c50e9c1127f2cd403a315f,0,116,116,106,1,twoone,,,,,,,,,,,,,,,,,,,,,,,,,,,,,,,,,,,,,,,,,,,,,,,,,,,,,,,,,,,,,,,,,,,,,,,,,,,,,,,,,,,,,,,,,,,,,,,,,,,,,,,,,,,,,,,,,,,,,,,,,,,,,,,,,,,,,,,,,,,,,,,,,,,,,,,,,,,,,
,,,,,,615ec7c4f3481a9eec10e0e0,62c53a807f81ed87f953c7d4,2022-07-06_09h32.12.416,Colour_Asymmetry_Pilot,2022.1.3,Win32,59.73002031,62c50e9c1127f2cd403a315f,0,117,117,44,1,threeone,,,,,,,,,,,,,,,,,,,,,,,,,,,,,,,,,,,,,,,,,,,,,,,,,,,,,,,,,,,,,,,,,,,,,,,,,,,,,,,,,,,,,,,,,,,,,,,,,,,,,,,,,,,,,,,,,,,,,,,,,,,,,,,,,,,,,,,,,,,,,,,,,,,,,,,,,,,,,
,,,,,,615ec7c4f3481a9eec10e0e0,62c53a807f81ed87f953c7d4,2022-07-06_09h32.12.416,Colour_Asymmetry_Pilot,2022.1.3,Win32,59.73002031,62c50e9c1127f2cd403a315f,0,118,118,36,1,threeone,,,,,,,,,,,,,,,,,,,,,,,,,,,,,,,,,,,,,,,,,,,,,,,,,,,,,,,,,,,,,,,,,,,,,,,,,,,,,,,,,,,,,,,,,,,,,,,,,,,,,,,,,,,,,,,,,,,,,,,,,,,,,,,,,,,,,,,,,,,,,,,,,,,,,,,,,,,,,
,,,,,,615ec7c4f3481a9eec10e0e0,62c53a807f81ed87f953c7d4,2022-07-06_09h32.12.416,Colour_Asymmetry_Pilot,2022.1.3,Win32,59.73002031,62c50e9c1127f2cd403a315f,0,119,119,2,1,twoone,,,,,,,,,,,,,,,,,,,,,,,,,,,,,,,,,,,,,,,,,,,,,,,,,,,,,,,,,,,,,,,,,,,,,,,,,,,,,,,,,,,,,,,,,,,,,,,,,,,,,,,,,,,,,,,,,,,,,,,,,,,,,,,,,,,,,,,,,,,,,,,,,,,,,,,,,,,,,
,,,,,,615ec7c4f3481a9eec10e0e0,62c53a807f81ed87f953c7d4,2022-07-06_09h32.12.416,Colour_Asymmetry_Pilot,2022.1.3,Win32,59.73002031,62c50e9c1127f2cd403a315f,0,120,120,90,1,twoone,,,,,,,,,,,,,,,,,,,,,,,,,,,,,,,,,,,,,,,,,,,,,,,,,,,,,,,,,,,,,,,,,,,,,,,,,,,,,,,,,,,,,,,,,,,,,,,,,,,,,,,,,,,,,,,,,,,,,,,,,,,,,,,,,,,,,,,,,,,,,,,,,,,,,,,,,,,,,
,,,,,,615ec7c4f3481a9eec10e0e0,62c53a807f81ed87f953c7d4,2022-07-06_09h32.12.416,Colour_Asymmetry_Pilot,2022.1.3,Win32,59.73002031,62c50e9c1127f2cd403a315f,0,121,121,41,1,onethree,,,,,,,,,,,,,,,,,,,,,,,,,,,,,,,,,,,,,,,,,,,,,,,,,,,,,,,,,,,,,,,,,,,,,,,,,,,,,,,,,,,,,,,,,,,,,,,,,,,,,,,,,,,,,,,,,,,,,,,,,,,,,,,,,,,,,,,,,,,,,,,,,,,,,,,,,,,,,
,,,,,,615ec7c4f3481a9eec10e0e0,62c53a807f81ed87f953c7d4,2022-07-06_09h32.12.416,Colour_Asymmetry_Pilot,2022.1.3,Win32,59.73002031,62c50e9c1127f2cd403a315f,0,122,122,32,1,onetwo,,,,,,,,,,,,,,,,,,,,,,,,,,,,,,,,,,,,,,,,,,,,,,,,,,,,,,,,,,,,,,,,,,,,,,,,,,,,,,,,,,,,,,,,,,,,,,,,,,,,,,,,,,,,,,,,,,,,,,,,,,,,,,,,,,,,,,,,,,,,,,,,,,,,,,,,,,,,,
,,,,,,615ec7c4f3481a9eec10e0e0,62c53a807f81ed87f953c7d4,2022-07-06_09h32.12.416,Colour_Asymmetry_Pilot,2022.1.3,Win32,59.73002031,62c50e9c1127f2cd403a315f,0,123,123,13,1,threefour,,,,,,,,,,,,,,,,,,,,,,,,,,,,,,,,,,,,,,,,,,,,,,,,,,,,,,,,,,,,,,,,,,,,,,,,,,,,,,,,,,,,,,,,,,,,,,,,,,,,,,,,,,,,,,,,,,,,,,,,,,,,,,,,,,,,,,,,,,,,,,,,,,,,,,,,,,,,,
,,,,,,615ec7c4f3481a9eec10e0e0,62c53a807f81ed87f953c7d4,2022-07-06_09h32.12.416,Colour_Asymmetry_Pilot,2022.1.3,Win32,59.73002031,62c50e9c1127f2cd403a315f,0,124,124,113,1,onethree,,,,,,,,,,,,,,,,,,,,,,,,,,,,,,,,,,,,,,,,,,,,,,,,,,,,,,,,,,,,,,,,,,,,,,,,,,,,,,,,,,,,,,,,,,,,,,,,,,,,,,,,,,,,,,,,,,,,,,,,,,,,,,,,,,,,,,,,,,,,,,,,,,,,,,,,,,,,,
,,,,,,615ec7c4f3481a9eec10e0e0,62c53a807f81ed87f953c7d4,2022-07-06_09h32.12.416,Colour_Asymmetry_Pilot,2022.1.3,Win32,59.73002031,62c50e9c1127f2cd403a315f,0,125,125,107,1,twofour,,,,,,,,,,,,,,,,,,,,,,,,,,,,,,,,,,,,,,,,,,,,,,,,,,,,,,,,,,,,,,,,,,,,,,,,,,,,,,,,,,,,,,,,,,,,,,,,,,,,,,,,,,,,,,,,,,,,,,,,,,,,,,,,,,,,,,,,,,,,,,,,,,,,,,,,,,,,,
,,,,,,615ec7c4f3481a9eec10e0e0,62c53a807f81ed87f953c7d4,2022-07-06_09h32.12.416,Colour_Asymmetry_Pilot,2022.1.3,Win32,59.73002031,62c50e9c1127f2cd403a315f,0,126,126,160,1,onetwo,,,,,,,,,,,,,,,,,,,,,,,,,,,,,,,,,,,,,,,,,,,,,,,,,,,,,,,,,,,,,,,,,,,,,,,,,,,,,,,,,,,,,,,,,,,,,,,,,,,,,,,,,,,,,,,,,,,,,,,,,,,,,,,,,,,,,,,,,,,,,,,,,,,,,,,,,,,,,
,,,,,,615ec7c4f3481a9eec10e0e0,62c53a807f81ed87f953c7d4,2022-07-06_09h32.12.416,Colour_Asymmetry_Pilot,2022.1.3,Win32,59.73002031,62c50e9c1127f2cd403a315f,0,127,127,151,1,fourthree,,,,,,,,,,,,,,,,,,,,,,,,,,,,,,,,,,,,,,,,,,,,,,,,,,,,,,,,,,,,,,,,,,,,,,,,,,,,,,,,,,,,,,,,,,,,,,,,,,,,,,,,,,,,,,,,,,,,,,,,,,,,,,,,,,,,,,,,,,,,,,,,,,,,,,,,,,,,,
,,,,,,615ec7c4f3481a9eec10e0e0,62c53a807f81ed87f953c7d4,2022-07-06_09h32.12.416,Colour_Asymmetry_Pilot,2022.1.3,Win32,59.73002031,62c50e9c1127f2cd403a315f,0,128,128,1,1,onethree,,,,,,,,,,,,,,,,,,,,,,,,,,,,,,,,,,,,,,,,,,,,,,,,,,,,,,,,,,,,,,,,,,,,,,,,,,,,,,,,,,,,,,,,,,,,,,,,,,,,,,,,,,,,,,,,,,,,,,,,,,,,,,,,,,,,,,,,,,,,,,,,,,,,,,,,,,,,,
,,,,,,615ec7c4f3481a9eec10e0e0,62c53a807f81ed87f953c7d4,2022-07-06_09h32.12.416,Colour_Asymmetry_Pilot,2022.1.3,Win32,59.73002031,62c50e9c1127f2cd403a315f,0,129,129,95,1,fourthree,,,,,,,,,,,,,,,,,,,,,,,,,,,,,,,,,,,,,,,,,,,,,,,,,,,,,,,,,,,,,,,,,,,,,,,,,,,,,,,,,,,,,,,,,,,,,,,,,,,,,,,,,,,,,,,,,,,,,,,,,,,,,,,,,,,,,,,,,,,,,,,,,,,,,,,,,,,,,
,,,,,,615ec7c4f3481a9eec10e0e0,62c53a807f81ed87f953c7d4,2022-07-06_09h32.12.416,Colour_Asymmetry_Pilot,2022.1.3,Win32,59.73002031,62c50e9c1127f2cd403a315f,0,130,130,134,1,fourtwo,,,,,,,,,,,,,,,,,,,,,,,,,,,,,,,,,,,,,,,,,,,,,,,,,,,,,,,,,,,,,,,,,,,,,,,,,,,,,,,,,,,,,,,,,,,,,,,,,,,,,,,,,,,,,,,,,,,,,,,,,,,,,,,,,,,,,,,,,,,,,,,,,,,,,,,,,,,,,
,,,,,,615ec7c4f3481a9eec10e0e0,62c53a807f81ed87f953c7d4,2022-07-06_09h32.12.416,Colour_Asymmetry_Pilot,2022.1.3,Win32,59.73002031,62c50e9c1127f2cd403a315f,0,131,131,28,1,threeone,,,,,,,,,,,,,,,,,,,,,,,,,,,,,,,,,,,,,,,,,,,,,,,,,,,,,,,,,,,,,,,,,,,,,,,,,,,,,,,,,,,,,,,,,,,,,,,,,,,,,,,,,,,,,,,,,,,,,,,,,,,,,,,,,,,,,,,,,,,,,,,,,,,,,,,,,,,,,
,,,,,,615ec7c4f3481a9eec10e0e0,62c53a807f81ed87f953c7d4,2022-07-06_09h32.12.416,Colour_Asymmetry_Pilot,2022.1.3,Win32,59.73002031,62c50e9c1127f2cd403a315f,0,132,132,105,1,onethree,,,,,,,,,,,,,,,,,,,,,,,,,,,,,,,,,,,,,,,,,,,,,,,,,,,,,,,,,,,,,,,,,,,,,,,,,,,,,,,,,,,,,,,,,,,,,,,,,,,,,,,,,,,,,,,,,,,,,,,,,,,,,,,,,,,,,,,,,,,,,,,,,,,,,,,,,,,,,
,,,,,,615ec7c4f3481a9eec10e0e0,62c53a807f81ed87f953c7d4,2022-07-06_09h32.12.416,Colour_Asymmetry_Pilot,2022.1.3,Win32,59.73002031,62c50e9c1127f2cd403a315f,0,133,133,122,1,twoone,,,,,,,,,,,,,,,,,,,,,,,,,,,,,,,,,,,,,,,,,,,,,,,,,,,,,,,,,,,,,,,,,,,,,,,,,,,,,,,,,,,,,,,,,,,,,,,,,,,,,,,,,,,,,,,,,,,,,,,,,,,,,,,,,,,,,,,,,,,,,,,,,,,,,,,,,,,,,
,,,,,,615ec7c4f3481a9eec10e0e0,62c53a807f81ed87f953c7d4,2022-07-06_09h32.12.416,Colour_Asymmetry_Pilot,2022.1.3,Win32,59.73002031,62c50e9c1127f2cd403a315f,0,134,134,117,1,threefour,,,,,,,,,,,,,,,,,,,,,,,,,,,,,,,,,,,,,,,,,,,,,,,,,,,,,,,,,,,,,,,,,,,,,,,,,,,,,,,,,,,,,,,,,,,,,,,,,,,,,,,,,,,,,,,,,,,,,,,,,,,,,,,,,,,,,,,,,,,,,,,,,,,,,,,,,,,,,
,,,,,,615ec7c4f3481a9eec10e0e0,62c53a807f81ed87f953c7d4,2022-07-06_09h32.12.416,Colour_Asymmetry_Pilot,2022.1.3,Win32,59.73002031,62c50e9c1127f2cd403a315f,0,135,135,154,1,twoone,,,,,,,,,,,,,,,,,,,,,,,,,,,,,,,,,,,,,,,,,,,,,,,,,,,,,,,,,,,,,,,,,,,,,,,,,,,,,,,,,,,,,,,,,,,,,,,,,,,,,,,,,,,,,,,,,,,,,,,,,,,,,,,,,,,,,,,,,,,,,,,,,,,,,,,,,,,,,
,,,,,,615ec7c4f3481a9eec10e0e0,62c53a807f81ed87f953c7d4,2022-07-06_09h32.12.416,Colour_Asymmetry_Pilot,2022.1.3,Win32,59.73002031,62c50e9c1127f2cd403a315f,0,136,136,140,1,threeone,,,,,,,,,,,,,,,,,,,,,,,,,,,,,,,,,,,,,,,,,,,,,,,,,,,,,,,,,,,,,,,,,,,,,,,,,,,,,,,,,,,,,,,,,,,,,,,,,,,,,,,,,,,,,,,,,,,,,,,,,,,,,,,,,,,,,,,,,,,,,,,,,,,,,,,,,,,,,
,,,,,,615ec7c4f3481a9eec10e0e0,62c53a807f81ed87f953c7d4,2022-07-06_09h32.12.416,Colour_Asymmetry_Pilot,2022.1.3,Win32,59.73002031,62c50e9c1127f2cd403a315f,0,137,137,98,1,twoone,,,,,,,,,,,,,,,,,,,,,,,,,,,,,,,,,,,,,,,,,,,,,,,,,,,,,,,,,,,,,,,,,,,,,,,,,,,,,,,,,,,,,,,,,,,,,,,,,,,,,,,,,,,,,,,,,,,,,,,,,,,,,,,,,,,,,,,,,,,,,,,,,,,,,,,,,,,,,
,,,,,,615ec7c4f3481a9eec10e0e0,62c53a807f81ed87f953c7d4,2022-07-06_09h32.12.416,Colour_Asymmetry_Pilot,2022.1.3,Win32,59.73002031,62c50e9c1127f2cd403a315f,0,138,138,120,1,onetwo,,,,,,,,,,,,,,,,,,,,,,,,,,,,,,,,,,,,,,,,,,,,,,,,,,,,,,,,,,,,,,,,,,,,,,,,,,,,,,,,,,,,,,,,,,,,,,,,,,,,,,,,,,,,,,,,,,,,,,,,,,,,,,,,,,,,,,,,,,,,,,,,,,,,,,,,,,,,,
,,,,,,615ec7c4f3481a9eec10e0e0,62c53a807f81ed87f953c7d4,2022-07-06_09h32.12.416,Colour_Asymmetry_Pilot,2022.1.3,Win32,59.73002031,62c50e9c1127f2cd403a315f,0,139,139,19,1,twofour,,,,,,,,,,,,,,,,,,,,,,,,,,,,,,,,,,,,,,,,,,,,,,,,,,,,,,,,,,,,,,,,,,,,,,,,,,,,,,,,,,,,,,,,,,,,,,,,,,,,,,,,,,,,,,,,,,,,,,,,,,,,,,,,,,,,,,,,,,,,,,,,,,,,,,,,,,,,,
,,,,,,615ec7c4f3481a9eec10e0e0,62c53a807f81ed87f953c7d4,2022-07-06_09h32.12.416,Colour_Asymmetry_Pilot,2022.1.3,Win32,59.73002031,62c50e9c1127f2cd403a315f,0,140,140,14,1,fourtwo,,,,,,,,,,,,,,,,,,,,,,,,,,,,,,,,,,,,,,,,,,,,,,,,,,,,,,,,,,,,,,,,,,,,,,,,,,,,,,,,,,,,,,,,,,,,,,,,,,,,,,,,,,,,,,,,,,,,,,,,,,,,,,,,,,,,,,,,,,,,,,,,,,,,,,,,,,,,,
,,,,,,615ec7c4f3481a9eec10e0e0,62c53a807f81ed87f953c7d4,2022-07-06_09h32.12.416,Colour_Asymmetry_Pilot,2022.1.3,Win32,59.73002031,62c50e9c1127f2cd403a315f,0,141,141,82,1,twoone,,,,,,,,,,,,,,,,,,,,,,,,,,,,,,,,,,,,,,,,,,,,,,,,,,,,,,,,,,,,,,,,,,,,,,,,,,,,,,,,,,,,,,,,,,,,,,,,,,,,,,,,,,,,,,,,,,,,,,,,,,,,,,,,,,,,,,,,,,,,,,,,,,,,,,,,,,,,,
,,,,,,615ec7c4f3481a9eec10e0e0,62c53a807f81ed87f953c7d4,2022-07-06_09h32.12.416,Colour_Asymmetry_Pilot,2022.1.3,Win32,59.73002031,62c50e9c1127f2cd403a315f,0,142,142,114,1,twoone,,,,,,,,,,,,,,,,,,,,,,,,,,,,,,,,,,,,,,,,,,,,,,,,,,,,,,,,,,,,,,,,,,,,,,,,,,,,,,,,,,,,,,,,,,,,,,,,,,,,,,,,,,,,,,,,,,,,,,,,,,,,,,,,,,,,,,,,,,,,,,,,,,,,,,,,,,,,,
,,,,,,615ec7c4f3481a9eec10e0e0,62c53a807f81ed87f953c7d4,2022-07-06_09h32.12.416,Colour_Asymmetry_Pilot,2022.1.3,Win32,59.73002031,62c50e9c1127f2cd403a315f,0,143,143,34,1,twoone,,,,,,,,,,,,,,,,,,,,,,,,,,,,,,,,,,,,,,,,,,,,,,,,,,,,,,,,,,,,,,,,,,,,,,,,,,,,,,,,,,,,,,,,,,,,,,,,,,,,,,,,,,,,,,,,,,,,,,,,,,,,,,,,,,,,,,,,,,,,,,,,,,,,,,,,,,,,,
,,,,,,615ec7c4f3481a9eec10e0e0,62c53a807f81ed87f953c7d4,2022-07-06_09h32.12.416,Colour_Asymmetry_Pilot,2022.1.3,Win32,59.73002031,62c50e9c1127f2cd403a315f,0,144,144,52,1,threeone,,,,,,,,,,,,,,,,,,,,,,,,,,,,,,,,,,,,,,,,,,,,,,,,,,,,,,,,,,,,,,,,,,,,,,,,,,,,,,,,,,,,,,,,,,,,,,,,,,,,,,,,,,,,,,,,,,,,,,,,,,,,,,,,,,,,,,,,,,,,,,,,,,,,,,,,,,,,,
,,,,,,615ec7c4f3481a9eec10e0e0,62c53a807f81ed87f953c7d4,2022-07-06_09h32.12.416,Colour_Asymmetry_Pilot,2022.1.3,Win32,59.73002031,62c50e9c1127f2cd403a315f,0,145,145,46,1,fourtwo,,,,,,,,,,,,,,,,,,,,,,,,,,,,,,,,,,,,,,,,,,,,,,,,,,,,,,,,,,,,,,,,,,,,,,,,,,,,,,,,,,,,,,,,,,,,,,,,,,,,,,,,,,,,,,,,,,,,,,,,,,,,,,,,,,,,,,,,,,,,,,,,,,,,,,,,,,,,,
,,,,,,615ec7c4f3481a9eec10e0e0,62c53a807f81ed87f953c7d4,2022-07-06_09h32.12.416,Colour_Asymmetry_Pilot,2022.1.3,Win32,59.73002031,62c50e9c1127f2cd403a315f,0,146,146,22,1,fourtwo,,,,,,,,,,,,,,,,,,,,,,,,,,,,,,,,,,,,,,,,,,,,,,,,,,,,,,,,,,,,,,,,,,,,,,,,,,,,,,,,,,,,,,,,,,,,,,,,,,,,,,,,,,,,,,,,,,,,,,,,,,,,,,,,,,,,,,,,,,,,,,,,,,,,,,,,,,,,,
,,,,,,615ec7c4f3481a9eec10e0e0,62c53a807f81ed87f953c7d4,2022-07-06_09h32.12.416,Colour_Asymmetry_Pilot,2022.1.3,Win32,59.73002031,62c50e9c1127f2cd403a315f,0,147,147,45,1,threefour,,,,,,,,,,,,,,,,,,,,,,,,,,,,,,,,,,,,,,,,,,,,,,,,,,,,,,,,,,,,,,,,,,,,,,,,,,,,,,,,,,,,,,,,,,,,,,,,,,,,,,,,,,,,,,,,,,,,,,,,,,,,,,,,,,,,,,,,,,,,,,,,,,,,,,,,,,,,,
,,,,,,615ec7c4f3481a9eec10e0e0,62c53a807f81ed87f953c7d4,2022-07-06_09h32.12.416,Colour_Asymmetry_Pilot,2022.1.3,Win32,59.73002031,62c50e9c1127f2cd403a315f,0,148,148,7,1,fourthree,,,,,,,,,,,,,,,,,,,,,,,,,,,,,,,,,,,,,,,,,,,,,,,,,,,,,,,,,,,,,,,,,,,,,,,,,,,,,,,,,,,,,,,,,,,,,,,,,,,,,,,,,,,,,,,,,,,,,,,,,,,,,,,,,,,,,,,,,,,,,,,,,,,,,,,,,,,,,
,,,,,,615ec7c4f3481a9eec10e0e0,62c53a807f81ed87f953c7d4,2022-07-06_09h32.12.416,Colour_Asymmetry_Pilot,2022.1.3,Win32,59.73002031,62c50e9c1127f2cd403a315f,0,149,149,72,1,onetwo,,,,,,,,,,,,,,,,,,,,,,,,,,,,,,,,,,,,,,,,,,,,,,,,,,,,,,,,,,,,,,,,,,,,,,,,,,,,,,,,,,,,,,,,,,,,,,,,,,,,,,,,,,,,,,,,,,,,,,,,,,,,,,,,,,,,,,,,,,,,,,,,,,,,,,,,,,,,,
,,,,,,615ec7c4f3481a9eec10e0e0,62c53a807f81ed87f953c7d4,2022-07-06_09h32.12.416,Colour_Asymmetry_Pilot,2022.1.3,Win32,59.73002031,62c50e9c1127f2cd403a315f,0,150,150,148,1,threeone,,,,,,,,,,,,,,,,,,,,,,,,,,,,,,,,,,,,,,,,,,,,,,,,,,,,,,,,,,,,,,,,,,,,,,,,,,,,,,,,,,,,,,,,,,,,,,,,,,,,,,,,,,,,,,,,,,,,,,,,,,,,,,,,,,,,,,,,,,,,,,,,,,,,,,,,,,,,,
,,,,,,615ec7c4f3481a9eec10e0e0,62c53a807f81ed87f953c7d4,2022-07-06_09h32.12.416,Colour_Asymmetry_Pilot,2022.1.3,Win32,59.73002031,62c50e9c1127f2cd403a315f,0,151,151,66,1,twoone,,,,,,,,,,,,,,,,,,,,,,,,,,,,,,,,,,,,,,,,,,,,,,,,,,,,,,,,,,,,,,,,,,,,,,,,,,,,,,,,,,,,,,,,,,,,,,,,,,,,,,,,,,,,,,,,,,,,,,,,,,,,,,,,,,,,,,,,,,,,,,,,,,,,,,,,,,,,,
,,,,,,615ec7c4f3481a9eec10e0e0,62c53a807f81ed87f953c7d4,2022-07-06_09h32.12.416,Colour_Asymmetry_Pilot,2022.1.3,Win32,59.73002031,62c50e9c1127f2cd403a315f,0,152,152,139,1,twofour,,,,,,,,,,,,,,,,,,,,,,,,,,,,,,,,,,,,,,,,,,,,,,,,,,,,,,,,,,,,,,,,,,,,,,,,,,,,,,,,,,,,,,,,,,,,,,,,,,,,,,,,,,,,,,,,,,,,,,,,,,,,,,,,,,,,,,,,,,,,,,,,,,,,,,,,,,,,,
,,,,,,615ec7c4f3481a9eec10e0e0,62c53a807f81ed87f953c7d4,2022-07-06_09h32.12.416,Colour_Asymmetry_Pilot,2022.1.3,Win32,59.73002031,62c50e9c1127f2cd403a315f,0,153,153,55,1,fourthree,,,,,,,,,,,,,,,,,,,,,,,,,,,,,,,,,,,,,,,,,,,,,,,,,,,,,,,,,,,,,,,,,,,,,,,,,,,,,,,,,,,,,,,,,,,,,,,,,,,,,,,,,,,,,,,,,,,,,,,,,,,,,,,,,,,,,,,,,,,,,,,,,,,,,,,,,,,,,
,,,,,,615ec7c4f3481a9eec10e0e0,62c53a807f81ed87f953c7d4,2022-07-06_09h32.12.416,Colour_Asymmetry_Pilot,2022.1.3,Win32,59.73002031,62c50e9c1127f2cd403a315f,0,154,154,23,1,fourthree,,,,,,,,,,,,,,,,,,,,,,,,,,,,,,,,,,,,,,,,,,,,,,,,,,,,,,,,,,,,,,,,,,,,,,,,,,,,,,,,,,,,,,,,,,,,,,,,,,,,,,,,,,,,,,,,,,,,,,,,,,,,,,,,,,,,,,,,,,,,,,,,,,,,,,,,,,,,,
,,,,,,615ec7c4f3481a9eec10e0e0,62c53a807f81ed87f953c7d4,2022-07-06_09h32.12.416,Colour_Asymmetry_Pilot,2022.1.3,Win32,59.73002031,62c50e9c1127f2cd403a315f,0,155,155,5,1,threefour,,,,,,,,,,,,,,,,,,,,,,,,,,,,,,,,,,,,,,,,,,,,,,,,,,,,,,,,,,,,,,,,,,,,,,,,,,,,,,,,,,,,,,,,,,,,,,,,,,,,,,,,,,,,,,,,,,,,,,,,,,,,,,,,,,,,,,,,,,,,,,,,,,,,,,,,,,,,,
,,,,,,615ec7c4f3481a9eec10e0e0,62c53a807f81ed87f953c7d4,2022-07-06_09h32.12.416,Colour_Asymmetry_Pilot,2022.1.3,Win32,59.73002031,62c50e9c1127f2cd403a315f,0,156,156,17,1,onethree,,,,,,,,,,,,,,,,,,,,,,,,,,,,,,,,,,,,,,,,,,,,,,,,,,,,,,,,,,,,,,,,,,,,,,,,,,,,,,,,,,,,,,,,,,,,,,,,,,,,,,,,,,,,,,,,,,,,,,,,,,,,,,,,,,,,,,,,,,,,,,,,,,,,,,,,,,,,,
,,,,,,615ec7c4f3481a9eec10e0e0,62c53a807f81ed87f953c7d4,2022-07-06_09h32.12.416,Colour_Asymmetry_Pilot,2022.1.3,Win32,59.73002031,62c50e9c1127f2cd403a315f,0,157,157,50,1,twoone,,,,,,,,,,,,,,,,,,,,,,,,,,,,,,,,,,,,,,,,,,,,,,,,,,,,,,,,,,,,,,,,,,,,,,,,,,,,,,,,,,,,,,,,,,,,,,,,,,,,,,,,,,,,,,,,,,,,,,,,,,,,,,,,,,,,,,,,,,,,,,,,,,,,,,,,,,,,,
,,,,,,615ec7c4f3481a9eec10e0e0,62c53a807f81ed87f953c7d4,2022-07-06_09h32.12.416,Colour_Asymmetry_Pilot,2022.1.3,Win32,59.73002031,62c50e9c1127f2cd403a315f,0,158,158,27,1,twofour,,,,,,,,,,,,,,,,,,,,,,,,,,,,,,,,,,,,,,,,,,,,,,,,,,,,,,,,,,,,,,,,,,,,,,,,,,,,,,,,,,,,,,,,,,,,,,,,,,,,,,,,,,,,,,,,,,,,,,,,,,,,,,,,,,,,,,,,,,,,,,,,,,,,,,,,,,,,,
,,,,,,615ec7c4f3481a9eec10e0e0,62c53a807f81ed87f953c7d4,2022-07-06_09h32.12.416,Colour_Asymmetry_Pilot,2022.1.3,Win32,59.73002031,62c50e9c1127f2cd403a315f,0,159,159,10,1,twoone,,,,,,,,,,,,,,,,,,,,,,,,,,,,,,,,,,,,,,,,,,,,,,,,,,,,,,,,,,,,,,,,,,,,,,,,,,,,,,,,,,,,,,,,,,,,,,,,,,,,,,,,,,,,,,,,,,,,,,,,,,,,,,,,,,,,,,,,,,,,,,,,,,,,,,,,,,,,,
,,,,,,615ec7c4f3481a9eec10e0e0,62c53a807f81ed87f953c7d4,2022-07-06_09h32.12.416,Colour_Asymmetry_Pilot,2022.1.3,Win32,59.73002031,62c50e9c1127f2cd403a315f,0,160,160,0,1,onetwo,,,,,,,,,,,,,,,,,,,,,,,,,,,,,,,,,,,,,,,,,,,,,,,,,,,,,,,,,,,,,,,,,,,,,,,,,,,,,,,,,,,,,,,,,,,,,,,,,,,,,,,,,,,,,,,,,,,,,,,,,,,,,,,,,,,,,,,,,,,,,,,,,,,,,,,,,,,,,
,,,,,,615ec7c4f3481a9eec10e0e0,62c53a807f81ed87f953c7d4,2022-07-06_09h32.12.416,Colour_Asymmetry_Pilot,2022.1.3,Win32,59.73002031,62c50e9c1127f2cd403a315f,0,161,161,57,1,onethree,,,,,,,,,,,,,,,,,,,,,,,,,,,,,,,,,,,,,,,,,,,,,,,,,,,,,,,,,,,,,,,,,,,,,,,,,,,,,,,,,,,,,,,,,,,,,,,,,,,,,,,,,,,,,,,,,,,,,,,,,,,,,,,,,,,,,,,,,,,,,,,,,,,,,,,,,,,,,
,,,,,,615ec7c4f3481a9eec10e0e0,62c53a807f81ed87f953c7d4,2022-07-06_09h32.12.416,Colour_Asymmetry_Pilot,2022.1.3,Win32,59.73002031,62c50e9c1127f2cd403a315f,,,,,,,space,26.893,space,17.6833,space,60.3474,space,31.4303,space,12.9732,space,11.4244,"[-0.6,0.16860000000000008,0.44300000000000006]",onethree,"[-0.5452,-0.608,0.2470000000000001]",4,10.4276,40,100,1,0,0,response1disk_5,-9,5,1,0,0,rectangle_8,-9,5,1,0,0,4,-9,5,1,0,0,0,0,0,0,1,,,,,,,,,,,,,,,,,,,,,,,,,,,,,,,,,,,,,,,,,,,,,,,,,,,,,,,,,,,,,,,,,,,,,,,,,,,,,,,,,,,,,,,,,,,,,,,,,,,,,,,,,,,,,,,,
,,,,,,615ec7c4f3481a9eec10e0e0,62c53a807f81ed87f953c7d4,2022-07-06_09h32.12.416,Colour_Asymmetry_Pilot,2022.1.3,Win32,59.73002031,62c50e9c1127f2cd403a315f,,,,,,,,,,,,,,,,,,,"[-0.7412000000000001,-0.08239999999999992,-0.6864]",threefour,"[0.6547999999999998,-0.043199999999999905,-0.011800000000000033]",-1,13.0095,-50,-96,1,0,0,response5disk_5,-11,2,1,0,0,rectangle_8,-11,2,1,0,0,4,-11,2,1,0,0,1,0,1,0,1,,,,,,,,,,,,,,,,,,,,,,,,,,,,,,,,,,,,,,,,,,,,,,,,,,,,,,,,,,,,,,,,,,,,,,,,,,,,,,,,,,,,,,,,,,,,,,,,,,,,,,,,,,,,,,,,
,,,,,,615ec7c4f3481a9eec10e0e0,62c53a807f81ed87f953c7d4,2022-07-06_09h32.12.416,Colour_Asymmetry_Pilot,2022.1.3,Win32,59.73002031,62c50e9c1127f2cd403a315f,,,,,,,,,,,,,,,,,,,"[0.18419999999999992,-0.4276,-0.404]",threeone,"[0.3568,-0.20799999999999996,-0.9844]",-3,11.4907,-77,38,1,0,0,response7disk_5,-5,5,1,0,0,rectangle_8,-5,5,1,0,0,4,-5,5,1,0,0,2,0,2,0,1,,,,,,,,,,,,,,,,,,,,,,,,,,,,,,,,,,,,,,,,,,,,,,,,,,,,,,,,,,,,,,,,,,,,,,,,,,,,,,,,,,,,,,,,,,,,,,,,,,,,,,,,,,,,,,,,
,,,,,,615ec7c4f3481a9eec10e0e0,62c53a807f81ed87f953c7d4,2022-07-06_09h32.12.416,Colour_Asymmetry_Pilot,2022.1.3,Win32,59.73002031,62c50e9c1127f2cd403a315f,,,,,,,,,,,,,,,,,,,"[-0.9844,-0.9688,-0.9922]",onetwo,"[-0.09019999999999995,0.44300000000000006,0.5371999999999999]",-1,3.0846,-53,-95,1,0,0,response5disk_5,-9,4,1,0,0,rectangle_8,27,98,1,0,0,4,-9,4,1,0,0,3,0,3,0,1,response1disk_7,7,rectangle_4,,,,,,,,,,,,,,,,,,,,,,,,,,,,,,,,,,,,,,,,,,,,,,,,,,,,,,,,,,,,,,,,,,,,,,,,,,,,,,,,,,,,,,,,,,,,,,,,,,,,,,,,,,,,,
,,,,,,615ec7c4f3481a9eec10e0e0,62c53a807f81ed87f953c7d4,2022-07-06_09h32.12.416,Colour_Asymmetry_Pilot,2022.1.3,Win32,59.73002031,62c50e9c1127f2cd403a315f,,,,,,,,,,,,,,,,,,,"[-0.9766,-0.34920000000000007,0.2156]",onethree,"[0.34099999999999997,0.5841999999999998,-0.9844]",-1,1.8945,-34,-78,1,0,0,response5disk_5,-13,10,1,0,0,rectangle_8,34,97,1,0,0,4,-12,4,1,0,0,4,0,4,0,1,response1disk_7,7,rectangle_4,,,,,,,,,,,,,,,,,,,,,,,,,,,,,,,,,,,,,,,,,,,,,,,,,,,,,,,,,,,,,,,,,,,,,,,,,,,,,,,,,,,,,,,,,,,,,,,,,,,,,,,,,,,,,
,,,,,,615ec7c4f3481a9eec10e0e0,62c53a807f81ed87f953c7d4,2022-07-06_09h32.12.416,Colour_Asymmetry_Pilot,2022.1.3,Win32,59.73002031,62c50e9c1127f2cd403a315f,,,,,,,,,,,,,,,,,,,"[-0.8982,-0.37259999999999993,0.2784]",fourtwo,"[0.12939999999999996,-0.2864,0.3253999999999999]",2,12.2053,90,-36,1,0,0,response3disk_5,-2,3,1,0,0,rectangle_8,-2,3,1,0,0,4,-2,3,1,0,0,5,0,5,0,1,,,,,,,,,,,,,,,,,,,,,,,,,,,,,,,,,,,,,,,,,,,,,,,,,,,,,,,,,,,,,,,,,,,,,,,,,,,,,,,,,,,,,,,,,,,,,,,,,,,,,,,,,,,,,,,,
,,,,,,615ec7c4f3481a9eec10e0e0,62c53a807f81ed87f953c7d4,2022-07-06_09h32.12.416,Colour_Asymmetry_Pilot,2022.1.3,Win32,59.73002031,62c50e9c1127f2cd403a315f,,,,,,,,,,,,,,,,,,,"[-0.5452,-0.608,0.2470000000000001]",fourthree,"[-0.9766,-0.34920000000000007,0.2156]",4,5.0921,35,100,1,0,0,response1disk_5,-3,1,1,0,0,rectangle_8,-3,1,1,0,0,4,-3,1,1,0,0,6,0,6,0,1,,,,,,,,,,,,,,,,,,,,,,,,,,,,,,,,,,,,,,,,,,,,,,,,,,,,,,,,,,,,,,,,,,,,,,,,,,,,,,,,,,,,,,,,,,,,,,,,,,,,,,,,,,,,,,,,
,,,,,,615ec7c4f3481a9eec10e0e0,62c53a807f81ed87f953c7d4,2022-07-06_09h32.12.416,Colour_Asymmetry_Pilot,2022.1.3,Win32,59.73002031,62c50e9c1127f2cd403a315f,,,,,,,,,,,,,,,,,,,,twofour,,-1,6.5471,,,,,,,,,,,,,,,,,,,,,,,,,,,,,,,,space,4.1127,"[0.2784,-0.31000000000000005,-0.5452]","[-0.17659999999999998,0.3253999999999999,0.19999999999999996]",-44,-84,1,0,0,response5disk,0,2,1,0,0,rectangle,0,2,1,0,0,,3,0.0024,0,0,2,1,0,0,0,0,0,17,1,17,first,,,,,,,,,,,,,,,,,,,,,,,,,,,,,,,,,,,,,,,,,,,,,,,,,,,,,,,,,,,,,,,,,,,,,,,,
,,,,,,615ec7c4f3481a9eec10e0e0,62c53a807f81ed87f953c7d4,2022-07-06_09h32.12.416,Colour_Asymmetry_Pilot,2022.1.3,Win32,59.73002031,62c50e9c1127f2cd403a315f,,,,,,,,,,,,,,,,,,,,onethree,,-1,3.0163,,,,,,,,,,,,,,,,,,,,,,,,,,,,,,,,,,"[-0.9844,-0.9688,-0.9922]","[-0.01980000000000004,-0.5138,-0.38039999999999996]",-44,-84,1,0,0,response5disk,-1,3,1,0,0,rectangle,-1,3,1,0,0,,1,0.0028,0,-1,3,1,0,0,0,1,1,66,1,66,first,,,,,,,,,,,,,,,,,,,,,,,,,,,,,,,,,,,,,,,,,,,,,,,,,,,,,,,,,,,,,,,,,,,,,,,,
,,,,,,615ec7c4f3481a9eec10e0e0,62c53a807f81ed87f953c7d4,2022-07-06_09h32.12.416,Colour_Asymmetry_Pilot,2022.1.3,Win32,59.73002031,62c50e9c1127f2cd403a315f,,,,,,,,,,,,,,,,,,,,fourtwo,,3,4.4243,,,,,,,,,,,,,,,,,,,,,,,,,,,,,,,,,,"[-0.4982,-0.2942,-0.0354000000000001]","[0.12939999999999996,-0.2864,0.3253999999999999]",96,66,1,0,0,response1disk,8,-3,1,0,0,rectangle,8,-3,1,0,0,,3,0.0023,0,8,-3,1,0,0,0,2,2,140,1,59,second,,,,,,,,,,,,,,,,,,,,,,,,,,,,,,,,,,,,,,,,,,,,,,,,,,,,,,,,,,,,,,,,,,,,,,,,
,,,,,,615ec7c4f3481a9eec10e0e0,62c53a807f81ed87f953c7d4,2022-07-06_09h32.12.416,Colour_Asymmetry_Pilot,2022.1.3,Win32,59.73002031,62c50e9c1127f2cd403a315f,,,,,,,,,,,,,,,,,,,,fourtwo,,-1,10.966,,,,,,,,,,,,,,,,,,,,,,,,,,,,,,,,,,"[0.40379999999999994,0.09000000000000008,0.44300000000000006]","[-0.8198,-0.5138,-0.7492000000000001]",-56,-90,1,0,0,response5disk,0,5,1,0,0,rectangle,0,5,1,0,0,,2,0.0033,0,0,5,1,0,0,0,3,3,50,1,50,first,,,,,,,,,,,,,,,,,,,,,,,,,,,,,,,,,,,,,,,,,,,,,,,,,,,,,,,,,,,,,,,,,,,,,,,,
,,,,,,615ec7c4f3481a9eec10e0e0,62c53a807f81ed87f953c7d4,2022-07-06_09h32.12.416,Colour_Asymmetry_Pilot,2022.1.3,Win32,59.73002031,62c50e9c1127f2cd403a315f,,,,,,,,,,,,,,,,,,,,onethree,,-1,12.1207,,,,,,,,,,,,,,,,,,,,,,,,,,,,,,,,,,"[0.0351999999999999,0.41159999999999997,0.0038000000000000256]","[0.6547999999999998,-0.043199999999999905,-0.011800000000000033]",-49,-94,1,0,0,response5disk,-12,4,1,0,0,rectangle,-12,4,1,0,0,,3,0.0023,0,-12,4,1,0,0,0,4,4,12,1,12,first,,,,,,,,,,,,,,,,,,,,,,,,,,,,,,,,,,,,,,,,,,,,,,,,,,,,,,,,,,,,,,,,,,,,,,,,
,,,,,,615ec7c4f3481a9eec10e0e0,62c53a807f81ed87f953c7d4,2022-07-06_09h32.12.416,Colour_Asymmetry_Pilot,2022.1.3,Win32,59.73002031,62c50e9c1127f2cd403a315f,,,,,,,,,,,,,,,,,,,,onethree,,4,4.8911,,,,,,,,,,,,,,,,,,,,,,,,,,,,,,,,,,"[-0.17659999999999998,0.3253999999999999,0.19999999999999996]","[-0.9688,-0.38039999999999996,-0.41979999999999995]",59,98,1,0,0,response1disk,2,3,1,0,0,rectangle,2,3,1,0,0,,2,0.0025,0,2,3,1,0,0,0,5,5,96,1,15,second,,,,,,,,,,,,,,,,,,,,,,,,,,,,,,,,,,,,,,,,,,,,,,,,,,,,,,,,,,,,,,,,,,,,,,,,
,,,,,,615ec7c4f3481a9eec10e0e0,62c53a807f81ed87f953c7d4,2022-07-06_09h32.12.416,Colour_Asymmetry_Pilot,2022.1.3,Win32,59.73002031,62c50e9c1127f2cd403a315f,,,,,,,,,,,,,,,,,,,,twoone,,-4,1.998,,,,,,,,,,,,,,,,,,,,,,,,,,,,,,,,,,"[0.8274000000000001,-0.5844,-0.9452]","[-0.17659999999999998,0.3253999999999999,0.19999999999999996]",-42,76,1,0,0,response7disk,-7,3,1,0,0,rectangle,-7,3,1,0,0,,3,0.0025,0,-7,3,1,0,0,0,6,6,89,1,8,second,,,,,,,,,,,,,,,,,,,,,,,,,,,,,,,,,,,,,,,,,,,,,,,,,,,,,,,,,,,,,,,,,,,,,,,,
,,,,,,615ec7c4f3481a9eec10e0e0,62c53a807f81ed87f953c7d4,2022-07-06_09h32.12.416,Colour_Asymmetry_Pilot,2022.1.3,Win32,59.73002031,62c50e9c1127f2cd403a315f,,,,,,,,,,,,,,,,,,,,threeone,,3,8.4652,,,,,,,,,,,,,,,,,,,,,,,,,,,,,,,,,,"[-0.0040000000000000036,0.02739999999999987,-0.08239999999999992]","[0.2862,0.7802,0.3568]",97,49,1,0,0,response1disk,-18,1,1,0,0,rectangle,-18,1,1,0,0,,1,0.002,0,-18,1,1,0,0,0,7,7,1,1,1,first,,,,,,,,,,,,,,,,,,,,,,,,,,,,,,,,,,,,,,,,,,,,,,,,,,,,,,,,,,,,,,,,,,,,,,,,
,,,,,,615ec7c4f3481a9eec10e0e0,62c53a807f81ed87f953c7d4,2022-07-06_09h32.12.416,Colour_Asymmetry_Pilot,2022.1.3,Win32,59.73002031,62c50e9c1127f2cd403a315f,,,,,,,,,,,,,,,,,,,,onethree,,-4,3.7953,,,,,,,,,,,,,,,,,,,,,,,,,,,,,,,,,,"[-0.17659999999999998,-0.2864,-0.8354]","[-0.8118,-0.8198,-0.5452]",-59,81,1,0,0,response7disk,-4,-3,1,0,0,rectangle,-4,-3,1,0,0,,3,0.0019,0,-4,-3,1,0,0,0,8,8,151,1,70,second,,,,,,,,,,,,,,,,,,,,,,,,,,,,,,,,,,,,,,,,,,,,,,,,,,,,,,,,,,,,,,,,,,,,,,,,
,,,,,,615ec7c4f3481a9eec10e0e0,62c53a807f81ed87f953c7d4,2022-07-06_09h32.12.416,Colour_Asymmetry_Pilot,2022.1.3,Win32,59.73002031,62c50e9c1127f2cd403a315f,,,,,,,,,,,,,,,,,,,,threeone,,-3,2.834,,,,,,,,,,,,,,,,,,,,,,,,,,,,,,,,,,"[0.11359999999999992,0.6312,0.5213999999999999]","[0.3802000000000001,0.19199999999999995,-0.6394]",-100,49,1,0,0,response7disk,-8,-6,1,0,0,rectangle,-8,-6,1,0,0,,1,0.0028,0,-8,-6,1,0,0,0,9,9,110,1,29,second,,,,,,,,,,,,,,,,,,,,,,,,,,,,,,,,,,,,,,,,,,,,,,,,,,,,,,,,,,,,,,,,,,,,,,,,
,,,,,,615ec7c4f3481a9eec10e0e0,62c53a807f81ed87f953c7d4,2022-07-06_09h32.12.416,Colour_Asymmetry_Pilot,2022.1.3,Win32,59.73002031,62c50e9c1127f2cd403a315f,,,,,,,,,,,,,,,,,,,,threefour,,4,2.1014,,,,,,,,,,,,,,,,,,,,,,,,,,,,,,,,,,"[-0.24719999999999998,0.5213999999999999,-0.12959999999999994]","[-0.48240000000000005,0.3175999999999999,0.2156]",41,102,1,0,0,response1disk,-1,-7,1,0,0,rectangle,-1,-7,1,0,0,,3,0.0019,0,-1,-7,1,0,0,0,10,10,19,1,19,first,,,,,,,,,,,,,,,,,,,,,,,,,,,,,,,,,,,,,,,,,,,,,,,,,,,,,,,,,,,,,,,,,,,,,,,,
,,,,,,615ec7c4f3481a9eec10e0e0,62c53a807f81ed87f953c7d4,2022-07-06_09h32.12.416,Colour_Asymmetry_Pilot,2022.1.3,Win32,59.73002031,62c50e9c1127f2cd403a315f,,,,,,,,,,,,,,,,,,,,fourthree,,4,1.2921,,,,,,,,,,,,,,,,,,,,,,,,,,,,,,,,,,"[0.9686000000000001,0.3802000000000001,0.19999999999999996]","[-0.01980000000000004,-0.5138,-0.38039999999999996]",31,85,1,0,0,response1disk,4,0,1,0,0,rectangle,4,0,1,0,0,,3,0.0003,0,4,0,1,0,0,0,11,11,67,1,67,first,,,,,,,,,,,,,,,,,,,,,,,,,,,,,,,,,,,,,,,,,,,,,,,,,,,,,,,,,,,,,,,,,,,,,,,,
,,,,,,615ec7c4f3481a9eec10e0e0,62c53a807f81ed87f953c7d4,2022-07-06_09h32.12.416,Colour_Asymmetry_Pilot,2022.1.3,Win32,59.73002031,62c50e9c1127f2cd403a315f,,,,,,,,,,,,,,,,,,,,twofour,,-4,1.1249,,,,,,,,,,,,,,,,,,,,,,,,,,,,,,,,,,"[-0.9138,-0.5296000000000001,-0.5529999999999999]","[0.3568,-0.20799999999999996,-0.9844]",-58,92,1,0,0,response7disk,-3,3,1,0,0,rectangle,-3,3,1,0,0,,1,0.0012,0,-3,3,1,0,0,0,12,12,106,1,25,second,,,,,,,,,,,,,,,,,,,,,,,,,,,,,,,,,,,,,,,,,,,,,,,,,,,,,,,,,,,,,,,,,,,,,,,,
,,,,,,615ec7c4f3481a9eec10e0e0,62c53a807f81ed87f953c7d4,2022-07-06_09h32.12.416,Colour_Asymmetry_Pilot,2022.1.3,Win32,59.73002031,62c50e9c1127f2cd403a315f,,,,,,,,,,,,,,,,,,,,fourthree,,-4,5.3151,,,,,,,,,,,,,,,,,,,,,,,,,,,,,,,,,,"[0.3802000000000001,0.19199999999999995,-0.6394]","[0.11359999999999992,0.6312,0.5213999999999999]",-40,89,1,0,0,response7disk,-4,-1,1,0,0,rectangle,-4,-1,1,0,0,,3,0.0021,0,-4,-1,1,0,0,0,13,13,29,1,29,first,,,,,,,,,,,,,,,,,,,,,,,,,,,,,,,,,,,,,,,,,,,,,,,,,,,,,,,,,,,,,,,,,,,,,,,,
,,,,,,615ec7c4f3481a9eec10e0e0,62c53a807f81ed87f953c7d4,2022-07-06_09h32.12.416,Colour_Asymmetry_Pilot,2022.1.3,Win32,59.73002031,62c50e9c1127f2cd403a315f,,,,,,,,,,,,,,,,,,,,threefour,,-1,4.6476,,,,,,,,,,,,,,,,,,,,,,,,,,,,,,,,,,"[-0.10599999999999998,-0.15300000000000002,0.15280000000000005]","[-0.2942,-0.7648,-0.7492000000000001]",-40,-106,1,0,0,response5disk,-8,5,1,0,0,rectangle,-8,5,1,0,0,,3,0.0007,0,-8,5,1,0,0,0,14,14,34,1,34,first,,,,,,,,,,,,,,,,,,,,,,,,,,,,,,,,,,,,,,,,,,,,,,,,,,,,,,,,,,,,,,,,,,,,,,,,
,,,,,,615ec7c4f3481a9eec10e0e0,62c53a807f81ed87f953c7d4,2022-07-06_09h32.12.416,Colour_Asymmetry_Pilot,2022.1.3,Win32,59.73002031,62c50e9c1127f2cd403a315f,,,,,,,,,,,,,,,,,,,,onethree,,-4,1.8612,,,,,,,,,,,,,,,,,,,,,,,,,,,,,,,,,,"[0.40379999999999994,0.09000000000000008,0.44300000000000006]","[-0.4276,0.0038000000000000256,-0.3256]",-50,75,1,0,0,response7disk,-1,-1,1,0,0,rectangle,-1,-1,1,0,0,,3,0.0005,0,-1,-1,1,0,0,0,15,15,5,1,5,first,,,,,,,,,,,,,,,,,,,,,,,,,,,,,,,,,,,,,,,,,,,,,,,,,,,,,,,,,,,,,,,,,,,,,,,,
,,,,,,615ec7c4f3481a9eec10e0e0,62c53a807f81ed87f953c7d4,2022-07-06_09h32.12.416,Colour_Asymmetry_Pilot,2022.1.3,Win32,59.73002031,62c50e9c1127f2cd403a315f,,,,,,,,,,,,,,,,,,,,onetwo,,4,1.057,,,,,,,,,,,,,,,,,,,,,,,,,,,,,,,,,,"[0.6625999999999999,0.4980000000000002,-0.357]","[0.9763999999999999,0.30979999999999985,-0.6786]",22,47,1,0,0,response1disk,-12,-1,1,0,0,rectangle,-12,-1,1,0,0,,2,0.0015,0,-12,-1,1,0,0,0,16,16,52,1,52,first,,,,,,,,,,,,,,,,,,,,,,,,,,,,,,,,,,,,,,,,,,,,,,,,,,,,,,,,,,,,,,,,,,,,,,,,
,,,,,,615ec7c4f3481a9eec10e0e0,62c53a807f81ed87f953c7d4,2022-07-06_09h32.12.416,Colour_Asymmetry_Pilot,2022.1.3,Win32,59.73002031,62c50e9c1127f2cd403a315f,,,,,,,,,,,,,,,,,,,,fourtwo,,-3,5.9255,,,,,,,,,,,,,,,,,,,,,,,,,,,,,,,,,,"[-0.38039999999999996,-0.4276,-0.1452]","[-0.09019999999999995,0.44300000000000006,0.5371999999999999]",-65,36,1,0,0,response7disk,-10,5,1,0,0,rectangle,-10,5,1,0,0,,2,0.0005,0,-10,5,1,0,0,0,17,17,117,1,36,second,,,,,,,,,,,,,,,,,,,,,,,,,,,,,,,,,,,,,,,,,,,,,,,,,,,,,,,,,,,,,,,,,,,,,,,,
