trials.thisRepN,trials.thisTrialN,trials.thisN,trials.thisIndex,trials.ran,Colourcodes,participant,session,date,expName,psychopyVersion,OS,frameRate,study_id,trials_4.thisRepN,trials_4.thisTrialN,trials_4.thisN,trials_4.thisIndex,trials_4.ran,StimulusPos,key_resp.keys,key_resp.rt,key_resp_2.keys,key_resp_2.rt,key_resp_15.keys,key_resp_15.rt,key_resp_17.keys,key_resp_17.rt,key_resp_9.keys,key_resp_9.rt,key_resp_10.keys,key_resp_10.rt,Circle1_col,Ecc,Circle2_col,similarity,response_time,mouse_5.x,mouse_5.y,mouse_5.leftButton,mouse_5.midButton,mouse_5.rightButton,mouse_5.clicked_name,mouse_10.x,mouse_10.y,mouse_10.leftButton,mouse_10.midButton,mouse_10.rightButton,mouse_10.clicked_name,mouse_7.x,mouse_7.y,mouse_7.leftButton,mouse_7.midButton,mouse_7.rightButton,catchnumberprac,mouse_6.x,mouse_6.y,mouse_6.leftButton,mouse_6.midButton,mouse_6.rightButton,duringprac.thisRepN,duringprac.thisTrialN,duringprac.thisN,duringprac.thisIndex,duringprac.ran,mouse_7.clicked_name,catchprac,mouse_6.clicked_name,key_resp_22.keys,key_resp_22.rt,Circle1_colour,Circle2_colour,mouse.x,mouse.y,mouse.leftButton,mouse.midButton,mouse.rightButton,mouse.clicked_name,mouse_2.x,mouse_2.y,mouse_2.leftButton,mouse_2.midButton,mouse_2.rightButton,mouse_2.clicked_name,mouse_3.x,mouse_3.y,mouse_3.leftButton,mouse_3.midButton,mouse_3.rightButton,catchresponse,catchnumber,response_time_catch,Catch,mouse_11.x,mouse_11.y,mouse_11.leftButton,mouse_11.midButton,mouse_11.rightButton,trials_2.thisRepN,trials_2.thisTrialN,trials_2.thisN,trials_2.thisIndex,trials_2.ran,Colourpair,Temporder,mouse_3.clicked_name,mouse_11.clicked_name,trials_3.thisRepN,trials_3.thisTrialN,trials_3.thisN,trials_3.thisIndex,trials_3.ran,key_resp_instr_Ishi.keys,key_resp_instr_Ishi.rt,Ishi_trial_keyresp.keys,Ishi_textbox.text,Ishi_mouse.x,Ishi_mouse.y,Ishi_mouse.leftButton,Ishi_mouse.midButton,Ishi_mouse.rightButton,Ishi_mouse.clicked_name,Ishi_loop.thisRepN,Ishi_loop.thisTrialN,Ishi_loop.thisN,Ishi_loop.thisIndex,Ishi_loop.ran,imageaddress,textbox.text,mouse_4.x,mouse_4.y,mouse_4.leftButton,mouse_4.midButton,mouse_4.rightButton,mouse_4.clicked_name,textbox_2.text,mouse_8.x,mouse_8.y,mouse_8.leftButton,mouse_8.midButton,mouse_8.rightButton,mouse_8.clicked_name,textbox_3.text,mouse_9.x,mouse_9.y,mouse_9.leftButton,mouse_9.midButton,mouse_9.rightButton,mouse_9.clicked_name,textbox_4.text,mouse_12.x,mouse_12.y,mouse_12.leftButton,mouse_12.midButton,mouse_12.rightButton,mouse_12.clicked_name,textbox_5.text,mouse_13.x,mouse_13.y,mouse_13.leftButton,mouse_13.midButton,mouse_13.rightButton,mouse_13.clicked_name,textbox_6.text,mouse_14.x,mouse_14.y,mouse_14.leftButton,mouse_14.midButton,mouse_14.rightButton,textbox_7.text,mouse_15.x,mouse_15.y,mouse_15.leftButton,mouse_15.midButton,mouse_15.rightButton,mouse_15.clicked_name
0,0,0,69,1,,6128be4387de5137b8ce6aa7,62c539c0b7d37a19065d965b,2022-07-06_09h29.45.540,Colour_Asymmetry_Pilot,2022.1.3,Win32,60.0024001,62c50e9c1127f2cd403a315f,,,,,,,,,,,,,,,,,,,,,,,,,,,,,,,,,,,,,,,,,,,,,,,,,,,,,,,,,,,,,,,,,,,,,,,,,,,,,,,,,,,,,,,,,,,,,,,,,,,,,,,,,,,,,,,,,,,,,,,,,,,,,,,,,,,,,,,,,,,,,,,,,,,,,,,,,,,,,,,,,,
0,1,1,28,1,,6128be4387de5137b8ce6aa7,62c539c0b7d37a19065d965b,2022-07-06_09h29.45.540,Colour_Asymmetry_Pilot,2022.1.3,Win32,60.0024001,62c50e9c1127f2cd403a315f,,,,,,,,,,,,,,,,,,,,,,,,,,,,,,,,,,,,,,,,,,,,,,,,,,,,,,,,,,,,,,,,,,,,,,,,,,,,,,,,,,,,,,,,,,,,,,,,,,,,,,,,,,,,,,,,,,,,,,,,,,,,,,,,,,,,,,,,,,,,,,,,,,,,,,,,,,,,,,,,,,
0,2,2,92,1,,6128be4387de5137b8ce6aa7,62c539c0b7d37a19065d965b,2022-07-06_09h29.45.540,Colour_Asymmetry_Pilot,2022.1.3,Win32,60.0024001,62c50e9c1127f2cd403a315f,,,,,,,,,,,,,,,,,,,,,,,,,,,,,,,,,,,,,,,,,,,,,,,,,,,,,,,,,,,,,,,,,,,,,,,,,,,,,,,,,,,,,,,,,,,,,,,,,,,,,,,,,,,,,,,,,,,,,,,,,,,,,,,,,,,,,,,,,,,,,,,,,,,,,,,,,,,,,,,,,,
0,3,3,14,1,,6128be4387de5137b8ce6aa7,62c539c0b7d37a19065d965b,2022-07-06_09h29.45.540,Colour_Asymmetry_Pilot,2022.1.3,Win32,60.0024001,62c50e9c1127f2cd403a315f,,,,,,,,,,,,,,,,,,,,,,,,,,,,,,,,,,,,,,,,,,,,,,,,,,,,,,,,,,,,,,,,,,,,,,,,,,,,,,,,,,,,,,,,,,,,,,,,,,,,,,,,,,,,,,,,,,,,,,,,,,,,,,,,,,,,,,,,,,,,,,,,,,,,,,,,,,,,,,,,,,
0,4,4,16,1,,6128be4387de5137b8ce6aa7,62c539c0b7d37a19065d965b,2022-07-06_09h29.45.540,Colour_Asymmetry_Pilot,2022.1.3,Win32,60.0024001,62c50e9c1127f2cd403a315f,,,,,,,,,,,,,,,,,,,,,,,,,,,,,,,,,,,,,,,,,,,,,,,,,,,,,,,,,,,,,,,,,,,,,,,,,,,,,,,,,,,,,,,,,,,,,,,,,,,,,,,,,,,,,,,,,,,,,,,,,,,,,,,,,,,,,,,,,,,,,,,,,,,,,,,,,,,,,,,,,,
0,5,5,33,1,,6128be4387de5137b8ce6aa7,62c539c0b7d37a19065d965b,2022-07-06_09h29.45.540,Colour_Asymmetry_Pilot,2022.1.3,Win32,60.0024001,62c50e9c1127f2cd403a315f,,,,,,,,,,,,,,,,,,,,,,,,,,,,,,,,,,,,,,,,,,,,,,,,,,,,,,,,,,,,,,,,,,,,,,,,,,,,,,,,,,,,,,,,,,,,,,,,,,,,,,,,,,,,,,,,,,,,,,,,,,,,,,,,,,,,,,,,,,,,,,,,,,,,,,,,,,,,,,,,,,
0,6,6,56,1,,6128be4387de5137b8ce6aa7,62c539c0b7d37a19065d965b,2022-07-06_09h29.45.540,Colour_Asymmetry_Pilot,2022.1.3,Win32,60.0024001,62c50e9c1127f2cd403a315f,,,,,,,,,,,,,,,,,,,,,,,,,,,,,,,,,,,,,,,,,,,,,,,,,,,,,,,,,,,,,,,,,,,,,,,,,,,,,,,,,,,,,,,,,,,,,,,,,,,,,,,,,,,,,,,,,,,,,,,,,,,,,,,,,,,,,,,,,,,,,,,,,,,,,,,,,,,,,,,,,,
0,7,7,67,1,,6128be4387de5137b8ce6aa7,62c539c0b7d37a19065d965b,2022-07-06_09h29.45.540,Colour_Asymmetry_Pilot,2022.1.3,Win32,60.0024001,62c50e9c1127f2cd403a315f,,,,,,,,,,,,,,,,,,,,,,,,,,,,,,,,,,,,,,,,,,,,,,,,,,,,,,,,,,,,,,,,,,,,,,,,,,,,,,,,,,,,,,,,,,,,,,,,,,,,,,,,,,,,,,,,,,,,,,,,,,,,,,,,,,,,,,,,,,,,,,,,,,,,,,,,,,,,,,,,,,
0,8,8,59,1,,6128be4387de5137b8ce6aa7,62c539c0b7d37a19065d965b,2022-07-06_09h29.45.540,Colour_Asymmetry_Pilot,2022.1.3,Win32,60.0024001,62c50e9c1127f2cd403a315f,,,,,,,,,,,,,,,,,,,,,,,,,,,,,,,,,,,,,,,,,,,,,,,,,,,,,,,,,,,,,,,,,,,,,,,,,,,,,,,,,,,,,,,,,,,,,,,,,,,,,,,,,,,,,,,,,,,,,,,,,,,,,,,,,,,,,,,,,,,,,,,,,,,,,,,,,,,,,,,,,,
0,9,9,1,1,,6128be4387de5137b8ce6aa7,62c539c0b7d37a19065d965b,2022-07-06_09h29.45.540,Colour_Asymmetry_Pilot,2022.1.3,Win32,60.0024001,62c50e9c1127f2cd403a315f,,,,,,,,,,,,,,,,,,,,,,,,,,,,,,,,,,,,,,,,,,,,,,,,,,,,,,,,,,,,,,,,,,,,,,,,,,,,,,,,,,,,,,,,,,,,,,,,,,,,,,,,,,,,,,,,,,,,,,,,,,,,,,,,,,,,,,,,,,,,,,,,,,,,,,,,,,,,,,,,,,
0,10,10,54,1,,6128be4387de5137b8ce6aa7,62c539c0b7d37a19065d965b,2022-07-06_09h29.45.540,Colour_Asymmetry_Pilot,2022.1.3,Win32,60.0024001,62c50e9c1127f2cd403a315f,,,,,,,,,,,,,,,,,,,,,,,,,,,,,,,,,,,,,,,,,,,,,,,,,,,,,,,,,,,,,,,,,,,,,,,,,,,,,,,,,,,,,,,,,,,,,,,,,,,,,,,,,,,,,,,,,,,,,,,,,,,,,,,,,,,,,,,,,,,,,,,,,,,,,,,,,,,,,,,,,,
0,11,11,6,1,,6128be4387de5137b8ce6aa7,62c539c0b7d37a19065d965b,2022-07-06_09h29.45.540,Colour_Asymmetry_Pilot,2022.1.3,Win32,60.0024001,62c50e9c1127f2cd403a315f,,,,,,,,,,,,,,,,,,,,,,,,,,,,,,,,,,,,,,,,,,,,,,,,,,,,,,,,,,,,,,,,,,,,,,,,,,,,,,,,,,,,,,,,,,,,,,,,,,,,,,,,,,,,,,,,,,,,,,,,,,,,,,,,,,,,,,,,,,,,,,,,,,,,,,,,,,,,,,,,,,
0,12,12,91,1,,6128be4387de5137b8ce6aa7,62c539c0b7d37a19065d965b,2022-07-06_09h29.45.540,Colour_Asymmetry_Pilot,2022.1.3,Win32,60.0024001,62c50e9c1127f2cd403a315f,,,,,,,,,,,,,,,,,,,,,,,,,,,,,,,,,,,,,,,,,,,,,,,,,,,,,,,,,,,,,,,,,,,,,,,,,,,,,,,,,,,,,,,,,,,,,,,,,,,,,,,,,,,,,,,,,,,,,,,,,,,,,,,,,,,,,,,,,,,,,,,,,,,,,,,,,,,,,,,,,,
0,13,13,76,1,,6128be4387de5137b8ce6aa7,62c539c0b7d37a19065d965b,2022-07-06_09h29.45.540,Colour_Asymmetry_Pilot,2022.1.3,Win32,60.0024001,62c50e9c1127f2cd403a315f,,,,,,,,,,,,,,,,,,,,,,,,,,,,,,,,,,,,,,,,,,,,,,,,,,,,,,,,,,,,,,,,,,,,,,,,,,,,,,,,,,,,,,,,,,,,,,,,,,,,,,,,,,,,,,,,,,,,,,,,,,,,,,,,,,,,,,,,,,,,,,,,,,,,,,,,,,,,,,,,,,
0,14,14,62,1,,6128be4387de5137b8ce6aa7,62c539c0b7d37a19065d965b,2022-07-06_09h29.45.540,Colour_Asymmetry_Pilot,2022.1.3,Win32,60.0024001,62c50e9c1127f2cd403a315f,,,,,,,,,,,,,,,,,,,,,,,,,,,,,,,,,,,,,,,,,,,,,,,,,,,,,,,,,,,,,,,,,,,,,,,,,,,,,,,,,,,,,,,,,,,,,,,,,,,,,,,,,,,,,,,,,,,,,,,,,,,,,,,,,,,,,,,,,,,,,,,,,,,,,,,,,,,,,,,,,,
0,15,15,25,1,,6128be4387de5137b8ce6aa7,62c539c0b7d37a19065d965b,2022-07-06_09h29.45.540,Colour_Asymmetry_Pilot,2022.1.3,Win32,60.0024001,62c50e9c1127f2cd403a315f,,,,,,,,,,,,,,,,,,,,,,,,,,,,,,,,,,,,,,,,,,,,,,,,,,,,,,,,,,,,,,,,,,,,,,,,,,,,,,,,,,,,,,,,,,,,,,,,,,,,,,,,,,,,,,,,,,,,,,,,,,,,,,,,,,,,,,,,,,,,,,,,,,,,,,,,,,,,,,,,,,
0,16,16,79,1,,6128be4387de5137b8ce6aa7,62c539c0b7d37a19065d965b,2022-07-06_09h29.45.540,Colour_Asymmetry_Pilot,2022.1.3,Win32,60.0024001,62c50e9c1127f2cd403a315f,,,,,,,,,,,,,,,,,,,,,,,,,,,,,,,,,,,,,,,,,,,,,,,,,,,,,,,,,,,,,,,,,,,,,,,,,,,,,,,,,,,,,,,,,,,,,,,,,,,,,,,,,,,,,,,,,,,,,,,,,,,,,,,,,,,,,,,,,,,,,,,,,,,,,,,,,,,,,,,,,,
0,17,17,46,1,,6128be4387de5137b8ce6aa7,62c539c0b7d37a19065d965b,2022-07-06_09h29.45.540,Colour_Asymmetry_Pilot,2022.1.3,Win32,60.0024001,62c50e9c1127f2cd403a315f,,,,,,,,,,,,,,,,,,,,,,,,,,,,,,,,,,,,,,,,,,,,,,,,,,,,,,,,,,,,,,,,,,,,,,,,,,,,,,,,,,,,,,,,,,,,,,,,,,,,,,,,,,,,,,,,,,,,,,,,,,,,,,,,,,,,,,,,,,,,,,,,,,,,,,,,,,,,,,,,,,
0,18,18,38,1,,6128be4387de5137b8ce6aa7,62c539c0b7d37a19065d965b,2022-07-06_09h29.45.540,Colour_Asymmetry_Pilot,2022.1.3,Win32,60.0024001,62c50e9c1127f2cd403a315f,,,,,,,,,,,,,,,,,,,,,,,,,,,,,,,,,,,,,,,,,,,,,,,,,,,,,,,,,,,,,,,,,,,,,,,,,,,,,,,,,,,,,,,,,,,,,,,,,,,,,,,,,,,,,,,,,,,,,,,,,,,,,,,,,,,,,,,,,,,,,,,,,,,,,,,,,,,,,,,,,,
0,19,19,9,1,,6128be4387de5137b8ce6aa7,62c539c0b7d37a19065d965b,2022-07-06_09h29.45.540,Colour_Asymmetry_Pilot,2022.1.3,Win32,60.0024001,62c50e9c1127f2cd403a315f,,,,,,,,,,,,,,,,,,,,,,,,,,,,,,,,,,,,,,,,,,,,,,,,,,,,,,,,,,,,,,,,,,,,,,,,,,,,,,,,,,,,,,,,,,,,,,,,,,,,,,,,,,,,,,,,,,,,,,,,,,,,,,,,,,,,,,,,,,,,,,,,,,,,,,,,,,,,,,,,,,
0,20,20,20,1,,6128be4387de5137b8ce6aa7,62c539c0b7d37a19065d965b,2022-07-06_09h29.45.540,Colour_Asymmetry_Pilot,2022.1.3,Win32,60.0024001,62c50e9c1127f2cd403a315f,,,,,,,,,,,,,,,,,,,,,,,,,,,,,,,,,,,,,,,,,,,,,,,,,,,,,,,,,,,,,,,,,,,,,,,,,,,,,,,,,,,,,,,,,,,,,,,,,,,,,,,,,,,,,,,,,,,,,,,,,,,,,,,,,,,,,,,,,,,,,,,,,,,,,,,,,,,,,,,,,,
0,21,21,15,1,,6128be4387de5137b8ce6aa7,62c539c0b7d37a19065d965b,2022-07-06_09h29.45.540,Colour_Asymmetry_Pilot,2022.1.3,Win32,60.0024001,62c50e9c1127f2cd403a315f,,,,,,,,,,,,,,,,,,,,,,,,,,,,,,,,,,,,,,,,,,,,,,,,,,,,,,,,,,,,,,,,,,,,,,,,,,,,,,,,,,,,,,,,,,,,,,,,,,,,,,,,,,,,,,,,,,,,,,,,,,,,,,,,,,,,,,,,,,,,,,,,,,,,,,,,,,,,,,,,,,
0,22,22,26,1,,6128be4387de5137b8ce6aa7,62c539c0b7d37a19065d965b,2022-07-06_09h29.45.540,Colour_Asymmetry_Pilot,2022.1.3,Win32,60.0024001,62c50e9c1127f2cd403a315f,,,,,,,,,,,,,,,,,,,,,,,,,,,,,,,,,,,,,,,,,,,,,,,,,,,,,,,,,,,,,,,,,,,,,,,,,,,,,,,,,,,,,,,,,,,,,,,,,,,,,,,,,,,,,,,,,,,,,,,,,,,,,,,,,,,,,,,,,,,,,,,,,,,,,,,,,,,,,,,,,,
0,23,23,57,1,,6128be4387de5137b8ce6aa7,62c539c0b7d37a19065d965b,2022-07-06_09h29.45.540,Colour_Asymmetry_Pilot,2022.1.3,Win32,60.0024001,62c50e9c1127f2cd403a315f,,,,,,,,,,,,,,,,,,,,,,,,,,,,,,,,,,,,,,,,,,,,,,,,,,,,,,,,,,,,,,,,,,,,,,,,,,,,,,,,,,,,,,,,,,,,,,,,,,,,,,,,,,,,,,,,,,,,,,,,,,,,,,,,,,,,,,,,,,,,,,,,,,,,,,,,,,,,,,,,,,
0,24,24,70,1,,6128be4387de5137b8ce6aa7,62c539c0b7d37a19065d965b,2022-07-06_09h29.45.540,Colour_Asymmetry_Pilot,2022.1.3,Win32,60.0024001,62c50e9c1127f2cd403a315f,,,,,,,,,,,,,,,,,,,,,,,,,,,,,,,,,,,,,,,,,,,,,,,,,,,,,,,,,,,,,,,,,,,,,,,,,,,,,,,,,,,,,,,,,,,,,,,,,,,,,,,,,,,,,,,,,,,,,,,,,,,,,,,,,,,,,,,,,,,,,,,,,,,,,,,,,,,,,,,,,,
0,25,25,24,1,,6128be4387de5137b8ce6aa7,62c539c0b7d37a19065d965b,2022-07-06_09h29.45.540,Colour_Asymmetry_Pilot,2022.1.3,Win32,60.0024001,62c50e9c1127f2cd403a315f,,,,,,,,,,,,,,,,,,,,,,,,,,,,,,,,,,,,,,,,,,,,,,,,,,,,,,,,,,,,,,,,,,,,,,,,,,,,,,,,,,,,,,,,,,,,,,,,,,,,,,,,,,,,,,,,,,,,,,,,,,,,,,,,,,,,,,,,,,,,,,,,,,,,,,,,,,,,,,,,,,
0,26,26,66,1,,6128be4387de5137b8ce6aa7,62c539c0b7d37a19065d965b,2022-07-06_09h29.45.540,Colour_Asymmetry_Pilot,2022.1.3,Win32,60.0024001,62c50e9c1127f2cd403a315f,,,,,,,,,,,,,,,,,,,,,,,,,,,,,,,,,,,,,,,,,,,,,,,,,,,,,,,,,,,,,,,,,,,,,,,,,,,,,,,,,,,,,,,,,,,,,,,,,,,,,,,,,,,,,,,,,,,,,,,,,,,,,,,,,,,,,,,,,,,,,,,,,,,,,,,,,,,,,,,,,,
0,27,27,44,1,,6128be4387de5137b8ce6aa7,62c539c0b7d37a19065d965b,2022-07-06_09h29.45.540,Colour_Asymmetry_Pilot,2022.1.3,Win32,60.0024001,62c50e9c1127f2cd403a315f,,,,,,,,,,,,,,,,,,,,,,,,,,,,,,,,,,,,,,,,,,,,,,,,,,,,,,,,,,,,,,,,,,,,,,,,,,,,,,,,,,,,,,,,,,,,,,,,,,,,,,,,,,,,,,,,,,,,,,,,,,,,,,,,,,,,,,,,,,,,,,,,,,,,,,,,,,,,,,,,,,
0,28,28,32,1,,6128be4387de5137b8ce6aa7,62c539c0b7d37a19065d965b,2022-07-06_09h29.45.540,Colour_Asymmetry_Pilot,2022.1.3,Win32,60.0024001,62c50e9c1127f2cd403a315f,,,,,,,,,,,,,,,,,,,,,,,,,,,,,,,,,,,,,,,,,,,,,,,,,,,,,,,,,,,,,,,,,,,,,,,,,,,,,,,,,,,,,,,,,,,,,,,,,,,,,,,,,,,,,,,,,,,,,,,,,,,,,,,,,,,,,,,,,,,,,,,,,,,,,,,,,,,,,,,,,,
0,29,29,90,1,,6128be4387de5137b8ce6aa7,62c539c0b7d37a19065d965b,2022-07-06_09h29.45.540,Colour_Asymmetry_Pilot,2022.1.3,Win32,60.0024001,62c50e9c1127f2cd403a315f,,,,,,,,,,,,,,,,,,,,,,,,,,,,,,,,,,,,,,,,,,,,,,,,,,,,,,,,,,,,,,,,,,,,,,,,,,,,,,,,,,,,,,,,,,,,,,,,,,,,,,,,,,,,,,,,,,,,,,,,,,,,,,,,,,,,,,,,,,,,,,,,,,,,,,,,,,,,,,,,,,
0,30,30,37,1,,6128be4387de5137b8ce6aa7,62c539c0b7d37a19065d965b,2022-07-06_09h29.45.540,Colour_Asymmetry_Pilot,2022.1.3,Win32,60.0024001,62c50e9c1127f2cd403a315f,,,,,,,,,,,,,,,,,,,,,,,,,,,,,,,,,,,,,,,,,,,,,,,,,,,,,,,,,,,,,,,,,,,,,,,,,,,,,,,,,,,,,,,,,,,,,,,,,,,,,,,,,,,,,,,,,,,,,,,,,,,,,,,,,,,,,,,,,,,,,,,,,,,,,,,,,,,,,,,,,,
0,31,31,89,1,,6128be4387de5137b8ce6aa7,62c539c0b7d37a19065d965b,2022-07-06_09h29.45.540,Colour_Asymmetry_Pilot,2022.1.3,Win32,60.0024001,62c50e9c1127f2cd403a315f,,,,,,,,,,,,,,,,,,,,,,,,,,,,,,,,,,,,,,,,,,,,,,,,,,,,,,,,,,,,,,,,,,,,,,,,,,,,,,,,,,,,,,,,,,,,,,,,,,,,,,,,,,,,,,,,,,,,,,,,,,,,,,,,,,,,,,,,,,,,,,,,,,,,,,,,,,,,,,,,,,
0,32,32,58,1,,6128be4387de5137b8ce6aa7,62c539c0b7d37a19065d965b,2022-07-06_09h29.45.540,Colour_Asymmetry_Pilot,2022.1.3,Win32,60.0024001,62c50e9c1127f2cd403a315f,,,,,,,,,,,,,,,,,,,,,,,,,,,,,,,,,,,,,,,,,,,,,,,,,,,,,,,,,,,,,,,,,,,,,,,,,,,,,,,,,,,,,,,,,,,,,,,,,,,,,,,,,,,,,,,,,,,,,,,,,,,,,,,,,,,,,,,,,,,,,,,,,,,,,,,,,,,,,,,,,,
0,33,33,36,1,,6128be4387de5137b8ce6aa7,62c539c0b7d37a19065d965b,2022-07-06_09h29.45.540,Colour_Asymmetry_Pilot,2022.1.3,Win32,60.0024001,62c50e9c1127f2cd403a315f,,,,,,,,,,,,,,,,,,,,,,,,,,,,,,,,,,,,,,,,,,,,,,,,,,,,,,,,,,,,,,,,,,,,,,,,,,,,,,,,,,,,,,,,,,,,,,,,,,,,,,,,,,,,,,,,,,,,,,,,,,,,,,,,,,,,,,,,,,,,,,,,,,,,,,,,,,,,,,,,,,
0,34,34,73,1,,6128be4387de5137b8ce6aa7,62c539c0b7d37a19065d965b,2022-07-06_09h29.45.540,Colour_Asymmetry_Pilot,2022.1.3,Win32,60.0024001,62c50e9c1127f2cd403a315f,,,,,,,,,,,,,,,,,,,,,,,,,,,,,,,,,,,,,,,,,,,,,,,,,,,,,,,,,,,,,,,,,,,,,,,,,,,,,,,,,,,,,,,,,,,,,,,,,,,,,,,,,,,,,,,,,,,,,,,,,,,,,,,,,,,,,,,,,,,,,,,,,,,,,,,,,,,,,,,,,,
0,35,35,17,1,,6128be4387de5137b8ce6aa7,62c539c0b7d37a19065d965b,2022-07-06_09h29.45.540,Colour_Asymmetry_Pilot,2022.1.3,Win32,60.0024001,62c50e9c1127f2cd403a315f,,,,,,,,,,,,,,,,,,,,,,,,,,,,,,,,,,,,,,,,,,,,,,,,,,,,,,,,,,,,,,,,,,,,,,,,,,,,,,,,,,,,,,,,,,,,,,,,,,,,,,,,,,,,,,,,,,,,,,,,,,,,,,,,,,,,,,,,,,,,,,,,,,,,,,,,,,,,,,,,,,
0,36,36,31,1,,6128be4387de5137b8ce6aa7,62c539c0b7d37a19065d965b,2022-07-06_09h29.45.540,Colour_Asymmetry_Pilot,2022.1.3,Win32,60.0024001,62c50e9c1127f2cd403a315f,,,,,,,,,,,,,,,,,,,,,,,,,,,,,,,,,,,,,,,,,,,,,,,,,,,,,,,,,,,,,,,,,,,,,,,,,,,,,,,,,,,,,,,,,,,,,,,,,,,,,,,,,,,,,,,,,,,,,,,,,,,,,,,,,,,,,,,,,,,,,,,,,,,,,,,,,,,,,,,,,,
0,37,37,11,1,,6128be4387de5137b8ce6aa7,62c539c0b7d37a19065d965b,2022-07-06_09h29.45.540,Colour_Asymmetry_Pilot,2022.1.3,Win32,60.0024001,62c50e9c1127f2cd403a315f,,,,,,,,,,,,,,,,,,,,,,,,,,,,,,,,,,,,,,,,,,,,,,,,,,,,,,,,,,,,,,,,,,,,,,,,,,,,,,,,,,,,,,,,,,,,,,,,,,,,,,,,,,,,,,,,,,,,,,,,,,,,,,,,,,,,,,,,,,,,,,,,,,,,,,,,,,,,,,,,,,
0,38,38,72,1,,6128be4387de5137b8ce6aa7,62c539c0b7d37a19065d965b,2022-07-06_09h29.45.540,Colour_Asymmetry_Pilot,2022.1.3,Win32,60.0024001,62c50e9c1127f2cd403a315f,,,,,,,,,,,,,,,,,,,,,,,,,,,,,,,,,,,,,,,,,,,,,,,,,,,,,,,,,,,,,,,,,,,,,,,,,,,,,,,,,,,,,,,,,,,,,,,,,,,,,,,,,,,,,,,,,,,,,,,,,,,,,,,,,,,,,,,,,,,,,,,,,,,,,,,,,,,,,,,,,,
0,39,39,87,1,,6128be4387de5137b8ce6aa7,62c539c0b7d37a19065d965b,2022-07-06_09h29.45.540,Colour_Asymmetry_Pilot,2022.1.3,Win32,60.0024001,62c50e9c1127f2cd403a315f,,,,,,,,,,,,,,,,,,,,,,,,,,,,,,,,,,,,,,,,,,,,,,,,,,,,,,,,,,,,,,,,,,,,,,,,,,,,,,,,,,,,,,,,,,,,,,,,,,,,,,,,,,,,,,,,,,,,,,,,,,,,,,,,,,,,,,,,,,,,,,,,,,,,,,,,,,,,,,,,,,
0,40,40,18,1,,6128be4387de5137b8ce6aa7,62c539c0b7d37a19065d965b,2022-07-06_09h29.45.540,Colour_Asymmetry_Pilot,2022.1.3,Win32,60.0024001,62c50e9c1127f2cd403a315f,,,,,,,,,,,,,,,,,,,,,,,,,,,,,,,,,,,,,,,,,,,,,,,,,,,,,,,,,,,,,,,,,,,,,,,,,,,,,,,,,,,,,,,,,,,,,,,,,,,,,,,,,,,,,,,,,,,,,,,,,,,,,,,,,,,,,,,,,,,,,,,,,,,,,,,,,,,,,,,,,,
0,41,41,77,1,,6128be4387de5137b8ce6aa7,62c539c0b7d37a19065d965b,2022-07-06_09h29.45.540,Colour_Asymmetry_Pilot,2022.1.3,Win32,60.0024001,62c50e9c1127f2cd403a315f,,,,,,,,,,,,,,,,,,,,,,,,,,,,,,,,,,,,,,,,,,,,,,,,,,,,,,,,,,,,,,,,,,,,,,,,,,,,,,,,,,,,,,,,,,,,,,,,,,,,,,,,,,,,,,,,,,,,,,,,,,,,,,,,,,,,,,,,,,,,,,,,,,,,,,,,,,,,,,,,,,
0,42,42,40,1,,6128be4387de5137b8ce6aa7,62c539c0b7d37a19065d965b,2022-07-06_09h29.45.540,Colour_Asymmetry_Pilot,2022.1.3,Win32,60.0024001,62c50e9c1127f2cd403a315f,,,,,,,,,,,,,,,,,,,,,,,,,,,,,,,,,,,,,,,,,,,,,,,,,,,,,,,,,,,,,,,,,,,,,,,,,,,,,,,,,,,,,,,,,,,,,,,,,,,,,,,,,,,,,,,,,,,,,,,,,,,,,,,,,,,,,,,,,,,,,,,,,,,,,,,,,,,,,,,,,,
0,43,43,55,1,,6128be4387de5137b8ce6aa7,62c539c0b7d37a19065d965b,2022-07-06_09h29.45.540,Colour_Asymmetry_Pilot,2022.1.3,Win32,60.0024001,62c50e9c1127f2cd403a315f,,,,,,,,,,,,,,,,,,,,,,,,,,,,,,,,,,,,,,,,,,,,,,,,,,,,,,,,,,,,,,,,,,,,,,,,,,,,,,,,,,,,,,,,,,,,,,,,,,,,,,,,,,,,,,,,,,,,,,,,,,,,,,,,,,,,,,,,,,,,,,,,,,,,,,,,,,,,,,,,,,
0,44,44,35,1,,6128be4387de5137b8ce6aa7,62c539c0b7d37a19065d965b,2022-07-06_09h29.45.540,Colour_Asymmetry_Pilot,2022.1.3,Win32,60.0024001,62c50e9c1127f2cd403a315f,,,,,,,,,,,,,,,,,,,,,,,,,,,,,,,,,,,,,,,,,,,,,,,,,,,,,,,,,,,,,,,,,,,,,,,,,,,,,,,,,,,,,,,,,,,,,,,,,,,,,,,,,,,,,,,,,,,,,,,,,,,,,,,,,,,,,,,,,,,,,,,,,,,,,,,,,,,,,,,,,,
0,45,45,5,1,,6128be4387de5137b8ce6aa7,62c539c0b7d37a19065d965b,2022-07-06_09h29.45.540,Colour_Asymmetry_Pilot,2022.1.3,Win32,60.0024001,62c50e9c1127f2cd403a315f,,,,,,,,,,,,,,,,,,,,,,,,,,,,,,,,,,,,,,,,,,,,,,,,,,,,,,,,,,,,,,,,,,,,,,,,,,,,,,,,,,,,,,,,,,,,,,,,,,,,,,,,,,,,,,,,,,,,,,,,,,,,,,,,,,,,,,,,,,,,,,,,,,,,,,,,,,,,,,,,,,
0,46,46,88,1,,6128be4387de5137b8ce6aa7,62c539c0b7d37a19065d965b,2022-07-06_09h29.45.540,Colour_Asymmetry_Pilot,2022.1.3,Win32,60.0024001,62c50e9c1127f2cd403a315f,,,,,,,,,,,,,,,,,,,,,,,,,,,,,,,,,,,,,,,,,,,,,,,,,,,,,,,,,,,,,,,,,,,,,,,,,,,,,,,,,,,,,,,,,,,,,,,,,,,,,,,,,,,,,,,,,,,,,,,,,,,,,,,,,,,,,,,,,,,,,,,,,,,,,,,,,,,,,,,,,,
0,47,47,45,1,,6128be4387de5137b8ce6aa7,62c539c0b7d37a19065d965b,2022-07-06_09h29.45.540,Colour_Asymmetry_Pilot,2022.1.3,Win32,60.0024001,62c50e9c1127f2cd403a315f,,,,,,,,,,,,,,,,,,,,,,,,,,,,,,,,,,,,,,,,,,,,,,,,,,,,,,,,,,,,,,,,,,,,,,,,,,,,,,,,,,,,,,,,,,,,,,,,,,,,,,,,,,,,,,,,,,,,,,,,,,,,,,,,,,,,,,,,,,,,,,,,,,,,,,,,,,,,,,,,,,
0,48,48,47,1,,6128be4387de5137b8ce6aa7,62c539c0b7d37a19065d965b,2022-07-06_09h29.45.540,Colour_Asymmetry_Pilot,2022.1.3,Win32,60.0024001,62c50e9c1127f2cd403a315f,,,,,,,,,,,,,,,,,,,,,,,,,,,,,,,,,,,,,,,,,,,,,,,,,,,,,,,,,,,,,,,,,,,,,,,,,,,,,,,,,,,,,,,,,,,,,,,,,,,,,,,,,,,,,,,,,,,,,,,,,,,,,,,,,,,,,,,,,,,,,,,,,,,,,,,,,,,,,,,,,,
0,49,49,63,1,,6128be4387de5137b8ce6aa7,62c539c0b7d37a19065d965b,2022-07-06_09h29.45.540,Colour_Asymmetry_Pilot,2022.1.3,Win32,60.0024001,62c50e9c1127f2cd403a315f,,,,,,,,,,,,,,,,,,,,,,,,,,,,,,,,,,,,,,,,,,,,,,,,,,,,,,,,,,,,,,,,,,,,,,,,,,,,,,,,,,,,,,,,,,,,,,,,,,,,,,,,,,,,,,,,,,,,,,,,,,,,,,,,,,,,,,,,,,,,,,,,,,,,,,,,,,,,,,,,,,
0,50,50,50,1,,6128be4387de5137b8ce6aa7,62c539c0b7d37a19065d965b,2022-07-06_09h29.45.540,Colour_Asymmetry_Pilot,2022.1.3,Win32,60.0024001,62c50e9c1127f2cd403a315f,,,,,,,,,,,,,,,,,,,,,,,,,,,,,,,,,,,,,,,,,,,,,,,,,,,,,,,,,,,,,,,,,,,,,,,,,,,,,,,,,,,,,,,,,,,,,,,,,,,,,,,,,,,,,,,,,,,,,,,,,,,,,,,,,,,,,,,,,,,,,,,,,,,,,,,,,,,,,,,,,,
0,51,51,65,1,,6128be4387de5137b8ce6aa7,62c539c0b7d37a19065d965b,2022-07-06_09h29.45.540,Colour_Asymmetry_Pilot,2022.1.3,Win32,60.0024001,62c50e9c1127f2cd403a315f,,,,,,,,,,,,,,,,,,,,,,,,,,,,,,,,,,,,,,,,,,,,,,,,,,,,,,,,,,,,,,,,,,,,,,,,,,,,,,,,,,,,,,,,,,,,,,,,,,,,,,,,,,,,,,,,,,,,,,,,,,,,,,,,,,,,,,,,,,,,,,,,,,,,,,,,,,,,,,,,,,
0,52,52,12,1,,6128be4387de5137b8ce6aa7,62c539c0b7d37a19065d965b,2022-07-06_09h29.45.540,Colour_Asymmetry_Pilot,2022.1.3,Win32,60.0024001,62c50e9c1127f2cd403a315f,,,,,,,,,,,,,,,,,,,,,,,,,,,,,,,,,,,,,,,,,,,,,,,,,,,,,,,,,,,,,,,,,,,,,,,,,,,,,,,,,,,,,,,,,,,,,,,,,,,,,,,,,,,,,,,,,,,,,,,,,,,,,,,,,,,,,,,,,,,,,,,,,,,,,,,,,,,,,,,,,,
0,53,53,43,1,,6128be4387de5137b8ce6aa7,62c539c0b7d37a19065d965b,2022-07-06_09h29.45.540,Colour_Asymmetry_Pilot,2022.1.3,Win32,60.0024001,62c50e9c1127f2cd403a315f,,,,,,,,,,,,,,,,,,,,,,,,,,,,,,,,,,,,,,,,,,,,,,,,,,,,,,,,,,,,,,,,,,,,,,,,,,,,,,,,,,,,,,,,,,,,,,,,,,,,,,,,,,,,,,,,,,,,,,,,,,,,,,,,,,,,,,,,,,,,,,,,,,,,,,,,,,,,,,,,,,
0,54,54,51,1,,6128be4387de5137b8ce6aa7,62c539c0b7d37a19065d965b,2022-07-06_09h29.45.540,Colour_Asymmetry_Pilot,2022.1.3,Win32,60.0024001,62c50e9c1127f2cd403a315f,,,,,,,,,,,,,,,,,,,,,,,,,,,,,,,,,,,,,,,,,,,,,,,,,,,,,,,,,,,,,,,,,,,,,,,,,,,,,,,,,,,,,,,,,,,,,,,,,,,,,,,,,,,,,,,,,,,,,,,,,,,,,,,,,,,,,,,,,,,,,,,,,,,,,,,,,,,,,,,,,,
0,55,55,39,1,,6128be4387de5137b8ce6aa7,62c539c0b7d37a19065d965b,2022-07-06_09h29.45.540,Colour_Asymmetry_Pilot,2022.1.3,Win32,60.0024001,62c50e9c1127f2cd403a315f,,,,,,,,,,,,,,,,,,,,,,,,,,,,,,,,,,,,,,,,,,,,,,,,,,,,,,,,,,,,,,,,,,,,,,,,,,,,,,,,,,,,,,,,,,,,,,,,,,,,,,,,,,,,,,,,,,,,,,,,,,,,,,,,,,,,,,,,,,,,,,,,,,,,,,,,,,,,,,,,,,
0,56,56,3,1,,6128be4387de5137b8ce6aa7,62c539c0b7d37a19065d965b,2022-07-06_09h29.45.540,Colour_Asymmetry_Pilot,2022.1.3,Win32,60.0024001,62c50e9c1127f2cd403a315f,,,,,,,,,,,,,,,,,,,,,,,,,,,,,,,,,,,,,,,,,,,,,,,,,,,,,,,,,,,,,,,,,,,,,,,,,,,,,,,,,,,,,,,,,,,,,,,,,,,,,,,,,,,,,,,,,,,,,,,,,,,,,,,,,,,,,,,,,,,,,,,,,,,,,,,,,,,,,,,,,,
0,57,57,53,1,,6128be4387de5137b8ce6aa7,62c539c0b7d37a19065d965b,2022-07-06_09h29.45.540,Colour_Asymmetry_Pilot,2022.1.3,Win32,60.0024001,62c50e9c1127f2cd403a315f,,,,,,,,,,,,,,,,,,,,,,,,,,,,,,,,,,,,,,,,,,,,,,,,,,,,,,,,,,,,,,,,,,,,,,,,,,,,,,,,,,,,,,,,,,,,,,,,,,,,,,,,,,,,,,,,,,,,,,,,,,,,,,,,,,,,,,,,,,,,,,,,,,,,,,,,,,,,,,,,,,
0,58,58,19,1,,6128be4387de5137b8ce6aa7,62c539c0b7d37a19065d965b,2022-07-06_09h29.45.540,Colour_Asymmetry_Pilot,2022.1.3,Win32,60.0024001,62c50e9c1127f2cd403a315f,,,,,,,,,,,,,,,,,,,,,,,,,,,,,,,,,,,,,,,,,,,,,,,,,,,,,,,,,,,,,,,,,,,,,,,,,,,,,,,,,,,,,,,,,,,,,,,,,,,,,,,,,,,,,,,,,,,,,,,,,,,,,,,,,,,,,,,,,,,,,,,,,,,,,,,,,,,,,,,,,,
0,59,59,84,1,,6128be4387de5137b8ce6aa7,62c539c0b7d37a19065d965b,2022-07-06_09h29.45.540,Colour_Asymmetry_Pilot,2022.1.3,Win32,60.0024001,62c50e9c1127f2cd403a315f,,,,,,,,,,,,,,,,,,,,,,,,,,,,,,,,,,,,,,,,,,,,,,,,,,,,,,,,,,,,,,,,,,,,,,,,,,,,,,,,,,,,,,,,,,,,,,,,,,,,,,,,,,,,,,,,,,,,,,,,,,,,,,,,,,,,,,,,,,,,,,,,,,,,,,,,,,,,,,,,,,
0,60,60,78,1,,6128be4387de5137b8ce6aa7,62c539c0b7d37a19065d965b,2022-07-06_09h29.45.540,Colour_Asymmetry_Pilot,2022.1.3,Win32,60.0024001,62c50e9c1127f2cd403a315f,,,,,,,,,,,,,,,,,,,,,,,,,,,,,,,,,,,,,,,,,,,,,,,,,,,,,,,,,,,,,,,,,,,,,,,,,,,,,,,,,,,,,,,,,,,,,,,,,,,,,,,,,,,,,,,,,,,,,,,,,,,,,,,,,,,,,,,,,,,,,,,,,,,,,,,,,,,,,,,,,,
0,61,61,4,1,,6128be4387de5137b8ce6aa7,62c539c0b7d37a19065d965b,2022-07-06_09h29.45.540,Colour_Asymmetry_Pilot,2022.1.3,Win32,60.0024001,62c50e9c1127f2cd403a315f,,,,,,,,,,,,,,,,,,,,,,,,,,,,,,,,,,,,,,,,,,,,,,,,,,,,,,,,,,,,,,,,,,,,,,,,,,,,,,,,,,,,,,,,,,,,,,,,,,,,,,,,,,,,,,,,,,,,,,,,,,,,,,,,,,,,,,,,,,,,,,,,,,,,,,,,,,,,,,,,,,
0,62,62,42,1,,6128be4387de5137b8ce6aa7,62c539c0b7d37a19065d965b,2022-07-06_09h29.45.540,Colour_Asymmetry_Pilot,2022.1.3,Win32,60.0024001,62c50e9c1127f2cd403a315f,,,,,,,,,,,,,,,,,,,,,,,,,,,,,,,,,,,,,,,,,,,,,,,,,,,,,,,,,,,,,,,,,,,,,,,,,,,,,,,,,,,,,,,,,,,,,,,,,,,,,,,,,,,,,,,,,,,,,,,,,,,,,,,,,,,,,,,,,,,,,,,,,,,,,,,,,,,,,,,,,,
0,63,63,82,1,,6128be4387de5137b8ce6aa7,62c539c0b7d37a19065d965b,2022-07-06_09h29.45.540,Colour_Asymmetry_Pilot,2022.1.3,Win32,60.0024001,62c50e9c1127f2cd403a315f,,,,,,,,,,,,,,,,,,,,,,,,,,,,,,,,,,,,,,,,,,,,,,,,,,,,,,,,,,,,,,,,,,,,,,,,,,,,,,,,,,,,,,,,,,,,,,,,,,,,,,,,,,,,,,,,,,,,,,,,,,,,,,,,,,,,,,,,,,,,,,,,,,,,,,,,,,,,,,,,,,
0,64,64,48,1,,6128be4387de5137b8ce6aa7,62c539c0b7d37a19065d965b,2022-07-06_09h29.45.540,Colour_Asymmetry_Pilot,2022.1.3,Win32,60.0024001,62c50e9c1127f2cd403a315f,,,,,,,,,,,,,,,,,,,,,,,,,,,,,,,,,,,,,,,,,,,,,,,,,,,,,,,,,,,,,,,,,,,,,,,,,,,,,,,,,,,,,,,,,,,,,,,,,,,,,,,,,,,,,,,,,,,,,,,,,,,,,,,,,,,,,,,,,,,,,,,,,,,,,,,,,,,,,,,,,,
0,65,65,85,1,,6128be4387de5137b8ce6aa7,62c539c0b7d37a19065d965b,2022-07-06_09h29.45.540,Colour_Asymmetry_Pilot,2022.1.3,Win32,60.0024001,62c50e9c1127f2cd403a315f,,,,,,,,,,,,,,,,,,,,,,,,,,,,,,,,,,,,,,,,,,,,,,,,,,,,,,,,,,,,,,,,,,,,,,,,,,,,,,,,,,,,,,,,,,,,,,,,,,,,,,,,,,,,,,,,,,,,,,,,,,,,,,,,,,,,,,,,,,,,,,,,,,,,,,,,,,,,,,,,,,
0,66,66,7,1,,6128be4387de5137b8ce6aa7,62c539c0b7d37a19065d965b,2022-07-06_09h29.45.540,Colour_Asymmetry_Pilot,2022.1.3,Win32,60.0024001,62c50e9c1127f2cd403a315f,,,,,,,,,,,,,,,,,,,,,,,,,,,,,,,,,,,,,,,,,,,,,,,,,,,,,,,,,,,,,,,,,,,,,,,,,,,,,,,,,,,,,,,,,,,,,,,,,,,,,,,,,,,,,,,,,,,,,,,,,,,,,,,,,,,,,,,,,,,,,,,,,,,,,,,,,,,,,,,,,,
0,67,67,71,1,,6128be4387de5137b8ce6aa7,62c539c0b7d37a19065d965b,2022-07-06_09h29.45.540,Colour_Asymmetry_Pilot,2022.1.3,Win32,60.0024001,62c50e9c1127f2cd403a315f,,,,,,,,,,,,,,,,,,,,,,,,,,,,,,,,,,,,,,,,,,,,,,,,,,,,,,,,,,,,,,,,,,,,,,,,,,,,,,,,,,,,,,,,,,,,,,,,,,,,,,,,,,,,,,,,,,,,,,,,,,,,,,,,,,,,,,,,,,,,,,,,,,,,,,,,,,,,,,,,,,
0,68,68,80,1,,6128be4387de5137b8ce6aa7,62c539c0b7d37a19065d965b,2022-07-06_09h29.45.540,Colour_Asymmetry_Pilot,2022.1.3,Win32,60.0024001,62c50e9c1127f2cd403a315f,,,,,,,,,,,,,,,,,,,,,,,,,,,,,,,,,,,,,,,,,,,,,,,,,,,,,,,,,,,,,,,,,,,,,,,,,,,,,,,,,,,,,,,,,,,,,,,,,,,,,,,,,,,,,,,,,,,,,,,,,,,,,,,,,,,,,,,,,,,,,,,,,,,,,,,,,,,,,,,,,,
0,69,69,21,1,,6128be4387de5137b8ce6aa7,62c539c0b7d37a19065d965b,2022-07-06_09h29.45.540,Colour_Asymmetry_Pilot,2022.1.3,Win32,60.0024001,62c50e9c1127f2cd403a315f,,,,,,,,,,,,,,,,,,,,,,,,,,,,,,,,,,,,,,,,,,,,,,,,,,,,,,,,,,,,,,,,,,,,,,,,,,,,,,,,,,,,,,,,,,,,,,,,,,,,,,,,,,,,,,,,,,,,,,,,,,,,,,,,,,,,,,,,,,,,,,,,,,,,,,,,,,,,,,,,,,
0,70,70,29,1,,6128be4387de5137b8ce6aa7,62c539c0b7d37a19065d965b,2022-07-06_09h29.45.540,Colour_Asymmetry_Pilot,2022.1.3,Win32,60.0024001,62c50e9c1127f2cd403a315f,,,,,,,,,,,,,,,,,,,,,,,,,,,,,,,,,,,,,,,,,,,,,,,,,,,,,,,,,,,,,,,,,,,,,,,,,,,,,,,,,,,,,,,,,,,,,,,,,,,,,,,,,,,,,,,,,,,,,,,,,,,,,,,,,,,,,,,,,,,,,,,,,,,,,,,,,,,,,,,,,,
0,71,71,23,1,,6128be4387de5137b8ce6aa7,62c539c0b7d37a19065d965b,2022-07-06_09h29.45.540,Colour_Asymmetry_Pilot,2022.1.3,Win32,60.0024001,62c50e9c1127f2cd403a315f,,,,,,,,,,,,,,,,,,,,,,,,,,,,,,,,,,,,,,,,,,,,,,,,,,,,,,,,,,,,,,,,,,,,,,,,,,,,,,,,,,,,,,,,,,,,,,,,,,,,,,,,,,,,,,,,,,,,,,,,,,,,,,,,,,,,,,,,,,,,,,,,,,,,,,,,,,,,,,,,,,
0,72,72,34,1,,6128be4387de5137b8ce6aa7,62c539c0b7d37a19065d965b,2022-07-06_09h29.45.540,Colour_Asymmetry_Pilot,2022.1.3,Win32,60.0024001,62c50e9c1127f2cd403a315f,,,,,,,,,,,,,,,,,,,,,,,,,,,,,,,,,,,,,,,,,,,,,,,,,,,,,,,,,,,,,,,,,,,,,,,,,,,,,,,,,,,,,,,,,,,,,,,,,,,,,,,,,,,,,,,,,,,,,,,,,,,,,,,,,,,,,,,,,,,,,,,,,,,,,,,,,,,,,,,,,,
0,73,73,68,1,,6128be4387de5137b8ce6aa7,62c539c0b7d37a19065d965b,2022-07-06_09h29.45.540,Colour_Asymmetry_Pilot,2022.1.3,Win32,60.0024001,62c50e9c1127f2cd403a315f,,,,,,,,,,,,,,,,,,,,,,,,,,,,,,,,,,,,,,,,,,,,,,,,,,,,,,,,,,,,,,,,,,,,,,,,,,,,,,,,,,,,,,,,,,,,,,,,,,,,,,,,,,,,,,,,,,,,,,,,,,,,,,,,,,,,,,,,,,,,,,,,,,,,,,,,,,,,,,,,,,
0,74,74,60,1,,6128be4387de5137b8ce6aa7,62c539c0b7d37a19065d965b,2022-07-06_09h29.45.540,Colour_Asymmetry_Pilot,2022.1.3,Win32,60.0024001,62c50e9c1127f2cd403a315f,,,,,,,,,,,,,,,,,,,,,,,,,,,,,,,,,,,,,,,,,,,,,,,,,,,,,,,,,,,,,,,,,,,,,,,,,,,,,,,,,,,,,,,,,,,,,,,,,,,,,,,,,,,,,,,,,,,,,,,,,,,,,,,,,,,,,,,,,,,,,,,,,,,,,,,,,,,,,,,,,,
0,75,75,64,1,,6128be4387de5137b8ce6aa7,62c539c0b7d37a19065d965b,2022-07-06_09h29.45.540,Colour_Asymmetry_Pilot,2022.1.3,Win32,60.0024001,62c50e9c1127f2cd403a315f,,,,,,,,,,,,,,,,,,,,,,,,,,,,,,,,,,,,,,,,,,,,,,,,,,,,,,,,,,,,,,,,,,,,,,,,,,,,,,,,,,,,,,,,,,,,,,,,,,,,,,,,,,,,,,,,,,,,,,,,,,,,,,,,,,,,,,,,,,,,,,,,,,,,,,,,,,,,,,,,,,
0,76,76,81,1,,6128be4387de5137b8ce6aa7,62c539c0b7d37a19065d965b,2022-07-06_09h29.45.540,Colour_Asymmetry_Pilot,2022.1.3,Win32,60.0024001,62c50e9c1127f2cd403a315f,,,,,,,,,,,,,,,,,,,,,,,,,,,,,,,,,,,,,,,,,,,,,,,,,,,,,,,,,,,,,,,,,,,,,,,,,,,,,,,,,,,,,,,,,,,,,,,,,,,,,,,,,,,,,,,,,,,,,,,,,,,,,,,,,,,,,,,,,,,,,,,,,,,,,,,,,,,,,,,,,,
0,77,77,52,1,,6128be4387de5137b8ce6aa7,62c539c0b7d37a19065d965b,2022-07-06_09h29.45.540,Colour_Asymmetry_Pilot,2022.1.3,Win32,60.0024001,62c50e9c1127f2cd403a315f,,,,,,,,,,,,,,,,,,,,,,,,,,,,,,,,,,,,,,,,,,,,,,,,,,,,,,,,,,,,,,,,,,,,,,,,,,,,,,,,,,,,,,,,,,,,,,,,,,,,,,,,,,,,,,,,,,,,,,,,,,,,,,,,,,,,,,,,,,,,,,,,,,,,,,,,,,,,,,,,,,
0,78,78,61,1,,6128be4387de5137b8ce6aa7,62c539c0b7d37a19065d965b,2022-07-06_09h29.45.540,Colour_Asymmetry_Pilot,2022.1.3,Win32,60.0024001,62c50e9c1127f2cd403a315f,,,,,,,,,,,,,,,,,,,,,,,,,,,,,,,,,,,,,,,,,,,,,,,,,,,,,,,,,,,,,,,,,,,,,,,,,,,,,,,,,,,,,,,,,,,,,,,,,,,,,,,,,,,,,,,,,,,,,,,,,,,,,,,,,,,,,,,,,,,,,,,,,,,,,,,,,,,,,,,,,,
0,79,79,49,1,,6128be4387de5137b8ce6aa7,62c539c0b7d37a19065d965b,2022-07-06_09h29.45.540,Colour_Asymmetry_Pilot,2022.1.3,Win32,60.0024001,62c50e9c1127f2cd403a315f,,,,,,,,,,,,,,,,,,,,,,,,,,,,,,,,,,,,,,,,,,,,,,,,,,,,,,,,,,,,,,,,,,,,,,,,,,,,,,,,,,,,,,,,,,,,,,,,,,,,,,,,,,,,,,,,,,,,,,,,,,,,,,,,,,,,,,,,,,,,,,,,,,,,,,,,,,,,,,,,,,
0,80,80,27,1,,6128be4387de5137b8ce6aa7,62c539c0b7d37a19065d965b,2022-07-06_09h29.45.540,Colour_Asymmetry_Pilot,2022.1.3,Win32,60.0024001,62c50e9c1127f2cd403a315f,,,,,,,,,,,,,,,,,,,,,,,,,,,,,,,,,,,,,,,,,,,,,,,,,,,,,,,,,,,,,,,,,,,,,,,,,,,,,,,,,,,,,,,,,,,,,,,,,,,,,,,,,,,,,,,,,,,,,,,,,,,,,,,,,,,,,,,,,,,,,,,,,,,,,,,,,,,,,,,,,,
0,81,81,8,1,,6128be4387de5137b8ce6aa7,62c539c0b7d37a19065d965b,2022-07-06_09h29.45.540,Colour_Asymmetry_Pilot,2022.1.3,Win32,60.0024001,62c50e9c1127f2cd403a315f,,,,,,,,,,,,,,,,,,,,,,,,,,,,,,,,,,,,,,,,,,,,,,,,,,,,,,,,,,,,,,,,,,,,,,,,,,,,,,,,,,,,,,,,,,,,,,,,,,,,,,,,,,,,,,,,,,,,,,,,,,,,,,,,,,,,,,,,,,,,,,,,,,,,,,,,,,,,,,,,,,
0,82,82,74,1,,6128be4387de5137b8ce6aa7,62c539c0b7d37a19065d965b,2022-07-06_09h29.45.540,Colour_Asymmetry_Pilot,2022.1.3,Win32,60.0024001,62c50e9c1127f2cd403a315f,,,,,,,,,,,,,,,,,,,,,,,,,,,,,,,,,,,,,,,,,,,,,,,,,,,,,,,,,,,,,,,,,,,,,,,,,,,,,,,,,,,,,,,,,,,,,,,,,,,,,,,,,,,,,,,,,,,,,,,,,,,,,,,,,,,,,,,,,,,,,,,,,,,,,,,,,,,,,,,,,,
0,83,83,83,1,,6128be4387de5137b8ce6aa7,62c539c0b7d37a19065d965b,2022-07-06_09h29.45.540,Colour_Asymmetry_Pilot,2022.1.3,Win32,60.0024001,62c50e9c1127f2cd403a315f,,,,,,,,,,,,,,,,,,,,,,,,,,,,,,,,,,,,,,,,,,,,,,,,,,,,,,,,,,,,,,,,,,,,,,,,,,,,,,,,,,,,,,,,,,,,,,,,,,,,,,,,,,,,,,,,,,,,,,,,,,,,,,,,,,,,,,,,,,,,,,,,,,,,,,,,,,,,,,,,,,
0,84,84,10,1,,6128be4387de5137b8ce6aa7,62c539c0b7d37a19065d965b,2022-07-06_09h29.45.540,Colour_Asymmetry_Pilot,2022.1.3,Win32,60.0024001,62c50e9c1127f2cd403a315f,,,,,,,,,,,,,,,,,,,,,,,,,,,,,,,,,,,,,,,,,,,,,,,,,,,,,,,,,,,,,,,,,,,,,,,,,,,,,,,,,,,,,,,,,,,,,,,,,,,,,,,,,,,,,,,,,,,,,,,,,,,,,,,,,,,,,,,,,,,,,,,,,,,,,,,,,,,,,,,,,,
0,85,85,41,1,,6128be4387de5137b8ce6aa7,62c539c0b7d37a19065d965b,2022-07-06_09h29.45.540,Colour_Asymmetry_Pilot,2022.1.3,Win32,60.0024001,62c50e9c1127f2cd403a315f,,,,,,,,,,,,,,,,,,,,,,,,,,,,,,,,,,,,,,,,,,,,,,,,,,,,,,,,,,,,,,,,,,,,,,,,,,,,,,,,,,,,,,,,,,,,,,,,,,,,,,,,,,,,,,,,,,,,,,,,,,,,,,,,,,,,,,,,,,,,,,,,,,,,,,,,,,,,,,,,,,
0,86,86,86,1,,6128be4387de5137b8ce6aa7,62c539c0b7d37a19065d965b,2022-07-06_09h29.45.540,Colour_Asymmetry_Pilot,2022.1.3,Win32,60.0024001,62c50e9c1127f2cd403a315f,,,,,,,,,,,,,,,,,,,,,,,,,,,,,,,,,,,,,,,,,,,,,,,,,,,,,,,,,,,,,,,,,,,,,,,,,,,,,,,,,,,,,,,,,,,,,,,,,,,,,,,,,,,,,,,,,,,,,,,,,,,,,,,,,,,,,,,,,,,,,,,,,,,,,,,,,,,,,,,,,,
0,87,87,2,1,,6128be4387de5137b8ce6aa7,62c539c0b7d37a19065d965b,2022-07-06_09h29.45.540,Colour_Asymmetry_Pilot,2022.1.3,Win32,60.0024001,62c50e9c1127f2cd403a315f,,,,,,,,,,,,,,,,,,,,,,,,,,,,,,,,,,,,,,,,,,,,,,,,,,,,,,,,,,,,,,,,,,,,,,,,,,,,,,,,,,,,,,,,,,,,,,,,,,,,,,,,,,,,,,,,,,,,,,,,,,,,,,,,,,,,,,,,,,,,,,,,,,,,,,,,,,,,,,,,,,
0,88,88,22,1,,6128be4387de5137b8ce6aa7,62c539c0b7d37a19065d965b,2022-07-06_09h29.45.540,Colour_Asymmetry_Pilot,2022.1.3,Win32,60.0024001,62c50e9c1127f2cd403a315f,,,,,,,,,,,,,,,,,,,,,,,,,,,,,,,,,,,,,,,,,,,,,,,,,,,,,,,,,,,,,,,,,,,,,,,,,,,,,,,,,,,,,,,,,,,,,,,,,,,,,,,,,,,,,,,,,,,,,,,,,,,,,,,,,,,,,,,,,,,,,,,,,,,,,,,,,,,,,,,,,,
0,89,89,13,1,,6128be4387de5137b8ce6aa7,62c539c0b7d37a19065d965b,2022-07-06_09h29.45.540,Colour_Asymmetry_Pilot,2022.1.3,Win32,60.0024001,62c50e9c1127f2cd403a315f,,,,,,,,,,,,,,,,,,,,,,,,,,,,,,,,,,,,,,,,,,,,,,,,,,,,,,,,,,,,,,,,,,,,,,,,,,,,,,,,,,,,,,,,,,,,,,,,,,,,,,,,,,,,,,,,,,,,,,,,,,,,,,,,,,,,,,,,,,,,,,,,,,,,,,,,,,,,,,,,,,
0,90,90,75,1,,6128be4387de5137b8ce6aa7,62c539c0b7d37a19065d965b,2022-07-06_09h29.45.540,Colour_Asymmetry_Pilot,2022.1.3,Win32,60.0024001,62c50e9c1127f2cd403a315f,,,,,,,,,,,,,,,,,,,,,,,,,,,,,,,,,,,,,,,,,,,,,,,,,,,,,,,,,,,,,,,,,,,,,,,,,,,,,,,,,,,,,,,,,,,,,,,,,,,,,,,,,,,,,,,,,,,,,,,,,,,,,,,,,,,,,,,,,,,,,,,,,,,,,,,,,,,,,,,,,,
0,91,91,0,1,,6128be4387de5137b8ce6aa7,62c539c0b7d37a19065d965b,2022-07-06_09h29.45.540,Colour_Asymmetry_Pilot,2022.1.3,Win32,60.0024001,62c50e9c1127f2cd403a315f,,,,,,,,,,,,,,,,,,,,,,,,,,,,,,,,,,,,,,,,,,,,,,,,,,,,,,,,,,,,,,,,,,,,,,,,,,,,,,,,,,,,,,,,,,,,,,,,,,,,,,,,,,,,,,,,,,,,,,,,,,,,,,,,,,,,,,,,,,,,,,,,,,,,,,,,,,,,,,,,,,
0,92,92,30,1,,6128be4387de5137b8ce6aa7,62c539c0b7d37a19065d965b,2022-07-06_09h29.45.540,Colour_Asymmetry_Pilot,2022.1.3,Win32,60.0024001,62c50e9c1127f2cd403a315f,,,,,,,,,,,,,,,,,,,,,,,,,,,,,,,,,,,,,,,,,,,,,,,,,,,,,,,,,,,,,,,,,,,,,,,,,,,,,,,,,,,,,,,,,,,,,,,,,,,,,,,,,,,,,,,,,,,,,,,,,,,,,,,,,,,,,,,,,,,,,,,,,,,,,,,,,,,,,,,,,,
,,,,,,6128be4387de5137b8ce6aa7,62c539c0b7d37a19065d965b,2022-07-06_09h29.45.540,Colour_Asymmetry_Pilot,2022.1.3,Win32,60.0024001,62c50e9c1127f2cd403a315f,0,0,0,99,1,twofour,,,,,,,,,,,,,,,,,,,,,,,,,,,,,,,,,,,,,,,,,,,,,,,,,,,,,,,,,,,,,,,,,,,,,,,,,,,,,,,,,,,,,,,,,,,,,,,,,,,,,,,,,,,,,,,,,,,,,,,,,,,,,,,,,,,,,,,,,,,,,,,,,,,,,,,,,,,,
,,,,,,6128be4387de5137b8ce6aa7,62c539c0b7d37a19065d965b,2022-07-06_09h29.45.540,Colour_Asymmetry_Pilot,2022.1.3,Win32,60.0024001,62c50e9c1127f2cd403a315f,0,1,1,9,1,onethree,,,,,,,,,,,,,,,,,,,,,,,,,,,,,,,,,,,,,,,,,,,,,,,,,,,,,,,,,,,,,,,,,,,,,,,,,,,,,,,,,,,,,,,,,,,,,,,,,,,,,,,,,,,,,,,,,,,,,,,,,,,,,,,,,,,,,,,,,,,,,,,,,,,,,,,,,,,,
,,,,,,6128be4387de5137b8ce6aa7,62c539c0b7d37a19065d965b,2022-07-06_09h29.45.540,Colour_Asymmetry_Pilot,2022.1.3,Win32,60.0024001,62c50e9c1127f2cd403a315f,0,2,2,48,1,onetwo,,,,,,,,,,,,,,,,,,,,,,,,,,,,,,,,,,,,,,,,,,,,,,,,,,,,,,,,,,,,,,,,,,,,,,,,,,,,,,,,,,,,,,,,,,,,,,,,,,,,,,,,,,,,,,,,,,,,,,,,,,,,,,,,,,,,,,,,,,,,,,,,,,,,,,,,,,,,
,,,,,,6128be4387de5137b8ce6aa7,62c539c0b7d37a19065d965b,2022-07-06_09h29.45.540,Colour_Asymmetry_Pilot,2022.1.3,Win32,60.0024001,62c50e9c1127f2cd403a315f,0,3,3,107,1,twofour,,,,,,,,,,,,,,,,,,,,,,,,,,,,,,,,,,,,,,,,,,,,,,,,,,,,,,,,,,,,,,,,,,,,,,,,,,,,,,,,,,,,,,,,,,,,,,,,,,,,,,,,,,,,,,,,,,,,,,,,,,,,,,,,,,,,,,,,,,,,,,,,,,,,,,,,,,,,
,,,,,,6128be4387de5137b8ce6aa7,62c539c0b7d37a19065d965b,2022-07-06_09h29.45.540,Colour_Asymmetry_Pilot,2022.1.3,Win32,60.0024001,62c50e9c1127f2cd403a315f,0,4,4,13,1,threefour,,,,,,,,,,,,,,,,,,,,,,,,,,,,,,,,,,,,,,,,,,,,,,,,,,,,,,,,,,,,,,,,,,,,,,,,,,,,,,,,,,,,,,,,,,,,,,,,,,,,,,,,,,,,,,,,,,,,,,,,,,,,,,,,,,,,,,,,,,,,,,,,,,,,,,,,,,,,
,,,,,,6128be4387de5137b8ce6aa7,62c539c0b7d37a19065d965b,2022-07-06_09h29.45.540,Colour_Asymmetry_Pilot,2022.1.3,Win32,60.0024001,62c50e9c1127f2cd403a315f,0,5,5,140,1,threeone,,,,,,,,,,,,,,,,,,,,,,,,,,,,,,,,,,,,,,,,,,,,,,,,,,,,,,,,,,,,,,,,,,,,,,,,,,,,,,,,,,,,,,,,,,,,,,,,,,,,,,,,,,,,,,,,,,,,,,,,,,,,,,,,,,,,,,,,,,,,,,,,,,,,,,,,,,,,
,,,,,,6128be4387de5137b8ce6aa7,62c539c0b7d37a19065d965b,2022-07-06_09h29.45.540,Colour_Asymmetry_Pilot,2022.1.3,Win32,60.0024001,62c50e9c1127f2cd403a315f,0,6,6,126,1,fourtwo,,,,,,,,,,,,,,,,,,,,,,,,,,,,,,,,,,,,,,,,,,,,,,,,,,,,,,,,,,,,,,,,,,,,,,,,,,,,,,,,,,,,,,,,,,,,,,,,,,,,,,,,,,,,,,,,,,,,,,,,,,,,,,,,,,,,,,,,,,,,,,,,,,,,,,,,,,,,
,,,,,,6128be4387de5137b8ce6aa7,62c539c0b7d37a19065d965b,2022-07-06_09h29.45.540,Colour_Asymmetry_Pilot,2022.1.3,Win32,60.0024001,62c50e9c1127f2cd403a315f,0,7,7,20,1,threeone,,,,,,,,,,,,,,,,,,,,,,,,,,,,,,,,,,,,,,,,,,,,,,,,,,,,,,,,,,,,,,,,,,,,,,,,,,,,,,,,,,,,,,,,,,,,,,,,,,,,,,,,,,,,,,,,,,,,,,,,,,,,,,,,,,,,,,,,,,,,,,,,,,,,,,,,,,,,
,,,,,,6128be4387de5137b8ce6aa7,62c539c0b7d37a19065d965b,2022-07-06_09h29.45.540,Colour_Asymmetry_Pilot,2022.1.3,Win32,60.0024001,62c50e9c1127f2cd403a315f,0,8,8,152,1,onetwo,,,,,,,,,,,,,,,,,,,,,,,,,,,,,,,,,,,,,,,,,,,,,,,,,,,,,,,,,,,,,,,,,,,,,,,,,,,,,,,,,,,,,,,,,,,,,,,,,,,,,,,,,,,,,,,,,,,,,,,,,,,,,,,,,,,,,,,,,,,,,,,,,,,,,,,,,,,,
,,,,,,6128be4387de5137b8ce6aa7,62c539c0b7d37a19065d965b,2022-07-06_09h29.45.540,Colour_Asymmetry_Pilot,2022.1.3,Win32,60.0024001,62c50e9c1127f2cd403a315f,0,9,9,37,1,threefour,,,,,,,,,,,,,,,,,,,,,,,,,,,,,,,,,,,,,,,,,,,,,,,,,,,,,,,,,,,,,,,,,,,,,,,,,,,,,,,,,,,,,,,,,,,,,,,,,,,,,,,,,,,,,,,,,,,,,,,,,,,,,,,,,,,,,,,,,,,,,,,,,,,,,,,,,,,,
,,,,,,6128be4387de5137b8ce6aa7,62c539c0b7d37a19065d965b,2022-07-06_09h29.45.540,Colour_Asymmetry_Pilot,2022.1.3,Win32,60.0024001,62c50e9c1127f2cd403a315f,0,10,10,103,1,fourthree,,,,,,,,,,,,,,,,,,,,,,,,,,,,,,,,,,,,,,,,,,,,,,,,,,,,,,,,,,,,,,,,,,,,,,,,,,,,,,,,,,,,,,,,,,,,,,,,,,,,,,,,,,,,,,,,,,,,,,,,,,,,,,,,,,,,,,,,,,,,,,,,,,,,,,,,,,,,
,,,,,,6128be4387de5137b8ce6aa7,62c539c0b7d37a19065d965b,2022-07-06_09h29.45.540,Colour_Asymmetry_Pilot,2022.1.3,Win32,60.0024001,62c50e9c1127f2cd403a315f,0,11,11,143,1,fourthree,,,,,,,,,,,,,,,,,,,,,,,,,,,,,,,,,,,,,,,,,,,,,,,,,,,,,,,,,,,,,,,,,,,,,,,,,,,,,,,,,,,,,,,,,,,,,,,,,,,,,,,,,,,,,,,,,,,,,,,,,,,,,,,,,,,,,,,,,,,,,,,,,,,,,,,,,,,,
,,,,,,6128be4387de5137b8ce6aa7,62c539c0b7d37a19065d965b,2022-07-06_09h29.45.540,Colour_Asymmetry_Pilot,2022.1.3,Win32,60.0024001,62c50e9c1127f2cd403a315f,0,12,12,67,1,twofour,,,,,,,,,,,,,,,,,,,,,,,,,,,,,,,,,,,,,,,,,,,,,,,,,,,,,,,,,,,,,,,,,,,,,,,,,,,,,,,,,,,,,,,,,,,,,,,,,,,,,,,,,,,,,,,,,,,,,,,,,,,,,,,,,,,,,,,,,,,,,,,,,,,,,,,,,,,,
,,,,,,6128be4387de5137b8ce6aa7,62c539c0b7d37a19065d965b,2022-07-06_09h29.45.540,Colour_Asymmetry_Pilot,2022.1.3,Win32,60.0024001,62c50e9c1127f2cd403a315f,0,13,13,34,1,twoone,,,,,,,,,,,,,,,,,,,,,,,,,,,,,,,,,,,,,,,,,,,,,,,,,,,,,,,,,,,,,,,,,,,,,,,,,,,,,,,,,,,,,,,,,,,,,,,,,,,,,,,,,,,,,,,,,,,,,,,,,,,,,,,,,,,,,,,,,,,,,,,,,,,,,,,,,,,,
,,,,,,6128be4387de5137b8ce6aa7,62c539c0b7d37a19065d965b,2022-07-06_09h29.45.540,Colour_Asymmetry_Pilot,2022.1.3,Win32,60.0024001,62c50e9c1127f2cd403a315f,0,14,14,73,1,onethree,,,,,,,,,,,,,,,,,,,,,,,,,,,,,,,,,,,,,,,,,,,,,,,,,,,,,,,,,,,,,,,,,,,,,,,,,,,,,,,,,,,,,,,,,,,,,,,,,,,,,,,,,,,,,,,,,,,,,,,,,,,,,,,,,,,,,,,,,,,,,,,,,,,,,,,,,,,,
,,,,,,6128be4387de5137b8ce6aa7,62c539c0b7d37a19065d965b,2022-07-06_09h29.45.540,Colour_Asymmetry_Pilot,2022.1.3,Win32,60.0024001,62c50e9c1127f2cd403a315f,0,15,15,54,1,fourtwo,,,,,,,,,,,,,,,,,,,,,,,,,,,,,,,,,,,,,,,,,,,,,,,,,,,,,,,,,,,,,,,,,,,,,,,,,,,,,,,,,,,,,,,,,,,,,,,,,,,,,,,,,,,,,,,,,,,,,,,,,,,,,,,,,,,,,,,,,,,,,,,,,,,,,,,,,,,,
,,,,,,6128be4387de5137b8ce6aa7,62c539c0b7d37a19065d965b,2022-07-06_09h29.45.540,Colour_Asymmetry_Pilot,2022.1.3,Win32,60.0024001,62c50e9c1127f2cd403a315f,0,16,16,76,1,threeone,,,,,,,,,,,,,,,,,,,,,,,,,,,,,,,,,,,,,,,,,,,,,,,,,,,,,,,,,,,,,,,,,,,,,,,,,,,,,,,,,,,,,,,,,,,,,,,,,,,,,,,,,,,,,,,,,,,,,,,,,,,,,,,,,,,,,,,,,,,,,,,,,,,,,,,,,,,,
,,,,,,6128be4387de5137b8ce6aa7,62c539c0b7d37a19065d965b,2022-07-06_09h29.45.540,Colour_Asymmetry_Pilot,2022.1.3,Win32,60.0024001,62c50e9c1127f2cd403a315f,0,17,17,146,1,twoone,,,,,,,,,,,,,,,,,,,,,,,,,,,,,,,,,,,,,,,,,,,,,,,,,,,,,,,,,,,,,,,,,,,,,,,,,,,,,,,,,,,,,,,,,,,,,,,,,,,,,,,,,,,,,,,,,,,,,,,,,,,,,,,,,,,,,,,,,,,,,,,,,,,,,,,,,,,,
,,,,,,6128be4387de5137b8ce6aa7,62c539c0b7d37a19065d965b,2022-07-06_09h29.45.540,Colour_Asymmetry_Pilot,2022.1.3,Win32,60.0024001,62c50e9c1127f2cd403a315f,0,18,18,3,1,twofour,,,,,,,,,,,,,,,,,,,,,,,,,,,,,,,,,,,,,,,,,,,,,,,,,,,,,,,,,,,,,,,,,,,,,,,,,,,,,,,,,,,,,,,,,,,,,,,,,,,,,,,,,,,,,,,,,,,,,,,,,,,,,,,,,,,,,,,,,,,,,,,,,,,,,,,,,,,,
,,,,,,6128be4387de5137b8ce6aa7,62c539c0b7d37a19065d965b,2022-07-06_09h29.45.540,Colour_Asymmetry_Pilot,2022.1.3,Win32,60.0024001,62c50e9c1127f2cd403a315f,0,19,19,11,1,twofour,,,,,,,,,,,,,,,,,,,,,,,,,,,,,,,,,,,,,,,,,,,,,,,,,,,,,,,,,,,,,,,,,,,,,,,,,,,,,,,,,,,,,,,,,,,,,,,,,,,,,,,,,,,,,,,,,,,,,,,,,,,,,,,,,,,,,,,,,,,,,,,,,,,,,,,,,,,,
,,,,,,6128be4387de5137b8ce6aa7,62c539c0b7d37a19065d965b,2022-07-06_09h29.45.540,Colour_Asymmetry_Pilot,2022.1.3,Win32,60.0024001,62c50e9c1127f2cd403a315f,0,20,20,148,1,threeone,,,,,,,,,,,,,,,,,,,,,,,,,,,,,,,,,,,,,,,,,,,,,,,,,,,,,,,,,,,,,,,,,,,,,,,,,,,,,,,,,,,,,,,,,,,,,,,,,,,,,,,,,,,,,,,,,,,,,,,,,,,,,,,,,,,,,,,,,,,,,,,,,,,,,,,,,,,,
,,,,,,6128be4387de5137b8ce6aa7,62c539c0b7d37a19065d965b,2022-07-06_09h29.45.540,Colour_Asymmetry_Pilot,2022.1.3,Win32,60.0024001,62c50e9c1127f2cd403a315f,0,21,21,116,1,threeone,,,,,,,,,,,,,,,,,,,,,,,,,,,,,,,,,,,,,,,,,,,,,,,,,,,,,,,,,,,,,,,,,,,,,,,,,,,,,,,,,,,,,,,,,,,,,,,,,,,,,,,,,,,,,,,,,,,,,,,,,,,,,,,,,,,,,,,,,,,,,,,,,,,,,,,,,,,,
,,,,,,6128be4387de5137b8ce6aa7,62c539c0b7d37a19065d965b,2022-07-06_09h29.45.540,Colour_Asymmetry_Pilot,2022.1.3,Win32,60.0024001,62c50e9c1127f2cd403a315f,0,22,22,91,1,twofour,,,,,,,,,,,,,,,,,,,,,,,,,,,,,,,,,,,,,,,,,,,,,,,,,,,,,,,,,,,,,,,,,,,,,,,,,,,,,,,,,,,,,,,,,,,,,,,,,,,,,,,,,,,,,,,,,,,,,,,,,,,,,,,,,,,,,,,,,,,,,,,,,,,,,,,,,,,,
,,,,,,6128be4387de5137b8ce6aa7,62c539c0b7d37a19065d965b,2022-07-06_09h29.45.540,Colour_Asymmetry_Pilot,2022.1.3,Win32,60.0024001,62c50e9c1127f2cd403a315f,0,23,23,128,1,onetwo,,,,,,,,,,,,,,,,,,,,,,,,,,,,,,,,,,,,,,,,,,,,,,,,,,,,,,,,,,,,,,,,,,,,,,,,,,,,,,,,,,,,,,,,,,,,,,,,,,,,,,,,,,,,,,,,,,,,,,,,,,,,,,,,,,,,,,,,,,,,,,,,,,,,,,,,,,,,
,,,,,,6128be4387de5137b8ce6aa7,62c539c0b7d37a19065d965b,2022-07-06_09h29.45.540,Colour_Asymmetry_Pilot,2022.1.3,Win32,60.0024001,62c50e9c1127f2cd403a315f,0,24,24,23,1,fourthree,,,,,,,,,,,,,,,,,,,,,,,,,,,,,,,,,,,,,,,,,,,,,,,,,,,,,,,,,,,,,,,,,,,,,,,,,,,,,,,,,,,,,,,,,,,,,,,,,,,,,,,,,,,,,,,,,,,,,,,,,,,,,,,,,,,,,,,,,,,,,,,,,,,,,,,,,,,,
,,,,,,6128be4387de5137b8ce6aa7,62c539c0b7d37a19065d965b,2022-07-06_09h29.45.540,Colour_Asymmetry_Pilot,2022.1.3,Win32,60.0024001,62c50e9c1127f2cd403a315f,0,25,25,97,1,onethree,,,,,,,,,,,,,,,,,,,,,,,,,,,,,,,,,,,,,,,,,,,,,,,,,,,,,,,,,,,,,,,,,,,,,,,,,,,,,,,,,,,,,,,,,,,,,,,,,,,,,,,,,,,,,,,,,,,,,,,,,,,,,,,,,,,,,,,,,,,,,,,,,,,,,,,,,,,,
,,,,,,6128be4387de5137b8ce6aa7,62c539c0b7d37a19065d965b,2022-07-06_09h29.45.540,Colour_Asymmetry_Pilot,2022.1.3,Win32,60.0024001,62c50e9c1127f2cd403a315f,0,26,26,1,1,onethree,,,,,,,,,,,,,,,,,,,,,,,,,,,,,,,,,,,,,,,,,,,,,,,,,,,,,,,,,,,,,,,,,,,,,,,,,,,,,,,,,,,,,,,,,,,,,,,,,,,,,,,,,,,,,,,,,,,,,,,,,,,,,,,,,,,,,,,,,,,,,,,,,,,,,,,,,,,,
,,,,,,6128be4387de5137b8ce6aa7,62c539c0b7d37a19065d965b,2022-07-06_09h29.45.540,Colour_Asymmetry_Pilot,2022.1.3,Win32,60.0024001,62c50e9c1127f2cd403a315f,0,27,27,31,1,fourthree,,,,,,,,,,,,,,,,,,,,,,,,,,,,,,,,,,,,,,,,,,,,,,,,,,,,,,,,,,,,,,,,,,,,,,,,,,,,,,,,,,,,,,,,,,,,,,,,,,,,,,,,,,,,,,,,,,,,,,,,,,,,,,,,,,,,,,,,,,,,,,,,,,,,,,,,,,,,
,,,,,,6128be4387de5137b8ce6aa7,62c539c0b7d37a19065d965b,2022-07-06_09h29.45.540,Colour_Asymmetry_Pilot,2022.1.3,Win32,60.0024001,62c50e9c1127f2cd403a315f,0,28,28,53,1,threefour,,,,,,,,,,,,,,,,,,,,,,,,,,,,,,,,,,,,,,,,,,,,,,,,,,,,,,,,,,,,,,,,,,,,,,,,,,,,,,,,,,,,,,,,,,,,,,,,,,,,,,,,,,,,,,,,,,,,,,,,,,,,,,,,,,,,,,,,,,,,,,,,,,,,,,,,,,,,
,,,,,,6128be4387de5137b8ce6aa7,62c539c0b7d37a19065d965b,2022-07-06_09h29.45.540,Colour_Asymmetry_Pilot,2022.1.3,Win32,60.0024001,62c50e9c1127f2cd403a315f,0,29,29,35,1,twofour,,,,,,,,,,,,,,,,,,,,,,,,,,,,,,,,,,,,,,,,,,,,,,,,,,,,,,,,,,,,,,,,,,,,,,,,,,,,,,,,,,,,,,,,,,,,,,,,,,,,,,,,,,,,,,,,,,,,,,,,,,,,,,,,,,,,,,,,,,,,,,,,,,,,,,,,,,,,
,,,,,,6128be4387de5137b8ce6aa7,62c539c0b7d37a19065d965b,2022-07-06_09h29.45.540,Colour_Asymmetry_Pilot,2022.1.3,Win32,60.0024001,62c50e9c1127f2cd403a315f,0,30,30,89,1,onethree,,,,,,,,,,,,,,,,,,,,,,,,,,,,,,,,,,,,,,,,,,,,,,,,,,,,,,,,,,,,,,,,,,,,,,,,,,,,,,,,,,,,,,,,,,,,,,,,,,,,,,,,,,,,,,,,,,,,,,,,,,,,,,,,,,,,,,,,,,,,,,,,,,,,,,,,,,,,
,,,,,,6128be4387de5137b8ce6aa7,62c539c0b7d37a19065d965b,2022-07-06_09h29.45.540,Colour_Asymmetry_Pilot,2022.1.3,Win32,60.0024001,62c50e9c1127f2cd403a315f,0,31,31,72,1,onetwo,,,,,,,,,,,,,,,,,,,,,,,,,,,,,,,,,,,,,,,,,,,,,,,,,,,,,,,,,,,,,,,,,,,,,,,,,,,,,,,,,,,,,,,,,,,,,,,,,,,,,,,,,,,,,,,,,,,,,,,,,,,,,,,,,,,,,,,,,,,,,,,,,,,,,,,,,,,,
,,,,,,6128be4387de5137b8ce6aa7,62c539c0b7d37a19065d965b,2022-07-06_09h29.45.540,Colour_Asymmetry_Pilot,2022.1.3,Win32,60.0024001,62c50e9c1127f2cd403a315f,0,32,32,139,1,twofour,,,,,,,,,,,,,,,,,,,,,,,,,,,,,,,,,,,,,,,,,,,,,,,,,,,,,,,,,,,,,,,,,,,,,,,,,,,,,,,,,,,,,,,,,,,,,,,,,,,,,,,,,,,,,,,,,,,,,,,,,,,,,,,,,,,,,,,,,,,,,,,,,,,,,,,,,,,,
,,,,,,6128be4387de5137b8ce6aa7,62c539c0b7d37a19065d965b,2022-07-06_09h29.45.540,Colour_Asymmetry_Pilot,2022.1.3,Win32,60.0024001,62c50e9c1127f2cd403a315f,0,33,33,151,1,fourthree,,,,,,,,,,,,,,,,,,,,,,,,,,,,,,,,,,,,,,,,,,,,,,,,,,,,,,,,,,,,,,,,,,,,,,,,,,,,,,,,,,,,,,,,,,,,,,,,,,,,,,,,,,,,,,,,,,,,,,,,,,,,,,,,,,,,,,,,,,,,,,,,,,,,,,,,,,,,
,,,,,,6128be4387de5137b8ce6aa7,62c539c0b7d37a19065d965b,2022-07-06_09h29.45.540,Colour_Asymmetry_Pilot,2022.1.3,Win32,60.0024001,62c50e9c1127f2cd403a315f,0,34,34,136,1,onetwo,,,,,,,,,,,,,,,,,,,,,,,,,,,,,,,,,,,,,,,,,,,,,,,,,,,,,,,,,,,,,,,,,,,,,,,,,,,,,,,,,,,,,,,,,,,,,,,,,,,,,,,,,,,,,,,,,,,,,,,,,,,,,,,,,,,,,,,,,,,,,,,,,,,,,,,,,,,,
,,,,,,6128be4387de5137b8ce6aa7,62c539c0b7d37a19065d965b,2022-07-06_09h29.45.540,Colour_Asymmetry_Pilot,2022.1.3,Win32,60.0024001,62c50e9c1127f2cd403a315f,0,35,35,100,1,threeone,,,,,,,,,,,,,,,,,,,,,,,,,,,,,,,,,,,,,,,,,,,,,,,,,,,,,,,,,,,,,,,,,,,,,,,,,,,,,,,,,,,,,,,,,,,,,,,,,,,,,,,,,,,,,,,,,,,,,,,,,,,,,,,,,,,,,,,,,,,,,,,,,,,,,,,,,,,,
,,,,,,6128be4387de5137b8ce6aa7,62c539c0b7d37a19065d965b,2022-07-06_09h29.45.540,Colour_Asymmetry_Pilot,2022.1.3,Win32,60.0024001,62c50e9c1127f2cd403a315f,0,36,36,104,1,onetwo,,,,,,,,,,,,,,,,,,,,,,,,,,,,,,,,,,,,,,,,,,,,,,,,,,,,,,,,,,,,,,,,,,,,,,,,,,,,,,,,,,,,,,,,,,,,,,,,,,,,,,,,,,,,,,,,,,,,,,,,,,,,,,,,,,,,,,,,,,,,,,,,,,,,,,,,,,,,
,,,,,,6128be4387de5137b8ce6aa7,62c539c0b7d37a19065d965b,2022-07-06_09h29.45.540,Colour_Asymmetry_Pilot,2022.1.3,Win32,60.0024001,62c50e9c1127f2cd403a315f,0,37,37,94,1,fourtwo,,,,,,,,,,,,,,,,,,,,,,,,,,,,,,,,,,,,,,,,,,,,,,,,,,,,,,,,,,,,,,,,,,,,,,,,,,,,,,,,,,,,,,,,,,,,,,,,,,,,,,,,,,,,,,,,,,,,,,,,,,,,,,,,,,,,,,,,,,,,,,,,,,,,,,,,,,,,
,,,,,,6128be4387de5137b8ce6aa7,62c539c0b7d37a19065d965b,2022-07-06_09h29.45.540,Colour_Asymmetry_Pilot,2022.1.3,Win32,60.0024001,62c50e9c1127f2cd403a315f,0,38,38,121,1,onethree,,,,,,,,,,,,,,,,,,,,,,,,,,,,,,,,,,,,,,,,,,,,,,,,,,,,,,,,,,,,,,,,,,,,,,,,,,,,,,,,,,,,,,,,,,,,,,,,,,,,,,,,,,,,,,,,,,,,,,,,,,,,,,,,,,,,,,,,,,,,,,,,,,,,,,,,,,,,
,,,,,,6128be4387de5137b8ce6aa7,62c539c0b7d37a19065d965b,2022-07-06_09h29.45.540,Colour_Asymmetry_Pilot,2022.1.3,Win32,60.0024001,62c50e9c1127f2cd403a315f,0,39,39,51,1,twofour,,,,,,,,,,,,,,,,,,,,,,,,,,,,,,,,,,,,,,,,,,,,,,,,,,,,,,,,,,,,,,,,,,,,,,,,,,,,,,,,,,,,,,,,,,,,,,,,,,,,,,,,,,,,,,,,,,,,,,,,,,,,,,,,,,,,,,,,,,,,,,,,,,,,,,,,,,,,
,,,,,,6128be4387de5137b8ce6aa7,62c539c0b7d37a19065d965b,2022-07-06_09h29.45.540,Colour_Asymmetry_Pilot,2022.1.3,Win32,60.0024001,62c50e9c1127f2cd403a315f,0,40,40,85,1,threefour,,,,,,,,,,,,,,,,,,,,,,,,,,,,,,,,,,,,,,,,,,,,,,,,,,,,,,,,,,,,,,,,,,,,,,,,,,,,,,,,,,,,,,,,,,,,,,,,,,,,,,,,,,,,,,,,,,,,,,,,,,,,,,,,,,,,,,,,,,,,,,,,,,,,,,,,,,,,
,,,,,,6128be4387de5137b8ce6aa7,62c539c0b7d37a19065d965b,2022-07-06_09h29.45.540,Colour_Asymmetry_Pilot,2022.1.3,Win32,60.0024001,62c50e9c1127f2cd403a315f,0,41,41,77,1,threefour,,,,,,,,,,,,,,,,,,,,,,,,,,,,,,,,,,,,,,,,,,,,,,,,,,,,,,,,,,,,,,,,,,,,,,,,,,,,,,,,,,,,,,,,,,,,,,,,,,,,,,,,,,,,,,,,,,,,,,,,,,,,,,,,,,,,,,,,,,,,,,,,,,,,,,,,,,,,
,,,,,,6128be4387de5137b8ce6aa7,62c539c0b7d37a19065d965b,2022-07-06_09h29.45.540,Colour_Asymmetry_Pilot,2022.1.3,Win32,60.0024001,62c50e9c1127f2cd403a315f,0,42,42,102,1,fourtwo,,,,,,,,,,,,,,,,,,,,,,,,,,,,,,,,,,,,,,,,,,,,,,,,,,,,,,,,,,,,,,,,,,,,,,,,,,,,,,,,,,,,,,,,,,,,,,,,,,,,,,,,,,,,,,,,,,,,,,,,,,,,,,,,,,,,,,,,,,,,,,,,,,,,,,,,,,,,
,,,,,,6128be4387de5137b8ce6aa7,62c539c0b7d37a19065d965b,2022-07-06_09h29.45.540,Colour_Asymmetry_Pilot,2022.1.3,Win32,60.0024001,62c50e9c1127f2cd403a315f,0,43,43,123,1,twofour,,,,,,,,,,,,,,,,,,,,,,,,,,,,,,,,,,,,,,,,,,,,,,,,,,,,,,,,,,,,,,,,,,,,,,,,,,,,,,,,,,,,,,,,,,,,,,,,,,,,,,,,,,,,,,,,,,,,,,,,,,,,,,,,,,,,,,,,,,,,,,,,,,,,,,,,,,,,
,,,,,,6128be4387de5137b8ce6aa7,62c539c0b7d37a19065d965b,2022-07-06_09h29.45.540,Colour_Asymmetry_Pilot,2022.1.3,Win32,60.0024001,62c50e9c1127f2cd403a315f,0,44,44,106,1,twoone,,,,,,,,,,,,,,,,,,,,,,,,,,,,,,,,,,,,,,,,,,,,,,,,,,,,,,,,,,,,,,,,,,,,,,,,,,,,,,,,,,,,,,,,,,,,,,,,,,,,,,,,,,,,,,,,,,,,,,,,,,,,,,,,,,,,,,,,,,,,,,,,,,,,,,,,,,,,
,,,,,,6128be4387de5137b8ce6aa7,62c539c0b7d37a19065d965b,2022-07-06_09h29.45.540,Colour_Asymmetry_Pilot,2022.1.3,Win32,60.0024001,62c50e9c1127f2cd403a315f,0,45,45,92,1,threeone,,,,,,,,,,,,,,,,,,,,,,,,,,,,,,,,,,,,,,,,,,,,,,,,,,,,,,,,,,,,,,,,,,,,,,,,,,,,,,,,,,,,,,,,,,,,,,,,,,,,,,,,,,,,,,,,,,,,,,,,,,,,,,,,,,,,,,,,,,,,,,,,,,,,,,,,,,,,
,,,,,,6128be4387de5137b8ce6aa7,62c539c0b7d37a19065d965b,2022-07-06_09h29.45.540,Colour_Asymmetry_Pilot,2022.1.3,Win32,60.0024001,62c50e9c1127f2cd403a315f,0,46,46,133,1,threefour,,,,,,,,,,,,,,,,,,,,,,,,,,,,,,,,,,,,,,,,,,,,,,,,,,,,,,,,,,,,,,,,,,,,,,,,,,,,,,,,,,,,,,,,,,,,,,,,,,,,,,,,,,,,,,,,,,,,,,,,,,,,,,,,,,,,,,,,,,,,,,,,,,,,,,,,,,,,
,,,,,,6128be4387de5137b8ce6aa7,62c539c0b7d37a19065d965b,2022-07-06_09h29.45.540,Colour_Asymmetry_Pilot,2022.1.3,Win32,60.0024001,62c50e9c1127f2cd403a315f,0,47,47,5,1,threefour,,,,,,,,,,,,,,,,,,,,,,,,,,,,,,,,,,,,,,,,,,,,,,,,,,,,,,,,,,,,,,,,,,,,,,,,,,,,,,,,,,,,,,,,,,,,,,,,,,,,,,,,,,,,,,,,,,,,,,,,,,,,,,,,,,,,,,,,,,,,,,,,,,,,,,,,,,,,
,,,,,,6128be4387de5137b8ce6aa7,62c539c0b7d37a19065d965b,2022-07-06_09h29.45.540,Colour_Asymmetry_Pilot,2022.1.3,Win32,60.0024001,62c50e9c1127f2cd403a315f,0,48,48,127,1,fourthree,,,,,,,,,,,,,,,,,,,,,,,,,,,,,,,,,,,,,,,,,,,,,,,,,,,,,,,,,,,,,,,,,,,,,,,,,,,,,,,,,,,,,,,,,,,,,,,,,,,,,,,,,,,,,,,,,,,,,,,,,,,,,,,,,,,,,,,,,,,,,,,,,,,,,,,,,,,,
,,,,,,6128be4387de5137b8ce6aa7,62c539c0b7d37a19065d965b,2022-07-06_09h29.45.540,Colour_Asymmetry_Pilot,2022.1.3,Win32,60.0024001,62c50e9c1127f2cd403a315f,0,49,49,56,1,onetwo,,,,,,,,,,,,,,,,,,,,,,,,,,,,,,,,,,,,,,,,,,,,,,,,,,,,,,,,,,,,,,,,,,,,,,,,,,,,,,,,,,,,,,,,,,,,,,,,,,,,,,,,,,,,,,,,,,,,,,,,,,,,,,,,,,,,,,,,,,,,,,,,,,,,,,,,,,,,
,,,,,,6128be4387de5137b8ce6aa7,62c539c0b7d37a19065d965b,2022-07-06_09h29.45.540,Colour_Asymmetry_Pilot,2022.1.3,Win32,60.0024001,62c50e9c1127f2cd403a315f,0,50,50,108,1,threeone,,,,,,,,,,,,,,,,,,,,,,,,,,,,,,,,,,,,,,,,,,,,,,,,,,,,,,,,,,,,,,,,,,,,,,,,,,,,,,,,,,,,,,,,,,,,,,,,,,,,,,,,,,,,,,,,,,,,,,,,,,,,,,,,,,,,,,,,,,,,,,,,,,,,,,,,,,,,
,,,,,,6128be4387de5137b8ce6aa7,62c539c0b7d37a19065d965b,2022-07-06_09h29.45.540,Colour_Asymmetry_Pilot,2022.1.3,Win32,60.0024001,62c50e9c1127f2cd403a315f,0,51,51,18,1,twoone,,,,,,,,,,,,,,,,,,,,,,,,,,,,,,,,,,,,,,,,,,,,,,,,,,,,,,,,,,,,,,,,,,,,,,,,,,,,,,,,,,,,,,,,,,,,,,,,,,,,,,,,,,,,,,,,,,,,,,,,,,,,,,,,,,,,,,,,,,,,,,,,,,,,,,,,,,,,
,,,,,,6128be4387de5137b8ce6aa7,62c539c0b7d37a19065d965b,2022-07-06_09h29.45.540,Colour_Asymmetry_Pilot,2022.1.3,Win32,60.0024001,62c50e9c1127f2cd403a315f,0,52,52,144,1,onetwo,,,,,,,,,,,,,,,,,,,,,,,,,,,,,,,,,,,,,,,,,,,,,,,,,,,,,,,,,,,,,,,,,,,,,,,,,,,,,,,,,,,,,,,,,,,,,,,,,,,,,,,,,,,,,,,,,,,,,,,,,,,,,,,,,,,,,,,,,,,,,,,,,,,,,,,,,,,,
,,,,,,6128be4387de5137b8ce6aa7,62c539c0b7d37a19065d965b,2022-07-06_09h29.45.540,Colour_Asymmetry_Pilot,2022.1.3,Win32,60.0024001,62c50e9c1127f2cd403a315f,0,53,53,43,1,twofour,,,,,,,,,,,,,,,,,,,,,,,,,,,,,,,,,,,,,,,,,,,,,,,,,,,,,,,,,,,,,,,,,,,,,,,,,,,,,,,,,,,,,,,,,,,,,,,,,,,,,,,,,,,,,,,,,,,,,,,,,,,,,,,,,,,,,,,,,,,,,,,,,,,,,,,,,,,,
,,,,,,6128be4387de5137b8ce6aa7,62c539c0b7d37a19065d965b,2022-07-06_09h29.45.540,Colour_Asymmetry_Pilot,2022.1.3,Win32,60.0024001,62c50e9c1127f2cd403a315f,0,54,54,161,1,onethree,,,,,,,,,,,,,,,,,,,,,,,,,,,,,,,,,,,,,,,,,,,,,,,,,,,,,,,,,,,,,,,,,,,,,,,,,,,,,,,,,,,,,,,,,,,,,,,,,,,,,,,,,,,,,,,,,,,,,,,,,,,,,,,,,,,,,,,,,,,,,,,,,,,,,,,,,,,,
,,,,,,6128be4387de5137b8ce6aa7,62c539c0b7d37a19065d965b,2022-07-06_09h29.45.540,Colour_Asymmetry_Pilot,2022.1.3,Win32,60.0024001,62c50e9c1127f2cd403a315f,0,55,55,130,1,twoone,,,,,,,,,,,,,,,,,,,,,,,,,,,,,,,,,,,,,,,,,,,,,,,,,,,,,,,,,,,,,,,,,,,,,,,,,,,,,,,,,,,,,,,,,,,,,,,,,,,,,,,,,,,,,,,,,,,,,,,,,,,,,,,,,,,,,,,,,,,,,,,,,,,,,,,,,,,,
,,,,,,6128be4387de5137b8ce6aa7,62c539c0b7d37a19065d965b,2022-07-06_09h29.45.540,Colour_Asymmetry_Pilot,2022.1.3,Win32,60.0024001,62c50e9c1127f2cd403a315f,0,56,56,22,1,fourtwo,,,,,,,,,,,,,,,,,,,,,,,,,,,,,,,,,,,,,,,,,,,,,,,,,,,,,,,,,,,,,,,,,,,,,,,,,,,,,,,,,,,,,,,,,,,,,,,,,,,,,,,,,,,,,,,,,,,,,,,,,,,,,,,,,,,,,,,,,,,,,,,,,,,,,,,,,,,,
,,,,,,6128be4387de5137b8ce6aa7,62c539c0b7d37a19065d965b,2022-07-06_09h29.45.540,Colour_Asymmetry_Pilot,2022.1.3,Win32,60.0024001,62c50e9c1127f2cd403a315f,0,57,57,71,1,fourthree,,,,,,,,,,,,,,,,,,,,,,,,,,,,,,,,,,,,,,,,,,,,,,,,,,,,,,,,,,,,,,,,,,,,,,,,,,,,,,,,,,,,,,,,,,,,,,,,,,,,,,,,,,,,,,,,,,,,,,,,,,,,,,,,,,,,,,,,,,,,,,,,,,,,,,,,,,,,
,,,,,,6128be4387de5137b8ce6aa7,62c539c0b7d37a19065d965b,2022-07-06_09h29.45.540,Colour_Asymmetry_Pilot,2022.1.3,Win32,60.0024001,62c50e9c1127f2cd403a315f,0,58,58,65,1,onethree,,,,,,,,,,,,,,,,,,,,,,,,,,,,,,,,,,,,,,,,,,,,,,,,,,,,,,,,,,,,,,,,,,,,,,,,,,,,,,,,,,,,,,,,,,,,,,,,,,,,,,,,,,,,,,,,,,,,,,,,,,,,,,,,,,,,,,,,,,,,,,,,,,,,,,,,,,,,
,,,,,,6128be4387de5137b8ce6aa7,62c539c0b7d37a19065d965b,2022-07-06_09h29.45.540,Colour_Asymmetry_Pilot,2022.1.3,Win32,60.0024001,62c50e9c1127f2cd403a315f,0,59,59,74,1,twoone,,,,,,,,,,,,,,,,,,,,,,,,,,,,,,,,,,,,,,,,,,,,,,,,,,,,,,,,,,,,,,,,,,,,,,,,,,,,,,,,,,,,,,,,,,,,,,,,,,,,,,,,,,,,,,,,,,,,,,,,,,,,,,,,,,,,,,,,,,,,,,,,,,,,,,,,,,,,
,,,,,,6128be4387de5137b8ce6aa7,62c539c0b7d37a19065d965b,2022-07-06_09h29.45.540,Colour_Asymmetry_Pilot,2022.1.3,Win32,60.0024001,62c50e9c1127f2cd403a315f,0,60,60,58,1,twoone,,,,,,,,,,,,,,,,,,,,,,,,,,,,,,,,,,,,,,,,,,,,,,,,,,,,,,,,,,,,,,,,,,,,,,,,,,,,,,,,,,,,,,,,,,,,,,,,,,,,,,,,,,,,,,,,,,,,,,,,,,,,,,,,,,,,,,,,,,,,,,,,,,,,,,,,,,,,
,,,,,,6128be4387de5137b8ce6aa7,62c539c0b7d37a19065d965b,2022-07-06_09h29.45.540,Colour_Asymmetry_Pilot,2022.1.3,Win32,60.0024001,62c50e9c1127f2cd403a315f,0,61,61,137,1,onethree,,,,,,,,,,,,,,,,,,,,,,,,,,,,,,,,,,,,,,,,,,,,,,,,,,,,,,,,,,,,,,,,,,,,,,,,,,,,,,,,,,,,,,,,,,,,,,,,,,,,,,,,,,,,,,,,,,,,,,,,,,,,,,,,,,,,,,,,,,,,,,,,,,,,,,,,,,,,
,,,,,,6128be4387de5137b8ce6aa7,62c539c0b7d37a19065d965b,2022-07-06_09h29.45.540,Colour_Asymmetry_Pilot,2022.1.3,Win32,60.0024001,62c50e9c1127f2cd403a315f,0,62,62,124,1,threeone,,,,,,,,,,,,,,,,,,,,,,,,,,,,,,,,,,,,,,,,,,,,,,,,,,,,,,,,,,,,,,,,,,,,,,,,,,,,,,,,,,,,,,,,,,,,,,,,,,,,,,,,,,,,,,,,,,,,,,,,,,,,,,,,,,,,,,,,,,,,,,,,,,,,,,,,,,,,
,,,,,,6128be4387de5137b8ce6aa7,62c539c0b7d37a19065d965b,2022-07-06_09h29.45.540,Colour_Asymmetry_Pilot,2022.1.3,Win32,60.0024001,62c50e9c1127f2cd403a315f,0,63,63,142,1,fourtwo,,,,,,,,,,,,,,,,,,,,,,,,,,,,,,,,,,,,,,,,,,,,,,,,,,,,,,,,,,,,,,,,,,,,,,,,,,,,,,,,,,,,,,,,,,,,,,,,,,,,,,,,,,,,,,,,,,,,,,,,,,,,,,,,,,,,,,,,,,,,,,,,,,,,,,,,,,,,
,,,,,,6128be4387de5137b8ce6aa7,62c539c0b7d37a19065d965b,2022-07-06_09h29.45.540,Colour_Asymmetry_Pilot,2022.1.3,Win32,60.0024001,62c50e9c1127f2cd403a315f,0,64,64,135,1,fourthree,,,,,,,,,,,,,,,,,,,,,,,,,,,,,,,,,,,,,,,,,,,,,,,,,,,,,,,,,,,,,,,,,,,,,,,,,,,,,,,,,,,,,,,,,,,,,,,,,,,,,,,,,,,,,,,,,,,,,,,,,,,,,,,,,,,,,,,,,,,,,,,,,,,,,,,,,,,,
,,,,,,6128be4387de5137b8ce6aa7,62c539c0b7d37a19065d965b,2022-07-06_09h29.45.540,Colour_Asymmetry_Pilot,2022.1.3,Win32,60.0024001,62c50e9c1127f2cd403a315f,0,65,65,86,1,fourtwo,,,,,,,,,,,,,,,,,,,,,,,,,,,,,,,,,,,,,,,,,,,,,,,,,,,,,,,,,,,,,,,,,,,,,,,,,,,,,,,,,,,,,,,,,,,,,,,,,,,,,,,,,,,,,,,,,,,,,,,,,,,,,,,,,,,,,,,,,,,,,,,,,,,,,,,,,,,,
,,,,,,6128be4387de5137b8ce6aa7,62c539c0b7d37a19065d965b,2022-07-06_09h29.45.540,Colour_Asymmetry_Pilot,2022.1.3,Win32,60.0024001,62c50e9c1127f2cd403a315f,0,66,66,55,1,fourthree,,,,,,,,,,,,,,,,,,,,,,,,,,,,,,,,,,,,,,,,,,,,,,,,,,,,,,,,,,,,,,,,,,,,,,,,,,,,,,,,,,,,,,,,,,,,,,,,,,,,,,,,,,,,,,,,,,,,,,,,,,,,,,,,,,,,,,,,,,,,,,,,,,,,,,,,,,,,
,,,,,,6128be4387de5137b8ce6aa7,62c539c0b7d37a19065d965b,2022-07-06_09h29.45.540,Colour_Asymmetry_Pilot,2022.1.3,Win32,60.0024001,62c50e9c1127f2cd403a315f,0,67,67,41,1,onethree,,,,,,,,,,,,,,,,,,,,,,,,,,,,,,,,,,,,,,,,,,,,,,,,,,,,,,,,,,,,,,,,,,,,,,,,,,,,,,,,,,,,,,,,,,,,,,,,,,,,,,,,,,,,,,,,,,,,,,,,,,,,,,,,,,,,,,,,,,,,,,,,,,,,,,,,,,,,
,,,,,,6128be4387de5137b8ce6aa7,62c539c0b7d37a19065d965b,2022-07-06_09h29.45.540,Colour_Asymmetry_Pilot,2022.1.3,Win32,60.0024001,62c50e9c1127f2cd403a315f,0,68,68,25,1,onethree,,,,,,,,,,,,,,,,,,,,,,,,,,,,,,,,,,,,,,,,,,,,,,,,,,,,,,,,,,,,,,,,,,,,,,,,,,,,,,,,,,,,,,,,,,,,,,,,,,,,,,,,,,,,,,,,,,,,,,,,,,,,,,,,,,,,,,,,,,,,,,,,,,,,,,,,,,,,
,,,,,,6128be4387de5137b8ce6aa7,62c539c0b7d37a19065d965b,2022-07-06_09h29.45.540,Colour_Asymmetry_Pilot,2022.1.3,Win32,60.0024001,62c50e9c1127f2cd403a315f,0,69,69,141,1,threefour,,,,,,,,,,,,,,,,,,,,,,,,,,,,,,,,,,,,,,,,,,,,,,,,,,,,,,,,,,,,,,,,,,,,,,,,,,,,,,,,,,,,,,,,,,,,,,,,,,,,,,,,,,,,,,,,,,,,,,,,,,,,,,,,,,,,,,,,,,,,,,,,,,,,,,,,,,,,
,,,,,,6128be4387de5137b8ce6aa7,62c539c0b7d37a19065d965b,2022-07-06_09h29.45.540,Colour_Asymmetry_Pilot,2022.1.3,Win32,60.0024001,62c50e9c1127f2cd403a315f,0,70,70,59,1,twofour,,,,,,,,,,,,,,,,,,,,,,,,,,,,,,,,,,,,,,,,,,,,,,,,,,,,,,,,,,,,,,,,,,,,,,,,,,,,,,,,,,,,,,,,,,,,,,,,,,,,,,,,,,,,,,,,,,,,,,,,,,,,,,,,,,,,,,,,,,,,,,,,,,,,,,,,,,,,
,,,,,,6128be4387de5137b8ce6aa7,62c539c0b7d37a19065d965b,2022-07-06_09h29.45.540,Colour_Asymmetry_Pilot,2022.1.3,Win32,60.0024001,62c50e9c1127f2cd403a315f,0,71,71,21,1,threefour,,,,,,,,,,,,,,,,,,,,,,,,,,,,,,,,,,,,,,,,,,,,,,,,,,,,,,,,,,,,,,,,,,,,,,,,,,,,,,,,,,,,,,,,,,,,,,,,,,,,,,,,,,,,,,,,,,,,,,,,,,,,,,,,,,,,,,,,,,,,,,,,,,,,,,,,,,,,
,,,,,,6128be4387de5137b8ce6aa7,62c539c0b7d37a19065d965b,2022-07-06_09h29.45.540,Colour_Asymmetry_Pilot,2022.1.3,Win32,60.0024001,62c50e9c1127f2cd403a315f,0,72,72,70,1,fourtwo,,,,,,,,,,,,,,,,,,,,,,,,,,,,,,,,,,,,,,,,,,,,,,,,,,,,,,,,,,,,,,,,,,,,,,,,,,,,,,,,,,,,,,,,,,,,,,,,,,,,,,,,,,,,,,,,,,,,,,,,,,,,,,,,,,,,,,,,,,,,,,,,,,,,,,,,,,,,
,,,,,,6128be4387de5137b8ce6aa7,62c539c0b7d37a19065d965b,2022-07-06_09h29.45.540,Colour_Asymmetry_Pilot,2022.1.3,Win32,60.0024001,62c50e9c1127f2cd403a315f,0,73,73,66,1,twoone,,,,,,,,,,,,,,,,,,,,,,,,,,,,,,,,,,,,,,,,,,,,,,,,,,,,,,,,,,,,,,,,,,,,,,,,,,,,,,,,,,,,,,,,,,,,,,,,,,,,,,,,,,,,,,,,,,,,,,,,,,,,,,,,,,,,,,,,,,,,,,,,,,,,,,,,,,,,
,,,,,,6128be4387de5137b8ce6aa7,62c539c0b7d37a19065d965b,2022-07-06_09h29.45.540,Colour_Asymmetry_Pilot,2022.1.3,Win32,60.0024001,62c50e9c1127f2cd403a315f,0,74,74,26,1,twoone,,,,,,,,,,,,,,,,,,,,,,,,,,,,,,,,,,,,,,,,,,,,,,,,,,,,,,,,,,,,,,,,,,,,,,,,,,,,,,,,,,,,,,,,,,,,,,,,,,,,,,,,,,,,,,,,,,,,,,,,,,,,,,,,,,,,,,,,,,,,,,,,,,,,,,,,,,,,
,,,,,,6128be4387de5137b8ce6aa7,62c539c0b7d37a19065d965b,2022-07-06_09h29.45.540,Colour_Asymmetry_Pilot,2022.1.3,Win32,60.0024001,62c50e9c1127f2cd403a315f,0,75,75,30,1,fourtwo,,,,,,,,,,,,,,,,,,,,,,,,,,,,,,,,,,,,,,,,,,,,,,,,,,,,,,,,,,,,,,,,,,,,,,,,,,,,,,,,,,,,,,,,,,,,,,,,,,,,,,,,,,,,,,,,,,,,,,,,,,,,,,,,,,,,,,,,,,,,,,,,,,,,,,,,,,,,
,,,,,,6128be4387de5137b8ce6aa7,62c539c0b7d37a19065d965b,2022-07-06_09h29.45.540,Colour_Asymmetry_Pilot,2022.1.3,Win32,60.0024001,62c50e9c1127f2cd403a315f,0,76,76,4,1,threeone,,,,,,,,,,,,,,,,,,,,,,,,,,,,,,,,,,,,,,,,,,,,,,,,,,,,,,,,,,,,,,,,,,,,,,,,,,,,,,,,,,,,,,,,,,,,,,,,,,,,,,,,,,,,,,,,,,,,,,,,,,,,,,,,,,,,,,,,,,,,,,,,,,,,,,,,,,,,
,,,,,,6128be4387de5137b8ce6aa7,62c539c0b7d37a19065d965b,2022-07-06_09h29.45.540,Colour_Asymmetry_Pilot,2022.1.3,Win32,60.0024001,62c50e9c1127f2cd403a315f,0,77,77,149,1,threefour,,,,,,,,,,,,,,,,,,,,,,,,,,,,,,,,,,,,,,,,,,,,,,,,,,,,,,,,,,,,,,,,,,,,,,,,,,,,,,,,,,,,,,,,,,,,,,,,,,,,,,,,,,,,,,,,,,,,,,,,,,,,,,,,,,,,,,,,,,,,,,,,,,,,,,,,,,,,
,,,,,,6128be4387de5137b8ce6aa7,62c539c0b7d37a19065d965b,2022-07-06_09h29.45.540,Colour_Asymmetry_Pilot,2022.1.3,Win32,60.0024001,62c50e9c1127f2cd403a315f,0,78,78,134,1,fourtwo,,,,,,,,,,,,,,,,,,,,,,,,,,,,,,,,,,,,,,,,,,,,,,,,,,,,,,,,,,,,,,,,,,,,,,,,,,,,,,,,,,,,,,,,,,,,,,,,,,,,,,,,,,,,,,,,,,,,,,,,,,,,,,,,,,,,,,,,,,,,,,,,,,,,,,,,,,,,
,,,,,,6128be4387de5137b8ce6aa7,62c539c0b7d37a19065d965b,2022-07-06_09h29.45.540,Colour_Asymmetry_Pilot,2022.1.3,Win32,60.0024001,62c50e9c1127f2cd403a315f,0,79,79,10,1,twoone,,,,,,,,,,,,,,,,,,,,,,,,,,,,,,,,,,,,,,,,,,,,,,,,,,,,,,,,,,,,,,,,,,,,,,,,,,,,,,,,,,,,,,,,,,,,,,,,,,,,,,,,,,,,,,,,,,,,,,,,,,,,,,,,,,,,,,,,,,,,,,,,,,,,,,,,,,,,
,,,,,,6128be4387de5137b8ce6aa7,62c539c0b7d37a19065d965b,2022-07-06_09h29.45.540,Colour_Asymmetry_Pilot,2022.1.3,Win32,60.0024001,62c50e9c1127f2cd403a315f,0,80,80,111,1,fourthree,,,,,,,,,,,,,,,,,,,,,,,,,,,,,,,,,,,,,,,,,,,,,,,,,,,,,,,,,,,,,,,,,,,,,,,,,,,,,,,,,,,,,,,,,,,,,,,,,,,,,,,,,,,,,,,,,,,,,,,,,,,,,,,,,,,,,,,,,,,,,,,,,,,,,,,,,,,,
,,,,,,6128be4387de5137b8ce6aa7,62c539c0b7d37a19065d965b,2022-07-06_09h29.45.540,Colour_Asymmetry_Pilot,2022.1.3,Win32,60.0024001,62c50e9c1127f2cd403a315f,0,81,81,114,1,twoone,,,,,,,,,,,,,,,,,,,,,,,,,,,,,,,,,,,,,,,,,,,,,,,,,,,,,,,,,,,,,,,,,,,,,,,,,,,,,,,,,,,,,,,,,,,,,,,,,,,,,,,,,,,,,,,,,,,,,,,,,,,,,,,,,,,,,,,,,,,,,,,,,,,,,,,,,,,,
,,,,,,6128be4387de5137b8ce6aa7,62c539c0b7d37a19065d965b,2022-07-06_09h29.45.540,Colour_Asymmetry_Pilot,2022.1.3,Win32,60.0024001,62c50e9c1127f2cd403a315f,0,82,82,61,1,threefour,,,,,,,,,,,,,,,,,,,,,,,,,,,,,,,,,,,,,,,,,,,,,,,,,,,,,,,,,,,,,,,,,,,,,,,,,,,,,,,,,,,,,,,,,,,,,,,,,,,,,,,,,,,,,,,,,,,,,,,,,,,,,,,,,,,,,,,,,,,,,,,,,,,,,,,,,,,,
,,,,,,6128be4387de5137b8ce6aa7,62c539c0b7d37a19065d965b,2022-07-06_09h29.45.540,Colour_Asymmetry_Pilot,2022.1.3,Win32,60.0024001,62c50e9c1127f2cd403a315f,0,83,83,49,1,onethree,,,,,,,,,,,,,,,,,,,,,,,,,,,,,,,,,,,,,,,,,,,,,,,,,,,,,,,,,,,,,,,,,,,,,,,,,,,,,,,,,,,,,,,,,,,,,,,,,,,,,,,,,,,,,,,,,,,,,,,,,,,,,,,,,,,,,,,,,,,,,,,,,,,,,,,,,,,,
,,,,,,6128be4387de5137b8ce6aa7,62c539c0b7d37a19065d965b,2022-07-06_09h29.45.540,Colour_Asymmetry_Pilot,2022.1.3,Win32,60.0024001,62c50e9c1127f2cd403a315f,0,84,84,63,1,fourthree,,,,,,,,,,,,,,,,,,,,,,,,,,,,,,,,,,,,,,,,,,,,,,,,,,,,,,,,,,,,,,,,,,,,,,,,,,,,,,,,,,,,,,,,,,,,,,,,,,,,,,,,,,,,,,,,,,,,,,,,,,,,,,,,,,,,,,,,,,,,,,,,,,,,,,,,,,,,
,,,,,,6128be4387de5137b8ce6aa7,62c539c0b7d37a19065d965b,2022-07-06_09h29.45.540,Colour_Asymmetry_Pilot,2022.1.3,Win32,60.0024001,62c50e9c1127f2cd403a315f,0,85,85,14,1,fourtwo,,,,,,,,,,,,,,,,,,,,,,,,,,,,,,,,,,,,,,,,,,,,,,,,,,,,,,,,,,,,,,,,,,,,,,,,,,,,,,,,,,,,,,,,,,,,,,,,,,,,,,,,,,,,,,,,,,,,,,,,,,,,,,,,,,,,,,,,,,,,,,,,,,,,,,,,,,,,
,,,,,,6128be4387de5137b8ce6aa7,62c539c0b7d37a19065d965b,2022-07-06_09h29.45.540,Colour_Asymmetry_Pilot,2022.1.3,Win32,60.0024001,62c50e9c1127f2cd403a315f,0,86,86,95,1,fourthree,,,,,,,,,,,,,,,,,,,,,,,,,,,,,,,,,,,,,,,,,,,,,,,,,,,,,,,,,,,,,,,,,,,,,,,,,,,,,,,,,,,,,,,,,,,,,,,,,,,,,,,,,,,,,,,,,,,,,,,,,,,,,,,,,,,,,,,,,,,,,,,,,,,,,,,,,,,,
,,,,,,6128be4387de5137b8ce6aa7,62c539c0b7d37a19065d965b,2022-07-06_09h29.45.540,Colour_Asymmetry_Pilot,2022.1.3,Win32,60.0024001,62c50e9c1127f2cd403a315f,0,87,87,29,1,threefour,,,,,,,,,,,,,,,,,,,,,,,,,,,,,,,,,,,,,,,,,,,,,,,,,,,,,,,,,,,,,,,,,,,,,,,,,,,,,,,,,,,,,,,,,,,,,,,,,,,,,,,,,,,,,,,,,,,,,,,,,,,,,,,,,,,,,,,,,,,,,,,,,,,,,,,,,,,,
,,,,,,6128be4387de5137b8ce6aa7,62c539c0b7d37a19065d965b,2022-07-06_09h29.45.540,Colour_Asymmetry_Pilot,2022.1.3,Win32,60.0024001,62c50e9c1127f2cd403a315f,0,88,88,52,1,threeone,,,,,,,,,,,,,,,,,,,,,,,,,,,,,,,,,,,,,,,,,,,,,,,,,,,,,,,,,,,,,,,,,,,,,,,,,,,,,,,,,,,,,,,,,,,,,,,,,,,,,,,,,,,,,,,,,,,,,,,,,,,,,,,,,,,,,,,,,,,,,,,,,,,,,,,,,,,,
,,,,,,6128be4387de5137b8ce6aa7,62c539c0b7d37a19065d965b,2022-07-06_09h29.45.540,Colour_Asymmetry_Pilot,2022.1.3,Win32,60.0024001,62c50e9c1127f2cd403a315f,0,89,89,42,1,twoone,,,,,,,,,,,,,,,,,,,,,,,,,,,,,,,,,,,,,,,,,,,,,,,,,,,,,,,,,,,,,,,,,,,,,,,,,,,,,,,,,,,,,,,,,,,,,,,,,,,,,,,,,,,,,,,,,,,,,,,,,,,,,,,,,,,,,,,,,,,,,,,,,,,,,,,,,,,,
,,,,,,6128be4387de5137b8ce6aa7,62c539c0b7d37a19065d965b,2022-07-06_09h29.45.540,Colour_Asymmetry_Pilot,2022.1.3,Win32,60.0024001,62c50e9c1127f2cd403a315f,0,90,90,153,1,onethree,,,,,,,,,,,,,,,,,,,,,,,,,,,,,,,,,,,,,,,,,,,,,,,,,,,,,,,,,,,,,,,,,,,,,,,,,,,,,,,,,,,,,,,,,,,,,,,,,,,,,,,,,,,,,,,,,,,,,,,,,,,,,,,,,,,,,,,,,,,,,,,,,,,,,,,,,,,,
,,,,,,6128be4387de5137b8ce6aa7,62c539c0b7d37a19065d965b,2022-07-06_09h29.45.540,Colour_Asymmetry_Pilot,2022.1.3,Win32,60.0024001,62c50e9c1127f2cd403a315f,0,91,91,132,1,threeone,,,,,,,,,,,,,,,,,,,,,,,,,,,,,,,,,,,,,,,,,,,,,,,,,,,,,,,,,,,,,,,,,,,,,,,,,,,,,,,,,,,,,,,,,,,,,,,,,,,,,,,,,,,,,,,,,,,,,,,,,,,,,,,,,,,,,,,,,,,,,,,,,,,,,,,,,,,,
,,,,,,6128be4387de5137b8ce6aa7,62c539c0b7d37a19065d965b,2022-07-06_09h29.45.540,Colour_Asymmetry_Pilot,2022.1.3,Win32,60.0024001,62c50e9c1127f2cd403a315f,0,92,92,33,1,onethree,,,,,,,,,,,,,,,,,,,,,,,,,,,,,,,,,,,,,,,,,,,,,,,,,,,,,,,,,,,,,,,,,,,,,,,,,,,,,,,,,,,,,,,,,,,,,,,,,,,,,,,,,,,,,,,,,,,,,,,,,,,,,,,,,,,,,,,,,,,,,,,,,,,,,,,,,,,,
,,,,,,6128be4387de5137b8ce6aa7,62c539c0b7d37a19065d965b,2022-07-06_09h29.45.540,Colour_Asymmetry_Pilot,2022.1.3,Win32,60.0024001,62c50e9c1127f2cd403a315f,0,93,93,19,1,twofour,,,,,,,,,,,,,,,,,,,,,,,,,,,,,,,,,,,,,,,,,,,,,,,,,,,,,,,,,,,,,,,,,,,,,,,,,,,,,,,,,,,,,,,,,,,,,,,,,,,,,,,,,,,,,,,,,,,,,,,,,,,,,,,,,,,,,,,,,,,,,,,,,,,,,,,,,,,,
,,,,,,6128be4387de5137b8ce6aa7,62c539c0b7d37a19065d965b,2022-07-06_09h29.45.540,Colour_Asymmetry_Pilot,2022.1.3,Win32,60.0024001,62c50e9c1127f2cd403a315f,0,94,94,39,1,fourthree,,,,,,,,,,,,,,,,,,,,,,,,,,,,,,,,,,,,,,,,,,,,,,,,,,,,,,,,,,,,,,,,,,,,,,,,,,,,,,,,,,,,,,,,,,,,,,,,,,,,,,,,,,,,,,,,,,,,,,,,,,,,,,,,,,,,,,,,,,,,,,,,,,,,,,,,,,,,
,,,,,,6128be4387de5137b8ce6aa7,62c539c0b7d37a19065d965b,2022-07-06_09h29.45.540,Colour_Asymmetry_Pilot,2022.1.3,Win32,60.0024001,62c50e9c1127f2cd403a315f,0,95,95,82,1,twoone,,,,,,,,,,,,,,,,,,,,,,,,,,,,,,,,,,,,,,,,,,,,,,,,,,,,,,,,,,,,,,,,,,,,,,,,,,,,,,,,,,,,,,,,,,,,,,,,,,,,,,,,,,,,,,,,,,,,,,,,,,,,,,,,,,,,,,,,,,,,,,,,,,,,,,,,,,,,
,,,,,,6128be4387de5137b8ce6aa7,62c539c0b7d37a19065d965b,2022-07-06_09h29.45.540,Colour_Asymmetry_Pilot,2022.1.3,Win32,60.0024001,62c50e9c1127f2cd403a315f,0,96,96,15,1,fourthree,,,,,,,,,,,,,,,,,,,,,,,,,,,,,,,,,,,,,,,,,,,,,,,,,,,,,,,,,,,,,,,,,,,,,,,,,,,,,,,,,,,,,,,,,,,,,,,,,,,,,,,,,,,,,,,,,,,,,,,,,,,,,,,,,,,,,,,,,,,,,,,,,,,,,,,,,,,,
,,,,,,6128be4387de5137b8ce6aa7,62c539c0b7d37a19065d965b,2022-07-06_09h29.45.540,Colour_Asymmetry_Pilot,2022.1.3,Win32,60.0024001,62c50e9c1127f2cd403a315f,0,97,97,156,1,threeone,,,,,,,,,,,,,,,,,,,,,,,,,,,,,,,,,,,,,,,,,,,,,,,,,,,,,,,,,,,,,,,,,,,,,,,,,,,,,,,,,,,,,,,,,,,,,,,,,,,,,,,,,,,,,,,,,,,,,,,,,,,,,,,,,,,,,,,,,,,,,,,,,,,,,,,,,,,,
,,,,,,6128be4387de5137b8ce6aa7,62c539c0b7d37a19065d965b,2022-07-06_09h29.45.540,Colour_Asymmetry_Pilot,2022.1.3,Win32,60.0024001,62c50e9c1127f2cd403a315f,0,98,98,50,1,twoone,,,,,,,,,,,,,,,,,,,,,,,,,,,,,,,,,,,,,,,,,,,,,,,,,,,,,,,,,,,,,,,,,,,,,,,,,,,,,,,,,,,,,,,,,,,,,,,,,,,,,,,,,,,,,,,,,,,,,,,,,,,,,,,,,,,,,,,,,,,,,,,,,,,,,,,,,,,,
,,,,,,6128be4387de5137b8ce6aa7,62c539c0b7d37a19065d965b,2022-07-06_09h29.45.540,Colour_Asymmetry_Pilot,2022.1.3,Win32,60.0024001,62c50e9c1127f2cd403a315f,0,99,99,60,1,threeone,,,,,,,,,,,,,,,,,,,,,,,,,,,,,,,,,,,,,,,,,,,,,,,,,,,,,,,,,,,,,,,,,,,,,,,,,,,,,,,,,,,,,,,,,,,,,,,,,,,,,,,,,,,,,,,,,,,,,,,,,,,,,,,,,,,,,,,,,,,,,,,,,,,,,,,,,,,,
,,,,,,6128be4387de5137b8ce6aa7,62c539c0b7d37a19065d965b,2022-07-06_09h29.45.540,Colour_Asymmetry_Pilot,2022.1.3,Win32,60.0024001,62c50e9c1127f2cd403a315f,0,100,100,47,1,fourthree,,,,,,,,,,,,,,,,,,,,,,,,,,,,,,,,,,,,,,,,,,,,,,,,,,,,,,,,,,,,,,,,,,,,,,,,,,,,,,,,,,,,,,,,,,,,,,,,,,,,,,,,,,,,,,,,,,,,,,,,,,,,,,,,,,,,,,,,,,,,,,,,,,,,,,,,,,,,
,,,,,,6128be4387de5137b8ce6aa7,62c539c0b7d37a19065d965b,2022-07-06_09h29.45.540,Colour_Asymmetry_Pilot,2022.1.3,Win32,60.0024001,62c50e9c1127f2cd403a315f,0,101,101,24,1,onetwo,,,,,,,,,,,,,,,,,,,,,,,,,,,,,,,,,,,,,,,,,,,,,,,,,,,,,,,,,,,,,,,,,,,,,,,,,,,,,,,,,,,,,,,,,,,,,,,,,,,,,,,,,,,,,,,,,,,,,,,,,,,,,,,,,,,,,,,,,,,,,,,,,,,,,,,,,,,,
,,,,,,6128be4387de5137b8ce6aa7,62c539c0b7d37a19065d965b,2022-07-06_09h29.45.540,Colour_Asymmetry_Pilot,2022.1.3,Win32,60.0024001,62c50e9c1127f2cd403a315f,0,102,102,105,1,onethree,,,,,,,,,,,,,,,,,,,,,,,,,,,,,,,,,,,,,,,,,,,,,,,,,,,,,,,,,,,,,,,,,,,,,,,,,,,,,,,,,,,,,,,,,,,,,,,,,,,,,,,,,,,,,,,,,,,,,,,,,,,,,,,,,,,,,,,,,,,,,,,,,,,,,,,,,,,,
,,,,,,6128be4387de5137b8ce6aa7,62c539c0b7d37a19065d965b,2022-07-06_09h29.45.540,Colour_Asymmetry_Pilot,2022.1.3,Win32,60.0024001,62c50e9c1127f2cd403a315f,0,103,103,44,1,threeone,,,,,,,,,,,,,,,,,,,,,,,,,,,,,,,,,,,,,,,,,,,,,,,,,,,,,,,,,,,,,,,,,,,,,,,,,,,,,,,,,,,,,,,,,,,,,,,,,,,,,,,,,,,,,,,,,,,,,,,,,,,,,,,,,,,,,,,,,,,,,,,,,,,,,,,,,,,,
,,,,,,6128be4387de5137b8ce6aa7,62c539c0b7d37a19065d965b,2022-07-06_09h29.45.540,Colour_Asymmetry_Pilot,2022.1.3,Win32,60.0024001,62c50e9c1127f2cd403a315f,0,104,104,80,1,onetwo,,,,,,,,,,,,,,,,,,,,,,,,,,,,,,,,,,,,,,,,,,,,,,,,,,,,,,,,,,,,,,,,,,,,,,,,,,,,,,,,,,,,,,,,,,,,,,,,,,,,,,,,,,,,,,,,,,,,,,,,,,,,,,,,,,,,,,,,,,,,,,,,,,,,,,,,,,,,
,,,,,,6128be4387de5137b8ce6aa7,62c539c0b7d37a19065d965b,2022-07-06_09h29.45.540,Colour_Asymmetry_Pilot,2022.1.3,Win32,60.0024001,62c50e9c1127f2cd403a315f,0,105,105,28,1,threeone,,,,,,,,,,,,,,,,,,,,,,,,,,,,,,,,,,,,,,,,,,,,,,,,,,,,,,,,,,,,,,,,,,,,,,,,,,,,,,,,,,,,,,,,,,,,,,,,,,,,,,,,,,,,,,,,,,,,,,,,,,,,,,,,,,,,,,,,,,,,,,,,,,,,,,,,,,,,
,,,,,,6128be4387de5137b8ce6aa7,62c539c0b7d37a19065d965b,2022-07-06_09h29.45.540,Colour_Asymmetry_Pilot,2022.1.3,Win32,60.0024001,62c50e9c1127f2cd403a315f,0,106,106,155,1,twofour,,,,,,,,,,,,,,,,,,,,,,,,,,,,,,,,,,,,,,,,,,,,,,,,,,,,,,,,,,,,,,,,,,,,,,,,,,,,,,,,,,,,,,,,,,,,,,,,,,,,,,,,,,,,,,,,,,,,,,,,,,,,,,,,,,,,,,,,,,,,,,,,,,,,,,,,,,,,
,,,,,,6128be4387de5137b8ce6aa7,62c539c0b7d37a19065d965b,2022-07-06_09h29.45.540,Colour_Asymmetry_Pilot,2022.1.3,Win32,60.0024001,62c50e9c1127f2cd403a315f,0,107,107,38,1,fourtwo,,,,,,,,,,,,,,,,,,,,,,,,,,,,,,,,,,,,,,,,,,,,,,,,,,,,,,,,,,,,,,,,,,,,,,,,,,,,,,,,,,,,,,,,,,,,,,,,,,,,,,,,,,,,,,,,,,,,,,,,,,,,,,,,,,,,,,,,,,,,,,,,,,,,,,,,,,,,
,,,,,,6128be4387de5137b8ce6aa7,62c539c0b7d37a19065d965b,2022-07-06_09h29.45.540,Colour_Asymmetry_Pilot,2022.1.3,Win32,60.0024001,62c50e9c1127f2cd403a315f,0,108,108,110,1,fourtwo,,,,,,,,,,,,,,,,,,,,,,,,,,,,,,,,,,,,,,,,,,,,,,,,,,,,,,,,,,,,,,,,,,,,,,,,,,,,,,,,,,,,,,,,,,,,,,,,,,,,,,,,,,,,,,,,,,,,,,,,,,,,,,,,,,,,,,,,,,,,,,,,,,,,,,,,,,,,
,,,,,,6128be4387de5137b8ce6aa7,62c539c0b7d37a19065d965b,2022-07-06_09h29.45.540,Colour_Asymmetry_Pilot,2022.1.3,Win32,60.0024001,62c50e9c1127f2cd403a315f,0,109,109,16,1,onetwo,,,,,,,,,,,,,,,,,,,,,,,,,,,,,,,,,,,,,,,,,,,,,,,,,,,,,,,,,,,,,,,,,,,,,,,,,,,,,,,,,,,,,,,,,,,,,,,,,,,,,,,,,,,,,,,,,,,,,,,,,,,,,,,,,,,,,,,,,,,,,,,,,,,,,,,,,,,,
,,,,,,6128be4387de5137b8ce6aa7,62c539c0b7d37a19065d965b,2022-07-06_09h29.45.540,Colour_Asymmetry_Pilot,2022.1.3,Win32,60.0024001,62c50e9c1127f2cd403a315f,0,110,110,120,1,onetwo,,,,,,,,,,,,,,,,,,,,,,,,,,,,,,,,,,,,,,,,,,,,,,,,,,,,,,,,,,,,,,,,,,,,,,,,,,,,,,,,,,,,,,,,,,,,,,,,,,,,,,,,,,,,,,,,,,,,,,,,,,,,,,,,,,,,,,,,,,,,,,,,,,,,,,,,,,,,
,,,,,,6128be4387de5137b8ce6aa7,62c539c0b7d37a19065d965b,2022-07-06_09h29.45.540,Colour_Asymmetry_Pilot,2022.1.3,Win32,60.0024001,62c50e9c1127f2cd403a315f,0,111,111,150,1,fourtwo,,,,,,,,,,,,,,,,,,,,,,,,,,,,,,,,,,,,,,,,,,,,,,,,,,,,,,,,,,,,,,,,,,,,,,,,,,,,,,,,,,,,,,,,,,,,,,,,,,,,,,,,,,,,,,,,,,,,,,,,,,,,,,,,,,,,,,,,,,,,,,,,,,,,,,,,,,,,
,,,,,,6128be4387de5137b8ce6aa7,62c539c0b7d37a19065d965b,2022-07-06_09h29.45.540,Colour_Asymmetry_Pilot,2022.1.3,Win32,60.0024001,62c50e9c1127f2cd403a315f,0,112,112,154,1,twoone,,,,,,,,,,,,,,,,,,,,,,,,,,,,,,,,,,,,,,,,,,,,,,,,,,,,,,,,,,,,,,,,,,,,,,,,,,,,,,,,,,,,,,,,,,,,,,,,,,,,,,,,,,,,,,,,,,,,,,,,,,,,,,,,,,,,,,,,,,,,,,,,,,,,,,,,,,,,
,,,,,,6128be4387de5137b8ce6aa7,62c539c0b7d37a19065d965b,2022-07-06_09h29.45.540,Colour_Asymmetry_Pilot,2022.1.3,Win32,60.0024001,62c50e9c1127f2cd403a315f,0,113,113,147,1,twofour,,,,,,,,,,,,,,,,,,,,,,,,,,,,,,,,,,,,,,,,,,,,,,,,,,,,,,,,,,,,,,,,,,,,,,,,,,,,,,,,,,,,,,,,,,,,,,,,,,,,,,,,,,,,,,,,,,,,,,,,,,,,,,,,,,,,,,,,,,,,,,,,,,,,,,,,,,,,
,,,,,,6128be4387de5137b8ce6aa7,62c539c0b7d37a19065d965b,2022-07-06_09h29.45.540,Colour_Asymmetry_Pilot,2022.1.3,Win32,60.0024001,62c50e9c1127f2cd403a315f,0,114,114,75,1,twofour,,,,,,,,,,,,,,,,,,,,,,,,,,,,,,,,,,,,,,,,,,,,,,,,,,,,,,,,,,,,,,,,,,,,,,,,,,,,,,,,,,,,,,,,,,,,,,,,,,,,,,,,,,,,,,,,,,,,,,,,,,,,,,,,,,,,,,,,,,,,,,,,,,,,,,,,,,,,
,,,,,,6128be4387de5137b8ce6aa7,62c539c0b7d37a19065d965b,2022-07-06_09h29.45.540,Colour_Asymmetry_Pilot,2022.1.3,Win32,60.0024001,62c50e9c1127f2cd403a315f,0,115,115,78,1,fourtwo,,,,,,,,,,,,,,,,,,,,,,,,,,,,,,,,,,,,,,,,,,,,,,,,,,,,,,,,,,,,,,,,,,,,,,,,,,,,,,,,,,,,,,,,,,,,,,,,,,,,,,,,,,,,,,,,,,,,,,,,,,,,,,,,,,,,,,,,,,,,,,,,,,,,,,,,,,,,
,,,,,,6128be4387de5137b8ce6aa7,62c539c0b7d37a19065d965b,2022-07-06_09h29.45.540,Colour_Asymmetry_Pilot,2022.1.3,Win32,60.0024001,62c50e9c1127f2cd403a315f,0,116,116,96,1,onetwo,,,,,,,,,,,,,,,,,,,,,,,,,,,,,,,,,,,,,,,,,,,,,,,,,,,,,,,,,,,,,,,,,,,,,,,,,,,,,,,,,,,,,,,,,,,,,,,,,,,,,,,,,,,,,,,,,,,,,,,,,,,,,,,,,,,,,,,,,,,,,,,,,,,,,,,,,,,,
,,,,,,6128be4387de5137b8ce6aa7,62c539c0b7d37a19065d965b,2022-07-06_09h29.45.540,Colour_Asymmetry_Pilot,2022.1.3,Win32,60.0024001,62c50e9c1127f2cd403a315f,0,117,117,6,1,fourtwo,,,,,,,,,,,,,,,,,,,,,,,,,,,,,,,,,,,,,,,,,,,,,,,,,,,,,,,,,,,,,,,,,,,,,,,,,,,,,,,,,,,,,,,,,,,,,,,,,,,,,,,,,,,,,,,,,,,,,,,,,,,,,,,,,,,,,,,,,,,,,,,,,,,,,,,,,,,,
,,,,,,6128be4387de5137b8ce6aa7,62c539c0b7d37a19065d965b,2022-07-06_09h29.45.540,Colour_Asymmetry_Pilot,2022.1.3,Win32,60.0024001,62c50e9c1127f2cd403a315f,0,118,118,157,1,threefour,,,,,,,,,,,,,,,,,,,,,,,,,,,,,,,,,,,,,,,,,,,,,,,,,,,,,,,,,,,,,,,,,,,,,,,,,,,,,,,,,,,,,,,,,,,,,,,,,,,,,,,,,,,,,,,,,,,,,,,,,,,,,,,,,,,,,,,,,,,,,,,,,,,,,,,,,,,,
,,,,,,6128be4387de5137b8ce6aa7,62c539c0b7d37a19065d965b,2022-07-06_09h29.45.540,Colour_Asymmetry_Pilot,2022.1.3,Win32,60.0024001,62c50e9c1127f2cd403a315f,0,119,119,131,1,twofour,,,,,,,,,,,,,,,,,,,,,,,,,,,,,,,,,,,,,,,,,,,,,,,,,,,,,,,,,,,,,,,,,,,,,,,,,,,,,,,,,,,,,,,,,,,,,,,,,,,,,,,,,,,,,,,,,,,,,,,,,,,,,,,,,,,,,,,,,,,,,,,,,,,,,,,,,,,,
,,,,,,6128be4387de5137b8ce6aa7,62c539c0b7d37a19065d965b,2022-07-06_09h29.45.540,Colour_Asymmetry_Pilot,2022.1.3,Win32,60.0024001,62c50e9c1127f2cd403a315f,0,120,120,118,1,fourtwo,,,,,,,,,,,,,,,,,,,,,,,,,,,,,,,,,,,,,,,,,,,,,,,,,,,,,,,,,,,,,,,,,,,,,,,,,,,,,,,,,,,,,,,,,,,,,,,,,,,,,,,,,,,,,,,,,,,,,,,,,,,,,,,,,,,,,,,,,,,,,,,,,,,,,,,,,,,,
,,,,,,6128be4387de5137b8ce6aa7,62c539c0b7d37a19065d965b,2022-07-06_09h29.45.540,Colour_Asymmetry_Pilot,2022.1.3,Win32,60.0024001,62c50e9c1127f2cd403a315f,0,121,121,129,1,onethree,,,,,,,,,,,,,,,,,,,,,,,,,,,,,,,,,,,,,,,,,,,,,,,,,,,,,,,,,,,,,,,,,,,,,,,,,,,,,,,,,,,,,,,,,,,,,,,,,,,,,,,,,,,,,,,,,,,,,,,,,,,,,,,,,,,,,,,,,,,,,,,,,,,,,,,,,,,,
,,,,,,6128be4387de5137b8ce6aa7,62c539c0b7d37a19065d965b,2022-07-06_09h29.45.540,Colour_Asymmetry_Pilot,2022.1.3,Win32,60.0024001,62c50e9c1127f2cd403a315f,0,122,122,81,1,onethree,,,,,,,,,,,,,,,,,,,,,,,,,,,,,,,,,,,,,,,,,,,,,,,,,,,,,,,,,,,,,,,,,,,,,,,,,,,,,,,,,,,,,,,,,,,,,,,,,,,,,,,,,,,,,,,,,,,,,,,,,,,,,,,,,,,,,,,,,,,,,,,,,,,,,,,,,,,,
,,,,,,6128be4387de5137b8ce6aa7,62c539c0b7d37a19065d965b,2022-07-06_09h29.45.540,Colour_Asymmetry_Pilot,2022.1.3,Win32,60.0024001,62c50e9c1127f2cd403a315f,0,123,123,98,1,twoone,,,,,,,,,,,,,,,,,,,,,,,,,,,,,,,,,,,,,,,,,,,,,,,,,,,,,,,,,,,,,,,,,,,,,,,,,,,,,,,,,,,,,,,,,,,,,,,,,,,,,,,,,,,,,,,,,,,,,,,,,,,,,,,,,,,,,,,,,,,,,,,,,,,,,,,,,,,,
,,,,,,6128be4387de5137b8ce6aa7,62c539c0b7d37a19065d965b,2022-07-06_09h29.45.540,Colour_Asymmetry_Pilot,2022.1.3,Win32,60.0024001,62c50e9c1127f2cd403a315f,0,124,124,69,1,threefour,,,,,,,,,,,,,,,,,,,,,,,,,,,,,,,,,,,,,,,,,,,,,,,,,,,,,,,,,,,,,,,,,,,,,,,,,,,,,,,,,,,,,,,,,,,,,,,,,,,,,,,,,,,,,,,,,,,,,,,,,,,,,,,,,,,,,,,,,,,,,,,,,,,,,,,,,,,,
,,,,,,6128be4387de5137b8ce6aa7,62c539c0b7d37a19065d965b,2022-07-06_09h29.45.540,Colour_Asymmetry_Pilot,2022.1.3,Win32,60.0024001,62c50e9c1127f2cd403a315f,0,125,125,32,1,onetwo,,,,,,,,,,,,,,,,,,,,,,,,,,,,,,,,,,,,,,,,,,,,,,,,,,,,,,,,,,,,,,,,,,,,,,,,,,,,,,,,,,,,,,,,,,,,,,,,,,,,,,,,,,,,,,,,,,,,,,,,,,,,,,,,,,,,,,,,,,,,,,,,,,,,,,,,,,,,
,,,,,,6128be4387de5137b8ce6aa7,62c539c0b7d37a19065d965b,2022-07-06_09h29.45.540,Colour_Asymmetry_Pilot,2022.1.3,Win32,60.0024001,62c50e9c1127f2cd403a315f,0,126,126,62,1,fourtwo,,,,,,,,,,,,,,,,,,,,,,,,,,,,,,,,,,,,,,,,,,,,,,,,,,,,,,,,,,,,,,,,,,,,,,,,,,,,,,,,,,,,,,,,,,,,,,,,,,,,,,,,,,,,,,,,,,,,,,,,,,,,,,,,,,,,,,,,,,,,,,,,,,,,,,,,,,,,
,,,,,,6128be4387de5137b8ce6aa7,62c539c0b7d37a19065d965b,2022-07-06_09h29.45.540,Colour_Asymmetry_Pilot,2022.1.3,Win32,60.0024001,62c50e9c1127f2cd403a315f,0,127,127,2,1,twoone,,,,,,,,,,,,,,,,,,,,,,,,,,,,,,,,,,,,,,,,,,,,,,,,,,,,,,,,,,,,,,,,,,,,,,,,,,,,,,,,,,,,,,,,,,,,,,,,,,,,,,,,,,,,,,,,,,,,,,,,,,,,,,,,,,,,,,,,,,,,,,,,,,,,,,,,,,,,
,,,,,,6128be4387de5137b8ce6aa7,62c539c0b7d37a19065d965b,2022-07-06_09h29.45.540,Colour_Asymmetry_Pilot,2022.1.3,Win32,60.0024001,62c50e9c1127f2cd403a315f,0,128,128,64,1,onetwo,,,,,,,,,,,,,,,,,,,,,,,,,,,,,,,,,,,,,,,,,,,,,,,,,,,,,,,,,,,,,,,,,,,,,,,,,,,,,,,,,,,,,,,,,,,,,,,,,,,,,,,,,,,,,,,,,,,,,,,,,,,,,,,,,,,,,,,,,,,,,,,,,,,,,,,,,,,,
,,,,,,6128be4387de5137b8ce6aa7,62c539c0b7d37a19065d965b,2022-07-06_09h29.45.540,Colour_Asymmetry_Pilot,2022.1.3,Win32,60.0024001,62c50e9c1127f2cd403a315f,0,129,129,112,1,onetwo,,,,,,,,,,,,,,,,,,,,,,,,,,,,,,,,,,,,,,,,,,,,,,,,,,,,,,,,,,,,,,,,,,,,,,,,,,,,,,,,,,,,,,,,,,,,,,,,,,,,,,,,,,,,,,,,,,,,,,,,,,,,,,,,,,,,,,,,,,,,,,,,,,,,,,,,,,,,
,,,,,,6128be4387de5137b8ce6aa7,62c539c0b7d37a19065d965b,2022-07-06_09h29.45.540,Colour_Asymmetry_Pilot,2022.1.3,Win32,60.0024001,62c50e9c1127f2cd403a315f,0,130,130,160,1,onetwo,,,,,,,,,,,,,,,,,,,,,,,,,,,,,,,,,,,,,,,,,,,,,,,,,,,,,,,,,,,,,,,,,,,,,,,,,,,,,,,,,,,,,,,,,,,,,,,,,,,,,,,,,,,,,,,,,,,,,,,,,,,,,,,,,,,,,,,,,,,,,,,,,,,,,,,,,,,,
,,,,,,6128be4387de5137b8ce6aa7,62c539c0b7d37a19065d965b,2022-07-06_09h29.45.540,Colour_Asymmetry_Pilot,2022.1.3,Win32,60.0024001,62c50e9c1127f2cd403a315f,0,131,131,93,1,threefour,,,,,,,,,,,,,,,,,,,,,,,,,,,,,,,,,,,,,,,,,,,,,,,,,,,,,,,,,,,,,,,,,,,,,,,,,,,,,,,,,,,,,,,,,,,,,,,,,,,,,,,,,,,,,,,,,,,,,,,,,,,,,,,,,,,,,,,,,,,,,,,,,,,,,,,,,,,,
,,,,,,6128be4387de5137b8ce6aa7,62c539c0b7d37a19065d965b,2022-07-06_09h29.45.540,Colour_Asymmetry_Pilot,2022.1.3,Win32,60.0024001,62c50e9c1127f2cd403a315f,0,132,132,138,1,twoone,,,,,,,,,,,,,,,,,,,,,,,,,,,,,,,,,,,,,,,,,,,,,,,,,,,,,,,,,,,,,,,,,,,,,,,,,,,,,,,,,,,,,,,,,,,,,,,,,,,,,,,,,,,,,,,,,,,,,,,,,,,,,,,,,,,,,,,,,,,,,,,,,,,,,,,,,,,,
,,,,,,6128be4387de5137b8ce6aa7,62c539c0b7d37a19065d965b,2022-07-06_09h29.45.540,Colour_Asymmetry_Pilot,2022.1.3,Win32,60.0024001,62c50e9c1127f2cd403a315f,0,133,133,115,1,twofour,,,,,,,,,,,,,,,,,,,,,,,,,,,,,,,,,,,,,,,,,,,,,,,,,,,,,,,,,,,,,,,,,,,,,,,,,,,,,,,,,,,,,,,,,,,,,,,,,,,,,,,,,,,,,,,,,,,,,,,,,,,,,,,,,,,,,,,,,,,,,,,,,,,,,,,,,,,,
,,,,,,6128be4387de5137b8ce6aa7,62c539c0b7d37a19065d965b,2022-07-06_09h29.45.540,Colour_Asymmetry_Pilot,2022.1.3,Win32,60.0024001,62c50e9c1127f2cd403a315f,0,134,134,113,1,onethree,,,,,,,,,,,,,,,,,,,,,,,,,,,,,,,,,,,,,,,,,,,,,,,,,,,,,,,,,,,,,,,,,,,,,,,,,,,,,,,,,,,,,,,,,,,,,,,,,,,,,,,,,,,,,,,,,,,,,,,,,,,,,,,,,,,,,,,,,,,,,,,,,,,,,,,,,,,,
,,,,,,6128be4387de5137b8ce6aa7,62c539c0b7d37a19065d965b,2022-07-06_09h29.45.540,Colour_Asymmetry_Pilot,2022.1.3,Win32,60.0024001,62c50e9c1127f2cd403a315f,0,135,135,145,1,onethree,,,,,,,,,,,,,,,,,,,,,,,,,,,,,,,,,,,,,,,,,,,,,,,,,,,,,,,,,,,,,,,,,,,,,,,,,,,,,,,,,,,,,,,,,,,,,,,,,,,,,,,,,,,,,,,,,,,,,,,,,,,,,,,,,,,,,,,,,,,,,,,,,,,,,,,,,,,,
,,,,,,6128be4387de5137b8ce6aa7,62c539c0b7d37a19065d965b,2022-07-06_09h29.45.540,Colour_Asymmetry_Pilot,2022.1.3,Win32,60.0024001,62c50e9c1127f2cd403a315f,0,136,136,125,1,threefour,,,,,,,,,,,,,,,,,,,,,,,,,,,,,,,,,,,,,,,,,,,,,,,,,,,,,,,,,,,,,,,,,,,,,,,,,,,,,,,,,,,,,,,,,,,,,,,,,,,,,,,,,,,,,,,,,,,,,,,,,,,,,,,,,,,,,,,,,,,,,,,,,,,,,,,,,,,,
,,,,,,6128be4387de5137b8ce6aa7,62c539c0b7d37a19065d965b,2022-07-06_09h29.45.540,Colour_Asymmetry_Pilot,2022.1.3,Win32,60.0024001,62c50e9c1127f2cd403a315f,0,137,137,46,1,fourtwo,,,,,,,,,,,,,,,,,,,,,,,,,,,,,,,,,,,,,,,,,,,,,,,,,,,,,,,,,,,,,,,,,,,,,,,,,,,,,,,,,,,,,,,,,,,,,,,,,,,,,,,,,,,,,,,,,,,,,,,,,,,,,,,,,,,,,,,,,,,,,,,,,,,,,,,,,,,,
,,,,,,6128be4387de5137b8ce6aa7,62c539c0b7d37a19065d965b,2022-07-06_09h29.45.540,Colour_Asymmetry_Pilot,2022.1.3,Win32,60.0024001,62c50e9c1127f2cd403a315f,0,138,138,27,1,twofour,,,,,,,,,,,,,,,,,,,,,,,,,,,,,,,,,,,,,,,,,,,,,,,,,,,,,,,,,,,,,,,,,,,,,,,,,,,,,,,,,,,,,,,,,,,,,,,,,,,,,,,,,,,,,,,,,,,,,,,,,,,,,,,,,,,,,,,,,,,,,,,,,,,,,,,,,,,,
,,,,,,6128be4387de5137b8ce6aa7,62c539c0b7d37a19065d965b,2022-07-06_09h29.45.540,Colour_Asymmetry_Pilot,2022.1.3,Win32,60.0024001,62c50e9c1127f2cd403a315f,0,139,139,119,1,fourthree,,,,,,,,,,,,,,,,,,,,,,,,,,,,,,,,,,,,,,,,,,,,,,,,,,,,,,,,,,,,,,,,,,,,,,,,,,,,,,,,,,,,,,,,,,,,,,,,,,,,,,,,,,,,,,,,,,,,,,,,,,,,,,,,,,,,,,,,,,,,,,,,,,,,,,,,,,,,
,,,,,,6128be4387de5137b8ce6aa7,62c539c0b7d37a19065d965b,2022-07-06_09h29.45.540,Colour_Asymmetry_Pilot,2022.1.3,Win32,60.0024001,62c50e9c1127f2cd403a315f,0,140,140,159,1,fourthree,,,,,,,,,,,,,,,,,,,,,,,,,,,,,,,,,,,,,,,,,,,,,,,,,,,,,,,,,,,,,,,,,,,,,,,,,,,,,,,,,,,,,,,,,,,,,,,,,,,,,,,,,,,,,,,,,,,,,,,,,,,,,,,,,,,,,,,,,,,,,,,,,,,,,,,,,,,,
,,,,,,6128be4387de5137b8ce6aa7,62c539c0b7d37a19065d965b,2022-07-06_09h29.45.540,Colour_Asymmetry_Pilot,2022.1.3,Win32,60.0024001,62c50e9c1127f2cd403a315f,0,141,141,45,1,threefour,,,,,,,,,,,,,,,,,,,,,,,,,,,,,,,,,,,,,,,,,,,,,,,,,,,,,,,,,,,,,,,,,,,,,,,,,,,,,,,,,,,,,,,,,,,,,,,,,,,,,,,,,,,,,,,,,,,,,,,,,,,,,,,,,,,,,,,,,,,,,,,,,,,,,,,,,,,,
,,,,,,6128be4387de5137b8ce6aa7,62c539c0b7d37a19065d965b,2022-07-06_09h29.45.540,Colour_Asymmetry_Pilot,2022.1.3,Win32,60.0024001,62c50e9c1127f2cd403a315f,0,142,142,117,1,threefour,,,,,,,,,,,,,,,,,,,,,,,,,,,,,,,,,,,,,,,,,,,,,,,,,,,,,,,,,,,,,,,,,,,,,,,,,,,,,,,,,,,,,,,,,,,,,,,,,,,,,,,,,,,,,,,,,,,,,,,,,,,,,,,,,,,,,,,,,,,,,,,,,,,,,,,,,,,,
,,,,,,6128be4387de5137b8ce6aa7,62c539c0b7d37a19065d965b,2022-07-06_09h29.45.540,Colour_Asymmetry_Pilot,2022.1.3,Win32,60.0024001,62c50e9c1127f2cd403a315f,0,143,143,12,1,threeone,,,,,,,,,,,,,,,,,,,,,,,,,,,,,,,,,,,,,,,,,,,,,,,,,,,,,,,,,,,,,,,,,,,,,,,,,,,,,,,,,,,,,,,,,,,,,,,,,,,,,,,,,,,,,,,,,,,,,,,,,,,,,,,,,,,,,,,,,,,,,,,,,,,,,,,,,,,,
,,,,,,6128be4387de5137b8ce6aa7,62c539c0b7d37a19065d965b,2022-07-06_09h29.45.540,Colour_Asymmetry_Pilot,2022.1.3,Win32,60.0024001,62c50e9c1127f2cd403a315f,0,144,144,158,1,fourtwo,,,,,,,,,,,,,,,,,,,,,,,,,,,,,,,,,,,,,,,,,,,,,,,,,,,,,,,,,,,,,,,,,,,,,,,,,,,,,,,,,,,,,,,,,,,,,,,,,,,,,,,,,,,,,,,,,,,,,,,,,,,,,,,,,,,,,,,,,,,,,,,,,,,,,,,,,,,,
,,,,,,6128be4387de5137b8ce6aa7,62c539c0b7d37a19065d965b,2022-07-06_09h29.45.540,Colour_Asymmetry_Pilot,2022.1.3,Win32,60.0024001,62c50e9c1127f2cd403a315f,0,145,145,84,1,threeone,,,,,,,,,,,,,,,,,,,,,,,,,,,,,,,,,,,,,,,,,,,,,,,,,,,,,,,,,,,,,,,,,,,,,,,,,,,,,,,,,,,,,,,,,,,,,,,,,,,,,,,,,,,,,,,,,,,,,,,,,,,,,,,,,,,,,,,,,,,,,,,,,,,,,,,,,,,,
,,,,,,6128be4387de5137b8ce6aa7,62c539c0b7d37a19065d965b,2022-07-06_09h29.45.540,Colour_Asymmetry_Pilot,2022.1.3,Win32,60.0024001,62c50e9c1127f2cd403a315f,0,146,146,17,1,onethree,,,,,,,,,,,,,,,,,,,,,,,,,,,,,,,,,,,,,,,,,,,,,,,,,,,,,,,,,,,,,,,,,,,,,,,,,,,,,,,,,,,,,,,,,,,,,,,,,,,,,,,,,,,,,,,,,,,,,,,,,,,,,,,,,,,,,,,,,,,,,,,,,,,,,,,,,,,,
,,,,,,6128be4387de5137b8ce6aa7,62c539c0b7d37a19065d965b,2022-07-06_09h29.45.540,Colour_Asymmetry_Pilot,2022.1.3,Win32,60.0024001,62c50e9c1127f2cd403a315f,0,147,147,68,1,threeone,,,,,,,,,,,,,,,,,,,,,,,,,,,,,,,,,,,,,,,,,,,,,,,,,,,,,,,,,,,,,,,,,,,,,,,,,,,,,,,,,,,,,,,,,,,,,,,,,,,,,,,,,,,,,,,,,,,,,,,,,,,,,,,,,,,,,,,,,,,,,,,,,,,,,,,,,,,,
,,,,,,6128be4387de5137b8ce6aa7,62c539c0b7d37a19065d965b,2022-07-06_09h29.45.540,Colour_Asymmetry_Pilot,2022.1.3,Win32,60.0024001,62c50e9c1127f2cd403a315f,0,148,148,83,1,twofour,,,,,,,,,,,,,,,,,,,,,,,,,,,,,,,,,,,,,,,,,,,,,,,,,,,,,,,,,,,,,,,,,,,,,,,,,,,,,,,,,,,,,,,,,,,,,,,,,,,,,,,,,,,,,,,,,,,,,,,,,,,,,,,,,,,,,,,,,,,,,,,,,,,,,,,,,,,,
,,,,,,6128be4387de5137b8ce6aa7,62c539c0b7d37a19065d965b,2022-07-06_09h29.45.540,Colour_Asymmetry_Pilot,2022.1.3,Win32,60.0024001,62c50e9c1127f2cd403a315f,0,149,149,87,1,fourthree,,,,,,,,,,,,,,,,,,,,,,,,,,,,,,,,,,,,,,,,,,,,,,,,,,,,,,,,,,,,,,,,,,,,,,,,,,,,,,,,,,,,,,,,,,,,,,,,,,,,,,,,,,,,,,,,,,,,,,,,,,,,,,,,,,,,,,,,,,,,,,,,,,,,,,,,,,,,
,,,,,,6128be4387de5137b8ce6aa7,62c539c0b7d37a19065d965b,2022-07-06_09h29.45.540,Colour_Asymmetry_Pilot,2022.1.3,Win32,60.0024001,62c50e9c1127f2cd403a315f,0,150,150,8,1,onetwo,,,,,,,,,,,,,,,,,,,,,,,,,,,,,,,,,,,,,,,,,,,,,,,,,,,,,,,,,,,,,,,,,,,,,,,,,,,,,,,,,,,,,,,,,,,,,,,,,,,,,,,,,,,,,,,,,,,,,,,,,,,,,,,,,,,,,,,,,,,,,,,,,,,,,,,,,,,,
,,,,,,6128be4387de5137b8ce6aa7,62c539c0b7d37a19065d965b,2022-07-06_09h29.45.540,Colour_Asymmetry_Pilot,2022.1.3,Win32,60.0024001,62c50e9c1127f2cd403a315f,0,151,151,90,1,twoone,,,,,,,,,,,,,,,,,,,,,,,,,,,,,,,,,,,,,,,,,,,,,,,,,,,,,,,,,,,,,,,,,,,,,,,,,,,,,,,,,,,,,,,,,,,,,,,,,,,,,,,,,,,,,,,,,,,,,,,,,,,,,,,,,,,,,,,,,,,,,,,,,,,,,,,,,,,,
,,,,,,6128be4387de5137b8ce6aa7,62c539c0b7d37a19065d965b,2022-07-06_09h29.45.540,Colour_Asymmetry_Pilot,2022.1.3,Win32,60.0024001,62c50e9c1127f2cd403a315f,0,152,152,40,1,onetwo,,,,,,,,,,,,,,,,,,,,,,,,,,,,,,,,,,,,,,,,,,,,,,,,,,,,,,,,,,,,,,,,,,,,,,,,,,,,,,,,,,,,,,,,,,,,,,,,,,,,,,,,,,,,,,,,,,,,,,,,,,,,,,,,,,,,,,,,,,,,,,,,,,,,,,,,,,,,
,,,,,,6128be4387de5137b8ce6aa7,62c539c0b7d37a19065d965b,2022-07-06_09h29.45.540,Colour_Asymmetry_Pilot,2022.1.3,Win32,60.0024001,62c50e9c1127f2cd403a315f,0,153,153,122,1,twoone,,,,,,,,,,,,,,,,,,,,,,,,,,,,,,,,,,,,,,,,,,,,,,,,,,,,,,,,,,,,,,,,,,,,,,,,,,,,,,,,,,,,,,,,,,,,,,,,,,,,,,,,,,,,,,,,,,,,,,,,,,,,,,,,,,,,,,,,,,,,,,,,,,,,,,,,,,,,
,,,,,,6128be4387de5137b8ce6aa7,62c539c0b7d37a19065d965b,2022-07-06_09h29.45.540,Colour_Asymmetry_Pilot,2022.1.3,Win32,60.0024001,62c50e9c1127f2cd403a315f,0,154,154,79,1,fourthree,,,,,,,,,,,,,,,,,,,,,,,,,,,,,,,,,,,,,,,,,,,,,,,,,,,,,,,,,,,,,,,,,,,,,,,,,,,,,,,,,,,,,,,,,,,,,,,,,,,,,,,,,,,,,,,,,,,,,,,,,,,,,,,,,,,,,,,,,,,,,,,,,,,,,,,,,,,,
,,,,,,6128be4387de5137b8ce6aa7,62c539c0b7d37a19065d965b,2022-07-06_09h29.45.540,Colour_Asymmetry_Pilot,2022.1.3,Win32,60.0024001,62c50e9c1127f2cd403a315f,0,155,155,88,1,onetwo,,,,,,,,,,,,,,,,,,,,,,,,,,,,,,,,,,,,,,,,,,,,,,,,,,,,,,,,,,,,,,,,,,,,,,,,,,,,,,,,,,,,,,,,,,,,,,,,,,,,,,,,,,,,,,,,,,,,,,,,,,,,,,,,,,,,,,,,,,,,,,,,,,,,,,,,,,,,
,,,,,,6128be4387de5137b8ce6aa7,62c539c0b7d37a19065d965b,2022-07-06_09h29.45.540,Colour_Asymmetry_Pilot,2022.1.3,Win32,60.0024001,62c50e9c1127f2cd403a315f,0,156,156,36,1,threeone,,,,,,,,,,,,,,,,,,,,,,,,,,,,,,,,,,,,,,,,,,,,,,,,,,,,,,,,,,,,,,,,,,,,,,,,,,,,,,,,,,,,,,,,,,,,,,,,,,,,,,,,,,,,,,,,,,,,,,,,,,,,,,,,,,,,,,,,,,,,,,,,,,,,,,,,,,,,
,,,,,,6128be4387de5137b8ce6aa7,62c539c0b7d37a19065d965b,2022-07-06_09h29.45.540,Colour_Asymmetry_Pilot,2022.1.3,Win32,60.0024001,62c50e9c1127f2cd403a315f,0,157,157,57,1,onethree,,,,,,,,,,,,,,,,,,,,,,,,,,,,,,,,,,,,,,,,,,,,,,,,,,,,,,,,,,,,,,,,,,,,,,,,,,,,,,,,,,,,,,,,,,,,,,,,,,,,,,,,,,,,,,,,,,,,,,,,,,,,,,,,,,,,,,,,,,,,,,,,,,,,,,,,,,,,
,,,,,,6128be4387de5137b8ce6aa7,62c539c0b7d37a19065d965b,2022-07-06_09h29.45.540,Colour_Asymmetry_Pilot,2022.1.3,Win32,60.0024001,62c50e9c1127f2cd403a315f,0,158,158,0,1,onetwo,,,,,,,,,,,,,,,,,,,,,,,,,,,,,,,,,,,,,,,,,,,,,,,,,,,,,,,,,,,,,,,,,,,,,,,,,,,,,,,,,,,,,,,,,,,,,,,,,,,,,,,,,,,,,,,,,,,,,,,,,,,,,,,,,,,,,,,,,,,,,,,,,,,,,,,,,,,,
,,,,,,6128be4387de5137b8ce6aa7,62c539c0b7d37a19065d965b,2022-07-06_09h29.45.540,Colour_Asymmetry_Pilot,2022.1.3,Win32,60.0024001,62c50e9c1127f2cd403a315f,0,159,159,101,1,threefour,,,,,,,,,,,,,,,,,,,,,,,,,,,,,,,,,,,,,,,,,,,,,,,,,,,,,,,,,,,,,,,,,,,,,,,,,,,,,,,,,,,,,,,,,,,,,,,,,,,,,,,,,,,,,,,,,,,,,,,,,,,,,,,,,,,,,,,,,,,,,,,,,,,,,,,,,,,,
,,,,,,6128be4387de5137b8ce6aa7,62c539c0b7d37a19065d965b,2022-07-06_09h29.45.540,Colour_Asymmetry_Pilot,2022.1.3,Win32,60.0024001,62c50e9c1127f2cd403a315f,0,160,160,7,1,fourthree,,,,,,,,,,,,,,,,,,,,,,,,,,,,,,,,,,,,,,,,,,,,,,,,,,,,,,,,,,,,,,,,,,,,,,,,,,,,,,,,,,,,,,,,,,,,,,,,,,,,,,,,,,,,,,,,,,,,,,,,,,,,,,,,,,,,,,,,,,,,,,,,,,,,,,,,,,,,
,,,,,,6128be4387de5137b8ce6aa7,62c539c0b7d37a19065d965b,2022-07-06_09h29.45.540,Colour_Asymmetry_Pilot,2022.1.3,Win32,60.0024001,62c50e9c1127f2cd403a315f,0,161,161,109,1,threefour,,,,,,,,,,,,,,,,,,,,,,,,,,,,,,,,,,,,,,,,,,,,,,,,,,,,,,,,,,,,,,,,,,,,,,,,,,,,,,,,,,,,,,,,,,,,,,,,,,,,,,,,,,,,,,,,,,,,,,,,,,,,,,,,,,,,,,,,,,,,,,,,,,,,,,,,,,,,
,,,,,,6128be4387de5137b8ce6aa7,62c539c0b7d37a19065d965b,2022-07-06_09h29.45.540,Colour_Asymmetry_Pilot,2022.1.3,Win32,60.0024001,62c50e9c1127f2cd403a315f,,,,,,,space,21.0133,space,12.1556,space,28.0391,space,3.5671,space,2.0419,space,5.2284,"[0.3802000000000001,0.19199999999999995,-0.6394]",fourtwo,"[-0.9844,-0.9688,-0.9922]",-4,4.0372,-52,100,1,0,0,response7disk_5,-6,3,1,0,0,rectangle_8,-6,3,1,0,0,1,-6,3,1,0,0,0,0,0,0,1,,,,,,,,,,,,,,,,,,,,,,,,,,,,,,,,,,,,,,,,,,,,,,,,,,,,,,,,,,,,,,,,,,,,,,,,,,,,,,,,,,,,,,,,,,,,,,,,,,,,,,,,,,,,,,,
,,,,,,6128be4387de5137b8ce6aa7,62c539c0b7d37a19065d965b,2022-07-06_09h29.45.540,Colour_Asymmetry_Pilot,2022.1.3,Win32,60.0024001,62c50e9c1127f2cd403a315f,,,,,,,,,,,,,,,,,,,"[0.23920000000000008,0.2704,0.16060000000000008]",threeone,"[0.9763999999999999,0.30979999999999985,-0.6786]",-4,3.2822,-38,95,1,0,0,response7disk_5,-3,-10,1,0,0,rectangle_8,-3,-10,1,0,0,1,-3,-10,1,0,0,1,0,1,0,1,,,,,,,,,,,,,,,,,,,,,,,,,,,,,,,,,,,,,,,,,,,,,,,,,,,,,,,,,,,,,,,,,,,,,,,,,,,,,,,,,,,,,,,,,,,,,,,,,,,,,,,,,,,,,,,
,,,,,,6128be4387de5137b8ce6aa7,62c539c0b7d37a19065d965b,2022-07-06_09h29.45.540,Colour_Asymmetry_Pilot,2022.1.3,Win32,60.0024001,62c50e9c1127f2cd403a315f,,,,,,,,,,,,,,,,,,,"[0.23120000000000007,-0.7726,-0.34120000000000006]",threefour,"[0.40379999999999994,0.09000000000000008,0.44300000000000006]",1,2.7866,53,-84,1,0,0,response3disk_5,12,8,1,0,0,rectangle_8,37,-98,1,0,0,1,2,5,1,0,0,2,0,2,0,1,response3disk_7,4,rectangle_4,,,,,,,,,,,,,,,,,,,,,,,,,,,,,,,,,,,,,,,,,,,,,,,,,,,,,,,,,,,,,,,,,,,,,,,,,,,,,,,,,,,,,,,,,,,,,,,,,,,,,,,,,,,,
,,,,,,6128be4387de5137b8ce6aa7,62c539c0b7d37a19065d965b,2022-07-06_09h29.45.540,Colour_Asymmetry_Pilot,2022.1.3,Win32,60.0024001,62c50e9c1127f2cd403a315f,,,,,,,,,,,,,,,,,,,"[-0.6942,-0.7648,-0.12959999999999994]",threefour,"[-0.9138,-0.5296000000000001,-0.5529999999999999]",2,1.6395,81,-53,1,0,0,response3disk_5,-3,-2,1,0,0,rectangle_8,72,-91,1,0,0,1,10,8,1,0,0,3,0,3,0,1,response3disk_7,4,rectangle_4,,,,,,,,,,,,,,,,,,,,,,,,,,,,,,,,,,,,,,,,,,,,,,,,,,,,,,,,,,,,,,,,,,,,,,,,,,,,,,,,,,,,,,,,,,,,,,,,,,,,,,,,,,,,
,,,,,,6128be4387de5137b8ce6aa7,62c539c0b7d37a19065d965b,2022-07-06_09h29.45.540,Colour_Asymmetry_Pilot,2022.1.3,Win32,60.0024001,62c50e9c1127f2cd403a315f,,,,,,,,,,,,,,,,,,,"[0.3881999999999999,-0.23939999999999995,-0.05040000000000011]",onethree,"[-0.5452,-0.608,0.2470000000000001]",1,1.7915,42,-101,1,0,0,response3disk_5,6,3,1,0,0,rectangle_8,6,3,1,0,0,1,6,3,1,0,0,4,0,4,0,1,,,,,,,,,,,,,,,,,,,,,,,,,,,,,,,,,,,,,,,,,,,,,,,,,,,,,,,,,,,,,,,,,,,,,,,,,,,,,,,,,,,,,,,,,,,,,,,,,,,,,,,,,,,,,,,
,,,,,,6128be4387de5137b8ce6aa7,62c539c0b7d37a19065d965b,2022-07-06_09h29.45.540,Colour_Asymmetry_Pilot,2022.1.3,Win32,60.0024001,62c50e9c1127f2cd403a315f,,,,,,,,,,,,,,,,,,,"[0.7802,-0.23140000000000005,-0.20799999999999996]",threefour,"[-0.9844,-0.9688,-0.9922]",-4,0.9635,-43,82,1,0,0,response7disk_5,20,5,1,0,0,rectangle_8,20,5,1,0,0,1,20,5,1,0,0,5,0,5,0,1,,,,,,,,,,,,,,,,,,,,,,,,,,,,,,,,,,,,,,,,,,,,,,,,,,,,,,,,,,,,,,,,,,,,,,,,,,,,,,,,,,,,,,,,,,,,,,,,,,,,,,,,,,,,,,,
,,,,,,6128be4387de5137b8ce6aa7,62c539c0b7d37a19065d965b,2022-07-06_09h29.45.540,Colour_Asymmetry_Pilot,2022.1.3,Win32,60.0024001,62c50e9c1127f2cd403a315f,,,,,,,,,,,,,,,,,,,"[-0.5452,-0.608,0.2470000000000001]",threefour,"[0.8274000000000001,-0.5844,-0.9452]",-1,3.6298,-30,-109,1,0,0,response5disk_5,2,6,1,0,0,rectangle_8,2,6,1,0,0,1,2,6,1,0,0,6,0,6,0,1,,,,,,,,,,,,,,,,,,,,,,,,,,,,,,,,,,,,,,,,,,,,,,,,,,,,,,,,,,,,,,,,,,,,,,,,,,,,,,,,,,,,,,,,,,,,,,,,,,,,,,,,,,,,,,,
,,,,,,6128be4387de5137b8ce6aa7,62c539c0b7d37a19065d965b,2022-07-06_09h29.45.540,Colour_Asymmetry_Pilot,2022.1.3,Win32,60.0024001,62c50e9c1127f2cd403a315f,,,,,,,,,,,,,,,,,,,,twofour,,1,0.8039,,,,,,,,,,,,,,,,,,,,,,,,,,,,,,,,space,4.445,"[0.30180000000000007,-0.7884,-0.9844]","[-0.9688,-0.7412000000000001,-0.4902000000000001]",56,-81,1,0,0,response3disk,8,-7,1,0,0,rectangle,8,-7,1,0,0,,3,0.0044,0,8,-7,1,0,0,0,0,0,126,1,45,second,,,,,,,,,,,,,,,,,,,,,,,,,,,,,,,,,,,,,,,,,,,,,,,,,,,,,,,,,,,,,,,,,,,,,,,
,,,,,,6128be4387de5137b8ce6aa7,62c539c0b7d37a19065d965b,2022-07-06_09h29.45.540,Colour_Asymmetry_Pilot,2022.1.3,Win32,60.0024001,62c50e9c1127f2cd403a315f,,,,,,,,,,,,,,,,,,,,onethree,,-2,1.3653,,,,,,,,,,,,,,,,,,,,,,,,,,,,,,,,,,"[0.4196,0.4665999999999999,0.3568]","[-0.10599999999999998,-0.10599999999999998,0.5841999999999998]",-67,-52,1,0,0,response5disk,19,15,1,0,0,rectangle,19,15,1,0,0,3,2,0.0033,0,19,15,1,0,0,0,1,1,42,1,42,first,,,,,,,,,,,,,,,,,,,,,,,,,,,,,,,,,,,,,,,,,,,,,,,,,,,,,,,,,,,,,,,,,,,,,,,
,,,,,,6128be4387de5137b8ce6aa7,62c539c0b7d37a19065d965b,2022-07-06_09h29.45.540,Colour_Asymmetry_Pilot,2022.1.3,Win32,60.0024001,62c50e9c1127f2cd403a315f,,,,,,,,,,,,,,,,,,,,onetwo,,-1,1.7829,,,,,,,,,,,,,,,,,,,,,,,,,,,,,,,,,,"[-0.7412000000000001,-0.08239999999999992,-0.6864]","[-0.8982,-0.37259999999999993,0.2784]",-52,-99,1,0,0,response5disk,-15,-5,1,0,0,rectangle,-15,-5,1,0,0,3,3,0.0023,0,-15,-5,1,0,0,0,2,2,154,1,73,second,,,,,,,,,,,,,,,,,,,,,,,,,,,,,,,,,,,,,,,,,,,,,,,,,,,,,,,,,,,,,,,,,,,,,,,
,,,,,,6128be4387de5137b8ce6aa7,62c539c0b7d37a19065d965b,2022-07-06_09h29.45.540,Colour_Asymmetry_Pilot,2022.1.3,Win32,60.0024001,62c50e9c1127f2cd403a315f,,,,,,,,,,,,,,,,,,,,twofour,,2,1.4878,,,,,,,,,,,,,,,,,,,,,,,,,,,,,,,,,,"[0.18419999999999992,-0.4276,-0.404]","[0.6625999999999999,0.4980000000000002,-0.357]",83,-63,1,0,0,response3disk,22,6,1,0,0,rectangle,22,6,1,0,0,3,1,0.0027,0,22,6,1,0,0,0,3,3,62,1,62,first,,,,,,,,,,,,,,,,,,,,,,,,,,,,,,,,,,,,,,,,,,,,,,,,,,,,,,,,,,,,,,,,,,,,,,,
,,,,,,6128be4387de5137b8ce6aa7,62c539c0b7d37a19065d965b,2022-07-06_09h29.45.540,Colour_Asymmetry_Pilot,2022.1.3,Win32,60.0024001,62c50e9c1127f2cd403a315f,,,,,,,,,,,,,,,,,,,,threefour,,3,0.7981,,,,,,,,,,,,,,,,,,,,,,,,,,,,,,,,,,"[0.09799999999999986,-0.24719999999999998,0.15280000000000005]","[0.05879999999999996,0.2784,0.5841999999999998]",85,22,1,0,0,response1disk,29,3,1,0,0,rectangle,29,3,1,0,0,3,1,0.0004,0,29,3,1,0,0,0,4,4,157,1,76,second,,,,,,,,,,,,,,,,,,,,,,,,,,,,,,,,,,,,,,,,,,,,,,,,,,,,,,,,,,,,,,,,,,,,,,,
,,,,,,6128be4387de5137b8ce6aa7,62c539c0b7d37a19065d965b,2022-07-06_09h29.45.540,Colour_Asymmetry_Pilot,2022.1.3,Win32,60.0024001,62c50e9c1127f2cd403a315f,,,,,,,,,,,,,,,,,,,,threeone,,-1,1.1197,,,,,,,,,,,,,,,,,,,,,,,,,,,,,,,,,,"[-0.10599999999999998,-0.10599999999999998,0.5841999999999998]","[0.4196,0.4665999999999999,0.3568]",-22,-91,1,0,0,response5disk,6,-1,1,0,0,rectangle,6,-1,1,0,0,3,1,0.0002,0,6,-1,1,0,0,0,5,5,123,1,42,second,,,,,,,,,,,,,,,,,,,,,,,,,,,,,,,,,,,,,,,,,,,,,,,,,,,,,,,,,,,,,,,,,,,,,,,
,,,,,,6128be4387de5137b8ce6aa7,62c539c0b7d37a19065d965b,2022-07-06_09h29.45.540,Colour_Asymmetry_Pilot,2022.1.3,Win32,60.0024001,62c50e9c1127f2cd403a315f,,,,,,,,,,,,,,,,,,,,fourtwo,,2,1.6088,,,,,,,,,,,,,,,,,,,,,,,,,,,,,,,,,,"[-0.01980000000000004,-0.5138,-0.38039999999999996]","[0.05879999999999996,0.2784,0.5841999999999998]",72,-50,1,0,0,response3disk,13,-1,1,0,0,rectangle,13,-1,1,0,0,3,2,0.0015,0,13,-1,1,0,0,0,6,6,79,1,79,first,,,,,,,,,,,,,,,,,,,,,,,,,,,,,,,,,,,,,,,,,,,,,,,,,,,,,,,,,,,,,,,,,,,,,,,
,,,,,,6128be4387de5137b8ce6aa7,62c539c0b7d37a19065d965b,2022-07-06_09h29.45.540,Colour_Asymmetry_Pilot,2022.1.3,Win32,60.0024001,62c50e9c1127f2cd403a315f,,,,,,,,,,,,,,,,,,,,threeone,,2,0.4875,,,,,,,,,,,,,,,,,,,,,,,,,,,,,,,,,,"[0.2862,0.7802,0.3568]","[-0.30200000000000005,0.14500000000000002,0.2784]",70,-37,1,0,0,response3disk,8,4,1,0,0,rectangle,8,4,1,0,0,3,3,0.0023,0,8,4,1,0,0,0,7,7,111,1,30,second,,,,,,,,,,,,,,,,,,,,,,,,,,,,,,,,,,,,,,,,,,,,,,,,,,,,,,,,,,,,,,,,,,,,,,,
,,,,,,6128be4387de5137b8ce6aa7,62c539c0b7d37a19065d965b,2022-07-06_09h29.45.540,Colour_Asymmetry_Pilot,2022.1.3,Win32,60.0024001,62c50e9c1127f2cd403a315f,,,,,,,,,,,,,,,,,,,,onetwo,,2,0.4996,,,,,,,,,,,,,,,,,,,,,,,,,,,,,,,,,,"[0.9842,0.7409999999999999,-0.6628000000000001]","[0.7018,0.7802,-0.16079999999999994]",77,-50,1,0,0,response3disk,8,6,1,0,0,rectangle,8,6,1,0,0,3,3,0.0002,0,8,6,1,0,0,0,8,8,12,1,12,first,,,,,,,,,,,,,,,,,,,,,,,,,,,,,,,,,,,,,,,,,,,,,,,,,,,,,,,,,,,,,,,,,,,,,,,
,,,,,,6128be4387de5137b8ce6aa7,62c539c0b7d37a19065d965b,2022-07-06_09h29.45.540,Colour_Asymmetry_Pilot,2022.1.3,Win32,60.0024001,62c50e9c1127f2cd403a315f,,,,,,,,,,,,,,,,,,,,threefour,,-3,1.6348,,,,,,,,,,,,,,,,,,,,,,,,,,,,,,,,,,"[-0.0040000000000000036,0.02739999999999987,-0.08239999999999992]","[-0.9844,-0.9688,-0.9922]",-85,29,1,0,0,response7disk,-17,3,1,0,0,rectangle,-17,3,1,0,0,3,2,0.0024,0,-17,3,1,0,0,0,9,9,114,1,33,second,,,,,,,,,,,,,,,,,,,,,,,,,,,,,,,,,,,,,,,,,,,,,,,,,,,,,,,,,,,,,,,,,,,,,,,
,,,,,,6128be4387de5137b8ce6aa7,62c539c0b7d37a19065d965b,2022-07-06_09h29.45.540,Colour_Asymmetry_Pilot,2022.1.3,Win32,60.0024001,62c50e9c1127f2cd403a315f,,,,,,,,,,,,,,,,,,,,fourthree,,3,0.7809,,,,,,,,,,,,,,,,,,,,,,,,,,,,,,,,,,"[-0.9138,-0.5296000000000001,-0.5529999999999999]","[-0.24719999999999998,-0.0354000000000001,0.3175999999999999]",110,18,1,0,0,response1disk,11,1,1,0,0,rectangle,11,1,1,0,0,3,1,0.0024,0,11,1,1,0,0,0,10,10,142,1,61,second,,,,,,,,,,,,,,,,,,,,,,,,,,,,,,,,,,,,,,,,,,,,,,,,,,,,,,,,,,,,,,,,,,,,,,,
,,,,,,6128be4387de5137b8ce6aa7,62c539c0b7d37a19065d965b,2022-07-06_09h29.45.540,Colour_Asymmetry_Pilot,2022.1.3,Win32,60.0024001,62c50e9c1127f2cd403a315f,,,,,,,,,,,,,,,,,,,,fourthree,,3,0.5366,,,,,,,,,,,,,,,,,,,,,,,,,,,,,,,,,,"[-0.6942,-0.7648,-0.12959999999999994]","[-0.4668,-0.8746,-0.2942]",113,47,1,0,0,response1disk,14,-6,1,0,0,rectangle,14,-6,1,0,0,3,2,0.003,0,14,-6,1,0,0,0,11,11,91,1,10,second,,,,,,,,,,,,,,,,,,,,,,,,,,,,,,,,,,,,,,,,,,,,,,,,,,,,,,,,,,,,,,,,,,,,,,,
,,,,,,6128be4387de5137b8ce6aa7,62c539c0b7d37a19065d965b,2022-07-06_09h29.45.540,Colour_Asymmetry_Pilot,2022.1.3,Win32,60.0024001,62c50e9c1127f2cd403a315f,,,,,,,,,,,,,,,,,,,,twofour,,-2,1.2808,,,,,,,,,,,,,,,,,,,,,,,,,,,,,,,,,,"[0.8115999999999999,-0.0040000000000000036,-0.09819999999999995]","[-0.30200000000000005,0.14500000000000002,0.2784]",-62,-53,1,0,0,response5disk,-4,-8,1,0,0,rectangle,-4,-8,1,0,0,3,3,0.0024,0,-4,-8,1,0,0,0,12,12,3,1,3,first,,,,,,,,,,,,,,,,,,,,,,,,,,,,,,,,,,,,,,,,,,,,,,,,,,,,,,,,,,,,,,,,,,,,,,,
,,,,,,6128be4387de5137b8ce6aa7,62c539c0b7d37a19065d965b,2022-07-06_09h29.45.540,Colour_Asymmetry_Pilot,2022.1.3,Win32,60.0024001,62c50e9c1127f2cd403a315f,,,,,,,,,,,,,,,,,,,,twoone,,2,1.3803,,,,,,,,,,,,,,,,,,,,,,,,,,,,,,,,,,"[-0.9688,-0.7412000000000001,-0.4902000000000001]","[-0.4746,-0.0354000000000001,0.5449999999999999]",99,-58,1,0,0,response3disk,23,13,1,0,0,rectangle,23,13,1,0,0,3,2,0.0031,0,23,13,1,0,0,0,13,13,83,1,2,second,,,,,,,,,,,,,,,,,,,,,,,,,,,,,,,,,,,,,,,,,,,,,,,,,,,,,,,,,,,,,,,,,,,,,,,
,,,,,,6128be4387de5137b8ce6aa7,62c539c0b7d37a19065d965b,2022-07-06_09h29.45.540,Colour_Asymmetry_Pilot,2022.1.3,Win32,60.0024001,62c50e9c1127f2cd403a315f,,,,,,,,,,,,,,,,,,,,onethree,,1,1.3826,,,,,,,,,,,,,,,,,,,,,,,,,,,,,,,,,,"[-0.17659999999999998,0.3253999999999999,0.19999999999999996]","[0.0351999999999999,0.41159999999999997,0.0038000000000000256]",39,-90,1,0,0,response3disk,7,2,1,0,0,rectangle,7,2,1,0,0,3,2,0.0004,0,7,2,1,0,0,0,14,14,46,1,46,first,,,,,,,,,,,,,,,,,,,,,,,,,,,,,,,,,,,,,,,,,,,,,,,,,,,,,,,,,,,,,,,,,,,,,,,
,,,,,,6128be4387de5137b8ce6aa7,62c539c0b7d37a19065d965b,2022-07-06_09h29.45.540,Colour_Asymmetry_Pilot,2022.1.3,Win32,60.0024001,62c50e9c1127f2cd403a315f,,,,,,,,,,,,,,,,,,,,fourtwo,,-2,0.9529,,,,,,,,,,,,,,,,,,,,,,,,,,,,,,,,,,"[0.7018,0.7802,-0.16079999999999994]","[-0.5452,-0.608,0.2470000000000001]",-104,-54,1,0,0,response5disk,-20,-2,1,0,0,rectangle,-20,-2,1,0,0,3,3,0.0032,0,-20,-2,1,0,0,0,15,15,40,1,40,first,,,,,,,,,,,,,,,,,,,,,,,,,,,,,,,,,,,,,,,,,,,,,,,,,,,,,,,,,,,,,,,,,,,,,,,
,,,,,,6128be4387de5137b8ce6aa7,62c539c0b7d37a19065d965b,2022-07-06_09h29.45.540,Colour_Asymmetry_Pilot,2022.1.3,Win32,60.0024001,62c50e9c1127f2cd403a315f,,,,,,,,,,,,,,,,,,,,threeone,,2,0.9252,,,,,,,,,,,,,,,,,,,,,,,,,,,,,,,,,,"[0.8274000000000001,-0.5844,-0.9452]","[-0.9688,-0.4902000000000001,-0.12159999999999993]",95,-34,1,0,0,response3disk,-9,-4,1,0,0,rectangle,-9,-4,1,0,0,3,2,0.0013,0,-9,-4,1,0,0,0,16,16,148,1,67,second,,,,,,,,,,,,,,,,,,,,,,,,,,,,,,,,,,,,,,,,,,,,,,,,,,,,,,,,,,,,,,,,,,,,,,,
,,,,,,6128be4387de5137b8ce6aa7,62c539c0b7d37a19065d965b,2022-07-06_09h29.45.540,Colour_Asymmetry_Pilot,2022.1.3,Win32,60.0024001,62c50e9c1127f2cd403a315f,,,,,,,,,,,,,,,,,,,,twoone,,3,1.072,,,,,,,,,,,,,,,,,,,,,,,,,,,,,,,,,,"[0.9686000000000001,0.3802000000000001,0.19999999999999996]","[-0.050999999999999934,-0.6706000000000001,-0.804]",80,36,1,0,0,response1disk,-2,-10,1,0,0,rectangle,-2,-10,1,0,0,3,2,0.0001,0,-2,-10,1,0,0,0,17,17,147,1,66,second,,,,,,,,,,,,,,,,,,,,,,,,,,,,,,,,,,,,,,,,,,,,,,,,,,,,,,,,,,,,,,,,,,,,,,,
,,,,,,6128be4387de5137b8ce6aa7,62c539c0b7d37a19065d965b,2022-07-06_09h29.45.540,Colour_Asymmetry_Pilot,2022.1.3,Win32,60.0024001,62c50e9c1127f2cd403a315f,,,,,,,,,,,,,,,,,,,,twofour,,-1,1.553,,,,,,,,,,,,,,,,,,,,,,,,,,,,,,,,,,"[0.37240000000000006,-0.050999999999999934,-0.5216]","[-0.9296,-0.12959999999999994,-0.043199999999999905]",-49,-66,1,0,0,response5disk,-4,-9,1,0,0,rectangle,-4,-9,1,0,0,3,2,0.0003,0,-4,-9,1,0,0,0,18,18,95,1,14,second,,,,,,,,,,,,,,,,,,,,,,,,,,,,,,,,,,,,,,,,,,,,,,,,,,,,,,,,,,,,,,,,,,,,,,,
