trials.thisRepN,trials.thisTrialN,trials.thisN,trials.thisIndex,trials.ran,Colourcodes,participant,session,date,expName,psychopyVersion,OS,frameRate,study_id,trials_4.thisRepN,trials_4.thisTrialN,trials_4.thisN,trials_4.thisIndex,trials_4.ran,StimulusPos,key_resp.keys,key_resp.rt,key_resp_2.keys,key_resp_2.rt,key_resp_15.keys,key_resp_15.rt,key_resp_17.keys,key_resp_17.rt,key_resp_9.keys,key_resp_9.rt,key_resp_10.keys,key_resp_10.rt,Circle1_col,Ecc,Circle2_col,similarity,response_time,mouse_5.x,mouse_5.y,mouse_5.leftButton,mouse_5.midButton,mouse_5.rightButton,mouse_5.clicked_name,mouse_10.x,mouse_10.y,mouse_10.leftButton,mouse_10.midButton,mouse_10.rightButton,mouse_10.clicked_name,mouse_7.x,mouse_7.y,mouse_7.leftButton,mouse_7.midButton,mouse_7.rightButton,catchnumberprac,mouse_6.x,mouse_6.y,mouse_6.leftButton,mouse_6.midButton,mouse_6.rightButton,duringprac.thisRepN,duringprac.thisTrialN,duringprac.thisN,duringprac.thisIndex,duringprac.ran,mouse_7.clicked_name,catchprac,mouse_6.clicked_name,key_resp_22.keys,key_resp_22.rt,Circle1_colour,Circle2_colour,mouse.x,mouse.y,mouse.leftButton,mouse.midButton,mouse.rightButton,mouse.clicked_name,mouse_2.x,mouse_2.y,mouse_2.leftButton,mouse_2.midButton,mouse_2.rightButton,mouse_2.clicked_name,mouse_3.x,mouse_3.y,mouse_3.leftButton,mouse_3.midButton,mouse_3.rightButton,catchresponse,catchnumber,response_time_catch,Catch,mouse_11.x,mouse_11.y,mouse_11.leftButton,mouse_11.midButton,mouse_11.rightButton,trials_2.thisRepN,trials_2.thisTrialN,trials_2.thisN,trials_2.thisIndex,trials_2.ran,Colourpair,Temporder,mouse_3.clicked_name,mouse_11.clicked_name,trials_3.thisRepN,trials_3.thisTrialN,trials_3.thisN,trials_3.thisIndex,trials_3.ran,key_resp_instr_Ishi.keys,key_resp_instr_Ishi.rt,Ishi_trial_keyresp.keys,Ishi_textbox.text,Ishi_mouse.x,Ishi_mouse.y,Ishi_mouse.leftButton,Ishi_mouse.midButton,Ishi_mouse.rightButton,Ishi_mouse.clicked_name,Ishi_loop.thisRepN,Ishi_loop.thisTrialN,Ishi_loop.thisN,Ishi_loop.thisIndex,Ishi_loop.ran,imageaddress,textbox.text,mouse_4.x,mouse_4.y,mouse_4.leftButton,mouse_4.midButton,mouse_4.rightButton,mouse_4.clicked_name,textbox_2.text,mouse_8.x,mouse_8.y,mouse_8.leftButton,mouse_8.midButton,mouse_8.rightButton,mouse_8.clicked_name,textbox_3.text,mouse_9.x,mouse_9.y,mouse_9.leftButton,mouse_9.midButton,mouse_9.rightButton,mouse_9.clicked_name,textbox_4.text,mouse_12.x,mouse_12.y,mouse_12.leftButton,mouse_12.midButton,mouse_12.rightButton,mouse_12.clicked_name,textbox_5.text,mouse_13.x,mouse_13.y,mouse_13.leftButton,mouse_13.midButton,mouse_13.rightButton,mouse_13.clicked_name,textbox_6.text,mouse_14.x,mouse_14.y,mouse_14.leftButton,mouse_14.midButton,mouse_14.rightButton,mouse_14.clicked_name,textbox_7.text,mouse_15.x,mouse_15.y,mouse_15.leftButton,mouse_15.midButton,mouse_15.rightButton,mouse_15.clicked_name
0,0,0,62,1,,6154f446688aad7658909dc9,62c539d3d2b6fa4cee194347,2022-07-06_02h35.17.826,Colour_Asymmetry_Pilot,2022.1.3,Win32,56.84402001,62c50e9c1127f2cd403a315f,,,,,,,,,,,,,,,,,,,,,,,,,,,,,,,,,,,,,,,,,,,,,,,,,,,,,,,,,,,,,,,,,,,,,,,,,,,,,,,,,,,,,,,,,,,,,,,,,,,,,,,,,,,,,,,,,,,,,,,,,,,,,,,,,,,,,,,,,,,,,,,,,,,,,,,,,,,,,,,,,,,
0,1,1,54,1,,6154f446688aad7658909dc9,62c539d3d2b6fa4cee194347,2022-07-06_02h35.17.826,Colour_Asymmetry_Pilot,2022.1.3,Win32,56.84402001,62c50e9c1127f2cd403a315f,,,,,,,,,,,,,,,,,,,,,,,,,,,,,,,,,,,,,,,,,,,,,,,,,,,,,,,,,,,,,,,,,,,,,,,,,,,,,,,,,,,,,,,,,,,,,,,,,,,,,,,,,,,,,,,,,,,,,,,,,,,,,,,,,,,,,,,,,,,,,,,,,,,,,,,,,,,,,,,,,,,
0,2,2,48,1,,6154f446688aad7658909dc9,62c539d3d2b6fa4cee194347,2022-07-06_02h35.17.826,Colour_Asymmetry_Pilot,2022.1.3,Win32,56.84402001,62c50e9c1127f2cd403a315f,,,,,,,,,,,,,,,,,,,,,,,,,,,,,,,,,,,,,,,,,,,,,,,,,,,,,,,,,,,,,,,,,,,,,,,,,,,,,,,,,,,,,,,,,,,,,,,,,,,,,,,,,,,,,,,,,,,,,,,,,,,,,,,,,,,,,,,,,,,,,,,,,,,,,,,,,,,,,,,,,,,
0,3,3,0,1,,6154f446688aad7658909dc9,62c539d3d2b6fa4cee194347,2022-07-06_02h35.17.826,Colour_Asymmetry_Pilot,2022.1.3,Win32,56.84402001,62c50e9c1127f2cd403a315f,,,,,,,,,,,,,,,,,,,,,,,,,,,,,,,,,,,,,,,,,,,,,,,,,,,,,,,,,,,,,,,,,,,,,,,,,,,,,,,,,,,,,,,,,,,,,,,,,,,,,,,,,,,,,,,,,,,,,,,,,,,,,,,,,,,,,,,,,,,,,,,,,,,,,,,,,,,,,,,,,,,
0,4,4,56,1,,6154f446688aad7658909dc9,62c539d3d2b6fa4cee194347,2022-07-06_02h35.17.826,Colour_Asymmetry_Pilot,2022.1.3,Win32,56.84402001,62c50e9c1127f2cd403a315f,,,,,,,,,,,,,,,,,,,,,,,,,,,,,,,,,,,,,,,,,,,,,,,,,,,,,,,,,,,,,,,,,,,,,,,,,,,,,,,,,,,,,,,,,,,,,,,,,,,,,,,,,,,,,,,,,,,,,,,,,,,,,,,,,,,,,,,,,,,,,,,,,,,,,,,,,,,,,,,,,,,
0,5,5,24,1,,6154f446688aad7658909dc9,62c539d3d2b6fa4cee194347,2022-07-06_02h35.17.826,Colour_Asymmetry_Pilot,2022.1.3,Win32,56.84402001,62c50e9c1127f2cd403a315f,,,,,,,,,,,,,,,,,,,,,,,,,,,,,,,,,,,,,,,,,,,,,,,,,,,,,,,,,,,,,,,,,,,,,,,,,,,,,,,,,,,,,,,,,,,,,,,,,,,,,,,,,,,,,,,,,,,,,,,,,,,,,,,,,,,,,,,,,,,,,,,,,,,,,,,,,,,,,,,,,,,
0,6,6,89,1,,6154f446688aad7658909dc9,62c539d3d2b6fa4cee194347,2022-07-06_02h35.17.826,Colour_Asymmetry_Pilot,2022.1.3,Win32,56.84402001,62c50e9c1127f2cd403a315f,,,,,,,,,,,,,,,,,,,,,,,,,,,,,,,,,,,,,,,,,,,,,,,,,,,,,,,,,,,,,,,,,,,,,,,,,,,,,,,,,,,,,,,,,,,,,,,,,,,,,,,,,,,,,,,,,,,,,,,,,,,,,,,,,,,,,,,,,,,,,,,,,,,,,,,,,,,,,,,,,,,
0,7,7,55,1,,6154f446688aad7658909dc9,62c539d3d2b6fa4cee194347,2022-07-06_02h35.17.826,Colour_Asymmetry_Pilot,2022.1.3,Win32,56.84402001,62c50e9c1127f2cd403a315f,,,,,,,,,,,,,,,,,,,,,,,,,,,,,,,,,,,,,,,,,,,,,,,,,,,,,,,,,,,,,,,,,,,,,,,,,,,,,,,,,,,,,,,,,,,,,,,,,,,,,,,,,,,,,,,,,,,,,,,,,,,,,,,,,,,,,,,,,,,,,,,,,,,,,,,,,,,,,,,,,,,
0,8,8,35,1,,6154f446688aad7658909dc9,62c539d3d2b6fa4cee194347,2022-07-06_02h35.17.826,Colour_Asymmetry_Pilot,2022.1.3,Win32,56.84402001,62c50e9c1127f2cd403a315f,,,,,,,,,,,,,,,,,,,,,,,,,,,,,,,,,,,,,,,,,,,,,,,,,,,,,,,,,,,,,,,,,,,,,,,,,,,,,,,,,,,,,,,,,,,,,,,,,,,,,,,,,,,,,,,,,,,,,,,,,,,,,,,,,,,,,,,,,,,,,,,,,,,,,,,,,,,,,,,,,,,
0,9,9,58,1,,6154f446688aad7658909dc9,62c539d3d2b6fa4cee194347,2022-07-06_02h35.17.826,Colour_Asymmetry_Pilot,2022.1.3,Win32,56.84402001,62c50e9c1127f2cd403a315f,,,,,,,,,,,,,,,,,,,,,,,,,,,,,,,,,,,,,,,,,,,,,,,,,,,,,,,,,,,,,,,,,,,,,,,,,,,,,,,,,,,,,,,,,,,,,,,,,,,,,,,,,,,,,,,,,,,,,,,,,,,,,,,,,,,,,,,,,,,,,,,,,,,,,,,,,,,,,,,,,,,
0,10,10,30,1,,6154f446688aad7658909dc9,62c539d3d2b6fa4cee194347,2022-07-06_02h35.17.826,Colour_Asymmetry_Pilot,2022.1.3,Win32,56.84402001,62c50e9c1127f2cd403a315f,,,,,,,,,,,,,,,,,,,,,,,,,,,,,,,,,,,,,,,,,,,,,,,,,,,,,,,,,,,,,,,,,,,,,,,,,,,,,,,,,,,,,,,,,,,,,,,,,,,,,,,,,,,,,,,,,,,,,,,,,,,,,,,,,,,,,,,,,,,,,,,,,,,,,,,,,,,,,,,,,,,
0,11,11,76,1,,6154f446688aad7658909dc9,62c539d3d2b6fa4cee194347,2022-07-06_02h35.17.826,Colour_Asymmetry_Pilot,2022.1.3,Win32,56.84402001,62c50e9c1127f2cd403a315f,,,,,,,,,,,,,,,,,,,,,,,,,,,,,,,,,,,,,,,,,,,,,,,,,,,,,,,,,,,,,,,,,,,,,,,,,,,,,,,,,,,,,,,,,,,,,,,,,,,,,,,,,,,,,,,,,,,,,,,,,,,,,,,,,,,,,,,,,,,,,,,,,,,,,,,,,,,,,,,,,,,
0,12,12,84,1,,6154f446688aad7658909dc9,62c539d3d2b6fa4cee194347,2022-07-06_02h35.17.826,Colour_Asymmetry_Pilot,2022.1.3,Win32,56.84402001,62c50e9c1127f2cd403a315f,,,,,,,,,,,,,,,,,,,,,,,,,,,,,,,,,,,,,,,,,,,,,,,,,,,,,,,,,,,,,,,,,,,,,,,,,,,,,,,,,,,,,,,,,,,,,,,,,,,,,,,,,,,,,,,,,,,,,,,,,,,,,,,,,,,,,,,,,,,,,,,,,,,,,,,,,,,,,,,,,,,
0,13,13,82,1,,6154f446688aad7658909dc9,62c539d3d2b6fa4cee194347,2022-07-06_02h35.17.826,Colour_Asymmetry_Pilot,2022.1.3,Win32,56.84402001,62c50e9c1127f2cd403a315f,,,,,,,,,,,,,,,,,,,,,,,,,,,,,,,,,,,,,,,,,,,,,,,,,,,,,,,,,,,,,,,,,,,,,,,,,,,,,,,,,,,,,,,,,,,,,,,,,,,,,,,,,,,,,,,,,,,,,,,,,,,,,,,,,,,,,,,,,,,,,,,,,,,,,,,,,,,,,,,,,,,
0,14,14,51,1,,6154f446688aad7658909dc9,62c539d3d2b6fa4cee194347,2022-07-06_02h35.17.826,Colour_Asymmetry_Pilot,2022.1.3,Win32,56.84402001,62c50e9c1127f2cd403a315f,,,,,,,,,,,,,,,,,,,,,,,,,,,,,,,,,,,,,,,,,,,,,,,,,,,,,,,,,,,,,,,,,,,,,,,,,,,,,,,,,,,,,,,,,,,,,,,,,,,,,,,,,,,,,,,,,,,,,,,,,,,,,,,,,,,,,,,,,,,,,,,,,,,,,,,,,,,,,,,,,,,
0,15,15,50,1,,6154f446688aad7658909dc9,62c539d3d2b6fa4cee194347,2022-07-06_02h35.17.826,Colour_Asymmetry_Pilot,2022.1.3,Win32,56.84402001,62c50e9c1127f2cd403a315f,,,,,,,,,,,,,,,,,,,,,,,,,,,,,,,,,,,,,,,,,,,,,,,,,,,,,,,,,,,,,,,,,,,,,,,,,,,,,,,,,,,,,,,,,,,,,,,,,,,,,,,,,,,,,,,,,,,,,,,,,,,,,,,,,,,,,,,,,,,,,,,,,,,,,,,,,,,,,,,,,,,
0,16,16,87,1,,6154f446688aad7658909dc9,62c539d3d2b6fa4cee194347,2022-07-06_02h35.17.826,Colour_Asymmetry_Pilot,2022.1.3,Win32,56.84402001,62c50e9c1127f2cd403a315f,,,,,,,,,,,,,,,,,,,,,,,,,,,,,,,,,,,,,,,,,,,,,,,,,,,,,,,,,,,,,,,,,,,,,,,,,,,,,,,,,,,,,,,,,,,,,,,,,,,,,,,,,,,,,,,,,,,,,,,,,,,,,,,,,,,,,,,,,,,,,,,,,,,,,,,,,,,,,,,,,,,
0,17,17,61,1,,6154f446688aad7658909dc9,62c539d3d2b6fa4cee194347,2022-07-06_02h35.17.826,Colour_Asymmetry_Pilot,2022.1.3,Win32,56.84402001,62c50e9c1127f2cd403a315f,,,,,,,,,,,,,,,,,,,,,,,,,,,,,,,,,,,,,,,,,,,,,,,,,,,,,,,,,,,,,,,,,,,,,,,,,,,,,,,,,,,,,,,,,,,,,,,,,,,,,,,,,,,,,,,,,,,,,,,,,,,,,,,,,,,,,,,,,,,,,,,,,,,,,,,,,,,,,,,,,,,
0,18,18,18,1,,6154f446688aad7658909dc9,62c539d3d2b6fa4cee194347,2022-07-06_02h35.17.826,Colour_Asymmetry_Pilot,2022.1.3,Win32,56.84402001,62c50e9c1127f2cd403a315f,,,,,,,,,,,,,,,,,,,,,,,,,,,,,,,,,,,,,,,,,,,,,,,,,,,,,,,,,,,,,,,,,,,,,,,,,,,,,,,,,,,,,,,,,,,,,,,,,,,,,,,,,,,,,,,,,,,,,,,,,,,,,,,,,,,,,,,,,,,,,,,,,,,,,,,,,,,,,,,,,,,
0,19,19,66,1,,6154f446688aad7658909dc9,62c539d3d2b6fa4cee194347,2022-07-06_02h35.17.826,Colour_Asymmetry_Pilot,2022.1.3,Win32,56.84402001,62c50e9c1127f2cd403a315f,,,,,,,,,,,,,,,,,,,,,,,,,,,,,,,,,,,,,,,,,,,,,,,,,,,,,,,,,,,,,,,,,,,,,,,,,,,,,,,,,,,,,,,,,,,,,,,,,,,,,,,,,,,,,,,,,,,,,,,,,,,,,,,,,,,,,,,,,,,,,,,,,,,,,,,,,,,,,,,,,,,
0,20,20,49,1,,6154f446688aad7658909dc9,62c539d3d2b6fa4cee194347,2022-07-06_02h35.17.826,Colour_Asymmetry_Pilot,2022.1.3,Win32,56.84402001,62c50e9c1127f2cd403a315f,,,,,,,,,,,,,,,,,,,,,,,,,,,,,,,,,,,,,,,,,,,,,,,,,,,,,,,,,,,,,,,,,,,,,,,,,,,,,,,,,,,,,,,,,,,,,,,,,,,,,,,,,,,,,,,,,,,,,,,,,,,,,,,,,,,,,,,,,,,,,,,,,,,,,,,,,,,,,,,,,,,
0,21,21,42,1,,6154f446688aad7658909dc9,62c539d3d2b6fa4cee194347,2022-07-06_02h35.17.826,Colour_Asymmetry_Pilot,2022.1.3,Win32,56.84402001,62c50e9c1127f2cd403a315f,,,,,,,,,,,,,,,,,,,,,,,,,,,,,,,,,,,,,,,,,,,,,,,,,,,,,,,,,,,,,,,,,,,,,,,,,,,,,,,,,,,,,,,,,,,,,,,,,,,,,,,,,,,,,,,,,,,,,,,,,,,,,,,,,,,,,,,,,,,,,,,,,,,,,,,,,,,,,,,,,,,
0,22,22,5,1,,6154f446688aad7658909dc9,62c539d3d2b6fa4cee194347,2022-07-06_02h35.17.826,Colour_Asymmetry_Pilot,2022.1.3,Win32,56.84402001,62c50e9c1127f2cd403a315f,,,,,,,,,,,,,,,,,,,,,,,,,,,,,,,,,,,,,,,,,,,,,,,,,,,,,,,,,,,,,,,,,,,,,,,,,,,,,,,,,,,,,,,,,,,,,,,,,,,,,,,,,,,,,,,,,,,,,,,,,,,,,,,,,,,,,,,,,,,,,,,,,,,,,,,,,,,,,,,,,,,
0,23,23,10,1,,6154f446688aad7658909dc9,62c539d3d2b6fa4cee194347,2022-07-06_02h35.17.826,Colour_Asymmetry_Pilot,2022.1.3,Win32,56.84402001,62c50e9c1127f2cd403a315f,,,,,,,,,,,,,,,,,,,,,,,,,,,,,,,,,,,,,,,,,,,,,,,,,,,,,,,,,,,,,,,,,,,,,,,,,,,,,,,,,,,,,,,,,,,,,,,,,,,,,,,,,,,,,,,,,,,,,,,,,,,,,,,,,,,,,,,,,,,,,,,,,,,,,,,,,,,,,,,,,,,
0,24,24,69,1,,6154f446688aad7658909dc9,62c539d3d2b6fa4cee194347,2022-07-06_02h35.17.826,Colour_Asymmetry_Pilot,2022.1.3,Win32,56.84402001,62c50e9c1127f2cd403a315f,,,,,,,,,,,,,,,,,,,,,,,,,,,,,,,,,,,,,,,,,,,,,,,,,,,,,,,,,,,,,,,,,,,,,,,,,,,,,,,,,,,,,,,,,,,,,,,,,,,,,,,,,,,,,,,,,,,,,,,,,,,,,,,,,,,,,,,,,,,,,,,,,,,,,,,,,,,,,,,,,,,
0,25,25,59,1,,6154f446688aad7658909dc9,62c539d3d2b6fa4cee194347,2022-07-06_02h35.17.826,Colour_Asymmetry_Pilot,2022.1.3,Win32,56.84402001,62c50e9c1127f2cd403a315f,,,,,,,,,,,,,,,,,,,,,,,,,,,,,,,,,,,,,,,,,,,,,,,,,,,,,,,,,,,,,,,,,,,,,,,,,,,,,,,,,,,,,,,,,,,,,,,,,,,,,,,,,,,,,,,,,,,,,,,,,,,,,,,,,,,,,,,,,,,,,,,,,,,,,,,,,,,,,,,,,,,
0,26,26,19,1,,6154f446688aad7658909dc9,62c539d3d2b6fa4cee194347,2022-07-06_02h35.17.826,Colour_Asymmetry_Pilot,2022.1.3,Win32,56.84402001,62c50e9c1127f2cd403a315f,,,,,,,,,,,,,,,,,,,,,,,,,,,,,,,,,,,,,,,,,,,,,,,,,,,,,,,,,,,,,,,,,,,,,,,,,,,,,,,,,,,,,,,,,,,,,,,,,,,,,,,,,,,,,,,,,,,,,,,,,,,,,,,,,,,,,,,,,,,,,,,,,,,,,,,,,,,,,,,,,,,
0,27,27,73,1,,6154f446688aad7658909dc9,62c539d3d2b6fa4cee194347,2022-07-06_02h35.17.826,Colour_Asymmetry_Pilot,2022.1.3,Win32,56.84402001,62c50e9c1127f2cd403a315f,,,,,,,,,,,,,,,,,,,,,,,,,,,,,,,,,,,,,,,,,,,,,,,,,,,,,,,,,,,,,,,,,,,,,,,,,,,,,,,,,,,,,,,,,,,,,,,,,,,,,,,,,,,,,,,,,,,,,,,,,,,,,,,,,,,,,,,,,,,,,,,,,,,,,,,,,,,,,,,,,,,
0,28,28,36,1,,6154f446688aad7658909dc9,62c539d3d2b6fa4cee194347,2022-07-06_02h35.17.826,Colour_Asymmetry_Pilot,2022.1.3,Win32,56.84402001,62c50e9c1127f2cd403a315f,,,,,,,,,,,,,,,,,,,,,,,,,,,,,,,,,,,,,,,,,,,,,,,,,,,,,,,,,,,,,,,,,,,,,,,,,,,,,,,,,,,,,,,,,,,,,,,,,,,,,,,,,,,,,,,,,,,,,,,,,,,,,,,,,,,,,,,,,,,,,,,,,,,,,,,,,,,,,,,,,,,
0,29,29,68,1,,6154f446688aad7658909dc9,62c539d3d2b6fa4cee194347,2022-07-06_02h35.17.826,Colour_Asymmetry_Pilot,2022.1.3,Win32,56.84402001,62c50e9c1127f2cd403a315f,,,,,,,,,,,,,,,,,,,,,,,,,,,,,,,,,,,,,,,,,,,,,,,,,,,,,,,,,,,,,,,,,,,,,,,,,,,,,,,,,,,,,,,,,,,,,,,,,,,,,,,,,,,,,,,,,,,,,,,,,,,,,,,,,,,,,,,,,,,,,,,,,,,,,,,,,,,,,,,,,,,
0,30,30,11,1,,6154f446688aad7658909dc9,62c539d3d2b6fa4cee194347,2022-07-06_02h35.17.826,Colour_Asymmetry_Pilot,2022.1.3,Win32,56.84402001,62c50e9c1127f2cd403a315f,,,,,,,,,,,,,,,,,,,,,,,,,,,,,,,,,,,,,,,,,,,,,,,,,,,,,,,,,,,,,,,,,,,,,,,,,,,,,,,,,,,,,,,,,,,,,,,,,,,,,,,,,,,,,,,,,,,,,,,,,,,,,,,,,,,,,,,,,,,,,,,,,,,,,,,,,,,,,,,,,,,
0,31,31,88,1,,6154f446688aad7658909dc9,62c539d3d2b6fa4cee194347,2022-07-06_02h35.17.826,Colour_Asymmetry_Pilot,2022.1.3,Win32,56.84402001,62c50e9c1127f2cd403a315f,,,,,,,,,,,,,,,,,,,,,,,,,,,,,,,,,,,,,,,,,,,,,,,,,,,,,,,,,,,,,,,,,,,,,,,,,,,,,,,,,,,,,,,,,,,,,,,,,,,,,,,,,,,,,,,,,,,,,,,,,,,,,,,,,,,,,,,,,,,,,,,,,,,,,,,,,,,,,,,,,,,
0,32,32,78,1,,6154f446688aad7658909dc9,62c539d3d2b6fa4cee194347,2022-07-06_02h35.17.826,Colour_Asymmetry_Pilot,2022.1.3,Win32,56.84402001,62c50e9c1127f2cd403a315f,,,,,,,,,,,,,,,,,,,,,,,,,,,,,,,,,,,,,,,,,,,,,,,,,,,,,,,,,,,,,,,,,,,,,,,,,,,,,,,,,,,,,,,,,,,,,,,,,,,,,,,,,,,,,,,,,,,,,,,,,,,,,,,,,,,,,,,,,,,,,,,,,,,,,,,,,,,,,,,,,,,
0,33,33,32,1,,6154f446688aad7658909dc9,62c539d3d2b6fa4cee194347,2022-07-06_02h35.17.826,Colour_Asymmetry_Pilot,2022.1.3,Win32,56.84402001,62c50e9c1127f2cd403a315f,,,,,,,,,,,,,,,,,,,,,,,,,,,,,,,,,,,,,,,,,,,,,,,,,,,,,,,,,,,,,,,,,,,,,,,,,,,,,,,,,,,,,,,,,,,,,,,,,,,,,,,,,,,,,,,,,,,,,,,,,,,,,,,,,,,,,,,,,,,,,,,,,,,,,,,,,,,,,,,,,,,
0,34,34,45,1,,6154f446688aad7658909dc9,62c539d3d2b6fa4cee194347,2022-07-06_02h35.17.826,Colour_Asymmetry_Pilot,2022.1.3,Win32,56.84402001,62c50e9c1127f2cd403a315f,,,,,,,,,,,,,,,,,,,,,,,,,,,,,,,,,,,,,,,,,,,,,,,,,,,,,,,,,,,,,,,,,,,,,,,,,,,,,,,,,,,,,,,,,,,,,,,,,,,,,,,,,,,,,,,,,,,,,,,,,,,,,,,,,,,,,,,,,,,,,,,,,,,,,,,,,,,,,,,,,,,
0,35,35,40,1,,6154f446688aad7658909dc9,62c539d3d2b6fa4cee194347,2022-07-06_02h35.17.826,Colour_Asymmetry_Pilot,2022.1.3,Win32,56.84402001,62c50e9c1127f2cd403a315f,,,,,,,,,,,,,,,,,,,,,,,,,,,,,,,,,,,,,,,,,,,,,,,,,,,,,,,,,,,,,,,,,,,,,,,,,,,,,,,,,,,,,,,,,,,,,,,,,,,,,,,,,,,,,,,,,,,,,,,,,,,,,,,,,,,,,,,,,,,,,,,,,,,,,,,,,,,,,,,,,,,
0,36,36,23,1,,6154f446688aad7658909dc9,62c539d3d2b6fa4cee194347,2022-07-06_02h35.17.826,Colour_Asymmetry_Pilot,2022.1.3,Win32,56.84402001,62c50e9c1127f2cd403a315f,,,,,,,,,,,,,,,,,,,,,,,,,,,,,,,,,,,,,,,,,,,,,,,,,,,,,,,,,,,,,,,,,,,,,,,,,,,,,,,,,,,,,,,,,,,,,,,,,,,,,,,,,,,,,,,,,,,,,,,,,,,,,,,,,,,,,,,,,,,,,,,,,,,,,,,,,,,,,,,,,,,
0,37,37,74,1,,6154f446688aad7658909dc9,62c539d3d2b6fa4cee194347,2022-07-06_02h35.17.826,Colour_Asymmetry_Pilot,2022.1.3,Win32,56.84402001,62c50e9c1127f2cd403a315f,,,,,,,,,,,,,,,,,,,,,,,,,,,,,,,,,,,,,,,,,,,,,,,,,,,,,,,,,,,,,,,,,,,,,,,,,,,,,,,,,,,,,,,,,,,,,,,,,,,,,,,,,,,,,,,,,,,,,,,,,,,,,,,,,,,,,,,,,,,,,,,,,,,,,,,,,,,,,,,,,,,
0,38,38,1,1,,6154f446688aad7658909dc9,62c539d3d2b6fa4cee194347,2022-07-06_02h35.17.826,Colour_Asymmetry_Pilot,2022.1.3,Win32,56.84402001,62c50e9c1127f2cd403a315f,,,,,,,,,,,,,,,,,,,,,,,,,,,,,,,,,,,,,,,,,,,,,,,,,,,,,,,,,,,,,,,,,,,,,,,,,,,,,,,,,,,,,,,,,,,,,,,,,,,,,,,,,,,,,,,,,,,,,,,,,,,,,,,,,,,,,,,,,,,,,,,,,,,,,,,,,,,,,,,,,,,
0,39,39,64,1,,6154f446688aad7658909dc9,62c539d3d2b6fa4cee194347,2022-07-06_02h35.17.826,Colour_Asymmetry_Pilot,2022.1.3,Win32,56.84402001,62c50e9c1127f2cd403a315f,,,,,,,,,,,,,,,,,,,,,,,,,,,,,,,,,,,,,,,,,,,,,,,,,,,,,,,,,,,,,,,,,,,,,,,,,,,,,,,,,,,,,,,,,,,,,,,,,,,,,,,,,,,,,,,,,,,,,,,,,,,,,,,,,,,,,,,,,,,,,,,,,,,,,,,,,,,,,,,,,,,
0,40,40,57,1,,6154f446688aad7658909dc9,62c539d3d2b6fa4cee194347,2022-07-06_02h35.17.826,Colour_Asymmetry_Pilot,2022.1.3,Win32,56.84402001,62c50e9c1127f2cd403a315f,,,,,,,,,,,,,,,,,,,,,,,,,,,,,,,,,,,,,,,,,,,,,,,,,,,,,,,,,,,,,,,,,,,,,,,,,,,,,,,,,,,,,,,,,,,,,,,,,,,,,,,,,,,,,,,,,,,,,,,,,,,,,,,,,,,,,,,,,,,,,,,,,,,,,,,,,,,,,,,,,,,
0,41,41,9,1,,6154f446688aad7658909dc9,62c539d3d2b6fa4cee194347,2022-07-06_02h35.17.826,Colour_Asymmetry_Pilot,2022.1.3,Win32,56.84402001,62c50e9c1127f2cd403a315f,,,,,,,,,,,,,,,,,,,,,,,,,,,,,,,,,,,,,,,,,,,,,,,,,,,,,,,,,,,,,,,,,,,,,,,,,,,,,,,,,,,,,,,,,,,,,,,,,,,,,,,,,,,,,,,,,,,,,,,,,,,,,,,,,,,,,,,,,,,,,,,,,,,,,,,,,,,,,,,,,,,
0,42,42,65,1,,6154f446688aad7658909dc9,62c539d3d2b6fa4cee194347,2022-07-06_02h35.17.826,Colour_Asymmetry_Pilot,2022.1.3,Win32,56.84402001,62c50e9c1127f2cd403a315f,,,,,,,,,,,,,,,,,,,,,,,,,,,,,,,,,,,,,,,,,,,,,,,,,,,,,,,,,,,,,,,,,,,,,,,,,,,,,,,,,,,,,,,,,,,,,,,,,,,,,,,,,,,,,,,,,,,,,,,,,,,,,,,,,,,,,,,,,,,,,,,,,,,,,,,,,,,,,,,,,,,
0,43,43,41,1,,6154f446688aad7658909dc9,62c539d3d2b6fa4cee194347,2022-07-06_02h35.17.826,Colour_Asymmetry_Pilot,2022.1.3,Win32,56.84402001,62c50e9c1127f2cd403a315f,,,,,,,,,,,,,,,,,,,,,,,,,,,,,,,,,,,,,,,,,,,,,,,,,,,,,,,,,,,,,,,,,,,,,,,,,,,,,,,,,,,,,,,,,,,,,,,,,,,,,,,,,,,,,,,,,,,,,,,,,,,,,,,,,,,,,,,,,,,,,,,,,,,,,,,,,,,,,,,,,,,
0,44,44,14,1,,6154f446688aad7658909dc9,62c539d3d2b6fa4cee194347,2022-07-06_02h35.17.826,Colour_Asymmetry_Pilot,2022.1.3,Win32,56.84402001,62c50e9c1127f2cd403a315f,,,,,,,,,,,,,,,,,,,,,,,,,,,,,,,,,,,,,,,,,,,,,,,,,,,,,,,,,,,,,,,,,,,,,,,,,,,,,,,,,,,,,,,,,,,,,,,,,,,,,,,,,,,,,,,,,,,,,,,,,,,,,,,,,,,,,,,,,,,,,,,,,,,,,,,,,,,,,,,,,,,
0,45,45,2,1,,6154f446688aad7658909dc9,62c539d3d2b6fa4cee194347,2022-07-06_02h35.17.826,Colour_Asymmetry_Pilot,2022.1.3,Win32,56.84402001,62c50e9c1127f2cd403a315f,,,,,,,,,,,,,,,,,,,,,,,,,,,,,,,,,,,,,,,,,,,,,,,,,,,,,,,,,,,,,,,,,,,,,,,,,,,,,,,,,,,,,,,,,,,,,,,,,,,,,,,,,,,,,,,,,,,,,,,,,,,,,,,,,,,,,,,,,,,,,,,,,,,,,,,,,,,,,,,,,,,
0,46,46,67,1,,6154f446688aad7658909dc9,62c539d3d2b6fa4cee194347,2022-07-06_02h35.17.826,Colour_Asymmetry_Pilot,2022.1.3,Win32,56.84402001,62c50e9c1127f2cd403a315f,,,,,,,,,,,,,,,,,,,,,,,,,,,,,,,,,,,,,,,,,,,,,,,,,,,,,,,,,,,,,,,,,,,,,,,,,,,,,,,,,,,,,,,,,,,,,,,,,,,,,,,,,,,,,,,,,,,,,,,,,,,,,,,,,,,,,,,,,,,,,,,,,,,,,,,,,,,,,,,,,,,
0,47,47,75,1,,6154f446688aad7658909dc9,62c539d3d2b6fa4cee194347,2022-07-06_02h35.17.826,Colour_Asymmetry_Pilot,2022.1.3,Win32,56.84402001,62c50e9c1127f2cd403a315f,,,,,,,,,,,,,,,,,,,,,,,,,,,,,,,,,,,,,,,,,,,,,,,,,,,,,,,,,,,,,,,,,,,,,,,,,,,,,,,,,,,,,,,,,,,,,,,,,,,,,,,,,,,,,,,,,,,,,,,,,,,,,,,,,,,,,,,,,,,,,,,,,,,,,,,,,,,,,,,,,,,
0,48,48,53,1,,6154f446688aad7658909dc9,62c539d3d2b6fa4cee194347,2022-07-06_02h35.17.826,Colour_Asymmetry_Pilot,2022.1.3,Win32,56.84402001,62c50e9c1127f2cd403a315f,,,,,,,,,,,,,,,,,,,,,,,,,,,,,,,,,,,,,,,,,,,,,,,,,,,,,,,,,,,,,,,,,,,,,,,,,,,,,,,,,,,,,,,,,,,,,,,,,,,,,,,,,,,,,,,,,,,,,,,,,,,,,,,,,,,,,,,,,,,,,,,,,,,,,,,,,,,,,,,,,,,
0,49,49,3,1,,6154f446688aad7658909dc9,62c539d3d2b6fa4cee194347,2022-07-06_02h35.17.826,Colour_Asymmetry_Pilot,2022.1.3,Win32,56.84402001,62c50e9c1127f2cd403a315f,,,,,,,,,,,,,,,,,,,,,,,,,,,,,,,,,,,,,,,,,,,,,,,,,,,,,,,,,,,,,,,,,,,,,,,,,,,,,,,,,,,,,,,,,,,,,,,,,,,,,,,,,,,,,,,,,,,,,,,,,,,,,,,,,,,,,,,,,,,,,,,,,,,,,,,,,,,,,,,,,,,
0,50,50,25,1,,6154f446688aad7658909dc9,62c539d3d2b6fa4cee194347,2022-07-06_02h35.17.826,Colour_Asymmetry_Pilot,2022.1.3,Win32,56.84402001,62c50e9c1127f2cd403a315f,,,,,,,,,,,,,,,,,,,,,,,,,,,,,,,,,,,,,,,,,,,,,,,,,,,,,,,,,,,,,,,,,,,,,,,,,,,,,,,,,,,,,,,,,,,,,,,,,,,,,,,,,,,,,,,,,,,,,,,,,,,,,,,,,,,,,,,,,,,,,,,,,,,,,,,,,,,,,,,,,,,
0,51,51,52,1,,6154f446688aad7658909dc9,62c539d3d2b6fa4cee194347,2022-07-06_02h35.17.826,Colour_Asymmetry_Pilot,2022.1.3,Win32,56.84402001,62c50e9c1127f2cd403a315f,,,,,,,,,,,,,,,,,,,,,,,,,,,,,,,,,,,,,,,,,,,,,,,,,,,,,,,,,,,,,,,,,,,,,,,,,,,,,,,,,,,,,,,,,,,,,,,,,,,,,,,,,,,,,,,,,,,,,,,,,,,,,,,,,,,,,,,,,,,,,,,,,,,,,,,,,,,,,,,,,,,
0,52,52,17,1,,6154f446688aad7658909dc9,62c539d3d2b6fa4cee194347,2022-07-06_02h35.17.826,Colour_Asymmetry_Pilot,2022.1.3,Win32,56.84402001,62c50e9c1127f2cd403a315f,,,,,,,,,,,,,,,,,,,,,,,,,,,,,,,,,,,,,,,,,,,,,,,,,,,,,,,,,,,,,,,,,,,,,,,,,,,,,,,,,,,,,,,,,,,,,,,,,,,,,,,,,,,,,,,,,,,,,,,,,,,,,,,,,,,,,,,,,,,,,,,,,,,,,,,,,,,,,,,,,,,
0,53,53,20,1,,6154f446688aad7658909dc9,62c539d3d2b6fa4cee194347,2022-07-06_02h35.17.826,Colour_Asymmetry_Pilot,2022.1.3,Win32,56.84402001,62c50e9c1127f2cd403a315f,,,,,,,,,,,,,,,,,,,,,,,,,,,,,,,,,,,,,,,,,,,,,,,,,,,,,,,,,,,,,,,,,,,,,,,,,,,,,,,,,,,,,,,,,,,,,,,,,,,,,,,,,,,,,,,,,,,,,,,,,,,,,,,,,,,,,,,,,,,,,,,,,,,,,,,,,,,,,,,,,,,
0,54,54,79,1,,6154f446688aad7658909dc9,62c539d3d2b6fa4cee194347,2022-07-06_02h35.17.826,Colour_Asymmetry_Pilot,2022.1.3,Win32,56.84402001,62c50e9c1127f2cd403a315f,,,,,,,,,,,,,,,,,,,,,,,,,,,,,,,,,,,,,,,,,,,,,,,,,,,,,,,,,,,,,,,,,,,,,,,,,,,,,,,,,,,,,,,,,,,,,,,,,,,,,,,,,,,,,,,,,,,,,,,,,,,,,,,,,,,,,,,,,,,,,,,,,,,,,,,,,,,,,,,,,,,
0,55,55,26,1,,6154f446688aad7658909dc9,62c539d3d2b6fa4cee194347,2022-07-06_02h35.17.826,Colour_Asymmetry_Pilot,2022.1.3,Win32,56.84402001,62c50e9c1127f2cd403a315f,,,,,,,,,,,,,,,,,,,,,,,,,,,,,,,,,,,,,,,,,,,,,,,,,,,,,,,,,,,,,,,,,,,,,,,,,,,,,,,,,,,,,,,,,,,,,,,,,,,,,,,,,,,,,,,,,,,,,,,,,,,,,,,,,,,,,,,,,,,,,,,,,,,,,,,,,,,,,,,,,,,
0,56,56,91,1,,6154f446688aad7658909dc9,62c539d3d2b6fa4cee194347,2022-07-06_02h35.17.826,Colour_Asymmetry_Pilot,2022.1.3,Win32,56.84402001,62c50e9c1127f2cd403a315f,,,,,,,,,,,,,,,,,,,,,,,,,,,,,,,,,,,,,,,,,,,,,,,,,,,,,,,,,,,,,,,,,,,,,,,,,,,,,,,,,,,,,,,,,,,,,,,,,,,,,,,,,,,,,,,,,,,,,,,,,,,,,,,,,,,,,,,,,,,,,,,,,,,,,,,,,,,,,,,,,,,
0,57,57,8,1,,6154f446688aad7658909dc9,62c539d3d2b6fa4cee194347,2022-07-06_02h35.17.826,Colour_Asymmetry_Pilot,2022.1.3,Win32,56.84402001,62c50e9c1127f2cd403a315f,,,,,,,,,,,,,,,,,,,,,,,,,,,,,,,,,,,,,,,,,,,,,,,,,,,,,,,,,,,,,,,,,,,,,,,,,,,,,,,,,,,,,,,,,,,,,,,,,,,,,,,,,,,,,,,,,,,,,,,,,,,,,,,,,,,,,,,,,,,,,,,,,,,,,,,,,,,,,,,,,,,
0,58,58,28,1,,6154f446688aad7658909dc9,62c539d3d2b6fa4cee194347,2022-07-06_02h35.17.826,Colour_Asymmetry_Pilot,2022.1.3,Win32,56.84402001,62c50e9c1127f2cd403a315f,,,,,,,,,,,,,,,,,,,,,,,,,,,,,,,,,,,,,,,,,,,,,,,,,,,,,,,,,,,,,,,,,,,,,,,,,,,,,,,,,,,,,,,,,,,,,,,,,,,,,,,,,,,,,,,,,,,,,,,,,,,,,,,,,,,,,,,,,,,,,,,,,,,,,,,,,,,,,,,,,,,
0,59,59,39,1,,6154f446688aad7658909dc9,62c539d3d2b6fa4cee194347,2022-07-06_02h35.17.826,Colour_Asymmetry_Pilot,2022.1.3,Win32,56.84402001,62c50e9c1127f2cd403a315f,,,,,,,,,,,,,,,,,,,,,,,,,,,,,,,,,,,,,,,,,,,,,,,,,,,,,,,,,,,,,,,,,,,,,,,,,,,,,,,,,,,,,,,,,,,,,,,,,,,,,,,,,,,,,,,,,,,,,,,,,,,,,,,,,,,,,,,,,,,,,,,,,,,,,,,,,,,,,,,,,,,
0,60,60,12,1,,6154f446688aad7658909dc9,62c539d3d2b6fa4cee194347,2022-07-06_02h35.17.826,Colour_Asymmetry_Pilot,2022.1.3,Win32,56.84402001,62c50e9c1127f2cd403a315f,,,,,,,,,,,,,,,,,,,,,,,,,,,,,,,,,,,,,,,,,,,,,,,,,,,,,,,,,,,,,,,,,,,,,,,,,,,,,,,,,,,,,,,,,,,,,,,,,,,,,,,,,,,,,,,,,,,,,,,,,,,,,,,,,,,,,,,,,,,,,,,,,,,,,,,,,,,,,,,,,,,
0,61,61,44,1,,6154f446688aad7658909dc9,62c539d3d2b6fa4cee194347,2022-07-06_02h35.17.826,Colour_Asymmetry_Pilot,2022.1.3,Win32,56.84402001,62c50e9c1127f2cd403a315f,,,,,,,,,,,,,,,,,,,,,,,,,,,,,,,,,,,,,,,,,,,,,,,,,,,,,,,,,,,,,,,,,,,,,,,,,,,,,,,,,,,,,,,,,,,,,,,,,,,,,,,,,,,,,,,,,,,,,,,,,,,,,,,,,,,,,,,,,,,,,,,,,,,,,,,,,,,,,,,,,,,
0,62,62,37,1,,6154f446688aad7658909dc9,62c539d3d2b6fa4cee194347,2022-07-06_02h35.17.826,Colour_Asymmetry_Pilot,2022.1.3,Win32,56.84402001,62c50e9c1127f2cd403a315f,,,,,,,,,,,,,,,,,,,,,,,,,,,,,,,,,,,,,,,,,,,,,,,,,,,,,,,,,,,,,,,,,,,,,,,,,,,,,,,,,,,,,,,,,,,,,,,,,,,,,,,,,,,,,,,,,,,,,,,,,,,,,,,,,,,,,,,,,,,,,,,,,,,,,,,,,,,,,,,,,,,
0,63,63,70,1,,6154f446688aad7658909dc9,62c539d3d2b6fa4cee194347,2022-07-06_02h35.17.826,Colour_Asymmetry_Pilot,2022.1.3,Win32,56.84402001,62c50e9c1127f2cd403a315f,,,,,,,,,,,,,,,,,,,,,,,,,,,,,,,,,,,,,,,,,,,,,,,,,,,,,,,,,,,,,,,,,,,,,,,,,,,,,,,,,,,,,,,,,,,,,,,,,,,,,,,,,,,,,,,,,,,,,,,,,,,,,,,,,,,,,,,,,,,,,,,,,,,,,,,,,,,,,,,,,,,
0,64,64,46,1,,6154f446688aad7658909dc9,62c539d3d2b6fa4cee194347,2022-07-06_02h35.17.826,Colour_Asymmetry_Pilot,2022.1.3,Win32,56.84402001,62c50e9c1127f2cd403a315f,,,,,,,,,,,,,,,,,,,,,,,,,,,,,,,,,,,,,,,,,,,,,,,,,,,,,,,,,,,,,,,,,,,,,,,,,,,,,,,,,,,,,,,,,,,,,,,,,,,,,,,,,,,,,,,,,,,,,,,,,,,,,,,,,,,,,,,,,,,,,,,,,,,,,,,,,,,,,,,,,,,
0,65,65,4,1,,6154f446688aad7658909dc9,62c539d3d2b6fa4cee194347,2022-07-06_02h35.17.826,Colour_Asymmetry_Pilot,2022.1.3,Win32,56.84402001,62c50e9c1127f2cd403a315f,,,,,,,,,,,,,,,,,,,,,,,,,,,,,,,,,,,,,,,,,,,,,,,,,,,,,,,,,,,,,,,,,,,,,,,,,,,,,,,,,,,,,,,,,,,,,,,,,,,,,,,,,,,,,,,,,,,,,,,,,,,,,,,,,,,,,,,,,,,,,,,,,,,,,,,,,,,,,,,,,,,
0,66,66,90,1,,6154f446688aad7658909dc9,62c539d3d2b6fa4cee194347,2022-07-06_02h35.17.826,Colour_Asymmetry_Pilot,2022.1.3,Win32,56.84402001,62c50e9c1127f2cd403a315f,,,,,,,,,,,,,,,,,,,,,,,,,,,,,,,,,,,,,,,,,,,,,,,,,,,,,,,,,,,,,,,,,,,,,,,,,,,,,,,,,,,,,,,,,,,,,,,,,,,,,,,,,,,,,,,,,,,,,,,,,,,,,,,,,,,,,,,,,,,,,,,,,,,,,,,,,,,,,,,,,,,
0,67,67,27,1,,6154f446688aad7658909dc9,62c539d3d2b6fa4cee194347,2022-07-06_02h35.17.826,Colour_Asymmetry_Pilot,2022.1.3,Win32,56.84402001,62c50e9c1127f2cd403a315f,,,,,,,,,,,,,,,,,,,,,,,,,,,,,,,,,,,,,,,,,,,,,,,,,,,,,,,,,,,,,,,,,,,,,,,,,,,,,,,,,,,,,,,,,,,,,,,,,,,,,,,,,,,,,,,,,,,,,,,,,,,,,,,,,,,,,,,,,,,,,,,,,,,,,,,,,,,,,,,,,,,
0,68,68,85,1,,6154f446688aad7658909dc9,62c539d3d2b6fa4cee194347,2022-07-06_02h35.17.826,Colour_Asymmetry_Pilot,2022.1.3,Win32,56.84402001,62c50e9c1127f2cd403a315f,,,,,,,,,,,,,,,,,,,,,,,,,,,,,,,,,,,,,,,,,,,,,,,,,,,,,,,,,,,,,,,,,,,,,,,,,,,,,,,,,,,,,,,,,,,,,,,,,,,,,,,,,,,,,,,,,,,,,,,,,,,,,,,,,,,,,,,,,,,,,,,,,,,,,,,,,,,,,,,,,,,
0,69,69,6,1,,6154f446688aad7658909dc9,62c539d3d2b6fa4cee194347,2022-07-06_02h35.17.826,Colour_Asymmetry_Pilot,2022.1.3,Win32,56.84402001,62c50e9c1127f2cd403a315f,,,,,,,,,,,,,,,,,,,,,,,,,,,,,,,,,,,,,,,,,,,,,,,,,,,,,,,,,,,,,,,,,,,,,,,,,,,,,,,,,,,,,,,,,,,,,,,,,,,,,,,,,,,,,,,,,,,,,,,,,,,,,,,,,,,,,,,,,,,,,,,,,,,,,,,,,,,,,,,,,,,
0,70,70,71,1,,6154f446688aad7658909dc9,62c539d3d2b6fa4cee194347,2022-07-06_02h35.17.826,Colour_Asymmetry_Pilot,2022.1.3,Win32,56.84402001,62c50e9c1127f2cd403a315f,,,,,,,,,,,,,,,,,,,,,,,,,,,,,,,,,,,,,,,,,,,,,,,,,,,,,,,,,,,,,,,,,,,,,,,,,,,,,,,,,,,,,,,,,,,,,,,,,,,,,,,,,,,,,,,,,,,,,,,,,,,,,,,,,,,,,,,,,,,,,,,,,,,,,,,,,,,,,,,,,,,
0,71,71,83,1,,6154f446688aad7658909dc9,62c539d3d2b6fa4cee194347,2022-07-06_02h35.17.826,Colour_Asymmetry_Pilot,2022.1.3,Win32,56.84402001,62c50e9c1127f2cd403a315f,,,,,,,,,,,,,,,,,,,,,,,,,,,,,,,,,,,,,,,,,,,,,,,,,,,,,,,,,,,,,,,,,,,,,,,,,,,,,,,,,,,,,,,,,,,,,,,,,,,,,,,,,,,,,,,,,,,,,,,,,,,,,,,,,,,,,,,,,,,,,,,,,,,,,,,,,,,,,,,,,,,
0,72,72,21,1,,6154f446688aad7658909dc9,62c539d3d2b6fa4cee194347,2022-07-06_02h35.17.826,Colour_Asymmetry_Pilot,2022.1.3,Win32,56.84402001,62c50e9c1127f2cd403a315f,,,,,,,,,,,,,,,,,,,,,,,,,,,,,,,,,,,,,,,,,,,,,,,,,,,,,,,,,,,,,,,,,,,,,,,,,,,,,,,,,,,,,,,,,,,,,,,,,,,,,,,,,,,,,,,,,,,,,,,,,,,,,,,,,,,,,,,,,,,,,,,,,,,,,,,,,,,,,,,,,,,
0,73,73,38,1,,6154f446688aad7658909dc9,62c539d3d2b6fa4cee194347,2022-07-06_02h35.17.826,Colour_Asymmetry_Pilot,2022.1.3,Win32,56.84402001,62c50e9c1127f2cd403a315f,,,,,,,,,,,,,,,,,,,,,,,,,,,,,,,,,,,,,,,,,,,,,,,,,,,,,,,,,,,,,,,,,,,,,,,,,,,,,,,,,,,,,,,,,,,,,,,,,,,,,,,,,,,,,,,,,,,,,,,,,,,,,,,,,,,,,,,,,,,,,,,,,,,,,,,,,,,,,,,,,,,
0,74,74,33,1,,6154f446688aad7658909dc9,62c539d3d2b6fa4cee194347,2022-07-06_02h35.17.826,Colour_Asymmetry_Pilot,2022.1.3,Win32,56.84402001,62c50e9c1127f2cd403a315f,,,,,,,,,,,,,,,,,,,,,,,,,,,,,,,,,,,,,,,,,,,,,,,,,,,,,,,,,,,,,,,,,,,,,,,,,,,,,,,,,,,,,,,,,,,,,,,,,,,,,,,,,,,,,,,,,,,,,,,,,,,,,,,,,,,,,,,,,,,,,,,,,,,,,,,,,,,,,,,,,,,
0,75,75,13,1,,6154f446688aad7658909dc9,62c539d3d2b6fa4cee194347,2022-07-06_02h35.17.826,Colour_Asymmetry_Pilot,2022.1.3,Win32,56.84402001,62c50e9c1127f2cd403a315f,,,,,,,,,,,,,,,,,,,,,,,,,,,,,,,,,,,,,,,,,,,,,,,,,,,,,,,,,,,,,,,,,,,,,,,,,,,,,,,,,,,,,,,,,,,,,,,,,,,,,,,,,,,,,,,,,,,,,,,,,,,,,,,,,,,,,,,,,,,,,,,,,,,,,,,,,,,,,,,,,,,
0,76,76,86,1,,6154f446688aad7658909dc9,62c539d3d2b6fa4cee194347,2022-07-06_02h35.17.826,Colour_Asymmetry_Pilot,2022.1.3,Win32,56.84402001,62c50e9c1127f2cd403a315f,,,,,,,,,,,,,,,,,,,,,,,,,,,,,,,,,,,,,,,,,,,,,,,,,,,,,,,,,,,,,,,,,,,,,,,,,,,,,,,,,,,,,,,,,,,,,,,,,,,,,,,,,,,,,,,,,,,,,,,,,,,,,,,,,,,,,,,,,,,,,,,,,,,,,,,,,,,,,,,,,,,
0,77,77,7,1,,6154f446688aad7658909dc9,62c539d3d2b6fa4cee194347,2022-07-06_02h35.17.826,Colour_Asymmetry_Pilot,2022.1.3,Win32,56.84402001,62c50e9c1127f2cd403a315f,,,,,,,,,,,,,,,,,,,,,,,,,,,,,,,,,,,,,,,,,,,,,,,,,,,,,,,,,,,,,,,,,,,,,,,,,,,,,,,,,,,,,,,,,,,,,,,,,,,,,,,,,,,,,,,,,,,,,,,,,,,,,,,,,,,,,,,,,,,,,,,,,,,,,,,,,,,,,,,,,,,
0,78,78,47,1,,6154f446688aad7658909dc9,62c539d3d2b6fa4cee194347,2022-07-06_02h35.17.826,Colour_Asymmetry_Pilot,2022.1.3,Win32,56.84402001,62c50e9c1127f2cd403a315f,,,,,,,,,,,,,,,,,,,,,,,,,,,,,,,,,,,,,,,,,,,,,,,,,,,,,,,,,,,,,,,,,,,,,,,,,,,,,,,,,,,,,,,,,,,,,,,,,,,,,,,,,,,,,,,,,,,,,,,,,,,,,,,,,,,,,,,,,,,,,,,,,,,,,,,,,,,,,,,,,,,
0,79,79,34,1,,6154f446688aad7658909dc9,62c539d3d2b6fa4cee194347,2022-07-06_02h35.17.826,Colour_Asymmetry_Pilot,2022.1.3,Win32,56.84402001,62c50e9c1127f2cd403a315f,,,,,,,,,,,,,,,,,,,,,,,,,,,,,,,,,,,,,,,,,,,,,,,,,,,,,,,,,,,,,,,,,,,,,,,,,,,,,,,,,,,,,,,,,,,,,,,,,,,,,,,,,,,,,,,,,,,,,,,,,,,,,,,,,,,,,,,,,,,,,,,,,,,,,,,,,,,,,,,,,,,
0,80,80,31,1,,6154f446688aad7658909dc9,62c539d3d2b6fa4cee194347,2022-07-06_02h35.17.826,Colour_Asymmetry_Pilot,2022.1.3,Win32,56.84402001,62c50e9c1127f2cd403a315f,,,,,,,,,,,,,,,,,,,,,,,,,,,,,,,,,,,,,,,,,,,,,,,,,,,,,,,,,,,,,,,,,,,,,,,,,,,,,,,,,,,,,,,,,,,,,,,,,,,,,,,,,,,,,,,,,,,,,,,,,,,,,,,,,,,,,,,,,,,,,,,,,,,,,,,,,,,,,,,,,,,
0,81,81,22,1,,6154f446688aad7658909dc9,62c539d3d2b6fa4cee194347,2022-07-06_02h35.17.826,Colour_Asymmetry_Pilot,2022.1.3,Win32,56.84402001,62c50e9c1127f2cd403a315f,,,,,,,,,,,,,,,,,,,,,,,,,,,,,,,,,,,,,,,,,,,,,,,,,,,,,,,,,,,,,,,,,,,,,,,,,,,,,,,,,,,,,,,,,,,,,,,,,,,,,,,,,,,,,,,,,,,,,,,,,,,,,,,,,,,,,,,,,,,,,,,,,,,,,,,,,,,,,,,,,,,
0,82,82,43,1,,6154f446688aad7658909dc9,62c539d3d2b6fa4cee194347,2022-07-06_02h35.17.826,Colour_Asymmetry_Pilot,2022.1.3,Win32,56.84402001,62c50e9c1127f2cd403a315f,,,,,,,,,,,,,,,,,,,,,,,,,,,,,,,,,,,,,,,,,,,,,,,,,,,,,,,,,,,,,,,,,,,,,,,,,,,,,,,,,,,,,,,,,,,,,,,,,,,,,,,,,,,,,,,,,,,,,,,,,,,,,,,,,,,,,,,,,,,,,,,,,,,,,,,,,,,,,,,,,,,
0,83,83,15,1,,6154f446688aad7658909dc9,62c539d3d2b6fa4cee194347,2022-07-06_02h35.17.826,Colour_Asymmetry_Pilot,2022.1.3,Win32,56.84402001,62c50e9c1127f2cd403a315f,,,,,,,,,,,,,,,,,,,,,,,,,,,,,,,,,,,,,,,,,,,,,,,,,,,,,,,,,,,,,,,,,,,,,,,,,,,,,,,,,,,,,,,,,,,,,,,,,,,,,,,,,,,,,,,,,,,,,,,,,,,,,,,,,,,,,,,,,,,,,,,,,,,,,,,,,,,,,,,,,,,
0,84,84,29,1,,6154f446688aad7658909dc9,62c539d3d2b6fa4cee194347,2022-07-06_02h35.17.826,Colour_Asymmetry_Pilot,2022.1.3,Win32,56.84402001,62c50e9c1127f2cd403a315f,,,,,,,,,,,,,,,,,,,,,,,,,,,,,,,,,,,,,,,,,,,,,,,,,,,,,,,,,,,,,,,,,,,,,,,,,,,,,,,,,,,,,,,,,,,,,,,,,,,,,,,,,,,,,,,,,,,,,,,,,,,,,,,,,,,,,,,,,,,,,,,,,,,,,,,,,,,,,,,,,,,
0,85,85,63,1,,6154f446688aad7658909dc9,62c539d3d2b6fa4cee194347,2022-07-06_02h35.17.826,Colour_Asymmetry_Pilot,2022.1.3,Win32,56.84402001,62c50e9c1127f2cd403a315f,,,,,,,,,,,,,,,,,,,,,,,,,,,,,,,,,,,,,,,,,,,,,,,,,,,,,,,,,,,,,,,,,,,,,,,,,,,,,,,,,,,,,,,,,,,,,,,,,,,,,,,,,,,,,,,,,,,,,,,,,,,,,,,,,,,,,,,,,,,,,,,,,,,,,,,,,,,,,,,,,,,
0,86,86,60,1,,6154f446688aad7658909dc9,62c539d3d2b6fa4cee194347,2022-07-06_02h35.17.826,Colour_Asymmetry_Pilot,2022.1.3,Win32,56.84402001,62c50e9c1127f2cd403a315f,,,,,,,,,,,,,,,,,,,,,,,,,,,,,,,,,,,,,,,,,,,,,,,,,,,,,,,,,,,,,,,,,,,,,,,,,,,,,,,,,,,,,,,,,,,,,,,,,,,,,,,,,,,,,,,,,,,,,,,,,,,,,,,,,,,,,,,,,,,,,,,,,,,,,,,,,,,,,,,,,,,
0,87,87,80,1,,6154f446688aad7658909dc9,62c539d3d2b6fa4cee194347,2022-07-06_02h35.17.826,Colour_Asymmetry_Pilot,2022.1.3,Win32,56.84402001,62c50e9c1127f2cd403a315f,,,,,,,,,,,,,,,,,,,,,,,,,,,,,,,,,,,,,,,,,,,,,,,,,,,,,,,,,,,,,,,,,,,,,,,,,,,,,,,,,,,,,,,,,,,,,,,,,,,,,,,,,,,,,,,,,,,,,,,,,,,,,,,,,,,,,,,,,,,,,,,,,,,,,,,,,,,,,,,,,,,
0,88,88,72,1,,6154f446688aad7658909dc9,62c539d3d2b6fa4cee194347,2022-07-06_02h35.17.826,Colour_Asymmetry_Pilot,2022.1.3,Win32,56.84402001,62c50e9c1127f2cd403a315f,,,,,,,,,,,,,,,,,,,,,,,,,,,,,,,,,,,,,,,,,,,,,,,,,,,,,,,,,,,,,,,,,,,,,,,,,,,,,,,,,,,,,,,,,,,,,,,,,,,,,,,,,,,,,,,,,,,,,,,,,,,,,,,,,,,,,,,,,,,,,,,,,,,,,,,,,,,,,,,,,,,
0,89,89,81,1,,6154f446688aad7658909dc9,62c539d3d2b6fa4cee194347,2022-07-06_02h35.17.826,Colour_Asymmetry_Pilot,2022.1.3,Win32,56.84402001,62c50e9c1127f2cd403a315f,,,,,,,,,,,,,,,,,,,,,,,,,,,,,,,,,,,,,,,,,,,,,,,,,,,,,,,,,,,,,,,,,,,,,,,,,,,,,,,,,,,,,,,,,,,,,,,,,,,,,,,,,,,,,,,,,,,,,,,,,,,,,,,,,,,,,,,,,,,,,,,,,,,,,,,,,,,,,,,,,,,
0,90,90,16,1,,6154f446688aad7658909dc9,62c539d3d2b6fa4cee194347,2022-07-06_02h35.17.826,Colour_Asymmetry_Pilot,2022.1.3,Win32,56.84402001,62c50e9c1127f2cd403a315f,,,,,,,,,,,,,,,,,,,,,,,,,,,,,,,,,,,,,,,,,,,,,,,,,,,,,,,,,,,,,,,,,,,,,,,,,,,,,,,,,,,,,,,,,,,,,,,,,,,,,,,,,,,,,,,,,,,,,,,,,,,,,,,,,,,,,,,,,,,,,,,,,,,,,,,,,,,,,,,,,,,
0,91,91,77,1,,6154f446688aad7658909dc9,62c539d3d2b6fa4cee194347,2022-07-06_02h35.17.826,Colour_Asymmetry_Pilot,2022.1.3,Win32,56.84402001,62c50e9c1127f2cd403a315f,,,,,,,,,,,,,,,,,,,,,,,,,,,,,,,,,,,,,,,,,,,,,,,,,,,,,,,,,,,,,,,,,,,,,,,,,,,,,,,,,,,,,,,,,,,,,,,,,,,,,,,,,,,,,,,,,,,,,,,,,,,,,,,,,,,,,,,,,,,,,,,,,,,,,,,,,,,,,,,,,,,
0,92,92,92,1,,6154f446688aad7658909dc9,62c539d3d2b6fa4cee194347,2022-07-06_02h35.17.826,Colour_Asymmetry_Pilot,2022.1.3,Win32,56.84402001,62c50e9c1127f2cd403a315f,,,,,,,,,,,,,,,,,,,,,,,,,,,,,,,,,,,,,,,,,,,,,,,,,,,,,,,,,,,,,,,,,,,,,,,,,,,,,,,,,,,,,,,,,,,,,,,,,,,,,,,,,,,,,,,,,,,,,,,,,,,,,,,,,,,,,,,,,,,,,,,,,,,,,,,,,,,,,,,,,,,
,,,,,,6154f446688aad7658909dc9,62c539d3d2b6fa4cee194347,2022-07-06_02h35.17.826,Colour_Asymmetry_Pilot,2022.1.3,Win32,56.84402001,62c50e9c1127f2cd403a315f,0,0,0,149,1,threefour,,,,,,,,,,,,,,,,,,,,,,,,,,,,,,,,,,,,,,,,,,,,,,,,,,,,,,,,,,,,,,,,,,,,,,,,,,,,,,,,,,,,,,,,,,,,,,,,,,,,,,,,,,,,,,,,,,,,,,,,,,,,,,,,,,,,,,,,,,,,,,,,,,,,,,,,,,,,,
,,,,,,6154f446688aad7658909dc9,62c539d3d2b6fa4cee194347,2022-07-06_02h35.17.826,Colour_Asymmetry_Pilot,2022.1.3,Win32,56.84402001,62c50e9c1127f2cd403a315f,0,1,1,60,1,threeone,,,,,,,,,,,,,,,,,,,,,,,,,,,,,,,,,,,,,,,,,,,,,,,,,,,,,,,,,,,,,,,,,,,,,,,,,,,,,,,,,,,,,,,,,,,,,,,,,,,,,,,,,,,,,,,,,,,,,,,,,,,,,,,,,,,,,,,,,,,,,,,,,,,,,,,,,,,,,
,,,,,,6154f446688aad7658909dc9,62c539d3d2b6fa4cee194347,2022-07-06_02h35.17.826,Colour_Asymmetry_Pilot,2022.1.3,Win32,56.84402001,62c50e9c1127f2cd403a315f,0,2,2,87,1,fourthree,,,,,,,,,,,,,,,,,,,,,,,,,,,,,,,,,,,,,,,,,,,,,,,,,,,,,,,,,,,,,,,,,,,,,,,,,,,,,,,,,,,,,,,,,,,,,,,,,,,,,,,,,,,,,,,,,,,,,,,,,,,,,,,,,,,,,,,,,,,,,,,,,,,,,,,,,,,,,
,,,,,,6154f446688aad7658909dc9,62c539d3d2b6fa4cee194347,2022-07-06_02h35.17.826,Colour_Asymmetry_Pilot,2022.1.3,Win32,56.84402001,62c50e9c1127f2cd403a315f,0,3,3,63,1,fourthree,,,,,,,,,,,,,,,,,,,,,,,,,,,,,,,,,,,,,,,,,,,,,,,,,,,,,,,,,,,,,,,,,,,,,,,,,,,,,,,,,,,,,,,,,,,,,,,,,,,,,,,,,,,,,,,,,,,,,,,,,,,,,,,,,,,,,,,,,,,,,,,,,,,,,,,,,,,,,
,,,,,,6154f446688aad7658909dc9,62c539d3d2b6fa4cee194347,2022-07-06_02h35.17.826,Colour_Asymmetry_Pilot,2022.1.3,Win32,56.84402001,62c50e9c1127f2cd403a315f,0,4,4,122,1,twoone,,,,,,,,,,,,,,,,,,,,,,,,,,,,,,,,,,,,,,,,,,,,,,,,,,,,,,,,,,,,,,,,,,,,,,,,,,,,,,,,,,,,,,,,,,,,,,,,,,,,,,,,,,,,,,,,,,,,,,,,,,,,,,,,,,,,,,,,,,,,,,,,,,,,,,,,,,,,,
,,,,,,6154f446688aad7658909dc9,62c539d3d2b6fa4cee194347,2022-07-06_02h35.17.826,Colour_Asymmetry_Pilot,2022.1.3,Win32,56.84402001,62c50e9c1127f2cd403a315f,0,5,5,0,1,onetwo,,,,,,,,,,,,,,,,,,,,,,,,,,,,,,,,,,,,,,,,,,,,,,,,,,,,,,,,,,,,,,,,,,,,,,,,,,,,,,,,,,,,,,,,,,,,,,,,,,,,,,,,,,,,,,,,,,,,,,,,,,,,,,,,,,,,,,,,,,,,,,,,,,,,,,,,,,,,,
,,,,,,6154f446688aad7658909dc9,62c539d3d2b6fa4cee194347,2022-07-06_02h35.17.826,Colour_Asymmetry_Pilot,2022.1.3,Win32,56.84402001,62c50e9c1127f2cd403a315f,0,6,6,85,1,threefour,,,,,,,,,,,,,,,,,,,,,,,,,,,,,,,,,,,,,,,,,,,,,,,,,,,,,,,,,,,,,,,,,,,,,,,,,,,,,,,,,,,,,,,,,,,,,,,,,,,,,,,,,,,,,,,,,,,,,,,,,,,,,,,,,,,,,,,,,,,,,,,,,,,,,,,,,,,,,
,,,,,,6154f446688aad7658909dc9,62c539d3d2b6fa4cee194347,2022-07-06_02h35.17.826,Colour_Asymmetry_Pilot,2022.1.3,Win32,56.84402001,62c50e9c1127f2cd403a315f,0,7,7,100,1,threeone,,,,,,,,,,,,,,,,,,,,,,,,,,,,,,,,,,,,,,,,,,,,,,,,,,,,,,,,,,,,,,,,,,,,,,,,,,,,,,,,,,,,,,,,,,,,,,,,,,,,,,,,,,,,,,,,,,,,,,,,,,,,,,,,,,,,,,,,,,,,,,,,,,,,,,,,,,,,,
,,,,,,6154f446688aad7658909dc9,62c539d3d2b6fa4cee194347,2022-07-06_02h35.17.826,Colour_Asymmetry_Pilot,2022.1.3,Win32,56.84402001,62c50e9c1127f2cd403a315f,0,8,8,98,1,twoone,,,,,,,,,,,,,,,,,,,,,,,,,,,,,,,,,,,,,,,,,,,,,,,,,,,,,,,,,,,,,,,,,,,,,,,,,,,,,,,,,,,,,,,,,,,,,,,,,,,,,,,,,,,,,,,,,,,,,,,,,,,,,,,,,,,,,,,,,,,,,,,,,,,,,,,,,,,,,
,,,,,,6154f446688aad7658909dc9,62c539d3d2b6fa4cee194347,2022-07-06_02h35.17.826,Colour_Asymmetry_Pilot,2022.1.3,Win32,56.84402001,62c50e9c1127f2cd403a315f,0,9,9,159,1,fourthree,,,,,,,,,,,,,,,,,,,,,,,,,,,,,,,,,,,,,,,,,,,,,,,,,,,,,,,,,,,,,,,,,,,,,,,,,,,,,,,,,,,,,,,,,,,,,,,,,,,,,,,,,,,,,,,,,,,,,,,,,,,,,,,,,,,,,,,,,,,,,,,,,,,,,,,,,,,,,
,,,,,,6154f446688aad7658909dc9,62c539d3d2b6fa4cee194347,2022-07-06_02h35.17.826,Colour_Asymmetry_Pilot,2022.1.3,Win32,56.84402001,62c50e9c1127f2cd403a315f,0,10,10,130,1,twoone,,,,,,,,,,,,,,,,,,,,,,,,,,,,,,,,,,,,,,,,,,,,,,,,,,,,,,,,,,,,,,,,,,,,,,,,,,,,,,,,,,,,,,,,,,,,,,,,,,,,,,,,,,,,,,,,,,,,,,,,,,,,,,,,,,,,,,,,,,,,,,,,,,,,,,,,,,,,,
,,,,,,6154f446688aad7658909dc9,62c539d3d2b6fa4cee194347,2022-07-06_02h35.17.826,Colour_Asymmetry_Pilot,2022.1.3,Win32,56.84402001,62c50e9c1127f2cd403a315f,0,11,11,158,1,fourtwo,,,,,,,,,,,,,,,,,,,,,,,,,,,,,,,,,,,,,,,,,,,,,,,,,,,,,,,,,,,,,,,,,,,,,,,,,,,,,,,,,,,,,,,,,,,,,,,,,,,,,,,,,,,,,,,,,,,,,,,,,,,,,,,,,,,,,,,,,,,,,,,,,,,,,,,,,,,,,
,,,,,,6154f446688aad7658909dc9,62c539d3d2b6fa4cee194347,2022-07-06_02h35.17.826,Colour_Asymmetry_Pilot,2022.1.3,Win32,56.84402001,62c50e9c1127f2cd403a315f,0,12,12,16,1,onetwo,,,,,,,,,,,,,,,,,,,,,,,,,,,,,,,,,,,,,,,,,,,,,,,,,,,,,,,,,,,,,,,,,,,,,,,,,,,,,,,,,,,,,,,,,,,,,,,,,,,,,,,,,,,,,,,,,,,,,,,,,,,,,,,,,,,,,,,,,,,,,,,,,,,,,,,,,,,,,
,,,,,,6154f446688aad7658909dc9,62c539d3d2b6fa4cee194347,2022-07-06_02h35.17.826,Colour_Asymmetry_Pilot,2022.1.3,Win32,56.84402001,62c50e9c1127f2cd403a315f,0,13,13,70,1,fourtwo,,,,,,,,,,,,,,,,,,,,,,,,,,,,,,,,,,,,,,,,,,,,,,,,,,,,,,,,,,,,,,,,,,,,,,,,,,,,,,,,,,,,,,,,,,,,,,,,,,,,,,,,,,,,,,,,,,,,,,,,,,,,,,,,,,,,,,,,,,,,,,,,,,,,,,,,,,,,,
,,,,,,6154f446688aad7658909dc9,62c539d3d2b6fa4cee194347,2022-07-06_02h35.17.826,Colour_Asymmetry_Pilot,2022.1.3,Win32,56.84402001,62c50e9c1127f2cd403a315f,0,14,14,48,1,onetwo,,,,,,,,,,,,,,,,,,,,,,,,,,,,,,,,,,,,,,,,,,,,,,,,,,,,,,,,,,,,,,,,,,,,,,,,,,,,,,,,,,,,,,,,,,,,,,,,,,,,,,,,,,,,,,,,,,,,,,,,,,,,,,,,,,,,,,,,,,,,,,,,,,,,,,,,,,,,,
,,,,,,6154f446688aad7658909dc9,62c539d3d2b6fa4cee194347,2022-07-06_02h35.17.826,Colour_Asymmetry_Pilot,2022.1.3,Win32,56.84402001,62c50e9c1127f2cd403a315f,0,15,15,50,1,twoone,,,,,,,,,,,,,,,,,,,,,,,,,,,,,,,,,,,,,,,,,,,,,,,,,,,,,,,,,,,,,,,,,,,,,,,,,,,,,,,,,,,,,,,,,,,,,,,,,,,,,,,,,,,,,,,,,,,,,,,,,,,,,,,,,,,,,,,,,,,,,,,,,,,,,,,,,,,,,
,,,,,,6154f446688aad7658909dc9,62c539d3d2b6fa4cee194347,2022-07-06_02h35.17.826,Colour_Asymmetry_Pilot,2022.1.3,Win32,56.84402001,62c50e9c1127f2cd403a315f,0,16,16,84,1,threeone,,,,,,,,,,,,,,,,,,,,,,,,,,,,,,,,,,,,,,,,,,,,,,,,,,,,,,,,,,,,,,,,,,,,,,,,,,,,,,,,,,,,,,,,,,,,,,,,,,,,,,,,,,,,,,,,,,,,,,,,,,,,,,,,,,,,,,,,,,,,,,,,,,,,,,,,,,,,,
,,,,,,6154f446688aad7658909dc9,62c539d3d2b6fa4cee194347,2022-07-06_02h35.17.826,Colour_Asymmetry_Pilot,2022.1.3,Win32,56.84402001,62c50e9c1127f2cd403a315f,0,17,17,25,1,onethree,,,,,,,,,,,,,,,,,,,,,,,,,,,,,,,,,,,,,,,,,,,,,,,,,,,,,,,,,,,,,,,,,,,,,,,,,,,,,,,,,,,,,,,,,,,,,,,,,,,,,,,,,,,,,,,,,,,,,,,,,,,,,,,,,,,,,,,,,,,,,,,,,,,,,,,,,,,,,
,,,,,,6154f446688aad7658909dc9,62c539d3d2b6fa4cee194347,2022-07-06_02h35.17.826,Colour_Asymmetry_Pilot,2022.1.3,Win32,56.84402001,62c50e9c1127f2cd403a315f,0,18,18,8,1,onetwo,,,,,,,,,,,,,,,,,,,,,,,,,,,,,,,,,,,,,,,,,,,,,,,,,,,,,,,,,,,,,,,,,,,,,,,,,,,,,,,,,,,,,,,,,,,,,,,,,,,,,,,,,,,,,,,,,,,,,,,,,,,,,,,,,,,,,,,,,,,,,,,,,,,,,,,,,,,,,
,,,,,,6154f446688aad7658909dc9,62c539d3d2b6fa4cee194347,2022-07-06_02h35.17.826,Colour_Asymmetry_Pilot,2022.1.3,Win32,56.84402001,62c50e9c1127f2cd403a315f,0,19,19,51,1,twofour,,,,,,,,,,,,,,,,,,,,,,,,,,,,,,,,,,,,,,,,,,,,,,,,,,,,,,,,,,,,,,,,,,,,,,,,,,,,,,,,,,,,,,,,,,,,,,,,,,,,,,,,,,,,,,,,,,,,,,,,,,,,,,,,,,,,,,,,,,,,,,,,,,,,,,,,,,,,,
,,,,,,6154f446688aad7658909dc9,62c539d3d2b6fa4cee194347,2022-07-06_02h35.17.826,Colour_Asymmetry_Pilot,2022.1.3,Win32,56.84402001,62c50e9c1127f2cd403a315f,0,20,20,145,1,onethree,,,,,,,,,,,,,,,,,,,,,,,,,,,,,,,,,,,,,,,,,,,,,,,,,,,,,,,,,,,,,,,,,,,,,,,,,,,,,,,,,,,,,,,,,,,,,,,,,,,,,,,,,,,,,,,,,,,,,,,,,,,,,,,,,,,,,,,,,,,,,,,,,,,,,,,,,,,,,
,,,,,,6154f446688aad7658909dc9,62c539d3d2b6fa4cee194347,2022-07-06_02h35.17.826,Colour_Asymmetry_Pilot,2022.1.3,Win32,56.84402001,62c50e9c1127f2cd403a315f,0,21,21,97,1,onethree,,,,,,,,,,,,,,,,,,,,,,,,,,,,,,,,,,,,,,,,,,,,,,,,,,,,,,,,,,,,,,,,,,,,,,,,,,,,,,,,,,,,,,,,,,,,,,,,,,,,,,,,,,,,,,,,,,,,,,,,,,,,,,,,,,,,,,,,,,,,,,,,,,,,,,,,,,,,,
,,,,,,6154f446688aad7658909dc9,62c539d3d2b6fa4cee194347,2022-07-06_02h35.17.826,Colour_Asymmetry_Pilot,2022.1.3,Win32,56.84402001,62c50e9c1127f2cd403a315f,0,22,22,26,1,twoone,,,,,,,,,,,,,,,,,,,,,,,,,,,,,,,,,,,,,,,,,,,,,,,,,,,,,,,,,,,,,,,,,,,,,,,,,,,,,,,,,,,,,,,,,,,,,,,,,,,,,,,,,,,,,,,,,,,,,,,,,,,,,,,,,,,,,,,,,,,,,,,,,,,,,,,,,,,,,
,,,,,,6154f446688aad7658909dc9,62c539d3d2b6fa4cee194347,2022-07-06_02h35.17.826,Colour_Asymmetry_Pilot,2022.1.3,Win32,56.84402001,62c50e9c1127f2cd403a315f,0,23,23,58,1,twoone,,,,,,,,,,,,,,,,,,,,,,,,,,,,,,,,,,,,,,,,,,,,,,,,,,,,,,,,,,,,,,,,,,,,,,,,,,,,,,,,,,,,,,,,,,,,,,,,,,,,,,,,,,,,,,,,,,,,,,,,,,,,,,,,,,,,,,,,,,,,,,,,,,,,,,,,,,,,,
,,,,,,6154f446688aad7658909dc9,62c539d3d2b6fa4cee194347,2022-07-06_02h35.17.826,Colour_Asymmetry_Pilot,2022.1.3,Win32,56.84402001,62c50e9c1127f2cd403a315f,0,24,24,40,1,onetwo,,,,,,,,,,,,,,,,,,,,,,,,,,,,,,,,,,,,,,,,,,,,,,,,,,,,,,,,,,,,,,,,,,,,,,,,,,,,,,,,,,,,,,,,,,,,,,,,,,,,,,,,,,,,,,,,,,,,,,,,,,,,,,,,,,,,,,,,,,,,,,,,,,,,,,,,,,,,,
,,,,,,6154f446688aad7658909dc9,62c539d3d2b6fa4cee194347,2022-07-06_02h35.17.826,Colour_Asymmetry_Pilot,2022.1.3,Win32,56.84402001,62c50e9c1127f2cd403a315f,0,25,25,24,1,onetwo,,,,,,,,,,,,,,,,,,,,,,,,,,,,,,,,,,,,,,,,,,,,,,,,,,,,,,,,,,,,,,,,,,,,,,,,,,,,,,,,,,,,,,,,,,,,,,,,,,,,,,,,,,,,,,,,,,,,,,,,,,,,,,,,,,,,,,,,,,,,,,,,,,,,,,,,,,,,,
,,,,,,6154f446688aad7658909dc9,62c539d3d2b6fa4cee194347,2022-07-06_02h35.17.826,Colour_Asymmetry_Pilot,2022.1.3,Win32,56.84402001,62c50e9c1127f2cd403a315f,0,26,26,101,1,threefour,,,,,,,,,,,,,,,,,,,,,,,,,,,,,,,,,,,,,,,,,,,,,,,,,,,,,,,,,,,,,,,,,,,,,,,,,,,,,,,,,,,,,,,,,,,,,,,,,,,,,,,,,,,,,,,,,,,,,,,,,,,,,,,,,,,,,,,,,,,,,,,,,,,,,,,,,,,,,
,,,,,,6154f446688aad7658909dc9,62c539d3d2b6fa4cee194347,2022-07-06_02h35.17.826,Colour_Asymmetry_Pilot,2022.1.3,Win32,56.84402001,62c50e9c1127f2cd403a315f,0,27,27,69,1,threefour,,,,,,,,,,,,,,,,,,,,,,,,,,,,,,,,,,,,,,,,,,,,,,,,,,,,,,,,,,,,,,,,,,,,,,,,,,,,,,,,,,,,,,,,,,,,,,,,,,,,,,,,,,,,,,,,,,,,,,,,,,,,,,,,,,,,,,,,,,,,,,,,,,,,,,,,,,,,,
,,,,,,6154f446688aad7658909dc9,62c539d3d2b6fa4cee194347,2022-07-06_02h35.17.826,Colour_Asymmetry_Pilot,2022.1.3,Win32,56.84402001,62c50e9c1127f2cd403a315f,0,28,28,138,1,twoone,,,,,,,,,,,,,,,,,,,,,,,,,,,,,,,,,,,,,,,,,,,,,,,,,,,,,,,,,,,,,,,,,,,,,,,,,,,,,,,,,,,,,,,,,,,,,,,,,,,,,,,,,,,,,,,,,,,,,,,,,,,,,,,,,,,,,,,,,,,,,,,,,,,,,,,,,,,,,
,,,,,,6154f446688aad7658909dc9,62c539d3d2b6fa4cee194347,2022-07-06_02h35.17.826,Colour_Asymmetry_Pilot,2022.1.3,Win32,56.84402001,62c50e9c1127f2cd403a315f,0,29,29,139,1,twofour,,,,,,,,,,,,,,,,,,,,,,,,,,,,,,,,,,,,,,,,,,,,,,,,,,,,,,,,,,,,,,,,,,,,,,,,,,,,,,,,,,,,,,,,,,,,,,,,,,,,,,,,,,,,,,,,,,,,,,,,,,,,,,,,,,,,,,,,,,,,,,,,,,,,,,,,,,,,,
,,,,,,6154f446688aad7658909dc9,62c539d3d2b6fa4cee194347,2022-07-06_02h35.17.826,Colour_Asymmetry_Pilot,2022.1.3,Win32,56.84402001,62c50e9c1127f2cd403a315f,0,30,30,52,1,threeone,,,,,,,,,,,,,,,,,,,,,,,,,,,,,,,,,,,,,,,,,,,,,,,,,,,,,,,,,,,,,,,,,,,,,,,,,,,,,,,,,,,,,,,,,,,,,,,,,,,,,,,,,,,,,,,,,,,,,,,,,,,,,,,,,,,,,,,,,,,,,,,,,,,,,,,,,,,,,
,,,,,,6154f446688aad7658909dc9,62c539d3d2b6fa4cee194347,2022-07-06_02h35.17.826,Colour_Asymmetry_Pilot,2022.1.3,Win32,56.84402001,62c50e9c1127f2cd403a315f,0,31,31,91,1,twofour,,,,,,,,,,,,,,,,,,,,,,,,,,,,,,,,,,,,,,,,,,,,,,,,,,,,,,,,,,,,,,,,,,,,,,,,,,,,,,,,,,,,,,,,,,,,,,,,,,,,,,,,,,,,,,,,,,,,,,,,,,,,,,,,,,,,,,,,,,,,,,,,,,,,,,,,,,,,,
,,,,,,6154f446688aad7658909dc9,62c539d3d2b6fa4cee194347,2022-07-06_02h35.17.826,Colour_Asymmetry_Pilot,2022.1.3,Win32,56.84402001,62c50e9c1127f2cd403a315f,0,32,32,128,1,onetwo,,,,,,,,,,,,,,,,,,,,,,,,,,,,,,,,,,,,,,,,,,,,,,,,,,,,,,,,,,,,,,,,,,,,,,,,,,,,,,,,,,,,,,,,,,,,,,,,,,,,,,,,,,,,,,,,,,,,,,,,,,,,,,,,,,,,,,,,,,,,,,,,,,,,,,,,,,,,,
,,,,,,6154f446688aad7658909dc9,62c539d3d2b6fa4cee194347,2022-07-06_02h35.17.826,Colour_Asymmetry_Pilot,2022.1.3,Win32,56.84402001,62c50e9c1127f2cd403a315f,0,33,33,135,1,fourthree,,,,,,,,,,,,,,,,,,,,,,,,,,,,,,,,,,,,,,,,,,,,,,,,,,,,,,,,,,,,,,,,,,,,,,,,,,,,,,,,,,,,,,,,,,,,,,,,,,,,,,,,,,,,,,,,,,,,,,,,,,,,,,,,,,,,,,,,,,,,,,,,,,,,,,,,,,,,,
,,,,,,6154f446688aad7658909dc9,62c539d3d2b6fa4cee194347,2022-07-06_02h35.17.826,Colour_Asymmetry_Pilot,2022.1.3,Win32,56.84402001,62c50e9c1127f2cd403a315f,0,34,34,1,1,onethree,,,,,,,,,,,,,,,,,,,,,,,,,,,,,,,,,,,,,,,,,,,,,,,,,,,,,,,,,,,,,,,,,,,,,,,,,,,,,,,,,,,,,,,,,,,,,,,,,,,,,,,,,,,,,,,,,,,,,,,,,,,,,,,,,,,,,,,,,,,,,,,,,,,,,,,,,,,,,
,,,,,,6154f446688aad7658909dc9,62c539d3d2b6fa4cee194347,2022-07-06_02h35.17.826,Colour_Asymmetry_Pilot,2022.1.3,Win32,56.84402001,62c50e9c1127f2cd403a315f,0,35,35,54,1,fourtwo,,,,,,,,,,,,,,,,,,,,,,,,,,,,,,,,,,,,,,,,,,,,,,,,,,,,,,,,,,,,,,,,,,,,,,,,,,,,,,,,,,,,,,,,,,,,,,,,,,,,,,,,,,,,,,,,,,,,,,,,,,,,,,,,,,,,,,,,,,,,,,,,,,,,,,,,,,,,,
,,,,,,6154f446688aad7658909dc9,62c539d3d2b6fa4cee194347,2022-07-06_02h35.17.826,Colour_Asymmetry_Pilot,2022.1.3,Win32,56.84402001,62c50e9c1127f2cd403a315f,0,36,36,11,1,twofour,,,,,,,,,,,,,,,,,,,,,,,,,,,,,,,,,,,,,,,,,,,,,,,,,,,,,,,,,,,,,,,,,,,,,,,,,,,,,,,,,,,,,,,,,,,,,,,,,,,,,,,,,,,,,,,,,,,,,,,,,,,,,,,,,,,,,,,,,,,,,,,,,,,,,,,,,,,,,
,,,,,,6154f446688aad7658909dc9,62c539d3d2b6fa4cee194347,2022-07-06_02h35.17.826,Colour_Asymmetry_Pilot,2022.1.3,Win32,56.84402001,62c50e9c1127f2cd403a315f,0,37,37,76,1,threeone,,,,,,,,,,,,,,,,,,,,,,,,,,,,,,,,,,,,,,,,,,,,,,,,,,,,,,,,,,,,,,,,,,,,,,,,,,,,,,,,,,,,,,,,,,,,,,,,,,,,,,,,,,,,,,,,,,,,,,,,,,,,,,,,,,,,,,,,,,,,,,,,,,,,,,,,,,,,,
,,,,,,6154f446688aad7658909dc9,62c539d3d2b6fa4cee194347,2022-07-06_02h35.17.826,Colour_Asymmetry_Pilot,2022.1.3,Win32,56.84402001,62c50e9c1127f2cd403a315f,0,38,38,37,1,threefour,,,,,,,,,,,,,,,,,,,,,,,,,,,,,,,,,,,,,,,,,,,,,,,,,,,,,,,,,,,,,,,,,,,,,,,,,,,,,,,,,,,,,,,,,,,,,,,,,,,,,,,,,,,,,,,,,,,,,,,,,,,,,,,,,,,,,,,,,,,,,,,,,,,,,,,,,,,,,
,,,,,,6154f446688aad7658909dc9,62c539d3d2b6fa4cee194347,2022-07-06_02h35.17.826,Colour_Asymmetry_Pilot,2022.1.3,Win32,56.84402001,62c50e9c1127f2cd403a315f,0,39,39,134,1,fourtwo,,,,,,,,,,,,,,,,,,,,,,,,,,,,,,,,,,,,,,,,,,,,,,,,,,,,,,,,,,,,,,,,,,,,,,,,,,,,,,,,,,,,,,,,,,,,,,,,,,,,,,,,,,,,,,,,,,,,,,,,,,,,,,,,,,,,,,,,,,,,,,,,,,,,,,,,,,,,,
,,,,,,6154f446688aad7658909dc9,62c539d3d2b6fa4cee194347,2022-07-06_02h35.17.826,Colour_Asymmetry_Pilot,2022.1.3,Win32,56.84402001,62c50e9c1127f2cd403a315f,0,40,40,151,1,fourthree,,,,,,,,,,,,,,,,,,,,,,,,,,,,,,,,,,,,,,,,,,,,,,,,,,,,,,,,,,,,,,,,,,,,,,,,,,,,,,,,,,,,,,,,,,,,,,,,,,,,,,,,,,,,,,,,,,,,,,,,,,,,,,,,,,,,,,,,,,,,,,,,,,,,,,,,,,,,,
,,,,,,6154f446688aad7658909dc9,62c539d3d2b6fa4cee194347,2022-07-06_02h35.17.826,Colour_Asymmetry_Pilot,2022.1.3,Win32,56.84402001,62c50e9c1127f2cd403a315f,0,41,41,62,1,fourtwo,,,,,,,,,,,,,,,,,,,,,,,,,,,,,,,,,,,,,,,,,,,,,,,,,,,,,,,,,,,,,,,,,,,,,,,,,,,,,,,,,,,,,,,,,,,,,,,,,,,,,,,,,,,,,,,,,,,,,,,,,,,,,,,,,,,,,,,,,,,,,,,,,,,,,,,,,,,,,
,,,,,,6154f446688aad7658909dc9,62c539d3d2b6fa4cee194347,2022-07-06_02h35.17.826,Colour_Asymmetry_Pilot,2022.1.3,Win32,56.84402001,62c50e9c1127f2cd403a315f,0,42,42,4,1,threeone,,,,,,,,,,,,,,,,,,,,,,,,,,,,,,,,,,,,,,,,,,,,,,,,,,,,,,,,,,,,,,,,,,,,,,,,,,,,,,,,,,,,,,,,,,,,,,,,,,,,,,,,,,,,,,,,,,,,,,,,,,,,,,,,,,,,,,,,,,,,,,,,,,,,,,,,,,,,,
,,,,,,6154f446688aad7658909dc9,62c539d3d2b6fa4cee194347,2022-07-06_02h35.17.826,Colour_Asymmetry_Pilot,2022.1.3,Win32,56.84402001,62c50e9c1127f2cd403a315f,0,43,43,161,1,onethree,,,,,,,,,,,,,,,,,,,,,,,,,,,,,,,,,,,,,,,,,,,,,,,,,,,,,,,,,,,,,,,,,,,,,,,,,,,,,,,,,,,,,,,,,,,,,,,,,,,,,,,,,,,,,,,,,,,,,,,,,,,,,,,,,,,,,,,,,,,,,,,,,,,,,,,,,,,,,
,,,,,,6154f446688aad7658909dc9,62c539d3d2b6fa4cee194347,2022-07-06_02h35.17.826,Colour_Asymmetry_Pilot,2022.1.3,Win32,56.84402001,62c50e9c1127f2cd403a315f,0,44,44,88,1,onetwo,,,,,,,,,,,,,,,,,,,,,,,,,,,,,,,,,,,,,,,,,,,,,,,,,,,,,,,,,,,,,,,,,,,,,,,,,,,,,,,,,,,,,,,,,,,,,,,,,,,,,,,,,,,,,,,,,,,,,,,,,,,,,,,,,,,,,,,,,,,,,,,,,,,,,,,,,,,,,
,,,,,,6154f446688aad7658909dc9,62c539d3d2b6fa4cee194347,2022-07-06_02h35.17.826,Colour_Asymmetry_Pilot,2022.1.3,Win32,56.84402001,62c50e9c1127f2cd403a315f,0,45,45,125,1,threefour,,,,,,,,,,,,,,,,,,,,,,,,,,,,,,,,,,,,,,,,,,,,,,,,,,,,,,,,,,,,,,,,,,,,,,,,,,,,,,,,,,,,,,,,,,,,,,,,,,,,,,,,,,,,,,,,,,,,,,,,,,,,,,,,,,,,,,,,,,,,,,,,,,,,,,,,,,,,,
,,,,,,6154f446688aad7658909dc9,62c539d3d2b6fa4cee194347,2022-07-06_02h35.17.826,Colour_Asymmetry_Pilot,2022.1.3,Win32,56.84402001,62c50e9c1127f2cd403a315f,0,46,46,42,1,twoone,,,,,,,,,,,,,,,,,,,,,,,,,,,,,,,,,,,,,,,,,,,,,,,,,,,,,,,,,,,,,,,,,,,,,,,,,,,,,,,,,,,,,,,,,,,,,,,,,,,,,,,,,,,,,,,,,,,,,,,,,,,,,,,,,,,,,,,,,,,,,,,,,,,,,,,,,,,,,
,,,,,,6154f446688aad7658909dc9,62c539d3d2b6fa4cee194347,2022-07-06_02h35.17.826,Colour_Asymmetry_Pilot,2022.1.3,Win32,56.84402001,62c50e9c1127f2cd403a315f,0,47,47,46,1,fourtwo,,,,,,,,,,,,,,,,,,,,,,,,,,,,,,,,,,,,,,,,,,,,,,,,,,,,,,,,,,,,,,,,,,,,,,,,,,,,,,,,,,,,,,,,,,,,,,,,,,,,,,,,,,,,,,,,,,,,,,,,,,,,,,,,,,,,,,,,,,,,,,,,,,,,,,,,,,,,,
,,,,,,6154f446688aad7658909dc9,62c539d3d2b6fa4cee194347,2022-07-06_02h35.17.826,Colour_Asymmetry_Pilot,2022.1.3,Win32,56.84402001,62c50e9c1127f2cd403a315f,0,48,48,148,1,threeone,,,,,,,,,,,,,,,,,,,,,,,,,,,,,,,,,,,,,,,,,,,,,,,,,,,,,,,,,,,,,,,,,,,,,,,,,,,,,,,,,,,,,,,,,,,,,,,,,,,,,,,,,,,,,,,,,,,,,,,,,,,,,,,,,,,,,,,,,,,,,,,,,,,,,,,,,,,,,
,,,,,,6154f446688aad7658909dc9,62c539d3d2b6fa4cee194347,2022-07-06_02h35.17.826,Colour_Asymmetry_Pilot,2022.1.3,Win32,56.84402001,62c50e9c1127f2cd403a315f,0,49,49,115,1,twofour,,,,,,,,,,,,,,,,,,,,,,,,,,,,,,,,,,,,,,,,,,,,,,,,,,,,,,,,,,,,,,,,,,,,,,,,,,,,,,,,,,,,,,,,,,,,,,,,,,,,,,,,,,,,,,,,,,,,,,,,,,,,,,,,,,,,,,,,,,,,,,,,,,,,,,,,,,,,,
,,,,,,6154f446688aad7658909dc9,62c539d3d2b6fa4cee194347,2022-07-06_02h35.17.826,Colour_Asymmetry_Pilot,2022.1.3,Win32,56.84402001,62c50e9c1127f2cd403a315f,0,50,50,2,1,twoone,,,,,,,,,,,,,,,,,,,,,,,,,,,,,,,,,,,,,,,,,,,,,,,,,,,,,,,,,,,,,,,,,,,,,,,,,,,,,,,,,,,,,,,,,,,,,,,,,,,,,,,,,,,,,,,,,,,,,,,,,,,,,,,,,,,,,,,,,,,,,,,,,,,,,,,,,,,,,
,,,,,,6154f446688aad7658909dc9,62c539d3d2b6fa4cee194347,2022-07-06_02h35.17.826,Colour_Asymmetry_Pilot,2022.1.3,Win32,56.84402001,62c50e9c1127f2cd403a315f,0,51,51,83,1,twofour,,,,,,,,,,,,,,,,,,,,,,,,,,,,,,,,,,,,,,,,,,,,,,,,,,,,,,,,,,,,,,,,,,,,,,,,,,,,,,,,,,,,,,,,,,,,,,,,,,,,,,,,,,,,,,,,,,,,,,,,,,,,,,,,,,,,,,,,,,,,,,,,,,,,,,,,,,,,,
,,,,,,6154f446688aad7658909dc9,62c539d3d2b6fa4cee194347,2022-07-06_02h35.17.826,Colour_Asymmetry_Pilot,2022.1.3,Win32,56.84402001,62c50e9c1127f2cd403a315f,0,52,52,153,1,onethree,,,,,,,,,,,,,,,,,,,,,,,,,,,,,,,,,,,,,,,,,,,,,,,,,,,,,,,,,,,,,,,,,,,,,,,,,,,,,,,,,,,,,,,,,,,,,,,,,,,,,,,,,,,,,,,,,,,,,,,,,,,,,,,,,,,,,,,,,,,,,,,,,,,,,,,,,,,,,
,,,,,,6154f446688aad7658909dc9,62c539d3d2b6fa4cee194347,2022-07-06_02h35.17.826,Colour_Asymmetry_Pilot,2022.1.3,Win32,56.84402001,62c50e9c1127f2cd403a315f,0,53,53,29,1,threefour,,,,,,,,,,,,,,,,,,,,,,,,,,,,,,,,,,,,,,,,,,,,,,,,,,,,,,,,,,,,,,,,,,,,,,,,,,,,,,,,,,,,,,,,,,,,,,,,,,,,,,,,,,,,,,,,,,,,,,,,,,,,,,,,,,,,,,,,,,,,,,,,,,,,,,,,,,,,,
,,,,,,6154f446688aad7658909dc9,62c539d3d2b6fa4cee194347,2022-07-06_02h35.17.826,Colour_Asymmetry_Pilot,2022.1.3,Win32,56.84402001,62c50e9c1127f2cd403a315f,0,54,54,5,1,threefour,,,,,,,,,,,,,,,,,,,,,,,,,,,,,,,,,,,,,,,,,,,,,,,,,,,,,,,,,,,,,,,,,,,,,,,,,,,,,,,,,,,,,,,,,,,,,,,,,,,,,,,,,,,,,,,,,,,,,,,,,,,,,,,,,,,,,,,,,,,,,,,,,,,,,,,,,,,,,
,,,,,,6154f446688aad7658909dc9,62c539d3d2b6fa4cee194347,2022-07-06_02h35.17.826,Colour_Asymmetry_Pilot,2022.1.3,Win32,56.84402001,62c50e9c1127f2cd403a315f,0,55,55,18,1,twoone,,,,,,,,,,,,,,,,,,,,,,,,,,,,,,,,,,,,,,,,,,,,,,,,,,,,,,,,,,,,,,,,,,,,,,,,,,,,,,,,,,,,,,,,,,,,,,,,,,,,,,,,,,,,,,,,,,,,,,,,,,,,,,,,,,,,,,,,,,,,,,,,,,,,,,,,,,,,,
,,,,,,6154f446688aad7658909dc9,62c539d3d2b6fa4cee194347,2022-07-06_02h35.17.826,Colour_Asymmetry_Pilot,2022.1.3,Win32,56.84402001,62c50e9c1127f2cd403a315f,0,56,56,140,1,threeone,,,,,,,,,,,,,,,,,,,,,,,,,,,,,,,,,,,,,,,,,,,,,,,,,,,,,,,,,,,,,,,,,,,,,,,,,,,,,,,,,,,,,,,,,,,,,,,,,,,,,,,,,,,,,,,,,,,,,,,,,,,,,,,,,,,,,,,,,,,,,,,,,,,,,,,,,,,,,
,,,,,,6154f446688aad7658909dc9,62c539d3d2b6fa4cee194347,2022-07-06_02h35.17.826,Colour_Asymmetry_Pilot,2022.1.3,Win32,56.84402001,62c50e9c1127f2cd403a315f,0,57,57,22,1,fourtwo,,,,,,,,,,,,,,,,,,,,,,,,,,,,,,,,,,,,,,,,,,,,,,,,,,,,,,,,,,,,,,,,,,,,,,,,,,,,,,,,,,,,,,,,,,,,,,,,,,,,,,,,,,,,,,,,,,,,,,,,,,,,,,,,,,,,,,,,,,,,,,,,,,,,,,,,,,,,,
,,,,,,6154f446688aad7658909dc9,62c539d3d2b6fa4cee194347,2022-07-06_02h35.17.826,Colour_Asymmetry_Pilot,2022.1.3,Win32,56.84402001,62c50e9c1127f2cd403a315f,0,58,58,132,1,threeone,,,,,,,,,,,,,,,,,,,,,,,,,,,,,,,,,,,,,,,,,,,,,,,,,,,,,,,,,,,,,,,,,,,,,,,,,,,,,,,,,,,,,,,,,,,,,,,,,,,,,,,,,,,,,,,,,,,,,,,,,,,,,,,,,,,,,,,,,,,,,,,,,,,,,,,,,,,,,
,,,,,,6154f446688aad7658909dc9,62c539d3d2b6fa4cee194347,2022-07-06_02h35.17.826,Colour_Asymmetry_Pilot,2022.1.3,Win32,56.84402001,62c50e9c1127f2cd403a315f,0,59,59,142,1,fourtwo,,,,,,,,,,,,,,,,,,,,,,,,,,,,,,,,,,,,,,,,,,,,,,,,,,,,,,,,,,,,,,,,,,,,,,,,,,,,,,,,,,,,,,,,,,,,,,,,,,,,,,,,,,,,,,,,,,,,,,,,,,,,,,,,,,,,,,,,,,,,,,,,,,,,,,,,,,,,,
,,,,,,6154f446688aad7658909dc9,62c539d3d2b6fa4cee194347,2022-07-06_02h35.17.826,Colour_Asymmetry_Pilot,2022.1.3,Win32,56.84402001,62c50e9c1127f2cd403a315f,0,60,60,75,1,twofour,,,,,,,,,,,,,,,,,,,,,,,,,,,,,,,,,,,,,,,,,,,,,,,,,,,,,,,,,,,,,,,,,,,,,,,,,,,,,,,,,,,,,,,,,,,,,,,,,,,,,,,,,,,,,,,,,,,,,,,,,,,,,,,,,,,,,,,,,,,,,,,,,,,,,,,,,,,,,
,,,,,,6154f446688aad7658909dc9,62c539d3d2b6fa4cee194347,2022-07-06_02h35.17.826,Colour_Asymmetry_Pilot,2022.1.3,Win32,56.84402001,62c50e9c1127f2cd403a315f,0,61,61,15,1,fourthree,,,,,,,,,,,,,,,,,,,,,,,,,,,,,,,,,,,,,,,,,,,,,,,,,,,,,,,,,,,,,,,,,,,,,,,,,,,,,,,,,,,,,,,,,,,,,,,,,,,,,,,,,,,,,,,,,,,,,,,,,,,,,,,,,,,,,,,,,,,,,,,,,,,,,,,,,,,,,
,,,,,,6154f446688aad7658909dc9,62c539d3d2b6fa4cee194347,2022-07-06_02h35.17.826,Colour_Asymmetry_Pilot,2022.1.3,Win32,56.84402001,62c50e9c1127f2cd403a315f,0,62,62,143,1,fourthree,,,,,,,,,,,,,,,,,,,,,,,,,,,,,,,,,,,,,,,,,,,,,,,,,,,,,,,,,,,,,,,,,,,,,,,,,,,,,,,,,,,,,,,,,,,,,,,,,,,,,,,,,,,,,,,,,,,,,,,,,,,,,,,,,,,,,,,,,,,,,,,,,,,,,,,,,,,,,
,,,,,,6154f446688aad7658909dc9,62c539d3d2b6fa4cee194347,2022-07-06_02h35.17.826,Colour_Asymmetry_Pilot,2022.1.3,Win32,56.84402001,62c50e9c1127f2cd403a315f,0,63,63,39,1,fourthree,,,,,,,,,,,,,,,,,,,,,,,,,,,,,,,,,,,,,,,,,,,,,,,,,,,,,,,,,,,,,,,,,,,,,,,,,,,,,,,,,,,,,,,,,,,,,,,,,,,,,,,,,,,,,,,,,,,,,,,,,,,,,,,,,,,,,,,,,,,,,,,,,,,,,,,,,,,,,
,,,,,,6154f446688aad7658909dc9,62c539d3d2b6fa4cee194347,2022-07-06_02h35.17.826,Colour_Asymmetry_Pilot,2022.1.3,Win32,56.84402001,62c50e9c1127f2cd403a315f,0,64,64,81,1,onethree,,,,,,,,,,,,,,,,,,,,,,,,,,,,,,,,,,,,,,,,,,,,,,,,,,,,,,,,,,,,,,,,,,,,,,,,,,,,,,,,,,,,,,,,,,,,,,,,,,,,,,,,,,,,,,,,,,,,,,,,,,,,,,,,,,,,,,,,,,,,,,,,,,,,,,,,,,,,,
,,,,,,6154f446688aad7658909dc9,62c539d3d2b6fa4cee194347,2022-07-06_02h35.17.826,Colour_Asymmetry_Pilot,2022.1.3,Win32,56.84402001,62c50e9c1127f2cd403a315f,0,65,65,137,1,onethree,,,,,,,,,,,,,,,,,,,,,,,,,,,,,,,,,,,,,,,,,,,,,,,,,,,,,,,,,,,,,,,,,,,,,,,,,,,,,,,,,,,,,,,,,,,,,,,,,,,,,,,,,,,,,,,,,,,,,,,,,,,,,,,,,,,,,,,,,,,,,,,,,,,,,,,,,,,,,
,,,,,,6154f446688aad7658909dc9,62c539d3d2b6fa4cee194347,2022-07-06_02h35.17.826,Colour_Asymmetry_Pilot,2022.1.3,Win32,56.84402001,62c50e9c1127f2cd403a315f,0,66,66,96,1,onetwo,,,,,,,,,,,,,,,,,,,,,,,,,,,,,,,,,,,,,,,,,,,,,,,,,,,,,,,,,,,,,,,,,,,,,,,,,,,,,,,,,,,,,,,,,,,,,,,,,,,,,,,,,,,,,,,,,,,,,,,,,,,,,,,,,,,,,,,,,,,,,,,,,,,,,,,,,,,,,
,,,,,,6154f446688aad7658909dc9,62c539d3d2b6fa4cee194347,2022-07-06_02h35.17.826,Colour_Asymmetry_Pilot,2022.1.3,Win32,56.84402001,62c50e9c1127f2cd403a315f,0,67,67,119,1,fourthree,,,,,,,,,,,,,,,,,,,,,,,,,,,,,,,,,,,,,,,,,,,,,,,,,,,,,,,,,,,,,,,,,,,,,,,,,,,,,,,,,,,,,,,,,,,,,,,,,,,,,,,,,,,,,,,,,,,,,,,,,,,,,,,,,,,,,,,,,,,,,,,,,,,,,,,,,,,,,
,,,,,,6154f446688aad7658909dc9,62c539d3d2b6fa4cee194347,2022-07-06_02h35.17.826,Colour_Asymmetry_Pilot,2022.1.3,Win32,56.84402001,62c50e9c1127f2cd403a315f,0,68,68,17,1,onethree,,,,,,,,,,,,,,,,,,,,,,,,,,,,,,,,,,,,,,,,,,,,,,,,,,,,,,,,,,,,,,,,,,,,,,,,,,,,,,,,,,,,,,,,,,,,,,,,,,,,,,,,,,,,,,,,,,,,,,,,,,,,,,,,,,,,,,,,,,,,,,,,,,,,,,,,,,,,,
,,,,,,6154f446688aad7658909dc9,62c539d3d2b6fa4cee194347,2022-07-06_02h35.17.826,Colour_Asymmetry_Pilot,2022.1.3,Win32,56.84402001,62c50e9c1127f2cd403a315f,0,69,69,117,1,threefour,,,,,,,,,,,,,,,,,,,,,,,,,,,,,,,,,,,,,,,,,,,,,,,,,,,,,,,,,,,,,,,,,,,,,,,,,,,,,,,,,,,,,,,,,,,,,,,,,,,,,,,,,,,,,,,,,,,,,,,,,,,,,,,,,,,,,,,,,,,,,,,,,,,,,,,,,,,,,
,,,,,,6154f446688aad7658909dc9,62c539d3d2b6fa4cee194347,2022-07-06_02h35.17.826,Colour_Asymmetry_Pilot,2022.1.3,Win32,56.84402001,62c50e9c1127f2cd403a315f,0,70,70,82,1,twoone,,,,,,,,,,,,,,,,,,,,,,,,,,,,,,,,,,,,,,,,,,,,,,,,,,,,,,,,,,,,,,,,,,,,,,,,,,,,,,,,,,,,,,,,,,,,,,,,,,,,,,,,,,,,,,,,,,,,,,,,,,,,,,,,,,,,,,,,,,,,,,,,,,,,,,,,,,,,,
,,,,,,6154f446688aad7658909dc9,62c539d3d2b6fa4cee194347,2022-07-06_02h35.17.826,Colour_Asymmetry_Pilot,2022.1.3,Win32,56.84402001,62c50e9c1127f2cd403a315f,0,71,71,49,1,onethree,,,,,,,,,,,,,,,,,,,,,,,,,,,,,,,,,,,,,,,,,,,,,,,,,,,,,,,,,,,,,,,,,,,,,,,,,,,,,,,,,,,,,,,,,,,,,,,,,,,,,,,,,,,,,,,,,,,,,,,,,,,,,,,,,,,,,,,,,,,,,,,,,,,,,,,,,,,,,
,,,,,,6154f446688aad7658909dc9,62c539d3d2b6fa4cee194347,2022-07-06_02h35.17.826,Colour_Asymmetry_Pilot,2022.1.3,Win32,56.84402001,62c50e9c1127f2cd403a315f,0,72,72,72,1,onetwo,,,,,,,,,,,,,,,,,,,,,,,,,,,,,,,,,,,,,,,,,,,,,,,,,,,,,,,,,,,,,,,,,,,,,,,,,,,,,,,,,,,,,,,,,,,,,,,,,,,,,,,,,,,,,,,,,,,,,,,,,,,,,,,,,,,,,,,,,,,,,,,,,,,,,,,,,,,,,
,,,,,,6154f446688aad7658909dc9,62c539d3d2b6fa4cee194347,2022-07-06_02h35.17.826,Colour_Asymmetry_Pilot,2022.1.3,Win32,56.84402001,62c50e9c1127f2cd403a315f,0,73,73,131,1,twofour,,,,,,,,,,,,,,,,,,,,,,,,,,,,,,,,,,,,,,,,,,,,,,,,,,,,,,,,,,,,,,,,,,,,,,,,,,,,,,,,,,,,,,,,,,,,,,,,,,,,,,,,,,,,,,,,,,,,,,,,,,,,,,,,,,,,,,,,,,,,,,,,,,,,,,,,,,,,,
,,,,,,6154f446688aad7658909dc9,62c539d3d2b6fa4cee194347,2022-07-06_02h35.17.826,Colour_Asymmetry_Pilot,2022.1.3,Win32,56.84402001,62c50e9c1127f2cd403a315f,0,74,74,21,1,threefour,,,,,,,,,,,,,,,,,,,,,,,,,,,,,,,,,,,,,,,,,,,,,,,,,,,,,,,,,,,,,,,,,,,,,,,,,,,,,,,,,,,,,,,,,,,,,,,,,,,,,,,,,,,,,,,,,,,,,,,,,,,,,,,,,,,,,,,,,,,,,,,,,,,,,,,,,,,,,
,,,,,,6154f446688aad7658909dc9,62c539d3d2b6fa4cee194347,2022-07-06_02h35.17.826,Colour_Asymmetry_Pilot,2022.1.3,Win32,56.84402001,62c50e9c1127f2cd403a315f,0,75,75,32,1,onetwo,,,,,,,,,,,,,,,,,,,,,,,,,,,,,,,,,,,,,,,,,,,,,,,,,,,,,,,,,,,,,,,,,,,,,,,,,,,,,,,,,,,,,,,,,,,,,,,,,,,,,,,,,,,,,,,,,,,,,,,,,,,,,,,,,,,,,,,,,,,,,,,,,,,,,,,,,,,,,
,,,,,,6154f446688aad7658909dc9,62c539d3d2b6fa4cee194347,2022-07-06_02h35.17.826,Colour_Asymmetry_Pilot,2022.1.3,Win32,56.84402001,62c50e9c1127f2cd403a315f,0,76,76,104,1,onetwo,,,,,,,,,,,,,,,,,,,,,,,,,,,,,,,,,,,,,,,,,,,,,,,,,,,,,,,,,,,,,,,,,,,,,,,,,,,,,,,,,,,,,,,,,,,,,,,,,,,,,,,,,,,,,,,,,,,,,,,,,,,,,,,,,,,,,,,,,,,,,,,,,,,,,,,,,,,,,
,,,,,,6154f446688aad7658909dc9,62c539d3d2b6fa4cee194347,2022-07-06_02h35.17.826,Colour_Asymmetry_Pilot,2022.1.3,Win32,56.84402001,62c50e9c1127f2cd403a315f,0,77,77,30,1,fourtwo,,,,,,,,,,,,,,,,,,,,,,,,,,,,,,,,,,,,,,,,,,,,,,,,,,,,,,,,,,,,,,,,,,,,,,,,,,,,,,,,,,,,,,,,,,,,,,,,,,,,,,,,,,,,,,,,,,,,,,,,,,,,,,,,,,,,,,,,,,,,,,,,,,,,,,,,,,,,,
,,,,,,6154f446688aad7658909dc9,62c539d3d2b6fa4cee194347,2022-07-06_02h35.17.826,Colour_Asymmetry_Pilot,2022.1.3,Win32,56.84402001,62c50e9c1127f2cd403a315f,0,78,78,110,1,fourtwo,,,,,,,,,,,,,,,,,,,,,,,,,,,,,,,,,,,,,,,,,,,,,,,,,,,,,,,,,,,,,,,,,,,,,,,,,,,,,,,,,,,,,,,,,,,,,,,,,,,,,,,,,,,,,,,,,,,,,,,,,,,,,,,,,,,,,,,,,,,,,,,,,,,,,,,,,,,,,
,,,,,,6154f446688aad7658909dc9,62c539d3d2b6fa4cee194347,2022-07-06_02h35.17.826,Colour_Asymmetry_Pilot,2022.1.3,Win32,56.84402001,62c50e9c1127f2cd403a315f,0,79,79,147,1,twofour,,,,,,,,,,,,,,,,,,,,,,,,,,,,,,,,,,,,,,,,,,,,,,,,,,,,,,,,,,,,,,,,,,,,,,,,,,,,,,,,,,,,,,,,,,,,,,,,,,,,,,,,,,,,,,,,,,,,,,,,,,,,,,,,,,,,,,,,,,,,,,,,,,,,,,,,,,,,,
,,,,,,6154f446688aad7658909dc9,62c539d3d2b6fa4cee194347,2022-07-06_02h35.17.826,Colour_Asymmetry_Pilot,2022.1.3,Win32,56.84402001,62c50e9c1127f2cd403a315f,0,80,80,27,1,twofour,,,,,,,,,,,,,,,,,,,,,,,,,,,,,,,,,,,,,,,,,,,,,,,,,,,,,,,,,,,,,,,,,,,,,,,,,,,,,,,,,,,,,,,,,,,,,,,,,,,,,,,,,,,,,,,,,,,,,,,,,,,,,,,,,,,,,,,,,,,,,,,,,,,,,,,,,,,,,
,,,,,,6154f446688aad7658909dc9,62c539d3d2b6fa4cee194347,2022-07-06_02h35.17.826,Colour_Asymmetry_Pilot,2022.1.3,Win32,56.84402001,62c50e9c1127f2cd403a315f,0,81,81,9,1,onethree,,,,,,,,,,,,,,,,,,,,,,,,,,,,,,,,,,,,,,,,,,,,,,,,,,,,,,,,,,,,,,,,,,,,,,,,,,,,,,,,,,,,,,,,,,,,,,,,,,,,,,,,,,,,,,,,,,,,,,,,,,,,,,,,,,,,,,,,,,,,,,,,,,,,,,,,,,,,,
,,,,,,6154f446688aad7658909dc9,62c539d3d2b6fa4cee194347,2022-07-06_02h35.17.826,Colour_Asymmetry_Pilot,2022.1.3,Win32,56.84402001,62c50e9c1127f2cd403a315f,0,82,82,6,1,fourtwo,,,,,,,,,,,,,,,,,,,,,,,,,,,,,,,,,,,,,,,,,,,,,,,,,,,,,,,,,,,,,,,,,,,,,,,,,,,,,,,,,,,,,,,,,,,,,,,,,,,,,,,,,,,,,,,,,,,,,,,,,,,,,,,,,,,,,,,,,,,,,,,,,,,,,,,,,,,,,
,,,,,,6154f446688aad7658909dc9,62c539d3d2b6fa4cee194347,2022-07-06_02h35.17.826,Colour_Asymmetry_Pilot,2022.1.3,Win32,56.84402001,62c50e9c1127f2cd403a315f,0,83,83,33,1,onethree,,,,,,,,,,,,,,,,,,,,,,,,,,,,,,,,,,,,,,,,,,,,,,,,,,,,,,,,,,,,,,,,,,,,,,,,,,,,,,,,,,,,,,,,,,,,,,,,,,,,,,,,,,,,,,,,,,,,,,,,,,,,,,,,,,,,,,,,,,,,,,,,,,,,,,,,,,,,,
,,,,,,6154f446688aad7658909dc9,62c539d3d2b6fa4cee194347,2022-07-06_02h35.17.826,Colour_Asymmetry_Pilot,2022.1.3,Win32,56.84402001,62c50e9c1127f2cd403a315f,0,84,84,41,1,onethree,,,,,,,,,,,,,,,,,,,,,,,,,,,,,,,,,,,,,,,,,,,,,,,,,,,,,,,,,,,,,,,,,,,,,,,,,,,,,,,,,,,,,,,,,,,,,,,,,,,,,,,,,,,,,,,,,,,,,,,,,,,,,,,,,,,,,,,,,,,,,,,,,,,,,,,,,,,,,
,,,,,,6154f446688aad7658909dc9,62c539d3d2b6fa4cee194347,2022-07-06_02h35.17.826,Colour_Asymmetry_Pilot,2022.1.3,Win32,56.84402001,62c50e9c1127f2cd403a315f,0,85,85,64,1,onetwo,,,,,,,,,,,,,,,,,,,,,,,,,,,,,,,,,,,,,,,,,,,,,,,,,,,,,,,,,,,,,,,,,,,,,,,,,,,,,,,,,,,,,,,,,,,,,,,,,,,,,,,,,,,,,,,,,,,,,,,,,,,,,,,,,,,,,,,,,,,,,,,,,,,,,,,,,,,,,
,,,,,,6154f446688aad7658909dc9,62c539d3d2b6fa4cee194347,2022-07-06_02h35.17.826,Colour_Asymmetry_Pilot,2022.1.3,Win32,56.84402001,62c50e9c1127f2cd403a315f,0,86,86,154,1,twoone,,,,,,,,,,,,,,,,,,,,,,,,,,,,,,,,,,,,,,,,,,,,,,,,,,,,,,,,,,,,,,,,,,,,,,,,,,,,,,,,,,,,,,,,,,,,,,,,,,,,,,,,,,,,,,,,,,,,,,,,,,,,,,,,,,,,,,,,,,,,,,,,,,,,,,,,,,,,,
,,,,,,6154f446688aad7658909dc9,62c539d3d2b6fa4cee194347,2022-07-06_02h35.17.826,Colour_Asymmetry_Pilot,2022.1.3,Win32,56.84402001,62c50e9c1127f2cd403a315f,0,87,87,55,1,fourthree,,,,,,,,,,,,,,,,,,,,,,,,,,,,,,,,,,,,,,,,,,,,,,,,,,,,,,,,,,,,,,,,,,,,,,,,,,,,,,,,,,,,,,,,,,,,,,,,,,,,,,,,,,,,,,,,,,,,,,,,,,,,,,,,,,,,,,,,,,,,,,,,,,,,,,,,,,,,,
,,,,,,6154f446688aad7658909dc9,62c539d3d2b6fa4cee194347,2022-07-06_02h35.17.826,Colour_Asymmetry_Pilot,2022.1.3,Win32,56.84402001,62c50e9c1127f2cd403a315f,0,88,88,38,1,fourtwo,,,,,,,,,,,,,,,,,,,,,,,,,,,,,,,,,,,,,,,,,,,,,,,,,,,,,,,,,,,,,,,,,,,,,,,,,,,,,,,,,,,,,,,,,,,,,,,,,,,,,,,,,,,,,,,,,,,,,,,,,,,,,,,,,,,,,,,,,,,,,,,,,,,,,,,,,,,,,
,,,,,,6154f446688aad7658909dc9,62c539d3d2b6fa4cee194347,2022-07-06_02h35.17.826,Colour_Asymmetry_Pilot,2022.1.3,Win32,56.84402001,62c50e9c1127f2cd403a315f,0,89,89,47,1,fourthree,,,,,,,,,,,,,,,,,,,,,,,,,,,,,,,,,,,,,,,,,,,,,,,,,,,,,,,,,,,,,,,,,,,,,,,,,,,,,,,,,,,,,,,,,,,,,,,,,,,,,,,,,,,,,,,,,,,,,,,,,,,,,,,,,,,,,,,,,,,,,,,,,,,,,,,,,,,,,
,,,,,,6154f446688aad7658909dc9,62c539d3d2b6fa4cee194347,2022-07-06_02h35.17.826,Colour_Asymmetry_Pilot,2022.1.3,Win32,56.84402001,62c50e9c1127f2cd403a315f,0,90,90,80,1,onetwo,,,,,,,,,,,,,,,,,,,,,,,,,,,,,,,,,,,,,,,,,,,,,,,,,,,,,,,,,,,,,,,,,,,,,,,,,,,,,,,,,,,,,,,,,,,,,,,,,,,,,,,,,,,,,,,,,,,,,,,,,,,,,,,,,,,,,,,,,,,,,,,,,,,,,,,,,,,,,
,,,,,,6154f446688aad7658909dc9,62c539d3d2b6fa4cee194347,2022-07-06_02h35.17.826,Colour_Asymmetry_Pilot,2022.1.3,Win32,56.84402001,62c50e9c1127f2cd403a315f,0,91,91,68,1,threeone,,,,,,,,,,,,,,,,,,,,,,,,,,,,,,,,,,,,,,,,,,,,,,,,,,,,,,,,,,,,,,,,,,,,,,,,,,,,,,,,,,,,,,,,,,,,,,,,,,,,,,,,,,,,,,,,,,,,,,,,,,,,,,,,,,,,,,,,,,,,,,,,,,,,,,,,,,,,,
,,,,,,6154f446688aad7658909dc9,62c539d3d2b6fa4cee194347,2022-07-06_02h35.17.826,Colour_Asymmetry_Pilot,2022.1.3,Win32,56.84402001,62c50e9c1127f2cd403a315f,0,92,92,77,1,threefour,,,,,,,,,,,,,,,,,,,,,,,,,,,,,,,,,,,,,,,,,,,,,,,,,,,,,,,,,,,,,,,,,,,,,,,,,,,,,,,,,,,,,,,,,,,,,,,,,,,,,,,,,,,,,,,,,,,,,,,,,,,,,,,,,,,,,,,,,,,,,,,,,,,,,,,,,,,,,
,,,,,,6154f446688aad7658909dc9,62c539d3d2b6fa4cee194347,2022-07-06_02h35.17.826,Colour_Asymmetry_Pilot,2022.1.3,Win32,56.84402001,62c50e9c1127f2cd403a315f,0,93,93,108,1,threeone,,,,,,,,,,,,,,,,,,,,,,,,,,,,,,,,,,,,,,,,,,,,,,,,,,,,,,,,,,,,,,,,,,,,,,,,,,,,,,,,,,,,,,,,,,,,,,,,,,,,,,,,,,,,,,,,,,,,,,,,,,,,,,,,,,,,,,,,,,,,,,,,,,,,,,,,,,,,,
,,,,,,6154f446688aad7658909dc9,62c539d3d2b6fa4cee194347,2022-07-06_02h35.17.826,Colour_Asymmetry_Pilot,2022.1.3,Win32,56.84402001,62c50e9c1127f2cd403a315f,0,94,94,45,1,threefour,,,,,,,,,,,,,,,,,,,,,,,,,,,,,,,,,,,,,,,,,,,,,,,,,,,,,,,,,,,,,,,,,,,,,,,,,,,,,,,,,,,,,,,,,,,,,,,,,,,,,,,,,,,,,,,,,,,,,,,,,,,,,,,,,,,,,,,,,,,,,,,,,,,,,,,,,,,,,
,,,,,,6154f446688aad7658909dc9,62c539d3d2b6fa4cee194347,2022-07-06_02h35.17.826,Colour_Asymmetry_Pilot,2022.1.3,Win32,56.84402001,62c50e9c1127f2cd403a315f,0,95,95,79,1,fourthree,,,,,,,,,,,,,,,,,,,,,,,,,,,,,,,,,,,,,,,,,,,,,,,,,,,,,,,,,,,,,,,,,,,,,,,,,,,,,,,,,,,,,,,,,,,,,,,,,,,,,,,,,,,,,,,,,,,,,,,,,,,,,,,,,,,,,,,,,,,,,,,,,,,,,,,,,,,,,
,,,,,,6154f446688aad7658909dc9,62c539d3d2b6fa4cee194347,2022-07-06_02h35.17.826,Colour_Asymmetry_Pilot,2022.1.3,Win32,56.84402001,62c50e9c1127f2cd403a315f,0,96,96,99,1,twofour,,,,,,,,,,,,,,,,,,,,,,,,,,,,,,,,,,,,,,,,,,,,,,,,,,,,,,,,,,,,,,,,,,,,,,,,,,,,,,,,,,,,,,,,,,,,,,,,,,,,,,,,,,,,,,,,,,,,,,,,,,,,,,,,,,,,,,,,,,,,,,,,,,,,,,,,,,,,,
,,,,,,6154f446688aad7658909dc9,62c539d3d2b6fa4cee194347,2022-07-06_02h35.17.826,Colour_Asymmetry_Pilot,2022.1.3,Win32,56.84402001,62c50e9c1127f2cd403a315f,0,97,97,36,1,threeone,,,,,,,,,,,,,,,,,,,,,,,,,,,,,,,,,,,,,,,,,,,,,,,,,,,,,,,,,,,,,,,,,,,,,,,,,,,,,,,,,,,,,,,,,,,,,,,,,,,,,,,,,,,,,,,,,,,,,,,,,,,,,,,,,,,,,,,,,,,,,,,,,,,,,,,,,,,,,
,,,,,,6154f446688aad7658909dc9,62c539d3d2b6fa4cee194347,2022-07-06_02h35.17.826,Colour_Asymmetry_Pilot,2022.1.3,Win32,56.84402001,62c50e9c1127f2cd403a315f,0,98,98,105,1,onethree,,,,,,,,,,,,,,,,,,,,,,,,,,,,,,,,,,,,,,,,,,,,,,,,,,,,,,,,,,,,,,,,,,,,,,,,,,,,,,,,,,,,,,,,,,,,,,,,,,,,,,,,,,,,,,,,,,,,,,,,,,,,,,,,,,,,,,,,,,,,,,,,,,,,,,,,,,,,,
,,,,,,6154f446688aad7658909dc9,62c539d3d2b6fa4cee194347,2022-07-06_02h35.17.826,Colour_Asymmetry_Pilot,2022.1.3,Win32,56.84402001,62c50e9c1127f2cd403a315f,0,99,99,89,1,onethree,,,,,,,,,,,,,,,,,,,,,,,,,,,,,,,,,,,,,,,,,,,,,,,,,,,,,,,,,,,,,,,,,,,,,,,,,,,,,,,,,,,,,,,,,,,,,,,,,,,,,,,,,,,,,,,,,,,,,,,,,,,,,,,,,,,,,,,,,,,,,,,,,,,,,,,,,,,,,
,,,,,,6154f446688aad7658909dc9,62c539d3d2b6fa4cee194347,2022-07-06_02h35.17.826,Colour_Asymmetry_Pilot,2022.1.3,Win32,56.84402001,62c50e9c1127f2cd403a315f,0,100,100,78,1,fourtwo,,,,,,,,,,,,,,,,,,,,,,,,,,,,,,,,,,,,,,,,,,,,,,,,,,,,,,,,,,,,,,,,,,,,,,,,,,,,,,,,,,,,,,,,,,,,,,,,,,,,,,,,,,,,,,,,,,,,,,,,,,,,,,,,,,,,,,,,,,,,,,,,,,,,,,,,,,,,,
,,,,,,6154f446688aad7658909dc9,62c539d3d2b6fa4cee194347,2022-07-06_02h35.17.826,Colour_Asymmetry_Pilot,2022.1.3,Win32,56.84402001,62c50e9c1127f2cd403a315f,0,101,101,34,1,twoone,,,,,,,,,,,,,,,,,,,,,,,,,,,,,,,,,,,,,,,,,,,,,,,,,,,,,,,,,,,,,,,,,,,,,,,,,,,,,,,,,,,,,,,,,,,,,,,,,,,,,,,,,,,,,,,,,,,,,,,,,,,,,,,,,,,,,,,,,,,,,,,,,,,,,,,,,,,,,
,,,,,,6154f446688aad7658909dc9,62c539d3d2b6fa4cee194347,2022-07-06_02h35.17.826,Colour_Asymmetry_Pilot,2022.1.3,Win32,56.84402001,62c50e9c1127f2cd403a315f,0,102,102,106,1,twoone,,,,,,,,,,,,,,,,,,,,,,,,,,,,,,,,,,,,,,,,,,,,,,,,,,,,,,,,,,,,,,,,,,,,,,,,,,,,,,,,,,,,,,,,,,,,,,,,,,,,,,,,,,,,,,,,,,,,,,,,,,,,,,,,,,,,,,,,,,,,,,,,,,,,,,,,,,,,,
,,,,,,6154f446688aad7658909dc9,62c539d3d2b6fa4cee194347,2022-07-06_02h35.17.826,Colour_Asymmetry_Pilot,2022.1.3,Win32,56.84402001,62c50e9c1127f2cd403a315f,0,103,103,109,1,threefour,,,,,,,,,,,,,,,,,,,,,,,,,,,,,,,,,,,,,,,,,,,,,,,,,,,,,,,,,,,,,,,,,,,,,,,,,,,,,,,,,,,,,,,,,,,,,,,,,,,,,,,,,,,,,,,,,,,,,,,,,,,,,,,,,,,,,,,,,,,,,,,,,,,,,,,,,,,,,
,,,,,,6154f446688aad7658909dc9,62c539d3d2b6fa4cee194347,2022-07-06_02h35.17.826,Colour_Asymmetry_Pilot,2022.1.3,Win32,56.84402001,62c50e9c1127f2cd403a315f,0,104,104,112,1,onetwo,,,,,,,,,,,,,,,,,,,,,,,,,,,,,,,,,,,,,,,,,,,,,,,,,,,,,,,,,,,,,,,,,,,,,,,,,,,,,,,,,,,,,,,,,,,,,,,,,,,,,,,,,,,,,,,,,,,,,,,,,,,,,,,,,,,,,,,,,,,,,,,,,,,,,,,,,,,,,
,,,,,,6154f446688aad7658909dc9,62c539d3d2b6fa4cee194347,2022-07-06_02h35.17.826,Colour_Asymmetry_Pilot,2022.1.3,Win32,56.84402001,62c50e9c1127f2cd403a315f,0,105,105,156,1,threeone,,,,,,,,,,,,,,,,,,,,,,,,,,,,,,,,,,,,,,,,,,,,,,,,,,,,,,,,,,,,,,,,,,,,,,,,,,,,,,,,,,,,,,,,,,,,,,,,,,,,,,,,,,,,,,,,,,,,,,,,,,,,,,,,,,,,,,,,,,,,,,,,,,,,,,,,,,,,,
,,,,,,6154f446688aad7658909dc9,62c539d3d2b6fa4cee194347,2022-07-06_02h35.17.826,Colour_Asymmetry_Pilot,2022.1.3,Win32,56.84402001,62c50e9c1127f2cd403a315f,0,106,106,144,1,onetwo,,,,,,,,,,,,,,,,,,,,,,,,,,,,,,,,,,,,,,,,,,,,,,,,,,,,,,,,,,,,,,,,,,,,,,,,,,,,,,,,,,,,,,,,,,,,,,,,,,,,,,,,,,,,,,,,,,,,,,,,,,,,,,,,,,,,,,,,,,,,,,,,,,,,,,,,,,,,,
,,,,,,6154f446688aad7658909dc9,62c539d3d2b6fa4cee194347,2022-07-06_02h35.17.826,Colour_Asymmetry_Pilot,2022.1.3,Win32,56.84402001,62c50e9c1127f2cd403a315f,0,107,107,92,1,threeone,,,,,,,,,,,,,,,,,,,,,,,,,,,,,,,,,,,,,,,,,,,,,,,,,,,,,,,,,,,,,,,,,,,,,,,,,,,,,,,,,,,,,,,,,,,,,,,,,,,,,,,,,,,,,,,,,,,,,,,,,,,,,,,,,,,,,,,,,,,,,,,,,,,,,,,,,,,,,
,,,,,,6154f446688aad7658909dc9,62c539d3d2b6fa4cee194347,2022-07-06_02h35.17.826,Colour_Asymmetry_Pilot,2022.1.3,Win32,56.84402001,62c50e9c1127f2cd403a315f,0,108,108,129,1,onethree,,,,,,,,,,,,,,,,,,,,,,,,,,,,,,,,,,,,,,,,,,,,,,,,,,,,,,,,,,,,,,,,,,,,,,,,,,,,,,,,,,,,,,,,,,,,,,,,,,,,,,,,,,,,,,,,,,,,,,,,,,,,,,,,,,,,,,,,,,,,,,,,,,,,,,,,,,,,,
,,,,,,6154f446688aad7658909dc9,62c539d3d2b6fa4cee194347,2022-07-06_02h35.17.826,Colour_Asymmetry_Pilot,2022.1.3,Win32,56.84402001,62c50e9c1127f2cd403a315f,0,109,109,150,1,fourtwo,,,,,,,,,,,,,,,,,,,,,,,,,,,,,,,,,,,,,,,,,,,,,,,,,,,,,,,,,,,,,,,,,,,,,,,,,,,,,,,,,,,,,,,,,,,,,,,,,,,,,,,,,,,,,,,,,,,,,,,,,,,,,,,,,,,,,,,,,,,,,,,,,,,,,,,,,,,,,
,,,,,,6154f446688aad7658909dc9,62c539d3d2b6fa4cee194347,2022-07-06_02h35.17.826,Colour_Asymmetry_Pilot,2022.1.3,Win32,56.84402001,62c50e9c1127f2cd403a315f,0,110,110,73,1,onethree,,,,,,,,,,,,,,,,,,,,,,,,,,,,,,,,,,,,,,,,,,,,,,,,,,,,,,,,,,,,,,,,,,,,,,,,,,,,,,,,,,,,,,,,,,,,,,,,,,,,,,,,,,,,,,,,,,,,,,,,,,,,,,,,,,,,,,,,,,,,,,,,,,,,,,,,,,,,,
,,,,,,6154f446688aad7658909dc9,62c539d3d2b6fa4cee194347,2022-07-06_02h35.17.826,Colour_Asymmetry_Pilot,2022.1.3,Win32,56.84402001,62c50e9c1127f2cd403a315f,0,111,111,141,1,threefour,,,,,,,,,,,,,,,,,,,,,,,,,,,,,,,,,,,,,,,,,,,,,,,,,,,,,,,,,,,,,,,,,,,,,,,,,,,,,,,,,,,,,,,,,,,,,,,,,,,,,,,,,,,,,,,,,,,,,,,,,,,,,,,,,,,,,,,,,,,,,,,,,,,,,,,,,,,,,
,,,,,,6154f446688aad7658909dc9,62c539d3d2b6fa4cee194347,2022-07-06_02h35.17.826,Colour_Asymmetry_Pilot,2022.1.3,Win32,56.84402001,62c50e9c1127f2cd403a315f,0,112,112,14,1,fourtwo,,,,,,,,,,,,,,,,,,,,,,,,,,,,,,,,,,,,,,,,,,,,,,,,,,,,,,,,,,,,,,,,,,,,,,,,,,,,,,,,,,,,,,,,,,,,,,,,,,,,,,,,,,,,,,,,,,,,,,,,,,,,,,,,,,,,,,,,,,,,,,,,,,,,,,,,,,,,,
,,,,,,6154f446688aad7658909dc9,62c539d3d2b6fa4cee194347,2022-07-06_02h35.17.826,Colour_Asymmetry_Pilot,2022.1.3,Win32,56.84402001,62c50e9c1127f2cd403a315f,0,113,113,123,1,twofour,,,,,,,,,,,,,,,,,,,,,,,,,,,,,,,,,,,,,,,,,,,,,,,,,,,,,,,,,,,,,,,,,,,,,,,,,,,,,,,,,,,,,,,,,,,,,,,,,,,,,,,,,,,,,,,,,,,,,,,,,,,,,,,,,,,,,,,,,,,,,,,,,,,,,,,,,,,,,
,,,,,,6154f446688aad7658909dc9,62c539d3d2b6fa4cee194347,2022-07-06_02h35.17.826,Colour_Asymmetry_Pilot,2022.1.3,Win32,56.84402001,62c50e9c1127f2cd403a315f,0,114,114,43,1,twofour,,,,,,,,,,,,,,,,,,,,,,,,,,,,,,,,,,,,,,,,,,,,,,,,,,,,,,,,,,,,,,,,,,,,,,,,,,,,,,,,,,,,,,,,,,,,,,,,,,,,,,,,,,,,,,,,,,,,,,,,,,,,,,,,,,,,,,,,,,,,,,,,,,,,,,,,,,,,,
,,,,,,6154f446688aad7658909dc9,62c539d3d2b6fa4cee194347,2022-07-06_02h35.17.826,Colour_Asymmetry_Pilot,2022.1.3,Win32,56.84402001,62c50e9c1127f2cd403a315f,0,115,115,94,1,fourtwo,,,,,,,,,,,,,,,,,,,,,,,,,,,,,,,,,,,,,,,,,,,,,,,,,,,,,,,,,,,,,,,,,,,,,,,,,,,,,,,,,,,,,,,,,,,,,,,,,,,,,,,,,,,,,,,,,,,,,,,,,,,,,,,,,,,,,,,,,,,,,,,,,,,,,,,,,,,,,
,,,,,,6154f446688aad7658909dc9,62c539d3d2b6fa4cee194347,2022-07-06_02h35.17.826,Colour_Asymmetry_Pilot,2022.1.3,Win32,56.84402001,62c50e9c1127f2cd403a315f,0,116,116,71,1,fourthree,,,,,,,,,,,,,,,,,,,,,,,,,,,,,,,,,,,,,,,,,,,,,,,,,,,,,,,,,,,,,,,,,,,,,,,,,,,,,,,,,,,,,,,,,,,,,,,,,,,,,,,,,,,,,,,,,,,,,,,,,,,,,,,,,,,,,,,,,,,,,,,,,,,,,,,,,,,,,
,,,,,,6154f446688aad7658909dc9,62c539d3d2b6fa4cee194347,2022-07-06_02h35.17.826,Colour_Asymmetry_Pilot,2022.1.3,Win32,56.84402001,62c50e9c1127f2cd403a315f,0,117,117,152,1,onetwo,,,,,,,,,,,,,,,,,,,,,,,,,,,,,,,,,,,,,,,,,,,,,,,,,,,,,,,,,,,,,,,,,,,,,,,,,,,,,,,,,,,,,,,,,,,,,,,,,,,,,,,,,,,,,,,,,,,,,,,,,,,,,,,,,,,,,,,,,,,,,,,,,,,,,,,,,,,,,
,,,,,,6154f446688aad7658909dc9,62c539d3d2b6fa4cee194347,2022-07-06_02h35.17.826,Colour_Asymmetry_Pilot,2022.1.3,Win32,56.84402001,62c50e9c1127f2cd403a315f,0,118,118,57,1,onethree,,,,,,,,,,,,,,,,,,,,,,,,,,,,,,,,,,,,,,,,,,,,,,,,,,,,,,,,,,,,,,,,,,,,,,,,,,,,,,,,,,,,,,,,,,,,,,,,,,,,,,,,,,,,,,,,,,,,,,,,,,,,,,,,,,,,,,,,,,,,,,,,,,,,,,,,,,,,,
,,,,,,6154f446688aad7658909dc9,62c539d3d2b6fa4cee194347,2022-07-06_02h35.17.826,Colour_Asymmetry_Pilot,2022.1.3,Win32,56.84402001,62c50e9c1127f2cd403a315f,0,119,119,13,1,threefour,,,,,,,,,,,,,,,,,,,,,,,,,,,,,,,,,,,,,,,,,,,,,,,,,,,,,,,,,,,,,,,,,,,,,,,,,,,,,,,,,,,,,,,,,,,,,,,,,,,,,,,,,,,,,,,,,,,,,,,,,,,,,,,,,,,,,,,,,,,,,,,,,,,,,,,,,,,,,
,,,,,,6154f446688aad7658909dc9,62c539d3d2b6fa4cee194347,2022-07-06_02h35.17.826,Colour_Asymmetry_Pilot,2022.1.3,Win32,56.84402001,62c50e9c1127f2cd403a315f,0,120,120,23,1,fourthree,,,,,,,,,,,,,,,,,,,,,,,,,,,,,,,,,,,,,,,,,,,,,,,,,,,,,,,,,,,,,,,,,,,,,,,,,,,,,,,,,,,,,,,,,,,,,,,,,,,,,,,,,,,,,,,,,,,,,,,,,,,,,,,,,,,,,,,,,,,,,,,,,,,,,,,,,,,,,
,,,,,,6154f446688aad7658909dc9,62c539d3d2b6fa4cee194347,2022-07-06_02h35.17.826,Colour_Asymmetry_Pilot,2022.1.3,Win32,56.84402001,62c50e9c1127f2cd403a315f,0,121,121,86,1,fourtwo,,,,,,,,,,,,,,,,,,,,,,,,,,,,,,,,,,,,,,,,,,,,,,,,,,,,,,,,,,,,,,,,,,,,,,,,,,,,,,,,,,,,,,,,,,,,,,,,,,,,,,,,,,,,,,,,,,,,,,,,,,,,,,,,,,,,,,,,,,,,,,,,,,,,,,,,,,,,,
,,,,,,6154f446688aad7658909dc9,62c539d3d2b6fa4cee194347,2022-07-06_02h35.17.826,Colour_Asymmetry_Pilot,2022.1.3,Win32,56.84402001,62c50e9c1127f2cd403a315f,0,122,122,35,1,twofour,,,,,,,,,,,,,,,,,,,,,,,,,,,,,,,,,,,,,,,,,,,,,,,,,,,,,,,,,,,,,,,,,,,,,,,,,,,,,,,,,,,,,,,,,,,,,,,,,,,,,,,,,,,,,,,,,,,,,,,,,,,,,,,,,,,,,,,,,,,,,,,,,,,,,,,,,,,,,
,,,,,,6154f446688aad7658909dc9,62c539d3d2b6fa4cee194347,2022-07-06_02h35.17.826,Colour_Asymmetry_Pilot,2022.1.3,Win32,56.84402001,62c50e9c1127f2cd403a315f,0,123,123,90,1,twoone,,,,,,,,,,,,,,,,,,,,,,,,,,,,,,,,,,,,,,,,,,,,,,,,,,,,,,,,,,,,,,,,,,,,,,,,,,,,,,,,,,,,,,,,,,,,,,,,,,,,,,,,,,,,,,,,,,,,,,,,,,,,,,,,,,,,,,,,,,,,,,,,,,,,,,,,,,,,,
,,,,,,6154f446688aad7658909dc9,62c539d3d2b6fa4cee194347,2022-07-06_02h35.17.826,Colour_Asymmetry_Pilot,2022.1.3,Win32,56.84402001,62c50e9c1127f2cd403a315f,0,124,124,12,1,threeone,,,,,,,,,,,,,,,,,,,,,,,,,,,,,,,,,,,,,,,,,,,,,,,,,,,,,,,,,,,,,,,,,,,,,,,,,,,,,,,,,,,,,,,,,,,,,,,,,,,,,,,,,,,,,,,,,,,,,,,,,,,,,,,,,,,,,,,,,,,,,,,,,,,,,,,,,,,,,
,,,,,,6154f446688aad7658909dc9,62c539d3d2b6fa4cee194347,2022-07-06_02h35.17.826,Colour_Asymmetry_Pilot,2022.1.3,Win32,56.84402001,62c50e9c1127f2cd403a315f,0,125,125,133,1,threefour,,,,,,,,,,,,,,,,,,,,,,,,,,,,,,,,,,,,,,,,,,,,,,,,,,,,,,,,,,,,,,,,,,,,,,,,,,,,,,,,,,,,,,,,,,,,,,,,,,,,,,,,,,,,,,,,,,,,,,,,,,,,,,,,,,,,,,,,,,,,,,,,,,,,,,,,,,,,,
,,,,,,6154f446688aad7658909dc9,62c539d3d2b6fa4cee194347,2022-07-06_02h35.17.826,Colour_Asymmetry_Pilot,2022.1.3,Win32,56.84402001,62c50e9c1127f2cd403a315f,0,126,126,113,1,onethree,,,,,,,,,,,,,,,,,,,,,,,,,,,,,,,,,,,,,,,,,,,,,,,,,,,,,,,,,,,,,,,,,,,,,,,,,,,,,,,,,,,,,,,,,,,,,,,,,,,,,,,,,,,,,,,,,,,,,,,,,,,,,,,,,,,,,,,,,,,,,,,,,,,,,,,,,,,,,
,,,,,,6154f446688aad7658909dc9,62c539d3d2b6fa4cee194347,2022-07-06_02h35.17.826,Colour_Asymmetry_Pilot,2022.1.3,Win32,56.84402001,62c50e9c1127f2cd403a315f,0,127,127,59,1,twofour,,,,,,,,,,,,,,,,,,,,,,,,,,,,,,,,,,,,,,,,,,,,,,,,,,,,,,,,,,,,,,,,,,,,,,,,,,,,,,,,,,,,,,,,,,,,,,,,,,,,,,,,,,,,,,,,,,,,,,,,,,,,,,,,,,,,,,,,,,,,,,,,,,,,,,,,,,,,,
,,,,,,6154f446688aad7658909dc9,62c539d3d2b6fa4cee194347,2022-07-06_02h35.17.826,Colour_Asymmetry_Pilot,2022.1.3,Win32,56.84402001,62c50e9c1127f2cd403a315f,0,128,128,127,1,fourthree,,,,,,,,,,,,,,,,,,,,,,,,,,,,,,,,,,,,,,,,,,,,,,,,,,,,,,,,,,,,,,,,,,,,,,,,,,,,,,,,,,,,,,,,,,,,,,,,,,,,,,,,,,,,,,,,,,,,,,,,,,,,,,,,,,,,,,,,,,,,,,,,,,,,,,,,,,,,,
,,,,,,6154f446688aad7658909dc9,62c539d3d2b6fa4cee194347,2022-07-06_02h35.17.826,Colour_Asymmetry_Pilot,2022.1.3,Win32,56.84402001,62c50e9c1127f2cd403a315f,0,129,129,20,1,threeone,,,,,,,,,,,,,,,,,,,,,,,,,,,,,,,,,,,,,,,,,,,,,,,,,,,,,,,,,,,,,,,,,,,,,,,,,,,,,,,,,,,,,,,,,,,,,,,,,,,,,,,,,,,,,,,,,,,,,,,,,,,,,,,,,,,,,,,,,,,,,,,,,,,,,,,,,,,,,
,,,,,,6154f446688aad7658909dc9,62c539d3d2b6fa4cee194347,2022-07-06_02h35.17.826,Colour_Asymmetry_Pilot,2022.1.3,Win32,56.84402001,62c50e9c1127f2cd403a315f,0,130,130,95,1,fourthree,,,,,,,,,,,,,,,,,,,,,,,,,,,,,,,,,,,,,,,,,,,,,,,,,,,,,,,,,,,,,,,,,,,,,,,,,,,,,,,,,,,,,,,,,,,,,,,,,,,,,,,,,,,,,,,,,,,,,,,,,,,,,,,,,,,,,,,,,,,,,,,,,,,,,,,,,,,,,
,,,,,,6154f446688aad7658909dc9,62c539d3d2b6fa4cee194347,2022-07-06_02h35.17.826,Colour_Asymmetry_Pilot,2022.1.3,Win32,56.84402001,62c50e9c1127f2cd403a315f,0,131,131,74,1,twoone,,,,,,,,,,,,,,,,,,,,,,,,,,,,,,,,,,,,,,,,,,,,,,,,,,,,,,,,,,,,,,,,,,,,,,,,,,,,,,,,,,,,,,,,,,,,,,,,,,,,,,,,,,,,,,,,,,,,,,,,,,,,,,,,,,,,,,,,,,,,,,,,,,,,,,,,,,,,,
,,,,,,6154f446688aad7658909dc9,62c539d3d2b6fa4cee194347,2022-07-06_02h35.17.826,Colour_Asymmetry_Pilot,2022.1.3,Win32,56.84402001,62c50e9c1127f2cd403a315f,0,132,132,61,1,threefour,,,,,,,,,,,,,,,,,,,,,,,,,,,,,,,,,,,,,,,,,,,,,,,,,,,,,,,,,,,,,,,,,,,,,,,,,,,,,,,,,,,,,,,,,,,,,,,,,,,,,,,,,,,,,,,,,,,,,,,,,,,,,,,,,,,,,,,,,,,,,,,,,,,,,,,,,,,,,
,,,,,,6154f446688aad7658909dc9,62c539d3d2b6fa4cee194347,2022-07-06_02h35.17.826,Colour_Asymmetry_Pilot,2022.1.3,Win32,56.84402001,62c50e9c1127f2cd403a315f,0,133,133,136,1,onetwo,,,,,,,,,,,,,,,,,,,,,,,,,,,,,,,,,,,,,,,,,,,,,,,,,,,,,,,,,,,,,,,,,,,,,,,,,,,,,,,,,,,,,,,,,,,,,,,,,,,,,,,,,,,,,,,,,,,,,,,,,,,,,,,,,,,,,,,,,,,,,,,,,,,,,,,,,,,,,
,,,,,,6154f446688aad7658909dc9,62c539d3d2b6fa4cee194347,2022-07-06_02h35.17.826,Colour_Asymmetry_Pilot,2022.1.3,Win32,56.84402001,62c50e9c1127f2cd403a315f,0,134,134,7,1,fourthree,,,,,,,,,,,,,,,,,,,,,,,,,,,,,,,,,,,,,,,,,,,,,,,,,,,,,,,,,,,,,,,,,,,,,,,,,,,,,,,,,,,,,,,,,,,,,,,,,,,,,,,,,,,,,,,,,,,,,,,,,,,,,,,,,,,,,,,,,,,,,,,,,,,,,,,,,,,,,
,,,,,,6154f446688aad7658909dc9,62c539d3d2b6fa4cee194347,2022-07-06_02h35.17.826,Colour_Asymmetry_Pilot,2022.1.3,Win32,56.84402001,62c50e9c1127f2cd403a315f,0,135,135,31,1,fourthree,,,,,,,,,,,,,,,,,,,,,,,,,,,,,,,,,,,,,,,,,,,,,,,,,,,,,,,,,,,,,,,,,,,,,,,,,,,,,,,,,,,,,,,,,,,,,,,,,,,,,,,,,,,,,,,,,,,,,,,,,,,,,,,,,,,,,,,,,,,,,,,,,,,,,,,,,,,,,
,,,,,,6154f446688aad7658909dc9,62c539d3d2b6fa4cee194347,2022-07-06_02h35.17.826,Colour_Asymmetry_Pilot,2022.1.3,Win32,56.84402001,62c50e9c1127f2cd403a315f,0,136,136,114,1,twoone,,,,,,,,,,,,,,,,,,,,,,,,,,,,,,,,,,,,,,,,,,,,,,,,,,,,,,,,,,,,,,,,,,,,,,,,,,,,,,,,,,,,,,,,,,,,,,,,,,,,,,,,,,,,,,,,,,,,,,,,,,,,,,,,,,,,,,,,,,,,,,,,,,,,,,,,,,,,,
,,,,,,6154f446688aad7658909dc9,62c539d3d2b6fa4cee194347,2022-07-06_02h35.17.826,Colour_Asymmetry_Pilot,2022.1.3,Win32,56.84402001,62c50e9c1127f2cd403a315f,0,137,137,65,1,onethree,,,,,,,,,,,,,,,,,,,,,,,,,,,,,,,,,,,,,,,,,,,,,,,,,,,,,,,,,,,,,,,,,,,,,,,,,,,,,,,,,,,,,,,,,,,,,,,,,,,,,,,,,,,,,,,,,,,,,,,,,,,,,,,,,,,,,,,,,,,,,,,,,,,,,,,,,,,,,
,,,,,,6154f446688aad7658909dc9,62c539d3d2b6fa4cee194347,2022-07-06_02h35.17.826,Colour_Asymmetry_Pilot,2022.1.3,Win32,56.84402001,62c50e9c1127f2cd403a315f,0,138,138,124,1,threeone,,,,,,,,,,,,,,,,,,,,,,,,,,,,,,,,,,,,,,,,,,,,,,,,,,,,,,,,,,,,,,,,,,,,,,,,,,,,,,,,,,,,,,,,,,,,,,,,,,,,,,,,,,,,,,,,,,,,,,,,,,,,,,,,,,,,,,,,,,,,,,,,,,,,,,,,,,,,,
,,,,,,6154f446688aad7658909dc9,62c539d3d2b6fa4cee194347,2022-07-06_02h35.17.826,Colour_Asymmetry_Pilot,2022.1.3,Win32,56.84402001,62c50e9c1127f2cd403a315f,0,139,139,120,1,onetwo,,,,,,,,,,,,,,,,,,,,,,,,,,,,,,,,,,,,,,,,,,,,,,,,,,,,,,,,,,,,,,,,,,,,,,,,,,,,,,,,,,,,,,,,,,,,,,,,,,,,,,,,,,,,,,,,,,,,,,,,,,,,,,,,,,,,,,,,,,,,,,,,,,,,,,,,,,,,,
,,,,,,6154f446688aad7658909dc9,62c539d3d2b6fa4cee194347,2022-07-06_02h35.17.826,Colour_Asymmetry_Pilot,2022.1.3,Win32,56.84402001,62c50e9c1127f2cd403a315f,0,140,140,126,1,fourtwo,,,,,,,,,,,,,,,,,,,,,,,,,,,,,,,,,,,,,,,,,,,,,,,,,,,,,,,,,,,,,,,,,,,,,,,,,,,,,,,,,,,,,,,,,,,,,,,,,,,,,,,,,,,,,,,,,,,,,,,,,,,,,,,,,,,,,,,,,,,,,,,,,,,,,,,,,,,,,
,,,,,,6154f446688aad7658909dc9,62c539d3d2b6fa4cee194347,2022-07-06_02h35.17.826,Colour_Asymmetry_Pilot,2022.1.3,Win32,56.84402001,62c50e9c1127f2cd403a315f,0,141,141,3,1,twofour,,,,,,,,,,,,,,,,,,,,,,,,,,,,,,,,,,,,,,,,,,,,,,,,,,,,,,,,,,,,,,,,,,,,,,,,,,,,,,,,,,,,,,,,,,,,,,,,,,,,,,,,,,,,,,,,,,,,,,,,,,,,,,,,,,,,,,,,,,,,,,,,,,,,,,,,,,,,,
,,,,,,6154f446688aad7658909dc9,62c539d3d2b6fa4cee194347,2022-07-06_02h35.17.826,Colour_Asymmetry_Pilot,2022.1.3,Win32,56.84402001,62c50e9c1127f2cd403a315f,0,142,142,118,1,fourtwo,,,,,,,,,,,,,,,,,,,,,,,,,,,,,,,,,,,,,,,,,,,,,,,,,,,,,,,,,,,,,,,,,,,,,,,,,,,,,,,,,,,,,,,,,,,,,,,,,,,,,,,,,,,,,,,,,,,,,,,,,,,,,,,,,,,,,,,,,,,,,,,,,,,,,,,,,,,,,
,,,,,,6154f446688aad7658909dc9,62c539d3d2b6fa4cee194347,2022-07-06_02h35.17.826,Colour_Asymmetry_Pilot,2022.1.3,Win32,56.84402001,62c50e9c1127f2cd403a315f,0,143,143,67,1,twofour,,,,,,,,,,,,,,,,,,,,,,,,,,,,,,,,,,,,,,,,,,,,,,,,,,,,,,,,,,,,,,,,,,,,,,,,,,,,,,,,,,,,,,,,,,,,,,,,,,,,,,,,,,,,,,,,,,,,,,,,,,,,,,,,,,,,,,,,,,,,,,,,,,,,,,,,,,,,,
,,,,,,6154f446688aad7658909dc9,62c539d3d2b6fa4cee194347,2022-07-06_02h35.17.826,Colour_Asymmetry_Pilot,2022.1.3,Win32,56.84402001,62c50e9c1127f2cd403a315f,0,144,144,155,1,twofour,,,,,,,,,,,,,,,,,,,,,,,,,,,,,,,,,,,,,,,,,,,,,,,,,,,,,,,,,,,,,,,,,,,,,,,,,,,,,,,,,,,,,,,,,,,,,,,,,,,,,,,,,,,,,,,,,,,,,,,,,,,,,,,,,,,,,,,,,,,,,,,,,,,,,,,,,,,,,
,,,,,,6154f446688aad7658909dc9,62c539d3d2b6fa4cee194347,2022-07-06_02h35.17.826,Colour_Asymmetry_Pilot,2022.1.3,Win32,56.84402001,62c50e9c1127f2cd403a315f,0,145,145,146,1,twoone,,,,,,,,,,,,,,,,,,,,,,,,,,,,,,,,,,,,,,,,,,,,,,,,,,,,,,,,,,,,,,,,,,,,,,,,,,,,,,,,,,,,,,,,,,,,,,,,,,,,,,,,,,,,,,,,,,,,,,,,,,,,,,,,,,,,,,,,,,,,,,,,,,,,,,,,,,,,,
,,,,,,6154f446688aad7658909dc9,62c539d3d2b6fa4cee194347,2022-07-06_02h35.17.826,Colour_Asymmetry_Pilot,2022.1.3,Win32,56.84402001,62c50e9c1127f2cd403a315f,0,146,146,116,1,threeone,,,,,,,,,,,,,,,,,,,,,,,,,,,,,,,,,,,,,,,,,,,,,,,,,,,,,,,,,,,,,,,,,,,,,,,,,,,,,,,,,,,,,,,,,,,,,,,,,,,,,,,,,,,,,,,,,,,,,,,,,,,,,,,,,,,,,,,,,,,,,,,,,,,,,,,,,,,,,
,,,,,,6154f446688aad7658909dc9,62c539d3d2b6fa4cee194347,2022-07-06_02h35.17.826,Colour_Asymmetry_Pilot,2022.1.3,Win32,56.84402001,62c50e9c1127f2cd403a315f,0,147,147,93,1,threefour,,,,,,,,,,,,,,,,,,,,,,,,,,,,,,,,,,,,,,,,,,,,,,,,,,,,,,,,,,,,,,,,,,,,,,,,,,,,,,,,,,,,,,,,,,,,,,,,,,,,,,,,,,,,,,,,,,,,,,,,,,,,,,,,,,,,,,,,,,,,,,,,,,,,,,,,,,,,,
,,,,,,6154f446688aad7658909dc9,62c539d3d2b6fa4cee194347,2022-07-06_02h35.17.826,Colour_Asymmetry_Pilot,2022.1.3,Win32,56.84402001,62c50e9c1127f2cd403a315f,0,148,148,28,1,threeone,,,,,,,,,,,,,,,,,,,,,,,,,,,,,,,,,,,,,,,,,,,,,,,,,,,,,,,,,,,,,,,,,,,,,,,,,,,,,,,,,,,,,,,,,,,,,,,,,,,,,,,,,,,,,,,,,,,,,,,,,,,,,,,,,,,,,,,,,,,,,,,,,,,,,,,,,,,,,
,,,,,,6154f446688aad7658909dc9,62c539d3d2b6fa4cee194347,2022-07-06_02h35.17.826,Colour_Asymmetry_Pilot,2022.1.3,Win32,56.84402001,62c50e9c1127f2cd403a315f,0,149,149,44,1,threeone,,,,,,,,,,,,,,,,,,,,,,,,,,,,,,,,,,,,,,,,,,,,,,,,,,,,,,,,,,,,,,,,,,,,,,,,,,,,,,,,,,,,,,,,,,,,,,,,,,,,,,,,,,,,,,,,,,,,,,,,,,,,,,,,,,,,,,,,,,,,,,,,,,,,,,,,,,,,,
,,,,,,6154f446688aad7658909dc9,62c539d3d2b6fa4cee194347,2022-07-06_02h35.17.826,Colour_Asymmetry_Pilot,2022.1.3,Win32,56.84402001,62c50e9c1127f2cd403a315f,0,150,150,121,1,onethree,,,,,,,,,,,,,,,,,,,,,,,,,,,,,,,,,,,,,,,,,,,,,,,,,,,,,,,,,,,,,,,,,,,,,,,,,,,,,,,,,,,,,,,,,,,,,,,,,,,,,,,,,,,,,,,,,,,,,,,,,,,,,,,,,,,,,,,,,,,,,,,,,,,,,,,,,,,,,
,,,,,,6154f446688aad7658909dc9,62c539d3d2b6fa4cee194347,2022-07-06_02h35.17.826,Colour_Asymmetry_Pilot,2022.1.3,Win32,56.84402001,62c50e9c1127f2cd403a315f,0,151,151,107,1,twofour,,,,,,,,,,,,,,,,,,,,,,,,,,,,,,,,,,,,,,,,,,,,,,,,,,,,,,,,,,,,,,,,,,,,,,,,,,,,,,,,,,,,,,,,,,,,,,,,,,,,,,,,,,,,,,,,,,,,,,,,,,,,,,,,,,,,,,,,,,,,,,,,,,,,,,,,,,,,,
,,,,,,6154f446688aad7658909dc9,62c539d3d2b6fa4cee194347,2022-07-06_02h35.17.826,Colour_Asymmetry_Pilot,2022.1.3,Win32,56.84402001,62c50e9c1127f2cd403a315f,0,152,152,53,1,threefour,,,,,,,,,,,,,,,,,,,,,,,,,,,,,,,,,,,,,,,,,,,,,,,,,,,,,,,,,,,,,,,,,,,,,,,,,,,,,,,,,,,,,,,,,,,,,,,,,,,,,,,,,,,,,,,,,,,,,,,,,,,,,,,,,,,,,,,,,,,,,,,,,,,,,,,,,,,,,
,,,,,,6154f446688aad7658909dc9,62c539d3d2b6fa4cee194347,2022-07-06_02h35.17.826,Colour_Asymmetry_Pilot,2022.1.3,Win32,56.84402001,62c50e9c1127f2cd403a315f,0,153,153,10,1,twoone,,,,,,,,,,,,,,,,,,,,,,,,,,,,,,,,,,,,,,,,,,,,,,,,,,,,,,,,,,,,,,,,,,,,,,,,,,,,,,,,,,,,,,,,,,,,,,,,,,,,,,,,,,,,,,,,,,,,,,,,,,,,,,,,,,,,,,,,,,,,,,,,,,,,,,,,,,,,,
,,,,,,6154f446688aad7658909dc9,62c539d3d2b6fa4cee194347,2022-07-06_02h35.17.826,Colour_Asymmetry_Pilot,2022.1.3,Win32,56.84402001,62c50e9c1127f2cd403a315f,0,154,154,56,1,onetwo,,,,,,,,,,,,,,,,,,,,,,,,,,,,,,,,,,,,,,,,,,,,,,,,,,,,,,,,,,,,,,,,,,,,,,,,,,,,,,,,,,,,,,,,,,,,,,,,,,,,,,,,,,,,,,,,,,,,,,,,,,,,,,,,,,,,,,,,,,,,,,,,,,,,,,,,,,,,,
,,,,,,6154f446688aad7658909dc9,62c539d3d2b6fa4cee194347,2022-07-06_02h35.17.826,Colour_Asymmetry_Pilot,2022.1.3,Win32,56.84402001,62c50e9c1127f2cd403a315f,0,155,155,66,1,twoone,,,,,,,,,,,,,,,,,,,,,,,,,,,,,,,,,,,,,,,,,,,,,,,,,,,,,,,,,,,,,,,,,,,,,,,,,,,,,,,,,,,,,,,,,,,,,,,,,,,,,,,,,,,,,,,,,,,,,,,,,,,,,,,,,,,,,,,,,,,,,,,,,,,,,,,,,,,,,
,,,,,,6154f446688aad7658909dc9,62c539d3d2b6fa4cee194347,2022-07-06_02h35.17.826,Colour_Asymmetry_Pilot,2022.1.3,Win32,56.84402001,62c50e9c1127f2cd403a315f,0,156,156,102,1,fourtwo,,,,,,,,,,,,,,,,,,,,,,,,,,,,,,,,,,,,,,,,,,,,,,,,,,,,,,,,,,,,,,,,,,,,,,,,,,,,,,,,,,,,,,,,,,,,,,,,,,,,,,,,,,,,,,,,,,,,,,,,,,,,,,,,,,,,,,,,,,,,,,,,,,,,,,,,,,,,,
,,,,,,6154f446688aad7658909dc9,62c539d3d2b6fa4cee194347,2022-07-06_02h35.17.826,Colour_Asymmetry_Pilot,2022.1.3,Win32,56.84402001,62c50e9c1127f2cd403a315f,0,157,157,111,1,fourthree,,,,,,,,,,,,,,,,,,,,,,,,,,,,,,,,,,,,,,,,,,,,,,,,,,,,,,,,,,,,,,,,,,,,,,,,,,,,,,,,,,,,,,,,,,,,,,,,,,,,,,,,,,,,,,,,,,,,,,,,,,,,,,,,,,,,,,,,,,,,,,,,,,,,,,,,,,,,,
,,,,,,6154f446688aad7658909dc9,62c539d3d2b6fa4cee194347,2022-07-06_02h35.17.826,Colour_Asymmetry_Pilot,2022.1.3,Win32,56.84402001,62c50e9c1127f2cd403a315f,0,158,158,19,1,twofour,,,,,,,,,,,,,,,,,,,,,,,,,,,,,,,,,,,,,,,,,,,,,,,,,,,,,,,,,,,,,,,,,,,,,,,,,,,,,,,,,,,,,,,,,,,,,,,,,,,,,,,,,,,,,,,,,,,,,,,,,,,,,,,,,,,,,,,,,,,,,,,,,,,,,,,,,,,,,
,,,,,,6154f446688aad7658909dc9,62c539d3d2b6fa4cee194347,2022-07-06_02h35.17.826,Colour_Asymmetry_Pilot,2022.1.3,Win32,56.84402001,62c50e9c1127f2cd403a315f,0,159,159,160,1,onetwo,,,,,,,,,,,,,,,,,,,,,,,,,,,,,,,,,,,,,,,,,,,,,,,,,,,,,,,,,,,,,,,,,,,,,,,,,,,,,,,,,,,,,,,,,,,,,,,,,,,,,,,,,,,,,,,,,,,,,,,,,,,,,,,,,,,,,,,,,,,,,,,,,,,,,,,,,,,,,
,,,,,,6154f446688aad7658909dc9,62c539d3d2b6fa4cee194347,2022-07-06_02h35.17.826,Colour_Asymmetry_Pilot,2022.1.3,Win32,56.84402001,62c50e9c1127f2cd403a315f,0,160,160,103,1,fourthree,,,,,,,,,,,,,,,,,,,,,,,,,,,,,,,,,,,,,,,,,,,,,,,,,,,,,,,,,,,,,,,,,,,,,,,,,,,,,,,,,,,,,,,,,,,,,,,,,,,,,,,,,,,,,,,,,,,,,,,,,,,,,,,,,,,,,,,,,,,,,,,,,,,,,,,,,,,,,
,,,,,,6154f446688aad7658909dc9,62c539d3d2b6fa4cee194347,2022-07-06_02h35.17.826,Colour_Asymmetry_Pilot,2022.1.3,Win32,56.84402001,62c50e9c1127f2cd403a315f,0,161,161,157,1,threefour,,,,,,,,,,,,,,,,,,,,,,,,,,,,,,,,,,,,,,,,,,,,,,,,,,,,,,,,,,,,,,,,,,,,,,,,,,,,,,,,,,,,,,,,,,,,,,,,,,,,,,,,,,,,,,,,,,,,,,,,,,,,,,,,,,,,,,,,,,,,,,,,,,,,,,,,,,,,,
,,,,,,6154f446688aad7658909dc9,62c539d3d2b6fa4cee194347,2022-07-06_02h35.17.826,Colour_Asymmetry_Pilot,2022.1.3,Win32,56.84402001,62c50e9c1127f2cd403a315f,,,,,,,space,3.8217,space,9.3267,space,61.8494,space,14.9189,space,2.7205,space,5.8525,"[-0.8198,-0.5138,-0.7492000000000001]",fourtwo,"[0.7802,-0.23140000000000005,-0.20799999999999996]",-2,15.5971,-85,-65,1,0,0,response5disk_5,3,-5,1,0,0,rectangle_8,3,-5,1,0,0,1,3,-5,1,0,0,0,0,0,0,1,,,,,,,,,,,,,,,,,,,,,,,,,,,,,,,,,,,,,,,,,,,,,,,,,,,,,,,,,,,,,,,,,,,,,,,,,,,,,,,,,,,,,,,,,,,,,,,,,,,,,,,,,,,,,,,,
,,,,,,6154f446688aad7658909dc9,62c539d3d2b6fa4cee194347,2022-07-06_02h35.17.826,Colour_Asymmetry_Pilot,2022.1.3,Win32,56.84402001,62c50e9c1127f2cd403a315f,,,,,,,,,,,,,,,,,,,"[0.05879999999999996,0.2784,0.5841999999999998]",twoone,"[-0.4668,-0.8746,-0.2942]",2,4.2014,73,-44,1,0,0,response3disk_5,0,-1,1,0,0,rectangle_8,0,-1,1,0,0,1,0,-1,1,0,0,1,0,1,0,1,,,,,,,,,,,,,,,,,,,,,,,,,,,,,,,,,,,,,,,,,,,,,,,,,,,,,,,,,,,,,,,,,,,,,,,,,,,,,,,,,,,,,,,,,,,,,,,,,,,,,,,,,,,,,,,,
,,,,,,6154f446688aad7658909dc9,62c539d3d2b6fa4cee194347,2022-07-06_02h35.17.826,Colour_Asymmetry_Pilot,2022.1.3,Win32,56.84402001,62c50e9c1127f2cd403a315f,,,,,,,,,,,,,,,,,,,"[0.7018,0.7802,-0.16079999999999994]",onethree,"[-0.07459999999999989,0.12139999999999995,-0.9922]",3,5.4506,68,38,1,0,0,response1disk_5,4,-6,1,0,0,rectangle_8,4,-6,1,0,0,1,4,-6,1,0,0,2,0,2,0,1,,,,,,,,,,,,,,,,,,,,,,,,,,,,,,,,,,,,,,,,,,,,,,,,,,,,,,,,,,,,,,,,,,,,,,,,,,,,,,,,,,,,,,,,,,,,,,,,,,,,,,,,,,,,,,,,
,,,,,,6154f446688aad7658909dc9,62c539d3d2b6fa4cee194347,2022-07-06_02h35.17.826,Colour_Asymmetry_Pilot,2022.1.3,Win32,56.84402001,62c50e9c1127f2cd403a315f,,,,,,,,,,,,,,,,,,,"[-0.26280000000000003,-0.4746,-0.2158]",threeone,"[-0.9296,-0.12959999999999994,-0.043199999999999905]",-1,4.5675,-45,-106,1,0,0,response5disk_5,4,-5,1,0,0,rectangle_8,28,-67,1,0,0,1,-3,3,1,0,0,3,0,3,0,1,response3disk_7,4,rectangle_4,,,,,,,,,,,,,,,,,,,,,,,,,,,,,,,,,,,,,,,,,,,,,,,,,,,,,,,,,,,,,,,,,,,,,,,,,,,,,,,,,,,,,,,,,,,,,,,,,,,,,,,,,,,,,
,,,,,,6154f446688aad7658909dc9,62c539d3d2b6fa4cee194347,2022-07-06_02h35.17.826,Colour_Asymmetry_Pilot,2022.1.3,Win32,56.84402001,62c50e9c1127f2cd403a315f,,,,,,,,,,,,,,,,,,,"[0.7176,-0.906,-0.6864]",threefour,"[-0.9138,-0.5296000000000001,-0.5529999999999999]",-4,6.2669,-49,73,1,0,0,response7disk_5,3,-2,1,0,0,rectangle_8,3,-2,1,0,0,1,3,-2,1,0,0,4,0,4,0,1,,,,,,,,,,,,,,,,,,,,,,,,,,,,,,,,,,,,,,,,,,,,,,,,,,,,,,,,,,,,,,,,,,,,,,,,,,,,,,,,,,,,,,,,,,,,,,,,,,,,,,,,,,,,,,,,
,,,,,,6154f446688aad7658909dc9,62c539d3d2b6fa4cee194347,2022-07-06_02h35.17.826,Colour_Asymmetry_Pilot,2022.1.3,Win32,56.84402001,62c50e9c1127f2cd403a315f,,,,,,,,,,,,,,,,,,,"[-0.26280000000000003,-0.2158,-0.3256]",onetwo,"[-0.011800000000000033,-0.906,-0.45100000000000007]",-3,2.3235,-72,36,1,0,0,response7disk_5,10,1,1,0,0,rectangle_8,45,-83,1,0,0,1,2,-2,1,0,0,5,0,5,0,1,response3disk_7,4,rectangle_4,,,,,,,,,,,,,,,,,,,,,,,,,,,,,,,,,,,,,,,,,,,,,,,,,,,,,,,,,,,,,,,,,,,,,,,,,,,,,,,,,,,,,,,,,,,,,,,,,,,,,,,,,,,,,
,,,,,,6154f446688aad7658909dc9,62c539d3d2b6fa4cee194347,2022-07-06_02h35.17.826,Colour_Asymmetry_Pilot,2022.1.3,Win32,56.84402001,62c50e9c1127f2cd403a315f,,,,,,,,,,,,,,,,,,,"[-0.6942,-0.7648,-0.12959999999999994]",fourtwo,"[-0.34920000000000007,-0.702,-0.5216]",-4,2.8451,-41,80,1,0,0,response7disk_5,8,1,1,0,0,rectangle_8,8,1,1,0,0,1,8,1,1,0,0,6,0,6,0,1,,,,,,,,,,,,,,,,,,,,,,,,,,,,,,,,,,,,,,,,,,,,,,,,,,,,,,,,,,,,,,,,,,,,,,,,,,,,,,,,,,,,,,,,,,,,,,,,,,,,,,,,,,,,,,,,
,,,,,,6154f446688aad7658909dc9,62c539d3d2b6fa4cee194347,2022-07-06_02h35.17.826,Colour_Asymmetry_Pilot,2022.1.3,Win32,56.84402001,62c50e9c1127f2cd403a315f,,,,,,,,,,,,,,,,,,,,threefour,,-4,2.1584,,,,,,,,,,,,,,,,,,,,,,,,,,,,,,,,space,4.9209,"[-0.6,0.16860000000000008,0.44300000000000006]","[0.3568,-0.20799999999999996,-0.9844]",-28,56,1,0,0,response7disk,7,-8,1,0,0,rectangle,7,-8,1,0,0,,1,0.0023,0,7,-8,1,0,0,0,0,0,17,1,17,first,,,,,,,,,,,,,,,,,,,,,,,,,,,,,,,,,,,,,,,,,,,,,,,,,,,,,,,,,,,,,,,,,,,,,,,,
,,,,,,6154f446688aad7658909dc9,62c539d3d2b6fa4cee194347,2022-07-06_02h35.17.826,Colour_Asymmetry_Pilot,2022.1.3,Win32,56.84402001,62c50e9c1127f2cd403a315f,,,,,,,,,,,,,,,,,,,,threeone,,-4,1.5511,,,,,,,,,,,,,,,,,,,,,,,,,,,,,,,,,,"[0.19199999999999995,0.18419999999999992,0.5136000000000001]","[-0.7412000000000001,-0.08239999999999992,-0.6864]",-35,59,1,0,0,response7disk,2,-14,1,0,0,rectangle,34,-81,1,0,0,1,1,10.7313,1,-16,-7,1,0,0,0,1,1,159,1,78,second,response3disk_3,rectangle,,,,,,,,,,,,,,,,,,,,,,,,,,,,,,,,,,,,,,,,,,,,,,,,,,,,,,,,,,,,,,,,,,,,,,
,,,,,,6154f446688aad7658909dc9,62c539d3d2b6fa4cee194347,2022-07-06_02h35.17.826,Colour_Asymmetry_Pilot,2022.1.3,Win32,56.84402001,62c50e9c1127f2cd403a315f,,,,,,,,,,,,,,,,,,,,fourthree,,-4,3.801,,,,,,,,,,,,,,,,,,,,,,,,,,,,,,,,,,"[-0.0040000000000000036,0.02739999999999987,-0.08239999999999992]","[-0.10599999999999998,-0.15300000000000002,0.15280000000000005]",-38,80,1,0,0,response7disk,3,-6,1,0,0,rectangle,3,-6,1,0,0,1,3,0.0015,0,3,-6,1,0,0,0,2,2,101,1,20,second,,,,,,,,,,,,,,,,,,,,,,,,,,,,,,,,,,,,,,,,,,,,,,,,,,,,,,,,,,,,,,,,,,,,,,,,
,,,,,,6154f446688aad7658909dc9,62c539d3d2b6fa4cee194347,2022-07-06_02h35.17.826,Colour_Asymmetry_Pilot,2022.1.3,Win32,56.84402001,62c50e9c1127f2cd403a315f,,,,,,,,,,,,,,,,,,,,fourthree,,-4,2.3665,,,,,,,,,,,,,,,,,,,,,,,,,,,,,,,,,,"[0.7176,-0.906,-0.6864]","[-0.24719999999999998,-0.0354000000000001,0.3175999999999999]",-28,59,1,0,0,response7disk,-16,-3,1,0,0,rectangle,-16,-3,1,0,0,1,1,0.0013,0,-16,-3,1,0,0,0,3,3,84,1,3,second,,,,,,,,,,,,,,,,,,,,,,,,,,,,,,,,,,,,,,,,,,,,,,,,,,,,,,,,,,,,,,,,,,,,,,,,
,,,,,,6154f446688aad7658909dc9,62c539d3d2b6fa4cee194347,2022-07-06_02h35.17.826,Colour_Asymmetry_Pilot,2022.1.3,Win32,56.84402001,62c50e9c1127f2cd403a315f,,,,,,,,,,,,,,,,,,,,twoone,,-1,2.0497,,,,,,,,,,,,,,,,,,,,,,,,,,,,,,,,,,"[0.9686000000000001,0.3802000000000001,0.19999999999999996]","[0.5449999999999999,-0.31000000000000005,-0.0354000000000001]",-42,-68,1,0,0,response5disk,-4,7,1,0,0,rectangle,-4,7,1,0,0,1,1,0.0002,0,-4,7,1,0,0,0,4,4,6,1,6,first,,,,,,,,,,,,,,,,,,,,,,,,,,,,,,,,,,,,,,,,,,,,,,,,,,,,,,,,,,,,,,,,,,,,,,,,
,,,,,,6154f446688aad7658909dc9,62c539d3d2b6fa4cee194347,2022-07-06_02h35.17.826,Colour_Asymmetry_Pilot,2022.1.3,Win32,56.84402001,62c50e9c1127f2cd403a315f,,,,,,,,,,,,,,,,,,,,onetwo,,-2,3.1999,,,,,,,,,,,,,,,,,,,,,,,,,,,,,,,,,,"[0.3802000000000001,0.19199999999999995,-0.6394]","[0.9686000000000001,0.5763999999999998,0.11359999999999992]",-75,-49,1,0,0,response5disk,-16,-6,1,0,0,rectangle,-16,-6,1,0,0,1,3,0.0012,0,-16,-6,1,0,0,0,5,5,41,1,41,first,,,,,,,,,,,,,,,,,,,,,,,,,,,,,,,,,,,,,,,,,,,,,,,,,,,,,,,,,,,,,,,,,,,,,,,,
,,,,,,6154f446688aad7658909dc9,62c539d3d2b6fa4cee194347,2022-07-06_02h35.17.826,Colour_Asymmetry_Pilot,2022.1.3,Win32,56.84402001,62c50e9c1127f2cd403a315f,,,,,,,,,,,,,,,,,,,,threefour,,-4,2.5683,,,,,,,,,,,,,,,,,,,,,,,,,,,,,,,,,,"[1,0.12939999999999996,-1]","[0.5449999999999999,-0.31000000000000005,-0.0354000000000001]",-32,74,1,0,0,response7disk,-12,5,1,0,0,rectangle,-12,5,1,0,0,1,1,0.0014,0,-12,5,1,0,0,0,6,6,139,1,58,second,,,,,,,,,,,,,,,,,,,,,,,,,,,,,,,,,,,,,,,,,,,,,,,,,,,,,,,,,,,,,,,,,,,,,,,,
,,,,,,6154f446688aad7658909dc9,62c539d3d2b6fa4cee194347,2022-07-06_02h35.17.826,Colour_Asymmetry_Pilot,2022.1.3,Win32,56.84402001,62c50e9c1127f2cd403a315f,,,,,,,,,,,,,,,,,,,,threeone,,-4,0.8518,,,,,,,,,,,,,,,,,,,,,,,,,,,,,,,,,,"[-0.17659999999999998,-0.2864,-0.8354]","[0.7802,-0.23140000000000005,-0.20799999999999996]",-45,78,1,0,0,response7disk,-7,5,1,0,0,rectangle,-7,5,1,0,0,1,1,0.0003,0,-7,5,1,0,0,0,7,7,125,1,44,second,,,,,,,,,,,,,,,,,,,,,,,,,,,,,,,,,,,,,,,,,,,,,,,,,,,,,,,,,,,,,,,,,,,,,,,,
,,,,,,6154f446688aad7658909dc9,62c539d3d2b6fa4cee194347,2022-07-06_02h35.17.826,Colour_Asymmetry_Pilot,2022.1.3,Win32,56.84402001,62c50e9c1127f2cd403a315f,,,,,,,,,,,,,,,,,,,,twoone,,-4,0.4831,,,,,,,,,,,,,,,,,,,,,,,,,,,,,,,,,,"[-0.5688,-0.08239999999999992,-0.1844]","[-0.06680000000000008,-0.45100000000000007,-0.906]",-41,69,1,0,0,response7disk,-7,7,1,0,0,rectangle,-7,7,1,0,0,1,1,0.0003,0,-7,7,1,0,0,0,8,8,37,1,37,first,,,,,,,,,,,,,,,,,,,,,,,,,,,,,,,,,,,,,,,,,,,,,,,,,,,,,,,,,,,,,,,,,,,,,,,,
,,,,,,6154f446688aad7658909dc9,62c539d3d2b6fa4cee194347,2022-07-06_02h35.17.826,Colour_Asymmetry_Pilot,2022.1.3,Win32,56.84402001,62c50e9c1127f2cd403a315f,,,,,,,,,,,,,,,,,,,,fourthree,,-1,4.6015,,,,,,,,,,,,,,,,,,,,,,,,,,,,,,,,,,"[-0.5452,-0.608,0.2470000000000001]","[-0.4668,-0.8746,-0.2942]",-30,-87,1,0,0,response5disk,3,-1,1,0,0,rectangle,3,-1,1,0,0,1,2,0.0015,0,3,-1,1,0,0,0,9,9,112,1,31,second,,,,,,,,,,,,,,,,,,,,,,,,,,,,,,,,,,,,,,,,,,,,,,,,,,,,,,,,,,,,,,,,,,,,,,,,
,,,,,,6154f446688aad7658909dc9,62c539d3d2b6fa4cee194347,2022-07-06_02h35.17.826,Colour_Asymmetry_Pilot,2022.1.3,Win32,56.84402001,62c50e9c1127f2cd403a315f,,,,,,,,,,,,,,,,,,,,twoone,,-4,0.6753,,,,,,,,,,,,,,,,,,,,,,,,,,,,,,,,,,"[0.7018,0.7176,0.6155999999999999]","[-0.9216,-0.5529999999999999,-0.3962]",-46,77,1,0,0,response7disk,-6,9,1,0,0,rectangle,-6,9,1,0,0,1,3,0.0016,0,-6,9,1,0,0,0,10,10,19,1,19,first,,,,,,,,,,,,,,,,,,,,,,,,,,,,,,,,,,,,,,,,,,,,,,,,,,,,,,,,,,,,,,,,,,,,,,,,
,,,,,,6154f446688aad7658909dc9,62c539d3d2b6fa4cee194347,2022-07-06_02h35.17.826,Colour_Asymmetry_Pilot,2022.1.3,Win32,56.84402001,62c50e9c1127f2cd403a315f,,,,,,,,,,,,,,,,,,,,fourtwo,,1,1.6252,,,,,,,,,,,,,,,,,,,,,,,,,,,,,,,,,,"[-0.10599999999999998,-0.15300000000000002,0.15280000000000005]","[-0.5922000000000001,-0.7492000000000001,-0.5296000000000001]",57,-80,1,0,0,response3disk,10,-9,1,0,0,rectangle,10,-9,1,0,0,1,2,0.0013,0,10,-9,1,0,0,0,11,11,107,1,26,second,,,,,,,,,,,,,,,,,,,,,,,,,,,,,,,,,,,,,,,,,,,,,,,,,,,,,,,,,,,,,,,,,,,,,,,,
,,,,,,6154f446688aad7658909dc9,62c539d3d2b6fa4cee194347,2022-07-06_02h35.17.826,Colour_Asymmetry_Pilot,2022.1.3,Win32,56.84402001,62c50e9c1127f2cd403a315f,,,,,,,,,,,,,,,,,,,,onetwo,,-1,1.4747,,,,,,,,,,,,,,,,,,,,,,,,,,,,,,,,,,"[-0.5452,-0.608,0.2470000000000001]","[0.05879999999999996,0.2784,0.5841999999999998]",-33,-83,1,0,0,response5disk,2,-9,1,0,0,rectangle,2,-9,1,0,0,1,3,0.0013,0,2,-9,1,0,0,0,12,12,149,1,68,second,,,,,,,,,,,,,,,,,,,,,,,,,,,,,,,,,,,,,,,,,,,,,,,,,,,,,,,,,,,,,,,,,,,,,,,,
,,,,,,6154f446688aad7658909dc9,62c539d3d2b6fa4cee194347,2022-07-06_02h35.17.826,Colour_Asymmetry_Pilot,2022.1.3,Win32,56.84402001,62c50e9c1127f2cd403a315f,,,,,,,,,,,,,,,,,,,,fourtwo,,-4,0.7668,,,,,,,,,,,,,,,,,,,,,,,,,,,,,,,,,,"[-0.10599999999999998,-0.10599999999999998,0.5841999999999998]","[0.8115999999999999,-0.0040000000000000036,-0.09819999999999995]",-28,68,1,0,0,response7disk,-2,6,1,0,0,rectangle,-2,6,1,0,0,1,3,0.0003,0,-2,6,1,0,0,0,13,13,66,1,66,first,,,,,,,,,,,,,,,,,,,,,,,,,,,,,,,,,,,,,,,,,,,,,,,,,,,,,,,,,,,,,,,,,,,,,,,,
,,,,,,6154f446688aad7658909dc9,62c539d3d2b6fa4cee194347,2022-07-06_02h35.17.826,Colour_Asymmetry_Pilot,2022.1.3,Win32,56.84402001,62c50e9c1127f2cd403a315f,,,,,,,,,,,,,,,,,,,,onetwo,,-4,1.6931,,,,,,,,,,,,,,,,,,,,,,,,,,,,,,,,,,"[-0.10599999999999998,-0.15300000000000002,0.15280000000000005]","[-0.0040000000000000036,0.02739999999999987,-0.08239999999999992]",-50,86,1,0,0,response7disk,-9,-2,1,0,0,rectangle,-9,-2,1,0,0,1,3,0.0003,0,-9,-2,1,0,0,0,14,14,20,1,20,first,,,,,,,,,,,,,,,,,,,,,,,,,,,,,,,,,,,,,,,,,,,,,,,,,,,,,,,,,,,,,,,,,,,,,,,,
,,,,,,6154f446688aad7658909dc9,62c539d3d2b6fa4cee194347,2022-07-06_02h35.17.826,Colour_Asymmetry_Pilot,2022.1.3,Win32,56.84402001,62c50e9c1127f2cd403a315f,,,,,,,,,,,,,,,,,,,,twoone,,-3,3.2493,,,,,,,,,,,,,,,,,,,,,,,,,,,,,,,,,,"[-0.8118,-0.8198,-0.5452]","[-0.9138,-0.5296000000000001,-0.5529999999999999]",-82,35,1,0,0,response7disk,-23,-1,1,0,0,rectangle,-23,-1,1,0,0,1,3,0.0004,0,-23,-1,1,0,0,0,15,15,39,1,39,first,,,,,,,,,,,,,,,,,,,,,,,,,,,,,,,,,,,,,,,,,,,,,,,,,,,,,,,,,,,,,,,,,,,,,,,,
,,,,,,6154f446688aad7658909dc9,62c539d3d2b6fa4cee194347,2022-07-06_02h35.17.826,Colour_Asymmetry_Pilot,2022.1.3,Win32,56.84402001,62c50e9c1127f2cd403a315f,,,,,,,,,,,,,,,,,,,,threeone,,-4,0.4838,,,,,,,,,,,,,,,,,,,,,,,,,,,,,,,,,,"[-0.9688,-0.4902000000000001,-0.12159999999999993]","[0.9763999999999999,0.30979999999999985,-0.6786]",-37,63,1,0,0,response7disk,-19,6,1,0,0,rectangle,-19,6,1,0,0,1,1,0.0012,0,-19,6,1,0,0,0,16,16,83,1,2,second,,,,,,,,,,,,,,,,,,,,,,,,,,,,,,,,,,,,,,,,,,,,,,,,,,,,,,,,,,,,,,,,,,,,,,,,
,,,,,,6154f446688aad7658909dc9,62c539d3d2b6fa4cee194347,2022-07-06_02h35.17.826,Colour_Asymmetry_Pilot,2022.1.3,Win32,56.84402001,62c50e9c1127f2cd403a315f,,,,,,,,,,,,,,,,,,,,onethree,,-4,0.6668,,,,,,,,,,,,,,,,,,,,,,,,,,,,,,,,,,"[0.7176,-0.906,-0.6864]","[0.9686000000000001,0.3802000000000001,0.19999999999999996]",-30,61,1,0,0,response7disk,-9,0,1,0,0,rectangle,-9,0,1,0,0,1,1,0.0002,0,-9,0,1,0,0,0,17,17,86,1,5,second,,,,,,,,,,,,,,,,,,,,,,,,,,,,,,,,,,,,,,,,,,,,,,,,,,,,,,,,,,,,,,,,,,,,,,,,
