trials.thisRepN,trials.thisTrialN,trials.thisN,trials.thisIndex,trials.ran,Colourcodes,participant,session,date,expName,psychopyVersion,OS,frameRate,study_id,trials_4.thisRepN,trials_4.thisTrialN,trials_4.thisN,trials_4.thisIndex,trials_4.ran,StimulusPos,key_resp.keys,key_resp.rt,key_resp_2.keys,key_resp_2.rt,key_resp_15.keys,key_resp_15.rt,key_resp_17.keys,key_resp_17.rt,key_resp_9.keys,key_resp_9.rt,key_resp_10.keys,key_resp_10.rt,Circle1_col,Ecc,Circle2_col,similarity,response_time,mouse_5.x,mouse_5.y,mouse_5.leftButton,mouse_5.midButton,mouse_5.rightButton,mouse_5.clicked_name,mouse_10.x,mouse_10.y,mouse_10.leftButton,mouse_10.midButton,mouse_10.rightButton,mouse_10.clicked_name,mouse_7.x,mouse_7.y,mouse_7.leftButton,mouse_7.midButton,mouse_7.rightButton,catchnumberprac,mouse_6.x,mouse_6.y,mouse_6.leftButton,mouse_6.midButton,mouse_6.rightButton,duringprac.thisRepN,duringprac.thisTrialN,duringprac.thisN,duringprac.thisIndex,duringprac.ran,mouse_7.clicked_name,catchprac,mouse_6.clicked_name,key_resp_22.keys,key_resp_22.rt,Circle1_colour,Circle2_colour,mouse.x,mouse.y,mouse.leftButton,mouse.midButton,mouse.rightButton,mouse.clicked_name,mouse_2.x,mouse_2.y,mouse_2.leftButton,mouse_2.midButton,mouse_2.rightButton,mouse_2.clicked_name,mouse_3.x,mouse_3.y,mouse_3.leftButton,mouse_3.midButton,mouse_3.rightButton,catchresponse,catchnumber,response_time_catch,Catch,mouse_11.x,mouse_11.y,mouse_11.leftButton,mouse_11.midButton,mouse_11.rightButton,trials_2.thisRepN,trials_2.thisTrialN,trials_2.thisN,trials_2.thisIndex,trials_2.ran,Colourpair,Temporder,mouse_3.clicked_name,mouse_11.clicked_name,trials_3.thisRepN,trials_3.thisTrialN,trials_3.thisN,trials_3.thisIndex,trials_3.ran,key_resp_instr_Ishi.keys,key_resp_instr_Ishi.rt,Ishi_trial_keyresp.keys,Ishi_textbox.text,Ishi_mouse.x,Ishi_mouse.y,Ishi_mouse.leftButton,Ishi_mouse.midButton,Ishi_mouse.rightButton,Ishi_mouse.clicked_name,Ishi_loop.thisRepN,Ishi_loop.thisTrialN,Ishi_loop.thisN,Ishi_loop.thisIndex,Ishi_loop.ran,imageaddress,textbox.text,mouse_4.x,mouse_4.y,mouse_4.leftButton,mouse_4.midButton,mouse_4.rightButton,mouse_4.clicked_name,textbox_2.text,mouse_8.x,mouse_8.y,mouse_8.leftButton,mouse_8.midButton,mouse_8.rightButton,mouse_8.clicked_name,textbox_3.text,mouse_9.x,mouse_9.y,mouse_9.leftButton,mouse_9.midButton,mouse_9.rightButton,mouse_9.clicked_name,textbox_4.text,mouse_12.x,mouse_12.y,mouse_12.leftButton,mouse_12.midButton,mouse_12.rightButton,mouse_12.clicked_name,textbox_5.text,mouse_13.x,mouse_13.y,mouse_13.leftButton,mouse_13.midButton,mouse_13.rightButton,mouse_13.clicked_name,textbox_6.text,mouse_14.x,mouse_14.y,mouse_14.leftButton,mouse_14.midButton,mouse_14.rightButton,mouse_14.clicked_name,textbox_7.text,mouse_15.x,mouse_15.y,mouse_15.leftButton,mouse_15.midButton,mouse_15.rightButton,mouse_15.clicked_name
0,0,0,51,1,,60e758107f8031dce149e796,62c539f2bd5b409f94a2e560,2022-07-06_09h30.25.811,Colour_Asymmetry_Pilot,2022.1.3,Win32,59.24170616,62c50e9c1127f2cd403a315f,,,,,,,,,,,,,,,,,,,,,,,,,,,,,,,,,,,,,,,,,,,,,,,,,,,,,,,,,,,,,,,,,,,,,,,,,,,,,,,,,,,,,,,,,,,,,,,,,,,,,,,,,,,,,,,,,,,,,,,,,,,,,,,,,,,,,,,,,,,,,,,,,,,,,,,,,,,,,,,,,,,
0,1,1,0,1,,60e758107f8031dce149e796,62c539f2bd5b409f94a2e560,2022-07-06_09h30.25.811,Colour_Asymmetry_Pilot,2022.1.3,Win32,59.24170616,62c50e9c1127f2cd403a315f,,,,,,,,,,,,,,,,,,,,,,,,,,,,,,,,,,,,,,,,,,,,,,,,,,,,,,,,,,,,,,,,,,,,,,,,,,,,,,,,,,,,,,,,,,,,,,,,,,,,,,,,,,,,,,,,,,,,,,,,,,,,,,,,,,,,,,,,,,,,,,,,,,,,,,,,,,,,,,,,,,,
0,2,2,42,1,,60e758107f8031dce149e796,62c539f2bd5b409f94a2e560,2022-07-06_09h30.25.811,Colour_Asymmetry_Pilot,2022.1.3,Win32,59.24170616,62c50e9c1127f2cd403a315f,,,,,,,,,,,,,,,,,,,,,,,,,,,,,,,,,,,,,,,,,,,,,,,,,,,,,,,,,,,,,,,,,,,,,,,,,,,,,,,,,,,,,,,,,,,,,,,,,,,,,,,,,,,,,,,,,,,,,,,,,,,,,,,,,,,,,,,,,,,,,,,,,,,,,,,,,,,,,,,,,,,
0,3,3,30,1,,60e758107f8031dce149e796,62c539f2bd5b409f94a2e560,2022-07-06_09h30.25.811,Colour_Asymmetry_Pilot,2022.1.3,Win32,59.24170616,62c50e9c1127f2cd403a315f,,,,,,,,,,,,,,,,,,,,,,,,,,,,,,,,,,,,,,,,,,,,,,,,,,,,,,,,,,,,,,,,,,,,,,,,,,,,,,,,,,,,,,,,,,,,,,,,,,,,,,,,,,,,,,,,,,,,,,,,,,,,,,,,,,,,,,,,,,,,,,,,,,,,,,,,,,,,,,,,,,,
0,4,4,23,1,,60e758107f8031dce149e796,62c539f2bd5b409f94a2e560,2022-07-06_09h30.25.811,Colour_Asymmetry_Pilot,2022.1.3,Win32,59.24170616,62c50e9c1127f2cd403a315f,,,,,,,,,,,,,,,,,,,,,,,,,,,,,,,,,,,,,,,,,,,,,,,,,,,,,,,,,,,,,,,,,,,,,,,,,,,,,,,,,,,,,,,,,,,,,,,,,,,,,,,,,,,,,,,,,,,,,,,,,,,,,,,,,,,,,,,,,,,,,,,,,,,,,,,,,,,,,,,,,,,
0,5,5,40,1,,60e758107f8031dce149e796,62c539f2bd5b409f94a2e560,2022-07-06_09h30.25.811,Colour_Asymmetry_Pilot,2022.1.3,Win32,59.24170616,62c50e9c1127f2cd403a315f,,,,,,,,,,,,,,,,,,,,,,,,,,,,,,,,,,,,,,,,,,,,,,,,,,,,,,,,,,,,,,,,,,,,,,,,,,,,,,,,,,,,,,,,,,,,,,,,,,,,,,,,,,,,,,,,,,,,,,,,,,,,,,,,,,,,,,,,,,,,,,,,,,,,,,,,,,,,,,,,,,,
0,6,6,14,1,,60e758107f8031dce149e796,62c539f2bd5b409f94a2e560,2022-07-06_09h30.25.811,Colour_Asymmetry_Pilot,2022.1.3,Win32,59.24170616,62c50e9c1127f2cd403a315f,,,,,,,,,,,,,,,,,,,,,,,,,,,,,,,,,,,,,,,,,,,,,,,,,,,,,,,,,,,,,,,,,,,,,,,,,,,,,,,,,,,,,,,,,,,,,,,,,,,,,,,,,,,,,,,,,,,,,,,,,,,,,,,,,,,,,,,,,,,,,,,,,,,,,,,,,,,,,,,,,,,
0,7,7,75,1,,60e758107f8031dce149e796,62c539f2bd5b409f94a2e560,2022-07-06_09h30.25.811,Colour_Asymmetry_Pilot,2022.1.3,Win32,59.24170616,62c50e9c1127f2cd403a315f,,,,,,,,,,,,,,,,,,,,,,,,,,,,,,,,,,,,,,,,,,,,,,,,,,,,,,,,,,,,,,,,,,,,,,,,,,,,,,,,,,,,,,,,,,,,,,,,,,,,,,,,,,,,,,,,,,,,,,,,,,,,,,,,,,,,,,,,,,,,,,,,,,,,,,,,,,,,,,,,,,,
0,8,8,54,1,,60e758107f8031dce149e796,62c539f2bd5b409f94a2e560,2022-07-06_09h30.25.811,Colour_Asymmetry_Pilot,2022.1.3,Win32,59.24170616,62c50e9c1127f2cd403a315f,,,,,,,,,,,,,,,,,,,,,,,,,,,,,,,,,,,,,,,,,,,,,,,,,,,,,,,,,,,,,,,,,,,,,,,,,,,,,,,,,,,,,,,,,,,,,,,,,,,,,,,,,,,,,,,,,,,,,,,,,,,,,,,,,,,,,,,,,,,,,,,,,,,,,,,,,,,,,,,,,,,
0,9,9,56,1,,60e758107f8031dce149e796,62c539f2bd5b409f94a2e560,2022-07-06_09h30.25.811,Colour_Asymmetry_Pilot,2022.1.3,Win32,59.24170616,62c50e9c1127f2cd403a315f,,,,,,,,,,,,,,,,,,,,,,,,,,,,,,,,,,,,,,,,,,,,,,,,,,,,,,,,,,,,,,,,,,,,,,,,,,,,,,,,,,,,,,,,,,,,,,,,,,,,,,,,,,,,,,,,,,,,,,,,,,,,,,,,,,,,,,,,,,,,,,,,,,,,,,,,,,,,,,,,,,,
0,10,10,84,1,,60e758107f8031dce149e796,62c539f2bd5b409f94a2e560,2022-07-06_09h30.25.811,Colour_Asymmetry_Pilot,2022.1.3,Win32,59.24170616,62c50e9c1127f2cd403a315f,,,,,,,,,,,,,,,,,,,,,,,,,,,,,,,,,,,,,,,,,,,,,,,,,,,,,,,,,,,,,,,,,,,,,,,,,,,,,,,,,,,,,,,,,,,,,,,,,,,,,,,,,,,,,,,,,,,,,,,,,,,,,,,,,,,,,,,,,,,,,,,,,,,,,,,,,,,,,,,,,,,
0,11,11,87,1,,60e758107f8031dce149e796,62c539f2bd5b409f94a2e560,2022-07-06_09h30.25.811,Colour_Asymmetry_Pilot,2022.1.3,Win32,59.24170616,62c50e9c1127f2cd403a315f,,,,,,,,,,,,,,,,,,,,,,,,,,,,,,,,,,,,,,,,,,,,,,,,,,,,,,,,,,,,,,,,,,,,,,,,,,,,,,,,,,,,,,,,,,,,,,,,,,,,,,,,,,,,,,,,,,,,,,,,,,,,,,,,,,,,,,,,,,,,,,,,,,,,,,,,,,,,,,,,,,,
0,12,12,64,1,,60e758107f8031dce149e796,62c539f2bd5b409f94a2e560,2022-07-06_09h30.25.811,Colour_Asymmetry_Pilot,2022.1.3,Win32,59.24170616,62c50e9c1127f2cd403a315f,,,,,,,,,,,,,,,,,,,,,,,,,,,,,,,,,,,,,,,,,,,,,,,,,,,,,,,,,,,,,,,,,,,,,,,,,,,,,,,,,,,,,,,,,,,,,,,,,,,,,,,,,,,,,,,,,,,,,,,,,,,,,,,,,,,,,,,,,,,,,,,,,,,,,,,,,,,,,,,,,,,
0,13,13,90,1,,60e758107f8031dce149e796,62c539f2bd5b409f94a2e560,2022-07-06_09h30.25.811,Colour_Asymmetry_Pilot,2022.1.3,Win32,59.24170616,62c50e9c1127f2cd403a315f,,,,,,,,,,,,,,,,,,,,,,,,,,,,,,,,,,,,,,,,,,,,,,,,,,,,,,,,,,,,,,,,,,,,,,,,,,,,,,,,,,,,,,,,,,,,,,,,,,,,,,,,,,,,,,,,,,,,,,,,,,,,,,,,,,,,,,,,,,,,,,,,,,,,,,,,,,,,,,,,,,,
0,14,14,36,1,,60e758107f8031dce149e796,62c539f2bd5b409f94a2e560,2022-07-06_09h30.25.811,Colour_Asymmetry_Pilot,2022.1.3,Win32,59.24170616,62c50e9c1127f2cd403a315f,,,,,,,,,,,,,,,,,,,,,,,,,,,,,,,,,,,,,,,,,,,,,,,,,,,,,,,,,,,,,,,,,,,,,,,,,,,,,,,,,,,,,,,,,,,,,,,,,,,,,,,,,,,,,,,,,,,,,,,,,,,,,,,,,,,,,,,,,,,,,,,,,,,,,,,,,,,,,,,,,,,
0,15,15,32,1,,60e758107f8031dce149e796,62c539f2bd5b409f94a2e560,2022-07-06_09h30.25.811,Colour_Asymmetry_Pilot,2022.1.3,Win32,59.24170616,62c50e9c1127f2cd403a315f,,,,,,,,,,,,,,,,,,,,,,,,,,,,,,,,,,,,,,,,,,,,,,,,,,,,,,,,,,,,,,,,,,,,,,,,,,,,,,,,,,,,,,,,,,,,,,,,,,,,,,,,,,,,,,,,,,,,,,,,,,,,,,,,,,,,,,,,,,,,,,,,,,,,,,,,,,,,,,,,,,,
0,16,16,19,1,,60e758107f8031dce149e796,62c539f2bd5b409f94a2e560,2022-07-06_09h30.25.811,Colour_Asymmetry_Pilot,2022.1.3,Win32,59.24170616,62c50e9c1127f2cd403a315f,,,,,,,,,,,,,,,,,,,,,,,,,,,,,,,,,,,,,,,,,,,,,,,,,,,,,,,,,,,,,,,,,,,,,,,,,,,,,,,,,,,,,,,,,,,,,,,,,,,,,,,,,,,,,,,,,,,,,,,,,,,,,,,,,,,,,,,,,,,,,,,,,,,,,,,,,,,,,,,,,,,
0,17,17,5,1,,60e758107f8031dce149e796,62c539f2bd5b409f94a2e560,2022-07-06_09h30.25.811,Colour_Asymmetry_Pilot,2022.1.3,Win32,59.24170616,62c50e9c1127f2cd403a315f,,,,,,,,,,,,,,,,,,,,,,,,,,,,,,,,,,,,,,,,,,,,,,,,,,,,,,,,,,,,,,,,,,,,,,,,,,,,,,,,,,,,,,,,,,,,,,,,,,,,,,,,,,,,,,,,,,,,,,,,,,,,,,,,,,,,,,,,,,,,,,,,,,,,,,,,,,,,,,,,,,,
0,18,18,73,1,,60e758107f8031dce149e796,62c539f2bd5b409f94a2e560,2022-07-06_09h30.25.811,Colour_Asymmetry_Pilot,2022.1.3,Win32,59.24170616,62c50e9c1127f2cd403a315f,,,,,,,,,,,,,,,,,,,,,,,,,,,,,,,,,,,,,,,,,,,,,,,,,,,,,,,,,,,,,,,,,,,,,,,,,,,,,,,,,,,,,,,,,,,,,,,,,,,,,,,,,,,,,,,,,,,,,,,,,,,,,,,,,,,,,,,,,,,,,,,,,,,,,,,,,,,,,,,,,,,
0,19,19,69,1,,60e758107f8031dce149e796,62c539f2bd5b409f94a2e560,2022-07-06_09h30.25.811,Colour_Asymmetry_Pilot,2022.1.3,Win32,59.24170616,62c50e9c1127f2cd403a315f,,,,,,,,,,,,,,,,,,,,,,,,,,,,,,,,,,,,,,,,,,,,,,,,,,,,,,,,,,,,,,,,,,,,,,,,,,,,,,,,,,,,,,,,,,,,,,,,,,,,,,,,,,,,,,,,,,,,,,,,,,,,,,,,,,,,,,,,,,,,,,,,,,,,,,,,,,,,,,,,,,,
0,20,20,24,1,,60e758107f8031dce149e796,62c539f2bd5b409f94a2e560,2022-07-06_09h30.25.811,Colour_Asymmetry_Pilot,2022.1.3,Win32,59.24170616,62c50e9c1127f2cd403a315f,,,,,,,,,,,,,,,,,,,,,,,,,,,,,,,,,,,,,,,,,,,,,,,,,,,,,,,,,,,,,,,,,,,,,,,,,,,,,,,,,,,,,,,,,,,,,,,,,,,,,,,,,,,,,,,,,,,,,,,,,,,,,,,,,,,,,,,,,,,,,,,,,,,,,,,,,,,,,,,,,,,
0,21,21,44,1,,60e758107f8031dce149e796,62c539f2bd5b409f94a2e560,2022-07-06_09h30.25.811,Colour_Asymmetry_Pilot,2022.1.3,Win32,59.24170616,62c50e9c1127f2cd403a315f,,,,,,,,,,,,,,,,,,,,,,,,,,,,,,,,,,,,,,,,,,,,,,,,,,,,,,,,,,,,,,,,,,,,,,,,,,,,,,,,,,,,,,,,,,,,,,,,,,,,,,,,,,,,,,,,,,,,,,,,,,,,,,,,,,,,,,,,,,,,,,,,,,,,,,,,,,,,,,,,,,,
0,22,22,65,1,,60e758107f8031dce149e796,62c539f2bd5b409f94a2e560,2022-07-06_09h30.25.811,Colour_Asymmetry_Pilot,2022.1.3,Win32,59.24170616,62c50e9c1127f2cd403a315f,,,,,,,,,,,,,,,,,,,,,,,,,,,,,,,,,,,,,,,,,,,,,,,,,,,,,,,,,,,,,,,,,,,,,,,,,,,,,,,,,,,,,,,,,,,,,,,,,,,,,,,,,,,,,,,,,,,,,,,,,,,,,,,,,,,,,,,,,,,,,,,,,,,,,,,,,,,,,,,,,,,
0,23,23,78,1,,60e758107f8031dce149e796,62c539f2bd5b409f94a2e560,2022-07-06_09h30.25.811,Colour_Asymmetry_Pilot,2022.1.3,Win32,59.24170616,62c50e9c1127f2cd403a315f,,,,,,,,,,,,,,,,,,,,,,,,,,,,,,,,,,,,,,,,,,,,,,,,,,,,,,,,,,,,,,,,,,,,,,,,,,,,,,,,,,,,,,,,,,,,,,,,,,,,,,,,,,,,,,,,,,,,,,,,,,,,,,,,,,,,,,,,,,,,,,,,,,,,,,,,,,,,,,,,,,,
0,24,24,92,1,,60e758107f8031dce149e796,62c539f2bd5b409f94a2e560,2022-07-06_09h30.25.811,Colour_Asymmetry_Pilot,2022.1.3,Win32,59.24170616,62c50e9c1127f2cd403a315f,,,,,,,,,,,,,,,,,,,,,,,,,,,,,,,,,,,,,,,,,,,,,,,,,,,,,,,,,,,,,,,,,,,,,,,,,,,,,,,,,,,,,,,,,,,,,,,,,,,,,,,,,,,,,,,,,,,,,,,,,,,,,,,,,,,,,,,,,,,,,,,,,,,,,,,,,,,,,,,,,,,
0,25,25,82,1,,60e758107f8031dce149e796,62c539f2bd5b409f94a2e560,2022-07-06_09h30.25.811,Colour_Asymmetry_Pilot,2022.1.3,Win32,59.24170616,62c50e9c1127f2cd403a315f,,,,,,,,,,,,,,,,,,,,,,,,,,,,,,,,,,,,,,,,,,,,,,,,,,,,,,,,,,,,,,,,,,,,,,,,,,,,,,,,,,,,,,,,,,,,,,,,,,,,,,,,,,,,,,,,,,,,,,,,,,,,,,,,,,,,,,,,,,,,,,,,,,,,,,,,,,,,,,,,,,,
0,26,26,25,1,,60e758107f8031dce149e796,62c539f2bd5b409f94a2e560,2022-07-06_09h30.25.811,Colour_Asymmetry_Pilot,2022.1.3,Win32,59.24170616,62c50e9c1127f2cd403a315f,,,,,,,,,,,,,,,,,,,,,,,,,,,,,,,,,,,,,,,,,,,,,,,,,,,,,,,,,,,,,,,,,,,,,,,,,,,,,,,,,,,,,,,,,,,,,,,,,,,,,,,,,,,,,,,,,,,,,,,,,,,,,,,,,,,,,,,,,,,,,,,,,,,,,,,,,,,,,,,,,,,
0,27,27,89,1,,60e758107f8031dce149e796,62c539f2bd5b409f94a2e560,2022-07-06_09h30.25.811,Colour_Asymmetry_Pilot,2022.1.3,Win32,59.24170616,62c50e9c1127f2cd403a315f,,,,,,,,,,,,,,,,,,,,,,,,,,,,,,,,,,,,,,,,,,,,,,,,,,,,,,,,,,,,,,,,,,,,,,,,,,,,,,,,,,,,,,,,,,,,,,,,,,,,,,,,,,,,,,,,,,,,,,,,,,,,,,,,,,,,,,,,,,,,,,,,,,,,,,,,,,,,,,,,,,,
0,28,28,12,1,,60e758107f8031dce149e796,62c539f2bd5b409f94a2e560,2022-07-06_09h30.25.811,Colour_Asymmetry_Pilot,2022.1.3,Win32,59.24170616,62c50e9c1127f2cd403a315f,,,,,,,,,,,,,,,,,,,,,,,,,,,,,,,,,,,,,,,,,,,,,,,,,,,,,,,,,,,,,,,,,,,,,,,,,,,,,,,,,,,,,,,,,,,,,,,,,,,,,,,,,,,,,,,,,,,,,,,,,,,,,,,,,,,,,,,,,,,,,,,,,,,,,,,,,,,,,,,,,,,
0,29,29,38,1,,60e758107f8031dce149e796,62c539f2bd5b409f94a2e560,2022-07-06_09h30.25.811,Colour_Asymmetry_Pilot,2022.1.3,Win32,59.24170616,62c50e9c1127f2cd403a315f,,,,,,,,,,,,,,,,,,,,,,,,,,,,,,,,,,,,,,,,,,,,,,,,,,,,,,,,,,,,,,,,,,,,,,,,,,,,,,,,,,,,,,,,,,,,,,,,,,,,,,,,,,,,,,,,,,,,,,,,,,,,,,,,,,,,,,,,,,,,,,,,,,,,,,,,,,,,,,,,,,,
0,30,30,77,1,,60e758107f8031dce149e796,62c539f2bd5b409f94a2e560,2022-07-06_09h30.25.811,Colour_Asymmetry_Pilot,2022.1.3,Win32,59.24170616,62c50e9c1127f2cd403a315f,,,,,,,,,,,,,,,,,,,,,,,,,,,,,,,,,,,,,,,,,,,,,,,,,,,,,,,,,,,,,,,,,,,,,,,,,,,,,,,,,,,,,,,,,,,,,,,,,,,,,,,,,,,,,,,,,,,,,,,,,,,,,,,,,,,,,,,,,,,,,,,,,,,,,,,,,,,,,,,,,,,
0,31,31,70,1,,60e758107f8031dce149e796,62c539f2bd5b409f94a2e560,2022-07-06_09h30.25.811,Colour_Asymmetry_Pilot,2022.1.3,Win32,59.24170616,62c50e9c1127f2cd403a315f,,,,,,,,,,,,,,,,,,,,,,,,,,,,,,,,,,,,,,,,,,,,,,,,,,,,,,,,,,,,,,,,,,,,,,,,,,,,,,,,,,,,,,,,,,,,,,,,,,,,,,,,,,,,,,,,,,,,,,,,,,,,,,,,,,,,,,,,,,,,,,,,,,,,,,,,,,,,,,,,,,,
0,32,32,15,1,,60e758107f8031dce149e796,62c539f2bd5b409f94a2e560,2022-07-06_09h30.25.811,Colour_Asymmetry_Pilot,2022.1.3,Win32,59.24170616,62c50e9c1127f2cd403a315f,,,,,,,,,,,,,,,,,,,,,,,,,,,,,,,,,,,,,,,,,,,,,,,,,,,,,,,,,,,,,,,,,,,,,,,,,,,,,,,,,,,,,,,,,,,,,,,,,,,,,,,,,,,,,,,,,,,,,,,,,,,,,,,,,,,,,,,,,,,,,,,,,,,,,,,,,,,,,,,,,,,
0,33,33,49,1,,60e758107f8031dce149e796,62c539f2bd5b409f94a2e560,2022-07-06_09h30.25.811,Colour_Asymmetry_Pilot,2022.1.3,Win32,59.24170616,62c50e9c1127f2cd403a315f,,,,,,,,,,,,,,,,,,,,,,,,,,,,,,,,,,,,,,,,,,,,,,,,,,,,,,,,,,,,,,,,,,,,,,,,,,,,,,,,,,,,,,,,,,,,,,,,,,,,,,,,,,,,,,,,,,,,,,,,,,,,,,,,,,,,,,,,,,,,,,,,,,,,,,,,,,,,,,,,,,,
0,34,34,88,1,,60e758107f8031dce149e796,62c539f2bd5b409f94a2e560,2022-07-06_09h30.25.811,Colour_Asymmetry_Pilot,2022.1.3,Win32,59.24170616,62c50e9c1127f2cd403a315f,,,,,,,,,,,,,,,,,,,,,,,,,,,,,,,,,,,,,,,,,,,,,,,,,,,,,,,,,,,,,,,,,,,,,,,,,,,,,,,,,,,,,,,,,,,,,,,,,,,,,,,,,,,,,,,,,,,,,,,,,,,,,,,,,,,,,,,,,,,,,,,,,,,,,,,,,,,,,,,,,,,
0,35,35,37,1,,60e758107f8031dce149e796,62c539f2bd5b409f94a2e560,2022-07-06_09h30.25.811,Colour_Asymmetry_Pilot,2022.1.3,Win32,59.24170616,62c50e9c1127f2cd403a315f,,,,,,,,,,,,,,,,,,,,,,,,,,,,,,,,,,,,,,,,,,,,,,,,,,,,,,,,,,,,,,,,,,,,,,,,,,,,,,,,,,,,,,,,,,,,,,,,,,,,,,,,,,,,,,,,,,,,,,,,,,,,,,,,,,,,,,,,,,,,,,,,,,,,,,,,,,,,,,,,,,,
0,36,36,71,1,,60e758107f8031dce149e796,62c539f2bd5b409f94a2e560,2022-07-06_09h30.25.811,Colour_Asymmetry_Pilot,2022.1.3,Win32,59.24170616,62c50e9c1127f2cd403a315f,,,,,,,,,,,,,,,,,,,,,,,,,,,,,,,,,,,,,,,,,,,,,,,,,,,,,,,,,,,,,,,,,,,,,,,,,,,,,,,,,,,,,,,,,,,,,,,,,,,,,,,,,,,,,,,,,,,,,,,,,,,,,,,,,,,,,,,,,,,,,,,,,,,,,,,,,,,,,,,,,,,
0,37,37,29,1,,60e758107f8031dce149e796,62c539f2bd5b409f94a2e560,2022-07-06_09h30.25.811,Colour_Asymmetry_Pilot,2022.1.3,Win32,59.24170616,62c50e9c1127f2cd403a315f,,,,,,,,,,,,,,,,,,,,,,,,,,,,,,,,,,,,,,,,,,,,,,,,,,,,,,,,,,,,,,,,,,,,,,,,,,,,,,,,,,,,,,,,,,,,,,,,,,,,,,,,,,,,,,,,,,,,,,,,,,,,,,,,,,,,,,,,,,,,,,,,,,,,,,,,,,,,,,,,,,,
0,38,38,60,1,,60e758107f8031dce149e796,62c539f2bd5b409f94a2e560,2022-07-06_09h30.25.811,Colour_Asymmetry_Pilot,2022.1.3,Win32,59.24170616,62c50e9c1127f2cd403a315f,,,,,,,,,,,,,,,,,,,,,,,,,,,,,,,,,,,,,,,,,,,,,,,,,,,,,,,,,,,,,,,,,,,,,,,,,,,,,,,,,,,,,,,,,,,,,,,,,,,,,,,,,,,,,,,,,,,,,,,,,,,,,,,,,,,,,,,,,,,,,,,,,,,,,,,,,,,,,,,,,,,
0,39,39,50,1,,60e758107f8031dce149e796,62c539f2bd5b409f94a2e560,2022-07-06_09h30.25.811,Colour_Asymmetry_Pilot,2022.1.3,Win32,59.24170616,62c50e9c1127f2cd403a315f,,,,,,,,,,,,,,,,,,,,,,,,,,,,,,,,,,,,,,,,,,,,,,,,,,,,,,,,,,,,,,,,,,,,,,,,,,,,,,,,,,,,,,,,,,,,,,,,,,,,,,,,,,,,,,,,,,,,,,,,,,,,,,,,,,,,,,,,,,,,,,,,,,,,,,,,,,,,,,,,,,,
0,40,40,10,1,,60e758107f8031dce149e796,62c539f2bd5b409f94a2e560,2022-07-06_09h30.25.811,Colour_Asymmetry_Pilot,2022.1.3,Win32,59.24170616,62c50e9c1127f2cd403a315f,,,,,,,,,,,,,,,,,,,,,,,,,,,,,,,,,,,,,,,,,,,,,,,,,,,,,,,,,,,,,,,,,,,,,,,,,,,,,,,,,,,,,,,,,,,,,,,,,,,,,,,,,,,,,,,,,,,,,,,,,,,,,,,,,,,,,,,,,,,,,,,,,,,,,,,,,,,,,,,,,,,
0,41,41,80,1,,60e758107f8031dce149e796,62c539f2bd5b409f94a2e560,2022-07-06_09h30.25.811,Colour_Asymmetry_Pilot,2022.1.3,Win32,59.24170616,62c50e9c1127f2cd403a315f,,,,,,,,,,,,,,,,,,,,,,,,,,,,,,,,,,,,,,,,,,,,,,,,,,,,,,,,,,,,,,,,,,,,,,,,,,,,,,,,,,,,,,,,,,,,,,,,,,,,,,,,,,,,,,,,,,,,,,,,,,,,,,,,,,,,,,,,,,,,,,,,,,,,,,,,,,,,,,,,,,,
0,42,42,17,1,,60e758107f8031dce149e796,62c539f2bd5b409f94a2e560,2022-07-06_09h30.25.811,Colour_Asymmetry_Pilot,2022.1.3,Win32,59.24170616,62c50e9c1127f2cd403a315f,,,,,,,,,,,,,,,,,,,,,,,,,,,,,,,,,,,,,,,,,,,,,,,,,,,,,,,,,,,,,,,,,,,,,,,,,,,,,,,,,,,,,,,,,,,,,,,,,,,,,,,,,,,,,,,,,,,,,,,,,,,,,,,,,,,,,,,,,,,,,,,,,,,,,,,,,,,,,,,,,,,
0,43,43,61,1,,60e758107f8031dce149e796,62c539f2bd5b409f94a2e560,2022-07-06_09h30.25.811,Colour_Asymmetry_Pilot,2022.1.3,Win32,59.24170616,62c50e9c1127f2cd403a315f,,,,,,,,,,,,,,,,,,,,,,,,,,,,,,,,,,,,,,,,,,,,,,,,,,,,,,,,,,,,,,,,,,,,,,,,,,,,,,,,,,,,,,,,,,,,,,,,,,,,,,,,,,,,,,,,,,,,,,,,,,,,,,,,,,,,,,,,,,,,,,,,,,,,,,,,,,,,,,,,,,,
0,44,44,31,1,,60e758107f8031dce149e796,62c539f2bd5b409f94a2e560,2022-07-06_09h30.25.811,Colour_Asymmetry_Pilot,2022.1.3,Win32,59.24170616,62c50e9c1127f2cd403a315f,,,,,,,,,,,,,,,,,,,,,,,,,,,,,,,,,,,,,,,,,,,,,,,,,,,,,,,,,,,,,,,,,,,,,,,,,,,,,,,,,,,,,,,,,,,,,,,,,,,,,,,,,,,,,,,,,,,,,,,,,,,,,,,,,,,,,,,,,,,,,,,,,,,,,,,,,,,,,,,,,,,
0,45,45,7,1,,60e758107f8031dce149e796,62c539f2bd5b409f94a2e560,2022-07-06_09h30.25.811,Colour_Asymmetry_Pilot,2022.1.3,Win32,59.24170616,62c50e9c1127f2cd403a315f,,,,,,,,,,,,,,,,,,,,,,,,,,,,,,,,,,,,,,,,,,,,,,,,,,,,,,,,,,,,,,,,,,,,,,,,,,,,,,,,,,,,,,,,,,,,,,,,,,,,,,,,,,,,,,,,,,,,,,,,,,,,,,,,,,,,,,,,,,,,,,,,,,,,,,,,,,,,,,,,,,,
0,46,46,43,1,,60e758107f8031dce149e796,62c539f2bd5b409f94a2e560,2022-07-06_09h30.25.811,Colour_Asymmetry_Pilot,2022.1.3,Win32,59.24170616,62c50e9c1127f2cd403a315f,,,,,,,,,,,,,,,,,,,,,,,,,,,,,,,,,,,,,,,,,,,,,,,,,,,,,,,,,,,,,,,,,,,,,,,,,,,,,,,,,,,,,,,,,,,,,,,,,,,,,,,,,,,,,,,,,,,,,,,,,,,,,,,,,,,,,,,,,,,,,,,,,,,,,,,,,,,,,,,,,,,
0,47,47,20,1,,60e758107f8031dce149e796,62c539f2bd5b409f94a2e560,2022-07-06_09h30.25.811,Colour_Asymmetry_Pilot,2022.1.3,Win32,59.24170616,62c50e9c1127f2cd403a315f,,,,,,,,,,,,,,,,,,,,,,,,,,,,,,,,,,,,,,,,,,,,,,,,,,,,,,,,,,,,,,,,,,,,,,,,,,,,,,,,,,,,,,,,,,,,,,,,,,,,,,,,,,,,,,,,,,,,,,,,,,,,,,,,,,,,,,,,,,,,,,,,,,,,,,,,,,,,,,,,,,,
0,48,48,68,1,,60e758107f8031dce149e796,62c539f2bd5b409f94a2e560,2022-07-06_09h30.25.811,Colour_Asymmetry_Pilot,2022.1.3,Win32,59.24170616,62c50e9c1127f2cd403a315f,,,,,,,,,,,,,,,,,,,,,,,,,,,,,,,,,,,,,,,,,,,,,,,,,,,,,,,,,,,,,,,,,,,,,,,,,,,,,,,,,,,,,,,,,,,,,,,,,,,,,,,,,,,,,,,,,,,,,,,,,,,,,,,,,,,,,,,,,,,,,,,,,,,,,,,,,,,,,,,,,,,
0,49,49,1,1,,60e758107f8031dce149e796,62c539f2bd5b409f94a2e560,2022-07-06_09h30.25.811,Colour_Asymmetry_Pilot,2022.1.3,Win32,59.24170616,62c50e9c1127f2cd403a315f,,,,,,,,,,,,,,,,,,,,,,,,,,,,,,,,,,,,,,,,,,,,,,,,,,,,,,,,,,,,,,,,,,,,,,,,,,,,,,,,,,,,,,,,,,,,,,,,,,,,,,,,,,,,,,,,,,,,,,,,,,,,,,,,,,,,,,,,,,,,,,,,,,,,,,,,,,,,,,,,,,,
0,50,50,91,1,,60e758107f8031dce149e796,62c539f2bd5b409f94a2e560,2022-07-06_09h30.25.811,Colour_Asymmetry_Pilot,2022.1.3,Win32,59.24170616,62c50e9c1127f2cd403a315f,,,,,,,,,,,,,,,,,,,,,,,,,,,,,,,,,,,,,,,,,,,,,,,,,,,,,,,,,,,,,,,,,,,,,,,,,,,,,,,,,,,,,,,,,,,,,,,,,,,,,,,,,,,,,,,,,,,,,,,,,,,,,,,,,,,,,,,,,,,,,,,,,,,,,,,,,,,,,,,,,,,
0,51,51,13,1,,60e758107f8031dce149e796,62c539f2bd5b409f94a2e560,2022-07-06_09h30.25.811,Colour_Asymmetry_Pilot,2022.1.3,Win32,59.24170616,62c50e9c1127f2cd403a315f,,,,,,,,,,,,,,,,,,,,,,,,,,,,,,,,,,,,,,,,,,,,,,,,,,,,,,,,,,,,,,,,,,,,,,,,,,,,,,,,,,,,,,,,,,,,,,,,,,,,,,,,,,,,,,,,,,,,,,,,,,,,,,,,,,,,,,,,,,,,,,,,,,,,,,,,,,,,,,,,,,,
0,52,52,63,1,,60e758107f8031dce149e796,62c539f2bd5b409f94a2e560,2022-07-06_09h30.25.811,Colour_Asymmetry_Pilot,2022.1.3,Win32,59.24170616,62c50e9c1127f2cd403a315f,,,,,,,,,,,,,,,,,,,,,,,,,,,,,,,,,,,,,,,,,,,,,,,,,,,,,,,,,,,,,,,,,,,,,,,,,,,,,,,,,,,,,,,,,,,,,,,,,,,,,,,,,,,,,,,,,,,,,,,,,,,,,,,,,,,,,,,,,,,,,,,,,,,,,,,,,,,,,,,,,,,
0,53,53,45,1,,60e758107f8031dce149e796,62c539f2bd5b409f94a2e560,2022-07-06_09h30.25.811,Colour_Asymmetry_Pilot,2022.1.3,Win32,59.24170616,62c50e9c1127f2cd403a315f,,,,,,,,,,,,,,,,,,,,,,,,,,,,,,,,,,,,,,,,,,,,,,,,,,,,,,,,,,,,,,,,,,,,,,,,,,,,,,,,,,,,,,,,,,,,,,,,,,,,,,,,,,,,,,,,,,,,,,,,,,,,,,,,,,,,,,,,,,,,,,,,,,,,,,,,,,,,,,,,,,,
0,54,54,72,1,,60e758107f8031dce149e796,62c539f2bd5b409f94a2e560,2022-07-06_09h30.25.811,Colour_Asymmetry_Pilot,2022.1.3,Win32,59.24170616,62c50e9c1127f2cd403a315f,,,,,,,,,,,,,,,,,,,,,,,,,,,,,,,,,,,,,,,,,,,,,,,,,,,,,,,,,,,,,,,,,,,,,,,,,,,,,,,,,,,,,,,,,,,,,,,,,,,,,,,,,,,,,,,,,,,,,,,,,,,,,,,,,,,,,,,,,,,,,,,,,,,,,,,,,,,,,,,,,,,
0,55,55,18,1,,60e758107f8031dce149e796,62c539f2bd5b409f94a2e560,2022-07-06_09h30.25.811,Colour_Asymmetry_Pilot,2022.1.3,Win32,59.24170616,62c50e9c1127f2cd403a315f,,,,,,,,,,,,,,,,,,,,,,,,,,,,,,,,,,,,,,,,,,,,,,,,,,,,,,,,,,,,,,,,,,,,,,,,,,,,,,,,,,,,,,,,,,,,,,,,,,,,,,,,,,,,,,,,,,,,,,,,,,,,,,,,,,,,,,,,,,,,,,,,,,,,,,,,,,,,,,,,,,,
0,56,56,16,1,,60e758107f8031dce149e796,62c539f2bd5b409f94a2e560,2022-07-06_09h30.25.811,Colour_Asymmetry_Pilot,2022.1.3,Win32,59.24170616,62c50e9c1127f2cd403a315f,,,,,,,,,,,,,,,,,,,,,,,,,,,,,,,,,,,,,,,,,,,,,,,,,,,,,,,,,,,,,,,,,,,,,,,,,,,,,,,,,,,,,,,,,,,,,,,,,,,,,,,,,,,,,,,,,,,,,,,,,,,,,,,,,,,,,,,,,,,,,,,,,,,,,,,,,,,,,,,,,,,
0,57,57,27,1,,60e758107f8031dce149e796,62c539f2bd5b409f94a2e560,2022-07-06_09h30.25.811,Colour_Asymmetry_Pilot,2022.1.3,Win32,59.24170616,62c50e9c1127f2cd403a315f,,,,,,,,,,,,,,,,,,,,,,,,,,,,,,,,,,,,,,,,,,,,,,,,,,,,,,,,,,,,,,,,,,,,,,,,,,,,,,,,,,,,,,,,,,,,,,,,,,,,,,,,,,,,,,,,,,,,,,,,,,,,,,,,,,,,,,,,,,,,,,,,,,,,,,,,,,,,,,,,,,,
0,58,58,4,1,,60e758107f8031dce149e796,62c539f2bd5b409f94a2e560,2022-07-06_09h30.25.811,Colour_Asymmetry_Pilot,2022.1.3,Win32,59.24170616,62c50e9c1127f2cd403a315f,,,,,,,,,,,,,,,,,,,,,,,,,,,,,,,,,,,,,,,,,,,,,,,,,,,,,,,,,,,,,,,,,,,,,,,,,,,,,,,,,,,,,,,,,,,,,,,,,,,,,,,,,,,,,,,,,,,,,,,,,,,,,,,,,,,,,,,,,,,,,,,,,,,,,,,,,,,,,,,,,,,
0,59,59,8,1,,60e758107f8031dce149e796,62c539f2bd5b409f94a2e560,2022-07-06_09h30.25.811,Colour_Asymmetry_Pilot,2022.1.3,Win32,59.24170616,62c50e9c1127f2cd403a315f,,,,,,,,,,,,,,,,,,,,,,,,,,,,,,,,,,,,,,,,,,,,,,,,,,,,,,,,,,,,,,,,,,,,,,,,,,,,,,,,,,,,,,,,,,,,,,,,,,,,,,,,,,,,,,,,,,,,,,,,,,,,,,,,,,,,,,,,,,,,,,,,,,,,,,,,,,,,,,,,,,,
0,60,60,35,1,,60e758107f8031dce149e796,62c539f2bd5b409f94a2e560,2022-07-06_09h30.25.811,Colour_Asymmetry_Pilot,2022.1.3,Win32,59.24170616,62c50e9c1127f2cd403a315f,,,,,,,,,,,,,,,,,,,,,,,,,,,,,,,,,,,,,,,,,,,,,,,,,,,,,,,,,,,,,,,,,,,,,,,,,,,,,,,,,,,,,,,,,,,,,,,,,,,,,,,,,,,,,,,,,,,,,,,,,,,,,,,,,,,,,,,,,,,,,,,,,,,,,,,,,,,,,,,,,,,
0,61,61,76,1,,60e758107f8031dce149e796,62c539f2bd5b409f94a2e560,2022-07-06_09h30.25.811,Colour_Asymmetry_Pilot,2022.1.3,Win32,59.24170616,62c50e9c1127f2cd403a315f,,,,,,,,,,,,,,,,,,,,,,,,,,,,,,,,,,,,,,,,,,,,,,,,,,,,,,,,,,,,,,,,,,,,,,,,,,,,,,,,,,,,,,,,,,,,,,,,,,,,,,,,,,,,,,,,,,,,,,,,,,,,,,,,,,,,,,,,,,,,,,,,,,,,,,,,,,,,,,,,,,,
0,62,62,48,1,,60e758107f8031dce149e796,62c539f2bd5b409f94a2e560,2022-07-06_09h30.25.811,Colour_Asymmetry_Pilot,2022.1.3,Win32,59.24170616,62c50e9c1127f2cd403a315f,,,,,,,,,,,,,,,,,,,,,,,,,,,,,,,,,,,,,,,,,,,,,,,,,,,,,,,,,,,,,,,,,,,,,,,,,,,,,,,,,,,,,,,,,,,,,,,,,,,,,,,,,,,,,,,,,,,,,,,,,,,,,,,,,,,,,,,,,,,,,,,,,,,,,,,,,,,,,,,,,,,
0,63,63,3,1,,60e758107f8031dce149e796,62c539f2bd5b409f94a2e560,2022-07-06_09h30.25.811,Colour_Asymmetry_Pilot,2022.1.3,Win32,59.24170616,62c50e9c1127f2cd403a315f,,,,,,,,,,,,,,,,,,,,,,,,,,,,,,,,,,,,,,,,,,,,,,,,,,,,,,,,,,,,,,,,,,,,,,,,,,,,,,,,,,,,,,,,,,,,,,,,,,,,,,,,,,,,,,,,,,,,,,,,,,,,,,,,,,,,,,,,,,,,,,,,,,,,,,,,,,,,,,,,,,,
0,64,64,86,1,,60e758107f8031dce149e796,62c539f2bd5b409f94a2e560,2022-07-06_09h30.25.811,Colour_Asymmetry_Pilot,2022.1.3,Win32,59.24170616,62c50e9c1127f2cd403a315f,,,,,,,,,,,,,,,,,,,,,,,,,,,,,,,,,,,,,,,,,,,,,,,,,,,,,,,,,,,,,,,,,,,,,,,,,,,,,,,,,,,,,,,,,,,,,,,,,,,,,,,,,,,,,,,,,,,,,,,,,,,,,,,,,,,,,,,,,,,,,,,,,,,,,,,,,,,,,,,,,,,
0,65,65,85,1,,60e758107f8031dce149e796,62c539f2bd5b409f94a2e560,2022-07-06_09h30.25.811,Colour_Asymmetry_Pilot,2022.1.3,Win32,59.24170616,62c50e9c1127f2cd403a315f,,,,,,,,,,,,,,,,,,,,,,,,,,,,,,,,,,,,,,,,,,,,,,,,,,,,,,,,,,,,,,,,,,,,,,,,,,,,,,,,,,,,,,,,,,,,,,,,,,,,,,,,,,,,,,,,,,,,,,,,,,,,,,,,,,,,,,,,,,,,,,,,,,,,,,,,,,,,,,,,,,,
0,66,66,67,1,,60e758107f8031dce149e796,62c539f2bd5b409f94a2e560,2022-07-06_09h30.25.811,Colour_Asymmetry_Pilot,2022.1.3,Win32,59.24170616,62c50e9c1127f2cd403a315f,,,,,,,,,,,,,,,,,,,,,,,,,,,,,,,,,,,,,,,,,,,,,,,,,,,,,,,,,,,,,,,,,,,,,,,,,,,,,,,,,,,,,,,,,,,,,,,,,,,,,,,,,,,,,,,,,,,,,,,,,,,,,,,,,,,,,,,,,,,,,,,,,,,,,,,,,,,,,,,,,,,
0,67,67,57,1,,60e758107f8031dce149e796,62c539f2bd5b409f94a2e560,2022-07-06_09h30.25.811,Colour_Asymmetry_Pilot,2022.1.3,Win32,59.24170616,62c50e9c1127f2cd403a315f,,,,,,,,,,,,,,,,,,,,,,,,,,,,,,,,,,,,,,,,,,,,,,,,,,,,,,,,,,,,,,,,,,,,,,,,,,,,,,,,,,,,,,,,,,,,,,,,,,,,,,,,,,,,,,,,,,,,,,,,,,,,,,,,,,,,,,,,,,,,,,,,,,,,,,,,,,,,,,,,,,,
0,68,68,47,1,,60e758107f8031dce149e796,62c539f2bd5b409f94a2e560,2022-07-06_09h30.25.811,Colour_Asymmetry_Pilot,2022.1.3,Win32,59.24170616,62c50e9c1127f2cd403a315f,,,,,,,,,,,,,,,,,,,,,,,,,,,,,,,,,,,,,,,,,,,,,,,,,,,,,,,,,,,,,,,,,,,,,,,,,,,,,,,,,,,,,,,,,,,,,,,,,,,,,,,,,,,,,,,,,,,,,,,,,,,,,,,,,,,,,,,,,,,,,,,,,,,,,,,,,,,,,,,,,,,
0,69,69,26,1,,60e758107f8031dce149e796,62c539f2bd5b409f94a2e560,2022-07-06_09h30.25.811,Colour_Asymmetry_Pilot,2022.1.3,Win32,59.24170616,62c50e9c1127f2cd403a315f,,,,,,,,,,,,,,,,,,,,,,,,,,,,,,,,,,,,,,,,,,,,,,,,,,,,,,,,,,,,,,,,,,,,,,,,,,,,,,,,,,,,,,,,,,,,,,,,,,,,,,,,,,,,,,,,,,,,,,,,,,,,,,,,,,,,,,,,,,,,,,,,,,,,,,,,,,,,,,,,,,,
0,70,70,22,1,,60e758107f8031dce149e796,62c539f2bd5b409f94a2e560,2022-07-06_09h30.25.811,Colour_Asymmetry_Pilot,2022.1.3,Win32,59.24170616,62c50e9c1127f2cd403a315f,,,,,,,,,,,,,,,,,,,,,,,,,,,,,,,,,,,,,,,,,,,,,,,,,,,,,,,,,,,,,,,,,,,,,,,,,,,,,,,,,,,,,,,,,,,,,,,,,,,,,,,,,,,,,,,,,,,,,,,,,,,,,,,,,,,,,,,,,,,,,,,,,,,,,,,,,,,,,,,,,,,
0,71,71,83,1,,60e758107f8031dce149e796,62c539f2bd5b409f94a2e560,2022-07-06_09h30.25.811,Colour_Asymmetry_Pilot,2022.1.3,Win32,59.24170616,62c50e9c1127f2cd403a315f,,,,,,,,,,,,,,,,,,,,,,,,,,,,,,,,,,,,,,,,,,,,,,,,,,,,,,,,,,,,,,,,,,,,,,,,,,,,,,,,,,,,,,,,,,,,,,,,,,,,,,,,,,,,,,,,,,,,,,,,,,,,,,,,,,,,,,,,,,,,,,,,,,,,,,,,,,,,,,,,,,,
0,72,72,39,1,,60e758107f8031dce149e796,62c539f2bd5b409f94a2e560,2022-07-06_09h30.25.811,Colour_Asymmetry_Pilot,2022.1.3,Win32,59.24170616,62c50e9c1127f2cd403a315f,,,,,,,,,,,,,,,,,,,,,,,,,,,,,,,,,,,,,,,,,,,,,,,,,,,,,,,,,,,,,,,,,,,,,,,,,,,,,,,,,,,,,,,,,,,,,,,,,,,,,,,,,,,,,,,,,,,,,,,,,,,,,,,,,,,,,,,,,,,,,,,,,,,,,,,,,,,,,,,,,,,
0,73,73,59,1,,60e758107f8031dce149e796,62c539f2bd5b409f94a2e560,2022-07-06_09h30.25.811,Colour_Asymmetry_Pilot,2022.1.3,Win32,59.24170616,62c50e9c1127f2cd403a315f,,,,,,,,,,,,,,,,,,,,,,,,,,,,,,,,,,,,,,,,,,,,,,,,,,,,,,,,,,,,,,,,,,,,,,,,,,,,,,,,,,,,,,,,,,,,,,,,,,,,,,,,,,,,,,,,,,,,,,,,,,,,,,,,,,,,,,,,,,,,,,,,,,,,,,,,,,,,,,,,,,,
0,74,74,28,1,,60e758107f8031dce149e796,62c539f2bd5b409f94a2e560,2022-07-06_09h30.25.811,Colour_Asymmetry_Pilot,2022.1.3,Win32,59.24170616,62c50e9c1127f2cd403a315f,,,,,,,,,,,,,,,,,,,,,,,,,,,,,,,,,,,,,,,,,,,,,,,,,,,,,,,,,,,,,,,,,,,,,,,,,,,,,,,,,,,,,,,,,,,,,,,,,,,,,,,,,,,,,,,,,,,,,,,,,,,,,,,,,,,,,,,,,,,,,,,,,,,,,,,,,,,,,,,,,,,
0,75,75,2,1,,60e758107f8031dce149e796,62c539f2bd5b409f94a2e560,2022-07-06_09h30.25.811,Colour_Asymmetry_Pilot,2022.1.3,Win32,59.24170616,62c50e9c1127f2cd403a315f,,,,,,,,,,,,,,,,,,,,,,,,,,,,,,,,,,,,,,,,,,,,,,,,,,,,,,,,,,,,,,,,,,,,,,,,,,,,,,,,,,,,,,,,,,,,,,,,,,,,,,,,,,,,,,,,,,,,,,,,,,,,,,,,,,,,,,,,,,,,,,,,,,,,,,,,,,,,,,,,,,,
0,76,76,52,1,,60e758107f8031dce149e796,62c539f2bd5b409f94a2e560,2022-07-06_09h30.25.811,Colour_Asymmetry_Pilot,2022.1.3,Win32,59.24170616,62c50e9c1127f2cd403a315f,,,,,,,,,,,,,,,,,,,,,,,,,,,,,,,,,,,,,,,,,,,,,,,,,,,,,,,,,,,,,,,,,,,,,,,,,,,,,,,,,,,,,,,,,,,,,,,,,,,,,,,,,,,,,,,,,,,,,,,,,,,,,,,,,,,,,,,,,,,,,,,,,,,,,,,,,,,,,,,,,,,
0,77,77,11,1,,60e758107f8031dce149e796,62c539f2bd5b409f94a2e560,2022-07-06_09h30.25.811,Colour_Asymmetry_Pilot,2022.1.3,Win32,59.24170616,62c50e9c1127f2cd403a315f,,,,,,,,,,,,,,,,,,,,,,,,,,,,,,,,,,,,,,,,,,,,,,,,,,,,,,,,,,,,,,,,,,,,,,,,,,,,,,,,,,,,,,,,,,,,,,,,,,,,,,,,,,,,,,,,,,,,,,,,,,,,,,,,,,,,,,,,,,,,,,,,,,,,,,,,,,,,,,,,,,,
0,78,78,79,1,,60e758107f8031dce149e796,62c539f2bd5b409f94a2e560,2022-07-06_09h30.25.811,Colour_Asymmetry_Pilot,2022.1.3,Win32,59.24170616,62c50e9c1127f2cd403a315f,,,,,,,,,,,,,,,,,,,,,,,,,,,,,,,,,,,,,,,,,,,,,,,,,,,,,,,,,,,,,,,,,,,,,,,,,,,,,,,,,,,,,,,,,,,,,,,,,,,,,,,,,,,,,,,,,,,,,,,,,,,,,,,,,,,,,,,,,,,,,,,,,,,,,,,,,,,,,,,,,,,
0,79,79,41,1,,60e758107f8031dce149e796,62c539f2bd5b409f94a2e560,2022-07-06_09h30.25.811,Colour_Asymmetry_Pilot,2022.1.3,Win32,59.24170616,62c50e9c1127f2cd403a315f,,,,,,,,,,,,,,,,,,,,,,,,,,,,,,,,,,,,,,,,,,,,,,,,,,,,,,,,,,,,,,,,,,,,,,,,,,,,,,,,,,,,,,,,,,,,,,,,,,,,,,,,,,,,,,,,,,,,,,,,,,,,,,,,,,,,,,,,,,,,,,,,,,,,,,,,,,,,,,,,,,,
0,80,80,81,1,,60e758107f8031dce149e796,62c539f2bd5b409f94a2e560,2022-07-06_09h30.25.811,Colour_Asymmetry_Pilot,2022.1.3,Win32,59.24170616,62c50e9c1127f2cd403a315f,,,,,,,,,,,,,,,,,,,,,,,,,,,,,,,,,,,,,,,,,,,,,,,,,,,,,,,,,,,,,,,,,,,,,,,,,,,,,,,,,,,,,,,,,,,,,,,,,,,,,,,,,,,,,,,,,,,,,,,,,,,,,,,,,,,,,,,,,,,,,,,,,,,,,,,,,,,,,,,,,,,
0,81,81,9,1,,60e758107f8031dce149e796,62c539f2bd5b409f94a2e560,2022-07-06_09h30.25.811,Colour_Asymmetry_Pilot,2022.1.3,Win32,59.24170616,62c50e9c1127f2cd403a315f,,,,,,,,,,,,,,,,,,,,,,,,,,,,,,,,,,,,,,,,,,,,,,,,,,,,,,,,,,,,,,,,,,,,,,,,,,,,,,,,,,,,,,,,,,,,,,,,,,,,,,,,,,,,,,,,,,,,,,,,,,,,,,,,,,,,,,,,,,,,,,,,,,,,,,,,,,,,,,,,,,,
0,82,82,21,1,,60e758107f8031dce149e796,62c539f2bd5b409f94a2e560,2022-07-06_09h30.25.811,Colour_Asymmetry_Pilot,2022.1.3,Win32,59.24170616,62c50e9c1127f2cd403a315f,,,,,,,,,,,,,,,,,,,,,,,,,,,,,,,,,,,,,,,,,,,,,,,,,,,,,,,,,,,,,,,,,,,,,,,,,,,,,,,,,,,,,,,,,,,,,,,,,,,,,,,,,,,,,,,,,,,,,,,,,,,,,,,,,,,,,,,,,,,,,,,,,,,,,,,,,,,,,,,,,,,
0,83,83,46,1,,60e758107f8031dce149e796,62c539f2bd5b409f94a2e560,2022-07-06_09h30.25.811,Colour_Asymmetry_Pilot,2022.1.3,Win32,59.24170616,62c50e9c1127f2cd403a315f,,,,,,,,,,,,,,,,,,,,,,,,,,,,,,,,,,,,,,,,,,,,,,,,,,,,,,,,,,,,,,,,,,,,,,,,,,,,,,,,,,,,,,,,,,,,,,,,,,,,,,,,,,,,,,,,,,,,,,,,,,,,,,,,,,,,,,,,,,,,,,,,,,,,,,,,,,,,,,,,,,,
0,84,84,58,1,,60e758107f8031dce149e796,62c539f2bd5b409f94a2e560,2022-07-06_09h30.25.811,Colour_Asymmetry_Pilot,2022.1.3,Win32,59.24170616,62c50e9c1127f2cd403a315f,,,,,,,,,,,,,,,,,,,,,,,,,,,,,,,,,,,,,,,,,,,,,,,,,,,,,,,,,,,,,,,,,,,,,,,,,,,,,,,,,,,,,,,,,,,,,,,,,,,,,,,,,,,,,,,,,,,,,,,,,,,,,,,,,,,,,,,,,,,,,,,,,,,,,,,,,,,,,,,,,,,
0,85,85,66,1,,60e758107f8031dce149e796,62c539f2bd5b409f94a2e560,2022-07-06_09h30.25.811,Colour_Asymmetry_Pilot,2022.1.3,Win32,59.24170616,62c50e9c1127f2cd403a315f,,,,,,,,,,,,,,,,,,,,,,,,,,,,,,,,,,,,,,,,,,,,,,,,,,,,,,,,,,,,,,,,,,,,,,,,,,,,,,,,,,,,,,,,,,,,,,,,,,,,,,,,,,,,,,,,,,,,,,,,,,,,,,,,,,,,,,,,,,,,,,,,,,,,,,,,,,,,,,,,,,,
0,86,86,33,1,,60e758107f8031dce149e796,62c539f2bd5b409f94a2e560,2022-07-06_09h30.25.811,Colour_Asymmetry_Pilot,2022.1.3,Win32,59.24170616,62c50e9c1127f2cd403a315f,,,,,,,,,,,,,,,,,,,,,,,,,,,,,,,,,,,,,,,,,,,,,,,,,,,,,,,,,,,,,,,,,,,,,,,,,,,,,,,,,,,,,,,,,,,,,,,,,,,,,,,,,,,,,,,,,,,,,,,,,,,,,,,,,,,,,,,,,,,,,,,,,,,,,,,,,,,,,,,,,,,
0,87,87,62,1,,60e758107f8031dce149e796,62c539f2bd5b409f94a2e560,2022-07-06_09h30.25.811,Colour_Asymmetry_Pilot,2022.1.3,Win32,59.24170616,62c50e9c1127f2cd403a315f,,,,,,,,,,,,,,,,,,,,,,,,,,,,,,,,,,,,,,,,,,,,,,,,,,,,,,,,,,,,,,,,,,,,,,,,,,,,,,,,,,,,,,,,,,,,,,,,,,,,,,,,,,,,,,,,,,,,,,,,,,,,,,,,,,,,,,,,,,,,,,,,,,,,,,,,,,,,,,,,,,,
0,88,88,6,1,,60e758107f8031dce149e796,62c539f2bd5b409f94a2e560,2022-07-06_09h30.25.811,Colour_Asymmetry_Pilot,2022.1.3,Win32,59.24170616,62c50e9c1127f2cd403a315f,,,,,,,,,,,,,,,,,,,,,,,,,,,,,,,,,,,,,,,,,,,,,,,,,,,,,,,,,,,,,,,,,,,,,,,,,,,,,,,,,,,,,,,,,,,,,,,,,,,,,,,,,,,,,,,,,,,,,,,,,,,,,,,,,,,,,,,,,,,,,,,,,,,,,,,,,,,,,,,,,,,
0,89,89,34,1,,60e758107f8031dce149e796,62c539f2bd5b409f94a2e560,2022-07-06_09h30.25.811,Colour_Asymmetry_Pilot,2022.1.3,Win32,59.24170616,62c50e9c1127f2cd403a315f,,,,,,,,,,,,,,,,,,,,,,,,,,,,,,,,,,,,,,,,,,,,,,,,,,,,,,,,,,,,,,,,,,,,,,,,,,,,,,,,,,,,,,,,,,,,,,,,,,,,,,,,,,,,,,,,,,,,,,,,,,,,,,,,,,,,,,,,,,,,,,,,,,,,,,,,,,,,,,,,,,,
0,90,90,55,1,,60e758107f8031dce149e796,62c539f2bd5b409f94a2e560,2022-07-06_09h30.25.811,Colour_Asymmetry_Pilot,2022.1.3,Win32,59.24170616,62c50e9c1127f2cd403a315f,,,,,,,,,,,,,,,,,,,,,,,,,,,,,,,,,,,,,,,,,,,,,,,,,,,,,,,,,,,,,,,,,,,,,,,,,,,,,,,,,,,,,,,,,,,,,,,,,,,,,,,,,,,,,,,,,,,,,,,,,,,,,,,,,,,,,,,,,,,,,,,,,,,,,,,,,,,,,,,,,,,
0,91,91,74,1,,60e758107f8031dce149e796,62c539f2bd5b409f94a2e560,2022-07-06_09h30.25.811,Colour_Asymmetry_Pilot,2022.1.3,Win32,59.24170616,62c50e9c1127f2cd403a315f,,,,,,,,,,,,,,,,,,,,,,,,,,,,,,,,,,,,,,,,,,,,,,,,,,,,,,,,,,,,,,,,,,,,,,,,,,,,,,,,,,,,,,,,,,,,,,,,,,,,,,,,,,,,,,,,,,,,,,,,,,,,,,,,,,,,,,,,,,,,,,,,,,,,,,,,,,,,,,,,,,,
0,92,92,53,1,,60e758107f8031dce149e796,62c539f2bd5b409f94a2e560,2022-07-06_09h30.25.811,Colour_Asymmetry_Pilot,2022.1.3,Win32,59.24170616,62c50e9c1127f2cd403a315f,,,,,,,,,,,,,,,,,,,,,,,,,,,,,,,,,,,,,,,,,,,,,,,,,,,,,,,,,,,,,,,,,,,,,,,,,,,,,,,,,,,,,,,,,,,,,,,,,,,,,,,,,,,,,,,,,,,,,,,,,,,,,,,,,,,,,,,,,,,,,,,,,,,,,,,,,,,,,,,,,,,
,,,,,,60e758107f8031dce149e796,62c539f2bd5b409f94a2e560,2022-07-06_09h30.25.811,Colour_Asymmetry_Pilot,2022.1.3,Win32,59.24170616,62c50e9c1127f2cd403a315f,0,0,0,15,1,fourthree,,,,,,,,,,,,,,,,,,,,,,,,,,,,,,,,,,,,,,,,,,,,,,,,,,,,,,,,,,,,,,,,,,,,,,,,,,,,,,,,,,,,,,,,,,,,,,,,,,,,,,,,,,,,,,,,,,,,,,,,,,,,,,,,,,,,,,,,,,,,,,,,,,,,,,,,,,,,,
,,,,,,60e758107f8031dce149e796,62c539f2bd5b409f94a2e560,2022-07-06_09h30.25.811,Colour_Asymmetry_Pilot,2022.1.3,Win32,59.24170616,62c50e9c1127f2cd403a315f,0,1,1,42,1,twoone,,,,,,,,,,,,,,,,,,,,,,,,,,,,,,,,,,,,,,,,,,,,,,,,,,,,,,,,,,,,,,,,,,,,,,,,,,,,,,,,,,,,,,,,,,,,,,,,,,,,,,,,,,,,,,,,,,,,,,,,,,,,,,,,,,,,,,,,,,,,,,,,,,,,,,,,,,,,,
,,,,,,60e758107f8031dce149e796,62c539f2bd5b409f94a2e560,2022-07-06_09h30.25.811,Colour_Asymmetry_Pilot,2022.1.3,Win32,59.24170616,62c50e9c1127f2cd403a315f,0,2,2,51,1,twofour,,,,,,,,,,,,,,,,,,,,,,,,,,,,,,,,,,,,,,,,,,,,,,,,,,,,,,,,,,,,,,,,,,,,,,,,,,,,,,,,,,,,,,,,,,,,,,,,,,,,,,,,,,,,,,,,,,,,,,,,,,,,,,,,,,,,,,,,,,,,,,,,,,,,,,,,,,,,,
,,,,,,60e758107f8031dce149e796,62c539f2bd5b409f94a2e560,2022-07-06_09h30.25.811,Colour_Asymmetry_Pilot,2022.1.3,Win32,59.24170616,62c50e9c1127f2cd403a315f,0,3,3,65,1,onethree,,,,,,,,,,,,,,,,,,,,,,,,,,,,,,,,,,,,,,,,,,,,,,,,,,,,,,,,,,,,,,,,,,,,,,,,,,,,,,,,,,,,,,,,,,,,,,,,,,,,,,,,,,,,,,,,,,,,,,,,,,,,,,,,,,,,,,,,,,,,,,,,,,,,,,,,,,,,,
,,,,,,60e758107f8031dce149e796,62c539f2bd5b409f94a2e560,2022-07-06_09h30.25.811,Colour_Asymmetry_Pilot,2022.1.3,Win32,59.24170616,62c50e9c1127f2cd403a315f,0,4,4,98,1,twoone,,,,,,,,,,,,,,,,,,,,,,,,,,,,,,,,,,,,,,,,,,,,,,,,,,,,,,,,,,,,,,,,,,,,,,,,,,,,,,,,,,,,,,,,,,,,,,,,,,,,,,,,,,,,,,,,,,,,,,,,,,,,,,,,,,,,,,,,,,,,,,,,,,,,,,,,,,,,,
,,,,,,60e758107f8031dce149e796,62c539f2bd5b409f94a2e560,2022-07-06_09h30.25.811,Colour_Asymmetry_Pilot,2022.1.3,Win32,59.24170616,62c50e9c1127f2cd403a315f,0,5,5,14,1,fourtwo,,,,,,,,,,,,,,,,,,,,,,,,,,,,,,,,,,,,,,,,,,,,,,,,,,,,,,,,,,,,,,,,,,,,,,,,,,,,,,,,,,,,,,,,,,,,,,,,,,,,,,,,,,,,,,,,,,,,,,,,,,,,,,,,,,,,,,,,,,,,,,,,,,,,,,,,,,,,,
,,,,,,60e758107f8031dce149e796,62c539f2bd5b409f94a2e560,2022-07-06_09h30.25.811,Colour_Asymmetry_Pilot,2022.1.3,Win32,59.24170616,62c50e9c1127f2cd403a315f,0,6,6,137,1,onethree,,,,,,,,,,,,,,,,,,,,,,,,,,,,,,,,,,,,,,,,,,,,,,,,,,,,,,,,,,,,,,,,,,,,,,,,,,,,,,,,,,,,,,,,,,,,,,,,,,,,,,,,,,,,,,,,,,,,,,,,,,,,,,,,,,,,,,,,,,,,,,,,,,,,,,,,,,,,,
,,,,,,60e758107f8031dce149e796,62c539f2bd5b409f94a2e560,2022-07-06_09h30.25.811,Colour_Asymmetry_Pilot,2022.1.3,Win32,59.24170616,62c50e9c1127f2cd403a315f,0,7,7,27,1,twofour,,,,,,,,,,,,,,,,,,,,,,,,,,,,,,,,,,,,,,,,,,,,,,,,,,,,,,,,,,,,,,,,,,,,,,,,,,,,,,,,,,,,,,,,,,,,,,,,,,,,,,,,,,,,,,,,,,,,,,,,,,,,,,,,,,,,,,,,,,,,,,,,,,,,,,,,,,,,,
,,,,,,60e758107f8031dce149e796,62c539f2bd5b409f94a2e560,2022-07-06_09h30.25.811,Colour_Asymmetry_Pilot,2022.1.3,Win32,59.24170616,62c50e9c1127f2cd403a315f,0,8,8,128,1,onetwo,,,,,,,,,,,,,,,,,,,,,,,,,,,,,,,,,,,,,,,,,,,,,,,,,,,,,,,,,,,,,,,,,,,,,,,,,,,,,,,,,,,,,,,,,,,,,,,,,,,,,,,,,,,,,,,,,,,,,,,,,,,,,,,,,,,,,,,,,,,,,,,,,,,,,,,,,,,,,
,,,,,,60e758107f8031dce149e796,62c539f2bd5b409f94a2e560,2022-07-06_09h30.25.811,Colour_Asymmetry_Pilot,2022.1.3,Win32,59.24170616,62c50e9c1127f2cd403a315f,0,9,9,90,1,twoone,,,,,,,,,,,,,,,,,,,,,,,,,,,,,,,,,,,,,,,,,,,,,,,,,,,,,,,,,,,,,,,,,,,,,,,,,,,,,,,,,,,,,,,,,,,,,,,,,,,,,,,,,,,,,,,,,,,,,,,,,,,,,,,,,,,,,,,,,,,,,,,,,,,,,,,,,,,,,
,,,,,,60e758107f8031dce149e796,62c539f2bd5b409f94a2e560,2022-07-06_09h30.25.811,Colour_Asymmetry_Pilot,2022.1.3,Win32,59.24170616,62c50e9c1127f2cd403a315f,0,10,10,45,1,threefour,,,,,,,,,,,,,,,,,,,,,,,,,,,,,,,,,,,,,,,,,,,,,,,,,,,,,,,,,,,,,,,,,,,,,,,,,,,,,,,,,,,,,,,,,,,,,,,,,,,,,,,,,,,,,,,,,,,,,,,,,,,,,,,,,,,,,,,,,,,,,,,,,,,,,,,,,,,,,
,,,,,,60e758107f8031dce149e796,62c539f2bd5b409f94a2e560,2022-07-06_09h30.25.811,Colour_Asymmetry_Pilot,2022.1.3,Win32,59.24170616,62c50e9c1127f2cd403a315f,0,11,11,156,1,threeone,,,,,,,,,,,,,,,,,,,,,,,,,,,,,,,,,,,,,,,,,,,,,,,,,,,,,,,,,,,,,,,,,,,,,,,,,,,,,,,,,,,,,,,,,,,,,,,,,,,,,,,,,,,,,,,,,,,,,,,,,,,,,,,,,,,,,,,,,,,,,,,,,,,,,,,,,,,,,
,,,,,,60e758107f8031dce149e796,62c539f2bd5b409f94a2e560,2022-07-06_09h30.25.811,Colour_Asymmetry_Pilot,2022.1.3,Win32,59.24170616,62c50e9c1127f2cd403a315f,0,12,12,20,1,threeone,,,,,,,,,,,,,,,,,,,,,,,,,,,,,,,,,,,,,,,,,,,,,,,,,,,,,,,,,,,,,,,,,,,,,,,,,,,,,,,,,,,,,,,,,,,,,,,,,,,,,,,,,,,,,,,,,,,,,,,,,,,,,,,,,,,,,,,,,,,,,,,,,,,,,,,,,,,,,
,,,,,,60e758107f8031dce149e796,62c539f2bd5b409f94a2e560,2022-07-06_09h30.25.811,Colour_Asymmetry_Pilot,2022.1.3,Win32,59.24170616,62c50e9c1127f2cd403a315f,0,13,13,153,1,onethree,,,,,,,,,,,,,,,,,,,,,,,,,,,,,,,,,,,,,,,,,,,,,,,,,,,,,,,,,,,,,,,,,,,,,,,,,,,,,,,,,,,,,,,,,,,,,,,,,,,,,,,,,,,,,,,,,,,,,,,,,,,,,,,,,,,,,,,,,,,,,,,,,,,,,,,,,,,,,
,,,,,,60e758107f8031dce149e796,62c539f2bd5b409f94a2e560,2022-07-06_09h30.25.811,Colour_Asymmetry_Pilot,2022.1.3,Win32,59.24170616,62c50e9c1127f2cd403a315f,0,14,14,119,1,fourthree,,,,,,,,,,,,,,,,,,,,,,,,,,,,,,,,,,,,,,,,,,,,,,,,,,,,,,,,,,,,,,,,,,,,,,,,,,,,,,,,,,,,,,,,,,,,,,,,,,,,,,,,,,,,,,,,,,,,,,,,,,,,,,,,,,,,,,,,,,,,,,,,,,,,,,,,,,,,,
,,,,,,60e758107f8031dce149e796,62c539f2bd5b409f94a2e560,2022-07-06_09h30.25.811,Colour_Asymmetry_Pilot,2022.1.3,Win32,59.24170616,62c50e9c1127f2cd403a315f,0,15,15,60,1,threeone,,,,,,,,,,,,,,,,,,,,,,,,,,,,,,,,,,,,,,,,,,,,,,,,,,,,,,,,,,,,,,,,,,,,,,,,,,,,,,,,,,,,,,,,,,,,,,,,,,,,,,,,,,,,,,,,,,,,,,,,,,,,,,,,,,,,,,,,,,,,,,,,,,,,,,,,,,,,,
,,,,,,60e758107f8031dce149e796,62c539f2bd5b409f94a2e560,2022-07-06_09h30.25.811,Colour_Asymmetry_Pilot,2022.1.3,Win32,59.24170616,62c50e9c1127f2cd403a315f,0,16,16,63,1,fourthree,,,,,,,,,,,,,,,,,,,,,,,,,,,,,,,,,,,,,,,,,,,,,,,,,,,,,,,,,,,,,,,,,,,,,,,,,,,,,,,,,,,,,,,,,,,,,,,,,,,,,,,,,,,,,,,,,,,,,,,,,,,,,,,,,,,,,,,,,,,,,,,,,,,,,,,,,,,,,
,,,,,,60e758107f8031dce149e796,62c539f2bd5b409f94a2e560,2022-07-06_09h30.25.811,Colour_Asymmetry_Pilot,2022.1.3,Win32,59.24170616,62c50e9c1127f2cd403a315f,0,17,17,80,1,onetwo,,,,,,,,,,,,,,,,,,,,,,,,,,,,,,,,,,,,,,,,,,,,,,,,,,,,,,,,,,,,,,,,,,,,,,,,,,,,,,,,,,,,,,,,,,,,,,,,,,,,,,,,,,,,,,,,,,,,,,,,,,,,,,,,,,,,,,,,,,,,,,,,,,,,,,,,,,,,,
,,,,,,60e758107f8031dce149e796,62c539f2bd5b409f94a2e560,2022-07-06_09h30.25.811,Colour_Asymmetry_Pilot,2022.1.3,Win32,59.24170616,62c50e9c1127f2cd403a315f,0,18,18,72,1,onetwo,,,,,,,,,,,,,,,,,,,,,,,,,,,,,,,,,,,,,,,,,,,,,,,,,,,,,,,,,,,,,,,,,,,,,,,,,,,,,,,,,,,,,,,,,,,,,,,,,,,,,,,,,,,,,,,,,,,,,,,,,,,,,,,,,,,,,,,,,,,,,,,,,,,,,,,,,,,,,
,,,,,,60e758107f8031dce149e796,62c539f2bd5b409f94a2e560,2022-07-06_09h30.25.811,Colour_Asymmetry_Pilot,2022.1.3,Win32,59.24170616,62c50e9c1127f2cd403a315f,0,19,19,118,1,fourtwo,,,,,,,,,,,,,,,,,,,,,,,,,,,,,,,,,,,,,,,,,,,,,,,,,,,,,,,,,,,,,,,,,,,,,,,,,,,,,,,,,,,,,,,,,,,,,,,,,,,,,,,,,,,,,,,,,,,,,,,,,,,,,,,,,,,,,,,,,,,,,,,,,,,,,,,,,,,,,
,,,,,,60e758107f8031dce149e796,62c539f2bd5b409f94a2e560,2022-07-06_09h30.25.811,Colour_Asymmetry_Pilot,2022.1.3,Win32,59.24170616,62c50e9c1127f2cd403a315f,0,20,20,28,1,threeone,,,,,,,,,,,,,,,,,,,,,,,,,,,,,,,,,,,,,,,,,,,,,,,,,,,,,,,,,,,,,,,,,,,,,,,,,,,,,,,,,,,,,,,,,,,,,,,,,,,,,,,,,,,,,,,,,,,,,,,,,,,,,,,,,,,,,,,,,,,,,,,,,,,,,,,,,,,,,
,,,,,,60e758107f8031dce149e796,62c539f2bd5b409f94a2e560,2022-07-06_09h30.25.811,Colour_Asymmetry_Pilot,2022.1.3,Win32,59.24170616,62c50e9c1127f2cd403a315f,0,21,21,91,1,twofour,,,,,,,,,,,,,,,,,,,,,,,,,,,,,,,,,,,,,,,,,,,,,,,,,,,,,,,,,,,,,,,,,,,,,,,,,,,,,,,,,,,,,,,,,,,,,,,,,,,,,,,,,,,,,,,,,,,,,,,,,,,,,,,,,,,,,,,,,,,,,,,,,,,,,,,,,,,,,
,,,,,,60e758107f8031dce149e796,62c539f2bd5b409f94a2e560,2022-07-06_09h30.25.811,Colour_Asymmetry_Pilot,2022.1.3,Win32,59.24170616,62c50e9c1127f2cd403a315f,0,22,22,120,1,onetwo,,,,,,,,,,,,,,,,,,,,,,,,,,,,,,,,,,,,,,,,,,,,,,,,,,,,,,,,,,,,,,,,,,,,,,,,,,,,,,,,,,,,,,,,,,,,,,,,,,,,,,,,,,,,,,,,,,,,,,,,,,,,,,,,,,,,,,,,,,,,,,,,,,,,,,,,,,,,,
,,,,,,60e758107f8031dce149e796,62c539f2bd5b409f94a2e560,2022-07-06_09h30.25.811,Colour_Asymmetry_Pilot,2022.1.3,Win32,59.24170616,62c50e9c1127f2cd403a315f,0,23,23,1,1,onethree,,,,,,,,,,,,,,,,,,,,,,,,,,,,,,,,,,,,,,,,,,,,,,,,,,,,,,,,,,,,,,,,,,,,,,,,,,,,,,,,,,,,,,,,,,,,,,,,,,,,,,,,,,,,,,,,,,,,,,,,,,,,,,,,,,,,,,,,,,,,,,,,,,,,,,,,,,,,,
,,,,,,60e758107f8031dce149e796,62c539f2bd5b409f94a2e560,2022-07-06_09h30.25.811,Colour_Asymmetry_Pilot,2022.1.3,Win32,59.24170616,62c50e9c1127f2cd403a315f,0,24,24,100,1,threeone,,,,,,,,,,,,,,,,,,,,,,,,,,,,,,,,,,,,,,,,,,,,,,,,,,,,,,,,,,,,,,,,,,,,,,,,,,,,,,,,,,,,,,,,,,,,,,,,,,,,,,,,,,,,,,,,,,,,,,,,,,,,,,,,,,,,,,,,,,,,,,,,,,,,,,,,,,,,,
,,,,,,60e758107f8031dce149e796,62c539f2bd5b409f94a2e560,2022-07-06_09h30.25.811,Colour_Asymmetry_Pilot,2022.1.3,Win32,59.24170616,62c50e9c1127f2cd403a315f,0,25,25,44,1,threeone,,,,,,,,,,,,,,,,,,,,,,,,,,,,,,,,,,,,,,,,,,,,,,,,,,,,,,,,,,,,,,,,,,,,,,,,,,,,,,,,,,,,,,,,,,,,,,,,,,,,,,,,,,,,,,,,,,,,,,,,,,,,,,,,,,,,,,,,,,,,,,,,,,,,,,,,,,,,,
,,,,,,60e758107f8031dce149e796,62c539f2bd5b409f94a2e560,2022-07-06_09h30.25.811,Colour_Asymmetry_Pilot,2022.1.3,Win32,59.24170616,62c50e9c1127f2cd403a315f,0,26,26,18,1,twoone,,,,,,,,,,,,,,,,,,,,,,,,,,,,,,,,,,,,,,,,,,,,,,,,,,,,,,,,,,,,,,,,,,,,,,,,,,,,,,,,,,,,,,,,,,,,,,,,,,,,,,,,,,,,,,,,,,,,,,,,,,,,,,,,,,,,,,,,,,,,,,,,,,,,,,,,,,,,,
,,,,,,60e758107f8031dce149e796,62c539f2bd5b409f94a2e560,2022-07-06_09h30.25.811,Colour_Asymmetry_Pilot,2022.1.3,Win32,59.24170616,62c50e9c1127f2cd403a315f,0,27,27,69,1,threefour,,,,,,,,,,,,,,,,,,,,,,,,,,,,,,,,,,,,,,,,,,,,,,,,,,,,,,,,,,,,,,,,,,,,,,,,,,,,,,,,,,,,,,,,,,,,,,,,,,,,,,,,,,,,,,,,,,,,,,,,,,,,,,,,,,,,,,,,,,,,,,,,,,,,,,,,,,,,,
,,,,,,60e758107f8031dce149e796,62c539f2bd5b409f94a2e560,2022-07-06_09h30.25.811,Colour_Asymmetry_Pilot,2022.1.3,Win32,59.24170616,62c50e9c1127f2cd403a315f,0,28,28,111,1,fourthree,,,,,,,,,,,,,,,,,,,,,,,,,,,,,,,,,,,,,,,,,,,,,,,,,,,,,,,,,,,,,,,,,,,,,,,,,,,,,,,,,,,,,,,,,,,,,,,,,,,,,,,,,,,,,,,,,,,,,,,,,,,,,,,,,,,,,,,,,,,,,,,,,,,,,,,,,,,,,
,,,,,,60e758107f8031dce149e796,62c539f2bd5b409f94a2e560,2022-07-06_09h30.25.811,Colour_Asymmetry_Pilot,2022.1.3,Win32,59.24170616,62c50e9c1127f2cd403a315f,0,29,29,0,1,onetwo,,,,,,,,,,,,,,,,,,,,,,,,,,,,,,,,,,,,,,,,,,,,,,,,,,,,,,,,,,,,,,,,,,,,,,,,,,,,,,,,,,,,,,,,,,,,,,,,,,,,,,,,,,,,,,,,,,,,,,,,,,,,,,,,,,,,,,,,,,,,,,,,,,,,,,,,,,,,,
,,,,,,60e758107f8031dce149e796,62c539f2bd5b409f94a2e560,2022-07-06_09h30.25.811,Colour_Asymmetry_Pilot,2022.1.3,Win32,59.24170616,62c50e9c1127f2cd403a315f,0,30,30,127,1,fourthree,,,,,,,,,,,,,,,,,,,,,,,,,,,,,,,,,,,,,,,,,,,,,,,,,,,,,,,,,,,,,,,,,,,,,,,,,,,,,,,,,,,,,,,,,,,,,,,,,,,,,,,,,,,,,,,,,,,,,,,,,,,,,,,,,,,,,,,,,,,,,,,,,,,,,,,,,,,,,
,,,,,,60e758107f8031dce149e796,62c539f2bd5b409f94a2e560,2022-07-06_09h30.25.811,Colour_Asymmetry_Pilot,2022.1.3,Win32,59.24170616,62c50e9c1127f2cd403a315f,0,31,31,76,1,threeone,,,,,,,,,,,,,,,,,,,,,,,,,,,,,,,,,,,,,,,,,,,,,,,,,,,,,,,,,,,,,,,,,,,,,,,,,,,,,,,,,,,,,,,,,,,,,,,,,,,,,,,,,,,,,,,,,,,,,,,,,,,,,,,,,,,,,,,,,,,,,,,,,,,,,,,,,,,,,
,,,,,,60e758107f8031dce149e796,62c539f2bd5b409f94a2e560,2022-07-06_09h30.25.811,Colour_Asymmetry_Pilot,2022.1.3,Win32,59.24170616,62c50e9c1127f2cd403a315f,0,32,32,121,1,onethree,,,,,,,,,,,,,,,,,,,,,,,,,,,,,,,,,,,,,,,,,,,,,,,,,,,,,,,,,,,,,,,,,,,,,,,,,,,,,,,,,,,,,,,,,,,,,,,,,,,,,,,,,,,,,,,,,,,,,,,,,,,,,,,,,,,,,,,,,,,,,,,,,,,,,,,,,,,,,
,,,,,,60e758107f8031dce149e796,62c539f2bd5b409f94a2e560,2022-07-06_09h30.25.811,Colour_Asymmetry_Pilot,2022.1.3,Win32,59.24170616,62c50e9c1127f2cd403a315f,0,33,33,71,1,fourthree,,,,,,,,,,,,,,,,,,,,,,,,,,,,,,,,,,,,,,,,,,,,,,,,,,,,,,,,,,,,,,,,,,,,,,,,,,,,,,,,,,,,,,,,,,,,,,,,,,,,,,,,,,,,,,,,,,,,,,,,,,,,,,,,,,,,,,,,,,,,,,,,,,,,,,,,,,,,,
,,,,,,60e758107f8031dce149e796,62c539f2bd5b409f94a2e560,2022-07-06_09h30.25.811,Colour_Asymmetry_Pilot,2022.1.3,Win32,59.24170616,62c50e9c1127f2cd403a315f,0,34,34,4,1,threeone,,,,,,,,,,,,,,,,,,,,,,,,,,,,,,,,,,,,,,,,,,,,,,,,,,,,,,,,,,,,,,,,,,,,,,,,,,,,,,,,,,,,,,,,,,,,,,,,,,,,,,,,,,,,,,,,,,,,,,,,,,,,,,,,,,,,,,,,,,,,,,,,,,,,,,,,,,,,,
,,,,,,60e758107f8031dce149e796,62c539f2bd5b409f94a2e560,2022-07-06_09h30.25.811,Colour_Asymmetry_Pilot,2022.1.3,Win32,59.24170616,62c50e9c1127f2cd403a315f,0,35,35,139,1,twofour,,,,,,,,,,,,,,,,,,,,,,,,,,,,,,,,,,,,,,,,,,,,,,,,,,,,,,,,,,,,,,,,,,,,,,,,,,,,,,,,,,,,,,,,,,,,,,,,,,,,,,,,,,,,,,,,,,,,,,,,,,,,,,,,,,,,,,,,,,,,,,,,,,,,,,,,,,,,,
,,,,,,60e758107f8031dce149e796,62c539f2bd5b409f94a2e560,2022-07-06_09h30.25.811,Colour_Asymmetry_Pilot,2022.1.3,Win32,59.24170616,62c50e9c1127f2cd403a315f,0,36,36,58,1,twoone,,,,,,,,,,,,,,,,,,,,,,,,,,,,,,,,,,,,,,,,,,,,,,,,,,,,,,,,,,,,,,,,,,,,,,,,,,,,,,,,,,,,,,,,,,,,,,,,,,,,,,,,,,,,,,,,,,,,,,,,,,,,,,,,,,,,,,,,,,,,,,,,,,,,,,,,,,,,,
,,,,,,60e758107f8031dce149e796,62c539f2bd5b409f94a2e560,2022-07-06_09h30.25.811,Colour_Asymmetry_Pilot,2022.1.3,Win32,59.24170616,62c50e9c1127f2cd403a315f,0,37,37,2,1,twoone,,,,,,,,,,,,,,,,,,,,,,,,,,,,,,,,,,,,,,,,,,,,,,,,,,,,,,,,,,,,,,,,,,,,,,,,,,,,,,,,,,,,,,,,,,,,,,,,,,,,,,,,,,,,,,,,,,,,,,,,,,,,,,,,,,,,,,,,,,,,,,,,,,,,,,,,,,,,,
,,,,,,60e758107f8031dce149e796,62c539f2bd5b409f94a2e560,2022-07-06_09h30.25.811,Colour_Asymmetry_Pilot,2022.1.3,Win32,59.24170616,62c50e9c1127f2cd403a315f,0,38,38,30,1,fourtwo,,,,,,,,,,,,,,,,,,,,,,,,,,,,,,,,,,,,,,,,,,,,,,,,,,,,,,,,,,,,,,,,,,,,,,,,,,,,,,,,,,,,,,,,,,,,,,,,,,,,,,,,,,,,,,,,,,,,,,,,,,,,,,,,,,,,,,,,,,,,,,,,,,,,,,,,,,,,,
,,,,,,60e758107f8031dce149e796,62c539f2bd5b409f94a2e560,2022-07-06_09h30.25.811,Colour_Asymmetry_Pilot,2022.1.3,Win32,59.24170616,62c50e9c1127f2cd403a315f,0,39,39,40,1,onetwo,,,,,,,,,,,,,,,,,,,,,,,,,,,,,,,,,,,,,,,,,,,,,,,,,,,,,,,,,,,,,,,,,,,,,,,,,,,,,,,,,,,,,,,,,,,,,,,,,,,,,,,,,,,,,,,,,,,,,,,,,,,,,,,,,,,,,,,,,,,,,,,,,,,,,,,,,,,,,
,,,,,,60e758107f8031dce149e796,62c539f2bd5b409f94a2e560,2022-07-06_09h30.25.811,Colour_Asymmetry_Pilot,2022.1.3,Win32,59.24170616,62c50e9c1127f2cd403a315f,0,40,40,161,1,onethree,,,,,,,,,,,,,,,,,,,,,,,,,,,,,,,,,,,,,,,,,,,,,,,,,,,,,,,,,,,,,,,,,,,,,,,,,,,,,,,,,,,,,,,,,,,,,,,,,,,,,,,,,,,,,,,,,,,,,,,,,,,,,,,,,,,,,,,,,,,,,,,,,,,,,,,,,,,,,
,,,,,,60e758107f8031dce149e796,62c539f2bd5b409f94a2e560,2022-07-06_09h30.25.811,Colour_Asymmetry_Pilot,2022.1.3,Win32,59.24170616,62c50e9c1127f2cd403a315f,0,41,41,83,1,twofour,,,,,,,,,,,,,,,,,,,,,,,,,,,,,,,,,,,,,,,,,,,,,,,,,,,,,,,,,,,,,,,,,,,,,,,,,,,,,,,,,,,,,,,,,,,,,,,,,,,,,,,,,,,,,,,,,,,,,,,,,,,,,,,,,,,,,,,,,,,,,,,,,,,,,,,,,,,,,
,,,,,,60e758107f8031dce149e796,62c539f2bd5b409f94a2e560,2022-07-06_09h30.25.811,Colour_Asymmetry_Pilot,2022.1.3,Win32,59.24170616,62c50e9c1127f2cd403a315f,0,42,42,6,1,fourtwo,,,,,,,,,,,,,,,,,,,,,,,,,,,,,,,,,,,,,,,,,,,,,,,,,,,,,,,,,,,,,,,,,,,,,,,,,,,,,,,,,,,,,,,,,,,,,,,,,,,,,,,,,,,,,,,,,,,,,,,,,,,,,,,,,,,,,,,,,,,,,,,,,,,,,,,,,,,,,
,,,,,,60e758107f8031dce149e796,62c539f2bd5b409f94a2e560,2022-07-06_09h30.25.811,Colour_Asymmetry_Pilot,2022.1.3,Win32,59.24170616,62c50e9c1127f2cd403a315f,0,43,43,78,1,fourtwo,,,,,,,,,,,,,,,,,,,,,,,,,,,,,,,,,,,,,,,,,,,,,,,,,,,,,,,,,,,,,,,,,,,,,,,,,,,,,,,,,,,,,,,,,,,,,,,,,,,,,,,,,,,,,,,,,,,,,,,,,,,,,,,,,,,,,,,,,,,,,,,,,,,,,,,,,,,,,
,,,,,,60e758107f8031dce149e796,62c539f2bd5b409f94a2e560,2022-07-06_09h30.25.811,Colour_Asymmetry_Pilot,2022.1.3,Win32,59.24170616,62c50e9c1127f2cd403a315f,0,44,44,141,1,threefour,,,,,,,,,,,,,,,,,,,,,,,,,,,,,,,,,,,,,,,,,,,,,,,,,,,,,,,,,,,,,,,,,,,,,,,,,,,,,,,,,,,,,,,,,,,,,,,,,,,,,,,,,,,,,,,,,,,,,,,,,,,,,,,,,,,,,,,,,,,,,,,,,,,,,,,,,,,,,
,,,,,,60e758107f8031dce149e796,62c539f2bd5b409f94a2e560,2022-07-06_09h30.25.811,Colour_Asymmetry_Pilot,2022.1.3,Win32,59.24170616,62c50e9c1127f2cd403a315f,0,45,45,19,1,twofour,,,,,,,,,,,,,,,,,,,,,,,,,,,,,,,,,,,,,,,,,,,,,,,,,,,,,,,,,,,,,,,,,,,,,,,,,,,,,,,,,,,,,,,,,,,,,,,,,,,,,,,,,,,,,,,,,,,,,,,,,,,,,,,,,,,,,,,,,,,,,,,,,,,,,,,,,,,,,
,,,,,,60e758107f8031dce149e796,62c539f2bd5b409f94a2e560,2022-07-06_09h30.25.811,Colour_Asymmetry_Pilot,2022.1.3,Win32,59.24170616,62c50e9c1127f2cd403a315f,0,46,46,13,1,threefour,,,,,,,,,,,,,,,,,,,,,,,,,,,,,,,,,,,,,,,,,,,,,,,,,,,,,,,,,,,,,,,,,,,,,,,,,,,,,,,,,,,,,,,,,,,,,,,,,,,,,,,,,,,,,,,,,,,,,,,,,,,,,,,,,,,,,,,,,,,,,,,,,,,,,,,,,,,,,
,,,,,,60e758107f8031dce149e796,62c539f2bd5b409f94a2e560,2022-07-06_09h30.25.811,Colour_Asymmetry_Pilot,2022.1.3,Win32,59.24170616,62c50e9c1127f2cd403a315f,0,47,47,115,1,twofour,,,,,,,,,,,,,,,,,,,,,,,,,,,,,,,,,,,,,,,,,,,,,,,,,,,,,,,,,,,,,,,,,,,,,,,,,,,,,,,,,,,,,,,,,,,,,,,,,,,,,,,,,,,,,,,,,,,,,,,,,,,,,,,,,,,,,,,,,,,,,,,,,,,,,,,,,,,,,
,,,,,,60e758107f8031dce149e796,62c539f2bd5b409f94a2e560,2022-07-06_09h30.25.811,Colour_Asymmetry_Pilot,2022.1.3,Win32,59.24170616,62c50e9c1127f2cd403a315f,0,48,48,150,1,fourtwo,,,,,,,,,,,,,,,,,,,,,,,,,,,,,,,,,,,,,,,,,,,,,,,,,,,,,,,,,,,,,,,,,,,,,,,,,,,,,,,,,,,,,,,,,,,,,,,,,,,,,,,,,,,,,,,,,,,,,,,,,,,,,,,,,,,,,,,,,,,,,,,,,,,,,,,,,,,,,
,,,,,,60e758107f8031dce149e796,62c539f2bd5b409f94a2e560,2022-07-06_09h30.25.811,Colour_Asymmetry_Pilot,2022.1.3,Win32,59.24170616,62c50e9c1127f2cd403a315f,0,49,49,114,1,twoone,,,,,,,,,,,,,,,,,,,,,,,,,,,,,,,,,,,,,,,,,,,,,,,,,,,,,,,,,,,,,,,,,,,,,,,,,,,,,,,,,,,,,,,,,,,,,,,,,,,,,,,,,,,,,,,,,,,,,,,,,,,,,,,,,,,,,,,,,,,,,,,,,,,,,,,,,,,,,
,,,,,,60e758107f8031dce149e796,62c539f2bd5b409f94a2e560,2022-07-06_09h30.25.811,Colour_Asymmetry_Pilot,2022.1.3,Win32,59.24170616,62c50e9c1127f2cd403a315f,0,50,50,95,1,fourthree,,,,,,,,,,,,,,,,,,,,,,,,,,,,,,,,,,,,,,,,,,,,,,,,,,,,,,,,,,,,,,,,,,,,,,,,,,,,,,,,,,,,,,,,,,,,,,,,,,,,,,,,,,,,,,,,,,,,,,,,,,,,,,,,,,,,,,,,,,,,,,,,,,,,,,,,,,,,,
,,,,,,60e758107f8031dce149e796,62c539f2bd5b409f94a2e560,2022-07-06_09h30.25.811,Colour_Asymmetry_Pilot,2022.1.3,Win32,59.24170616,62c50e9c1127f2cd403a315f,0,51,51,5,1,threefour,,,,,,,,,,,,,,,,,,,,,,,,,,,,,,,,,,,,,,,,,,,,,,,,,,,,,,,,,,,,,,,,,,,,,,,,,,,,,,,,,,,,,,,,,,,,,,,,,,,,,,,,,,,,,,,,,,,,,,,,,,,,,,,,,,,,,,,,,,,,,,,,,,,,,,,,,,,,,
,,,,,,60e758107f8031dce149e796,62c539f2bd5b409f94a2e560,2022-07-06_09h30.25.811,Colour_Asymmetry_Pilot,2022.1.3,Win32,59.24170616,62c50e9c1127f2cd403a315f,0,52,52,68,1,threeone,,,,,,,,,,,,,,,,,,,,,,,,,,,,,,,,,,,,,,,,,,,,,,,,,,,,,,,,,,,,,,,,,,,,,,,,,,,,,,,,,,,,,,,,,,,,,,,,,,,,,,,,,,,,,,,,,,,,,,,,,,,,,,,,,,,,,,,,,,,,,,,,,,,,,,,,,,,,,
,,,,,,60e758107f8031dce149e796,62c539f2bd5b409f94a2e560,2022-07-06_09h30.25.811,Colour_Asymmetry_Pilot,2022.1.3,Win32,59.24170616,62c50e9c1127f2cd403a315f,0,53,53,33,1,onethree,,,,,,,,,,,,,,,,,,,,,,,,,,,,,,,,,,,,,,,,,,,,,,,,,,,,,,,,,,,,,,,,,,,,,,,,,,,,,,,,,,,,,,,,,,,,,,,,,,,,,,,,,,,,,,,,,,,,,,,,,,,,,,,,,,,,,,,,,,,,,,,,,,,,,,,,,,,,,
,,,,,,60e758107f8031dce149e796,62c539f2bd5b409f94a2e560,2022-07-06_09h30.25.811,Colour_Asymmetry_Pilot,2022.1.3,Win32,59.24170616,62c50e9c1127f2cd403a315f,0,54,54,134,1,fourtwo,,,,,,,,,,,,,,,,,,,,,,,,,,,,,,,,,,,,,,,,,,,,,,,,,,,,,,,,,,,,,,,,,,,,,,,,,,,,,,,,,,,,,,,,,,,,,,,,,,,,,,,,,,,,,,,,,,,,,,,,,,,,,,,,,,,,,,,,,,,,,,,,,,,,,,,,,,,,,
,,,,,,60e758107f8031dce149e796,62c539f2bd5b409f94a2e560,2022-07-06_09h30.25.811,Colour_Asymmetry_Pilot,2022.1.3,Win32,59.24170616,62c50e9c1127f2cd403a315f,0,55,55,106,1,twoone,,,,,,,,,,,,,,,,,,,,,,,,,,,,,,,,,,,,,,,,,,,,,,,,,,,,,,,,,,,,,,,,,,,,,,,,,,,,,,,,,,,,,,,,,,,,,,,,,,,,,,,,,,,,,,,,,,,,,,,,,,,,,,,,,,,,,,,,,,,,,,,,,,,,,,,,,,,,,
,,,,,,60e758107f8031dce149e796,62c539f2bd5b409f94a2e560,2022-07-06_09h30.25.811,Colour_Asymmetry_Pilot,2022.1.3,Win32,59.24170616,62c50e9c1127f2cd403a315f,0,56,56,61,1,threefour,,,,,,,,,,,,,,,,,,,,,,,,,,,,,,,,,,,,,,,,,,,,,,,,,,,,,,,,,,,,,,,,,,,,,,,,,,,,,,,,,,,,,,,,,,,,,,,,,,,,,,,,,,,,,,,,,,,,,,,,,,,,,,,,,,,,,,,,,,,,,,,,,,,,,,,,,,,,,
,,,,,,60e758107f8031dce149e796,62c539f2bd5b409f94a2e560,2022-07-06_09h30.25.811,Colour_Asymmetry_Pilot,2022.1.3,Win32,59.24170616,62c50e9c1127f2cd403a315f,0,57,57,70,1,fourtwo,,,,,,,,,,,,,,,,,,,,,,,,,,,,,,,,,,,,,,,,,,,,,,,,,,,,,,,,,,,,,,,,,,,,,,,,,,,,,,,,,,,,,,,,,,,,,,,,,,,,,,,,,,,,,,,,,,,,,,,,,,,,,,,,,,,,,,,,,,,,,,,,,,,,,,,,,,,,,
,,,,,,60e758107f8031dce149e796,62c539f2bd5b409f94a2e560,2022-07-06_09h30.25.811,Colour_Asymmetry_Pilot,2022.1.3,Win32,59.24170616,62c50e9c1127f2cd403a315f,0,58,58,59,1,twofour,,,,,,,,,,,,,,,,,,,,,,,,,,,,,,,,,,,,,,,,,,,,,,,,,,,,,,,,,,,,,,,,,,,,,,,,,,,,,,,,,,,,,,,,,,,,,,,,,,,,,,,,,,,,,,,,,,,,,,,,,,,,,,,,,,,,,,,,,,,,,,,,,,,,,,,,,,,,,
,,,,,,60e758107f8031dce149e796,62c539f2bd5b409f94a2e560,2022-07-06_09h30.25.811,Colour_Asymmetry_Pilot,2022.1.3,Win32,59.24170616,62c50e9c1127f2cd403a315f,0,59,59,64,1,onetwo,,,,,,,,,,,,,,,,,,,,,,,,,,,,,,,,,,,,,,,,,,,,,,,,,,,,,,,,,,,,,,,,,,,,,,,,,,,,,,,,,,,,,,,,,,,,,,,,,,,,,,,,,,,,,,,,,,,,,,,,,,,,,,,,,,,,,,,,,,,,,,,,,,,,,,,,,,,,,
,,,,,,60e758107f8031dce149e796,62c539f2bd5b409f94a2e560,2022-07-06_09h30.25.811,Colour_Asymmetry_Pilot,2022.1.3,Win32,59.24170616,62c50e9c1127f2cd403a315f,0,60,60,101,1,threefour,,,,,,,,,,,,,,,,,,,,,,,,,,,,,,,,,,,,,,,,,,,,,,,,,,,,,,,,,,,,,,,,,,,,,,,,,,,,,,,,,,,,,,,,,,,,,,,,,,,,,,,,,,,,,,,,,,,,,,,,,,,,,,,,,,,,,,,,,,,,,,,,,,,,,,,,,,,,,
,,,,,,60e758107f8031dce149e796,62c539f2bd5b409f94a2e560,2022-07-06_09h30.25.811,Colour_Asymmetry_Pilot,2022.1.3,Win32,59.24170616,62c50e9c1127f2cd403a315f,0,61,61,97,1,onethree,,,,,,,,,,,,,,,,,,,,,,,,,,,,,,,,,,,,,,,,,,,,,,,,,,,,,,,,,,,,,,,,,,,,,,,,,,,,,,,,,,,,,,,,,,,,,,,,,,,,,,,,,,,,,,,,,,,,,,,,,,,,,,,,,,,,,,,,,,,,,,,,,,,,,,,,,,,,,
,,,,,,60e758107f8031dce149e796,62c539f2bd5b409f94a2e560,2022-07-06_09h30.25.811,Colour_Asymmetry_Pilot,2022.1.3,Win32,59.24170616,62c50e9c1127f2cd403a315f,0,62,62,73,1,onethree,,,,,,,,,,,,,,,,,,,,,,,,,,,,,,,,,,,,,,,,,,,,,,,,,,,,,,,,,,,,,,,,,,,,,,,,,,,,,,,,,,,,,,,,,,,,,,,,,,,,,,,,,,,,,,,,,,,,,,,,,,,,,,,,,,,,,,,,,,,,,,,,,,,,,,,,,,,,,
,,,,,,60e758107f8031dce149e796,62c539f2bd5b409f94a2e560,2022-07-06_09h30.25.811,Colour_Asymmetry_Pilot,2022.1.3,Win32,59.24170616,62c50e9c1127f2cd403a315f,0,63,63,79,1,fourthree,,,,,,,,,,,,,,,,,,,,,,,,,,,,,,,,,,,,,,,,,,,,,,,,,,,,,,,,,,,,,,,,,,,,,,,,,,,,,,,,,,,,,,,,,,,,,,,,,,,,,,,,,,,,,,,,,,,,,,,,,,,,,,,,,,,,,,,,,,,,,,,,,,,,,,,,,,,,,
,,,,,,60e758107f8031dce149e796,62c539f2bd5b409f94a2e560,2022-07-06_09h30.25.811,Colour_Asymmetry_Pilot,2022.1.3,Win32,59.24170616,62c50e9c1127f2cd403a315f,0,64,64,113,1,onethree,,,,,,,,,,,,,,,,,,,,,,,,,,,,,,,,,,,,,,,,,,,,,,,,,,,,,,,,,,,,,,,,,,,,,,,,,,,,,,,,,,,,,,,,,,,,,,,,,,,,,,,,,,,,,,,,,,,,,,,,,,,,,,,,,,,,,,,,,,,,,,,,,,,,,,,,,,,,,
,,,,,,60e758107f8031dce149e796,62c539f2bd5b409f94a2e560,2022-07-06_09h30.25.811,Colour_Asymmetry_Pilot,2022.1.3,Win32,59.24170616,62c50e9c1127f2cd403a315f,0,65,65,8,1,onetwo,,,,,,,,,,,,,,,,,,,,,,,,,,,,,,,,,,,,,,,,,,,,,,,,,,,,,,,,,,,,,,,,,,,,,,,,,,,,,,,,,,,,,,,,,,,,,,,,,,,,,,,,,,,,,,,,,,,,,,,,,,,,,,,,,,,,,,,,,,,,,,,,,,,,,,,,,,,,,
,,,,,,60e758107f8031dce149e796,62c539f2bd5b409f94a2e560,2022-07-06_09h30.25.811,Colour_Asymmetry_Pilot,2022.1.3,Win32,59.24170616,62c50e9c1127f2cd403a315f,0,66,66,21,1,threefour,,,,,,,,,,,,,,,,,,,,,,,,,,,,,,,,,,,,,,,,,,,,,,,,,,,,,,,,,,,,,,,,,,,,,,,,,,,,,,,,,,,,,,,,,,,,,,,,,,,,,,,,,,,,,,,,,,,,,,,,,,,,,,,,,,,,,,,,,,,,,,,,,,,,,,,,,,,,,
,,,,,,60e758107f8031dce149e796,62c539f2bd5b409f94a2e560,2022-07-06_09h30.25.811,Colour_Asymmetry_Pilot,2022.1.3,Win32,59.24170616,62c50e9c1127f2cd403a315f,0,67,67,46,1,fourtwo,,,,,,,,,,,,,,,,,,,,,,,,,,,,,,,,,,,,,,,,,,,,,,,,,,,,,,,,,,,,,,,,,,,,,,,,,,,,,,,,,,,,,,,,,,,,,,,,,,,,,,,,,,,,,,,,,,,,,,,,,,,,,,,,,,,,,,,,,,,,,,,,,,,,,,,,,,,,,
,,,,,,60e758107f8031dce149e796,62c539f2bd5b409f94a2e560,2022-07-06_09h30.25.811,Colour_Asymmetry_Pilot,2022.1.3,Win32,59.24170616,62c50e9c1127f2cd403a315f,0,68,68,99,1,twofour,,,,,,,,,,,,,,,,,,,,,,,,,,,,,,,,,,,,,,,,,,,,,,,,,,,,,,,,,,,,,,,,,,,,,,,,,,,,,,,,,,,,,,,,,,,,,,,,,,,,,,,,,,,,,,,,,,,,,,,,,,,,,,,,,,,,,,,,,,,,,,,,,,,,,,,,,,,,,
,,,,,,60e758107f8031dce149e796,62c539f2bd5b409f94a2e560,2022-07-06_09h30.25.811,Colour_Asymmetry_Pilot,2022.1.3,Win32,59.24170616,62c50e9c1127f2cd403a315f,0,69,69,103,1,fourthree,,,,,,,,,,,,,,,,,,,,,,,,,,,,,,,,,,,,,,,,,,,,,,,,,,,,,,,,,,,,,,,,,,,,,,,,,,,,,,,,,,,,,,,,,,,,,,,,,,,,,,,,,,,,,,,,,,,,,,,,,,,,,,,,,,,,,,,,,,,,,,,,,,,,,,,,,,,,,
,,,,,,60e758107f8031dce149e796,62c539f2bd5b409f94a2e560,2022-07-06_09h30.25.811,Colour_Asymmetry_Pilot,2022.1.3,Win32,59.24170616,62c50e9c1127f2cd403a315f,0,70,70,41,1,onethree,,,,,,,,,,,,,,,,,,,,,,,,,,,,,,,,,,,,,,,,,,,,,,,,,,,,,,,,,,,,,,,,,,,,,,,,,,,,,,,,,,,,,,,,,,,,,,,,,,,,,,,,,,,,,,,,,,,,,,,,,,,,,,,,,,,,,,,,,,,,,,,,,,,,,,,,,,,,,
,,,,,,60e758107f8031dce149e796,62c539f2bd5b409f94a2e560,2022-07-06_09h30.25.811,Colour_Asymmetry_Pilot,2022.1.3,Win32,59.24170616,62c50e9c1127f2cd403a315f,0,71,71,12,1,threeone,,,,,,,,,,,,,,,,,,,,,,,,,,,,,,,,,,,,,,,,,,,,,,,,,,,,,,,,,,,,,,,,,,,,,,,,,,,,,,,,,,,,,,,,,,,,,,,,,,,,,,,,,,,,,,,,,,,,,,,,,,,,,,,,,,,,,,,,,,,,,,,,,,,,,,,,,,,,,
,,,,,,60e758107f8031dce149e796,62c539f2bd5b409f94a2e560,2022-07-06_09h30.25.811,Colour_Asymmetry_Pilot,2022.1.3,Win32,59.24170616,62c50e9c1127f2cd403a315f,0,72,72,152,1,onetwo,,,,,,,,,,,,,,,,,,,,,,,,,,,,,,,,,,,,,,,,,,,,,,,,,,,,,,,,,,,,,,,,,,,,,,,,,,,,,,,,,,,,,,,,,,,,,,,,,,,,,,,,,,,,,,,,,,,,,,,,,,,,,,,,,,,,,,,,,,,,,,,,,,,,,,,,,,,,,
,,,,,,60e758107f8031dce149e796,62c539f2bd5b409f94a2e560,2022-07-06_09h30.25.811,Colour_Asymmetry_Pilot,2022.1.3,Win32,59.24170616,62c50e9c1127f2cd403a315f,0,73,73,148,1,threeone,,,,,,,,,,,,,,,,,,,,,,,,,,,,,,,,,,,,,,,,,,,,,,,,,,,,,,,,,,,,,,,,,,,,,,,,,,,,,,,,,,,,,,,,,,,,,,,,,,,,,,,,,,,,,,,,,,,,,,,,,,,,,,,,,,,,,,,,,,,,,,,,,,,,,,,,,,,,,
,,,,,,60e758107f8031dce149e796,62c539f2bd5b409f94a2e560,2022-07-06_09h30.25.811,Colour_Asymmetry_Pilot,2022.1.3,Win32,59.24170616,62c50e9c1127f2cd403a315f,0,74,74,133,1,threefour,,,,,,,,,,,,,,,,,,,,,,,,,,,,,,,,,,,,,,,,,,,,,,,,,,,,,,,,,,,,,,,,,,,,,,,,,,,,,,,,,,,,,,,,,,,,,,,,,,,,,,,,,,,,,,,,,,,,,,,,,,,,,,,,,,,,,,,,,,,,,,,,,,,,,,,,,,,,,
,,,,,,60e758107f8031dce149e796,62c539f2bd5b409f94a2e560,2022-07-06_09h30.25.811,Colour_Asymmetry_Pilot,2022.1.3,Win32,59.24170616,62c50e9c1127f2cd403a315f,0,75,75,112,1,onetwo,,,,,,,,,,,,,,,,,,,,,,,,,,,,,,,,,,,,,,,,,,,,,,,,,,,,,,,,,,,,,,,,,,,,,,,,,,,,,,,,,,,,,,,,,,,,,,,,,,,,,,,,,,,,,,,,,,,,,,,,,,,,,,,,,,,,,,,,,,,,,,,,,,,,,,,,,,,,,
,,,,,,60e758107f8031dce149e796,62c539f2bd5b409f94a2e560,2022-07-06_09h30.25.811,Colour_Asymmetry_Pilot,2022.1.3,Win32,59.24170616,62c50e9c1127f2cd403a315f,0,76,76,10,1,twoone,,,,,,,,,,,,,,,,,,,,,,,,,,,,,,,,,,,,,,,,,,,,,,,,,,,,,,,,,,,,,,,,,,,,,,,,,,,,,,,,,,,,,,,,,,,,,,,,,,,,,,,,,,,,,,,,,,,,,,,,,,,,,,,,,,,,,,,,,,,,,,,,,,,,,,,,,,,,,
,,,,,,60e758107f8031dce149e796,62c539f2bd5b409f94a2e560,2022-07-06_09h30.25.811,Colour_Asymmetry_Pilot,2022.1.3,Win32,59.24170616,62c50e9c1127f2cd403a315f,0,77,77,140,1,threeone,,,,,,,,,,,,,,,,,,,,,,,,,,,,,,,,,,,,,,,,,,,,,,,,,,,,,,,,,,,,,,,,,,,,,,,,,,,,,,,,,,,,,,,,,,,,,,,,,,,,,,,,,,,,,,,,,,,,,,,,,,,,,,,,,,,,,,,,,,,,,,,,,,,,,,,,,,,,,
,,,,,,60e758107f8031dce149e796,62c539f2bd5b409f94a2e560,2022-07-06_09h30.25.811,Colour_Asymmetry_Pilot,2022.1.3,Win32,59.24170616,62c50e9c1127f2cd403a315f,0,78,78,125,1,threefour,,,,,,,,,,,,,,,,,,,,,,,,,,,,,,,,,,,,,,,,,,,,,,,,,,,,,,,,,,,,,,,,,,,,,,,,,,,,,,,,,,,,,,,,,,,,,,,,,,,,,,,,,,,,,,,,,,,,,,,,,,,,,,,,,,,,,,,,,,,,,,,,,,,,,,,,,,,,,
,,,,,,60e758107f8031dce149e796,62c539f2bd5b409f94a2e560,2022-07-06_09h30.25.811,Colour_Asymmetry_Pilot,2022.1.3,Win32,59.24170616,62c50e9c1127f2cd403a315f,0,79,79,147,1,twofour,,,,,,,,,,,,,,,,,,,,,,,,,,,,,,,,,,,,,,,,,,,,,,,,,,,,,,,,,,,,,,,,,,,,,,,,,,,,,,,,,,,,,,,,,,,,,,,,,,,,,,,,,,,,,,,,,,,,,,,,,,,,,,,,,,,,,,,,,,,,,,,,,,,,,,,,,,,,,
,,,,,,60e758107f8031dce149e796,62c539f2bd5b409f94a2e560,2022-07-06_09h30.25.811,Colour_Asymmetry_Pilot,2022.1.3,Win32,59.24170616,62c50e9c1127f2cd403a315f,0,80,80,143,1,fourthree,,,,,,,,,,,,,,,,,,,,,,,,,,,,,,,,,,,,,,,,,,,,,,,,,,,,,,,,,,,,,,,,,,,,,,,,,,,,,,,,,,,,,,,,,,,,,,,,,,,,,,,,,,,,,,,,,,,,,,,,,,,,,,,,,,,,,,,,,,,,,,,,,,,,,,,,,,,,,
,,,,,,60e758107f8031dce149e796,62c539f2bd5b409f94a2e560,2022-07-06_09h30.25.811,Colour_Asymmetry_Pilot,2022.1.3,Win32,59.24170616,62c50e9c1127f2cd403a315f,0,81,81,16,1,onetwo,,,,,,,,,,,,,,,,,,,,,,,,,,,,,,,,,,,,,,,,,,,,,,,,,,,,,,,,,,,,,,,,,,,,,,,,,,,,,,,,,,,,,,,,,,,,,,,,,,,,,,,,,,,,,,,,,,,,,,,,,,,,,,,,,,,,,,,,,,,,,,,,,,,,,,,,,,,,,
,,,,,,60e758107f8031dce149e796,62c539f2bd5b409f94a2e560,2022-07-06_09h30.25.811,Colour_Asymmetry_Pilot,2022.1.3,Win32,59.24170616,62c50e9c1127f2cd403a315f,0,82,82,34,1,twoone,,,,,,,,,,,,,,,,,,,,,,,,,,,,,,,,,,,,,,,,,,,,,,,,,,,,,,,,,,,,,,,,,,,,,,,,,,,,,,,,,,,,,,,,,,,,,,,,,,,,,,,,,,,,,,,,,,,,,,,,,,,,,,,,,,,,,,,,,,,,,,,,,,,,,,,,,,,,,
,,,,,,60e758107f8031dce149e796,62c539f2bd5b409f94a2e560,2022-07-06_09h30.25.811,Colour_Asymmetry_Pilot,2022.1.3,Win32,59.24170616,62c50e9c1127f2cd403a315f,0,83,83,57,1,onethree,,,,,,,,,,,,,,,,,,,,,,,,,,,,,,,,,,,,,,,,,,,,,,,,,,,,,,,,,,,,,,,,,,,,,,,,,,,,,,,,,,,,,,,,,,,,,,,,,,,,,,,,,,,,,,,,,,,,,,,,,,,,,,,,,,,,,,,,,,,,,,,,,,,,,,,,,,,,,
,,,,,,60e758107f8031dce149e796,62c539f2bd5b409f94a2e560,2022-07-06_09h30.25.811,Colour_Asymmetry_Pilot,2022.1.3,Win32,59.24170616,62c50e9c1127f2cd403a315f,0,84,84,102,1,fourtwo,,,,,,,,,,,,,,,,,,,,,,,,,,,,,,,,,,,,,,,,,,,,,,,,,,,,,,,,,,,,,,,,,,,,,,,,,,,,,,,,,,,,,,,,,,,,,,,,,,,,,,,,,,,,,,,,,,,,,,,,,,,,,,,,,,,,,,,,,,,,,,,,,,,,,,,,,,,,,
,,,,,,60e758107f8031dce149e796,62c539f2bd5b409f94a2e560,2022-07-06_09h30.25.811,Colour_Asymmetry_Pilot,2022.1.3,Win32,59.24170616,62c50e9c1127f2cd403a315f,0,85,85,84,1,threeone,,,,,,,,,,,,,,,,,,,,,,,,,,,,,,,,,,,,,,,,,,,,,,,,,,,,,,,,,,,,,,,,,,,,,,,,,,,,,,,,,,,,,,,,,,,,,,,,,,,,,,,,,,,,,,,,,,,,,,,,,,,,,,,,,,,,,,,,,,,,,,,,,,,,,,,,,,,,,
,,,,,,60e758107f8031dce149e796,62c539f2bd5b409f94a2e560,2022-07-06_09h30.25.811,Colour_Asymmetry_Pilot,2022.1.3,Win32,59.24170616,62c50e9c1127f2cd403a315f,0,86,86,129,1,onethree,,,,,,,,,,,,,,,,,,,,,,,,,,,,,,,,,,,,,,,,,,,,,,,,,,,,,,,,,,,,,,,,,,,,,,,,,,,,,,,,,,,,,,,,,,,,,,,,,,,,,,,,,,,,,,,,,,,,,,,,,,,,,,,,,,,,,,,,,,,,,,,,,,,,,,,,,,,,,
,,,,,,60e758107f8031dce149e796,62c539f2bd5b409f94a2e560,2022-07-06_09h30.25.811,Colour_Asymmetry_Pilot,2022.1.3,Win32,59.24170616,62c50e9c1127f2cd403a315f,0,87,87,96,1,onetwo,,,,,,,,,,,,,,,,,,,,,,,,,,,,,,,,,,,,,,,,,,,,,,,,,,,,,,,,,,,,,,,,,,,,,,,,,,,,,,,,,,,,,,,,,,,,,,,,,,,,,,,,,,,,,,,,,,,,,,,,,,,,,,,,,,,,,,,,,,,,,,,,,,,,,,,,,,,,,
,,,,,,60e758107f8031dce149e796,62c539f2bd5b409f94a2e560,2022-07-06_09h30.25.811,Colour_Asymmetry_Pilot,2022.1.3,Win32,59.24170616,62c50e9c1127f2cd403a315f,0,88,88,110,1,fourtwo,,,,,,,,,,,,,,,,,,,,,,,,,,,,,,,,,,,,,,,,,,,,,,,,,,,,,,,,,,,,,,,,,,,,,,,,,,,,,,,,,,,,,,,,,,,,,,,,,,,,,,,,,,,,,,,,,,,,,,,,,,,,,,,,,,,,,,,,,,,,,,,,,,,,,,,,,,,,,
,,,,,,60e758107f8031dce149e796,62c539f2bd5b409f94a2e560,2022-07-06_09h30.25.811,Colour_Asymmetry_Pilot,2022.1.3,Win32,59.24170616,62c50e9c1127f2cd403a315f,0,89,89,136,1,onetwo,,,,,,,,,,,,,,,,,,,,,,,,,,,,,,,,,,,,,,,,,,,,,,,,,,,,,,,,,,,,,,,,,,,,,,,,,,,,,,,,,,,,,,,,,,,,,,,,,,,,,,,,,,,,,,,,,,,,,,,,,,,,,,,,,,,,,,,,,,,,,,,,,,,,,,,,,,,,,
,,,,,,60e758107f8031dce149e796,62c539f2bd5b409f94a2e560,2022-07-06_09h30.25.811,Colour_Asymmetry_Pilot,2022.1.3,Win32,59.24170616,62c50e9c1127f2cd403a315f,0,90,90,49,1,onethree,,,,,,,,,,,,,,,,,,,,,,,,,,,,,,,,,,,,,,,,,,,,,,,,,,,,,,,,,,,,,,,,,,,,,,,,,,,,,,,,,,,,,,,,,,,,,,,,,,,,,,,,,,,,,,,,,,,,,,,,,,,,,,,,,,,,,,,,,,,,,,,,,,,,,,,,,,,,,
,,,,,,60e758107f8031dce149e796,62c539f2bd5b409f94a2e560,2022-07-06_09h30.25.811,Colour_Asymmetry_Pilot,2022.1.3,Win32,59.24170616,62c50e9c1127f2cd403a315f,0,91,91,38,1,fourtwo,,,,,,,,,,,,,,,,,,,,,,,,,,,,,,,,,,,,,,,,,,,,,,,,,,,,,,,,,,,,,,,,,,,,,,,,,,,,,,,,,,,,,,,,,,,,,,,,,,,,,,,,,,,,,,,,,,,,,,,,,,,,,,,,,,,,,,,,,,,,,,,,,,,,,,,,,,,,,
,,,,,,60e758107f8031dce149e796,62c539f2bd5b409f94a2e560,2022-07-06_09h30.25.811,Colour_Asymmetry_Pilot,2022.1.3,Win32,59.24170616,62c50e9c1127f2cd403a315f,0,92,92,87,1,fourthree,,,,,,,,,,,,,,,,,,,,,,,,,,,,,,,,,,,,,,,,,,,,,,,,,,,,,,,,,,,,,,,,,,,,,,,,,,,,,,,,,,,,,,,,,,,,,,,,,,,,,,,,,,,,,,,,,,,,,,,,,,,,,,,,,,,,,,,,,,,,,,,,,,,,,,,,,,,,,
,,,,,,60e758107f8031dce149e796,62c539f2bd5b409f94a2e560,2022-07-06_09h30.25.811,Colour_Asymmetry_Pilot,2022.1.3,Win32,59.24170616,62c50e9c1127f2cd403a315f,0,93,93,52,1,threeone,,,,,,,,,,,,,,,,,,,,,,,,,,,,,,,,,,,,,,,,,,,,,,,,,,,,,,,,,,,,,,,,,,,,,,,,,,,,,,,,,,,,,,,,,,,,,,,,,,,,,,,,,,,,,,,,,,,,,,,,,,,,,,,,,,,,,,,,,,,,,,,,,,,,,,,,,,,,,
,,,,,,60e758107f8031dce149e796,62c539f2bd5b409f94a2e560,2022-07-06_09h30.25.811,Colour_Asymmetry_Pilot,2022.1.3,Win32,59.24170616,62c50e9c1127f2cd403a315f,0,94,94,88,1,onetwo,,,,,,,,,,,,,,,,,,,,,,,,,,,,,,,,,,,,,,,,,,,,,,,,,,,,,,,,,,,,,,,,,,,,,,,,,,,,,,,,,,,,,,,,,,,,,,,,,,,,,,,,,,,,,,,,,,,,,,,,,,,,,,,,,,,,,,,,,,,,,,,,,,,,,,,,,,,,,
,,,,,,60e758107f8031dce149e796,62c539f2bd5b409f94a2e560,2022-07-06_09h30.25.811,Colour_Asymmetry_Pilot,2022.1.3,Win32,59.24170616,62c50e9c1127f2cd403a315f,0,95,95,22,1,fourtwo,,,,,,,,,,,,,,,,,,,,,,,,,,,,,,,,,,,,,,,,,,,,,,,,,,,,,,,,,,,,,,,,,,,,,,,,,,,,,,,,,,,,,,,,,,,,,,,,,,,,,,,,,,,,,,,,,,,,,,,,,,,,,,,,,,,,,,,,,,,,,,,,,,,,,,,,,,,,,
,,,,,,60e758107f8031dce149e796,62c539f2bd5b409f94a2e560,2022-07-06_09h30.25.811,Colour_Asymmetry_Pilot,2022.1.3,Win32,59.24170616,62c50e9c1127f2cd403a315f,0,96,96,23,1,fourthree,,,,,,,,,,,,,,,,,,,,,,,,,,,,,,,,,,,,,,,,,,,,,,,,,,,,,,,,,,,,,,,,,,,,,,,,,,,,,,,,,,,,,,,,,,,,,,,,,,,,,,,,,,,,,,,,,,,,,,,,,,,,,,,,,,,,,,,,,,,,,,,,,,,,,,,,,,,,,
,,,,,,60e758107f8031dce149e796,62c539f2bd5b409f94a2e560,2022-07-06_09h30.25.811,Colour_Asymmetry_Pilot,2022.1.3,Win32,59.24170616,62c50e9c1127f2cd403a315f,0,97,97,37,1,threefour,,,,,,,,,,,,,,,,,,,,,,,,,,,,,,,,,,,,,,,,,,,,,,,,,,,,,,,,,,,,,,,,,,,,,,,,,,,,,,,,,,,,,,,,,,,,,,,,,,,,,,,,,,,,,,,,,,,,,,,,,,,,,,,,,,,,,,,,,,,,,,,,,,,,,,,,,,,,,
,,,,,,60e758107f8031dce149e796,62c539f2bd5b409f94a2e560,2022-07-06_09h30.25.811,Colour_Asymmetry_Pilot,2022.1.3,Win32,59.24170616,62c50e9c1127f2cd403a315f,0,98,98,77,1,threefour,,,,,,,,,,,,,,,,,,,,,,,,,,,,,,,,,,,,,,,,,,,,,,,,,,,,,,,,,,,,,,,,,,,,,,,,,,,,,,,,,,,,,,,,,,,,,,,,,,,,,,,,,,,,,,,,,,,,,,,,,,,,,,,,,,,,,,,,,,,,,,,,,,,,,,,,,,,,,
,,,,,,60e758107f8031dce149e796,62c539f2bd5b409f94a2e560,2022-07-06_09h30.25.811,Colour_Asymmetry_Pilot,2022.1.3,Win32,59.24170616,62c50e9c1127f2cd403a315f,0,99,99,155,1,twofour,,,,,,,,,,,,,,,,,,,,,,,,,,,,,,,,,,,,,,,,,,,,,,,,,,,,,,,,,,,,,,,,,,,,,,,,,,,,,,,,,,,,,,,,,,,,,,,,,,,,,,,,,,,,,,,,,,,,,,,,,,,,,,,,,,,,,,,,,,,,,,,,,,,,,,,,,,,,,
,,,,,,60e758107f8031dce149e796,62c539f2bd5b409f94a2e560,2022-07-06_09h30.25.811,Colour_Asymmetry_Pilot,2022.1.3,Win32,59.24170616,62c50e9c1127f2cd403a315f,0,100,100,17,1,onethree,,,,,,,,,,,,,,,,,,,,,,,,,,,,,,,,,,,,,,,,,,,,,,,,,,,,,,,,,,,,,,,,,,,,,,,,,,,,,,,,,,,,,,,,,,,,,,,,,,,,,,,,,,,,,,,,,,,,,,,,,,,,,,,,,,,,,,,,,,,,,,,,,,,,,,,,,,,,,
,,,,,,60e758107f8031dce149e796,62c539f2bd5b409f94a2e560,2022-07-06_09h30.25.811,Colour_Asymmetry_Pilot,2022.1.3,Win32,59.24170616,62c50e9c1127f2cd403a315f,0,101,101,94,1,fourtwo,,,,,,,,,,,,,,,,,,,,,,,,,,,,,,,,,,,,,,,,,,,,,,,,,,,,,,,,,,,,,,,,,,,,,,,,,,,,,,,,,,,,,,,,,,,,,,,,,,,,,,,,,,,,,,,,,,,,,,,,,,,,,,,,,,,,,,,,,,,,,,,,,,,,,,,,,,,,,
,,,,,,60e758107f8031dce149e796,62c539f2bd5b409f94a2e560,2022-07-06_09h30.25.811,Colour_Asymmetry_Pilot,2022.1.3,Win32,59.24170616,62c50e9c1127f2cd403a315f,0,102,102,32,1,onetwo,,,,,,,,,,,,,,,,,,,,,,,,,,,,,,,,,,,,,,,,,,,,,,,,,,,,,,,,,,,,,,,,,,,,,,,,,,,,,,,,,,,,,,,,,,,,,,,,,,,,,,,,,,,,,,,,,,,,,,,,,,,,,,,,,,,,,,,,,,,,,,,,,,,,,,,,,,,,,
,,,,,,60e758107f8031dce149e796,62c539f2bd5b409f94a2e560,2022-07-06_09h30.25.811,Colour_Asymmetry_Pilot,2022.1.3,Win32,59.24170616,62c50e9c1127f2cd403a315f,0,103,103,35,1,twofour,,,,,,,,,,,,,,,,,,,,,,,,,,,,,,,,,,,,,,,,,,,,,,,,,,,,,,,,,,,,,,,,,,,,,,,,,,,,,,,,,,,,,,,,,,,,,,,,,,,,,,,,,,,,,,,,,,,,,,,,,,,,,,,,,,,,,,,,,,,,,,,,,,,,,,,,,,,,,
,,,,,,60e758107f8031dce149e796,62c539f2bd5b409f94a2e560,2022-07-06_09h30.25.811,Colour_Asymmetry_Pilot,2022.1.3,Win32,59.24170616,62c50e9c1127f2cd403a315f,0,104,104,24,1,onetwo,,,,,,,,,,,,,,,,,,,,,,,,,,,,,,,,,,,,,,,,,,,,,,,,,,,,,,,,,,,,,,,,,,,,,,,,,,,,,,,,,,,,,,,,,,,,,,,,,,,,,,,,,,,,,,,,,,,,,,,,,,,,,,,,,,,,,,,,,,,,,,,,,,,,,,,,,,,,,
,,,,,,60e758107f8031dce149e796,62c539f2bd5b409f94a2e560,2022-07-06_09h30.25.811,Colour_Asymmetry_Pilot,2022.1.3,Win32,59.24170616,62c50e9c1127f2cd403a315f,0,105,105,149,1,threefour,,,,,,,,,,,,,,,,,,,,,,,,,,,,,,,,,,,,,,,,,,,,,,,,,,,,,,,,,,,,,,,,,,,,,,,,,,,,,,,,,,,,,,,,,,,,,,,,,,,,,,,,,,,,,,,,,,,,,,,,,,,,,,,,,,,,,,,,,,,,,,,,,,,,,,,,,,,,,
,,,,,,60e758107f8031dce149e796,62c539f2bd5b409f94a2e560,2022-07-06_09h30.25.811,Colour_Asymmetry_Pilot,2022.1.3,Win32,59.24170616,62c50e9c1127f2cd403a315f,0,106,106,54,1,fourtwo,,,,,,,,,,,,,,,,,,,,,,,,,,,,,,,,,,,,,,,,,,,,,,,,,,,,,,,,,,,,,,,,,,,,,,,,,,,,,,,,,,,,,,,,,,,,,,,,,,,,,,,,,,,,,,,,,,,,,,,,,,,,,,,,,,,,,,,,,,,,,,,,,,,,,,,,,,,,,
,,,,,,60e758107f8031dce149e796,62c539f2bd5b409f94a2e560,2022-07-06_09h30.25.811,Colour_Asymmetry_Pilot,2022.1.3,Win32,59.24170616,62c50e9c1127f2cd403a315f,0,107,107,160,1,onetwo,,,,,,,,,,,,,,,,,,,,,,,,,,,,,,,,,,,,,,,,,,,,,,,,,,,,,,,,,,,,,,,,,,,,,,,,,,,,,,,,,,,,,,,,,,,,,,,,,,,,,,,,,,,,,,,,,,,,,,,,,,,,,,,,,,,,,,,,,,,,,,,,,,,,,,,,,,,,,
,,,,,,60e758107f8031dce149e796,62c539f2bd5b409f94a2e560,2022-07-06_09h30.25.811,Colour_Asymmetry_Pilot,2022.1.3,Win32,59.24170616,62c50e9c1127f2cd403a315f,0,108,108,25,1,onethree,,,,,,,,,,,,,,,,,,,,,,,,,,,,,,,,,,,,,,,,,,,,,,,,,,,,,,,,,,,,,,,,,,,,,,,,,,,,,,,,,,,,,,,,,,,,,,,,,,,,,,,,,,,,,,,,,,,,,,,,,,,,,,,,,,,,,,,,,,,,,,,,,,,,,,,,,,,,,
,,,,,,60e758107f8031dce149e796,62c539f2bd5b409f94a2e560,2022-07-06_09h30.25.811,Colour_Asymmetry_Pilot,2022.1.3,Win32,59.24170616,62c50e9c1127f2cd403a315f,0,109,109,56,1,onetwo,,,,,,,,,,,,,,,,,,,,,,,,,,,,,,,,,,,,,,,,,,,,,,,,,,,,,,,,,,,,,,,,,,,,,,,,,,,,,,,,,,,,,,,,,,,,,,,,,,,,,,,,,,,,,,,,,,,,,,,,,,,,,,,,,,,,,,,,,,,,,,,,,,,,,,,,,,,,,
,,,,,,60e758107f8031dce149e796,62c539f2bd5b409f94a2e560,2022-07-06_09h30.25.811,Colour_Asymmetry_Pilot,2022.1.3,Win32,59.24170616,62c50e9c1127f2cd403a315f,0,110,110,146,1,twoone,,,,,,,,,,,,,,,,,,,,,,,,,,,,,,,,,,,,,,,,,,,,,,,,,,,,,,,,,,,,,,,,,,,,,,,,,,,,,,,,,,,,,,,,,,,,,,,,,,,,,,,,,,,,,,,,,,,,,,,,,,,,,,,,,,,,,,,,,,,,,,,,,,,,,,,,,,,,,
,,,,,,60e758107f8031dce149e796,62c539f2bd5b409f94a2e560,2022-07-06_09h30.25.811,Colour_Asymmetry_Pilot,2022.1.3,Win32,59.24170616,62c50e9c1127f2cd403a315f,0,111,111,9,1,onethree,,,,,,,,,,,,,,,,,,,,,,,,,,,,,,,,,,,,,,,,,,,,,,,,,,,,,,,,,,,,,,,,,,,,,,,,,,,,,,,,,,,,,,,,,,,,,,,,,,,,,,,,,,,,,,,,,,,,,,,,,,,,,,,,,,,,,,,,,,,,,,,,,,,,,,,,,,,,,
,,,,,,60e758107f8031dce149e796,62c539f2bd5b409f94a2e560,2022-07-06_09h30.25.811,Colour_Asymmetry_Pilot,2022.1.3,Win32,59.24170616,62c50e9c1127f2cd403a315f,0,112,112,55,1,fourthree,,,,,,,,,,,,,,,,,,,,,,,,,,,,,,,,,,,,,,,,,,,,,,,,,,,,,,,,,,,,,,,,,,,,,,,,,,,,,,,,,,,,,,,,,,,,,,,,,,,,,,,,,,,,,,,,,,,,,,,,,,,,,,,,,,,,,,,,,,,,,,,,,,,,,,,,,,,,,
,,,,,,60e758107f8031dce149e796,62c539f2bd5b409f94a2e560,2022-07-06_09h30.25.811,Colour_Asymmetry_Pilot,2022.1.3,Win32,59.24170616,62c50e9c1127f2cd403a315f,0,113,113,74,1,twoone,,,,,,,,,,,,,,,,,,,,,,,,,,,,,,,,,,,,,,,,,,,,,,,,,,,,,,,,,,,,,,,,,,,,,,,,,,,,,,,,,,,,,,,,,,,,,,,,,,,,,,,,,,,,,,,,,,,,,,,,,,,,,,,,,,,,,,,,,,,,,,,,,,,,,,,,,,,,,
,,,,,,60e758107f8031dce149e796,62c539f2bd5b409f94a2e560,2022-07-06_09h30.25.811,Colour_Asymmetry_Pilot,2022.1.3,Win32,59.24170616,62c50e9c1127f2cd403a315f,0,114,114,50,1,twoone,,,,,,,,,,,,,,,,,,,,,,,,,,,,,,,,,,,,,,,,,,,,,,,,,,,,,,,,,,,,,,,,,,,,,,,,,,,,,,,,,,,,,,,,,,,,,,,,,,,,,,,,,,,,,,,,,,,,,,,,,,,,,,,,,,,,,,,,,,,,,,,,,,,,,,,,,,,,,
,,,,,,60e758107f8031dce149e796,62c539f2bd5b409f94a2e560,2022-07-06_09h30.25.811,Colour_Asymmetry_Pilot,2022.1.3,Win32,59.24170616,62c50e9c1127f2cd403a315f,0,115,115,145,1,onethree,,,,,,,,,,,,,,,,,,,,,,,,,,,,,,,,,,,,,,,,,,,,,,,,,,,,,,,,,,,,,,,,,,,,,,,,,,,,,,,,,,,,,,,,,,,,,,,,,,,,,,,,,,,,,,,,,,,,,,,,,,,,,,,,,,,,,,,,,,,,,,,,,,,,,,,,,,,,,
,,,,,,60e758107f8031dce149e796,62c539f2bd5b409f94a2e560,2022-07-06_09h30.25.811,Colour_Asymmetry_Pilot,2022.1.3,Win32,59.24170616,62c50e9c1127f2cd403a315f,0,116,116,135,1,fourthree,,,,,,,,,,,,,,,,,,,,,,,,,,,,,,,,,,,,,,,,,,,,,,,,,,,,,,,,,,,,,,,,,,,,,,,,,,,,,,,,,,,,,,,,,,,,,,,,,,,,,,,,,,,,,,,,,,,,,,,,,,,,,,,,,,,,,,,,,,,,,,,,,,,,,,,,,,,,,
,,,,,,60e758107f8031dce149e796,62c539f2bd5b409f94a2e560,2022-07-06_09h30.25.811,Colour_Asymmetry_Pilot,2022.1.3,Win32,59.24170616,62c50e9c1127f2cd403a315f,0,117,117,124,1,threeone,,,,,,,,,,,,,,,,,,,,,,,,,,,,,,,,,,,,,,,,,,,,,,,,,,,,,,,,,,,,,,,,,,,,,,,,,,,,,,,,,,,,,,,,,,,,,,,,,,,,,,,,,,,,,,,,,,,,,,,,,,,,,,,,,,,,,,,,,,,,,,,,,,,,,,,,,,,,,
,,,,,,60e758107f8031dce149e796,62c539f2bd5b409f94a2e560,2022-07-06_09h30.25.811,Colour_Asymmetry_Pilot,2022.1.3,Win32,59.24170616,62c50e9c1127f2cd403a315f,0,118,118,154,1,twoone,,,,,,,,,,,,,,,,,,,,,,,,,,,,,,,,,,,,,,,,,,,,,,,,,,,,,,,,,,,,,,,,,,,,,,,,,,,,,,,,,,,,,,,,,,,,,,,,,,,,,,,,,,,,,,,,,,,,,,,,,,,,,,,,,,,,,,,,,,,,,,,,,,,,,,,,,,,,,
,,,,,,60e758107f8031dce149e796,62c539f2bd5b409f94a2e560,2022-07-06_09h30.25.811,Colour_Asymmetry_Pilot,2022.1.3,Win32,59.24170616,62c50e9c1127f2cd403a315f,0,119,119,29,1,threefour,,,,,,,,,,,,,,,,,,,,,,,,,,,,,,,,,,,,,,,,,,,,,,,,,,,,,,,,,,,,,,,,,,,,,,,,,,,,,,,,,,,,,,,,,,,,,,,,,,,,,,,,,,,,,,,,,,,,,,,,,,,,,,,,,,,,,,,,,,,,,,,,,,,,,,,,,,,,,
,,,,,,60e758107f8031dce149e796,62c539f2bd5b409f94a2e560,2022-07-06_09h30.25.811,Colour_Asymmetry_Pilot,2022.1.3,Win32,59.24170616,62c50e9c1127f2cd403a315f,0,120,120,86,1,fourtwo,,,,,,,,,,,,,,,,,,,,,,,,,,,,,,,,,,,,,,,,,,,,,,,,,,,,,,,,,,,,,,,,,,,,,,,,,,,,,,,,,,,,,,,,,,,,,,,,,,,,,,,,,,,,,,,,,,,,,,,,,,,,,,,,,,,,,,,,,,,,,,,,,,,,,,,,,,,,,
,,,,,,60e758107f8031dce149e796,62c539f2bd5b409f94a2e560,2022-07-06_09h30.25.811,Colour_Asymmetry_Pilot,2022.1.3,Win32,59.24170616,62c50e9c1127f2cd403a315f,0,121,121,47,1,fourthree,,,,,,,,,,,,,,,,,,,,,,,,,,,,,,,,,,,,,,,,,,,,,,,,,,,,,,,,,,,,,,,,,,,,,,,,,,,,,,,,,,,,,,,,,,,,,,,,,,,,,,,,,,,,,,,,,,,,,,,,,,,,,,,,,,,,,,,,,,,,,,,,,,,,,,,,,,,,,
,,,,,,60e758107f8031dce149e796,62c539f2bd5b409f94a2e560,2022-07-06_09h30.25.811,Colour_Asymmetry_Pilot,2022.1.3,Win32,59.24170616,62c50e9c1127f2cd403a315f,0,122,122,75,1,twofour,,,,,,,,,,,,,,,,,,,,,,,,,,,,,,,,,,,,,,,,,,,,,,,,,,,,,,,,,,,,,,,,,,,,,,,,,,,,,,,,,,,,,,,,,,,,,,,,,,,,,,,,,,,,,,,,,,,,,,,,,,,,,,,,,,,,,,,,,,,,,,,,,,,,,,,,,,,,,
,,,,,,60e758107f8031dce149e796,62c539f2bd5b409f94a2e560,2022-07-06_09h30.25.811,Colour_Asymmetry_Pilot,2022.1.3,Win32,59.24170616,62c50e9c1127f2cd403a315f,0,123,123,138,1,twoone,,,,,,,,,,,,,,,,,,,,,,,,,,,,,,,,,,,,,,,,,,,,,,,,,,,,,,,,,,,,,,,,,,,,,,,,,,,,,,,,,,,,,,,,,,,,,,,,,,,,,,,,,,,,,,,,,,,,,,,,,,,,,,,,,,,,,,,,,,,,,,,,,,,,,,,,,,,,,
,,,,,,60e758107f8031dce149e796,62c539f2bd5b409f94a2e560,2022-07-06_09h30.25.811,Colour_Asymmetry_Pilot,2022.1.3,Win32,59.24170616,62c50e9c1127f2cd403a315f,0,124,124,62,1,fourtwo,,,,,,,,,,,,,,,,,,,,,,,,,,,,,,,,,,,,,,,,,,,,,,,,,,,,,,,,,,,,,,,,,,,,,,,,,,,,,,,,,,,,,,,,,,,,,,,,,,,,,,,,,,,,,,,,,,,,,,,,,,,,,,,,,,,,,,,,,,,,,,,,,,,,,,,,,,,,,
,,,,,,60e758107f8031dce149e796,62c539f2bd5b409f94a2e560,2022-07-06_09h30.25.811,Colour_Asymmetry_Pilot,2022.1.3,Win32,59.24170616,62c50e9c1127f2cd403a315f,0,125,125,159,1,fourthree,,,,,,,,,,,,,,,,,,,,,,,,,,,,,,,,,,,,,,,,,,,,,,,,,,,,,,,,,,,,,,,,,,,,,,,,,,,,,,,,,,,,,,,,,,,,,,,,,,,,,,,,,,,,,,,,,,,,,,,,,,,,,,,,,,,,,,,,,,,,,,,,,,,,,,,,,,,,,
,,,,,,60e758107f8031dce149e796,62c539f2bd5b409f94a2e560,2022-07-06_09h30.25.811,Colour_Asymmetry_Pilot,2022.1.3,Win32,59.24170616,62c50e9c1127f2cd403a315f,0,126,126,89,1,onethree,,,,,,,,,,,,,,,,,,,,,,,,,,,,,,,,,,,,,,,,,,,,,,,,,,,,,,,,,,,,,,,,,,,,,,,,,,,,,,,,,,,,,,,,,,,,,,,,,,,,,,,,,,,,,,,,,,,,,,,,,,,,,,,,,,,,,,,,,,,,,,,,,,,,,,,,,,,,,
,,,,,,60e758107f8031dce149e796,62c539f2bd5b409f94a2e560,2022-07-06_09h30.25.811,Colour_Asymmetry_Pilot,2022.1.3,Win32,59.24170616,62c50e9c1127f2cd403a315f,0,127,127,43,1,twofour,,,,,,,,,,,,,,,,,,,,,,,,,,,,,,,,,,,,,,,,,,,,,,,,,,,,,,,,,,,,,,,,,,,,,,,,,,,,,,,,,,,,,,,,,,,,,,,,,,,,,,,,,,,,,,,,,,,,,,,,,,,,,,,,,,,,,,,,,,,,,,,,,,,,,,,,,,,,,
,,,,,,60e758107f8031dce149e796,62c539f2bd5b409f94a2e560,2022-07-06_09h30.25.811,Colour_Asymmetry_Pilot,2022.1.3,Win32,59.24170616,62c50e9c1127f2cd403a315f,0,128,128,158,1,fourtwo,,,,,,,,,,,,,,,,,,,,,,,,,,,,,,,,,,,,,,,,,,,,,,,,,,,,,,,,,,,,,,,,,,,,,,,,,,,,,,,,,,,,,,,,,,,,,,,,,,,,,,,,,,,,,,,,,,,,,,,,,,,,,,,,,,,,,,,,,,,,,,,,,,,,,,,,,,,,,
,,,,,,60e758107f8031dce149e796,62c539f2bd5b409f94a2e560,2022-07-06_09h30.25.811,Colour_Asymmetry_Pilot,2022.1.3,Win32,59.24170616,62c50e9c1127f2cd403a315f,0,129,129,36,1,threeone,,,,,,,,,,,,,,,,,,,,,,,,,,,,,,,,,,,,,,,,,,,,,,,,,,,,,,,,,,,,,,,,,,,,,,,,,,,,,,,,,,,,,,,,,,,,,,,,,,,,,,,,,,,,,,,,,,,,,,,,,,,,,,,,,,,,,,,,,,,,,,,,,,,,,,,,,,,,,
,,,,,,60e758107f8031dce149e796,62c539f2bd5b409f94a2e560,2022-07-06_09h30.25.811,Colour_Asymmetry_Pilot,2022.1.3,Win32,59.24170616,62c50e9c1127f2cd403a315f,0,130,130,66,1,twoone,,,,,,,,,,,,,,,,,,,,,,,,,,,,,,,,,,,,,,,,,,,,,,,,,,,,,,,,,,,,,,,,,,,,,,,,,,,,,,,,,,,,,,,,,,,,,,,,,,,,,,,,,,,,,,,,,,,,,,,,,,,,,,,,,,,,,,,,,,,,,,,,,,,,,,,,,,,,,
,,,,,,60e758107f8031dce149e796,62c539f2bd5b409f94a2e560,2022-07-06_09h30.25.811,Colour_Asymmetry_Pilot,2022.1.3,Win32,59.24170616,62c50e9c1127f2cd403a315f,0,131,131,107,1,twofour,,,,,,,,,,,,,,,,,,,,,,,,,,,,,,,,,,,,,,,,,,,,,,,,,,,,,,,,,,,,,,,,,,,,,,,,,,,,,,,,,,,,,,,,,,,,,,,,,,,,,,,,,,,,,,,,,,,,,,,,,,,,,,,,,,,,,,,,,,,,,,,,,,,,,,,,,,,,,
,,,,,,60e758107f8031dce149e796,62c539f2bd5b409f94a2e560,2022-07-06_09h30.25.811,Colour_Asymmetry_Pilot,2022.1.3,Win32,59.24170616,62c50e9c1127f2cd403a315f,0,132,132,126,1,fourtwo,,,,,,,,,,,,,,,,,,,,,,,,,,,,,,,,,,,,,,,,,,,,,,,,,,,,,,,,,,,,,,,,,,,,,,,,,,,,,,,,,,,,,,,,,,,,,,,,,,,,,,,,,,,,,,,,,,,,,,,,,,,,,,,,,,,,,,,,,,,,,,,,,,,,,,,,,,,,,
,,,,,,60e758107f8031dce149e796,62c539f2bd5b409f94a2e560,2022-07-06_09h30.25.811,Colour_Asymmetry_Pilot,2022.1.3,Win32,59.24170616,62c50e9c1127f2cd403a315f,0,133,133,132,1,threeone,,,,,,,,,,,,,,,,,,,,,,,,,,,,,,,,,,,,,,,,,,,,,,,,,,,,,,,,,,,,,,,,,,,,,,,,,,,,,,,,,,,,,,,,,,,,,,,,,,,,,,,,,,,,,,,,,,,,,,,,,,,,,,,,,,,,,,,,,,,,,,,,,,,,,,,,,,,,,
,,,,,,60e758107f8031dce149e796,62c539f2bd5b409f94a2e560,2022-07-06_09h30.25.811,Colour_Asymmetry_Pilot,2022.1.3,Win32,59.24170616,62c50e9c1127f2cd403a315f,0,134,134,109,1,threefour,,,,,,,,,,,,,,,,,,,,,,,,,,,,,,,,,,,,,,,,,,,,,,,,,,,,,,,,,,,,,,,,,,,,,,,,,,,,,,,,,,,,,,,,,,,,,,,,,,,,,,,,,,,,,,,,,,,,,,,,,,,,,,,,,,,,,,,,,,,,,,,,,,,,,,,,,,,,,
,,,,,,60e758107f8031dce149e796,62c539f2bd5b409f94a2e560,2022-07-06_09h30.25.811,Colour_Asymmetry_Pilot,2022.1.3,Win32,59.24170616,62c50e9c1127f2cd403a315f,0,135,135,151,1,fourthree,,,,,,,,,,,,,,,,,,,,,,,,,,,,,,,,,,,,,,,,,,,,,,,,,,,,,,,,,,,,,,,,,,,,,,,,,,,,,,,,,,,,,,,,,,,,,,,,,,,,,,,,,,,,,,,,,,,,,,,,,,,,,,,,,,,,,,,,,,,,,,,,,,,,,,,,,,,,,
,,,,,,60e758107f8031dce149e796,62c539f2bd5b409f94a2e560,2022-07-06_09h30.25.811,Colour_Asymmetry_Pilot,2022.1.3,Win32,59.24170616,62c50e9c1127f2cd403a315f,0,136,136,142,1,fourtwo,,,,,,,,,,,,,,,,,,,,,,,,,,,,,,,,,,,,,,,,,,,,,,,,,,,,,,,,,,,,,,,,,,,,,,,,,,,,,,,,,,,,,,,,,,,,,,,,,,,,,,,,,,,,,,,,,,,,,,,,,,,,,,,,,,,,,,,,,,,,,,,,,,,,,,,,,,,,,
,,,,,,60e758107f8031dce149e796,62c539f2bd5b409f94a2e560,2022-07-06_09h30.25.811,Colour_Asymmetry_Pilot,2022.1.3,Win32,59.24170616,62c50e9c1127f2cd403a315f,0,137,137,93,1,threefour,,,,,,,,,,,,,,,,,,,,,,,,,,,,,,,,,,,,,,,,,,,,,,,,,,,,,,,,,,,,,,,,,,,,,,,,,,,,,,,,,,,,,,,,,,,,,,,,,,,,,,,,,,,,,,,,,,,,,,,,,,,,,,,,,,,,,,,,,,,,,,,,,,,,,,,,,,,,,
,,,,,,60e758107f8031dce149e796,62c539f2bd5b409f94a2e560,2022-07-06_09h30.25.811,Colour_Asymmetry_Pilot,2022.1.3,Win32,59.24170616,62c50e9c1127f2cd403a315f,0,138,138,3,1,twofour,,,,,,,,,,,,,,,,,,,,,,,,,,,,,,,,,,,,,,,,,,,,,,,,,,,,,,,,,,,,,,,,,,,,,,,,,,,,,,,,,,,,,,,,,,,,,,,,,,,,,,,,,,,,,,,,,,,,,,,,,,,,,,,,,,,,,,,,,,,,,,,,,,,,,,,,,,,,,
,,,,,,60e758107f8031dce149e796,62c539f2bd5b409f94a2e560,2022-07-06_09h30.25.811,Colour_Asymmetry_Pilot,2022.1.3,Win32,59.24170616,62c50e9c1127f2cd403a315f,0,139,139,130,1,twoone,,,,,,,,,,,,,,,,,,,,,,,,,,,,,,,,,,,,,,,,,,,,,,,,,,,,,,,,,,,,,,,,,,,,,,,,,,,,,,,,,,,,,,,,,,,,,,,,,,,,,,,,,,,,,,,,,,,,,,,,,,,,,,,,,,,,,,,,,,,,,,,,,,,,,,,,,,,,,
,,,,,,60e758107f8031dce149e796,62c539f2bd5b409f94a2e560,2022-07-06_09h30.25.811,Colour_Asymmetry_Pilot,2022.1.3,Win32,59.24170616,62c50e9c1127f2cd403a315f,0,140,140,105,1,onethree,,,,,,,,,,,,,,,,,,,,,,,,,,,,,,,,,,,,,,,,,,,,,,,,,,,,,,,,,,,,,,,,,,,,,,,,,,,,,,,,,,,,,,,,,,,,,,,,,,,,,,,,,,,,,,,,,,,,,,,,,,,,,,,,,,,,,,,,,,,,,,,,,,,,,,,,,,,,,
,,,,,,60e758107f8031dce149e796,62c539f2bd5b409f94a2e560,2022-07-06_09h30.25.811,Colour_Asymmetry_Pilot,2022.1.3,Win32,59.24170616,62c50e9c1127f2cd403a315f,0,141,141,85,1,threefour,,,,,,,,,,,,,,,,,,,,,,,,,,,,,,,,,,,,,,,,,,,,,,,,,,,,,,,,,,,,,,,,,,,,,,,,,,,,,,,,,,,,,,,,,,,,,,,,,,,,,,,,,,,,,,,,,,,,,,,,,,,,,,,,,,,,,,,,,,,,,,,,,,,,,,,,,,,,,
,,,,,,60e758107f8031dce149e796,62c539f2bd5b409f94a2e560,2022-07-06_09h30.25.811,Colour_Asymmetry_Pilot,2022.1.3,Win32,59.24170616,62c50e9c1127f2cd403a315f,0,142,142,104,1,onetwo,,,,,,,,,,,,,,,,,,,,,,,,,,,,,,,,,,,,,,,,,,,,,,,,,,,,,,,,,,,,,,,,,,,,,,,,,,,,,,,,,,,,,,,,,,,,,,,,,,,,,,,,,,,,,,,,,,,,,,,,,,,,,,,,,,,,,,,,,,,,,,,,,,,,,,,,,,,,,
,,,,,,60e758107f8031dce149e796,62c539f2bd5b409f94a2e560,2022-07-06_09h30.25.811,Colour_Asymmetry_Pilot,2022.1.3,Win32,59.24170616,62c50e9c1127f2cd403a315f,0,143,143,92,1,threeone,,,,,,,,,,,,,,,,,,,,,,,,,,,,,,,,,,,,,,,,,,,,,,,,,,,,,,,,,,,,,,,,,,,,,,,,,,,,,,,,,,,,,,,,,,,,,,,,,,,,,,,,,,,,,,,,,,,,,,,,,,,,,,,,,,,,,,,,,,,,,,,,,,,,,,,,,,,,,
,,,,,,60e758107f8031dce149e796,62c539f2bd5b409f94a2e560,2022-07-06_09h30.25.811,Colour_Asymmetry_Pilot,2022.1.3,Win32,59.24170616,62c50e9c1127f2cd403a315f,0,144,144,122,1,twoone,,,,,,,,,,,,,,,,,,,,,,,,,,,,,,,,,,,,,,,,,,,,,,,,,,,,,,,,,,,,,,,,,,,,,,,,,,,,,,,,,,,,,,,,,,,,,,,,,,,,,,,,,,,,,,,,,,,,,,,,,,,,,,,,,,,,,,,,,,,,,,,,,,,,,,,,,,,,,
,,,,,,60e758107f8031dce149e796,62c539f2bd5b409f94a2e560,2022-07-06_09h30.25.811,Colour_Asymmetry_Pilot,2022.1.3,Win32,59.24170616,62c50e9c1127f2cd403a315f,0,145,145,108,1,threeone,,,,,,,,,,,,,,,,,,,,,,,,,,,,,,,,,,,,,,,,,,,,,,,,,,,,,,,,,,,,,,,,,,,,,,,,,,,,,,,,,,,,,,,,,,,,,,,,,,,,,,,,,,,,,,,,,,,,,,,,,,,,,,,,,,,,,,,,,,,,,,,,,,,,,,,,,,,,,
,,,,,,60e758107f8031dce149e796,62c539f2bd5b409f94a2e560,2022-07-06_09h30.25.811,Colour_Asymmetry_Pilot,2022.1.3,Win32,59.24170616,62c50e9c1127f2cd403a315f,0,146,146,31,1,fourthree,,,,,,,,,,,,,,,,,,,,,,,,,,,,,,,,,,,,,,,,,,,,,,,,,,,,,,,,,,,,,,,,,,,,,,,,,,,,,,,,,,,,,,,,,,,,,,,,,,,,,,,,,,,,,,,,,,,,,,,,,,,,,,,,,,,,,,,,,,,,,,,,,,,,,,,,,,,,,
,,,,,,60e758107f8031dce149e796,62c539f2bd5b409f94a2e560,2022-07-06_09h30.25.811,Colour_Asymmetry_Pilot,2022.1.3,Win32,59.24170616,62c50e9c1127f2cd403a315f,0,147,147,116,1,threeone,,,,,,,,,,,,,,,,,,,,,,,,,,,,,,,,,,,,,,,,,,,,,,,,,,,,,,,,,,,,,,,,,,,,,,,,,,,,,,,,,,,,,,,,,,,,,,,,,,,,,,,,,,,,,,,,,,,,,,,,,,,,,,,,,,,,,,,,,,,,,,,,,,,,,,,,,,,,,
,,,,,,60e758107f8031dce149e796,62c539f2bd5b409f94a2e560,2022-07-06_09h30.25.811,Colour_Asymmetry_Pilot,2022.1.3,Win32,59.24170616,62c50e9c1127f2cd403a315f,0,148,148,82,1,twoone,,,,,,,,,,,,,,,,,,,,,,,,,,,,,,,,,,,,,,,,,,,,,,,,,,,,,,,,,,,,,,,,,,,,,,,,,,,,,,,,,,,,,,,,,,,,,,,,,,,,,,,,,,,,,,,,,,,,,,,,,,,,,,,,,,,,,,,,,,,,,,,,,,,,,,,,,,,,,
,,,,,,60e758107f8031dce149e796,62c539f2bd5b409f94a2e560,2022-07-06_09h30.25.811,Colour_Asymmetry_Pilot,2022.1.3,Win32,59.24170616,62c50e9c1127f2cd403a315f,0,149,149,144,1,onetwo,,,,,,,,,,,,,,,,,,,,,,,,,,,,,,,,,,,,,,,,,,,,,,,,,,,,,,,,,,,,,,,,,,,,,,,,,,,,,,,,,,,,,,,,,,,,,,,,,,,,,,,,,,,,,,,,,,,,,,,,,,,,,,,,,,,,,,,,,,,,,,,,,,,,,,,,,,,,,
,,,,,,60e758107f8031dce149e796,62c539f2bd5b409f94a2e560,2022-07-06_09h30.25.811,Colour_Asymmetry_Pilot,2022.1.3,Win32,59.24170616,62c50e9c1127f2cd403a315f,0,150,150,81,1,onethree,,,,,,,,,,,,,,,,,,,,,,,,,,,,,,,,,,,,,,,,,,,,,,,,,,,,,,,,,,,,,,,,,,,,,,,,,,,,,,,,,,,,,,,,,,,,,,,,,,,,,,,,,,,,,,,,,,,,,,,,,,,,,,,,,,,,,,,,,,,,,,,,,,,,,,,,,,,,,
,,,,,,60e758107f8031dce149e796,62c539f2bd5b409f94a2e560,2022-07-06_09h30.25.811,Colour_Asymmetry_Pilot,2022.1.3,Win32,59.24170616,62c50e9c1127f2cd403a315f,0,151,151,67,1,twofour,,,,,,,,,,,,,,,,,,,,,,,,,,,,,,,,,,,,,,,,,,,,,,,,,,,,,,,,,,,,,,,,,,,,,,,,,,,,,,,,,,,,,,,,,,,,,,,,,,,,,,,,,,,,,,,,,,,,,,,,,,,,,,,,,,,,,,,,,,,,,,,,,,,,,,,,,,,,,
,,,,,,60e758107f8031dce149e796,62c539f2bd5b409f94a2e560,2022-07-06_09h30.25.811,Colour_Asymmetry_Pilot,2022.1.3,Win32,59.24170616,62c50e9c1127f2cd403a315f,0,152,152,39,1,fourthree,,,,,,,,,,,,,,,,,,,,,,,,,,,,,,,,,,,,,,,,,,,,,,,,,,,,,,,,,,,,,,,,,,,,,,,,,,,,,,,,,,,,,,,,,,,,,,,,,,,,,,,,,,,,,,,,,,,,,,,,,,,,,,,,,,,,,,,,,,,,,,,,,,,,,,,,,,,,,
,,,,,,60e758107f8031dce149e796,62c539f2bd5b409f94a2e560,2022-07-06_09h30.25.811,Colour_Asymmetry_Pilot,2022.1.3,Win32,59.24170616,62c50e9c1127f2cd403a315f,0,153,153,157,1,threefour,,,,,,,,,,,,,,,,,,,,,,,,,,,,,,,,,,,,,,,,,,,,,,,,,,,,,,,,,,,,,,,,,,,,,,,,,,,,,,,,,,,,,,,,,,,,,,,,,,,,,,,,,,,,,,,,,,,,,,,,,,,,,,,,,,,,,,,,,,,,,,,,,,,,,,,,,,,,,
,,,,,,60e758107f8031dce149e796,62c539f2bd5b409f94a2e560,2022-07-06_09h30.25.811,Colour_Asymmetry_Pilot,2022.1.3,Win32,59.24170616,62c50e9c1127f2cd403a315f,0,154,154,11,1,twofour,,,,,,,,,,,,,,,,,,,,,,,,,,,,,,,,,,,,,,,,,,,,,,,,,,,,,,,,,,,,,,,,,,,,,,,,,,,,,,,,,,,,,,,,,,,,,,,,,,,,,,,,,,,,,,,,,,,,,,,,,,,,,,,,,,,,,,,,,,,,,,,,,,,,,,,,,,,,,
,,,,,,60e758107f8031dce149e796,62c539f2bd5b409f94a2e560,2022-07-06_09h30.25.811,Colour_Asymmetry_Pilot,2022.1.3,Win32,59.24170616,62c50e9c1127f2cd403a315f,0,155,155,7,1,fourthree,,,,,,,,,,,,,,,,,,,,,,,,,,,,,,,,,,,,,,,,,,,,,,,,,,,,,,,,,,,,,,,,,,,,,,,,,,,,,,,,,,,,,,,,,,,,,,,,,,,,,,,,,,,,,,,,,,,,,,,,,,,,,,,,,,,,,,,,,,,,,,,,,,,,,,,,,,,,,
,,,,,,60e758107f8031dce149e796,62c539f2bd5b409f94a2e560,2022-07-06_09h30.25.811,Colour_Asymmetry_Pilot,2022.1.3,Win32,59.24170616,62c50e9c1127f2cd403a315f,0,156,156,48,1,onetwo,,,,,,,,,,,,,,,,,,,,,,,,,,,,,,,,,,,,,,,,,,,,,,,,,,,,,,,,,,,,,,,,,,,,,,,,,,,,,,,,,,,,,,,,,,,,,,,,,,,,,,,,,,,,,,,,,,,,,,,,,,,,,,,,,,,,,,,,,,,,,,,,,,,,,,,,,,,,,
,,,,,,60e758107f8031dce149e796,62c539f2bd5b409f94a2e560,2022-07-06_09h30.25.811,Colour_Asymmetry_Pilot,2022.1.3,Win32,59.24170616,62c50e9c1127f2cd403a315f,0,157,157,117,1,threefour,,,,,,,,,,,,,,,,,,,,,,,,,,,,,,,,,,,,,,,,,,,,,,,,,,,,,,,,,,,,,,,,,,,,,,,,,,,,,,,,,,,,,,,,,,,,,,,,,,,,,,,,,,,,,,,,,,,,,,,,,,,,,,,,,,,,,,,,,,,,,,,,,,,,,,,,,,,,,
,,,,,,60e758107f8031dce149e796,62c539f2bd5b409f94a2e560,2022-07-06_09h30.25.811,Colour_Asymmetry_Pilot,2022.1.3,Win32,59.24170616,62c50e9c1127f2cd403a315f,0,158,158,26,1,twoone,,,,,,,,,,,,,,,,,,,,,,,,,,,,,,,,,,,,,,,,,,,,,,,,,,,,,,,,,,,,,,,,,,,,,,,,,,,,,,,,,,,,,,,,,,,,,,,,,,,,,,,,,,,,,,,,,,,,,,,,,,,,,,,,,,,,,,,,,,,,,,,,,,,,,,,,,,,,,
,,,,,,60e758107f8031dce149e796,62c539f2bd5b409f94a2e560,2022-07-06_09h30.25.811,Colour_Asymmetry_Pilot,2022.1.3,Win32,59.24170616,62c50e9c1127f2cd403a315f,0,159,159,123,1,twofour,,,,,,,,,,,,,,,,,,,,,,,,,,,,,,,,,,,,,,,,,,,,,,,,,,,,,,,,,,,,,,,,,,,,,,,,,,,,,,,,,,,,,,,,,,,,,,,,,,,,,,,,,,,,,,,,,,,,,,,,,,,,,,,,,,,,,,,,,,,,,,,,,,,,,,,,,,,,,
,,,,,,60e758107f8031dce149e796,62c539f2bd5b409f94a2e560,2022-07-06_09h30.25.811,Colour_Asymmetry_Pilot,2022.1.3,Win32,59.24170616,62c50e9c1127f2cd403a315f,0,160,160,53,1,threefour,,,,,,,,,,,,,,,,,,,,,,,,,,,,,,,,,,,,,,,,,,,,,,,,,,,,,,,,,,,,,,,,,,,,,,,,,,,,,,,,,,,,,,,,,,,,,,,,,,,,,,,,,,,,,,,,,,,,,,,,,,,,,,,,,,,,,,,,,,,,,,,,,,,,,,,,,,,,,
,,,,,,60e758107f8031dce149e796,62c539f2bd5b409f94a2e560,2022-07-06_09h30.25.811,Colour_Asymmetry_Pilot,2022.1.3,Win32,59.24170616,62c50e9c1127f2cd403a315f,0,161,161,131,1,twofour,,,,,,,,,,,,,,,,,,,,,,,,,,,,,,,,,,,,,,,,,,,,,,,,,,,,,,,,,,,,,,,,,,,,,,,,,,,,,,,,,,,,,,,,,,,,,,,,,,,,,,,,,,,,,,,,,,,,,,,,,,,,,,,,,,,,,,,,,,,,,,,,,,,,,,,,,,,,,
,,,,,,60e758107f8031dce149e796,62c539f2bd5b409f94a2e560,2022-07-06_09h30.25.811,Colour_Asymmetry_Pilot,2022.1.3,Win32,59.24170616,62c50e9c1127f2cd403a315f,,,,,,,space,3.3266,space,88.6026,space,326.8781,space,53.7128,space,6.4563,space,25.2469,"[-0.9766,-0.6472,0.07440000000000002]",threefour,"[0.12939999999999996,-0.2864,0.3253999999999999]",2,31.0098,79,-44,1,0,0,response3disk_5,-7,1,1,0,0,rectangle_8,-7,1,1,0,0,1,-7,1,1,0,0,0,0,0,0,1,,,,,,,,,,,,,,,,,,,,,,,,,,,,,,,,,,,,,,,,,,,,,,,,,,,,,,,,,,,,,,,,,,,,,,,,,,,,,,,,,,,,,,,,,,,,,,,,,,,,,,,,,,,,,,,,
,,,,,,60e758107f8031dce149e796,62c539f2bd5b409f94a2e560,2022-07-06_09h30.25.811,Colour_Asymmetry_Pilot,2022.1.3,Win32,59.24170616,62c50e9c1127f2cd403a315f,,,,,,,,,,,,,,,,,,,"[-0.5922000000000001,-0.7492000000000001,-0.5296000000000001]",onethree,"[-0.4902000000000001,0.2704,-0.45899999999999996]",-4,3.8484,-42,81,1,0,0,response7disk_5,-6,5,1,0,0,rectangle_8,56,-97,1,0,0,1,-6,3,1,0,0,1,0,1,0,1,response3disk_7,4,rectangle_4,,,,,,,,,,,,,,,,,,,,,,,,,,,,,,,,,,,,,,,,,,,,,,,,,,,,,,,,,,,,,,,,,,,,,,,,,,,,,,,,,,,,,,,,,,,,,,,,,,,,,,,,,,,,,
,,,,,,60e758107f8031dce149e796,62c539f2bd5b409f94a2e560,2022-07-06_09h30.25.811,Colour_Asymmetry_Pilot,2022.1.3,Win32,59.24170616,62c50e9c1127f2cd403a315f,,,,,,,,,,,,,,,,,,,"[-0.26280000000000003,-0.4746,-0.2158]",fourtwo,"[0.7646000000000002,0.07440000000000002,0.2704]",2,6.5658,63,-27,1,0,0,response3disk_5,-1,-9,1,0,0,rectangle_8,-1,-9,1,0,0,1,-1,-9,1,0,0,2,0,2,0,1,,,,,,,,,,,,,,,,,,,,,,,,,,,,,,,,,,,,,,,,,,,,,,,,,,,,,,,,,,,,,,,,,,,,,,,,,,,,,,,,,,,,,,,,,,,,,,,,,,,,,,,,,,,,,,,,
,,,,,,60e758107f8031dce149e796,62c539f2bd5b409f94a2e560,2022-07-06_09h30.25.811,Colour_Asymmetry_Pilot,2022.1.3,Win32,59.24170616,62c50e9c1127f2cd403a315f,,,,,,,,,,,,,,,,,,,"[-0.011800000000000033,-0.906,-0.45100000000000007]",onetwo,"[-0.9844,-0.9688,-0.9922]",4,1.1332,37,93,1,0,0,response1disk_5,18,6,1,0,0,rectangle_8,18,6,1,0,0,1,18,6,1,0,0,3,0,3,0,1,,,,,,,,,,,,,,,,,,,,,,,,,,,,,,,,,,,,,,,,,,,,,,,,,,,,,,,,,,,,,,,,,,,,,,,,,,,,,,,,,,,,,,,,,,,,,,,,,,,,,,,,,,,,,,,,
,,,,,,60e758107f8031dce149e796,62c539f2bd5b409f94a2e560,2022-07-06_09h30.25.811,Colour_Asymmetry_Pilot,2022.1.3,Win32,59.24170616,62c50e9c1127f2cd403a315f,,,,,,,,,,,,,,,,,,,"[0.5449999999999999,-0.31000000000000005,-0.0354000000000001]",fourthree,"[0.2784,-0.31000000000000005,-0.5452]",-3,5.8992,-79,35,1,0,0,response7disk_5,-17,6,1,0,0,rectangle_8,32,-83,1,0,0,1,-11,2,1,0,0,4,0,4,0,1,response3disk_7,4,rectangle_4,,,,,,,,,,,,,,,,,,,,,,,,,,,,,,,,,,,,,,,,,,,,,,,,,,,,,,,,,,,,,,,,,,,,,,,,,,,,,,,,,,,,,,,,,,,,,,,,,,,,,,,,,,,,,
,,,,,,60e758107f8031dce149e796,62c539f2bd5b409f94a2e560,2022-07-06_09h30.25.811,Colour_Asymmetry_Pilot,2022.1.3,Win32,59.24170616,62c50e9c1127f2cd403a315f,,,,,,,,,,,,,,,,,,,"[-0.9138,-0.5296000000000001,-0.5529999999999999]",onethree,"[0.19199999999999995,0.18419999999999992,0.5136000000000001]",1,5.05,37,-94,1,0,0,response3disk_5,-9,6,1,0,0,rectangle_8,-9,6,1,0,0,1,-9,6,1,0,0,5,0,5,0,1,,,,,,,,,,,,,,,,,,,,,,,,,,,,,,,,,,,,,,,,,,,,,,,,,,,,,,,,,,,,,,,,,,,,,,,,,,,,,,,,,,,,,,,,,,,,,,,,,,,,,,,,,,,,,,,,
,,,,,,60e758107f8031dce149e796,62c539f2bd5b409f94a2e560,2022-07-06_09h30.25.811,Colour_Asymmetry_Pilot,2022.1.3,Win32,59.24170616,62c50e9c1127f2cd403a315f,,,,,,,,,,,,,,,,,,,"[0.22340000000000004,-0.9296,-0.7884]",onethree,"[0.12939999999999996,-0.2864,0.3253999999999999]",-3,3.4157,-85,41,1,0,0,response7disk_5,-3,7,1,0,0,rectangle_8,-3,7,1,0,0,1,-3,7,1,0,0,6,0,6,0,1,,,,,,,,,,,,,,,,,,,,,,,,,,,,,,,,,,,,,,,,,,,,,,,,,,,,,,,,,,,,,,,,,,,,,,,,,,,,,,,,,,,,,,,,,,,,,,,,,,,,,,,,,,,,,,,,
,,,,,,60e758107f8031dce149e796,62c539f2bd5b409f94a2e560,2022-07-06_09h30.25.811,Colour_Asymmetry_Pilot,2022.1.3,Win32,59.24170616,62c50e9c1127f2cd403a315f,,,,,,,,,,,,,,,,,,,,fourthree,,2,3.9502,,,,,,,,,,,,,,,,,,,,,,,,,,,,,,,,space,32.8218,"[0.7176,-0.906,-0.6864]","[-0.2942,-0.7648,-0.7492000000000001]",88,-57,1,0,0,response3disk,8,9,1,0,0,rectangle,8,9,1,0,0,,1,0.0036,0,8,9,1,0,0,0,0,0,35,1,35,first,,,,,,,,,,,,,,,,,,,,,,,,,,,,,,,,,,,,,,,,,,,,,,,,,,,,,,,,,,,,,,,,,,,,,,,,
,,,,,,60e758107f8031dce149e796,62c539f2bd5b409f94a2e560,2022-07-06_09h30.25.811,Colour_Asymmetry_Pilot,2022.1.3,Win32,59.24170616,62c50e9c1127f2cd403a315f,,,,,,,,,,,,,,,,,,,,twoone,,4,1.4496,,,,,,,,,,,,,,,,,,,,,,,,,,,,,,,,,,"[-0.30200000000000005,0.14500000000000002,0.2784]","[-0.30200000000000005,0.14500000000000002,0.2784]",60,91,1,0,0,response1disk,17,5,1,0,0,rectangle,17,5,1,0,0,,1,0.002,0,17,5,1,0,0,0,1,1,2,1,2,first,,,,,,,,,,,,,,,,,,,,,,,,,,,,,,,,,,,,,,,,,,,,,,,,,,,,,,,,,,,,,,,,,,,,,,,,
,,,,,,60e758107f8031dce149e796,62c539f2bd5b409f94a2e560,2022-07-06_09h30.25.811,Colour_Asymmetry_Pilot,2022.1.3,Win32,59.24170616,62c50e9c1127f2cd403a315f,,,,,,,,,,,,,,,,,,,,twofour,,1,2.4791,,,,,,,,,,,,,,,,,,,,,,,,,,,,,,,,,,"[0.8274000000000001,-0.5844,-0.9452]","[-0.2942,-0.7648,-0.7492000000000001]",35,-87,1,0,0,response3disk,18,-7,1,0,0,rectangle,18,-7,1,0,0,,2,0.0011,0,18,-7,1,0,0,0,2,2,103,1,22,second,,,,,,,,,,,,,,,,,,,,,,,,,,,,,,,,,,,,,,,,,,,,,,,,,,,,,,,,,,,,,,,,,,,,,,,,
,,,,,,60e758107f8031dce149e796,62c539f2bd5b409f94a2e560,2022-07-06_09h30.25.811,Colour_Asymmetry_Pilot,2022.1.3,Win32,59.24170616,62c50e9c1127f2cd403a315f,,,,,,,,,,,,,,,,,,,,onethree,,-4,1.0819,,,,,,,,,,,,,,,,,,,,,,,,,,,,,,,,,,"[0.2784,-0.31000000000000005,-0.5452]","[-0.9766,-0.6472,0.07440000000000002]",-49,82,1,0,0,response7disk,8,-3,1,0,0,rectangle,8,-3,1,0,0,,2,0.0003,0,8,-3,1,0,0,0,3,3,91,1,10,second,,,,,,,,,,,,,,,,,,,,,,,,,,,,,,,,,,,,,,,,,,,,,,,,,,,,,,,,,,,,,,,,,,,,,,,,
,,,,,,60e758107f8031dce149e796,62c539f2bd5b409f94a2e560,2022-07-06_09h30.25.811,Colour_Asymmetry_Pilot,2022.1.3,Win32,59.24170616,62c50e9c1127f2cd403a315f,,,,,,,,,,,,,,,,,,,,twoone,,-4,3.2497,,,,,,,,,,,,,,,,,,,,,,,,,,,,,,,,,,"[0.8115999999999999,-0.0040000000000000036,-0.09819999999999995]","[-0.2942,-0.24719999999999998,-0.357]",-49,67,1,0,0,response7disk,16,-2,1,0,0,rectangle,92,34,1,0,0,3,3,2.373,1,8,-4,1,0,0,0,4,4,36,1,36,first,response1disk_3,rectangle,,,,,,,,,,,,,,,,,,,,,,,,,,,,,,,,,,,,,,,,,,,,,,,,,,,,,,,,,,,,,,,,,,,,,,
,,,,,,60e758107f8031dce149e796,62c539f2bd5b409f94a2e560,2022-07-06_09h30.25.811,Colour_Asymmetry_Pilot,2022.1.3,Win32,59.24170616,62c50e9c1127f2cd403a315f,,,,,,,,,,,,,,,,,,,,fourtwo,,-4,0.7994,,,,,,,,,,,,,,,,,,,,,,,,,,,,,,,,,,"[0.23120000000000007,-0.7726,-0.34120000000000006]","[0.5528,0.7409999999999999,-0.71]",-35,89,1,0,0,response7disk,16,-4,1,0,0,rectangle,16,-4,1,0,0,3,1,0.002,0,16,-4,1,0,0,0,5,5,0,1,0,first,,,,,,,,,,,,,,,,,,,,,,,,,,,,,,,,,,,,,,,,,,,,,,,,,,,,,,,,,,,,,,,,,,,,,,,,
,,,,,,60e758107f8031dce149e796,62c539f2bd5b409f94a2e560,2022-07-06_09h30.25.811,Colour_Asymmetry_Pilot,2022.1.3,Win32,59.24170616,62c50e9c1127f2cd403a315f,,,,,,,,,,,,,,,,,,,,onethree,,-1,2.3663,,,,,,,,,,,,,,,,,,,,,,,,,,,,,,,,,,"[-0.4746,-0.0354000000000001,0.5449999999999999]","[-0.8198,-0.5138,-0.7492000000000001]",-40,-89,1,0,0,response5disk,6,1,1,0,0,rectangle,6,1,1,0,0,3,3,0.0019,0,6,1,1,0,0,0,6,6,148,1,67,second,,,,,,,,,,,,,,,,,,,,,,,,,,,,,,,,,,,,,,,,,,,,,,,,,,,,,,,,,,,,,,,,,,,,,,,,
,,,,,,60e758107f8031dce149e796,62c539f2bd5b409f94a2e560,2022-07-06_09h30.25.811,Colour_Asymmetry_Pilot,2022.1.3,Win32,59.24170616,62c50e9c1127f2cd403a315f,,,,,,,,,,,,,,,,,,,,twofour,,-3,1.7656,,,,,,,,,,,,,,,,,,,,,,,,,,,,,,,,,,"[-0.4668,-0.8746,-0.2942]","[0.2862,0.7802,0.3568]",-76,30,1,0,0,response7disk,1,9,1,0,0,rectangle,1,9,1,0,0,3,2,0.0017,0,1,9,1,0,0,0,7,7,32,1,32,first,,,,,,,,,,,,,,,,,,,,,,,,,,,,,,,,,,,,,,,,,,,,,,,,,,,,,,,,,,,,,,,,,,,,,,,,
,,,,,,60e758107f8031dce149e796,62c539f2bd5b409f94a2e560,2022-07-06_09h30.25.811,Colour_Asymmetry_Pilot,2022.1.3,Win32,59.24170616,62c50e9c1127f2cd403a315f,,,,,,,,,,,,,,,,,,,,onetwo,,-3,1.1665,,,,,,,,,,,,,,,,,,,,,,,,,,,,,,,,,,"[-0.8198,-0.5138,-0.7492000000000001]","[0.23920000000000008,0.2704,0.16060000000000008]",-75,39,1,0,0,response7disk,-16,8,1,0,0,rectangle,-16,8,1,0,0,3,1,0.0011,0,-16,8,1,0,0,0,8,8,95,1,14,second,,,,,,,,,,,,,,,,,,,,,,,,,,,,,,,,,,,,,,,,,,,,,,,,,,,,,,,,,,,,,,,,,,,,,,,,
,,,,,,60e758107f8031dce149e796,62c539f2bd5b409f94a2e560,2022-07-06_09h30.25.811,Colour_Asymmetry_Pilot,2022.1.3,Win32,59.24170616,62c50e9c1127f2cd403a315f,,,,,,,,,,,,,,,,,,,,twoone,,-3,1.5832,,,,,,,,,,,,,,,,,,,,,,,,,,,,,,,,,,"[-0.4902000000000001,0.2704,-0.45899999999999996]","[0.9763999999999999,0.8588,-0.05900000000000005]",-77,48,1,0,0,response7disk,-15,4,1,0,0,rectangle,-15,4,1,0,0,3,2,0.0013,0,-15,4,1,0,0,0,9,9,63,1,63,first,,,,,,,,,,,,,,,,,,,,,,,,,,,,,,,,,,,,,,,,,,,,,,,,,,,,,,,,,,,,,,,,,,,,,,,,
,,,,,,60e758107f8031dce149e796,62c539f2bd5b409f94a2e560,2022-07-06_09h30.25.811,Colour_Asymmetry_Pilot,2022.1.3,Win32,59.24170616,62c50e9c1127f2cd403a315f,,,,,,,,,,,,,,,,,,,,threefour,,-4,1.9845,,,,,,,,,,,,,,,,,,,,,,,,,,,,,,,,,,"[-0.9688,-0.4902000000000001,-0.12159999999999993]","[0.7802,-0.23140000000000005,-0.20799999999999996]",-39,81,1,0,0,response7disk,11,-1,1,0,0,rectangle,11,-1,1,0,0,3,3,0.002,0,11,-1,1,0,0,0,10,10,115,1,34,second,,,,,,,,,,,,,,,,,,,,,,,,,,,,,,,,,,,,,,,,,,,,,,,,,,,,,,,,,,,,,,,,,,,,,,,,
,,,,,,60e758107f8031dce149e796,62c539f2bd5b409f94a2e560,2022-07-06_09h30.25.811,Colour_Asymmetry_Pilot,2022.1.3,Win32,59.24170616,62c50e9c1127f2cd403a315f,,,,,,,,,,,,,,,,,,,,threeone,,4,10.5472,,,,,,,,,,,,,,,,,,,,,,,,,,,,,,,,,,"[0.6547999999999998,-0.043199999999999905,-0.011800000000000033]","[0.37240000000000006,0.4980000000000002,-0.2864]",35,93,1,0,0,response1disk,7,2,1,0,0,rectangle,7,2,1,0,0,3,1,0.0021,0,7,2,1,0,0,0,11,11,17,1,17,first,,,,,,,,,,,,,,,,,,,,,,,,,,,,,,,,,,,,,,,,,,,,,,,,,,,,,,,,,,,,,,,,,,,,,,,,
,,,,,,60e758107f8031dce149e796,62c539f2bd5b409f94a2e560,2022-07-06_09h30.25.811,Colour_Asymmetry_Pilot,2022.1.3,Win32,59.24170616,62c50e9c1127f2cd403a315f,,,,,,,,,,,,,,,,,,,,threeone,,3,1.0329,,,,,,,,,,,,,,,,,,,,,,,,,,,,,,,,,,"[-0.06680000000000008,-0.45100000000000007,-0.906]","[-0.17659999999999998,-0.2864,-0.8354]",106,43,1,0,0,response1disk,7,0,1,0,0,rectangle,7,0,1,0,0,3,1,0.0005,0,7,0,1,0,0,0,12,12,46,1,46,first,,,,,,,,,,,,,,,,,,,,,,,,,,,,,,,,,,,,,,,,,,,,,,,,,,,,,,,,,,,,,,,,,,,,,,,,
,,,,,,60e758107f8031dce149e796,62c539f2bd5b409f94a2e560,2022-07-06_09h30.25.811,Colour_Asymmetry_Pilot,2022.1.3,Win32,59.24170616,62c50e9c1127f2cd403a315f,,,,,,,,,,,,,,,,,,,,onethree,,-4,1.4994,,,,,,,,,,,,,,,,,,,,,,,,,,,,,,,,,,"[-0.9766,-0.6472,0.07440000000000002]","[-0.06680000000000008,-0.45100000000000007,-0.906]",-62,94,1,0,0,response7disk,12,-4,1,0,0,rectangle,12,-4,1,0,0,3,3,0.0013,0,12,-4,1,0,0,0,13,13,137,1,56,second,,,,,,,,,,,,,,,,,,,,,,,,,,,,,,,,,,,,,,,,,,,,,,,,,,,,,,,,,,,,,,,,,,,,,,,,
,,,,,,60e758107f8031dce149e796,62c539f2bd5b409f94a2e560,2022-07-06_09h30.25.811,Colour_Asymmetry_Pilot,2022.1.3,Win32,59.24170616,62c50e9c1127f2cd403a315f,,,,,,,,,,,,,,,,,,,,fourthree,,-1,3.5326,,,,,,,,,,,,,,,,,,,,,,,,,,,,,,,,,,"[-0.6942,-0.7648,-0.12959999999999994]","[0.09799999999999986,-0.24719999999999998,0.15280000000000005]",-39,-82,1,0,0,response5disk,3,1,1,0,0,rectangle,3,1,1,0,0,3,1,0.0006,0,3,1,1,0,0,0,14,14,40,1,40,first,,,,,,,,,,,,,,,,,,,,,,,,,,,,,,,,,,,,,,,,,,,,,,,,,,,,,,,,,,,,,,,,,,,,,,,,
,,,,,,60e758107f8031dce149e796,62c539f2bd5b409f94a2e560,2022-07-06_09h30.25.811,Colour_Asymmetry_Pilot,2022.1.3,Win32,59.24170616,62c50e9c1127f2cd403a315f,,,,,,,,,,,,,,,,,,,,threeone,,-3,0.8662,,,,,,,,,,,,,,,,,,,,,,,,,,,,,,,,,,"[0.9686000000000001,0.3802000000000001,0.19999999999999996]","[-0.4982,-0.2942,-0.0354000000000001]",-79,54,1,0,0,response7disk,13,3,1,0,0,rectangle,13,3,1,0,0,3,3,0.0023,0,13,3,1,0,0,0,15,15,21,1,21,first,,,,,,,,,,,,,,,,,,,,,,,,,,,,,,,,,,,,,,,,,,,,,,,,,,,,,,,,,,,,,,,,,,,,,,,,
,,,,,,60e758107f8031dce149e796,62c539f2bd5b409f94a2e560,2022-07-06_09h30.25.811,Colour_Asymmetry_Pilot,2022.1.3,Win32,59.24170616,62c50e9c1127f2cd403a315f,,,,,,,,,,,,,,,,,,,,fourthree,,-4,0.9529,,,,,,,,,,,,,,,,,,,,,,,,,,,,,,,,,,"[0.19199999999999995,0.18419999999999992,0.5136000000000001]","[0.30180000000000007,-0.7884,-0.9844]",-49,75,1,0,0,response7disk,17,-2,1,0,0,rectangle,90,52,1,0,0,3,3,1.6338,1,2,10,1,0,0,0,16,16,159,1,78,second,response1disk_3,rectangle,,,,,,,,,,,,,,,,,,,,,,,,,,,,,,,,,,,,,,,,,,,,,,,,,,,,,,,,,,,,,,,,,,,,,,
,,,,,,60e758107f8031dce149e796,62c539f2bd5b409f94a2e560,2022-07-06_09h30.25.811,Colour_Asymmetry_Pilot,2022.1.3,Win32,59.24170616,62c50e9c1127f2cd403a315f,,,,,,,,,,,,,,,,,,,,onetwo,,-3,2.8518,,,,,,,,,,,,,,,,,,,,,,,,,,,,,,,,,,"[0.7802,-0.23140000000000005,-0.20799999999999996]","[0.9372,0.9450000000000001,0.8980000000000001]",-73,27,1,0,0,response7disk,4,2,1,0,0,rectangle,4,2,1,0,0,3,1,0.0015,0,4,2,1,0,0,0,17,17,96,1,15,second,,,,,,,,,,,,,,,,,,,,,,,,,,,,,,,,,,,,,,,,,,,,,,,,,,,,,,,,,,,,,,,,,,,,,,,,
