trials.thisRepN,trials.thisTrialN,trials.thisN,trials.thisIndex,trials.ran,Colourcodes,participant,session,date,expName,psychopyVersion,OS,frameRate,study_id,trials_4.thisRepN,trials_4.thisTrialN,trials_4.thisN,trials_4.thisIndex,trials_4.ran,StimulusPos,key_resp.keys,key_resp.rt,key_resp_2.keys,key_resp_2.rt,key_resp_15.keys,key_resp_15.rt,key_resp_17.keys,key_resp_17.rt,key_resp_9.keys,key_resp_9.rt,key_resp_10.keys,key_resp_10.rt,Circle1_col,Ecc,Circle2_col,similarity,response_time,mouse_5.x,mouse_5.y,mouse_5.leftButton,mouse_5.midButton,mouse_5.rightButton,mouse_5.clicked_name,mouse_10.x,mouse_10.y,mouse_10.leftButton,mouse_10.midButton,mouse_10.rightButton,mouse_10.clicked_name,mouse_7.x,mouse_7.y,mouse_7.leftButton,mouse_7.midButton,mouse_7.rightButton,catchnumberprac,mouse_6.x,mouse_6.y,mouse_6.leftButton,mouse_6.midButton,mouse_6.rightButton,duringprac.thisRepN,duringprac.thisTrialN,duringprac.thisN,duringprac.thisIndex,duringprac.ran,mouse_7.clicked_name,catchprac,mouse_6.clicked_name,key_resp_22.keys,key_resp_22.rt,Circle1_colour,Circle2_colour,mouse.x,mouse.y,mouse.leftButton,mouse.midButton,mouse.rightButton,mouse.clicked_name,mouse_2.x,mouse_2.y,mouse_2.leftButton,mouse_2.midButton,mouse_2.rightButton,mouse_2.clicked_name,mouse_3.x,mouse_3.y,mouse_3.leftButton,mouse_3.midButton,mouse_3.rightButton,catchresponse,catchnumber,response_time_catch,Catch,mouse_11.x,mouse_11.y,mouse_11.leftButton,mouse_11.midButton,mouse_11.rightButton,trials_2.thisRepN,trials_2.thisTrialN,trials_2.thisN,trials_2.thisIndex,trials_2.ran,Colourpair,Temporder,mouse_3.clicked_name,mouse_11.clicked_name,trials_3.thisRepN,trials_3.thisTrialN,trials_3.thisN,trials_3.thisIndex,trials_3.ran,key_resp_instr_Ishi.keys,key_resp_instr_Ishi.rt,Ishi_trial_keyresp.keys,Ishi_textbox.text,Ishi_mouse.x,Ishi_mouse.y,Ishi_mouse.leftButton,Ishi_mouse.midButton,Ishi_mouse.rightButton,Ishi_mouse.clicked_name,Ishi_loop.thisRepN,Ishi_loop.thisTrialN,Ishi_loop.thisN,Ishi_loop.thisIndex,Ishi_loop.ran,imageaddress,textbox.text,mouse_4.x,mouse_4.y,mouse_4.leftButton,mouse_4.midButton,mouse_4.rightButton,mouse_4.clicked_name,textbox_2.text,mouse_8.x,mouse_8.y,mouse_8.leftButton,mouse_8.midButton,mouse_8.rightButton,mouse_8.clicked_name,textbox_3.text,mouse_9.x,mouse_9.y,mouse_9.leftButton,mouse_9.midButton,mouse_9.rightButton,mouse_9.clicked_name,textbox_4.text,mouse_12.x,mouse_12.y,mouse_12.leftButton,mouse_12.midButton,mouse_12.rightButton,mouse_12.clicked_name,textbox_5.text,mouse_13.x,mouse_13.y,mouse_13.leftButton,mouse_13.midButton,mouse_13.rightButton,mouse_13.clicked_name,textbox_6.text,mouse_14.x,mouse_14.y,mouse_14.leftButton,mouse_14.midButton,mouse_14.rightButton,textbox_7.text,mouse_15.x,mouse_15.y,mouse_15.leftButton,mouse_15.midButton,mouse_15.rightButton,mouse_15.clicked_name
0,0,0,27,1,,5eb471789686d82c24661cb3,62c5398412ed07e8cbef830e,2022-07-06_02h28.40.387,Colour_Asymmetry_Pilot,2022.1.3,Win32,59.95203837,62c50e9c1127f2cd403a315f,,,,,,,,,,,,,,,,,,,,,,,,,,,,,,,,,,,,,,,,,,,,,,,,,,,,,,,,,,,,,,,,,,,,,,,,,,,,,,,,,,,,,,,,,,,,,,,,,,,,,,,,,,,,,,,,,,,,,,,,,,,,,,,,,,,,,,,,,,,,,,,,,,,,,,,,,,,,,,,,,,
0,1,1,79,1,,5eb471789686d82c24661cb3,62c5398412ed07e8cbef830e,2022-07-06_02h28.40.387,Colour_Asymmetry_Pilot,2022.1.3,Win32,59.95203837,62c50e9c1127f2cd403a315f,,,,,,,,,,,,,,,,,,,,,,,,,,,,,,,,,,,,,,,,,,,,,,,,,,,,,,,,,,,,,,,,,,,,,,,,,,,,,,,,,,,,,,,,,,,,,,,,,,,,,,,,,,,,,,,,,,,,,,,,,,,,,,,,,,,,,,,,,,,,,,,,,,,,,,,,,,,,,,,,,,
0,2,2,41,1,,5eb471789686d82c24661cb3,62c5398412ed07e8cbef830e,2022-07-06_02h28.40.387,Colour_Asymmetry_Pilot,2022.1.3,Win32,59.95203837,62c50e9c1127f2cd403a315f,,,,,,,,,,,,,,,,,,,,,,,,,,,,,,,,,,,,,,,,,,,,,,,,,,,,,,,,,,,,,,,,,,,,,,,,,,,,,,,,,,,,,,,,,,,,,,,,,,,,,,,,,,,,,,,,,,,,,,,,,,,,,,,,,,,,,,,,,,,,,,,,,,,,,,,,,,,,,,,,,,
0,3,3,83,1,,5eb471789686d82c24661cb3,62c5398412ed07e8cbef830e,2022-07-06_02h28.40.387,Colour_Asymmetry_Pilot,2022.1.3,Win32,59.95203837,62c50e9c1127f2cd403a315f,,,,,,,,,,,,,,,,,,,,,,,,,,,,,,,,,,,,,,,,,,,,,,,,,,,,,,,,,,,,,,,,,,,,,,,,,,,,,,,,,,,,,,,,,,,,,,,,,,,,,,,,,,,,,,,,,,,,,,,,,,,,,,,,,,,,,,,,,,,,,,,,,,,,,,,,,,,,,,,,,,
0,4,4,22,1,,5eb471789686d82c24661cb3,62c5398412ed07e8cbef830e,2022-07-06_02h28.40.387,Colour_Asymmetry_Pilot,2022.1.3,Win32,59.95203837,62c50e9c1127f2cd403a315f,,,,,,,,,,,,,,,,,,,,,,,,,,,,,,,,,,,,,,,,,,,,,,,,,,,,,,,,,,,,,,,,,,,,,,,,,,,,,,,,,,,,,,,,,,,,,,,,,,,,,,,,,,,,,,,,,,,,,,,,,,,,,,,,,,,,,,,,,,,,,,,,,,,,,,,,,,,,,,,,,,
0,5,5,11,1,,5eb471789686d82c24661cb3,62c5398412ed07e8cbef830e,2022-07-06_02h28.40.387,Colour_Asymmetry_Pilot,2022.1.3,Win32,59.95203837,62c50e9c1127f2cd403a315f,,,,,,,,,,,,,,,,,,,,,,,,,,,,,,,,,,,,,,,,,,,,,,,,,,,,,,,,,,,,,,,,,,,,,,,,,,,,,,,,,,,,,,,,,,,,,,,,,,,,,,,,,,,,,,,,,,,,,,,,,,,,,,,,,,,,,,,,,,,,,,,,,,,,,,,,,,,,,,,,,,
0,6,6,69,1,,5eb471789686d82c24661cb3,62c5398412ed07e8cbef830e,2022-07-06_02h28.40.387,Colour_Asymmetry_Pilot,2022.1.3,Win32,59.95203837,62c50e9c1127f2cd403a315f,,,,,,,,,,,,,,,,,,,,,,,,,,,,,,,,,,,,,,,,,,,,,,,,,,,,,,,,,,,,,,,,,,,,,,,,,,,,,,,,,,,,,,,,,,,,,,,,,,,,,,,,,,,,,,,,,,,,,,,,,,,,,,,,,,,,,,,,,,,,,,,,,,,,,,,,,,,,,,,,,,
0,7,7,46,1,,5eb471789686d82c24661cb3,62c5398412ed07e8cbef830e,2022-07-06_02h28.40.387,Colour_Asymmetry_Pilot,2022.1.3,Win32,59.95203837,62c50e9c1127f2cd403a315f,,,,,,,,,,,,,,,,,,,,,,,,,,,,,,,,,,,,,,,,,,,,,,,,,,,,,,,,,,,,,,,,,,,,,,,,,,,,,,,,,,,,,,,,,,,,,,,,,,,,,,,,,,,,,,,,,,,,,,,,,,,,,,,,,,,,,,,,,,,,,,,,,,,,,,,,,,,,,,,,,,
0,8,8,6,1,,5eb471789686d82c24661cb3,62c5398412ed07e8cbef830e,2022-07-06_02h28.40.387,Colour_Asymmetry_Pilot,2022.1.3,Win32,59.95203837,62c50e9c1127f2cd403a315f,,,,,,,,,,,,,,,,,,,,,,,,,,,,,,,,,,,,,,,,,,,,,,,,,,,,,,,,,,,,,,,,,,,,,,,,,,,,,,,,,,,,,,,,,,,,,,,,,,,,,,,,,,,,,,,,,,,,,,,,,,,,,,,,,,,,,,,,,,,,,,,,,,,,,,,,,,,,,,,,,,
0,9,9,39,1,,5eb471789686d82c24661cb3,62c5398412ed07e8cbef830e,2022-07-06_02h28.40.387,Colour_Asymmetry_Pilot,2022.1.3,Win32,59.95203837,62c50e9c1127f2cd403a315f,,,,,,,,,,,,,,,,,,,,,,,,,,,,,,,,,,,,,,,,,,,,,,,,,,,,,,,,,,,,,,,,,,,,,,,,,,,,,,,,,,,,,,,,,,,,,,,,,,,,,,,,,,,,,,,,,,,,,,,,,,,,,,,,,,,,,,,,,,,,,,,,,,,,,,,,,,,,,,,,,,
0,10,10,50,1,,5eb471789686d82c24661cb3,62c5398412ed07e8cbef830e,2022-07-06_02h28.40.387,Colour_Asymmetry_Pilot,2022.1.3,Win32,59.95203837,62c50e9c1127f2cd403a315f,,,,,,,,,,,,,,,,,,,,,,,,,,,,,,,,,,,,,,,,,,,,,,,,,,,,,,,,,,,,,,,,,,,,,,,,,,,,,,,,,,,,,,,,,,,,,,,,,,,,,,,,,,,,,,,,,,,,,,,,,,,,,,,,,,,,,,,,,,,,,,,,,,,,,,,,,,,,,,,,,,
0,11,11,52,1,,5eb471789686d82c24661cb3,62c5398412ed07e8cbef830e,2022-07-06_02h28.40.387,Colour_Asymmetry_Pilot,2022.1.3,Win32,59.95203837,62c50e9c1127f2cd403a315f,,,,,,,,,,,,,,,,,,,,,,,,,,,,,,,,,,,,,,,,,,,,,,,,,,,,,,,,,,,,,,,,,,,,,,,,,,,,,,,,,,,,,,,,,,,,,,,,,,,,,,,,,,,,,,,,,,,,,,,,,,,,,,,,,,,,,,,,,,,,,,,,,,,,,,,,,,,,,,,,,,
0,12,12,86,1,,5eb471789686d82c24661cb3,62c5398412ed07e8cbef830e,2022-07-06_02h28.40.387,Colour_Asymmetry_Pilot,2022.1.3,Win32,59.95203837,62c50e9c1127f2cd403a315f,,,,,,,,,,,,,,,,,,,,,,,,,,,,,,,,,,,,,,,,,,,,,,,,,,,,,,,,,,,,,,,,,,,,,,,,,,,,,,,,,,,,,,,,,,,,,,,,,,,,,,,,,,,,,,,,,,,,,,,,,,,,,,,,,,,,,,,,,,,,,,,,,,,,,,,,,,,,,,,,,,
0,13,13,47,1,,5eb471789686d82c24661cb3,62c5398412ed07e8cbef830e,2022-07-06_02h28.40.387,Colour_Asymmetry_Pilot,2022.1.3,Win32,59.95203837,62c50e9c1127f2cd403a315f,,,,,,,,,,,,,,,,,,,,,,,,,,,,,,,,,,,,,,,,,,,,,,,,,,,,,,,,,,,,,,,,,,,,,,,,,,,,,,,,,,,,,,,,,,,,,,,,,,,,,,,,,,,,,,,,,,,,,,,,,,,,,,,,,,,,,,,,,,,,,,,,,,,,,,,,,,,,,,,,,,
0,14,14,67,1,,5eb471789686d82c24661cb3,62c5398412ed07e8cbef830e,2022-07-06_02h28.40.387,Colour_Asymmetry_Pilot,2022.1.3,Win32,59.95203837,62c50e9c1127f2cd403a315f,,,,,,,,,,,,,,,,,,,,,,,,,,,,,,,,,,,,,,,,,,,,,,,,,,,,,,,,,,,,,,,,,,,,,,,,,,,,,,,,,,,,,,,,,,,,,,,,,,,,,,,,,,,,,,,,,,,,,,,,,,,,,,,,,,,,,,,,,,,,,,,,,,,,,,,,,,,,,,,,,,
0,15,15,8,1,,5eb471789686d82c24661cb3,62c5398412ed07e8cbef830e,2022-07-06_02h28.40.387,Colour_Asymmetry_Pilot,2022.1.3,Win32,59.95203837,62c50e9c1127f2cd403a315f,,,,,,,,,,,,,,,,,,,,,,,,,,,,,,,,,,,,,,,,,,,,,,,,,,,,,,,,,,,,,,,,,,,,,,,,,,,,,,,,,,,,,,,,,,,,,,,,,,,,,,,,,,,,,,,,,,,,,,,,,,,,,,,,,,,,,,,,,,,,,,,,,,,,,,,,,,,,,,,,,,
0,16,16,14,1,,5eb471789686d82c24661cb3,62c5398412ed07e8cbef830e,2022-07-06_02h28.40.387,Colour_Asymmetry_Pilot,2022.1.3,Win32,59.95203837,62c50e9c1127f2cd403a315f,,,,,,,,,,,,,,,,,,,,,,,,,,,,,,,,,,,,,,,,,,,,,,,,,,,,,,,,,,,,,,,,,,,,,,,,,,,,,,,,,,,,,,,,,,,,,,,,,,,,,,,,,,,,,,,,,,,,,,,,,,,,,,,,,,,,,,,,,,,,,,,,,,,,,,,,,,,,,,,,,,
0,17,17,10,1,,5eb471789686d82c24661cb3,62c5398412ed07e8cbef830e,2022-07-06_02h28.40.387,Colour_Asymmetry_Pilot,2022.1.3,Win32,59.95203837,62c50e9c1127f2cd403a315f,,,,,,,,,,,,,,,,,,,,,,,,,,,,,,,,,,,,,,,,,,,,,,,,,,,,,,,,,,,,,,,,,,,,,,,,,,,,,,,,,,,,,,,,,,,,,,,,,,,,,,,,,,,,,,,,,,,,,,,,,,,,,,,,,,,,,,,,,,,,,,,,,,,,,,,,,,,,,,,,,,
0,18,18,42,1,,5eb471789686d82c24661cb3,62c5398412ed07e8cbef830e,2022-07-06_02h28.40.387,Colour_Asymmetry_Pilot,2022.1.3,Win32,59.95203837,62c50e9c1127f2cd403a315f,,,,,,,,,,,,,,,,,,,,,,,,,,,,,,,,,,,,,,,,,,,,,,,,,,,,,,,,,,,,,,,,,,,,,,,,,,,,,,,,,,,,,,,,,,,,,,,,,,,,,,,,,,,,,,,,,,,,,,,,,,,,,,,,,,,,,,,,,,,,,,,,,,,,,,,,,,,,,,,,,,
0,19,19,64,1,,5eb471789686d82c24661cb3,62c5398412ed07e8cbef830e,2022-07-06_02h28.40.387,Colour_Asymmetry_Pilot,2022.1.3,Win32,59.95203837,62c50e9c1127f2cd403a315f,,,,,,,,,,,,,,,,,,,,,,,,,,,,,,,,,,,,,,,,,,,,,,,,,,,,,,,,,,,,,,,,,,,,,,,,,,,,,,,,,,,,,,,,,,,,,,,,,,,,,,,,,,,,,,,,,,,,,,,,,,,,,,,,,,,,,,,,,,,,,,,,,,,,,,,,,,,,,,,,,,
0,20,20,66,1,,5eb471789686d82c24661cb3,62c5398412ed07e8cbef830e,2022-07-06_02h28.40.387,Colour_Asymmetry_Pilot,2022.1.3,Win32,59.95203837,62c50e9c1127f2cd403a315f,,,,,,,,,,,,,,,,,,,,,,,,,,,,,,,,,,,,,,,,,,,,,,,,,,,,,,,,,,,,,,,,,,,,,,,,,,,,,,,,,,,,,,,,,,,,,,,,,,,,,,,,,,,,,,,,,,,,,,,,,,,,,,,,,,,,,,,,,,,,,,,,,,,,,,,,,,,,,,,,,,
0,21,21,60,1,,5eb471789686d82c24661cb3,62c5398412ed07e8cbef830e,2022-07-06_02h28.40.387,Colour_Asymmetry_Pilot,2022.1.3,Win32,59.95203837,62c50e9c1127f2cd403a315f,,,,,,,,,,,,,,,,,,,,,,,,,,,,,,,,,,,,,,,,,,,,,,,,,,,,,,,,,,,,,,,,,,,,,,,,,,,,,,,,,,,,,,,,,,,,,,,,,,,,,,,,,,,,,,,,,,,,,,,,,,,,,,,,,,,,,,,,,,,,,,,,,,,,,,,,,,,,,,,,,,
0,22,22,57,1,,5eb471789686d82c24661cb3,62c5398412ed07e8cbef830e,2022-07-06_02h28.40.387,Colour_Asymmetry_Pilot,2022.1.3,Win32,59.95203837,62c50e9c1127f2cd403a315f,,,,,,,,,,,,,,,,,,,,,,,,,,,,,,,,,,,,,,,,,,,,,,,,,,,,,,,,,,,,,,,,,,,,,,,,,,,,,,,,,,,,,,,,,,,,,,,,,,,,,,,,,,,,,,,,,,,,,,,,,,,,,,,,,,,,,,,,,,,,,,,,,,,,,,,,,,,,,,,,,,
0,23,23,5,1,,5eb471789686d82c24661cb3,62c5398412ed07e8cbef830e,2022-07-06_02h28.40.387,Colour_Asymmetry_Pilot,2022.1.3,Win32,59.95203837,62c50e9c1127f2cd403a315f,,,,,,,,,,,,,,,,,,,,,,,,,,,,,,,,,,,,,,,,,,,,,,,,,,,,,,,,,,,,,,,,,,,,,,,,,,,,,,,,,,,,,,,,,,,,,,,,,,,,,,,,,,,,,,,,,,,,,,,,,,,,,,,,,,,,,,,,,,,,,,,,,,,,,,,,,,,,,,,,,,
0,24,24,56,1,,5eb471789686d82c24661cb3,62c5398412ed07e8cbef830e,2022-07-06_02h28.40.387,Colour_Asymmetry_Pilot,2022.1.3,Win32,59.95203837,62c50e9c1127f2cd403a315f,,,,,,,,,,,,,,,,,,,,,,,,,,,,,,,,,,,,,,,,,,,,,,,,,,,,,,,,,,,,,,,,,,,,,,,,,,,,,,,,,,,,,,,,,,,,,,,,,,,,,,,,,,,,,,,,,,,,,,,,,,,,,,,,,,,,,,,,,,,,,,,,,,,,,,,,,,,,,,,,,,
0,25,25,88,1,,5eb471789686d82c24661cb3,62c5398412ed07e8cbef830e,2022-07-06_02h28.40.387,Colour_Asymmetry_Pilot,2022.1.3,Win32,59.95203837,62c50e9c1127f2cd403a315f,,,,,,,,,,,,,,,,,,,,,,,,,,,,,,,,,,,,,,,,,,,,,,,,,,,,,,,,,,,,,,,,,,,,,,,,,,,,,,,,,,,,,,,,,,,,,,,,,,,,,,,,,,,,,,,,,,,,,,,,,,,,,,,,,,,,,,,,,,,,,,,,,,,,,,,,,,,,,,,,,,
0,26,26,62,1,,5eb471789686d82c24661cb3,62c5398412ed07e8cbef830e,2022-07-06_02h28.40.387,Colour_Asymmetry_Pilot,2022.1.3,Win32,59.95203837,62c50e9c1127f2cd403a315f,,,,,,,,,,,,,,,,,,,,,,,,,,,,,,,,,,,,,,,,,,,,,,,,,,,,,,,,,,,,,,,,,,,,,,,,,,,,,,,,,,,,,,,,,,,,,,,,,,,,,,,,,,,,,,,,,,,,,,,,,,,,,,,,,,,,,,,,,,,,,,,,,,,,,,,,,,,,,,,,,,
0,27,27,87,1,,5eb471789686d82c24661cb3,62c5398412ed07e8cbef830e,2022-07-06_02h28.40.387,Colour_Asymmetry_Pilot,2022.1.3,Win32,59.95203837,62c50e9c1127f2cd403a315f,,,,,,,,,,,,,,,,,,,,,,,,,,,,,,,,,,,,,,,,,,,,,,,,,,,,,,,,,,,,,,,,,,,,,,,,,,,,,,,,,,,,,,,,,,,,,,,,,,,,,,,,,,,,,,,,,,,,,,,,,,,,,,,,,,,,,,,,,,,,,,,,,,,,,,,,,,,,,,,,,,
0,28,28,76,1,,5eb471789686d82c24661cb3,62c5398412ed07e8cbef830e,2022-07-06_02h28.40.387,Colour_Asymmetry_Pilot,2022.1.3,Win32,59.95203837,62c50e9c1127f2cd403a315f,,,,,,,,,,,,,,,,,,,,,,,,,,,,,,,,,,,,,,,,,,,,,,,,,,,,,,,,,,,,,,,,,,,,,,,,,,,,,,,,,,,,,,,,,,,,,,,,,,,,,,,,,,,,,,,,,,,,,,,,,,,,,,,,,,,,,,,,,,,,,,,,,,,,,,,,,,,,,,,,,,
0,29,29,65,1,,5eb471789686d82c24661cb3,62c5398412ed07e8cbef830e,2022-07-06_02h28.40.387,Colour_Asymmetry_Pilot,2022.1.3,Win32,59.95203837,62c50e9c1127f2cd403a315f,,,,,,,,,,,,,,,,,,,,,,,,,,,,,,,,,,,,,,,,,,,,,,,,,,,,,,,,,,,,,,,,,,,,,,,,,,,,,,,,,,,,,,,,,,,,,,,,,,,,,,,,,,,,,,,,,,,,,,,,,,,,,,,,,,,,,,,,,,,,,,,,,,,,,,,,,,,,,,,,,,
0,30,30,34,1,,5eb471789686d82c24661cb3,62c5398412ed07e8cbef830e,2022-07-06_02h28.40.387,Colour_Asymmetry_Pilot,2022.1.3,Win32,59.95203837,62c50e9c1127f2cd403a315f,,,,,,,,,,,,,,,,,,,,,,,,,,,,,,,,,,,,,,,,,,,,,,,,,,,,,,,,,,,,,,,,,,,,,,,,,,,,,,,,,,,,,,,,,,,,,,,,,,,,,,,,,,,,,,,,,,,,,,,,,,,,,,,,,,,,,,,,,,,,,,,,,,,,,,,,,,,,,,,,,,
0,31,31,29,1,,5eb471789686d82c24661cb3,62c5398412ed07e8cbef830e,2022-07-06_02h28.40.387,Colour_Asymmetry_Pilot,2022.1.3,Win32,59.95203837,62c50e9c1127f2cd403a315f,,,,,,,,,,,,,,,,,,,,,,,,,,,,,,,,,,,,,,,,,,,,,,,,,,,,,,,,,,,,,,,,,,,,,,,,,,,,,,,,,,,,,,,,,,,,,,,,,,,,,,,,,,,,,,,,,,,,,,,,,,,,,,,,,,,,,,,,,,,,,,,,,,,,,,,,,,,,,,,,,,
0,32,32,2,1,,5eb471789686d82c24661cb3,62c5398412ed07e8cbef830e,2022-07-06_02h28.40.387,Colour_Asymmetry_Pilot,2022.1.3,Win32,59.95203837,62c50e9c1127f2cd403a315f,,,,,,,,,,,,,,,,,,,,,,,,,,,,,,,,,,,,,,,,,,,,,,,,,,,,,,,,,,,,,,,,,,,,,,,,,,,,,,,,,,,,,,,,,,,,,,,,,,,,,,,,,,,,,,,,,,,,,,,,,,,,,,,,,,,,,,,,,,,,,,,,,,,,,,,,,,,,,,,,,,
0,33,33,74,1,,5eb471789686d82c24661cb3,62c5398412ed07e8cbef830e,2022-07-06_02h28.40.387,Colour_Asymmetry_Pilot,2022.1.3,Win32,59.95203837,62c50e9c1127f2cd403a315f,,,,,,,,,,,,,,,,,,,,,,,,,,,,,,,,,,,,,,,,,,,,,,,,,,,,,,,,,,,,,,,,,,,,,,,,,,,,,,,,,,,,,,,,,,,,,,,,,,,,,,,,,,,,,,,,,,,,,,,,,,,,,,,,,,,,,,,,,,,,,,,,,,,,,,,,,,,,,,,,,,
0,34,34,26,1,,5eb471789686d82c24661cb3,62c5398412ed07e8cbef830e,2022-07-06_02h28.40.387,Colour_Asymmetry_Pilot,2022.1.3,Win32,59.95203837,62c50e9c1127f2cd403a315f,,,,,,,,,,,,,,,,,,,,,,,,,,,,,,,,,,,,,,,,,,,,,,,,,,,,,,,,,,,,,,,,,,,,,,,,,,,,,,,,,,,,,,,,,,,,,,,,,,,,,,,,,,,,,,,,,,,,,,,,,,,,,,,,,,,,,,,,,,,,,,,,,,,,,,,,,,,,,,,,,,
0,35,35,75,1,,5eb471789686d82c24661cb3,62c5398412ed07e8cbef830e,2022-07-06_02h28.40.387,Colour_Asymmetry_Pilot,2022.1.3,Win32,59.95203837,62c50e9c1127f2cd403a315f,,,,,,,,,,,,,,,,,,,,,,,,,,,,,,,,,,,,,,,,,,,,,,,,,,,,,,,,,,,,,,,,,,,,,,,,,,,,,,,,,,,,,,,,,,,,,,,,,,,,,,,,,,,,,,,,,,,,,,,,,,,,,,,,,,,,,,,,,,,,,,,,,,,,,,,,,,,,,,,,,,
0,36,36,38,1,,5eb471789686d82c24661cb3,62c5398412ed07e8cbef830e,2022-07-06_02h28.40.387,Colour_Asymmetry_Pilot,2022.1.3,Win32,59.95203837,62c50e9c1127f2cd403a315f,,,,,,,,,,,,,,,,,,,,,,,,,,,,,,,,,,,,,,,,,,,,,,,,,,,,,,,,,,,,,,,,,,,,,,,,,,,,,,,,,,,,,,,,,,,,,,,,,,,,,,,,,,,,,,,,,,,,,,,,,,,,,,,,,,,,,,,,,,,,,,,,,,,,,,,,,,,,,,,,,,
0,37,37,73,1,,5eb471789686d82c24661cb3,62c5398412ed07e8cbef830e,2022-07-06_02h28.40.387,Colour_Asymmetry_Pilot,2022.1.3,Win32,59.95203837,62c50e9c1127f2cd403a315f,,,,,,,,,,,,,,,,,,,,,,,,,,,,,,,,,,,,,,,,,,,,,,,,,,,,,,,,,,,,,,,,,,,,,,,,,,,,,,,,,,,,,,,,,,,,,,,,,,,,,,,,,,,,,,,,,,,,,,,,,,,,,,,,,,,,,,,,,,,,,,,,,,,,,,,,,,,,,,,,,,
0,38,38,80,1,,5eb471789686d82c24661cb3,62c5398412ed07e8cbef830e,2022-07-06_02h28.40.387,Colour_Asymmetry_Pilot,2022.1.3,Win32,59.95203837,62c50e9c1127f2cd403a315f,,,,,,,,,,,,,,,,,,,,,,,,,,,,,,,,,,,,,,,,,,,,,,,,,,,,,,,,,,,,,,,,,,,,,,,,,,,,,,,,,,,,,,,,,,,,,,,,,,,,,,,,,,,,,,,,,,,,,,,,,,,,,,,,,,,,,,,,,,,,,,,,,,,,,,,,,,,,,,,,,,
0,39,39,43,1,,5eb471789686d82c24661cb3,62c5398412ed07e8cbef830e,2022-07-06_02h28.40.387,Colour_Asymmetry_Pilot,2022.1.3,Win32,59.95203837,62c50e9c1127f2cd403a315f,,,,,,,,,,,,,,,,,,,,,,,,,,,,,,,,,,,,,,,,,,,,,,,,,,,,,,,,,,,,,,,,,,,,,,,,,,,,,,,,,,,,,,,,,,,,,,,,,,,,,,,,,,,,,,,,,,,,,,,,,,,,,,,,,,,,,,,,,,,,,,,,,,,,,,,,,,,,,,,,,,
0,40,40,0,1,,5eb471789686d82c24661cb3,62c5398412ed07e8cbef830e,2022-07-06_02h28.40.387,Colour_Asymmetry_Pilot,2022.1.3,Win32,59.95203837,62c50e9c1127f2cd403a315f,,,,,,,,,,,,,,,,,,,,,,,,,,,,,,,,,,,,,,,,,,,,,,,,,,,,,,,,,,,,,,,,,,,,,,,,,,,,,,,,,,,,,,,,,,,,,,,,,,,,,,,,,,,,,,,,,,,,,,,,,,,,,,,,,,,,,,,,,,,,,,,,,,,,,,,,,,,,,,,,,,
0,41,41,18,1,,5eb471789686d82c24661cb3,62c5398412ed07e8cbef830e,2022-07-06_02h28.40.387,Colour_Asymmetry_Pilot,2022.1.3,Win32,59.95203837,62c50e9c1127f2cd403a315f,,,,,,,,,,,,,,,,,,,,,,,,,,,,,,,,,,,,,,,,,,,,,,,,,,,,,,,,,,,,,,,,,,,,,,,,,,,,,,,,,,,,,,,,,,,,,,,,,,,,,,,,,,,,,,,,,,,,,,,,,,,,,,,,,,,,,,,,,,,,,,,,,,,,,,,,,,,,,,,,,,
0,42,42,72,1,,5eb471789686d82c24661cb3,62c5398412ed07e8cbef830e,2022-07-06_02h28.40.387,Colour_Asymmetry_Pilot,2022.1.3,Win32,59.95203837,62c50e9c1127f2cd403a315f,,,,,,,,,,,,,,,,,,,,,,,,,,,,,,,,,,,,,,,,,,,,,,,,,,,,,,,,,,,,,,,,,,,,,,,,,,,,,,,,,,,,,,,,,,,,,,,,,,,,,,,,,,,,,,,,,,,,,,,,,,,,,,,,,,,,,,,,,,,,,,,,,,,,,,,,,,,,,,,,,,
0,43,43,21,1,,5eb471789686d82c24661cb3,62c5398412ed07e8cbef830e,2022-07-06_02h28.40.387,Colour_Asymmetry_Pilot,2022.1.3,Win32,59.95203837,62c50e9c1127f2cd403a315f,,,,,,,,,,,,,,,,,,,,,,,,,,,,,,,,,,,,,,,,,,,,,,,,,,,,,,,,,,,,,,,,,,,,,,,,,,,,,,,,,,,,,,,,,,,,,,,,,,,,,,,,,,,,,,,,,,,,,,,,,,,,,,,,,,,,,,,,,,,,,,,,,,,,,,,,,,,,,,,,,,
0,44,44,19,1,,5eb471789686d82c24661cb3,62c5398412ed07e8cbef830e,2022-07-06_02h28.40.387,Colour_Asymmetry_Pilot,2022.1.3,Win32,59.95203837,62c50e9c1127f2cd403a315f,,,,,,,,,,,,,,,,,,,,,,,,,,,,,,,,,,,,,,,,,,,,,,,,,,,,,,,,,,,,,,,,,,,,,,,,,,,,,,,,,,,,,,,,,,,,,,,,,,,,,,,,,,,,,,,,,,,,,,,,,,,,,,,,,,,,,,,,,,,,,,,,,,,,,,,,,,,,,,,,,,
0,45,45,28,1,,5eb471789686d82c24661cb3,62c5398412ed07e8cbef830e,2022-07-06_02h28.40.387,Colour_Asymmetry_Pilot,2022.1.3,Win32,59.95203837,62c50e9c1127f2cd403a315f,,,,,,,,,,,,,,,,,,,,,,,,,,,,,,,,,,,,,,,,,,,,,,,,,,,,,,,,,,,,,,,,,,,,,,,,,,,,,,,,,,,,,,,,,,,,,,,,,,,,,,,,,,,,,,,,,,,,,,,,,,,,,,,,,,,,,,,,,,,,,,,,,,,,,,,,,,,,,,,,,,
0,46,46,49,1,,5eb471789686d82c24661cb3,62c5398412ed07e8cbef830e,2022-07-06_02h28.40.387,Colour_Asymmetry_Pilot,2022.1.3,Win32,59.95203837,62c50e9c1127f2cd403a315f,,,,,,,,,,,,,,,,,,,,,,,,,,,,,,,,,,,,,,,,,,,,,,,,,,,,,,,,,,,,,,,,,,,,,,,,,,,,,,,,,,,,,,,,,,,,,,,,,,,,,,,,,,,,,,,,,,,,,,,,,,,,,,,,,,,,,,,,,,,,,,,,,,,,,,,,,,,,,,,,,,
0,47,47,23,1,,5eb471789686d82c24661cb3,62c5398412ed07e8cbef830e,2022-07-06_02h28.40.387,Colour_Asymmetry_Pilot,2022.1.3,Win32,59.95203837,62c50e9c1127f2cd403a315f,,,,,,,,,,,,,,,,,,,,,,,,,,,,,,,,,,,,,,,,,,,,,,,,,,,,,,,,,,,,,,,,,,,,,,,,,,,,,,,,,,,,,,,,,,,,,,,,,,,,,,,,,,,,,,,,,,,,,,,,,,,,,,,,,,,,,,,,,,,,,,,,,,,,,,,,,,,,,,,,,,
0,48,48,61,1,,5eb471789686d82c24661cb3,62c5398412ed07e8cbef830e,2022-07-06_02h28.40.387,Colour_Asymmetry_Pilot,2022.1.3,Win32,59.95203837,62c50e9c1127f2cd403a315f,,,,,,,,,,,,,,,,,,,,,,,,,,,,,,,,,,,,,,,,,,,,,,,,,,,,,,,,,,,,,,,,,,,,,,,,,,,,,,,,,,,,,,,,,,,,,,,,,,,,,,,,,,,,,,,,,,,,,,,,,,,,,,,,,,,,,,,,,,,,,,,,,,,,,,,,,,,,,,,,,,
0,49,49,78,1,,5eb471789686d82c24661cb3,62c5398412ed07e8cbef830e,2022-07-06_02h28.40.387,Colour_Asymmetry_Pilot,2022.1.3,Win32,59.95203837,62c50e9c1127f2cd403a315f,,,,,,,,,,,,,,,,,,,,,,,,,,,,,,,,,,,,,,,,,,,,,,,,,,,,,,,,,,,,,,,,,,,,,,,,,,,,,,,,,,,,,,,,,,,,,,,,,,,,,,,,,,,,,,,,,,,,,,,,,,,,,,,,,,,,,,,,,,,,,,,,,,,,,,,,,,,,,,,,,,
0,50,50,77,1,,5eb471789686d82c24661cb3,62c5398412ed07e8cbef830e,2022-07-06_02h28.40.387,Colour_Asymmetry_Pilot,2022.1.3,Win32,59.95203837,62c50e9c1127f2cd403a315f,,,,,,,,,,,,,,,,,,,,,,,,,,,,,,,,,,,,,,,,,,,,,,,,,,,,,,,,,,,,,,,,,,,,,,,,,,,,,,,,,,,,,,,,,,,,,,,,,,,,,,,,,,,,,,,,,,,,,,,,,,,,,,,,,,,,,,,,,,,,,,,,,,,,,,,,,,,,,,,,,,
0,51,51,59,1,,5eb471789686d82c24661cb3,62c5398412ed07e8cbef830e,2022-07-06_02h28.40.387,Colour_Asymmetry_Pilot,2022.1.3,Win32,59.95203837,62c50e9c1127f2cd403a315f,,,,,,,,,,,,,,,,,,,,,,,,,,,,,,,,,,,,,,,,,,,,,,,,,,,,,,,,,,,,,,,,,,,,,,,,,,,,,,,,,,,,,,,,,,,,,,,,,,,,,,,,,,,,,,,,,,,,,,,,,,,,,,,,,,,,,,,,,,,,,,,,,,,,,,,,,,,,,,,,,,
0,52,52,17,1,,5eb471789686d82c24661cb3,62c5398412ed07e8cbef830e,2022-07-06_02h28.40.387,Colour_Asymmetry_Pilot,2022.1.3,Win32,59.95203837,62c50e9c1127f2cd403a315f,,,,,,,,,,,,,,,,,,,,,,,,,,,,,,,,,,,,,,,,,,,,,,,,,,,,,,,,,,,,,,,,,,,,,,,,,,,,,,,,,,,,,,,,,,,,,,,,,,,,,,,,,,,,,,,,,,,,,,,,,,,,,,,,,,,,,,,,,,,,,,,,,,,,,,,,,,,,,,,,,,
0,53,53,30,1,,5eb471789686d82c24661cb3,62c5398412ed07e8cbef830e,2022-07-06_02h28.40.387,Colour_Asymmetry_Pilot,2022.1.3,Win32,59.95203837,62c50e9c1127f2cd403a315f,,,,,,,,,,,,,,,,,,,,,,,,,,,,,,,,,,,,,,,,,,,,,,,,,,,,,,,,,,,,,,,,,,,,,,,,,,,,,,,,,,,,,,,,,,,,,,,,,,,,,,,,,,,,,,,,,,,,,,,,,,,,,,,,,,,,,,,,,,,,,,,,,,,,,,,,,,,,,,,,,,
0,54,54,16,1,,5eb471789686d82c24661cb3,62c5398412ed07e8cbef830e,2022-07-06_02h28.40.387,Colour_Asymmetry_Pilot,2022.1.3,Win32,59.95203837,62c50e9c1127f2cd403a315f,,,,,,,,,,,,,,,,,,,,,,,,,,,,,,,,,,,,,,,,,,,,,,,,,,,,,,,,,,,,,,,,,,,,,,,,,,,,,,,,,,,,,,,,,,,,,,,,,,,,,,,,,,,,,,,,,,,,,,,,,,,,,,,,,,,,,,,,,,,,,,,,,,,,,,,,,,,,,,,,,,
0,55,55,70,1,,5eb471789686d82c24661cb3,62c5398412ed07e8cbef830e,2022-07-06_02h28.40.387,Colour_Asymmetry_Pilot,2022.1.3,Win32,59.95203837,62c50e9c1127f2cd403a315f,,,,,,,,,,,,,,,,,,,,,,,,,,,,,,,,,,,,,,,,,,,,,,,,,,,,,,,,,,,,,,,,,,,,,,,,,,,,,,,,,,,,,,,,,,,,,,,,,,,,,,,,,,,,,,,,,,,,,,,,,,,,,,,,,,,,,,,,,,,,,,,,,,,,,,,,,,,,,,,,,,
0,56,56,84,1,,5eb471789686d82c24661cb3,62c5398412ed07e8cbef830e,2022-07-06_02h28.40.387,Colour_Asymmetry_Pilot,2022.1.3,Win32,59.95203837,62c50e9c1127f2cd403a315f,,,,,,,,,,,,,,,,,,,,,,,,,,,,,,,,,,,,,,,,,,,,,,,,,,,,,,,,,,,,,,,,,,,,,,,,,,,,,,,,,,,,,,,,,,,,,,,,,,,,,,,,,,,,,,,,,,,,,,,,,,,,,,,,,,,,,,,,,,,,,,,,,,,,,,,,,,,,,,,,,,
0,57,57,40,1,,5eb471789686d82c24661cb3,62c5398412ed07e8cbef830e,2022-07-06_02h28.40.387,Colour_Asymmetry_Pilot,2022.1.3,Win32,59.95203837,62c50e9c1127f2cd403a315f,,,,,,,,,,,,,,,,,,,,,,,,,,,,,,,,,,,,,,,,,,,,,,,,,,,,,,,,,,,,,,,,,,,,,,,,,,,,,,,,,,,,,,,,,,,,,,,,,,,,,,,,,,,,,,,,,,,,,,,,,,,,,,,,,,,,,,,,,,,,,,,,,,,,,,,,,,,,,,,,,,
0,58,58,48,1,,5eb471789686d82c24661cb3,62c5398412ed07e8cbef830e,2022-07-06_02h28.40.387,Colour_Asymmetry_Pilot,2022.1.3,Win32,59.95203837,62c50e9c1127f2cd403a315f,,,,,,,,,,,,,,,,,,,,,,,,,,,,,,,,,,,,,,,,,,,,,,,,,,,,,,,,,,,,,,,,,,,,,,,,,,,,,,,,,,,,,,,,,,,,,,,,,,,,,,,,,,,,,,,,,,,,,,,,,,,,,,,,,,,,,,,,,,,,,,,,,,,,,,,,,,,,,,,,,,
0,59,59,15,1,,5eb471789686d82c24661cb3,62c5398412ed07e8cbef830e,2022-07-06_02h28.40.387,Colour_Asymmetry_Pilot,2022.1.3,Win32,59.95203837,62c50e9c1127f2cd403a315f,,,,,,,,,,,,,,,,,,,,,,,,,,,,,,,,,,,,,,,,,,,,,,,,,,,,,,,,,,,,,,,,,,,,,,,,,,,,,,,,,,,,,,,,,,,,,,,,,,,,,,,,,,,,,,,,,,,,,,,,,,,,,,,,,,,,,,,,,,,,,,,,,,,,,,,,,,,,,,,,,,
0,60,60,36,1,,5eb471789686d82c24661cb3,62c5398412ed07e8cbef830e,2022-07-06_02h28.40.387,Colour_Asymmetry_Pilot,2022.1.3,Win32,59.95203837,62c50e9c1127f2cd403a315f,,,,,,,,,,,,,,,,,,,,,,,,,,,,,,,,,,,,,,,,,,,,,,,,,,,,,,,,,,,,,,,,,,,,,,,,,,,,,,,,,,,,,,,,,,,,,,,,,,,,,,,,,,,,,,,,,,,,,,,,,,,,,,,,,,,,,,,,,,,,,,,,,,,,,,,,,,,,,,,,,,
0,61,61,54,1,,5eb471789686d82c24661cb3,62c5398412ed07e8cbef830e,2022-07-06_02h28.40.387,Colour_Asymmetry_Pilot,2022.1.3,Win32,59.95203837,62c50e9c1127f2cd403a315f,,,,,,,,,,,,,,,,,,,,,,,,,,,,,,,,,,,,,,,,,,,,,,,,,,,,,,,,,,,,,,,,,,,,,,,,,,,,,,,,,,,,,,,,,,,,,,,,,,,,,,,,,,,,,,,,,,,,,,,,,,,,,,,,,,,,,,,,,,,,,,,,,,,,,,,,,,,,,,,,,,
0,62,62,24,1,,5eb471789686d82c24661cb3,62c5398412ed07e8cbef830e,2022-07-06_02h28.40.387,Colour_Asymmetry_Pilot,2022.1.3,Win32,59.95203837,62c50e9c1127f2cd403a315f,,,,,,,,,,,,,,,,,,,,,,,,,,,,,,,,,,,,,,,,,,,,,,,,,,,,,,,,,,,,,,,,,,,,,,,,,,,,,,,,,,,,,,,,,,,,,,,,,,,,,,,,,,,,,,,,,,,,,,,,,,,,,,,,,,,,,,,,,,,,,,,,,,,,,,,,,,,,,,,,,,
0,63,63,12,1,,5eb471789686d82c24661cb3,62c5398412ed07e8cbef830e,2022-07-06_02h28.40.387,Colour_Asymmetry_Pilot,2022.1.3,Win32,59.95203837,62c50e9c1127f2cd403a315f,,,,,,,,,,,,,,,,,,,,,,,,,,,,,,,,,,,,,,,,,,,,,,,,,,,,,,,,,,,,,,,,,,,,,,,,,,,,,,,,,,,,,,,,,,,,,,,,,,,,,,,,,,,,,,,,,,,,,,,,,,,,,,,,,,,,,,,,,,,,,,,,,,,,,,,,,,,,,,,,,,
0,64,64,9,1,,5eb471789686d82c24661cb3,62c5398412ed07e8cbef830e,2022-07-06_02h28.40.387,Colour_Asymmetry_Pilot,2022.1.3,Win32,59.95203837,62c50e9c1127f2cd403a315f,,,,,,,,,,,,,,,,,,,,,,,,,,,,,,,,,,,,,,,,,,,,,,,,,,,,,,,,,,,,,,,,,,,,,,,,,,,,,,,,,,,,,,,,,,,,,,,,,,,,,,,,,,,,,,,,,,,,,,,,,,,,,,,,,,,,,,,,,,,,,,,,,,,,,,,,,,,,,,,,,,
0,65,65,20,1,,5eb471789686d82c24661cb3,62c5398412ed07e8cbef830e,2022-07-06_02h28.40.387,Colour_Asymmetry_Pilot,2022.1.3,Win32,59.95203837,62c50e9c1127f2cd403a315f,,,,,,,,,,,,,,,,,,,,,,,,,,,,,,,,,,,,,,,,,,,,,,,,,,,,,,,,,,,,,,,,,,,,,,,,,,,,,,,,,,,,,,,,,,,,,,,,,,,,,,,,,,,,,,,,,,,,,,,,,,,,,,,,,,,,,,,,,,,,,,,,,,,,,,,,,,,,,,,,,,
0,66,66,71,1,,5eb471789686d82c24661cb3,62c5398412ed07e8cbef830e,2022-07-06_02h28.40.387,Colour_Asymmetry_Pilot,2022.1.3,Win32,59.95203837,62c50e9c1127f2cd403a315f,,,,,,,,,,,,,,,,,,,,,,,,,,,,,,,,,,,,,,,,,,,,,,,,,,,,,,,,,,,,,,,,,,,,,,,,,,,,,,,,,,,,,,,,,,,,,,,,,,,,,,,,,,,,,,,,,,,,,,,,,,,,,,,,,,,,,,,,,,,,,,,,,,,,,,,,,,,,,,,,,,
0,67,67,4,1,,5eb471789686d82c24661cb3,62c5398412ed07e8cbef830e,2022-07-06_02h28.40.387,Colour_Asymmetry_Pilot,2022.1.3,Win32,59.95203837,62c50e9c1127f2cd403a315f,,,,,,,,,,,,,,,,,,,,,,,,,,,,,,,,,,,,,,,,,,,,,,,,,,,,,,,,,,,,,,,,,,,,,,,,,,,,,,,,,,,,,,,,,,,,,,,,,,,,,,,,,,,,,,,,,,,,,,,,,,,,,,,,,,,,,,,,,,,,,,,,,,,,,,,,,,,,,,,,,,
0,68,68,44,1,,5eb471789686d82c24661cb3,62c5398412ed07e8cbef830e,2022-07-06_02h28.40.387,Colour_Asymmetry_Pilot,2022.1.3,Win32,59.95203837,62c50e9c1127f2cd403a315f,,,,,,,,,,,,,,,,,,,,,,,,,,,,,,,,,,,,,,,,,,,,,,,,,,,,,,,,,,,,,,,,,,,,,,,,,,,,,,,,,,,,,,,,,,,,,,,,,,,,,,,,,,,,,,,,,,,,,,,,,,,,,,,,,,,,,,,,,,,,,,,,,,,,,,,,,,,,,,,,,,
0,69,69,85,1,,5eb471789686d82c24661cb3,62c5398412ed07e8cbef830e,2022-07-06_02h28.40.387,Colour_Asymmetry_Pilot,2022.1.3,Win32,59.95203837,62c50e9c1127f2cd403a315f,,,,,,,,,,,,,,,,,,,,,,,,,,,,,,,,,,,,,,,,,,,,,,,,,,,,,,,,,,,,,,,,,,,,,,,,,,,,,,,,,,,,,,,,,,,,,,,,,,,,,,,,,,,,,,,,,,,,,,,,,,,,,,,,,,,,,,,,,,,,,,,,,,,,,,,,,,,,,,,,,,
0,70,70,25,1,,5eb471789686d82c24661cb3,62c5398412ed07e8cbef830e,2022-07-06_02h28.40.387,Colour_Asymmetry_Pilot,2022.1.3,Win32,59.95203837,62c50e9c1127f2cd403a315f,,,,,,,,,,,,,,,,,,,,,,,,,,,,,,,,,,,,,,,,,,,,,,,,,,,,,,,,,,,,,,,,,,,,,,,,,,,,,,,,,,,,,,,,,,,,,,,,,,,,,,,,,,,,,,,,,,,,,,,,,,,,,,,,,,,,,,,,,,,,,,,,,,,,,,,,,,,,,,,,,,
0,71,71,55,1,,5eb471789686d82c24661cb3,62c5398412ed07e8cbef830e,2022-07-06_02h28.40.387,Colour_Asymmetry_Pilot,2022.1.3,Win32,59.95203837,62c50e9c1127f2cd403a315f,,,,,,,,,,,,,,,,,,,,,,,,,,,,,,,,,,,,,,,,,,,,,,,,,,,,,,,,,,,,,,,,,,,,,,,,,,,,,,,,,,,,,,,,,,,,,,,,,,,,,,,,,,,,,,,,,,,,,,,,,,,,,,,,,,,,,,,,,,,,,,,,,,,,,,,,,,,,,,,,,,
0,72,72,37,1,,5eb471789686d82c24661cb3,62c5398412ed07e8cbef830e,2022-07-06_02h28.40.387,Colour_Asymmetry_Pilot,2022.1.3,Win32,59.95203837,62c50e9c1127f2cd403a315f,,,,,,,,,,,,,,,,,,,,,,,,,,,,,,,,,,,,,,,,,,,,,,,,,,,,,,,,,,,,,,,,,,,,,,,,,,,,,,,,,,,,,,,,,,,,,,,,,,,,,,,,,,,,,,,,,,,,,,,,,,,,,,,,,,,,,,,,,,,,,,,,,,,,,,,,,,,,,,,,,,
0,73,73,7,1,,5eb471789686d82c24661cb3,62c5398412ed07e8cbef830e,2022-07-06_02h28.40.387,Colour_Asymmetry_Pilot,2022.1.3,Win32,59.95203837,62c50e9c1127f2cd403a315f,,,,,,,,,,,,,,,,,,,,,,,,,,,,,,,,,,,,,,,,,,,,,,,,,,,,,,,,,,,,,,,,,,,,,,,,,,,,,,,,,,,,,,,,,,,,,,,,,,,,,,,,,,,,,,,,,,,,,,,,,,,,,,,,,,,,,,,,,,,,,,,,,,,,,,,,,,,,,,,,,,
0,74,74,51,1,,5eb471789686d82c24661cb3,62c5398412ed07e8cbef830e,2022-07-06_02h28.40.387,Colour_Asymmetry_Pilot,2022.1.3,Win32,59.95203837,62c50e9c1127f2cd403a315f,,,,,,,,,,,,,,,,,,,,,,,,,,,,,,,,,,,,,,,,,,,,,,,,,,,,,,,,,,,,,,,,,,,,,,,,,,,,,,,,,,,,,,,,,,,,,,,,,,,,,,,,,,,,,,,,,,,,,,,,,,,,,,,,,,,,,,,,,,,,,,,,,,,,,,,,,,,,,,,,,,
0,75,75,89,1,,5eb471789686d82c24661cb3,62c5398412ed07e8cbef830e,2022-07-06_02h28.40.387,Colour_Asymmetry_Pilot,2022.1.3,Win32,59.95203837,62c50e9c1127f2cd403a315f,,,,,,,,,,,,,,,,,,,,,,,,,,,,,,,,,,,,,,,,,,,,,,,,,,,,,,,,,,,,,,,,,,,,,,,,,,,,,,,,,,,,,,,,,,,,,,,,,,,,,,,,,,,,,,,,,,,,,,,,,,,,,,,,,,,,,,,,,,,,,,,,,,,,,,,,,,,,,,,,,,
0,76,76,13,1,,5eb471789686d82c24661cb3,62c5398412ed07e8cbef830e,2022-07-06_02h28.40.387,Colour_Asymmetry_Pilot,2022.1.3,Win32,59.95203837,62c50e9c1127f2cd403a315f,,,,,,,,,,,,,,,,,,,,,,,,,,,,,,,,,,,,,,,,,,,,,,,,,,,,,,,,,,,,,,,,,,,,,,,,,,,,,,,,,,,,,,,,,,,,,,,,,,,,,,,,,,,,,,,,,,,,,,,,,,,,,,,,,,,,,,,,,,,,,,,,,,,,,,,,,,,,,,,,,,
0,77,77,82,1,,5eb471789686d82c24661cb3,62c5398412ed07e8cbef830e,2022-07-06_02h28.40.387,Colour_Asymmetry_Pilot,2022.1.3,Win32,59.95203837,62c50e9c1127f2cd403a315f,,,,,,,,,,,,,,,,,,,,,,,,,,,,,,,,,,,,,,,,,,,,,,,,,,,,,,,,,,,,,,,,,,,,,,,,,,,,,,,,,,,,,,,,,,,,,,,,,,,,,,,,,,,,,,,,,,,,,,,,,,,,,,,,,,,,,,,,,,,,,,,,,,,,,,,,,,,,,,,,,,
0,78,78,63,1,,5eb471789686d82c24661cb3,62c5398412ed07e8cbef830e,2022-07-06_02h28.40.387,Colour_Asymmetry_Pilot,2022.1.3,Win32,59.95203837,62c50e9c1127f2cd403a315f,,,,,,,,,,,,,,,,,,,,,,,,,,,,,,,,,,,,,,,,,,,,,,,,,,,,,,,,,,,,,,,,,,,,,,,,,,,,,,,,,,,,,,,,,,,,,,,,,,,,,,,,,,,,,,,,,,,,,,,,,,,,,,,,,,,,,,,,,,,,,,,,,,,,,,,,,,,,,,,,,,
0,79,79,32,1,,5eb471789686d82c24661cb3,62c5398412ed07e8cbef830e,2022-07-06_02h28.40.387,Colour_Asymmetry_Pilot,2022.1.3,Win32,59.95203837,62c50e9c1127f2cd403a315f,,,,,,,,,,,,,,,,,,,,,,,,,,,,,,,,,,,,,,,,,,,,,,,,,,,,,,,,,,,,,,,,,,,,,,,,,,,,,,,,,,,,,,,,,,,,,,,,,,,,,,,,,,,,,,,,,,,,,,,,,,,,,,,,,,,,,,,,,,,,,,,,,,,,,,,,,,,,,,,,,,
0,80,80,92,1,,5eb471789686d82c24661cb3,62c5398412ed07e8cbef830e,2022-07-06_02h28.40.387,Colour_Asymmetry_Pilot,2022.1.3,Win32,59.95203837,62c50e9c1127f2cd403a315f,,,,,,,,,,,,,,,,,,,,,,,,,,,,,,,,,,,,,,,,,,,,,,,,,,,,,,,,,,,,,,,,,,,,,,,,,,,,,,,,,,,,,,,,,,,,,,,,,,,,,,,,,,,,,,,,,,,,,,,,,,,,,,,,,,,,,,,,,,,,,,,,,,,,,,,,,,,,,,,,,,
0,81,81,53,1,,5eb471789686d82c24661cb3,62c5398412ed07e8cbef830e,2022-07-06_02h28.40.387,Colour_Asymmetry_Pilot,2022.1.3,Win32,59.95203837,62c50e9c1127f2cd403a315f,,,,,,,,,,,,,,,,,,,,,,,,,,,,,,,,,,,,,,,,,,,,,,,,,,,,,,,,,,,,,,,,,,,,,,,,,,,,,,,,,,,,,,,,,,,,,,,,,,,,,,,,,,,,,,,,,,,,,,,,,,,,,,,,,,,,,,,,,,,,,,,,,,,,,,,,,,,,,,,,,,
0,82,82,91,1,,5eb471789686d82c24661cb3,62c5398412ed07e8cbef830e,2022-07-06_02h28.40.387,Colour_Asymmetry_Pilot,2022.1.3,Win32,59.95203837,62c50e9c1127f2cd403a315f,,,,,,,,,,,,,,,,,,,,,,,,,,,,,,,,,,,,,,,,,,,,,,,,,,,,,,,,,,,,,,,,,,,,,,,,,,,,,,,,,,,,,,,,,,,,,,,,,,,,,,,,,,,,,,,,,,,,,,,,,,,,,,,,,,,,,,,,,,,,,,,,,,,,,,,,,,,,,,,,,,
0,83,83,81,1,,5eb471789686d82c24661cb3,62c5398412ed07e8cbef830e,2022-07-06_02h28.40.387,Colour_Asymmetry_Pilot,2022.1.3,Win32,59.95203837,62c50e9c1127f2cd403a315f,,,,,,,,,,,,,,,,,,,,,,,,,,,,,,,,,,,,,,,,,,,,,,,,,,,,,,,,,,,,,,,,,,,,,,,,,,,,,,,,,,,,,,,,,,,,,,,,,,,,,,,,,,,,,,,,,,,,,,,,,,,,,,,,,,,,,,,,,,,,,,,,,,,,,,,,,,,,,,,,,,
0,84,84,31,1,,5eb471789686d82c24661cb3,62c5398412ed07e8cbef830e,2022-07-06_02h28.40.387,Colour_Asymmetry_Pilot,2022.1.3,Win32,59.95203837,62c50e9c1127f2cd403a315f,,,,,,,,,,,,,,,,,,,,,,,,,,,,,,,,,,,,,,,,,,,,,,,,,,,,,,,,,,,,,,,,,,,,,,,,,,,,,,,,,,,,,,,,,,,,,,,,,,,,,,,,,,,,,,,,,,,,,,,,,,,,,,,,,,,,,,,,,,,,,,,,,,,,,,,,,,,,,,,,,,
0,85,85,45,1,,5eb471789686d82c24661cb3,62c5398412ed07e8cbef830e,2022-07-06_02h28.40.387,Colour_Asymmetry_Pilot,2022.1.3,Win32,59.95203837,62c50e9c1127f2cd403a315f,,,,,,,,,,,,,,,,,,,,,,,,,,,,,,,,,,,,,,,,,,,,,,,,,,,,,,,,,,,,,,,,,,,,,,,,,,,,,,,,,,,,,,,,,,,,,,,,,,,,,,,,,,,,,,,,,,,,,,,,,,,,,,,,,,,,,,,,,,,,,,,,,,,,,,,,,,,,,,,,,,
0,86,86,1,1,,5eb471789686d82c24661cb3,62c5398412ed07e8cbef830e,2022-07-06_02h28.40.387,Colour_Asymmetry_Pilot,2022.1.3,Win32,59.95203837,62c50e9c1127f2cd403a315f,,,,,,,,,,,,,,,,,,,,,,,,,,,,,,,,,,,,,,,,,,,,,,,,,,,,,,,,,,,,,,,,,,,,,,,,,,,,,,,,,,,,,,,,,,,,,,,,,,,,,,,,,,,,,,,,,,,,,,,,,,,,,,,,,,,,,,,,,,,,,,,,,,,,,,,,,,,,,,,,,,
0,87,87,3,1,,5eb471789686d82c24661cb3,62c5398412ed07e8cbef830e,2022-07-06_02h28.40.387,Colour_Asymmetry_Pilot,2022.1.3,Win32,59.95203837,62c50e9c1127f2cd403a315f,,,,,,,,,,,,,,,,,,,,,,,,,,,,,,,,,,,,,,,,,,,,,,,,,,,,,,,,,,,,,,,,,,,,,,,,,,,,,,,,,,,,,,,,,,,,,,,,,,,,,,,,,,,,,,,,,,,,,,,,,,,,,,,,,,,,,,,,,,,,,,,,,,,,,,,,,,,,,,,,,,
0,88,88,33,1,,5eb471789686d82c24661cb3,62c5398412ed07e8cbef830e,2022-07-06_02h28.40.387,Colour_Asymmetry_Pilot,2022.1.3,Win32,59.95203837,62c50e9c1127f2cd403a315f,,,,,,,,,,,,,,,,,,,,,,,,,,,,,,,,,,,,,,,,,,,,,,,,,,,,,,,,,,,,,,,,,,,,,,,,,,,,,,,,,,,,,,,,,,,,,,,,,,,,,,,,,,,,,,,,,,,,,,,,,,,,,,,,,,,,,,,,,,,,,,,,,,,,,,,,,,,,,,,,,,
0,89,89,35,1,,5eb471789686d82c24661cb3,62c5398412ed07e8cbef830e,2022-07-06_02h28.40.387,Colour_Asymmetry_Pilot,2022.1.3,Win32,59.95203837,62c50e9c1127f2cd403a315f,,,,,,,,,,,,,,,,,,,,,,,,,,,,,,,,,,,,,,,,,,,,,,,,,,,,,,,,,,,,,,,,,,,,,,,,,,,,,,,,,,,,,,,,,,,,,,,,,,,,,,,,,,,,,,,,,,,,,,,,,,,,,,,,,,,,,,,,,,,,,,,,,,,,,,,,,,,,,,,,,,
0,90,90,58,1,,5eb471789686d82c24661cb3,62c5398412ed07e8cbef830e,2022-07-06_02h28.40.387,Colour_Asymmetry_Pilot,2022.1.3,Win32,59.95203837,62c50e9c1127f2cd403a315f,,,,,,,,,,,,,,,,,,,,,,,,,,,,,,,,,,,,,,,,,,,,,,,,,,,,,,,,,,,,,,,,,,,,,,,,,,,,,,,,,,,,,,,,,,,,,,,,,,,,,,,,,,,,,,,,,,,,,,,,,,,,,,,,,,,,,,,,,,,,,,,,,,,,,,,,,,,,,,,,,,
0,91,91,90,1,,5eb471789686d82c24661cb3,62c5398412ed07e8cbef830e,2022-07-06_02h28.40.387,Colour_Asymmetry_Pilot,2022.1.3,Win32,59.95203837,62c50e9c1127f2cd403a315f,,,,,,,,,,,,,,,,,,,,,,,,,,,,,,,,,,,,,,,,,,,,,,,,,,,,,,,,,,,,,,,,,,,,,,,,,,,,,,,,,,,,,,,,,,,,,,,,,,,,,,,,,,,,,,,,,,,,,,,,,,,,,,,,,,,,,,,,,,,,,,,,,,,,,,,,,,,,,,,,,,
0,92,92,68,1,,5eb471789686d82c24661cb3,62c5398412ed07e8cbef830e,2022-07-06_02h28.40.387,Colour_Asymmetry_Pilot,2022.1.3,Win32,59.95203837,62c50e9c1127f2cd403a315f,,,,,,,,,,,,,,,,,,,,,,,,,,,,,,,,,,,,,,,,,,,,,,,,,,,,,,,,,,,,,,,,,,,,,,,,,,,,,,,,,,,,,,,,,,,,,,,,,,,,,,,,,,,,,,,,,,,,,,,,,,,,,,,,,,,,,,,,,,,,,,,,,,,,,,,,,,,,,,,,,,
,,,,,,5eb471789686d82c24661cb3,62c5398412ed07e8cbef830e,2022-07-06_02h28.40.387,Colour_Asymmetry_Pilot,2022.1.3,Win32,59.95203837,62c50e9c1127f2cd403a315f,0,0,0,142,1,fourtwo,,,,,,,,,,,,,,,,,,,,,,,,,,,,,,,,,,,,,,,,,,,,,,,,,,,,,,,,,,,,,,,,,,,,,,,,,,,,,,,,,,,,,,,,,,,,,,,,,,,,,,,,,,,,,,,,,,,,,,,,,,,,,,,,,,,,,,,,,,,,,,,,,,,,,,,,,,,,
,,,,,,5eb471789686d82c24661cb3,62c5398412ed07e8cbef830e,2022-07-06_02h28.40.387,Colour_Asymmetry_Pilot,2022.1.3,Win32,59.95203837,62c50e9c1127f2cd403a315f,0,1,1,62,1,fourtwo,,,,,,,,,,,,,,,,,,,,,,,,,,,,,,,,,,,,,,,,,,,,,,,,,,,,,,,,,,,,,,,,,,,,,,,,,,,,,,,,,,,,,,,,,,,,,,,,,,,,,,,,,,,,,,,,,,,,,,,,,,,,,,,,,,,,,,,,,,,,,,,,,,,,,,,,,,,,
,,,,,,5eb471789686d82c24661cb3,62c5398412ed07e8cbef830e,2022-07-06_02h28.40.387,Colour_Asymmetry_Pilot,2022.1.3,Win32,59.95203837,62c50e9c1127f2cd403a315f,0,2,2,158,1,fourtwo,,,,,,,,,,,,,,,,,,,,,,,,,,,,,,,,,,,,,,,,,,,,,,,,,,,,,,,,,,,,,,,,,,,,,,,,,,,,,,,,,,,,,,,,,,,,,,,,,,,,,,,,,,,,,,,,,,,,,,,,,,,,,,,,,,,,,,,,,,,,,,,,,,,,,,,,,,,,
,,,,,,5eb471789686d82c24661cb3,62c5398412ed07e8cbef830e,2022-07-06_02h28.40.387,Colour_Asymmetry_Pilot,2022.1.3,Win32,59.95203837,62c50e9c1127f2cd403a315f,0,3,3,72,1,onetwo,,,,,,,,,,,,,,,,,,,,,,,,,,,,,,,,,,,,,,,,,,,,,,,,,,,,,,,,,,,,,,,,,,,,,,,,,,,,,,,,,,,,,,,,,,,,,,,,,,,,,,,,,,,,,,,,,,,,,,,,,,,,,,,,,,,,,,,,,,,,,,,,,,,,,,,,,,,,
,,,,,,5eb471789686d82c24661cb3,62c5398412ed07e8cbef830e,2022-07-06_02h28.40.387,Colour_Asymmetry_Pilot,2022.1.3,Win32,59.95203837,62c50e9c1127f2cd403a315f,0,4,4,34,1,twoone,,,,,,,,,,,,,,,,,,,,,,,,,,,,,,,,,,,,,,,,,,,,,,,,,,,,,,,,,,,,,,,,,,,,,,,,,,,,,,,,,,,,,,,,,,,,,,,,,,,,,,,,,,,,,,,,,,,,,,,,,,,,,,,,,,,,,,,,,,,,,,,,,,,,,,,,,,,,
,,,,,,5eb471789686d82c24661cb3,62c5398412ed07e8cbef830e,2022-07-06_02h28.40.387,Colour_Asymmetry_Pilot,2022.1.3,Win32,59.95203837,62c50e9c1127f2cd403a315f,0,5,5,65,1,onethree,,,,,,,,,,,,,,,,,,,,,,,,,,,,,,,,,,,,,,,,,,,,,,,,,,,,,,,,,,,,,,,,,,,,,,,,,,,,,,,,,,,,,,,,,,,,,,,,,,,,,,,,,,,,,,,,,,,,,,,,,,,,,,,,,,,,,,,,,,,,,,,,,,,,,,,,,,,,
,,,,,,5eb471789686d82c24661cb3,62c5398412ed07e8cbef830e,2022-07-06_02h28.40.387,Colour_Asymmetry_Pilot,2022.1.3,Win32,59.95203837,62c50e9c1127f2cd403a315f,0,6,6,111,1,fourthree,,,,,,,,,,,,,,,,,,,,,,,,,,,,,,,,,,,,,,,,,,,,,,,,,,,,,,,,,,,,,,,,,,,,,,,,,,,,,,,,,,,,,,,,,,,,,,,,,,,,,,,,,,,,,,,,,,,,,,,,,,,,,,,,,,,,,,,,,,,,,,,,,,,,,,,,,,,,
,,,,,,5eb471789686d82c24661cb3,62c5398412ed07e8cbef830e,2022-07-06_02h28.40.387,Colour_Asymmetry_Pilot,2022.1.3,Win32,59.95203837,62c50e9c1127f2cd403a315f,0,7,7,18,1,twoone,,,,,,,,,,,,,,,,,,,,,,,,,,,,,,,,,,,,,,,,,,,,,,,,,,,,,,,,,,,,,,,,,,,,,,,,,,,,,,,,,,,,,,,,,,,,,,,,,,,,,,,,,,,,,,,,,,,,,,,,,,,,,,,,,,,,,,,,,,,,,,,,,,,,,,,,,,,,
,,,,,,5eb471789686d82c24661cb3,62c5398412ed07e8cbef830e,2022-07-06_02h28.40.387,Colour_Asymmetry_Pilot,2022.1.3,Win32,59.95203837,62c50e9c1127f2cd403a315f,0,8,8,151,1,fourthree,,,,,,,,,,,,,,,,,,,,,,,,,,,,,,,,,,,,,,,,,,,,,,,,,,,,,,,,,,,,,,,,,,,,,,,,,,,,,,,,,,,,,,,,,,,,,,,,,,,,,,,,,,,,,,,,,,,,,,,,,,,,,,,,,,,,,,,,,,,,,,,,,,,,,,,,,,,,
,,,,,,5eb471789686d82c24661cb3,62c5398412ed07e8cbef830e,2022-07-06_02h28.40.387,Colour_Asymmetry_Pilot,2022.1.3,Win32,59.95203837,62c50e9c1127f2cd403a315f,0,9,9,146,1,twoone,,,,,,,,,,,,,,,,,,,,,,,,,,,,,,,,,,,,,,,,,,,,,,,,,,,,,,,,,,,,,,,,,,,,,,,,,,,,,,,,,,,,,,,,,,,,,,,,,,,,,,,,,,,,,,,,,,,,,,,,,,,,,,,,,,,,,,,,,,,,,,,,,,,,,,,,,,,,
,,,,,,5eb471789686d82c24661cb3,62c5398412ed07e8cbef830e,2022-07-06_02h28.40.387,Colour_Asymmetry_Pilot,2022.1.3,Win32,59.95203837,62c50e9c1127f2cd403a315f,0,10,10,1,1,onethree,,,,,,,,,,,,,,,,,,,,,,,,,,,,,,,,,,,,,,,,,,,,,,,,,,,,,,,,,,,,,,,,,,,,,,,,,,,,,,,,,,,,,,,,,,,,,,,,,,,,,,,,,,,,,,,,,,,,,,,,,,,,,,,,,,,,,,,,,,,,,,,,,,,,,,,,,,,,
,,,,,,5eb471789686d82c24661cb3,62c5398412ed07e8cbef830e,2022-07-06_02h28.40.387,Colour_Asymmetry_Pilot,2022.1.3,Win32,59.95203837,62c50e9c1127f2cd403a315f,0,11,11,36,1,threeone,,,,,,,,,,,,,,,,,,,,,,,,,,,,,,,,,,,,,,,,,,,,,,,,,,,,,,,,,,,,,,,,,,,,,,,,,,,,,,,,,,,,,,,,,,,,,,,,,,,,,,,,,,,,,,,,,,,,,,,,,,,,,,,,,,,,,,,,,,,,,,,,,,,,,,,,,,,,
,,,,,,5eb471789686d82c24661cb3,62c5398412ed07e8cbef830e,2022-07-06_02h28.40.387,Colour_Asymmetry_Pilot,2022.1.3,Win32,59.95203837,62c50e9c1127f2cd403a315f,0,12,12,139,1,twofour,,,,,,,,,,,,,,,,,,,,,,,,,,,,,,,,,,,,,,,,,,,,,,,,,,,,,,,,,,,,,,,,,,,,,,,,,,,,,,,,,,,,,,,,,,,,,,,,,,,,,,,,,,,,,,,,,,,,,,,,,,,,,,,,,,,,,,,,,,,,,,,,,,,,,,,,,,,,
,,,,,,5eb471789686d82c24661cb3,62c5398412ed07e8cbef830e,2022-07-06_02h28.40.387,Colour_Asymmetry_Pilot,2022.1.3,Win32,59.95203837,62c50e9c1127f2cd403a315f,0,13,13,14,1,fourtwo,,,,,,,,,,,,,,,,,,,,,,,,,,,,,,,,,,,,,,,,,,,,,,,,,,,,,,,,,,,,,,,,,,,,,,,,,,,,,,,,,,,,,,,,,,,,,,,,,,,,,,,,,,,,,,,,,,,,,,,,,,,,,,,,,,,,,,,,,,,,,,,,,,,,,,,,,,,,
,,,,,,5eb471789686d82c24661cb3,62c5398412ed07e8cbef830e,2022-07-06_02h28.40.387,Colour_Asymmetry_Pilot,2022.1.3,Win32,59.95203837,62c50e9c1127f2cd403a315f,0,14,14,82,1,twoone,,,,,,,,,,,,,,,,,,,,,,,,,,,,,,,,,,,,,,,,,,,,,,,,,,,,,,,,,,,,,,,,,,,,,,,,,,,,,,,,,,,,,,,,,,,,,,,,,,,,,,,,,,,,,,,,,,,,,,,,,,,,,,,,,,,,,,,,,,,,,,,,,,,,,,,,,,,,
,,,,,,5eb471789686d82c24661cb3,62c5398412ed07e8cbef830e,2022-07-06_02h28.40.387,Colour_Asymmetry_Pilot,2022.1.3,Win32,59.95203837,62c50e9c1127f2cd403a315f,0,15,15,83,1,twofour,,,,,,,,,,,,,,,,,,,,,,,,,,,,,,,,,,,,,,,,,,,,,,,,,,,,,,,,,,,,,,,,,,,,,,,,,,,,,,,,,,,,,,,,,,,,,,,,,,,,,,,,,,,,,,,,,,,,,,,,,,,,,,,,,,,,,,,,,,,,,,,,,,,,,,,,,,,,
,,,,,,5eb471789686d82c24661cb3,62c5398412ed07e8cbef830e,2022-07-06_02h28.40.387,Colour_Asymmetry_Pilot,2022.1.3,Win32,59.95203837,62c50e9c1127f2cd403a315f,0,16,16,98,1,twoone,,,,,,,,,,,,,,,,,,,,,,,,,,,,,,,,,,,,,,,,,,,,,,,,,,,,,,,,,,,,,,,,,,,,,,,,,,,,,,,,,,,,,,,,,,,,,,,,,,,,,,,,,,,,,,,,,,,,,,,,,,,,,,,,,,,,,,,,,,,,,,,,,,,,,,,,,,,,
,,,,,,5eb471789686d82c24661cb3,62c5398412ed07e8cbef830e,2022-07-06_02h28.40.387,Colour_Asymmetry_Pilot,2022.1.3,Win32,59.95203837,62c50e9c1127f2cd403a315f,0,17,17,132,1,threeone,,,,,,,,,,,,,,,,,,,,,,,,,,,,,,,,,,,,,,,,,,,,,,,,,,,,,,,,,,,,,,,,,,,,,,,,,,,,,,,,,,,,,,,,,,,,,,,,,,,,,,,,,,,,,,,,,,,,,,,,,,,,,,,,,,,,,,,,,,,,,,,,,,,,,,,,,,,,
,,,,,,5eb471789686d82c24661cb3,62c5398412ed07e8cbef830e,2022-07-06_02h28.40.387,Colour_Asymmetry_Pilot,2022.1.3,Win32,59.95203837,62c50e9c1127f2cd403a315f,0,18,18,114,1,twoone,,,,,,,,,,,,,,,,,,,,,,,,,,,,,,,,,,,,,,,,,,,,,,,,,,,,,,,,,,,,,,,,,,,,,,,,,,,,,,,,,,,,,,,,,,,,,,,,,,,,,,,,,,,,,,,,,,,,,,,,,,,,,,,,,,,,,,,,,,,,,,,,,,,,,,,,,,,,
,,,,,,5eb471789686d82c24661cb3,62c5398412ed07e8cbef830e,2022-07-06_02h28.40.387,Colour_Asymmetry_Pilot,2022.1.3,Win32,59.95203837,62c50e9c1127f2cd403a315f,0,19,19,126,1,fourtwo,,,,,,,,,,,,,,,,,,,,,,,,,,,,,,,,,,,,,,,,,,,,,,,,,,,,,,,,,,,,,,,,,,,,,,,,,,,,,,,,,,,,,,,,,,,,,,,,,,,,,,,,,,,,,,,,,,,,,,,,,,,,,,,,,,,,,,,,,,,,,,,,,,,,,,,,,,,,
,,,,,,5eb471789686d82c24661cb3,62c5398412ed07e8cbef830e,2022-07-06_02h28.40.387,Colour_Asymmetry_Pilot,2022.1.3,Win32,59.95203837,62c50e9c1127f2cd403a315f,0,20,20,13,1,threefour,,,,,,,,,,,,,,,,,,,,,,,,,,,,,,,,,,,,,,,,,,,,,,,,,,,,,,,,,,,,,,,,,,,,,,,,,,,,,,,,,,,,,,,,,,,,,,,,,,,,,,,,,,,,,,,,,,,,,,,,,,,,,,,,,,,,,,,,,,,,,,,,,,,,,,,,,,,,
,,,,,,5eb471789686d82c24661cb3,62c5398412ed07e8cbef830e,2022-07-06_02h28.40.387,Colour_Asymmetry_Pilot,2022.1.3,Win32,59.95203837,62c50e9c1127f2cd403a315f,0,21,21,119,1,fourthree,,,,,,,,,,,,,,,,,,,,,,,,,,,,,,,,,,,,,,,,,,,,,,,,,,,,,,,,,,,,,,,,,,,,,,,,,,,,,,,,,,,,,,,,,,,,,,,,,,,,,,,,,,,,,,,,,,,,,,,,,,,,,,,,,,,,,,,,,,,,,,,,,,,,,,,,,,,,
,,,,,,5eb471789686d82c24661cb3,62c5398412ed07e8cbef830e,2022-07-06_02h28.40.387,Colour_Asymmetry_Pilot,2022.1.3,Win32,59.95203837,62c50e9c1127f2cd403a315f,0,22,22,102,1,fourtwo,,,,,,,,,,,,,,,,,,,,,,,,,,,,,,,,,,,,,,,,,,,,,,,,,,,,,,,,,,,,,,,,,,,,,,,,,,,,,,,,,,,,,,,,,,,,,,,,,,,,,,,,,,,,,,,,,,,,,,,,,,,,,,,,,,,,,,,,,,,,,,,,,,,,,,,,,,,,
,,,,,,5eb471789686d82c24661cb3,62c5398412ed07e8cbef830e,2022-07-06_02h28.40.387,Colour_Asymmetry_Pilot,2022.1.3,Win32,59.95203837,62c50e9c1127f2cd403a315f,0,23,23,144,1,onetwo,,,,,,,,,,,,,,,,,,,,,,,,,,,,,,,,,,,,,,,,,,,,,,,,,,,,,,,,,,,,,,,,,,,,,,,,,,,,,,,,,,,,,,,,,,,,,,,,,,,,,,,,,,,,,,,,,,,,,,,,,,,,,,,,,,,,,,,,,,,,,,,,,,,,,,,,,,,,
,,,,,,5eb471789686d82c24661cb3,62c5398412ed07e8cbef830e,2022-07-06_02h28.40.387,Colour_Asymmetry_Pilot,2022.1.3,Win32,59.95203837,62c50e9c1127f2cd403a315f,0,24,24,155,1,twofour,,,,,,,,,,,,,,,,,,,,,,,,,,,,,,,,,,,,,,,,,,,,,,,,,,,,,,,,,,,,,,,,,,,,,,,,,,,,,,,,,,,,,,,,,,,,,,,,,,,,,,,,,,,,,,,,,,,,,,,,,,,,,,,,,,,,,,,,,,,,,,,,,,,,,,,,,,,,
,,,,,,5eb471789686d82c24661cb3,62c5398412ed07e8cbef830e,2022-07-06_02h28.40.387,Colour_Asymmetry_Pilot,2022.1.3,Win32,59.95203837,62c50e9c1127f2cd403a315f,0,25,25,50,1,twoone,,,,,,,,,,,,,,,,,,,,,,,,,,,,,,,,,,,,,,,,,,,,,,,,,,,,,,,,,,,,,,,,,,,,,,,,,,,,,,,,,,,,,,,,,,,,,,,,,,,,,,,,,,,,,,,,,,,,,,,,,,,,,,,,,,,,,,,,,,,,,,,,,,,,,,,,,,,,
,,,,,,5eb471789686d82c24661cb3,62c5398412ed07e8cbef830e,2022-07-06_02h28.40.387,Colour_Asymmetry_Pilot,2022.1.3,Win32,59.95203837,62c50e9c1127f2cd403a315f,0,26,26,133,1,threefour,,,,,,,,,,,,,,,,,,,,,,,,,,,,,,,,,,,,,,,,,,,,,,,,,,,,,,,,,,,,,,,,,,,,,,,,,,,,,,,,,,,,,,,,,,,,,,,,,,,,,,,,,,,,,,,,,,,,,,,,,,,,,,,,,,,,,,,,,,,,,,,,,,,,,,,,,,,,
,,,,,,5eb471789686d82c24661cb3,62c5398412ed07e8cbef830e,2022-07-06_02h28.40.387,Colour_Asymmetry_Pilot,2022.1.3,Win32,59.95203837,62c50e9c1127f2cd403a315f,0,27,27,5,1,threefour,,,,,,,,,,,,,,,,,,,,,,,,,,,,,,,,,,,,,,,,,,,,,,,,,,,,,,,,,,,,,,,,,,,,,,,,,,,,,,,,,,,,,,,,,,,,,,,,,,,,,,,,,,,,,,,,,,,,,,,,,,,,,,,,,,,,,,,,,,,,,,,,,,,,,,,,,,,,
,,,,,,5eb471789686d82c24661cb3,62c5398412ed07e8cbef830e,2022-07-06_02h28.40.387,Colour_Asymmetry_Pilot,2022.1.3,Win32,59.95203837,62c50e9c1127f2cd403a315f,0,28,28,10,1,twoone,,,,,,,,,,,,,,,,,,,,,,,,,,,,,,,,,,,,,,,,,,,,,,,,,,,,,,,,,,,,,,,,,,,,,,,,,,,,,,,,,,,,,,,,,,,,,,,,,,,,,,,,,,,,,,,,,,,,,,,,,,,,,,,,,,,,,,,,,,,,,,,,,,,,,,,,,,,,
,,,,,,5eb471789686d82c24661cb3,62c5398412ed07e8cbef830e,2022-07-06_02h28.40.387,Colour_Asymmetry_Pilot,2022.1.3,Win32,59.95203837,62c50e9c1127f2cd403a315f,0,29,29,92,1,threeone,,,,,,,,,,,,,,,,,,,,,,,,,,,,,,,,,,,,,,,,,,,,,,,,,,,,,,,,,,,,,,,,,,,,,,,,,,,,,,,,,,,,,,,,,,,,,,,,,,,,,,,,,,,,,,,,,,,,,,,,,,,,,,,,,,,,,,,,,,,,,,,,,,,,,,,,,,,,
,,,,,,5eb471789686d82c24661cb3,62c5398412ed07e8cbef830e,2022-07-06_02h28.40.387,Colour_Asymmetry_Pilot,2022.1.3,Win32,59.95203837,62c50e9c1127f2cd403a315f,0,30,30,4,1,threeone,,,,,,,,,,,,,,,,,,,,,,,,,,,,,,,,,,,,,,,,,,,,,,,,,,,,,,,,,,,,,,,,,,,,,,,,,,,,,,,,,,,,,,,,,,,,,,,,,,,,,,,,,,,,,,,,,,,,,,,,,,,,,,,,,,,,,,,,,,,,,,,,,,,,,,,,,,,,
,,,,,,5eb471789686d82c24661cb3,62c5398412ed07e8cbef830e,2022-07-06_02h28.40.387,Colour_Asymmetry_Pilot,2022.1.3,Win32,59.95203837,62c50e9c1127f2cd403a315f,0,31,31,160,1,onetwo,,,,,,,,,,,,,,,,,,,,,,,,,,,,,,,,,,,,,,,,,,,,,,,,,,,,,,,,,,,,,,,,,,,,,,,,,,,,,,,,,,,,,,,,,,,,,,,,,,,,,,,,,,,,,,,,,,,,,,,,,,,,,,,,,,,,,,,,,,,,,,,,,,,,,,,,,,,,
,,,,,,5eb471789686d82c24661cb3,62c5398412ed07e8cbef830e,2022-07-06_02h28.40.387,Colour_Asymmetry_Pilot,2022.1.3,Win32,59.95203837,62c50e9c1127f2cd403a315f,0,32,32,99,1,twofour,,,,,,,,,,,,,,,,,,,,,,,,,,,,,,,,,,,,,,,,,,,,,,,,,,,,,,,,,,,,,,,,,,,,,,,,,,,,,,,,,,,,,,,,,,,,,,,,,,,,,,,,,,,,,,,,,,,,,,,,,,,,,,,,,,,,,,,,,,,,,,,,,,,,,,,,,,,,
,,,,,,5eb471789686d82c24661cb3,62c5398412ed07e8cbef830e,2022-07-06_02h28.40.387,Colour_Asymmetry_Pilot,2022.1.3,Win32,59.95203837,62c50e9c1127f2cd403a315f,0,33,33,17,1,onethree,,,,,,,,,,,,,,,,,,,,,,,,,,,,,,,,,,,,,,,,,,,,,,,,,,,,,,,,,,,,,,,,,,,,,,,,,,,,,,,,,,,,,,,,,,,,,,,,,,,,,,,,,,,,,,,,,,,,,,,,,,,,,,,,,,,,,,,,,,,,,,,,,,,,,,,,,,,,
,,,,,,5eb471789686d82c24661cb3,62c5398412ed07e8cbef830e,2022-07-06_02h28.40.387,Colour_Asymmetry_Pilot,2022.1.3,Win32,59.95203837,62c50e9c1127f2cd403a315f,0,34,34,89,1,onethree,,,,,,,,,,,,,,,,,,,,,,,,,,,,,,,,,,,,,,,,,,,,,,,,,,,,,,,,,,,,,,,,,,,,,,,,,,,,,,,,,,,,,,,,,,,,,,,,,,,,,,,,,,,,,,,,,,,,,,,,,,,,,,,,,,,,,,,,,,,,,,,,,,,,,,,,,,,,
,,,,,,5eb471789686d82c24661cb3,62c5398412ed07e8cbef830e,2022-07-06_02h28.40.387,Colour_Asymmetry_Pilot,2022.1.3,Win32,59.95203837,62c50e9c1127f2cd403a315f,0,35,35,52,1,threeone,,,,,,,,,,,,,,,,,,,,,,,,,,,,,,,,,,,,,,,,,,,,,,,,,,,,,,,,,,,,,,,,,,,,,,,,,,,,,,,,,,,,,,,,,,,,,,,,,,,,,,,,,,,,,,,,,,,,,,,,,,,,,,,,,,,,,,,,,,,,,,,,,,,,,,,,,,,,
,,,,,,5eb471789686d82c24661cb3,62c5398412ed07e8cbef830e,2022-07-06_02h28.40.387,Colour_Asymmetry_Pilot,2022.1.3,Win32,59.95203837,62c50e9c1127f2cd403a315f,0,36,36,70,1,fourtwo,,,,,,,,,,,,,,,,,,,,,,,,,,,,,,,,,,,,,,,,,,,,,,,,,,,,,,,,,,,,,,,,,,,,,,,,,,,,,,,,,,,,,,,,,,,,,,,,,,,,,,,,,,,,,,,,,,,,,,,,,,,,,,,,,,,,,,,,,,,,,,,,,,,,,,,,,,,,
,,,,,,5eb471789686d82c24661cb3,62c5398412ed07e8cbef830e,2022-07-06_02h28.40.387,Colour_Asymmetry_Pilot,2022.1.3,Win32,59.95203837,62c50e9c1127f2cd403a315f,0,37,37,113,1,onethree,,,,,,,,,,,,,,,,,,,,,,,,,,,,,,,,,,,,,,,,,,,,,,,,,,,,,,,,,,,,,,,,,,,,,,,,,,,,,,,,,,,,,,,,,,,,,,,,,,,,,,,,,,,,,,,,,,,,,,,,,,,,,,,,,,,,,,,,,,,,,,,,,,,,,,,,,,,,
,,,,,,5eb471789686d82c24661cb3,62c5398412ed07e8cbef830e,2022-07-06_02h28.40.387,Colour_Asymmetry_Pilot,2022.1.3,Win32,59.95203837,62c50e9c1127f2cd403a315f,0,38,38,137,1,onethree,,,,,,,,,,,,,,,,,,,,,,,,,,,,,,,,,,,,,,,,,,,,,,,,,,,,,,,,,,,,,,,,,,,,,,,,,,,,,,,,,,,,,,,,,,,,,,,,,,,,,,,,,,,,,,,,,,,,,,,,,,,,,,,,,,,,,,,,,,,,,,,,,,,,,,,,,,,,
,,,,,,5eb471789686d82c24661cb3,62c5398412ed07e8cbef830e,2022-07-06_02h28.40.387,Colour_Asymmetry_Pilot,2022.1.3,Win32,59.95203837,62c50e9c1127f2cd403a315f,0,39,39,145,1,onethree,,,,,,,,,,,,,,,,,,,,,,,,,,,,,,,,,,,,,,,,,,,,,,,,,,,,,,,,,,,,,,,,,,,,,,,,,,,,,,,,,,,,,,,,,,,,,,,,,,,,,,,,,,,,,,,,,,,,,,,,,,,,,,,,,,,,,,,,,,,,,,,,,,,,,,,,,,,,
,,,,,,5eb471789686d82c24661cb3,62c5398412ed07e8cbef830e,2022-07-06_02h28.40.387,Colour_Asymmetry_Pilot,2022.1.3,Win32,59.95203837,62c50e9c1127f2cd403a315f,0,40,40,149,1,threefour,,,,,,,,,,,,,,,,,,,,,,,,,,,,,,,,,,,,,,,,,,,,,,,,,,,,,,,,,,,,,,,,,,,,,,,,,,,,,,,,,,,,,,,,,,,,,,,,,,,,,,,,,,,,,,,,,,,,,,,,,,,,,,,,,,,,,,,,,,,,,,,,,,,,,,,,,,,,
,,,,,,5eb471789686d82c24661cb3,62c5398412ed07e8cbef830e,2022-07-06_02h28.40.387,Colour_Asymmetry_Pilot,2022.1.3,Win32,59.95203837,62c50e9c1127f2cd403a315f,0,41,41,0,1,onetwo,,,,,,,,,,,,,,,,,,,,,,,,,,,,,,,,,,,,,,,,,,,,,,,,,,,,,,,,,,,,,,,,,,,,,,,,,,,,,,,,,,,,,,,,,,,,,,,,,,,,,,,,,,,,,,,,,,,,,,,,,,,,,,,,,,,,,,,,,,,,,,,,,,,,,,,,,,,,
,,,,,,5eb471789686d82c24661cb3,62c5398412ed07e8cbef830e,2022-07-06_02h28.40.387,Colour_Asymmetry_Pilot,2022.1.3,Win32,59.95203837,62c50e9c1127f2cd403a315f,0,42,42,103,1,fourthree,,,,,,,,,,,,,,,,,,,,,,,,,,,,,,,,,,,,,,,,,,,,,,,,,,,,,,,,,,,,,,,,,,,,,,,,,,,,,,,,,,,,,,,,,,,,,,,,,,,,,,,,,,,,,,,,,,,,,,,,,,,,,,,,,,,,,,,,,,,,,,,,,,,,,,,,,,,,
,,,,,,5eb471789686d82c24661cb3,62c5398412ed07e8cbef830e,2022-07-06_02h28.40.387,Colour_Asymmetry_Pilot,2022.1.3,Win32,59.95203837,62c50e9c1127f2cd403a315f,0,43,43,60,1,threeone,,,,,,,,,,,,,,,,,,,,,,,,,,,,,,,,,,,,,,,,,,,,,,,,,,,,,,,,,,,,,,,,,,,,,,,,,,,,,,,,,,,,,,,,,,,,,,,,,,,,,,,,,,,,,,,,,,,,,,,,,,,,,,,,,,,,,,,,,,,,,,,,,,,,,,,,,,,,
,,,,,,5eb471789686d82c24661cb3,62c5398412ed07e8cbef830e,2022-07-06_02h28.40.387,Colour_Asymmetry_Pilot,2022.1.3,Win32,59.95203837,62c50e9c1127f2cd403a315f,0,44,44,147,1,twofour,,,,,,,,,,,,,,,,,,,,,,,,,,,,,,,,,,,,,,,,,,,,,,,,,,,,,,,,,,,,,,,,,,,,,,,,,,,,,,,,,,,,,,,,,,,,,,,,,,,,,,,,,,,,,,,,,,,,,,,,,,,,,,,,,,,,,,,,,,,,,,,,,,,,,,,,,,,,
,,,,,,5eb471789686d82c24661cb3,62c5398412ed07e8cbef830e,2022-07-06_02h28.40.387,Colour_Asymmetry_Pilot,2022.1.3,Win32,59.95203837,62c50e9c1127f2cd403a315f,0,45,45,43,1,twofour,,,,,,,,,,,,,,,,,,,,,,,,,,,,,,,,,,,,,,,,,,,,,,,,,,,,,,,,,,,,,,,,,,,,,,,,,,,,,,,,,,,,,,,,,,,,,,,,,,,,,,,,,,,,,,,,,,,,,,,,,,,,,,,,,,,,,,,,,,,,,,,,,,,,,,,,,,,,
,,,,,,5eb471789686d82c24661cb3,62c5398412ed07e8cbef830e,2022-07-06_02h28.40.387,Colour_Asymmetry_Pilot,2022.1.3,Win32,59.95203837,62c50e9c1127f2cd403a315f,0,46,46,88,1,onetwo,,,,,,,,,,,,,,,,,,,,,,,,,,,,,,,,,,,,,,,,,,,,,,,,,,,,,,,,,,,,,,,,,,,,,,,,,,,,,,,,,,,,,,,,,,,,,,,,,,,,,,,,,,,,,,,,,,,,,,,,,,,,,,,,,,,,,,,,,,,,,,,,,,,,,,,,,,,,
,,,,,,5eb471789686d82c24661cb3,62c5398412ed07e8cbef830e,2022-07-06_02h28.40.387,Colour_Asymmetry_Pilot,2022.1.3,Win32,59.95203837,62c50e9c1127f2cd403a315f,0,47,47,104,1,onetwo,,,,,,,,,,,,,,,,,,,,,,,,,,,,,,,,,,,,,,,,,,,,,,,,,,,,,,,,,,,,,,,,,,,,,,,,,,,,,,,,,,,,,,,,,,,,,,,,,,,,,,,,,,,,,,,,,,,,,,,,,,,,,,,,,,,,,,,,,,,,,,,,,,,,,,,,,,,,
,,,,,,5eb471789686d82c24661cb3,62c5398412ed07e8cbef830e,2022-07-06_02h28.40.387,Colour_Asymmetry_Pilot,2022.1.3,Win32,59.95203837,62c50e9c1127f2cd403a315f,0,48,48,3,1,twofour,,,,,,,,,,,,,,,,,,,,,,,,,,,,,,,,,,,,,,,,,,,,,,,,,,,,,,,,,,,,,,,,,,,,,,,,,,,,,,,,,,,,,,,,,,,,,,,,,,,,,,,,,,,,,,,,,,,,,,,,,,,,,,,,,,,,,,,,,,,,,,,,,,,,,,,,,,,,
,,,,,,5eb471789686d82c24661cb3,62c5398412ed07e8cbef830e,2022-07-06_02h28.40.387,Colour_Asymmetry_Pilot,2022.1.3,Win32,59.95203837,62c50e9c1127f2cd403a315f,0,49,49,156,1,threeone,,,,,,,,,,,,,,,,,,,,,,,,,,,,,,,,,,,,,,,,,,,,,,,,,,,,,,,,,,,,,,,,,,,,,,,,,,,,,,,,,,,,,,,,,,,,,,,,,,,,,,,,,,,,,,,,,,,,,,,,,,,,,,,,,,,,,,,,,,,,,,,,,,,,,,,,,,,,
,,,,,,5eb471789686d82c24661cb3,62c5398412ed07e8cbef830e,2022-07-06_02h28.40.387,Colour_Asymmetry_Pilot,2022.1.3,Win32,59.95203837,62c50e9c1127f2cd403a315f,0,50,50,2,1,twoone,,,,,,,,,,,,,,,,,,,,,,,,,,,,,,,,,,,,,,,,,,,,,,,,,,,,,,,,,,,,,,,,,,,,,,,,,,,,,,,,,,,,,,,,,,,,,,,,,,,,,,,,,,,,,,,,,,,,,,,,,,,,,,,,,,,,,,,,,,,,,,,,,,,,,,,,,,,,
,,,,,,5eb471789686d82c24661cb3,62c5398412ed07e8cbef830e,2022-07-06_02h28.40.387,Colour_Asymmetry_Pilot,2022.1.3,Win32,59.95203837,62c50e9c1127f2cd403a315f,0,51,51,124,1,threeone,,,,,,,,,,,,,,,,,,,,,,,,,,,,,,,,,,,,,,,,,,,,,,,,,,,,,,,,,,,,,,,,,,,,,,,,,,,,,,,,,,,,,,,,,,,,,,,,,,,,,,,,,,,,,,,,,,,,,,,,,,,,,,,,,,,,,,,,,,,,,,,,,,,,,,,,,,,,
,,,,,,5eb471789686d82c24661cb3,62c5398412ed07e8cbef830e,2022-07-06_02h28.40.387,Colour_Asymmetry_Pilot,2022.1.3,Win32,59.95203837,62c50e9c1127f2cd403a315f,0,52,52,66,1,twoone,,,,,,,,,,,,,,,,,,,,,,,,,,,,,,,,,,,,,,,,,,,,,,,,,,,,,,,,,,,,,,,,,,,,,,,,,,,,,,,,,,,,,,,,,,,,,,,,,,,,,,,,,,,,,,,,,,,,,,,,,,,,,,,,,,,,,,,,,,,,,,,,,,,,,,,,,,,,
,,,,,,5eb471789686d82c24661cb3,62c5398412ed07e8cbef830e,2022-07-06_02h28.40.387,Colour_Asymmetry_Pilot,2022.1.3,Win32,59.95203837,62c50e9c1127f2cd403a315f,0,53,53,141,1,threefour,,,,,,,,,,,,,,,,,,,,,,,,,,,,,,,,,,,,,,,,,,,,,,,,,,,,,,,,,,,,,,,,,,,,,,,,,,,,,,,,,,,,,,,,,,,,,,,,,,,,,,,,,,,,,,,,,,,,,,,,,,,,,,,,,,,,,,,,,,,,,,,,,,,,,,,,,,,,
,,,,,,5eb471789686d82c24661cb3,62c5398412ed07e8cbef830e,2022-07-06_02h28.40.387,Colour_Asymmetry_Pilot,2022.1.3,Win32,59.95203837,62c50e9c1127f2cd403a315f,0,54,54,21,1,threefour,,,,,,,,,,,,,,,,,,,,,,,,,,,,,,,,,,,,,,,,,,,,,,,,,,,,,,,,,,,,,,,,,,,,,,,,,,,,,,,,,,,,,,,,,,,,,,,,,,,,,,,,,,,,,,,,,,,,,,,,,,,,,,,,,,,,,,,,,,,,,,,,,,,,,,,,,,,,
,,,,,,5eb471789686d82c24661cb3,62c5398412ed07e8cbef830e,2022-07-06_02h28.40.387,Colour_Asymmetry_Pilot,2022.1.3,Win32,59.95203837,62c50e9c1127f2cd403a315f,0,55,55,148,1,threeone,,,,,,,,,,,,,,,,,,,,,,,,,,,,,,,,,,,,,,,,,,,,,,,,,,,,,,,,,,,,,,,,,,,,,,,,,,,,,,,,,,,,,,,,,,,,,,,,,,,,,,,,,,,,,,,,,,,,,,,,,,,,,,,,,,,,,,,,,,,,,,,,,,,,,,,,,,,,
,,,,,,5eb471789686d82c24661cb3,62c5398412ed07e8cbef830e,2022-07-06_02h28.40.387,Colour_Asymmetry_Pilot,2022.1.3,Win32,59.95203837,62c50e9c1127f2cd403a315f,0,56,56,37,1,threefour,,,,,,,,,,,,,,,,,,,,,,,,,,,,,,,,,,,,,,,,,,,,,,,,,,,,,,,,,,,,,,,,,,,,,,,,,,,,,,,,,,,,,,,,,,,,,,,,,,,,,,,,,,,,,,,,,,,,,,,,,,,,,,,,,,,,,,,,,,,,,,,,,,,,,,,,,,,,
,,,,,,5eb471789686d82c24661cb3,62c5398412ed07e8cbef830e,2022-07-06_02h28.40.387,Colour_Asymmetry_Pilot,2022.1.3,Win32,59.95203837,62c50e9c1127f2cd403a315f,0,57,57,39,1,fourthree,,,,,,,,,,,,,,,,,,,,,,,,,,,,,,,,,,,,,,,,,,,,,,,,,,,,,,,,,,,,,,,,,,,,,,,,,,,,,,,,,,,,,,,,,,,,,,,,,,,,,,,,,,,,,,,,,,,,,,,,,,,,,,,,,,,,,,,,,,,,,,,,,,,,,,,,,,,,
,,,,,,5eb471789686d82c24661cb3,62c5398412ed07e8cbef830e,2022-07-06_02h28.40.387,Colour_Asymmetry_Pilot,2022.1.3,Win32,59.95203837,62c50e9c1127f2cd403a315f,0,58,58,55,1,fourthree,,,,,,,,,,,,,,,,,,,,,,,,,,,,,,,,,,,,,,,,,,,,,,,,,,,,,,,,,,,,,,,,,,,,,,,,,,,,,,,,,,,,,,,,,,,,,,,,,,,,,,,,,,,,,,,,,,,,,,,,,,,,,,,,,,,,,,,,,,,,,,,,,,,,,,,,,,,,
,,,,,,5eb471789686d82c24661cb3,62c5398412ed07e8cbef830e,2022-07-06_02h28.40.387,Colour_Asymmetry_Pilot,2022.1.3,Win32,59.95203837,62c50e9c1127f2cd403a315f,0,59,59,110,1,fourtwo,,,,,,,,,,,,,,,,,,,,,,,,,,,,,,,,,,,,,,,,,,,,,,,,,,,,,,,,,,,,,,,,,,,,,,,,,,,,,,,,,,,,,,,,,,,,,,,,,,,,,,,,,,,,,,,,,,,,,,,,,,,,,,,,,,,,,,,,,,,,,,,,,,,,,,,,,,,,
,,,,,,5eb471789686d82c24661cb3,62c5398412ed07e8cbef830e,2022-07-06_02h28.40.387,Colour_Asymmetry_Pilot,2022.1.3,Win32,59.95203837,62c50e9c1127f2cd403a315f,0,60,60,20,1,threeone,,,,,,,,,,,,,,,,,,,,,,,,,,,,,,,,,,,,,,,,,,,,,,,,,,,,,,,,,,,,,,,,,,,,,,,,,,,,,,,,,,,,,,,,,,,,,,,,,,,,,,,,,,,,,,,,,,,,,,,,,,,,,,,,,,,,,,,,,,,,,,,,,,,,,,,,,,,,
,,,,,,5eb471789686d82c24661cb3,62c5398412ed07e8cbef830e,2022-07-06_02h28.40.387,Colour_Asymmetry_Pilot,2022.1.3,Win32,59.95203837,62c50e9c1127f2cd403a315f,0,61,61,29,1,threefour,,,,,,,,,,,,,,,,,,,,,,,,,,,,,,,,,,,,,,,,,,,,,,,,,,,,,,,,,,,,,,,,,,,,,,,,,,,,,,,,,,,,,,,,,,,,,,,,,,,,,,,,,,,,,,,,,,,,,,,,,,,,,,,,,,,,,,,,,,,,,,,,,,,,,,,,,,,,
,,,,,,5eb471789686d82c24661cb3,62c5398412ed07e8cbef830e,2022-07-06_02h28.40.387,Colour_Asymmetry_Pilot,2022.1.3,Win32,59.95203837,62c50e9c1127f2cd403a315f,0,62,62,81,1,onethree,,,,,,,,,,,,,,,,,,,,,,,,,,,,,,,,,,,,,,,,,,,,,,,,,,,,,,,,,,,,,,,,,,,,,,,,,,,,,,,,,,,,,,,,,,,,,,,,,,,,,,,,,,,,,,,,,,,,,,,,,,,,,,,,,,,,,,,,,,,,,,,,,,,,,,,,,,,,
,,,,,,5eb471789686d82c24661cb3,62c5398412ed07e8cbef830e,2022-07-06_02h28.40.387,Colour_Asymmetry_Pilot,2022.1.3,Win32,59.95203837,62c50e9c1127f2cd403a315f,0,63,63,90,1,twoone,,,,,,,,,,,,,,,,,,,,,,,,,,,,,,,,,,,,,,,,,,,,,,,,,,,,,,,,,,,,,,,,,,,,,,,,,,,,,,,,,,,,,,,,,,,,,,,,,,,,,,,,,,,,,,,,,,,,,,,,,,,,,,,,,,,,,,,,,,,,,,,,,,,,,,,,,,,,
,,,,,,5eb471789686d82c24661cb3,62c5398412ed07e8cbef830e,2022-07-06_02h28.40.387,Colour_Asymmetry_Pilot,2022.1.3,Win32,59.95203837,62c50e9c1127f2cd403a315f,0,64,64,136,1,onetwo,,,,,,,,,,,,,,,,,,,,,,,,,,,,,,,,,,,,,,,,,,,,,,,,,,,,,,,,,,,,,,,,,,,,,,,,,,,,,,,,,,,,,,,,,,,,,,,,,,,,,,,,,,,,,,,,,,,,,,,,,,,,,,,,,,,,,,,,,,,,,,,,,,,,,,,,,,,,
,,,,,,5eb471789686d82c24661cb3,62c5398412ed07e8cbef830e,2022-07-06_02h28.40.387,Colour_Asymmetry_Pilot,2022.1.3,Win32,59.95203837,62c50e9c1127f2cd403a315f,0,65,65,23,1,fourthree,,,,,,,,,,,,,,,,,,,,,,,,,,,,,,,,,,,,,,,,,,,,,,,,,,,,,,,,,,,,,,,,,,,,,,,,,,,,,,,,,,,,,,,,,,,,,,,,,,,,,,,,,,,,,,,,,,,,,,,,,,,,,,,,,,,,,,,,,,,,,,,,,,,,,,,,,,,,
,,,,,,5eb471789686d82c24661cb3,62c5398412ed07e8cbef830e,2022-07-06_02h28.40.387,Colour_Asymmetry_Pilot,2022.1.3,Win32,59.95203837,62c50e9c1127f2cd403a315f,0,66,66,12,1,threeone,,,,,,,,,,,,,,,,,,,,,,,,,,,,,,,,,,,,,,,,,,,,,,,,,,,,,,,,,,,,,,,,,,,,,,,,,,,,,,,,,,,,,,,,,,,,,,,,,,,,,,,,,,,,,,,,,,,,,,,,,,,,,,,,,,,,,,,,,,,,,,,,,,,,,,,,,,,,
,,,,,,5eb471789686d82c24661cb3,62c5398412ed07e8cbef830e,2022-07-06_02h28.40.387,Colour_Asymmetry_Pilot,2022.1.3,Win32,59.95203837,62c50e9c1127f2cd403a315f,0,67,67,150,1,fourtwo,,,,,,,,,,,,,,,,,,,,,,,,,,,,,,,,,,,,,,,,,,,,,,,,,,,,,,,,,,,,,,,,,,,,,,,,,,,,,,,,,,,,,,,,,,,,,,,,,,,,,,,,,,,,,,,,,,,,,,,,,,,,,,,,,,,,,,,,,,,,,,,,,,,,,,,,,,,,
,,,,,,5eb471789686d82c24661cb3,62c5398412ed07e8cbef830e,2022-07-06_02h28.40.387,Colour_Asymmetry_Pilot,2022.1.3,Win32,59.95203837,62c50e9c1127f2cd403a315f,0,68,68,153,1,onethree,,,,,,,,,,,,,,,,,,,,,,,,,,,,,,,,,,,,,,,,,,,,,,,,,,,,,,,,,,,,,,,,,,,,,,,,,,,,,,,,,,,,,,,,,,,,,,,,,,,,,,,,,,,,,,,,,,,,,,,,,,,,,,,,,,,,,,,,,,,,,,,,,,,,,,,,,,,,
,,,,,,5eb471789686d82c24661cb3,62c5398412ed07e8cbef830e,2022-07-06_02h28.40.387,Colour_Asymmetry_Pilot,2022.1.3,Win32,59.95203837,62c50e9c1127f2cd403a315f,0,69,69,75,1,twofour,,,,,,,,,,,,,,,,,,,,,,,,,,,,,,,,,,,,,,,,,,,,,,,,,,,,,,,,,,,,,,,,,,,,,,,,,,,,,,,,,,,,,,,,,,,,,,,,,,,,,,,,,,,,,,,,,,,,,,,,,,,,,,,,,,,,,,,,,,,,,,,,,,,,,,,,,,,,
,,,,,,5eb471789686d82c24661cb3,62c5398412ed07e8cbef830e,2022-07-06_02h28.40.387,Colour_Asymmetry_Pilot,2022.1.3,Win32,59.95203837,62c50e9c1127f2cd403a315f,0,70,70,53,1,threefour,,,,,,,,,,,,,,,,,,,,,,,,,,,,,,,,,,,,,,,,,,,,,,,,,,,,,,,,,,,,,,,,,,,,,,,,,,,,,,,,,,,,,,,,,,,,,,,,,,,,,,,,,,,,,,,,,,,,,,,,,,,,,,,,,,,,,,,,,,,,,,,,,,,,,,,,,,,,
,,,,,,5eb471789686d82c24661cb3,62c5398412ed07e8cbef830e,2022-07-06_02h28.40.387,Colour_Asymmetry_Pilot,2022.1.3,Win32,59.95203837,62c50e9c1127f2cd403a315f,0,71,71,96,1,onetwo,,,,,,,,,,,,,,,,,,,,,,,,,,,,,,,,,,,,,,,,,,,,,,,,,,,,,,,,,,,,,,,,,,,,,,,,,,,,,,,,,,,,,,,,,,,,,,,,,,,,,,,,,,,,,,,,,,,,,,,,,,,,,,,,,,,,,,,,,,,,,,,,,,,,,,,,,,,,
,,,,,,5eb471789686d82c24661cb3,62c5398412ed07e8cbef830e,2022-07-06_02h28.40.387,Colour_Asymmetry_Pilot,2022.1.3,Win32,59.95203837,62c50e9c1127f2cd403a315f,0,72,72,56,1,onetwo,,,,,,,,,,,,,,,,,,,,,,,,,,,,,,,,,,,,,,,,,,,,,,,,,,,,,,,,,,,,,,,,,,,,,,,,,,,,,,,,,,,,,,,,,,,,,,,,,,,,,,,,,,,,,,,,,,,,,,,,,,,,,,,,,,,,,,,,,,,,,,,,,,,,,,,,,,,,
,,,,,,5eb471789686d82c24661cb3,62c5398412ed07e8cbef830e,2022-07-06_02h28.40.387,Colour_Asymmetry_Pilot,2022.1.3,Win32,59.95203837,62c50e9c1127f2cd403a315f,0,73,73,115,1,twofour,,,,,,,,,,,,,,,,,,,,,,,,,,,,,,,,,,,,,,,,,,,,,,,,,,,,,,,,,,,,,,,,,,,,,,,,,,,,,,,,,,,,,,,,,,,,,,,,,,,,,,,,,,,,,,,,,,,,,,,,,,,,,,,,,,,,,,,,,,,,,,,,,,,,,,,,,,,,
,,,,,,5eb471789686d82c24661cb3,62c5398412ed07e8cbef830e,2022-07-06_02h28.40.387,Colour_Asymmetry_Pilot,2022.1.3,Win32,59.95203837,62c50e9c1127f2cd403a315f,0,74,74,69,1,threefour,,,,,,,,,,,,,,,,,,,,,,,,,,,,,,,,,,,,,,,,,,,,,,,,,,,,,,,,,,,,,,,,,,,,,,,,,,,,,,,,,,,,,,,,,,,,,,,,,,,,,,,,,,,,,,,,,,,,,,,,,,,,,,,,,,,,,,,,,,,,,,,,,,,,,,,,,,,,
,,,,,,5eb471789686d82c24661cb3,62c5398412ed07e8cbef830e,2022-07-06_02h28.40.387,Colour_Asymmetry_Pilot,2022.1.3,Win32,59.95203837,62c50e9c1127f2cd403a315f,0,75,75,51,1,twofour,,,,,,,,,,,,,,,,,,,,,,,,,,,,,,,,,,,,,,,,,,,,,,,,,,,,,,,,,,,,,,,,,,,,,,,,,,,,,,,,,,,,,,,,,,,,,,,,,,,,,,,,,,,,,,,,,,,,,,,,,,,,,,,,,,,,,,,,,,,,,,,,,,,,,,,,,,,,
,,,,,,5eb471789686d82c24661cb3,62c5398412ed07e8cbef830e,2022-07-06_02h28.40.387,Colour_Asymmetry_Pilot,2022.1.3,Win32,59.95203837,62c50e9c1127f2cd403a315f,0,76,76,86,1,fourtwo,,,,,,,,,,,,,,,,,,,,,,,,,,,,,,,,,,,,,,,,,,,,,,,,,,,,,,,,,,,,,,,,,,,,,,,,,,,,,,,,,,,,,,,,,,,,,,,,,,,,,,,,,,,,,,,,,,,,,,,,,,,,,,,,,,,,,,,,,,,,,,,,,,,,,,,,,,,,
,,,,,,5eb471789686d82c24661cb3,62c5398412ed07e8cbef830e,2022-07-06_02h28.40.387,Colour_Asymmetry_Pilot,2022.1.3,Win32,59.95203837,62c50e9c1127f2cd403a315f,0,77,77,129,1,onethree,,,,,,,,,,,,,,,,,,,,,,,,,,,,,,,,,,,,,,,,,,,,,,,,,,,,,,,,,,,,,,,,,,,,,,,,,,,,,,,,,,,,,,,,,,,,,,,,,,,,,,,,,,,,,,,,,,,,,,,,,,,,,,,,,,,,,,,,,,,,,,,,,,,,,,,,,,,,
,,,,,,5eb471789686d82c24661cb3,62c5398412ed07e8cbef830e,2022-07-06_02h28.40.387,Colour_Asymmetry_Pilot,2022.1.3,Win32,59.95203837,62c50e9c1127f2cd403a315f,0,78,78,46,1,fourtwo,,,,,,,,,,,,,,,,,,,,,,,,,,,,,,,,,,,,,,,,,,,,,,,,,,,,,,,,,,,,,,,,,,,,,,,,,,,,,,,,,,,,,,,,,,,,,,,,,,,,,,,,,,,,,,,,,,,,,,,,,,,,,,,,,,,,,,,,,,,,,,,,,,,,,,,,,,,,
,,,,,,5eb471789686d82c24661cb3,62c5398412ed07e8cbef830e,2022-07-06_02h28.40.387,Colour_Asymmetry_Pilot,2022.1.3,Win32,59.95203837,62c50e9c1127f2cd403a315f,0,79,79,32,1,onetwo,,,,,,,,,,,,,,,,,,,,,,,,,,,,,,,,,,,,,,,,,,,,,,,,,,,,,,,,,,,,,,,,,,,,,,,,,,,,,,,,,,,,,,,,,,,,,,,,,,,,,,,,,,,,,,,,,,,,,,,,,,,,,,,,,,,,,,,,,,,,,,,,,,,,,,,,,,,,
,,,,,,5eb471789686d82c24661cb3,62c5398412ed07e8cbef830e,2022-07-06_02h28.40.387,Colour_Asymmetry_Pilot,2022.1.3,Win32,59.95203837,62c50e9c1127f2cd403a315f,0,80,80,57,1,onethree,,,,,,,,,,,,,,,,,,,,,,,,,,,,,,,,,,,,,,,,,,,,,,,,,,,,,,,,,,,,,,,,,,,,,,,,,,,,,,,,,,,,,,,,,,,,,,,,,,,,,,,,,,,,,,,,,,,,,,,,,,,,,,,,,,,,,,,,,,,,,,,,,,,,,,,,,,,,
,,,,,,5eb471789686d82c24661cb3,62c5398412ed07e8cbef830e,2022-07-06_02h28.40.387,Colour_Asymmetry_Pilot,2022.1.3,Win32,59.95203837,62c50e9c1127f2cd403a315f,0,81,81,125,1,threefour,,,,,,,,,,,,,,,,,,,,,,,,,,,,,,,,,,,,,,,,,,,,,,,,,,,,,,,,,,,,,,,,,,,,,,,,,,,,,,,,,,,,,,,,,,,,,,,,,,,,,,,,,,,,,,,,,,,,,,,,,,,,,,,,,,,,,,,,,,,,,,,,,,,,,,,,,,,,
,,,,,,5eb471789686d82c24661cb3,62c5398412ed07e8cbef830e,2022-07-06_02h28.40.387,Colour_Asymmetry_Pilot,2022.1.3,Win32,59.95203837,62c50e9c1127f2cd403a315f,0,82,82,159,1,fourthree,,,,,,,,,,,,,,,,,,,,,,,,,,,,,,,,,,,,,,,,,,,,,,,,,,,,,,,,,,,,,,,,,,,,,,,,,,,,,,,,,,,,,,,,,,,,,,,,,,,,,,,,,,,,,,,,,,,,,,,,,,,,,,,,,,,,,,,,,,,,,,,,,,,,,,,,,,,,
,,,,,,5eb471789686d82c24661cb3,62c5398412ed07e8cbef830e,2022-07-06_02h28.40.387,Colour_Asymmetry_Pilot,2022.1.3,Win32,59.95203837,62c50e9c1127f2cd403a315f,0,83,83,54,1,fourtwo,,,,,,,,,,,,,,,,,,,,,,,,,,,,,,,,,,,,,,,,,,,,,,,,,,,,,,,,,,,,,,,,,,,,,,,,,,,,,,,,,,,,,,,,,,,,,,,,,,,,,,,,,,,,,,,,,,,,,,,,,,,,,,,,,,,,,,,,,,,,,,,,,,,,,,,,,,,,
,,,,,,5eb471789686d82c24661cb3,62c5398412ed07e8cbef830e,2022-07-06_02h28.40.387,Colour_Asymmetry_Pilot,2022.1.3,Win32,59.95203837,62c50e9c1127f2cd403a315f,0,84,84,109,1,threefour,,,,,,,,,,,,,,,,,,,,,,,,,,,,,,,,,,,,,,,,,,,,,,,,,,,,,,,,,,,,,,,,,,,,,,,,,,,,,,,,,,,,,,,,,,,,,,,,,,,,,,,,,,,,,,,,,,,,,,,,,,,,,,,,,,,,,,,,,,,,,,,,,,,,,,,,,,,,
,,,,,,5eb471789686d82c24661cb3,62c5398412ed07e8cbef830e,2022-07-06_02h28.40.387,Colour_Asymmetry_Pilot,2022.1.3,Win32,59.95203837,62c50e9c1127f2cd403a315f,0,85,85,42,1,twoone,,,,,,,,,,,,,,,,,,,,,,,,,,,,,,,,,,,,,,,,,,,,,,,,,,,,,,,,,,,,,,,,,,,,,,,,,,,,,,,,,,,,,,,,,,,,,,,,,,,,,,,,,,,,,,,,,,,,,,,,,,,,,,,,,,,,,,,,,,,,,,,,,,,,,,,,,,,,
,,,,,,5eb471789686d82c24661cb3,62c5398412ed07e8cbef830e,2022-07-06_02h28.40.387,Colour_Asymmetry_Pilot,2022.1.3,Win32,59.95203837,62c50e9c1127f2cd403a315f,0,86,86,95,1,fourthree,,,,,,,,,,,,,,,,,,,,,,,,,,,,,,,,,,,,,,,,,,,,,,,,,,,,,,,,,,,,,,,,,,,,,,,,,,,,,,,,,,,,,,,,,,,,,,,,,,,,,,,,,,,,,,,,,,,,,,,,,,,,,,,,,,,,,,,,,,,,,,,,,,,,,,,,,,,,
,,,,,,5eb471789686d82c24661cb3,62c5398412ed07e8cbef830e,2022-07-06_02h28.40.387,Colour_Asymmetry_Pilot,2022.1.3,Win32,59.95203837,62c50e9c1127f2cd403a315f,0,87,87,93,1,threefour,,,,,,,,,,,,,,,,,,,,,,,,,,,,,,,,,,,,,,,,,,,,,,,,,,,,,,,,,,,,,,,,,,,,,,,,,,,,,,,,,,,,,,,,,,,,,,,,,,,,,,,,,,,,,,,,,,,,,,,,,,,,,,,,,,,,,,,,,,,,,,,,,,,,,,,,,,,,
,,,,,,5eb471789686d82c24661cb3,62c5398412ed07e8cbef830e,2022-07-06_02h28.40.387,Colour_Asymmetry_Pilot,2022.1.3,Win32,59.95203837,62c50e9c1127f2cd403a315f,0,88,88,134,1,fourtwo,,,,,,,,,,,,,,,,,,,,,,,,,,,,,,,,,,,,,,,,,,,,,,,,,,,,,,,,,,,,,,,,,,,,,,,,,,,,,,,,,,,,,,,,,,,,,,,,,,,,,,,,,,,,,,,,,,,,,,,,,,,,,,,,,,,,,,,,,,,,,,,,,,,,,,,,,,,,
,,,,,,5eb471789686d82c24661cb3,62c5398412ed07e8cbef830e,2022-07-06_02h28.40.387,Colour_Asymmetry_Pilot,2022.1.3,Win32,59.95203837,62c50e9c1127f2cd403a315f,0,89,89,33,1,onethree,,,,,,,,,,,,,,,,,,,,,,,,,,,,,,,,,,,,,,,,,,,,,,,,,,,,,,,,,,,,,,,,,,,,,,,,,,,,,,,,,,,,,,,,,,,,,,,,,,,,,,,,,,,,,,,,,,,,,,,,,,,,,,,,,,,,,,,,,,,,,,,,,,,,,,,,,,,,
,,,,,,5eb471789686d82c24661cb3,62c5398412ed07e8cbef830e,2022-07-06_02h28.40.387,Colour_Asymmetry_Pilot,2022.1.3,Win32,59.95203837,62c50e9c1127f2cd403a315f,0,90,90,73,1,onethree,,,,,,,,,,,,,,,,,,,,,,,,,,,,,,,,,,,,,,,,,,,,,,,,,,,,,,,,,,,,,,,,,,,,,,,,,,,,,,,,,,,,,,,,,,,,,,,,,,,,,,,,,,,,,,,,,,,,,,,,,,,,,,,,,,,,,,,,,,,,,,,,,,,,,,,,,,,,
,,,,,,5eb471789686d82c24661cb3,62c5398412ed07e8cbef830e,2022-07-06_02h28.40.387,Colour_Asymmetry_Pilot,2022.1.3,Win32,59.95203837,62c50e9c1127f2cd403a315f,0,91,91,105,1,onethree,,,,,,,,,,,,,,,,,,,,,,,,,,,,,,,,,,,,,,,,,,,,,,,,,,,,,,,,,,,,,,,,,,,,,,,,,,,,,,,,,,,,,,,,,,,,,,,,,,,,,,,,,,,,,,,,,,,,,,,,,,,,,,,,,,,,,,,,,,,,,,,,,,,,,,,,,,,,
,,,,,,5eb471789686d82c24661cb3,62c5398412ed07e8cbef830e,2022-07-06_02h28.40.387,Colour_Asymmetry_Pilot,2022.1.3,Win32,59.95203837,62c50e9c1127f2cd403a315f,0,92,92,47,1,fourthree,,,,,,,,,,,,,,,,,,,,,,,,,,,,,,,,,,,,,,,,,,,,,,,,,,,,,,,,,,,,,,,,,,,,,,,,,,,,,,,,,,,,,,,,,,,,,,,,,,,,,,,,,,,,,,,,,,,,,,,,,,,,,,,,,,,,,,,,,,,,,,,,,,,,,,,,,,,,
,,,,,,5eb471789686d82c24661cb3,62c5398412ed07e8cbef830e,2022-07-06_02h28.40.387,Colour_Asymmetry_Pilot,2022.1.3,Win32,59.95203837,62c50e9c1127f2cd403a315f,0,93,93,128,1,onetwo,,,,,,,,,,,,,,,,,,,,,,,,,,,,,,,,,,,,,,,,,,,,,,,,,,,,,,,,,,,,,,,,,,,,,,,,,,,,,,,,,,,,,,,,,,,,,,,,,,,,,,,,,,,,,,,,,,,,,,,,,,,,,,,,,,,,,,,,,,,,,,,,,,,,,,,,,,,,
,,,,,,5eb471789686d82c24661cb3,62c5398412ed07e8cbef830e,2022-07-06_02h28.40.387,Colour_Asymmetry_Pilot,2022.1.3,Win32,59.95203837,62c50e9c1127f2cd403a315f,0,94,94,112,1,onetwo,,,,,,,,,,,,,,,,,,,,,,,,,,,,,,,,,,,,,,,,,,,,,,,,,,,,,,,,,,,,,,,,,,,,,,,,,,,,,,,,,,,,,,,,,,,,,,,,,,,,,,,,,,,,,,,,,,,,,,,,,,,,,,,,,,,,,,,,,,,,,,,,,,,,,,,,,,,,
,,,,,,5eb471789686d82c24661cb3,62c5398412ed07e8cbef830e,2022-07-06_02h28.40.387,Colour_Asymmetry_Pilot,2022.1.3,Win32,59.95203837,62c50e9c1127f2cd403a315f,0,95,95,26,1,twoone,,,,,,,,,,,,,,,,,,,,,,,,,,,,,,,,,,,,,,,,,,,,,,,,,,,,,,,,,,,,,,,,,,,,,,,,,,,,,,,,,,,,,,,,,,,,,,,,,,,,,,,,,,,,,,,,,,,,,,,,,,,,,,,,,,,,,,,,,,,,,,,,,,,,,,,,,,,,
,,,,,,5eb471789686d82c24661cb3,62c5398412ed07e8cbef830e,2022-07-06_02h28.40.387,Colour_Asymmetry_Pilot,2022.1.3,Win32,59.95203837,62c50e9c1127f2cd403a315f,0,96,96,48,1,onetwo,,,,,,,,,,,,,,,,,,,,,,,,,,,,,,,,,,,,,,,,,,,,,,,,,,,,,,,,,,,,,,,,,,,,,,,,,,,,,,,,,,,,,,,,,,,,,,,,,,,,,,,,,,,,,,,,,,,,,,,,,,,,,,,,,,,,,,,,,,,,,,,,,,,,,,,,,,,,
,,,,,,5eb471789686d82c24661cb3,62c5398412ed07e8cbef830e,2022-07-06_02h28.40.387,Colour_Asymmetry_Pilot,2022.1.3,Win32,59.95203837,62c50e9c1127f2cd403a315f,0,97,97,84,1,threeone,,,,,,,,,,,,,,,,,,,,,,,,,,,,,,,,,,,,,,,,,,,,,,,,,,,,,,,,,,,,,,,,,,,,,,,,,,,,,,,,,,,,,,,,,,,,,,,,,,,,,,,,,,,,,,,,,,,,,,,,,,,,,,,,,,,,,,,,,,,,,,,,,,,,,,,,,,,,
,,,,,,5eb471789686d82c24661cb3,62c5398412ed07e8cbef830e,2022-07-06_02h28.40.387,Colour_Asymmetry_Pilot,2022.1.3,Win32,59.95203837,62c50e9c1127f2cd403a315f,0,98,98,127,1,fourthree,,,,,,,,,,,,,,,,,,,,,,,,,,,,,,,,,,,,,,,,,,,,,,,,,,,,,,,,,,,,,,,,,,,,,,,,,,,,,,,,,,,,,,,,,,,,,,,,,,,,,,,,,,,,,,,,,,,,,,,,,,,,,,,,,,,,,,,,,,,,,,,,,,,,,,,,,,,,
,,,,,,5eb471789686d82c24661cb3,62c5398412ed07e8cbef830e,2022-07-06_02h28.40.387,Colour_Asymmetry_Pilot,2022.1.3,Win32,59.95203837,62c50e9c1127f2cd403a315f,0,99,99,28,1,threeone,,,,,,,,,,,,,,,,,,,,,,,,,,,,,,,,,,,,,,,,,,,,,,,,,,,,,,,,,,,,,,,,,,,,,,,,,,,,,,,,,,,,,,,,,,,,,,,,,,,,,,,,,,,,,,,,,,,,,,,,,,,,,,,,,,,,,,,,,,,,,,,,,,,,,,,,,,,,
,,,,,,5eb471789686d82c24661cb3,62c5398412ed07e8cbef830e,2022-07-06_02h28.40.387,Colour_Asymmetry_Pilot,2022.1.3,Win32,59.95203837,62c50e9c1127f2cd403a315f,0,100,100,67,1,twofour,,,,,,,,,,,,,,,,,,,,,,,,,,,,,,,,,,,,,,,,,,,,,,,,,,,,,,,,,,,,,,,,,,,,,,,,,,,,,,,,,,,,,,,,,,,,,,,,,,,,,,,,,,,,,,,,,,,,,,,,,,,,,,,,,,,,,,,,,,,,,,,,,,,,,,,,,,,,
,,,,,,5eb471789686d82c24661cb3,62c5398412ed07e8cbef830e,2022-07-06_02h28.40.387,Colour_Asymmetry_Pilot,2022.1.3,Win32,59.95203837,62c50e9c1127f2cd403a315f,0,101,101,122,1,twoone,,,,,,,,,,,,,,,,,,,,,,,,,,,,,,,,,,,,,,,,,,,,,,,,,,,,,,,,,,,,,,,,,,,,,,,,,,,,,,,,,,,,,,,,,,,,,,,,,,,,,,,,,,,,,,,,,,,,,,,,,,,,,,,,,,,,,,,,,,,,,,,,,,,,,,,,,,,,
,,,,,,5eb471789686d82c24661cb3,62c5398412ed07e8cbef830e,2022-07-06_02h28.40.387,Colour_Asymmetry_Pilot,2022.1.3,Win32,59.95203837,62c50e9c1127f2cd403a315f,0,102,102,118,1,fourtwo,,,,,,,,,,,,,,,,,,,,,,,,,,,,,,,,,,,,,,,,,,,,,,,,,,,,,,,,,,,,,,,,,,,,,,,,,,,,,,,,,,,,,,,,,,,,,,,,,,,,,,,,,,,,,,,,,,,,,,,,,,,,,,,,,,,,,,,,,,,,,,,,,,,,,,,,,,,,
,,,,,,5eb471789686d82c24661cb3,62c5398412ed07e8cbef830e,2022-07-06_02h28.40.387,Colour_Asymmetry_Pilot,2022.1.3,Win32,59.95203837,62c50e9c1127f2cd403a315f,0,103,103,41,1,onethree,,,,,,,,,,,,,,,,,,,,,,,,,,,,,,,,,,,,,,,,,,,,,,,,,,,,,,,,,,,,,,,,,,,,,,,,,,,,,,,,,,,,,,,,,,,,,,,,,,,,,,,,,,,,,,,,,,,,,,,,,,,,,,,,,,,,,,,,,,,,,,,,,,,,,,,,,,,,
,,,,,,5eb471789686d82c24661cb3,62c5398412ed07e8cbef830e,2022-07-06_02h28.40.387,Colour_Asymmetry_Pilot,2022.1.3,Win32,59.95203837,62c50e9c1127f2cd403a315f,0,104,104,71,1,fourthree,,,,,,,,,,,,,,,,,,,,,,,,,,,,,,,,,,,,,,,,,,,,,,,,,,,,,,,,,,,,,,,,,,,,,,,,,,,,,,,,,,,,,,,,,,,,,,,,,,,,,,,,,,,,,,,,,,,,,,,,,,,,,,,,,,,,,,,,,,,,,,,,,,,,,,,,,,,,
,,,,,,5eb471789686d82c24661cb3,62c5398412ed07e8cbef830e,2022-07-06_02h28.40.387,Colour_Asymmetry_Pilot,2022.1.3,Win32,59.95203837,62c50e9c1127f2cd403a315f,0,105,105,117,1,threefour,,,,,,,,,,,,,,,,,,,,,,,,,,,,,,,,,,,,,,,,,,,,,,,,,,,,,,,,,,,,,,,,,,,,,,,,,,,,,,,,,,,,,,,,,,,,,,,,,,,,,,,,,,,,,,,,,,,,,,,,,,,,,,,,,,,,,,,,,,,,,,,,,,,,,,,,,,,,
,,,,,,5eb471789686d82c24661cb3,62c5398412ed07e8cbef830e,2022-07-06_02h28.40.387,Colour_Asymmetry_Pilot,2022.1.3,Win32,59.95203837,62c50e9c1127f2cd403a315f,0,106,106,35,1,twofour,,,,,,,,,,,,,,,,,,,,,,,,,,,,,,,,,,,,,,,,,,,,,,,,,,,,,,,,,,,,,,,,,,,,,,,,,,,,,,,,,,,,,,,,,,,,,,,,,,,,,,,,,,,,,,,,,,,,,,,,,,,,,,,,,,,,,,,,,,,,,,,,,,,,,,,,,,,,
,,,,,,5eb471789686d82c24661cb3,62c5398412ed07e8cbef830e,2022-07-06_02h28.40.387,Colour_Asymmetry_Pilot,2022.1.3,Win32,59.95203837,62c50e9c1127f2cd403a315f,0,107,107,140,1,threeone,,,,,,,,,,,,,,,,,,,,,,,,,,,,,,,,,,,,,,,,,,,,,,,,,,,,,,,,,,,,,,,,,,,,,,,,,,,,,,,,,,,,,,,,,,,,,,,,,,,,,,,,,,,,,,,,,,,,,,,,,,,,,,,,,,,,,,,,,,,,,,,,,,,,,,,,,,,,
,,,,,,5eb471789686d82c24661cb3,62c5398412ed07e8cbef830e,2022-07-06_02h28.40.387,Colour_Asymmetry_Pilot,2022.1.3,Win32,59.95203837,62c50e9c1127f2cd403a315f,0,108,108,79,1,fourthree,,,,,,,,,,,,,,,,,,,,,,,,,,,,,,,,,,,,,,,,,,,,,,,,,,,,,,,,,,,,,,,,,,,,,,,,,,,,,,,,,,,,,,,,,,,,,,,,,,,,,,,,,,,,,,,,,,,,,,,,,,,,,,,,,,,,,,,,,,,,,,,,,,,,,,,,,,,,
,,,,,,5eb471789686d82c24661cb3,62c5398412ed07e8cbef830e,2022-07-06_02h28.40.387,Colour_Asymmetry_Pilot,2022.1.3,Win32,59.95203837,62c50e9c1127f2cd403a315f,0,109,109,157,1,threefour,,,,,,,,,,,,,,,,,,,,,,,,,,,,,,,,,,,,,,,,,,,,,,,,,,,,,,,,,,,,,,,,,,,,,,,,,,,,,,,,,,,,,,,,,,,,,,,,,,,,,,,,,,,,,,,,,,,,,,,,,,,,,,,,,,,,,,,,,,,,,,,,,,,,,,,,,,,,
,,,,,,5eb471789686d82c24661cb3,62c5398412ed07e8cbef830e,2022-07-06_02h28.40.387,Colour_Asymmetry_Pilot,2022.1.3,Win32,59.95203837,62c50e9c1127f2cd403a315f,0,110,110,120,1,onetwo,,,,,,,,,,,,,,,,,,,,,,,,,,,,,,,,,,,,,,,,,,,,,,,,,,,,,,,,,,,,,,,,,,,,,,,,,,,,,,,,,,,,,,,,,,,,,,,,,,,,,,,,,,,,,,,,,,,,,,,,,,,,,,,,,,,,,,,,,,,,,,,,,,,,,,,,,,,,
,,,,,,5eb471789686d82c24661cb3,62c5398412ed07e8cbef830e,2022-07-06_02h28.40.387,Colour_Asymmetry_Pilot,2022.1.3,Win32,59.95203837,62c50e9c1127f2cd403a315f,0,111,111,80,1,onetwo,,,,,,,,,,,,,,,,,,,,,,,,,,,,,,,,,,,,,,,,,,,,,,,,,,,,,,,,,,,,,,,,,,,,,,,,,,,,,,,,,,,,,,,,,,,,,,,,,,,,,,,,,,,,,,,,,,,,,,,,,,,,,,,,,,,,,,,,,,,,,,,,,,,,,,,,,,,,
,,,,,,5eb471789686d82c24661cb3,62c5398412ed07e8cbef830e,2022-07-06_02h28.40.387,Colour_Asymmetry_Pilot,2022.1.3,Win32,59.95203837,62c50e9c1127f2cd403a315f,0,112,112,16,1,onetwo,,,,,,,,,,,,,,,,,,,,,,,,,,,,,,,,,,,,,,,,,,,,,,,,,,,,,,,,,,,,,,,,,,,,,,,,,,,,,,,,,,,,,,,,,,,,,,,,,,,,,,,,,,,,,,,,,,,,,,,,,,,,,,,,,,,,,,,,,,,,,,,,,,,,,,,,,,,,
,,,,,,5eb471789686d82c24661cb3,62c5398412ed07e8cbef830e,2022-07-06_02h28.40.387,Colour_Asymmetry_Pilot,2022.1.3,Win32,59.95203837,62c50e9c1127f2cd403a315f,0,113,113,100,1,threeone,,,,,,,,,,,,,,,,,,,,,,,,,,,,,,,,,,,,,,,,,,,,,,,,,,,,,,,,,,,,,,,,,,,,,,,,,,,,,,,,,,,,,,,,,,,,,,,,,,,,,,,,,,,,,,,,,,,,,,,,,,,,,,,,,,,,,,,,,,,,,,,,,,,,,,,,,,,,
,,,,,,5eb471789686d82c24661cb3,62c5398412ed07e8cbef830e,2022-07-06_02h28.40.387,Colour_Asymmetry_Pilot,2022.1.3,Win32,59.95203837,62c50e9c1127f2cd403a315f,0,114,114,130,1,twoone,,,,,,,,,,,,,,,,,,,,,,,,,,,,,,,,,,,,,,,,,,,,,,,,,,,,,,,,,,,,,,,,,,,,,,,,,,,,,,,,,,,,,,,,,,,,,,,,,,,,,,,,,,,,,,,,,,,,,,,,,,,,,,,,,,,,,,,,,,,,,,,,,,,,,,,,,,,,
,,,,,,5eb471789686d82c24661cb3,62c5398412ed07e8cbef830e,2022-07-06_02h28.40.387,Colour_Asymmetry_Pilot,2022.1.3,Win32,59.95203837,62c50e9c1127f2cd403a315f,0,115,115,123,1,twofour,,,,,,,,,,,,,,,,,,,,,,,,,,,,,,,,,,,,,,,,,,,,,,,,,,,,,,,,,,,,,,,,,,,,,,,,,,,,,,,,,,,,,,,,,,,,,,,,,,,,,,,,,,,,,,,,,,,,,,,,,,,,,,,,,,,,,,,,,,,,,,,,,,,,,,,,,,,,
,,,,,,5eb471789686d82c24661cb3,62c5398412ed07e8cbef830e,2022-07-06_02h28.40.387,Colour_Asymmetry_Pilot,2022.1.3,Win32,59.95203837,62c50e9c1127f2cd403a315f,0,116,116,11,1,twofour,,,,,,,,,,,,,,,,,,,,,,,,,,,,,,,,,,,,,,,,,,,,,,,,,,,,,,,,,,,,,,,,,,,,,,,,,,,,,,,,,,,,,,,,,,,,,,,,,,,,,,,,,,,,,,,,,,,,,,,,,,,,,,,,,,,,,,,,,,,,,,,,,,,,,,,,,,,,
,,,,,,5eb471789686d82c24661cb3,62c5398412ed07e8cbef830e,2022-07-06_02h28.40.387,Colour_Asymmetry_Pilot,2022.1.3,Win32,59.95203837,62c50e9c1127f2cd403a315f,0,117,117,64,1,onetwo,,,,,,,,,,,,,,,,,,,,,,,,,,,,,,,,,,,,,,,,,,,,,,,,,,,,,,,,,,,,,,,,,,,,,,,,,,,,,,,,,,,,,,,,,,,,,,,,,,,,,,,,,,,,,,,,,,,,,,,,,,,,,,,,,,,,,,,,,,,,,,,,,,,,,,,,,,,,
,,,,,,5eb471789686d82c24661cb3,62c5398412ed07e8cbef830e,2022-07-06_02h28.40.387,Colour_Asymmetry_Pilot,2022.1.3,Win32,59.95203837,62c50e9c1127f2cd403a315f,0,118,118,59,1,twofour,,,,,,,,,,,,,,,,,,,,,,,,,,,,,,,,,,,,,,,,,,,,,,,,,,,,,,,,,,,,,,,,,,,,,,,,,,,,,,,,,,,,,,,,,,,,,,,,,,,,,,,,,,,,,,,,,,,,,,,,,,,,,,,,,,,,,,,,,,,,,,,,,,,,,,,,,,,,
,,,,,,5eb471789686d82c24661cb3,62c5398412ed07e8cbef830e,2022-07-06_02h28.40.387,Colour_Asymmetry_Pilot,2022.1.3,Win32,59.95203837,62c50e9c1127f2cd403a315f,0,119,119,49,1,onethree,,,,,,,,,,,,,,,,,,,,,,,,,,,,,,,,,,,,,,,,,,,,,,,,,,,,,,,,,,,,,,,,,,,,,,,,,,,,,,,,,,,,,,,,,,,,,,,,,,,,,,,,,,,,,,,,,,,,,,,,,,,,,,,,,,,,,,,,,,,,,,,,,,,,,,,,,,,,
,,,,,,5eb471789686d82c24661cb3,62c5398412ed07e8cbef830e,2022-07-06_02h28.40.387,Colour_Asymmetry_Pilot,2022.1.3,Win32,59.95203837,62c50e9c1127f2cd403a315f,0,120,120,40,1,onetwo,,,,,,,,,,,,,,,,,,,,,,,,,,,,,,,,,,,,,,,,,,,,,,,,,,,,,,,,,,,,,,,,,,,,,,,,,,,,,,,,,,,,,,,,,,,,,,,,,,,,,,,,,,,,,,,,,,,,,,,,,,,,,,,,,,,,,,,,,,,,,,,,,,,,,,,,,,,,
,,,,,,5eb471789686d82c24661cb3,62c5398412ed07e8cbef830e,2022-07-06_02h28.40.387,Colour_Asymmetry_Pilot,2022.1.3,Win32,59.95203837,62c50e9c1127f2cd403a315f,0,121,121,101,1,threefour,,,,,,,,,,,,,,,,,,,,,,,,,,,,,,,,,,,,,,,,,,,,,,,,,,,,,,,,,,,,,,,,,,,,,,,,,,,,,,,,,,,,,,,,,,,,,,,,,,,,,,,,,,,,,,,,,,,,,,,,,,,,,,,,,,,,,,,,,,,,,,,,,,,,,,,,,,,,
,,,,,,5eb471789686d82c24661cb3,62c5398412ed07e8cbef830e,2022-07-06_02h28.40.387,Colour_Asymmetry_Pilot,2022.1.3,Win32,59.95203837,62c50e9c1127f2cd403a315f,0,122,122,152,1,onetwo,,,,,,,,,,,,,,,,,,,,,,,,,,,,,,,,,,,,,,,,,,,,,,,,,,,,,,,,,,,,,,,,,,,,,,,,,,,,,,,,,,,,,,,,,,,,,,,,,,,,,,,,,,,,,,,,,,,,,,,,,,,,,,,,,,,,,,,,,,,,,,,,,,,,,,,,,,,,
,,,,,,5eb471789686d82c24661cb3,62c5398412ed07e8cbef830e,2022-07-06_02h28.40.387,Colour_Asymmetry_Pilot,2022.1.3,Win32,59.95203837,62c50e9c1127f2cd403a315f,0,123,123,143,1,fourthree,,,,,,,,,,,,,,,,,,,,,,,,,,,,,,,,,,,,,,,,,,,,,,,,,,,,,,,,,,,,,,,,,,,,,,,,,,,,,,,,,,,,,,,,,,,,,,,,,,,,,,,,,,,,,,,,,,,,,,,,,,,,,,,,,,,,,,,,,,,,,,,,,,,,,,,,,,,,
,,,,,,5eb471789686d82c24661cb3,62c5398412ed07e8cbef830e,2022-07-06_02h28.40.387,Colour_Asymmetry_Pilot,2022.1.3,Win32,59.95203837,62c50e9c1127f2cd403a315f,0,124,124,77,1,threefour,,,,,,,,,,,,,,,,,,,,,,,,,,,,,,,,,,,,,,,,,,,,,,,,,,,,,,,,,,,,,,,,,,,,,,,,,,,,,,,,,,,,,,,,,,,,,,,,,,,,,,,,,,,,,,,,,,,,,,,,,,,,,,,,,,,,,,,,,,,,,,,,,,,,,,,,,,,,
,,,,,,5eb471789686d82c24661cb3,62c5398412ed07e8cbef830e,2022-07-06_02h28.40.387,Colour_Asymmetry_Pilot,2022.1.3,Win32,59.95203837,62c50e9c1127f2cd403a315f,0,125,125,61,1,threefour,,,,,,,,,,,,,,,,,,,,,,,,,,,,,,,,,,,,,,,,,,,,,,,,,,,,,,,,,,,,,,,,,,,,,,,,,,,,,,,,,,,,,,,,,,,,,,,,,,,,,,,,,,,,,,,,,,,,,,,,,,,,,,,,,,,,,,,,,,,,,,,,,,,,,,,,,,,,
,,,,,,5eb471789686d82c24661cb3,62c5398412ed07e8cbef830e,2022-07-06_02h28.40.387,Colour_Asymmetry_Pilot,2022.1.3,Win32,59.95203837,62c50e9c1127f2cd403a315f,0,126,126,106,1,twoone,,,,,,,,,,,,,,,,,,,,,,,,,,,,,,,,,,,,,,,,,,,,,,,,,,,,,,,,,,,,,,,,,,,,,,,,,,,,,,,,,,,,,,,,,,,,,,,,,,,,,,,,,,,,,,,,,,,,,,,,,,,,,,,,,,,,,,,,,,,,,,,,,,,,,,,,,,,,
,,,,,,5eb471789686d82c24661cb3,62c5398412ed07e8cbef830e,2022-07-06_02h28.40.387,Colour_Asymmetry_Pilot,2022.1.3,Win32,59.95203837,62c50e9c1127f2cd403a315f,0,127,127,45,1,threefour,,,,,,,,,,,,,,,,,,,,,,,,,,,,,,,,,,,,,,,,,,,,,,,,,,,,,,,,,,,,,,,,,,,,,,,,,,,,,,,,,,,,,,,,,,,,,,,,,,,,,,,,,,,,,,,,,,,,,,,,,,,,,,,,,,,,,,,,,,,,,,,,,,,,,,,,,,,,
,,,,,,5eb471789686d82c24661cb3,62c5398412ed07e8cbef830e,2022-07-06_02h28.40.387,Colour_Asymmetry_Pilot,2022.1.3,Win32,59.95203837,62c50e9c1127f2cd403a315f,0,128,128,38,1,fourtwo,,,,,,,,,,,,,,,,,,,,,,,,,,,,,,,,,,,,,,,,,,,,,,,,,,,,,,,,,,,,,,,,,,,,,,,,,,,,,,,,,,,,,,,,,,,,,,,,,,,,,,,,,,,,,,,,,,,,,,,,,,,,,,,,,,,,,,,,,,,,,,,,,,,,,,,,,,,,
,,,,,,5eb471789686d82c24661cb3,62c5398412ed07e8cbef830e,2022-07-06_02h28.40.387,Colour_Asymmetry_Pilot,2022.1.3,Win32,59.95203837,62c50e9c1127f2cd403a315f,0,129,129,85,1,threefour,,,,,,,,,,,,,,,,,,,,,,,,,,,,,,,,,,,,,,,,,,,,,,,,,,,,,,,,,,,,,,,,,,,,,,,,,,,,,,,,,,,,,,,,,,,,,,,,,,,,,,,,,,,,,,,,,,,,,,,,,,,,,,,,,,,,,,,,,,,,,,,,,,,,,,,,,,,,
,,,,,,5eb471789686d82c24661cb3,62c5398412ed07e8cbef830e,2022-07-06_02h28.40.387,Colour_Asymmetry_Pilot,2022.1.3,Win32,59.95203837,62c50e9c1127f2cd403a315f,0,130,130,76,1,threeone,,,,,,,,,,,,,,,,,,,,,,,,,,,,,,,,,,,,,,,,,,,,,,,,,,,,,,,,,,,,,,,,,,,,,,,,,,,,,,,,,,,,,,,,,,,,,,,,,,,,,,,,,,,,,,,,,,,,,,,,,,,,,,,,,,,,,,,,,,,,,,,,,,,,,,,,,,,,
,,,,,,5eb471789686d82c24661cb3,62c5398412ed07e8cbef830e,2022-07-06_02h28.40.387,Colour_Asymmetry_Pilot,2022.1.3,Win32,59.95203837,62c50e9c1127f2cd403a315f,0,131,131,27,1,twofour,,,,,,,,,,,,,,,,,,,,,,,,,,,,,,,,,,,,,,,,,,,,,,,,,,,,,,,,,,,,,,,,,,,,,,,,,,,,,,,,,,,,,,,,,,,,,,,,,,,,,,,,,,,,,,,,,,,,,,,,,,,,,,,,,,,,,,,,,,,,,,,,,,,,,,,,,,,,
,,,,,,5eb471789686d82c24661cb3,62c5398412ed07e8cbef830e,2022-07-06_02h28.40.387,Colour_Asymmetry_Pilot,2022.1.3,Win32,59.95203837,62c50e9c1127f2cd403a315f,0,132,132,97,1,onethree,,,,,,,,,,,,,,,,,,,,,,,,,,,,,,,,,,,,,,,,,,,,,,,,,,,,,,,,,,,,,,,,,,,,,,,,,,,,,,,,,,,,,,,,,,,,,,,,,,,,,,,,,,,,,,,,,,,,,,,,,,,,,,,,,,,,,,,,,,,,,,,,,,,,,,,,,,,,
,,,,,,5eb471789686d82c24661cb3,62c5398412ed07e8cbef830e,2022-07-06_02h28.40.387,Colour_Asymmetry_Pilot,2022.1.3,Win32,59.95203837,62c50e9c1127f2cd403a315f,0,133,133,25,1,onethree,,,,,,,,,,,,,,,,,,,,,,,,,,,,,,,,,,,,,,,,,,,,,,,,,,,,,,,,,,,,,,,,,,,,,,,,,,,,,,,,,,,,,,,,,,,,,,,,,,,,,,,,,,,,,,,,,,,,,,,,,,,,,,,,,,,,,,,,,,,,,,,,,,,,,,,,,,,,
,,,,,,5eb471789686d82c24661cb3,62c5398412ed07e8cbef830e,2022-07-06_02h28.40.387,Colour_Asymmetry_Pilot,2022.1.3,Win32,59.95203837,62c50e9c1127f2cd403a315f,0,134,134,138,1,twoone,,,,,,,,,,,,,,,,,,,,,,,,,,,,,,,,,,,,,,,,,,,,,,,,,,,,,,,,,,,,,,,,,,,,,,,,,,,,,,,,,,,,,,,,,,,,,,,,,,,,,,,,,,,,,,,,,,,,,,,,,,,,,,,,,,,,,,,,,,,,,,,,,,,,,,,,,,,,
,,,,,,5eb471789686d82c24661cb3,62c5398412ed07e8cbef830e,2022-07-06_02h28.40.387,Colour_Asymmetry_Pilot,2022.1.3,Win32,59.95203837,62c50e9c1127f2cd403a315f,0,135,135,63,1,fourthree,,,,,,,,,,,,,,,,,,,,,,,,,,,,,,,,,,,,,,,,,,,,,,,,,,,,,,,,,,,,,,,,,,,,,,,,,,,,,,,,,,,,,,,,,,,,,,,,,,,,,,,,,,,,,,,,,,,,,,,,,,,,,,,,,,,,,,,,,,,,,,,,,,,,,,,,,,,,
,,,,,,5eb471789686d82c24661cb3,62c5398412ed07e8cbef830e,2022-07-06_02h28.40.387,Colour_Asymmetry_Pilot,2022.1.3,Win32,59.95203837,62c50e9c1127f2cd403a315f,0,136,136,7,1,fourthree,,,,,,,,,,,,,,,,,,,,,,,,,,,,,,,,,,,,,,,,,,,,,,,,,,,,,,,,,,,,,,,,,,,,,,,,,,,,,,,,,,,,,,,,,,,,,,,,,,,,,,,,,,,,,,,,,,,,,,,,,,,,,,,,,,,,,,,,,,,,,,,,,,,,,,,,,,,,
,,,,,,5eb471789686d82c24661cb3,62c5398412ed07e8cbef830e,2022-07-06_02h28.40.387,Colour_Asymmetry_Pilot,2022.1.3,Win32,59.95203837,62c50e9c1127f2cd403a315f,0,137,137,22,1,fourtwo,,,,,,,,,,,,,,,,,,,,,,,,,,,,,,,,,,,,,,,,,,,,,,,,,,,,,,,,,,,,,,,,,,,,,,,,,,,,,,,,,,,,,,,,,,,,,,,,,,,,,,,,,,,,,,,,,,,,,,,,,,,,,,,,,,,,,,,,,,,,,,,,,,,,,,,,,,,,
,,,,,,5eb471789686d82c24661cb3,62c5398412ed07e8cbef830e,2022-07-06_02h28.40.387,Colour_Asymmetry_Pilot,2022.1.3,Win32,59.95203837,62c50e9c1127f2cd403a315f,0,138,138,44,1,threeone,,,,,,,,,,,,,,,,,,,,,,,,,,,,,,,,,,,,,,,,,,,,,,,,,,,,,,,,,,,,,,,,,,,,,,,,,,,,,,,,,,,,,,,,,,,,,,,,,,,,,,,,,,,,,,,,,,,,,,,,,,,,,,,,,,,,,,,,,,,,,,,,,,,,,,,,,,,,
,,,,,,5eb471789686d82c24661cb3,62c5398412ed07e8cbef830e,2022-07-06_02h28.40.387,Colour_Asymmetry_Pilot,2022.1.3,Win32,59.95203837,62c50e9c1127f2cd403a315f,0,139,139,108,1,threeone,,,,,,,,,,,,,,,,,,,,,,,,,,,,,,,,,,,,,,,,,,,,,,,,,,,,,,,,,,,,,,,,,,,,,,,,,,,,,,,,,,,,,,,,,,,,,,,,,,,,,,,,,,,,,,,,,,,,,,,,,,,,,,,,,,,,,,,,,,,,,,,,,,,,,,,,,,,,
,,,,,,5eb471789686d82c24661cb3,62c5398412ed07e8cbef830e,2022-07-06_02h28.40.387,Colour_Asymmetry_Pilot,2022.1.3,Win32,59.95203837,62c50e9c1127f2cd403a315f,0,140,140,31,1,fourthree,,,,,,,,,,,,,,,,,,,,,,,,,,,,,,,,,,,,,,,,,,,,,,,,,,,,,,,,,,,,,,,,,,,,,,,,,,,,,,,,,,,,,,,,,,,,,,,,,,,,,,,,,,,,,,,,,,,,,,,,,,,,,,,,,,,,,,,,,,,,,,,,,,,,,,,,,,,,
,,,,,,5eb471789686d82c24661cb3,62c5398412ed07e8cbef830e,2022-07-06_02h28.40.387,Colour_Asymmetry_Pilot,2022.1.3,Win32,59.95203837,62c50e9c1127f2cd403a315f,0,141,141,15,1,fourthree,,,,,,,,,,,,,,,,,,,,,,,,,,,,,,,,,,,,,,,,,,,,,,,,,,,,,,,,,,,,,,,,,,,,,,,,,,,,,,,,,,,,,,,,,,,,,,,,,,,,,,,,,,,,,,,,,,,,,,,,,,,,,,,,,,,,,,,,,,,,,,,,,,,,,,,,,,,,
,,,,,,5eb471789686d82c24661cb3,62c5398412ed07e8cbef830e,2022-07-06_02h28.40.387,Colour_Asymmetry_Pilot,2022.1.3,Win32,59.95203837,62c50e9c1127f2cd403a315f,0,142,142,24,1,onetwo,,,,,,,,,,,,,,,,,,,,,,,,,,,,,,,,,,,,,,,,,,,,,,,,,,,,,,,,,,,,,,,,,,,,,,,,,,,,,,,,,,,,,,,,,,,,,,,,,,,,,,,,,,,,,,,,,,,,,,,,,,,,,,,,,,,,,,,,,,,,,,,,,,,,,,,,,,,,
,,,,,,5eb471789686d82c24661cb3,62c5398412ed07e8cbef830e,2022-07-06_02h28.40.387,Colour_Asymmetry_Pilot,2022.1.3,Win32,59.95203837,62c50e9c1127f2cd403a315f,0,143,143,107,1,twofour,,,,,,,,,,,,,,,,,,,,,,,,,,,,,,,,,,,,,,,,,,,,,,,,,,,,,,,,,,,,,,,,,,,,,,,,,,,,,,,,,,,,,,,,,,,,,,,,,,,,,,,,,,,,,,,,,,,,,,,,,,,,,,,,,,,,,,,,,,,,,,,,,,,,,,,,,,,,
,,,,,,5eb471789686d82c24661cb3,62c5398412ed07e8cbef830e,2022-07-06_02h28.40.387,Colour_Asymmetry_Pilot,2022.1.3,Win32,59.95203837,62c50e9c1127f2cd403a315f,0,144,144,131,1,twofour,,,,,,,,,,,,,,,,,,,,,,,,,,,,,,,,,,,,,,,,,,,,,,,,,,,,,,,,,,,,,,,,,,,,,,,,,,,,,,,,,,,,,,,,,,,,,,,,,,,,,,,,,,,,,,,,,,,,,,,,,,,,,,,,,,,,,,,,,,,,,,,,,,,,,,,,,,,,
,,,,,,5eb471789686d82c24661cb3,62c5398412ed07e8cbef830e,2022-07-06_02h28.40.387,Colour_Asymmetry_Pilot,2022.1.3,Win32,59.95203837,62c50e9c1127f2cd403a315f,0,145,145,154,1,twoone,,,,,,,,,,,,,,,,,,,,,,,,,,,,,,,,,,,,,,,,,,,,,,,,,,,,,,,,,,,,,,,,,,,,,,,,,,,,,,,,,,,,,,,,,,,,,,,,,,,,,,,,,,,,,,,,,,,,,,,,,,,,,,,,,,,,,,,,,,,,,,,,,,,,,,,,,,,,
,,,,,,5eb471789686d82c24661cb3,62c5398412ed07e8cbef830e,2022-07-06_02h28.40.387,Colour_Asymmetry_Pilot,2022.1.3,Win32,59.95203837,62c50e9c1127f2cd403a315f,0,146,146,9,1,onethree,,,,,,,,,,,,,,,,,,,,,,,,,,,,,,,,,,,,,,,,,,,,,,,,,,,,,,,,,,,,,,,,,,,,,,,,,,,,,,,,,,,,,,,,,,,,,,,,,,,,,,,,,,,,,,,,,,,,,,,,,,,,,,,,,,,,,,,,,,,,,,,,,,,,,,,,,,,,
,,,,,,5eb471789686d82c24661cb3,62c5398412ed07e8cbef830e,2022-07-06_02h28.40.387,Colour_Asymmetry_Pilot,2022.1.3,Win32,59.95203837,62c50e9c1127f2cd403a315f,0,147,147,58,1,twoone,,,,,,,,,,,,,,,,,,,,,,,,,,,,,,,,,,,,,,,,,,,,,,,,,,,,,,,,,,,,,,,,,,,,,,,,,,,,,,,,,,,,,,,,,,,,,,,,,,,,,,,,,,,,,,,,,,,,,,,,,,,,,,,,,,,,,,,,,,,,,,,,,,,,,,,,,,,,
,,,,,,5eb471789686d82c24661cb3,62c5398412ed07e8cbef830e,2022-07-06_02h28.40.387,Colour_Asymmetry_Pilot,2022.1.3,Win32,59.95203837,62c50e9c1127f2cd403a315f,0,148,148,87,1,fourthree,,,,,,,,,,,,,,,,,,,,,,,,,,,,,,,,,,,,,,,,,,,,,,,,,,,,,,,,,,,,,,,,,,,,,,,,,,,,,,,,,,,,,,,,,,,,,,,,,,,,,,,,,,,,,,,,,,,,,,,,,,,,,,,,,,,,,,,,,,,,,,,,,,,,,,,,,,,,
,,,,,,5eb471789686d82c24661cb3,62c5398412ed07e8cbef830e,2022-07-06_02h28.40.387,Colour_Asymmetry_Pilot,2022.1.3,Win32,59.95203837,62c50e9c1127f2cd403a315f,0,149,149,8,1,onetwo,,,,,,,,,,,,,,,,,,,,,,,,,,,,,,,,,,,,,,,,,,,,,,,,,,,,,,,,,,,,,,,,,,,,,,,,,,,,,,,,,,,,,,,,,,,,,,,,,,,,,,,,,,,,,,,,,,,,,,,,,,,,,,,,,,,,,,,,,,,,,,,,,,,,,,,,,,,,
,,,,,,5eb471789686d82c24661cb3,62c5398412ed07e8cbef830e,2022-07-06_02h28.40.387,Colour_Asymmetry_Pilot,2022.1.3,Win32,59.95203837,62c50e9c1127f2cd403a315f,0,150,150,19,1,twofour,,,,,,,,,,,,,,,,,,,,,,,,,,,,,,,,,,,,,,,,,,,,,,,,,,,,,,,,,,,,,,,,,,,,,,,,,,,,,,,,,,,,,,,,,,,,,,,,,,,,,,,,,,,,,,,,,,,,,,,,,,,,,,,,,,,,,,,,,,,,,,,,,,,,,,,,,,,,
,,,,,,5eb471789686d82c24661cb3,62c5398412ed07e8cbef830e,2022-07-06_02h28.40.387,Colour_Asymmetry_Pilot,2022.1.3,Win32,59.95203837,62c50e9c1127f2cd403a315f,0,151,151,74,1,twoone,,,,,,,,,,,,,,,,,,,,,,,,,,,,,,,,,,,,,,,,,,,,,,,,,,,,,,,,,,,,,,,,,,,,,,,,,,,,,,,,,,,,,,,,,,,,,,,,,,,,,,,,,,,,,,,,,,,,,,,,,,,,,,,,,,,,,,,,,,,,,,,,,,,,,,,,,,,,
,,,,,,5eb471789686d82c24661cb3,62c5398412ed07e8cbef830e,2022-07-06_02h28.40.387,Colour_Asymmetry_Pilot,2022.1.3,Win32,59.95203837,62c50e9c1127f2cd403a315f,0,152,152,121,1,onethree,,,,,,,,,,,,,,,,,,,,,,,,,,,,,,,,,,,,,,,,,,,,,,,,,,,,,,,,,,,,,,,,,,,,,,,,,,,,,,,,,,,,,,,,,,,,,,,,,,,,,,,,,,,,,,,,,,,,,,,,,,,,,,,,,,,,,,,,,,,,,,,,,,,,,,,,,,,,
,,,,,,5eb471789686d82c24661cb3,62c5398412ed07e8cbef830e,2022-07-06_02h28.40.387,Colour_Asymmetry_Pilot,2022.1.3,Win32,59.95203837,62c50e9c1127f2cd403a315f,0,153,153,116,1,threeone,,,,,,,,,,,,,,,,,,,,,,,,,,,,,,,,,,,,,,,,,,,,,,,,,,,,,,,,,,,,,,,,,,,,,,,,,,,,,,,,,,,,,,,,,,,,,,,,,,,,,,,,,,,,,,,,,,,,,,,,,,,,,,,,,,,,,,,,,,,,,,,,,,,,,,,,,,,,
,,,,,,5eb471789686d82c24661cb3,62c5398412ed07e8cbef830e,2022-07-06_02h28.40.387,Colour_Asymmetry_Pilot,2022.1.3,Win32,59.95203837,62c50e9c1127f2cd403a315f,0,154,154,68,1,threeone,,,,,,,,,,,,,,,,,,,,,,,,,,,,,,,,,,,,,,,,,,,,,,,,,,,,,,,,,,,,,,,,,,,,,,,,,,,,,,,,,,,,,,,,,,,,,,,,,,,,,,,,,,,,,,,,,,,,,,,,,,,,,,,,,,,,,,,,,,,,,,,,,,,,,,,,,,,,
,,,,,,5eb471789686d82c24661cb3,62c5398412ed07e8cbef830e,2022-07-06_02h28.40.387,Colour_Asymmetry_Pilot,2022.1.3,Win32,59.95203837,62c50e9c1127f2cd403a315f,0,155,155,6,1,fourtwo,,,,,,,,,,,,,,,,,,,,,,,,,,,,,,,,,,,,,,,,,,,,,,,,,,,,,,,,,,,,,,,,,,,,,,,,,,,,,,,,,,,,,,,,,,,,,,,,,,,,,,,,,,,,,,,,,,,,,,,,,,,,,,,,,,,,,,,,,,,,,,,,,,,,,,,,,,,,
,,,,,,5eb471789686d82c24661cb3,62c5398412ed07e8cbef830e,2022-07-06_02h28.40.387,Colour_Asymmetry_Pilot,2022.1.3,Win32,59.95203837,62c50e9c1127f2cd403a315f,0,156,156,30,1,fourtwo,,,,,,,,,,,,,,,,,,,,,,,,,,,,,,,,,,,,,,,,,,,,,,,,,,,,,,,,,,,,,,,,,,,,,,,,,,,,,,,,,,,,,,,,,,,,,,,,,,,,,,,,,,,,,,,,,,,,,,,,,,,,,,,,,,,,,,,,,,,,,,,,,,,,,,,,,,,,
,,,,,,5eb471789686d82c24661cb3,62c5398412ed07e8cbef830e,2022-07-06_02h28.40.387,Colour_Asymmetry_Pilot,2022.1.3,Win32,59.95203837,62c50e9c1127f2cd403a315f,0,157,157,78,1,fourtwo,,,,,,,,,,,,,,,,,,,,,,,,,,,,,,,,,,,,,,,,,,,,,,,,,,,,,,,,,,,,,,,,,,,,,,,,,,,,,,,,,,,,,,,,,,,,,,,,,,,,,,,,,,,,,,,,,,,,,,,,,,,,,,,,,,,,,,,,,,,,,,,,,,,,,,,,,,,,
,,,,,,5eb471789686d82c24661cb3,62c5398412ed07e8cbef830e,2022-07-06_02h28.40.387,Colour_Asymmetry_Pilot,2022.1.3,Win32,59.95203837,62c50e9c1127f2cd403a315f,0,158,158,94,1,fourtwo,,,,,,,,,,,,,,,,,,,,,,,,,,,,,,,,,,,,,,,,,,,,,,,,,,,,,,,,,,,,,,,,,,,,,,,,,,,,,,,,,,,,,,,,,,,,,,,,,,,,,,,,,,,,,,,,,,,,,,,,,,,,,,,,,,,,,,,,,,,,,,,,,,,,,,,,,,,,
,,,,,,5eb471789686d82c24661cb3,62c5398412ed07e8cbef830e,2022-07-06_02h28.40.387,Colour_Asymmetry_Pilot,2022.1.3,Win32,59.95203837,62c50e9c1127f2cd403a315f,0,159,159,161,1,onethree,,,,,,,,,,,,,,,,,,,,,,,,,,,,,,,,,,,,,,,,,,,,,,,,,,,,,,,,,,,,,,,,,,,,,,,,,,,,,,,,,,,,,,,,,,,,,,,,,,,,,,,,,,,,,,,,,,,,,,,,,,,,,,,,,,,,,,,,,,,,,,,,,,,,,,,,,,,,
,,,,,,5eb471789686d82c24661cb3,62c5398412ed07e8cbef830e,2022-07-06_02h28.40.387,Colour_Asymmetry_Pilot,2022.1.3,Win32,59.95203837,62c50e9c1127f2cd403a315f,0,160,160,135,1,fourthree,,,,,,,,,,,,,,,,,,,,,,,,,,,,,,,,,,,,,,,,,,,,,,,,,,,,,,,,,,,,,,,,,,,,,,,,,,,,,,,,,,,,,,,,,,,,,,,,,,,,,,,,,,,,,,,,,,,,,,,,,,,,,,,,,,,,,,,,,,,,,,,,,,,,,,,,,,,,
,,,,,,5eb471789686d82c24661cb3,62c5398412ed07e8cbef830e,2022-07-06_02h28.40.387,Colour_Asymmetry_Pilot,2022.1.3,Win32,59.95203837,62c50e9c1127f2cd403a315f,0,161,161,91,1,twofour,,,,,,,,,,,,,,,,,,,,,,,,,,,,,,,,,,,,,,,,,,,,,,,,,,,,,,,,,,,,,,,,,,,,,,,,,,,,,,,,,,,,,,,,,,,,,,,,,,,,,,,,,,,,,,,,,,,,,,,,,,,,,,,,,,,,,,,,,,,,,,,,,,,,,,,,,,,,
,,,,,,5eb471789686d82c24661cb3,62c5398412ed07e8cbef830e,2022-07-06_02h28.40.387,Colour_Asymmetry_Pilot,2022.1.3,Win32,59.95203837,62c50e9c1127f2cd403a315f,,,,,,,space,0.887,space,3.134,space,45.131,space,20.466,space,2.901,space,3.015,"[-0.6235999999999999,-0.6786,-0.08239999999999992]",onetwo,"[0.11359999999999992,0.6312,0.5213999999999999]",2,3.902,81,-49,1,0,0,response3disk_5,2,-5,1,0,0,rectangle_8,2,-5,1,0,0,4,2,-5,1,0,0,0,0,0,0,1,,,,,,,,,,,,,,,,,,,,,,,,,,,,,,,,,,,,,,,,,,,,,,,,,,,,,,,,,,,,,,,,,,,,,,,,,,,,,,,,,,,,,,,,,,,,,,,,,,,,,,,,,,,,,,,
,,,,,,5eb471789686d82c24661cb3,62c5398412ed07e8cbef830e,2022-07-06_02h28.40.387,Colour_Asymmetry_Pilot,2022.1.3,Win32,59.95203837,62c50e9c1127f2cd403a315f,,,,,,,,,,,,,,,,,,,"[-0.4902000000000001,0.2704,-0.45899999999999996]",threefour,"[-0.24719999999999998,0.5213999999999999,-0.12959999999999994]",3,1.85,62,30,1,0,0,response1disk_5,-5,1,1,0,0,rectangle_8,-5,1,1,0,0,4,-5,1,1,0,0,1,0,1,0,1,,,,,,,,,,,,,,,,,,,,,,,,,,,,,,,,,,,,,,,,,,,,,,,,,,,,,,,,,,,,,,,,,,,,,,,,,,,,,,,,,,,,,,,,,,,,,,,,,,,,,,,,,,,,,,,
,,,,,,5eb471789686d82c24661cb3,62c5398412ed07e8cbef830e,2022-07-06_02h28.40.387,Colour_Asymmetry_Pilot,2022.1.3,Win32,59.95203837,62c50e9c1127f2cd403a315f,,,,,,,,,,,,,,,,,,,"[-0.5452,-0.608,0.2470000000000001]",twofour,"[0.40379999999999994,0.09000000000000008,0.44300000000000006]",-2,5.833,-85,-62,1,0,0,response5disk_5,-8,2,1,0,0,rectangle_8,37,81,1,0,0,4,16,-1,1,0,0,2,0,2,0,1,response1disk_7,7,rectangle_4,,,,,,,,,,,,,,,,,,,,,,,,,,,,,,,,,,,,,,,,,,,,,,,,,,,,,,,,,,,,,,,,,,,,,,,,,,,,,,,,,,,,,,,,,,,,,,,,,,,,,,,,,,,,
,,,,,,5eb471789686d82c24661cb3,62c5398412ed07e8cbef830e,2022-07-06_02h28.40.387,Colour_Asymmetry_Pilot,2022.1.3,Win32,59.95203837,62c50e9c1127f2cd403a315f,,,,,,,,,,,,,,,,,,,"[-0.9296,-0.12959999999999994,-0.043199999999999905]",threeone,"[-0.24719999999999998,0.5213999999999999,-0.12959999999999994]",-3,1.635,-78,25,1,0,0,response7disk_5,1,-3,1,0,0,rectangle_8,30,91,1,0,0,4,-13,-8,1,0,0,3,0,3,0,1,response1disk_7,7,rectangle_4,,,,,,,,,,,,,,,,,,,,,,,,,,,,,,,,,,,,,,,,,,,,,,,,,,,,,,,,,,,,,,,,,,,,,,,,,,,,,,,,,,,,,,,,,,,,,,,,,,,,,,,,,,,,
,,,,,,5eb471789686d82c24661cb3,62c5398412ed07e8cbef830e,2022-07-06_02h28.40.387,Colour_Asymmetry_Pilot,2022.1.3,Win32,59.95203837,62c50e9c1127f2cd403a315f,,,,,,,,,,,,,,,,,,,"[-0.5922000000000001,-0.7492000000000001,-0.5296000000000001]",fourtwo,"[0.7176,-0.906,-0.6864]",1,2.016,35,-75,1,0,0,response3disk_5,3,-3,1,0,0,rectangle_8,3,-3,1,0,0,4,3,-3,1,0,0,4,0,4,0,1,,,,,,,,,,,,,,,,,,,,,,,,,,,,,,,,,,,,,,,,,,,,,,,,,,,,,,,,,,,,,,,,,,,,,,,,,,,,,,,,,,,,,,,,,,,,,,,,,,,,,,,,,,,,,,,
,,,,,,5eb471789686d82c24661cb3,62c5398412ed07e8cbef830e,2022-07-06_02h28.40.387,Colour_Asymmetry_Pilot,2022.1.3,Win32,59.95203837,62c50e9c1127f2cd403a315f,,,,,,,,,,,,,,,,,,,"[0.11359999999999992,0.6312,0.5213999999999999]",twoone,"[-0.17659999999999998,-0.2864,-0.8354]",-4,1.484,-36,80,1,0,0,response7disk_5,0,-4,1,0,0,rectangle_8,0,-4,1,0,0,4,0,-4,1,0,0,5,0,5,0,1,,,,,,,,,,,,,,,,,,,,,,,,,,,,,,,,,,,,,,,,,,,,,,,,,,,,,,,,,,,,,,,,,,,,,,,,,,,,,,,,,,,,,,,,,,,,,,,,,,,,,,,,,,,,,,,
,,,,,,5eb471789686d82c24661cb3,62c5398412ed07e8cbef830e,2022-07-06_02h28.40.387,Colour_Asymmetry_Pilot,2022.1.3,Win32,59.95203837,62c50e9c1127f2cd403a315f,,,,,,,,,,,,,,,,,,,"[-0.6706000000000001,-0.6157999999999999,-0.6786]",threeone,"[0.04299999999999993,0.16060000000000008,-0.6628000000000001]",-4,2.401,-51,72,1,0,0,response7disk_5,-2,-5,1,0,0,rectangle_8,-2,-5,1,0,0,4,-2,-5,1,0,0,6,0,6,0,1,,,,,,,,,,,,,,,,,,,,,,,,,,,,,,,,,,,,,,,,,,,,,,,,,,,,,,,,,,,,,,,,,,,,,,,,,,,,,,,,,,,,,,,,,,,,,,,,,,,,,,,,,,,,,,,
,,,,,,5eb471789686d82c24661cb3,62c5398412ed07e8cbef830e,2022-07-06_02h28.40.387,Colour_Asymmetry_Pilot,2022.1.3,Win32,59.95203837,62c50e9c1127f2cd403a315f,,,,,,,,,,,,,,,,,,,,fourtwo,,-1,4.034,,,,,,,,,,,,,,,,,,,,,,,,,,,,,,,,space,181.543,"[-0.26280000000000003,-0.4746,-0.2158]","[-0.4902000000000001,0.2704,-0.45899999999999996]",-28,-81,1,0,0,response5disk,-4,-4,1,0,0,rectangle,-4,-4,1,0,0,,2,0.003,0,-4,-4,1,0,0,0,0,0,48,1,48,first,,,,,,,,,,,,,,,,,,,,,,,,,,,,,,,,,,,,,,,,,,,,,,,,,,,,,,,,,,,,,,,,,,,,,,,
,,,,,,5eb471789686d82c24661cb3,62c5398412ed07e8cbef830e,2022-07-06_02h28.40.387,Colour_Asymmetry_Pilot,2022.1.3,Win32,59.95203837,62c50e9c1127f2cd403a315f,,,,,,,,,,,,,,,,,,,,fourtwo,,-2,0.884,,,,,,,,,,,,,,,,,,,,,,,,,,,,,,,,,,"[-0.4902000000000001,0.2704,-0.45899999999999996]","[0.9763999999999999,0.30979999999999985,-0.6786]",-93,-36,1,0,0,response5disk,-4,5,1,0,0,rectangle,-4,5,1,0,0,,1,0.003,0,-4,5,1,0,0,0,1,1,119,1,38,second,,,,,,,,,,,,,,,,,,,,,,,,,,,,,,,,,,,,,,,,,,,,,,,,,,,,,,,,,,,,,,,,,,,,,,,
,,,,,,5eb471789686d82c24661cb3,62c5398412ed07e8cbef830e,2022-07-06_02h28.40.387,Colour_Asymmetry_Pilot,2022.1.3,Win32,59.95203837,62c50e9c1127f2cd403a315f,,,,,,,,,,,,,,,,,,,,fourtwo,,1,1.317,,,,,,,,,,,,,,,,,,,,,,,,,,,,,,,,,,"[-0.4276,0.0038000000000000256,-0.3256]","[-0.17659999999999998,0.3253999999999999,0.19999999999999996]",30,-71,1,0,0,response3disk,-2,2,1,0,0,rectangle,-2,2,1,0,0,,3,0.002,0,-2,2,1,0,0,0,2,2,22,1,22,first,,,,,,,,,,,,,,,,,,,,,,,,,,,,,,,,,,,,,,,,,,,,,,,,,,,,,,,,,,,,,,,,,,,,,,,
,,,,,,5eb471789686d82c24661cb3,62c5398412ed07e8cbef830e,2022-07-06_02h28.40.387,Colour_Asymmetry_Pilot,2022.1.3,Win32,59.95203837,62c50e9c1127f2cd403a315f,,,,,,,,,,,,,,,,,,,,onetwo,,-4,0.601,,,,,,,,,,,,,,,,,,,,,,,,,,,,,,,,,,"[0.3802000000000001,0.19199999999999995,-0.6394]","[-0.8118,-0.8198,-0.5452]",-47,84,1,0,0,response7disk,8,5,1,0,0,rectangle,8,5,1,0,0,,3,0,0,8,5,1,0,0,0,3,3,26,1,26,first,,,,,,,,,,,,,,,,,,,,,,,,,,,,,,,,,,,,,,,,,,,,,,,,,,,,,,,,,,,,,,,,,,,,,,,
,,,,,,5eb471789686d82c24661cb3,62c5398412ed07e8cbef830e,2022-07-06_02h28.40.387,Colour_Asymmetry_Pilot,2022.1.3,Win32,59.95203837,62c50e9c1127f2cd403a315f,,,,,,,,,,,,,,,,,,,,twoone,,-4,0.85,,,,,,,,,,,,,,,,,,,,,,,,,,,,,,,,,,"[-0.011800000000000033,-0.906,-0.45100000000000007]","[-0.24719999999999998,0.5213999999999999,-0.12959999999999994]",-36,59,1,0,0,response7disk,-1,-2,1,0,0,rectangle,-1,-2,1,0,0,,1,0.006,0,-1,-2,1,0,0,0,4,4,15,1,15,first,,,,,,,,,,,,,,,,,,,,,,,,,,,,,,,,,,,,,,,,,,,,,,,,,,,,,,,,,,,,,,,,,,,,,,,
,,,,,,5eb471789686d82c24661cb3,62c5398412ed07e8cbef830e,2022-07-06_02h28.40.387,Colour_Asymmetry_Pilot,2022.1.3,Win32,59.95203837,62c50e9c1127f2cd403a315f,,,,,,,,,,,,,,,,,,,,onethree,,-4,1.269,,,,,,,,,,,,,,,,,,,,,,,,,,,,,,,,,,"[-0.8118,-0.8198,-0.5452]","[0.34099999999999997,0.5841999999999998,-0.9844]",-43,71,1,0,0,response7disk,0,3,1,0,0,rectangle,0,3,1,0,0,,3,0.003,0,0,3,1,0,0,0,5,5,130,1,49,second,,,,,,,,,,,,,,,,,,,,,,,,,,,,,,,,,,,,,,,,,,,,,,,,,,,,,,,,,,,,,,,,,,,,,,,
,,,,,,5eb471789686d82c24661cb3,62c5398412ed07e8cbef830e,2022-07-06_02h28.40.387,Colour_Asymmetry_Pilot,2022.1.3,Win32,59.95203837,62c50e9c1127f2cd403a315f,,,,,,,,,,,,,,,,,,,,fourthree,,2,2.034,,,,,,,,,,,,,,,,,,,,,,,,,,,,,,,,,,"[-0.09019999999999995,0.44300000000000006,0.5371999999999999]","[-0.8118,-0.8198,-0.5452]",78,-25,1,0,0,response3disk,-9,11,1,0,0,rectangle,-9,11,1,0,0,,1,0.002,0,-9,11,1,0,0,0,6,6,84,1,3,second,,,,,,,,,,,,,,,,,,,,,,,,,,,,,,,,,,,,,,,,,,,,,,,,,,,,,,,,,,,,,,,,,,,,,,,
,,,,,,5eb471789686d82c24661cb3,62c5398412ed07e8cbef830e,2022-07-06_02h28.40.387,Colour_Asymmetry_Pilot,2022.1.3,Win32,59.95203837,62c50e9c1127f2cd403a315f,,,,,,,,,,,,,,,,,,,,twoone,,3,0.833,,,,,,,,,,,,,,,,,,,,,,,,,,,,,,,,,,"[0.5449999999999999,-0.31000000000000005,-0.0354000000000001]","[0.9686000000000001,0.3802000000000001,0.19999999999999996]",97,45,1,0,0,response1disk,9,14,1,0,0,rectangle,9,14,1,0,0,,1,0,0,9,14,1,0,0,0,7,7,154,1,73,second,,,,,,,,,,,,,,,,,,,,,,,,,,,,,,,,,,,,,,,,,,,,,,,,,,,,,,,,,,,,,,,,,,,,,,,
,,,,,,5eb471789686d82c24661cb3,62c5398412ed07e8cbef830e,2022-07-06_02h28.40.387,Colour_Asymmetry_Pilot,2022.1.3,Win32,59.95203837,62c50e9c1127f2cd403a315f,,,,,,,,,,,,,,,,,,,,fourthree,,2,0.883,,,,,,,,,,,,,,,,,,,,,,,,,,,,,,,,,,"[0.2784,-0.31000000000000005,-0.5452]","[0.9763999999999999,0.30979999999999985,-0.6786]",59,-42,1,0,0,response3disk,-9,-2,1,0,0,rectangle,-9,-2,1,0,0,,2,0.002,0,-9,-2,1,0,0,0,8,8,71,1,71,first,,,,,,,,,,,,,,,,,,,,,,,,,,,,,,,,,,,,,,,,,,,,,,,,,,,,,,,,,,,,,,,,,,,,,,,
,,,,,,5eb471789686d82c24661cb3,62c5398412ed07e8cbef830e,2022-07-06_02h28.40.387,Colour_Asymmetry_Pilot,2022.1.3,Win32,59.95203837,62c50e9c1127f2cd403a315f,,,,,,,,,,,,,,,,,,,,twoone,,1,1.051,,,,,,,,,,,,,,,,,,,,,,,,,,,,,,,,,,"[-0.4276,0.0038000000000000256,-0.3256]","[-0.4982,-0.2942,-0.0354000000000001]",24,-61,1,0,0,response3disk,-4,-2,1,0,0,rectangle,-4,-2,1,0,0,,3,0.001,0,-4,-2,1,0,0,0,9,9,101,1,20,second,,,,,,,,,,,,,,,,,,,,,,,,,,,,,,,,,,,,,,,,,,,,,,,,,,,,,,,,,,,,,,,,,,,,,,,
,,,,,,5eb471789686d82c24661cb3,62c5398412ed07e8cbef830e,2022-07-06_02h28.40.387,Colour_Asymmetry_Pilot,2022.1.3,Win32,59.95203837,62c50e9c1127f2cd403a315f,,,,,,,,,,,,,,,,,,,,onethree,,1,1.117,,,,,,,,,,,,,,,,,,,,,,,,,,,,,,,,,,"[0.9372,0.9450000000000001,0.8980000000000001]","[0.40379999999999994,0.09000000000000008,0.44300000000000006]",34,-59,1,0,0,response3disk,6,-3,1,0,0,rectangle,6,-3,1,0,0,,3,0,0,6,-3,1,0,0,0,10,10,82,1,1,second,,,,,,,,,,,,,,,,,,,,,,,,,,,,,,,,,,,,,,,,,,,,,,,,,,,,,,,,,,,,,,,,,,,,,,,
,,,,,,5eb471789686d82c24661cb3,62c5398412ed07e8cbef830e,2022-07-06_02h28.40.387,Colour_Asymmetry_Pilot,2022.1.3,Win32,59.95203837,62c50e9c1127f2cd403a315f,,,,,,,,,,,,,,,,,,,,threeone,,-3,0.867,,,,,,,,,,,,,,,,,,,,,,,,,,,,,,,,,,"[0.5449999999999999,-0.31000000000000005,-0.0354000000000001]","[0.5528,0.7409999999999999,-0.71]",-80,46,1,0,0,response7disk,7,1,1,0,0,rectangle,7,1,1,0,0,,2,0.003,0,7,1,1,0,0,0,11,11,7,1,7,first,,,,,,,,,,,,,,,,,,,,,,,,,,,,,,,,,,,,,,,,,,,,,,,,,,,,,,,,,,,,,,,,,,,,,,,
,,,,,,5eb471789686d82c24661cb3,62c5398412ed07e8cbef830e,2022-07-06_02h28.40.387,Colour_Asymmetry_Pilot,2022.1.3,Win32,59.95203837,62c50e9c1127f2cd403a315f,,,,,,,,,,,,,,,,,,,,twofour,,-4,1.449,,,,,,,,,,,,,,,,,,,,,,,,,,,,,,,,,,"[0.30180000000000007,-0.7884,-0.9844]","[-0.9296,-0.12959999999999994,-0.043199999999999905]",-52,79,1,0,0,response7disk,0,5,1,0,0,rectangle,0,5,1,0,0,,3,0.003,0,0,5,1,0,0,0,12,12,98,1,17,second,,,,,,,,,,,,,,,,,,,,,,,,,,,,,,,,,,,,,,,,,,,,,,,,,,,,,,,,,,,,,,,,,,,,,,,
,,,,,,5eb471789686d82c24661cb3,62c5398412ed07e8cbef830e,2022-07-06_02h28.40.387,Colour_Asymmetry_Pilot,2022.1.3,Win32,59.95203837,62c50e9c1127f2cd403a315f,,,,,,,,,,,,,,,,,,,,fourtwo,,1,0.867,,,,,,,,,,,,,,,,,,,,,,,,,,,,,,,,,,"[-0.26280000000000003,-0.2158,-0.3256]","[-0.9688,-0.7412000000000001,-0.4902000000000001]",24,-74,1,0,0,response3disk,-21,14,1,0,0,rectangle,-21,14,1,0,0,,3,0,0,-21,14,1,0,0,0,13,13,30,1,30,first,,,,,,,,,,,,,,,,,,,,,,,,,,,,,,,,,,,,,,,,,,,,,,,,,,,,,,,,,,,,,,,,,,,,,,,
,,,,,,5eb471789686d82c24661cb3,62c5398412ed07e8cbef830e,2022-07-06_02h28.40.387,Colour_Asymmetry_Pilot,2022.1.3,Win32,59.95203837,62c50e9c1127f2cd403a315f,,,,,,,,,,,,,,,,,,,,twoone,,1,1.034,,,,,,,,,,,,,,,,,,,,,,,,,,,,,,,,,,"[0.6547999999999998,-0.043199999999999905,-0.011800000000000033]","[0.9763999999999999,-0.1137999999999999,-0.6314]",30,-62,1,0,0,response3disk,-5,-3,1,0,0,rectangle,-5,-3,1,0,0,,1,0.003,0,-5,-3,1,0,0,0,14,14,138,1,57,second,,,,,,,,,,,,,,,,,,,,,,,,,,,,,,,,,,,,,,,,,,,,,,,,,,,,,,,,,,,,,,,,,,,,,,,
,,,,,,5eb471789686d82c24661cb3,62c5398412ed07e8cbef830e,2022-07-06_02h28.40.387,Colour_Asymmetry_Pilot,2022.1.3,Win32,59.95203837,62c50e9c1127f2cd403a315f,,,,,,,,,,,,,,,,,,,,twofour,,-3,0.95,,,,,,,,,,,,,,,,,,,,,,,,,,,,,,,,,,"[0.18419999999999992,-0.4276,-0.404]","[-0.09019999999999995,0.44300000000000006,0.5371999999999999]",-82,35,1,0,0,response7disk,17,-1,1,0,0,rectangle,67,40,1,0,0,3,3,1.78,1,14,4,1,0,0,0,15,15,104,1,23,second,response1disk_3,rectangle,,,,,,,,,,,,,,,,,,,,,,,,,,,,,,,,,,,,,,,,,,,,,,,,,,,,,,,,,,,,,,,,,,,,,
,,,,,,5eb471789686d82c24661cb3,62c5398412ed07e8cbef830e,2022-07-06_02h28.40.387,Colour_Asymmetry_Pilot,2022.1.3,Win32,59.95203837,62c50e9c1127f2cd403a315f,,,,,,,,,,,,,,,,,,,,twoone,,-3,0.867,,,,,,,,,,,,,,,,,,,,,,,,,,,,,,,,,,"[-0.4276,0.0038000000000000256,-0.3256]","[0.9372,0.9450000000000001,0.8980000000000001]",-72,36,1,0,0,response7disk,-1,-4,1,0,0,rectangle,-1,-4,1,0,0,3,3,0.001,0,-1,-4,1,0,0,0,16,16,122,1,41,second,,,,,,,,,,,,,,,,,,,,,,,,,,,,,,,,,,,,,,,,,,,,,,,,,,,,,,,,,,,,,,,,,,,,,,,
,,,,,,5eb471789686d82c24661cb3,62c5398412ed07e8cbef830e,2022-07-06_02h28.40.387,Colour_Asymmetry_Pilot,2022.1.3,Win32,59.95203837,62c50e9c1127f2cd403a315f,,,,,,,,,,,,,,,,,,,,threeone,,-3,1.233,,,,,,,,,,,,,,,,,,,,,,,,,,,,,,,,,,"[0.04299999999999993,0.16060000000000008,-0.6628000000000001]","[0.3881999999999999,-0.23939999999999995,-0.05040000000000011]",-83,46,1,0,0,response7disk,6,-4,1,0,0,rectangle,6,-4,1,0,0,3,3,0.001,0,6,-4,1,0,0,0,17,17,53,1,53,first,,,,,,,,,,,,,,,,,,,,,,,,,,,,,,,,,,,,,,,,,,,,,,,,,,,,,,,,,,,,,,,,,,,,,,,
