trials.thisRepN,trials.thisTrialN,trials.thisN,trials.thisIndex,trials.ran,Colourcodes,participant,session,date,expName,psychopyVersion,OS,frameRate,study_id,trials_4.thisRepN,trials_4.thisTrialN,trials_4.thisN,trials_4.thisIndex,trials_4.ran,StimulusPos,key_resp.keys,key_resp.rt,key_resp_2.keys,key_resp_2.rt,key_resp_15.keys,key_resp_15.rt,key_resp_17.keys,key_resp_17.rt,key_resp_9.keys,key_resp_9.rt,key_resp_10.keys,key_resp_10.rt,Circle1_col,Ecc,Circle2_col,similarity,response_time,mouse_5.x,mouse_5.y,mouse_5.leftButton,mouse_5.midButton,mouse_5.rightButton,mouse_5.clicked_name,mouse_10.x,mouse_10.y,mouse_10.leftButton,mouse_10.midButton,mouse_10.rightButton,mouse_10.clicked_name,mouse_7.x,mouse_7.y,mouse_7.leftButton,mouse_7.midButton,mouse_7.rightButton,catchnumberprac,mouse_6.x,mouse_6.y,mouse_6.leftButton,mouse_6.midButton,mouse_6.rightButton,duringprac.thisRepN,duringprac.thisTrialN,duringprac.thisN,duringprac.thisIndex,duringprac.ran,mouse_7.clicked_name,catchprac,mouse_6.clicked_name,key_resp_22.keys,key_resp_22.rt,Circle1_colour,Circle2_colour,mouse.x,mouse.y,mouse.leftButton,mouse.midButton,mouse.rightButton,mouse.clicked_name,mouse_2.x,mouse_2.y,mouse_2.leftButton,mouse_2.midButton,mouse_2.rightButton,mouse_2.clicked_name,mouse_3.x,mouse_3.y,mouse_3.leftButton,mouse_3.midButton,mouse_3.rightButton,catchresponse,catchnumber,response_time_catch,Catch,mouse_11.x,mouse_11.y,mouse_11.leftButton,mouse_11.midButton,mouse_11.rightButton,trials_2.thisRepN,trials_2.thisTrialN,trials_2.thisN,trials_2.thisIndex,trials_2.ran,Colourpair,Temporder,mouse_3.clicked_name,mouse_11.clicked_name,trials_3.thisRepN,trials_3.thisTrialN,trials_3.thisN,trials_3.thisIndex,trials_3.ran,key_resp_instr_Ishi.keys,key_resp_instr_Ishi.rt,Ishi_trial_keyresp.keys,Ishi_textbox.text,Ishi_mouse.x,Ishi_mouse.y,Ishi_mouse.leftButton,Ishi_mouse.midButton,Ishi_mouse.rightButton,Ishi_mouse.clicked_name,Ishi_loop.thisRepN,Ishi_loop.thisTrialN,Ishi_loop.thisN,Ishi_loop.thisIndex,Ishi_loop.ran,imageaddress,textbox.text,mouse_4.x,mouse_4.y,mouse_4.leftButton,mouse_4.midButton,mouse_4.rightButton,mouse_4.clicked_name,textbox_2.text,mouse_8.x,mouse_8.y,mouse_8.leftButton,mouse_8.midButton,mouse_8.rightButton,mouse_8.clicked_name,textbox_3.text,mouse_9.x,mouse_9.y,mouse_9.leftButton,mouse_9.midButton,mouse_9.rightButton,mouse_9.clicked_name,textbox_4.text,mouse_12.x,mouse_12.y,mouse_12.leftButton,mouse_12.midButton,mouse_12.rightButton,mouse_12.clicked_name,textbox_5.text,mouse_13.x,mouse_13.y,mouse_13.leftButton,mouse_13.midButton,mouse_13.rightButton,mouse_13.clicked_name,textbox_6.text,mouse_14.x,mouse_14.y,mouse_14.leftButton,mouse_14.midButton,mouse_14.rightButton,mouse_14.clicked_name,textbox_7.text,mouse_15.x,mouse_15.y,mouse_15.leftButton,mouse_15.midButton,mouse_15.rightButton,mouse_15.clicked_name
0,0,0,1,1,,5b755869d5d7a80001b45a1e,62c538dfd1cad5ca791df9d8,2022-07-06_09h25.33.276,Colour_Asymmetry_Pilot,2022.1.3,Win32,60.24822268,62c50e9c1127f2cd403a315f,,,,,,,,,,,,,,,,,,,,,,,,,,,,,,,,,,,,,,,,,,,,,,,,,,,,,,,,,,,,,,,,,,,,,,,,,,,,,,,,,,,,,,,,,,,,,,,,,,,,,,,,,,,,,,,,,,,,,,,,,,,,,,,,,,,,,,,,,,,,,,,,,,,,,,,,,,,,,,,,,,,
0,1,1,74,1,,5b755869d5d7a80001b45a1e,62c538dfd1cad5ca791df9d8,2022-07-06_09h25.33.276,Colour_Asymmetry_Pilot,2022.1.3,Win32,60.24822268,62c50e9c1127f2cd403a315f,,,,,,,,,,,,,,,,,,,,,,,,,,,,,,,,,,,,,,,,,,,,,,,,,,,,,,,,,,,,,,,,,,,,,,,,,,,,,,,,,,,,,,,,,,,,,,,,,,,,,,,,,,,,,,,,,,,,,,,,,,,,,,,,,,,,,,,,,,,,,,,,,,,,,,,,,,,,,,,,,,,
0,2,2,76,1,,5b755869d5d7a80001b45a1e,62c538dfd1cad5ca791df9d8,2022-07-06_09h25.33.276,Colour_Asymmetry_Pilot,2022.1.3,Win32,60.24822268,62c50e9c1127f2cd403a315f,,,,,,,,,,,,,,,,,,,,,,,,,,,,,,,,,,,,,,,,,,,,,,,,,,,,,,,,,,,,,,,,,,,,,,,,,,,,,,,,,,,,,,,,,,,,,,,,,,,,,,,,,,,,,,,,,,,,,,,,,,,,,,,,,,,,,,,,,,,,,,,,,,,,,,,,,,,,,,,,,,,
0,3,3,56,1,,5b755869d5d7a80001b45a1e,62c538dfd1cad5ca791df9d8,2022-07-06_09h25.33.276,Colour_Asymmetry_Pilot,2022.1.3,Win32,60.24822268,62c50e9c1127f2cd403a315f,,,,,,,,,,,,,,,,,,,,,,,,,,,,,,,,,,,,,,,,,,,,,,,,,,,,,,,,,,,,,,,,,,,,,,,,,,,,,,,,,,,,,,,,,,,,,,,,,,,,,,,,,,,,,,,,,,,,,,,,,,,,,,,,,,,,,,,,,,,,,,,,,,,,,,,,,,,,,,,,,,,
0,4,4,15,1,,5b755869d5d7a80001b45a1e,62c538dfd1cad5ca791df9d8,2022-07-06_09h25.33.276,Colour_Asymmetry_Pilot,2022.1.3,Win32,60.24822268,62c50e9c1127f2cd403a315f,,,,,,,,,,,,,,,,,,,,,,,,,,,,,,,,,,,,,,,,,,,,,,,,,,,,,,,,,,,,,,,,,,,,,,,,,,,,,,,,,,,,,,,,,,,,,,,,,,,,,,,,,,,,,,,,,,,,,,,,,,,,,,,,,,,,,,,,,,,,,,,,,,,,,,,,,,,,,,,,,,,
0,5,5,62,1,,5b755869d5d7a80001b45a1e,62c538dfd1cad5ca791df9d8,2022-07-06_09h25.33.276,Colour_Asymmetry_Pilot,2022.1.3,Win32,60.24822268,62c50e9c1127f2cd403a315f,,,,,,,,,,,,,,,,,,,,,,,,,,,,,,,,,,,,,,,,,,,,,,,,,,,,,,,,,,,,,,,,,,,,,,,,,,,,,,,,,,,,,,,,,,,,,,,,,,,,,,,,,,,,,,,,,,,,,,,,,,,,,,,,,,,,,,,,,,,,,,,,,,,,,,,,,,,,,,,,,,,
0,6,6,42,1,,5b755869d5d7a80001b45a1e,62c538dfd1cad5ca791df9d8,2022-07-06_09h25.33.276,Colour_Asymmetry_Pilot,2022.1.3,Win32,60.24822268,62c50e9c1127f2cd403a315f,,,,,,,,,,,,,,,,,,,,,,,,,,,,,,,,,,,,,,,,,,,,,,,,,,,,,,,,,,,,,,,,,,,,,,,,,,,,,,,,,,,,,,,,,,,,,,,,,,,,,,,,,,,,,,,,,,,,,,,,,,,,,,,,,,,,,,,,,,,,,,,,,,,,,,,,,,,,,,,,,,,
0,7,7,66,1,,5b755869d5d7a80001b45a1e,62c538dfd1cad5ca791df9d8,2022-07-06_09h25.33.276,Colour_Asymmetry_Pilot,2022.1.3,Win32,60.24822268,62c50e9c1127f2cd403a315f,,,,,,,,,,,,,,,,,,,,,,,,,,,,,,,,,,,,,,,,,,,,,,,,,,,,,,,,,,,,,,,,,,,,,,,,,,,,,,,,,,,,,,,,,,,,,,,,,,,,,,,,,,,,,,,,,,,,,,,,,,,,,,,,,,,,,,,,,,,,,,,,,,,,,,,,,,,,,,,,,,,
0,8,8,24,1,,5b755869d5d7a80001b45a1e,62c538dfd1cad5ca791df9d8,2022-07-06_09h25.33.276,Colour_Asymmetry_Pilot,2022.1.3,Win32,60.24822268,62c50e9c1127f2cd403a315f,,,,,,,,,,,,,,,,,,,,,,,,,,,,,,,,,,,,,,,,,,,,,,,,,,,,,,,,,,,,,,,,,,,,,,,,,,,,,,,,,,,,,,,,,,,,,,,,,,,,,,,,,,,,,,,,,,,,,,,,,,,,,,,,,,,,,,,,,,,,,,,,,,,,,,,,,,,,,,,,,,,
0,9,9,22,1,,5b755869d5d7a80001b45a1e,62c538dfd1cad5ca791df9d8,2022-07-06_09h25.33.276,Colour_Asymmetry_Pilot,2022.1.3,Win32,60.24822268,62c50e9c1127f2cd403a315f,,,,,,,,,,,,,,,,,,,,,,,,,,,,,,,,,,,,,,,,,,,,,,,,,,,,,,,,,,,,,,,,,,,,,,,,,,,,,,,,,,,,,,,,,,,,,,,,,,,,,,,,,,,,,,,,,,,,,,,,,,,,,,,,,,,,,,,,,,,,,,,,,,,,,,,,,,,,,,,,,,,
0,10,10,64,1,,5b755869d5d7a80001b45a1e,62c538dfd1cad5ca791df9d8,2022-07-06_09h25.33.276,Colour_Asymmetry_Pilot,2022.1.3,Win32,60.24822268,62c50e9c1127f2cd403a315f,,,,,,,,,,,,,,,,,,,,,,,,,,,,,,,,,,,,,,,,,,,,,,,,,,,,,,,,,,,,,,,,,,,,,,,,,,,,,,,,,,,,,,,,,,,,,,,,,,,,,,,,,,,,,,,,,,,,,,,,,,,,,,,,,,,,,,,,,,,,,,,,,,,,,,,,,,,,,,,,,,,
0,11,11,86,1,,5b755869d5d7a80001b45a1e,62c538dfd1cad5ca791df9d8,2022-07-06_09h25.33.276,Colour_Asymmetry_Pilot,2022.1.3,Win32,60.24822268,62c50e9c1127f2cd403a315f,,,,,,,,,,,,,,,,,,,,,,,,,,,,,,,,,,,,,,,,,,,,,,,,,,,,,,,,,,,,,,,,,,,,,,,,,,,,,,,,,,,,,,,,,,,,,,,,,,,,,,,,,,,,,,,,,,,,,,,,,,,,,,,,,,,,,,,,,,,,,,,,,,,,,,,,,,,,,,,,,,,
0,12,12,33,1,,5b755869d5d7a80001b45a1e,62c538dfd1cad5ca791df9d8,2022-07-06_09h25.33.276,Colour_Asymmetry_Pilot,2022.1.3,Win32,60.24822268,62c50e9c1127f2cd403a315f,,,,,,,,,,,,,,,,,,,,,,,,,,,,,,,,,,,,,,,,,,,,,,,,,,,,,,,,,,,,,,,,,,,,,,,,,,,,,,,,,,,,,,,,,,,,,,,,,,,,,,,,,,,,,,,,,,,,,,,,,,,,,,,,,,,,,,,,,,,,,,,,,,,,,,,,,,,,,,,,,,,
0,13,13,52,1,,5b755869d5d7a80001b45a1e,62c538dfd1cad5ca791df9d8,2022-07-06_09h25.33.276,Colour_Asymmetry_Pilot,2022.1.3,Win32,60.24822268,62c50e9c1127f2cd403a315f,,,,,,,,,,,,,,,,,,,,,,,,,,,,,,,,,,,,,,,,,,,,,,,,,,,,,,,,,,,,,,,,,,,,,,,,,,,,,,,,,,,,,,,,,,,,,,,,,,,,,,,,,,,,,,,,,,,,,,,,,,,,,,,,,,,,,,,,,,,,,,,,,,,,,,,,,,,,,,,,,,,
0,14,14,70,1,,5b755869d5d7a80001b45a1e,62c538dfd1cad5ca791df9d8,2022-07-06_09h25.33.276,Colour_Asymmetry_Pilot,2022.1.3,Win32,60.24822268,62c50e9c1127f2cd403a315f,,,,,,,,,,,,,,,,,,,,,,,,,,,,,,,,,,,,,,,,,,,,,,,,,,,,,,,,,,,,,,,,,,,,,,,,,,,,,,,,,,,,,,,,,,,,,,,,,,,,,,,,,,,,,,,,,,,,,,,,,,,,,,,,,,,,,,,,,,,,,,,,,,,,,,,,,,,,,,,,,,,
0,15,15,92,1,,5b755869d5d7a80001b45a1e,62c538dfd1cad5ca791df9d8,2022-07-06_09h25.33.276,Colour_Asymmetry_Pilot,2022.1.3,Win32,60.24822268,62c50e9c1127f2cd403a315f,,,,,,,,,,,,,,,,,,,,,,,,,,,,,,,,,,,,,,,,,,,,,,,,,,,,,,,,,,,,,,,,,,,,,,,,,,,,,,,,,,,,,,,,,,,,,,,,,,,,,,,,,,,,,,,,,,,,,,,,,,,,,,,,,,,,,,,,,,,,,,,,,,,,,,,,,,,,,,,,,,,
0,16,16,53,1,,5b755869d5d7a80001b45a1e,62c538dfd1cad5ca791df9d8,2022-07-06_09h25.33.276,Colour_Asymmetry_Pilot,2022.1.3,Win32,60.24822268,62c50e9c1127f2cd403a315f,,,,,,,,,,,,,,,,,,,,,,,,,,,,,,,,,,,,,,,,,,,,,,,,,,,,,,,,,,,,,,,,,,,,,,,,,,,,,,,,,,,,,,,,,,,,,,,,,,,,,,,,,,,,,,,,,,,,,,,,,,,,,,,,,,,,,,,,,,,,,,,,,,,,,,,,,,,,,,,,,,,
0,17,17,26,1,,5b755869d5d7a80001b45a1e,62c538dfd1cad5ca791df9d8,2022-07-06_09h25.33.276,Colour_Asymmetry_Pilot,2022.1.3,Win32,60.24822268,62c50e9c1127f2cd403a315f,,,,,,,,,,,,,,,,,,,,,,,,,,,,,,,,,,,,,,,,,,,,,,,,,,,,,,,,,,,,,,,,,,,,,,,,,,,,,,,,,,,,,,,,,,,,,,,,,,,,,,,,,,,,,,,,,,,,,,,,,,,,,,,,,,,,,,,,,,,,,,,,,,,,,,,,,,,,,,,,,,,
0,18,18,18,1,,5b755869d5d7a80001b45a1e,62c538dfd1cad5ca791df9d8,2022-07-06_09h25.33.276,Colour_Asymmetry_Pilot,2022.1.3,Win32,60.24822268,62c50e9c1127f2cd403a315f,,,,,,,,,,,,,,,,,,,,,,,,,,,,,,,,,,,,,,,,,,,,,,,,,,,,,,,,,,,,,,,,,,,,,,,,,,,,,,,,,,,,,,,,,,,,,,,,,,,,,,,,,,,,,,,,,,,,,,,,,,,,,,,,,,,,,,,,,,,,,,,,,,,,,,,,,,,,,,,,,,,
0,19,19,19,1,,5b755869d5d7a80001b45a1e,62c538dfd1cad5ca791df9d8,2022-07-06_09h25.33.276,Colour_Asymmetry_Pilot,2022.1.3,Win32,60.24822268,62c50e9c1127f2cd403a315f,,,,,,,,,,,,,,,,,,,,,,,,,,,,,,,,,,,,,,,,,,,,,,,,,,,,,,,,,,,,,,,,,,,,,,,,,,,,,,,,,,,,,,,,,,,,,,,,,,,,,,,,,,,,,,,,,,,,,,,,,,,,,,,,,,,,,,,,,,,,,,,,,,,,,,,,,,,,,,,,,,,
0,20,20,6,1,,5b755869d5d7a80001b45a1e,62c538dfd1cad5ca791df9d8,2022-07-06_09h25.33.276,Colour_Asymmetry_Pilot,2022.1.3,Win32,60.24822268,62c50e9c1127f2cd403a315f,,,,,,,,,,,,,,,,,,,,,,,,,,,,,,,,,,,,,,,,,,,,,,,,,,,,,,,,,,,,,,,,,,,,,,,,,,,,,,,,,,,,,,,,,,,,,,,,,,,,,,,,,,,,,,,,,,,,,,,,,,,,,,,,,,,,,,,,,,,,,,,,,,,,,,,,,,,,,,,,,,,
0,21,21,60,1,,5b755869d5d7a80001b45a1e,62c538dfd1cad5ca791df9d8,2022-07-06_09h25.33.276,Colour_Asymmetry_Pilot,2022.1.3,Win32,60.24822268,62c50e9c1127f2cd403a315f,,,,,,,,,,,,,,,,,,,,,,,,,,,,,,,,,,,,,,,,,,,,,,,,,,,,,,,,,,,,,,,,,,,,,,,,,,,,,,,,,,,,,,,,,,,,,,,,,,,,,,,,,,,,,,,,,,,,,,,,,,,,,,,,,,,,,,,,,,,,,,,,,,,,,,,,,,,,,,,,,,,
0,22,22,69,1,,5b755869d5d7a80001b45a1e,62c538dfd1cad5ca791df9d8,2022-07-06_09h25.33.276,Colour_Asymmetry_Pilot,2022.1.3,Win32,60.24822268,62c50e9c1127f2cd403a315f,,,,,,,,,,,,,,,,,,,,,,,,,,,,,,,,,,,,,,,,,,,,,,,,,,,,,,,,,,,,,,,,,,,,,,,,,,,,,,,,,,,,,,,,,,,,,,,,,,,,,,,,,,,,,,,,,,,,,,,,,,,,,,,,,,,,,,,,,,,,,,,,,,,,,,,,,,,,,,,,,,,
0,23,23,25,1,,5b755869d5d7a80001b45a1e,62c538dfd1cad5ca791df9d8,2022-07-06_09h25.33.276,Colour_Asymmetry_Pilot,2022.1.3,Win32,60.24822268,62c50e9c1127f2cd403a315f,,,,,,,,,,,,,,,,,,,,,,,,,,,,,,,,,,,,,,,,,,,,,,,,,,,,,,,,,,,,,,,,,,,,,,,,,,,,,,,,,,,,,,,,,,,,,,,,,,,,,,,,,,,,,,,,,,,,,,,,,,,,,,,,,,,,,,,,,,,,,,,,,,,,,,,,,,,,,,,,,,,
0,24,24,23,1,,5b755869d5d7a80001b45a1e,62c538dfd1cad5ca791df9d8,2022-07-06_09h25.33.276,Colour_Asymmetry_Pilot,2022.1.3,Win32,60.24822268,62c50e9c1127f2cd403a315f,,,,,,,,,,,,,,,,,,,,,,,,,,,,,,,,,,,,,,,,,,,,,,,,,,,,,,,,,,,,,,,,,,,,,,,,,,,,,,,,,,,,,,,,,,,,,,,,,,,,,,,,,,,,,,,,,,,,,,,,,,,,,,,,,,,,,,,,,,,,,,,,,,,,,,,,,,,,,,,,,,,
0,25,25,57,1,,5b755869d5d7a80001b45a1e,62c538dfd1cad5ca791df9d8,2022-07-06_09h25.33.276,Colour_Asymmetry_Pilot,2022.1.3,Win32,60.24822268,62c50e9c1127f2cd403a315f,,,,,,,,,,,,,,,,,,,,,,,,,,,,,,,,,,,,,,,,,,,,,,,,,,,,,,,,,,,,,,,,,,,,,,,,,,,,,,,,,,,,,,,,,,,,,,,,,,,,,,,,,,,,,,,,,,,,,,,,,,,,,,,,,,,,,,,,,,,,,,,,,,,,,,,,,,,,,,,,,,,
0,26,26,89,1,,5b755869d5d7a80001b45a1e,62c538dfd1cad5ca791df9d8,2022-07-06_09h25.33.276,Colour_Asymmetry_Pilot,2022.1.3,Win32,60.24822268,62c50e9c1127f2cd403a315f,,,,,,,,,,,,,,,,,,,,,,,,,,,,,,,,,,,,,,,,,,,,,,,,,,,,,,,,,,,,,,,,,,,,,,,,,,,,,,,,,,,,,,,,,,,,,,,,,,,,,,,,,,,,,,,,,,,,,,,,,,,,,,,,,,,,,,,,,,,,,,,,,,,,,,,,,,,,,,,,,,,
0,27,27,21,1,,5b755869d5d7a80001b45a1e,62c538dfd1cad5ca791df9d8,2022-07-06_09h25.33.276,Colour_Asymmetry_Pilot,2022.1.3,Win32,60.24822268,62c50e9c1127f2cd403a315f,,,,,,,,,,,,,,,,,,,,,,,,,,,,,,,,,,,,,,,,,,,,,,,,,,,,,,,,,,,,,,,,,,,,,,,,,,,,,,,,,,,,,,,,,,,,,,,,,,,,,,,,,,,,,,,,,,,,,,,,,,,,,,,,,,,,,,,,,,,,,,,,,,,,,,,,,,,,,,,,,,,
0,28,28,34,1,,5b755869d5d7a80001b45a1e,62c538dfd1cad5ca791df9d8,2022-07-06_09h25.33.276,Colour_Asymmetry_Pilot,2022.1.3,Win32,60.24822268,62c50e9c1127f2cd403a315f,,,,,,,,,,,,,,,,,,,,,,,,,,,,,,,,,,,,,,,,,,,,,,,,,,,,,,,,,,,,,,,,,,,,,,,,,,,,,,,,,,,,,,,,,,,,,,,,,,,,,,,,,,,,,,,,,,,,,,,,,,,,,,,,,,,,,,,,,,,,,,,,,,,,,,,,,,,,,,,,,,,
0,29,29,37,1,,5b755869d5d7a80001b45a1e,62c538dfd1cad5ca791df9d8,2022-07-06_09h25.33.276,Colour_Asymmetry_Pilot,2022.1.3,Win32,60.24822268,62c50e9c1127f2cd403a315f,,,,,,,,,,,,,,,,,,,,,,,,,,,,,,,,,,,,,,,,,,,,,,,,,,,,,,,,,,,,,,,,,,,,,,,,,,,,,,,,,,,,,,,,,,,,,,,,,,,,,,,,,,,,,,,,,,,,,,,,,,,,,,,,,,,,,,,,,,,,,,,,,,,,,,,,,,,,,,,,,,,
0,30,30,65,1,,5b755869d5d7a80001b45a1e,62c538dfd1cad5ca791df9d8,2022-07-06_09h25.33.276,Colour_Asymmetry_Pilot,2022.1.3,Win32,60.24822268,62c50e9c1127f2cd403a315f,,,,,,,,,,,,,,,,,,,,,,,,,,,,,,,,,,,,,,,,,,,,,,,,,,,,,,,,,,,,,,,,,,,,,,,,,,,,,,,,,,,,,,,,,,,,,,,,,,,,,,,,,,,,,,,,,,,,,,,,,,,,,,,,,,,,,,,,,,,,,,,,,,,,,,,,,,,,,,,,,,,
0,31,31,84,1,,5b755869d5d7a80001b45a1e,62c538dfd1cad5ca791df9d8,2022-07-06_09h25.33.276,Colour_Asymmetry_Pilot,2022.1.3,Win32,60.24822268,62c50e9c1127f2cd403a315f,,,,,,,,,,,,,,,,,,,,,,,,,,,,,,,,,,,,,,,,,,,,,,,,,,,,,,,,,,,,,,,,,,,,,,,,,,,,,,,,,,,,,,,,,,,,,,,,,,,,,,,,,,,,,,,,,,,,,,,,,,,,,,,,,,,,,,,,,,,,,,,,,,,,,,,,,,,,,,,,,,,
0,32,32,12,1,,5b755869d5d7a80001b45a1e,62c538dfd1cad5ca791df9d8,2022-07-06_09h25.33.276,Colour_Asymmetry_Pilot,2022.1.3,Win32,60.24822268,62c50e9c1127f2cd403a315f,,,,,,,,,,,,,,,,,,,,,,,,,,,,,,,,,,,,,,,,,,,,,,,,,,,,,,,,,,,,,,,,,,,,,,,,,,,,,,,,,,,,,,,,,,,,,,,,,,,,,,,,,,,,,,,,,,,,,,,,,,,,,,,,,,,,,,,,,,,,,,,,,,,,,,,,,,,,,,,,,,,
0,33,33,82,1,,5b755869d5d7a80001b45a1e,62c538dfd1cad5ca791df9d8,2022-07-06_09h25.33.276,Colour_Asymmetry_Pilot,2022.1.3,Win32,60.24822268,62c50e9c1127f2cd403a315f,,,,,,,,,,,,,,,,,,,,,,,,,,,,,,,,,,,,,,,,,,,,,,,,,,,,,,,,,,,,,,,,,,,,,,,,,,,,,,,,,,,,,,,,,,,,,,,,,,,,,,,,,,,,,,,,,,,,,,,,,,,,,,,,,,,,,,,,,,,,,,,,,,,,,,,,,,,,,,,,,,,
0,34,34,61,1,,5b755869d5d7a80001b45a1e,62c538dfd1cad5ca791df9d8,2022-07-06_09h25.33.276,Colour_Asymmetry_Pilot,2022.1.3,Win32,60.24822268,62c50e9c1127f2cd403a315f,,,,,,,,,,,,,,,,,,,,,,,,,,,,,,,,,,,,,,,,,,,,,,,,,,,,,,,,,,,,,,,,,,,,,,,,,,,,,,,,,,,,,,,,,,,,,,,,,,,,,,,,,,,,,,,,,,,,,,,,,,,,,,,,,,,,,,,,,,,,,,,,,,,,,,,,,,,,,,,,,,,
0,35,35,11,1,,5b755869d5d7a80001b45a1e,62c538dfd1cad5ca791df9d8,2022-07-06_09h25.33.276,Colour_Asymmetry_Pilot,2022.1.3,Win32,60.24822268,62c50e9c1127f2cd403a315f,,,,,,,,,,,,,,,,,,,,,,,,,,,,,,,,,,,,,,,,,,,,,,,,,,,,,,,,,,,,,,,,,,,,,,,,,,,,,,,,,,,,,,,,,,,,,,,,,,,,,,,,,,,,,,,,,,,,,,,,,,,,,,,,,,,,,,,,,,,,,,,,,,,,,,,,,,,,,,,,,,,
0,36,36,68,1,,5b755869d5d7a80001b45a1e,62c538dfd1cad5ca791df9d8,2022-07-06_09h25.33.276,Colour_Asymmetry_Pilot,2022.1.3,Win32,60.24822268,62c50e9c1127f2cd403a315f,,,,,,,,,,,,,,,,,,,,,,,,,,,,,,,,,,,,,,,,,,,,,,,,,,,,,,,,,,,,,,,,,,,,,,,,,,,,,,,,,,,,,,,,,,,,,,,,,,,,,,,,,,,,,,,,,,,,,,,,,,,,,,,,,,,,,,,,,,,,,,,,,,,,,,,,,,,,,,,,,,,
0,37,37,46,1,,5b755869d5d7a80001b45a1e,62c538dfd1cad5ca791df9d8,2022-07-06_09h25.33.276,Colour_Asymmetry_Pilot,2022.1.3,Win32,60.24822268,62c50e9c1127f2cd403a315f,,,,,,,,,,,,,,,,,,,,,,,,,,,,,,,,,,,,,,,,,,,,,,,,,,,,,,,,,,,,,,,,,,,,,,,,,,,,,,,,,,,,,,,,,,,,,,,,,,,,,,,,,,,,,,,,,,,,,,,,,,,,,,,,,,,,,,,,,,,,,,,,,,,,,,,,,,,,,,,,,,,
0,38,38,5,1,,5b755869d5d7a80001b45a1e,62c538dfd1cad5ca791df9d8,2022-07-06_09h25.33.276,Colour_Asymmetry_Pilot,2022.1.3,Win32,60.24822268,62c50e9c1127f2cd403a315f,,,,,,,,,,,,,,,,,,,,,,,,,,,,,,,,,,,,,,,,,,,,,,,,,,,,,,,,,,,,,,,,,,,,,,,,,,,,,,,,,,,,,,,,,,,,,,,,,,,,,,,,,,,,,,,,,,,,,,,,,,,,,,,,,,,,,,,,,,,,,,,,,,,,,,,,,,,,,,,,,,,
0,39,39,35,1,,5b755869d5d7a80001b45a1e,62c538dfd1cad5ca791df9d8,2022-07-06_09h25.33.276,Colour_Asymmetry_Pilot,2022.1.3,Win32,60.24822268,62c50e9c1127f2cd403a315f,,,,,,,,,,,,,,,,,,,,,,,,,,,,,,,,,,,,,,,,,,,,,,,,,,,,,,,,,,,,,,,,,,,,,,,,,,,,,,,,,,,,,,,,,,,,,,,,,,,,,,,,,,,,,,,,,,,,,,,,,,,,,,,,,,,,,,,,,,,,,,,,,,,,,,,,,,,,,,,,,,,
0,40,40,9,1,,5b755869d5d7a80001b45a1e,62c538dfd1cad5ca791df9d8,2022-07-06_09h25.33.276,Colour_Asymmetry_Pilot,2022.1.3,Win32,60.24822268,62c50e9c1127f2cd403a315f,,,,,,,,,,,,,,,,,,,,,,,,,,,,,,,,,,,,,,,,,,,,,,,,,,,,,,,,,,,,,,,,,,,,,,,,,,,,,,,,,,,,,,,,,,,,,,,,,,,,,,,,,,,,,,,,,,,,,,,,,,,,,,,,,,,,,,,,,,,,,,,,,,,,,,,,,,,,,,,,,,,
0,41,41,43,1,,5b755869d5d7a80001b45a1e,62c538dfd1cad5ca791df9d8,2022-07-06_09h25.33.276,Colour_Asymmetry_Pilot,2022.1.3,Win32,60.24822268,62c50e9c1127f2cd403a315f,,,,,,,,,,,,,,,,,,,,,,,,,,,,,,,,,,,,,,,,,,,,,,,,,,,,,,,,,,,,,,,,,,,,,,,,,,,,,,,,,,,,,,,,,,,,,,,,,,,,,,,,,,,,,,,,,,,,,,,,,,,,,,,,,,,,,,,,,,,,,,,,,,,,,,,,,,,,,,,,,,,
0,42,42,31,1,,5b755869d5d7a80001b45a1e,62c538dfd1cad5ca791df9d8,2022-07-06_09h25.33.276,Colour_Asymmetry_Pilot,2022.1.3,Win32,60.24822268,62c50e9c1127f2cd403a315f,,,,,,,,,,,,,,,,,,,,,,,,,,,,,,,,,,,,,,,,,,,,,,,,,,,,,,,,,,,,,,,,,,,,,,,,,,,,,,,,,,,,,,,,,,,,,,,,,,,,,,,,,,,,,,,,,,,,,,,,,,,,,,,,,,,,,,,,,,,,,,,,,,,,,,,,,,,,,,,,,,,
0,43,43,59,1,,5b755869d5d7a80001b45a1e,62c538dfd1cad5ca791df9d8,2022-07-06_09h25.33.276,Colour_Asymmetry_Pilot,2022.1.3,Win32,60.24822268,62c50e9c1127f2cd403a315f,,,,,,,,,,,,,,,,,,,,,,,,,,,,,,,,,,,,,,,,,,,,,,,,,,,,,,,,,,,,,,,,,,,,,,,,,,,,,,,,,,,,,,,,,,,,,,,,,,,,,,,,,,,,,,,,,,,,,,,,,,,,,,,,,,,,,,,,,,,,,,,,,,,,,,,,,,,,,,,,,,,
0,44,44,78,1,,5b755869d5d7a80001b45a1e,62c538dfd1cad5ca791df9d8,2022-07-06_09h25.33.276,Colour_Asymmetry_Pilot,2022.1.3,Win32,60.24822268,62c50e9c1127f2cd403a315f,,,,,,,,,,,,,,,,,,,,,,,,,,,,,,,,,,,,,,,,,,,,,,,,,,,,,,,,,,,,,,,,,,,,,,,,,,,,,,,,,,,,,,,,,,,,,,,,,,,,,,,,,,,,,,,,,,,,,,,,,,,,,,,,,,,,,,,,,,,,,,,,,,,,,,,,,,,,,,,,,,,
0,45,45,27,1,,5b755869d5d7a80001b45a1e,62c538dfd1cad5ca791df9d8,2022-07-06_09h25.33.276,Colour_Asymmetry_Pilot,2022.1.3,Win32,60.24822268,62c50e9c1127f2cd403a315f,,,,,,,,,,,,,,,,,,,,,,,,,,,,,,,,,,,,,,,,,,,,,,,,,,,,,,,,,,,,,,,,,,,,,,,,,,,,,,,,,,,,,,,,,,,,,,,,,,,,,,,,,,,,,,,,,,,,,,,,,,,,,,,,,,,,,,,,,,,,,,,,,,,,,,,,,,,,,,,,,,,
0,46,46,88,1,,5b755869d5d7a80001b45a1e,62c538dfd1cad5ca791df9d8,2022-07-06_09h25.33.276,Colour_Asymmetry_Pilot,2022.1.3,Win32,60.24822268,62c50e9c1127f2cd403a315f,,,,,,,,,,,,,,,,,,,,,,,,,,,,,,,,,,,,,,,,,,,,,,,,,,,,,,,,,,,,,,,,,,,,,,,,,,,,,,,,,,,,,,,,,,,,,,,,,,,,,,,,,,,,,,,,,,,,,,,,,,,,,,,,,,,,,,,,,,,,,,,,,,,,,,,,,,,,,,,,,,,
0,47,47,16,1,,5b755869d5d7a80001b45a1e,62c538dfd1cad5ca791df9d8,2022-07-06_09h25.33.276,Colour_Asymmetry_Pilot,2022.1.3,Win32,60.24822268,62c50e9c1127f2cd403a315f,,,,,,,,,,,,,,,,,,,,,,,,,,,,,,,,,,,,,,,,,,,,,,,,,,,,,,,,,,,,,,,,,,,,,,,,,,,,,,,,,,,,,,,,,,,,,,,,,,,,,,,,,,,,,,,,,,,,,,,,,,,,,,,,,,,,,,,,,,,,,,,,,,,,,,,,,,,,,,,,,,,
0,48,48,49,1,,5b755869d5d7a80001b45a1e,62c538dfd1cad5ca791df9d8,2022-07-06_09h25.33.276,Colour_Asymmetry_Pilot,2022.1.3,Win32,60.24822268,62c50e9c1127f2cd403a315f,,,,,,,,,,,,,,,,,,,,,,,,,,,,,,,,,,,,,,,,,,,,,,,,,,,,,,,,,,,,,,,,,,,,,,,,,,,,,,,,,,,,,,,,,,,,,,,,,,,,,,,,,,,,,,,,,,,,,,,,,,,,,,,,,,,,,,,,,,,,,,,,,,,,,,,,,,,,,,,,,,,
0,49,49,48,1,,5b755869d5d7a80001b45a1e,62c538dfd1cad5ca791df9d8,2022-07-06_09h25.33.276,Colour_Asymmetry_Pilot,2022.1.3,Win32,60.24822268,62c50e9c1127f2cd403a315f,,,,,,,,,,,,,,,,,,,,,,,,,,,,,,,,,,,,,,,,,,,,,,,,,,,,,,,,,,,,,,,,,,,,,,,,,,,,,,,,,,,,,,,,,,,,,,,,,,,,,,,,,,,,,,,,,,,,,,,,,,,,,,,,,,,,,,,,,,,,,,,,,,,,,,,,,,,,,,,,,,,
0,50,50,73,1,,5b755869d5d7a80001b45a1e,62c538dfd1cad5ca791df9d8,2022-07-06_09h25.33.276,Colour_Asymmetry_Pilot,2022.1.3,Win32,60.24822268,62c50e9c1127f2cd403a315f,,,,,,,,,,,,,,,,,,,,,,,,,,,,,,,,,,,,,,,,,,,,,,,,,,,,,,,,,,,,,,,,,,,,,,,,,,,,,,,,,,,,,,,,,,,,,,,,,,,,,,,,,,,,,,,,,,,,,,,,,,,,,,,,,,,,,,,,,,,,,,,,,,,,,,,,,,,,,,,,,,,
0,51,51,41,1,,5b755869d5d7a80001b45a1e,62c538dfd1cad5ca791df9d8,2022-07-06_09h25.33.276,Colour_Asymmetry_Pilot,2022.1.3,Win32,60.24822268,62c50e9c1127f2cd403a315f,,,,,,,,,,,,,,,,,,,,,,,,,,,,,,,,,,,,,,,,,,,,,,,,,,,,,,,,,,,,,,,,,,,,,,,,,,,,,,,,,,,,,,,,,,,,,,,,,,,,,,,,,,,,,,,,,,,,,,,,,,,,,,,,,,,,,,,,,,,,,,,,,,,,,,,,,,,,,,,,,,,
0,52,52,90,1,,5b755869d5d7a80001b45a1e,62c538dfd1cad5ca791df9d8,2022-07-06_09h25.33.276,Colour_Asymmetry_Pilot,2022.1.3,Win32,60.24822268,62c50e9c1127f2cd403a315f,,,,,,,,,,,,,,,,,,,,,,,,,,,,,,,,,,,,,,,,,,,,,,,,,,,,,,,,,,,,,,,,,,,,,,,,,,,,,,,,,,,,,,,,,,,,,,,,,,,,,,,,,,,,,,,,,,,,,,,,,,,,,,,,,,,,,,,,,,,,,,,,,,,,,,,,,,,,,,,,,,,
0,53,53,13,1,,5b755869d5d7a80001b45a1e,62c538dfd1cad5ca791df9d8,2022-07-06_09h25.33.276,Colour_Asymmetry_Pilot,2022.1.3,Win32,60.24822268,62c50e9c1127f2cd403a315f,,,,,,,,,,,,,,,,,,,,,,,,,,,,,,,,,,,,,,,,,,,,,,,,,,,,,,,,,,,,,,,,,,,,,,,,,,,,,,,,,,,,,,,,,,,,,,,,,,,,,,,,,,,,,,,,,,,,,,,,,,,,,,,,,,,,,,,,,,,,,,,,,,,,,,,,,,,,,,,,,,,
0,54,54,54,1,,5b755869d5d7a80001b45a1e,62c538dfd1cad5ca791df9d8,2022-07-06_09h25.33.276,Colour_Asymmetry_Pilot,2022.1.3,Win32,60.24822268,62c50e9c1127f2cd403a315f,,,,,,,,,,,,,,,,,,,,,,,,,,,,,,,,,,,,,,,,,,,,,,,,,,,,,,,,,,,,,,,,,,,,,,,,,,,,,,,,,,,,,,,,,,,,,,,,,,,,,,,,,,,,,,,,,,,,,,,,,,,,,,,,,,,,,,,,,,,,,,,,,,,,,,,,,,,,,,,,,,,
0,55,55,2,1,,5b755869d5d7a80001b45a1e,62c538dfd1cad5ca791df9d8,2022-07-06_09h25.33.276,Colour_Asymmetry_Pilot,2022.1.3,Win32,60.24822268,62c50e9c1127f2cd403a315f,,,,,,,,,,,,,,,,,,,,,,,,,,,,,,,,,,,,,,,,,,,,,,,,,,,,,,,,,,,,,,,,,,,,,,,,,,,,,,,,,,,,,,,,,,,,,,,,,,,,,,,,,,,,,,,,,,,,,,,,,,,,,,,,,,,,,,,,,,,,,,,,,,,,,,,,,,,,,,,,,,,
0,56,56,51,1,,5b755869d5d7a80001b45a1e,62c538dfd1cad5ca791df9d8,2022-07-06_09h25.33.276,Colour_Asymmetry_Pilot,2022.1.3,Win32,60.24822268,62c50e9c1127f2cd403a315f,,,,,,,,,,,,,,,,,,,,,,,,,,,,,,,,,,,,,,,,,,,,,,,,,,,,,,,,,,,,,,,,,,,,,,,,,,,,,,,,,,,,,,,,,,,,,,,,,,,,,,,,,,,,,,,,,,,,,,,,,,,,,,,,,,,,,,,,,,,,,,,,,,,,,,,,,,,,,,,,,,,
0,57,57,50,1,,5b755869d5d7a80001b45a1e,62c538dfd1cad5ca791df9d8,2022-07-06_09h25.33.276,Colour_Asymmetry_Pilot,2022.1.3,Win32,60.24822268,62c50e9c1127f2cd403a315f,,,,,,,,,,,,,,,,,,,,,,,,,,,,,,,,,,,,,,,,,,,,,,,,,,,,,,,,,,,,,,,,,,,,,,,,,,,,,,,,,,,,,,,,,,,,,,,,,,,,,,,,,,,,,,,,,,,,,,,,,,,,,,,,,,,,,,,,,,,,,,,,,,,,,,,,,,,,,,,,,,,
0,58,58,44,1,,5b755869d5d7a80001b45a1e,62c538dfd1cad5ca791df9d8,2022-07-06_09h25.33.276,Colour_Asymmetry_Pilot,2022.1.3,Win32,60.24822268,62c50e9c1127f2cd403a315f,,,,,,,,,,,,,,,,,,,,,,,,,,,,,,,,,,,,,,,,,,,,,,,,,,,,,,,,,,,,,,,,,,,,,,,,,,,,,,,,,,,,,,,,,,,,,,,,,,,,,,,,,,,,,,,,,,,,,,,,,,,,,,,,,,,,,,,,,,,,,,,,,,,,,,,,,,,,,,,,,,,
0,59,59,14,1,,5b755869d5d7a80001b45a1e,62c538dfd1cad5ca791df9d8,2022-07-06_09h25.33.276,Colour_Asymmetry_Pilot,2022.1.3,Win32,60.24822268,62c50e9c1127f2cd403a315f,,,,,,,,,,,,,,,,,,,,,,,,,,,,,,,,,,,,,,,,,,,,,,,,,,,,,,,,,,,,,,,,,,,,,,,,,,,,,,,,,,,,,,,,,,,,,,,,,,,,,,,,,,,,,,,,,,,,,,,,,,,,,,,,,,,,,,,,,,,,,,,,,,,,,,,,,,,,,,,,,,,
0,60,60,30,1,,5b755869d5d7a80001b45a1e,62c538dfd1cad5ca791df9d8,2022-07-06_09h25.33.276,Colour_Asymmetry_Pilot,2022.1.3,Win32,60.24822268,62c50e9c1127f2cd403a315f,,,,,,,,,,,,,,,,,,,,,,,,,,,,,,,,,,,,,,,,,,,,,,,,,,,,,,,,,,,,,,,,,,,,,,,,,,,,,,,,,,,,,,,,,,,,,,,,,,,,,,,,,,,,,,,,,,,,,,,,,,,,,,,,,,,,,,,,,,,,,,,,,,,,,,,,,,,,,,,,,,,
0,61,61,67,1,,5b755869d5d7a80001b45a1e,62c538dfd1cad5ca791df9d8,2022-07-06_09h25.33.276,Colour_Asymmetry_Pilot,2022.1.3,Win32,60.24822268,62c50e9c1127f2cd403a315f,,,,,,,,,,,,,,,,,,,,,,,,,,,,,,,,,,,,,,,,,,,,,,,,,,,,,,,,,,,,,,,,,,,,,,,,,,,,,,,,,,,,,,,,,,,,,,,,,,,,,,,,,,,,,,,,,,,,,,,,,,,,,,,,,,,,,,,,,,,,,,,,,,,,,,,,,,,,,,,,,,,
0,62,62,8,1,,5b755869d5d7a80001b45a1e,62c538dfd1cad5ca791df9d8,2022-07-06_09h25.33.276,Colour_Asymmetry_Pilot,2022.1.3,Win32,60.24822268,62c50e9c1127f2cd403a315f,,,,,,,,,,,,,,,,,,,,,,,,,,,,,,,,,,,,,,,,,,,,,,,,,,,,,,,,,,,,,,,,,,,,,,,,,,,,,,,,,,,,,,,,,,,,,,,,,,,,,,,,,,,,,,,,,,,,,,,,,,,,,,,,,,,,,,,,,,,,,,,,,,,,,,,,,,,,,,,,,,,
0,63,63,77,1,,5b755869d5d7a80001b45a1e,62c538dfd1cad5ca791df9d8,2022-07-06_09h25.33.276,Colour_Asymmetry_Pilot,2022.1.3,Win32,60.24822268,62c50e9c1127f2cd403a315f,,,,,,,,,,,,,,,,,,,,,,,,,,,,,,,,,,,,,,,,,,,,,,,,,,,,,,,,,,,,,,,,,,,,,,,,,,,,,,,,,,,,,,,,,,,,,,,,,,,,,,,,,,,,,,,,,,,,,,,,,,,,,,,,,,,,,,,,,,,,,,,,,,,,,,,,,,,,,,,,,,,
0,64,64,39,1,,5b755869d5d7a80001b45a1e,62c538dfd1cad5ca791df9d8,2022-07-06_09h25.33.276,Colour_Asymmetry_Pilot,2022.1.3,Win32,60.24822268,62c50e9c1127f2cd403a315f,,,,,,,,,,,,,,,,,,,,,,,,,,,,,,,,,,,,,,,,,,,,,,,,,,,,,,,,,,,,,,,,,,,,,,,,,,,,,,,,,,,,,,,,,,,,,,,,,,,,,,,,,,,,,,,,,,,,,,,,,,,,,,,,,,,,,,,,,,,,,,,,,,,,,,,,,,,,,,,,,,,
0,65,65,71,1,,5b755869d5d7a80001b45a1e,62c538dfd1cad5ca791df9d8,2022-07-06_09h25.33.276,Colour_Asymmetry_Pilot,2022.1.3,Win32,60.24822268,62c50e9c1127f2cd403a315f,,,,,,,,,,,,,,,,,,,,,,,,,,,,,,,,,,,,,,,,,,,,,,,,,,,,,,,,,,,,,,,,,,,,,,,,,,,,,,,,,,,,,,,,,,,,,,,,,,,,,,,,,,,,,,,,,,,,,,,,,,,,,,,,,,,,,,,,,,,,,,,,,,,,,,,,,,,,,,,,,,,
0,66,66,28,1,,5b755869d5d7a80001b45a1e,62c538dfd1cad5ca791df9d8,2022-07-06_09h25.33.276,Colour_Asymmetry_Pilot,2022.1.3,Win32,60.24822268,62c50e9c1127f2cd403a315f,,,,,,,,,,,,,,,,,,,,,,,,,,,,,,,,,,,,,,,,,,,,,,,,,,,,,,,,,,,,,,,,,,,,,,,,,,,,,,,,,,,,,,,,,,,,,,,,,,,,,,,,,,,,,,,,,,,,,,,,,,,,,,,,,,,,,,,,,,,,,,,,,,,,,,,,,,,,,,,,,,,
0,67,67,45,1,,5b755869d5d7a80001b45a1e,62c538dfd1cad5ca791df9d8,2022-07-06_09h25.33.276,Colour_Asymmetry_Pilot,2022.1.3,Win32,60.24822268,62c50e9c1127f2cd403a315f,,,,,,,,,,,,,,,,,,,,,,,,,,,,,,,,,,,,,,,,,,,,,,,,,,,,,,,,,,,,,,,,,,,,,,,,,,,,,,,,,,,,,,,,,,,,,,,,,,,,,,,,,,,,,,,,,,,,,,,,,,,,,,,,,,,,,,,,,,,,,,,,,,,,,,,,,,,,,,,,,,,
0,68,68,36,1,,5b755869d5d7a80001b45a1e,62c538dfd1cad5ca791df9d8,2022-07-06_09h25.33.276,Colour_Asymmetry_Pilot,2022.1.3,Win32,60.24822268,62c50e9c1127f2cd403a315f,,,,,,,,,,,,,,,,,,,,,,,,,,,,,,,,,,,,,,,,,,,,,,,,,,,,,,,,,,,,,,,,,,,,,,,,,,,,,,,,,,,,,,,,,,,,,,,,,,,,,,,,,,,,,,,,,,,,,,,,,,,,,,,,,,,,,,,,,,,,,,,,,,,,,,,,,,,,,,,,,,,
0,69,69,47,1,,5b755869d5d7a80001b45a1e,62c538dfd1cad5ca791df9d8,2022-07-06_09h25.33.276,Colour_Asymmetry_Pilot,2022.1.3,Win32,60.24822268,62c50e9c1127f2cd403a315f,,,,,,,,,,,,,,,,,,,,,,,,,,,,,,,,,,,,,,,,,,,,,,,,,,,,,,,,,,,,,,,,,,,,,,,,,,,,,,,,,,,,,,,,,,,,,,,,,,,,,,,,,,,,,,,,,,,,,,,,,,,,,,,,,,,,,,,,,,,,,,,,,,,,,,,,,,,,,,,,,,,
0,70,70,38,1,,5b755869d5d7a80001b45a1e,62c538dfd1cad5ca791df9d8,2022-07-06_09h25.33.276,Colour_Asymmetry_Pilot,2022.1.3,Win32,60.24822268,62c50e9c1127f2cd403a315f,,,,,,,,,,,,,,,,,,,,,,,,,,,,,,,,,,,,,,,,,,,,,,,,,,,,,,,,,,,,,,,,,,,,,,,,,,,,,,,,,,,,,,,,,,,,,,,,,,,,,,,,,,,,,,,,,,,,,,,,,,,,,,,,,,,,,,,,,,,,,,,,,,,,,,,,,,,,,,,,,,,
0,71,71,72,1,,5b755869d5d7a80001b45a1e,62c538dfd1cad5ca791df9d8,2022-07-06_09h25.33.276,Colour_Asymmetry_Pilot,2022.1.3,Win32,60.24822268,62c50e9c1127f2cd403a315f,,,,,,,,,,,,,,,,,,,,,,,,,,,,,,,,,,,,,,,,,,,,,,,,,,,,,,,,,,,,,,,,,,,,,,,,,,,,,,,,,,,,,,,,,,,,,,,,,,,,,,,,,,,,,,,,,,,,,,,,,,,,,,,,,,,,,,,,,,,,,,,,,,,,,,,,,,,,,,,,,,,
0,72,72,29,1,,5b755869d5d7a80001b45a1e,62c538dfd1cad5ca791df9d8,2022-07-06_09h25.33.276,Colour_Asymmetry_Pilot,2022.1.3,Win32,60.24822268,62c50e9c1127f2cd403a315f,,,,,,,,,,,,,,,,,,,,,,,,,,,,,,,,,,,,,,,,,,,,,,,,,,,,,,,,,,,,,,,,,,,,,,,,,,,,,,,,,,,,,,,,,,,,,,,,,,,,,,,,,,,,,,,,,,,,,,,,,,,,,,,,,,,,,,,,,,,,,,,,,,,,,,,,,,,,,,,,,,,
0,73,73,91,1,,5b755869d5d7a80001b45a1e,62c538dfd1cad5ca791df9d8,2022-07-06_09h25.33.276,Colour_Asymmetry_Pilot,2022.1.3,Win32,60.24822268,62c50e9c1127f2cd403a315f,,,,,,,,,,,,,,,,,,,,,,,,,,,,,,,,,,,,,,,,,,,,,,,,,,,,,,,,,,,,,,,,,,,,,,,,,,,,,,,,,,,,,,,,,,,,,,,,,,,,,,,,,,,,,,,,,,,,,,,,,,,,,,,,,,,,,,,,,,,,,,,,,,,,,,,,,,,,,,,,,,,
0,74,74,58,1,,5b755869d5d7a80001b45a1e,62c538dfd1cad5ca791df9d8,2022-07-06_09h25.33.276,Colour_Asymmetry_Pilot,2022.1.3,Win32,60.24822268,62c50e9c1127f2cd403a315f,,,,,,,,,,,,,,,,,,,,,,,,,,,,,,,,,,,,,,,,,,,,,,,,,,,,,,,,,,,,,,,,,,,,,,,,,,,,,,,,,,,,,,,,,,,,,,,,,,,,,,,,,,,,,,,,,,,,,,,,,,,,,,,,,,,,,,,,,,,,,,,,,,,,,,,,,,,,,,,,,,,
0,75,75,4,1,,5b755869d5d7a80001b45a1e,62c538dfd1cad5ca791df9d8,2022-07-06_09h25.33.276,Colour_Asymmetry_Pilot,2022.1.3,Win32,60.24822268,62c50e9c1127f2cd403a315f,,,,,,,,,,,,,,,,,,,,,,,,,,,,,,,,,,,,,,,,,,,,,,,,,,,,,,,,,,,,,,,,,,,,,,,,,,,,,,,,,,,,,,,,,,,,,,,,,,,,,,,,,,,,,,,,,,,,,,,,,,,,,,,,,,,,,,,,,,,,,,,,,,,,,,,,,,,,,,,,,,,
0,76,76,40,1,,5b755869d5d7a80001b45a1e,62c538dfd1cad5ca791df9d8,2022-07-06_09h25.33.276,Colour_Asymmetry_Pilot,2022.1.3,Win32,60.24822268,62c50e9c1127f2cd403a315f,,,,,,,,,,,,,,,,,,,,,,,,,,,,,,,,,,,,,,,,,,,,,,,,,,,,,,,,,,,,,,,,,,,,,,,,,,,,,,,,,,,,,,,,,,,,,,,,,,,,,,,,,,,,,,,,,,,,,,,,,,,,,,,,,,,,,,,,,,,,,,,,,,,,,,,,,,,,,,,,,,,
0,77,77,17,1,,5b755869d5d7a80001b45a1e,62c538dfd1cad5ca791df9d8,2022-07-06_09h25.33.276,Colour_Asymmetry_Pilot,2022.1.3,Win32,60.24822268,62c50e9c1127f2cd403a315f,,,,,,,,,,,,,,,,,,,,,,,,,,,,,,,,,,,,,,,,,,,,,,,,,,,,,,,,,,,,,,,,,,,,,,,,,,,,,,,,,,,,,,,,,,,,,,,,,,,,,,,,,,,,,,,,,,,,,,,,,,,,,,,,,,,,,,,,,,,,,,,,,,,,,,,,,,,,,,,,,,,
0,78,78,32,1,,5b755869d5d7a80001b45a1e,62c538dfd1cad5ca791df9d8,2022-07-06_09h25.33.276,Colour_Asymmetry_Pilot,2022.1.3,Win32,60.24822268,62c50e9c1127f2cd403a315f,,,,,,,,,,,,,,,,,,,,,,,,,,,,,,,,,,,,,,,,,,,,,,,,,,,,,,,,,,,,,,,,,,,,,,,,,,,,,,,,,,,,,,,,,,,,,,,,,,,,,,,,,,,,,,,,,,,,,,,,,,,,,,,,,,,,,,,,,,,,,,,,,,,,,,,,,,,,,,,,,,,
0,79,79,80,1,,5b755869d5d7a80001b45a1e,62c538dfd1cad5ca791df9d8,2022-07-06_09h25.33.276,Colour_Asymmetry_Pilot,2022.1.3,Win32,60.24822268,62c50e9c1127f2cd403a315f,,,,,,,,,,,,,,,,,,,,,,,,,,,,,,,,,,,,,,,,,,,,,,,,,,,,,,,,,,,,,,,,,,,,,,,,,,,,,,,,,,,,,,,,,,,,,,,,,,,,,,,,,,,,,,,,,,,,,,,,,,,,,,,,,,,,,,,,,,,,,,,,,,,,,,,,,,,,,,,,,,,
0,80,80,10,1,,5b755869d5d7a80001b45a1e,62c538dfd1cad5ca791df9d8,2022-07-06_09h25.33.276,Colour_Asymmetry_Pilot,2022.1.3,Win32,60.24822268,62c50e9c1127f2cd403a315f,,,,,,,,,,,,,,,,,,,,,,,,,,,,,,,,,,,,,,,,,,,,,,,,,,,,,,,,,,,,,,,,,,,,,,,,,,,,,,,,,,,,,,,,,,,,,,,,,,,,,,,,,,,,,,,,,,,,,,,,,,,,,,,,,,,,,,,,,,,,,,,,,,,,,,,,,,,,,,,,,,,
0,81,81,55,1,,5b755869d5d7a80001b45a1e,62c538dfd1cad5ca791df9d8,2022-07-06_09h25.33.276,Colour_Asymmetry_Pilot,2022.1.3,Win32,60.24822268,62c50e9c1127f2cd403a315f,,,,,,,,,,,,,,,,,,,,,,,,,,,,,,,,,,,,,,,,,,,,,,,,,,,,,,,,,,,,,,,,,,,,,,,,,,,,,,,,,,,,,,,,,,,,,,,,,,,,,,,,,,,,,,,,,,,,,,,,,,,,,,,,,,,,,,,,,,,,,,,,,,,,,,,,,,,,,,,,,,,
0,82,82,7,1,,5b755869d5d7a80001b45a1e,62c538dfd1cad5ca791df9d8,2022-07-06_09h25.33.276,Colour_Asymmetry_Pilot,2022.1.3,Win32,60.24822268,62c50e9c1127f2cd403a315f,,,,,,,,,,,,,,,,,,,,,,,,,,,,,,,,,,,,,,,,,,,,,,,,,,,,,,,,,,,,,,,,,,,,,,,,,,,,,,,,,,,,,,,,,,,,,,,,,,,,,,,,,,,,,,,,,,,,,,,,,,,,,,,,,,,,,,,,,,,,,,,,,,,,,,,,,,,,,,,,,,,
0,83,83,0,1,,5b755869d5d7a80001b45a1e,62c538dfd1cad5ca791df9d8,2022-07-06_09h25.33.276,Colour_Asymmetry_Pilot,2022.1.3,Win32,60.24822268,62c50e9c1127f2cd403a315f,,,,,,,,,,,,,,,,,,,,,,,,,,,,,,,,,,,,,,,,,,,,,,,,,,,,,,,,,,,,,,,,,,,,,,,,,,,,,,,,,,,,,,,,,,,,,,,,,,,,,,,,,,,,,,,,,,,,,,,,,,,,,,,,,,,,,,,,,,,,,,,,,,,,,,,,,,,,,,,,,,,
0,84,84,79,1,,5b755869d5d7a80001b45a1e,62c538dfd1cad5ca791df9d8,2022-07-06_09h25.33.276,Colour_Asymmetry_Pilot,2022.1.3,Win32,60.24822268,62c50e9c1127f2cd403a315f,,,,,,,,,,,,,,,,,,,,,,,,,,,,,,,,,,,,,,,,,,,,,,,,,,,,,,,,,,,,,,,,,,,,,,,,,,,,,,,,,,,,,,,,,,,,,,,,,,,,,,,,,,,,,,,,,,,,,,,,,,,,,,,,,,,,,,,,,,,,,,,,,,,,,,,,,,,,,,,,,,,
0,85,85,81,1,,5b755869d5d7a80001b45a1e,62c538dfd1cad5ca791df9d8,2022-07-06_09h25.33.276,Colour_Asymmetry_Pilot,2022.1.3,Win32,60.24822268,62c50e9c1127f2cd403a315f,,,,,,,,,,,,,,,,,,,,,,,,,,,,,,,,,,,,,,,,,,,,,,,,,,,,,,,,,,,,,,,,,,,,,,,,,,,,,,,,,,,,,,,,,,,,,,,,,,,,,,,,,,,,,,,,,,,,,,,,,,,,,,,,,,,,,,,,,,,,,,,,,,,,,,,,,,,,,,,,,,,
0,86,86,3,1,,5b755869d5d7a80001b45a1e,62c538dfd1cad5ca791df9d8,2022-07-06_09h25.33.276,Colour_Asymmetry_Pilot,2022.1.3,Win32,60.24822268,62c50e9c1127f2cd403a315f,,,,,,,,,,,,,,,,,,,,,,,,,,,,,,,,,,,,,,,,,,,,,,,,,,,,,,,,,,,,,,,,,,,,,,,,,,,,,,,,,,,,,,,,,,,,,,,,,,,,,,,,,,,,,,,,,,,,,,,,,,,,,,,,,,,,,,,,,,,,,,,,,,,,,,,,,,,,,,,,,,,
0,87,87,87,1,,5b755869d5d7a80001b45a1e,62c538dfd1cad5ca791df9d8,2022-07-06_09h25.33.276,Colour_Asymmetry_Pilot,2022.1.3,Win32,60.24822268,62c50e9c1127f2cd403a315f,,,,,,,,,,,,,,,,,,,,,,,,,,,,,,,,,,,,,,,,,,,,,,,,,,,,,,,,,,,,,,,,,,,,,,,,,,,,,,,,,,,,,,,,,,,,,,,,,,,,,,,,,,,,,,,,,,,,,,,,,,,,,,,,,,,,,,,,,,,,,,,,,,,,,,,,,,,,,,,,,,,
0,88,88,20,1,,5b755869d5d7a80001b45a1e,62c538dfd1cad5ca791df9d8,2022-07-06_09h25.33.276,Colour_Asymmetry_Pilot,2022.1.3,Win32,60.24822268,62c50e9c1127f2cd403a315f,,,,,,,,,,,,,,,,,,,,,,,,,,,,,,,,,,,,,,,,,,,,,,,,,,,,,,,,,,,,,,,,,,,,,,,,,,,,,,,,,,,,,,,,,,,,,,,,,,,,,,,,,,,,,,,,,,,,,,,,,,,,,,,,,,,,,,,,,,,,,,,,,,,,,,,,,,,,,,,,,,,
0,89,89,63,1,,5b755869d5d7a80001b45a1e,62c538dfd1cad5ca791df9d8,2022-07-06_09h25.33.276,Colour_Asymmetry_Pilot,2022.1.3,Win32,60.24822268,62c50e9c1127f2cd403a315f,,,,,,,,,,,,,,,,,,,,,,,,,,,,,,,,,,,,,,,,,,,,,,,,,,,,,,,,,,,,,,,,,,,,,,,,,,,,,,,,,,,,,,,,,,,,,,,,,,,,,,,,,,,,,,,,,,,,,,,,,,,,,,,,,,,,,,,,,,,,,,,,,,,,,,,,,,,,,,,,,,,
0,90,90,85,1,,5b755869d5d7a80001b45a1e,62c538dfd1cad5ca791df9d8,2022-07-06_09h25.33.276,Colour_Asymmetry_Pilot,2022.1.3,Win32,60.24822268,62c50e9c1127f2cd403a315f,,,,,,,,,,,,,,,,,,,,,,,,,,,,,,,,,,,,,,,,,,,,,,,,,,,,,,,,,,,,,,,,,,,,,,,,,,,,,,,,,,,,,,,,,,,,,,,,,,,,,,,,,,,,,,,,,,,,,,,,,,,,,,,,,,,,,,,,,,,,,,,,,,,,,,,,,,,,,,,,,,,
0,91,91,75,1,,5b755869d5d7a80001b45a1e,62c538dfd1cad5ca791df9d8,2022-07-06_09h25.33.276,Colour_Asymmetry_Pilot,2022.1.3,Win32,60.24822268,62c50e9c1127f2cd403a315f,,,,,,,,,,,,,,,,,,,,,,,,,,,,,,,,,,,,,,,,,,,,,,,,,,,,,,,,,,,,,,,,,,,,,,,,,,,,,,,,,,,,,,,,,,,,,,,,,,,,,,,,,,,,,,,,,,,,,,,,,,,,,,,,,,,,,,,,,,,,,,,,,,,,,,,,,,,,,,,,,,,
0,92,92,83,1,,5b755869d5d7a80001b45a1e,62c538dfd1cad5ca791df9d8,2022-07-06_09h25.33.276,Colour_Asymmetry_Pilot,2022.1.3,Win32,60.24822268,62c50e9c1127f2cd403a315f,,,,,,,,,,,,,,,,,,,,,,,,,,,,,,,,,,,,,,,,,,,,,,,,,,,,,,,,,,,,,,,,,,,,,,,,,,,,,,,,,,,,,,,,,,,,,,,,,,,,,,,,,,,,,,,,,,,,,,,,,,,,,,,,,,,,,,,,,,,,,,,,,,,,,,,,,,,,,,,,,,,
,,,,,,5b755869d5d7a80001b45a1e,62c538dfd1cad5ca791df9d8,2022-07-06_09h25.33.276,Colour_Asymmetry_Pilot,2022.1.3,Win32,60.24822268,62c50e9c1127f2cd403a315f,0,0,0,39,1,fourthree,,,,,,,,,,,,,,,,,,,,,,,,,,,,,,,,,,,,,,,,,,,,,,,,,,,,,,,,,,,,,,,,,,,,,,,,,,,,,,,,,,,,,,,,,,,,,,,,,,,,,,,,,,,,,,,,,,,,,,,,,,,,,,,,,,,,,,,,,,,,,,,,,,,,,,,,,,,,,
,,,,,,5b755869d5d7a80001b45a1e,62c538dfd1cad5ca791df9d8,2022-07-06_09h25.33.276,Colour_Asymmetry_Pilot,2022.1.3,Win32,60.24822268,62c50e9c1127f2cd403a315f,0,1,1,86,1,fourtwo,,,,,,,,,,,,,,,,,,,,,,,,,,,,,,,,,,,,,,,,,,,,,,,,,,,,,,,,,,,,,,,,,,,,,,,,,,,,,,,,,,,,,,,,,,,,,,,,,,,,,,,,,,,,,,,,,,,,,,,,,,,,,,,,,,,,,,,,,,,,,,,,,,,,,,,,,,,,,
,,,,,,5b755869d5d7a80001b45a1e,62c538dfd1cad5ca791df9d8,2022-07-06_09h25.33.276,Colour_Asymmetry_Pilot,2022.1.3,Win32,60.24822268,62c50e9c1127f2cd403a315f,0,2,2,161,1,onethree,,,,,,,,,,,,,,,,,,,,,,,,,,,,,,,,,,,,,,,,,,,,,,,,,,,,,,,,,,,,,,,,,,,,,,,,,,,,,,,,,,,,,,,,,,,,,,,,,,,,,,,,,,,,,,,,,,,,,,,,,,,,,,,,,,,,,,,,,,,,,,,,,,,,,,,,,,,,,
,,,,,,5b755869d5d7a80001b45a1e,62c538dfd1cad5ca791df9d8,2022-07-06_09h25.33.276,Colour_Asymmetry_Pilot,2022.1.3,Win32,60.24822268,62c50e9c1127f2cd403a315f,0,3,3,78,1,fourtwo,,,,,,,,,,,,,,,,,,,,,,,,,,,,,,,,,,,,,,,,,,,,,,,,,,,,,,,,,,,,,,,,,,,,,,,,,,,,,,,,,,,,,,,,,,,,,,,,,,,,,,,,,,,,,,,,,,,,,,,,,,,,,,,,,,,,,,,,,,,,,,,,,,,,,,,,,,,,,
,,,,,,5b755869d5d7a80001b45a1e,62c538dfd1cad5ca791df9d8,2022-07-06_09h25.33.276,Colour_Asymmetry_Pilot,2022.1.3,Win32,60.24822268,62c50e9c1127f2cd403a315f,0,4,4,75,1,twofour,,,,,,,,,,,,,,,,,,,,,,,,,,,,,,,,,,,,,,,,,,,,,,,,,,,,,,,,,,,,,,,,,,,,,,,,,,,,,,,,,,,,,,,,,,,,,,,,,,,,,,,,,,,,,,,,,,,,,,,,,,,,,,,,,,,,,,,,,,,,,,,,,,,,,,,,,,,,,
,,,,,,5b755869d5d7a80001b45a1e,62c538dfd1cad5ca791df9d8,2022-07-06_09h25.33.276,Colour_Asymmetry_Pilot,2022.1.3,Win32,60.24822268,62c50e9c1127f2cd403a315f,0,5,5,29,1,threefour,,,,,,,,,,,,,,,,,,,,,,,,,,,,,,,,,,,,,,,,,,,,,,,,,,,,,,,,,,,,,,,,,,,,,,,,,,,,,,,,,,,,,,,,,,,,,,,,,,,,,,,,,,,,,,,,,,,,,,,,,,,,,,,,,,,,,,,,,,,,,,,,,,,,,,,,,,,,,
,,,,,,5b755869d5d7a80001b45a1e,62c538dfd1cad5ca791df9d8,2022-07-06_09h25.33.276,Colour_Asymmetry_Pilot,2022.1.3,Win32,60.24822268,62c50e9c1127f2cd403a315f,0,6,6,13,1,threefour,,,,,,,,,,,,,,,,,,,,,,,,,,,,,,,,,,,,,,,,,,,,,,,,,,,,,,,,,,,,,,,,,,,,,,,,,,,,,,,,,,,,,,,,,,,,,,,,,,,,,,,,,,,,,,,,,,,,,,,,,,,,,,,,,,,,,,,,,,,,,,,,,,,,,,,,,,,,,
,,,,,,5b755869d5d7a80001b45a1e,62c538dfd1cad5ca791df9d8,2022-07-06_09h25.33.276,Colour_Asymmetry_Pilot,2022.1.3,Win32,60.24822268,62c50e9c1127f2cd403a315f,0,7,7,156,1,threeone,,,,,,,,,,,,,,,,,,,,,,,,,,,,,,,,,,,,,,,,,,,,,,,,,,,,,,,,,,,,,,,,,,,,,,,,,,,,,,,,,,,,,,,,,,,,,,,,,,,,,,,,,,,,,,,,,,,,,,,,,,,,,,,,,,,,,,,,,,,,,,,,,,,,,,,,,,,,,
,,,,,,5b755869d5d7a80001b45a1e,62c538dfd1cad5ca791df9d8,2022-07-06_09h25.33.276,Colour_Asymmetry_Pilot,2022.1.3,Win32,60.24822268,62c50e9c1127f2cd403a315f,0,8,8,92,1,threeone,,,,,,,,,,,,,,,,,,,,,,,,,,,,,,,,,,,,,,,,,,,,,,,,,,,,,,,,,,,,,,,,,,,,,,,,,,,,,,,,,,,,,,,,,,,,,,,,,,,,,,,,,,,,,,,,,,,,,,,,,,,,,,,,,,,,,,,,,,,,,,,,,,,,,,,,,,,,,
,,,,,,5b755869d5d7a80001b45a1e,62c538dfd1cad5ca791df9d8,2022-07-06_09h25.33.276,Colour_Asymmetry_Pilot,2022.1.3,Win32,60.24822268,62c50e9c1127f2cd403a315f,0,9,9,139,1,twofour,,,,,,,,,,,,,,,,,,,,,,,,,,,,,,,,,,,,,,,,,,,,,,,,,,,,,,,,,,,,,,,,,,,,,,,,,,,,,,,,,,,,,,,,,,,,,,,,,,,,,,,,,,,,,,,,,,,,,,,,,,,,,,,,,,,,,,,,,,,,,,,,,,,,,,,,,,,,,
,,,,,,5b755869d5d7a80001b45a1e,62c538dfd1cad5ca791df9d8,2022-07-06_09h25.33.276,Colour_Asymmetry_Pilot,2022.1.3,Win32,60.24822268,62c50e9c1127f2cd403a315f,0,10,10,1,1,onethree,,,,,,,,,,,,,,,,,,,,,,,,,,,,,,,,,,,,,,,,,,,,,,,,,,,,,,,,,,,,,,,,,,,,,,,,,,,,,,,,,,,,,,,,,,,,,,,,,,,,,,,,,,,,,,,,,,,,,,,,,,,,,,,,,,,,,,,,,,,,,,,,,,,,,,,,,,,,,
,,,,,,5b755869d5d7a80001b45a1e,62c538dfd1cad5ca791df9d8,2022-07-06_09h25.33.276,Colour_Asymmetry_Pilot,2022.1.3,Win32,60.24822268,62c50e9c1127f2cd403a315f,0,11,11,135,1,fourthree,,,,,,,,,,,,,,,,,,,,,,,,,,,,,,,,,,,,,,,,,,,,,,,,,,,,,,,,,,,,,,,,,,,,,,,,,,,,,,,,,,,,,,,,,,,,,,,,,,,,,,,,,,,,,,,,,,,,,,,,,,,,,,,,,,,,,,,,,,,,,,,,,,,,,,,,,,,,,
,,,,,,5b755869d5d7a80001b45a1e,62c538dfd1cad5ca791df9d8,2022-07-06_09h25.33.276,Colour_Asymmetry_Pilot,2022.1.3,Win32,60.24822268,62c50e9c1127f2cd403a315f,0,12,12,67,1,twofour,,,,,,,,,,,,,,,,,,,,,,,,,,,,,,,,,,,,,,,,,,,,,,,,,,,,,,,,,,,,,,,,,,,,,,,,,,,,,,,,,,,,,,,,,,,,,,,,,,,,,,,,,,,,,,,,,,,,,,,,,,,,,,,,,,,,,,,,,,,,,,,,,,,,,,,,,,,,,
,,,,,,5b755869d5d7a80001b45a1e,62c538dfd1cad5ca791df9d8,2022-07-06_09h25.33.276,Colour_Asymmetry_Pilot,2022.1.3,Win32,60.24822268,62c50e9c1127f2cd403a315f,0,13,13,146,1,twoone,,,,,,,,,,,,,,,,,,,,,,,,,,,,,,,,,,,,,,,,,,,,,,,,,,,,,,,,,,,,,,,,,,,,,,,,,,,,,,,,,,,,,,,,,,,,,,,,,,,,,,,,,,,,,,,,,,,,,,,,,,,,,,,,,,,,,,,,,,,,,,,,,,,,,,,,,,,,,
,,,,,,5b755869d5d7a80001b45a1e,62c538dfd1cad5ca791df9d8,2022-07-06_09h25.33.276,Colour_Asymmetry_Pilot,2022.1.3,Win32,60.24822268,62c50e9c1127f2cd403a315f,0,14,14,38,1,fourtwo,,,,,,,,,,,,,,,,,,,,,,,,,,,,,,,,,,,,,,,,,,,,,,,,,,,,,,,,,,,,,,,,,,,,,,,,,,,,,,,,,,,,,,,,,,,,,,,,,,,,,,,,,,,,,,,,,,,,,,,,,,,,,,,,,,,,,,,,,,,,,,,,,,,,,,,,,,,,,
,,,,,,5b755869d5d7a80001b45a1e,62c538dfd1cad5ca791df9d8,2022-07-06_09h25.33.276,Colour_Asymmetry_Pilot,2022.1.3,Win32,60.24822268,62c50e9c1127f2cd403a315f,0,15,15,2,1,twoone,,,,,,,,,,,,,,,,,,,,,,,,,,,,,,,,,,,,,,,,,,,,,,,,,,,,,,,,,,,,,,,,,,,,,,,,,,,,,,,,,,,,,,,,,,,,,,,,,,,,,,,,,,,,,,,,,,,,,,,,,,,,,,,,,,,,,,,,,,,,,,,,,,,,,,,,,,,,,
,,,,,,5b755869d5d7a80001b45a1e,62c538dfd1cad5ca791df9d8,2022-07-06_09h25.33.276,Colour_Asymmetry_Pilot,2022.1.3,Win32,60.24822268,62c50e9c1127f2cd403a315f,0,16,16,52,1,threeone,,,,,,,,,,,,,,,,,,,,,,,,,,,,,,,,,,,,,,,,,,,,,,,,,,,,,,,,,,,,,,,,,,,,,,,,,,,,,,,,,,,,,,,,,,,,,,,,,,,,,,,,,,,,,,,,,,,,,,,,,,,,,,,,,,,,,,,,,,,,,,,,,,,,,,,,,,,,,
,,,,,,5b755869d5d7a80001b45a1e,62c538dfd1cad5ca791df9d8,2022-07-06_09h25.33.276,Colour_Asymmetry_Pilot,2022.1.3,Win32,60.24822268,62c50e9c1127f2cd403a315f,0,17,17,61,1,threefour,,,,,,,,,,,,,,,,,,,,,,,,,,,,,,,,,,,,,,,,,,,,,,,,,,,,,,,,,,,,,,,,,,,,,,,,,,,,,,,,,,,,,,,,,,,,,,,,,,,,,,,,,,,,,,,,,,,,,,,,,,,,,,,,,,,,,,,,,,,,,,,,,,,,,,,,,,,,,
,,,,,,5b755869d5d7a80001b45a1e,62c538dfd1cad5ca791df9d8,2022-07-06_09h25.33.276,Colour_Asymmetry_Pilot,2022.1.3,Win32,60.24822268,62c50e9c1127f2cd403a315f,0,18,18,153,1,onethree,,,,,,,,,,,,,,,,,,,,,,,,,,,,,,,,,,,,,,,,,,,,,,,,,,,,,,,,,,,,,,,,,,,,,,,,,,,,,,,,,,,,,,,,,,,,,,,,,,,,,,,,,,,,,,,,,,,,,,,,,,,,,,,,,,,,,,,,,,,,,,,,,,,,,,,,,,,,,
,,,,,,5b755869d5d7a80001b45a1e,62c538dfd1cad5ca791df9d8,2022-07-06_09h25.33.276,Colour_Asymmetry_Pilot,2022.1.3,Win32,60.24822268,62c50e9c1127f2cd403a315f,0,19,19,148,1,threeone,,,,,,,,,,,,,,,,,,,,,,,,,,,,,,,,,,,,,,,,,,,,,,,,,,,,,,,,,,,,,,,,,,,,,,,,,,,,,,,,,,,,,,,,,,,,,,,,,,,,,,,,,,,,,,,,,,,,,,,,,,,,,,,,,,,,,,,,,,,,,,,,,,,,,,,,,,,,,
,,,,,,5b755869d5d7a80001b45a1e,62c538dfd1cad5ca791df9d8,2022-07-06_09h25.33.276,Colour_Asymmetry_Pilot,2022.1.3,Win32,60.24822268,62c50e9c1127f2cd403a315f,0,20,20,130,1,twoone,,,,,,,,,,,,,,,,,,,,,,,,,,,,,,,,,,,,,,,,,,,,,,,,,,,,,,,,,,,,,,,,,,,,,,,,,,,,,,,,,,,,,,,,,,,,,,,,,,,,,,,,,,,,,,,,,,,,,,,,,,,,,,,,,,,,,,,,,,,,,,,,,,,,,,,,,,,,,
,,,,,,5b755869d5d7a80001b45a1e,62c538dfd1cad5ca791df9d8,2022-07-06_09h25.33.276,Colour_Asymmetry_Pilot,2022.1.3,Win32,60.24822268,62c50e9c1127f2cd403a315f,0,21,21,76,1,threeone,,,,,,,,,,,,,,,,,,,,,,,,,,,,,,,,,,,,,,,,,,,,,,,,,,,,,,,,,,,,,,,,,,,,,,,,,,,,,,,,,,,,,,,,,,,,,,,,,,,,,,,,,,,,,,,,,,,,,,,,,,,,,,,,,,,,,,,,,,,,,,,,,,,,,,,,,,,,,
,,,,,,5b755869d5d7a80001b45a1e,62c538dfd1cad5ca791df9d8,2022-07-06_09h25.33.276,Colour_Asymmetry_Pilot,2022.1.3,Win32,60.24822268,62c50e9c1127f2cd403a315f,0,22,22,105,1,onethree,,,,,,,,,,,,,,,,,,,,,,,,,,,,,,,,,,,,,,,,,,,,,,,,,,,,,,,,,,,,,,,,,,,,,,,,,,,,,,,,,,,,,,,,,,,,,,,,,,,,,,,,,,,,,,,,,,,,,,,,,,,,,,,,,,,,,,,,,,,,,,,,,,,,,,,,,,,,,
,,,,,,5b755869d5d7a80001b45a1e,62c538dfd1cad5ca791df9d8,2022-07-06_09h25.33.276,Colour_Asymmetry_Pilot,2022.1.3,Win32,60.24822268,62c50e9c1127f2cd403a315f,0,23,23,59,1,twofour,,,,,,,,,,,,,,,,,,,,,,,,,,,,,,,,,,,,,,,,,,,,,,,,,,,,,,,,,,,,,,,,,,,,,,,,,,,,,,,,,,,,,,,,,,,,,,,,,,,,,,,,,,,,,,,,,,,,,,,,,,,,,,,,,,,,,,,,,,,,,,,,,,,,,,,,,,,,,
,,,,,,5b755869d5d7a80001b45a1e,62c538dfd1cad5ca791df9d8,2022-07-06_09h25.33.276,Colour_Asymmetry_Pilot,2022.1.3,Win32,60.24822268,62c50e9c1127f2cd403a315f,0,24,24,3,1,twofour,,,,,,,,,,,,,,,,,,,,,,,,,,,,,,,,,,,,,,,,,,,,,,,,,,,,,,,,,,,,,,,,,,,,,,,,,,,,,,,,,,,,,,,,,,,,,,,,,,,,,,,,,,,,,,,,,,,,,,,,,,,,,,,,,,,,,,,,,,,,,,,,,,,,,,,,,,,,,
,,,,,,5b755869d5d7a80001b45a1e,62c538dfd1cad5ca791df9d8,2022-07-06_09h25.33.276,Colour_Asymmetry_Pilot,2022.1.3,Win32,60.24822268,62c50e9c1127f2cd403a315f,0,25,25,81,1,onethree,,,,,,,,,,,,,,,,,,,,,,,,,,,,,,,,,,,,,,,,,,,,,,,,,,,,,,,,,,,,,,,,,,,,,,,,,,,,,,,,,,,,,,,,,,,,,,,,,,,,,,,,,,,,,,,,,,,,,,,,,,,,,,,,,,,,,,,,,,,,,,,,,,,,,,,,,,,,,
,,,,,,5b755869d5d7a80001b45a1e,62c538dfd1cad5ca791df9d8,2022-07-06_09h25.33.276,Colour_Asymmetry_Pilot,2022.1.3,Win32,60.24822268,62c50e9c1127f2cd403a315f,0,26,26,151,1,fourthree,,,,,,,,,,,,,,,,,,,,,,,,,,,,,,,,,,,,,,,,,,,,,,,,,,,,,,,,,,,,,,,,,,,,,,,,,,,,,,,,,,,,,,,,,,,,,,,,,,,,,,,,,,,,,,,,,,,,,,,,,,,,,,,,,,,,,,,,,,,,,,,,,,,,,,,,,,,,,
,,,,,,5b755869d5d7a80001b45a1e,62c538dfd1cad5ca791df9d8,2022-07-06_09h25.33.276,Colour_Asymmetry_Pilot,2022.1.3,Win32,60.24822268,62c50e9c1127f2cd403a315f,0,27,27,37,1,threefour,,,,,,,,,,,,,,,,,,,,,,,,,,,,,,,,,,,,,,,,,,,,,,,,,,,,,,,,,,,,,,,,,,,,,,,,,,,,,,,,,,,,,,,,,,,,,,,,,,,,,,,,,,,,,,,,,,,,,,,,,,,,,,,,,,,,,,,,,,,,,,,,,,,,,,,,,,,,,
,,,,,,5b755869d5d7a80001b45a1e,62c538dfd1cad5ca791df9d8,2022-07-06_09h25.33.276,Colour_Asymmetry_Pilot,2022.1.3,Win32,60.24822268,62c50e9c1127f2cd403a315f,0,28,28,12,1,threeone,,,,,,,,,,,,,,,,,,,,,,,,,,,,,,,,,,,,,,,,,,,,,,,,,,,,,,,,,,,,,,,,,,,,,,,,,,,,,,,,,,,,,,,,,,,,,,,,,,,,,,,,,,,,,,,,,,,,,,,,,,,,,,,,,,,,,,,,,,,,,,,,,,,,,,,,,,,,,
,,,,,,5b755869d5d7a80001b45a1e,62c538dfd1cad5ca791df9d8,2022-07-06_09h25.33.276,Colour_Asymmetry_Pilot,2022.1.3,Win32,60.24822268,62c50e9c1127f2cd403a315f,0,29,29,159,1,fourthree,,,,,,,,,,,,,,,,,,,,,,,,,,,,,,,,,,,,,,,,,,,,,,,,,,,,,,,,,,,,,,,,,,,,,,,,,,,,,,,,,,,,,,,,,,,,,,,,,,,,,,,,,,,,,,,,,,,,,,,,,,,,,,,,,,,,,,,,,,,,,,,,,,,,,,,,,,,,,
,,,,,,5b755869d5d7a80001b45a1e,62c538dfd1cad5ca791df9d8,2022-07-06_09h25.33.276,Colour_Asymmetry_Pilot,2022.1.3,Win32,60.24822268,62c50e9c1127f2cd403a315f,0,30,30,69,1,threefour,,,,,,,,,,,,,,,,,,,,,,,,,,,,,,,,,,,,,,,,,,,,,,,,,,,,,,,,,,,,,,,,,,,,,,,,,,,,,,,,,,,,,,,,,,,,,,,,,,,,,,,,,,,,,,,,,,,,,,,,,,,,,,,,,,,,,,,,,,,,,,,,,,,,,,,,,,,,,
,,,,,,5b755869d5d7a80001b45a1e,62c538dfd1cad5ca791df9d8,2022-07-06_09h25.33.276,Colour_Asymmetry_Pilot,2022.1.3,Win32,60.24822268,62c50e9c1127f2cd403a315f,0,31,31,119,1,fourthree,,,,,,,,,,,,,,,,,,,,,,,,,,,,,,,,,,,,,,,,,,,,,,,,,,,,,,,,,,,,,,,,,,,,,,,,,,,,,,,,,,,,,,,,,,,,,,,,,,,,,,,,,,,,,,,,,,,,,,,,,,,,,,,,,,,,,,,,,,,,,,,,,,,,,,,,,,,,,
,,,,,,5b755869d5d7a80001b45a1e,62c538dfd1cad5ca791df9d8,2022-07-06_09h25.33.276,Colour_Asymmetry_Pilot,2022.1.3,Win32,60.24822268,62c50e9c1127f2cd403a315f,0,32,32,82,1,twoone,,,,,,,,,,,,,,,,,,,,,,,,,,,,,,,,,,,,,,,,,,,,,,,,,,,,,,,,,,,,,,,,,,,,,,,,,,,,,,,,,,,,,,,,,,,,,,,,,,,,,,,,,,,,,,,,,,,,,,,,,,,,,,,,,,,,,,,,,,,,,,,,,,,,,,,,,,,,,
,,,,,,5b755869d5d7a80001b45a1e,62c538dfd1cad5ca791df9d8,2022-07-06_09h25.33.276,Colour_Asymmetry_Pilot,2022.1.3,Win32,60.24822268,62c50e9c1127f2cd403a315f,0,33,33,143,1,fourthree,,,,,,,,,,,,,,,,,,,,,,,,,,,,,,,,,,,,,,,,,,,,,,,,,,,,,,,,,,,,,,,,,,,,,,,,,,,,,,,,,,,,,,,,,,,,,,,,,,,,,,,,,,,,,,,,,,,,,,,,,,,,,,,,,,,,,,,,,,,,,,,,,,,,,,,,,,,,,
,,,,,,5b755869d5d7a80001b45a1e,62c538dfd1cad5ca791df9d8,2022-07-06_09h25.33.276,Colour_Asymmetry_Pilot,2022.1.3,Win32,60.24822268,62c50e9c1127f2cd403a315f,0,34,34,32,1,onetwo,,,,,,,,,,,,,,,,,,,,,,,,,,,,,,,,,,,,,,,,,,,,,,,,,,,,,,,,,,,,,,,,,,,,,,,,,,,,,,,,,,,,,,,,,,,,,,,,,,,,,,,,,,,,,,,,,,,,,,,,,,,,,,,,,,,,,,,,,,,,,,,,,,,,,,,,,,,,,
,,,,,,5b755869d5d7a80001b45a1e,62c538dfd1cad5ca791df9d8,2022-07-06_09h25.33.276,Colour_Asymmetry_Pilot,2022.1.3,Win32,60.24822268,62c50e9c1127f2cd403a315f,0,35,35,63,1,fourthree,,,,,,,,,,,,,,,,,,,,,,,,,,,,,,,,,,,,,,,,,,,,,,,,,,,,,,,,,,,,,,,,,,,,,,,,,,,,,,,,,,,,,,,,,,,,,,,,,,,,,,,,,,,,,,,,,,,,,,,,,,,,,,,,,,,,,,,,,,,,,,,,,,,,,,,,,,,,,
,,,,,,5b755869d5d7a80001b45a1e,62c538dfd1cad5ca791df9d8,2022-07-06_09h25.33.276,Colour_Asymmetry_Pilot,2022.1.3,Win32,60.24822268,62c50e9c1127f2cd403a315f,0,36,36,101,1,threefour,,,,,,,,,,,,,,,,,,,,,,,,,,,,,,,,,,,,,,,,,,,,,,,,,,,,,,,,,,,,,,,,,,,,,,,,,,,,,,,,,,,,,,,,,,,,,,,,,,,,,,,,,,,,,,,,,,,,,,,,,,,,,,,,,,,,,,,,,,,,,,,,,,,,,,,,,,,,,
,,,,,,5b755869d5d7a80001b45a1e,62c538dfd1cad5ca791df9d8,2022-07-06_09h25.33.276,Colour_Asymmetry_Pilot,2022.1.3,Win32,60.24822268,62c50e9c1127f2cd403a315f,0,37,37,36,1,threeone,,,,,,,,,,,,,,,,,,,,,,,,,,,,,,,,,,,,,,,,,,,,,,,,,,,,,,,,,,,,,,,,,,,,,,,,,,,,,,,,,,,,,,,,,,,,,,,,,,,,,,,,,,,,,,,,,,,,,,,,,,,,,,,,,,,,,,,,,,,,,,,,,,,,,,,,,,,,,
,,,,,,5b755869d5d7a80001b45a1e,62c538dfd1cad5ca791df9d8,2022-07-06_09h25.33.276,Colour_Asymmetry_Pilot,2022.1.3,Win32,60.24822268,62c50e9c1127f2cd403a315f,0,38,38,58,1,twoone,,,,,,,,,,,,,,,,,,,,,,,,,,,,,,,,,,,,,,,,,,,,,,,,,,,,,,,,,,,,,,,,,,,,,,,,,,,,,,,,,,,,,,,,,,,,,,,,,,,,,,,,,,,,,,,,,,,,,,,,,,,,,,,,,,,,,,,,,,,,,,,,,,,,,,,,,,,,,
,,,,,,5b755869d5d7a80001b45a1e,62c538dfd1cad5ca791df9d8,2022-07-06_09h25.33.276,Colour_Asymmetry_Pilot,2022.1.3,Win32,60.24822268,62c50e9c1127f2cd403a315f,0,39,39,114,1,twoone,,,,,,,,,,,,,,,,,,,,,,,,,,,,,,,,,,,,,,,,,,,,,,,,,,,,,,,,,,,,,,,,,,,,,,,,,,,,,,,,,,,,,,,,,,,,,,,,,,,,,,,,,,,,,,,,,,,,,,,,,,,,,,,,,,,,,,,,,,,,,,,,,,,,,,,,,,,,,
,,,,,,5b755869d5d7a80001b45a1e,62c538dfd1cad5ca791df9d8,2022-07-06_09h25.33.276,Colour_Asymmetry_Pilot,2022.1.3,Win32,60.24822268,62c50e9c1127f2cd403a315f,0,40,40,113,1,onethree,,,,,,,,,,,,,,,,,,,,,,,,,,,,,,,,,,,,,,,,,,,,,,,,,,,,,,,,,,,,,,,,,,,,,,,,,,,,,,,,,,,,,,,,,,,,,,,,,,,,,,,,,,,,,,,,,,,,,,,,,,,,,,,,,,,,,,,,,,,,,,,,,,,,,,,,,,,,,
,,,,,,5b755869d5d7a80001b45a1e,62c538dfd1cad5ca791df9d8,2022-07-06_09h25.33.276,Colour_Asymmetry_Pilot,2022.1.3,Win32,60.24822268,62c50e9c1127f2cd403a315f,0,41,41,53,1,threefour,,,,,,,,,,,,,,,,,,,,,,,,,,,,,,,,,,,,,,,,,,,,,,,,,,,,,,,,,,,,,,,,,,,,,,,,,,,,,,,,,,,,,,,,,,,,,,,,,,,,,,,,,,,,,,,,,,,,,,,,,,,,,,,,,,,,,,,,,,,,,,,,,,,,,,,,,,,,,
,,,,,,5b755869d5d7a80001b45a1e,62c538dfd1cad5ca791df9d8,2022-07-06_09h25.33.276,Colour_Asymmetry_Pilot,2022.1.3,Win32,60.24822268,62c50e9c1127f2cd403a315f,0,42,42,107,1,twofour,,,,,,,,,,,,,,,,,,,,,,,,,,,,,,,,,,,,,,,,,,,,,,,,,,,,,,,,,,,,,,,,,,,,,,,,,,,,,,,,,,,,,,,,,,,,,,,,,,,,,,,,,,,,,,,,,,,,,,,,,,,,,,,,,,,,,,,,,,,,,,,,,,,,,,,,,,,,,
,,,,,,5b755869d5d7a80001b45a1e,62c538dfd1cad5ca791df9d8,2022-07-06_09h25.33.276,Colour_Asymmetry_Pilot,2022.1.3,Win32,60.24822268,62c50e9c1127f2cd403a315f,0,43,43,95,1,fourthree,,,,,,,,,,,,,,,,,,,,,,,,,,,,,,,,,,,,,,,,,,,,,,,,,,,,,,,,,,,,,,,,,,,,,,,,,,,,,,,,,,,,,,,,,,,,,,,,,,,,,,,,,,,,,,,,,,,,,,,,,,,,,,,,,,,,,,,,,,,,,,,,,,,,,,,,,,,,,
,,,,,,5b755869d5d7a80001b45a1e,62c538dfd1cad5ca791df9d8,2022-07-06_09h25.33.276,Colour_Asymmetry_Pilot,2022.1.3,Win32,60.24822268,62c50e9c1127f2cd403a315f,0,44,44,160,1,onetwo,,,,,,,,,,,,,,,,,,,,,,,,,,,,,,,,,,,,,,,,,,,,,,,,,,,,,,,,,,,,,,,,,,,,,,,,,,,,,,,,,,,,,,,,,,,,,,,,,,,,,,,,,,,,,,,,,,,,,,,,,,,,,,,,,,,,,,,,,,,,,,,,,,,,,,,,,,,,,
,,,,,,5b755869d5d7a80001b45a1e,62c538dfd1cad5ca791df9d8,2022-07-06_09h25.33.276,Colour_Asymmetry_Pilot,2022.1.3,Win32,60.24822268,62c50e9c1127f2cd403a315f,0,45,45,154,1,twoone,,,,,,,,,,,,,,,,,,,,,,,,,,,,,,,,,,,,,,,,,,,,,,,,,,,,,,,,,,,,,,,,,,,,,,,,,,,,,,,,,,,,,,,,,,,,,,,,,,,,,,,,,,,,,,,,,,,,,,,,,,,,,,,,,,,,,,,,,,,,,,,,,,,,,,,,,,,,,
,,,,,,5b755869d5d7a80001b45a1e,62c538dfd1cad5ca791df9d8,2022-07-06_09h25.33.276,Colour_Asymmetry_Pilot,2022.1.3,Win32,60.24822268,62c50e9c1127f2cd403a315f,0,46,46,112,1,onetwo,,,,,,,,,,,,,,,,,,,,,,,,,,,,,,,,,,,,,,,,,,,,,,,,,,,,,,,,,,,,,,,,,,,,,,,,,,,,,,,,,,,,,,,,,,,,,,,,,,,,,,,,,,,,,,,,,,,,,,,,,,,,,,,,,,,,,,,,,,,,,,,,,,,,,,,,,,,,,
,,,,,,5b755869d5d7a80001b45a1e,62c538dfd1cad5ca791df9d8,2022-07-06_09h25.33.276,Colour_Asymmetry_Pilot,2022.1.3,Win32,60.24822268,62c50e9c1127f2cd403a315f,0,47,47,65,1,onethree,,,,,,,,,,,,,,,,,,,,,,,,,,,,,,,,,,,,,,,,,,,,,,,,,,,,,,,,,,,,,,,,,,,,,,,,,,,,,,,,,,,,,,,,,,,,,,,,,,,,,,,,,,,,,,,,,,,,,,,,,,,,,,,,,,,,,,,,,,,,,,,,,,,,,,,,,,,,,
,,,,,,5b755869d5d7a80001b45a1e,62c538dfd1cad5ca791df9d8,2022-07-06_09h25.33.276,Colour_Asymmetry_Pilot,2022.1.3,Win32,60.24822268,62c50e9c1127f2cd403a315f,0,48,48,8,1,onetwo,,,,,,,,,,,,,,,,,,,,,,,,,,,,,,,,,,,,,,,,,,,,,,,,,,,,,,,,,,,,,,,,,,,,,,,,,,,,,,,,,,,,,,,,,,,,,,,,,,,,,,,,,,,,,,,,,,,,,,,,,,,,,,,,,,,,,,,,,,,,,,,,,,,,,,,,,,,,,
,,,,,,5b755869d5d7a80001b45a1e,62c538dfd1cad5ca791df9d8,2022-07-06_09h25.33.276,Colour_Asymmetry_Pilot,2022.1.3,Win32,60.24822268,62c50e9c1127f2cd403a315f,0,49,49,5,1,threefour,,,,,,,,,,,,,,,,,,,,,,,,,,,,,,,,,,,,,,,,,,,,,,,,,,,,,,,,,,,,,,,,,,,,,,,,,,,,,,,,,,,,,,,,,,,,,,,,,,,,,,,,,,,,,,,,,,,,,,,,,,,,,,,,,,,,,,,,,,,,,,,,,,,,,,,,,,,,,
,,,,,,5b755869d5d7a80001b45a1e,62c538dfd1cad5ca791df9d8,2022-07-06_09h25.33.276,Colour_Asymmetry_Pilot,2022.1.3,Win32,60.24822268,62c50e9c1127f2cd403a315f,0,50,50,111,1,fourthree,,,,,,,,,,,,,,,,,,,,,,,,,,,,,,,,,,,,,,,,,,,,,,,,,,,,,,,,,,,,,,,,,,,,,,,,,,,,,,,,,,,,,,,,,,,,,,,,,,,,,,,,,,,,,,,,,,,,,,,,,,,,,,,,,,,,,,,,,,,,,,,,,,,,,,,,,,,,,
,,,,,,5b755869d5d7a80001b45a1e,62c538dfd1cad5ca791df9d8,2022-07-06_09h25.33.276,Colour_Asymmetry_Pilot,2022.1.3,Win32,60.24822268,62c50e9c1127f2cd403a315f,0,51,51,43,1,twofour,,,,,,,,,,,,,,,,,,,,,,,,,,,,,,,,,,,,,,,,,,,,,,,,,,,,,,,,,,,,,,,,,,,,,,,,,,,,,,,,,,,,,,,,,,,,,,,,,,,,,,,,,,,,,,,,,,,,,,,,,,,,,,,,,,,,,,,,,,,,,,,,,,,,,,,,,,,,,
,,,,,,5b755869d5d7a80001b45a1e,62c538dfd1cad5ca791df9d8,2022-07-06_09h25.33.276,Colour_Asymmetry_Pilot,2022.1.3,Win32,60.24822268,62c50e9c1127f2cd403a315f,0,52,52,149,1,threefour,,,,,,,,,,,,,,,,,,,,,,,,,,,,,,,,,,,,,,,,,,,,,,,,,,,,,,,,,,,,,,,,,,,,,,,,,,,,,,,,,,,,,,,,,,,,,,,,,,,,,,,,,,,,,,,,,,,,,,,,,,,,,,,,,,,,,,,,,,,,,,,,,,,,,,,,,,,,,
,,,,,,5b755869d5d7a80001b45a1e,62c538dfd1cad5ca791df9d8,2022-07-06_09h25.33.276,Colour_Asymmetry_Pilot,2022.1.3,Win32,60.24822268,62c50e9c1127f2cd403a315f,0,53,53,90,1,twoone,,,,,,,,,,,,,,,,,,,,,,,,,,,,,,,,,,,,,,,,,,,,,,,,,,,,,,,,,,,,,,,,,,,,,,,,,,,,,,,,,,,,,,,,,,,,,,,,,,,,,,,,,,,,,,,,,,,,,,,,,,,,,,,,,,,,,,,,,,,,,,,,,,,,,,,,,,,,,
,,,,,,5b755869d5d7a80001b45a1e,62c538dfd1cad5ca791df9d8,2022-07-06_09h25.33.276,Colour_Asymmetry_Pilot,2022.1.3,Win32,60.24822268,62c50e9c1127f2cd403a315f,0,54,54,57,1,onethree,,,,,,,,,,,,,,,,,,,,,,,,,,,,,,,,,,,,,,,,,,,,,,,,,,,,,,,,,,,,,,,,,,,,,,,,,,,,,,,,,,,,,,,,,,,,,,,,,,,,,,,,,,,,,,,,,,,,,,,,,,,,,,,,,,,,,,,,,,,,,,,,,,,,,,,,,,,,,
,,,,,,5b755869d5d7a80001b45a1e,62c538dfd1cad5ca791df9d8,2022-07-06_09h25.33.276,Colour_Asymmetry_Pilot,2022.1.3,Win32,60.24822268,62c50e9c1127f2cd403a315f,0,55,55,4,1,threeone,,,,,,,,,,,,,,,,,,,,,,,,,,,,,,,,,,,,,,,,,,,,,,,,,,,,,,,,,,,,,,,,,,,,,,,,,,,,,,,,,,,,,,,,,,,,,,,,,,,,,,,,,,,,,,,,,,,,,,,,,,,,,,,,,,,,,,,,,,,,,,,,,,,,,,,,,,,,,
,,,,,,5b755869d5d7a80001b45a1e,62c538dfd1cad5ca791df9d8,2022-07-06_09h25.33.276,Colour_Asymmetry_Pilot,2022.1.3,Win32,60.24822268,62c50e9c1127f2cd403a315f,0,56,56,71,1,fourthree,,,,,,,,,,,,,,,,,,,,,,,,,,,,,,,,,,,,,,,,,,,,,,,,,,,,,,,,,,,,,,,,,,,,,,,,,,,,,,,,,,,,,,,,,,,,,,,,,,,,,,,,,,,,,,,,,,,,,,,,,,,,,,,,,,,,,,,,,,,,,,,,,,,,,,,,,,,,,
,,,,,,5b755869d5d7a80001b45a1e,62c538dfd1cad5ca791df9d8,2022-07-06_09h25.33.276,Colour_Asymmetry_Pilot,2022.1.3,Win32,60.24822268,62c50e9c1127f2cd403a315f,0,57,57,51,1,twofour,,,,,,,,,,,,,,,,,,,,,,,,,,,,,,,,,,,,,,,,,,,,,,,,,,,,,,,,,,,,,,,,,,,,,,,,,,,,,,,,,,,,,,,,,,,,,,,,,,,,,,,,,,,,,,,,,,,,,,,,,,,,,,,,,,,,,,,,,,,,,,,,,,,,,,,,,,,,,
,,,,,,5b755869d5d7a80001b45a1e,62c538dfd1cad5ca791df9d8,2022-07-06_09h25.33.276,Colour_Asymmetry_Pilot,2022.1.3,Win32,60.24822268,62c50e9c1127f2cd403a315f,0,58,58,93,1,threefour,,,,,,,,,,,,,,,,,,,,,,,,,,,,,,,,,,,,,,,,,,,,,,,,,,,,,,,,,,,,,,,,,,,,,,,,,,,,,,,,,,,,,,,,,,,,,,,,,,,,,,,,,,,,,,,,,,,,,,,,,,,,,,,,,,,,,,,,,,,,,,,,,,,,,,,,,,,,,
,,,,,,5b755869d5d7a80001b45a1e,62c538dfd1cad5ca791df9d8,2022-07-06_09h25.33.276,Colour_Asymmetry_Pilot,2022.1.3,Win32,60.24822268,62c50e9c1127f2cd403a315f,0,59,59,20,1,threeone,,,,,,,,,,,,,,,,,,,,,,,,,,,,,,,,,,,,,,,,,,,,,,,,,,,,,,,,,,,,,,,,,,,,,,,,,,,,,,,,,,,,,,,,,,,,,,,,,,,,,,,,,,,,,,,,,,,,,,,,,,,,,,,,,,,,,,,,,,,,,,,,,,,,,,,,,,,,,
,,,,,,5b755869d5d7a80001b45a1e,62c538dfd1cad5ca791df9d8,2022-07-06_09h25.33.276,Colour_Asymmetry_Pilot,2022.1.3,Win32,60.24822268,62c50e9c1127f2cd403a315f,0,60,60,48,1,onetwo,,,,,,,,,,,,,,,,,,,,,,,,,,,,,,,,,,,,,,,,,,,,,,,,,,,,,,,,,,,,,,,,,,,,,,,,,,,,,,,,,,,,,,,,,,,,,,,,,,,,,,,,,,,,,,,,,,,,,,,,,,,,,,,,,,,,,,,,,,,,,,,,,,,,,,,,,,,,,
,,,,,,5b755869d5d7a80001b45a1e,62c538dfd1cad5ca791df9d8,2022-07-06_09h25.33.276,Colour_Asymmetry_Pilot,2022.1.3,Win32,60.24822268,62c50e9c1127f2cd403a315f,0,61,61,108,1,threeone,,,,,,,,,,,,,,,,,,,,,,,,,,,,,,,,,,,,,,,,,,,,,,,,,,,,,,,,,,,,,,,,,,,,,,,,,,,,,,,,,,,,,,,,,,,,,,,,,,,,,,,,,,,,,,,,,,,,,,,,,,,,,,,,,,,,,,,,,,,,,,,,,,,,,,,,,,,,,
,,,,,,5b755869d5d7a80001b45a1e,62c538dfd1cad5ca791df9d8,2022-07-06_09h25.33.276,Colour_Asymmetry_Pilot,2022.1.3,Win32,60.24822268,62c50e9c1127f2cd403a315f,0,62,62,30,1,fourtwo,,,,,,,,,,,,,,,,,,,,,,,,,,,,,,,,,,,,,,,,,,,,,,,,,,,,,,,,,,,,,,,,,,,,,,,,,,,,,,,,,,,,,,,,,,,,,,,,,,,,,,,,,,,,,,,,,,,,,,,,,,,,,,,,,,,,,,,,,,,,,,,,,,,,,,,,,,,,,
,,,,,,5b755869d5d7a80001b45a1e,62c538dfd1cad5ca791df9d8,2022-07-06_09h25.33.276,Colour_Asymmetry_Pilot,2022.1.3,Win32,60.24822268,62c50e9c1127f2cd403a315f,0,63,63,42,1,twoone,,,,,,,,,,,,,,,,,,,,,,,,,,,,,,,,,,,,,,,,,,,,,,,,,,,,,,,,,,,,,,,,,,,,,,,,,,,,,,,,,,,,,,,,,,,,,,,,,,,,,,,,,,,,,,,,,,,,,,,,,,,,,,,,,,,,,,,,,,,,,,,,,,,,,,,,,,,,,
,,,,,,5b755869d5d7a80001b45a1e,62c538dfd1cad5ca791df9d8,2022-07-06_09h25.33.276,Colour_Asymmetry_Pilot,2022.1.3,Win32,60.24822268,62c50e9c1127f2cd403a315f,0,64,64,70,1,fourtwo,,,,,,,,,,,,,,,,,,,,,,,,,,,,,,,,,,,,,,,,,,,,,,,,,,,,,,,,,,,,,,,,,,,,,,,,,,,,,,,,,,,,,,,,,,,,,,,,,,,,,,,,,,,,,,,,,,,,,,,,,,,,,,,,,,,,,,,,,,,,,,,,,,,,,,,,,,,,,
,,,,,,5b755869d5d7a80001b45a1e,62c538dfd1cad5ca791df9d8,2022-07-06_09h25.33.276,Colour_Asymmetry_Pilot,2022.1.3,Win32,60.24822268,62c50e9c1127f2cd403a315f,0,65,65,35,1,twofour,,,,,,,,,,,,,,,,,,,,,,,,,,,,,,,,,,,,,,,,,,,,,,,,,,,,,,,,,,,,,,,,,,,,,,,,,,,,,,,,,,,,,,,,,,,,,,,,,,,,,,,,,,,,,,,,,,,,,,,,,,,,,,,,,,,,,,,,,,,,,,,,,,,,,,,,,,,,,
,,,,,,5b755869d5d7a80001b45a1e,62c538dfd1cad5ca791df9d8,2022-07-06_09h25.33.276,Colour_Asymmetry_Pilot,2022.1.3,Win32,60.24822268,62c50e9c1127f2cd403a315f,0,66,66,25,1,onethree,,,,,,,,,,,,,,,,,,,,,,,,,,,,,,,,,,,,,,,,,,,,,,,,,,,,,,,,,,,,,,,,,,,,,,,,,,,,,,,,,,,,,,,,,,,,,,,,,,,,,,,,,,,,,,,,,,,,,,,,,,,,,,,,,,,,,,,,,,,,,,,,,,,,,,,,,,,,,
,,,,,,5b755869d5d7a80001b45a1e,62c538dfd1cad5ca791df9d8,2022-07-06_09h25.33.276,Colour_Asymmetry_Pilot,2022.1.3,Win32,60.24822268,62c50e9c1127f2cd403a315f,0,67,67,33,1,onethree,,,,,,,,,,,,,,,,,,,,,,,,,,,,,,,,,,,,,,,,,,,,,,,,,,,,,,,,,,,,,,,,,,,,,,,,,,,,,,,,,,,,,,,,,,,,,,,,,,,,,,,,,,,,,,,,,,,,,,,,,,,,,,,,,,,,,,,,,,,,,,,,,,,,,,,,,,,,,
,,,,,,5b755869d5d7a80001b45a1e,62c538dfd1cad5ca791df9d8,2022-07-06_09h25.33.276,Colour_Asymmetry_Pilot,2022.1.3,Win32,60.24822268,62c50e9c1127f2cd403a315f,0,68,68,34,1,twoone,,,,,,,,,,,,,,,,,,,,,,,,,,,,,,,,,,,,,,,,,,,,,,,,,,,,,,,,,,,,,,,,,,,,,,,,,,,,,,,,,,,,,,,,,,,,,,,,,,,,,,,,,,,,,,,,,,,,,,,,,,,,,,,,,,,,,,,,,,,,,,,,,,,,,,,,,,,,,
,,,,,,5b755869d5d7a80001b45a1e,62c538dfd1cad5ca791df9d8,2022-07-06_09h25.33.276,Colour_Asymmetry_Pilot,2022.1.3,Win32,60.24822268,62c50e9c1127f2cd403a315f,0,69,69,28,1,threeone,,,,,,,,,,,,,,,,,,,,,,,,,,,,,,,,,,,,,,,,,,,,,,,,,,,,,,,,,,,,,,,,,,,,,,,,,,,,,,,,,,,,,,,,,,,,,,,,,,,,,,,,,,,,,,,,,,,,,,,,,,,,,,,,,,,,,,,,,,,,,,,,,,,,,,,,,,,,,
,,,,,,5b755869d5d7a80001b45a1e,62c538dfd1cad5ca791df9d8,2022-07-06_09h25.33.276,Colour_Asymmetry_Pilot,2022.1.3,Win32,60.24822268,62c50e9c1127f2cd403a315f,0,70,70,115,1,twofour,,,,,,,,,,,,,,,,,,,,,,,,,,,,,,,,,,,,,,,,,,,,,,,,,,,,,,,,,,,,,,,,,,,,,,,,,,,,,,,,,,,,,,,,,,,,,,,,,,,,,,,,,,,,,,,,,,,,,,,,,,,,,,,,,,,,,,,,,,,,,,,,,,,,,,,,,,,,,
,,,,,,5b755869d5d7a80001b45a1e,62c538dfd1cad5ca791df9d8,2022-07-06_09h25.33.276,Colour_Asymmetry_Pilot,2022.1.3,Win32,60.24822268,62c50e9c1127f2cd403a315f,0,71,71,121,1,onethree,,,,,,,,,,,,,,,,,,,,,,,,,,,,,,,,,,,,,,,,,,,,,,,,,,,,,,,,,,,,,,,,,,,,,,,,,,,,,,,,,,,,,,,,,,,,,,,,,,,,,,,,,,,,,,,,,,,,,,,,,,,,,,,,,,,,,,,,,,,,,,,,,,,,,,,,,,,,,
,,,,,,5b755869d5d7a80001b45a1e,62c538dfd1cad5ca791df9d8,2022-07-06_09h25.33.276,Colour_Asymmetry_Pilot,2022.1.3,Win32,60.24822268,62c50e9c1127f2cd403a315f,0,72,72,96,1,onetwo,,,,,,,,,,,,,,,,,,,,,,,,,,,,,,,,,,,,,,,,,,,,,,,,,,,,,,,,,,,,,,,,,,,,,,,,,,,,,,,,,,,,,,,,,,,,,,,,,,,,,,,,,,,,,,,,,,,,,,,,,,,,,,,,,,,,,,,,,,,,,,,,,,,,,,,,,,,,,
,,,,,,5b755869d5d7a80001b45a1e,62c538dfd1cad5ca791df9d8,2022-07-06_09h25.33.276,Colour_Asymmetry_Pilot,2022.1.3,Win32,60.24822268,62c50e9c1127f2cd403a315f,0,73,73,80,1,onetwo,,,,,,,,,,,,,,,,,,,,,,,,,,,,,,,,,,,,,,,,,,,,,,,,,,,,,,,,,,,,,,,,,,,,,,,,,,,,,,,,,,,,,,,,,,,,,,,,,,,,,,,,,,,,,,,,,,,,,,,,,,,,,,,,,,,,,,,,,,,,,,,,,,,,,,,,,,,,,
,,,,,,5b755869d5d7a80001b45a1e,62c538dfd1cad5ca791df9d8,2022-07-06_09h25.33.276,Colour_Asymmetry_Pilot,2022.1.3,Win32,60.24822268,62c50e9c1127f2cd403a315f,0,74,74,66,1,twoone,,,,,,,,,,,,,,,,,,,,,,,,,,,,,,,,,,,,,,,,,,,,,,,,,,,,,,,,,,,,,,,,,,,,,,,,,,,,,,,,,,,,,,,,,,,,,,,,,,,,,,,,,,,,,,,,,,,,,,,,,,,,,,,,,,,,,,,,,,,,,,,,,,,,,,,,,,,,,
,,,,,,5b755869d5d7a80001b45a1e,62c538dfd1cad5ca791df9d8,2022-07-06_09h25.33.276,Colour_Asymmetry_Pilot,2022.1.3,Win32,60.24822268,62c50e9c1127f2cd403a315f,0,75,75,73,1,onethree,,,,,,,,,,,,,,,,,,,,,,,,,,,,,,,,,,,,,,,,,,,,,,,,,,,,,,,,,,,,,,,,,,,,,,,,,,,,,,,,,,,,,,,,,,,,,,,,,,,,,,,,,,,,,,,,,,,,,,,,,,,,,,,,,,,,,,,,,,,,,,,,,,,,,,,,,,,,,
,,,,,,5b755869d5d7a80001b45a1e,62c538dfd1cad5ca791df9d8,2022-07-06_09h25.33.276,Colour_Asymmetry_Pilot,2022.1.3,Win32,60.24822268,62c50e9c1127f2cd403a315f,0,76,76,54,1,fourtwo,,,,,,,,,,,,,,,,,,,,,,,,,,,,,,,,,,,,,,,,,,,,,,,,,,,,,,,,,,,,,,,,,,,,,,,,,,,,,,,,,,,,,,,,,,,,,,,,,,,,,,,,,,,,,,,,,,,,,,,,,,,,,,,,,,,,,,,,,,,,,,,,,,,,,,,,,,,,,
,,,,,,5b755869d5d7a80001b45a1e,62c538dfd1cad5ca791df9d8,2022-07-06_09h25.33.276,Colour_Asymmetry_Pilot,2022.1.3,Win32,60.24822268,62c50e9c1127f2cd403a315f,0,77,77,6,1,fourtwo,,,,,,,,,,,,,,,,,,,,,,,,,,,,,,,,,,,,,,,,,,,,,,,,,,,,,,,,,,,,,,,,,,,,,,,,,,,,,,,,,,,,,,,,,,,,,,,,,,,,,,,,,,,,,,,,,,,,,,,,,,,,,,,,,,,,,,,,,,,,,,,,,,,,,,,,,,,,,
,,,,,,5b755869d5d7a80001b45a1e,62c538dfd1cad5ca791df9d8,2022-07-06_09h25.33.276,Colour_Asymmetry_Pilot,2022.1.3,Win32,60.24822268,62c50e9c1127f2cd403a315f,0,78,78,21,1,threefour,,,,,,,,,,,,,,,,,,,,,,,,,,,,,,,,,,,,,,,,,,,,,,,,,,,,,,,,,,,,,,,,,,,,,,,,,,,,,,,,,,,,,,,,,,,,,,,,,,,,,,,,,,,,,,,,,,,,,,,,,,,,,,,,,,,,,,,,,,,,,,,,,,,,,,,,,,,,,
,,,,,,5b755869d5d7a80001b45a1e,62c538dfd1cad5ca791df9d8,2022-07-06_09h25.33.276,Colour_Asymmetry_Pilot,2022.1.3,Win32,60.24822268,62c50e9c1127f2cd403a315f,0,79,79,79,1,fourthree,,,,,,,,,,,,,,,,,,,,,,,,,,,,,,,,,,,,,,,,,,,,,,,,,,,,,,,,,,,,,,,,,,,,,,,,,,,,,,,,,,,,,,,,,,,,,,,,,,,,,,,,,,,,,,,,,,,,,,,,,,,,,,,,,,,,,,,,,,,,,,,,,,,,,,,,,,,,,
,,,,,,5b755869d5d7a80001b45a1e,62c538dfd1cad5ca791df9d8,2022-07-06_09h25.33.276,Colour_Asymmetry_Pilot,2022.1.3,Win32,60.24822268,62c50e9c1127f2cd403a315f,0,80,80,83,1,twofour,,,,,,,,,,,,,,,,,,,,,,,,,,,,,,,,,,,,,,,,,,,,,,,,,,,,,,,,,,,,,,,,,,,,,,,,,,,,,,,,,,,,,,,,,,,,,,,,,,,,,,,,,,,,,,,,,,,,,,,,,,,,,,,,,,,,,,,,,,,,,,,,,,,,,,,,,,,,,
,,,,,,5b755869d5d7a80001b45a1e,62c538dfd1cad5ca791df9d8,2022-07-06_09h25.33.276,Colour_Asymmetry_Pilot,2022.1.3,Win32,60.24822268,62c50e9c1127f2cd403a315f,0,81,81,144,1,onetwo,,,,,,,,,,,,,,,,,,,,,,,,,,,,,,,,,,,,,,,,,,,,,,,,,,,,,,,,,,,,,,,,,,,,,,,,,,,,,,,,,,,,,,,,,,,,,,,,,,,,,,,,,,,,,,,,,,,,,,,,,,,,,,,,,,,,,,,,,,,,,,,,,,,,,,,,,,,,,
,,,,,,5b755869d5d7a80001b45a1e,62c538dfd1cad5ca791df9d8,2022-07-06_09h25.33.276,Colour_Asymmetry_Pilot,2022.1.3,Win32,60.24822268,62c50e9c1127f2cd403a315f,0,82,82,122,1,twoone,,,,,,,,,,,,,,,,,,,,,,,,,,,,,,,,,,,,,,,,,,,,,,,,,,,,,,,,,,,,,,,,,,,,,,,,,,,,,,,,,,,,,,,,,,,,,,,,,,,,,,,,,,,,,,,,,,,,,,,,,,,,,,,,,,,,,,,,,,,,,,,,,,,,,,,,,,,,,
,,,,,,5b755869d5d7a80001b45a1e,62c538dfd1cad5ca791df9d8,2022-07-06_09h25.33.276,Colour_Asymmetry_Pilot,2022.1.3,Win32,60.24822268,62c50e9c1127f2cd403a315f,0,83,83,31,1,fourthree,,,,,,,,,,,,,,,,,,,,,,,,,,,,,,,,,,,,,,,,,,,,,,,,,,,,,,,,,,,,,,,,,,,,,,,,,,,,,,,,,,,,,,,,,,,,,,,,,,,,,,,,,,,,,,,,,,,,,,,,,,,,,,,,,,,,,,,,,,,,,,,,,,,,,,,,,,,,,
,,,,,,5b755869d5d7a80001b45a1e,62c538dfd1cad5ca791df9d8,2022-07-06_09h25.33.276,Colour_Asymmetry_Pilot,2022.1.3,Win32,60.24822268,62c50e9c1127f2cd403a315f,0,84,84,133,1,threefour,,,,,,,,,,,,,,,,,,,,,,,,,,,,,,,,,,,,,,,,,,,,,,,,,,,,,,,,,,,,,,,,,,,,,,,,,,,,,,,,,,,,,,,,,,,,,,,,,,,,,,,,,,,,,,,,,,,,,,,,,,,,,,,,,,,,,,,,,,,,,,,,,,,,,,,,,,,,,
,,,,,,5b755869d5d7a80001b45a1e,62c538dfd1cad5ca791df9d8,2022-07-06_09h25.33.276,Colour_Asymmetry_Pilot,2022.1.3,Win32,60.24822268,62c50e9c1127f2cd403a315f,0,85,85,47,1,fourthree,,,,,,,,,,,,,,,,,,,,,,,,,,,,,,,,,,,,,,,,,,,,,,,,,,,,,,,,,,,,,,,,,,,,,,,,,,,,,,,,,,,,,,,,,,,,,,,,,,,,,,,,,,,,,,,,,,,,,,,,,,,,,,,,,,,,,,,,,,,,,,,,,,,,,,,,,,,,,
,,,,,,5b755869d5d7a80001b45a1e,62c538dfd1cad5ca791df9d8,2022-07-06_09h25.33.276,Colour_Asymmetry_Pilot,2022.1.3,Win32,60.24822268,62c50e9c1127f2cd403a315f,0,86,86,134,1,fourtwo,,,,,,,,,,,,,,,,,,,,,,,,,,,,,,,,,,,,,,,,,,,,,,,,,,,,,,,,,,,,,,,,,,,,,,,,,,,,,,,,,,,,,,,,,,,,,,,,,,,,,,,,,,,,,,,,,,,,,,,,,,,,,,,,,,,,,,,,,,,,,,,,,,,,,,,,,,,,,
,,,,,,5b755869d5d7a80001b45a1e,62c538dfd1cad5ca791df9d8,2022-07-06_09h25.33.276,Colour_Asymmetry_Pilot,2022.1.3,Win32,60.24822268,62c50e9c1127f2cd403a315f,0,87,87,136,1,onetwo,,,,,,,,,,,,,,,,,,,,,,,,,,,,,,,,,,,,,,,,,,,,,,,,,,,,,,,,,,,,,,,,,,,,,,,,,,,,,,,,,,,,,,,,,,,,,,,,,,,,,,,,,,,,,,,,,,,,,,,,,,,,,,,,,,,,,,,,,,,,,,,,,,,,,,,,,,,,,
,,,,,,5b755869d5d7a80001b45a1e,62c538dfd1cad5ca791df9d8,2022-07-06_09h25.33.276,Colour_Asymmetry_Pilot,2022.1.3,Win32,60.24822268,62c50e9c1127f2cd403a315f,0,88,88,100,1,threeone,,,,,,,,,,,,,,,,,,,,,,,,,,,,,,,,,,,,,,,,,,,,,,,,,,,,,,,,,,,,,,,,,,,,,,,,,,,,,,,,,,,,,,,,,,,,,,,,,,,,,,,,,,,,,,,,,,,,,,,,,,,,,,,,,,,,,,,,,,,,,,,,,,,,,,,,,,,,,
,,,,,,5b755869d5d7a80001b45a1e,62c538dfd1cad5ca791df9d8,2022-07-06_09h25.33.276,Colour_Asymmetry_Pilot,2022.1.3,Win32,60.24822268,62c50e9c1127f2cd403a315f,0,89,89,56,1,onetwo,,,,,,,,,,,,,,,,,,,,,,,,,,,,,,,,,,,,,,,,,,,,,,,,,,,,,,,,,,,,,,,,,,,,,,,,,,,,,,,,,,,,,,,,,,,,,,,,,,,,,,,,,,,,,,,,,,,,,,,,,,,,,,,,,,,,,,,,,,,,,,,,,,,,,,,,,,,,,
,,,,,,5b755869d5d7a80001b45a1e,62c538dfd1cad5ca791df9d8,2022-07-06_09h25.33.276,Colour_Asymmetry_Pilot,2022.1.3,Win32,60.24822268,62c50e9c1127f2cd403a315f,0,90,90,155,1,twofour,,,,,,,,,,,,,,,,,,,,,,,,,,,,,,,,,,,,,,,,,,,,,,,,,,,,,,,,,,,,,,,,,,,,,,,,,,,,,,,,,,,,,,,,,,,,,,,,,,,,,,,,,,,,,,,,,,,,,,,,,,,,,,,,,,,,,,,,,,,,,,,,,,,,,,,,,,,,,
,,,,,,5b755869d5d7a80001b45a1e,62c538dfd1cad5ca791df9d8,2022-07-06_09h25.33.276,Colour_Asymmetry_Pilot,2022.1.3,Win32,60.24822268,62c50e9c1127f2cd403a315f,0,91,91,98,1,twoone,,,,,,,,,,,,,,,,,,,,,,,,,,,,,,,,,,,,,,,,,,,,,,,,,,,,,,,,,,,,,,,,,,,,,,,,,,,,,,,,,,,,,,,,,,,,,,,,,,,,,,,,,,,,,,,,,,,,,,,,,,,,,,,,,,,,,,,,,,,,,,,,,,,,,,,,,,,,,
,,,,,,5b755869d5d7a80001b45a1e,62c538dfd1cad5ca791df9d8,2022-07-06_09h25.33.276,Colour_Asymmetry_Pilot,2022.1.3,Win32,60.24822268,62c50e9c1127f2cd403a315f,0,92,92,10,1,twoone,,,,,,,,,,,,,,,,,,,,,,,,,,,,,,,,,,,,,,,,,,,,,,,,,,,,,,,,,,,,,,,,,,,,,,,,,,,,,,,,,,,,,,,,,,,,,,,,,,,,,,,,,,,,,,,,,,,,,,,,,,,,,,,,,,,,,,,,,,,,,,,,,,,,,,,,,,,,,
,,,,,,5b755869d5d7a80001b45a1e,62c538dfd1cad5ca791df9d8,2022-07-06_09h25.33.276,Colour_Asymmetry_Pilot,2022.1.3,Win32,60.24822268,62c50e9c1127f2cd403a315f,0,93,93,55,1,fourthree,,,,,,,,,,,,,,,,,,,,,,,,,,,,,,,,,,,,,,,,,,,,,,,,,,,,,,,,,,,,,,,,,,,,,,,,,,,,,,,,,,,,,,,,,,,,,,,,,,,,,,,,,,,,,,,,,,,,,,,,,,,,,,,,,,,,,,,,,,,,,,,,,,,,,,,,,,,,,
,,,,,,5b755869d5d7a80001b45a1e,62c538dfd1cad5ca791df9d8,2022-07-06_09h25.33.276,Colour_Asymmetry_Pilot,2022.1.3,Win32,60.24822268,62c50e9c1127f2cd403a315f,0,94,94,102,1,fourtwo,,,,,,,,,,,,,,,,,,,,,,,,,,,,,,,,,,,,,,,,,,,,,,,,,,,,,,,,,,,,,,,,,,,,,,,,,,,,,,,,,,,,,,,,,,,,,,,,,,,,,,,,,,,,,,,,,,,,,,,,,,,,,,,,,,,,,,,,,,,,,,,,,,,,,,,,,,,,,
,,,,,,5b755869d5d7a80001b45a1e,62c538dfd1cad5ca791df9d8,2022-07-06_09h25.33.276,Colour_Asymmetry_Pilot,2022.1.3,Win32,60.24822268,62c50e9c1127f2cd403a315f,0,95,95,72,1,onetwo,,,,,,,,,,,,,,,,,,,,,,,,,,,,,,,,,,,,,,,,,,,,,,,,,,,,,,,,,,,,,,,,,,,,,,,,,,,,,,,,,,,,,,,,,,,,,,,,,,,,,,,,,,,,,,,,,,,,,,,,,,,,,,,,,,,,,,,,,,,,,,,,,,,,,,,,,,,,,
,,,,,,5b755869d5d7a80001b45a1e,62c538dfd1cad5ca791df9d8,2022-07-06_09h25.33.276,Colour_Asymmetry_Pilot,2022.1.3,Win32,60.24822268,62c50e9c1127f2cd403a315f,0,96,96,23,1,fourthree,,,,,,,,,,,,,,,,,,,,,,,,,,,,,,,,,,,,,,,,,,,,,,,,,,,,,,,,,,,,,,,,,,,,,,,,,,,,,,,,,,,,,,,,,,,,,,,,,,,,,,,,,,,,,,,,,,,,,,,,,,,,,,,,,,,,,,,,,,,,,,,,,,,,,,,,,,,,,
,,,,,,5b755869d5d7a80001b45a1e,62c538dfd1cad5ca791df9d8,2022-07-06_09h25.33.276,Colour_Asymmetry_Pilot,2022.1.3,Win32,60.24822268,62c50e9c1127f2cd403a315f,0,97,97,68,1,threeone,,,,,,,,,,,,,,,,,,,,,,,,,,,,,,,,,,,,,,,,,,,,,,,,,,,,,,,,,,,,,,,,,,,,,,,,,,,,,,,,,,,,,,,,,,,,,,,,,,,,,,,,,,,,,,,,,,,,,,,,,,,,,,,,,,,,,,,,,,,,,,,,,,,,,,,,,,,,,
,,,,,,5b755869d5d7a80001b45a1e,62c538dfd1cad5ca791df9d8,2022-07-06_09h25.33.276,Colour_Asymmetry_Pilot,2022.1.3,Win32,60.24822268,62c50e9c1127f2cd403a315f,0,98,98,116,1,threeone,,,,,,,,,,,,,,,,,,,,,,,,,,,,,,,,,,,,,,,,,,,,,,,,,,,,,,,,,,,,,,,,,,,,,,,,,,,,,,,,,,,,,,,,,,,,,,,,,,,,,,,,,,,,,,,,,,,,,,,,,,,,,,,,,,,,,,,,,,,,,,,,,,,,,,,,,,,,,
,,,,,,5b755869d5d7a80001b45a1e,62c538dfd1cad5ca791df9d8,2022-07-06_09h25.33.276,Colour_Asymmetry_Pilot,2022.1.3,Win32,60.24822268,62c50e9c1127f2cd403a315f,0,99,99,110,1,fourtwo,,,,,,,,,,,,,,,,,,,,,,,,,,,,,,,,,,,,,,,,,,,,,,,,,,,,,,,,,,,,,,,,,,,,,,,,,,,,,,,,,,,,,,,,,,,,,,,,,,,,,,,,,,,,,,,,,,,,,,,,,,,,,,,,,,,,,,,,,,,,,,,,,,,,,,,,,,,,,
,,,,,,5b755869d5d7a80001b45a1e,62c538dfd1cad5ca791df9d8,2022-07-06_09h25.33.276,Colour_Asymmetry_Pilot,2022.1.3,Win32,60.24822268,62c50e9c1127f2cd403a315f,0,100,100,15,1,fourthree,,,,,,,,,,,,,,,,,,,,,,,,,,,,,,,,,,,,,,,,,,,,,,,,,,,,,,,,,,,,,,,,,,,,,,,,,,,,,,,,,,,,,,,,,,,,,,,,,,,,,,,,,,,,,,,,,,,,,,,,,,,,,,,,,,,,,,,,,,,,,,,,,,,,,,,,,,,,,
,,,,,,5b755869d5d7a80001b45a1e,62c538dfd1cad5ca791df9d8,2022-07-06_09h25.33.276,Colour_Asymmetry_Pilot,2022.1.3,Win32,60.24822268,62c50e9c1127f2cd403a315f,0,101,101,120,1,onetwo,,,,,,,,,,,,,,,,,,,,,,,,,,,,,,,,,,,,,,,,,,,,,,,,,,,,,,,,,,,,,,,,,,,,,,,,,,,,,,,,,,,,,,,,,,,,,,,,,,,,,,,,,,,,,,,,,,,,,,,,,,,,,,,,,,,,,,,,,,,,,,,,,,,,,,,,,,,,,
,,,,,,5b755869d5d7a80001b45a1e,62c538dfd1cad5ca791df9d8,2022-07-06_09h25.33.276,Colour_Asymmetry_Pilot,2022.1.3,Win32,60.24822268,62c50e9c1127f2cd403a315f,0,102,102,27,1,twofour,,,,,,,,,,,,,,,,,,,,,,,,,,,,,,,,,,,,,,,,,,,,,,,,,,,,,,,,,,,,,,,,,,,,,,,,,,,,,,,,,,,,,,,,,,,,,,,,,,,,,,,,,,,,,,,,,,,,,,,,,,,,,,,,,,,,,,,,,,,,,,,,,,,,,,,,,,,,,
,,,,,,5b755869d5d7a80001b45a1e,62c538dfd1cad5ca791df9d8,2022-07-06_09h25.33.276,Colour_Asymmetry_Pilot,2022.1.3,Win32,60.24822268,62c50e9c1127f2cd403a315f,0,103,103,142,1,fourtwo,,,,,,,,,,,,,,,,,,,,,,,,,,,,,,,,,,,,,,,,,,,,,,,,,,,,,,,,,,,,,,,,,,,,,,,,,,,,,,,,,,,,,,,,,,,,,,,,,,,,,,,,,,,,,,,,,,,,,,,,,,,,,,,,,,,,,,,,,,,,,,,,,,,,,,,,,,,,,
,,,,,,5b755869d5d7a80001b45a1e,62c538dfd1cad5ca791df9d8,2022-07-06_09h25.33.276,Colour_Asymmetry_Pilot,2022.1.3,Win32,60.24822268,62c50e9c1127f2cd403a315f,0,104,104,158,1,fourtwo,,,,,,,,,,,,,,,,,,,,,,,,,,,,,,,,,,,,,,,,,,,,,,,,,,,,,,,,,,,,,,,,,,,,,,,,,,,,,,,,,,,,,,,,,,,,,,,,,,,,,,,,,,,,,,,,,,,,,,,,,,,,,,,,,,,,,,,,,,,,,,,,,,,,,,,,,,,,,
,,,,,,5b755869d5d7a80001b45a1e,62c538dfd1cad5ca791df9d8,2022-07-06_09h25.33.276,Colour_Asymmetry_Pilot,2022.1.3,Win32,60.24822268,62c50e9c1127f2cd403a315f,0,105,105,141,1,threefour,,,,,,,,,,,,,,,,,,,,,,,,,,,,,,,,,,,,,,,,,,,,,,,,,,,,,,,,,,,,,,,,,,,,,,,,,,,,,,,,,,,,,,,,,,,,,,,,,,,,,,,,,,,,,,,,,,,,,,,,,,,,,,,,,,,,,,,,,,,,,,,,,,,,,,,,,,,,,
,,,,,,5b755869d5d7a80001b45a1e,62c538dfd1cad5ca791df9d8,2022-07-06_09h25.33.276,Colour_Asymmetry_Pilot,2022.1.3,Win32,60.24822268,62c50e9c1127f2cd403a315f,0,106,106,40,1,onetwo,,,,,,,,,,,,,,,,,,,,,,,,,,,,,,,,,,,,,,,,,,,,,,,,,,,,,,,,,,,,,,,,,,,,,,,,,,,,,,,,,,,,,,,,,,,,,,,,,,,,,,,,,,,,,,,,,,,,,,,,,,,,,,,,,,,,,,,,,,,,,,,,,,,,,,,,,,,,,
,,,,,,5b755869d5d7a80001b45a1e,62c538dfd1cad5ca791df9d8,2022-07-06_09h25.33.276,Colour_Asymmetry_Pilot,2022.1.3,Win32,60.24822268,62c50e9c1127f2cd403a315f,0,107,107,125,1,threefour,,,,,,,,,,,,,,,,,,,,,,,,,,,,,,,,,,,,,,,,,,,,,,,,,,,,,,,,,,,,,,,,,,,,,,,,,,,,,,,,,,,,,,,,,,,,,,,,,,,,,,,,,,,,,,,,,,,,,,,,,,,,,,,,,,,,,,,,,,,,,,,,,,,,,,,,,,,,,
,,,,,,5b755869d5d7a80001b45a1e,62c538dfd1cad5ca791df9d8,2022-07-06_09h25.33.276,Colour_Asymmetry_Pilot,2022.1.3,Win32,60.24822268,62c50e9c1127f2cd403a315f,0,108,108,64,1,onetwo,,,,,,,,,,,,,,,,,,,,,,,,,,,,,,,,,,,,,,,,,,,,,,,,,,,,,,,,,,,,,,,,,,,,,,,,,,,,,,,,,,,,,,,,,,,,,,,,,,,,,,,,,,,,,,,,,,,,,,,,,,,,,,,,,,,,,,,,,,,,,,,,,,,,,,,,,,,,,
,,,,,,5b755869d5d7a80001b45a1e,62c538dfd1cad5ca791df9d8,2022-07-06_09h25.33.276,Colour_Asymmetry_Pilot,2022.1.3,Win32,60.24822268,62c50e9c1127f2cd403a315f,0,109,109,0,1,onetwo,,,,,,,,,,,,,,,,,,,,,,,,,,,,,,,,,,,,,,,,,,,,,,,,,,,,,,,,,,,,,,,,,,,,,,,,,,,,,,,,,,,,,,,,,,,,,,,,,,,,,,,,,,,,,,,,,,,,,,,,,,,,,,,,,,,,,,,,,,,,,,,,,,,,,,,,,,,,,
,,,,,,5b755869d5d7a80001b45a1e,62c538dfd1cad5ca791df9d8,2022-07-06_09h25.33.276,Colour_Asymmetry_Pilot,2022.1.3,Win32,60.24822268,62c50e9c1127f2cd403a315f,0,110,110,9,1,onethree,,,,,,,,,,,,,,,,,,,,,,,,,,,,,,,,,,,,,,,,,,,,,,,,,,,,,,,,,,,,,,,,,,,,,,,,,,,,,,,,,,,,,,,,,,,,,,,,,,,,,,,,,,,,,,,,,,,,,,,,,,,,,,,,,,,,,,,,,,,,,,,,,,,,,,,,,,,,,
,,,,,,5b755869d5d7a80001b45a1e,62c538dfd1cad5ca791df9d8,2022-07-06_09h25.33.276,Colour_Asymmetry_Pilot,2022.1.3,Win32,60.24822268,62c50e9c1127f2cd403a315f,0,111,111,22,1,fourtwo,,,,,,,,,,,,,,,,,,,,,,,,,,,,,,,,,,,,,,,,,,,,,,,,,,,,,,,,,,,,,,,,,,,,,,,,,,,,,,,,,,,,,,,,,,,,,,,,,,,,,,,,,,,,,,,,,,,,,,,,,,,,,,,,,,,,,,,,,,,,,,,,,,,,,,,,,,,,,
,,,,,,5b755869d5d7a80001b45a1e,62c538dfd1cad5ca791df9d8,2022-07-06_09h25.33.276,Colour_Asymmetry_Pilot,2022.1.3,Win32,60.24822268,62c50e9c1127f2cd403a315f,0,112,112,14,1,fourtwo,,,,,,,,,,,,,,,,,,,,,,,,,,,,,,,,,,,,,,,,,,,,,,,,,,,,,,,,,,,,,,,,,,,,,,,,,,,,,,,,,,,,,,,,,,,,,,,,,,,,,,,,,,,,,,,,,,,,,,,,,,,,,,,,,,,,,,,,,,,,,,,,,,,,,,,,,,,,,
,,,,,,5b755869d5d7a80001b45a1e,62c538dfd1cad5ca791df9d8,2022-07-06_09h25.33.276,Colour_Asymmetry_Pilot,2022.1.3,Win32,60.24822268,62c50e9c1127f2cd403a315f,0,113,113,147,1,twofour,,,,,,,,,,,,,,,,,,,,,,,,,,,,,,,,,,,,,,,,,,,,,,,,,,,,,,,,,,,,,,,,,,,,,,,,,,,,,,,,,,,,,,,,,,,,,,,,,,,,,,,,,,,,,,,,,,,,,,,,,,,,,,,,,,,,,,,,,,,,,,,,,,,,,,,,,,,,,
,,,,,,5b755869d5d7a80001b45a1e,62c538dfd1cad5ca791df9d8,2022-07-06_09h25.33.276,Colour_Asymmetry_Pilot,2022.1.3,Win32,60.24822268,62c50e9c1127f2cd403a315f,0,114,114,152,1,onetwo,,,,,,,,,,,,,,,,,,,,,,,,,,,,,,,,,,,,,,,,,,,,,,,,,,,,,,,,,,,,,,,,,,,,,,,,,,,,,,,,,,,,,,,,,,,,,,,,,,,,,,,,,,,,,,,,,,,,,,,,,,,,,,,,,,,,,,,,,,,,,,,,,,,,,,,,,,,,,
,,,,,,5b755869d5d7a80001b45a1e,62c538dfd1cad5ca791df9d8,2022-07-06_09h25.33.276,Colour_Asymmetry_Pilot,2022.1.3,Win32,60.24822268,62c50e9c1127f2cd403a315f,0,115,115,26,1,twoone,,,,,,,,,,,,,,,,,,,,,,,,,,,,,,,,,,,,,,,,,,,,,,,,,,,,,,,,,,,,,,,,,,,,,,,,,,,,,,,,,,,,,,,,,,,,,,,,,,,,,,,,,,,,,,,,,,,,,,,,,,,,,,,,,,,,,,,,,,,,,,,,,,,,,,,,,,,,,
,,,,,,5b755869d5d7a80001b45a1e,62c538dfd1cad5ca791df9d8,2022-07-06_09h25.33.276,Colour_Asymmetry_Pilot,2022.1.3,Win32,60.24822268,62c50e9c1127f2cd403a315f,0,116,116,137,1,onethree,,,,,,,,,,,,,,,,,,,,,,,,,,,,,,,,,,,,,,,,,,,,,,,,,,,,,,,,,,,,,,,,,,,,,,,,,,,,,,,,,,,,,,,,,,,,,,,,,,,,,,,,,,,,,,,,,,,,,,,,,,,,,,,,,,,,,,,,,,,,,,,,,,,,,,,,,,,,,
,,,,,,5b755869d5d7a80001b45a1e,62c538dfd1cad5ca791df9d8,2022-07-06_09h25.33.276,Colour_Asymmetry_Pilot,2022.1.3,Win32,60.24822268,62c50e9c1127f2cd403a315f,0,117,117,138,1,twoone,,,,,,,,,,,,,,,,,,,,,,,,,,,,,,,,,,,,,,,,,,,,,,,,,,,,,,,,,,,,,,,,,,,,,,,,,,,,,,,,,,,,,,,,,,,,,,,,,,,,,,,,,,,,,,,,,,,,,,,,,,,,,,,,,,,,,,,,,,,,,,,,,,,,,,,,,,,,,
,,,,,,5b755869d5d7a80001b45a1e,62c538dfd1cad5ca791df9d8,2022-07-06_09h25.33.276,Colour_Asymmetry_Pilot,2022.1.3,Win32,60.24822268,62c50e9c1127f2cd403a315f,0,118,118,46,1,fourtwo,,,,,,,,,,,,,,,,,,,,,,,,,,,,,,,,,,,,,,,,,,,,,,,,,,,,,,,,,,,,,,,,,,,,,,,,,,,,,,,,,,,,,,,,,,,,,,,,,,,,,,,,,,,,,,,,,,,,,,,,,,,,,,,,,,,,,,,,,,,,,,,,,,,,,,,,,,,,,
,,,,,,5b755869d5d7a80001b45a1e,62c538dfd1cad5ca791df9d8,2022-07-06_09h25.33.276,Colour_Asymmetry_Pilot,2022.1.3,Win32,60.24822268,62c50e9c1127f2cd403a315f,0,119,119,18,1,twoone,,,,,,,,,,,,,,,,,,,,,,,,,,,,,,,,,,,,,,,,,,,,,,,,,,,,,,,,,,,,,,,,,,,,,,,,,,,,,,,,,,,,,,,,,,,,,,,,,,,,,,,,,,,,,,,,,,,,,,,,,,,,,,,,,,,,,,,,,,,,,,,,,,,,,,,,,,,,,
,,,,,,5b755869d5d7a80001b45a1e,62c538dfd1cad5ca791df9d8,2022-07-06_09h25.33.276,Colour_Asymmetry_Pilot,2022.1.3,Win32,60.24822268,62c50e9c1127f2cd403a315f,0,120,120,41,1,onethree,,,,,,,,,,,,,,,,,,,,,,,,,,,,,,,,,,,,,,,,,,,,,,,,,,,,,,,,,,,,,,,,,,,,,,,,,,,,,,,,,,,,,,,,,,,,,,,,,,,,,,,,,,,,,,,,,,,,,,,,,,,,,,,,,,,,,,,,,,,,,,,,,,,,,,,,,,,,,
,,,,,,5b755869d5d7a80001b45a1e,62c538dfd1cad5ca791df9d8,2022-07-06_09h25.33.276,Colour_Asymmetry_Pilot,2022.1.3,Win32,60.24822268,62c50e9c1127f2cd403a315f,0,121,121,145,1,onethree,,,,,,,,,,,,,,,,,,,,,,,,,,,,,,,,,,,,,,,,,,,,,,,,,,,,,,,,,,,,,,,,,,,,,,,,,,,,,,,,,,,,,,,,,,,,,,,,,,,,,,,,,,,,,,,,,,,,,,,,,,,,,,,,,,,,,,,,,,,,,,,,,,,,,,,,,,,,,
,,,,,,5b755869d5d7a80001b45a1e,62c538dfd1cad5ca791df9d8,2022-07-06_09h25.33.276,Colour_Asymmetry_Pilot,2022.1.3,Win32,60.24822268,62c50e9c1127f2cd403a315f,0,122,122,91,1,twofour,,,,,,,,,,,,,,,,,,,,,,,,,,,,,,,,,,,,,,,,,,,,,,,,,,,,,,,,,,,,,,,,,,,,,,,,,,,,,,,,,,,,,,,,,,,,,,,,,,,,,,,,,,,,,,,,,,,,,,,,,,,,,,,,,,,,,,,,,,,,,,,,,,,,,,,,,,,,,
,,,,,,5b755869d5d7a80001b45a1e,62c538dfd1cad5ca791df9d8,2022-07-06_09h25.33.276,Colour_Asymmetry_Pilot,2022.1.3,Win32,60.24822268,62c50e9c1127f2cd403a315f,0,123,123,118,1,fourtwo,,,,,,,,,,,,,,,,,,,,,,,,,,,,,,,,,,,,,,,,,,,,,,,,,,,,,,,,,,,,,,,,,,,,,,,,,,,,,,,,,,,,,,,,,,,,,,,,,,,,,,,,,,,,,,,,,,,,,,,,,,,,,,,,,,,,,,,,,,,,,,,,,,,,,,,,,,,,,
,,,,,,5b755869d5d7a80001b45a1e,62c538dfd1cad5ca791df9d8,2022-07-06_09h25.33.276,Colour_Asymmetry_Pilot,2022.1.3,Win32,60.24822268,62c50e9c1127f2cd403a315f,0,124,124,19,1,twofour,,,,,,,,,,,,,,,,,,,,,,,,,,,,,,,,,,,,,,,,,,,,,,,,,,,,,,,,,,,,,,,,,,,,,,,,,,,,,,,,,,,,,,,,,,,,,,,,,,,,,,,,,,,,,,,,,,,,,,,,,,,,,,,,,,,,,,,,,,,,,,,,,,,,,,,,,,,,,
,,,,,,5b755869d5d7a80001b45a1e,62c538dfd1cad5ca791df9d8,2022-07-06_09h25.33.276,Colour_Asymmetry_Pilot,2022.1.3,Win32,60.24822268,62c50e9c1127f2cd403a315f,0,125,125,62,1,fourtwo,,,,,,,,,,,,,,,,,,,,,,,,,,,,,,,,,,,,,,,,,,,,,,,,,,,,,,,,,,,,,,,,,,,,,,,,,,,,,,,,,,,,,,,,,,,,,,,,,,,,,,,,,,,,,,,,,,,,,,,,,,,,,,,,,,,,,,,,,,,,,,,,,,,,,,,,,,,,,
,,,,,,5b755869d5d7a80001b45a1e,62c538dfd1cad5ca791df9d8,2022-07-06_09h25.33.276,Colour_Asymmetry_Pilot,2022.1.3,Win32,60.24822268,62c50e9c1127f2cd403a315f,0,126,126,24,1,onetwo,,,,,,,,,,,,,,,,,,,,,,,,,,,,,,,,,,,,,,,,,,,,,,,,,,,,,,,,,,,,,,,,,,,,,,,,,,,,,,,,,,,,,,,,,,,,,,,,,,,,,,,,,,,,,,,,,,,,,,,,,,,,,,,,,,,,,,,,,,,,,,,,,,,,,,,,,,,,,
,,,,,,5b755869d5d7a80001b45a1e,62c538dfd1cad5ca791df9d8,2022-07-06_09h25.33.276,Colour_Asymmetry_Pilot,2022.1.3,Win32,60.24822268,62c50e9c1127f2cd403a315f,0,127,127,85,1,threefour,,,,,,,,,,,,,,,,,,,,,,,,,,,,,,,,,,,,,,,,,,,,,,,,,,,,,,,,,,,,,,,,,,,,,,,,,,,,,,,,,,,,,,,,,,,,,,,,,,,,,,,,,,,,,,,,,,,,,,,,,,,,,,,,,,,,,,,,,,,,,,,,,,,,,,,,,,,,,
,,,,,,5b755869d5d7a80001b45a1e,62c538dfd1cad5ca791df9d8,2022-07-06_09h25.33.276,Colour_Asymmetry_Pilot,2022.1.3,Win32,60.24822268,62c50e9c1127f2cd403a315f,0,128,128,127,1,fourthree,,,,,,,,,,,,,,,,,,,,,,,,,,,,,,,,,,,,,,,,,,,,,,,,,,,,,,,,,,,,,,,,,,,,,,,,,,,,,,,,,,,,,,,,,,,,,,,,,,,,,,,,,,,,,,,,,,,,,,,,,,,,,,,,,,,,,,,,,,,,,,,,,,,,,,,,,,,,,
,,,,,,5b755869d5d7a80001b45a1e,62c538dfd1cad5ca791df9d8,2022-07-06_09h25.33.276,Colour_Asymmetry_Pilot,2022.1.3,Win32,60.24822268,62c50e9c1127f2cd403a315f,0,129,129,97,1,onethree,,,,,,,,,,,,,,,,,,,,,,,,,,,,,,,,,,,,,,,,,,,,,,,,,,,,,,,,,,,,,,,,,,,,,,,,,,,,,,,,,,,,,,,,,,,,,,,,,,,,,,,,,,,,,,,,,,,,,,,,,,,,,,,,,,,,,,,,,,,,,,,,,,,,,,,,,,,,,
,,,,,,5b755869d5d7a80001b45a1e,62c538dfd1cad5ca791df9d8,2022-07-06_09h25.33.276,Colour_Asymmetry_Pilot,2022.1.3,Win32,60.24822268,62c50e9c1127f2cd403a315f,0,130,130,104,1,onetwo,,,,,,,,,,,,,,,,,,,,,,,,,,,,,,,,,,,,,,,,,,,,,,,,,,,,,,,,,,,,,,,,,,,,,,,,,,,,,,,,,,,,,,,,,,,,,,,,,,,,,,,,,,,,,,,,,,,,,,,,,,,,,,,,,,,,,,,,,,,,,,,,,,,,,,,,,,,,,
,,,,,,5b755869d5d7a80001b45a1e,62c538dfd1cad5ca791df9d8,2022-07-06_09h25.33.276,Colour_Asymmetry_Pilot,2022.1.3,Win32,60.24822268,62c50e9c1127f2cd403a315f,0,131,131,124,1,threeone,,,,,,,,,,,,,,,,,,,,,,,,,,,,,,,,,,,,,,,,,,,,,,,,,,,,,,,,,,,,,,,,,,,,,,,,,,,,,,,,,,,,,,,,,,,,,,,,,,,,,,,,,,,,,,,,,,,,,,,,,,,,,,,,,,,,,,,,,,,,,,,,,,,,,,,,,,,,,
,,,,,,5b755869d5d7a80001b45a1e,62c538dfd1cad5ca791df9d8,2022-07-06_09h25.33.276,Colour_Asymmetry_Pilot,2022.1.3,Win32,60.24822268,62c50e9c1127f2cd403a315f,0,132,132,117,1,threefour,,,,,,,,,,,,,,,,,,,,,,,,,,,,,,,,,,,,,,,,,,,,,,,,,,,,,,,,,,,,,,,,,,,,,,,,,,,,,,,,,,,,,,,,,,,,,,,,,,,,,,,,,,,,,,,,,,,,,,,,,,,,,,,,,,,,,,,,,,,,,,,,,,,,,,,,,,,,,
,,,,,,5b755869d5d7a80001b45a1e,62c538dfd1cad5ca791df9d8,2022-07-06_09h25.33.276,Colour_Asymmetry_Pilot,2022.1.3,Win32,60.24822268,62c50e9c1127f2cd403a315f,0,133,133,77,1,threefour,,,,,,,,,,,,,,,,,,,,,,,,,,,,,,,,,,,,,,,,,,,,,,,,,,,,,,,,,,,,,,,,,,,,,,,,,,,,,,,,,,,,,,,,,,,,,,,,,,,,,,,,,,,,,,,,,,,,,,,,,,,,,,,,,,,,,,,,,,,,,,,,,,,,,,,,,,,,,
,,,,,,5b755869d5d7a80001b45a1e,62c538dfd1cad5ca791df9d8,2022-07-06_09h25.33.276,Colour_Asymmetry_Pilot,2022.1.3,Win32,60.24822268,62c50e9c1127f2cd403a315f,0,134,134,132,1,threeone,,,,,,,,,,,,,,,,,,,,,,,,,,,,,,,,,,,,,,,,,,,,,,,,,,,,,,,,,,,,,,,,,,,,,,,,,,,,,,,,,,,,,,,,,,,,,,,,,,,,,,,,,,,,,,,,,,,,,,,,,,,,,,,,,,,,,,,,,,,,,,,,,,,,,,,,,,,,,
,,,,,,5b755869d5d7a80001b45a1e,62c538dfd1cad5ca791df9d8,2022-07-06_09h25.33.276,Colour_Asymmetry_Pilot,2022.1.3,Win32,60.24822268,62c50e9c1127f2cd403a315f,0,135,135,123,1,twofour,,,,,,,,,,,,,,,,,,,,,,,,,,,,,,,,,,,,,,,,,,,,,,,,,,,,,,,,,,,,,,,,,,,,,,,,,,,,,,,,,,,,,,,,,,,,,,,,,,,,,,,,,,,,,,,,,,,,,,,,,,,,,,,,,,,,,,,,,,,,,,,,,,,,,,,,,,,,,
,,,,,,5b755869d5d7a80001b45a1e,62c538dfd1cad5ca791df9d8,2022-07-06_09h25.33.276,Colour_Asymmetry_Pilot,2022.1.3,Win32,60.24822268,62c50e9c1127f2cd403a315f,0,136,136,157,1,threefour,,,,,,,,,,,,,,,,,,,,,,,,,,,,,,,,,,,,,,,,,,,,,,,,,,,,,,,,,,,,,,,,,,,,,,,,,,,,,,,,,,,,,,,,,,,,,,,,,,,,,,,,,,,,,,,,,,,,,,,,,,,,,,,,,,,,,,,,,,,,,,,,,,,,,,,,,,,,,
,,,,,,5b755869d5d7a80001b45a1e,62c538dfd1cad5ca791df9d8,2022-07-06_09h25.33.276,Colour_Asymmetry_Pilot,2022.1.3,Win32,60.24822268,62c50e9c1127f2cd403a315f,0,137,137,50,1,twoone,,,,,,,,,,,,,,,,,,,,,,,,,,,,,,,,,,,,,,,,,,,,,,,,,,,,,,,,,,,,,,,,,,,,,,,,,,,,,,,,,,,,,,,,,,,,,,,,,,,,,,,,,,,,,,,,,,,,,,,,,,,,,,,,,,,,,,,,,,,,,,,,,,,,,,,,,,,,,
,,,,,,5b755869d5d7a80001b45a1e,62c538dfd1cad5ca791df9d8,2022-07-06_09h25.33.276,Colour_Asymmetry_Pilot,2022.1.3,Win32,60.24822268,62c50e9c1127f2cd403a315f,0,138,138,99,1,twofour,,,,,,,,,,,,,,,,,,,,,,,,,,,,,,,,,,,,,,,,,,,,,,,,,,,,,,,,,,,,,,,,,,,,,,,,,,,,,,,,,,,,,,,,,,,,,,,,,,,,,,,,,,,,,,,,,,,,,,,,,,,,,,,,,,,,,,,,,,,,,,,,,,,,,,,,,,,,,
,,,,,,5b755869d5d7a80001b45a1e,62c538dfd1cad5ca791df9d8,2022-07-06_09h25.33.276,Colour_Asymmetry_Pilot,2022.1.3,Win32,60.24822268,62c50e9c1127f2cd403a315f,0,139,139,44,1,threeone,,,,,,,,,,,,,,,,,,,,,,,,,,,,,,,,,,,,,,,,,,,,,,,,,,,,,,,,,,,,,,,,,,,,,,,,,,,,,,,,,,,,,,,,,,,,,,,,,,,,,,,,,,,,,,,,,,,,,,,,,,,,,,,,,,,,,,,,,,,,,,,,,,,,,,,,,,,,,
,,,,,,5b755869d5d7a80001b45a1e,62c538dfd1cad5ca791df9d8,2022-07-06_09h25.33.276,Colour_Asymmetry_Pilot,2022.1.3,Win32,60.24822268,62c50e9c1127f2cd403a315f,0,140,140,7,1,fourthree,,,,,,,,,,,,,,,,,,,,,,,,,,,,,,,,,,,,,,,,,,,,,,,,,,,,,,,,,,,,,,,,,,,,,,,,,,,,,,,,,,,,,,,,,,,,,,,,,,,,,,,,,,,,,,,,,,,,,,,,,,,,,,,,,,,,,,,,,,,,,,,,,,,,,,,,,,,,,
,,,,,,5b755869d5d7a80001b45a1e,62c538dfd1cad5ca791df9d8,2022-07-06_09h25.33.276,Colour_Asymmetry_Pilot,2022.1.3,Win32,60.24822268,62c50e9c1127f2cd403a315f,0,141,141,109,1,threefour,,,,,,,,,,,,,,,,,,,,,,,,,,,,,,,,,,,,,,,,,,,,,,,,,,,,,,,,,,,,,,,,,,,,,,,,,,,,,,,,,,,,,,,,,,,,,,,,,,,,,,,,,,,,,,,,,,,,,,,,,,,,,,,,,,,,,,,,,,,,,,,,,,,,,,,,,,,,,
,,,,,,5b755869d5d7a80001b45a1e,62c538dfd1cad5ca791df9d8,2022-07-06_09h25.33.276,Colour_Asymmetry_Pilot,2022.1.3,Win32,60.24822268,62c50e9c1127f2cd403a315f,0,142,142,60,1,threeone,,,,,,,,,,,,,,,,,,,,,,,,,,,,,,,,,,,,,,,,,,,,,,,,,,,,,,,,,,,,,,,,,,,,,,,,,,,,,,,,,,,,,,,,,,,,,,,,,,,,,,,,,,,,,,,,,,,,,,,,,,,,,,,,,,,,,,,,,,,,,,,,,,,,,,,,,,,,,
,,,,,,5b755869d5d7a80001b45a1e,62c538dfd1cad5ca791df9d8,2022-07-06_09h25.33.276,Colour_Asymmetry_Pilot,2022.1.3,Win32,60.24822268,62c50e9c1127f2cd403a315f,0,143,143,131,1,twofour,,,,,,,,,,,,,,,,,,,,,,,,,,,,,,,,,,,,,,,,,,,,,,,,,,,,,,,,,,,,,,,,,,,,,,,,,,,,,,,,,,,,,,,,,,,,,,,,,,,,,,,,,,,,,,,,,,,,,,,,,,,,,,,,,,,,,,,,,,,,,,,,,,,,,,,,,,,,,
,,,,,,5b755869d5d7a80001b45a1e,62c538dfd1cad5ca791df9d8,2022-07-06_09h25.33.276,Colour_Asymmetry_Pilot,2022.1.3,Win32,60.24822268,62c50e9c1127f2cd403a315f,0,144,144,45,1,threefour,,,,,,,,,,,,,,,,,,,,,,,,,,,,,,,,,,,,,,,,,,,,,,,,,,,,,,,,,,,,,,,,,,,,,,,,,,,,,,,,,,,,,,,,,,,,,,,,,,,,,,,,,,,,,,,,,,,,,,,,,,,,,,,,,,,,,,,,,,,,,,,,,,,,,,,,,,,,,
,,,,,,5b755869d5d7a80001b45a1e,62c538dfd1cad5ca791df9d8,2022-07-06_09h25.33.276,Colour_Asymmetry_Pilot,2022.1.3,Win32,60.24822268,62c50e9c1127f2cd403a315f,0,145,145,129,1,onethree,,,,,,,,,,,,,,,,,,,,,,,,,,,,,,,,,,,,,,,,,,,,,,,,,,,,,,,,,,,,,,,,,,,,,,,,,,,,,,,,,,,,,,,,,,,,,,,,,,,,,,,,,,,,,,,,,,,,,,,,,,,,,,,,,,,,,,,,,,,,,,,,,,,,,,,,,,,,,
,,,,,,5b755869d5d7a80001b45a1e,62c538dfd1cad5ca791df9d8,2022-07-06_09h25.33.276,Colour_Asymmetry_Pilot,2022.1.3,Win32,60.24822268,62c50e9c1127f2cd403a315f,0,146,146,94,1,fourtwo,,,,,,,,,,,,,,,,,,,,,,,,,,,,,,,,,,,,,,,,,,,,,,,,,,,,,,,,,,,,,,,,,,,,,,,,,,,,,,,,,,,,,,,,,,,,,,,,,,,,,,,,,,,,,,,,,,,,,,,,,,,,,,,,,,,,,,,,,,,,,,,,,,,,,,,,,,,,,
,,,,,,5b755869d5d7a80001b45a1e,62c538dfd1cad5ca791df9d8,2022-07-06_09h25.33.276,Colour_Asymmetry_Pilot,2022.1.3,Win32,60.24822268,62c50e9c1127f2cd403a315f,0,147,147,84,1,threeone,,,,,,,,,,,,,,,,,,,,,,,,,,,,,,,,,,,,,,,,,,,,,,,,,,,,,,,,,,,,,,,,,,,,,,,,,,,,,,,,,,,,,,,,,,,,,,,,,,,,,,,,,,,,,,,,,,,,,,,,,,,,,,,,,,,,,,,,,,,,,,,,,,,,,,,,,,,,,
,,,,,,5b755869d5d7a80001b45a1e,62c538dfd1cad5ca791df9d8,2022-07-06_09h25.33.276,Colour_Asymmetry_Pilot,2022.1.3,Win32,60.24822268,62c50e9c1127f2cd403a315f,0,148,148,89,1,onethree,,,,,,,,,,,,,,,,,,,,,,,,,,,,,,,,,,,,,,,,,,,,,,,,,,,,,,,,,,,,,,,,,,,,,,,,,,,,,,,,,,,,,,,,,,,,,,,,,,,,,,,,,,,,,,,,,,,,,,,,,,,,,,,,,,,,,,,,,,,,,,,,,,,,,,,,,,,,,
,,,,,,5b755869d5d7a80001b45a1e,62c538dfd1cad5ca791df9d8,2022-07-06_09h25.33.276,Colour_Asymmetry_Pilot,2022.1.3,Win32,60.24822268,62c50e9c1127f2cd403a315f,0,149,149,128,1,onetwo,,,,,,,,,,,,,,,,,,,,,,,,,,,,,,,,,,,,,,,,,,,,,,,,,,,,,,,,,,,,,,,,,,,,,,,,,,,,,,,,,,,,,,,,,,,,,,,,,,,,,,,,,,,,,,,,,,,,,,,,,,,,,,,,,,,,,,,,,,,,,,,,,,,,,,,,,,,,,
,,,,,,5b755869d5d7a80001b45a1e,62c538dfd1cad5ca791df9d8,2022-07-06_09h25.33.276,Colour_Asymmetry_Pilot,2022.1.3,Win32,60.24822268,62c50e9c1127f2cd403a315f,0,150,150,16,1,onetwo,,,,,,,,,,,,,,,,,,,,,,,,,,,,,,,,,,,,,,,,,,,,,,,,,,,,,,,,,,,,,,,,,,,,,,,,,,,,,,,,,,,,,,,,,,,,,,,,,,,,,,,,,,,,,,,,,,,,,,,,,,,,,,,,,,,,,,,,,,,,,,,,,,,,,,,,,,,,,
,,,,,,5b755869d5d7a80001b45a1e,62c538dfd1cad5ca791df9d8,2022-07-06_09h25.33.276,Colour_Asymmetry_Pilot,2022.1.3,Win32,60.24822268,62c50e9c1127f2cd403a315f,0,151,151,17,1,onethree,,,,,,,,,,,,,,,,,,,,,,,,,,,,,,,,,,,,,,,,,,,,,,,,,,,,,,,,,,,,,,,,,,,,,,,,,,,,,,,,,,,,,,,,,,,,,,,,,,,,,,,,,,,,,,,,,,,,,,,,,,,,,,,,,,,,,,,,,,,,,,,,,,,,,,,,,,,,,
,,,,,,5b755869d5d7a80001b45a1e,62c538dfd1cad5ca791df9d8,2022-07-06_09h25.33.276,Colour_Asymmetry_Pilot,2022.1.3,Win32,60.24822268,62c50e9c1127f2cd403a315f,0,152,152,106,1,twoone,,,,,,,,,,,,,,,,,,,,,,,,,,,,,,,,,,,,,,,,,,,,,,,,,,,,,,,,,,,,,,,,,,,,,,,,,,,,,,,,,,,,,,,,,,,,,,,,,,,,,,,,,,,,,,,,,,,,,,,,,,,,,,,,,,,,,,,,,,,,,,,,,,,,,,,,,,,,,
,,,,,,5b755869d5d7a80001b45a1e,62c538dfd1cad5ca791df9d8,2022-07-06_09h25.33.276,Colour_Asymmetry_Pilot,2022.1.3,Win32,60.24822268,62c50e9c1127f2cd403a315f,0,153,153,150,1,fourtwo,,,,,,,,,,,,,,,,,,,,,,,,,,,,,,,,,,,,,,,,,,,,,,,,,,,,,,,,,,,,,,,,,,,,,,,,,,,,,,,,,,,,,,,,,,,,,,,,,,,,,,,,,,,,,,,,,,,,,,,,,,,,,,,,,,,,,,,,,,,,,,,,,,,,,,,,,,,,,
,,,,,,5b755869d5d7a80001b45a1e,62c538dfd1cad5ca791df9d8,2022-07-06_09h25.33.276,Colour_Asymmetry_Pilot,2022.1.3,Win32,60.24822268,62c50e9c1127f2cd403a315f,0,154,154,11,1,twofour,,,,,,,,,,,,,,,,,,,,,,,,,,,,,,,,,,,,,,,,,,,,,,,,,,,,,,,,,,,,,,,,,,,,,,,,,,,,,,,,,,,,,,,,,,,,,,,,,,,,,,,,,,,,,,,,,,,,,,,,,,,,,,,,,,,,,,,,,,,,,,,,,,,,,,,,,,,,,
,,,,,,5b755869d5d7a80001b45a1e,62c538dfd1cad5ca791df9d8,2022-07-06_09h25.33.276,Colour_Asymmetry_Pilot,2022.1.3,Win32,60.24822268,62c50e9c1127f2cd403a315f,0,155,155,87,1,fourthree,,,,,,,,,,,,,,,,,,,,,,,,,,,,,,,,,,,,,,,,,,,,,,,,,,,,,,,,,,,,,,,,,,,,,,,,,,,,,,,,,,,,,,,,,,,,,,,,,,,,,,,,,,,,,,,,,,,,,,,,,,,,,,,,,,,,,,,,,,,,,,,,,,,,,,,,,,,,,
,,,,,,5b755869d5d7a80001b45a1e,62c538dfd1cad5ca791df9d8,2022-07-06_09h25.33.276,Colour_Asymmetry_Pilot,2022.1.3,Win32,60.24822268,62c50e9c1127f2cd403a315f,0,156,156,74,1,twoone,,,,,,,,,,,,,,,,,,,,,,,,,,,,,,,,,,,,,,,,,,,,,,,,,,,,,,,,,,,,,,,,,,,,,,,,,,,,,,,,,,,,,,,,,,,,,,,,,,,,,,,,,,,,,,,,,,,,,,,,,,,,,,,,,,,,,,,,,,,,,,,,,,,,,,,,,,,,,
,,,,,,5b755869d5d7a80001b45a1e,62c538dfd1cad5ca791df9d8,2022-07-06_09h25.33.276,Colour_Asymmetry_Pilot,2022.1.3,Win32,60.24822268,62c50e9c1127f2cd403a315f,0,157,157,103,1,fourthree,,,,,,,,,,,,,,,,,,,,,,,,,,,,,,,,,,,,,,,,,,,,,,,,,,,,,,,,,,,,,,,,,,,,,,,,,,,,,,,,,,,,,,,,,,,,,,,,,,,,,,,,,,,,,,,,,,,,,,,,,,,,,,,,,,,,,,,,,,,,,,,,,,,,,,,,,,,,,
,,,,,,5b755869d5d7a80001b45a1e,62c538dfd1cad5ca791df9d8,2022-07-06_09h25.33.276,Colour_Asymmetry_Pilot,2022.1.3,Win32,60.24822268,62c50e9c1127f2cd403a315f,0,158,158,126,1,fourtwo,,,,,,,,,,,,,,,,,,,,,,,,,,,,,,,,,,,,,,,,,,,,,,,,,,,,,,,,,,,,,,,,,,,,,,,,,,,,,,,,,,,,,,,,,,,,,,,,,,,,,,,,,,,,,,,,,,,,,,,,,,,,,,,,,,,,,,,,,,,,,,,,,,,,,,,,,,,,,
,,,,,,5b755869d5d7a80001b45a1e,62c538dfd1cad5ca791df9d8,2022-07-06_09h25.33.276,Colour_Asymmetry_Pilot,2022.1.3,Win32,60.24822268,62c50e9c1127f2cd403a315f,0,159,159,88,1,onetwo,,,,,,,,,,,,,,,,,,,,,,,,,,,,,,,,,,,,,,,,,,,,,,,,,,,,,,,,,,,,,,,,,,,,,,,,,,,,,,,,,,,,,,,,,,,,,,,,,,,,,,,,,,,,,,,,,,,,,,,,,,,,,,,,,,,,,,,,,,,,,,,,,,,,,,,,,,,,,
,,,,,,5b755869d5d7a80001b45a1e,62c538dfd1cad5ca791df9d8,2022-07-06_09h25.33.276,Colour_Asymmetry_Pilot,2022.1.3,Win32,60.24822268,62c50e9c1127f2cd403a315f,0,160,160,140,1,threeone,,,,,,,,,,,,,,,,,,,,,,,,,,,,,,,,,,,,,,,,,,,,,,,,,,,,,,,,,,,,,,,,,,,,,,,,,,,,,,,,,,,,,,,,,,,,,,,,,,,,,,,,,,,,,,,,,,,,,,,,,,,,,,,,,,,,,,,,,,,,,,,,,,,,,,,,,,,,,
,,,,,,5b755869d5d7a80001b45a1e,62c538dfd1cad5ca791df9d8,2022-07-06_09h25.33.276,Colour_Asymmetry_Pilot,2022.1.3,Win32,60.24822268,62c50e9c1127f2cd403a315f,0,161,161,49,1,onethree,,,,,,,,,,,,,,,,,,,,,,,,,,,,,,,,,,,,,,,,,,,,,,,,,,,,,,,,,,,,,,,,,,,,,,,,,,,,,,,,,,,,,,,,,,,,,,,,,,,,,,,,,,,,,,,,,,,,,,,,,,,,,,,,,,,,,,,,,,,,,,,,,,,,,,,,,,,,,
,,,,,,5b755869d5d7a80001b45a1e,62c538dfd1cad5ca791df9d8,2022-07-06_09h25.33.276,Colour_Asymmetry_Pilot,2022.1.3,Win32,60.24822268,62c50e9c1127f2cd403a315f,,,,,,,space,12.9352,space,10.7993,space,28.6564,space,2.0319,space,4.3154,space,4.2301,"[-0.9216,-0.5529999999999999,-0.3962]",fourthree,"[-0.6,0.16860000000000008,0.44300000000000006]",3,12.3902,106.4000244,44.79998779,1,0,0,response1disk_5,-12.79998779,-4.800018311,1,0,0,rectangle_8,-12.79998779,-4.800018311,1,0,0,2,-12.79998779,-4.800018311,1,0,0,0,0,0,0,1,,,,,,,,,,,,,,,,,,,,,,,,,,,,,,,,,,,,,,,,,,,,,,,,,,,,,,,,,,,,,,,,,,,,,,,,,,,,,,,,,,,,,,,,,,,,,,,,,,,,,,,,,,,,,,,,
,,,,,,5b755869d5d7a80001b45a1e,62c538dfd1cad5ca791df9d8,2022-07-06_09h25.33.276,Colour_Asymmetry_Pilot,2022.1.3,Win32,60.24822268,62c50e9c1127f2cd403a315f,,,,,,,,,,,,,,,,,,,"[-0.2942,-0.24719999999999998,-0.357]",twoone,"[0.9842,0.7409999999999999,-0.6628000000000001]",-4,2.1804,-38.39996338,72,1,0,0,response7disk_5,0,-4,1,0,0,rectangle_8,0,-4,1,0,0,2,0,-4,1,0,0,1,0,1,0,1,,,,,,,,,,,,,,,,,,,,,,,,,,,,,,,,,,,,,,,,,,,,,,,,,,,,,,,,,,,,,,,,,,,,,,,,,,,,,,,,,,,,,,,,,,,,,,,,,,,,,,,,,,,,,,,,
,,,,,,5b755869d5d7a80001b45a1e,62c538dfd1cad5ca791df9d8,2022-07-06_09h25.33.276,Colour_Asymmetry_Pilot,2022.1.3,Win32,60.24822268,62c50e9c1127f2cd403a315f,,,,,,,,,,,,,,,,,,,"[0.7646000000000002,0.07440000000000002,0.2704]",fourtwo,"[0.9213999999999998,0.6391999999999998,-0.9922]",-4,1.6662,-33.59997559,61.6000061,1,0,0,response7disk_5,1.600036621,1.600006104,1,0,0,rectangle_8,98.40002441,-44,1,0,0,2,4.799987793,-0.800018311,1,0,0,2,0,2,0,1,response3disk_7,5,rectangle_4,,,,,,,,,,,,,,,,,,,,,,,,,,,,,,,,,,,,,,,,,,,,,,,,,,,,,,,,,,,,,,,,,,,,,,,,,,,,,,,,,,,,,,,,,,,,,,,,,,,,,,,,,,,,,
,,,,,,5b755869d5d7a80001b45a1e,62c538dfd1cad5ca791df9d8,2022-07-06_09h25.33.276,Colour_Asymmetry_Pilot,2022.1.3,Win32,60.24822268,62c50e9c1127f2cd403a315f,,,,,,,,,,,,,,,,,,,"[-0.06680000000000008,-0.45100000000000007,-0.906]",twoone,"[-0.26280000000000003,-0.4746,-0.2158]",-3,4.6624,-80,33.6000061,1,0,0,response7disk_5,7.200012207,-7.200012207,1,0,0,rectangle_8,7.200012207,-7.200012207,1,0,0,2,7.200012207,-7.200012207,1,0,0,3,0,3,0,1,,,,,,,,,,,,,,,,,,,,,,,,,,,,,,,,,,,,,,,,,,,,,,,,,,,,,,,,,,,,,,,,,,,,,,,,,,,,,,,,,,,,,,,,,,,,,,,,,,,,,,,,,,,,,,,,
,,,,,,5b755869d5d7a80001b45a1e,62c538dfd1cad5ca791df9d8,2022-07-06_09h25.33.276,Colour_Asymmetry_Pilot,2022.1.3,Win32,60.24822268,62c50e9c1127f2cd403a315f,,,,,,,,,,,,,,,,,,,"[0.23120000000000007,-0.7726,-0.34120000000000006]",threeone,"[0.9213999999999998,0.6391999999999998,-0.9922]",-4,0.9162,-40.79998779,79.19998169,1,0,0,response7disk_5,9.600036621,-2.399993896,1,0,0,rectangle_8,96,-34.3999939,1,0,0,2,6.400024414,-8,1,0,0,4,0,4,0,1,response3disk_7,5,rectangle_4,,,,,,,,,,,,,,,,,,,,,,,,,,,,,,,,,,,,,,,,,,,,,,,,,,,,,,,,,,,,,,,,,,,,,,,,,,,,,,,,,,,,,,,,,,,,,,,,,,,,,,,,,,,,,
,,,,,,5b755869d5d7a80001b45a1e,62c538dfd1cad5ca791df9d8,2022-07-06_09h25.33.276,Colour_Asymmetry_Pilot,2022.1.3,Win32,60.24822268,62c50e9c1127f2cd403a315f,,,,,,,,,,,,,,,,,,,"[0.7802,-0.23140000000000005,-0.20799999999999996]",fourtwo,"[-0.9216,-0.5529999999999999,-0.3962]",-4,1.5149,-20,75.19998169,1,0,0,response7disk_5,0,0.799987793,1,0,0,rectangle_8,0,0.799987793,1,0,0,2,0,0.799987793,1,0,0,5,0,5,0,1,,,,,,,,,,,,,,,,,,,,,,,,,,,,,,,,,,,,,,,,,,,,,,,,,,,,,,,,,,,,,,,,,,,,,,,,,,,,,,,,,,,,,,,,,,,,,,,,,,,,,,,,,,,,,,,,
,,,,,,5b755869d5d7a80001b45a1e,62c538dfd1cad5ca791df9d8,2022-07-06_09h25.33.276,Colour_Asymmetry_Pilot,2022.1.3,Win32,60.24822268,62c50e9c1127f2cd403a315f,,,,,,,,,,,,,,,,,,,"[-0.050999999999999934,-0.6706000000000001,-0.804]",threefour,"[0.9763999999999999,-0.1137999999999999,-0.6314]",3,2.1813,60.79998779,24,1,0,0,response1disk_5,-2.399963379,-0.800018311,1,0,0,rectangle_8,-2.399963379,-0.800018311,1,0,0,2,-2.399963379,-0.800018311,1,0,0,6,0,6,0,1,,,,,,,,,,,,,,,,,,,,,,,,,,,,,,,,,,,,,,,,,,,,,,,,,,,,,,,,,,,,,,,,,,,,,,,,,,,,,,,,,,,,,,,,,,,,,,,,,,,,,,,,,,,,,,,,
,,,,,,5b755869d5d7a80001b45a1e,62c538dfd1cad5ca791df9d8,2022-07-06_09h25.33.276,Colour_Asymmetry_Pilot,2022.1.3,Win32,60.24822268,62c50e9c1127f2cd403a315f,,,,,,,,,,,,,,,,,,,,fourthree,,-4,1.7819,,,,,,,,,,,,,,,,,,,,,,,,,,,,,,,,space,5.0644,"[0.9372,0.20779999999999998,0.2704]","[-0.9766,-0.6472,0.07440000000000002]",-52,67.19998169,1,0,0,response7disk,-11.20001221,-6.399993896,1,0,0,rectangle,-11.20001221,-6.399993896,1,0,0,,2,0.0026,0,-11.20001221,-6.399993896,1,0,0,0,0,0,102,1,21,second,,,,,,,,,,,,,,,,,,,,,,,,,,,,,,,,,,,,,,,,,,,,,,,,,,,,,,,,,,,,,,,,,,,,,,,,
,,,,,,5b755869d5d7a80001b45a1e,62c538dfd1cad5ca791df9d8,2022-07-06_09h25.33.276,Colour_Asymmetry_Pilot,2022.1.3,Win32,60.24822268,62c50e9c1127f2cd403a315f,,,,,,,,,,,,,,,,,,,,fourtwo,,-4,1.1826,,,,,,,,,,,,,,,,,,,,,,,,,,,,,,,,,,"[-0.9844,-0.9688,-0.9922]","[0.19199999999999995,0.18419999999999992,0.5136000000000001]",-26.39996338,67.19998169,1,0,0,response7disk,-4,4.799987793,1,0,0,rectangle,-4,4.799987793,1,0,0,,1,0.0009,0,-4,4.799987793,1,0,0,0,1,1,140,1,59,second,,,,,,,,,,,,,,,,,,,,,,,,,,,,,,,,,,,,,,,,,,,,,,,,,,,,,,,,,,,,,,,,,,,,,,,,
,,,,,,5b755869d5d7a80001b45a1e,62c538dfd1cad5ca791df9d8,2022-07-06_09h25.33.276,Colour_Asymmetry_Pilot,2022.1.3,Win32,60.24822268,62c50e9c1127f2cd403a315f,,,,,,,,,,,,,,,,,,,,onethree,,-3,1.1655,,,,,,,,,,,,,,,,,,,,,,,,,,,,,,,,,,"[0.18419999999999992,-0.4276,-0.404]","[-0.9688,-0.7412000000000001,-0.4902000000000001]",-70.39996338,36,1,0,0,response7disk,-6.399963379,-4.800018311,1,0,0,rectangle,-94.39996338,32.79998779,1,0,0,-3,3,3.5975,1,-14.39996338,-13.6000061,1,0,0,0,2,2,11,1,11,first,response7disk_3,rectangle,,,,,,,,,,,,,,,,,,,,,,,,,,,,,,,,,,,,,,,,,,,,,,,,,,,,,,,,,,,,,,,,,,,,,,
,,,,,,5b755869d5d7a80001b45a1e,62c538dfd1cad5ca791df9d8,2022-07-06_09h25.33.276,Colour_Asymmetry_Pilot,2022.1.3,Win32,60.24822268,62c50e9c1127f2cd403a315f,,,,,,,,,,,,,,,,,,,,fourtwo,,3,0.9985,,,,,,,,,,,,,,,,,,,,,,,,,,,,,,,,,,"[0.9763999999999999,0.8588,-0.05900000000000005]","[0.34099999999999997,0.5841999999999998,-0.9844]",96.79998779,55.19998169,1,0,0,response1disk,12.79998779,-1.600006104,1,0,0,rectangle,12.79998779,-1.600006104,1,0,0,-3,1,0.0016,0,12.79998779,-1.600006104,1,0,0,0,3,3,98,1,17,second,,,,,,,,,,,,,,,,,,,,,,,,,,,,,,,,,,,,,,,,,,,,,,,,,,,,,,,,,,,,,,,,,,,,,,,,
,,,,,,5b755869d5d7a80001b45a1e,62c538dfd1cad5ca791df9d8,2022-07-06_09h25.33.276,Colour_Asymmetry_Pilot,2022.1.3,Win32,60.24822268,62c50e9c1127f2cd403a315f,,,,,,,,,,,,,,,,,,,,twofour,,3,0.5993,,,,,,,,,,,,,,,,,,,,,,,,,,,,,,,,,,"[-0.26280000000000003,-0.2158,-0.3256]","[-0.24719999999999998,-0.0354000000000001,0.3175999999999999]",79.20001221,39.19998169,1,0,0,response1disk,19.20001221,3.199981689,1,0,0,rectangle,19.20001221,3.199981689,1,0,0,-3,1,0.0003,0,19.20001221,3.199981689,1,0,0,0,4,4,42,1,42,first,,,,,,,,,,,,,,,,,,,,,,,,,,,,,,,,,,,,,,,,,,,,,,,,,,,,,,,,,,,,,,,,,,,,,,,,
,,,,,,5b755869d5d7a80001b45a1e,62c538dfd1cad5ca791df9d8,2022-07-06_09h25.33.276,Colour_Asymmetry_Pilot,2022.1.3,Win32,60.24822268,62c50e9c1127f2cd403a315f,,,,,,,,,,,,,,,,,,,,threefour,,-3,1.2157,,,,,,,,,,,,,,,,,,,,,,,,,,,,,,,,,,"[-0.011800000000000033,-0.906,-0.45100000000000007]","[-0.9296,-0.12959999999999994,-0.043199999999999905]",-72.79998779,34.3999939,1,0,0,response7disk,-0.799987793,-8.800018311,1,0,0,rectangle,-0.799987793,-8.800018311,1,0,0,-3,2,0.0018,0,-0.799987793,-8.800018311,1,0,0,0,5,5,96,1,15,second,,,,,,,,,,,,,,,,,,,,,,,,,,,,,,,,,,,,,,,,,,,,,,,,,,,,,,,,,,,,,,,,,,,,,,,,
,,,,,,5b755869d5d7a80001b45a1e,62c538dfd1cad5ca791df9d8,2022-07-06_09h25.33.276,Colour_Asymmetry_Pilot,2022.1.3,Win32,60.24822268,62c50e9c1127f2cd403a315f,,,,,,,,,,,,,,,,,,,,threefour,,-4,0.6832,,,,,,,,,,,,,,,,,,,,,,,,,,,,,,,,,,"[0.7018,0.7802,-0.16079999999999994]","[-0.4668,-0.8746,-0.2942]",-52.79998779,82.3999939,1,0,0,response7disk,0.799987793,-6.399993896,1,0,0,rectangle,0.799987793,-6.399993896,1,0,0,-3,1,0.0016,0,0.799987793,-6.399993896,1,0,0,0,6,6,88,1,7,second,,,,,,,,,,,,,,,,,,,,,,,,,,,,,,,,,,,,,,,,,,,,,,,,,,,,,,,,,,,,,,,,,,,,,,,,
,,,,,,5b755869d5d7a80001b45a1e,62c538dfd1cad5ca791df9d8,2022-07-06_09h25.33.276,Colour_Asymmetry_Pilot,2022.1.3,Win32,60.24822268,62c50e9c1127f2cd403a315f,,,,,,,,,,,,,,,,,,,,threeone,,-3,1.0984,,,,,,,,,,,,,,,,,,,,,,,,,,,,,,,,,,"[-0.26280000000000003,-0.4746,-0.2158]","[0.34099999999999997,0.5841999999999998,-0.9844]",-80.79998779,50.3999939,1,0,0,response7disk,-5.599975586,-0.800018311,1,0,0,rectangle,-5.599975586,-0.800018311,1,0,0,-3,1,0.0002,0,-5.599975586,-0.800018311,1,0,0,0,7,7,2,1,2,first,,,,,,,,,,,,,,,,,,,,,,,,,,,,,,,,,,,,,,,,,,,,,,,,,,,,,,,,,,,,,,,,,,,,,,,,
,,,,,,5b755869d5d7a80001b45a1e,62c538dfd1cad5ca791df9d8,2022-07-06_09h25.33.276,Colour_Asymmetry_Pilot,2022.1.3,Win32,60.24822268,62c50e9c1127f2cd403a315f,,,,,,,,,,,,,,,,,,,,threeone,,-3,0.5846,,,,,,,,,,,,,,,,,,,,,,,,,,,,,,,,,,"[-0.01980000000000004,-0.5138,-0.38039999999999996]","[-0.24719999999999998,0.5213999999999999,-0.12959999999999994]",-75.20001221,40,1,0,0,response7disk,-5.599975586,-2.399993896,1,0,0,rectangle,-5.599975586,-2.399993896,1,0,0,-3,2,0.0018,0,-5.599975586,-2.399993896,1,0,0,0,8,8,14,1,14,first,,,,,,,,,,,,,,,,,,,,,,,,,,,,,,,,,,,,,,,,,,,,,,,,,,,,,,,,,,,,,,,,,,,,,,,,
,,,,,,5b755869d5d7a80001b45a1e,62c538dfd1cad5ca791df9d8,2022-07-06_09h25.33.276,Colour_Asymmetry_Pilot,2022.1.3,Win32,60.24822268,62c50e9c1127f2cd403a315f,,,,,,,,,,,,,,,,,,,,twofour,,-4,2.1572,,,,,,,,,,,,,,,,,,,,,,,,,,,,,,,,,,"[-0.8982,-0.37259999999999993,0.2784]","[0.37240000000000006,-0.050999999999999934,-0.5216]",-46.39996338,96.79998779,1,0,0,response7disk,3.200012207,-8,1,0,0,rectangle,3.200012207,-8,1,0,0,-3,1,0.002,0,3.200012207,-8,1,0,0,0,9,9,157,1,76,second,,,,,,,,,,,,,,,,,,,,,,,,,,,,,,,,,,,,,,,,,,,,,,,,,,,,,,,,,,,,,,,,,,,,,,,,
,,,,,,5b755869d5d7a80001b45a1e,62c538dfd1cad5ca791df9d8,2022-07-06_09h25.33.276,Colour_Asymmetry_Pilot,2022.1.3,Win32,60.24822268,62c50e9c1127f2cd403a315f,,,,,,,,,,,,,,,,,,,,onethree,,-4,0.6165,,,,,,,,,,,,,,,,,,,,,,,,,,,,,,,,,,"[-0.4668,-0.8746,-0.2942]","[0.7018,0.7802,-0.16079999999999994]",-44,61.6000061,1,0,0,response7disk,-2.399963379,1.600006104,1,0,0,rectangle,-2.399963379,1.600006104,1,0,0,-3,1,0.0001,0,-2.399963379,1.600006104,1,0,0,0,10,10,7,1,7,first,,,,,,,,,,,,,,,,,,,,,,,,,,,,,,,,,,,,,,,,,,,,,,,,,,,,,,,,,,,,,,,,,,,,,,,,
,,,,,,5b755869d5d7a80001b45a1e,62c538dfd1cad5ca791df9d8,2022-07-06_09h25.33.276,Colour_Asymmetry_Pilot,2022.1.3,Win32,60.24822268,62c50e9c1127f2cd403a315f,,,,,,,,,,,,,,,,,,,,fourthree,,-4,1.7981,,,,,,,,,,,,,,,,,,,,,,,,,,,,,,,,,,"[0.12939999999999996,-0.2864,0.3253999999999999]","[0.6625999999999999,0.4980000000000002,-0.357]",-39.20001221,68.79998779,1,0,0,response7disk,-4,-8,1,0,0,rectangle,-4,-8,1,0,0,-3,2,0.0017,0,-4,-8,1,0,0,0,11,11,31,1,31,first,,,,,,,,,,,,,,,,,,,,,,,,,,,,,,,,,,,,,,,,,,,,,,,,,,,,,,,,,,,,,,,,,,,,,,,,
,,,,,,5b755869d5d7a80001b45a1e,62c538dfd1cad5ca791df9d8,2022-07-06_09h25.33.276,Colour_Asymmetry_Pilot,2022.1.3,Win32,60.24822268,62c50e9c1127f2cd403a315f,,,,,,,,,,,,,,,,,,,,twofour,,-4,1.8149,,,,,,,,,,,,,,,,,,,,,,,,,,,,,,,,,,"[-0.5688,-0.08239999999999992,-0.1844]","[0.5528,0.7409999999999999,-0.71]",-56.79998779,60,1,0,0,response7disk,0.799987793,-12,1,0,0,rectangle,0.799987793,-12,1,0,0,-3,3,0.0018,0,0.799987793,-12,1,0,0,0,12,12,49,1,49,first,,,,,,,,,,,,,,,,,,,,,,,,,,,,,,,,,,,,,,,,,,,,,,,,,,,,,,,,,,,,,,,,,,,,,,,,
,,,,,,5b755869d5d7a80001b45a1e,62c538dfd1cad5ca791df9d8,2022-07-06_09h25.33.276,Colour_Asymmetry_Pilot,2022.1.3,Win32,60.24822268,62c50e9c1127f2cd403a315f,,,,,,,,,,,,,,,,,,,,twoone,,-3,0.8163,,,,,,,,,,,,,,,,,,,,,,,,,,,,,,,,,,"[0.3881999999999999,-0.23939999999999995,-0.05040000000000011]","[-0.4982,-0.2942,-0.0354000000000001]",-82.39996338,48.79998779,1,0,0,response7disk,-7.200012207,-3.200012207,1,0,0,rectangle,-7.200012207,-3.200012207,1,0,0,-3,1,0.0016,0,-7.200012207,-3.200012207,1,0,0,0,13,13,29,1,29,first,,,,,,,,,,,,,,,,,,,,,,,,,,,,,,,,,,,,,,,,,,,,,,,,,,,,,,,,,,,,,,,,,,,,,,,,
,,,,,,5b755869d5d7a80001b45a1e,62c538dfd1cad5ca791df9d8,2022-07-06_09h25.33.276,Colour_Asymmetry_Pilot,2022.1.3,Win32,60.24822268,62c50e9c1127f2cd403a315f,,,,,,,,,,,,,,,,,,,,fourtwo,,-4,0.7658,,,,,,,,,,,,,,,,,,,,,,,,,,,,,,,,,,"[0.37240000000000006,0.4980000000000002,-0.2864]","[-0.9216,-0.5529999999999999,-0.3962]",-44,69.6000061,1,0,0,response7disk,-0.799987793,0,1,0,0,rectangle,-0.799987793,0,1,0,0,-3,2,0.0016,0,-0.799987793,0,1,0,0,0,14,14,61,1,61,first,,,,,,,,,,,,,,,,,,,,,,,,,,,,,,,,,,,,,,,,,,,,,,,,,,,,,,,,,,,,,,,,,,,,,,,,
