trials.thisRepN,trials.thisTrialN,trials.thisN,trials.thisIndex,trials.ran,Colourcodes,participant,session,date,expName,psychopyVersion,OS,frameRate,study_id,trials_4.thisRepN,trials_4.thisTrialN,trials_4.thisN,trials_4.thisIndex,trials_4.ran,StimulusPos,key_resp.keys,key_resp.rt,key_resp_2.keys,key_resp_2.rt,key_resp_15.keys,key_resp_15.rt,key_resp_17.keys,key_resp_17.rt,key_resp_9.keys,key_resp_9.rt,key_resp_10.keys,key_resp_10.rt,Circle1_col,Ecc,Circle2_col,similarity,response_time,mouse_5.x,mouse_5.y,mouse_5.leftButton,mouse_5.midButton,mouse_5.rightButton,mouse_5.clicked_name,mouse_10.x,mouse_10.y,mouse_10.leftButton,mouse_10.midButton,mouse_10.rightButton,mouse_10.clicked_name,mouse_7.x,mouse_7.y,mouse_7.leftButton,mouse_7.midButton,mouse_7.rightButton,catchnumberprac,mouse_6.x,mouse_6.y,mouse_6.leftButton,mouse_6.midButton,mouse_6.rightButton,duringprac.thisRepN,duringprac.thisTrialN,duringprac.thisN,duringprac.thisIndex,duringprac.ran,mouse_7.clicked_name,catchprac,mouse_6.clicked_name,key_resp_22.keys,key_resp_22.rt,Circle1_colour,Circle2_colour,mouse.x,mouse.y,mouse.leftButton,mouse.midButton,mouse.rightButton,mouse.clicked_name,mouse_2.x,mouse_2.y,mouse_2.leftButton,mouse_2.midButton,mouse_2.rightButton,mouse_2.clicked_name,mouse_3.x,mouse_3.y,mouse_3.leftButton,mouse_3.midButton,mouse_3.rightButton,catchresponse,catchnumber,response_time_catch,Catch,mouse_11.x,mouse_11.y,mouse_11.leftButton,mouse_11.midButton,mouse_11.rightButton,trials_2.thisRepN,trials_2.thisTrialN,trials_2.thisN,trials_2.thisIndex,trials_2.ran,Colourpair,Temporder,mouse_3.clicked_name,mouse_11.clicked_name,trials_3.thisRepN,trials_3.thisTrialN,trials_3.thisN,trials_3.thisIndex,trials_3.ran,key_resp_instr_Ishi.keys,key_resp_instr_Ishi.rt,Ishi_trial_keyresp.keys,Ishi_textbox.text,Ishi_mouse.x,Ishi_mouse.y,Ishi_mouse.leftButton,Ishi_mouse.midButton,Ishi_mouse.rightButton,Ishi_mouse.clicked_name,Ishi_loop.thisRepN,Ishi_loop.thisTrialN,Ishi_loop.thisN,Ishi_loop.thisIndex,Ishi_loop.ran,imageaddress,textbox.text,mouse_4.x,mouse_4.y,mouse_4.leftButton,mouse_4.midButton,mouse_4.rightButton,mouse_4.clicked_name,textbox_2.text,mouse_8.x,mouse_8.y,mouse_8.leftButton,mouse_8.midButton,mouse_8.rightButton,mouse_8.clicked_name,textbox_3.text,mouse_9.x,mouse_9.y,mouse_9.leftButton,mouse_9.midButton,mouse_9.rightButton,mouse_9.clicked_name,textbox_4.text,mouse_12.x,mouse_12.y,mouse_12.leftButton,mouse_12.midButton,mouse_12.rightButton,mouse_12.clicked_name,textbox_5.text,mouse_13.x,mouse_13.y,mouse_13.leftButton,mouse_13.midButton,mouse_13.rightButton,mouse_13.clicked_name,textbox_6.text,mouse_14.x,mouse_14.y,mouse_14.leftButton,mouse_14.midButton,mouse_14.rightButton,mouse_14.clicked_name,textbox_7.text,mouse_15.x,mouse_15.y,mouse_15.leftButton,mouse_15.midButton,mouse_15.rightButton,mouse_15.clicked_name
0,0,0,47,1,,6167f106d8d301bd6433c8b1,62c53b074fe15b429b53c7db,2022-07-06_09h34.53.758,Colour_Asymmetry_Pilot,2022.1.3,Win32,60.0024001,62c50e9c1127f2cd403a315f,,,,,,,,,,,,,,,,,,,,,,,,,,,,,,,,,,,,,,,,,,,,,,,,,,,,,,,,,,,,,,,,,,,,,,,,,,,,,,,,,,,,,,,,,,,,,,,,,,,,,,,,,,,,,,,,,,,,,,,,,,,,,,,,,,,,,,,,,,,,,,,,,,,,,,,,,,,,,,,,,,,
0,1,1,27,1,,6167f106d8d301bd6433c8b1,62c53b074fe15b429b53c7db,2022-07-06_09h34.53.758,Colour_Asymmetry_Pilot,2022.1.3,Win32,60.0024001,62c50e9c1127f2cd403a315f,,,,,,,,,,,,,,,,,,,,,,,,,,,,,,,,,,,,,,,,,,,,,,,,,,,,,,,,,,,,,,,,,,,,,,,,,,,,,,,,,,,,,,,,,,,,,,,,,,,,,,,,,,,,,,,,,,,,,,,,,,,,,,,,,,,,,,,,,,,,,,,,,,,,,,,,,,,,,,,,,,,
0,2,2,37,1,,6167f106d8d301bd6433c8b1,62c53b074fe15b429b53c7db,2022-07-06_09h34.53.758,Colour_Asymmetry_Pilot,2022.1.3,Win32,60.0024001,62c50e9c1127f2cd403a315f,,,,,,,,,,,,,,,,,,,,,,,,,,,,,,,,,,,,,,,,,,,,,,,,,,,,,,,,,,,,,,,,,,,,,,,,,,,,,,,,,,,,,,,,,,,,,,,,,,,,,,,,,,,,,,,,,,,,,,,,,,,,,,,,,,,,,,,,,,,,,,,,,,,,,,,,,,,,,,,,,,,
0,3,3,91,1,,6167f106d8d301bd6433c8b1,62c53b074fe15b429b53c7db,2022-07-06_09h34.53.758,Colour_Asymmetry_Pilot,2022.1.3,Win32,60.0024001,62c50e9c1127f2cd403a315f,,,,,,,,,,,,,,,,,,,,,,,,,,,,,,,,,,,,,,,,,,,,,,,,,,,,,,,,,,,,,,,,,,,,,,,,,,,,,,,,,,,,,,,,,,,,,,,,,,,,,,,,,,,,,,,,,,,,,,,,,,,,,,,,,,,,,,,,,,,,,,,,,,,,,,,,,,,,,,,,,,,
0,4,4,84,1,,6167f106d8d301bd6433c8b1,62c53b074fe15b429b53c7db,2022-07-06_09h34.53.758,Colour_Asymmetry_Pilot,2022.1.3,Win32,60.0024001,62c50e9c1127f2cd403a315f,,,,,,,,,,,,,,,,,,,,,,,,,,,,,,,,,,,,,,,,,,,,,,,,,,,,,,,,,,,,,,,,,,,,,,,,,,,,,,,,,,,,,,,,,,,,,,,,,,,,,,,,,,,,,,,,,,,,,,,,,,,,,,,,,,,,,,,,,,,,,,,,,,,,,,,,,,,,,,,,,,,
0,5,5,12,1,,6167f106d8d301bd6433c8b1,62c53b074fe15b429b53c7db,2022-07-06_09h34.53.758,Colour_Asymmetry_Pilot,2022.1.3,Win32,60.0024001,62c50e9c1127f2cd403a315f,,,,,,,,,,,,,,,,,,,,,,,,,,,,,,,,,,,,,,,,,,,,,,,,,,,,,,,,,,,,,,,,,,,,,,,,,,,,,,,,,,,,,,,,,,,,,,,,,,,,,,,,,,,,,,,,,,,,,,,,,,,,,,,,,,,,,,,,,,,,,,,,,,,,,,,,,,,,,,,,,,,
0,6,6,0,1,,6167f106d8d301bd6433c8b1,62c53b074fe15b429b53c7db,2022-07-06_09h34.53.758,Colour_Asymmetry_Pilot,2022.1.3,Win32,60.0024001,62c50e9c1127f2cd403a315f,,,,,,,,,,,,,,,,,,,,,,,,,,,,,,,,,,,,,,,,,,,,,,,,,,,,,,,,,,,,,,,,,,,,,,,,,,,,,,,,,,,,,,,,,,,,,,,,,,,,,,,,,,,,,,,,,,,,,,,,,,,,,,,,,,,,,,,,,,,,,,,,,,,,,,,,,,,,,,,,,,,
0,7,7,24,1,,6167f106d8d301bd6433c8b1,62c53b074fe15b429b53c7db,2022-07-06_09h34.53.758,Colour_Asymmetry_Pilot,2022.1.3,Win32,60.0024001,62c50e9c1127f2cd403a315f,,,,,,,,,,,,,,,,,,,,,,,,,,,,,,,,,,,,,,,,,,,,,,,,,,,,,,,,,,,,,,,,,,,,,,,,,,,,,,,,,,,,,,,,,,,,,,,,,,,,,,,,,,,,,,,,,,,,,,,,,,,,,,,,,,,,,,,,,,,,,,,,,,,,,,,,,,,,,,,,,,,
0,8,8,53,1,,6167f106d8d301bd6433c8b1,62c53b074fe15b429b53c7db,2022-07-06_09h34.53.758,Colour_Asymmetry_Pilot,2022.1.3,Win32,60.0024001,62c50e9c1127f2cd403a315f,,,,,,,,,,,,,,,,,,,,,,,,,,,,,,,,,,,,,,,,,,,,,,,,,,,,,,,,,,,,,,,,,,,,,,,,,,,,,,,,,,,,,,,,,,,,,,,,,,,,,,,,,,,,,,,,,,,,,,,,,,,,,,,,,,,,,,,,,,,,,,,,,,,,,,,,,,,,,,,,,,,
0,9,9,74,1,,6167f106d8d301bd6433c8b1,62c53b074fe15b429b53c7db,2022-07-06_09h34.53.758,Colour_Asymmetry_Pilot,2022.1.3,Win32,60.0024001,62c50e9c1127f2cd403a315f,,,,,,,,,,,,,,,,,,,,,,,,,,,,,,,,,,,,,,,,,,,,,,,,,,,,,,,,,,,,,,,,,,,,,,,,,,,,,,,,,,,,,,,,,,,,,,,,,,,,,,,,,,,,,,,,,,,,,,,,,,,,,,,,,,,,,,,,,,,,,,,,,,,,,,,,,,,,,,,,,,,
0,10,10,7,1,,6167f106d8d301bd6433c8b1,62c53b074fe15b429b53c7db,2022-07-06_09h34.53.758,Colour_Asymmetry_Pilot,2022.1.3,Win32,60.0024001,62c50e9c1127f2cd403a315f,,,,,,,,,,,,,,,,,,,,,,,,,,,,,,,,,,,,,,,,,,,,,,,,,,,,,,,,,,,,,,,,,,,,,,,,,,,,,,,,,,,,,,,,,,,,,,,,,,,,,,,,,,,,,,,,,,,,,,,,,,,,,,,,,,,,,,,,,,,,,,,,,,,,,,,,,,,,,,,,,,,
0,11,11,75,1,,6167f106d8d301bd6433c8b1,62c53b074fe15b429b53c7db,2022-07-06_09h34.53.758,Colour_Asymmetry_Pilot,2022.1.3,Win32,60.0024001,62c50e9c1127f2cd403a315f,,,,,,,,,,,,,,,,,,,,,,,,,,,,,,,,,,,,,,,,,,,,,,,,,,,,,,,,,,,,,,,,,,,,,,,,,,,,,,,,,,,,,,,,,,,,,,,,,,,,,,,,,,,,,,,,,,,,,,,,,,,,,,,,,,,,,,,,,,,,,,,,,,,,,,,,,,,,,,,,,,,
0,12,12,73,1,,6167f106d8d301bd6433c8b1,62c53b074fe15b429b53c7db,2022-07-06_09h34.53.758,Colour_Asymmetry_Pilot,2022.1.3,Win32,60.0024001,62c50e9c1127f2cd403a315f,,,,,,,,,,,,,,,,,,,,,,,,,,,,,,,,,,,,,,,,,,,,,,,,,,,,,,,,,,,,,,,,,,,,,,,,,,,,,,,,,,,,,,,,,,,,,,,,,,,,,,,,,,,,,,,,,,,,,,,,,,,,,,,,,,,,,,,,,,,,,,,,,,,,,,,,,,,,,,,,,,,
0,13,13,41,1,,6167f106d8d301bd6433c8b1,62c53b074fe15b429b53c7db,2022-07-06_09h34.53.758,Colour_Asymmetry_Pilot,2022.1.3,Win32,60.0024001,62c50e9c1127f2cd403a315f,,,,,,,,,,,,,,,,,,,,,,,,,,,,,,,,,,,,,,,,,,,,,,,,,,,,,,,,,,,,,,,,,,,,,,,,,,,,,,,,,,,,,,,,,,,,,,,,,,,,,,,,,,,,,,,,,,,,,,,,,,,,,,,,,,,,,,,,,,,,,,,,,,,,,,,,,,,,,,,,,,,
0,14,14,20,1,,6167f106d8d301bd6433c8b1,62c53b074fe15b429b53c7db,2022-07-06_09h34.53.758,Colour_Asymmetry_Pilot,2022.1.3,Win32,60.0024001,62c50e9c1127f2cd403a315f,,,,,,,,,,,,,,,,,,,,,,,,,,,,,,,,,,,,,,,,,,,,,,,,,,,,,,,,,,,,,,,,,,,,,,,,,,,,,,,,,,,,,,,,,,,,,,,,,,,,,,,,,,,,,,,,,,,,,,,,,,,,,,,,,,,,,,,,,,,,,,,,,,,,,,,,,,,,,,,,,,,
0,15,15,18,1,,6167f106d8d301bd6433c8b1,62c53b074fe15b429b53c7db,2022-07-06_09h34.53.758,Colour_Asymmetry_Pilot,2022.1.3,Win32,60.0024001,62c50e9c1127f2cd403a315f,,,,,,,,,,,,,,,,,,,,,,,,,,,,,,,,,,,,,,,,,,,,,,,,,,,,,,,,,,,,,,,,,,,,,,,,,,,,,,,,,,,,,,,,,,,,,,,,,,,,,,,,,,,,,,,,,,,,,,,,,,,,,,,,,,,,,,,,,,,,,,,,,,,,,,,,,,,,,,,,,,,
0,16,16,56,1,,6167f106d8d301bd6433c8b1,62c53b074fe15b429b53c7db,2022-07-06_09h34.53.758,Colour_Asymmetry_Pilot,2022.1.3,Win32,60.0024001,62c50e9c1127f2cd403a315f,,,,,,,,,,,,,,,,,,,,,,,,,,,,,,,,,,,,,,,,,,,,,,,,,,,,,,,,,,,,,,,,,,,,,,,,,,,,,,,,,,,,,,,,,,,,,,,,,,,,,,,,,,,,,,,,,,,,,,,,,,,,,,,,,,,,,,,,,,,,,,,,,,,,,,,,,,,,,,,,,,,
0,17,17,58,1,,6167f106d8d301bd6433c8b1,62c53b074fe15b429b53c7db,2022-07-06_09h34.53.758,Colour_Asymmetry_Pilot,2022.1.3,Win32,60.0024001,62c50e9c1127f2cd403a315f,,,,,,,,,,,,,,,,,,,,,,,,,,,,,,,,,,,,,,,,,,,,,,,,,,,,,,,,,,,,,,,,,,,,,,,,,,,,,,,,,,,,,,,,,,,,,,,,,,,,,,,,,,,,,,,,,,,,,,,,,,,,,,,,,,,,,,,,,,,,,,,,,,,,,,,,,,,,,,,,,,,
0,18,18,78,1,,6167f106d8d301bd6433c8b1,62c53b074fe15b429b53c7db,2022-07-06_09h34.53.758,Colour_Asymmetry_Pilot,2022.1.3,Win32,60.0024001,62c50e9c1127f2cd403a315f,,,,,,,,,,,,,,,,,,,,,,,,,,,,,,,,,,,,,,,,,,,,,,,,,,,,,,,,,,,,,,,,,,,,,,,,,,,,,,,,,,,,,,,,,,,,,,,,,,,,,,,,,,,,,,,,,,,,,,,,,,,,,,,,,,,,,,,,,,,,,,,,,,,,,,,,,,,,,,,,,,,
0,19,19,25,1,,6167f106d8d301bd6433c8b1,62c53b074fe15b429b53c7db,2022-07-06_09h34.53.758,Colour_Asymmetry_Pilot,2022.1.3,Win32,60.0024001,62c50e9c1127f2cd403a315f,,,,,,,,,,,,,,,,,,,,,,,,,,,,,,,,,,,,,,,,,,,,,,,,,,,,,,,,,,,,,,,,,,,,,,,,,,,,,,,,,,,,,,,,,,,,,,,,,,,,,,,,,,,,,,,,,,,,,,,,,,,,,,,,,,,,,,,,,,,,,,,,,,,,,,,,,,,,,,,,,,,
0,20,20,57,1,,6167f106d8d301bd6433c8b1,62c53b074fe15b429b53c7db,2022-07-06_09h34.53.758,Colour_Asymmetry_Pilot,2022.1.3,Win32,60.0024001,62c50e9c1127f2cd403a315f,,,,,,,,,,,,,,,,,,,,,,,,,,,,,,,,,,,,,,,,,,,,,,,,,,,,,,,,,,,,,,,,,,,,,,,,,,,,,,,,,,,,,,,,,,,,,,,,,,,,,,,,,,,,,,,,,,,,,,,,,,,,,,,,,,,,,,,,,,,,,,,,,,,,,,,,,,,,,,,,,,,
0,21,21,43,1,,6167f106d8d301bd6433c8b1,62c53b074fe15b429b53c7db,2022-07-06_09h34.53.758,Colour_Asymmetry_Pilot,2022.1.3,Win32,60.0024001,62c50e9c1127f2cd403a315f,,,,,,,,,,,,,,,,,,,,,,,,,,,,,,,,,,,,,,,,,,,,,,,,,,,,,,,,,,,,,,,,,,,,,,,,,,,,,,,,,,,,,,,,,,,,,,,,,,,,,,,,,,,,,,,,,,,,,,,,,,,,,,,,,,,,,,,,,,,,,,,,,,,,,,,,,,,,,,,,,,,
0,22,22,59,1,,6167f106d8d301bd6433c8b1,62c53b074fe15b429b53c7db,2022-07-06_09h34.53.758,Colour_Asymmetry_Pilot,2022.1.3,Win32,60.0024001,62c50e9c1127f2cd403a315f,,,,,,,,,,,,,,,,,,,,,,,,,,,,,,,,,,,,,,,,,,,,,,,,,,,,,,,,,,,,,,,,,,,,,,,,,,,,,,,,,,,,,,,,,,,,,,,,,,,,,,,,,,,,,,,,,,,,,,,,,,,,,,,,,,,,,,,,,,,,,,,,,,,,,,,,,,,,,,,,,,,
0,23,23,16,1,,6167f106d8d301bd6433c8b1,62c53b074fe15b429b53c7db,2022-07-06_09h34.53.758,Colour_Asymmetry_Pilot,2022.1.3,Win32,60.0024001,62c50e9c1127f2cd403a315f,,,,,,,,,,,,,,,,,,,,,,,,,,,,,,,,,,,,,,,,,,,,,,,,,,,,,,,,,,,,,,,,,,,,,,,,,,,,,,,,,,,,,,,,,,,,,,,,,,,,,,,,,,,,,,,,,,,,,,,,,,,,,,,,,,,,,,,,,,,,,,,,,,,,,,,,,,,,,,,,,,,
0,24,24,39,1,,6167f106d8d301bd6433c8b1,62c53b074fe15b429b53c7db,2022-07-06_09h34.53.758,Colour_Asymmetry_Pilot,2022.1.3,Win32,60.0024001,62c50e9c1127f2cd403a315f,,,,,,,,,,,,,,,,,,,,,,,,,,,,,,,,,,,,,,,,,,,,,,,,,,,,,,,,,,,,,,,,,,,,,,,,,,,,,,,,,,,,,,,,,,,,,,,,,,,,,,,,,,,,,,,,,,,,,,,,,,,,,,,,,,,,,,,,,,,,,,,,,,,,,,,,,,,,,,,,,,,
0,25,25,76,1,,6167f106d8d301bd6433c8b1,62c53b074fe15b429b53c7db,2022-07-06_09h34.53.758,Colour_Asymmetry_Pilot,2022.1.3,Win32,60.0024001,62c50e9c1127f2cd403a315f,,,,,,,,,,,,,,,,,,,,,,,,,,,,,,,,,,,,,,,,,,,,,,,,,,,,,,,,,,,,,,,,,,,,,,,,,,,,,,,,,,,,,,,,,,,,,,,,,,,,,,,,,,,,,,,,,,,,,,,,,,,,,,,,,,,,,,,,,,,,,,,,,,,,,,,,,,,,,,,,,,,
0,26,26,82,1,,6167f106d8d301bd6433c8b1,62c53b074fe15b429b53c7db,2022-07-06_09h34.53.758,Colour_Asymmetry_Pilot,2022.1.3,Win32,60.0024001,62c50e9c1127f2cd403a315f,,,,,,,,,,,,,,,,,,,,,,,,,,,,,,,,,,,,,,,,,,,,,,,,,,,,,,,,,,,,,,,,,,,,,,,,,,,,,,,,,,,,,,,,,,,,,,,,,,,,,,,,,,,,,,,,,,,,,,,,,,,,,,,,,,,,,,,,,,,,,,,,,,,,,,,,,,,,,,,,,,,
0,27,27,51,1,,6167f106d8d301bd6433c8b1,62c53b074fe15b429b53c7db,2022-07-06_09h34.53.758,Colour_Asymmetry_Pilot,2022.1.3,Win32,60.0024001,62c50e9c1127f2cd403a315f,,,,,,,,,,,,,,,,,,,,,,,,,,,,,,,,,,,,,,,,,,,,,,,,,,,,,,,,,,,,,,,,,,,,,,,,,,,,,,,,,,,,,,,,,,,,,,,,,,,,,,,,,,,,,,,,,,,,,,,,,,,,,,,,,,,,,,,,,,,,,,,,,,,,,,,,,,,,,,,,,,,
0,28,28,46,1,,6167f106d8d301bd6433c8b1,62c53b074fe15b429b53c7db,2022-07-06_09h34.53.758,Colour_Asymmetry_Pilot,2022.1.3,Win32,60.0024001,62c50e9c1127f2cd403a315f,,,,,,,,,,,,,,,,,,,,,,,,,,,,,,,,,,,,,,,,,,,,,,,,,,,,,,,,,,,,,,,,,,,,,,,,,,,,,,,,,,,,,,,,,,,,,,,,,,,,,,,,,,,,,,,,,,,,,,,,,,,,,,,,,,,,,,,,,,,,,,,,,,,,,,,,,,,,,,,,,,,
0,29,29,23,1,,6167f106d8d301bd6433c8b1,62c53b074fe15b429b53c7db,2022-07-06_09h34.53.758,Colour_Asymmetry_Pilot,2022.1.3,Win32,60.0024001,62c50e9c1127f2cd403a315f,,,,,,,,,,,,,,,,,,,,,,,,,,,,,,,,,,,,,,,,,,,,,,,,,,,,,,,,,,,,,,,,,,,,,,,,,,,,,,,,,,,,,,,,,,,,,,,,,,,,,,,,,,,,,,,,,,,,,,,,,,,,,,,,,,,,,,,,,,,,,,,,,,,,,,,,,,,,,,,,,,,
0,30,30,6,1,,6167f106d8d301bd6433c8b1,62c53b074fe15b429b53c7db,2022-07-06_09h34.53.758,Colour_Asymmetry_Pilot,2022.1.3,Win32,60.0024001,62c50e9c1127f2cd403a315f,,,,,,,,,,,,,,,,,,,,,,,,,,,,,,,,,,,,,,,,,,,,,,,,,,,,,,,,,,,,,,,,,,,,,,,,,,,,,,,,,,,,,,,,,,,,,,,,,,,,,,,,,,,,,,,,,,,,,,,,,,,,,,,,,,,,,,,,,,,,,,,,,,,,,,,,,,,,,,,,,,,
0,31,31,15,1,,6167f106d8d301bd6433c8b1,62c53b074fe15b429b53c7db,2022-07-06_09h34.53.758,Colour_Asymmetry_Pilot,2022.1.3,Win32,60.0024001,62c50e9c1127f2cd403a315f,,,,,,,,,,,,,,,,,,,,,,,,,,,,,,,,,,,,,,,,,,,,,,,,,,,,,,,,,,,,,,,,,,,,,,,,,,,,,,,,,,,,,,,,,,,,,,,,,,,,,,,,,,,,,,,,,,,,,,,,,,,,,,,,,,,,,,,,,,,,,,,,,,,,,,,,,,,,,,,,,,,
0,32,32,61,1,,6167f106d8d301bd6433c8b1,62c53b074fe15b429b53c7db,2022-07-06_09h34.53.758,Colour_Asymmetry_Pilot,2022.1.3,Win32,60.0024001,62c50e9c1127f2cd403a315f,,,,,,,,,,,,,,,,,,,,,,,,,,,,,,,,,,,,,,,,,,,,,,,,,,,,,,,,,,,,,,,,,,,,,,,,,,,,,,,,,,,,,,,,,,,,,,,,,,,,,,,,,,,,,,,,,,,,,,,,,,,,,,,,,,,,,,,,,,,,,,,,,,,,,,,,,,,,,,,,,,,
0,33,33,49,1,,6167f106d8d301bd6433c8b1,62c53b074fe15b429b53c7db,2022-07-06_09h34.53.758,Colour_Asymmetry_Pilot,2022.1.3,Win32,60.0024001,62c50e9c1127f2cd403a315f,,,,,,,,,,,,,,,,,,,,,,,,,,,,,,,,,,,,,,,,,,,,,,,,,,,,,,,,,,,,,,,,,,,,,,,,,,,,,,,,,,,,,,,,,,,,,,,,,,,,,,,,,,,,,,,,,,,,,,,,,,,,,,,,,,,,,,,,,,,,,,,,,,,,,,,,,,,,,,,,,,,
0,34,34,52,1,,6167f106d8d301bd6433c8b1,62c53b074fe15b429b53c7db,2022-07-06_09h34.53.758,Colour_Asymmetry_Pilot,2022.1.3,Win32,60.0024001,62c50e9c1127f2cd403a315f,,,,,,,,,,,,,,,,,,,,,,,,,,,,,,,,,,,,,,,,,,,,,,,,,,,,,,,,,,,,,,,,,,,,,,,,,,,,,,,,,,,,,,,,,,,,,,,,,,,,,,,,,,,,,,,,,,,,,,,,,,,,,,,,,,,,,,,,,,,,,,,,,,,,,,,,,,,,,,,,,,,
0,35,35,63,1,,6167f106d8d301bd6433c8b1,62c53b074fe15b429b53c7db,2022-07-06_09h34.53.758,Colour_Asymmetry_Pilot,2022.1.3,Win32,60.0024001,62c50e9c1127f2cd403a315f,,,,,,,,,,,,,,,,,,,,,,,,,,,,,,,,,,,,,,,,,,,,,,,,,,,,,,,,,,,,,,,,,,,,,,,,,,,,,,,,,,,,,,,,,,,,,,,,,,,,,,,,,,,,,,,,,,,,,,,,,,,,,,,,,,,,,,,,,,,,,,,,,,,,,,,,,,,,,,,,,,,
0,36,36,71,1,,6167f106d8d301bd6433c8b1,62c53b074fe15b429b53c7db,2022-07-06_09h34.53.758,Colour_Asymmetry_Pilot,2022.1.3,Win32,60.0024001,62c50e9c1127f2cd403a315f,,,,,,,,,,,,,,,,,,,,,,,,,,,,,,,,,,,,,,,,,,,,,,,,,,,,,,,,,,,,,,,,,,,,,,,,,,,,,,,,,,,,,,,,,,,,,,,,,,,,,,,,,,,,,,,,,,,,,,,,,,,,,,,,,,,,,,,,,,,,,,,,,,,,,,,,,,,,,,,,,,,
0,37,37,79,1,,6167f106d8d301bd6433c8b1,62c53b074fe15b429b53c7db,2022-07-06_09h34.53.758,Colour_Asymmetry_Pilot,2022.1.3,Win32,60.0024001,62c50e9c1127f2cd403a315f,,,,,,,,,,,,,,,,,,,,,,,,,,,,,,,,,,,,,,,,,,,,,,,,,,,,,,,,,,,,,,,,,,,,,,,,,,,,,,,,,,,,,,,,,,,,,,,,,,,,,,,,,,,,,,,,,,,,,,,,,,,,,,,,,,,,,,,,,,,,,,,,,,,,,,,,,,,,,,,,,,,
0,38,38,80,1,,6167f106d8d301bd6433c8b1,62c53b074fe15b429b53c7db,2022-07-06_09h34.53.758,Colour_Asymmetry_Pilot,2022.1.3,Win32,60.0024001,62c50e9c1127f2cd403a315f,,,,,,,,,,,,,,,,,,,,,,,,,,,,,,,,,,,,,,,,,,,,,,,,,,,,,,,,,,,,,,,,,,,,,,,,,,,,,,,,,,,,,,,,,,,,,,,,,,,,,,,,,,,,,,,,,,,,,,,,,,,,,,,,,,,,,,,,,,,,,,,,,,,,,,,,,,,,,,,,,,,
0,39,39,28,1,,6167f106d8d301bd6433c8b1,62c53b074fe15b429b53c7db,2022-07-06_09h34.53.758,Colour_Asymmetry_Pilot,2022.1.3,Win32,60.0024001,62c50e9c1127f2cd403a315f,,,,,,,,,,,,,,,,,,,,,,,,,,,,,,,,,,,,,,,,,,,,,,,,,,,,,,,,,,,,,,,,,,,,,,,,,,,,,,,,,,,,,,,,,,,,,,,,,,,,,,,,,,,,,,,,,,,,,,,,,,,,,,,,,,,,,,,,,,,,,,,,,,,,,,,,,,,,,,,,,,,
0,40,40,34,1,,6167f106d8d301bd6433c8b1,62c53b074fe15b429b53c7db,2022-07-06_09h34.53.758,Colour_Asymmetry_Pilot,2022.1.3,Win32,60.0024001,62c50e9c1127f2cd403a315f,,,,,,,,,,,,,,,,,,,,,,,,,,,,,,,,,,,,,,,,,,,,,,,,,,,,,,,,,,,,,,,,,,,,,,,,,,,,,,,,,,,,,,,,,,,,,,,,,,,,,,,,,,,,,,,,,,,,,,,,,,,,,,,,,,,,,,,,,,,,,,,,,,,,,,,,,,,,,,,,,,,
0,41,41,66,1,,6167f106d8d301bd6433c8b1,62c53b074fe15b429b53c7db,2022-07-06_09h34.53.758,Colour_Asymmetry_Pilot,2022.1.3,Win32,60.0024001,62c50e9c1127f2cd403a315f,,,,,,,,,,,,,,,,,,,,,,,,,,,,,,,,,,,,,,,,,,,,,,,,,,,,,,,,,,,,,,,,,,,,,,,,,,,,,,,,,,,,,,,,,,,,,,,,,,,,,,,,,,,,,,,,,,,,,,,,,,,,,,,,,,,,,,,,,,,,,,,,,,,,,,,,,,,,,,,,,,,
0,42,42,50,1,,6167f106d8d301bd6433c8b1,62c53b074fe15b429b53c7db,2022-07-06_09h34.53.758,Colour_Asymmetry_Pilot,2022.1.3,Win32,60.0024001,62c50e9c1127f2cd403a315f,,,,,,,,,,,,,,,,,,,,,,,,,,,,,,,,,,,,,,,,,,,,,,,,,,,,,,,,,,,,,,,,,,,,,,,,,,,,,,,,,,,,,,,,,,,,,,,,,,,,,,,,,,,,,,,,,,,,,,,,,,,,,,,,,,,,,,,,,,,,,,,,,,,,,,,,,,,,,,,,,,,
0,43,43,38,1,,6167f106d8d301bd6433c8b1,62c53b074fe15b429b53c7db,2022-07-06_09h34.53.758,Colour_Asymmetry_Pilot,2022.1.3,Win32,60.0024001,62c50e9c1127f2cd403a315f,,,,,,,,,,,,,,,,,,,,,,,,,,,,,,,,,,,,,,,,,,,,,,,,,,,,,,,,,,,,,,,,,,,,,,,,,,,,,,,,,,,,,,,,,,,,,,,,,,,,,,,,,,,,,,,,,,,,,,,,,,,,,,,,,,,,,,,,,,,,,,,,,,,,,,,,,,,,,,,,,,,
0,44,44,72,1,,6167f106d8d301bd6433c8b1,62c53b074fe15b429b53c7db,2022-07-06_09h34.53.758,Colour_Asymmetry_Pilot,2022.1.3,Win32,60.0024001,62c50e9c1127f2cd403a315f,,,,,,,,,,,,,,,,,,,,,,,,,,,,,,,,,,,,,,,,,,,,,,,,,,,,,,,,,,,,,,,,,,,,,,,,,,,,,,,,,,,,,,,,,,,,,,,,,,,,,,,,,,,,,,,,,,,,,,,,,,,,,,,,,,,,,,,,,,,,,,,,,,,,,,,,,,,,,,,,,,,
0,45,45,77,1,,6167f106d8d301bd6433c8b1,62c53b074fe15b429b53c7db,2022-07-06_09h34.53.758,Colour_Asymmetry_Pilot,2022.1.3,Win32,60.0024001,62c50e9c1127f2cd403a315f,,,,,,,,,,,,,,,,,,,,,,,,,,,,,,,,,,,,,,,,,,,,,,,,,,,,,,,,,,,,,,,,,,,,,,,,,,,,,,,,,,,,,,,,,,,,,,,,,,,,,,,,,,,,,,,,,,,,,,,,,,,,,,,,,,,,,,,,,,,,,,,,,,,,,,,,,,,,,,,,,,,
0,46,46,70,1,,6167f106d8d301bd6433c8b1,62c53b074fe15b429b53c7db,2022-07-06_09h34.53.758,Colour_Asymmetry_Pilot,2022.1.3,Win32,60.0024001,62c50e9c1127f2cd403a315f,,,,,,,,,,,,,,,,,,,,,,,,,,,,,,,,,,,,,,,,,,,,,,,,,,,,,,,,,,,,,,,,,,,,,,,,,,,,,,,,,,,,,,,,,,,,,,,,,,,,,,,,,,,,,,,,,,,,,,,,,,,,,,,,,,,,,,,,,,,,,,,,,,,,,,,,,,,,,,,,,,,
0,47,47,11,1,,6167f106d8d301bd6433c8b1,62c53b074fe15b429b53c7db,2022-07-06_09h34.53.758,Colour_Asymmetry_Pilot,2022.1.3,Win32,60.0024001,62c50e9c1127f2cd403a315f,,,,,,,,,,,,,,,,,,,,,,,,,,,,,,,,,,,,,,,,,,,,,,,,,,,,,,,,,,,,,,,,,,,,,,,,,,,,,,,,,,,,,,,,,,,,,,,,,,,,,,,,,,,,,,,,,,,,,,,,,,,,,,,,,,,,,,,,,,,,,,,,,,,,,,,,,,,,,,,,,,,
0,48,48,17,1,,6167f106d8d301bd6433c8b1,62c53b074fe15b429b53c7db,2022-07-06_09h34.53.758,Colour_Asymmetry_Pilot,2022.1.3,Win32,60.0024001,62c50e9c1127f2cd403a315f,,,,,,,,,,,,,,,,,,,,,,,,,,,,,,,,,,,,,,,,,,,,,,,,,,,,,,,,,,,,,,,,,,,,,,,,,,,,,,,,,,,,,,,,,,,,,,,,,,,,,,,,,,,,,,,,,,,,,,,,,,,,,,,,,,,,,,,,,,,,,,,,,,,,,,,,,,,,,,,,,,,
0,49,49,19,1,,6167f106d8d301bd6433c8b1,62c53b074fe15b429b53c7db,2022-07-06_09h34.53.758,Colour_Asymmetry_Pilot,2022.1.3,Win32,60.0024001,62c50e9c1127f2cd403a315f,,,,,,,,,,,,,,,,,,,,,,,,,,,,,,,,,,,,,,,,,,,,,,,,,,,,,,,,,,,,,,,,,,,,,,,,,,,,,,,,,,,,,,,,,,,,,,,,,,,,,,,,,,,,,,,,,,,,,,,,,,,,,,,,,,,,,,,,,,,,,,,,,,,,,,,,,,,,,,,,,,,
0,50,50,90,1,,6167f106d8d301bd6433c8b1,62c53b074fe15b429b53c7db,2022-07-06_09h34.53.758,Colour_Asymmetry_Pilot,2022.1.3,Win32,60.0024001,62c50e9c1127f2cd403a315f,,,,,,,,,,,,,,,,,,,,,,,,,,,,,,,,,,,,,,,,,,,,,,,,,,,,,,,,,,,,,,,,,,,,,,,,,,,,,,,,,,,,,,,,,,,,,,,,,,,,,,,,,,,,,,,,,,,,,,,,,,,,,,,,,,,,,,,,,,,,,,,,,,,,,,,,,,,,,,,,,,,
0,51,51,9,1,,6167f106d8d301bd6433c8b1,62c53b074fe15b429b53c7db,2022-07-06_09h34.53.758,Colour_Asymmetry_Pilot,2022.1.3,Win32,60.0024001,62c50e9c1127f2cd403a315f,,,,,,,,,,,,,,,,,,,,,,,,,,,,,,,,,,,,,,,,,,,,,,,,,,,,,,,,,,,,,,,,,,,,,,,,,,,,,,,,,,,,,,,,,,,,,,,,,,,,,,,,,,,,,,,,,,,,,,,,,,,,,,,,,,,,,,,,,,,,,,,,,,,,,,,,,,,,,,,,,,,
0,52,52,2,1,,6167f106d8d301bd6433c8b1,62c53b074fe15b429b53c7db,2022-07-06_09h34.53.758,Colour_Asymmetry_Pilot,2022.1.3,Win32,60.0024001,62c50e9c1127f2cd403a315f,,,,,,,,,,,,,,,,,,,,,,,,,,,,,,,,,,,,,,,,,,,,,,,,,,,,,,,,,,,,,,,,,,,,,,,,,,,,,,,,,,,,,,,,,,,,,,,,,,,,,,,,,,,,,,,,,,,,,,,,,,,,,,,,,,,,,,,,,,,,,,,,,,,,,,,,,,,,,,,,,,,
0,53,53,48,1,,6167f106d8d301bd6433c8b1,62c53b074fe15b429b53c7db,2022-07-06_09h34.53.758,Colour_Asymmetry_Pilot,2022.1.3,Win32,60.0024001,62c50e9c1127f2cd403a315f,,,,,,,,,,,,,,,,,,,,,,,,,,,,,,,,,,,,,,,,,,,,,,,,,,,,,,,,,,,,,,,,,,,,,,,,,,,,,,,,,,,,,,,,,,,,,,,,,,,,,,,,,,,,,,,,,,,,,,,,,,,,,,,,,,,,,,,,,,,,,,,,,,,,,,,,,,,,,,,,,,,
0,54,54,86,1,,6167f106d8d301bd6433c8b1,62c53b074fe15b429b53c7db,2022-07-06_09h34.53.758,Colour_Asymmetry_Pilot,2022.1.3,Win32,60.0024001,62c50e9c1127f2cd403a315f,,,,,,,,,,,,,,,,,,,,,,,,,,,,,,,,,,,,,,,,,,,,,,,,,,,,,,,,,,,,,,,,,,,,,,,,,,,,,,,,,,,,,,,,,,,,,,,,,,,,,,,,,,,,,,,,,,,,,,,,,,,,,,,,,,,,,,,,,,,,,,,,,,,,,,,,,,,,,,,,,,,
0,55,55,62,1,,6167f106d8d301bd6433c8b1,62c53b074fe15b429b53c7db,2022-07-06_09h34.53.758,Colour_Asymmetry_Pilot,2022.1.3,Win32,60.0024001,62c50e9c1127f2cd403a315f,,,,,,,,,,,,,,,,,,,,,,,,,,,,,,,,,,,,,,,,,,,,,,,,,,,,,,,,,,,,,,,,,,,,,,,,,,,,,,,,,,,,,,,,,,,,,,,,,,,,,,,,,,,,,,,,,,,,,,,,,,,,,,,,,,,,,,,,,,,,,,,,,,,,,,,,,,,,,,,,,,,
0,56,56,69,1,,6167f106d8d301bd6433c8b1,62c53b074fe15b429b53c7db,2022-07-06_09h34.53.758,Colour_Asymmetry_Pilot,2022.1.3,Win32,60.0024001,62c50e9c1127f2cd403a315f,,,,,,,,,,,,,,,,,,,,,,,,,,,,,,,,,,,,,,,,,,,,,,,,,,,,,,,,,,,,,,,,,,,,,,,,,,,,,,,,,,,,,,,,,,,,,,,,,,,,,,,,,,,,,,,,,,,,,,,,,,,,,,,,,,,,,,,,,,,,,,,,,,,,,,,,,,,,,,,,,,,
0,57,57,81,1,,6167f106d8d301bd6433c8b1,62c53b074fe15b429b53c7db,2022-07-06_09h34.53.758,Colour_Asymmetry_Pilot,2022.1.3,Win32,60.0024001,62c50e9c1127f2cd403a315f,,,,,,,,,,,,,,,,,,,,,,,,,,,,,,,,,,,,,,,,,,,,,,,,,,,,,,,,,,,,,,,,,,,,,,,,,,,,,,,,,,,,,,,,,,,,,,,,,,,,,,,,,,,,,,,,,,,,,,,,,,,,,,,,,,,,,,,,,,,,,,,,,,,,,,,,,,,,,,,,,,,
0,58,58,32,1,,6167f106d8d301bd6433c8b1,62c53b074fe15b429b53c7db,2022-07-06_09h34.53.758,Colour_Asymmetry_Pilot,2022.1.3,Win32,60.0024001,62c50e9c1127f2cd403a315f,,,,,,,,,,,,,,,,,,,,,,,,,,,,,,,,,,,,,,,,,,,,,,,,,,,,,,,,,,,,,,,,,,,,,,,,,,,,,,,,,,,,,,,,,,,,,,,,,,,,,,,,,,,,,,,,,,,,,,,,,,,,,,,,,,,,,,,,,,,,,,,,,,,,,,,,,,,,,,,,,,,
0,59,59,3,1,,6167f106d8d301bd6433c8b1,62c53b074fe15b429b53c7db,2022-07-06_09h34.53.758,Colour_Asymmetry_Pilot,2022.1.3,Win32,60.0024001,62c50e9c1127f2cd403a315f,,,,,,,,,,,,,,,,,,,,,,,,,,,,,,,,,,,,,,,,,,,,,,,,,,,,,,,,,,,,,,,,,,,,,,,,,,,,,,,,,,,,,,,,,,,,,,,,,,,,,,,,,,,,,,,,,,,,,,,,,,,,,,,,,,,,,,,,,,,,,,,,,,,,,,,,,,,,,,,,,,,
0,60,60,21,1,,6167f106d8d301bd6433c8b1,62c53b074fe15b429b53c7db,2022-07-06_09h34.53.758,Colour_Asymmetry_Pilot,2022.1.3,Win32,60.0024001,62c50e9c1127f2cd403a315f,,,,,,,,,,,,,,,,,,,,,,,,,,,,,,,,,,,,,,,,,,,,,,,,,,,,,,,,,,,,,,,,,,,,,,,,,,,,,,,,,,,,,,,,,,,,,,,,,,,,,,,,,,,,,,,,,,,,,,,,,,,,,,,,,,,,,,,,,,,,,,,,,,,,,,,,,,,,,,,,,,,
0,61,61,45,1,,6167f106d8d301bd6433c8b1,62c53b074fe15b429b53c7db,2022-07-06_09h34.53.758,Colour_Asymmetry_Pilot,2022.1.3,Win32,60.0024001,62c50e9c1127f2cd403a315f,,,,,,,,,,,,,,,,,,,,,,,,,,,,,,,,,,,,,,,,,,,,,,,,,,,,,,,,,,,,,,,,,,,,,,,,,,,,,,,,,,,,,,,,,,,,,,,,,,,,,,,,,,,,,,,,,,,,,,,,,,,,,,,,,,,,,,,,,,,,,,,,,,,,,,,,,,,,,,,,,,,
0,62,62,65,1,,6167f106d8d301bd6433c8b1,62c53b074fe15b429b53c7db,2022-07-06_09h34.53.758,Colour_Asymmetry_Pilot,2022.1.3,Win32,60.0024001,62c50e9c1127f2cd403a315f,,,,,,,,,,,,,,,,,,,,,,,,,,,,,,,,,,,,,,,,,,,,,,,,,,,,,,,,,,,,,,,,,,,,,,,,,,,,,,,,,,,,,,,,,,,,,,,,,,,,,,,,,,,,,,,,,,,,,,,,,,,,,,,,,,,,,,,,,,,,,,,,,,,,,,,,,,,,,,,,,,,
0,63,63,22,1,,6167f106d8d301bd6433c8b1,62c53b074fe15b429b53c7db,2022-07-06_09h34.53.758,Colour_Asymmetry_Pilot,2022.1.3,Win32,60.0024001,62c50e9c1127f2cd403a315f,,,,,,,,,,,,,,,,,,,,,,,,,,,,,,,,,,,,,,,,,,,,,,,,,,,,,,,,,,,,,,,,,,,,,,,,,,,,,,,,,,,,,,,,,,,,,,,,,,,,,,,,,,,,,,,,,,,,,,,,,,,,,,,,,,,,,,,,,,,,,,,,,,,,,,,,,,,,,,,,,,,
0,64,64,44,1,,6167f106d8d301bd6433c8b1,62c53b074fe15b429b53c7db,2022-07-06_09h34.53.758,Colour_Asymmetry_Pilot,2022.1.3,Win32,60.0024001,62c50e9c1127f2cd403a315f,,,,,,,,,,,,,,,,,,,,,,,,,,,,,,,,,,,,,,,,,,,,,,,,,,,,,,,,,,,,,,,,,,,,,,,,,,,,,,,,,,,,,,,,,,,,,,,,,,,,,,,,,,,,,,,,,,,,,,,,,,,,,,,,,,,,,,,,,,,,,,,,,,,,,,,,,,,,,,,,,,,
0,65,65,67,1,,6167f106d8d301bd6433c8b1,62c53b074fe15b429b53c7db,2022-07-06_09h34.53.758,Colour_Asymmetry_Pilot,2022.1.3,Win32,60.0024001,62c50e9c1127f2cd403a315f,,,,,,,,,,,,,,,,,,,,,,,,,,,,,,,,,,,,,,,,,,,,,,,,,,,,,,,,,,,,,,,,,,,,,,,,,,,,,,,,,,,,,,,,,,,,,,,,,,,,,,,,,,,,,,,,,,,,,,,,,,,,,,,,,,,,,,,,,,,,,,,,,,,,,,,,,,,,,,,,,,,
0,66,66,64,1,,6167f106d8d301bd6433c8b1,62c53b074fe15b429b53c7db,2022-07-06_09h34.53.758,Colour_Asymmetry_Pilot,2022.1.3,Win32,60.0024001,62c50e9c1127f2cd403a315f,,,,,,,,,,,,,,,,,,,,,,,,,,,,,,,,,,,,,,,,,,,,,,,,,,,,,,,,,,,,,,,,,,,,,,,,,,,,,,,,,,,,,,,,,,,,,,,,,,,,,,,,,,,,,,,,,,,,,,,,,,,,,,,,,,,,,,,,,,,,,,,,,,,,,,,,,,,,,,,,,,,
0,67,67,30,1,,6167f106d8d301bd6433c8b1,62c53b074fe15b429b53c7db,2022-07-06_09h34.53.758,Colour_Asymmetry_Pilot,2022.1.3,Win32,60.0024001,62c50e9c1127f2cd403a315f,,,,,,,,,,,,,,,,,,,,,,,,,,,,,,,,,,,,,,,,,,,,,,,,,,,,,,,,,,,,,,,,,,,,,,,,,,,,,,,,,,,,,,,,,,,,,,,,,,,,,,,,,,,,,,,,,,,,,,,,,,,,,,,,,,,,,,,,,,,,,,,,,,,,,,,,,,,,,,,,,,,
0,68,68,36,1,,6167f106d8d301bd6433c8b1,62c53b074fe15b429b53c7db,2022-07-06_09h34.53.758,Colour_Asymmetry_Pilot,2022.1.3,Win32,60.0024001,62c50e9c1127f2cd403a315f,,,,,,,,,,,,,,,,,,,,,,,,,,,,,,,,,,,,,,,,,,,,,,,,,,,,,,,,,,,,,,,,,,,,,,,,,,,,,,,,,,,,,,,,,,,,,,,,,,,,,,,,,,,,,,,,,,,,,,,,,,,,,,,,,,,,,,,,,,,,,,,,,,,,,,,,,,,,,,,,,,,
0,69,69,1,1,,6167f106d8d301bd6433c8b1,62c53b074fe15b429b53c7db,2022-07-06_09h34.53.758,Colour_Asymmetry_Pilot,2022.1.3,Win32,60.0024001,62c50e9c1127f2cd403a315f,,,,,,,,,,,,,,,,,,,,,,,,,,,,,,,,,,,,,,,,,,,,,,,,,,,,,,,,,,,,,,,,,,,,,,,,,,,,,,,,,,,,,,,,,,,,,,,,,,,,,,,,,,,,,,,,,,,,,,,,,,,,,,,,,,,,,,,,,,,,,,,,,,,,,,,,,,,,,,,,,,,
0,70,70,60,1,,6167f106d8d301bd6433c8b1,62c53b074fe15b429b53c7db,2022-07-06_09h34.53.758,Colour_Asymmetry_Pilot,2022.1.3,Win32,60.0024001,62c50e9c1127f2cd403a315f,,,,,,,,,,,,,,,,,,,,,,,,,,,,,,,,,,,,,,,,,,,,,,,,,,,,,,,,,,,,,,,,,,,,,,,,,,,,,,,,,,,,,,,,,,,,,,,,,,,,,,,,,,,,,,,,,,,,,,,,,,,,,,,,,,,,,,,,,,,,,,,,,,,,,,,,,,,,,,,,,,,
0,71,71,92,1,,6167f106d8d301bd6433c8b1,62c53b074fe15b429b53c7db,2022-07-06_09h34.53.758,Colour_Asymmetry_Pilot,2022.1.3,Win32,60.0024001,62c50e9c1127f2cd403a315f,,,,,,,,,,,,,,,,,,,,,,,,,,,,,,,,,,,,,,,,,,,,,,,,,,,,,,,,,,,,,,,,,,,,,,,,,,,,,,,,,,,,,,,,,,,,,,,,,,,,,,,,,,,,,,,,,,,,,,,,,,,,,,,,,,,,,,,,,,,,,,,,,,,,,,,,,,,,,,,,,,,
0,72,72,87,1,,6167f106d8d301bd6433c8b1,62c53b074fe15b429b53c7db,2022-07-06_09h34.53.758,Colour_Asymmetry_Pilot,2022.1.3,Win32,60.0024001,62c50e9c1127f2cd403a315f,,,,,,,,,,,,,,,,,,,,,,,,,,,,,,,,,,,,,,,,,,,,,,,,,,,,,,,,,,,,,,,,,,,,,,,,,,,,,,,,,,,,,,,,,,,,,,,,,,,,,,,,,,,,,,,,,,,,,,,,,,,,,,,,,,,,,,,,,,,,,,,,,,,,,,,,,,,,,,,,,,,
0,73,73,55,1,,6167f106d8d301bd6433c8b1,62c53b074fe15b429b53c7db,2022-07-06_09h34.53.758,Colour_Asymmetry_Pilot,2022.1.3,Win32,60.0024001,62c50e9c1127f2cd403a315f,,,,,,,,,,,,,,,,,,,,,,,,,,,,,,,,,,,,,,,,,,,,,,,,,,,,,,,,,,,,,,,,,,,,,,,,,,,,,,,,,,,,,,,,,,,,,,,,,,,,,,,,,,,,,,,,,,,,,,,,,,,,,,,,,,,,,,,,,,,,,,,,,,,,,,,,,,,,,,,,,,,
0,74,74,4,1,,6167f106d8d301bd6433c8b1,62c53b074fe15b429b53c7db,2022-07-06_09h34.53.758,Colour_Asymmetry_Pilot,2022.1.3,Win32,60.0024001,62c50e9c1127f2cd403a315f,,,,,,,,,,,,,,,,,,,,,,,,,,,,,,,,,,,,,,,,,,,,,,,,,,,,,,,,,,,,,,,,,,,,,,,,,,,,,,,,,,,,,,,,,,,,,,,,,,,,,,,,,,,,,,,,,,,,,,,,,,,,,,,,,,,,,,,,,,,,,,,,,,,,,,,,,,,,,,,,,,,
0,75,75,33,1,,6167f106d8d301bd6433c8b1,62c53b074fe15b429b53c7db,2022-07-06_09h34.53.758,Colour_Asymmetry_Pilot,2022.1.3,Win32,60.0024001,62c50e9c1127f2cd403a315f,,,,,,,,,,,,,,,,,,,,,,,,,,,,,,,,,,,,,,,,,,,,,,,,,,,,,,,,,,,,,,,,,,,,,,,,,,,,,,,,,,,,,,,,,,,,,,,,,,,,,,,,,,,,,,,,,,,,,,,,,,,,,,,,,,,,,,,,,,,,,,,,,,,,,,,,,,,,,,,,,,,
0,76,76,31,1,,6167f106d8d301bd6433c8b1,62c53b074fe15b429b53c7db,2022-07-06_09h34.53.758,Colour_Asymmetry_Pilot,2022.1.3,Win32,60.0024001,62c50e9c1127f2cd403a315f,,,,,,,,,,,,,,,,,,,,,,,,,,,,,,,,,,,,,,,,,,,,,,,,,,,,,,,,,,,,,,,,,,,,,,,,,,,,,,,,,,,,,,,,,,,,,,,,,,,,,,,,,,,,,,,,,,,,,,,,,,,,,,,,,,,,,,,,,,,,,,,,,,,,,,,,,,,,,,,,,,,
0,77,77,5,1,,6167f106d8d301bd6433c8b1,62c53b074fe15b429b53c7db,2022-07-06_09h34.53.758,Colour_Asymmetry_Pilot,2022.1.3,Win32,60.0024001,62c50e9c1127f2cd403a315f,,,,,,,,,,,,,,,,,,,,,,,,,,,,,,,,,,,,,,,,,,,,,,,,,,,,,,,,,,,,,,,,,,,,,,,,,,,,,,,,,,,,,,,,,,,,,,,,,,,,,,,,,,,,,,,,,,,,,,,,,,,,,,,,,,,,,,,,,,,,,,,,,,,,,,,,,,,,,,,,,,,
0,78,78,29,1,,6167f106d8d301bd6433c8b1,62c53b074fe15b429b53c7db,2022-07-06_09h34.53.758,Colour_Asymmetry_Pilot,2022.1.3,Win32,60.0024001,62c50e9c1127f2cd403a315f,,,,,,,,,,,,,,,,,,,,,,,,,,,,,,,,,,,,,,,,,,,,,,,,,,,,,,,,,,,,,,,,,,,,,,,,,,,,,,,,,,,,,,,,,,,,,,,,,,,,,,,,,,,,,,,,,,,,,,,,,,,,,,,,,,,,,,,,,,,,,,,,,,,,,,,,,,,,,,,,,,,
0,79,79,68,1,,6167f106d8d301bd6433c8b1,62c53b074fe15b429b53c7db,2022-07-06_09h34.53.758,Colour_Asymmetry_Pilot,2022.1.3,Win32,60.0024001,62c50e9c1127f2cd403a315f,,,,,,,,,,,,,,,,,,,,,,,,,,,,,,,,,,,,,,,,,,,,,,,,,,,,,,,,,,,,,,,,,,,,,,,,,,,,,,,,,,,,,,,,,,,,,,,,,,,,,,,,,,,,,,,,,,,,,,,,,,,,,,,,,,,,,,,,,,,,,,,,,,,,,,,,,,,,,,,,,,,
0,80,80,14,1,,6167f106d8d301bd6433c8b1,62c53b074fe15b429b53c7db,2022-07-06_09h34.53.758,Colour_Asymmetry_Pilot,2022.1.3,Win32,60.0024001,62c50e9c1127f2cd403a315f,,,,,,,,,,,,,,,,,,,,,,,,,,,,,,,,,,,,,,,,,,,,,,,,,,,,,,,,,,,,,,,,,,,,,,,,,,,,,,,,,,,,,,,,,,,,,,,,,,,,,,,,,,,,,,,,,,,,,,,,,,,,,,,,,,,,,,,,,,,,,,,,,,,,,,,,,,,,,,,,,,,
0,81,81,26,1,,6167f106d8d301bd6433c8b1,62c53b074fe15b429b53c7db,2022-07-06_09h34.53.758,Colour_Asymmetry_Pilot,2022.1.3,Win32,60.0024001,62c50e9c1127f2cd403a315f,,,,,,,,,,,,,,,,,,,,,,,,,,,,,,,,,,,,,,,,,,,,,,,,,,,,,,,,,,,,,,,,,,,,,,,,,,,,,,,,,,,,,,,,,,,,,,,,,,,,,,,,,,,,,,,,,,,,,,,,,,,,,,,,,,,,,,,,,,,,,,,,,,,,,,,,,,,,,,,,,,,
0,82,82,54,1,,6167f106d8d301bd6433c8b1,62c53b074fe15b429b53c7db,2022-07-06_09h34.53.758,Colour_Asymmetry_Pilot,2022.1.3,Win32,60.0024001,62c50e9c1127f2cd403a315f,,,,,,,,,,,,,,,,,,,,,,,,,,,,,,,,,,,,,,,,,,,,,,,,,,,,,,,,,,,,,,,,,,,,,,,,,,,,,,,,,,,,,,,,,,,,,,,,,,,,,,,,,,,,,,,,,,,,,,,,,,,,,,,,,,,,,,,,,,,,,,,,,,,,,,,,,,,,,,,,,,,
0,83,83,13,1,,6167f106d8d301bd6433c8b1,62c53b074fe15b429b53c7db,2022-07-06_09h34.53.758,Colour_Asymmetry_Pilot,2022.1.3,Win32,60.0024001,62c50e9c1127f2cd403a315f,,,,,,,,,,,,,,,,,,,,,,,,,,,,,,,,,,,,,,,,,,,,,,,,,,,,,,,,,,,,,,,,,,,,,,,,,,,,,,,,,,,,,,,,,,,,,,,,,,,,,,,,,,,,,,,,,,,,,,,,,,,,,,,,,,,,,,,,,,,,,,,,,,,,,,,,,,,,,,,,,,,
0,84,84,40,1,,6167f106d8d301bd6433c8b1,62c53b074fe15b429b53c7db,2022-07-06_09h34.53.758,Colour_Asymmetry_Pilot,2022.1.3,Win32,60.0024001,62c50e9c1127f2cd403a315f,,,,,,,,,,,,,,,,,,,,,,,,,,,,,,,,,,,,,,,,,,,,,,,,,,,,,,,,,,,,,,,,,,,,,,,,,,,,,,,,,,,,,,,,,,,,,,,,,,,,,,,,,,,,,,,,,,,,,,,,,,,,,,,,,,,,,,,,,,,,,,,,,,,,,,,,,,,,,,,,,,,
0,85,85,8,1,,6167f106d8d301bd6433c8b1,62c53b074fe15b429b53c7db,2022-07-06_09h34.53.758,Colour_Asymmetry_Pilot,2022.1.3,Win32,60.0024001,62c50e9c1127f2cd403a315f,,,,,,,,,,,,,,,,,,,,,,,,,,,,,,,,,,,,,,,,,,,,,,,,,,,,,,,,,,,,,,,,,,,,,,,,,,,,,,,,,,,,,,,,,,,,,,,,,,,,,,,,,,,,,,,,,,,,,,,,,,,,,,,,,,,,,,,,,,,,,,,,,,,,,,,,,,,,,,,,,,,
0,86,86,35,1,,6167f106d8d301bd6433c8b1,62c53b074fe15b429b53c7db,2022-07-06_09h34.53.758,Colour_Asymmetry_Pilot,2022.1.3,Win32,60.0024001,62c50e9c1127f2cd403a315f,,,,,,,,,,,,,,,,,,,,,,,,,,,,,,,,,,,,,,,,,,,,,,,,,,,,,,,,,,,,,,,,,,,,,,,,,,,,,,,,,,,,,,,,,,,,,,,,,,,,,,,,,,,,,,,,,,,,,,,,,,,,,,,,,,,,,,,,,,,,,,,,,,,,,,,,,,,,,,,,,,,
0,87,87,89,1,,6167f106d8d301bd6433c8b1,62c53b074fe15b429b53c7db,2022-07-06_09h34.53.758,Colour_Asymmetry_Pilot,2022.1.3,Win32,60.0024001,62c50e9c1127f2cd403a315f,,,,,,,,,,,,,,,,,,,,,,,,,,,,,,,,,,,,,,,,,,,,,,,,,,,,,,,,,,,,,,,,,,,,,,,,,,,,,,,,,,,,,,,,,,,,,,,,,,,,,,,,,,,,,,,,,,,,,,,,,,,,,,,,,,,,,,,,,,,,,,,,,,,,,,,,,,,,,,,,,,,
0,88,88,83,1,,6167f106d8d301bd6433c8b1,62c53b074fe15b429b53c7db,2022-07-06_09h34.53.758,Colour_Asymmetry_Pilot,2022.1.3,Win32,60.0024001,62c50e9c1127f2cd403a315f,,,,,,,,,,,,,,,,,,,,,,,,,,,,,,,,,,,,,,,,,,,,,,,,,,,,,,,,,,,,,,,,,,,,,,,,,,,,,,,,,,,,,,,,,,,,,,,,,,,,,,,,,,,,,,,,,,,,,,,,,,,,,,,,,,,,,,,,,,,,,,,,,,,,,,,,,,,,,,,,,,,
0,89,89,88,1,,6167f106d8d301bd6433c8b1,62c53b074fe15b429b53c7db,2022-07-06_09h34.53.758,Colour_Asymmetry_Pilot,2022.1.3,Win32,60.0024001,62c50e9c1127f2cd403a315f,,,,,,,,,,,,,,,,,,,,,,,,,,,,,,,,,,,,,,,,,,,,,,,,,,,,,,,,,,,,,,,,,,,,,,,,,,,,,,,,,,,,,,,,,,,,,,,,,,,,,,,,,,,,,,,,,,,,,,,,,,,,,,,,,,,,,,,,,,,,,,,,,,,,,,,,,,,,,,,,,,,
0,90,90,42,1,,6167f106d8d301bd6433c8b1,62c53b074fe15b429b53c7db,2022-07-06_09h34.53.758,Colour_Asymmetry_Pilot,2022.1.3,Win32,60.0024001,62c50e9c1127f2cd403a315f,,,,,,,,,,,,,,,,,,,,,,,,,,,,,,,,,,,,,,,,,,,,,,,,,,,,,,,,,,,,,,,,,,,,,,,,,,,,,,,,,,,,,,,,,,,,,,,,,,,,,,,,,,,,,,,,,,,,,,,,,,,,,,,,,,,,,,,,,,,,,,,,,,,,,,,,,,,,,,,,,,,
0,91,91,10,1,,6167f106d8d301bd6433c8b1,62c53b074fe15b429b53c7db,2022-07-06_09h34.53.758,Colour_Asymmetry_Pilot,2022.1.3,Win32,60.0024001,62c50e9c1127f2cd403a315f,,,,,,,,,,,,,,,,,,,,,,,,,,,,,,,,,,,,,,,,,,,,,,,,,,,,,,,,,,,,,,,,,,,,,,,,,,,,,,,,,,,,,,,,,,,,,,,,,,,,,,,,,,,,,,,,,,,,,,,,,,,,,,,,,,,,,,,,,,,,,,,,,,,,,,,,,,,,,,,,,,,
0,92,92,85,1,,6167f106d8d301bd6433c8b1,62c53b074fe15b429b53c7db,2022-07-06_09h34.53.758,Colour_Asymmetry_Pilot,2022.1.3,Win32,60.0024001,62c50e9c1127f2cd403a315f,,,,,,,,,,,,,,,,,,,,,,,,,,,,,,,,,,,,,,,,,,,,,,,,,,,,,,,,,,,,,,,,,,,,,,,,,,,,,,,,,,,,,,,,,,,,,,,,,,,,,,,,,,,,,,,,,,,,,,,,,,,,,,,,,,,,,,,,,,,,,,,,,,,,,,,,,,,,,,,,,,,
,,,,,,6167f106d8d301bd6433c8b1,62c53b074fe15b429b53c7db,2022-07-06_09h34.53.758,Colour_Asymmetry_Pilot,2022.1.3,Win32,60.0024001,62c50e9c1127f2cd403a315f,0,0,0,93,1,threefour,,,,,,,,,,,,,,,,,,,,,,,,,,,,,,,,,,,,,,,,,,,,,,,,,,,,,,,,,,,,,,,,,,,,,,,,,,,,,,,,,,,,,,,,,,,,,,,,,,,,,,,,,,,,,,,,,,,,,,,,,,,,,,,,,,,,,,,,,,,,,,,,,,,,,,,,,,,,,
,,,,,,6167f106d8d301bd6433c8b1,62c53b074fe15b429b53c7db,2022-07-06_09h34.53.758,Colour_Asymmetry_Pilot,2022.1.3,Win32,60.0024001,62c50e9c1127f2cd403a315f,0,1,1,37,1,threefour,,,,,,,,,,,,,,,,,,,,,,,,,,,,,,,,,,,,,,,,,,,,,,,,,,,,,,,,,,,,,,,,,,,,,,,,,,,,,,,,,,,,,,,,,,,,,,,,,,,,,,,,,,,,,,,,,,,,,,,,,,,,,,,,,,,,,,,,,,,,,,,,,,,,,,,,,,,,,
,,,,,,6167f106d8d301bd6433c8b1,62c53b074fe15b429b53c7db,2022-07-06_09h34.53.758,Colour_Asymmetry_Pilot,2022.1.3,Win32,60.0024001,62c50e9c1127f2cd403a315f,0,2,2,84,1,threeone,,,,,,,,,,,,,,,,,,,,,,,,,,,,,,,,,,,,,,,,,,,,,,,,,,,,,,,,,,,,,,,,,,,,,,,,,,,,,,,,,,,,,,,,,,,,,,,,,,,,,,,,,,,,,,,,,,,,,,,,,,,,,,,,,,,,,,,,,,,,,,,,,,,,,,,,,,,,,
,,,,,,6167f106d8d301bd6433c8b1,62c53b074fe15b429b53c7db,2022-07-06_09h34.53.758,Colour_Asymmetry_Pilot,2022.1.3,Win32,60.0024001,62c50e9c1127f2cd403a315f,0,3,3,79,1,fourthree,,,,,,,,,,,,,,,,,,,,,,,,,,,,,,,,,,,,,,,,,,,,,,,,,,,,,,,,,,,,,,,,,,,,,,,,,,,,,,,,,,,,,,,,,,,,,,,,,,,,,,,,,,,,,,,,,,,,,,,,,,,,,,,,,,,,,,,,,,,,,,,,,,,,,,,,,,,,,
,,,,,,6167f106d8d301bd6433c8b1,62c53b074fe15b429b53c7db,2022-07-06_09h34.53.758,Colour_Asymmetry_Pilot,2022.1.3,Win32,60.0024001,62c50e9c1127f2cd403a315f,0,4,4,123,1,twofour,,,,,,,,,,,,,,,,,,,,,,,,,,,,,,,,,,,,,,,,,,,,,,,,,,,,,,,,,,,,,,,,,,,,,,,,,,,,,,,,,,,,,,,,,,,,,,,,,,,,,,,,,,,,,,,,,,,,,,,,,,,,,,,,,,,,,,,,,,,,,,,,,,,,,,,,,,,,,
,,,,,,6167f106d8d301bd6433c8b1,62c53b074fe15b429b53c7db,2022-07-06_09h34.53.758,Colour_Asymmetry_Pilot,2022.1.3,Win32,60.0024001,62c50e9c1127f2cd403a315f,0,5,5,3,1,twofour,,,,,,,,,,,,,,,,,,,,,,,,,,,,,,,,,,,,,,,,,,,,,,,,,,,,,,,,,,,,,,,,,,,,,,,,,,,,,,,,,,,,,,,,,,,,,,,,,,,,,,,,,,,,,,,,,,,,,,,,,,,,,,,,,,,,,,,,,,,,,,,,,,,,,,,,,,,,,
,,,,,,6167f106d8d301bd6433c8b1,62c53b074fe15b429b53c7db,2022-07-06_09h34.53.758,Colour_Asymmetry_Pilot,2022.1.3,Win32,60.0024001,62c50e9c1127f2cd403a315f,0,6,6,50,1,twoone,,,,,,,,,,,,,,,,,,,,,,,,,,,,,,,,,,,,,,,,,,,,,,,,,,,,,,,,,,,,,,,,,,,,,,,,,,,,,,,,,,,,,,,,,,,,,,,,,,,,,,,,,,,,,,,,,,,,,,,,,,,,,,,,,,,,,,,,,,,,,,,,,,,,,,,,,,,,,
,,,,,,6167f106d8d301bd6433c8b1,62c53b074fe15b429b53c7db,2022-07-06_09h34.53.758,Colour_Asymmetry_Pilot,2022.1.3,Win32,60.0024001,62c50e9c1127f2cd403a315f,0,7,7,135,1,fourthree,,,,,,,,,,,,,,,,,,,,,,,,,,,,,,,,,,,,,,,,,,,,,,,,,,,,,,,,,,,,,,,,,,,,,,,,,,,,,,,,,,,,,,,,,,,,,,,,,,,,,,,,,,,,,,,,,,,,,,,,,,,,,,,,,,,,,,,,,,,,,,,,,,,,,,,,,,,,,
,,,,,,6167f106d8d301bd6433c8b1,62c53b074fe15b429b53c7db,2022-07-06_09h34.53.758,Colour_Asymmetry_Pilot,2022.1.3,Win32,60.0024001,62c50e9c1127f2cd403a315f,0,8,8,154,1,twoone,,,,,,,,,,,,,,,,,,,,,,,,,,,,,,,,,,,,,,,,,,,,,,,,,,,,,,,,,,,,,,,,,,,,,,,,,,,,,,,,,,,,,,,,,,,,,,,,,,,,,,,,,,,,,,,,,,,,,,,,,,,,,,,,,,,,,,,,,,,,,,,,,,,,,,,,,,,,,
,,,,,,6167f106d8d301bd6433c8b1,62c53b074fe15b429b53c7db,2022-07-06_09h34.53.758,Colour_Asymmetry_Pilot,2022.1.3,Win32,60.0024001,62c50e9c1127f2cd403a315f,0,9,9,104,1,onetwo,,,,,,,,,,,,,,,,,,,,,,,,,,,,,,,,,,,,,,,,,,,,,,,,,,,,,,,,,,,,,,,,,,,,,,,,,,,,,,,,,,,,,,,,,,,,,,,,,,,,,,,,,,,,,,,,,,,,,,,,,,,,,,,,,,,,,,,,,,,,,,,,,,,,,,,,,,,,,
,,,,,,6167f106d8d301bd6433c8b1,62c53b074fe15b429b53c7db,2022-07-06_09h34.53.758,Colour_Asymmetry_Pilot,2022.1.3,Win32,60.0024001,62c50e9c1127f2cd403a315f,0,10,10,117,1,threefour,,,,,,,,,,,,,,,,,,,,,,,,,,,,,,,,,,,,,,,,,,,,,,,,,,,,,,,,,,,,,,,,,,,,,,,,,,,,,,,,,,,,,,,,,,,,,,,,,,,,,,,,,,,,,,,,,,,,,,,,,,,,,,,,,,,,,,,,,,,,,,,,,,,,,,,,,,,,,
,,,,,,6167f106d8d301bd6433c8b1,62c53b074fe15b429b53c7db,2022-07-06_09h34.53.758,Colour_Asymmetry_Pilot,2022.1.3,Win32,60.0024001,62c50e9c1127f2cd403a315f,0,11,11,130,1,twoone,,,,,,,,,,,,,,,,,,,,,,,,,,,,,,,,,,,,,,,,,,,,,,,,,,,,,,,,,,,,,,,,,,,,,,,,,,,,,,,,,,,,,,,,,,,,,,,,,,,,,,,,,,,,,,,,,,,,,,,,,,,,,,,,,,,,,,,,,,,,,,,,,,,,,,,,,,,,,
,,,,,,6167f106d8d301bd6433c8b1,62c53b074fe15b429b53c7db,2022-07-06_09h34.53.758,Colour_Asymmetry_Pilot,2022.1.3,Win32,60.0024001,62c50e9c1127f2cd403a315f,0,12,12,72,1,onetwo,,,,,,,,,,,,,,,,,,,,,,,,,,,,,,,,,,,,,,,,,,,,,,,,,,,,,,,,,,,,,,,,,,,,,,,,,,,,,,,,,,,,,,,,,,,,,,,,,,,,,,,,,,,,,,,,,,,,,,,,,,,,,,,,,,,,,,,,,,,,,,,,,,,,,,,,,,,,,
,,,,,,6167f106d8d301bd6433c8b1,62c53b074fe15b429b53c7db,2022-07-06_09h34.53.758,Colour_Asymmetry_Pilot,2022.1.3,Win32,60.0024001,62c50e9c1127f2cd403a315f,0,13,13,27,1,twofour,,,,,,,,,,,,,,,,,,,,,,,,,,,,,,,,,,,,,,,,,,,,,,,,,,,,,,,,,,,,,,,,,,,,,,,,,,,,,,,,,,,,,,,,,,,,,,,,,,,,,,,,,,,,,,,,,,,,,,,,,,,,,,,,,,,,,,,,,,,,,,,,,,,,,,,,,,,,,
,,,,,,6167f106d8d301bd6433c8b1,62c53b074fe15b429b53c7db,2022-07-06_09h34.53.758,Colour_Asymmetry_Pilot,2022.1.3,Win32,60.0024001,62c50e9c1127f2cd403a315f,0,14,14,149,1,threefour,,,,,,,,,,,,,,,,,,,,,,,,,,,,,,,,,,,,,,,,,,,,,,,,,,,,,,,,,,,,,,,,,,,,,,,,,,,,,,,,,,,,,,,,,,,,,,,,,,,,,,,,,,,,,,,,,,,,,,,,,,,,,,,,,,,,,,,,,,,,,,,,,,,,,,,,,,,,,
,,,,,,6167f106d8d301bd6433c8b1,62c53b074fe15b429b53c7db,2022-07-06_09h34.53.758,Colour_Asymmetry_Pilot,2022.1.3,Win32,60.0024001,62c50e9c1127f2cd403a315f,0,15,15,30,1,fourtwo,,,,,,,,,,,,,,,,,,,,,,,,,,,,,,,,,,,,,,,,,,,,,,,,,,,,,,,,,,,,,,,,,,,,,,,,,,,,,,,,,,,,,,,,,,,,,,,,,,,,,,,,,,,,,,,,,,,,,,,,,,,,,,,,,,,,,,,,,,,,,,,,,,,,,,,,,,,,,
,,,,,,6167f106d8d301bd6433c8b1,62c53b074fe15b429b53c7db,2022-07-06_09h34.53.758,Colour_Asymmetry_Pilot,2022.1.3,Win32,60.0024001,62c50e9c1127f2cd403a315f,0,16,16,56,1,onetwo,,,,,,,,,,,,,,,,,,,,,,,,,,,,,,,,,,,,,,,,,,,,,,,,,,,,,,,,,,,,,,,,,,,,,,,,,,,,,,,,,,,,,,,,,,,,,,,,,,,,,,,,,,,,,,,,,,,,,,,,,,,,,,,,,,,,,,,,,,,,,,,,,,,,,,,,,,,,,
,,,,,,6167f106d8d301bd6433c8b1,62c53b074fe15b429b53c7db,2022-07-06_09h34.53.758,Colour_Asymmetry_Pilot,2022.1.3,Win32,60.0024001,62c50e9c1127f2cd403a315f,0,17,17,49,1,onethree,,,,,,,,,,,,,,,,,,,,,,,,,,,,,,,,,,,,,,,,,,,,,,,,,,,,,,,,,,,,,,,,,,,,,,,,,,,,,,,,,,,,,,,,,,,,,,,,,,,,,,,,,,,,,,,,,,,,,,,,,,,,,,,,,,,,,,,,,,,,,,,,,,,,,,,,,,,,,
,,,,,,6167f106d8d301bd6433c8b1,62c53b074fe15b429b53c7db,2022-07-06_09h34.53.758,Colour_Asymmetry_Pilot,2022.1.3,Win32,60.0024001,62c50e9c1127f2cd403a315f,0,18,18,1,1,onethree,,,,,,,,,,,,,,,,,,,,,,,,,,,,,,,,,,,,,,,,,,,,,,,,,,,,,,,,,,,,,,,,,,,,,,,,,,,,,,,,,,,,,,,,,,,,,,,,,,,,,,,,,,,,,,,,,,,,,,,,,,,,,,,,,,,,,,,,,,,,,,,,,,,,,,,,,,,,,
,,,,,,6167f106d8d301bd6433c8b1,62c53b074fe15b429b53c7db,2022-07-06_09h34.53.758,Colour_Asymmetry_Pilot,2022.1.3,Win32,60.0024001,62c50e9c1127f2cd403a315f,0,19,19,151,1,fourthree,,,,,,,,,,,,,,,,,,,,,,,,,,,,,,,,,,,,,,,,,,,,,,,,,,,,,,,,,,,,,,,,,,,,,,,,,,,,,,,,,,,,,,,,,,,,,,,,,,,,,,,,,,,,,,,,,,,,,,,,,,,,,,,,,,,,,,,,,,,,,,,,,,,,,,,,,,,,,
,,,,,,6167f106d8d301bd6433c8b1,62c53b074fe15b429b53c7db,2022-07-06_09h34.53.758,Colour_Asymmetry_Pilot,2022.1.3,Win32,60.0024001,62c50e9c1127f2cd403a315f,0,20,20,0,1,onetwo,,,,,,,,,,,,,,,,,,,,,,,,,,,,,,,,,,,,,,,,,,,,,,,,,,,,,,,,,,,,,,,,,,,,,,,,,,,,,,,,,,,,,,,,,,,,,,,,,,,,,,,,,,,,,,,,,,,,,,,,,,,,,,,,,,,,,,,,,,,,,,,,,,,,,,,,,,,,,
,,,,,,6167f106d8d301bd6433c8b1,62c53b074fe15b429b53c7db,2022-07-06_09h34.53.758,Colour_Asymmetry_Pilot,2022.1.3,Win32,60.0024001,62c50e9c1127f2cd403a315f,0,21,21,124,1,threeone,,,,,,,,,,,,,,,,,,,,,,,,,,,,,,,,,,,,,,,,,,,,,,,,,,,,,,,,,,,,,,,,,,,,,,,,,,,,,,,,,,,,,,,,,,,,,,,,,,,,,,,,,,,,,,,,,,,,,,,,,,,,,,,,,,,,,,,,,,,,,,,,,,,,,,,,,,,,,
,,,,,,6167f106d8d301bd6433c8b1,62c53b074fe15b429b53c7db,2022-07-06_09h34.53.758,Colour_Asymmetry_Pilot,2022.1.3,Win32,60.0024001,62c50e9c1127f2cd403a315f,0,22,22,11,1,twofour,,,,,,,,,,,,,,,,,,,,,,,,,,,,,,,,,,,,,,,,,,,,,,,,,,,,,,,,,,,,,,,,,,,,,,,,,,,,,,,,,,,,,,,,,,,,,,,,,,,,,,,,,,,,,,,,,,,,,,,,,,,,,,,,,,,,,,,,,,,,,,,,,,,,,,,,,,,,,
,,,,,,6167f106d8d301bd6433c8b1,62c53b074fe15b429b53c7db,2022-07-06_09h34.53.758,Colour_Asymmetry_Pilot,2022.1.3,Win32,60.0024001,62c50e9c1127f2cd403a315f,0,23,23,152,1,onetwo,,,,,,,,,,,,,,,,,,,,,,,,,,,,,,,,,,,,,,,,,,,,,,,,,,,,,,,,,,,,,,,,,,,,,,,,,,,,,,,,,,,,,,,,,,,,,,,,,,,,,,,,,,,,,,,,,,,,,,,,,,,,,,,,,,,,,,,,,,,,,,,,,,,,,,,,,,,,,
,,,,,,6167f106d8d301bd6433c8b1,62c53b074fe15b429b53c7db,2022-07-06_09h34.53.758,Colour_Asymmetry_Pilot,2022.1.3,Win32,60.0024001,62c50e9c1127f2cd403a315f,0,24,24,24,1,onetwo,,,,,,,,,,,,,,,,,,,,,,,,,,,,,,,,,,,,,,,,,,,,,,,,,,,,,,,,,,,,,,,,,,,,,,,,,,,,,,,,,,,,,,,,,,,,,,,,,,,,,,,,,,,,,,,,,,,,,,,,,,,,,,,,,,,,,,,,,,,,,,,,,,,,,,,,,,,,,
,,,,,,6167f106d8d301bd6433c8b1,62c53b074fe15b429b53c7db,2022-07-06_09h34.53.758,Colour_Asymmetry_Pilot,2022.1.3,Win32,60.0024001,62c50e9c1127f2cd403a315f,0,25,25,150,1,fourtwo,,,,,,,,,,,,,,,,,,,,,,,,,,,,,,,,,,,,,,,,,,,,,,,,,,,,,,,,,,,,,,,,,,,,,,,,,,,,,,,,,,,,,,,,,,,,,,,,,,,,,,,,,,,,,,,,,,,,,,,,,,,,,,,,,,,,,,,,,,,,,,,,,,,,,,,,,,,,,
,,,,,,6167f106d8d301bd6433c8b1,62c53b074fe15b429b53c7db,2022-07-06_09h34.53.758,Colour_Asymmetry_Pilot,2022.1.3,Win32,60.0024001,62c50e9c1127f2cd403a315f,0,26,26,7,1,fourthree,,,,,,,,,,,,,,,,,,,,,,,,,,,,,,,,,,,,,,,,,,,,,,,,,,,,,,,,,,,,,,,,,,,,,,,,,,,,,,,,,,,,,,,,,,,,,,,,,,,,,,,,,,,,,,,,,,,,,,,,,,,,,,,,,,,,,,,,,,,,,,,,,,,,,,,,,,,,,
,,,,,,6167f106d8d301bd6433c8b1,62c53b074fe15b429b53c7db,2022-07-06_09h34.53.758,Colour_Asymmetry_Pilot,2022.1.3,Win32,60.0024001,62c50e9c1127f2cd403a315f,0,27,27,129,1,onethree,,,,,,,,,,,,,,,,,,,,,,,,,,,,,,,,,,,,,,,,,,,,,,,,,,,,,,,,,,,,,,,,,,,,,,,,,,,,,,,,,,,,,,,,,,,,,,,,,,,,,,,,,,,,,,,,,,,,,,,,,,,,,,,,,,,,,,,,,,,,,,,,,,,,,,,,,,,,,
,,,,,,6167f106d8d301bd6433c8b1,62c53b074fe15b429b53c7db,2022-07-06_09h34.53.758,Colour_Asymmetry_Pilot,2022.1.3,Win32,60.0024001,62c50e9c1127f2cd403a315f,0,28,28,58,1,twoone,,,,,,,,,,,,,,,,,,,,,,,,,,,,,,,,,,,,,,,,,,,,,,,,,,,,,,,,,,,,,,,,,,,,,,,,,,,,,,,,,,,,,,,,,,,,,,,,,,,,,,,,,,,,,,,,,,,,,,,,,,,,,,,,,,,,,,,,,,,,,,,,,,,,,,,,,,,,,
,,,,,,6167f106d8d301bd6433c8b1,62c53b074fe15b429b53c7db,2022-07-06_09h34.53.758,Colour_Asymmetry_Pilot,2022.1.3,Win32,60.0024001,62c50e9c1127f2cd403a315f,0,29,29,8,1,onetwo,,,,,,,,,,,,,,,,,,,,,,,,,,,,,,,,,,,,,,,,,,,,,,,,,,,,,,,,,,,,,,,,,,,,,,,,,,,,,,,,,,,,,,,,,,,,,,,,,,,,,,,,,,,,,,,,,,,,,,,,,,,,,,,,,,,,,,,,,,,,,,,,,,,,,,,,,,,,,
,,,,,,6167f106d8d301bd6433c8b1,62c53b074fe15b429b53c7db,2022-07-06_09h34.53.758,Colour_Asymmetry_Pilot,2022.1.3,Win32,60.0024001,62c50e9c1127f2cd403a315f,0,30,30,19,1,twofour,,,,,,,,,,,,,,,,,,,,,,,,,,,,,,,,,,,,,,,,,,,,,,,,,,,,,,,,,,,,,,,,,,,,,,,,,,,,,,,,,,,,,,,,,,,,,,,,,,,,,,,,,,,,,,,,,,,,,,,,,,,,,,,,,,,,,,,,,,,,,,,,,,,,,,,,,,,,,
,,,,,,6167f106d8d301bd6433c8b1,62c53b074fe15b429b53c7db,2022-07-06_09h34.53.758,Colour_Asymmetry_Pilot,2022.1.3,Win32,60.0024001,62c50e9c1127f2cd403a315f,0,31,31,67,1,twofour,,,,,,,,,,,,,,,,,,,,,,,,,,,,,,,,,,,,,,,,,,,,,,,,,,,,,,,,,,,,,,,,,,,,,,,,,,,,,,,,,,,,,,,,,,,,,,,,,,,,,,,,,,,,,,,,,,,,,,,,,,,,,,,,,,,,,,,,,,,,,,,,,,,,,,,,,,,,,
,,,,,,6167f106d8d301bd6433c8b1,62c53b074fe15b429b53c7db,2022-07-06_09h34.53.758,Colour_Asymmetry_Pilot,2022.1.3,Win32,60.0024001,62c50e9c1127f2cd403a315f,0,32,32,17,1,onethree,,,,,,,,,,,,,,,,,,,,,,,,,,,,,,,,,,,,,,,,,,,,,,,,,,,,,,,,,,,,,,,,,,,,,,,,,,,,,,,,,,,,,,,,,,,,,,,,,,,,,,,,,,,,,,,,,,,,,,,,,,,,,,,,,,,,,,,,,,,,,,,,,,,,,,,,,,,,,
,,,,,,6167f106d8d301bd6433c8b1,62c53b074fe15b429b53c7db,2022-07-06_09h34.53.758,Colour_Asymmetry_Pilot,2022.1.3,Win32,60.0024001,62c50e9c1127f2cd403a315f,0,33,33,119,1,fourthree,,,,,,,,,,,,,,,,,,,,,,,,,,,,,,,,,,,,,,,,,,,,,,,,,,,,,,,,,,,,,,,,,,,,,,,,,,,,,,,,,,,,,,,,,,,,,,,,,,,,,,,,,,,,,,,,,,,,,,,,,,,,,,,,,,,,,,,,,,,,,,,,,,,,,,,,,,,,,
,,,,,,6167f106d8d301bd6433c8b1,62c53b074fe15b429b53c7db,2022-07-06_09h34.53.758,Colour_Asymmetry_Pilot,2022.1.3,Win32,60.0024001,62c50e9c1127f2cd403a315f,0,34,34,66,1,twoone,,,,,,,,,,,,,,,,,,,,,,,,,,,,,,,,,,,,,,,,,,,,,,,,,,,,,,,,,,,,,,,,,,,,,,,,,,,,,,,,,,,,,,,,,,,,,,,,,,,,,,,,,,,,,,,,,,,,,,,,,,,,,,,,,,,,,,,,,,,,,,,,,,,,,,,,,,,,,
,,,,,,6167f106d8d301bd6433c8b1,62c53b074fe15b429b53c7db,2022-07-06_09h34.53.758,Colour_Asymmetry_Pilot,2022.1.3,Win32,60.0024001,62c50e9c1127f2cd403a315f,0,35,35,110,1,fourtwo,,,,,,,,,,,,,,,,,,,,,,,,,,,,,,,,,,,,,,,,,,,,,,,,,,,,,,,,,,,,,,,,,,,,,,,,,,,,,,,,,,,,,,,,,,,,,,,,,,,,,,,,,,,,,,,,,,,,,,,,,,,,,,,,,,,,,,,,,,,,,,,,,,,,,,,,,,,,,
,,,,,,6167f106d8d301bd6433c8b1,62c53b074fe15b429b53c7db,2022-07-06_09h34.53.758,Colour_Asymmetry_Pilot,2022.1.3,Win32,60.0024001,62c50e9c1127f2cd403a315f,0,36,36,156,1,threeone,,,,,,,,,,,,,,,,,,,,,,,,,,,,,,,,,,,,,,,,,,,,,,,,,,,,,,,,,,,,,,,,,,,,,,,,,,,,,,,,,,,,,,,,,,,,,,,,,,,,,,,,,,,,,,,,,,,,,,,,,,,,,,,,,,,,,,,,,,,,,,,,,,,,,,,,,,,,,
,,,,,,6167f106d8d301bd6433c8b1,62c53b074fe15b429b53c7db,2022-07-06_09h34.53.758,Colour_Asymmetry_Pilot,2022.1.3,Win32,60.0024001,62c50e9c1127f2cd403a315f,0,37,37,85,1,threefour,,,,,,,,,,,,,,,,,,,,,,,,,,,,,,,,,,,,,,,,,,,,,,,,,,,,,,,,,,,,,,,,,,,,,,,,,,,,,,,,,,,,,,,,,,,,,,,,,,,,,,,,,,,,,,,,,,,,,,,,,,,,,,,,,,,,,,,,,,,,,,,,,,,,,,,,,,,,,
,,,,,,6167f106d8d301bd6433c8b1,62c53b074fe15b429b53c7db,2022-07-06_09h34.53.758,Colour_Asymmetry_Pilot,2022.1.3,Win32,60.0024001,62c50e9c1127f2cd403a315f,0,38,38,118,1,fourtwo,,,,,,,,,,,,,,,,,,,,,,,,,,,,,,,,,,,,,,,,,,,,,,,,,,,,,,,,,,,,,,,,,,,,,,,,,,,,,,,,,,,,,,,,,,,,,,,,,,,,,,,,,,,,,,,,,,,,,,,,,,,,,,,,,,,,,,,,,,,,,,,,,,,,,,,,,,,,,
,,,,,,6167f106d8d301bd6433c8b1,62c53b074fe15b429b53c7db,2022-07-06_09h34.53.758,Colour_Asymmetry_Pilot,2022.1.3,Win32,60.0024001,62c50e9c1127f2cd403a315f,0,39,39,106,1,twoone,,,,,,,,,,,,,,,,,,,,,,,,,,,,,,,,,,,,,,,,,,,,,,,,,,,,,,,,,,,,,,,,,,,,,,,,,,,,,,,,,,,,,,,,,,,,,,,,,,,,,,,,,,,,,,,,,,,,,,,,,,,,,,,,,,,,,,,,,,,,,,,,,,,,,,,,,,,,,
,,,,,,6167f106d8d301bd6433c8b1,62c53b074fe15b429b53c7db,2022-07-06_09h34.53.758,Colour_Asymmetry_Pilot,2022.1.3,Win32,60.0024001,62c50e9c1127f2cd403a315f,0,40,40,64,1,onetwo,,,,,,,,,,,,,,,,,,,,,,,,,,,,,,,,,,,,,,,,,,,,,,,,,,,,,,,,,,,,,,,,,,,,,,,,,,,,,,,,,,,,,,,,,,,,,,,,,,,,,,,,,,,,,,,,,,,,,,,,,,,,,,,,,,,,,,,,,,,,,,,,,,,,,,,,,,,,,
,,,,,,6167f106d8d301bd6433c8b1,62c53b074fe15b429b53c7db,2022-07-06_09h34.53.758,Colour_Asymmetry_Pilot,2022.1.3,Win32,60.0024001,62c50e9c1127f2cd403a315f,0,41,41,15,1,fourthree,,,,,,,,,,,,,,,,,,,,,,,,,,,,,,,,,,,,,,,,,,,,,,,,,,,,,,,,,,,,,,,,,,,,,,,,,,,,,,,,,,,,,,,,,,,,,,,,,,,,,,,,,,,,,,,,,,,,,,,,,,,,,,,,,,,,,,,,,,,,,,,,,,,,,,,,,,,,,
,,,,,,6167f106d8d301bd6433c8b1,62c53b074fe15b429b53c7db,2022-07-06_09h34.53.758,Colour_Asymmetry_Pilot,2022.1.3,Win32,60.0024001,62c50e9c1127f2cd403a315f,0,42,42,82,1,twoone,,,,,,,,,,,,,,,,,,,,,,,,,,,,,,,,,,,,,,,,,,,,,,,,,,,,,,,,,,,,,,,,,,,,,,,,,,,,,,,,,,,,,,,,,,,,,,,,,,,,,,,,,,,,,,,,,,,,,,,,,,,,,,,,,,,,,,,,,,,,,,,,,,,,,,,,,,,,,
,,,,,,6167f106d8d301bd6433c8b1,62c53b074fe15b429b53c7db,2022-07-06_09h34.53.758,Colour_Asymmetry_Pilot,2022.1.3,Win32,60.0024001,62c50e9c1127f2cd403a315f,0,43,43,86,1,fourtwo,,,,,,,,,,,,,,,,,,,,,,,,,,,,,,,,,,,,,,,,,,,,,,,,,,,,,,,,,,,,,,,,,,,,,,,,,,,,,,,,,,,,,,,,,,,,,,,,,,,,,,,,,,,,,,,,,,,,,,,,,,,,,,,,,,,,,,,,,,,,,,,,,,,,,,,,,,,,,
,,,,,,6167f106d8d301bd6433c8b1,62c53b074fe15b429b53c7db,2022-07-06_09h34.53.758,Colour_Asymmetry_Pilot,2022.1.3,Win32,60.0024001,62c50e9c1127f2cd403a315f,0,44,44,41,1,onethree,,,,,,,,,,,,,,,,,,,,,,,,,,,,,,,,,,,,,,,,,,,,,,,,,,,,,,,,,,,,,,,,,,,,,,,,,,,,,,,,,,,,,,,,,,,,,,,,,,,,,,,,,,,,,,,,,,,,,,,,,,,,,,,,,,,,,,,,,,,,,,,,,,,,,,,,,,,,,
,,,,,,6167f106d8d301bd6433c8b1,62c53b074fe15b429b53c7db,2022-07-06_09h34.53.758,Colour_Asymmetry_Pilot,2022.1.3,Win32,60.0024001,62c50e9c1127f2cd403a315f,0,45,45,148,1,threeone,,,,,,,,,,,,,,,,,,,,,,,,,,,,,,,,,,,,,,,,,,,,,,,,,,,,,,,,,,,,,,,,,,,,,,,,,,,,,,,,,,,,,,,,,,,,,,,,,,,,,,,,,,,,,,,,,,,,,,,,,,,,,,,,,,,,,,,,,,,,,,,,,,,,,,,,,,,,,
,,,,,,6167f106d8d301bd6433c8b1,62c53b074fe15b429b53c7db,2022-07-06_09h34.53.758,Colour_Asymmetry_Pilot,2022.1.3,Win32,60.0024001,62c50e9c1127f2cd403a315f,0,46,46,47,1,fourthree,,,,,,,,,,,,,,,,,,,,,,,,,,,,,,,,,,,,,,,,,,,,,,,,,,,,,,,,,,,,,,,,,,,,,,,,,,,,,,,,,,,,,,,,,,,,,,,,,,,,,,,,,,,,,,,,,,,,,,,,,,,,,,,,,,,,,,,,,,,,,,,,,,,,,,,,,,,,,
,,,,,,6167f106d8d301bd6433c8b1,62c53b074fe15b429b53c7db,2022-07-06_09h34.53.758,Colour_Asymmetry_Pilot,2022.1.3,Win32,60.0024001,62c50e9c1127f2cd403a315f,0,47,47,16,1,onetwo,,,,,,,,,,,,,,,,,,,,,,,,,,,,,,,,,,,,,,,,,,,,,,,,,,,,,,,,,,,,,,,,,,,,,,,,,,,,,,,,,,,,,,,,,,,,,,,,,,,,,,,,,,,,,,,,,,,,,,,,,,,,,,,,,,,,,,,,,,,,,,,,,,,,,,,,,,,,,
,,,,,,6167f106d8d301bd6433c8b1,62c53b074fe15b429b53c7db,2022-07-06_09h34.53.758,Colour_Asymmetry_Pilot,2022.1.3,Win32,60.0024001,62c50e9c1127f2cd403a315f,0,48,48,99,1,twofour,,,,,,,,,,,,,,,,,,,,,,,,,,,,,,,,,,,,,,,,,,,,,,,,,,,,,,,,,,,,,,,,,,,,,,,,,,,,,,,,,,,,,,,,,,,,,,,,,,,,,,,,,,,,,,,,,,,,,,,,,,,,,,,,,,,,,,,,,,,,,,,,,,,,,,,,,,,,,
,,,,,,6167f106d8d301bd6433c8b1,62c53b074fe15b429b53c7db,2022-07-06_09h34.53.758,Colour_Asymmetry_Pilot,2022.1.3,Win32,60.0024001,62c50e9c1127f2cd403a315f,0,49,49,96,1,onetwo,,,,,,,,,,,,,,,,,,,,,,,,,,,,,,,,,,,,,,,,,,,,,,,,,,,,,,,,,,,,,,,,,,,,,,,,,,,,,,,,,,,,,,,,,,,,,,,,,,,,,,,,,,,,,,,,,,,,,,,,,,,,,,,,,,,,,,,,,,,,,,,,,,,,,,,,,,,,,
,,,,,,6167f106d8d301bd6433c8b1,62c53b074fe15b429b53c7db,2022-07-06_09h34.53.758,Colour_Asymmetry_Pilot,2022.1.3,Win32,60.0024001,62c50e9c1127f2cd403a315f,0,50,50,105,1,onethree,,,,,,,,,,,,,,,,,,,,,,,,,,,,,,,,,,,,,,,,,,,,,,,,,,,,,,,,,,,,,,,,,,,,,,,,,,,,,,,,,,,,,,,,,,,,,,,,,,,,,,,,,,,,,,,,,,,,,,,,,,,,,,,,,,,,,,,,,,,,,,,,,,,,,,,,,,,,,
,,,,,,6167f106d8d301bd6433c8b1,62c53b074fe15b429b53c7db,2022-07-06_09h34.53.758,Colour_Asymmetry_Pilot,2022.1.3,Win32,60.0024001,62c50e9c1127f2cd403a315f,0,51,51,147,1,twofour,,,,,,,,,,,,,,,,,,,,,,,,,,,,,,,,,,,,,,,,,,,,,,,,,,,,,,,,,,,,,,,,,,,,,,,,,,,,,,,,,,,,,,,,,,,,,,,,,,,,,,,,,,,,,,,,,,,,,,,,,,,,,,,,,,,,,,,,,,,,,,,,,,,,,,,,,,,,,
,,,,,,6167f106d8d301bd6433c8b1,62c53b074fe15b429b53c7db,2022-07-06_09h34.53.758,Colour_Asymmetry_Pilot,2022.1.3,Win32,60.0024001,62c50e9c1127f2cd403a315f,0,52,52,65,1,onethree,,,,,,,,,,,,,,,,,,,,,,,,,,,,,,,,,,,,,,,,,,,,,,,,,,,,,,,,,,,,,,,,,,,,,,,,,,,,,,,,,,,,,,,,,,,,,,,,,,,,,,,,,,,,,,,,,,,,,,,,,,,,,,,,,,,,,,,,,,,,,,,,,,,,,,,,,,,,,
,,,,,,6167f106d8d301bd6433c8b1,62c53b074fe15b429b53c7db,2022-07-06_09h34.53.758,Colour_Asymmetry_Pilot,2022.1.3,Win32,60.0024001,62c50e9c1127f2cd403a315f,0,53,53,12,1,threeone,,,,,,,,,,,,,,,,,,,,,,,,,,,,,,,,,,,,,,,,,,,,,,,,,,,,,,,,,,,,,,,,,,,,,,,,,,,,,,,,,,,,,,,,,,,,,,,,,,,,,,,,,,,,,,,,,,,,,,,,,,,,,,,,,,,,,,,,,,,,,,,,,,,,,,,,,,,,,
,,,,,,6167f106d8d301bd6433c8b1,62c53b074fe15b429b53c7db,2022-07-06_09h34.53.758,Colour_Asymmetry_Pilot,2022.1.3,Win32,60.0024001,62c50e9c1127f2cd403a315f,0,54,54,98,1,twoone,,,,,,,,,,,,,,,,,,,,,,,,,,,,,,,,,,,,,,,,,,,,,,,,,,,,,,,,,,,,,,,,,,,,,,,,,,,,,,,,,,,,,,,,,,,,,,,,,,,,,,,,,,,,,,,,,,,,,,,,,,,,,,,,,,,,,,,,,,,,,,,,,,,,,,,,,,,,,
,,,,,,6167f106d8d301bd6433c8b1,62c53b074fe15b429b53c7db,2022-07-06_09h34.53.758,Colour_Asymmetry_Pilot,2022.1.3,Win32,60.0024001,62c50e9c1127f2cd403a315f,0,55,55,29,1,threefour,,,,,,,,,,,,,,,,,,,,,,,,,,,,,,,,,,,,,,,,,,,,,,,,,,,,,,,,,,,,,,,,,,,,,,,,,,,,,,,,,,,,,,,,,,,,,,,,,,,,,,,,,,,,,,,,,,,,,,,,,,,,,,,,,,,,,,,,,,,,,,,,,,,,,,,,,,,,,
,,,,,,6167f106d8d301bd6433c8b1,62c53b074fe15b429b53c7db,2022-07-06_09h34.53.758,Colour_Asymmetry_Pilot,2022.1.3,Win32,60.0024001,62c50e9c1127f2cd403a315f,0,56,56,54,1,fourtwo,,,,,,,,,,,,,,,,,,,,,,,,,,,,,,,,,,,,,,,,,,,,,,,,,,,,,,,,,,,,,,,,,,,,,,,,,,,,,,,,,,,,,,,,,,,,,,,,,,,,,,,,,,,,,,,,,,,,,,,,,,,,,,,,,,,,,,,,,,,,,,,,,,,,,,,,,,,,,
,,,,,,6167f106d8d301bd6433c8b1,62c53b074fe15b429b53c7db,2022-07-06_09h34.53.758,Colour_Asymmetry_Pilot,2022.1.3,Win32,60.0024001,62c50e9c1127f2cd403a315f,0,57,57,32,1,onetwo,,,,,,,,,,,,,,,,,,,,,,,,,,,,,,,,,,,,,,,,,,,,,,,,,,,,,,,,,,,,,,,,,,,,,,,,,,,,,,,,,,,,,,,,,,,,,,,,,,,,,,,,,,,,,,,,,,,,,,,,,,,,,,,,,,,,,,,,,,,,,,,,,,,,,,,,,,,,,
,,,,,,6167f106d8d301bd6433c8b1,62c53b074fe15b429b53c7db,2022-07-06_09h34.53.758,Colour_Asymmetry_Pilot,2022.1.3,Win32,60.0024001,62c50e9c1127f2cd403a315f,0,58,58,31,1,fourthree,,,,,,,,,,,,,,,,,,,,,,,,,,,,,,,,,,,,,,,,,,,,,,,,,,,,,,,,,,,,,,,,,,,,,,,,,,,,,,,,,,,,,,,,,,,,,,,,,,,,,,,,,,,,,,,,,,,,,,,,,,,,,,,,,,,,,,,,,,,,,,,,,,,,,,,,,,,,,
,,,,,,6167f106d8d301bd6433c8b1,62c53b074fe15b429b53c7db,2022-07-06_09h34.53.758,Colour_Asymmetry_Pilot,2022.1.3,Win32,60.0024001,62c50e9c1127f2cd403a315f,0,59,59,23,1,fourthree,,,,,,,,,,,,,,,,,,,,,,,,,,,,,,,,,,,,,,,,,,,,,,,,,,,,,,,,,,,,,,,,,,,,,,,,,,,,,,,,,,,,,,,,,,,,,,,,,,,,,,,,,,,,,,,,,,,,,,,,,,,,,,,,,,,,,,,,,,,,,,,,,,,,,,,,,,,,,
,,,,,,6167f106d8d301bd6433c8b1,62c53b074fe15b429b53c7db,2022-07-06_09h34.53.758,Colour_Asymmetry_Pilot,2022.1.3,Win32,60.0024001,62c50e9c1127f2cd403a315f,0,60,60,22,1,fourtwo,,,,,,,,,,,,,,,,,,,,,,,,,,,,,,,,,,,,,,,,,,,,,,,,,,,,,,,,,,,,,,,,,,,,,,,,,,,,,,,,,,,,,,,,,,,,,,,,,,,,,,,,,,,,,,,,,,,,,,,,,,,,,,,,,,,,,,,,,,,,,,,,,,,,,,,,,,,,,
,,,,,,6167f106d8d301bd6433c8b1,62c53b074fe15b429b53c7db,2022-07-06_09h34.53.758,Colour_Asymmetry_Pilot,2022.1.3,Win32,60.0024001,62c50e9c1127f2cd403a315f,0,61,61,69,1,threefour,,,,,,,,,,,,,,,,,,,,,,,,,,,,,,,,,,,,,,,,,,,,,,,,,,,,,,,,,,,,,,,,,,,,,,,,,,,,,,,,,,,,,,,,,,,,,,,,,,,,,,,,,,,,,,,,,,,,,,,,,,,,,,,,,,,,,,,,,,,,,,,,,,,,,,,,,,,,,
,,,,,,6167f106d8d301bd6433c8b1,62c53b074fe15b429b53c7db,2022-07-06_09h34.53.758,Colour_Asymmetry_Pilot,2022.1.3,Win32,60.0024001,62c50e9c1127f2cd403a315f,0,62,62,125,1,threefour,,,,,,,,,,,,,,,,,,,,,,,,,,,,,,,,,,,,,,,,,,,,,,,,,,,,,,,,,,,,,,,,,,,,,,,,,,,,,,,,,,,,,,,,,,,,,,,,,,,,,,,,,,,,,,,,,,,,,,,,,,,,,,,,,,,,,,,,,,,,,,,,,,,,,,,,,,,,,
,,,,,,6167f106d8d301bd6433c8b1,62c53b074fe15b429b53c7db,2022-07-06_09h34.53.758,Colour_Asymmetry_Pilot,2022.1.3,Win32,60.0024001,62c50e9c1127f2cd403a315f,0,63,63,88,1,onetwo,,,,,,,,,,,,,,,,,,,,,,,,,,,,,,,,,,,,,,,,,,,,,,,,,,,,,,,,,,,,,,,,,,,,,,,,,,,,,,,,,,,,,,,,,,,,,,,,,,,,,,,,,,,,,,,,,,,,,,,,,,,,,,,,,,,,,,,,,,,,,,,,,,,,,,,,,,,,,
,,,,,,6167f106d8d301bd6433c8b1,62c53b074fe15b429b53c7db,2022-07-06_09h34.53.758,Colour_Asymmetry_Pilot,2022.1.3,Win32,60.0024001,62c50e9c1127f2cd403a315f,0,64,64,144,1,onetwo,,,,,,,,,,,,,,,,,,,,,,,,,,,,,,,,,,,,,,,,,,,,,,,,,,,,,,,,,,,,,,,,,,,,,,,,,,,,,,,,,,,,,,,,,,,,,,,,,,,,,,,,,,,,,,,,,,,,,,,,,,,,,,,,,,,,,,,,,,,,,,,,,,,,,,,,,,,,,
,,,,,,6167f106d8d301bd6433c8b1,62c53b074fe15b429b53c7db,2022-07-06_09h34.53.758,Colour_Asymmetry_Pilot,2022.1.3,Win32,60.0024001,62c50e9c1127f2cd403a315f,0,65,65,161,1,onethree,,,,,,,,,,,,,,,,,,,,,,,,,,,,,,,,,,,,,,,,,,,,,,,,,,,,,,,,,,,,,,,,,,,,,,,,,,,,,,,,,,,,,,,,,,,,,,,,,,,,,,,,,,,,,,,,,,,,,,,,,,,,,,,,,,,,,,,,,,,,,,,,,,,,,,,,,,,,,
,,,,,,6167f106d8d301bd6433c8b1,62c53b074fe15b429b53c7db,2022-07-06_09h34.53.758,Colour_Asymmetry_Pilot,2022.1.3,Win32,60.0024001,62c50e9c1127f2cd403a315f,0,66,66,100,1,threeone,,,,,,,,,,,,,,,,,,,,,,,,,,,,,,,,,,,,,,,,,,,,,,,,,,,,,,,,,,,,,,,,,,,,,,,,,,,,,,,,,,,,,,,,,,,,,,,,,,,,,,,,,,,,,,,,,,,,,,,,,,,,,,,,,,,,,,,,,,,,,,,,,,,,,,,,,,,,,
,,,,,,6167f106d8d301bd6433c8b1,62c53b074fe15b429b53c7db,2022-07-06_09h34.53.758,Colour_Asymmetry_Pilot,2022.1.3,Win32,60.0024001,62c50e9c1127f2cd403a315f,0,67,67,62,1,fourtwo,,,,,,,,,,,,,,,,,,,,,,,,,,,,,,,,,,,,,,,,,,,,,,,,,,,,,,,,,,,,,,,,,,,,,,,,,,,,,,,,,,,,,,,,,,,,,,,,,,,,,,,,,,,,,,,,,,,,,,,,,,,,,,,,,,,,,,,,,,,,,,,,,,,,,,,,,,,,,
,,,,,,6167f106d8d301bd6433c8b1,62c53b074fe15b429b53c7db,2022-07-06_09h34.53.758,Colour_Asymmetry_Pilot,2022.1.3,Win32,60.0024001,62c50e9c1127f2cd403a315f,0,68,68,136,1,onetwo,,,,,,,,,,,,,,,,,,,,,,,,,,,,,,,,,,,,,,,,,,,,,,,,,,,,,,,,,,,,,,,,,,,,,,,,,,,,,,,,,,,,,,,,,,,,,,,,,,,,,,,,,,,,,,,,,,,,,,,,,,,,,,,,,,,,,,,,,,,,,,,,,,,,,,,,,,,,,
,,,,,,6167f106d8d301bd6433c8b1,62c53b074fe15b429b53c7db,2022-07-06_09h34.53.758,Colour_Asymmetry_Pilot,2022.1.3,Win32,60.0024001,62c50e9c1127f2cd403a315f,0,69,69,25,1,onethree,,,,,,,,,,,,,,,,,,,,,,,,,,,,,,,,,,,,,,,,,,,,,,,,,,,,,,,,,,,,,,,,,,,,,,,,,,,,,,,,,,,,,,,,,,,,,,,,,,,,,,,,,,,,,,,,,,,,,,,,,,,,,,,,,,,,,,,,,,,,,,,,,,,,,,,,,,,,,
,,,,,,6167f106d8d301bd6433c8b1,62c53b074fe15b429b53c7db,2022-07-06_09h34.53.758,Colour_Asymmetry_Pilot,2022.1.3,Win32,60.0024001,62c50e9c1127f2cd403a315f,0,70,70,121,1,onethree,,,,,,,,,,,,,,,,,,,,,,,,,,,,,,,,,,,,,,,,,,,,,,,,,,,,,,,,,,,,,,,,,,,,,,,,,,,,,,,,,,,,,,,,,,,,,,,,,,,,,,,,,,,,,,,,,,,,,,,,,,,,,,,,,,,,,,,,,,,,,,,,,,,,,,,,,,,,,
,,,,,,6167f106d8d301bd6433c8b1,62c53b074fe15b429b53c7db,2022-07-06_09h34.53.758,Colour_Asymmetry_Pilot,2022.1.3,Win32,60.0024001,62c50e9c1127f2cd403a315f,0,71,71,143,1,fourthree,,,,,,,,,,,,,,,,,,,,,,,,,,,,,,,,,,,,,,,,,,,,,,,,,,,,,,,,,,,,,,,,,,,,,,,,,,,,,,,,,,,,,,,,,,,,,,,,,,,,,,,,,,,,,,,,,,,,,,,,,,,,,,,,,,,,,,,,,,,,,,,,,,,,,,,,,,,,,
,,,,,,6167f106d8d301bd6433c8b1,62c53b074fe15b429b53c7db,2022-07-06_09h34.53.758,Colour_Asymmetry_Pilot,2022.1.3,Win32,60.0024001,62c50e9c1127f2cd403a315f,0,72,72,139,1,twofour,,,,,,,,,,,,,,,,,,,,,,,,,,,,,,,,,,,,,,,,,,,,,,,,,,,,,,,,,,,,,,,,,,,,,,,,,,,,,,,,,,,,,,,,,,,,,,,,,,,,,,,,,,,,,,,,,,,,,,,,,,,,,,,,,,,,,,,,,,,,,,,,,,,,,,,,,,,,,
,,,,,,6167f106d8d301bd6433c8b1,62c53b074fe15b429b53c7db,2022-07-06_09h34.53.758,Colour_Asymmetry_Pilot,2022.1.3,Win32,60.0024001,62c50e9c1127f2cd403a315f,0,73,73,42,1,twoone,,,,,,,,,,,,,,,,,,,,,,,,,,,,,,,,,,,,,,,,,,,,,,,,,,,,,,,,,,,,,,,,,,,,,,,,,,,,,,,,,,,,,,,,,,,,,,,,,,,,,,,,,,,,,,,,,,,,,,,,,,,,,,,,,,,,,,,,,,,,,,,,,,,,,,,,,,,,,
,,,,,,6167f106d8d301bd6433c8b1,62c53b074fe15b429b53c7db,2022-07-06_09h34.53.758,Colour_Asymmetry_Pilot,2022.1.3,Win32,60.0024001,62c50e9c1127f2cd403a315f,0,74,74,141,1,threefour,,,,,,,,,,,,,,,,,,,,,,,,,,,,,,,,,,,,,,,,,,,,,,,,,,,,,,,,,,,,,,,,,,,,,,,,,,,,,,,,,,,,,,,,,,,,,,,,,,,,,,,,,,,,,,,,,,,,,,,,,,,,,,,,,,,,,,,,,,,,,,,,,,,,,,,,,,,,,
,,,,,,6167f106d8d301bd6433c8b1,62c53b074fe15b429b53c7db,2022-07-06_09h34.53.758,Colour_Asymmetry_Pilot,2022.1.3,Win32,60.0024001,62c50e9c1127f2cd403a315f,0,75,75,77,1,threefour,,,,,,,,,,,,,,,,,,,,,,,,,,,,,,,,,,,,,,,,,,,,,,,,,,,,,,,,,,,,,,,,,,,,,,,,,,,,,,,,,,,,,,,,,,,,,,,,,,,,,,,,,,,,,,,,,,,,,,,,,,,,,,,,,,,,,,,,,,,,,,,,,,,,,,,,,,,,,
,,,,,,6167f106d8d301bd6433c8b1,62c53b074fe15b429b53c7db,2022-07-06_09h34.53.758,Colour_Asymmetry_Pilot,2022.1.3,Win32,60.0024001,62c50e9c1127f2cd403a315f,0,76,76,78,1,fourtwo,,,,,,,,,,,,,,,,,,,,,,,,,,,,,,,,,,,,,,,,,,,,,,,,,,,,,,,,,,,,,,,,,,,,,,,,,,,,,,,,,,,,,,,,,,,,,,,,,,,,,,,,,,,,,,,,,,,,,,,,,,,,,,,,,,,,,,,,,,,,,,,,,,,,,,,,,,,,,
,,,,,,6167f106d8d301bd6433c8b1,62c53b074fe15b429b53c7db,2022-07-06_09h34.53.758,Colour_Asymmetry_Pilot,2022.1.3,Win32,60.0024001,62c50e9c1127f2cd403a315f,0,77,77,36,1,threeone,,,,,,,,,,,,,,,,,,,,,,,,,,,,,,,,,,,,,,,,,,,,,,,,,,,,,,,,,,,,,,,,,,,,,,,,,,,,,,,,,,,,,,,,,,,,,,,,,,,,,,,,,,,,,,,,,,,,,,,,,,,,,,,,,,,,,,,,,,,,,,,,,,,,,,,,,,,,,
,,,,,,6167f106d8d301bd6433c8b1,62c53b074fe15b429b53c7db,2022-07-06_09h34.53.758,Colour_Asymmetry_Pilot,2022.1.3,Win32,60.0024001,62c50e9c1127f2cd403a315f,0,78,78,28,1,threeone,,,,,,,,,,,,,,,,,,,,,,,,,,,,,,,,,,,,,,,,,,,,,,,,,,,,,,,,,,,,,,,,,,,,,,,,,,,,,,,,,,,,,,,,,,,,,,,,,,,,,,,,,,,,,,,,,,,,,,,,,,,,,,,,,,,,,,,,,,,,,,,,,,,,,,,,,,,,,
,,,,,,6167f106d8d301bd6433c8b1,62c53b074fe15b429b53c7db,2022-07-06_09h34.53.758,Colour_Asymmetry_Pilot,2022.1.3,Win32,60.0024001,62c50e9c1127f2cd403a315f,0,79,79,120,1,onetwo,,,,,,,,,,,,,,,,,,,,,,,,,,,,,,,,,,,,,,,,,,,,,,,,,,,,,,,,,,,,,,,,,,,,,,,,,,,,,,,,,,,,,,,,,,,,,,,,,,,,,,,,,,,,,,,,,,,,,,,,,,,,,,,,,,,,,,,,,,,,,,,,,,,,,,,,,,,,,
,,,,,,6167f106d8d301bd6433c8b1,62c53b074fe15b429b53c7db,2022-07-06_09h34.53.758,Colour_Asymmetry_Pilot,2022.1.3,Win32,60.0024001,62c50e9c1127f2cd403a315f,0,80,80,60,1,threeone,,,,,,,,,,,,,,,,,,,,,,,,,,,,,,,,,,,,,,,,,,,,,,,,,,,,,,,,,,,,,,,,,,,,,,,,,,,,,,,,,,,,,,,,,,,,,,,,,,,,,,,,,,,,,,,,,,,,,,,,,,,,,,,,,,,,,,,,,,,,,,,,,,,,,,,,,,,,,
,,,,,,6167f106d8d301bd6433c8b1,62c53b074fe15b429b53c7db,2022-07-06_09h34.53.758,Colour_Asymmetry_Pilot,2022.1.3,Win32,60.0024001,62c50e9c1127f2cd403a315f,0,81,81,2,1,twoone,,,,,,,,,,,,,,,,,,,,,,,,,,,,,,,,,,,,,,,,,,,,,,,,,,,,,,,,,,,,,,,,,,,,,,,,,,,,,,,,,,,,,,,,,,,,,,,,,,,,,,,,,,,,,,,,,,,,,,,,,,,,,,,,,,,,,,,,,,,,,,,,,,,,,,,,,,,,,
,,,,,,6167f106d8d301bd6433c8b1,62c53b074fe15b429b53c7db,2022-07-06_09h34.53.758,Colour_Asymmetry_Pilot,2022.1.3,Win32,60.0024001,62c50e9c1127f2cd403a315f,0,82,82,13,1,threefour,,,,,,,,,,,,,,,,,,,,,,,,,,,,,,,,,,,,,,,,,,,,,,,,,,,,,,,,,,,,,,,,,,,,,,,,,,,,,,,,,,,,,,,,,,,,,,,,,,,,,,,,,,,,,,,,,,,,,,,,,,,,,,,,,,,,,,,,,,,,,,,,,,,,,,,,,,,,,
,,,,,,6167f106d8d301bd6433c8b1,62c53b074fe15b429b53c7db,2022-07-06_09h34.53.758,Colour_Asymmetry_Pilot,2022.1.3,Win32,60.0024001,62c50e9c1127f2cd403a315f,0,83,83,134,1,fourtwo,,,,,,,,,,,,,,,,,,,,,,,,,,,,,,,,,,,,,,,,,,,,,,,,,,,,,,,,,,,,,,,,,,,,,,,,,,,,,,,,,,,,,,,,,,,,,,,,,,,,,,,,,,,,,,,,,,,,,,,,,,,,,,,,,,,,,,,,,,,,,,,,,,,,,,,,,,,,,
,,,,,,6167f106d8d301bd6433c8b1,62c53b074fe15b429b53c7db,2022-07-06_09h34.53.758,Colour_Asymmetry_Pilot,2022.1.3,Win32,60.0024001,62c50e9c1127f2cd403a315f,0,84,84,55,1,fourthree,,,,,,,,,,,,,,,,,,,,,,,,,,,,,,,,,,,,,,,,,,,,,,,,,,,,,,,,,,,,,,,,,,,,,,,,,,,,,,,,,,,,,,,,,,,,,,,,,,,,,,,,,,,,,,,,,,,,,,,,,,,,,,,,,,,,,,,,,,,,,,,,,,,,,,,,,,,,,
,,,,,,6167f106d8d301bd6433c8b1,62c53b074fe15b429b53c7db,2022-07-06_09h34.53.758,Colour_Asymmetry_Pilot,2022.1.3,Win32,60.0024001,62c50e9c1127f2cd403a315f,0,85,85,10,1,twoone,,,,,,,,,,,,,,,,,,,,,,,,,,,,,,,,,,,,,,,,,,,,,,,,,,,,,,,,,,,,,,,,,,,,,,,,,,,,,,,,,,,,,,,,,,,,,,,,,,,,,,,,,,,,,,,,,,,,,,,,,,,,,,,,,,,,,,,,,,,,,,,,,,,,,,,,,,,,,
,,,,,,6167f106d8d301bd6433c8b1,62c53b074fe15b429b53c7db,2022-07-06_09h34.53.758,Colour_Asymmetry_Pilot,2022.1.3,Win32,60.0024001,62c50e9c1127f2cd403a315f,0,86,86,142,1,fourtwo,,,,,,,,,,,,,,,,,,,,,,,,,,,,,,,,,,,,,,,,,,,,,,,,,,,,,,,,,,,,,,,,,,,,,,,,,,,,,,,,,,,,,,,,,,,,,,,,,,,,,,,,,,,,,,,,,,,,,,,,,,,,,,,,,,,,,,,,,,,,,,,,,,,,,,,,,,,,,
,,,,,,6167f106d8d301bd6433c8b1,62c53b074fe15b429b53c7db,2022-07-06_09h34.53.758,Colour_Asymmetry_Pilot,2022.1.3,Win32,60.0024001,62c50e9c1127f2cd403a315f,0,87,87,39,1,fourthree,,,,,,,,,,,,,,,,,,,,,,,,,,,,,,,,,,,,,,,,,,,,,,,,,,,,,,,,,,,,,,,,,,,,,,,,,,,,,,,,,,,,,,,,,,,,,,,,,,,,,,,,,,,,,,,,,,,,,,,,,,,,,,,,,,,,,,,,,,,,,,,,,,,,,,,,,,,,,
,,,,,,6167f106d8d301bd6433c8b1,62c53b074fe15b429b53c7db,2022-07-06_09h34.53.758,Colour_Asymmetry_Pilot,2022.1.3,Win32,60.0024001,62c50e9c1127f2cd403a315f,0,88,88,145,1,onethree,,,,,,,,,,,,,,,,,,,,,,,,,,,,,,,,,,,,,,,,,,,,,,,,,,,,,,,,,,,,,,,,,,,,,,,,,,,,,,,,,,,,,,,,,,,,,,,,,,,,,,,,,,,,,,,,,,,,,,,,,,,,,,,,,,,,,,,,,,,,,,,,,,,,,,,,,,,,,
,,,,,,6167f106d8d301bd6433c8b1,62c53b074fe15b429b53c7db,2022-07-06_09h34.53.758,Colour_Asymmetry_Pilot,2022.1.3,Win32,60.0024001,62c50e9c1127f2cd403a315f,0,89,89,71,1,fourthree,,,,,,,,,,,,,,,,,,,,,,,,,,,,,,,,,,,,,,,,,,,,,,,,,,,,,,,,,,,,,,,,,,,,,,,,,,,,,,,,,,,,,,,,,,,,,,,,,,,,,,,,,,,,,,,,,,,,,,,,,,,,,,,,,,,,,,,,,,,,,,,,,,,,,,,,,,,,,
,,,,,,6167f106d8d301bd6433c8b1,62c53b074fe15b429b53c7db,2022-07-06_09h34.53.758,Colour_Asymmetry_Pilot,2022.1.3,Win32,60.0024001,62c50e9c1127f2cd403a315f,0,90,90,160,1,onetwo,,,,,,,,,,,,,,,,,,,,,,,,,,,,,,,,,,,,,,,,,,,,,,,,,,,,,,,,,,,,,,,,,,,,,,,,,,,,,,,,,,,,,,,,,,,,,,,,,,,,,,,,,,,,,,,,,,,,,,,,,,,,,,,,,,,,,,,,,,,,,,,,,,,,,,,,,,,,,
,,,,,,6167f106d8d301bd6433c8b1,62c53b074fe15b429b53c7db,2022-07-06_09h34.53.758,Colour_Asymmetry_Pilot,2022.1.3,Win32,60.0024001,62c50e9c1127f2cd403a315f,0,91,91,59,1,twofour,,,,,,,,,,,,,,,,,,,,,,,,,,,,,,,,,,,,,,,,,,,,,,,,,,,,,,,,,,,,,,,,,,,,,,,,,,,,,,,,,,,,,,,,,,,,,,,,,,,,,,,,,,,,,,,,,,,,,,,,,,,,,,,,,,,,,,,,,,,,,,,,,,,,,,,,,,,,,
,,,,,,6167f106d8d301bd6433c8b1,62c53b074fe15b429b53c7db,2022-07-06_09h34.53.758,Colour_Asymmetry_Pilot,2022.1.3,Win32,60.0024001,62c50e9c1127f2cd403a315f,0,92,92,51,1,twofour,,,,,,,,,,,,,,,,,,,,,,,,,,,,,,,,,,,,,,,,,,,,,,,,,,,,,,,,,,,,,,,,,,,,,,,,,,,,,,,,,,,,,,,,,,,,,,,,,,,,,,,,,,,,,,,,,,,,,,,,,,,,,,,,,,,,,,,,,,,,,,,,,,,,,,,,,,,,,
,,,,,,6167f106d8d301bd6433c8b1,62c53b074fe15b429b53c7db,2022-07-06_09h34.53.758,Colour_Asymmetry_Pilot,2022.1.3,Win32,60.0024001,62c50e9c1127f2cd403a315f,0,93,93,108,1,threeone,,,,,,,,,,,,,,,,,,,,,,,,,,,,,,,,,,,,,,,,,,,,,,,,,,,,,,,,,,,,,,,,,,,,,,,,,,,,,,,,,,,,,,,,,,,,,,,,,,,,,,,,,,,,,,,,,,,,,,,,,,,,,,,,,,,,,,,,,,,,,,,,,,,,,,,,,,,,,
,,,,,,6167f106d8d301bd6433c8b1,62c53b074fe15b429b53c7db,2022-07-06_09h34.53.758,Colour_Asymmetry_Pilot,2022.1.3,Win32,60.0024001,62c50e9c1127f2cd403a315f,0,94,94,26,1,twoone,,,,,,,,,,,,,,,,,,,,,,,,,,,,,,,,,,,,,,,,,,,,,,,,,,,,,,,,,,,,,,,,,,,,,,,,,,,,,,,,,,,,,,,,,,,,,,,,,,,,,,,,,,,,,,,,,,,,,,,,,,,,,,,,,,,,,,,,,,,,,,,,,,,,,,,,,,,,,
,,,,,,6167f106d8d301bd6433c8b1,62c53b074fe15b429b53c7db,2022-07-06_09h34.53.758,Colour_Asymmetry_Pilot,2022.1.3,Win32,60.0024001,62c50e9c1127f2cd403a315f,0,95,95,97,1,onethree,,,,,,,,,,,,,,,,,,,,,,,,,,,,,,,,,,,,,,,,,,,,,,,,,,,,,,,,,,,,,,,,,,,,,,,,,,,,,,,,,,,,,,,,,,,,,,,,,,,,,,,,,,,,,,,,,,,,,,,,,,,,,,,,,,,,,,,,,,,,,,,,,,,,,,,,,,,,,
,,,,,,6167f106d8d301bd6433c8b1,62c53b074fe15b429b53c7db,2022-07-06_09h34.53.758,Colour_Asymmetry_Pilot,2022.1.3,Win32,60.0024001,62c50e9c1127f2cd403a315f,0,96,96,146,1,twoone,,,,,,,,,,,,,,,,,,,,,,,,,,,,,,,,,,,,,,,,,,,,,,,,,,,,,,,,,,,,,,,,,,,,,,,,,,,,,,,,,,,,,,,,,,,,,,,,,,,,,,,,,,,,,,,,,,,,,,,,,,,,,,,,,,,,,,,,,,,,,,,,,,,,,,,,,,,,,
,,,,,,6167f106d8d301bd6433c8b1,62c53b074fe15b429b53c7db,2022-07-06_09h34.53.758,Colour_Asymmetry_Pilot,2022.1.3,Win32,60.0024001,62c50e9c1127f2cd403a315f,0,97,97,113,1,onethree,,,,,,,,,,,,,,,,,,,,,,,,,,,,,,,,,,,,,,,,,,,,,,,,,,,,,,,,,,,,,,,,,,,,,,,,,,,,,,,,,,,,,,,,,,,,,,,,,,,,,,,,,,,,,,,,,,,,,,,,,,,,,,,,,,,,,,,,,,,,,,,,,,,,,,,,,,,,,
,,,,,,6167f106d8d301bd6433c8b1,62c53b074fe15b429b53c7db,2022-07-06_09h34.53.758,Colour_Asymmetry_Pilot,2022.1.3,Win32,60.0024001,62c50e9c1127f2cd403a315f,0,98,98,107,1,twofour,,,,,,,,,,,,,,,,,,,,,,,,,,,,,,,,,,,,,,,,,,,,,,,,,,,,,,,,,,,,,,,,,,,,,,,,,,,,,,,,,,,,,,,,,,,,,,,,,,,,,,,,,,,,,,,,,,,,,,,,,,,,,,,,,,,,,,,,,,,,,,,,,,,,,,,,,,,,,
,,,,,,6167f106d8d301bd6433c8b1,62c53b074fe15b429b53c7db,2022-07-06_09h34.53.758,Colour_Asymmetry_Pilot,2022.1.3,Win32,60.0024001,62c50e9c1127f2cd403a315f,0,99,99,20,1,threeone,,,,,,,,,,,,,,,,,,,,,,,,,,,,,,,,,,,,,,,,,,,,,,,,,,,,,,,,,,,,,,,,,,,,,,,,,,,,,,,,,,,,,,,,,,,,,,,,,,,,,,,,,,,,,,,,,,,,,,,,,,,,,,,,,,,,,,,,,,,,,,,,,,,,,,,,,,,,,
,,,,,,6167f106d8d301bd6433c8b1,62c53b074fe15b429b53c7db,2022-07-06_09h34.53.758,Colour_Asymmetry_Pilot,2022.1.3,Win32,60.0024001,62c50e9c1127f2cd403a315f,0,100,100,9,1,onethree,,,,,,,,,,,,,,,,,,,,,,,,,,,,,,,,,,,,,,,,,,,,,,,,,,,,,,,,,,,,,,,,,,,,,,,,,,,,,,,,,,,,,,,,,,,,,,,,,,,,,,,,,,,,,,,,,,,,,,,,,,,,,,,,,,,,,,,,,,,,,,,,,,,,,,,,,,,,,
,,,,,,6167f106d8d301bd6433c8b1,62c53b074fe15b429b53c7db,2022-07-06_09h34.53.758,Colour_Asymmetry_Pilot,2022.1.3,Win32,60.0024001,62c50e9c1127f2cd403a315f,0,101,101,18,1,twoone,,,,,,,,,,,,,,,,,,,,,,,,,,,,,,,,,,,,,,,,,,,,,,,,,,,,,,,,,,,,,,,,,,,,,,,,,,,,,,,,,,,,,,,,,,,,,,,,,,,,,,,,,,,,,,,,,,,,,,,,,,,,,,,,,,,,,,,,,,,,,,,,,,,,,,,,,,,,,
,,,,,,6167f106d8d301bd6433c8b1,62c53b074fe15b429b53c7db,2022-07-06_09h34.53.758,Colour_Asymmetry_Pilot,2022.1.3,Win32,60.0024001,62c50e9c1127f2cd403a315f,0,102,102,14,1,fourtwo,,,,,,,,,,,,,,,,,,,,,,,,,,,,,,,,,,,,,,,,,,,,,,,,,,,,,,,,,,,,,,,,,,,,,,,,,,,,,,,,,,,,,,,,,,,,,,,,,,,,,,,,,,,,,,,,,,,,,,,,,,,,,,,,,,,,,,,,,,,,,,,,,,,,,,,,,,,,,
,,,,,,6167f106d8d301bd6433c8b1,62c53b074fe15b429b53c7db,2022-07-06_09h34.53.758,Colour_Asymmetry_Pilot,2022.1.3,Win32,60.0024001,62c50e9c1127f2cd403a315f,0,103,103,122,1,twoone,,,,,,,,,,,,,,,,,,,,,,,,,,,,,,,,,,,,,,,,,,,,,,,,,,,,,,,,,,,,,,,,,,,,,,,,,,,,,,,,,,,,,,,,,,,,,,,,,,,,,,,,,,,,,,,,,,,,,,,,,,,,,,,,,,,,,,,,,,,,,,,,,,,,,,,,,,,,,
,,,,,,6167f106d8d301bd6433c8b1,62c53b074fe15b429b53c7db,2022-07-06_09h34.53.758,Colour_Asymmetry_Pilot,2022.1.3,Win32,60.0024001,62c50e9c1127f2cd403a315f,0,104,104,61,1,threefour,,,,,,,,,,,,,,,,,,,,,,,,,,,,,,,,,,,,,,,,,,,,,,,,,,,,,,,,,,,,,,,,,,,,,,,,,,,,,,,,,,,,,,,,,,,,,,,,,,,,,,,,,,,,,,,,,,,,,,,,,,,,,,,,,,,,,,,,,,,,,,,,,,,,,,,,,,,,,
,,,,,,6167f106d8d301bd6433c8b1,62c53b074fe15b429b53c7db,2022-07-06_09h34.53.758,Colour_Asymmetry_Pilot,2022.1.3,Win32,60.0024001,62c50e9c1127f2cd403a315f,0,105,105,38,1,fourtwo,,,,,,,,,,,,,,,,,,,,,,,,,,,,,,,,,,,,,,,,,,,,,,,,,,,,,,,,,,,,,,,,,,,,,,,,,,,,,,,,,,,,,,,,,,,,,,,,,,,,,,,,,,,,,,,,,,,,,,,,,,,,,,,,,,,,,,,,,,,,,,,,,,,,,,,,,,,,,
,,,,,,6167f106d8d301bd6433c8b1,62c53b074fe15b429b53c7db,2022-07-06_09h34.53.758,Colour_Asymmetry_Pilot,2022.1.3,Win32,60.0024001,62c50e9c1127f2cd403a315f,0,106,106,92,1,threeone,,,,,,,,,,,,,,,,,,,,,,,,,,,,,,,,,,,,,,,,,,,,,,,,,,,,,,,,,,,,,,,,,,,,,,,,,,,,,,,,,,,,,,,,,,,,,,,,,,,,,,,,,,,,,,,,,,,,,,,,,,,,,,,,,,,,,,,,,,,,,,,,,,,,,,,,,,,,,
,,,,,,6167f106d8d301bd6433c8b1,62c53b074fe15b429b53c7db,2022-07-06_09h34.53.758,Colour_Asymmetry_Pilot,2022.1.3,Win32,60.0024001,62c50e9c1127f2cd403a315f,0,107,107,114,1,twoone,,,,,,,,,,,,,,,,,,,,,,,,,,,,,,,,,,,,,,,,,,,,,,,,,,,,,,,,,,,,,,,,,,,,,,,,,,,,,,,,,,,,,,,,,,,,,,,,,,,,,,,,,,,,,,,,,,,,,,,,,,,,,,,,,,,,,,,,,,,,,,,,,,,,,,,,,,,,,
,,,,,,6167f106d8d301bd6433c8b1,62c53b074fe15b429b53c7db,2022-07-06_09h34.53.758,Colour_Asymmetry_Pilot,2022.1.3,Win32,60.0024001,62c50e9c1127f2cd403a315f,0,108,108,45,1,threefour,,,,,,,,,,,,,,,,,,,,,,,,,,,,,,,,,,,,,,,,,,,,,,,,,,,,,,,,,,,,,,,,,,,,,,,,,,,,,,,,,,,,,,,,,,,,,,,,,,,,,,,,,,,,,,,,,,,,,,,,,,,,,,,,,,,,,,,,,,,,,,,,,,,,,,,,,,,,,
,,,,,,6167f106d8d301bd6433c8b1,62c53b074fe15b429b53c7db,2022-07-06_09h34.53.758,Colour_Asymmetry_Pilot,2022.1.3,Win32,60.0024001,62c50e9c1127f2cd403a315f,0,109,109,95,1,fourthree,,,,,,,,,,,,,,,,,,,,,,,,,,,,,,,,,,,,,,,,,,,,,,,,,,,,,,,,,,,,,,,,,,,,,,,,,,,,,,,,,,,,,,,,,,,,,,,,,,,,,,,,,,,,,,,,,,,,,,,,,,,,,,,,,,,,,,,,,,,,,,,,,,,,,,,,,,,,,
,,,,,,6167f106d8d301bd6433c8b1,62c53b074fe15b429b53c7db,2022-07-06_09h34.53.758,Colour_Asymmetry_Pilot,2022.1.3,Win32,60.0024001,62c50e9c1127f2cd403a315f,0,110,110,73,1,onethree,,,,,,,,,,,,,,,,,,,,,,,,,,,,,,,,,,,,,,,,,,,,,,,,,,,,,,,,,,,,,,,,,,,,,,,,,,,,,,,,,,,,,,,,,,,,,,,,,,,,,,,,,,,,,,,,,,,,,,,,,,,,,,,,,,,,,,,,,,,,,,,,,,,,,,,,,,,,,
,,,,,,6167f106d8d301bd6433c8b1,62c53b074fe15b429b53c7db,2022-07-06_09h34.53.758,Colour_Asymmetry_Pilot,2022.1.3,Win32,60.0024001,62c50e9c1127f2cd403a315f,0,111,111,127,1,fourthree,,,,,,,,,,,,,,,,,,,,,,,,,,,,,,,,,,,,,,,,,,,,,,,,,,,,,,,,,,,,,,,,,,,,,,,,,,,,,,,,,,,,,,,,,,,,,,,,,,,,,,,,,,,,,,,,,,,,,,,,,,,,,,,,,,,,,,,,,,,,,,,,,,,,,,,,,,,,,
,,,,,,6167f106d8d301bd6433c8b1,62c53b074fe15b429b53c7db,2022-07-06_09h34.53.758,Colour_Asymmetry_Pilot,2022.1.3,Win32,60.0024001,62c50e9c1127f2cd403a315f,0,112,112,155,1,twofour,,,,,,,,,,,,,,,,,,,,,,,,,,,,,,,,,,,,,,,,,,,,,,,,,,,,,,,,,,,,,,,,,,,,,,,,,,,,,,,,,,,,,,,,,,,,,,,,,,,,,,,,,,,,,,,,,,,,,,,,,,,,,,,,,,,,,,,,,,,,,,,,,,,,,,,,,,,,,
,,,,,,6167f106d8d301bd6433c8b1,62c53b074fe15b429b53c7db,2022-07-06_09h34.53.758,Colour_Asymmetry_Pilot,2022.1.3,Win32,60.0024001,62c50e9c1127f2cd403a315f,0,113,113,46,1,fourtwo,,,,,,,,,,,,,,,,,,,,,,,,,,,,,,,,,,,,,,,,,,,,,,,,,,,,,,,,,,,,,,,,,,,,,,,,,,,,,,,,,,,,,,,,,,,,,,,,,,,,,,,,,,,,,,,,,,,,,,,,,,,,,,,,,,,,,,,,,,,,,,,,,,,,,,,,,,,,,
,,,,,,6167f106d8d301bd6433c8b1,62c53b074fe15b429b53c7db,2022-07-06_09h34.53.758,Colour_Asymmetry_Pilot,2022.1.3,Win32,60.0024001,62c50e9c1127f2cd403a315f,0,114,114,63,1,fourthree,,,,,,,,,,,,,,,,,,,,,,,,,,,,,,,,,,,,,,,,,,,,,,,,,,,,,,,,,,,,,,,,,,,,,,,,,,,,,,,,,,,,,,,,,,,,,,,,,,,,,,,,,,,,,,,,,,,,,,,,,,,,,,,,,,,,,,,,,,,,,,,,,,,,,,,,,,,,,
,,,,,,6167f106d8d301bd6433c8b1,62c53b074fe15b429b53c7db,2022-07-06_09h34.53.758,Colour_Asymmetry_Pilot,2022.1.3,Win32,60.0024001,62c50e9c1127f2cd403a315f,0,115,115,90,1,twoone,,,,,,,,,,,,,,,,,,,,,,,,,,,,,,,,,,,,,,,,,,,,,,,,,,,,,,,,,,,,,,,,,,,,,,,,,,,,,,,,,,,,,,,,,,,,,,,,,,,,,,,,,,,,,,,,,,,,,,,,,,,,,,,,,,,,,,,,,,,,,,,,,,,,,,,,,,,,,
,,,,,,6167f106d8d301bd6433c8b1,62c53b074fe15b429b53c7db,2022-07-06_09h34.53.758,Colour_Asymmetry_Pilot,2022.1.3,Win32,60.0024001,62c50e9c1127f2cd403a315f,0,116,116,138,1,twoone,,,,,,,,,,,,,,,,,,,,,,,,,,,,,,,,,,,,,,,,,,,,,,,,,,,,,,,,,,,,,,,,,,,,,,,,,,,,,,,,,,,,,,,,,,,,,,,,,,,,,,,,,,,,,,,,,,,,,,,,,,,,,,,,,,,,,,,,,,,,,,,,,,,,,,,,,,,,,
,,,,,,6167f106d8d301bd6433c8b1,62c53b074fe15b429b53c7db,2022-07-06_09h34.53.758,Colour_Asymmetry_Pilot,2022.1.3,Win32,60.0024001,62c50e9c1127f2cd403a315f,0,117,117,52,1,threeone,,,,,,,,,,,,,,,,,,,,,,,,,,,,,,,,,,,,,,,,,,,,,,,,,,,,,,,,,,,,,,,,,,,,,,,,,,,,,,,,,,,,,,,,,,,,,,,,,,,,,,,,,,,,,,,,,,,,,,,,,,,,,,,,,,,,,,,,,,,,,,,,,,,,,,,,,,,,,
,,,,,,6167f106d8d301bd6433c8b1,62c53b074fe15b429b53c7db,2022-07-06_09h34.53.758,Colour_Asymmetry_Pilot,2022.1.3,Win32,60.0024001,62c50e9c1127f2cd403a315f,0,118,118,112,1,onetwo,,,,,,,,,,,,,,,,,,,,,,,,,,,,,,,,,,,,,,,,,,,,,,,,,,,,,,,,,,,,,,,,,,,,,,,,,,,,,,,,,,,,,,,,,,,,,,,,,,,,,,,,,,,,,,,,,,,,,,,,,,,,,,,,,,,,,,,,,,,,,,,,,,,,,,,,,,,,,
,,,,,,6167f106d8d301bd6433c8b1,62c53b074fe15b429b53c7db,2022-07-06_09h34.53.758,Colour_Asymmetry_Pilot,2022.1.3,Win32,60.0024001,62c50e9c1127f2cd403a315f,0,119,119,80,1,onetwo,,,,,,,,,,,,,,,,,,,,,,,,,,,,,,,,,,,,,,,,,,,,,,,,,,,,,,,,,,,,,,,,,,,,,,,,,,,,,,,,,,,,,,,,,,,,,,,,,,,,,,,,,,,,,,,,,,,,,,,,,,,,,,,,,,,,,,,,,,,,,,,,,,,,,,,,,,,,,
,,,,,,6167f106d8d301bd6433c8b1,62c53b074fe15b429b53c7db,2022-07-06_09h34.53.758,Colour_Asymmetry_Pilot,2022.1.3,Win32,60.0024001,62c50e9c1127f2cd403a315f,0,120,120,89,1,onethree,,,,,,,,,,,,,,,,,,,,,,,,,,,,,,,,,,,,,,,,,,,,,,,,,,,,,,,,,,,,,,,,,,,,,,,,,,,,,,,,,,,,,,,,,,,,,,,,,,,,,,,,,,,,,,,,,,,,,,,,,,,,,,,,,,,,,,,,,,,,,,,,,,,,,,,,,,,,,
,,,,,,6167f106d8d301bd6433c8b1,62c53b074fe15b429b53c7db,2022-07-06_09h34.53.758,Colour_Asymmetry_Pilot,2022.1.3,Win32,60.0024001,62c50e9c1127f2cd403a315f,0,121,121,157,1,threefour,,,,,,,,,,,,,,,,,,,,,,,,,,,,,,,,,,,,,,,,,,,,,,,,,,,,,,,,,,,,,,,,,,,,,,,,,,,,,,,,,,,,,,,,,,,,,,,,,,,,,,,,,,,,,,,,,,,,,,,,,,,,,,,,,,,,,,,,,,,,,,,,,,,,,,,,,,,,,
,,,,,,6167f106d8d301bd6433c8b1,62c53b074fe15b429b53c7db,2022-07-06_09h34.53.758,Colour_Asymmetry_Pilot,2022.1.3,Win32,60.0024001,62c50e9c1127f2cd403a315f,0,122,122,87,1,fourthree,,,,,,,,,,,,,,,,,,,,,,,,,,,,,,,,,,,,,,,,,,,,,,,,,,,,,,,,,,,,,,,,,,,,,,,,,,,,,,,,,,,,,,,,,,,,,,,,,,,,,,,,,,,,,,,,,,,,,,,,,,,,,,,,,,,,,,,,,,,,,,,,,,,,,,,,,,,,,
,,,,,,6167f106d8d301bd6433c8b1,62c53b074fe15b429b53c7db,2022-07-06_09h34.53.758,Colour_Asymmetry_Pilot,2022.1.3,Win32,60.0024001,62c50e9c1127f2cd403a315f,0,123,123,153,1,onethree,,,,,,,,,,,,,,,,,,,,,,,,,,,,,,,,,,,,,,,,,,,,,,,,,,,,,,,,,,,,,,,,,,,,,,,,,,,,,,,,,,,,,,,,,,,,,,,,,,,,,,,,,,,,,,,,,,,,,,,,,,,,,,,,,,,,,,,,,,,,,,,,,,,,,,,,,,,,,
,,,,,,6167f106d8d301bd6433c8b1,62c53b074fe15b429b53c7db,2022-07-06_09h34.53.758,Colour_Asymmetry_Pilot,2022.1.3,Win32,60.0024001,62c50e9c1127f2cd403a315f,0,124,124,68,1,threeone,,,,,,,,,,,,,,,,,,,,,,,,,,,,,,,,,,,,,,,,,,,,,,,,,,,,,,,,,,,,,,,,,,,,,,,,,,,,,,,,,,,,,,,,,,,,,,,,,,,,,,,,,,,,,,,,,,,,,,,,,,,,,,,,,,,,,,,,,,,,,,,,,,,,,,,,,,,,,
,,,,,,6167f106d8d301bd6433c8b1,62c53b074fe15b429b53c7db,2022-07-06_09h34.53.758,Colour_Asymmetry_Pilot,2022.1.3,Win32,60.0024001,62c50e9c1127f2cd403a315f,0,125,125,6,1,fourtwo,,,,,,,,,,,,,,,,,,,,,,,,,,,,,,,,,,,,,,,,,,,,,,,,,,,,,,,,,,,,,,,,,,,,,,,,,,,,,,,,,,,,,,,,,,,,,,,,,,,,,,,,,,,,,,,,,,,,,,,,,,,,,,,,,,,,,,,,,,,,,,,,,,,,,,,,,,,,,
,,,,,,6167f106d8d301bd6433c8b1,62c53b074fe15b429b53c7db,2022-07-06_09h34.53.758,Colour_Asymmetry_Pilot,2022.1.3,Win32,60.0024001,62c50e9c1127f2cd403a315f,0,126,126,128,1,onetwo,,,,,,,,,,,,,,,,,,,,,,,,,,,,,,,,,,,,,,,,,,,,,,,,,,,,,,,,,,,,,,,,,,,,,,,,,,,,,,,,,,,,,,,,,,,,,,,,,,,,,,,,,,,,,,,,,,,,,,,,,,,,,,,,,,,,,,,,,,,,,,,,,,,,,,,,,,,,,
,,,,,,6167f106d8d301bd6433c8b1,62c53b074fe15b429b53c7db,2022-07-06_09h34.53.758,Colour_Asymmetry_Pilot,2022.1.3,Win32,60.0024001,62c50e9c1127f2cd403a315f,0,127,127,76,1,threeone,,,,,,,,,,,,,,,,,,,,,,,,,,,,,,,,,,,,,,,,,,,,,,,,,,,,,,,,,,,,,,,,,,,,,,,,,,,,,,,,,,,,,,,,,,,,,,,,,,,,,,,,,,,,,,,,,,,,,,,,,,,,,,,,,,,,,,,,,,,,,,,,,,,,,,,,,,,,,
,,,,,,6167f106d8d301bd6433c8b1,62c53b074fe15b429b53c7db,2022-07-06_09h34.53.758,Colour_Asymmetry_Pilot,2022.1.3,Win32,60.0024001,62c50e9c1127f2cd403a315f,0,128,128,43,1,twofour,,,,,,,,,,,,,,,,,,,,,,,,,,,,,,,,,,,,,,,,,,,,,,,,,,,,,,,,,,,,,,,,,,,,,,,,,,,,,,,,,,,,,,,,,,,,,,,,,,,,,,,,,,,,,,,,,,,,,,,,,,,,,,,,,,,,,,,,,,,,,,,,,,,,,,,,,,,,,
,,,,,,6167f106d8d301bd6433c8b1,62c53b074fe15b429b53c7db,2022-07-06_09h34.53.758,Colour_Asymmetry_Pilot,2022.1.3,Win32,60.0024001,62c50e9c1127f2cd403a315f,0,129,129,109,1,threefour,,,,,,,,,,,,,,,,,,,,,,,,,,,,,,,,,,,,,,,,,,,,,,,,,,,,,,,,,,,,,,,,,,,,,,,,,,,,,,,,,,,,,,,,,,,,,,,,,,,,,,,,,,,,,,,,,,,,,,,,,,,,,,,,,,,,,,,,,,,,,,,,,,,,,,,,,,,,,
,,,,,,6167f106d8d301bd6433c8b1,62c53b074fe15b429b53c7db,2022-07-06_09h34.53.758,Colour_Asymmetry_Pilot,2022.1.3,Win32,60.0024001,62c50e9c1127f2cd403a315f,0,130,130,4,1,threeone,,,,,,,,,,,,,,,,,,,,,,,,,,,,,,,,,,,,,,,,,,,,,,,,,,,,,,,,,,,,,,,,,,,,,,,,,,,,,,,,,,,,,,,,,,,,,,,,,,,,,,,,,,,,,,,,,,,,,,,,,,,,,,,,,,,,,,,,,,,,,,,,,,,,,,,,,,,,,
,,,,,,6167f106d8d301bd6433c8b1,62c53b074fe15b429b53c7db,2022-07-06_09h34.53.758,Colour_Asymmetry_Pilot,2022.1.3,Win32,60.0024001,62c50e9c1127f2cd403a315f,0,131,131,33,1,onethree,,,,,,,,,,,,,,,,,,,,,,,,,,,,,,,,,,,,,,,,,,,,,,,,,,,,,,,,,,,,,,,,,,,,,,,,,,,,,,,,,,,,,,,,,,,,,,,,,,,,,,,,,,,,,,,,,,,,,,,,,,,,,,,,,,,,,,,,,,,,,,,,,,,,,,,,,,,,,
,,,,,,6167f106d8d301bd6433c8b1,62c53b074fe15b429b53c7db,2022-07-06_09h34.53.758,Colour_Asymmetry_Pilot,2022.1.3,Win32,60.0024001,62c50e9c1127f2cd403a315f,0,132,132,75,1,twofour,,,,,,,,,,,,,,,,,,,,,,,,,,,,,,,,,,,,,,,,,,,,,,,,,,,,,,,,,,,,,,,,,,,,,,,,,,,,,,,,,,,,,,,,,,,,,,,,,,,,,,,,,,,,,,,,,,,,,,,,,,,,,,,,,,,,,,,,,,,,,,,,,,,,,,,,,,,,,
,,,,,,6167f106d8d301bd6433c8b1,62c53b074fe15b429b53c7db,2022-07-06_09h34.53.758,Colour_Asymmetry_Pilot,2022.1.3,Win32,60.0024001,62c50e9c1127f2cd403a315f,0,133,133,115,1,twofour,,,,,,,,,,,,,,,,,,,,,,,,,,,,,,,,,,,,,,,,,,,,,,,,,,,,,,,,,,,,,,,,,,,,,,,,,,,,,,,,,,,,,,,,,,,,,,,,,,,,,,,,,,,,,,,,,,,,,,,,,,,,,,,,,,,,,,,,,,,,,,,,,,,,,,,,,,,,,
,,,,,,6167f106d8d301bd6433c8b1,62c53b074fe15b429b53c7db,2022-07-06_09h34.53.758,Colour_Asymmetry_Pilot,2022.1.3,Win32,60.0024001,62c50e9c1127f2cd403a315f,0,134,134,133,1,threefour,,,,,,,,,,,,,,,,,,,,,,,,,,,,,,,,,,,,,,,,,,,,,,,,,,,,,,,,,,,,,,,,,,,,,,,,,,,,,,,,,,,,,,,,,,,,,,,,,,,,,,,,,,,,,,,,,,,,,,,,,,,,,,,,,,,,,,,,,,,,,,,,,,,,,,,,,,,,,
,,,,,,6167f106d8d301bd6433c8b1,62c53b074fe15b429b53c7db,2022-07-06_09h34.53.758,Colour_Asymmetry_Pilot,2022.1.3,Win32,60.0024001,62c50e9c1127f2cd403a315f,0,135,135,53,1,threefour,,,,,,,,,,,,,,,,,,,,,,,,,,,,,,,,,,,,,,,,,,,,,,,,,,,,,,,,,,,,,,,,,,,,,,,,,,,,,,,,,,,,,,,,,,,,,,,,,,,,,,,,,,,,,,,,,,,,,,,,,,,,,,,,,,,,,,,,,,,,,,,,,,,,,,,,,,,,,
,,,,,,6167f106d8d301bd6433c8b1,62c53b074fe15b429b53c7db,2022-07-06_09h34.53.758,Colour_Asymmetry_Pilot,2022.1.3,Win32,60.0024001,62c50e9c1127f2cd403a315f,0,136,136,34,1,twoone,,,,,,,,,,,,,,,,,,,,,,,,,,,,,,,,,,,,,,,,,,,,,,,,,,,,,,,,,,,,,,,,,,,,,,,,,,,,,,,,,,,,,,,,,,,,,,,,,,,,,,,,,,,,,,,,,,,,,,,,,,,,,,,,,,,,,,,,,,,,,,,,,,,,,,,,,,,,,
,,,,,,6167f106d8d301bd6433c8b1,62c53b074fe15b429b53c7db,2022-07-06_09h34.53.758,Colour_Asymmetry_Pilot,2022.1.3,Win32,60.0024001,62c50e9c1127f2cd403a315f,0,137,137,81,1,onethree,,,,,,,,,,,,,,,,,,,,,,,,,,,,,,,,,,,,,,,,,,,,,,,,,,,,,,,,,,,,,,,,,,,,,,,,,,,,,,,,,,,,,,,,,,,,,,,,,,,,,,,,,,,,,,,,,,,,,,,,,,,,,,,,,,,,,,,,,,,,,,,,,,,,,,,,,,,,,
,,,,,,6167f106d8d301bd6433c8b1,62c53b074fe15b429b53c7db,2022-07-06_09h34.53.758,Colour_Asymmetry_Pilot,2022.1.3,Win32,60.0024001,62c50e9c1127f2cd403a315f,0,138,138,159,1,fourthree,,,,,,,,,,,,,,,,,,,,,,,,,,,,,,,,,,,,,,,,,,,,,,,,,,,,,,,,,,,,,,,,,,,,,,,,,,,,,,,,,,,,,,,,,,,,,,,,,,,,,,,,,,,,,,,,,,,,,,,,,,,,,,,,,,,,,,,,,,,,,,,,,,,,,,,,,,,,,
,,,,,,6167f106d8d301bd6433c8b1,62c53b074fe15b429b53c7db,2022-07-06_09h34.53.758,Colour_Asymmetry_Pilot,2022.1.3,Win32,60.0024001,62c50e9c1127f2cd403a315f,0,139,139,83,1,twofour,,,,,,,,,,,,,,,,,,,,,,,,,,,,,,,,,,,,,,,,,,,,,,,,,,,,,,,,,,,,,,,,,,,,,,,,,,,,,,,,,,,,,,,,,,,,,,,,,,,,,,,,,,,,,,,,,,,,,,,,,,,,,,,,,,,,,,,,,,,,,,,,,,,,,,,,,,,,,
,,,,,,6167f106d8d301bd6433c8b1,62c53b074fe15b429b53c7db,2022-07-06_09h34.53.758,Colour_Asymmetry_Pilot,2022.1.3,Win32,60.0024001,62c50e9c1127f2cd403a315f,0,140,140,35,1,twofour,,,,,,,,,,,,,,,,,,,,,,,,,,,,,,,,,,,,,,,,,,,,,,,,,,,,,,,,,,,,,,,,,,,,,,,,,,,,,,,,,,,,,,,,,,,,,,,,,,,,,,,,,,,,,,,,,,,,,,,,,,,,,,,,,,,,,,,,,,,,,,,,,,,,,,,,,,,,,
,,,,,,6167f106d8d301bd6433c8b1,62c53b074fe15b429b53c7db,2022-07-06_09h34.53.758,Colour_Asymmetry_Pilot,2022.1.3,Win32,60.0024001,62c50e9c1127f2cd403a315f,0,141,141,70,1,fourtwo,,,,,,,,,,,,,,,,,,,,,,,,,,,,,,,,,,,,,,,,,,,,,,,,,,,,,,,,,,,,,,,,,,,,,,,,,,,,,,,,,,,,,,,,,,,,,,,,,,,,,,,,,,,,,,,,,,,,,,,,,,,,,,,,,,,,,,,,,,,,,,,,,,,,,,,,,,,,,
,,,,,,6167f106d8d301bd6433c8b1,62c53b074fe15b429b53c7db,2022-07-06_09h34.53.758,Colour_Asymmetry_Pilot,2022.1.3,Win32,60.0024001,62c50e9c1127f2cd403a315f,0,142,142,21,1,threefour,,,,,,,,,,,,,,,,,,,,,,,,,,,,,,,,,,,,,,,,,,,,,,,,,,,,,,,,,,,,,,,,,,,,,,,,,,,,,,,,,,,,,,,,,,,,,,,,,,,,,,,,,,,,,,,,,,,,,,,,,,,,,,,,,,,,,,,,,,,,,,,,,,,,,,,,,,,,,
,,,,,,6167f106d8d301bd6433c8b1,62c53b074fe15b429b53c7db,2022-07-06_09h34.53.758,Colour_Asymmetry_Pilot,2022.1.3,Win32,60.0024001,62c50e9c1127f2cd403a315f,0,143,143,140,1,threeone,,,,,,,,,,,,,,,,,,,,,,,,,,,,,,,,,,,,,,,,,,,,,,,,,,,,,,,,,,,,,,,,,,,,,,,,,,,,,,,,,,,,,,,,,,,,,,,,,,,,,,,,,,,,,,,,,,,,,,,,,,,,,,,,,,,,,,,,,,,,,,,,,,,,,,,,,,,,,
,,,,,,6167f106d8d301bd6433c8b1,62c53b074fe15b429b53c7db,2022-07-06_09h34.53.758,Colour_Asymmetry_Pilot,2022.1.3,Win32,60.0024001,62c50e9c1127f2cd403a315f,0,144,144,40,1,onetwo,,,,,,,,,,,,,,,,,,,,,,,,,,,,,,,,,,,,,,,,,,,,,,,,,,,,,,,,,,,,,,,,,,,,,,,,,,,,,,,,,,,,,,,,,,,,,,,,,,,,,,,,,,,,,,,,,,,,,,,,,,,,,,,,,,,,,,,,,,,,,,,,,,,,,,,,,,,,,
,,,,,,6167f106d8d301bd6433c8b1,62c53b074fe15b429b53c7db,2022-07-06_09h34.53.758,Colour_Asymmetry_Pilot,2022.1.3,Win32,60.0024001,62c50e9c1127f2cd403a315f,0,145,145,57,1,onethree,,,,,,,,,,,,,,,,,,,,,,,,,,,,,,,,,,,,,,,,,,,,,,,,,,,,,,,,,,,,,,,,,,,,,,,,,,,,,,,,,,,,,,,,,,,,,,,,,,,,,,,,,,,,,,,,,,,,,,,,,,,,,,,,,,,,,,,,,,,,,,,,,,,,,,,,,,,,,
,,,,,,6167f106d8d301bd6433c8b1,62c53b074fe15b429b53c7db,2022-07-06_09h34.53.758,Colour_Asymmetry_Pilot,2022.1.3,Win32,60.0024001,62c50e9c1127f2cd403a315f,0,146,146,103,1,fourthree,,,,,,,,,,,,,,,,,,,,,,,,,,,,,,,,,,,,,,,,,,,,,,,,,,,,,,,,,,,,,,,,,,,,,,,,,,,,,,,,,,,,,,,,,,,,,,,,,,,,,,,,,,,,,,,,,,,,,,,,,,,,,,,,,,,,,,,,,,,,,,,,,,,,,,,,,,,,,
,,,,,,6167f106d8d301bd6433c8b1,62c53b074fe15b429b53c7db,2022-07-06_09h34.53.758,Colour_Asymmetry_Pilot,2022.1.3,Win32,60.0024001,62c50e9c1127f2cd403a315f,0,147,147,44,1,threeone,,,,,,,,,,,,,,,,,,,,,,,,,,,,,,,,,,,,,,,,,,,,,,,,,,,,,,,,,,,,,,,,,,,,,,,,,,,,,,,,,,,,,,,,,,,,,,,,,,,,,,,,,,,,,,,,,,,,,,,,,,,,,,,,,,,,,,,,,,,,,,,,,,,,,,,,,,,,,
,,,,,,6167f106d8d301bd6433c8b1,62c53b074fe15b429b53c7db,2022-07-06_09h34.53.758,Colour_Asymmetry_Pilot,2022.1.3,Win32,60.0024001,62c50e9c1127f2cd403a315f,0,148,148,102,1,fourtwo,,,,,,,,,,,,,,,,,,,,,,,,,,,,,,,,,,,,,,,,,,,,,,,,,,,,,,,,,,,,,,,,,,,,,,,,,,,,,,,,,,,,,,,,,,,,,,,,,,,,,,,,,,,,,,,,,,,,,,,,,,,,,,,,,,,,,,,,,,,,,,,,,,,,,,,,,,,,,
,,,,,,6167f106d8d301bd6433c8b1,62c53b074fe15b429b53c7db,2022-07-06_09h34.53.758,Colour_Asymmetry_Pilot,2022.1.3,Win32,60.0024001,62c50e9c1127f2cd403a315f,0,149,149,131,1,twofour,,,,,,,,,,,,,,,,,,,,,,,,,,,,,,,,,,,,,,,,,,,,,,,,,,,,,,,,,,,,,,,,,,,,,,,,,,,,,,,,,,,,,,,,,,,,,,,,,,,,,,,,,,,,,,,,,,,,,,,,,,,,,,,,,,,,,,,,,,,,,,,,,,,,,,,,,,,,,
,,,,,,6167f106d8d301bd6433c8b1,62c53b074fe15b429b53c7db,2022-07-06_09h34.53.758,Colour_Asymmetry_Pilot,2022.1.3,Win32,60.0024001,62c50e9c1127f2cd403a315f,0,150,150,137,1,onethree,,,,,,,,,,,,,,,,,,,,,,,,,,,,,,,,,,,,,,,,,,,,,,,,,,,,,,,,,,,,,,,,,,,,,,,,,,,,,,,,,,,,,,,,,,,,,,,,,,,,,,,,,,,,,,,,,,,,,,,,,,,,,,,,,,,,,,,,,,,,,,,,,,,,,,,,,,,,,
,,,,,,6167f106d8d301bd6433c8b1,62c53b074fe15b429b53c7db,2022-07-06_09h34.53.758,Colour_Asymmetry_Pilot,2022.1.3,Win32,60.0024001,62c50e9c1127f2cd403a315f,0,151,151,111,1,fourthree,,,,,,,,,,,,,,,,,,,,,,,,,,,,,,,,,,,,,,,,,,,,,,,,,,,,,,,,,,,,,,,,,,,,,,,,,,,,,,,,,,,,,,,,,,,,,,,,,,,,,,,,,,,,,,,,,,,,,,,,,,,,,,,,,,,,,,,,,,,,,,,,,,,,,,,,,,,,,
,,,,,,6167f106d8d301bd6433c8b1,62c53b074fe15b429b53c7db,2022-07-06_09h34.53.758,Colour_Asymmetry_Pilot,2022.1.3,Win32,60.0024001,62c50e9c1127f2cd403a315f,0,152,152,48,1,onetwo,,,,,,,,,,,,,,,,,,,,,,,,,,,,,,,,,,,,,,,,,,,,,,,,,,,,,,,,,,,,,,,,,,,,,,,,,,,,,,,,,,,,,,,,,,,,,,,,,,,,,,,,,,,,,,,,,,,,,,,,,,,,,,,,,,,,,,,,,,,,,,,,,,,,,,,,,,,,,
,,,,,,6167f106d8d301bd6433c8b1,62c53b074fe15b429b53c7db,2022-07-06_09h34.53.758,Colour_Asymmetry_Pilot,2022.1.3,Win32,60.0024001,62c50e9c1127f2cd403a315f,0,153,153,91,1,twofour,,,,,,,,,,,,,,,,,,,,,,,,,,,,,,,,,,,,,,,,,,,,,,,,,,,,,,,,,,,,,,,,,,,,,,,,,,,,,,,,,,,,,,,,,,,,,,,,,,,,,,,,,,,,,,,,,,,,,,,,,,,,,,,,,,,,,,,,,,,,,,,,,,,,,,,,,,,,,
,,,,,,6167f106d8d301bd6433c8b1,62c53b074fe15b429b53c7db,2022-07-06_09h34.53.758,Colour_Asymmetry_Pilot,2022.1.3,Win32,60.0024001,62c50e9c1127f2cd403a315f,0,154,154,126,1,fourtwo,,,,,,,,,,,,,,,,,,,,,,,,,,,,,,,,,,,,,,,,,,,,,,,,,,,,,,,,,,,,,,,,,,,,,,,,,,,,,,,,,,,,,,,,,,,,,,,,,,,,,,,,,,,,,,,,,,,,,,,,,,,,,,,,,,,,,,,,,,,,,,,,,,,,,,,,,,,,,
,,,,,,6167f106d8d301bd6433c8b1,62c53b074fe15b429b53c7db,2022-07-06_09h34.53.758,Colour_Asymmetry_Pilot,2022.1.3,Win32,60.0024001,62c50e9c1127f2cd403a315f,0,155,155,94,1,fourtwo,,,,,,,,,,,,,,,,,,,,,,,,,,,,,,,,,,,,,,,,,,,,,,,,,,,,,,,,,,,,,,,,,,,,,,,,,,,,,,,,,,,,,,,,,,,,,,,,,,,,,,,,,,,,,,,,,,,,,,,,,,,,,,,,,,,,,,,,,,,,,,,,,,,,,,,,,,,,,
,,,,,,6167f106d8d301bd6433c8b1,62c53b074fe15b429b53c7db,2022-07-06_09h34.53.758,Colour_Asymmetry_Pilot,2022.1.3,Win32,60.0024001,62c50e9c1127f2cd403a315f,0,156,156,101,1,threefour,,,,,,,,,,,,,,,,,,,,,,,,,,,,,,,,,,,,,,,,,,,,,,,,,,,,,,,,,,,,,,,,,,,,,,,,,,,,,,,,,,,,,,,,,,,,,,,,,,,,,,,,,,,,,,,,,,,,,,,,,,,,,,,,,,,,,,,,,,,,,,,,,,,,,,,,,,,,,
,,,,,,6167f106d8d301bd6433c8b1,62c53b074fe15b429b53c7db,2022-07-06_09h34.53.758,Colour_Asymmetry_Pilot,2022.1.3,Win32,60.0024001,62c50e9c1127f2cd403a315f,0,157,157,116,1,threeone,,,,,,,,,,,,,,,,,,,,,,,,,,,,,,,,,,,,,,,,,,,,,,,,,,,,,,,,,,,,,,,,,,,,,,,,,,,,,,,,,,,,,,,,,,,,,,,,,,,,,,,,,,,,,,,,,,,,,,,,,,,,,,,,,,,,,,,,,,,,,,,,,,,,,,,,,,,,,
,,,,,,6167f106d8d301bd6433c8b1,62c53b074fe15b429b53c7db,2022-07-06_09h34.53.758,Colour_Asymmetry_Pilot,2022.1.3,Win32,60.0024001,62c50e9c1127f2cd403a315f,0,158,158,5,1,threefour,,,,,,,,,,,,,,,,,,,,,,,,,,,,,,,,,,,,,,,,,,,,,,,,,,,,,,,,,,,,,,,,,,,,,,,,,,,,,,,,,,,,,,,,,,,,,,,,,,,,,,,,,,,,,,,,,,,,,,,,,,,,,,,,,,,,,,,,,,,,,,,,,,,,,,,,,,,,,
,,,,,,6167f106d8d301bd6433c8b1,62c53b074fe15b429b53c7db,2022-07-06_09h34.53.758,Colour_Asymmetry_Pilot,2022.1.3,Win32,60.0024001,62c50e9c1127f2cd403a315f,0,159,159,132,1,threeone,,,,,,,,,,,,,,,,,,,,,,,,,,,,,,,,,,,,,,,,,,,,,,,,,,,,,,,,,,,,,,,,,,,,,,,,,,,,,,,,,,,,,,,,,,,,,,,,,,,,,,,,,,,,,,,,,,,,,,,,,,,,,,,,,,,,,,,,,,,,,,,,,,,,,,,,,,,,,
,,,,,,6167f106d8d301bd6433c8b1,62c53b074fe15b429b53c7db,2022-07-06_09h34.53.758,Colour_Asymmetry_Pilot,2022.1.3,Win32,60.0024001,62c50e9c1127f2cd403a315f,0,160,160,158,1,fourtwo,,,,,,,,,,,,,,,,,,,,,,,,,,,,,,,,,,,,,,,,,,,,,,,,,,,,,,,,,,,,,,,,,,,,,,,,,,,,,,,,,,,,,,,,,,,,,,,,,,,,,,,,,,,,,,,,,,,,,,,,,,,,,,,,,,,,,,,,,,,,,,,,,,,,,,,,,,,,,
,,,,,,6167f106d8d301bd6433c8b1,62c53b074fe15b429b53c7db,2022-07-06_09h34.53.758,Colour_Asymmetry_Pilot,2022.1.3,Win32,60.0024001,62c50e9c1127f2cd403a315f,0,161,161,74,1,twoone,,,,,,,,,,,,,,,,,,,,,,,,,,,,,,,,,,,,,,,,,,,,,,,,,,,,,,,,,,,,,,,,,,,,,,,,,,,,,,,,,,,,,,,,,,,,,,,,,,,,,,,,,,,,,,,,,,,,,,,,,,,,,,,,,,,,,,,,,,,,,,,,,,,,,,,,,,,,,
,,,,,,6167f106d8d301bd6433c8b1,62c53b074fe15b429b53c7db,2022-07-06_09h34.53.758,Colour_Asymmetry_Pilot,2022.1.3,Win32,60.0024001,62c50e9c1127f2cd403a315f,,,,,,,space,6.5139,space,14.1929,space,11.2723,space,13.831,space,5.2351,space,6.6565,"[-0.4982,-0.2942,-0.0354000000000001]",twoone,"[0.12939999999999996,-0.2864,0.3253999999999999]",2,13.5032,73,-28,1,0,0,response3disk_5,-11,0,1,0,0,rectangle_8,-11,0,1,0,0,2,-11,0,1,0,0,0,0,0,0,1,,,,,,,,,,,,,,,,,,,,,,,,,,,,,,,,,,,,,,,,,,,,,,,,,,,,,,,,,,,,,,,,,,,,,,,,,,,,,,,,,,,,,,,,,,,,,,,,,,,,,,,,,,,,,,,,
,,,,,,6167f106d8d301bd6433c8b1,62c53b074fe15b429b53c7db,2022-07-06_09h34.53.758,Colour_Asymmetry_Pilot,2022.1.3,Win32,60.0024001,62c50e9c1127f2cd403a315f,,,,,,,,,,,,,,,,,,,"[-0.45899999999999996,-0.3256,-0.9374]",fourthree,"[-0.26280000000000003,-0.2158,-0.3256]",-2,4.1285,-76,-43,1,0,0,response5disk_5,3,-1,1,0,0,rectangle_8,3,-1,1,0,0,2,3,-1,1,0,0,1,0,1,0,1,,,,,,,,,,,,,,,,,,,,,,,,,,,,,,,,,,,,,,,,,,,,,,,,,,,,,,,,,,,,,,,,,,,,,,,,,,,,,,,,,,,,,,,,,,,,,,,,,,,,,,,,,,,,,,,,
,,,,,,6167f106d8d301bd6433c8b1,62c53b074fe15b429b53c7db,2022-07-06_09h34.53.758,Colour_Asymmetry_Pilot,2022.1.3,Win32,60.0024001,62c50e9c1127f2cd403a315f,,,,,,,,,,,,,,,,,,,"[0.9686000000000001,0.3802000000000001,0.19999999999999996]",onetwo,"[0.2862,0.7802,0.3568]",-2,6.1003,-83,-30,1,0,0,response5disk_5,3,-9,1,0,0,rectangle_8,90,-48,1,0,0,2,10,-11,1,0,0,2,0,2,0,1,response3disk_7,5,rectangle_4,,,,,,,,,,,,,,,,,,,,,,,,,,,,,,,,,,,,,,,,,,,,,,,,,,,,,,,,,,,,,,,,,,,,,,,,,,,,,,,,,,,,,,,,,,,,,,,,,,,,,,,,,,,,,
,,,,,,6167f106d8d301bd6433c8b1,62c53b074fe15b429b53c7db,2022-07-06_09h34.53.758,Colour_Asymmetry_Pilot,2022.1.3,Win32,60.0024001,62c50e9c1127f2cd403a315f,,,,,,,,,,,,,,,,,,,"[0.7646000000000002,0.07440000000000002,0.2704]",fourthree,"[0.5449999999999999,-0.31000000000000005,-0.0354000000000001]",1,2.8102,42,-98,1,0,0,response3disk_5,-7,-1,1,0,0,rectangle_8,-7,-1,1,0,0,2,-7,-1,1,0,0,3,0,3,0,1,,,,,,,,,,,,,,,,,,,,,,,,,,,,,,,,,,,,,,,,,,,,,,,,,,,,,,,,,,,,,,,,,,,,,,,,,,,,,,,,,,,,,,,,,,,,,,,,,,,,,,,,,,,,,,,,
,,,,,,6167f106d8d301bd6433c8b1,62c53b074fe15b429b53c7db,2022-07-06_09h34.53.758,Colour_Asymmetry_Pilot,2022.1.3,Win32,60.0024001,62c50e9c1127f2cd403a315f,,,,,,,,,,,,,,,,,,,"[0.37240000000000006,0.4980000000000002,-0.2864]",onetwo,"[-0.09019999999999995,0.44300000000000006,0.5371999999999999]",-3,2.317,-80,31,1,0,0,response7disk_5,-2,7,1,0,0,rectangle_8,-2,7,1,0,0,2,-2,7,1,0,0,4,0,4,0,1,,,,,,,,,,,,,,,,,,,,,,,,,,,,,,,,,,,,,,,,,,,,,,,,,,,,,,,,,,,,,,,,,,,,,,,,,,,,,,,,,,,,,,,,,,,,,,,,,,,,,,,,,,,,,,,,
,,,,,,6167f106d8d301bd6433c8b1,62c53b074fe15b429b53c7db,2022-07-06_09h34.53.758,Colour_Asymmetry_Pilot,2022.1.3,Win32,60.0024001,62c50e9c1127f2cd403a315f,,,,,,,,,,,,,,,,,,,"[-0.2942,-0.7648,-0.7492000000000001]",onethree,"[-0.8982,-0.37259999999999993,0.2784]",-4,1.5347,-29,99,1,0,0,response7disk_5,-1,9,1,0,0,rectangle_8,94,-51,1,0,0,2,-8,2,1,0,0,5,0,5,0,1,response3disk_7,5,rectangle_4,,,,,,,,,,,,,,,,,,,,,,,,,,,,,,,,,,,,,,,,,,,,,,,,,,,,,,,,,,,,,,,,,,,,,,,,,,,,,,,,,,,,,,,,,,,,,,,,,,,,,,,,,,,,,
,,,,,,6167f106d8d301bd6433c8b1,62c53b074fe15b429b53c7db,2022-07-06_09h34.53.758,Colour_Asymmetry_Pilot,2022.1.3,Win32,60.0024001,62c50e9c1127f2cd403a315f,,,,,,,,,,,,,,,,,,,"[0.37240000000000006,0.4980000000000002,-0.2864]",twoone,"[0.6547999999999998,-0.043199999999999905,-0.011800000000000033]",-2,5.4141,-72,-42,1,0,0,response5disk_5,4,4,1,0,0,rectangle_8,4,4,1,0,0,2,4,4,1,0,0,6,0,6,0,1,,,,,,,,,,,,,,,,,,,,,,,,,,,,,,,,,,,,,,,,,,,,,,,,,,,,,,,,,,,,,,,,,,,,,,,,,,,,,,,,,,,,,,,,,,,,,,,,,,,,,,,,,,,,,,,,
,,,,,,6167f106d8d301bd6433c8b1,62c53b074fe15b429b53c7db,2022-07-06_09h34.53.758,Colour_Asymmetry_Pilot,2022.1.3,Win32,60.0024001,62c50e9c1127f2cd403a315f,,,,,,,,,,,,,,,,,,,,threefour,,-3,1.0395,,,,,,,,,,,,,,,,,,,,,,,,,,,,,,,,space,4.5961,"[-0.10599999999999998,-0.15300000000000002,0.15280000000000005]","[-0.011800000000000033,-0.906,-0.45100000000000007]",-89,36,1,0,0,response7disk,2,-4,1,0,0,rectangle,2,-4,1,0,0,,3,0.0013,0,2,-4,1,0,0,0,0,0,48,1,48,first,,,,,,,,,,,,,,,,,,,,,,,,,,,,,,,,,,,,,,,,,,,,,,,,,,,,,,,,,,,,,,,,,,,,,,,,
,,,,,,6167f106d8d301bd6433c8b1,62c53b074fe15b429b53c7db,2022-07-06_09h34.53.758,Colour_Asymmetry_Pilot,2022.1.3,Win32,60.0024001,62c50e9c1127f2cd403a315f,,,,,,,,,,,,,,,,,,,,threefour,,-4,0.9329,,,,,,,,,,,,,,,,,,,,,,,,,,,,,,,,,,"[0.9763999999999999,-0.1137999999999999,-0.6314]","[-0.9688,-0.7412000000000001,-0.4902000000000001]",-31,75,1,0,0,response7disk,3,3,1,0,0,rectangle,3,3,1,0,0,,3,0.0001,0,3,3,1,0,0,0,1,1,119,1,38,second,,,,,,,,,,,,,,,,,,,,,,,,,,,,,,,,,,,,,,,,,,,,,,,,,,,,,,,,,,,,,,,,,,,,,,,,
,,,,,,6167f106d8d301bd6433c8b1,62c53b074fe15b429b53c7db,2022-07-06_09h34.53.758,Colour_Asymmetry_Pilot,2022.1.3,Win32,60.0024001,62c50e9c1127f2cd403a315f,,,,,,,,,,,,,,,,,,,,threeone,,-3,2.0745,,,,,,,,,,,,,,,,,,,,,,,,,,,,,,,,,,"[-0.4746,-0.0354000000000001,0.5449999999999999]","[-0.7412000000000001,-0.08239999999999992,-0.6864]",-88,26,1,0,0,response7disk,-10,1,1,0,0,rectangle,-10,1,1,0,0,,2,0.0008,0,-10,1,1,0,0,0,2,2,22,1,22,first,,,,,,,,,,,,,,,,,,,,,,,,,,,,,,,,,,,,,,,,,,,,,,,,,,,,,,,,,,,,,,,,,,,,,,,,
,,,,,,6167f106d8d301bd6433c8b1,62c53b074fe15b429b53c7db,2022-07-06_09h34.53.758,Colour_Asymmetry_Pilot,2022.1.3,Win32,60.0024001,62c50e9c1127f2cd403a315f,,,,,,,,,,,,,,,,,,,,fourthree,,-4,1.3554,,,,,,,,,,,,,,,,,,,,,,,,,,,,,,,,,,"[0.30180000000000007,-0.7884,-0.9844]","[-0.9688,-0.7412000000000001,-0.4902000000000001]",-42,77,1,0,0,response7disk,0,-8,1,0,0,rectangle,0,-8,1,0,0,,2,0.0001,0,0,-8,1,0,0,0,3,3,26,1,26,first,,,,,,,,,,,,,,,,,,,,,,,,,,,,,,,,,,,,,,,,,,,,,,,,,,,,,,,,,,,,,,,,,,,,,,,,
,,,,,,6167f106d8d301bd6433c8b1,62c53b074fe15b429b53c7db,2022-07-06_09h34.53.758,Colour_Asymmetry_Pilot,2022.1.3,Win32,60.0024001,62c50e9c1127f2cd403a315f,,,,,,,,,,,,,,,,,,,,twofour,,-1,3.5296,,,,,,,,,,,,,,,,,,,,,,,,,,,,,,,,,,"[0.7018,0.7176,0.6155999999999999]","[0.9763999999999999,0.30979999999999985,-0.6786]",-35,-76,1,0,0,response5disk,-9,0,1,0,0,rectangle,-9,0,1,0,0,,3,0.0008,0,-9,0,1,0,0,0,4,4,15,1,15,first,,,,,,,,,,,,,,,,,,,,,,,,,,,,,,,,,,,,,,,,,,,,,,,,,,,,,,,,,,,,,,,,,,,,,,,,
,,,,,,6167f106d8d301bd6433c8b1,62c53b074fe15b429b53c7db,2022-07-06_09h34.53.758,Colour_Asymmetry_Pilot,2022.1.3,Win32,60.0024001,62c50e9c1127f2cd403a315f,,,,,,,,,,,,,,,,,,,,twofour,,-4,0.9875,,,,,,,,,,,,,,,,,,,,,,,,,,,,,,,,,,"[-0.2942,-0.24719999999999998,-0.357]","[0.9213999999999998,0.6391999999999998,-0.9922]",-23,70,1,0,0,response7disk,0,-8,1,0,0,rectangle,0,-8,1,0,0,,1,0.0007,0,0,-8,1,0,0,0,5,5,130,1,49,second,,,,,,,,,,,,,,,,,,,,,,,,,,,,,,,,,,,,,,,,,,,,,,,,,,,,,,,,,,,,,,,,,,,,,,,,
,,,,,,6167f106d8d301bd6433c8b1,62c53b074fe15b429b53c7db,2022-07-06_09h34.53.758,Colour_Asymmetry_Pilot,2022.1.3,Win32,60.0024001,62c50e9c1127f2cd403a315f,,,,,,,,,,,,,,,,,,,,twoone,,-2,3.6801,,,,,,,,,,,,,,,,,,,,,,,,,,,,,,,,,,"[0.11359999999999992,0.6312,0.5213999999999999]","[-0.0040000000000000036,0.02739999999999987,-0.08239999999999992]",-54,-37,1,0,0,response5disk,-2,-2,1,0,0,rectangle,-2,-2,1,0,0,,3,0.0008,0,-2,-2,1,0,0,0,6,6,84,1,3,second,,,,,,,,,,,,,,,,,,,,,,,,,,,,,,,,,,,,,,,,,,,,,,,,,,,,,,,,,,,,,,,,,,,,,,,,
,,,,,,6167f106d8d301bd6433c8b1,62c53b074fe15b429b53c7db,2022-07-06_09h34.53.758,Colour_Asymmetry_Pilot,2022.1.3,Win32,60.0024001,62c50e9c1127f2cd403a315f,,,,,,,,,,,,,,,,,,,,fourthree,,-1,4.2154,,,,,,,,,,,,,,,,,,,,,,,,,,,,,,,,,,"[0.4196,0.4665999999999999,0.3568]","[0.9763999999999999,0.30979999999999985,-0.6786]",-25,-110,1,0,0,response5disk,4,-4,1,0,0,rectangle,4,-4,1,0,0,,1,0.0008,0,4,-4,1,0,0,0,7,7,154,1,73,second,,,,,,,,,,,,,,,,,,,,,,,,,,,,,,,,,,,,,,,,,,,,,,,,,,,,,,,,,,,,,,,,,,,,,,,,
,,,,,,6167f106d8d301bd6433c8b1,62c53b074fe15b429b53c7db,2022-07-06_09h34.53.758,Colour_Asymmetry_Pilot,2022.1.3,Win32,60.0024001,62c50e9c1127f2cd403a315f,,,,,,,,,,,,,,,,,,,,twoone,,-2,1.1547,,,,,,,,,,,,,,,,,,,,,,,,,,,,,,,,,,"[-0.38039999999999996,-0.4276,-0.1452]","[0.23920000000000008,0.2704,0.16060000000000008]",-72,-33,1,0,0,response5disk,-2,3,1,0,0,rectangle,-2,3,1,0,0,,2,0.0017,0,-2,3,1,0,0,0,8,8,71,1,71,first,,,,,,,,,,,,,,,,,,,,,,,,,,,,,,,,,,,,,,,,,,,,,,,,,,,,,,,,,,,,,,,,,,,,,,,,
,,,,,,6167f106d8d301bd6433c8b1,62c53b074fe15b429b53c7db,2022-07-06_09h34.53.758,Colour_Asymmetry_Pilot,2022.1.3,Win32,60.0024001,62c50e9c1127f2cd403a315f,,,,,,,,,,,,,,,,,,,,onetwo,,3,1.2049,,,,,,,,,,,,,,,,,,,,,,,,,,,,,,,,,,"[0.3802000000000001,0.19199999999999995,-0.6394]","[0.3802000000000001,0.19199999999999995,-0.6394]",72,28,1,0,0,response1disk,-3,-3,1,0,0,rectangle,-3,-3,1,0,0,,2,0.0002,0,-3,-3,1,0,0,0,9,9,101,1,20,second,,,,,,,,,,,,,,,,,,,,,,,,,,,,,,,,,,,,,,,,,,,,,,,,,,,,,,,,,,,,,,,,,,,,,,,,
,,,,,,6167f106d8d301bd6433c8b1,62c53b074fe15b429b53c7db,2022-07-06_09h34.53.758,Colour_Asymmetry_Pilot,2022.1.3,Win32,60.0024001,62c50e9c1127f2cd403a315f,,,,,,,,,,,,,,,,,,,,threefour,,1,2.2252,,,,,,,,,,,,,,,,,,,,,,,,,,,,,,,,,,"[0.23920000000000008,0.2704,0.16060000000000008]","[-0.0040000000000000036,0.02739999999999987,-0.08239999999999992]",32,-87,1,0,0,response3disk,0,-4,1,0,0,rectangle,0,-4,1,0,0,,3,0.0008,0,0,-4,1,0,0,0,10,10,82,1,1,second,,,,,,,,,,,,,,,,,,,,,,,,,,,,,,,,,,,,,,,,,,,,,,,,,,,,,,,,,,,,,,,,,,,,,,,,
,,,,,,6167f106d8d301bd6433c8b1,62c53b074fe15b429b53c7db,2022-07-06_09h34.53.758,Colour_Asymmetry_Pilot,2022.1.3,Win32,60.0024001,62c50e9c1127f2cd403a315f,,,,,,,,,,,,,,,,,,,,twoone,,-4,0.8199,,,,,,,,,,,,,,,,,,,,,,,,,,,,,,,,,,"[-0.9844,-0.9688,-0.9922]","[0.9763999999999999,0.30979999999999985,-0.6786]",-46,77,1,0,0,response7disk,-13,-3,1,0,0,rectangle,-13,-3,1,0,0,,1,0.0007,0,-13,-3,1,0,0,0,11,11,7,1,7,first,,,,,,,,,,,,,,,,,,,,,,,,,,,,,,,,,,,,,,,,,,,,,,,,,,,,,,,,,,,,,,,,,,,,,,,,
,,,,,,6167f106d8d301bd6433c8b1,62c53b074fe15b429b53c7db,2022-07-06_09h34.53.758,Colour_Asymmetry_Pilot,2022.1.3,Win32,60.0024001,62c50e9c1127f2cd403a315f,,,,,,,,,,,,,,,,,,,,onetwo,,-2,1.3386,,,,,,,,,,,,,,,,,,,,,,,,,,,,,,,,,,"[0.7018,0.7176,0.6155999999999999]","[-0.09019999999999995,0.44300000000000006,0.5371999999999999]",-76,-40,1,0,0,response5disk,3,-2,1,0,0,rectangle,3,-2,1,0,0,,2,0.0015,0,3,-2,1,0,0,0,12,12,98,1,17,second,,,,,,,,,,,,,,,,,,,,,,,,,,,,,,,,,,,,,,,,,,,,,,,,,,,,,,,,,,,,,,,,,,,,,,,,
,,,,,,6167f106d8d301bd6433c8b1,62c53b074fe15b429b53c7db,2022-07-06_09h34.53.758,Colour_Asymmetry_Pilot,2022.1.3,Win32,60.0024001,62c50e9c1127f2cd403a315f,,,,,,,,,,,,,,,,,,,,twofour,,-2,2.5092,,,,,,,,,,,,,,,,,,,,,,,,,,,,,,,,,,"[0.9372,0.20779999999999998,0.2704]","[0.9763999999999999,0.30979999999999985,-0.6786]",-70,-33,1,0,0,response5disk,-7,-3,1,0,0,rectangle,-7,-3,1,0,0,,2,0.0004,0,-7,-3,1,0,0,0,13,13,30,1,30,first,,,,,,,,,,,,,,,,,,,,,,,,,,,,,,,,,,,,,,,,,,,,,,,,,,,,,,,,,,,,,,,,,,,,,,,,
,,,,,,6167f106d8d301bd6433c8b1,62c53b074fe15b429b53c7db,2022-07-06_09h34.53.758,Colour_Asymmetry_Pilot,2022.1.3,Win32,60.0024001,62c50e9c1127f2cd403a315f,,,,,,,,,,,,,,,,,,,,threefour,,-4,0.7532,,,,,,,,,,,,,,,,,,,,,,,,,,,,,,,,,,"[-0.48240000000000005,0.3175999999999999,0.2156]","[-0.6706000000000001,-0.6157999999999999,-0.6786]",-38,66,1,0,0,response7disk,-11,-4,1,0,0,rectangle,-11,-4,1,0,0,,2,0.0001,0,-11,-4,1,0,0,0,14,14,138,1,57,second,,,,,,,,,,,,,,,,,,,,,,,,,,,,,,,,,,,,,,,,,,,,,,,,,,,,,,,,,,,,,,,,,,,,,,,,
,,,,,,6167f106d8d301bd6433c8b1,62c53b074fe15b429b53c7db,2022-07-06_09h34.53.758,Colour_Asymmetry_Pilot,2022.1.3,Win32,60.0024001,62c50e9c1127f2cd403a315f,,,,,,,,,,,,,,,,,,,,fourtwo,,-3,1.021,,,,,,,,,,,,,,,,,,,,,,,,,,,,,,,,,,"[0.05879999999999996,0.2784,0.5841999999999998]","[0.9763999999999999,-0.1137999999999999,-0.6314]",-83,28,1,0,0,response7disk,-1,-2,1,0,0,rectangle,91,47,1,0,0,3,3,2.3479,1,4,-2,1,0,0,0,15,15,104,1,23,second,response1disk_3,rectangle,,,,,,,,,,,,,,,,,,,,,,,,,,,,,,,,,,,,,,,,,,,,,,,,,,,,,,,,,,,,,,,,,,,,,,
,,,,,,6167f106d8d301bd6433c8b1,62c53b074fe15b429b53c7db,2022-07-06_09h34.53.758,Colour_Asymmetry_Pilot,2022.1.3,Win32,60.0024001,62c50e9c1127f2cd403a315f,,,,,,,,,,,,,,,,,,,,onetwo,,-2,3.197,,,,,,,,,,,,,,,,,,,,,,,,,,,,,,,,,,"[-0.7412000000000001,-0.08239999999999992,-0.6864]","[-0.09019999999999995,0.44300000000000006,0.5371999999999999]",-90,-39,1,0,0,response5disk,4,9,1,0,0,rectangle,4,9,1,0,0,3,3,0.0001,0,4,9,1,0,0,0,16,16,122,1,41,second,,,,,,,,,,,,,,,,,,,,,,,,,,,,,,,,,,,,,,,,,,,,,,,,,,,,,,,,,,,,,,,,,,,,,,,,
,,,,,,6167f106d8d301bd6433c8b1,62c53b074fe15b429b53c7db,2022-07-06_09h34.53.758,Colour_Asymmetry_Pilot,2022.1.3,Win32,60.0024001,62c50e9c1127f2cd403a315f,,,,,,,,,,,,,,,,,,,,onethree,,-3,2.5331,,,,,,,,,,,,,,,,,,,,,,,,,,,,,,,,,,"[-0.9688,-0.4902000000000001,-0.12159999999999993]","[0.04299999999999993,0.16060000000000008,-0.6628000000000001]",-102,39,1,0,0,response7disk,-7,-3,1,0,0,rectangle,-7,-3,1,0,0,3,3,0.0002,0,-7,-3,1,0,0,0,17,17,53,1,53,first,,,,,,,,,,,,,,,,,,,,,,,,,,,,,,,,,,,,,,,,,,,,,,,,,,,,,,,,,,,,,,,,,,,,,,,,
