trials.thisRepN,trials.thisTrialN,trials.thisN,trials.thisIndex,trials.ran,Colourcodes,participant,session,date,expName,psychopyVersion,OS,frameRate,study_id,trials_4.thisRepN,trials_4.thisTrialN,trials_4.thisN,trials_4.thisIndex,trials_4.ran,StimulusPos,key_resp.keys,key_resp.rt,key_resp_2.keys,key_resp_2.rt,key_resp_15.keys,key_resp_15.rt,key_resp_17.keys,key_resp_17.rt,key_resp_9.keys,key_resp_9.rt,key_resp_10.keys,key_resp_10.rt,Circle1_col,Ecc,Circle2_col,similarity,response_time,mouse_5.x,mouse_5.y,mouse_5.leftButton,mouse_5.midButton,mouse_5.rightButton,mouse_5.clicked_name,mouse_10.x,mouse_10.y,mouse_10.leftButton,mouse_10.midButton,mouse_10.rightButton,mouse_10.clicked_name,mouse_7.x,mouse_7.y,mouse_7.leftButton,mouse_7.midButton,mouse_7.rightButton,catchnumberprac,mouse_6.x,mouse_6.y,mouse_6.leftButton,mouse_6.midButton,mouse_6.rightButton,duringprac.thisRepN,duringprac.thisTrialN,duringprac.thisN,duringprac.thisIndex,duringprac.ran,mouse_7.clicked_name,catchprac,mouse_6.clicked_name,key_resp_22.keys,key_resp_22.rt,Circle1_colour,Circle2_colour,mouse.x,mouse.y,mouse.leftButton,mouse.midButton,mouse.rightButton,mouse.clicked_name,mouse_2.x,mouse_2.y,mouse_2.leftButton,mouse_2.midButton,mouse_2.rightButton,mouse_2.clicked_name,mouse_3.x,mouse_3.y,mouse_3.leftButton,mouse_3.midButton,mouse_3.rightButton,catchresponse,catchnumber,response_time_catch,Catch,mouse_11.x,mouse_11.y,mouse_11.leftButton,mouse_11.midButton,mouse_11.rightButton,trials_2.thisRepN,trials_2.thisTrialN,trials_2.thisN,trials_2.thisIndex,trials_2.ran,Colourpair,Temporder,mouse_3.clicked_name,mouse_11.clicked_name,trials_3.thisRepN,trials_3.thisTrialN,trials_3.thisN,trials_3.thisIndex,trials_3.ran,key_resp_instr_Ishi.keys,key_resp_instr_Ishi.rt,Ishi_trial_keyresp.keys,Ishi_textbox.text,Ishi_mouse.x,Ishi_mouse.y,Ishi_mouse.leftButton,Ishi_mouse.midButton,Ishi_mouse.rightButton,Ishi_mouse.clicked_name,Ishi_loop.thisRepN,Ishi_loop.thisTrialN,Ishi_loop.thisN,Ishi_loop.thisIndex,Ishi_loop.ran,imageaddress,textbox.text,mouse_4.x,mouse_4.y,mouse_4.leftButton,mouse_4.midButton,mouse_4.rightButton,mouse_4.clicked_name,textbox_2.text,mouse_8.x,mouse_8.y,mouse_8.leftButton,mouse_8.midButton,mouse_8.rightButton,mouse_8.clicked_name,textbox_3.text,mouse_9.x,mouse_9.y,mouse_9.leftButton,mouse_9.midButton,mouse_9.rightButton,mouse_9.clicked_name,textbox_4.text,mouse_12.x,mouse_12.y,mouse_12.leftButton,mouse_12.midButton,mouse_12.rightButton,mouse_12.clicked_name,textbox_5.text,mouse_13.x,mouse_13.y,mouse_13.leftButton,mouse_13.midButton,mouse_13.rightButton,mouse_13.clicked_name,textbox_6.text,mouse_14.x,mouse_14.y,mouse_14.leftButton,mouse_14.midButton,mouse_14.rightButton,mouse_14.clicked_name,textbox_7.text,mouse_15.x,mouse_15.y,mouse_15.leftButton,mouse_15.midButton,mouse_15.rightButton,mouse_15.clicked_name
0,0,0,79,1,,613aef3d9041bcd28952af82,62c5392d0f5bf6bc18c814c0,2022-07-06_24h27.08.313,Colour_Asymmetry_Pilot,2022.1.3,Win32,59.97001499,62c50e9c1127f2cd403a315f,,,,,,,,,,,,,,,,,,,,,,,,,,,,,,,,,,,,,,,,,,,,,,,,,,,,,,,,,,,,,,,,,,,,,,,,,,,,,,,,,,,,,,,,,,,,,,,,,,,,,,,,,,,,,,,,,,,,,,,,,,,,,,,,,,,,,,,,,,,,,,,,,,,,,,,,,,,,,,,,,,,
0,1,1,12,1,,613aef3d9041bcd28952af82,62c5392d0f5bf6bc18c814c0,2022-07-06_24h27.08.313,Colour_Asymmetry_Pilot,2022.1.3,Win32,59.97001499,62c50e9c1127f2cd403a315f,,,,,,,,,,,,,,,,,,,,,,,,,,,,,,,,,,,,,,,,,,,,,,,,,,,,,,,,,,,,,,,,,,,,,,,,,,,,,,,,,,,,,,,,,,,,,,,,,,,,,,,,,,,,,,,,,,,,,,,,,,,,,,,,,,,,,,,,,,,,,,,,,,,,,,,,,,,,,,,,,,,
0,2,2,9,1,,613aef3d9041bcd28952af82,62c5392d0f5bf6bc18c814c0,2022-07-06_24h27.08.313,Colour_Asymmetry_Pilot,2022.1.3,Win32,59.97001499,62c50e9c1127f2cd403a315f,,,,,,,,,,,,,,,,,,,,,,,,,,,,,,,,,,,,,,,,,,,,,,,,,,,,,,,,,,,,,,,,,,,,,,,,,,,,,,,,,,,,,,,,,,,,,,,,,,,,,,,,,,,,,,,,,,,,,,,,,,,,,,,,,,,,,,,,,,,,,,,,,,,,,,,,,,,,,,,,,,,
0,3,3,8,1,,613aef3d9041bcd28952af82,62c5392d0f5bf6bc18c814c0,2022-07-06_24h27.08.313,Colour_Asymmetry_Pilot,2022.1.3,Win32,59.97001499,62c50e9c1127f2cd403a315f,,,,,,,,,,,,,,,,,,,,,,,,,,,,,,,,,,,,,,,,,,,,,,,,,,,,,,,,,,,,,,,,,,,,,,,,,,,,,,,,,,,,,,,,,,,,,,,,,,,,,,,,,,,,,,,,,,,,,,,,,,,,,,,,,,,,,,,,,,,,,,,,,,,,,,,,,,,,,,,,,,,
0,4,4,44,1,,613aef3d9041bcd28952af82,62c5392d0f5bf6bc18c814c0,2022-07-06_24h27.08.313,Colour_Asymmetry_Pilot,2022.1.3,Win32,59.97001499,62c50e9c1127f2cd403a315f,,,,,,,,,,,,,,,,,,,,,,,,,,,,,,,,,,,,,,,,,,,,,,,,,,,,,,,,,,,,,,,,,,,,,,,,,,,,,,,,,,,,,,,,,,,,,,,,,,,,,,,,,,,,,,,,,,,,,,,,,,,,,,,,,,,,,,,,,,,,,,,,,,,,,,,,,,,,,,,,,,,
0,5,5,64,1,,613aef3d9041bcd28952af82,62c5392d0f5bf6bc18c814c0,2022-07-06_24h27.08.313,Colour_Asymmetry_Pilot,2022.1.3,Win32,59.97001499,62c50e9c1127f2cd403a315f,,,,,,,,,,,,,,,,,,,,,,,,,,,,,,,,,,,,,,,,,,,,,,,,,,,,,,,,,,,,,,,,,,,,,,,,,,,,,,,,,,,,,,,,,,,,,,,,,,,,,,,,,,,,,,,,,,,,,,,,,,,,,,,,,,,,,,,,,,,,,,,,,,,,,,,,,,,,,,,,,,,
0,6,6,56,1,,613aef3d9041bcd28952af82,62c5392d0f5bf6bc18c814c0,2022-07-06_24h27.08.313,Colour_Asymmetry_Pilot,2022.1.3,Win32,59.97001499,62c50e9c1127f2cd403a315f,,,,,,,,,,,,,,,,,,,,,,,,,,,,,,,,,,,,,,,,,,,,,,,,,,,,,,,,,,,,,,,,,,,,,,,,,,,,,,,,,,,,,,,,,,,,,,,,,,,,,,,,,,,,,,,,,,,,,,,,,,,,,,,,,,,,,,,,,,,,,,,,,,,,,,,,,,,,,,,,,,,
0,7,7,60,1,,613aef3d9041bcd28952af82,62c5392d0f5bf6bc18c814c0,2022-07-06_24h27.08.313,Colour_Asymmetry_Pilot,2022.1.3,Win32,59.97001499,62c50e9c1127f2cd403a315f,,,,,,,,,,,,,,,,,,,,,,,,,,,,,,,,,,,,,,,,,,,,,,,,,,,,,,,,,,,,,,,,,,,,,,,,,,,,,,,,,,,,,,,,,,,,,,,,,,,,,,,,,,,,,,,,,,,,,,,,,,,,,,,,,,,,,,,,,,,,,,,,,,,,,,,,,,,,,,,,,,,
0,8,8,91,1,,613aef3d9041bcd28952af82,62c5392d0f5bf6bc18c814c0,2022-07-06_24h27.08.313,Colour_Asymmetry_Pilot,2022.1.3,Win32,59.97001499,62c50e9c1127f2cd403a315f,,,,,,,,,,,,,,,,,,,,,,,,,,,,,,,,,,,,,,,,,,,,,,,,,,,,,,,,,,,,,,,,,,,,,,,,,,,,,,,,,,,,,,,,,,,,,,,,,,,,,,,,,,,,,,,,,,,,,,,,,,,,,,,,,,,,,,,,,,,,,,,,,,,,,,,,,,,,,,,,,,,
0,9,9,14,1,,613aef3d9041bcd28952af82,62c5392d0f5bf6bc18c814c0,2022-07-06_24h27.08.313,Colour_Asymmetry_Pilot,2022.1.3,Win32,59.97001499,62c50e9c1127f2cd403a315f,,,,,,,,,,,,,,,,,,,,,,,,,,,,,,,,,,,,,,,,,,,,,,,,,,,,,,,,,,,,,,,,,,,,,,,,,,,,,,,,,,,,,,,,,,,,,,,,,,,,,,,,,,,,,,,,,,,,,,,,,,,,,,,,,,,,,,,,,,,,,,,,,,,,,,,,,,,,,,,,,,,
0,10,10,58,1,,613aef3d9041bcd28952af82,62c5392d0f5bf6bc18c814c0,2022-07-06_24h27.08.313,Colour_Asymmetry_Pilot,2022.1.3,Win32,59.97001499,62c50e9c1127f2cd403a315f,,,,,,,,,,,,,,,,,,,,,,,,,,,,,,,,,,,,,,,,,,,,,,,,,,,,,,,,,,,,,,,,,,,,,,,,,,,,,,,,,,,,,,,,,,,,,,,,,,,,,,,,,,,,,,,,,,,,,,,,,,,,,,,,,,,,,,,,,,,,,,,,,,,,,,,,,,,,,,,,,,,
0,11,11,43,1,,613aef3d9041bcd28952af82,62c5392d0f5bf6bc18c814c0,2022-07-06_24h27.08.313,Colour_Asymmetry_Pilot,2022.1.3,Win32,59.97001499,62c50e9c1127f2cd403a315f,,,,,,,,,,,,,,,,,,,,,,,,,,,,,,,,,,,,,,,,,,,,,,,,,,,,,,,,,,,,,,,,,,,,,,,,,,,,,,,,,,,,,,,,,,,,,,,,,,,,,,,,,,,,,,,,,,,,,,,,,,,,,,,,,,,,,,,,,,,,,,,,,,,,,,,,,,,,,,,,,,,
0,12,12,26,1,,613aef3d9041bcd28952af82,62c5392d0f5bf6bc18c814c0,2022-07-06_24h27.08.313,Colour_Asymmetry_Pilot,2022.1.3,Win32,59.97001499,62c50e9c1127f2cd403a315f,,,,,,,,,,,,,,,,,,,,,,,,,,,,,,,,,,,,,,,,,,,,,,,,,,,,,,,,,,,,,,,,,,,,,,,,,,,,,,,,,,,,,,,,,,,,,,,,,,,,,,,,,,,,,,,,,,,,,,,,,,,,,,,,,,,,,,,,,,,,,,,,,,,,,,,,,,,,,,,,,,,
0,13,13,86,1,,613aef3d9041bcd28952af82,62c5392d0f5bf6bc18c814c0,2022-07-06_24h27.08.313,Colour_Asymmetry_Pilot,2022.1.3,Win32,59.97001499,62c50e9c1127f2cd403a315f,,,,,,,,,,,,,,,,,,,,,,,,,,,,,,,,,,,,,,,,,,,,,,,,,,,,,,,,,,,,,,,,,,,,,,,,,,,,,,,,,,,,,,,,,,,,,,,,,,,,,,,,,,,,,,,,,,,,,,,,,,,,,,,,,,,,,,,,,,,,,,,,,,,,,,,,,,,,,,,,,,,
0,14,14,46,1,,613aef3d9041bcd28952af82,62c5392d0f5bf6bc18c814c0,2022-07-06_24h27.08.313,Colour_Asymmetry_Pilot,2022.1.3,Win32,59.97001499,62c50e9c1127f2cd403a315f,,,,,,,,,,,,,,,,,,,,,,,,,,,,,,,,,,,,,,,,,,,,,,,,,,,,,,,,,,,,,,,,,,,,,,,,,,,,,,,,,,,,,,,,,,,,,,,,,,,,,,,,,,,,,,,,,,,,,,,,,,,,,,,,,,,,,,,,,,,,,,,,,,,,,,,,,,,,,,,,,,,
0,15,15,32,1,,613aef3d9041bcd28952af82,62c5392d0f5bf6bc18c814c0,2022-07-06_24h27.08.313,Colour_Asymmetry_Pilot,2022.1.3,Win32,59.97001499,62c50e9c1127f2cd403a315f,,,,,,,,,,,,,,,,,,,,,,,,,,,,,,,,,,,,,,,,,,,,,,,,,,,,,,,,,,,,,,,,,,,,,,,,,,,,,,,,,,,,,,,,,,,,,,,,,,,,,,,,,,,,,,,,,,,,,,,,,,,,,,,,,,,,,,,,,,,,,,,,,,,,,,,,,,,,,,,,,,,
0,16,16,73,1,,613aef3d9041bcd28952af82,62c5392d0f5bf6bc18c814c0,2022-07-06_24h27.08.313,Colour_Asymmetry_Pilot,2022.1.3,Win32,59.97001499,62c50e9c1127f2cd403a315f,,,,,,,,,,,,,,,,,,,,,,,,,,,,,,,,,,,,,,,,,,,,,,,,,,,,,,,,,,,,,,,,,,,,,,,,,,,,,,,,,,,,,,,,,,,,,,,,,,,,,,,,,,,,,,,,,,,,,,,,,,,,,,,,,,,,,,,,,,,,,,,,,,,,,,,,,,,,,,,,,,,
0,17,17,68,1,,613aef3d9041bcd28952af82,62c5392d0f5bf6bc18c814c0,2022-07-06_24h27.08.313,Colour_Asymmetry_Pilot,2022.1.3,Win32,59.97001499,62c50e9c1127f2cd403a315f,,,,,,,,,,,,,,,,,,,,,,,,,,,,,,,,,,,,,,,,,,,,,,,,,,,,,,,,,,,,,,,,,,,,,,,,,,,,,,,,,,,,,,,,,,,,,,,,,,,,,,,,,,,,,,,,,,,,,,,,,,,,,,,,,,,,,,,,,,,,,,,,,,,,,,,,,,,,,,,,,,,
0,18,18,31,1,,613aef3d9041bcd28952af82,62c5392d0f5bf6bc18c814c0,2022-07-06_24h27.08.313,Colour_Asymmetry_Pilot,2022.1.3,Win32,59.97001499,62c50e9c1127f2cd403a315f,,,,,,,,,,,,,,,,,,,,,,,,,,,,,,,,,,,,,,,,,,,,,,,,,,,,,,,,,,,,,,,,,,,,,,,,,,,,,,,,,,,,,,,,,,,,,,,,,,,,,,,,,,,,,,,,,,,,,,,,,,,,,,,,,,,,,,,,,,,,,,,,,,,,,,,,,,,,,,,,,,,
0,19,19,49,1,,613aef3d9041bcd28952af82,62c5392d0f5bf6bc18c814c0,2022-07-06_24h27.08.313,Colour_Asymmetry_Pilot,2022.1.3,Win32,59.97001499,62c50e9c1127f2cd403a315f,,,,,,,,,,,,,,,,,,,,,,,,,,,,,,,,,,,,,,,,,,,,,,,,,,,,,,,,,,,,,,,,,,,,,,,,,,,,,,,,,,,,,,,,,,,,,,,,,,,,,,,,,,,,,,,,,,,,,,,,,,,,,,,,,,,,,,,,,,,,,,,,,,,,,,,,,,,,,,,,,,,
0,20,20,27,1,,613aef3d9041bcd28952af82,62c5392d0f5bf6bc18c814c0,2022-07-06_24h27.08.313,Colour_Asymmetry_Pilot,2022.1.3,Win32,59.97001499,62c50e9c1127f2cd403a315f,,,,,,,,,,,,,,,,,,,,,,,,,,,,,,,,,,,,,,,,,,,,,,,,,,,,,,,,,,,,,,,,,,,,,,,,,,,,,,,,,,,,,,,,,,,,,,,,,,,,,,,,,,,,,,,,,,,,,,,,,,,,,,,,,,,,,,,,,,,,,,,,,,,,,,,,,,,,,,,,,,,
0,21,21,13,1,,613aef3d9041bcd28952af82,62c5392d0f5bf6bc18c814c0,2022-07-06_24h27.08.313,Colour_Asymmetry_Pilot,2022.1.3,Win32,59.97001499,62c50e9c1127f2cd403a315f,,,,,,,,,,,,,,,,,,,,,,,,,,,,,,,,,,,,,,,,,,,,,,,,,,,,,,,,,,,,,,,,,,,,,,,,,,,,,,,,,,,,,,,,,,,,,,,,,,,,,,,,,,,,,,,,,,,,,,,,,,,,,,,,,,,,,,,,,,,,,,,,,,,,,,,,,,,,,,,,,,,
0,22,22,30,1,,613aef3d9041bcd28952af82,62c5392d0f5bf6bc18c814c0,2022-07-06_24h27.08.313,Colour_Asymmetry_Pilot,2022.1.3,Win32,59.97001499,62c50e9c1127f2cd403a315f,,,,,,,,,,,,,,,,,,,,,,,,,,,,,,,,,,,,,,,,,,,,,,,,,,,,,,,,,,,,,,,,,,,,,,,,,,,,,,,,,,,,,,,,,,,,,,,,,,,,,,,,,,,,,,,,,,,,,,,,,,,,,,,,,,,,,,,,,,,,,,,,,,,,,,,,,,,,,,,,,,,
0,23,23,17,1,,613aef3d9041bcd28952af82,62c5392d0f5bf6bc18c814c0,2022-07-06_24h27.08.313,Colour_Asymmetry_Pilot,2022.1.3,Win32,59.97001499,62c50e9c1127f2cd403a315f,,,,,,,,,,,,,,,,,,,,,,,,,,,,,,,,,,,,,,,,,,,,,,,,,,,,,,,,,,,,,,,,,,,,,,,,,,,,,,,,,,,,,,,,,,,,,,,,,,,,,,,,,,,,,,,,,,,,,,,,,,,,,,,,,,,,,,,,,,,,,,,,,,,,,,,,,,,,,,,,,,,
0,24,24,55,1,,613aef3d9041bcd28952af82,62c5392d0f5bf6bc18c814c0,2022-07-06_24h27.08.313,Colour_Asymmetry_Pilot,2022.1.3,Win32,59.97001499,62c50e9c1127f2cd403a315f,,,,,,,,,,,,,,,,,,,,,,,,,,,,,,,,,,,,,,,,,,,,,,,,,,,,,,,,,,,,,,,,,,,,,,,,,,,,,,,,,,,,,,,,,,,,,,,,,,,,,,,,,,,,,,,,,,,,,,,,,,,,,,,,,,,,,,,,,,,,,,,,,,,,,,,,,,,,,,,,,,,
0,25,25,78,1,,613aef3d9041bcd28952af82,62c5392d0f5bf6bc18c814c0,2022-07-06_24h27.08.313,Colour_Asymmetry_Pilot,2022.1.3,Win32,59.97001499,62c50e9c1127f2cd403a315f,,,,,,,,,,,,,,,,,,,,,,,,,,,,,,,,,,,,,,,,,,,,,,,,,,,,,,,,,,,,,,,,,,,,,,,,,,,,,,,,,,,,,,,,,,,,,,,,,,,,,,,,,,,,,,,,,,,,,,,,,,,,,,,,,,,,,,,,,,,,,,,,,,,,,,,,,,,,,,,,,,,
0,26,26,61,1,,613aef3d9041bcd28952af82,62c5392d0f5bf6bc18c814c0,2022-07-06_24h27.08.313,Colour_Asymmetry_Pilot,2022.1.3,Win32,59.97001499,62c50e9c1127f2cd403a315f,,,,,,,,,,,,,,,,,,,,,,,,,,,,,,,,,,,,,,,,,,,,,,,,,,,,,,,,,,,,,,,,,,,,,,,,,,,,,,,,,,,,,,,,,,,,,,,,,,,,,,,,,,,,,,,,,,,,,,,,,,,,,,,,,,,,,,,,,,,,,,,,,,,,,,,,,,,,,,,,,,,
0,27,27,5,1,,613aef3d9041bcd28952af82,62c5392d0f5bf6bc18c814c0,2022-07-06_24h27.08.313,Colour_Asymmetry_Pilot,2022.1.3,Win32,59.97001499,62c50e9c1127f2cd403a315f,,,,,,,,,,,,,,,,,,,,,,,,,,,,,,,,,,,,,,,,,,,,,,,,,,,,,,,,,,,,,,,,,,,,,,,,,,,,,,,,,,,,,,,,,,,,,,,,,,,,,,,,,,,,,,,,,,,,,,,,,,,,,,,,,,,,,,,,,,,,,,,,,,,,,,,,,,,,,,,,,,,
0,28,28,81,1,,613aef3d9041bcd28952af82,62c5392d0f5bf6bc18c814c0,2022-07-06_24h27.08.313,Colour_Asymmetry_Pilot,2022.1.3,Win32,59.97001499,62c50e9c1127f2cd403a315f,,,,,,,,,,,,,,,,,,,,,,,,,,,,,,,,,,,,,,,,,,,,,,,,,,,,,,,,,,,,,,,,,,,,,,,,,,,,,,,,,,,,,,,,,,,,,,,,,,,,,,,,,,,,,,,,,,,,,,,,,,,,,,,,,,,,,,,,,,,,,,,,,,,,,,,,,,,,,,,,,,,
0,29,29,80,1,,613aef3d9041bcd28952af82,62c5392d0f5bf6bc18c814c0,2022-07-06_24h27.08.313,Colour_Asymmetry_Pilot,2022.1.3,Win32,59.97001499,62c50e9c1127f2cd403a315f,,,,,,,,,,,,,,,,,,,,,,,,,,,,,,,,,,,,,,,,,,,,,,,,,,,,,,,,,,,,,,,,,,,,,,,,,,,,,,,,,,,,,,,,,,,,,,,,,,,,,,,,,,,,,,,,,,,,,,,,,,,,,,,,,,,,,,,,,,,,,,,,,,,,,,,,,,,,,,,,,,,
0,30,30,33,1,,613aef3d9041bcd28952af82,62c5392d0f5bf6bc18c814c0,2022-07-06_24h27.08.313,Colour_Asymmetry_Pilot,2022.1.3,Win32,59.97001499,62c50e9c1127f2cd403a315f,,,,,,,,,,,,,,,,,,,,,,,,,,,,,,,,,,,,,,,,,,,,,,,,,,,,,,,,,,,,,,,,,,,,,,,,,,,,,,,,,,,,,,,,,,,,,,,,,,,,,,,,,,,,,,,,,,,,,,,,,,,,,,,,,,,,,,,,,,,,,,,,,,,,,,,,,,,,,,,,,,,
0,31,31,25,1,,613aef3d9041bcd28952af82,62c5392d0f5bf6bc18c814c0,2022-07-06_24h27.08.313,Colour_Asymmetry_Pilot,2022.1.3,Win32,59.97001499,62c50e9c1127f2cd403a315f,,,,,,,,,,,,,,,,,,,,,,,,,,,,,,,,,,,,,,,,,,,,,,,,,,,,,,,,,,,,,,,,,,,,,,,,,,,,,,,,,,,,,,,,,,,,,,,,,,,,,,,,,,,,,,,,,,,,,,,,,,,,,,,,,,,,,,,,,,,,,,,,,,,,,,,,,,,,,,,,,,,
0,32,32,83,1,,613aef3d9041bcd28952af82,62c5392d0f5bf6bc18c814c0,2022-07-06_24h27.08.313,Colour_Asymmetry_Pilot,2022.1.3,Win32,59.97001499,62c50e9c1127f2cd403a315f,,,,,,,,,,,,,,,,,,,,,,,,,,,,,,,,,,,,,,,,,,,,,,,,,,,,,,,,,,,,,,,,,,,,,,,,,,,,,,,,,,,,,,,,,,,,,,,,,,,,,,,,,,,,,,,,,,,,,,,,,,,,,,,,,,,,,,,,,,,,,,,,,,,,,,,,,,,,,,,,,,,
0,33,33,71,1,,613aef3d9041bcd28952af82,62c5392d0f5bf6bc18c814c0,2022-07-06_24h27.08.313,Colour_Asymmetry_Pilot,2022.1.3,Win32,59.97001499,62c50e9c1127f2cd403a315f,,,,,,,,,,,,,,,,,,,,,,,,,,,,,,,,,,,,,,,,,,,,,,,,,,,,,,,,,,,,,,,,,,,,,,,,,,,,,,,,,,,,,,,,,,,,,,,,,,,,,,,,,,,,,,,,,,,,,,,,,,,,,,,,,,,,,,,,,,,,,,,,,,,,,,,,,,,,,,,,,,,
0,34,34,52,1,,613aef3d9041bcd28952af82,62c5392d0f5bf6bc18c814c0,2022-07-06_24h27.08.313,Colour_Asymmetry_Pilot,2022.1.3,Win32,59.97001499,62c50e9c1127f2cd403a315f,,,,,,,,,,,,,,,,,,,,,,,,,,,,,,,,,,,,,,,,,,,,,,,,,,,,,,,,,,,,,,,,,,,,,,,,,,,,,,,,,,,,,,,,,,,,,,,,,,,,,,,,,,,,,,,,,,,,,,,,,,,,,,,,,,,,,,,,,,,,,,,,,,,,,,,,,,,,,,,,,,,
0,35,35,53,1,,613aef3d9041bcd28952af82,62c5392d0f5bf6bc18c814c0,2022-07-06_24h27.08.313,Colour_Asymmetry_Pilot,2022.1.3,Win32,59.97001499,62c50e9c1127f2cd403a315f,,,,,,,,,,,,,,,,,,,,,,,,,,,,,,,,,,,,,,,,,,,,,,,,,,,,,,,,,,,,,,,,,,,,,,,,,,,,,,,,,,,,,,,,,,,,,,,,,,,,,,,,,,,,,,,,,,,,,,,,,,,,,,,,,,,,,,,,,,,,,,,,,,,,,,,,,,,,,,,,,,,
0,36,36,75,1,,613aef3d9041bcd28952af82,62c5392d0f5bf6bc18c814c0,2022-07-06_24h27.08.313,Colour_Asymmetry_Pilot,2022.1.3,Win32,59.97001499,62c50e9c1127f2cd403a315f,,,,,,,,,,,,,,,,,,,,,,,,,,,,,,,,,,,,,,,,,,,,,,,,,,,,,,,,,,,,,,,,,,,,,,,,,,,,,,,,,,,,,,,,,,,,,,,,,,,,,,,,,,,,,,,,,,,,,,,,,,,,,,,,,,,,,,,,,,,,,,,,,,,,,,,,,,,,,,,,,,,
0,37,37,41,1,,613aef3d9041bcd28952af82,62c5392d0f5bf6bc18c814c0,2022-07-06_24h27.08.313,Colour_Asymmetry_Pilot,2022.1.3,Win32,59.97001499,62c50e9c1127f2cd403a315f,,,,,,,,,,,,,,,,,,,,,,,,,,,,,,,,,,,,,,,,,,,,,,,,,,,,,,,,,,,,,,,,,,,,,,,,,,,,,,,,,,,,,,,,,,,,,,,,,,,,,,,,,,,,,,,,,,,,,,,,,,,,,,,,,,,,,,,,,,,,,,,,,,,,,,,,,,,,,,,,,,,
0,38,38,18,1,,613aef3d9041bcd28952af82,62c5392d0f5bf6bc18c814c0,2022-07-06_24h27.08.313,Colour_Asymmetry_Pilot,2022.1.3,Win32,59.97001499,62c50e9c1127f2cd403a315f,,,,,,,,,,,,,,,,,,,,,,,,,,,,,,,,,,,,,,,,,,,,,,,,,,,,,,,,,,,,,,,,,,,,,,,,,,,,,,,,,,,,,,,,,,,,,,,,,,,,,,,,,,,,,,,,,,,,,,,,,,,,,,,,,,,,,,,,,,,,,,,,,,,,,,,,,,,,,,,,,,,
0,39,39,15,1,,613aef3d9041bcd28952af82,62c5392d0f5bf6bc18c814c0,2022-07-06_24h27.08.313,Colour_Asymmetry_Pilot,2022.1.3,Win32,59.97001499,62c50e9c1127f2cd403a315f,,,,,,,,,,,,,,,,,,,,,,,,,,,,,,,,,,,,,,,,,,,,,,,,,,,,,,,,,,,,,,,,,,,,,,,,,,,,,,,,,,,,,,,,,,,,,,,,,,,,,,,,,,,,,,,,,,,,,,,,,,,,,,,,,,,,,,,,,,,,,,,,,,,,,,,,,,,,,,,,,,,
0,40,40,90,1,,613aef3d9041bcd28952af82,62c5392d0f5bf6bc18c814c0,2022-07-06_24h27.08.313,Colour_Asymmetry_Pilot,2022.1.3,Win32,59.97001499,62c50e9c1127f2cd403a315f,,,,,,,,,,,,,,,,,,,,,,,,,,,,,,,,,,,,,,,,,,,,,,,,,,,,,,,,,,,,,,,,,,,,,,,,,,,,,,,,,,,,,,,,,,,,,,,,,,,,,,,,,,,,,,,,,,,,,,,,,,,,,,,,,,,,,,,,,,,,,,,,,,,,,,,,,,,,,,,,,,,
0,41,41,28,1,,613aef3d9041bcd28952af82,62c5392d0f5bf6bc18c814c0,2022-07-06_24h27.08.313,Colour_Asymmetry_Pilot,2022.1.3,Win32,59.97001499,62c50e9c1127f2cd403a315f,,,,,,,,,,,,,,,,,,,,,,,,,,,,,,,,,,,,,,,,,,,,,,,,,,,,,,,,,,,,,,,,,,,,,,,,,,,,,,,,,,,,,,,,,,,,,,,,,,,,,,,,,,,,,,,,,,,,,,,,,,,,,,,,,,,,,,,,,,,,,,,,,,,,,,,,,,,,,,,,,,,
0,42,42,65,1,,613aef3d9041bcd28952af82,62c5392d0f5bf6bc18c814c0,2022-07-06_24h27.08.313,Colour_Asymmetry_Pilot,2022.1.3,Win32,59.97001499,62c50e9c1127f2cd403a315f,,,,,,,,,,,,,,,,,,,,,,,,,,,,,,,,,,,,,,,,,,,,,,,,,,,,,,,,,,,,,,,,,,,,,,,,,,,,,,,,,,,,,,,,,,,,,,,,,,,,,,,,,,,,,,,,,,,,,,,,,,,,,,,,,,,,,,,,,,,,,,,,,,,,,,,,,,,,,,,,,,,
0,43,43,21,1,,613aef3d9041bcd28952af82,62c5392d0f5bf6bc18c814c0,2022-07-06_24h27.08.313,Colour_Asymmetry_Pilot,2022.1.3,Win32,59.97001499,62c50e9c1127f2cd403a315f,,,,,,,,,,,,,,,,,,,,,,,,,,,,,,,,,,,,,,,,,,,,,,,,,,,,,,,,,,,,,,,,,,,,,,,,,,,,,,,,,,,,,,,,,,,,,,,,,,,,,,,,,,,,,,,,,,,,,,,,,,,,,,,,,,,,,,,,,,,,,,,,,,,,,,,,,,,,,,,,,,,
0,44,44,10,1,,613aef3d9041bcd28952af82,62c5392d0f5bf6bc18c814c0,2022-07-06_24h27.08.313,Colour_Asymmetry_Pilot,2022.1.3,Win32,59.97001499,62c50e9c1127f2cd403a315f,,,,,,,,,,,,,,,,,,,,,,,,,,,,,,,,,,,,,,,,,,,,,,,,,,,,,,,,,,,,,,,,,,,,,,,,,,,,,,,,,,,,,,,,,,,,,,,,,,,,,,,,,,,,,,,,,,,,,,,,,,,,,,,,,,,,,,,,,,,,,,,,,,,,,,,,,,,,,,,,,,,
0,45,45,3,1,,613aef3d9041bcd28952af82,62c5392d0f5bf6bc18c814c0,2022-07-06_24h27.08.313,Colour_Asymmetry_Pilot,2022.1.3,Win32,59.97001499,62c50e9c1127f2cd403a315f,,,,,,,,,,,,,,,,,,,,,,,,,,,,,,,,,,,,,,,,,,,,,,,,,,,,,,,,,,,,,,,,,,,,,,,,,,,,,,,,,,,,,,,,,,,,,,,,,,,,,,,,,,,,,,,,,,,,,,,,,,,,,,,,,,,,,,,,,,,,,,,,,,,,,,,,,,,,,,,,,,,
0,46,46,50,1,,613aef3d9041bcd28952af82,62c5392d0f5bf6bc18c814c0,2022-07-06_24h27.08.313,Colour_Asymmetry_Pilot,2022.1.3,Win32,59.97001499,62c50e9c1127f2cd403a315f,,,,,,,,,,,,,,,,,,,,,,,,,,,,,,,,,,,,,,,,,,,,,,,,,,,,,,,,,,,,,,,,,,,,,,,,,,,,,,,,,,,,,,,,,,,,,,,,,,,,,,,,,,,,,,,,,,,,,,,,,,,,,,,,,,,,,,,,,,,,,,,,,,,,,,,,,,,,,,,,,,,
0,47,47,51,1,,613aef3d9041bcd28952af82,62c5392d0f5bf6bc18c814c0,2022-07-06_24h27.08.313,Colour_Asymmetry_Pilot,2022.1.3,Win32,59.97001499,62c50e9c1127f2cd403a315f,,,,,,,,,,,,,,,,,,,,,,,,,,,,,,,,,,,,,,,,,,,,,,,,,,,,,,,,,,,,,,,,,,,,,,,,,,,,,,,,,,,,,,,,,,,,,,,,,,,,,,,,,,,,,,,,,,,,,,,,,,,,,,,,,,,,,,,,,,,,,,,,,,,,,,,,,,,,,,,,,,,
0,48,48,40,1,,613aef3d9041bcd28952af82,62c5392d0f5bf6bc18c814c0,2022-07-06_24h27.08.313,Colour_Asymmetry_Pilot,2022.1.3,Win32,59.97001499,62c50e9c1127f2cd403a315f,,,,,,,,,,,,,,,,,,,,,,,,,,,,,,,,,,,,,,,,,,,,,,,,,,,,,,,,,,,,,,,,,,,,,,,,,,,,,,,,,,,,,,,,,,,,,,,,,,,,,,,,,,,,,,,,,,,,,,,,,,,,,,,,,,,,,,,,,,,,,,,,,,,,,,,,,,,,,,,,,,,
0,49,49,24,1,,613aef3d9041bcd28952af82,62c5392d0f5bf6bc18c814c0,2022-07-06_24h27.08.313,Colour_Asymmetry_Pilot,2022.1.3,Win32,59.97001499,62c50e9c1127f2cd403a315f,,,,,,,,,,,,,,,,,,,,,,,,,,,,,,,,,,,,,,,,,,,,,,,,,,,,,,,,,,,,,,,,,,,,,,,,,,,,,,,,,,,,,,,,,,,,,,,,,,,,,,,,,,,,,,,,,,,,,,,,,,,,,,,,,,,,,,,,,,,,,,,,,,,,,,,,,,,,,,,,,,,
0,50,50,67,1,,613aef3d9041bcd28952af82,62c5392d0f5bf6bc18c814c0,2022-07-06_24h27.08.313,Colour_Asymmetry_Pilot,2022.1.3,Win32,59.97001499,62c50e9c1127f2cd403a315f,,,,,,,,,,,,,,,,,,,,,,,,,,,,,,,,,,,,,,,,,,,,,,,,,,,,,,,,,,,,,,,,,,,,,,,,,,,,,,,,,,,,,,,,,,,,,,,,,,,,,,,,,,,,,,,,,,,,,,,,,,,,,,,,,,,,,,,,,,,,,,,,,,,,,,,,,,,,,,,,,,,
0,51,51,84,1,,613aef3d9041bcd28952af82,62c5392d0f5bf6bc18c814c0,2022-07-06_24h27.08.313,Colour_Asymmetry_Pilot,2022.1.3,Win32,59.97001499,62c50e9c1127f2cd403a315f,,,,,,,,,,,,,,,,,,,,,,,,,,,,,,,,,,,,,,,,,,,,,,,,,,,,,,,,,,,,,,,,,,,,,,,,,,,,,,,,,,,,,,,,,,,,,,,,,,,,,,,,,,,,,,,,,,,,,,,,,,,,,,,,,,,,,,,,,,,,,,,,,,,,,,,,,,,,,,,,,,,
0,52,52,16,1,,613aef3d9041bcd28952af82,62c5392d0f5bf6bc18c814c0,2022-07-06_24h27.08.313,Colour_Asymmetry_Pilot,2022.1.3,Win32,59.97001499,62c50e9c1127f2cd403a315f,,,,,,,,,,,,,,,,,,,,,,,,,,,,,,,,,,,,,,,,,,,,,,,,,,,,,,,,,,,,,,,,,,,,,,,,,,,,,,,,,,,,,,,,,,,,,,,,,,,,,,,,,,,,,,,,,,,,,,,,,,,,,,,,,,,,,,,,,,,,,,,,,,,,,,,,,,,,,,,,,,,
0,53,53,20,1,,613aef3d9041bcd28952af82,62c5392d0f5bf6bc18c814c0,2022-07-06_24h27.08.313,Colour_Asymmetry_Pilot,2022.1.3,Win32,59.97001499,62c50e9c1127f2cd403a315f,,,,,,,,,,,,,,,,,,,,,,,,,,,,,,,,,,,,,,,,,,,,,,,,,,,,,,,,,,,,,,,,,,,,,,,,,,,,,,,,,,,,,,,,,,,,,,,,,,,,,,,,,,,,,,,,,,,,,,,,,,,,,,,,,,,,,,,,,,,,,,,,,,,,,,,,,,,,,,,,,,,
0,54,54,22,1,,613aef3d9041bcd28952af82,62c5392d0f5bf6bc18c814c0,2022-07-06_24h27.08.313,Colour_Asymmetry_Pilot,2022.1.3,Win32,59.97001499,62c50e9c1127f2cd403a315f,,,,,,,,,,,,,,,,,,,,,,,,,,,,,,,,,,,,,,,,,,,,,,,,,,,,,,,,,,,,,,,,,,,,,,,,,,,,,,,,,,,,,,,,,,,,,,,,,,,,,,,,,,,,,,,,,,,,,,,,,,,,,,,,,,,,,,,,,,,,,,,,,,,,,,,,,,,,,,,,,,,
0,55,55,4,1,,613aef3d9041bcd28952af82,62c5392d0f5bf6bc18c814c0,2022-07-06_24h27.08.313,Colour_Asymmetry_Pilot,2022.1.3,Win32,59.97001499,62c50e9c1127f2cd403a315f,,,,,,,,,,,,,,,,,,,,,,,,,,,,,,,,,,,,,,,,,,,,,,,,,,,,,,,,,,,,,,,,,,,,,,,,,,,,,,,,,,,,,,,,,,,,,,,,,,,,,,,,,,,,,,,,,,,,,,,,,,,,,,,,,,,,,,,,,,,,,,,,,,,,,,,,,,,,,,,,,,,
0,56,56,47,1,,613aef3d9041bcd28952af82,62c5392d0f5bf6bc18c814c0,2022-07-06_24h27.08.313,Colour_Asymmetry_Pilot,2022.1.3,Win32,59.97001499,62c50e9c1127f2cd403a315f,,,,,,,,,,,,,,,,,,,,,,,,,,,,,,,,,,,,,,,,,,,,,,,,,,,,,,,,,,,,,,,,,,,,,,,,,,,,,,,,,,,,,,,,,,,,,,,,,,,,,,,,,,,,,,,,,,,,,,,,,,,,,,,,,,,,,,,,,,,,,,,,,,,,,,,,,,,,,,,,,,,
0,57,57,35,1,,613aef3d9041bcd28952af82,62c5392d0f5bf6bc18c814c0,2022-07-06_24h27.08.313,Colour_Asymmetry_Pilot,2022.1.3,Win32,59.97001499,62c50e9c1127f2cd403a315f,,,,,,,,,,,,,,,,,,,,,,,,,,,,,,,,,,,,,,,,,,,,,,,,,,,,,,,,,,,,,,,,,,,,,,,,,,,,,,,,,,,,,,,,,,,,,,,,,,,,,,,,,,,,,,,,,,,,,,,,,,,,,,,,,,,,,,,,,,,,,,,,,,,,,,,,,,,,,,,,,,,
0,58,58,37,1,,613aef3d9041bcd28952af82,62c5392d0f5bf6bc18c814c0,2022-07-06_24h27.08.313,Colour_Asymmetry_Pilot,2022.1.3,Win32,59.97001499,62c50e9c1127f2cd403a315f,,,,,,,,,,,,,,,,,,,,,,,,,,,,,,,,,,,,,,,,,,,,,,,,,,,,,,,,,,,,,,,,,,,,,,,,,,,,,,,,,,,,,,,,,,,,,,,,,,,,,,,,,,,,,,,,,,,,,,,,,,,,,,,,,,,,,,,,,,,,,,,,,,,,,,,,,,,,,,,,,,,
0,59,59,62,1,,613aef3d9041bcd28952af82,62c5392d0f5bf6bc18c814c0,2022-07-06_24h27.08.313,Colour_Asymmetry_Pilot,2022.1.3,Win32,59.97001499,62c50e9c1127f2cd403a315f,,,,,,,,,,,,,,,,,,,,,,,,,,,,,,,,,,,,,,,,,,,,,,,,,,,,,,,,,,,,,,,,,,,,,,,,,,,,,,,,,,,,,,,,,,,,,,,,,,,,,,,,,,,,,,,,,,,,,,,,,,,,,,,,,,,,,,,,,,,,,,,,,,,,,,,,,,,,,,,,,,,
0,60,60,92,1,,613aef3d9041bcd28952af82,62c5392d0f5bf6bc18c814c0,2022-07-06_24h27.08.313,Colour_Asymmetry_Pilot,2022.1.3,Win32,59.97001499,62c50e9c1127f2cd403a315f,,,,,,,,,,,,,,,,,,,,,,,,,,,,,,,,,,,,,,,,,,,,,,,,,,,,,,,,,,,,,,,,,,,,,,,,,,,,,,,,,,,,,,,,,,,,,,,,,,,,,,,,,,,,,,,,,,,,,,,,,,,,,,,,,,,,,,,,,,,,,,,,,,,,,,,,,,,,,,,,,,,
0,61,61,88,1,,613aef3d9041bcd28952af82,62c5392d0f5bf6bc18c814c0,2022-07-06_24h27.08.313,Colour_Asymmetry_Pilot,2022.1.3,Win32,59.97001499,62c50e9c1127f2cd403a315f,,,,,,,,,,,,,,,,,,,,,,,,,,,,,,,,,,,,,,,,,,,,,,,,,,,,,,,,,,,,,,,,,,,,,,,,,,,,,,,,,,,,,,,,,,,,,,,,,,,,,,,,,,,,,,,,,,,,,,,,,,,,,,,,,,,,,,,,,,,,,,,,,,,,,,,,,,,,,,,,,,,
0,62,62,39,1,,613aef3d9041bcd28952af82,62c5392d0f5bf6bc18c814c0,2022-07-06_24h27.08.313,Colour_Asymmetry_Pilot,2022.1.3,Win32,59.97001499,62c50e9c1127f2cd403a315f,,,,,,,,,,,,,,,,,,,,,,,,,,,,,,,,,,,,,,,,,,,,,,,,,,,,,,,,,,,,,,,,,,,,,,,,,,,,,,,,,,,,,,,,,,,,,,,,,,,,,,,,,,,,,,,,,,,,,,,,,,,,,,,,,,,,,,,,,,,,,,,,,,,,,,,,,,,,,,,,,,,
0,63,63,72,1,,613aef3d9041bcd28952af82,62c5392d0f5bf6bc18c814c0,2022-07-06_24h27.08.313,Colour_Asymmetry_Pilot,2022.1.3,Win32,59.97001499,62c50e9c1127f2cd403a315f,,,,,,,,,,,,,,,,,,,,,,,,,,,,,,,,,,,,,,,,,,,,,,,,,,,,,,,,,,,,,,,,,,,,,,,,,,,,,,,,,,,,,,,,,,,,,,,,,,,,,,,,,,,,,,,,,,,,,,,,,,,,,,,,,,,,,,,,,,,,,,,,,,,,,,,,,,,,,,,,,,,
0,64,64,57,1,,613aef3d9041bcd28952af82,62c5392d0f5bf6bc18c814c0,2022-07-06_24h27.08.313,Colour_Asymmetry_Pilot,2022.1.3,Win32,59.97001499,62c50e9c1127f2cd403a315f,,,,,,,,,,,,,,,,,,,,,,,,,,,,,,,,,,,,,,,,,,,,,,,,,,,,,,,,,,,,,,,,,,,,,,,,,,,,,,,,,,,,,,,,,,,,,,,,,,,,,,,,,,,,,,,,,,,,,,,,,,,,,,,,,,,,,,,,,,,,,,,,,,,,,,,,,,,,,,,,,,,
0,65,65,38,1,,613aef3d9041bcd28952af82,62c5392d0f5bf6bc18c814c0,2022-07-06_24h27.08.313,Colour_Asymmetry_Pilot,2022.1.3,Win32,59.97001499,62c50e9c1127f2cd403a315f,,,,,,,,,,,,,,,,,,,,,,,,,,,,,,,,,,,,,,,,,,,,,,,,,,,,,,,,,,,,,,,,,,,,,,,,,,,,,,,,,,,,,,,,,,,,,,,,,,,,,,,,,,,,,,,,,,,,,,,,,,,,,,,,,,,,,,,,,,,,,,,,,,,,,,,,,,,,,,,,,,,
0,66,66,59,1,,613aef3d9041bcd28952af82,62c5392d0f5bf6bc18c814c0,2022-07-06_24h27.08.313,Colour_Asymmetry_Pilot,2022.1.3,Win32,59.97001499,62c50e9c1127f2cd403a315f,,,,,,,,,,,,,,,,,,,,,,,,,,,,,,,,,,,,,,,,,,,,,,,,,,,,,,,,,,,,,,,,,,,,,,,,,,,,,,,,,,,,,,,,,,,,,,,,,,,,,,,,,,,,,,,,,,,,,,,,,,,,,,,,,,,,,,,,,,,,,,,,,,,,,,,,,,,,,,,,,,,
0,67,67,74,1,,613aef3d9041bcd28952af82,62c5392d0f5bf6bc18c814c0,2022-07-06_24h27.08.313,Colour_Asymmetry_Pilot,2022.1.3,Win32,59.97001499,62c50e9c1127f2cd403a315f,,,,,,,,,,,,,,,,,,,,,,,,,,,,,,,,,,,,,,,,,,,,,,,,,,,,,,,,,,,,,,,,,,,,,,,,,,,,,,,,,,,,,,,,,,,,,,,,,,,,,,,,,,,,,,,,,,,,,,,,,,,,,,,,,,,,,,,,,,,,,,,,,,,,,,,,,,,,,,,,,,,
0,68,68,2,1,,613aef3d9041bcd28952af82,62c5392d0f5bf6bc18c814c0,2022-07-06_24h27.08.313,Colour_Asymmetry_Pilot,2022.1.3,Win32,59.97001499,62c50e9c1127f2cd403a315f,,,,,,,,,,,,,,,,,,,,,,,,,,,,,,,,,,,,,,,,,,,,,,,,,,,,,,,,,,,,,,,,,,,,,,,,,,,,,,,,,,,,,,,,,,,,,,,,,,,,,,,,,,,,,,,,,,,,,,,,,,,,,,,,,,,,,,,,,,,,,,,,,,,,,,,,,,,,,,,,,,,
0,69,69,7,1,,613aef3d9041bcd28952af82,62c5392d0f5bf6bc18c814c0,2022-07-06_24h27.08.313,Colour_Asymmetry_Pilot,2022.1.3,Win32,59.97001499,62c50e9c1127f2cd403a315f,,,,,,,,,,,,,,,,,,,,,,,,,,,,,,,,,,,,,,,,,,,,,,,,,,,,,,,,,,,,,,,,,,,,,,,,,,,,,,,,,,,,,,,,,,,,,,,,,,,,,,,,,,,,,,,,,,,,,,,,,,,,,,,,,,,,,,,,,,,,,,,,,,,,,,,,,,,,,,,,,,,
0,70,70,45,1,,613aef3d9041bcd28952af82,62c5392d0f5bf6bc18c814c0,2022-07-06_24h27.08.313,Colour_Asymmetry_Pilot,2022.1.3,Win32,59.97001499,62c50e9c1127f2cd403a315f,,,,,,,,,,,,,,,,,,,,,,,,,,,,,,,,,,,,,,,,,,,,,,,,,,,,,,,,,,,,,,,,,,,,,,,,,,,,,,,,,,,,,,,,,,,,,,,,,,,,,,,,,,,,,,,,,,,,,,,,,,,,,,,,,,,,,,,,,,,,,,,,,,,,,,,,,,,,,,,,,,,
0,71,71,1,1,,613aef3d9041bcd28952af82,62c5392d0f5bf6bc18c814c0,2022-07-06_24h27.08.313,Colour_Asymmetry_Pilot,2022.1.3,Win32,59.97001499,62c50e9c1127f2cd403a315f,,,,,,,,,,,,,,,,,,,,,,,,,,,,,,,,,,,,,,,,,,,,,,,,,,,,,,,,,,,,,,,,,,,,,,,,,,,,,,,,,,,,,,,,,,,,,,,,,,,,,,,,,,,,,,,,,,,,,,,,,,,,,,,,,,,,,,,,,,,,,,,,,,,,,,,,,,,,,,,,,,,
0,72,72,54,1,,613aef3d9041bcd28952af82,62c5392d0f5bf6bc18c814c0,2022-07-06_24h27.08.313,Colour_Asymmetry_Pilot,2022.1.3,Win32,59.97001499,62c50e9c1127f2cd403a315f,,,,,,,,,,,,,,,,,,,,,,,,,,,,,,,,,,,,,,,,,,,,,,,,,,,,,,,,,,,,,,,,,,,,,,,,,,,,,,,,,,,,,,,,,,,,,,,,,,,,,,,,,,,,,,,,,,,,,,,,,,,,,,,,,,,,,,,,,,,,,,,,,,,,,,,,,,,,,,,,,,,
0,73,73,23,1,,613aef3d9041bcd28952af82,62c5392d0f5bf6bc18c814c0,2022-07-06_24h27.08.313,Colour_Asymmetry_Pilot,2022.1.3,Win32,59.97001499,62c50e9c1127f2cd403a315f,,,,,,,,,,,,,,,,,,,,,,,,,,,,,,,,,,,,,,,,,,,,,,,,,,,,,,,,,,,,,,,,,,,,,,,,,,,,,,,,,,,,,,,,,,,,,,,,,,,,,,,,,,,,,,,,,,,,,,,,,,,,,,,,,,,,,,,,,,,,,,,,,,,,,,,,,,,,,,,,,,,
0,74,74,6,1,,613aef3d9041bcd28952af82,62c5392d0f5bf6bc18c814c0,2022-07-06_24h27.08.313,Colour_Asymmetry_Pilot,2022.1.3,Win32,59.97001499,62c50e9c1127f2cd403a315f,,,,,,,,,,,,,,,,,,,,,,,,,,,,,,,,,,,,,,,,,,,,,,,,,,,,,,,,,,,,,,,,,,,,,,,,,,,,,,,,,,,,,,,,,,,,,,,,,,,,,,,,,,,,,,,,,,,,,,,,,,,,,,,,,,,,,,,,,,,,,,,,,,,,,,,,,,,,,,,,,,,
0,75,75,69,1,,613aef3d9041bcd28952af82,62c5392d0f5bf6bc18c814c0,2022-07-06_24h27.08.313,Colour_Asymmetry_Pilot,2022.1.3,Win32,59.97001499,62c50e9c1127f2cd403a315f,,,,,,,,,,,,,,,,,,,,,,,,,,,,,,,,,,,,,,,,,,,,,,,,,,,,,,,,,,,,,,,,,,,,,,,,,,,,,,,,,,,,,,,,,,,,,,,,,,,,,,,,,,,,,,,,,,,,,,,,,,,,,,,,,,,,,,,,,,,,,,,,,,,,,,,,,,,,,,,,,,,
0,76,76,19,1,,613aef3d9041bcd28952af82,62c5392d0f5bf6bc18c814c0,2022-07-06_24h27.08.313,Colour_Asymmetry_Pilot,2022.1.3,Win32,59.97001499,62c50e9c1127f2cd403a315f,,,,,,,,,,,,,,,,,,,,,,,,,,,,,,,,,,,,,,,,,,,,,,,,,,,,,,,,,,,,,,,,,,,,,,,,,,,,,,,,,,,,,,,,,,,,,,,,,,,,,,,,,,,,,,,,,,,,,,,,,,,,,,,,,,,,,,,,,,,,,,,,,,,,,,,,,,,,,,,,,,,
0,77,77,66,1,,613aef3d9041bcd28952af82,62c5392d0f5bf6bc18c814c0,2022-07-06_24h27.08.313,Colour_Asymmetry_Pilot,2022.1.3,Win32,59.97001499,62c50e9c1127f2cd403a315f,,,,,,,,,,,,,,,,,,,,,,,,,,,,,,,,,,,,,,,,,,,,,,,,,,,,,,,,,,,,,,,,,,,,,,,,,,,,,,,,,,,,,,,,,,,,,,,,,,,,,,,,,,,,,,,,,,,,,,,,,,,,,,,,,,,,,,,,,,,,,,,,,,,,,,,,,,,,,,,,,,,
0,78,78,42,1,,613aef3d9041bcd28952af82,62c5392d0f5bf6bc18c814c0,2022-07-06_24h27.08.313,Colour_Asymmetry_Pilot,2022.1.3,Win32,59.97001499,62c50e9c1127f2cd403a315f,,,,,,,,,,,,,,,,,,,,,,,,,,,,,,,,,,,,,,,,,,,,,,,,,,,,,,,,,,,,,,,,,,,,,,,,,,,,,,,,,,,,,,,,,,,,,,,,,,,,,,,,,,,,,,,,,,,,,,,,,,,,,,,,,,,,,,,,,,,,,,,,,,,,,,,,,,,,,,,,,,,
0,79,79,29,1,,613aef3d9041bcd28952af82,62c5392d0f5bf6bc18c814c0,2022-07-06_24h27.08.313,Colour_Asymmetry_Pilot,2022.1.3,Win32,59.97001499,62c50e9c1127f2cd403a315f,,,,,,,,,,,,,,,,,,,,,,,,,,,,,,,,,,,,,,,,,,,,,,,,,,,,,,,,,,,,,,,,,,,,,,,,,,,,,,,,,,,,,,,,,,,,,,,,,,,,,,,,,,,,,,,,,,,,,,,,,,,,,,,,,,,,,,,,,,,,,,,,,,,,,,,,,,,,,,,,,,,
0,80,80,89,1,,613aef3d9041bcd28952af82,62c5392d0f5bf6bc18c814c0,2022-07-06_24h27.08.313,Colour_Asymmetry_Pilot,2022.1.3,Win32,59.97001499,62c50e9c1127f2cd403a315f,,,,,,,,,,,,,,,,,,,,,,,,,,,,,,,,,,,,,,,,,,,,,,,,,,,,,,,,,,,,,,,,,,,,,,,,,,,,,,,,,,,,,,,,,,,,,,,,,,,,,,,,,,,,,,,,,,,,,,,,,,,,,,,,,,,,,,,,,,,,,,,,,,,,,,,,,,,,,,,,,,,
0,81,81,48,1,,613aef3d9041bcd28952af82,62c5392d0f5bf6bc18c814c0,2022-07-06_24h27.08.313,Colour_Asymmetry_Pilot,2022.1.3,Win32,59.97001499,62c50e9c1127f2cd403a315f,,,,,,,,,,,,,,,,,,,,,,,,,,,,,,,,,,,,,,,,,,,,,,,,,,,,,,,,,,,,,,,,,,,,,,,,,,,,,,,,,,,,,,,,,,,,,,,,,,,,,,,,,,,,,,,,,,,,,,,,,,,,,,,,,,,,,,,,,,,,,,,,,,,,,,,,,,,,,,,,,,,
0,82,82,0,1,,613aef3d9041bcd28952af82,62c5392d0f5bf6bc18c814c0,2022-07-06_24h27.08.313,Colour_Asymmetry_Pilot,2022.1.3,Win32,59.97001499,62c50e9c1127f2cd403a315f,,,,,,,,,,,,,,,,,,,,,,,,,,,,,,,,,,,,,,,,,,,,,,,,,,,,,,,,,,,,,,,,,,,,,,,,,,,,,,,,,,,,,,,,,,,,,,,,,,,,,,,,,,,,,,,,,,,,,,,,,,,,,,,,,,,,,,,,,,,,,,,,,,,,,,,,,,,,,,,,,,,
0,83,83,76,1,,613aef3d9041bcd28952af82,62c5392d0f5bf6bc18c814c0,2022-07-06_24h27.08.313,Colour_Asymmetry_Pilot,2022.1.3,Win32,59.97001499,62c50e9c1127f2cd403a315f,,,,,,,,,,,,,,,,,,,,,,,,,,,,,,,,,,,,,,,,,,,,,,,,,,,,,,,,,,,,,,,,,,,,,,,,,,,,,,,,,,,,,,,,,,,,,,,,,,,,,,,,,,,,,,,,,,,,,,,,,,,,,,,,,,,,,,,,,,,,,,,,,,,,,,,,,,,,,,,,,,,
0,84,84,63,1,,613aef3d9041bcd28952af82,62c5392d0f5bf6bc18c814c0,2022-07-06_24h27.08.313,Colour_Asymmetry_Pilot,2022.1.3,Win32,59.97001499,62c50e9c1127f2cd403a315f,,,,,,,,,,,,,,,,,,,,,,,,,,,,,,,,,,,,,,,,,,,,,,,,,,,,,,,,,,,,,,,,,,,,,,,,,,,,,,,,,,,,,,,,,,,,,,,,,,,,,,,,,,,,,,,,,,,,,,,,,,,,,,,,,,,,,,,,,,,,,,,,,,,,,,,,,,,,,,,,,,,
0,85,85,36,1,,613aef3d9041bcd28952af82,62c5392d0f5bf6bc18c814c0,2022-07-06_24h27.08.313,Colour_Asymmetry_Pilot,2022.1.3,Win32,59.97001499,62c50e9c1127f2cd403a315f,,,,,,,,,,,,,,,,,,,,,,,,,,,,,,,,,,,,,,,,,,,,,,,,,,,,,,,,,,,,,,,,,,,,,,,,,,,,,,,,,,,,,,,,,,,,,,,,,,,,,,,,,,,,,,,,,,,,,,,,,,,,,,,,,,,,,,,,,,,,,,,,,,,,,,,,,,,,,,,,,,,
0,86,86,34,1,,613aef3d9041bcd28952af82,62c5392d0f5bf6bc18c814c0,2022-07-06_24h27.08.313,Colour_Asymmetry_Pilot,2022.1.3,Win32,59.97001499,62c50e9c1127f2cd403a315f,,,,,,,,,,,,,,,,,,,,,,,,,,,,,,,,,,,,,,,,,,,,,,,,,,,,,,,,,,,,,,,,,,,,,,,,,,,,,,,,,,,,,,,,,,,,,,,,,,,,,,,,,,,,,,,,,,,,,,,,,,,,,,,,,,,,,,,,,,,,,,,,,,,,,,,,,,,,,,,,,,,
0,87,87,87,1,,613aef3d9041bcd28952af82,62c5392d0f5bf6bc18c814c0,2022-07-06_24h27.08.313,Colour_Asymmetry_Pilot,2022.1.3,Win32,59.97001499,62c50e9c1127f2cd403a315f,,,,,,,,,,,,,,,,,,,,,,,,,,,,,,,,,,,,,,,,,,,,,,,,,,,,,,,,,,,,,,,,,,,,,,,,,,,,,,,,,,,,,,,,,,,,,,,,,,,,,,,,,,,,,,,,,,,,,,,,,,,,,,,,,,,,,,,,,,,,,,,,,,,,,,,,,,,,,,,,,,,
0,88,88,85,1,,613aef3d9041bcd28952af82,62c5392d0f5bf6bc18c814c0,2022-07-06_24h27.08.313,Colour_Asymmetry_Pilot,2022.1.3,Win32,59.97001499,62c50e9c1127f2cd403a315f,,,,,,,,,,,,,,,,,,,,,,,,,,,,,,,,,,,,,,,,,,,,,,,,,,,,,,,,,,,,,,,,,,,,,,,,,,,,,,,,,,,,,,,,,,,,,,,,,,,,,,,,,,,,,,,,,,,,,,,,,,,,,,,,,,,,,,,,,,,,,,,,,,,,,,,,,,,,,,,,,,,
0,89,89,70,1,,613aef3d9041bcd28952af82,62c5392d0f5bf6bc18c814c0,2022-07-06_24h27.08.313,Colour_Asymmetry_Pilot,2022.1.3,Win32,59.97001499,62c50e9c1127f2cd403a315f,,,,,,,,,,,,,,,,,,,,,,,,,,,,,,,,,,,,,,,,,,,,,,,,,,,,,,,,,,,,,,,,,,,,,,,,,,,,,,,,,,,,,,,,,,,,,,,,,,,,,,,,,,,,,,,,,,,,,,,,,,,,,,,,,,,,,,,,,,,,,,,,,,,,,,,,,,,,,,,,,,,
0,90,90,77,1,,613aef3d9041bcd28952af82,62c5392d0f5bf6bc18c814c0,2022-07-06_24h27.08.313,Colour_Asymmetry_Pilot,2022.1.3,Win32,59.97001499,62c50e9c1127f2cd403a315f,,,,,,,,,,,,,,,,,,,,,,,,,,,,,,,,,,,,,,,,,,,,,,,,,,,,,,,,,,,,,,,,,,,,,,,,,,,,,,,,,,,,,,,,,,,,,,,,,,,,,,,,,,,,,,,,,,,,,,,,,,,,,,,,,,,,,,,,,,,,,,,,,,,,,,,,,,,,,,,,,,,
0,91,91,82,1,,613aef3d9041bcd28952af82,62c5392d0f5bf6bc18c814c0,2022-07-06_24h27.08.313,Colour_Asymmetry_Pilot,2022.1.3,Win32,59.97001499,62c50e9c1127f2cd403a315f,,,,,,,,,,,,,,,,,,,,,,,,,,,,,,,,,,,,,,,,,,,,,,,,,,,,,,,,,,,,,,,,,,,,,,,,,,,,,,,,,,,,,,,,,,,,,,,,,,,,,,,,,,,,,,,,,,,,,,,,,,,,,,,,,,,,,,,,,,,,,,,,,,,,,,,,,,,,,,,,,,,
0,92,92,11,1,,613aef3d9041bcd28952af82,62c5392d0f5bf6bc18c814c0,2022-07-06_24h27.08.313,Colour_Asymmetry_Pilot,2022.1.3,Win32,59.97001499,62c50e9c1127f2cd403a315f,,,,,,,,,,,,,,,,,,,,,,,,,,,,,,,,,,,,,,,,,,,,,,,,,,,,,,,,,,,,,,,,,,,,,,,,,,,,,,,,,,,,,,,,,,,,,,,,,,,,,,,,,,,,,,,,,,,,,,,,,,,,,,,,,,,,,,,,,,,,,,,,,,,,,,,,,,,,,,,,,,,
,,,,,,613aef3d9041bcd28952af82,62c5392d0f5bf6bc18c814c0,2022-07-06_24h27.08.313,Colour_Asymmetry_Pilot,2022.1.3,Win32,59.97001499,62c50e9c1127f2cd403a315f,0,0,0,101,1,threefour,,,,,,,,,,,,,,,,,,,,,,,,,,,,,,,,,,,,,,,,,,,,,,,,,,,,,,,,,,,,,,,,,,,,,,,,,,,,,,,,,,,,,,,,,,,,,,,,,,,,,,,,,,,,,,,,,,,,,,,,,,,,,,,,,,,,,,,,,,,,,,,,,,,,,,,,,,,,,
,,,,,,613aef3d9041bcd28952af82,62c5392d0f5bf6bc18c814c0,2022-07-06_24h27.08.313,Colour_Asymmetry_Pilot,2022.1.3,Win32,59.97001499,62c50e9c1127f2cd403a315f,0,1,1,44,1,threeone,,,,,,,,,,,,,,,,,,,,,,,,,,,,,,,,,,,,,,,,,,,,,,,,,,,,,,,,,,,,,,,,,,,,,,,,,,,,,,,,,,,,,,,,,,,,,,,,,,,,,,,,,,,,,,,,,,,,,,,,,,,,,,,,,,,,,,,,,,,,,,,,,,,,,,,,,,,,,
,,,,,,613aef3d9041bcd28952af82,62c5392d0f5bf6bc18c814c0,2022-07-06_24h27.08.313,Colour_Asymmetry_Pilot,2022.1.3,Win32,59.97001499,62c50e9c1127f2cd403a315f,0,2,2,125,1,threefour,,,,,,,,,,,,,,,,,,,,,,,,,,,,,,,,,,,,,,,,,,,,,,,,,,,,,,,,,,,,,,,,,,,,,,,,,,,,,,,,,,,,,,,,,,,,,,,,,,,,,,,,,,,,,,,,,,,,,,,,,,,,,,,,,,,,,,,,,,,,,,,,,,,,,,,,,,,,,
,,,,,,613aef3d9041bcd28952af82,62c5392d0f5bf6bc18c814c0,2022-07-06_24h27.08.313,Colour_Asymmetry_Pilot,2022.1.3,Win32,59.97001499,62c50e9c1127f2cd403a315f,0,3,3,74,1,twoone,,,,,,,,,,,,,,,,,,,,,,,,,,,,,,,,,,,,,,,,,,,,,,,,,,,,,,,,,,,,,,,,,,,,,,,,,,,,,,,,,,,,,,,,,,,,,,,,,,,,,,,,,,,,,,,,,,,,,,,,,,,,,,,,,,,,,,,,,,,,,,,,,,,,,,,,,,,,,
,,,,,,613aef3d9041bcd28952af82,62c5392d0f5bf6bc18c814c0,2022-07-06_24h27.08.313,Colour_Asymmetry_Pilot,2022.1.3,Win32,59.97001499,62c50e9c1127f2cd403a315f,0,4,4,43,1,twofour,,,,,,,,,,,,,,,,,,,,,,,,,,,,,,,,,,,,,,,,,,,,,,,,,,,,,,,,,,,,,,,,,,,,,,,,,,,,,,,,,,,,,,,,,,,,,,,,,,,,,,,,,,,,,,,,,,,,,,,,,,,,,,,,,,,,,,,,,,,,,,,,,,,,,,,,,,,,,
,,,,,,613aef3d9041bcd28952af82,62c5392d0f5bf6bc18c814c0,2022-07-06_24h27.08.313,Colour_Asymmetry_Pilot,2022.1.3,Win32,59.97001499,62c50e9c1127f2cd403a315f,0,5,5,47,1,fourthree,,,,,,,,,,,,,,,,,,,,,,,,,,,,,,,,,,,,,,,,,,,,,,,,,,,,,,,,,,,,,,,,,,,,,,,,,,,,,,,,,,,,,,,,,,,,,,,,,,,,,,,,,,,,,,,,,,,,,,,,,,,,,,,,,,,,,,,,,,,,,,,,,,,,,,,,,,,,,
,,,,,,613aef3d9041bcd28952af82,62c5392d0f5bf6bc18c814c0,2022-07-06_24h27.08.313,Colour_Asymmetry_Pilot,2022.1.3,Win32,59.97001499,62c50e9c1127f2cd403a315f,0,6,6,55,1,fourthree,,,,,,,,,,,,,,,,,,,,,,,,,,,,,,,,,,,,,,,,,,,,,,,,,,,,,,,,,,,,,,,,,,,,,,,,,,,,,,,,,,,,,,,,,,,,,,,,,,,,,,,,,,,,,,,,,,,,,,,,,,,,,,,,,,,,,,,,,,,,,,,,,,,,,,,,,,,,,
,,,,,,613aef3d9041bcd28952af82,62c5392d0f5bf6bc18c814c0,2022-07-06_24h27.08.313,Colour_Asymmetry_Pilot,2022.1.3,Win32,59.97001499,62c50e9c1127f2cd403a315f,0,7,7,21,1,threefour,,,,,,,,,,,,,,,,,,,,,,,,,,,,,,,,,,,,,,,,,,,,,,,,,,,,,,,,,,,,,,,,,,,,,,,,,,,,,,,,,,,,,,,,,,,,,,,,,,,,,,,,,,,,,,,,,,,,,,,,,,,,,,,,,,,,,,,,,,,,,,,,,,,,,,,,,,,,,
,,,,,,613aef3d9041bcd28952af82,62c5392d0f5bf6bc18c814c0,2022-07-06_24h27.08.313,Colour_Asymmetry_Pilot,2022.1.3,Win32,59.97001499,62c50e9c1127f2cd403a315f,0,8,8,139,1,twofour,,,,,,,,,,,,,,,,,,,,,,,,,,,,,,,,,,,,,,,,,,,,,,,,,,,,,,,,,,,,,,,,,,,,,,,,,,,,,,,,,,,,,,,,,,,,,,,,,,,,,,,,,,,,,,,,,,,,,,,,,,,,,,,,,,,,,,,,,,,,,,,,,,,,,,,,,,,,,
,,,,,,613aef3d9041bcd28952af82,62c5392d0f5bf6bc18c814c0,2022-07-06_24h27.08.313,Colour_Asymmetry_Pilot,2022.1.3,Win32,59.97001499,62c50e9c1127f2cd403a315f,0,9,9,60,1,threeone,,,,,,,,,,,,,,,,,,,,,,,,,,,,,,,,,,,,,,,,,,,,,,,,,,,,,,,,,,,,,,,,,,,,,,,,,,,,,,,,,,,,,,,,,,,,,,,,,,,,,,,,,,,,,,,,,,,,,,,,,,,,,,,,,,,,,,,,,,,,,,,,,,,,,,,,,,,,,
,,,,,,613aef3d9041bcd28952af82,62c5392d0f5bf6bc18c814c0,2022-07-06_24h27.08.313,Colour_Asymmetry_Pilot,2022.1.3,Win32,59.97001499,62c50e9c1127f2cd403a315f,0,10,10,126,1,fourtwo,,,,,,,,,,,,,,,,,,,,,,,,,,,,,,,,,,,,,,,,,,,,,,,,,,,,,,,,,,,,,,,,,,,,,,,,,,,,,,,,,,,,,,,,,,,,,,,,,,,,,,,,,,,,,,,,,,,,,,,,,,,,,,,,,,,,,,,,,,,,,,,,,,,,,,,,,,,,,
,,,,,,613aef3d9041bcd28952af82,62c5392d0f5bf6bc18c814c0,2022-07-06_24h27.08.313,Colour_Asymmetry_Pilot,2022.1.3,Win32,59.97001499,62c50e9c1127f2cd403a315f,0,11,11,70,1,fourtwo,,,,,,,,,,,,,,,,,,,,,,,,,,,,,,,,,,,,,,,,,,,,,,,,,,,,,,,,,,,,,,,,,,,,,,,,,,,,,,,,,,,,,,,,,,,,,,,,,,,,,,,,,,,,,,,,,,,,,,,,,,,,,,,,,,,,,,,,,,,,,,,,,,,,,,,,,,,,,
,,,,,,613aef3d9041bcd28952af82,62c5392d0f5bf6bc18c814c0,2022-07-06_24h27.08.313,Colour_Asymmetry_Pilot,2022.1.3,Win32,59.97001499,62c50e9c1127f2cd403a315f,0,12,12,28,1,threeone,,,,,,,,,,,,,,,,,,,,,,,,,,,,,,,,,,,,,,,,,,,,,,,,,,,,,,,,,,,,,,,,,,,,,,,,,,,,,,,,,,,,,,,,,,,,,,,,,,,,,,,,,,,,,,,,,,,,,,,,,,,,,,,,,,,,,,,,,,,,,,,,,,,,,,,,,,,,,
,,,,,,613aef3d9041bcd28952af82,62c5392d0f5bf6bc18c814c0,2022-07-06_24h27.08.313,Colour_Asymmetry_Pilot,2022.1.3,Win32,59.97001499,62c50e9c1127f2cd403a315f,0,13,13,23,1,fourthree,,,,,,,,,,,,,,,,,,,,,,,,,,,,,,,,,,,,,,,,,,,,,,,,,,,,,,,,,,,,,,,,,,,,,,,,,,,,,,,,,,,,,,,,,,,,,,,,,,,,,,,,,,,,,,,,,,,,,,,,,,,,,,,,,,,,,,,,,,,,,,,,,,,,,,,,,,,,,
,,,,,,613aef3d9041bcd28952af82,62c5392d0f5bf6bc18c814c0,2022-07-06_24h27.08.313,Colour_Asymmetry_Pilot,2022.1.3,Win32,59.97001499,62c50e9c1127f2cd403a315f,0,14,14,76,1,threeone,,,,,,,,,,,,,,,,,,,,,,,,,,,,,,,,,,,,,,,,,,,,,,,,,,,,,,,,,,,,,,,,,,,,,,,,,,,,,,,,,,,,,,,,,,,,,,,,,,,,,,,,,,,,,,,,,,,,,,,,,,,,,,,,,,,,,,,,,,,,,,,,,,,,,,,,,,,,,
,,,,,,613aef3d9041bcd28952af82,62c5392d0f5bf6bc18c814c0,2022-07-06_24h27.08.313,Colour_Asymmetry_Pilot,2022.1.3,Win32,59.97001499,62c50e9c1127f2cd403a315f,0,15,15,84,1,threeone,,,,,,,,,,,,,,,,,,,,,,,,,,,,,,,,,,,,,,,,,,,,,,,,,,,,,,,,,,,,,,,,,,,,,,,,,,,,,,,,,,,,,,,,,,,,,,,,,,,,,,,,,,,,,,,,,,,,,,,,,,,,,,,,,,,,,,,,,,,,,,,,,,,,,,,,,,,,,
,,,,,,613aef3d9041bcd28952af82,62c5392d0f5bf6bc18c814c0,2022-07-06_24h27.08.313,Colour_Asymmetry_Pilot,2022.1.3,Win32,59.97001499,62c50e9c1127f2cd403a315f,0,16,16,93,1,threefour,,,,,,,,,,,,,,,,,,,,,,,,,,,,,,,,,,,,,,,,,,,,,,,,,,,,,,,,,,,,,,,,,,,,,,,,,,,,,,,,,,,,,,,,,,,,,,,,,,,,,,,,,,,,,,,,,,,,,,,,,,,,,,,,,,,,,,,,,,,,,,,,,,,,,,,,,,,,,
,,,,,,613aef3d9041bcd28952af82,62c5392d0f5bf6bc18c814c0,2022-07-06_24h27.08.313,Colour_Asymmetry_Pilot,2022.1.3,Win32,59.97001499,62c50e9c1127f2cd403a315f,0,17,17,41,1,onethree,,,,,,,,,,,,,,,,,,,,,,,,,,,,,,,,,,,,,,,,,,,,,,,,,,,,,,,,,,,,,,,,,,,,,,,,,,,,,,,,,,,,,,,,,,,,,,,,,,,,,,,,,,,,,,,,,,,,,,,,,,,,,,,,,,,,,,,,,,,,,,,,,,,,,,,,,,,,,
,,,,,,613aef3d9041bcd28952af82,62c5392d0f5bf6bc18c814c0,2022-07-06_24h27.08.313,Colour_Asymmetry_Pilot,2022.1.3,Win32,59.97001499,62c50e9c1127f2cd403a315f,0,18,18,11,1,twofour,,,,,,,,,,,,,,,,,,,,,,,,,,,,,,,,,,,,,,,,,,,,,,,,,,,,,,,,,,,,,,,,,,,,,,,,,,,,,,,,,,,,,,,,,,,,,,,,,,,,,,,,,,,,,,,,,,,,,,,,,,,,,,,,,,,,,,,,,,,,,,,,,,,,,,,,,,,,,
,,,,,,613aef3d9041bcd28952af82,62c5392d0f5bf6bc18c814c0,2022-07-06_24h27.08.313,Colour_Asymmetry_Pilot,2022.1.3,Win32,59.97001499,62c50e9c1127f2cd403a315f,0,19,19,67,1,twofour,,,,,,,,,,,,,,,,,,,,,,,,,,,,,,,,,,,,,,,,,,,,,,,,,,,,,,,,,,,,,,,,,,,,,,,,,,,,,,,,,,,,,,,,,,,,,,,,,,,,,,,,,,,,,,,,,,,,,,,,,,,,,,,,,,,,,,,,,,,,,,,,,,,,,,,,,,,,,
,,,,,,613aef3d9041bcd28952af82,62c5392d0f5bf6bc18c814c0,2022-07-06_24h27.08.313,Colour_Asymmetry_Pilot,2022.1.3,Win32,59.97001499,62c50e9c1127f2cd403a315f,0,20,20,151,1,fourthree,,,,,,,,,,,,,,,,,,,,,,,,,,,,,,,,,,,,,,,,,,,,,,,,,,,,,,,,,,,,,,,,,,,,,,,,,,,,,,,,,,,,,,,,,,,,,,,,,,,,,,,,,,,,,,,,,,,,,,,,,,,,,,,,,,,,,,,,,,,,,,,,,,,,,,,,,,,,,
,,,,,,613aef3d9041bcd28952af82,62c5392d0f5bf6bc18c814c0,2022-07-06_24h27.08.313,Colour_Asymmetry_Pilot,2022.1.3,Win32,59.97001499,62c50e9c1127f2cd403a315f,0,21,21,89,1,onethree,,,,,,,,,,,,,,,,,,,,,,,,,,,,,,,,,,,,,,,,,,,,,,,,,,,,,,,,,,,,,,,,,,,,,,,,,,,,,,,,,,,,,,,,,,,,,,,,,,,,,,,,,,,,,,,,,,,,,,,,,,,,,,,,,,,,,,,,,,,,,,,,,,,,,,,,,,,,,
,,,,,,613aef3d9041bcd28952af82,62c5392d0f5bf6bc18c814c0,2022-07-06_24h27.08.313,Colour_Asymmetry_Pilot,2022.1.3,Win32,59.97001499,62c50e9c1127f2cd403a315f,0,22,22,141,1,threefour,,,,,,,,,,,,,,,,,,,,,,,,,,,,,,,,,,,,,,,,,,,,,,,,,,,,,,,,,,,,,,,,,,,,,,,,,,,,,,,,,,,,,,,,,,,,,,,,,,,,,,,,,,,,,,,,,,,,,,,,,,,,,,,,,,,,,,,,,,,,,,,,,,,,,,,,,,,,,
,,,,,,613aef3d9041bcd28952af82,62c5392d0f5bf6bc18c814c0,2022-07-06_24h27.08.313,Colour_Asymmetry_Pilot,2022.1.3,Win32,59.97001499,62c50e9c1127f2cd403a315f,0,23,23,20,1,threeone,,,,,,,,,,,,,,,,,,,,,,,,,,,,,,,,,,,,,,,,,,,,,,,,,,,,,,,,,,,,,,,,,,,,,,,,,,,,,,,,,,,,,,,,,,,,,,,,,,,,,,,,,,,,,,,,,,,,,,,,,,,,,,,,,,,,,,,,,,,,,,,,,,,,,,,,,,,,,
,,,,,,613aef3d9041bcd28952af82,62c5392d0f5bf6bc18c814c0,2022-07-06_24h27.08.313,Colour_Asymmetry_Pilot,2022.1.3,Win32,59.97001499,62c50e9c1127f2cd403a315f,0,24,24,1,1,onethree,,,,,,,,,,,,,,,,,,,,,,,,,,,,,,,,,,,,,,,,,,,,,,,,,,,,,,,,,,,,,,,,,,,,,,,,,,,,,,,,,,,,,,,,,,,,,,,,,,,,,,,,,,,,,,,,,,,,,,,,,,,,,,,,,,,,,,,,,,,,,,,,,,,,,,,,,,,,,
,,,,,,613aef3d9041bcd28952af82,62c5392d0f5bf6bc18c814c0,2022-07-06_24h27.08.313,Colour_Asymmetry_Pilot,2022.1.3,Win32,59.97001499,62c50e9c1127f2cd403a315f,0,25,25,52,1,threeone,,,,,,,,,,,,,,,,,,,,,,,,,,,,,,,,,,,,,,,,,,,,,,,,,,,,,,,,,,,,,,,,,,,,,,,,,,,,,,,,,,,,,,,,,,,,,,,,,,,,,,,,,,,,,,,,,,,,,,,,,,,,,,,,,,,,,,,,,,,,,,,,,,,,,,,,,,,,,
,,,,,,613aef3d9041bcd28952af82,62c5392d0f5bf6bc18c814c0,2022-07-06_24h27.08.313,Colour_Asymmetry_Pilot,2022.1.3,Win32,59.97001499,62c50e9c1127f2cd403a315f,0,26,26,113,1,onethree,,,,,,,,,,,,,,,,,,,,,,,,,,,,,,,,,,,,,,,,,,,,,,,,,,,,,,,,,,,,,,,,,,,,,,,,,,,,,,,,,,,,,,,,,,,,,,,,,,,,,,,,,,,,,,,,,,,,,,,,,,,,,,,,,,,,,,,,,,,,,,,,,,,,,,,,,,,,,
,,,,,,613aef3d9041bcd28952af82,62c5392d0f5bf6bc18c814c0,2022-07-06_24h27.08.313,Colour_Asymmetry_Pilot,2022.1.3,Win32,59.97001499,62c50e9c1127f2cd403a315f,0,27,27,146,1,twoone,,,,,,,,,,,,,,,,,,,,,,,,,,,,,,,,,,,,,,,,,,,,,,,,,,,,,,,,,,,,,,,,,,,,,,,,,,,,,,,,,,,,,,,,,,,,,,,,,,,,,,,,,,,,,,,,,,,,,,,,,,,,,,,,,,,,,,,,,,,,,,,,,,,,,,,,,,,,,
,,,,,,613aef3d9041bcd28952af82,62c5392d0f5bf6bc18c814c0,2022-07-06_24h27.08.313,Colour_Asymmetry_Pilot,2022.1.3,Win32,59.97001499,62c50e9c1127f2cd403a315f,0,28,28,7,1,fourthree,,,,,,,,,,,,,,,,,,,,,,,,,,,,,,,,,,,,,,,,,,,,,,,,,,,,,,,,,,,,,,,,,,,,,,,,,,,,,,,,,,,,,,,,,,,,,,,,,,,,,,,,,,,,,,,,,,,,,,,,,,,,,,,,,,,,,,,,,,,,,,,,,,,,,,,,,,,,,
,,,,,,613aef3d9041bcd28952af82,62c5392d0f5bf6bc18c814c0,2022-07-06_24h27.08.313,Colour_Asymmetry_Pilot,2022.1.3,Win32,59.97001499,62c50e9c1127f2cd403a315f,0,29,29,127,1,fourthree,,,,,,,,,,,,,,,,,,,,,,,,,,,,,,,,,,,,,,,,,,,,,,,,,,,,,,,,,,,,,,,,,,,,,,,,,,,,,,,,,,,,,,,,,,,,,,,,,,,,,,,,,,,,,,,,,,,,,,,,,,,,,,,,,,,,,,,,,,,,,,,,,,,,,,,,,,,,,
,,,,,,613aef3d9041bcd28952af82,62c5392d0f5bf6bc18c814c0,2022-07-06_24h27.08.313,Colour_Asymmetry_Pilot,2022.1.3,Win32,59.97001499,62c50e9c1127f2cd403a315f,0,30,30,123,1,twofour,,,,,,,,,,,,,,,,,,,,,,,,,,,,,,,,,,,,,,,,,,,,,,,,,,,,,,,,,,,,,,,,,,,,,,,,,,,,,,,,,,,,,,,,,,,,,,,,,,,,,,,,,,,,,,,,,,,,,,,,,,,,,,,,,,,,,,,,,,,,,,,,,,,,,,,,,,,,,
,,,,,,613aef3d9041bcd28952af82,62c5392d0f5bf6bc18c814c0,2022-07-06_24h27.08.313,Colour_Asymmetry_Pilot,2022.1.3,Win32,59.97001499,62c50e9c1127f2cd403a315f,0,31,31,95,1,fourthree,,,,,,,,,,,,,,,,,,,,,,,,,,,,,,,,,,,,,,,,,,,,,,,,,,,,,,,,,,,,,,,,,,,,,,,,,,,,,,,,,,,,,,,,,,,,,,,,,,,,,,,,,,,,,,,,,,,,,,,,,,,,,,,,,,,,,,,,,,,,,,,,,,,,,,,,,,,,,
,,,,,,613aef3d9041bcd28952af82,62c5392d0f5bf6bc18c814c0,2022-07-06_24h27.08.313,Colour_Asymmetry_Pilot,2022.1.3,Win32,59.97001499,62c50e9c1127f2cd403a315f,0,32,32,104,1,onetwo,,,,,,,,,,,,,,,,,,,,,,,,,,,,,,,,,,,,,,,,,,,,,,,,,,,,,,,,,,,,,,,,,,,,,,,,,,,,,,,,,,,,,,,,,,,,,,,,,,,,,,,,,,,,,,,,,,,,,,,,,,,,,,,,,,,,,,,,,,,,,,,,,,,,,,,,,,,,,
,,,,,,613aef3d9041bcd28952af82,62c5392d0f5bf6bc18c814c0,2022-07-06_24h27.08.313,Colour_Asymmetry_Pilot,2022.1.3,Win32,59.97001499,62c50e9c1127f2cd403a315f,0,33,33,110,1,fourtwo,,,,,,,,,,,,,,,,,,,,,,,,,,,,,,,,,,,,,,,,,,,,,,,,,,,,,,,,,,,,,,,,,,,,,,,,,,,,,,,,,,,,,,,,,,,,,,,,,,,,,,,,,,,,,,,,,,,,,,,,,,,,,,,,,,,,,,,,,,,,,,,,,,,,,,,,,,,,,
,,,,,,613aef3d9041bcd28952af82,62c5392d0f5bf6bc18c814c0,2022-07-06_24h27.08.313,Colour_Asymmetry_Pilot,2022.1.3,Win32,59.97001499,62c50e9c1127f2cd403a315f,0,34,34,96,1,onetwo,,,,,,,,,,,,,,,,,,,,,,,,,,,,,,,,,,,,,,,,,,,,,,,,,,,,,,,,,,,,,,,,,,,,,,,,,,,,,,,,,,,,,,,,,,,,,,,,,,,,,,,,,,,,,,,,,,,,,,,,,,,,,,,,,,,,,,,,,,,,,,,,,,,,,,,,,,,,,
,,,,,,613aef3d9041bcd28952af82,62c5392d0f5bf6bc18c814c0,2022-07-06_24h27.08.313,Colour_Asymmetry_Pilot,2022.1.3,Win32,59.97001499,62c50e9c1127f2cd403a315f,0,35,35,5,1,threefour,,,,,,,,,,,,,,,,,,,,,,,,,,,,,,,,,,,,,,,,,,,,,,,,,,,,,,,,,,,,,,,,,,,,,,,,,,,,,,,,,,,,,,,,,,,,,,,,,,,,,,,,,,,,,,,,,,,,,,,,,,,,,,,,,,,,,,,,,,,,,,,,,,,,,,,,,,,,,
,,,,,,613aef3d9041bcd28952af82,62c5392d0f5bf6bc18c814c0,2022-07-06_24h27.08.313,Colour_Asymmetry_Pilot,2022.1.3,Win32,59.97001499,62c50e9c1127f2cd403a315f,0,36,36,102,1,fourtwo,,,,,,,,,,,,,,,,,,,,,,,,,,,,,,,,,,,,,,,,,,,,,,,,,,,,,,,,,,,,,,,,,,,,,,,,,,,,,,,,,,,,,,,,,,,,,,,,,,,,,,,,,,,,,,,,,,,,,,,,,,,,,,,,,,,,,,,,,,,,,,,,,,,,,,,,,,,,,
,,,,,,613aef3d9041bcd28952af82,62c5392d0f5bf6bc18c814c0,2022-07-06_24h27.08.313,Colour_Asymmetry_Pilot,2022.1.3,Win32,59.97001499,62c50e9c1127f2cd403a315f,0,37,37,57,1,onethree,,,,,,,,,,,,,,,,,,,,,,,,,,,,,,,,,,,,,,,,,,,,,,,,,,,,,,,,,,,,,,,,,,,,,,,,,,,,,,,,,,,,,,,,,,,,,,,,,,,,,,,,,,,,,,,,,,,,,,,,,,,,,,,,,,,,,,,,,,,,,,,,,,,,,,,,,,,,,
,,,,,,613aef3d9041bcd28952af82,62c5392d0f5bf6bc18c814c0,2022-07-06_24h27.08.313,Colour_Asymmetry_Pilot,2022.1.3,Win32,59.97001499,62c50e9c1127f2cd403a315f,0,38,38,54,1,fourtwo,,,,,,,,,,,,,,,,,,,,,,,,,,,,,,,,,,,,,,,,,,,,,,,,,,,,,,,,,,,,,,,,,,,,,,,,,,,,,,,,,,,,,,,,,,,,,,,,,,,,,,,,,,,,,,,,,,,,,,,,,,,,,,,,,,,,,,,,,,,,,,,,,,,,,,,,,,,,,
,,,,,,613aef3d9041bcd28952af82,62c5392d0f5bf6bc18c814c0,2022-07-06_24h27.08.313,Colour_Asymmetry_Pilot,2022.1.3,Win32,59.97001499,62c50e9c1127f2cd403a315f,0,39,39,147,1,twofour,,,,,,,,,,,,,,,,,,,,,,,,,,,,,,,,,,,,,,,,,,,,,,,,,,,,,,,,,,,,,,,,,,,,,,,,,,,,,,,,,,,,,,,,,,,,,,,,,,,,,,,,,,,,,,,,,,,,,,,,,,,,,,,,,,,,,,,,,,,,,,,,,,,,,,,,,,,,,
,,,,,,613aef3d9041bcd28952af82,62c5392d0f5bf6bc18c814c0,2022-07-06_24h27.08.313,Colour_Asymmetry_Pilot,2022.1.3,Win32,59.97001499,62c50e9c1127f2cd403a315f,0,40,40,30,1,fourtwo,,,,,,,,,,,,,,,,,,,,,,,,,,,,,,,,,,,,,,,,,,,,,,,,,,,,,,,,,,,,,,,,,,,,,,,,,,,,,,,,,,,,,,,,,,,,,,,,,,,,,,,,,,,,,,,,,,,,,,,,,,,,,,,,,,,,,,,,,,,,,,,,,,,,,,,,,,,,,
,,,,,,613aef3d9041bcd28952af82,62c5392d0f5bf6bc18c814c0,2022-07-06_24h27.08.313,Colour_Asymmetry_Pilot,2022.1.3,Win32,59.97001499,62c50e9c1127f2cd403a315f,0,41,41,87,1,fourthree,,,,,,,,,,,,,,,,,,,,,,,,,,,,,,,,,,,,,,,,,,,,,,,,,,,,,,,,,,,,,,,,,,,,,,,,,,,,,,,,,,,,,,,,,,,,,,,,,,,,,,,,,,,,,,,,,,,,,,,,,,,,,,,,,,,,,,,,,,,,,,,,,,,,,,,,,,,,,
,,,,,,613aef3d9041bcd28952af82,62c5392d0f5bf6bc18c814c0,2022-07-06_24h27.08.313,Colour_Asymmetry_Pilot,2022.1.3,Win32,59.97001499,62c50e9c1127f2cd403a315f,0,42,42,140,1,threeone,,,,,,,,,,,,,,,,,,,,,,,,,,,,,,,,,,,,,,,,,,,,,,,,,,,,,,,,,,,,,,,,,,,,,,,,,,,,,,,,,,,,,,,,,,,,,,,,,,,,,,,,,,,,,,,,,,,,,,,,,,,,,,,,,,,,,,,,,,,,,,,,,,,,,,,,,,,,,
,,,,,,613aef3d9041bcd28952af82,62c5392d0f5bf6bc18c814c0,2022-07-06_24h27.08.313,Colour_Asymmetry_Pilot,2022.1.3,Win32,59.97001499,62c50e9c1127f2cd403a315f,0,43,43,154,1,twoone,,,,,,,,,,,,,,,,,,,,,,,,,,,,,,,,,,,,,,,,,,,,,,,,,,,,,,,,,,,,,,,,,,,,,,,,,,,,,,,,,,,,,,,,,,,,,,,,,,,,,,,,,,,,,,,,,,,,,,,,,,,,,,,,,,,,,,,,,,,,,,,,,,,,,,,,,,,,,
,,,,,,613aef3d9041bcd28952af82,62c5392d0f5bf6bc18c814c0,2022-07-06_24h27.08.313,Colour_Asymmetry_Pilot,2022.1.3,Win32,59.97001499,62c50e9c1127f2cd403a315f,0,44,44,4,1,threeone,,,,,,,,,,,,,,,,,,,,,,,,,,,,,,,,,,,,,,,,,,,,,,,,,,,,,,,,,,,,,,,,,,,,,,,,,,,,,,,,,,,,,,,,,,,,,,,,,,,,,,,,,,,,,,,,,,,,,,,,,,,,,,,,,,,,,,,,,,,,,,,,,,,,,,,,,,,,,
,,,,,,613aef3d9041bcd28952af82,62c5392d0f5bf6bc18c814c0,2022-07-06_24h27.08.313,Colour_Asymmetry_Pilot,2022.1.3,Win32,59.97001499,62c50e9c1127f2cd403a315f,0,45,45,100,1,threeone,,,,,,,,,,,,,,,,,,,,,,,,,,,,,,,,,,,,,,,,,,,,,,,,,,,,,,,,,,,,,,,,,,,,,,,,,,,,,,,,,,,,,,,,,,,,,,,,,,,,,,,,,,,,,,,,,,,,,,,,,,,,,,,,,,,,,,,,,,,,,,,,,,,,,,,,,,,,,
,,,,,,613aef3d9041bcd28952af82,62c5392d0f5bf6bc18c814c0,2022-07-06_24h27.08.313,Colour_Asymmetry_Pilot,2022.1.3,Win32,59.97001499,62c50e9c1127f2cd403a315f,0,46,46,136,1,onetwo,,,,,,,,,,,,,,,,,,,,,,,,,,,,,,,,,,,,,,,,,,,,,,,,,,,,,,,,,,,,,,,,,,,,,,,,,,,,,,,,,,,,,,,,,,,,,,,,,,,,,,,,,,,,,,,,,,,,,,,,,,,,,,,,,,,,,,,,,,,,,,,,,,,,,,,,,,,,,
,,,,,,613aef3d9041bcd28952af82,62c5392d0f5bf6bc18c814c0,2022-07-06_24h27.08.313,Colour_Asymmetry_Pilot,2022.1.3,Win32,59.97001499,62c50e9c1127f2cd403a315f,0,47,47,38,1,fourtwo,,,,,,,,,,,,,,,,,,,,,,,,,,,,,,,,,,,,,,,,,,,,,,,,,,,,,,,,,,,,,,,,,,,,,,,,,,,,,,,,,,,,,,,,,,,,,,,,,,,,,,,,,,,,,,,,,,,,,,,,,,,,,,,,,,,,,,,,,,,,,,,,,,,,,,,,,,,,,
,,,,,,613aef3d9041bcd28952af82,62c5392d0f5bf6bc18c814c0,2022-07-06_24h27.08.313,Colour_Asymmetry_Pilot,2022.1.3,Win32,59.97001499,62c50e9c1127f2cd403a315f,0,48,48,63,1,fourthree,,,,,,,,,,,,,,,,,,,,,,,,,,,,,,,,,,,,,,,,,,,,,,,,,,,,,,,,,,,,,,,,,,,,,,,,,,,,,,,,,,,,,,,,,,,,,,,,,,,,,,,,,,,,,,,,,,,,,,,,,,,,,,,,,,,,,,,,,,,,,,,,,,,,,,,,,,,,,
,,,,,,613aef3d9041bcd28952af82,62c5392d0f5bf6bc18c814c0,2022-07-06_24h27.08.313,Colour_Asymmetry_Pilot,2022.1.3,Win32,59.97001499,62c50e9c1127f2cd403a315f,0,49,49,14,1,fourtwo,,,,,,,,,,,,,,,,,,,,,,,,,,,,,,,,,,,,,,,,,,,,,,,,,,,,,,,,,,,,,,,,,,,,,,,,,,,,,,,,,,,,,,,,,,,,,,,,,,,,,,,,,,,,,,,,,,,,,,,,,,,,,,,,,,,,,,,,,,,,,,,,,,,,,,,,,,,,,
,,,,,,613aef3d9041bcd28952af82,62c5392d0f5bf6bc18c814c0,2022-07-06_24h27.08.313,Colour_Asymmetry_Pilot,2022.1.3,Win32,59.97001499,62c50e9c1127f2cd403a315f,0,50,50,18,1,twoone,,,,,,,,,,,,,,,,,,,,,,,,,,,,,,,,,,,,,,,,,,,,,,,,,,,,,,,,,,,,,,,,,,,,,,,,,,,,,,,,,,,,,,,,,,,,,,,,,,,,,,,,,,,,,,,,,,,,,,,,,,,,,,,,,,,,,,,,,,,,,,,,,,,,,,,,,,,,,
,,,,,,613aef3d9041bcd28952af82,62c5392d0f5bf6bc18c814c0,2022-07-06_24h27.08.313,Colour_Asymmetry_Pilot,2022.1.3,Win32,59.97001499,62c50e9c1127f2cd403a315f,0,51,51,129,1,onethree,,,,,,,,,,,,,,,,,,,,,,,,,,,,,,,,,,,,,,,,,,,,,,,,,,,,,,,,,,,,,,,,,,,,,,,,,,,,,,,,,,,,,,,,,,,,,,,,,,,,,,,,,,,,,,,,,,,,,,,,,,,,,,,,,,,,,,,,,,,,,,,,,,,,,,,,,,,,,
,,,,,,613aef3d9041bcd28952af82,62c5392d0f5bf6bc18c814c0,2022-07-06_24h27.08.313,Colour_Asymmetry_Pilot,2022.1.3,Win32,59.97001499,62c50e9c1127f2cd403a315f,0,52,52,78,1,fourtwo,,,,,,,,,,,,,,,,,,,,,,,,,,,,,,,,,,,,,,,,,,,,,,,,,,,,,,,,,,,,,,,,,,,,,,,,,,,,,,,,,,,,,,,,,,,,,,,,,,,,,,,,,,,,,,,,,,,,,,,,,,,,,,,,,,,,,,,,,,,,,,,,,,,,,,,,,,,,,
,,,,,,613aef3d9041bcd28952af82,62c5392d0f5bf6bc18c814c0,2022-07-06_24h27.08.313,Colour_Asymmetry_Pilot,2022.1.3,Win32,59.97001499,62c50e9c1127f2cd403a315f,0,53,53,26,1,twoone,,,,,,,,,,,,,,,,,,,,,,,,,,,,,,,,,,,,,,,,,,,,,,,,,,,,,,,,,,,,,,,,,,,,,,,,,,,,,,,,,,,,,,,,,,,,,,,,,,,,,,,,,,,,,,,,,,,,,,,,,,,,,,,,,,,,,,,,,,,,,,,,,,,,,,,,,,,,,
,,,,,,613aef3d9041bcd28952af82,62c5392d0f5bf6bc18c814c0,2022-07-06_24h27.08.313,Colour_Asymmetry_Pilot,2022.1.3,Win32,59.97001499,62c50e9c1127f2cd403a315f,0,54,54,8,1,onetwo,,,,,,,,,,,,,,,,,,,,,,,,,,,,,,,,,,,,,,,,,,,,,,,,,,,,,,,,,,,,,,,,,,,,,,,,,,,,,,,,,,,,,,,,,,,,,,,,,,,,,,,,,,,,,,,,,,,,,,,,,,,,,,,,,,,,,,,,,,,,,,,,,,,,,,,,,,,,,
,,,,,,613aef3d9041bcd28952af82,62c5392d0f5bf6bc18c814c0,2022-07-06_24h27.08.313,Colour_Asymmetry_Pilot,2022.1.3,Win32,59.97001499,62c50e9c1127f2cd403a315f,0,55,55,152,1,onetwo,,,,,,,,,,,,,,,,,,,,,,,,,,,,,,,,,,,,,,,,,,,,,,,,,,,,,,,,,,,,,,,,,,,,,,,,,,,,,,,,,,,,,,,,,,,,,,,,,,,,,,,,,,,,,,,,,,,,,,,,,,,,,,,,,,,,,,,,,,,,,,,,,,,,,,,,,,,,,
,,,,,,613aef3d9041bcd28952af82,62c5392d0f5bf6bc18c814c0,2022-07-06_24h27.08.313,Colour_Asymmetry_Pilot,2022.1.3,Win32,59.97001499,62c50e9c1127f2cd403a315f,0,56,56,45,1,threefour,,,,,,,,,,,,,,,,,,,,,,,,,,,,,,,,,,,,,,,,,,,,,,,,,,,,,,,,,,,,,,,,,,,,,,,,,,,,,,,,,,,,,,,,,,,,,,,,,,,,,,,,,,,,,,,,,,,,,,,,,,,,,,,,,,,,,,,,,,,,,,,,,,,,,,,,,,,,,
,,,,,,613aef3d9041bcd28952af82,62c5392d0f5bf6bc18c814c0,2022-07-06_24h27.08.313,Colour_Asymmetry_Pilot,2022.1.3,Win32,59.97001499,62c50e9c1127f2cd403a315f,0,57,57,34,1,twoone,,,,,,,,,,,,,,,,,,,,,,,,,,,,,,,,,,,,,,,,,,,,,,,,,,,,,,,,,,,,,,,,,,,,,,,,,,,,,,,,,,,,,,,,,,,,,,,,,,,,,,,,,,,,,,,,,,,,,,,,,,,,,,,,,,,,,,,,,,,,,,,,,,,,,,,,,,,,,
,,,,,,613aef3d9041bcd28952af82,62c5392d0f5bf6bc18c814c0,2022-07-06_24h27.08.313,Colour_Asymmetry_Pilot,2022.1.3,Win32,59.97001499,62c50e9c1127f2cd403a315f,0,58,58,116,1,threeone,,,,,,,,,,,,,,,,,,,,,,,,,,,,,,,,,,,,,,,,,,,,,,,,,,,,,,,,,,,,,,,,,,,,,,,,,,,,,,,,,,,,,,,,,,,,,,,,,,,,,,,,,,,,,,,,,,,,,,,,,,,,,,,,,,,,,,,,,,,,,,,,,,,,,,,,,,,,,
,,,,,,613aef3d9041bcd28952af82,62c5392d0f5bf6bc18c814c0,2022-07-06_24h27.08.313,Colour_Asymmetry_Pilot,2022.1.3,Win32,59.97001499,62c50e9c1127f2cd403a315f,0,59,59,32,1,onetwo,,,,,,,,,,,,,,,,,,,,,,,,,,,,,,,,,,,,,,,,,,,,,,,,,,,,,,,,,,,,,,,,,,,,,,,,,,,,,,,,,,,,,,,,,,,,,,,,,,,,,,,,,,,,,,,,,,,,,,,,,,,,,,,,,,,,,,,,,,,,,,,,,,,,,,,,,,,,,
,,,,,,613aef3d9041bcd28952af82,62c5392d0f5bf6bc18c814c0,2022-07-06_24h27.08.313,Colour_Asymmetry_Pilot,2022.1.3,Win32,59.97001499,62c50e9c1127f2cd403a315f,0,60,60,157,1,threefour,,,,,,,,,,,,,,,,,,,,,,,,,,,,,,,,,,,,,,,,,,,,,,,,,,,,,,,,,,,,,,,,,,,,,,,,,,,,,,,,,,,,,,,,,,,,,,,,,,,,,,,,,,,,,,,,,,,,,,,,,,,,,,,,,,,,,,,,,,,,,,,,,,,,,,,,,,,,,
,,,,,,613aef3d9041bcd28952af82,62c5392d0f5bf6bc18c814c0,2022-07-06_24h27.08.313,Colour_Asymmetry_Pilot,2022.1.3,Win32,59.97001499,62c50e9c1127f2cd403a315f,0,61,61,88,1,onetwo,,,,,,,,,,,,,,,,,,,,,,,,,,,,,,,,,,,,,,,,,,,,,,,,,,,,,,,,,,,,,,,,,,,,,,,,,,,,,,,,,,,,,,,,,,,,,,,,,,,,,,,,,,,,,,,,,,,,,,,,,,,,,,,,,,,,,,,,,,,,,,,,,,,,,,,,,,,,,
,,,,,,613aef3d9041bcd28952af82,62c5392d0f5bf6bc18c814c0,2022-07-06_24h27.08.313,Colour_Asymmetry_Pilot,2022.1.3,Win32,59.97001499,62c50e9c1127f2cd403a315f,0,62,62,17,1,onethree,,,,,,,,,,,,,,,,,,,,,,,,,,,,,,,,,,,,,,,,,,,,,,,,,,,,,,,,,,,,,,,,,,,,,,,,,,,,,,,,,,,,,,,,,,,,,,,,,,,,,,,,,,,,,,,,,,,,,,,,,,,,,,,,,,,,,,,,,,,,,,,,,,,,,,,,,,,,,
,,,,,,613aef3d9041bcd28952af82,62c5392d0f5bf6bc18c814c0,2022-07-06_24h27.08.313,Colour_Asymmetry_Pilot,2022.1.3,Win32,59.97001499,62c50e9c1127f2cd403a315f,0,63,63,27,1,twofour,,,,,,,,,,,,,,,,,,,,,,,,,,,,,,,,,,,,,,,,,,,,,,,,,,,,,,,,,,,,,,,,,,,,,,,,,,,,,,,,,,,,,,,,,,,,,,,,,,,,,,,,,,,,,,,,,,,,,,,,,,,,,,,,,,,,,,,,,,,,,,,,,,,,,,,,,,,,,
,,,,,,613aef3d9041bcd28952af82,62c5392d0f5bf6bc18c814c0,2022-07-06_24h27.08.313,Colour_Asymmetry_Pilot,2022.1.3,Win32,59.97001499,62c50e9c1127f2cd403a315f,0,64,64,66,1,twoone,,,,,,,,,,,,,,,,,,,,,,,,,,,,,,,,,,,,,,,,,,,,,,,,,,,,,,,,,,,,,,,,,,,,,,,,,,,,,,,,,,,,,,,,,,,,,,,,,,,,,,,,,,,,,,,,,,,,,,,,,,,,,,,,,,,,,,,,,,,,,,,,,,,,,,,,,,,,,
,,,,,,613aef3d9041bcd28952af82,62c5392d0f5bf6bc18c814c0,2022-07-06_24h27.08.313,Colour_Asymmetry_Pilot,2022.1.3,Win32,59.97001499,62c50e9c1127f2cd403a315f,0,65,65,71,1,fourthree,,,,,,,,,,,,,,,,,,,,,,,,,,,,,,,,,,,,,,,,,,,,,,,,,,,,,,,,,,,,,,,,,,,,,,,,,,,,,,,,,,,,,,,,,,,,,,,,,,,,,,,,,,,,,,,,,,,,,,,,,,,,,,,,,,,,,,,,,,,,,,,,,,,,,,,,,,,,,
,,,,,,613aef3d9041bcd28952af82,62c5392d0f5bf6bc18c814c0,2022-07-06_24h27.08.313,Colour_Asymmetry_Pilot,2022.1.3,Win32,59.97001499,62c50e9c1127f2cd403a315f,0,66,66,35,1,twofour,,,,,,,,,,,,,,,,,,,,,,,,,,,,,,,,,,,,,,,,,,,,,,,,,,,,,,,,,,,,,,,,,,,,,,,,,,,,,,,,,,,,,,,,,,,,,,,,,,,,,,,,,,,,,,,,,,,,,,,,,,,,,,,,,,,,,,,,,,,,,,,,,,,,,,,,,,,,,
,,,,,,613aef3d9041bcd28952af82,62c5392d0f5bf6bc18c814c0,2022-07-06_24h27.08.313,Colour_Asymmetry_Pilot,2022.1.3,Win32,59.97001499,62c50e9c1127f2cd403a315f,0,67,67,22,1,fourtwo,,,,,,,,,,,,,,,,,,,,,,,,,,,,,,,,,,,,,,,,,,,,,,,,,,,,,,,,,,,,,,,,,,,,,,,,,,,,,,,,,,,,,,,,,,,,,,,,,,,,,,,,,,,,,,,,,,,,,,,,,,,,,,,,,,,,,,,,,,,,,,,,,,,,,,,,,,,,,
,,,,,,613aef3d9041bcd28952af82,62c5392d0f5bf6bc18c814c0,2022-07-06_24h27.08.313,Colour_Asymmetry_Pilot,2022.1.3,Win32,59.97001499,62c50e9c1127f2cd403a315f,0,68,68,130,1,twoone,,,,,,,,,,,,,,,,,,,,,,,,,,,,,,,,,,,,,,,,,,,,,,,,,,,,,,,,,,,,,,,,,,,,,,,,,,,,,,,,,,,,,,,,,,,,,,,,,,,,,,,,,,,,,,,,,,,,,,,,,,,,,,,,,,,,,,,,,,,,,,,,,,,,,,,,,,,,,
,,,,,,613aef3d9041bcd28952af82,62c5392d0f5bf6bc18c814c0,2022-07-06_24h27.08.313,Colour_Asymmetry_Pilot,2022.1.3,Win32,59.97001499,62c50e9c1127f2cd403a315f,0,69,69,13,1,threefour,,,,,,,,,,,,,,,,,,,,,,,,,,,,,,,,,,,,,,,,,,,,,,,,,,,,,,,,,,,,,,,,,,,,,,,,,,,,,,,,,,,,,,,,,,,,,,,,,,,,,,,,,,,,,,,,,,,,,,,,,,,,,,,,,,,,,,,,,,,,,,,,,,,,,,,,,,,,,
,,,,,,613aef3d9041bcd28952af82,62c5392d0f5bf6bc18c814c0,2022-07-06_24h27.08.313,Colour_Asymmetry_Pilot,2022.1.3,Win32,59.97001499,62c50e9c1127f2cd403a315f,0,70,70,133,1,threefour,,,,,,,,,,,,,,,,,,,,,,,,,,,,,,,,,,,,,,,,,,,,,,,,,,,,,,,,,,,,,,,,,,,,,,,,,,,,,,,,,,,,,,,,,,,,,,,,,,,,,,,,,,,,,,,,,,,,,,,,,,,,,,,,,,,,,,,,,,,,,,,,,,,,,,,,,,,,,
,,,,,,613aef3d9041bcd28952af82,62c5392d0f5bf6bc18c814c0,2022-07-06_24h27.08.313,Colour_Asymmetry_Pilot,2022.1.3,Win32,59.97001499,62c50e9c1127f2cd403a315f,0,71,71,99,1,twofour,,,,,,,,,,,,,,,,,,,,,,,,,,,,,,,,,,,,,,,,,,,,,,,,,,,,,,,,,,,,,,,,,,,,,,,,,,,,,,,,,,,,,,,,,,,,,,,,,,,,,,,,,,,,,,,,,,,,,,,,,,,,,,,,,,,,,,,,,,,,,,,,,,,,,,,,,,,,,
,,,,,,613aef3d9041bcd28952af82,62c5392d0f5bf6bc18c814c0,2022-07-06_24h27.08.313,Colour_Asymmetry_Pilot,2022.1.3,Win32,59.97001499,62c50e9c1127f2cd403a315f,0,72,72,72,1,onetwo,,,,,,,,,,,,,,,,,,,,,,,,,,,,,,,,,,,,,,,,,,,,,,,,,,,,,,,,,,,,,,,,,,,,,,,,,,,,,,,,,,,,,,,,,,,,,,,,,,,,,,,,,,,,,,,,,,,,,,,,,,,,,,,,,,,,,,,,,,,,,,,,,,,,,,,,,,,,,
,,,,,,613aef3d9041bcd28952af82,62c5392d0f5bf6bc18c814c0,2022-07-06_24h27.08.313,Colour_Asymmetry_Pilot,2022.1.3,Win32,59.97001499,62c50e9c1127f2cd403a315f,0,73,73,108,1,threeone,,,,,,,,,,,,,,,,,,,,,,,,,,,,,,,,,,,,,,,,,,,,,,,,,,,,,,,,,,,,,,,,,,,,,,,,,,,,,,,,,,,,,,,,,,,,,,,,,,,,,,,,,,,,,,,,,,,,,,,,,,,,,,,,,,,,,,,,,,,,,,,,,,,,,,,,,,,,,
,,,,,,613aef3d9041bcd28952af82,62c5392d0f5bf6bc18c814c0,2022-07-06_24h27.08.313,Colour_Asymmetry_Pilot,2022.1.3,Win32,59.97001499,62c50e9c1127f2cd403a315f,0,74,74,94,1,fourtwo,,,,,,,,,,,,,,,,,,,,,,,,,,,,,,,,,,,,,,,,,,,,,,,,,,,,,,,,,,,,,,,,,,,,,,,,,,,,,,,,,,,,,,,,,,,,,,,,,,,,,,,,,,,,,,,,,,,,,,,,,,,,,,,,,,,,,,,,,,,,,,,,,,,,,,,,,,,,,
,,,,,,613aef3d9041bcd28952af82,62c5392d0f5bf6bc18c814c0,2022-07-06_24h27.08.313,Colour_Asymmetry_Pilot,2022.1.3,Win32,59.97001499,62c50e9c1127f2cd403a315f,0,75,75,132,1,threeone,,,,,,,,,,,,,,,,,,,,,,,,,,,,,,,,,,,,,,,,,,,,,,,,,,,,,,,,,,,,,,,,,,,,,,,,,,,,,,,,,,,,,,,,,,,,,,,,,,,,,,,,,,,,,,,,,,,,,,,,,,,,,,,,,,,,,,,,,,,,,,,,,,,,,,,,,,,,,
,,,,,,613aef3d9041bcd28952af82,62c5392d0f5bf6bc18c814c0,2022-07-06_24h27.08.313,Colour_Asymmetry_Pilot,2022.1.3,Win32,59.97001499,62c50e9c1127f2cd403a315f,0,76,76,64,1,onetwo,,,,,,,,,,,,,,,,,,,,,,,,,,,,,,,,,,,,,,,,,,,,,,,,,,,,,,,,,,,,,,,,,,,,,,,,,,,,,,,,,,,,,,,,,,,,,,,,,,,,,,,,,,,,,,,,,,,,,,,,,,,,,,,,,,,,,,,,,,,,,,,,,,,,,,,,,,,,,
,,,,,,613aef3d9041bcd28952af82,62c5392d0f5bf6bc18c814c0,2022-07-06_24h27.08.313,Colour_Asymmetry_Pilot,2022.1.3,Win32,59.97001499,62c50e9c1127f2cd403a315f,0,77,77,15,1,fourthree,,,,,,,,,,,,,,,,,,,,,,,,,,,,,,,,,,,,,,,,,,,,,,,,,,,,,,,,,,,,,,,,,,,,,,,,,,,,,,,,,,,,,,,,,,,,,,,,,,,,,,,,,,,,,,,,,,,,,,,,,,,,,,,,,,,,,,,,,,,,,,,,,,,,,,,,,,,,,
,,,,,,613aef3d9041bcd28952af82,62c5392d0f5bf6bc18c814c0,2022-07-06_24h27.08.313,Colour_Asymmetry_Pilot,2022.1.3,Win32,59.97001499,62c50e9c1127f2cd403a315f,0,78,78,161,1,onethree,,,,,,,,,,,,,,,,,,,,,,,,,,,,,,,,,,,,,,,,,,,,,,,,,,,,,,,,,,,,,,,,,,,,,,,,,,,,,,,,,,,,,,,,,,,,,,,,,,,,,,,,,,,,,,,,,,,,,,,,,,,,,,,,,,,,,,,,,,,,,,,,,,,,,,,,,,,,,
,,,,,,613aef3d9041bcd28952af82,62c5392d0f5bf6bc18c814c0,2022-07-06_24h27.08.313,Colour_Asymmetry_Pilot,2022.1.3,Win32,59.97001499,62c50e9c1127f2cd403a315f,0,79,79,49,1,onethree,,,,,,,,,,,,,,,,,,,,,,,,,,,,,,,,,,,,,,,,,,,,,,,,,,,,,,,,,,,,,,,,,,,,,,,,,,,,,,,,,,,,,,,,,,,,,,,,,,,,,,,,,,,,,,,,,,,,,,,,,,,,,,,,,,,,,,,,,,,,,,,,,,,,,,,,,,,,,
,,,,,,613aef3d9041bcd28952af82,62c5392d0f5bf6bc18c814c0,2022-07-06_24h27.08.313,Colour_Asymmetry_Pilot,2022.1.3,Win32,59.97001499,62c50e9c1127f2cd403a315f,0,80,80,10,1,twoone,,,,,,,,,,,,,,,,,,,,,,,,,,,,,,,,,,,,,,,,,,,,,,,,,,,,,,,,,,,,,,,,,,,,,,,,,,,,,,,,,,,,,,,,,,,,,,,,,,,,,,,,,,,,,,,,,,,,,,,,,,,,,,,,,,,,,,,,,,,,,,,,,,,,,,,,,,,,,
,,,,,,613aef3d9041bcd28952af82,62c5392d0f5bf6bc18c814c0,2022-07-06_24h27.08.313,Colour_Asymmetry_Pilot,2022.1.3,Win32,59.97001499,62c50e9c1127f2cd403a315f,0,81,81,148,1,threeone,,,,,,,,,,,,,,,,,,,,,,,,,,,,,,,,,,,,,,,,,,,,,,,,,,,,,,,,,,,,,,,,,,,,,,,,,,,,,,,,,,,,,,,,,,,,,,,,,,,,,,,,,,,,,,,,,,,,,,,,,,,,,,,,,,,,,,,,,,,,,,,,,,,,,,,,,,,,,
,,,,,,613aef3d9041bcd28952af82,62c5392d0f5bf6bc18c814c0,2022-07-06_24h27.08.313,Colour_Asymmetry_Pilot,2022.1.3,Win32,59.97001499,62c50e9c1127f2cd403a315f,0,82,82,143,1,fourthree,,,,,,,,,,,,,,,,,,,,,,,,,,,,,,,,,,,,,,,,,,,,,,,,,,,,,,,,,,,,,,,,,,,,,,,,,,,,,,,,,,,,,,,,,,,,,,,,,,,,,,,,,,,,,,,,,,,,,,,,,,,,,,,,,,,,,,,,,,,,,,,,,,,,,,,,,,,,,
,,,,,,613aef3d9041bcd28952af82,62c5392d0f5bf6bc18c814c0,2022-07-06_24h27.08.313,Colour_Asymmetry_Pilot,2022.1.3,Win32,59.97001499,62c50e9c1127f2cd403a315f,0,83,83,155,1,twofour,,,,,,,,,,,,,,,,,,,,,,,,,,,,,,,,,,,,,,,,,,,,,,,,,,,,,,,,,,,,,,,,,,,,,,,,,,,,,,,,,,,,,,,,,,,,,,,,,,,,,,,,,,,,,,,,,,,,,,,,,,,,,,,,,,,,,,,,,,,,,,,,,,,,,,,,,,,,,
,,,,,,613aef3d9041bcd28952af82,62c5392d0f5bf6bc18c814c0,2022-07-06_24h27.08.313,Colour_Asymmetry_Pilot,2022.1.3,Win32,59.97001499,62c50e9c1127f2cd403a315f,0,84,84,137,1,onethree,,,,,,,,,,,,,,,,,,,,,,,,,,,,,,,,,,,,,,,,,,,,,,,,,,,,,,,,,,,,,,,,,,,,,,,,,,,,,,,,,,,,,,,,,,,,,,,,,,,,,,,,,,,,,,,,,,,,,,,,,,,,,,,,,,,,,,,,,,,,,,,,,,,,,,,,,,,,,
,,,,,,613aef3d9041bcd28952af82,62c5392d0f5bf6bc18c814c0,2022-07-06_24h27.08.313,Colour_Asymmetry_Pilot,2022.1.3,Win32,59.97001499,62c50e9c1127f2cd403a315f,0,85,85,65,1,onethree,,,,,,,,,,,,,,,,,,,,,,,,,,,,,,,,,,,,,,,,,,,,,,,,,,,,,,,,,,,,,,,,,,,,,,,,,,,,,,,,,,,,,,,,,,,,,,,,,,,,,,,,,,,,,,,,,,,,,,,,,,,,,,,,,,,,,,,,,,,,,,,,,,,,,,,,,,,,,
,,,,,,613aef3d9041bcd28952af82,62c5392d0f5bf6bc18c814c0,2022-07-06_24h27.08.313,Colour_Asymmetry_Pilot,2022.1.3,Win32,59.97001499,62c50e9c1127f2cd403a315f,0,86,86,16,1,onetwo,,,,,,,,,,,,,,,,,,,,,,,,,,,,,,,,,,,,,,,,,,,,,,,,,,,,,,,,,,,,,,,,,,,,,,,,,,,,,,,,,,,,,,,,,,,,,,,,,,,,,,,,,,,,,,,,,,,,,,,,,,,,,,,,,,,,,,,,,,,,,,,,,,,,,,,,,,,,,
,,,,,,613aef3d9041bcd28952af82,62c5392d0f5bf6bc18c814c0,2022-07-06_24h27.08.313,Colour_Asymmetry_Pilot,2022.1.3,Win32,59.97001499,62c50e9c1127f2cd403a315f,0,87,87,86,1,fourtwo,,,,,,,,,,,,,,,,,,,,,,,,,,,,,,,,,,,,,,,,,,,,,,,,,,,,,,,,,,,,,,,,,,,,,,,,,,,,,,,,,,,,,,,,,,,,,,,,,,,,,,,,,,,,,,,,,,,,,,,,,,,,,,,,,,,,,,,,,,,,,,,,,,,,,,,,,,,,,
,,,,,,613aef3d9041bcd28952af82,62c5392d0f5bf6bc18c814c0,2022-07-06_24h27.08.313,Colour_Asymmetry_Pilot,2022.1.3,Win32,59.97001499,62c50e9c1127f2cd403a315f,0,88,88,24,1,onetwo,,,,,,,,,,,,,,,,,,,,,,,,,,,,,,,,,,,,,,,,,,,,,,,,,,,,,,,,,,,,,,,,,,,,,,,,,,,,,,,,,,,,,,,,,,,,,,,,,,,,,,,,,,,,,,,,,,,,,,,,,,,,,,,,,,,,,,,,,,,,,,,,,,,,,,,,,,,,,
,,,,,,613aef3d9041bcd28952af82,62c5392d0f5bf6bc18c814c0,2022-07-06_24h27.08.313,Colour_Asymmetry_Pilot,2022.1.3,Win32,59.97001499,62c50e9c1127f2cd403a315f,0,89,89,59,1,twofour,,,,,,,,,,,,,,,,,,,,,,,,,,,,,,,,,,,,,,,,,,,,,,,,,,,,,,,,,,,,,,,,,,,,,,,,,,,,,,,,,,,,,,,,,,,,,,,,,,,,,,,,,,,,,,,,,,,,,,,,,,,,,,,,,,,,,,,,,,,,,,,,,,,,,,,,,,,,,
,,,,,,613aef3d9041bcd28952af82,62c5392d0f5bf6bc18c814c0,2022-07-06_24h27.08.313,Colour_Asymmetry_Pilot,2022.1.3,Win32,59.97001499,62c50e9c1127f2cd403a315f,0,90,90,160,1,onetwo,,,,,,,,,,,,,,,,,,,,,,,,,,,,,,,,,,,,,,,,,,,,,,,,,,,,,,,,,,,,,,,,,,,,,,,,,,,,,,,,,,,,,,,,,,,,,,,,,,,,,,,,,,,,,,,,,,,,,,,,,,,,,,,,,,,,,,,,,,,,,,,,,,,,,,,,,,,,,
,,,,,,613aef3d9041bcd28952af82,62c5392d0f5bf6bc18c814c0,2022-07-06_24h27.08.313,Colour_Asymmetry_Pilot,2022.1.3,Win32,59.97001499,62c50e9c1127f2cd403a315f,0,91,91,0,1,onetwo,,,,,,,,,,,,,,,,,,,,,,,,,,,,,,,,,,,,,,,,,,,,,,,,,,,,,,,,,,,,,,,,,,,,,,,,,,,,,,,,,,,,,,,,,,,,,,,,,,,,,,,,,,,,,,,,,,,,,,,,,,,,,,,,,,,,,,,,,,,,,,,,,,,,,,,,,,,,,
,,,,,,613aef3d9041bcd28952af82,62c5392d0f5bf6bc18c814c0,2022-07-06_24h27.08.313,Colour_Asymmetry_Pilot,2022.1.3,Win32,59.97001499,62c50e9c1127f2cd403a315f,0,92,92,131,1,twofour,,,,,,,,,,,,,,,,,,,,,,,,,,,,,,,,,,,,,,,,,,,,,,,,,,,,,,,,,,,,,,,,,,,,,,,,,,,,,,,,,,,,,,,,,,,,,,,,,,,,,,,,,,,,,,,,,,,,,,,,,,,,,,,,,,,,,,,,,,,,,,,,,,,,,,,,,,,,,
,,,,,,613aef3d9041bcd28952af82,62c5392d0f5bf6bc18c814c0,2022-07-06_24h27.08.313,Colour_Asymmetry_Pilot,2022.1.3,Win32,59.97001499,62c50e9c1127f2cd403a315f,0,93,93,124,1,threeone,,,,,,,,,,,,,,,,,,,,,,,,,,,,,,,,,,,,,,,,,,,,,,,,,,,,,,,,,,,,,,,,,,,,,,,,,,,,,,,,,,,,,,,,,,,,,,,,,,,,,,,,,,,,,,,,,,,,,,,,,,,,,,,,,,,,,,,,,,,,,,,,,,,,,,,,,,,,,
,,,,,,613aef3d9041bcd28952af82,62c5392d0f5bf6bc18c814c0,2022-07-06_24h27.08.313,Colour_Asymmetry_Pilot,2022.1.3,Win32,59.97001499,62c50e9c1127f2cd403a315f,0,94,94,68,1,threeone,,,,,,,,,,,,,,,,,,,,,,,,,,,,,,,,,,,,,,,,,,,,,,,,,,,,,,,,,,,,,,,,,,,,,,,,,,,,,,,,,,,,,,,,,,,,,,,,,,,,,,,,,,,,,,,,,,,,,,,,,,,,,,,,,,,,,,,,,,,,,,,,,,,,,,,,,,,,,
,,,,,,613aef3d9041bcd28952af82,62c5392d0f5bf6bc18c814c0,2022-07-06_24h27.08.313,Colour_Asymmetry_Pilot,2022.1.3,Win32,59.97001499,62c50e9c1127f2cd403a315f,0,95,95,75,1,twofour,,,,,,,,,,,,,,,,,,,,,,,,,,,,,,,,,,,,,,,,,,,,,,,,,,,,,,,,,,,,,,,,,,,,,,,,,,,,,,,,,,,,,,,,,,,,,,,,,,,,,,,,,,,,,,,,,,,,,,,,,,,,,,,,,,,,,,,,,,,,,,,,,,,,,,,,,,,,,
,,,,,,613aef3d9041bcd28952af82,62c5392d0f5bf6bc18c814c0,2022-07-06_24h27.08.313,Colour_Asymmetry_Pilot,2022.1.3,Win32,59.97001499,62c50e9c1127f2cd403a315f,0,96,96,145,1,onethree,,,,,,,,,,,,,,,,,,,,,,,,,,,,,,,,,,,,,,,,,,,,,,,,,,,,,,,,,,,,,,,,,,,,,,,,,,,,,,,,,,,,,,,,,,,,,,,,,,,,,,,,,,,,,,,,,,,,,,,,,,,,,,,,,,,,,,,,,,,,,,,,,,,,,,,,,,,,,
,,,,,,613aef3d9041bcd28952af82,62c5392d0f5bf6bc18c814c0,2022-07-06_24h27.08.313,Colour_Asymmetry_Pilot,2022.1.3,Win32,59.97001499,62c50e9c1127f2cd403a315f,0,97,97,36,1,threeone,,,,,,,,,,,,,,,,,,,,,,,,,,,,,,,,,,,,,,,,,,,,,,,,,,,,,,,,,,,,,,,,,,,,,,,,,,,,,,,,,,,,,,,,,,,,,,,,,,,,,,,,,,,,,,,,,,,,,,,,,,,,,,,,,,,,,,,,,,,,,,,,,,,,,,,,,,,,,
,,,,,,613aef3d9041bcd28952af82,62c5392d0f5bf6bc18c814c0,2022-07-06_24h27.08.313,Colour_Asymmetry_Pilot,2022.1.3,Win32,59.97001499,62c50e9c1127f2cd403a315f,0,98,98,115,1,twofour,,,,,,,,,,,,,,,,,,,,,,,,,,,,,,,,,,,,,,,,,,,,,,,,,,,,,,,,,,,,,,,,,,,,,,,,,,,,,,,,,,,,,,,,,,,,,,,,,,,,,,,,,,,,,,,,,,,,,,,,,,,,,,,,,,,,,,,,,,,,,,,,,,,,,,,,,,,,,
,,,,,,613aef3d9041bcd28952af82,62c5392d0f5bf6bc18c814c0,2022-07-06_24h27.08.313,Colour_Asymmetry_Pilot,2022.1.3,Win32,59.97001499,62c50e9c1127f2cd403a315f,0,99,99,105,1,onethree,,,,,,,,,,,,,,,,,,,,,,,,,,,,,,,,,,,,,,,,,,,,,,,,,,,,,,,,,,,,,,,,,,,,,,,,,,,,,,,,,,,,,,,,,,,,,,,,,,,,,,,,,,,,,,,,,,,,,,,,,,,,,,,,,,,,,,,,,,,,,,,,,,,,,,,,,,,,,
,,,,,,613aef3d9041bcd28952af82,62c5392d0f5bf6bc18c814c0,2022-07-06_24h27.08.313,Colour_Asymmetry_Pilot,2022.1.3,Win32,59.97001499,62c50e9c1127f2cd403a315f,0,100,100,118,1,fourtwo,,,,,,,,,,,,,,,,,,,,,,,,,,,,,,,,,,,,,,,,,,,,,,,,,,,,,,,,,,,,,,,,,,,,,,,,,,,,,,,,,,,,,,,,,,,,,,,,,,,,,,,,,,,,,,,,,,,,,,,,,,,,,,,,,,,,,,,,,,,,,,,,,,,,,,,,,,,,,
,,,,,,613aef3d9041bcd28952af82,62c5392d0f5bf6bc18c814c0,2022-07-06_24h27.08.313,Colour_Asymmetry_Pilot,2022.1.3,Win32,59.97001499,62c50e9c1127f2cd403a315f,0,101,101,106,1,twoone,,,,,,,,,,,,,,,,,,,,,,,,,,,,,,,,,,,,,,,,,,,,,,,,,,,,,,,,,,,,,,,,,,,,,,,,,,,,,,,,,,,,,,,,,,,,,,,,,,,,,,,,,,,,,,,,,,,,,,,,,,,,,,,,,,,,,,,,,,,,,,,,,,,,,,,,,,,,,
,,,,,,613aef3d9041bcd28952af82,62c5392d0f5bf6bc18c814c0,2022-07-06_24h27.08.313,Colour_Asymmetry_Pilot,2022.1.3,Win32,59.97001499,62c50e9c1127f2cd403a315f,0,102,102,119,1,fourthree,,,,,,,,,,,,,,,,,,,,,,,,,,,,,,,,,,,,,,,,,,,,,,,,,,,,,,,,,,,,,,,,,,,,,,,,,,,,,,,,,,,,,,,,,,,,,,,,,,,,,,,,,,,,,,,,,,,,,,,,,,,,,,,,,,,,,,,,,,,,,,,,,,,,,,,,,,,,,
,,,,,,613aef3d9041bcd28952af82,62c5392d0f5bf6bc18c814c0,2022-07-06_24h27.08.313,Colour_Asymmetry_Pilot,2022.1.3,Win32,59.97001499,62c50e9c1127f2cd403a315f,0,103,103,80,1,onetwo,,,,,,,,,,,,,,,,,,,,,,,,,,,,,,,,,,,,,,,,,,,,,,,,,,,,,,,,,,,,,,,,,,,,,,,,,,,,,,,,,,,,,,,,,,,,,,,,,,,,,,,,,,,,,,,,,,,,,,,,,,,,,,,,,,,,,,,,,,,,,,,,,,,,,,,,,,,,,
,,,,,,613aef3d9041bcd28952af82,62c5392d0f5bf6bc18c814c0,2022-07-06_24h27.08.313,Colour_Asymmetry_Pilot,2022.1.3,Win32,59.97001499,62c50e9c1127f2cd403a315f,0,104,104,12,1,threeone,,,,,,,,,,,,,,,,,,,,,,,,,,,,,,,,,,,,,,,,,,,,,,,,,,,,,,,,,,,,,,,,,,,,,,,,,,,,,,,,,,,,,,,,,,,,,,,,,,,,,,,,,,,,,,,,,,,,,,,,,,,,,,,,,,,,,,,,,,,,,,,,,,,,,,,,,,,,,
,,,,,,613aef3d9041bcd28952af82,62c5392d0f5bf6bc18c814c0,2022-07-06_24h27.08.313,Colour_Asymmetry_Pilot,2022.1.3,Win32,59.97001499,62c50e9c1127f2cd403a315f,0,105,105,122,1,twoone,,,,,,,,,,,,,,,,,,,,,,,,,,,,,,,,,,,,,,,,,,,,,,,,,,,,,,,,,,,,,,,,,,,,,,,,,,,,,,,,,,,,,,,,,,,,,,,,,,,,,,,,,,,,,,,,,,,,,,,,,,,,,,,,,,,,,,,,,,,,,,,,,,,,,,,,,,,,,
,,,,,,613aef3d9041bcd28952af82,62c5392d0f5bf6bc18c814c0,2022-07-06_24h27.08.313,Colour_Asymmetry_Pilot,2022.1.3,Win32,59.97001499,62c50e9c1127f2cd403a315f,0,106,106,25,1,onethree,,,,,,,,,,,,,,,,,,,,,,,,,,,,,,,,,,,,,,,,,,,,,,,,,,,,,,,,,,,,,,,,,,,,,,,,,,,,,,,,,,,,,,,,,,,,,,,,,,,,,,,,,,,,,,,,,,,,,,,,,,,,,,,,,,,,,,,,,,,,,,,,,,,,,,,,,,,,,
,,,,,,613aef3d9041bcd28952af82,62c5392d0f5bf6bc18c814c0,2022-07-06_24h27.08.313,Colour_Asymmetry_Pilot,2022.1.3,Win32,59.97001499,62c50e9c1127f2cd403a315f,0,107,107,58,1,twoone,,,,,,,,,,,,,,,,,,,,,,,,,,,,,,,,,,,,,,,,,,,,,,,,,,,,,,,,,,,,,,,,,,,,,,,,,,,,,,,,,,,,,,,,,,,,,,,,,,,,,,,,,,,,,,,,,,,,,,,,,,,,,,,,,,,,,,,,,,,,,,,,,,,,,,,,,,,,,
,,,,,,613aef3d9041bcd28952af82,62c5392d0f5bf6bc18c814c0,2022-07-06_24h27.08.313,Colour_Asymmetry_Pilot,2022.1.3,Win32,59.97001499,62c50e9c1127f2cd403a315f,0,108,108,158,1,fourtwo,,,,,,,,,,,,,,,,,,,,,,,,,,,,,,,,,,,,,,,,,,,,,,,,,,,,,,,,,,,,,,,,,,,,,,,,,,,,,,,,,,,,,,,,,,,,,,,,,,,,,,,,,,,,,,,,,,,,,,,,,,,,,,,,,,,,,,,,,,,,,,,,,,,,,,,,,,,,,
,,,,,,613aef3d9041bcd28952af82,62c5392d0f5bf6bc18c814c0,2022-07-06_24h27.08.313,Colour_Asymmetry_Pilot,2022.1.3,Win32,59.97001499,62c50e9c1127f2cd403a315f,0,109,109,107,1,twofour,,,,,,,,,,,,,,,,,,,,,,,,,,,,,,,,,,,,,,,,,,,,,,,,,,,,,,,,,,,,,,,,,,,,,,,,,,,,,,,,,,,,,,,,,,,,,,,,,,,,,,,,,,,,,,,,,,,,,,,,,,,,,,,,,,,,,,,,,,,,,,,,,,,,,,,,,,,,,
,,,,,,613aef3d9041bcd28952af82,62c5392d0f5bf6bc18c814c0,2022-07-06_24h27.08.313,Colour_Asymmetry_Pilot,2022.1.3,Win32,59.97001499,62c50e9c1127f2cd403a315f,0,110,110,149,1,threefour,,,,,,,,,,,,,,,,,,,,,,,,,,,,,,,,,,,,,,,,,,,,,,,,,,,,,,,,,,,,,,,,,,,,,,,,,,,,,,,,,,,,,,,,,,,,,,,,,,,,,,,,,,,,,,,,,,,,,,,,,,,,,,,,,,,,,,,,,,,,,,,,,,,,,,,,,,,,,
,,,,,,613aef3d9041bcd28952af82,62c5392d0f5bf6bc18c814c0,2022-07-06_24h27.08.313,Colour_Asymmetry_Pilot,2022.1.3,Win32,59.97001499,62c50e9c1127f2cd403a315f,0,111,111,92,1,threeone,,,,,,,,,,,,,,,,,,,,,,,,,,,,,,,,,,,,,,,,,,,,,,,,,,,,,,,,,,,,,,,,,,,,,,,,,,,,,,,,,,,,,,,,,,,,,,,,,,,,,,,,,,,,,,,,,,,,,,,,,,,,,,,,,,,,,,,,,,,,,,,,,,,,,,,,,,,,,
,,,,,,613aef3d9041bcd28952af82,62c5392d0f5bf6bc18c814c0,2022-07-06_24h27.08.313,Colour_Asymmetry_Pilot,2022.1.3,Win32,59.97001499,62c50e9c1127f2cd403a315f,0,112,112,19,1,twofour,,,,,,,,,,,,,,,,,,,,,,,,,,,,,,,,,,,,,,,,,,,,,,,,,,,,,,,,,,,,,,,,,,,,,,,,,,,,,,,,,,,,,,,,,,,,,,,,,,,,,,,,,,,,,,,,,,,,,,,,,,,,,,,,,,,,,,,,,,,,,,,,,,,,,,,,,,,,,
,,,,,,613aef3d9041bcd28952af82,62c5392d0f5bf6bc18c814c0,2022-07-06_24h27.08.313,Colour_Asymmetry_Pilot,2022.1.3,Win32,59.97001499,62c50e9c1127f2cd403a315f,0,113,113,69,1,threefour,,,,,,,,,,,,,,,,,,,,,,,,,,,,,,,,,,,,,,,,,,,,,,,,,,,,,,,,,,,,,,,,,,,,,,,,,,,,,,,,,,,,,,,,,,,,,,,,,,,,,,,,,,,,,,,,,,,,,,,,,,,,,,,,,,,,,,,,,,,,,,,,,,,,,,,,,,,,,
,,,,,,613aef3d9041bcd28952af82,62c5392d0f5bf6bc18c814c0,2022-07-06_24h27.08.313,Colour_Asymmetry_Pilot,2022.1.3,Win32,59.97001499,62c50e9c1127f2cd403a315f,0,114,114,159,1,fourthree,,,,,,,,,,,,,,,,,,,,,,,,,,,,,,,,,,,,,,,,,,,,,,,,,,,,,,,,,,,,,,,,,,,,,,,,,,,,,,,,,,,,,,,,,,,,,,,,,,,,,,,,,,,,,,,,,,,,,,,,,,,,,,,,,,,,,,,,,,,,,,,,,,,,,,,,,,,,,
,,,,,,613aef3d9041bcd28952af82,62c5392d0f5bf6bc18c814c0,2022-07-06_24h27.08.313,Colour_Asymmetry_Pilot,2022.1.3,Win32,59.97001499,62c50e9c1127f2cd403a315f,0,115,115,90,1,twoone,,,,,,,,,,,,,,,,,,,,,,,,,,,,,,,,,,,,,,,,,,,,,,,,,,,,,,,,,,,,,,,,,,,,,,,,,,,,,,,,,,,,,,,,,,,,,,,,,,,,,,,,,,,,,,,,,,,,,,,,,,,,,,,,,,,,,,,,,,,,,,,,,,,,,,,,,,,,,
,,,,,,613aef3d9041bcd28952af82,62c5392d0f5bf6bc18c814c0,2022-07-06_24h27.08.313,Colour_Asymmetry_Pilot,2022.1.3,Win32,59.97001499,62c50e9c1127f2cd403a315f,0,116,116,33,1,onethree,,,,,,,,,,,,,,,,,,,,,,,,,,,,,,,,,,,,,,,,,,,,,,,,,,,,,,,,,,,,,,,,,,,,,,,,,,,,,,,,,,,,,,,,,,,,,,,,,,,,,,,,,,,,,,,,,,,,,,,,,,,,,,,,,,,,,,,,,,,,,,,,,,,,,,,,,,,,,
,,,,,,613aef3d9041bcd28952af82,62c5392d0f5bf6bc18c814c0,2022-07-06_24h27.08.313,Colour_Asymmetry_Pilot,2022.1.3,Win32,59.97001499,62c50e9c1127f2cd403a315f,0,117,117,98,1,twoone,,,,,,,,,,,,,,,,,,,,,,,,,,,,,,,,,,,,,,,,,,,,,,,,,,,,,,,,,,,,,,,,,,,,,,,,,,,,,,,,,,,,,,,,,,,,,,,,,,,,,,,,,,,,,,,,,,,,,,,,,,,,,,,,,,,,,,,,,,,,,,,,,,,,,,,,,,,,,
,,,,,,613aef3d9041bcd28952af82,62c5392d0f5bf6bc18c814c0,2022-07-06_24h27.08.313,Colour_Asymmetry_Pilot,2022.1.3,Win32,59.97001499,62c50e9c1127f2cd403a315f,0,118,118,29,1,threefour,,,,,,,,,,,,,,,,,,,,,,,,,,,,,,,,,,,,,,,,,,,,,,,,,,,,,,,,,,,,,,,,,,,,,,,,,,,,,,,,,,,,,,,,,,,,,,,,,,,,,,,,,,,,,,,,,,,,,,,,,,,,,,,,,,,,,,,,,,,,,,,,,,,,,,,,,,,,,
,,,,,,613aef3d9041bcd28952af82,62c5392d0f5bf6bc18c814c0,2022-07-06_24h27.08.313,Colour_Asymmetry_Pilot,2022.1.3,Win32,59.97001499,62c50e9c1127f2cd403a315f,0,119,119,61,1,threefour,,,,,,,,,,,,,,,,,,,,,,,,,,,,,,,,,,,,,,,,,,,,,,,,,,,,,,,,,,,,,,,,,,,,,,,,,,,,,,,,,,,,,,,,,,,,,,,,,,,,,,,,,,,,,,,,,,,,,,,,,,,,,,,,,,,,,,,,,,,,,,,,,,,,,,,,,,,,,
,,,,,,613aef3d9041bcd28952af82,62c5392d0f5bf6bc18c814c0,2022-07-06_24h27.08.313,Colour_Asymmetry_Pilot,2022.1.3,Win32,59.97001499,62c50e9c1127f2cd403a315f,0,120,120,91,1,twofour,,,,,,,,,,,,,,,,,,,,,,,,,,,,,,,,,,,,,,,,,,,,,,,,,,,,,,,,,,,,,,,,,,,,,,,,,,,,,,,,,,,,,,,,,,,,,,,,,,,,,,,,,,,,,,,,,,,,,,,,,,,,,,,,,,,,,,,,,,,,,,,,,,,,,,,,,,,,,
,,,,,,613aef3d9041bcd28952af82,62c5392d0f5bf6bc18c814c0,2022-07-06_24h27.08.313,Colour_Asymmetry_Pilot,2022.1.3,Win32,59.97001499,62c50e9c1127f2cd403a315f,0,121,121,111,1,fourthree,,,,,,,,,,,,,,,,,,,,,,,,,,,,,,,,,,,,,,,,,,,,,,,,,,,,,,,,,,,,,,,,,,,,,,,,,,,,,,,,,,,,,,,,,,,,,,,,,,,,,,,,,,,,,,,,,,,,,,,,,,,,,,,,,,,,,,,,,,,,,,,,,,,,,,,,,,,,,
,,,,,,613aef3d9041bcd28952af82,62c5392d0f5bf6bc18c814c0,2022-07-06_24h27.08.313,Colour_Asymmetry_Pilot,2022.1.3,Win32,59.97001499,62c50e9c1127f2cd403a315f,0,122,122,77,1,threefour,,,,,,,,,,,,,,,,,,,,,,,,,,,,,,,,,,,,,,,,,,,,,,,,,,,,,,,,,,,,,,,,,,,,,,,,,,,,,,,,,,,,,,,,,,,,,,,,,,,,,,,,,,,,,,,,,,,,,,,,,,,,,,,,,,,,,,,,,,,,,,,,,,,,,,,,,,,,,
,,,,,,613aef3d9041bcd28952af82,62c5392d0f5bf6bc18c814c0,2022-07-06_24h27.08.313,Colour_Asymmetry_Pilot,2022.1.3,Win32,59.97001499,62c50e9c1127f2cd403a315f,0,123,123,50,1,twoone,,,,,,,,,,,,,,,,,,,,,,,,,,,,,,,,,,,,,,,,,,,,,,,,,,,,,,,,,,,,,,,,,,,,,,,,,,,,,,,,,,,,,,,,,,,,,,,,,,,,,,,,,,,,,,,,,,,,,,,,,,,,,,,,,,,,,,,,,,,,,,,,,,,,,,,,,,,,,
,,,,,,613aef3d9041bcd28952af82,62c5392d0f5bf6bc18c814c0,2022-07-06_24h27.08.313,Colour_Asymmetry_Pilot,2022.1.3,Win32,59.97001499,62c50e9c1127f2cd403a315f,0,124,124,134,1,fourtwo,,,,,,,,,,,,,,,,,,,,,,,,,,,,,,,,,,,,,,,,,,,,,,,,,,,,,,,,,,,,,,,,,,,,,,,,,,,,,,,,,,,,,,,,,,,,,,,,,,,,,,,,,,,,,,,,,,,,,,,,,,,,,,,,,,,,,,,,,,,,,,,,,,,,,,,,,,,,,
,,,,,,613aef3d9041bcd28952af82,62c5392d0f5bf6bc18c814c0,2022-07-06_24h27.08.313,Colour_Asymmetry_Pilot,2022.1.3,Win32,59.97001499,62c50e9c1127f2cd403a315f,0,125,125,42,1,twoone,,,,,,,,,,,,,,,,,,,,,,,,,,,,,,,,,,,,,,,,,,,,,,,,,,,,,,,,,,,,,,,,,,,,,,,,,,,,,,,,,,,,,,,,,,,,,,,,,,,,,,,,,,,,,,,,,,,,,,,,,,,,,,,,,,,,,,,,,,,,,,,,,,,,,,,,,,,,,
,,,,,,613aef3d9041bcd28952af82,62c5392d0f5bf6bc18c814c0,2022-07-06_24h27.08.313,Colour_Asymmetry_Pilot,2022.1.3,Win32,59.97001499,62c50e9c1127f2cd403a315f,0,126,126,6,1,fourtwo,,,,,,,,,,,,,,,,,,,,,,,,,,,,,,,,,,,,,,,,,,,,,,,,,,,,,,,,,,,,,,,,,,,,,,,,,,,,,,,,,,,,,,,,,,,,,,,,,,,,,,,,,,,,,,,,,,,,,,,,,,,,,,,,,,,,,,,,,,,,,,,,,,,,,,,,,,,,,
,,,,,,613aef3d9041bcd28952af82,62c5392d0f5bf6bc18c814c0,2022-07-06_24h27.08.313,Colour_Asymmetry_Pilot,2022.1.3,Win32,59.97001499,62c50e9c1127f2cd403a315f,0,127,127,81,1,onethree,,,,,,,,,,,,,,,,,,,,,,,,,,,,,,,,,,,,,,,,,,,,,,,,,,,,,,,,,,,,,,,,,,,,,,,,,,,,,,,,,,,,,,,,,,,,,,,,,,,,,,,,,,,,,,,,,,,,,,,,,,,,,,,,,,,,,,,,,,,,,,,,,,,,,,,,,,,,,
,,,,,,613aef3d9041bcd28952af82,62c5392d0f5bf6bc18c814c0,2022-07-06_24h27.08.313,Colour_Asymmetry_Pilot,2022.1.3,Win32,59.97001499,62c50e9c1127f2cd403a315f,0,128,128,40,1,onetwo,,,,,,,,,,,,,,,,,,,,,,,,,,,,,,,,,,,,,,,,,,,,,,,,,,,,,,,,,,,,,,,,,,,,,,,,,,,,,,,,,,,,,,,,,,,,,,,,,,,,,,,,,,,,,,,,,,,,,,,,,,,,,,,,,,,,,,,,,,,,,,,,,,,,,,,,,,,,,
,,,,,,613aef3d9041bcd28952af82,62c5392d0f5bf6bc18c814c0,2022-07-06_24h27.08.313,Colour_Asymmetry_Pilot,2022.1.3,Win32,59.97001499,62c50e9c1127f2cd403a315f,0,129,129,73,1,onethree,,,,,,,,,,,,,,,,,,,,,,,,,,,,,,,,,,,,,,,,,,,,,,,,,,,,,,,,,,,,,,,,,,,,,,,,,,,,,,,,,,,,,,,,,,,,,,,,,,,,,,,,,,,,,,,,,,,,,,,,,,,,,,,,,,,,,,,,,,,,,,,,,,,,,,,,,,,,,
,,,,,,613aef3d9041bcd28952af82,62c5392d0f5bf6bc18c814c0,2022-07-06_24h27.08.313,Colour_Asymmetry_Pilot,2022.1.3,Win32,59.97001499,62c50e9c1127f2cd403a315f,0,130,130,37,1,threefour,,,,,,,,,,,,,,,,,,,,,,,,,,,,,,,,,,,,,,,,,,,,,,,,,,,,,,,,,,,,,,,,,,,,,,,,,,,,,,,,,,,,,,,,,,,,,,,,,,,,,,,,,,,,,,,,,,,,,,,,,,,,,,,,,,,,,,,,,,,,,,,,,,,,,,,,,,,,,
,,,,,,613aef3d9041bcd28952af82,62c5392d0f5bf6bc18c814c0,2022-07-06_24h27.08.313,Colour_Asymmetry_Pilot,2022.1.3,Win32,59.97001499,62c50e9c1127f2cd403a315f,0,131,131,79,1,fourthree,,,,,,,,,,,,,,,,,,,,,,,,,,,,,,,,,,,,,,,,,,,,,,,,,,,,,,,,,,,,,,,,,,,,,,,,,,,,,,,,,,,,,,,,,,,,,,,,,,,,,,,,,,,,,,,,,,,,,,,,,,,,,,,,,,,,,,,,,,,,,,,,,,,,,,,,,,,,,
,,,,,,613aef3d9041bcd28952af82,62c5392d0f5bf6bc18c814c0,2022-07-06_24h27.08.313,Colour_Asymmetry_Pilot,2022.1.3,Win32,59.97001499,62c50e9c1127f2cd403a315f,0,132,132,144,1,onetwo,,,,,,,,,,,,,,,,,,,,,,,,,,,,,,,,,,,,,,,,,,,,,,,,,,,,,,,,,,,,,,,,,,,,,,,,,,,,,,,,,,,,,,,,,,,,,,,,,,,,,,,,,,,,,,,,,,,,,,,,,,,,,,,,,,,,,,,,,,,,,,,,,,,,,,,,,,,,,
,,,,,,613aef3d9041bcd28952af82,62c5392d0f5bf6bc18c814c0,2022-07-06_24h27.08.313,Colour_Asymmetry_Pilot,2022.1.3,Win32,59.97001499,62c50e9c1127f2cd403a315f,0,133,133,46,1,fourtwo,,,,,,,,,,,,,,,,,,,,,,,,,,,,,,,,,,,,,,,,,,,,,,,,,,,,,,,,,,,,,,,,,,,,,,,,,,,,,,,,,,,,,,,,,,,,,,,,,,,,,,,,,,,,,,,,,,,,,,,,,,,,,,,,,,,,,,,,,,,,,,,,,,,,,,,,,,,,,
,,,,,,613aef3d9041bcd28952af82,62c5392d0f5bf6bc18c814c0,2022-07-06_24h27.08.313,Colour_Asymmetry_Pilot,2022.1.3,Win32,59.97001499,62c50e9c1127f2cd403a315f,0,134,134,83,1,twofour,,,,,,,,,,,,,,,,,,,,,,,,,,,,,,,,,,,,,,,,,,,,,,,,,,,,,,,,,,,,,,,,,,,,,,,,,,,,,,,,,,,,,,,,,,,,,,,,,,,,,,,,,,,,,,,,,,,,,,,,,,,,,,,,,,,,,,,,,,,,,,,,,,,,,,,,,,,,,
,,,,,,613aef3d9041bcd28952af82,62c5392d0f5bf6bc18c814c0,2022-07-06_24h27.08.313,Colour_Asymmetry_Pilot,2022.1.3,Win32,59.97001499,62c50e9c1127f2cd403a315f,0,135,135,53,1,threefour,,,,,,,,,,,,,,,,,,,,,,,,,,,,,,,,,,,,,,,,,,,,,,,,,,,,,,,,,,,,,,,,,,,,,,,,,,,,,,,,,,,,,,,,,,,,,,,,,,,,,,,,,,,,,,,,,,,,,,,,,,,,,,,,,,,,,,,,,,,,,,,,,,,,,,,,,,,,,
,,,,,,613aef3d9041bcd28952af82,62c5392d0f5bf6bc18c814c0,2022-07-06_24h27.08.313,Colour_Asymmetry_Pilot,2022.1.3,Win32,59.97001499,62c50e9c1127f2cd403a315f,0,136,136,117,1,threefour,,,,,,,,,,,,,,,,,,,,,,,,,,,,,,,,,,,,,,,,,,,,,,,,,,,,,,,,,,,,,,,,,,,,,,,,,,,,,,,,,,,,,,,,,,,,,,,,,,,,,,,,,,,,,,,,,,,,,,,,,,,,,,,,,,,,,,,,,,,,,,,,,,,,,,,,,,,,,
,,,,,,613aef3d9041bcd28952af82,62c5392d0f5bf6bc18c814c0,2022-07-06_24h27.08.313,Colour_Asymmetry_Pilot,2022.1.3,Win32,59.97001499,62c50e9c1127f2cd403a315f,0,137,137,135,1,fourthree,,,,,,,,,,,,,,,,,,,,,,,,,,,,,,,,,,,,,,,,,,,,,,,,,,,,,,,,,,,,,,,,,,,,,,,,,,,,,,,,,,,,,,,,,,,,,,,,,,,,,,,,,,,,,,,,,,,,,,,,,,,,,,,,,,,,,,,,,,,,,,,,,,,,,,,,,,,,,
,,,,,,613aef3d9041bcd28952af82,62c5392d0f5bf6bc18c814c0,2022-07-06_24h27.08.313,Colour_Asymmetry_Pilot,2022.1.3,Win32,59.97001499,62c50e9c1127f2cd403a315f,0,138,138,121,1,onethree,,,,,,,,,,,,,,,,,,,,,,,,,,,,,,,,,,,,,,,,,,,,,,,,,,,,,,,,,,,,,,,,,,,,,,,,,,,,,,,,,,,,,,,,,,,,,,,,,,,,,,,,,,,,,,,,,,,,,,,,,,,,,,,,,,,,,,,,,,,,,,,,,,,,,,,,,,,,,
,,,,,,613aef3d9041bcd28952af82,62c5392d0f5bf6bc18c814c0,2022-07-06_24h27.08.313,Colour_Asymmetry_Pilot,2022.1.3,Win32,59.97001499,62c50e9c1127f2cd403a315f,0,139,139,150,1,fourtwo,,,,,,,,,,,,,,,,,,,,,,,,,,,,,,,,,,,,,,,,,,,,,,,,,,,,,,,,,,,,,,,,,,,,,,,,,,,,,,,,,,,,,,,,,,,,,,,,,,,,,,,,,,,,,,,,,,,,,,,,,,,,,,,,,,,,,,,,,,,,,,,,,,,,,,,,,,,,,
,,,,,,613aef3d9041bcd28952af82,62c5392d0f5bf6bc18c814c0,2022-07-06_24h27.08.313,Colour_Asymmetry_Pilot,2022.1.3,Win32,59.97001499,62c50e9c1127f2cd403a315f,0,140,140,9,1,onethree,,,,,,,,,,,,,,,,,,,,,,,,,,,,,,,,,,,,,,,,,,,,,,,,,,,,,,,,,,,,,,,,,,,,,,,,,,,,,,,,,,,,,,,,,,,,,,,,,,,,,,,,,,,,,,,,,,,,,,,,,,,,,,,,,,,,,,,,,,,,,,,,,,,,,,,,,,,,,
,,,,,,613aef3d9041bcd28952af82,62c5392d0f5bf6bc18c814c0,2022-07-06_24h27.08.313,Colour_Asymmetry_Pilot,2022.1.3,Win32,59.97001499,62c50e9c1127f2cd403a315f,0,141,141,112,1,onetwo,,,,,,,,,,,,,,,,,,,,,,,,,,,,,,,,,,,,,,,,,,,,,,,,,,,,,,,,,,,,,,,,,,,,,,,,,,,,,,,,,,,,,,,,,,,,,,,,,,,,,,,,,,,,,,,,,,,,,,,,,,,,,,,,,,,,,,,,,,,,,,,,,,,,,,,,,,,,,
,,,,,,613aef3d9041bcd28952af82,62c5392d0f5bf6bc18c814c0,2022-07-06_24h27.08.313,Colour_Asymmetry_Pilot,2022.1.3,Win32,59.97001499,62c50e9c1127f2cd403a315f,0,142,142,48,1,onetwo,,,,,,,,,,,,,,,,,,,,,,,,,,,,,,,,,,,,,,,,,,,,,,,,,,,,,,,,,,,,,,,,,,,,,,,,,,,,,,,,,,,,,,,,,,,,,,,,,,,,,,,,,,,,,,,,,,,,,,,,,,,,,,,,,,,,,,,,,,,,,,,,,,,,,,,,,,,,,
,,,,,,613aef3d9041bcd28952af82,62c5392d0f5bf6bc18c814c0,2022-07-06_24h27.08.313,Colour_Asymmetry_Pilot,2022.1.3,Win32,59.97001499,62c50e9c1127f2cd403a315f,0,143,143,39,1,fourthree,,,,,,,,,,,,,,,,,,,,,,,,,,,,,,,,,,,,,,,,,,,,,,,,,,,,,,,,,,,,,,,,,,,,,,,,,,,,,,,,,,,,,,,,,,,,,,,,,,,,,,,,,,,,,,,,,,,,,,,,,,,,,,,,,,,,,,,,,,,,,,,,,,,,,,,,,,,,,
,,,,,,613aef3d9041bcd28952af82,62c5392d0f5bf6bc18c814c0,2022-07-06_24h27.08.313,Colour_Asymmetry_Pilot,2022.1.3,Win32,59.97001499,62c50e9c1127f2cd403a315f,0,144,144,156,1,threeone,,,,,,,,,,,,,,,,,,,,,,,,,,,,,,,,,,,,,,,,,,,,,,,,,,,,,,,,,,,,,,,,,,,,,,,,,,,,,,,,,,,,,,,,,,,,,,,,,,,,,,,,,,,,,,,,,,,,,,,,,,,,,,,,,,,,,,,,,,,,,,,,,,,,,,,,,,,,,
,,,,,,613aef3d9041bcd28952af82,62c5392d0f5bf6bc18c814c0,2022-07-06_24h27.08.313,Colour_Asymmetry_Pilot,2022.1.3,Win32,59.97001499,62c50e9c1127f2cd403a315f,0,145,145,3,1,twofour,,,,,,,,,,,,,,,,,,,,,,,,,,,,,,,,,,,,,,,,,,,,,,,,,,,,,,,,,,,,,,,,,,,,,,,,,,,,,,,,,,,,,,,,,,,,,,,,,,,,,,,,,,,,,,,,,,,,,,,,,,,,,,,,,,,,,,,,,,,,,,,,,,,,,,,,,,,,,
,,,,,,613aef3d9041bcd28952af82,62c5392d0f5bf6bc18c814c0,2022-07-06_24h27.08.313,Colour_Asymmetry_Pilot,2022.1.3,Win32,59.97001499,62c50e9c1127f2cd403a315f,0,146,146,51,1,twofour,,,,,,,,,,,,,,,,,,,,,,,,,,,,,,,,,,,,,,,,,,,,,,,,,,,,,,,,,,,,,,,,,,,,,,,,,,,,,,,,,,,,,,,,,,,,,,,,,,,,,,,,,,,,,,,,,,,,,,,,,,,,,,,,,,,,,,,,,,,,,,,,,,,,,,,,,,,,,
,,,,,,613aef3d9041bcd28952af82,62c5392d0f5bf6bc18c814c0,2022-07-06_24h27.08.313,Colour_Asymmetry_Pilot,2022.1.3,Win32,59.97001499,62c50e9c1127f2cd403a315f,0,147,147,103,1,fourthree,,,,,,,,,,,,,,,,,,,,,,,,,,,,,,,,,,,,,,,,,,,,,,,,,,,,,,,,,,,,,,,,,,,,,,,,,,,,,,,,,,,,,,,,,,,,,,,,,,,,,,,,,,,,,,,,,,,,,,,,,,,,,,,,,,,,,,,,,,,,,,,,,,,,,,,,,,,,,
,,,,,,613aef3d9041bcd28952af82,62c5392d0f5bf6bc18c814c0,2022-07-06_24h27.08.313,Colour_Asymmetry_Pilot,2022.1.3,Win32,59.97001499,62c50e9c1127f2cd403a315f,0,148,148,138,1,twoone,,,,,,,,,,,,,,,,,,,,,,,,,,,,,,,,,,,,,,,,,,,,,,,,,,,,,,,,,,,,,,,,,,,,,,,,,,,,,,,,,,,,,,,,,,,,,,,,,,,,,,,,,,,,,,,,,,,,,,,,,,,,,,,,,,,,,,,,,,,,,,,,,,,,,,,,,,,,,
,,,,,,613aef3d9041bcd28952af82,62c5392d0f5bf6bc18c814c0,2022-07-06_24h27.08.313,Colour_Asymmetry_Pilot,2022.1.3,Win32,59.97001499,62c50e9c1127f2cd403a315f,0,149,149,97,1,onethree,,,,,,,,,,,,,,,,,,,,,,,,,,,,,,,,,,,,,,,,,,,,,,,,,,,,,,,,,,,,,,,,,,,,,,,,,,,,,,,,,,,,,,,,,,,,,,,,,,,,,,,,,,,,,,,,,,,,,,,,,,,,,,,,,,,,,,,,,,,,,,,,,,,,,,,,,,,,,
,,,,,,613aef3d9041bcd28952af82,62c5392d0f5bf6bc18c814c0,2022-07-06_24h27.08.313,Colour_Asymmetry_Pilot,2022.1.3,Win32,59.97001499,62c50e9c1127f2cd403a315f,0,150,150,114,1,twoone,,,,,,,,,,,,,,,,,,,,,,,,,,,,,,,,,,,,,,,,,,,,,,,,,,,,,,,,,,,,,,,,,,,,,,,,,,,,,,,,,,,,,,,,,,,,,,,,,,,,,,,,,,,,,,,,,,,,,,,,,,,,,,,,,,,,,,,,,,,,,,,,,,,,,,,,,,,,,
,,,,,,613aef3d9041bcd28952af82,62c5392d0f5bf6bc18c814c0,2022-07-06_24h27.08.313,Colour_Asymmetry_Pilot,2022.1.3,Win32,59.97001499,62c50e9c1127f2cd403a315f,0,151,151,62,1,fourtwo,,,,,,,,,,,,,,,,,,,,,,,,,,,,,,,,,,,,,,,,,,,,,,,,,,,,,,,,,,,,,,,,,,,,,,,,,,,,,,,,,,,,,,,,,,,,,,,,,,,,,,,,,,,,,,,,,,,,,,,,,,,,,,,,,,,,,,,,,,,,,,,,,,,,,,,,,,,,,
,,,,,,613aef3d9041bcd28952af82,62c5392d0f5bf6bc18c814c0,2022-07-06_24h27.08.313,Colour_Asymmetry_Pilot,2022.1.3,Win32,59.97001499,62c50e9c1127f2cd403a315f,0,152,152,109,1,threefour,,,,,,,,,,,,,,,,,,,,,,,,,,,,,,,,,,,,,,,,,,,,,,,,,,,,,,,,,,,,,,,,,,,,,,,,,,,,,,,,,,,,,,,,,,,,,,,,,,,,,,,,,,,,,,,,,,,,,,,,,,,,,,,,,,,,,,,,,,,,,,,,,,,,,,,,,,,,,
,,,,,,613aef3d9041bcd28952af82,62c5392d0f5bf6bc18c814c0,2022-07-06_24h27.08.313,Colour_Asymmetry_Pilot,2022.1.3,Win32,59.97001499,62c50e9c1127f2cd403a315f,0,153,153,142,1,fourtwo,,,,,,,,,,,,,,,,,,,,,,,,,,,,,,,,,,,,,,,,,,,,,,,,,,,,,,,,,,,,,,,,,,,,,,,,,,,,,,,,,,,,,,,,,,,,,,,,,,,,,,,,,,,,,,,,,,,,,,,,,,,,,,,,,,,,,,,,,,,,,,,,,,,,,,,,,,,,,
,,,,,,613aef3d9041bcd28952af82,62c5392d0f5bf6bc18c814c0,2022-07-06_24h27.08.313,Colour_Asymmetry_Pilot,2022.1.3,Win32,59.97001499,62c50e9c1127f2cd403a315f,0,154,154,120,1,onetwo,,,,,,,,,,,,,,,,,,,,,,,,,,,,,,,,,,,,,,,,,,,,,,,,,,,,,,,,,,,,,,,,,,,,,,,,,,,,,,,,,,,,,,,,,,,,,,,,,,,,,,,,,,,,,,,,,,,,,,,,,,,,,,,,,,,,,,,,,,,,,,,,,,,,,,,,,,,,,
,,,,,,613aef3d9041bcd28952af82,62c5392d0f5bf6bc18c814c0,2022-07-06_24h27.08.313,Colour_Asymmetry_Pilot,2022.1.3,Win32,59.97001499,62c50e9c1127f2cd403a315f,0,155,155,128,1,onetwo,,,,,,,,,,,,,,,,,,,,,,,,,,,,,,,,,,,,,,,,,,,,,,,,,,,,,,,,,,,,,,,,,,,,,,,,,,,,,,,,,,,,,,,,,,,,,,,,,,,,,,,,,,,,,,,,,,,,,,,,,,,,,,,,,,,,,,,,,,,,,,,,,,,,,,,,,,,,,
,,,,,,613aef3d9041bcd28952af82,62c5392d0f5bf6bc18c814c0,2022-07-06_24h27.08.313,Colour_Asymmetry_Pilot,2022.1.3,Win32,59.97001499,62c50e9c1127f2cd403a315f,0,156,156,153,1,onethree,,,,,,,,,,,,,,,,,,,,,,,,,,,,,,,,,,,,,,,,,,,,,,,,,,,,,,,,,,,,,,,,,,,,,,,,,,,,,,,,,,,,,,,,,,,,,,,,,,,,,,,,,,,,,,,,,,,,,,,,,,,,,,,,,,,,,,,,,,,,,,,,,,,,,,,,,,,,,
,,,,,,613aef3d9041bcd28952af82,62c5392d0f5bf6bc18c814c0,2022-07-06_24h27.08.313,Colour_Asymmetry_Pilot,2022.1.3,Win32,59.97001499,62c50e9c1127f2cd403a315f,0,157,157,82,1,twoone,,,,,,,,,,,,,,,,,,,,,,,,,,,,,,,,,,,,,,,,,,,,,,,,,,,,,,,,,,,,,,,,,,,,,,,,,,,,,,,,,,,,,,,,,,,,,,,,,,,,,,,,,,,,,,,,,,,,,,,,,,,,,,,,,,,,,,,,,,,,,,,,,,,,,,,,,,,,,
,,,,,,613aef3d9041bcd28952af82,62c5392d0f5bf6bc18c814c0,2022-07-06_24h27.08.313,Colour_Asymmetry_Pilot,2022.1.3,Win32,59.97001499,62c50e9c1127f2cd403a315f,0,158,158,2,1,twoone,,,,,,,,,,,,,,,,,,,,,,,,,,,,,,,,,,,,,,,,,,,,,,,,,,,,,,,,,,,,,,,,,,,,,,,,,,,,,,,,,,,,,,,,,,,,,,,,,,,,,,,,,,,,,,,,,,,,,,,,,,,,,,,,,,,,,,,,,,,,,,,,,,,,,,,,,,,,,
,,,,,,613aef3d9041bcd28952af82,62c5392d0f5bf6bc18c814c0,2022-07-06_24h27.08.313,Colour_Asymmetry_Pilot,2022.1.3,Win32,59.97001499,62c50e9c1127f2cd403a315f,0,159,159,56,1,onetwo,,,,,,,,,,,,,,,,,,,,,,,,,,,,,,,,,,,,,,,,,,,,,,,,,,,,,,,,,,,,,,,,,,,,,,,,,,,,,,,,,,,,,,,,,,,,,,,,,,,,,,,,,,,,,,,,,,,,,,,,,,,,,,,,,,,,,,,,,,,,,,,,,,,,,,,,,,,,,
,,,,,,613aef3d9041bcd28952af82,62c5392d0f5bf6bc18c814c0,2022-07-06_24h27.08.313,Colour_Asymmetry_Pilot,2022.1.3,Win32,59.97001499,62c50e9c1127f2cd403a315f,0,160,160,85,1,threefour,,,,,,,,,,,,,,,,,,,,,,,,,,,,,,,,,,,,,,,,,,,,,,,,,,,,,,,,,,,,,,,,,,,,,,,,,,,,,,,,,,,,,,,,,,,,,,,,,,,,,,,,,,,,,,,,,,,,,,,,,,,,,,,,,,,,,,,,,,,,,,,,,,,,,,,,,,,,,
,,,,,,613aef3d9041bcd28952af82,62c5392d0f5bf6bc18c814c0,2022-07-06_24h27.08.313,Colour_Asymmetry_Pilot,2022.1.3,Win32,59.97001499,62c50e9c1127f2cd403a315f,0,161,161,31,1,fourthree,,,,,,,,,,,,,,,,,,,,,,,,,,,,,,,,,,,,,,,,,,,,,,,,,,,,,,,,,,,,,,,,,,,,,,,,,,,,,,,,,,,,,,,,,,,,,,,,,,,,,,,,,,,,,,,,,,,,,,,,,,,,,,,,,,,,,,,,,,,,,,,,,,,,,,,,,,,,,
,,,,,,613aef3d9041bcd28952af82,62c5392d0f5bf6bc18c814c0,2022-07-06_24h27.08.313,Colour_Asymmetry_Pilot,2022.1.3,Win32,59.97001499,62c50e9c1127f2cd403a315f,,,,,,,space,21.5275,space,20.0647,space,37.9552,space,21.2968,space,7.2327,space,16.7593,"[0.11359999999999992,0.6312,0.5213999999999999]",twoone,"[-0.06680000000000008,-0.45100000000000007,-0.906]",4,20.2701,75.20001221,98.3999939,1,0,0,response1disk_5,-1.599975586,-6.399993896,1,0,0,rectangle_8,-1.599975586,-6.399993896,1,0,0,1,-1.599975586,-6.399993896,1,0,0,0,0,0,0,1,,,,,,,,,,,,,,,,,,,,,,,,,,,,,,,,,,,,,,,,,,,,,,,,,,,,,,,,,,,,,,,,,,,,,,,,,,,,,,,,,,,,,,,,,,,,,,,,,,,,,,,,,,,,,,,,
,,,,,,613aef3d9041bcd28952af82,62c5392d0f5bf6bc18c814c0,2022-07-06_24h27.08.313,Colour_Asymmetry_Pilot,2022.1.3,Win32,59.97001499,62c50e9c1127f2cd403a315f,,,,,,,,,,,,,,,,,,,"[-0.9138,-0.5296000000000001,-0.5529999999999999]",fourthree,"[-0.9688,-0.38039999999999996,-0.41979999999999995]",4,5.0331,47.20001221,97.6000061,1,0,0,response1disk_5,-8,0.799987793,1,0,0,rectangle_8,-8,0.799987793,1,0,0,1,-8,0.799987793,1,0,0,1,0,1,0,1,,,,,,,,,,,,,,,,,,,,,,,,,,,,,,,,,,,,,,,,,,,,,,,,,,,,,,,,,,,,,,,,,,,,,,,,,,,,,,,,,,,,,,,,,,,,,,,,,,,,,,,,,,,,,,,,
,,,,,,613aef3d9041bcd28952af82,62c5392d0f5bf6bc18c814c0,2022-07-06_24h27.08.313,Colour_Asymmetry_Pilot,2022.1.3,Win32,59.97001499,62c50e9c1127f2cd403a315f,,,,,,,,,,,,,,,,,,,"[-0.9688,-0.38039999999999996,-0.41979999999999995]",onetwo,"[0.7802,-0.23140000000000005,-0.20799999999999996]",-4,14.2808,-36.79998779,109.6000061,1,0,0,response7disk_5,-6.399963379,-5.600006104,1,0,0,rectangle_8,-6.399963379,-5.600006104,1,0,0,1,-6.399963379,-5.600006104,1,0,0,2,0,2,0,1,,,,,,,,,,,,,,,,,,,,,,,,,,,,,,,,,,,,,,,,,,,,,,,,,,,,,,,,,,,,,,,,,,,,,,,,,,,,,,,,,,,,,,,,,,,,,,,,,,,,,,,,,,,,,,,,
,,,,,,613aef3d9041bcd28952af82,62c5392d0f5bf6bc18c814c0,2022-07-06_24h27.08.313,Colour_Asymmetry_Pilot,2022.1.3,Win32,59.97001499,62c50e9c1127f2cd403a315f,,,,,,,,,,,,,,,,,,,"[0.9686000000000001,0.5763999999999998,0.11359999999999992]",onetwo,"[0.9372,0.9450000000000001,0.8980000000000001]",2,9.4811,108.7999878,-31.20001221,1,0,0,response3disk_5,-4,-8.800018311,1,0,0,rectangle_8,40.79998779,-104,1,0,0,1,-7.200012207,4,1,0,0,3,0,3,0,1,response3disk_7,4,rectangle_4,,,,,,,,,,,,,,,,,,,,,,,,,,,,,,,,,,,,,,,,,,,,,,,,,,,,,,,,,,,,,,,,,,,,,,,,,,,,,,,,,,,,,,,,,,,,,,,,,,,,,,,,,,,,,
,,,,,,613aef3d9041bcd28952af82,62c5392d0f5bf6bc18c814c0,2022-07-06_24h27.08.313,Colour_Asymmetry_Pilot,2022.1.3,Win32,59.97001499,62c50e9c1127f2cd403a315f,,,,,,,,,,,,,,,,,,,"[-0.34920000000000007,-0.702,-0.5216]",fourthree,"[0.0351999999999999,0.41159999999999997,0.0038000000000000256]",-4,3.1159,-44,96,1,0,0,response7disk_5,2.400024414,-0.800018311,1,0,0,rectangle_8,2.400024414,-0.800018311,1,0,0,1,2.400024414,-0.800018311,1,0,0,4,0,4,0,1,,,,,,,,,,,,,,,,,,,,,,,,,,,,,,,,,,,,,,,,,,,,,,,,,,,,,,,,,,,,,,,,,,,,,,,,,,,,,,,,,,,,,,,,,,,,,,,,,,,,,,,,,,,,,,,,
,,,,,,613aef3d9041bcd28952af82,62c5392d0f5bf6bc18c814c0,2022-07-06_24h27.08.313,Colour_Asymmetry_Pilot,2022.1.3,Win32,59.97001499,62c50e9c1127f2cd403a315f,,,,,,,,,,,,,,,,,,,"[-0.17659999999999998,0.3253999999999999,0.19999999999999996]",onethree,"[0.34099999999999997,0.12939999999999996,-0.9766]",-3,7.1654,-95.20001221,41.6000061,1,0,0,response7disk_5,-4.799987793,5.600006104,1,0,0,rectangle_8,-4.799987793,5.600006104,1,0,0,1,-4.799987793,5.600006104,1,0,0,5,0,5,0,1,,,,,,,,,,,,,,,,,,,,,,,,,,,,,,,,,,,,,,,,,,,,,,,,,,,,,,,,,,,,,,,,,,,,,,,,,,,,,,,,,,,,,,,,,,,,,,,,,,,,,,,,,,,,,,,,
,,,,,,613aef3d9041bcd28952af82,62c5392d0f5bf6bc18c814c0,2022-07-06_24h27.08.313,Colour_Asymmetry_Pilot,2022.1.3,Win32,59.97001499,62c50e9c1127f2cd403a315f,,,,,,,,,,,,,,,,,,,"[-0.48240000000000005,0.3175999999999999,0.2156]",fourtwo,"[0.2784,-0.31000000000000005,-0.5452]",-3,7.7314,-97.59997559,51.19998169,1,0,0,response7disk_5,10.40002441,4,1,0,0,rectangle_8,10.40002441,4,1,0,0,1,10.40002441,4,1,0,0,6,0,6,0,1,,,,,,,,,,,,,,,,,,,,,,,,,,,,,,,,,,,,,,,,,,,,,,,,,,,,,,,,,,,,,,,,,,,,,,,,,,,,,,,,,,,,,,,,,,,,,,,,,,,,,,,,,,,,,,,,
,,,,,,613aef3d9041bcd28952af82,62c5392d0f5bf6bc18c814c0,2022-07-06_24h27.08.313,Colour_Asymmetry_Pilot,2022.1.3,Win32,59.97001499,62c50e9c1127f2cd403a315f,,,,,,,,,,,,,,,,,,,,threefour,,3,3.4161,,,,,,,,,,,,,,,,,,,,,,,,,,,,,,,,space,5.3559,"[-0.2942,-0.7648,-0.7492000000000001]","[-0.5452,-0.608,0.2470000000000001]",103.2000122,52.79998779,1,0,0,response1disk,-7.200012207,4.799987793,1,0,0,rectangle,-7.200012207,4.799987793,1,0,0,,2,0.0056,0,-7.200012207,4.799987793,1,0,0,0,0,0,80,1,80,first,,,,,,,,,,,,,,,,,,,,,,,,,,,,,,,,,,,,,,,,,,,,,,,,,,,,,,,,,,,,,,,,,,,,,,,,
,,,,,,613aef3d9041bcd28952af82,62c5392d0f5bf6bc18c814c0,2022-07-06_24h27.08.313,Colour_Asymmetry_Pilot,2022.1.3,Win32,59.97001499,62c50e9c1127f2cd403a315f,,,,,,,,,,,,,,,,,,,,threeone,,-4,3.8164,,,,,,,,,,,,,,,,,,,,,,,,,,,,,,,,,,"[-0.6,0.16860000000000008,0.44300000000000006]","[0.9213999999999998,0.6391999999999998,-0.9922]",-40,99.19998169,1,0,0,response7disk,-7.200012207,-4.800018311,1,0,0,rectangle,-7.200012207,-4.800018311,1,0,0,,3,0.0015,0,-7.200012207,-4.800018311,1,0,0,0,1,1,4,1,4,first,,,,,,,,,,,,,,,,,,,,,,,,,,,,,,,,,,,,,,,,,,,,,,,,,,,,,,,,,,,,,,,,,,,,,,,,
,,,,,,613aef3d9041bcd28952af82,62c5392d0f5bf6bc18c814c0,2022-07-06_24h27.08.313,Colour_Asymmetry_Pilot,2022.1.3,Win32,59.97001499,62c50e9c1127f2cd403a315f,,,,,,,,,,,,,,,,,,,,threefour,,-1,4.7317,,,,,,,,,,,,,,,,,,,,,,,,,,,,,,,,,,"[0.09799999999999986,-0.24719999999999998,0.15280000000000005]","[-0.9296,-0.12959999999999994,-0.043199999999999905]",-40,-88.79998779,1,0,0,response5disk,-7.200012207,-1.600006104,1,0,0,rectangle,-7.200012207,-1.600006104,1,0,0,,1,0.0015,0,-7.200012207,-1.600006104,1,0,0,0,2,2,130,1,49,second,,,,,,,,,,,,,,,,,,,,,,,,,,,,,,,,,,,,,,,,,,,,,,,,,,,,,,,,,,,,,,,,,,,,,,,,
,,,,,,613aef3d9041bcd28952af82,62c5392d0f5bf6bc18c814c0,2022-07-06_24h27.08.313,Colour_Asymmetry_Pilot,2022.1.3,Win32,59.97001499,62c50e9c1127f2cd403a315f,,,,,,,,,,,,,,,,,,,,twoone,,-3,4.4658,,,,,,,,,,,,,,,,,,,,,,,,,,,,,,,,,,"[-0.20799999999999996,-0.655,-0.01980000000000004]","[0.37240000000000006,-0.050999999999999934,-0.5216]",-91.20001221,34.3999939,1,0,0,response7disk,-4,-2.399993896,1,0,0,rectangle,-4,-2.399993896,1,0,0,,1,0.0002,0,-4,-2.399993896,1,0,0,0,3,3,61,1,61,first,,,,,,,,,,,,,,,,,,,,,,,,,,,,,,,,,,,,,,,,,,,,,,,,,,,,,,,,,,,,,,,,,,,,,,,,
,,,,,,613aef3d9041bcd28952af82,62c5392d0f5bf6bc18c814c0,2022-07-06_24h27.08.313,Colour_Asymmetry_Pilot,2022.1.3,Win32,59.97001499,62c50e9c1127f2cd403a315f,,,,,,,,,,,,,,,,,,,,twofour,,-4,2.6329,,,,,,,,,,,,,,,,,,,,,,,,,,,,,,,,,,"[-0.5688,-0.08239999999999992,-0.1844]","[0.9842,0.7409999999999999,-0.6628000000000001]",-39.20001221,109.6000061,1,0,0,response7disk,-9.599975586,4.799987793,1,0,0,rectangle,-9.599975586,4.799987793,1,0,0,,2,0.0015,0,-9.599975586,4.799987793,1,0,0,0,4,4,53,1,53,first,,,,,,,,,,,,,,,,,,,,,,,,,,,,,,,,,,,,,,,,,,,,,,,,,,,,,,,,,,,,,,,,,,,,,,,,
,,,,,,613aef3d9041bcd28952af82,62c5392d0f5bf6bc18c814c0,2022-07-06_24h27.08.313,Colour_Asymmetry_Pilot,2022.1.3,Win32,59.97001499,62c50e9c1127f2cd403a315f,,,,,,,,,,,,,,,,,,,,fourthree,,-4,1.2328,,,,,,,,,,,,,,,,,,,,,,,,,,,,,,,,,,"[0.9686000000000001,0.5763999999999998,0.11359999999999992]","[-0.8118,-0.8198,-0.5452]",-49.59997559,108,1,0,0,response7disk,-9.599975586,4.799987793,1,0,0,rectangle,-9.599975586,4.799987793,1,0,0,,2,0.0002,0,-9.599975586,4.799987793,1,0,0,0,5,5,101,1,20,second,,,,,,,,,,,,,,,,,,,,,,,,,,,,,,,,,,,,,,,,,,,,,,,,,,,,,,,,,,,,,,,,,,,,,,,,
,,,,,,613aef3d9041bcd28952af82,62c5392d0f5bf6bc18c814c0,2022-07-06_24h27.08.313,Colour_Asymmetry_Pilot,2022.1.3,Win32,59.97001499,62c50e9c1127f2cd403a315f,,,,,,,,,,,,,,,,,,,,fourthree,,1,2.9991,,,,,,,,,,,,,,,,,,,,,,,,,,,,,,,,,,"[0.37240000000000006,-0.050999999999999934,-0.5216]","[-0.10599999999999998,-0.10599999999999998,0.5841999999999998]",42.40002441,-97.60003662,1,0,0,response3disk,-2.399963379,1.600006104,1,0,0,rectangle,-2.399963379,1.600006104,1,0,0,,1,0.0017,0,-2.399963379,1.600006104,1,0,0,0,6,6,96,1,15,second,,,,,,,,,,,,,,,,,,,,,,,,,,,,,,,,,,,,,,,,,,,,,,,,,,,,,,,,,,,,,,,,,,,,,,,,
,,,,,,613aef3d9041bcd28952af82,62c5392d0f5bf6bc18c814c0,2022-07-06_24h27.08.313,Colour_Asymmetry_Pilot,2022.1.3,Win32,59.97001499,62c50e9c1127f2cd403a315f,,,,,,,,,,,,,,,,,,,,threefour,,4,5.9656,,,,,,,,,,,,,,,,,,,,,,,,,,,,,,,,,,"[-0.8982,-0.37259999999999993,0.2784]","[-0.9688,-0.7412000000000001,-0.4902000000000001]",62.40002441,92.79998779,1,0,0,response1disk,-3.200012207,4.799987793,1,0,0,rectangle,-3.200012207,4.799987793,1,0,0,,2,0.0015,0,-3.200012207,4.799987793,1,0,0,0,7,7,42,1,42,first,,,,,,,,,,,,,,,,,,,,,,,,,,,,,,,,,,,,,,,,,,,,,,,,,,,,,,,,,,,,,,,,,,,,,,,,
,,,,,,613aef3d9041bcd28952af82,62c5392d0f5bf6bc18c814c0,2022-07-06_24h27.08.313,Colour_Asymmetry_Pilot,2022.1.3,Win32,59.97001499,62c50e9c1127f2cd403a315f,,,,,,,,,,,,,,,,,,,,twofour,,1,3.816,,,,,,,,,,,,,,,,,,,,,,,,,,,,,,,,,,"[0.9842,0.7409999999999999,-0.6628000000000001]","[0.9372,0.9450000000000001,0.8980000000000001]",43.20001221,-94.40002441,1,0,0,response3disk,-8,11.19998169,1,0,0,rectangle,-8,11.19998169,1,0,0,,2,0.0002,0,-8,11.19998169,1,0,0,0,8,8,12,1,12,first,,,,,,,,,,,,,,,,,,,,,,,,,,,,,,,,,,,,,,,,,,,,,,,,,,,,,,,,,,,,,,,,,,,,,,,,
,,,,,,613aef3d9041bcd28952af82,62c5392d0f5bf6bc18c814c0,2022-07-06_24h27.08.313,Colour_Asymmetry_Pilot,2022.1.3,Win32,59.97001499,62c50e9c1127f2cd403a315f,,,,,,,,,,,,,,,,,,,,threeone,,1,3.5996,,,,,,,,,,,,,,,,,,,,,,,,,,,,,,,,,,"[-0.24719999999999998,-0.0354000000000001,0.3175999999999999]","[-0.5452,-0.608,0.2470000000000001]",33.60003662,-112.7999878,1,0,0,response3disk,-1.599975586,-5.600006104,1,0,0,rectangle,-1.599975586,-5.600006104,1,0,0,,1,0.0005,0,-1.599975586,-5.600006104,1,0,0,0,9,9,94,1,13,second,,,,,,,,,,,,,,,,,,,,,,,,,,,,,,,,,,,,,,,,,,,,,,,,,,,,,,,,,,,,,,,,,,,,,,,,
,,,,,,613aef3d9041bcd28952af82,62c5392d0f5bf6bc18c814c0,2022-07-06_24h27.08.313,Colour_Asymmetry_Pilot,2022.1.3,Win32,59.97001499,62c50e9c1127f2cd403a315f,,,,,,,,,,,,,,,,,,,,fourtwo,,1,7.5483,,,,,,,,,,,,,,,,,,,,,,,,,,,,,,,,,,"[-0.30200000000000005,0.14500000000000002,0.2784]","[-0.4276,0.0038000000000000256,-0.3256]",48,-86.40002441,1,0,0,response3disk,6.400024414,-8.800018311,1,0,0,rectangle,6.400024414,-8.800018311,1,0,0,,3,0.0012,0,6.400024414,-8.800018311,1,0,0,0,10,10,120,1,39,second,,,,,,,,,,,,,,,,,,,,,,,,,,,,,,,,,,,,,,,,,,,,,,,,,,,,,,,,,,,,,,,,,,,,,,,,
,,,,,,613aef3d9041bcd28952af82,62c5392d0f5bf6bc18c814c0,2022-07-06_24h27.08.313,Colour_Asymmetry_Pilot,2022.1.3,Win32,59.97001499,62c50e9c1127f2cd403a315f,,,,,,,,,,,,,,,,,,,,fourtwo,,-1,3.3486,,,,,,,,,,,,,,,,,,,,,,,,,,,,,,,,,,"[-0.9766,-0.6472,0.07440000000000002]","[0.18419999999999992,-0.4276,-0.404]",-26.39996338,-71.20001221,1,0,0,response5disk,-2.399963379,-0.800018311,1,0,0,rectangle,-2.399963379,-0.800018311,1,0,0,,2,0.0006,0,-2.399963379,-0.800018311,1,0,0,0,11,11,126,1,45,second,,,,,,,,,,,,,,,,,,,,,,,,,,,,,,,,,,,,,,,,,,,,,,,,,,,,,,,,,,,,,,,,,,,,,,,,
,,,,,,613aef3d9041bcd28952af82,62c5392d0f5bf6bc18c814c0,2022-07-06_24h27.08.313,Colour_Asymmetry_Pilot,2022.1.3,Win32,59.97001499,62c50e9c1127f2cd403a315f,,,,,,,,,,,,,,,,,,,,threeone,,-2,4.4163,,,,,,,,,,,,,,,,,,,,,,,,,,,,,,,,,,"[-0.9296,-0.12959999999999994,-0.043199999999999905]","[0.09799999999999986,-0.24719999999999998,0.15280000000000005]",-98.39996338,-36,1,0,0,response5disk,-4,0.799987793,1,0,0,rectangle,-4,0.799987793,1,0,0,,2,0.0003,0,-4,0.799987793,1,0,0,0,12,12,49,1,49,first,,,,,,,,,,,,,,,,,,,,,,,,,,,,,,,,,,,,,,,,,,,,,,,,,,,,,,,,,,,,,,,,,,,,,,,,
,,,,,,613aef3d9041bcd28952af82,62c5392d0f5bf6bc18c814c0,2022-07-06_24h27.08.313,Colour_Asymmetry_Pilot,2022.1.3,Win32,59.97001499,62c50e9c1127f2cd403a315f,,,,,,,,,,,,,,,,,,,,fourthree,,-3,2.9659,,,,,,,,,,,,,,,,,,,,,,,,,,,,,,,,,,"[0.5528,0.7409999999999999,-0.71]","[0.2784,-0.31000000000000005,-0.5452]",-73.59997559,56,1,0,0,response7disk,6.400024414,-0.800018311,1,0,0,rectangle,6.400024414,-0.800018311,1,0,0,,2,0.0006,0,6.400024414,-0.800018311,1,0,0,0,13,13,32,1,32,first,,,,,,,,,,,,,,,,,,,,,,,,,,,,,,,,,,,,,,,,,,,,,,,,,,,,,,,,,,,,,,,,,,,,,,,,
,,,,,,613aef3d9041bcd28952af82,62c5392d0f5bf6bc18c814c0,2022-07-06_24h27.08.313,Colour_Asymmetry_Pilot,2022.1.3,Win32,59.97001499,62c50e9c1127f2cd403a315f,,,,,,,,,,,,,,,,,,,,threeone,,-4,0.6999,,,,,,,,,,,,,,,,,,,,,,,,,,,,,,,,,,"[0.796,0.2156,-0.27859999999999996]","[-0.9766,-0.6472,0.07440000000000002]",-46.39996338,102.3999939,1,0,0,response7disk,-9.599975586,0.799987793,1,0,0,rectangle,-9.599975586,0.799987793,1,0,0,,3,0.0017,0,-9.599975586,0.799987793,1,0,0,0,14,14,155,1,74,second,,,,,,,,,,,,,,,,,,,,,,,,,,,,,,,,,,,,,,,,,,,,,,,,,,,,,,,,,,,,,,,,,,,,,,,,
