trials.thisRepN,trials.thisTrialN,trials.thisN,trials.thisIndex,trials.ran,Colourcodes,participant,session,date,expName,psychopyVersion,OS,frameRate,study_id,trials_4.thisRepN,trials_4.thisTrialN,trials_4.thisN,trials_4.thisIndex,trials_4.ran,StimulusPos,key_resp.keys,key_resp.rt,key_resp_2.keys,key_resp_2.rt,key_resp_15.keys,key_resp_15.rt,key_resp_17.keys,key_resp_17.rt,key_resp_9.keys,key_resp_9.rt,key_resp_10.keys,key_resp_10.rt,Circle1_col,Ecc,Circle2_col,similarity,response_time,mouse_5.x,mouse_5.y,mouse_5.leftButton,mouse_5.midButton,mouse_5.rightButton,mouse_5.clicked_name,mouse_10.x,mouse_10.y,mouse_10.leftButton,mouse_10.midButton,mouse_10.rightButton,mouse_10.clicked_name,mouse_7.x,mouse_7.y,mouse_7.leftButton,mouse_7.midButton,mouse_7.rightButton,catchnumberprac,mouse_6.x,mouse_6.y,mouse_6.leftButton,mouse_6.midButton,mouse_6.rightButton,duringprac.thisRepN,duringprac.thisTrialN,duringprac.thisN,duringprac.thisIndex,duringprac.ran,mouse_7.clicked_name,catchprac,mouse_6.clicked_name,key_resp_22.keys,key_resp_22.rt,Circle1_colour,Circle2_colour,mouse.x,mouse.y,mouse.leftButton,mouse.midButton,mouse.rightButton,mouse.clicked_name,mouse_2.x,mouse_2.y,mouse_2.leftButton,mouse_2.midButton,mouse_2.rightButton,mouse_2.clicked_name,mouse_3.x,mouse_3.y,mouse_3.leftButton,mouse_3.midButton,mouse_3.rightButton,catchresponse,catchnumber,response_time_catch,Catch,mouse_11.x,mouse_11.y,mouse_11.leftButton,mouse_11.midButton,mouse_11.rightButton,trials_2.thisRepN,trials_2.thisTrialN,trials_2.thisN,trials_2.thisIndex,trials_2.ran,Colourpair,Temporder,mouse_3.clicked_name,mouse_11.clicked_name,trials_3.thisRepN,trials_3.thisTrialN,trials_3.thisN,trials_3.thisIndex,trials_3.ran,key_resp_instr_Ishi.keys,key_resp_instr_Ishi.rt,Ishi_trial_keyresp.keys,Ishi_textbox.text,Ishi_mouse.x,Ishi_mouse.y,Ishi_mouse.leftButton,Ishi_mouse.midButton,Ishi_mouse.rightButton,Ishi_mouse.clicked_name,Ishi_loop.thisRepN,Ishi_loop.thisTrialN,Ishi_loop.thisN,Ishi_loop.thisIndex,Ishi_loop.ran,imageaddress,textbox.text,mouse_4.x,mouse_4.y,mouse_4.leftButton,mouse_4.midButton,mouse_4.rightButton,mouse_4.clicked_name,textbox_2.text,mouse_8.x,mouse_8.y,mouse_8.leftButton,mouse_8.midButton,mouse_8.rightButton,mouse_8.clicked_name,textbox_3.text,mouse_9.x,mouse_9.y,mouse_9.leftButton,mouse_9.midButton,mouse_9.rightButton,mouse_9.clicked_name,textbox_4.text,mouse_12.x,mouse_12.y,mouse_12.leftButton,mouse_12.midButton,mouse_12.rightButton,mouse_12.clicked_name,textbox_5.text,mouse_13.x,mouse_13.y,mouse_13.leftButton,mouse_13.midButton,mouse_13.rightButton,mouse_13.clicked_name,textbox_6.text,mouse_14.x,mouse_14.y,mouse_14.leftButton,mouse_14.midButton,mouse_14.rightButton,mouse_14.clicked_name,textbox_7.text,mouse_15.x,mouse_15.y,mouse_15.leftButton,mouse_15.midButton,mouse_15.rightButton,mouse_15.clicked_name
0,0,0,39,1,,60f1881264ff3a7f211d186a,62c538a3d1cad5ca791df9d6,2022-07-06_09h24.34.673,Colour_Asymmetry_Pilot,2022.1.3,Win32,74.55453664,62c50e9c1127f2cd403a315f,,,,,,,,,,,,,,,,,,,,,,,,,,,,,,,,,,,,,,,,,,,,,,,,,,,,,,,,,,,,,,,,,,,,,,,,,,,,,,,,,,,,,,,,,,,,,,,,,,,,,,,,,,,,,,,,,,,,,,,,,,,,,,,,,,,,,,,,,,,,,,,,,,,,,,,,,,,,,,,,,,,
0,1,1,55,1,,60f1881264ff3a7f211d186a,62c538a3d1cad5ca791df9d6,2022-07-06_09h24.34.673,Colour_Asymmetry_Pilot,2022.1.3,Win32,74.55453664,62c50e9c1127f2cd403a315f,,,,,,,,,,,,,,,,,,,,,,,,,,,,,,,,,,,,,,,,,,,,,,,,,,,,,,,,,,,,,,,,,,,,,,,,,,,,,,,,,,,,,,,,,,,,,,,,,,,,,,,,,,,,,,,,,,,,,,,,,,,,,,,,,,,,,,,,,,,,,,,,,,,,,,,,,,,,,,,,,,,
0,2,2,63,1,,60f1881264ff3a7f211d186a,62c538a3d1cad5ca791df9d6,2022-07-06_09h24.34.673,Colour_Asymmetry_Pilot,2022.1.3,Win32,74.55453664,62c50e9c1127f2cd403a315f,,,,,,,,,,,,,,,,,,,,,,,,,,,,,,,,,,,,,,,,,,,,,,,,,,,,,,,,,,,,,,,,,,,,,,,,,,,,,,,,,,,,,,,,,,,,,,,,,,,,,,,,,,,,,,,,,,,,,,,,,,,,,,,,,,,,,,,,,,,,,,,,,,,,,,,,,,,,,,,,,,,
0,3,3,81,1,,60f1881264ff3a7f211d186a,62c538a3d1cad5ca791df9d6,2022-07-06_09h24.34.673,Colour_Asymmetry_Pilot,2022.1.3,Win32,74.55453664,62c50e9c1127f2cd403a315f,,,,,,,,,,,,,,,,,,,,,,,,,,,,,,,,,,,,,,,,,,,,,,,,,,,,,,,,,,,,,,,,,,,,,,,,,,,,,,,,,,,,,,,,,,,,,,,,,,,,,,,,,,,,,,,,,,,,,,,,,,,,,,,,,,,,,,,,,,,,,,,,,,,,,,,,,,,,,,,,,,,
0,4,4,80,1,,60f1881264ff3a7f211d186a,62c538a3d1cad5ca791df9d6,2022-07-06_09h24.34.673,Colour_Asymmetry_Pilot,2022.1.3,Win32,74.55453664,62c50e9c1127f2cd403a315f,,,,,,,,,,,,,,,,,,,,,,,,,,,,,,,,,,,,,,,,,,,,,,,,,,,,,,,,,,,,,,,,,,,,,,,,,,,,,,,,,,,,,,,,,,,,,,,,,,,,,,,,,,,,,,,,,,,,,,,,,,,,,,,,,,,,,,,,,,,,,,,,,,,,,,,,,,,,,,,,,,,
0,5,5,31,1,,60f1881264ff3a7f211d186a,62c538a3d1cad5ca791df9d6,2022-07-06_09h24.34.673,Colour_Asymmetry_Pilot,2022.1.3,Win32,74.55453664,62c50e9c1127f2cd403a315f,,,,,,,,,,,,,,,,,,,,,,,,,,,,,,,,,,,,,,,,,,,,,,,,,,,,,,,,,,,,,,,,,,,,,,,,,,,,,,,,,,,,,,,,,,,,,,,,,,,,,,,,,,,,,,,,,,,,,,,,,,,,,,,,,,,,,,,,,,,,,,,,,,,,,,,,,,,,,,,,,,,
0,6,6,76,1,,60f1881264ff3a7f211d186a,62c538a3d1cad5ca791df9d6,2022-07-06_09h24.34.673,Colour_Asymmetry_Pilot,2022.1.3,Win32,74.55453664,62c50e9c1127f2cd403a315f,,,,,,,,,,,,,,,,,,,,,,,,,,,,,,,,,,,,,,,,,,,,,,,,,,,,,,,,,,,,,,,,,,,,,,,,,,,,,,,,,,,,,,,,,,,,,,,,,,,,,,,,,,,,,,,,,,,,,,,,,,,,,,,,,,,,,,,,,,,,,,,,,,,,,,,,,,,,,,,,,,,
0,7,7,92,1,,60f1881264ff3a7f211d186a,62c538a3d1cad5ca791df9d6,2022-07-06_09h24.34.673,Colour_Asymmetry_Pilot,2022.1.3,Win32,74.55453664,62c50e9c1127f2cd403a315f,,,,,,,,,,,,,,,,,,,,,,,,,,,,,,,,,,,,,,,,,,,,,,,,,,,,,,,,,,,,,,,,,,,,,,,,,,,,,,,,,,,,,,,,,,,,,,,,,,,,,,,,,,,,,,,,,,,,,,,,,,,,,,,,,,,,,,,,,,,,,,,,,,,,,,,,,,,,,,,,,,,
0,8,8,77,1,,60f1881264ff3a7f211d186a,62c538a3d1cad5ca791df9d6,2022-07-06_09h24.34.673,Colour_Asymmetry_Pilot,2022.1.3,Win32,74.55453664,62c50e9c1127f2cd403a315f,,,,,,,,,,,,,,,,,,,,,,,,,,,,,,,,,,,,,,,,,,,,,,,,,,,,,,,,,,,,,,,,,,,,,,,,,,,,,,,,,,,,,,,,,,,,,,,,,,,,,,,,,,,,,,,,,,,,,,,,,,,,,,,,,,,,,,,,,,,,,,,,,,,,,,,,,,,,,,,,,,,
0,9,9,53,1,,60f1881264ff3a7f211d186a,62c538a3d1cad5ca791df9d6,2022-07-06_09h24.34.673,Colour_Asymmetry_Pilot,2022.1.3,Win32,74.55453664,62c50e9c1127f2cd403a315f,,,,,,,,,,,,,,,,,,,,,,,,,,,,,,,,,,,,,,,,,,,,,,,,,,,,,,,,,,,,,,,,,,,,,,,,,,,,,,,,,,,,,,,,,,,,,,,,,,,,,,,,,,,,,,,,,,,,,,,,,,,,,,,,,,,,,,,,,,,,,,,,,,,,,,,,,,,,,,,,,,,
0,10,10,36,1,,60f1881264ff3a7f211d186a,62c538a3d1cad5ca791df9d6,2022-07-06_09h24.34.673,Colour_Asymmetry_Pilot,2022.1.3,Win32,74.55453664,62c50e9c1127f2cd403a315f,,,,,,,,,,,,,,,,,,,,,,,,,,,,,,,,,,,,,,,,,,,,,,,,,,,,,,,,,,,,,,,,,,,,,,,,,,,,,,,,,,,,,,,,,,,,,,,,,,,,,,,,,,,,,,,,,,,,,,,,,,,,,,,,,,,,,,,,,,,,,,,,,,,,,,,,,,,,,,,,,,,
0,11,11,26,1,,60f1881264ff3a7f211d186a,62c538a3d1cad5ca791df9d6,2022-07-06_09h24.34.673,Colour_Asymmetry_Pilot,2022.1.3,Win32,74.55453664,62c50e9c1127f2cd403a315f,,,,,,,,,,,,,,,,,,,,,,,,,,,,,,,,,,,,,,,,,,,,,,,,,,,,,,,,,,,,,,,,,,,,,,,,,,,,,,,,,,,,,,,,,,,,,,,,,,,,,,,,,,,,,,,,,,,,,,,,,,,,,,,,,,,,,,,,,,,,,,,,,,,,,,,,,,,,,,,,,,,
0,12,12,32,1,,60f1881264ff3a7f211d186a,62c538a3d1cad5ca791df9d6,2022-07-06_09h24.34.673,Colour_Asymmetry_Pilot,2022.1.3,Win32,74.55453664,62c50e9c1127f2cd403a315f,,,,,,,,,,,,,,,,,,,,,,,,,,,,,,,,,,,,,,,,,,,,,,,,,,,,,,,,,,,,,,,,,,,,,,,,,,,,,,,,,,,,,,,,,,,,,,,,,,,,,,,,,,,,,,,,,,,,,,,,,,,,,,,,,,,,,,,,,,,,,,,,,,,,,,,,,,,,,,,,,,,
0,13,13,23,1,,60f1881264ff3a7f211d186a,62c538a3d1cad5ca791df9d6,2022-07-06_09h24.34.673,Colour_Asymmetry_Pilot,2022.1.3,Win32,74.55453664,62c50e9c1127f2cd403a315f,,,,,,,,,,,,,,,,,,,,,,,,,,,,,,,,,,,,,,,,,,,,,,,,,,,,,,,,,,,,,,,,,,,,,,,,,,,,,,,,,,,,,,,,,,,,,,,,,,,,,,,,,,,,,,,,,,,,,,,,,,,,,,,,,,,,,,,,,,,,,,,,,,,,,,,,,,,,,,,,,,,
0,14,14,29,1,,60f1881264ff3a7f211d186a,62c538a3d1cad5ca791df9d6,2022-07-06_09h24.34.673,Colour_Asymmetry_Pilot,2022.1.3,Win32,74.55453664,62c50e9c1127f2cd403a315f,,,,,,,,,,,,,,,,,,,,,,,,,,,,,,,,,,,,,,,,,,,,,,,,,,,,,,,,,,,,,,,,,,,,,,,,,,,,,,,,,,,,,,,,,,,,,,,,,,,,,,,,,,,,,,,,,,,,,,,,,,,,,,,,,,,,,,,,,,,,,,,,,,,,,,,,,,,,,,,,,,,
0,15,15,0,1,,60f1881264ff3a7f211d186a,62c538a3d1cad5ca791df9d6,2022-07-06_09h24.34.673,Colour_Asymmetry_Pilot,2022.1.3,Win32,74.55453664,62c50e9c1127f2cd403a315f,,,,,,,,,,,,,,,,,,,,,,,,,,,,,,,,,,,,,,,,,,,,,,,,,,,,,,,,,,,,,,,,,,,,,,,,,,,,,,,,,,,,,,,,,,,,,,,,,,,,,,,,,,,,,,,,,,,,,,,,,,,,,,,,,,,,,,,,,,,,,,,,,,,,,,,,,,,,,,,,,,,
0,16,16,71,1,,60f1881264ff3a7f211d186a,62c538a3d1cad5ca791df9d6,2022-07-06_09h24.34.673,Colour_Asymmetry_Pilot,2022.1.3,Win32,74.55453664,62c50e9c1127f2cd403a315f,,,,,,,,,,,,,,,,,,,,,,,,,,,,,,,,,,,,,,,,,,,,,,,,,,,,,,,,,,,,,,,,,,,,,,,,,,,,,,,,,,,,,,,,,,,,,,,,,,,,,,,,,,,,,,,,,,,,,,,,,,,,,,,,,,,,,,,,,,,,,,,,,,,,,,,,,,,,,,,,,,,
0,17,17,87,1,,60f1881264ff3a7f211d186a,62c538a3d1cad5ca791df9d6,2022-07-06_09h24.34.673,Colour_Asymmetry_Pilot,2022.1.3,Win32,74.55453664,62c50e9c1127f2cd403a315f,,,,,,,,,,,,,,,,,,,,,,,,,,,,,,,,,,,,,,,,,,,,,,,,,,,,,,,,,,,,,,,,,,,,,,,,,,,,,,,,,,,,,,,,,,,,,,,,,,,,,,,,,,,,,,,,,,,,,,,,,,,,,,,,,,,,,,,,,,,,,,,,,,,,,,,,,,,,,,,,,,,
0,18,18,11,1,,60f1881264ff3a7f211d186a,62c538a3d1cad5ca791df9d6,2022-07-06_09h24.34.673,Colour_Asymmetry_Pilot,2022.1.3,Win32,74.55453664,62c50e9c1127f2cd403a315f,,,,,,,,,,,,,,,,,,,,,,,,,,,,,,,,,,,,,,,,,,,,,,,,,,,,,,,,,,,,,,,,,,,,,,,,,,,,,,,,,,,,,,,,,,,,,,,,,,,,,,,,,,,,,,,,,,,,,,,,,,,,,,,,,,,,,,,,,,,,,,,,,,,,,,,,,,,,,,,,,,,
0,19,19,68,1,,60f1881264ff3a7f211d186a,62c538a3d1cad5ca791df9d6,2022-07-06_09h24.34.673,Colour_Asymmetry_Pilot,2022.1.3,Win32,74.55453664,62c50e9c1127f2cd403a315f,,,,,,,,,,,,,,,,,,,,,,,,,,,,,,,,,,,,,,,,,,,,,,,,,,,,,,,,,,,,,,,,,,,,,,,,,,,,,,,,,,,,,,,,,,,,,,,,,,,,,,,,,,,,,,,,,,,,,,,,,,,,,,,,,,,,,,,,,,,,,,,,,,,,,,,,,,,,,,,,,,,
0,20,20,67,1,,60f1881264ff3a7f211d186a,62c538a3d1cad5ca791df9d6,2022-07-06_09h24.34.673,Colour_Asymmetry_Pilot,2022.1.3,Win32,74.55453664,62c50e9c1127f2cd403a315f,,,,,,,,,,,,,,,,,,,,,,,,,,,,,,,,,,,,,,,,,,,,,,,,,,,,,,,,,,,,,,,,,,,,,,,,,,,,,,,,,,,,,,,,,,,,,,,,,,,,,,,,,,,,,,,,,,,,,,,,,,,,,,,,,,,,,,,,,,,,,,,,,,,,,,,,,,,,,,,,,,,
0,21,21,58,1,,60f1881264ff3a7f211d186a,62c538a3d1cad5ca791df9d6,2022-07-06_09h24.34.673,Colour_Asymmetry_Pilot,2022.1.3,Win32,74.55453664,62c50e9c1127f2cd403a315f,,,,,,,,,,,,,,,,,,,,,,,,,,,,,,,,,,,,,,,,,,,,,,,,,,,,,,,,,,,,,,,,,,,,,,,,,,,,,,,,,,,,,,,,,,,,,,,,,,,,,,,,,,,,,,,,,,,,,,,,,,,,,,,,,,,,,,,,,,,,,,,,,,,,,,,,,,,,,,,,,,,
0,22,22,20,1,,60f1881264ff3a7f211d186a,62c538a3d1cad5ca791df9d6,2022-07-06_09h24.34.673,Colour_Asymmetry_Pilot,2022.1.3,Win32,74.55453664,62c50e9c1127f2cd403a315f,,,,,,,,,,,,,,,,,,,,,,,,,,,,,,,,,,,,,,,,,,,,,,,,,,,,,,,,,,,,,,,,,,,,,,,,,,,,,,,,,,,,,,,,,,,,,,,,,,,,,,,,,,,,,,,,,,,,,,,,,,,,,,,,,,,,,,,,,,,,,,,,,,,,,,,,,,,,,,,,,,,
0,23,23,75,1,,60f1881264ff3a7f211d186a,62c538a3d1cad5ca791df9d6,2022-07-06_09h24.34.673,Colour_Asymmetry_Pilot,2022.1.3,Win32,74.55453664,62c50e9c1127f2cd403a315f,,,,,,,,,,,,,,,,,,,,,,,,,,,,,,,,,,,,,,,,,,,,,,,,,,,,,,,,,,,,,,,,,,,,,,,,,,,,,,,,,,,,,,,,,,,,,,,,,,,,,,,,,,,,,,,,,,,,,,,,,,,,,,,,,,,,,,,,,,,,,,,,,,,,,,,,,,,,,,,,,,,
0,24,24,85,1,,60f1881264ff3a7f211d186a,62c538a3d1cad5ca791df9d6,2022-07-06_09h24.34.673,Colour_Asymmetry_Pilot,2022.1.3,Win32,74.55453664,62c50e9c1127f2cd403a315f,,,,,,,,,,,,,,,,,,,,,,,,,,,,,,,,,,,,,,,,,,,,,,,,,,,,,,,,,,,,,,,,,,,,,,,,,,,,,,,,,,,,,,,,,,,,,,,,,,,,,,,,,,,,,,,,,,,,,,,,,,,,,,,,,,,,,,,,,,,,,,,,,,,,,,,,,,,,,,,,,,,
0,25,25,72,1,,60f1881264ff3a7f211d186a,62c538a3d1cad5ca791df9d6,2022-07-06_09h24.34.673,Colour_Asymmetry_Pilot,2022.1.3,Win32,74.55453664,62c50e9c1127f2cd403a315f,,,,,,,,,,,,,,,,,,,,,,,,,,,,,,,,,,,,,,,,,,,,,,,,,,,,,,,,,,,,,,,,,,,,,,,,,,,,,,,,,,,,,,,,,,,,,,,,,,,,,,,,,,,,,,,,,,,,,,,,,,,,,,,,,,,,,,,,,,,,,,,,,,,,,,,,,,,,,,,,,,,
0,26,26,65,1,,60f1881264ff3a7f211d186a,62c538a3d1cad5ca791df9d6,2022-07-06_09h24.34.673,Colour_Asymmetry_Pilot,2022.1.3,Win32,74.55453664,62c50e9c1127f2cd403a315f,,,,,,,,,,,,,,,,,,,,,,,,,,,,,,,,,,,,,,,,,,,,,,,,,,,,,,,,,,,,,,,,,,,,,,,,,,,,,,,,,,,,,,,,,,,,,,,,,,,,,,,,,,,,,,,,,,,,,,,,,,,,,,,,,,,,,,,,,,,,,,,,,,,,,,,,,,,,,,,,,,,
0,27,27,83,1,,60f1881264ff3a7f211d186a,62c538a3d1cad5ca791df9d6,2022-07-06_09h24.34.673,Colour_Asymmetry_Pilot,2022.1.3,Win32,74.55453664,62c50e9c1127f2cd403a315f,,,,,,,,,,,,,,,,,,,,,,,,,,,,,,,,,,,,,,,,,,,,,,,,,,,,,,,,,,,,,,,,,,,,,,,,,,,,,,,,,,,,,,,,,,,,,,,,,,,,,,,,,,,,,,,,,,,,,,,,,,,,,,,,,,,,,,,,,,,,,,,,,,,,,,,,,,,,,,,,,,,
0,28,28,56,1,,60f1881264ff3a7f211d186a,62c538a3d1cad5ca791df9d6,2022-07-06_09h24.34.673,Colour_Asymmetry_Pilot,2022.1.3,Win32,74.55453664,62c50e9c1127f2cd403a315f,,,,,,,,,,,,,,,,,,,,,,,,,,,,,,,,,,,,,,,,,,,,,,,,,,,,,,,,,,,,,,,,,,,,,,,,,,,,,,,,,,,,,,,,,,,,,,,,,,,,,,,,,,,,,,,,,,,,,,,,,,,,,,,,,,,,,,,,,,,,,,,,,,,,,,,,,,,,,,,,,,,
0,29,29,46,1,,60f1881264ff3a7f211d186a,62c538a3d1cad5ca791df9d6,2022-07-06_09h24.34.673,Colour_Asymmetry_Pilot,2022.1.3,Win32,74.55453664,62c50e9c1127f2cd403a315f,,,,,,,,,,,,,,,,,,,,,,,,,,,,,,,,,,,,,,,,,,,,,,,,,,,,,,,,,,,,,,,,,,,,,,,,,,,,,,,,,,,,,,,,,,,,,,,,,,,,,,,,,,,,,,,,,,,,,,,,,,,,,,,,,,,,,,,,,,,,,,,,,,,,,,,,,,,,,,,,,,,
0,30,30,47,1,,60f1881264ff3a7f211d186a,62c538a3d1cad5ca791df9d6,2022-07-06_09h24.34.673,Colour_Asymmetry_Pilot,2022.1.3,Win32,74.55453664,62c50e9c1127f2cd403a315f,,,,,,,,,,,,,,,,,,,,,,,,,,,,,,,,,,,,,,,,,,,,,,,,,,,,,,,,,,,,,,,,,,,,,,,,,,,,,,,,,,,,,,,,,,,,,,,,,,,,,,,,,,,,,,,,,,,,,,,,,,,,,,,,,,,,,,,,,,,,,,,,,,,,,,,,,,,,,,,,,,,
0,31,31,13,1,,60f1881264ff3a7f211d186a,62c538a3d1cad5ca791df9d6,2022-07-06_09h24.34.673,Colour_Asymmetry_Pilot,2022.1.3,Win32,74.55453664,62c50e9c1127f2cd403a315f,,,,,,,,,,,,,,,,,,,,,,,,,,,,,,,,,,,,,,,,,,,,,,,,,,,,,,,,,,,,,,,,,,,,,,,,,,,,,,,,,,,,,,,,,,,,,,,,,,,,,,,,,,,,,,,,,,,,,,,,,,,,,,,,,,,,,,,,,,,,,,,,,,,,,,,,,,,,,,,,,,,
0,32,32,61,1,,60f1881264ff3a7f211d186a,62c538a3d1cad5ca791df9d6,2022-07-06_09h24.34.673,Colour_Asymmetry_Pilot,2022.1.3,Win32,74.55453664,62c50e9c1127f2cd403a315f,,,,,,,,,,,,,,,,,,,,,,,,,,,,,,,,,,,,,,,,,,,,,,,,,,,,,,,,,,,,,,,,,,,,,,,,,,,,,,,,,,,,,,,,,,,,,,,,,,,,,,,,,,,,,,,,,,,,,,,,,,,,,,,,,,,,,,,,,,,,,,,,,,,,,,,,,,,,,,,,,,,
0,33,33,10,1,,60f1881264ff3a7f211d186a,62c538a3d1cad5ca791df9d6,2022-07-06_09h24.34.673,Colour_Asymmetry_Pilot,2022.1.3,Win32,74.55453664,62c50e9c1127f2cd403a315f,,,,,,,,,,,,,,,,,,,,,,,,,,,,,,,,,,,,,,,,,,,,,,,,,,,,,,,,,,,,,,,,,,,,,,,,,,,,,,,,,,,,,,,,,,,,,,,,,,,,,,,,,,,,,,,,,,,,,,,,,,,,,,,,,,,,,,,,,,,,,,,,,,,,,,,,,,,,,,,,,,,
0,34,34,73,1,,60f1881264ff3a7f211d186a,62c538a3d1cad5ca791df9d6,2022-07-06_09h24.34.673,Colour_Asymmetry_Pilot,2022.1.3,Win32,74.55453664,62c50e9c1127f2cd403a315f,,,,,,,,,,,,,,,,,,,,,,,,,,,,,,,,,,,,,,,,,,,,,,,,,,,,,,,,,,,,,,,,,,,,,,,,,,,,,,,,,,,,,,,,,,,,,,,,,,,,,,,,,,,,,,,,,,,,,,,,,,,,,,,,,,,,,,,,,,,,,,,,,,,,,,,,,,,,,,,,,,,
0,35,35,82,1,,60f1881264ff3a7f211d186a,62c538a3d1cad5ca791df9d6,2022-07-06_09h24.34.673,Colour_Asymmetry_Pilot,2022.1.3,Win32,74.55453664,62c50e9c1127f2cd403a315f,,,,,,,,,,,,,,,,,,,,,,,,,,,,,,,,,,,,,,,,,,,,,,,,,,,,,,,,,,,,,,,,,,,,,,,,,,,,,,,,,,,,,,,,,,,,,,,,,,,,,,,,,,,,,,,,,,,,,,,,,,,,,,,,,,,,,,,,,,,,,,,,,,,,,,,,,,,,,,,,,,,
0,36,36,49,1,,60f1881264ff3a7f211d186a,62c538a3d1cad5ca791df9d6,2022-07-06_09h24.34.673,Colour_Asymmetry_Pilot,2022.1.3,Win32,74.55453664,62c50e9c1127f2cd403a315f,,,,,,,,,,,,,,,,,,,,,,,,,,,,,,,,,,,,,,,,,,,,,,,,,,,,,,,,,,,,,,,,,,,,,,,,,,,,,,,,,,,,,,,,,,,,,,,,,,,,,,,,,,,,,,,,,,,,,,,,,,,,,,,,,,,,,,,,,,,,,,,,,,,,,,,,,,,,,,,,,,,
0,37,37,52,1,,60f1881264ff3a7f211d186a,62c538a3d1cad5ca791df9d6,2022-07-06_09h24.34.673,Colour_Asymmetry_Pilot,2022.1.3,Win32,74.55453664,62c50e9c1127f2cd403a315f,,,,,,,,,,,,,,,,,,,,,,,,,,,,,,,,,,,,,,,,,,,,,,,,,,,,,,,,,,,,,,,,,,,,,,,,,,,,,,,,,,,,,,,,,,,,,,,,,,,,,,,,,,,,,,,,,,,,,,,,,,,,,,,,,,,,,,,,,,,,,,,,,,,,,,,,,,,,,,,,,,,
0,38,38,86,1,,60f1881264ff3a7f211d186a,62c538a3d1cad5ca791df9d6,2022-07-06_09h24.34.673,Colour_Asymmetry_Pilot,2022.1.3,Win32,74.55453664,62c50e9c1127f2cd403a315f,,,,,,,,,,,,,,,,,,,,,,,,,,,,,,,,,,,,,,,,,,,,,,,,,,,,,,,,,,,,,,,,,,,,,,,,,,,,,,,,,,,,,,,,,,,,,,,,,,,,,,,,,,,,,,,,,,,,,,,,,,,,,,,,,,,,,,,,,,,,,,,,,,,,,,,,,,,,,,,,,,,
0,39,39,38,1,,60f1881264ff3a7f211d186a,62c538a3d1cad5ca791df9d6,2022-07-06_09h24.34.673,Colour_Asymmetry_Pilot,2022.1.3,Win32,74.55453664,62c50e9c1127f2cd403a315f,,,,,,,,,,,,,,,,,,,,,,,,,,,,,,,,,,,,,,,,,,,,,,,,,,,,,,,,,,,,,,,,,,,,,,,,,,,,,,,,,,,,,,,,,,,,,,,,,,,,,,,,,,,,,,,,,,,,,,,,,,,,,,,,,,,,,,,,,,,,,,,,,,,,,,,,,,,,,,,,,,,
0,40,40,7,1,,60f1881264ff3a7f211d186a,62c538a3d1cad5ca791df9d6,2022-07-06_09h24.34.673,Colour_Asymmetry_Pilot,2022.1.3,Win32,74.55453664,62c50e9c1127f2cd403a315f,,,,,,,,,,,,,,,,,,,,,,,,,,,,,,,,,,,,,,,,,,,,,,,,,,,,,,,,,,,,,,,,,,,,,,,,,,,,,,,,,,,,,,,,,,,,,,,,,,,,,,,,,,,,,,,,,,,,,,,,,,,,,,,,,,,,,,,,,,,,,,,,,,,,,,,,,,,,,,,,,,,
0,41,41,59,1,,60f1881264ff3a7f211d186a,62c538a3d1cad5ca791df9d6,2022-07-06_09h24.34.673,Colour_Asymmetry_Pilot,2022.1.3,Win32,74.55453664,62c50e9c1127f2cd403a315f,,,,,,,,,,,,,,,,,,,,,,,,,,,,,,,,,,,,,,,,,,,,,,,,,,,,,,,,,,,,,,,,,,,,,,,,,,,,,,,,,,,,,,,,,,,,,,,,,,,,,,,,,,,,,,,,,,,,,,,,,,,,,,,,,,,,,,,,,,,,,,,,,,,,,,,,,,,,,,,,,,,
0,42,42,6,1,,60f1881264ff3a7f211d186a,62c538a3d1cad5ca791df9d6,2022-07-06_09h24.34.673,Colour_Asymmetry_Pilot,2022.1.3,Win32,74.55453664,62c50e9c1127f2cd403a315f,,,,,,,,,,,,,,,,,,,,,,,,,,,,,,,,,,,,,,,,,,,,,,,,,,,,,,,,,,,,,,,,,,,,,,,,,,,,,,,,,,,,,,,,,,,,,,,,,,,,,,,,,,,,,,,,,,,,,,,,,,,,,,,,,,,,,,,,,,,,,,,,,,,,,,,,,,,,,,,,,,,
0,43,43,48,1,,60f1881264ff3a7f211d186a,62c538a3d1cad5ca791df9d6,2022-07-06_09h24.34.673,Colour_Asymmetry_Pilot,2022.1.3,Win32,74.55453664,62c50e9c1127f2cd403a315f,,,,,,,,,,,,,,,,,,,,,,,,,,,,,,,,,,,,,,,,,,,,,,,,,,,,,,,,,,,,,,,,,,,,,,,,,,,,,,,,,,,,,,,,,,,,,,,,,,,,,,,,,,,,,,,,,,,,,,,,,,,,,,,,,,,,,,,,,,,,,,,,,,,,,,,,,,,,,,,,,,,
0,44,44,9,1,,60f1881264ff3a7f211d186a,62c538a3d1cad5ca791df9d6,2022-07-06_09h24.34.673,Colour_Asymmetry_Pilot,2022.1.3,Win32,74.55453664,62c50e9c1127f2cd403a315f,,,,,,,,,,,,,,,,,,,,,,,,,,,,,,,,,,,,,,,,,,,,,,,,,,,,,,,,,,,,,,,,,,,,,,,,,,,,,,,,,,,,,,,,,,,,,,,,,,,,,,,,,,,,,,,,,,,,,,,,,,,,,,,,,,,,,,,,,,,,,,,,,,,,,,,,,,,,,,,,,,,
0,45,45,35,1,,60f1881264ff3a7f211d186a,62c538a3d1cad5ca791df9d6,2022-07-06_09h24.34.673,Colour_Asymmetry_Pilot,2022.1.3,Win32,74.55453664,62c50e9c1127f2cd403a315f,,,,,,,,,,,,,,,,,,,,,,,,,,,,,,,,,,,,,,,,,,,,,,,,,,,,,,,,,,,,,,,,,,,,,,,,,,,,,,,,,,,,,,,,,,,,,,,,,,,,,,,,,,,,,,,,,,,,,,,,,,,,,,,,,,,,,,,,,,,,,,,,,,,,,,,,,,,,,,,,,,,
0,46,46,79,1,,60f1881264ff3a7f211d186a,62c538a3d1cad5ca791df9d6,2022-07-06_09h24.34.673,Colour_Asymmetry_Pilot,2022.1.3,Win32,74.55453664,62c50e9c1127f2cd403a315f,,,,,,,,,,,,,,,,,,,,,,,,,,,,,,,,,,,,,,,,,,,,,,,,,,,,,,,,,,,,,,,,,,,,,,,,,,,,,,,,,,,,,,,,,,,,,,,,,,,,,,,,,,,,,,,,,,,,,,,,,,,,,,,,,,,,,,,,,,,,,,,,,,,,,,,,,,,,,,,,,,,
0,47,47,1,1,,60f1881264ff3a7f211d186a,62c538a3d1cad5ca791df9d6,2022-07-06_09h24.34.673,Colour_Asymmetry_Pilot,2022.1.3,Win32,74.55453664,62c50e9c1127f2cd403a315f,,,,,,,,,,,,,,,,,,,,,,,,,,,,,,,,,,,,,,,,,,,,,,,,,,,,,,,,,,,,,,,,,,,,,,,,,,,,,,,,,,,,,,,,,,,,,,,,,,,,,,,,,,,,,,,,,,,,,,,,,,,,,,,,,,,,,,,,,,,,,,,,,,,,,,,,,,,,,,,,,,,
0,48,48,15,1,,60f1881264ff3a7f211d186a,62c538a3d1cad5ca791df9d6,2022-07-06_09h24.34.673,Colour_Asymmetry_Pilot,2022.1.3,Win32,74.55453664,62c50e9c1127f2cd403a315f,,,,,,,,,,,,,,,,,,,,,,,,,,,,,,,,,,,,,,,,,,,,,,,,,,,,,,,,,,,,,,,,,,,,,,,,,,,,,,,,,,,,,,,,,,,,,,,,,,,,,,,,,,,,,,,,,,,,,,,,,,,,,,,,,,,,,,,,,,,,,,,,,,,,,,,,,,,,,,,,,,,
0,49,49,3,1,,60f1881264ff3a7f211d186a,62c538a3d1cad5ca791df9d6,2022-07-06_09h24.34.673,Colour_Asymmetry_Pilot,2022.1.3,Win32,74.55453664,62c50e9c1127f2cd403a315f,,,,,,,,,,,,,,,,,,,,,,,,,,,,,,,,,,,,,,,,,,,,,,,,,,,,,,,,,,,,,,,,,,,,,,,,,,,,,,,,,,,,,,,,,,,,,,,,,,,,,,,,,,,,,,,,,,,,,,,,,,,,,,,,,,,,,,,,,,,,,,,,,,,,,,,,,,,,,,,,,,,
0,50,50,22,1,,60f1881264ff3a7f211d186a,62c538a3d1cad5ca791df9d6,2022-07-06_09h24.34.673,Colour_Asymmetry_Pilot,2022.1.3,Win32,74.55453664,62c50e9c1127f2cd403a315f,,,,,,,,,,,,,,,,,,,,,,,,,,,,,,,,,,,,,,,,,,,,,,,,,,,,,,,,,,,,,,,,,,,,,,,,,,,,,,,,,,,,,,,,,,,,,,,,,,,,,,,,,,,,,,,,,,,,,,,,,,,,,,,,,,,,,,,,,,,,,,,,,,,,,,,,,,,,,,,,,,,
0,51,51,62,1,,60f1881264ff3a7f211d186a,62c538a3d1cad5ca791df9d6,2022-07-06_09h24.34.673,Colour_Asymmetry_Pilot,2022.1.3,Win32,74.55453664,62c50e9c1127f2cd403a315f,,,,,,,,,,,,,,,,,,,,,,,,,,,,,,,,,,,,,,,,,,,,,,,,,,,,,,,,,,,,,,,,,,,,,,,,,,,,,,,,,,,,,,,,,,,,,,,,,,,,,,,,,,,,,,,,,,,,,,,,,,,,,,,,,,,,,,,,,,,,,,,,,,,,,,,,,,,,,,,,,,,
0,52,52,42,1,,60f1881264ff3a7f211d186a,62c538a3d1cad5ca791df9d6,2022-07-06_09h24.34.673,Colour_Asymmetry_Pilot,2022.1.3,Win32,74.55453664,62c50e9c1127f2cd403a315f,,,,,,,,,,,,,,,,,,,,,,,,,,,,,,,,,,,,,,,,,,,,,,,,,,,,,,,,,,,,,,,,,,,,,,,,,,,,,,,,,,,,,,,,,,,,,,,,,,,,,,,,,,,,,,,,,,,,,,,,,,,,,,,,,,,,,,,,,,,,,,,,,,,,,,,,,,,,,,,,,,,
0,53,53,74,1,,60f1881264ff3a7f211d186a,62c538a3d1cad5ca791df9d6,2022-07-06_09h24.34.673,Colour_Asymmetry_Pilot,2022.1.3,Win32,74.55453664,62c50e9c1127f2cd403a315f,,,,,,,,,,,,,,,,,,,,,,,,,,,,,,,,,,,,,,,,,,,,,,,,,,,,,,,,,,,,,,,,,,,,,,,,,,,,,,,,,,,,,,,,,,,,,,,,,,,,,,,,,,,,,,,,,,,,,,,,,,,,,,,,,,,,,,,,,,,,,,,,,,,,,,,,,,,,,,,,,,,
0,54,54,40,1,,60f1881264ff3a7f211d186a,62c538a3d1cad5ca791df9d6,2022-07-06_09h24.34.673,Colour_Asymmetry_Pilot,2022.1.3,Win32,74.55453664,62c50e9c1127f2cd403a315f,,,,,,,,,,,,,,,,,,,,,,,,,,,,,,,,,,,,,,,,,,,,,,,,,,,,,,,,,,,,,,,,,,,,,,,,,,,,,,,,,,,,,,,,,,,,,,,,,,,,,,,,,,,,,,,,,,,,,,,,,,,,,,,,,,,,,,,,,,,,,,,,,,,,,,,,,,,,,,,,,,,
0,55,55,5,1,,60f1881264ff3a7f211d186a,62c538a3d1cad5ca791df9d6,2022-07-06_09h24.34.673,Colour_Asymmetry_Pilot,2022.1.3,Win32,74.55453664,62c50e9c1127f2cd403a315f,,,,,,,,,,,,,,,,,,,,,,,,,,,,,,,,,,,,,,,,,,,,,,,,,,,,,,,,,,,,,,,,,,,,,,,,,,,,,,,,,,,,,,,,,,,,,,,,,,,,,,,,,,,,,,,,,,,,,,,,,,,,,,,,,,,,,,,,,,,,,,,,,,,,,,,,,,,,,,,,,,,
0,56,56,12,1,,60f1881264ff3a7f211d186a,62c538a3d1cad5ca791df9d6,2022-07-06_09h24.34.673,Colour_Asymmetry_Pilot,2022.1.3,Win32,74.55453664,62c50e9c1127f2cd403a315f,,,,,,,,,,,,,,,,,,,,,,,,,,,,,,,,,,,,,,,,,,,,,,,,,,,,,,,,,,,,,,,,,,,,,,,,,,,,,,,,,,,,,,,,,,,,,,,,,,,,,,,,,,,,,,,,,,,,,,,,,,,,,,,,,,,,,,,,,,,,,,,,,,,,,,,,,,,,,,,,,,,
0,57,57,27,1,,60f1881264ff3a7f211d186a,62c538a3d1cad5ca791df9d6,2022-07-06_09h24.34.673,Colour_Asymmetry_Pilot,2022.1.3,Win32,74.55453664,62c50e9c1127f2cd403a315f,,,,,,,,,,,,,,,,,,,,,,,,,,,,,,,,,,,,,,,,,,,,,,,,,,,,,,,,,,,,,,,,,,,,,,,,,,,,,,,,,,,,,,,,,,,,,,,,,,,,,,,,,,,,,,,,,,,,,,,,,,,,,,,,,,,,,,,,,,,,,,,,,,,,,,,,,,,,,,,,,,,
0,58,58,70,1,,60f1881264ff3a7f211d186a,62c538a3d1cad5ca791df9d6,2022-07-06_09h24.34.673,Colour_Asymmetry_Pilot,2022.1.3,Win32,74.55453664,62c50e9c1127f2cd403a315f,,,,,,,,,,,,,,,,,,,,,,,,,,,,,,,,,,,,,,,,,,,,,,,,,,,,,,,,,,,,,,,,,,,,,,,,,,,,,,,,,,,,,,,,,,,,,,,,,,,,,,,,,,,,,,,,,,,,,,,,,,,,,,,,,,,,,,,,,,,,,,,,,,,,,,,,,,,,,,,,,,,
0,59,59,2,1,,60f1881264ff3a7f211d186a,62c538a3d1cad5ca791df9d6,2022-07-06_09h24.34.673,Colour_Asymmetry_Pilot,2022.1.3,Win32,74.55453664,62c50e9c1127f2cd403a315f,,,,,,,,,,,,,,,,,,,,,,,,,,,,,,,,,,,,,,,,,,,,,,,,,,,,,,,,,,,,,,,,,,,,,,,,,,,,,,,,,,,,,,,,,,,,,,,,,,,,,,,,,,,,,,,,,,,,,,,,,,,,,,,,,,,,,,,,,,,,,,,,,,,,,,,,,,,,,,,,,,,
0,60,60,25,1,,60f1881264ff3a7f211d186a,62c538a3d1cad5ca791df9d6,2022-07-06_09h24.34.673,Colour_Asymmetry_Pilot,2022.1.3,Win32,74.55453664,62c50e9c1127f2cd403a315f,,,,,,,,,,,,,,,,,,,,,,,,,,,,,,,,,,,,,,,,,,,,,,,,,,,,,,,,,,,,,,,,,,,,,,,,,,,,,,,,,,,,,,,,,,,,,,,,,,,,,,,,,,,,,,,,,,,,,,,,,,,,,,,,,,,,,,,,,,,,,,,,,,,,,,,,,,,,,,,,,,,
0,61,61,43,1,,60f1881264ff3a7f211d186a,62c538a3d1cad5ca791df9d6,2022-07-06_09h24.34.673,Colour_Asymmetry_Pilot,2022.1.3,Win32,74.55453664,62c50e9c1127f2cd403a315f,,,,,,,,,,,,,,,,,,,,,,,,,,,,,,,,,,,,,,,,,,,,,,,,,,,,,,,,,,,,,,,,,,,,,,,,,,,,,,,,,,,,,,,,,,,,,,,,,,,,,,,,,,,,,,,,,,,,,,,,,,,,,,,,,,,,,,,,,,,,,,,,,,,,,,,,,,,,,,,,,,,
0,62,62,89,1,,60f1881264ff3a7f211d186a,62c538a3d1cad5ca791df9d6,2022-07-06_09h24.34.673,Colour_Asymmetry_Pilot,2022.1.3,Win32,74.55453664,62c50e9c1127f2cd403a315f,,,,,,,,,,,,,,,,,,,,,,,,,,,,,,,,,,,,,,,,,,,,,,,,,,,,,,,,,,,,,,,,,,,,,,,,,,,,,,,,,,,,,,,,,,,,,,,,,,,,,,,,,,,,,,,,,,,,,,,,,,,,,,,,,,,,,,,,,,,,,,,,,,,,,,,,,,,,,,,,,,,
0,63,63,21,1,,60f1881264ff3a7f211d186a,62c538a3d1cad5ca791df9d6,2022-07-06_09h24.34.673,Colour_Asymmetry_Pilot,2022.1.3,Win32,74.55453664,62c50e9c1127f2cd403a315f,,,,,,,,,,,,,,,,,,,,,,,,,,,,,,,,,,,,,,,,,,,,,,,,,,,,,,,,,,,,,,,,,,,,,,,,,,,,,,,,,,,,,,,,,,,,,,,,,,,,,,,,,,,,,,,,,,,,,,,,,,,,,,,,,,,,,,,,,,,,,,,,,,,,,,,,,,,,,,,,,,,
0,64,64,50,1,,60f1881264ff3a7f211d186a,62c538a3d1cad5ca791df9d6,2022-07-06_09h24.34.673,Colour_Asymmetry_Pilot,2022.1.3,Win32,74.55453664,62c50e9c1127f2cd403a315f,,,,,,,,,,,,,,,,,,,,,,,,,,,,,,,,,,,,,,,,,,,,,,,,,,,,,,,,,,,,,,,,,,,,,,,,,,,,,,,,,,,,,,,,,,,,,,,,,,,,,,,,,,,,,,,,,,,,,,,,,,,,,,,,,,,,,,,,,,,,,,,,,,,,,,,,,,,,,,,,,,,
0,65,65,90,1,,60f1881264ff3a7f211d186a,62c538a3d1cad5ca791df9d6,2022-07-06_09h24.34.673,Colour_Asymmetry_Pilot,2022.1.3,Win32,74.55453664,62c50e9c1127f2cd403a315f,,,,,,,,,,,,,,,,,,,,,,,,,,,,,,,,,,,,,,,,,,,,,,,,,,,,,,,,,,,,,,,,,,,,,,,,,,,,,,,,,,,,,,,,,,,,,,,,,,,,,,,,,,,,,,,,,,,,,,,,,,,,,,,,,,,,,,,,,,,,,,,,,,,,,,,,,,,,,,,,,,,
0,66,66,17,1,,60f1881264ff3a7f211d186a,62c538a3d1cad5ca791df9d6,2022-07-06_09h24.34.673,Colour_Asymmetry_Pilot,2022.1.3,Win32,74.55453664,62c50e9c1127f2cd403a315f,,,,,,,,,,,,,,,,,,,,,,,,,,,,,,,,,,,,,,,,,,,,,,,,,,,,,,,,,,,,,,,,,,,,,,,,,,,,,,,,,,,,,,,,,,,,,,,,,,,,,,,,,,,,,,,,,,,,,,,,,,,,,,,,,,,,,,,,,,,,,,,,,,,,,,,,,,,,,,,,,,,
0,67,67,64,1,,60f1881264ff3a7f211d186a,62c538a3d1cad5ca791df9d6,2022-07-06_09h24.34.673,Colour_Asymmetry_Pilot,2022.1.3,Win32,74.55453664,62c50e9c1127f2cd403a315f,,,,,,,,,,,,,,,,,,,,,,,,,,,,,,,,,,,,,,,,,,,,,,,,,,,,,,,,,,,,,,,,,,,,,,,,,,,,,,,,,,,,,,,,,,,,,,,,,,,,,,,,,,,,,,,,,,,,,,,,,,,,,,,,,,,,,,,,,,,,,,,,,,,,,,,,,,,,,,,,,,,
0,68,68,8,1,,60f1881264ff3a7f211d186a,62c538a3d1cad5ca791df9d6,2022-07-06_09h24.34.673,Colour_Asymmetry_Pilot,2022.1.3,Win32,74.55453664,62c50e9c1127f2cd403a315f,,,,,,,,,,,,,,,,,,,,,,,,,,,,,,,,,,,,,,,,,,,,,,,,,,,,,,,,,,,,,,,,,,,,,,,,,,,,,,,,,,,,,,,,,,,,,,,,,,,,,,,,,,,,,,,,,,,,,,,,,,,,,,,,,,,,,,,,,,,,,,,,,,,,,,,,,,,,,,,,,,,
0,69,69,45,1,,60f1881264ff3a7f211d186a,62c538a3d1cad5ca791df9d6,2022-07-06_09h24.34.673,Colour_Asymmetry_Pilot,2022.1.3,Win32,74.55453664,62c50e9c1127f2cd403a315f,,,,,,,,,,,,,,,,,,,,,,,,,,,,,,,,,,,,,,,,,,,,,,,,,,,,,,,,,,,,,,,,,,,,,,,,,,,,,,,,,,,,,,,,,,,,,,,,,,,,,,,,,,,,,,,,,,,,,,,,,,,,,,,,,,,,,,,,,,,,,,,,,,,,,,,,,,,,,,,,,,,
0,70,70,19,1,,60f1881264ff3a7f211d186a,62c538a3d1cad5ca791df9d6,2022-07-06_09h24.34.673,Colour_Asymmetry_Pilot,2022.1.3,Win32,74.55453664,62c50e9c1127f2cd403a315f,,,,,,,,,,,,,,,,,,,,,,,,,,,,,,,,,,,,,,,,,,,,,,,,,,,,,,,,,,,,,,,,,,,,,,,,,,,,,,,,,,,,,,,,,,,,,,,,,,,,,,,,,,,,,,,,,,,,,,,,,,,,,,,,,,,,,,,,,,,,,,,,,,,,,,,,,,,,,,,,,,,
0,71,71,41,1,,60f1881264ff3a7f211d186a,62c538a3d1cad5ca791df9d6,2022-07-06_09h24.34.673,Colour_Asymmetry_Pilot,2022.1.3,Win32,74.55453664,62c50e9c1127f2cd403a315f,,,,,,,,,,,,,,,,,,,,,,,,,,,,,,,,,,,,,,,,,,,,,,,,,,,,,,,,,,,,,,,,,,,,,,,,,,,,,,,,,,,,,,,,,,,,,,,,,,,,,,,,,,,,,,,,,,,,,,,,,,,,,,,,,,,,,,,,,,,,,,,,,,,,,,,,,,,,,,,,,,,
0,72,72,18,1,,60f1881264ff3a7f211d186a,62c538a3d1cad5ca791df9d6,2022-07-06_09h24.34.673,Colour_Asymmetry_Pilot,2022.1.3,Win32,74.55453664,62c50e9c1127f2cd403a315f,,,,,,,,,,,,,,,,,,,,,,,,,,,,,,,,,,,,,,,,,,,,,,,,,,,,,,,,,,,,,,,,,,,,,,,,,,,,,,,,,,,,,,,,,,,,,,,,,,,,,,,,,,,,,,,,,,,,,,,,,,,,,,,,,,,,,,,,,,,,,,,,,,,,,,,,,,,,,,,,,,,
0,73,73,33,1,,60f1881264ff3a7f211d186a,62c538a3d1cad5ca791df9d6,2022-07-06_09h24.34.673,Colour_Asymmetry_Pilot,2022.1.3,Win32,74.55453664,62c50e9c1127f2cd403a315f,,,,,,,,,,,,,,,,,,,,,,,,,,,,,,,,,,,,,,,,,,,,,,,,,,,,,,,,,,,,,,,,,,,,,,,,,,,,,,,,,,,,,,,,,,,,,,,,,,,,,,,,,,,,,,,,,,,,,,,,,,,,,,,,,,,,,,,,,,,,,,,,,,,,,,,,,,,,,,,,,,,
0,74,74,57,1,,60f1881264ff3a7f211d186a,62c538a3d1cad5ca791df9d6,2022-07-06_09h24.34.673,Colour_Asymmetry_Pilot,2022.1.3,Win32,74.55453664,62c50e9c1127f2cd403a315f,,,,,,,,,,,,,,,,,,,,,,,,,,,,,,,,,,,,,,,,,,,,,,,,,,,,,,,,,,,,,,,,,,,,,,,,,,,,,,,,,,,,,,,,,,,,,,,,,,,,,,,,,,,,,,,,,,,,,,,,,,,,,,,,,,,,,,,,,,,,,,,,,,,,,,,,,,,,,,,,,,,
0,75,75,78,1,,60f1881264ff3a7f211d186a,62c538a3d1cad5ca791df9d6,2022-07-06_09h24.34.673,Colour_Asymmetry_Pilot,2022.1.3,Win32,74.55453664,62c50e9c1127f2cd403a315f,,,,,,,,,,,,,,,,,,,,,,,,,,,,,,,,,,,,,,,,,,,,,,,,,,,,,,,,,,,,,,,,,,,,,,,,,,,,,,,,,,,,,,,,,,,,,,,,,,,,,,,,,,,,,,,,,,,,,,,,,,,,,,,,,,,,,,,,,,,,,,,,,,,,,,,,,,,,,,,,,,,
0,76,76,88,1,,60f1881264ff3a7f211d186a,62c538a3d1cad5ca791df9d6,2022-07-06_09h24.34.673,Colour_Asymmetry_Pilot,2022.1.3,Win32,74.55453664,62c50e9c1127f2cd403a315f,,,,,,,,,,,,,,,,,,,,,,,,,,,,,,,,,,,,,,,,,,,,,,,,,,,,,,,,,,,,,,,,,,,,,,,,,,,,,,,,,,,,,,,,,,,,,,,,,,,,,,,,,,,,,,,,,,,,,,,,,,,,,,,,,,,,,,,,,,,,,,,,,,,,,,,,,,,,,,,,,,,
0,77,77,51,1,,60f1881264ff3a7f211d186a,62c538a3d1cad5ca791df9d6,2022-07-06_09h24.34.673,Colour_Asymmetry_Pilot,2022.1.3,Win32,74.55453664,62c50e9c1127f2cd403a315f,,,,,,,,,,,,,,,,,,,,,,,,,,,,,,,,,,,,,,,,,,,,,,,,,,,,,,,,,,,,,,,,,,,,,,,,,,,,,,,,,,,,,,,,,,,,,,,,,,,,,,,,,,,,,,,,,,,,,,,,,,,,,,,,,,,,,,,,,,,,,,,,,,,,,,,,,,,,,,,,,,,
0,78,78,54,1,,60f1881264ff3a7f211d186a,62c538a3d1cad5ca791df9d6,2022-07-06_09h24.34.673,Colour_Asymmetry_Pilot,2022.1.3,Win32,74.55453664,62c50e9c1127f2cd403a315f,,,,,,,,,,,,,,,,,,,,,,,,,,,,,,,,,,,,,,,,,,,,,,,,,,,,,,,,,,,,,,,,,,,,,,,,,,,,,,,,,,,,,,,,,,,,,,,,,,,,,,,,,,,,,,,,,,,,,,,,,,,,,,,,,,,,,,,,,,,,,,,,,,,,,,,,,,,,,,,,,,,
0,79,79,37,1,,60f1881264ff3a7f211d186a,62c538a3d1cad5ca791df9d6,2022-07-06_09h24.34.673,Colour_Asymmetry_Pilot,2022.1.3,Win32,74.55453664,62c50e9c1127f2cd403a315f,,,,,,,,,,,,,,,,,,,,,,,,,,,,,,,,,,,,,,,,,,,,,,,,,,,,,,,,,,,,,,,,,,,,,,,,,,,,,,,,,,,,,,,,,,,,,,,,,,,,,,,,,,,,,,,,,,,,,,,,,,,,,,,,,,,,,,,,,,,,,,,,,,,,,,,,,,,,,,,,,,,
0,80,80,28,1,,60f1881264ff3a7f211d186a,62c538a3d1cad5ca791df9d6,2022-07-06_09h24.34.673,Colour_Asymmetry_Pilot,2022.1.3,Win32,74.55453664,62c50e9c1127f2cd403a315f,,,,,,,,,,,,,,,,,,,,,,,,,,,,,,,,,,,,,,,,,,,,,,,,,,,,,,,,,,,,,,,,,,,,,,,,,,,,,,,,,,,,,,,,,,,,,,,,,,,,,,,,,,,,,,,,,,,,,,,,,,,,,,,,,,,,,,,,,,,,,,,,,,,,,,,,,,,,,,,,,,,
0,81,81,4,1,,60f1881264ff3a7f211d186a,62c538a3d1cad5ca791df9d6,2022-07-06_09h24.34.673,Colour_Asymmetry_Pilot,2022.1.3,Win32,74.55453664,62c50e9c1127f2cd403a315f,,,,,,,,,,,,,,,,,,,,,,,,,,,,,,,,,,,,,,,,,,,,,,,,,,,,,,,,,,,,,,,,,,,,,,,,,,,,,,,,,,,,,,,,,,,,,,,,,,,,,,,,,,,,,,,,,,,,,,,,,,,,,,,,,,,,,,,,,,,,,,,,,,,,,,,,,,,,,,,,,,,
0,82,82,66,1,,60f1881264ff3a7f211d186a,62c538a3d1cad5ca791df9d6,2022-07-06_09h24.34.673,Colour_Asymmetry_Pilot,2022.1.3,Win32,74.55453664,62c50e9c1127f2cd403a315f,,,,,,,,,,,,,,,,,,,,,,,,,,,,,,,,,,,,,,,,,,,,,,,,,,,,,,,,,,,,,,,,,,,,,,,,,,,,,,,,,,,,,,,,,,,,,,,,,,,,,,,,,,,,,,,,,,,,,,,,,,,,,,,,,,,,,,,,,,,,,,,,,,,,,,,,,,,,,,,,,,,
0,83,83,91,1,,60f1881264ff3a7f211d186a,62c538a3d1cad5ca791df9d6,2022-07-06_09h24.34.673,Colour_Asymmetry_Pilot,2022.1.3,Win32,74.55453664,62c50e9c1127f2cd403a315f,,,,,,,,,,,,,,,,,,,,,,,,,,,,,,,,,,,,,,,,,,,,,,,,,,,,,,,,,,,,,,,,,,,,,,,,,,,,,,,,,,,,,,,,,,,,,,,,,,,,,,,,,,,,,,,,,,,,,,,,,,,,,,,,,,,,,,,,,,,,,,,,,,,,,,,,,,,,,,,,,,,
0,84,84,16,1,,60f1881264ff3a7f211d186a,62c538a3d1cad5ca791df9d6,2022-07-06_09h24.34.673,Colour_Asymmetry_Pilot,2022.1.3,Win32,74.55453664,62c50e9c1127f2cd403a315f,,,,,,,,,,,,,,,,,,,,,,,,,,,,,,,,,,,,,,,,,,,,,,,,,,,,,,,,,,,,,,,,,,,,,,,,,,,,,,,,,,,,,,,,,,,,,,,,,,,,,,,,,,,,,,,,,,,,,,,,,,,,,,,,,,,,,,,,,,,,,,,,,,,,,,,,,,,,,,,,,,,
0,85,85,30,1,,60f1881264ff3a7f211d186a,62c538a3d1cad5ca791df9d6,2022-07-06_09h24.34.673,Colour_Asymmetry_Pilot,2022.1.3,Win32,74.55453664,62c50e9c1127f2cd403a315f,,,,,,,,,,,,,,,,,,,,,,,,,,,,,,,,,,,,,,,,,,,,,,,,,,,,,,,,,,,,,,,,,,,,,,,,,,,,,,,,,,,,,,,,,,,,,,,,,,,,,,,,,,,,,,,,,,,,,,,,,,,,,,,,,,,,,,,,,,,,,,,,,,,,,,,,,,,,,,,,,,,
0,86,86,34,1,,60f1881264ff3a7f211d186a,62c538a3d1cad5ca791df9d6,2022-07-06_09h24.34.673,Colour_Asymmetry_Pilot,2022.1.3,Win32,74.55453664,62c50e9c1127f2cd403a315f,,,,,,,,,,,,,,,,,,,,,,,,,,,,,,,,,,,,,,,,,,,,,,,,,,,,,,,,,,,,,,,,,,,,,,,,,,,,,,,,,,,,,,,,,,,,,,,,,,,,,,,,,,,,,,,,,,,,,,,,,,,,,,,,,,,,,,,,,,,,,,,,,,,,,,,,,,,,,,,,,,,
0,87,87,60,1,,60f1881264ff3a7f211d186a,62c538a3d1cad5ca791df9d6,2022-07-06_09h24.34.673,Colour_Asymmetry_Pilot,2022.1.3,Win32,74.55453664,62c50e9c1127f2cd403a315f,,,,,,,,,,,,,,,,,,,,,,,,,,,,,,,,,,,,,,,,,,,,,,,,,,,,,,,,,,,,,,,,,,,,,,,,,,,,,,,,,,,,,,,,,,,,,,,,,,,,,,,,,,,,,,,,,,,,,,,,,,,,,,,,,,,,,,,,,,,,,,,,,,,,,,,,,,,,,,,,,,,
0,88,88,84,1,,60f1881264ff3a7f211d186a,62c538a3d1cad5ca791df9d6,2022-07-06_09h24.34.673,Colour_Asymmetry_Pilot,2022.1.3,Win32,74.55453664,62c50e9c1127f2cd403a315f,,,,,,,,,,,,,,,,,,,,,,,,,,,,,,,,,,,,,,,,,,,,,,,,,,,,,,,,,,,,,,,,,,,,,,,,,,,,,,,,,,,,,,,,,,,,,,,,,,,,,,,,,,,,,,,,,,,,,,,,,,,,,,,,,,,,,,,,,,,,,,,,,,,,,,,,,,,,,,,,,,,
0,89,89,44,1,,60f1881264ff3a7f211d186a,62c538a3d1cad5ca791df9d6,2022-07-06_09h24.34.673,Colour_Asymmetry_Pilot,2022.1.3,Win32,74.55453664,62c50e9c1127f2cd403a315f,,,,,,,,,,,,,,,,,,,,,,,,,,,,,,,,,,,,,,,,,,,,,,,,,,,,,,,,,,,,,,,,,,,,,,,,,,,,,,,,,,,,,,,,,,,,,,,,,,,,,,,,,,,,,,,,,,,,,,,,,,,,,,,,,,,,,,,,,,,,,,,,,,,,,,,,,,,,,,,,,,,
0,90,90,14,1,,60f1881264ff3a7f211d186a,62c538a3d1cad5ca791df9d6,2022-07-06_09h24.34.673,Colour_Asymmetry_Pilot,2022.1.3,Win32,74.55453664,62c50e9c1127f2cd403a315f,,,,,,,,,,,,,,,,,,,,,,,,,,,,,,,,,,,,,,,,,,,,,,,,,,,,,,,,,,,,,,,,,,,,,,,,,,,,,,,,,,,,,,,,,,,,,,,,,,,,,,,,,,,,,,,,,,,,,,,,,,,,,,,,,,,,,,,,,,,,,,,,,,,,,,,,,,,,,,,,,,,
0,91,91,24,1,,60f1881264ff3a7f211d186a,62c538a3d1cad5ca791df9d6,2022-07-06_09h24.34.673,Colour_Asymmetry_Pilot,2022.1.3,Win32,74.55453664,62c50e9c1127f2cd403a315f,,,,,,,,,,,,,,,,,,,,,,,,,,,,,,,,,,,,,,,,,,,,,,,,,,,,,,,,,,,,,,,,,,,,,,,,,,,,,,,,,,,,,,,,,,,,,,,,,,,,,,,,,,,,,,,,,,,,,,,,,,,,,,,,,,,,,,,,,,,,,,,,,,,,,,,,,,,,,,,,,,,
0,92,92,69,1,,60f1881264ff3a7f211d186a,62c538a3d1cad5ca791df9d6,2022-07-06_09h24.34.673,Colour_Asymmetry_Pilot,2022.1.3,Win32,74.55453664,62c50e9c1127f2cd403a315f,,,,,,,,,,,,,,,,,,,,,,,,,,,,,,,,,,,,,,,,,,,,,,,,,,,,,,,,,,,,,,,,,,,,,,,,,,,,,,,,,,,,,,,,,,,,,,,,,,,,,,,,,,,,,,,,,,,,,,,,,,,,,,,,,,,,,,,,,,,,,,,,,,,,,,,,,,,,,,,,,,,
,,,,,,60f1881264ff3a7f211d186a,62c538a3d1cad5ca791df9d6,2022-07-06_09h24.34.673,Colour_Asymmetry_Pilot,2022.1.3,Win32,74.55453664,62c50e9c1127f2cd403a315f,0,0,0,16,1,onetwo,,,,,,,,,,,,,,,,,,,,,,,,,,,,,,,,,,,,,,,,,,,,,,,,,,,,,,,,,,,,,,,,,,,,,,,,,,,,,,,,,,,,,,,,,,,,,,,,,,,,,,,,,,,,,,,,,,,,,,,,,,,,,,,,,,,,,,,,,,,,,,,,,,,,,,,,,,,,,
,,,,,,60f1881264ff3a7f211d186a,62c538a3d1cad5ca791df9d6,2022-07-06_09h24.34.673,Colour_Asymmetry_Pilot,2022.1.3,Win32,74.55453664,62c50e9c1127f2cd403a315f,0,1,1,9,1,onethree,,,,,,,,,,,,,,,,,,,,,,,,,,,,,,,,,,,,,,,,,,,,,,,,,,,,,,,,,,,,,,,,,,,,,,,,,,,,,,,,,,,,,,,,,,,,,,,,,,,,,,,,,,,,,,,,,,,,,,,,,,,,,,,,,,,,,,,,,,,,,,,,,,,,,,,,,,,,,
,,,,,,60f1881264ff3a7f211d186a,62c538a3d1cad5ca791df9d6,2022-07-06_09h24.34.673,Colour_Asymmetry_Pilot,2022.1.3,Win32,74.55453664,62c50e9c1127f2cd403a315f,0,2,2,156,1,threeone,,,,,,,,,,,,,,,,,,,,,,,,,,,,,,,,,,,,,,,,,,,,,,,,,,,,,,,,,,,,,,,,,,,,,,,,,,,,,,,,,,,,,,,,,,,,,,,,,,,,,,,,,,,,,,,,,,,,,,,,,,,,,,,,,,,,,,,,,,,,,,,,,,,,,,,,,,,,,
,,,,,,60f1881264ff3a7f211d186a,62c538a3d1cad5ca791df9d6,2022-07-06_09h24.34.673,Colour_Asymmetry_Pilot,2022.1.3,Win32,74.55453664,62c50e9c1127f2cd403a315f,0,3,3,151,1,fourthree,,,,,,,,,,,,,,,,,,,,,,,,,,,,,,,,,,,,,,,,,,,,,,,,,,,,,,,,,,,,,,,,,,,,,,,,,,,,,,,,,,,,,,,,,,,,,,,,,,,,,,,,,,,,,,,,,,,,,,,,,,,,,,,,,,,,,,,,,,,,,,,,,,,,,,,,,,,,,
,,,,,,60f1881264ff3a7f211d186a,62c538a3d1cad5ca791df9d6,2022-07-06_09h24.34.673,Colour_Asymmetry_Pilot,2022.1.3,Win32,74.55453664,62c50e9c1127f2cd403a315f,0,4,4,43,1,twofour,,,,,,,,,,,,,,,,,,,,,,,,,,,,,,,,,,,,,,,,,,,,,,,,,,,,,,,,,,,,,,,,,,,,,,,,,,,,,,,,,,,,,,,,,,,,,,,,,,,,,,,,,,,,,,,,,,,,,,,,,,,,,,,,,,,,,,,,,,,,,,,,,,,,,,,,,,,,,
,,,,,,60f1881264ff3a7f211d186a,62c538a3d1cad5ca791df9d6,2022-07-06_09h24.34.673,Colour_Asymmetry_Pilot,2022.1.3,Win32,74.55453664,62c50e9c1127f2cd403a315f,0,5,5,1,1,onethree,,,,,,,,,,,,,,,,,,,,,,,,,,,,,,,,,,,,,,,,,,,,,,,,,,,,,,,,,,,,,,,,,,,,,,,,,,,,,,,,,,,,,,,,,,,,,,,,,,,,,,,,,,,,,,,,,,,,,,,,,,,,,,,,,,,,,,,,,,,,,,,,,,,,,,,,,,,,,
,,,,,,60f1881264ff3a7f211d186a,62c538a3d1cad5ca791df9d6,2022-07-06_09h24.34.673,Colour_Asymmetry_Pilot,2022.1.3,Win32,74.55453664,62c50e9c1127f2cd403a315f,0,6,6,23,1,fourthree,,,,,,,,,,,,,,,,,,,,,,,,,,,,,,,,,,,,,,,,,,,,,,,,,,,,,,,,,,,,,,,,,,,,,,,,,,,,,,,,,,,,,,,,,,,,,,,,,,,,,,,,,,,,,,,,,,,,,,,,,,,,,,,,,,,,,,,,,,,,,,,,,,,,,,,,,,,,,
,,,,,,60f1881264ff3a7f211d186a,62c538a3d1cad5ca791df9d6,2022-07-06_09h24.34.673,Colour_Asymmetry_Pilot,2022.1.3,Win32,74.55453664,62c50e9c1127f2cd403a315f,0,7,7,101,1,threefour,,,,,,,,,,,,,,,,,,,,,,,,,,,,,,,,,,,,,,,,,,,,,,,,,,,,,,,,,,,,,,,,,,,,,,,,,,,,,,,,,,,,,,,,,,,,,,,,,,,,,,,,,,,,,,,,,,,,,,,,,,,,,,,,,,,,,,,,,,,,,,,,,,,,,,,,,,,,,
,,,,,,60f1881264ff3a7f211d186a,62c538a3d1cad5ca791df9d6,2022-07-06_09h24.34.673,Colour_Asymmetry_Pilot,2022.1.3,Win32,74.55453664,62c50e9c1127f2cd403a315f,0,8,8,69,1,threefour,,,,,,,,,,,,,,,,,,,,,,,,,,,,,,,,,,,,,,,,,,,,,,,,,,,,,,,,,,,,,,,,,,,,,,,,,,,,,,,,,,,,,,,,,,,,,,,,,,,,,,,,,,,,,,,,,,,,,,,,,,,,,,,,,,,,,,,,,,,,,,,,,,,,,,,,,,,,,
,,,,,,60f1881264ff3a7f211d186a,62c538a3d1cad5ca791df9d6,2022-07-06_09h24.34.673,Colour_Asymmetry_Pilot,2022.1.3,Win32,74.55453664,62c50e9c1127f2cd403a315f,0,9,9,78,1,fourtwo,,,,,,,,,,,,,,,,,,,,,,,,,,,,,,,,,,,,,,,,,,,,,,,,,,,,,,,,,,,,,,,,,,,,,,,,,,,,,,,,,,,,,,,,,,,,,,,,,,,,,,,,,,,,,,,,,,,,,,,,,,,,,,,,,,,,,,,,,,,,,,,,,,,,,,,,,,,,,
,,,,,,60f1881264ff3a7f211d186a,62c538a3d1cad5ca791df9d6,2022-07-06_09h24.34.673,Colour_Asymmetry_Pilot,2022.1.3,Win32,74.55453664,62c50e9c1127f2cd403a315f,0,10,10,144,1,onetwo,,,,,,,,,,,,,,,,,,,,,,,,,,,,,,,,,,,,,,,,,,,,,,,,,,,,,,,,,,,,,,,,,,,,,,,,,,,,,,,,,,,,,,,,,,,,,,,,,,,,,,,,,,,,,,,,,,,,,,,,,,,,,,,,,,,,,,,,,,,,,,,,,,,,,,,,,,,,,
,,,,,,60f1881264ff3a7f211d186a,62c538a3d1cad5ca791df9d6,2022-07-06_09h24.34.673,Colour_Asymmetry_Pilot,2022.1.3,Win32,74.55453664,62c50e9c1127f2cd403a315f,0,11,11,4,1,threeone,,,,,,,,,,,,,,,,,,,,,,,,,,,,,,,,,,,,,,,,,,,,,,,,,,,,,,,,,,,,,,,,,,,,,,,,,,,,,,,,,,,,,,,,,,,,,,,,,,,,,,,,,,,,,,,,,,,,,,,,,,,,,,,,,,,,,,,,,,,,,,,,,,,,,,,,,,,,,
,,,,,,60f1881264ff3a7f211d186a,62c538a3d1cad5ca791df9d6,2022-07-06_09h24.34.673,Colour_Asymmetry_Pilot,2022.1.3,Win32,74.55453664,62c50e9c1127f2cd403a315f,0,12,12,94,1,fourtwo,,,,,,,,,,,,,,,,,,,,,,,,,,,,,,,,,,,,,,,,,,,,,,,,,,,,,,,,,,,,,,,,,,,,,,,,,,,,,,,,,,,,,,,,,,,,,,,,,,,,,,,,,,,,,,,,,,,,,,,,,,,,,,,,,,,,,,,,,,,,,,,,,,,,,,,,,,,,,
,,,,,,60f1881264ff3a7f211d186a,62c538a3d1cad5ca791df9d6,2022-07-06_09h24.34.673,Colour_Asymmetry_Pilot,2022.1.3,Win32,74.55453664,62c50e9c1127f2cd403a315f,0,13,13,142,1,fourtwo,,,,,,,,,,,,,,,,,,,,,,,,,,,,,,,,,,,,,,,,,,,,,,,,,,,,,,,,,,,,,,,,,,,,,,,,,,,,,,,,,,,,,,,,,,,,,,,,,,,,,,,,,,,,,,,,,,,,,,,,,,,,,,,,,,,,,,,,,,,,,,,,,,,,,,,,,,,,,
,,,,,,60f1881264ff3a7f211d186a,62c538a3d1cad5ca791df9d6,2022-07-06_09h24.34.673,Colour_Asymmetry_Pilot,2022.1.3,Win32,74.55453664,62c50e9c1127f2cd403a315f,0,14,14,52,1,threeone,,,,,,,,,,,,,,,,,,,,,,,,,,,,,,,,,,,,,,,,,,,,,,,,,,,,,,,,,,,,,,,,,,,,,,,,,,,,,,,,,,,,,,,,,,,,,,,,,,,,,,,,,,,,,,,,,,,,,,,,,,,,,,,,,,,,,,,,,,,,,,,,,,,,,,,,,,,,,
,,,,,,60f1881264ff3a7f211d186a,62c538a3d1cad5ca791df9d6,2022-07-06_09h24.34.673,Colour_Asymmetry_Pilot,2022.1.3,Win32,74.55453664,62c50e9c1127f2cd403a315f,0,15,15,91,1,twofour,,,,,,,,,,,,,,,,,,,,,,,,,,,,,,,,,,,,,,,,,,,,,,,,,,,,,,,,,,,,,,,,,,,,,,,,,,,,,,,,,,,,,,,,,,,,,,,,,,,,,,,,,,,,,,,,,,,,,,,,,,,,,,,,,,,,,,,,,,,,,,,,,,,,,,,,,,,,,
,,,,,,60f1881264ff3a7f211d186a,62c538a3d1cad5ca791df9d6,2022-07-06_09h24.34.673,Colour_Asymmetry_Pilot,2022.1.3,Win32,74.55453664,62c50e9c1127f2cd403a315f,0,16,16,118,1,fourtwo,,,,,,,,,,,,,,,,,,,,,,,,,,,,,,,,,,,,,,,,,,,,,,,,,,,,,,,,,,,,,,,,,,,,,,,,,,,,,,,,,,,,,,,,,,,,,,,,,,,,,,,,,,,,,,,,,,,,,,,,,,,,,,,,,,,,,,,,,,,,,,,,,,,,,,,,,,,,,
,,,,,,60f1881264ff3a7f211d186a,62c538a3d1cad5ca791df9d6,2022-07-06_09h24.34.673,Colour_Asymmetry_Pilot,2022.1.3,Win32,74.55453664,62c50e9c1127f2cd403a315f,0,17,17,18,1,twoone,,,,,,,,,,,,,,,,,,,,,,,,,,,,,,,,,,,,,,,,,,,,,,,,,,,,,,,,,,,,,,,,,,,,,,,,,,,,,,,,,,,,,,,,,,,,,,,,,,,,,,,,,,,,,,,,,,,,,,,,,,,,,,,,,,,,,,,,,,,,,,,,,,,,,,,,,,,,,
,,,,,,60f1881264ff3a7f211d186a,62c538a3d1cad5ca791df9d6,2022-07-06_09h24.34.673,Colour_Asymmetry_Pilot,2022.1.3,Win32,74.55453664,62c50e9c1127f2cd403a315f,0,18,18,61,1,threefour,,,,,,,,,,,,,,,,,,,,,,,,,,,,,,,,,,,,,,,,,,,,,,,,,,,,,,,,,,,,,,,,,,,,,,,,,,,,,,,,,,,,,,,,,,,,,,,,,,,,,,,,,,,,,,,,,,,,,,,,,,,,,,,,,,,,,,,,,,,,,,,,,,,,,,,,,,,,,
,,,,,,60f1881264ff3a7f211d186a,62c538a3d1cad5ca791df9d6,2022-07-06_09h24.34.673,Colour_Asymmetry_Pilot,2022.1.3,Win32,74.55453664,62c50e9c1127f2cd403a315f,0,19,19,115,1,twofour,,,,,,,,,,,,,,,,,,,,,,,,,,,,,,,,,,,,,,,,,,,,,,,,,,,,,,,,,,,,,,,,,,,,,,,,,,,,,,,,,,,,,,,,,,,,,,,,,,,,,,,,,,,,,,,,,,,,,,,,,,,,,,,,,,,,,,,,,,,,,,,,,,,,,,,,,,,,,
,,,,,,60f1881264ff3a7f211d186a,62c538a3d1cad5ca791df9d6,2022-07-06_09h24.34.673,Colour_Asymmetry_Pilot,2022.1.3,Win32,74.55453664,62c50e9c1127f2cd403a315f,0,20,20,56,1,onetwo,,,,,,,,,,,,,,,,,,,,,,,,,,,,,,,,,,,,,,,,,,,,,,,,,,,,,,,,,,,,,,,,,,,,,,,,,,,,,,,,,,,,,,,,,,,,,,,,,,,,,,,,,,,,,,,,,,,,,,,,,,,,,,,,,,,,,,,,,,,,,,,,,,,,,,,,,,,,,
,,,,,,60f1881264ff3a7f211d186a,62c538a3d1cad5ca791df9d6,2022-07-06_09h24.34.673,Colour_Asymmetry_Pilot,2022.1.3,Win32,74.55453664,62c50e9c1127f2cd403a315f,0,21,21,39,1,fourthree,,,,,,,,,,,,,,,,,,,,,,,,,,,,,,,,,,,,,,,,,,,,,,,,,,,,,,,,,,,,,,,,,,,,,,,,,,,,,,,,,,,,,,,,,,,,,,,,,,,,,,,,,,,,,,,,,,,,,,,,,,,,,,,,,,,,,,,,,,,,,,,,,,,,,,,,,,,,,
,,,,,,60f1881264ff3a7f211d186a,62c538a3d1cad5ca791df9d6,2022-07-06_09h24.34.673,Colour_Asymmetry_Pilot,2022.1.3,Win32,74.55453664,62c50e9c1127f2cd403a315f,0,22,22,113,1,onethree,,,,,,,,,,,,,,,,,,,,,,,,,,,,,,,,,,,,,,,,,,,,,,,,,,,,,,,,,,,,,,,,,,,,,,,,,,,,,,,,,,,,,,,,,,,,,,,,,,,,,,,,,,,,,,,,,,,,,,,,,,,,,,,,,,,,,,,,,,,,,,,,,,,,,,,,,,,,,
,,,,,,60f1881264ff3a7f211d186a,62c538a3d1cad5ca791df9d6,2022-07-06_09h24.34.673,Colour_Asymmetry_Pilot,2022.1.3,Win32,74.55453664,62c50e9c1127f2cd403a315f,0,23,23,131,1,twofour,,,,,,,,,,,,,,,,,,,,,,,,,,,,,,,,,,,,,,,,,,,,,,,,,,,,,,,,,,,,,,,,,,,,,,,,,,,,,,,,,,,,,,,,,,,,,,,,,,,,,,,,,,,,,,,,,,,,,,,,,,,,,,,,,,,,,,,,,,,,,,,,,,,,,,,,,,,,,
,,,,,,60f1881264ff3a7f211d186a,62c538a3d1cad5ca791df9d6,2022-07-06_09h24.34.673,Colour_Asymmetry_Pilot,2022.1.3,Win32,74.55453664,62c50e9c1127f2cd403a315f,0,24,24,63,1,fourthree,,,,,,,,,,,,,,,,,,,,,,,,,,,,,,,,,,,,,,,,,,,,,,,,,,,,,,,,,,,,,,,,,,,,,,,,,,,,,,,,,,,,,,,,,,,,,,,,,,,,,,,,,,,,,,,,,,,,,,,,,,,,,,,,,,,,,,,,,,,,,,,,,,,,,,,,,,,,,
,,,,,,60f1881264ff3a7f211d186a,62c538a3d1cad5ca791df9d6,2022-07-06_09h24.34.673,Colour_Asymmetry_Pilot,2022.1.3,Win32,74.55453664,62c50e9c1127f2cd403a315f,0,25,25,153,1,onethree,,,,,,,,,,,,,,,,,,,,,,,,,,,,,,,,,,,,,,,,,,,,,,,,,,,,,,,,,,,,,,,,,,,,,,,,,,,,,,,,,,,,,,,,,,,,,,,,,,,,,,,,,,,,,,,,,,,,,,,,,,,,,,,,,,,,,,,,,,,,,,,,,,,,,,,,,,,,,
,,,,,,60f1881264ff3a7f211d186a,62c538a3d1cad5ca791df9d6,2022-07-06_09h24.34.673,Colour_Asymmetry_Pilot,2022.1.3,Win32,74.55453664,62c50e9c1127f2cd403a315f,0,26,26,97,1,onethree,,,,,,,,,,,,,,,,,,,,,,,,,,,,,,,,,,,,,,,,,,,,,,,,,,,,,,,,,,,,,,,,,,,,,,,,,,,,,,,,,,,,,,,,,,,,,,,,,,,,,,,,,,,,,,,,,,,,,,,,,,,,,,,,,,,,,,,,,,,,,,,,,,,,,,,,,,,,,
,,,,,,60f1881264ff3a7f211d186a,62c538a3d1cad5ca791df9d6,2022-07-06_09h24.34.673,Colour_Asymmetry_Pilot,2022.1.3,Win32,74.55453664,62c50e9c1127f2cd403a315f,0,27,27,145,1,onethree,,,,,,,,,,,,,,,,,,,,,,,,,,,,,,,,,,,,,,,,,,,,,,,,,,,,,,,,,,,,,,,,,,,,,,,,,,,,,,,,,,,,,,,,,,,,,,,,,,,,,,,,,,,,,,,,,,,,,,,,,,,,,,,,,,,,,,,,,,,,,,,,,,,,,,,,,,,,,
,,,,,,60f1881264ff3a7f211d186a,62c538a3d1cad5ca791df9d6,2022-07-06_09h24.34.673,Colour_Asymmetry_Pilot,2022.1.3,Win32,74.55453664,62c50e9c1127f2cd403a315f,0,28,28,80,1,onetwo,,,,,,,,,,,,,,,,,,,,,,,,,,,,,,,,,,,,,,,,,,,,,,,,,,,,,,,,,,,,,,,,,,,,,,,,,,,,,,,,,,,,,,,,,,,,,,,,,,,,,,,,,,,,,,,,,,,,,,,,,,,,,,,,,,,,,,,,,,,,,,,,,,,,,,,,,,,,,
,,,,,,60f1881264ff3a7f211d186a,62c538a3d1cad5ca791df9d6,2022-07-06_09h24.34.673,Colour_Asymmetry_Pilot,2022.1.3,Win32,74.55453664,62c50e9c1127f2cd403a315f,0,29,29,62,1,fourtwo,,,,,,,,,,,,,,,,,,,,,,,,,,,,,,,,,,,,,,,,,,,,,,,,,,,,,,,,,,,,,,,,,,,,,,,,,,,,,,,,,,,,,,,,,,,,,,,,,,,,,,,,,,,,,,,,,,,,,,,,,,,,,,,,,,,,,,,,,,,,,,,,,,,,,,,,,,,,,
,,,,,,60f1881264ff3a7f211d186a,62c538a3d1cad5ca791df9d6,2022-07-06_09h24.34.673,Colour_Asymmetry_Pilot,2022.1.3,Win32,74.55453664,62c50e9c1127f2cd403a315f,0,30,30,141,1,threefour,,,,,,,,,,,,,,,,,,,,,,,,,,,,,,,,,,,,,,,,,,,,,,,,,,,,,,,,,,,,,,,,,,,,,,,,,,,,,,,,,,,,,,,,,,,,,,,,,,,,,,,,,,,,,,,,,,,,,,,,,,,,,,,,,,,,,,,,,,,,,,,,,,,,,,,,,,,,,
,,,,,,60f1881264ff3a7f211d186a,62c538a3d1cad5ca791df9d6,2022-07-06_09h24.34.673,Colour_Asymmetry_Pilot,2022.1.3,Win32,74.55453664,62c50e9c1127f2cd403a315f,0,31,31,102,1,fourtwo,,,,,,,,,,,,,,,,,,,,,,,,,,,,,,,,,,,,,,,,,,,,,,,,,,,,,,,,,,,,,,,,,,,,,,,,,,,,,,,,,,,,,,,,,,,,,,,,,,,,,,,,,,,,,,,,,,,,,,,,,,,,,,,,,,,,,,,,,,,,,,,,,,,,,,,,,,,,,
,,,,,,60f1881264ff3a7f211d186a,62c538a3d1cad5ca791df9d6,2022-07-06_09h24.34.673,Colour_Asymmetry_Pilot,2022.1.3,Win32,74.55453664,62c50e9c1127f2cd403a315f,0,32,32,147,1,twofour,,,,,,,,,,,,,,,,,,,,,,,,,,,,,,,,,,,,,,,,,,,,,,,,,,,,,,,,,,,,,,,,,,,,,,,,,,,,,,,,,,,,,,,,,,,,,,,,,,,,,,,,,,,,,,,,,,,,,,,,,,,,,,,,,,,,,,,,,,,,,,,,,,,,,,,,,,,,,
,,,,,,60f1881264ff3a7f211d186a,62c538a3d1cad5ca791df9d6,2022-07-06_09h24.34.673,Colour_Asymmetry_Pilot,2022.1.3,Win32,74.55453664,62c50e9c1127f2cd403a315f,0,33,33,59,1,twofour,,,,,,,,,,,,,,,,,,,,,,,,,,,,,,,,,,,,,,,,,,,,,,,,,,,,,,,,,,,,,,,,,,,,,,,,,,,,,,,,,,,,,,,,,,,,,,,,,,,,,,,,,,,,,,,,,,,,,,,,,,,,,,,,,,,,,,,,,,,,,,,,,,,,,,,,,,,,,
,,,,,,60f1881264ff3a7f211d186a,62c538a3d1cad5ca791df9d6,2022-07-06_09h24.34.673,Colour_Asymmetry_Pilot,2022.1.3,Win32,74.55453664,62c50e9c1127f2cd403a315f,0,34,34,140,1,threeone,,,,,,,,,,,,,,,,,,,,,,,,,,,,,,,,,,,,,,,,,,,,,,,,,,,,,,,,,,,,,,,,,,,,,,,,,,,,,,,,,,,,,,,,,,,,,,,,,,,,,,,,,,,,,,,,,,,,,,,,,,,,,,,,,,,,,,,,,,,,,,,,,,,,,,,,,,,,,
,,,,,,60f1881264ff3a7f211d186a,62c538a3d1cad5ca791df9d6,2022-07-06_09h24.34.673,Colour_Asymmetry_Pilot,2022.1.3,Win32,74.55453664,62c50e9c1127f2cd403a315f,0,35,35,40,1,onetwo,,,,,,,,,,,,,,,,,,,,,,,,,,,,,,,,,,,,,,,,,,,,,,,,,,,,,,,,,,,,,,,,,,,,,,,,,,,,,,,,,,,,,,,,,,,,,,,,,,,,,,,,,,,,,,,,,,,,,,,,,,,,,,,,,,,,,,,,,,,,,,,,,,,,,,,,,,,,,
,,,,,,60f1881264ff3a7f211d186a,62c538a3d1cad5ca791df9d6,2022-07-06_09h24.34.673,Colour_Asymmetry_Pilot,2022.1.3,Win32,74.55453664,62c50e9c1127f2cd403a315f,0,36,36,133,1,threefour,,,,,,,,,,,,,,,,,,,,,,,,,,,,,,,,,,,,,,,,,,,,,,,,,,,,,,,,,,,,,,,,,,,,,,,,,,,,,,,,,,,,,,,,,,,,,,,,,,,,,,,,,,,,,,,,,,,,,,,,,,,,,,,,,,,,,,,,,,,,,,,,,,,,,,,,,,,,,
,,,,,,60f1881264ff3a7f211d186a,62c538a3d1cad5ca791df9d6,2022-07-06_09h24.34.673,Colour_Asymmetry_Pilot,2022.1.3,Win32,74.55453664,62c50e9c1127f2cd403a315f,0,37,37,42,1,twoone,,,,,,,,,,,,,,,,,,,,,,,,,,,,,,,,,,,,,,,,,,,,,,,,,,,,,,,,,,,,,,,,,,,,,,,,,,,,,,,,,,,,,,,,,,,,,,,,,,,,,,,,,,,,,,,,,,,,,,,,,,,,,,,,,,,,,,,,,,,,,,,,,,,,,,,,,,,,,
,,,,,,60f1881264ff3a7f211d186a,62c538a3d1cad5ca791df9d6,2022-07-06_09h24.34.673,Colour_Asymmetry_Pilot,2022.1.3,Win32,74.55453664,62c50e9c1127f2cd403a315f,0,38,38,50,1,twoone,,,,,,,,,,,,,,,,,,,,,,,,,,,,,,,,,,,,,,,,,,,,,,,,,,,,,,,,,,,,,,,,,,,,,,,,,,,,,,,,,,,,,,,,,,,,,,,,,,,,,,,,,,,,,,,,,,,,,,,,,,,,,,,,,,,,,,,,,,,,,,,,,,,,,,,,,,,,,
,,,,,,60f1881264ff3a7f211d186a,62c538a3d1cad5ca791df9d6,2022-07-06_09h24.34.673,Colour_Asymmetry_Pilot,2022.1.3,Win32,74.55453664,62c50e9c1127f2cd403a315f,0,39,39,21,1,threefour,,,,,,,,,,,,,,,,,,,,,,,,,,,,,,,,,,,,,,,,,,,,,,,,,,,,,,,,,,,,,,,,,,,,,,,,,,,,,,,,,,,,,,,,,,,,,,,,,,,,,,,,,,,,,,,,,,,,,,,,,,,,,,,,,,,,,,,,,,,,,,,,,,,,,,,,,,,,,
,,,,,,60f1881264ff3a7f211d186a,62c538a3d1cad5ca791df9d6,2022-07-06_09h24.34.673,Colour_Asymmetry_Pilot,2022.1.3,Win32,74.55453664,62c50e9c1127f2cd403a315f,0,40,40,26,1,twoone,,,,,,,,,,,,,,,,,,,,,,,,,,,,,,,,,,,,,,,,,,,,,,,,,,,,,,,,,,,,,,,,,,,,,,,,,,,,,,,,,,,,,,,,,,,,,,,,,,,,,,,,,,,,,,,,,,,,,,,,,,,,,,,,,,,,,,,,,,,,,,,,,,,,,,,,,,,,,
,,,,,,60f1881264ff3a7f211d186a,62c538a3d1cad5ca791df9d6,2022-07-06_09h24.34.673,Colour_Asymmetry_Pilot,2022.1.3,Win32,74.55453664,62c50e9c1127f2cd403a315f,0,41,41,70,1,fourtwo,,,,,,,,,,,,,,,,,,,,,,,,,,,,,,,,,,,,,,,,,,,,,,,,,,,,,,,,,,,,,,,,,,,,,,,,,,,,,,,,,,,,,,,,,,,,,,,,,,,,,,,,,,,,,,,,,,,,,,,,,,,,,,,,,,,,,,,,,,,,,,,,,,,,,,,,,,,,,
,,,,,,60f1881264ff3a7f211d186a,62c538a3d1cad5ca791df9d6,2022-07-06_09h24.34.673,Colour_Asymmetry_Pilot,2022.1.3,Win32,74.55453664,62c50e9c1127f2cd403a315f,0,42,42,129,1,onethree,,,,,,,,,,,,,,,,,,,,,,,,,,,,,,,,,,,,,,,,,,,,,,,,,,,,,,,,,,,,,,,,,,,,,,,,,,,,,,,,,,,,,,,,,,,,,,,,,,,,,,,,,,,,,,,,,,,,,,,,,,,,,,,,,,,,,,,,,,,,,,,,,,,,,,,,,,,,,
,,,,,,60f1881264ff3a7f211d186a,62c538a3d1cad5ca791df9d6,2022-07-06_09h24.34.673,Colour_Asymmetry_Pilot,2022.1.3,Win32,74.55453664,62c50e9c1127f2cd403a315f,0,43,43,20,1,threeone,,,,,,,,,,,,,,,,,,,,,,,,,,,,,,,,,,,,,,,,,,,,,,,,,,,,,,,,,,,,,,,,,,,,,,,,,,,,,,,,,,,,,,,,,,,,,,,,,,,,,,,,,,,,,,,,,,,,,,,,,,,,,,,,,,,,,,,,,,,,,,,,,,,,,,,,,,,,,
,,,,,,60f1881264ff3a7f211d186a,62c538a3d1cad5ca791df9d6,2022-07-06_09h24.34.673,Colour_Asymmetry_Pilot,2022.1.3,Win32,74.55453664,62c50e9c1127f2cd403a315f,0,44,44,137,1,onethree,,,,,,,,,,,,,,,,,,,,,,,,,,,,,,,,,,,,,,,,,,,,,,,,,,,,,,,,,,,,,,,,,,,,,,,,,,,,,,,,,,,,,,,,,,,,,,,,,,,,,,,,,,,,,,,,,,,,,,,,,,,,,,,,,,,,,,,,,,,,,,,,,,,,,,,,,,,,,
,,,,,,60f1881264ff3a7f211d186a,62c538a3d1cad5ca791df9d6,2022-07-06_09h24.34.673,Colour_Asymmetry_Pilot,2022.1.3,Win32,74.55453664,62c50e9c1127f2cd403a315f,0,45,45,108,1,threeone,,,,,,,,,,,,,,,,,,,,,,,,,,,,,,,,,,,,,,,,,,,,,,,,,,,,,,,,,,,,,,,,,,,,,,,,,,,,,,,,,,,,,,,,,,,,,,,,,,,,,,,,,,,,,,,,,,,,,,,,,,,,,,,,,,,,,,,,,,,,,,,,,,,,,,,,,,,,,
,,,,,,60f1881264ff3a7f211d186a,62c538a3d1cad5ca791df9d6,2022-07-06_09h24.34.673,Colour_Asymmetry_Pilot,2022.1.3,Win32,74.55453664,62c50e9c1127f2cd403a315f,0,46,46,100,1,threeone,,,,,,,,,,,,,,,,,,,,,,,,,,,,,,,,,,,,,,,,,,,,,,,,,,,,,,,,,,,,,,,,,,,,,,,,,,,,,,,,,,,,,,,,,,,,,,,,,,,,,,,,,,,,,,,,,,,,,,,,,,,,,,,,,,,,,,,,,,,,,,,,,,,,,,,,,,,,,
,,,,,,60f1881264ff3a7f211d186a,62c538a3d1cad5ca791df9d6,2022-07-06_09h24.34.673,Colour_Asymmetry_Pilot,2022.1.3,Win32,74.55453664,62c50e9c1127f2cd403a315f,0,47,47,120,1,onetwo,,,,,,,,,,,,,,,,,,,,,,,,,,,,,,,,,,,,,,,,,,,,,,,,,,,,,,,,,,,,,,,,,,,,,,,,,,,,,,,,,,,,,,,,,,,,,,,,,,,,,,,,,,,,,,,,,,,,,,,,,,,,,,,,,,,,,,,,,,,,,,,,,,,,,,,,,,,,,
,,,,,,60f1881264ff3a7f211d186a,62c538a3d1cad5ca791df9d6,2022-07-06_09h24.34.673,Colour_Asymmetry_Pilot,2022.1.3,Win32,74.55453664,62c50e9c1127f2cd403a315f,0,48,48,114,1,twoone,,,,,,,,,,,,,,,,,,,,,,,,,,,,,,,,,,,,,,,,,,,,,,,,,,,,,,,,,,,,,,,,,,,,,,,,,,,,,,,,,,,,,,,,,,,,,,,,,,,,,,,,,,,,,,,,,,,,,,,,,,,,,,,,,,,,,,,,,,,,,,,,,,,,,,,,,,,,,
,,,,,,60f1881264ff3a7f211d186a,62c538a3d1cad5ca791df9d6,2022-07-06_09h24.34.673,Colour_Asymmetry_Pilot,2022.1.3,Win32,74.55453664,62c50e9c1127f2cd403a315f,0,49,49,33,1,onethree,,,,,,,,,,,,,,,,,,,,,,,,,,,,,,,,,,,,,,,,,,,,,,,,,,,,,,,,,,,,,,,,,,,,,,,,,,,,,,,,,,,,,,,,,,,,,,,,,,,,,,,,,,,,,,,,,,,,,,,,,,,,,,,,,,,,,,,,,,,,,,,,,,,,,,,,,,,,,
,,,,,,60f1881264ff3a7f211d186a,62c538a3d1cad5ca791df9d6,2022-07-06_09h24.34.673,Colour_Asymmetry_Pilot,2022.1.3,Win32,74.55453664,62c50e9c1127f2cd403a315f,0,50,50,72,1,onetwo,,,,,,,,,,,,,,,,,,,,,,,,,,,,,,,,,,,,,,,,,,,,,,,,,,,,,,,,,,,,,,,,,,,,,,,,,,,,,,,,,,,,,,,,,,,,,,,,,,,,,,,,,,,,,,,,,,,,,,,,,,,,,,,,,,,,,,,,,,,,,,,,,,,,,,,,,,,,,
,,,,,,60f1881264ff3a7f211d186a,62c538a3d1cad5ca791df9d6,2022-07-06_09h24.34.673,Colour_Asymmetry_Pilot,2022.1.3,Win32,74.55453664,62c50e9c1127f2cd403a315f,0,51,51,135,1,fourthree,,,,,,,,,,,,,,,,,,,,,,,,,,,,,,,,,,,,,,,,,,,,,,,,,,,,,,,,,,,,,,,,,,,,,,,,,,,,,,,,,,,,,,,,,,,,,,,,,,,,,,,,,,,,,,,,,,,,,,,,,,,,,,,,,,,,,,,,,,,,,,,,,,,,,,,,,,,,,
,,,,,,60f1881264ff3a7f211d186a,62c538a3d1cad5ca791df9d6,2022-07-06_09h24.34.673,Colour_Asymmetry_Pilot,2022.1.3,Win32,74.55453664,62c50e9c1127f2cd403a315f,0,52,52,87,1,fourthree,,,,,,,,,,,,,,,,,,,,,,,,,,,,,,,,,,,,,,,,,,,,,,,,,,,,,,,,,,,,,,,,,,,,,,,,,,,,,,,,,,,,,,,,,,,,,,,,,,,,,,,,,,,,,,,,,,,,,,,,,,,,,,,,,,,,,,,,,,,,,,,,,,,,,,,,,,,,,
,,,,,,60f1881264ff3a7f211d186a,62c538a3d1cad5ca791df9d6,2022-07-06_09h24.34.673,Colour_Asymmetry_Pilot,2022.1.3,Win32,74.55453664,62c50e9c1127f2cd403a315f,0,53,53,17,1,onethree,,,,,,,,,,,,,,,,,,,,,,,,,,,,,,,,,,,,,,,,,,,,,,,,,,,,,,,,,,,,,,,,,,,,,,,,,,,,,,,,,,,,,,,,,,,,,,,,,,,,,,,,,,,,,,,,,,,,,,,,,,,,,,,,,,,,,,,,,,,,,,,,,,,,,,,,,,,,,
,,,,,,60f1881264ff3a7f211d186a,62c538a3d1cad5ca791df9d6,2022-07-06_09h24.34.673,Colour_Asymmetry_Pilot,2022.1.3,Win32,74.55453664,62c50e9c1127f2cd403a315f,0,54,54,55,1,fourthree,,,,,,,,,,,,,,,,,,,,,,,,,,,,,,,,,,,,,,,,,,,,,,,,,,,,,,,,,,,,,,,,,,,,,,,,,,,,,,,,,,,,,,,,,,,,,,,,,,,,,,,,,,,,,,,,,,,,,,,,,,,,,,,,,,,,,,,,,,,,,,,,,,,,,,,,,,,,,
,,,,,,60f1881264ff3a7f211d186a,62c538a3d1cad5ca791df9d6,2022-07-06_09h24.34.673,Colour_Asymmetry_Pilot,2022.1.3,Win32,74.55453664,62c50e9c1127f2cd403a315f,0,55,55,5,1,threefour,,,,,,,,,,,,,,,,,,,,,,,,,,,,,,,,,,,,,,,,,,,,,,,,,,,,,,,,,,,,,,,,,,,,,,,,,,,,,,,,,,,,,,,,,,,,,,,,,,,,,,,,,,,,,,,,,,,,,,,,,,,,,,,,,,,,,,,,,,,,,,,,,,,,,,,,,,,,,
,,,,,,60f1881264ff3a7f211d186a,62c538a3d1cad5ca791df9d6,2022-07-06_09h24.34.673,Colour_Asymmetry_Pilot,2022.1.3,Win32,74.55453664,62c50e9c1127f2cd403a315f,0,56,56,150,1,fourtwo,,,,,,,,,,,,,,,,,,,,,,,,,,,,,,,,,,,,,,,,,,,,,,,,,,,,,,,,,,,,,,,,,,,,,,,,,,,,,,,,,,,,,,,,,,,,,,,,,,,,,,,,,,,,,,,,,,,,,,,,,,,,,,,,,,,,,,,,,,,,,,,,,,,,,,,,,,,,,
,,,,,,60f1881264ff3a7f211d186a,62c538a3d1cad5ca791df9d6,2022-07-06_09h24.34.673,Colour_Asymmetry_Pilot,2022.1.3,Win32,74.55453664,62c50e9c1127f2cd403a315f,0,57,57,148,1,threeone,,,,,,,,,,,,,,,,,,,,,,,,,,,,,,,,,,,,,,,,,,,,,,,,,,,,,,,,,,,,,,,,,,,,,,,,,,,,,,,,,,,,,,,,,,,,,,,,,,,,,,,,,,,,,,,,,,,,,,,,,,,,,,,,,,,,,,,,,,,,,,,,,,,,,,,,,,,,,
,,,,,,60f1881264ff3a7f211d186a,62c538a3d1cad5ca791df9d6,2022-07-06_09h24.34.673,Colour_Asymmetry_Pilot,2022.1.3,Win32,74.55453664,62c50e9c1127f2cd403a315f,0,58,58,47,1,fourthree,,,,,,,,,,,,,,,,,,,,,,,,,,,,,,,,,,,,,,,,,,,,,,,,,,,,,,,,,,,,,,,,,,,,,,,,,,,,,,,,,,,,,,,,,,,,,,,,,,,,,,,,,,,,,,,,,,,,,,,,,,,,,,,,,,,,,,,,,,,,,,,,,,,,,,,,,,,,,
,,,,,,60f1881264ff3a7f211d186a,62c538a3d1cad5ca791df9d6,2022-07-06_09h24.34.673,Colour_Asymmetry_Pilot,2022.1.3,Win32,74.55453664,62c50e9c1127f2cd403a315f,0,59,59,161,1,onethree,,,,,,,,,,,,,,,,,,,,,,,,,,,,,,,,,,,,,,,,,,,,,,,,,,,,,,,,,,,,,,,,,,,,,,,,,,,,,,,,,,,,,,,,,,,,,,,,,,,,,,,,,,,,,,,,,,,,,,,,,,,,,,,,,,,,,,,,,,,,,,,,,,,,,,,,,,,,,
,,,,,,60f1881264ff3a7f211d186a,62c538a3d1cad5ca791df9d6,2022-07-06_09h24.34.673,Colour_Asymmetry_Pilot,2022.1.3,Win32,74.55453664,62c50e9c1127f2cd403a315f,0,60,60,44,1,threeone,,,,,,,,,,,,,,,,,,,,,,,,,,,,,,,,,,,,,,,,,,,,,,,,,,,,,,,,,,,,,,,,,,,,,,,,,,,,,,,,,,,,,,,,,,,,,,,,,,,,,,,,,,,,,,,,,,,,,,,,,,,,,,,,,,,,,,,,,,,,,,,,,,,,,,,,,,,,,
,,,,,,60f1881264ff3a7f211d186a,62c538a3d1cad5ca791df9d6,2022-07-06_09h24.34.673,Colour_Asymmetry_Pilot,2022.1.3,Win32,74.55453664,62c50e9c1127f2cd403a315f,0,61,61,79,1,fourthree,,,,,,,,,,,,,,,,,,,,,,,,,,,,,,,,,,,,,,,,,,,,,,,,,,,,,,,,,,,,,,,,,,,,,,,,,,,,,,,,,,,,,,,,,,,,,,,,,,,,,,,,,,,,,,,,,,,,,,,,,,,,,,,,,,,,,,,,,,,,,,,,,,,,,,,,,,,,,
,,,,,,60f1881264ff3a7f211d186a,62c538a3d1cad5ca791df9d6,2022-07-06_09h24.34.673,Colour_Asymmetry_Pilot,2022.1.3,Win32,74.55453664,62c50e9c1127f2cd403a315f,0,62,62,82,1,twoone,,,,,,,,,,,,,,,,,,,,,,,,,,,,,,,,,,,,,,,,,,,,,,,,,,,,,,,,,,,,,,,,,,,,,,,,,,,,,,,,,,,,,,,,,,,,,,,,,,,,,,,,,,,,,,,,,,,,,,,,,,,,,,,,,,,,,,,,,,,,,,,,,,,,,,,,,,,,,
,,,,,,60f1881264ff3a7f211d186a,62c538a3d1cad5ca791df9d6,2022-07-06_09h24.34.673,Colour_Asymmetry_Pilot,2022.1.3,Win32,74.55453664,62c50e9c1127f2cd403a315f,0,63,63,48,1,onetwo,,,,,,,,,,,,,,,,,,,,,,,,,,,,,,,,,,,,,,,,,,,,,,,,,,,,,,,,,,,,,,,,,,,,,,,,,,,,,,,,,,,,,,,,,,,,,,,,,,,,,,,,,,,,,,,,,,,,,,,,,,,,,,,,,,,,,,,,,,,,,,,,,,,,,,,,,,,,,
,,,,,,60f1881264ff3a7f211d186a,62c538a3d1cad5ca791df9d6,2022-07-06_09h24.34.673,Colour_Asymmetry_Pilot,2022.1.3,Win32,74.55453664,62c50e9c1127f2cd403a315f,0,64,64,25,1,onethree,,,,,,,,,,,,,,,,,,,,,,,,,,,,,,,,,,,,,,,,,,,,,,,,,,,,,,,,,,,,,,,,,,,,,,,,,,,,,,,,,,,,,,,,,,,,,,,,,,,,,,,,,,,,,,,,,,,,,,,,,,,,,,,,,,,,,,,,,,,,,,,,,,,,,,,,,,,,,
,,,,,,60f1881264ff3a7f211d186a,62c538a3d1cad5ca791df9d6,2022-07-06_09h24.34.673,Colour_Asymmetry_Pilot,2022.1.3,Win32,74.55453664,62c50e9c1127f2cd403a315f,0,65,65,109,1,threefour,,,,,,,,,,,,,,,,,,,,,,,,,,,,,,,,,,,,,,,,,,,,,,,,,,,,,,,,,,,,,,,,,,,,,,,,,,,,,,,,,,,,,,,,,,,,,,,,,,,,,,,,,,,,,,,,,,,,,,,,,,,,,,,,,,,,,,,,,,,,,,,,,,,,,,,,,,,,,
,,,,,,60f1881264ff3a7f211d186a,62c538a3d1cad5ca791df9d6,2022-07-06_09h24.34.673,Colour_Asymmetry_Pilot,2022.1.3,Win32,74.55453664,62c50e9c1127f2cd403a315f,0,66,66,66,1,twoone,,,,,,,,,,,,,,,,,,,,,,,,,,,,,,,,,,,,,,,,,,,,,,,,,,,,,,,,,,,,,,,,,,,,,,,,,,,,,,,,,,,,,,,,,,,,,,,,,,,,,,,,,,,,,,,,,,,,,,,,,,,,,,,,,,,,,,,,,,,,,,,,,,,,,,,,,,,,,
,,,,,,60f1881264ff3a7f211d186a,62c538a3d1cad5ca791df9d6,2022-07-06_09h24.34.673,Colour_Asymmetry_Pilot,2022.1.3,Win32,74.55453664,62c50e9c1127f2cd403a315f,0,67,67,54,1,fourtwo,,,,,,,,,,,,,,,,,,,,,,,,,,,,,,,,,,,,,,,,,,,,,,,,,,,,,,,,,,,,,,,,,,,,,,,,,,,,,,,,,,,,,,,,,,,,,,,,,,,,,,,,,,,,,,,,,,,,,,,,,,,,,,,,,,,,,,,,,,,,,,,,,,,,,,,,,,,,,
,,,,,,60f1881264ff3a7f211d186a,62c538a3d1cad5ca791df9d6,2022-07-06_09h24.34.673,Colour_Asymmetry_Pilot,2022.1.3,Win32,74.55453664,62c50e9c1127f2cd403a315f,0,68,68,81,1,onethree,,,,,,,,,,,,,,,,,,,,,,,,,,,,,,,,,,,,,,,,,,,,,,,,,,,,,,,,,,,,,,,,,,,,,,,,,,,,,,,,,,,,,,,,,,,,,,,,,,,,,,,,,,,,,,,,,,,,,,,,,,,,,,,,,,,,,,,,,,,,,,,,,,,,,,,,,,,,,
,,,,,,60f1881264ff3a7f211d186a,62c538a3d1cad5ca791df9d6,2022-07-06_09h24.34.673,Colour_Asymmetry_Pilot,2022.1.3,Win32,74.55453664,62c50e9c1127f2cd403a315f,0,69,69,122,1,twoone,,,,,,,,,,,,,,,,,,,,,,,,,,,,,,,,,,,,,,,,,,,,,,,,,,,,,,,,,,,,,,,,,,,,,,,,,,,,,,,,,,,,,,,,,,,,,,,,,,,,,,,,,,,,,,,,,,,,,,,,,,,,,,,,,,,,,,,,,,,,,,,,,,,,,,,,,,,,,
,,,,,,60f1881264ff3a7f211d186a,62c538a3d1cad5ca791df9d6,2022-07-06_09h24.34.673,Colour_Asymmetry_Pilot,2022.1.3,Win32,74.55453664,62c50e9c1127f2cd403a315f,0,70,70,157,1,threefour,,,,,,,,,,,,,,,,,,,,,,,,,,,,,,,,,,,,,,,,,,,,,,,,,,,,,,,,,,,,,,,,,,,,,,,,,,,,,,,,,,,,,,,,,,,,,,,,,,,,,,,,,,,,,,,,,,,,,,,,,,,,,,,,,,,,,,,,,,,,,,,,,,,,,,,,,,,,,
,,,,,,60f1881264ff3a7f211d186a,62c538a3d1cad5ca791df9d6,2022-07-06_09h24.34.673,Colour_Asymmetry_Pilot,2022.1.3,Win32,74.55453664,62c50e9c1127f2cd403a315f,0,71,71,85,1,threefour,,,,,,,,,,,,,,,,,,,,,,,,,,,,,,,,,,,,,,,,,,,,,,,,,,,,,,,,,,,,,,,,,,,,,,,,,,,,,,,,,,,,,,,,,,,,,,,,,,,,,,,,,,,,,,,,,,,,,,,,,,,,,,,,,,,,,,,,,,,,,,,,,,,,,,,,,,,,,
,,,,,,60f1881264ff3a7f211d186a,62c538a3d1cad5ca791df9d6,2022-07-06_09h24.34.673,Colour_Asymmetry_Pilot,2022.1.3,Win32,74.55453664,62c50e9c1127f2cd403a315f,0,72,72,105,1,onethree,,,,,,,,,,,,,,,,,,,,,,,,,,,,,,,,,,,,,,,,,,,,,,,,,,,,,,,,,,,,,,,,,,,,,,,,,,,,,,,,,,,,,,,,,,,,,,,,,,,,,,,,,,,,,,,,,,,,,,,,,,,,,,,,,,,,,,,,,,,,,,,,,,,,,,,,,,,,,
,,,,,,60f1881264ff3a7f211d186a,62c538a3d1cad5ca791df9d6,2022-07-06_09h24.34.673,Colour_Asymmetry_Pilot,2022.1.3,Win32,74.55453664,62c50e9c1127f2cd403a315f,0,73,73,67,1,twofour,,,,,,,,,,,,,,,,,,,,,,,,,,,,,,,,,,,,,,,,,,,,,,,,,,,,,,,,,,,,,,,,,,,,,,,,,,,,,,,,,,,,,,,,,,,,,,,,,,,,,,,,,,,,,,,,,,,,,,,,,,,,,,,,,,,,,,,,,,,,,,,,,,,,,,,,,,,,,
,,,,,,60f1881264ff3a7f211d186a,62c538a3d1cad5ca791df9d6,2022-07-06_09h24.34.673,Colour_Asymmetry_Pilot,2022.1.3,Win32,74.55453664,62c50e9c1127f2cd403a315f,0,74,74,3,1,twofour,,,,,,,,,,,,,,,,,,,,,,,,,,,,,,,,,,,,,,,,,,,,,,,,,,,,,,,,,,,,,,,,,,,,,,,,,,,,,,,,,,,,,,,,,,,,,,,,,,,,,,,,,,,,,,,,,,,,,,,,,,,,,,,,,,,,,,,,,,,,,,,,,,,,,,,,,,,,,
,,,,,,60f1881264ff3a7f211d186a,62c538a3d1cad5ca791df9d6,2022-07-06_09h24.34.673,Colour_Asymmetry_Pilot,2022.1.3,Win32,74.55453664,62c50e9c1127f2cd403a315f,0,75,75,86,1,fourtwo,,,,,,,,,,,,,,,,,,,,,,,,,,,,,,,,,,,,,,,,,,,,,,,,,,,,,,,,,,,,,,,,,,,,,,,,,,,,,,,,,,,,,,,,,,,,,,,,,,,,,,,,,,,,,,,,,,,,,,,,,,,,,,,,,,,,,,,,,,,,,,,,,,,,,,,,,,,,,
,,,,,,60f1881264ff3a7f211d186a,62c538a3d1cad5ca791df9d6,2022-07-06_09h24.34.673,Colour_Asymmetry_Pilot,2022.1.3,Win32,74.55453664,62c50e9c1127f2cd403a315f,0,76,76,124,1,threeone,,,,,,,,,,,,,,,,,,,,,,,,,,,,,,,,,,,,,,,,,,,,,,,,,,,,,,,,,,,,,,,,,,,,,,,,,,,,,,,,,,,,,,,,,,,,,,,,,,,,,,,,,,,,,,,,,,,,,,,,,,,,,,,,,,,,,,,,,,,,,,,,,,,,,,,,,,,,,
,,,,,,60f1881264ff3a7f211d186a,62c538a3d1cad5ca791df9d6,2022-07-06_09h24.34.673,Colour_Asymmetry_Pilot,2022.1.3,Win32,74.55453664,62c50e9c1127f2cd403a315f,0,77,77,99,1,twofour,,,,,,,,,,,,,,,,,,,,,,,,,,,,,,,,,,,,,,,,,,,,,,,,,,,,,,,,,,,,,,,,,,,,,,,,,,,,,,,,,,,,,,,,,,,,,,,,,,,,,,,,,,,,,,,,,,,,,,,,,,,,,,,,,,,,,,,,,,,,,,,,,,,,,,,,,,,,,
,,,,,,60f1881264ff3a7f211d186a,62c538a3d1cad5ca791df9d6,2022-07-06_09h24.34.673,Colour_Asymmetry_Pilot,2022.1.3,Win32,74.55453664,62c50e9c1127f2cd403a315f,0,78,78,27,1,twofour,,,,,,,,,,,,,,,,,,,,,,,,,,,,,,,,,,,,,,,,,,,,,,,,,,,,,,,,,,,,,,,,,,,,,,,,,,,,,,,,,,,,,,,,,,,,,,,,,,,,,,,,,,,,,,,,,,,,,,,,,,,,,,,,,,,,,,,,,,,,,,,,,,,,,,,,,,,,,
,,,,,,60f1881264ff3a7f211d186a,62c538a3d1cad5ca791df9d6,2022-07-06_09h24.34.673,Colour_Asymmetry_Pilot,2022.1.3,Win32,74.55453664,62c50e9c1127f2cd403a315f,0,79,79,60,1,threeone,,,,,,,,,,,,,,,,,,,,,,,,,,,,,,,,,,,,,,,,,,,,,,,,,,,,,,,,,,,,,,,,,,,,,,,,,,,,,,,,,,,,,,,,,,,,,,,,,,,,,,,,,,,,,,,,,,,,,,,,,,,,,,,,,,,,,,,,,,,,,,,,,,,,,,,,,,,,,
,,,,,,60f1881264ff3a7f211d186a,62c538a3d1cad5ca791df9d6,2022-07-06_09h24.34.673,Colour_Asymmetry_Pilot,2022.1.3,Win32,74.55453664,62c50e9c1127f2cd403a315f,0,80,80,0,1,onetwo,,,,,,,,,,,,,,,,,,,,,,,,,,,,,,,,,,,,,,,,,,,,,,,,,,,,,,,,,,,,,,,,,,,,,,,,,,,,,,,,,,,,,,,,,,,,,,,,,,,,,,,,,,,,,,,,,,,,,,,,,,,,,,,,,,,,,,,,,,,,,,,,,,,,,,,,,,,,,
,,,,,,60f1881264ff3a7f211d186a,62c538a3d1cad5ca791df9d6,2022-07-06_09h24.34.673,Colour_Asymmetry_Pilot,2022.1.3,Win32,74.55453664,62c50e9c1127f2cd403a315f,0,81,81,84,1,threeone,,,,,,,,,,,,,,,,,,,,,,,,,,,,,,,,,,,,,,,,,,,,,,,,,,,,,,,,,,,,,,,,,,,,,,,,,,,,,,,,,,,,,,,,,,,,,,,,,,,,,,,,,,,,,,,,,,,,,,,,,,,,,,,,,,,,,,,,,,,,,,,,,,,,,,,,,,,,,
,,,,,,60f1881264ff3a7f211d186a,62c538a3d1cad5ca791df9d6,2022-07-06_09h24.34.673,Colour_Asymmetry_Pilot,2022.1.3,Win32,74.55453664,62c50e9c1127f2cd403a315f,0,82,82,125,1,threefour,,,,,,,,,,,,,,,,,,,,,,,,,,,,,,,,,,,,,,,,,,,,,,,,,,,,,,,,,,,,,,,,,,,,,,,,,,,,,,,,,,,,,,,,,,,,,,,,,,,,,,,,,,,,,,,,,,,,,,,,,,,,,,,,,,,,,,,,,,,,,,,,,,,,,,,,,,,,,
,,,,,,60f1881264ff3a7f211d186a,62c538a3d1cad5ca791df9d6,2022-07-06_09h24.34.673,Colour_Asymmetry_Pilot,2022.1.3,Win32,74.55453664,62c50e9c1127f2cd403a315f,0,83,83,57,1,onethree,,,,,,,,,,,,,,,,,,,,,,,,,,,,,,,,,,,,,,,,,,,,,,,,,,,,,,,,,,,,,,,,,,,,,,,,,,,,,,,,,,,,,,,,,,,,,,,,,,,,,,,,,,,,,,,,,,,,,,,,,,,,,,,,,,,,,,,,,,,,,,,,,,,,,,,,,,,,,
,,,,,,60f1881264ff3a7f211d186a,62c538a3d1cad5ca791df9d6,2022-07-06_09h24.34.673,Colour_Asymmetry_Pilot,2022.1.3,Win32,74.55453664,62c50e9c1127f2cd403a315f,0,84,84,146,1,twoone,,,,,,,,,,,,,,,,,,,,,,,,,,,,,,,,,,,,,,,,,,,,,,,,,,,,,,,,,,,,,,,,,,,,,,,,,,,,,,,,,,,,,,,,,,,,,,,,,,,,,,,,,,,,,,,,,,,,,,,,,,,,,,,,,,,,,,,,,,,,,,,,,,,,,,,,,,,,,
,,,,,,60f1881264ff3a7f211d186a,62c538a3d1cad5ca791df9d6,2022-07-06_09h24.34.673,Colour_Asymmetry_Pilot,2022.1.3,Win32,74.55453664,62c50e9c1127f2cd403a315f,0,85,85,10,1,twoone,,,,,,,,,,,,,,,,,,,,,,,,,,,,,,,,,,,,,,,,,,,,,,,,,,,,,,,,,,,,,,,,,,,,,,,,,,,,,,,,,,,,,,,,,,,,,,,,,,,,,,,,,,,,,,,,,,,,,,,,,,,,,,,,,,,,,,,,,,,,,,,,,,,,,,,,,,,,,
,,,,,,60f1881264ff3a7f211d186a,62c538a3d1cad5ca791df9d6,2022-07-06_09h24.34.673,Colour_Asymmetry_Pilot,2022.1.3,Win32,74.55453664,62c50e9c1127f2cd403a315f,0,86,86,98,1,twoone,,,,,,,,,,,,,,,,,,,,,,,,,,,,,,,,,,,,,,,,,,,,,,,,,,,,,,,,,,,,,,,,,,,,,,,,,,,,,,,,,,,,,,,,,,,,,,,,,,,,,,,,,,,,,,,,,,,,,,,,,,,,,,,,,,,,,,,,,,,,,,,,,,,,,,,,,,,,,
,,,,,,60f1881264ff3a7f211d186a,62c538a3d1cad5ca791df9d6,2022-07-06_09h24.34.673,Colour_Asymmetry_Pilot,2022.1.3,Win32,74.55453664,62c50e9c1127f2cd403a315f,0,87,87,160,1,onetwo,,,,,,,,,,,,,,,,,,,,,,,,,,,,,,,,,,,,,,,,,,,,,,,,,,,,,,,,,,,,,,,,,,,,,,,,,,,,,,,,,,,,,,,,,,,,,,,,,,,,,,,,,,,,,,,,,,,,,,,,,,,,,,,,,,,,,,,,,,,,,,,,,,,,,,,,,,,,,
,,,,,,60f1881264ff3a7f211d186a,62c538a3d1cad5ca791df9d6,2022-07-06_09h24.34.673,Colour_Asymmetry_Pilot,2022.1.3,Win32,74.55453664,62c50e9c1127f2cd403a315f,0,88,88,71,1,fourthree,,,,,,,,,,,,,,,,,,,,,,,,,,,,,,,,,,,,,,,,,,,,,,,,,,,,,,,,,,,,,,,,,,,,,,,,,,,,,,,,,,,,,,,,,,,,,,,,,,,,,,,,,,,,,,,,,,,,,,,,,,,,,,,,,,,,,,,,,,,,,,,,,,,,,,,,,,,,,
,,,,,,60f1881264ff3a7f211d186a,62c538a3d1cad5ca791df9d6,2022-07-06_09h24.34.673,Colour_Asymmetry_Pilot,2022.1.3,Win32,74.55453664,62c50e9c1127f2cd403a315f,0,89,89,38,1,fourtwo,,,,,,,,,,,,,,,,,,,,,,,,,,,,,,,,,,,,,,,,,,,,,,,,,,,,,,,,,,,,,,,,,,,,,,,,,,,,,,,,,,,,,,,,,,,,,,,,,,,,,,,,,,,,,,,,,,,,,,,,,,,,,,,,,,,,,,,,,,,,,,,,,,,,,,,,,,,,,
,,,,,,60f1881264ff3a7f211d186a,62c538a3d1cad5ca791df9d6,2022-07-06_09h24.34.673,Colour_Asymmetry_Pilot,2022.1.3,Win32,74.55453664,62c50e9c1127f2cd403a315f,0,90,90,8,1,onetwo,,,,,,,,,,,,,,,,,,,,,,,,,,,,,,,,,,,,,,,,,,,,,,,,,,,,,,,,,,,,,,,,,,,,,,,,,,,,,,,,,,,,,,,,,,,,,,,,,,,,,,,,,,,,,,,,,,,,,,,,,,,,,,,,,,,,,,,,,,,,,,,,,,,,,,,,,,,,,
,,,,,,60f1881264ff3a7f211d186a,62c538a3d1cad5ca791df9d6,2022-07-06_09h24.34.673,Colour_Asymmetry_Pilot,2022.1.3,Win32,74.55453664,62c50e9c1127f2cd403a315f,0,91,91,112,1,onetwo,,,,,,,,,,,,,,,,,,,,,,,,,,,,,,,,,,,,,,,,,,,,,,,,,,,,,,,,,,,,,,,,,,,,,,,,,,,,,,,,,,,,,,,,,,,,,,,,,,,,,,,,,,,,,,,,,,,,,,,,,,,,,,,,,,,,,,,,,,,,,,,,,,,,,,,,,,,,,
,,,,,,60f1881264ff3a7f211d186a,62c538a3d1cad5ca791df9d6,2022-07-06_09h24.34.673,Colour_Asymmetry_Pilot,2022.1.3,Win32,74.55453664,62c50e9c1127f2cd403a315f,0,92,92,130,1,twoone,,,,,,,,,,,,,,,,,,,,,,,,,,,,,,,,,,,,,,,,,,,,,,,,,,,,,,,,,,,,,,,,,,,,,,,,,,,,,,,,,,,,,,,,,,,,,,,,,,,,,,,,,,,,,,,,,,,,,,,,,,,,,,,,,,,,,,,,,,,,,,,,,,,,,,,,,,,,,
,,,,,,60f1881264ff3a7f211d186a,62c538a3d1cad5ca791df9d6,2022-07-06_09h24.34.673,Colour_Asymmetry_Pilot,2022.1.3,Win32,74.55453664,62c50e9c1127f2cd403a315f,0,93,93,13,1,threefour,,,,,,,,,,,,,,,,,,,,,,,,,,,,,,,,,,,,,,,,,,,,,,,,,,,,,,,,,,,,,,,,,,,,,,,,,,,,,,,,,,,,,,,,,,,,,,,,,,,,,,,,,,,,,,,,,,,,,,,,,,,,,,,,,,,,,,,,,,,,,,,,,,,,,,,,,,,,,
,,,,,,60f1881264ff3a7f211d186a,62c538a3d1cad5ca791df9d6,2022-07-06_09h24.34.673,Colour_Asymmetry_Pilot,2022.1.3,Win32,74.55453664,62c50e9c1127f2cd403a315f,0,94,94,127,1,fourthree,,,,,,,,,,,,,,,,,,,,,,,,,,,,,,,,,,,,,,,,,,,,,,,,,,,,,,,,,,,,,,,,,,,,,,,,,,,,,,,,,,,,,,,,,,,,,,,,,,,,,,,,,,,,,,,,,,,,,,,,,,,,,,,,,,,,,,,,,,,,,,,,,,,,,,,,,,,,,
,,,,,,60f1881264ff3a7f211d186a,62c538a3d1cad5ca791df9d6,2022-07-06_09h24.34.673,Colour_Asymmetry_Pilot,2022.1.3,Win32,74.55453664,62c50e9c1127f2cd403a315f,0,95,95,103,1,fourthree,,,,,,,,,,,,,,,,,,,,,,,,,,,,,,,,,,,,,,,,,,,,,,,,,,,,,,,,,,,,,,,,,,,,,,,,,,,,,,,,,,,,,,,,,,,,,,,,,,,,,,,,,,,,,,,,,,,,,,,,,,,,,,,,,,,,,,,,,,,,,,,,,,,,,,,,,,,,,
,,,,,,60f1881264ff3a7f211d186a,62c538a3d1cad5ca791df9d6,2022-07-06_09h24.34.673,Colour_Asymmetry_Pilot,2022.1.3,Win32,74.55453664,62c50e9c1127f2cd403a315f,0,96,96,154,1,twoone,,,,,,,,,,,,,,,,,,,,,,,,,,,,,,,,,,,,,,,,,,,,,,,,,,,,,,,,,,,,,,,,,,,,,,,,,,,,,,,,,,,,,,,,,,,,,,,,,,,,,,,,,,,,,,,,,,,,,,,,,,,,,,,,,,,,,,,,,,,,,,,,,,,,,,,,,,,,,
,,,,,,60f1881264ff3a7f211d186a,62c538a3d1cad5ca791df9d6,2022-07-06_09h24.34.673,Colour_Asymmetry_Pilot,2022.1.3,Win32,74.55453664,62c50e9c1127f2cd403a315f,0,97,97,134,1,fourtwo,,,,,,,,,,,,,,,,,,,,,,,,,,,,,,,,,,,,,,,,,,,,,,,,,,,,,,,,,,,,,,,,,,,,,,,,,,,,,,,,,,,,,,,,,,,,,,,,,,,,,,,,,,,,,,,,,,,,,,,,,,,,,,,,,,,,,,,,,,,,,,,,,,,,,,,,,,,,,
,,,,,,60f1881264ff3a7f211d186a,62c538a3d1cad5ca791df9d6,2022-07-06_09h24.34.673,Colour_Asymmetry_Pilot,2022.1.3,Win32,74.55453664,62c50e9c1127f2cd403a315f,0,98,98,139,1,twofour,,,,,,,,,,,,,,,,,,,,,,,,,,,,,,,,,,,,,,,,,,,,,,,,,,,,,,,,,,,,,,,,,,,,,,,,,,,,,,,,,,,,,,,,,,,,,,,,,,,,,,,,,,,,,,,,,,,,,,,,,,,,,,,,,,,,,,,,,,,,,,,,,,,,,,,,,,,,,
,,,,,,60f1881264ff3a7f211d186a,62c538a3d1cad5ca791df9d6,2022-07-06_09h24.34.673,Colour_Asymmetry_Pilot,2022.1.3,Win32,74.55453664,62c50e9c1127f2cd403a315f,0,99,99,88,1,onetwo,,,,,,,,,,,,,,,,,,,,,,,,,,,,,,,,,,,,,,,,,,,,,,,,,,,,,,,,,,,,,,,,,,,,,,,,,,,,,,,,,,,,,,,,,,,,,,,,,,,,,,,,,,,,,,,,,,,,,,,,,,,,,,,,,,,,,,,,,,,,,,,,,,,,,,,,,,,,,
,,,,,,60f1881264ff3a7f211d186a,62c538a3d1cad5ca791df9d6,2022-07-06_09h24.34.673,Colour_Asymmetry_Pilot,2022.1.3,Win32,74.55453664,62c50e9c1127f2cd403a315f,0,100,100,121,1,onethree,,,,,,,,,,,,,,,,,,,,,,,,,,,,,,,,,,,,,,,,,,,,,,,,,,,,,,,,,,,,,,,,,,,,,,,,,,,,,,,,,,,,,,,,,,,,,,,,,,,,,,,,,,,,,,,,,,,,,,,,,,,,,,,,,,,,,,,,,,,,,,,,,,,,,,,,,,,,,
,,,,,,60f1881264ff3a7f211d186a,62c538a3d1cad5ca791df9d6,2022-07-06_09h24.34.673,Colour_Asymmetry_Pilot,2022.1.3,Win32,74.55453664,62c50e9c1127f2cd403a315f,0,101,101,41,1,onethree,,,,,,,,,,,,,,,,,,,,,,,,,,,,,,,,,,,,,,,,,,,,,,,,,,,,,,,,,,,,,,,,,,,,,,,,,,,,,,,,,,,,,,,,,,,,,,,,,,,,,,,,,,,,,,,,,,,,,,,,,,,,,,,,,,,,,,,,,,,,,,,,,,,,,,,,,,,,,
,,,,,,60f1881264ff3a7f211d186a,62c538a3d1cad5ca791df9d6,2022-07-06_09h24.34.673,Colour_Asymmetry_Pilot,2022.1.3,Win32,74.55453664,62c50e9c1127f2cd403a315f,0,102,102,73,1,onethree,,,,,,,,,,,,,,,,,,,,,,,,,,,,,,,,,,,,,,,,,,,,,,,,,,,,,,,,,,,,,,,,,,,,,,,,,,,,,,,,,,,,,,,,,,,,,,,,,,,,,,,,,,,,,,,,,,,,,,,,,,,,,,,,,,,,,,,,,,,,,,,,,,,,,,,,,,,,,
,,,,,,60f1881264ff3a7f211d186a,62c538a3d1cad5ca791df9d6,2022-07-06_09h24.34.673,Colour_Asymmetry_Pilot,2022.1.3,Win32,74.55453664,62c50e9c1127f2cd403a315f,0,103,103,28,1,threeone,,,,,,,,,,,,,,,,,,,,,,,,,,,,,,,,,,,,,,,,,,,,,,,,,,,,,,,,,,,,,,,,,,,,,,,,,,,,,,,,,,,,,,,,,,,,,,,,,,,,,,,,,,,,,,,,,,,,,,,,,,,,,,,,,,,,,,,,,,,,,,,,,,,,,,,,,,,,,
,,,,,,60f1881264ff3a7f211d186a,62c538a3d1cad5ca791df9d6,2022-07-06_09h24.34.673,Colour_Asymmetry_Pilot,2022.1.3,Win32,74.55453664,62c50e9c1127f2cd403a315f,0,104,104,119,1,fourthree,,,,,,,,,,,,,,,,,,,,,,,,,,,,,,,,,,,,,,,,,,,,,,,,,,,,,,,,,,,,,,,,,,,,,,,,,,,,,,,,,,,,,,,,,,,,,,,,,,,,,,,,,,,,,,,,,,,,,,,,,,,,,,,,,,,,,,,,,,,,,,,,,,,,,,,,,,,,,
,,,,,,60f1881264ff3a7f211d186a,62c538a3d1cad5ca791df9d6,2022-07-06_09h24.34.673,Colour_Asymmetry_Pilot,2022.1.3,Win32,74.55453664,62c50e9c1127f2cd403a315f,0,105,105,64,1,onetwo,,,,,,,,,,,,,,,,,,,,,,,,,,,,,,,,,,,,,,,,,,,,,,,,,,,,,,,,,,,,,,,,,,,,,,,,,,,,,,,,,,,,,,,,,,,,,,,,,,,,,,,,,,,,,,,,,,,,,,,,,,,,,,,,,,,,,,,,,,,,,,,,,,,,,,,,,,,,,
,,,,,,60f1881264ff3a7f211d186a,62c538a3d1cad5ca791df9d6,2022-07-06_09h24.34.673,Colour_Asymmetry_Pilot,2022.1.3,Win32,74.55453664,62c50e9c1127f2cd403a315f,0,106,106,90,1,twoone,,,,,,,,,,,,,,,,,,,,,,,,,,,,,,,,,,,,,,,,,,,,,,,,,,,,,,,,,,,,,,,,,,,,,,,,,,,,,,,,,,,,,,,,,,,,,,,,,,,,,,,,,,,,,,,,,,,,,,,,,,,,,,,,,,,,,,,,,,,,,,,,,,,,,,,,,,,,,
,,,,,,60f1881264ff3a7f211d186a,62c538a3d1cad5ca791df9d6,2022-07-06_09h24.34.673,Colour_Asymmetry_Pilot,2022.1.3,Win32,74.55453664,62c50e9c1127f2cd403a315f,0,107,107,30,1,fourtwo,,,,,,,,,,,,,,,,,,,,,,,,,,,,,,,,,,,,,,,,,,,,,,,,,,,,,,,,,,,,,,,,,,,,,,,,,,,,,,,,,,,,,,,,,,,,,,,,,,,,,,,,,,,,,,,,,,,,,,,,,,,,,,,,,,,,,,,,,,,,,,,,,,,,,,,,,,,,,
,,,,,,60f1881264ff3a7f211d186a,62c538a3d1cad5ca791df9d6,2022-07-06_09h24.34.673,Colour_Asymmetry_Pilot,2022.1.3,Win32,74.55453664,62c50e9c1127f2cd403a315f,0,108,108,74,1,twoone,,,,,,,,,,,,,,,,,,,,,,,,,,,,,,,,,,,,,,,,,,,,,,,,,,,,,,,,,,,,,,,,,,,,,,,,,,,,,,,,,,,,,,,,,,,,,,,,,,,,,,,,,,,,,,,,,,,,,,,,,,,,,,,,,,,,,,,,,,,,,,,,,,,,,,,,,,,,,
,,,,,,60f1881264ff3a7f211d186a,62c538a3d1cad5ca791df9d6,2022-07-06_09h24.34.673,Colour_Asymmetry_Pilot,2022.1.3,Win32,74.55453664,62c50e9c1127f2cd403a315f,0,109,109,11,1,twofour,,,,,,,,,,,,,,,,,,,,,,,,,,,,,,,,,,,,,,,,,,,,,,,,,,,,,,,,,,,,,,,,,,,,,,,,,,,,,,,,,,,,,,,,,,,,,,,,,,,,,,,,,,,,,,,,,,,,,,,,,,,,,,,,,,,,,,,,,,,,,,,,,,,,,,,,,,,,,
,,,,,,60f1881264ff3a7f211d186a,62c538a3d1cad5ca791df9d6,2022-07-06_09h24.34.673,Colour_Asymmetry_Pilot,2022.1.3,Win32,74.55453664,62c50e9c1127f2cd403a315f,0,110,110,92,1,threeone,,,,,,,,,,,,,,,,,,,,,,,,,,,,,,,,,,,,,,,,,,,,,,,,,,,,,,,,,,,,,,,,,,,,,,,,,,,,,,,,,,,,,,,,,,,,,,,,,,,,,,,,,,,,,,,,,,,,,,,,,,,,,,,,,,,,,,,,,,,,,,,,,,,,,,,,,,,,,
,,,,,,60f1881264ff3a7f211d186a,62c538a3d1cad5ca791df9d6,2022-07-06_09h24.34.673,Colour_Asymmetry_Pilot,2022.1.3,Win32,74.55453664,62c50e9c1127f2cd403a315f,0,111,111,6,1,fourtwo,,,,,,,,,,,,,,,,,,,,,,,,,,,,,,,,,,,,,,,,,,,,,,,,,,,,,,,,,,,,,,,,,,,,,,,,,,,,,,,,,,,,,,,,,,,,,,,,,,,,,,,,,,,,,,,,,,,,,,,,,,,,,,,,,,,,,,,,,,,,,,,,,,,,,,,,,,,,,
,,,,,,60f1881264ff3a7f211d186a,62c538a3d1cad5ca791df9d6,2022-07-06_09h24.34.673,Colour_Asymmetry_Pilot,2022.1.3,Win32,74.55453664,62c50e9c1127f2cd403a315f,0,112,112,132,1,threeone,,,,,,,,,,,,,,,,,,,,,,,,,,,,,,,,,,,,,,,,,,,,,,,,,,,,,,,,,,,,,,,,,,,,,,,,,,,,,,,,,,,,,,,,,,,,,,,,,,,,,,,,,,,,,,,,,,,,,,,,,,,,,,,,,,,,,,,,,,,,,,,,,,,,,,,,,,,,,
,,,,,,60f1881264ff3a7f211d186a,62c538a3d1cad5ca791df9d6,2022-07-06_09h24.34.673,Colour_Asymmetry_Pilot,2022.1.3,Win32,74.55453664,62c50e9c1127f2cd403a315f,0,113,113,34,1,twoone,,,,,,,,,,,,,,,,,,,,,,,,,,,,,,,,,,,,,,,,,,,,,,,,,,,,,,,,,,,,,,,,,,,,,,,,,,,,,,,,,,,,,,,,,,,,,,,,,,,,,,,,,,,,,,,,,,,,,,,,,,,,,,,,,,,,,,,,,,,,,,,,,,,,,,,,,,,,,
,,,,,,60f1881264ff3a7f211d186a,62c538a3d1cad5ca791df9d6,2022-07-06_09h24.34.673,Colour_Asymmetry_Pilot,2022.1.3,Win32,74.55453664,62c50e9c1127f2cd403a315f,0,114,114,93,1,threefour,,,,,,,,,,,,,,,,,,,,,,,,,,,,,,,,,,,,,,,,,,,,,,,,,,,,,,,,,,,,,,,,,,,,,,,,,,,,,,,,,,,,,,,,,,,,,,,,,,,,,,,,,,,,,,,,,,,,,,,,,,,,,,,,,,,,,,,,,,,,,,,,,,,,,,,,,,,,,
,,,,,,60f1881264ff3a7f211d186a,62c538a3d1cad5ca791df9d6,2022-07-06_09h24.34.673,Colour_Asymmetry_Pilot,2022.1.3,Win32,74.55453664,62c50e9c1127f2cd403a315f,0,115,115,117,1,threefour,,,,,,,,,,,,,,,,,,,,,,,,,,,,,,,,,,,,,,,,,,,,,,,,,,,,,,,,,,,,,,,,,,,,,,,,,,,,,,,,,,,,,,,,,,,,,,,,,,,,,,,,,,,,,,,,,,,,,,,,,,,,,,,,,,,,,,,,,,,,,,,,,,,,,,,,,,,,,
,,,,,,60f1881264ff3a7f211d186a,62c538a3d1cad5ca791df9d6,2022-07-06_09h24.34.673,Colour_Asymmetry_Pilot,2022.1.3,Win32,74.55453664,62c50e9c1127f2cd403a315f,0,116,116,19,1,twofour,,,,,,,,,,,,,,,,,,,,,,,,,,,,,,,,,,,,,,,,,,,,,,,,,,,,,,,,,,,,,,,,,,,,,,,,,,,,,,,,,,,,,,,,,,,,,,,,,,,,,,,,,,,,,,,,,,,,,,,,,,,,,,,,,,,,,,,,,,,,,,,,,,,,,,,,,,,,,
,,,,,,60f1881264ff3a7f211d186a,62c538a3d1cad5ca791df9d6,2022-07-06_09h24.34.673,Colour_Asymmetry_Pilot,2022.1.3,Win32,74.55453664,62c50e9c1127f2cd403a315f,0,117,117,12,1,threeone,,,,,,,,,,,,,,,,,,,,,,,,,,,,,,,,,,,,,,,,,,,,,,,,,,,,,,,,,,,,,,,,,,,,,,,,,,,,,,,,,,,,,,,,,,,,,,,,,,,,,,,,,,,,,,,,,,,,,,,,,,,,,,,,,,,,,,,,,,,,,,,,,,,,,,,,,,,,,
,,,,,,60f1881264ff3a7f211d186a,62c538a3d1cad5ca791df9d6,2022-07-06_09h24.34.673,Colour_Asymmetry_Pilot,2022.1.3,Win32,74.55453664,62c50e9c1127f2cd403a315f,0,118,118,7,1,fourthree,,,,,,,,,,,,,,,,,,,,,,,,,,,,,,,,,,,,,,,,,,,,,,,,,,,,,,,,,,,,,,,,,,,,,,,,,,,,,,,,,,,,,,,,,,,,,,,,,,,,,,,,,,,,,,,,,,,,,,,,,,,,,,,,,,,,,,,,,,,,,,,,,,,,,,,,,,,,,
,,,,,,60f1881264ff3a7f211d186a,62c538a3d1cad5ca791df9d6,2022-07-06_09h24.34.673,Colour_Asymmetry_Pilot,2022.1.3,Win32,74.55453664,62c50e9c1127f2cd403a315f,0,119,119,159,1,fourthree,,,,,,,,,,,,,,,,,,,,,,,,,,,,,,,,,,,,,,,,,,,,,,,,,,,,,,,,,,,,,,,,,,,,,,,,,,,,,,,,,,,,,,,,,,,,,,,,,,,,,,,,,,,,,,,,,,,,,,,,,,,,,,,,,,,,,,,,,,,,,,,,,,,,,,,,,,,,,
,,,,,,60f1881264ff3a7f211d186a,62c538a3d1cad5ca791df9d6,2022-07-06_09h24.34.673,Colour_Asymmetry_Pilot,2022.1.3,Win32,74.55453664,62c50e9c1127f2cd403a315f,0,120,120,36,1,threeone,,,,,,,,,,,,,,,,,,,,,,,,,,,,,,,,,,,,,,,,,,,,,,,,,,,,,,,,,,,,,,,,,,,,,,,,,,,,,,,,,,,,,,,,,,,,,,,,,,,,,,,,,,,,,,,,,,,,,,,,,,,,,,,,,,,,,,,,,,,,,,,,,,,,,,,,,,,,,
,,,,,,60f1881264ff3a7f211d186a,62c538a3d1cad5ca791df9d6,2022-07-06_09h24.34.673,Colour_Asymmetry_Pilot,2022.1.3,Win32,74.55453664,62c50e9c1127f2cd403a315f,0,121,121,15,1,fourthree,,,,,,,,,,,,,,,,,,,,,,,,,,,,,,,,,,,,,,,,,,,,,,,,,,,,,,,,,,,,,,,,,,,,,,,,,,,,,,,,,,,,,,,,,,,,,,,,,,,,,,,,,,,,,,,,,,,,,,,,,,,,,,,,,,,,,,,,,,,,,,,,,,,,,,,,,,,,,
,,,,,,60f1881264ff3a7f211d186a,62c538a3d1cad5ca791df9d6,2022-07-06_09h24.34.673,Colour_Asymmetry_Pilot,2022.1.3,Win32,74.55453664,62c50e9c1127f2cd403a315f,0,122,122,51,1,twofour,,,,,,,,,,,,,,,,,,,,,,,,,,,,,,,,,,,,,,,,,,,,,,,,,,,,,,,,,,,,,,,,,,,,,,,,,,,,,,,,,,,,,,,,,,,,,,,,,,,,,,,,,,,,,,,,,,,,,,,,,,,,,,,,,,,,,,,,,,,,,,,,,,,,,,,,,,,,,
,,,,,,60f1881264ff3a7f211d186a,62c538a3d1cad5ca791df9d6,2022-07-06_09h24.34.673,Colour_Asymmetry_Pilot,2022.1.3,Win32,74.55453664,62c50e9c1127f2cd403a315f,0,123,123,75,1,twofour,,,,,,,,,,,,,,,,,,,,,,,,,,,,,,,,,,,,,,,,,,,,,,,,,,,,,,,,,,,,,,,,,,,,,,,,,,,,,,,,,,,,,,,,,,,,,,,,,,,,,,,,,,,,,,,,,,,,,,,,,,,,,,,,,,,,,,,,,,,,,,,,,,,,,,,,,,,,,
,,,,,,60f1881264ff3a7f211d186a,62c538a3d1cad5ca791df9d6,2022-07-06_09h24.34.673,Colour_Asymmetry_Pilot,2022.1.3,Win32,74.55453664,62c50e9c1127f2cd403a315f,0,124,124,116,1,threeone,,,,,,,,,,,,,,,,,,,,,,,,,,,,,,,,,,,,,,,,,,,,,,,,,,,,,,,,,,,,,,,,,,,,,,,,,,,,,,,,,,,,,,,,,,,,,,,,,,,,,,,,,,,,,,,,,,,,,,,,,,,,,,,,,,,,,,,,,,,,,,,,,,,,,,,,,,,,,
,,,,,,60f1881264ff3a7f211d186a,62c538a3d1cad5ca791df9d6,2022-07-06_09h24.34.673,Colour_Asymmetry_Pilot,2022.1.3,Win32,74.55453664,62c50e9c1127f2cd403a315f,0,125,125,138,1,twoone,,,,,,,,,,,,,,,,,,,,,,,,,,,,,,,,,,,,,,,,,,,,,,,,,,,,,,,,,,,,,,,,,,,,,,,,,,,,,,,,,,,,,,,,,,,,,,,,,,,,,,,,,,,,,,,,,,,,,,,,,,,,,,,,,,,,,,,,,,,,,,,,,,,,,,,,,,,,,
,,,,,,60f1881264ff3a7f211d186a,62c538a3d1cad5ca791df9d6,2022-07-06_09h24.34.673,Colour_Asymmetry_Pilot,2022.1.3,Win32,74.55453664,62c50e9c1127f2cd403a315f,0,126,126,136,1,onetwo,,,,,,,,,,,,,,,,,,,,,,,,,,,,,,,,,,,,,,,,,,,,,,,,,,,,,,,,,,,,,,,,,,,,,,,,,,,,,,,,,,,,,,,,,,,,,,,,,,,,,,,,,,,,,,,,,,,,,,,,,,,,,,,,,,,,,,,,,,,,,,,,,,,,,,,,,,,,,
,,,,,,60f1881264ff3a7f211d186a,62c538a3d1cad5ca791df9d6,2022-07-06_09h24.34.673,Colour_Asymmetry_Pilot,2022.1.3,Win32,74.55453664,62c50e9c1127f2cd403a315f,0,127,127,49,1,onethree,,,,,,,,,,,,,,,,,,,,,,,,,,,,,,,,,,,,,,,,,,,,,,,,,,,,,,,,,,,,,,,,,,,,,,,,,,,,,,,,,,,,,,,,,,,,,,,,,,,,,,,,,,,,,,,,,,,,,,,,,,,,,,,,,,,,,,,,,,,,,,,,,,,,,,,,,,,,,
,,,,,,60f1881264ff3a7f211d186a,62c538a3d1cad5ca791df9d6,2022-07-06_09h24.34.673,Colour_Asymmetry_Pilot,2022.1.3,Win32,74.55453664,62c50e9c1127f2cd403a315f,0,128,128,46,1,fourtwo,,,,,,,,,,,,,,,,,,,,,,,,,,,,,,,,,,,,,,,,,,,,,,,,,,,,,,,,,,,,,,,,,,,,,,,,,,,,,,,,,,,,,,,,,,,,,,,,,,,,,,,,,,,,,,,,,,,,,,,,,,,,,,,,,,,,,,,,,,,,,,,,,,,,,,,,,,,,,
,,,,,,60f1881264ff3a7f211d186a,62c538a3d1cad5ca791df9d6,2022-07-06_09h24.34.673,Colour_Asymmetry_Pilot,2022.1.3,Win32,74.55453664,62c50e9c1127f2cd403a315f,0,129,129,110,1,fourtwo,,,,,,,,,,,,,,,,,,,,,,,,,,,,,,,,,,,,,,,,,,,,,,,,,,,,,,,,,,,,,,,,,,,,,,,,,,,,,,,,,,,,,,,,,,,,,,,,,,,,,,,,,,,,,,,,,,,,,,,,,,,,,,,,,,,,,,,,,,,,,,,,,,,,,,,,,,,,,
,,,,,,60f1881264ff3a7f211d186a,62c538a3d1cad5ca791df9d6,2022-07-06_09h24.34.673,Colour_Asymmetry_Pilot,2022.1.3,Win32,74.55453664,62c50e9c1127f2cd403a315f,0,130,130,24,1,onetwo,,,,,,,,,,,,,,,,,,,,,,,,,,,,,,,,,,,,,,,,,,,,,,,,,,,,,,,,,,,,,,,,,,,,,,,,,,,,,,,,,,,,,,,,,,,,,,,,,,,,,,,,,,,,,,,,,,,,,,,,,,,,,,,,,,,,,,,,,,,,,,,,,,,,,,,,,,,,,
,,,,,,60f1881264ff3a7f211d186a,62c538a3d1cad5ca791df9d6,2022-07-06_09h24.34.673,Colour_Asymmetry_Pilot,2022.1.3,Win32,74.55453664,62c50e9c1127f2cd403a315f,0,131,131,68,1,threeone,,,,,,,,,,,,,,,,,,,,,,,,,,,,,,,,,,,,,,,,,,,,,,,,,,,,,,,,,,,,,,,,,,,,,,,,,,,,,,,,,,,,,,,,,,,,,,,,,,,,,,,,,,,,,,,,,,,,,,,,,,,,,,,,,,,,,,,,,,,,,,,,,,,,,,,,,,,,,
,,,,,,60f1881264ff3a7f211d186a,62c538a3d1cad5ca791df9d6,2022-07-06_09h24.34.673,Colour_Asymmetry_Pilot,2022.1.3,Win32,74.55453664,62c50e9c1127f2cd403a315f,0,132,132,76,1,threeone,,,,,,,,,,,,,,,,,,,,,,,,,,,,,,,,,,,,,,,,,,,,,,,,,,,,,,,,,,,,,,,,,,,,,,,,,,,,,,,,,,,,,,,,,,,,,,,,,,,,,,,,,,,,,,,,,,,,,,,,,,,,,,,,,,,,,,,,,,,,,,,,,,,,,,,,,,,,,
,,,,,,60f1881264ff3a7f211d186a,62c538a3d1cad5ca791df9d6,2022-07-06_09h24.34.673,Colour_Asymmetry_Pilot,2022.1.3,Win32,74.55453664,62c50e9c1127f2cd403a315f,0,133,133,14,1,fourtwo,,,,,,,,,,,,,,,,,,,,,,,,,,,,,,,,,,,,,,,,,,,,,,,,,,,,,,,,,,,,,,,,,,,,,,,,,,,,,,,,,,,,,,,,,,,,,,,,,,,,,,,,,,,,,,,,,,,,,,,,,,,,,,,,,,,,,,,,,,,,,,,,,,,,,,,,,,,,,
,,,,,,60f1881264ff3a7f211d186a,62c538a3d1cad5ca791df9d6,2022-07-06_09h24.34.673,Colour_Asymmetry_Pilot,2022.1.3,Win32,74.55453664,62c50e9c1127f2cd403a315f,0,134,134,89,1,onethree,,,,,,,,,,,,,,,,,,,,,,,,,,,,,,,,,,,,,,,,,,,,,,,,,,,,,,,,,,,,,,,,,,,,,,,,,,,,,,,,,,,,,,,,,,,,,,,,,,,,,,,,,,,,,,,,,,,,,,,,,,,,,,,,,,,,,,,,,,,,,,,,,,,,,,,,,,,,,
,,,,,,60f1881264ff3a7f211d186a,62c538a3d1cad5ca791df9d6,2022-07-06_09h24.34.673,Colour_Asymmetry_Pilot,2022.1.3,Win32,74.55453664,62c50e9c1127f2cd403a315f,0,135,135,32,1,onetwo,,,,,,,,,,,,,,,,,,,,,,,,,,,,,,,,,,,,,,,,,,,,,,,,,,,,,,,,,,,,,,,,,,,,,,,,,,,,,,,,,,,,,,,,,,,,,,,,,,,,,,,,,,,,,,,,,,,,,,,,,,,,,,,,,,,,,,,,,,,,,,,,,,,,,,,,,,,,,
,,,,,,60f1881264ff3a7f211d186a,62c538a3d1cad5ca791df9d6,2022-07-06_09h24.34.673,Colour_Asymmetry_Pilot,2022.1.3,Win32,74.55453664,62c50e9c1127f2cd403a315f,0,136,136,111,1,fourthree,,,,,,,,,,,,,,,,,,,,,,,,,,,,,,,,,,,,,,,,,,,,,,,,,,,,,,,,,,,,,,,,,,,,,,,,,,,,,,,,,,,,,,,,,,,,,,,,,,,,,,,,,,,,,,,,,,,,,,,,,,,,,,,,,,,,,,,,,,,,,,,,,,,,,,,,,,,,,
,,,,,,60f1881264ff3a7f211d186a,62c538a3d1cad5ca791df9d6,2022-07-06_09h24.34.673,Colour_Asymmetry_Pilot,2022.1.3,Win32,74.55453664,62c50e9c1127f2cd403a315f,0,137,137,152,1,onetwo,,,,,,,,,,,,,,,,,,,,,,,,,,,,,,,,,,,,,,,,,,,,,,,,,,,,,,,,,,,,,,,,,,,,,,,,,,,,,,,,,,,,,,,,,,,,,,,,,,,,,,,,,,,,,,,,,,,,,,,,,,,,,,,,,,,,,,,,,,,,,,,,,,,,,,,,,,,,,
,,,,,,60f1881264ff3a7f211d186a,62c538a3d1cad5ca791df9d6,2022-07-06_09h24.34.673,Colour_Asymmetry_Pilot,2022.1.3,Win32,74.55453664,62c50e9c1127f2cd403a315f,0,138,138,35,1,twofour,,,,,,,,,,,,,,,,,,,,,,,,,,,,,,,,,,,,,,,,,,,,,,,,,,,,,,,,,,,,,,,,,,,,,,,,,,,,,,,,,,,,,,,,,,,,,,,,,,,,,,,,,,,,,,,,,,,,,,,,,,,,,,,,,,,,,,,,,,,,,,,,,,,,,,,,,,,,,
,,,,,,60f1881264ff3a7f211d186a,62c538a3d1cad5ca791df9d6,2022-07-06_09h24.34.673,Colour_Asymmetry_Pilot,2022.1.3,Win32,74.55453664,62c50e9c1127f2cd403a315f,0,139,139,128,1,onetwo,,,,,,,,,,,,,,,,,,,,,,,,,,,,,,,,,,,,,,,,,,,,,,,,,,,,,,,,,,,,,,,,,,,,,,,,,,,,,,,,,,,,,,,,,,,,,,,,,,,,,,,,,,,,,,,,,,,,,,,,,,,,,,,,,,,,,,,,,,,,,,,,,,,,,,,,,,,,,
,,,,,,60f1881264ff3a7f211d186a,62c538a3d1cad5ca791df9d6,2022-07-06_09h24.34.673,Colour_Asymmetry_Pilot,2022.1.3,Win32,74.55453664,62c50e9c1127f2cd403a315f,0,140,140,45,1,threefour,,,,,,,,,,,,,,,,,,,,,,,,,,,,,,,,,,,,,,,,,,,,,,,,,,,,,,,,,,,,,,,,,,,,,,,,,,,,,,,,,,,,,,,,,,,,,,,,,,,,,,,,,,,,,,,,,,,,,,,,,,,,,,,,,,,,,,,,,,,,,,,,,,,,,,,,,,,,,
,,,,,,60f1881264ff3a7f211d186a,62c538a3d1cad5ca791df9d6,2022-07-06_09h24.34.673,Colour_Asymmetry_Pilot,2022.1.3,Win32,74.55453664,62c50e9c1127f2cd403a315f,0,141,141,123,1,twofour,,,,,,,,,,,,,,,,,,,,,,,,,,,,,,,,,,,,,,,,,,,,,,,,,,,,,,,,,,,,,,,,,,,,,,,,,,,,,,,,,,,,,,,,,,,,,,,,,,,,,,,,,,,,,,,,,,,,,,,,,,,,,,,,,,,,,,,,,,,,,,,,,,,,,,,,,,,,,
,,,,,,60f1881264ff3a7f211d186a,62c538a3d1cad5ca791df9d6,2022-07-06_09h24.34.673,Colour_Asymmetry_Pilot,2022.1.3,Win32,74.55453664,62c50e9c1127f2cd403a315f,0,142,142,107,1,twofour,,,,,,,,,,,,,,,,,,,,,,,,,,,,,,,,,,,,,,,,,,,,,,,,,,,,,,,,,,,,,,,,,,,,,,,,,,,,,,,,,,,,,,,,,,,,,,,,,,,,,,,,,,,,,,,,,,,,,,,,,,,,,,,,,,,,,,,,,,,,,,,,,,,,,,,,,,,,,
,,,,,,60f1881264ff3a7f211d186a,62c538a3d1cad5ca791df9d6,2022-07-06_09h24.34.673,Colour_Asymmetry_Pilot,2022.1.3,Win32,74.55453664,62c50e9c1127f2cd403a315f,0,143,143,65,1,onethree,,,,,,,,,,,,,,,,,,,,,,,,,,,,,,,,,,,,,,,,,,,,,,,,,,,,,,,,,,,,,,,,,,,,,,,,,,,,,,,,,,,,,,,,,,,,,,,,,,,,,,,,,,,,,,,,,,,,,,,,,,,,,,,,,,,,,,,,,,,,,,,,,,,,,,,,,,,,,
,,,,,,60f1881264ff3a7f211d186a,62c538a3d1cad5ca791df9d6,2022-07-06_09h24.34.673,Colour_Asymmetry_Pilot,2022.1.3,Win32,74.55453664,62c50e9c1127f2cd403a315f,0,144,144,2,1,twoone,,,,,,,,,,,,,,,,,,,,,,,,,,,,,,,,,,,,,,,,,,,,,,,,,,,,,,,,,,,,,,,,,,,,,,,,,,,,,,,,,,,,,,,,,,,,,,,,,,,,,,,,,,,,,,,,,,,,,,,,,,,,,,,,,,,,,,,,,,,,,,,,,,,,,,,,,,,,,
,,,,,,60f1881264ff3a7f211d186a,62c538a3d1cad5ca791df9d6,2022-07-06_09h24.34.673,Colour_Asymmetry_Pilot,2022.1.3,Win32,74.55453664,62c50e9c1127f2cd403a315f,0,145,145,77,1,threefour,,,,,,,,,,,,,,,,,,,,,,,,,,,,,,,,,,,,,,,,,,,,,,,,,,,,,,,,,,,,,,,,,,,,,,,,,,,,,,,,,,,,,,,,,,,,,,,,,,,,,,,,,,,,,,,,,,,,,,,,,,,,,,,,,,,,,,,,,,,,,,,,,,,,,,,,,,,,,
,,,,,,60f1881264ff3a7f211d186a,62c538a3d1cad5ca791df9d6,2022-07-06_09h24.34.673,Colour_Asymmetry_Pilot,2022.1.3,Win32,74.55453664,62c50e9c1127f2cd403a315f,0,146,146,83,1,twofour,,,,,,,,,,,,,,,,,,,,,,,,,,,,,,,,,,,,,,,,,,,,,,,,,,,,,,,,,,,,,,,,,,,,,,,,,,,,,,,,,,,,,,,,,,,,,,,,,,,,,,,,,,,,,,,,,,,,,,,,,,,,,,,,,,,,,,,,,,,,,,,,,,,,,,,,,,,,,
,,,,,,60f1881264ff3a7f211d186a,62c538a3d1cad5ca791df9d6,2022-07-06_09h24.34.673,Colour_Asymmetry_Pilot,2022.1.3,Win32,74.55453664,62c50e9c1127f2cd403a315f,0,147,147,37,1,threefour,,,,,,,,,,,,,,,,,,,,,,,,,,,,,,,,,,,,,,,,,,,,,,,,,,,,,,,,,,,,,,,,,,,,,,,,,,,,,,,,,,,,,,,,,,,,,,,,,,,,,,,,,,,,,,,,,,,,,,,,,,,,,,,,,,,,,,,,,,,,,,,,,,,,,,,,,,,,,
,,,,,,60f1881264ff3a7f211d186a,62c538a3d1cad5ca791df9d6,2022-07-06_09h24.34.673,Colour_Asymmetry_Pilot,2022.1.3,Win32,74.55453664,62c50e9c1127f2cd403a315f,0,148,148,126,1,fourtwo,,,,,,,,,,,,,,,,,,,,,,,,,,,,,,,,,,,,,,,,,,,,,,,,,,,,,,,,,,,,,,,,,,,,,,,,,,,,,,,,,,,,,,,,,,,,,,,,,,,,,,,,,,,,,,,,,,,,,,,,,,,,,,,,,,,,,,,,,,,,,,,,,,,,,,,,,,,,,
,,,,,,60f1881264ff3a7f211d186a,62c538a3d1cad5ca791df9d6,2022-07-06_09h24.34.673,Colour_Asymmetry_Pilot,2022.1.3,Win32,74.55453664,62c50e9c1127f2cd403a315f,0,149,149,143,1,fourthree,,,,,,,,,,,,,,,,,,,,,,,,,,,,,,,,,,,,,,,,,,,,,,,,,,,,,,,,,,,,,,,,,,,,,,,,,,,,,,,,,,,,,,,,,,,,,,,,,,,,,,,,,,,,,,,,,,,,,,,,,,,,,,,,,,,,,,,,,,,,,,,,,,,,,,,,,,,,,
,,,,,,60f1881264ff3a7f211d186a,62c538a3d1cad5ca791df9d6,2022-07-06_09h24.34.673,Colour_Asymmetry_Pilot,2022.1.3,Win32,74.55453664,62c50e9c1127f2cd403a315f,0,150,150,95,1,fourthree,,,,,,,,,,,,,,,,,,,,,,,,,,,,,,,,,,,,,,,,,,,,,,,,,,,,,,,,,,,,,,,,,,,,,,,,,,,,,,,,,,,,,,,,,,,,,,,,,,,,,,,,,,,,,,,,,,,,,,,,,,,,,,,,,,,,,,,,,,,,,,,,,,,,,,,,,,,,,
,,,,,,60f1881264ff3a7f211d186a,62c538a3d1cad5ca791df9d6,2022-07-06_09h24.34.673,Colour_Asymmetry_Pilot,2022.1.3,Win32,74.55453664,62c50e9c1127f2cd403a315f,0,151,151,155,1,twofour,,,,,,,,,,,,,,,,,,,,,,,,,,,,,,,,,,,,,,,,,,,,,,,,,,,,,,,,,,,,,,,,,,,,,,,,,,,,,,,,,,,,,,,,,,,,,,,,,,,,,,,,,,,,,,,,,,,,,,,,,,,,,,,,,,,,,,,,,,,,,,,,,,,,,,,,,,,,,
,,,,,,60f1881264ff3a7f211d186a,62c538a3d1cad5ca791df9d6,2022-07-06_09h24.34.673,Colour_Asymmetry_Pilot,2022.1.3,Win32,74.55453664,62c50e9c1127f2cd403a315f,0,152,152,149,1,threefour,,,,,,,,,,,,,,,,,,,,,,,,,,,,,,,,,,,,,,,,,,,,,,,,,,,,,,,,,,,,,,,,,,,,,,,,,,,,,,,,,,,,,,,,,,,,,,,,,,,,,,,,,,,,,,,,,,,,,,,,,,,,,,,,,,,,,,,,,,,,,,,,,,,,,,,,,,,,,
,,,,,,60f1881264ff3a7f211d186a,62c538a3d1cad5ca791df9d6,2022-07-06_09h24.34.673,Colour_Asymmetry_Pilot,2022.1.3,Win32,74.55453664,62c50e9c1127f2cd403a315f,0,153,153,104,1,onetwo,,,,,,,,,,,,,,,,,,,,,,,,,,,,,,,,,,,,,,,,,,,,,,,,,,,,,,,,,,,,,,,,,,,,,,,,,,,,,,,,,,,,,,,,,,,,,,,,,,,,,,,,,,,,,,,,,,,,,,,,,,,,,,,,,,,,,,,,,,,,,,,,,,,,,,,,,,,,,
,,,,,,60f1881264ff3a7f211d186a,62c538a3d1cad5ca791df9d6,2022-07-06_09h24.34.673,Colour_Asymmetry_Pilot,2022.1.3,Win32,74.55453664,62c50e9c1127f2cd403a315f,0,154,154,53,1,threefour,,,,,,,,,,,,,,,,,,,,,,,,,,,,,,,,,,,,,,,,,,,,,,,,,,,,,,,,,,,,,,,,,,,,,,,,,,,,,,,,,,,,,,,,,,,,,,,,,,,,,,,,,,,,,,,,,,,,,,,,,,,,,,,,,,,,,,,,,,,,,,,,,,,,,,,,,,,,,
,,,,,,60f1881264ff3a7f211d186a,62c538a3d1cad5ca791df9d6,2022-07-06_09h24.34.673,Colour_Asymmetry_Pilot,2022.1.3,Win32,74.55453664,62c50e9c1127f2cd403a315f,0,155,155,106,1,twoone,,,,,,,,,,,,,,,,,,,,,,,,,,,,,,,,,,,,,,,,,,,,,,,,,,,,,,,,,,,,,,,,,,,,,,,,,,,,,,,,,,,,,,,,,,,,,,,,,,,,,,,,,,,,,,,,,,,,,,,,,,,,,,,,,,,,,,,,,,,,,,,,,,,,,,,,,,,,,
,,,,,,60f1881264ff3a7f211d186a,62c538a3d1cad5ca791df9d6,2022-07-06_09h24.34.673,Colour_Asymmetry_Pilot,2022.1.3,Win32,74.55453664,62c50e9c1127f2cd403a315f,0,156,156,22,1,fourtwo,,,,,,,,,,,,,,,,,,,,,,,,,,,,,,,,,,,,,,,,,,,,,,,,,,,,,,,,,,,,,,,,,,,,,,,,,,,,,,,,,,,,,,,,,,,,,,,,,,,,,,,,,,,,,,,,,,,,,,,,,,,,,,,,,,,,,,,,,,,,,,,,,,,,,,,,,,,,,
,,,,,,60f1881264ff3a7f211d186a,62c538a3d1cad5ca791df9d6,2022-07-06_09h24.34.673,Colour_Asymmetry_Pilot,2022.1.3,Win32,74.55453664,62c50e9c1127f2cd403a315f,0,157,157,158,1,fourtwo,,,,,,,,,,,,,,,,,,,,,,,,,,,,,,,,,,,,,,,,,,,,,,,,,,,,,,,,,,,,,,,,,,,,,,,,,,,,,,,,,,,,,,,,,,,,,,,,,,,,,,,,,,,,,,,,,,,,,,,,,,,,,,,,,,,,,,,,,,,,,,,,,,,,,,,,,,,,,
,,,,,,60f1881264ff3a7f211d186a,62c538a3d1cad5ca791df9d6,2022-07-06_09h24.34.673,Colour_Asymmetry_Pilot,2022.1.3,Win32,74.55453664,62c50e9c1127f2cd403a315f,0,158,158,29,1,threefour,,,,,,,,,,,,,,,,,,,,,,,,,,,,,,,,,,,,,,,,,,,,,,,,,,,,,,,,,,,,,,,,,,,,,,,,,,,,,,,,,,,,,,,,,,,,,,,,,,,,,,,,,,,,,,,,,,,,,,,,,,,,,,,,,,,,,,,,,,,,,,,,,,,,,,,,,,,,,
,,,,,,60f1881264ff3a7f211d186a,62c538a3d1cad5ca791df9d6,2022-07-06_09h24.34.673,Colour_Asymmetry_Pilot,2022.1.3,Win32,74.55453664,62c50e9c1127f2cd403a315f,0,159,159,96,1,onetwo,,,,,,,,,,,,,,,,,,,,,,,,,,,,,,,,,,,,,,,,,,,,,,,,,,,,,,,,,,,,,,,,,,,,,,,,,,,,,,,,,,,,,,,,,,,,,,,,,,,,,,,,,,,,,,,,,,,,,,,,,,,,,,,,,,,,,,,,,,,,,,,,,,,,,,,,,,,,,
,,,,,,60f1881264ff3a7f211d186a,62c538a3d1cad5ca791df9d6,2022-07-06_09h24.34.673,Colour_Asymmetry_Pilot,2022.1.3,Win32,74.55453664,62c50e9c1127f2cd403a315f,0,160,160,58,1,twoone,,,,,,,,,,,,,,,,,,,,,,,,,,,,,,,,,,,,,,,,,,,,,,,,,,,,,,,,,,,,,,,,,,,,,,,,,,,,,,,,,,,,,,,,,,,,,,,,,,,,,,,,,,,,,,,,,,,,,,,,,,,,,,,,,,,,,,,,,,,,,,,,,,,,,,,,,,,,,
,,,,,,60f1881264ff3a7f211d186a,62c538a3d1cad5ca791df9d6,2022-07-06_09h24.34.673,Colour_Asymmetry_Pilot,2022.1.3,Win32,74.55453664,62c50e9c1127f2cd403a315f,0,161,161,31,1,fourthree,,,,,,,,,,,,,,,,,,,,,,,,,,,,,,,,,,,,,,,,,,,,,,,,,,,,,,,,,,,,,,,,,,,,,,,,,,,,,,,,,,,,,,,,,,,,,,,,,,,,,,,,,,,,,,,,,,,,,,,,,,,,,,,,,,,,,,,,,,,,,,,,,,,,,,,,,,,,,
,,,,,,60f1881264ff3a7f211d186a,62c538a3d1cad5ca791df9d6,2022-07-06_09h24.34.673,Colour_Asymmetry_Pilot,2022.1.3,Win32,74.55453664,62c50e9c1127f2cd403a315f,,,,,,,space,3.6827,space,24.6063,space,40.3623,space,11.9632,space,7.3476,space,4.0546,"[-0.5922000000000001,-0.7492000000000001,-0.5296000000000001]",threeone,"[0.7176,-0.906,-0.6864]",-4,5.985,-57,134,1,0,0,response7disk_5,4,-4,1,0,0,rectangle_8,4,-4,1,0,0,1,4,-4,1,0,0,0,0,0,0,1,,,,,,,,,,,,,,,,,,,,,,,,,,,,,,,,,,,,,,,,,,,,,,,,,,,,,,,,,,,,,,,,,,,,,,,,,,,,,,,,,,,,,,,,,,,,,,,,,,,,,,,,,,,,,,,,
,,,,,,60f1881264ff3a7f211d186a,62c538a3d1cad5ca791df9d6,2022-07-06_09h24.34.673,Colour_Asymmetry_Pilot,2022.1.3,Win32,74.55453664,62c50e9c1127f2cd403a315f,,,,,,,,,,,,,,,,,,,"[0.30180000000000007,-0.7884,-0.9844]",threefour,"[0.05879999999999996,0.2784,0.5841999999999998]",-4,2.7213,-57,125,1,0,0,response7disk_5,-2,5,1,0,0,rectangle_8,57,-109,1,0,0,1,6,-3,1,0,0,1,0,1,0,1,response3disk_7,4,rectangle_4,,,,,,,,,,,,,,,,,,,,,,,,,,,,,,,,,,,,,,,,,,,,,,,,,,,,,,,,,,,,,,,,,,,,,,,,,,,,,,,,,,,,,,,,,,,,,,,,,,,,,,,,,,,,,
,,,,,,60f1881264ff3a7f211d186a,62c538a3d1cad5ca791df9d6,2022-07-06_09h24.34.673,Colour_Asymmetry_Pilot,2022.1.3,Win32,74.55453664,62c50e9c1127f2cd403a315f,,,,,,,,,,,,,,,,,,,"[0.3802000000000001,0.19199999999999995,-0.6394]",onethree,"[-0.24719999999999998,0.5213999999999999,-0.12959999999999994]",3,2.3477,76,33,1,0,0,response1disk_5,15,1,1,0,0,rectangle_8,15,1,1,0,0,1,15,1,1,0,0,2,0,2,0,1,,,,,,,,,,,,,,,,,,,,,,,,,,,,,,,,,,,,,,,,,,,,,,,,,,,,,,,,,,,,,,,,,,,,,,,,,,,,,,,,,,,,,,,,,,,,,,,,,,,,,,,,,,,,,,,,
,,,,,,60f1881264ff3a7f211d186a,62c538a3d1cad5ca791df9d6,2022-07-06_09h24.34.673,Colour_Asymmetry_Pilot,2022.1.3,Win32,74.55453664,62c50e9c1127f2cd403a315f,,,,,,,,,,,,,,,,,,,"[-0.4276,0.0038000000000000256,-0.3256]",twoone,"[0.3568,-0.20799999999999996,-0.9844]",-1,3.6538,-53,-80,1,0,0,response5disk_5,-19,-4,1,0,0,rectangle_8,51,-117,1,0,0,1,18,-6,1,0,0,3,0,3,0,1,response3disk_7,4,rectangle_4,,,,,,,,,,,,,,,,,,,,,,,,,,,,,,,,,,,,,,,,,,,,,,,,,,,,,,,,,,,,,,,,,,,,,,,,,,,,,,,,,,,,,,,,,,,,,,,,,,,,,,,,,,,,,
,,,,,,60f1881264ff3a7f211d186a,62c538a3d1cad5ca791df9d6,2022-07-06_09h24.34.673,Colour_Asymmetry_Pilot,2022.1.3,Win32,74.55453664,62c50e9c1127f2cd403a315f,,,,,,,,,,,,,,,,,,,"[0.23920000000000008,0.2704,0.16060000000000008]",threeone,"[1,0.12939999999999996,-1]",-3,1.387,-81,32,1,0,0,response7disk_5,-17,-14,1,0,0,rectangle_8,-17,-14,1,0,0,1,-17,-14,1,0,0,4,0,4,0,1,,,,,,,,,,,,,,,,,,,,,,,,,,,,,,,,,,,,,,,,,,,,,,,,,,,,,,,,,,,,,,,,,,,,,,,,,,,,,,,,,,,,,,,,,,,,,,,,,,,,,,,,,,,,,,,,
,,,,,,60f1881264ff3a7f211d186a,62c538a3d1cad5ca791df9d6,2022-07-06_09h24.34.673,Colour_Asymmetry_Pilot,2022.1.3,Win32,74.55453664,62c50e9c1127f2cd403a315f,,,,,,,,,,,,,,,,,,,"[0.2862,0.7802,0.3568]",twofour,"[-0.5688,-0.08239999999999992,-0.1844]",-1,1.9344,-37,-66,1,0,0,response5disk_5,-16,-15,1,0,0,rectangle_8,-16,-15,1,0,0,1,-16,-15,1,0,0,5,0,5,0,1,,,,,,,,,,,,,,,,,,,,,,,,,,,,,,,,,,,,,,,,,,,,,,,,,,,,,,,,,,,,,,,,,,,,,,,,,,,,,,,,,,,,,,,,,,,,,,,,,,,,,,,,,,,,,,,,
,,,,,,60f1881264ff3a7f211d186a,62c538a3d1cad5ca791df9d6,2022-07-06_09h24.34.673,Colour_Asymmetry_Pilot,2022.1.3,Win32,74.55453664,62c50e9c1127f2cd403a315f,,,,,,,,,,,,,,,,,,,"[-0.10599999999999998,-0.15300000000000002,0.15280000000000005]",threefour,"[-0.9688,-0.4902000000000001,-0.12159999999999993]",2,1.1466,92,-42,1,0,0,response3disk_5,4,-6,1,0,0,rectangle_8,4,-6,1,0,0,1,4,-6,1,0,0,6,0,6,0,1,,,,,,,,,,,,,,,,,,,,,,,,,,,,,,,,,,,,,,,,,,,,,,,,,,,,,,,,,,,,,,,,,,,,,,,,,,,,,,,,,,,,,,,,,,,,,,,,,,,,,,,,,,,,,,,,
,,,,,,60f1881264ff3a7f211d186a,62c538a3d1cad5ca791df9d6,2022-07-06_09h24.34.673,Colour_Asymmetry_Pilot,2022.1.3,Win32,74.55453664,62c50e9c1127f2cd403a315f,,,,,,,,,,,,,,,,,,,,onetwo,,-3,2.121,,,,,,,,,,,,,,,,,,,,,,,,,,,,,,,,space,3.0146,"[-0.45899999999999996,-0.3256,-0.9374]","[-0.30200000000000005,0.14500000000000002,0.2784]",-73,32,1,0,0,response7disk,11,-3,1,0,0,rectangle,11,-3,1,0,0,,1,0.0022,0,11,-3,1,0,0,0,0,0,70,1,70,first,,,,,,,,,,,,,,,,,,,,,,,,,,,,,,,,,,,,,,,,,,,,,,,,,,,,,,,,,,,,,,,,,,,,,,,,
,,,,,,60f1881264ff3a7f211d186a,62c538a3d1cad5ca791df9d6,2022-07-06_09h24.34.673,Colour_Asymmetry_Pilot,2022.1.3,Win32,74.55453664,62c50e9c1127f2cd403a315f,,,,,,,,,,,,,,,,,,,,onethree,,-4,0.4667,,,,,,,,,,,,,,,,,,,,,,,,,,,,,,,,,,"[-0.7412000000000001,-0.08239999999999992,-0.6864]","[0.5449999999999999,-0.31000000000000005,-0.0354000000000001]",-51,86,1,0,0,response7disk,-28,12,1,0,0,rectangle,-28,12,1,0,0,,2,0.0015,0,-28,12,1,0,0,0,1,1,48,1,48,first,,,,,,,,,,,,,,,,,,,,,,,,,,,,,,,,,,,,,,,,,,,,,,,,,,,,,,,,,,,,,,,,,,,,,,,,
,,,,,,60f1881264ff3a7f211d186a,62c538a3d1cad5ca791df9d6,2022-07-06_09h24.34.673,Colour_Asymmetry_Pilot,2022.1.3,Win32,74.55453664,62c50e9c1127f2cd403a315f,,,,,,,,,,,,,,,,,,,,threeone,,-3,1.2798,,,,,,,,,,,,,,,,,,,,,,,,,,,,,,,,,,"[-0.07459999999999989,0.12139999999999995,-0.9922]","[0.40379999999999994,0.09000000000000008,0.44300000000000006]",-110,59,1,0,0,response7disk,-37,10,1,0,0,rectangle,-37,10,1,0,0,,1,0.0014,0,-37,10,1,0,0,0,2,2,96,1,15,second,,,,,,,,,,,,,,,,,,,,,,,,,,,,,,,,,,,,,,,,,,,,,,,,,,,,,,,,,,,,,,,,,,,,,,,,
,,,,,,60f1881264ff3a7f211d186a,62c538a3d1cad5ca791df9d6,2022-07-06_09h24.34.673,Colour_Asymmetry_Pilot,2022.1.3,Win32,74.55453664,62c50e9c1127f2cd403a315f,,,,,,,,,,,,,,,,,,,,fourthree,,-4,0.5602,,,,,,,,,,,,,,,,,,,,,,,,,,,,,,,,,,"[-0.5688,-0.08239999999999992,-0.1844]","[-0.9844,-0.9688,-0.9922]",-56,92,1,0,0,response7disk,-29,0,1,0,0,rectangle,-29,0,1,0,0,,2,0.0011,0,-29,0,1,0,0,0,3,3,102,1,21,second,,,,,,,,,,,,,,,,,,,,,,,,,,,,,,,,,,,,,,,,,,,,,,,,,,,,,,,,,,,,,,,,,,,,,,,,
,,,,,,60f1881264ff3a7f211d186a,62c538a3d1cad5ca791df9d6,2022-07-06_09h24.34.673,Colour_Asymmetry_Pilot,2022.1.3,Win32,74.55453664,62c50e9c1127f2cd403a315f,,,,,,,,,,,,,,,,,,,,twofour,,-4,1.0937,,,,,,,,,,,,,,,,,,,,,,,,,,,,,,,,,,"[0.37240000000000006,0.4980000000000002,-0.2864]","[-0.8982,-0.37259999999999993,0.2784]",-62,103,1,0,0,response7disk,-25,6,1,0,0,rectangle,-25,6,1,0,0,,1,0.0015,0,-25,6,1,0,0,0,4,4,148,1,67,second,,,,,,,,,,,,,,,,,,,,,,,,,,,,,,,,,,,,,,,,,,,,,,,,,,,,,,,,,,,,,,,,,,,,,,,,
,,,,,,60f1881264ff3a7f211d186a,62c538a3d1cad5ca791df9d6,2022-07-06_09h24.34.673,Colour_Asymmetry_Pilot,2022.1.3,Win32,74.55453664,62c50e9c1127f2cd403a315f,,,,,,,,,,,,,,,,,,,,onethree,,-4,0.4524,,,,,,,,,,,,,,,,,,,,,,,,,,,,,,,,,,"[-0.7412000000000001,-0.08239999999999992,-0.6864]","[0.23120000000000007,-0.7726,-0.34120000000000006]",-50,78,1,0,0,response7disk,-28,11,1,0,0,rectangle,-28,11,1,0,0,,2,0.0013,0,-28,11,1,0,0,0,5,5,81,1,0,second,,,,,,,,,,,,,,,,,,,,,,,,,,,,,,,,,,,,,,,,,,,,,,,,,,,,,,,,,,,,,,,,,,,,,,,,
,,,,,,60f1881264ff3a7f211d186a,62c538a3d1cad5ca791df9d6,2022-07-06_09h24.34.673,Colour_Asymmetry_Pilot,2022.1.3,Win32,74.55453664,62c50e9c1127f2cd403a315f,,,,,,,,,,,,,,,,,,,,fourthree,,-2,1.7067,,,,,,,,,,,,,,,,,,,,,,,,,,,,,,,,,,"[-0.4276,0.0038000000000000256,-0.3256]","[0.2862,0.7802,0.3568]",-90,-40,1,0,0,response5disk,-14,9,1,0,0,rectangle,-14,9,1,0,0,,1,0.0011,0,-14,9,1,0,0,0,6,6,33,1,33,first,,,,,,,,,,,,,,,,,,,,,,,,,,,,,,,,,,,,,,,,,,,,,,,,,,,,,,,,,,,,,,,,,,,,,,,,
,,,,,,60f1881264ff3a7f211d186a,62c538a3d1cad5ca791df9d6,2022-07-06_09h24.34.673,Colour_Asymmetry_Pilot,2022.1.3,Win32,74.55453664,62c50e9c1127f2cd403a315f,,,,,,,,,,,,,,,,,,,,threefour,,1,0.9598,,,,,,,,,,,,,,,,,,,,,,,,,,,,,,,,,,"[-0.4276,0.0038000000000000256,-0.3256]","[0.37240000000000006,-0.050999999999999934,-0.5216]",46,-69,1,0,0,response3disk,4,-1,1,0,0,rectangle,4,-1,1,0,0,,1,1E-04,0,4,-1,1,0,0,0,7,7,27,1,27,first,,,,,,,,,,,,,,,,,,,,,,,,,,,,,,,,,,,,,,,,,,,,,,,,,,,,,,,,,,,,,,,,,,,,,,,,
,,,,,,60f1881264ff3a7f211d186a,62c538a3d1cad5ca791df9d6,2022-07-06_09h24.34.673,Colour_Asymmetry_Pilot,2022.1.3,Win32,74.55453664,62c50e9c1127f2cd403a315f,,,,,,,,,,,,,,,,,,,,threefour,,3,0.6138,,,,,,,,,,,,,,,,,,,,,,,,,,,,,,,,,,"[-0.10599999999999998,-0.10599999999999998,0.5841999999999998]","[-0.9296,-0.12959999999999994,-0.043199999999999905]",83,42,1,0,0,response1disk,17,3,1,0,0,rectangle,17,3,1,0,0,,3,0.0013,0,17,3,1,0,0,0,8,8,19,1,19,first,,,,,,,,,,,,,,,,,,,,,,,,,,,,,,,,,,,,,,,,,,,,,,,,,,,,,,,,,,,,,,,,,,,,,,,,
,,,,,,60f1881264ff3a7f211d186a,62c538a3d1cad5ca791df9d6,2022-07-06_09h24.34.673,Colour_Asymmetry_Pilot,2022.1.3,Win32,74.55453664,62c50e9c1127f2cd403a315f,,,,,,,,,,,,,,,,,,,,fourtwo,,2,0.4273,,,,,,,,,,,,,,,,,,,,,,,,,,,,,,,,,,"[-0.38039999999999996,-0.4276,-0.1452]","[-0.6,0.16860000000000008,0.44300000000000006]",70,-37,1,0,0,response3disk,14,-2,1,0,0,rectangle,63,-92,1,0,0,1,1,1.2134,1,-9,17,1,0,0,0,9,9,97,1,16,second,response3disk_3,rectangle,,,,,,,,,,,,,,,,,,,,,,,,,,,,,,,,,,,,,,,,,,,,,,,,,,,,,,,,,,,,,,,,,,,,,,
,,,,,,60f1881264ff3a7f211d186a,62c538a3d1cad5ca791df9d6,2022-07-06_09h24.34.673,Colour_Asymmetry_Pilot,2022.1.3,Win32,74.55453664,62c50e9c1127f2cd403a315f,,,,,,,,,,,,,,,,,,,,onetwo,,1,1.2938,,,,,,,,,,,,,,,,,,,,,,,,,,,,,,,,,,"[0.18419999999999992,-0.4276,-0.404]","[0.37240000000000006,-0.050999999999999934,-0.5216]",44,-80,1,0,0,response3disk,-5,15,1,0,0,rectangle,-5,15,1,0,0,1,1,0.0002,0,-5,15,1,0,0,0,10,10,139,1,58,second,,,,,,,,,,,,,,,,,,,,,,,,,,,,,,,,,,,,,,,,,,,,,,,,,,,,,,,,,,,,,,,,,,,,,,,,
,,,,,,60f1881264ff3a7f211d186a,62c538a3d1cad5ca791df9d6,2022-07-06_09h24.34.673,Colour_Asymmetry_Pilot,2022.1.3,Win32,74.55453664,62c50e9c1127f2cd403a315f,,,,,,,,,,,,,,,,,,,,threeone,,-2,0.5604,,,,,,,,,,,,,,,,,,,,,,,,,,,,,,,,,,"[0.7802,-0.23140000000000005,-0.20799999999999996]","[-0.9766,-0.6472,0.07440000000000002]",-57,-42,1,0,0,response5disk,-12,2,1,0,0,rectangle,-12,2,1,0,0,1,2,0.0012,0,-12,2,1,0,0,0,11,11,60,1,60,first,,,,,,,,,,,,,,,,,,,,,,,,,,,,,,,,,,,,,,,,,,,,,,,,,,,,,,,,,,,,,,,,,,,,,,,,
,,,,,,60f1881264ff3a7f211d186a,62c538a3d1cad5ca791df9d6,2022-07-06_09h24.34.673,Colour_Asymmetry_Pilot,2022.1.3,Win32,74.55453664,62c50e9c1127f2cd403a315f,,,,,,,,,,,,,,,,,,,,fourtwo,,-1,0.5337,,,,,,,,,,,,,,,,,,,,,,,,,,,,,,,,,,"[0.30180000000000007,-0.7884,-0.9844]","[0.7018,0.7176,0.6155999999999999]",-51,-92,1,0,0,response5disk,-11,-6,1,0,0,rectangle,-11,-6,1,0,0,1,3,0.0011,0,-11,-6,1,0,0,0,12,12,25,1,25,first,,,,,,,,,,,,,,,,,,,,,,,,,,,,,,,,,,,,,,,,,,,,,,,,,,,,,,,,,,,,,,,,,,,,,,,,
,,,,,,60f1881264ff3a7f211d186a,62c538a3d1cad5ca791df9d6,2022-07-06_09h24.34.673,Colour_Asymmetry_Pilot,2022.1.3,Win32,74.55453664,62c50e9c1127f2cd403a315f,,,,,,,,,,,,,,,,,,,,fourtwo,,-1,0.8671,,,,,,,,,,,,,,,,,,,,,,,,,,,,,,,,,,"[0.0351999999999999,0.41159999999999997,0.0038000000000000256]","[0.7176,-0.906,-0.6864]",-58,-72,1,0,0,response5disk,-30,-9,1,0,0,rectangle,-30,-9,1,0,0,1,3,1E-04,0,-30,-9,1,0,0,0,13,13,68,1,68,first,,,,,,,,,,,,,,,,,,,,,,,,,,,,,,,,,,,,,,,,,,,,,,,,,,,,,,,,,,,,,,,,,,,,,,,,
,,,,,,60f1881264ff3a7f211d186a,62c538a3d1cad5ca791df9d6,2022-07-06_09h24.34.673,Colour_Asymmetry_Pilot,2022.1.3,Win32,74.55453664,62c50e9c1127f2cd403a315f,,,,,,,,,,,,,,,,,,,,threeone,,-2,1.0401,,,,,,,,,,,,,,,,,,,,,,,,,,,,,,,,,,"[-0.17659999999999998,-0.2864,-0.8354]","[-0.9688,-0.7412000000000001,-0.4902000000000001]",-100,-43,1,0,0,response5disk,-37,5,1,0,0,rectangle,-37,5,1,0,0,1,2,0.0011,0,-37,5,1,0,0,0,14,14,150,1,69,second,,,,,,,,,,,,,,,,,,,,,,,,,,,,,,,,,,,,,,,,,,,,,,,,,,,,,,,,,,,,,,,,,,,,,,,,
,,,,,,60f1881264ff3a7f211d186a,62c538a3d1cad5ca791df9d6,2022-07-06_09h24.34.673,Colour_Asymmetry_Pilot,2022.1.3,Win32,74.55453664,62c50e9c1127f2cd403a315f,,,,,,,,,,,,,,,,,,,,twofour,,-4,0.6935,,,,,,,,,,,,,,,,,,,,,,,,,,,,,,,,,,"[-0.6706000000000001,-0.6157999999999999,-0.6786]","[0.9213999999999998,0.6391999999999998,-0.9922]",-66,84,1,0,0,response7disk,-23,0,1,0,0,rectangle,-23,0,1,0,0,1,2,0.0002,0,-23,0,1,0,0,0,15,15,105,1,24,second,,,,,,,,,,,,,,,,,,,,,,,,,,,,,,,,,,,,,,,,,,,,,,,,,,,,,,,,,,,,,,,,,,,,,,,,
,,,,,,60f1881264ff3a7f211d186a,62c538a3d1cad5ca791df9d6,2022-07-06_09h24.34.673,Colour_Asymmetry_Pilot,2022.1.3,Win32,74.55453664,62c50e9c1127f2cd403a315f,,,,,,,,,,,,,,,,,,,,fourtwo,,1,0.6667,,,,,,,,,,,,,,,,,,,,,,,,,,,,,,,,,,"[0.2862,0.7802,0.3568]","[0.34099999999999997,0.12939999999999996,-0.9766]",43,-59,1,0,0,response3disk,3,4,1,0,0,rectangle,3,4,1,0,0,1,2,1E-04,0,3,4,1,0,0,0,16,16,79,1,79,first,,,,,,,,,,,,,,,,,,,,,,,,,,,,,,,,,,,,,,,,,,,,,,,,,,,,,,,,,,,,,,,,,,,,,,,,
,,,,,,60f1881264ff3a7f211d186a,62c538a3d1cad5ca791df9d6,2022-07-06_09h24.34.673,Colour_Asymmetry_Pilot,2022.1.3,Win32,74.55453664,62c50e9c1127f2cd403a315f,,,,,,,,,,,,,,,,,,,,twoone,,3,0.7598,,,,,,,,,,,,,,,,,,,,,,,,,,,,,,,,,,"[-0.4276,0.0038000000000000256,-0.3256]","[-0.48240000000000005,0.3175999999999999,0.2156]",78,51,1,0,0,response1disk,8,5,1,0,0,rectangle,8,5,1,0,0,1,2,0.0002,0,8,5,1,0,0,0,17,17,49,1,49,first,,,,,,,,,,,,,,,,,,,,,,,,,,,,,,,,,,,,,,,,,,,,,,,,,,,,,,,,,,,,,,,,,,,,,,,,
