trials.thisRepN,trials.thisTrialN,trials.thisN,trials.thisIndex,trials.ran,Colourcodes,participant,session,date,expName,psychopyVersion,OS,frameRate,study_id,trials_4.thisRepN,trials_4.thisTrialN,trials_4.thisN,trials_4.thisIndex,trials_4.ran,StimulusPos,key_resp.keys,key_resp.rt,key_resp_2.keys,key_resp_2.rt,key_resp_15.keys,key_resp_15.rt,key_resp_17.keys,key_resp_17.rt,key_resp_9.keys,key_resp_9.rt,key_resp_10.keys,key_resp_10.rt,Circle1_col,Ecc,Circle2_col,similarity,response_time,mouse_5.x,mouse_5.y,mouse_5.leftButton,mouse_5.midButton,mouse_5.rightButton,mouse_5.clicked_name,mouse_10.x,mouse_10.y,mouse_10.leftButton,mouse_10.midButton,mouse_10.rightButton,mouse_10.clicked_name,mouse_7.x,mouse_7.y,mouse_7.leftButton,mouse_7.midButton,mouse_7.rightButton,mouse_7.clicked_name,catchprac,catchnumberprac,mouse_6.x,mouse_6.y,mouse_6.leftButton,mouse_6.midButton,mouse_6.rightButton,mouse_6.clicked_name,duringprac.thisRepN,duringprac.thisTrialN,duringprac.thisN,duringprac.thisIndex,duringprac.ran,key_resp_22.keys,key_resp_22.rt,Circle1_colour,Circle2_colour,mouse.x,mouse.y,mouse.leftButton,mouse.midButton,mouse.rightButton,mouse.clicked_name,mouse_2.x,mouse_2.y,mouse_2.leftButton,mouse_2.midButton,mouse_2.rightButton,mouse_2.clicked_name,mouse_3.x,mouse_3.y,mouse_3.leftButton,mouse_3.midButton,mouse_3.rightButton,catchresponse,catchnumber,response_time_catch,Catch,mouse_11.x,mouse_11.y,mouse_11.leftButton,mouse_11.midButton,mouse_11.rightButton,trials_2.thisRepN,trials_2.thisTrialN,trials_2.thisN,trials_2.thisIndex,trials_2.ran,Colourpair,Temporder,mouse_3.clicked_name,mouse_11.clicked_name,trials_3.thisRepN,trials_3.thisTrialN,trials_3.thisN,trials_3.thisIndex,trials_3.ran,key_resp_instr_Ishi.keys,key_resp_instr_Ishi.rt,Ishi_trial_keyresp.keys,Ishi_textbox.text,Ishi_mouse.x,Ishi_mouse.y,Ishi_mouse.leftButton,Ishi_mouse.midButton,Ishi_mouse.rightButton,Ishi_mouse.clicked_name,Ishi_loop.thisRepN,Ishi_loop.thisTrialN,Ishi_loop.thisN,Ishi_loop.thisIndex,Ishi_loop.ran,imageaddress,Ishi_trial_keyresp.rt,textbox.text,mouse_4.x,mouse_4.y,mouse_4.leftButton,mouse_4.midButton,mouse_4.rightButton,mouse_4.clicked_name,textbox_2.text,mouse_8.x,mouse_8.y,mouse_8.leftButton,mouse_8.midButton,mouse_8.rightButton,mouse_8.clicked_name,textbox_3.text,mouse_9.x,mouse_9.y,mouse_9.leftButton,mouse_9.midButton,mouse_9.rightButton,mouse_9.clicked_name,textbox_4.text,mouse_12.x,mouse_12.y,mouse_12.leftButton,mouse_12.midButton,mouse_12.rightButton,mouse_12.clicked_name,textbox_5.text,mouse_13.x,mouse_13.y,mouse_13.leftButton,mouse_13.midButton,mouse_13.rightButton,mouse_13.clicked_name,textbox_6.text,mouse_14.x,mouse_14.y,mouse_14.leftButton,mouse_14.midButton,mouse_14.rightButton,mouse_14.clicked_name,textbox_7.text,mouse_15.x,mouse_15.y,mouse_15.leftButton,mouse_15.midButton,mouse_15.rightButton,mouse_15.clicked_name
0,0,0,45,1,,6151e74c66fb9fb95b2f522e,62c53a5e3d012ff394c79244,2022-07-06_09h36.11.214,Colour_Asymmetry_Pilot,2022.1.3,Win32,59.88741167,62c50e9c1127f2cd403a315f,,,,,,,,,,,,,,,,,,,,,,,,,,,,,,,,,,,,,,,,,,,,,,,,,,,,,,,,,,,,,,,,,,,,,,,,,,,,,,,,,,,,,,,,,,,,,,,,,,,,,,,,,,,,,,,,,,,,,,,,,,,,,,,,,,,,,,,,,,,,,,,,,,,,,,,,,,,,,,,,,,,,
0,1,1,76,1,,6151e74c66fb9fb95b2f522e,62c53a5e3d012ff394c79244,2022-07-06_09h36.11.214,Colour_Asymmetry_Pilot,2022.1.3,Win32,59.88741167,62c50e9c1127f2cd403a315f,,,,,,,,,,,,,,,,,,,,,,,,,,,,,,,,,,,,,,,,,,,,,,,,,,,,,,,,,,,,,,,,,,,,,,,,,,,,,,,,,,,,,,,,,,,,,,,,,,,,,,,,,,,,,,,,,,,,,,,,,,,,,,,,,,,,,,,,,,,,,,,,,,,,,,,,,,,,,,,,,,,,
0,2,2,16,1,,6151e74c66fb9fb95b2f522e,62c53a5e3d012ff394c79244,2022-07-06_09h36.11.214,Colour_Asymmetry_Pilot,2022.1.3,Win32,59.88741167,62c50e9c1127f2cd403a315f,,,,,,,,,,,,,,,,,,,,,,,,,,,,,,,,,,,,,,,,,,,,,,,,,,,,,,,,,,,,,,,,,,,,,,,,,,,,,,,,,,,,,,,,,,,,,,,,,,,,,,,,,,,,,,,,,,,,,,,,,,,,,,,,,,,,,,,,,,,,,,,,,,,,,,,,,,,,,,,,,,,,
0,3,3,63,1,,6151e74c66fb9fb95b2f522e,62c53a5e3d012ff394c79244,2022-07-06_09h36.11.214,Colour_Asymmetry_Pilot,2022.1.3,Win32,59.88741167,62c50e9c1127f2cd403a315f,,,,,,,,,,,,,,,,,,,,,,,,,,,,,,,,,,,,,,,,,,,,,,,,,,,,,,,,,,,,,,,,,,,,,,,,,,,,,,,,,,,,,,,,,,,,,,,,,,,,,,,,,,,,,,,,,,,,,,,,,,,,,,,,,,,,,,,,,,,,,,,,,,,,,,,,,,,,,,,,,,,,
0,4,4,11,1,,6151e74c66fb9fb95b2f522e,62c53a5e3d012ff394c79244,2022-07-06_09h36.11.214,Colour_Asymmetry_Pilot,2022.1.3,Win32,59.88741167,62c50e9c1127f2cd403a315f,,,,,,,,,,,,,,,,,,,,,,,,,,,,,,,,,,,,,,,,,,,,,,,,,,,,,,,,,,,,,,,,,,,,,,,,,,,,,,,,,,,,,,,,,,,,,,,,,,,,,,,,,,,,,,,,,,,,,,,,,,,,,,,,,,,,,,,,,,,,,,,,,,,,,,,,,,,,,,,,,,,,
0,5,5,28,1,,6151e74c66fb9fb95b2f522e,62c53a5e3d012ff394c79244,2022-07-06_09h36.11.214,Colour_Asymmetry_Pilot,2022.1.3,Win32,59.88741167,62c50e9c1127f2cd403a315f,,,,,,,,,,,,,,,,,,,,,,,,,,,,,,,,,,,,,,,,,,,,,,,,,,,,,,,,,,,,,,,,,,,,,,,,,,,,,,,,,,,,,,,,,,,,,,,,,,,,,,,,,,,,,,,,,,,,,,,,,,,,,,,,,,,,,,,,,,,,,,,,,,,,,,,,,,,,,,,,,,,,
0,6,6,55,1,,6151e74c66fb9fb95b2f522e,62c53a5e3d012ff394c79244,2022-07-06_09h36.11.214,Colour_Asymmetry_Pilot,2022.1.3,Win32,59.88741167,62c50e9c1127f2cd403a315f,,,,,,,,,,,,,,,,,,,,,,,,,,,,,,,,,,,,,,,,,,,,,,,,,,,,,,,,,,,,,,,,,,,,,,,,,,,,,,,,,,,,,,,,,,,,,,,,,,,,,,,,,,,,,,,,,,,,,,,,,,,,,,,,,,,,,,,,,,,,,,,,,,,,,,,,,,,,,,,,,,,,
0,7,7,35,1,,6151e74c66fb9fb95b2f522e,62c53a5e3d012ff394c79244,2022-07-06_09h36.11.214,Colour_Asymmetry_Pilot,2022.1.3,Win32,59.88741167,62c50e9c1127f2cd403a315f,,,,,,,,,,,,,,,,,,,,,,,,,,,,,,,,,,,,,,,,,,,,,,,,,,,,,,,,,,,,,,,,,,,,,,,,,,,,,,,,,,,,,,,,,,,,,,,,,,,,,,,,,,,,,,,,,,,,,,,,,,,,,,,,,,,,,,,,,,,,,,,,,,,,,,,,,,,,,,,,,,,,
0,8,8,73,1,,6151e74c66fb9fb95b2f522e,62c53a5e3d012ff394c79244,2022-07-06_09h36.11.214,Colour_Asymmetry_Pilot,2022.1.3,Win32,59.88741167,62c50e9c1127f2cd403a315f,,,,,,,,,,,,,,,,,,,,,,,,,,,,,,,,,,,,,,,,,,,,,,,,,,,,,,,,,,,,,,,,,,,,,,,,,,,,,,,,,,,,,,,,,,,,,,,,,,,,,,,,,,,,,,,,,,,,,,,,,,,,,,,,,,,,,,,,,,,,,,,,,,,,,,,,,,,,,,,,,,,,
0,9,9,13,1,,6151e74c66fb9fb95b2f522e,62c53a5e3d012ff394c79244,2022-07-06_09h36.11.214,Colour_Asymmetry_Pilot,2022.1.3,Win32,59.88741167,62c50e9c1127f2cd403a315f,,,,,,,,,,,,,,,,,,,,,,,,,,,,,,,,,,,,,,,,,,,,,,,,,,,,,,,,,,,,,,,,,,,,,,,,,,,,,,,,,,,,,,,,,,,,,,,,,,,,,,,,,,,,,,,,,,,,,,,,,,,,,,,,,,,,,,,,,,,,,,,,,,,,,,,,,,,,,,,,,,,,
0,10,10,61,1,,6151e74c66fb9fb95b2f522e,62c53a5e3d012ff394c79244,2022-07-06_09h36.11.214,Colour_Asymmetry_Pilot,2022.1.3,Win32,59.88741167,62c50e9c1127f2cd403a315f,,,,,,,,,,,,,,,,,,,,,,,,,,,,,,,,,,,,,,,,,,,,,,,,,,,,,,,,,,,,,,,,,,,,,,,,,,,,,,,,,,,,,,,,,,,,,,,,,,,,,,,,,,,,,,,,,,,,,,,,,,,,,,,,,,,,,,,,,,,,,,,,,,,,,,,,,,,,,,,,,,,,
0,11,11,91,1,,6151e74c66fb9fb95b2f522e,62c53a5e3d012ff394c79244,2022-07-06_09h36.11.214,Colour_Asymmetry_Pilot,2022.1.3,Win32,59.88741167,62c50e9c1127f2cd403a315f,,,,,,,,,,,,,,,,,,,,,,,,,,,,,,,,,,,,,,,,,,,,,,,,,,,,,,,,,,,,,,,,,,,,,,,,,,,,,,,,,,,,,,,,,,,,,,,,,,,,,,,,,,,,,,,,,,,,,,,,,,,,,,,,,,,,,,,,,,,,,,,,,,,,,,,,,,,,,,,,,,,,
0,12,12,39,1,,6151e74c66fb9fb95b2f522e,62c53a5e3d012ff394c79244,2022-07-06_09h36.11.214,Colour_Asymmetry_Pilot,2022.1.3,Win32,59.88741167,62c50e9c1127f2cd403a315f,,,,,,,,,,,,,,,,,,,,,,,,,,,,,,,,,,,,,,,,,,,,,,,,,,,,,,,,,,,,,,,,,,,,,,,,,,,,,,,,,,,,,,,,,,,,,,,,,,,,,,,,,,,,,,,,,,,,,,,,,,,,,,,,,,,,,,,,,,,,,,,,,,,,,,,,,,,,,,,,,,,,
0,13,13,10,1,,6151e74c66fb9fb95b2f522e,62c53a5e3d012ff394c79244,2022-07-06_09h36.11.214,Colour_Asymmetry_Pilot,2022.1.3,Win32,59.88741167,62c50e9c1127f2cd403a315f,,,,,,,,,,,,,,,,,,,,,,,,,,,,,,,,,,,,,,,,,,,,,,,,,,,,,,,,,,,,,,,,,,,,,,,,,,,,,,,,,,,,,,,,,,,,,,,,,,,,,,,,,,,,,,,,,,,,,,,,,,,,,,,,,,,,,,,,,,,,,,,,,,,,,,,,,,,,,,,,,,,,
0,14,14,89,1,,6151e74c66fb9fb95b2f522e,62c53a5e3d012ff394c79244,2022-07-06_09h36.11.214,Colour_Asymmetry_Pilot,2022.1.3,Win32,59.88741167,62c50e9c1127f2cd403a315f,,,,,,,,,,,,,,,,,,,,,,,,,,,,,,,,,,,,,,,,,,,,,,,,,,,,,,,,,,,,,,,,,,,,,,,,,,,,,,,,,,,,,,,,,,,,,,,,,,,,,,,,,,,,,,,,,,,,,,,,,,,,,,,,,,,,,,,,,,,,,,,,,,,,,,,,,,,,,,,,,,,,
0,15,15,26,1,,6151e74c66fb9fb95b2f522e,62c53a5e3d012ff394c79244,2022-07-06_09h36.11.214,Colour_Asymmetry_Pilot,2022.1.3,Win32,59.88741167,62c50e9c1127f2cd403a315f,,,,,,,,,,,,,,,,,,,,,,,,,,,,,,,,,,,,,,,,,,,,,,,,,,,,,,,,,,,,,,,,,,,,,,,,,,,,,,,,,,,,,,,,,,,,,,,,,,,,,,,,,,,,,,,,,,,,,,,,,,,,,,,,,,,,,,,,,,,,,,,,,,,,,,,,,,,,,,,,,,,,
0,16,16,50,1,,6151e74c66fb9fb95b2f522e,62c53a5e3d012ff394c79244,2022-07-06_09h36.11.214,Colour_Asymmetry_Pilot,2022.1.3,Win32,59.88741167,62c50e9c1127f2cd403a315f,,,,,,,,,,,,,,,,,,,,,,,,,,,,,,,,,,,,,,,,,,,,,,,,,,,,,,,,,,,,,,,,,,,,,,,,,,,,,,,,,,,,,,,,,,,,,,,,,,,,,,,,,,,,,,,,,,,,,,,,,,,,,,,,,,,,,,,,,,,,,,,,,,,,,,,,,,,,,,,,,,,,
0,17,17,69,1,,6151e74c66fb9fb95b2f522e,62c53a5e3d012ff394c79244,2022-07-06_09h36.11.214,Colour_Asymmetry_Pilot,2022.1.3,Win32,59.88741167,62c50e9c1127f2cd403a315f,,,,,,,,,,,,,,,,,,,,,,,,,,,,,,,,,,,,,,,,,,,,,,,,,,,,,,,,,,,,,,,,,,,,,,,,,,,,,,,,,,,,,,,,,,,,,,,,,,,,,,,,,,,,,,,,,,,,,,,,,,,,,,,,,,,,,,,,,,,,,,,,,,,,,,,,,,,,,,,,,,,,
0,18,18,25,1,,6151e74c66fb9fb95b2f522e,62c53a5e3d012ff394c79244,2022-07-06_09h36.11.214,Colour_Asymmetry_Pilot,2022.1.3,Win32,59.88741167,62c50e9c1127f2cd403a315f,,,,,,,,,,,,,,,,,,,,,,,,,,,,,,,,,,,,,,,,,,,,,,,,,,,,,,,,,,,,,,,,,,,,,,,,,,,,,,,,,,,,,,,,,,,,,,,,,,,,,,,,,,,,,,,,,,,,,,,,,,,,,,,,,,,,,,,,,,,,,,,,,,,,,,,,,,,,,,,,,,,,
0,19,19,32,1,,6151e74c66fb9fb95b2f522e,62c53a5e3d012ff394c79244,2022-07-06_09h36.11.214,Colour_Asymmetry_Pilot,2022.1.3,Win32,59.88741167,62c50e9c1127f2cd403a315f,,,,,,,,,,,,,,,,,,,,,,,,,,,,,,,,,,,,,,,,,,,,,,,,,,,,,,,,,,,,,,,,,,,,,,,,,,,,,,,,,,,,,,,,,,,,,,,,,,,,,,,,,,,,,,,,,,,,,,,,,,,,,,,,,,,,,,,,,,,,,,,,,,,,,,,,,,,,,,,,,,,,
0,20,20,18,1,,6151e74c66fb9fb95b2f522e,62c53a5e3d012ff394c79244,2022-07-06_09h36.11.214,Colour_Asymmetry_Pilot,2022.1.3,Win32,59.88741167,62c50e9c1127f2cd403a315f,,,,,,,,,,,,,,,,,,,,,,,,,,,,,,,,,,,,,,,,,,,,,,,,,,,,,,,,,,,,,,,,,,,,,,,,,,,,,,,,,,,,,,,,,,,,,,,,,,,,,,,,,,,,,,,,,,,,,,,,,,,,,,,,,,,,,,,,,,,,,,,,,,,,,,,,,,,,,,,,,,,,
0,21,21,17,1,,6151e74c66fb9fb95b2f522e,62c53a5e3d012ff394c79244,2022-07-06_09h36.11.214,Colour_Asymmetry_Pilot,2022.1.3,Win32,59.88741167,62c50e9c1127f2cd403a315f,,,,,,,,,,,,,,,,,,,,,,,,,,,,,,,,,,,,,,,,,,,,,,,,,,,,,,,,,,,,,,,,,,,,,,,,,,,,,,,,,,,,,,,,,,,,,,,,,,,,,,,,,,,,,,,,,,,,,,,,,,,,,,,,,,,,,,,,,,,,,,,,,,,,,,,,,,,,,,,,,,,,
0,22,22,90,1,,6151e74c66fb9fb95b2f522e,62c53a5e3d012ff394c79244,2022-07-06_09h36.11.214,Colour_Asymmetry_Pilot,2022.1.3,Win32,59.88741167,62c50e9c1127f2cd403a315f,,,,,,,,,,,,,,,,,,,,,,,,,,,,,,,,,,,,,,,,,,,,,,,,,,,,,,,,,,,,,,,,,,,,,,,,,,,,,,,,,,,,,,,,,,,,,,,,,,,,,,,,,,,,,,,,,,,,,,,,,,,,,,,,,,,,,,,,,,,,,,,,,,,,,,,,,,,,,,,,,,,,
0,23,23,52,1,,6151e74c66fb9fb95b2f522e,62c53a5e3d012ff394c79244,2022-07-06_09h36.11.214,Colour_Asymmetry_Pilot,2022.1.3,Win32,59.88741167,62c50e9c1127f2cd403a315f,,,,,,,,,,,,,,,,,,,,,,,,,,,,,,,,,,,,,,,,,,,,,,,,,,,,,,,,,,,,,,,,,,,,,,,,,,,,,,,,,,,,,,,,,,,,,,,,,,,,,,,,,,,,,,,,,,,,,,,,,,,,,,,,,,,,,,,,,,,,,,,,,,,,,,,,,,,,,,,,,,,,
0,24,24,22,1,,6151e74c66fb9fb95b2f522e,62c53a5e3d012ff394c79244,2022-07-06_09h36.11.214,Colour_Asymmetry_Pilot,2022.1.3,Win32,59.88741167,62c50e9c1127f2cd403a315f,,,,,,,,,,,,,,,,,,,,,,,,,,,,,,,,,,,,,,,,,,,,,,,,,,,,,,,,,,,,,,,,,,,,,,,,,,,,,,,,,,,,,,,,,,,,,,,,,,,,,,,,,,,,,,,,,,,,,,,,,,,,,,,,,,,,,,,,,,,,,,,,,,,,,,,,,,,,,,,,,,,,
0,25,25,47,1,,6151e74c66fb9fb95b2f522e,62c53a5e3d012ff394c79244,2022-07-06_09h36.11.214,Colour_Asymmetry_Pilot,2022.1.3,Win32,59.88741167,62c50e9c1127f2cd403a315f,,,,,,,,,,,,,,,,,,,,,,,,,,,,,,,,,,,,,,,,,,,,,,,,,,,,,,,,,,,,,,,,,,,,,,,,,,,,,,,,,,,,,,,,,,,,,,,,,,,,,,,,,,,,,,,,,,,,,,,,,,,,,,,,,,,,,,,,,,,,,,,,,,,,,,,,,,,,,,,,,,,,
0,26,26,3,1,,6151e74c66fb9fb95b2f522e,62c53a5e3d012ff394c79244,2022-07-06_09h36.11.214,Colour_Asymmetry_Pilot,2022.1.3,Win32,59.88741167,62c50e9c1127f2cd403a315f,,,,,,,,,,,,,,,,,,,,,,,,,,,,,,,,,,,,,,,,,,,,,,,,,,,,,,,,,,,,,,,,,,,,,,,,,,,,,,,,,,,,,,,,,,,,,,,,,,,,,,,,,,,,,,,,,,,,,,,,,,,,,,,,,,,,,,,,,,,,,,,,,,,,,,,,,,,,,,,,,,,,
0,27,27,67,1,,6151e74c66fb9fb95b2f522e,62c53a5e3d012ff394c79244,2022-07-06_09h36.11.214,Colour_Asymmetry_Pilot,2022.1.3,Win32,59.88741167,62c50e9c1127f2cd403a315f,,,,,,,,,,,,,,,,,,,,,,,,,,,,,,,,,,,,,,,,,,,,,,,,,,,,,,,,,,,,,,,,,,,,,,,,,,,,,,,,,,,,,,,,,,,,,,,,,,,,,,,,,,,,,,,,,,,,,,,,,,,,,,,,,,,,,,,,,,,,,,,,,,,,,,,,,,,,,,,,,,,,
0,28,28,80,1,,6151e74c66fb9fb95b2f522e,62c53a5e3d012ff394c79244,2022-07-06_09h36.11.214,Colour_Asymmetry_Pilot,2022.1.3,Win32,59.88741167,62c50e9c1127f2cd403a315f,,,,,,,,,,,,,,,,,,,,,,,,,,,,,,,,,,,,,,,,,,,,,,,,,,,,,,,,,,,,,,,,,,,,,,,,,,,,,,,,,,,,,,,,,,,,,,,,,,,,,,,,,,,,,,,,,,,,,,,,,,,,,,,,,,,,,,,,,,,,,,,,,,,,,,,,,,,,,,,,,,,,
0,29,29,65,1,,6151e74c66fb9fb95b2f522e,62c53a5e3d012ff394c79244,2022-07-06_09h36.11.214,Colour_Asymmetry_Pilot,2022.1.3,Win32,59.88741167,62c50e9c1127f2cd403a315f,,,,,,,,,,,,,,,,,,,,,,,,,,,,,,,,,,,,,,,,,,,,,,,,,,,,,,,,,,,,,,,,,,,,,,,,,,,,,,,,,,,,,,,,,,,,,,,,,,,,,,,,,,,,,,,,,,,,,,,,,,,,,,,,,,,,,,,,,,,,,,,,,,,,,,,,,,,,,,,,,,,,
0,30,30,71,1,,6151e74c66fb9fb95b2f522e,62c53a5e3d012ff394c79244,2022-07-06_09h36.11.214,Colour_Asymmetry_Pilot,2022.1.3,Win32,59.88741167,62c50e9c1127f2cd403a315f,,,,,,,,,,,,,,,,,,,,,,,,,,,,,,,,,,,,,,,,,,,,,,,,,,,,,,,,,,,,,,,,,,,,,,,,,,,,,,,,,,,,,,,,,,,,,,,,,,,,,,,,,,,,,,,,,,,,,,,,,,,,,,,,,,,,,,,,,,,,,,,,,,,,,,,,,,,,,,,,,,,,
0,31,31,85,1,,6151e74c66fb9fb95b2f522e,62c53a5e3d012ff394c79244,2022-07-06_09h36.11.214,Colour_Asymmetry_Pilot,2022.1.3,Win32,59.88741167,62c50e9c1127f2cd403a315f,,,,,,,,,,,,,,,,,,,,,,,,,,,,,,,,,,,,,,,,,,,,,,,,,,,,,,,,,,,,,,,,,,,,,,,,,,,,,,,,,,,,,,,,,,,,,,,,,,,,,,,,,,,,,,,,,,,,,,,,,,,,,,,,,,,,,,,,,,,,,,,,,,,,,,,,,,,,,,,,,,,,
0,32,32,53,1,,6151e74c66fb9fb95b2f522e,62c53a5e3d012ff394c79244,2022-07-06_09h36.11.214,Colour_Asymmetry_Pilot,2022.1.3,Win32,59.88741167,62c50e9c1127f2cd403a315f,,,,,,,,,,,,,,,,,,,,,,,,,,,,,,,,,,,,,,,,,,,,,,,,,,,,,,,,,,,,,,,,,,,,,,,,,,,,,,,,,,,,,,,,,,,,,,,,,,,,,,,,,,,,,,,,,,,,,,,,,,,,,,,,,,,,,,,,,,,,,,,,,,,,,,,,,,,,,,,,,,,,
0,33,33,87,1,,6151e74c66fb9fb95b2f522e,62c53a5e3d012ff394c79244,2022-07-06_09h36.11.214,Colour_Asymmetry_Pilot,2022.1.3,Win32,59.88741167,62c50e9c1127f2cd403a315f,,,,,,,,,,,,,,,,,,,,,,,,,,,,,,,,,,,,,,,,,,,,,,,,,,,,,,,,,,,,,,,,,,,,,,,,,,,,,,,,,,,,,,,,,,,,,,,,,,,,,,,,,,,,,,,,,,,,,,,,,,,,,,,,,,,,,,,,,,,,,,,,,,,,,,,,,,,,,,,,,,,,
0,34,34,64,1,,6151e74c66fb9fb95b2f522e,62c53a5e3d012ff394c79244,2022-07-06_09h36.11.214,Colour_Asymmetry_Pilot,2022.1.3,Win32,59.88741167,62c50e9c1127f2cd403a315f,,,,,,,,,,,,,,,,,,,,,,,,,,,,,,,,,,,,,,,,,,,,,,,,,,,,,,,,,,,,,,,,,,,,,,,,,,,,,,,,,,,,,,,,,,,,,,,,,,,,,,,,,,,,,,,,,,,,,,,,,,,,,,,,,,,,,,,,,,,,,,,,,,,,,,,,,,,,,,,,,,,,
0,35,35,6,1,,6151e74c66fb9fb95b2f522e,62c53a5e3d012ff394c79244,2022-07-06_09h36.11.214,Colour_Asymmetry_Pilot,2022.1.3,Win32,59.88741167,62c50e9c1127f2cd403a315f,,,,,,,,,,,,,,,,,,,,,,,,,,,,,,,,,,,,,,,,,,,,,,,,,,,,,,,,,,,,,,,,,,,,,,,,,,,,,,,,,,,,,,,,,,,,,,,,,,,,,,,,,,,,,,,,,,,,,,,,,,,,,,,,,,,,,,,,,,,,,,,,,,,,,,,,,,,,,,,,,,,,
0,36,36,1,1,,6151e74c66fb9fb95b2f522e,62c53a5e3d012ff394c79244,2022-07-06_09h36.11.214,Colour_Asymmetry_Pilot,2022.1.3,Win32,59.88741167,62c50e9c1127f2cd403a315f,,,,,,,,,,,,,,,,,,,,,,,,,,,,,,,,,,,,,,,,,,,,,,,,,,,,,,,,,,,,,,,,,,,,,,,,,,,,,,,,,,,,,,,,,,,,,,,,,,,,,,,,,,,,,,,,,,,,,,,,,,,,,,,,,,,,,,,,,,,,,,,,,,,,,,,,,,,,,,,,,,,,
0,37,37,40,1,,6151e74c66fb9fb95b2f522e,62c53a5e3d012ff394c79244,2022-07-06_09h36.11.214,Colour_Asymmetry_Pilot,2022.1.3,Win32,59.88741167,62c50e9c1127f2cd403a315f,,,,,,,,,,,,,,,,,,,,,,,,,,,,,,,,,,,,,,,,,,,,,,,,,,,,,,,,,,,,,,,,,,,,,,,,,,,,,,,,,,,,,,,,,,,,,,,,,,,,,,,,,,,,,,,,,,,,,,,,,,,,,,,,,,,,,,,,,,,,,,,,,,,,,,,,,,,,,,,,,,,,
0,38,38,12,1,,6151e74c66fb9fb95b2f522e,62c53a5e3d012ff394c79244,2022-07-06_09h36.11.214,Colour_Asymmetry_Pilot,2022.1.3,Win32,59.88741167,62c50e9c1127f2cd403a315f,,,,,,,,,,,,,,,,,,,,,,,,,,,,,,,,,,,,,,,,,,,,,,,,,,,,,,,,,,,,,,,,,,,,,,,,,,,,,,,,,,,,,,,,,,,,,,,,,,,,,,,,,,,,,,,,,,,,,,,,,,,,,,,,,,,,,,,,,,,,,,,,,,,,,,,,,,,,,,,,,,,,
0,39,39,75,1,,6151e74c66fb9fb95b2f522e,62c53a5e3d012ff394c79244,2022-07-06_09h36.11.214,Colour_Asymmetry_Pilot,2022.1.3,Win32,59.88741167,62c50e9c1127f2cd403a315f,,,,,,,,,,,,,,,,,,,,,,,,,,,,,,,,,,,,,,,,,,,,,,,,,,,,,,,,,,,,,,,,,,,,,,,,,,,,,,,,,,,,,,,,,,,,,,,,,,,,,,,,,,,,,,,,,,,,,,,,,,,,,,,,,,,,,,,,,,,,,,,,,,,,,,,,,,,,,,,,,,,,
0,40,40,23,1,,6151e74c66fb9fb95b2f522e,62c53a5e3d012ff394c79244,2022-07-06_09h36.11.214,Colour_Asymmetry_Pilot,2022.1.3,Win32,59.88741167,62c50e9c1127f2cd403a315f,,,,,,,,,,,,,,,,,,,,,,,,,,,,,,,,,,,,,,,,,,,,,,,,,,,,,,,,,,,,,,,,,,,,,,,,,,,,,,,,,,,,,,,,,,,,,,,,,,,,,,,,,,,,,,,,,,,,,,,,,,,,,,,,,,,,,,,,,,,,,,,,,,,,,,,,,,,,,,,,,,,,
0,41,41,70,1,,6151e74c66fb9fb95b2f522e,62c53a5e3d012ff394c79244,2022-07-06_09h36.11.214,Colour_Asymmetry_Pilot,2022.1.3,Win32,59.88741167,62c50e9c1127f2cd403a315f,,,,,,,,,,,,,,,,,,,,,,,,,,,,,,,,,,,,,,,,,,,,,,,,,,,,,,,,,,,,,,,,,,,,,,,,,,,,,,,,,,,,,,,,,,,,,,,,,,,,,,,,,,,,,,,,,,,,,,,,,,,,,,,,,,,,,,,,,,,,,,,,,,,,,,,,,,,,,,,,,,,,
0,42,42,19,1,,6151e74c66fb9fb95b2f522e,62c53a5e3d012ff394c79244,2022-07-06_09h36.11.214,Colour_Asymmetry_Pilot,2022.1.3,Win32,59.88741167,62c50e9c1127f2cd403a315f,,,,,,,,,,,,,,,,,,,,,,,,,,,,,,,,,,,,,,,,,,,,,,,,,,,,,,,,,,,,,,,,,,,,,,,,,,,,,,,,,,,,,,,,,,,,,,,,,,,,,,,,,,,,,,,,,,,,,,,,,,,,,,,,,,,,,,,,,,,,,,,,,,,,,,,,,,,,,,,,,,,,
0,43,43,83,1,,6151e74c66fb9fb95b2f522e,62c53a5e3d012ff394c79244,2022-07-06_09h36.11.214,Colour_Asymmetry_Pilot,2022.1.3,Win32,59.88741167,62c50e9c1127f2cd403a315f,,,,,,,,,,,,,,,,,,,,,,,,,,,,,,,,,,,,,,,,,,,,,,,,,,,,,,,,,,,,,,,,,,,,,,,,,,,,,,,,,,,,,,,,,,,,,,,,,,,,,,,,,,,,,,,,,,,,,,,,,,,,,,,,,,,,,,,,,,,,,,,,,,,,,,,,,,,,,,,,,,,,
0,44,44,62,1,,6151e74c66fb9fb95b2f522e,62c53a5e3d012ff394c79244,2022-07-06_09h36.11.214,Colour_Asymmetry_Pilot,2022.1.3,Win32,59.88741167,62c50e9c1127f2cd403a315f,,,,,,,,,,,,,,,,,,,,,,,,,,,,,,,,,,,,,,,,,,,,,,,,,,,,,,,,,,,,,,,,,,,,,,,,,,,,,,,,,,,,,,,,,,,,,,,,,,,,,,,,,,,,,,,,,,,,,,,,,,,,,,,,,,,,,,,,,,,,,,,,,,,,,,,,,,,,,,,,,,,,
0,45,45,48,1,,6151e74c66fb9fb95b2f522e,62c53a5e3d012ff394c79244,2022-07-06_09h36.11.214,Colour_Asymmetry_Pilot,2022.1.3,Win32,59.88741167,62c50e9c1127f2cd403a315f,,,,,,,,,,,,,,,,,,,,,,,,,,,,,,,,,,,,,,,,,,,,,,,,,,,,,,,,,,,,,,,,,,,,,,,,,,,,,,,,,,,,,,,,,,,,,,,,,,,,,,,,,,,,,,,,,,,,,,,,,,,,,,,,,,,,,,,,,,,,,,,,,,,,,,,,,,,,,,,,,,,,
0,46,46,38,1,,6151e74c66fb9fb95b2f522e,62c53a5e3d012ff394c79244,2022-07-06_09h36.11.214,Colour_Asymmetry_Pilot,2022.1.3,Win32,59.88741167,62c50e9c1127f2cd403a315f,,,,,,,,,,,,,,,,,,,,,,,,,,,,,,,,,,,,,,,,,,,,,,,,,,,,,,,,,,,,,,,,,,,,,,,,,,,,,,,,,,,,,,,,,,,,,,,,,,,,,,,,,,,,,,,,,,,,,,,,,,,,,,,,,,,,,,,,,,,,,,,,,,,,,,,,,,,,,,,,,,,,
0,47,47,2,1,,6151e74c66fb9fb95b2f522e,62c53a5e3d012ff394c79244,2022-07-06_09h36.11.214,Colour_Asymmetry_Pilot,2022.1.3,Win32,59.88741167,62c50e9c1127f2cd403a315f,,,,,,,,,,,,,,,,,,,,,,,,,,,,,,,,,,,,,,,,,,,,,,,,,,,,,,,,,,,,,,,,,,,,,,,,,,,,,,,,,,,,,,,,,,,,,,,,,,,,,,,,,,,,,,,,,,,,,,,,,,,,,,,,,,,,,,,,,,,,,,,,,,,,,,,,,,,,,,,,,,,,
0,48,48,49,1,,6151e74c66fb9fb95b2f522e,62c53a5e3d012ff394c79244,2022-07-06_09h36.11.214,Colour_Asymmetry_Pilot,2022.1.3,Win32,59.88741167,62c50e9c1127f2cd403a315f,,,,,,,,,,,,,,,,,,,,,,,,,,,,,,,,,,,,,,,,,,,,,,,,,,,,,,,,,,,,,,,,,,,,,,,,,,,,,,,,,,,,,,,,,,,,,,,,,,,,,,,,,,,,,,,,,,,,,,,,,,,,,,,,,,,,,,,,,,,,,,,,,,,,,,,,,,,,,,,,,,,,
0,49,49,79,1,,6151e74c66fb9fb95b2f522e,62c53a5e3d012ff394c79244,2022-07-06_09h36.11.214,Colour_Asymmetry_Pilot,2022.1.3,Win32,59.88741167,62c50e9c1127f2cd403a315f,,,,,,,,,,,,,,,,,,,,,,,,,,,,,,,,,,,,,,,,,,,,,,,,,,,,,,,,,,,,,,,,,,,,,,,,,,,,,,,,,,,,,,,,,,,,,,,,,,,,,,,,,,,,,,,,,,,,,,,,,,,,,,,,,,,,,,,,,,,,,,,,,,,,,,,,,,,,,,,,,,,,
0,50,50,9,1,,6151e74c66fb9fb95b2f522e,62c53a5e3d012ff394c79244,2022-07-06_09h36.11.214,Colour_Asymmetry_Pilot,2022.1.3,Win32,59.88741167,62c50e9c1127f2cd403a315f,,,,,,,,,,,,,,,,,,,,,,,,,,,,,,,,,,,,,,,,,,,,,,,,,,,,,,,,,,,,,,,,,,,,,,,,,,,,,,,,,,,,,,,,,,,,,,,,,,,,,,,,,,,,,,,,,,,,,,,,,,,,,,,,,,,,,,,,,,,,,,,,,,,,,,,,,,,,,,,,,,,,
0,51,51,27,1,,6151e74c66fb9fb95b2f522e,62c53a5e3d012ff394c79244,2022-07-06_09h36.11.214,Colour_Asymmetry_Pilot,2022.1.3,Win32,59.88741167,62c50e9c1127f2cd403a315f,,,,,,,,,,,,,,,,,,,,,,,,,,,,,,,,,,,,,,,,,,,,,,,,,,,,,,,,,,,,,,,,,,,,,,,,,,,,,,,,,,,,,,,,,,,,,,,,,,,,,,,,,,,,,,,,,,,,,,,,,,,,,,,,,,,,,,,,,,,,,,,,,,,,,,,,,,,,,,,,,,,,
0,52,52,41,1,,6151e74c66fb9fb95b2f522e,62c53a5e3d012ff394c79244,2022-07-06_09h36.11.214,Colour_Asymmetry_Pilot,2022.1.3,Win32,59.88741167,62c50e9c1127f2cd403a315f,,,,,,,,,,,,,,,,,,,,,,,,,,,,,,,,,,,,,,,,,,,,,,,,,,,,,,,,,,,,,,,,,,,,,,,,,,,,,,,,,,,,,,,,,,,,,,,,,,,,,,,,,,,,,,,,,,,,,,,,,,,,,,,,,,,,,,,,,,,,,,,,,,,,,,,,,,,,,,,,,,,,
0,53,53,54,1,,6151e74c66fb9fb95b2f522e,62c53a5e3d012ff394c79244,2022-07-06_09h36.11.214,Colour_Asymmetry_Pilot,2022.1.3,Win32,59.88741167,62c50e9c1127f2cd403a315f,,,,,,,,,,,,,,,,,,,,,,,,,,,,,,,,,,,,,,,,,,,,,,,,,,,,,,,,,,,,,,,,,,,,,,,,,,,,,,,,,,,,,,,,,,,,,,,,,,,,,,,,,,,,,,,,,,,,,,,,,,,,,,,,,,,,,,,,,,,,,,,,,,,,,,,,,,,,,,,,,,,,
0,54,54,77,1,,6151e74c66fb9fb95b2f522e,62c53a5e3d012ff394c79244,2022-07-06_09h36.11.214,Colour_Asymmetry_Pilot,2022.1.3,Win32,59.88741167,62c50e9c1127f2cd403a315f,,,,,,,,,,,,,,,,,,,,,,,,,,,,,,,,,,,,,,,,,,,,,,,,,,,,,,,,,,,,,,,,,,,,,,,,,,,,,,,,,,,,,,,,,,,,,,,,,,,,,,,,,,,,,,,,,,,,,,,,,,,,,,,,,,,,,,,,,,,,,,,,,,,,,,,,,,,,,,,,,,,,
0,55,55,81,1,,6151e74c66fb9fb95b2f522e,62c53a5e3d012ff394c79244,2022-07-06_09h36.11.214,Colour_Asymmetry_Pilot,2022.1.3,Win32,59.88741167,62c50e9c1127f2cd403a315f,,,,,,,,,,,,,,,,,,,,,,,,,,,,,,,,,,,,,,,,,,,,,,,,,,,,,,,,,,,,,,,,,,,,,,,,,,,,,,,,,,,,,,,,,,,,,,,,,,,,,,,,,,,,,,,,,,,,,,,,,,,,,,,,,,,,,,,,,,,,,,,,,,,,,,,,,,,,,,,,,,,,
0,56,56,14,1,,6151e74c66fb9fb95b2f522e,62c53a5e3d012ff394c79244,2022-07-06_09h36.11.214,Colour_Asymmetry_Pilot,2022.1.3,Win32,59.88741167,62c50e9c1127f2cd403a315f,,,,,,,,,,,,,,,,,,,,,,,,,,,,,,,,,,,,,,,,,,,,,,,,,,,,,,,,,,,,,,,,,,,,,,,,,,,,,,,,,,,,,,,,,,,,,,,,,,,,,,,,,,,,,,,,,,,,,,,,,,,,,,,,,,,,,,,,,,,,,,,,,,,,,,,,,,,,,,,,,,,,
0,57,57,34,1,,6151e74c66fb9fb95b2f522e,62c53a5e3d012ff394c79244,2022-07-06_09h36.11.214,Colour_Asymmetry_Pilot,2022.1.3,Win32,59.88741167,62c50e9c1127f2cd403a315f,,,,,,,,,,,,,,,,,,,,,,,,,,,,,,,,,,,,,,,,,,,,,,,,,,,,,,,,,,,,,,,,,,,,,,,,,,,,,,,,,,,,,,,,,,,,,,,,,,,,,,,,,,,,,,,,,,,,,,,,,,,,,,,,,,,,,,,,,,,,,,,,,,,,,,,,,,,,,,,,,,,,
0,58,58,78,1,,6151e74c66fb9fb95b2f522e,62c53a5e3d012ff394c79244,2022-07-06_09h36.11.214,Colour_Asymmetry_Pilot,2022.1.3,Win32,59.88741167,62c50e9c1127f2cd403a315f,,,,,,,,,,,,,,,,,,,,,,,,,,,,,,,,,,,,,,,,,,,,,,,,,,,,,,,,,,,,,,,,,,,,,,,,,,,,,,,,,,,,,,,,,,,,,,,,,,,,,,,,,,,,,,,,,,,,,,,,,,,,,,,,,,,,,,,,,,,,,,,,,,,,,,,,,,,,,,,,,,,,
0,59,59,84,1,,6151e74c66fb9fb95b2f522e,62c53a5e3d012ff394c79244,2022-07-06_09h36.11.214,Colour_Asymmetry_Pilot,2022.1.3,Win32,59.88741167,62c50e9c1127f2cd403a315f,,,,,,,,,,,,,,,,,,,,,,,,,,,,,,,,,,,,,,,,,,,,,,,,,,,,,,,,,,,,,,,,,,,,,,,,,,,,,,,,,,,,,,,,,,,,,,,,,,,,,,,,,,,,,,,,,,,,,,,,,,,,,,,,,,,,,,,,,,,,,,,,,,,,,,,,,,,,,,,,,,,,
0,60,60,24,1,,6151e74c66fb9fb95b2f522e,62c53a5e3d012ff394c79244,2022-07-06_09h36.11.214,Colour_Asymmetry_Pilot,2022.1.3,Win32,59.88741167,62c50e9c1127f2cd403a315f,,,,,,,,,,,,,,,,,,,,,,,,,,,,,,,,,,,,,,,,,,,,,,,,,,,,,,,,,,,,,,,,,,,,,,,,,,,,,,,,,,,,,,,,,,,,,,,,,,,,,,,,,,,,,,,,,,,,,,,,,,,,,,,,,,,,,,,,,,,,,,,,,,,,,,,,,,,,,,,,,,,,
0,61,61,21,1,,6151e74c66fb9fb95b2f522e,62c53a5e3d012ff394c79244,2022-07-06_09h36.11.214,Colour_Asymmetry_Pilot,2022.1.3,Win32,59.88741167,62c50e9c1127f2cd403a315f,,,,,,,,,,,,,,,,,,,,,,,,,,,,,,,,,,,,,,,,,,,,,,,,,,,,,,,,,,,,,,,,,,,,,,,,,,,,,,,,,,,,,,,,,,,,,,,,,,,,,,,,,,,,,,,,,,,,,,,,,,,,,,,,,,,,,,,,,,,,,,,,,,,,,,,,,,,,,,,,,,,,
0,62,62,58,1,,6151e74c66fb9fb95b2f522e,62c53a5e3d012ff394c79244,2022-07-06_09h36.11.214,Colour_Asymmetry_Pilot,2022.1.3,Win32,59.88741167,62c50e9c1127f2cd403a315f,,,,,,,,,,,,,,,,,,,,,,,,,,,,,,,,,,,,,,,,,,,,,,,,,,,,,,,,,,,,,,,,,,,,,,,,,,,,,,,,,,,,,,,,,,,,,,,,,,,,,,,,,,,,,,,,,,,,,,,,,,,,,,,,,,,,,,,,,,,,,,,,,,,,,,,,,,,,,,,,,,,,
0,63,63,60,1,,6151e74c66fb9fb95b2f522e,62c53a5e3d012ff394c79244,2022-07-06_09h36.11.214,Colour_Asymmetry_Pilot,2022.1.3,Win32,59.88741167,62c50e9c1127f2cd403a315f,,,,,,,,,,,,,,,,,,,,,,,,,,,,,,,,,,,,,,,,,,,,,,,,,,,,,,,,,,,,,,,,,,,,,,,,,,,,,,,,,,,,,,,,,,,,,,,,,,,,,,,,,,,,,,,,,,,,,,,,,,,,,,,,,,,,,,,,,,,,,,,,,,,,,,,,,,,,,,,,,,,,
0,64,64,51,1,,6151e74c66fb9fb95b2f522e,62c53a5e3d012ff394c79244,2022-07-06_09h36.11.214,Colour_Asymmetry_Pilot,2022.1.3,Win32,59.88741167,62c50e9c1127f2cd403a315f,,,,,,,,,,,,,,,,,,,,,,,,,,,,,,,,,,,,,,,,,,,,,,,,,,,,,,,,,,,,,,,,,,,,,,,,,,,,,,,,,,,,,,,,,,,,,,,,,,,,,,,,,,,,,,,,,,,,,,,,,,,,,,,,,,,,,,,,,,,,,,,,,,,,,,,,,,,,,,,,,,,,
0,65,65,0,1,,6151e74c66fb9fb95b2f522e,62c53a5e3d012ff394c79244,2022-07-06_09h36.11.214,Colour_Asymmetry_Pilot,2022.1.3,Win32,59.88741167,62c50e9c1127f2cd403a315f,,,,,,,,,,,,,,,,,,,,,,,,,,,,,,,,,,,,,,,,,,,,,,,,,,,,,,,,,,,,,,,,,,,,,,,,,,,,,,,,,,,,,,,,,,,,,,,,,,,,,,,,,,,,,,,,,,,,,,,,,,,,,,,,,,,,,,,,,,,,,,,,,,,,,,,,,,,,,,,,,,,,
0,66,66,7,1,,6151e74c66fb9fb95b2f522e,62c53a5e3d012ff394c79244,2022-07-06_09h36.11.214,Colour_Asymmetry_Pilot,2022.1.3,Win32,59.88741167,62c50e9c1127f2cd403a315f,,,,,,,,,,,,,,,,,,,,,,,,,,,,,,,,,,,,,,,,,,,,,,,,,,,,,,,,,,,,,,,,,,,,,,,,,,,,,,,,,,,,,,,,,,,,,,,,,,,,,,,,,,,,,,,,,,,,,,,,,,,,,,,,,,,,,,,,,,,,,,,,,,,,,,,,,,,,,,,,,,,,
0,67,67,15,1,,6151e74c66fb9fb95b2f522e,62c53a5e3d012ff394c79244,2022-07-06_09h36.11.214,Colour_Asymmetry_Pilot,2022.1.3,Win32,59.88741167,62c50e9c1127f2cd403a315f,,,,,,,,,,,,,,,,,,,,,,,,,,,,,,,,,,,,,,,,,,,,,,,,,,,,,,,,,,,,,,,,,,,,,,,,,,,,,,,,,,,,,,,,,,,,,,,,,,,,,,,,,,,,,,,,,,,,,,,,,,,,,,,,,,,,,,,,,,,,,,,,,,,,,,,,,,,,,,,,,,,,
0,68,68,36,1,,6151e74c66fb9fb95b2f522e,62c53a5e3d012ff394c79244,2022-07-06_09h36.11.214,Colour_Asymmetry_Pilot,2022.1.3,Win32,59.88741167,62c50e9c1127f2cd403a315f,,,,,,,,,,,,,,,,,,,,,,,,,,,,,,,,,,,,,,,,,,,,,,,,,,,,,,,,,,,,,,,,,,,,,,,,,,,,,,,,,,,,,,,,,,,,,,,,,,,,,,,,,,,,,,,,,,,,,,,,,,,,,,,,,,,,,,,,,,,,,,,,,,,,,,,,,,,,,,,,,,,,
0,69,69,42,1,,6151e74c66fb9fb95b2f522e,62c53a5e3d012ff394c79244,2022-07-06_09h36.11.214,Colour_Asymmetry_Pilot,2022.1.3,Win32,59.88741167,62c50e9c1127f2cd403a315f,,,,,,,,,,,,,,,,,,,,,,,,,,,,,,,,,,,,,,,,,,,,,,,,,,,,,,,,,,,,,,,,,,,,,,,,,,,,,,,,,,,,,,,,,,,,,,,,,,,,,,,,,,,,,,,,,,,,,,,,,,,,,,,,,,,,,,,,,,,,,,,,,,,,,,,,,,,,,,,,,,,,
0,70,70,46,1,,6151e74c66fb9fb95b2f522e,62c53a5e3d012ff394c79244,2022-07-06_09h36.11.214,Colour_Asymmetry_Pilot,2022.1.3,Win32,59.88741167,62c50e9c1127f2cd403a315f,,,,,,,,,,,,,,,,,,,,,,,,,,,,,,,,,,,,,,,,,,,,,,,,,,,,,,,,,,,,,,,,,,,,,,,,,,,,,,,,,,,,,,,,,,,,,,,,,,,,,,,,,,,,,,,,,,,,,,,,,,,,,,,,,,,,,,,,,,,,,,,,,,,,,,,,,,,,,,,,,,,,
0,71,71,82,1,,6151e74c66fb9fb95b2f522e,62c53a5e3d012ff394c79244,2022-07-06_09h36.11.214,Colour_Asymmetry_Pilot,2022.1.3,Win32,59.88741167,62c50e9c1127f2cd403a315f,,,,,,,,,,,,,,,,,,,,,,,,,,,,,,,,,,,,,,,,,,,,,,,,,,,,,,,,,,,,,,,,,,,,,,,,,,,,,,,,,,,,,,,,,,,,,,,,,,,,,,,,,,,,,,,,,,,,,,,,,,,,,,,,,,,,,,,,,,,,,,,,,,,,,,,,,,,,,,,,,,,,
0,72,72,5,1,,6151e74c66fb9fb95b2f522e,62c53a5e3d012ff394c79244,2022-07-06_09h36.11.214,Colour_Asymmetry_Pilot,2022.1.3,Win32,59.88741167,62c50e9c1127f2cd403a315f,,,,,,,,,,,,,,,,,,,,,,,,,,,,,,,,,,,,,,,,,,,,,,,,,,,,,,,,,,,,,,,,,,,,,,,,,,,,,,,,,,,,,,,,,,,,,,,,,,,,,,,,,,,,,,,,,,,,,,,,,,,,,,,,,,,,,,,,,,,,,,,,,,,,,,,,,,,,,,,,,,,,
0,73,73,59,1,,6151e74c66fb9fb95b2f522e,62c53a5e3d012ff394c79244,2022-07-06_09h36.11.214,Colour_Asymmetry_Pilot,2022.1.3,Win32,59.88741167,62c50e9c1127f2cd403a315f,,,,,,,,,,,,,,,,,,,,,,,,,,,,,,,,,,,,,,,,,,,,,,,,,,,,,,,,,,,,,,,,,,,,,,,,,,,,,,,,,,,,,,,,,,,,,,,,,,,,,,,,,,,,,,,,,,,,,,,,,,,,,,,,,,,,,,,,,,,,,,,,,,,,,,,,,,,,,,,,,,,,
0,74,74,66,1,,6151e74c66fb9fb95b2f522e,62c53a5e3d012ff394c79244,2022-07-06_09h36.11.214,Colour_Asymmetry_Pilot,2022.1.3,Win32,59.88741167,62c50e9c1127f2cd403a315f,,,,,,,,,,,,,,,,,,,,,,,,,,,,,,,,,,,,,,,,,,,,,,,,,,,,,,,,,,,,,,,,,,,,,,,,,,,,,,,,,,,,,,,,,,,,,,,,,,,,,,,,,,,,,,,,,,,,,,,,,,,,,,,,,,,,,,,,,,,,,,,,,,,,,,,,,,,,,,,,,,,,
0,75,75,57,1,,6151e74c66fb9fb95b2f522e,62c53a5e3d012ff394c79244,2022-07-06_09h36.11.214,Colour_Asymmetry_Pilot,2022.1.3,Win32,59.88741167,62c50e9c1127f2cd403a315f,,,,,,,,,,,,,,,,,,,,,,,,,,,,,,,,,,,,,,,,,,,,,,,,,,,,,,,,,,,,,,,,,,,,,,,,,,,,,,,,,,,,,,,,,,,,,,,,,,,,,,,,,,,,,,,,,,,,,,,,,,,,,,,,,,,,,,,,,,,,,,,,,,,,,,,,,,,,,,,,,,,,
0,76,76,56,1,,6151e74c66fb9fb95b2f522e,62c53a5e3d012ff394c79244,2022-07-06_09h36.11.214,Colour_Asymmetry_Pilot,2022.1.3,Win32,59.88741167,62c50e9c1127f2cd403a315f,,,,,,,,,,,,,,,,,,,,,,,,,,,,,,,,,,,,,,,,,,,,,,,,,,,,,,,,,,,,,,,,,,,,,,,,,,,,,,,,,,,,,,,,,,,,,,,,,,,,,,,,,,,,,,,,,,,,,,,,,,,,,,,,,,,,,,,,,,,,,,,,,,,,,,,,,,,,,,,,,,,,
0,77,77,88,1,,6151e74c66fb9fb95b2f522e,62c53a5e3d012ff394c79244,2022-07-06_09h36.11.214,Colour_Asymmetry_Pilot,2022.1.3,Win32,59.88741167,62c50e9c1127f2cd403a315f,,,,,,,,,,,,,,,,,,,,,,,,,,,,,,,,,,,,,,,,,,,,,,,,,,,,,,,,,,,,,,,,,,,,,,,,,,,,,,,,,,,,,,,,,,,,,,,,,,,,,,,,,,,,,,,,,,,,,,,,,,,,,,,,,,,,,,,,,,,,,,,,,,,,,,,,,,,,,,,,,,,,
0,78,78,4,1,,6151e74c66fb9fb95b2f522e,62c53a5e3d012ff394c79244,2022-07-06_09h36.11.214,Colour_Asymmetry_Pilot,2022.1.3,Win32,59.88741167,62c50e9c1127f2cd403a315f,,,,,,,,,,,,,,,,,,,,,,,,,,,,,,,,,,,,,,,,,,,,,,,,,,,,,,,,,,,,,,,,,,,,,,,,,,,,,,,,,,,,,,,,,,,,,,,,,,,,,,,,,,,,,,,,,,,,,,,,,,,,,,,,,,,,,,,,,,,,,,,,,,,,,,,,,,,,,,,,,,,,
0,79,79,30,1,,6151e74c66fb9fb95b2f522e,62c53a5e3d012ff394c79244,2022-07-06_09h36.11.214,Colour_Asymmetry_Pilot,2022.1.3,Win32,59.88741167,62c50e9c1127f2cd403a315f,,,,,,,,,,,,,,,,,,,,,,,,,,,,,,,,,,,,,,,,,,,,,,,,,,,,,,,,,,,,,,,,,,,,,,,,,,,,,,,,,,,,,,,,,,,,,,,,,,,,,,,,,,,,,,,,,,,,,,,,,,,,,,,,,,,,,,,,,,,,,,,,,,,,,,,,,,,,,,,,,,,,
0,80,80,44,1,,6151e74c66fb9fb95b2f522e,62c53a5e3d012ff394c79244,2022-07-06_09h36.11.214,Colour_Asymmetry_Pilot,2022.1.3,Win32,59.88741167,62c50e9c1127f2cd403a315f,,,,,,,,,,,,,,,,,,,,,,,,,,,,,,,,,,,,,,,,,,,,,,,,,,,,,,,,,,,,,,,,,,,,,,,,,,,,,,,,,,,,,,,,,,,,,,,,,,,,,,,,,,,,,,,,,,,,,,,,,,,,,,,,,,,,,,,,,,,,,,,,,,,,,,,,,,,,,,,,,,,,
0,81,81,72,1,,6151e74c66fb9fb95b2f522e,62c53a5e3d012ff394c79244,2022-07-06_09h36.11.214,Colour_Asymmetry_Pilot,2022.1.3,Win32,59.88741167,62c50e9c1127f2cd403a315f,,,,,,,,,,,,,,,,,,,,,,,,,,,,,,,,,,,,,,,,,,,,,,,,,,,,,,,,,,,,,,,,,,,,,,,,,,,,,,,,,,,,,,,,,,,,,,,,,,,,,,,,,,,,,,,,,,,,,,,,,,,,,,,,,,,,,,,,,,,,,,,,,,,,,,,,,,,,,,,,,,,,
0,82,82,37,1,,6151e74c66fb9fb95b2f522e,62c53a5e3d012ff394c79244,2022-07-06_09h36.11.214,Colour_Asymmetry_Pilot,2022.1.3,Win32,59.88741167,62c50e9c1127f2cd403a315f,,,,,,,,,,,,,,,,,,,,,,,,,,,,,,,,,,,,,,,,,,,,,,,,,,,,,,,,,,,,,,,,,,,,,,,,,,,,,,,,,,,,,,,,,,,,,,,,,,,,,,,,,,,,,,,,,,,,,,,,,,,,,,,,,,,,,,,,,,,,,,,,,,,,,,,,,,,,,,,,,,,,
0,83,83,74,1,,6151e74c66fb9fb95b2f522e,62c53a5e3d012ff394c79244,2022-07-06_09h36.11.214,Colour_Asymmetry_Pilot,2022.1.3,Win32,59.88741167,62c50e9c1127f2cd403a315f,,,,,,,,,,,,,,,,,,,,,,,,,,,,,,,,,,,,,,,,,,,,,,,,,,,,,,,,,,,,,,,,,,,,,,,,,,,,,,,,,,,,,,,,,,,,,,,,,,,,,,,,,,,,,,,,,,,,,,,,,,,,,,,,,,,,,,,,,,,,,,,,,,,,,,,,,,,,,,,,,,,,
0,84,84,29,1,,6151e74c66fb9fb95b2f522e,62c53a5e3d012ff394c79244,2022-07-06_09h36.11.214,Colour_Asymmetry_Pilot,2022.1.3,Win32,59.88741167,62c50e9c1127f2cd403a315f,,,,,,,,,,,,,,,,,,,,,,,,,,,,,,,,,,,,,,,,,,,,,,,,,,,,,,,,,,,,,,,,,,,,,,,,,,,,,,,,,,,,,,,,,,,,,,,,,,,,,,,,,,,,,,,,,,,,,,,,,,,,,,,,,,,,,,,,,,,,,,,,,,,,,,,,,,,,,,,,,,,,
0,85,85,68,1,,6151e74c66fb9fb95b2f522e,62c53a5e3d012ff394c79244,2022-07-06_09h36.11.214,Colour_Asymmetry_Pilot,2022.1.3,Win32,59.88741167,62c50e9c1127f2cd403a315f,,,,,,,,,,,,,,,,,,,,,,,,,,,,,,,,,,,,,,,,,,,,,,,,,,,,,,,,,,,,,,,,,,,,,,,,,,,,,,,,,,,,,,,,,,,,,,,,,,,,,,,,,,,,,,,,,,,,,,,,,,,,,,,,,,,,,,,,,,,,,,,,,,,,,,,,,,,,,,,,,,,,
0,86,86,33,1,,6151e74c66fb9fb95b2f522e,62c53a5e3d012ff394c79244,2022-07-06_09h36.11.214,Colour_Asymmetry_Pilot,2022.1.3,Win32,59.88741167,62c50e9c1127f2cd403a315f,,,,,,,,,,,,,,,,,,,,,,,,,,,,,,,,,,,,,,,,,,,,,,,,,,,,,,,,,,,,,,,,,,,,,,,,,,,,,,,,,,,,,,,,,,,,,,,,,,,,,,,,,,,,,,,,,,,,,,,,,,,,,,,,,,,,,,,,,,,,,,,,,,,,,,,,,,,,,,,,,,,,
0,87,87,8,1,,6151e74c66fb9fb95b2f522e,62c53a5e3d012ff394c79244,2022-07-06_09h36.11.214,Colour_Asymmetry_Pilot,2022.1.3,Win32,59.88741167,62c50e9c1127f2cd403a315f,,,,,,,,,,,,,,,,,,,,,,,,,,,,,,,,,,,,,,,,,,,,,,,,,,,,,,,,,,,,,,,,,,,,,,,,,,,,,,,,,,,,,,,,,,,,,,,,,,,,,,,,,,,,,,,,,,,,,,,,,,,,,,,,,,,,,,,,,,,,,,,,,,,,,,,,,,,,,,,,,,,,
0,88,88,31,1,,6151e74c66fb9fb95b2f522e,62c53a5e3d012ff394c79244,2022-07-06_09h36.11.214,Colour_Asymmetry_Pilot,2022.1.3,Win32,59.88741167,62c50e9c1127f2cd403a315f,,,,,,,,,,,,,,,,,,,,,,,,,,,,,,,,,,,,,,,,,,,,,,,,,,,,,,,,,,,,,,,,,,,,,,,,,,,,,,,,,,,,,,,,,,,,,,,,,,,,,,,,,,,,,,,,,,,,,,,,,,,,,,,,,,,,,,,,,,,,,,,,,,,,,,,,,,,,,,,,,,,,
0,89,89,20,1,,6151e74c66fb9fb95b2f522e,62c53a5e3d012ff394c79244,2022-07-06_09h36.11.214,Colour_Asymmetry_Pilot,2022.1.3,Win32,59.88741167,62c50e9c1127f2cd403a315f,,,,,,,,,,,,,,,,,,,,,,,,,,,,,,,,,,,,,,,,,,,,,,,,,,,,,,,,,,,,,,,,,,,,,,,,,,,,,,,,,,,,,,,,,,,,,,,,,,,,,,,,,,,,,,,,,,,,,,,,,,,,,,,,,,,,,,,,,,,,,,,,,,,,,,,,,,,,,,,,,,,,
0,90,90,92,1,,6151e74c66fb9fb95b2f522e,62c53a5e3d012ff394c79244,2022-07-06_09h36.11.214,Colour_Asymmetry_Pilot,2022.1.3,Win32,59.88741167,62c50e9c1127f2cd403a315f,,,,,,,,,,,,,,,,,,,,,,,,,,,,,,,,,,,,,,,,,,,,,,,,,,,,,,,,,,,,,,,,,,,,,,,,,,,,,,,,,,,,,,,,,,,,,,,,,,,,,,,,,,,,,,,,,,,,,,,,,,,,,,,,,,,,,,,,,,,,,,,,,,,,,,,,,,,,,,,,,,,,
0,91,91,43,1,,6151e74c66fb9fb95b2f522e,62c53a5e3d012ff394c79244,2022-07-06_09h36.11.214,Colour_Asymmetry_Pilot,2022.1.3,Win32,59.88741167,62c50e9c1127f2cd403a315f,,,,,,,,,,,,,,,,,,,,,,,,,,,,,,,,,,,,,,,,,,,,,,,,,,,,,,,,,,,,,,,,,,,,,,,,,,,,,,,,,,,,,,,,,,,,,,,,,,,,,,,,,,,,,,,,,,,,,,,,,,,,,,,,,,,,,,,,,,,,,,,,,,,,,,,,,,,,,,,,,,,,
0,92,92,86,1,,6151e74c66fb9fb95b2f522e,62c53a5e3d012ff394c79244,2022-07-06_09h36.11.214,Colour_Asymmetry_Pilot,2022.1.3,Win32,59.88741167,62c50e9c1127f2cd403a315f,,,,,,,,,,,,,,,,,,,,,,,,,,,,,,,,,,,,,,,,,,,,,,,,,,,,,,,,,,,,,,,,,,,,,,,,,,,,,,,,,,,,,,,,,,,,,,,,,,,,,,,,,,,,,,,,,,,,,,,,,,,,,,,,,,,,,,,,,,,,,,,,,,,,,,,,,,,,,,,,,,,,
,,,,,,6151e74c66fb9fb95b2f522e,62c53a5e3d012ff394c79244,2022-07-06_09h36.11.214,Colour_Asymmetry_Pilot,2022.1.3,Win32,59.88741167,62c50e9c1127f2cd403a315f,0,0,0,75,1,twofour,,,,,,,,,,,,,,,,,,,,,,,,,,,,,,,,,,,,,,,,,,,,,,,,,,,,,,,,,,,,,,,,,,,,,,,,,,,,,,,,,,,,,,,,,,,,,,,,,,,,,,,,,,,,,,,,,,,,,,,,,,,,,,,,,,,,,,,,,,,,,,,,,,,,,,,,,,,,,,
,,,,,,6151e74c66fb9fb95b2f522e,62c53a5e3d012ff394c79244,2022-07-06_09h36.11.214,Colour_Asymmetry_Pilot,2022.1.3,Win32,59.88741167,62c50e9c1127f2cd403a315f,0,1,1,135,1,fourthree,,,,,,,,,,,,,,,,,,,,,,,,,,,,,,,,,,,,,,,,,,,,,,,,,,,,,,,,,,,,,,,,,,,,,,,,,,,,,,,,,,,,,,,,,,,,,,,,,,,,,,,,,,,,,,,,,,,,,,,,,,,,,,,,,,,,,,,,,,,,,,,,,,,,,,,,,,,,,,
,,,,,,6151e74c66fb9fb95b2f522e,62c53a5e3d012ff394c79244,2022-07-06_09h36.11.214,Colour_Asymmetry_Pilot,2022.1.3,Win32,59.88741167,62c50e9c1127f2cd403a315f,0,2,2,61,1,threefour,,,,,,,,,,,,,,,,,,,,,,,,,,,,,,,,,,,,,,,,,,,,,,,,,,,,,,,,,,,,,,,,,,,,,,,,,,,,,,,,,,,,,,,,,,,,,,,,,,,,,,,,,,,,,,,,,,,,,,,,,,,,,,,,,,,,,,,,,,,,,,,,,,,,,,,,,,,,,,
,,,,,,6151e74c66fb9fb95b2f522e,62c53a5e3d012ff394c79244,2022-07-06_09h36.11.214,Colour_Asymmetry_Pilot,2022.1.3,Win32,59.88741167,62c50e9c1127f2cd403a315f,0,3,3,89,1,onethree,,,,,,,,,,,,,,,,,,,,,,,,,,,,,,,,,,,,,,,,,,,,,,,,,,,,,,,,,,,,,,,,,,,,,,,,,,,,,,,,,,,,,,,,,,,,,,,,,,,,,,,,,,,,,,,,,,,,,,,,,,,,,,,,,,,,,,,,,,,,,,,,,,,,,,,,,,,,,,
,,,,,,6151e74c66fb9fb95b2f522e,62c53a5e3d012ff394c79244,2022-07-06_09h36.11.214,Colour_Asymmetry_Pilot,2022.1.3,Win32,59.88741167,62c50e9c1127f2cd403a315f,0,4,4,132,1,threeone,,,,,,,,,,,,,,,,,,,,,,,,,,,,,,,,,,,,,,,,,,,,,,,,,,,,,,,,,,,,,,,,,,,,,,,,,,,,,,,,,,,,,,,,,,,,,,,,,,,,,,,,,,,,,,,,,,,,,,,,,,,,,,,,,,,,,,,,,,,,,,,,,,,,,,,,,,,,,,
,,,,,,6151e74c66fb9fb95b2f522e,62c53a5e3d012ff394c79244,2022-07-06_09h36.11.214,Colour_Asymmetry_Pilot,2022.1.3,Win32,59.88741167,62c50e9c1127f2cd403a315f,0,5,5,149,1,threefour,,,,,,,,,,,,,,,,,,,,,,,,,,,,,,,,,,,,,,,,,,,,,,,,,,,,,,,,,,,,,,,,,,,,,,,,,,,,,,,,,,,,,,,,,,,,,,,,,,,,,,,,,,,,,,,,,,,,,,,,,,,,,,,,,,,,,,,,,,,,,,,,,,,,,,,,,,,,,,
,,,,,,6151e74c66fb9fb95b2f522e,62c53a5e3d012ff394c79244,2022-07-06_09h36.11.214,Colour_Asymmetry_Pilot,2022.1.3,Win32,59.88741167,62c50e9c1127f2cd403a315f,0,6,6,29,1,threefour,,,,,,,,,,,,,,,,,,,,,,,,,,,,,,,,,,,,,,,,,,,,,,,,,,,,,,,,,,,,,,,,,,,,,,,,,,,,,,,,,,,,,,,,,,,,,,,,,,,,,,,,,,,,,,,,,,,,,,,,,,,,,,,,,,,,,,,,,,,,,,,,,,,,,,,,,,,,,,
,,,,,,6151e74c66fb9fb95b2f522e,62c53a5e3d012ff394c79244,2022-07-06_09h36.11.214,Colour_Asymmetry_Pilot,2022.1.3,Win32,59.88741167,62c50e9c1127f2cd403a315f,0,7,7,60,1,threeone,,,,,,,,,,,,,,,,,,,,,,,,,,,,,,,,,,,,,,,,,,,,,,,,,,,,,,,,,,,,,,,,,,,,,,,,,,,,,,,,,,,,,,,,,,,,,,,,,,,,,,,,,,,,,,,,,,,,,,,,,,,,,,,,,,,,,,,,,,,,,,,,,,,,,,,,,,,,,,
,,,,,,6151e74c66fb9fb95b2f522e,62c53a5e3d012ff394c79244,2022-07-06_09h36.11.214,Colour_Asymmetry_Pilot,2022.1.3,Win32,59.88741167,62c50e9c1127f2cd403a315f,0,8,8,154,1,twoone,,,,,,,,,,,,,,,,,,,,,,,,,,,,,,,,,,,,,,,,,,,,,,,,,,,,,,,,,,,,,,,,,,,,,,,,,,,,,,,,,,,,,,,,,,,,,,,,,,,,,,,,,,,,,,,,,,,,,,,,,,,,,,,,,,,,,,,,,,,,,,,,,,,,,,,,,,,,,,
,,,,,,6151e74c66fb9fb95b2f522e,62c53a5e3d012ff394c79244,2022-07-06_09h36.11.214,Colour_Asymmetry_Pilot,2022.1.3,Win32,59.88741167,62c50e9c1127f2cd403a315f,0,9,9,98,1,twoone,,,,,,,,,,,,,,,,,,,,,,,,,,,,,,,,,,,,,,,,,,,,,,,,,,,,,,,,,,,,,,,,,,,,,,,,,,,,,,,,,,,,,,,,,,,,,,,,,,,,,,,,,,,,,,,,,,,,,,,,,,,,,,,,,,,,,,,,,,,,,,,,,,,,,,,,,,,,,,
,,,,,,6151e74c66fb9fb95b2f522e,62c53a5e3d012ff394c79244,2022-07-06_09h36.11.214,Colour_Asymmetry_Pilot,2022.1.3,Win32,59.88741167,62c50e9c1127f2cd403a315f,0,10,10,157,1,threefour,,,,,,,,,,,,,,,,,,,,,,,,,,,,,,,,,,,,,,,,,,,,,,,,,,,,,,,,,,,,,,,,,,,,,,,,,,,,,,,,,,,,,,,,,,,,,,,,,,,,,,,,,,,,,,,,,,,,,,,,,,,,,,,,,,,,,,,,,,,,,,,,,,,,,,,,,,,,,,
,,,,,,6151e74c66fb9fb95b2f522e,62c53a5e3d012ff394c79244,2022-07-06_09h36.11.214,Colour_Asymmetry_Pilot,2022.1.3,Win32,59.88741167,62c50e9c1127f2cd403a315f,0,11,11,110,1,fourtwo,,,,,,,,,,,,,,,,,,,,,,,,,,,,,,,,,,,,,,,,,,,,,,,,,,,,,,,,,,,,,,,,,,,,,,,,,,,,,,,,,,,,,,,,,,,,,,,,,,,,,,,,,,,,,,,,,,,,,,,,,,,,,,,,,,,,,,,,,,,,,,,,,,,,,,,,,,,,,,
,,,,,,6151e74c66fb9fb95b2f522e,62c53a5e3d012ff394c79244,2022-07-06_09h36.11.214,Colour_Asymmetry_Pilot,2022.1.3,Win32,59.88741167,62c50e9c1127f2cd403a315f,0,12,12,44,1,threeone,,,,,,,,,,,,,,,,,,,,,,,,,,,,,,,,,,,,,,,,,,,,,,,,,,,,,,,,,,,,,,,,,,,,,,,,,,,,,,,,,,,,,,,,,,,,,,,,,,,,,,,,,,,,,,,,,,,,,,,,,,,,,,,,,,,,,,,,,,,,,,,,,,,,,,,,,,,,,,
,,,,,,6151e74c66fb9fb95b2f522e,62c53a5e3d012ff394c79244,2022-07-06_09h36.11.214,Colour_Asymmetry_Pilot,2022.1.3,Win32,59.88741167,62c50e9c1127f2cd403a315f,0,13,13,123,1,twofour,,,,,,,,,,,,,,,,,,,,,,,,,,,,,,,,,,,,,,,,,,,,,,,,,,,,,,,,,,,,,,,,,,,,,,,,,,,,,,,,,,,,,,,,,,,,,,,,,,,,,,,,,,,,,,,,,,,,,,,,,,,,,,,,,,,,,,,,,,,,,,,,,,,,,,,,,,,,,,
,,,,,,6151e74c66fb9fb95b2f522e,62c53a5e3d012ff394c79244,2022-07-06_09h36.11.214,Colour_Asymmetry_Pilot,2022.1.3,Win32,59.88741167,62c50e9c1127f2cd403a315f,0,14,14,118,1,fourtwo,,,,,,,,,,,,,,,,,,,,,,,,,,,,,,,,,,,,,,,,,,,,,,,,,,,,,,,,,,,,,,,,,,,,,,,,,,,,,,,,,,,,,,,,,,,,,,,,,,,,,,,,,,,,,,,,,,,,,,,,,,,,,,,,,,,,,,,,,,,,,,,,,,,,,,,,,,,,,,
,,,,,,6151e74c66fb9fb95b2f522e,62c53a5e3d012ff394c79244,2022-07-06_09h36.11.214,Colour_Asymmetry_Pilot,2022.1.3,Win32,59.88741167,62c50e9c1127f2cd403a315f,0,15,15,103,1,fourthree,,,,,,,,,,,,,,,,,,,,,,,,,,,,,,,,,,,,,,,,,,,,,,,,,,,,,,,,,,,,,,,,,,,,,,,,,,,,,,,,,,,,,,,,,,,,,,,,,,,,,,,,,,,,,,,,,,,,,,,,,,,,,,,,,,,,,,,,,,,,,,,,,,,,,,,,,,,,,,
,,,,,,6151e74c66fb9fb95b2f522e,62c53a5e3d012ff394c79244,2022-07-06_09h36.11.214,Colour_Asymmetry_Pilot,2022.1.3,Win32,59.88741167,62c50e9c1127f2cd403a315f,0,16,16,73,1,onethree,,,,,,,,,,,,,,,,,,,,,,,,,,,,,,,,,,,,,,,,,,,,,,,,,,,,,,,,,,,,,,,,,,,,,,,,,,,,,,,,,,,,,,,,,,,,,,,,,,,,,,,,,,,,,,,,,,,,,,,,,,,,,,,,,,,,,,,,,,,,,,,,,,,,,,,,,,,,,,
,,,,,,6151e74c66fb9fb95b2f522e,62c53a5e3d012ff394c79244,2022-07-06_09h36.11.214,Colour_Asymmetry_Pilot,2022.1.3,Win32,59.88741167,62c50e9c1127f2cd403a315f,0,17,17,21,1,threefour,,,,,,,,,,,,,,,,,,,,,,,,,,,,,,,,,,,,,,,,,,,,,,,,,,,,,,,,,,,,,,,,,,,,,,,,,,,,,,,,,,,,,,,,,,,,,,,,,,,,,,,,,,,,,,,,,,,,,,,,,,,,,,,,,,,,,,,,,,,,,,,,,,,,,,,,,,,,,,
,,,,,,6151e74c66fb9fb95b2f522e,62c53a5e3d012ff394c79244,2022-07-06_09h36.11.214,Colour_Asymmetry_Pilot,2022.1.3,Win32,59.88741167,62c50e9c1127f2cd403a315f,0,18,18,125,1,threefour,,,,,,,,,,,,,,,,,,,,,,,,,,,,,,,,,,,,,,,,,,,,,,,,,,,,,,,,,,,,,,,,,,,,,,,,,,,,,,,,,,,,,,,,,,,,,,,,,,,,,,,,,,,,,,,,,,,,,,,,,,,,,,,,,,,,,,,,,,,,,,,,,,,,,,,,,,,,,,
,,,,,,6151e74c66fb9fb95b2f522e,62c53a5e3d012ff394c79244,2022-07-06_09h36.11.214,Colour_Asymmetry_Pilot,2022.1.3,Win32,59.88741167,62c50e9c1127f2cd403a315f,0,19,19,19,1,twofour,,,,,,,,,,,,,,,,,,,,,,,,,,,,,,,,,,,,,,,,,,,,,,,,,,,,,,,,,,,,,,,,,,,,,,,,,,,,,,,,,,,,,,,,,,,,,,,,,,,,,,,,,,,,,,,,,,,,,,,,,,,,,,,,,,,,,,,,,,,,,,,,,,,,,,,,,,,,,,
,,,,,,6151e74c66fb9fb95b2f522e,62c53a5e3d012ff394c79244,2022-07-06_09h36.11.214,Colour_Asymmetry_Pilot,2022.1.3,Win32,59.88741167,62c50e9c1127f2cd403a315f,0,20,20,2,1,twoone,,,,,,,,,,,,,,,,,,,,,,,,,,,,,,,,,,,,,,,,,,,,,,,,,,,,,,,,,,,,,,,,,,,,,,,,,,,,,,,,,,,,,,,,,,,,,,,,,,,,,,,,,,,,,,,,,,,,,,,,,,,,,,,,,,,,,,,,,,,,,,,,,,,,,,,,,,,,,,
,,,,,,6151e74c66fb9fb95b2f522e,62c53a5e3d012ff394c79244,2022-07-06_09h36.11.214,Colour_Asymmetry_Pilot,2022.1.3,Win32,59.88741167,62c50e9c1127f2cd403a315f,0,21,21,43,1,twofour,,,,,,,,,,,,,,,,,,,,,,,,,,,,,,,,,,,,,,,,,,,,,,,,,,,,,,,,,,,,,,,,,,,,,,,,,,,,,,,,,,,,,,,,,,,,,,,,,,,,,,,,,,,,,,,,,,,,,,,,,,,,,,,,,,,,,,,,,,,,,,,,,,,,,,,,,,,,,,
,,,,,,6151e74c66fb9fb95b2f522e,62c53a5e3d012ff394c79244,2022-07-06_09h36.11.214,Colour_Asymmetry_Pilot,2022.1.3,Win32,59.88741167,62c50e9c1127f2cd403a315f,0,22,22,72,1,onetwo,,,,,,,,,,,,,,,,,,,,,,,,,,,,,,,,,,,,,,,,,,,,,,,,,,,,,,,,,,,,,,,,,,,,,,,,,,,,,,,,,,,,,,,,,,,,,,,,,,,,,,,,,,,,,,,,,,,,,,,,,,,,,,,,,,,,,,,,,,,,,,,,,,,,,,,,,,,,,,
,,,,,,6151e74c66fb9fb95b2f522e,62c53a5e3d012ff394c79244,2022-07-06_09h36.11.214,Colour_Asymmetry_Pilot,2022.1.3,Win32,59.88741167,62c50e9c1127f2cd403a315f,0,23,23,26,1,twoone,,,,,,,,,,,,,,,,,,,,,,,,,,,,,,,,,,,,,,,,,,,,,,,,,,,,,,,,,,,,,,,,,,,,,,,,,,,,,,,,,,,,,,,,,,,,,,,,,,,,,,,,,,,,,,,,,,,,,,,,,,,,,,,,,,,,,,,,,,,,,,,,,,,,,,,,,,,,,,
,,,,,,6151e74c66fb9fb95b2f522e,62c53a5e3d012ff394c79244,2022-07-06_09h36.11.214,Colour_Asymmetry_Pilot,2022.1.3,Win32,59.88741167,62c50e9c1127f2cd403a315f,0,24,24,93,1,threefour,,,,,,,,,,,,,,,,,,,,,,,,,,,,,,,,,,,,,,,,,,,,,,,,,,,,,,,,,,,,,,,,,,,,,,,,,,,,,,,,,,,,,,,,,,,,,,,,,,,,,,,,,,,,,,,,,,,,,,,,,,,,,,,,,,,,,,,,,,,,,,,,,,,,,,,,,,,,,,
,,,,,,6151e74c66fb9fb95b2f522e,62c53a5e3d012ff394c79244,2022-07-06_09h36.11.214,Colour_Asymmetry_Pilot,2022.1.3,Win32,59.88741167,62c50e9c1127f2cd403a315f,0,25,25,114,1,twoone,,,,,,,,,,,,,,,,,,,,,,,,,,,,,,,,,,,,,,,,,,,,,,,,,,,,,,,,,,,,,,,,,,,,,,,,,,,,,,,,,,,,,,,,,,,,,,,,,,,,,,,,,,,,,,,,,,,,,,,,,,,,,,,,,,,,,,,,,,,,,,,,,,,,,,,,,,,,,,
,,,,,,6151e74c66fb9fb95b2f522e,62c53a5e3d012ff394c79244,2022-07-06_09h36.11.214,Colour_Asymmetry_Pilot,2022.1.3,Win32,59.88741167,62c50e9c1127f2cd403a315f,0,26,26,40,1,onetwo,,,,,,,,,,,,,,,,,,,,,,,,,,,,,,,,,,,,,,,,,,,,,,,,,,,,,,,,,,,,,,,,,,,,,,,,,,,,,,,,,,,,,,,,,,,,,,,,,,,,,,,,,,,,,,,,,,,,,,,,,,,,,,,,,,,,,,,,,,,,,,,,,,,,,,,,,,,,,,
,,,,,,6151e74c66fb9fb95b2f522e,62c53a5e3d012ff394c79244,2022-07-06_09h36.11.214,Colour_Asymmetry_Pilot,2022.1.3,Win32,59.88741167,62c50e9c1127f2cd403a315f,0,27,27,82,1,twoone,,,,,,,,,,,,,,,,,,,,,,,,,,,,,,,,,,,,,,,,,,,,,,,,,,,,,,,,,,,,,,,,,,,,,,,,,,,,,,,,,,,,,,,,,,,,,,,,,,,,,,,,,,,,,,,,,,,,,,,,,,,,,,,,,,,,,,,,,,,,,,,,,,,,,,,,,,,,,,
,,,,,,6151e74c66fb9fb95b2f522e,62c53a5e3d012ff394c79244,2022-07-06_09h36.11.214,Colour_Asymmetry_Pilot,2022.1.3,Win32,59.88741167,62c50e9c1127f2cd403a315f,0,28,28,57,1,onethree,,,,,,,,,,,,,,,,,,,,,,,,,,,,,,,,,,,,,,,,,,,,,,,,,,,,,,,,,,,,,,,,,,,,,,,,,,,,,,,,,,,,,,,,,,,,,,,,,,,,,,,,,,,,,,,,,,,,,,,,,,,,,,,,,,,,,,,,,,,,,,,,,,,,,,,,,,,,,,
,,,,,,6151e74c66fb9fb95b2f522e,62c53a5e3d012ff394c79244,2022-07-06_09h36.11.214,Colour_Asymmetry_Pilot,2022.1.3,Win32,59.88741167,62c50e9c1127f2cd403a315f,0,29,29,86,1,fourtwo,,,,,,,,,,,,,,,,,,,,,,,,,,,,,,,,,,,,,,,,,,,,,,,,,,,,,,,,,,,,,,,,,,,,,,,,,,,,,,,,,,,,,,,,,,,,,,,,,,,,,,,,,,,,,,,,,,,,,,,,,,,,,,,,,,,,,,,,,,,,,,,,,,,,,,,,,,,,,,
,,,,,,6151e74c66fb9fb95b2f522e,62c53a5e3d012ff394c79244,2022-07-06_09h36.11.214,Colour_Asymmetry_Pilot,2022.1.3,Win32,59.88741167,62c50e9c1127f2cd403a315f,0,30,30,67,1,twofour,,,,,,,,,,,,,,,,,,,,,,,,,,,,,,,,,,,,,,,,,,,,,,,,,,,,,,,,,,,,,,,,,,,,,,,,,,,,,,,,,,,,,,,,,,,,,,,,,,,,,,,,,,,,,,,,,,,,,,,,,,,,,,,,,,,,,,,,,,,,,,,,,,,,,,,,,,,,,,
,,,,,,6151e74c66fb9fb95b2f522e,62c53a5e3d012ff394c79244,2022-07-06_09h36.11.214,Colour_Asymmetry_Pilot,2022.1.3,Win32,59.88741167,62c50e9c1127f2cd403a315f,0,31,31,156,1,threeone,,,,,,,,,,,,,,,,,,,,,,,,,,,,,,,,,,,,,,,,,,,,,,,,,,,,,,,,,,,,,,,,,,,,,,,,,,,,,,,,,,,,,,,,,,,,,,,,,,,,,,,,,,,,,,,,,,,,,,,,,,,,,,,,,,,,,,,,,,,,,,,,,,,,,,,,,,,,,,
,,,,,,6151e74c66fb9fb95b2f522e,62c53a5e3d012ff394c79244,2022-07-06_09h36.11.214,Colour_Asymmetry_Pilot,2022.1.3,Win32,59.88741167,62c50e9c1127f2cd403a315f,0,32,32,66,1,twoone,,,,,,,,,,,,,,,,,,,,,,,,,,,,,,,,,,,,,,,,,,,,,,,,,,,,,,,,,,,,,,,,,,,,,,,,,,,,,,,,,,,,,,,,,,,,,,,,,,,,,,,,,,,,,,,,,,,,,,,,,,,,,,,,,,,,,,,,,,,,,,,,,,,,,,,,,,,,,,
,,,,,,6151e74c66fb9fb95b2f522e,62c53a5e3d012ff394c79244,2022-07-06_09h36.11.214,Colour_Asymmetry_Pilot,2022.1.3,Win32,59.88741167,62c50e9c1127f2cd403a315f,0,33,33,119,1,fourthree,,,,,,,,,,,,,,,,,,,,,,,,,,,,,,,,,,,,,,,,,,,,,,,,,,,,,,,,,,,,,,,,,,,,,,,,,,,,,,,,,,,,,,,,,,,,,,,,,,,,,,,,,,,,,,,,,,,,,,,,,,,,,,,,,,,,,,,,,,,,,,,,,,,,,,,,,,,,,,
,,,,,,6151e74c66fb9fb95b2f522e,62c53a5e3d012ff394c79244,2022-07-06_09h36.11.214,Colour_Asymmetry_Pilot,2022.1.3,Win32,59.88741167,62c50e9c1127f2cd403a315f,0,34,34,134,1,fourtwo,,,,,,,,,,,,,,,,,,,,,,,,,,,,,,,,,,,,,,,,,,,,,,,,,,,,,,,,,,,,,,,,,,,,,,,,,,,,,,,,,,,,,,,,,,,,,,,,,,,,,,,,,,,,,,,,,,,,,,,,,,,,,,,,,,,,,,,,,,,,,,,,,,,,,,,,,,,,,,
,,,,,,6151e74c66fb9fb95b2f522e,62c53a5e3d012ff394c79244,2022-07-06_09h36.11.214,Colour_Asymmetry_Pilot,2022.1.3,Win32,59.88741167,62c50e9c1127f2cd403a315f,0,35,35,124,1,threeone,,,,,,,,,,,,,,,,,,,,,,,,,,,,,,,,,,,,,,,,,,,,,,,,,,,,,,,,,,,,,,,,,,,,,,,,,,,,,,,,,,,,,,,,,,,,,,,,,,,,,,,,,,,,,,,,,,,,,,,,,,,,,,,,,,,,,,,,,,,,,,,,,,,,,,,,,,,,,,
,,,,,,6151e74c66fb9fb95b2f522e,62c53a5e3d012ff394c79244,2022-07-06_09h36.11.214,Colour_Asymmetry_Pilot,2022.1.3,Win32,59.88741167,62c50e9c1127f2cd403a315f,0,36,36,71,1,fourthree,,,,,,,,,,,,,,,,,,,,,,,,,,,,,,,,,,,,,,,,,,,,,,,,,,,,,,,,,,,,,,,,,,,,,,,,,,,,,,,,,,,,,,,,,,,,,,,,,,,,,,,,,,,,,,,,,,,,,,,,,,,,,,,,,,,,,,,,,,,,,,,,,,,,,,,,,,,,,,
,,,,,,6151e74c66fb9fb95b2f522e,62c53a5e3d012ff394c79244,2022-07-06_09h36.11.214,Colour_Asymmetry_Pilot,2022.1.3,Win32,59.88741167,62c50e9c1127f2cd403a315f,0,37,37,27,1,twofour,,,,,,,,,,,,,,,,,,,,,,,,,,,,,,,,,,,,,,,,,,,,,,,,,,,,,,,,,,,,,,,,,,,,,,,,,,,,,,,,,,,,,,,,,,,,,,,,,,,,,,,,,,,,,,,,,,,,,,,,,,,,,,,,,,,,,,,,,,,,,,,,,,,,,,,,,,,,,,
,,,,,,6151e74c66fb9fb95b2f522e,62c53a5e3d012ff394c79244,2022-07-06_09h36.11.214,Colour_Asymmetry_Pilot,2022.1.3,Win32,59.88741167,62c50e9c1127f2cd403a315f,0,38,38,22,1,fourtwo,,,,,,,,,,,,,,,,,,,,,,,,,,,,,,,,,,,,,,,,,,,,,,,,,,,,,,,,,,,,,,,,,,,,,,,,,,,,,,,,,,,,,,,,,,,,,,,,,,,,,,,,,,,,,,,,,,,,,,,,,,,,,,,,,,,,,,,,,,,,,,,,,,,,,,,,,,,,,,
,,,,,,6151e74c66fb9fb95b2f522e,62c53a5e3d012ff394c79244,2022-07-06_09h36.11.214,Colour_Asymmetry_Pilot,2022.1.3,Win32,59.88741167,62c50e9c1127f2cd403a315f,0,39,39,155,1,twofour,,,,,,,,,,,,,,,,,,,,,,,,,,,,,,,,,,,,,,,,,,,,,,,,,,,,,,,,,,,,,,,,,,,,,,,,,,,,,,,,,,,,,,,,,,,,,,,,,,,,,,,,,,,,,,,,,,,,,,,,,,,,,,,,,,,,,,,,,,,,,,,,,,,,,,,,,,,,,,
,,,,,,6151e74c66fb9fb95b2f522e,62c53a5e3d012ff394c79244,2022-07-06_09h36.11.214,Colour_Asymmetry_Pilot,2022.1.3,Win32,59.88741167,62c50e9c1127f2cd403a315f,0,40,40,6,1,fourtwo,,,,,,,,,,,,,,,,,,,,,,,,,,,,,,,,,,,,,,,,,,,,,,,,,,,,,,,,,,,,,,,,,,,,,,,,,,,,,,,,,,,,,,,,,,,,,,,,,,,,,,,,,,,,,,,,,,,,,,,,,,,,,,,,,,,,,,,,,,,,,,,,,,,,,,,,,,,,,,
,,,,,,6151e74c66fb9fb95b2f522e,62c53a5e3d012ff394c79244,2022-07-06_09h36.11.214,Colour_Asymmetry_Pilot,2022.1.3,Win32,59.88741167,62c50e9c1127f2cd403a315f,0,41,41,161,1,onethree,,,,,,,,,,,,,,,,,,,,,,,,,,,,,,,,,,,,,,,,,,,,,,,,,,,,,,,,,,,,,,,,,,,,,,,,,,,,,,,,,,,,,,,,,,,,,,,,,,,,,,,,,,,,,,,,,,,,,,,,,,,,,,,,,,,,,,,,,,,,,,,,,,,,,,,,,,,,,,
,,,,,,6151e74c66fb9fb95b2f522e,62c53a5e3d012ff394c79244,2022-07-06_09h36.11.214,Colour_Asymmetry_Pilot,2022.1.3,Win32,59.88741167,62c50e9c1127f2cd403a315f,0,42,42,117,1,threefour,,,,,,,,,,,,,,,,,,,,,,,,,,,,,,,,,,,,,,,,,,,,,,,,,,,,,,,,,,,,,,,,,,,,,,,,,,,,,,,,,,,,,,,,,,,,,,,,,,,,,,,,,,,,,,,,,,,,,,,,,,,,,,,,,,,,,,,,,,,,,,,,,,,,,,,,,,,,,,
,,,,,,6151e74c66fb9fb95b2f522e,62c53a5e3d012ff394c79244,2022-07-06_09h36.11.214,Colour_Asymmetry_Pilot,2022.1.3,Win32,59.88741167,62c50e9c1127f2cd403a315f,0,43,43,32,1,onetwo,,,,,,,,,,,,,,,,,,,,,,,,,,,,,,,,,,,,,,,,,,,,,,,,,,,,,,,,,,,,,,,,,,,,,,,,,,,,,,,,,,,,,,,,,,,,,,,,,,,,,,,,,,,,,,,,,,,,,,,,,,,,,,,,,,,,,,,,,,,,,,,,,,,,,,,,,,,,,,
,,,,,,6151e74c66fb9fb95b2f522e,62c53a5e3d012ff394c79244,2022-07-06_09h36.11.214,Colour_Asymmetry_Pilot,2022.1.3,Win32,59.88741167,62c50e9c1127f2cd403a315f,0,44,44,9,1,onethree,,,,,,,,,,,,,,,,,,,,,,,,,,,,,,,,,,,,,,,,,,,,,,,,,,,,,,,,,,,,,,,,,,,,,,,,,,,,,,,,,,,,,,,,,,,,,,,,,,,,,,,,,,,,,,,,,,,,,,,,,,,,,,,,,,,,,,,,,,,,,,,,,,,,,,,,,,,,,,
,,,,,,6151e74c66fb9fb95b2f522e,62c53a5e3d012ff394c79244,2022-07-06_09h36.11.214,Colour_Asymmetry_Pilot,2022.1.3,Win32,59.88741167,62c50e9c1127f2cd403a315f,0,45,45,159,1,fourthree,,,,,,,,,,,,,,,,,,,,,,,,,,,,,,,,,,,,,,,,,,,,,,,,,,,,,,,,,,,,,,,,,,,,,,,,,,,,,,,,,,,,,,,,,,,,,,,,,,,,,,,,,,,,,,,,,,,,,,,,,,,,,,,,,,,,,,,,,,,,,,,,,,,,,,,,,,,,,,
,,,,,,6151e74c66fb9fb95b2f522e,62c53a5e3d012ff394c79244,2022-07-06_09h36.11.214,Colour_Asymmetry_Pilot,2022.1.3,Win32,59.88741167,62c50e9c1127f2cd403a315f,0,46,46,88,1,onetwo,,,,,,,,,,,,,,,,,,,,,,,,,,,,,,,,,,,,,,,,,,,,,,,,,,,,,,,,,,,,,,,,,,,,,,,,,,,,,,,,,,,,,,,,,,,,,,,,,,,,,,,,,,,,,,,,,,,,,,,,,,,,,,,,,,,,,,,,,,,,,,,,,,,,,,,,,,,,,,
,,,,,,6151e74c66fb9fb95b2f522e,62c53a5e3d012ff394c79244,2022-07-06_09h36.11.214,Colour_Asymmetry_Pilot,2022.1.3,Win32,59.88741167,62c50e9c1127f2cd403a315f,0,47,47,128,1,onetwo,,,,,,,,,,,,,,,,,,,,,,,,,,,,,,,,,,,,,,,,,,,,,,,,,,,,,,,,,,,,,,,,,,,,,,,,,,,,,,,,,,,,,,,,,,,,,,,,,,,,,,,,,,,,,,,,,,,,,,,,,,,,,,,,,,,,,,,,,,,,,,,,,,,,,,,,,,,,,,
,,,,,,6151e74c66fb9fb95b2f522e,62c53a5e3d012ff394c79244,2022-07-06_09h36.11.214,Colour_Asymmetry_Pilot,2022.1.3,Win32,59.88741167,62c50e9c1127f2cd403a315f,0,48,48,20,1,threeone,,,,,,,,,,,,,,,,,,,,,,,,,,,,,,,,,,,,,,,,,,,,,,,,,,,,,,,,,,,,,,,,,,,,,,,,,,,,,,,,,,,,,,,,,,,,,,,,,,,,,,,,,,,,,,,,,,,,,,,,,,,,,,,,,,,,,,,,,,,,,,,,,,,,,,,,,,,,,,
,,,,,,6151e74c66fb9fb95b2f522e,62c53a5e3d012ff394c79244,2022-07-06_09h36.11.214,Colour_Asymmetry_Pilot,2022.1.3,Win32,59.88741167,62c50e9c1127f2cd403a315f,0,49,49,70,1,fourtwo,,,,,,,,,,,,,,,,,,,,,,,,,,,,,,,,,,,,,,,,,,,,,,,,,,,,,,,,,,,,,,,,,,,,,,,,,,,,,,,,,,,,,,,,,,,,,,,,,,,,,,,,,,,,,,,,,,,,,,,,,,,,,,,,,,,,,,,,,,,,,,,,,,,,,,,,,,,,,,
,,,,,,6151e74c66fb9fb95b2f522e,62c53a5e3d012ff394c79244,2022-07-06_09h36.11.214,Colour_Asymmetry_Pilot,2022.1.3,Win32,59.88741167,62c50e9c1127f2cd403a315f,0,50,50,51,1,twofour,,,,,,,,,,,,,,,,,,,,,,,,,,,,,,,,,,,,,,,,,,,,,,,,,,,,,,,,,,,,,,,,,,,,,,,,,,,,,,,,,,,,,,,,,,,,,,,,,,,,,,,,,,,,,,,,,,,,,,,,,,,,,,,,,,,,,,,,,,,,,,,,,,,,,,,,,,,,,,
,,,,,,6151e74c66fb9fb95b2f522e,62c53a5e3d012ff394c79244,2022-07-06_09h36.11.214,Colour_Asymmetry_Pilot,2022.1.3,Win32,59.88741167,62c50e9c1127f2cd403a315f,0,51,51,76,1,threeone,,,,,,,,,,,,,,,,,,,,,,,,,,,,,,,,,,,,,,,,,,,,,,,,,,,,,,,,,,,,,,,,,,,,,,,,,,,,,,,,,,,,,,,,,,,,,,,,,,,,,,,,,,,,,,,,,,,,,,,,,,,,,,,,,,,,,,,,,,,,,,,,,,,,,,,,,,,,,,
,,,,,,6151e74c66fb9fb95b2f522e,62c53a5e3d012ff394c79244,2022-07-06_09h36.11.214,Colour_Asymmetry_Pilot,2022.1.3,Win32,59.88741167,62c50e9c1127f2cd403a315f,0,52,52,79,1,fourthree,,,,,,,,,,,,,,,,,,,,,,,,,,,,,,,,,,,,,,,,,,,,,,,,,,,,,,,,,,,,,,,,,,,,,,,,,,,,,,,,,,,,,,,,,,,,,,,,,,,,,,,,,,,,,,,,,,,,,,,,,,,,,,,,,,,,,,,,,,,,,,,,,,,,,,,,,,,,,,
,,,,,,6151e74c66fb9fb95b2f522e,62c53a5e3d012ff394c79244,2022-07-06_09h36.11.214,Colour_Asymmetry_Pilot,2022.1.3,Win32,59.88741167,62c50e9c1127f2cd403a315f,0,53,53,5,1,threefour,,,,,,,,,,,,,,,,,,,,,,,,,,,,,,,,,,,,,,,,,,,,,,,,,,,,,,,,,,,,,,,,,,,,,,,,,,,,,,,,,,,,,,,,,,,,,,,,,,,,,,,,,,,,,,,,,,,,,,,,,,,,,,,,,,,,,,,,,,,,,,,,,,,,,,,,,,,,,,
,,,,,,6151e74c66fb9fb95b2f522e,62c53a5e3d012ff394c79244,2022-07-06_09h36.11.214,Colour_Asymmetry_Pilot,2022.1.3,Win32,59.88741167,62c50e9c1127f2cd403a315f,0,54,54,160,1,onetwo,,,,,,,,,,,,,,,,,,,,,,,,,,,,,,,,,,,,,,,,,,,,,,,,,,,,,,,,,,,,,,,,,,,,,,,,,,,,,,,,,,,,,,,,,,,,,,,,,,,,,,,,,,,,,,,,,,,,,,,,,,,,,,,,,,,,,,,,,,,,,,,,,,,,,,,,,,,,,,
,,,,,,6151e74c66fb9fb95b2f522e,62c53a5e3d012ff394c79244,2022-07-06_09h36.11.214,Colour_Asymmetry_Pilot,2022.1.3,Win32,59.88741167,62c50e9c1127f2cd403a315f,0,55,55,78,1,fourtwo,,,,,,,,,,,,,,,,,,,,,,,,,,,,,,,,,,,,,,,,,,,,,,,,,,,,,,,,,,,,,,,,,,,,,,,,,,,,,,,,,,,,,,,,,,,,,,,,,,,,,,,,,,,,,,,,,,,,,,,,,,,,,,,,,,,,,,,,,,,,,,,,,,,,,,,,,,,,,,
,,,,,,6151e74c66fb9fb95b2f522e,62c53a5e3d012ff394c79244,2022-07-06_09h36.11.214,Colour_Asymmetry_Pilot,2022.1.3,Win32,59.88741167,62c50e9c1127f2cd403a315f,0,56,56,148,1,threeone,,,,,,,,,,,,,,,,,,,,,,,,,,,,,,,,,,,,,,,,,,,,,,,,,,,,,,,,,,,,,,,,,,,,,,,,,,,,,,,,,,,,,,,,,,,,,,,,,,,,,,,,,,,,,,,,,,,,,,,,,,,,,,,,,,,,,,,,,,,,,,,,,,,,,,,,,,,,,,
,,,,,,6151e74c66fb9fb95b2f522e,62c53a5e3d012ff394c79244,2022-07-06_09h36.11.214,Colour_Asymmetry_Pilot,2022.1.3,Win32,59.88741167,62c50e9c1127f2cd403a315f,0,57,57,122,1,twoone,,,,,,,,,,,,,,,,,,,,,,,,,,,,,,,,,,,,,,,,,,,,,,,,,,,,,,,,,,,,,,,,,,,,,,,,,,,,,,,,,,,,,,,,,,,,,,,,,,,,,,,,,,,,,,,,,,,,,,,,,,,,,,,,,,,,,,,,,,,,,,,,,,,,,,,,,,,,,,
,,,,,,6151e74c66fb9fb95b2f522e,62c53a5e3d012ff394c79244,2022-07-06_09h36.11.214,Colour_Asymmetry_Pilot,2022.1.3,Win32,59.88741167,62c50e9c1127f2cd403a315f,0,58,58,8,1,onetwo,,,,,,,,,,,,,,,,,,,,,,,,,,,,,,,,,,,,,,,,,,,,,,,,,,,,,,,,,,,,,,,,,,,,,,,,,,,,,,,,,,,,,,,,,,,,,,,,,,,,,,,,,,,,,,,,,,,,,,,,,,,,,,,,,,,,,,,,,,,,,,,,,,,,,,,,,,,,,,
,,,,,,6151e74c66fb9fb95b2f522e,62c53a5e3d012ff394c79244,2022-07-06_09h36.11.214,Colour_Asymmetry_Pilot,2022.1.3,Win32,59.88741167,62c50e9c1127f2cd403a315f,0,59,59,133,1,threefour,,,,,,,,,,,,,,,,,,,,,,,,,,,,,,,,,,,,,,,,,,,,,,,,,,,,,,,,,,,,,,,,,,,,,,,,,,,,,,,,,,,,,,,,,,,,,,,,,,,,,,,,,,,,,,,,,,,,,,,,,,,,,,,,,,,,,,,,,,,,,,,,,,,,,,,,,,,,,,
,,,,,,6151e74c66fb9fb95b2f522e,62c53a5e3d012ff394c79244,2022-07-06_09h36.11.214,Colour_Asymmetry_Pilot,2022.1.3,Win32,59.88741167,62c50e9c1127f2cd403a315f,0,60,60,58,1,twoone,,,,,,,,,,,,,,,,,,,,,,,,,,,,,,,,,,,,,,,,,,,,,,,,,,,,,,,,,,,,,,,,,,,,,,,,,,,,,,,,,,,,,,,,,,,,,,,,,,,,,,,,,,,,,,,,,,,,,,,,,,,,,,,,,,,,,,,,,,,,,,,,,,,,,,,,,,,,,,
,,,,,,6151e74c66fb9fb95b2f522e,62c53a5e3d012ff394c79244,2022-07-06_09h36.11.214,Colour_Asymmetry_Pilot,2022.1.3,Win32,59.88741167,62c50e9c1127f2cd403a315f,0,61,61,45,1,threefour,,,,,,,,,,,,,,,,,,,,,,,,,,,,,,,,,,,,,,,,,,,,,,,,,,,,,,,,,,,,,,,,,,,,,,,,,,,,,,,,,,,,,,,,,,,,,,,,,,,,,,,,,,,,,,,,,,,,,,,,,,,,,,,,,,,,,,,,,,,,,,,,,,,,,,,,,,,,,,
,,,,,,6151e74c66fb9fb95b2f522e,62c53a5e3d012ff394c79244,2022-07-06_09h36.11.214,Colour_Asymmetry_Pilot,2022.1.3,Win32,59.88741167,62c50e9c1127f2cd403a315f,0,62,62,56,1,onetwo,,,,,,,,,,,,,,,,,,,,,,,,,,,,,,,,,,,,,,,,,,,,,,,,,,,,,,,,,,,,,,,,,,,,,,,,,,,,,,,,,,,,,,,,,,,,,,,,,,,,,,,,,,,,,,,,,,,,,,,,,,,,,,,,,,,,,,,,,,,,,,,,,,,,,,,,,,,,,,
,,,,,,6151e74c66fb9fb95b2f522e,62c53a5e3d012ff394c79244,2022-07-06_09h36.11.214,Colour_Asymmetry_Pilot,2022.1.3,Win32,59.88741167,62c50e9c1127f2cd403a315f,0,63,63,108,1,threeone,,,,,,,,,,,,,,,,,,,,,,,,,,,,,,,,,,,,,,,,,,,,,,,,,,,,,,,,,,,,,,,,,,,,,,,,,,,,,,,,,,,,,,,,,,,,,,,,,,,,,,,,,,,,,,,,,,,,,,,,,,,,,,,,,,,,,,,,,,,,,,,,,,,,,,,,,,,,,,
,,,,,,6151e74c66fb9fb95b2f522e,62c53a5e3d012ff394c79244,2022-07-06_09h36.11.214,Colour_Asymmetry_Pilot,2022.1.3,Win32,59.88741167,62c50e9c1127f2cd403a315f,0,64,64,96,1,onetwo,,,,,,,,,,,,,,,,,,,,,,,,,,,,,,,,,,,,,,,,,,,,,,,,,,,,,,,,,,,,,,,,,,,,,,,,,,,,,,,,,,,,,,,,,,,,,,,,,,,,,,,,,,,,,,,,,,,,,,,,,,,,,,,,,,,,,,,,,,,,,,,,,,,,,,,,,,,,,,
,,,,,,6151e74c66fb9fb95b2f522e,62c53a5e3d012ff394c79244,2022-07-06_09h36.11.214,Colour_Asymmetry_Pilot,2022.1.3,Win32,59.88741167,62c50e9c1127f2cd403a315f,0,65,65,105,1,onethree,,,,,,,,,,,,,,,,,,,,,,,,,,,,,,,,,,,,,,,,,,,,,,,,,,,,,,,,,,,,,,,,,,,,,,,,,,,,,,,,,,,,,,,,,,,,,,,,,,,,,,,,,,,,,,,,,,,,,,,,,,,,,,,,,,,,,,,,,,,,,,,,,,,,,,,,,,,,,,
,,,,,,6151e74c66fb9fb95b2f522e,62c53a5e3d012ff394c79244,2022-07-06_09h36.11.214,Colour_Asymmetry_Pilot,2022.1.3,Win32,59.88741167,62c50e9c1127f2cd403a315f,0,66,66,126,1,fourtwo,,,,,,,,,,,,,,,,,,,,,,,,,,,,,,,,,,,,,,,,,,,,,,,,,,,,,,,,,,,,,,,,,,,,,,,,,,,,,,,,,,,,,,,,,,,,,,,,,,,,,,,,,,,,,,,,,,,,,,,,,,,,,,,,,,,,,,,,,,,,,,,,,,,,,,,,,,,,,,
,,,,,,6151e74c66fb9fb95b2f522e,62c53a5e3d012ff394c79244,2022-07-06_09h36.11.214,Colour_Asymmetry_Pilot,2022.1.3,Win32,59.88741167,62c50e9c1127f2cd403a315f,0,67,67,113,1,onethree,,,,,,,,,,,,,,,,,,,,,,,,,,,,,,,,,,,,,,,,,,,,,,,,,,,,,,,,,,,,,,,,,,,,,,,,,,,,,,,,,,,,,,,,,,,,,,,,,,,,,,,,,,,,,,,,,,,,,,,,,,,,,,,,,,,,,,,,,,,,,,,,,,,,,,,,,,,,,,
,,,,,,6151e74c66fb9fb95b2f522e,62c53a5e3d012ff394c79244,2022-07-06_09h36.11.214,Colour_Asymmetry_Pilot,2022.1.3,Win32,59.88741167,62c50e9c1127f2cd403a315f,0,68,68,80,1,onetwo,,,,,,,,,,,,,,,,,,,,,,,,,,,,,,,,,,,,,,,,,,,,,,,,,,,,,,,,,,,,,,,,,,,,,,,,,,,,,,,,,,,,,,,,,,,,,,,,,,,,,,,,,,,,,,,,,,,,,,,,,,,,,,,,,,,,,,,,,,,,,,,,,,,,,,,,,,,,,,
,,,,,,6151e74c66fb9fb95b2f522e,62c53a5e3d012ff394c79244,2022-07-06_09h36.11.214,Colour_Asymmetry_Pilot,2022.1.3,Win32,59.88741167,62c50e9c1127f2cd403a315f,0,69,69,23,1,fourthree,,,,,,,,,,,,,,,,,,,,,,,,,,,,,,,,,,,,,,,,,,,,,,,,,,,,,,,,,,,,,,,,,,,,,,,,,,,,,,,,,,,,,,,,,,,,,,,,,,,,,,,,,,,,,,,,,,,,,,,,,,,,,,,,,,,,,,,,,,,,,,,,,,,,,,,,,,,,,,
,,,,,,6151e74c66fb9fb95b2f522e,62c53a5e3d012ff394c79244,2022-07-06_09h36.11.214,Colour_Asymmetry_Pilot,2022.1.3,Win32,59.88741167,62c50e9c1127f2cd403a315f,0,70,70,120,1,onetwo,,,,,,,,,,,,,,,,,,,,,,,,,,,,,,,,,,,,,,,,,,,,,,,,,,,,,,,,,,,,,,,,,,,,,,,,,,,,,,,,,,,,,,,,,,,,,,,,,,,,,,,,,,,,,,,,,,,,,,,,,,,,,,,,,,,,,,,,,,,,,,,,,,,,,,,,,,,,,,
,,,,,,6151e74c66fb9fb95b2f522e,62c53a5e3d012ff394c79244,2022-07-06_09h36.11.214,Colour_Asymmetry_Pilot,2022.1.3,Win32,59.88741167,62c50e9c1127f2cd403a315f,0,71,71,38,1,fourtwo,,,,,,,,,,,,,,,,,,,,,,,,,,,,,,,,,,,,,,,,,,,,,,,,,,,,,,,,,,,,,,,,,,,,,,,,,,,,,,,,,,,,,,,,,,,,,,,,,,,,,,,,,,,,,,,,,,,,,,,,,,,,,,,,,,,,,,,,,,,,,,,,,,,,,,,,,,,,,,
,,,,,,6151e74c66fb9fb95b2f522e,62c53a5e3d012ff394c79244,2022-07-06_09h36.11.214,Colour_Asymmetry_Pilot,2022.1.3,Win32,59.88741167,62c50e9c1127f2cd403a315f,0,72,72,109,1,threefour,,,,,,,,,,,,,,,,,,,,,,,,,,,,,,,,,,,,,,,,,,,,,,,,,,,,,,,,,,,,,,,,,,,,,,,,,,,,,,,,,,,,,,,,,,,,,,,,,,,,,,,,,,,,,,,,,,,,,,,,,,,,,,,,,,,,,,,,,,,,,,,,,,,,,,,,,,,,,,
,,,,,,6151e74c66fb9fb95b2f522e,62c53a5e3d012ff394c79244,2022-07-06_09h36.11.214,Colour_Asymmetry_Pilot,2022.1.3,Win32,59.88741167,62c50e9c1127f2cd403a315f,0,73,73,152,1,onetwo,,,,,,,,,,,,,,,,,,,,,,,,,,,,,,,,,,,,,,,,,,,,,,,,,,,,,,,,,,,,,,,,,,,,,,,,,,,,,,,,,,,,,,,,,,,,,,,,,,,,,,,,,,,,,,,,,,,,,,,,,,,,,,,,,,,,,,,,,,,,,,,,,,,,,,,,,,,,,,
,,,,,,6151e74c66fb9fb95b2f522e,62c53a5e3d012ff394c79244,2022-07-06_09h36.11.214,Colour_Asymmetry_Pilot,2022.1.3,Win32,59.88741167,62c50e9c1127f2cd403a315f,0,74,74,24,1,onetwo,,,,,,,,,,,,,,,,,,,,,,,,,,,,,,,,,,,,,,,,,,,,,,,,,,,,,,,,,,,,,,,,,,,,,,,,,,,,,,,,,,,,,,,,,,,,,,,,,,,,,,,,,,,,,,,,,,,,,,,,,,,,,,,,,,,,,,,,,,,,,,,,,,,,,,,,,,,,,,
,,,,,,6151e74c66fb9fb95b2f522e,62c53a5e3d012ff394c79244,2022-07-06_09h36.11.214,Colour_Asymmetry_Pilot,2022.1.3,Win32,59.88741167,62c50e9c1127f2cd403a315f,0,75,75,92,1,threeone,,,,,,,,,,,,,,,,,,,,,,,,,,,,,,,,,,,,,,,,,,,,,,,,,,,,,,,,,,,,,,,,,,,,,,,,,,,,,,,,,,,,,,,,,,,,,,,,,,,,,,,,,,,,,,,,,,,,,,,,,,,,,,,,,,,,,,,,,,,,,,,,,,,,,,,,,,,,,,
,,,,,,6151e74c66fb9fb95b2f522e,62c53a5e3d012ff394c79244,2022-07-06_09h36.11.214,Colour_Asymmetry_Pilot,2022.1.3,Win32,59.88741167,62c50e9c1127f2cd403a315f,0,76,76,46,1,fourtwo,,,,,,,,,,,,,,,,,,,,,,,,,,,,,,,,,,,,,,,,,,,,,,,,,,,,,,,,,,,,,,,,,,,,,,,,,,,,,,,,,,,,,,,,,,,,,,,,,,,,,,,,,,,,,,,,,,,,,,,,,,,,,,,,,,,,,,,,,,,,,,,,,,,,,,,,,,,,,,
,,,,,,6151e74c66fb9fb95b2f522e,62c53a5e3d012ff394c79244,2022-07-06_09h36.11.214,Colour_Asymmetry_Pilot,2022.1.3,Win32,59.88741167,62c50e9c1127f2cd403a315f,0,77,77,146,1,twoone,,,,,,,,,,,,,,,,,,,,,,,,,,,,,,,,,,,,,,,,,,,,,,,,,,,,,,,,,,,,,,,,,,,,,,,,,,,,,,,,,,,,,,,,,,,,,,,,,,,,,,,,,,,,,,,,,,,,,,,,,,,,,,,,,,,,,,,,,,,,,,,,,,,,,,,,,,,,,,
,,,,,,6151e74c66fb9fb95b2f522e,62c53a5e3d012ff394c79244,2022-07-06_09h36.11.214,Colour_Asymmetry_Pilot,2022.1.3,Win32,59.88741167,62c50e9c1127f2cd403a315f,0,78,78,13,1,threefour,,,,,,,,,,,,,,,,,,,,,,,,,,,,,,,,,,,,,,,,,,,,,,,,,,,,,,,,,,,,,,,,,,,,,,,,,,,,,,,,,,,,,,,,,,,,,,,,,,,,,,,,,,,,,,,,,,,,,,,,,,,,,,,,,,,,,,,,,,,,,,,,,,,,,,,,,,,,,,
,,,,,,6151e74c66fb9fb95b2f522e,62c53a5e3d012ff394c79244,2022-07-06_09h36.11.214,Colour_Asymmetry_Pilot,2022.1.3,Win32,59.88741167,62c50e9c1127f2cd403a315f,0,79,79,37,1,threefour,,,,,,,,,,,,,,,,,,,,,,,,,,,,,,,,,,,,,,,,,,,,,,,,,,,,,,,,,,,,,,,,,,,,,,,,,,,,,,,,,,,,,,,,,,,,,,,,,,,,,,,,,,,,,,,,,,,,,,,,,,,,,,,,,,,,,,,,,,,,,,,,,,,,,,,,,,,,,,
,,,,,,6151e74c66fb9fb95b2f522e,62c53a5e3d012ff394c79244,2022-07-06_09h36.11.214,Colour_Asymmetry_Pilot,2022.1.3,Win32,59.88741167,62c50e9c1127f2cd403a315f,0,80,80,87,1,fourthree,,,,,,,,,,,,,,,,,,,,,,,,,,,,,,,,,,,,,,,,,,,,,,,,,,,,,,,,,,,,,,,,,,,,,,,,,,,,,,,,,,,,,,,,,,,,,,,,,,,,,,,,,,,,,,,,,,,,,,,,,,,,,,,,,,,,,,,,,,,,,,,,,,,,,,,,,,,,,,
,,,,,,6151e74c66fb9fb95b2f522e,62c53a5e3d012ff394c79244,2022-07-06_09h36.11.214,Colour_Asymmetry_Pilot,2022.1.3,Win32,59.88741167,62c50e9c1127f2cd403a315f,0,81,81,62,1,fourtwo,,,,,,,,,,,,,,,,,,,,,,,,,,,,,,,,,,,,,,,,,,,,,,,,,,,,,,,,,,,,,,,,,,,,,,,,,,,,,,,,,,,,,,,,,,,,,,,,,,,,,,,,,,,,,,,,,,,,,,,,,,,,,,,,,,,,,,,,,,,,,,,,,,,,,,,,,,,,,,
,,,,,,6151e74c66fb9fb95b2f522e,62c53a5e3d012ff394c79244,2022-07-06_09h36.11.214,Colour_Asymmetry_Pilot,2022.1.3,Win32,59.88741167,62c50e9c1127f2cd403a315f,0,82,82,131,1,twofour,,,,,,,,,,,,,,,,,,,,,,,,,,,,,,,,,,,,,,,,,,,,,,,,,,,,,,,,,,,,,,,,,,,,,,,,,,,,,,,,,,,,,,,,,,,,,,,,,,,,,,,,,,,,,,,,,,,,,,,,,,,,,,,,,,,,,,,,,,,,,,,,,,,,,,,,,,,,,,
,,,,,,6151e74c66fb9fb95b2f522e,62c53a5e3d012ff394c79244,2022-07-06_09h36.11.214,Colour_Asymmetry_Pilot,2022.1.3,Win32,59.88741167,62c50e9c1127f2cd403a315f,0,83,83,107,1,twofour,,,,,,,,,,,,,,,,,,,,,,,,,,,,,,,,,,,,,,,,,,,,,,,,,,,,,,,,,,,,,,,,,,,,,,,,,,,,,,,,,,,,,,,,,,,,,,,,,,,,,,,,,,,,,,,,,,,,,,,,,,,,,,,,,,,,,,,,,,,,,,,,,,,,,,,,,,,,,,
,,,,,,6151e74c66fb9fb95b2f522e,62c53a5e3d012ff394c79244,2022-07-06_09h36.11.214,Colour_Asymmetry_Pilot,2022.1.3,Win32,59.88741167,62c50e9c1127f2cd403a315f,0,84,84,42,1,twoone,,,,,,,,,,,,,,,,,,,,,,,,,,,,,,,,,,,,,,,,,,,,,,,,,,,,,,,,,,,,,,,,,,,,,,,,,,,,,,,,,,,,,,,,,,,,,,,,,,,,,,,,,,,,,,,,,,,,,,,,,,,,,,,,,,,,,,,,,,,,,,,,,,,,,,,,,,,,,,
,,,,,,6151e74c66fb9fb95b2f522e,62c53a5e3d012ff394c79244,2022-07-06_09h36.11.214,Colour_Asymmetry_Pilot,2022.1.3,Win32,59.88741167,62c50e9c1127f2cd403a315f,0,85,85,11,1,twofour,,,,,,,,,,,,,,,,,,,,,,,,,,,,,,,,,,,,,,,,,,,,,,,,,,,,,,,,,,,,,,,,,,,,,,,,,,,,,,,,,,,,,,,,,,,,,,,,,,,,,,,,,,,,,,,,,,,,,,,,,,,,,,,,,,,,,,,,,,,,,,,,,,,,,,,,,,,,,,
,,,,,,6151e74c66fb9fb95b2f522e,62c53a5e3d012ff394c79244,2022-07-06_09h36.11.214,Colour_Asymmetry_Pilot,2022.1.3,Win32,59.88741167,62c50e9c1127f2cd403a315f,0,86,86,97,1,onethree,,,,,,,,,,,,,,,,,,,,,,,,,,,,,,,,,,,,,,,,,,,,,,,,,,,,,,,,,,,,,,,,,,,,,,,,,,,,,,,,,,,,,,,,,,,,,,,,,,,,,,,,,,,,,,,,,,,,,,,,,,,,,,,,,,,,,,,,,,,,,,,,,,,,,,,,,,,,,,
,,,,,,6151e74c66fb9fb95b2f522e,62c53a5e3d012ff394c79244,2022-07-06_09h36.11.214,Colour_Asymmetry_Pilot,2022.1.3,Win32,59.88741167,62c50e9c1127f2cd403a315f,0,87,87,139,1,twofour,,,,,,,,,,,,,,,,,,,,,,,,,,,,,,,,,,,,,,,,,,,,,,,,,,,,,,,,,,,,,,,,,,,,,,,,,,,,,,,,,,,,,,,,,,,,,,,,,,,,,,,,,,,,,,,,,,,,,,,,,,,,,,,,,,,,,,,,,,,,,,,,,,,,,,,,,,,,,,
,,,,,,6151e74c66fb9fb95b2f522e,62c53a5e3d012ff394c79244,2022-07-06_09h36.11.214,Colour_Asymmetry_Pilot,2022.1.3,Win32,59.88741167,62c50e9c1127f2cd403a315f,0,88,88,85,1,threefour,,,,,,,,,,,,,,,,,,,,,,,,,,,,,,,,,,,,,,,,,,,,,,,,,,,,,,,,,,,,,,,,,,,,,,,,,,,,,,,,,,,,,,,,,,,,,,,,,,,,,,,,,,,,,,,,,,,,,,,,,,,,,,,,,,,,,,,,,,,,,,,,,,,,,,,,,,,,,,
,,,,,,6151e74c66fb9fb95b2f522e,62c53a5e3d012ff394c79244,2022-07-06_09h36.11.214,Colour_Asymmetry_Pilot,2022.1.3,Win32,59.88741167,62c50e9c1127f2cd403a315f,0,89,89,41,1,onethree,,,,,,,,,,,,,,,,,,,,,,,,,,,,,,,,,,,,,,,,,,,,,,,,,,,,,,,,,,,,,,,,,,,,,,,,,,,,,,,,,,,,,,,,,,,,,,,,,,,,,,,,,,,,,,,,,,,,,,,,,,,,,,,,,,,,,,,,,,,,,,,,,,,,,,,,,,,,,,
,,,,,,6151e74c66fb9fb95b2f522e,62c53a5e3d012ff394c79244,2022-07-06_09h36.11.214,Colour_Asymmetry_Pilot,2022.1.3,Win32,59.88741167,62c50e9c1127f2cd403a315f,0,90,90,0,1,onetwo,,,,,,,,,,,,,,,,,,,,,,,,,,,,,,,,,,,,,,,,,,,,,,,,,,,,,,,,,,,,,,,,,,,,,,,,,,,,,,,,,,,,,,,,,,,,,,,,,,,,,,,,,,,,,,,,,,,,,,,,,,,,,,,,,,,,,,,,,,,,,,,,,,,,,,,,,,,,,,
,,,,,,6151e74c66fb9fb95b2f522e,62c53a5e3d012ff394c79244,2022-07-06_09h36.11.214,Colour_Asymmetry_Pilot,2022.1.3,Win32,59.88741167,62c50e9c1127f2cd403a315f,0,91,91,106,1,twoone,,,,,,,,,,,,,,,,,,,,,,,,,,,,,,,,,,,,,,,,,,,,,,,,,,,,,,,,,,,,,,,,,,,,,,,,,,,,,,,,,,,,,,,,,,,,,,,,,,,,,,,,,,,,,,,,,,,,,,,,,,,,,,,,,,,,,,,,,,,,,,,,,,,,,,,,,,,,,,
,,,,,,6151e74c66fb9fb95b2f522e,62c53a5e3d012ff394c79244,2022-07-06_09h36.11.214,Colour_Asymmetry_Pilot,2022.1.3,Win32,59.88741167,62c50e9c1127f2cd403a315f,0,92,92,90,1,twoone,,,,,,,,,,,,,,,,,,,,,,,,,,,,,,,,,,,,,,,,,,,,,,,,,,,,,,,,,,,,,,,,,,,,,,,,,,,,,,,,,,,,,,,,,,,,,,,,,,,,,,,,,,,,,,,,,,,,,,,,,,,,,,,,,,,,,,,,,,,,,,,,,,,,,,,,,,,,,,
,,,,,,6151e74c66fb9fb95b2f522e,62c53a5e3d012ff394c79244,2022-07-06_09h36.11.214,Colour_Asymmetry_Pilot,2022.1.3,Win32,59.88741167,62c50e9c1127f2cd403a315f,0,93,93,111,1,fourthree,,,,,,,,,,,,,,,,,,,,,,,,,,,,,,,,,,,,,,,,,,,,,,,,,,,,,,,,,,,,,,,,,,,,,,,,,,,,,,,,,,,,,,,,,,,,,,,,,,,,,,,,,,,,,,,,,,,,,,,,,,,,,,,,,,,,,,,,,,,,,,,,,,,,,,,,,,,,,,
,,,,,,6151e74c66fb9fb95b2f522e,62c53a5e3d012ff394c79244,2022-07-06_09h36.11.214,Colour_Asymmetry_Pilot,2022.1.3,Win32,59.88741167,62c50e9c1127f2cd403a315f,0,94,94,12,1,threeone,,,,,,,,,,,,,,,,,,,,,,,,,,,,,,,,,,,,,,,,,,,,,,,,,,,,,,,,,,,,,,,,,,,,,,,,,,,,,,,,,,,,,,,,,,,,,,,,,,,,,,,,,,,,,,,,,,,,,,,,,,,,,,,,,,,,,,,,,,,,,,,,,,,,,,,,,,,,,,
,,,,,,6151e74c66fb9fb95b2f522e,62c53a5e3d012ff394c79244,2022-07-06_09h36.11.214,Colour_Asymmetry_Pilot,2022.1.3,Win32,59.88741167,62c50e9c1127f2cd403a315f,0,95,95,31,1,fourthree,,,,,,,,,,,,,,,,,,,,,,,,,,,,,,,,,,,,,,,,,,,,,,,,,,,,,,,,,,,,,,,,,,,,,,,,,,,,,,,,,,,,,,,,,,,,,,,,,,,,,,,,,,,,,,,,,,,,,,,,,,,,,,,,,,,,,,,,,,,,,,,,,,,,,,,,,,,,,,
,,,,,,6151e74c66fb9fb95b2f522e,62c53a5e3d012ff394c79244,2022-07-06_09h36.11.214,Colour_Asymmetry_Pilot,2022.1.3,Win32,59.88741167,62c50e9c1127f2cd403a315f,0,96,96,15,1,fourthree,,,,,,,,,,,,,,,,,,,,,,,,,,,,,,,,,,,,,,,,,,,,,,,,,,,,,,,,,,,,,,,,,,,,,,,,,,,,,,,,,,,,,,,,,,,,,,,,,,,,,,,,,,,,,,,,,,,,,,,,,,,,,,,,,,,,,,,,,,,,,,,,,,,,,,,,,,,,,,
,,,,,,6151e74c66fb9fb95b2f522e,62c53a5e3d012ff394c79244,2022-07-06_09h36.11.214,Colour_Asymmetry_Pilot,2022.1.3,Win32,59.88741167,62c50e9c1127f2cd403a315f,0,97,97,83,1,twofour,,,,,,,,,,,,,,,,,,,,,,,,,,,,,,,,,,,,,,,,,,,,,,,,,,,,,,,,,,,,,,,,,,,,,,,,,,,,,,,,,,,,,,,,,,,,,,,,,,,,,,,,,,,,,,,,,,,,,,,,,,,,,,,,,,,,,,,,,,,,,,,,,,,,,,,,,,,,,,
,,,,,,6151e74c66fb9fb95b2f522e,62c53a5e3d012ff394c79244,2022-07-06_09h36.11.214,Colour_Asymmetry_Pilot,2022.1.3,Win32,59.88741167,62c50e9c1127f2cd403a315f,0,98,98,48,1,onetwo,,,,,,,,,,,,,,,,,,,,,,,,,,,,,,,,,,,,,,,,,,,,,,,,,,,,,,,,,,,,,,,,,,,,,,,,,,,,,,,,,,,,,,,,,,,,,,,,,,,,,,,,,,,,,,,,,,,,,,,,,,,,,,,,,,,,,,,,,,,,,,,,,,,,,,,,,,,,,,
,,,,,,6151e74c66fb9fb95b2f522e,62c53a5e3d012ff394c79244,2022-07-06_09h36.11.214,Colour_Asymmetry_Pilot,2022.1.3,Win32,59.88741167,62c50e9c1127f2cd403a315f,0,99,99,52,1,threeone,,,,,,,,,,,,,,,,,,,,,,,,,,,,,,,,,,,,,,,,,,,,,,,,,,,,,,,,,,,,,,,,,,,,,,,,,,,,,,,,,,,,,,,,,,,,,,,,,,,,,,,,,,,,,,,,,,,,,,,,,,,,,,,,,,,,,,,,,,,,,,,,,,,,,,,,,,,,,,
,,,,,,6151e74c66fb9fb95b2f522e,62c53a5e3d012ff394c79244,2022-07-06_09h36.11.214,Colour_Asymmetry_Pilot,2022.1.3,Win32,59.88741167,62c50e9c1127f2cd403a315f,0,100,100,102,1,fourtwo,,,,,,,,,,,,,,,,,,,,,,,,,,,,,,,,,,,,,,,,,,,,,,,,,,,,,,,,,,,,,,,,,,,,,,,,,,,,,,,,,,,,,,,,,,,,,,,,,,,,,,,,,,,,,,,,,,,,,,,,,,,,,,,,,,,,,,,,,,,,,,,,,,,,,,,,,,,,,,
,,,,,,6151e74c66fb9fb95b2f522e,62c53a5e3d012ff394c79244,2022-07-06_09h36.11.214,Colour_Asymmetry_Pilot,2022.1.3,Win32,59.88741167,62c50e9c1127f2cd403a315f,0,101,101,136,1,onetwo,,,,,,,,,,,,,,,,,,,,,,,,,,,,,,,,,,,,,,,,,,,,,,,,,,,,,,,,,,,,,,,,,,,,,,,,,,,,,,,,,,,,,,,,,,,,,,,,,,,,,,,,,,,,,,,,,,,,,,,,,,,,,,,,,,,,,,,,,,,,,,,,,,,,,,,,,,,,,,
,,,,,,6151e74c66fb9fb95b2f522e,62c53a5e3d012ff394c79244,2022-07-06_09h36.11.214,Colour_Asymmetry_Pilot,2022.1.3,Win32,59.88741167,62c50e9c1127f2cd403a315f,0,102,102,33,1,onethree,,,,,,,,,,,,,,,,,,,,,,,,,,,,,,,,,,,,,,,,,,,,,,,,,,,,,,,,,,,,,,,,,,,,,,,,,,,,,,,,,,,,,,,,,,,,,,,,,,,,,,,,,,,,,,,,,,,,,,,,,,,,,,,,,,,,,,,,,,,,,,,,,,,,,,,,,,,,,,
,,,,,,6151e74c66fb9fb95b2f522e,62c53a5e3d012ff394c79244,2022-07-06_09h36.11.214,Colour_Asymmetry_Pilot,2022.1.3,Win32,59.88741167,62c50e9c1127f2cd403a315f,0,103,103,36,1,threeone,,,,,,,,,,,,,,,,,,,,,,,,,,,,,,,,,,,,,,,,,,,,,,,,,,,,,,,,,,,,,,,,,,,,,,,,,,,,,,,,,,,,,,,,,,,,,,,,,,,,,,,,,,,,,,,,,,,,,,,,,,,,,,,,,,,,,,,,,,,,,,,,,,,,,,,,,,,,,,
,,,,,,6151e74c66fb9fb95b2f522e,62c53a5e3d012ff394c79244,2022-07-06_09h36.11.214,Colour_Asymmetry_Pilot,2022.1.3,Win32,59.88741167,62c50e9c1127f2cd403a315f,0,104,104,116,1,threeone,,,,,,,,,,,,,,,,,,,,,,,,,,,,,,,,,,,,,,,,,,,,,,,,,,,,,,,,,,,,,,,,,,,,,,,,,,,,,,,,,,,,,,,,,,,,,,,,,,,,,,,,,,,,,,,,,,,,,,,,,,,,,,,,,,,,,,,,,,,,,,,,,,,,,,,,,,,,,,
,,,,,,6151e74c66fb9fb95b2f522e,62c53a5e3d012ff394c79244,2022-07-06_09h36.11.214,Colour_Asymmetry_Pilot,2022.1.3,Win32,59.88741167,62c50e9c1127f2cd403a315f,0,105,105,28,1,threeone,,,,,,,,,,,,,,,,,,,,,,,,,,,,,,,,,,,,,,,,,,,,,,,,,,,,,,,,,,,,,,,,,,,,,,,,,,,,,,,,,,,,,,,,,,,,,,,,,,,,,,,,,,,,,,,,,,,,,,,,,,,,,,,,,,,,,,,,,,,,,,,,,,,,,,,,,,,,,,
,,,,,,6151e74c66fb9fb95b2f522e,62c53a5e3d012ff394c79244,2022-07-06_09h36.11.214,Colour_Asymmetry_Pilot,2022.1.3,Win32,59.88741167,62c50e9c1127f2cd403a315f,0,106,106,101,1,threefour,,,,,,,,,,,,,,,,,,,,,,,,,,,,,,,,,,,,,,,,,,,,,,,,,,,,,,,,,,,,,,,,,,,,,,,,,,,,,,,,,,,,,,,,,,,,,,,,,,,,,,,,,,,,,,,,,,,,,,,,,,,,,,,,,,,,,,,,,,,,,,,,,,,,,,,,,,,,,,
,,,,,,6151e74c66fb9fb95b2f522e,62c53a5e3d012ff394c79244,2022-07-06_09h36.11.214,Colour_Asymmetry_Pilot,2022.1.3,Win32,59.88741167,62c50e9c1127f2cd403a315f,0,107,107,127,1,fourthree,,,,,,,,,,,,,,,,,,,,,,,,,,,,,,,,,,,,,,,,,,,,,,,,,,,,,,,,,,,,,,,,,,,,,,,,,,,,,,,,,,,,,,,,,,,,,,,,,,,,,,,,,,,,,,,,,,,,,,,,,,,,,,,,,,,,,,,,,,,,,,,,,,,,,,,,,,,,,,
,,,,,,6151e74c66fb9fb95b2f522e,62c53a5e3d012ff394c79244,2022-07-06_09h36.11.214,Colour_Asymmetry_Pilot,2022.1.3,Win32,59.88741167,62c50e9c1127f2cd403a315f,0,108,108,25,1,onethree,,,,,,,,,,,,,,,,,,,,,,,,,,,,,,,,,,,,,,,,,,,,,,,,,,,,,,,,,,,,,,,,,,,,,,,,,,,,,,,,,,,,,,,,,,,,,,,,,,,,,,,,,,,,,,,,,,,,,,,,,,,,,,,,,,,,,,,,,,,,,,,,,,,,,,,,,,,,,,
,,,,,,6151e74c66fb9fb95b2f522e,62c53a5e3d012ff394c79244,2022-07-06_09h36.11.214,Colour_Asymmetry_Pilot,2022.1.3,Win32,59.88741167,62c50e9c1127f2cd403a315f,0,109,109,121,1,onethree,,,,,,,,,,,,,,,,,,,,,,,,,,,,,,,,,,,,,,,,,,,,,,,,,,,,,,,,,,,,,,,,,,,,,,,,,,,,,,,,,,,,,,,,,,,,,,,,,,,,,,,,,,,,,,,,,,,,,,,,,,,,,,,,,,,,,,,,,,,,,,,,,,,,,,,,,,,,,,
,,,,,,6151e74c66fb9fb95b2f522e,62c53a5e3d012ff394c79244,2022-07-06_09h36.11.214,Colour_Asymmetry_Pilot,2022.1.3,Win32,59.88741167,62c50e9c1127f2cd403a315f,0,110,110,50,1,twoone,,,,,,,,,,,,,,,,,,,,,,,,,,,,,,,,,,,,,,,,,,,,,,,,,,,,,,,,,,,,,,,,,,,,,,,,,,,,,,,,,,,,,,,,,,,,,,,,,,,,,,,,,,,,,,,,,,,,,,,,,,,,,,,,,,,,,,,,,,,,,,,,,,,,,,,,,,,,,,
,,,,,,6151e74c66fb9fb95b2f522e,62c53a5e3d012ff394c79244,2022-07-06_09h36.11.214,Colour_Asymmetry_Pilot,2022.1.3,Win32,59.88741167,62c50e9c1127f2cd403a315f,0,111,111,140,1,threeone,,,,,,,,,,,,,,,,,,,,,,,,,,,,,,,,,,,,,,,,,,,,,,,,,,,,,,,,,,,,,,,,,,,,,,,,,,,,,,,,,,,,,,,,,,,,,,,,,,,,,,,,,,,,,,,,,,,,,,,,,,,,,,,,,,,,,,,,,,,,,,,,,,,,,,,,,,,,,,
,,,,,,6151e74c66fb9fb95b2f522e,62c53a5e3d012ff394c79244,2022-07-06_09h36.11.214,Colour_Asymmetry_Pilot,2022.1.3,Win32,59.88741167,62c50e9c1127f2cd403a315f,0,112,112,151,1,fourthree,,,,,,,,,,,,,,,,,,,,,,,,,,,,,,,,,,,,,,,,,,,,,,,,,,,,,,,,,,,,,,,,,,,,,,,,,,,,,,,,,,,,,,,,,,,,,,,,,,,,,,,,,,,,,,,,,,,,,,,,,,,,,,,,,,,,,,,,,,,,,,,,,,,,,,,,,,,,,,
,,,,,,6151e74c66fb9fb95b2f522e,62c53a5e3d012ff394c79244,2022-07-06_09h36.11.214,Colour_Asymmetry_Pilot,2022.1.3,Win32,59.88741167,62c50e9c1127f2cd403a315f,0,113,113,74,1,twoone,,,,,,,,,,,,,,,,,,,,,,,,,,,,,,,,,,,,,,,,,,,,,,,,,,,,,,,,,,,,,,,,,,,,,,,,,,,,,,,,,,,,,,,,,,,,,,,,,,,,,,,,,,,,,,,,,,,,,,,,,,,,,,,,,,,,,,,,,,,,,,,,,,,,,,,,,,,,,,
,,,,,,6151e74c66fb9fb95b2f522e,62c53a5e3d012ff394c79244,2022-07-06_09h36.11.214,Colour_Asymmetry_Pilot,2022.1.3,Win32,59.88741167,62c50e9c1127f2cd403a315f,0,114,114,144,1,onetwo,,,,,,,,,,,,,,,,,,,,,,,,,,,,,,,,,,,,,,,,,,,,,,,,,,,,,,,,,,,,,,,,,,,,,,,,,,,,,,,,,,,,,,,,,,,,,,,,,,,,,,,,,,,,,,,,,,,,,,,,,,,,,,,,,,,,,,,,,,,,,,,,,,,,,,,,,,,,,,
,,,,,,6151e74c66fb9fb95b2f522e,62c53a5e3d012ff394c79244,2022-07-06_09h36.11.214,Colour_Asymmetry_Pilot,2022.1.3,Win32,59.88741167,62c50e9c1127f2cd403a315f,0,115,115,99,1,twofour,,,,,,,,,,,,,,,,,,,,,,,,,,,,,,,,,,,,,,,,,,,,,,,,,,,,,,,,,,,,,,,,,,,,,,,,,,,,,,,,,,,,,,,,,,,,,,,,,,,,,,,,,,,,,,,,,,,,,,,,,,,,,,,,,,,,,,,,,,,,,,,,,,,,,,,,,,,,,,
,,,,,,6151e74c66fb9fb95b2f522e,62c53a5e3d012ff394c79244,2022-07-06_09h36.11.214,Colour_Asymmetry_Pilot,2022.1.3,Win32,59.88741167,62c50e9c1127f2cd403a315f,0,116,116,7,1,fourthree,,,,,,,,,,,,,,,,,,,,,,,,,,,,,,,,,,,,,,,,,,,,,,,,,,,,,,,,,,,,,,,,,,,,,,,,,,,,,,,,,,,,,,,,,,,,,,,,,,,,,,,,,,,,,,,,,,,,,,,,,,,,,,,,,,,,,,,,,,,,,,,,,,,,,,,,,,,,,,
,,,,,,6151e74c66fb9fb95b2f522e,62c53a5e3d012ff394c79244,2022-07-06_09h36.11.214,Colour_Asymmetry_Pilot,2022.1.3,Win32,59.88741167,62c50e9c1127f2cd403a315f,0,117,117,129,1,onethree,,,,,,,,,,,,,,,,,,,,,,,,,,,,,,,,,,,,,,,,,,,,,,,,,,,,,,,,,,,,,,,,,,,,,,,,,,,,,,,,,,,,,,,,,,,,,,,,,,,,,,,,,,,,,,,,,,,,,,,,,,,,,,,,,,,,,,,,,,,,,,,,,,,,,,,,,,,,,,
,,,,,,6151e74c66fb9fb95b2f522e,62c53a5e3d012ff394c79244,2022-07-06_09h36.11.214,Colour_Asymmetry_Pilot,2022.1.3,Win32,59.88741167,62c50e9c1127f2cd403a315f,0,118,118,39,1,fourthree,,,,,,,,,,,,,,,,,,,,,,,,,,,,,,,,,,,,,,,,,,,,,,,,,,,,,,,,,,,,,,,,,,,,,,,,,,,,,,,,,,,,,,,,,,,,,,,,,,,,,,,,,,,,,,,,,,,,,,,,,,,,,,,,,,,,,,,,,,,,,,,,,,,,,,,,,,,,,,
,,,,,,6151e74c66fb9fb95b2f522e,62c53a5e3d012ff394c79244,2022-07-06_09h36.11.214,Colour_Asymmetry_Pilot,2022.1.3,Win32,59.88741167,62c50e9c1127f2cd403a315f,0,119,119,104,1,onetwo,,,,,,,,,,,,,,,,,,,,,,,,,,,,,,,,,,,,,,,,,,,,,,,,,,,,,,,,,,,,,,,,,,,,,,,,,,,,,,,,,,,,,,,,,,,,,,,,,,,,,,,,,,,,,,,,,,,,,,,,,,,,,,,,,,,,,,,,,,,,,,,,,,,,,,,,,,,,,,
,,,,,,6151e74c66fb9fb95b2f522e,62c53a5e3d012ff394c79244,2022-07-06_09h36.11.214,Colour_Asymmetry_Pilot,2022.1.3,Win32,59.88741167,62c50e9c1127f2cd403a315f,0,120,120,34,1,twoone,,,,,,,,,,,,,,,,,,,,,,,,,,,,,,,,,,,,,,,,,,,,,,,,,,,,,,,,,,,,,,,,,,,,,,,,,,,,,,,,,,,,,,,,,,,,,,,,,,,,,,,,,,,,,,,,,,,,,,,,,,,,,,,,,,,,,,,,,,,,,,,,,,,,,,,,,,,,,,
,,,,,,6151e74c66fb9fb95b2f522e,62c53a5e3d012ff394c79244,2022-07-06_09h36.11.214,Colour_Asymmetry_Pilot,2022.1.3,Win32,59.88741167,62c50e9c1127f2cd403a315f,0,121,121,115,1,twofour,,,,,,,,,,,,,,,,,,,,,,,,,,,,,,,,,,,,,,,,,,,,,,,,,,,,,,,,,,,,,,,,,,,,,,,,,,,,,,,,,,,,,,,,,,,,,,,,,,,,,,,,,,,,,,,,,,,,,,,,,,,,,,,,,,,,,,,,,,,,,,,,,,,,,,,,,,,,,,
,,,,,,6151e74c66fb9fb95b2f522e,62c53a5e3d012ff394c79244,2022-07-06_09h36.11.214,Colour_Asymmetry_Pilot,2022.1.3,Win32,59.88741167,62c50e9c1127f2cd403a315f,0,122,122,145,1,onethree,,,,,,,,,,,,,,,,,,,,,,,,,,,,,,,,,,,,,,,,,,,,,,,,,,,,,,,,,,,,,,,,,,,,,,,,,,,,,,,,,,,,,,,,,,,,,,,,,,,,,,,,,,,,,,,,,,,,,,,,,,,,,,,,,,,,,,,,,,,,,,,,,,,,,,,,,,,,,,
,,,,,,6151e74c66fb9fb95b2f522e,62c53a5e3d012ff394c79244,2022-07-06_09h36.11.214,Colour_Asymmetry_Pilot,2022.1.3,Win32,59.88741167,62c50e9c1127f2cd403a315f,0,123,123,49,1,onethree,,,,,,,,,,,,,,,,,,,,,,,,,,,,,,,,,,,,,,,,,,,,,,,,,,,,,,,,,,,,,,,,,,,,,,,,,,,,,,,,,,,,,,,,,,,,,,,,,,,,,,,,,,,,,,,,,,,,,,,,,,,,,,,,,,,,,,,,,,,,,,,,,,,,,,,,,,,,,,
,,,,,,6151e74c66fb9fb95b2f522e,62c53a5e3d012ff394c79244,2022-07-06_09h36.11.214,Colour_Asymmetry_Pilot,2022.1.3,Win32,59.88741167,62c50e9c1127f2cd403a315f,0,124,124,100,1,threeone,,,,,,,,,,,,,,,,,,,,,,,,,,,,,,,,,,,,,,,,,,,,,,,,,,,,,,,,,,,,,,,,,,,,,,,,,,,,,,,,,,,,,,,,,,,,,,,,,,,,,,,,,,,,,,,,,,,,,,,,,,,,,,,,,,,,,,,,,,,,,,,,,,,,,,,,,,,,,,
,,,,,,6151e74c66fb9fb95b2f522e,62c53a5e3d012ff394c79244,2022-07-06_09h36.11.214,Colour_Asymmetry_Pilot,2022.1.3,Win32,59.88741167,62c50e9c1127f2cd403a315f,0,125,125,14,1,fourtwo,,,,,,,,,,,,,,,,,,,,,,,,,,,,,,,,,,,,,,,,,,,,,,,,,,,,,,,,,,,,,,,,,,,,,,,,,,,,,,,,,,,,,,,,,,,,,,,,,,,,,,,,,,,,,,,,,,,,,,,,,,,,,,,,,,,,,,,,,,,,,,,,,,,,,,,,,,,,,,
,,,,,,6151e74c66fb9fb95b2f522e,62c53a5e3d012ff394c79244,2022-07-06_09h36.11.214,Colour_Asymmetry_Pilot,2022.1.3,Win32,59.88741167,62c50e9c1127f2cd403a315f,0,126,126,10,1,twoone,,,,,,,,,,,,,,,,,,,,,,,,,,,,,,,,,,,,,,,,,,,,,,,,,,,,,,,,,,,,,,,,,,,,,,,,,,,,,,,,,,,,,,,,,,,,,,,,,,,,,,,,,,,,,,,,,,,,,,,,,,,,,,,,,,,,,,,,,,,,,,,,,,,,,,,,,,,,,,
,,,,,,6151e74c66fb9fb95b2f522e,62c53a5e3d012ff394c79244,2022-07-06_09h36.11.214,Colour_Asymmetry_Pilot,2022.1.3,Win32,59.88741167,62c50e9c1127f2cd403a315f,0,127,127,153,1,onethree,,,,,,,,,,,,,,,,,,,,,,,,,,,,,,,,,,,,,,,,,,,,,,,,,,,,,,,,,,,,,,,,,,,,,,,,,,,,,,,,,,,,,,,,,,,,,,,,,,,,,,,,,,,,,,,,,,,,,,,,,,,,,,,,,,,,,,,,,,,,,,,,,,,,,,,,,,,,,,
,,,,,,6151e74c66fb9fb95b2f522e,62c53a5e3d012ff394c79244,2022-07-06_09h36.11.214,Colour_Asymmetry_Pilot,2022.1.3,Win32,59.88741167,62c50e9c1127f2cd403a315f,0,128,128,65,1,onethree,,,,,,,,,,,,,,,,,,,,,,,,,,,,,,,,,,,,,,,,,,,,,,,,,,,,,,,,,,,,,,,,,,,,,,,,,,,,,,,,,,,,,,,,,,,,,,,,,,,,,,,,,,,,,,,,,,,,,,,,,,,,,,,,,,,,,,,,,,,,,,,,,,,,,,,,,,,,,,
,,,,,,6151e74c66fb9fb95b2f522e,62c53a5e3d012ff394c79244,2022-07-06_09h36.11.214,Colour_Asymmetry_Pilot,2022.1.3,Win32,59.88741167,62c50e9c1127f2cd403a315f,0,129,129,16,1,onetwo,,,,,,,,,,,,,,,,,,,,,,,,,,,,,,,,,,,,,,,,,,,,,,,,,,,,,,,,,,,,,,,,,,,,,,,,,,,,,,,,,,,,,,,,,,,,,,,,,,,,,,,,,,,,,,,,,,,,,,,,,,,,,,,,,,,,,,,,,,,,,,,,,,,,,,,,,,,,,,
,,,,,,6151e74c66fb9fb95b2f522e,62c53a5e3d012ff394c79244,2022-07-06_09h36.11.214,Colour_Asymmetry_Pilot,2022.1.3,Win32,59.88741167,62c50e9c1127f2cd403a315f,0,130,130,35,1,twofour,,,,,,,,,,,,,,,,,,,,,,,,,,,,,,,,,,,,,,,,,,,,,,,,,,,,,,,,,,,,,,,,,,,,,,,,,,,,,,,,,,,,,,,,,,,,,,,,,,,,,,,,,,,,,,,,,,,,,,,,,,,,,,,,,,,,,,,,,,,,,,,,,,,,,,,,,,,,,,
,,,,,,6151e74c66fb9fb95b2f522e,62c53a5e3d012ff394c79244,2022-07-06_09h36.11.214,Colour_Asymmetry_Pilot,2022.1.3,Win32,59.88741167,62c50e9c1127f2cd403a315f,0,131,131,142,1,fourtwo,,,,,,,,,,,,,,,,,,,,,,,,,,,,,,,,,,,,,,,,,,,,,,,,,,,,,,,,,,,,,,,,,,,,,,,,,,,,,,,,,,,,,,,,,,,,,,,,,,,,,,,,,,,,,,,,,,,,,,,,,,,,,,,,,,,,,,,,,,,,,,,,,,,,,,,,,,,,,,
,,,,,,6151e74c66fb9fb95b2f522e,62c53a5e3d012ff394c79244,2022-07-06_09h36.11.214,Colour_Asymmetry_Pilot,2022.1.3,Win32,59.88741167,62c50e9c1127f2cd403a315f,0,132,132,150,1,fourtwo,,,,,,,,,,,,,,,,,,,,,,,,,,,,,,,,,,,,,,,,,,,,,,,,,,,,,,,,,,,,,,,,,,,,,,,,,,,,,,,,,,,,,,,,,,,,,,,,,,,,,,,,,,,,,,,,,,,,,,,,,,,,,,,,,,,,,,,,,,,,,,,,,,,,,,,,,,,,,,
,,,,,,6151e74c66fb9fb95b2f522e,62c53a5e3d012ff394c79244,2022-07-06_09h36.11.214,Colour_Asymmetry_Pilot,2022.1.3,Win32,59.88741167,62c50e9c1127f2cd403a315f,0,133,133,143,1,fourthree,,,,,,,,,,,,,,,,,,,,,,,,,,,,,,,,,,,,,,,,,,,,,,,,,,,,,,,,,,,,,,,,,,,,,,,,,,,,,,,,,,,,,,,,,,,,,,,,,,,,,,,,,,,,,,,,,,,,,,,,,,,,,,,,,,,,,,,,,,,,,,,,,,,,,,,,,,,,,,
,,,,,,6151e74c66fb9fb95b2f522e,62c53a5e3d012ff394c79244,2022-07-06_09h36.11.214,Colour_Asymmetry_Pilot,2022.1.3,Win32,59.88741167,62c50e9c1127f2cd403a315f,0,134,134,1,1,onethree,,,,,,,,,,,,,,,,,,,,,,,,,,,,,,,,,,,,,,,,,,,,,,,,,,,,,,,,,,,,,,,,,,,,,,,,,,,,,,,,,,,,,,,,,,,,,,,,,,,,,,,,,,,,,,,,,,,,,,,,,,,,,,,,,,,,,,,,,,,,,,,,,,,,,,,,,,,,,,
,,,,,,6151e74c66fb9fb95b2f522e,62c53a5e3d012ff394c79244,2022-07-06_09h36.11.214,Colour_Asymmetry_Pilot,2022.1.3,Win32,59.88741167,62c50e9c1127f2cd403a315f,0,135,135,59,1,twofour,,,,,,,,,,,,,,,,,,,,,,,,,,,,,,,,,,,,,,,,,,,,,,,,,,,,,,,,,,,,,,,,,,,,,,,,,,,,,,,,,,,,,,,,,,,,,,,,,,,,,,,,,,,,,,,,,,,,,,,,,,,,,,,,,,,,,,,,,,,,,,,,,,,,,,,,,,,,,,
,,,,,,6151e74c66fb9fb95b2f522e,62c53a5e3d012ff394c79244,2022-07-06_09h36.11.214,Colour_Asymmetry_Pilot,2022.1.3,Win32,59.88741167,62c50e9c1127f2cd403a315f,0,136,136,64,1,onetwo,,,,,,,,,,,,,,,,,,,,,,,,,,,,,,,,,,,,,,,,,,,,,,,,,,,,,,,,,,,,,,,,,,,,,,,,,,,,,,,,,,,,,,,,,,,,,,,,,,,,,,,,,,,,,,,,,,,,,,,,,,,,,,,,,,,,,,,,,,,,,,,,,,,,,,,,,,,,,,
,,,,,,6151e74c66fb9fb95b2f522e,62c53a5e3d012ff394c79244,2022-07-06_09h36.11.214,Colour_Asymmetry_Pilot,2022.1.3,Win32,59.88741167,62c50e9c1127f2cd403a315f,0,137,137,137,1,onethree,,,,,,,,,,,,,,,,,,,,,,,,,,,,,,,,,,,,,,,,,,,,,,,,,,,,,,,,,,,,,,,,,,,,,,,,,,,,,,,,,,,,,,,,,,,,,,,,,,,,,,,,,,,,,,,,,,,,,,,,,,,,,,,,,,,,,,,,,,,,,,,,,,,,,,,,,,,,,,
,,,,,,6151e74c66fb9fb95b2f522e,62c53a5e3d012ff394c79244,2022-07-06_09h36.11.214,Colour_Asymmetry_Pilot,2022.1.3,Win32,59.88741167,62c50e9c1127f2cd403a315f,0,138,138,141,1,threefour,,,,,,,,,,,,,,,,,,,,,,,,,,,,,,,,,,,,,,,,,,,,,,,,,,,,,,,,,,,,,,,,,,,,,,,,,,,,,,,,,,,,,,,,,,,,,,,,,,,,,,,,,,,,,,,,,,,,,,,,,,,,,,,,,,,,,,,,,,,,,,,,,,,,,,,,,,,,,,
,,,,,,6151e74c66fb9fb95b2f522e,62c53a5e3d012ff394c79244,2022-07-06_09h36.11.214,Colour_Asymmetry_Pilot,2022.1.3,Win32,59.88741167,62c50e9c1127f2cd403a315f,0,139,139,53,1,threefour,,,,,,,,,,,,,,,,,,,,,,,,,,,,,,,,,,,,,,,,,,,,,,,,,,,,,,,,,,,,,,,,,,,,,,,,,,,,,,,,,,,,,,,,,,,,,,,,,,,,,,,,,,,,,,,,,,,,,,,,,,,,,,,,,,,,,,,,,,,,,,,,,,,,,,,,,,,,,,
,,,,,,6151e74c66fb9fb95b2f522e,62c53a5e3d012ff394c79244,2022-07-06_09h36.11.214,Colour_Asymmetry_Pilot,2022.1.3,Win32,59.88741167,62c50e9c1127f2cd403a315f,0,140,140,4,1,threeone,,,,,,,,,,,,,,,,,,,,,,,,,,,,,,,,,,,,,,,,,,,,,,,,,,,,,,,,,,,,,,,,,,,,,,,,,,,,,,,,,,,,,,,,,,,,,,,,,,,,,,,,,,,,,,,,,,,,,,,,,,,,,,,,,,,,,,,,,,,,,,,,,,,,,,,,,,,,,,
,,,,,,6151e74c66fb9fb95b2f522e,62c53a5e3d012ff394c79244,2022-07-06_09h36.11.214,Colour_Asymmetry_Pilot,2022.1.3,Win32,59.88741167,62c50e9c1127f2cd403a315f,0,141,141,3,1,twofour,,,,,,,,,,,,,,,,,,,,,,,,,,,,,,,,,,,,,,,,,,,,,,,,,,,,,,,,,,,,,,,,,,,,,,,,,,,,,,,,,,,,,,,,,,,,,,,,,,,,,,,,,,,,,,,,,,,,,,,,,,,,,,,,,,,,,,,,,,,,,,,,,,,,,,,,,,,,,,
,,,,,,6151e74c66fb9fb95b2f522e,62c53a5e3d012ff394c79244,2022-07-06_09h36.11.214,Colour_Asymmetry_Pilot,2022.1.3,Win32,59.88741167,62c50e9c1127f2cd403a315f,0,142,142,138,1,twoone,,,,,,,,,,,,,,,,,,,,,,,,,,,,,,,,,,,,,,,,,,,,,,,,,,,,,,,,,,,,,,,,,,,,,,,,,,,,,,,,,,,,,,,,,,,,,,,,,,,,,,,,,,,,,,,,,,,,,,,,,,,,,,,,,,,,,,,,,,,,,,,,,,,,,,,,,,,,,,
,,,,,,6151e74c66fb9fb95b2f522e,62c53a5e3d012ff394c79244,2022-07-06_09h36.11.214,Colour_Asymmetry_Pilot,2022.1.3,Win32,59.88741167,62c50e9c1127f2cd403a315f,0,143,143,55,1,fourthree,,,,,,,,,,,,,,,,,,,,,,,,,,,,,,,,,,,,,,,,,,,,,,,,,,,,,,,,,,,,,,,,,,,,,,,,,,,,,,,,,,,,,,,,,,,,,,,,,,,,,,,,,,,,,,,,,,,,,,,,,,,,,,,,,,,,,,,,,,,,,,,,,,,,,,,,,,,,,,
,,,,,,6151e74c66fb9fb95b2f522e,62c53a5e3d012ff394c79244,2022-07-06_09h36.11.214,Colour_Asymmetry_Pilot,2022.1.3,Win32,59.88741167,62c50e9c1127f2cd403a315f,0,144,144,77,1,threefour,,,,,,,,,,,,,,,,,,,,,,,,,,,,,,,,,,,,,,,,,,,,,,,,,,,,,,,,,,,,,,,,,,,,,,,,,,,,,,,,,,,,,,,,,,,,,,,,,,,,,,,,,,,,,,,,,,,,,,,,,,,,,,,,,,,,,,,,,,,,,,,,,,,,,,,,,,,,,,
,,,,,,6151e74c66fb9fb95b2f522e,62c53a5e3d012ff394c79244,2022-07-06_09h36.11.214,Colour_Asymmetry_Pilot,2022.1.3,Win32,59.88741167,62c50e9c1127f2cd403a315f,0,145,145,95,1,fourthree,,,,,,,,,,,,,,,,,,,,,,,,,,,,,,,,,,,,,,,,,,,,,,,,,,,,,,,,,,,,,,,,,,,,,,,,,,,,,,,,,,,,,,,,,,,,,,,,,,,,,,,,,,,,,,,,,,,,,,,,,,,,,,,,,,,,,,,,,,,,,,,,,,,,,,,,,,,,,,
,,,,,,6151e74c66fb9fb95b2f522e,62c53a5e3d012ff394c79244,2022-07-06_09h36.11.214,Colour_Asymmetry_Pilot,2022.1.3,Win32,59.88741167,62c50e9c1127f2cd403a315f,0,146,146,81,1,onethree,,,,,,,,,,,,,,,,,,,,,,,,,,,,,,,,,,,,,,,,,,,,,,,,,,,,,,,,,,,,,,,,,,,,,,,,,,,,,,,,,,,,,,,,,,,,,,,,,,,,,,,,,,,,,,,,,,,,,,,,,,,,,,,,,,,,,,,,,,,,,,,,,,,,,,,,,,,,,,
,,,,,,6151e74c66fb9fb95b2f522e,62c53a5e3d012ff394c79244,2022-07-06_09h36.11.214,Colour_Asymmetry_Pilot,2022.1.3,Win32,59.88741167,62c50e9c1127f2cd403a315f,0,147,147,91,1,twofour,,,,,,,,,,,,,,,,,,,,,,,,,,,,,,,,,,,,,,,,,,,,,,,,,,,,,,,,,,,,,,,,,,,,,,,,,,,,,,,,,,,,,,,,,,,,,,,,,,,,,,,,,,,,,,,,,,,,,,,,,,,,,,,,,,,,,,,,,,,,,,,,,,,,,,,,,,,,,,
,,,,,,6151e74c66fb9fb95b2f522e,62c53a5e3d012ff394c79244,2022-07-06_09h36.11.214,Colour_Asymmetry_Pilot,2022.1.3,Win32,59.88741167,62c50e9c1127f2cd403a315f,0,148,148,47,1,fourthree,,,,,,,,,,,,,,,,,,,,,,,,,,,,,,,,,,,,,,,,,,,,,,,,,,,,,,,,,,,,,,,,,,,,,,,,,,,,,,,,,,,,,,,,,,,,,,,,,,,,,,,,,,,,,,,,,,,,,,,,,,,,,,,,,,,,,,,,,,,,,,,,,,,,,,,,,,,,,,
,,,,,,6151e74c66fb9fb95b2f522e,62c53a5e3d012ff394c79244,2022-07-06_09h36.11.214,Colour_Asymmetry_Pilot,2022.1.3,Win32,59.88741167,62c50e9c1127f2cd403a315f,0,149,149,147,1,twofour,,,,,,,,,,,,,,,,,,,,,,,,,,,,,,,,,,,,,,,,,,,,,,,,,,,,,,,,,,,,,,,,,,,,,,,,,,,,,,,,,,,,,,,,,,,,,,,,,,,,,,,,,,,,,,,,,,,,,,,,,,,,,,,,,,,,,,,,,,,,,,,,,,,,,,,,,,,,,,
,,,,,,6151e74c66fb9fb95b2f522e,62c53a5e3d012ff394c79244,2022-07-06_09h36.11.214,Colour_Asymmetry_Pilot,2022.1.3,Win32,59.88741167,62c50e9c1127f2cd403a315f,0,150,150,68,1,threeone,,,,,,,,,,,,,,,,,,,,,,,,,,,,,,,,,,,,,,,,,,,,,,,,,,,,,,,,,,,,,,,,,,,,,,,,,,,,,,,,,,,,,,,,,,,,,,,,,,,,,,,,,,,,,,,,,,,,,,,,,,,,,,,,,,,,,,,,,,,,,,,,,,,,,,,,,,,,,,
,,,,,,6151e74c66fb9fb95b2f522e,62c53a5e3d012ff394c79244,2022-07-06_09h36.11.214,Colour_Asymmetry_Pilot,2022.1.3,Win32,59.88741167,62c50e9c1127f2cd403a315f,0,151,151,69,1,threefour,,,,,,,,,,,,,,,,,,,,,,,,,,,,,,,,,,,,,,,,,,,,,,,,,,,,,,,,,,,,,,,,,,,,,,,,,,,,,,,,,,,,,,,,,,,,,,,,,,,,,,,,,,,,,,,,,,,,,,,,,,,,,,,,,,,,,,,,,,,,,,,,,,,,,,,,,,,,,,
,,,,,,6151e74c66fb9fb95b2f522e,62c53a5e3d012ff394c79244,2022-07-06_09h36.11.214,Colour_Asymmetry_Pilot,2022.1.3,Win32,59.88741167,62c50e9c1127f2cd403a315f,0,152,152,84,1,threeone,,,,,,,,,,,,,,,,,,,,,,,,,,,,,,,,,,,,,,,,,,,,,,,,,,,,,,,,,,,,,,,,,,,,,,,,,,,,,,,,,,,,,,,,,,,,,,,,,,,,,,,,,,,,,,,,,,,,,,,,,,,,,,,,,,,,,,,,,,,,,,,,,,,,,,,,,,,,,,
,,,,,,6151e74c66fb9fb95b2f522e,62c53a5e3d012ff394c79244,2022-07-06_09h36.11.214,Colour_Asymmetry_Pilot,2022.1.3,Win32,59.88741167,62c50e9c1127f2cd403a315f,0,153,153,63,1,fourthree,,,,,,,,,,,,,,,,,,,,,,,,,,,,,,,,,,,,,,,,,,,,,,,,,,,,,,,,,,,,,,,,,,,,,,,,,,,,,,,,,,,,,,,,,,,,,,,,,,,,,,,,,,,,,,,,,,,,,,,,,,,,,,,,,,,,,,,,,,,,,,,,,,,,,,,,,,,,,,
,,,,,,6151e74c66fb9fb95b2f522e,62c53a5e3d012ff394c79244,2022-07-06_09h36.11.214,Colour_Asymmetry_Pilot,2022.1.3,Win32,59.88741167,62c50e9c1127f2cd403a315f,0,154,154,94,1,fourtwo,,,,,,,,,,,,,,,,,,,,,,,,,,,,,,,,,,,,,,,,,,,,,,,,,,,,,,,,,,,,,,,,,,,,,,,,,,,,,,,,,,,,,,,,,,,,,,,,,,,,,,,,,,,,,,,,,,,,,,,,,,,,,,,,,,,,,,,,,,,,,,,,,,,,,,,,,,,,,,
,,,,,,6151e74c66fb9fb95b2f522e,62c53a5e3d012ff394c79244,2022-07-06_09h36.11.214,Colour_Asymmetry_Pilot,2022.1.3,Win32,59.88741167,62c50e9c1127f2cd403a315f,0,155,155,30,1,fourtwo,,,,,,,,,,,,,,,,,,,,,,,,,,,,,,,,,,,,,,,,,,,,,,,,,,,,,,,,,,,,,,,,,,,,,,,,,,,,,,,,,,,,,,,,,,,,,,,,,,,,,,,,,,,,,,,,,,,,,,,,,,,,,,,,,,,,,,,,,,,,,,,,,,,,,,,,,,,,,,
,,,,,,6151e74c66fb9fb95b2f522e,62c53a5e3d012ff394c79244,2022-07-06_09h36.11.214,Colour_Asymmetry_Pilot,2022.1.3,Win32,59.88741167,62c50e9c1127f2cd403a315f,0,156,156,54,1,fourtwo,,,,,,,,,,,,,,,,,,,,,,,,,,,,,,,,,,,,,,,,,,,,,,,,,,,,,,,,,,,,,,,,,,,,,,,,,,,,,,,,,,,,,,,,,,,,,,,,,,,,,,,,,,,,,,,,,,,,,,,,,,,,,,,,,,,,,,,,,,,,,,,,,,,,,,,,,,,,,,
,,,,,,6151e74c66fb9fb95b2f522e,62c53a5e3d012ff394c79244,2022-07-06_09h36.11.214,Colour_Asymmetry_Pilot,2022.1.3,Win32,59.88741167,62c50e9c1127f2cd403a315f,0,157,157,112,1,onetwo,,,,,,,,,,,,,,,,,,,,,,,,,,,,,,,,,,,,,,,,,,,,,,,,,,,,,,,,,,,,,,,,,,,,,,,,,,,,,,,,,,,,,,,,,,,,,,,,,,,,,,,,,,,,,,,,,,,,,,,,,,,,,,,,,,,,,,,,,,,,,,,,,,,,,,,,,,,,,,
,,,,,,6151e74c66fb9fb95b2f522e,62c53a5e3d012ff394c79244,2022-07-06_09h36.11.214,Colour_Asymmetry_Pilot,2022.1.3,Win32,59.88741167,62c50e9c1127f2cd403a315f,0,158,158,17,1,onethree,,,,,,,,,,,,,,,,,,,,,,,,,,,,,,,,,,,,,,,,,,,,,,,,,,,,,,,,,,,,,,,,,,,,,,,,,,,,,,,,,,,,,,,,,,,,,,,,,,,,,,,,,,,,,,,,,,,,,,,,,,,,,,,,,,,,,,,,,,,,,,,,,,,,,,,,,,,,,,
,,,,,,6151e74c66fb9fb95b2f522e,62c53a5e3d012ff394c79244,2022-07-06_09h36.11.214,Colour_Asymmetry_Pilot,2022.1.3,Win32,59.88741167,62c50e9c1127f2cd403a315f,0,159,159,130,1,twoone,,,,,,,,,,,,,,,,,,,,,,,,,,,,,,,,,,,,,,,,,,,,,,,,,,,,,,,,,,,,,,,,,,,,,,,,,,,,,,,,,,,,,,,,,,,,,,,,,,,,,,,,,,,,,,,,,,,,,,,,,,,,,,,,,,,,,,,,,,,,,,,,,,,,,,,,,,,,,,
,,,,,,6151e74c66fb9fb95b2f522e,62c53a5e3d012ff394c79244,2022-07-06_09h36.11.214,Colour_Asymmetry_Pilot,2022.1.3,Win32,59.88741167,62c50e9c1127f2cd403a315f,0,160,160,158,1,fourtwo,,,,,,,,,,,,,,,,,,,,,,,,,,,,,,,,,,,,,,,,,,,,,,,,,,,,,,,,,,,,,,,,,,,,,,,,,,,,,,,,,,,,,,,,,,,,,,,,,,,,,,,,,,,,,,,,,,,,,,,,,,,,,,,,,,,,,,,,,,,,,,,,,,,,,,,,,,,,,,
,,,,,,6151e74c66fb9fb95b2f522e,62c53a5e3d012ff394c79244,2022-07-06_09h36.11.214,Colour_Asymmetry_Pilot,2022.1.3,Win32,59.88741167,62c50e9c1127f2cd403a315f,0,161,161,18,1,twoone,,,,,,,,,,,,,,,,,,,,,,,,,,,,,,,,,,,,,,,,,,,,,,,,,,,,,,,,,,,,,,,,,,,,,,,,,,,,,,,,,,,,,,,,,,,,,,,,,,,,,,,,,,,,,,,,,,,,,,,,,,,,,,,,,,,,,,,,,,,,,,,,,,,,,,,,,,,,,,
,,,,,,6151e74c66fb9fb95b2f522e,62c53a5e3d012ff394c79244,2022-07-06_09h36.11.214,Colour_Asymmetry_Pilot,2022.1.3,Win32,59.88741167,62c50e9c1127f2cd403a315f,,,,,,,space,11.3438,space,16.9581,space,59.9623,space,7.1381,space,4.815,space,3.7254,"[0.6625999999999999,0.4980000000000002,-0.357]",threefour,"[0.7646000000000002,0.07440000000000002,0.2704]",-4,12.9228,-52,97,1,0,0,response7disk_5,-10,-7,1,0,0,rectangle_8,52,87,1,0,0,response1disk_7,7,4,9,5,1,0,0,rectangle_4,0,0,0,0,1,,,,,,,,,,,,,,,,,,,,,,,,,,,,,,,,,,,,,,,,,,,,,,,,,,,,,,,,,,,,,,,,,,,,,,,,,,,,,,,,,,,,,,,,,,,,,,,,,,,,,,,,,,,,,,
,,,,,,6151e74c66fb9fb95b2f522e,62c53a5e3d012ff394c79244,2022-07-06_09h36.11.214,Colour_Asymmetry_Pilot,2022.1.3,Win32,59.88741167,62c50e9c1127f2cd403a315f,,,,,,,,,,,,,,,,,,,"[-0.10599999999999998,-0.15300000000000002,0.15280000000000005]",threefour,"[0.9686000000000001,0.3802000000000001,0.19999999999999996]",-4,6.8001,-34,98,1,0,0,response7disk_5,8,3,1,0,0,rectangle_8,8,3,1,0,0,,,4,8,3,1,0,0,,1,0,1,0,1,,,,,,,,,,,,,,,,,,,,,,,,,,,,,,,,,,,,,,,,,,,,,,,,,,,,,,,,,,,,,,,,,,,,,,,,,,,,,,,,,,,,,,,,,,,,,,,,,,,,,,,,,,,,,,
,,,,,,6151e74c66fb9fb95b2f522e,62c53a5e3d012ff394c79244,2022-07-06_09h36.11.214,Colour_Asymmetry_Pilot,2022.1.3,Win32,59.88741167,62c50e9c1127f2cd403a315f,,,,,,,,,,,,,,,,,,,"[0.7802,-0.23140000000000005,-0.20799999999999996]",twofour,"[0.40379999999999994,0.09000000000000008,0.44300000000000006]",2,8.4689,73,-62,1,0,0,response3disk_5,17,2,1,0,0,rectangle_8,17,2,1,0,0,,,4,17,2,1,0,0,,2,0,2,0,1,,,,,,,,,,,,,,,,,,,,,,,,,,,,,,,,,,,,,,,,,,,,,,,,,,,,,,,,,,,,,,,,,,,,,,,,,,,,,,,,,,,,,,,,,,,,,,,,,,,,,,,,,,,,,,
,,,,,,6151e74c66fb9fb95b2f522e,62c53a5e3d012ff394c79244,2022-07-06_09h36.11.214,Colour_Asymmetry_Pilot,2022.1.3,Win32,59.88741167,62c50e9c1127f2cd403a315f,,,,,,,,,,,,,,,,,,,"[-0.011800000000000033,-0.906,-0.45100000000000007]",onetwo,"[0.8115999999999999,-0.0040000000000000036,-0.09819999999999995]",3,7.0536,67,39,1,0,0,response1disk_5,-1,1,1,0,0,rectangle_8,-1,1,1,0,0,,,4,-1,1,1,0,0,,3,0,3,0,1,,,,,,,,,,,,,,,,,,,,,,,,,,,,,,,,,,,,,,,,,,,,,,,,,,,,,,,,,,,,,,,,,,,,,,,,,,,,,,,,,,,,,,,,,,,,,,,,,,,,,,,,,,,,,,
,,,,,,6151e74c66fb9fb95b2f522e,62c53a5e3d012ff394c79244,2022-07-06_09h36.11.214,Colour_Asymmetry_Pilot,2022.1.3,Win32,59.88741167,62c50e9c1127f2cd403a315f,,,,,,,,,,,,,,,,,,,"[-0.06680000000000008,-0.45100000000000007,-0.906]",threefour,"[-0.4276,0.0038000000000000256,-0.3256]",-2,14.9832,-72,-28,1,0,0,response5disk_5,-20,5,1,0,0,rectangle_8,34,61,1,0,0,response1disk_7,7,4,7,9,1,0,0,rectangle_4,4,0,4,0,1,,,,,,,,,,,,,,,,,,,,,,,,,,,,,,,,,,,,,,,,,,,,,,,,,,,,,,,,,,,,,,,,,,,,,,,,,,,,,,,,,,,,,,,,,,,,,,,,,,,,,,,,,,,,,,
,,,,,,6151e74c66fb9fb95b2f522e,62c53a5e3d012ff394c79244,2022-07-06_09h36.11.214,Colour_Asymmetry_Pilot,2022.1.3,Win32,59.88741167,62c50e9c1127f2cd403a315f,,,,,,,,,,,,,,,,,,,"[-0.6942,-0.7648,-0.12959999999999994]",onethree,"[0.9763999999999999,-0.1137999999999999,-0.6314]",-4,1.8299,-27,58,1,0,0,response7disk_5,-19,-5,1,0,0,rectangle_8,-19,-5,1,0,0,,,4,-19,-5,1,0,0,,5,0,5,0,1,,,,,,,,,,,,,,,,,,,,,,,,,,,,,,,,,,,,,,,,,,,,,,,,,,,,,,,,,,,,,,,,,,,,,,,,,,,,,,,,,,,,,,,,,,,,,,,,,,,,,,,,,,,,,,
,,,,,,6151e74c66fb9fb95b2f522e,62c53a5e3d012ff394c79244,2022-07-06_09h36.11.214,Colour_Asymmetry_Pilot,2022.1.3,Win32,59.88741167,62c50e9c1127f2cd403a315f,,,,,,,,,,,,,,,,,,,"[-0.10599999999999998,-0.10599999999999998,0.5841999999999998]",threefour,"[-0.10599999999999998,-0.10599999999999998,0.5841999999999998]",4,3.0828,27,81,1,0,0,response1disk_5,11,-14,1,0,0,rectangle_8,11,-14,1,0,0,,,4,11,-14,1,0,0,,6,0,6,0,1,,,,,,,,,,,,,,,,,,,,,,,,,,,,,,,,,,,,,,,,,,,,,,,,,,,,,,,,,,,,,,,,,,,,,,,,,,,,,,,,,,,,,,,,,,,,,,,,,,,,,,,,,,,,,,
,,,,,,6151e74c66fb9fb95b2f522e,62c53a5e3d012ff394c79244,2022-07-06_09h36.11.214,Colour_Asymmetry_Pilot,2022.1.3,Win32,59.88741167,62c50e9c1127f2cd403a315f,,,,,,,,,,,,,,,,,,,,twofour,,-4,1.7216,,,,,,,,,,,,,,,,,,,,,,,,,,,,,,,,space,3.5388,"[0.23120000000000007,-0.7726,-0.34120000000000006]","[-0.45899999999999996,-0.3256,-0.9374]",-31,83,1,0,0,response7disk,5,3,1,0,0,rectangle,5,3,1,0,0,,3,0.0022,0,5,3,1,0,0,0,0,0,18,1,18,first,,,,,,,,,,,,,,,,,,,,,,,,,,,,,,,,,,,,,,,,,,,,,,,,,,,,,,,,,,,,,,,,,,,,,,,,,
,,,,,,6151e74c66fb9fb95b2f522e,62c53a5e3d012ff394c79244,2022-07-06_09h36.11.214,Colour_Asymmetry_Pilot,2022.1.3,Win32,59.88741167,62c50e9c1127f2cd403a315f,,,,,,,,,,,,,,,,,,,,fourthree,,-4,3.1178,,,,,,,,,,,,,,,,,,,,,,,,,,,,,,,,,,"[-0.4982,-0.2942,-0.0354000000000001]","[-0.011800000000000033,-0.906,-0.45100000000000007]",-30,82,1,0,0,response7disk,-12,-3,1,0,0,rectangle,-12,-3,1,0,0,,1,0.0028,0,-12,-3,1,0,0,0,1,1,100,1,19,second,,,,,,,,,,,,,,,,,,,,,,,,,,,,,,,,,,,,,,,,,,,,,,,,,,,,,,,,,,,,,,,,,,,,,,,,,
,,,,,,6151e74c66fb9fb95b2f522e,62c53a5e3d012ff394c79244,2022-07-06_09h36.11.214,Colour_Asymmetry_Pilot,2022.1.3,Win32,59.88741167,62c50e9c1127f2cd403a315f,,,,,,,,,,,,,,,,,,,,threefour,,-4,2.2832,,,,,,,,,,,,,,,,,,,,,,,,,,,,,,,,,,"[-0.4276,0.0038000000000000256,-0.3256]","[0.9686000000000001,0.5763999999999998,0.11359999999999992]",-38,68,1,0,0,response7disk,-19,-3,1,0,0,rectangle,-19,-3,1,0,0,,1,0.0002,0,-19,-3,1,0,0,0,2,2,33,1,33,first,,,,,,,,,,,,,,,,,,,,,,,,,,,,,,,,,,,,,,,,,,,,,,,,,,,,,,,,,,,,,,,,,,,,,,,,,
,,,,,,6151e74c66fb9fb95b2f522e,62c53a5e3d012ff394c79244,2022-07-06_09h36.11.214,Colour_Asymmetry_Pilot,2022.1.3,Win32,59.88741167,62c50e9c1127f2cd403a315f,,,,,,,,,,,,,,,,,,,,onethree,,3,1.9186,,,,,,,,,,,,,,,,,,,,,,,,,,,,,,,,,,"[0.37240000000000006,0.4980000000000002,-0.2864]","[0.9842,0.7409999999999999,-0.6628000000000001]",59,28,1,0,0,response1disk,25,8,1,0,0,rectangle,25,8,1,0,0,,1,0.0003,0,25,8,1,0,0,0,3,3,82,1,1,second,,,,,,,,,,,,,,,,,,,,,,,,,,,,,,,,,,,,,,,,,,,,,,,,,,,,,,,,,,,,,,,,,,,,,,,,,
,,,,,,6151e74c66fb9fb95b2f522e,62c53a5e3d012ff394c79244,2022-07-06_09h36.11.214,Colour_Asymmetry_Pilot,2022.1.3,Win32,59.88741167,62c50e9c1127f2cd403a315f,,,,,,,,,,,,,,,,,,,,threeone,,-4,2.4376,,,,,,,,,,,,,,,,,,,,,,,,,,,,,,,,,,"[-0.9688,-0.38039999999999996,-0.41979999999999995]","[0.796,0.2156,-0.27859999999999996]",-30,74,1,0,0,response7disk,-8,-4,1,0,0,rectangle,-8,-4,1,0,0,,1,0.0003,0,-8,-4,1,0,0,0,4,4,47,1,47,first,,,,,,,,,,,,,,,,,,,,,,,,,,,,,,,,,,,,,,,,,,,,,,,,,,,,,,,,,,,,,,,,,,,,,,,,,
,,,,,,6151e74c66fb9fb95b2f522e,62c53a5e3d012ff394c79244,2022-07-06_09h36.11.214,Colour_Asymmetry_Pilot,2022.1.3,Win32,59.88741167,62c50e9c1127f2cd403a315f,,,,,,,,,,,,,,,,,,,,threefour,,-2,5.8891,,,,,,,,,,,,,,,,,,,,,,,,,,,,,,,,,,"[-0.9296,-0.12959999999999994,-0.043199999999999905]","[-0.8198,-0.5138,-0.7492000000000001]",-58,-29,1,0,0,response5disk,-20,1,1,0,0,rectangle,-20,1,1,0,0,,1,0.0004,0,-20,1,1,0,0,0,5,5,14,1,14,first,,,,,,,,,,,,,,,,,,,,,,,,,,,,,,,,,,,,,,,,,,,,,,,,,,,,,,,,,,,,,,,,,,,,,,,,,
,,,,,,6151e74c66fb9fb95b2f522e,62c53a5e3d012ff394c79244,2022-07-06_09h36.11.214,Colour_Asymmetry_Pilot,2022.1.3,Win32,59.88741167,62c50e9c1127f2cd403a315f,,,,,,,,,,,,,,,,,,,,threefour,,-4,2.3344,,,,,,,,,,,,,,,,,,,,,,,,,,,,,,,,,,"[0.9686000000000001,0.3802000000000001,0.19999999999999996]","[0.9213999999999998,0.6391999999999998,-0.9922]",-40,67,1,0,0,response7disk,-23,7,1,0,0,rectangle,-23,7,1,0,0,,2,0.0021,0,-23,7,1,0,0,0,6,6,59,1,59,first,,,,,,,,,,,,,,,,,,,,,,,,,,,,,,,,,,,,,,,,,,,,,,,,,,,,,,,,,,,,,,,,,,,,,,,,,
,,,,,,6151e74c66fb9fb95b2f522e,62c53a5e3d012ff394c79244,2022-07-06_09h36.11.214,Colour_Asymmetry_Pilot,2022.1.3,Win32,59.88741167,62c50e9c1127f2cd403a315f,,,,,,,,,,,,,,,,,,,,threeone,,-4,1.4516,,,,,,,,,,,,,,,,,,,,,,,,,,,,,,,,,,"[-0.17659999999999998,0.3253999999999999,0.19999999999999996]","[1,0.12939999999999996,-1]",-29,38,1,0,0,response7disk,-27,-5,1,0,0,rectangle,-27,-5,1,0,0,,2,0.0003,0,-27,-5,1,0,0,0,7,7,68,1,68,first,,,,,,,,,,,,,,,,,,,,,,,,,,,,,,,,,,,,,,,,,,,,,,,,,,,,,,,,,,,,,,,,,,,,,,,,,
,,,,,,6151e74c66fb9fb95b2f522e,62c53a5e3d012ff394c79244,2022-07-06_09h36.11.214,Colour_Asymmetry_Pilot,2022.1.3,Win32,59.88741167,62c50e9c1127f2cd403a315f,,,,,,,,,,,,,,,,,,,,twoone,,-4,1.2223,,,,,,,,,,,,,,,,,,,,,,,,,,,,,,,,,,"[0.23920000000000008,0.2704,0.16060000000000008]","[0.9372,0.20779999999999998,0.2704]",-40,57,1,0,0,response7disk,-27,3,1,0,0,rectangle,-27,3,1,0,0,,2,1E-04,0,-27,3,1,0,0,0,8,8,32,1,32,first,,,,,,,,,,,,,,,,,,,,,,,,,,,,,,,,,,,,,,,,,,,,,,,,,,,,,,,,,,,,,,,,,,,,,,,,,
,,,,,,6151e74c66fb9fb95b2f522e,62c53a5e3d012ff394c79244,2022-07-06_09h36.11.214,Colour_Asymmetry_Pilot,2022.1.3,Win32,59.88741167,62c50e9c1127f2cd403a315f,,,,,,,,,,,,,,,,,,,,twoone,,-4,0.9356,,,,,,,,,,,,,,,,,,,,,,,,,,,,,,,,,,"[-0.011800000000000033,-0.906,-0.45100000000000007]","[-0.10599999999999998,-0.10599999999999998,0.5841999999999998]",-52,79,1,0,0,response7disk,-22,-6,1,0,0,rectangle,-22,-6,1,0,0,,3,0.001,0,-22,-6,1,0,0,0,9,9,37,1,37,first,,,,,,,,,,,,,,,,,,,,,,,,,,,,,,,,,,,,,,,,,,,,,,,,,,,,,,,,,,,,,,,,,,,,,,,,,
,,,,,,6151e74c66fb9fb95b2f522e,62c53a5e3d012ff394c79244,2022-07-06_09h36.11.214,Colour_Asymmetry_Pilot,2022.1.3,Win32,59.88741167,62c50e9c1127f2cd403a315f,,,,,,,,,,,,,,,,,,,,threefour,,-4,1.3166,,,,,,,,,,,,,,,,,,,,,,,,,,,,,,,,,,"[0.23120000000000007,-0.7726,-0.34120000000000006]","[0.3802000000000001,0.19199999999999995,-0.6394]",-37,65,1,0,0,response7disk,-21,8,1,0,0,rectangle,-21,8,1,0,0,,2,0.0018,0,-21,8,1,0,0,0,10,10,53,1,53,first,,,,,,,,,,,,,,,,,,,,,,,,,,,,,,,,,,,,,,,,,,,,,,,,,,,,,,,,,,,,,,,,,,,,,,,,,
,,,,,,6151e74c66fb9fb95b2f522e,62c53a5e3d012ff394c79244,2022-07-06_09h36.11.214,Colour_Asymmetry_Pilot,2022.1.3,Win32,59.88741167,62c50e9c1127f2cd403a315f,,,,,,,,,,,,,,,,,,,,fourtwo,,1,7.0879,,,,,,,,,,,,,,,,,,,,,,,,,,,,,,,,,,"[-0.9844,-0.9688,-0.9922]","[-0.4668,-0.8746,-0.2942]",43,-80,1,0,0,response3disk,11,0,1,0,0,rectangle,11,0,1,0,0,,1,0.0019,0,11,0,1,0,0,0,11,11,24,1,24,first,,,,,,,,,,,,,,,,,,,,,,,,,,,,,,,,,,,,,,,,,,,,,,,,,,,,,,,,,,,,,,,,,,,,,,,,,
,,,,,,6151e74c66fb9fb95b2f522e,62c53a5e3d012ff394c79244,2022-07-06_09h36.11.214,Colour_Asymmetry_Pilot,2022.1.3,Win32,59.88741167,62c50e9c1127f2cd403a315f,,,,,,,,,,,,,,,,,,,,threeone,,-4,4.4515,,,,,,,,,,,,,,,,,,,,,,,,,,,,,,,,,,"[0.4196,0.4665999999999999,0.3568]","[-0.24719999999999998,0.5213999999999999,-0.12959999999999994]",-37,101,1,0,0,response7disk,10,-4,1,0,0,rectangle,65,-34,1,0,0,2,2,3.193,1,17,-4,1,0,0,0,12,12,161,1,80,second,response3disk_3,rectangle,,,,,,,,,,,,,,,,,,,,,,,,,,,,,,,,,,,,,,,,,,,,,,,,,,,,,,,,,,,,,,,,,,,,,,,
,,,,,,6151e74c66fb9fb95b2f522e,62c53a5e3d012ff394c79244,2022-07-06_09h36.11.214,Colour_Asymmetry_Pilot,2022.1.3,Win32,59.88741167,62c50e9c1127f2cd403a315f,,,,,,,,,,,,,,,,,,,,twofour,,-1,4.117,,,,,,,,,,,,,,,,,,,,,,,,,,,,,,,,,,"[-0.4982,-0.2942,-0.0354000000000001]","[-0.34920000000000007,-0.702,-0.5216]",-58,-71,1,0,0,response5disk,11,2,1,0,0,rectangle,11,2,1,0,0,2,1,0.0013,0,11,2,1,0,0,0,13,13,137,1,56,second,,,,,,,,,,,,,,,,,,,,,,,,,,,,,,,,,,,,,,,,,,,,,,,,,,,,,,,,,,,,,,,,,,,,,,,,,
,,,,,,6151e74c66fb9fb95b2f522e,62c53a5e3d012ff394c79244,2022-07-06_09h36.11.214,Colour_Asymmetry_Pilot,2022.1.3,Win32,59.88741167,62c50e9c1127f2cd403a315f,,,,,,,,,,,,,,,,,,,,fourtwo,,-1,0.867,,,,,,,,,,,,,,,,,,,,,,,,,,,,,,,,,,"[0.23120000000000007,-0.7726,-0.34120000000000006]","[-0.07459999999999989,0.12139999999999995,-0.9922]",-32,-83,1,0,0,response5disk,-4,2,1,0,0,rectangle,-4,2,1,0,0,2,2,0.0022,0,-4,2,1,0,0,0,14,14,62,1,62,first,,,,,,,,,,,,,,,,,,,,,,,,,,,,,,,,,,,,,,,,,,,,,,,,,,,,,,,,,,,,,,,,,,,,,,,,,
,,,,,,6151e74c66fb9fb95b2f522e,62c53a5e3d012ff394c79244,2022-07-06_09h36.11.214,Colour_Asymmetry_Pilot,2022.1.3,Win32,59.88741167,62c50e9c1127f2cd403a315f,,,,,,,,,,,,,,,,,,,,fourthree,,1,4.8497,,,,,,,,,,,,,,,,,,,,,,,,,,,,,,,,,,"[1,0.12939999999999996,-1]","[0.30180000000000007,-0.7884,-0.9844]",42,-65,1,0,0,response3disk,23,-1,1,0,0,rectangle,23,-1,1,0,0,2,3,0.0018,0,23,-1,1,0,0,0,15,15,81,1,0,second,,,,,,,,,,,,,,,,,,,,,,,,,,,,,,,,,,,,,,,,,,,,,,,,,,,,,,,,,,,,,,,,,,,,,,,,,
,,,,,,6151e74c66fb9fb95b2f522e,62c53a5e3d012ff394c79244,2022-07-06_09h36.11.214,Colour_Asymmetry_Pilot,2022.1.3,Win32,59.88741167,62c50e9c1127f2cd403a315f,,,,,,,,,,,,,,,,,,,,onethree,,-4,2.2831,,,,,,,,,,,,,,,,,,,,,,,,,,,,,,,,,,"[0.23920000000000008,0.2704,0.16060000000000008]","[-0.10599999999999998,-0.10599999999999998,0.5841999999999998]",-27,90,1,0,0,response7disk,21,8,1,0,0,rectangle,21,8,1,0,0,2,3,0.0004,0,21,8,1,0,0,0,16,16,8,1,8,first,,,,,,,,,,,,,,,,,,,,,,,,,,,,,,,,,,,,,,,,,,,,,,,,,,,,,,,,,,,,,,,,,,,,,,,,,
