trials.thisRepN,trials.thisTrialN,trials.thisN,trials.thisIndex,trials.ran,Colourcodes,participant,session,date,expName,psychopyVersion,OS,frameRate,study_id,trials_4.thisRepN,trials_4.thisTrialN,trials_4.thisN,trials_4.thisIndex,trials_4.ran,StimulusPos,key_resp.keys,key_resp.rt,key_resp_2.keys,key_resp_2.rt,key_resp_15.keys,key_resp_15.rt,key_resp_17.keys,key_resp_17.rt,key_resp_9.keys,key_resp_9.rt,key_resp_10.keys,key_resp_10.rt,Circle1_col,Ecc,Circle2_col,similarity,response_time,mouse_5.x,mouse_5.y,mouse_5.leftButton,mouse_5.midButton,mouse_5.rightButton,mouse_5.clicked_name,mouse_10.x,mouse_10.y,mouse_10.leftButton,mouse_10.midButton,mouse_10.rightButton,mouse_10.clicked_name,mouse_7.x,mouse_7.y,mouse_7.leftButton,mouse_7.midButton,mouse_7.rightButton,catchnumberprac,mouse_6.x,mouse_6.y,mouse_6.leftButton,mouse_6.midButton,mouse_6.rightButton,duringprac.thisRepN,duringprac.thisTrialN,duringprac.thisN,duringprac.thisIndex,duringprac.ran,mouse_7.clicked_name,catchprac,mouse_6.clicked_name,key_resp_22.keys,key_resp_22.rt,Circle1_colour,Circle2_colour,mouse.x,mouse.y,mouse.leftButton,mouse.midButton,mouse.rightButton,mouse.clicked_name,mouse_2.x,mouse_2.y,mouse_2.leftButton,mouse_2.midButton,mouse_2.rightButton,mouse_2.clicked_name,mouse_3.x,mouse_3.y,mouse_3.leftButton,mouse_3.midButton,mouse_3.rightButton,catchresponse,catchnumber,response_time_catch,Catch,mouse_11.x,mouse_11.y,mouse_11.leftButton,mouse_11.midButton,mouse_11.rightButton,trials_2.thisRepN,trials_2.thisTrialN,trials_2.thisN,trials_2.thisIndex,trials_2.ran,Colourpair,Temporder,mouse_3.clicked_name,mouse_11.clicked_name,trials_3.thisRepN,trials_3.thisTrialN,trials_3.thisN,trials_3.thisIndex,trials_3.ran,key_resp_instr_Ishi.keys,key_resp_instr_Ishi.rt,Ishi_trial_keyresp.keys,Ishi_textbox.text,Ishi_mouse.x,Ishi_mouse.y,Ishi_mouse.leftButton,Ishi_mouse.midButton,Ishi_mouse.rightButton,Ishi_mouse.clicked_name,Ishi_loop.thisRepN,Ishi_loop.thisTrialN,Ishi_loop.thisN,Ishi_loop.thisIndex,Ishi_loop.ran,imageaddress,textbox.text,mouse_4.x,mouse_4.y,mouse_4.leftButton,mouse_4.midButton,mouse_4.rightButton,mouse_4.clicked_name,textbox_2.text,mouse_8.x,mouse_8.y,mouse_8.leftButton,mouse_8.midButton,mouse_8.rightButton,mouse_8.clicked_name,textbox_3.text,mouse_9.x,mouse_9.y,mouse_9.leftButton,mouse_9.midButton,mouse_9.rightButton,mouse_9.clicked_name,textbox_4.text,mouse_12.x,mouse_12.y,mouse_12.leftButton,mouse_12.midButton,mouse_12.rightButton,mouse_12.clicked_name,textbox_5.text,mouse_13.x,mouse_13.y,mouse_13.leftButton,mouse_13.midButton,mouse_13.rightButton,mouse_13.clicked_name,textbox_6.text,mouse_14.x,mouse_14.y,mouse_14.leftButton,mouse_14.midButton,mouse_14.rightButton,mouse_14.clicked_name,textbox_7.text,mouse_15.x,mouse_15.y,mouse_15.leftButton,mouse_15.midButton,mouse_15.rightButton,mouse_15.clicked_name
0,0,0,50,1,,6130d9dc1ffddcec1e925b4b,62c539a0b694e094fca2e558,2022-07-06_09h36.59.648,Colour_Asymmetry_Pilot,2022.1.3,Win32,31.99897603,62c50e9c1127f2cd403a315f,,,,,,,,,,,,,,,,,,,,,,,,,,,,,,,,,,,,,,,,,,,,,,,,,,,,,,,,,,,,,,,,,,,,,,,,,,,,,,,,,,,,,,,,,,,,,,,,,,,,,,,,,,,,,,,,,,,,,,,,,,,,,,,,,,,,,,,,,,,,,,,,,,,,,,,,,,,,,,,,,,,
0,1,1,54,1,,6130d9dc1ffddcec1e925b4b,62c539a0b694e094fca2e558,2022-07-06_09h36.59.648,Colour_Asymmetry_Pilot,2022.1.3,Win32,31.99897603,62c50e9c1127f2cd403a315f,,,,,,,,,,,,,,,,,,,,,,,,,,,,,,,,,,,,,,,,,,,,,,,,,,,,,,,,,,,,,,,,,,,,,,,,,,,,,,,,,,,,,,,,,,,,,,,,,,,,,,,,,,,,,,,,,,,,,,,,,,,,,,,,,,,,,,,,,,,,,,,,,,,,,,,,,,,,,,,,,,,
0,2,2,4,1,,6130d9dc1ffddcec1e925b4b,62c539a0b694e094fca2e558,2022-07-06_09h36.59.648,Colour_Asymmetry_Pilot,2022.1.3,Win32,31.99897603,62c50e9c1127f2cd403a315f,,,,,,,,,,,,,,,,,,,,,,,,,,,,,,,,,,,,,,,,,,,,,,,,,,,,,,,,,,,,,,,,,,,,,,,,,,,,,,,,,,,,,,,,,,,,,,,,,,,,,,,,,,,,,,,,,,,,,,,,,,,,,,,,,,,,,,,,,,,,,,,,,,,,,,,,,,,,,,,,,,,
0,3,3,63,1,,6130d9dc1ffddcec1e925b4b,62c539a0b694e094fca2e558,2022-07-06_09h36.59.648,Colour_Asymmetry_Pilot,2022.1.3,Win32,31.99897603,62c50e9c1127f2cd403a315f,,,,,,,,,,,,,,,,,,,,,,,,,,,,,,,,,,,,,,,,,,,,,,,,,,,,,,,,,,,,,,,,,,,,,,,,,,,,,,,,,,,,,,,,,,,,,,,,,,,,,,,,,,,,,,,,,,,,,,,,,,,,,,,,,,,,,,,,,,,,,,,,,,,,,,,,,,,,,,,,,,,
0,4,4,53,1,,6130d9dc1ffddcec1e925b4b,62c539a0b694e094fca2e558,2022-07-06_09h36.59.648,Colour_Asymmetry_Pilot,2022.1.3,Win32,31.99897603,62c50e9c1127f2cd403a315f,,,,,,,,,,,,,,,,,,,,,,,,,,,,,,,,,,,,,,,,,,,,,,,,,,,,,,,,,,,,,,,,,,,,,,,,,,,,,,,,,,,,,,,,,,,,,,,,,,,,,,,,,,,,,,,,,,,,,,,,,,,,,,,,,,,,,,,,,,,,,,,,,,,,,,,,,,,,,,,,,,,
0,5,5,12,1,,6130d9dc1ffddcec1e925b4b,62c539a0b694e094fca2e558,2022-07-06_09h36.59.648,Colour_Asymmetry_Pilot,2022.1.3,Win32,31.99897603,62c50e9c1127f2cd403a315f,,,,,,,,,,,,,,,,,,,,,,,,,,,,,,,,,,,,,,,,,,,,,,,,,,,,,,,,,,,,,,,,,,,,,,,,,,,,,,,,,,,,,,,,,,,,,,,,,,,,,,,,,,,,,,,,,,,,,,,,,,,,,,,,,,,,,,,,,,,,,,,,,,,,,,,,,,,,,,,,,,,
0,6,6,5,1,,6130d9dc1ffddcec1e925b4b,62c539a0b694e094fca2e558,2022-07-06_09h36.59.648,Colour_Asymmetry_Pilot,2022.1.3,Win32,31.99897603,62c50e9c1127f2cd403a315f,,,,,,,,,,,,,,,,,,,,,,,,,,,,,,,,,,,,,,,,,,,,,,,,,,,,,,,,,,,,,,,,,,,,,,,,,,,,,,,,,,,,,,,,,,,,,,,,,,,,,,,,,,,,,,,,,,,,,,,,,,,,,,,,,,,,,,,,,,,,,,,,,,,,,,,,,,,,,,,,,,,
0,7,7,32,1,,6130d9dc1ffddcec1e925b4b,62c539a0b694e094fca2e558,2022-07-06_09h36.59.648,Colour_Asymmetry_Pilot,2022.1.3,Win32,31.99897603,62c50e9c1127f2cd403a315f,,,,,,,,,,,,,,,,,,,,,,,,,,,,,,,,,,,,,,,,,,,,,,,,,,,,,,,,,,,,,,,,,,,,,,,,,,,,,,,,,,,,,,,,,,,,,,,,,,,,,,,,,,,,,,,,,,,,,,,,,,,,,,,,,,,,,,,,,,,,,,,,,,,,,,,,,,,,,,,,,,,
0,8,8,10,1,,6130d9dc1ffddcec1e925b4b,62c539a0b694e094fca2e558,2022-07-06_09h36.59.648,Colour_Asymmetry_Pilot,2022.1.3,Win32,31.99897603,62c50e9c1127f2cd403a315f,,,,,,,,,,,,,,,,,,,,,,,,,,,,,,,,,,,,,,,,,,,,,,,,,,,,,,,,,,,,,,,,,,,,,,,,,,,,,,,,,,,,,,,,,,,,,,,,,,,,,,,,,,,,,,,,,,,,,,,,,,,,,,,,,,,,,,,,,,,,,,,,,,,,,,,,,,,,,,,,,,,
0,9,9,38,1,,6130d9dc1ffddcec1e925b4b,62c539a0b694e094fca2e558,2022-07-06_09h36.59.648,Colour_Asymmetry_Pilot,2022.1.3,Win32,31.99897603,62c50e9c1127f2cd403a315f,,,,,,,,,,,,,,,,,,,,,,,,,,,,,,,,,,,,,,,,,,,,,,,,,,,,,,,,,,,,,,,,,,,,,,,,,,,,,,,,,,,,,,,,,,,,,,,,,,,,,,,,,,,,,,,,,,,,,,,,,,,,,,,,,,,,,,,,,,,,,,,,,,,,,,,,,,,,,,,,,,,
0,10,10,86,1,,6130d9dc1ffddcec1e925b4b,62c539a0b694e094fca2e558,2022-07-06_09h36.59.648,Colour_Asymmetry_Pilot,2022.1.3,Win32,31.99897603,62c50e9c1127f2cd403a315f,,,,,,,,,,,,,,,,,,,,,,,,,,,,,,,,,,,,,,,,,,,,,,,,,,,,,,,,,,,,,,,,,,,,,,,,,,,,,,,,,,,,,,,,,,,,,,,,,,,,,,,,,,,,,,,,,,,,,,,,,,,,,,,,,,,,,,,,,,,,,,,,,,,,,,,,,,,,,,,,,,,
0,11,11,82,1,,6130d9dc1ffddcec1e925b4b,62c539a0b694e094fca2e558,2022-07-06_09h36.59.648,Colour_Asymmetry_Pilot,2022.1.3,Win32,31.99897603,62c50e9c1127f2cd403a315f,,,,,,,,,,,,,,,,,,,,,,,,,,,,,,,,,,,,,,,,,,,,,,,,,,,,,,,,,,,,,,,,,,,,,,,,,,,,,,,,,,,,,,,,,,,,,,,,,,,,,,,,,,,,,,,,,,,,,,,,,,,,,,,,,,,,,,,,,,,,,,,,,,,,,,,,,,,,,,,,,,,
0,12,12,27,1,,6130d9dc1ffddcec1e925b4b,62c539a0b694e094fca2e558,2022-07-06_09h36.59.648,Colour_Asymmetry_Pilot,2022.1.3,Win32,31.99897603,62c50e9c1127f2cd403a315f,,,,,,,,,,,,,,,,,,,,,,,,,,,,,,,,,,,,,,,,,,,,,,,,,,,,,,,,,,,,,,,,,,,,,,,,,,,,,,,,,,,,,,,,,,,,,,,,,,,,,,,,,,,,,,,,,,,,,,,,,,,,,,,,,,,,,,,,,,,,,,,,,,,,,,,,,,,,,,,,,,,
0,13,13,92,1,,6130d9dc1ffddcec1e925b4b,62c539a0b694e094fca2e558,2022-07-06_09h36.59.648,Colour_Asymmetry_Pilot,2022.1.3,Win32,31.99897603,62c50e9c1127f2cd403a315f,,,,,,,,,,,,,,,,,,,,,,,,,,,,,,,,,,,,,,,,,,,,,,,,,,,,,,,,,,,,,,,,,,,,,,,,,,,,,,,,,,,,,,,,,,,,,,,,,,,,,,,,,,,,,,,,,,,,,,,,,,,,,,,,,,,,,,,,,,,,,,,,,,,,,,,,,,,,,,,,,,,
0,14,14,18,1,,6130d9dc1ffddcec1e925b4b,62c539a0b694e094fca2e558,2022-07-06_09h36.59.648,Colour_Asymmetry_Pilot,2022.1.3,Win32,31.99897603,62c50e9c1127f2cd403a315f,,,,,,,,,,,,,,,,,,,,,,,,,,,,,,,,,,,,,,,,,,,,,,,,,,,,,,,,,,,,,,,,,,,,,,,,,,,,,,,,,,,,,,,,,,,,,,,,,,,,,,,,,,,,,,,,,,,,,,,,,,,,,,,,,,,,,,,,,,,,,,,,,,,,,,,,,,,,,,,,,,,
0,15,15,6,1,,6130d9dc1ffddcec1e925b4b,62c539a0b694e094fca2e558,2022-07-06_09h36.59.648,Colour_Asymmetry_Pilot,2022.1.3,Win32,31.99897603,62c50e9c1127f2cd403a315f,,,,,,,,,,,,,,,,,,,,,,,,,,,,,,,,,,,,,,,,,,,,,,,,,,,,,,,,,,,,,,,,,,,,,,,,,,,,,,,,,,,,,,,,,,,,,,,,,,,,,,,,,,,,,,,,,,,,,,,,,,,,,,,,,,,,,,,,,,,,,,,,,,,,,,,,,,,,,,,,,,,
0,16,16,77,1,,6130d9dc1ffddcec1e925b4b,62c539a0b694e094fca2e558,2022-07-06_09h36.59.648,Colour_Asymmetry_Pilot,2022.1.3,Win32,31.99897603,62c50e9c1127f2cd403a315f,,,,,,,,,,,,,,,,,,,,,,,,,,,,,,,,,,,,,,,,,,,,,,,,,,,,,,,,,,,,,,,,,,,,,,,,,,,,,,,,,,,,,,,,,,,,,,,,,,,,,,,,,,,,,,,,,,,,,,,,,,,,,,,,,,,,,,,,,,,,,,,,,,,,,,,,,,,,,,,,,,,
0,17,17,61,1,,6130d9dc1ffddcec1e925b4b,62c539a0b694e094fca2e558,2022-07-06_09h36.59.648,Colour_Asymmetry_Pilot,2022.1.3,Win32,31.99897603,62c50e9c1127f2cd403a315f,,,,,,,,,,,,,,,,,,,,,,,,,,,,,,,,,,,,,,,,,,,,,,,,,,,,,,,,,,,,,,,,,,,,,,,,,,,,,,,,,,,,,,,,,,,,,,,,,,,,,,,,,,,,,,,,,,,,,,,,,,,,,,,,,,,,,,,,,,,,,,,,,,,,,,,,,,,,,,,,,,,
0,18,18,44,1,,6130d9dc1ffddcec1e925b4b,62c539a0b694e094fca2e558,2022-07-06_09h36.59.648,Colour_Asymmetry_Pilot,2022.1.3,Win32,31.99897603,62c50e9c1127f2cd403a315f,,,,,,,,,,,,,,,,,,,,,,,,,,,,,,,,,,,,,,,,,,,,,,,,,,,,,,,,,,,,,,,,,,,,,,,,,,,,,,,,,,,,,,,,,,,,,,,,,,,,,,,,,,,,,,,,,,,,,,,,,,,,,,,,,,,,,,,,,,,,,,,,,,,,,,,,,,,,,,,,,,,
0,19,19,58,1,,6130d9dc1ffddcec1e925b4b,62c539a0b694e094fca2e558,2022-07-06_09h36.59.648,Colour_Asymmetry_Pilot,2022.1.3,Win32,31.99897603,62c50e9c1127f2cd403a315f,,,,,,,,,,,,,,,,,,,,,,,,,,,,,,,,,,,,,,,,,,,,,,,,,,,,,,,,,,,,,,,,,,,,,,,,,,,,,,,,,,,,,,,,,,,,,,,,,,,,,,,,,,,,,,,,,,,,,,,,,,,,,,,,,,,,,,,,,,,,,,,,,,,,,,,,,,,,,,,,,,,
0,20,20,13,1,,6130d9dc1ffddcec1e925b4b,62c539a0b694e094fca2e558,2022-07-06_09h36.59.648,Colour_Asymmetry_Pilot,2022.1.3,Win32,31.99897603,62c50e9c1127f2cd403a315f,,,,,,,,,,,,,,,,,,,,,,,,,,,,,,,,,,,,,,,,,,,,,,,,,,,,,,,,,,,,,,,,,,,,,,,,,,,,,,,,,,,,,,,,,,,,,,,,,,,,,,,,,,,,,,,,,,,,,,,,,,,,,,,,,,,,,,,,,,,,,,,,,,,,,,,,,,,,,,,,,,,
0,21,21,26,1,,6130d9dc1ffddcec1e925b4b,62c539a0b694e094fca2e558,2022-07-06_09h36.59.648,Colour_Asymmetry_Pilot,2022.1.3,Win32,31.99897603,62c50e9c1127f2cd403a315f,,,,,,,,,,,,,,,,,,,,,,,,,,,,,,,,,,,,,,,,,,,,,,,,,,,,,,,,,,,,,,,,,,,,,,,,,,,,,,,,,,,,,,,,,,,,,,,,,,,,,,,,,,,,,,,,,,,,,,,,,,,,,,,,,,,,,,,,,,,,,,,,,,,,,,,,,,,,,,,,,,,
0,22,22,84,1,,6130d9dc1ffddcec1e925b4b,62c539a0b694e094fca2e558,2022-07-06_09h36.59.648,Colour_Asymmetry_Pilot,2022.1.3,Win32,31.99897603,62c50e9c1127f2cd403a315f,,,,,,,,,,,,,,,,,,,,,,,,,,,,,,,,,,,,,,,,,,,,,,,,,,,,,,,,,,,,,,,,,,,,,,,,,,,,,,,,,,,,,,,,,,,,,,,,,,,,,,,,,,,,,,,,,,,,,,,,,,,,,,,,,,,,,,,,,,,,,,,,,,,,,,,,,,,,,,,,,,,
0,23,23,70,1,,6130d9dc1ffddcec1e925b4b,62c539a0b694e094fca2e558,2022-07-06_09h36.59.648,Colour_Asymmetry_Pilot,2022.1.3,Win32,31.99897603,62c50e9c1127f2cd403a315f,,,,,,,,,,,,,,,,,,,,,,,,,,,,,,,,,,,,,,,,,,,,,,,,,,,,,,,,,,,,,,,,,,,,,,,,,,,,,,,,,,,,,,,,,,,,,,,,,,,,,,,,,,,,,,,,,,,,,,,,,,,,,,,,,,,,,,,,,,,,,,,,,,,,,,,,,,,,,,,,,,,
0,24,24,11,1,,6130d9dc1ffddcec1e925b4b,62c539a0b694e094fca2e558,2022-07-06_09h36.59.648,Colour_Asymmetry_Pilot,2022.1.3,Win32,31.99897603,62c50e9c1127f2cd403a315f,,,,,,,,,,,,,,,,,,,,,,,,,,,,,,,,,,,,,,,,,,,,,,,,,,,,,,,,,,,,,,,,,,,,,,,,,,,,,,,,,,,,,,,,,,,,,,,,,,,,,,,,,,,,,,,,,,,,,,,,,,,,,,,,,,,,,,,,,,,,,,,,,,,,,,,,,,,,,,,,,,,
0,25,25,71,1,,6130d9dc1ffddcec1e925b4b,62c539a0b694e094fca2e558,2022-07-06_09h36.59.648,Colour_Asymmetry_Pilot,2022.1.3,Win32,31.99897603,62c50e9c1127f2cd403a315f,,,,,,,,,,,,,,,,,,,,,,,,,,,,,,,,,,,,,,,,,,,,,,,,,,,,,,,,,,,,,,,,,,,,,,,,,,,,,,,,,,,,,,,,,,,,,,,,,,,,,,,,,,,,,,,,,,,,,,,,,,,,,,,,,,,,,,,,,,,,,,,,,,,,,,,,,,,,,,,,,,,
0,26,26,31,1,,6130d9dc1ffddcec1e925b4b,62c539a0b694e094fca2e558,2022-07-06_09h36.59.648,Colour_Asymmetry_Pilot,2022.1.3,Win32,31.99897603,62c50e9c1127f2cd403a315f,,,,,,,,,,,,,,,,,,,,,,,,,,,,,,,,,,,,,,,,,,,,,,,,,,,,,,,,,,,,,,,,,,,,,,,,,,,,,,,,,,,,,,,,,,,,,,,,,,,,,,,,,,,,,,,,,,,,,,,,,,,,,,,,,,,,,,,,,,,,,,,,,,,,,,,,,,,,,,,,,,,
0,27,27,16,1,,6130d9dc1ffddcec1e925b4b,62c539a0b694e094fca2e558,2022-07-06_09h36.59.648,Colour_Asymmetry_Pilot,2022.1.3,Win32,31.99897603,62c50e9c1127f2cd403a315f,,,,,,,,,,,,,,,,,,,,,,,,,,,,,,,,,,,,,,,,,,,,,,,,,,,,,,,,,,,,,,,,,,,,,,,,,,,,,,,,,,,,,,,,,,,,,,,,,,,,,,,,,,,,,,,,,,,,,,,,,,,,,,,,,,,,,,,,,,,,,,,,,,,,,,,,,,,,,,,,,,,
0,28,28,42,1,,6130d9dc1ffddcec1e925b4b,62c539a0b694e094fca2e558,2022-07-06_09h36.59.648,Colour_Asymmetry_Pilot,2022.1.3,Win32,31.99897603,62c50e9c1127f2cd403a315f,,,,,,,,,,,,,,,,,,,,,,,,,,,,,,,,,,,,,,,,,,,,,,,,,,,,,,,,,,,,,,,,,,,,,,,,,,,,,,,,,,,,,,,,,,,,,,,,,,,,,,,,,,,,,,,,,,,,,,,,,,,,,,,,,,,,,,,,,,,,,,,,,,,,,,,,,,,,,,,,,,,
0,29,29,21,1,,6130d9dc1ffddcec1e925b4b,62c539a0b694e094fca2e558,2022-07-06_09h36.59.648,Colour_Asymmetry_Pilot,2022.1.3,Win32,31.99897603,62c50e9c1127f2cd403a315f,,,,,,,,,,,,,,,,,,,,,,,,,,,,,,,,,,,,,,,,,,,,,,,,,,,,,,,,,,,,,,,,,,,,,,,,,,,,,,,,,,,,,,,,,,,,,,,,,,,,,,,,,,,,,,,,,,,,,,,,,,,,,,,,,,,,,,,,,,,,,,,,,,,,,,,,,,,,,,,,,,,
0,30,30,3,1,,6130d9dc1ffddcec1e925b4b,62c539a0b694e094fca2e558,2022-07-06_09h36.59.648,Colour_Asymmetry_Pilot,2022.1.3,Win32,31.99897603,62c50e9c1127f2cd403a315f,,,,,,,,,,,,,,,,,,,,,,,,,,,,,,,,,,,,,,,,,,,,,,,,,,,,,,,,,,,,,,,,,,,,,,,,,,,,,,,,,,,,,,,,,,,,,,,,,,,,,,,,,,,,,,,,,,,,,,,,,,,,,,,,,,,,,,,,,,,,,,,,,,,,,,,,,,,,,,,,,,,
0,31,31,17,1,,6130d9dc1ffddcec1e925b4b,62c539a0b694e094fca2e558,2022-07-06_09h36.59.648,Colour_Asymmetry_Pilot,2022.1.3,Win32,31.99897603,62c50e9c1127f2cd403a315f,,,,,,,,,,,,,,,,,,,,,,,,,,,,,,,,,,,,,,,,,,,,,,,,,,,,,,,,,,,,,,,,,,,,,,,,,,,,,,,,,,,,,,,,,,,,,,,,,,,,,,,,,,,,,,,,,,,,,,,,,,,,,,,,,,,,,,,,,,,,,,,,,,,,,,,,,,,,,,,,,,,
0,32,32,73,1,,6130d9dc1ffddcec1e925b4b,62c539a0b694e094fca2e558,2022-07-06_09h36.59.648,Colour_Asymmetry_Pilot,2022.1.3,Win32,31.99897603,62c50e9c1127f2cd403a315f,,,,,,,,,,,,,,,,,,,,,,,,,,,,,,,,,,,,,,,,,,,,,,,,,,,,,,,,,,,,,,,,,,,,,,,,,,,,,,,,,,,,,,,,,,,,,,,,,,,,,,,,,,,,,,,,,,,,,,,,,,,,,,,,,,,,,,,,,,,,,,,,,,,,,,,,,,,,,,,,,,,
0,33,33,30,1,,6130d9dc1ffddcec1e925b4b,62c539a0b694e094fca2e558,2022-07-06_09h36.59.648,Colour_Asymmetry_Pilot,2022.1.3,Win32,31.99897603,62c50e9c1127f2cd403a315f,,,,,,,,,,,,,,,,,,,,,,,,,,,,,,,,,,,,,,,,,,,,,,,,,,,,,,,,,,,,,,,,,,,,,,,,,,,,,,,,,,,,,,,,,,,,,,,,,,,,,,,,,,,,,,,,,,,,,,,,,,,,,,,,,,,,,,,,,,,,,,,,,,,,,,,,,,,,,,,,,,,
0,34,34,41,1,,6130d9dc1ffddcec1e925b4b,62c539a0b694e094fca2e558,2022-07-06_09h36.59.648,Colour_Asymmetry_Pilot,2022.1.3,Win32,31.99897603,62c50e9c1127f2cd403a315f,,,,,,,,,,,,,,,,,,,,,,,,,,,,,,,,,,,,,,,,,,,,,,,,,,,,,,,,,,,,,,,,,,,,,,,,,,,,,,,,,,,,,,,,,,,,,,,,,,,,,,,,,,,,,,,,,,,,,,,,,,,,,,,,,,,,,,,,,,,,,,,,,,,,,,,,,,,,,,,,,,,
0,35,35,69,1,,6130d9dc1ffddcec1e925b4b,62c539a0b694e094fca2e558,2022-07-06_09h36.59.648,Colour_Asymmetry_Pilot,2022.1.3,Win32,31.99897603,62c50e9c1127f2cd403a315f,,,,,,,,,,,,,,,,,,,,,,,,,,,,,,,,,,,,,,,,,,,,,,,,,,,,,,,,,,,,,,,,,,,,,,,,,,,,,,,,,,,,,,,,,,,,,,,,,,,,,,,,,,,,,,,,,,,,,,,,,,,,,,,,,,,,,,,,,,,,,,,,,,,,,,,,,,,,,,,,,,,
0,36,36,88,1,,6130d9dc1ffddcec1e925b4b,62c539a0b694e094fca2e558,2022-07-06_09h36.59.648,Colour_Asymmetry_Pilot,2022.1.3,Win32,31.99897603,62c50e9c1127f2cd403a315f,,,,,,,,,,,,,,,,,,,,,,,,,,,,,,,,,,,,,,,,,,,,,,,,,,,,,,,,,,,,,,,,,,,,,,,,,,,,,,,,,,,,,,,,,,,,,,,,,,,,,,,,,,,,,,,,,,,,,,,,,,,,,,,,,,,,,,,,,,,,,,,,,,,,,,,,,,,,,,,,,,,
0,37,37,7,1,,6130d9dc1ffddcec1e925b4b,62c539a0b694e094fca2e558,2022-07-06_09h36.59.648,Colour_Asymmetry_Pilot,2022.1.3,Win32,31.99897603,62c50e9c1127f2cd403a315f,,,,,,,,,,,,,,,,,,,,,,,,,,,,,,,,,,,,,,,,,,,,,,,,,,,,,,,,,,,,,,,,,,,,,,,,,,,,,,,,,,,,,,,,,,,,,,,,,,,,,,,,,,,,,,,,,,,,,,,,,,,,,,,,,,,,,,,,,,,,,,,,,,,,,,,,,,,,,,,,,,,
0,38,38,66,1,,6130d9dc1ffddcec1e925b4b,62c539a0b694e094fca2e558,2022-07-06_09h36.59.648,Colour_Asymmetry_Pilot,2022.1.3,Win32,31.99897603,62c50e9c1127f2cd403a315f,,,,,,,,,,,,,,,,,,,,,,,,,,,,,,,,,,,,,,,,,,,,,,,,,,,,,,,,,,,,,,,,,,,,,,,,,,,,,,,,,,,,,,,,,,,,,,,,,,,,,,,,,,,,,,,,,,,,,,,,,,,,,,,,,,,,,,,,,,,,,,,,,,,,,,,,,,,,,,,,,,,
0,39,39,62,1,,6130d9dc1ffddcec1e925b4b,62c539a0b694e094fca2e558,2022-07-06_09h36.59.648,Colour_Asymmetry_Pilot,2022.1.3,Win32,31.99897603,62c50e9c1127f2cd403a315f,,,,,,,,,,,,,,,,,,,,,,,,,,,,,,,,,,,,,,,,,,,,,,,,,,,,,,,,,,,,,,,,,,,,,,,,,,,,,,,,,,,,,,,,,,,,,,,,,,,,,,,,,,,,,,,,,,,,,,,,,,,,,,,,,,,,,,,,,,,,,,,,,,,,,,,,,,,,,,,,,,,
0,40,40,29,1,,6130d9dc1ffddcec1e925b4b,62c539a0b694e094fca2e558,2022-07-06_09h36.59.648,Colour_Asymmetry_Pilot,2022.1.3,Win32,31.99897603,62c50e9c1127f2cd403a315f,,,,,,,,,,,,,,,,,,,,,,,,,,,,,,,,,,,,,,,,,,,,,,,,,,,,,,,,,,,,,,,,,,,,,,,,,,,,,,,,,,,,,,,,,,,,,,,,,,,,,,,,,,,,,,,,,,,,,,,,,,,,,,,,,,,,,,,,,,,,,,,,,,,,,,,,,,,,,,,,,,,
0,41,41,9,1,,6130d9dc1ffddcec1e925b4b,62c539a0b694e094fca2e558,2022-07-06_09h36.59.648,Colour_Asymmetry_Pilot,2022.1.3,Win32,31.99897603,62c50e9c1127f2cd403a315f,,,,,,,,,,,,,,,,,,,,,,,,,,,,,,,,,,,,,,,,,,,,,,,,,,,,,,,,,,,,,,,,,,,,,,,,,,,,,,,,,,,,,,,,,,,,,,,,,,,,,,,,,,,,,,,,,,,,,,,,,,,,,,,,,,,,,,,,,,,,,,,,,,,,,,,,,,,,,,,,,,,
0,42,42,40,1,,6130d9dc1ffddcec1e925b4b,62c539a0b694e094fca2e558,2022-07-06_09h36.59.648,Colour_Asymmetry_Pilot,2022.1.3,Win32,31.99897603,62c50e9c1127f2cd403a315f,,,,,,,,,,,,,,,,,,,,,,,,,,,,,,,,,,,,,,,,,,,,,,,,,,,,,,,,,,,,,,,,,,,,,,,,,,,,,,,,,,,,,,,,,,,,,,,,,,,,,,,,,,,,,,,,,,,,,,,,,,,,,,,,,,,,,,,,,,,,,,,,,,,,,,,,,,,,,,,,,,,
0,43,43,47,1,,6130d9dc1ffddcec1e925b4b,62c539a0b694e094fca2e558,2022-07-06_09h36.59.648,Colour_Asymmetry_Pilot,2022.1.3,Win32,31.99897603,62c50e9c1127f2cd403a315f,,,,,,,,,,,,,,,,,,,,,,,,,,,,,,,,,,,,,,,,,,,,,,,,,,,,,,,,,,,,,,,,,,,,,,,,,,,,,,,,,,,,,,,,,,,,,,,,,,,,,,,,,,,,,,,,,,,,,,,,,,,,,,,,,,,,,,,,,,,,,,,,,,,,,,,,,,,,,,,,,,,
0,44,44,35,1,,6130d9dc1ffddcec1e925b4b,62c539a0b694e094fca2e558,2022-07-06_09h36.59.648,Colour_Asymmetry_Pilot,2022.1.3,Win32,31.99897603,62c50e9c1127f2cd403a315f,,,,,,,,,,,,,,,,,,,,,,,,,,,,,,,,,,,,,,,,,,,,,,,,,,,,,,,,,,,,,,,,,,,,,,,,,,,,,,,,,,,,,,,,,,,,,,,,,,,,,,,,,,,,,,,,,,,,,,,,,,,,,,,,,,,,,,,,,,,,,,,,,,,,,,,,,,,,,,,,,,,
0,45,45,46,1,,6130d9dc1ffddcec1e925b4b,62c539a0b694e094fca2e558,2022-07-06_09h36.59.648,Colour_Asymmetry_Pilot,2022.1.3,Win32,31.99897603,62c50e9c1127f2cd403a315f,,,,,,,,,,,,,,,,,,,,,,,,,,,,,,,,,,,,,,,,,,,,,,,,,,,,,,,,,,,,,,,,,,,,,,,,,,,,,,,,,,,,,,,,,,,,,,,,,,,,,,,,,,,,,,,,,,,,,,,,,,,,,,,,,,,,,,,,,,,,,,,,,,,,,,,,,,,,,,,,,,,
0,46,46,48,1,,6130d9dc1ffddcec1e925b4b,62c539a0b694e094fca2e558,2022-07-06_09h36.59.648,Colour_Asymmetry_Pilot,2022.1.3,Win32,31.99897603,62c50e9c1127f2cd403a315f,,,,,,,,,,,,,,,,,,,,,,,,,,,,,,,,,,,,,,,,,,,,,,,,,,,,,,,,,,,,,,,,,,,,,,,,,,,,,,,,,,,,,,,,,,,,,,,,,,,,,,,,,,,,,,,,,,,,,,,,,,,,,,,,,,,,,,,,,,,,,,,,,,,,,,,,,,,,,,,,,,,
0,47,47,55,1,,6130d9dc1ffddcec1e925b4b,62c539a0b694e094fca2e558,2022-07-06_09h36.59.648,Colour_Asymmetry_Pilot,2022.1.3,Win32,31.99897603,62c50e9c1127f2cd403a315f,,,,,,,,,,,,,,,,,,,,,,,,,,,,,,,,,,,,,,,,,,,,,,,,,,,,,,,,,,,,,,,,,,,,,,,,,,,,,,,,,,,,,,,,,,,,,,,,,,,,,,,,,,,,,,,,,,,,,,,,,,,,,,,,,,,,,,,,,,,,,,,,,,,,,,,,,,,,,,,,,,,
0,48,48,90,1,,6130d9dc1ffddcec1e925b4b,62c539a0b694e094fca2e558,2022-07-06_09h36.59.648,Colour_Asymmetry_Pilot,2022.1.3,Win32,31.99897603,62c50e9c1127f2cd403a315f,,,,,,,,,,,,,,,,,,,,,,,,,,,,,,,,,,,,,,,,,,,,,,,,,,,,,,,,,,,,,,,,,,,,,,,,,,,,,,,,,,,,,,,,,,,,,,,,,,,,,,,,,,,,,,,,,,,,,,,,,,,,,,,,,,,,,,,,,,,,,,,,,,,,,,,,,,,,,,,,,,,
0,49,49,78,1,,6130d9dc1ffddcec1e925b4b,62c539a0b694e094fca2e558,2022-07-06_09h36.59.648,Colour_Asymmetry_Pilot,2022.1.3,Win32,31.99897603,62c50e9c1127f2cd403a315f,,,,,,,,,,,,,,,,,,,,,,,,,,,,,,,,,,,,,,,,,,,,,,,,,,,,,,,,,,,,,,,,,,,,,,,,,,,,,,,,,,,,,,,,,,,,,,,,,,,,,,,,,,,,,,,,,,,,,,,,,,,,,,,,,,,,,,,,,,,,,,,,,,,,,,,,,,,,,,,,,,,
0,50,50,72,1,,6130d9dc1ffddcec1e925b4b,62c539a0b694e094fca2e558,2022-07-06_09h36.59.648,Colour_Asymmetry_Pilot,2022.1.3,Win32,31.99897603,62c50e9c1127f2cd403a315f,,,,,,,,,,,,,,,,,,,,,,,,,,,,,,,,,,,,,,,,,,,,,,,,,,,,,,,,,,,,,,,,,,,,,,,,,,,,,,,,,,,,,,,,,,,,,,,,,,,,,,,,,,,,,,,,,,,,,,,,,,,,,,,,,,,,,,,,,,,,,,,,,,,,,,,,,,,,,,,,,,,
0,51,51,43,1,,6130d9dc1ffddcec1e925b4b,62c539a0b694e094fca2e558,2022-07-06_09h36.59.648,Colour_Asymmetry_Pilot,2022.1.3,Win32,31.99897603,62c50e9c1127f2cd403a315f,,,,,,,,,,,,,,,,,,,,,,,,,,,,,,,,,,,,,,,,,,,,,,,,,,,,,,,,,,,,,,,,,,,,,,,,,,,,,,,,,,,,,,,,,,,,,,,,,,,,,,,,,,,,,,,,,,,,,,,,,,,,,,,,,,,,,,,,,,,,,,,,,,,,,,,,,,,,,,,,,,,
0,52,52,83,1,,6130d9dc1ffddcec1e925b4b,62c539a0b694e094fca2e558,2022-07-06_09h36.59.648,Colour_Asymmetry_Pilot,2022.1.3,Win32,31.99897603,62c50e9c1127f2cd403a315f,,,,,,,,,,,,,,,,,,,,,,,,,,,,,,,,,,,,,,,,,,,,,,,,,,,,,,,,,,,,,,,,,,,,,,,,,,,,,,,,,,,,,,,,,,,,,,,,,,,,,,,,,,,,,,,,,,,,,,,,,,,,,,,,,,,,,,,,,,,,,,,,,,,,,,,,,,,,,,,,,,,
0,53,53,52,1,,6130d9dc1ffddcec1e925b4b,62c539a0b694e094fca2e558,2022-07-06_09h36.59.648,Colour_Asymmetry_Pilot,2022.1.3,Win32,31.99897603,62c50e9c1127f2cd403a315f,,,,,,,,,,,,,,,,,,,,,,,,,,,,,,,,,,,,,,,,,,,,,,,,,,,,,,,,,,,,,,,,,,,,,,,,,,,,,,,,,,,,,,,,,,,,,,,,,,,,,,,,,,,,,,,,,,,,,,,,,,,,,,,,,,,,,,,,,,,,,,,,,,,,,,,,,,,,,,,,,,,
0,54,54,79,1,,6130d9dc1ffddcec1e925b4b,62c539a0b694e094fca2e558,2022-07-06_09h36.59.648,Colour_Asymmetry_Pilot,2022.1.3,Win32,31.99897603,62c50e9c1127f2cd403a315f,,,,,,,,,,,,,,,,,,,,,,,,,,,,,,,,,,,,,,,,,,,,,,,,,,,,,,,,,,,,,,,,,,,,,,,,,,,,,,,,,,,,,,,,,,,,,,,,,,,,,,,,,,,,,,,,,,,,,,,,,,,,,,,,,,,,,,,,,,,,,,,,,,,,,,,,,,,,,,,,,,,
0,55,55,33,1,,6130d9dc1ffddcec1e925b4b,62c539a0b694e094fca2e558,2022-07-06_09h36.59.648,Colour_Asymmetry_Pilot,2022.1.3,Win32,31.99897603,62c50e9c1127f2cd403a315f,,,,,,,,,,,,,,,,,,,,,,,,,,,,,,,,,,,,,,,,,,,,,,,,,,,,,,,,,,,,,,,,,,,,,,,,,,,,,,,,,,,,,,,,,,,,,,,,,,,,,,,,,,,,,,,,,,,,,,,,,,,,,,,,,,,,,,,,,,,,,,,,,,,,,,,,,,,,,,,,,,,
0,56,56,34,1,,6130d9dc1ffddcec1e925b4b,62c539a0b694e094fca2e558,2022-07-06_09h36.59.648,Colour_Asymmetry_Pilot,2022.1.3,Win32,31.99897603,62c50e9c1127f2cd403a315f,,,,,,,,,,,,,,,,,,,,,,,,,,,,,,,,,,,,,,,,,,,,,,,,,,,,,,,,,,,,,,,,,,,,,,,,,,,,,,,,,,,,,,,,,,,,,,,,,,,,,,,,,,,,,,,,,,,,,,,,,,,,,,,,,,,,,,,,,,,,,,,,,,,,,,,,,,,,,,,,,,,
0,57,57,19,1,,6130d9dc1ffddcec1e925b4b,62c539a0b694e094fca2e558,2022-07-06_09h36.59.648,Colour_Asymmetry_Pilot,2022.1.3,Win32,31.99897603,62c50e9c1127f2cd403a315f,,,,,,,,,,,,,,,,,,,,,,,,,,,,,,,,,,,,,,,,,,,,,,,,,,,,,,,,,,,,,,,,,,,,,,,,,,,,,,,,,,,,,,,,,,,,,,,,,,,,,,,,,,,,,,,,,,,,,,,,,,,,,,,,,,,,,,,,,,,,,,,,,,,,,,,,,,,,,,,,,,,
0,58,58,89,1,,6130d9dc1ffddcec1e925b4b,62c539a0b694e094fca2e558,2022-07-06_09h36.59.648,Colour_Asymmetry_Pilot,2022.1.3,Win32,31.99897603,62c50e9c1127f2cd403a315f,,,,,,,,,,,,,,,,,,,,,,,,,,,,,,,,,,,,,,,,,,,,,,,,,,,,,,,,,,,,,,,,,,,,,,,,,,,,,,,,,,,,,,,,,,,,,,,,,,,,,,,,,,,,,,,,,,,,,,,,,,,,,,,,,,,,,,,,,,,,,,,,,,,,,,,,,,,,,,,,,,,
0,59,59,28,1,,6130d9dc1ffddcec1e925b4b,62c539a0b694e094fca2e558,2022-07-06_09h36.59.648,Colour_Asymmetry_Pilot,2022.1.3,Win32,31.99897603,62c50e9c1127f2cd403a315f,,,,,,,,,,,,,,,,,,,,,,,,,,,,,,,,,,,,,,,,,,,,,,,,,,,,,,,,,,,,,,,,,,,,,,,,,,,,,,,,,,,,,,,,,,,,,,,,,,,,,,,,,,,,,,,,,,,,,,,,,,,,,,,,,,,,,,,,,,,,,,,,,,,,,,,,,,,,,,,,,,,
0,60,60,67,1,,6130d9dc1ffddcec1e925b4b,62c539a0b694e094fca2e558,2022-07-06_09h36.59.648,Colour_Asymmetry_Pilot,2022.1.3,Win32,31.99897603,62c50e9c1127f2cd403a315f,,,,,,,,,,,,,,,,,,,,,,,,,,,,,,,,,,,,,,,,,,,,,,,,,,,,,,,,,,,,,,,,,,,,,,,,,,,,,,,,,,,,,,,,,,,,,,,,,,,,,,,,,,,,,,,,,,,,,,,,,,,,,,,,,,,,,,,,,,,,,,,,,,,,,,,,,,,,,,,,,,,
0,61,61,39,1,,6130d9dc1ffddcec1e925b4b,62c539a0b694e094fca2e558,2022-07-06_09h36.59.648,Colour_Asymmetry_Pilot,2022.1.3,Win32,31.99897603,62c50e9c1127f2cd403a315f,,,,,,,,,,,,,,,,,,,,,,,,,,,,,,,,,,,,,,,,,,,,,,,,,,,,,,,,,,,,,,,,,,,,,,,,,,,,,,,,,,,,,,,,,,,,,,,,,,,,,,,,,,,,,,,,,,,,,,,,,,,,,,,,,,,,,,,,,,,,,,,,,,,,,,,,,,,,,,,,,,,
0,62,62,14,1,,6130d9dc1ffddcec1e925b4b,62c539a0b694e094fca2e558,2022-07-06_09h36.59.648,Colour_Asymmetry_Pilot,2022.1.3,Win32,31.99897603,62c50e9c1127f2cd403a315f,,,,,,,,,,,,,,,,,,,,,,,,,,,,,,,,,,,,,,,,,,,,,,,,,,,,,,,,,,,,,,,,,,,,,,,,,,,,,,,,,,,,,,,,,,,,,,,,,,,,,,,,,,,,,,,,,,,,,,,,,,,,,,,,,,,,,,,,,,,,,,,,,,,,,,,,,,,,,,,,,,,
0,63,63,56,1,,6130d9dc1ffddcec1e925b4b,62c539a0b694e094fca2e558,2022-07-06_09h36.59.648,Colour_Asymmetry_Pilot,2022.1.3,Win32,31.99897603,62c50e9c1127f2cd403a315f,,,,,,,,,,,,,,,,,,,,,,,,,,,,,,,,,,,,,,,,,,,,,,,,,,,,,,,,,,,,,,,,,,,,,,,,,,,,,,,,,,,,,,,,,,,,,,,,,,,,,,,,,,,,,,,,,,,,,,,,,,,,,,,,,,,,,,,,,,,,,,,,,,,,,,,,,,,,,,,,,,,
0,64,64,45,1,,6130d9dc1ffddcec1e925b4b,62c539a0b694e094fca2e558,2022-07-06_09h36.59.648,Colour_Asymmetry_Pilot,2022.1.3,Win32,31.99897603,62c50e9c1127f2cd403a315f,,,,,,,,,,,,,,,,,,,,,,,,,,,,,,,,,,,,,,,,,,,,,,,,,,,,,,,,,,,,,,,,,,,,,,,,,,,,,,,,,,,,,,,,,,,,,,,,,,,,,,,,,,,,,,,,,,,,,,,,,,,,,,,,,,,,,,,,,,,,,,,,,,,,,,,,,,,,,,,,,,,
0,65,65,20,1,,6130d9dc1ffddcec1e925b4b,62c539a0b694e094fca2e558,2022-07-06_09h36.59.648,Colour_Asymmetry_Pilot,2022.1.3,Win32,31.99897603,62c50e9c1127f2cd403a315f,,,,,,,,,,,,,,,,,,,,,,,,,,,,,,,,,,,,,,,,,,,,,,,,,,,,,,,,,,,,,,,,,,,,,,,,,,,,,,,,,,,,,,,,,,,,,,,,,,,,,,,,,,,,,,,,,,,,,,,,,,,,,,,,,,,,,,,,,,,,,,,,,,,,,,,,,,,,,,,,,,,
0,66,66,49,1,,6130d9dc1ffddcec1e925b4b,62c539a0b694e094fca2e558,2022-07-06_09h36.59.648,Colour_Asymmetry_Pilot,2022.1.3,Win32,31.99897603,62c50e9c1127f2cd403a315f,,,,,,,,,,,,,,,,,,,,,,,,,,,,,,,,,,,,,,,,,,,,,,,,,,,,,,,,,,,,,,,,,,,,,,,,,,,,,,,,,,,,,,,,,,,,,,,,,,,,,,,,,,,,,,,,,,,,,,,,,,,,,,,,,,,,,,,,,,,,,,,,,,,,,,,,,,,,,,,,,,,
0,67,67,74,1,,6130d9dc1ffddcec1e925b4b,62c539a0b694e094fca2e558,2022-07-06_09h36.59.648,Colour_Asymmetry_Pilot,2022.1.3,Win32,31.99897603,62c50e9c1127f2cd403a315f,,,,,,,,,,,,,,,,,,,,,,,,,,,,,,,,,,,,,,,,,,,,,,,,,,,,,,,,,,,,,,,,,,,,,,,,,,,,,,,,,,,,,,,,,,,,,,,,,,,,,,,,,,,,,,,,,,,,,,,,,,,,,,,,,,,,,,,,,,,,,,,,,,,,,,,,,,,,,,,,,,,
0,68,68,57,1,,6130d9dc1ffddcec1e925b4b,62c539a0b694e094fca2e558,2022-07-06_09h36.59.648,Colour_Asymmetry_Pilot,2022.1.3,Win32,31.99897603,62c50e9c1127f2cd403a315f,,,,,,,,,,,,,,,,,,,,,,,,,,,,,,,,,,,,,,,,,,,,,,,,,,,,,,,,,,,,,,,,,,,,,,,,,,,,,,,,,,,,,,,,,,,,,,,,,,,,,,,,,,,,,,,,,,,,,,,,,,,,,,,,,,,,,,,,,,,,,,,,,,,,,,,,,,,,,,,,,,,
0,69,69,15,1,,6130d9dc1ffddcec1e925b4b,62c539a0b694e094fca2e558,2022-07-06_09h36.59.648,Colour_Asymmetry_Pilot,2022.1.3,Win32,31.99897603,62c50e9c1127f2cd403a315f,,,,,,,,,,,,,,,,,,,,,,,,,,,,,,,,,,,,,,,,,,,,,,,,,,,,,,,,,,,,,,,,,,,,,,,,,,,,,,,,,,,,,,,,,,,,,,,,,,,,,,,,,,,,,,,,,,,,,,,,,,,,,,,,,,,,,,,,,,,,,,,,,,,,,,,,,,,,,,,,,,,
0,70,70,68,1,,6130d9dc1ffddcec1e925b4b,62c539a0b694e094fca2e558,2022-07-06_09h36.59.648,Colour_Asymmetry_Pilot,2022.1.3,Win32,31.99897603,62c50e9c1127f2cd403a315f,,,,,,,,,,,,,,,,,,,,,,,,,,,,,,,,,,,,,,,,,,,,,,,,,,,,,,,,,,,,,,,,,,,,,,,,,,,,,,,,,,,,,,,,,,,,,,,,,,,,,,,,,,,,,,,,,,,,,,,,,,,,,,,,,,,,,,,,,,,,,,,,,,,,,,,,,,,,,,,,,,,
0,71,71,91,1,,6130d9dc1ffddcec1e925b4b,62c539a0b694e094fca2e558,2022-07-06_09h36.59.648,Colour_Asymmetry_Pilot,2022.1.3,Win32,31.99897603,62c50e9c1127f2cd403a315f,,,,,,,,,,,,,,,,,,,,,,,,,,,,,,,,,,,,,,,,,,,,,,,,,,,,,,,,,,,,,,,,,,,,,,,,,,,,,,,,,,,,,,,,,,,,,,,,,,,,,,,,,,,,,,,,,,,,,,,,,,,,,,,,,,,,,,,,,,,,,,,,,,,,,,,,,,,,,,,,,,,
0,72,72,76,1,,6130d9dc1ffddcec1e925b4b,62c539a0b694e094fca2e558,2022-07-06_09h36.59.648,Colour_Asymmetry_Pilot,2022.1.3,Win32,31.99897603,62c50e9c1127f2cd403a315f,,,,,,,,,,,,,,,,,,,,,,,,,,,,,,,,,,,,,,,,,,,,,,,,,,,,,,,,,,,,,,,,,,,,,,,,,,,,,,,,,,,,,,,,,,,,,,,,,,,,,,,,,,,,,,,,,,,,,,,,,,,,,,,,,,,,,,,,,,,,,,,,,,,,,,,,,,,,,,,,,,,
0,73,73,36,1,,6130d9dc1ffddcec1e925b4b,62c539a0b694e094fca2e558,2022-07-06_09h36.59.648,Colour_Asymmetry_Pilot,2022.1.3,Win32,31.99897603,62c50e9c1127f2cd403a315f,,,,,,,,,,,,,,,,,,,,,,,,,,,,,,,,,,,,,,,,,,,,,,,,,,,,,,,,,,,,,,,,,,,,,,,,,,,,,,,,,,,,,,,,,,,,,,,,,,,,,,,,,,,,,,,,,,,,,,,,,,,,,,,,,,,,,,,,,,,,,,,,,,,,,,,,,,,,,,,,,,,
0,74,74,64,1,,6130d9dc1ffddcec1e925b4b,62c539a0b694e094fca2e558,2022-07-06_09h36.59.648,Colour_Asymmetry_Pilot,2022.1.3,Win32,31.99897603,62c50e9c1127f2cd403a315f,,,,,,,,,,,,,,,,,,,,,,,,,,,,,,,,,,,,,,,,,,,,,,,,,,,,,,,,,,,,,,,,,,,,,,,,,,,,,,,,,,,,,,,,,,,,,,,,,,,,,,,,,,,,,,,,,,,,,,,,,,,,,,,,,,,,,,,,,,,,,,,,,,,,,,,,,,,,,,,,,,,
0,75,75,23,1,,6130d9dc1ffddcec1e925b4b,62c539a0b694e094fca2e558,2022-07-06_09h36.59.648,Colour_Asymmetry_Pilot,2022.1.3,Win32,31.99897603,62c50e9c1127f2cd403a315f,,,,,,,,,,,,,,,,,,,,,,,,,,,,,,,,,,,,,,,,,,,,,,,,,,,,,,,,,,,,,,,,,,,,,,,,,,,,,,,,,,,,,,,,,,,,,,,,,,,,,,,,,,,,,,,,,,,,,,,,,,,,,,,,,,,,,,,,,,,,,,,,,,,,,,,,,,,,,,,,,,,
0,76,76,80,1,,6130d9dc1ffddcec1e925b4b,62c539a0b694e094fca2e558,2022-07-06_09h36.59.648,Colour_Asymmetry_Pilot,2022.1.3,Win32,31.99897603,62c50e9c1127f2cd403a315f,,,,,,,,,,,,,,,,,,,,,,,,,,,,,,,,,,,,,,,,,,,,,,,,,,,,,,,,,,,,,,,,,,,,,,,,,,,,,,,,,,,,,,,,,,,,,,,,,,,,,,,,,,,,,,,,,,,,,,,,,,,,,,,,,,,,,,,,,,,,,,,,,,,,,,,,,,,,,,,,,,,
0,77,77,1,1,,6130d9dc1ffddcec1e925b4b,62c539a0b694e094fca2e558,2022-07-06_09h36.59.648,Colour_Asymmetry_Pilot,2022.1.3,Win32,31.99897603,62c50e9c1127f2cd403a315f,,,,,,,,,,,,,,,,,,,,,,,,,,,,,,,,,,,,,,,,,,,,,,,,,,,,,,,,,,,,,,,,,,,,,,,,,,,,,,,,,,,,,,,,,,,,,,,,,,,,,,,,,,,,,,,,,,,,,,,,,,,,,,,,,,,,,,,,,,,,,,,,,,,,,,,,,,,,,,,,,,,
0,78,78,75,1,,6130d9dc1ffddcec1e925b4b,62c539a0b694e094fca2e558,2022-07-06_09h36.59.648,Colour_Asymmetry_Pilot,2022.1.3,Win32,31.99897603,62c50e9c1127f2cd403a315f,,,,,,,,,,,,,,,,,,,,,,,,,,,,,,,,,,,,,,,,,,,,,,,,,,,,,,,,,,,,,,,,,,,,,,,,,,,,,,,,,,,,,,,,,,,,,,,,,,,,,,,,,,,,,,,,,,,,,,,,,,,,,,,,,,,,,,,,,,,,,,,,,,,,,,,,,,,,,,,,,,,
0,79,79,8,1,,6130d9dc1ffddcec1e925b4b,62c539a0b694e094fca2e558,2022-07-06_09h36.59.648,Colour_Asymmetry_Pilot,2022.1.3,Win32,31.99897603,62c50e9c1127f2cd403a315f,,,,,,,,,,,,,,,,,,,,,,,,,,,,,,,,,,,,,,,,,,,,,,,,,,,,,,,,,,,,,,,,,,,,,,,,,,,,,,,,,,,,,,,,,,,,,,,,,,,,,,,,,,,,,,,,,,,,,,,,,,,,,,,,,,,,,,,,,,,,,,,,,,,,,,,,,,,,,,,,,,,
0,80,80,87,1,,6130d9dc1ffddcec1e925b4b,62c539a0b694e094fca2e558,2022-07-06_09h36.59.648,Colour_Asymmetry_Pilot,2022.1.3,Win32,31.99897603,62c50e9c1127f2cd403a315f,,,,,,,,,,,,,,,,,,,,,,,,,,,,,,,,,,,,,,,,,,,,,,,,,,,,,,,,,,,,,,,,,,,,,,,,,,,,,,,,,,,,,,,,,,,,,,,,,,,,,,,,,,,,,,,,,,,,,,,,,,,,,,,,,,,,,,,,,,,,,,,,,,,,,,,,,,,,,,,,,,,
0,81,81,65,1,,6130d9dc1ffddcec1e925b4b,62c539a0b694e094fca2e558,2022-07-06_09h36.59.648,Colour_Asymmetry_Pilot,2022.1.3,Win32,31.99897603,62c50e9c1127f2cd403a315f,,,,,,,,,,,,,,,,,,,,,,,,,,,,,,,,,,,,,,,,,,,,,,,,,,,,,,,,,,,,,,,,,,,,,,,,,,,,,,,,,,,,,,,,,,,,,,,,,,,,,,,,,,,,,,,,,,,,,,,,,,,,,,,,,,,,,,,,,,,,,,,,,,,,,,,,,,,,,,,,,,,
0,82,82,24,1,,6130d9dc1ffddcec1e925b4b,62c539a0b694e094fca2e558,2022-07-06_09h36.59.648,Colour_Asymmetry_Pilot,2022.1.3,Win32,31.99897603,62c50e9c1127f2cd403a315f,,,,,,,,,,,,,,,,,,,,,,,,,,,,,,,,,,,,,,,,,,,,,,,,,,,,,,,,,,,,,,,,,,,,,,,,,,,,,,,,,,,,,,,,,,,,,,,,,,,,,,,,,,,,,,,,,,,,,,,,,,,,,,,,,,,,,,,,,,,,,,,,,,,,,,,,,,,,,,,,,,,
0,83,83,25,1,,6130d9dc1ffddcec1e925b4b,62c539a0b694e094fca2e558,2022-07-06_09h36.59.648,Colour_Asymmetry_Pilot,2022.1.3,Win32,31.99897603,62c50e9c1127f2cd403a315f,,,,,,,,,,,,,,,,,,,,,,,,,,,,,,,,,,,,,,,,,,,,,,,,,,,,,,,,,,,,,,,,,,,,,,,,,,,,,,,,,,,,,,,,,,,,,,,,,,,,,,,,,,,,,,,,,,,,,,,,,,,,,,,,,,,,,,,,,,,,,,,,,,,,,,,,,,,,,,,,,,,
0,84,84,85,1,,6130d9dc1ffddcec1e925b4b,62c539a0b694e094fca2e558,2022-07-06_09h36.59.648,Colour_Asymmetry_Pilot,2022.1.3,Win32,31.99897603,62c50e9c1127f2cd403a315f,,,,,,,,,,,,,,,,,,,,,,,,,,,,,,,,,,,,,,,,,,,,,,,,,,,,,,,,,,,,,,,,,,,,,,,,,,,,,,,,,,,,,,,,,,,,,,,,,,,,,,,,,,,,,,,,,,,,,,,,,,,,,,,,,,,,,,,,,,,,,,,,,,,,,,,,,,,,,,,,,,,
0,85,85,51,1,,6130d9dc1ffddcec1e925b4b,62c539a0b694e094fca2e558,2022-07-06_09h36.59.648,Colour_Asymmetry_Pilot,2022.1.3,Win32,31.99897603,62c50e9c1127f2cd403a315f,,,,,,,,,,,,,,,,,,,,,,,,,,,,,,,,,,,,,,,,,,,,,,,,,,,,,,,,,,,,,,,,,,,,,,,,,,,,,,,,,,,,,,,,,,,,,,,,,,,,,,,,,,,,,,,,,,,,,,,,,,,,,,,,,,,,,,,,,,,,,,,,,,,,,,,,,,,,,,,,,,,
0,86,86,81,1,,6130d9dc1ffddcec1e925b4b,62c539a0b694e094fca2e558,2022-07-06_09h36.59.648,Colour_Asymmetry_Pilot,2022.1.3,Win32,31.99897603,62c50e9c1127f2cd403a315f,,,,,,,,,,,,,,,,,,,,,,,,,,,,,,,,,,,,,,,,,,,,,,,,,,,,,,,,,,,,,,,,,,,,,,,,,,,,,,,,,,,,,,,,,,,,,,,,,,,,,,,,,,,,,,,,,,,,,,,,,,,,,,,,,,,,,,,,,,,,,,,,,,,,,,,,,,,,,,,,,,,
0,87,87,0,1,,6130d9dc1ffddcec1e925b4b,62c539a0b694e094fca2e558,2022-07-06_09h36.59.648,Colour_Asymmetry_Pilot,2022.1.3,Win32,31.99897603,62c50e9c1127f2cd403a315f,,,,,,,,,,,,,,,,,,,,,,,,,,,,,,,,,,,,,,,,,,,,,,,,,,,,,,,,,,,,,,,,,,,,,,,,,,,,,,,,,,,,,,,,,,,,,,,,,,,,,,,,,,,,,,,,,,,,,,,,,,,,,,,,,,,,,,,,,,,,,,,,,,,,,,,,,,,,,,,,,,,
0,88,88,60,1,,6130d9dc1ffddcec1e925b4b,62c539a0b694e094fca2e558,2022-07-06_09h36.59.648,Colour_Asymmetry_Pilot,2022.1.3,Win32,31.99897603,62c50e9c1127f2cd403a315f,,,,,,,,,,,,,,,,,,,,,,,,,,,,,,,,,,,,,,,,,,,,,,,,,,,,,,,,,,,,,,,,,,,,,,,,,,,,,,,,,,,,,,,,,,,,,,,,,,,,,,,,,,,,,,,,,,,,,,,,,,,,,,,,,,,,,,,,,,,,,,,,,,,,,,,,,,,,,,,,,,,
0,89,89,59,1,,6130d9dc1ffddcec1e925b4b,62c539a0b694e094fca2e558,2022-07-06_09h36.59.648,Colour_Asymmetry_Pilot,2022.1.3,Win32,31.99897603,62c50e9c1127f2cd403a315f,,,,,,,,,,,,,,,,,,,,,,,,,,,,,,,,,,,,,,,,,,,,,,,,,,,,,,,,,,,,,,,,,,,,,,,,,,,,,,,,,,,,,,,,,,,,,,,,,,,,,,,,,,,,,,,,,,,,,,,,,,,,,,,,,,,,,,,,,,,,,,,,,,,,,,,,,,,,,,,,,,,
0,90,90,37,1,,6130d9dc1ffddcec1e925b4b,62c539a0b694e094fca2e558,2022-07-06_09h36.59.648,Colour_Asymmetry_Pilot,2022.1.3,Win32,31.99897603,62c50e9c1127f2cd403a315f,,,,,,,,,,,,,,,,,,,,,,,,,,,,,,,,,,,,,,,,,,,,,,,,,,,,,,,,,,,,,,,,,,,,,,,,,,,,,,,,,,,,,,,,,,,,,,,,,,,,,,,,,,,,,,,,,,,,,,,,,,,,,,,,,,,,,,,,,,,,,,,,,,,,,,,,,,,,,,,,,,,
0,91,91,2,1,,6130d9dc1ffddcec1e925b4b,62c539a0b694e094fca2e558,2022-07-06_09h36.59.648,Colour_Asymmetry_Pilot,2022.1.3,Win32,31.99897603,62c50e9c1127f2cd403a315f,,,,,,,,,,,,,,,,,,,,,,,,,,,,,,,,,,,,,,,,,,,,,,,,,,,,,,,,,,,,,,,,,,,,,,,,,,,,,,,,,,,,,,,,,,,,,,,,,,,,,,,,,,,,,,,,,,,,,,,,,,,,,,,,,,,,,,,,,,,,,,,,,,,,,,,,,,,,,,,,,,,
0,92,92,22,1,,6130d9dc1ffddcec1e925b4b,62c539a0b694e094fca2e558,2022-07-06_09h36.59.648,Colour_Asymmetry_Pilot,2022.1.3,Win32,31.99897603,62c50e9c1127f2cd403a315f,,,,,,,,,,,,,,,,,,,,,,,,,,,,,,,,,,,,,,,,,,,,,,,,,,,,,,,,,,,,,,,,,,,,,,,,,,,,,,,,,,,,,,,,,,,,,,,,,,,,,,,,,,,,,,,,,,,,,,,,,,,,,,,,,,,,,,,,,,,,,,,,,,,,,,,,,,,,,,,,,,,
,,,,,,6130d9dc1ffddcec1e925b4b,62c539a0b694e094fca2e558,2022-07-06_09h36.59.648,Colour_Asymmetry_Pilot,2022.1.3,Win32,31.99897603,62c50e9c1127f2cd403a315f,0,0,0,141,1,threefour,,,,,,,,,,,,,,,,,,,,,,,,,,,,,,,,,,,,,,,,,,,,,,,,,,,,,,,,,,,,,,,,,,,,,,,,,,,,,,,,,,,,,,,,,,,,,,,,,,,,,,,,,,,,,,,,,,,,,,,,,,,,,,,,,,,,,,,,,,,,,,,,,,,,,,,,,,,,,
,,,,,,6130d9dc1ffddcec1e925b4b,62c539a0b694e094fca2e558,2022-07-06_09h36.59.648,Colour_Asymmetry_Pilot,2022.1.3,Win32,31.99897603,62c50e9c1127f2cd403a315f,0,1,1,21,1,threefour,,,,,,,,,,,,,,,,,,,,,,,,,,,,,,,,,,,,,,,,,,,,,,,,,,,,,,,,,,,,,,,,,,,,,,,,,,,,,,,,,,,,,,,,,,,,,,,,,,,,,,,,,,,,,,,,,,,,,,,,,,,,,,,,,,,,,,,,,,,,,,,,,,,,,,,,,,,,,
,,,,,,6130d9dc1ffddcec1e925b4b,62c539a0b694e094fca2e558,2022-07-06_09h36.59.648,Colour_Asymmetry_Pilot,2022.1.3,Win32,31.99897603,62c50e9c1127f2cd403a315f,0,2,2,136,1,onetwo,,,,,,,,,,,,,,,,,,,,,,,,,,,,,,,,,,,,,,,,,,,,,,,,,,,,,,,,,,,,,,,,,,,,,,,,,,,,,,,,,,,,,,,,,,,,,,,,,,,,,,,,,,,,,,,,,,,,,,,,,,,,,,,,,,,,,,,,,,,,,,,,,,,,,,,,,,,,,
,,,,,,6130d9dc1ffddcec1e925b4b,62c539a0b694e094fca2e558,2022-07-06_09h36.59.648,Colour_Asymmetry_Pilot,2022.1.3,Win32,31.99897603,62c50e9c1127f2cd403a315f,0,3,3,57,1,onethree,,,,,,,,,,,,,,,,,,,,,,,,,,,,,,,,,,,,,,,,,,,,,,,,,,,,,,,,,,,,,,,,,,,,,,,,,,,,,,,,,,,,,,,,,,,,,,,,,,,,,,,,,,,,,,,,,,,,,,,,,,,,,,,,,,,,,,,,,,,,,,,,,,,,,,,,,,,,,
,,,,,,6130d9dc1ffddcec1e925b4b,62c539a0b694e094fca2e558,2022-07-06_09h36.59.648,Colour_Asymmetry_Pilot,2022.1.3,Win32,31.99897603,62c50e9c1127f2cd403a315f,0,4,4,104,1,onetwo,,,,,,,,,,,,,,,,,,,,,,,,,,,,,,,,,,,,,,,,,,,,,,,,,,,,,,,,,,,,,,,,,,,,,,,,,,,,,,,,,,,,,,,,,,,,,,,,,,,,,,,,,,,,,,,,,,,,,,,,,,,,,,,,,,,,,,,,,,,,,,,,,,,,,,,,,,,,,
,,,,,,6130d9dc1ffddcec1e925b4b,62c539a0b694e094fca2e558,2022-07-06_09h36.59.648,Colour_Asymmetry_Pilot,2022.1.3,Win32,31.99897603,62c50e9c1127f2cd403a315f,0,5,5,130,1,twoone,,,,,,,,,,,,,,,,,,,,,,,,,,,,,,,,,,,,,,,,,,,,,,,,,,,,,,,,,,,,,,,,,,,,,,,,,,,,,,,,,,,,,,,,,,,,,,,,,,,,,,,,,,,,,,,,,,,,,,,,,,,,,,,,,,,,,,,,,,,,,,,,,,,,,,,,,,,,,
,,,,,,6130d9dc1ffddcec1e925b4b,62c539a0b694e094fca2e558,2022-07-06_09h36.59.648,Colour_Asymmetry_Pilot,2022.1.3,Win32,31.99897603,62c50e9c1127f2cd403a315f,0,6,6,25,1,onethree,,,,,,,,,,,,,,,,,,,,,,,,,,,,,,,,,,,,,,,,,,,,,,,,,,,,,,,,,,,,,,,,,,,,,,,,,,,,,,,,,,,,,,,,,,,,,,,,,,,,,,,,,,,,,,,,,,,,,,,,,,,,,,,,,,,,,,,,,,,,,,,,,,,,,,,,,,,,,
,,,,,,6130d9dc1ffddcec1e925b4b,62c539a0b694e094fca2e558,2022-07-06_09h36.59.648,Colour_Asymmetry_Pilot,2022.1.3,Win32,31.99897603,62c50e9c1127f2cd403a315f,0,7,7,91,1,twofour,,,,,,,,,,,,,,,,,,,,,,,,,,,,,,,,,,,,,,,,,,,,,,,,,,,,,,,,,,,,,,,,,,,,,,,,,,,,,,,,,,,,,,,,,,,,,,,,,,,,,,,,,,,,,,,,,,,,,,,,,,,,,,,,,,,,,,,,,,,,,,,,,,,,,,,,,,,,,
,,,,,,6130d9dc1ffddcec1e925b4b,62c539a0b694e094fca2e558,2022-07-06_09h36.59.648,Colour_Asymmetry_Pilot,2022.1.3,Win32,31.99897603,62c50e9c1127f2cd403a315f,0,8,8,135,1,fourthree,,,,,,,,,,,,,,,,,,,,,,,,,,,,,,,,,,,,,,,,,,,,,,,,,,,,,,,,,,,,,,,,,,,,,,,,,,,,,,,,,,,,,,,,,,,,,,,,,,,,,,,,,,,,,,,,,,,,,,,,,,,,,,,,,,,,,,,,,,,,,,,,,,,,,,,,,,,,,
,,,,,,6130d9dc1ffddcec1e925b4b,62c539a0b694e094fca2e558,2022-07-06_09h36.59.648,Colour_Asymmetry_Pilot,2022.1.3,Win32,31.99897603,62c50e9c1127f2cd403a315f,0,9,9,75,1,twofour,,,,,,,,,,,,,,,,,,,,,,,,,,,,,,,,,,,,,,,,,,,,,,,,,,,,,,,,,,,,,,,,,,,,,,,,,,,,,,,,,,,,,,,,,,,,,,,,,,,,,,,,,,,,,,,,,,,,,,,,,,,,,,,,,,,,,,,,,,,,,,,,,,,,,,,,,,,,,
,,,,,,6130d9dc1ffddcec1e925b4b,62c539a0b694e094fca2e558,2022-07-06_09h36.59.648,Colour_Asymmetry_Pilot,2022.1.3,Win32,31.99897603,62c50e9c1127f2cd403a315f,0,10,10,5,1,threefour,,,,,,,,,,,,,,,,,,,,,,,,,,,,,,,,,,,,,,,,,,,,,,,,,,,,,,,,,,,,,,,,,,,,,,,,,,,,,,,,,,,,,,,,,,,,,,,,,,,,,,,,,,,,,,,,,,,,,,,,,,,,,,,,,,,,,,,,,,,,,,,,,,,,,,,,,,,,,
,,,,,,6130d9dc1ffddcec1e925b4b,62c539a0b694e094fca2e558,2022-07-06_09h36.59.648,Colour_Asymmetry_Pilot,2022.1.3,Win32,31.99897603,62c50e9c1127f2cd403a315f,0,11,11,87,1,fourthree,,,,,,,,,,,,,,,,,,,,,,,,,,,,,,,,,,,,,,,,,,,,,,,,,,,,,,,,,,,,,,,,,,,,,,,,,,,,,,,,,,,,,,,,,,,,,,,,,,,,,,,,,,,,,,,,,,,,,,,,,,,,,,,,,,,,,,,,,,,,,,,,,,,,,,,,,,,,,
,,,,,,6130d9dc1ffddcec1e925b4b,62c539a0b694e094fca2e558,2022-07-06_09h36.59.648,Colour_Asymmetry_Pilot,2022.1.3,Win32,31.99897603,62c50e9c1127f2cd403a315f,0,12,12,35,1,twofour,,,,,,,,,,,,,,,,,,,,,,,,,,,,,,,,,,,,,,,,,,,,,,,,,,,,,,,,,,,,,,,,,,,,,,,,,,,,,,,,,,,,,,,,,,,,,,,,,,,,,,,,,,,,,,,,,,,,,,,,,,,,,,,,,,,,,,,,,,,,,,,,,,,,,,,,,,,,,
,,,,,,6130d9dc1ffddcec1e925b4b,62c539a0b694e094fca2e558,2022-07-06_09h36.59.648,Colour_Asymmetry_Pilot,2022.1.3,Win32,31.99897603,62c50e9c1127f2cd403a315f,0,13,13,3,1,twofour,,,,,,,,,,,,,,,,,,,,,,,,,,,,,,,,,,,,,,,,,,,,,,,,,,,,,,,,,,,,,,,,,,,,,,,,,,,,,,,,,,,,,,,,,,,,,,,,,,,,,,,,,,,,,,,,,,,,,,,,,,,,,,,,,,,,,,,,,,,,,,,,,,,,,,,,,,,,,
,,,,,,6130d9dc1ffddcec1e925b4b,62c539a0b694e094fca2e558,2022-07-06_09h36.59.648,Colour_Asymmetry_Pilot,2022.1.3,Win32,31.99897603,62c50e9c1127f2cd403a315f,0,14,14,109,1,threefour,,,,,,,,,,,,,,,,,,,,,,,,,,,,,,,,,,,,,,,,,,,,,,,,,,,,,,,,,,,,,,,,,,,,,,,,,,,,,,,,,,,,,,,,,,,,,,,,,,,,,,,,,,,,,,,,,,,,,,,,,,,,,,,,,,,,,,,,,,,,,,,,,,,,,,,,,,,,,
,,,,,,6130d9dc1ffddcec1e925b4b,62c539a0b694e094fca2e558,2022-07-06_09h36.59.648,Colour_Asymmetry_Pilot,2022.1.3,Win32,31.99897603,62c50e9c1127f2cd403a315f,0,15,15,54,1,fourtwo,,,,,,,,,,,,,,,,,,,,,,,,,,,,,,,,,,,,,,,,,,,,,,,,,,,,,,,,,,,,,,,,,,,,,,,,,,,,,,,,,,,,,,,,,,,,,,,,,,,,,,,,,,,,,,,,,,,,,,,,,,,,,,,,,,,,,,,,,,,,,,,,,,,,,,,,,,,,,
,,,,,,6130d9dc1ffddcec1e925b4b,62c539a0b694e094fca2e558,2022-07-06_09h36.59.648,Colour_Asymmetry_Pilot,2022.1.3,Win32,31.99897603,62c50e9c1127f2cd403a315f,0,16,16,152,1,onetwo,,,,,,,,,,,,,,,,,,,,,,,,,,,,,,,,,,,,,,,,,,,,,,,,,,,,,,,,,,,,,,,,,,,,,,,,,,,,,,,,,,,,,,,,,,,,,,,,,,,,,,,,,,,,,,,,,,,,,,,,,,,,,,,,,,,,,,,,,,,,,,,,,,,,,,,,,,,,,
,,,,,,6130d9dc1ffddcec1e925b4b,62c539a0b694e094fca2e558,2022-07-06_09h36.59.648,Colour_Asymmetry_Pilot,2022.1.3,Win32,31.99897603,62c50e9c1127f2cd403a315f,0,17,17,123,1,twofour,,,,,,,,,,,,,,,,,,,,,,,,,,,,,,,,,,,,,,,,,,,,,,,,,,,,,,,,,,,,,,,,,,,,,,,,,,,,,,,,,,,,,,,,,,,,,,,,,,,,,,,,,,,,,,,,,,,,,,,,,,,,,,,,,,,,,,,,,,,,,,,,,,,,,,,,,,,,,
,,,,,,6130d9dc1ffddcec1e925b4b,62c539a0b694e094fca2e558,2022-07-06_09h36.59.648,Colour_Asymmetry_Pilot,2022.1.3,Win32,31.99897603,62c50e9c1127f2cd403a315f,0,18,18,6,1,fourtwo,,,,,,,,,,,,,,,,,,,,,,,,,,,,,,,,,,,,,,,,,,,,,,,,,,,,,,,,,,,,,,,,,,,,,,,,,,,,,,,,,,,,,,,,,,,,,,,,,,,,,,,,,,,,,,,,,,,,,,,,,,,,,,,,,,,,,,,,,,,,,,,,,,,,,,,,,,,,,
,,,,,,6130d9dc1ffddcec1e925b4b,62c539a0b694e094fca2e558,2022-07-06_09h36.59.648,Colour_Asymmetry_Pilot,2022.1.3,Win32,31.99897603,62c50e9c1127f2cd403a315f,0,19,19,38,1,fourtwo,,,,,,,,,,,,,,,,,,,,,,,,,,,,,,,,,,,,,,,,,,,,,,,,,,,,,,,,,,,,,,,,,,,,,,,,,,,,,,,,,,,,,,,,,,,,,,,,,,,,,,,,,,,,,,,,,,,,,,,,,,,,,,,,,,,,,,,,,,,,,,,,,,,,,,,,,,,,,
,,,,,,6130d9dc1ffddcec1e925b4b,62c539a0b694e094fca2e558,2022-07-06_09h36.59.648,Colour_Asymmetry_Pilot,2022.1.3,Win32,31.99897603,62c50e9c1127f2cd403a315f,0,20,20,113,1,onethree,,,,,,,,,,,,,,,,,,,,,,,,,,,,,,,,,,,,,,,,,,,,,,,,,,,,,,,,,,,,,,,,,,,,,,,,,,,,,,,,,,,,,,,,,,,,,,,,,,,,,,,,,,,,,,,,,,,,,,,,,,,,,,,,,,,,,,,,,,,,,,,,,,,,,,,,,,,,,
,,,,,,6130d9dc1ffddcec1e925b4b,62c539a0b694e094fca2e558,2022-07-06_09h36.59.648,Colour_Asymmetry_Pilot,2022.1.3,Win32,31.99897603,62c50e9c1127f2cd403a315f,0,21,21,131,1,twofour,,,,,,,,,,,,,,,,,,,,,,,,,,,,,,,,,,,,,,,,,,,,,,,,,,,,,,,,,,,,,,,,,,,,,,,,,,,,,,,,,,,,,,,,,,,,,,,,,,,,,,,,,,,,,,,,,,,,,,,,,,,,,,,,,,,,,,,,,,,,,,,,,,,,,,,,,,,,,
,,,,,,6130d9dc1ffddcec1e925b4b,62c539a0b694e094fca2e558,2022-07-06_09h36.59.648,Colour_Asymmetry_Pilot,2022.1.3,Win32,31.99897603,62c50e9c1127f2cd403a315f,0,22,22,19,1,twofour,,,,,,,,,,,,,,,,,,,,,,,,,,,,,,,,,,,,,,,,,,,,,,,,,,,,,,,,,,,,,,,,,,,,,,,,,,,,,,,,,,,,,,,,,,,,,,,,,,,,,,,,,,,,,,,,,,,,,,,,,,,,,,,,,,,,,,,,,,,,,,,,,,,,,,,,,,,,,
,,,,,,6130d9dc1ffddcec1e925b4b,62c539a0b694e094fca2e558,2022-07-06_09h36.59.648,Colour_Asymmetry_Pilot,2022.1.3,Win32,31.99897603,62c50e9c1127f2cd403a315f,0,23,23,137,1,onethree,,,,,,,,,,,,,,,,,,,,,,,,,,,,,,,,,,,,,,,,,,,,,,,,,,,,,,,,,,,,,,,,,,,,,,,,,,,,,,,,,,,,,,,,,,,,,,,,,,,,,,,,,,,,,,,,,,,,,,,,,,,,,,,,,,,,,,,,,,,,,,,,,,,,,,,,,,,,,
,,,,,,6130d9dc1ffddcec1e925b4b,62c539a0b694e094fca2e558,2022-07-06_09h36.59.648,Colour_Asymmetry_Pilot,2022.1.3,Win32,31.99897603,62c50e9c1127f2cd403a315f,0,24,24,11,1,twofour,,,,,,,,,,,,,,,,,,,,,,,,,,,,,,,,,,,,,,,,,,,,,,,,,,,,,,,,,,,,,,,,,,,,,,,,,,,,,,,,,,,,,,,,,,,,,,,,,,,,,,,,,,,,,,,,,,,,,,,,,,,,,,,,,,,,,,,,,,,,,,,,,,,,,,,,,,,,,
,,,,,,6130d9dc1ffddcec1e925b4b,62c539a0b694e094fca2e558,2022-07-06_09h36.59.648,Colour_Asymmetry_Pilot,2022.1.3,Win32,31.99897603,62c50e9c1127f2cd403a315f,0,25,25,48,1,onetwo,,,,,,,,,,,,,,,,,,,,,,,,,,,,,,,,,,,,,,,,,,,,,,,,,,,,,,,,,,,,,,,,,,,,,,,,,,,,,,,,,,,,,,,,,,,,,,,,,,,,,,,,,,,,,,,,,,,,,,,,,,,,,,,,,,,,,,,,,,,,,,,,,,,,,,,,,,,,,
,,,,,,6130d9dc1ffddcec1e925b4b,62c539a0b694e094fca2e558,2022-07-06_09h36.59.648,Colour_Asymmetry_Pilot,2022.1.3,Win32,31.99897603,62c50e9c1127f2cd403a315f,0,26,26,116,1,threeone,,,,,,,,,,,,,,,,,,,,,,,,,,,,,,,,,,,,,,,,,,,,,,,,,,,,,,,,,,,,,,,,,,,,,,,,,,,,,,,,,,,,,,,,,,,,,,,,,,,,,,,,,,,,,,,,,,,,,,,,,,,,,,,,,,,,,,,,,,,,,,,,,,,,,,,,,,,,,
,,,,,,6130d9dc1ffddcec1e925b4b,62c539a0b694e094fca2e558,2022-07-06_09h36.59.648,Colour_Asymmetry_Pilot,2022.1.3,Win32,31.99897603,62c50e9c1127f2cd403a315f,0,27,27,29,1,threefour,,,,,,,,,,,,,,,,,,,,,,,,,,,,,,,,,,,,,,,,,,,,,,,,,,,,,,,,,,,,,,,,,,,,,,,,,,,,,,,,,,,,,,,,,,,,,,,,,,,,,,,,,,,,,,,,,,,,,,,,,,,,,,,,,,,,,,,,,,,,,,,,,,,,,,,,,,,,,
,,,,,,6130d9dc1ffddcec1e925b4b,62c539a0b694e094fca2e558,2022-07-06_09h36.59.648,Colour_Asymmetry_Pilot,2022.1.3,Win32,31.99897603,62c50e9c1127f2cd403a315f,0,28,28,31,1,fourthree,,,,,,,,,,,,,,,,,,,,,,,,,,,,,,,,,,,,,,,,,,,,,,,,,,,,,,,,,,,,,,,,,,,,,,,,,,,,,,,,,,,,,,,,,,,,,,,,,,,,,,,,,,,,,,,,,,,,,,,,,,,,,,,,,,,,,,,,,,,,,,,,,,,,,,,,,,,,,
,,,,,,6130d9dc1ffddcec1e925b4b,62c539a0b694e094fca2e558,2022-07-06_09h36.59.648,Colour_Asymmetry_Pilot,2022.1.3,Win32,31.99897603,62c50e9c1127f2cd403a315f,0,29,29,47,1,fourthree,,,,,,,,,,,,,,,,,,,,,,,,,,,,,,,,,,,,,,,,,,,,,,,,,,,,,,,,,,,,,,,,,,,,,,,,,,,,,,,,,,,,,,,,,,,,,,,,,,,,,,,,,,,,,,,,,,,,,,,,,,,,,,,,,,,,,,,,,,,,,,,,,,,,,,,,,,,,,
,,,,,,6130d9dc1ffddcec1e925b4b,62c539a0b694e094fca2e558,2022-07-06_09h36.59.648,Colour_Asymmetry_Pilot,2022.1.3,Win32,31.99897603,62c50e9c1127f2cd403a315f,0,30,30,159,1,fourthree,,,,,,,,,,,,,,,,,,,,,,,,,,,,,,,,,,,,,,,,,,,,,,,,,,,,,,,,,,,,,,,,,,,,,,,,,,,,,,,,,,,,,,,,,,,,,,,,,,,,,,,,,,,,,,,,,,,,,,,,,,,,,,,,,,,,,,,,,,,,,,,,,,,,,,,,,,,,,
,,,,,,6130d9dc1ffddcec1e925b4b,62c539a0b694e094fca2e558,2022-07-06_09h36.59.648,Colour_Asymmetry_Pilot,2022.1.3,Win32,31.99897603,62c50e9c1127f2cd403a315f,0,31,31,72,1,onetwo,,,,,,,,,,,,,,,,,,,,,,,,,,,,,,,,,,,,,,,,,,,,,,,,,,,,,,,,,,,,,,,,,,,,,,,,,,,,,,,,,,,,,,,,,,,,,,,,,,,,,,,,,,,,,,,,,,,,,,,,,,,,,,,,,,,,,,,,,,,,,,,,,,,,,,,,,,,,,
,,,,,,6130d9dc1ffddcec1e925b4b,62c539a0b694e094fca2e558,2022-07-06_09h36.59.648,Colour_Asymmetry_Pilot,2022.1.3,Win32,31.99897603,62c50e9c1127f2cd403a315f,0,32,32,80,1,onetwo,,,,,,,,,,,,,,,,,,,,,,,,,,,,,,,,,,,,,,,,,,,,,,,,,,,,,,,,,,,,,,,,,,,,,,,,,,,,,,,,,,,,,,,,,,,,,,,,,,,,,,,,,,,,,,,,,,,,,,,,,,,,,,,,,,,,,,,,,,,,,,,,,,,,,,,,,,,,,
,,,,,,6130d9dc1ffddcec1e925b4b,62c539a0b694e094fca2e558,2022-07-06_09h36.59.648,Colour_Asymmetry_Pilot,2022.1.3,Win32,31.99897603,62c50e9c1127f2cd403a315f,0,33,33,105,1,onethree,,,,,,,,,,,,,,,,,,,,,,,,,,,,,,,,,,,,,,,,,,,,,,,,,,,,,,,,,,,,,,,,,,,,,,,,,,,,,,,,,,,,,,,,,,,,,,,,,,,,,,,,,,,,,,,,,,,,,,,,,,,,,,,,,,,,,,,,,,,,,,,,,,,,,,,,,,,,,
,,,,,,6130d9dc1ffddcec1e925b4b,62c539a0b694e094fca2e558,2022-07-06_09h36.59.648,Colour_Asymmetry_Pilot,2022.1.3,Win32,31.99897603,62c50e9c1127f2cd403a315f,0,34,34,33,1,onethree,,,,,,,,,,,,,,,,,,,,,,,,,,,,,,,,,,,,,,,,,,,,,,,,,,,,,,,,,,,,,,,,,,,,,,,,,,,,,,,,,,,,,,,,,,,,,,,,,,,,,,,,,,,,,,,,,,,,,,,,,,,,,,,,,,,,,,,,,,,,,,,,,,,,,,,,,,,,,
,,,,,,6130d9dc1ffddcec1e925b4b,62c539a0b694e094fca2e558,2022-07-06_09h36.59.648,Colour_Asymmetry_Pilot,2022.1.3,Win32,31.99897603,62c50e9c1127f2cd403a315f,0,35,35,32,1,onetwo,,,,,,,,,,,,,,,,,,,,,,,,,,,,,,,,,,,,,,,,,,,,,,,,,,,,,,,,,,,,,,,,,,,,,,,,,,,,,,,,,,,,,,,,,,,,,,,,,,,,,,,,,,,,,,,,,,,,,,,,,,,,,,,,,,,,,,,,,,,,,,,,,,,,,,,,,,,,,
,,,,,,6130d9dc1ffddcec1e925b4b,62c539a0b694e094fca2e558,2022-07-06_09h36.59.648,Colour_Asymmetry_Pilot,2022.1.3,Win32,31.99897603,62c50e9c1127f2cd403a315f,0,36,36,17,1,onethree,,,,,,,,,,,,,,,,,,,,,,,,,,,,,,,,,,,,,,,,,,,,,,,,,,,,,,,,,,,,,,,,,,,,,,,,,,,,,,,,,,,,,,,,,,,,,,,,,,,,,,,,,,,,,,,,,,,,,,,,,,,,,,,,,,,,,,,,,,,,,,,,,,,,,,,,,,,,,
,,,,,,6130d9dc1ffddcec1e925b4b,62c539a0b694e094fca2e558,2022-07-06_09h36.59.648,Colour_Asymmetry_Pilot,2022.1.3,Win32,31.99897603,62c50e9c1127f2cd403a315f,0,37,37,93,1,threefour,,,,,,,,,,,,,,,,,,,,,,,,,,,,,,,,,,,,,,,,,,,,,,,,,,,,,,,,,,,,,,,,,,,,,,,,,,,,,,,,,,,,,,,,,,,,,,,,,,,,,,,,,,,,,,,,,,,,,,,,,,,,,,,,,,,,,,,,,,,,,,,,,,,,,,,,,,,,,
,,,,,,6130d9dc1ffddcec1e925b4b,62c539a0b694e094fca2e558,2022-07-06_09h36.59.648,Colour_Asymmetry_Pilot,2022.1.3,Win32,31.99897603,62c50e9c1127f2cd403a315f,0,38,38,49,1,onethree,,,,,,,,,,,,,,,,,,,,,,,,,,,,,,,,,,,,,,,,,,,,,,,,,,,,,,,,,,,,,,,,,,,,,,,,,,,,,,,,,,,,,,,,,,,,,,,,,,,,,,,,,,,,,,,,,,,,,,,,,,,,,,,,,,,,,,,,,,,,,,,,,,,,,,,,,,,,,
,,,,,,6130d9dc1ffddcec1e925b4b,62c539a0b694e094fca2e558,2022-07-06_09h36.59.648,Colour_Asymmetry_Pilot,2022.1.3,Win32,31.99897603,62c50e9c1127f2cd403a315f,0,39,39,106,1,twoone,,,,,,,,,,,,,,,,,,,,,,,,,,,,,,,,,,,,,,,,,,,,,,,,,,,,,,,,,,,,,,,,,,,,,,,,,,,,,,,,,,,,,,,,,,,,,,,,,,,,,,,,,,,,,,,,,,,,,,,,,,,,,,,,,,,,,,,,,,,,,,,,,,,,,,,,,,,,,
,,,,,,6130d9dc1ffddcec1e925b4b,62c539a0b694e094fca2e558,2022-07-06_09h36.59.648,Colour_Asymmetry_Pilot,2022.1.3,Win32,31.99897603,62c50e9c1127f2cd403a315f,0,40,40,37,1,threefour,,,,,,,,,,,,,,,,,,,,,,,,,,,,,,,,,,,,,,,,,,,,,,,,,,,,,,,,,,,,,,,,,,,,,,,,,,,,,,,,,,,,,,,,,,,,,,,,,,,,,,,,,,,,,,,,,,,,,,,,,,,,,,,,,,,,,,,,,,,,,,,,,,,,,,,,,,,,,
,,,,,,6130d9dc1ffddcec1e925b4b,62c539a0b694e094fca2e558,2022-07-06_09h36.59.648,Colour_Asymmetry_Pilot,2022.1.3,Win32,31.99897603,62c50e9c1127f2cd403a315f,0,41,41,79,1,fourthree,,,,,,,,,,,,,,,,,,,,,,,,,,,,,,,,,,,,,,,,,,,,,,,,,,,,,,,,,,,,,,,,,,,,,,,,,,,,,,,,,,,,,,,,,,,,,,,,,,,,,,,,,,,,,,,,,,,,,,,,,,,,,,,,,,,,,,,,,,,,,,,,,,,,,,,,,,,,,
,,,,,,6130d9dc1ffddcec1e925b4b,62c539a0b694e094fca2e558,2022-07-06_09h36.59.648,Colour_Asymmetry_Pilot,2022.1.3,Win32,31.99897603,62c50e9c1127f2cd403a315f,0,42,42,51,1,twofour,,,,,,,,,,,,,,,,,,,,,,,,,,,,,,,,,,,,,,,,,,,,,,,,,,,,,,,,,,,,,,,,,,,,,,,,,,,,,,,,,,,,,,,,,,,,,,,,,,,,,,,,,,,,,,,,,,,,,,,,,,,,,,,,,,,,,,,,,,,,,,,,,,,,,,,,,,,,,
,,,,,,6130d9dc1ffddcec1e925b4b,62c539a0b694e094fca2e558,2022-07-06_09h36.59.648,Colour_Asymmetry_Pilot,2022.1.3,Win32,31.99897603,62c50e9c1127f2cd403a315f,0,43,43,121,1,onethree,,,,,,,,,,,,,,,,,,,,,,,,,,,,,,,,,,,,,,,,,,,,,,,,,,,,,,,,,,,,,,,,,,,,,,,,,,,,,,,,,,,,,,,,,,,,,,,,,,,,,,,,,,,,,,,,,,,,,,,,,,,,,,,,,,,,,,,,,,,,,,,,,,,,,,,,,,,,,
,,,,,,6130d9dc1ffddcec1e925b4b,62c539a0b694e094fca2e558,2022-07-06_09h36.59.648,Colour_Asymmetry_Pilot,2022.1.3,Win32,31.99897603,62c50e9c1127f2cd403a315f,0,44,44,82,1,twoone,,,,,,,,,,,,,,,,,,,,,,,,,,,,,,,,,,,,,,,,,,,,,,,,,,,,,,,,,,,,,,,,,,,,,,,,,,,,,,,,,,,,,,,,,,,,,,,,,,,,,,,,,,,,,,,,,,,,,,,,,,,,,,,,,,,,,,,,,,,,,,,,,,,,,,,,,,,,,
,,,,,,6130d9dc1ffddcec1e925b4b,62c539a0b694e094fca2e558,2022-07-06_09h36.59.648,Colour_Asymmetry_Pilot,2022.1.3,Win32,31.99897603,62c50e9c1127f2cd403a315f,0,45,45,63,1,fourthree,,,,,,,,,,,,,,,,,,,,,,,,,,,,,,,,,,,,,,,,,,,,,,,,,,,,,,,,,,,,,,,,,,,,,,,,,,,,,,,,,,,,,,,,,,,,,,,,,,,,,,,,,,,,,,,,,,,,,,,,,,,,,,,,,,,,,,,,,,,,,,,,,,,,,,,,,,,,,
,,,,,,6130d9dc1ffddcec1e925b4b,62c539a0b694e094fca2e558,2022-07-06_09h36.59.648,Colour_Asymmetry_Pilot,2022.1.3,Win32,31.99897603,62c50e9c1127f2cd403a315f,0,46,46,118,1,fourtwo,,,,,,,,,,,,,,,,,,,,,,,,,,,,,,,,,,,,,,,,,,,,,,,,,,,,,,,,,,,,,,,,,,,,,,,,,,,,,,,,,,,,,,,,,,,,,,,,,,,,,,,,,,,,,,,,,,,,,,,,,,,,,,,,,,,,,,,,,,,,,,,,,,,,,,,,,,,,,
,,,,,,6130d9dc1ffddcec1e925b4b,62c539a0b694e094fca2e558,2022-07-06_09h36.59.648,Colour_Asymmetry_Pilot,2022.1.3,Win32,31.99897603,62c50e9c1127f2cd403a315f,0,47,47,134,1,fourtwo,,,,,,,,,,,,,,,,,,,,,,,,,,,,,,,,,,,,,,,,,,,,,,,,,,,,,,,,,,,,,,,,,,,,,,,,,,,,,,,,,,,,,,,,,,,,,,,,,,,,,,,,,,,,,,,,,,,,,,,,,,,,,,,,,,,,,,,,,,,,,,,,,,,,,,,,,,,,,
,,,,,,6130d9dc1ffddcec1e925b4b,62c539a0b694e094fca2e558,2022-07-06_09h36.59.648,Colour_Asymmetry_Pilot,2022.1.3,Win32,31.99897603,62c50e9c1127f2cd403a315f,0,48,48,125,1,threefour,,,,,,,,,,,,,,,,,,,,,,,,,,,,,,,,,,,,,,,,,,,,,,,,,,,,,,,,,,,,,,,,,,,,,,,,,,,,,,,,,,,,,,,,,,,,,,,,,,,,,,,,,,,,,,,,,,,,,,,,,,,,,,,,,,,,,,,,,,,,,,,,,,,,,,,,,,,,,
,,,,,,6130d9dc1ffddcec1e925b4b,62c539a0b694e094fca2e558,2022-07-06_09h36.59.648,Colour_Asymmetry_Pilot,2022.1.3,Win32,31.99897603,62c50e9c1127f2cd403a315f,0,49,49,16,1,onetwo,,,,,,,,,,,,,,,,,,,,,,,,,,,,,,,,,,,,,,,,,,,,,,,,,,,,,,,,,,,,,,,,,,,,,,,,,,,,,,,,,,,,,,,,,,,,,,,,,,,,,,,,,,,,,,,,,,,,,,,,,,,,,,,,,,,,,,,,,,,,,,,,,,,,,,,,,,,,,
,,,,,,6130d9dc1ffddcec1e925b4b,62c539a0b694e094fca2e558,2022-07-06_09h36.59.648,Colour_Asymmetry_Pilot,2022.1.3,Win32,31.99897603,62c50e9c1127f2cd403a315f,0,50,50,133,1,threefour,,,,,,,,,,,,,,,,,,,,,,,,,,,,,,,,,,,,,,,,,,,,,,,,,,,,,,,,,,,,,,,,,,,,,,,,,,,,,,,,,,,,,,,,,,,,,,,,,,,,,,,,,,,,,,,,,,,,,,,,,,,,,,,,,,,,,,,,,,,,,,,,,,,,,,,,,,,,,
,,,,,,6130d9dc1ffddcec1e925b4b,62c539a0b694e094fca2e558,2022-07-06_09h36.59.648,Colour_Asymmetry_Pilot,2022.1.3,Win32,31.99897603,62c50e9c1127f2cd403a315f,0,51,51,96,1,onetwo,,,,,,,,,,,,,,,,,,,,,,,,,,,,,,,,,,,,,,,,,,,,,,,,,,,,,,,,,,,,,,,,,,,,,,,,,,,,,,,,,,,,,,,,,,,,,,,,,,,,,,,,,,,,,,,,,,,,,,,,,,,,,,,,,,,,,,,,,,,,,,,,,,,,,,,,,,,,,
,,,,,,6130d9dc1ffddcec1e925b4b,62c539a0b694e094fca2e558,2022-07-06_09h36.59.648,Colour_Asymmetry_Pilot,2022.1.3,Win32,31.99897603,62c50e9c1127f2cd403a315f,0,52,52,2,1,twoone,,,,,,,,,,,,,,,,,,,,,,,,,,,,,,,,,,,,,,,,,,,,,,,,,,,,,,,,,,,,,,,,,,,,,,,,,,,,,,,,,,,,,,,,,,,,,,,,,,,,,,,,,,,,,,,,,,,,,,,,,,,,,,,,,,,,,,,,,,,,,,,,,,,,,,,,,,,,,
,,,,,,6130d9dc1ffddcec1e925b4b,62c539a0b694e094fca2e558,2022-07-06_09h36.59.648,Colour_Asymmetry_Pilot,2022.1.3,Win32,31.99897603,62c50e9c1127f2cd403a315f,0,53,53,150,1,fourtwo,,,,,,,,,,,,,,,,,,,,,,,,,,,,,,,,,,,,,,,,,,,,,,,,,,,,,,,,,,,,,,,,,,,,,,,,,,,,,,,,,,,,,,,,,,,,,,,,,,,,,,,,,,,,,,,,,,,,,,,,,,,,,,,,,,,,,,,,,,,,,,,,,,,,,,,,,,,,,
,,,,,,6130d9dc1ffddcec1e925b4b,62c539a0b694e094fca2e558,2022-07-06_09h36.59.648,Colour_Asymmetry_Pilot,2022.1.3,Win32,31.99897603,62c50e9c1127f2cd403a315f,0,54,54,126,1,fourtwo,,,,,,,,,,,,,,,,,,,,,,,,,,,,,,,,,,,,,,,,,,,,,,,,,,,,,,,,,,,,,,,,,,,,,,,,,,,,,,,,,,,,,,,,,,,,,,,,,,,,,,,,,,,,,,,,,,,,,,,,,,,,,,,,,,,,,,,,,,,,,,,,,,,,,,,,,,,,,
,,,,,,6130d9dc1ffddcec1e925b4b,62c539a0b694e094fca2e558,2022-07-06_09h36.59.648,Colour_Asymmetry_Pilot,2022.1.3,Win32,31.99897603,62c50e9c1127f2cd403a315f,0,55,55,42,1,twoone,,,,,,,,,,,,,,,,,,,,,,,,,,,,,,,,,,,,,,,,,,,,,,,,,,,,,,,,,,,,,,,,,,,,,,,,,,,,,,,,,,,,,,,,,,,,,,,,,,,,,,,,,,,,,,,,,,,,,,,,,,,,,,,,,,,,,,,,,,,,,,,,,,,,,,,,,,,,,
,,,,,,6130d9dc1ffddcec1e925b4b,62c539a0b694e094fca2e558,2022-07-06_09h36.59.648,Colour_Asymmetry_Pilot,2022.1.3,Win32,31.99897603,62c50e9c1127f2cd403a315f,0,56,56,14,1,fourtwo,,,,,,,,,,,,,,,,,,,,,,,,,,,,,,,,,,,,,,,,,,,,,,,,,,,,,,,,,,,,,,,,,,,,,,,,,,,,,,,,,,,,,,,,,,,,,,,,,,,,,,,,,,,,,,,,,,,,,,,,,,,,,,,,,,,,,,,,,,,,,,,,,,,,,,,,,,,,,
,,,,,,6130d9dc1ffddcec1e925b4b,62c539a0b694e094fca2e558,2022-07-06_09h36.59.648,Colour_Asymmetry_Pilot,2022.1.3,Win32,31.99897603,62c50e9c1127f2cd403a315f,0,57,57,34,1,twoone,,,,,,,,,,,,,,,,,,,,,,,,,,,,,,,,,,,,,,,,,,,,,,,,,,,,,,,,,,,,,,,,,,,,,,,,,,,,,,,,,,,,,,,,,,,,,,,,,,,,,,,,,,,,,,,,,,,,,,,,,,,,,,,,,,,,,,,,,,,,,,,,,,,,,,,,,,,,,
,,,,,,6130d9dc1ffddcec1e925b4b,62c539a0b694e094fca2e558,2022-07-06_09h36.59.648,Colour_Asymmetry_Pilot,2022.1.3,Win32,31.99897603,62c50e9c1127f2cd403a315f,0,58,58,144,1,onetwo,,,,,,,,,,,,,,,,,,,,,,,,,,,,,,,,,,,,,,,,,,,,,,,,,,,,,,,,,,,,,,,,,,,,,,,,,,,,,,,,,,,,,,,,,,,,,,,,,,,,,,,,,,,,,,,,,,,,,,,,,,,,,,,,,,,,,,,,,,,,,,,,,,,,,,,,,,,,,
,,,,,,6130d9dc1ffddcec1e925b4b,62c539a0b694e094fca2e558,2022-07-06_09h36.59.648,Colour_Asymmetry_Pilot,2022.1.3,Win32,31.99897603,62c50e9c1127f2cd403a315f,0,59,59,1,1,onethree,,,,,,,,,,,,,,,,,,,,,,,,,,,,,,,,,,,,,,,,,,,,,,,,,,,,,,,,,,,,,,,,,,,,,,,,,,,,,,,,,,,,,,,,,,,,,,,,,,,,,,,,,,,,,,,,,,,,,,,,,,,,,,,,,,,,,,,,,,,,,,,,,,,,,,,,,,,,,
,,,,,,6130d9dc1ffddcec1e925b4b,62c539a0b694e094fca2e558,2022-07-06_09h36.59.648,Colour_Asymmetry_Pilot,2022.1.3,Win32,31.99897603,62c50e9c1127f2cd403a315f,0,60,60,58,1,twoone,,,,,,,,,,,,,,,,,,,,,,,,,,,,,,,,,,,,,,,,,,,,,,,,,,,,,,,,,,,,,,,,,,,,,,,,,,,,,,,,,,,,,,,,,,,,,,,,,,,,,,,,,,,,,,,,,,,,,,,,,,,,,,,,,,,,,,,,,,,,,,,,,,,,,,,,,,,,,
,,,,,,6130d9dc1ffddcec1e925b4b,62c539a0b694e094fca2e558,2022-07-06_09h36.59.648,Colour_Asymmetry_Pilot,2022.1.3,Win32,31.99897603,62c50e9c1127f2cd403a315f,0,61,61,153,1,onethree,,,,,,,,,,,,,,,,,,,,,,,,,,,,,,,,,,,,,,,,,,,,,,,,,,,,,,,,,,,,,,,,,,,,,,,,,,,,,,,,,,,,,,,,,,,,,,,,,,,,,,,,,,,,,,,,,,,,,,,,,,,,,,,,,,,,,,,,,,,,,,,,,,,,,,,,,,,,,
,,,,,,6130d9dc1ffddcec1e925b4b,62c539a0b694e094fca2e558,2022-07-06_09h36.59.648,Colour_Asymmetry_Pilot,2022.1.3,Win32,31.99897603,62c50e9c1127f2cd403a315f,0,62,62,13,1,threefour,,,,,,,,,,,,,,,,,,,,,,,,,,,,,,,,,,,,,,,,,,,,,,,,,,,,,,,,,,,,,,,,,,,,,,,,,,,,,,,,,,,,,,,,,,,,,,,,,,,,,,,,,,,,,,,,,,,,,,,,,,,,,,,,,,,,,,,,,,,,,,,,,,,,,,,,,,,,,
,,,,,,6130d9dc1ffddcec1e925b4b,62c539a0b694e094fca2e558,2022-07-06_09h36.59.648,Colour_Asymmetry_Pilot,2022.1.3,Win32,31.99897603,62c50e9c1127f2cd403a315f,0,63,63,85,1,threefour,,,,,,,,,,,,,,,,,,,,,,,,,,,,,,,,,,,,,,,,,,,,,,,,,,,,,,,,,,,,,,,,,,,,,,,,,,,,,,,,,,,,,,,,,,,,,,,,,,,,,,,,,,,,,,,,,,,,,,,,,,,,,,,,,,,,,,,,,,,,,,,,,,,,,,,,,,,,,
,,,,,,6130d9dc1ffddcec1e925b4b,62c539a0b694e094fca2e558,2022-07-06_09h36.59.648,Colour_Asymmetry_Pilot,2022.1.3,Win32,31.99897603,62c50e9c1127f2cd403a315f,0,64,64,142,1,fourtwo,,,,,,,,,,,,,,,,,,,,,,,,,,,,,,,,,,,,,,,,,,,,,,,,,,,,,,,,,,,,,,,,,,,,,,,,,,,,,,,,,,,,,,,,,,,,,,,,,,,,,,,,,,,,,,,,,,,,,,,,,,,,,,,,,,,,,,,,,,,,,,,,,,,,,,,,,,,,,
,,,,,,6130d9dc1ffddcec1e925b4b,62c539a0b694e094fca2e558,2022-07-06_09h36.59.648,Colour_Asymmetry_Pilot,2022.1.3,Win32,31.99897603,62c50e9c1127f2cd403a315f,0,65,65,117,1,threefour,,,,,,,,,,,,,,,,,,,,,,,,,,,,,,,,,,,,,,,,,,,,,,,,,,,,,,,,,,,,,,,,,,,,,,,,,,,,,,,,,,,,,,,,,,,,,,,,,,,,,,,,,,,,,,,,,,,,,,,,,,,,,,,,,,,,,,,,,,,,,,,,,,,,,,,,,,,,,
,,,,,,6130d9dc1ffddcec1e925b4b,62c539a0b694e094fca2e558,2022-07-06_09h36.59.648,Colour_Asymmetry_Pilot,2022.1.3,Win32,31.99897603,62c50e9c1127f2cd403a315f,0,66,66,55,1,fourthree,,,,,,,,,,,,,,,,,,,,,,,,,,,,,,,,,,,,,,,,,,,,,,,,,,,,,,,,,,,,,,,,,,,,,,,,,,,,,,,,,,,,,,,,,,,,,,,,,,,,,,,,,,,,,,,,,,,,,,,,,,,,,,,,,,,,,,,,,,,,,,,,,,,,,,,,,,,,,
,,,,,,6130d9dc1ffddcec1e925b4b,62c539a0b694e094fca2e558,2022-07-06_09h36.59.648,Colour_Asymmetry_Pilot,2022.1.3,Win32,31.99897603,62c50e9c1127f2cd403a315f,0,67,67,114,1,twoone,,,,,,,,,,,,,,,,,,,,,,,,,,,,,,,,,,,,,,,,,,,,,,,,,,,,,,,,,,,,,,,,,,,,,,,,,,,,,,,,,,,,,,,,,,,,,,,,,,,,,,,,,,,,,,,,,,,,,,,,,,,,,,,,,,,,,,,,,,,,,,,,,,,,,,,,,,,,,
,,,,,,6130d9dc1ffddcec1e925b4b,62c539a0b694e094fca2e558,2022-07-06_09h36.59.648,Colour_Asymmetry_Pilot,2022.1.3,Win32,31.99897603,62c50e9c1127f2cd403a315f,0,68,68,100,1,threeone,,,,,,,,,,,,,,,,,,,,,,,,,,,,,,,,,,,,,,,,,,,,,,,,,,,,,,,,,,,,,,,,,,,,,,,,,,,,,,,,,,,,,,,,,,,,,,,,,,,,,,,,,,,,,,,,,,,,,,,,,,,,,,,,,,,,,,,,,,,,,,,,,,,,,,,,,,,,,
,,,,,,6130d9dc1ffddcec1e925b4b,62c539a0b694e094fca2e558,2022-07-06_09h36.59.648,Colour_Asymmetry_Pilot,2022.1.3,Win32,31.99897603,62c50e9c1127f2cd403a315f,0,69,69,92,1,threeone,,,,,,,,,,,,,,,,,,,,,,,,,,,,,,,,,,,,,,,,,,,,,,,,,,,,,,,,,,,,,,,,,,,,,,,,,,,,,,,,,,,,,,,,,,,,,,,,,,,,,,,,,,,,,,,,,,,,,,,,,,,,,,,,,,,,,,,,,,,,,,,,,,,,,,,,,,,,,
,,,,,,6130d9dc1ffddcec1e925b4b,62c539a0b694e094fca2e558,2022-07-06_09h36.59.648,Colour_Asymmetry_Pilot,2022.1.3,Win32,31.99897603,62c50e9c1127f2cd403a315f,0,70,70,108,1,threeone,,,,,,,,,,,,,,,,,,,,,,,,,,,,,,,,,,,,,,,,,,,,,,,,,,,,,,,,,,,,,,,,,,,,,,,,,,,,,,,,,,,,,,,,,,,,,,,,,,,,,,,,,,,,,,,,,,,,,,,,,,,,,,,,,,,,,,,,,,,,,,,,,,,,,,,,,,,,,
,,,,,,6130d9dc1ffddcec1e925b4b,62c539a0b694e094fca2e558,2022-07-06_09h36.59.648,Colour_Asymmetry_Pilot,2022.1.3,Win32,31.99897603,62c50e9c1127f2cd403a315f,0,71,71,67,1,twofour,,,,,,,,,,,,,,,,,,,,,,,,,,,,,,,,,,,,,,,,,,,,,,,,,,,,,,,,,,,,,,,,,,,,,,,,,,,,,,,,,,,,,,,,,,,,,,,,,,,,,,,,,,,,,,,,,,,,,,,,,,,,,,,,,,,,,,,,,,,,,,,,,,,,,,,,,,,,,
,,,,,,6130d9dc1ffddcec1e925b4b,62c539a0b694e094fca2e558,2022-07-06_09h36.59.648,Colour_Asymmetry_Pilot,2022.1.3,Win32,31.99897603,62c50e9c1127f2cd403a315f,0,72,72,110,1,fourtwo,,,,,,,,,,,,,,,,,,,,,,,,,,,,,,,,,,,,,,,,,,,,,,,,,,,,,,,,,,,,,,,,,,,,,,,,,,,,,,,,,,,,,,,,,,,,,,,,,,,,,,,,,,,,,,,,,,,,,,,,,,,,,,,,,,,,,,,,,,,,,,,,,,,,,,,,,,,,,
,,,,,,6130d9dc1ffddcec1e925b4b,62c539a0b694e094fca2e558,2022-07-06_09h36.59.648,Colour_Asymmetry_Pilot,2022.1.3,Win32,31.99897603,62c50e9c1127f2cd403a315f,0,73,73,120,1,onetwo,,,,,,,,,,,,,,,,,,,,,,,,,,,,,,,,,,,,,,,,,,,,,,,,,,,,,,,,,,,,,,,,,,,,,,,,,,,,,,,,,,,,,,,,,,,,,,,,,,,,,,,,,,,,,,,,,,,,,,,,,,,,,,,,,,,,,,,,,,,,,,,,,,,,,,,,,,,,,
,,,,,,6130d9dc1ffddcec1e925b4b,62c539a0b694e094fca2e558,2022-07-06_09h36.59.648,Colour_Asymmetry_Pilot,2022.1.3,Win32,31.99897603,62c50e9c1127f2cd403a315f,0,74,74,56,1,onetwo,,,,,,,,,,,,,,,,,,,,,,,,,,,,,,,,,,,,,,,,,,,,,,,,,,,,,,,,,,,,,,,,,,,,,,,,,,,,,,,,,,,,,,,,,,,,,,,,,,,,,,,,,,,,,,,,,,,,,,,,,,,,,,,,,,,,,,,,,,,,,,,,,,,,,,,,,,,,,
,,,,,,6130d9dc1ffddcec1e925b4b,62c539a0b694e094fca2e558,2022-07-06_09h36.59.648,Colour_Asymmetry_Pilot,2022.1.3,Win32,31.99897603,62c50e9c1127f2cd403a315f,0,75,75,111,1,fourthree,,,,,,,,,,,,,,,,,,,,,,,,,,,,,,,,,,,,,,,,,,,,,,,,,,,,,,,,,,,,,,,,,,,,,,,,,,,,,,,,,,,,,,,,,,,,,,,,,,,,,,,,,,,,,,,,,,,,,,,,,,,,,,,,,,,,,,,,,,,,,,,,,,,,,,,,,,,,,
,,,,,,6130d9dc1ffddcec1e925b4b,62c539a0b694e094fca2e558,2022-07-06_09h36.59.648,Colour_Asymmetry_Pilot,2022.1.3,Win32,31.99897603,62c50e9c1127f2cd403a315f,0,76,76,9,1,onethree,,,,,,,,,,,,,,,,,,,,,,,,,,,,,,,,,,,,,,,,,,,,,,,,,,,,,,,,,,,,,,,,,,,,,,,,,,,,,,,,,,,,,,,,,,,,,,,,,,,,,,,,,,,,,,,,,,,,,,,,,,,,,,,,,,,,,,,,,,,,,,,,,,,,,,,,,,,,,
,,,,,,6130d9dc1ffddcec1e925b4b,62c539a0b694e094fca2e558,2022-07-06_09h36.59.648,Colour_Asymmetry_Pilot,2022.1.3,Win32,31.99897603,62c50e9c1127f2cd403a315f,0,77,77,151,1,fourthree,,,,,,,,,,,,,,,,,,,,,,,,,,,,,,,,,,,,,,,,,,,,,,,,,,,,,,,,,,,,,,,,,,,,,,,,,,,,,,,,,,,,,,,,,,,,,,,,,,,,,,,,,,,,,,,,,,,,,,,,,,,,,,,,,,,,,,,,,,,,,,,,,,,,,,,,,,,,,
,,,,,,6130d9dc1ffddcec1e925b4b,62c539a0b694e094fca2e558,2022-07-06_09h36.59.648,Colour_Asymmetry_Pilot,2022.1.3,Win32,31.99897603,62c50e9c1127f2cd403a315f,0,78,78,62,1,fourtwo,,,,,,,,,,,,,,,,,,,,,,,,,,,,,,,,,,,,,,,,,,,,,,,,,,,,,,,,,,,,,,,,,,,,,,,,,,,,,,,,,,,,,,,,,,,,,,,,,,,,,,,,,,,,,,,,,,,,,,,,,,,,,,,,,,,,,,,,,,,,,,,,,,,,,,,,,,,,,
,,,,,,6130d9dc1ffddcec1e925b4b,62c539a0b694e094fca2e558,2022-07-06_09h36.59.648,Colour_Asymmetry_Pilot,2022.1.3,Win32,31.99897603,62c50e9c1127f2cd403a315f,0,79,79,149,1,threefour,,,,,,,,,,,,,,,,,,,,,,,,,,,,,,,,,,,,,,,,,,,,,,,,,,,,,,,,,,,,,,,,,,,,,,,,,,,,,,,,,,,,,,,,,,,,,,,,,,,,,,,,,,,,,,,,,,,,,,,,,,,,,,,,,,,,,,,,,,,,,,,,,,,,,,,,,,,,,
,,,,,,6130d9dc1ffddcec1e925b4b,62c539a0b694e094fca2e558,2022-07-06_09h36.59.648,Colour_Asymmetry_Pilot,2022.1.3,Win32,31.99897603,62c50e9c1127f2cd403a315f,0,80,80,44,1,threeone,,,,,,,,,,,,,,,,,,,,,,,,,,,,,,,,,,,,,,,,,,,,,,,,,,,,,,,,,,,,,,,,,,,,,,,,,,,,,,,,,,,,,,,,,,,,,,,,,,,,,,,,,,,,,,,,,,,,,,,,,,,,,,,,,,,,,,,,,,,,,,,,,,,,,,,,,,,,,
,,,,,,6130d9dc1ffddcec1e925b4b,62c539a0b694e094fca2e558,2022-07-06_09h36.59.648,Colour_Asymmetry_Pilot,2022.1.3,Win32,31.99897603,62c50e9c1127f2cd403a315f,0,81,81,154,1,twoone,,,,,,,,,,,,,,,,,,,,,,,,,,,,,,,,,,,,,,,,,,,,,,,,,,,,,,,,,,,,,,,,,,,,,,,,,,,,,,,,,,,,,,,,,,,,,,,,,,,,,,,,,,,,,,,,,,,,,,,,,,,,,,,,,,,,,,,,,,,,,,,,,,,,,,,,,,,,,
,,,,,,6130d9dc1ffddcec1e925b4b,62c539a0b694e094fca2e558,2022-07-06_09h36.59.648,Colour_Asymmetry_Pilot,2022.1.3,Win32,31.99897603,62c50e9c1127f2cd403a315f,0,82,82,84,1,threeone,,,,,,,,,,,,,,,,,,,,,,,,,,,,,,,,,,,,,,,,,,,,,,,,,,,,,,,,,,,,,,,,,,,,,,,,,,,,,,,,,,,,,,,,,,,,,,,,,,,,,,,,,,,,,,,,,,,,,,,,,,,,,,,,,,,,,,,,,,,,,,,,,,,,,,,,,,,,,
,,,,,,6130d9dc1ffddcec1e925b4b,62c539a0b694e094fca2e558,2022-07-06_09h36.59.648,Colour_Asymmetry_Pilot,2022.1.3,Win32,31.99897603,62c50e9c1127f2cd403a315f,0,83,83,41,1,onethree,,,,,,,,,,,,,,,,,,,,,,,,,,,,,,,,,,,,,,,,,,,,,,,,,,,,,,,,,,,,,,,,,,,,,,,,,,,,,,,,,,,,,,,,,,,,,,,,,,,,,,,,,,,,,,,,,,,,,,,,,,,,,,,,,,,,,,,,,,,,,,,,,,,,,,,,,,,,,
,,,,,,6130d9dc1ffddcec1e925b4b,62c539a0b694e094fca2e558,2022-07-06_09h36.59.648,Colour_Asymmetry_Pilot,2022.1.3,Win32,31.99897603,62c50e9c1127f2cd403a315f,0,84,84,112,1,onetwo,,,,,,,,,,,,,,,,,,,,,,,,,,,,,,,,,,,,,,,,,,,,,,,,,,,,,,,,,,,,,,,,,,,,,,,,,,,,,,,,,,,,,,,,,,,,,,,,,,,,,,,,,,,,,,,,,,,,,,,,,,,,,,,,,,,,,,,,,,,,,,,,,,,,,,,,,,,,,
,,,,,,6130d9dc1ffddcec1e925b4b,62c539a0b694e094fca2e558,2022-07-06_09h36.59.648,Colour_Asymmetry_Pilot,2022.1.3,Win32,31.99897603,62c50e9c1127f2cd403a315f,0,85,85,86,1,fourtwo,,,,,,,,,,,,,,,,,,,,,,,,,,,,,,,,,,,,,,,,,,,,,,,,,,,,,,,,,,,,,,,,,,,,,,,,,,,,,,,,,,,,,,,,,,,,,,,,,,,,,,,,,,,,,,,,,,,,,,,,,,,,,,,,,,,,,,,,,,,,,,,,,,,,,,,,,,,,,
,,,,,,6130d9dc1ffddcec1e925b4b,62c539a0b694e094fca2e558,2022-07-06_09h36.59.648,Colour_Asymmetry_Pilot,2022.1.3,Win32,31.99897603,62c50e9c1127f2cd403a315f,0,86,86,115,1,twofour,,,,,,,,,,,,,,,,,,,,,,,,,,,,,,,,,,,,,,,,,,,,,,,,,,,,,,,,,,,,,,,,,,,,,,,,,,,,,,,,,,,,,,,,,,,,,,,,,,,,,,,,,,,,,,,,,,,,,,,,,,,,,,,,,,,,,,,,,,,,,,,,,,,,,,,,,,,,,
,,,,,,6130d9dc1ffddcec1e925b4b,62c539a0b694e094fca2e558,2022-07-06_09h36.59.648,Colour_Asymmetry_Pilot,2022.1.3,Win32,31.99897603,62c50e9c1127f2cd403a315f,0,87,87,103,1,fourthree,,,,,,,,,,,,,,,,,,,,,,,,,,,,,,,,,,,,,,,,,,,,,,,,,,,,,,,,,,,,,,,,,,,,,,,,,,,,,,,,,,,,,,,,,,,,,,,,,,,,,,,,,,,,,,,,,,,,,,,,,,,,,,,,,,,,,,,,,,,,,,,,,,,,,,,,,,,,,
,,,,,,6130d9dc1ffddcec1e925b4b,62c539a0b694e094fca2e558,2022-07-06_09h36.59.648,Colour_Asymmetry_Pilot,2022.1.3,Win32,31.99897603,62c50e9c1127f2cd403a315f,0,88,88,122,1,twoone,,,,,,,,,,,,,,,,,,,,,,,,,,,,,,,,,,,,,,,,,,,,,,,,,,,,,,,,,,,,,,,,,,,,,,,,,,,,,,,,,,,,,,,,,,,,,,,,,,,,,,,,,,,,,,,,,,,,,,,,,,,,,,,,,,,,,,,,,,,,,,,,,,,,,,,,,,,,,
,,,,,,6130d9dc1ffddcec1e925b4b,62c539a0b694e094fca2e558,2022-07-06_09h36.59.648,Colour_Asymmetry_Pilot,2022.1.3,Win32,31.99897603,62c50e9c1127f2cd403a315f,0,89,89,119,1,fourthree,,,,,,,,,,,,,,,,,,,,,,,,,,,,,,,,,,,,,,,,,,,,,,,,,,,,,,,,,,,,,,,,,,,,,,,,,,,,,,,,,,,,,,,,,,,,,,,,,,,,,,,,,,,,,,,,,,,,,,,,,,,,,,,,,,,,,,,,,,,,,,,,,,,,,,,,,,,,,
,,,,,,6130d9dc1ffddcec1e925b4b,62c539a0b694e094fca2e558,2022-07-06_09h36.59.648,Colour_Asymmetry_Pilot,2022.1.3,Win32,31.99897603,62c50e9c1127f2cd403a315f,0,90,90,107,1,twofour,,,,,,,,,,,,,,,,,,,,,,,,,,,,,,,,,,,,,,,,,,,,,,,,,,,,,,,,,,,,,,,,,,,,,,,,,,,,,,,,,,,,,,,,,,,,,,,,,,,,,,,,,,,,,,,,,,,,,,,,,,,,,,,,,,,,,,,,,,,,,,,,,,,,,,,,,,,,,
,,,,,,6130d9dc1ffddcec1e925b4b,62c539a0b694e094fca2e558,2022-07-06_09h36.59.648,Colour_Asymmetry_Pilot,2022.1.3,Win32,31.99897603,62c50e9c1127f2cd403a315f,0,91,91,155,1,twofour,,,,,,,,,,,,,,,,,,,,,,,,,,,,,,,,,,,,,,,,,,,,,,,,,,,,,,,,,,,,,,,,,,,,,,,,,,,,,,,,,,,,,,,,,,,,,,,,,,,,,,,,,,,,,,,,,,,,,,,,,,,,,,,,,,,,,,,,,,,,,,,,,,,,,,,,,,,,,
,,,,,,6130d9dc1ffddcec1e925b4b,62c539a0b694e094fca2e558,2022-07-06_09h36.59.648,Colour_Asymmetry_Pilot,2022.1.3,Win32,31.99897603,62c50e9c1127f2cd403a315f,0,92,92,45,1,threefour,,,,,,,,,,,,,,,,,,,,,,,,,,,,,,,,,,,,,,,,,,,,,,,,,,,,,,,,,,,,,,,,,,,,,,,,,,,,,,,,,,,,,,,,,,,,,,,,,,,,,,,,,,,,,,,,,,,,,,,,,,,,,,,,,,,,,,,,,,,,,,,,,,,,,,,,,,,,,
,,,,,,6130d9dc1ffddcec1e925b4b,62c539a0b694e094fca2e558,2022-07-06_09h36.59.648,Colour_Asymmetry_Pilot,2022.1.3,Win32,31.99897603,62c50e9c1127f2cd403a315f,0,93,93,43,1,twofour,,,,,,,,,,,,,,,,,,,,,,,,,,,,,,,,,,,,,,,,,,,,,,,,,,,,,,,,,,,,,,,,,,,,,,,,,,,,,,,,,,,,,,,,,,,,,,,,,,,,,,,,,,,,,,,,,,,,,,,,,,,,,,,,,,,,,,,,,,,,,,,,,,,,,,,,,,,,,
,,,,,,6130d9dc1ffddcec1e925b4b,62c539a0b694e094fca2e558,2022-07-06_09h36.59.648,Colour_Asymmetry_Pilot,2022.1.3,Win32,31.99897603,62c50e9c1127f2cd403a315f,0,94,94,157,1,threefour,,,,,,,,,,,,,,,,,,,,,,,,,,,,,,,,,,,,,,,,,,,,,,,,,,,,,,,,,,,,,,,,,,,,,,,,,,,,,,,,,,,,,,,,,,,,,,,,,,,,,,,,,,,,,,,,,,,,,,,,,,,,,,,,,,,,,,,,,,,,,,,,,,,,,,,,,,,,,
,,,,,,6130d9dc1ffddcec1e925b4b,62c539a0b694e094fca2e558,2022-07-06_09h36.59.648,Colour_Asymmetry_Pilot,2022.1.3,Win32,31.99897603,62c50e9c1127f2cd403a315f,0,95,95,147,1,twofour,,,,,,,,,,,,,,,,,,,,,,,,,,,,,,,,,,,,,,,,,,,,,,,,,,,,,,,,,,,,,,,,,,,,,,,,,,,,,,,,,,,,,,,,,,,,,,,,,,,,,,,,,,,,,,,,,,,,,,,,,,,,,,,,,,,,,,,,,,,,,,,,,,,,,,,,,,,,,
,,,,,,6130d9dc1ffddcec1e925b4b,62c539a0b694e094fca2e558,2022-07-06_09h36.59.648,Colour_Asymmetry_Pilot,2022.1.3,Win32,31.99897603,62c50e9c1127f2cd403a315f,0,96,96,46,1,fourtwo,,,,,,,,,,,,,,,,,,,,,,,,,,,,,,,,,,,,,,,,,,,,,,,,,,,,,,,,,,,,,,,,,,,,,,,,,,,,,,,,,,,,,,,,,,,,,,,,,,,,,,,,,,,,,,,,,,,,,,,,,,,,,,,,,,,,,,,,,,,,,,,,,,,,,,,,,,,,,
,,,,,,6130d9dc1ffddcec1e925b4b,62c539a0b694e094fca2e558,2022-07-06_09h36.59.648,Colour_Asymmetry_Pilot,2022.1.3,Win32,31.99897603,62c50e9c1127f2cd403a315f,0,97,97,83,1,twofour,,,,,,,,,,,,,,,,,,,,,,,,,,,,,,,,,,,,,,,,,,,,,,,,,,,,,,,,,,,,,,,,,,,,,,,,,,,,,,,,,,,,,,,,,,,,,,,,,,,,,,,,,,,,,,,,,,,,,,,,,,,,,,,,,,,,,,,,,,,,,,,,,,,,,,,,,,,,,
,,,,,,6130d9dc1ffddcec1e925b4b,62c539a0b694e094fca2e558,2022-07-06_09h36.59.648,Colour_Asymmetry_Pilot,2022.1.3,Win32,31.99897603,62c50e9c1127f2cd403a315f,0,98,98,77,1,threefour,,,,,,,,,,,,,,,,,,,,,,,,,,,,,,,,,,,,,,,,,,,,,,,,,,,,,,,,,,,,,,,,,,,,,,,,,,,,,,,,,,,,,,,,,,,,,,,,,,,,,,,,,,,,,,,,,,,,,,,,,,,,,,,,,,,,,,,,,,,,,,,,,,,,,,,,,,,,,
,,,,,,6130d9dc1ffddcec1e925b4b,62c539a0b694e094fca2e558,2022-07-06_09h36.59.648,Colour_Asymmetry_Pilot,2022.1.3,Win32,31.99897603,62c50e9c1127f2cd403a315f,0,99,99,4,1,threeone,,,,,,,,,,,,,,,,,,,,,,,,,,,,,,,,,,,,,,,,,,,,,,,,,,,,,,,,,,,,,,,,,,,,,,,,,,,,,,,,,,,,,,,,,,,,,,,,,,,,,,,,,,,,,,,,,,,,,,,,,,,,,,,,,,,,,,,,,,,,,,,,,,,,,,,,,,,,,
,,,,,,6130d9dc1ffddcec1e925b4b,62c539a0b694e094fca2e558,2022-07-06_09h36.59.648,Colour_Asymmetry_Pilot,2022.1.3,Win32,31.99897603,62c50e9c1127f2cd403a315f,0,100,100,7,1,fourthree,,,,,,,,,,,,,,,,,,,,,,,,,,,,,,,,,,,,,,,,,,,,,,,,,,,,,,,,,,,,,,,,,,,,,,,,,,,,,,,,,,,,,,,,,,,,,,,,,,,,,,,,,,,,,,,,,,,,,,,,,,,,,,,,,,,,,,,,,,,,,,,,,,,,,,,,,,,,,
,,,,,,6130d9dc1ffddcec1e925b4b,62c539a0b694e094fca2e558,2022-07-06_09h36.59.648,Colour_Asymmetry_Pilot,2022.1.3,Win32,31.99897603,62c50e9c1127f2cd403a315f,0,101,101,73,1,onethree,,,,,,,,,,,,,,,,,,,,,,,,,,,,,,,,,,,,,,,,,,,,,,,,,,,,,,,,,,,,,,,,,,,,,,,,,,,,,,,,,,,,,,,,,,,,,,,,,,,,,,,,,,,,,,,,,,,,,,,,,,,,,,,,,,,,,,,,,,,,,,,,,,,,,,,,,,,,,
,,,,,,6130d9dc1ffddcec1e925b4b,62c539a0b694e094fca2e558,2022-07-06_09h36.59.648,Colour_Asymmetry_Pilot,2022.1.3,Win32,31.99897603,62c50e9c1127f2cd403a315f,0,102,102,138,1,twoone,,,,,,,,,,,,,,,,,,,,,,,,,,,,,,,,,,,,,,,,,,,,,,,,,,,,,,,,,,,,,,,,,,,,,,,,,,,,,,,,,,,,,,,,,,,,,,,,,,,,,,,,,,,,,,,,,,,,,,,,,,,,,,,,,,,,,,,,,,,,,,,,,,,,,,,,,,,,,
,,,,,,6130d9dc1ffddcec1e925b4b,62c539a0b694e094fca2e558,2022-07-06_09h36.59.648,Colour_Asymmetry_Pilot,2022.1.3,Win32,31.99897603,62c50e9c1127f2cd403a315f,0,103,103,68,1,threeone,,,,,,,,,,,,,,,,,,,,,,,,,,,,,,,,,,,,,,,,,,,,,,,,,,,,,,,,,,,,,,,,,,,,,,,,,,,,,,,,,,,,,,,,,,,,,,,,,,,,,,,,,,,,,,,,,,,,,,,,,,,,,,,,,,,,,,,,,,,,,,,,,,,,,,,,,,,,,
,,,,,,6130d9dc1ffddcec1e925b4b,62c539a0b694e094fca2e558,2022-07-06_09h36.59.648,Colour_Asymmetry_Pilot,2022.1.3,Win32,31.99897603,62c50e9c1127f2cd403a315f,0,104,104,0,1,onetwo,,,,,,,,,,,,,,,,,,,,,,,,,,,,,,,,,,,,,,,,,,,,,,,,,,,,,,,,,,,,,,,,,,,,,,,,,,,,,,,,,,,,,,,,,,,,,,,,,,,,,,,,,,,,,,,,,,,,,,,,,,,,,,,,,,,,,,,,,,,,,,,,,,,,,,,,,,,,,
,,,,,,6130d9dc1ffddcec1e925b4b,62c539a0b694e094fca2e558,2022-07-06_09h36.59.648,Colour_Asymmetry_Pilot,2022.1.3,Win32,31.99897603,62c50e9c1127f2cd403a315f,0,105,105,81,1,onethree,,,,,,,,,,,,,,,,,,,,,,,,,,,,,,,,,,,,,,,,,,,,,,,,,,,,,,,,,,,,,,,,,,,,,,,,,,,,,,,,,,,,,,,,,,,,,,,,,,,,,,,,,,,,,,,,,,,,,,,,,,,,,,,,,,,,,,,,,,,,,,,,,,,,,,,,,,,,,
,,,,,,6130d9dc1ffddcec1e925b4b,62c539a0b694e094fca2e558,2022-07-06_09h36.59.648,Colour_Asymmetry_Pilot,2022.1.3,Win32,31.99897603,62c50e9c1127f2cd403a315f,0,106,106,36,1,threeone,,,,,,,,,,,,,,,,,,,,,,,,,,,,,,,,,,,,,,,,,,,,,,,,,,,,,,,,,,,,,,,,,,,,,,,,,,,,,,,,,,,,,,,,,,,,,,,,,,,,,,,,,,,,,,,,,,,,,,,,,,,,,,,,,,,,,,,,,,,,,,,,,,,,,,,,,,,,,
,,,,,,6130d9dc1ffddcec1e925b4b,62c539a0b694e094fca2e558,2022-07-06_09h36.59.648,Colour_Asymmetry_Pilot,2022.1.3,Win32,31.99897603,62c50e9c1127f2cd403a315f,0,107,107,40,1,onetwo,,,,,,,,,,,,,,,,,,,,,,,,,,,,,,,,,,,,,,,,,,,,,,,,,,,,,,,,,,,,,,,,,,,,,,,,,,,,,,,,,,,,,,,,,,,,,,,,,,,,,,,,,,,,,,,,,,,,,,,,,,,,,,,,,,,,,,,,,,,,,,,,,,,,,,,,,,,,,
,,,,,,6130d9dc1ffddcec1e925b4b,62c539a0b694e094fca2e558,2022-07-06_09h36.59.648,Colour_Asymmetry_Pilot,2022.1.3,Win32,31.99897603,62c50e9c1127f2cd403a315f,0,108,108,97,1,onethree,,,,,,,,,,,,,,,,,,,,,,,,,,,,,,,,,,,,,,,,,,,,,,,,,,,,,,,,,,,,,,,,,,,,,,,,,,,,,,,,,,,,,,,,,,,,,,,,,,,,,,,,,,,,,,,,,,,,,,,,,,,,,,,,,,,,,,,,,,,,,,,,,,,,,,,,,,,,,
,,,,,,6130d9dc1ffddcec1e925b4b,62c539a0b694e094fca2e558,2022-07-06_09h36.59.648,Colour_Asymmetry_Pilot,2022.1.3,Win32,31.99897603,62c50e9c1127f2cd403a315f,0,109,109,88,1,onetwo,,,,,,,,,,,,,,,,,,,,,,,,,,,,,,,,,,,,,,,,,,,,,,,,,,,,,,,,,,,,,,,,,,,,,,,,,,,,,,,,,,,,,,,,,,,,,,,,,,,,,,,,,,,,,,,,,,,,,,,,,,,,,,,,,,,,,,,,,,,,,,,,,,,,,,,,,,,,,
,,,,,,6130d9dc1ffddcec1e925b4b,62c539a0b694e094fca2e558,2022-07-06_09h36.59.648,Colour_Asymmetry_Pilot,2022.1.3,Win32,31.99897603,62c50e9c1127f2cd403a315f,0,110,110,132,1,threeone,,,,,,,,,,,,,,,,,,,,,,,,,,,,,,,,,,,,,,,,,,,,,,,,,,,,,,,,,,,,,,,,,,,,,,,,,,,,,,,,,,,,,,,,,,,,,,,,,,,,,,,,,,,,,,,,,,,,,,,,,,,,,,,,,,,,,,,,,,,,,,,,,,,,,,,,,,,,,
,,,,,,6130d9dc1ffddcec1e925b4b,62c539a0b694e094fca2e558,2022-07-06_09h36.59.648,Colour_Asymmetry_Pilot,2022.1.3,Win32,31.99897603,62c50e9c1127f2cd403a315f,0,111,111,139,1,twofour,,,,,,,,,,,,,,,,,,,,,,,,,,,,,,,,,,,,,,,,,,,,,,,,,,,,,,,,,,,,,,,,,,,,,,,,,,,,,,,,,,,,,,,,,,,,,,,,,,,,,,,,,,,,,,,,,,,,,,,,,,,,,,,,,,,,,,,,,,,,,,,,,,,,,,,,,,,,,
,,,,,,6130d9dc1ffddcec1e925b4b,62c539a0b694e094fca2e558,2022-07-06_09h36.59.648,Colour_Asymmetry_Pilot,2022.1.3,Win32,31.99897603,62c50e9c1127f2cd403a315f,0,112,112,66,1,twoone,,,,,,,,,,,,,,,,,,,,,,,,,,,,,,,,,,,,,,,,,,,,,,,,,,,,,,,,,,,,,,,,,,,,,,,,,,,,,,,,,,,,,,,,,,,,,,,,,,,,,,,,,,,,,,,,,,,,,,,,,,,,,,,,,,,,,,,,,,,,,,,,,,,,,,,,,,,,,
,,,,,,6130d9dc1ffddcec1e925b4b,62c539a0b694e094fca2e558,2022-07-06_09h36.59.648,Colour_Asymmetry_Pilot,2022.1.3,Win32,31.99897603,62c50e9c1127f2cd403a315f,0,113,113,148,1,threeone,,,,,,,,,,,,,,,,,,,,,,,,,,,,,,,,,,,,,,,,,,,,,,,,,,,,,,,,,,,,,,,,,,,,,,,,,,,,,,,,,,,,,,,,,,,,,,,,,,,,,,,,,,,,,,,,,,,,,,,,,,,,,,,,,,,,,,,,,,,,,,,,,,,,,,,,,,,,,
,,,,,,6130d9dc1ffddcec1e925b4b,62c539a0b694e094fca2e558,2022-07-06_09h36.59.648,Colour_Asymmetry_Pilot,2022.1.3,Win32,31.99897603,62c50e9c1127f2cd403a315f,0,114,114,22,1,fourtwo,,,,,,,,,,,,,,,,,,,,,,,,,,,,,,,,,,,,,,,,,,,,,,,,,,,,,,,,,,,,,,,,,,,,,,,,,,,,,,,,,,,,,,,,,,,,,,,,,,,,,,,,,,,,,,,,,,,,,,,,,,,,,,,,,,,,,,,,,,,,,,,,,,,,,,,,,,,,,
,,,,,,6130d9dc1ffddcec1e925b4b,62c539a0b694e094fca2e558,2022-07-06_09h36.59.648,Colour_Asymmetry_Pilot,2022.1.3,Win32,31.99897603,62c50e9c1127f2cd403a315f,0,115,115,145,1,onethree,,,,,,,,,,,,,,,,,,,,,,,,,,,,,,,,,,,,,,,,,,,,,,,,,,,,,,,,,,,,,,,,,,,,,,,,,,,,,,,,,,,,,,,,,,,,,,,,,,,,,,,,,,,,,,,,,,,,,,,,,,,,,,,,,,,,,,,,,,,,,,,,,,,,,,,,,,,,,
,,,,,,6130d9dc1ffddcec1e925b4b,62c539a0b694e094fca2e558,2022-07-06_09h36.59.648,Colour_Asymmetry_Pilot,2022.1.3,Win32,31.99897603,62c50e9c1127f2cd403a315f,0,116,116,61,1,threefour,,,,,,,,,,,,,,,,,,,,,,,,,,,,,,,,,,,,,,,,,,,,,,,,,,,,,,,,,,,,,,,,,,,,,,,,,,,,,,,,,,,,,,,,,,,,,,,,,,,,,,,,,,,,,,,,,,,,,,,,,,,,,,,,,,,,,,,,,,,,,,,,,,,,,,,,,,,,,
,,,,,,6130d9dc1ffddcec1e925b4b,62c539a0b694e094fca2e558,2022-07-06_09h36.59.648,Colour_Asymmetry_Pilot,2022.1.3,Win32,31.99897603,62c50e9c1127f2cd403a315f,0,117,117,39,1,fourthree,,,,,,,,,,,,,,,,,,,,,,,,,,,,,,,,,,,,,,,,,,,,,,,,,,,,,,,,,,,,,,,,,,,,,,,,,,,,,,,,,,,,,,,,,,,,,,,,,,,,,,,,,,,,,,,,,,,,,,,,,,,,,,,,,,,,,,,,,,,,,,,,,,,,,,,,,,,,,
,,,,,,6130d9dc1ffddcec1e925b4b,62c539a0b694e094fca2e558,2022-07-06_09h36.59.648,Colour_Asymmetry_Pilot,2022.1.3,Win32,31.99897603,62c50e9c1127f2cd403a315f,0,118,118,102,1,fourtwo,,,,,,,,,,,,,,,,,,,,,,,,,,,,,,,,,,,,,,,,,,,,,,,,,,,,,,,,,,,,,,,,,,,,,,,,,,,,,,,,,,,,,,,,,,,,,,,,,,,,,,,,,,,,,,,,,,,,,,,,,,,,,,,,,,,,,,,,,,,,,,,,,,,,,,,,,,,,,
,,,,,,6130d9dc1ffddcec1e925b4b,62c539a0b694e094fca2e558,2022-07-06_09h36.59.648,Colour_Asymmetry_Pilot,2022.1.3,Win32,31.99897603,62c50e9c1127f2cd403a315f,0,119,119,124,1,threeone,,,,,,,,,,,,,,,,,,,,,,,,,,,,,,,,,,,,,,,,,,,,,,,,,,,,,,,,,,,,,,,,,,,,,,,,,,,,,,,,,,,,,,,,,,,,,,,,,,,,,,,,,,,,,,,,,,,,,,,,,,,,,,,,,,,,,,,,,,,,,,,,,,,,,,,,,,,,,
,,,,,,6130d9dc1ffddcec1e925b4b,62c539a0b694e094fca2e558,2022-07-06_09h36.59.648,Colour_Asymmetry_Pilot,2022.1.3,Win32,31.99897603,62c50e9c1127f2cd403a315f,0,120,120,59,1,twofour,,,,,,,,,,,,,,,,,,,,,,,,,,,,,,,,,,,,,,,,,,,,,,,,,,,,,,,,,,,,,,,,,,,,,,,,,,,,,,,,,,,,,,,,,,,,,,,,,,,,,,,,,,,,,,,,,,,,,,,,,,,,,,,,,,,,,,,,,,,,,,,,,,,,,,,,,,,,,
,,,,,,6130d9dc1ffddcec1e925b4b,62c539a0b694e094fca2e558,2022-07-06_09h36.59.648,Colour_Asymmetry_Pilot,2022.1.3,Win32,31.99897603,62c50e9c1127f2cd403a315f,0,121,121,60,1,threeone,,,,,,,,,,,,,,,,,,,,,,,,,,,,,,,,,,,,,,,,,,,,,,,,,,,,,,,,,,,,,,,,,,,,,,,,,,,,,,,,,,,,,,,,,,,,,,,,,,,,,,,,,,,,,,,,,,,,,,,,,,,,,,,,,,,,,,,,,,,,,,,,,,,,,,,,,,,,,
,,,,,,6130d9dc1ffddcec1e925b4b,62c539a0b694e094fca2e558,2022-07-06_09h36.59.648,Colour_Asymmetry_Pilot,2022.1.3,Win32,31.99897603,62c50e9c1127f2cd403a315f,0,122,122,18,1,twoone,,,,,,,,,,,,,,,,,,,,,,,,,,,,,,,,,,,,,,,,,,,,,,,,,,,,,,,,,,,,,,,,,,,,,,,,,,,,,,,,,,,,,,,,,,,,,,,,,,,,,,,,,,,,,,,,,,,,,,,,,,,,,,,,,,,,,,,,,,,,,,,,,,,,,,,,,,,,,
,,,,,,6130d9dc1ffddcec1e925b4b,62c539a0b694e094fca2e558,2022-07-06_09h36.59.648,Colour_Asymmetry_Pilot,2022.1.3,Win32,31.99897603,62c50e9c1127f2cd403a315f,0,123,123,146,1,twoone,,,,,,,,,,,,,,,,,,,,,,,,,,,,,,,,,,,,,,,,,,,,,,,,,,,,,,,,,,,,,,,,,,,,,,,,,,,,,,,,,,,,,,,,,,,,,,,,,,,,,,,,,,,,,,,,,,,,,,,,,,,,,,,,,,,,,,,,,,,,,,,,,,,,,,,,,,,,,
,,,,,,6130d9dc1ffddcec1e925b4b,62c539a0b694e094fca2e558,2022-07-06_09h36.59.648,Colour_Asymmetry_Pilot,2022.1.3,Win32,31.99897603,62c50e9c1127f2cd403a315f,0,124,124,8,1,onetwo,,,,,,,,,,,,,,,,,,,,,,,,,,,,,,,,,,,,,,,,,,,,,,,,,,,,,,,,,,,,,,,,,,,,,,,,,,,,,,,,,,,,,,,,,,,,,,,,,,,,,,,,,,,,,,,,,,,,,,,,,,,,,,,,,,,,,,,,,,,,,,,,,,,,,,,,,,,,,
,,,,,,6130d9dc1ffddcec1e925b4b,62c539a0b694e094fca2e558,2022-07-06_09h36.59.648,Colour_Asymmetry_Pilot,2022.1.3,Win32,31.99897603,62c50e9c1127f2cd403a315f,0,125,125,95,1,fourthree,,,,,,,,,,,,,,,,,,,,,,,,,,,,,,,,,,,,,,,,,,,,,,,,,,,,,,,,,,,,,,,,,,,,,,,,,,,,,,,,,,,,,,,,,,,,,,,,,,,,,,,,,,,,,,,,,,,,,,,,,,,,,,,,,,,,,,,,,,,,,,,,,,,,,,,,,,,,,
,,,,,,6130d9dc1ffddcec1e925b4b,62c539a0b694e094fca2e558,2022-07-06_09h36.59.648,Colour_Asymmetry_Pilot,2022.1.3,Win32,31.99897603,62c50e9c1127f2cd403a315f,0,126,126,15,1,fourthree,,,,,,,,,,,,,,,,,,,,,,,,,,,,,,,,,,,,,,,,,,,,,,,,,,,,,,,,,,,,,,,,,,,,,,,,,,,,,,,,,,,,,,,,,,,,,,,,,,,,,,,,,,,,,,,,,,,,,,,,,,,,,,,,,,,,,,,,,,,,,,,,,,,,,,,,,,,,,
,,,,,,6130d9dc1ffddcec1e925b4b,62c539a0b694e094fca2e558,2022-07-06_09h36.59.648,Colour_Asymmetry_Pilot,2022.1.3,Win32,31.99897603,62c50e9c1127f2cd403a315f,0,127,127,140,1,threeone,,,,,,,,,,,,,,,,,,,,,,,,,,,,,,,,,,,,,,,,,,,,,,,,,,,,,,,,,,,,,,,,,,,,,,,,,,,,,,,,,,,,,,,,,,,,,,,,,,,,,,,,,,,,,,,,,,,,,,,,,,,,,,,,,,,,,,,,,,,,,,,,,,,,,,,,,,,,,
,,,,,,6130d9dc1ffddcec1e925b4b,62c539a0b694e094fca2e558,2022-07-06_09h36.59.648,Colour_Asymmetry_Pilot,2022.1.3,Win32,31.99897603,62c50e9c1127f2cd403a315f,0,128,128,24,1,onetwo,,,,,,,,,,,,,,,,,,,,,,,,,,,,,,,,,,,,,,,,,,,,,,,,,,,,,,,,,,,,,,,,,,,,,,,,,,,,,,,,,,,,,,,,,,,,,,,,,,,,,,,,,,,,,,,,,,,,,,,,,,,,,,,,,,,,,,,,,,,,,,,,,,,,,,,,,,,,,
,,,,,,6130d9dc1ffddcec1e925b4b,62c539a0b694e094fca2e558,2022-07-06_09h36.59.648,Colour_Asymmetry_Pilot,2022.1.3,Win32,31.99897603,62c50e9c1127f2cd403a315f,0,129,129,10,1,twoone,,,,,,,,,,,,,,,,,,,,,,,,,,,,,,,,,,,,,,,,,,,,,,,,,,,,,,,,,,,,,,,,,,,,,,,,,,,,,,,,,,,,,,,,,,,,,,,,,,,,,,,,,,,,,,,,,,,,,,,,,,,,,,,,,,,,,,,,,,,,,,,,,,,,,,,,,,,,,
,,,,,,6130d9dc1ffddcec1e925b4b,62c539a0b694e094fca2e558,2022-07-06_09h36.59.648,Colour_Asymmetry_Pilot,2022.1.3,Win32,31.99897603,62c50e9c1127f2cd403a315f,0,130,130,69,1,threefour,,,,,,,,,,,,,,,,,,,,,,,,,,,,,,,,,,,,,,,,,,,,,,,,,,,,,,,,,,,,,,,,,,,,,,,,,,,,,,,,,,,,,,,,,,,,,,,,,,,,,,,,,,,,,,,,,,,,,,,,,,,,,,,,,,,,,,,,,,,,,,,,,,,,,,,,,,,,,
,,,,,,6130d9dc1ffddcec1e925b4b,62c539a0b694e094fca2e558,2022-07-06_09h36.59.648,Colour_Asymmetry_Pilot,2022.1.3,Win32,31.99897603,62c50e9c1127f2cd403a315f,0,131,131,20,1,threeone,,,,,,,,,,,,,,,,,,,,,,,,,,,,,,,,,,,,,,,,,,,,,,,,,,,,,,,,,,,,,,,,,,,,,,,,,,,,,,,,,,,,,,,,,,,,,,,,,,,,,,,,,,,,,,,,,,,,,,,,,,,,,,,,,,,,,,,,,,,,,,,,,,,,,,,,,,,,,
,,,,,,6130d9dc1ffddcec1e925b4b,62c539a0b694e094fca2e558,2022-07-06_09h36.59.648,Colour_Asymmetry_Pilot,2022.1.3,Win32,31.99897603,62c50e9c1127f2cd403a315f,0,132,132,94,1,fourtwo,,,,,,,,,,,,,,,,,,,,,,,,,,,,,,,,,,,,,,,,,,,,,,,,,,,,,,,,,,,,,,,,,,,,,,,,,,,,,,,,,,,,,,,,,,,,,,,,,,,,,,,,,,,,,,,,,,,,,,,,,,,,,,,,,,,,,,,,,,,,,,,,,,,,,,,,,,,,,
,,,,,,6130d9dc1ffddcec1e925b4b,62c539a0b694e094fca2e558,2022-07-06_09h36.59.648,Colour_Asymmetry_Pilot,2022.1.3,Win32,31.99897603,62c50e9c1127f2cd403a315f,0,133,133,160,1,onetwo,,,,,,,,,,,,,,,,,,,,,,,,,,,,,,,,,,,,,,,,,,,,,,,,,,,,,,,,,,,,,,,,,,,,,,,,,,,,,,,,,,,,,,,,,,,,,,,,,,,,,,,,,,,,,,,,,,,,,,,,,,,,,,,,,,,,,,,,,,,,,,,,,,,,,,,,,,,,,
,,,,,,6130d9dc1ffddcec1e925b4b,62c539a0b694e094fca2e558,2022-07-06_09h36.59.648,Colour_Asymmetry_Pilot,2022.1.3,Win32,31.99897603,62c50e9c1127f2cd403a315f,0,134,134,128,1,onetwo,,,,,,,,,,,,,,,,,,,,,,,,,,,,,,,,,,,,,,,,,,,,,,,,,,,,,,,,,,,,,,,,,,,,,,,,,,,,,,,,,,,,,,,,,,,,,,,,,,,,,,,,,,,,,,,,,,,,,,,,,,,,,,,,,,,,,,,,,,,,,,,,,,,,,,,,,,,,,
,,,,,,6130d9dc1ffddcec1e925b4b,62c539a0b694e094fca2e558,2022-07-06_09h36.59.648,Colour_Asymmetry_Pilot,2022.1.3,Win32,31.99897603,62c50e9c1127f2cd403a315f,0,135,135,65,1,onethree,,,,,,,,,,,,,,,,,,,,,,,,,,,,,,,,,,,,,,,,,,,,,,,,,,,,,,,,,,,,,,,,,,,,,,,,,,,,,,,,,,,,,,,,,,,,,,,,,,,,,,,,,,,,,,,,,,,,,,,,,,,,,,,,,,,,,,,,,,,,,,,,,,,,,,,,,,,,,
,,,,,,6130d9dc1ffddcec1e925b4b,62c539a0b694e094fca2e558,2022-07-06_09h36.59.648,Colour_Asymmetry_Pilot,2022.1.3,Win32,31.99897603,62c50e9c1127f2cd403a315f,0,136,136,27,1,twofour,,,,,,,,,,,,,,,,,,,,,,,,,,,,,,,,,,,,,,,,,,,,,,,,,,,,,,,,,,,,,,,,,,,,,,,,,,,,,,,,,,,,,,,,,,,,,,,,,,,,,,,,,,,,,,,,,,,,,,,,,,,,,,,,,,,,,,,,,,,,,,,,,,,,,,,,,,,,,
,,,,,,6130d9dc1ffddcec1e925b4b,62c539a0b694e094fca2e558,2022-07-06_09h36.59.648,Colour_Asymmetry_Pilot,2022.1.3,Win32,31.99897603,62c50e9c1127f2cd403a315f,0,137,137,28,1,threeone,,,,,,,,,,,,,,,,,,,,,,,,,,,,,,,,,,,,,,,,,,,,,,,,,,,,,,,,,,,,,,,,,,,,,,,,,,,,,,,,,,,,,,,,,,,,,,,,,,,,,,,,,,,,,,,,,,,,,,,,,,,,,,,,,,,,,,,,,,,,,,,,,,,,,,,,,,,,,
,,,,,,6130d9dc1ffddcec1e925b4b,62c539a0b694e094fca2e558,2022-07-06_09h36.59.648,Colour_Asymmetry_Pilot,2022.1.3,Win32,31.99897603,62c50e9c1127f2cd403a315f,0,138,138,89,1,onethree,,,,,,,,,,,,,,,,,,,,,,,,,,,,,,,,,,,,,,,,,,,,,,,,,,,,,,,,,,,,,,,,,,,,,,,,,,,,,,,,,,,,,,,,,,,,,,,,,,,,,,,,,,,,,,,,,,,,,,,,,,,,,,,,,,,,,,,,,,,,,,,,,,,,,,,,,,,,,
,,,,,,6130d9dc1ffddcec1e925b4b,62c539a0b694e094fca2e558,2022-07-06_09h36.59.648,Colour_Asymmetry_Pilot,2022.1.3,Win32,31.99897603,62c50e9c1127f2cd403a315f,0,139,139,143,1,fourthree,,,,,,,,,,,,,,,,,,,,,,,,,,,,,,,,,,,,,,,,,,,,,,,,,,,,,,,,,,,,,,,,,,,,,,,,,,,,,,,,,,,,,,,,,,,,,,,,,,,,,,,,,,,,,,,,,,,,,,,,,,,,,,,,,,,,,,,,,,,,,,,,,,,,,,,,,,,,,
,,,,,,6130d9dc1ffddcec1e925b4b,62c539a0b694e094fca2e558,2022-07-06_09h36.59.648,Colour_Asymmetry_Pilot,2022.1.3,Win32,31.99897603,62c50e9c1127f2cd403a315f,0,140,140,70,1,fourtwo,,,,,,,,,,,,,,,,,,,,,,,,,,,,,,,,,,,,,,,,,,,,,,,,,,,,,,,,,,,,,,,,,,,,,,,,,,,,,,,,,,,,,,,,,,,,,,,,,,,,,,,,,,,,,,,,,,,,,,,,,,,,,,,,,,,,,,,,,,,,,,,,,,,,,,,,,,,,,
,,,,,,6130d9dc1ffddcec1e925b4b,62c539a0b694e094fca2e558,2022-07-06_09h36.59.648,Colour_Asymmetry_Pilot,2022.1.3,Win32,31.99897603,62c50e9c1127f2cd403a315f,0,141,141,26,1,twoone,,,,,,,,,,,,,,,,,,,,,,,,,,,,,,,,,,,,,,,,,,,,,,,,,,,,,,,,,,,,,,,,,,,,,,,,,,,,,,,,,,,,,,,,,,,,,,,,,,,,,,,,,,,,,,,,,,,,,,,,,,,,,,,,,,,,,,,,,,,,,,,,,,,,,,,,,,,,,
,,,,,,6130d9dc1ffddcec1e925b4b,62c539a0b694e094fca2e558,2022-07-06_09h36.59.648,Colour_Asymmetry_Pilot,2022.1.3,Win32,31.99897603,62c50e9c1127f2cd403a315f,0,142,142,98,1,twoone,,,,,,,,,,,,,,,,,,,,,,,,,,,,,,,,,,,,,,,,,,,,,,,,,,,,,,,,,,,,,,,,,,,,,,,,,,,,,,,,,,,,,,,,,,,,,,,,,,,,,,,,,,,,,,,,,,,,,,,,,,,,,,,,,,,,,,,,,,,,,,,,,,,,,,,,,,,,,
,,,,,,6130d9dc1ffddcec1e925b4b,62c539a0b694e094fca2e558,2022-07-06_09h36.59.648,Colour_Asymmetry_Pilot,2022.1.3,Win32,31.99897603,62c50e9c1127f2cd403a315f,0,143,143,23,1,fourthree,,,,,,,,,,,,,,,,,,,,,,,,,,,,,,,,,,,,,,,,,,,,,,,,,,,,,,,,,,,,,,,,,,,,,,,,,,,,,,,,,,,,,,,,,,,,,,,,,,,,,,,,,,,,,,,,,,,,,,,,,,,,,,,,,,,,,,,,,,,,,,,,,,,,,,,,,,,,,
,,,,,,6130d9dc1ffddcec1e925b4b,62c539a0b694e094fca2e558,2022-07-06_09h36.59.648,Colour_Asymmetry_Pilot,2022.1.3,Win32,31.99897603,62c50e9c1127f2cd403a315f,0,144,144,71,1,fourthree,,,,,,,,,,,,,,,,,,,,,,,,,,,,,,,,,,,,,,,,,,,,,,,,,,,,,,,,,,,,,,,,,,,,,,,,,,,,,,,,,,,,,,,,,,,,,,,,,,,,,,,,,,,,,,,,,,,,,,,,,,,,,,,,,,,,,,,,,,,,,,,,,,,,,,,,,,,,,
,,,,,,6130d9dc1ffddcec1e925b4b,62c539a0b694e094fca2e558,2022-07-06_09h36.59.648,Colour_Asymmetry_Pilot,2022.1.3,Win32,31.99897603,62c50e9c1127f2cd403a315f,0,145,145,158,1,fourtwo,,,,,,,,,,,,,,,,,,,,,,,,,,,,,,,,,,,,,,,,,,,,,,,,,,,,,,,,,,,,,,,,,,,,,,,,,,,,,,,,,,,,,,,,,,,,,,,,,,,,,,,,,,,,,,,,,,,,,,,,,,,,,,,,,,,,,,,,,,,,,,,,,,,,,,,,,,,,,
,,,,,,6130d9dc1ffddcec1e925b4b,62c539a0b694e094fca2e558,2022-07-06_09h36.59.648,Colour_Asymmetry_Pilot,2022.1.3,Win32,31.99897603,62c50e9c1127f2cd403a315f,0,146,146,78,1,fourtwo,,,,,,,,,,,,,,,,,,,,,,,,,,,,,,,,,,,,,,,,,,,,,,,,,,,,,,,,,,,,,,,,,,,,,,,,,,,,,,,,,,,,,,,,,,,,,,,,,,,,,,,,,,,,,,,,,,,,,,,,,,,,,,,,,,,,,,,,,,,,,,,,,,,,,,,,,,,,,
,,,,,,6130d9dc1ffddcec1e925b4b,62c539a0b694e094fca2e558,2022-07-06_09h36.59.648,Colour_Asymmetry_Pilot,2022.1.3,Win32,31.99897603,62c50e9c1127f2cd403a315f,0,147,147,74,1,twoone,,,,,,,,,,,,,,,,,,,,,,,,,,,,,,,,,,,,,,,,,,,,,,,,,,,,,,,,,,,,,,,,,,,,,,,,,,,,,,,,,,,,,,,,,,,,,,,,,,,,,,,,,,,,,,,,,,,,,,,,,,,,,,,,,,,,,,,,,,,,,,,,,,,,,,,,,,,,,
,,,,,,6130d9dc1ffddcec1e925b4b,62c539a0b694e094fca2e558,2022-07-06_09h36.59.648,Colour_Asymmetry_Pilot,2022.1.3,Win32,31.99897603,62c50e9c1127f2cd403a315f,0,148,148,52,1,threeone,,,,,,,,,,,,,,,,,,,,,,,,,,,,,,,,,,,,,,,,,,,,,,,,,,,,,,,,,,,,,,,,,,,,,,,,,,,,,,,,,,,,,,,,,,,,,,,,,,,,,,,,,,,,,,,,,,,,,,,,,,,,,,,,,,,,,,,,,,,,,,,,,,,,,,,,,,,,,
,,,,,,6130d9dc1ffddcec1e925b4b,62c539a0b694e094fca2e558,2022-07-06_09h36.59.648,Colour_Asymmetry_Pilot,2022.1.3,Win32,31.99897603,62c50e9c1127f2cd403a315f,0,149,149,53,1,threefour,,,,,,,,,,,,,,,,,,,,,,,,,,,,,,,,,,,,,,,,,,,,,,,,,,,,,,,,,,,,,,,,,,,,,,,,,,,,,,,,,,,,,,,,,,,,,,,,,,,,,,,,,,,,,,,,,,,,,,,,,,,,,,,,,,,,,,,,,,,,,,,,,,,,,,,,,,,,,
,,,,,,6130d9dc1ffddcec1e925b4b,62c539a0b694e094fca2e558,2022-07-06_09h36.59.648,Colour_Asymmetry_Pilot,2022.1.3,Win32,31.99897603,62c50e9c1127f2cd403a315f,0,150,150,76,1,threeone,,,,,,,,,,,,,,,,,,,,,,,,,,,,,,,,,,,,,,,,,,,,,,,,,,,,,,,,,,,,,,,,,,,,,,,,,,,,,,,,,,,,,,,,,,,,,,,,,,,,,,,,,,,,,,,,,,,,,,,,,,,,,,,,,,,,,,,,,,,,,,,,,,,,,,,,,,,,,
,,,,,,6130d9dc1ffddcec1e925b4b,62c539a0b694e094fca2e558,2022-07-06_09h36.59.648,Colour_Asymmetry_Pilot,2022.1.3,Win32,31.99897603,62c50e9c1127f2cd403a315f,0,151,151,64,1,onetwo,,,,,,,,,,,,,,,,,,,,,,,,,,,,,,,,,,,,,,,,,,,,,,,,,,,,,,,,,,,,,,,,,,,,,,,,,,,,,,,,,,,,,,,,,,,,,,,,,,,,,,,,,,,,,,,,,,,,,,,,,,,,,,,,,,,,,,,,,,,,,,,,,,,,,,,,,,,,,
,,,,,,6130d9dc1ffddcec1e925b4b,62c539a0b694e094fca2e558,2022-07-06_09h36.59.648,Colour_Asymmetry_Pilot,2022.1.3,Win32,31.99897603,62c50e9c1127f2cd403a315f,0,152,152,101,1,threefour,,,,,,,,,,,,,,,,,,,,,,,,,,,,,,,,,,,,,,,,,,,,,,,,,,,,,,,,,,,,,,,,,,,,,,,,,,,,,,,,,,,,,,,,,,,,,,,,,,,,,,,,,,,,,,,,,,,,,,,,,,,,,,,,,,,,,,,,,,,,,,,,,,,,,,,,,,,,,
,,,,,,6130d9dc1ffddcec1e925b4b,62c539a0b694e094fca2e558,2022-07-06_09h36.59.648,Colour_Asymmetry_Pilot,2022.1.3,Win32,31.99897603,62c50e9c1127f2cd403a315f,0,153,153,129,1,onethree,,,,,,,,,,,,,,,,,,,,,,,,,,,,,,,,,,,,,,,,,,,,,,,,,,,,,,,,,,,,,,,,,,,,,,,,,,,,,,,,,,,,,,,,,,,,,,,,,,,,,,,,,,,,,,,,,,,,,,,,,,,,,,,,,,,,,,,,,,,,,,,,,,,,,,,,,,,,,
,,,,,,6130d9dc1ffddcec1e925b4b,62c539a0b694e094fca2e558,2022-07-06_09h36.59.648,Colour_Asymmetry_Pilot,2022.1.3,Win32,31.99897603,62c50e9c1127f2cd403a315f,0,154,154,12,1,threeone,,,,,,,,,,,,,,,,,,,,,,,,,,,,,,,,,,,,,,,,,,,,,,,,,,,,,,,,,,,,,,,,,,,,,,,,,,,,,,,,,,,,,,,,,,,,,,,,,,,,,,,,,,,,,,,,,,,,,,,,,,,,,,,,,,,,,,,,,,,,,,,,,,,,,,,,,,,,,
,,,,,,6130d9dc1ffddcec1e925b4b,62c539a0b694e094fca2e558,2022-07-06_09h36.59.648,Colour_Asymmetry_Pilot,2022.1.3,Win32,31.99897603,62c50e9c1127f2cd403a315f,0,155,155,127,1,fourthree,,,,,,,,,,,,,,,,,,,,,,,,,,,,,,,,,,,,,,,,,,,,,,,,,,,,,,,,,,,,,,,,,,,,,,,,,,,,,,,,,,,,,,,,,,,,,,,,,,,,,,,,,,,,,,,,,,,,,,,,,,,,,,,,,,,,,,,,,,,,,,,,,,,,,,,,,,,,,
,,,,,,6130d9dc1ffddcec1e925b4b,62c539a0b694e094fca2e558,2022-07-06_09h36.59.648,Colour_Asymmetry_Pilot,2022.1.3,Win32,31.99897603,62c50e9c1127f2cd403a315f,0,156,156,156,1,threeone,,,,,,,,,,,,,,,,,,,,,,,,,,,,,,,,,,,,,,,,,,,,,,,,,,,,,,,,,,,,,,,,,,,,,,,,,,,,,,,,,,,,,,,,,,,,,,,,,,,,,,,,,,,,,,,,,,,,,,,,,,,,,,,,,,,,,,,,,,,,,,,,,,,,,,,,,,,,,
,,,,,,6130d9dc1ffddcec1e925b4b,62c539a0b694e094fca2e558,2022-07-06_09h36.59.648,Colour_Asymmetry_Pilot,2022.1.3,Win32,31.99897603,62c50e9c1127f2cd403a315f,0,157,157,50,1,twoone,,,,,,,,,,,,,,,,,,,,,,,,,,,,,,,,,,,,,,,,,,,,,,,,,,,,,,,,,,,,,,,,,,,,,,,,,,,,,,,,,,,,,,,,,,,,,,,,,,,,,,,,,,,,,,,,,,,,,,,,,,,,,,,,,,,,,,,,,,,,,,,,,,,,,,,,,,,,,
,,,,,,6130d9dc1ffddcec1e925b4b,62c539a0b694e094fca2e558,2022-07-06_09h36.59.648,Colour_Asymmetry_Pilot,2022.1.3,Win32,31.99897603,62c50e9c1127f2cd403a315f,0,158,158,161,1,onethree,,,,,,,,,,,,,,,,,,,,,,,,,,,,,,,,,,,,,,,,,,,,,,,,,,,,,,,,,,,,,,,,,,,,,,,,,,,,,,,,,,,,,,,,,,,,,,,,,,,,,,,,,,,,,,,,,,,,,,,,,,,,,,,,,,,,,,,,,,,,,,,,,,,,,,,,,,,,,
,,,,,,6130d9dc1ffddcec1e925b4b,62c539a0b694e094fca2e558,2022-07-06_09h36.59.648,Colour_Asymmetry_Pilot,2022.1.3,Win32,31.99897603,62c50e9c1127f2cd403a315f,0,159,159,99,1,twofour,,,,,,,,,,,,,,,,,,,,,,,,,,,,,,,,,,,,,,,,,,,,,,,,,,,,,,,,,,,,,,,,,,,,,,,,,,,,,,,,,,,,,,,,,,,,,,,,,,,,,,,,,,,,,,,,,,,,,,,,,,,,,,,,,,,,,,,,,,,,,,,,,,,,,,,,,,,,,
,,,,,,6130d9dc1ffddcec1e925b4b,62c539a0b694e094fca2e558,2022-07-06_09h36.59.648,Colour_Asymmetry_Pilot,2022.1.3,Win32,31.99897603,62c50e9c1127f2cd403a315f,0,160,160,90,1,twoone,,,,,,,,,,,,,,,,,,,,,,,,,,,,,,,,,,,,,,,,,,,,,,,,,,,,,,,,,,,,,,,,,,,,,,,,,,,,,,,,,,,,,,,,,,,,,,,,,,,,,,,,,,,,,,,,,,,,,,,,,,,,,,,,,,,,,,,,,,,,,,,,,,,,,,,,,,,,,
,,,,,,6130d9dc1ffddcec1e925b4b,62c539a0b694e094fca2e558,2022-07-06_09h36.59.648,Colour_Asymmetry_Pilot,2022.1.3,Win32,31.99897603,62c50e9c1127f2cd403a315f,0,161,161,30,1,fourtwo,,,,,,,,,,,,,,,,,,,,,,,,,,,,,,,,,,,,,,,,,,,,,,,,,,,,,,,,,,,,,,,,,,,,,,,,,,,,,,,,,,,,,,,,,,,,,,,,,,,,,,,,,,,,,,,,,,,,,,,,,,,,,,,,,,,,,,,,,,,,,,,,,,,,,,,,,,,,,
,,,,,,6130d9dc1ffddcec1e925b4b,62c539a0b694e094fca2e558,2022-07-06_09h36.59.648,Colour_Asymmetry_Pilot,2022.1.3,Win32,31.99897603,62c50e9c1127f2cd403a315f,,,,,,,space,58.1408,space,19.5836,space,206.3053,space,86.1722,space,6.2865,space,8.9993,"[-0.8982,-0.37259999999999993,0.2784]",twoone,"[0.9686000000000001,0.5763999999999998,0.11359999999999992]",-4,23.2363,-33,60,1,0,0,response7disk_5,-10,-1,1,0,0,rectangle_8,-10,-1,1,0,0,4,-10,-1,1,0,0,0,0,0,0,1,,,,,,,,,,,,,,,,,,,,,,,,,,,,,,,,,,,,,,,,,,,,,,,,,,,,,,,,,,,,,,,,,,,,,,,,,,,,,,,,,,,,,,,,,,,,,,,,,,,,,,,,,,,,,,,,
,,,,,,6130d9dc1ffddcec1e925b4b,62c539a0b694e094fca2e558,2022-07-06_09h36.59.648,Colour_Asymmetry_Pilot,2022.1.3,Win32,31.99897603,62c50e9c1127f2cd403a315f,,,,,,,,,,,,,,,,,,,"[0.796,0.2156,-0.27859999999999996]",onetwo,"[-0.4668,-0.8746,-0.2942]",-4,8.416,-44,70,1,0,0,response7disk_5,-1,7,1,0,0,rectangle_8,-1,7,1,0,0,4,-1,7,1,0,0,1,0,1,0,1,,,,,,,,,,,,,,,,,,,,,,,,,,,,,,,,,,,,,,,,,,,,,,,,,,,,,,,,,,,,,,,,,,,,,,,,,,,,,,,,,,,,,,,,,,,,,,,,,,,,,,,,,,,,,,,,
,,,,,,6130d9dc1ffddcec1e925b4b,62c539a0b694e094fca2e558,2022-07-06_09h36.59.648,Colour_Asymmetry_Pilot,2022.1.3,Win32,31.99897603,62c50e9c1127f2cd403a315f,,,,,,,,,,,,,,,,,,,"[-0.2942,-0.24719999999999998,-0.357]",fourtwo,"[0.12939999999999996,-0.2864,0.3253999999999999]",-4,4.2249,-35,61,1,0,0,response7disk_5,-9,10,1,0,0,rectangle_8,27,85,1,0,0,4,-9,0,1,0,0,2,0,2,0,1,response1disk_7,7,rectangle_4,,,,,,,,,,,,,,,,,,,,,,,,,,,,,,,,,,,,,,,,,,,,,,,,,,,,,,,,,,,,,,,,,,,,,,,,,,,,,,,,,,,,,,,,,,,,,,,,,,,,,,,,,,,,,
,,,,,,6130d9dc1ffddcec1e925b4b,62c539a0b694e094fca2e558,2022-07-06_09h36.59.648,Colour_Asymmetry_Pilot,2022.1.3,Win32,31.99897603,62c50e9c1127f2cd403a315f,,,,,,,,,,,,,,,,,,,"[0.3568,-0.20799999999999996,-0.9844]",onethree,"[0.2862,0.7802,0.3568]",-4,3.6332,-41,78,1,0,0,response7disk_5,-2,5,1,0,0,rectangle_8,-2,5,1,0,0,4,-2,5,1,0,0,3,0,3,0,1,,,,,,,,,,,,,,,,,,,,,,,,,,,,,,,,,,,,,,,,,,,,,,,,,,,,,,,,,,,,,,,,,,,,,,,,,,,,,,,,,,,,,,,,,,,,,,,,,,,,,,,,,,,,,,,,
,,,,,,6130d9dc1ffddcec1e925b4b,62c539a0b694e094fca2e558,2022-07-06_09h36.59.648,Colour_Asymmetry_Pilot,2022.1.3,Win32,31.99897603,62c50e9c1127f2cd403a315f,,,,,,,,,,,,,,,,,,,"[-0.9296,-0.12959999999999994,-0.043199999999999905]",onethree,"[-0.20799999999999996,-0.655,-0.01980000000000004]",-4,3.4932,-39,74,1,0,0,response7disk_5,0,8,1,0,0,rectangle_8,0,8,1,0,0,4,0,8,1,0,0,4,0,4,0,1,,,,,,,,,,,,,,,,,,,,,,,,,,,,,,,,,,,,,,,,,,,,,,,,,,,,,,,,,,,,,,,,,,,,,,,,,,,,,,,,,,,,,,,,,,,,,,,,,,,,,,,,,,,,,,,,
,,,,,,6130d9dc1ffddcec1e925b4b,62c539a0b694e094fca2e558,2022-07-06_09h36.59.648,Colour_Asymmetry_Pilot,2022.1.3,Win32,31.99897603,62c50e9c1127f2cd403a315f,,,,,,,,,,,,,,,,,,,"[0.12939999999999996,-0.2864,0.3253999999999999]",twoone,"[0.7018,0.7802,-0.16079999999999994]",-4,2.6475,-44,71,1,0,0,response7disk_5,-8,2,1,0,0,rectangle_8,-8,2,1,0,0,4,-8,2,1,0,0,5,0,5,0,1,,,,,,,,,,,,,,,,,,,,,,,,,,,,,,,,,,,,,,,,,,,,,,,,,,,,,,,,,,,,,,,,,,,,,,,,,,,,,,,,,,,,,,,,,,,,,,,,,,,,,,,,,,,,,,,,
,,,,,,6130d9dc1ffddcec1e925b4b,62c539a0b694e094fca2e558,2022-07-06_09h36.59.648,Colour_Asymmetry_Pilot,2022.1.3,Win32,31.99897603,62c50e9c1127f2cd403a315f,,,,,,,,,,,,,,,,,,,"[0.37240000000000006,0.4980000000000002,-0.2864]",threeone,"[0.7018,0.7176,0.6155999999999999]",-4,12.5912,-50,69,1,0,0,response7disk_5,-3,8,1,0,0,rectangle_8,-3,8,1,0,0,4,-3,8,1,0,0,6,0,6,0,1,,,,,,,,,,,,,,,,,,,,,,,,,,,,,,,,,,,,,,,,,,,,,,,,,,,,,,,,,,,,,,,,,,,,,,,,,,,,,,,,,,,,,,,,,,,,,,,,,,,,,,,,,,,,,,,,
,,,,,,6130d9dc1ffddcec1e925b4b,62c539a0b694e094fca2e558,2022-07-06_09h36.59.648,Colour_Asymmetry_Pilot,2022.1.3,Win32,31.99897603,62c50e9c1127f2cd403a315f,,,,,,,,,,,,,,,,,,,,threefour,,4,5.5005,,,,,,,,,,,,,,,,,,,,,,,,,,,,,,,,space,9.7719,"[-0.01980000000000004,-0.5138,-0.38039999999999996]","[-0.011800000000000033,-0.906,-0.45100000000000007]",36,81,1,0,0,response1disk,-3,1,1,0,0,rectangle,-3,1,1,0,0,,2,0.0063,0,-3,1,1,0,0,0,0,0,102,1,21,second,,,,,,,,,,,,,,,,,,,,,,,,,,,,,,,,,,,,,,,,,,,,,,,,,,,,,,,,,,,,,,,,,,,,,,,,
,,,,,,6130d9dc1ffddcec1e925b4b,62c539a0b694e094fca2e558,2022-07-06_09h36.59.648,Colour_Asymmetry_Pilot,2022.1.3,Win32,31.99897603,62c50e9c1127f2cd403a315f,,,,,,,,,,,,,,,,,,,,threefour,,-4,2.9418,,,,,,,,,,,,,,,,,,,,,,,,,,,,,,,,,,"[-0.2942,-0.7648,-0.7492000000000001]","[-0.6706000000000001,-0.6157999999999999,-0.6786]",-44,69,1,0,0,response7disk,-3,-2,1,0,0,rectangle,-3,-2,1,0,0,,1,0.0038,0,-3,-2,1,0,0,0,1,1,140,1,59,second,,,,,,,,,,,,,,,,,,,,,,,,,,,,,,,,,,,,,,,,,,,,,,,,,,,,,,,,,,,,,,,,,,,,,,,,
,,,,,,6130d9dc1ffddcec1e925b4b,62c539a0b694e094fca2e558,2022-07-06_09h36.59.648,Colour_Asymmetry_Pilot,2022.1.3,Win32,31.99897603,62c50e9c1127f2cd403a315f,,,,,,,,,,,,,,,,,,,,onetwo,,-4,3.3205,,,,,,,,,,,,,,,,,,,,,,,,,,,,,,,,,,"[-0.24719999999999998,0.5213999999999999,-0.12959999999999994]","[-0.07459999999999989,0.12139999999999995,-0.9922]",-43,65,1,0,0,response7disk,-12,11,1,0,0,rectangle,69,42,1,0,0,3,3,4.7987,1,-16,6,1,0,0,0,2,2,11,1,11,first,response1disk_3,rectangle,,,,,,,,,,,,,,,,,,,,,,,,,,,,,,,,,,,,,,,,,,,,,,,,,,,,,,,,,,,,,,,,,,,,,,
,,,,,,6130d9dc1ffddcec1e925b4b,62c539a0b694e094fca2e558,2022-07-06_09h36.59.648,Colour_Asymmetry_Pilot,2022.1.3,Win32,31.99897603,62c50e9c1127f2cd403a315f,,,,,,,,,,,,,,,,,,,,onethree,,-4,6.8436,,,,,,,,,,,,,,,,,,,,,,,,,,,,,,,,,,"[-0.8982,-0.37259999999999993,0.2784]","[-0.050999999999999934,-0.6706000000000001,-0.804]",-55,83,1,0,0,response7disk,-6,4,1,0,0,rectangle,-6,4,1,0,0,3,1,0.0035,0,-6,4,1,0,0,0,3,3,98,1,17,second,,,,,,,,,,,,,,,,,,,,,,,,,,,,,,,,,,,,,,,,,,,,,,,,,,,,,,,,,,,,,,,,,,,,,,,,
,,,,,,6130d9dc1ffddcec1e925b4b,62c539a0b694e094fca2e558,2022-07-06_09h36.59.648,Colour_Asymmetry_Pilot,2022.1.3,Win32,31.99897603,62c50e9c1127f2cd403a315f,,,,,,,,,,,,,,,,,,,,onetwo,,-4,3.0593,,,,,,,,,,,,,,,,,,,,,,,,,,,,,,,,,,"[0.9763999999999999,0.8588,-0.05900000000000005]","[-0.24719999999999998,0.5213999999999999,-0.12959999999999994]",-35,68,1,0,0,response7disk,-8,12,1,0,0,rectangle,-8,12,1,0,0,3,2,0.0037,0,-8,12,1,0,0,0,4,4,42,1,42,first,,,,,,,,,,,,,,,,,,,,,,,,,,,,,,,,,,,,,,,,,,,,,,,,,,,,,,,,,,,,,,,,,,,,,,,,
,,,,,,6130d9dc1ffddcec1e925b4b,62c539a0b694e094fca2e558,2022-07-06_09h36.59.648,Colour_Asymmetry_Pilot,2022.1.3,Win32,31.99897603,62c50e9c1127f2cd403a315f,,,,,,,,,,,,,,,,,,,,twoone,,-4,2.051,,,,,,,,,,,,,,,,,,,,,,,,,,,,,,,,,,"[-0.2942,-0.24719999999999998,-0.357]","[-0.9688,-0.38039999999999996,-0.41979999999999995]",-38,68,1,0,0,response7disk,-5,-3,1,0,0,rectangle,-5,-3,1,0,0,3,2,0.0007,0,-5,-3,1,0,0,0,5,5,96,1,15,second,,,,,,,,,,,,,,,,,,,,,,,,,,,,,,,,,,,,,,,,,,,,,,,,,,,,,,,,,,,,,,,,,,,,,,,,
,,,,,,6130d9dc1ffddcec1e925b4b,62c539a0b694e094fca2e558,2022-07-06_09h36.59.648,Colour_Asymmetry_Pilot,2022.1.3,Win32,31.99897603,62c50e9c1127f2cd403a315f,,,,,,,,,,,,,,,,,,,,onethree,,-4,1.9415,,,,,,,,,,,,,,,,,,,,,,,,,,,,,,,,,,"[0.6625999999999999,0.4980000000000002,-0.357]","[-0.4902000000000001,0.2704,-0.45899999999999996]",-41,63,1,0,0,response7disk,-13,0,1,0,0,rectangle,-13,0,1,0,0,3,1,0.0038,0,-13,0,1,0,0,0,6,6,88,1,7,second,,,,,,,,,,,,,,,,,,,,,,,,,,,,,,,,,,,,,,,,,,,,,,,,,,,,,,,,,,,,,,,,,,,,,,,,
,,,,,,6130d9dc1ffddcec1e925b4b,62c539a0b694e094fca2e558,2022-07-06_09h36.59.648,Colour_Asymmetry_Pilot,2022.1.3,Win32,31.99897603,62c50e9c1127f2cd403a315f,,,,,,,,,,,,,,,,,,,,twofour,,-4,2.1056,,,,,,,,,,,,,,,,,,,,,,,,,,,,,,,,,,"[0.7646000000000002,0.07440000000000002,0.2704]","[-0.8982,-0.37259999999999993,0.2784]",-40,67,1,0,0,response7disk,-3,12,1,0,0,rectangle,-3,12,1,0,0,3,2,0.0037,0,-3,12,1,0,0,0,7,7,2,1,2,first,,,,,,,,,,,,,,,,,,,,,,,,,,,,,,,,,,,,,,,,,,,,,,,,,,,,,,,,,,,,,,,,,,,,,,,,
,,,,,,6130d9dc1ffddcec1e925b4b,62c539a0b694e094fca2e558,2022-07-06_09h36.59.648,Colour_Asymmetry_Pilot,2022.1.3,Win32,31.99897603,62c50e9c1127f2cd403a315f,,,,,,,,,,,,,,,,,,,,fourthree,,-4,3.4825,,,,,,,,,,,,,,,,,,,,,,,,,,,,,,,,,,"[0.9763999999999999,-0.1137999999999999,-0.6314]","[-0.2942,-0.7648,-0.7492000000000001]",-41,69,1,0,0,response7disk,-2,11,1,0,0,rectangle,-2,11,1,0,0,3,2,0.0007,0,-2,11,1,0,0,0,8,8,14,1,14,first,,,,,,,,,,,,,,,,,,,,,,,,,,,,,,,,,,,,,,,,,,,,,,,,,,,,,,,,,,,,,,,,,,,,,,,,
,,,,,,6130d9dc1ffddcec1e925b4b,62c539a0b694e094fca2e558,2022-07-06_09h36.59.648,Colour_Asymmetry_Pilot,2022.1.3,Win32,31.99897603,62c50e9c1127f2cd403a315f,,,,,,,,,,,,,,,,,,,,twofour,,-4,2.332,,,,,,,,,,,,,,,,,,,,,,,,,,,,,,,,,,"[0.12939999999999996,-0.2864,0.3253999999999999]","[-0.9138,-0.5296000000000001,-0.5529999999999999]",-48,65,1,0,0,response7disk,-3,-4,1,0,0,rectangle,-3,-4,1,0,0,3,3,0.0038,0,-3,-4,1,0,0,0,9,9,157,1,76,second,,,,,,,,,,,,,,,,,,,,,,,,,,,,,,,,,,,,,,,,,,,,,,,,,,,,,,,,,,,,,,,,,,,,,,,,
,,,,,,6130d9dc1ffddcec1e925b4b,62c539a0b694e094fca2e558,2022-07-06_09h36.59.648,Colour_Asymmetry_Pilot,2022.1.3,Win32,31.99897603,62c50e9c1127f2cd403a315f,,,,,,,,,,,,,,,,,,,,threefour,,-4,1.8993,,,,,,,,,,,,,,,,,,,,,,,,,,,,,,,,,,"[-0.4902000000000001,0.2704,-0.45899999999999996]","[0.6625999999999999,0.4980000000000002,-0.357]",-44,76,1,0,0,response7disk,-4,7,1,0,0,rectangle,-4,7,1,0,0,3,3,0.0007,0,-4,7,1,0,0,0,10,10,7,1,7,first,,,,,,,,,,,,,,,,,,,,,,,,,,,,,,,,,,,,,,,,,,,,,,,,,,,,,,,,,,,,,,,,,,,,,,,,
,,,,,,6130d9dc1ffddcec1e925b4b,62c539a0b694e094fca2e558,2022-07-06_09h36.59.648,Colour_Asymmetry_Pilot,2022.1.3,Win32,31.99897603,62c50e9c1127f2cd403a315f,,,,,,,,,,,,,,,,,,,,fourthree,,-4,4.908,,,,,,,,,,,,,,,,,,,,,,,,,,,,,,,,,,"[-0.011800000000000033,-0.906,-0.45100000000000007]","[0.30180000000000007,-0.7884,-0.9844]",-42,70,1,0,0,response7disk,-11,10,1,0,0,rectangle,-11,10,1,0,0,3,2,0.0034,0,-11,10,1,0,0,0,11,11,31,1,31,first,,,,,,,,,,,,,,,,,,,,,,,,,,,,,,,,,,,,,,,,,,,,,,,,,,,,,,,,,,,,,,,,,,,,,,,,
,,,,,,6130d9dc1ffddcec1e925b4b,62c539a0b694e094fca2e558,2022-07-06_09h36.59.648,Colour_Asymmetry_Pilot,2022.1.3,Win32,31.99897603,62c50e9c1127f2cd403a315f,,,,,,,,,,,,,,,,,,,,twofour,,-4,1.8871,,,,,,,,,,,,,,,,,,,,,,,,,,,,,,,,,,"[-0.9216,-0.5529999999999999,-0.3962]","[0.04299999999999993,0.16060000000000008,-0.6628000000000001]",-42,67,1,0,0,response7disk,4,8,1,0,0,rectangle,4,8,1,0,0,3,1,0.0033,0,4,8,1,0,0,0,12,12,49,1,49,first,,,,,,,,,,,,,,,,,,,,,,,,,,,,,,,,,,,,,,,,,,,,,,,,,,,,,,,,,,,,,,,,,,,,,,,,
,,,,,,6130d9dc1ffddcec1e925b4b,62c539a0b694e094fca2e558,2022-07-06_09h36.59.648,Colour_Asymmetry_Pilot,2022.1.3,Win32,31.99897603,62c50e9c1127f2cd403a315f,,,,,,,,,,,,,,,,,,,,twofour,,-4,2.0586,,,,,,,,,,,,,,,,,,,,,,,,,,,,,,,,,,"[0.0351999999999999,0.41159999999999997,0.0038000000000000256]","[-0.9766,-0.6472,0.07440000000000002]",-41,80,1,0,0,response7disk,-7,15,1,0,0,rectangle,-7,15,1,0,0,3,2,0.0033,0,-7,15,1,0,0,0,13,13,29,1,29,first,,,,,,,,,,,,,,,,,,,,,,,,,,,,,,,,,,,,,,,,,,,,,,,,,,,,,,,,,,,,,,,,,,,,,,,,
,,,,,,6130d9dc1ffddcec1e925b4b,62c539a0b694e094fca2e558,2022-07-06_09h36.59.648,Colour_Asymmetry_Pilot,2022.1.3,Win32,31.99897603,62c50e9c1127f2cd403a315f,,,,,,,,,,,,,,,,,,,,threefour,,-4,1.4638,,,,,,,,,,,,,,,,,,,,,,,,,,,,,,,,,,"[0.6625999999999999,0.4980000000000002,-0.357]","[-0.01980000000000004,-0.5138,-0.38039999999999996]",-47,81,1,0,0,response7disk,-13,8,1,0,0,rectangle,-13,8,1,0,0,3,1,0.0034,0,-13,8,1,0,0,0,14,14,61,1,61,first,,,,,,,,,,,,,,,,,,,,,,,,,,,,,,,,,,,,,,,,,,,,,,,,,,,,,,,,,,,,,,,,,,,,,,,,
,,,,,,6130d9dc1ffddcec1e925b4b,62c539a0b694e094fca2e558,2022-07-06_09h36.59.648,Colour_Asymmetry_Pilot,2022.1.3,Win32,31.99897603,62c50e9c1127f2cd403a315f,,,,,,,,,,,,,,,,,,,,fourtwo,,-4,1.9143,,,,,,,,,,,,,,,,,,,,,,,,,,,,,,,,,,"[0.30180000000000007,-0.7884,-0.9844]","[-0.011800000000000033,-0.906,-0.45100000000000007]",-32,63,1,0,0,response7disk,-5,7,1,0,0,rectangle,-5,7,1,0,0,3,3,0.0053,0,-5,7,1,0,0,0,15,15,112,1,31,second,,,,,,,,,,,,,,,,,,,,,,,,,,,,,,,,,,,,,,,,,,,,,,,,,,,,,,,,,,,,,,,,,,,,,,,,
,,,,,,6130d9dc1ffddcec1e925b4b,62c539a0b694e094fca2e558,2022-07-06_09h36.59.648,Colour_Asymmetry_Pilot,2022.1.3,Win32,31.99897603,62c50e9c1127f2cd403a315f,,,,,,,,,,,,,,,,,,,,onetwo,,-4,1.7453,,,,,,,,,,,,,,,,,,,,,,,,,,,,,,,,,,"[-0.9844,-0.9688,-0.9922]","[-0.06680000000000008,-0.45100000000000007,-0.906]",-39,69,1,0,0,response7disk,0,2,1,0,0,rectangle,0,2,1,0,0,3,2,0.0033,0,0,2,1,0,0,0,16,16,52,1,52,first,,,,,,,,,,,,,,,,,,,,,,,,,,,,,,,,,,,,,,,,,,,,,,,,,,,,,,,,,,,,,,,,,,,,,,,,
,,,,,,6130d9dc1ffddcec1e925b4b,62c539a0b694e094fca2e558,2022-07-06_09h36.59.648,Colour_Asymmetry_Pilot,2022.1.3,Win32,31.99897603,62c50e9c1127f2cd403a315f,,,,,,,,,,,,,,,,,,,,twofour,,-4,1.4655,,,,,,,,,,,,,,,,,,,,,,,,,,,,,,,,,,"[-0.9138,-0.5296000000000001,-0.5529999999999999]","[0.12939999999999996,-0.2864,0.3253999999999999]",-46,71,1,0,0,response7disk,-3,0,1,0,0,rectangle,77,-38,1,0,0,2,2,7.2998,1,2,-4,1,0,0,0,17,17,76,1,76,first,response3disk_3,rectangle,,,,,,,,,,,,,,,,,,,,,,,,,,,,,,,,,,,,,,,,,,,,,,,,,,,,,,,,,,,,,,,,,,,,,,
