trials.thisRepN,trials.thisTrialN,trials.thisN,trials.thisIndex,trials.ran,Colourcodes,participant,session,date,expName,psychopyVersion,OS,frameRate,study_id,trials_4.thisRepN,trials_4.thisTrialN,trials_4.thisN,trials_4.thisIndex,trials_4.ran,StimulusPos,key_resp.keys,key_resp.rt,key_resp_2.keys,key_resp_2.rt,key_resp_15.keys,key_resp_15.rt,key_resp_17.keys,key_resp_17.rt,key_resp_9.keys,key_resp_9.rt,key_resp_10.keys,key_resp_10.rt,Circle1_col,Ecc,Circle2_col,similarity,response_time,mouse_5.x,mouse_5.y,mouse_5.leftButton,mouse_5.midButton,mouse_5.rightButton,mouse_5.clicked_name,mouse_10.x,mouse_10.y,mouse_10.leftButton,mouse_10.midButton,mouse_10.rightButton,mouse_10.clicked_name,mouse_7.x,mouse_7.y,mouse_7.leftButton,mouse_7.midButton,mouse_7.rightButton,mouse_7.clicked_name,catchprac,catchnumberprac,mouse_6.x,mouse_6.y,mouse_6.leftButton,mouse_6.midButton,mouse_6.rightButton,mouse_6.clicked_name,duringprac.thisRepN,duringprac.thisTrialN,duringprac.thisN,duringprac.thisIndex,duringprac.ran,key_resp_22.keys,key_resp_22.rt,Circle1_colour,Circle2_colour,mouse.x,mouse.y,mouse.leftButton,mouse.midButton,mouse.rightButton,mouse.clicked_name,mouse_2.x,mouse_2.y,mouse_2.leftButton,mouse_2.midButton,mouse_2.rightButton,mouse_2.clicked_name,mouse_3.x,mouse_3.y,mouse_3.leftButton,mouse_3.midButton,mouse_3.rightButton,catchresponse,catchnumber,response_time_catch,Catch,mouse_11.x,mouse_11.y,mouse_11.leftButton,mouse_11.midButton,mouse_11.rightButton,trials_2.thisRepN,trials_2.thisTrialN,trials_2.thisN,trials_2.thisIndex,trials_2.ran,Colourpair,Temporder,mouse_3.clicked_name,mouse_11.clicked_name,trials_3.thisRepN,trials_3.thisTrialN,trials_3.thisN,trials_3.thisIndex,trials_3.ran,key_resp_instr_Ishi.keys,key_resp_instr_Ishi.rt,Ishi_trial_keyresp.keys,Ishi_textbox.text,Ishi_mouse.x,Ishi_mouse.y,Ishi_mouse.leftButton,Ishi_mouse.midButton,Ishi_mouse.rightButton,Ishi_mouse.clicked_name,Ishi_loop.thisRepN,Ishi_loop.thisTrialN,Ishi_loop.thisN,Ishi_loop.thisIndex,Ishi_loop.ran,imageaddress,textbox.text,mouse_4.x,mouse_4.y,mouse_4.leftButton,mouse_4.midButton,mouse_4.rightButton,mouse_4.clicked_name,textbox_2.text,mouse_8.x,mouse_8.y,mouse_8.leftButton,mouse_8.midButton,mouse_8.rightButton,mouse_8.clicked_name,textbox_3.text,mouse_9.x,mouse_9.y,mouse_9.leftButton,mouse_9.midButton,mouse_9.rightButton,mouse_9.clicked_name,textbox_4.text,mouse_12.x,mouse_12.y,mouse_12.leftButton,mouse_12.midButton,mouse_12.rightButton,mouse_12.clicked_name,textbox_5.text,mouse_13.x,mouse_13.y,mouse_13.leftButton,mouse_13.midButton,mouse_13.rightButton,mouse_13.clicked_name,textbox_6.text,mouse_14.x,mouse_14.y,mouse_14.leftButton,mouse_14.midButton,mouse_14.rightButton,mouse_14.clicked_name,textbox_7.text,mouse_15.x,mouse_15.y,mouse_15.leftButton,mouse_15.midButton,mouse_15.rightButton,mouse_15.clicked_name
0,0,0,8,1,,61337dde21439c131ffb37fe,62c539fd72c1aae8268437f1,2022-07-06_09h30.29.611,Colour_Asymmetry_Pilot,2022.1.3,Win32,59.1401029,62c50e9c1127f2cd403a315f,,,,,,,,,,,,,,,,,,,,,,,,,,,,,,,,,,,,,,,,,,,,,,,,,,,,,,,,,,,,,,,,,,,,,,,,,,,,,,,,,,,,,,,,,,,,,,,,,,,,,,,,,,,,,,,,,,,,,,,,,,,,,,,,,,,,,,,,,,,,,,,,,,,,,,,,,,,,,,,,,,,
0,1,1,7,1,,61337dde21439c131ffb37fe,62c539fd72c1aae8268437f1,2022-07-06_09h30.29.611,Colour_Asymmetry_Pilot,2022.1.3,Win32,59.1401029,62c50e9c1127f2cd403a315f,,,,,,,,,,,,,,,,,,,,,,,,,,,,,,,,,,,,,,,,,,,,,,,,,,,,,,,,,,,,,,,,,,,,,,,,,,,,,,,,,,,,,,,,,,,,,,,,,,,,,,,,,,,,,,,,,,,,,,,,,,,,,,,,,,,,,,,,,,,,,,,,,,,,,,,,,,,,,,,,,,,
0,2,2,31,1,,61337dde21439c131ffb37fe,62c539fd72c1aae8268437f1,2022-07-06_09h30.29.611,Colour_Asymmetry_Pilot,2022.1.3,Win32,59.1401029,62c50e9c1127f2cd403a315f,,,,,,,,,,,,,,,,,,,,,,,,,,,,,,,,,,,,,,,,,,,,,,,,,,,,,,,,,,,,,,,,,,,,,,,,,,,,,,,,,,,,,,,,,,,,,,,,,,,,,,,,,,,,,,,,,,,,,,,,,,,,,,,,,,,,,,,,,,,,,,,,,,,,,,,,,,,,,,,,,,,
0,3,3,1,1,,61337dde21439c131ffb37fe,62c539fd72c1aae8268437f1,2022-07-06_09h30.29.611,Colour_Asymmetry_Pilot,2022.1.3,Win32,59.1401029,62c50e9c1127f2cd403a315f,,,,,,,,,,,,,,,,,,,,,,,,,,,,,,,,,,,,,,,,,,,,,,,,,,,,,,,,,,,,,,,,,,,,,,,,,,,,,,,,,,,,,,,,,,,,,,,,,,,,,,,,,,,,,,,,,,,,,,,,,,,,,,,,,,,,,,,,,,,,,,,,,,,,,,,,,,,,,,,,,,,
0,4,4,75,1,,61337dde21439c131ffb37fe,62c539fd72c1aae8268437f1,2022-07-06_09h30.29.611,Colour_Asymmetry_Pilot,2022.1.3,Win32,59.1401029,62c50e9c1127f2cd403a315f,,,,,,,,,,,,,,,,,,,,,,,,,,,,,,,,,,,,,,,,,,,,,,,,,,,,,,,,,,,,,,,,,,,,,,,,,,,,,,,,,,,,,,,,,,,,,,,,,,,,,,,,,,,,,,,,,,,,,,,,,,,,,,,,,,,,,,,,,,,,,,,,,,,,,,,,,,,,,,,,,,,
0,5,5,83,1,,61337dde21439c131ffb37fe,62c539fd72c1aae8268437f1,2022-07-06_09h30.29.611,Colour_Asymmetry_Pilot,2022.1.3,Win32,59.1401029,62c50e9c1127f2cd403a315f,,,,,,,,,,,,,,,,,,,,,,,,,,,,,,,,,,,,,,,,,,,,,,,,,,,,,,,,,,,,,,,,,,,,,,,,,,,,,,,,,,,,,,,,,,,,,,,,,,,,,,,,,,,,,,,,,,,,,,,,,,,,,,,,,,,,,,,,,,,,,,,,,,,,,,,,,,,,,,,,,,,
0,6,6,57,1,,61337dde21439c131ffb37fe,62c539fd72c1aae8268437f1,2022-07-06_09h30.29.611,Colour_Asymmetry_Pilot,2022.1.3,Win32,59.1401029,62c50e9c1127f2cd403a315f,,,,,,,,,,,,,,,,,,,,,,,,,,,,,,,,,,,,,,,,,,,,,,,,,,,,,,,,,,,,,,,,,,,,,,,,,,,,,,,,,,,,,,,,,,,,,,,,,,,,,,,,,,,,,,,,,,,,,,,,,,,,,,,,,,,,,,,,,,,,,,,,,,,,,,,,,,,,,,,,,,,
0,7,7,45,1,,61337dde21439c131ffb37fe,62c539fd72c1aae8268437f1,2022-07-06_09h30.29.611,Colour_Asymmetry_Pilot,2022.1.3,Win32,59.1401029,62c50e9c1127f2cd403a315f,,,,,,,,,,,,,,,,,,,,,,,,,,,,,,,,,,,,,,,,,,,,,,,,,,,,,,,,,,,,,,,,,,,,,,,,,,,,,,,,,,,,,,,,,,,,,,,,,,,,,,,,,,,,,,,,,,,,,,,,,,,,,,,,,,,,,,,,,,,,,,,,,,,,,,,,,,,,,,,,,,,
0,8,8,55,1,,61337dde21439c131ffb37fe,62c539fd72c1aae8268437f1,2022-07-06_09h30.29.611,Colour_Asymmetry_Pilot,2022.1.3,Win32,59.1401029,62c50e9c1127f2cd403a315f,,,,,,,,,,,,,,,,,,,,,,,,,,,,,,,,,,,,,,,,,,,,,,,,,,,,,,,,,,,,,,,,,,,,,,,,,,,,,,,,,,,,,,,,,,,,,,,,,,,,,,,,,,,,,,,,,,,,,,,,,,,,,,,,,,,,,,,,,,,,,,,,,,,,,,,,,,,,,,,,,,,
0,9,9,11,1,,61337dde21439c131ffb37fe,62c539fd72c1aae8268437f1,2022-07-06_09h30.29.611,Colour_Asymmetry_Pilot,2022.1.3,Win32,59.1401029,62c50e9c1127f2cd403a315f,,,,,,,,,,,,,,,,,,,,,,,,,,,,,,,,,,,,,,,,,,,,,,,,,,,,,,,,,,,,,,,,,,,,,,,,,,,,,,,,,,,,,,,,,,,,,,,,,,,,,,,,,,,,,,,,,,,,,,,,,,,,,,,,,,,,,,,,,,,,,,,,,,,,,,,,,,,,,,,,,,,
0,10,10,65,1,,61337dde21439c131ffb37fe,62c539fd72c1aae8268437f1,2022-07-06_09h30.29.611,Colour_Asymmetry_Pilot,2022.1.3,Win32,59.1401029,62c50e9c1127f2cd403a315f,,,,,,,,,,,,,,,,,,,,,,,,,,,,,,,,,,,,,,,,,,,,,,,,,,,,,,,,,,,,,,,,,,,,,,,,,,,,,,,,,,,,,,,,,,,,,,,,,,,,,,,,,,,,,,,,,,,,,,,,,,,,,,,,,,,,,,,,,,,,,,,,,,,,,,,,,,,,,,,,,,,
0,11,11,76,1,,61337dde21439c131ffb37fe,62c539fd72c1aae8268437f1,2022-07-06_09h30.29.611,Colour_Asymmetry_Pilot,2022.1.3,Win32,59.1401029,62c50e9c1127f2cd403a315f,,,,,,,,,,,,,,,,,,,,,,,,,,,,,,,,,,,,,,,,,,,,,,,,,,,,,,,,,,,,,,,,,,,,,,,,,,,,,,,,,,,,,,,,,,,,,,,,,,,,,,,,,,,,,,,,,,,,,,,,,,,,,,,,,,,,,,,,,,,,,,,,,,,,,,,,,,,,,,,,,,,
0,12,12,51,1,,61337dde21439c131ffb37fe,62c539fd72c1aae8268437f1,2022-07-06_09h30.29.611,Colour_Asymmetry_Pilot,2022.1.3,Win32,59.1401029,62c50e9c1127f2cd403a315f,,,,,,,,,,,,,,,,,,,,,,,,,,,,,,,,,,,,,,,,,,,,,,,,,,,,,,,,,,,,,,,,,,,,,,,,,,,,,,,,,,,,,,,,,,,,,,,,,,,,,,,,,,,,,,,,,,,,,,,,,,,,,,,,,,,,,,,,,,,,,,,,,,,,,,,,,,,,,,,,,,,
0,13,13,23,1,,61337dde21439c131ffb37fe,62c539fd72c1aae8268437f1,2022-07-06_09h30.29.611,Colour_Asymmetry_Pilot,2022.1.3,Win32,59.1401029,62c50e9c1127f2cd403a315f,,,,,,,,,,,,,,,,,,,,,,,,,,,,,,,,,,,,,,,,,,,,,,,,,,,,,,,,,,,,,,,,,,,,,,,,,,,,,,,,,,,,,,,,,,,,,,,,,,,,,,,,,,,,,,,,,,,,,,,,,,,,,,,,,,,,,,,,,,,,,,,,,,,,,,,,,,,,,,,,,,,
0,14,14,32,1,,61337dde21439c131ffb37fe,62c539fd72c1aae8268437f1,2022-07-06_09h30.29.611,Colour_Asymmetry_Pilot,2022.1.3,Win32,59.1401029,62c50e9c1127f2cd403a315f,,,,,,,,,,,,,,,,,,,,,,,,,,,,,,,,,,,,,,,,,,,,,,,,,,,,,,,,,,,,,,,,,,,,,,,,,,,,,,,,,,,,,,,,,,,,,,,,,,,,,,,,,,,,,,,,,,,,,,,,,,,,,,,,,,,,,,,,,,,,,,,,,,,,,,,,,,,,,,,,,,,
0,15,15,4,1,,61337dde21439c131ffb37fe,62c539fd72c1aae8268437f1,2022-07-06_09h30.29.611,Colour_Asymmetry_Pilot,2022.1.3,Win32,59.1401029,62c50e9c1127f2cd403a315f,,,,,,,,,,,,,,,,,,,,,,,,,,,,,,,,,,,,,,,,,,,,,,,,,,,,,,,,,,,,,,,,,,,,,,,,,,,,,,,,,,,,,,,,,,,,,,,,,,,,,,,,,,,,,,,,,,,,,,,,,,,,,,,,,,,,,,,,,,,,,,,,,,,,,,,,,,,,,,,,,,,
0,16,16,79,1,,61337dde21439c131ffb37fe,62c539fd72c1aae8268437f1,2022-07-06_09h30.29.611,Colour_Asymmetry_Pilot,2022.1.3,Win32,59.1401029,62c50e9c1127f2cd403a315f,,,,,,,,,,,,,,,,,,,,,,,,,,,,,,,,,,,,,,,,,,,,,,,,,,,,,,,,,,,,,,,,,,,,,,,,,,,,,,,,,,,,,,,,,,,,,,,,,,,,,,,,,,,,,,,,,,,,,,,,,,,,,,,,,,,,,,,,,,,,,,,,,,,,,,,,,,,,,,,,,,,
0,17,17,81,1,,61337dde21439c131ffb37fe,62c539fd72c1aae8268437f1,2022-07-06_09h30.29.611,Colour_Asymmetry_Pilot,2022.1.3,Win32,59.1401029,62c50e9c1127f2cd403a315f,,,,,,,,,,,,,,,,,,,,,,,,,,,,,,,,,,,,,,,,,,,,,,,,,,,,,,,,,,,,,,,,,,,,,,,,,,,,,,,,,,,,,,,,,,,,,,,,,,,,,,,,,,,,,,,,,,,,,,,,,,,,,,,,,,,,,,,,,,,,,,,,,,,,,,,,,,,,,,,,,,,
0,18,18,84,1,,61337dde21439c131ffb37fe,62c539fd72c1aae8268437f1,2022-07-06_09h30.29.611,Colour_Asymmetry_Pilot,2022.1.3,Win32,59.1401029,62c50e9c1127f2cd403a315f,,,,,,,,,,,,,,,,,,,,,,,,,,,,,,,,,,,,,,,,,,,,,,,,,,,,,,,,,,,,,,,,,,,,,,,,,,,,,,,,,,,,,,,,,,,,,,,,,,,,,,,,,,,,,,,,,,,,,,,,,,,,,,,,,,,,,,,,,,,,,,,,,,,,,,,,,,,,,,,,,,,
0,19,19,47,1,,61337dde21439c131ffb37fe,62c539fd72c1aae8268437f1,2022-07-06_09h30.29.611,Colour_Asymmetry_Pilot,2022.1.3,Win32,59.1401029,62c50e9c1127f2cd403a315f,,,,,,,,,,,,,,,,,,,,,,,,,,,,,,,,,,,,,,,,,,,,,,,,,,,,,,,,,,,,,,,,,,,,,,,,,,,,,,,,,,,,,,,,,,,,,,,,,,,,,,,,,,,,,,,,,,,,,,,,,,,,,,,,,,,,,,,,,,,,,,,,,,,,,,,,,,,,,,,,,,,
0,20,20,61,1,,61337dde21439c131ffb37fe,62c539fd72c1aae8268437f1,2022-07-06_09h30.29.611,Colour_Asymmetry_Pilot,2022.1.3,Win32,59.1401029,62c50e9c1127f2cd403a315f,,,,,,,,,,,,,,,,,,,,,,,,,,,,,,,,,,,,,,,,,,,,,,,,,,,,,,,,,,,,,,,,,,,,,,,,,,,,,,,,,,,,,,,,,,,,,,,,,,,,,,,,,,,,,,,,,,,,,,,,,,,,,,,,,,,,,,,,,,,,,,,,,,,,,,,,,,,,,,,,,,,
0,21,21,67,1,,61337dde21439c131ffb37fe,62c539fd72c1aae8268437f1,2022-07-06_09h30.29.611,Colour_Asymmetry_Pilot,2022.1.3,Win32,59.1401029,62c50e9c1127f2cd403a315f,,,,,,,,,,,,,,,,,,,,,,,,,,,,,,,,,,,,,,,,,,,,,,,,,,,,,,,,,,,,,,,,,,,,,,,,,,,,,,,,,,,,,,,,,,,,,,,,,,,,,,,,,,,,,,,,,,,,,,,,,,,,,,,,,,,,,,,,,,,,,,,,,,,,,,,,,,,,,,,,,,,
0,22,22,27,1,,61337dde21439c131ffb37fe,62c539fd72c1aae8268437f1,2022-07-06_09h30.29.611,Colour_Asymmetry_Pilot,2022.1.3,Win32,59.1401029,62c50e9c1127f2cd403a315f,,,,,,,,,,,,,,,,,,,,,,,,,,,,,,,,,,,,,,,,,,,,,,,,,,,,,,,,,,,,,,,,,,,,,,,,,,,,,,,,,,,,,,,,,,,,,,,,,,,,,,,,,,,,,,,,,,,,,,,,,,,,,,,,,,,,,,,,,,,,,,,,,,,,,,,,,,,,,,,,,,,
0,23,23,33,1,,61337dde21439c131ffb37fe,62c539fd72c1aae8268437f1,2022-07-06_09h30.29.611,Colour_Asymmetry_Pilot,2022.1.3,Win32,59.1401029,62c50e9c1127f2cd403a315f,,,,,,,,,,,,,,,,,,,,,,,,,,,,,,,,,,,,,,,,,,,,,,,,,,,,,,,,,,,,,,,,,,,,,,,,,,,,,,,,,,,,,,,,,,,,,,,,,,,,,,,,,,,,,,,,,,,,,,,,,,,,,,,,,,,,,,,,,,,,,,,,,,,,,,,,,,,,,,,,,,,
0,24,24,68,1,,61337dde21439c131ffb37fe,62c539fd72c1aae8268437f1,2022-07-06_09h30.29.611,Colour_Asymmetry_Pilot,2022.1.3,Win32,59.1401029,62c50e9c1127f2cd403a315f,,,,,,,,,,,,,,,,,,,,,,,,,,,,,,,,,,,,,,,,,,,,,,,,,,,,,,,,,,,,,,,,,,,,,,,,,,,,,,,,,,,,,,,,,,,,,,,,,,,,,,,,,,,,,,,,,,,,,,,,,,,,,,,,,,,,,,,,,,,,,,,,,,,,,,,,,,,,,,,,,,,
0,25,25,24,1,,61337dde21439c131ffb37fe,62c539fd72c1aae8268437f1,2022-07-06_09h30.29.611,Colour_Asymmetry_Pilot,2022.1.3,Win32,59.1401029,62c50e9c1127f2cd403a315f,,,,,,,,,,,,,,,,,,,,,,,,,,,,,,,,,,,,,,,,,,,,,,,,,,,,,,,,,,,,,,,,,,,,,,,,,,,,,,,,,,,,,,,,,,,,,,,,,,,,,,,,,,,,,,,,,,,,,,,,,,,,,,,,,,,,,,,,,,,,,,,,,,,,,,,,,,,,,,,,,,,
0,26,26,29,1,,61337dde21439c131ffb37fe,62c539fd72c1aae8268437f1,2022-07-06_09h30.29.611,Colour_Asymmetry_Pilot,2022.1.3,Win32,59.1401029,62c50e9c1127f2cd403a315f,,,,,,,,,,,,,,,,,,,,,,,,,,,,,,,,,,,,,,,,,,,,,,,,,,,,,,,,,,,,,,,,,,,,,,,,,,,,,,,,,,,,,,,,,,,,,,,,,,,,,,,,,,,,,,,,,,,,,,,,,,,,,,,,,,,,,,,,,,,,,,,,,,,,,,,,,,,,,,,,,,,
0,27,27,73,1,,61337dde21439c131ffb37fe,62c539fd72c1aae8268437f1,2022-07-06_09h30.29.611,Colour_Asymmetry_Pilot,2022.1.3,Win32,59.1401029,62c50e9c1127f2cd403a315f,,,,,,,,,,,,,,,,,,,,,,,,,,,,,,,,,,,,,,,,,,,,,,,,,,,,,,,,,,,,,,,,,,,,,,,,,,,,,,,,,,,,,,,,,,,,,,,,,,,,,,,,,,,,,,,,,,,,,,,,,,,,,,,,,,,,,,,,,,,,,,,,,,,,,,,,,,,,,,,,,,,
0,28,28,14,1,,61337dde21439c131ffb37fe,62c539fd72c1aae8268437f1,2022-07-06_09h30.29.611,Colour_Asymmetry_Pilot,2022.1.3,Win32,59.1401029,62c50e9c1127f2cd403a315f,,,,,,,,,,,,,,,,,,,,,,,,,,,,,,,,,,,,,,,,,,,,,,,,,,,,,,,,,,,,,,,,,,,,,,,,,,,,,,,,,,,,,,,,,,,,,,,,,,,,,,,,,,,,,,,,,,,,,,,,,,,,,,,,,,,,,,,,,,,,,,,,,,,,,,,,,,,,,,,,,,,
0,29,29,90,1,,61337dde21439c131ffb37fe,62c539fd72c1aae8268437f1,2022-07-06_09h30.29.611,Colour_Asymmetry_Pilot,2022.1.3,Win32,59.1401029,62c50e9c1127f2cd403a315f,,,,,,,,,,,,,,,,,,,,,,,,,,,,,,,,,,,,,,,,,,,,,,,,,,,,,,,,,,,,,,,,,,,,,,,,,,,,,,,,,,,,,,,,,,,,,,,,,,,,,,,,,,,,,,,,,,,,,,,,,,,,,,,,,,,,,,,,,,,,,,,,,,,,,,,,,,,,,,,,,,,
0,30,30,64,1,,61337dde21439c131ffb37fe,62c539fd72c1aae8268437f1,2022-07-06_09h30.29.611,Colour_Asymmetry_Pilot,2022.1.3,Win32,59.1401029,62c50e9c1127f2cd403a315f,,,,,,,,,,,,,,,,,,,,,,,,,,,,,,,,,,,,,,,,,,,,,,,,,,,,,,,,,,,,,,,,,,,,,,,,,,,,,,,,,,,,,,,,,,,,,,,,,,,,,,,,,,,,,,,,,,,,,,,,,,,,,,,,,,,,,,,,,,,,,,,,,,,,,,,,,,,,,,,,,,,
0,31,31,71,1,,61337dde21439c131ffb37fe,62c539fd72c1aae8268437f1,2022-07-06_09h30.29.611,Colour_Asymmetry_Pilot,2022.1.3,Win32,59.1401029,62c50e9c1127f2cd403a315f,,,,,,,,,,,,,,,,,,,,,,,,,,,,,,,,,,,,,,,,,,,,,,,,,,,,,,,,,,,,,,,,,,,,,,,,,,,,,,,,,,,,,,,,,,,,,,,,,,,,,,,,,,,,,,,,,,,,,,,,,,,,,,,,,,,,,,,,,,,,,,,,,,,,,,,,,,,,,,,,,,,
0,32,32,15,1,,61337dde21439c131ffb37fe,62c539fd72c1aae8268437f1,2022-07-06_09h30.29.611,Colour_Asymmetry_Pilot,2022.1.3,Win32,59.1401029,62c50e9c1127f2cd403a315f,,,,,,,,,,,,,,,,,,,,,,,,,,,,,,,,,,,,,,,,,,,,,,,,,,,,,,,,,,,,,,,,,,,,,,,,,,,,,,,,,,,,,,,,,,,,,,,,,,,,,,,,,,,,,,,,,,,,,,,,,,,,,,,,,,,,,,,,,,,,,,,,,,,,,,,,,,,,,,,,,,,
0,33,33,37,1,,61337dde21439c131ffb37fe,62c539fd72c1aae8268437f1,2022-07-06_09h30.29.611,Colour_Asymmetry_Pilot,2022.1.3,Win32,59.1401029,62c50e9c1127f2cd403a315f,,,,,,,,,,,,,,,,,,,,,,,,,,,,,,,,,,,,,,,,,,,,,,,,,,,,,,,,,,,,,,,,,,,,,,,,,,,,,,,,,,,,,,,,,,,,,,,,,,,,,,,,,,,,,,,,,,,,,,,,,,,,,,,,,,,,,,,,,,,,,,,,,,,,,,,,,,,,,,,,,,,
0,34,34,16,1,,61337dde21439c131ffb37fe,62c539fd72c1aae8268437f1,2022-07-06_09h30.29.611,Colour_Asymmetry_Pilot,2022.1.3,Win32,59.1401029,62c50e9c1127f2cd403a315f,,,,,,,,,,,,,,,,,,,,,,,,,,,,,,,,,,,,,,,,,,,,,,,,,,,,,,,,,,,,,,,,,,,,,,,,,,,,,,,,,,,,,,,,,,,,,,,,,,,,,,,,,,,,,,,,,,,,,,,,,,,,,,,,,,,,,,,,,,,,,,,,,,,,,,,,,,,,,,,,,,,
0,35,35,26,1,,61337dde21439c131ffb37fe,62c539fd72c1aae8268437f1,2022-07-06_09h30.29.611,Colour_Asymmetry_Pilot,2022.1.3,Win32,59.1401029,62c50e9c1127f2cd403a315f,,,,,,,,,,,,,,,,,,,,,,,,,,,,,,,,,,,,,,,,,,,,,,,,,,,,,,,,,,,,,,,,,,,,,,,,,,,,,,,,,,,,,,,,,,,,,,,,,,,,,,,,,,,,,,,,,,,,,,,,,,,,,,,,,,,,,,,,,,,,,,,,,,,,,,,,,,,,,,,,,,,
0,36,36,46,1,,61337dde21439c131ffb37fe,62c539fd72c1aae8268437f1,2022-07-06_09h30.29.611,Colour_Asymmetry_Pilot,2022.1.3,Win32,59.1401029,62c50e9c1127f2cd403a315f,,,,,,,,,,,,,,,,,,,,,,,,,,,,,,,,,,,,,,,,,,,,,,,,,,,,,,,,,,,,,,,,,,,,,,,,,,,,,,,,,,,,,,,,,,,,,,,,,,,,,,,,,,,,,,,,,,,,,,,,,,,,,,,,,,,,,,,,,,,,,,,,,,,,,,,,,,,,,,,,,,,
0,37,37,80,1,,61337dde21439c131ffb37fe,62c539fd72c1aae8268437f1,2022-07-06_09h30.29.611,Colour_Asymmetry_Pilot,2022.1.3,Win32,59.1401029,62c50e9c1127f2cd403a315f,,,,,,,,,,,,,,,,,,,,,,,,,,,,,,,,,,,,,,,,,,,,,,,,,,,,,,,,,,,,,,,,,,,,,,,,,,,,,,,,,,,,,,,,,,,,,,,,,,,,,,,,,,,,,,,,,,,,,,,,,,,,,,,,,,,,,,,,,,,,,,,,,,,,,,,,,,,,,,,,,,,
0,38,38,49,1,,61337dde21439c131ffb37fe,62c539fd72c1aae8268437f1,2022-07-06_09h30.29.611,Colour_Asymmetry_Pilot,2022.1.3,Win32,59.1401029,62c50e9c1127f2cd403a315f,,,,,,,,,,,,,,,,,,,,,,,,,,,,,,,,,,,,,,,,,,,,,,,,,,,,,,,,,,,,,,,,,,,,,,,,,,,,,,,,,,,,,,,,,,,,,,,,,,,,,,,,,,,,,,,,,,,,,,,,,,,,,,,,,,,,,,,,,,,,,,,,,,,,,,,,,,,,,,,,,,,
0,39,39,58,1,,61337dde21439c131ffb37fe,62c539fd72c1aae8268437f1,2022-07-06_09h30.29.611,Colour_Asymmetry_Pilot,2022.1.3,Win32,59.1401029,62c50e9c1127f2cd403a315f,,,,,,,,,,,,,,,,,,,,,,,,,,,,,,,,,,,,,,,,,,,,,,,,,,,,,,,,,,,,,,,,,,,,,,,,,,,,,,,,,,,,,,,,,,,,,,,,,,,,,,,,,,,,,,,,,,,,,,,,,,,,,,,,,,,,,,,,,,,,,,,,,,,,,,,,,,,,,,,,,,,
0,40,40,20,1,,61337dde21439c131ffb37fe,62c539fd72c1aae8268437f1,2022-07-06_09h30.29.611,Colour_Asymmetry_Pilot,2022.1.3,Win32,59.1401029,62c50e9c1127f2cd403a315f,,,,,,,,,,,,,,,,,,,,,,,,,,,,,,,,,,,,,,,,,,,,,,,,,,,,,,,,,,,,,,,,,,,,,,,,,,,,,,,,,,,,,,,,,,,,,,,,,,,,,,,,,,,,,,,,,,,,,,,,,,,,,,,,,,,,,,,,,,,,,,,,,,,,,,,,,,,,,,,,,,,
0,41,41,63,1,,61337dde21439c131ffb37fe,62c539fd72c1aae8268437f1,2022-07-06_09h30.29.611,Colour_Asymmetry_Pilot,2022.1.3,Win32,59.1401029,62c50e9c1127f2cd403a315f,,,,,,,,,,,,,,,,,,,,,,,,,,,,,,,,,,,,,,,,,,,,,,,,,,,,,,,,,,,,,,,,,,,,,,,,,,,,,,,,,,,,,,,,,,,,,,,,,,,,,,,,,,,,,,,,,,,,,,,,,,,,,,,,,,,,,,,,,,,,,,,,,,,,,,,,,,,,,,,,,,,
0,42,42,60,1,,61337dde21439c131ffb37fe,62c539fd72c1aae8268437f1,2022-07-06_09h30.29.611,Colour_Asymmetry_Pilot,2022.1.3,Win32,59.1401029,62c50e9c1127f2cd403a315f,,,,,,,,,,,,,,,,,,,,,,,,,,,,,,,,,,,,,,,,,,,,,,,,,,,,,,,,,,,,,,,,,,,,,,,,,,,,,,,,,,,,,,,,,,,,,,,,,,,,,,,,,,,,,,,,,,,,,,,,,,,,,,,,,,,,,,,,,,,,,,,,,,,,,,,,,,,,,,,,,,,
0,43,43,22,1,,61337dde21439c131ffb37fe,62c539fd72c1aae8268437f1,2022-07-06_09h30.29.611,Colour_Asymmetry_Pilot,2022.1.3,Win32,59.1401029,62c50e9c1127f2cd403a315f,,,,,,,,,,,,,,,,,,,,,,,,,,,,,,,,,,,,,,,,,,,,,,,,,,,,,,,,,,,,,,,,,,,,,,,,,,,,,,,,,,,,,,,,,,,,,,,,,,,,,,,,,,,,,,,,,,,,,,,,,,,,,,,,,,,,,,,,,,,,,,,,,,,,,,,,,,,,,,,,,,,
0,44,44,3,1,,61337dde21439c131ffb37fe,62c539fd72c1aae8268437f1,2022-07-06_09h30.29.611,Colour_Asymmetry_Pilot,2022.1.3,Win32,59.1401029,62c50e9c1127f2cd403a315f,,,,,,,,,,,,,,,,,,,,,,,,,,,,,,,,,,,,,,,,,,,,,,,,,,,,,,,,,,,,,,,,,,,,,,,,,,,,,,,,,,,,,,,,,,,,,,,,,,,,,,,,,,,,,,,,,,,,,,,,,,,,,,,,,,,,,,,,,,,,,,,,,,,,,,,,,,,,,,,,,,,
0,45,45,42,1,,61337dde21439c131ffb37fe,62c539fd72c1aae8268437f1,2022-07-06_09h30.29.611,Colour_Asymmetry_Pilot,2022.1.3,Win32,59.1401029,62c50e9c1127f2cd403a315f,,,,,,,,,,,,,,,,,,,,,,,,,,,,,,,,,,,,,,,,,,,,,,,,,,,,,,,,,,,,,,,,,,,,,,,,,,,,,,,,,,,,,,,,,,,,,,,,,,,,,,,,,,,,,,,,,,,,,,,,,,,,,,,,,,,,,,,,,,,,,,,,,,,,,,,,,,,,,,,,,,,
0,46,46,85,1,,61337dde21439c131ffb37fe,62c539fd72c1aae8268437f1,2022-07-06_09h30.29.611,Colour_Asymmetry_Pilot,2022.1.3,Win32,59.1401029,62c50e9c1127f2cd403a315f,,,,,,,,,,,,,,,,,,,,,,,,,,,,,,,,,,,,,,,,,,,,,,,,,,,,,,,,,,,,,,,,,,,,,,,,,,,,,,,,,,,,,,,,,,,,,,,,,,,,,,,,,,,,,,,,,,,,,,,,,,,,,,,,,,,,,,,,,,,,,,,,,,,,,,,,,,,,,,,,,,,
0,47,47,28,1,,61337dde21439c131ffb37fe,62c539fd72c1aae8268437f1,2022-07-06_09h30.29.611,Colour_Asymmetry_Pilot,2022.1.3,Win32,59.1401029,62c50e9c1127f2cd403a315f,,,,,,,,,,,,,,,,,,,,,,,,,,,,,,,,,,,,,,,,,,,,,,,,,,,,,,,,,,,,,,,,,,,,,,,,,,,,,,,,,,,,,,,,,,,,,,,,,,,,,,,,,,,,,,,,,,,,,,,,,,,,,,,,,,,,,,,,,,,,,,,,,,,,,,,,,,,,,,,,,,,
0,48,48,43,1,,61337dde21439c131ffb37fe,62c539fd72c1aae8268437f1,2022-07-06_09h30.29.611,Colour_Asymmetry_Pilot,2022.1.3,Win32,59.1401029,62c50e9c1127f2cd403a315f,,,,,,,,,,,,,,,,,,,,,,,,,,,,,,,,,,,,,,,,,,,,,,,,,,,,,,,,,,,,,,,,,,,,,,,,,,,,,,,,,,,,,,,,,,,,,,,,,,,,,,,,,,,,,,,,,,,,,,,,,,,,,,,,,,,,,,,,,,,,,,,,,,,,,,,,,,,,,,,,,,,
0,49,49,34,1,,61337dde21439c131ffb37fe,62c539fd72c1aae8268437f1,2022-07-06_09h30.29.611,Colour_Asymmetry_Pilot,2022.1.3,Win32,59.1401029,62c50e9c1127f2cd403a315f,,,,,,,,,,,,,,,,,,,,,,,,,,,,,,,,,,,,,,,,,,,,,,,,,,,,,,,,,,,,,,,,,,,,,,,,,,,,,,,,,,,,,,,,,,,,,,,,,,,,,,,,,,,,,,,,,,,,,,,,,,,,,,,,,,,,,,,,,,,,,,,,,,,,,,,,,,,,,,,,,,,
0,50,50,66,1,,61337dde21439c131ffb37fe,62c539fd72c1aae8268437f1,2022-07-06_09h30.29.611,Colour_Asymmetry_Pilot,2022.1.3,Win32,59.1401029,62c50e9c1127f2cd403a315f,,,,,,,,,,,,,,,,,,,,,,,,,,,,,,,,,,,,,,,,,,,,,,,,,,,,,,,,,,,,,,,,,,,,,,,,,,,,,,,,,,,,,,,,,,,,,,,,,,,,,,,,,,,,,,,,,,,,,,,,,,,,,,,,,,,,,,,,,,,,,,,,,,,,,,,,,,,,,,,,,,,
0,51,51,88,1,,61337dde21439c131ffb37fe,62c539fd72c1aae8268437f1,2022-07-06_09h30.29.611,Colour_Asymmetry_Pilot,2022.1.3,Win32,59.1401029,62c50e9c1127f2cd403a315f,,,,,,,,,,,,,,,,,,,,,,,,,,,,,,,,,,,,,,,,,,,,,,,,,,,,,,,,,,,,,,,,,,,,,,,,,,,,,,,,,,,,,,,,,,,,,,,,,,,,,,,,,,,,,,,,,,,,,,,,,,,,,,,,,,,,,,,,,,,,,,,,,,,,,,,,,,,,,,,,,,,
0,52,52,59,1,,61337dde21439c131ffb37fe,62c539fd72c1aae8268437f1,2022-07-06_09h30.29.611,Colour_Asymmetry_Pilot,2022.1.3,Win32,59.1401029,62c50e9c1127f2cd403a315f,,,,,,,,,,,,,,,,,,,,,,,,,,,,,,,,,,,,,,,,,,,,,,,,,,,,,,,,,,,,,,,,,,,,,,,,,,,,,,,,,,,,,,,,,,,,,,,,,,,,,,,,,,,,,,,,,,,,,,,,,,,,,,,,,,,,,,,,,,,,,,,,,,,,,,,,,,,,,,,,,,,
0,53,53,41,1,,61337dde21439c131ffb37fe,62c539fd72c1aae8268437f1,2022-07-06_09h30.29.611,Colour_Asymmetry_Pilot,2022.1.3,Win32,59.1401029,62c50e9c1127f2cd403a315f,,,,,,,,,,,,,,,,,,,,,,,,,,,,,,,,,,,,,,,,,,,,,,,,,,,,,,,,,,,,,,,,,,,,,,,,,,,,,,,,,,,,,,,,,,,,,,,,,,,,,,,,,,,,,,,,,,,,,,,,,,,,,,,,,,,,,,,,,,,,,,,,,,,,,,,,,,,,,,,,,,,
0,54,54,6,1,,61337dde21439c131ffb37fe,62c539fd72c1aae8268437f1,2022-07-06_09h30.29.611,Colour_Asymmetry_Pilot,2022.1.3,Win32,59.1401029,62c50e9c1127f2cd403a315f,,,,,,,,,,,,,,,,,,,,,,,,,,,,,,,,,,,,,,,,,,,,,,,,,,,,,,,,,,,,,,,,,,,,,,,,,,,,,,,,,,,,,,,,,,,,,,,,,,,,,,,,,,,,,,,,,,,,,,,,,,,,,,,,,,,,,,,,,,,,,,,,,,,,,,,,,,,,,,,,,,,
0,55,55,35,1,,61337dde21439c131ffb37fe,62c539fd72c1aae8268437f1,2022-07-06_09h30.29.611,Colour_Asymmetry_Pilot,2022.1.3,Win32,59.1401029,62c50e9c1127f2cd403a315f,,,,,,,,,,,,,,,,,,,,,,,,,,,,,,,,,,,,,,,,,,,,,,,,,,,,,,,,,,,,,,,,,,,,,,,,,,,,,,,,,,,,,,,,,,,,,,,,,,,,,,,,,,,,,,,,,,,,,,,,,,,,,,,,,,,,,,,,,,,,,,,,,,,,,,,,,,,,,,,,,,,
0,56,56,2,1,,61337dde21439c131ffb37fe,62c539fd72c1aae8268437f1,2022-07-06_09h30.29.611,Colour_Asymmetry_Pilot,2022.1.3,Win32,59.1401029,62c50e9c1127f2cd403a315f,,,,,,,,,,,,,,,,,,,,,,,,,,,,,,,,,,,,,,,,,,,,,,,,,,,,,,,,,,,,,,,,,,,,,,,,,,,,,,,,,,,,,,,,,,,,,,,,,,,,,,,,,,,,,,,,,,,,,,,,,,,,,,,,,,,,,,,,,,,,,,,,,,,,,,,,,,,,,,,,,,,
0,57,57,17,1,,61337dde21439c131ffb37fe,62c539fd72c1aae8268437f1,2022-07-06_09h30.29.611,Colour_Asymmetry_Pilot,2022.1.3,Win32,59.1401029,62c50e9c1127f2cd403a315f,,,,,,,,,,,,,,,,,,,,,,,,,,,,,,,,,,,,,,,,,,,,,,,,,,,,,,,,,,,,,,,,,,,,,,,,,,,,,,,,,,,,,,,,,,,,,,,,,,,,,,,,,,,,,,,,,,,,,,,,,,,,,,,,,,,,,,,,,,,,,,,,,,,,,,,,,,,,,,,,,,,
0,58,58,9,1,,61337dde21439c131ffb37fe,62c539fd72c1aae8268437f1,2022-07-06_09h30.29.611,Colour_Asymmetry_Pilot,2022.1.3,Win32,59.1401029,62c50e9c1127f2cd403a315f,,,,,,,,,,,,,,,,,,,,,,,,,,,,,,,,,,,,,,,,,,,,,,,,,,,,,,,,,,,,,,,,,,,,,,,,,,,,,,,,,,,,,,,,,,,,,,,,,,,,,,,,,,,,,,,,,,,,,,,,,,,,,,,,,,,,,,,,,,,,,,,,,,,,,,,,,,,,,,,,,,,
0,59,59,72,1,,61337dde21439c131ffb37fe,62c539fd72c1aae8268437f1,2022-07-06_09h30.29.611,Colour_Asymmetry_Pilot,2022.1.3,Win32,59.1401029,62c50e9c1127f2cd403a315f,,,,,,,,,,,,,,,,,,,,,,,,,,,,,,,,,,,,,,,,,,,,,,,,,,,,,,,,,,,,,,,,,,,,,,,,,,,,,,,,,,,,,,,,,,,,,,,,,,,,,,,,,,,,,,,,,,,,,,,,,,,,,,,,,,,,,,,,,,,,,,,,,,,,,,,,,,,,,,,,,,,
0,60,60,78,1,,61337dde21439c131ffb37fe,62c539fd72c1aae8268437f1,2022-07-06_09h30.29.611,Colour_Asymmetry_Pilot,2022.1.3,Win32,59.1401029,62c50e9c1127f2cd403a315f,,,,,,,,,,,,,,,,,,,,,,,,,,,,,,,,,,,,,,,,,,,,,,,,,,,,,,,,,,,,,,,,,,,,,,,,,,,,,,,,,,,,,,,,,,,,,,,,,,,,,,,,,,,,,,,,,,,,,,,,,,,,,,,,,,,,,,,,,,,,,,,,,,,,,,,,,,,,,,,,,,,
0,61,61,48,1,,61337dde21439c131ffb37fe,62c539fd72c1aae8268437f1,2022-07-06_09h30.29.611,Colour_Asymmetry_Pilot,2022.1.3,Win32,59.1401029,62c50e9c1127f2cd403a315f,,,,,,,,,,,,,,,,,,,,,,,,,,,,,,,,,,,,,,,,,,,,,,,,,,,,,,,,,,,,,,,,,,,,,,,,,,,,,,,,,,,,,,,,,,,,,,,,,,,,,,,,,,,,,,,,,,,,,,,,,,,,,,,,,,,,,,,,,,,,,,,,,,,,,,,,,,,,,,,,,,,
0,62,62,86,1,,61337dde21439c131ffb37fe,62c539fd72c1aae8268437f1,2022-07-06_09h30.29.611,Colour_Asymmetry_Pilot,2022.1.3,Win32,59.1401029,62c50e9c1127f2cd403a315f,,,,,,,,,,,,,,,,,,,,,,,,,,,,,,,,,,,,,,,,,,,,,,,,,,,,,,,,,,,,,,,,,,,,,,,,,,,,,,,,,,,,,,,,,,,,,,,,,,,,,,,,,,,,,,,,,,,,,,,,,,,,,,,,,,,,,,,,,,,,,,,,,,,,,,,,,,,,,,,,,,,
0,63,63,30,1,,61337dde21439c131ffb37fe,62c539fd72c1aae8268437f1,2022-07-06_09h30.29.611,Colour_Asymmetry_Pilot,2022.1.3,Win32,59.1401029,62c50e9c1127f2cd403a315f,,,,,,,,,,,,,,,,,,,,,,,,,,,,,,,,,,,,,,,,,,,,,,,,,,,,,,,,,,,,,,,,,,,,,,,,,,,,,,,,,,,,,,,,,,,,,,,,,,,,,,,,,,,,,,,,,,,,,,,,,,,,,,,,,,,,,,,,,,,,,,,,,,,,,,,,,,,,,,,,,,,
0,64,64,87,1,,61337dde21439c131ffb37fe,62c539fd72c1aae8268437f1,2022-07-06_09h30.29.611,Colour_Asymmetry_Pilot,2022.1.3,Win32,59.1401029,62c50e9c1127f2cd403a315f,,,,,,,,,,,,,,,,,,,,,,,,,,,,,,,,,,,,,,,,,,,,,,,,,,,,,,,,,,,,,,,,,,,,,,,,,,,,,,,,,,,,,,,,,,,,,,,,,,,,,,,,,,,,,,,,,,,,,,,,,,,,,,,,,,,,,,,,,,,,,,,,,,,,,,,,,,,,,,,,,,,
0,65,65,25,1,,61337dde21439c131ffb37fe,62c539fd72c1aae8268437f1,2022-07-06_09h30.29.611,Colour_Asymmetry_Pilot,2022.1.3,Win32,59.1401029,62c50e9c1127f2cd403a315f,,,,,,,,,,,,,,,,,,,,,,,,,,,,,,,,,,,,,,,,,,,,,,,,,,,,,,,,,,,,,,,,,,,,,,,,,,,,,,,,,,,,,,,,,,,,,,,,,,,,,,,,,,,,,,,,,,,,,,,,,,,,,,,,,,,,,,,,,,,,,,,,,,,,,,,,,,,,,,,,,,,
0,66,66,92,1,,61337dde21439c131ffb37fe,62c539fd72c1aae8268437f1,2022-07-06_09h30.29.611,Colour_Asymmetry_Pilot,2022.1.3,Win32,59.1401029,62c50e9c1127f2cd403a315f,,,,,,,,,,,,,,,,,,,,,,,,,,,,,,,,,,,,,,,,,,,,,,,,,,,,,,,,,,,,,,,,,,,,,,,,,,,,,,,,,,,,,,,,,,,,,,,,,,,,,,,,,,,,,,,,,,,,,,,,,,,,,,,,,,,,,,,,,,,,,,,,,,,,,,,,,,,,,,,,,,,
0,67,67,54,1,,61337dde21439c131ffb37fe,62c539fd72c1aae8268437f1,2022-07-06_09h30.29.611,Colour_Asymmetry_Pilot,2022.1.3,Win32,59.1401029,62c50e9c1127f2cd403a315f,,,,,,,,,,,,,,,,,,,,,,,,,,,,,,,,,,,,,,,,,,,,,,,,,,,,,,,,,,,,,,,,,,,,,,,,,,,,,,,,,,,,,,,,,,,,,,,,,,,,,,,,,,,,,,,,,,,,,,,,,,,,,,,,,,,,,,,,,,,,,,,,,,,,,,,,,,,,,,,,,,,
0,68,68,19,1,,61337dde21439c131ffb37fe,62c539fd72c1aae8268437f1,2022-07-06_09h30.29.611,Colour_Asymmetry_Pilot,2022.1.3,Win32,59.1401029,62c50e9c1127f2cd403a315f,,,,,,,,,,,,,,,,,,,,,,,,,,,,,,,,,,,,,,,,,,,,,,,,,,,,,,,,,,,,,,,,,,,,,,,,,,,,,,,,,,,,,,,,,,,,,,,,,,,,,,,,,,,,,,,,,,,,,,,,,,,,,,,,,,,,,,,,,,,,,,,,,,,,,,,,,,,,,,,,,,,
0,69,69,70,1,,61337dde21439c131ffb37fe,62c539fd72c1aae8268437f1,2022-07-06_09h30.29.611,Colour_Asymmetry_Pilot,2022.1.3,Win32,59.1401029,62c50e9c1127f2cd403a315f,,,,,,,,,,,,,,,,,,,,,,,,,,,,,,,,,,,,,,,,,,,,,,,,,,,,,,,,,,,,,,,,,,,,,,,,,,,,,,,,,,,,,,,,,,,,,,,,,,,,,,,,,,,,,,,,,,,,,,,,,,,,,,,,,,,,,,,,,,,,,,,,,,,,,,,,,,,,,,,,,,,
0,70,70,40,1,,61337dde21439c131ffb37fe,62c539fd72c1aae8268437f1,2022-07-06_09h30.29.611,Colour_Asymmetry_Pilot,2022.1.3,Win32,59.1401029,62c50e9c1127f2cd403a315f,,,,,,,,,,,,,,,,,,,,,,,,,,,,,,,,,,,,,,,,,,,,,,,,,,,,,,,,,,,,,,,,,,,,,,,,,,,,,,,,,,,,,,,,,,,,,,,,,,,,,,,,,,,,,,,,,,,,,,,,,,,,,,,,,,,,,,,,,,,,,,,,,,,,,,,,,,,,,,,,,,,
0,71,71,5,1,,61337dde21439c131ffb37fe,62c539fd72c1aae8268437f1,2022-07-06_09h30.29.611,Colour_Asymmetry_Pilot,2022.1.3,Win32,59.1401029,62c50e9c1127f2cd403a315f,,,,,,,,,,,,,,,,,,,,,,,,,,,,,,,,,,,,,,,,,,,,,,,,,,,,,,,,,,,,,,,,,,,,,,,,,,,,,,,,,,,,,,,,,,,,,,,,,,,,,,,,,,,,,,,,,,,,,,,,,,,,,,,,,,,,,,,,,,,,,,,,,,,,,,,,,,,,,,,,,,,
0,72,72,38,1,,61337dde21439c131ffb37fe,62c539fd72c1aae8268437f1,2022-07-06_09h30.29.611,Colour_Asymmetry_Pilot,2022.1.3,Win32,59.1401029,62c50e9c1127f2cd403a315f,,,,,,,,,,,,,,,,,,,,,,,,,,,,,,,,,,,,,,,,,,,,,,,,,,,,,,,,,,,,,,,,,,,,,,,,,,,,,,,,,,,,,,,,,,,,,,,,,,,,,,,,,,,,,,,,,,,,,,,,,,,,,,,,,,,,,,,,,,,,,,,,,,,,,,,,,,,,,,,,,,,
0,73,73,18,1,,61337dde21439c131ffb37fe,62c539fd72c1aae8268437f1,2022-07-06_09h30.29.611,Colour_Asymmetry_Pilot,2022.1.3,Win32,59.1401029,62c50e9c1127f2cd403a315f,,,,,,,,,,,,,,,,,,,,,,,,,,,,,,,,,,,,,,,,,,,,,,,,,,,,,,,,,,,,,,,,,,,,,,,,,,,,,,,,,,,,,,,,,,,,,,,,,,,,,,,,,,,,,,,,,,,,,,,,,,,,,,,,,,,,,,,,,,,,,,,,,,,,,,,,,,,,,,,,,,,
0,74,74,13,1,,61337dde21439c131ffb37fe,62c539fd72c1aae8268437f1,2022-07-06_09h30.29.611,Colour_Asymmetry_Pilot,2022.1.3,Win32,59.1401029,62c50e9c1127f2cd403a315f,,,,,,,,,,,,,,,,,,,,,,,,,,,,,,,,,,,,,,,,,,,,,,,,,,,,,,,,,,,,,,,,,,,,,,,,,,,,,,,,,,,,,,,,,,,,,,,,,,,,,,,,,,,,,,,,,,,,,,,,,,,,,,,,,,,,,,,,,,,,,,,,,,,,,,,,,,,,,,,,,,,
0,75,75,36,1,,61337dde21439c131ffb37fe,62c539fd72c1aae8268437f1,2022-07-06_09h30.29.611,Colour_Asymmetry_Pilot,2022.1.3,Win32,59.1401029,62c50e9c1127f2cd403a315f,,,,,,,,,,,,,,,,,,,,,,,,,,,,,,,,,,,,,,,,,,,,,,,,,,,,,,,,,,,,,,,,,,,,,,,,,,,,,,,,,,,,,,,,,,,,,,,,,,,,,,,,,,,,,,,,,,,,,,,,,,,,,,,,,,,,,,,,,,,,,,,,,,,,,,,,,,,,,,,,,,,
0,76,76,52,1,,61337dde21439c131ffb37fe,62c539fd72c1aae8268437f1,2022-07-06_09h30.29.611,Colour_Asymmetry_Pilot,2022.1.3,Win32,59.1401029,62c50e9c1127f2cd403a315f,,,,,,,,,,,,,,,,,,,,,,,,,,,,,,,,,,,,,,,,,,,,,,,,,,,,,,,,,,,,,,,,,,,,,,,,,,,,,,,,,,,,,,,,,,,,,,,,,,,,,,,,,,,,,,,,,,,,,,,,,,,,,,,,,,,,,,,,,,,,,,,,,,,,,,,,,,,,,,,,,,,
0,77,77,50,1,,61337dde21439c131ffb37fe,62c539fd72c1aae8268437f1,2022-07-06_09h30.29.611,Colour_Asymmetry_Pilot,2022.1.3,Win32,59.1401029,62c50e9c1127f2cd403a315f,,,,,,,,,,,,,,,,,,,,,,,,,,,,,,,,,,,,,,,,,,,,,,,,,,,,,,,,,,,,,,,,,,,,,,,,,,,,,,,,,,,,,,,,,,,,,,,,,,,,,,,,,,,,,,,,,,,,,,,,,,,,,,,,,,,,,,,,,,,,,,,,,,,,,,,,,,,,,,,,,,,
0,78,78,89,1,,61337dde21439c131ffb37fe,62c539fd72c1aae8268437f1,2022-07-06_09h30.29.611,Colour_Asymmetry_Pilot,2022.1.3,Win32,59.1401029,62c50e9c1127f2cd403a315f,,,,,,,,,,,,,,,,,,,,,,,,,,,,,,,,,,,,,,,,,,,,,,,,,,,,,,,,,,,,,,,,,,,,,,,,,,,,,,,,,,,,,,,,,,,,,,,,,,,,,,,,,,,,,,,,,,,,,,,,,,,,,,,,,,,,,,,,,,,,,,,,,,,,,,,,,,,,,,,,,,,
0,79,79,12,1,,61337dde21439c131ffb37fe,62c539fd72c1aae8268437f1,2022-07-06_09h30.29.611,Colour_Asymmetry_Pilot,2022.1.3,Win32,59.1401029,62c50e9c1127f2cd403a315f,,,,,,,,,,,,,,,,,,,,,,,,,,,,,,,,,,,,,,,,,,,,,,,,,,,,,,,,,,,,,,,,,,,,,,,,,,,,,,,,,,,,,,,,,,,,,,,,,,,,,,,,,,,,,,,,,,,,,,,,,,,,,,,,,,,,,,,,,,,,,,,,,,,,,,,,,,,,,,,,,,,
0,80,80,53,1,,61337dde21439c131ffb37fe,62c539fd72c1aae8268437f1,2022-07-06_09h30.29.611,Colour_Asymmetry_Pilot,2022.1.3,Win32,59.1401029,62c50e9c1127f2cd403a315f,,,,,,,,,,,,,,,,,,,,,,,,,,,,,,,,,,,,,,,,,,,,,,,,,,,,,,,,,,,,,,,,,,,,,,,,,,,,,,,,,,,,,,,,,,,,,,,,,,,,,,,,,,,,,,,,,,,,,,,,,,,,,,,,,,,,,,,,,,,,,,,,,,,,,,,,,,,,,,,,,,,
0,81,81,74,1,,61337dde21439c131ffb37fe,62c539fd72c1aae8268437f1,2022-07-06_09h30.29.611,Colour_Asymmetry_Pilot,2022.1.3,Win32,59.1401029,62c50e9c1127f2cd403a315f,,,,,,,,,,,,,,,,,,,,,,,,,,,,,,,,,,,,,,,,,,,,,,,,,,,,,,,,,,,,,,,,,,,,,,,,,,,,,,,,,,,,,,,,,,,,,,,,,,,,,,,,,,,,,,,,,,,,,,,,,,,,,,,,,,,,,,,,,,,,,,,,,,,,,,,,,,,,,,,,,,,
0,82,82,56,1,,61337dde21439c131ffb37fe,62c539fd72c1aae8268437f1,2022-07-06_09h30.29.611,Colour_Asymmetry_Pilot,2022.1.3,Win32,59.1401029,62c50e9c1127f2cd403a315f,,,,,,,,,,,,,,,,,,,,,,,,,,,,,,,,,,,,,,,,,,,,,,,,,,,,,,,,,,,,,,,,,,,,,,,,,,,,,,,,,,,,,,,,,,,,,,,,,,,,,,,,,,,,,,,,,,,,,,,,,,,,,,,,,,,,,,,,,,,,,,,,,,,,,,,,,,,,,,,,,,,
0,83,83,62,1,,61337dde21439c131ffb37fe,62c539fd72c1aae8268437f1,2022-07-06_09h30.29.611,Colour_Asymmetry_Pilot,2022.1.3,Win32,59.1401029,62c50e9c1127f2cd403a315f,,,,,,,,,,,,,,,,,,,,,,,,,,,,,,,,,,,,,,,,,,,,,,,,,,,,,,,,,,,,,,,,,,,,,,,,,,,,,,,,,,,,,,,,,,,,,,,,,,,,,,,,,,,,,,,,,,,,,,,,,,,,,,,,,,,,,,,,,,,,,,,,,,,,,,,,,,,,,,,,,,,
0,84,84,82,1,,61337dde21439c131ffb37fe,62c539fd72c1aae8268437f1,2022-07-06_09h30.29.611,Colour_Asymmetry_Pilot,2022.1.3,Win32,59.1401029,62c50e9c1127f2cd403a315f,,,,,,,,,,,,,,,,,,,,,,,,,,,,,,,,,,,,,,,,,,,,,,,,,,,,,,,,,,,,,,,,,,,,,,,,,,,,,,,,,,,,,,,,,,,,,,,,,,,,,,,,,,,,,,,,,,,,,,,,,,,,,,,,,,,,,,,,,,,,,,,,,,,,,,,,,,,,,,,,,,,
0,85,85,69,1,,61337dde21439c131ffb37fe,62c539fd72c1aae8268437f1,2022-07-06_09h30.29.611,Colour_Asymmetry_Pilot,2022.1.3,Win32,59.1401029,62c50e9c1127f2cd403a315f,,,,,,,,,,,,,,,,,,,,,,,,,,,,,,,,,,,,,,,,,,,,,,,,,,,,,,,,,,,,,,,,,,,,,,,,,,,,,,,,,,,,,,,,,,,,,,,,,,,,,,,,,,,,,,,,,,,,,,,,,,,,,,,,,,,,,,,,,,,,,,,,,,,,,,,,,,,,,,,,,,,
0,86,86,0,1,,61337dde21439c131ffb37fe,62c539fd72c1aae8268437f1,2022-07-06_09h30.29.611,Colour_Asymmetry_Pilot,2022.1.3,Win32,59.1401029,62c50e9c1127f2cd403a315f,,,,,,,,,,,,,,,,,,,,,,,,,,,,,,,,,,,,,,,,,,,,,,,,,,,,,,,,,,,,,,,,,,,,,,,,,,,,,,,,,,,,,,,,,,,,,,,,,,,,,,,,,,,,,,,,,,,,,,,,,,,,,,,,,,,,,,,,,,,,,,,,,,,,,,,,,,,,,,,,,,,
0,87,87,10,1,,61337dde21439c131ffb37fe,62c539fd72c1aae8268437f1,2022-07-06_09h30.29.611,Colour_Asymmetry_Pilot,2022.1.3,Win32,59.1401029,62c50e9c1127f2cd403a315f,,,,,,,,,,,,,,,,,,,,,,,,,,,,,,,,,,,,,,,,,,,,,,,,,,,,,,,,,,,,,,,,,,,,,,,,,,,,,,,,,,,,,,,,,,,,,,,,,,,,,,,,,,,,,,,,,,,,,,,,,,,,,,,,,,,,,,,,,,,,,,,,,,,,,,,,,,,,,,,,,,,
0,88,88,39,1,,61337dde21439c131ffb37fe,62c539fd72c1aae8268437f1,2022-07-06_09h30.29.611,Colour_Asymmetry_Pilot,2022.1.3,Win32,59.1401029,62c50e9c1127f2cd403a315f,,,,,,,,,,,,,,,,,,,,,,,,,,,,,,,,,,,,,,,,,,,,,,,,,,,,,,,,,,,,,,,,,,,,,,,,,,,,,,,,,,,,,,,,,,,,,,,,,,,,,,,,,,,,,,,,,,,,,,,,,,,,,,,,,,,,,,,,,,,,,,,,,,,,,,,,,,,,,,,,,,,
0,89,89,21,1,,61337dde21439c131ffb37fe,62c539fd72c1aae8268437f1,2022-07-06_09h30.29.611,Colour_Asymmetry_Pilot,2022.1.3,Win32,59.1401029,62c50e9c1127f2cd403a315f,,,,,,,,,,,,,,,,,,,,,,,,,,,,,,,,,,,,,,,,,,,,,,,,,,,,,,,,,,,,,,,,,,,,,,,,,,,,,,,,,,,,,,,,,,,,,,,,,,,,,,,,,,,,,,,,,,,,,,,,,,,,,,,,,,,,,,,,,,,,,,,,,,,,,,,,,,,,,,,,,,,
0,90,90,77,1,,61337dde21439c131ffb37fe,62c539fd72c1aae8268437f1,2022-07-06_09h30.29.611,Colour_Asymmetry_Pilot,2022.1.3,Win32,59.1401029,62c50e9c1127f2cd403a315f,,,,,,,,,,,,,,,,,,,,,,,,,,,,,,,,,,,,,,,,,,,,,,,,,,,,,,,,,,,,,,,,,,,,,,,,,,,,,,,,,,,,,,,,,,,,,,,,,,,,,,,,,,,,,,,,,,,,,,,,,,,,,,,,,,,,,,,,,,,,,,,,,,,,,,,,,,,,,,,,,,,
0,91,91,44,1,,61337dde21439c131ffb37fe,62c539fd72c1aae8268437f1,2022-07-06_09h30.29.611,Colour_Asymmetry_Pilot,2022.1.3,Win32,59.1401029,62c50e9c1127f2cd403a315f,,,,,,,,,,,,,,,,,,,,,,,,,,,,,,,,,,,,,,,,,,,,,,,,,,,,,,,,,,,,,,,,,,,,,,,,,,,,,,,,,,,,,,,,,,,,,,,,,,,,,,,,,,,,,,,,,,,,,,,,,,,,,,,,,,,,,,,,,,,,,,,,,,,,,,,,,,,,,,,,,,,
0,92,92,91,1,,61337dde21439c131ffb37fe,62c539fd72c1aae8268437f1,2022-07-06_09h30.29.611,Colour_Asymmetry_Pilot,2022.1.3,Win32,59.1401029,62c50e9c1127f2cd403a315f,,,,,,,,,,,,,,,,,,,,,,,,,,,,,,,,,,,,,,,,,,,,,,,,,,,,,,,,,,,,,,,,,,,,,,,,,,,,,,,,,,,,,,,,,,,,,,,,,,,,,,,,,,,,,,,,,,,,,,,,,,,,,,,,,,,,,,,,,,,,,,,,,,,,,,,,,,,,,,,,,,,
,,,,,,61337dde21439c131ffb37fe,62c539fd72c1aae8268437f1,2022-07-06_09h30.29.611,Colour_Asymmetry_Pilot,2022.1.3,Win32,59.1401029,62c50e9c1127f2cd403a315f,0,0,0,63,1,fourthree,,,,,,,,,,,,,,,,,,,,,,,,,,,,,,,,,,,,,,,,,,,,,,,,,,,,,,,,,,,,,,,,,,,,,,,,,,,,,,,,,,,,,,,,,,,,,,,,,,,,,,,,,,,,,,,,,,,,,,,,,,,,,,,,,,,,,,,,,,,,,,,,,,,,,,,,,,,,,
,,,,,,61337dde21439c131ffb37fe,62c539fd72c1aae8268437f1,2022-07-06_09h30.29.611,Colour_Asymmetry_Pilot,2022.1.3,Win32,59.1401029,62c50e9c1127f2cd403a315f,0,1,1,152,1,onetwo,,,,,,,,,,,,,,,,,,,,,,,,,,,,,,,,,,,,,,,,,,,,,,,,,,,,,,,,,,,,,,,,,,,,,,,,,,,,,,,,,,,,,,,,,,,,,,,,,,,,,,,,,,,,,,,,,,,,,,,,,,,,,,,,,,,,,,,,,,,,,,,,,,,,,,,,,,,,,
,,,,,,61337dde21439c131ffb37fe,62c539fd72c1aae8268437f1,2022-07-06_09h30.29.611,Colour_Asymmetry_Pilot,2022.1.3,Win32,59.1401029,62c50e9c1127f2cd403a315f,0,2,2,32,1,onetwo,,,,,,,,,,,,,,,,,,,,,,,,,,,,,,,,,,,,,,,,,,,,,,,,,,,,,,,,,,,,,,,,,,,,,,,,,,,,,,,,,,,,,,,,,,,,,,,,,,,,,,,,,,,,,,,,,,,,,,,,,,,,,,,,,,,,,,,,,,,,,,,,,,,,,,,,,,,,,
,,,,,,61337dde21439c131ffb37fe,62c539fd72c1aae8268437f1,2022-07-06_09h30.29.611,Colour_Asymmetry_Pilot,2022.1.3,Win32,59.1401029,62c50e9c1127f2cd403a315f,0,3,3,67,1,twofour,,,,,,,,,,,,,,,,,,,,,,,,,,,,,,,,,,,,,,,,,,,,,,,,,,,,,,,,,,,,,,,,,,,,,,,,,,,,,,,,,,,,,,,,,,,,,,,,,,,,,,,,,,,,,,,,,,,,,,,,,,,,,,,,,,,,,,,,,,,,,,,,,,,,,,,,,,,,,
,,,,,,61337dde21439c131ffb37fe,62c539fd72c1aae8268437f1,2022-07-06_09h30.29.611,Colour_Asymmetry_Pilot,2022.1.3,Win32,59.1401029,62c50e9c1127f2cd403a315f,0,4,4,52,1,threeone,,,,,,,,,,,,,,,,,,,,,,,,,,,,,,,,,,,,,,,,,,,,,,,,,,,,,,,,,,,,,,,,,,,,,,,,,,,,,,,,,,,,,,,,,,,,,,,,,,,,,,,,,,,,,,,,,,,,,,,,,,,,,,,,,,,,,,,,,,,,,,,,,,,,,,,,,,,,,
,,,,,,61337dde21439c131ffb37fe,62c539fd72c1aae8268437f1,2022-07-06_09h30.29.611,Colour_Asymmetry_Pilot,2022.1.3,Win32,59.1401029,62c50e9c1127f2cd403a315f,0,5,5,19,1,twofour,,,,,,,,,,,,,,,,,,,,,,,,,,,,,,,,,,,,,,,,,,,,,,,,,,,,,,,,,,,,,,,,,,,,,,,,,,,,,,,,,,,,,,,,,,,,,,,,,,,,,,,,,,,,,,,,,,,,,,,,,,,,,,,,,,,,,,,,,,,,,,,,,,,,,,,,,,,,,
,,,,,,61337dde21439c131ffb37fe,62c539fd72c1aae8268437f1,2022-07-06_09h30.29.611,Colour_Asymmetry_Pilot,2022.1.3,Win32,59.1401029,62c50e9c1127f2cd403a315f,0,6,6,159,1,fourthree,,,,,,,,,,,,,,,,,,,,,,,,,,,,,,,,,,,,,,,,,,,,,,,,,,,,,,,,,,,,,,,,,,,,,,,,,,,,,,,,,,,,,,,,,,,,,,,,,,,,,,,,,,,,,,,,,,,,,,,,,,,,,,,,,,,,,,,,,,,,,,,,,,,,,,,,,,,,,
,,,,,,61337dde21439c131ffb37fe,62c539fd72c1aae8268437f1,2022-07-06_09h30.29.611,Colour_Asymmetry_Pilot,2022.1.3,Win32,59.1401029,62c50e9c1127f2cd403a315f,0,7,7,9,1,onethree,,,,,,,,,,,,,,,,,,,,,,,,,,,,,,,,,,,,,,,,,,,,,,,,,,,,,,,,,,,,,,,,,,,,,,,,,,,,,,,,,,,,,,,,,,,,,,,,,,,,,,,,,,,,,,,,,,,,,,,,,,,,,,,,,,,,,,,,,,,,,,,,,,,,,,,,,,,,,
,,,,,,61337dde21439c131ffb37fe,62c539fd72c1aae8268437f1,2022-07-06_09h30.29.611,Colour_Asymmetry_Pilot,2022.1.3,Win32,59.1401029,62c50e9c1127f2cd403a315f,0,8,8,135,1,fourthree,,,,,,,,,,,,,,,,,,,,,,,,,,,,,,,,,,,,,,,,,,,,,,,,,,,,,,,,,,,,,,,,,,,,,,,,,,,,,,,,,,,,,,,,,,,,,,,,,,,,,,,,,,,,,,,,,,,,,,,,,,,,,,,,,,,,,,,,,,,,,,,,,,,,,,,,,,,,,
,,,,,,61337dde21439c131ffb37fe,62c539fd72c1aae8268437f1,2022-07-06_09h30.29.611,Colour_Asymmetry_Pilot,2022.1.3,Win32,59.1401029,62c50e9c1127f2cd403a315f,0,9,9,77,1,threefour,,,,,,,,,,,,,,,,,,,,,,,,,,,,,,,,,,,,,,,,,,,,,,,,,,,,,,,,,,,,,,,,,,,,,,,,,,,,,,,,,,,,,,,,,,,,,,,,,,,,,,,,,,,,,,,,,,,,,,,,,,,,,,,,,,,,,,,,,,,,,,,,,,,,,,,,,,,,,
,,,,,,61337dde21439c131ffb37fe,62c539fd72c1aae8268437f1,2022-07-06_09h30.29.611,Colour_Asymmetry_Pilot,2022.1.3,Win32,59.1401029,62c50e9c1127f2cd403a315f,0,10,10,78,1,fourtwo,,,,,,,,,,,,,,,,,,,,,,,,,,,,,,,,,,,,,,,,,,,,,,,,,,,,,,,,,,,,,,,,,,,,,,,,,,,,,,,,,,,,,,,,,,,,,,,,,,,,,,,,,,,,,,,,,,,,,,,,,,,,,,,,,,,,,,,,,,,,,,,,,,,,,,,,,,,,,
,,,,,,61337dde21439c131ffb37fe,62c539fd72c1aae8268437f1,2022-07-06_09h30.29.611,Colour_Asymmetry_Pilot,2022.1.3,Win32,59.1401029,62c50e9c1127f2cd403a315f,0,11,11,56,1,onetwo,,,,,,,,,,,,,,,,,,,,,,,,,,,,,,,,,,,,,,,,,,,,,,,,,,,,,,,,,,,,,,,,,,,,,,,,,,,,,,,,,,,,,,,,,,,,,,,,,,,,,,,,,,,,,,,,,,,,,,,,,,,,,,,,,,,,,,,,,,,,,,,,,,,,,,,,,,,,,
,,,,,,61337dde21439c131ffb37fe,62c539fd72c1aae8268437f1,2022-07-06_09h30.29.611,Colour_Asymmetry_Pilot,2022.1.3,Win32,59.1401029,62c50e9c1127f2cd403a315f,0,12,12,128,1,onetwo,,,,,,,,,,,,,,,,,,,,,,,,,,,,,,,,,,,,,,,,,,,,,,,,,,,,,,,,,,,,,,,,,,,,,,,,,,,,,,,,,,,,,,,,,,,,,,,,,,,,,,,,,,,,,,,,,,,,,,,,,,,,,,,,,,,,,,,,,,,,,,,,,,,,,,,,,,,,,
,,,,,,61337dde21439c131ffb37fe,62c539fd72c1aae8268437f1,2022-07-06_09h30.29.611,Colour_Asymmetry_Pilot,2022.1.3,Win32,59.1401029,62c50e9c1127f2cd403a315f,0,13,13,124,1,threeone,,,,,,,,,,,,,,,,,,,,,,,,,,,,,,,,,,,,,,,,,,,,,,,,,,,,,,,,,,,,,,,,,,,,,,,,,,,,,,,,,,,,,,,,,,,,,,,,,,,,,,,,,,,,,,,,,,,,,,,,,,,,,,,,,,,,,,,,,,,,,,,,,,,,,,,,,,,,,
,,,,,,61337dde21439c131ffb37fe,62c539fd72c1aae8268437f1,2022-07-06_09h30.29.611,Colour_Asymmetry_Pilot,2022.1.3,Win32,59.1401029,62c50e9c1127f2cd403a315f,0,14,14,82,1,twoone,,,,,,,,,,,,,,,,,,,,,,,,,,,,,,,,,,,,,,,,,,,,,,,,,,,,,,,,,,,,,,,,,,,,,,,,,,,,,,,,,,,,,,,,,,,,,,,,,,,,,,,,,,,,,,,,,,,,,,,,,,,,,,,,,,,,,,,,,,,,,,,,,,,,,,,,,,,,,
,,,,,,61337dde21439c131ffb37fe,62c539fd72c1aae8268437f1,2022-07-06_09h30.29.611,Colour_Asymmetry_Pilot,2022.1.3,Win32,59.1401029,62c50e9c1127f2cd403a315f,0,15,15,60,1,threeone,,,,,,,,,,,,,,,,,,,,,,,,,,,,,,,,,,,,,,,,,,,,,,,,,,,,,,,,,,,,,,,,,,,,,,,,,,,,,,,,,,,,,,,,,,,,,,,,,,,,,,,,,,,,,,,,,,,,,,,,,,,,,,,,,,,,,,,,,,,,,,,,,,,,,,,,,,,,,
,,,,,,61337dde21439c131ffb37fe,62c539fd72c1aae8268437f1,2022-07-06_09h30.29.611,Colour_Asymmetry_Pilot,2022.1.3,Win32,59.1401029,62c50e9c1127f2cd403a315f,0,16,16,138,1,twoone,,,,,,,,,,,,,,,,,,,,,,,,,,,,,,,,,,,,,,,,,,,,,,,,,,,,,,,,,,,,,,,,,,,,,,,,,,,,,,,,,,,,,,,,,,,,,,,,,,,,,,,,,,,,,,,,,,,,,,,,,,,,,,,,,,,,,,,,,,,,,,,,,,,,,,,,,,,,,
,,,,,,61337dde21439c131ffb37fe,62c539fd72c1aae8268437f1,2022-07-06_09h30.29.611,Colour_Asymmetry_Pilot,2022.1.3,Win32,59.1401029,62c50e9c1127f2cd403a315f,0,17,17,74,1,twoone,,,,,,,,,,,,,,,,,,,,,,,,,,,,,,,,,,,,,,,,,,,,,,,,,,,,,,,,,,,,,,,,,,,,,,,,,,,,,,,,,,,,,,,,,,,,,,,,,,,,,,,,,,,,,,,,,,,,,,,,,,,,,,,,,,,,,,,,,,,,,,,,,,,,,,,,,,,,,
,,,,,,61337dde21439c131ffb37fe,62c539fd72c1aae8268437f1,2022-07-06_09h30.29.611,Colour_Asymmetry_Pilot,2022.1.3,Win32,59.1401029,62c50e9c1127f2cd403a315f,0,18,18,108,1,threeone,,,,,,,,,,,,,,,,,,,,,,,,,,,,,,,,,,,,,,,,,,,,,,,,,,,,,,,,,,,,,,,,,,,,,,,,,,,,,,,,,,,,,,,,,,,,,,,,,,,,,,,,,,,,,,,,,,,,,,,,,,,,,,,,,,,,,,,,,,,,,,,,,,,,,,,,,,,,,
,,,,,,61337dde21439c131ffb37fe,62c539fd72c1aae8268437f1,2022-07-06_09h30.29.611,Colour_Asymmetry_Pilot,2022.1.3,Win32,59.1401029,62c50e9c1127f2cd403a315f,0,19,19,3,1,twofour,,,,,,,,,,,,,,,,,,,,,,,,,,,,,,,,,,,,,,,,,,,,,,,,,,,,,,,,,,,,,,,,,,,,,,,,,,,,,,,,,,,,,,,,,,,,,,,,,,,,,,,,,,,,,,,,,,,,,,,,,,,,,,,,,,,,,,,,,,,,,,,,,,,,,,,,,,,,,
,,,,,,61337dde21439c131ffb37fe,62c539fd72c1aae8268437f1,2022-07-06_09h30.29.611,Colour_Asymmetry_Pilot,2022.1.3,Win32,59.1401029,62c50e9c1127f2cd403a315f,0,20,20,113,1,onethree,,,,,,,,,,,,,,,,,,,,,,,,,,,,,,,,,,,,,,,,,,,,,,,,,,,,,,,,,,,,,,,,,,,,,,,,,,,,,,,,,,,,,,,,,,,,,,,,,,,,,,,,,,,,,,,,,,,,,,,,,,,,,,,,,,,,,,,,,,,,,,,,,,,,,,,,,,,,,
,,,,,,61337dde21439c131ffb37fe,62c539fd72c1aae8268437f1,2022-07-06_09h30.29.611,Colour_Asymmetry_Pilot,2022.1.3,Win32,59.1401029,62c50e9c1127f2cd403a315f,0,21,21,155,1,twofour,,,,,,,,,,,,,,,,,,,,,,,,,,,,,,,,,,,,,,,,,,,,,,,,,,,,,,,,,,,,,,,,,,,,,,,,,,,,,,,,,,,,,,,,,,,,,,,,,,,,,,,,,,,,,,,,,,,,,,,,,,,,,,,,,,,,,,,,,,,,,,,,,,,,,,,,,,,,,
,,,,,,61337dde21439c131ffb37fe,62c539fd72c1aae8268437f1,2022-07-06_09h30.29.611,Colour_Asymmetry_Pilot,2022.1.3,Win32,59.1401029,62c50e9c1127f2cd403a315f,0,22,22,38,1,fourtwo,,,,,,,,,,,,,,,,,,,,,,,,,,,,,,,,,,,,,,,,,,,,,,,,,,,,,,,,,,,,,,,,,,,,,,,,,,,,,,,,,,,,,,,,,,,,,,,,,,,,,,,,,,,,,,,,,,,,,,,,,,,,,,,,,,,,,,,,,,,,,,,,,,,,,,,,,,,,,
,,,,,,61337dde21439c131ffb37fe,62c539fd72c1aae8268437f1,2022-07-06_09h30.29.611,Colour_Asymmetry_Pilot,2022.1.3,Win32,59.1401029,62c50e9c1127f2cd403a315f,0,23,23,58,1,twoone,,,,,,,,,,,,,,,,,,,,,,,,,,,,,,,,,,,,,,,,,,,,,,,,,,,,,,,,,,,,,,,,,,,,,,,,,,,,,,,,,,,,,,,,,,,,,,,,,,,,,,,,,,,,,,,,,,,,,,,,,,,,,,,,,,,,,,,,,,,,,,,,,,,,,,,,,,,,,
,,,,,,61337dde21439c131ffb37fe,62c539fd72c1aae8268437f1,2022-07-06_09h30.29.611,Colour_Asymmetry_Pilot,2022.1.3,Win32,59.1401029,62c50e9c1127f2cd403a315f,0,24,24,12,1,threeone,,,,,,,,,,,,,,,,,,,,,,,,,,,,,,,,,,,,,,,,,,,,,,,,,,,,,,,,,,,,,,,,,,,,,,,,,,,,,,,,,,,,,,,,,,,,,,,,,,,,,,,,,,,,,,,,,,,,,,,,,,,,,,,,,,,,,,,,,,,,,,,,,,,,,,,,,,,,,
,,,,,,61337dde21439c131ffb37fe,62c539fd72c1aae8268437f1,2022-07-06_09h30.29.611,Colour_Asymmetry_Pilot,2022.1.3,Win32,59.1401029,62c50e9c1127f2cd403a315f,0,25,25,101,1,threefour,,,,,,,,,,,,,,,,,,,,,,,,,,,,,,,,,,,,,,,,,,,,,,,,,,,,,,,,,,,,,,,,,,,,,,,,,,,,,,,,,,,,,,,,,,,,,,,,,,,,,,,,,,,,,,,,,,,,,,,,,,,,,,,,,,,,,,,,,,,,,,,,,,,,,,,,,,,,,
,,,,,,61337dde21439c131ffb37fe,62c539fd72c1aae8268437f1,2022-07-06_09h30.29.611,Colour_Asymmetry_Pilot,2022.1.3,Win32,59.1401029,62c50e9c1127f2cd403a315f,0,26,26,112,1,onetwo,,,,,,,,,,,,,,,,,,,,,,,,,,,,,,,,,,,,,,,,,,,,,,,,,,,,,,,,,,,,,,,,,,,,,,,,,,,,,,,,,,,,,,,,,,,,,,,,,,,,,,,,,,,,,,,,,,,,,,,,,,,,,,,,,,,,,,,,,,,,,,,,,,,,,,,,,,,,,
,,,,,,61337dde21439c131ffb37fe,62c539fd72c1aae8268437f1,2022-07-06_09h30.29.611,Colour_Asymmetry_Pilot,2022.1.3,Win32,59.1401029,62c50e9c1127f2cd403a315f,0,27,27,48,1,onetwo,,,,,,,,,,,,,,,,,,,,,,,,,,,,,,,,,,,,,,,,,,,,,,,,,,,,,,,,,,,,,,,,,,,,,,,,,,,,,,,,,,,,,,,,,,,,,,,,,,,,,,,,,,,,,,,,,,,,,,,,,,,,,,,,,,,,,,,,,,,,,,,,,,,,,,,,,,,,,
,,,,,,61337dde21439c131ffb37fe,62c539fd72c1aae8268437f1,2022-07-06_09h30.29.611,Colour_Asymmetry_Pilot,2022.1.3,Win32,59.1401029,62c50e9c1127f2cd403a315f,0,28,28,97,1,onethree,,,,,,,,,,,,,,,,,,,,,,,,,,,,,,,,,,,,,,,,,,,,,,,,,,,,,,,,,,,,,,,,,,,,,,,,,,,,,,,,,,,,,,,,,,,,,,,,,,,,,,,,,,,,,,,,,,,,,,,,,,,,,,,,,,,,,,,,,,,,,,,,,,,,,,,,,,,,,
,,,,,,61337dde21439c131ffb37fe,62c539fd72c1aae8268437f1,2022-07-06_09h30.29.611,Colour_Asymmetry_Pilot,2022.1.3,Win32,59.1401029,62c50e9c1127f2cd403a315f,0,29,29,17,1,onethree,,,,,,,,,,,,,,,,,,,,,,,,,,,,,,,,,,,,,,,,,,,,,,,,,,,,,,,,,,,,,,,,,,,,,,,,,,,,,,,,,,,,,,,,,,,,,,,,,,,,,,,,,,,,,,,,,,,,,,,,,,,,,,,,,,,,,,,,,,,,,,,,,,,,,,,,,,,,,
,,,,,,61337dde21439c131ffb37fe,62c539fd72c1aae8268437f1,2022-07-06_09h30.29.611,Colour_Asymmetry_Pilot,2022.1.3,Win32,59.1401029,62c50e9c1127f2cd403a315f,0,30,30,39,1,fourthree,,,,,,,,,,,,,,,,,,,,,,,,,,,,,,,,,,,,,,,,,,,,,,,,,,,,,,,,,,,,,,,,,,,,,,,,,,,,,,,,,,,,,,,,,,,,,,,,,,,,,,,,,,,,,,,,,,,,,,,,,,,,,,,,,,,,,,,,,,,,,,,,,,,,,,,,,,,,,
,,,,,,61337dde21439c131ffb37fe,62c539fd72c1aae8268437f1,2022-07-06_09h30.29.611,Colour_Asymmetry_Pilot,2022.1.3,Win32,59.1401029,62c50e9c1127f2cd403a315f,0,31,31,116,1,threeone,,,,,,,,,,,,,,,,,,,,,,,,,,,,,,,,,,,,,,,,,,,,,,,,,,,,,,,,,,,,,,,,,,,,,,,,,,,,,,,,,,,,,,,,,,,,,,,,,,,,,,,,,,,,,,,,,,,,,,,,,,,,,,,,,,,,,,,,,,,,,,,,,,,,,,,,,,,,,
,,,,,,61337dde21439c131ffb37fe,62c539fd72c1aae8268437f1,2022-07-06_09h30.29.611,Colour_Asymmetry_Pilot,2022.1.3,Win32,59.1401029,62c50e9c1127f2cd403a315f,0,32,32,64,1,onetwo,,,,,,,,,,,,,,,,,,,,,,,,,,,,,,,,,,,,,,,,,,,,,,,,,,,,,,,,,,,,,,,,,,,,,,,,,,,,,,,,,,,,,,,,,,,,,,,,,,,,,,,,,,,,,,,,,,,,,,,,,,,,,,,,,,,,,,,,,,,,,,,,,,,,,,,,,,,,,
,,,,,,61337dde21439c131ffb37fe,62c539fd72c1aae8268437f1,2022-07-06_09h30.29.611,Colour_Asymmetry_Pilot,2022.1.3,Win32,59.1401029,62c50e9c1127f2cd403a315f,0,33,33,137,1,onethree,,,,,,,,,,,,,,,,,,,,,,,,,,,,,,,,,,,,,,,,,,,,,,,,,,,,,,,,,,,,,,,,,,,,,,,,,,,,,,,,,,,,,,,,,,,,,,,,,,,,,,,,,,,,,,,,,,,,,,,,,,,,,,,,,,,,,,,,,,,,,,,,,,,,,,,,,,,,,
,,,,,,61337dde21439c131ffb37fe,62c539fd72c1aae8268437f1,2022-07-06_09h30.29.611,Colour_Asymmetry_Pilot,2022.1.3,Win32,59.1401029,62c50e9c1127f2cd403a315f,0,34,34,104,1,onetwo,,,,,,,,,,,,,,,,,,,,,,,,,,,,,,,,,,,,,,,,,,,,,,,,,,,,,,,,,,,,,,,,,,,,,,,,,,,,,,,,,,,,,,,,,,,,,,,,,,,,,,,,,,,,,,,,,,,,,,,,,,,,,,,,,,,,,,,,,,,,,,,,,,,,,,,,,,,,,
,,,,,,61337dde21439c131ffb37fe,62c539fd72c1aae8268437f1,2022-07-06_09h30.29.611,Colour_Asymmetry_Pilot,2022.1.3,Win32,59.1401029,62c50e9c1127f2cd403a315f,0,35,35,121,1,onethree,,,,,,,,,,,,,,,,,,,,,,,,,,,,,,,,,,,,,,,,,,,,,,,,,,,,,,,,,,,,,,,,,,,,,,,,,,,,,,,,,,,,,,,,,,,,,,,,,,,,,,,,,,,,,,,,,,,,,,,,,,,,,,,,,,,,,,,,,,,,,,,,,,,,,,,,,,,,,
,,,,,,61337dde21439c131ffb37fe,62c539fd72c1aae8268437f1,2022-07-06_09h30.29.611,Colour_Asymmetry_Pilot,2022.1.3,Win32,59.1401029,62c50e9c1127f2cd403a315f,0,36,36,160,1,onetwo,,,,,,,,,,,,,,,,,,,,,,,,,,,,,,,,,,,,,,,,,,,,,,,,,,,,,,,,,,,,,,,,,,,,,,,,,,,,,,,,,,,,,,,,,,,,,,,,,,,,,,,,,,,,,,,,,,,,,,,,,,,,,,,,,,,,,,,,,,,,,,,,,,,,,,,,,,,,,
,,,,,,61337dde21439c131ffb37fe,62c539fd72c1aae8268437f1,2022-07-06_09h30.29.611,Colour_Asymmetry_Pilot,2022.1.3,Win32,59.1401029,62c50e9c1127f2cd403a315f,0,37,37,26,1,twoone,,,,,,,,,,,,,,,,,,,,,,,,,,,,,,,,,,,,,,,,,,,,,,,,,,,,,,,,,,,,,,,,,,,,,,,,,,,,,,,,,,,,,,,,,,,,,,,,,,,,,,,,,,,,,,,,,,,,,,,,,,,,,,,,,,,,,,,,,,,,,,,,,,,,,,,,,,,,,
,,,,,,61337dde21439c131ffb37fe,62c539fd72c1aae8268437f1,2022-07-06_09h30.29.611,Colour_Asymmetry_Pilot,2022.1.3,Win32,59.1401029,62c50e9c1127f2cd403a315f,0,38,38,140,1,threeone,,,,,,,,,,,,,,,,,,,,,,,,,,,,,,,,,,,,,,,,,,,,,,,,,,,,,,,,,,,,,,,,,,,,,,,,,,,,,,,,,,,,,,,,,,,,,,,,,,,,,,,,,,,,,,,,,,,,,,,,,,,,,,,,,,,,,,,,,,,,,,,,,,,,,,,,,,,,,
,,,,,,61337dde21439c131ffb37fe,62c539fd72c1aae8268437f1,2022-07-06_09h30.29.611,Colour_Asymmetry_Pilot,2022.1.3,Win32,59.1401029,62c50e9c1127f2cd403a315f,0,39,39,119,1,fourthree,,,,,,,,,,,,,,,,,,,,,,,,,,,,,,,,,,,,,,,,,,,,,,,,,,,,,,,,,,,,,,,,,,,,,,,,,,,,,,,,,,,,,,,,,,,,,,,,,,,,,,,,,,,,,,,,,,,,,,,,,,,,,,,,,,,,,,,,,,,,,,,,,,,,,,,,,,,,,
,,,,,,61337dde21439c131ffb37fe,62c539fd72c1aae8268437f1,2022-07-06_09h30.29.611,Colour_Asymmetry_Pilot,2022.1.3,Win32,59.1401029,62c50e9c1127f2cd403a315f,0,40,40,144,1,onetwo,,,,,,,,,,,,,,,,,,,,,,,,,,,,,,,,,,,,,,,,,,,,,,,,,,,,,,,,,,,,,,,,,,,,,,,,,,,,,,,,,,,,,,,,,,,,,,,,,,,,,,,,,,,,,,,,,,,,,,,,,,,,,,,,,,,,,,,,,,,,,,,,,,,,,,,,,,,,,
,,,,,,61337dde21439c131ffb37fe,62c539fd72c1aae8268437f1,2022-07-06_09h30.29.611,Colour_Asymmetry_Pilot,2022.1.3,Win32,59.1401029,62c50e9c1127f2cd403a315f,0,41,41,36,1,threeone,,,,,,,,,,,,,,,,,,,,,,,,,,,,,,,,,,,,,,,,,,,,,,,,,,,,,,,,,,,,,,,,,,,,,,,,,,,,,,,,,,,,,,,,,,,,,,,,,,,,,,,,,,,,,,,,,,,,,,,,,,,,,,,,,,,,,,,,,,,,,,,,,,,,,,,,,,,,,
,,,,,,61337dde21439c131ffb37fe,62c539fd72c1aae8268437f1,2022-07-06_09h30.29.611,Colour_Asymmetry_Pilot,2022.1.3,Win32,59.1401029,62c50e9c1127f2cd403a315f,0,42,42,90,1,twoone,,,,,,,,,,,,,,,,,,,,,,,,,,,,,,,,,,,,,,,,,,,,,,,,,,,,,,,,,,,,,,,,,,,,,,,,,,,,,,,,,,,,,,,,,,,,,,,,,,,,,,,,,,,,,,,,,,,,,,,,,,,,,,,,,,,,,,,,,,,,,,,,,,,,,,,,,,,,,
,,,,,,61337dde21439c131ffb37fe,62c539fd72c1aae8268437f1,2022-07-06_09h30.29.611,Colour_Asymmetry_Pilot,2022.1.3,Win32,59.1401029,62c50e9c1127f2cd403a315f,0,43,43,75,1,twofour,,,,,,,,,,,,,,,,,,,,,,,,,,,,,,,,,,,,,,,,,,,,,,,,,,,,,,,,,,,,,,,,,,,,,,,,,,,,,,,,,,,,,,,,,,,,,,,,,,,,,,,,,,,,,,,,,,,,,,,,,,,,,,,,,,,,,,,,,,,,,,,,,,,,,,,,,,,,,
,,,,,,61337dde21439c131ffb37fe,62c539fd72c1aae8268437f1,2022-07-06_09h30.29.611,Colour_Asymmetry_Pilot,2022.1.3,Win32,59.1401029,62c50e9c1127f2cd403a315f,0,44,44,41,1,onethree,,,,,,,,,,,,,,,,,,,,,,,,,,,,,,,,,,,,,,,,,,,,,,,,,,,,,,,,,,,,,,,,,,,,,,,,,,,,,,,,,,,,,,,,,,,,,,,,,,,,,,,,,,,,,,,,,,,,,,,,,,,,,,,,,,,,,,,,,,,,,,,,,,,,,,,,,,,,,
,,,,,,61337dde21439c131ffb37fe,62c539fd72c1aae8268437f1,2022-07-06_09h30.29.611,Colour_Asymmetry_Pilot,2022.1.3,Win32,59.1401029,62c50e9c1127f2cd403a315f,0,45,45,34,1,twoone,,,,,,,,,,,,,,,,,,,,,,,,,,,,,,,,,,,,,,,,,,,,,,,,,,,,,,,,,,,,,,,,,,,,,,,,,,,,,,,,,,,,,,,,,,,,,,,,,,,,,,,,,,,,,,,,,,,,,,,,,,,,,,,,,,,,,,,,,,,,,,,,,,,,,,,,,,,,,
,,,,,,61337dde21439c131ffb37fe,62c539fd72c1aae8268437f1,2022-07-06_09h30.29.611,Colour_Asymmetry_Pilot,2022.1.3,Win32,59.1401029,62c50e9c1127f2cd403a315f,0,46,46,96,1,onetwo,,,,,,,,,,,,,,,,,,,,,,,,,,,,,,,,,,,,,,,,,,,,,,,,,,,,,,,,,,,,,,,,,,,,,,,,,,,,,,,,,,,,,,,,,,,,,,,,,,,,,,,,,,,,,,,,,,,,,,,,,,,,,,,,,,,,,,,,,,,,,,,,,,,,,,,,,,,,,
,,,,,,61337dde21439c131ffb37fe,62c539fd72c1aae8268437f1,2022-07-06_09h30.29.611,Colour_Asymmetry_Pilot,2022.1.3,Win32,59.1401029,62c50e9c1127f2cd403a315f,0,47,47,134,1,fourtwo,,,,,,,,,,,,,,,,,,,,,,,,,,,,,,,,,,,,,,,,,,,,,,,,,,,,,,,,,,,,,,,,,,,,,,,,,,,,,,,,,,,,,,,,,,,,,,,,,,,,,,,,,,,,,,,,,,,,,,,,,,,,,,,,,,,,,,,,,,,,,,,,,,,,,,,,,,,,,
,,,,,,61337dde21439c131ffb37fe,62c539fd72c1aae8268437f1,2022-07-06_09h30.29.611,Colour_Asymmetry_Pilot,2022.1.3,Win32,59.1401029,62c50e9c1127f2cd403a315f,0,48,48,70,1,fourtwo,,,,,,,,,,,,,,,,,,,,,,,,,,,,,,,,,,,,,,,,,,,,,,,,,,,,,,,,,,,,,,,,,,,,,,,,,,,,,,,,,,,,,,,,,,,,,,,,,,,,,,,,,,,,,,,,,,,,,,,,,,,,,,,,,,,,,,,,,,,,,,,,,,,,,,,,,,,,,
,,,,,,61337dde21439c131ffb37fe,62c539fd72c1aae8268437f1,2022-07-06_09h30.29.611,Colour_Asymmetry_Pilot,2022.1.3,Win32,59.1401029,62c50e9c1127f2cd403a315f,0,49,49,54,1,fourtwo,,,,,,,,,,,,,,,,,,,,,,,,,,,,,,,,,,,,,,,,,,,,,,,,,,,,,,,,,,,,,,,,,,,,,,,,,,,,,,,,,,,,,,,,,,,,,,,,,,,,,,,,,,,,,,,,,,,,,,,,,,,,,,,,,,,,,,,,,,,,,,,,,,,,,,,,,,,,,
,,,,,,61337dde21439c131ffb37fe,62c539fd72c1aae8268437f1,2022-07-06_09h30.29.611,Colour_Asymmetry_Pilot,2022.1.3,Win32,59.1401029,62c50e9c1127f2cd403a315f,0,50,50,11,1,twofour,,,,,,,,,,,,,,,,,,,,,,,,,,,,,,,,,,,,,,,,,,,,,,,,,,,,,,,,,,,,,,,,,,,,,,,,,,,,,,,,,,,,,,,,,,,,,,,,,,,,,,,,,,,,,,,,,,,,,,,,,,,,,,,,,,,,,,,,,,,,,,,,,,,,,,,,,,,,,
,,,,,,61337dde21439c131ffb37fe,62c539fd72c1aae8268437f1,2022-07-06_09h30.29.611,Colour_Asymmetry_Pilot,2022.1.3,Win32,59.1401029,62c50e9c1127f2cd403a315f,0,51,51,127,1,fourthree,,,,,,,,,,,,,,,,,,,,,,,,,,,,,,,,,,,,,,,,,,,,,,,,,,,,,,,,,,,,,,,,,,,,,,,,,,,,,,,,,,,,,,,,,,,,,,,,,,,,,,,,,,,,,,,,,,,,,,,,,,,,,,,,,,,,,,,,,,,,,,,,,,,,,,,,,,,,,
,,,,,,61337dde21439c131ffb37fe,62c539fd72c1aae8268437f1,2022-07-06_09h30.29.611,Colour_Asymmetry_Pilot,2022.1.3,Win32,59.1401029,62c50e9c1127f2cd403a315f,0,52,52,153,1,onethree,,,,,,,,,,,,,,,,,,,,,,,,,,,,,,,,,,,,,,,,,,,,,,,,,,,,,,,,,,,,,,,,,,,,,,,,,,,,,,,,,,,,,,,,,,,,,,,,,,,,,,,,,,,,,,,,,,,,,,,,,,,,,,,,,,,,,,,,,,,,,,,,,,,,,,,,,,,,,
,,,,,,61337dde21439c131ffb37fe,62c539fd72c1aae8268437f1,2022-07-06_09h30.29.611,Colour_Asymmetry_Pilot,2022.1.3,Win32,59.1401029,62c50e9c1127f2cd403a315f,0,53,53,44,1,threeone,,,,,,,,,,,,,,,,,,,,,,,,,,,,,,,,,,,,,,,,,,,,,,,,,,,,,,,,,,,,,,,,,,,,,,,,,,,,,,,,,,,,,,,,,,,,,,,,,,,,,,,,,,,,,,,,,,,,,,,,,,,,,,,,,,,,,,,,,,,,,,,,,,,,,,,,,,,,,
,,,,,,61337dde21439c131ffb37fe,62c539fd72c1aae8268437f1,2022-07-06_09h30.29.611,Colour_Asymmetry_Pilot,2022.1.3,Win32,59.1401029,62c50e9c1127f2cd403a315f,0,54,54,42,1,twoone,,,,,,,,,,,,,,,,,,,,,,,,,,,,,,,,,,,,,,,,,,,,,,,,,,,,,,,,,,,,,,,,,,,,,,,,,,,,,,,,,,,,,,,,,,,,,,,,,,,,,,,,,,,,,,,,,,,,,,,,,,,,,,,,,,,,,,,,,,,,,,,,,,,,,,,,,,,,,
,,,,,,61337dde21439c131ffb37fe,62c539fd72c1aae8268437f1,2022-07-06_09h30.29.611,Colour_Asymmetry_Pilot,2022.1.3,Win32,59.1401029,62c50e9c1127f2cd403a315f,0,55,55,141,1,threefour,,,,,,,,,,,,,,,,,,,,,,,,,,,,,,,,,,,,,,,,,,,,,,,,,,,,,,,,,,,,,,,,,,,,,,,,,,,,,,,,,,,,,,,,,,,,,,,,,,,,,,,,,,,,,,,,,,,,,,,,,,,,,,,,,,,,,,,,,,,,,,,,,,,,,,,,,,,,,
,,,,,,61337dde21439c131ffb37fe,62c539fd72c1aae8268437f1,2022-07-06_09h30.29.611,Colour_Asymmetry_Pilot,2022.1.3,Win32,59.1401029,62c50e9c1127f2cd403a315f,0,56,56,68,1,threeone,,,,,,,,,,,,,,,,,,,,,,,,,,,,,,,,,,,,,,,,,,,,,,,,,,,,,,,,,,,,,,,,,,,,,,,,,,,,,,,,,,,,,,,,,,,,,,,,,,,,,,,,,,,,,,,,,,,,,,,,,,,,,,,,,,,,,,,,,,,,,,,,,,,,,,,,,,,,,
,,,,,,61337dde21439c131ffb37fe,62c539fd72c1aae8268437f1,2022-07-06_09h30.29.611,Colour_Asymmetry_Pilot,2022.1.3,Win32,59.1401029,62c50e9c1127f2cd403a315f,0,57,57,23,1,fourthree,,,,,,,,,,,,,,,,,,,,,,,,,,,,,,,,,,,,,,,,,,,,,,,,,,,,,,,,,,,,,,,,,,,,,,,,,,,,,,,,,,,,,,,,,,,,,,,,,,,,,,,,,,,,,,,,,,,,,,,,,,,,,,,,,,,,,,,,,,,,,,,,,,,,,,,,,,,,,
,,,,,,61337dde21439c131ffb37fe,62c539fd72c1aae8268437f1,2022-07-06_09h30.29.611,Colour_Asymmetry_Pilot,2022.1.3,Win32,59.1401029,62c50e9c1127f2cd403a315f,0,58,58,158,1,fourtwo,,,,,,,,,,,,,,,,,,,,,,,,,,,,,,,,,,,,,,,,,,,,,,,,,,,,,,,,,,,,,,,,,,,,,,,,,,,,,,,,,,,,,,,,,,,,,,,,,,,,,,,,,,,,,,,,,,,,,,,,,,,,,,,,,,,,,,,,,,,,,,,,,,,,,,,,,,,,,
,,,,,,61337dde21439c131ffb37fe,62c539fd72c1aae8268437f1,2022-07-06_09h30.29.611,Colour_Asymmetry_Pilot,2022.1.3,Win32,59.1401029,62c50e9c1127f2cd403a315f,0,59,59,47,1,fourthree,,,,,,,,,,,,,,,,,,,,,,,,,,,,,,,,,,,,,,,,,,,,,,,,,,,,,,,,,,,,,,,,,,,,,,,,,,,,,,,,,,,,,,,,,,,,,,,,,,,,,,,,,,,,,,,,,,,,,,,,,,,,,,,,,,,,,,,,,,,,,,,,,,,,,,,,,,,,,
,,,,,,61337dde21439c131ffb37fe,62c539fd72c1aae8268437f1,2022-07-06_09h30.29.611,Colour_Asymmetry_Pilot,2022.1.3,Win32,59.1401029,62c50e9c1127f2cd403a315f,0,60,60,5,1,threefour,,,,,,,,,,,,,,,,,,,,,,,,,,,,,,,,,,,,,,,,,,,,,,,,,,,,,,,,,,,,,,,,,,,,,,,,,,,,,,,,,,,,,,,,,,,,,,,,,,,,,,,,,,,,,,,,,,,,,,,,,,,,,,,,,,,,,,,,,,,,,,,,,,,,,,,,,,,,,
,,,,,,61337dde21439c131ffb37fe,62c539fd72c1aae8268437f1,2022-07-06_09h30.29.611,Colour_Asymmetry_Pilot,2022.1.3,Win32,59.1401029,62c50e9c1127f2cd403a315f,0,61,61,161,1,onethree,,,,,,,,,,,,,,,,,,,,,,,,,,,,,,,,,,,,,,,,,,,,,,,,,,,,,,,,,,,,,,,,,,,,,,,,,,,,,,,,,,,,,,,,,,,,,,,,,,,,,,,,,,,,,,,,,,,,,,,,,,,,,,,,,,,,,,,,,,,,,,,,,,,,,,,,,,,,,
,,,,,,61337dde21439c131ffb37fe,62c539fd72c1aae8268437f1,2022-07-06_09h30.29.611,Colour_Asymmetry_Pilot,2022.1.3,Win32,59.1401029,62c50e9c1127f2cd403a315f,0,62,62,0,1,onetwo,,,,,,,,,,,,,,,,,,,,,,,,,,,,,,,,,,,,,,,,,,,,,,,,,,,,,,,,,,,,,,,,,,,,,,,,,,,,,,,,,,,,,,,,,,,,,,,,,,,,,,,,,,,,,,,,,,,,,,,,,,,,,,,,,,,,,,,,,,,,,,,,,,,,,,,,,,,,,
,,,,,,61337dde21439c131ffb37fe,62c539fd72c1aae8268437f1,2022-07-06_09h30.29.611,Colour_Asymmetry_Pilot,2022.1.3,Win32,59.1401029,62c50e9c1127f2cd403a315f,0,63,63,18,1,twoone,,,,,,,,,,,,,,,,,,,,,,,,,,,,,,,,,,,,,,,,,,,,,,,,,,,,,,,,,,,,,,,,,,,,,,,,,,,,,,,,,,,,,,,,,,,,,,,,,,,,,,,,,,,,,,,,,,,,,,,,,,,,,,,,,,,,,,,,,,,,,,,,,,,,,,,,,,,,,
,,,,,,61337dde21439c131ffb37fe,62c539fd72c1aae8268437f1,2022-07-06_09h30.29.611,Colour_Asymmetry_Pilot,2022.1.3,Win32,59.1401029,62c50e9c1127f2cd403a315f,0,64,64,81,1,onethree,,,,,,,,,,,,,,,,,,,,,,,,,,,,,,,,,,,,,,,,,,,,,,,,,,,,,,,,,,,,,,,,,,,,,,,,,,,,,,,,,,,,,,,,,,,,,,,,,,,,,,,,,,,,,,,,,,,,,,,,,,,,,,,,,,,,,,,,,,,,,,,,,,,,,,,,,,,,,
,,,,,,61337dde21439c131ffb37fe,62c539fd72c1aae8268437f1,2022-07-06_09h30.29.611,Colour_Asymmetry_Pilot,2022.1.3,Win32,59.1401029,62c50e9c1127f2cd403a315f,0,65,65,89,1,onethree,,,,,,,,,,,,,,,,,,,,,,,,,,,,,,,,,,,,,,,,,,,,,,,,,,,,,,,,,,,,,,,,,,,,,,,,,,,,,,,,,,,,,,,,,,,,,,,,,,,,,,,,,,,,,,,,,,,,,,,,,,,,,,,,,,,,,,,,,,,,,,,,,,,,,,,,,,,,,
,,,,,,61337dde21439c131ffb37fe,62c539fd72c1aae8268437f1,2022-07-06_09h30.29.611,Colour_Asymmetry_Pilot,2022.1.3,Win32,59.1401029,62c50e9c1127f2cd403a315f,0,66,66,91,1,twofour,,,,,,,,,,,,,,,,,,,,,,,,,,,,,,,,,,,,,,,,,,,,,,,,,,,,,,,,,,,,,,,,,,,,,,,,,,,,,,,,,,,,,,,,,,,,,,,,,,,,,,,,,,,,,,,,,,,,,,,,,,,,,,,,,,,,,,,,,,,,,,,,,,,,,,,,,,,,,
,,,,,,61337dde21439c131ffb37fe,62c539fd72c1aae8268437f1,2022-07-06_09h30.29.611,Colour_Asymmetry_Pilot,2022.1.3,Win32,59.1401029,62c50e9c1127f2cd403a315f,0,67,67,132,1,threeone,,,,,,,,,,,,,,,,,,,,,,,,,,,,,,,,,,,,,,,,,,,,,,,,,,,,,,,,,,,,,,,,,,,,,,,,,,,,,,,,,,,,,,,,,,,,,,,,,,,,,,,,,,,,,,,,,,,,,,,,,,,,,,,,,,,,,,,,,,,,,,,,,,,,,,,,,,,,,
,,,,,,61337dde21439c131ffb37fe,62c539fd72c1aae8268437f1,2022-07-06_09h30.29.611,Colour_Asymmetry_Pilot,2022.1.3,Win32,59.1401029,62c50e9c1127f2cd403a315f,0,68,68,98,1,twoone,,,,,,,,,,,,,,,,,,,,,,,,,,,,,,,,,,,,,,,,,,,,,,,,,,,,,,,,,,,,,,,,,,,,,,,,,,,,,,,,,,,,,,,,,,,,,,,,,,,,,,,,,,,,,,,,,,,,,,,,,,,,,,,,,,,,,,,,,,,,,,,,,,,,,,,,,,,,,
,,,,,,61337dde21439c131ffb37fe,62c539fd72c1aae8268437f1,2022-07-06_09h30.29.611,Colour_Asymmetry_Pilot,2022.1.3,Win32,59.1401029,62c50e9c1127f2cd403a315f,0,69,69,69,1,threefour,,,,,,,,,,,,,,,,,,,,,,,,,,,,,,,,,,,,,,,,,,,,,,,,,,,,,,,,,,,,,,,,,,,,,,,,,,,,,,,,,,,,,,,,,,,,,,,,,,,,,,,,,,,,,,,,,,,,,,,,,,,,,,,,,,,,,,,,,,,,,,,,,,,,,,,,,,,,,
,,,,,,61337dde21439c131ffb37fe,62c539fd72c1aae8268437f1,2022-07-06_09h30.29.611,Colour_Asymmetry_Pilot,2022.1.3,Win32,59.1401029,62c50e9c1127f2cd403a315f,0,70,70,14,1,fourtwo,,,,,,,,,,,,,,,,,,,,,,,,,,,,,,,,,,,,,,,,,,,,,,,,,,,,,,,,,,,,,,,,,,,,,,,,,,,,,,,,,,,,,,,,,,,,,,,,,,,,,,,,,,,,,,,,,,,,,,,,,,,,,,,,,,,,,,,,,,,,,,,,,,,,,,,,,,,,,
,,,,,,61337dde21439c131ffb37fe,62c539fd72c1aae8268437f1,2022-07-06_09h30.29.611,Colour_Asymmetry_Pilot,2022.1.3,Win32,59.1401029,62c50e9c1127f2cd403a315f,0,71,71,85,1,threefour,,,,,,,,,,,,,,,,,,,,,,,,,,,,,,,,,,,,,,,,,,,,,,,,,,,,,,,,,,,,,,,,,,,,,,,,,,,,,,,,,,,,,,,,,,,,,,,,,,,,,,,,,,,,,,,,,,,,,,,,,,,,,,,,,,,,,,,,,,,,,,,,,,,,,,,,,,,,,
,,,,,,61337dde21439c131ffb37fe,62c539fd72c1aae8268437f1,2022-07-06_09h30.29.611,Colour_Asymmetry_Pilot,2022.1.3,Win32,59.1401029,62c50e9c1127f2cd403a315f,0,72,72,1,1,onethree,,,,,,,,,,,,,,,,,,,,,,,,,,,,,,,,,,,,,,,,,,,,,,,,,,,,,,,,,,,,,,,,,,,,,,,,,,,,,,,,,,,,,,,,,,,,,,,,,,,,,,,,,,,,,,,,,,,,,,,,,,,,,,,,,,,,,,,,,,,,,,,,,,,,,,,,,,,,,
,,,,,,61337dde21439c131ffb37fe,62c539fd72c1aae8268437f1,2022-07-06_09h30.29.611,Colour_Asymmetry_Pilot,2022.1.3,Win32,59.1401029,62c50e9c1127f2cd403a315f,0,73,73,156,1,threeone,,,,,,,,,,,,,,,,,,,,,,,,,,,,,,,,,,,,,,,,,,,,,,,,,,,,,,,,,,,,,,,,,,,,,,,,,,,,,,,,,,,,,,,,,,,,,,,,,,,,,,,,,,,,,,,,,,,,,,,,,,,,,,,,,,,,,,,,,,,,,,,,,,,,,,,,,,,,,
,,,,,,61337dde21439c131ffb37fe,62c539fd72c1aae8268437f1,2022-07-06_09h30.29.611,Colour_Asymmetry_Pilot,2022.1.3,Win32,59.1401029,62c50e9c1127f2cd403a315f,0,74,74,126,1,fourtwo,,,,,,,,,,,,,,,,,,,,,,,,,,,,,,,,,,,,,,,,,,,,,,,,,,,,,,,,,,,,,,,,,,,,,,,,,,,,,,,,,,,,,,,,,,,,,,,,,,,,,,,,,,,,,,,,,,,,,,,,,,,,,,,,,,,,,,,,,,,,,,,,,,,,,,,,,,,,,
,,,,,,61337dde21439c131ffb37fe,62c539fd72c1aae8268437f1,2022-07-06_09h30.29.611,Colour_Asymmetry_Pilot,2022.1.3,Win32,59.1401029,62c50e9c1127f2cd403a315f,0,75,75,57,1,onethree,,,,,,,,,,,,,,,,,,,,,,,,,,,,,,,,,,,,,,,,,,,,,,,,,,,,,,,,,,,,,,,,,,,,,,,,,,,,,,,,,,,,,,,,,,,,,,,,,,,,,,,,,,,,,,,,,,,,,,,,,,,,,,,,,,,,,,,,,,,,,,,,,,,,,,,,,,,,,
,,,,,,61337dde21439c131ffb37fe,62c539fd72c1aae8268437f1,2022-07-06_09h30.29.611,Colour_Asymmetry_Pilot,2022.1.3,Win32,59.1401029,62c50e9c1127f2cd403a315f,0,76,76,72,1,onetwo,,,,,,,,,,,,,,,,,,,,,,,,,,,,,,,,,,,,,,,,,,,,,,,,,,,,,,,,,,,,,,,,,,,,,,,,,,,,,,,,,,,,,,,,,,,,,,,,,,,,,,,,,,,,,,,,,,,,,,,,,,,,,,,,,,,,,,,,,,,,,,,,,,,,,,,,,,,,,
,,,,,,61337dde21439c131ffb37fe,62c539fd72c1aae8268437f1,2022-07-06_09h30.29.611,Colour_Asymmetry_Pilot,2022.1.3,Win32,59.1401029,62c50e9c1127f2cd403a315f,0,77,77,29,1,threefour,,,,,,,,,,,,,,,,,,,,,,,,,,,,,,,,,,,,,,,,,,,,,,,,,,,,,,,,,,,,,,,,,,,,,,,,,,,,,,,,,,,,,,,,,,,,,,,,,,,,,,,,,,,,,,,,,,,,,,,,,,,,,,,,,,,,,,,,,,,,,,,,,,,,,,,,,,,,,
,,,,,,61337dde21439c131ffb37fe,62c539fd72c1aae8268437f1,2022-07-06_09h30.29.611,Colour_Asymmetry_Pilot,2022.1.3,Win32,59.1401029,62c50e9c1127f2cd403a315f,0,78,78,157,1,threefour,,,,,,,,,,,,,,,,,,,,,,,,,,,,,,,,,,,,,,,,,,,,,,,,,,,,,,,,,,,,,,,,,,,,,,,,,,,,,,,,,,,,,,,,,,,,,,,,,,,,,,,,,,,,,,,,,,,,,,,,,,,,,,,,,,,,,,,,,,,,,,,,,,,,,,,,,,,,,
,,,,,,61337dde21439c131ffb37fe,62c539fd72c1aae8268437f1,2022-07-06_09h30.29.611,Colour_Asymmetry_Pilot,2022.1.3,Win32,59.1401029,62c50e9c1127f2cd403a315f,0,79,79,27,1,twofour,,,,,,,,,,,,,,,,,,,,,,,,,,,,,,,,,,,,,,,,,,,,,,,,,,,,,,,,,,,,,,,,,,,,,,,,,,,,,,,,,,,,,,,,,,,,,,,,,,,,,,,,,,,,,,,,,,,,,,,,,,,,,,,,,,,,,,,,,,,,,,,,,,,,,,,,,,,,,
,,,,,,61337dde21439c131ffb37fe,62c539fd72c1aae8268437f1,2022-07-06_09h30.29.611,Colour_Asymmetry_Pilot,2022.1.3,Win32,59.1401029,62c50e9c1127f2cd403a315f,0,80,80,143,1,fourthree,,,,,,,,,,,,,,,,,,,,,,,,,,,,,,,,,,,,,,,,,,,,,,,,,,,,,,,,,,,,,,,,,,,,,,,,,,,,,,,,,,,,,,,,,,,,,,,,,,,,,,,,,,,,,,,,,,,,,,,,,,,,,,,,,,,,,,,,,,,,,,,,,,,,,,,,,,,,,
,,,,,,61337dde21439c131ffb37fe,62c539fd72c1aae8268437f1,2022-07-06_09h30.29.611,Colour_Asymmetry_Pilot,2022.1.3,Win32,59.1401029,62c50e9c1127f2cd403a315f,0,81,81,30,1,fourtwo,,,,,,,,,,,,,,,,,,,,,,,,,,,,,,,,,,,,,,,,,,,,,,,,,,,,,,,,,,,,,,,,,,,,,,,,,,,,,,,,,,,,,,,,,,,,,,,,,,,,,,,,,,,,,,,,,,,,,,,,,,,,,,,,,,,,,,,,,,,,,,,,,,,,,,,,,,,,,
,,,,,,61337dde21439c131ffb37fe,62c539fd72c1aae8268437f1,2022-07-06_09h30.29.611,Colour_Asymmetry_Pilot,2022.1.3,Win32,59.1401029,62c50e9c1127f2cd403a315f,0,82,82,55,1,fourthree,,,,,,,,,,,,,,,,,,,,,,,,,,,,,,,,,,,,,,,,,,,,,,,,,,,,,,,,,,,,,,,,,,,,,,,,,,,,,,,,,,,,,,,,,,,,,,,,,,,,,,,,,,,,,,,,,,,,,,,,,,,,,,,,,,,,,,,,,,,,,,,,,,,,,,,,,,,,,
,,,,,,61337dde21439c131ffb37fe,62c539fd72c1aae8268437f1,2022-07-06_09h30.29.611,Colour_Asymmetry_Pilot,2022.1.3,Win32,59.1401029,62c50e9c1127f2cd403a315f,0,83,83,131,1,twofour,,,,,,,,,,,,,,,,,,,,,,,,,,,,,,,,,,,,,,,,,,,,,,,,,,,,,,,,,,,,,,,,,,,,,,,,,,,,,,,,,,,,,,,,,,,,,,,,,,,,,,,,,,,,,,,,,,,,,,,,,,,,,,,,,,,,,,,,,,,,,,,,,,,,,,,,,,,,,
,,,,,,61337dde21439c131ffb37fe,62c539fd72c1aae8268437f1,2022-07-06_09h30.29.611,Colour_Asymmetry_Pilot,2022.1.3,Win32,59.1401029,62c50e9c1127f2cd403a315f,0,84,84,117,1,threefour,,,,,,,,,,,,,,,,,,,,,,,,,,,,,,,,,,,,,,,,,,,,,,,,,,,,,,,,,,,,,,,,,,,,,,,,,,,,,,,,,,,,,,,,,,,,,,,,,,,,,,,,,,,,,,,,,,,,,,,,,,,,,,,,,,,,,,,,,,,,,,,,,,,,,,,,,,,,,
,,,,,,61337dde21439c131ffb37fe,62c539fd72c1aae8268437f1,2022-07-06_09h30.29.611,Colour_Asymmetry_Pilot,2022.1.3,Win32,59.1401029,62c50e9c1127f2cd403a315f,0,85,85,154,1,twoone,,,,,,,,,,,,,,,,,,,,,,,,,,,,,,,,,,,,,,,,,,,,,,,,,,,,,,,,,,,,,,,,,,,,,,,,,,,,,,,,,,,,,,,,,,,,,,,,,,,,,,,,,,,,,,,,,,,,,,,,,,,,,,,,,,,,,,,,,,,,,,,,,,,,,,,,,,,,,
,,,,,,61337dde21439c131ffb37fe,62c539fd72c1aae8268437f1,2022-07-06_09h30.29.611,Colour_Asymmetry_Pilot,2022.1.3,Win32,59.1401029,62c50e9c1127f2cd403a315f,0,86,86,107,1,twofour,,,,,,,,,,,,,,,,,,,,,,,,,,,,,,,,,,,,,,,,,,,,,,,,,,,,,,,,,,,,,,,,,,,,,,,,,,,,,,,,,,,,,,,,,,,,,,,,,,,,,,,,,,,,,,,,,,,,,,,,,,,,,,,,,,,,,,,,,,,,,,,,,,,,,,,,,,,,,
,,,,,,61337dde21439c131ffb37fe,62c539fd72c1aae8268437f1,2022-07-06_09h30.29.611,Colour_Asymmetry_Pilot,2022.1.3,Win32,59.1401029,62c50e9c1127f2cd403a315f,0,87,87,53,1,threefour,,,,,,,,,,,,,,,,,,,,,,,,,,,,,,,,,,,,,,,,,,,,,,,,,,,,,,,,,,,,,,,,,,,,,,,,,,,,,,,,,,,,,,,,,,,,,,,,,,,,,,,,,,,,,,,,,,,,,,,,,,,,,,,,,,,,,,,,,,,,,,,,,,,,,,,,,,,,,
,,,,,,61337dde21439c131ffb37fe,62c539fd72c1aae8268437f1,2022-07-06_09h30.29.611,Colour_Asymmetry_Pilot,2022.1.3,Win32,59.1401029,62c50e9c1127f2cd403a315f,0,88,88,22,1,fourtwo,,,,,,,,,,,,,,,,,,,,,,,,,,,,,,,,,,,,,,,,,,,,,,,,,,,,,,,,,,,,,,,,,,,,,,,,,,,,,,,,,,,,,,,,,,,,,,,,,,,,,,,,,,,,,,,,,,,,,,,,,,,,,,,,,,,,,,,,,,,,,,,,,,,,,,,,,,,,,
,,,,,,61337dde21439c131ffb37fe,62c539fd72c1aae8268437f1,2022-07-06_09h30.29.611,Colour_Asymmetry_Pilot,2022.1.3,Win32,59.1401029,62c50e9c1127f2cd403a315f,0,89,89,45,1,threefour,,,,,,,,,,,,,,,,,,,,,,,,,,,,,,,,,,,,,,,,,,,,,,,,,,,,,,,,,,,,,,,,,,,,,,,,,,,,,,,,,,,,,,,,,,,,,,,,,,,,,,,,,,,,,,,,,,,,,,,,,,,,,,,,,,,,,,,,,,,,,,,,,,,,,,,,,,,,,
,,,,,,61337dde21439c131ffb37fe,62c539fd72c1aae8268437f1,2022-07-06_09h30.29.611,Colour_Asymmetry_Pilot,2022.1.3,Win32,59.1401029,62c50e9c1127f2cd403a315f,0,90,90,125,1,threefour,,,,,,,,,,,,,,,,,,,,,,,,,,,,,,,,,,,,,,,,,,,,,,,,,,,,,,,,,,,,,,,,,,,,,,,,,,,,,,,,,,,,,,,,,,,,,,,,,,,,,,,,,,,,,,,,,,,,,,,,,,,,,,,,,,,,,,,,,,,,,,,,,,,,,,,,,,,,,
,,,,,,61337dde21439c131ffb37fe,62c539fd72c1aae8268437f1,2022-07-06_09h30.29.611,Colour_Asymmetry_Pilot,2022.1.3,Win32,59.1401029,62c50e9c1127f2cd403a315f,0,91,91,10,1,twoone,,,,,,,,,,,,,,,,,,,,,,,,,,,,,,,,,,,,,,,,,,,,,,,,,,,,,,,,,,,,,,,,,,,,,,,,,,,,,,,,,,,,,,,,,,,,,,,,,,,,,,,,,,,,,,,,,,,,,,,,,,,,,,,,,,,,,,,,,,,,,,,,,,,,,,,,,,,,,
,,,,,,61337dde21439c131ffb37fe,62c539fd72c1aae8268437f1,2022-07-06_09h30.29.611,Colour_Asymmetry_Pilot,2022.1.3,Win32,59.1401029,62c50e9c1127f2cd403a315f,0,92,92,99,1,twofour,,,,,,,,,,,,,,,,,,,,,,,,,,,,,,,,,,,,,,,,,,,,,,,,,,,,,,,,,,,,,,,,,,,,,,,,,,,,,,,,,,,,,,,,,,,,,,,,,,,,,,,,,,,,,,,,,,,,,,,,,,,,,,,,,,,,,,,,,,,,,,,,,,,,,,,,,,,,,
,,,,,,61337dde21439c131ffb37fe,62c539fd72c1aae8268437f1,2022-07-06_09h30.29.611,Colour_Asymmetry_Pilot,2022.1.3,Win32,59.1401029,62c50e9c1127f2cd403a315f,0,93,93,105,1,onethree,,,,,,,,,,,,,,,,,,,,,,,,,,,,,,,,,,,,,,,,,,,,,,,,,,,,,,,,,,,,,,,,,,,,,,,,,,,,,,,,,,,,,,,,,,,,,,,,,,,,,,,,,,,,,,,,,,,,,,,,,,,,,,,,,,,,,,,,,,,,,,,,,,,,,,,,,,,,,
,,,,,,61337dde21439c131ffb37fe,62c539fd72c1aae8268437f1,2022-07-06_09h30.29.611,Colour_Asymmetry_Pilot,2022.1.3,Win32,59.1401029,62c50e9c1127f2cd403a315f,0,94,94,4,1,threeone,,,,,,,,,,,,,,,,,,,,,,,,,,,,,,,,,,,,,,,,,,,,,,,,,,,,,,,,,,,,,,,,,,,,,,,,,,,,,,,,,,,,,,,,,,,,,,,,,,,,,,,,,,,,,,,,,,,,,,,,,,,,,,,,,,,,,,,,,,,,,,,,,,,,,,,,,,,,,
,,,,,,61337dde21439c131ffb37fe,62c539fd72c1aae8268437f1,2022-07-06_09h30.29.611,Colour_Asymmetry_Pilot,2022.1.3,Win32,59.1401029,62c50e9c1127f2cd403a315f,0,95,95,80,1,onetwo,,,,,,,,,,,,,,,,,,,,,,,,,,,,,,,,,,,,,,,,,,,,,,,,,,,,,,,,,,,,,,,,,,,,,,,,,,,,,,,,,,,,,,,,,,,,,,,,,,,,,,,,,,,,,,,,,,,,,,,,,,,,,,,,,,,,,,,,,,,,,,,,,,,,,,,,,,,,,
,,,,,,61337dde21439c131ffb37fe,62c539fd72c1aae8268437f1,2022-07-06_09h30.29.611,Colour_Asymmetry_Pilot,2022.1.3,Win32,59.1401029,62c50e9c1127f2cd403a315f,0,96,96,110,1,fourtwo,,,,,,,,,,,,,,,,,,,,,,,,,,,,,,,,,,,,,,,,,,,,,,,,,,,,,,,,,,,,,,,,,,,,,,,,,,,,,,,,,,,,,,,,,,,,,,,,,,,,,,,,,,,,,,,,,,,,,,,,,,,,,,,,,,,,,,,,,,,,,,,,,,,,,,,,,,,,,
,,,,,,61337dde21439c131ffb37fe,62c539fd72c1aae8268437f1,2022-07-06_09h30.29.611,Colour_Asymmetry_Pilot,2022.1.3,Win32,59.1401029,62c50e9c1127f2cd403a315f,0,97,97,73,1,onethree,,,,,,,,,,,,,,,,,,,,,,,,,,,,,,,,,,,,,,,,,,,,,,,,,,,,,,,,,,,,,,,,,,,,,,,,,,,,,,,,,,,,,,,,,,,,,,,,,,,,,,,,,,,,,,,,,,,,,,,,,,,,,,,,,,,,,,,,,,,,,,,,,,,,,,,,,,,,,
,,,,,,61337dde21439c131ffb37fe,62c539fd72c1aae8268437f1,2022-07-06_09h30.29.611,Colour_Asymmetry_Pilot,2022.1.3,Win32,59.1401029,62c50e9c1127f2cd403a315f,0,98,98,151,1,fourthree,,,,,,,,,,,,,,,,,,,,,,,,,,,,,,,,,,,,,,,,,,,,,,,,,,,,,,,,,,,,,,,,,,,,,,,,,,,,,,,,,,,,,,,,,,,,,,,,,,,,,,,,,,,,,,,,,,,,,,,,,,,,,,,,,,,,,,,,,,,,,,,,,,,,,,,,,,,,,
,,,,,,61337dde21439c131ffb37fe,62c539fd72c1aae8268437f1,2022-07-06_09h30.29.611,Colour_Asymmetry_Pilot,2022.1.3,Win32,59.1401029,62c50e9c1127f2cd403a315f,0,99,99,145,1,onethree,,,,,,,,,,,,,,,,,,,,,,,,,,,,,,,,,,,,,,,,,,,,,,,,,,,,,,,,,,,,,,,,,,,,,,,,,,,,,,,,,,,,,,,,,,,,,,,,,,,,,,,,,,,,,,,,,,,,,,,,,,,,,,,,,,,,,,,,,,,,,,,,,,,,,,,,,,,,,
,,,,,,61337dde21439c131ffb37fe,62c539fd72c1aae8268437f1,2022-07-06_09h30.29.611,Colour_Asymmetry_Pilot,2022.1.3,Win32,59.1401029,62c50e9c1127f2cd403a315f,0,100,100,46,1,fourtwo,,,,,,,,,,,,,,,,,,,,,,,,,,,,,,,,,,,,,,,,,,,,,,,,,,,,,,,,,,,,,,,,,,,,,,,,,,,,,,,,,,,,,,,,,,,,,,,,,,,,,,,,,,,,,,,,,,,,,,,,,,,,,,,,,,,,,,,,,,,,,,,,,,,,,,,,,,,,,
,,,,,,61337dde21439c131ffb37fe,62c539fd72c1aae8268437f1,2022-07-06_09h30.29.611,Colour_Asymmetry_Pilot,2022.1.3,Win32,59.1401029,62c50e9c1127f2cd403a315f,0,101,101,50,1,twoone,,,,,,,,,,,,,,,,,,,,,,,,,,,,,,,,,,,,,,,,,,,,,,,,,,,,,,,,,,,,,,,,,,,,,,,,,,,,,,,,,,,,,,,,,,,,,,,,,,,,,,,,,,,,,,,,,,,,,,,,,,,,,,,,,,,,,,,,,,,,,,,,,,,,,,,,,,,,,
,,,,,,61337dde21439c131ffb37fe,62c539fd72c1aae8268437f1,2022-07-06_09h30.29.611,Colour_Asymmetry_Pilot,2022.1.3,Win32,59.1401029,62c50e9c1127f2cd403a315f,0,102,102,83,1,twofour,,,,,,,,,,,,,,,,,,,,,,,,,,,,,,,,,,,,,,,,,,,,,,,,,,,,,,,,,,,,,,,,,,,,,,,,,,,,,,,,,,,,,,,,,,,,,,,,,,,,,,,,,,,,,,,,,,,,,,,,,,,,,,,,,,,,,,,,,,,,,,,,,,,,,,,,,,,,,
,,,,,,61337dde21439c131ffb37fe,62c539fd72c1aae8268437f1,2022-07-06_09h30.29.611,Colour_Asymmetry_Pilot,2022.1.3,Win32,59.1401029,62c50e9c1127f2cd403a315f,0,103,103,35,1,twofour,,,,,,,,,,,,,,,,,,,,,,,,,,,,,,,,,,,,,,,,,,,,,,,,,,,,,,,,,,,,,,,,,,,,,,,,,,,,,,,,,,,,,,,,,,,,,,,,,,,,,,,,,,,,,,,,,,,,,,,,,,,,,,,,,,,,,,,,,,,,,,,,,,,,,,,,,,,,,
,,,,,,61337dde21439c131ffb37fe,62c539fd72c1aae8268437f1,2022-07-06_09h30.29.611,Colour_Asymmetry_Pilot,2022.1.3,Win32,59.1401029,62c50e9c1127f2cd403a315f,0,104,104,95,1,fourthree,,,,,,,,,,,,,,,,,,,,,,,,,,,,,,,,,,,,,,,,,,,,,,,,,,,,,,,,,,,,,,,,,,,,,,,,,,,,,,,,,,,,,,,,,,,,,,,,,,,,,,,,,,,,,,,,,,,,,,,,,,,,,,,,,,,,,,,,,,,,,,,,,,,,,,,,,,,,,
,,,,,,61337dde21439c131ffb37fe,62c539fd72c1aae8268437f1,2022-07-06_09h30.29.611,Colour_Asymmetry_Pilot,2022.1.3,Win32,59.1401029,62c50e9c1127f2cd403a315f,0,105,105,33,1,onethree,,,,,,,,,,,,,,,,,,,,,,,,,,,,,,,,,,,,,,,,,,,,,,,,,,,,,,,,,,,,,,,,,,,,,,,,,,,,,,,,,,,,,,,,,,,,,,,,,,,,,,,,,,,,,,,,,,,,,,,,,,,,,,,,,,,,,,,,,,,,,,,,,,,,,,,,,,,,,
,,,,,,61337dde21439c131ffb37fe,62c539fd72c1aae8268437f1,2022-07-06_09h30.29.611,Colour_Asymmetry_Pilot,2022.1.3,Win32,59.1401029,62c50e9c1127f2cd403a315f,0,106,106,114,1,twoone,,,,,,,,,,,,,,,,,,,,,,,,,,,,,,,,,,,,,,,,,,,,,,,,,,,,,,,,,,,,,,,,,,,,,,,,,,,,,,,,,,,,,,,,,,,,,,,,,,,,,,,,,,,,,,,,,,,,,,,,,,,,,,,,,,,,,,,,,,,,,,,,,,,,,,,,,,,,,
,,,,,,61337dde21439c131ffb37fe,62c539fd72c1aae8268437f1,2022-07-06_09h30.29.611,Colour_Asymmetry_Pilot,2022.1.3,Win32,59.1401029,62c50e9c1127f2cd403a315f,0,107,107,31,1,fourthree,,,,,,,,,,,,,,,,,,,,,,,,,,,,,,,,,,,,,,,,,,,,,,,,,,,,,,,,,,,,,,,,,,,,,,,,,,,,,,,,,,,,,,,,,,,,,,,,,,,,,,,,,,,,,,,,,,,,,,,,,,,,,,,,,,,,,,,,,,,,,,,,,,,,,,,,,,,,,
,,,,,,61337dde21439c131ffb37fe,62c539fd72c1aae8268437f1,2022-07-06_09h30.29.611,Colour_Asymmetry_Pilot,2022.1.3,Win32,59.1401029,62c50e9c1127f2cd403a315f,0,108,108,84,1,threeone,,,,,,,,,,,,,,,,,,,,,,,,,,,,,,,,,,,,,,,,,,,,,,,,,,,,,,,,,,,,,,,,,,,,,,,,,,,,,,,,,,,,,,,,,,,,,,,,,,,,,,,,,,,,,,,,,,,,,,,,,,,,,,,,,,,,,,,,,,,,,,,,,,,,,,,,,,,,,
,,,,,,61337dde21439c131ffb37fe,62c539fd72c1aae8268437f1,2022-07-06_09h30.29.611,Colour_Asymmetry_Pilot,2022.1.3,Win32,59.1401029,62c50e9c1127f2cd403a315f,0,109,109,16,1,onetwo,,,,,,,,,,,,,,,,,,,,,,,,,,,,,,,,,,,,,,,,,,,,,,,,,,,,,,,,,,,,,,,,,,,,,,,,,,,,,,,,,,,,,,,,,,,,,,,,,,,,,,,,,,,,,,,,,,,,,,,,,,,,,,,,,,,,,,,,,,,,,,,,,,,,,,,,,,,,,
,,,,,,61337dde21439c131ffb37fe,62c539fd72c1aae8268437f1,2022-07-06_09h30.29.611,Colour_Asymmetry_Pilot,2022.1.3,Win32,59.1401029,62c50e9c1127f2cd403a315f,0,110,110,87,1,fourthree,,,,,,,,,,,,,,,,,,,,,,,,,,,,,,,,,,,,,,,,,,,,,,,,,,,,,,,,,,,,,,,,,,,,,,,,,,,,,,,,,,,,,,,,,,,,,,,,,,,,,,,,,,,,,,,,,,,,,,,,,,,,,,,,,,,,,,,,,,,,,,,,,,,,,,,,,,,,,
,,,,,,61337dde21439c131ffb37fe,62c539fd72c1aae8268437f1,2022-07-06_09h30.29.611,Colour_Asymmetry_Pilot,2022.1.3,Win32,59.1401029,62c50e9c1127f2cd403a315f,0,111,111,118,1,fourtwo,,,,,,,,,,,,,,,,,,,,,,,,,,,,,,,,,,,,,,,,,,,,,,,,,,,,,,,,,,,,,,,,,,,,,,,,,,,,,,,,,,,,,,,,,,,,,,,,,,,,,,,,,,,,,,,,,,,,,,,,,,,,,,,,,,,,,,,,,,,,,,,,,,,,,,,,,,,,,
,,,,,,61337dde21439c131ffb37fe,62c539fd72c1aae8268437f1,2022-07-06_09h30.29.611,Colour_Asymmetry_Pilot,2022.1.3,Win32,59.1401029,62c50e9c1127f2cd403a315f,0,112,112,136,1,onetwo,,,,,,,,,,,,,,,,,,,,,,,,,,,,,,,,,,,,,,,,,,,,,,,,,,,,,,,,,,,,,,,,,,,,,,,,,,,,,,,,,,,,,,,,,,,,,,,,,,,,,,,,,,,,,,,,,,,,,,,,,,,,,,,,,,,,,,,,,,,,,,,,,,,,,,,,,,,,,
,,,,,,61337dde21439c131ffb37fe,62c539fd72c1aae8268437f1,2022-07-06_09h30.29.611,Colour_Asymmetry_Pilot,2022.1.3,Win32,59.1401029,62c50e9c1127f2cd403a315f,0,113,113,122,1,twoone,,,,,,,,,,,,,,,,,,,,,,,,,,,,,,,,,,,,,,,,,,,,,,,,,,,,,,,,,,,,,,,,,,,,,,,,,,,,,,,,,,,,,,,,,,,,,,,,,,,,,,,,,,,,,,,,,,,,,,,,,,,,,,,,,,,,,,,,,,,,,,,,,,,,,,,,,,,,,
,,,,,,61337dde21439c131ffb37fe,62c539fd72c1aae8268437f1,2022-07-06_09h30.29.611,Colour_Asymmetry_Pilot,2022.1.3,Win32,59.1401029,62c50e9c1127f2cd403a315f,0,114,114,111,1,fourthree,,,,,,,,,,,,,,,,,,,,,,,,,,,,,,,,,,,,,,,,,,,,,,,,,,,,,,,,,,,,,,,,,,,,,,,,,,,,,,,,,,,,,,,,,,,,,,,,,,,,,,,,,,,,,,,,,,,,,,,,,,,,,,,,,,,,,,,,,,,,,,,,,,,,,,,,,,,,,
,,,,,,61337dde21439c131ffb37fe,62c539fd72c1aae8268437f1,2022-07-06_09h30.29.611,Colour_Asymmetry_Pilot,2022.1.3,Win32,59.1401029,62c50e9c1127f2cd403a315f,0,115,115,88,1,onetwo,,,,,,,,,,,,,,,,,,,,,,,,,,,,,,,,,,,,,,,,,,,,,,,,,,,,,,,,,,,,,,,,,,,,,,,,,,,,,,,,,,,,,,,,,,,,,,,,,,,,,,,,,,,,,,,,,,,,,,,,,,,,,,,,,,,,,,,,,,,,,,,,,,,,,,,,,,,,,
,,,,,,61337dde21439c131ffb37fe,62c539fd72c1aae8268437f1,2022-07-06_09h30.29.611,Colour_Asymmetry_Pilot,2022.1.3,Win32,59.1401029,62c50e9c1127f2cd403a315f,0,116,116,123,1,twofour,,,,,,,,,,,,,,,,,,,,,,,,,,,,,,,,,,,,,,,,,,,,,,,,,,,,,,,,,,,,,,,,,,,,,,,,,,,,,,,,,,,,,,,,,,,,,,,,,,,,,,,,,,,,,,,,,,,,,,,,,,,,,,,,,,,,,,,,,,,,,,,,,,,,,,,,,,,,,
,,,,,,61337dde21439c131ffb37fe,62c539fd72c1aae8268437f1,2022-07-06_09h30.29.611,Colour_Asymmetry_Pilot,2022.1.3,Win32,59.1401029,62c50e9c1127f2cd403a315f,0,117,117,59,1,twofour,,,,,,,,,,,,,,,,,,,,,,,,,,,,,,,,,,,,,,,,,,,,,,,,,,,,,,,,,,,,,,,,,,,,,,,,,,,,,,,,,,,,,,,,,,,,,,,,,,,,,,,,,,,,,,,,,,,,,,,,,,,,,,,,,,,,,,,,,,,,,,,,,,,,,,,,,,,,,
,,,,,,61337dde21439c131ffb37fe,62c539fd72c1aae8268437f1,2022-07-06_09h30.29.611,Colour_Asymmetry_Pilot,2022.1.3,Win32,59.1401029,62c50e9c1127f2cd403a315f,0,118,118,139,1,twofour,,,,,,,,,,,,,,,,,,,,,,,,,,,,,,,,,,,,,,,,,,,,,,,,,,,,,,,,,,,,,,,,,,,,,,,,,,,,,,,,,,,,,,,,,,,,,,,,,,,,,,,,,,,,,,,,,,,,,,,,,,,,,,,,,,,,,,,,,,,,,,,,,,,,,,,,,,,,,
,,,,,,61337dde21439c131ffb37fe,62c539fd72c1aae8268437f1,2022-07-06_09h30.29.611,Colour_Asymmetry_Pilot,2022.1.3,Win32,59.1401029,62c50e9c1127f2cd403a315f,0,119,119,92,1,threeone,,,,,,,,,,,,,,,,,,,,,,,,,,,,,,,,,,,,,,,,,,,,,,,,,,,,,,,,,,,,,,,,,,,,,,,,,,,,,,,,,,,,,,,,,,,,,,,,,,,,,,,,,,,,,,,,,,,,,,,,,,,,,,,,,,,,,,,,,,,,,,,,,,,,,,,,,,,,,
,,,,,,61337dde21439c131ffb37fe,62c539fd72c1aae8268437f1,2022-07-06_09h30.29.611,Colour_Asymmetry_Pilot,2022.1.3,Win32,59.1401029,62c50e9c1127f2cd403a315f,0,120,120,71,1,fourthree,,,,,,,,,,,,,,,,,,,,,,,,,,,,,,,,,,,,,,,,,,,,,,,,,,,,,,,,,,,,,,,,,,,,,,,,,,,,,,,,,,,,,,,,,,,,,,,,,,,,,,,,,,,,,,,,,,,,,,,,,,,,,,,,,,,,,,,,,,,,,,,,,,,,,,,,,,,,,
,,,,,,61337dde21439c131ffb37fe,62c539fd72c1aae8268437f1,2022-07-06_09h30.29.611,Colour_Asymmetry_Pilot,2022.1.3,Win32,59.1401029,62c50e9c1127f2cd403a315f,0,121,121,15,1,fourthree,,,,,,,,,,,,,,,,,,,,,,,,,,,,,,,,,,,,,,,,,,,,,,,,,,,,,,,,,,,,,,,,,,,,,,,,,,,,,,,,,,,,,,,,,,,,,,,,,,,,,,,,,,,,,,,,,,,,,,,,,,,,,,,,,,,,,,,,,,,,,,,,,,,,,,,,,,,,,
,,,,,,61337dde21439c131ffb37fe,62c539fd72c1aae8268437f1,2022-07-06_09h30.29.611,Colour_Asymmetry_Pilot,2022.1.3,Win32,59.1401029,62c50e9c1127f2cd403a315f,0,122,122,102,1,fourtwo,,,,,,,,,,,,,,,,,,,,,,,,,,,,,,,,,,,,,,,,,,,,,,,,,,,,,,,,,,,,,,,,,,,,,,,,,,,,,,,,,,,,,,,,,,,,,,,,,,,,,,,,,,,,,,,,,,,,,,,,,,,,,,,,,,,,,,,,,,,,,,,,,,,,,,,,,,,,,
,,,,,,61337dde21439c131ffb37fe,62c539fd72c1aae8268437f1,2022-07-06_09h30.29.611,Colour_Asymmetry_Pilot,2022.1.3,Win32,59.1401029,62c50e9c1127f2cd403a315f,0,123,123,40,1,onetwo,,,,,,,,,,,,,,,,,,,,,,,,,,,,,,,,,,,,,,,,,,,,,,,,,,,,,,,,,,,,,,,,,,,,,,,,,,,,,,,,,,,,,,,,,,,,,,,,,,,,,,,,,,,,,,,,,,,,,,,,,,,,,,,,,,,,,,,,,,,,,,,,,,,,,,,,,,,,,
,,,,,,61337dde21439c131ffb37fe,62c539fd72c1aae8268437f1,2022-07-06_09h30.29.611,Colour_Asymmetry_Pilot,2022.1.3,Win32,59.1401029,62c50e9c1127f2cd403a315f,0,124,124,109,1,threefour,,,,,,,,,,,,,,,,,,,,,,,,,,,,,,,,,,,,,,,,,,,,,,,,,,,,,,,,,,,,,,,,,,,,,,,,,,,,,,,,,,,,,,,,,,,,,,,,,,,,,,,,,,,,,,,,,,,,,,,,,,,,,,,,,,,,,,,,,,,,,,,,,,,,,,,,,,,,,
,,,,,,61337dde21439c131ffb37fe,62c539fd72c1aae8268437f1,2022-07-06_09h30.29.611,Colour_Asymmetry_Pilot,2022.1.3,Win32,59.1401029,62c50e9c1127f2cd403a315f,0,125,125,142,1,fourtwo,,,,,,,,,,,,,,,,,,,,,,,,,,,,,,,,,,,,,,,,,,,,,,,,,,,,,,,,,,,,,,,,,,,,,,,,,,,,,,,,,,,,,,,,,,,,,,,,,,,,,,,,,,,,,,,,,,,,,,,,,,,,,,,,,,,,,,,,,,,,,,,,,,,,,,,,,,,,,
,,,,,,61337dde21439c131ffb37fe,62c539fd72c1aae8268437f1,2022-07-06_09h30.29.611,Colour_Asymmetry_Pilot,2022.1.3,Win32,59.1401029,62c50e9c1127f2cd403a315f,0,126,126,2,1,twoone,,,,,,,,,,,,,,,,,,,,,,,,,,,,,,,,,,,,,,,,,,,,,,,,,,,,,,,,,,,,,,,,,,,,,,,,,,,,,,,,,,,,,,,,,,,,,,,,,,,,,,,,,,,,,,,,,,,,,,,,,,,,,,,,,,,,,,,,,,,,,,,,,,,,,,,,,,,,,
,,,,,,61337dde21439c131ffb37fe,62c539fd72c1aae8268437f1,2022-07-06_09h30.29.611,Colour_Asymmetry_Pilot,2022.1.3,Win32,59.1401029,62c50e9c1127f2cd403a315f,0,127,127,37,1,threefour,,,,,,,,,,,,,,,,,,,,,,,,,,,,,,,,,,,,,,,,,,,,,,,,,,,,,,,,,,,,,,,,,,,,,,,,,,,,,,,,,,,,,,,,,,,,,,,,,,,,,,,,,,,,,,,,,,,,,,,,,,,,,,,,,,,,,,,,,,,,,,,,,,,,,,,,,,,,,
,,,,,,61337dde21439c131ffb37fe,62c539fd72c1aae8268437f1,2022-07-06_09h30.29.611,Colour_Asymmetry_Pilot,2022.1.3,Win32,59.1401029,62c50e9c1127f2cd403a315f,0,128,128,120,1,onetwo,,,,,,,,,,,,,,,,,,,,,,,,,,,,,,,,,,,,,,,,,,,,,,,,,,,,,,,,,,,,,,,,,,,,,,,,,,,,,,,,,,,,,,,,,,,,,,,,,,,,,,,,,,,,,,,,,,,,,,,,,,,,,,,,,,,,,,,,,,,,,,,,,,,,,,,,,,,,,
,,,,,,61337dde21439c131ffb37fe,62c539fd72c1aae8268437f1,2022-07-06_09h30.29.611,Colour_Asymmetry_Pilot,2022.1.3,Win32,59.1401029,62c50e9c1127f2cd403a315f,0,129,129,103,1,fourthree,,,,,,,,,,,,,,,,,,,,,,,,,,,,,,,,,,,,,,,,,,,,,,,,,,,,,,,,,,,,,,,,,,,,,,,,,,,,,,,,,,,,,,,,,,,,,,,,,,,,,,,,,,,,,,,,,,,,,,,,,,,,,,,,,,,,,,,,,,,,,,,,,,,,,,,,,,,,,
,,,,,,61337dde21439c131ffb37fe,62c539fd72c1aae8268437f1,2022-07-06_09h30.29.611,Colour_Asymmetry_Pilot,2022.1.3,Win32,59.1401029,62c50e9c1127f2cd403a315f,0,130,130,76,1,threeone,,,,,,,,,,,,,,,,,,,,,,,,,,,,,,,,,,,,,,,,,,,,,,,,,,,,,,,,,,,,,,,,,,,,,,,,,,,,,,,,,,,,,,,,,,,,,,,,,,,,,,,,,,,,,,,,,,,,,,,,,,,,,,,,,,,,,,,,,,,,,,,,,,,,,,,,,,,,,
,,,,,,61337dde21439c131ffb37fe,62c539fd72c1aae8268437f1,2022-07-06_09h30.29.611,Colour_Asymmetry_Pilot,2022.1.3,Win32,59.1401029,62c50e9c1127f2cd403a315f,0,131,131,86,1,fourtwo,,,,,,,,,,,,,,,,,,,,,,,,,,,,,,,,,,,,,,,,,,,,,,,,,,,,,,,,,,,,,,,,,,,,,,,,,,,,,,,,,,,,,,,,,,,,,,,,,,,,,,,,,,,,,,,,,,,,,,,,,,,,,,,,,,,,,,,,,,,,,,,,,,,,,,,,,,,,,
,,,,,,61337dde21439c131ffb37fe,62c539fd72c1aae8268437f1,2022-07-06_09h30.29.611,Colour_Asymmetry_Pilot,2022.1.3,Win32,59.1401029,62c50e9c1127f2cd403a315f,0,132,132,93,1,threefour,,,,,,,,,,,,,,,,,,,,,,,,,,,,,,,,,,,,,,,,,,,,,,,,,,,,,,,,,,,,,,,,,,,,,,,,,,,,,,,,,,,,,,,,,,,,,,,,,,,,,,,,,,,,,,,,,,,,,,,,,,,,,,,,,,,,,,,,,,,,,,,,,,,,,,,,,,,,,
,,,,,,61337dde21439c131ffb37fe,62c539fd72c1aae8268437f1,2022-07-06_09h30.29.611,Colour_Asymmetry_Pilot,2022.1.3,Win32,59.1401029,62c50e9c1127f2cd403a315f,0,133,133,149,1,threefour,,,,,,,,,,,,,,,,,,,,,,,,,,,,,,,,,,,,,,,,,,,,,,,,,,,,,,,,,,,,,,,,,,,,,,,,,,,,,,,,,,,,,,,,,,,,,,,,,,,,,,,,,,,,,,,,,,,,,,,,,,,,,,,,,,,,,,,,,,,,,,,,,,,,,,,,,,,,,
,,,,,,61337dde21439c131ffb37fe,62c539fd72c1aae8268437f1,2022-07-06_09h30.29.611,Colour_Asymmetry_Pilot,2022.1.3,Win32,59.1401029,62c50e9c1127f2cd403a315f,0,134,134,61,1,threefour,,,,,,,,,,,,,,,,,,,,,,,,,,,,,,,,,,,,,,,,,,,,,,,,,,,,,,,,,,,,,,,,,,,,,,,,,,,,,,,,,,,,,,,,,,,,,,,,,,,,,,,,,,,,,,,,,,,,,,,,,,,,,,,,,,,,,,,,,,,,,,,,,,,,,,,,,,,,,
,,,,,,61337dde21439c131ffb37fe,62c539fd72c1aae8268437f1,2022-07-06_09h30.29.611,Colour_Asymmetry_Pilot,2022.1.3,Win32,59.1401029,62c50e9c1127f2cd403a315f,0,135,135,65,1,onethree,,,,,,,,,,,,,,,,,,,,,,,,,,,,,,,,,,,,,,,,,,,,,,,,,,,,,,,,,,,,,,,,,,,,,,,,,,,,,,,,,,,,,,,,,,,,,,,,,,,,,,,,,,,,,,,,,,,,,,,,,,,,,,,,,,,,,,,,,,,,,,,,,,,,,,,,,,,,,
,,,,,,61337dde21439c131ffb37fe,62c539fd72c1aae8268437f1,2022-07-06_09h30.29.611,Colour_Asymmetry_Pilot,2022.1.3,Win32,59.1401029,62c50e9c1127f2cd403a315f,0,136,136,147,1,twofour,,,,,,,,,,,,,,,,,,,,,,,,,,,,,,,,,,,,,,,,,,,,,,,,,,,,,,,,,,,,,,,,,,,,,,,,,,,,,,,,,,,,,,,,,,,,,,,,,,,,,,,,,,,,,,,,,,,,,,,,,,,,,,,,,,,,,,,,,,,,,,,,,,,,,,,,,,,,,
,,,,,,61337dde21439c131ffb37fe,62c539fd72c1aae8268437f1,2022-07-06_09h30.29.611,Colour_Asymmetry_Pilot,2022.1.3,Win32,59.1401029,62c50e9c1127f2cd403a315f,0,137,137,129,1,onethree,,,,,,,,,,,,,,,,,,,,,,,,,,,,,,,,,,,,,,,,,,,,,,,,,,,,,,,,,,,,,,,,,,,,,,,,,,,,,,,,,,,,,,,,,,,,,,,,,,,,,,,,,,,,,,,,,,,,,,,,,,,,,,,,,,,,,,,,,,,,,,,,,,,,,,,,,,,,,
,,,,,,61337dde21439c131ffb37fe,62c539fd72c1aae8268437f1,2022-07-06_09h30.29.611,Colour_Asymmetry_Pilot,2022.1.3,Win32,59.1401029,62c50e9c1127f2cd403a315f,0,138,138,51,1,twofour,,,,,,,,,,,,,,,,,,,,,,,,,,,,,,,,,,,,,,,,,,,,,,,,,,,,,,,,,,,,,,,,,,,,,,,,,,,,,,,,,,,,,,,,,,,,,,,,,,,,,,,,,,,,,,,,,,,,,,,,,,,,,,,,,,,,,,,,,,,,,,,,,,,,,,,,,,,,,
,,,,,,61337dde21439c131ffb37fe,62c539fd72c1aae8268437f1,2022-07-06_09h30.29.611,Colour_Asymmetry_Pilot,2022.1.3,Win32,59.1401029,62c50e9c1127f2cd403a315f,0,139,139,130,1,twoone,,,,,,,,,,,,,,,,,,,,,,,,,,,,,,,,,,,,,,,,,,,,,,,,,,,,,,,,,,,,,,,,,,,,,,,,,,,,,,,,,,,,,,,,,,,,,,,,,,,,,,,,,,,,,,,,,,,,,,,,,,,,,,,,,,,,,,,,,,,,,,,,,,,,,,,,,,,,,
,,,,,,61337dde21439c131ffb37fe,62c539fd72c1aae8268437f1,2022-07-06_09h30.29.611,Colour_Asymmetry_Pilot,2022.1.3,Win32,59.1401029,62c50e9c1127f2cd403a315f,0,140,140,62,1,fourtwo,,,,,,,,,,,,,,,,,,,,,,,,,,,,,,,,,,,,,,,,,,,,,,,,,,,,,,,,,,,,,,,,,,,,,,,,,,,,,,,,,,,,,,,,,,,,,,,,,,,,,,,,,,,,,,,,,,,,,,,,,,,,,,,,,,,,,,,,,,,,,,,,,,,,,,,,,,,,,
,,,,,,61337dde21439c131ffb37fe,62c539fd72c1aae8268437f1,2022-07-06_09h30.29.611,Colour_Asymmetry_Pilot,2022.1.3,Win32,59.1401029,62c50e9c1127f2cd403a315f,0,141,141,148,1,threeone,,,,,,,,,,,,,,,,,,,,,,,,,,,,,,,,,,,,,,,,,,,,,,,,,,,,,,,,,,,,,,,,,,,,,,,,,,,,,,,,,,,,,,,,,,,,,,,,,,,,,,,,,,,,,,,,,,,,,,,,,,,,,,,,,,,,,,,,,,,,,,,,,,,,,,,,,,,,,
,,,,,,61337dde21439c131ffb37fe,62c539fd72c1aae8268437f1,2022-07-06_09h30.29.611,Colour_Asymmetry_Pilot,2022.1.3,Win32,59.1401029,62c50e9c1127f2cd403a315f,0,142,142,25,1,onethree,,,,,,,,,,,,,,,,,,,,,,,,,,,,,,,,,,,,,,,,,,,,,,,,,,,,,,,,,,,,,,,,,,,,,,,,,,,,,,,,,,,,,,,,,,,,,,,,,,,,,,,,,,,,,,,,,,,,,,,,,,,,,,,,,,,,,,,,,,,,,,,,,,,,,,,,,,,,,
,,,,,,61337dde21439c131ffb37fe,62c539fd72c1aae8268437f1,2022-07-06_09h30.29.611,Colour_Asymmetry_Pilot,2022.1.3,Win32,59.1401029,62c50e9c1127f2cd403a315f,0,143,143,150,1,fourtwo,,,,,,,,,,,,,,,,,,,,,,,,,,,,,,,,,,,,,,,,,,,,,,,,,,,,,,,,,,,,,,,,,,,,,,,,,,,,,,,,,,,,,,,,,,,,,,,,,,,,,,,,,,,,,,,,,,,,,,,,,,,,,,,,,,,,,,,,,,,,,,,,,,,,,,,,,,,,,
,,,,,,61337dde21439c131ffb37fe,62c539fd72c1aae8268437f1,2022-07-06_09h30.29.611,Colour_Asymmetry_Pilot,2022.1.3,Win32,59.1401029,62c50e9c1127f2cd403a315f,0,144,144,13,1,threefour,,,,,,,,,,,,,,,,,,,,,,,,,,,,,,,,,,,,,,,,,,,,,,,,,,,,,,,,,,,,,,,,,,,,,,,,,,,,,,,,,,,,,,,,,,,,,,,,,,,,,,,,,,,,,,,,,,,,,,,,,,,,,,,,,,,,,,,,,,,,,,,,,,,,,,,,,,,,,
,,,,,,61337dde21439c131ffb37fe,62c539fd72c1aae8268437f1,2022-07-06_09h30.29.611,Colour_Asymmetry_Pilot,2022.1.3,Win32,59.1401029,62c50e9c1127f2cd403a315f,0,145,145,20,1,threeone,,,,,,,,,,,,,,,,,,,,,,,,,,,,,,,,,,,,,,,,,,,,,,,,,,,,,,,,,,,,,,,,,,,,,,,,,,,,,,,,,,,,,,,,,,,,,,,,,,,,,,,,,,,,,,,,,,,,,,,,,,,,,,,,,,,,,,,,,,,,,,,,,,,,,,,,,,,,,
,,,,,,61337dde21439c131ffb37fe,62c539fd72c1aae8268437f1,2022-07-06_09h30.29.611,Colour_Asymmetry_Pilot,2022.1.3,Win32,59.1401029,62c50e9c1127f2cd403a315f,0,146,146,133,1,threefour,,,,,,,,,,,,,,,,,,,,,,,,,,,,,,,,,,,,,,,,,,,,,,,,,,,,,,,,,,,,,,,,,,,,,,,,,,,,,,,,,,,,,,,,,,,,,,,,,,,,,,,,,,,,,,,,,,,,,,,,,,,,,,,,,,,,,,,,,,,,,,,,,,,,,,,,,,,,,
,,,,,,61337dde21439c131ffb37fe,62c539fd72c1aae8268437f1,2022-07-06_09h30.29.611,Colour_Asymmetry_Pilot,2022.1.3,Win32,59.1401029,62c50e9c1127f2cd403a315f,0,147,147,115,1,twofour,,,,,,,,,,,,,,,,,,,,,,,,,,,,,,,,,,,,,,,,,,,,,,,,,,,,,,,,,,,,,,,,,,,,,,,,,,,,,,,,,,,,,,,,,,,,,,,,,,,,,,,,,,,,,,,,,,,,,,,,,,,,,,,,,,,,,,,,,,,,,,,,,,,,,,,,,,,,,
,,,,,,61337dde21439c131ffb37fe,62c539fd72c1aae8268437f1,2022-07-06_09h30.29.611,Colour_Asymmetry_Pilot,2022.1.3,Win32,59.1401029,62c50e9c1127f2cd403a315f,0,148,148,6,1,fourtwo,,,,,,,,,,,,,,,,,,,,,,,,,,,,,,,,,,,,,,,,,,,,,,,,,,,,,,,,,,,,,,,,,,,,,,,,,,,,,,,,,,,,,,,,,,,,,,,,,,,,,,,,,,,,,,,,,,,,,,,,,,,,,,,,,,,,,,,,,,,,,,,,,,,,,,,,,,,,,
,,,,,,61337dde21439c131ffb37fe,62c539fd72c1aae8268437f1,2022-07-06_09h30.29.611,Colour_Asymmetry_Pilot,2022.1.3,Win32,59.1401029,62c50e9c1127f2cd403a315f,0,149,149,100,1,threeone,,,,,,,,,,,,,,,,,,,,,,,,,,,,,,,,,,,,,,,,,,,,,,,,,,,,,,,,,,,,,,,,,,,,,,,,,,,,,,,,,,,,,,,,,,,,,,,,,,,,,,,,,,,,,,,,,,,,,,,,,,,,,,,,,,,,,,,,,,,,,,,,,,,,,,,,,,,,,
,,,,,,61337dde21439c131ffb37fe,62c539fd72c1aae8268437f1,2022-07-06_09h30.29.611,Colour_Asymmetry_Pilot,2022.1.3,Win32,59.1401029,62c50e9c1127f2cd403a315f,0,150,150,7,1,fourthree,,,,,,,,,,,,,,,,,,,,,,,,,,,,,,,,,,,,,,,,,,,,,,,,,,,,,,,,,,,,,,,,,,,,,,,,,,,,,,,,,,,,,,,,,,,,,,,,,,,,,,,,,,,,,,,,,,,,,,,,,,,,,,,,,,,,,,,,,,,,,,,,,,,,,,,,,,,,,
,,,,,,61337dde21439c131ffb37fe,62c539fd72c1aae8268437f1,2022-07-06_09h30.29.611,Colour_Asymmetry_Pilot,2022.1.3,Win32,59.1401029,62c50e9c1127f2cd403a315f,0,151,151,146,1,twoone,,,,,,,,,,,,,,,,,,,,,,,,,,,,,,,,,,,,,,,,,,,,,,,,,,,,,,,,,,,,,,,,,,,,,,,,,,,,,,,,,,,,,,,,,,,,,,,,,,,,,,,,,,,,,,,,,,,,,,,,,,,,,,,,,,,,,,,,,,,,,,,,,,,,,,,,,,,,,
,,,,,,61337dde21439c131ffb37fe,62c539fd72c1aae8268437f1,2022-07-06_09h30.29.611,Colour_Asymmetry_Pilot,2022.1.3,Win32,59.1401029,62c50e9c1127f2cd403a315f,0,152,152,28,1,threeone,,,,,,,,,,,,,,,,,,,,,,,,,,,,,,,,,,,,,,,,,,,,,,,,,,,,,,,,,,,,,,,,,,,,,,,,,,,,,,,,,,,,,,,,,,,,,,,,,,,,,,,,,,,,,,,,,,,,,,,,,,,,,,,,,,,,,,,,,,,,,,,,,,,,,,,,,,,,,
,,,,,,61337dde21439c131ffb37fe,62c539fd72c1aae8268437f1,2022-07-06_09h30.29.611,Colour_Asymmetry_Pilot,2022.1.3,Win32,59.1401029,62c50e9c1127f2cd403a315f,0,153,153,8,1,onetwo,,,,,,,,,,,,,,,,,,,,,,,,,,,,,,,,,,,,,,,,,,,,,,,,,,,,,,,,,,,,,,,,,,,,,,,,,,,,,,,,,,,,,,,,,,,,,,,,,,,,,,,,,,,,,,,,,,,,,,,,,,,,,,,,,,,,,,,,,,,,,,,,,,,,,,,,,,,,,
,,,,,,61337dde21439c131ffb37fe,62c539fd72c1aae8268437f1,2022-07-06_09h30.29.611,Colour_Asymmetry_Pilot,2022.1.3,Win32,59.1401029,62c50e9c1127f2cd403a315f,0,154,154,106,1,twoone,,,,,,,,,,,,,,,,,,,,,,,,,,,,,,,,,,,,,,,,,,,,,,,,,,,,,,,,,,,,,,,,,,,,,,,,,,,,,,,,,,,,,,,,,,,,,,,,,,,,,,,,,,,,,,,,,,,,,,,,,,,,,,,,,,,,,,,,,,,,,,,,,,,,,,,,,,,,,
,,,,,,61337dde21439c131ffb37fe,62c539fd72c1aae8268437f1,2022-07-06_09h30.29.611,Colour_Asymmetry_Pilot,2022.1.3,Win32,59.1401029,62c50e9c1127f2cd403a315f,0,155,155,66,1,twoone,,,,,,,,,,,,,,,,,,,,,,,,,,,,,,,,,,,,,,,,,,,,,,,,,,,,,,,,,,,,,,,,,,,,,,,,,,,,,,,,,,,,,,,,,,,,,,,,,,,,,,,,,,,,,,,,,,,,,,,,,,,,,,,,,,,,,,,,,,,,,,,,,,,,,,,,,,,,,
,,,,,,61337dde21439c131ffb37fe,62c539fd72c1aae8268437f1,2022-07-06_09h30.29.611,Colour_Asymmetry_Pilot,2022.1.3,Win32,59.1401029,62c50e9c1127f2cd403a315f,0,156,156,43,1,twofour,,,,,,,,,,,,,,,,,,,,,,,,,,,,,,,,,,,,,,,,,,,,,,,,,,,,,,,,,,,,,,,,,,,,,,,,,,,,,,,,,,,,,,,,,,,,,,,,,,,,,,,,,,,,,,,,,,,,,,,,,,,,,,,,,,,,,,,,,,,,,,,,,,,,,,,,,,,,,
,,,,,,61337dde21439c131ffb37fe,62c539fd72c1aae8268437f1,2022-07-06_09h30.29.611,Colour_Asymmetry_Pilot,2022.1.3,Win32,59.1401029,62c50e9c1127f2cd403a315f,0,157,157,24,1,onetwo,,,,,,,,,,,,,,,,,,,,,,,,,,,,,,,,,,,,,,,,,,,,,,,,,,,,,,,,,,,,,,,,,,,,,,,,,,,,,,,,,,,,,,,,,,,,,,,,,,,,,,,,,,,,,,,,,,,,,,,,,,,,,,,,,,,,,,,,,,,,,,,,,,,,,,,,,,,,,
,,,,,,61337dde21439c131ffb37fe,62c539fd72c1aae8268437f1,2022-07-06_09h30.29.611,Colour_Asymmetry_Pilot,2022.1.3,Win32,59.1401029,62c50e9c1127f2cd403a315f,0,158,158,79,1,fourthree,,,,,,,,,,,,,,,,,,,,,,,,,,,,,,,,,,,,,,,,,,,,,,,,,,,,,,,,,,,,,,,,,,,,,,,,,,,,,,,,,,,,,,,,,,,,,,,,,,,,,,,,,,,,,,,,,,,,,,,,,,,,,,,,,,,,,,,,,,,,,,,,,,,,,,,,,,,,,
,,,,,,61337dde21439c131ffb37fe,62c539fd72c1aae8268437f1,2022-07-06_09h30.29.611,Colour_Asymmetry_Pilot,2022.1.3,Win32,59.1401029,62c50e9c1127f2cd403a315f,0,159,159,21,1,threefour,,,,,,,,,,,,,,,,,,,,,,,,,,,,,,,,,,,,,,,,,,,,,,,,,,,,,,,,,,,,,,,,,,,,,,,,,,,,,,,,,,,,,,,,,,,,,,,,,,,,,,,,,,,,,,,,,,,,,,,,,,,,,,,,,,,,,,,,,,,,,,,,,,,,,,,,,,,,,
,,,,,,61337dde21439c131ffb37fe,62c539fd72c1aae8268437f1,2022-07-06_09h30.29.611,Colour_Asymmetry_Pilot,2022.1.3,Win32,59.1401029,62c50e9c1127f2cd403a315f,0,160,160,49,1,onethree,,,,,,,,,,,,,,,,,,,,,,,,,,,,,,,,,,,,,,,,,,,,,,,,,,,,,,,,,,,,,,,,,,,,,,,,,,,,,,,,,,,,,,,,,,,,,,,,,,,,,,,,,,,,,,,,,,,,,,,,,,,,,,,,,,,,,,,,,,,,,,,,,,,,,,,,,,,,,
,,,,,,61337dde21439c131ffb37fe,62c539fd72c1aae8268437f1,2022-07-06_09h30.29.611,Colour_Asymmetry_Pilot,2022.1.3,Win32,59.1401029,62c50e9c1127f2cd403a315f,0,161,161,94,1,fourtwo,,,,,,,,,,,,,,,,,,,,,,,,,,,,,,,,,,,,,,,,,,,,,,,,,,,,,,,,,,,,,,,,,,,,,,,,,,,,,,,,,,,,,,,,,,,,,,,,,,,,,,,,,,,,,,,,,,,,,,,,,,,,,,,,,,,,,,,,,,,,,,,,,,,,,,,,,,,,,
,,,,,,61337dde21439c131ffb37fe,62c539fd72c1aae8268437f1,2022-07-06_09h30.29.611,Colour_Asymmetry_Pilot,2022.1.3,Win32,59.1401029,62c50e9c1127f2cd403a315f,,,,,,,space,8.9289,space,176.2851,space,45.2906,space,13.0883,space,3.9384,space,3.9889,"[0.7176,-0.906,-0.6864]",twoone,"[-0.26280000000000003,-0.4746,-0.2158]",4,7.7969,45.60003662,100,1,0,0,response1disk_5,0,-5.600006104,1,0,0,rectangle_8,100.7999878,-49.6000061,1,0,0,response3disk_7,5,2,-6.399963379,7.199981689,1,0,0,rectangle_4,0,0,0,0,1,,,,,,,,,,,,,,,,,,,,,,,,,,,,,,,,,,,,,,,,,,,,,,,,,,,,,,,,,,,,,,,,,,,,,,,,,,,,,,,,,,,,,,,,,,,,,,,,,,,,,,,,,,,,,
,,,,,,61337dde21439c131ffb37fe,62c539fd72c1aae8268437f1,2022-07-06_09h30.29.611,Colour_Asymmetry_Pilot,2022.1.3,Win32,59.1401029,62c50e9c1127f2cd403a315f,,,,,,,,,,,,,,,,,,,"[-0.45899999999999996,-0.3256,-0.9374]",onetwo,"[1,0.12939999999999996,-1]",-4,2.1127,-50.39996338,89.6000061,1,0,0,response7disk_5,-8.799987793,-4,1,0,0,rectangle_8,-8.799987793,-4,1,0,0,,,2,-8.799987793,-4,1,0,0,,1,0,1,0,1,,,,,,,,,,,,,,,,,,,,,,,,,,,,,,,,,,,,,,,,,,,,,,,,,,,,,,,,,,,,,,,,,,,,,,,,,,,,,,,,,,,,,,,,,,,,,,,,,,,,,,,,,,,,,
,,,,,,61337dde21439c131ffb37fe,62c539fd72c1aae8268437f1,2022-07-06_09h30.29.611,Colour_Asymmetry_Pilot,2022.1.3,Win32,59.1401029,62c50e9c1127f2cd403a315f,,,,,,,,,,,,,,,,,,,"[0.6547999999999998,-0.043199999999999905,-0.011800000000000033]",fourthree,"[-0.9766,-0.6472,0.07440000000000002]",-4,1.1817,-45.59997559,97.6000061,1,0,0,response7disk_5,-0.799987793,2.399993896,1,0,0,rectangle_8,-0.799987793,2.399993896,1,0,0,,,2,-0.799987793,2.399993896,1,0,0,,2,0,2,0,1,,,,,,,,,,,,,,,,,,,,,,,,,,,,,,,,,,,,,,,,,,,,,,,,,,,,,,,,,,,,,,,,,,,,,,,,,,,,,,,,,,,,,,,,,,,,,,,,,,,,,,,,,,,,,
,,,,,,61337dde21439c131ffb37fe,62c539fd72c1aae8268437f1,2022-07-06_09h30.29.611,Colour_Asymmetry_Pilot,2022.1.3,Win32,59.1401029,62c50e9c1127f2cd403a315f,,,,,,,,,,,,,,,,,,,"[-0.48240000000000005,0.3175999999999999,0.2156]",threefour,"[-0.06680000000000008,-0.45100000000000007,-0.906]",-4,0.8149,-36.79998779,101.6000061,1,0,0,response7disk_5,5.600036621,-3.200012207,1,0,0,rectangle_8,5.600036621,-3.200012207,1,0,0,,,2,5.600036621,-3.200012207,1,0,0,,3,0,3,0,1,,,,,,,,,,,,,,,,,,,,,,,,,,,,,,,,,,,,,,,,,,,,,,,,,,,,,,,,,,,,,,,,,,,,,,,,,,,,,,,,,,,,,,,,,,,,,,,,,,,,,,,,,,,,,
,,,,,,61337dde21439c131ffb37fe,62c539fd72c1aae8268437f1,2022-07-06_09h30.29.611,Colour_Asymmetry_Pilot,2022.1.3,Win32,59.1401029,62c50e9c1127f2cd403a315f,,,,,,,,,,,,,,,,,,,"[-0.9766,-0.34920000000000007,0.2156]",threefour,"[0.2862,0.7802,0.3568]",-4,1.2972,-46.39996338,80,1,0,0,response7disk_5,2.400024414,-6.399993896,1,0,0,rectangle_8,2.400024414,-6.399993896,1,0,0,,,2,2.400024414,-6.399993896,1,0,0,,4,0,4,0,1,,,,,,,,,,,,,,,,,,,,,,,,,,,,,,,,,,,,,,,,,,,,,,,,,,,,,,,,,,,,,,,,,,,,,,,,,,,,,,,,,,,,,,,,,,,,,,,,,,,,,,,,,,,,,
,,,,,,61337dde21439c131ffb37fe,62c539fd72c1aae8268437f1,2022-07-06_09h30.29.611,Colour_Asymmetry_Pilot,2022.1.3,Win32,59.1401029,62c50e9c1127f2cd403a315f,,,,,,,,,,,,,,,,,,,"[-0.26280000000000003,-0.2158,-0.3256]",fourtwo,"[-0.48240000000000005,0.3175999999999999,0.2156]",-2,5.0091,-100,-67.20001221,1,0,0,response5disk_5,1.600036621,-5.600006104,1,0,0,rectangle_8,106.4000244,-56,1,0,0,response3disk_7,5,2,14.40002441,-0.800018311,1,0,0,rectangle_4,5,0,5,0,1,,,,,,,,,,,,,,,,,,,,,,,,,,,,,,,,,,,,,,,,,,,,,,,,,,,,,,,,,,,,,,,,,,,,,,,,,,,,,,,,,,,,,,,,,,,,,,,,,,,,,,,,,,,,,
,,,,,,61337dde21439c131ffb37fe,62c539fd72c1aae8268437f1,2022-07-06_09h30.29.611,Colour_Asymmetry_Pilot,2022.1.3,Win32,59.1401029,62c50e9c1127f2cd403a315f,,,,,,,,,,,,,,,,,,,"[-0.9766,-0.6472,0.07440000000000002]",threefour,"[0.30180000000000007,-0.7884,-0.9844]",-4,1.5462,-68,86.3999939,1,0,0,response7disk_5,-4.799987793,-4.800018311,1,0,0,rectangle_8,-4.799987793,-4.800018311,1,0,0,,,2,-4.799987793,-4.800018311,1,0,0,,6,0,6,0,1,,,,,,,,,,,,,,,,,,,,,,,,,,,,,,,,,,,,,,,,,,,,,,,,,,,,,,,,,,,,,,,,,,,,,,,,,,,,,,,,,,,,,,,,,,,,,,,,,,,,,,,,,,,,,
,,,,,,61337dde21439c131ffb37fe,62c539fd72c1aae8268437f1,2022-07-06_09h30.29.611,Colour_Asymmetry_Pilot,2022.1.3,Win32,59.1401029,62c50e9c1127f2cd403a315f,,,,,,,,,,,,,,,,,,,,fourthree,,-2,0.9824,,,,,,,,,,,,,,,,,,,,,,,,,,,,,,,,space,2.6607,"[-0.26280000000000003,-0.2158,-0.3256]","[-0.4668,-0.8746,-0.2942]",-76.79998779,-52,1,0,0,response5disk,4,-4,1,0,0,rectangle,4,-4,1,0,0,,1,0.0023,0,4,-4,1,0,0,0,0,0,108,1,27,second,,,,,,,,,,,,,,,,,,,,,,,,,,,,,,,,,,,,,,,,,,,,,,,,,,,,,,,,,,,,,,,,,,,,,,,,
,,,,,,61337dde21439c131ffb37fe,62c539fd72c1aae8268437f1,2022-07-06_09h30.29.611,Colour_Asymmetry_Pilot,2022.1.3,Win32,59.1401029,62c50e9c1127f2cd403a315f,,,,,,,,,,,,,,,,,,,,onetwo,,4,1.1145,,,,,,,,,,,,,,,,,,,,,,,,,,,,,,,,,,"[0.5528,0.7409999999999999,-0.71]","[0.7018,0.7802,-0.16079999999999994]",56,94.3999939,1,0,0,response1disk,7.200012207,-2.399993896,1,0,0,rectangle,7.200012207,-2.399993896,1,0,0,,1,0.0003,0,7.200012207,-2.399993896,1,0,0,0,1,1,115,1,34,second,,,,,,,,,,,,,,,,,,,,,,,,,,,,,,,,,,,,,,,,,,,,,,,,,,,,,,,,,,,,,,,,,,,,,,,,
,,,,,,61337dde21439c131ffb37fe,62c539fd72c1aae8268437f1,2022-07-06_09h30.29.611,Colour_Asymmetry_Pilot,2022.1.3,Win32,59.1401029,62c50e9c1127f2cd403a315f,,,,,,,,,,,,,,,,,,,,onetwo,,1,0.9832,,,,,,,,,,,,,,,,,,,,,,,,,,,,,,,,,,"[0.23920000000000008,0.2704,0.16060000000000008]","[-0.6,0.16860000000000008,0.44300000000000006]",33.60003662,-76,1,0,0,response3disk,4,-4,1,0,0,rectangle,4,-4,1,0,0,,1,0.0002,0,4,-4,1,0,0,0,2,2,79,1,79,first,,,,,,,,,,,,,,,,,,,,,,,,,,,,,,,,,,,,,,,,,,,,,,,,,,,,,,,,,,,,,,,,,,,,,,,,
,,,,,,61337dde21439c131ffb37fe,62c539fd72c1aae8268437f1,2022-07-06_09h30.29.611,Colour_Asymmetry_Pilot,2022.1.3,Win32,59.1401029,62c50e9c1127f2cd403a315f,,,,,,,,,,,,,,,,,,,,twofour,,-4,0.8147,,,,,,,,,,,,,,,,,,,,,,,,,,,,,,,,,,"[0.19199999999999995,0.18419999999999992,0.5136000000000001]","[0.22340000000000004,-0.9296,-0.7884]",-55.20001221,83.19998169,1,0,0,response7disk,0,-11.20001221,1,0,0,rectangle,0,-11.20001221,1,0,0,,2,0.0036,0,0,-11.20001221,1,0,0,0,3,3,111,1,30,second,,,,,,,,,,,,,,,,,,,,,,,,,,,,,,,,,,,,,,,,,,,,,,,,,,,,,,,,,,,,,,,,,,,,,,,,
,,,,,,61337dde21439c131ffb37fe,62c539fd72c1aae8268437f1,2022-07-06_09h30.29.611,Colour_Asymmetry_Pilot,2022.1.3,Win32,59.1401029,62c50e9c1127f2cd403a315f,,,,,,,,,,,,,,,,,,,,threeone,,2,0.8806,,,,,,,,,,,,,,,,,,,,,,,,,,,,,,,,,,"[0.11359999999999992,0.6312,0.5213999999999999]","[-0.10599999999999998,-0.10599999999999998,0.5841999999999998]",76.79998779,-47.20001221,1,0,0,response3disk,-8.799987793,8,1,0,0,rectangle,-8.799987793,8,1,0,0,,2,0.0003,0,-8.799987793,8,1,0,0,0,4,4,154,1,73,second,,,,,,,,,,,,,,,,,,,,,,,,,,,,,,,,,,,,,,,,,,,,,,,,,,,,,,,,,,,,,,,,,,,,,,,,
,,,,,,61337dde21439c131ffb37fe,62c539fd72c1aae8268437f1,2022-07-06_09h30.29.611,Colour_Asymmetry_Pilot,2022.1.3,Win32,59.1401029,62c50e9c1127f2cd403a315f,,,,,,,,,,,,,,,,,,,,twofour,,-4,0.9645,,,,,,,,,,,,,,,,,,,,,,,,,,,,,,,,,,"[0.37240000000000006,0.4980000000000002,-0.2864]","[-0.26280000000000003,-0.4746,-0.2158]",-63.20001221,100,1,0,0,response7disk,-4.799987793,-1.600006104,1,0,0,rectangle,-4.799987793,-1.600006104,1,0,0,,1,0.0025,0,-4.799987793,-1.600006104,1,0,0,0,5,5,101,1,20,second,,,,,,,,,,,,,,,,,,,,,,,,,,,,,,,,,,,,,,,,,,,,,,,,,,,,,,,,,,,,,,,,,,,,,,,,
,,,,,,61337dde21439c131ffb37fe,62c539fd72c1aae8268437f1,2022-07-06_09h30.29.611,Colour_Asymmetry_Pilot,2022.1.3,Win32,59.1401029,62c50e9c1127f2cd403a315f,,,,,,,,,,,,,,,,,,,,fourthree,,-4,0.6316,,,,,,,,,,,,,,,,,,,,,,,,,,,,,,,,,,"[-0.26280000000000003,-0.4746,-0.2158]","[-0.45899999999999996,-0.3256,-0.9374]",-53.59997559,84.79998779,1,0,0,response7disk,-4,-3.200012207,1,0,0,rectangle,-4,-3.200012207,1,0,0,,1,0.0001,0,-4,-3.200012207,1,0,0,0,6,6,38,1,38,first,,,,,,,,,,,,,,,,,,,,,,,,,,,,,,,,,,,,,,,,,,,,,,,,,,,,,,,,,,,,,,,,,,,,,,,,
,,,,,,61337dde21439c131ffb37fe,62c539fd72c1aae8268437f1,2022-07-06_09h30.29.611,Colour_Asymmetry_Pilot,2022.1.3,Win32,59.1401029,62c50e9c1127f2cd403a315f,,,,,,,,,,,,,,,,,,,,onethree,,2,1.4138,,,,,,,,,,,,,,,,,,,,,,,,,,,,,,,,,,"[-0.2942,-0.24719999999999998,-0.357]","[0.2862,0.7802,0.3568]",96,-57.6000061,1,0,0,response3disk,-0.799987793,-2.399993896,1,0,0,rectangle,-0.799987793,-2.399993896,1,0,0,,2,0.0025,0,-0.799987793,-2.399993896,1,0,0,0,7,7,61,1,61,first,,,,,,,,,,,,,,,,,,,,,,,,,,,,,,,,,,,,,,,,,,,,,,,,,,,,,,,,,,,,,,,,,,,,,,,,
,,,,,,61337dde21439c131ffb37fe,62c539fd72c1aae8268437f1,2022-07-06_09h30.29.611,Colour_Asymmetry_Pilot,2022.1.3,Win32,59.1401029,62c50e9c1127f2cd403a315f,,,,,,,,,,,,,,,,,,,,fourthree,,-1,1.0474,,,,,,,,,,,,,,,,,,,,,,,,,,,,,,,,,,"[0.0351999999999999,0.41159999999999997,0.0038000000000000256]","[-0.09019999999999995,0.44300000000000006,0.5371999999999999]",-29.59997559,-107.2000122,1,0,0,response5disk,4,12.79998779,1,0,0,rectangle,4,12.79998779,1,0,0,,1,0.0029,0,4,12.79998779,1,0,0,0,8,8,22,1,22,first,,,,,,,,,,,,,,,,,,,,,,,,,,,,,,,,,,,,,,,,,,,,,,,,,,,,,,,,,,,,,,,,,,,,,,,,
,,,,,,61337dde21439c131ffb37fe,62c539fd72c1aae8268437f1,2022-07-06_09h30.29.611,Colour_Asymmetry_Pilot,2022.1.3,Win32,59.1401029,62c50e9c1127f2cd403a315f,,,,,,,,,,,,,,,,,,,,threefour,,-4,0.7813,,,,,,,,,,,,,,,,,,,,,,,,,,,,,,,,,,"[-0.9766,-0.34920000000000007,0.2156]","[0.04299999999999993,0.16060000000000008,-0.6628000000000001]",-52,81.6000061,1,0,0,response7disk,8,1.600006104,1,0,0,rectangle,76,-39.20001221,1,0,0,2,2,1.841,1,-4,0.799987793,1,0,0,0,9,9,76,1,76,first,response3disk_3,rectangle,,,,,,,,,,,,,,,,,,,,,,,,,,,,,,,,,,,,,,,,,,,,,,,,,,,,,,,,,,,,,,,,,,,,,,
,,,,,,61337dde21439c131ffb37fe,62c539fd72c1aae8268437f1,2022-07-06_09h30.29.611,Colour_Asymmetry_Pilot,2022.1.3,Win32,59.1401029,62c50e9c1127f2cd403a315f,,,,,,,,,,,,,,,,,,,,fourtwo,,1,0.6483,,,,,,,,,,,,,,,,,,,,,,,,,,,,,,,,,,"[-0.7412000000000001,-0.08239999999999992,-0.6864]","[0.2784,-0.31000000000000005,-0.5452]",44,-120,1,0,0,response3disk,-3.200012207,-4,1,0,0,rectangle,37.60003662,-85.60003662,1,0,0,1,1,2.8446,1,2.400024414,1.600006104,1,0,0,0,10,10,11,1,11,first,response3disk_3,rectangle,,,,,,,,,,,,,,,,,,,,,,,,,,,,,,,,,,,,,,,,,,,,,,,,,,,,,,,,,,,,,,,,,,,,,,
,,,,,,61337dde21439c131ffb37fe,62c539fd72c1aae8268437f1,2022-07-06_09h30.29.611,Colour_Asymmetry_Pilot,2022.1.3,Win32,59.1401029,62c50e9c1127f2cd403a315f,,,,,,,,,,,,,,,,,,,,onetwo,,1,2.2804,,,,,,,,,,,,,,,,,,,,,,,,,,,,,,,,,,"[-0.09019999999999995,0.44300000000000006,0.5371999999999999]","[0.0351999999999999,0.41159999999999997,0.0038000000000000256]",54.40002441,-93.60003662,1,0,0,response3disk,0,-4,1,0,0,rectangle,0,-4,1,0,0,1,2,0.0034,0,0,-4,1,0,0,0,11,11,103,1,22,second,,,,,,,,,,,,,,,,,,,,,,,,,,,,,,,,,,,,,,,,,,,,,,,,,,,,,,,,,,,,,,,,,,,,,,,,
,,,,,,61337dde21439c131ffb37fe,62c539fd72c1aae8268437f1,2022-07-06_09h30.29.611,Colour_Asymmetry_Pilot,2022.1.3,Win32,59.1401029,62c50e9c1127f2cd403a315f,,,,,,,,,,,,,,,,,,,,onetwo,,-4,1.1818,,,,,,,,,,,,,,,,,,,,,,,,,,,,,,,,,,"[-0.011800000000000033,-0.906,-0.45100000000000007]","[-0.4746,-0.0354000000000001,0.5449999999999999]",-68.79998779,86.3999939,1,0,0,response7disk,-7.200012207,-2.399993896,1,0,0,rectangle,-7.200012207,-2.399993896,1,0,0,1,2,0.0002,0,-7.200012207,-2.399993896,1,0,0,0,12,12,40,1,40,first,,,,,,,,,,,,,,,,,,,,,,,,,,,,,,,,,,,,,,,,,,,,,,,,,,,,,,,,,,,,,,,,,,,,,,,,
,,,,,,61337dde21439c131ffb37fe,62c539fd72c1aae8268437f1,2022-07-06_09h30.29.611,Colour_Asymmetry_Pilot,2022.1.3,Win32,59.1401029,62c50e9c1127f2cd403a315f,,,,,,,,,,,,,,,,,,,,threeone,,-2,0.7149,,,,,,,,,,,,,,,,,,,,,,,,,,,,,,,,,,"[0.3568,-0.20799999999999996,-0.9844]","[-0.26280000000000003,-0.2158,-0.3256]",-97.59997559,-40,1,0,0,response5disk,2.400024414,-3.200012207,1,0,0,rectangle,2.400024414,-3.200012207,1,0,0,1,3,0.0029,0,2.400024414,-3.200012207,1,0,0,0,13,13,69,1,69,first,,,,,,,,,,,,,,,,,,,,,,,,,,,,,,,,,,,,,,,,,,,,,,,,,,,,,,,,,,,,,,,,,,,,,,,,
,,,,,,61337dde21439c131ffb37fe,62c539fd72c1aae8268437f1,2022-07-06_09h30.29.611,Colour_Asymmetry_Pilot,2022.1.3,Win32,59.1401029,62c50e9c1127f2cd403a315f,,,,,,,,,,,,,,,,,,,,twoone,,3,1.1643,,,,,,,,,,,,,,,,,,,,,,,,,,,,,,,,,,"[0.7176,-0.906,-0.6864]","[0.8115999999999999,-0.0040000000000000036,-0.09819999999999995]",97.60003662,55.19998169,1,0,0,response1disk,7.200012207,1.600006104,1,0,0,rectangle,7.200012207,1.600006104,1,0,0,1,2,0.0036,0,7.200012207,1.600006104,1,0,0,0,14,14,46,1,46,first,,,,,,,,,,,,,,,,,,,,,,,,,,,,,,,,,,,,,,,,,,,,,,,,,,,,,,,,,,,,,,,,,,,,,,,,
,,,,,,61337dde21439c131ffb37fe,62c539fd72c1aae8268437f1,2022-07-06_09h30.29.611,Colour_Asymmetry_Pilot,2022.1.3,Win32,59.1401029,62c50e9c1127f2cd403a315f,,,,,,,,,,,,,,,,,,,,threeone,,-2,0.615,,,,,,,,,,,,,,,,,,,,,,,,,,,,,,,,,,"[-0.011800000000000033,-0.906,-0.45100000000000007]","[0.04299999999999993,0.16060000000000008,-0.6628000000000001]",-60.79998779,-42.3999939,1,0,0,response5disk,0,-4,1,0,0,rectangle,0,-4,1,0,0,1,3,0.0024,0,0,-4,1,0,0,0,15,15,68,1,68,first,,,,,,,,,,,,,,,,,,,,,,,,,,,,,,,,,,,,,,,,,,,,,,,,,,,,,,,,,,,,,,,,,,,,,,,,
