trials.thisRepN,trials.thisTrialN,trials.thisN,trials.thisIndex,trials.ran,Colourcodes,participant,session,date,expName,psychopyVersion,OS,frameRate,study_id,trials_4.thisRepN,trials_4.thisTrialN,trials_4.thisN,trials_4.thisIndex,trials_4.ran,StimulusPos,key_resp.keys,key_resp.rt,key_resp_2.keys,key_resp_2.rt,key_resp_15.keys,key_resp_15.rt,key_resp_17.keys,key_resp_17.rt,key_resp_9.keys,key_resp_9.rt,key_resp_10.keys,key_resp_10.rt,Circle1_col,Ecc,Circle2_col,similarity,response_time,mouse_5.x,mouse_5.y,mouse_5.leftButton,mouse_5.midButton,mouse_5.rightButton,mouse_5.clicked_name,mouse_10.x,mouse_10.y,mouse_10.leftButton,mouse_10.midButton,mouse_10.rightButton,mouse_10.clicked_name,mouse_7.x,mouse_7.y,mouse_7.leftButton,mouse_7.midButton,mouse_7.rightButton,mouse_7.clicked_name,catchprac,catchnumberprac,mouse_6.x,mouse_6.y,mouse_6.leftButton,mouse_6.midButton,mouse_6.rightButton,mouse_6.clicked_name,duringprac.thisRepN,duringprac.thisTrialN,duringprac.thisN,duringprac.thisIndex,duringprac.ran,key_resp_22.keys,key_resp_22.rt,Circle1_colour,Circle2_colour,mouse.x,mouse.y,mouse.leftButton,mouse.midButton,mouse.rightButton,mouse.clicked_name,mouse_2.x,mouse_2.y,mouse_2.leftButton,mouse_2.midButton,mouse_2.rightButton,mouse_2.clicked_name,mouse_3.x,mouse_3.y,mouse_3.leftButton,mouse_3.midButton,mouse_3.rightButton,catchresponse,catchnumber,response_time_catch,Catch,mouse_11.x,mouse_11.y,mouse_11.leftButton,mouse_11.midButton,mouse_11.rightButton,trials_2.thisRepN,trials_2.thisTrialN,trials_2.thisN,trials_2.thisIndex,trials_2.ran,Colourpair,Temporder,mouse_3.clicked_name,mouse_11.clicked_name,trials_3.thisRepN,trials_3.thisTrialN,trials_3.thisN,trials_3.thisIndex,trials_3.ran,key_resp_instr_Ishi.keys,key_resp_instr_Ishi.rt,Ishi_trial_keyresp.keys,Ishi_textbox.text,Ishi_mouse.x,Ishi_mouse.y,Ishi_mouse.leftButton,Ishi_mouse.midButton,Ishi_mouse.rightButton,Ishi_mouse.clicked_name,Ishi_loop.thisRepN,Ishi_loop.thisTrialN,Ishi_loop.thisN,Ishi_loop.thisIndex,Ishi_loop.ran,imageaddress,textbox.text,mouse_4.x,mouse_4.y,mouse_4.leftButton,mouse_4.midButton,mouse_4.rightButton,mouse_4.clicked_name,textbox_2.text,mouse_8.x,mouse_8.y,mouse_8.leftButton,mouse_8.midButton,mouse_8.rightButton,mouse_8.clicked_name,textbox_3.text,mouse_9.x,mouse_9.y,mouse_9.leftButton,mouse_9.midButton,mouse_9.rightButton,mouse_9.clicked_name,textbox_4.text,mouse_12.x,mouse_12.y,mouse_12.leftButton,mouse_12.midButton,mouse_12.rightButton,mouse_12.clicked_name,textbox_5.text,mouse_13.x,mouse_13.y,mouse_13.leftButton,mouse_13.midButton,mouse_13.rightButton,mouse_13.clicked_name,textbox_6.text,mouse_14.x,mouse_14.y,mouse_14.leftButton,mouse_14.midButton,mouse_14.rightButton,mouse_14.clicked_name,textbox_7.text,mouse_15.x,mouse_15.y,mouse_15.leftButton,mouse_15.midButton,mouse_15.rightButton,mouse_15.clicked_name
0,0,0,26,1,,5de0e675a1a3fb13a6e351fc,62c539cac599ec119eba96d7,2022-07-06_10h29.26.485,Colour_Asymmetry_Pilot,2022.1.3,Win32,60.0528465,62c50e9c1127f2cd403a315f,,,,,,,,,,,,,,,,,,,,,,,,,,,,,,,,,,,,,,,,,,,,,,,,,,,,,,,,,,,,,,,,,,,,,,,,,,,,,,,,,,,,,,,,,,,,,,,,,,,,,,,,,,,,,,,,,,,,,,,,,,,,,,,,,,,,,,,,,,,,,,,,,,,,,,,,,,,,,,,,,,,
0,1,1,5,1,,5de0e675a1a3fb13a6e351fc,62c539cac599ec119eba96d7,2022-07-06_10h29.26.485,Colour_Asymmetry_Pilot,2022.1.3,Win32,60.0528465,62c50e9c1127f2cd403a315f,,,,,,,,,,,,,,,,,,,,,,,,,,,,,,,,,,,,,,,,,,,,,,,,,,,,,,,,,,,,,,,,,,,,,,,,,,,,,,,,,,,,,,,,,,,,,,,,,,,,,,,,,,,,,,,,,,,,,,,,,,,,,,,,,,,,,,,,,,,,,,,,,,,,,,,,,,,,,,,,,,,
0,2,2,23,1,,5de0e675a1a3fb13a6e351fc,62c539cac599ec119eba96d7,2022-07-06_10h29.26.485,Colour_Asymmetry_Pilot,2022.1.3,Win32,60.0528465,62c50e9c1127f2cd403a315f,,,,,,,,,,,,,,,,,,,,,,,,,,,,,,,,,,,,,,,,,,,,,,,,,,,,,,,,,,,,,,,,,,,,,,,,,,,,,,,,,,,,,,,,,,,,,,,,,,,,,,,,,,,,,,,,,,,,,,,,,,,,,,,,,,,,,,,,,,,,,,,,,,,,,,,,,,,,,,,,,,,
0,3,3,50,1,,5de0e675a1a3fb13a6e351fc,62c539cac599ec119eba96d7,2022-07-06_10h29.26.485,Colour_Asymmetry_Pilot,2022.1.3,Win32,60.0528465,62c50e9c1127f2cd403a315f,,,,,,,,,,,,,,,,,,,,,,,,,,,,,,,,,,,,,,,,,,,,,,,,,,,,,,,,,,,,,,,,,,,,,,,,,,,,,,,,,,,,,,,,,,,,,,,,,,,,,,,,,,,,,,,,,,,,,,,,,,,,,,,,,,,,,,,,,,,,,,,,,,,,,,,,,,,,,,,,,,,
0,4,4,21,1,,5de0e675a1a3fb13a6e351fc,62c539cac599ec119eba96d7,2022-07-06_10h29.26.485,Colour_Asymmetry_Pilot,2022.1.3,Win32,60.0528465,62c50e9c1127f2cd403a315f,,,,,,,,,,,,,,,,,,,,,,,,,,,,,,,,,,,,,,,,,,,,,,,,,,,,,,,,,,,,,,,,,,,,,,,,,,,,,,,,,,,,,,,,,,,,,,,,,,,,,,,,,,,,,,,,,,,,,,,,,,,,,,,,,,,,,,,,,,,,,,,,,,,,,,,,,,,,,,,,,,,
0,5,5,22,1,,5de0e675a1a3fb13a6e351fc,62c539cac599ec119eba96d7,2022-07-06_10h29.26.485,Colour_Asymmetry_Pilot,2022.1.3,Win32,60.0528465,62c50e9c1127f2cd403a315f,,,,,,,,,,,,,,,,,,,,,,,,,,,,,,,,,,,,,,,,,,,,,,,,,,,,,,,,,,,,,,,,,,,,,,,,,,,,,,,,,,,,,,,,,,,,,,,,,,,,,,,,,,,,,,,,,,,,,,,,,,,,,,,,,,,,,,,,,,,,,,,,,,,,,,,,,,,,,,,,,,,
0,6,6,10,1,,5de0e675a1a3fb13a6e351fc,62c539cac599ec119eba96d7,2022-07-06_10h29.26.485,Colour_Asymmetry_Pilot,2022.1.3,Win32,60.0528465,62c50e9c1127f2cd403a315f,,,,,,,,,,,,,,,,,,,,,,,,,,,,,,,,,,,,,,,,,,,,,,,,,,,,,,,,,,,,,,,,,,,,,,,,,,,,,,,,,,,,,,,,,,,,,,,,,,,,,,,,,,,,,,,,,,,,,,,,,,,,,,,,,,,,,,,,,,,,,,,,,,,,,,,,,,,,,,,,,,,
0,7,7,18,1,,5de0e675a1a3fb13a6e351fc,62c539cac599ec119eba96d7,2022-07-06_10h29.26.485,Colour_Asymmetry_Pilot,2022.1.3,Win32,60.0528465,62c50e9c1127f2cd403a315f,,,,,,,,,,,,,,,,,,,,,,,,,,,,,,,,,,,,,,,,,,,,,,,,,,,,,,,,,,,,,,,,,,,,,,,,,,,,,,,,,,,,,,,,,,,,,,,,,,,,,,,,,,,,,,,,,,,,,,,,,,,,,,,,,,,,,,,,,,,,,,,,,,,,,,,,,,,,,,,,,,,
0,8,8,61,1,,5de0e675a1a3fb13a6e351fc,62c539cac599ec119eba96d7,2022-07-06_10h29.26.485,Colour_Asymmetry_Pilot,2022.1.3,Win32,60.0528465,62c50e9c1127f2cd403a315f,,,,,,,,,,,,,,,,,,,,,,,,,,,,,,,,,,,,,,,,,,,,,,,,,,,,,,,,,,,,,,,,,,,,,,,,,,,,,,,,,,,,,,,,,,,,,,,,,,,,,,,,,,,,,,,,,,,,,,,,,,,,,,,,,,,,,,,,,,,,,,,,,,,,,,,,,,,,,,,,,,,
0,9,9,9,1,,5de0e675a1a3fb13a6e351fc,62c539cac599ec119eba96d7,2022-07-06_10h29.26.485,Colour_Asymmetry_Pilot,2022.1.3,Win32,60.0528465,62c50e9c1127f2cd403a315f,,,,,,,,,,,,,,,,,,,,,,,,,,,,,,,,,,,,,,,,,,,,,,,,,,,,,,,,,,,,,,,,,,,,,,,,,,,,,,,,,,,,,,,,,,,,,,,,,,,,,,,,,,,,,,,,,,,,,,,,,,,,,,,,,,,,,,,,,,,,,,,,,,,,,,,,,,,,,,,,,,,
0,10,10,20,1,,5de0e675a1a3fb13a6e351fc,62c539cac599ec119eba96d7,2022-07-06_10h29.26.485,Colour_Asymmetry_Pilot,2022.1.3,Win32,60.0528465,62c50e9c1127f2cd403a315f,,,,,,,,,,,,,,,,,,,,,,,,,,,,,,,,,,,,,,,,,,,,,,,,,,,,,,,,,,,,,,,,,,,,,,,,,,,,,,,,,,,,,,,,,,,,,,,,,,,,,,,,,,,,,,,,,,,,,,,,,,,,,,,,,,,,,,,,,,,,,,,,,,,,,,,,,,,,,,,,,,,
0,11,11,82,1,,5de0e675a1a3fb13a6e351fc,62c539cac599ec119eba96d7,2022-07-06_10h29.26.485,Colour_Asymmetry_Pilot,2022.1.3,Win32,60.0528465,62c50e9c1127f2cd403a315f,,,,,,,,,,,,,,,,,,,,,,,,,,,,,,,,,,,,,,,,,,,,,,,,,,,,,,,,,,,,,,,,,,,,,,,,,,,,,,,,,,,,,,,,,,,,,,,,,,,,,,,,,,,,,,,,,,,,,,,,,,,,,,,,,,,,,,,,,,,,,,,,,,,,,,,,,,,,,,,,,,,
0,12,12,51,1,,5de0e675a1a3fb13a6e351fc,62c539cac599ec119eba96d7,2022-07-06_10h29.26.485,Colour_Asymmetry_Pilot,2022.1.3,Win32,60.0528465,62c50e9c1127f2cd403a315f,,,,,,,,,,,,,,,,,,,,,,,,,,,,,,,,,,,,,,,,,,,,,,,,,,,,,,,,,,,,,,,,,,,,,,,,,,,,,,,,,,,,,,,,,,,,,,,,,,,,,,,,,,,,,,,,,,,,,,,,,,,,,,,,,,,,,,,,,,,,,,,,,,,,,,,,,,,,,,,,,,,
0,13,13,64,1,,5de0e675a1a3fb13a6e351fc,62c539cac599ec119eba96d7,2022-07-06_10h29.26.485,Colour_Asymmetry_Pilot,2022.1.3,Win32,60.0528465,62c50e9c1127f2cd403a315f,,,,,,,,,,,,,,,,,,,,,,,,,,,,,,,,,,,,,,,,,,,,,,,,,,,,,,,,,,,,,,,,,,,,,,,,,,,,,,,,,,,,,,,,,,,,,,,,,,,,,,,,,,,,,,,,,,,,,,,,,,,,,,,,,,,,,,,,,,,,,,,,,,,,,,,,,,,,,,,,,,,
0,14,14,53,1,,5de0e675a1a3fb13a6e351fc,62c539cac599ec119eba96d7,2022-07-06_10h29.26.485,Colour_Asymmetry_Pilot,2022.1.3,Win32,60.0528465,62c50e9c1127f2cd403a315f,,,,,,,,,,,,,,,,,,,,,,,,,,,,,,,,,,,,,,,,,,,,,,,,,,,,,,,,,,,,,,,,,,,,,,,,,,,,,,,,,,,,,,,,,,,,,,,,,,,,,,,,,,,,,,,,,,,,,,,,,,,,,,,,,,,,,,,,,,,,,,,,,,,,,,,,,,,,,,,,,,,
0,15,15,27,1,,5de0e675a1a3fb13a6e351fc,62c539cac599ec119eba96d7,2022-07-06_10h29.26.485,Colour_Asymmetry_Pilot,2022.1.3,Win32,60.0528465,62c50e9c1127f2cd403a315f,,,,,,,,,,,,,,,,,,,,,,,,,,,,,,,,,,,,,,,,,,,,,,,,,,,,,,,,,,,,,,,,,,,,,,,,,,,,,,,,,,,,,,,,,,,,,,,,,,,,,,,,,,,,,,,,,,,,,,,,,,,,,,,,,,,,,,,,,,,,,,,,,,,,,,,,,,,,,,,,,,,
0,16,16,48,1,,5de0e675a1a3fb13a6e351fc,62c539cac599ec119eba96d7,2022-07-06_10h29.26.485,Colour_Asymmetry_Pilot,2022.1.3,Win32,60.0528465,62c50e9c1127f2cd403a315f,,,,,,,,,,,,,,,,,,,,,,,,,,,,,,,,,,,,,,,,,,,,,,,,,,,,,,,,,,,,,,,,,,,,,,,,,,,,,,,,,,,,,,,,,,,,,,,,,,,,,,,,,,,,,,,,,,,,,,,,,,,,,,,,,,,,,,,,,,,,,,,,,,,,,,,,,,,,,,,,,,,
0,17,17,58,1,,5de0e675a1a3fb13a6e351fc,62c539cac599ec119eba96d7,2022-07-06_10h29.26.485,Colour_Asymmetry_Pilot,2022.1.3,Win32,60.0528465,62c50e9c1127f2cd403a315f,,,,,,,,,,,,,,,,,,,,,,,,,,,,,,,,,,,,,,,,,,,,,,,,,,,,,,,,,,,,,,,,,,,,,,,,,,,,,,,,,,,,,,,,,,,,,,,,,,,,,,,,,,,,,,,,,,,,,,,,,,,,,,,,,,,,,,,,,,,,,,,,,,,,,,,,,,,,,,,,,,,
0,18,18,0,1,,5de0e675a1a3fb13a6e351fc,62c539cac599ec119eba96d7,2022-07-06_10h29.26.485,Colour_Asymmetry_Pilot,2022.1.3,Win32,60.0528465,62c50e9c1127f2cd403a315f,,,,,,,,,,,,,,,,,,,,,,,,,,,,,,,,,,,,,,,,,,,,,,,,,,,,,,,,,,,,,,,,,,,,,,,,,,,,,,,,,,,,,,,,,,,,,,,,,,,,,,,,,,,,,,,,,,,,,,,,,,,,,,,,,,,,,,,,,,,,,,,,,,,,,,,,,,,,,,,,,,,
0,19,19,77,1,,5de0e675a1a3fb13a6e351fc,62c539cac599ec119eba96d7,2022-07-06_10h29.26.485,Colour_Asymmetry_Pilot,2022.1.3,Win32,60.0528465,62c50e9c1127f2cd403a315f,,,,,,,,,,,,,,,,,,,,,,,,,,,,,,,,,,,,,,,,,,,,,,,,,,,,,,,,,,,,,,,,,,,,,,,,,,,,,,,,,,,,,,,,,,,,,,,,,,,,,,,,,,,,,,,,,,,,,,,,,,,,,,,,,,,,,,,,,,,,,,,,,,,,,,,,,,,,,,,,,,,
0,20,20,79,1,,5de0e675a1a3fb13a6e351fc,62c539cac599ec119eba96d7,2022-07-06_10h29.26.485,Colour_Asymmetry_Pilot,2022.1.3,Win32,60.0528465,62c50e9c1127f2cd403a315f,,,,,,,,,,,,,,,,,,,,,,,,,,,,,,,,,,,,,,,,,,,,,,,,,,,,,,,,,,,,,,,,,,,,,,,,,,,,,,,,,,,,,,,,,,,,,,,,,,,,,,,,,,,,,,,,,,,,,,,,,,,,,,,,,,,,,,,,,,,,,,,,,,,,,,,,,,,,,,,,,,,
0,21,21,34,1,,5de0e675a1a3fb13a6e351fc,62c539cac599ec119eba96d7,2022-07-06_10h29.26.485,Colour_Asymmetry_Pilot,2022.1.3,Win32,60.0528465,62c50e9c1127f2cd403a315f,,,,,,,,,,,,,,,,,,,,,,,,,,,,,,,,,,,,,,,,,,,,,,,,,,,,,,,,,,,,,,,,,,,,,,,,,,,,,,,,,,,,,,,,,,,,,,,,,,,,,,,,,,,,,,,,,,,,,,,,,,,,,,,,,,,,,,,,,,,,,,,,,,,,,,,,,,,,,,,,,,,
0,22,22,59,1,,5de0e675a1a3fb13a6e351fc,62c539cac599ec119eba96d7,2022-07-06_10h29.26.485,Colour_Asymmetry_Pilot,2022.1.3,Win32,60.0528465,62c50e9c1127f2cd403a315f,,,,,,,,,,,,,,,,,,,,,,,,,,,,,,,,,,,,,,,,,,,,,,,,,,,,,,,,,,,,,,,,,,,,,,,,,,,,,,,,,,,,,,,,,,,,,,,,,,,,,,,,,,,,,,,,,,,,,,,,,,,,,,,,,,,,,,,,,,,,,,,,,,,,,,,,,,,,,,,,,,,
0,23,23,39,1,,5de0e675a1a3fb13a6e351fc,62c539cac599ec119eba96d7,2022-07-06_10h29.26.485,Colour_Asymmetry_Pilot,2022.1.3,Win32,60.0528465,62c50e9c1127f2cd403a315f,,,,,,,,,,,,,,,,,,,,,,,,,,,,,,,,,,,,,,,,,,,,,,,,,,,,,,,,,,,,,,,,,,,,,,,,,,,,,,,,,,,,,,,,,,,,,,,,,,,,,,,,,,,,,,,,,,,,,,,,,,,,,,,,,,,,,,,,,,,,,,,,,,,,,,,,,,,,,,,,,,,
0,24,24,72,1,,5de0e675a1a3fb13a6e351fc,62c539cac599ec119eba96d7,2022-07-06_10h29.26.485,Colour_Asymmetry_Pilot,2022.1.3,Win32,60.0528465,62c50e9c1127f2cd403a315f,,,,,,,,,,,,,,,,,,,,,,,,,,,,,,,,,,,,,,,,,,,,,,,,,,,,,,,,,,,,,,,,,,,,,,,,,,,,,,,,,,,,,,,,,,,,,,,,,,,,,,,,,,,,,,,,,,,,,,,,,,,,,,,,,,,,,,,,,,,,,,,,,,,,,,,,,,,,,,,,,,,
0,25,25,66,1,,5de0e675a1a3fb13a6e351fc,62c539cac599ec119eba96d7,2022-07-06_10h29.26.485,Colour_Asymmetry_Pilot,2022.1.3,Win32,60.0528465,62c50e9c1127f2cd403a315f,,,,,,,,,,,,,,,,,,,,,,,,,,,,,,,,,,,,,,,,,,,,,,,,,,,,,,,,,,,,,,,,,,,,,,,,,,,,,,,,,,,,,,,,,,,,,,,,,,,,,,,,,,,,,,,,,,,,,,,,,,,,,,,,,,,,,,,,,,,,,,,,,,,,,,,,,,,,,,,,,,,
0,26,26,29,1,,5de0e675a1a3fb13a6e351fc,62c539cac599ec119eba96d7,2022-07-06_10h29.26.485,Colour_Asymmetry_Pilot,2022.1.3,Win32,60.0528465,62c50e9c1127f2cd403a315f,,,,,,,,,,,,,,,,,,,,,,,,,,,,,,,,,,,,,,,,,,,,,,,,,,,,,,,,,,,,,,,,,,,,,,,,,,,,,,,,,,,,,,,,,,,,,,,,,,,,,,,,,,,,,,,,,,,,,,,,,,,,,,,,,,,,,,,,,,,,,,,,,,,,,,,,,,,,,,,,,,,
0,27,27,28,1,,5de0e675a1a3fb13a6e351fc,62c539cac599ec119eba96d7,2022-07-06_10h29.26.485,Colour_Asymmetry_Pilot,2022.1.3,Win32,60.0528465,62c50e9c1127f2cd403a315f,,,,,,,,,,,,,,,,,,,,,,,,,,,,,,,,,,,,,,,,,,,,,,,,,,,,,,,,,,,,,,,,,,,,,,,,,,,,,,,,,,,,,,,,,,,,,,,,,,,,,,,,,,,,,,,,,,,,,,,,,,,,,,,,,,,,,,,,,,,,,,,,,,,,,,,,,,,,,,,,,,,
0,28,28,7,1,,5de0e675a1a3fb13a6e351fc,62c539cac599ec119eba96d7,2022-07-06_10h29.26.485,Colour_Asymmetry_Pilot,2022.1.3,Win32,60.0528465,62c50e9c1127f2cd403a315f,,,,,,,,,,,,,,,,,,,,,,,,,,,,,,,,,,,,,,,,,,,,,,,,,,,,,,,,,,,,,,,,,,,,,,,,,,,,,,,,,,,,,,,,,,,,,,,,,,,,,,,,,,,,,,,,,,,,,,,,,,,,,,,,,,,,,,,,,,,,,,,,,,,,,,,,,,,,,,,,,,,
0,29,29,47,1,,5de0e675a1a3fb13a6e351fc,62c539cac599ec119eba96d7,2022-07-06_10h29.26.485,Colour_Asymmetry_Pilot,2022.1.3,Win32,60.0528465,62c50e9c1127f2cd403a315f,,,,,,,,,,,,,,,,,,,,,,,,,,,,,,,,,,,,,,,,,,,,,,,,,,,,,,,,,,,,,,,,,,,,,,,,,,,,,,,,,,,,,,,,,,,,,,,,,,,,,,,,,,,,,,,,,,,,,,,,,,,,,,,,,,,,,,,,,,,,,,,,,,,,,,,,,,,,,,,,,,,
0,30,30,91,1,,5de0e675a1a3fb13a6e351fc,62c539cac599ec119eba96d7,2022-07-06_10h29.26.485,Colour_Asymmetry_Pilot,2022.1.3,Win32,60.0528465,62c50e9c1127f2cd403a315f,,,,,,,,,,,,,,,,,,,,,,,,,,,,,,,,,,,,,,,,,,,,,,,,,,,,,,,,,,,,,,,,,,,,,,,,,,,,,,,,,,,,,,,,,,,,,,,,,,,,,,,,,,,,,,,,,,,,,,,,,,,,,,,,,,,,,,,,,,,,,,,,,,,,,,,,,,,,,,,,,,,
0,31,31,80,1,,5de0e675a1a3fb13a6e351fc,62c539cac599ec119eba96d7,2022-07-06_10h29.26.485,Colour_Asymmetry_Pilot,2022.1.3,Win32,60.0528465,62c50e9c1127f2cd403a315f,,,,,,,,,,,,,,,,,,,,,,,,,,,,,,,,,,,,,,,,,,,,,,,,,,,,,,,,,,,,,,,,,,,,,,,,,,,,,,,,,,,,,,,,,,,,,,,,,,,,,,,,,,,,,,,,,,,,,,,,,,,,,,,,,,,,,,,,,,,,,,,,,,,,,,,,,,,,,,,,,,,
0,32,32,42,1,,5de0e675a1a3fb13a6e351fc,62c539cac599ec119eba96d7,2022-07-06_10h29.26.485,Colour_Asymmetry_Pilot,2022.1.3,Win32,60.0528465,62c50e9c1127f2cd403a315f,,,,,,,,,,,,,,,,,,,,,,,,,,,,,,,,,,,,,,,,,,,,,,,,,,,,,,,,,,,,,,,,,,,,,,,,,,,,,,,,,,,,,,,,,,,,,,,,,,,,,,,,,,,,,,,,,,,,,,,,,,,,,,,,,,,,,,,,,,,,,,,,,,,,,,,,,,,,,,,,,,,
0,33,33,15,1,,5de0e675a1a3fb13a6e351fc,62c539cac599ec119eba96d7,2022-07-06_10h29.26.485,Colour_Asymmetry_Pilot,2022.1.3,Win32,60.0528465,62c50e9c1127f2cd403a315f,,,,,,,,,,,,,,,,,,,,,,,,,,,,,,,,,,,,,,,,,,,,,,,,,,,,,,,,,,,,,,,,,,,,,,,,,,,,,,,,,,,,,,,,,,,,,,,,,,,,,,,,,,,,,,,,,,,,,,,,,,,,,,,,,,,,,,,,,,,,,,,,,,,,,,,,,,,,,,,,,,,
0,34,34,83,1,,5de0e675a1a3fb13a6e351fc,62c539cac599ec119eba96d7,2022-07-06_10h29.26.485,Colour_Asymmetry_Pilot,2022.1.3,Win32,60.0528465,62c50e9c1127f2cd403a315f,,,,,,,,,,,,,,,,,,,,,,,,,,,,,,,,,,,,,,,,,,,,,,,,,,,,,,,,,,,,,,,,,,,,,,,,,,,,,,,,,,,,,,,,,,,,,,,,,,,,,,,,,,,,,,,,,,,,,,,,,,,,,,,,,,,,,,,,,,,,,,,,,,,,,,,,,,,,,,,,,,,
0,35,35,67,1,,5de0e675a1a3fb13a6e351fc,62c539cac599ec119eba96d7,2022-07-06_10h29.26.485,Colour_Asymmetry_Pilot,2022.1.3,Win32,60.0528465,62c50e9c1127f2cd403a315f,,,,,,,,,,,,,,,,,,,,,,,,,,,,,,,,,,,,,,,,,,,,,,,,,,,,,,,,,,,,,,,,,,,,,,,,,,,,,,,,,,,,,,,,,,,,,,,,,,,,,,,,,,,,,,,,,,,,,,,,,,,,,,,,,,,,,,,,,,,,,,,,,,,,,,,,,,,,,,,,,,,
0,36,36,17,1,,5de0e675a1a3fb13a6e351fc,62c539cac599ec119eba96d7,2022-07-06_10h29.26.485,Colour_Asymmetry_Pilot,2022.1.3,Win32,60.0528465,62c50e9c1127f2cd403a315f,,,,,,,,,,,,,,,,,,,,,,,,,,,,,,,,,,,,,,,,,,,,,,,,,,,,,,,,,,,,,,,,,,,,,,,,,,,,,,,,,,,,,,,,,,,,,,,,,,,,,,,,,,,,,,,,,,,,,,,,,,,,,,,,,,,,,,,,,,,,,,,,,,,,,,,,,,,,,,,,,,,
0,37,37,89,1,,5de0e675a1a3fb13a6e351fc,62c539cac599ec119eba96d7,2022-07-06_10h29.26.485,Colour_Asymmetry_Pilot,2022.1.3,Win32,60.0528465,62c50e9c1127f2cd403a315f,,,,,,,,,,,,,,,,,,,,,,,,,,,,,,,,,,,,,,,,,,,,,,,,,,,,,,,,,,,,,,,,,,,,,,,,,,,,,,,,,,,,,,,,,,,,,,,,,,,,,,,,,,,,,,,,,,,,,,,,,,,,,,,,,,,,,,,,,,,,,,,,,,,,,,,,,,,,,,,,,,,
0,38,38,30,1,,5de0e675a1a3fb13a6e351fc,62c539cac599ec119eba96d7,2022-07-06_10h29.26.485,Colour_Asymmetry_Pilot,2022.1.3,Win32,60.0528465,62c50e9c1127f2cd403a315f,,,,,,,,,,,,,,,,,,,,,,,,,,,,,,,,,,,,,,,,,,,,,,,,,,,,,,,,,,,,,,,,,,,,,,,,,,,,,,,,,,,,,,,,,,,,,,,,,,,,,,,,,,,,,,,,,,,,,,,,,,,,,,,,,,,,,,,,,,,,,,,,,,,,,,,,,,,,,,,,,,,
0,39,39,13,1,,5de0e675a1a3fb13a6e351fc,62c539cac599ec119eba96d7,2022-07-06_10h29.26.485,Colour_Asymmetry_Pilot,2022.1.3,Win32,60.0528465,62c50e9c1127f2cd403a315f,,,,,,,,,,,,,,,,,,,,,,,,,,,,,,,,,,,,,,,,,,,,,,,,,,,,,,,,,,,,,,,,,,,,,,,,,,,,,,,,,,,,,,,,,,,,,,,,,,,,,,,,,,,,,,,,,,,,,,,,,,,,,,,,,,,,,,,,,,,,,,,,,,,,,,,,,,,,,,,,,,,
0,40,40,70,1,,5de0e675a1a3fb13a6e351fc,62c539cac599ec119eba96d7,2022-07-06_10h29.26.485,Colour_Asymmetry_Pilot,2022.1.3,Win32,60.0528465,62c50e9c1127f2cd403a315f,,,,,,,,,,,,,,,,,,,,,,,,,,,,,,,,,,,,,,,,,,,,,,,,,,,,,,,,,,,,,,,,,,,,,,,,,,,,,,,,,,,,,,,,,,,,,,,,,,,,,,,,,,,,,,,,,,,,,,,,,,,,,,,,,,,,,,,,,,,,,,,,,,,,,,,,,,,,,,,,,,,
0,41,41,1,1,,5de0e675a1a3fb13a6e351fc,62c539cac599ec119eba96d7,2022-07-06_10h29.26.485,Colour_Asymmetry_Pilot,2022.1.3,Win32,60.0528465,62c50e9c1127f2cd403a315f,,,,,,,,,,,,,,,,,,,,,,,,,,,,,,,,,,,,,,,,,,,,,,,,,,,,,,,,,,,,,,,,,,,,,,,,,,,,,,,,,,,,,,,,,,,,,,,,,,,,,,,,,,,,,,,,,,,,,,,,,,,,,,,,,,,,,,,,,,,,,,,,,,,,,,,,,,,,,,,,,,,
0,42,42,37,1,,5de0e675a1a3fb13a6e351fc,62c539cac599ec119eba96d7,2022-07-06_10h29.26.485,Colour_Asymmetry_Pilot,2022.1.3,Win32,60.0528465,62c50e9c1127f2cd403a315f,,,,,,,,,,,,,,,,,,,,,,,,,,,,,,,,,,,,,,,,,,,,,,,,,,,,,,,,,,,,,,,,,,,,,,,,,,,,,,,,,,,,,,,,,,,,,,,,,,,,,,,,,,,,,,,,,,,,,,,,,,,,,,,,,,,,,,,,,,,,,,,,,,,,,,,,,,,,,,,,,,,
0,43,43,63,1,,5de0e675a1a3fb13a6e351fc,62c539cac599ec119eba96d7,2022-07-06_10h29.26.485,Colour_Asymmetry_Pilot,2022.1.3,Win32,60.0528465,62c50e9c1127f2cd403a315f,,,,,,,,,,,,,,,,,,,,,,,,,,,,,,,,,,,,,,,,,,,,,,,,,,,,,,,,,,,,,,,,,,,,,,,,,,,,,,,,,,,,,,,,,,,,,,,,,,,,,,,,,,,,,,,,,,,,,,,,,,,,,,,,,,,,,,,,,,,,,,,,,,,,,,,,,,,,,,,,,,,
0,44,44,12,1,,5de0e675a1a3fb13a6e351fc,62c539cac599ec119eba96d7,2022-07-06_10h29.26.485,Colour_Asymmetry_Pilot,2022.1.3,Win32,60.0528465,62c50e9c1127f2cd403a315f,,,,,,,,,,,,,,,,,,,,,,,,,,,,,,,,,,,,,,,,,,,,,,,,,,,,,,,,,,,,,,,,,,,,,,,,,,,,,,,,,,,,,,,,,,,,,,,,,,,,,,,,,,,,,,,,,,,,,,,,,,,,,,,,,,,,,,,,,,,,,,,,,,,,,,,,,,,,,,,,,,,
0,45,45,88,1,,5de0e675a1a3fb13a6e351fc,62c539cac599ec119eba96d7,2022-07-06_10h29.26.485,Colour_Asymmetry_Pilot,2022.1.3,Win32,60.0528465,62c50e9c1127f2cd403a315f,,,,,,,,,,,,,,,,,,,,,,,,,,,,,,,,,,,,,,,,,,,,,,,,,,,,,,,,,,,,,,,,,,,,,,,,,,,,,,,,,,,,,,,,,,,,,,,,,,,,,,,,,,,,,,,,,,,,,,,,,,,,,,,,,,,,,,,,,,,,,,,,,,,,,,,,,,,,,,,,,,,
0,46,46,11,1,,5de0e675a1a3fb13a6e351fc,62c539cac599ec119eba96d7,2022-07-06_10h29.26.485,Colour_Asymmetry_Pilot,2022.1.3,Win32,60.0528465,62c50e9c1127f2cd403a315f,,,,,,,,,,,,,,,,,,,,,,,,,,,,,,,,,,,,,,,,,,,,,,,,,,,,,,,,,,,,,,,,,,,,,,,,,,,,,,,,,,,,,,,,,,,,,,,,,,,,,,,,,,,,,,,,,,,,,,,,,,,,,,,,,,,,,,,,,,,,,,,,,,,,,,,,,,,,,,,,,,,
0,47,47,31,1,,5de0e675a1a3fb13a6e351fc,62c539cac599ec119eba96d7,2022-07-06_10h29.26.485,Colour_Asymmetry_Pilot,2022.1.3,Win32,60.0528465,62c50e9c1127f2cd403a315f,,,,,,,,,,,,,,,,,,,,,,,,,,,,,,,,,,,,,,,,,,,,,,,,,,,,,,,,,,,,,,,,,,,,,,,,,,,,,,,,,,,,,,,,,,,,,,,,,,,,,,,,,,,,,,,,,,,,,,,,,,,,,,,,,,,,,,,,,,,,,,,,,,,,,,,,,,,,,,,,,,,
0,48,48,62,1,,5de0e675a1a3fb13a6e351fc,62c539cac599ec119eba96d7,2022-07-06_10h29.26.485,Colour_Asymmetry_Pilot,2022.1.3,Win32,60.0528465,62c50e9c1127f2cd403a315f,,,,,,,,,,,,,,,,,,,,,,,,,,,,,,,,,,,,,,,,,,,,,,,,,,,,,,,,,,,,,,,,,,,,,,,,,,,,,,,,,,,,,,,,,,,,,,,,,,,,,,,,,,,,,,,,,,,,,,,,,,,,,,,,,,,,,,,,,,,,,,,,,,,,,,,,,,,,,,,,,,,
0,49,49,85,1,,5de0e675a1a3fb13a6e351fc,62c539cac599ec119eba96d7,2022-07-06_10h29.26.485,Colour_Asymmetry_Pilot,2022.1.3,Win32,60.0528465,62c50e9c1127f2cd403a315f,,,,,,,,,,,,,,,,,,,,,,,,,,,,,,,,,,,,,,,,,,,,,,,,,,,,,,,,,,,,,,,,,,,,,,,,,,,,,,,,,,,,,,,,,,,,,,,,,,,,,,,,,,,,,,,,,,,,,,,,,,,,,,,,,,,,,,,,,,,,,,,,,,,,,,,,,,,,,,,,,,,
0,50,50,14,1,,5de0e675a1a3fb13a6e351fc,62c539cac599ec119eba96d7,2022-07-06_10h29.26.485,Colour_Asymmetry_Pilot,2022.1.3,Win32,60.0528465,62c50e9c1127f2cd403a315f,,,,,,,,,,,,,,,,,,,,,,,,,,,,,,,,,,,,,,,,,,,,,,,,,,,,,,,,,,,,,,,,,,,,,,,,,,,,,,,,,,,,,,,,,,,,,,,,,,,,,,,,,,,,,,,,,,,,,,,,,,,,,,,,,,,,,,,,,,,,,,,,,,,,,,,,,,,,,,,,,,,
0,51,51,41,1,,5de0e675a1a3fb13a6e351fc,62c539cac599ec119eba96d7,2022-07-06_10h29.26.485,Colour_Asymmetry_Pilot,2022.1.3,Win32,60.0528465,62c50e9c1127f2cd403a315f,,,,,,,,,,,,,,,,,,,,,,,,,,,,,,,,,,,,,,,,,,,,,,,,,,,,,,,,,,,,,,,,,,,,,,,,,,,,,,,,,,,,,,,,,,,,,,,,,,,,,,,,,,,,,,,,,,,,,,,,,,,,,,,,,,,,,,,,,,,,,,,,,,,,,,,,,,,,,,,,,,,
0,52,52,24,1,,5de0e675a1a3fb13a6e351fc,62c539cac599ec119eba96d7,2022-07-06_10h29.26.485,Colour_Asymmetry_Pilot,2022.1.3,Win32,60.0528465,62c50e9c1127f2cd403a315f,,,,,,,,,,,,,,,,,,,,,,,,,,,,,,,,,,,,,,,,,,,,,,,,,,,,,,,,,,,,,,,,,,,,,,,,,,,,,,,,,,,,,,,,,,,,,,,,,,,,,,,,,,,,,,,,,,,,,,,,,,,,,,,,,,,,,,,,,,,,,,,,,,,,,,,,,,,,,,,,,,,
0,53,53,56,1,,5de0e675a1a3fb13a6e351fc,62c539cac599ec119eba96d7,2022-07-06_10h29.26.485,Colour_Asymmetry_Pilot,2022.1.3,Win32,60.0528465,62c50e9c1127f2cd403a315f,,,,,,,,,,,,,,,,,,,,,,,,,,,,,,,,,,,,,,,,,,,,,,,,,,,,,,,,,,,,,,,,,,,,,,,,,,,,,,,,,,,,,,,,,,,,,,,,,,,,,,,,,,,,,,,,,,,,,,,,,,,,,,,,,,,,,,,,,,,,,,,,,,,,,,,,,,,,,,,,,,,
0,54,54,57,1,,5de0e675a1a3fb13a6e351fc,62c539cac599ec119eba96d7,2022-07-06_10h29.26.485,Colour_Asymmetry_Pilot,2022.1.3,Win32,60.0528465,62c50e9c1127f2cd403a315f,,,,,,,,,,,,,,,,,,,,,,,,,,,,,,,,,,,,,,,,,,,,,,,,,,,,,,,,,,,,,,,,,,,,,,,,,,,,,,,,,,,,,,,,,,,,,,,,,,,,,,,,,,,,,,,,,,,,,,,,,,,,,,,,,,,,,,,,,,,,,,,,,,,,,,,,,,,,,,,,,,,
0,55,55,49,1,,5de0e675a1a3fb13a6e351fc,62c539cac599ec119eba96d7,2022-07-06_10h29.26.485,Colour_Asymmetry_Pilot,2022.1.3,Win32,60.0528465,62c50e9c1127f2cd403a315f,,,,,,,,,,,,,,,,,,,,,,,,,,,,,,,,,,,,,,,,,,,,,,,,,,,,,,,,,,,,,,,,,,,,,,,,,,,,,,,,,,,,,,,,,,,,,,,,,,,,,,,,,,,,,,,,,,,,,,,,,,,,,,,,,,,,,,,,,,,,,,,,,,,,,,,,,,,,,,,,,,,
0,56,56,68,1,,5de0e675a1a3fb13a6e351fc,62c539cac599ec119eba96d7,2022-07-06_10h29.26.485,Colour_Asymmetry_Pilot,2022.1.3,Win32,60.0528465,62c50e9c1127f2cd403a315f,,,,,,,,,,,,,,,,,,,,,,,,,,,,,,,,,,,,,,,,,,,,,,,,,,,,,,,,,,,,,,,,,,,,,,,,,,,,,,,,,,,,,,,,,,,,,,,,,,,,,,,,,,,,,,,,,,,,,,,,,,,,,,,,,,,,,,,,,,,,,,,,,,,,,,,,,,,,,,,,,,,
0,57,57,81,1,,5de0e675a1a3fb13a6e351fc,62c539cac599ec119eba96d7,2022-07-06_10h29.26.485,Colour_Asymmetry_Pilot,2022.1.3,Win32,60.0528465,62c50e9c1127f2cd403a315f,,,,,,,,,,,,,,,,,,,,,,,,,,,,,,,,,,,,,,,,,,,,,,,,,,,,,,,,,,,,,,,,,,,,,,,,,,,,,,,,,,,,,,,,,,,,,,,,,,,,,,,,,,,,,,,,,,,,,,,,,,,,,,,,,,,,,,,,,,,,,,,,,,,,,,,,,,,,,,,,,,,
0,58,58,55,1,,5de0e675a1a3fb13a6e351fc,62c539cac599ec119eba96d7,2022-07-06_10h29.26.485,Colour_Asymmetry_Pilot,2022.1.3,Win32,60.0528465,62c50e9c1127f2cd403a315f,,,,,,,,,,,,,,,,,,,,,,,,,,,,,,,,,,,,,,,,,,,,,,,,,,,,,,,,,,,,,,,,,,,,,,,,,,,,,,,,,,,,,,,,,,,,,,,,,,,,,,,,,,,,,,,,,,,,,,,,,,,,,,,,,,,,,,,,,,,,,,,,,,,,,,,,,,,,,,,,,,,
0,59,59,35,1,,5de0e675a1a3fb13a6e351fc,62c539cac599ec119eba96d7,2022-07-06_10h29.26.485,Colour_Asymmetry_Pilot,2022.1.3,Win32,60.0528465,62c50e9c1127f2cd403a315f,,,,,,,,,,,,,,,,,,,,,,,,,,,,,,,,,,,,,,,,,,,,,,,,,,,,,,,,,,,,,,,,,,,,,,,,,,,,,,,,,,,,,,,,,,,,,,,,,,,,,,,,,,,,,,,,,,,,,,,,,,,,,,,,,,,,,,,,,,,,,,,,,,,,,,,,,,,,,,,,,,,
0,60,60,92,1,,5de0e675a1a3fb13a6e351fc,62c539cac599ec119eba96d7,2022-07-06_10h29.26.485,Colour_Asymmetry_Pilot,2022.1.3,Win32,60.0528465,62c50e9c1127f2cd403a315f,,,,,,,,,,,,,,,,,,,,,,,,,,,,,,,,,,,,,,,,,,,,,,,,,,,,,,,,,,,,,,,,,,,,,,,,,,,,,,,,,,,,,,,,,,,,,,,,,,,,,,,,,,,,,,,,,,,,,,,,,,,,,,,,,,,,,,,,,,,,,,,,,,,,,,,,,,,,,,,,,,,
0,61,61,19,1,,5de0e675a1a3fb13a6e351fc,62c539cac599ec119eba96d7,2022-07-06_10h29.26.485,Colour_Asymmetry_Pilot,2022.1.3,Win32,60.0528465,62c50e9c1127f2cd403a315f,,,,,,,,,,,,,,,,,,,,,,,,,,,,,,,,,,,,,,,,,,,,,,,,,,,,,,,,,,,,,,,,,,,,,,,,,,,,,,,,,,,,,,,,,,,,,,,,,,,,,,,,,,,,,,,,,,,,,,,,,,,,,,,,,,,,,,,,,,,,,,,,,,,,,,,,,,,,,,,,,,,
0,62,62,36,1,,5de0e675a1a3fb13a6e351fc,62c539cac599ec119eba96d7,2022-07-06_10h29.26.485,Colour_Asymmetry_Pilot,2022.1.3,Win32,60.0528465,62c50e9c1127f2cd403a315f,,,,,,,,,,,,,,,,,,,,,,,,,,,,,,,,,,,,,,,,,,,,,,,,,,,,,,,,,,,,,,,,,,,,,,,,,,,,,,,,,,,,,,,,,,,,,,,,,,,,,,,,,,,,,,,,,,,,,,,,,,,,,,,,,,,,,,,,,,,,,,,,,,,,,,,,,,,,,,,,,,,
0,63,63,69,1,,5de0e675a1a3fb13a6e351fc,62c539cac599ec119eba96d7,2022-07-06_10h29.26.485,Colour_Asymmetry_Pilot,2022.1.3,Win32,60.0528465,62c50e9c1127f2cd403a315f,,,,,,,,,,,,,,,,,,,,,,,,,,,,,,,,,,,,,,,,,,,,,,,,,,,,,,,,,,,,,,,,,,,,,,,,,,,,,,,,,,,,,,,,,,,,,,,,,,,,,,,,,,,,,,,,,,,,,,,,,,,,,,,,,,,,,,,,,,,,,,,,,,,,,,,,,,,,,,,,,,,
0,64,64,75,1,,5de0e675a1a3fb13a6e351fc,62c539cac599ec119eba96d7,2022-07-06_10h29.26.485,Colour_Asymmetry_Pilot,2022.1.3,Win32,60.0528465,62c50e9c1127f2cd403a315f,,,,,,,,,,,,,,,,,,,,,,,,,,,,,,,,,,,,,,,,,,,,,,,,,,,,,,,,,,,,,,,,,,,,,,,,,,,,,,,,,,,,,,,,,,,,,,,,,,,,,,,,,,,,,,,,,,,,,,,,,,,,,,,,,,,,,,,,,,,,,,,,,,,,,,,,,,,,,,,,,,,
0,65,65,43,1,,5de0e675a1a3fb13a6e351fc,62c539cac599ec119eba96d7,2022-07-06_10h29.26.485,Colour_Asymmetry_Pilot,2022.1.3,Win32,60.0528465,62c50e9c1127f2cd403a315f,,,,,,,,,,,,,,,,,,,,,,,,,,,,,,,,,,,,,,,,,,,,,,,,,,,,,,,,,,,,,,,,,,,,,,,,,,,,,,,,,,,,,,,,,,,,,,,,,,,,,,,,,,,,,,,,,,,,,,,,,,,,,,,,,,,,,,,,,,,,,,,,,,,,,,,,,,,,,,,,,,,
0,66,66,60,1,,5de0e675a1a3fb13a6e351fc,62c539cac599ec119eba96d7,2022-07-06_10h29.26.485,Colour_Asymmetry_Pilot,2022.1.3,Win32,60.0528465,62c50e9c1127f2cd403a315f,,,,,,,,,,,,,,,,,,,,,,,,,,,,,,,,,,,,,,,,,,,,,,,,,,,,,,,,,,,,,,,,,,,,,,,,,,,,,,,,,,,,,,,,,,,,,,,,,,,,,,,,,,,,,,,,,,,,,,,,,,,,,,,,,,,,,,,,,,,,,,,,,,,,,,,,,,,,,,,,,,,
0,67,67,38,1,,5de0e675a1a3fb13a6e351fc,62c539cac599ec119eba96d7,2022-07-06_10h29.26.485,Colour_Asymmetry_Pilot,2022.1.3,Win32,60.0528465,62c50e9c1127f2cd403a315f,,,,,,,,,,,,,,,,,,,,,,,,,,,,,,,,,,,,,,,,,,,,,,,,,,,,,,,,,,,,,,,,,,,,,,,,,,,,,,,,,,,,,,,,,,,,,,,,,,,,,,,,,,,,,,,,,,,,,,,,,,,,,,,,,,,,,,,,,,,,,,,,,,,,,,,,,,,,,,,,,,,
0,68,68,33,1,,5de0e675a1a3fb13a6e351fc,62c539cac599ec119eba96d7,2022-07-06_10h29.26.485,Colour_Asymmetry_Pilot,2022.1.3,Win32,60.0528465,62c50e9c1127f2cd403a315f,,,,,,,,,,,,,,,,,,,,,,,,,,,,,,,,,,,,,,,,,,,,,,,,,,,,,,,,,,,,,,,,,,,,,,,,,,,,,,,,,,,,,,,,,,,,,,,,,,,,,,,,,,,,,,,,,,,,,,,,,,,,,,,,,,,,,,,,,,,,,,,,,,,,,,,,,,,,,,,,,,,
0,69,69,32,1,,5de0e675a1a3fb13a6e351fc,62c539cac599ec119eba96d7,2022-07-06_10h29.26.485,Colour_Asymmetry_Pilot,2022.1.3,Win32,60.0528465,62c50e9c1127f2cd403a315f,,,,,,,,,,,,,,,,,,,,,,,,,,,,,,,,,,,,,,,,,,,,,,,,,,,,,,,,,,,,,,,,,,,,,,,,,,,,,,,,,,,,,,,,,,,,,,,,,,,,,,,,,,,,,,,,,,,,,,,,,,,,,,,,,,,,,,,,,,,,,,,,,,,,,,,,,,,,,,,,,,,
0,70,70,86,1,,5de0e675a1a3fb13a6e351fc,62c539cac599ec119eba96d7,2022-07-06_10h29.26.485,Colour_Asymmetry_Pilot,2022.1.3,Win32,60.0528465,62c50e9c1127f2cd403a315f,,,,,,,,,,,,,,,,,,,,,,,,,,,,,,,,,,,,,,,,,,,,,,,,,,,,,,,,,,,,,,,,,,,,,,,,,,,,,,,,,,,,,,,,,,,,,,,,,,,,,,,,,,,,,,,,,,,,,,,,,,,,,,,,,,,,,,,,,,,,,,,,,,,,,,,,,,,,,,,,,,,
0,71,71,4,1,,5de0e675a1a3fb13a6e351fc,62c539cac599ec119eba96d7,2022-07-06_10h29.26.485,Colour_Asymmetry_Pilot,2022.1.3,Win32,60.0528465,62c50e9c1127f2cd403a315f,,,,,,,,,,,,,,,,,,,,,,,,,,,,,,,,,,,,,,,,,,,,,,,,,,,,,,,,,,,,,,,,,,,,,,,,,,,,,,,,,,,,,,,,,,,,,,,,,,,,,,,,,,,,,,,,,,,,,,,,,,,,,,,,,,,,,,,,,,,,,,,,,,,,,,,,,,,,,,,,,,,
0,72,72,76,1,,5de0e675a1a3fb13a6e351fc,62c539cac599ec119eba96d7,2022-07-06_10h29.26.485,Colour_Asymmetry_Pilot,2022.1.3,Win32,60.0528465,62c50e9c1127f2cd403a315f,,,,,,,,,,,,,,,,,,,,,,,,,,,,,,,,,,,,,,,,,,,,,,,,,,,,,,,,,,,,,,,,,,,,,,,,,,,,,,,,,,,,,,,,,,,,,,,,,,,,,,,,,,,,,,,,,,,,,,,,,,,,,,,,,,,,,,,,,,,,,,,,,,,,,,,,,,,,,,,,,,,
0,73,73,73,1,,5de0e675a1a3fb13a6e351fc,62c539cac599ec119eba96d7,2022-07-06_10h29.26.485,Colour_Asymmetry_Pilot,2022.1.3,Win32,60.0528465,62c50e9c1127f2cd403a315f,,,,,,,,,,,,,,,,,,,,,,,,,,,,,,,,,,,,,,,,,,,,,,,,,,,,,,,,,,,,,,,,,,,,,,,,,,,,,,,,,,,,,,,,,,,,,,,,,,,,,,,,,,,,,,,,,,,,,,,,,,,,,,,,,,,,,,,,,,,,,,,,,,,,,,,,,,,,,,,,,,,
0,74,74,6,1,,5de0e675a1a3fb13a6e351fc,62c539cac599ec119eba96d7,2022-07-06_10h29.26.485,Colour_Asymmetry_Pilot,2022.1.3,Win32,60.0528465,62c50e9c1127f2cd403a315f,,,,,,,,,,,,,,,,,,,,,,,,,,,,,,,,,,,,,,,,,,,,,,,,,,,,,,,,,,,,,,,,,,,,,,,,,,,,,,,,,,,,,,,,,,,,,,,,,,,,,,,,,,,,,,,,,,,,,,,,,,,,,,,,,,,,,,,,,,,,,,,,,,,,,,,,,,,,,,,,,,,
0,75,75,71,1,,5de0e675a1a3fb13a6e351fc,62c539cac599ec119eba96d7,2022-07-06_10h29.26.485,Colour_Asymmetry_Pilot,2022.1.3,Win32,60.0528465,62c50e9c1127f2cd403a315f,,,,,,,,,,,,,,,,,,,,,,,,,,,,,,,,,,,,,,,,,,,,,,,,,,,,,,,,,,,,,,,,,,,,,,,,,,,,,,,,,,,,,,,,,,,,,,,,,,,,,,,,,,,,,,,,,,,,,,,,,,,,,,,,,,,,,,,,,,,,,,,,,,,,,,,,,,,,,,,,,,,
0,76,76,16,1,,5de0e675a1a3fb13a6e351fc,62c539cac599ec119eba96d7,2022-07-06_10h29.26.485,Colour_Asymmetry_Pilot,2022.1.3,Win32,60.0528465,62c50e9c1127f2cd403a315f,,,,,,,,,,,,,,,,,,,,,,,,,,,,,,,,,,,,,,,,,,,,,,,,,,,,,,,,,,,,,,,,,,,,,,,,,,,,,,,,,,,,,,,,,,,,,,,,,,,,,,,,,,,,,,,,,,,,,,,,,,,,,,,,,,,,,,,,,,,,,,,,,,,,,,,,,,,,,,,,,,,
0,77,77,2,1,,5de0e675a1a3fb13a6e351fc,62c539cac599ec119eba96d7,2022-07-06_10h29.26.485,Colour_Asymmetry_Pilot,2022.1.3,Win32,60.0528465,62c50e9c1127f2cd403a315f,,,,,,,,,,,,,,,,,,,,,,,,,,,,,,,,,,,,,,,,,,,,,,,,,,,,,,,,,,,,,,,,,,,,,,,,,,,,,,,,,,,,,,,,,,,,,,,,,,,,,,,,,,,,,,,,,,,,,,,,,,,,,,,,,,,,,,,,,,,,,,,,,,,,,,,,,,,,,,,,,,,
0,78,78,25,1,,5de0e675a1a3fb13a6e351fc,62c539cac599ec119eba96d7,2022-07-06_10h29.26.485,Colour_Asymmetry_Pilot,2022.1.3,Win32,60.0528465,62c50e9c1127f2cd403a315f,,,,,,,,,,,,,,,,,,,,,,,,,,,,,,,,,,,,,,,,,,,,,,,,,,,,,,,,,,,,,,,,,,,,,,,,,,,,,,,,,,,,,,,,,,,,,,,,,,,,,,,,,,,,,,,,,,,,,,,,,,,,,,,,,,,,,,,,,,,,,,,,,,,,,,,,,,,,,,,,,,,
0,79,79,3,1,,5de0e675a1a3fb13a6e351fc,62c539cac599ec119eba96d7,2022-07-06_10h29.26.485,Colour_Asymmetry_Pilot,2022.1.3,Win32,60.0528465,62c50e9c1127f2cd403a315f,,,,,,,,,,,,,,,,,,,,,,,,,,,,,,,,,,,,,,,,,,,,,,,,,,,,,,,,,,,,,,,,,,,,,,,,,,,,,,,,,,,,,,,,,,,,,,,,,,,,,,,,,,,,,,,,,,,,,,,,,,,,,,,,,,,,,,,,,,,,,,,,,,,,,,,,,,,,,,,,,,,
0,80,80,54,1,,5de0e675a1a3fb13a6e351fc,62c539cac599ec119eba96d7,2022-07-06_10h29.26.485,Colour_Asymmetry_Pilot,2022.1.3,Win32,60.0528465,62c50e9c1127f2cd403a315f,,,,,,,,,,,,,,,,,,,,,,,,,,,,,,,,,,,,,,,,,,,,,,,,,,,,,,,,,,,,,,,,,,,,,,,,,,,,,,,,,,,,,,,,,,,,,,,,,,,,,,,,,,,,,,,,,,,,,,,,,,,,,,,,,,,,,,,,,,,,,,,,,,,,,,,,,,,,,,,,,,,
0,81,81,90,1,,5de0e675a1a3fb13a6e351fc,62c539cac599ec119eba96d7,2022-07-06_10h29.26.485,Colour_Asymmetry_Pilot,2022.1.3,Win32,60.0528465,62c50e9c1127f2cd403a315f,,,,,,,,,,,,,,,,,,,,,,,,,,,,,,,,,,,,,,,,,,,,,,,,,,,,,,,,,,,,,,,,,,,,,,,,,,,,,,,,,,,,,,,,,,,,,,,,,,,,,,,,,,,,,,,,,,,,,,,,,,,,,,,,,,,,,,,,,,,,,,,,,,,,,,,,,,,,,,,,,,,
0,82,82,52,1,,5de0e675a1a3fb13a6e351fc,62c539cac599ec119eba96d7,2022-07-06_10h29.26.485,Colour_Asymmetry_Pilot,2022.1.3,Win32,60.0528465,62c50e9c1127f2cd403a315f,,,,,,,,,,,,,,,,,,,,,,,,,,,,,,,,,,,,,,,,,,,,,,,,,,,,,,,,,,,,,,,,,,,,,,,,,,,,,,,,,,,,,,,,,,,,,,,,,,,,,,,,,,,,,,,,,,,,,,,,,,,,,,,,,,,,,,,,,,,,,,,,,,,,,,,,,,,,,,,,,,,
0,83,83,8,1,,5de0e675a1a3fb13a6e351fc,62c539cac599ec119eba96d7,2022-07-06_10h29.26.485,Colour_Asymmetry_Pilot,2022.1.3,Win32,60.0528465,62c50e9c1127f2cd403a315f,,,,,,,,,,,,,,,,,,,,,,,,,,,,,,,,,,,,,,,,,,,,,,,,,,,,,,,,,,,,,,,,,,,,,,,,,,,,,,,,,,,,,,,,,,,,,,,,,,,,,,,,,,,,,,,,,,,,,,,,,,,,,,,,,,,,,,,,,,,,,,,,,,,,,,,,,,,,,,,,,,,
0,84,84,44,1,,5de0e675a1a3fb13a6e351fc,62c539cac599ec119eba96d7,2022-07-06_10h29.26.485,Colour_Asymmetry_Pilot,2022.1.3,Win32,60.0528465,62c50e9c1127f2cd403a315f,,,,,,,,,,,,,,,,,,,,,,,,,,,,,,,,,,,,,,,,,,,,,,,,,,,,,,,,,,,,,,,,,,,,,,,,,,,,,,,,,,,,,,,,,,,,,,,,,,,,,,,,,,,,,,,,,,,,,,,,,,,,,,,,,,,,,,,,,,,,,,,,,,,,,,,,,,,,,,,,,,,
0,85,85,45,1,,5de0e675a1a3fb13a6e351fc,62c539cac599ec119eba96d7,2022-07-06_10h29.26.485,Colour_Asymmetry_Pilot,2022.1.3,Win32,60.0528465,62c50e9c1127f2cd403a315f,,,,,,,,,,,,,,,,,,,,,,,,,,,,,,,,,,,,,,,,,,,,,,,,,,,,,,,,,,,,,,,,,,,,,,,,,,,,,,,,,,,,,,,,,,,,,,,,,,,,,,,,,,,,,,,,,,,,,,,,,,,,,,,,,,,,,,,,,,,,,,,,,,,,,,,,,,,,,,,,,,,
0,86,86,40,1,,5de0e675a1a3fb13a6e351fc,62c539cac599ec119eba96d7,2022-07-06_10h29.26.485,Colour_Asymmetry_Pilot,2022.1.3,Win32,60.0528465,62c50e9c1127f2cd403a315f,,,,,,,,,,,,,,,,,,,,,,,,,,,,,,,,,,,,,,,,,,,,,,,,,,,,,,,,,,,,,,,,,,,,,,,,,,,,,,,,,,,,,,,,,,,,,,,,,,,,,,,,,,,,,,,,,,,,,,,,,,,,,,,,,,,,,,,,,,,,,,,,,,,,,,,,,,,,,,,,,,,
0,87,87,46,1,,5de0e675a1a3fb13a6e351fc,62c539cac599ec119eba96d7,2022-07-06_10h29.26.485,Colour_Asymmetry_Pilot,2022.1.3,Win32,60.0528465,62c50e9c1127f2cd403a315f,,,,,,,,,,,,,,,,,,,,,,,,,,,,,,,,,,,,,,,,,,,,,,,,,,,,,,,,,,,,,,,,,,,,,,,,,,,,,,,,,,,,,,,,,,,,,,,,,,,,,,,,,,,,,,,,,,,,,,,,,,,,,,,,,,,,,,,,,,,,,,,,,,,,,,,,,,,,,,,,,,,
0,88,88,84,1,,5de0e675a1a3fb13a6e351fc,62c539cac599ec119eba96d7,2022-07-06_10h29.26.485,Colour_Asymmetry_Pilot,2022.1.3,Win32,60.0528465,62c50e9c1127f2cd403a315f,,,,,,,,,,,,,,,,,,,,,,,,,,,,,,,,,,,,,,,,,,,,,,,,,,,,,,,,,,,,,,,,,,,,,,,,,,,,,,,,,,,,,,,,,,,,,,,,,,,,,,,,,,,,,,,,,,,,,,,,,,,,,,,,,,,,,,,,,,,,,,,,,,,,,,,,,,,,,,,,,,,
0,89,89,74,1,,5de0e675a1a3fb13a6e351fc,62c539cac599ec119eba96d7,2022-07-06_10h29.26.485,Colour_Asymmetry_Pilot,2022.1.3,Win32,60.0528465,62c50e9c1127f2cd403a315f,,,,,,,,,,,,,,,,,,,,,,,,,,,,,,,,,,,,,,,,,,,,,,,,,,,,,,,,,,,,,,,,,,,,,,,,,,,,,,,,,,,,,,,,,,,,,,,,,,,,,,,,,,,,,,,,,,,,,,,,,,,,,,,,,,,,,,,,,,,,,,,,,,,,,,,,,,,,,,,,,,,
0,90,90,78,1,,5de0e675a1a3fb13a6e351fc,62c539cac599ec119eba96d7,2022-07-06_10h29.26.485,Colour_Asymmetry_Pilot,2022.1.3,Win32,60.0528465,62c50e9c1127f2cd403a315f,,,,,,,,,,,,,,,,,,,,,,,,,,,,,,,,,,,,,,,,,,,,,,,,,,,,,,,,,,,,,,,,,,,,,,,,,,,,,,,,,,,,,,,,,,,,,,,,,,,,,,,,,,,,,,,,,,,,,,,,,,,,,,,,,,,,,,,,,,,,,,,,,,,,,,,,,,,,,,,,,,,
0,91,91,65,1,,5de0e675a1a3fb13a6e351fc,62c539cac599ec119eba96d7,2022-07-06_10h29.26.485,Colour_Asymmetry_Pilot,2022.1.3,Win32,60.0528465,62c50e9c1127f2cd403a315f,,,,,,,,,,,,,,,,,,,,,,,,,,,,,,,,,,,,,,,,,,,,,,,,,,,,,,,,,,,,,,,,,,,,,,,,,,,,,,,,,,,,,,,,,,,,,,,,,,,,,,,,,,,,,,,,,,,,,,,,,,,,,,,,,,,,,,,,,,,,,,,,,,,,,,,,,,,,,,,,,,,
0,92,92,87,1,,5de0e675a1a3fb13a6e351fc,62c539cac599ec119eba96d7,2022-07-06_10h29.26.485,Colour_Asymmetry_Pilot,2022.1.3,Win32,60.0528465,62c50e9c1127f2cd403a315f,,,,,,,,,,,,,,,,,,,,,,,,,,,,,,,,,,,,,,,,,,,,,,,,,,,,,,,,,,,,,,,,,,,,,,,,,,,,,,,,,,,,,,,,,,,,,,,,,,,,,,,,,,,,,,,,,,,,,,,,,,,,,,,,,,,,,,,,,,,,,,,,,,,,,,,,,,,,,,,,,,,
,,,,,,5de0e675a1a3fb13a6e351fc,62c539cac599ec119eba96d7,2022-07-06_10h29.26.485,Colour_Asymmetry_Pilot,2022.1.3,Win32,60.0528465,62c50e9c1127f2cd403a315f,0,0,0,85,1,threefour,,,,,,,,,,,,,,,,,,,,,,,,,,,,,,,,,,,,,,,,,,,,,,,,,,,,,,,,,,,,,,,,,,,,,,,,,,,,,,,,,,,,,,,,,,,,,,,,,,,,,,,,,,,,,,,,,,,,,,,,,,,,,,,,,,,,,,,,,,,,,,,,,,,,,,,,,,,,,
,,,,,,5de0e675a1a3fb13a6e351fc,62c539cac599ec119eba96d7,2022-07-06_10h29.26.485,Colour_Asymmetry_Pilot,2022.1.3,Win32,60.0528465,62c50e9c1127f2cd403a315f,0,1,1,24,1,onetwo,,,,,,,,,,,,,,,,,,,,,,,,,,,,,,,,,,,,,,,,,,,,,,,,,,,,,,,,,,,,,,,,,,,,,,,,,,,,,,,,,,,,,,,,,,,,,,,,,,,,,,,,,,,,,,,,,,,,,,,,,,,,,,,,,,,,,,,,,,,,,,,,,,,,,,,,,,,,,
,,,,,,5de0e675a1a3fb13a6e351fc,62c539cac599ec119eba96d7,2022-07-06_10h29.26.485,Colour_Asymmetry_Pilot,2022.1.3,Win32,60.0528465,62c50e9c1127f2cd403a315f,0,2,2,117,1,threefour,,,,,,,,,,,,,,,,,,,,,,,,,,,,,,,,,,,,,,,,,,,,,,,,,,,,,,,,,,,,,,,,,,,,,,,,,,,,,,,,,,,,,,,,,,,,,,,,,,,,,,,,,,,,,,,,,,,,,,,,,,,,,,,,,,,,,,,,,,,,,,,,,,,,,,,,,,,,,
,,,,,,5de0e675a1a3fb13a6e351fc,62c539cac599ec119eba96d7,2022-07-06_10h29.26.485,Colour_Asymmetry_Pilot,2022.1.3,Win32,60.0528465,62c50e9c1127f2cd403a315f,0,3,3,90,1,twoone,,,,,,,,,,,,,,,,,,,,,,,,,,,,,,,,,,,,,,,,,,,,,,,,,,,,,,,,,,,,,,,,,,,,,,,,,,,,,,,,,,,,,,,,,,,,,,,,,,,,,,,,,,,,,,,,,,,,,,,,,,,,,,,,,,,,,,,,,,,,,,,,,,,,,,,,,,,,,
,,,,,,5de0e675a1a3fb13a6e351fc,62c539cac599ec119eba96d7,2022-07-06_10h29.26.485,Colour_Asymmetry_Pilot,2022.1.3,Win32,60.0528465,62c50e9c1127f2cd403a315f,0,4,4,29,1,threefour,,,,,,,,,,,,,,,,,,,,,,,,,,,,,,,,,,,,,,,,,,,,,,,,,,,,,,,,,,,,,,,,,,,,,,,,,,,,,,,,,,,,,,,,,,,,,,,,,,,,,,,,,,,,,,,,,,,,,,,,,,,,,,,,,,,,,,,,,,,,,,,,,,,,,,,,,,,,,
,,,,,,5de0e675a1a3fb13a6e351fc,62c539cac599ec119eba96d7,2022-07-06_10h29.26.485,Colour_Asymmetry_Pilot,2022.1.3,Win32,60.0528465,62c50e9c1127f2cd403a315f,0,5,5,125,1,threefour,,,,,,,,,,,,,,,,,,,,,,,,,,,,,,,,,,,,,,,,,,,,,,,,,,,,,,,,,,,,,,,,,,,,,,,,,,,,,,,,,,,,,,,,,,,,,,,,,,,,,,,,,,,,,,,,,,,,,,,,,,,,,,,,,,,,,,,,,,,,,,,,,,,,,,,,,,,,,
,,,,,,5de0e675a1a3fb13a6e351fc,62c539cac599ec119eba96d7,2022-07-06_10h29.26.485,Colour_Asymmetry_Pilot,2022.1.3,Win32,60.0528465,62c50e9c1127f2cd403a315f,0,6,6,152,1,onetwo,,,,,,,,,,,,,,,,,,,,,,,,,,,,,,,,,,,,,,,,,,,,,,,,,,,,,,,,,,,,,,,,,,,,,,,,,,,,,,,,,,,,,,,,,,,,,,,,,,,,,,,,,,,,,,,,,,,,,,,,,,,,,,,,,,,,,,,,,,,,,,,,,,,,,,,,,,,,,
,,,,,,5de0e675a1a3fb13a6e351fc,62c539cac599ec119eba96d7,2022-07-06_10h29.26.485,Colour_Asymmetry_Pilot,2022.1.3,Win32,60.0528465,62c50e9c1127f2cd403a315f,0,7,7,143,1,fourthree,,,,,,,,,,,,,,,,,,,,,,,,,,,,,,,,,,,,,,,,,,,,,,,,,,,,,,,,,,,,,,,,,,,,,,,,,,,,,,,,,,,,,,,,,,,,,,,,,,,,,,,,,,,,,,,,,,,,,,,,,,,,,,,,,,,,,,,,,,,,,,,,,,,,,,,,,,,,,
,,,,,,5de0e675a1a3fb13a6e351fc,62c539cac599ec119eba96d7,2022-07-06_10h29.26.485,Colour_Asymmetry_Pilot,2022.1.3,Win32,60.0528465,62c50e9c1127f2cd403a315f,0,8,8,38,1,fourtwo,,,,,,,,,,,,,,,,,,,,,,,,,,,,,,,,,,,,,,,,,,,,,,,,,,,,,,,,,,,,,,,,,,,,,,,,,,,,,,,,,,,,,,,,,,,,,,,,,,,,,,,,,,,,,,,,,,,,,,,,,,,,,,,,,,,,,,,,,,,,,,,,,,,,,,,,,,,,,
,,,,,,5de0e675a1a3fb13a6e351fc,62c539cac599ec119eba96d7,2022-07-06_10h29.26.485,Colour_Asymmetry_Pilot,2022.1.3,Win32,60.0528465,62c50e9c1127f2cd403a315f,0,9,9,21,1,threefour,,,,,,,,,,,,,,,,,,,,,,,,,,,,,,,,,,,,,,,,,,,,,,,,,,,,,,,,,,,,,,,,,,,,,,,,,,,,,,,,,,,,,,,,,,,,,,,,,,,,,,,,,,,,,,,,,,,,,,,,,,,,,,,,,,,,,,,,,,,,,,,,,,,,,,,,,,,,,
,,,,,,5de0e675a1a3fb13a6e351fc,62c539cac599ec119eba96d7,2022-07-06_10h29.26.485,Colour_Asymmetry_Pilot,2022.1.3,Win32,60.0528465,62c50e9c1127f2cd403a315f,0,10,10,41,1,onethree,,,,,,,,,,,,,,,,,,,,,,,,,,,,,,,,,,,,,,,,,,,,,,,,,,,,,,,,,,,,,,,,,,,,,,,,,,,,,,,,,,,,,,,,,,,,,,,,,,,,,,,,,,,,,,,,,,,,,,,,,,,,,,,,,,,,,,,,,,,,,,,,,,,,,,,,,,,,,
,,,,,,5de0e675a1a3fb13a6e351fc,62c539cac599ec119eba96d7,2022-07-06_10h29.26.485,Colour_Asymmetry_Pilot,2022.1.3,Win32,60.0528465,62c50e9c1127f2cd403a315f,0,11,11,149,1,threefour,,,,,,,,,,,,,,,,,,,,,,,,,,,,,,,,,,,,,,,,,,,,,,,,,,,,,,,,,,,,,,,,,,,,,,,,,,,,,,,,,,,,,,,,,,,,,,,,,,,,,,,,,,,,,,,,,,,,,,,,,,,,,,,,,,,,,,,,,,,,,,,,,,,,,,,,,,,,,
,,,,,,5de0e675a1a3fb13a6e351fc,62c539cac599ec119eba96d7,2022-07-06_10h29.26.485,Colour_Asymmetry_Pilot,2022.1.3,Win32,60.0528465,62c50e9c1127f2cd403a315f,0,12,12,27,1,twofour,,,,,,,,,,,,,,,,,,,,,,,,,,,,,,,,,,,,,,,,,,,,,,,,,,,,,,,,,,,,,,,,,,,,,,,,,,,,,,,,,,,,,,,,,,,,,,,,,,,,,,,,,,,,,,,,,,,,,,,,,,,,,,,,,,,,,,,,,,,,,,,,,,,,,,,,,,,,,
,,,,,,5de0e675a1a3fb13a6e351fc,62c539cac599ec119eba96d7,2022-07-06_10h29.26.485,Colour_Asymmetry_Pilot,2022.1.3,Win32,60.0528465,62c50e9c1127f2cd403a315f,0,13,13,23,1,fourthree,,,,,,,,,,,,,,,,,,,,,,,,,,,,,,,,,,,,,,,,,,,,,,,,,,,,,,,,,,,,,,,,,,,,,,,,,,,,,,,,,,,,,,,,,,,,,,,,,,,,,,,,,,,,,,,,,,,,,,,,,,,,,,,,,,,,,,,,,,,,,,,,,,,,,,,,,,,,,
,,,,,,5de0e675a1a3fb13a6e351fc,62c539cac599ec119eba96d7,2022-07-06_10h29.26.485,Colour_Asymmetry_Pilot,2022.1.3,Win32,60.0528465,62c50e9c1127f2cd403a315f,0,14,14,39,1,fourthree,,,,,,,,,,,,,,,,,,,,,,,,,,,,,,,,,,,,,,,,,,,,,,,,,,,,,,,,,,,,,,,,,,,,,,,,,,,,,,,,,,,,,,,,,,,,,,,,,,,,,,,,,,,,,,,,,,,,,,,,,,,,,,,,,,,,,,,,,,,,,,,,,,,,,,,,,,,,,
,,,,,,5de0e675a1a3fb13a6e351fc,62c539cac599ec119eba96d7,2022-07-06_10h29.26.485,Colour_Asymmetry_Pilot,2022.1.3,Win32,60.0528465,62c50e9c1127f2cd403a315f,0,15,15,65,1,onethree,,,,,,,,,,,,,,,,,,,,,,,,,,,,,,,,,,,,,,,,,,,,,,,,,,,,,,,,,,,,,,,,,,,,,,,,,,,,,,,,,,,,,,,,,,,,,,,,,,,,,,,,,,,,,,,,,,,,,,,,,,,,,,,,,,,,,,,,,,,,,,,,,,,,,,,,,,,,,
,,,,,,5de0e675a1a3fb13a6e351fc,62c539cac599ec119eba96d7,2022-07-06_10h29.26.485,Colour_Asymmetry_Pilot,2022.1.3,Win32,60.0528465,62c50e9c1127f2cd403a315f,0,16,16,68,1,threeone,,,,,,,,,,,,,,,,,,,,,,,,,,,,,,,,,,,,,,,,,,,,,,,,,,,,,,,,,,,,,,,,,,,,,,,,,,,,,,,,,,,,,,,,,,,,,,,,,,,,,,,,,,,,,,,,,,,,,,,,,,,,,,,,,,,,,,,,,,,,,,,,,,,,,,,,,,,,,
,,,,,,5de0e675a1a3fb13a6e351fc,62c539cac599ec119eba96d7,2022-07-06_10h29.26.485,Colour_Asymmetry_Pilot,2022.1.3,Win32,60.0528465,62c50e9c1127f2cd403a315f,0,17,17,69,1,threefour,,,,,,,,,,,,,,,,,,,,,,,,,,,,,,,,,,,,,,,,,,,,,,,,,,,,,,,,,,,,,,,,,,,,,,,,,,,,,,,,,,,,,,,,,,,,,,,,,,,,,,,,,,,,,,,,,,,,,,,,,,,,,,,,,,,,,,,,,,,,,,,,,,,,,,,,,,,,,
,,,,,,5de0e675a1a3fb13a6e351fc,62c539cac599ec119eba96d7,2022-07-06_10h29.26.485,Colour_Asymmetry_Pilot,2022.1.3,Win32,60.0528465,62c50e9c1127f2cd403a315f,0,18,18,160,1,onetwo,,,,,,,,,,,,,,,,,,,,,,,,,,,,,,,,,,,,,,,,,,,,,,,,,,,,,,,,,,,,,,,,,,,,,,,,,,,,,,,,,,,,,,,,,,,,,,,,,,,,,,,,,,,,,,,,,,,,,,,,,,,,,,,,,,,,,,,,,,,,,,,,,,,,,,,,,,,,,
,,,,,,5de0e675a1a3fb13a6e351fc,62c539cac599ec119eba96d7,2022-07-06_10h29.26.485,Colour_Asymmetry_Pilot,2022.1.3,Win32,60.0528465,62c50e9c1127f2cd403a315f,0,19,19,18,1,twoone,,,,,,,,,,,,,,,,,,,,,,,,,,,,,,,,,,,,,,,,,,,,,,,,,,,,,,,,,,,,,,,,,,,,,,,,,,,,,,,,,,,,,,,,,,,,,,,,,,,,,,,,,,,,,,,,,,,,,,,,,,,,,,,,,,,,,,,,,,,,,,,,,,,,,,,,,,,,,
,,,,,,5de0e675a1a3fb13a6e351fc,62c539cac599ec119eba96d7,2022-07-06_10h29.26.485,Colour_Asymmetry_Pilot,2022.1.3,Win32,60.0528465,62c50e9c1127f2cd403a315f,0,20,20,75,1,twofour,,,,,,,,,,,,,,,,,,,,,,,,,,,,,,,,,,,,,,,,,,,,,,,,,,,,,,,,,,,,,,,,,,,,,,,,,,,,,,,,,,,,,,,,,,,,,,,,,,,,,,,,,,,,,,,,,,,,,,,,,,,,,,,,,,,,,,,,,,,,,,,,,,,,,,,,,,,,,
,,,,,,5de0e675a1a3fb13a6e351fc,62c539cac599ec119eba96d7,2022-07-06_10h29.26.485,Colour_Asymmetry_Pilot,2022.1.3,Win32,60.0528465,62c50e9c1127f2cd403a315f,0,21,21,130,1,twoone,,,,,,,,,,,,,,,,,,,,,,,,,,,,,,,,,,,,,,,,,,,,,,,,,,,,,,,,,,,,,,,,,,,,,,,,,,,,,,,,,,,,,,,,,,,,,,,,,,,,,,,,,,,,,,,,,,,,,,,,,,,,,,,,,,,,,,,,,,,,,,,,,,,,,,,,,,,,,
,,,,,,5de0e675a1a3fb13a6e351fc,62c539cac599ec119eba96d7,2022-07-06_10h29.26.485,Colour_Asymmetry_Pilot,2022.1.3,Win32,60.0528465,62c50e9c1127f2cd403a315f,0,22,22,54,1,fourtwo,,,,,,,,,,,,,,,,,,,,,,,,,,,,,,,,,,,,,,,,,,,,,,,,,,,,,,,,,,,,,,,,,,,,,,,,,,,,,,,,,,,,,,,,,,,,,,,,,,,,,,,,,,,,,,,,,,,,,,,,,,,,,,,,,,,,,,,,,,,,,,,,,,,,,,,,,,,,,
,,,,,,5de0e675a1a3fb13a6e351fc,62c539cac599ec119eba96d7,2022-07-06_10h29.26.485,Colour_Asymmetry_Pilot,2022.1.3,Win32,60.0528465,62c50e9c1127f2cd403a315f,0,23,23,118,1,fourtwo,,,,,,,,,,,,,,,,,,,,,,,,,,,,,,,,,,,,,,,,,,,,,,,,,,,,,,,,,,,,,,,,,,,,,,,,,,,,,,,,,,,,,,,,,,,,,,,,,,,,,,,,,,,,,,,,,,,,,,,,,,,,,,,,,,,,,,,,,,,,,,,,,,,,,,,,,,,,,
,,,,,,5de0e675a1a3fb13a6e351fc,62c539cac599ec119eba96d7,2022-07-06_10h29.26.485,Colour_Asymmetry_Pilot,2022.1.3,Win32,60.0528465,62c50e9c1127f2cd403a315f,0,24,24,101,1,threefour,,,,,,,,,,,,,,,,,,,,,,,,,,,,,,,,,,,,,,,,,,,,,,,,,,,,,,,,,,,,,,,,,,,,,,,,,,,,,,,,,,,,,,,,,,,,,,,,,,,,,,,,,,,,,,,,,,,,,,,,,,,,,,,,,,,,,,,,,,,,,,,,,,,,,,,,,,,,,
,,,,,,5de0e675a1a3fb13a6e351fc,62c539cac599ec119eba96d7,2022-07-06_10h29.26.485,Colour_Asymmetry_Pilot,2022.1.3,Win32,60.0528465,62c50e9c1127f2cd403a315f,0,25,25,103,1,fourthree,,,,,,,,,,,,,,,,,,,,,,,,,,,,,,,,,,,,,,,,,,,,,,,,,,,,,,,,,,,,,,,,,,,,,,,,,,,,,,,,,,,,,,,,,,,,,,,,,,,,,,,,,,,,,,,,,,,,,,,,,,,,,,,,,,,,,,,,,,,,,,,,,,,,,,,,,,,,,
,,,,,,5de0e675a1a3fb13a6e351fc,62c539cac599ec119eba96d7,2022-07-06_10h29.26.485,Colour_Asymmetry_Pilot,2022.1.3,Win32,60.0528465,62c50e9c1127f2cd403a315f,0,26,26,136,1,onetwo,,,,,,,,,,,,,,,,,,,,,,,,,,,,,,,,,,,,,,,,,,,,,,,,,,,,,,,,,,,,,,,,,,,,,,,,,,,,,,,,,,,,,,,,,,,,,,,,,,,,,,,,,,,,,,,,,,,,,,,,,,,,,,,,,,,,,,,,,,,,,,,,,,,,,,,,,,,,,
,,,,,,5de0e675a1a3fb13a6e351fc,62c539cac599ec119eba96d7,2022-07-06_10h29.26.485,Colour_Asymmetry_Pilot,2022.1.3,Win32,60.0528465,62c50e9c1127f2cd403a315f,0,27,27,59,1,twofour,,,,,,,,,,,,,,,,,,,,,,,,,,,,,,,,,,,,,,,,,,,,,,,,,,,,,,,,,,,,,,,,,,,,,,,,,,,,,,,,,,,,,,,,,,,,,,,,,,,,,,,,,,,,,,,,,,,,,,,,,,,,,,,,,,,,,,,,,,,,,,,,,,,,,,,,,,,,,
,,,,,,5de0e675a1a3fb13a6e351fc,62c539cac599ec119eba96d7,2022-07-06_10h29.26.485,Colour_Asymmetry_Pilot,2022.1.3,Win32,60.0528465,62c50e9c1127f2cd403a315f,0,28,28,63,1,fourthree,,,,,,,,,,,,,,,,,,,,,,,,,,,,,,,,,,,,,,,,,,,,,,,,,,,,,,,,,,,,,,,,,,,,,,,,,,,,,,,,,,,,,,,,,,,,,,,,,,,,,,,,,,,,,,,,,,,,,,,,,,,,,,,,,,,,,,,,,,,,,,,,,,,,,,,,,,,,,
,,,,,,5de0e675a1a3fb13a6e351fc,62c539cac599ec119eba96d7,2022-07-06_10h29.26.485,Colour_Asymmetry_Pilot,2022.1.3,Win32,60.0528465,62c50e9c1127f2cd403a315f,0,29,29,111,1,fourthree,,,,,,,,,,,,,,,,,,,,,,,,,,,,,,,,,,,,,,,,,,,,,,,,,,,,,,,,,,,,,,,,,,,,,,,,,,,,,,,,,,,,,,,,,,,,,,,,,,,,,,,,,,,,,,,,,,,,,,,,,,,,,,,,,,,,,,,,,,,,,,,,,,,,,,,,,,,,,
,,,,,,5de0e675a1a3fb13a6e351fc,62c539cac599ec119eba96d7,2022-07-06_10h29.26.485,Colour_Asymmetry_Pilot,2022.1.3,Win32,60.0528465,62c50e9c1127f2cd403a315f,0,30,30,52,1,threeone,,,,,,,,,,,,,,,,,,,,,,,,,,,,,,,,,,,,,,,,,,,,,,,,,,,,,,,,,,,,,,,,,,,,,,,,,,,,,,,,,,,,,,,,,,,,,,,,,,,,,,,,,,,,,,,,,,,,,,,,,,,,,,,,,,,,,,,,,,,,,,,,,,,,,,,,,,,,,
,,,,,,5de0e675a1a3fb13a6e351fc,62c539cac599ec119eba96d7,2022-07-06_10h29.26.485,Colour_Asymmetry_Pilot,2022.1.3,Win32,60.0528465,62c50e9c1127f2cd403a315f,0,31,31,55,1,fourthree,,,,,,,,,,,,,,,,,,,,,,,,,,,,,,,,,,,,,,,,,,,,,,,,,,,,,,,,,,,,,,,,,,,,,,,,,,,,,,,,,,,,,,,,,,,,,,,,,,,,,,,,,,,,,,,,,,,,,,,,,,,,,,,,,,,,,,,,,,,,,,,,,,,,,,,,,,,,,
,,,,,,5de0e675a1a3fb13a6e351fc,62c539cac599ec119eba96d7,2022-07-06_10h29.26.485,Colour_Asymmetry_Pilot,2022.1.3,Win32,60.0528465,62c50e9c1127f2cd403a315f,0,32,32,127,1,fourthree,,,,,,,,,,,,,,,,,,,,,,,,,,,,,,,,,,,,,,,,,,,,,,,,,,,,,,,,,,,,,,,,,,,,,,,,,,,,,,,,,,,,,,,,,,,,,,,,,,,,,,,,,,,,,,,,,,,,,,,,,,,,,,,,,,,,,,,,,,,,,,,,,,,,,,,,,,,,,
,,,,,,5de0e675a1a3fb13a6e351fc,62c539cac599ec119eba96d7,2022-07-06_10h29.26.485,Colour_Asymmetry_Pilot,2022.1.3,Win32,60.0528465,62c50e9c1127f2cd403a315f,0,33,33,50,1,twoone,,,,,,,,,,,,,,,,,,,,,,,,,,,,,,,,,,,,,,,,,,,,,,,,,,,,,,,,,,,,,,,,,,,,,,,,,,,,,,,,,,,,,,,,,,,,,,,,,,,,,,,,,,,,,,,,,,,,,,,,,,,,,,,,,,,,,,,,,,,,,,,,,,,,,,,,,,,,,
,,,,,,5de0e675a1a3fb13a6e351fc,62c539cac599ec119eba96d7,2022-07-06_10h29.26.485,Colour_Asymmetry_Pilot,2022.1.3,Win32,60.0528465,62c50e9c1127f2cd403a315f,0,34,34,142,1,fourtwo,,,,,,,,,,,,,,,,,,,,,,,,,,,,,,,,,,,,,,,,,,,,,,,,,,,,,,,,,,,,,,,,,,,,,,,,,,,,,,,,,,,,,,,,,,,,,,,,,,,,,,,,,,,,,,,,,,,,,,,,,,,,,,,,,,,,,,,,,,,,,,,,,,,,,,,,,,,,,
,,,,,,5de0e675a1a3fb13a6e351fc,62c539cac599ec119eba96d7,2022-07-06_10h29.26.485,Colour_Asymmetry_Pilot,2022.1.3,Win32,60.0528465,62c50e9c1127f2cd403a315f,0,35,35,129,1,onethree,,,,,,,,,,,,,,,,,,,,,,,,,,,,,,,,,,,,,,,,,,,,,,,,,,,,,,,,,,,,,,,,,,,,,,,,,,,,,,,,,,,,,,,,,,,,,,,,,,,,,,,,,,,,,,,,,,,,,,,,,,,,,,,,,,,,,,,,,,,,,,,,,,,,,,,,,,,,,
,,,,,,5de0e675a1a3fb13a6e351fc,62c539cac599ec119eba96d7,2022-07-06_10h29.26.485,Colour_Asymmetry_Pilot,2022.1.3,Win32,60.0528465,62c50e9c1127f2cd403a315f,0,36,36,13,1,threefour,,,,,,,,,,,,,,,,,,,,,,,,,,,,,,,,,,,,,,,,,,,,,,,,,,,,,,,,,,,,,,,,,,,,,,,,,,,,,,,,,,,,,,,,,,,,,,,,,,,,,,,,,,,,,,,,,,,,,,,,,,,,,,,,,,,,,,,,,,,,,,,,,,,,,,,,,,,,,
,,,,,,5de0e675a1a3fb13a6e351fc,62c539cac599ec119eba96d7,2022-07-06_10h29.26.485,Colour_Asymmetry_Pilot,2022.1.3,Win32,60.0528465,62c50e9c1127f2cd403a315f,0,37,37,131,1,twofour,,,,,,,,,,,,,,,,,,,,,,,,,,,,,,,,,,,,,,,,,,,,,,,,,,,,,,,,,,,,,,,,,,,,,,,,,,,,,,,,,,,,,,,,,,,,,,,,,,,,,,,,,,,,,,,,,,,,,,,,,,,,,,,,,,,,,,,,,,,,,,,,,,,,,,,,,,,,,
,,,,,,5de0e675a1a3fb13a6e351fc,62c539cac599ec119eba96d7,2022-07-06_10h29.26.485,Colour_Asymmetry_Pilot,2022.1.3,Win32,60.0528465,62c50e9c1127f2cd403a315f,0,38,38,159,1,fourthree,,,,,,,,,,,,,,,,,,,,,,,,,,,,,,,,,,,,,,,,,,,,,,,,,,,,,,,,,,,,,,,,,,,,,,,,,,,,,,,,,,,,,,,,,,,,,,,,,,,,,,,,,,,,,,,,,,,,,,,,,,,,,,,,,,,,,,,,,,,,,,,,,,,,,,,,,,,,,
,,,,,,5de0e675a1a3fb13a6e351fc,62c539cac599ec119eba96d7,2022-07-06_10h29.26.485,Colour_Asymmetry_Pilot,2022.1.3,Win32,60.0528465,62c50e9c1127f2cd403a315f,0,39,39,158,1,fourtwo,,,,,,,,,,,,,,,,,,,,,,,,,,,,,,,,,,,,,,,,,,,,,,,,,,,,,,,,,,,,,,,,,,,,,,,,,,,,,,,,,,,,,,,,,,,,,,,,,,,,,,,,,,,,,,,,,,,,,,,,,,,,,,,,,,,,,,,,,,,,,,,,,,,,,,,,,,,,,
,,,,,,5de0e675a1a3fb13a6e351fc,62c539cac599ec119eba96d7,2022-07-06_10h29.26.485,Colour_Asymmetry_Pilot,2022.1.3,Win32,60.0528465,62c50e9c1127f2cd403a315f,0,40,40,120,1,onetwo,,,,,,,,,,,,,,,,,,,,,,,,,,,,,,,,,,,,,,,,,,,,,,,,,,,,,,,,,,,,,,,,,,,,,,,,,,,,,,,,,,,,,,,,,,,,,,,,,,,,,,,,,,,,,,,,,,,,,,,,,,,,,,,,,,,,,,,,,,,,,,,,,,,,,,,,,,,,,
,,,,,,5de0e675a1a3fb13a6e351fc,62c539cac599ec119eba96d7,2022-07-06_10h29.26.485,Colour_Asymmetry_Pilot,2022.1.3,Win32,60.0528465,62c50e9c1127f2cd403a315f,0,41,41,77,1,threefour,,,,,,,,,,,,,,,,,,,,,,,,,,,,,,,,,,,,,,,,,,,,,,,,,,,,,,,,,,,,,,,,,,,,,,,,,,,,,,,,,,,,,,,,,,,,,,,,,,,,,,,,,,,,,,,,,,,,,,,,,,,,,,,,,,,,,,,,,,,,,,,,,,,,,,,,,,,,,
,,,,,,5de0e675a1a3fb13a6e351fc,62c539cac599ec119eba96d7,2022-07-06_10h29.26.485,Colour_Asymmetry_Pilot,2022.1.3,Win32,60.0528465,62c50e9c1127f2cd403a315f,0,42,42,97,1,onethree,,,,,,,,,,,,,,,,,,,,,,,,,,,,,,,,,,,,,,,,,,,,,,,,,,,,,,,,,,,,,,,,,,,,,,,,,,,,,,,,,,,,,,,,,,,,,,,,,,,,,,,,,,,,,,,,,,,,,,,,,,,,,,,,,,,,,,,,,,,,,,,,,,,,,,,,,,,,,
,,,,,,5de0e675a1a3fb13a6e351fc,62c539cac599ec119eba96d7,2022-07-06_10h29.26.485,Colour_Asymmetry_Pilot,2022.1.3,Win32,60.0528465,62c50e9c1127f2cd403a315f,0,43,43,1,1,onethree,,,,,,,,,,,,,,,,,,,,,,,,,,,,,,,,,,,,,,,,,,,,,,,,,,,,,,,,,,,,,,,,,,,,,,,,,,,,,,,,,,,,,,,,,,,,,,,,,,,,,,,,,,,,,,,,,,,,,,,,,,,,,,,,,,,,,,,,,,,,,,,,,,,,,,,,,,,,,
,,,,,,5de0e675a1a3fb13a6e351fc,62c539cac599ec119eba96d7,2022-07-06_10h29.26.485,Colour_Asymmetry_Pilot,2022.1.3,Win32,60.0528465,62c50e9c1127f2cd403a315f,0,44,44,11,1,twofour,,,,,,,,,,,,,,,,,,,,,,,,,,,,,,,,,,,,,,,,,,,,,,,,,,,,,,,,,,,,,,,,,,,,,,,,,,,,,,,,,,,,,,,,,,,,,,,,,,,,,,,,,,,,,,,,,,,,,,,,,,,,,,,,,,,,,,,,,,,,,,,,,,,,,,,,,,,,,
,,,,,,5de0e675a1a3fb13a6e351fc,62c539cac599ec119eba96d7,2022-07-06_10h29.26.485,Colour_Asymmetry_Pilot,2022.1.3,Win32,60.0528465,62c50e9c1127f2cd403a315f,0,45,45,51,1,twofour,,,,,,,,,,,,,,,,,,,,,,,,,,,,,,,,,,,,,,,,,,,,,,,,,,,,,,,,,,,,,,,,,,,,,,,,,,,,,,,,,,,,,,,,,,,,,,,,,,,,,,,,,,,,,,,,,,,,,,,,,,,,,,,,,,,,,,,,,,,,,,,,,,,,,,,,,,,,,
,,,,,,5de0e675a1a3fb13a6e351fc,62c539cac599ec119eba96d7,2022-07-06_10h29.26.485,Colour_Asymmetry_Pilot,2022.1.3,Win32,60.0528465,62c50e9c1127f2cd403a315f,0,46,46,151,1,fourthree,,,,,,,,,,,,,,,,,,,,,,,,,,,,,,,,,,,,,,,,,,,,,,,,,,,,,,,,,,,,,,,,,,,,,,,,,,,,,,,,,,,,,,,,,,,,,,,,,,,,,,,,,,,,,,,,,,,,,,,,,,,,,,,,,,,,,,,,,,,,,,,,,,,,,,,,,,,,,
,,,,,,5de0e675a1a3fb13a6e351fc,62c539cac599ec119eba96d7,2022-07-06_10h29.26.485,Colour_Asymmetry_Pilot,2022.1.3,Win32,60.0528465,62c50e9c1127f2cd403a315f,0,47,47,121,1,onethree,,,,,,,,,,,,,,,,,,,,,,,,,,,,,,,,,,,,,,,,,,,,,,,,,,,,,,,,,,,,,,,,,,,,,,,,,,,,,,,,,,,,,,,,,,,,,,,,,,,,,,,,,,,,,,,,,,,,,,,,,,,,,,,,,,,,,,,,,,,,,,,,,,,,,,,,,,,,,
,,,,,,5de0e675a1a3fb13a6e351fc,62c539cac599ec119eba96d7,2022-07-06_10h29.26.485,Colour_Asymmetry_Pilot,2022.1.3,Win32,60.0528465,62c50e9c1127f2cd403a315f,0,48,48,156,1,threeone,,,,,,,,,,,,,,,,,,,,,,,,,,,,,,,,,,,,,,,,,,,,,,,,,,,,,,,,,,,,,,,,,,,,,,,,,,,,,,,,,,,,,,,,,,,,,,,,,,,,,,,,,,,,,,,,,,,,,,,,,,,,,,,,,,,,,,,,,,,,,,,,,,,,,,,,,,,,,
,,,,,,5de0e675a1a3fb13a6e351fc,62c539cac599ec119eba96d7,2022-07-06_10h29.26.485,Colour_Asymmetry_Pilot,2022.1.3,Win32,60.0528465,62c50e9c1127f2cd403a315f,0,49,49,53,1,threefour,,,,,,,,,,,,,,,,,,,,,,,,,,,,,,,,,,,,,,,,,,,,,,,,,,,,,,,,,,,,,,,,,,,,,,,,,,,,,,,,,,,,,,,,,,,,,,,,,,,,,,,,,,,,,,,,,,,,,,,,,,,,,,,,,,,,,,,,,,,,,,,,,,,,,,,,,,,,,
,,,,,,5de0e675a1a3fb13a6e351fc,62c539cac599ec119eba96d7,2022-07-06_10h29.26.485,Colour_Asymmetry_Pilot,2022.1.3,Win32,60.0528465,62c50e9c1127f2cd403a315f,0,50,50,113,1,onethree,,,,,,,,,,,,,,,,,,,,,,,,,,,,,,,,,,,,,,,,,,,,,,,,,,,,,,,,,,,,,,,,,,,,,,,,,,,,,,,,,,,,,,,,,,,,,,,,,,,,,,,,,,,,,,,,,,,,,,,,,,,,,,,,,,,,,,,,,,,,,,,,,,,,,,,,,,,,,
,,,,,,5de0e675a1a3fb13a6e351fc,62c539cac599ec119eba96d7,2022-07-06_10h29.26.485,Colour_Asymmetry_Pilot,2022.1.3,Win32,60.0528465,62c50e9c1127f2cd403a315f,0,51,51,147,1,twofour,,,,,,,,,,,,,,,,,,,,,,,,,,,,,,,,,,,,,,,,,,,,,,,,,,,,,,,,,,,,,,,,,,,,,,,,,,,,,,,,,,,,,,,,,,,,,,,,,,,,,,,,,,,,,,,,,,,,,,,,,,,,,,,,,,,,,,,,,,,,,,,,,,,,,,,,,,,,,
,,,,,,5de0e675a1a3fb13a6e351fc,62c539cac599ec119eba96d7,2022-07-06_10h29.26.485,Colour_Asymmetry_Pilot,2022.1.3,Win32,60.0528465,62c50e9c1127f2cd403a315f,0,52,52,66,1,twoone,,,,,,,,,,,,,,,,,,,,,,,,,,,,,,,,,,,,,,,,,,,,,,,,,,,,,,,,,,,,,,,,,,,,,,,,,,,,,,,,,,,,,,,,,,,,,,,,,,,,,,,,,,,,,,,,,,,,,,,,,,,,,,,,,,,,,,,,,,,,,,,,,,,,,,,,,,,,,
,,,,,,5de0e675a1a3fb13a6e351fc,62c539cac599ec119eba96d7,2022-07-06_10h29.26.485,Colour_Asymmetry_Pilot,2022.1.3,Win32,60.0528465,62c50e9c1127f2cd403a315f,0,53,53,107,1,twofour,,,,,,,,,,,,,,,,,,,,,,,,,,,,,,,,,,,,,,,,,,,,,,,,,,,,,,,,,,,,,,,,,,,,,,,,,,,,,,,,,,,,,,,,,,,,,,,,,,,,,,,,,,,,,,,,,,,,,,,,,,,,,,,,,,,,,,,,,,,,,,,,,,,,,,,,,,,,,
,,,,,,5de0e675a1a3fb13a6e351fc,62c539cac599ec119eba96d7,2022-07-06_10h29.26.485,Colour_Asymmetry_Pilot,2022.1.3,Win32,60.0528465,62c50e9c1127f2cd403a315f,0,54,54,37,1,threefour,,,,,,,,,,,,,,,,,,,,,,,,,,,,,,,,,,,,,,,,,,,,,,,,,,,,,,,,,,,,,,,,,,,,,,,,,,,,,,,,,,,,,,,,,,,,,,,,,,,,,,,,,,,,,,,,,,,,,,,,,,,,,,,,,,,,,,,,,,,,,,,,,,,,,,,,,,,,,
,,,,,,5de0e675a1a3fb13a6e351fc,62c539cac599ec119eba96d7,2022-07-06_10h29.26.485,Colour_Asymmetry_Pilot,2022.1.3,Win32,60.0528465,62c50e9c1127f2cd403a315f,0,55,55,138,1,twoone,,,,,,,,,,,,,,,,,,,,,,,,,,,,,,,,,,,,,,,,,,,,,,,,,,,,,,,,,,,,,,,,,,,,,,,,,,,,,,,,,,,,,,,,,,,,,,,,,,,,,,,,,,,,,,,,,,,,,,,,,,,,,,,,,,,,,,,,,,,,,,,,,,,,,,,,,,,,,
,,,,,,5de0e675a1a3fb13a6e351fc,62c539cac599ec119eba96d7,2022-07-06_10h29.26.485,Colour_Asymmetry_Pilot,2022.1.3,Win32,60.0528465,62c50e9c1127f2cd403a315f,0,56,56,71,1,fourthree,,,,,,,,,,,,,,,,,,,,,,,,,,,,,,,,,,,,,,,,,,,,,,,,,,,,,,,,,,,,,,,,,,,,,,,,,,,,,,,,,,,,,,,,,,,,,,,,,,,,,,,,,,,,,,,,,,,,,,,,,,,,,,,,,,,,,,,,,,,,,,,,,,,,,,,,,,,,,
,,,,,,5de0e675a1a3fb13a6e351fc,62c539cac599ec119eba96d7,2022-07-06_10h29.26.485,Colour_Asymmetry_Pilot,2022.1.3,Win32,60.0528465,62c50e9c1127f2cd403a315f,0,57,57,9,1,onethree,,,,,,,,,,,,,,,,,,,,,,,,,,,,,,,,,,,,,,,,,,,,,,,,,,,,,,,,,,,,,,,,,,,,,,,,,,,,,,,,,,,,,,,,,,,,,,,,,,,,,,,,,,,,,,,,,,,,,,,,,,,,,,,,,,,,,,,,,,,,,,,,,,,,,,,,,,,,,
,,,,,,5de0e675a1a3fb13a6e351fc,62c539cac599ec119eba96d7,2022-07-06_10h29.26.485,Colour_Asymmetry_Pilot,2022.1.3,Win32,60.0528465,62c50e9c1127f2cd403a315f,0,58,58,94,1,fourtwo,,,,,,,,,,,,,,,,,,,,,,,,,,,,,,,,,,,,,,,,,,,,,,,,,,,,,,,,,,,,,,,,,,,,,,,,,,,,,,,,,,,,,,,,,,,,,,,,,,,,,,,,,,,,,,,,,,,,,,,,,,,,,,,,,,,,,,,,,,,,,,,,,,,,,,,,,,,,,
,,,,,,5de0e675a1a3fb13a6e351fc,62c539cac599ec119eba96d7,2022-07-06_10h29.26.485,Colour_Asymmetry_Pilot,2022.1.3,Win32,60.0528465,62c50e9c1127f2cd403a315f,0,59,59,25,1,onethree,,,,,,,,,,,,,,,,,,,,,,,,,,,,,,,,,,,,,,,,,,,,,,,,,,,,,,,,,,,,,,,,,,,,,,,,,,,,,,,,,,,,,,,,,,,,,,,,,,,,,,,,,,,,,,,,,,,,,,,,,,,,,,,,,,,,,,,,,,,,,,,,,,,,,,,,,,,,,
,,,,,,5de0e675a1a3fb13a6e351fc,62c539cac599ec119eba96d7,2022-07-06_10h29.26.485,Colour_Asymmetry_Pilot,2022.1.3,Win32,60.0528465,62c50e9c1127f2cd403a315f,0,60,60,62,1,fourtwo,,,,,,,,,,,,,,,,,,,,,,,,,,,,,,,,,,,,,,,,,,,,,,,,,,,,,,,,,,,,,,,,,,,,,,,,,,,,,,,,,,,,,,,,,,,,,,,,,,,,,,,,,,,,,,,,,,,,,,,,,,,,,,,,,,,,,,,,,,,,,,,,,,,,,,,,,,,,,
,,,,,,5de0e675a1a3fb13a6e351fc,62c539cac599ec119eba96d7,2022-07-06_10h29.26.485,Colour_Asymmetry_Pilot,2022.1.3,Win32,60.0528465,62c50e9c1127f2cd403a315f,0,61,61,123,1,twofour,,,,,,,,,,,,,,,,,,,,,,,,,,,,,,,,,,,,,,,,,,,,,,,,,,,,,,,,,,,,,,,,,,,,,,,,,,,,,,,,,,,,,,,,,,,,,,,,,,,,,,,,,,,,,,,,,,,,,,,,,,,,,,,,,,,,,,,,,,,,,,,,,,,,,,,,,,,,,
,,,,,,5de0e675a1a3fb13a6e351fc,62c539cac599ec119eba96d7,2022-07-06_10h29.26.485,Colour_Asymmetry_Pilot,2022.1.3,Win32,60.0528465,62c50e9c1127f2cd403a315f,0,62,62,70,1,fourtwo,,,,,,,,,,,,,,,,,,,,,,,,,,,,,,,,,,,,,,,,,,,,,,,,,,,,,,,,,,,,,,,,,,,,,,,,,,,,,,,,,,,,,,,,,,,,,,,,,,,,,,,,,,,,,,,,,,,,,,,,,,,,,,,,,,,,,,,,,,,,,,,,,,,,,,,,,,,,,
,,,,,,5de0e675a1a3fb13a6e351fc,62c539cac599ec119eba96d7,2022-07-06_10h29.26.485,Colour_Asymmetry_Pilot,2022.1.3,Win32,60.0528465,62c50e9c1127f2cd403a315f,0,63,63,128,1,onetwo,,,,,,,,,,,,,,,,,,,,,,,,,,,,,,,,,,,,,,,,,,,,,,,,,,,,,,,,,,,,,,,,,,,,,,,,,,,,,,,,,,,,,,,,,,,,,,,,,,,,,,,,,,,,,,,,,,,,,,,,,,,,,,,,,,,,,,,,,,,,,,,,,,,,,,,,,,,,,
,,,,,,5de0e675a1a3fb13a6e351fc,62c539cac599ec119eba96d7,2022-07-06_10h29.26.485,Colour_Asymmetry_Pilot,2022.1.3,Win32,60.0528465,62c50e9c1127f2cd403a315f,0,64,64,64,1,onetwo,,,,,,,,,,,,,,,,,,,,,,,,,,,,,,,,,,,,,,,,,,,,,,,,,,,,,,,,,,,,,,,,,,,,,,,,,,,,,,,,,,,,,,,,,,,,,,,,,,,,,,,,,,,,,,,,,,,,,,,,,,,,,,,,,,,,,,,,,,,,,,,,,,,,,,,,,,,,,
,,,,,,5de0e675a1a3fb13a6e351fc,62c539cac599ec119eba96d7,2022-07-06_10h29.26.485,Colour_Asymmetry_Pilot,2022.1.3,Win32,60.0528465,62c50e9c1127f2cd403a315f,0,65,65,12,1,threeone,,,,,,,,,,,,,,,,,,,,,,,,,,,,,,,,,,,,,,,,,,,,,,,,,,,,,,,,,,,,,,,,,,,,,,,,,,,,,,,,,,,,,,,,,,,,,,,,,,,,,,,,,,,,,,,,,,,,,,,,,,,,,,,,,,,,,,,,,,,,,,,,,,,,,,,,,,,,,
,,,,,,5de0e675a1a3fb13a6e351fc,62c539cac599ec119eba96d7,2022-07-06_10h29.26.485,Colour_Asymmetry_Pilot,2022.1.3,Win32,60.0528465,62c50e9c1127f2cd403a315f,0,66,66,76,1,threeone,,,,,,,,,,,,,,,,,,,,,,,,,,,,,,,,,,,,,,,,,,,,,,,,,,,,,,,,,,,,,,,,,,,,,,,,,,,,,,,,,,,,,,,,,,,,,,,,,,,,,,,,,,,,,,,,,,,,,,,,,,,,,,,,,,,,,,,,,,,,,,,,,,,,,,,,,,,,,
,,,,,,5de0e675a1a3fb13a6e351fc,62c539cac599ec119eba96d7,2022-07-06_10h29.26.485,Colour_Asymmetry_Pilot,2022.1.3,Win32,60.0528465,62c50e9c1127f2cd403a315f,0,67,67,78,1,fourtwo,,,,,,,,,,,,,,,,,,,,,,,,,,,,,,,,,,,,,,,,,,,,,,,,,,,,,,,,,,,,,,,,,,,,,,,,,,,,,,,,,,,,,,,,,,,,,,,,,,,,,,,,,,,,,,,,,,,,,,,,,,,,,,,,,,,,,,,,,,,,,,,,,,,,,,,,,,,,,
,,,,,,5de0e675a1a3fb13a6e351fc,62c539cac599ec119eba96d7,2022-07-06_10h29.26.485,Colour_Asymmetry_Pilot,2022.1.3,Win32,60.0528465,62c50e9c1127f2cd403a315f,0,68,68,109,1,threefour,,,,,,,,,,,,,,,,,,,,,,,,,,,,,,,,,,,,,,,,,,,,,,,,,,,,,,,,,,,,,,,,,,,,,,,,,,,,,,,,,,,,,,,,,,,,,,,,,,,,,,,,,,,,,,,,,,,,,,,,,,,,,,,,,,,,,,,,,,,,,,,,,,,,,,,,,,,,,
,,,,,,5de0e675a1a3fb13a6e351fc,62c539cac599ec119eba96d7,2022-07-06_10h29.26.485,Colour_Asymmetry_Pilot,2022.1.3,Win32,60.0528465,62c50e9c1127f2cd403a315f,0,69,69,100,1,threeone,,,,,,,,,,,,,,,,,,,,,,,,,,,,,,,,,,,,,,,,,,,,,,,,,,,,,,,,,,,,,,,,,,,,,,,,,,,,,,,,,,,,,,,,,,,,,,,,,,,,,,,,,,,,,,,,,,,,,,,,,,,,,,,,,,,,,,,,,,,,,,,,,,,,,,,,,,,,,
,,,,,,5de0e675a1a3fb13a6e351fc,62c539cac599ec119eba96d7,2022-07-06_10h29.26.485,Colour_Asymmetry_Pilot,2022.1.3,Win32,60.0528465,62c50e9c1127f2cd403a315f,0,70,70,119,1,fourthree,,,,,,,,,,,,,,,,,,,,,,,,,,,,,,,,,,,,,,,,,,,,,,,,,,,,,,,,,,,,,,,,,,,,,,,,,,,,,,,,,,,,,,,,,,,,,,,,,,,,,,,,,,,,,,,,,,,,,,,,,,,,,,,,,,,,,,,,,,,,,,,,,,,,,,,,,,,,,
,,,,,,5de0e675a1a3fb13a6e351fc,62c539cac599ec119eba96d7,2022-07-06_10h29.26.485,Colour_Asymmetry_Pilot,2022.1.3,Win32,60.0528465,62c50e9c1127f2cd403a315f,0,71,71,155,1,twofour,,,,,,,,,,,,,,,,,,,,,,,,,,,,,,,,,,,,,,,,,,,,,,,,,,,,,,,,,,,,,,,,,,,,,,,,,,,,,,,,,,,,,,,,,,,,,,,,,,,,,,,,,,,,,,,,,,,,,,,,,,,,,,,,,,,,,,,,,,,,,,,,,,,,,,,,,,,,,
,,,,,,5de0e675a1a3fb13a6e351fc,62c539cac599ec119eba96d7,2022-07-06_10h29.26.485,Colour_Asymmetry_Pilot,2022.1.3,Win32,60.0528465,62c50e9c1127f2cd403a315f,0,72,72,10,1,twoone,,,,,,,,,,,,,,,,,,,,,,,,,,,,,,,,,,,,,,,,,,,,,,,,,,,,,,,,,,,,,,,,,,,,,,,,,,,,,,,,,,,,,,,,,,,,,,,,,,,,,,,,,,,,,,,,,,,,,,,,,,,,,,,,,,,,,,,,,,,,,,,,,,,,,,,,,,,,,
,,,,,,5de0e675a1a3fb13a6e351fc,62c539cac599ec119eba96d7,2022-07-06_10h29.26.485,Colour_Asymmetry_Pilot,2022.1.3,Win32,60.0528465,62c50e9c1127f2cd403a315f,0,73,73,95,1,fourthree,,,,,,,,,,,,,,,,,,,,,,,,,,,,,,,,,,,,,,,,,,,,,,,,,,,,,,,,,,,,,,,,,,,,,,,,,,,,,,,,,,,,,,,,,,,,,,,,,,,,,,,,,,,,,,,,,,,,,,,,,,,,,,,,,,,,,,,,,,,,,,,,,,,,,,,,,,,,,
,,,,,,5de0e675a1a3fb13a6e351fc,62c539cac599ec119eba96d7,2022-07-06_10h29.26.485,Colour_Asymmetry_Pilot,2022.1.3,Win32,60.0528465,62c50e9c1127f2cd403a315f,0,74,74,56,1,onetwo,,,,,,,,,,,,,,,,,,,,,,,,,,,,,,,,,,,,,,,,,,,,,,,,,,,,,,,,,,,,,,,,,,,,,,,,,,,,,,,,,,,,,,,,,,,,,,,,,,,,,,,,,,,,,,,,,,,,,,,,,,,,,,,,,,,,,,,,,,,,,,,,,,,,,,,,,,,,,
,,,,,,5de0e675a1a3fb13a6e351fc,62c539cac599ec119eba96d7,2022-07-06_10h29.26.485,Colour_Asymmetry_Pilot,2022.1.3,Win32,60.0528465,62c50e9c1127f2cd403a315f,0,75,75,110,1,fourtwo,,,,,,,,,,,,,,,,,,,,,,,,,,,,,,,,,,,,,,,,,,,,,,,,,,,,,,,,,,,,,,,,,,,,,,,,,,,,,,,,,,,,,,,,,,,,,,,,,,,,,,,,,,,,,,,,,,,,,,,,,,,,,,,,,,,,,,,,,,,,,,,,,,,,,,,,,,,,,
,,,,,,5de0e675a1a3fb13a6e351fc,62c539cac599ec119eba96d7,2022-07-06_10h29.26.485,Colour_Asymmetry_Pilot,2022.1.3,Win32,60.0528465,62c50e9c1127f2cd403a315f,0,76,76,132,1,threeone,,,,,,,,,,,,,,,,,,,,,,,,,,,,,,,,,,,,,,,,,,,,,,,,,,,,,,,,,,,,,,,,,,,,,,,,,,,,,,,,,,,,,,,,,,,,,,,,,,,,,,,,,,,,,,,,,,,,,,,,,,,,,,,,,,,,,,,,,,,,,,,,,,,,,,,,,,,,,
,,,,,,5de0e675a1a3fb13a6e351fc,62c539cac599ec119eba96d7,2022-07-06_10h29.26.485,Colour_Asymmetry_Pilot,2022.1.3,Win32,60.0528465,62c50e9c1127f2cd403a315f,0,77,77,148,1,threeone,,,,,,,,,,,,,,,,,,,,,,,,,,,,,,,,,,,,,,,,,,,,,,,,,,,,,,,,,,,,,,,,,,,,,,,,,,,,,,,,,,,,,,,,,,,,,,,,,,,,,,,,,,,,,,,,,,,,,,,,,,,,,,,,,,,,,,,,,,,,,,,,,,,,,,,,,,,,,
,,,,,,5de0e675a1a3fb13a6e351fc,62c539cac599ec119eba96d7,2022-07-06_10h29.26.485,Colour_Asymmetry_Pilot,2022.1.3,Win32,60.0528465,62c50e9c1127f2cd403a315f,0,78,78,49,1,onethree,,,,,,,,,,,,,,,,,,,,,,,,,,,,,,,,,,,,,,,,,,,,,,,,,,,,,,,,,,,,,,,,,,,,,,,,,,,,,,,,,,,,,,,,,,,,,,,,,,,,,,,,,,,,,,,,,,,,,,,,,,,,,,,,,,,,,,,,,,,,,,,,,,,,,,,,,,,,,
,,,,,,5de0e675a1a3fb13a6e351fc,62c539cac599ec119eba96d7,2022-07-06_10h29.26.485,Colour_Asymmetry_Pilot,2022.1.3,Win32,60.0528465,62c50e9c1127f2cd403a315f,0,79,79,31,1,fourthree,,,,,,,,,,,,,,,,,,,,,,,,,,,,,,,,,,,,,,,,,,,,,,,,,,,,,,,,,,,,,,,,,,,,,,,,,,,,,,,,,,,,,,,,,,,,,,,,,,,,,,,,,,,,,,,,,,,,,,,,,,,,,,,,,,,,,,,,,,,,,,,,,,,,,,,,,,,,,
,,,,,,5de0e675a1a3fb13a6e351fc,62c539cac599ec119eba96d7,2022-07-06_10h29.26.485,Colour_Asymmetry_Pilot,2022.1.3,Win32,60.0528465,62c50e9c1127f2cd403a315f,0,80,80,124,1,threeone,,,,,,,,,,,,,,,,,,,,,,,,,,,,,,,,,,,,,,,,,,,,,,,,,,,,,,,,,,,,,,,,,,,,,,,,,,,,,,,,,,,,,,,,,,,,,,,,,,,,,,,,,,,,,,,,,,,,,,,,,,,,,,,,,,,,,,,,,,,,,,,,,,,,,,,,,,,,,
,,,,,,5de0e675a1a3fb13a6e351fc,62c539cac599ec119eba96d7,2022-07-06_10h29.26.485,Colour_Asymmetry_Pilot,2022.1.3,Win32,60.0528465,62c50e9c1127f2cd403a315f,0,81,81,73,1,onethree,,,,,,,,,,,,,,,,,,,,,,,,,,,,,,,,,,,,,,,,,,,,,,,,,,,,,,,,,,,,,,,,,,,,,,,,,,,,,,,,,,,,,,,,,,,,,,,,,,,,,,,,,,,,,,,,,,,,,,,,,,,,,,,,,,,,,,,,,,,,,,,,,,,,,,,,,,,,,
,,,,,,5de0e675a1a3fb13a6e351fc,62c539cac599ec119eba96d7,2022-07-06_10h29.26.485,Colour_Asymmetry_Pilot,2022.1.3,Win32,60.0528465,62c50e9c1127f2cd403a315f,0,82,82,22,1,fourtwo,,,,,,,,,,,,,,,,,,,,,,,,,,,,,,,,,,,,,,,,,,,,,,,,,,,,,,,,,,,,,,,,,,,,,,,,,,,,,,,,,,,,,,,,,,,,,,,,,,,,,,,,,,,,,,,,,,,,,,,,,,,,,,,,,,,,,,,,,,,,,,,,,,,,,,,,,,,,,
,,,,,,5de0e675a1a3fb13a6e351fc,62c539cac599ec119eba96d7,2022-07-06_10h29.26.485,Colour_Asymmetry_Pilot,2022.1.3,Win32,60.0528465,62c50e9c1127f2cd403a315f,0,83,83,150,1,fourtwo,,,,,,,,,,,,,,,,,,,,,,,,,,,,,,,,,,,,,,,,,,,,,,,,,,,,,,,,,,,,,,,,,,,,,,,,,,,,,,,,,,,,,,,,,,,,,,,,,,,,,,,,,,,,,,,,,,,,,,,,,,,,,,,,,,,,,,,,,,,,,,,,,,,,,,,,,,,,,
,,,,,,5de0e675a1a3fb13a6e351fc,62c539cac599ec119eba96d7,2022-07-06_10h29.26.485,Colour_Asymmetry_Pilot,2022.1.3,Win32,60.0528465,62c50e9c1127f2cd403a315f,0,84,84,42,1,twoone,,,,,,,,,,,,,,,,,,,,,,,,,,,,,,,,,,,,,,,,,,,,,,,,,,,,,,,,,,,,,,,,,,,,,,,,,,,,,,,,,,,,,,,,,,,,,,,,,,,,,,,,,,,,,,,,,,,,,,,,,,,,,,,,,,,,,,,,,,,,,,,,,,,,,,,,,,,,,
,,,,,,5de0e675a1a3fb13a6e351fc,62c539cac599ec119eba96d7,2022-07-06_10h29.26.485,Colour_Asymmetry_Pilot,2022.1.3,Win32,60.0528465,62c50e9c1127f2cd403a315f,0,85,85,79,1,fourthree,,,,,,,,,,,,,,,,,,,,,,,,,,,,,,,,,,,,,,,,,,,,,,,,,,,,,,,,,,,,,,,,,,,,,,,,,,,,,,,,,,,,,,,,,,,,,,,,,,,,,,,,,,,,,,,,,,,,,,,,,,,,,,,,,,,,,,,,,,,,,,,,,,,,,,,,,,,,,
,,,,,,5de0e675a1a3fb13a6e351fc,62c539cac599ec119eba96d7,2022-07-06_10h29.26.485,Colour_Asymmetry_Pilot,2022.1.3,Win32,60.0528465,62c50e9c1127f2cd403a315f,0,86,86,81,1,onethree,,,,,,,,,,,,,,,,,,,,,,,,,,,,,,,,,,,,,,,,,,,,,,,,,,,,,,,,,,,,,,,,,,,,,,,,,,,,,,,,,,,,,,,,,,,,,,,,,,,,,,,,,,,,,,,,,,,,,,,,,,,,,,,,,,,,,,,,,,,,,,,,,,,,,,,,,,,,,
,,,,,,5de0e675a1a3fb13a6e351fc,62c539cac599ec119eba96d7,2022-07-06_10h29.26.485,Colour_Asymmetry_Pilot,2022.1.3,Win32,60.0528465,62c50e9c1127f2cd403a315f,0,87,87,83,1,twofour,,,,,,,,,,,,,,,,,,,,,,,,,,,,,,,,,,,,,,,,,,,,,,,,,,,,,,,,,,,,,,,,,,,,,,,,,,,,,,,,,,,,,,,,,,,,,,,,,,,,,,,,,,,,,,,,,,,,,,,,,,,,,,,,,,,,,,,,,,,,,,,,,,,,,,,,,,,,,
,,,,,,5de0e675a1a3fb13a6e351fc,62c539cac599ec119eba96d7,2022-07-06_10h29.26.485,Colour_Asymmetry_Pilot,2022.1.3,Win32,60.0528465,62c50e9c1127f2cd403a315f,0,88,88,102,1,fourtwo,,,,,,,,,,,,,,,,,,,,,,,,,,,,,,,,,,,,,,,,,,,,,,,,,,,,,,,,,,,,,,,,,,,,,,,,,,,,,,,,,,,,,,,,,,,,,,,,,,,,,,,,,,,,,,,,,,,,,,,,,,,,,,,,,,,,,,,,,,,,,,,,,,,,,,,,,,,,,
,,,,,,5de0e675a1a3fb13a6e351fc,62c539cac599ec119eba96d7,2022-07-06_10h29.26.485,Colour_Asymmetry_Pilot,2022.1.3,Win32,60.0528465,62c50e9c1127f2cd403a315f,0,89,89,104,1,onetwo,,,,,,,,,,,,,,,,,,,,,,,,,,,,,,,,,,,,,,,,,,,,,,,,,,,,,,,,,,,,,,,,,,,,,,,,,,,,,,,,,,,,,,,,,,,,,,,,,,,,,,,,,,,,,,,,,,,,,,,,,,,,,,,,,,,,,,,,,,,,,,,,,,,,,,,,,,,,,
,,,,,,5de0e675a1a3fb13a6e351fc,62c539cac599ec119eba96d7,2022-07-06_10h29.26.485,Colour_Asymmetry_Pilot,2022.1.3,Win32,60.0528465,62c50e9c1127f2cd403a315f,0,90,90,28,1,threeone,,,,,,,,,,,,,,,,,,,,,,,,,,,,,,,,,,,,,,,,,,,,,,,,,,,,,,,,,,,,,,,,,,,,,,,,,,,,,,,,,,,,,,,,,,,,,,,,,,,,,,,,,,,,,,,,,,,,,,,,,,,,,,,,,,,,,,,,,,,,,,,,,,,,,,,,,,,,,
,,,,,,5de0e675a1a3fb13a6e351fc,62c539cac599ec119eba96d7,2022-07-06_10h29.26.485,Colour_Asymmetry_Pilot,2022.1.3,Win32,60.0528465,62c50e9c1127f2cd403a315f,0,91,91,89,1,onethree,,,,,,,,,,,,,,,,,,,,,,,,,,,,,,,,,,,,,,,,,,,,,,,,,,,,,,,,,,,,,,,,,,,,,,,,,,,,,,,,,,,,,,,,,,,,,,,,,,,,,,,,,,,,,,,,,,,,,,,,,,,,,,,,,,,,,,,,,,,,,,,,,,,,,,,,,,,,,
,,,,,,5de0e675a1a3fb13a6e351fc,62c539cac599ec119eba96d7,2022-07-06_10h29.26.485,Colour_Asymmetry_Pilot,2022.1.3,Win32,60.0528465,62c50e9c1127f2cd403a315f,0,92,92,146,1,twoone,,,,,,,,,,,,,,,,,,,,,,,,,,,,,,,,,,,,,,,,,,,,,,,,,,,,,,,,,,,,,,,,,,,,,,,,,,,,,,,,,,,,,,,,,,,,,,,,,,,,,,,,,,,,,,,,,,,,,,,,,,,,,,,,,,,,,,,,,,,,,,,,,,,,,,,,,,,,,
,,,,,,5de0e675a1a3fb13a6e351fc,62c539cac599ec119eba96d7,2022-07-06_10h29.26.485,Colour_Asymmetry_Pilot,2022.1.3,Win32,60.0528465,62c50e9c1127f2cd403a315f,0,93,93,98,1,twoone,,,,,,,,,,,,,,,,,,,,,,,,,,,,,,,,,,,,,,,,,,,,,,,,,,,,,,,,,,,,,,,,,,,,,,,,,,,,,,,,,,,,,,,,,,,,,,,,,,,,,,,,,,,,,,,,,,,,,,,,,,,,,,,,,,,,,,,,,,,,,,,,,,,,,,,,,,,,,
,,,,,,5de0e675a1a3fb13a6e351fc,62c539cac599ec119eba96d7,2022-07-06_10h29.26.485,Colour_Asymmetry_Pilot,2022.1.3,Win32,60.0528465,62c50e9c1127f2cd403a315f,0,94,94,154,1,twoone,,,,,,,,,,,,,,,,,,,,,,,,,,,,,,,,,,,,,,,,,,,,,,,,,,,,,,,,,,,,,,,,,,,,,,,,,,,,,,,,,,,,,,,,,,,,,,,,,,,,,,,,,,,,,,,,,,,,,,,,,,,,,,,,,,,,,,,,,,,,,,,,,,,,,,,,,,,,,
,,,,,,5de0e675a1a3fb13a6e351fc,62c539cac599ec119eba96d7,2022-07-06_10h29.26.485,Colour_Asymmetry_Pilot,2022.1.3,Win32,60.0528465,62c50e9c1127f2cd403a315f,0,95,95,61,1,threefour,,,,,,,,,,,,,,,,,,,,,,,,,,,,,,,,,,,,,,,,,,,,,,,,,,,,,,,,,,,,,,,,,,,,,,,,,,,,,,,,,,,,,,,,,,,,,,,,,,,,,,,,,,,,,,,,,,,,,,,,,,,,,,,,,,,,,,,,,,,,,,,,,,,,,,,,,,,,,
,,,,,,5de0e675a1a3fb13a6e351fc,62c539cac599ec119eba96d7,2022-07-06_10h29.26.485,Colour_Asymmetry_Pilot,2022.1.3,Win32,60.0528465,62c50e9c1127f2cd403a315f,0,96,96,20,1,threeone,,,,,,,,,,,,,,,,,,,,,,,,,,,,,,,,,,,,,,,,,,,,,,,,,,,,,,,,,,,,,,,,,,,,,,,,,,,,,,,,,,,,,,,,,,,,,,,,,,,,,,,,,,,,,,,,,,,,,,,,,,,,,,,,,,,,,,,,,,,,,,,,,,,,,,,,,,,,,
,,,,,,5de0e675a1a3fb13a6e351fc,62c539cac599ec119eba96d7,2022-07-06_10h29.26.485,Colour_Asymmetry_Pilot,2022.1.3,Win32,60.0528465,62c50e9c1127f2cd403a315f,0,97,97,67,1,twofour,,,,,,,,,,,,,,,,,,,,,,,,,,,,,,,,,,,,,,,,,,,,,,,,,,,,,,,,,,,,,,,,,,,,,,,,,,,,,,,,,,,,,,,,,,,,,,,,,,,,,,,,,,,,,,,,,,,,,,,,,,,,,,,,,,,,,,,,,,,,,,,,,,,,,,,,,,,,,
,,,,,,5de0e675a1a3fb13a6e351fc,62c539cac599ec119eba96d7,2022-07-06_10h29.26.485,Colour_Asymmetry_Pilot,2022.1.3,Win32,60.0528465,62c50e9c1127f2cd403a315f,0,98,98,153,1,onethree,,,,,,,,,,,,,,,,,,,,,,,,,,,,,,,,,,,,,,,,,,,,,,,,,,,,,,,,,,,,,,,,,,,,,,,,,,,,,,,,,,,,,,,,,,,,,,,,,,,,,,,,,,,,,,,,,,,,,,,,,,,,,,,,,,,,,,,,,,,,,,,,,,,,,,,,,,,,,
,,,,,,5de0e675a1a3fb13a6e351fc,62c539cac599ec119eba96d7,2022-07-06_10h29.26.485,Colour_Asymmetry_Pilot,2022.1.3,Win32,60.0528465,62c50e9c1127f2cd403a315f,0,99,99,139,1,twofour,,,,,,,,,,,,,,,,,,,,,,,,,,,,,,,,,,,,,,,,,,,,,,,,,,,,,,,,,,,,,,,,,,,,,,,,,,,,,,,,,,,,,,,,,,,,,,,,,,,,,,,,,,,,,,,,,,,,,,,,,,,,,,,,,,,,,,,,,,,,,,,,,,,,,,,,,,,,,
,,,,,,5de0e675a1a3fb13a6e351fc,62c539cac599ec119eba96d7,2022-07-06_10h29.26.485,Colour_Asymmetry_Pilot,2022.1.3,Win32,60.0528465,62c50e9c1127f2cd403a315f,0,100,100,74,1,twoone,,,,,,,,,,,,,,,,,,,,,,,,,,,,,,,,,,,,,,,,,,,,,,,,,,,,,,,,,,,,,,,,,,,,,,,,,,,,,,,,,,,,,,,,,,,,,,,,,,,,,,,,,,,,,,,,,,,,,,,,,,,,,,,,,,,,,,,,,,,,,,,,,,,,,,,,,,,,,
,,,,,,5de0e675a1a3fb13a6e351fc,62c539cac599ec119eba96d7,2022-07-06_10h29.26.485,Colour_Asymmetry_Pilot,2022.1.3,Win32,60.0528465,62c50e9c1127f2cd403a315f,0,101,101,115,1,twofour,,,,,,,,,,,,,,,,,,,,,,,,,,,,,,,,,,,,,,,,,,,,,,,,,,,,,,,,,,,,,,,,,,,,,,,,,,,,,,,,,,,,,,,,,,,,,,,,,,,,,,,,,,,,,,,,,,,,,,,,,,,,,,,,,,,,,,,,,,,,,,,,,,,,,,,,,,,,,
,,,,,,5de0e675a1a3fb13a6e351fc,62c539cac599ec119eba96d7,2022-07-06_10h29.26.485,Colour_Asymmetry_Pilot,2022.1.3,Win32,60.0528465,62c50e9c1127f2cd403a315f,0,102,102,6,1,fourtwo,,,,,,,,,,,,,,,,,,,,,,,,,,,,,,,,,,,,,,,,,,,,,,,,,,,,,,,,,,,,,,,,,,,,,,,,,,,,,,,,,,,,,,,,,,,,,,,,,,,,,,,,,,,,,,,,,,,,,,,,,,,,,,,,,,,,,,,,,,,,,,,,,,,,,,,,,,,,,
,,,,,,5de0e675a1a3fb13a6e351fc,62c539cac599ec119eba96d7,2022-07-06_10h29.26.485,Colour_Asymmetry_Pilot,2022.1.3,Win32,60.0528465,62c50e9c1127f2cd403a315f,0,103,103,96,1,onetwo,,,,,,,,,,,,,,,,,,,,,,,,,,,,,,,,,,,,,,,,,,,,,,,,,,,,,,,,,,,,,,,,,,,,,,,,,,,,,,,,,,,,,,,,,,,,,,,,,,,,,,,,,,,,,,,,,,,,,,,,,,,,,,,,,,,,,,,,,,,,,,,,,,,,,,,,,,,,,
,,,,,,5de0e675a1a3fb13a6e351fc,62c539cac599ec119eba96d7,2022-07-06_10h29.26.485,Colour_Asymmetry_Pilot,2022.1.3,Win32,60.0528465,62c50e9c1127f2cd403a315f,0,104,104,35,1,twofour,,,,,,,,,,,,,,,,,,,,,,,,,,,,,,,,,,,,,,,,,,,,,,,,,,,,,,,,,,,,,,,,,,,,,,,,,,,,,,,,,,,,,,,,,,,,,,,,,,,,,,,,,,,,,,,,,,,,,,,,,,,,,,,,,,,,,,,,,,,,,,,,,,,,,,,,,,,,,
,,,,,,5de0e675a1a3fb13a6e351fc,62c539cac599ec119eba96d7,2022-07-06_10h29.26.485,Colour_Asymmetry_Pilot,2022.1.3,Win32,60.0528465,62c50e9c1127f2cd403a315f,0,105,105,122,1,twoone,,,,,,,,,,,,,,,,,,,,,,,,,,,,,,,,,,,,,,,,,,,,,,,,,,,,,,,,,,,,,,,,,,,,,,,,,,,,,,,,,,,,,,,,,,,,,,,,,,,,,,,,,,,,,,,,,,,,,,,,,,,,,,,,,,,,,,,,,,,,,,,,,,,,,,,,,,,,,
,,,,,,5de0e675a1a3fb13a6e351fc,62c539cac599ec119eba96d7,2022-07-06_10h29.26.485,Colour_Asymmetry_Pilot,2022.1.3,Win32,60.0528465,62c50e9c1127f2cd403a315f,0,106,106,46,1,fourtwo,,,,,,,,,,,,,,,,,,,,,,,,,,,,,,,,,,,,,,,,,,,,,,,,,,,,,,,,,,,,,,,,,,,,,,,,,,,,,,,,,,,,,,,,,,,,,,,,,,,,,,,,,,,,,,,,,,,,,,,,,,,,,,,,,,,,,,,,,,,,,,,,,,,,,,,,,,,,,
,,,,,,5de0e675a1a3fb13a6e351fc,62c539cac599ec119eba96d7,2022-07-06_10h29.26.485,Colour_Asymmetry_Pilot,2022.1.3,Win32,60.0528465,62c50e9c1127f2cd403a315f,0,107,107,112,1,onetwo,,,,,,,,,,,,,,,,,,,,,,,,,,,,,,,,,,,,,,,,,,,,,,,,,,,,,,,,,,,,,,,,,,,,,,,,,,,,,,,,,,,,,,,,,,,,,,,,,,,,,,,,,,,,,,,,,,,,,,,,,,,,,,,,,,,,,,,,,,,,,,,,,,,,,,,,,,,,,
,,,,,,5de0e675a1a3fb13a6e351fc,62c539cac599ec119eba96d7,2022-07-06_10h29.26.485,Colour_Asymmetry_Pilot,2022.1.3,Win32,60.0528465,62c50e9c1127f2cd403a315f,0,108,108,0,1,onetwo,,,,,,,,,,,,,,,,,,,,,,,,,,,,,,,,,,,,,,,,,,,,,,,,,,,,,,,,,,,,,,,,,,,,,,,,,,,,,,,,,,,,,,,,,,,,,,,,,,,,,,,,,,,,,,,,,,,,,,,,,,,,,,,,,,,,,,,,,,,,,,,,,,,,,,,,,,,,,
,,,,,,5de0e675a1a3fb13a6e351fc,62c539cac599ec119eba96d7,2022-07-06_10h29.26.485,Colour_Asymmetry_Pilot,2022.1.3,Win32,60.0528465,62c50e9c1127f2cd403a315f,0,109,109,14,1,fourtwo,,,,,,,,,,,,,,,,,,,,,,,,,,,,,,,,,,,,,,,,,,,,,,,,,,,,,,,,,,,,,,,,,,,,,,,,,,,,,,,,,,,,,,,,,,,,,,,,,,,,,,,,,,,,,,,,,,,,,,,,,,,,,,,,,,,,,,,,,,,,,,,,,,,,,,,,,,,,,
,,,,,,5de0e675a1a3fb13a6e351fc,62c539cac599ec119eba96d7,2022-07-06_10h29.26.485,Colour_Asymmetry_Pilot,2022.1.3,Win32,60.0528465,62c50e9c1127f2cd403a315f,0,110,110,16,1,onetwo,,,,,,,,,,,,,,,,,,,,,,,,,,,,,,,,,,,,,,,,,,,,,,,,,,,,,,,,,,,,,,,,,,,,,,,,,,,,,,,,,,,,,,,,,,,,,,,,,,,,,,,,,,,,,,,,,,,,,,,,,,,,,,,,,,,,,,,,,,,,,,,,,,,,,,,,,,,,,
,,,,,,5de0e675a1a3fb13a6e351fc,62c539cac599ec119eba96d7,2022-07-06_10h29.26.485,Colour_Asymmetry_Pilot,2022.1.3,Win32,60.0528465,62c50e9c1127f2cd403a315f,0,111,111,92,1,threeone,,,,,,,,,,,,,,,,,,,,,,,,,,,,,,,,,,,,,,,,,,,,,,,,,,,,,,,,,,,,,,,,,,,,,,,,,,,,,,,,,,,,,,,,,,,,,,,,,,,,,,,,,,,,,,,,,,,,,,,,,,,,,,,,,,,,,,,,,,,,,,,,,,,,,,,,,,,,,
,,,,,,5de0e675a1a3fb13a6e351fc,62c539cac599ec119eba96d7,2022-07-06_10h29.26.485,Colour_Asymmetry_Pilot,2022.1.3,Win32,60.0528465,62c50e9c1127f2cd403a315f,0,112,112,8,1,onetwo,,,,,,,,,,,,,,,,,,,,,,,,,,,,,,,,,,,,,,,,,,,,,,,,,,,,,,,,,,,,,,,,,,,,,,,,,,,,,,,,,,,,,,,,,,,,,,,,,,,,,,,,,,,,,,,,,,,,,,,,,,,,,,,,,,,,,,,,,,,,,,,,,,,,,,,,,,,,,
,,,,,,5de0e675a1a3fb13a6e351fc,62c539cac599ec119eba96d7,2022-07-06_10h29.26.485,Colour_Asymmetry_Pilot,2022.1.3,Win32,60.0528465,62c50e9c1127f2cd403a315f,0,113,113,26,1,twoone,,,,,,,,,,,,,,,,,,,,,,,,,,,,,,,,,,,,,,,,,,,,,,,,,,,,,,,,,,,,,,,,,,,,,,,,,,,,,,,,,,,,,,,,,,,,,,,,,,,,,,,,,,,,,,,,,,,,,,,,,,,,,,,,,,,,,,,,,,,,,,,,,,,,,,,,,,,,,
,,,,,,5de0e675a1a3fb13a6e351fc,62c539cac599ec119eba96d7,2022-07-06_10h29.26.485,Colour_Asymmetry_Pilot,2022.1.3,Win32,60.0528465,62c50e9c1127f2cd403a315f,0,114,114,86,1,fourtwo,,,,,,,,,,,,,,,,,,,,,,,,,,,,,,,,,,,,,,,,,,,,,,,,,,,,,,,,,,,,,,,,,,,,,,,,,,,,,,,,,,,,,,,,,,,,,,,,,,,,,,,,,,,,,,,,,,,,,,,,,,,,,,,,,,,,,,,,,,,,,,,,,,,,,,,,,,,,,
,,,,,,5de0e675a1a3fb13a6e351fc,62c539cac599ec119eba96d7,2022-07-06_10h29.26.485,Colour_Asymmetry_Pilot,2022.1.3,Win32,60.0528465,62c50e9c1127f2cd403a315f,0,115,115,44,1,threeone,,,,,,,,,,,,,,,,,,,,,,,,,,,,,,,,,,,,,,,,,,,,,,,,,,,,,,,,,,,,,,,,,,,,,,,,,,,,,,,,,,,,,,,,,,,,,,,,,,,,,,,,,,,,,,,,,,,,,,,,,,,,,,,,,,,,,,,,,,,,,,,,,,,,,,,,,,,,,
,,,,,,5de0e675a1a3fb13a6e351fc,62c539cac599ec119eba96d7,2022-07-06_10h29.26.485,Colour_Asymmetry_Pilot,2022.1.3,Win32,60.0528465,62c50e9c1127f2cd403a315f,0,116,116,43,1,twofour,,,,,,,,,,,,,,,,,,,,,,,,,,,,,,,,,,,,,,,,,,,,,,,,,,,,,,,,,,,,,,,,,,,,,,,,,,,,,,,,,,,,,,,,,,,,,,,,,,,,,,,,,,,,,,,,,,,,,,,,,,,,,,,,,,,,,,,,,,,,,,,,,,,,,,,,,,,,,
,,,,,,5de0e675a1a3fb13a6e351fc,62c539cac599ec119eba96d7,2022-07-06_10h29.26.485,Colour_Asymmetry_Pilot,2022.1.3,Win32,60.0528465,62c50e9c1127f2cd403a315f,0,117,117,137,1,onethree,,,,,,,,,,,,,,,,,,,,,,,,,,,,,,,,,,,,,,,,,,,,,,,,,,,,,,,,,,,,,,,,,,,,,,,,,,,,,,,,,,,,,,,,,,,,,,,,,,,,,,,,,,,,,,,,,,,,,,,,,,,,,,,,,,,,,,,,,,,,,,,,,,,,,,,,,,,,,
,,,,,,5de0e675a1a3fb13a6e351fc,62c539cac599ec119eba96d7,2022-07-06_10h29.26.485,Colour_Asymmetry_Pilot,2022.1.3,Win32,60.0528465,62c50e9c1127f2cd403a315f,0,118,118,114,1,twoone,,,,,,,,,,,,,,,,,,,,,,,,,,,,,,,,,,,,,,,,,,,,,,,,,,,,,,,,,,,,,,,,,,,,,,,,,,,,,,,,,,,,,,,,,,,,,,,,,,,,,,,,,,,,,,,,,,,,,,,,,,,,,,,,,,,,,,,,,,,,,,,,,,,,,,,,,,,,,
,,,,,,5de0e675a1a3fb13a6e351fc,62c539cac599ec119eba96d7,2022-07-06_10h29.26.485,Colour_Asymmetry_Pilot,2022.1.3,Win32,60.0528465,62c50e9c1127f2cd403a315f,0,119,119,133,1,threefour,,,,,,,,,,,,,,,,,,,,,,,,,,,,,,,,,,,,,,,,,,,,,,,,,,,,,,,,,,,,,,,,,,,,,,,,,,,,,,,,,,,,,,,,,,,,,,,,,,,,,,,,,,,,,,,,,,,,,,,,,,,,,,,,,,,,,,,,,,,,,,,,,,,,,,,,,,,,,
,,,,,,5de0e675a1a3fb13a6e351fc,62c539cac599ec119eba96d7,2022-07-06_10h29.26.485,Colour_Asymmetry_Pilot,2022.1.3,Win32,60.0528465,62c50e9c1127f2cd403a315f,0,120,120,72,1,onetwo,,,,,,,,,,,,,,,,,,,,,,,,,,,,,,,,,,,,,,,,,,,,,,,,,,,,,,,,,,,,,,,,,,,,,,,,,,,,,,,,,,,,,,,,,,,,,,,,,,,,,,,,,,,,,,,,,,,,,,,,,,,,,,,,,,,,,,,,,,,,,,,,,,,,,,,,,,,,,
,,,,,,5de0e675a1a3fb13a6e351fc,62c539cac599ec119eba96d7,2022-07-06_10h29.26.485,Colour_Asymmetry_Pilot,2022.1.3,Win32,60.0528465,62c50e9c1127f2cd403a315f,0,121,121,2,1,twoone,,,,,,,,,,,,,,,,,,,,,,,,,,,,,,,,,,,,,,,,,,,,,,,,,,,,,,,,,,,,,,,,,,,,,,,,,,,,,,,,,,,,,,,,,,,,,,,,,,,,,,,,,,,,,,,,,,,,,,,,,,,,,,,,,,,,,,,,,,,,,,,,,,,,,,,,,,,,,
,,,,,,5de0e675a1a3fb13a6e351fc,62c539cac599ec119eba96d7,2022-07-06_10h29.26.485,Colour_Asymmetry_Pilot,2022.1.3,Win32,60.0528465,62c50e9c1127f2cd403a315f,0,122,122,57,1,onethree,,,,,,,,,,,,,,,,,,,,,,,,,,,,,,,,,,,,,,,,,,,,,,,,,,,,,,,,,,,,,,,,,,,,,,,,,,,,,,,,,,,,,,,,,,,,,,,,,,,,,,,,,,,,,,,,,,,,,,,,,,,,,,,,,,,,,,,,,,,,,,,,,,,,,,,,,,,,,
,,,,,,5de0e675a1a3fb13a6e351fc,62c539cac599ec119eba96d7,2022-07-06_10h29.26.485,Colour_Asymmetry_Pilot,2022.1.3,Win32,60.0528465,62c50e9c1127f2cd403a315f,0,123,123,5,1,threefour,,,,,,,,,,,,,,,,,,,,,,,,,,,,,,,,,,,,,,,,,,,,,,,,,,,,,,,,,,,,,,,,,,,,,,,,,,,,,,,,,,,,,,,,,,,,,,,,,,,,,,,,,,,,,,,,,,,,,,,,,,,,,,,,,,,,,,,,,,,,,,,,,,,,,,,,,,,,,
,,,,,,5de0e675a1a3fb13a6e351fc,62c539cac599ec119eba96d7,2022-07-06_10h29.26.485,Colour_Asymmetry_Pilot,2022.1.3,Win32,60.0528465,62c50e9c1127f2cd403a315f,0,124,124,116,1,threeone,,,,,,,,,,,,,,,,,,,,,,,,,,,,,,,,,,,,,,,,,,,,,,,,,,,,,,,,,,,,,,,,,,,,,,,,,,,,,,,,,,,,,,,,,,,,,,,,,,,,,,,,,,,,,,,,,,,,,,,,,,,,,,,,,,,,,,,,,,,,,,,,,,,,,,,,,,,,,
,,,,,,5de0e675a1a3fb13a6e351fc,62c539cac599ec119eba96d7,2022-07-06_10h29.26.485,Colour_Asymmetry_Pilot,2022.1.3,Win32,60.0528465,62c50e9c1127f2cd403a315f,0,125,125,15,1,fourthree,,,,,,,,,,,,,,,,,,,,,,,,,,,,,,,,,,,,,,,,,,,,,,,,,,,,,,,,,,,,,,,,,,,,,,,,,,,,,,,,,,,,,,,,,,,,,,,,,,,,,,,,,,,,,,,,,,,,,,,,,,,,,,,,,,,,,,,,,,,,,,,,,,,,,,,,,,,,,
,,,,,,5de0e675a1a3fb13a6e351fc,62c539cac599ec119eba96d7,2022-07-06_10h29.26.485,Colour_Asymmetry_Pilot,2022.1.3,Win32,60.0528465,62c50e9c1127f2cd403a315f,0,126,126,135,1,fourthree,,,,,,,,,,,,,,,,,,,,,,,,,,,,,,,,,,,,,,,,,,,,,,,,,,,,,,,,,,,,,,,,,,,,,,,,,,,,,,,,,,,,,,,,,,,,,,,,,,,,,,,,,,,,,,,,,,,,,,,,,,,,,,,,,,,,,,,,,,,,,,,,,,,,,,,,,,,,,
,,,,,,5de0e675a1a3fb13a6e351fc,62c539cac599ec119eba96d7,2022-07-06_10h29.26.485,Colour_Asymmetry_Pilot,2022.1.3,Win32,60.0528465,62c50e9c1127f2cd403a315f,0,127,127,145,1,onethree,,,,,,,,,,,,,,,,,,,,,,,,,,,,,,,,,,,,,,,,,,,,,,,,,,,,,,,,,,,,,,,,,,,,,,,,,,,,,,,,,,,,,,,,,,,,,,,,,,,,,,,,,,,,,,,,,,,,,,,,,,,,,,,,,,,,,,,,,,,,,,,,,,,,,,,,,,,,,
,,,,,,5de0e675a1a3fb13a6e351fc,62c539cac599ec119eba96d7,2022-07-06_10h29.26.485,Colour_Asymmetry_Pilot,2022.1.3,Win32,60.0528465,62c50e9c1127f2cd403a315f,0,128,128,144,1,onetwo,,,,,,,,,,,,,,,,,,,,,,,,,,,,,,,,,,,,,,,,,,,,,,,,,,,,,,,,,,,,,,,,,,,,,,,,,,,,,,,,,,,,,,,,,,,,,,,,,,,,,,,,,,,,,,,,,,,,,,,,,,,,,,,,,,,,,,,,,,,,,,,,,,,,,,,,,,,,,
,,,,,,5de0e675a1a3fb13a6e351fc,62c539cac599ec119eba96d7,2022-07-06_10h29.26.485,Colour_Asymmetry_Pilot,2022.1.3,Win32,60.0528465,62c50e9c1127f2cd403a315f,0,129,129,141,1,threefour,,,,,,,,,,,,,,,,,,,,,,,,,,,,,,,,,,,,,,,,,,,,,,,,,,,,,,,,,,,,,,,,,,,,,,,,,,,,,,,,,,,,,,,,,,,,,,,,,,,,,,,,,,,,,,,,,,,,,,,,,,,,,,,,,,,,,,,,,,,,,,,,,,,,,,,,,,,,,
,,,,,,5de0e675a1a3fb13a6e351fc,62c539cac599ec119eba96d7,2022-07-06_10h29.26.485,Colour_Asymmetry_Pilot,2022.1.3,Win32,60.0528465,62c50e9c1127f2cd403a315f,0,130,130,87,1,fourthree,,,,,,,,,,,,,,,,,,,,,,,,,,,,,,,,,,,,,,,,,,,,,,,,,,,,,,,,,,,,,,,,,,,,,,,,,,,,,,,,,,,,,,,,,,,,,,,,,,,,,,,,,,,,,,,,,,,,,,,,,,,,,,,,,,,,,,,,,,,,,,,,,,,,,,,,,,,,,
,,,,,,5de0e675a1a3fb13a6e351fc,62c539cac599ec119eba96d7,2022-07-06_10h29.26.485,Colour_Asymmetry_Pilot,2022.1.3,Win32,60.0528465,62c50e9c1127f2cd403a315f,0,131,131,106,1,twoone,,,,,,,,,,,,,,,,,,,,,,,,,,,,,,,,,,,,,,,,,,,,,,,,,,,,,,,,,,,,,,,,,,,,,,,,,,,,,,,,,,,,,,,,,,,,,,,,,,,,,,,,,,,,,,,,,,,,,,,,,,,,,,,,,,,,,,,,,,,,,,,,,,,,,,,,,,,,,
,,,,,,5de0e675a1a3fb13a6e351fc,62c539cac599ec119eba96d7,2022-07-06_10h29.26.485,Colour_Asymmetry_Pilot,2022.1.3,Win32,60.0528465,62c50e9c1127f2cd403a315f,0,132,132,32,1,onetwo,,,,,,,,,,,,,,,,,,,,,,,,,,,,,,,,,,,,,,,,,,,,,,,,,,,,,,,,,,,,,,,,,,,,,,,,,,,,,,,,,,,,,,,,,,,,,,,,,,,,,,,,,,,,,,,,,,,,,,,,,,,,,,,,,,,,,,,,,,,,,,,,,,,,,,,,,,,,,
,,,,,,5de0e675a1a3fb13a6e351fc,62c539cac599ec119eba96d7,2022-07-06_10h29.26.485,Colour_Asymmetry_Pilot,2022.1.3,Win32,60.0528465,62c50e9c1127f2cd403a315f,0,133,133,105,1,onethree,,,,,,,,,,,,,,,,,,,,,,,,,,,,,,,,,,,,,,,,,,,,,,,,,,,,,,,,,,,,,,,,,,,,,,,,,,,,,,,,,,,,,,,,,,,,,,,,,,,,,,,,,,,,,,,,,,,,,,,,,,,,,,,,,,,,,,,,,,,,,,,,,,,,,,,,,,,,,
,,,,,,5de0e675a1a3fb13a6e351fc,62c539cac599ec119eba96d7,2022-07-06_10h29.26.485,Colour_Asymmetry_Pilot,2022.1.3,Win32,60.0528465,62c50e9c1127f2cd403a315f,0,134,134,80,1,onetwo,,,,,,,,,,,,,,,,,,,,,,,,,,,,,,,,,,,,,,,,,,,,,,,,,,,,,,,,,,,,,,,,,,,,,,,,,,,,,,,,,,,,,,,,,,,,,,,,,,,,,,,,,,,,,,,,,,,,,,,,,,,,,,,,,,,,,,,,,,,,,,,,,,,,,,,,,,,,,
,,,,,,5de0e675a1a3fb13a6e351fc,62c539cac599ec119eba96d7,2022-07-06_10h29.26.485,Colour_Asymmetry_Pilot,2022.1.3,Win32,60.0528465,62c50e9c1127f2cd403a315f,0,135,135,17,1,onethree,,,,,,,,,,,,,,,,,,,,,,,,,,,,,,,,,,,,,,,,,,,,,,,,,,,,,,,,,,,,,,,,,,,,,,,,,,,,,,,,,,,,,,,,,,,,,,,,,,,,,,,,,,,,,,,,,,,,,,,,,,,,,,,,,,,,,,,,,,,,,,,,,,,,,,,,,,,,,
,,,,,,5de0e675a1a3fb13a6e351fc,62c539cac599ec119eba96d7,2022-07-06_10h29.26.485,Colour_Asymmetry_Pilot,2022.1.3,Win32,60.0528465,62c50e9c1127f2cd403a315f,0,136,136,91,1,twofour,,,,,,,,,,,,,,,,,,,,,,,,,,,,,,,,,,,,,,,,,,,,,,,,,,,,,,,,,,,,,,,,,,,,,,,,,,,,,,,,,,,,,,,,,,,,,,,,,,,,,,,,,,,,,,,,,,,,,,,,,,,,,,,,,,,,,,,,,,,,,,,,,,,,,,,,,,,,,
,,,,,,5de0e675a1a3fb13a6e351fc,62c539cac599ec119eba96d7,2022-07-06_10h29.26.485,Colour_Asymmetry_Pilot,2022.1.3,Win32,60.0528465,62c50e9c1127f2cd403a315f,0,137,137,4,1,threeone,,,,,,,,,,,,,,,,,,,,,,,,,,,,,,,,,,,,,,,,,,,,,,,,,,,,,,,,,,,,,,,,,,,,,,,,,,,,,,,,,,,,,,,,,,,,,,,,,,,,,,,,,,,,,,,,,,,,,,,,,,,,,,,,,,,,,,,,,,,,,,,,,,,,,,,,,,,,,
,,,,,,5de0e675a1a3fb13a6e351fc,62c539cac599ec119eba96d7,2022-07-06_10h29.26.485,Colour_Asymmetry_Pilot,2022.1.3,Win32,60.0528465,62c50e9c1127f2cd403a315f,0,138,138,36,1,threeone,,,,,,,,,,,,,,,,,,,,,,,,,,,,,,,,,,,,,,,,,,,,,,,,,,,,,,,,,,,,,,,,,,,,,,,,,,,,,,,,,,,,,,,,,,,,,,,,,,,,,,,,,,,,,,,,,,,,,,,,,,,,,,,,,,,,,,,,,,,,,,,,,,,,,,,,,,,,,
,,,,,,5de0e675a1a3fb13a6e351fc,62c539cac599ec119eba96d7,2022-07-06_10h29.26.485,Colour_Asymmetry_Pilot,2022.1.3,Win32,60.0528465,62c50e9c1127f2cd403a315f,0,139,139,40,1,onetwo,,,,,,,,,,,,,,,,,,,,,,,,,,,,,,,,,,,,,,,,,,,,,,,,,,,,,,,,,,,,,,,,,,,,,,,,,,,,,,,,,,,,,,,,,,,,,,,,,,,,,,,,,,,,,,,,,,,,,,,,,,,,,,,,,,,,,,,,,,,,,,,,,,,,,,,,,,,,,
,,,,,,5de0e675a1a3fb13a6e351fc,62c539cac599ec119eba96d7,2022-07-06_10h29.26.485,Colour_Asymmetry_Pilot,2022.1.3,Win32,60.0528465,62c50e9c1127f2cd403a315f,0,140,140,82,1,twoone,,,,,,,,,,,,,,,,,,,,,,,,,,,,,,,,,,,,,,,,,,,,,,,,,,,,,,,,,,,,,,,,,,,,,,,,,,,,,,,,,,,,,,,,,,,,,,,,,,,,,,,,,,,,,,,,,,,,,,,,,,,,,,,,,,,,,,,,,,,,,,,,,,,,,,,,,,,,,
,,,,,,5de0e675a1a3fb13a6e351fc,62c539cac599ec119eba96d7,2022-07-06_10h29.26.485,Colour_Asymmetry_Pilot,2022.1.3,Win32,60.0528465,62c50e9c1127f2cd403a315f,0,141,141,60,1,threeone,,,,,,,,,,,,,,,,,,,,,,,,,,,,,,,,,,,,,,,,,,,,,,,,,,,,,,,,,,,,,,,,,,,,,,,,,,,,,,,,,,,,,,,,,,,,,,,,,,,,,,,,,,,,,,,,,,,,,,,,,,,,,,,,,,,,,,,,,,,,,,,,,,,,,,,,,,,,,
,,,,,,5de0e675a1a3fb13a6e351fc,62c539cac599ec119eba96d7,2022-07-06_10h29.26.485,Colour_Asymmetry_Pilot,2022.1.3,Win32,60.0528465,62c50e9c1127f2cd403a315f,0,142,142,93,1,threefour,,,,,,,,,,,,,,,,,,,,,,,,,,,,,,,,,,,,,,,,,,,,,,,,,,,,,,,,,,,,,,,,,,,,,,,,,,,,,,,,,,,,,,,,,,,,,,,,,,,,,,,,,,,,,,,,,,,,,,,,,,,,,,,,,,,,,,,,,,,,,,,,,,,,,,,,,,,,,
,,,,,,5de0e675a1a3fb13a6e351fc,62c539cac599ec119eba96d7,2022-07-06_10h29.26.485,Colour_Asymmetry_Pilot,2022.1.3,Win32,60.0528465,62c50e9c1127f2cd403a315f,0,143,143,30,1,fourtwo,,,,,,,,,,,,,,,,,,,,,,,,,,,,,,,,,,,,,,,,,,,,,,,,,,,,,,,,,,,,,,,,,,,,,,,,,,,,,,,,,,,,,,,,,,,,,,,,,,,,,,,,,,,,,,,,,,,,,,,,,,,,,,,,,,,,,,,,,,,,,,,,,,,,,,,,,,,,,
,,,,,,5de0e675a1a3fb13a6e351fc,62c539cac599ec119eba96d7,2022-07-06_10h29.26.485,Colour_Asymmetry_Pilot,2022.1.3,Win32,60.0528465,62c50e9c1127f2cd403a315f,0,144,144,99,1,twofour,,,,,,,,,,,,,,,,,,,,,,,,,,,,,,,,,,,,,,,,,,,,,,,,,,,,,,,,,,,,,,,,,,,,,,,,,,,,,,,,,,,,,,,,,,,,,,,,,,,,,,,,,,,,,,,,,,,,,,,,,,,,,,,,,,,,,,,,,,,,,,,,,,,,,,,,,,,,,
,,,,,,5de0e675a1a3fb13a6e351fc,62c539cac599ec119eba96d7,2022-07-06_10h29.26.485,Colour_Asymmetry_Pilot,2022.1.3,Win32,60.0528465,62c50e9c1127f2cd403a315f,0,145,145,3,1,twofour,,,,,,,,,,,,,,,,,,,,,,,,,,,,,,,,,,,,,,,,,,,,,,,,,,,,,,,,,,,,,,,,,,,,,,,,,,,,,,,,,,,,,,,,,,,,,,,,,,,,,,,,,,,,,,,,,,,,,,,,,,,,,,,,,,,,,,,,,,,,,,,,,,,,,,,,,,,,,
,,,,,,5de0e675a1a3fb13a6e351fc,62c539cac599ec119eba96d7,2022-07-06_10h29.26.485,Colour_Asymmetry_Pilot,2022.1.3,Win32,60.0528465,62c50e9c1127f2cd403a315f,0,146,146,161,1,onethree,,,,,,,,,,,,,,,,,,,,,,,,,,,,,,,,,,,,,,,,,,,,,,,,,,,,,,,,,,,,,,,,,,,,,,,,,,,,,,,,,,,,,,,,,,,,,,,,,,,,,,,,,,,,,,,,,,,,,,,,,,,,,,,,,,,,,,,,,,,,,,,,,,,,,,,,,,,,,
,,,,,,5de0e675a1a3fb13a6e351fc,62c539cac599ec119eba96d7,2022-07-06_10h29.26.485,Colour_Asymmetry_Pilot,2022.1.3,Win32,60.0528465,62c50e9c1127f2cd403a315f,0,147,147,126,1,fourtwo,,,,,,,,,,,,,,,,,,,,,,,,,,,,,,,,,,,,,,,,,,,,,,,,,,,,,,,,,,,,,,,,,,,,,,,,,,,,,,,,,,,,,,,,,,,,,,,,,,,,,,,,,,,,,,,,,,,,,,,,,,,,,,,,,,,,,,,,,,,,,,,,,,,,,,,,,,,,,
,,,,,,5de0e675a1a3fb13a6e351fc,62c539cac599ec119eba96d7,2022-07-06_10h29.26.485,Colour_Asymmetry_Pilot,2022.1.3,Win32,60.0528465,62c50e9c1127f2cd403a315f,0,148,148,58,1,twoone,,,,,,,,,,,,,,,,,,,,,,,,,,,,,,,,,,,,,,,,,,,,,,,,,,,,,,,,,,,,,,,,,,,,,,,,,,,,,,,,,,,,,,,,,,,,,,,,,,,,,,,,,,,,,,,,,,,,,,,,,,,,,,,,,,,,,,,,,,,,,,,,,,,,,,,,,,,,,
,,,,,,5de0e675a1a3fb13a6e351fc,62c539cac599ec119eba96d7,2022-07-06_10h29.26.485,Colour_Asymmetry_Pilot,2022.1.3,Win32,60.0528465,62c50e9c1127f2cd403a315f,0,149,149,108,1,threeone,,,,,,,,,,,,,,,,,,,,,,,,,,,,,,,,,,,,,,,,,,,,,,,,,,,,,,,,,,,,,,,,,,,,,,,,,,,,,,,,,,,,,,,,,,,,,,,,,,,,,,,,,,,,,,,,,,,,,,,,,,,,,,,,,,,,,,,,,,,,,,,,,,,,,,,,,,,,,
,,,,,,5de0e675a1a3fb13a6e351fc,62c539cac599ec119eba96d7,2022-07-06_10h29.26.485,Colour_Asymmetry_Pilot,2022.1.3,Win32,60.0528465,62c50e9c1127f2cd403a315f,0,150,150,134,1,fourtwo,,,,,,,,,,,,,,,,,,,,,,,,,,,,,,,,,,,,,,,,,,,,,,,,,,,,,,,,,,,,,,,,,,,,,,,,,,,,,,,,,,,,,,,,,,,,,,,,,,,,,,,,,,,,,,,,,,,,,,,,,,,,,,,,,,,,,,,,,,,,,,,,,,,,,,,,,,,,,
,,,,,,5de0e675a1a3fb13a6e351fc,62c539cac599ec119eba96d7,2022-07-06_10h29.26.485,Colour_Asymmetry_Pilot,2022.1.3,Win32,60.0528465,62c50e9c1127f2cd403a315f,0,151,151,34,1,twoone,,,,,,,,,,,,,,,,,,,,,,,,,,,,,,,,,,,,,,,,,,,,,,,,,,,,,,,,,,,,,,,,,,,,,,,,,,,,,,,,,,,,,,,,,,,,,,,,,,,,,,,,,,,,,,,,,,,,,,,,,,,,,,,,,,,,,,,,,,,,,,,,,,,,,,,,,,,,,
,,,,,,5de0e675a1a3fb13a6e351fc,62c539cac599ec119eba96d7,2022-07-06_10h29.26.485,Colour_Asymmetry_Pilot,2022.1.3,Win32,60.0528465,62c50e9c1127f2cd403a315f,0,152,152,33,1,onethree,,,,,,,,,,,,,,,,,,,,,,,,,,,,,,,,,,,,,,,,,,,,,,,,,,,,,,,,,,,,,,,,,,,,,,,,,,,,,,,,,,,,,,,,,,,,,,,,,,,,,,,,,,,,,,,,,,,,,,,,,,,,,,,,,,,,,,,,,,,,,,,,,,,,,,,,,,,,,
,,,,,,5de0e675a1a3fb13a6e351fc,62c539cac599ec119eba96d7,2022-07-06_10h29.26.485,Colour_Asymmetry_Pilot,2022.1.3,Win32,60.0528465,62c50e9c1127f2cd403a315f,0,153,153,47,1,fourthree,,,,,,,,,,,,,,,,,,,,,,,,,,,,,,,,,,,,,,,,,,,,,,,,,,,,,,,,,,,,,,,,,,,,,,,,,,,,,,,,,,,,,,,,,,,,,,,,,,,,,,,,,,,,,,,,,,,,,,,,,,,,,,,,,,,,,,,,,,,,,,,,,,,,,,,,,,,,,
,,,,,,5de0e675a1a3fb13a6e351fc,62c539cac599ec119eba96d7,2022-07-06_10h29.26.485,Colour_Asymmetry_Pilot,2022.1.3,Win32,60.0528465,62c50e9c1127f2cd403a315f,0,154,154,45,1,threefour,,,,,,,,,,,,,,,,,,,,,,,,,,,,,,,,,,,,,,,,,,,,,,,,,,,,,,,,,,,,,,,,,,,,,,,,,,,,,,,,,,,,,,,,,,,,,,,,,,,,,,,,,,,,,,,,,,,,,,,,,,,,,,,,,,,,,,,,,,,,,,,,,,,,,,,,,,,,,
,,,,,,5de0e675a1a3fb13a6e351fc,62c539cac599ec119eba96d7,2022-07-06_10h29.26.485,Colour_Asymmetry_Pilot,2022.1.3,Win32,60.0528465,62c50e9c1127f2cd403a315f,0,155,155,157,1,threefour,,,,,,,,,,,,,,,,,,,,,,,,,,,,,,,,,,,,,,,,,,,,,,,,,,,,,,,,,,,,,,,,,,,,,,,,,,,,,,,,,,,,,,,,,,,,,,,,,,,,,,,,,,,,,,,,,,,,,,,,,,,,,,,,,,,,,,,,,,,,,,,,,,,,,,,,,,,,,
,,,,,,5de0e675a1a3fb13a6e351fc,62c539cac599ec119eba96d7,2022-07-06_10h29.26.485,Colour_Asymmetry_Pilot,2022.1.3,Win32,60.0528465,62c50e9c1127f2cd403a315f,0,156,156,7,1,fourthree,,,,,,,,,,,,,,,,,,,,,,,,,,,,,,,,,,,,,,,,,,,,,,,,,,,,,,,,,,,,,,,,,,,,,,,,,,,,,,,,,,,,,,,,,,,,,,,,,,,,,,,,,,,,,,,,,,,,,,,,,,,,,,,,,,,,,,,,,,,,,,,,,,,,,,,,,,,,,
,,,,,,5de0e675a1a3fb13a6e351fc,62c539cac599ec119eba96d7,2022-07-06_10h29.26.485,Colour_Asymmetry_Pilot,2022.1.3,Win32,60.0528465,62c50e9c1127f2cd403a315f,0,157,157,48,1,onetwo,,,,,,,,,,,,,,,,,,,,,,,,,,,,,,,,,,,,,,,,,,,,,,,,,,,,,,,,,,,,,,,,,,,,,,,,,,,,,,,,,,,,,,,,,,,,,,,,,,,,,,,,,,,,,,,,,,,,,,,,,,,,,,,,,,,,,,,,,,,,,,,,,,,,,,,,,,,,,
,,,,,,5de0e675a1a3fb13a6e351fc,62c539cac599ec119eba96d7,2022-07-06_10h29.26.485,Colour_Asymmetry_Pilot,2022.1.3,Win32,60.0528465,62c50e9c1127f2cd403a315f,0,158,158,88,1,onetwo,,,,,,,,,,,,,,,,,,,,,,,,,,,,,,,,,,,,,,,,,,,,,,,,,,,,,,,,,,,,,,,,,,,,,,,,,,,,,,,,,,,,,,,,,,,,,,,,,,,,,,,,,,,,,,,,,,,,,,,,,,,,,,,,,,,,,,,,,,,,,,,,,,,,,,,,,,,,,
,,,,,,5de0e675a1a3fb13a6e351fc,62c539cac599ec119eba96d7,2022-07-06_10h29.26.485,Colour_Asymmetry_Pilot,2022.1.3,Win32,60.0528465,62c50e9c1127f2cd403a315f,0,159,159,19,1,twofour,,,,,,,,,,,,,,,,,,,,,,,,,,,,,,,,,,,,,,,,,,,,,,,,,,,,,,,,,,,,,,,,,,,,,,,,,,,,,,,,,,,,,,,,,,,,,,,,,,,,,,,,,,,,,,,,,,,,,,,,,,,,,,,,,,,,,,,,,,,,,,,,,,,,,,,,,,,,,
,,,,,,5de0e675a1a3fb13a6e351fc,62c539cac599ec119eba96d7,2022-07-06_10h29.26.485,Colour_Asymmetry_Pilot,2022.1.3,Win32,60.0528465,62c50e9c1127f2cd403a315f,0,160,160,140,1,threeone,,,,,,,,,,,,,,,,,,,,,,,,,,,,,,,,,,,,,,,,,,,,,,,,,,,,,,,,,,,,,,,,,,,,,,,,,,,,,,,,,,,,,,,,,,,,,,,,,,,,,,,,,,,,,,,,,,,,,,,,,,,,,,,,,,,,,,,,,,,,,,,,,,,,,,,,,,,,,
,,,,,,5de0e675a1a3fb13a6e351fc,62c539cac599ec119eba96d7,2022-07-06_10h29.26.485,Colour_Asymmetry_Pilot,2022.1.3,Win32,60.0528465,62c50e9c1127f2cd403a315f,0,161,161,84,1,threeone,,,,,,,,,,,,,,,,,,,,,,,,,,,,,,,,,,,,,,,,,,,,,,,,,,,,,,,,,,,,,,,,,,,,,,,,,,,,,,,,,,,,,,,,,,,,,,,,,,,,,,,,,,,,,,,,,,,,,,,,,,,,,,,,,,,,,,,,,,,,,,,,,,,,,,,,,,,,,
,,,,,,5de0e675a1a3fb13a6e351fc,62c539cac599ec119eba96d7,2022-07-06_10h29.26.485,Colour_Asymmetry_Pilot,2022.1.3,Win32,60.0528465,62c50e9c1127f2cd403a315f,,,,,,,space,4.0829,space,1.0991,space,9.8834,space,60.7339,space,3.6518,space,69.355,"[0.6625999999999999,0.4980000000000002,-0.357]",twoone,"[-0.9688,-0.7412000000000001,-0.4902000000000001]",4,10.0841,25.33331299,105.8333435,1,0,0,response1disk_5,0.333312988,-16.66665649,1,0,0,rectangle_8,97,45.83334351,1,0,0,response1disk_7,6,3,8.666625977,0,1,0,0,rectangle_4,0,0,0,0,1,,,,,,,,,,,,,,,,,,,,,,,,,,,,,,,,,,,,,,,,,,,,,,,,,,,,,,,,,,,,,,,,,,,,,,,,,,,,,,,,,,,,,,,,,,,,,,,,,,,,,,,,,,,,,
,,,,,,5de0e675a1a3fb13a6e351fc,62c539cac599ec119eba96d7,2022-07-06_10h29.26.485,Colour_Asymmetry_Pilot,2022.1.3,Win32,60.0528465,62c50e9c1127f2cd403a315f,,,,,,,,,,,,,,,,,,,"[-0.48240000000000005,0.3175999999999999,0.2156]",threeone,"[0.8115999999999999,-0.0040000000000000036,-0.09819999999999995]",-4,4.9103,-56.33337402,77.49996948,1,0,0,response7disk_5,-2.999938965,2.5,1,0,0,rectangle_8,-2.999938965,2.5,1,0,0,,,3,-2.999938965,2.5,1,0,0,,1,0,1,0,1,,,,,,,,,,,,,,,,,,,,,,,,,,,,,,,,,,,,,,,,,,,,,,,,,,,,,,,,,,,,,,,,,,,,,,,,,,,,,,,,,,,,,,,,,,,,,,,,,,,,,,,,,,,,,
,,,,,,5de0e675a1a3fb13a6e351fc,62c539cac599ec119eba96d7,2022-07-06_10h29.26.485,Colour_Asymmetry_Pilot,2022.1.3,Win32,60.0528465,62c50e9c1127f2cd403a315f,,,,,,,,,,,,,,,,,,,"[-0.9844,-0.9688,-0.9922]",threeone,"[-0.24719999999999998,-0.0354000000000001,0.3175999999999999]",-3,1.9831,-95.49993896,68.33334351,1,0,0,response7disk_5,15.33331299,-5,1,0,0,rectangle_8,84.5,44.16668701,1,0,0,response1disk_7,6,3,18.66662598,-6.666656494,1,0,0,rectangle_4,2,0,2,0,1,,,,,,,,,,,,,,,,,,,,,,,,,,,,,,,,,,,,,,,,,,,,,,,,,,,,,,,,,,,,,,,,,,,,,,,,,,,,,,,,,,,,,,,,,,,,,,,,,,,,,,,,,,,,,
,,,,,,5de0e675a1a3fb13a6e351fc,62c539cac599ec119eba96d7,2022-07-06_10h29.26.485,Colour_Asymmetry_Pilot,2022.1.3,Win32,60.0528465,62c50e9c1127f2cd403a315f,,,,,,,,,,,,,,,,,,,"[0.8115999999999999,-0.0040000000000000036,-0.09819999999999995]",onethree,"[-0.09019999999999995,0.44300000000000006,0.5371999999999999]",-4,473.8401,-58.83337402,94,1,0,0,response7disk_5,5.333312988,3.166687012,1,0,0,rectangle_8,5.333312988,3.166687012,1,0,0,,,3,5.333312988,3.166687012,1,0,0,,3,0,3,0,1,,,,,,,,,,,,,,,,,,,,,,,,,,,,,,,,,,,,,,,,,,,,,,,,,,,,,,,,,,,,,,,,,,,,,,,,,,,,,,,,,,,,,,,,,,,,,,,,,,,,,,,,,,,,,
,,,,,,5de0e675a1a3fb13a6e351fc,62c539cac599ec119eba96d7,2022-07-06_10h29.26.485,Colour_Asymmetry_Pilot,2022.1.3,Win32,60.0528465,62c50e9c1127f2cd403a315f,,,,,,,,,,,,,,,,,,,"[0.3881999999999999,-0.23939999999999995,-0.05040000000000011]",onetwo,"[-0.5452,-0.608,0.2470000000000001]",-4,1.284,-66.33337402,122.3333435,1,0,0,response7disk_5,2.833312988,4,1,0,0,rectangle_8,2.833312988,4,1,0,0,,,3,2.833312988,4,1,0,0,,4,0,4,0,1,,,,,,,,,,,,,,,,,,,,,,,,,,,,,,,,,,,,,,,,,,,,,,,,,,,,,,,,,,,,,,,,,,,,,,,,,,,,,,,,,,,,,,,,,,,,,,,,,,,,,,,,,,,,,
,,,,,,5de0e675a1a3fb13a6e351fc,62c539cac599ec119eba96d7,2022-07-06_10h29.26.485,Colour_Asymmetry_Pilot,2022.1.3,Win32,60.0528465,62c50e9c1127f2cd403a315f,,,,,,,,,,,,,,,,,,,"[-0.9688,-0.38039999999999996,-0.41979999999999995]",fourtwo,"[-0.9688,-0.38039999999999996,-0.41979999999999995]",4,1.2671,57.83331299,119.8333435,1,0,0,response1disk_5,6.166625977,9,1,0,0,rectangle_8,6.166625977,9,1,0,0,,,3,6.166625977,9,1,0,0,,5,0,5,0,1,,,,,,,,,,,,,,,,,,,,,,,,,,,,,,,,,,,,,,,,,,,,,,,,,,,,,,,,,,,,,,,,,,,,,,,,,,,,,,,,,,,,,,,,,,,,,,,,,,,,,,,,,,,,,
,,,,,,5de0e675a1a3fb13a6e351fc,62c539cac599ec119eba96d7,2022-07-06_10h29.26.485,Colour_Asymmetry_Pilot,2022.1.3,Win32,60.0528465,62c50e9c1127f2cd403a315f,,,,,,,,,,,,,,,,,,,"[0.40379999999999994,0.09000000000000008,0.44300000000000006]",fourthree,"[0.9763999999999999,0.30979999999999985,-0.6786]",-4,11.3773,-33.83337402,104,1,0,0,response7disk_5,10.33331299,-15.16665649,1,0,0,rectangle_8,10.33331299,-15.16665649,1,0,0,,,3,10.33331299,-15.16665649,1,0,0,,6,0,6,0,1,,,,,,,,,,,,,,,,,,,,,,,,,,,,,,,,,,,,,,,,,,,,,,,,,,,,,,,,,,,,,,,,,,,,,,,,,,,,,,,,,,,,,,,,,,,,,,,,,,,,,,,,,,,,,
,,,,,,5de0e675a1a3fb13a6e351fc,62c539cac599ec119eba96d7,2022-07-06_10h29.26.485,Colour_Asymmetry_Pilot,2022.1.3,Win32,60.0528465,62c50e9c1127f2cd403a315f,,,,,,,,,,,,,,,,,,,,threefour,,-3,2.0335,,,,,,,,,,,,,,,,,,,,,,,,,,,,,,,,space,2.7565,"[0.796,0.2156,-0.27859999999999996]","[0.37240000000000006,0.4980000000000002,-0.2864]",-92.16668701,66.5,1,0,0,response7disk,4.500061035,-4.333343506,1,0,0,rectangle,4.500061035,-4.333343506,1,0,0,,1,0.0024,0,4.500061035,-4.333343506,1,0,0,0,0,0,100,1,19,second,,,,,,,,,,,,,,,,,,,,,,,,,,,,,,,,,,,,,,,,,,,,,,,,,,,,,,,,,,,,,,,,,,,,,,,,
,,,,,,5de0e675a1a3fb13a6e351fc,62c539cac599ec119eba96d7,2022-07-06_10h29.26.485,Colour_Asymmetry_Pilot,2022.1.3,Win32,60.0528465,62c50e9c1127f2cd403a315f,,,,,,,,,,,,,,,,,,,,onetwo,,4,0.6107,,,,,,,,,,,,,,,,,,,,,,,,,,,,,,,,,,"[0.5528,0.7409999999999999,-0.71]","[0.7018,0.7802,-0.16079999999999994]",77,114,1,0,0,response1disk,22.83331299,-4.333343506,1,0,0,rectangle,22.83331299,-4.333343506,1,0,0,,2,0.0008,0,22.83331299,-4.333343506,1,0,0,0,1,1,34,1,34,first,,,,,,,,,,,,,,,,,,,,,,,,,,,,,,,,,,,,,,,,,,,,,,,,,,,,,,,,,,,,,,,,,,,,,,,,
,,,,,,5de0e675a1a3fb13a6e351fc,62c539cac599ec119eba96d7,2022-07-06_10h29.26.485,Colour_Asymmetry_Pilot,2022.1.3,Win32,60.0528465,62c50e9c1127f2cd403a315f,,,,,,,,,,,,,,,,,,,,threefour,,-4,1.0402,,,,,,,,,,,,,,,,,,,,,,,,,,,,,,,,,,"[-0.07459999999999989,0.12139999999999995,-0.9922]","[-0.8118,-0.8198,-0.5452]",-70.49993896,100.6666565,1,0,0,response7disk,2.000061035,-0.166656494,1,0,0,rectangle,2.000061035,-0.166656494,1,0,0,,1,0.0009,0,2.000061035,-0.166656494,1,0,0,0,2,2,40,1,40,first,,,,,,,,,,,,,,,,,,,,,,,,,,,,,,,,,,,,,,,,,,,,,,,,,,,,,,,,,,,,,,,,,,,,,,,,
,,,,,,5de0e675a1a3fb13a6e351fc,62c539cac599ec119eba96d7,2022-07-06_10h29.26.485,Colour_Asymmetry_Pilot,2022.1.3,Win32,60.0528465,62c50e9c1127f2cd403a315f,,,,,,,,,,,,,,,,,,,,twoone,,-4,0.8834,,,,,,,,,,,,,,,,,,,,,,,,,,,,,,,,,,"[-0.26280000000000003,-0.4746,-0.2158]","[-0.4746,-0.0354000000000001,0.5449999999999999]",-44.66668701,79,1,0,0,response7disk,-7.999938965,-3.5,1,0,0,rectangle,-7.999938965,-3.5,1,0,0,,1,0.0004,0,-7.999938965,-3.5,1,0,0,0,3,3,24,1,24,first,,,,,,,,,,,,,,,,,,,,,,,,,,,,,,,,,,,,,,,,,,,,,,,,,,,,,,,,,,,,,,,,,,,,,,,,
,,,,,,5de0e675a1a3fb13a6e351fc,62c539cac599ec119eba96d7,2022-07-06_10h29.26.485,Colour_Asymmetry_Pilot,2022.1.3,Win32,60.0528465,62c50e9c1127f2cd403a315f,,,,,,,,,,,,,,,,,,,,threefour,,-4,0.4337,,,,,,,,,,,,,,,,,,,,,,,,,,,,,,,,,,"[0.7018,0.7176,0.6155999999999999]","[-0.9766,-0.6472,0.07440000000000002]",-43.83337402,99,1,0,0,response7disk,2.000061035,4.833343506,1,0,0,rectangle,2.000061035,4.833343506,1,0,0,,3,0.0008,0,2.000061035,4.833343506,1,0,0,0,4,4,152,1,71,second,,,,,,,,,,,,,,,,,,,,,,,,,,,,,,,,,,,,,,,,,,,,,,,,,,,,,,,,,,,,,,,,,,,,,,,,
,,,,,,5de0e675a1a3fb13a6e351fc,62c539cac599ec119eba96d7,2022-07-06_10h29.26.485,Colour_Asymmetry_Pilot,2022.1.3,Win32,60.0528465,62c50e9c1127f2cd403a315f,,,,,,,,,,,,,,,,,,,,threefour,,-3,4.5,,,,,,,,,,,,,,,,,,,,,,,,,,,,,,,,,,"[0.37240000000000006,-0.050999999999999934,-0.5216]","[0.09799999999999986,-0.24719999999999998,0.15280000000000005]",-102.166687,29.83334351,1,0,0,response7disk,-7.999938965,10.66665649,1,0,0,rectangle,-7.999938965,10.66665649,1,0,0,,3,0.0002,0,-7.999938965,10.66665649,1,0,0,0,5,5,122,1,41,second,,,,,,,,,,,,,,,,,,,,,,,,,,,,,,,,,,,,,,,,,,,,,,,,,,,,,,,,,,,,,,,,,,,,,,,,
,,,,,,5de0e675a1a3fb13a6e351fc,62c539cac599ec119eba96d7,2022-07-06_10h29.26.485,Colour_Asymmetry_Pilot,2022.1.3,Win32,60.0528465,62c50e9c1127f2cd403a315f,,,,,,,,,,,,,,,,,,,,onetwo,,-3,0.85,,,,,,,,,,,,,,,,,,,,,,,,,,,,,,,,,,"[0.2784,-0.31000000000000005,-0.5452]","[0.3881999999999999,-0.23939999999999995,-0.05040000000000011]",-101.333374,49.83334351,1,0,0,response7disk,-2.999938965,9,1,0,0,rectangle,-2.999938965,9,1,0,0,,2,0.0007,0,-2.999938965,9,1,0,0,0,6,6,134,1,53,second,,,,,,,,,,,,,,,,,,,,,,,,,,,,,,,,,,,,,,,,,,,,,,,,,,,,,,,,,,,,,,,,,,,,,,,,
,,,,,,5de0e675a1a3fb13a6e351fc,62c539cac599ec119eba96d7,2022-07-06_10h29.26.485,Colour_Asymmetry_Pilot,2022.1.3,Win32,60.0528465,62c50e9c1127f2cd403a315f,,,,,,,,,,,,,,,,,,,,fourthree,,-4,0.9771,,,,,,,,,,,,,,,,,,,,,,,,,,,,,,,,,,"[-0.24719999999999998,-0.0354000000000001,0.3175999999999999]","[-0.07459999999999989,0.12139999999999995,-0.9922]",-50.49993896,120.6666565,1,0,0,response7disk,-2.999938965,3.166656494,1,0,0,rectangle,65.33331299,-107.666687,1,0,0,1,1,5.3338,1,-14.66668701,-7.666656494,1,0,0,0,7,7,161,1,80,second,response3disk_3,rectangle,,,,,,,,,,,,,,,,,,,,,,,,,,,,,,,,,,,,,,,,,,,,,,,,,,,,,,,,,,,,,,,,,,,,,,
,,,,,,5de0e675a1a3fb13a6e351fc,62c539cac599ec119eba96d7,2022-07-06_10h29.26.485,Colour_Asymmetry_Pilot,2022.1.3,Win32,60.0528465,62c50e9c1127f2cd403a315f,,,,,,,,,,,,,,,,,,,,fourtwo,,-4,1.2509,,,,,,,,,,,,,,,,,,,,,,,,,,,,,,,,,,"[0.9763999999999999,0.30979999999999985,-0.6786]","[-0.0040000000000000036,0.02739999999999987,-0.08239999999999992]",-45.49993896,109.8333435,1,0,0,response7disk,-14.66668701,4,1,0,0,rectangle,-14.66668701,4,1,0,0,1,1,0.0003,0,-14.66668701,4,1,0,0,0,8,8,26,1,26,first,,,,,,,,,,,,,,,,,,,,,,,,,,,,,,,,,,,,,,,,,,,,,,,,,,,,,,,,,,,,,,,,,,,,,,,,
,,,,,,5de0e675a1a3fb13a6e351fc,62c539cac599ec119eba96d7,2022-07-06_10h29.26.485,Colour_Asymmetry_Pilot,2022.1.3,Win32,60.0528465,62c50e9c1127f2cd403a315f,,,,,,,,,,,,,,,,,,,,threefour,,-4,1.1784,,,,,,,,,,,,,,,,,,,,,,,,,,,,,,,,,,"[0.7018,0.7176,0.6155999999999999]","[0.5528,0.7409999999999999,-0.71]",-31.33337402,92.33334351,1,0,0,response7disk,-4.666687012,1.5,1,0,0,rectangle,-4.666687012,1.5,1,0,0,1,3,0.0007,0,-4.666687012,1.5,1,0,0,0,9,9,95,1,14,second,,,,,,,,,,,,,,,,,,,,,,,,,,,,,,,,,,,,,,,,,,,,,,,,,,,,,,,,,,,,,,,,,,,,,,,,
,,,,,,5de0e675a1a3fb13a6e351fc,62c539cac599ec119eba96d7,2022-07-06_10h29.26.485,Colour_Asymmetry_Pilot,2022.1.3,Win32,60.0528465,62c50e9c1127f2cd403a315f,,,,,,,,,,,,,,,,,,,,onethree,,-4,127.5757,,,,,,,,,,,,,,,,,,,,,,,,,,,,,,,,,,"[-0.9766,-0.6472,0.07440000000000002]","[-0.34920000000000007,-0.702,-0.5216]",-32.99993896,92.33334351,1,0,0,response7disk,-6.333374023,14,1,0,0,rectangle,-6.333374023,14,1,0,0,1,3,9.99999E-05,0,-6.333374023,14,1,0,0,0,10,10,2,1,2,first,,,,,,,,,,,,,,,,,,,,,,,,,,,,,,,,,,,,,,,,,,,,,,,,,,,,,,,,,,,,,,,,,,,,,,,,
,,,,,,5de0e675a1a3fb13a6e351fc,62c539cac599ec119eba96d7,2022-07-06_10h29.26.485,Colour_Asymmetry_Pilot,2022.1.3,Win32,60.0528465,62c50e9c1127f2cd403a315f,,,,,,,,,,,,,,,,,,,,threefour,,-4,0.3835,,,,,,,,,,,,,,,,,,,,,,,,,,,,,,,,,,"[-0.2942,-0.24719999999999998,-0.357]","[0.7018,0.7176,0.6155999999999999]",-32.99993896,71.5,1,0,0,response7disk,-0.499938965,1.5,1,0,0,rectangle,-0.499938965,1.5,1,0,0,1,2,0.0008,0,-0.499938965,1.5,1,0,0,0,11,11,13,1,13,first,,,,,,,,,,,,,,,,,,,,,,,,,,,,,,,,,,,,,,,,,,,,,,,,,,,,,,,,,,,,,,,,,,,,,,,,
,,,,,,5de0e675a1a3fb13a6e351fc,62c539cac599ec119eba96d7,2022-07-06_10h29.26.485,Colour_Asymmetry_Pilot,2022.1.3,Win32,60.0528465,62c50e9c1127f2cd403a315f,,,,,,,,,,,,,,,,,,,,twofour,,-3,0.3405,,,,,,,,,,,,,,,,,,,,,,,,,,,,,,,,,,"[-0.5452,-0.608,0.2470000000000001]","[-0.17659999999999998,0.3253999999999999,0.19999999999999996]",-59.66668701,29.83334351,1,0,0,response7disk,5.333312988,-8.5,1,0,0,rectangle,5.333312988,-8.5,1,0,0,1,1,0.0009,0,5.333312988,-8.5,1,0,0,0,12,12,101,1,20,second,,,,,,,,,,,,,,,,,,,,,,,,,,,,,,,,,,,,,,,,,,,,,,,,,,,,,,,,,,,,,,,,,,,,,,,,
,,,,,,5de0e675a1a3fb13a6e351fc,62c539cac599ec119eba96d7,2022-07-06_10h29.26.485,Colour_Asymmetry_Pilot,2022.1.3,Win32,60.0528465,62c50e9c1127f2cd403a315f,,,,,,,,,,,,,,,,,,,,fourthree,,-2,2.3569,,,,,,,,,,,,,,,,,,,,,,,,,,,,,,,,,,"[-0.8982,-0.37259999999999993,0.2784]","[-0.24719999999999998,-0.0354000000000001,0.3175999999999999]",-115.499939,-97.66668701,1,0,0,response5disk,-10.49993896,3.166656494,1,0,0,rectangle,-10.49993896,3.166656494,1,0,0,1,3,0.0007,0,-10.49993896,3.166656494,1,0,0,0,13,13,72,1,72,first,,,,,,,,,,,,,,,,,,,,,,,,,,,,,,,,,,,,,,,,,,,,,,,,,,,,,,,,,,,,,,,,,,,,,,,,
,,,,,,5de0e675a1a3fb13a6e351fc,62c539cac599ec119eba96d7,2022-07-06_10h29.26.485,Colour_Asymmetry_Pilot,2022.1.3,Win32,60.0528465,62c50e9c1127f2cd403a315f,,,,,,,,,,,,,,,,,,,,fourthree,,-3,1.0176,,,,,,,,,,,,,,,,,,,,,,,,,,,,,,,,,,"[-0.01980000000000004,-0.5138,-0.38039999999999996]","[0.9372,0.9450000000000001,0.8980000000000001]",-103.833374,44,1,0,0,response7disk,-1.333374023,-1.833343506,1,0,0,rectangle,-1.333374023,-1.833343506,1,0,0,1,2,0.0008,0,-1.333374023,-1.833343506,1,0,0,0,14,14,23,1,23,first,,,,,,,,,,,,,,,,,,,,,,,,,,,,,,,,,,,,,,,,,,,,,,,,,,,,,,,,,,,,,,,,,,,,,,,,
