trials.thisRepN,trials.thisTrialN,trials.thisN,trials.thisIndex,trials.ran,Colourcodes,participant,session,date,expName,psychopyVersion,OS,frameRate,study_id,trials_4.thisRepN,trials_4.thisTrialN,trials_4.thisN,trials_4.thisIndex,trials_4.ran,StimulusPos,key_resp.keys,key_resp.rt,key_resp_2.keys,key_resp_2.rt,key_resp_15.keys,key_resp_15.rt,key_resp_17.keys,key_resp_17.rt,key_resp_9.keys,key_resp_9.rt,key_resp_10.keys,key_resp_10.rt,Circle1_col,Ecc,Circle2_col,similarity,response_time,mouse_5.x,mouse_5.y,mouse_5.leftButton,mouse_5.midButton,mouse_5.rightButton,mouse_5.clicked_name,mouse_10.x,mouse_10.y,mouse_10.leftButton,mouse_10.midButton,mouse_10.rightButton,mouse_10.clicked_name,mouse_7.x,mouse_7.y,mouse_7.leftButton,mouse_7.midButton,mouse_7.rightButton,catchnumberprac,mouse_6.x,mouse_6.y,mouse_6.leftButton,mouse_6.midButton,mouse_6.rightButton,duringprac.thisRepN,duringprac.thisTrialN,duringprac.thisN,duringprac.thisIndex,duringprac.ran,mouse_7.clicked_name,catchprac,mouse_6.clicked_name,key_resp_22.keys,key_resp_22.rt,Circle1_colour,Circle2_colour,mouse.x,mouse.y,mouse.leftButton,mouse.midButton,mouse.rightButton,mouse.clicked_name,mouse_2.x,mouse_2.y,mouse_2.leftButton,mouse_2.midButton,mouse_2.rightButton,mouse_2.clicked_name,mouse_3.x,mouse_3.y,mouse_3.leftButton,mouse_3.midButton,mouse_3.rightButton,catchresponse,catchnumber,response_time_catch,Catch,mouse_11.x,mouse_11.y,mouse_11.leftButton,mouse_11.midButton,mouse_11.rightButton,trials_2.thisRepN,trials_2.thisTrialN,trials_2.thisN,trials_2.thisIndex,trials_2.ran,Colourpair,Temporder,mouse_3.clicked_name,mouse_11.clicked_name,trials_3.thisRepN,trials_3.thisTrialN,trials_3.thisN,trials_3.thisIndex,trials_3.ran,key_resp_instr_Ishi.keys,key_resp_instr_Ishi.rt,Ishi_trial_keyresp.keys,Ishi_textbox.text,Ishi_mouse.x,Ishi_mouse.y,Ishi_mouse.leftButton,Ishi_mouse.midButton,Ishi_mouse.rightButton,Ishi_mouse.clicked_name,Ishi_loop.thisRepN,Ishi_loop.thisTrialN,Ishi_loop.thisN,Ishi_loop.thisIndex,Ishi_loop.ran,imageaddress,textbox.text,mouse_4.x,mouse_4.y,mouse_4.leftButton,mouse_4.midButton,mouse_4.rightButton,mouse_4.clicked_name,textbox_2.text,mouse_8.x,mouse_8.y,mouse_8.leftButton,mouse_8.midButton,mouse_8.rightButton,mouse_8.clicked_name,textbox_3.text,mouse_9.x,mouse_9.y,mouse_9.leftButton,mouse_9.midButton,mouse_9.rightButton,mouse_9.clicked_name,textbox_4.text,mouse_12.x,mouse_12.y,mouse_12.leftButton,mouse_12.midButton,mouse_12.rightButton,mouse_12.clicked_name,textbox_5.text,mouse_13.x,mouse_13.y,mouse_13.leftButton,mouse_13.midButton,mouse_13.rightButton,mouse_13.clicked_name,textbox_6.text,mouse_14.x,mouse_14.y,mouse_14.leftButton,mouse_14.midButton,mouse_14.rightButton,mouse_14.clicked_name,textbox_7.text,mouse_15.x,mouse_15.y,mouse_15.leftButton,mouse_15.midButton,mouse_15.rightButton
0,0,0,19,1,,5bfe92adaa5fa30001369e01,62c53a91b3254ef8c6ba96a7,2022-07-06_09h32.52.229,Colour_Asymmetry_Pilot,2022.1.3,Win32,59.90176111,62c50e9c1127f2cd403a315f,,,,,,,,,,,,,,,,,,,,,,,,,,,,,,,,,,,,,,,,,,,,,,,,,,,,,,,,,,,,,,,,,,,,,,,,,,,,,,,,,,,,,,,,,,,,,,,,,,,,,,,,,,,,,,,,,,,,,,,,,,,,,,,,,,,,,,,,,,,,,,,,,,,,,,,,,,,,,,,,,,
0,1,1,4,1,,5bfe92adaa5fa30001369e01,62c53a91b3254ef8c6ba96a7,2022-07-06_09h32.52.229,Colour_Asymmetry_Pilot,2022.1.3,Win32,59.90176111,62c50e9c1127f2cd403a315f,,,,,,,,,,,,,,,,,,,,,,,,,,,,,,,,,,,,,,,,,,,,,,,,,,,,,,,,,,,,,,,,,,,,,,,,,,,,,,,,,,,,,,,,,,,,,,,,,,,,,,,,,,,,,,,,,,,,,,,,,,,,,,,,,,,,,,,,,,,,,,,,,,,,,,,,,,,,,,,,,,
0,2,2,79,1,,5bfe92adaa5fa30001369e01,62c53a91b3254ef8c6ba96a7,2022-07-06_09h32.52.229,Colour_Asymmetry_Pilot,2022.1.3,Win32,59.90176111,62c50e9c1127f2cd403a315f,,,,,,,,,,,,,,,,,,,,,,,,,,,,,,,,,,,,,,,,,,,,,,,,,,,,,,,,,,,,,,,,,,,,,,,,,,,,,,,,,,,,,,,,,,,,,,,,,,,,,,,,,,,,,,,,,,,,,,,,,,,,,,,,,,,,,,,,,,,,,,,,,,,,,,,,,,,,,,,,,,
0,3,3,70,1,,5bfe92adaa5fa30001369e01,62c53a91b3254ef8c6ba96a7,2022-07-06_09h32.52.229,Colour_Asymmetry_Pilot,2022.1.3,Win32,59.90176111,62c50e9c1127f2cd403a315f,,,,,,,,,,,,,,,,,,,,,,,,,,,,,,,,,,,,,,,,,,,,,,,,,,,,,,,,,,,,,,,,,,,,,,,,,,,,,,,,,,,,,,,,,,,,,,,,,,,,,,,,,,,,,,,,,,,,,,,,,,,,,,,,,,,,,,,,,,,,,,,,,,,,,,,,,,,,,,,,,,
0,4,4,56,1,,5bfe92adaa5fa30001369e01,62c53a91b3254ef8c6ba96a7,2022-07-06_09h32.52.229,Colour_Asymmetry_Pilot,2022.1.3,Win32,59.90176111,62c50e9c1127f2cd403a315f,,,,,,,,,,,,,,,,,,,,,,,,,,,,,,,,,,,,,,,,,,,,,,,,,,,,,,,,,,,,,,,,,,,,,,,,,,,,,,,,,,,,,,,,,,,,,,,,,,,,,,,,,,,,,,,,,,,,,,,,,,,,,,,,,,,,,,,,,,,,,,,,,,,,,,,,,,,,,,,,,,
0,5,5,89,1,,5bfe92adaa5fa30001369e01,62c53a91b3254ef8c6ba96a7,2022-07-06_09h32.52.229,Colour_Asymmetry_Pilot,2022.1.3,Win32,59.90176111,62c50e9c1127f2cd403a315f,,,,,,,,,,,,,,,,,,,,,,,,,,,,,,,,,,,,,,,,,,,,,,,,,,,,,,,,,,,,,,,,,,,,,,,,,,,,,,,,,,,,,,,,,,,,,,,,,,,,,,,,,,,,,,,,,,,,,,,,,,,,,,,,,,,,,,,,,,,,,,,,,,,,,,,,,,,,,,,,,,
0,6,6,29,1,,5bfe92adaa5fa30001369e01,62c53a91b3254ef8c6ba96a7,2022-07-06_09h32.52.229,Colour_Asymmetry_Pilot,2022.1.3,Win32,59.90176111,62c50e9c1127f2cd403a315f,,,,,,,,,,,,,,,,,,,,,,,,,,,,,,,,,,,,,,,,,,,,,,,,,,,,,,,,,,,,,,,,,,,,,,,,,,,,,,,,,,,,,,,,,,,,,,,,,,,,,,,,,,,,,,,,,,,,,,,,,,,,,,,,,,,,,,,,,,,,,,,,,,,,,,,,,,,,,,,,,,
0,7,7,82,1,,5bfe92adaa5fa30001369e01,62c53a91b3254ef8c6ba96a7,2022-07-06_09h32.52.229,Colour_Asymmetry_Pilot,2022.1.3,Win32,59.90176111,62c50e9c1127f2cd403a315f,,,,,,,,,,,,,,,,,,,,,,,,,,,,,,,,,,,,,,,,,,,,,,,,,,,,,,,,,,,,,,,,,,,,,,,,,,,,,,,,,,,,,,,,,,,,,,,,,,,,,,,,,,,,,,,,,,,,,,,,,,,,,,,,,,,,,,,,,,,,,,,,,,,,,,,,,,,,,,,,,,
0,8,8,87,1,,5bfe92adaa5fa30001369e01,62c53a91b3254ef8c6ba96a7,2022-07-06_09h32.52.229,Colour_Asymmetry_Pilot,2022.1.3,Win32,59.90176111,62c50e9c1127f2cd403a315f,,,,,,,,,,,,,,,,,,,,,,,,,,,,,,,,,,,,,,,,,,,,,,,,,,,,,,,,,,,,,,,,,,,,,,,,,,,,,,,,,,,,,,,,,,,,,,,,,,,,,,,,,,,,,,,,,,,,,,,,,,,,,,,,,,,,,,,,,,,,,,,,,,,,,,,,,,,,,,,,,,
0,9,9,34,1,,5bfe92adaa5fa30001369e01,62c53a91b3254ef8c6ba96a7,2022-07-06_09h32.52.229,Colour_Asymmetry_Pilot,2022.1.3,Win32,59.90176111,62c50e9c1127f2cd403a315f,,,,,,,,,,,,,,,,,,,,,,,,,,,,,,,,,,,,,,,,,,,,,,,,,,,,,,,,,,,,,,,,,,,,,,,,,,,,,,,,,,,,,,,,,,,,,,,,,,,,,,,,,,,,,,,,,,,,,,,,,,,,,,,,,,,,,,,,,,,,,,,,,,,,,,,,,,,,,,,,,,
0,10,10,54,1,,5bfe92adaa5fa30001369e01,62c53a91b3254ef8c6ba96a7,2022-07-06_09h32.52.229,Colour_Asymmetry_Pilot,2022.1.3,Win32,59.90176111,62c50e9c1127f2cd403a315f,,,,,,,,,,,,,,,,,,,,,,,,,,,,,,,,,,,,,,,,,,,,,,,,,,,,,,,,,,,,,,,,,,,,,,,,,,,,,,,,,,,,,,,,,,,,,,,,,,,,,,,,,,,,,,,,,,,,,,,,,,,,,,,,,,,,,,,,,,,,,,,,,,,,,,,,,,,,,,,,,,
0,11,11,45,1,,5bfe92adaa5fa30001369e01,62c53a91b3254ef8c6ba96a7,2022-07-06_09h32.52.229,Colour_Asymmetry_Pilot,2022.1.3,Win32,59.90176111,62c50e9c1127f2cd403a315f,,,,,,,,,,,,,,,,,,,,,,,,,,,,,,,,,,,,,,,,,,,,,,,,,,,,,,,,,,,,,,,,,,,,,,,,,,,,,,,,,,,,,,,,,,,,,,,,,,,,,,,,,,,,,,,,,,,,,,,,,,,,,,,,,,,,,,,,,,,,,,,,,,,,,,,,,,,,,,,,,,
0,12,12,63,1,,5bfe92adaa5fa30001369e01,62c53a91b3254ef8c6ba96a7,2022-07-06_09h32.52.229,Colour_Asymmetry_Pilot,2022.1.3,Win32,59.90176111,62c50e9c1127f2cd403a315f,,,,,,,,,,,,,,,,,,,,,,,,,,,,,,,,,,,,,,,,,,,,,,,,,,,,,,,,,,,,,,,,,,,,,,,,,,,,,,,,,,,,,,,,,,,,,,,,,,,,,,,,,,,,,,,,,,,,,,,,,,,,,,,,,,,,,,,,,,,,,,,,,,,,,,,,,,,,,,,,,,
0,13,13,62,1,,5bfe92adaa5fa30001369e01,62c53a91b3254ef8c6ba96a7,2022-07-06_09h32.52.229,Colour_Asymmetry_Pilot,2022.1.3,Win32,59.90176111,62c50e9c1127f2cd403a315f,,,,,,,,,,,,,,,,,,,,,,,,,,,,,,,,,,,,,,,,,,,,,,,,,,,,,,,,,,,,,,,,,,,,,,,,,,,,,,,,,,,,,,,,,,,,,,,,,,,,,,,,,,,,,,,,,,,,,,,,,,,,,,,,,,,,,,,,,,,,,,,,,,,,,,,,,,,,,,,,,,
0,14,14,6,1,,5bfe92adaa5fa30001369e01,62c53a91b3254ef8c6ba96a7,2022-07-06_09h32.52.229,Colour_Asymmetry_Pilot,2022.1.3,Win32,59.90176111,62c50e9c1127f2cd403a315f,,,,,,,,,,,,,,,,,,,,,,,,,,,,,,,,,,,,,,,,,,,,,,,,,,,,,,,,,,,,,,,,,,,,,,,,,,,,,,,,,,,,,,,,,,,,,,,,,,,,,,,,,,,,,,,,,,,,,,,,,,,,,,,,,,,,,,,,,,,,,,,,,,,,,,,,,,,,,,,,,,
0,15,15,3,1,,5bfe92adaa5fa30001369e01,62c53a91b3254ef8c6ba96a7,2022-07-06_09h32.52.229,Colour_Asymmetry_Pilot,2022.1.3,Win32,59.90176111,62c50e9c1127f2cd403a315f,,,,,,,,,,,,,,,,,,,,,,,,,,,,,,,,,,,,,,,,,,,,,,,,,,,,,,,,,,,,,,,,,,,,,,,,,,,,,,,,,,,,,,,,,,,,,,,,,,,,,,,,,,,,,,,,,,,,,,,,,,,,,,,,,,,,,,,,,,,,,,,,,,,,,,,,,,,,,,,,,,
0,16,16,84,1,,5bfe92adaa5fa30001369e01,62c53a91b3254ef8c6ba96a7,2022-07-06_09h32.52.229,Colour_Asymmetry_Pilot,2022.1.3,Win32,59.90176111,62c50e9c1127f2cd403a315f,,,,,,,,,,,,,,,,,,,,,,,,,,,,,,,,,,,,,,,,,,,,,,,,,,,,,,,,,,,,,,,,,,,,,,,,,,,,,,,,,,,,,,,,,,,,,,,,,,,,,,,,,,,,,,,,,,,,,,,,,,,,,,,,,,,,,,,,,,,,,,,,,,,,,,,,,,,,,,,,,,
0,17,17,8,1,,5bfe92adaa5fa30001369e01,62c53a91b3254ef8c6ba96a7,2022-07-06_09h32.52.229,Colour_Asymmetry_Pilot,2022.1.3,Win32,59.90176111,62c50e9c1127f2cd403a315f,,,,,,,,,,,,,,,,,,,,,,,,,,,,,,,,,,,,,,,,,,,,,,,,,,,,,,,,,,,,,,,,,,,,,,,,,,,,,,,,,,,,,,,,,,,,,,,,,,,,,,,,,,,,,,,,,,,,,,,,,,,,,,,,,,,,,,,,,,,,,,,,,,,,,,,,,,,,,,,,,,
0,18,18,90,1,,5bfe92adaa5fa30001369e01,62c53a91b3254ef8c6ba96a7,2022-07-06_09h32.52.229,Colour_Asymmetry_Pilot,2022.1.3,Win32,59.90176111,62c50e9c1127f2cd403a315f,,,,,,,,,,,,,,,,,,,,,,,,,,,,,,,,,,,,,,,,,,,,,,,,,,,,,,,,,,,,,,,,,,,,,,,,,,,,,,,,,,,,,,,,,,,,,,,,,,,,,,,,,,,,,,,,,,,,,,,,,,,,,,,,,,,,,,,,,,,,,,,,,,,,,,,,,,,,,,,,,,
0,19,19,35,1,,5bfe92adaa5fa30001369e01,62c53a91b3254ef8c6ba96a7,2022-07-06_09h32.52.229,Colour_Asymmetry_Pilot,2022.1.3,Win32,59.90176111,62c50e9c1127f2cd403a315f,,,,,,,,,,,,,,,,,,,,,,,,,,,,,,,,,,,,,,,,,,,,,,,,,,,,,,,,,,,,,,,,,,,,,,,,,,,,,,,,,,,,,,,,,,,,,,,,,,,,,,,,,,,,,,,,,,,,,,,,,,,,,,,,,,,,,,,,,,,,,,,,,,,,,,,,,,,,,,,,,,
0,20,20,0,1,,5bfe92adaa5fa30001369e01,62c53a91b3254ef8c6ba96a7,2022-07-06_09h32.52.229,Colour_Asymmetry_Pilot,2022.1.3,Win32,59.90176111,62c50e9c1127f2cd403a315f,,,,,,,,,,,,,,,,,,,,,,,,,,,,,,,,,,,,,,,,,,,,,,,,,,,,,,,,,,,,,,,,,,,,,,,,,,,,,,,,,,,,,,,,,,,,,,,,,,,,,,,,,,,,,,,,,,,,,,,,,,,,,,,,,,,,,,,,,,,,,,,,,,,,,,,,,,,,,,,,,,
0,21,21,50,1,,5bfe92adaa5fa30001369e01,62c53a91b3254ef8c6ba96a7,2022-07-06_09h32.52.229,Colour_Asymmetry_Pilot,2022.1.3,Win32,59.90176111,62c50e9c1127f2cd403a315f,,,,,,,,,,,,,,,,,,,,,,,,,,,,,,,,,,,,,,,,,,,,,,,,,,,,,,,,,,,,,,,,,,,,,,,,,,,,,,,,,,,,,,,,,,,,,,,,,,,,,,,,,,,,,,,,,,,,,,,,,,,,,,,,,,,,,,,,,,,,,,,,,,,,,,,,,,,,,,,,,,
0,22,22,77,1,,5bfe92adaa5fa30001369e01,62c53a91b3254ef8c6ba96a7,2022-07-06_09h32.52.229,Colour_Asymmetry_Pilot,2022.1.3,Win32,59.90176111,62c50e9c1127f2cd403a315f,,,,,,,,,,,,,,,,,,,,,,,,,,,,,,,,,,,,,,,,,,,,,,,,,,,,,,,,,,,,,,,,,,,,,,,,,,,,,,,,,,,,,,,,,,,,,,,,,,,,,,,,,,,,,,,,,,,,,,,,,,,,,,,,,,,,,,,,,,,,,,,,,,,,,,,,,,,,,,,,,,
0,23,23,49,1,,5bfe92adaa5fa30001369e01,62c53a91b3254ef8c6ba96a7,2022-07-06_09h32.52.229,Colour_Asymmetry_Pilot,2022.1.3,Win32,59.90176111,62c50e9c1127f2cd403a315f,,,,,,,,,,,,,,,,,,,,,,,,,,,,,,,,,,,,,,,,,,,,,,,,,,,,,,,,,,,,,,,,,,,,,,,,,,,,,,,,,,,,,,,,,,,,,,,,,,,,,,,,,,,,,,,,,,,,,,,,,,,,,,,,,,,,,,,,,,,,,,,,,,,,,,,,,,,,,,,,,,
0,24,24,38,1,,5bfe92adaa5fa30001369e01,62c53a91b3254ef8c6ba96a7,2022-07-06_09h32.52.229,Colour_Asymmetry_Pilot,2022.1.3,Win32,59.90176111,62c50e9c1127f2cd403a315f,,,,,,,,,,,,,,,,,,,,,,,,,,,,,,,,,,,,,,,,,,,,,,,,,,,,,,,,,,,,,,,,,,,,,,,,,,,,,,,,,,,,,,,,,,,,,,,,,,,,,,,,,,,,,,,,,,,,,,,,,,,,,,,,,,,,,,,,,,,,,,,,,,,,,,,,,,,,,,,,,,
0,25,25,76,1,,5bfe92adaa5fa30001369e01,62c53a91b3254ef8c6ba96a7,2022-07-06_09h32.52.229,Colour_Asymmetry_Pilot,2022.1.3,Win32,59.90176111,62c50e9c1127f2cd403a315f,,,,,,,,,,,,,,,,,,,,,,,,,,,,,,,,,,,,,,,,,,,,,,,,,,,,,,,,,,,,,,,,,,,,,,,,,,,,,,,,,,,,,,,,,,,,,,,,,,,,,,,,,,,,,,,,,,,,,,,,,,,,,,,,,,,,,,,,,,,,,,,,,,,,,,,,,,,,,,,,,,
0,26,26,23,1,,5bfe92adaa5fa30001369e01,62c53a91b3254ef8c6ba96a7,2022-07-06_09h32.52.229,Colour_Asymmetry_Pilot,2022.1.3,Win32,59.90176111,62c50e9c1127f2cd403a315f,,,,,,,,,,,,,,,,,,,,,,,,,,,,,,,,,,,,,,,,,,,,,,,,,,,,,,,,,,,,,,,,,,,,,,,,,,,,,,,,,,,,,,,,,,,,,,,,,,,,,,,,,,,,,,,,,,,,,,,,,,,,,,,,,,,,,,,,,,,,,,,,,,,,,,,,,,,,,,,,,,
0,27,27,33,1,,5bfe92adaa5fa30001369e01,62c53a91b3254ef8c6ba96a7,2022-07-06_09h32.52.229,Colour_Asymmetry_Pilot,2022.1.3,Win32,59.90176111,62c50e9c1127f2cd403a315f,,,,,,,,,,,,,,,,,,,,,,,,,,,,,,,,,,,,,,,,,,,,,,,,,,,,,,,,,,,,,,,,,,,,,,,,,,,,,,,,,,,,,,,,,,,,,,,,,,,,,,,,,,,,,,,,,,,,,,,,,,,,,,,,,,,,,,,,,,,,,,,,,,,,,,,,,,,,,,,,,,
0,28,28,28,1,,5bfe92adaa5fa30001369e01,62c53a91b3254ef8c6ba96a7,2022-07-06_09h32.52.229,Colour_Asymmetry_Pilot,2022.1.3,Win32,59.90176111,62c50e9c1127f2cd403a315f,,,,,,,,,,,,,,,,,,,,,,,,,,,,,,,,,,,,,,,,,,,,,,,,,,,,,,,,,,,,,,,,,,,,,,,,,,,,,,,,,,,,,,,,,,,,,,,,,,,,,,,,,,,,,,,,,,,,,,,,,,,,,,,,,,,,,,,,,,,,,,,,,,,,,,,,,,,,,,,,,,
0,29,29,17,1,,5bfe92adaa5fa30001369e01,62c53a91b3254ef8c6ba96a7,2022-07-06_09h32.52.229,Colour_Asymmetry_Pilot,2022.1.3,Win32,59.90176111,62c50e9c1127f2cd403a315f,,,,,,,,,,,,,,,,,,,,,,,,,,,,,,,,,,,,,,,,,,,,,,,,,,,,,,,,,,,,,,,,,,,,,,,,,,,,,,,,,,,,,,,,,,,,,,,,,,,,,,,,,,,,,,,,,,,,,,,,,,,,,,,,,,,,,,,,,,,,,,,,,,,,,,,,,,,,,,,,,,
0,30,30,69,1,,5bfe92adaa5fa30001369e01,62c53a91b3254ef8c6ba96a7,2022-07-06_09h32.52.229,Colour_Asymmetry_Pilot,2022.1.3,Win32,59.90176111,62c50e9c1127f2cd403a315f,,,,,,,,,,,,,,,,,,,,,,,,,,,,,,,,,,,,,,,,,,,,,,,,,,,,,,,,,,,,,,,,,,,,,,,,,,,,,,,,,,,,,,,,,,,,,,,,,,,,,,,,,,,,,,,,,,,,,,,,,,,,,,,,,,,,,,,,,,,,,,,,,,,,,,,,,,,,,,,,,,
0,31,31,21,1,,5bfe92adaa5fa30001369e01,62c53a91b3254ef8c6ba96a7,2022-07-06_09h32.52.229,Colour_Asymmetry_Pilot,2022.1.3,Win32,59.90176111,62c50e9c1127f2cd403a315f,,,,,,,,,,,,,,,,,,,,,,,,,,,,,,,,,,,,,,,,,,,,,,,,,,,,,,,,,,,,,,,,,,,,,,,,,,,,,,,,,,,,,,,,,,,,,,,,,,,,,,,,,,,,,,,,,,,,,,,,,,,,,,,,,,,,,,,,,,,,,,,,,,,,,,,,,,,,,,,,,,
0,32,32,72,1,,5bfe92adaa5fa30001369e01,62c53a91b3254ef8c6ba96a7,2022-07-06_09h32.52.229,Colour_Asymmetry_Pilot,2022.1.3,Win32,59.90176111,62c50e9c1127f2cd403a315f,,,,,,,,,,,,,,,,,,,,,,,,,,,,,,,,,,,,,,,,,,,,,,,,,,,,,,,,,,,,,,,,,,,,,,,,,,,,,,,,,,,,,,,,,,,,,,,,,,,,,,,,,,,,,,,,,,,,,,,,,,,,,,,,,,,,,,,,,,,,,,,,,,,,,,,,,,,,,,,,,,
0,33,33,83,1,,5bfe92adaa5fa30001369e01,62c53a91b3254ef8c6ba96a7,2022-07-06_09h32.52.229,Colour_Asymmetry_Pilot,2022.1.3,Win32,59.90176111,62c50e9c1127f2cd403a315f,,,,,,,,,,,,,,,,,,,,,,,,,,,,,,,,,,,,,,,,,,,,,,,,,,,,,,,,,,,,,,,,,,,,,,,,,,,,,,,,,,,,,,,,,,,,,,,,,,,,,,,,,,,,,,,,,,,,,,,,,,,,,,,,,,,,,,,,,,,,,,,,,,,,,,,,,,,,,,,,,,
0,34,34,58,1,,5bfe92adaa5fa30001369e01,62c53a91b3254ef8c6ba96a7,2022-07-06_09h32.52.229,Colour_Asymmetry_Pilot,2022.1.3,Win32,59.90176111,62c50e9c1127f2cd403a315f,,,,,,,,,,,,,,,,,,,,,,,,,,,,,,,,,,,,,,,,,,,,,,,,,,,,,,,,,,,,,,,,,,,,,,,,,,,,,,,,,,,,,,,,,,,,,,,,,,,,,,,,,,,,,,,,,,,,,,,,,,,,,,,,,,,,,,,,,,,,,,,,,,,,,,,,,,,,,,,,,,
0,35,35,30,1,,5bfe92adaa5fa30001369e01,62c53a91b3254ef8c6ba96a7,2022-07-06_09h32.52.229,Colour_Asymmetry_Pilot,2022.1.3,Win32,59.90176111,62c50e9c1127f2cd403a315f,,,,,,,,,,,,,,,,,,,,,,,,,,,,,,,,,,,,,,,,,,,,,,,,,,,,,,,,,,,,,,,,,,,,,,,,,,,,,,,,,,,,,,,,,,,,,,,,,,,,,,,,,,,,,,,,,,,,,,,,,,,,,,,,,,,,,,,,,,,,,,,,,,,,,,,,,,,,,,,,,,
0,36,36,24,1,,5bfe92adaa5fa30001369e01,62c53a91b3254ef8c6ba96a7,2022-07-06_09h32.52.229,Colour_Asymmetry_Pilot,2022.1.3,Win32,59.90176111,62c50e9c1127f2cd403a315f,,,,,,,,,,,,,,,,,,,,,,,,,,,,,,,,,,,,,,,,,,,,,,,,,,,,,,,,,,,,,,,,,,,,,,,,,,,,,,,,,,,,,,,,,,,,,,,,,,,,,,,,,,,,,,,,,,,,,,,,,,,,,,,,,,,,,,,,,,,,,,,,,,,,,,,,,,,,,,,,,,
0,37,37,39,1,,5bfe92adaa5fa30001369e01,62c53a91b3254ef8c6ba96a7,2022-07-06_09h32.52.229,Colour_Asymmetry_Pilot,2022.1.3,Win32,59.90176111,62c50e9c1127f2cd403a315f,,,,,,,,,,,,,,,,,,,,,,,,,,,,,,,,,,,,,,,,,,,,,,,,,,,,,,,,,,,,,,,,,,,,,,,,,,,,,,,,,,,,,,,,,,,,,,,,,,,,,,,,,,,,,,,,,,,,,,,,,,,,,,,,,,,,,,,,,,,,,,,,,,,,,,,,,,,,,,,,,,
0,38,38,71,1,,5bfe92adaa5fa30001369e01,62c53a91b3254ef8c6ba96a7,2022-07-06_09h32.52.229,Colour_Asymmetry_Pilot,2022.1.3,Win32,59.90176111,62c50e9c1127f2cd403a315f,,,,,,,,,,,,,,,,,,,,,,,,,,,,,,,,,,,,,,,,,,,,,,,,,,,,,,,,,,,,,,,,,,,,,,,,,,,,,,,,,,,,,,,,,,,,,,,,,,,,,,,,,,,,,,,,,,,,,,,,,,,,,,,,,,,,,,,,,,,,,,,,,,,,,,,,,,,,,,,,,,
0,39,39,10,1,,5bfe92adaa5fa30001369e01,62c53a91b3254ef8c6ba96a7,2022-07-06_09h32.52.229,Colour_Asymmetry_Pilot,2022.1.3,Win32,59.90176111,62c50e9c1127f2cd403a315f,,,,,,,,,,,,,,,,,,,,,,,,,,,,,,,,,,,,,,,,,,,,,,,,,,,,,,,,,,,,,,,,,,,,,,,,,,,,,,,,,,,,,,,,,,,,,,,,,,,,,,,,,,,,,,,,,,,,,,,,,,,,,,,,,,,,,,,,,,,,,,,,,,,,,,,,,,,,,,,,,,
0,40,40,68,1,,5bfe92adaa5fa30001369e01,62c53a91b3254ef8c6ba96a7,2022-07-06_09h32.52.229,Colour_Asymmetry_Pilot,2022.1.3,Win32,59.90176111,62c50e9c1127f2cd403a315f,,,,,,,,,,,,,,,,,,,,,,,,,,,,,,,,,,,,,,,,,,,,,,,,,,,,,,,,,,,,,,,,,,,,,,,,,,,,,,,,,,,,,,,,,,,,,,,,,,,,,,,,,,,,,,,,,,,,,,,,,,,,,,,,,,,,,,,,,,,,,,,,,,,,,,,,,,,,,,,,,,
0,41,41,12,1,,5bfe92adaa5fa30001369e01,62c53a91b3254ef8c6ba96a7,2022-07-06_09h32.52.229,Colour_Asymmetry_Pilot,2022.1.3,Win32,59.90176111,62c50e9c1127f2cd403a315f,,,,,,,,,,,,,,,,,,,,,,,,,,,,,,,,,,,,,,,,,,,,,,,,,,,,,,,,,,,,,,,,,,,,,,,,,,,,,,,,,,,,,,,,,,,,,,,,,,,,,,,,,,,,,,,,,,,,,,,,,,,,,,,,,,,,,,,,,,,,,,,,,,,,,,,,,,,,,,,,,,
0,42,42,13,1,,5bfe92adaa5fa30001369e01,62c53a91b3254ef8c6ba96a7,2022-07-06_09h32.52.229,Colour_Asymmetry_Pilot,2022.1.3,Win32,59.90176111,62c50e9c1127f2cd403a315f,,,,,,,,,,,,,,,,,,,,,,,,,,,,,,,,,,,,,,,,,,,,,,,,,,,,,,,,,,,,,,,,,,,,,,,,,,,,,,,,,,,,,,,,,,,,,,,,,,,,,,,,,,,,,,,,,,,,,,,,,,,,,,,,,,,,,,,,,,,,,,,,,,,,,,,,,,,,,,,,,,
0,43,43,57,1,,5bfe92adaa5fa30001369e01,62c53a91b3254ef8c6ba96a7,2022-07-06_09h32.52.229,Colour_Asymmetry_Pilot,2022.1.3,Win32,59.90176111,62c50e9c1127f2cd403a315f,,,,,,,,,,,,,,,,,,,,,,,,,,,,,,,,,,,,,,,,,,,,,,,,,,,,,,,,,,,,,,,,,,,,,,,,,,,,,,,,,,,,,,,,,,,,,,,,,,,,,,,,,,,,,,,,,,,,,,,,,,,,,,,,,,,,,,,,,,,,,,,,,,,,,,,,,,,,,,,,,,
0,44,44,55,1,,5bfe92adaa5fa30001369e01,62c53a91b3254ef8c6ba96a7,2022-07-06_09h32.52.229,Colour_Asymmetry_Pilot,2022.1.3,Win32,59.90176111,62c50e9c1127f2cd403a315f,,,,,,,,,,,,,,,,,,,,,,,,,,,,,,,,,,,,,,,,,,,,,,,,,,,,,,,,,,,,,,,,,,,,,,,,,,,,,,,,,,,,,,,,,,,,,,,,,,,,,,,,,,,,,,,,,,,,,,,,,,,,,,,,,,,,,,,,,,,,,,,,,,,,,,,,,,,,,,,,,,
0,45,45,65,1,,5bfe92adaa5fa30001369e01,62c53a91b3254ef8c6ba96a7,2022-07-06_09h32.52.229,Colour_Asymmetry_Pilot,2022.1.3,Win32,59.90176111,62c50e9c1127f2cd403a315f,,,,,,,,,,,,,,,,,,,,,,,,,,,,,,,,,,,,,,,,,,,,,,,,,,,,,,,,,,,,,,,,,,,,,,,,,,,,,,,,,,,,,,,,,,,,,,,,,,,,,,,,,,,,,,,,,,,,,,,,,,,,,,,,,,,,,,,,,,,,,,,,,,,,,,,,,,,,,,,,,,
0,46,46,64,1,,5bfe92adaa5fa30001369e01,62c53a91b3254ef8c6ba96a7,2022-07-06_09h32.52.229,Colour_Asymmetry_Pilot,2022.1.3,Win32,59.90176111,62c50e9c1127f2cd403a315f,,,,,,,,,,,,,,,,,,,,,,,,,,,,,,,,,,,,,,,,,,,,,,,,,,,,,,,,,,,,,,,,,,,,,,,,,,,,,,,,,,,,,,,,,,,,,,,,,,,,,,,,,,,,,,,,,,,,,,,,,,,,,,,,,,,,,,,,,,,,,,,,,,,,,,,,,,,,,,,,,,
0,47,47,88,1,,5bfe92adaa5fa30001369e01,62c53a91b3254ef8c6ba96a7,2022-07-06_09h32.52.229,Colour_Asymmetry_Pilot,2022.1.3,Win32,59.90176111,62c50e9c1127f2cd403a315f,,,,,,,,,,,,,,,,,,,,,,,,,,,,,,,,,,,,,,,,,,,,,,,,,,,,,,,,,,,,,,,,,,,,,,,,,,,,,,,,,,,,,,,,,,,,,,,,,,,,,,,,,,,,,,,,,,,,,,,,,,,,,,,,,,,,,,,,,,,,,,,,,,,,,,,,,,,,,,,,,,
0,48,48,22,1,,5bfe92adaa5fa30001369e01,62c53a91b3254ef8c6ba96a7,2022-07-06_09h32.52.229,Colour_Asymmetry_Pilot,2022.1.3,Win32,59.90176111,62c50e9c1127f2cd403a315f,,,,,,,,,,,,,,,,,,,,,,,,,,,,,,,,,,,,,,,,,,,,,,,,,,,,,,,,,,,,,,,,,,,,,,,,,,,,,,,,,,,,,,,,,,,,,,,,,,,,,,,,,,,,,,,,,,,,,,,,,,,,,,,,,,,,,,,,,,,,,,,,,,,,,,,,,,,,,,,,,,
0,49,49,74,1,,5bfe92adaa5fa30001369e01,62c53a91b3254ef8c6ba96a7,2022-07-06_09h32.52.229,Colour_Asymmetry_Pilot,2022.1.3,Win32,59.90176111,62c50e9c1127f2cd403a315f,,,,,,,,,,,,,,,,,,,,,,,,,,,,,,,,,,,,,,,,,,,,,,,,,,,,,,,,,,,,,,,,,,,,,,,,,,,,,,,,,,,,,,,,,,,,,,,,,,,,,,,,,,,,,,,,,,,,,,,,,,,,,,,,,,,,,,,,,,,,,,,,,,,,,,,,,,,,,,,,,,
0,50,50,66,1,,5bfe92adaa5fa30001369e01,62c53a91b3254ef8c6ba96a7,2022-07-06_09h32.52.229,Colour_Asymmetry_Pilot,2022.1.3,Win32,59.90176111,62c50e9c1127f2cd403a315f,,,,,,,,,,,,,,,,,,,,,,,,,,,,,,,,,,,,,,,,,,,,,,,,,,,,,,,,,,,,,,,,,,,,,,,,,,,,,,,,,,,,,,,,,,,,,,,,,,,,,,,,,,,,,,,,,,,,,,,,,,,,,,,,,,,,,,,,,,,,,,,,,,,,,,,,,,,,,,,,,,
0,51,51,25,1,,5bfe92adaa5fa30001369e01,62c53a91b3254ef8c6ba96a7,2022-07-06_09h32.52.229,Colour_Asymmetry_Pilot,2022.1.3,Win32,59.90176111,62c50e9c1127f2cd403a315f,,,,,,,,,,,,,,,,,,,,,,,,,,,,,,,,,,,,,,,,,,,,,,,,,,,,,,,,,,,,,,,,,,,,,,,,,,,,,,,,,,,,,,,,,,,,,,,,,,,,,,,,,,,,,,,,,,,,,,,,,,,,,,,,,,,,,,,,,,,,,,,,,,,,,,,,,,,,,,,,,,
0,52,52,40,1,,5bfe92adaa5fa30001369e01,62c53a91b3254ef8c6ba96a7,2022-07-06_09h32.52.229,Colour_Asymmetry_Pilot,2022.1.3,Win32,59.90176111,62c50e9c1127f2cd403a315f,,,,,,,,,,,,,,,,,,,,,,,,,,,,,,,,,,,,,,,,,,,,,,,,,,,,,,,,,,,,,,,,,,,,,,,,,,,,,,,,,,,,,,,,,,,,,,,,,,,,,,,,,,,,,,,,,,,,,,,,,,,,,,,,,,,,,,,,,,,,,,,,,,,,,,,,,,,,,,,,,,
0,53,53,46,1,,5bfe92adaa5fa30001369e01,62c53a91b3254ef8c6ba96a7,2022-07-06_09h32.52.229,Colour_Asymmetry_Pilot,2022.1.3,Win32,59.90176111,62c50e9c1127f2cd403a315f,,,,,,,,,,,,,,,,,,,,,,,,,,,,,,,,,,,,,,,,,,,,,,,,,,,,,,,,,,,,,,,,,,,,,,,,,,,,,,,,,,,,,,,,,,,,,,,,,,,,,,,,,,,,,,,,,,,,,,,,,,,,,,,,,,,,,,,,,,,,,,,,,,,,,,,,,,,,,,,,,,
0,54,54,20,1,,5bfe92adaa5fa30001369e01,62c53a91b3254ef8c6ba96a7,2022-07-06_09h32.52.229,Colour_Asymmetry_Pilot,2022.1.3,Win32,59.90176111,62c50e9c1127f2cd403a315f,,,,,,,,,,,,,,,,,,,,,,,,,,,,,,,,,,,,,,,,,,,,,,,,,,,,,,,,,,,,,,,,,,,,,,,,,,,,,,,,,,,,,,,,,,,,,,,,,,,,,,,,,,,,,,,,,,,,,,,,,,,,,,,,,,,,,,,,,,,,,,,,,,,,,,,,,,,,,,,,,,
0,55,55,1,1,,5bfe92adaa5fa30001369e01,62c53a91b3254ef8c6ba96a7,2022-07-06_09h32.52.229,Colour_Asymmetry_Pilot,2022.1.3,Win32,59.90176111,62c50e9c1127f2cd403a315f,,,,,,,,,,,,,,,,,,,,,,,,,,,,,,,,,,,,,,,,,,,,,,,,,,,,,,,,,,,,,,,,,,,,,,,,,,,,,,,,,,,,,,,,,,,,,,,,,,,,,,,,,,,,,,,,,,,,,,,,,,,,,,,,,,,,,,,,,,,,,,,,,,,,,,,,,,,,,,,,,,
0,56,56,26,1,,5bfe92adaa5fa30001369e01,62c53a91b3254ef8c6ba96a7,2022-07-06_09h32.52.229,Colour_Asymmetry_Pilot,2022.1.3,Win32,59.90176111,62c50e9c1127f2cd403a315f,,,,,,,,,,,,,,,,,,,,,,,,,,,,,,,,,,,,,,,,,,,,,,,,,,,,,,,,,,,,,,,,,,,,,,,,,,,,,,,,,,,,,,,,,,,,,,,,,,,,,,,,,,,,,,,,,,,,,,,,,,,,,,,,,,,,,,,,,,,,,,,,,,,,,,,,,,,,,,,,,,
0,57,57,37,1,,5bfe92adaa5fa30001369e01,62c53a91b3254ef8c6ba96a7,2022-07-06_09h32.52.229,Colour_Asymmetry_Pilot,2022.1.3,Win32,59.90176111,62c50e9c1127f2cd403a315f,,,,,,,,,,,,,,,,,,,,,,,,,,,,,,,,,,,,,,,,,,,,,,,,,,,,,,,,,,,,,,,,,,,,,,,,,,,,,,,,,,,,,,,,,,,,,,,,,,,,,,,,,,,,,,,,,,,,,,,,,,,,,,,,,,,,,,,,,,,,,,,,,,,,,,,,,,,,,,,,,,
0,58,58,52,1,,5bfe92adaa5fa30001369e01,62c53a91b3254ef8c6ba96a7,2022-07-06_09h32.52.229,Colour_Asymmetry_Pilot,2022.1.3,Win32,59.90176111,62c50e9c1127f2cd403a315f,,,,,,,,,,,,,,,,,,,,,,,,,,,,,,,,,,,,,,,,,,,,,,,,,,,,,,,,,,,,,,,,,,,,,,,,,,,,,,,,,,,,,,,,,,,,,,,,,,,,,,,,,,,,,,,,,,,,,,,,,,,,,,,,,,,,,,,,,,,,,,,,,,,,,,,,,,,,,,,,,,
0,59,59,78,1,,5bfe92adaa5fa30001369e01,62c53a91b3254ef8c6ba96a7,2022-07-06_09h32.52.229,Colour_Asymmetry_Pilot,2022.1.3,Win32,59.90176111,62c50e9c1127f2cd403a315f,,,,,,,,,,,,,,,,,,,,,,,,,,,,,,,,,,,,,,,,,,,,,,,,,,,,,,,,,,,,,,,,,,,,,,,,,,,,,,,,,,,,,,,,,,,,,,,,,,,,,,,,,,,,,,,,,,,,,,,,,,,,,,,,,,,,,,,,,,,,,,,,,,,,,,,,,,,,,,,,,,
0,60,60,41,1,,5bfe92adaa5fa30001369e01,62c53a91b3254ef8c6ba96a7,2022-07-06_09h32.52.229,Colour_Asymmetry_Pilot,2022.1.3,Win32,59.90176111,62c50e9c1127f2cd403a315f,,,,,,,,,,,,,,,,,,,,,,,,,,,,,,,,,,,,,,,,,,,,,,,,,,,,,,,,,,,,,,,,,,,,,,,,,,,,,,,,,,,,,,,,,,,,,,,,,,,,,,,,,,,,,,,,,,,,,,,,,,,,,,,,,,,,,,,,,,,,,,,,,,,,,,,,,,,,,,,,,,
0,61,61,91,1,,5bfe92adaa5fa30001369e01,62c53a91b3254ef8c6ba96a7,2022-07-06_09h32.52.229,Colour_Asymmetry_Pilot,2022.1.3,Win32,59.90176111,62c50e9c1127f2cd403a315f,,,,,,,,,,,,,,,,,,,,,,,,,,,,,,,,,,,,,,,,,,,,,,,,,,,,,,,,,,,,,,,,,,,,,,,,,,,,,,,,,,,,,,,,,,,,,,,,,,,,,,,,,,,,,,,,,,,,,,,,,,,,,,,,,,,,,,,,,,,,,,,,,,,,,,,,,,,,,,,,,,
0,62,62,53,1,,5bfe92adaa5fa30001369e01,62c53a91b3254ef8c6ba96a7,2022-07-06_09h32.52.229,Colour_Asymmetry_Pilot,2022.1.3,Win32,59.90176111,62c50e9c1127f2cd403a315f,,,,,,,,,,,,,,,,,,,,,,,,,,,,,,,,,,,,,,,,,,,,,,,,,,,,,,,,,,,,,,,,,,,,,,,,,,,,,,,,,,,,,,,,,,,,,,,,,,,,,,,,,,,,,,,,,,,,,,,,,,,,,,,,,,,,,,,,,,,,,,,,,,,,,,,,,,,,,,,,,,
0,63,63,59,1,,5bfe92adaa5fa30001369e01,62c53a91b3254ef8c6ba96a7,2022-07-06_09h32.52.229,Colour_Asymmetry_Pilot,2022.1.3,Win32,59.90176111,62c50e9c1127f2cd403a315f,,,,,,,,,,,,,,,,,,,,,,,,,,,,,,,,,,,,,,,,,,,,,,,,,,,,,,,,,,,,,,,,,,,,,,,,,,,,,,,,,,,,,,,,,,,,,,,,,,,,,,,,,,,,,,,,,,,,,,,,,,,,,,,,,,,,,,,,,,,,,,,,,,,,,,,,,,,,,,,,,,
0,64,64,7,1,,5bfe92adaa5fa30001369e01,62c53a91b3254ef8c6ba96a7,2022-07-06_09h32.52.229,Colour_Asymmetry_Pilot,2022.1.3,Win32,59.90176111,62c50e9c1127f2cd403a315f,,,,,,,,,,,,,,,,,,,,,,,,,,,,,,,,,,,,,,,,,,,,,,,,,,,,,,,,,,,,,,,,,,,,,,,,,,,,,,,,,,,,,,,,,,,,,,,,,,,,,,,,,,,,,,,,,,,,,,,,,,,,,,,,,,,,,,,,,,,,,,,,,,,,,,,,,,,,,,,,,,
0,65,65,81,1,,5bfe92adaa5fa30001369e01,62c53a91b3254ef8c6ba96a7,2022-07-06_09h32.52.229,Colour_Asymmetry_Pilot,2022.1.3,Win32,59.90176111,62c50e9c1127f2cd403a315f,,,,,,,,,,,,,,,,,,,,,,,,,,,,,,,,,,,,,,,,,,,,,,,,,,,,,,,,,,,,,,,,,,,,,,,,,,,,,,,,,,,,,,,,,,,,,,,,,,,,,,,,,,,,,,,,,,,,,,,,,,,,,,,,,,,,,,,,,,,,,,,,,,,,,,,,,,,,,,,,,,
0,66,66,86,1,,5bfe92adaa5fa30001369e01,62c53a91b3254ef8c6ba96a7,2022-07-06_09h32.52.229,Colour_Asymmetry_Pilot,2022.1.3,Win32,59.90176111,62c50e9c1127f2cd403a315f,,,,,,,,,,,,,,,,,,,,,,,,,,,,,,,,,,,,,,,,,,,,,,,,,,,,,,,,,,,,,,,,,,,,,,,,,,,,,,,,,,,,,,,,,,,,,,,,,,,,,,,,,,,,,,,,,,,,,,,,,,,,,,,,,,,,,,,,,,,,,,,,,,,,,,,,,,,,,,,,,,
0,67,67,18,1,,5bfe92adaa5fa30001369e01,62c53a91b3254ef8c6ba96a7,2022-07-06_09h32.52.229,Colour_Asymmetry_Pilot,2022.1.3,Win32,59.90176111,62c50e9c1127f2cd403a315f,,,,,,,,,,,,,,,,,,,,,,,,,,,,,,,,,,,,,,,,,,,,,,,,,,,,,,,,,,,,,,,,,,,,,,,,,,,,,,,,,,,,,,,,,,,,,,,,,,,,,,,,,,,,,,,,,,,,,,,,,,,,,,,,,,,,,,,,,,,,,,,,,,,,,,,,,,,,,,,,,,
0,68,68,32,1,,5bfe92adaa5fa30001369e01,62c53a91b3254ef8c6ba96a7,2022-07-06_09h32.52.229,Colour_Asymmetry_Pilot,2022.1.3,Win32,59.90176111,62c50e9c1127f2cd403a315f,,,,,,,,,,,,,,,,,,,,,,,,,,,,,,,,,,,,,,,,,,,,,,,,,,,,,,,,,,,,,,,,,,,,,,,,,,,,,,,,,,,,,,,,,,,,,,,,,,,,,,,,,,,,,,,,,,,,,,,,,,,,,,,,,,,,,,,,,,,,,,,,,,,,,,,,,,,,,,,,,,
0,69,69,5,1,,5bfe92adaa5fa30001369e01,62c53a91b3254ef8c6ba96a7,2022-07-06_09h32.52.229,Colour_Asymmetry_Pilot,2022.1.3,Win32,59.90176111,62c50e9c1127f2cd403a315f,,,,,,,,,,,,,,,,,,,,,,,,,,,,,,,,,,,,,,,,,,,,,,,,,,,,,,,,,,,,,,,,,,,,,,,,,,,,,,,,,,,,,,,,,,,,,,,,,,,,,,,,,,,,,,,,,,,,,,,,,,,,,,,,,,,,,,,,,,,,,,,,,,,,,,,,,,,,,,,,,,
0,70,70,75,1,,5bfe92adaa5fa30001369e01,62c53a91b3254ef8c6ba96a7,2022-07-06_09h32.52.229,Colour_Asymmetry_Pilot,2022.1.3,Win32,59.90176111,62c50e9c1127f2cd403a315f,,,,,,,,,,,,,,,,,,,,,,,,,,,,,,,,,,,,,,,,,,,,,,,,,,,,,,,,,,,,,,,,,,,,,,,,,,,,,,,,,,,,,,,,,,,,,,,,,,,,,,,,,,,,,,,,,,,,,,,,,,,,,,,,,,,,,,,,,,,,,,,,,,,,,,,,,,,,,,,,,,
0,71,71,73,1,,5bfe92adaa5fa30001369e01,62c53a91b3254ef8c6ba96a7,2022-07-06_09h32.52.229,Colour_Asymmetry_Pilot,2022.1.3,Win32,59.90176111,62c50e9c1127f2cd403a315f,,,,,,,,,,,,,,,,,,,,,,,,,,,,,,,,,,,,,,,,,,,,,,,,,,,,,,,,,,,,,,,,,,,,,,,,,,,,,,,,,,,,,,,,,,,,,,,,,,,,,,,,,,,,,,,,,,,,,,,,,,,,,,,,,,,,,,,,,,,,,,,,,,,,,,,,,,,,,,,,,,
0,72,72,47,1,,5bfe92adaa5fa30001369e01,62c53a91b3254ef8c6ba96a7,2022-07-06_09h32.52.229,Colour_Asymmetry_Pilot,2022.1.3,Win32,59.90176111,62c50e9c1127f2cd403a315f,,,,,,,,,,,,,,,,,,,,,,,,,,,,,,,,,,,,,,,,,,,,,,,,,,,,,,,,,,,,,,,,,,,,,,,,,,,,,,,,,,,,,,,,,,,,,,,,,,,,,,,,,,,,,,,,,,,,,,,,,,,,,,,,,,,,,,,,,,,,,,,,,,,,,,,,,,,,,,,,,,
0,73,73,15,1,,5bfe92adaa5fa30001369e01,62c53a91b3254ef8c6ba96a7,2022-07-06_09h32.52.229,Colour_Asymmetry_Pilot,2022.1.3,Win32,59.90176111,62c50e9c1127f2cd403a315f,,,,,,,,,,,,,,,,,,,,,,,,,,,,,,,,,,,,,,,,,,,,,,,,,,,,,,,,,,,,,,,,,,,,,,,,,,,,,,,,,,,,,,,,,,,,,,,,,,,,,,,,,,,,,,,,,,,,,,,,,,,,,,,,,,,,,,,,,,,,,,,,,,,,,,,,,,,,,,,,,,
0,74,74,44,1,,5bfe92adaa5fa30001369e01,62c53a91b3254ef8c6ba96a7,2022-07-06_09h32.52.229,Colour_Asymmetry_Pilot,2022.1.3,Win32,59.90176111,62c50e9c1127f2cd403a315f,,,,,,,,,,,,,,,,,,,,,,,,,,,,,,,,,,,,,,,,,,,,,,,,,,,,,,,,,,,,,,,,,,,,,,,,,,,,,,,,,,,,,,,,,,,,,,,,,,,,,,,,,,,,,,,,,,,,,,,,,,,,,,,,,,,,,,,,,,,,,,,,,,,,,,,,,,,,,,,,,,
0,75,75,67,1,,5bfe92adaa5fa30001369e01,62c53a91b3254ef8c6ba96a7,2022-07-06_09h32.52.229,Colour_Asymmetry_Pilot,2022.1.3,Win32,59.90176111,62c50e9c1127f2cd403a315f,,,,,,,,,,,,,,,,,,,,,,,,,,,,,,,,,,,,,,,,,,,,,,,,,,,,,,,,,,,,,,,,,,,,,,,,,,,,,,,,,,,,,,,,,,,,,,,,,,,,,,,,,,,,,,,,,,,,,,,,,,,,,,,,,,,,,,,,,,,,,,,,,,,,,,,,,,,,,,,,,,
0,76,76,31,1,,5bfe92adaa5fa30001369e01,62c53a91b3254ef8c6ba96a7,2022-07-06_09h32.52.229,Colour_Asymmetry_Pilot,2022.1.3,Win32,59.90176111,62c50e9c1127f2cd403a315f,,,,,,,,,,,,,,,,,,,,,,,,,,,,,,,,,,,,,,,,,,,,,,,,,,,,,,,,,,,,,,,,,,,,,,,,,,,,,,,,,,,,,,,,,,,,,,,,,,,,,,,,,,,,,,,,,,,,,,,,,,,,,,,,,,,,,,,,,,,,,,,,,,,,,,,,,,,,,,,,,,
0,77,77,85,1,,5bfe92adaa5fa30001369e01,62c53a91b3254ef8c6ba96a7,2022-07-06_09h32.52.229,Colour_Asymmetry_Pilot,2022.1.3,Win32,59.90176111,62c50e9c1127f2cd403a315f,,,,,,,,,,,,,,,,,,,,,,,,,,,,,,,,,,,,,,,,,,,,,,,,,,,,,,,,,,,,,,,,,,,,,,,,,,,,,,,,,,,,,,,,,,,,,,,,,,,,,,,,,,,,,,,,,,,,,,,,,,,,,,,,,,,,,,,,,,,,,,,,,,,,,,,,,,,,,,,,,,
0,78,78,42,1,,5bfe92adaa5fa30001369e01,62c53a91b3254ef8c6ba96a7,2022-07-06_09h32.52.229,Colour_Asymmetry_Pilot,2022.1.3,Win32,59.90176111,62c50e9c1127f2cd403a315f,,,,,,,,,,,,,,,,,,,,,,,,,,,,,,,,,,,,,,,,,,,,,,,,,,,,,,,,,,,,,,,,,,,,,,,,,,,,,,,,,,,,,,,,,,,,,,,,,,,,,,,,,,,,,,,,,,,,,,,,,,,,,,,,,,,,,,,,,,,,,,,,,,,,,,,,,,,,,,,,,,
0,79,79,2,1,,5bfe92adaa5fa30001369e01,62c53a91b3254ef8c6ba96a7,2022-07-06_09h32.52.229,Colour_Asymmetry_Pilot,2022.1.3,Win32,59.90176111,62c50e9c1127f2cd403a315f,,,,,,,,,,,,,,,,,,,,,,,,,,,,,,,,,,,,,,,,,,,,,,,,,,,,,,,,,,,,,,,,,,,,,,,,,,,,,,,,,,,,,,,,,,,,,,,,,,,,,,,,,,,,,,,,,,,,,,,,,,,,,,,,,,,,,,,,,,,,,,,,,,,,,,,,,,,,,,,,,,
0,80,80,11,1,,5bfe92adaa5fa30001369e01,62c53a91b3254ef8c6ba96a7,2022-07-06_09h32.52.229,Colour_Asymmetry_Pilot,2022.1.3,Win32,59.90176111,62c50e9c1127f2cd403a315f,,,,,,,,,,,,,,,,,,,,,,,,,,,,,,,,,,,,,,,,,,,,,,,,,,,,,,,,,,,,,,,,,,,,,,,,,,,,,,,,,,,,,,,,,,,,,,,,,,,,,,,,,,,,,,,,,,,,,,,,,,,,,,,,,,,,,,,,,,,,,,,,,,,,,,,,,,,,,,,,,,
0,81,81,14,1,,5bfe92adaa5fa30001369e01,62c53a91b3254ef8c6ba96a7,2022-07-06_09h32.52.229,Colour_Asymmetry_Pilot,2022.1.3,Win32,59.90176111,62c50e9c1127f2cd403a315f,,,,,,,,,,,,,,,,,,,,,,,,,,,,,,,,,,,,,,,,,,,,,,,,,,,,,,,,,,,,,,,,,,,,,,,,,,,,,,,,,,,,,,,,,,,,,,,,,,,,,,,,,,,,,,,,,,,,,,,,,,,,,,,,,,,,,,,,,,,,,,,,,,,,,,,,,,,,,,,,,,
0,82,82,48,1,,5bfe92adaa5fa30001369e01,62c53a91b3254ef8c6ba96a7,2022-07-06_09h32.52.229,Colour_Asymmetry_Pilot,2022.1.3,Win32,59.90176111,62c50e9c1127f2cd403a315f,,,,,,,,,,,,,,,,,,,,,,,,,,,,,,,,,,,,,,,,,,,,,,,,,,,,,,,,,,,,,,,,,,,,,,,,,,,,,,,,,,,,,,,,,,,,,,,,,,,,,,,,,,,,,,,,,,,,,,,,,,,,,,,,,,,,,,,,,,,,,,,,,,,,,,,,,,,,,,,,,,
0,83,83,61,1,,5bfe92adaa5fa30001369e01,62c53a91b3254ef8c6ba96a7,2022-07-06_09h32.52.229,Colour_Asymmetry_Pilot,2022.1.3,Win32,59.90176111,62c50e9c1127f2cd403a315f,,,,,,,,,,,,,,,,,,,,,,,,,,,,,,,,,,,,,,,,,,,,,,,,,,,,,,,,,,,,,,,,,,,,,,,,,,,,,,,,,,,,,,,,,,,,,,,,,,,,,,,,,,,,,,,,,,,,,,,,,,,,,,,,,,,,,,,,,,,,,,,,,,,,,,,,,,,,,,,,,,
0,84,84,92,1,,5bfe92adaa5fa30001369e01,62c53a91b3254ef8c6ba96a7,2022-07-06_09h32.52.229,Colour_Asymmetry_Pilot,2022.1.3,Win32,59.90176111,62c50e9c1127f2cd403a315f,,,,,,,,,,,,,,,,,,,,,,,,,,,,,,,,,,,,,,,,,,,,,,,,,,,,,,,,,,,,,,,,,,,,,,,,,,,,,,,,,,,,,,,,,,,,,,,,,,,,,,,,,,,,,,,,,,,,,,,,,,,,,,,,,,,,,,,,,,,,,,,,,,,,,,,,,,,,,,,,,,
0,85,85,43,1,,5bfe92adaa5fa30001369e01,62c53a91b3254ef8c6ba96a7,2022-07-06_09h32.52.229,Colour_Asymmetry_Pilot,2022.1.3,Win32,59.90176111,62c50e9c1127f2cd403a315f,,,,,,,,,,,,,,,,,,,,,,,,,,,,,,,,,,,,,,,,,,,,,,,,,,,,,,,,,,,,,,,,,,,,,,,,,,,,,,,,,,,,,,,,,,,,,,,,,,,,,,,,,,,,,,,,,,,,,,,,,,,,,,,,,,,,,,,,,,,,,,,,,,,,,,,,,,,,,,,,,,
0,86,86,16,1,,5bfe92adaa5fa30001369e01,62c53a91b3254ef8c6ba96a7,2022-07-06_09h32.52.229,Colour_Asymmetry_Pilot,2022.1.3,Win32,59.90176111,62c50e9c1127f2cd403a315f,,,,,,,,,,,,,,,,,,,,,,,,,,,,,,,,,,,,,,,,,,,,,,,,,,,,,,,,,,,,,,,,,,,,,,,,,,,,,,,,,,,,,,,,,,,,,,,,,,,,,,,,,,,,,,,,,,,,,,,,,,,,,,,,,,,,,,,,,,,,,,,,,,,,,,,,,,,,,,,,,,
0,87,87,27,1,,5bfe92adaa5fa30001369e01,62c53a91b3254ef8c6ba96a7,2022-07-06_09h32.52.229,Colour_Asymmetry_Pilot,2022.1.3,Win32,59.90176111,62c50e9c1127f2cd403a315f,,,,,,,,,,,,,,,,,,,,,,,,,,,,,,,,,,,,,,,,,,,,,,,,,,,,,,,,,,,,,,,,,,,,,,,,,,,,,,,,,,,,,,,,,,,,,,,,,,,,,,,,,,,,,,,,,,,,,,,,,,,,,,,,,,,,,,,,,,,,,,,,,,,,,,,,,,,,,,,,,,
0,88,88,80,1,,5bfe92adaa5fa30001369e01,62c53a91b3254ef8c6ba96a7,2022-07-06_09h32.52.229,Colour_Asymmetry_Pilot,2022.1.3,Win32,59.90176111,62c50e9c1127f2cd403a315f,,,,,,,,,,,,,,,,,,,,,,,,,,,,,,,,,,,,,,,,,,,,,,,,,,,,,,,,,,,,,,,,,,,,,,,,,,,,,,,,,,,,,,,,,,,,,,,,,,,,,,,,,,,,,,,,,,,,,,,,,,,,,,,,,,,,,,,,,,,,,,,,,,,,,,,,,,,,,,,,,,
0,89,89,36,1,,5bfe92adaa5fa30001369e01,62c53a91b3254ef8c6ba96a7,2022-07-06_09h32.52.229,Colour_Asymmetry_Pilot,2022.1.3,Win32,59.90176111,62c50e9c1127f2cd403a315f,,,,,,,,,,,,,,,,,,,,,,,,,,,,,,,,,,,,,,,,,,,,,,,,,,,,,,,,,,,,,,,,,,,,,,,,,,,,,,,,,,,,,,,,,,,,,,,,,,,,,,,,,,,,,,,,,,,,,,,,,,,,,,,,,,,,,,,,,,,,,,,,,,,,,,,,,,,,,,,,,,
0,90,90,9,1,,5bfe92adaa5fa30001369e01,62c53a91b3254ef8c6ba96a7,2022-07-06_09h32.52.229,Colour_Asymmetry_Pilot,2022.1.3,Win32,59.90176111,62c50e9c1127f2cd403a315f,,,,,,,,,,,,,,,,,,,,,,,,,,,,,,,,,,,,,,,,,,,,,,,,,,,,,,,,,,,,,,,,,,,,,,,,,,,,,,,,,,,,,,,,,,,,,,,,,,,,,,,,,,,,,,,,,,,,,,,,,,,,,,,,,,,,,,,,,,,,,,,,,,,,,,,,,,,,,,,,,,
0,91,91,60,1,,5bfe92adaa5fa30001369e01,62c53a91b3254ef8c6ba96a7,2022-07-06_09h32.52.229,Colour_Asymmetry_Pilot,2022.1.3,Win32,59.90176111,62c50e9c1127f2cd403a315f,,,,,,,,,,,,,,,,,,,,,,,,,,,,,,,,,,,,,,,,,,,,,,,,,,,,,,,,,,,,,,,,,,,,,,,,,,,,,,,,,,,,,,,,,,,,,,,,,,,,,,,,,,,,,,,,,,,,,,,,,,,,,,,,,,,,,,,,,,,,,,,,,,,,,,,,,,,,,,,,,,
0,92,92,51,1,,5bfe92adaa5fa30001369e01,62c53a91b3254ef8c6ba96a7,2022-07-06_09h32.52.229,Colour_Asymmetry_Pilot,2022.1.3,Win32,59.90176111,62c50e9c1127f2cd403a315f,,,,,,,,,,,,,,,,,,,,,,,,,,,,,,,,,,,,,,,,,,,,,,,,,,,,,,,,,,,,,,,,,,,,,,,,,,,,,,,,,,,,,,,,,,,,,,,,,,,,,,,,,,,,,,,,,,,,,,,,,,,,,,,,,,,,,,,,,,,,,,,,,,,,,,,,,,,,,,,,,,
,,,,,,5bfe92adaa5fa30001369e01,62c53a91b3254ef8c6ba96a7,2022-07-06_09h32.52.229,Colour_Asymmetry_Pilot,2022.1.3,Win32,59.90176111,62c50e9c1127f2cd403a315f,0,0,0,30,1,fourtwo,,,,,,,,,,,,,,,,,,,,,,,,,,,,,,,,,,,,,,,,,,,,,,,,,,,,,,,,,,,,,,,,,,,,,,,,,,,,,,,,,,,,,,,,,,,,,,,,,,,,,,,,,,,,,,,,,,,,,,,,,,,,,,,,,,,,,,,,,,,,,,,,,,,,,,,,,,,,
,,,,,,5bfe92adaa5fa30001369e01,62c53a91b3254ef8c6ba96a7,2022-07-06_09h32.52.229,Colour_Asymmetry_Pilot,2022.1.3,Win32,59.90176111,62c50e9c1127f2cd403a315f,0,1,1,110,1,fourtwo,,,,,,,,,,,,,,,,,,,,,,,,,,,,,,,,,,,,,,,,,,,,,,,,,,,,,,,,,,,,,,,,,,,,,,,,,,,,,,,,,,,,,,,,,,,,,,,,,,,,,,,,,,,,,,,,,,,,,,,,,,,,,,,,,,,,,,,,,,,,,,,,,,,,,,,,,,,,
,,,,,,5bfe92adaa5fa30001369e01,62c53a91b3254ef8c6ba96a7,2022-07-06_09h32.52.229,Colour_Asymmetry_Pilot,2022.1.3,Win32,59.90176111,62c50e9c1127f2cd403a315f,0,2,2,116,1,threeone,,,,,,,,,,,,,,,,,,,,,,,,,,,,,,,,,,,,,,,,,,,,,,,,,,,,,,,,,,,,,,,,,,,,,,,,,,,,,,,,,,,,,,,,,,,,,,,,,,,,,,,,,,,,,,,,,,,,,,,,,,,,,,,,,,,,,,,,,,,,,,,,,,,,,,,,,,,,
,,,,,,5bfe92adaa5fa30001369e01,62c53a91b3254ef8c6ba96a7,2022-07-06_09h32.52.229,Colour_Asymmetry_Pilot,2022.1.3,Win32,59.90176111,62c50e9c1127f2cd403a315f,0,3,3,111,1,fourthree,,,,,,,,,,,,,,,,,,,,,,,,,,,,,,,,,,,,,,,,,,,,,,,,,,,,,,,,,,,,,,,,,,,,,,,,,,,,,,,,,,,,,,,,,,,,,,,,,,,,,,,,,,,,,,,,,,,,,,,,,,,,,,,,,,,,,,,,,,,,,,,,,,,,,,,,,,,,
,,,,,,5bfe92adaa5fa30001369e01,62c53a91b3254ef8c6ba96a7,2022-07-06_09h32.52.229,Colour_Asymmetry_Pilot,2022.1.3,Win32,59.90176111,62c50e9c1127f2cd403a315f,0,4,4,90,1,twoone,,,,,,,,,,,,,,,,,,,,,,,,,,,,,,,,,,,,,,,,,,,,,,,,,,,,,,,,,,,,,,,,,,,,,,,,,,,,,,,,,,,,,,,,,,,,,,,,,,,,,,,,,,,,,,,,,,,,,,,,,,,,,,,,,,,,,,,,,,,,,,,,,,,,,,,,,,,,
,,,,,,5bfe92adaa5fa30001369e01,62c53a91b3254ef8c6ba96a7,2022-07-06_09h32.52.229,Colour_Asymmetry_Pilot,2022.1.3,Win32,59.90176111,62c50e9c1127f2cd403a315f,0,5,5,17,1,onethree,,,,,,,,,,,,,,,,,,,,,,,,,,,,,,,,,,,,,,,,,,,,,,,,,,,,,,,,,,,,,,,,,,,,,,,,,,,,,,,,,,,,,,,,,,,,,,,,,,,,,,,,,,,,,,,,,,,,,,,,,,,,,,,,,,,,,,,,,,,,,,,,,,,,,,,,,,,,
,,,,,,5bfe92adaa5fa30001369e01,62c53a91b3254ef8c6ba96a7,2022-07-06_09h32.52.229,Colour_Asymmetry_Pilot,2022.1.3,Win32,59.90176111,62c50e9c1127f2cd403a315f,0,6,6,134,1,fourtwo,,,,,,,,,,,,,,,,,,,,,,,,,,,,,,,,,,,,,,,,,,,,,,,,,,,,,,,,,,,,,,,,,,,,,,,,,,,,,,,,,,,,,,,,,,,,,,,,,,,,,,,,,,,,,,,,,,,,,,,,,,,,,,,,,,,,,,,,,,,,,,,,,,,,,,,,,,,,
,,,,,,5bfe92adaa5fa30001369e01,62c53a91b3254ef8c6ba96a7,2022-07-06_09h32.52.229,Colour_Asymmetry_Pilot,2022.1.3,Win32,59.90176111,62c50e9c1127f2cd403a315f,0,7,7,49,1,onethree,,,,,,,,,,,,,,,,,,,,,,,,,,,,,,,,,,,,,,,,,,,,,,,,,,,,,,,,,,,,,,,,,,,,,,,,,,,,,,,,,,,,,,,,,,,,,,,,,,,,,,,,,,,,,,,,,,,,,,,,,,,,,,,,,,,,,,,,,,,,,,,,,,,,,,,,,,,,
,,,,,,5bfe92adaa5fa30001369e01,62c53a91b3254ef8c6ba96a7,2022-07-06_09h32.52.229,Colour_Asymmetry_Pilot,2022.1.3,Win32,59.90176111,62c50e9c1127f2cd403a315f,0,8,8,97,1,onethree,,,,,,,,,,,,,,,,,,,,,,,,,,,,,,,,,,,,,,,,,,,,,,,,,,,,,,,,,,,,,,,,,,,,,,,,,,,,,,,,,,,,,,,,,,,,,,,,,,,,,,,,,,,,,,,,,,,,,,,,,,,,,,,,,,,,,,,,,,,,,,,,,,,,,,,,,,,,
,,,,,,5bfe92adaa5fa30001369e01,62c53a91b3254ef8c6ba96a7,2022-07-06_09h32.52.229,Colour_Asymmetry_Pilot,2022.1.3,Win32,59.90176111,62c50e9c1127f2cd403a315f,0,9,9,118,1,fourtwo,,,,,,,,,,,,,,,,,,,,,,,,,,,,,,,,,,,,,,,,,,,,,,,,,,,,,,,,,,,,,,,,,,,,,,,,,,,,,,,,,,,,,,,,,,,,,,,,,,,,,,,,,,,,,,,,,,,,,,,,,,,,,,,,,,,,,,,,,,,,,,,,,,,,,,,,,,,,
,,,,,,5bfe92adaa5fa30001369e01,62c53a91b3254ef8c6ba96a7,2022-07-06_09h32.52.229,Colour_Asymmetry_Pilot,2022.1.3,Win32,59.90176111,62c50e9c1127f2cd403a315f,0,10,10,37,1,threefour,,,,,,,,,,,,,,,,,,,,,,,,,,,,,,,,,,,,,,,,,,,,,,,,,,,,,,,,,,,,,,,,,,,,,,,,,,,,,,,,,,,,,,,,,,,,,,,,,,,,,,,,,,,,,,,,,,,,,,,,,,,,,,,,,,,,,,,,,,,,,,,,,,,,,,,,,,,,
,,,,,,5bfe92adaa5fa30001369e01,62c53a91b3254ef8c6ba96a7,2022-07-06_09h32.52.229,Colour_Asymmetry_Pilot,2022.1.3,Win32,59.90176111,62c50e9c1127f2cd403a315f,0,11,11,105,1,onethree,,,,,,,,,,,,,,,,,,,,,,,,,,,,,,,,,,,,,,,,,,,,,,,,,,,,,,,,,,,,,,,,,,,,,,,,,,,,,,,,,,,,,,,,,,,,,,,,,,,,,,,,,,,,,,,,,,,,,,,,,,,,,,,,,,,,,,,,,,,,,,,,,,,,,,,,,,,,
,,,,,,5bfe92adaa5fa30001369e01,62c53a91b3254ef8c6ba96a7,2022-07-06_09h32.52.229,Colour_Asymmetry_Pilot,2022.1.3,Win32,59.90176111,62c50e9c1127f2cd403a315f,0,12,12,61,1,threefour,,,,,,,,,,,,,,,,,,,,,,,,,,,,,,,,,,,,,,,,,,,,,,,,,,,,,,,,,,,,,,,,,,,,,,,,,,,,,,,,,,,,,,,,,,,,,,,,,,,,,,,,,,,,,,,,,,,,,,,,,,,,,,,,,,,,,,,,,,,,,,,,,,,,,,,,,,,,
,,,,,,5bfe92adaa5fa30001369e01,62c53a91b3254ef8c6ba96a7,2022-07-06_09h32.52.229,Colour_Asymmetry_Pilot,2022.1.3,Win32,59.90176111,62c50e9c1127f2cd403a315f,0,13,13,103,1,fourthree,,,,,,,,,,,,,,,,,,,,,,,,,,,,,,,,,,,,,,,,,,,,,,,,,,,,,,,,,,,,,,,,,,,,,,,,,,,,,,,,,,,,,,,,,,,,,,,,,,,,,,,,,,,,,,,,,,,,,,,,,,,,,,,,,,,,,,,,,,,,,,,,,,,,,,,,,,,,
,,,,,,5bfe92adaa5fa30001369e01,62c53a91b3254ef8c6ba96a7,2022-07-06_09h32.52.229,Colour_Asymmetry_Pilot,2022.1.3,Win32,59.90176111,62c50e9c1127f2cd403a315f,0,14,14,160,1,onetwo,,,,,,,,,,,,,,,,,,,,,,,,,,,,,,,,,,,,,,,,,,,,,,,,,,,,,,,,,,,,,,,,,,,,,,,,,,,,,,,,,,,,,,,,,,,,,,,,,,,,,,,,,,,,,,,,,,,,,,,,,,,,,,,,,,,,,,,,,,,,,,,,,,,,,,,,,,,,
,,,,,,5bfe92adaa5fa30001369e01,62c53a91b3254ef8c6ba96a7,2022-07-06_09h32.52.229,Colour_Asymmetry_Pilot,2022.1.3,Win32,59.90176111,62c50e9c1127f2cd403a315f,0,15,15,130,1,twoone,,,,,,,,,,,,,,,,,,,,,,,,,,,,,,,,,,,,,,,,,,,,,,,,,,,,,,,,,,,,,,,,,,,,,,,,,,,,,,,,,,,,,,,,,,,,,,,,,,,,,,,,,,,,,,,,,,,,,,,,,,,,,,,,,,,,,,,,,,,,,,,,,,,,,,,,,,,,
,,,,,,5bfe92adaa5fa30001369e01,62c53a91b3254ef8c6ba96a7,2022-07-06_09h32.52.229,Colour_Asymmetry_Pilot,2022.1.3,Win32,59.90176111,62c50e9c1127f2cd403a315f,0,16,16,154,1,twoone,,,,,,,,,,,,,,,,,,,,,,,,,,,,,,,,,,,,,,,,,,,,,,,,,,,,,,,,,,,,,,,,,,,,,,,,,,,,,,,,,,,,,,,,,,,,,,,,,,,,,,,,,,,,,,,,,,,,,,,,,,,,,,,,,,,,,,,,,,,,,,,,,,,,,,,,,,,,
,,,,,,5bfe92adaa5fa30001369e01,62c53a91b3254ef8c6ba96a7,2022-07-06_09h32.52.229,Colour_Asymmetry_Pilot,2022.1.3,Win32,59.90176111,62c50e9c1127f2cd403a315f,0,17,17,28,1,threeone,,,,,,,,,,,,,,,,,,,,,,,,,,,,,,,,,,,,,,,,,,,,,,,,,,,,,,,,,,,,,,,,,,,,,,,,,,,,,,,,,,,,,,,,,,,,,,,,,,,,,,,,,,,,,,,,,,,,,,,,,,,,,,,,,,,,,,,,,,,,,,,,,,,,,,,,,,,,
,,,,,,5bfe92adaa5fa30001369e01,62c53a91b3254ef8c6ba96a7,2022-07-06_09h32.52.229,Colour_Asymmetry_Pilot,2022.1.3,Win32,59.90176111,62c50e9c1127f2cd403a315f,0,18,18,158,1,fourtwo,,,,,,,,,,,,,,,,,,,,,,,,,,,,,,,,,,,,,,,,,,,,,,,,,,,,,,,,,,,,,,,,,,,,,,,,,,,,,,,,,,,,,,,,,,,,,,,,,,,,,,,,,,,,,,,,,,,,,,,,,,,,,,,,,,,,,,,,,,,,,,,,,,,,,,,,,,,,
,,,,,,5bfe92adaa5fa30001369e01,62c53a91b3254ef8c6ba96a7,2022-07-06_09h32.52.229,Colour_Asymmetry_Pilot,2022.1.3,Win32,59.90176111,62c50e9c1127f2cd403a315f,0,19,19,149,1,threefour,,,,,,,,,,,,,,,,,,,,,,,,,,,,,,,,,,,,,,,,,,,,,,,,,,,,,,,,,,,,,,,,,,,,,,,,,,,,,,,,,,,,,,,,,,,,,,,,,,,,,,,,,,,,,,,,,,,,,,,,,,,,,,,,,,,,,,,,,,,,,,,,,,,,,,,,,,,,
,,,,,,5bfe92adaa5fa30001369e01,62c53a91b3254ef8c6ba96a7,2022-07-06_09h32.52.229,Colour_Asymmetry_Pilot,2022.1.3,Win32,59.90176111,62c50e9c1127f2cd403a315f,0,20,20,80,1,onetwo,,,,,,,,,,,,,,,,,,,,,,,,,,,,,,,,,,,,,,,,,,,,,,,,,,,,,,,,,,,,,,,,,,,,,,,,,,,,,,,,,,,,,,,,,,,,,,,,,,,,,,,,,,,,,,,,,,,,,,,,,,,,,,,,,,,,,,,,,,,,,,,,,,,,,,,,,,,,
,,,,,,5bfe92adaa5fa30001369e01,62c53a91b3254ef8c6ba96a7,2022-07-06_09h32.52.229,Colour_Asymmetry_Pilot,2022.1.3,Win32,59.90176111,62c50e9c1127f2cd403a315f,0,21,21,151,1,fourthree,,,,,,,,,,,,,,,,,,,,,,,,,,,,,,,,,,,,,,,,,,,,,,,,,,,,,,,,,,,,,,,,,,,,,,,,,,,,,,,,,,,,,,,,,,,,,,,,,,,,,,,,,,,,,,,,,,,,,,,,,,,,,,,,,,,,,,,,,,,,,,,,,,,,,,,,,,,,
,,,,,,5bfe92adaa5fa30001369e01,62c53a91b3254ef8c6ba96a7,2022-07-06_09h32.52.229,Colour_Asymmetry_Pilot,2022.1.3,Win32,59.90176111,62c50e9c1127f2cd403a315f,0,22,22,41,1,onethree,,,,,,,,,,,,,,,,,,,,,,,,,,,,,,,,,,,,,,,,,,,,,,,,,,,,,,,,,,,,,,,,,,,,,,,,,,,,,,,,,,,,,,,,,,,,,,,,,,,,,,,,,,,,,,,,,,,,,,,,,,,,,,,,,,,,,,,,,,,,,,,,,,,,,,,,,,,,
,,,,,,5bfe92adaa5fa30001369e01,62c53a91b3254ef8c6ba96a7,2022-07-06_09h32.52.229,Colour_Asymmetry_Pilot,2022.1.3,Win32,59.90176111,62c50e9c1127f2cd403a315f,0,23,23,22,1,fourtwo,,,,,,,,,,,,,,,,,,,,,,,,,,,,,,,,,,,,,,,,,,,,,,,,,,,,,,,,,,,,,,,,,,,,,,,,,,,,,,,,,,,,,,,,,,,,,,,,,,,,,,,,,,,,,,,,,,,,,,,,,,,,,,,,,,,,,,,,,,,,,,,,,,,,,,,,,,,,
,,,,,,5bfe92adaa5fa30001369e01,62c53a91b3254ef8c6ba96a7,2022-07-06_09h32.52.229,Colour_Asymmetry_Pilot,2022.1.3,Win32,59.90176111,62c50e9c1127f2cd403a315f,0,24,24,114,1,twoone,,,,,,,,,,,,,,,,,,,,,,,,,,,,,,,,,,,,,,,,,,,,,,,,,,,,,,,,,,,,,,,,,,,,,,,,,,,,,,,,,,,,,,,,,,,,,,,,,,,,,,,,,,,,,,,,,,,,,,,,,,,,,,,,,,,,,,,,,,,,,,,,,,,,,,,,,,,,
,,,,,,5bfe92adaa5fa30001369e01,62c53a91b3254ef8c6ba96a7,2022-07-06_09h32.52.229,Colour_Asymmetry_Pilot,2022.1.3,Win32,59.90176111,62c50e9c1127f2cd403a315f,0,25,25,122,1,twoone,,,,,,,,,,,,,,,,,,,,,,,,,,,,,,,,,,,,,,,,,,,,,,,,,,,,,,,,,,,,,,,,,,,,,,,,,,,,,,,,,,,,,,,,,,,,,,,,,,,,,,,,,,,,,,,,,,,,,,,,,,,,,,,,,,,,,,,,,,,,,,,,,,,,,,,,,,,,
,,,,,,5bfe92adaa5fa30001369e01,62c53a91b3254ef8c6ba96a7,2022-07-06_09h32.52.229,Colour_Asymmetry_Pilot,2022.1.3,Win32,59.90176111,62c50e9c1127f2cd403a315f,0,26,26,123,1,twofour,,,,,,,,,,,,,,,,,,,,,,,,,,,,,,,,,,,,,,,,,,,,,,,,,,,,,,,,,,,,,,,,,,,,,,,,,,,,,,,,,,,,,,,,,,,,,,,,,,,,,,,,,,,,,,,,,,,,,,,,,,,,,,,,,,,,,,,,,,,,,,,,,,,,,,,,,,,,
,,,,,,5bfe92adaa5fa30001369e01,62c53a91b3254ef8c6ba96a7,2022-07-06_09h32.52.229,Colour_Asymmetry_Pilot,2022.1.3,Win32,59.90176111,62c50e9c1127f2cd403a315f,0,27,27,159,1,fourthree,,,,,,,,,,,,,,,,,,,,,,,,,,,,,,,,,,,,,,,,,,,,,,,,,,,,,,,,,,,,,,,,,,,,,,,,,,,,,,,,,,,,,,,,,,,,,,,,,,,,,,,,,,,,,,,,,,,,,,,,,,,,,,,,,,,,,,,,,,,,,,,,,,,,,,,,,,,,
,,,,,,5bfe92adaa5fa30001369e01,62c53a91b3254ef8c6ba96a7,2022-07-06_09h32.52.229,Colour_Asymmetry_Pilot,2022.1.3,Win32,59.90176111,62c50e9c1127f2cd403a315f,0,28,28,33,1,onethree,,,,,,,,,,,,,,,,,,,,,,,,,,,,,,,,,,,,,,,,,,,,,,,,,,,,,,,,,,,,,,,,,,,,,,,,,,,,,,,,,,,,,,,,,,,,,,,,,,,,,,,,,,,,,,,,,,,,,,,,,,,,,,,,,,,,,,,,,,,,,,,,,,,,,,,,,,,,
,,,,,,5bfe92adaa5fa30001369e01,62c53a91b3254ef8c6ba96a7,2022-07-06_09h32.52.229,Colour_Asymmetry_Pilot,2022.1.3,Win32,59.90176111,62c50e9c1127f2cd403a315f,0,29,29,146,1,twoone,,,,,,,,,,,,,,,,,,,,,,,,,,,,,,,,,,,,,,,,,,,,,,,,,,,,,,,,,,,,,,,,,,,,,,,,,,,,,,,,,,,,,,,,,,,,,,,,,,,,,,,,,,,,,,,,,,,,,,,,,,,,,,,,,,,,,,,,,,,,,,,,,,,,,,,,,,,,
,,,,,,5bfe92adaa5fa30001369e01,62c53a91b3254ef8c6ba96a7,2022-07-06_09h32.52.229,Colour_Asymmetry_Pilot,2022.1.3,Win32,59.90176111,62c50e9c1127f2cd403a315f,0,30,30,89,1,onethree,,,,,,,,,,,,,,,,,,,,,,,,,,,,,,,,,,,,,,,,,,,,,,,,,,,,,,,,,,,,,,,,,,,,,,,,,,,,,,,,,,,,,,,,,,,,,,,,,,,,,,,,,,,,,,,,,,,,,,,,,,,,,,,,,,,,,,,,,,,,,,,,,,,,,,,,,,,,
,,,,,,5bfe92adaa5fa30001369e01,62c53a91b3254ef8c6ba96a7,2022-07-06_09h32.52.229,Colour_Asymmetry_Pilot,2022.1.3,Win32,59.90176111,62c50e9c1127f2cd403a315f,0,31,31,144,1,onetwo,,,,,,,,,,,,,,,,,,,,,,,,,,,,,,,,,,,,,,,,,,,,,,,,,,,,,,,,,,,,,,,,,,,,,,,,,,,,,,,,,,,,,,,,,,,,,,,,,,,,,,,,,,,,,,,,,,,,,,,,,,,,,,,,,,,,,,,,,,,,,,,,,,,,,,,,,,,,
,,,,,,5bfe92adaa5fa30001369e01,62c53a91b3254ef8c6ba96a7,2022-07-06_09h32.52.229,Colour_Asymmetry_Pilot,2022.1.3,Win32,59.90176111,62c50e9c1127f2cd403a315f,0,32,32,42,1,twoone,,,,,,,,,,,,,,,,,,,,,,,,,,,,,,,,,,,,,,,,,,,,,,,,,,,,,,,,,,,,,,,,,,,,,,,,,,,,,,,,,,,,,,,,,,,,,,,,,,,,,,,,,,,,,,,,,,,,,,,,,,,,,,,,,,,,,,,,,,,,,,,,,,,,,,,,,,,,
,,,,,,5bfe92adaa5fa30001369e01,62c53a91b3254ef8c6ba96a7,2022-07-06_09h32.52.229,Colour_Asymmetry_Pilot,2022.1.3,Win32,59.90176111,62c50e9c1127f2cd403a315f,0,33,33,138,1,twoone,,,,,,,,,,,,,,,,,,,,,,,,,,,,,,,,,,,,,,,,,,,,,,,,,,,,,,,,,,,,,,,,,,,,,,,,,,,,,,,,,,,,,,,,,,,,,,,,,,,,,,,,,,,,,,,,,,,,,,,,,,,,,,,,,,,,,,,,,,,,,,,,,,,,,,,,,,,,
,,,,,,5bfe92adaa5fa30001369e01,62c53a91b3254ef8c6ba96a7,2022-07-06_09h32.52.229,Colour_Asymmetry_Pilot,2022.1.3,Win32,59.90176111,62c50e9c1127f2cd403a315f,0,34,34,23,1,fourthree,,,,,,,,,,,,,,,,,,,,,,,,,,,,,,,,,,,,,,,,,,,,,,,,,,,,,,,,,,,,,,,,,,,,,,,,,,,,,,,,,,,,,,,,,,,,,,,,,,,,,,,,,,,,,,,,,,,,,,,,,,,,,,,,,,,,,,,,,,,,,,,,,,,,,,,,,,,,
,,,,,,5bfe92adaa5fa30001369e01,62c53a91b3254ef8c6ba96a7,2022-07-06_09h32.52.229,Colour_Asymmetry_Pilot,2022.1.3,Win32,59.90176111,62c50e9c1127f2cd403a315f,0,35,35,101,1,threefour,,,,,,,,,,,,,,,,,,,,,,,,,,,,,,,,,,,,,,,,,,,,,,,,,,,,,,,,,,,,,,,,,,,,,,,,,,,,,,,,,,,,,,,,,,,,,,,,,,,,,,,,,,,,,,,,,,,,,,,,,,,,,,,,,,,,,,,,,,,,,,,,,,,,,,,,,,,,
,,,,,,5bfe92adaa5fa30001369e01,62c53a91b3254ef8c6ba96a7,2022-07-06_09h32.52.229,Colour_Asymmetry_Pilot,2022.1.3,Win32,59.90176111,62c50e9c1127f2cd403a315f,0,36,36,140,1,threeone,,,,,,,,,,,,,,,,,,,,,,,,,,,,,,,,,,,,,,,,,,,,,,,,,,,,,,,,,,,,,,,,,,,,,,,,,,,,,,,,,,,,,,,,,,,,,,,,,,,,,,,,,,,,,,,,,,,,,,,,,,,,,,,,,,,,,,,,,,,,,,,,,,,,,,,,,,,,
,,,,,,5bfe92adaa5fa30001369e01,62c53a91b3254ef8c6ba96a7,2022-07-06_09h32.52.229,Colour_Asymmetry_Pilot,2022.1.3,Win32,59.90176111,62c50e9c1127f2cd403a315f,0,37,37,86,1,fourtwo,,,,,,,,,,,,,,,,,,,,,,,,,,,,,,,,,,,,,,,,,,,,,,,,,,,,,,,,,,,,,,,,,,,,,,,,,,,,,,,,,,,,,,,,,,,,,,,,,,,,,,,,,,,,,,,,,,,,,,,,,,,,,,,,,,,,,,,,,,,,,,,,,,,,,,,,,,,,
,,,,,,5bfe92adaa5fa30001369e01,62c53a91b3254ef8c6ba96a7,2022-07-06_09h32.52.229,Colour_Asymmetry_Pilot,2022.1.3,Win32,59.90176111,62c50e9c1127f2cd403a315f,0,38,38,137,1,onethree,,,,,,,,,,,,,,,,,,,,,,,,,,,,,,,,,,,,,,,,,,,,,,,,,,,,,,,,,,,,,,,,,,,,,,,,,,,,,,,,,,,,,,,,,,,,,,,,,,,,,,,,,,,,,,,,,,,,,,,,,,,,,,,,,,,,,,,,,,,,,,,,,,,,,,,,,,,,
,,,,,,5bfe92adaa5fa30001369e01,62c53a91b3254ef8c6ba96a7,2022-07-06_09h32.52.229,Colour_Asymmetry_Pilot,2022.1.3,Win32,59.90176111,62c50e9c1127f2cd403a315f,0,39,39,34,1,twoone,,,,,,,,,,,,,,,,,,,,,,,,,,,,,,,,,,,,,,,,,,,,,,,,,,,,,,,,,,,,,,,,,,,,,,,,,,,,,,,,,,,,,,,,,,,,,,,,,,,,,,,,,,,,,,,,,,,,,,,,,,,,,,,,,,,,,,,,,,,,,,,,,,,,,,,,,,,,
,,,,,,5bfe92adaa5fa30001369e01,62c53a91b3254ef8c6ba96a7,2022-07-06_09h32.52.229,Colour_Asymmetry_Pilot,2022.1.3,Win32,59.90176111,62c50e9c1127f2cd403a315f,0,40,40,21,1,threefour,,,,,,,,,,,,,,,,,,,,,,,,,,,,,,,,,,,,,,,,,,,,,,,,,,,,,,,,,,,,,,,,,,,,,,,,,,,,,,,,,,,,,,,,,,,,,,,,,,,,,,,,,,,,,,,,,,,,,,,,,,,,,,,,,,,,,,,,,,,,,,,,,,,,,,,,,,,,
,,,,,,5bfe92adaa5fa30001369e01,62c53a91b3254ef8c6ba96a7,2022-07-06_09h32.52.229,Colour_Asymmetry_Pilot,2022.1.3,Win32,59.90176111,62c50e9c1127f2cd403a315f,0,41,41,4,1,threeone,,,,,,,,,,,,,,,,,,,,,,,,,,,,,,,,,,,,,,,,,,,,,,,,,,,,,,,,,,,,,,,,,,,,,,,,,,,,,,,,,,,,,,,,,,,,,,,,,,,,,,,,,,,,,,,,,,,,,,,,,,,,,,,,,,,,,,,,,,,,,,,,,,,,,,,,,,,,
,,,,,,5bfe92adaa5fa30001369e01,62c53a91b3254ef8c6ba96a7,2022-07-06_09h32.52.229,Colour_Asymmetry_Pilot,2022.1.3,Win32,59.90176111,62c50e9c1127f2cd403a315f,0,42,42,15,1,fourthree,,,,,,,,,,,,,,,,,,,,,,,,,,,,,,,,,,,,,,,,,,,,,,,,,,,,,,,,,,,,,,,,,,,,,,,,,,,,,,,,,,,,,,,,,,,,,,,,,,,,,,,,,,,,,,,,,,,,,,,,,,,,,,,,,,,,,,,,,,,,,,,,,,,,,,,,,,,,
,,,,,,5bfe92adaa5fa30001369e01,62c53a91b3254ef8c6ba96a7,2022-07-06_09h32.52.229,Colour_Asymmetry_Pilot,2022.1.3,Win32,59.90176111,62c50e9c1127f2cd403a315f,0,43,43,18,1,twoone,,,,,,,,,,,,,,,,,,,,,,,,,,,,,,,,,,,,,,,,,,,,,,,,,,,,,,,,,,,,,,,,,,,,,,,,,,,,,,,,,,,,,,,,,,,,,,,,,,,,,,,,,,,,,,,,,,,,,,,,,,,,,,,,,,,,,,,,,,,,,,,,,,,,,,,,,,,,
,,,,,,5bfe92adaa5fa30001369e01,62c53a91b3254ef8c6ba96a7,2022-07-06_09h32.52.229,Colour_Asymmetry_Pilot,2022.1.3,Win32,59.90176111,62c50e9c1127f2cd403a315f,0,44,44,60,1,threeone,,,,,,,,,,,,,,,,,,,,,,,,,,,,,,,,,,,,,,,,,,,,,,,,,,,,,,,,,,,,,,,,,,,,,,,,,,,,,,,,,,,,,,,,,,,,,,,,,,,,,,,,,,,,,,,,,,,,,,,,,,,,,,,,,,,,,,,,,,,,,,,,,,,,,,,,,,,,
,,,,,,5bfe92adaa5fa30001369e01,62c53a91b3254ef8c6ba96a7,2022-07-06_09h32.52.229,Colour_Asymmetry_Pilot,2022.1.3,Win32,59.90176111,62c50e9c1127f2cd403a315f,0,45,45,39,1,fourthree,,,,,,,,,,,,,,,,,,,,,,,,,,,,,,,,,,,,,,,,,,,,,,,,,,,,,,,,,,,,,,,,,,,,,,,,,,,,,,,,,,,,,,,,,,,,,,,,,,,,,,,,,,,,,,,,,,,,,,,,,,,,,,,,,,,,,,,,,,,,,,,,,,,,,,,,,,,,
,,,,,,5bfe92adaa5fa30001369e01,62c53a91b3254ef8c6ba96a7,2022-07-06_09h32.52.229,Colour_Asymmetry_Pilot,2022.1.3,Win32,59.90176111,62c50e9c1127f2cd403a315f,0,46,46,81,1,onethree,,,,,,,,,,,,,,,,,,,,,,,,,,,,,,,,,,,,,,,,,,,,,,,,,,,,,,,,,,,,,,,,,,,,,,,,,,,,,,,,,,,,,,,,,,,,,,,,,,,,,,,,,,,,,,,,,,,,,,,,,,,,,,,,,,,,,,,,,,,,,,,,,,,,,,,,,,,,
,,,,,,5bfe92adaa5fa30001369e01,62c53a91b3254ef8c6ba96a7,2022-07-06_09h32.52.229,Colour_Asymmetry_Pilot,2022.1.3,Win32,59.90176111,62c50e9c1127f2cd403a315f,0,47,47,126,1,fourtwo,,,,,,,,,,,,,,,,,,,,,,,,,,,,,,,,,,,,,,,,,,,,,,,,,,,,,,,,,,,,,,,,,,,,,,,,,,,,,,,,,,,,,,,,,,,,,,,,,,,,,,,,,,,,,,,,,,,,,,,,,,,,,,,,,,,,,,,,,,,,,,,,,,,,,,,,,,,,
,,,,,,5bfe92adaa5fa30001369e01,62c53a91b3254ef8c6ba96a7,2022-07-06_09h32.52.229,Colour_Asymmetry_Pilot,2022.1.3,Win32,59.90176111,62c50e9c1127f2cd403a315f,0,48,48,150,1,fourtwo,,,,,,,,,,,,,,,,,,,,,,,,,,,,,,,,,,,,,,,,,,,,,,,,,,,,,,,,,,,,,,,,,,,,,,,,,,,,,,,,,,,,,,,,,,,,,,,,,,,,,,,,,,,,,,,,,,,,,,,,,,,,,,,,,,,,,,,,,,,,,,,,,,,,,,,,,,,,
,,,,,,5bfe92adaa5fa30001369e01,62c53a91b3254ef8c6ba96a7,2022-07-06_09h32.52.229,Colour_Asymmetry_Pilot,2022.1.3,Win32,59.90176111,62c50e9c1127f2cd403a315f,0,49,49,102,1,fourtwo,,,,,,,,,,,,,,,,,,,,,,,,,,,,,,,,,,,,,,,,,,,,,,,,,,,,,,,,,,,,,,,,,,,,,,,,,,,,,,,,,,,,,,,,,,,,,,,,,,,,,,,,,,,,,,,,,,,,,,,,,,,,,,,,,,,,,,,,,,,,,,,,,,,,,,,,,,,,
,,,,,,5bfe92adaa5fa30001369e01,62c53a91b3254ef8c6ba96a7,2022-07-06_09h32.52.229,Colour_Asymmetry_Pilot,2022.1.3,Win32,59.90176111,62c50e9c1127f2cd403a315f,0,50,50,155,1,twofour,,,,,,,,,,,,,,,,,,,,,,,,,,,,,,,,,,,,,,,,,,,,,,,,,,,,,,,,,,,,,,,,,,,,,,,,,,,,,,,,,,,,,,,,,,,,,,,,,,,,,,,,,,,,,,,,,,,,,,,,,,,,,,,,,,,,,,,,,,,,,,,,,,,,,,,,,,,,
,,,,,,5bfe92adaa5fa30001369e01,62c53a91b3254ef8c6ba96a7,2022-07-06_09h32.52.229,Colour_Asymmetry_Pilot,2022.1.3,Win32,59.90176111,62c50e9c1127f2cd403a315f,0,51,51,51,1,twofour,,,,,,,,,,,,,,,,,,,,,,,,,,,,,,,,,,,,,,,,,,,,,,,,,,,,,,,,,,,,,,,,,,,,,,,,,,,,,,,,,,,,,,,,,,,,,,,,,,,,,,,,,,,,,,,,,,,,,,,,,,,,,,,,,,,,,,,,,,,,,,,,,,,,,,,,,,,,
,,,,,,5bfe92adaa5fa30001369e01,62c53a91b3254ef8c6ba96a7,2022-07-06_09h32.52.229,Colour_Asymmetry_Pilot,2022.1.3,Win32,59.90176111,62c50e9c1127f2cd403a315f,0,52,52,85,1,threefour,,,,,,,,,,,,,,,,,,,,,,,,,,,,,,,,,,,,,,,,,,,,,,,,,,,,,,,,,,,,,,,,,,,,,,,,,,,,,,,,,,,,,,,,,,,,,,,,,,,,,,,,,,,,,,,,,,,,,,,,,,,,,,,,,,,,,,,,,,,,,,,,,,,,,,,,,,,,
,,,,,,5bfe92adaa5fa30001369e01,62c53a91b3254ef8c6ba96a7,2022-07-06_09h32.52.229,Colour_Asymmetry_Pilot,2022.1.3,Win32,59.90176111,62c50e9c1127f2cd403a315f,0,53,53,82,1,twoone,,,,,,,,,,,,,,,,,,,,,,,,,,,,,,,,,,,,,,,,,,,,,,,,,,,,,,,,,,,,,,,,,,,,,,,,,,,,,,,,,,,,,,,,,,,,,,,,,,,,,,,,,,,,,,,,,,,,,,,,,,,,,,,,,,,,,,,,,,,,,,,,,,,,,,,,,,,,
,,,,,,5bfe92adaa5fa30001369e01,62c53a91b3254ef8c6ba96a7,2022-07-06_09h32.52.229,Colour_Asymmetry_Pilot,2022.1.3,Win32,59.90176111,62c50e9c1127f2cd403a315f,0,54,54,67,1,twofour,,,,,,,,,,,,,,,,,,,,,,,,,,,,,,,,,,,,,,,,,,,,,,,,,,,,,,,,,,,,,,,,,,,,,,,,,,,,,,,,,,,,,,,,,,,,,,,,,,,,,,,,,,,,,,,,,,,,,,,,,,,,,,,,,,,,,,,,,,,,,,,,,,,,,,,,,,,,
,,,,,,5bfe92adaa5fa30001369e01,62c53a91b3254ef8c6ba96a7,2022-07-06_09h32.52.229,Colour_Asymmetry_Pilot,2022.1.3,Win32,59.90176111,62c50e9c1127f2cd403a315f,0,55,55,38,1,fourtwo,,,,,,,,,,,,,,,,,,,,,,,,,,,,,,,,,,,,,,,,,,,,,,,,,,,,,,,,,,,,,,,,,,,,,,,,,,,,,,,,,,,,,,,,,,,,,,,,,,,,,,,,,,,,,,,,,,,,,,,,,,,,,,,,,,,,,,,,,,,,,,,,,,,,,,,,,,,,
,,,,,,5bfe92adaa5fa30001369e01,62c53a91b3254ef8c6ba96a7,2022-07-06_09h32.52.229,Colour_Asymmetry_Pilot,2022.1.3,Win32,59.90176111,62c50e9c1127f2cd403a315f,0,56,56,132,1,threeone,,,,,,,,,,,,,,,,,,,,,,,,,,,,,,,,,,,,,,,,,,,,,,,,,,,,,,,,,,,,,,,,,,,,,,,,,,,,,,,,,,,,,,,,,,,,,,,,,,,,,,,,,,,,,,,,,,,,,,,,,,,,,,,,,,,,,,,,,,,,,,,,,,,,,,,,,,,,
,,,,,,5bfe92adaa5fa30001369e01,62c53a91b3254ef8c6ba96a7,2022-07-06_09h32.52.229,Colour_Asymmetry_Pilot,2022.1.3,Win32,59.90176111,62c50e9c1127f2cd403a315f,0,57,57,152,1,onetwo,,,,,,,,,,,,,,,,,,,,,,,,,,,,,,,,,,,,,,,,,,,,,,,,,,,,,,,,,,,,,,,,,,,,,,,,,,,,,,,,,,,,,,,,,,,,,,,,,,,,,,,,,,,,,,,,,,,,,,,,,,,,,,,,,,,,,,,,,,,,,,,,,,,,,,,,,,,,
,,,,,,5bfe92adaa5fa30001369e01,62c53a91b3254ef8c6ba96a7,2022-07-06_09h32.52.229,Colour_Asymmetry_Pilot,2022.1.3,Win32,59.90176111,62c50e9c1127f2cd403a315f,0,58,58,1,1,onethree,,,,,,,,,,,,,,,,,,,,,,,,,,,,,,,,,,,,,,,,,,,,,,,,,,,,,,,,,,,,,,,,,,,,,,,,,,,,,,,,,,,,,,,,,,,,,,,,,,,,,,,,,,,,,,,,,,,,,,,,,,,,,,,,,,,,,,,,,,,,,,,,,,,,,,,,,,,,
,,,,,,5bfe92adaa5fa30001369e01,62c53a91b3254ef8c6ba96a7,2022-07-06_09h32.52.229,Colour_Asymmetry_Pilot,2022.1.3,Win32,59.90176111,62c50e9c1127f2cd403a315f,0,59,59,57,1,onethree,,,,,,,,,,,,,,,,,,,,,,,,,,,,,,,,,,,,,,,,,,,,,,,,,,,,,,,,,,,,,,,,,,,,,,,,,,,,,,,,,,,,,,,,,,,,,,,,,,,,,,,,,,,,,,,,,,,,,,,,,,,,,,,,,,,,,,,,,,,,,,,,,,,,,,,,,,,,
,,,,,,5bfe92adaa5fa30001369e01,62c53a91b3254ef8c6ba96a7,2022-07-06_09h32.52.229,Colour_Asymmetry_Pilot,2022.1.3,Win32,59.90176111,62c50e9c1127f2cd403a315f,0,60,60,79,1,fourthree,,,,,,,,,,,,,,,,,,,,,,,,,,,,,,,,,,,,,,,,,,,,,,,,,,,,,,,,,,,,,,,,,,,,,,,,,,,,,,,,,,,,,,,,,,,,,,,,,,,,,,,,,,,,,,,,,,,,,,,,,,,,,,,,,,,,,,,,,,,,,,,,,,,,,,,,,,,,
,,,,,,5bfe92adaa5fa30001369e01,62c53a91b3254ef8c6ba96a7,2022-07-06_09h32.52.229,Colour_Asymmetry_Pilot,2022.1.3,Win32,59.90176111,62c50e9c1127f2cd403a315f,0,61,61,129,1,onethree,,,,,,,,,,,,,,,,,,,,,,,,,,,,,,,,,,,,,,,,,,,,,,,,,,,,,,,,,,,,,,,,,,,,,,,,,,,,,,,,,,,,,,,,,,,,,,,,,,,,,,,,,,,,,,,,,,,,,,,,,,,,,,,,,,,,,,,,,,,,,,,,,,,,,,,,,,,,
,,,,,,5bfe92adaa5fa30001369e01,62c53a91b3254ef8c6ba96a7,2022-07-06_09h32.52.229,Colour_Asymmetry_Pilot,2022.1.3,Win32,59.90176111,62c50e9c1127f2cd403a315f,0,62,62,31,1,fourthree,,,,,,,,,,,,,,,,,,,,,,,,,,,,,,,,,,,,,,,,,,,,,,,,,,,,,,,,,,,,,,,,,,,,,,,,,,,,,,,,,,,,,,,,,,,,,,,,,,,,,,,,,,,,,,,,,,,,,,,,,,,,,,,,,,,,,,,,,,,,,,,,,,,,,,,,,,,,
,,,,,,5bfe92adaa5fa30001369e01,62c53a91b3254ef8c6ba96a7,2022-07-06_09h32.52.229,Colour_Asymmetry_Pilot,2022.1.3,Win32,59.90176111,62c50e9c1127f2cd403a315f,0,63,63,83,1,twofour,,,,,,,,,,,,,,,,,,,,,,,,,,,,,,,,,,,,,,,,,,,,,,,,,,,,,,,,,,,,,,,,,,,,,,,,,,,,,,,,,,,,,,,,,,,,,,,,,,,,,,,,,,,,,,,,,,,,,,,,,,,,,,,,,,,,,,,,,,,,,,,,,,,,,,,,,,,,
,,,,,,5bfe92adaa5fa30001369e01,62c53a91b3254ef8c6ba96a7,2022-07-06_09h32.52.229,Colour_Asymmetry_Pilot,2022.1.3,Win32,59.90176111,62c50e9c1127f2cd403a315f,0,64,64,8,1,onetwo,,,,,,,,,,,,,,,,,,,,,,,,,,,,,,,,,,,,,,,,,,,,,,,,,,,,,,,,,,,,,,,,,,,,,,,,,,,,,,,,,,,,,,,,,,,,,,,,,,,,,,,,,,,,,,,,,,,,,,,,,,,,,,,,,,,,,,,,,,,,,,,,,,,,,,,,,,,,
,,,,,,5bfe92adaa5fa30001369e01,62c53a91b3254ef8c6ba96a7,2022-07-06_09h32.52.229,Colour_Asymmetry_Pilot,2022.1.3,Win32,59.90176111,62c50e9c1127f2cd403a315f,0,65,65,106,1,twoone,,,,,,,,,,,,,,,,,,,,,,,,,,,,,,,,,,,,,,,,,,,,,,,,,,,,,,,,,,,,,,,,,,,,,,,,,,,,,,,,,,,,,,,,,,,,,,,,,,,,,,,,,,,,,,,,,,,,,,,,,,,,,,,,,,,,,,,,,,,,,,,,,,,,,,,,,,,,
,,,,,,5bfe92adaa5fa30001369e01,62c53a91b3254ef8c6ba96a7,2022-07-06_09h32.52.229,Colour_Asymmetry_Pilot,2022.1.3,Win32,59.90176111,62c50e9c1127f2cd403a315f,0,66,66,117,1,threefour,,,,,,,,,,,,,,,,,,,,,,,,,,,,,,,,,,,,,,,,,,,,,,,,,,,,,,,,,,,,,,,,,,,,,,,,,,,,,,,,,,,,,,,,,,,,,,,,,,,,,,,,,,,,,,,,,,,,,,,,,,,,,,,,,,,,,,,,,,,,,,,,,,,,,,,,,,,,
,,,,,,5bfe92adaa5fa30001369e01,62c53a91b3254ef8c6ba96a7,2022-07-06_09h32.52.229,Colour_Asymmetry_Pilot,2022.1.3,Win32,59.90176111,62c50e9c1127f2cd403a315f,0,67,67,139,1,twofour,,,,,,,,,,,,,,,,,,,,,,,,,,,,,,,,,,,,,,,,,,,,,,,,,,,,,,,,,,,,,,,,,,,,,,,,,,,,,,,,,,,,,,,,,,,,,,,,,,,,,,,,,,,,,,,,,,,,,,,,,,,,,,,,,,,,,,,,,,,,,,,,,,,,,,,,,,,,
,,,,,,5bfe92adaa5fa30001369e01,62c53a91b3254ef8c6ba96a7,2022-07-06_09h32.52.229,Colour_Asymmetry_Pilot,2022.1.3,Win32,59.90176111,62c50e9c1127f2cd403a315f,0,68,68,71,1,fourthree,,,,,,,,,,,,,,,,,,,,,,,,,,,,,,,,,,,,,,,,,,,,,,,,,,,,,,,,,,,,,,,,,,,,,,,,,,,,,,,,,,,,,,,,,,,,,,,,,,,,,,,,,,,,,,,,,,,,,,,,,,,,,,,,,,,,,,,,,,,,,,,,,,,,,,,,,,,,
,,,,,,5bfe92adaa5fa30001369e01,62c53a91b3254ef8c6ba96a7,2022-07-06_09h32.52.229,Colour_Asymmetry_Pilot,2022.1.3,Win32,59.90176111,62c50e9c1127f2cd403a315f,0,69,69,35,1,twofour,,,,,,,,,,,,,,,,,,,,,,,,,,,,,,,,,,,,,,,,,,,,,,,,,,,,,,,,,,,,,,,,,,,,,,,,,,,,,,,,,,,,,,,,,,,,,,,,,,,,,,,,,,,,,,,,,,,,,,,,,,,,,,,,,,,,,,,,,,,,,,,,,,,,,,,,,,,,
,,,,,,5bfe92adaa5fa30001369e01,62c53a91b3254ef8c6ba96a7,2022-07-06_09h32.52.229,Colour_Asymmetry_Pilot,2022.1.3,Win32,59.90176111,62c50e9c1127f2cd403a315f,0,70,70,104,1,onetwo,,,,,,,,,,,,,,,,,,,,,,,,,,,,,,,,,,,,,,,,,,,,,,,,,,,,,,,,,,,,,,,,,,,,,,,,,,,,,,,,,,,,,,,,,,,,,,,,,,,,,,,,,,,,,,,,,,,,,,,,,,,,,,,,,,,,,,,,,,,,,,,,,,,,,,,,,,,,
,,,,,,5bfe92adaa5fa30001369e01,62c53a91b3254ef8c6ba96a7,2022-07-06_09h32.52.229,Colour_Asymmetry_Pilot,2022.1.3,Win32,59.90176111,62c50e9c1127f2cd403a315f,0,71,71,145,1,onethree,,,,,,,,,,,,,,,,,,,,,,,,,,,,,,,,,,,,,,,,,,,,,,,,,,,,,,,,,,,,,,,,,,,,,,,,,,,,,,,,,,,,,,,,,,,,,,,,,,,,,,,,,,,,,,,,,,,,,,,,,,,,,,,,,,,,,,,,,,,,,,,,,,,,,,,,,,,,
,,,,,,5bfe92adaa5fa30001369e01,62c53a91b3254ef8c6ba96a7,2022-07-06_09h32.52.229,Colour_Asymmetry_Pilot,2022.1.3,Win32,59.90176111,62c50e9c1127f2cd403a315f,0,72,72,13,1,threefour,,,,,,,,,,,,,,,,,,,,,,,,,,,,,,,,,,,,,,,,,,,,,,,,,,,,,,,,,,,,,,,,,,,,,,,,,,,,,,,,,,,,,,,,,,,,,,,,,,,,,,,,,,,,,,,,,,,,,,,,,,,,,,,,,,,,,,,,,,,,,,,,,,,,,,,,,,,,
,,,,,,5bfe92adaa5fa30001369e01,62c53a91b3254ef8c6ba96a7,2022-07-06_09h32.52.229,Colour_Asymmetry_Pilot,2022.1.3,Win32,59.90176111,62c50e9c1127f2cd403a315f,0,73,73,0,1,onetwo,,,,,,,,,,,,,,,,,,,,,,,,,,,,,,,,,,,,,,,,,,,,,,,,,,,,,,,,,,,,,,,,,,,,,,,,,,,,,,,,,,,,,,,,,,,,,,,,,,,,,,,,,,,,,,,,,,,,,,,,,,,,,,,,,,,,,,,,,,,,,,,,,,,,,,,,,,,,
,,,,,,5bfe92adaa5fa30001369e01,62c53a91b3254ef8c6ba96a7,2022-07-06_09h32.52.229,Colour_Asymmetry_Pilot,2022.1.3,Win32,59.90176111,62c50e9c1127f2cd403a315f,0,74,74,91,1,twofour,,,,,,,,,,,,,,,,,,,,,,,,,,,,,,,,,,,,,,,,,,,,,,,,,,,,,,,,,,,,,,,,,,,,,,,,,,,,,,,,,,,,,,,,,,,,,,,,,,,,,,,,,,,,,,,,,,,,,,,,,,,,,,,,,,,,,,,,,,,,,,,,,,,,,,,,,,,,
,,,,,,5bfe92adaa5fa30001369e01,62c53a91b3254ef8c6ba96a7,2022-07-06_09h32.52.229,Colour_Asymmetry_Pilot,2022.1.3,Win32,59.90176111,62c50e9c1127f2cd403a315f,0,75,75,65,1,onethree,,,,,,,,,,,,,,,,,,,,,,,,,,,,,,,,,,,,,,,,,,,,,,,,,,,,,,,,,,,,,,,,,,,,,,,,,,,,,,,,,,,,,,,,,,,,,,,,,,,,,,,,,,,,,,,,,,,,,,,,,,,,,,,,,,,,,,,,,,,,,,,,,,,,,,,,,,,,
,,,,,,5bfe92adaa5fa30001369e01,62c53a91b3254ef8c6ba96a7,2022-07-06_09h32.52.229,Colour_Asymmetry_Pilot,2022.1.3,Win32,59.90176111,62c50e9c1127f2cd403a315f,0,76,76,76,1,threeone,,,,,,,,,,,,,,,,,,,,,,,,,,,,,,,,,,,,,,,,,,,,,,,,,,,,,,,,,,,,,,,,,,,,,,,,,,,,,,,,,,,,,,,,,,,,,,,,,,,,,,,,,,,,,,,,,,,,,,,,,,,,,,,,,,,,,,,,,,,,,,,,,,,,,,,,,,,,
,,,,,,5bfe92adaa5fa30001369e01,62c53a91b3254ef8c6ba96a7,2022-07-06_09h32.52.229,Colour_Asymmetry_Pilot,2022.1.3,Win32,59.90176111,62c50e9c1127f2cd403a315f,0,77,77,113,1,onethree,,,,,,,,,,,,,,,,,,,,,,,,,,,,,,,,,,,,,,,,,,,,,,,,,,,,,,,,,,,,,,,,,,,,,,,,,,,,,,,,,,,,,,,,,,,,,,,,,,,,,,,,,,,,,,,,,,,,,,,,,,,,,,,,,,,,,,,,,,,,,,,,,,,,,,,,,,,,
,,,,,,5bfe92adaa5fa30001369e01,62c53a91b3254ef8c6ba96a7,2022-07-06_09h32.52.229,Colour_Asymmetry_Pilot,2022.1.3,Win32,59.90176111,62c50e9c1127f2cd403a315f,0,78,78,95,1,fourthree,,,,,,,,,,,,,,,,,,,,,,,,,,,,,,,,,,,,,,,,,,,,,,,,,,,,,,,,,,,,,,,,,,,,,,,,,,,,,,,,,,,,,,,,,,,,,,,,,,,,,,,,,,,,,,,,,,,,,,,,,,,,,,,,,,,,,,,,,,,,,,,,,,,,,,,,,,,,
,,,,,,5bfe92adaa5fa30001369e01,62c53a91b3254ef8c6ba96a7,2022-07-06_09h32.52.229,Colour_Asymmetry_Pilot,2022.1.3,Win32,59.90176111,62c50e9c1127f2cd403a315f,0,79,79,26,1,twoone,,,,,,,,,,,,,,,,,,,,,,,,,,,,,,,,,,,,,,,,,,,,,,,,,,,,,,,,,,,,,,,,,,,,,,,,,,,,,,,,,,,,,,,,,,,,,,,,,,,,,,,,,,,,,,,,,,,,,,,,,,,,,,,,,,,,,,,,,,,,,,,,,,,,,,,,,,,,
,,,,,,5bfe92adaa5fa30001369e01,62c53a91b3254ef8c6ba96a7,2022-07-06_09h32.52.229,Colour_Asymmetry_Pilot,2022.1.3,Win32,59.90176111,62c50e9c1127f2cd403a315f,0,80,80,120,1,onetwo,,,,,,,,,,,,,,,,,,,,,,,,,,,,,,,,,,,,,,,,,,,,,,,,,,,,,,,,,,,,,,,,,,,,,,,,,,,,,,,,,,,,,,,,,,,,,,,,,,,,,,,,,,,,,,,,,,,,,,,,,,,,,,,,,,,,,,,,,,,,,,,,,,,,,,,,,,,,
,,,,,,5bfe92adaa5fa30001369e01,62c53a91b3254ef8c6ba96a7,2022-07-06_09h32.52.229,Colour_Asymmetry_Pilot,2022.1.3,Win32,59.90176111,62c50e9c1127f2cd403a315f,0,81,81,9,1,onethree,,,,,,,,,,,,,,,,,,,,,,,,,,,,,,,,,,,,,,,,,,,,,,,,,,,,,,,,,,,,,,,,,,,,,,,,,,,,,,,,,,,,,,,,,,,,,,,,,,,,,,,,,,,,,,,,,,,,,,,,,,,,,,,,,,,,,,,,,,,,,,,,,,,,,,,,,,,,
,,,,,,5bfe92adaa5fa30001369e01,62c53a91b3254ef8c6ba96a7,2022-07-06_09h32.52.229,Colour_Asymmetry_Pilot,2022.1.3,Win32,59.90176111,62c50e9c1127f2cd403a315f,0,82,82,124,1,threeone,,,,,,,,,,,,,,,,,,,,,,,,,,,,,,,,,,,,,,,,,,,,,,,,,,,,,,,,,,,,,,,,,,,,,,,,,,,,,,,,,,,,,,,,,,,,,,,,,,,,,,,,,,,,,,,,,,,,,,,,,,,,,,,,,,,,,,,,,,,,,,,,,,,,,,,,,,,,
,,,,,,5bfe92adaa5fa30001369e01,62c53a91b3254ef8c6ba96a7,2022-07-06_09h32.52.229,Colour_Asymmetry_Pilot,2022.1.3,Win32,59.90176111,62c50e9c1127f2cd403a315f,0,83,83,77,1,threefour,,,,,,,,,,,,,,,,,,,,,,,,,,,,,,,,,,,,,,,,,,,,,,,,,,,,,,,,,,,,,,,,,,,,,,,,,,,,,,,,,,,,,,,,,,,,,,,,,,,,,,,,,,,,,,,,,,,,,,,,,,,,,,,,,,,,,,,,,,,,,,,,,,,,,,,,,,,,
,,,,,,5bfe92adaa5fa30001369e01,62c53a91b3254ef8c6ba96a7,2022-07-06_09h32.52.229,Colour_Asymmetry_Pilot,2022.1.3,Win32,59.90176111,62c50e9c1127f2cd403a315f,0,84,84,156,1,threeone,,,,,,,,,,,,,,,,,,,,,,,,,,,,,,,,,,,,,,,,,,,,,,,,,,,,,,,,,,,,,,,,,,,,,,,,,,,,,,,,,,,,,,,,,,,,,,,,,,,,,,,,,,,,,,,,,,,,,,,,,,,,,,,,,,,,,,,,,,,,,,,,,,,,,,,,,,,,
,,,,,,5bfe92adaa5fa30001369e01,62c53a91b3254ef8c6ba96a7,2022-07-06_09h32.52.229,Colour_Asymmetry_Pilot,2022.1.3,Win32,59.90176111,62c50e9c1127f2cd403a315f,0,85,85,100,1,threeone,,,,,,,,,,,,,,,,,,,,,,,,,,,,,,,,,,,,,,,,,,,,,,,,,,,,,,,,,,,,,,,,,,,,,,,,,,,,,,,,,,,,,,,,,,,,,,,,,,,,,,,,,,,,,,,,,,,,,,,,,,,,,,,,,,,,,,,,,,,,,,,,,,,,,,,,,,,,
,,,,,,5bfe92adaa5fa30001369e01,62c53a91b3254ef8c6ba96a7,2022-07-06_09h32.52.229,Colour_Asymmetry_Pilot,2022.1.3,Win32,59.90176111,62c50e9c1127f2cd403a315f,0,86,86,73,1,onethree,,,,,,,,,,,,,,,,,,,,,,,,,,,,,,,,,,,,,,,,,,,,,,,,,,,,,,,,,,,,,,,,,,,,,,,,,,,,,,,,,,,,,,,,,,,,,,,,,,,,,,,,,,,,,,,,,,,,,,,,,,,,,,,,,,,,,,,,,,,,,,,,,,,,,,,,,,,,
,,,,,,5bfe92adaa5fa30001369e01,62c53a91b3254ef8c6ba96a7,2022-07-06_09h32.52.229,Colour_Asymmetry_Pilot,2022.1.3,Win32,59.90176111,62c50e9c1127f2cd403a315f,0,87,87,55,1,fourthree,,,,,,,,,,,,,,,,,,,,,,,,,,,,,,,,,,,,,,,,,,,,,,,,,,,,,,,,,,,,,,,,,,,,,,,,,,,,,,,,,,,,,,,,,,,,,,,,,,,,,,,,,,,,,,,,,,,,,,,,,,,,,,,,,,,,,,,,,,,,,,,,,,,,,,,,,,,,
,,,,,,5bfe92adaa5fa30001369e01,62c53a91b3254ef8c6ba96a7,2022-07-06_09h32.52.229,Colour_Asymmetry_Pilot,2022.1.3,Win32,59.90176111,62c50e9c1127f2cd403a315f,0,88,88,58,1,twoone,,,,,,,,,,,,,,,,,,,,,,,,,,,,,,,,,,,,,,,,,,,,,,,,,,,,,,,,,,,,,,,,,,,,,,,,,,,,,,,,,,,,,,,,,,,,,,,,,,,,,,,,,,,,,,,,,,,,,,,,,,,,,,,,,,,,,,,,,,,,,,,,,,,,,,,,,,,,
,,,,,,5bfe92adaa5fa30001369e01,62c53a91b3254ef8c6ba96a7,2022-07-06_09h32.52.229,Colour_Asymmetry_Pilot,2022.1.3,Win32,59.90176111,62c50e9c1127f2cd403a315f,0,89,89,36,1,threeone,,,,,,,,,,,,,,,,,,,,,,,,,,,,,,,,,,,,,,,,,,,,,,,,,,,,,,,,,,,,,,,,,,,,,,,,,,,,,,,,,,,,,,,,,,,,,,,,,,,,,,,,,,,,,,,,,,,,,,,,,,,,,,,,,,,,,,,,,,,,,,,,,,,,,,,,,,,,
,,,,,,5bfe92adaa5fa30001369e01,62c53a91b3254ef8c6ba96a7,2022-07-06_09h32.52.229,Colour_Asymmetry_Pilot,2022.1.3,Win32,59.90176111,62c50e9c1127f2cd403a315f,0,90,90,40,1,onetwo,,,,,,,,,,,,,,,,,,,,,,,,,,,,,,,,,,,,,,,,,,,,,,,,,,,,,,,,,,,,,,,,,,,,,,,,,,,,,,,,,,,,,,,,,,,,,,,,,,,,,,,,,,,,,,,,,,,,,,,,,,,,,,,,,,,,,,,,,,,,,,,,,,,,,,,,,,,,
,,,,,,5bfe92adaa5fa30001369e01,62c53a91b3254ef8c6ba96a7,2022-07-06_09h32.52.229,Colour_Asymmetry_Pilot,2022.1.3,Win32,59.90176111,62c50e9c1127f2cd403a315f,0,91,91,112,1,onetwo,,,,,,,,,,,,,,,,,,,,,,,,,,,,,,,,,,,,,,,,,,,,,,,,,,,,,,,,,,,,,,,,,,,,,,,,,,,,,,,,,,,,,,,,,,,,,,,,,,,,,,,,,,,,,,,,,,,,,,,,,,,,,,,,,,,,,,,,,,,,,,,,,,,,,,,,,,,,
,,,,,,5bfe92adaa5fa30001369e01,62c53a91b3254ef8c6ba96a7,2022-07-06_09h32.52.229,Colour_Asymmetry_Pilot,2022.1.3,Win32,59.90176111,62c50e9c1127f2cd403a315f,0,92,92,87,1,fourthree,,,,,,,,,,,,,,,,,,,,,,,,,,,,,,,,,,,,,,,,,,,,,,,,,,,,,,,,,,,,,,,,,,,,,,,,,,,,,,,,,,,,,,,,,,,,,,,,,,,,,,,,,,,,,,,,,,,,,,,,,,,,,,,,,,,,,,,,,,,,,,,,,,,,,,,,,,,,
,,,,,,5bfe92adaa5fa30001369e01,62c53a91b3254ef8c6ba96a7,2022-07-06_09h32.52.229,Colour_Asymmetry_Pilot,2022.1.3,Win32,59.90176111,62c50e9c1127f2cd403a315f,0,93,93,72,1,onetwo,,,,,,,,,,,,,,,,,,,,,,,,,,,,,,,,,,,,,,,,,,,,,,,,,,,,,,,,,,,,,,,,,,,,,,,,,,,,,,,,,,,,,,,,,,,,,,,,,,,,,,,,,,,,,,,,,,,,,,,,,,,,,,,,,,,,,,,,,,,,,,,,,,,,,,,,,,,,
,,,,,,5bfe92adaa5fa30001369e01,62c53a91b3254ef8c6ba96a7,2022-07-06_09h32.52.229,Colour_Asymmetry_Pilot,2022.1.3,Win32,59.90176111,62c50e9c1127f2cd403a315f,0,94,94,68,1,threeone,,,,,,,,,,,,,,,,,,,,,,,,,,,,,,,,,,,,,,,,,,,,,,,,,,,,,,,,,,,,,,,,,,,,,,,,,,,,,,,,,,,,,,,,,,,,,,,,,,,,,,,,,,,,,,,,,,,,,,,,,,,,,,,,,,,,,,,,,,,,,,,,,,,,,,,,,,,,
,,,,,,5bfe92adaa5fa30001369e01,62c53a91b3254ef8c6ba96a7,2022-07-06_09h32.52.229,Colour_Asymmetry_Pilot,2022.1.3,Win32,59.90176111,62c50e9c1127f2cd403a315f,0,95,95,27,1,twofour,,,,,,,,,,,,,,,,,,,,,,,,,,,,,,,,,,,,,,,,,,,,,,,,,,,,,,,,,,,,,,,,,,,,,,,,,,,,,,,,,,,,,,,,,,,,,,,,,,,,,,,,,,,,,,,,,,,,,,,,,,,,,,,,,,,,,,,,,,,,,,,,,,,,,,,,,,,,
,,,,,,5bfe92adaa5fa30001369e01,62c53a91b3254ef8c6ba96a7,2022-07-06_09h32.52.229,Colour_Asymmetry_Pilot,2022.1.3,Win32,59.90176111,62c50e9c1127f2cd403a315f,0,96,96,127,1,fourthree,,,,,,,,,,,,,,,,,,,,,,,,,,,,,,,,,,,,,,,,,,,,,,,,,,,,,,,,,,,,,,,,,,,,,,,,,,,,,,,,,,,,,,,,,,,,,,,,,,,,,,,,,,,,,,,,,,,,,,,,,,,,,,,,,,,,,,,,,,,,,,,,,,,,,,,,,,,,
,,,,,,5bfe92adaa5fa30001369e01,62c53a91b3254ef8c6ba96a7,2022-07-06_09h32.52.229,Colour_Asymmetry_Pilot,2022.1.3,Win32,59.90176111,62c50e9c1127f2cd403a315f,0,97,97,99,1,twofour,,,,,,,,,,,,,,,,,,,,,,,,,,,,,,,,,,,,,,,,,,,,,,,,,,,,,,,,,,,,,,,,,,,,,,,,,,,,,,,,,,,,,,,,,,,,,,,,,,,,,,,,,,,,,,,,,,,,,,,,,,,,,,,,,,,,,,,,,,,,,,,,,,,,,,,,,,,,
,,,,,,5bfe92adaa5fa30001369e01,62c53a91b3254ef8c6ba96a7,2022-07-06_09h32.52.229,Colour_Asymmetry_Pilot,2022.1.3,Win32,59.90176111,62c50e9c1127f2cd403a315f,0,98,98,20,1,threeone,,,,,,,,,,,,,,,,,,,,,,,,,,,,,,,,,,,,,,,,,,,,,,,,,,,,,,,,,,,,,,,,,,,,,,,,,,,,,,,,,,,,,,,,,,,,,,,,,,,,,,,,,,,,,,,,,,,,,,,,,,,,,,,,,,,,,,,,,,,,,,,,,,,,,,,,,,,,
,,,,,,5bfe92adaa5fa30001369e01,62c53a91b3254ef8c6ba96a7,2022-07-06_09h32.52.229,Colour_Asymmetry_Pilot,2022.1.3,Win32,59.90176111,62c50e9c1127f2cd403a315f,0,99,99,133,1,threefour,,,,,,,,,,,,,,,,,,,,,,,,,,,,,,,,,,,,,,,,,,,,,,,,,,,,,,,,,,,,,,,,,,,,,,,,,,,,,,,,,,,,,,,,,,,,,,,,,,,,,,,,,,,,,,,,,,,,,,,,,,,,,,,,,,,,,,,,,,,,,,,,,,,,,,,,,,,,
,,,,,,5bfe92adaa5fa30001369e01,62c53a91b3254ef8c6ba96a7,2022-07-06_09h32.52.229,Colour_Asymmetry_Pilot,2022.1.3,Win32,59.90176111,62c50e9c1127f2cd403a315f,0,100,100,115,1,twofour,,,,,,,,,,,,,,,,,,,,,,,,,,,,,,,,,,,,,,,,,,,,,,,,,,,,,,,,,,,,,,,,,,,,,,,,,,,,,,,,,,,,,,,,,,,,,,,,,,,,,,,,,,,,,,,,,,,,,,,,,,,,,,,,,,,,,,,,,,,,,,,,,,,,,,,,,,,,
,,,,,,5bfe92adaa5fa30001369e01,62c53a91b3254ef8c6ba96a7,2022-07-06_09h32.52.229,Colour_Asymmetry_Pilot,2022.1.3,Win32,59.90176111,62c50e9c1127f2cd403a315f,0,101,101,119,1,fourthree,,,,,,,,,,,,,,,,,,,,,,,,,,,,,,,,,,,,,,,,,,,,,,,,,,,,,,,,,,,,,,,,,,,,,,,,,,,,,,,,,,,,,,,,,,,,,,,,,,,,,,,,,,,,,,,,,,,,,,,,,,,,,,,,,,,,,,,,,,,,,,,,,,,,,,,,,,,,
,,,,,,5bfe92adaa5fa30001369e01,62c53a91b3254ef8c6ba96a7,2022-07-06_09h32.52.229,Colour_Asymmetry_Pilot,2022.1.3,Win32,59.90176111,62c50e9c1127f2cd403a315f,0,102,102,11,1,twofour,,,,,,,,,,,,,,,,,,,,,,,,,,,,,,,,,,,,,,,,,,,,,,,,,,,,,,,,,,,,,,,,,,,,,,,,,,,,,,,,,,,,,,,,,,,,,,,,,,,,,,,,,,,,,,,,,,,,,,,,,,,,,,,,,,,,,,,,,,,,,,,,,,,,,,,,,,,,
,,,,,,5bfe92adaa5fa30001369e01,62c53a91b3254ef8c6ba96a7,2022-07-06_09h32.52.229,Colour_Asymmetry_Pilot,2022.1.3,Win32,59.90176111,62c50e9c1127f2cd403a315f,0,103,103,3,1,twofour,,,,,,,,,,,,,,,,,,,,,,,,,,,,,,,,,,,,,,,,,,,,,,,,,,,,,,,,,,,,,,,,,,,,,,,,,,,,,,,,,,,,,,,,,,,,,,,,,,,,,,,,,,,,,,,,,,,,,,,,,,,,,,,,,,,,,,,,,,,,,,,,,,,,,,,,,,,,
,,,,,,5bfe92adaa5fa30001369e01,62c53a91b3254ef8c6ba96a7,2022-07-06_09h32.52.229,Colour_Asymmetry_Pilot,2022.1.3,Win32,59.90176111,62c50e9c1127f2cd403a315f,0,104,104,54,1,fourtwo,,,,,,,,,,,,,,,,,,,,,,,,,,,,,,,,,,,,,,,,,,,,,,,,,,,,,,,,,,,,,,,,,,,,,,,,,,,,,,,,,,,,,,,,,,,,,,,,,,,,,,,,,,,,,,,,,,,,,,,,,,,,,,,,,,,,,,,,,,,,,,,,,,,,,,,,,,,,
,,,,,,5bfe92adaa5fa30001369e01,62c53a91b3254ef8c6ba96a7,2022-07-06_09h32.52.229,Colour_Asymmetry_Pilot,2022.1.3,Win32,59.90176111,62c50e9c1127f2cd403a315f,0,105,105,52,1,threeone,,,,,,,,,,,,,,,,,,,,,,,,,,,,,,,,,,,,,,,,,,,,,,,,,,,,,,,,,,,,,,,,,,,,,,,,,,,,,,,,,,,,,,,,,,,,,,,,,,,,,,,,,,,,,,,,,,,,,,,,,,,,,,,,,,,,,,,,,,,,,,,,,,,,,,,,,,,,
,,,,,,5bfe92adaa5fa30001369e01,62c53a91b3254ef8c6ba96a7,2022-07-06_09h32.52.229,Colour_Asymmetry_Pilot,2022.1.3,Win32,59.90176111,62c50e9c1127f2cd403a315f,0,106,106,29,1,threefour,,,,,,,,,,,,,,,,,,,,,,,,,,,,,,,,,,,,,,,,,,,,,,,,,,,,,,,,,,,,,,,,,,,,,,,,,,,,,,,,,,,,,,,,,,,,,,,,,,,,,,,,,,,,,,,,,,,,,,,,,,,,,,,,,,,,,,,,,,,,,,,,,,,,,,,,,,,,
,,,,,,5bfe92adaa5fa30001369e01,62c53a91b3254ef8c6ba96a7,2022-07-06_09h32.52.229,Colour_Asymmetry_Pilot,2022.1.3,Win32,59.90176111,62c50e9c1127f2cd403a315f,0,107,107,10,1,twoone,,,,,,,,,,,,,,,,,,,,,,,,,,,,,,,,,,,,,,,,,,,,,,,,,,,,,,,,,,,,,,,,,,,,,,,,,,,,,,,,,,,,,,,,,,,,,,,,,,,,,,,,,,,,,,,,,,,,,,,,,,,,,,,,,,,,,,,,,,,,,,,,,,,,,,,,,,,,
,,,,,,5bfe92adaa5fa30001369e01,62c53a91b3254ef8c6ba96a7,2022-07-06_09h32.52.229,Colour_Asymmetry_Pilot,2022.1.3,Win32,59.90176111,62c50e9c1127f2cd403a315f,0,108,108,47,1,fourthree,,,,,,,,,,,,,,,,,,,,,,,,,,,,,,,,,,,,,,,,,,,,,,,,,,,,,,,,,,,,,,,,,,,,,,,,,,,,,,,,,,,,,,,,,,,,,,,,,,,,,,,,,,,,,,,,,,,,,,,,,,,,,,,,,,,,,,,,,,,,,,,,,,,,,,,,,,,,
,,,,,,5bfe92adaa5fa30001369e01,62c53a91b3254ef8c6ba96a7,2022-07-06_09h32.52.229,Colour_Asymmetry_Pilot,2022.1.3,Win32,59.90176111,62c50e9c1127f2cd403a315f,0,109,109,142,1,fourtwo,,,,,,,,,,,,,,,,,,,,,,,,,,,,,,,,,,,,,,,,,,,,,,,,,,,,,,,,,,,,,,,,,,,,,,,,,,,,,,,,,,,,,,,,,,,,,,,,,,,,,,,,,,,,,,,,,,,,,,,,,,,,,,,,,,,,,,,,,,,,,,,,,,,,,,,,,,,,
,,,,,,5bfe92adaa5fa30001369e01,62c53a91b3254ef8c6ba96a7,2022-07-06_09h32.52.229,Colour_Asymmetry_Pilot,2022.1.3,Win32,59.90176111,62c50e9c1127f2cd403a315f,0,110,110,63,1,fourthree,,,,,,,,,,,,,,,,,,,,,,,,,,,,,,,,,,,,,,,,,,,,,,,,,,,,,,,,,,,,,,,,,,,,,,,,,,,,,,,,,,,,,,,,,,,,,,,,,,,,,,,,,,,,,,,,,,,,,,,,,,,,,,,,,,,,,,,,,,,,,,,,,,,,,,,,,,,,
,,,,,,5bfe92adaa5fa30001369e01,62c53a91b3254ef8c6ba96a7,2022-07-06_09h32.52.229,Colour_Asymmetry_Pilot,2022.1.3,Win32,59.90176111,62c50e9c1127f2cd403a315f,0,111,111,125,1,threefour,,,,,,,,,,,,,,,,,,,,,,,,,,,,,,,,,,,,,,,,,,,,,,,,,,,,,,,,,,,,,,,,,,,,,,,,,,,,,,,,,,,,,,,,,,,,,,,,,,,,,,,,,,,,,,,,,,,,,,,,,,,,,,,,,,,,,,,,,,,,,,,,,,,,,,,,,,,,
,,,,,,5bfe92adaa5fa30001369e01,62c53a91b3254ef8c6ba96a7,2022-07-06_09h32.52.229,Colour_Asymmetry_Pilot,2022.1.3,Win32,59.90176111,62c50e9c1127f2cd403a315f,0,112,112,53,1,threefour,,,,,,,,,,,,,,,,,,,,,,,,,,,,,,,,,,,,,,,,,,,,,,,,,,,,,,,,,,,,,,,,,,,,,,,,,,,,,,,,,,,,,,,,,,,,,,,,,,,,,,,,,,,,,,,,,,,,,,,,,,,,,,,,,,,,,,,,,,,,,,,,,,,,,,,,,,,,
,,,,,,5bfe92adaa5fa30001369e01,62c53a91b3254ef8c6ba96a7,2022-07-06_09h32.52.229,Colour_Asymmetry_Pilot,2022.1.3,Win32,59.90176111,62c50e9c1127f2cd403a315f,0,113,113,128,1,onetwo,,,,,,,,,,,,,,,,,,,,,,,,,,,,,,,,,,,,,,,,,,,,,,,,,,,,,,,,,,,,,,,,,,,,,,,,,,,,,,,,,,,,,,,,,,,,,,,,,,,,,,,,,,,,,,,,,,,,,,,,,,,,,,,,,,,,,,,,,,,,,,,,,,,,,,,,,,,,
,,,,,,5bfe92adaa5fa30001369e01,62c53a91b3254ef8c6ba96a7,2022-07-06_09h32.52.229,Colour_Asymmetry_Pilot,2022.1.3,Win32,59.90176111,62c50e9c1127f2cd403a315f,0,114,114,108,1,threeone,,,,,,,,,,,,,,,,,,,,,,,,,,,,,,,,,,,,,,,,,,,,,,,,,,,,,,,,,,,,,,,,,,,,,,,,,,,,,,,,,,,,,,,,,,,,,,,,,,,,,,,,,,,,,,,,,,,,,,,,,,,,,,,,,,,,,,,,,,,,,,,,,,,,,,,,,,,,
,,,,,,5bfe92adaa5fa30001369e01,62c53a91b3254ef8c6ba96a7,2022-07-06_09h32.52.229,Colour_Asymmetry_Pilot,2022.1.3,Win32,59.90176111,62c50e9c1127f2cd403a315f,0,115,115,24,1,onetwo,,,,,,,,,,,,,,,,,,,,,,,,,,,,,,,,,,,,,,,,,,,,,,,,,,,,,,,,,,,,,,,,,,,,,,,,,,,,,,,,,,,,,,,,,,,,,,,,,,,,,,,,,,,,,,,,,,,,,,,,,,,,,,,,,,,,,,,,,,,,,,,,,,,,,,,,,,,,
,,,,,,5bfe92adaa5fa30001369e01,62c53a91b3254ef8c6ba96a7,2022-07-06_09h32.52.229,Colour_Asymmetry_Pilot,2022.1.3,Win32,59.90176111,62c50e9c1127f2cd403a315f,0,116,116,75,1,twofour,,,,,,,,,,,,,,,,,,,,,,,,,,,,,,,,,,,,,,,,,,,,,,,,,,,,,,,,,,,,,,,,,,,,,,,,,,,,,,,,,,,,,,,,,,,,,,,,,,,,,,,,,,,,,,,,,,,,,,,,,,,,,,,,,,,,,,,,,,,,,,,,,,,,,,,,,,,,
,,,,,,5bfe92adaa5fa30001369e01,62c53a91b3254ef8c6ba96a7,2022-07-06_09h32.52.229,Colour_Asymmetry_Pilot,2022.1.3,Win32,59.90176111,62c50e9c1127f2cd403a315f,0,117,117,141,1,threefour,,,,,,,,,,,,,,,,,,,,,,,,,,,,,,,,,,,,,,,,,,,,,,,,,,,,,,,,,,,,,,,,,,,,,,,,,,,,,,,,,,,,,,,,,,,,,,,,,,,,,,,,,,,,,,,,,,,,,,,,,,,,,,,,,,,,,,,,,,,,,,,,,,,,,,,,,,,,
,,,,,,5bfe92adaa5fa30001369e01,62c53a91b3254ef8c6ba96a7,2022-07-06_09h32.52.229,Colour_Asymmetry_Pilot,2022.1.3,Win32,59.90176111,62c50e9c1127f2cd403a315f,0,118,118,92,1,threeone,,,,,,,,,,,,,,,,,,,,,,,,,,,,,,,,,,,,,,,,,,,,,,,,,,,,,,,,,,,,,,,,,,,,,,,,,,,,,,,,,,,,,,,,,,,,,,,,,,,,,,,,,,,,,,,,,,,,,,,,,,,,,,,,,,,,,,,,,,,,,,,,,,,,,,,,,,,,
,,,,,,5bfe92adaa5fa30001369e01,62c53a91b3254ef8c6ba96a7,2022-07-06_09h32.52.229,Colour_Asymmetry_Pilot,2022.1.3,Win32,59.90176111,62c50e9c1127f2cd403a315f,0,119,119,98,1,twoone,,,,,,,,,,,,,,,,,,,,,,,,,,,,,,,,,,,,,,,,,,,,,,,,,,,,,,,,,,,,,,,,,,,,,,,,,,,,,,,,,,,,,,,,,,,,,,,,,,,,,,,,,,,,,,,,,,,,,,,,,,,,,,,,,,,,,,,,,,,,,,,,,,,,,,,,,,,,
,,,,,,5bfe92adaa5fa30001369e01,62c53a91b3254ef8c6ba96a7,2022-07-06_09h32.52.229,Colour_Asymmetry_Pilot,2022.1.3,Win32,59.90176111,62c50e9c1127f2cd403a315f,0,120,120,70,1,fourtwo,,,,,,,,,,,,,,,,,,,,,,,,,,,,,,,,,,,,,,,,,,,,,,,,,,,,,,,,,,,,,,,,,,,,,,,,,,,,,,,,,,,,,,,,,,,,,,,,,,,,,,,,,,,,,,,,,,,,,,,,,,,,,,,,,,,,,,,,,,,,,,,,,,,,,,,,,,,,
,,,,,,5bfe92adaa5fa30001369e01,62c53a91b3254ef8c6ba96a7,2022-07-06_09h32.52.229,Colour_Asymmetry_Pilot,2022.1.3,Win32,59.90176111,62c50e9c1127f2cd403a315f,0,121,121,62,1,fourtwo,,,,,,,,,,,,,,,,,,,,,,,,,,,,,,,,,,,,,,,,,,,,,,,,,,,,,,,,,,,,,,,,,,,,,,,,,,,,,,,,,,,,,,,,,,,,,,,,,,,,,,,,,,,,,,,,,,,,,,,,,,,,,,,,,,,,,,,,,,,,,,,,,,,,,,,,,,,,
,,,,,,5bfe92adaa5fa30001369e01,62c53a91b3254ef8c6ba96a7,2022-07-06_09h32.52.229,Colour_Asymmetry_Pilot,2022.1.3,Win32,59.90176111,62c50e9c1127f2cd403a315f,0,122,122,6,1,fourtwo,,,,,,,,,,,,,,,,,,,,,,,,,,,,,,,,,,,,,,,,,,,,,,,,,,,,,,,,,,,,,,,,,,,,,,,,,,,,,,,,,,,,,,,,,,,,,,,,,,,,,,,,,,,,,,,,,,,,,,,,,,,,,,,,,,,,,,,,,,,,,,,,,,,,,,,,,,,,
,,,,,,5bfe92adaa5fa30001369e01,62c53a91b3254ef8c6ba96a7,2022-07-06_09h32.52.229,Colour_Asymmetry_Pilot,2022.1.3,Win32,59.90176111,62c50e9c1127f2cd403a315f,0,123,123,148,1,threeone,,,,,,,,,,,,,,,,,,,,,,,,,,,,,,,,,,,,,,,,,,,,,,,,,,,,,,,,,,,,,,,,,,,,,,,,,,,,,,,,,,,,,,,,,,,,,,,,,,,,,,,,,,,,,,,,,,,,,,,,,,,,,,,,,,,,,,,,,,,,,,,,,,,,,,,,,,,,
,,,,,,5bfe92adaa5fa30001369e01,62c53a91b3254ef8c6ba96a7,2022-07-06_09h32.52.229,Colour_Asymmetry_Pilot,2022.1.3,Win32,59.90176111,62c50e9c1127f2cd403a315f,0,124,124,84,1,threeone,,,,,,,,,,,,,,,,,,,,,,,,,,,,,,,,,,,,,,,,,,,,,,,,,,,,,,,,,,,,,,,,,,,,,,,,,,,,,,,,,,,,,,,,,,,,,,,,,,,,,,,,,,,,,,,,,,,,,,,,,,,,,,,,,,,,,,,,,,,,,,,,,,,,,,,,,,,,
,,,,,,5bfe92adaa5fa30001369e01,62c53a91b3254ef8c6ba96a7,2022-07-06_09h32.52.229,Colour_Asymmetry_Pilot,2022.1.3,Win32,59.90176111,62c50e9c1127f2cd403a315f,0,125,125,88,1,onetwo,,,,,,,,,,,,,,,,,,,,,,,,,,,,,,,,,,,,,,,,,,,,,,,,,,,,,,,,,,,,,,,,,,,,,,,,,,,,,,,,,,,,,,,,,,,,,,,,,,,,,,,,,,,,,,,,,,,,,,,,,,,,,,,,,,,,,,,,,,,,,,,,,,,,,,,,,,,,
,,,,,,5bfe92adaa5fa30001369e01,62c53a91b3254ef8c6ba96a7,2022-07-06_09h32.52.229,Colour_Asymmetry_Pilot,2022.1.3,Win32,59.90176111,62c50e9c1127f2cd403a315f,0,126,126,153,1,onethree,,,,,,,,,,,,,,,,,,,,,,,,,,,,,,,,,,,,,,,,,,,,,,,,,,,,,,,,,,,,,,,,,,,,,,,,,,,,,,,,,,,,,,,,,,,,,,,,,,,,,,,,,,,,,,,,,,,,,,,,,,,,,,,,,,,,,,,,,,,,,,,,,,,,,,,,,,,,
,,,,,,5bfe92adaa5fa30001369e01,62c53a91b3254ef8c6ba96a7,2022-07-06_09h32.52.229,Colour_Asymmetry_Pilot,2022.1.3,Win32,59.90176111,62c50e9c1127f2cd403a315f,0,127,127,64,1,onetwo,,,,,,,,,,,,,,,,,,,,,,,,,,,,,,,,,,,,,,,,,,,,,,,,,,,,,,,,,,,,,,,,,,,,,,,,,,,,,,,,,,,,,,,,,,,,,,,,,,,,,,,,,,,,,,,,,,,,,,,,,,,,,,,,,,,,,,,,,,,,,,,,,,,,,,,,,,,,
,,,,,,5bfe92adaa5fa30001369e01,62c53a91b3254ef8c6ba96a7,2022-07-06_09h32.52.229,Colour_Asymmetry_Pilot,2022.1.3,Win32,59.90176111,62c50e9c1127f2cd403a315f,0,128,128,12,1,threeone,,,,,,,,,,,,,,,,,,,,,,,,,,,,,,,,,,,,,,,,,,,,,,,,,,,,,,,,,,,,,,,,,,,,,,,,,,,,,,,,,,,,,,,,,,,,,,,,,,,,,,,,,,,,,,,,,,,,,,,,,,,,,,,,,,,,,,,,,,,,,,,,,,,,,,,,,,,,
,,,,,,5bfe92adaa5fa30001369e01,62c53a91b3254ef8c6ba96a7,2022-07-06_09h32.52.229,Colour_Asymmetry_Pilot,2022.1.3,Win32,59.90176111,62c50e9c1127f2cd403a315f,0,129,129,44,1,threeone,,,,,,,,,,,,,,,,,,,,,,,,,,,,,,,,,,,,,,,,,,,,,,,,,,,,,,,,,,,,,,,,,,,,,,,,,,,,,,,,,,,,,,,,,,,,,,,,,,,,,,,,,,,,,,,,,,,,,,,,,,,,,,,,,,,,,,,,,,,,,,,,,,,,,,,,,,,,
,,,,,,5bfe92adaa5fa30001369e01,62c53a91b3254ef8c6ba96a7,2022-07-06_09h32.52.229,Colour_Asymmetry_Pilot,2022.1.3,Win32,59.90176111,62c50e9c1127f2cd403a315f,0,130,130,107,1,twofour,,,,,,,,,,,,,,,,,,,,,,,,,,,,,,,,,,,,,,,,,,,,,,,,,,,,,,,,,,,,,,,,,,,,,,,,,,,,,,,,,,,,,,,,,,,,,,,,,,,,,,,,,,,,,,,,,,,,,,,,,,,,,,,,,,,,,,,,,,,,,,,,,,,,,,,,,,,,
,,,,,,5bfe92adaa5fa30001369e01,62c53a91b3254ef8c6ba96a7,2022-07-06_09h32.52.229,Colour_Asymmetry_Pilot,2022.1.3,Win32,59.90176111,62c50e9c1127f2cd403a315f,0,131,131,66,1,twoone,,,,,,,,,,,,,,,,,,,,,,,,,,,,,,,,,,,,,,,,,,,,,,,,,,,,,,,,,,,,,,,,,,,,,,,,,,,,,,,,,,,,,,,,,,,,,,,,,,,,,,,,,,,,,,,,,,,,,,,,,,,,,,,,,,,,,,,,,,,,,,,,,,,,,,,,,,,,
,,,,,,5bfe92adaa5fa30001369e01,62c53a91b3254ef8c6ba96a7,2022-07-06_09h32.52.229,Colour_Asymmetry_Pilot,2022.1.3,Win32,59.90176111,62c50e9c1127f2cd403a315f,0,132,132,14,1,fourtwo,,,,,,,,,,,,,,,,,,,,,,,,,,,,,,,,,,,,,,,,,,,,,,,,,,,,,,,,,,,,,,,,,,,,,,,,,,,,,,,,,,,,,,,,,,,,,,,,,,,,,,,,,,,,,,,,,,,,,,,,,,,,,,,,,,,,,,,,,,,,,,,,,,,,,,,,,,,,
,,,,,,5bfe92adaa5fa30001369e01,62c53a91b3254ef8c6ba96a7,2022-07-06_09h32.52.229,Colour_Asymmetry_Pilot,2022.1.3,Win32,59.90176111,62c50e9c1127f2cd403a315f,0,133,133,136,1,onetwo,,,,,,,,,,,,,,,,,,,,,,,,,,,,,,,,,,,,,,,,,,,,,,,,,,,,,,,,,,,,,,,,,,,,,,,,,,,,,,,,,,,,,,,,,,,,,,,,,,,,,,,,,,,,,,,,,,,,,,,,,,,,,,,,,,,,,,,,,,,,,,,,,,,,,,,,,,,,
,,,,,,5bfe92adaa5fa30001369e01,62c53a91b3254ef8c6ba96a7,2022-07-06_09h32.52.229,Colour_Asymmetry_Pilot,2022.1.3,Win32,59.90176111,62c50e9c1127f2cd403a315f,0,134,134,2,1,twoone,,,,,,,,,,,,,,,,,,,,,,,,,,,,,,,,,,,,,,,,,,,,,,,,,,,,,,,,,,,,,,,,,,,,,,,,,,,,,,,,,,,,,,,,,,,,,,,,,,,,,,,,,,,,,,,,,,,,,,,,,,,,,,,,,,,,,,,,,,,,,,,,,,,,,,,,,,,,
,,,,,,5bfe92adaa5fa30001369e01,62c53a91b3254ef8c6ba96a7,2022-07-06_09h32.52.229,Colour_Asymmetry_Pilot,2022.1.3,Win32,59.90176111,62c50e9c1127f2cd403a315f,0,135,135,131,1,twofour,,,,,,,,,,,,,,,,,,,,,,,,,,,,,,,,,,,,,,,,,,,,,,,,,,,,,,,,,,,,,,,,,,,,,,,,,,,,,,,,,,,,,,,,,,,,,,,,,,,,,,,,,,,,,,,,,,,,,,,,,,,,,,,,,,,,,,,,,,,,,,,,,,,,,,,,,,,,
,,,,,,5bfe92adaa5fa30001369e01,62c53a91b3254ef8c6ba96a7,2022-07-06_09h32.52.229,Colour_Asymmetry_Pilot,2022.1.3,Win32,59.90176111,62c50e9c1127f2cd403a315f,0,136,136,46,1,fourtwo,,,,,,,,,,,,,,,,,,,,,,,,,,,,,,,,,,,,,,,,,,,,,,,,,,,,,,,,,,,,,,,,,,,,,,,,,,,,,,,,,,,,,,,,,,,,,,,,,,,,,,,,,,,,,,,,,,,,,,,,,,,,,,,,,,,,,,,,,,,,,,,,,,,,,,,,,,,,
,,,,,,5bfe92adaa5fa30001369e01,62c53a91b3254ef8c6ba96a7,2022-07-06_09h32.52.229,Colour_Asymmetry_Pilot,2022.1.3,Win32,59.90176111,62c50e9c1127f2cd403a315f,0,137,137,50,1,twoone,,,,,,,,,,,,,,,,,,,,,,,,,,,,,,,,,,,,,,,,,,,,,,,,,,,,,,,,,,,,,,,,,,,,,,,,,,,,,,,,,,,,,,,,,,,,,,,,,,,,,,,,,,,,,,,,,,,,,,,,,,,,,,,,,,,,,,,,,,,,,,,,,,,,,,,,,,,,
,,,,,,5bfe92adaa5fa30001369e01,62c53a91b3254ef8c6ba96a7,2022-07-06_09h32.52.229,Colour_Asymmetry_Pilot,2022.1.3,Win32,59.90176111,62c50e9c1127f2cd403a315f,0,138,138,109,1,threefour,,,,,,,,,,,,,,,,,,,,,,,,,,,,,,,,,,,,,,,,,,,,,,,,,,,,,,,,,,,,,,,,,,,,,,,,,,,,,,,,,,,,,,,,,,,,,,,,,,,,,,,,,,,,,,,,,,,,,,,,,,,,,,,,,,,,,,,,,,,,,,,,,,,,,,,,,,,,
,,,,,,5bfe92adaa5fa30001369e01,62c53a91b3254ef8c6ba96a7,2022-07-06_09h32.52.229,Colour_Asymmetry_Pilot,2022.1.3,Win32,59.90176111,62c50e9c1127f2cd403a315f,0,139,139,45,1,threefour,,,,,,,,,,,,,,,,,,,,,,,,,,,,,,,,,,,,,,,,,,,,,,,,,,,,,,,,,,,,,,,,,,,,,,,,,,,,,,,,,,,,,,,,,,,,,,,,,,,,,,,,,,,,,,,,,,,,,,,,,,,,,,,,,,,,,,,,,,,,,,,,,,,,,,,,,,,,
,,,,,,5bfe92adaa5fa30001369e01,62c53a91b3254ef8c6ba96a7,2022-07-06_09h32.52.229,Colour_Asymmetry_Pilot,2022.1.3,Win32,59.90176111,62c50e9c1127f2cd403a315f,0,140,140,7,1,fourthree,,,,,,,,,,,,,,,,,,,,,,,,,,,,,,,,,,,,,,,,,,,,,,,,,,,,,,,,,,,,,,,,,,,,,,,,,,,,,,,,,,,,,,,,,,,,,,,,,,,,,,,,,,,,,,,,,,,,,,,,,,,,,,,,,,,,,,,,,,,,,,,,,,,,,,,,,,,,
,,,,,,5bfe92adaa5fa30001369e01,62c53a91b3254ef8c6ba96a7,2022-07-06_09h32.52.229,Colour_Asymmetry_Pilot,2022.1.3,Win32,59.90176111,62c50e9c1127f2cd403a315f,0,141,141,48,1,onetwo,,,,,,,,,,,,,,,,,,,,,,,,,,,,,,,,,,,,,,,,,,,,,,,,,,,,,,,,,,,,,,,,,,,,,,,,,,,,,,,,,,,,,,,,,,,,,,,,,,,,,,,,,,,,,,,,,,,,,,,,,,,,,,,,,,,,,,,,,,,,,,,,,,,,,,,,,,,,
,,,,,,5bfe92adaa5fa30001369e01,62c53a91b3254ef8c6ba96a7,2022-07-06_09h32.52.229,Colour_Asymmetry_Pilot,2022.1.3,Win32,59.90176111,62c50e9c1127f2cd403a315f,0,142,142,74,1,twoone,,,,,,,,,,,,,,,,,,,,,,,,,,,,,,,,,,,,,,,,,,,,,,,,,,,,,,,,,,,,,,,,,,,,,,,,,,,,,,,,,,,,,,,,,,,,,,,,,,,,,,,,,,,,,,,,,,,,,,,,,,,,,,,,,,,,,,,,,,,,,,,,,,,,,,,,,,,,
,,,,,,5bfe92adaa5fa30001369e01,62c53a91b3254ef8c6ba96a7,2022-07-06_09h32.52.229,Colour_Asymmetry_Pilot,2022.1.3,Win32,59.90176111,62c50e9c1127f2cd403a315f,0,143,143,78,1,fourtwo,,,,,,,,,,,,,,,,,,,,,,,,,,,,,,,,,,,,,,,,,,,,,,,,,,,,,,,,,,,,,,,,,,,,,,,,,,,,,,,,,,,,,,,,,,,,,,,,,,,,,,,,,,,,,,,,,,,,,,,,,,,,,,,,,,,,,,,,,,,,,,,,,,,,,,,,,,,,
,,,,,,5bfe92adaa5fa30001369e01,62c53a91b3254ef8c6ba96a7,2022-07-06_09h32.52.229,Colour_Asymmetry_Pilot,2022.1.3,Win32,59.90176111,62c50e9c1127f2cd403a315f,0,144,144,59,1,twofour,,,,,,,,,,,,,,,,,,,,,,,,,,,,,,,,,,,,,,,,,,,,,,,,,,,,,,,,,,,,,,,,,,,,,,,,,,,,,,,,,,,,,,,,,,,,,,,,,,,,,,,,,,,,,,,,,,,,,,,,,,,,,,,,,,,,,,,,,,,,,,,,,,,,,,,,,,,,
,,,,,,5bfe92adaa5fa30001369e01,62c53a91b3254ef8c6ba96a7,2022-07-06_09h32.52.229,Colour_Asymmetry_Pilot,2022.1.3,Win32,59.90176111,62c50e9c1127f2cd403a315f,0,145,145,161,1,onethree,,,,,,,,,,,,,,,,,,,,,,,,,,,,,,,,,,,,,,,,,,,,,,,,,,,,,,,,,,,,,,,,,,,,,,,,,,,,,,,,,,,,,,,,,,,,,,,,,,,,,,,,,,,,,,,,,,,,,,,,,,,,,,,,,,,,,,,,,,,,,,,,,,,,,,,,,,,,
,,,,,,5bfe92adaa5fa30001369e01,62c53a91b3254ef8c6ba96a7,2022-07-06_09h32.52.229,Colour_Asymmetry_Pilot,2022.1.3,Win32,59.90176111,62c50e9c1127f2cd403a315f,0,146,146,96,1,onetwo,,,,,,,,,,,,,,,,,,,,,,,,,,,,,,,,,,,,,,,,,,,,,,,,,,,,,,,,,,,,,,,,,,,,,,,,,,,,,,,,,,,,,,,,,,,,,,,,,,,,,,,,,,,,,,,,,,,,,,,,,,,,,,,,,,,,,,,,,,,,,,,,,,,,,,,,,,,,
,,,,,,5bfe92adaa5fa30001369e01,62c53a91b3254ef8c6ba96a7,2022-07-06_09h32.52.229,Colour_Asymmetry_Pilot,2022.1.3,Win32,59.90176111,62c50e9c1127f2cd403a315f,0,147,147,135,1,fourthree,,,,,,,,,,,,,,,,,,,,,,,,,,,,,,,,,,,,,,,,,,,,,,,,,,,,,,,,,,,,,,,,,,,,,,,,,,,,,,,,,,,,,,,,,,,,,,,,,,,,,,,,,,,,,,,,,,,,,,,,,,,,,,,,,,,,,,,,,,,,,,,,,,,,,,,,,,,,
,,,,,,5bfe92adaa5fa30001369e01,62c53a91b3254ef8c6ba96a7,2022-07-06_09h32.52.229,Colour_Asymmetry_Pilot,2022.1.3,Win32,59.90176111,62c50e9c1127f2cd403a315f,0,148,148,143,1,fourthree,,,,,,,,,,,,,,,,,,,,,,,,,,,,,,,,,,,,,,,,,,,,,,,,,,,,,,,,,,,,,,,,,,,,,,,,,,,,,,,,,,,,,,,,,,,,,,,,,,,,,,,,,,,,,,,,,,,,,,,,,,,,,,,,,,,,,,,,,,,,,,,,,,,,,,,,,,,,
,,,,,,5bfe92adaa5fa30001369e01,62c53a91b3254ef8c6ba96a7,2022-07-06_09h32.52.229,Colour_Asymmetry_Pilot,2022.1.3,Win32,59.90176111,62c50e9c1127f2cd403a315f,0,149,149,43,1,twofour,,,,,,,,,,,,,,,,,,,,,,,,,,,,,,,,,,,,,,,,,,,,,,,,,,,,,,,,,,,,,,,,,,,,,,,,,,,,,,,,,,,,,,,,,,,,,,,,,,,,,,,,,,,,,,,,,,,,,,,,,,,,,,,,,,,,,,,,,,,,,,,,,,,,,,,,,,,,
,,,,,,5bfe92adaa5fa30001369e01,62c53a91b3254ef8c6ba96a7,2022-07-06_09h32.52.229,Colour_Asymmetry_Pilot,2022.1.3,Win32,59.90176111,62c50e9c1127f2cd403a315f,0,150,150,147,1,twofour,,,,,,,,,,,,,,,,,,,,,,,,,,,,,,,,,,,,,,,,,,,,,,,,,,,,,,,,,,,,,,,,,,,,,,,,,,,,,,,,,,,,,,,,,,,,,,,,,,,,,,,,,,,,,,,,,,,,,,,,,,,,,,,,,,,,,,,,,,,,,,,,,,,,,,,,,,,,
,,,,,,5bfe92adaa5fa30001369e01,62c53a91b3254ef8c6ba96a7,2022-07-06_09h32.52.229,Colour_Asymmetry_Pilot,2022.1.3,Win32,59.90176111,62c50e9c1127f2cd403a315f,0,151,151,16,1,onetwo,,,,,,,,,,,,,,,,,,,,,,,,,,,,,,,,,,,,,,,,,,,,,,,,,,,,,,,,,,,,,,,,,,,,,,,,,,,,,,,,,,,,,,,,,,,,,,,,,,,,,,,,,,,,,,,,,,,,,,,,,,,,,,,,,,,,,,,,,,,,,,,,,,,,,,,,,,,,
,,,,,,5bfe92adaa5fa30001369e01,62c53a91b3254ef8c6ba96a7,2022-07-06_09h32.52.229,Colour_Asymmetry_Pilot,2022.1.3,Win32,59.90176111,62c50e9c1127f2cd403a315f,0,152,152,121,1,onethree,,,,,,,,,,,,,,,,,,,,,,,,,,,,,,,,,,,,,,,,,,,,,,,,,,,,,,,,,,,,,,,,,,,,,,,,,,,,,,,,,,,,,,,,,,,,,,,,,,,,,,,,,,,,,,,,,,,,,,,,,,,,,,,,,,,,,,,,,,,,,,,,,,,,,,,,,,,,
,,,,,,5bfe92adaa5fa30001369e01,62c53a91b3254ef8c6ba96a7,2022-07-06_09h32.52.229,Colour_Asymmetry_Pilot,2022.1.3,Win32,59.90176111,62c50e9c1127f2cd403a315f,0,153,153,19,1,twofour,,,,,,,,,,,,,,,,,,,,,,,,,,,,,,,,,,,,,,,,,,,,,,,,,,,,,,,,,,,,,,,,,,,,,,,,,,,,,,,,,,,,,,,,,,,,,,,,,,,,,,,,,,,,,,,,,,,,,,,,,,,,,,,,,,,,,,,,,,,,,,,,,,,,,,,,,,,,
,,,,,,5bfe92adaa5fa30001369e01,62c53a91b3254ef8c6ba96a7,2022-07-06_09h32.52.229,Colour_Asymmetry_Pilot,2022.1.3,Win32,59.90176111,62c50e9c1127f2cd403a315f,0,154,154,94,1,fourtwo,,,,,,,,,,,,,,,,,,,,,,,,,,,,,,,,,,,,,,,,,,,,,,,,,,,,,,,,,,,,,,,,,,,,,,,,,,,,,,,,,,,,,,,,,,,,,,,,,,,,,,,,,,,,,,,,,,,,,,,,,,,,,,,,,,,,,,,,,,,,,,,,,,,,,,,,,,,,
,,,,,,5bfe92adaa5fa30001369e01,62c53a91b3254ef8c6ba96a7,2022-07-06_09h32.52.229,Colour_Asymmetry_Pilot,2022.1.3,Win32,59.90176111,62c50e9c1127f2cd403a315f,0,155,155,56,1,onetwo,,,,,,,,,,,,,,,,,,,,,,,,,,,,,,,,,,,,,,,,,,,,,,,,,,,,,,,,,,,,,,,,,,,,,,,,,,,,,,,,,,,,,,,,,,,,,,,,,,,,,,,,,,,,,,,,,,,,,,,,,,,,,,,,,,,,,,,,,,,,,,,,,,,,,,,,,,,,
,,,,,,5bfe92adaa5fa30001369e01,62c53a91b3254ef8c6ba96a7,2022-07-06_09h32.52.229,Colour_Asymmetry_Pilot,2022.1.3,Win32,59.90176111,62c50e9c1127f2cd403a315f,0,156,156,157,1,threefour,,,,,,,,,,,,,,,,,,,,,,,,,,,,,,,,,,,,,,,,,,,,,,,,,,,,,,,,,,,,,,,,,,,,,,,,,,,,,,,,,,,,,,,,,,,,,,,,,,,,,,,,,,,,,,,,,,,,,,,,,,,,,,,,,,,,,,,,,,,,,,,,,,,,,,,,,,,,
,,,,,,5bfe92adaa5fa30001369e01,62c53a91b3254ef8c6ba96a7,2022-07-06_09h32.52.229,Colour_Asymmetry_Pilot,2022.1.3,Win32,59.90176111,62c50e9c1127f2cd403a315f,0,157,157,69,1,threefour,,,,,,,,,,,,,,,,,,,,,,,,,,,,,,,,,,,,,,,,,,,,,,,,,,,,,,,,,,,,,,,,,,,,,,,,,,,,,,,,,,,,,,,,,,,,,,,,,,,,,,,,,,,,,,,,,,,,,,,,,,,,,,,,,,,,,,,,,,,,,,,,,,,,,,,,,,,,
,,,,,,5bfe92adaa5fa30001369e01,62c53a91b3254ef8c6ba96a7,2022-07-06_09h32.52.229,Colour_Asymmetry_Pilot,2022.1.3,Win32,59.90176111,62c50e9c1127f2cd403a315f,0,158,158,93,1,threefour,,,,,,,,,,,,,,,,,,,,,,,,,,,,,,,,,,,,,,,,,,,,,,,,,,,,,,,,,,,,,,,,,,,,,,,,,,,,,,,,,,,,,,,,,,,,,,,,,,,,,,,,,,,,,,,,,,,,,,,,,,,,,,,,,,,,,,,,,,,,,,,,,,,,,,,,,,,,
,,,,,,5bfe92adaa5fa30001369e01,62c53a91b3254ef8c6ba96a7,2022-07-06_09h32.52.229,Colour_Asymmetry_Pilot,2022.1.3,Win32,59.90176111,62c50e9c1127f2cd403a315f,0,159,159,25,1,onethree,,,,,,,,,,,,,,,,,,,,,,,,,,,,,,,,,,,,,,,,,,,,,,,,,,,,,,,,,,,,,,,,,,,,,,,,,,,,,,,,,,,,,,,,,,,,,,,,,,,,,,,,,,,,,,,,,,,,,,,,,,,,,,,,,,,,,,,,,,,,,,,,,,,,,,,,,,,,
,,,,,,5bfe92adaa5fa30001369e01,62c53a91b3254ef8c6ba96a7,2022-07-06_09h32.52.229,Colour_Asymmetry_Pilot,2022.1.3,Win32,59.90176111,62c50e9c1127f2cd403a315f,0,160,160,32,1,onetwo,,,,,,,,,,,,,,,,,,,,,,,,,,,,,,,,,,,,,,,,,,,,,,,,,,,,,,,,,,,,,,,,,,,,,,,,,,,,,,,,,,,,,,,,,,,,,,,,,,,,,,,,,,,,,,,,,,,,,,,,,,,,,,,,,,,,,,,,,,,,,,,,,,,,,,,,,,,,
,,,,,,5bfe92adaa5fa30001369e01,62c53a91b3254ef8c6ba96a7,2022-07-06_09h32.52.229,Colour_Asymmetry_Pilot,2022.1.3,Win32,59.90176111,62c50e9c1127f2cd403a315f,0,161,161,5,1,threefour,,,,,,,,,,,,,,,,,,,,,,,,,,,,,,,,,,,,,,,,,,,,,,,,,,,,,,,,,,,,,,,,,,,,,,,,,,,,,,,,,,,,,,,,,,,,,,,,,,,,,,,,,,,,,,,,,,,,,,,,,,,,,,,,,,,,,,,,,,,,,,,,,,,,,,,,,,,,
,,,,,,5bfe92adaa5fa30001369e01,62c53a91b3254ef8c6ba96a7,2022-07-06_09h32.52.229,Colour_Asymmetry_Pilot,2022.1.3,Win32,59.90176111,62c50e9c1127f2cd403a315f,,,,,,,space,4.2829,space,5.1118,space,46.26,space,6.8109,space,1.6249,space,5.0335,"[1,0.12939999999999996,-1]",onethree,"[0.5449999999999999,-0.31000000000000005,-0.0354000000000001]",-3,13.5173,-107,45,1,0,0,response7disk_5,5,-6,1,0,0,rectangle_8,5,-6,1,0,0,1,5,-6,1,0,0,0,0,0,0,1,,,,,,,,,,,,,,,,,,,,,,,,,,,,,,,,,,,,,,,,,,,,,,,,,,,,,,,,,,,,,,,,,,,,,,,,,,,,,,,,,,,,,,,,,,,,,,,,,,,,,,,,,,,,,,,
,,,,,,5bfe92adaa5fa30001369e01,62c53a91b3254ef8c6ba96a7,2022-07-06_09h32.52.229,Colour_Asymmetry_Pilot,2022.1.3,Win32,59.90176111,62c50e9c1127f2cd403a315f,,,,,,,,,,,,,,,,,,,"[-0.17659999999999998,0.3253999999999999,0.19999999999999996]",threeone,"[-0.5688,-0.08239999999999992,-0.1844]",1,4.9663,61,-90,1,0,0,response3disk_5,9,-7,1,0,0,rectangle_8,9,-7,1,0,0,1,9,-7,1,0,0,1,0,1,0,1,,,,,,,,,,,,,,,,,,,,,,,,,,,,,,,,,,,,,,,,,,,,,,,,,,,,,,,,,,,,,,,,,,,,,,,,,,,,,,,,,,,,,,,,,,,,,,,,,,,,,,,,,,,,,,,
,,,,,,5bfe92adaa5fa30001369e01,62c53a91b3254ef8c6ba96a7,2022-07-06_09h32.52.229,Colour_Asymmetry_Pilot,2022.1.3,Win32,59.90176111,62c50e9c1127f2cd403a315f,,,,,,,,,,,,,,,,,,,"[-0.2942,-0.7648,-0.7492000000000001]",threeone,"[0.30180000000000007,-0.7884,-0.9844]",-1,3.4842,-68,-110,1,0,0,response5disk_5,6,-9,1,0,0,rectangle_8,6,-9,1,0,0,1,6,-9,1,0,0,2,0,2,0,1,,,,,,,,,,,,,,,,,,,,,,,,,,,,,,,,,,,,,,,,,,,,,,,,,,,,,,,,,,,,,,,,,,,,,,,,,,,,,,,,,,,,,,,,,,,,,,,,,,,,,,,,,,,,,,,
,,,,,,5bfe92adaa5fa30001369e01,62c53a91b3254ef8c6ba96a7,2022-07-06_09h32.52.229,Colour_Asymmetry_Pilot,2022.1.3,Win32,59.90176111,62c50e9c1127f2cd403a315f,,,,,,,,,,,,,,,,,,,"[-0.17659999999999998,0.3253999999999999,0.19999999999999996]",fourtwo,"[-0.050999999999999934,-0.6706000000000001,-0.804]",-4,2.1263,-35,72,1,0,0,response7disk_5,10,3,1,0,0,rectangle_8,10,3,1,0,0,1,10,3,1,0,0,3,0,3,0,1,,,,,,,,,,,,,,,,,,,,,,,,,,,,,,,,,,,,,,,,,,,,,,,,,,,,,,,,,,,,,,,,,,,,,,,,,,,,,,,,,,,,,,,,,,,,,,,,,,,,,,,,,,,,,,,
,,,,,,5bfe92adaa5fa30001369e01,62c53a91b3254ef8c6ba96a7,2022-07-06_09h32.52.229,Colour_Asymmetry_Pilot,2022.1.3,Win32,59.90176111,62c50e9c1127f2cd403a315f,,,,,,,,,,,,,,,,,,,"[-0.4668,-0.8746,-0.2942]",threeone,"[-0.6235999999999999,-0.6786,-0.08239999999999992]",-2,2.2349,-89,-37,1,0,0,response5disk_5,-27,0,1,0,0,rectangle_8,53,-124,1,0,0,1,-5,7,1,0,0,4,0,4,0,1,response3disk_7,4,rectangle_4,,,,,,,,,,,,,,,,,,,,,,,,,,,,,,,,,,,,,,,,,,,,,,,,,,,,,,,,,,,,,,,,,,,,,,,,,,,,,,,,,,,,,,,,,,,,,,,,,,,,,,,,,,,,
,,,,,,5bfe92adaa5fa30001369e01,62c53a91b3254ef8c6ba96a7,2022-07-06_09h32.52.229,Colour_Asymmetry_Pilot,2022.1.3,Win32,59.90176111,62c50e9c1127f2cd403a315f,,,,,,,,,,,,,,,,,,,"[0.7018,0.7176,0.6155999999999999]",twoone,"[-0.6235999999999999,-0.6786,-0.08239999999999992]",-3,2.484,-75,33,1,0,0,response7disk_5,-1,-10,1,0,0,rectangle_8,70,-121,1,0,0,1,-5,2,1,0,0,5,0,5,0,1,response3disk_7,4,rectangle_4,,,,,,,,,,,,,,,,,,,,,,,,,,,,,,,,,,,,,,,,,,,,,,,,,,,,,,,,,,,,,,,,,,,,,,,,,,,,,,,,,,,,,,,,,,,,,,,,,,,,,,,,,,,,
,,,,,,5bfe92adaa5fa30001369e01,62c53a91b3254ef8c6ba96a7,2022-07-06_09h32.52.229,Colour_Asymmetry_Pilot,2022.1.3,Win32,59.90176111,62c50e9c1127f2cd403a315f,,,,,,,,,,,,,,,,,,,"[0.9686000000000001,0.3802000000000001,0.19999999999999996]",twofour,"[0.9372,0.20779999999999998,0.2704]",4,2.7745,65,101,1,0,0,response1disk_5,2,-3,1,0,0,rectangle_8,2,-3,1,0,0,1,2,-3,1,0,0,6,0,6,0,1,,,,,,,,,,,,,,,,,,,,,,,,,,,,,,,,,,,,,,,,,,,,,,,,,,,,,,,,,,,,,,,,,,,,,,,,,,,,,,,,,,,,,,,,,,,,,,,,,,,,,,,,,,,,,,,
,,,,,,5bfe92adaa5fa30001369e01,62c53a91b3254ef8c6ba96a7,2022-07-06_09h32.52.229,Colour_Asymmetry_Pilot,2022.1.3,Win32,59.90176111,62c50e9c1127f2cd403a315f,,,,,,,,,,,,,,,,,,,,fourtwo,,-3,9.6807,,,,,,,,,,,,,,,,,,,,,,,,,,,,,,,,space,4.5452,"[-0.0040000000000000036,0.02739999999999987,-0.08239999999999992]","[-0.4746,-0.0354000000000001,0.5449999999999999]",-100,50,1,0,0,response7disk,1,-1,1,0,0,rectangle,1,-1,1,0,0,,2,0.0019,0,1,-1,1,0,0,0,0,0,77,1,77,first,,,,,,,,,,,,,,,,,,,,,,,,,,,,,,,,,,,,,,,,,,,,,,,,,,,,,,,,,,,,,,,,,,,,,,,
,,,,,,5bfe92adaa5fa30001369e01,62c53a91b3254ef8c6ba96a7,2022-07-06_09h32.52.229,Colour_Asymmetry_Pilot,2022.1.3,Win32,59.90176111,62c50e9c1127f2cd403a315f,,,,,,,,,,,,,,,,,,,,fourtwo,,1,1.115,,,,,,,,,,,,,,,,,,,,,,,,,,,,,,,,,,"[-0.5688,-0.08239999999999992,-0.1844]","[0.05879999999999996,0.2784,0.5841999999999998]",49,-102,1,0,0,response3disk,-8,-3,1,0,0,rectangle,-8,-3,1,0,0,,1,0.0013,0,-8,-3,1,0,0,0,1,1,157,1,76,second,,,,,,,,,,,,,,,,,,,,,,,,,,,,,,,,,,,,,,,,,,,,,,,,,,,,,,,,,,,,,,,,,,,,,,,
,,,,,,5bfe92adaa5fa30001369e01,62c53a91b3254ef8c6ba96a7,2022-07-06_09h32.52.229,Colour_Asymmetry_Pilot,2022.1.3,Win32,59.90176111,62c50e9c1127f2cd403a315f,,,,,,,,,,,,,,,,,,,,threeone,,2,2.965,,,,,,,,,,,,,,,,,,,,,,,,,,,,,,,,,,"[0.05879999999999996,0.2784,0.5841999999999998]","[-0.5688,-0.08239999999999992,-0.1844]",108,-50,1,0,0,response3disk,1,1,1,0,0,rectangle,110,47,1,0,0,3,3,3.6666,1,20,6,1,0,0,0,2,2,76,1,76,first,response1disk_3,rectangle,,,,,,,,,,,,,,,,,,,,,,,,,,,,,,,,,,,,,,,,,,,,,,,,,,,,,,,,,,,,,,,,,,,,,
,,,,,,5bfe92adaa5fa30001369e01,62c53a91b3254ef8c6ba96a7,2022-07-06_09h32.52.229,Colour_Asymmetry_Pilot,2022.1.3,Win32,59.90176111,62c50e9c1127f2cd403a315f,,,,,,,,,,,,,,,,,,,,fourthree,,-3,0.8668,,,,,,,,,,,,,,,,,,,,,,,,,,,,,,,,,,"[0.9213999999999998,0.6391999999999998,-0.9922]","[-0.48240000000000005,0.3175999999999999,0.2156]",-77,32,1,0,0,response7disk,-28,7,1,0,0,rectangle,-28,7,1,0,0,3,3,0.0004,0,-28,7,1,0,0,0,3,3,20,1,20,first,,,,,,,,,,,,,,,,,,,,,,,,,,,,,,,,,,,,,,,,,,,,,,,,,,,,,,,,,,,,,,,,,,,,,,,
,,,,,,5bfe92adaa5fa30001369e01,62c53a91b3254ef8c6ba96a7,2022-07-06_09h32.52.229,Colour_Asymmetry_Pilot,2022.1.3,Win32,59.90176111,62c50e9c1127f2cd403a315f,,,,,,,,,,,,,,,,,,,,twoone,,-3,2.3997,,,,,,,,,,,,,,,,,,,,,,,,,,,,,,,,,,"[0.5528,0.7409999999999999,-0.71]","[0.23920000000000008,0.2704,0.16060000000000008]",-87,55,1,0,0,response7disk,2,-7,1,0,0,rectangle,2,-7,1,0,0,3,2,0.0051,0,2,-7,1,0,0,0,4,4,127,1,46,second,,,,,,,,,,,,,,,,,,,,,,,,,,,,,,,,,,,,,,,,,,,,,,,,,,,,,,,,,,,,,,,,,,,,,,,
,,,,,,5bfe92adaa5fa30001369e01,62c53a91b3254ef8c6ba96a7,2022-07-06_09h32.52.229,Colour_Asymmetry_Pilot,2022.1.3,Win32,59.90176111,62c50e9c1127f2cd403a315f,,,,,,,,,,,,,,,,,,,,onethree,,-3,1.2187,,,,,,,,,,,,,,,,,,,,,,,,,,,,,,,,,,"[0.4196,0.4665999999999999,0.3568]","[0.7018,0.7802,-0.16079999999999994]",-120,73,1,0,0,response7disk,21,-11,1,0,0,rectangle,52,-91,1,0,0,1,1,1.7322,1,-7,13,1,0,0,0,5,5,159,1,78,second,response3disk_3,rectangle,,,,,,,,,,,,,,,,,,,,,,,,,,,,,,,,,,,,,,,,,,,,,,,,,,,,,,,,,,,,,,,,,,,,,
,,,,,,5bfe92adaa5fa30001369e01,62c53a91b3254ef8c6ba96a7,2022-07-06_09h32.52.229,Colour_Asymmetry_Pilot,2022.1.3,Win32,59.90176111,62c50e9c1127f2cd403a315f,,,,,,,,,,,,,,,,,,,,fourtwo,,-1,3.1506,,,,,,,,,,,,,,,,,,,,,,,,,,,,,,,,,,"[0.09799999999999986,-0.24719999999999998,0.15280000000000005]","[0.22340000000000004,-0.9296,-0.7884]",-36,-92,1,0,0,response5disk,-3,-1,1,0,0,rectangle,-3,-1,1,0,0,1,1,0.0004,0,-3,-1,1,0,0,0,6,6,13,1,13,first,,,,,,,,,,,,,,,,,,,,,,,,,,,,,,,,,,,,,,,,,,,,,,,,,,,,,,,,,,,,,,,,,,,,,,,
,,,,,,5bfe92adaa5fa30001369e01,62c53a91b3254ef8c6ba96a7,2022-07-06_09h32.52.229,Colour_Asymmetry_Pilot,2022.1.3,Win32,59.90176111,62c50e9c1127f2cd403a315f,,,,,,,,,,,,,,,,,,,,onethree,,3,1.2666,,,,,,,,,,,,,,,,,,,,,,,,,,,,,,,,,,"[-0.10599999999999998,-0.10599999999999998,0.5841999999999998]","[-0.24719999999999998,-0.0354000000000001,0.3175999999999999]",83,34,1,0,0,response1disk,6,5,1,0,0,rectangle,6,5,1,0,0,1,2,0.0051,0,6,5,1,0,0,0,7,7,21,1,21,first,,,,,,,,,,,,,,,,,,,,,,,,,,,,,,,,,,,,,,,,,,,,,,,,,,,,,,,,,,,,,,,,,,,,,,,
,,,,,,5bfe92adaa5fa30001369e01,62c53a91b3254ef8c6ba96a7,2022-07-06_09h32.52.229,Colour_Asymmetry_Pilot,2022.1.3,Win32,59.90176111,62c50e9c1127f2cd403a315f,,,,,,,,,,,,,,,,,,,,onethree,,2,1.3666,,,,,,,,,,,,,,,,,,,,,,,,,,,,,,,,,,"[0.9763999999999999,0.8588,-0.05900000000000005]","[0.9686000000000001,0.3802000000000001,0.19999999999999996]",106,-54,1,0,0,response3disk,2,-13,1,0,0,rectangle,2,-13,1,0,0,1,3,0.0023,0,2,-13,1,0,0,0,8,8,154,1,73,second,,,,,,,,,,,,,,,,,,,,,,,,,,,,,,,,,,,,,,,,,,,,,,,,,,,,,,,,,,,,,,,,,,,,,,,
,,,,,,5bfe92adaa5fa30001369e01,62c53a91b3254ef8c6ba96a7,2022-07-06_09h32.52.229,Colour_Asymmetry_Pilot,2022.1.3,Win32,59.90176111,62c50e9c1127f2cd403a315f,,,,,,,,,,,,,,,,,,,,fourtwo,,-2,6.7746,,,,,,,,,,,,,,,,,,,,,,,,,,,,,,,,,,"[0.05879999999999996,0.2784,0.5841999999999998]","[0.40379999999999994,0.09000000000000008,0.44300000000000006]",-137,-66,1,0,0,response5disk,5,2,1,0,0,rectangle,5,2,1,0,0,1,2,0.001,0,5,2,1,0,0,0,9,9,15,1,15,first,,,,,,,,,,,,,,,,,,,,,,,,,,,,,,,,,,,,,,,,,,,,,,,,,,,,,,,,,,,,,,,,,,,,,,,
,,,,,,5bfe92adaa5fa30001369e01,62c53a91b3254ef8c6ba96a7,2022-07-06_09h32.52.229,Colour_Asymmetry_Pilot,2022.1.3,Win32,59.90176111,62c50e9c1127f2cd403a315f,,,,,,,,,,,,,,,,,,,,threefour,,3,1.5063,,,,,,,,,,,,,,,,,,,,,,,,,,,,,,,,,,"[-0.9766,-0.6472,0.07440000000000002]","[-0.8118,-0.8198,-0.5452]",112,51,1,0,0,response1disk,11,2,1,0,0,rectangle,11,2,1,0,0,1,3,0.0011,0,11,2,1,0,0,0,10,10,107,1,26,second,,,,,,,,,,,,,,,,,,,,,,,,,,,,,,,,,,,,,,,,,,,,,,,,,,,,,,,,,,,,,,,,,,,,,,,
,,,,,,5bfe92adaa5fa30001369e01,62c53a91b3254ef8c6ba96a7,2022-07-06_09h32.52.229,Colour_Asymmetry_Pilot,2022.1.3,Win32,59.90176111,62c50e9c1127f2cd403a315f,,,,,,,,,,,,,,,,,,,,onethree,,-2,1.3491,,,,,,,,,,,,,,,,,,,,,,,,,,,,,,,,,,"[0.37240000000000006,0.4980000000000002,-0.2864]","[-0.5452,-0.608,0.2470000000000001]",-114,-22,1,0,0,response5disk,5,3,1,0,0,rectangle,5,3,1,0,0,1,1,0.0007,0,5,3,1,0,0,0,11,11,19,1,19,first,,,,,,,,,,,,,,,,,,,,,,,,,,,,,,,,,,,,,,,,,,,,,,,,,,,,,,,,,,,,,,,,,,,,,,,
,,,,,,5bfe92adaa5fa30001369e01,62c53a91b3254ef8c6ba96a7,2022-07-06_09h32.52.229,Colour_Asymmetry_Pilot,2022.1.3,Win32,59.90176111,62c50e9c1127f2cd403a315f,,,,,,,,,,,,,,,,,,,,threefour,,-2,1.225,,,,,,,,,,,,,,,,,,,,,,,,,,,,,,,,,,"[0.5449999999999999,-0.31000000000000005,-0.0354000000000001]","[-0.5688,-0.08239999999999992,-0.1844]",-119,-33,1,0,0,response5disk,-8,0,1,0,0,rectangle,-8,0,1,0,0,1,2,0.0012,0,-8,0,1,0,0,0,12,12,67,1,67,first,,,,,,,,,,,,,,,,,,,,,,,,,,,,,,,,,,,,,,,,,,,,,,,,,,,,,,,,,,,,,,,,,,,,,,,
,,,,,,5bfe92adaa5fa30001369e01,62c53a91b3254ef8c6ba96a7,2022-07-06_09h32.52.229,Colour_Asymmetry_Pilot,2022.1.3,Win32,59.90176111,62c50e9c1127f2cd403a315f,,,,,,,,,,,,,,,,,,,,fourthree,,-3,3.1157,,,,,,,,,,,,,,,,,,,,,,,,,,,,,,,,,,"[-0.9216,-0.5529999999999999,-0.3962]","[0.37240000000000006,-0.050999999999999934,-0.5216]",-124,49,1,0,0,response7disk,-11,-1,1,0,0,rectangle,-11,-1,1,0,0,1,2,0.0002,0,-11,-1,1,0,0,0,13,13,128,1,47,second,,,,,,,,,,,,,,,,,,,,,,,,,,,,,,,,,,,,,,,,,,,,,,,,,,,,,,,,,,,,,,,,,,,,,,,
,,,,,,5bfe92adaa5fa30001369e01,62c53a91b3254ef8c6ba96a7,2022-07-06_09h32.52.229,Colour_Asymmetry_Pilot,2022.1.3,Win32,59.90176111,62c50e9c1127f2cd403a315f,,,,,,,,,,,,,,,,,,,,onetwo,,-3,1.6583,,,,,,,,,,,,,,,,,,,,,,,,,,,,,,,,,,"[-0.38039999999999996,-0.4276,-0.1452]","[0.9372,0.20779999999999998,0.2704]",-107,42,1,0,0,response7disk,-1,-8,1,0,0,rectangle,-1,-8,1,0,0,1,2,0.0001,0,-1,-8,1,0,0,0,14,14,116,1,35,second,,,,,,,,,,,,,,,,,,,,,,,,,,,,,,,,,,,,,,,,,,,,,,,,,,,,,,,,,,,,,,,,,,,,,,,
,,,,,,5bfe92adaa5fa30001369e01,62c53a91b3254ef8c6ba96a7,2022-07-06_09h32.52.229,Colour_Asymmetry_Pilot,2022.1.3,Win32,59.90176111,62c50e9c1127f2cd403a315f,,,,,,,,,,,,,,,,,,,,twoone,,2,1.1081,,,,,,,,,,,,,,,,,,,,,,,,,,,,,,,,,,"[0.2862,0.7802,0.3568]","[-0.4902000000000001,0.2704,-0.45899999999999996]",110,-52,1,0,0,response3disk,-11,9,1,0,0,rectangle,-11,9,1,0,0,1,3,0.001,0,-11,9,1,0,0,0,15,15,64,1,64,first,,,,,,,,,,,,,,,,,,,,,,,,,,,,,,,,,,,,,,,,,,,,,,,,,,,,,,,,,,,,,,,,,,,,,,,
,,,,,,5bfe92adaa5fa30001369e01,62c53a91b3254ef8c6ba96a7,2022-07-06_09h32.52.229,Colour_Asymmetry_Pilot,2022.1.3,Win32,59.90176111,62c50e9c1127f2cd403a315f,,,,,,,,,,,,,,,,,,,,twoone,,-1,3.3571,,,,,,,,,,,,,,,,,,,,,,,,,,,,,,,,,,"[-0.0040000000000000036,0.02739999999999987,-0.08239999999999992]","[0.7176,-0.906,-0.6864]",-52,-94,1,0,0,response5disk,3,14,1,0,0,rectangle,3,14,1,0,0,1,2,0.0006,0,3,14,1,0,0,0,16,16,114,1,33,second,,,,,,,,,,,,,,,,,,,,,,,,,,,,,,,,,,,,,,,,,,,,,,,,,,,,,,,,,,,,,,,,,,,,,,,
,,,,,,5bfe92adaa5fa30001369e01,62c53a91b3254ef8c6ba96a7,2022-07-06_09h32.52.229,Colour_Asymmetry_Pilot,2022.1.3,Win32,59.90176111,62c50e9c1127f2cd403a315f,,,,,,,,,,,,,,,,,,,,threeone,,-2,0.683,,,,,,,,,,,,,,,,,,,,,,,,,,,,,,,,,,"[0.2784,-0.31000000000000005,-0.5452]","[-0.09019999999999995,0.44300000000000006,0.5371999999999999]",-103,-43,1,0,0,response5disk,3,11,1,0,0,rectangle,3,11,1,0,0,1,1,0.0007,0,3,11,1,0,0,0,17,17,106,1,25,second,,,,,,,,,,,,,,,,,,,,,,,,,,,,,,,,,,,,,,,,,,,,,,,,,,,,,,,,,,,,,,,,,,,,,,,
