trials.thisRepN,trials.thisTrialN,trials.thisN,trials.thisIndex,trials.ran,Colourcodes,participant,session,date,expName,psychopyVersion,OS,frameRate,study_id,trials_4.thisRepN,trials_4.thisTrialN,trials_4.thisN,trials_4.thisIndex,trials_4.ran,StimulusPos,key_resp.keys,key_resp.rt,key_resp_2.keys,key_resp_2.rt,key_resp_15.keys,key_resp_15.rt,key_resp_17.keys,key_resp_17.rt,key_resp_9.keys,key_resp_9.rt,key_resp_10.keys,key_resp_10.rt,Circle1_col,Ecc,Circle2_col,similarity,response_time,mouse_5.x,mouse_5.y,mouse_5.leftButton,mouse_5.midButton,mouse_5.rightButton,mouse_5.clicked_name,mouse_10.x,mouse_10.y,mouse_10.leftButton,mouse_10.midButton,mouse_10.rightButton,mouse_10.clicked_name,mouse_7.x,mouse_7.y,mouse_7.leftButton,mouse_7.midButton,mouse_7.rightButton,catchnumberprac,mouse_6.x,mouse_6.y,mouse_6.leftButton,mouse_6.midButton,mouse_6.rightButton,duringprac.thisRepN,duringprac.thisTrialN,duringprac.thisN,duringprac.thisIndex,duringprac.ran,mouse_7.clicked_name,catchprac,mouse_6.clicked_name,key_resp_22.keys,key_resp_22.rt,Circle1_colour,Circle2_colour,mouse.x,mouse.y,mouse.leftButton,mouse.midButton,mouse.rightButton,mouse.clicked_name,mouse_2.x,mouse_2.y,mouse_2.leftButton,mouse_2.midButton,mouse_2.rightButton,mouse_2.clicked_name,mouse_3.x,mouse_3.y,mouse_3.leftButton,mouse_3.midButton,mouse_3.rightButton,catchresponse,catchnumber,response_time_catch,Catch,mouse_11.x,mouse_11.y,mouse_11.leftButton,mouse_11.midButton,mouse_11.rightButton,trials_2.thisRepN,trials_2.thisTrialN,trials_2.thisN,trials_2.thisIndex,trials_2.ran,Colourpair,Temporder,mouse_3.clicked_name,mouse_11.clicked_name,trials_3.thisRepN,trials_3.thisTrialN,trials_3.thisN,trials_3.thisIndex,trials_3.ran,key_resp_instr_Ishi.keys,key_resp_instr_Ishi.rt,Ishi_trial_keyresp.keys,Ishi_textbox.text,Ishi_mouse.x,Ishi_mouse.y,Ishi_mouse.leftButton,Ishi_mouse.midButton,Ishi_mouse.rightButton,Ishi_mouse.clicked_name,Ishi_loop.thisRepN,Ishi_loop.thisTrialN,Ishi_loop.thisN,Ishi_loop.thisIndex,Ishi_loop.ran,imageaddress,textbox.text,mouse_4.x,mouse_4.y,mouse_4.leftButton,mouse_4.midButton,mouse_4.rightButton,mouse_4.clicked_name,textbox_2.text,mouse_8.x,mouse_8.y,mouse_8.leftButton,mouse_8.midButton,mouse_8.rightButton,mouse_8.clicked_name,textbox_3.text,mouse_9.x,mouse_9.y,mouse_9.leftButton,mouse_9.midButton,mouse_9.rightButton,mouse_9.clicked_name,textbox_4.text,mouse_12.x,mouse_12.y,mouse_12.leftButton,mouse_12.midButton,mouse_12.rightButton,mouse_12.clicked_name,textbox_5.text,mouse_13.x,mouse_13.y,mouse_13.leftButton,mouse_13.midButton,mouse_13.rightButton,mouse_13.clicked_name,textbox_6.text,mouse_14.x,mouse_14.y,mouse_14.leftButton,mouse_14.midButton,mouse_14.rightButton,mouse_14.clicked_name,textbox_7.text,mouse_15.x,mouse_15.y,mouse_15.leftButton,mouse_15.midButton,mouse_15.rightButton,mouse_15.clicked_name
0,0,0,15,1,,60eb274540d8358b70fdbb1d,62c538bf54f3a38dea76a902,2022-07-06_09h34.23.132,Colour_Asymmetry_Pilot,2022.1.3,Win32,57.43495491,62c50e9c1127f2cd403a315f,,,,,,,,,,,,,,,,,,,,,,,,,,,,,,,,,,,,,,,,,,,,,,,,,,,,,,,,,,,,,,,,,,,,,,,,,,,,,,,,,,,,,,,,,,,,,,,,,,,,,,,,,,,,,,,,,,,,,,,,,,,,,,,,,,,,,,,,,,,,,,,,,,,,,,,,,,,,,,,,,,,
0,1,1,49,1,,60eb274540d8358b70fdbb1d,62c538bf54f3a38dea76a902,2022-07-06_09h34.23.132,Colour_Asymmetry_Pilot,2022.1.3,Win32,57.43495491,62c50e9c1127f2cd403a315f,,,,,,,,,,,,,,,,,,,,,,,,,,,,,,,,,,,,,,,,,,,,,,,,,,,,,,,,,,,,,,,,,,,,,,,,,,,,,,,,,,,,,,,,,,,,,,,,,,,,,,,,,,,,,,,,,,,,,,,,,,,,,,,,,,,,,,,,,,,,,,,,,,,,,,,,,,,,,,,,,,,
0,2,2,38,1,,60eb274540d8358b70fdbb1d,62c538bf54f3a38dea76a902,2022-07-06_09h34.23.132,Colour_Asymmetry_Pilot,2022.1.3,Win32,57.43495491,62c50e9c1127f2cd403a315f,,,,,,,,,,,,,,,,,,,,,,,,,,,,,,,,,,,,,,,,,,,,,,,,,,,,,,,,,,,,,,,,,,,,,,,,,,,,,,,,,,,,,,,,,,,,,,,,,,,,,,,,,,,,,,,,,,,,,,,,,,,,,,,,,,,,,,,,,,,,,,,,,,,,,,,,,,,,,,,,,,,
0,3,3,84,1,,60eb274540d8358b70fdbb1d,62c538bf54f3a38dea76a902,2022-07-06_09h34.23.132,Colour_Asymmetry_Pilot,2022.1.3,Win32,57.43495491,62c50e9c1127f2cd403a315f,,,,,,,,,,,,,,,,,,,,,,,,,,,,,,,,,,,,,,,,,,,,,,,,,,,,,,,,,,,,,,,,,,,,,,,,,,,,,,,,,,,,,,,,,,,,,,,,,,,,,,,,,,,,,,,,,,,,,,,,,,,,,,,,,,,,,,,,,,,,,,,,,,,,,,,,,,,,,,,,,,,
0,4,4,56,1,,60eb274540d8358b70fdbb1d,62c538bf54f3a38dea76a902,2022-07-06_09h34.23.132,Colour_Asymmetry_Pilot,2022.1.3,Win32,57.43495491,62c50e9c1127f2cd403a315f,,,,,,,,,,,,,,,,,,,,,,,,,,,,,,,,,,,,,,,,,,,,,,,,,,,,,,,,,,,,,,,,,,,,,,,,,,,,,,,,,,,,,,,,,,,,,,,,,,,,,,,,,,,,,,,,,,,,,,,,,,,,,,,,,,,,,,,,,,,,,,,,,,,,,,,,,,,,,,,,,,,
0,5,5,16,1,,60eb274540d8358b70fdbb1d,62c538bf54f3a38dea76a902,2022-07-06_09h34.23.132,Colour_Asymmetry_Pilot,2022.1.3,Win32,57.43495491,62c50e9c1127f2cd403a315f,,,,,,,,,,,,,,,,,,,,,,,,,,,,,,,,,,,,,,,,,,,,,,,,,,,,,,,,,,,,,,,,,,,,,,,,,,,,,,,,,,,,,,,,,,,,,,,,,,,,,,,,,,,,,,,,,,,,,,,,,,,,,,,,,,,,,,,,,,,,,,,,,,,,,,,,,,,,,,,,,,,
0,6,6,80,1,,60eb274540d8358b70fdbb1d,62c538bf54f3a38dea76a902,2022-07-06_09h34.23.132,Colour_Asymmetry_Pilot,2022.1.3,Win32,57.43495491,62c50e9c1127f2cd403a315f,,,,,,,,,,,,,,,,,,,,,,,,,,,,,,,,,,,,,,,,,,,,,,,,,,,,,,,,,,,,,,,,,,,,,,,,,,,,,,,,,,,,,,,,,,,,,,,,,,,,,,,,,,,,,,,,,,,,,,,,,,,,,,,,,,,,,,,,,,,,,,,,,,,,,,,,,,,,,,,,,,,
0,7,7,28,1,,60eb274540d8358b70fdbb1d,62c538bf54f3a38dea76a902,2022-07-06_09h34.23.132,Colour_Asymmetry_Pilot,2022.1.3,Win32,57.43495491,62c50e9c1127f2cd403a315f,,,,,,,,,,,,,,,,,,,,,,,,,,,,,,,,,,,,,,,,,,,,,,,,,,,,,,,,,,,,,,,,,,,,,,,,,,,,,,,,,,,,,,,,,,,,,,,,,,,,,,,,,,,,,,,,,,,,,,,,,,,,,,,,,,,,,,,,,,,,,,,,,,,,,,,,,,,,,,,,,,,
0,8,8,68,1,,60eb274540d8358b70fdbb1d,62c538bf54f3a38dea76a902,2022-07-06_09h34.23.132,Colour_Asymmetry_Pilot,2022.1.3,Win32,57.43495491,62c50e9c1127f2cd403a315f,,,,,,,,,,,,,,,,,,,,,,,,,,,,,,,,,,,,,,,,,,,,,,,,,,,,,,,,,,,,,,,,,,,,,,,,,,,,,,,,,,,,,,,,,,,,,,,,,,,,,,,,,,,,,,,,,,,,,,,,,,,,,,,,,,,,,,,,,,,,,,,,,,,,,,,,,,,,,,,,,,,
0,9,9,83,1,,60eb274540d8358b70fdbb1d,62c538bf54f3a38dea76a902,2022-07-06_09h34.23.132,Colour_Asymmetry_Pilot,2022.1.3,Win32,57.43495491,62c50e9c1127f2cd403a315f,,,,,,,,,,,,,,,,,,,,,,,,,,,,,,,,,,,,,,,,,,,,,,,,,,,,,,,,,,,,,,,,,,,,,,,,,,,,,,,,,,,,,,,,,,,,,,,,,,,,,,,,,,,,,,,,,,,,,,,,,,,,,,,,,,,,,,,,,,,,,,,,,,,,,,,,,,,,,,,,,,,
0,10,10,76,1,,60eb274540d8358b70fdbb1d,62c538bf54f3a38dea76a902,2022-07-06_09h34.23.132,Colour_Asymmetry_Pilot,2022.1.3,Win32,57.43495491,62c50e9c1127f2cd403a315f,,,,,,,,,,,,,,,,,,,,,,,,,,,,,,,,,,,,,,,,,,,,,,,,,,,,,,,,,,,,,,,,,,,,,,,,,,,,,,,,,,,,,,,,,,,,,,,,,,,,,,,,,,,,,,,,,,,,,,,,,,,,,,,,,,,,,,,,,,,,,,,,,,,,,,,,,,,,,,,,,,,
0,11,11,19,1,,60eb274540d8358b70fdbb1d,62c538bf54f3a38dea76a902,2022-07-06_09h34.23.132,Colour_Asymmetry_Pilot,2022.1.3,Win32,57.43495491,62c50e9c1127f2cd403a315f,,,,,,,,,,,,,,,,,,,,,,,,,,,,,,,,,,,,,,,,,,,,,,,,,,,,,,,,,,,,,,,,,,,,,,,,,,,,,,,,,,,,,,,,,,,,,,,,,,,,,,,,,,,,,,,,,,,,,,,,,,,,,,,,,,,,,,,,,,,,,,,,,,,,,,,,,,,,,,,,,,,
0,12,12,87,1,,60eb274540d8358b70fdbb1d,62c538bf54f3a38dea76a902,2022-07-06_09h34.23.132,Colour_Asymmetry_Pilot,2022.1.3,Win32,57.43495491,62c50e9c1127f2cd403a315f,,,,,,,,,,,,,,,,,,,,,,,,,,,,,,,,,,,,,,,,,,,,,,,,,,,,,,,,,,,,,,,,,,,,,,,,,,,,,,,,,,,,,,,,,,,,,,,,,,,,,,,,,,,,,,,,,,,,,,,,,,,,,,,,,,,,,,,,,,,,,,,,,,,,,,,,,,,,,,,,,,,
0,13,13,63,1,,60eb274540d8358b70fdbb1d,62c538bf54f3a38dea76a902,2022-07-06_09h34.23.132,Colour_Asymmetry_Pilot,2022.1.3,Win32,57.43495491,62c50e9c1127f2cd403a315f,,,,,,,,,,,,,,,,,,,,,,,,,,,,,,,,,,,,,,,,,,,,,,,,,,,,,,,,,,,,,,,,,,,,,,,,,,,,,,,,,,,,,,,,,,,,,,,,,,,,,,,,,,,,,,,,,,,,,,,,,,,,,,,,,,,,,,,,,,,,,,,,,,,,,,,,,,,,,,,,,,,
0,14,14,27,1,,60eb274540d8358b70fdbb1d,62c538bf54f3a38dea76a902,2022-07-06_09h34.23.132,Colour_Asymmetry_Pilot,2022.1.3,Win32,57.43495491,62c50e9c1127f2cd403a315f,,,,,,,,,,,,,,,,,,,,,,,,,,,,,,,,,,,,,,,,,,,,,,,,,,,,,,,,,,,,,,,,,,,,,,,,,,,,,,,,,,,,,,,,,,,,,,,,,,,,,,,,,,,,,,,,,,,,,,,,,,,,,,,,,,,,,,,,,,,,,,,,,,,,,,,,,,,,,,,,,,,
0,15,15,90,1,,60eb274540d8358b70fdbb1d,62c538bf54f3a38dea76a902,2022-07-06_09h34.23.132,Colour_Asymmetry_Pilot,2022.1.3,Win32,57.43495491,62c50e9c1127f2cd403a315f,,,,,,,,,,,,,,,,,,,,,,,,,,,,,,,,,,,,,,,,,,,,,,,,,,,,,,,,,,,,,,,,,,,,,,,,,,,,,,,,,,,,,,,,,,,,,,,,,,,,,,,,,,,,,,,,,,,,,,,,,,,,,,,,,,,,,,,,,,,,,,,,,,,,,,,,,,,,,,,,,,,
0,16,16,59,1,,60eb274540d8358b70fdbb1d,62c538bf54f3a38dea76a902,2022-07-06_09h34.23.132,Colour_Asymmetry_Pilot,2022.1.3,Win32,57.43495491,62c50e9c1127f2cd403a315f,,,,,,,,,,,,,,,,,,,,,,,,,,,,,,,,,,,,,,,,,,,,,,,,,,,,,,,,,,,,,,,,,,,,,,,,,,,,,,,,,,,,,,,,,,,,,,,,,,,,,,,,,,,,,,,,,,,,,,,,,,,,,,,,,,,,,,,,,,,,,,,,,,,,,,,,,,,,,,,,,,,
0,17,17,89,1,,60eb274540d8358b70fdbb1d,62c538bf54f3a38dea76a902,2022-07-06_09h34.23.132,Colour_Asymmetry_Pilot,2022.1.3,Win32,57.43495491,62c50e9c1127f2cd403a315f,,,,,,,,,,,,,,,,,,,,,,,,,,,,,,,,,,,,,,,,,,,,,,,,,,,,,,,,,,,,,,,,,,,,,,,,,,,,,,,,,,,,,,,,,,,,,,,,,,,,,,,,,,,,,,,,,,,,,,,,,,,,,,,,,,,,,,,,,,,,,,,,,,,,,,,,,,,,,,,,,,,
0,18,18,58,1,,60eb274540d8358b70fdbb1d,62c538bf54f3a38dea76a902,2022-07-06_09h34.23.132,Colour_Asymmetry_Pilot,2022.1.3,Win32,57.43495491,62c50e9c1127f2cd403a315f,,,,,,,,,,,,,,,,,,,,,,,,,,,,,,,,,,,,,,,,,,,,,,,,,,,,,,,,,,,,,,,,,,,,,,,,,,,,,,,,,,,,,,,,,,,,,,,,,,,,,,,,,,,,,,,,,,,,,,,,,,,,,,,,,,,,,,,,,,,,,,,,,,,,,,,,,,,,,,,,,,,
0,19,19,65,1,,60eb274540d8358b70fdbb1d,62c538bf54f3a38dea76a902,2022-07-06_09h34.23.132,Colour_Asymmetry_Pilot,2022.1.3,Win32,57.43495491,62c50e9c1127f2cd403a315f,,,,,,,,,,,,,,,,,,,,,,,,,,,,,,,,,,,,,,,,,,,,,,,,,,,,,,,,,,,,,,,,,,,,,,,,,,,,,,,,,,,,,,,,,,,,,,,,,,,,,,,,,,,,,,,,,,,,,,,,,,,,,,,,,,,,,,,,,,,,,,,,,,,,,,,,,,,,,,,,,,,
0,20,20,73,1,,60eb274540d8358b70fdbb1d,62c538bf54f3a38dea76a902,2022-07-06_09h34.23.132,Colour_Asymmetry_Pilot,2022.1.3,Win32,57.43495491,62c50e9c1127f2cd403a315f,,,,,,,,,,,,,,,,,,,,,,,,,,,,,,,,,,,,,,,,,,,,,,,,,,,,,,,,,,,,,,,,,,,,,,,,,,,,,,,,,,,,,,,,,,,,,,,,,,,,,,,,,,,,,,,,,,,,,,,,,,,,,,,,,,,,,,,,,,,,,,,,,,,,,,,,,,,,,,,,,,,
0,21,21,11,1,,60eb274540d8358b70fdbb1d,62c538bf54f3a38dea76a902,2022-07-06_09h34.23.132,Colour_Asymmetry_Pilot,2022.1.3,Win32,57.43495491,62c50e9c1127f2cd403a315f,,,,,,,,,,,,,,,,,,,,,,,,,,,,,,,,,,,,,,,,,,,,,,,,,,,,,,,,,,,,,,,,,,,,,,,,,,,,,,,,,,,,,,,,,,,,,,,,,,,,,,,,,,,,,,,,,,,,,,,,,,,,,,,,,,,,,,,,,,,,,,,,,,,,,,,,,,,,,,,,,,,
0,22,22,86,1,,60eb274540d8358b70fdbb1d,62c538bf54f3a38dea76a902,2022-07-06_09h34.23.132,Colour_Asymmetry_Pilot,2022.1.3,Win32,57.43495491,62c50e9c1127f2cd403a315f,,,,,,,,,,,,,,,,,,,,,,,,,,,,,,,,,,,,,,,,,,,,,,,,,,,,,,,,,,,,,,,,,,,,,,,,,,,,,,,,,,,,,,,,,,,,,,,,,,,,,,,,,,,,,,,,,,,,,,,,,,,,,,,,,,,,,,,,,,,,,,,,,,,,,,,,,,,,,,,,,,,
0,23,23,46,1,,60eb274540d8358b70fdbb1d,62c538bf54f3a38dea76a902,2022-07-06_09h34.23.132,Colour_Asymmetry_Pilot,2022.1.3,Win32,57.43495491,62c50e9c1127f2cd403a315f,,,,,,,,,,,,,,,,,,,,,,,,,,,,,,,,,,,,,,,,,,,,,,,,,,,,,,,,,,,,,,,,,,,,,,,,,,,,,,,,,,,,,,,,,,,,,,,,,,,,,,,,,,,,,,,,,,,,,,,,,,,,,,,,,,,,,,,,,,,,,,,,,,,,,,,,,,,,,,,,,,,
0,24,24,10,1,,60eb274540d8358b70fdbb1d,62c538bf54f3a38dea76a902,2022-07-06_09h34.23.132,Colour_Asymmetry_Pilot,2022.1.3,Win32,57.43495491,62c50e9c1127f2cd403a315f,,,,,,,,,,,,,,,,,,,,,,,,,,,,,,,,,,,,,,,,,,,,,,,,,,,,,,,,,,,,,,,,,,,,,,,,,,,,,,,,,,,,,,,,,,,,,,,,,,,,,,,,,,,,,,,,,,,,,,,,,,,,,,,,,,,,,,,,,,,,,,,,,,,,,,,,,,,,,,,,,,,
0,25,25,61,1,,60eb274540d8358b70fdbb1d,62c538bf54f3a38dea76a902,2022-07-06_09h34.23.132,Colour_Asymmetry_Pilot,2022.1.3,Win32,57.43495491,62c50e9c1127f2cd403a315f,,,,,,,,,,,,,,,,,,,,,,,,,,,,,,,,,,,,,,,,,,,,,,,,,,,,,,,,,,,,,,,,,,,,,,,,,,,,,,,,,,,,,,,,,,,,,,,,,,,,,,,,,,,,,,,,,,,,,,,,,,,,,,,,,,,,,,,,,,,,,,,,,,,,,,,,,,,,,,,,,,,
0,26,26,5,1,,60eb274540d8358b70fdbb1d,62c538bf54f3a38dea76a902,2022-07-06_09h34.23.132,Colour_Asymmetry_Pilot,2022.1.3,Win32,57.43495491,62c50e9c1127f2cd403a315f,,,,,,,,,,,,,,,,,,,,,,,,,,,,,,,,,,,,,,,,,,,,,,,,,,,,,,,,,,,,,,,,,,,,,,,,,,,,,,,,,,,,,,,,,,,,,,,,,,,,,,,,,,,,,,,,,,,,,,,,,,,,,,,,,,,,,,,,,,,,,,,,,,,,,,,,,,,,,,,,,,,
0,27,27,32,1,,60eb274540d8358b70fdbb1d,62c538bf54f3a38dea76a902,2022-07-06_09h34.23.132,Colour_Asymmetry_Pilot,2022.1.3,Win32,57.43495491,62c50e9c1127f2cd403a315f,,,,,,,,,,,,,,,,,,,,,,,,,,,,,,,,,,,,,,,,,,,,,,,,,,,,,,,,,,,,,,,,,,,,,,,,,,,,,,,,,,,,,,,,,,,,,,,,,,,,,,,,,,,,,,,,,,,,,,,,,,,,,,,,,,,,,,,,,,,,,,,,,,,,,,,,,,,,,,,,,,,
0,28,28,4,1,,60eb274540d8358b70fdbb1d,62c538bf54f3a38dea76a902,2022-07-06_09h34.23.132,Colour_Asymmetry_Pilot,2022.1.3,Win32,57.43495491,62c50e9c1127f2cd403a315f,,,,,,,,,,,,,,,,,,,,,,,,,,,,,,,,,,,,,,,,,,,,,,,,,,,,,,,,,,,,,,,,,,,,,,,,,,,,,,,,,,,,,,,,,,,,,,,,,,,,,,,,,,,,,,,,,,,,,,,,,,,,,,,,,,,,,,,,,,,,,,,,,,,,,,,,,,,,,,,,,,,
0,29,29,50,1,,60eb274540d8358b70fdbb1d,62c538bf54f3a38dea76a902,2022-07-06_09h34.23.132,Colour_Asymmetry_Pilot,2022.1.3,Win32,57.43495491,62c50e9c1127f2cd403a315f,,,,,,,,,,,,,,,,,,,,,,,,,,,,,,,,,,,,,,,,,,,,,,,,,,,,,,,,,,,,,,,,,,,,,,,,,,,,,,,,,,,,,,,,,,,,,,,,,,,,,,,,,,,,,,,,,,,,,,,,,,,,,,,,,,,,,,,,,,,,,,,,,,,,,,,,,,,,,,,,,,,
0,30,30,43,1,,60eb274540d8358b70fdbb1d,62c538bf54f3a38dea76a902,2022-07-06_09h34.23.132,Colour_Asymmetry_Pilot,2022.1.3,Win32,57.43495491,62c50e9c1127f2cd403a315f,,,,,,,,,,,,,,,,,,,,,,,,,,,,,,,,,,,,,,,,,,,,,,,,,,,,,,,,,,,,,,,,,,,,,,,,,,,,,,,,,,,,,,,,,,,,,,,,,,,,,,,,,,,,,,,,,,,,,,,,,,,,,,,,,,,,,,,,,,,,,,,,,,,,,,,,,,,,,,,,,,,
0,31,31,26,1,,60eb274540d8358b70fdbb1d,62c538bf54f3a38dea76a902,2022-07-06_09h34.23.132,Colour_Asymmetry_Pilot,2022.1.3,Win32,57.43495491,62c50e9c1127f2cd403a315f,,,,,,,,,,,,,,,,,,,,,,,,,,,,,,,,,,,,,,,,,,,,,,,,,,,,,,,,,,,,,,,,,,,,,,,,,,,,,,,,,,,,,,,,,,,,,,,,,,,,,,,,,,,,,,,,,,,,,,,,,,,,,,,,,,,,,,,,,,,,,,,,,,,,,,,,,,,,,,,,,,,
0,32,32,82,1,,60eb274540d8358b70fdbb1d,62c538bf54f3a38dea76a902,2022-07-06_09h34.23.132,Colour_Asymmetry_Pilot,2022.1.3,Win32,57.43495491,62c50e9c1127f2cd403a315f,,,,,,,,,,,,,,,,,,,,,,,,,,,,,,,,,,,,,,,,,,,,,,,,,,,,,,,,,,,,,,,,,,,,,,,,,,,,,,,,,,,,,,,,,,,,,,,,,,,,,,,,,,,,,,,,,,,,,,,,,,,,,,,,,,,,,,,,,,,,,,,,,,,,,,,,,,,,,,,,,,,
0,33,33,64,1,,60eb274540d8358b70fdbb1d,62c538bf54f3a38dea76a902,2022-07-06_09h34.23.132,Colour_Asymmetry_Pilot,2022.1.3,Win32,57.43495491,62c50e9c1127f2cd403a315f,,,,,,,,,,,,,,,,,,,,,,,,,,,,,,,,,,,,,,,,,,,,,,,,,,,,,,,,,,,,,,,,,,,,,,,,,,,,,,,,,,,,,,,,,,,,,,,,,,,,,,,,,,,,,,,,,,,,,,,,,,,,,,,,,,,,,,,,,,,,,,,,,,,,,,,,,,,,,,,,,,,
0,34,34,31,1,,60eb274540d8358b70fdbb1d,62c538bf54f3a38dea76a902,2022-07-06_09h34.23.132,Colour_Asymmetry_Pilot,2022.1.3,Win32,57.43495491,62c50e9c1127f2cd403a315f,,,,,,,,,,,,,,,,,,,,,,,,,,,,,,,,,,,,,,,,,,,,,,,,,,,,,,,,,,,,,,,,,,,,,,,,,,,,,,,,,,,,,,,,,,,,,,,,,,,,,,,,,,,,,,,,,,,,,,,,,,,,,,,,,,,,,,,,,,,,,,,,,,,,,,,,,,,,,,,,,,,
0,35,35,42,1,,60eb274540d8358b70fdbb1d,62c538bf54f3a38dea76a902,2022-07-06_09h34.23.132,Colour_Asymmetry_Pilot,2022.1.3,Win32,57.43495491,62c50e9c1127f2cd403a315f,,,,,,,,,,,,,,,,,,,,,,,,,,,,,,,,,,,,,,,,,,,,,,,,,,,,,,,,,,,,,,,,,,,,,,,,,,,,,,,,,,,,,,,,,,,,,,,,,,,,,,,,,,,,,,,,,,,,,,,,,,,,,,,,,,,,,,,,,,,,,,,,,,,,,,,,,,,,,,,,,,,
0,36,36,47,1,,60eb274540d8358b70fdbb1d,62c538bf54f3a38dea76a902,2022-07-06_09h34.23.132,Colour_Asymmetry_Pilot,2022.1.3,Win32,57.43495491,62c50e9c1127f2cd403a315f,,,,,,,,,,,,,,,,,,,,,,,,,,,,,,,,,,,,,,,,,,,,,,,,,,,,,,,,,,,,,,,,,,,,,,,,,,,,,,,,,,,,,,,,,,,,,,,,,,,,,,,,,,,,,,,,,,,,,,,,,,,,,,,,,,,,,,,,,,,,,,,,,,,,,,,,,,,,,,,,,,,
0,37,37,44,1,,60eb274540d8358b70fdbb1d,62c538bf54f3a38dea76a902,2022-07-06_09h34.23.132,Colour_Asymmetry_Pilot,2022.1.3,Win32,57.43495491,62c50e9c1127f2cd403a315f,,,,,,,,,,,,,,,,,,,,,,,,,,,,,,,,,,,,,,,,,,,,,,,,,,,,,,,,,,,,,,,,,,,,,,,,,,,,,,,,,,,,,,,,,,,,,,,,,,,,,,,,,,,,,,,,,,,,,,,,,,,,,,,,,,,,,,,,,,,,,,,,,,,,,,,,,,,,,,,,,,,
0,38,38,79,1,,60eb274540d8358b70fdbb1d,62c538bf54f3a38dea76a902,2022-07-06_09h34.23.132,Colour_Asymmetry_Pilot,2022.1.3,Win32,57.43495491,62c50e9c1127f2cd403a315f,,,,,,,,,,,,,,,,,,,,,,,,,,,,,,,,,,,,,,,,,,,,,,,,,,,,,,,,,,,,,,,,,,,,,,,,,,,,,,,,,,,,,,,,,,,,,,,,,,,,,,,,,,,,,,,,,,,,,,,,,,,,,,,,,,,,,,,,,,,,,,,,,,,,,,,,,,,,,,,,,,,
0,39,39,45,1,,60eb274540d8358b70fdbb1d,62c538bf54f3a38dea76a902,2022-07-06_09h34.23.132,Colour_Asymmetry_Pilot,2022.1.3,Win32,57.43495491,62c50e9c1127f2cd403a315f,,,,,,,,,,,,,,,,,,,,,,,,,,,,,,,,,,,,,,,,,,,,,,,,,,,,,,,,,,,,,,,,,,,,,,,,,,,,,,,,,,,,,,,,,,,,,,,,,,,,,,,,,,,,,,,,,,,,,,,,,,,,,,,,,,,,,,,,,,,,,,,,,,,,,,,,,,,,,,,,,,,
0,40,40,34,1,,60eb274540d8358b70fdbb1d,62c538bf54f3a38dea76a902,2022-07-06_09h34.23.132,Colour_Asymmetry_Pilot,2022.1.3,Win32,57.43495491,62c50e9c1127f2cd403a315f,,,,,,,,,,,,,,,,,,,,,,,,,,,,,,,,,,,,,,,,,,,,,,,,,,,,,,,,,,,,,,,,,,,,,,,,,,,,,,,,,,,,,,,,,,,,,,,,,,,,,,,,,,,,,,,,,,,,,,,,,,,,,,,,,,,,,,,,,,,,,,,,,,,,,,,,,,,,,,,,,,,
0,41,41,78,1,,60eb274540d8358b70fdbb1d,62c538bf54f3a38dea76a902,2022-07-06_09h34.23.132,Colour_Asymmetry_Pilot,2022.1.3,Win32,57.43495491,62c50e9c1127f2cd403a315f,,,,,,,,,,,,,,,,,,,,,,,,,,,,,,,,,,,,,,,,,,,,,,,,,,,,,,,,,,,,,,,,,,,,,,,,,,,,,,,,,,,,,,,,,,,,,,,,,,,,,,,,,,,,,,,,,,,,,,,,,,,,,,,,,,,,,,,,,,,,,,,,,,,,,,,,,,,,,,,,,,,
0,42,42,88,1,,60eb274540d8358b70fdbb1d,62c538bf54f3a38dea76a902,2022-07-06_09h34.23.132,Colour_Asymmetry_Pilot,2022.1.3,Win32,57.43495491,62c50e9c1127f2cd403a315f,,,,,,,,,,,,,,,,,,,,,,,,,,,,,,,,,,,,,,,,,,,,,,,,,,,,,,,,,,,,,,,,,,,,,,,,,,,,,,,,,,,,,,,,,,,,,,,,,,,,,,,,,,,,,,,,,,,,,,,,,,,,,,,,,,,,,,,,,,,,,,,,,,,,,,,,,,,,,,,,,,,
0,43,43,9,1,,60eb274540d8358b70fdbb1d,62c538bf54f3a38dea76a902,2022-07-06_09h34.23.132,Colour_Asymmetry_Pilot,2022.1.3,Win32,57.43495491,62c50e9c1127f2cd403a315f,,,,,,,,,,,,,,,,,,,,,,,,,,,,,,,,,,,,,,,,,,,,,,,,,,,,,,,,,,,,,,,,,,,,,,,,,,,,,,,,,,,,,,,,,,,,,,,,,,,,,,,,,,,,,,,,,,,,,,,,,,,,,,,,,,,,,,,,,,,,,,,,,,,,,,,,,,,,,,,,,,,
0,44,44,75,1,,60eb274540d8358b70fdbb1d,62c538bf54f3a38dea76a902,2022-07-06_09h34.23.132,Colour_Asymmetry_Pilot,2022.1.3,Win32,57.43495491,62c50e9c1127f2cd403a315f,,,,,,,,,,,,,,,,,,,,,,,,,,,,,,,,,,,,,,,,,,,,,,,,,,,,,,,,,,,,,,,,,,,,,,,,,,,,,,,,,,,,,,,,,,,,,,,,,,,,,,,,,,,,,,,,,,,,,,,,,,,,,,,,,,,,,,,,,,,,,,,,,,,,,,,,,,,,,,,,,,,
0,45,45,70,1,,60eb274540d8358b70fdbb1d,62c538bf54f3a38dea76a902,2022-07-06_09h34.23.132,Colour_Asymmetry_Pilot,2022.1.3,Win32,57.43495491,62c50e9c1127f2cd403a315f,,,,,,,,,,,,,,,,,,,,,,,,,,,,,,,,,,,,,,,,,,,,,,,,,,,,,,,,,,,,,,,,,,,,,,,,,,,,,,,,,,,,,,,,,,,,,,,,,,,,,,,,,,,,,,,,,,,,,,,,,,,,,,,,,,,,,,,,,,,,,,,,,,,,,,,,,,,,,,,,,,,
0,46,46,40,1,,60eb274540d8358b70fdbb1d,62c538bf54f3a38dea76a902,2022-07-06_09h34.23.132,Colour_Asymmetry_Pilot,2022.1.3,Win32,57.43495491,62c50e9c1127f2cd403a315f,,,,,,,,,,,,,,,,,,,,,,,,,,,,,,,,,,,,,,,,,,,,,,,,,,,,,,,,,,,,,,,,,,,,,,,,,,,,,,,,,,,,,,,,,,,,,,,,,,,,,,,,,,,,,,,,,,,,,,,,,,,,,,,,,,,,,,,,,,,,,,,,,,,,,,,,,,,,,,,,,,,
0,47,47,14,1,,60eb274540d8358b70fdbb1d,62c538bf54f3a38dea76a902,2022-07-06_09h34.23.132,Colour_Asymmetry_Pilot,2022.1.3,Win32,57.43495491,62c50e9c1127f2cd403a315f,,,,,,,,,,,,,,,,,,,,,,,,,,,,,,,,,,,,,,,,,,,,,,,,,,,,,,,,,,,,,,,,,,,,,,,,,,,,,,,,,,,,,,,,,,,,,,,,,,,,,,,,,,,,,,,,,,,,,,,,,,,,,,,,,,,,,,,,,,,,,,,,,,,,,,,,,,,,,,,,,,,
0,48,48,74,1,,60eb274540d8358b70fdbb1d,62c538bf54f3a38dea76a902,2022-07-06_09h34.23.132,Colour_Asymmetry_Pilot,2022.1.3,Win32,57.43495491,62c50e9c1127f2cd403a315f,,,,,,,,,,,,,,,,,,,,,,,,,,,,,,,,,,,,,,,,,,,,,,,,,,,,,,,,,,,,,,,,,,,,,,,,,,,,,,,,,,,,,,,,,,,,,,,,,,,,,,,,,,,,,,,,,,,,,,,,,,,,,,,,,,,,,,,,,,,,,,,,,,,,,,,,,,,,,,,,,,,
0,49,49,51,1,,60eb274540d8358b70fdbb1d,62c538bf54f3a38dea76a902,2022-07-06_09h34.23.132,Colour_Asymmetry_Pilot,2022.1.3,Win32,57.43495491,62c50e9c1127f2cd403a315f,,,,,,,,,,,,,,,,,,,,,,,,,,,,,,,,,,,,,,,,,,,,,,,,,,,,,,,,,,,,,,,,,,,,,,,,,,,,,,,,,,,,,,,,,,,,,,,,,,,,,,,,,,,,,,,,,,,,,,,,,,,,,,,,,,,,,,,,,,,,,,,,,,,,,,,,,,,,,,,,,,,
0,50,50,30,1,,60eb274540d8358b70fdbb1d,62c538bf54f3a38dea76a902,2022-07-06_09h34.23.132,Colour_Asymmetry_Pilot,2022.1.3,Win32,57.43495491,62c50e9c1127f2cd403a315f,,,,,,,,,,,,,,,,,,,,,,,,,,,,,,,,,,,,,,,,,,,,,,,,,,,,,,,,,,,,,,,,,,,,,,,,,,,,,,,,,,,,,,,,,,,,,,,,,,,,,,,,,,,,,,,,,,,,,,,,,,,,,,,,,,,,,,,,,,,,,,,,,,,,,,,,,,,,,,,,,,,
0,51,51,12,1,,60eb274540d8358b70fdbb1d,62c538bf54f3a38dea76a902,2022-07-06_09h34.23.132,Colour_Asymmetry_Pilot,2022.1.3,Win32,57.43495491,62c50e9c1127f2cd403a315f,,,,,,,,,,,,,,,,,,,,,,,,,,,,,,,,,,,,,,,,,,,,,,,,,,,,,,,,,,,,,,,,,,,,,,,,,,,,,,,,,,,,,,,,,,,,,,,,,,,,,,,,,,,,,,,,,,,,,,,,,,,,,,,,,,,,,,,,,,,,,,,,,,,,,,,,,,,,,,,,,,,
0,52,52,85,1,,60eb274540d8358b70fdbb1d,62c538bf54f3a38dea76a902,2022-07-06_09h34.23.132,Colour_Asymmetry_Pilot,2022.1.3,Win32,57.43495491,62c50e9c1127f2cd403a315f,,,,,,,,,,,,,,,,,,,,,,,,,,,,,,,,,,,,,,,,,,,,,,,,,,,,,,,,,,,,,,,,,,,,,,,,,,,,,,,,,,,,,,,,,,,,,,,,,,,,,,,,,,,,,,,,,,,,,,,,,,,,,,,,,,,,,,,,,,,,,,,,,,,,,,,,,,,,,,,,,,,
0,53,53,17,1,,60eb274540d8358b70fdbb1d,62c538bf54f3a38dea76a902,2022-07-06_09h34.23.132,Colour_Asymmetry_Pilot,2022.1.3,Win32,57.43495491,62c50e9c1127f2cd403a315f,,,,,,,,,,,,,,,,,,,,,,,,,,,,,,,,,,,,,,,,,,,,,,,,,,,,,,,,,,,,,,,,,,,,,,,,,,,,,,,,,,,,,,,,,,,,,,,,,,,,,,,,,,,,,,,,,,,,,,,,,,,,,,,,,,,,,,,,,,,,,,,,,,,,,,,,,,,,,,,,,,,
0,54,54,69,1,,60eb274540d8358b70fdbb1d,62c538bf54f3a38dea76a902,2022-07-06_09h34.23.132,Colour_Asymmetry_Pilot,2022.1.3,Win32,57.43495491,62c50e9c1127f2cd403a315f,,,,,,,,,,,,,,,,,,,,,,,,,,,,,,,,,,,,,,,,,,,,,,,,,,,,,,,,,,,,,,,,,,,,,,,,,,,,,,,,,,,,,,,,,,,,,,,,,,,,,,,,,,,,,,,,,,,,,,,,,,,,,,,,,,,,,,,,,,,,,,,,,,,,,,,,,,,,,,,,,,,
0,55,55,62,1,,60eb274540d8358b70fdbb1d,62c538bf54f3a38dea76a902,2022-07-06_09h34.23.132,Colour_Asymmetry_Pilot,2022.1.3,Win32,57.43495491,62c50e9c1127f2cd403a315f,,,,,,,,,,,,,,,,,,,,,,,,,,,,,,,,,,,,,,,,,,,,,,,,,,,,,,,,,,,,,,,,,,,,,,,,,,,,,,,,,,,,,,,,,,,,,,,,,,,,,,,,,,,,,,,,,,,,,,,,,,,,,,,,,,,,,,,,,,,,,,,,,,,,,,,,,,,,,,,,,,,
0,56,56,2,1,,60eb274540d8358b70fdbb1d,62c538bf54f3a38dea76a902,2022-07-06_09h34.23.132,Colour_Asymmetry_Pilot,2022.1.3,Win32,57.43495491,62c50e9c1127f2cd403a315f,,,,,,,,,,,,,,,,,,,,,,,,,,,,,,,,,,,,,,,,,,,,,,,,,,,,,,,,,,,,,,,,,,,,,,,,,,,,,,,,,,,,,,,,,,,,,,,,,,,,,,,,,,,,,,,,,,,,,,,,,,,,,,,,,,,,,,,,,,,,,,,,,,,,,,,,,,,,,,,,,,,
0,57,57,39,1,,60eb274540d8358b70fdbb1d,62c538bf54f3a38dea76a902,2022-07-06_09h34.23.132,Colour_Asymmetry_Pilot,2022.1.3,Win32,57.43495491,62c50e9c1127f2cd403a315f,,,,,,,,,,,,,,,,,,,,,,,,,,,,,,,,,,,,,,,,,,,,,,,,,,,,,,,,,,,,,,,,,,,,,,,,,,,,,,,,,,,,,,,,,,,,,,,,,,,,,,,,,,,,,,,,,,,,,,,,,,,,,,,,,,,,,,,,,,,,,,,,,,,,,,,,,,,,,,,,,,,
0,58,58,91,1,,60eb274540d8358b70fdbb1d,62c538bf54f3a38dea76a902,2022-07-06_09h34.23.132,Colour_Asymmetry_Pilot,2022.1.3,Win32,57.43495491,62c50e9c1127f2cd403a315f,,,,,,,,,,,,,,,,,,,,,,,,,,,,,,,,,,,,,,,,,,,,,,,,,,,,,,,,,,,,,,,,,,,,,,,,,,,,,,,,,,,,,,,,,,,,,,,,,,,,,,,,,,,,,,,,,,,,,,,,,,,,,,,,,,,,,,,,,,,,,,,,,,,,,,,,,,,,,,,,,,,
0,59,59,13,1,,60eb274540d8358b70fdbb1d,62c538bf54f3a38dea76a902,2022-07-06_09h34.23.132,Colour_Asymmetry_Pilot,2022.1.3,Win32,57.43495491,62c50e9c1127f2cd403a315f,,,,,,,,,,,,,,,,,,,,,,,,,,,,,,,,,,,,,,,,,,,,,,,,,,,,,,,,,,,,,,,,,,,,,,,,,,,,,,,,,,,,,,,,,,,,,,,,,,,,,,,,,,,,,,,,,,,,,,,,,,,,,,,,,,,,,,,,,,,,,,,,,,,,,,,,,,,,,,,,,,,
0,60,60,24,1,,60eb274540d8358b70fdbb1d,62c538bf54f3a38dea76a902,2022-07-06_09h34.23.132,Colour_Asymmetry_Pilot,2022.1.3,Win32,57.43495491,62c50e9c1127f2cd403a315f,,,,,,,,,,,,,,,,,,,,,,,,,,,,,,,,,,,,,,,,,,,,,,,,,,,,,,,,,,,,,,,,,,,,,,,,,,,,,,,,,,,,,,,,,,,,,,,,,,,,,,,,,,,,,,,,,,,,,,,,,,,,,,,,,,,,,,,,,,,,,,,,,,,,,,,,,,,,,,,,,,,
0,61,61,67,1,,60eb274540d8358b70fdbb1d,62c538bf54f3a38dea76a902,2022-07-06_09h34.23.132,Colour_Asymmetry_Pilot,2022.1.3,Win32,57.43495491,62c50e9c1127f2cd403a315f,,,,,,,,,,,,,,,,,,,,,,,,,,,,,,,,,,,,,,,,,,,,,,,,,,,,,,,,,,,,,,,,,,,,,,,,,,,,,,,,,,,,,,,,,,,,,,,,,,,,,,,,,,,,,,,,,,,,,,,,,,,,,,,,,,,,,,,,,,,,,,,,,,,,,,,,,,,,,,,,,,,
0,62,62,35,1,,60eb274540d8358b70fdbb1d,62c538bf54f3a38dea76a902,2022-07-06_09h34.23.132,Colour_Asymmetry_Pilot,2022.1.3,Win32,57.43495491,62c50e9c1127f2cd403a315f,,,,,,,,,,,,,,,,,,,,,,,,,,,,,,,,,,,,,,,,,,,,,,,,,,,,,,,,,,,,,,,,,,,,,,,,,,,,,,,,,,,,,,,,,,,,,,,,,,,,,,,,,,,,,,,,,,,,,,,,,,,,,,,,,,,,,,,,,,,,,,,,,,,,,,,,,,,,,,,,,,,
0,63,63,36,1,,60eb274540d8358b70fdbb1d,62c538bf54f3a38dea76a902,2022-07-06_09h34.23.132,Colour_Asymmetry_Pilot,2022.1.3,Win32,57.43495491,62c50e9c1127f2cd403a315f,,,,,,,,,,,,,,,,,,,,,,,,,,,,,,,,,,,,,,,,,,,,,,,,,,,,,,,,,,,,,,,,,,,,,,,,,,,,,,,,,,,,,,,,,,,,,,,,,,,,,,,,,,,,,,,,,,,,,,,,,,,,,,,,,,,,,,,,,,,,,,,,,,,,,,,,,,,,,,,,,,,
0,64,64,23,1,,60eb274540d8358b70fdbb1d,62c538bf54f3a38dea76a902,2022-07-06_09h34.23.132,Colour_Asymmetry_Pilot,2022.1.3,Win32,57.43495491,62c50e9c1127f2cd403a315f,,,,,,,,,,,,,,,,,,,,,,,,,,,,,,,,,,,,,,,,,,,,,,,,,,,,,,,,,,,,,,,,,,,,,,,,,,,,,,,,,,,,,,,,,,,,,,,,,,,,,,,,,,,,,,,,,,,,,,,,,,,,,,,,,,,,,,,,,,,,,,,,,,,,,,,,,,,,,,,,,,,
0,65,65,57,1,,60eb274540d8358b70fdbb1d,62c538bf54f3a38dea76a902,2022-07-06_09h34.23.132,Colour_Asymmetry_Pilot,2022.1.3,Win32,57.43495491,62c50e9c1127f2cd403a315f,,,,,,,,,,,,,,,,,,,,,,,,,,,,,,,,,,,,,,,,,,,,,,,,,,,,,,,,,,,,,,,,,,,,,,,,,,,,,,,,,,,,,,,,,,,,,,,,,,,,,,,,,,,,,,,,,,,,,,,,,,,,,,,,,,,,,,,,,,,,,,,,,,,,,,,,,,,,,,,,,,,
0,66,66,7,1,,60eb274540d8358b70fdbb1d,62c538bf54f3a38dea76a902,2022-07-06_09h34.23.132,Colour_Asymmetry_Pilot,2022.1.3,Win32,57.43495491,62c50e9c1127f2cd403a315f,,,,,,,,,,,,,,,,,,,,,,,,,,,,,,,,,,,,,,,,,,,,,,,,,,,,,,,,,,,,,,,,,,,,,,,,,,,,,,,,,,,,,,,,,,,,,,,,,,,,,,,,,,,,,,,,,,,,,,,,,,,,,,,,,,,,,,,,,,,,,,,,,,,,,,,,,,,,,,,,,,,
0,67,67,21,1,,60eb274540d8358b70fdbb1d,62c538bf54f3a38dea76a902,2022-07-06_09h34.23.132,Colour_Asymmetry_Pilot,2022.1.3,Win32,57.43495491,62c50e9c1127f2cd403a315f,,,,,,,,,,,,,,,,,,,,,,,,,,,,,,,,,,,,,,,,,,,,,,,,,,,,,,,,,,,,,,,,,,,,,,,,,,,,,,,,,,,,,,,,,,,,,,,,,,,,,,,,,,,,,,,,,,,,,,,,,,,,,,,,,,,,,,,,,,,,,,,,,,,,,,,,,,,,,,,,,,,
0,68,68,81,1,,60eb274540d8358b70fdbb1d,62c538bf54f3a38dea76a902,2022-07-06_09h34.23.132,Colour_Asymmetry_Pilot,2022.1.3,Win32,57.43495491,62c50e9c1127f2cd403a315f,,,,,,,,,,,,,,,,,,,,,,,,,,,,,,,,,,,,,,,,,,,,,,,,,,,,,,,,,,,,,,,,,,,,,,,,,,,,,,,,,,,,,,,,,,,,,,,,,,,,,,,,,,,,,,,,,,,,,,,,,,,,,,,,,,,,,,,,,,,,,,,,,,,,,,,,,,,,,,,,,,,
0,69,69,29,1,,60eb274540d8358b70fdbb1d,62c538bf54f3a38dea76a902,2022-07-06_09h34.23.132,Colour_Asymmetry_Pilot,2022.1.3,Win32,57.43495491,62c50e9c1127f2cd403a315f,,,,,,,,,,,,,,,,,,,,,,,,,,,,,,,,,,,,,,,,,,,,,,,,,,,,,,,,,,,,,,,,,,,,,,,,,,,,,,,,,,,,,,,,,,,,,,,,,,,,,,,,,,,,,,,,,,,,,,,,,,,,,,,,,,,,,,,,,,,,,,,,,,,,,,,,,,,,,,,,,,,
0,70,70,33,1,,60eb274540d8358b70fdbb1d,62c538bf54f3a38dea76a902,2022-07-06_09h34.23.132,Colour_Asymmetry_Pilot,2022.1.3,Win32,57.43495491,62c50e9c1127f2cd403a315f,,,,,,,,,,,,,,,,,,,,,,,,,,,,,,,,,,,,,,,,,,,,,,,,,,,,,,,,,,,,,,,,,,,,,,,,,,,,,,,,,,,,,,,,,,,,,,,,,,,,,,,,,,,,,,,,,,,,,,,,,,,,,,,,,,,,,,,,,,,,,,,,,,,,,,,,,,,,,,,,,,,
0,71,71,18,1,,60eb274540d8358b70fdbb1d,62c538bf54f3a38dea76a902,2022-07-06_09h34.23.132,Colour_Asymmetry_Pilot,2022.1.3,Win32,57.43495491,62c50e9c1127f2cd403a315f,,,,,,,,,,,,,,,,,,,,,,,,,,,,,,,,,,,,,,,,,,,,,,,,,,,,,,,,,,,,,,,,,,,,,,,,,,,,,,,,,,,,,,,,,,,,,,,,,,,,,,,,,,,,,,,,,,,,,,,,,,,,,,,,,,,,,,,,,,,,,,,,,,,,,,,,,,,,,,,,,,,
0,72,72,71,1,,60eb274540d8358b70fdbb1d,62c538bf54f3a38dea76a902,2022-07-06_09h34.23.132,Colour_Asymmetry_Pilot,2022.1.3,Win32,57.43495491,62c50e9c1127f2cd403a315f,,,,,,,,,,,,,,,,,,,,,,,,,,,,,,,,,,,,,,,,,,,,,,,,,,,,,,,,,,,,,,,,,,,,,,,,,,,,,,,,,,,,,,,,,,,,,,,,,,,,,,,,,,,,,,,,,,,,,,,,,,,,,,,,,,,,,,,,,,,,,,,,,,,,,,,,,,,,,,,,,,,
0,73,73,41,1,,60eb274540d8358b70fdbb1d,62c538bf54f3a38dea76a902,2022-07-06_09h34.23.132,Colour_Asymmetry_Pilot,2022.1.3,Win32,57.43495491,62c50e9c1127f2cd403a315f,,,,,,,,,,,,,,,,,,,,,,,,,,,,,,,,,,,,,,,,,,,,,,,,,,,,,,,,,,,,,,,,,,,,,,,,,,,,,,,,,,,,,,,,,,,,,,,,,,,,,,,,,,,,,,,,,,,,,,,,,,,,,,,,,,,,,,,,,,,,,,,,,,,,,,,,,,,,,,,,,,,
0,74,74,8,1,,60eb274540d8358b70fdbb1d,62c538bf54f3a38dea76a902,2022-07-06_09h34.23.132,Colour_Asymmetry_Pilot,2022.1.3,Win32,57.43495491,62c50e9c1127f2cd403a315f,,,,,,,,,,,,,,,,,,,,,,,,,,,,,,,,,,,,,,,,,,,,,,,,,,,,,,,,,,,,,,,,,,,,,,,,,,,,,,,,,,,,,,,,,,,,,,,,,,,,,,,,,,,,,,,,,,,,,,,,,,,,,,,,,,,,,,,,,,,,,,,,,,,,,,,,,,,,,,,,,,,
0,75,75,72,1,,60eb274540d8358b70fdbb1d,62c538bf54f3a38dea76a902,2022-07-06_09h34.23.132,Colour_Asymmetry_Pilot,2022.1.3,Win32,57.43495491,62c50e9c1127f2cd403a315f,,,,,,,,,,,,,,,,,,,,,,,,,,,,,,,,,,,,,,,,,,,,,,,,,,,,,,,,,,,,,,,,,,,,,,,,,,,,,,,,,,,,,,,,,,,,,,,,,,,,,,,,,,,,,,,,,,,,,,,,,,,,,,,,,,,,,,,,,,,,,,,,,,,,,,,,,,,,,,,,,,,
0,76,76,60,1,,60eb274540d8358b70fdbb1d,62c538bf54f3a38dea76a902,2022-07-06_09h34.23.132,Colour_Asymmetry_Pilot,2022.1.3,Win32,57.43495491,62c50e9c1127f2cd403a315f,,,,,,,,,,,,,,,,,,,,,,,,,,,,,,,,,,,,,,,,,,,,,,,,,,,,,,,,,,,,,,,,,,,,,,,,,,,,,,,,,,,,,,,,,,,,,,,,,,,,,,,,,,,,,,,,,,,,,,,,,,,,,,,,,,,,,,,,,,,,,,,,,,,,,,,,,,,,,,,,,,,
0,77,77,25,1,,60eb274540d8358b70fdbb1d,62c538bf54f3a38dea76a902,2022-07-06_09h34.23.132,Colour_Asymmetry_Pilot,2022.1.3,Win32,57.43495491,62c50e9c1127f2cd403a315f,,,,,,,,,,,,,,,,,,,,,,,,,,,,,,,,,,,,,,,,,,,,,,,,,,,,,,,,,,,,,,,,,,,,,,,,,,,,,,,,,,,,,,,,,,,,,,,,,,,,,,,,,,,,,,,,,,,,,,,,,,,,,,,,,,,,,,,,,,,,,,,,,,,,,,,,,,,,,,,,,,,
0,78,78,53,1,,60eb274540d8358b70fdbb1d,62c538bf54f3a38dea76a902,2022-07-06_09h34.23.132,Colour_Asymmetry_Pilot,2022.1.3,Win32,57.43495491,62c50e9c1127f2cd403a315f,,,,,,,,,,,,,,,,,,,,,,,,,,,,,,,,,,,,,,,,,,,,,,,,,,,,,,,,,,,,,,,,,,,,,,,,,,,,,,,,,,,,,,,,,,,,,,,,,,,,,,,,,,,,,,,,,,,,,,,,,,,,,,,,,,,,,,,,,,,,,,,,,,,,,,,,,,,,,,,,,,,
0,79,79,0,1,,60eb274540d8358b70fdbb1d,62c538bf54f3a38dea76a902,2022-07-06_09h34.23.132,Colour_Asymmetry_Pilot,2022.1.3,Win32,57.43495491,62c50e9c1127f2cd403a315f,,,,,,,,,,,,,,,,,,,,,,,,,,,,,,,,,,,,,,,,,,,,,,,,,,,,,,,,,,,,,,,,,,,,,,,,,,,,,,,,,,,,,,,,,,,,,,,,,,,,,,,,,,,,,,,,,,,,,,,,,,,,,,,,,,,,,,,,,,,,,,,,,,,,,,,,,,,,,,,,,,,
0,80,80,6,1,,60eb274540d8358b70fdbb1d,62c538bf54f3a38dea76a902,2022-07-06_09h34.23.132,Colour_Asymmetry_Pilot,2022.1.3,Win32,57.43495491,62c50e9c1127f2cd403a315f,,,,,,,,,,,,,,,,,,,,,,,,,,,,,,,,,,,,,,,,,,,,,,,,,,,,,,,,,,,,,,,,,,,,,,,,,,,,,,,,,,,,,,,,,,,,,,,,,,,,,,,,,,,,,,,,,,,,,,,,,,,,,,,,,,,,,,,,,,,,,,,,,,,,,,,,,,,,,,,,,,,
0,81,81,3,1,,60eb274540d8358b70fdbb1d,62c538bf54f3a38dea76a902,2022-07-06_09h34.23.132,Colour_Asymmetry_Pilot,2022.1.3,Win32,57.43495491,62c50e9c1127f2cd403a315f,,,,,,,,,,,,,,,,,,,,,,,,,,,,,,,,,,,,,,,,,,,,,,,,,,,,,,,,,,,,,,,,,,,,,,,,,,,,,,,,,,,,,,,,,,,,,,,,,,,,,,,,,,,,,,,,,,,,,,,,,,,,,,,,,,,,,,,,,,,,,,,,,,,,,,,,,,,,,,,,,,,
0,82,82,48,1,,60eb274540d8358b70fdbb1d,62c538bf54f3a38dea76a902,2022-07-06_09h34.23.132,Colour_Asymmetry_Pilot,2022.1.3,Win32,57.43495491,62c50e9c1127f2cd403a315f,,,,,,,,,,,,,,,,,,,,,,,,,,,,,,,,,,,,,,,,,,,,,,,,,,,,,,,,,,,,,,,,,,,,,,,,,,,,,,,,,,,,,,,,,,,,,,,,,,,,,,,,,,,,,,,,,,,,,,,,,,,,,,,,,,,,,,,,,,,,,,,,,,,,,,,,,,,,,,,,,,,
0,83,83,1,1,,60eb274540d8358b70fdbb1d,62c538bf54f3a38dea76a902,2022-07-06_09h34.23.132,Colour_Asymmetry_Pilot,2022.1.3,Win32,57.43495491,62c50e9c1127f2cd403a315f,,,,,,,,,,,,,,,,,,,,,,,,,,,,,,,,,,,,,,,,,,,,,,,,,,,,,,,,,,,,,,,,,,,,,,,,,,,,,,,,,,,,,,,,,,,,,,,,,,,,,,,,,,,,,,,,,,,,,,,,,,,,,,,,,,,,,,,,,,,,,,,,,,,,,,,,,,,,,,,,,,,
0,84,84,52,1,,60eb274540d8358b70fdbb1d,62c538bf54f3a38dea76a902,2022-07-06_09h34.23.132,Colour_Asymmetry_Pilot,2022.1.3,Win32,57.43495491,62c50e9c1127f2cd403a315f,,,,,,,,,,,,,,,,,,,,,,,,,,,,,,,,,,,,,,,,,,,,,,,,,,,,,,,,,,,,,,,,,,,,,,,,,,,,,,,,,,,,,,,,,,,,,,,,,,,,,,,,,,,,,,,,,,,,,,,,,,,,,,,,,,,,,,,,,,,,,,,,,,,,,,,,,,,,,,,,,,,
0,85,85,22,1,,60eb274540d8358b70fdbb1d,62c538bf54f3a38dea76a902,2022-07-06_09h34.23.132,Colour_Asymmetry_Pilot,2022.1.3,Win32,57.43495491,62c50e9c1127f2cd403a315f,,,,,,,,,,,,,,,,,,,,,,,,,,,,,,,,,,,,,,,,,,,,,,,,,,,,,,,,,,,,,,,,,,,,,,,,,,,,,,,,,,,,,,,,,,,,,,,,,,,,,,,,,,,,,,,,,,,,,,,,,,,,,,,,,,,,,,,,,,,,,,,,,,,,,,,,,,,,,,,,,,,
0,86,86,37,1,,60eb274540d8358b70fdbb1d,62c538bf54f3a38dea76a902,2022-07-06_09h34.23.132,Colour_Asymmetry_Pilot,2022.1.3,Win32,57.43495491,62c50e9c1127f2cd403a315f,,,,,,,,,,,,,,,,,,,,,,,,,,,,,,,,,,,,,,,,,,,,,,,,,,,,,,,,,,,,,,,,,,,,,,,,,,,,,,,,,,,,,,,,,,,,,,,,,,,,,,,,,,,,,,,,,,,,,,,,,,,,,,,,,,,,,,,,,,,,,,,,,,,,,,,,,,,,,,,,,,,
0,87,87,77,1,,60eb274540d8358b70fdbb1d,62c538bf54f3a38dea76a902,2022-07-06_09h34.23.132,Colour_Asymmetry_Pilot,2022.1.3,Win32,57.43495491,62c50e9c1127f2cd403a315f,,,,,,,,,,,,,,,,,,,,,,,,,,,,,,,,,,,,,,,,,,,,,,,,,,,,,,,,,,,,,,,,,,,,,,,,,,,,,,,,,,,,,,,,,,,,,,,,,,,,,,,,,,,,,,,,,,,,,,,,,,,,,,,,,,,,,,,,,,,,,,,,,,,,,,,,,,,,,,,,,,,
0,88,88,55,1,,60eb274540d8358b70fdbb1d,62c538bf54f3a38dea76a902,2022-07-06_09h34.23.132,Colour_Asymmetry_Pilot,2022.1.3,Win32,57.43495491,62c50e9c1127f2cd403a315f,,,,,,,,,,,,,,,,,,,,,,,,,,,,,,,,,,,,,,,,,,,,,,,,,,,,,,,,,,,,,,,,,,,,,,,,,,,,,,,,,,,,,,,,,,,,,,,,,,,,,,,,,,,,,,,,,,,,,,,,,,,,,,,,,,,,,,,,,,,,,,,,,,,,,,,,,,,,,,,,,,,
0,89,89,66,1,,60eb274540d8358b70fdbb1d,62c538bf54f3a38dea76a902,2022-07-06_09h34.23.132,Colour_Asymmetry_Pilot,2022.1.3,Win32,57.43495491,62c50e9c1127f2cd403a315f,,,,,,,,,,,,,,,,,,,,,,,,,,,,,,,,,,,,,,,,,,,,,,,,,,,,,,,,,,,,,,,,,,,,,,,,,,,,,,,,,,,,,,,,,,,,,,,,,,,,,,,,,,,,,,,,,,,,,,,,,,,,,,,,,,,,,,,,,,,,,,,,,,,,,,,,,,,,,,,,,,,
0,90,90,92,1,,60eb274540d8358b70fdbb1d,62c538bf54f3a38dea76a902,2022-07-06_09h34.23.132,Colour_Asymmetry_Pilot,2022.1.3,Win32,57.43495491,62c50e9c1127f2cd403a315f,,,,,,,,,,,,,,,,,,,,,,,,,,,,,,,,,,,,,,,,,,,,,,,,,,,,,,,,,,,,,,,,,,,,,,,,,,,,,,,,,,,,,,,,,,,,,,,,,,,,,,,,,,,,,,,,,,,,,,,,,,,,,,,,,,,,,,,,,,,,,,,,,,,,,,,,,,,,,,,,,,,
0,91,91,20,1,,60eb274540d8358b70fdbb1d,62c538bf54f3a38dea76a902,2022-07-06_09h34.23.132,Colour_Asymmetry_Pilot,2022.1.3,Win32,57.43495491,62c50e9c1127f2cd403a315f,,,,,,,,,,,,,,,,,,,,,,,,,,,,,,,,,,,,,,,,,,,,,,,,,,,,,,,,,,,,,,,,,,,,,,,,,,,,,,,,,,,,,,,,,,,,,,,,,,,,,,,,,,,,,,,,,,,,,,,,,,,,,,,,,,,,,,,,,,,,,,,,,,,,,,,,,,,,,,,,,,,
0,92,92,54,1,,60eb274540d8358b70fdbb1d,62c538bf54f3a38dea76a902,2022-07-06_09h34.23.132,Colour_Asymmetry_Pilot,2022.1.3,Win32,57.43495491,62c50e9c1127f2cd403a315f,,,,,,,,,,,,,,,,,,,,,,,,,,,,,,,,,,,,,,,,,,,,,,,,,,,,,,,,,,,,,,,,,,,,,,,,,,,,,,,,,,,,,,,,,,,,,,,,,,,,,,,,,,,,,,,,,,,,,,,,,,,,,,,,,,,,,,,,,,,,,,,,,,,,,,,,,,,,,,,,,,,
,,,,,,60eb274540d8358b70fdbb1d,62c538bf54f3a38dea76a902,2022-07-06_09h34.23.132,Colour_Asymmetry_Pilot,2022.1.3,Win32,57.43495491,62c50e9c1127f2cd403a315f,0,0,0,152,1,onetwo,,,,,,,,,,,,,,,,,,,,,,,,,,,,,,,,,,,,,,,,,,,,,,,,,,,,,,,,,,,,,,,,,,,,,,,,,,,,,,,,,,,,,,,,,,,,,,,,,,,,,,,,,,,,,,,,,,,,,,,,,,,,,,,,,,,,,,,,,,,,,,,,,,,,,,,,,,,,,
,,,,,,60eb274540d8358b70fdbb1d,62c538bf54f3a38dea76a902,2022-07-06_09h34.23.132,Colour_Asymmetry_Pilot,2022.1.3,Win32,57.43495491,62c50e9c1127f2cd403a315f,0,1,1,115,1,twofour,,,,,,,,,,,,,,,,,,,,,,,,,,,,,,,,,,,,,,,,,,,,,,,,,,,,,,,,,,,,,,,,,,,,,,,,,,,,,,,,,,,,,,,,,,,,,,,,,,,,,,,,,,,,,,,,,,,,,,,,,,,,,,,,,,,,,,,,,,,,,,,,,,,,,,,,,,,,,
,,,,,,60eb274540d8358b70fdbb1d,62c538bf54f3a38dea76a902,2022-07-06_09h34.23.132,Colour_Asymmetry_Pilot,2022.1.3,Win32,57.43495491,62c50e9c1127f2cd403a315f,0,2,2,7,1,fourthree,,,,,,,,,,,,,,,,,,,,,,,,,,,,,,,,,,,,,,,,,,,,,,,,,,,,,,,,,,,,,,,,,,,,,,,,,,,,,,,,,,,,,,,,,,,,,,,,,,,,,,,,,,,,,,,,,,,,,,,,,,,,,,,,,,,,,,,,,,,,,,,,,,,,,,,,,,,,,
,,,,,,60eb274540d8358b70fdbb1d,62c538bf54f3a38dea76a902,2022-07-06_09h34.23.132,Colour_Asymmetry_Pilot,2022.1.3,Win32,57.43495491,62c50e9c1127f2cd403a315f,0,3,3,42,1,twoone,,,,,,,,,,,,,,,,,,,,,,,,,,,,,,,,,,,,,,,,,,,,,,,,,,,,,,,,,,,,,,,,,,,,,,,,,,,,,,,,,,,,,,,,,,,,,,,,,,,,,,,,,,,,,,,,,,,,,,,,,,,,,,,,,,,,,,,,,,,,,,,,,,,,,,,,,,,,,
,,,,,,60eb274540d8358b70fdbb1d,62c538bf54f3a38dea76a902,2022-07-06_09h34.23.132,Colour_Asymmetry_Pilot,2022.1.3,Win32,57.43495491,62c50e9c1127f2cd403a315f,0,4,4,138,1,twoone,,,,,,,,,,,,,,,,,,,,,,,,,,,,,,,,,,,,,,,,,,,,,,,,,,,,,,,,,,,,,,,,,,,,,,,,,,,,,,,,,,,,,,,,,,,,,,,,,,,,,,,,,,,,,,,,,,,,,,,,,,,,,,,,,,,,,,,,,,,,,,,,,,,,,,,,,,,,,
,,,,,,60eb274540d8358b70fdbb1d,62c538bf54f3a38dea76a902,2022-07-06_09h34.23.132,Colour_Asymmetry_Pilot,2022.1.3,Win32,57.43495491,62c50e9c1127f2cd403a315f,0,5,5,68,1,threeone,,,,,,,,,,,,,,,,,,,,,,,,,,,,,,,,,,,,,,,,,,,,,,,,,,,,,,,,,,,,,,,,,,,,,,,,,,,,,,,,,,,,,,,,,,,,,,,,,,,,,,,,,,,,,,,,,,,,,,,,,,,,,,,,,,,,,,,,,,,,,,,,,,,,,,,,,,,,,
,,,,,,60eb274540d8358b70fdbb1d,62c538bf54f3a38dea76a902,2022-07-06_09h34.23.132,Colour_Asymmetry_Pilot,2022.1.3,Win32,57.43495491,62c50e9c1127f2cd403a315f,0,6,6,145,1,onethree,,,,,,,,,,,,,,,,,,,,,,,,,,,,,,,,,,,,,,,,,,,,,,,,,,,,,,,,,,,,,,,,,,,,,,,,,,,,,,,,,,,,,,,,,,,,,,,,,,,,,,,,,,,,,,,,,,,,,,,,,,,,,,,,,,,,,,,,,,,,,,,,,,,,,,,,,,,,,
,,,,,,60eb274540d8358b70fdbb1d,62c538bf54f3a38dea76a902,2022-07-06_09h34.23.132,Colour_Asymmetry_Pilot,2022.1.3,Win32,57.43495491,62c50e9c1127f2cd403a315f,0,7,7,79,1,fourthree,,,,,,,,,,,,,,,,,,,,,,,,,,,,,,,,,,,,,,,,,,,,,,,,,,,,,,,,,,,,,,,,,,,,,,,,,,,,,,,,,,,,,,,,,,,,,,,,,,,,,,,,,,,,,,,,,,,,,,,,,,,,,,,,,,,,,,,,,,,,,,,,,,,,,,,,,,,,,
,,,,,,60eb274540d8358b70fdbb1d,62c538bf54f3a38dea76a902,2022-07-06_09h34.23.132,Colour_Asymmetry_Pilot,2022.1.3,Win32,57.43495491,62c50e9c1127f2cd403a315f,0,8,8,157,1,threefour,,,,,,,,,,,,,,,,,,,,,,,,,,,,,,,,,,,,,,,,,,,,,,,,,,,,,,,,,,,,,,,,,,,,,,,,,,,,,,,,,,,,,,,,,,,,,,,,,,,,,,,,,,,,,,,,,,,,,,,,,,,,,,,,,,,,,,,,,,,,,,,,,,,,,,,,,,,,,
,,,,,,60eb274540d8358b70fdbb1d,62c538bf54f3a38dea76a902,2022-07-06_09h34.23.132,Colour_Asymmetry_Pilot,2022.1.3,Win32,57.43495491,62c50e9c1127f2cd403a315f,0,9,9,98,1,twoone,,,,,,,,,,,,,,,,,,,,,,,,,,,,,,,,,,,,,,,,,,,,,,,,,,,,,,,,,,,,,,,,,,,,,,,,,,,,,,,,,,,,,,,,,,,,,,,,,,,,,,,,,,,,,,,,,,,,,,,,,,,,,,,,,,,,,,,,,,,,,,,,,,,,,,,,,,,,,
,,,,,,60eb274540d8358b70fdbb1d,62c538bf54f3a38dea76a902,2022-07-06_09h34.23.132,Colour_Asymmetry_Pilot,2022.1.3,Win32,57.43495491,62c50e9c1127f2cd403a315f,0,10,10,153,1,onethree,,,,,,,,,,,,,,,,,,,,,,,,,,,,,,,,,,,,,,,,,,,,,,,,,,,,,,,,,,,,,,,,,,,,,,,,,,,,,,,,,,,,,,,,,,,,,,,,,,,,,,,,,,,,,,,,,,,,,,,,,,,,,,,,,,,,,,,,,,,,,,,,,,,,,,,,,,,,,
,,,,,,60eb274540d8358b70fdbb1d,62c538bf54f3a38dea76a902,2022-07-06_09h34.23.132,Colour_Asymmetry_Pilot,2022.1.3,Win32,57.43495491,62c50e9c1127f2cd403a315f,0,11,11,74,1,twoone,,,,,,,,,,,,,,,,,,,,,,,,,,,,,,,,,,,,,,,,,,,,,,,,,,,,,,,,,,,,,,,,,,,,,,,,,,,,,,,,,,,,,,,,,,,,,,,,,,,,,,,,,,,,,,,,,,,,,,,,,,,,,,,,,,,,,,,,,,,,,,,,,,,,,,,,,,,,,
,,,,,,60eb274540d8358b70fdbb1d,62c538bf54f3a38dea76a902,2022-07-06_09h34.23.132,Colour_Asymmetry_Pilot,2022.1.3,Win32,57.43495491,62c50e9c1127f2cd403a315f,0,12,12,104,1,onetwo,,,,,,,,,,,,,,,,,,,,,,,,,,,,,,,,,,,,,,,,,,,,,,,,,,,,,,,,,,,,,,,,,,,,,,,,,,,,,,,,,,,,,,,,,,,,,,,,,,,,,,,,,,,,,,,,,,,,,,,,,,,,,,,,,,,,,,,,,,,,,,,,,,,,,,,,,,,,,
,,,,,,60eb274540d8358b70fdbb1d,62c538bf54f3a38dea76a902,2022-07-06_09h34.23.132,Colour_Asymmetry_Pilot,2022.1.3,Win32,57.43495491,62c50e9c1127f2cd403a315f,0,13,13,154,1,twoone,,,,,,,,,,,,,,,,,,,,,,,,,,,,,,,,,,,,,,,,,,,,,,,,,,,,,,,,,,,,,,,,,,,,,,,,,,,,,,,,,,,,,,,,,,,,,,,,,,,,,,,,,,,,,,,,,,,,,,,,,,,,,,,,,,,,,,,,,,,,,,,,,,,,,,,,,,,,,
,,,,,,60eb274540d8358b70fdbb1d,62c538bf54f3a38dea76a902,2022-07-06_09h34.23.132,Colour_Asymmetry_Pilot,2022.1.3,Win32,57.43495491,62c50e9c1127f2cd403a315f,0,14,14,77,1,threefour,,,,,,,,,,,,,,,,,,,,,,,,,,,,,,,,,,,,,,,,,,,,,,,,,,,,,,,,,,,,,,,,,,,,,,,,,,,,,,,,,,,,,,,,,,,,,,,,,,,,,,,,,,,,,,,,,,,,,,,,,,,,,,,,,,,,,,,,,,,,,,,,,,,,,,,,,,,,,
,,,,,,60eb274540d8358b70fdbb1d,62c538bf54f3a38dea76a902,2022-07-06_09h34.23.132,Colour_Asymmetry_Pilot,2022.1.3,Win32,57.43495491,62c50e9c1127f2cd403a315f,0,15,15,127,1,fourthree,,,,,,,,,,,,,,,,,,,,,,,,,,,,,,,,,,,,,,,,,,,,,,,,,,,,,,,,,,,,,,,,,,,,,,,,,,,,,,,,,,,,,,,,,,,,,,,,,,,,,,,,,,,,,,,,,,,,,,,,,,,,,,,,,,,,,,,,,,,,,,,,,,,,,,,,,,,,,
,,,,,,60eb274540d8358b70fdbb1d,62c538bf54f3a38dea76a902,2022-07-06_09h34.23.132,Colour_Asymmetry_Pilot,2022.1.3,Win32,57.43495491,62c50e9c1127f2cd403a315f,0,16,16,35,1,twofour,,,,,,,,,,,,,,,,,,,,,,,,,,,,,,,,,,,,,,,,,,,,,,,,,,,,,,,,,,,,,,,,,,,,,,,,,,,,,,,,,,,,,,,,,,,,,,,,,,,,,,,,,,,,,,,,,,,,,,,,,,,,,,,,,,,,,,,,,,,,,,,,,,,,,,,,,,,,,
,,,,,,60eb274540d8358b70fdbb1d,62c538bf54f3a38dea76a902,2022-07-06_09h34.23.132,Colour_Asymmetry_Pilot,2022.1.3,Win32,57.43495491,62c50e9c1127f2cd403a315f,0,17,17,123,1,twofour,,,,,,,,,,,,,,,,,,,,,,,,,,,,,,,,,,,,,,,,,,,,,,,,,,,,,,,,,,,,,,,,,,,,,,,,,,,,,,,,,,,,,,,,,,,,,,,,,,,,,,,,,,,,,,,,,,,,,,,,,,,,,,,,,,,,,,,,,,,,,,,,,,,,,,,,,,,,,
,,,,,,60eb274540d8358b70fdbb1d,62c538bf54f3a38dea76a902,2022-07-06_09h34.23.132,Colour_Asymmetry_Pilot,2022.1.3,Win32,57.43495491,62c50e9c1127f2cd403a315f,0,18,18,81,1,onethree,,,,,,,,,,,,,,,,,,,,,,,,,,,,,,,,,,,,,,,,,,,,,,,,,,,,,,,,,,,,,,,,,,,,,,,,,,,,,,,,,,,,,,,,,,,,,,,,,,,,,,,,,,,,,,,,,,,,,,,,,,,,,,,,,,,,,,,,,,,,,,,,,,,,,,,,,,,,,
,,,,,,60eb274540d8358b70fdbb1d,62c538bf54f3a38dea76a902,2022-07-06_09h34.23.132,Colour_Asymmetry_Pilot,2022.1.3,Win32,57.43495491,62c50e9c1127f2cd403a315f,0,19,19,128,1,onetwo,,,,,,,,,,,,,,,,,,,,,,,,,,,,,,,,,,,,,,,,,,,,,,,,,,,,,,,,,,,,,,,,,,,,,,,,,,,,,,,,,,,,,,,,,,,,,,,,,,,,,,,,,,,,,,,,,,,,,,,,,,,,,,,,,,,,,,,,,,,,,,,,,,,,,,,,,,,,,
,,,,,,60eb274540d8358b70fdbb1d,62c538bf54f3a38dea76a902,2022-07-06_09h34.23.132,Colour_Asymmetry_Pilot,2022.1.3,Win32,57.43495491,62c50e9c1127f2cd403a315f,0,20,20,131,1,twofour,,,,,,,,,,,,,,,,,,,,,,,,,,,,,,,,,,,,,,,,,,,,,,,,,,,,,,,,,,,,,,,,,,,,,,,,,,,,,,,,,,,,,,,,,,,,,,,,,,,,,,,,,,,,,,,,,,,,,,,,,,,,,,,,,,,,,,,,,,,,,,,,,,,,,,,,,,,,,
,,,,,,60eb274540d8358b70fdbb1d,62c538bf54f3a38dea76a902,2022-07-06_09h34.23.132,Colour_Asymmetry_Pilot,2022.1.3,Win32,57.43495491,62c50e9c1127f2cd403a315f,0,21,21,96,1,onetwo,,,,,,,,,,,,,,,,,,,,,,,,,,,,,,,,,,,,,,,,,,,,,,,,,,,,,,,,,,,,,,,,,,,,,,,,,,,,,,,,,,,,,,,,,,,,,,,,,,,,,,,,,,,,,,,,,,,,,,,,,,,,,,,,,,,,,,,,,,,,,,,,,,,,,,,,,,,,,
,,,,,,60eb274540d8358b70fdbb1d,62c538bf54f3a38dea76a902,2022-07-06_09h34.23.132,Colour_Asymmetry_Pilot,2022.1.3,Win32,57.43495491,62c50e9c1127f2cd403a315f,0,22,22,45,1,threefour,,,,,,,,,,,,,,,,,,,,,,,,,,,,,,,,,,,,,,,,,,,,,,,,,,,,,,,,,,,,,,,,,,,,,,,,,,,,,,,,,,,,,,,,,,,,,,,,,,,,,,,,,,,,,,,,,,,,,,,,,,,,,,,,,,,,,,,,,,,,,,,,,,,,,,,,,,,,,
,,,,,,60eb274540d8358b70fdbb1d,62c538bf54f3a38dea76a902,2022-07-06_09h34.23.132,Colour_Asymmetry_Pilot,2022.1.3,Win32,57.43495491,62c50e9c1127f2cd403a315f,0,23,23,107,1,twofour,,,,,,,,,,,,,,,,,,,,,,,,,,,,,,,,,,,,,,,,,,,,,,,,,,,,,,,,,,,,,,,,,,,,,,,,,,,,,,,,,,,,,,,,,,,,,,,,,,,,,,,,,,,,,,,,,,,,,,,,,,,,,,,,,,,,,,,,,,,,,,,,,,,,,,,,,,,,,
,,,,,,60eb274540d8358b70fdbb1d,62c538bf54f3a38dea76a902,2022-07-06_09h34.23.132,Colour_Asymmetry_Pilot,2022.1.3,Win32,57.43495491,62c50e9c1127f2cd403a315f,0,24,24,0,1,onetwo,,,,,,,,,,,,,,,,,,,,,,,,,,,,,,,,,,,,,,,,,,,,,,,,,,,,,,,,,,,,,,,,,,,,,,,,,,,,,,,,,,,,,,,,,,,,,,,,,,,,,,,,,,,,,,,,,,,,,,,,,,,,,,,,,,,,,,,,,,,,,,,,,,,,,,,,,,,,,
,,,,,,60eb274540d8358b70fdbb1d,62c538bf54f3a38dea76a902,2022-07-06_09h34.23.132,Colour_Asymmetry_Pilot,2022.1.3,Win32,57.43495491,62c50e9c1127f2cd403a315f,0,25,25,155,1,twofour,,,,,,,,,,,,,,,,,,,,,,,,,,,,,,,,,,,,,,,,,,,,,,,,,,,,,,,,,,,,,,,,,,,,,,,,,,,,,,,,,,,,,,,,,,,,,,,,,,,,,,,,,,,,,,,,,,,,,,,,,,,,,,,,,,,,,,,,,,,,,,,,,,,,,,,,,,,,,
,,,,,,60eb274540d8358b70fdbb1d,62c538bf54f3a38dea76a902,2022-07-06_09h34.23.132,Colour_Asymmetry_Pilot,2022.1.3,Win32,57.43495491,62c50e9c1127f2cd403a315f,0,26,26,151,1,fourthree,,,,,,,,,,,,,,,,,,,,,,,,,,,,,,,,,,,,,,,,,,,,,,,,,,,,,,,,,,,,,,,,,,,,,,,,,,,,,,,,,,,,,,,,,,,,,,,,,,,,,,,,,,,,,,,,,,,,,,,,,,,,,,,,,,,,,,,,,,,,,,,,,,,,,,,,,,,,,
,,,,,,60eb274540d8358b70fdbb1d,62c538bf54f3a38dea76a902,2022-07-06_09h34.23.132,Colour_Asymmetry_Pilot,2022.1.3,Win32,57.43495491,62c50e9c1127f2cd403a315f,0,27,27,20,1,threeone,,,,,,,,,,,,,,,,,,,,,,,,,,,,,,,,,,,,,,,,,,,,,,,,,,,,,,,,,,,,,,,,,,,,,,,,,,,,,,,,,,,,,,,,,,,,,,,,,,,,,,,,,,,,,,,,,,,,,,,,,,,,,,,,,,,,,,,,,,,,,,,,,,,,,,,,,,,,,
,,,,,,60eb274540d8358b70fdbb1d,62c538bf54f3a38dea76a902,2022-07-06_09h34.23.132,Colour_Asymmetry_Pilot,2022.1.3,Win32,57.43495491,62c50e9c1127f2cd403a315f,0,28,28,108,1,threeone,,,,,,,,,,,,,,,,,,,,,,,,,,,,,,,,,,,,,,,,,,,,,,,,,,,,,,,,,,,,,,,,,,,,,,,,,,,,,,,,,,,,,,,,,,,,,,,,,,,,,,,,,,,,,,,,,,,,,,,,,,,,,,,,,,,,,,,,,,,,,,,,,,,,,,,,,,,,,
,,,,,,60eb274540d8358b70fdbb1d,62c538bf54f3a38dea76a902,2022-07-06_09h34.23.132,Colour_Asymmetry_Pilot,2022.1.3,Win32,57.43495491,62c50e9c1127f2cd403a315f,0,29,29,144,1,onetwo,,,,,,,,,,,,,,,,,,,,,,,,,,,,,,,,,,,,,,,,,,,,,,,,,,,,,,,,,,,,,,,,,,,,,,,,,,,,,,,,,,,,,,,,,,,,,,,,,,,,,,,,,,,,,,,,,,,,,,,,,,,,,,,,,,,,,,,,,,,,,,,,,,,,,,,,,,,,,
,,,,,,60eb274540d8358b70fdbb1d,62c538bf54f3a38dea76a902,2022-07-06_09h34.23.132,Colour_Asymmetry_Pilot,2022.1.3,Win32,57.43495491,62c50e9c1127f2cd403a315f,0,30,30,28,1,threeone,,,,,,,,,,,,,,,,,,,,,,,,,,,,,,,,,,,,,,,,,,,,,,,,,,,,,,,,,,,,,,,,,,,,,,,,,,,,,,,,,,,,,,,,,,,,,,,,,,,,,,,,,,,,,,,,,,,,,,,,,,,,,,,,,,,,,,,,,,,,,,,,,,,,,,,,,,,,,
,,,,,,60eb274540d8358b70fdbb1d,62c538bf54f3a38dea76a902,2022-07-06_09h34.23.132,Colour_Asymmetry_Pilot,2022.1.3,Win32,57.43495491,62c50e9c1127f2cd403a315f,0,31,31,50,1,twoone,,,,,,,,,,,,,,,,,,,,,,,,,,,,,,,,,,,,,,,,,,,,,,,,,,,,,,,,,,,,,,,,,,,,,,,,,,,,,,,,,,,,,,,,,,,,,,,,,,,,,,,,,,,,,,,,,,,,,,,,,,,,,,,,,,,,,,,,,,,,,,,,,,,,,,,,,,,,,
,,,,,,60eb274540d8358b70fdbb1d,62c538bf54f3a38dea76a902,2022-07-06_09h34.23.132,Colour_Asymmetry_Pilot,2022.1.3,Win32,57.43495491,62c50e9c1127f2cd403a315f,0,32,32,72,1,onetwo,,,,,,,,,,,,,,,,,,,,,,,,,,,,,,,,,,,,,,,,,,,,,,,,,,,,,,,,,,,,,,,,,,,,,,,,,,,,,,,,,,,,,,,,,,,,,,,,,,,,,,,,,,,,,,,,,,,,,,,,,,,,,,,,,,,,,,,,,,,,,,,,,,,,,,,,,,,,,
,,,,,,60eb274540d8358b70fdbb1d,62c538bf54f3a38dea76a902,2022-07-06_09h34.23.132,Colour_Asymmetry_Pilot,2022.1.3,Win32,57.43495491,62c50e9c1127f2cd403a315f,0,33,33,47,1,fourthree,,,,,,,,,,,,,,,,,,,,,,,,,,,,,,,,,,,,,,,,,,,,,,,,,,,,,,,,,,,,,,,,,,,,,,,,,,,,,,,,,,,,,,,,,,,,,,,,,,,,,,,,,,,,,,,,,,,,,,,,,,,,,,,,,,,,,,,,,,,,,,,,,,,,,,,,,,,,,
,,,,,,60eb274540d8358b70fdbb1d,62c538bf54f3a38dea76a902,2022-07-06_09h34.23.132,Colour_Asymmetry_Pilot,2022.1.3,Win32,57.43495491,62c50e9c1127f2cd403a315f,0,34,34,86,1,fourtwo,,,,,,,,,,,,,,,,,,,,,,,,,,,,,,,,,,,,,,,,,,,,,,,,,,,,,,,,,,,,,,,,,,,,,,,,,,,,,,,,,,,,,,,,,,,,,,,,,,,,,,,,,,,,,,,,,,,,,,,,,,,,,,,,,,,,,,,,,,,,,,,,,,,,,,,,,,,,,
,,,,,,60eb274540d8358b70fdbb1d,62c538bf54f3a38dea76a902,2022-07-06_09h34.23.132,Colour_Asymmetry_Pilot,2022.1.3,Win32,57.43495491,62c50e9c1127f2cd403a315f,0,35,35,57,1,onethree,,,,,,,,,,,,,,,,,,,,,,,,,,,,,,,,,,,,,,,,,,,,,,,,,,,,,,,,,,,,,,,,,,,,,,,,,,,,,,,,,,,,,,,,,,,,,,,,,,,,,,,,,,,,,,,,,,,,,,,,,,,,,,,,,,,,,,,,,,,,,,,,,,,,,,,,,,,,,
,,,,,,60eb274540d8358b70fdbb1d,62c538bf54f3a38dea76a902,2022-07-06_09h34.23.132,Colour_Asymmetry_Pilot,2022.1.3,Win32,57.43495491,62c50e9c1127f2cd403a315f,0,36,36,101,1,threefour,,,,,,,,,,,,,,,,,,,,,,,,,,,,,,,,,,,,,,,,,,,,,,,,,,,,,,,,,,,,,,,,,,,,,,,,,,,,,,,,,,,,,,,,,,,,,,,,,,,,,,,,,,,,,,,,,,,,,,,,,,,,,,,,,,,,,,,,,,,,,,,,,,,,,,,,,,,,,
,,,,,,60eb274540d8358b70fdbb1d,62c538bf54f3a38dea76a902,2022-07-06_09h34.23.132,Colour_Asymmetry_Pilot,2022.1.3,Win32,57.43495491,62c50e9c1127f2cd403a315f,0,37,37,129,1,onethree,,,,,,,,,,,,,,,,,,,,,,,,,,,,,,,,,,,,,,,,,,,,,,,,,,,,,,,,,,,,,,,,,,,,,,,,,,,,,,,,,,,,,,,,,,,,,,,,,,,,,,,,,,,,,,,,,,,,,,,,,,,,,,,,,,,,,,,,,,,,,,,,,,,,,,,,,,,,,
,,,,,,60eb274540d8358b70fdbb1d,62c538bf54f3a38dea76a902,2022-07-06_09h34.23.132,Colour_Asymmetry_Pilot,2022.1.3,Win32,57.43495491,62c50e9c1127f2cd403a315f,0,38,38,135,1,fourthree,,,,,,,,,,,,,,,,,,,,,,,,,,,,,,,,,,,,,,,,,,,,,,,,,,,,,,,,,,,,,,,,,,,,,,,,,,,,,,,,,,,,,,,,,,,,,,,,,,,,,,,,,,,,,,,,,,,,,,,,,,,,,,,,,,,,,,,,,,,,,,,,,,,,,,,,,,,,,
,,,,,,60eb274540d8358b70fdbb1d,62c538bf54f3a38dea76a902,2022-07-06_09h34.23.132,Colour_Asymmetry_Pilot,2022.1.3,Win32,57.43495491,62c50e9c1127f2cd403a315f,0,39,39,49,1,onethree,,,,,,,,,,,,,,,,,,,,,,,,,,,,,,,,,,,,,,,,,,,,,,,,,,,,,,,,,,,,,,,,,,,,,,,,,,,,,,,,,,,,,,,,,,,,,,,,,,,,,,,,,,,,,,,,,,,,,,,,,,,,,,,,,,,,,,,,,,,,,,,,,,,,,,,,,,,,,
,,,,,,60eb274540d8358b70fdbb1d,62c538bf54f3a38dea76a902,2022-07-06_09h34.23.132,Colour_Asymmetry_Pilot,2022.1.3,Win32,57.43495491,62c50e9c1127f2cd403a315f,0,40,40,64,1,onetwo,,,,,,,,,,,,,,,,,,,,,,,,,,,,,,,,,,,,,,,,,,,,,,,,,,,,,,,,,,,,,,,,,,,,,,,,,,,,,,,,,,,,,,,,,,,,,,,,,,,,,,,,,,,,,,,,,,,,,,,,,,,,,,,,,,,,,,,,,,,,,,,,,,,,,,,,,,,,,
,,,,,,60eb274540d8358b70fdbb1d,62c538bf54f3a38dea76a902,2022-07-06_09h34.23.132,Colour_Asymmetry_Pilot,2022.1.3,Win32,57.43495491,62c50e9c1127f2cd403a315f,0,41,41,140,1,threeone,,,,,,,,,,,,,,,,,,,,,,,,,,,,,,,,,,,,,,,,,,,,,,,,,,,,,,,,,,,,,,,,,,,,,,,,,,,,,,,,,,,,,,,,,,,,,,,,,,,,,,,,,,,,,,,,,,,,,,,,,,,,,,,,,,,,,,,,,,,,,,,,,,,,,,,,,,,,,
,,,,,,60eb274540d8358b70fdbb1d,62c538bf54f3a38dea76a902,2022-07-06_09h34.23.132,Colour_Asymmetry_Pilot,2022.1.3,Win32,57.43495491,62c50e9c1127f2cd403a315f,0,42,42,71,1,fourthree,,,,,,,,,,,,,,,,,,,,,,,,,,,,,,,,,,,,,,,,,,,,,,,,,,,,,,,,,,,,,,,,,,,,,,,,,,,,,,,,,,,,,,,,,,,,,,,,,,,,,,,,,,,,,,,,,,,,,,,,,,,,,,,,,,,,,,,,,,,,,,,,,,,,,,,,,,,,,
,,,,,,60eb274540d8358b70fdbb1d,62c538bf54f3a38dea76a902,2022-07-06_09h34.23.132,Colour_Asymmetry_Pilot,2022.1.3,Win32,57.43495491,62c50e9c1127f2cd403a315f,0,43,43,29,1,threefour,,,,,,,,,,,,,,,,,,,,,,,,,,,,,,,,,,,,,,,,,,,,,,,,,,,,,,,,,,,,,,,,,,,,,,,,,,,,,,,,,,,,,,,,,,,,,,,,,,,,,,,,,,,,,,,,,,,,,,,,,,,,,,,,,,,,,,,,,,,,,,,,,,,,,,,,,,,,,
,,,,,,60eb274540d8358b70fdbb1d,62c538bf54f3a38dea76a902,2022-07-06_09h34.23.132,Colour_Asymmetry_Pilot,2022.1.3,Win32,57.43495491,62c50e9c1127f2cd403a315f,0,44,44,3,1,twofour,,,,,,,,,,,,,,,,,,,,,,,,,,,,,,,,,,,,,,,,,,,,,,,,,,,,,,,,,,,,,,,,,,,,,,,,,,,,,,,,,,,,,,,,,,,,,,,,,,,,,,,,,,,,,,,,,,,,,,,,,,,,,,,,,,,,,,,,,,,,,,,,,,,,,,,,,,,,,
,,,,,,60eb274540d8358b70fdbb1d,62c538bf54f3a38dea76a902,2022-07-06_09h34.23.132,Colour_Asymmetry_Pilot,2022.1.3,Win32,57.43495491,62c50e9c1127f2cd403a315f,0,45,45,69,1,threefour,,,,,,,,,,,,,,,,,,,,,,,,,,,,,,,,,,,,,,,,,,,,,,,,,,,,,,,,,,,,,,,,,,,,,,,,,,,,,,,,,,,,,,,,,,,,,,,,,,,,,,,,,,,,,,,,,,,,,,,,,,,,,,,,,,,,,,,,,,,,,,,,,,,,,,,,,,,,,
,,,,,,60eb274540d8358b70fdbb1d,62c538bf54f3a38dea76a902,2022-07-06_09h34.23.132,Colour_Asymmetry_Pilot,2022.1.3,Win32,57.43495491,62c50e9c1127f2cd403a315f,0,46,46,94,1,fourtwo,,,,,,,,,,,,,,,,,,,,,,,,,,,,,,,,,,,,,,,,,,,,,,,,,,,,,,,,,,,,,,,,,,,,,,,,,,,,,,,,,,,,,,,,,,,,,,,,,,,,,,,,,,,,,,,,,,,,,,,,,,,,,,,,,,,,,,,,,,,,,,,,,,,,,,,,,,,,,
,,,,,,60eb274540d8358b70fdbb1d,62c538bf54f3a38dea76a902,2022-07-06_09h34.23.132,Colour_Asymmetry_Pilot,2022.1.3,Win32,57.43495491,62c50e9c1127f2cd403a315f,0,47,47,134,1,fourtwo,,,,,,,,,,,,,,,,,,,,,,,,,,,,,,,,,,,,,,,,,,,,,,,,,,,,,,,,,,,,,,,,,,,,,,,,,,,,,,,,,,,,,,,,,,,,,,,,,,,,,,,,,,,,,,,,,,,,,,,,,,,,,,,,,,,,,,,,,,,,,,,,,,,,,,,,,,,,,
,,,,,,60eb274540d8358b70fdbb1d,62c538bf54f3a38dea76a902,2022-07-06_09h34.23.132,Colour_Asymmetry_Pilot,2022.1.3,Win32,57.43495491,62c50e9c1127f2cd403a315f,0,48,48,24,1,onetwo,,,,,,,,,,,,,,,,,,,,,,,,,,,,,,,,,,,,,,,,,,,,,,,,,,,,,,,,,,,,,,,,,,,,,,,,,,,,,,,,,,,,,,,,,,,,,,,,,,,,,,,,,,,,,,,,,,,,,,,,,,,,,,,,,,,,,,,,,,,,,,,,,,,,,,,,,,,,,
,,,,,,60eb274540d8358b70fdbb1d,62c538bf54f3a38dea76a902,2022-07-06_09h34.23.132,Colour_Asymmetry_Pilot,2022.1.3,Win32,57.43495491,62c50e9c1127f2cd403a315f,0,49,49,61,1,threefour,,,,,,,,,,,,,,,,,,,,,,,,,,,,,,,,,,,,,,,,,,,,,,,,,,,,,,,,,,,,,,,,,,,,,,,,,,,,,,,,,,,,,,,,,,,,,,,,,,,,,,,,,,,,,,,,,,,,,,,,,,,,,,,,,,,,,,,,,,,,,,,,,,,,,,,,,,,,,
,,,,,,60eb274540d8358b70fdbb1d,62c538bf54f3a38dea76a902,2022-07-06_09h34.23.132,Colour_Asymmetry_Pilot,2022.1.3,Win32,57.43495491,62c50e9c1127f2cd403a315f,0,50,50,55,1,fourthree,,,,,,,,,,,,,,,,,,,,,,,,,,,,,,,,,,,,,,,,,,,,,,,,,,,,,,,,,,,,,,,,,,,,,,,,,,,,,,,,,,,,,,,,,,,,,,,,,,,,,,,,,,,,,,,,,,,,,,,,,,,,,,,,,,,,,,,,,,,,,,,,,,,,,,,,,,,,,
,,,,,,60eb274540d8358b70fdbb1d,62c538bf54f3a38dea76a902,2022-07-06_09h34.23.132,Colour_Asymmetry_Pilot,2022.1.3,Win32,57.43495491,62c50e9c1127f2cd403a315f,0,51,51,22,1,fourtwo,,,,,,,,,,,,,,,,,,,,,,,,,,,,,,,,,,,,,,,,,,,,,,,,,,,,,,,,,,,,,,,,,,,,,,,,,,,,,,,,,,,,,,,,,,,,,,,,,,,,,,,,,,,,,,,,,,,,,,,,,,,,,,,,,,,,,,,,,,,,,,,,,,,,,,,,,,,,,
,,,,,,60eb274540d8358b70fdbb1d,62c538bf54f3a38dea76a902,2022-07-06_09h34.23.132,Colour_Asymmetry_Pilot,2022.1.3,Win32,57.43495491,62c50e9c1127f2cd403a315f,0,52,52,34,1,twoone,,,,,,,,,,,,,,,,,,,,,,,,,,,,,,,,,,,,,,,,,,,,,,,,,,,,,,,,,,,,,,,,,,,,,,,,,,,,,,,,,,,,,,,,,,,,,,,,,,,,,,,,,,,,,,,,,,,,,,,,,,,,,,,,,,,,,,,,,,,,,,,,,,,,,,,,,,,,,
,,,,,,60eb274540d8358b70fdbb1d,62c538bf54f3a38dea76a902,2022-07-06_09h34.23.132,Colour_Asymmetry_Pilot,2022.1.3,Win32,57.43495491,62c50e9c1127f2cd403a315f,0,53,53,65,1,onethree,,,,,,,,,,,,,,,,,,,,,,,,,,,,,,,,,,,,,,,,,,,,,,,,,,,,,,,,,,,,,,,,,,,,,,,,,,,,,,,,,,,,,,,,,,,,,,,,,,,,,,,,,,,,,,,,,,,,,,,,,,,,,,,,,,,,,,,,,,,,,,,,,,,,,,,,,,,,,
,,,,,,60eb274540d8358b70fdbb1d,62c538bf54f3a38dea76a902,2022-07-06_09h34.23.132,Colour_Asymmetry_Pilot,2022.1.3,Win32,57.43495491,62c50e9c1127f2cd403a315f,0,54,54,143,1,fourthree,,,,,,,,,,,,,,,,,,,,,,,,,,,,,,,,,,,,,,,,,,,,,,,,,,,,,,,,,,,,,,,,,,,,,,,,,,,,,,,,,,,,,,,,,,,,,,,,,,,,,,,,,,,,,,,,,,,,,,,,,,,,,,,,,,,,,,,,,,,,,,,,,,,,,,,,,,,,,
,,,,,,60eb274540d8358b70fdbb1d,62c538bf54f3a38dea76a902,2022-07-06_09h34.23.132,Colour_Asymmetry_Pilot,2022.1.3,Win32,57.43495491,62c50e9c1127f2cd403a315f,0,55,55,36,1,threeone,,,,,,,,,,,,,,,,,,,,,,,,,,,,,,,,,,,,,,,,,,,,,,,,,,,,,,,,,,,,,,,,,,,,,,,,,,,,,,,,,,,,,,,,,,,,,,,,,,,,,,,,,,,,,,,,,,,,,,,,,,,,,,,,,,,,,,,,,,,,,,,,,,,,,,,,,,,,,
,,,,,,60eb274540d8358b70fdbb1d,62c538bf54f3a38dea76a902,2022-07-06_09h34.23.132,Colour_Asymmetry_Pilot,2022.1.3,Win32,57.43495491,62c50e9c1127f2cd403a315f,0,56,56,120,1,onetwo,,,,,,,,,,,,,,,,,,,,,,,,,,,,,,,,,,,,,,,,,,,,,,,,,,,,,,,,,,,,,,,,,,,,,,,,,,,,,,,,,,,,,,,,,,,,,,,,,,,,,,,,,,,,,,,,,,,,,,,,,,,,,,,,,,,,,,,,,,,,,,,,,,,,,,,,,,,,,
,,,,,,60eb274540d8358b70fdbb1d,62c538bf54f3a38dea76a902,2022-07-06_09h34.23.132,Colour_Asymmetry_Pilot,2022.1.3,Win32,57.43495491,62c50e9c1127f2cd403a315f,0,57,57,38,1,fourtwo,,,,,,,,,,,,,,,,,,,,,,,,,,,,,,,,,,,,,,,,,,,,,,,,,,,,,,,,,,,,,,,,,,,,,,,,,,,,,,,,,,,,,,,,,,,,,,,,,,,,,,,,,,,,,,,,,,,,,,,,,,,,,,,,,,,,,,,,,,,,,,,,,,,,,,,,,,,,,
,,,,,,60eb274540d8358b70fdbb1d,62c538bf54f3a38dea76a902,2022-07-06_09h34.23.132,Colour_Asymmetry_Pilot,2022.1.3,Win32,57.43495491,62c50e9c1127f2cd403a315f,0,58,58,112,1,onetwo,,,,,,,,,,,,,,,,,,,,,,,,,,,,,,,,,,,,,,,,,,,,,,,,,,,,,,,,,,,,,,,,,,,,,,,,,,,,,,,,,,,,,,,,,,,,,,,,,,,,,,,,,,,,,,,,,,,,,,,,,,,,,,,,,,,,,,,,,,,,,,,,,,,,,,,,,,,,,
,,,,,,60eb274540d8358b70fdbb1d,62c538bf54f3a38dea76a902,2022-07-06_09h34.23.132,Colour_Asymmetry_Pilot,2022.1.3,Win32,57.43495491,62c50e9c1127f2cd403a315f,0,59,59,5,1,threefour,,,,,,,,,,,,,,,,,,,,,,,,,,,,,,,,,,,,,,,,,,,,,,,,,,,,,,,,,,,,,,,,,,,,,,,,,,,,,,,,,,,,,,,,,,,,,,,,,,,,,,,,,,,,,,,,,,,,,,,,,,,,,,,,,,,,,,,,,,,,,,,,,,,,,,,,,,,,,
,,,,,,60eb274540d8358b70fdbb1d,62c538bf54f3a38dea76a902,2022-07-06_09h34.23.132,Colour_Asymmetry_Pilot,2022.1.3,Win32,57.43495491,62c50e9c1127f2cd403a315f,0,60,60,93,1,threefour,,,,,,,,,,,,,,,,,,,,,,,,,,,,,,,,,,,,,,,,,,,,,,,,,,,,,,,,,,,,,,,,,,,,,,,,,,,,,,,,,,,,,,,,,,,,,,,,,,,,,,,,,,,,,,,,,,,,,,,,,,,,,,,,,,,,,,,,,,,,,,,,,,,,,,,,,,,,,
,,,,,,60eb274540d8358b70fdbb1d,62c538bf54f3a38dea76a902,2022-07-06_09h34.23.132,Colour_Asymmetry_Pilot,2022.1.3,Win32,57.43495491,62c50e9c1127f2cd403a315f,0,61,61,125,1,threefour,,,,,,,,,,,,,,,,,,,,,,,,,,,,,,,,,,,,,,,,,,,,,,,,,,,,,,,,,,,,,,,,,,,,,,,,,,,,,,,,,,,,,,,,,,,,,,,,,,,,,,,,,,,,,,,,,,,,,,,,,,,,,,,,,,,,,,,,,,,,,,,,,,,,,,,,,,,,,
,,,,,,60eb274540d8358b70fdbb1d,62c538bf54f3a38dea76a902,2022-07-06_09h34.23.132,Colour_Asymmetry_Pilot,2022.1.3,Win32,57.43495491,62c50e9c1127f2cd403a315f,0,62,62,83,1,twofour,,,,,,,,,,,,,,,,,,,,,,,,,,,,,,,,,,,,,,,,,,,,,,,,,,,,,,,,,,,,,,,,,,,,,,,,,,,,,,,,,,,,,,,,,,,,,,,,,,,,,,,,,,,,,,,,,,,,,,,,,,,,,,,,,,,,,,,,,,,,,,,,,,,,,,,,,,,,,
,,,,,,60eb274540d8358b70fdbb1d,62c538bf54f3a38dea76a902,2022-07-06_09h34.23.132,Colour_Asymmetry_Pilot,2022.1.3,Win32,57.43495491,62c50e9c1127f2cd403a315f,0,63,63,56,1,onetwo,,,,,,,,,,,,,,,,,,,,,,,,,,,,,,,,,,,,,,,,,,,,,,,,,,,,,,,,,,,,,,,,,,,,,,,,,,,,,,,,,,,,,,,,,,,,,,,,,,,,,,,,,,,,,,,,,,,,,,,,,,,,,,,,,,,,,,,,,,,,,,,,,,,,,,,,,,,,,
,,,,,,60eb274540d8358b70fdbb1d,62c538bf54f3a38dea76a902,2022-07-06_09h34.23.132,Colour_Asymmetry_Pilot,2022.1.3,Win32,57.43495491,62c50e9c1127f2cd403a315f,0,64,64,95,1,fourthree,,,,,,,,,,,,,,,,,,,,,,,,,,,,,,,,,,,,,,,,,,,,,,,,,,,,,,,,,,,,,,,,,,,,,,,,,,,,,,,,,,,,,,,,,,,,,,,,,,,,,,,,,,,,,,,,,,,,,,,,,,,,,,,,,,,,,,,,,,,,,,,,,,,,,,,,,,,,,
,,,,,,60eb274540d8358b70fdbb1d,62c538bf54f3a38dea76a902,2022-07-06_09h34.23.132,Colour_Asymmetry_Pilot,2022.1.3,Win32,57.43495491,62c50e9c1127f2cd403a315f,0,65,65,130,1,twoone,,,,,,,,,,,,,,,,,,,,,,,,,,,,,,,,,,,,,,,,,,,,,,,,,,,,,,,,,,,,,,,,,,,,,,,,,,,,,,,,,,,,,,,,,,,,,,,,,,,,,,,,,,,,,,,,,,,,,,,,,,,,,,,,,,,,,,,,,,,,,,,,,,,,,,,,,,,,,
,,,,,,60eb274540d8358b70fdbb1d,62c538bf54f3a38dea76a902,2022-07-06_09h34.23.132,Colour_Asymmetry_Pilot,2022.1.3,Win32,57.43495491,62c50e9c1127f2cd403a315f,0,66,66,147,1,twofour,,,,,,,,,,,,,,,,,,,,,,,,,,,,,,,,,,,,,,,,,,,,,,,,,,,,,,,,,,,,,,,,,,,,,,,,,,,,,,,,,,,,,,,,,,,,,,,,,,,,,,,,,,,,,,,,,,,,,,,,,,,,,,,,,,,,,,,,,,,,,,,,,,,,,,,,,,,,,
,,,,,,60eb274540d8358b70fdbb1d,62c538bf54f3a38dea76a902,2022-07-06_09h34.23.132,Colour_Asymmetry_Pilot,2022.1.3,Win32,57.43495491,62c50e9c1127f2cd403a315f,0,67,67,106,1,twoone,,,,,,,,,,,,,,,,,,,,,,,,,,,,,,,,,,,,,,,,,,,,,,,,,,,,,,,,,,,,,,,,,,,,,,,,,,,,,,,,,,,,,,,,,,,,,,,,,,,,,,,,,,,,,,,,,,,,,,,,,,,,,,,,,,,,,,,,,,,,,,,,,,,,,,,,,,,,,
,,,,,,60eb274540d8358b70fdbb1d,62c538bf54f3a38dea76a902,2022-07-06_09h34.23.132,Colour_Asymmetry_Pilot,2022.1.3,Win32,57.43495491,62c50e9c1127f2cd403a315f,0,68,68,97,1,onethree,,,,,,,,,,,,,,,,,,,,,,,,,,,,,,,,,,,,,,,,,,,,,,,,,,,,,,,,,,,,,,,,,,,,,,,,,,,,,,,,,,,,,,,,,,,,,,,,,,,,,,,,,,,,,,,,,,,,,,,,,,,,,,,,,,,,,,,,,,,,,,,,,,,,,,,,,,,,,
,,,,,,60eb274540d8358b70fdbb1d,62c538bf54f3a38dea76a902,2022-07-06_09h34.23.132,Colour_Asymmetry_Pilot,2022.1.3,Win32,57.43495491,62c50e9c1127f2cd403a315f,0,69,69,122,1,twoone,,,,,,,,,,,,,,,,,,,,,,,,,,,,,,,,,,,,,,,,,,,,,,,,,,,,,,,,,,,,,,,,,,,,,,,,,,,,,,,,,,,,,,,,,,,,,,,,,,,,,,,,,,,,,,,,,,,,,,,,,,,,,,,,,,,,,,,,,,,,,,,,,,,,,,,,,,,,,
,,,,,,60eb274540d8358b70fdbb1d,62c538bf54f3a38dea76a902,2022-07-06_09h34.23.132,Colour_Asymmetry_Pilot,2022.1.3,Win32,57.43495491,62c50e9c1127f2cd403a315f,0,70,70,119,1,fourthree,,,,,,,,,,,,,,,,,,,,,,,,,,,,,,,,,,,,,,,,,,,,,,,,,,,,,,,,,,,,,,,,,,,,,,,,,,,,,,,,,,,,,,,,,,,,,,,,,,,,,,,,,,,,,,,,,,,,,,,,,,,,,,,,,,,,,,,,,,,,,,,,,,,,,,,,,,,,,
,,,,,,60eb274540d8358b70fdbb1d,62c538bf54f3a38dea76a902,2022-07-06_09h34.23.132,Colour_Asymmetry_Pilot,2022.1.3,Win32,57.43495491,62c50e9c1127f2cd403a315f,0,71,71,37,1,threefour,,,,,,,,,,,,,,,,,,,,,,,,,,,,,,,,,,,,,,,,,,,,,,,,,,,,,,,,,,,,,,,,,,,,,,,,,,,,,,,,,,,,,,,,,,,,,,,,,,,,,,,,,,,,,,,,,,,,,,,,,,,,,,,,,,,,,,,,,,,,,,,,,,,,,,,,,,,,,
,,,,,,60eb274540d8358b70fdbb1d,62c538bf54f3a38dea76a902,2022-07-06_09h34.23.132,Colour_Asymmetry_Pilot,2022.1.3,Win32,57.43495491,62c50e9c1127f2cd403a315f,0,72,72,18,1,twoone,,,,,,,,,,,,,,,,,,,,,,,,,,,,,,,,,,,,,,,,,,,,,,,,,,,,,,,,,,,,,,,,,,,,,,,,,,,,,,,,,,,,,,,,,,,,,,,,,,,,,,,,,,,,,,,,,,,,,,,,,,,,,,,,,,,,,,,,,,,,,,,,,,,,,,,,,,,,,
,,,,,,60eb274540d8358b70fdbb1d,62c538bf54f3a38dea76a902,2022-07-06_09h34.23.132,Colour_Asymmetry_Pilot,2022.1.3,Win32,57.43495491,62c50e9c1127f2cd403a315f,0,73,73,13,1,threefour,,,,,,,,,,,,,,,,,,,,,,,,,,,,,,,,,,,,,,,,,,,,,,,,,,,,,,,,,,,,,,,,,,,,,,,,,,,,,,,,,,,,,,,,,,,,,,,,,,,,,,,,,,,,,,,,,,,,,,,,,,,,,,,,,,,,,,,,,,,,,,,,,,,,,,,,,,,,,
,,,,,,60eb274540d8358b70fdbb1d,62c538bf54f3a38dea76a902,2022-07-06_09h34.23.132,Colour_Asymmetry_Pilot,2022.1.3,Win32,57.43495491,62c50e9c1127f2cd403a315f,0,74,74,114,1,twoone,,,,,,,,,,,,,,,,,,,,,,,,,,,,,,,,,,,,,,,,,,,,,,,,,,,,,,,,,,,,,,,,,,,,,,,,,,,,,,,,,,,,,,,,,,,,,,,,,,,,,,,,,,,,,,,,,,,,,,,,,,,,,,,,,,,,,,,,,,,,,,,,,,,,,,,,,,,,,
,,,,,,60eb274540d8358b70fdbb1d,62c538bf54f3a38dea76a902,2022-07-06_09h34.23.132,Colour_Asymmetry_Pilot,2022.1.3,Win32,57.43495491,62c50e9c1127f2cd403a315f,0,75,75,40,1,onetwo,,,,,,,,,,,,,,,,,,,,,,,,,,,,,,,,,,,,,,,,,,,,,,,,,,,,,,,,,,,,,,,,,,,,,,,,,,,,,,,,,,,,,,,,,,,,,,,,,,,,,,,,,,,,,,,,,,,,,,,,,,,,,,,,,,,,,,,,,,,,,,,,,,,,,,,,,,,,,
,,,,,,60eb274540d8358b70fdbb1d,62c538bf54f3a38dea76a902,2022-07-06_09h34.23.132,Colour_Asymmetry_Pilot,2022.1.3,Win32,57.43495491,62c50e9c1127f2cd403a315f,0,76,76,46,1,fourtwo,,,,,,,,,,,,,,,,,,,,,,,,,,,,,,,,,,,,,,,,,,,,,,,,,,,,,,,,,,,,,,,,,,,,,,,,,,,,,,,,,,,,,,,,,,,,,,,,,,,,,,,,,,,,,,,,,,,,,,,,,,,,,,,,,,,,,,,,,,,,,,,,,,,,,,,,,,,,,
,,,,,,60eb274540d8358b70fdbb1d,62c538bf54f3a38dea76a902,2022-07-06_09h34.23.132,Colour_Asymmetry_Pilot,2022.1.3,Win32,57.43495491,62c50e9c1127f2cd403a315f,0,77,77,116,1,threeone,,,,,,,,,,,,,,,,,,,,,,,,,,,,,,,,,,,,,,,,,,,,,,,,,,,,,,,,,,,,,,,,,,,,,,,,,,,,,,,,,,,,,,,,,,,,,,,,,,,,,,,,,,,,,,,,,,,,,,,,,,,,,,,,,,,,,,,,,,,,,,,,,,,,,,,,,,,,,
,,,,,,60eb274540d8358b70fdbb1d,62c538bf54f3a38dea76a902,2022-07-06_09h34.23.132,Colour_Asymmetry_Pilot,2022.1.3,Win32,57.43495491,62c50e9c1127f2cd403a315f,0,78,78,39,1,fourthree,,,,,,,,,,,,,,,,,,,,,,,,,,,,,,,,,,,,,,,,,,,,,,,,,,,,,,,,,,,,,,,,,,,,,,,,,,,,,,,,,,,,,,,,,,,,,,,,,,,,,,,,,,,,,,,,,,,,,,,,,,,,,,,,,,,,,,,,,,,,,,,,,,,,,,,,,,,,,
,,,,,,60eb274540d8358b70fdbb1d,62c538bf54f3a38dea76a902,2022-07-06_09h34.23.132,Colour_Asymmetry_Pilot,2022.1.3,Win32,57.43495491,62c50e9c1127f2cd403a315f,0,79,79,31,1,fourthree,,,,,,,,,,,,,,,,,,,,,,,,,,,,,,,,,,,,,,,,,,,,,,,,,,,,,,,,,,,,,,,,,,,,,,,,,,,,,,,,,,,,,,,,,,,,,,,,,,,,,,,,,,,,,,,,,,,,,,,,,,,,,,,,,,,,,,,,,,,,,,,,,,,,,,,,,,,,,
,,,,,,60eb274540d8358b70fdbb1d,62c538bf54f3a38dea76a902,2022-07-06_09h34.23.132,Colour_Asymmetry_Pilot,2022.1.3,Win32,57.43495491,62c50e9c1127f2cd403a315f,0,80,80,102,1,fourtwo,,,,,,,,,,,,,,,,,,,,,,,,,,,,,,,,,,,,,,,,,,,,,,,,,,,,,,,,,,,,,,,,,,,,,,,,,,,,,,,,,,,,,,,,,,,,,,,,,,,,,,,,,,,,,,,,,,,,,,,,,,,,,,,,,,,,,,,,,,,,,,,,,,,,,,,,,,,,,
,,,,,,60eb274540d8358b70fdbb1d,62c538bf54f3a38dea76a902,2022-07-06_09h34.23.132,Colour_Asymmetry_Pilot,2022.1.3,Win32,57.43495491,62c50e9c1127f2cd403a315f,0,81,81,133,1,threefour,,,,,,,,,,,,,,,,,,,,,,,,,,,,,,,,,,,,,,,,,,,,,,,,,,,,,,,,,,,,,,,,,,,,,,,,,,,,,,,,,,,,,,,,,,,,,,,,,,,,,,,,,,,,,,,,,,,,,,,,,,,,,,,,,,,,,,,,,,,,,,,,,,,,,,,,,,,,,
,,,,,,60eb274540d8358b70fdbb1d,62c538bf54f3a38dea76a902,2022-07-06_09h34.23.132,Colour_Asymmetry_Pilot,2022.1.3,Win32,57.43495491,62c50e9c1127f2cd403a315f,0,82,82,43,1,twofour,,,,,,,,,,,,,,,,,,,,,,,,,,,,,,,,,,,,,,,,,,,,,,,,,,,,,,,,,,,,,,,,,,,,,,,,,,,,,,,,,,,,,,,,,,,,,,,,,,,,,,,,,,,,,,,,,,,,,,,,,,,,,,,,,,,,,,,,,,,,,,,,,,,,,,,,,,,,,
,,,,,,60eb274540d8358b70fdbb1d,62c538bf54f3a38dea76a902,2022-07-06_09h34.23.132,Colour_Asymmetry_Pilot,2022.1.3,Win32,57.43495491,62c50e9c1127f2cd403a315f,0,83,83,159,1,fourthree,,,,,,,,,,,,,,,,,,,,,,,,,,,,,,,,,,,,,,,,,,,,,,,,,,,,,,,,,,,,,,,,,,,,,,,,,,,,,,,,,,,,,,,,,,,,,,,,,,,,,,,,,,,,,,,,,,,,,,,,,,,,,,,,,,,,,,,,,,,,,,,,,,,,,,,,,,,,,
,,,,,,60eb274540d8358b70fdbb1d,62c538bf54f3a38dea76a902,2022-07-06_09h34.23.132,Colour_Asymmetry_Pilot,2022.1.3,Win32,57.43495491,62c50e9c1127f2cd403a315f,0,84,84,137,1,onethree,,,,,,,,,,,,,,,,,,,,,,,,,,,,,,,,,,,,,,,,,,,,,,,,,,,,,,,,,,,,,,,,,,,,,,,,,,,,,,,,,,,,,,,,,,,,,,,,,,,,,,,,,,,,,,,,,,,,,,,,,,,,,,,,,,,,,,,,,,,,,,,,,,,,,,,,,,,,,
,,,,,,60eb274540d8358b70fdbb1d,62c538bf54f3a38dea76a902,2022-07-06_09h34.23.132,Colour_Asymmetry_Pilot,2022.1.3,Win32,57.43495491,62c50e9c1127f2cd403a315f,0,85,85,23,1,fourthree,,,,,,,,,,,,,,,,,,,,,,,,,,,,,,,,,,,,,,,,,,,,,,,,,,,,,,,,,,,,,,,,,,,,,,,,,,,,,,,,,,,,,,,,,,,,,,,,,,,,,,,,,,,,,,,,,,,,,,,,,,,,,,,,,,,,,,,,,,,,,,,,,,,,,,,,,,,,,
,,,,,,60eb274540d8358b70fdbb1d,62c538bf54f3a38dea76a902,2022-07-06_09h34.23.132,Colour_Asymmetry_Pilot,2022.1.3,Win32,57.43495491,62c50e9c1127f2cd403a315f,0,86,86,2,1,twoone,,,,,,,,,,,,,,,,,,,,,,,,,,,,,,,,,,,,,,,,,,,,,,,,,,,,,,,,,,,,,,,,,,,,,,,,,,,,,,,,,,,,,,,,,,,,,,,,,,,,,,,,,,,,,,,,,,,,,,,,,,,,,,,,,,,,,,,,,,,,,,,,,,,,,,,,,,,,,
,,,,,,60eb274540d8358b70fdbb1d,62c538bf54f3a38dea76a902,2022-07-06_09h34.23.132,Colour_Asymmetry_Pilot,2022.1.3,Win32,57.43495491,62c50e9c1127f2cd403a315f,0,87,87,89,1,onethree,,,,,,,,,,,,,,,,,,,,,,,,,,,,,,,,,,,,,,,,,,,,,,,,,,,,,,,,,,,,,,,,,,,,,,,,,,,,,,,,,,,,,,,,,,,,,,,,,,,,,,,,,,,,,,,,,,,,,,,,,,,,,,,,,,,,,,,,,,,,,,,,,,,,,,,,,,,,,
,,,,,,60eb274540d8358b70fdbb1d,62c538bf54f3a38dea76a902,2022-07-06_09h34.23.132,Colour_Asymmetry_Pilot,2022.1.3,Win32,57.43495491,62c50e9c1127f2cd403a315f,0,88,88,85,1,threefour,,,,,,,,,,,,,,,,,,,,,,,,,,,,,,,,,,,,,,,,,,,,,,,,,,,,,,,,,,,,,,,,,,,,,,,,,,,,,,,,,,,,,,,,,,,,,,,,,,,,,,,,,,,,,,,,,,,,,,,,,,,,,,,,,,,,,,,,,,,,,,,,,,,,,,,,,,,,,
,,,,,,60eb274540d8358b70fdbb1d,62c538bf54f3a38dea76a902,2022-07-06_09h34.23.132,Colour_Asymmetry_Pilot,2022.1.3,Win32,57.43495491,62c50e9c1127f2cd403a315f,0,89,89,60,1,threeone,,,,,,,,,,,,,,,,,,,,,,,,,,,,,,,,,,,,,,,,,,,,,,,,,,,,,,,,,,,,,,,,,,,,,,,,,,,,,,,,,,,,,,,,,,,,,,,,,,,,,,,,,,,,,,,,,,,,,,,,,,,,,,,,,,,,,,,,,,,,,,,,,,,,,,,,,,,,,
,,,,,,60eb274540d8358b70fdbb1d,62c538bf54f3a38dea76a902,2022-07-06_09h34.23.132,Colour_Asymmetry_Pilot,2022.1.3,Win32,57.43495491,62c50e9c1127f2cd403a315f,0,90,90,121,1,onethree,,,,,,,,,,,,,,,,,,,,,,,,,,,,,,,,,,,,,,,,,,,,,,,,,,,,,,,,,,,,,,,,,,,,,,,,,,,,,,,,,,,,,,,,,,,,,,,,,,,,,,,,,,,,,,,,,,,,,,,,,,,,,,,,,,,,,,,,,,,,,,,,,,,,,,,,,,,,,
,,,,,,60eb274540d8358b70fdbb1d,62c538bf54f3a38dea76a902,2022-07-06_09h34.23.132,Colour_Asymmetry_Pilot,2022.1.3,Win32,57.43495491,62c50e9c1127f2cd403a315f,0,91,91,32,1,onetwo,,,,,,,,,,,,,,,,,,,,,,,,,,,,,,,,,,,,,,,,,,,,,,,,,,,,,,,,,,,,,,,,,,,,,,,,,,,,,,,,,,,,,,,,,,,,,,,,,,,,,,,,,,,,,,,,,,,,,,,,,,,,,,,,,,,,,,,,,,,,,,,,,,,,,,,,,,,,,
,,,,,,60eb274540d8358b70fdbb1d,62c538bf54f3a38dea76a902,2022-07-06_09h34.23.132,Colour_Asymmetry_Pilot,2022.1.3,Win32,57.43495491,62c50e9c1127f2cd403a315f,0,92,92,141,1,threefour,,,,,,,,,,,,,,,,,,,,,,,,,,,,,,,,,,,,,,,,,,,,,,,,,,,,,,,,,,,,,,,,,,,,,,,,,,,,,,,,,,,,,,,,,,,,,,,,,,,,,,,,,,,,,,,,,,,,,,,,,,,,,,,,,,,,,,,,,,,,,,,,,,,,,,,,,,,,,
,,,,,,60eb274540d8358b70fdbb1d,62c538bf54f3a38dea76a902,2022-07-06_09h34.23.132,Colour_Asymmetry_Pilot,2022.1.3,Win32,57.43495491,62c50e9c1127f2cd403a315f,0,93,93,4,1,threeone,,,,,,,,,,,,,,,,,,,,,,,,,,,,,,,,,,,,,,,,,,,,,,,,,,,,,,,,,,,,,,,,,,,,,,,,,,,,,,,,,,,,,,,,,,,,,,,,,,,,,,,,,,,,,,,,,,,,,,,,,,,,,,,,,,,,,,,,,,,,,,,,,,,,,,,,,,,,,
,,,,,,60eb274540d8358b70fdbb1d,62c538bf54f3a38dea76a902,2022-07-06_09h34.23.132,Colour_Asymmetry_Pilot,2022.1.3,Win32,57.43495491,62c50e9c1127f2cd403a315f,0,94,94,150,1,fourtwo,,,,,,,,,,,,,,,,,,,,,,,,,,,,,,,,,,,,,,,,,,,,,,,,,,,,,,,,,,,,,,,,,,,,,,,,,,,,,,,,,,,,,,,,,,,,,,,,,,,,,,,,,,,,,,,,,,,,,,,,,,,,,,,,,,,,,,,,,,,,,,,,,,,,,,,,,,,,,
,,,,,,60eb274540d8358b70fdbb1d,62c538bf54f3a38dea76a902,2022-07-06_09h34.23.132,Colour_Asymmetry_Pilot,2022.1.3,Win32,57.43495491,62c50e9c1127f2cd403a315f,0,95,95,33,1,onethree,,,,,,,,,,,,,,,,,,,,,,,,,,,,,,,,,,,,,,,,,,,,,,,,,,,,,,,,,,,,,,,,,,,,,,,,,,,,,,,,,,,,,,,,,,,,,,,,,,,,,,,,,,,,,,,,,,,,,,,,,,,,,,,,,,,,,,,,,,,,,,,,,,,,,,,,,,,,,
,,,,,,60eb274540d8358b70fdbb1d,62c538bf54f3a38dea76a902,2022-07-06_09h34.23.132,Colour_Asymmetry_Pilot,2022.1.3,Win32,57.43495491,62c50e9c1127f2cd403a315f,0,96,96,53,1,threefour,,,,,,,,,,,,,,,,,,,,,,,,,,,,,,,,,,,,,,,,,,,,,,,,,,,,,,,,,,,,,,,,,,,,,,,,,,,,,,,,,,,,,,,,,,,,,,,,,,,,,,,,,,,,,,,,,,,,,,,,,,,,,,,,,,,,,,,,,,,,,,,,,,,,,,,,,,,,,
,,,,,,60eb274540d8358b70fdbb1d,62c538bf54f3a38dea76a902,2022-07-06_09h34.23.132,Colour_Asymmetry_Pilot,2022.1.3,Win32,57.43495491,62c50e9c1127f2cd403a315f,0,97,97,63,1,fourthree,,,,,,,,,,,,,,,,,,,,,,,,,,,,,,,,,,,,,,,,,,,,,,,,,,,,,,,,,,,,,,,,,,,,,,,,,,,,,,,,,,,,,,,,,,,,,,,,,,,,,,,,,,,,,,,,,,,,,,,,,,,,,,,,,,,,,,,,,,,,,,,,,,,,,,,,,,,,,
,,,,,,60eb274540d8358b70fdbb1d,62c538bf54f3a38dea76a902,2022-07-06_09h34.23.132,Colour_Asymmetry_Pilot,2022.1.3,Win32,57.43495491,62c50e9c1127f2cd403a315f,0,98,98,73,1,onethree,,,,,,,,,,,,,,,,,,,,,,,,,,,,,,,,,,,,,,,,,,,,,,,,,,,,,,,,,,,,,,,,,,,,,,,,,,,,,,,,,,,,,,,,,,,,,,,,,,,,,,,,,,,,,,,,,,,,,,,,,,,,,,,,,,,,,,,,,,,,,,,,,,,,,,,,,,,,,
,,,,,,60eb274540d8358b70fdbb1d,62c538bf54f3a38dea76a902,2022-07-06_09h34.23.132,Colour_Asymmetry_Pilot,2022.1.3,Win32,57.43495491,62c50e9c1127f2cd403a315f,0,99,99,136,1,onetwo,,,,,,,,,,,,,,,,,,,,,,,,,,,,,,,,,,,,,,,,,,,,,,,,,,,,,,,,,,,,,,,,,,,,,,,,,,,,,,,,,,,,,,,,,,,,,,,,,,,,,,,,,,,,,,,,,,,,,,,,,,,,,,,,,,,,,,,,,,,,,,,,,,,,,,,,,,,,,
,,,,,,60eb274540d8358b70fdbb1d,62c538bf54f3a38dea76a902,2022-07-06_09h34.23.132,Colour_Asymmetry_Pilot,2022.1.3,Win32,57.43495491,62c50e9c1127f2cd403a315f,0,100,100,124,1,threeone,,,,,,,,,,,,,,,,,,,,,,,,,,,,,,,,,,,,,,,,,,,,,,,,,,,,,,,,,,,,,,,,,,,,,,,,,,,,,,,,,,,,,,,,,,,,,,,,,,,,,,,,,,,,,,,,,,,,,,,,,,,,,,,,,,,,,,,,,,,,,,,,,,,,,,,,,,,,,
,,,,,,60eb274540d8358b70fdbb1d,62c538bf54f3a38dea76a902,2022-07-06_09h34.23.132,Colour_Asymmetry_Pilot,2022.1.3,Win32,57.43495491,62c50e9c1127f2cd403a315f,0,101,101,91,1,twofour,,,,,,,,,,,,,,,,,,,,,,,,,,,,,,,,,,,,,,,,,,,,,,,,,,,,,,,,,,,,,,,,,,,,,,,,,,,,,,,,,,,,,,,,,,,,,,,,,,,,,,,,,,,,,,,,,,,,,,,,,,,,,,,,,,,,,,,,,,,,,,,,,,,,,,,,,,,,,
,,,,,,60eb274540d8358b70fdbb1d,62c538bf54f3a38dea76a902,2022-07-06_09h34.23.132,Colour_Asymmetry_Pilot,2022.1.3,Win32,57.43495491,62c50e9c1127f2cd403a315f,0,102,102,52,1,threeone,,,,,,,,,,,,,,,,,,,,,,,,,,,,,,,,,,,,,,,,,,,,,,,,,,,,,,,,,,,,,,,,,,,,,,,,,,,,,,,,,,,,,,,,,,,,,,,,,,,,,,,,,,,,,,,,,,,,,,,,,,,,,,,,,,,,,,,,,,,,,,,,,,,,,,,,,,,,,
,,,,,,60eb274540d8358b70fdbb1d,62c538bf54f3a38dea76a902,2022-07-06_09h34.23.132,Colour_Asymmetry_Pilot,2022.1.3,Win32,57.43495491,62c50e9c1127f2cd403a315f,0,103,103,103,1,fourthree,,,,,,,,,,,,,,,,,,,,,,,,,,,,,,,,,,,,,,,,,,,,,,,,,,,,,,,,,,,,,,,,,,,,,,,,,,,,,,,,,,,,,,,,,,,,,,,,,,,,,,,,,,,,,,,,,,,,,,,,,,,,,,,,,,,,,,,,,,,,,,,,,,,,,,,,,,,,,
,,,,,,60eb274540d8358b70fdbb1d,62c538bf54f3a38dea76a902,2022-07-06_09h34.23.132,Colour_Asymmetry_Pilot,2022.1.3,Win32,57.43495491,62c50e9c1127f2cd403a315f,0,104,104,148,1,threeone,,,,,,,,,,,,,,,,,,,,,,,,,,,,,,,,,,,,,,,,,,,,,,,,,,,,,,,,,,,,,,,,,,,,,,,,,,,,,,,,,,,,,,,,,,,,,,,,,,,,,,,,,,,,,,,,,,,,,,,,,,,,,,,,,,,,,,,,,,,,,,,,,,,,,,,,,,,,,
,,,,,,60eb274540d8358b70fdbb1d,62c538bf54f3a38dea76a902,2022-07-06_09h34.23.132,Colour_Asymmetry_Pilot,2022.1.3,Win32,57.43495491,62c50e9c1127f2cd403a315f,0,105,105,41,1,onethree,,,,,,,,,,,,,,,,,,,,,,,,,,,,,,,,,,,,,,,,,,,,,,,,,,,,,,,,,,,,,,,,,,,,,,,,,,,,,,,,,,,,,,,,,,,,,,,,,,,,,,,,,,,,,,,,,,,,,,,,,,,,,,,,,,,,,,,,,,,,,,,,,,,,,,,,,,,,,
,,,,,,60eb274540d8358b70fdbb1d,62c538bf54f3a38dea76a902,2022-07-06_09h34.23.132,Colour_Asymmetry_Pilot,2022.1.3,Win32,57.43495491,62c50e9c1127f2cd403a315f,0,106,106,100,1,threeone,,,,,,,,,,,,,,,,,,,,,,,,,,,,,,,,,,,,,,,,,,,,,,,,,,,,,,,,,,,,,,,,,,,,,,,,,,,,,,,,,,,,,,,,,,,,,,,,,,,,,,,,,,,,,,,,,,,,,,,,,,,,,,,,,,,,,,,,,,,,,,,,,,,,,,,,,,,,,
,,,,,,60eb274540d8358b70fdbb1d,62c538bf54f3a38dea76a902,2022-07-06_09h34.23.132,Colour_Asymmetry_Pilot,2022.1.3,Win32,57.43495491,62c50e9c1127f2cd403a315f,0,107,107,75,1,twofour,,,,,,,,,,,,,,,,,,,,,,,,,,,,,,,,,,,,,,,,,,,,,,,,,,,,,,,,,,,,,,,,,,,,,,,,,,,,,,,,,,,,,,,,,,,,,,,,,,,,,,,,,,,,,,,,,,,,,,,,,,,,,,,,,,,,,,,,,,,,,,,,,,,,,,,,,,,,,
,,,,,,60eb274540d8358b70fdbb1d,62c538bf54f3a38dea76a902,2022-07-06_09h34.23.132,Colour_Asymmetry_Pilot,2022.1.3,Win32,57.43495491,62c50e9c1127f2cd403a315f,0,108,108,21,1,threefour,,,,,,,,,,,,,,,,,,,,,,,,,,,,,,,,,,,,,,,,,,,,,,,,,,,,,,,,,,,,,,,,,,,,,,,,,,,,,,,,,,,,,,,,,,,,,,,,,,,,,,,,,,,,,,,,,,,,,,,,,,,,,,,,,,,,,,,,,,,,,,,,,,,,,,,,,,,,,
,,,,,,60eb274540d8358b70fdbb1d,62c538bf54f3a38dea76a902,2022-07-06_09h34.23.132,Colour_Asymmetry_Pilot,2022.1.3,Win32,57.43495491,62c50e9c1127f2cd403a315f,0,109,109,111,1,fourthree,,,,,,,,,,,,,,,,,,,,,,,,,,,,,,,,,,,,,,,,,,,,,,,,,,,,,,,,,,,,,,,,,,,,,,,,,,,,,,,,,,,,,,,,,,,,,,,,,,,,,,,,,,,,,,,,,,,,,,,,,,,,,,,,,,,,,,,,,,,,,,,,,,,,,,,,,,,,,
,,,,,,60eb274540d8358b70fdbb1d,62c538bf54f3a38dea76a902,2022-07-06_09h34.23.132,Colour_Asymmetry_Pilot,2022.1.3,Win32,57.43495491,62c50e9c1127f2cd403a315f,0,110,110,109,1,threefour,,,,,,,,,,,,,,,,,,,,,,,,,,,,,,,,,,,,,,,,,,,,,,,,,,,,,,,,,,,,,,,,,,,,,,,,,,,,,,,,,,,,,,,,,,,,,,,,,,,,,,,,,,,,,,,,,,,,,,,,,,,,,,,,,,,,,,,,,,,,,,,,,,,,,,,,,,,,,
,,,,,,60eb274540d8358b70fdbb1d,62c538bf54f3a38dea76a902,2022-07-06_09h34.23.132,Colour_Asymmetry_Pilot,2022.1.3,Win32,57.43495491,62c50e9c1127f2cd403a315f,0,111,111,19,1,twofour,,,,,,,,,,,,,,,,,,,,,,,,,,,,,,,,,,,,,,,,,,,,,,,,,,,,,,,,,,,,,,,,,,,,,,,,,,,,,,,,,,,,,,,,,,,,,,,,,,,,,,,,,,,,,,,,,,,,,,,,,,,,,,,,,,,,,,,,,,,,,,,,,,,,,,,,,,,,,
,,,,,,60eb274540d8358b70fdbb1d,62c538bf54f3a38dea76a902,2022-07-06_09h34.23.132,Colour_Asymmetry_Pilot,2022.1.3,Win32,57.43495491,62c50e9c1127f2cd403a315f,0,112,112,160,1,onetwo,,,,,,,,,,,,,,,,,,,,,,,,,,,,,,,,,,,,,,,,,,,,,,,,,,,,,,,,,,,,,,,,,,,,,,,,,,,,,,,,,,,,,,,,,,,,,,,,,,,,,,,,,,,,,,,,,,,,,,,,,,,,,,,,,,,,,,,,,,,,,,,,,,,,,,,,,,,,,
,,,,,,60eb274540d8358b70fdbb1d,62c538bf54f3a38dea76a902,2022-07-06_09h34.23.132,Colour_Asymmetry_Pilot,2022.1.3,Win32,57.43495491,62c50e9c1127f2cd403a315f,0,113,113,8,1,onetwo,,,,,,,,,,,,,,,,,,,,,,,,,,,,,,,,,,,,,,,,,,,,,,,,,,,,,,,,,,,,,,,,,,,,,,,,,,,,,,,,,,,,,,,,,,,,,,,,,,,,,,,,,,,,,,,,,,,,,,,,,,,,,,,,,,,,,,,,,,,,,,,,,,,,,,,,,,,,,
,,,,,,60eb274540d8358b70fdbb1d,62c538bf54f3a38dea76a902,2022-07-06_09h34.23.132,Colour_Asymmetry_Pilot,2022.1.3,Win32,57.43495491,62c50e9c1127f2cd403a315f,0,114,114,156,1,threeone,,,,,,,,,,,,,,,,,,,,,,,,,,,,,,,,,,,,,,,,,,,,,,,,,,,,,,,,,,,,,,,,,,,,,,,,,,,,,,,,,,,,,,,,,,,,,,,,,,,,,,,,,,,,,,,,,,,,,,,,,,,,,,,,,,,,,,,,,,,,,,,,,,,,,,,,,,,,,
,,,,,,60eb274540d8358b70fdbb1d,62c538bf54f3a38dea76a902,2022-07-06_09h34.23.132,Colour_Asymmetry_Pilot,2022.1.3,Win32,57.43495491,62c50e9c1127f2cd403a315f,0,115,115,70,1,fourtwo,,,,,,,,,,,,,,,,,,,,,,,,,,,,,,,,,,,,,,,,,,,,,,,,,,,,,,,,,,,,,,,,,,,,,,,,,,,,,,,,,,,,,,,,,,,,,,,,,,,,,,,,,,,,,,,,,,,,,,,,,,,,,,,,,,,,,,,,,,,,,,,,,,,,,,,,,,,,,
,,,,,,60eb274540d8358b70fdbb1d,62c538bf54f3a38dea76a902,2022-07-06_09h34.23.132,Colour_Asymmetry_Pilot,2022.1.3,Win32,57.43495491,62c50e9c1127f2cd403a315f,0,116,116,59,1,twofour,,,,,,,,,,,,,,,,,,,,,,,,,,,,,,,,,,,,,,,,,,,,,,,,,,,,,,,,,,,,,,,,,,,,,,,,,,,,,,,,,,,,,,,,,,,,,,,,,,,,,,,,,,,,,,,,,,,,,,,,,,,,,,,,,,,,,,,,,,,,,,,,,,,,,,,,,,,,,
,,,,,,60eb274540d8358b70fdbb1d,62c538bf54f3a38dea76a902,2022-07-06_09h34.23.132,Colour_Asymmetry_Pilot,2022.1.3,Win32,57.43495491,62c50e9c1127f2cd403a315f,0,117,117,25,1,onethree,,,,,,,,,,,,,,,,,,,,,,,,,,,,,,,,,,,,,,,,,,,,,,,,,,,,,,,,,,,,,,,,,,,,,,,,,,,,,,,,,,,,,,,,,,,,,,,,,,,,,,,,,,,,,,,,,,,,,,,,,,,,,,,,,,,,,,,,,,,,,,,,,,,,,,,,,,,,,
,,,,,,60eb274540d8358b70fdbb1d,62c538bf54f3a38dea76a902,2022-07-06_09h34.23.132,Colour_Asymmetry_Pilot,2022.1.3,Win32,57.43495491,62c50e9c1127f2cd403a315f,0,118,118,26,1,twoone,,,,,,,,,,,,,,,,,,,,,,,,,,,,,,,,,,,,,,,,,,,,,,,,,,,,,,,,,,,,,,,,,,,,,,,,,,,,,,,,,,,,,,,,,,,,,,,,,,,,,,,,,,,,,,,,,,,,,,,,,,,,,,,,,,,,,,,,,,,,,,,,,,,,,,,,,,,,,
,,,,,,60eb274540d8358b70fdbb1d,62c538bf54f3a38dea76a902,2022-07-06_09h34.23.132,Colour_Asymmetry_Pilot,2022.1.3,Win32,57.43495491,62c50e9c1127f2cd403a315f,0,119,119,58,1,twoone,,,,,,,,,,,,,,,,,,,,,,,,,,,,,,,,,,,,,,,,,,,,,,,,,,,,,,,,,,,,,,,,,,,,,,,,,,,,,,,,,,,,,,,,,,,,,,,,,,,,,,,,,,,,,,,,,,,,,,,,,,,,,,,,,,,,,,,,,,,,,,,,,,,,,,,,,,,,,
,,,,,,60eb274540d8358b70fdbb1d,62c538bf54f3a38dea76a902,2022-07-06_09h34.23.132,Colour_Asymmetry_Pilot,2022.1.3,Win32,57.43495491,62c50e9c1127f2cd403a315f,0,120,120,51,1,twofour,,,,,,,,,,,,,,,,,,,,,,,,,,,,,,,,,,,,,,,,,,,,,,,,,,,,,,,,,,,,,,,,,,,,,,,,,,,,,,,,,,,,,,,,,,,,,,,,,,,,,,,,,,,,,,,,,,,,,,,,,,,,,,,,,,,,,,,,,,,,,,,,,,,,,,,,,,,,,
,,,,,,60eb274540d8358b70fdbb1d,62c538bf54f3a38dea76a902,2022-07-06_09h34.23.132,Colour_Asymmetry_Pilot,2022.1.3,Win32,57.43495491,62c50e9c1127f2cd403a315f,0,121,121,132,1,threeone,,,,,,,,,,,,,,,,,,,,,,,,,,,,,,,,,,,,,,,,,,,,,,,,,,,,,,,,,,,,,,,,,,,,,,,,,,,,,,,,,,,,,,,,,,,,,,,,,,,,,,,,,,,,,,,,,,,,,,,,,,,,,,,,,,,,,,,,,,,,,,,,,,,,,,,,,,,,,
,,,,,,60eb274540d8358b70fdbb1d,62c538bf54f3a38dea76a902,2022-07-06_09h34.23.132,Colour_Asymmetry_Pilot,2022.1.3,Win32,57.43495491,62c50e9c1127f2cd403a315f,0,122,122,12,1,threeone,,,,,,,,,,,,,,,,,,,,,,,,,,,,,,,,,,,,,,,,,,,,,,,,,,,,,,,,,,,,,,,,,,,,,,,,,,,,,,,,,,,,,,,,,,,,,,,,,,,,,,,,,,,,,,,,,,,,,,,,,,,,,,,,,,,,,,,,,,,,,,,,,,,,,,,,,,,,,
,,,,,,60eb274540d8358b70fdbb1d,62c538bf54f3a38dea76a902,2022-07-06_09h34.23.132,Colour_Asymmetry_Pilot,2022.1.3,Win32,57.43495491,62c50e9c1127f2cd403a315f,0,123,123,76,1,threeone,,,,,,,,,,,,,,,,,,,,,,,,,,,,,,,,,,,,,,,,,,,,,,,,,,,,,,,,,,,,,,,,,,,,,,,,,,,,,,,,,,,,,,,,,,,,,,,,,,,,,,,,,,,,,,,,,,,,,,,,,,,,,,,,,,,,,,,,,,,,,,,,,,,,,,,,,,,,,
,,,,,,60eb274540d8358b70fdbb1d,62c538bf54f3a38dea76a902,2022-07-06_09h34.23.132,Colour_Asymmetry_Pilot,2022.1.3,Win32,57.43495491,62c50e9c1127f2cd403a315f,0,124,124,15,1,fourthree,,,,,,,,,,,,,,,,,,,,,,,,,,,,,,,,,,,,,,,,,,,,,,,,,,,,,,,,,,,,,,,,,,,,,,,,,,,,,,,,,,,,,,,,,,,,,,,,,,,,,,,,,,,,,,,,,,,,,,,,,,,,,,,,,,,,,,,,,,,,,,,,,,,,,,,,,,,,,
,,,,,,60eb274540d8358b70fdbb1d,62c538bf54f3a38dea76a902,2022-07-06_09h34.23.132,Colour_Asymmetry_Pilot,2022.1.3,Win32,57.43495491,62c50e9c1127f2cd403a315f,0,125,125,17,1,onethree,,,,,,,,,,,,,,,,,,,,,,,,,,,,,,,,,,,,,,,,,,,,,,,,,,,,,,,,,,,,,,,,,,,,,,,,,,,,,,,,,,,,,,,,,,,,,,,,,,,,,,,,,,,,,,,,,,,,,,,,,,,,,,,,,,,,,,,,,,,,,,,,,,,,,,,,,,,,,
,,,,,,60eb274540d8358b70fdbb1d,62c538bf54f3a38dea76a902,2022-07-06_09h34.23.132,Colour_Asymmetry_Pilot,2022.1.3,Win32,57.43495491,62c50e9c1127f2cd403a315f,0,126,126,90,1,twoone,,,,,,,,,,,,,,,,,,,,,,,,,,,,,,,,,,,,,,,,,,,,,,,,,,,,,,,,,,,,,,,,,,,,,,,,,,,,,,,,,,,,,,,,,,,,,,,,,,,,,,,,,,,,,,,,,,,,,,,,,,,,,,,,,,,,,,,,,,,,,,,,,,,,,,,,,,,,,
,,,,,,60eb274540d8358b70fdbb1d,62c538bf54f3a38dea76a902,2022-07-06_09h34.23.132,Colour_Asymmetry_Pilot,2022.1.3,Win32,57.43495491,62c50e9c1127f2cd403a315f,0,127,127,82,1,twoone,,,,,,,,,,,,,,,,,,,,,,,,,,,,,,,,,,,,,,,,,,,,,,,,,,,,,,,,,,,,,,,,,,,,,,,,,,,,,,,,,,,,,,,,,,,,,,,,,,,,,,,,,,,,,,,,,,,,,,,,,,,,,,,,,,,,,,,,,,,,,,,,,,,,,,,,,,,,,
,,,,,,60eb274540d8358b70fdbb1d,62c538bf54f3a38dea76a902,2022-07-06_09h34.23.132,Colour_Asymmetry_Pilot,2022.1.3,Win32,57.43495491,62c50e9c1127f2cd403a315f,0,128,128,10,1,twoone,,,,,,,,,,,,,,,,,,,,,,,,,,,,,,,,,,,,,,,,,,,,,,,,,,,,,,,,,,,,,,,,,,,,,,,,,,,,,,,,,,,,,,,,,,,,,,,,,,,,,,,,,,,,,,,,,,,,,,,,,,,,,,,,,,,,,,,,,,,,,,,,,,,,,,,,,,,,,
,,,,,,60eb274540d8358b70fdbb1d,62c538bf54f3a38dea76a902,2022-07-06_09h34.23.132,Colour_Asymmetry_Pilot,2022.1.3,Win32,57.43495491,62c50e9c1127f2cd403a315f,0,129,129,9,1,onethree,,,,,,,,,,,,,,,,,,,,,,,,,,,,,,,,,,,,,,,,,,,,,,,,,,,,,,,,,,,,,,,,,,,,,,,,,,,,,,,,,,,,,,,,,,,,,,,,,,,,,,,,,,,,,,,,,,,,,,,,,,,,,,,,,,,,,,,,,,,,,,,,,,,,,,,,,,,,,
,,,,,,60eb274540d8358b70fdbb1d,62c538bf54f3a38dea76a902,2022-07-06_09h34.23.132,Colour_Asymmetry_Pilot,2022.1.3,Win32,57.43495491,62c50e9c1127f2cd403a315f,0,130,130,117,1,threefour,,,,,,,,,,,,,,,,,,,,,,,,,,,,,,,,,,,,,,,,,,,,,,,,,,,,,,,,,,,,,,,,,,,,,,,,,,,,,,,,,,,,,,,,,,,,,,,,,,,,,,,,,,,,,,,,,,,,,,,,,,,,,,,,,,,,,,,,,,,,,,,,,,,,,,,,,,,,,
,,,,,,60eb274540d8358b70fdbb1d,62c538bf54f3a38dea76a902,2022-07-06_09h34.23.132,Colour_Asymmetry_Pilot,2022.1.3,Win32,57.43495491,62c50e9c1127f2cd403a315f,0,131,131,110,1,fourtwo,,,,,,,,,,,,,,,,,,,,,,,,,,,,,,,,,,,,,,,,,,,,,,,,,,,,,,,,,,,,,,,,,,,,,,,,,,,,,,,,,,,,,,,,,,,,,,,,,,,,,,,,,,,,,,,,,,,,,,,,,,,,,,,,,,,,,,,,,,,,,,,,,,,,,,,,,,,,,
,,,,,,60eb274540d8358b70fdbb1d,62c538bf54f3a38dea76a902,2022-07-06_09h34.23.132,Colour_Asymmetry_Pilot,2022.1.3,Win32,57.43495491,62c50e9c1127f2cd403a315f,0,132,132,78,1,fourtwo,,,,,,,,,,,,,,,,,,,,,,,,,,,,,,,,,,,,,,,,,,,,,,,,,,,,,,,,,,,,,,,,,,,,,,,,,,,,,,,,,,,,,,,,,,,,,,,,,,,,,,,,,,,,,,,,,,,,,,,,,,,,,,,,,,,,,,,,,,,,,,,,,,,,,,,,,,,,,
,,,,,,60eb274540d8358b70fdbb1d,62c538bf54f3a38dea76a902,2022-07-06_09h34.23.132,Colour_Asymmetry_Pilot,2022.1.3,Win32,57.43495491,62c50e9c1127f2cd403a315f,0,133,133,87,1,fourthree,,,,,,,,,,,,,,,,,,,,,,,,,,,,,,,,,,,,,,,,,,,,,,,,,,,,,,,,,,,,,,,,,,,,,,,,,,,,,,,,,,,,,,,,,,,,,,,,,,,,,,,,,,,,,,,,,,,,,,,,,,,,,,,,,,,,,,,,,,,,,,,,,,,,,,,,,,,,,
,,,,,,60eb274540d8358b70fdbb1d,62c538bf54f3a38dea76a902,2022-07-06_09h34.23.132,Colour_Asymmetry_Pilot,2022.1.3,Win32,57.43495491,62c50e9c1127f2cd403a315f,0,134,134,27,1,twofour,,,,,,,,,,,,,,,,,,,,,,,,,,,,,,,,,,,,,,,,,,,,,,,,,,,,,,,,,,,,,,,,,,,,,,,,,,,,,,,,,,,,,,,,,,,,,,,,,,,,,,,,,,,,,,,,,,,,,,,,,,,,,,,,,,,,,,,,,,,,,,,,,,,,,,,,,,,,,
,,,,,,60eb274540d8358b70fdbb1d,62c538bf54f3a38dea76a902,2022-07-06_09h34.23.132,Colour_Asymmetry_Pilot,2022.1.3,Win32,57.43495491,62c50e9c1127f2cd403a315f,0,135,135,113,1,onethree,,,,,,,,,,,,,,,,,,,,,,,,,,,,,,,,,,,,,,,,,,,,,,,,,,,,,,,,,,,,,,,,,,,,,,,,,,,,,,,,,,,,,,,,,,,,,,,,,,,,,,,,,,,,,,,,,,,,,,,,,,,,,,,,,,,,,,,,,,,,,,,,,,,,,,,,,,,,,
,,,,,,60eb274540d8358b70fdbb1d,62c538bf54f3a38dea76a902,2022-07-06_09h34.23.132,Colour_Asymmetry_Pilot,2022.1.3,Win32,57.43495491,62c50e9c1127f2cd403a315f,0,136,136,139,1,twofour,,,,,,,,,,,,,,,,,,,,,,,,,,,,,,,,,,,,,,,,,,,,,,,,,,,,,,,,,,,,,,,,,,,,,,,,,,,,,,,,,,,,,,,,,,,,,,,,,,,,,,,,,,,,,,,,,,,,,,,,,,,,,,,,,,,,,,,,,,,,,,,,,,,,,,,,,,,,,
,,,,,,60eb274540d8358b70fdbb1d,62c538bf54f3a38dea76a902,2022-07-06_09h34.23.132,Colour_Asymmetry_Pilot,2022.1.3,Win32,57.43495491,62c50e9c1127f2cd403a315f,0,137,137,146,1,twoone,,,,,,,,,,,,,,,,,,,,,,,,,,,,,,,,,,,,,,,,,,,,,,,,,,,,,,,,,,,,,,,,,,,,,,,,,,,,,,,,,,,,,,,,,,,,,,,,,,,,,,,,,,,,,,,,,,,,,,,,,,,,,,,,,,,,,,,,,,,,,,,,,,,,,,,,,,,,,
,,,,,,60eb274540d8358b70fdbb1d,62c538bf54f3a38dea76a902,2022-07-06_09h34.23.132,Colour_Asymmetry_Pilot,2022.1.3,Win32,57.43495491,62c50e9c1127f2cd403a315f,0,138,138,6,1,fourtwo,,,,,,,,,,,,,,,,,,,,,,,,,,,,,,,,,,,,,,,,,,,,,,,,,,,,,,,,,,,,,,,,,,,,,,,,,,,,,,,,,,,,,,,,,,,,,,,,,,,,,,,,,,,,,,,,,,,,,,,,,,,,,,,,,,,,,,,,,,,,,,,,,,,,,,,,,,,,,
,,,,,,60eb274540d8358b70fdbb1d,62c538bf54f3a38dea76a902,2022-07-06_09h34.23.132,Colour_Asymmetry_Pilot,2022.1.3,Win32,57.43495491,62c50e9c1127f2cd403a315f,0,139,139,44,1,threeone,,,,,,,,,,,,,,,,,,,,,,,,,,,,,,,,,,,,,,,,,,,,,,,,,,,,,,,,,,,,,,,,,,,,,,,,,,,,,,,,,,,,,,,,,,,,,,,,,,,,,,,,,,,,,,,,,,,,,,,,,,,,,,,,,,,,,,,,,,,,,,,,,,,,,,,,,,,,,
,,,,,,60eb274540d8358b70fdbb1d,62c538bf54f3a38dea76a902,2022-07-06_09h34.23.132,Colour_Asymmetry_Pilot,2022.1.3,Win32,57.43495491,62c50e9c1127f2cd403a315f,0,140,140,84,1,threeone,,,,,,,,,,,,,,,,,,,,,,,,,,,,,,,,,,,,,,,,,,,,,,,,,,,,,,,,,,,,,,,,,,,,,,,,,,,,,,,,,,,,,,,,,,,,,,,,,,,,,,,,,,,,,,,,,,,,,,,,,,,,,,,,,,,,,,,,,,,,,,,,,,,,,,,,,,,,,
,,,,,,60eb274540d8358b70fdbb1d,62c538bf54f3a38dea76a902,2022-07-06_09h34.23.132,Colour_Asymmetry_Pilot,2022.1.3,Win32,57.43495491,62c50e9c1127f2cd403a315f,0,141,141,92,1,threeone,,,,,,,,,,,,,,,,,,,,,,,,,,,,,,,,,,,,,,,,,,,,,,,,,,,,,,,,,,,,,,,,,,,,,,,,,,,,,,,,,,,,,,,,,,,,,,,,,,,,,,,,,,,,,,,,,,,,,,,,,,,,,,,,,,,,,,,,,,,,,,,,,,,,,,,,,,,,,
,,,,,,60eb274540d8358b70fdbb1d,62c538bf54f3a38dea76a902,2022-07-06_09h34.23.132,Colour_Asymmetry_Pilot,2022.1.3,Win32,57.43495491,62c50e9c1127f2cd403a315f,0,142,142,161,1,onethree,,,,,,,,,,,,,,,,,,,,,,,,,,,,,,,,,,,,,,,,,,,,,,,,,,,,,,,,,,,,,,,,,,,,,,,,,,,,,,,,,,,,,,,,,,,,,,,,,,,,,,,,,,,,,,,,,,,,,,,,,,,,,,,,,,,,,,,,,,,,,,,,,,,,,,,,,,,,,
,,,,,,60eb274540d8358b70fdbb1d,62c538bf54f3a38dea76a902,2022-07-06_09h34.23.132,Colour_Asymmetry_Pilot,2022.1.3,Win32,57.43495491,62c50e9c1127f2cd403a315f,0,143,143,1,1,onethree,,,,,,,,,,,,,,,,,,,,,,,,,,,,,,,,,,,,,,,,,,,,,,,,,,,,,,,,,,,,,,,,,,,,,,,,,,,,,,,,,,,,,,,,,,,,,,,,,,,,,,,,,,,,,,,,,,,,,,,,,,,,,,,,,,,,,,,,,,,,,,,,,,,,,,,,,,,,,
,,,,,,60eb274540d8358b70fdbb1d,62c538bf54f3a38dea76a902,2022-07-06_09h34.23.132,Colour_Asymmetry_Pilot,2022.1.3,Win32,57.43495491,62c50e9c1127f2cd403a315f,0,144,144,118,1,fourtwo,,,,,,,,,,,,,,,,,,,,,,,,,,,,,,,,,,,,,,,,,,,,,,,,,,,,,,,,,,,,,,,,,,,,,,,,,,,,,,,,,,,,,,,,,,,,,,,,,,,,,,,,,,,,,,,,,,,,,,,,,,,,,,,,,,,,,,,,,,,,,,,,,,,,,,,,,,,,,
,,,,,,60eb274540d8358b70fdbb1d,62c538bf54f3a38dea76a902,2022-07-06_09h34.23.132,Colour_Asymmetry_Pilot,2022.1.3,Win32,57.43495491,62c50e9c1127f2cd403a315f,0,145,145,66,1,twoone,,,,,,,,,,,,,,,,,,,,,,,,,,,,,,,,,,,,,,,,,,,,,,,,,,,,,,,,,,,,,,,,,,,,,,,,,,,,,,,,,,,,,,,,,,,,,,,,,,,,,,,,,,,,,,,,,,,,,,,,,,,,,,,,,,,,,,,,,,,,,,,,,,,,,,,,,,,,,
,,,,,,60eb274540d8358b70fdbb1d,62c538bf54f3a38dea76a902,2022-07-06_09h34.23.132,Colour_Asymmetry_Pilot,2022.1.3,Win32,57.43495491,62c50e9c1127f2cd403a315f,0,146,146,48,1,onetwo,,,,,,,,,,,,,,,,,,,,,,,,,,,,,,,,,,,,,,,,,,,,,,,,,,,,,,,,,,,,,,,,,,,,,,,,,,,,,,,,,,,,,,,,,,,,,,,,,,,,,,,,,,,,,,,,,,,,,,,,,,,,,,,,,,,,,,,,,,,,,,,,,,,,,,,,,,,,,
,,,,,,60eb274540d8358b70fdbb1d,62c538bf54f3a38dea76a902,2022-07-06_09h34.23.132,Colour_Asymmetry_Pilot,2022.1.3,Win32,57.43495491,62c50e9c1127f2cd403a315f,0,147,147,99,1,twofour,,,,,,,,,,,,,,,,,,,,,,,,,,,,,,,,,,,,,,,,,,,,,,,,,,,,,,,,,,,,,,,,,,,,,,,,,,,,,,,,,,,,,,,,,,,,,,,,,,,,,,,,,,,,,,,,,,,,,,,,,,,,,,,,,,,,,,,,,,,,,,,,,,,,,,,,,,,,,
,,,,,,60eb274540d8358b70fdbb1d,62c538bf54f3a38dea76a902,2022-07-06_09h34.23.132,Colour_Asymmetry_Pilot,2022.1.3,Win32,57.43495491,62c50e9c1127f2cd403a315f,0,148,148,14,1,fourtwo,,,,,,,,,,,,,,,,,,,,,,,,,,,,,,,,,,,,,,,,,,,,,,,,,,,,,,,,,,,,,,,,,,,,,,,,,,,,,,,,,,,,,,,,,,,,,,,,,,,,,,,,,,,,,,,,,,,,,,,,,,,,,,,,,,,,,,,,,,,,,,,,,,,,,,,,,,,,,
,,,,,,60eb274540d8358b70fdbb1d,62c538bf54f3a38dea76a902,2022-07-06_09h34.23.132,Colour_Asymmetry_Pilot,2022.1.3,Win32,57.43495491,62c50e9c1127f2cd403a315f,0,149,149,11,1,twofour,,,,,,,,,,,,,,,,,,,,,,,,,,,,,,,,,,,,,,,,,,,,,,,,,,,,,,,,,,,,,,,,,,,,,,,,,,,,,,,,,,,,,,,,,,,,,,,,,,,,,,,,,,,,,,,,,,,,,,,,,,,,,,,,,,,,,,,,,,,,,,,,,,,,,,,,,,,,,
,,,,,,60eb274540d8358b70fdbb1d,62c538bf54f3a38dea76a902,2022-07-06_09h34.23.132,Colour_Asymmetry_Pilot,2022.1.3,Win32,57.43495491,62c50e9c1127f2cd403a315f,0,150,150,105,1,onethree,,,,,,,,,,,,,,,,,,,,,,,,,,,,,,,,,,,,,,,,,,,,,,,,,,,,,,,,,,,,,,,,,,,,,,,,,,,,,,,,,,,,,,,,,,,,,,,,,,,,,,,,,,,,,,,,,,,,,,,,,,,,,,,,,,,,,,,,,,,,,,,,,,,,,,,,,,,,,
,,,,,,60eb274540d8358b70fdbb1d,62c538bf54f3a38dea76a902,2022-07-06_09h34.23.132,Colour_Asymmetry_Pilot,2022.1.3,Win32,57.43495491,62c50e9c1127f2cd403a315f,0,151,151,88,1,onetwo,,,,,,,,,,,,,,,,,,,,,,,,,,,,,,,,,,,,,,,,,,,,,,,,,,,,,,,,,,,,,,,,,,,,,,,,,,,,,,,,,,,,,,,,,,,,,,,,,,,,,,,,,,,,,,,,,,,,,,,,,,,,,,,,,,,,,,,,,,,,,,,,,,,,,,,,,,,,,
,,,,,,60eb274540d8358b70fdbb1d,62c538bf54f3a38dea76a902,2022-07-06_09h34.23.132,Colour_Asymmetry_Pilot,2022.1.3,Win32,57.43495491,62c50e9c1127f2cd403a315f,0,152,152,16,1,onetwo,,,,,,,,,,,,,,,,,,,,,,,,,,,,,,,,,,,,,,,,,,,,,,,,,,,,,,,,,,,,,,,,,,,,,,,,,,,,,,,,,,,,,,,,,,,,,,,,,,,,,,,,,,,,,,,,,,,,,,,,,,,,,,,,,,,,,,,,,,,,,,,,,,,,,,,,,,,,,
,,,,,,60eb274540d8358b70fdbb1d,62c538bf54f3a38dea76a902,2022-07-06_09h34.23.132,Colour_Asymmetry_Pilot,2022.1.3,Win32,57.43495491,62c50e9c1127f2cd403a315f,0,153,153,126,1,fourtwo,,,,,,,,,,,,,,,,,,,,,,,,,,,,,,,,,,,,,,,,,,,,,,,,,,,,,,,,,,,,,,,,,,,,,,,,,,,,,,,,,,,,,,,,,,,,,,,,,,,,,,,,,,,,,,,,,,,,,,,,,,,,,,,,,,,,,,,,,,,,,,,,,,,,,,,,,,,,,
,,,,,,60eb274540d8358b70fdbb1d,62c538bf54f3a38dea76a902,2022-07-06_09h34.23.132,Colour_Asymmetry_Pilot,2022.1.3,Win32,57.43495491,62c50e9c1127f2cd403a315f,0,154,154,80,1,onetwo,,,,,,,,,,,,,,,,,,,,,,,,,,,,,,,,,,,,,,,,,,,,,,,,,,,,,,,,,,,,,,,,,,,,,,,,,,,,,,,,,,,,,,,,,,,,,,,,,,,,,,,,,,,,,,,,,,,,,,,,,,,,,,,,,,,,,,,,,,,,,,,,,,,,,,,,,,,,,
,,,,,,60eb274540d8358b70fdbb1d,62c538bf54f3a38dea76a902,2022-07-06_09h34.23.132,Colour_Asymmetry_Pilot,2022.1.3,Win32,57.43495491,62c50e9c1127f2cd403a315f,0,155,155,62,1,fourtwo,,,,,,,,,,,,,,,,,,,,,,,,,,,,,,,,,,,,,,,,,,,,,,,,,,,,,,,,,,,,,,,,,,,,,,,,,,,,,,,,,,,,,,,,,,,,,,,,,,,,,,,,,,,,,,,,,,,,,,,,,,,,,,,,,,,,,,,,,,,,,,,,,,,,,,,,,,,,,
,,,,,,60eb274540d8358b70fdbb1d,62c538bf54f3a38dea76a902,2022-07-06_09h34.23.132,Colour_Asymmetry_Pilot,2022.1.3,Win32,57.43495491,62c50e9c1127f2cd403a315f,0,156,156,142,1,fourtwo,,,,,,,,,,,,,,,,,,,,,,,,,,,,,,,,,,,,,,,,,,,,,,,,,,,,,,,,,,,,,,,,,,,,,,,,,,,,,,,,,,,,,,,,,,,,,,,,,,,,,,,,,,,,,,,,,,,,,,,,,,,,,,,,,,,,,,,,,,,,,,,,,,,,,,,,,,,,,
,,,,,,60eb274540d8358b70fdbb1d,62c538bf54f3a38dea76a902,2022-07-06_09h34.23.132,Colour_Asymmetry_Pilot,2022.1.3,Win32,57.43495491,62c50e9c1127f2cd403a315f,0,157,157,149,1,threefour,,,,,,,,,,,,,,,,,,,,,,,,,,,,,,,,,,,,,,,,,,,,,,,,,,,,,,,,,,,,,,,,,,,,,,,,,,,,,,,,,,,,,,,,,,,,,,,,,,,,,,,,,,,,,,,,,,,,,,,,,,,,,,,,,,,,,,,,,,,,,,,,,,,,,,,,,,,,,
,,,,,,60eb274540d8358b70fdbb1d,62c538bf54f3a38dea76a902,2022-07-06_09h34.23.132,Colour_Asymmetry_Pilot,2022.1.3,Win32,57.43495491,62c50e9c1127f2cd403a315f,0,158,158,67,1,twofour,,,,,,,,,,,,,,,,,,,,,,,,,,,,,,,,,,,,,,,,,,,,,,,,,,,,,,,,,,,,,,,,,,,,,,,,,,,,,,,,,,,,,,,,,,,,,,,,,,,,,,,,,,,,,,,,,,,,,,,,,,,,,,,,,,,,,,,,,,,,,,,,,,,,,,,,,,,,,
,,,,,,60eb274540d8358b70fdbb1d,62c538bf54f3a38dea76a902,2022-07-06_09h34.23.132,Colour_Asymmetry_Pilot,2022.1.3,Win32,57.43495491,62c50e9c1127f2cd403a315f,0,159,159,30,1,fourtwo,,,,,,,,,,,,,,,,,,,,,,,,,,,,,,,,,,,,,,,,,,,,,,,,,,,,,,,,,,,,,,,,,,,,,,,,,,,,,,,,,,,,,,,,,,,,,,,,,,,,,,,,,,,,,,,,,,,,,,,,,,,,,,,,,,,,,,,,,,,,,,,,,,,,,,,,,,,,,
,,,,,,60eb274540d8358b70fdbb1d,62c538bf54f3a38dea76a902,2022-07-06_09h34.23.132,Colour_Asymmetry_Pilot,2022.1.3,Win32,57.43495491,62c50e9c1127f2cd403a315f,0,160,160,54,1,fourtwo,,,,,,,,,,,,,,,,,,,,,,,,,,,,,,,,,,,,,,,,,,,,,,,,,,,,,,,,,,,,,,,,,,,,,,,,,,,,,,,,,,,,,,,,,,,,,,,,,,,,,,,,,,,,,,,,,,,,,,,,,,,,,,,,,,,,,,,,,,,,,,,,,,,,,,,,,,,,,
,,,,,,60eb274540d8358b70fdbb1d,62c538bf54f3a38dea76a902,2022-07-06_09h34.23.132,Colour_Asymmetry_Pilot,2022.1.3,Win32,57.43495491,62c50e9c1127f2cd403a315f,0,161,161,158,1,fourtwo,,,,,,,,,,,,,,,,,,,,,,,,,,,,,,,,,,,,,,,,,,,,,,,,,,,,,,,,,,,,,,,,,,,,,,,,,,,,,,,,,,,,,,,,,,,,,,,,,,,,,,,,,,,,,,,,,,,,,,,,,,,,,,,,,,,,,,,,,,,,,,,,,,,,,,,,,,,,,
,,,,,,60eb274540d8358b70fdbb1d,62c538bf54f3a38dea76a902,2022-07-06_09h34.23.132,Colour_Asymmetry_Pilot,2022.1.3,Win32,57.43495491,62c50e9c1127f2cd403a315f,,,,,,,space,8.736700001,space,4.941799999,space,39.9277,space,15.7984,space,4.396199999,space,5.014300001,"[-0.45899999999999996,-0.3256,-0.9374]",fourthree,"[0.23120000000000007,-0.7726,-0.34120000000000006]",-1,27.6355,-46,-104,1,0,0,response5disk_5,3,4,1,0,0,rectangle_8,3,4,1,0,0,2,3,4,1,0,0,0,0,0,0,1,,,,,,,,,,,,,,,,,,,,,,,,,,,,,,,,,,,,,,,,,,,,,,,,,,,,,,,,,,,,,,,,,,,,,,,,,,,,,,,,,,,,,,,,,,,,,,,,,,,,,,,,,,,,,,,,
,,,,,,60eb274540d8358b70fdbb1d,62c538bf54f3a38dea76a902,2022-07-06_09h34.23.132,Colour_Asymmetry_Pilot,2022.1.3,Win32,57.43495491,62c50e9c1127f2cd403a315f,,,,,,,,,,,,,,,,,,,"[-0.38039999999999996,-0.4276,-0.1452]",onetwo,"[0.37240000000000006,0.4980000000000002,-0.2864]",-1,1.998800001,-38,-72,1,0,0,response5disk_5,8,7,1,0,0,rectangle_8,8,7,1,0,0,2,8,7,1,0,0,1,0,1,0,1,,,,,,,,,,,,,,,,,,,,,,,,,,,,,,,,,,,,,,,,,,,,,,,,,,,,,,,,,,,,,,,,,,,,,,,,,,,,,,,,,,,,,,,,,,,,,,,,,,,,,,,,,,,,,,,,
,,,,,,60eb274540d8358b70fdbb1d,62c538bf54f3a38dea76a902,2022-07-06_09h34.23.132,Colour_Asymmetry_Pilot,2022.1.3,Win32,57.43495491,62c50e9c1127f2cd403a315f,,,,,,,,,,,,,,,,,,,"[-0.9844,-0.9688,-0.9922]",twoone,"[-0.4276,0.0038000000000000256,-0.3256]",-1,1.585900002,-42,-81,1,0,0,response5disk_5,7,3,1,0,0,rectangle_8,69,-41,1,0,0,2,-8,-1,1,0,0,2,0,2,0,1,response3disk_7,5,rectangle_4,,,,,,,,,,,,,,,,,,,,,,,,,,,,,,,,,,,,,,,,,,,,,,,,,,,,,,,,,,,,,,,,,,,,,,,,,,,,,,,,,,,,,,,,,,,,,,,,,,,,,,,,,,,,,
,,,,,,60eb274540d8358b70fdbb1d,62c538bf54f3a38dea76a902,2022-07-06_09h34.23.132,Colour_Asymmetry_Pilot,2022.1.3,Win32,57.43495491,62c50e9c1127f2cd403a315f,,,,,,,,,,,,,,,,,,,"[0.0351999999999999,0.41159999999999997,0.0038000000000000256]",onetwo,"[-0.26280000000000003,-0.2158,-0.3256]",-4,1.887300001,-34,61,1,0,0,response7disk_5,-3,5,1,0,0,rectangle_8,-3,5,1,0,0,2,-3,5,1,0,0,3,0,3,0,1,,,,,,,,,,,,,,,,,,,,,,,,,,,,,,,,,,,,,,,,,,,,,,,,,,,,,,,,,,,,,,,,,,,,,,,,,,,,,,,,,,,,,,,,,,,,,,,,,,,,,,,,,,,,,,,,
,,,,,,60eb274540d8358b70fdbb1d,62c538bf54f3a38dea76a902,2022-07-06_09h34.23.132,Colour_Asymmetry_Pilot,2022.1.3,Win32,57.43495491,62c50e9c1127f2cd403a315f,,,,,,,,,,,,,,,,,,,"[0.9213999999999998,0.6391999999999998,-0.9922]",fourthree,"[0.09799999999999986,-0.24719999999999998,0.15280000000000005]",-4,1.623299999,-32,83,1,0,0,response7disk_5,-8,-4,1,0,0,rectangle_8,99,-35,1,0,0,2,-6,-4,1,0,0,4,0,4,0,1,response3disk_7,5,rectangle_4,,,,,,,,,,,,,,,,,,,,,,,,,,,,,,,,,,,,,,,,,,,,,,,,,,,,,,,,,,,,,,,,,,,,,,,,,,,,,,,,,,,,,,,,,,,,,,,,,,,,,,,,,,,,,
,,,,,,60eb274540d8358b70fdbb1d,62c538bf54f3a38dea76a902,2022-07-06_09h34.23.132,Colour_Asymmetry_Pilot,2022.1.3,Win32,57.43495491,62c50e9c1127f2cd403a315f,,,,,,,,,,,,,,,,,,,"[-0.4668,-0.8746,-0.2942]",onetwo,"[0.7018,0.7176,0.6155999999999999]",-1,1.9706,-39,-61,1,0,0,response5disk_5,-1,-2,1,0,0,rectangle_8,-1,-2,1,0,0,2,-1,-2,1,0,0,5,0,5,0,1,,,,,,,,,,,,,,,,,,,,,,,,,,,,,,,,,,,,,,,,,,,,,,,,,,,,,,,,,,,,,,,,,,,,,,,,,,,,,,,,,,,,,,,,,,,,,,,,,,,,,,,,,,,,,,,,
,,,,,,60eb274540d8358b70fdbb1d,62c538bf54f3a38dea76a902,2022-07-06_09h34.23.132,Colour_Asymmetry_Pilot,2022.1.3,Win32,57.43495491,62c50e9c1127f2cd403a315f,,,,,,,,,,,,,,,,,,,"[0.40379999999999994,0.09000000000000008,0.44300000000000006]",fourthree,"[-0.26280000000000003,-0.2158,-0.3256]",3,1.976199999,104,29,1,0,0,response1disk_5,-8,4,1,0,0,rectangle_8,-8,4,1,0,0,2,-8,4,1,0,0,6,0,6,0,1,,,,,,,,,,,,,,,,,,,,,,,,,,,,,,,,,,,,,,,,,,,,,,,,,,,,,,,,,,,,,,,,,,,,,,,,,,,,,,,,,,,,,,,,,,,,,,,,,,,,,,,,,,,,,,,,
,,,,,,60eb274540d8358b70fdbb1d,62c538bf54f3a38dea76a902,2022-07-06_09h34.23.132,Colour_Asymmetry_Pilot,2022.1.3,Win32,57.43495491,62c50e9c1127f2cd403a315f,,,,,,,,,,,,,,,,,,,,onetwo,,2,2.0491,,,,,,,,,,,,,,,,,,,,,,,,,,,,,,,,space,8.9771,"[-0.9766,-0.34920000000000007,0.2156]","[-0.8118,-0.8198,-0.5452]",111,-36,1,0,0,response3disk,4,0,1,0,0,rectangle,4,0,1,0,0,,3,0.003299999,0,4,0,1,0,0,0,0,0,45,1,45,first,,,,,,,,,,,,,,,,,,,,,,,,,,,,,,,,,,,,,,,,,,,,,,,,,,,,,,,,,,,,,,,,,,,,,,,,
,,,,,,60eb274540d8358b70fdbb1d,62c538bf54f3a38dea76a902,2022-07-06_09h34.23.132,Colour_Asymmetry_Pilot,2022.1.3,Win32,57.43495491,62c50e9c1127f2cd403a315f,,,,,,,,,,,,,,,,,,,,twofour,,3,2.033599998,,,,,,,,,,,,,,,,,,,,,,,,,,,,,,,,,,"[-0.5452,-0.608,0.2470000000000001]","[-0.17659999999999998,0.3253999999999999,0.19999999999999996]",78,55,1,0,0,response1disk,3,-6,1,0,0,rectangle,84,-45,1,0,0,2,2,2.6539,1,5,2,1,0,0,0,1,1,159,1,78,second,response3disk_3,rectangle,,,,,,,,,,,,,,,,,,,,,,,,,,,,,,,,,,,,,,,,,,,,,,,,,,,,,,,,,,,,,,,,,,,,,,
,,,,,,60eb274540d8358b70fdbb1d,62c538bf54f3a38dea76a902,2022-07-06_09h34.23.132,Colour_Asymmetry_Pilot,2022.1.3,Win32,57.43495491,62c50e9c1127f2cd403a315f,,,,,,,,,,,,,,,,,,,,fourthree,,2,2.954,,,,,,,,,,,,,,,,,,,,,,,,,,,,,,,,,,"[0.37240000000000006,0.4980000000000002,-0.2864]","[0.7018,0.7176,0.6155999999999999]",95,-61,1,0,0,response3disk,-2,0,1,0,0,rectangle,-2,0,1,0,0,2,1,0.001299999,0,-2,0,1,0,0,0,2,2,131,1,50,second,,,,,,,,,,,,,,,,,,,,,,,,,,,,,,,,,,,,,,,,,,,,,,,,,,,,,,,,,,,,,,,,,,,,,,,,
,,,,,,60eb274540d8358b70fdbb1d,62c538bf54f3a38dea76a902,2022-07-06_09h34.23.132,Colour_Asymmetry_Pilot,2022.1.3,Win32,57.43495491,62c50e9c1127f2cd403a315f,,,,,,,,,,,,,,,,,,,,twoone,,2,0.715799999,,,,,,,,,,,,,,,,,,,,,,,,,,,,,,,,,,"[-0.8118,-0.8198,-0.5452]","[-0.9766,-0.34920000000000007,0.2156]",89,-41,1,0,0,response3disk,-5,-2,1,0,0,rectangle,-5,-2,1,0,0,2,3,0.0016,0,-5,-2,1,0,0,0,3,3,126,1,45,second,,,,,,,,,,,,,,,,,,,,,,,,,,,,,,,,,,,,,,,,,,,,,,,,,,,,,,,,,,,,,,,,,,,,,,,,
,,,,,,60eb274540d8358b70fdbb1d,62c538bf54f3a38dea76a902,2022-07-06_09h34.23.132,Colour_Asymmetry_Pilot,2022.1.3,Win32,57.43495491,62c50e9c1127f2cd403a315f,,,,,,,,,,,,,,,,,,,,twoone,,-1,0.965300001,,,,,,,,,,,,,,,,,,,,,,,,,,,,,,,,,,"[0.23120000000000007,-0.7726,-0.34120000000000006]","[-0.0040000000000000036,0.02739999999999987,-0.08239999999999992]",-53,-83,1,0,0,response5disk,0,2,1,0,0,rectangle,0,2,1,0,0,2,2,0.001300001,0,0,2,1,0,0,0,4,4,17,1,17,first,,,,,,,,,,,,,,,,,,,,,,,,,,,,,,,,,,,,,,,,,,,,,,,,,,,,,,,,,,,,,,,,,,,,,,,,
,,,,,,60eb274540d8358b70fdbb1d,62c538bf54f3a38dea76a902,2022-07-06_09h34.23.132,Colour_Asymmetry_Pilot,2022.1.3,Win32,57.43495491,62c50e9c1127f2cd403a315f,,,,,,,,,,,,,,,,,,,,threeone,,-1,0.4034,,,,,,,,,,,,,,,,,,,,,,,,,,,,,,,,,,"[0.19199999999999995,0.18419999999999992,0.5136000000000001]","[0.30180000000000007,-0.7884,-0.9844]",-44,-68,1,0,0,response5disk,2,6,1,0,0,rectangle,2,6,1,0,0,2,2,0.000199999,0,2,6,1,0,0,0,5,5,99,1,18,second,,,,,,,,,,,,,,,,,,,,,,,,,,,,,,,,,,,,,,,,,,,,,,,,,,,,,,,,,,,,,,,,,,,,,,,,
,,,,,,60eb274540d8358b70fdbb1d,62c538bf54f3a38dea76a902,2022-07-06_09h34.23.132,Colour_Asymmetry_Pilot,2022.1.3,Win32,57.43495491,62c50e9c1127f2cd403a315f,,,,,,,,,,,,,,,,,,,,onethree,,-2,2.171799999,,,,,,,,,,,,,,,,,,,,,,,,,,,,,,,,,,"[-0.24719999999999998,-0.0354000000000001,0.3175999999999999]","[0.8115999999999999,-0.0040000000000000036,-0.09819999999999995]",-81,-61,1,0,0,response5disk,0,3,1,0,0,rectangle,0,3,1,0,0,2,2,0.000200001,0,0,3,1,0,0,0,6,6,130,1,49,second,,,,,,,,,,,,,,,,,,,,,,,,,,,,,,,,,,,,,,,,,,,,,,,,,,,,,,,,,,,,,,,,,,,,,,,,
,,,,,,60eb274540d8358b70fdbb1d,62c538bf54f3a38dea76a902,2022-07-06_09h34.23.132,Colour_Asymmetry_Pilot,2022.1.3,Win32,57.43495491,62c50e9c1127f2cd403a315f,,,,,,,,,,,,,,,,,,,,fourthree,,-1,1.597,,,,,,,,,,,,,,,,,,,,,,,,,,,,,,,,,,"[0.3802000000000001,0.19199999999999995,-0.6394]","[-0.38039999999999996,-0.4276,-0.1452]",-58,-81,1,0,0,response5disk,0,0,1,0,0,rectangle,0,0,1,0,0,2,3,0.001400002,0,0,0,1,0,0,0,7,7,139,1,58,second,,,,,,,,,,,,,,,,,,,,,,,,,,,,,,,,,,,,,,,,,,,,,,,,,,,,,,,,,,,,,,,,,,,,,,,,
,,,,,,60eb274540d8358b70fdbb1d,62c538bf54f3a38dea76a902,2022-07-06_09h34.23.132,Colour_Asymmetry_Pilot,2022.1.3,Win32,57.43495491,62c50e9c1127f2cd403a315f,,,,,,,,,,,,,,,,,,,,threefour,,-1,0.5831,,,,,,,,,,,,,,,,,,,,,,,,,,,,,,,,,,"[0.8274000000000001,-0.5844,-0.9452]","[0.7018,0.7176,0.6155999999999999]",-29,-92,1,0,0,response5disk,5,6,1,0,0,rectangle,5,6,1,0,0,2,2,0.002200001,0,5,6,1,0,0,0,8,8,79,1,79,first,,,,,,,,,,,,,,,,,,,,,,,,,,,,,,,,,,,,,,,,,,,,,,,,,,,,,,,,,,,,,,,,,,,,,,,,
,,,,,,60eb274540d8358b70fdbb1d,62c538bf54f3a38dea76a902,2022-07-06_09h34.23.132,Colour_Asymmetry_Pilot,2022.1.3,Win32,57.43495491,62c50e9c1127f2cd403a315f,,,,,,,,,,,,,,,,,,,,twoone,,-1,0.4201,,,,,,,,,,,,,,,,,,,,,,,,,,,,,,,,,,"[0.30180000000000007,-0.7884,-0.9844]","[0.6625999999999999,0.4980000000000002,-0.357]",-36,-67,1,0,0,response5disk,-11,11,1,0,0,rectangle,-11,11,1,0,0,2,2,0.000299999,0,-11,11,1,0,0,0,9,9,108,1,27,second,,,,,,,,,,,,,,,,,,,,,,,,,,,,,,,,,,,,,,,,,,,,,,,,,,,,,,,,,,,,,,,,,,,,,,,,
,,,,,,60eb274540d8358b70fdbb1d,62c538bf54f3a38dea76a902,2022-07-06_09h34.23.132,Colour_Asymmetry_Pilot,2022.1.3,Win32,57.43495491,62c50e9c1127f2cd403a315f,,,,,,,,,,,,,,,,,,,,onethree,,4,3.4316,,,,,,,,,,,,,,,,,,,,,,,,,,,,,,,,,,"[-0.2942,-0.7648,-0.7492000000000001]","[0.2784,-0.31000000000000005,-0.5452]",27,78,1,0,0,response1disk,3,-15,1,0,0,rectangle,3,-15,1,0,0,2,1,0.0015,0,3,-15,1,0,0,0,10,10,83,1,2,second,,,,,,,,,,,,,,,,,,,,,,,,,,,,,,,,,,,,,,,,,,,,,,,,,,,,,,,,,,,,,,,,,,,,,,,,
,,,,,,60eb274540d8358b70fdbb1d,62c538bf54f3a38dea76a902,2022-07-06_09h34.23.132,Colour_Asymmetry_Pilot,2022.1.3,Win32,57.43495491,62c50e9c1127f2cd403a315f,,,,,,,,,,,,,,,,,,,,twoone,,-3,0.999699999,,,,,,,,,,,,,,,,,,,,,,,,,,,,,,,,,,"[0.09799999999999986,-0.24719999999999998,0.15280000000000005]","[-0.30200000000000005,0.14500000000000002,0.2784]",-69,38,1,0,0,response7disk,2,-6,1,0,0,rectangle,2,-6,1,0,0,2,1,0.0009,0,2,-6,1,0,0,0,11,11,86,1,5,second,,,,,,,,,,,,,,,,,,,,,,,,,,,,,,,,,,,,,,,,,,,,,,,,,,,,,,,,,,,,,,,,,,,,,,,,
,,,,,,60eb274540d8358b70fdbb1d,62c538bf54f3a38dea76a902,2022-07-06_09h34.23.132,Colour_Asymmetry_Pilot,2022.1.3,Win32,57.43495491,62c50e9c1127f2cd403a315f,,,,,,,,,,,,,,,,,,,,onetwo,,-2,0.8325,,,,,,,,,,,,,,,,,,,,,,,,,,,,,,,,,,"[0.37240000000000006,-0.050999999999999934,-0.5216]","[0.11359999999999992,0.6312,0.5213999999999999]",-84,-26,1,0,0,response5disk,4,-6,1,0,0,rectangle,4,-6,1,0,0,2,3,0.002300001,0,4,-6,1,0,0,0,12,12,80,1,80,first,,,,,,,,,,,,,,,,,,,,,,,,,,,,,,,,,,,,,,,,,,,,,,,,,,,,,,,,,,,,,,,,,,,,,,,,
,,,,,,60eb274540d8358b70fdbb1d,62c538bf54f3a38dea76a902,2022-07-06_09h34.23.132,Colour_Asymmetry_Pilot,2022.1.3,Win32,57.43495491,62c50e9c1127f2cd403a315f,,,,,,,,,,,,,,,,,,,,twoone,,-1,0.774199999,,,,,,,,,,,,,,,,,,,,,,,,,,,,,,,,,,"[-0.10599999999999998,-0.10599999999999998,0.5841999999999998]","[0.18419999999999992,-0.4276,-0.404]",-38,-91,1,0,0,response5disk,15,3,1,0,0,rectangle,15,3,1,0,0,2,3,0.000299999,0,15,3,1,0,0,0,13,13,109,1,28,second,,,,,,,,,,,,,,,,,,,,,,,,,,,,,,,,,,,,,,,,,,,,,,,,,,,,,,,,,,,,,,,,,,,,,,,,
,,,,,,60eb274540d8358b70fdbb1d,62c538bf54f3a38dea76a902,2022-07-06_09h34.23.132,Colour_Asymmetry_Pilot,2022.1.3,Win32,57.43495491,62c50e9c1127f2cd403a315f,,,,,,,,,,,,,,,,,,,,threefour,,-1,0.504,,,,,,,,,,,,,,,,,,,,,,,,,,,,,,,,,,"[-0.4902000000000001,0.2704,-0.45899999999999996]","[0.9686000000000001,0.3802000000000001,0.19999999999999996]",-28,-87,1,0,0,response5disk,-4,0,1,0,0,rectangle,-4,0,1,0,0,2,2,0.002799999,0,-4,0,1,0,0,0,14,14,90,1,9,second,,,,,,,,,,,,,,,,,,,,,,,,,,,,,,,,,,,,,,,,,,,,,,,,,,,,,,,,,,,,,,,,,,,,,,,,
,,,,,,60eb274540d8358b70fdbb1d,62c538bf54f3a38dea76a902,2022-07-06_09h34.23.132,Colour_Asymmetry_Pilot,2022.1.3,Win32,57.43495491,62c50e9c1127f2cd403a315f,,,,,,,,,,,,,,,,,,,,fourthree,,2,1.2136,,,,,,,,,,,,,,,,,,,,,,,,,,,,,,,,,,"[0.7018,0.7176,0.6155999999999999]","[0.37240000000000006,0.4980000000000002,-0.2864]",83,-39,1,0,0,response3disk,8,0,1,0,0,rectangle,8,0,1,0,0,2,2,0.000200001,0,8,0,1,0,0,0,15,15,50,1,50,first,,,,,,,,,,,,,,,,,,,,,,,,,,,,,,,,,,,,,,,,,,,,,,,,,,,,,,,,,,,,,,,,,,,,,,,,
,,,,,,60eb274540d8358b70fdbb1d,62c538bf54f3a38dea76a902,2022-07-06_09h34.23.132,Colour_Asymmetry_Pilot,2022.1.3,Win32,57.43495491,62c50e9c1127f2cd403a315f,,,,,,,,,,,,,,,,,,,,twofour,,4,1.886200001,,,,,,,,,,,,,,,,,,,,,,,,,,,,,,,,,,"[0.6625999999999999,0.4980000000000002,-0.357]","[-0.0040000000000000036,0.02739999999999987,-0.08239999999999992]",27,73,1,0,0,response1disk,-7,-9,1,0,0,rectangle,-7,-9,1,0,0,2,2,0.000299999,0,-7,-9,1,0,0,0,16,16,10,1,10,first,,,,,,,,,,,,,,,,,,,,,,,,,,,,,,,,,,,,,,,,,,,,,,,,,,,,,,,,,,,,,,,,,,,,,,,,
,,,,,,60eb274540d8358b70fdbb1d,62c538bf54f3a38dea76a902,2022-07-06_09h34.23.132,Colour_Asymmetry_Pilot,2022.1.3,Win32,57.43495491,62c50e9c1127f2cd403a315f,,,,,,,,,,,,,,,,,,,,twofour,,-2,0.8859,,,,,,,,,,,,,,,,,,,,,,,,,,,,,,,,,,"[-0.01980000000000004,-0.5138,-0.38039999999999996]","[0.37240000000000006,0.4980000000000002,-0.2864]",-73,-39,1,0,0,response5disk,-4,9,1,0,0,rectangle,-4,9,1,0,0,2,2,0.000299999,0,-4,9,1,0,0,0,17,17,132,1,51,second,,,,,,,,,,,,,,,,,,,,,,,,,,,,,,,,,,,,,,,,,,,,,,,,,,,,,,,,,,,,,,,,,,,,,,,,
