trials.thisRepN,trials.thisTrialN,trials.thisN,trials.thisIndex,trials.ran,Colourcodes,participant,session,date,expName,psychopyVersion,OS,frameRate,study_id,trials_4.thisRepN,trials_4.thisTrialN,trials_4.thisN,trials_4.thisIndex,trials_4.ran,StimulusPos,key_resp.keys,key_resp.rt,key_resp_2.keys,key_resp_2.rt,key_resp_15.keys,key_resp_15.rt,key_resp_17.keys,key_resp_17.rt,key_resp_9.keys,key_resp_9.rt,key_resp_10.keys,key_resp_10.rt,Circle1_col,Ecc,Circle2_col,similarity,response_time,mouse_5.x,mouse_5.y,mouse_5.leftButton,mouse_5.midButton,mouse_5.rightButton,mouse_5.clicked_name,mouse_10.x,mouse_10.y,mouse_10.leftButton,mouse_10.midButton,mouse_10.rightButton,mouse_10.clicked_name,mouse_7.x,mouse_7.y,mouse_7.leftButton,mouse_7.midButton,mouse_7.rightButton,catchnumberprac,mouse_6.x,mouse_6.y,mouse_6.leftButton,mouse_6.midButton,mouse_6.rightButton,duringprac.thisRepN,duringprac.thisTrialN,duringprac.thisN,duringprac.thisIndex,duringprac.ran,mouse_7.clicked_name,catchprac,mouse_6.clicked_name,key_resp_22.keys,key_resp_22.rt,Circle1_colour,Circle2_colour,mouse.x,mouse.y,mouse.leftButton,mouse.midButton,mouse.rightButton,mouse.clicked_name,mouse_2.x,mouse_2.y,mouse_2.leftButton,mouse_2.midButton,mouse_2.rightButton,mouse_2.clicked_name,mouse_3.x,mouse_3.y,mouse_3.leftButton,mouse_3.midButton,mouse_3.rightButton,catchresponse,catchnumber,response_time_catch,Catch,mouse_11.x,mouse_11.y,mouse_11.leftButton,mouse_11.midButton,mouse_11.rightButton,trials_2.thisRepN,trials_2.thisTrialN,trials_2.thisN,trials_2.thisIndex,trials_2.ran,Colourpair,Temporder,mouse_3.clicked_name,mouse_11.clicked_name,trials_3.thisRepN,trials_3.thisTrialN,trials_3.thisN,trials_3.thisIndex,trials_3.ran,key_resp_instr_Ishi.keys,key_resp_instr_Ishi.rt,Ishi_trial_keyresp.keys,Ishi_textbox.text,Ishi_mouse.x,Ishi_mouse.y,Ishi_mouse.leftButton,Ishi_mouse.midButton,Ishi_mouse.rightButton,Ishi_mouse.clicked_name,Ishi_loop.thisRepN,Ishi_loop.thisTrialN,Ishi_loop.thisN,Ishi_loop.thisIndex,Ishi_loop.ran,imageaddress,textbox.text,mouse_4.x,mouse_4.y,mouse_4.leftButton,mouse_4.midButton,mouse_4.rightButton,mouse_4.clicked_name,textbox_2.text,mouse_8.x,mouse_8.y,mouse_8.leftButton,mouse_8.midButton,mouse_8.rightButton,mouse_8.clicked_name,textbox_3.text,mouse_9.x,mouse_9.y,mouse_9.leftButton,mouse_9.midButton,mouse_9.rightButton,mouse_9.clicked_name,textbox_4.text,mouse_12.x,mouse_12.y,mouse_12.leftButton,mouse_12.midButton,mouse_12.rightButton,mouse_12.clicked_name,textbox_5.text,mouse_13.x,mouse_13.y,mouse_13.leftButton,mouse_13.midButton,mouse_13.rightButton,mouse_13.clicked_name,textbox_6.text,mouse_14.x,mouse_14.y,mouse_14.leftButton,mouse_14.midButton,mouse_14.rightButton,mouse_14.clicked_name,textbox_7.text,mouse_15.x,mouse_15.y,mouse_15.leftButton,mouse_15.midButton,mouse_15.rightButton,mouse_15.clicked_name
0,0,0,83,1,,5ee0a607b1d0693f75003f64,62c53a3f6fbbb58e9db4e16e,2022-07-06_10h31.24.391,Colour_Asymmetry_Pilot,2022.1.3,Win32,60.55468088,62c50e9c1127f2cd403a315f,,,,,,,,,,,,,,,,,,,,,,,,,,,,,,,,,,,,,,,,,,,,,,,,,,,,,,,,,,,,,,,,,,,,,,,,,,,,,,,,,,,,,,,,,,,,,,,,,,,,,,,,,,,,,,,,,,,,,,,,,,,,,,,,,,,,,,,,,,,,,,,,,,,,,,,,,,,,,,,,,,,
0,1,1,46,1,,5ee0a607b1d0693f75003f64,62c53a3f6fbbb58e9db4e16e,2022-07-06_10h31.24.391,Colour_Asymmetry_Pilot,2022.1.3,Win32,60.55468088,62c50e9c1127f2cd403a315f,,,,,,,,,,,,,,,,,,,,,,,,,,,,,,,,,,,,,,,,,,,,,,,,,,,,,,,,,,,,,,,,,,,,,,,,,,,,,,,,,,,,,,,,,,,,,,,,,,,,,,,,,,,,,,,,,,,,,,,,,,,,,,,,,,,,,,,,,,,,,,,,,,,,,,,,,,,,,,,,,,,
0,2,2,88,1,,5ee0a607b1d0693f75003f64,62c53a3f6fbbb58e9db4e16e,2022-07-06_10h31.24.391,Colour_Asymmetry_Pilot,2022.1.3,Win32,60.55468088,62c50e9c1127f2cd403a315f,,,,,,,,,,,,,,,,,,,,,,,,,,,,,,,,,,,,,,,,,,,,,,,,,,,,,,,,,,,,,,,,,,,,,,,,,,,,,,,,,,,,,,,,,,,,,,,,,,,,,,,,,,,,,,,,,,,,,,,,,,,,,,,,,,,,,,,,,,,,,,,,,,,,,,,,,,,,,,,,,,,
0,3,3,31,1,,5ee0a607b1d0693f75003f64,62c53a3f6fbbb58e9db4e16e,2022-07-06_10h31.24.391,Colour_Asymmetry_Pilot,2022.1.3,Win32,60.55468088,62c50e9c1127f2cd403a315f,,,,,,,,,,,,,,,,,,,,,,,,,,,,,,,,,,,,,,,,,,,,,,,,,,,,,,,,,,,,,,,,,,,,,,,,,,,,,,,,,,,,,,,,,,,,,,,,,,,,,,,,,,,,,,,,,,,,,,,,,,,,,,,,,,,,,,,,,,,,,,,,,,,,,,,,,,,,,,,,,,,
0,4,4,57,1,,5ee0a607b1d0693f75003f64,62c53a3f6fbbb58e9db4e16e,2022-07-06_10h31.24.391,Colour_Asymmetry_Pilot,2022.1.3,Win32,60.55468088,62c50e9c1127f2cd403a315f,,,,,,,,,,,,,,,,,,,,,,,,,,,,,,,,,,,,,,,,,,,,,,,,,,,,,,,,,,,,,,,,,,,,,,,,,,,,,,,,,,,,,,,,,,,,,,,,,,,,,,,,,,,,,,,,,,,,,,,,,,,,,,,,,,,,,,,,,,,,,,,,,,,,,,,,,,,,,,,,,,,
0,5,5,71,1,,5ee0a607b1d0693f75003f64,62c53a3f6fbbb58e9db4e16e,2022-07-06_10h31.24.391,Colour_Asymmetry_Pilot,2022.1.3,Win32,60.55468088,62c50e9c1127f2cd403a315f,,,,,,,,,,,,,,,,,,,,,,,,,,,,,,,,,,,,,,,,,,,,,,,,,,,,,,,,,,,,,,,,,,,,,,,,,,,,,,,,,,,,,,,,,,,,,,,,,,,,,,,,,,,,,,,,,,,,,,,,,,,,,,,,,,,,,,,,,,,,,,,,,,,,,,,,,,,,,,,,,,,
0,6,6,27,1,,5ee0a607b1d0693f75003f64,62c53a3f6fbbb58e9db4e16e,2022-07-06_10h31.24.391,Colour_Asymmetry_Pilot,2022.1.3,Win32,60.55468088,62c50e9c1127f2cd403a315f,,,,,,,,,,,,,,,,,,,,,,,,,,,,,,,,,,,,,,,,,,,,,,,,,,,,,,,,,,,,,,,,,,,,,,,,,,,,,,,,,,,,,,,,,,,,,,,,,,,,,,,,,,,,,,,,,,,,,,,,,,,,,,,,,,,,,,,,,,,,,,,,,,,,,,,,,,,,,,,,,,,
0,7,7,64,1,,5ee0a607b1d0693f75003f64,62c53a3f6fbbb58e9db4e16e,2022-07-06_10h31.24.391,Colour_Asymmetry_Pilot,2022.1.3,Win32,60.55468088,62c50e9c1127f2cd403a315f,,,,,,,,,,,,,,,,,,,,,,,,,,,,,,,,,,,,,,,,,,,,,,,,,,,,,,,,,,,,,,,,,,,,,,,,,,,,,,,,,,,,,,,,,,,,,,,,,,,,,,,,,,,,,,,,,,,,,,,,,,,,,,,,,,,,,,,,,,,,,,,,,,,,,,,,,,,,,,,,,,,
0,8,8,38,1,,5ee0a607b1d0693f75003f64,62c53a3f6fbbb58e9db4e16e,2022-07-06_10h31.24.391,Colour_Asymmetry_Pilot,2022.1.3,Win32,60.55468088,62c50e9c1127f2cd403a315f,,,,,,,,,,,,,,,,,,,,,,,,,,,,,,,,,,,,,,,,,,,,,,,,,,,,,,,,,,,,,,,,,,,,,,,,,,,,,,,,,,,,,,,,,,,,,,,,,,,,,,,,,,,,,,,,,,,,,,,,,,,,,,,,,,,,,,,,,,,,,,,,,,,,,,,,,,,,,,,,,,,
0,9,9,23,1,,5ee0a607b1d0693f75003f64,62c53a3f6fbbb58e9db4e16e,2022-07-06_10h31.24.391,Colour_Asymmetry_Pilot,2022.1.3,Win32,60.55468088,62c50e9c1127f2cd403a315f,,,,,,,,,,,,,,,,,,,,,,,,,,,,,,,,,,,,,,,,,,,,,,,,,,,,,,,,,,,,,,,,,,,,,,,,,,,,,,,,,,,,,,,,,,,,,,,,,,,,,,,,,,,,,,,,,,,,,,,,,,,,,,,,,,,,,,,,,,,,,,,,,,,,,,,,,,,,,,,,,,,
0,10,10,92,1,,5ee0a607b1d0693f75003f64,62c53a3f6fbbb58e9db4e16e,2022-07-06_10h31.24.391,Colour_Asymmetry_Pilot,2022.1.3,Win32,60.55468088,62c50e9c1127f2cd403a315f,,,,,,,,,,,,,,,,,,,,,,,,,,,,,,,,,,,,,,,,,,,,,,,,,,,,,,,,,,,,,,,,,,,,,,,,,,,,,,,,,,,,,,,,,,,,,,,,,,,,,,,,,,,,,,,,,,,,,,,,,,,,,,,,,,,,,,,,,,,,,,,,,,,,,,,,,,,,,,,,,,,
0,11,11,68,1,,5ee0a607b1d0693f75003f64,62c53a3f6fbbb58e9db4e16e,2022-07-06_10h31.24.391,Colour_Asymmetry_Pilot,2022.1.3,Win32,60.55468088,62c50e9c1127f2cd403a315f,,,,,,,,,,,,,,,,,,,,,,,,,,,,,,,,,,,,,,,,,,,,,,,,,,,,,,,,,,,,,,,,,,,,,,,,,,,,,,,,,,,,,,,,,,,,,,,,,,,,,,,,,,,,,,,,,,,,,,,,,,,,,,,,,,,,,,,,,,,,,,,,,,,,,,,,,,,,,,,,,,,
0,12,12,19,1,,5ee0a607b1d0693f75003f64,62c53a3f6fbbb58e9db4e16e,2022-07-06_10h31.24.391,Colour_Asymmetry_Pilot,2022.1.3,Win32,60.55468088,62c50e9c1127f2cd403a315f,,,,,,,,,,,,,,,,,,,,,,,,,,,,,,,,,,,,,,,,,,,,,,,,,,,,,,,,,,,,,,,,,,,,,,,,,,,,,,,,,,,,,,,,,,,,,,,,,,,,,,,,,,,,,,,,,,,,,,,,,,,,,,,,,,,,,,,,,,,,,,,,,,,,,,,,,,,,,,,,,,,
0,13,13,58,1,,5ee0a607b1d0693f75003f64,62c53a3f6fbbb58e9db4e16e,2022-07-06_10h31.24.391,Colour_Asymmetry_Pilot,2022.1.3,Win32,60.55468088,62c50e9c1127f2cd403a315f,,,,,,,,,,,,,,,,,,,,,,,,,,,,,,,,,,,,,,,,,,,,,,,,,,,,,,,,,,,,,,,,,,,,,,,,,,,,,,,,,,,,,,,,,,,,,,,,,,,,,,,,,,,,,,,,,,,,,,,,,,,,,,,,,,,,,,,,,,,,,,,,,,,,,,,,,,,,,,,,,,,
0,14,14,20,1,,5ee0a607b1d0693f75003f64,62c53a3f6fbbb58e9db4e16e,2022-07-06_10h31.24.391,Colour_Asymmetry_Pilot,2022.1.3,Win32,60.55468088,62c50e9c1127f2cd403a315f,,,,,,,,,,,,,,,,,,,,,,,,,,,,,,,,,,,,,,,,,,,,,,,,,,,,,,,,,,,,,,,,,,,,,,,,,,,,,,,,,,,,,,,,,,,,,,,,,,,,,,,,,,,,,,,,,,,,,,,,,,,,,,,,,,,,,,,,,,,,,,,,,,,,,,,,,,,,,,,,,,,
0,15,15,17,1,,5ee0a607b1d0693f75003f64,62c53a3f6fbbb58e9db4e16e,2022-07-06_10h31.24.391,Colour_Asymmetry_Pilot,2022.1.3,Win32,60.55468088,62c50e9c1127f2cd403a315f,,,,,,,,,,,,,,,,,,,,,,,,,,,,,,,,,,,,,,,,,,,,,,,,,,,,,,,,,,,,,,,,,,,,,,,,,,,,,,,,,,,,,,,,,,,,,,,,,,,,,,,,,,,,,,,,,,,,,,,,,,,,,,,,,,,,,,,,,,,,,,,,,,,,,,,,,,,,,,,,,,,
0,16,16,35,1,,5ee0a607b1d0693f75003f64,62c53a3f6fbbb58e9db4e16e,2022-07-06_10h31.24.391,Colour_Asymmetry_Pilot,2022.1.3,Win32,60.55468088,62c50e9c1127f2cd403a315f,,,,,,,,,,,,,,,,,,,,,,,,,,,,,,,,,,,,,,,,,,,,,,,,,,,,,,,,,,,,,,,,,,,,,,,,,,,,,,,,,,,,,,,,,,,,,,,,,,,,,,,,,,,,,,,,,,,,,,,,,,,,,,,,,,,,,,,,,,,,,,,,,,,,,,,,,,,,,,,,,,,
0,17,17,42,1,,5ee0a607b1d0693f75003f64,62c53a3f6fbbb58e9db4e16e,2022-07-06_10h31.24.391,Colour_Asymmetry_Pilot,2022.1.3,Win32,60.55468088,62c50e9c1127f2cd403a315f,,,,,,,,,,,,,,,,,,,,,,,,,,,,,,,,,,,,,,,,,,,,,,,,,,,,,,,,,,,,,,,,,,,,,,,,,,,,,,,,,,,,,,,,,,,,,,,,,,,,,,,,,,,,,,,,,,,,,,,,,,,,,,,,,,,,,,,,,,,,,,,,,,,,,,,,,,,,,,,,,,,
0,18,18,60,1,,5ee0a607b1d0693f75003f64,62c53a3f6fbbb58e9db4e16e,2022-07-06_10h31.24.391,Colour_Asymmetry_Pilot,2022.1.3,Win32,60.55468088,62c50e9c1127f2cd403a315f,,,,,,,,,,,,,,,,,,,,,,,,,,,,,,,,,,,,,,,,,,,,,,,,,,,,,,,,,,,,,,,,,,,,,,,,,,,,,,,,,,,,,,,,,,,,,,,,,,,,,,,,,,,,,,,,,,,,,,,,,,,,,,,,,,,,,,,,,,,,,,,,,,,,,,,,,,,,,,,,,,,
0,19,19,1,1,,5ee0a607b1d0693f75003f64,62c53a3f6fbbb58e9db4e16e,2022-07-06_10h31.24.391,Colour_Asymmetry_Pilot,2022.1.3,Win32,60.55468088,62c50e9c1127f2cd403a315f,,,,,,,,,,,,,,,,,,,,,,,,,,,,,,,,,,,,,,,,,,,,,,,,,,,,,,,,,,,,,,,,,,,,,,,,,,,,,,,,,,,,,,,,,,,,,,,,,,,,,,,,,,,,,,,,,,,,,,,,,,,,,,,,,,,,,,,,,,,,,,,,,,,,,,,,,,,,,,,,,,,
0,20,20,28,1,,5ee0a607b1d0693f75003f64,62c53a3f6fbbb58e9db4e16e,2022-07-06_10h31.24.391,Colour_Asymmetry_Pilot,2022.1.3,Win32,60.55468088,62c50e9c1127f2cd403a315f,,,,,,,,,,,,,,,,,,,,,,,,,,,,,,,,,,,,,,,,,,,,,,,,,,,,,,,,,,,,,,,,,,,,,,,,,,,,,,,,,,,,,,,,,,,,,,,,,,,,,,,,,,,,,,,,,,,,,,,,,,,,,,,,,,,,,,,,,,,,,,,,,,,,,,,,,,,,,,,,,,,
0,21,21,91,1,,5ee0a607b1d0693f75003f64,62c53a3f6fbbb58e9db4e16e,2022-07-06_10h31.24.391,Colour_Asymmetry_Pilot,2022.1.3,Win32,60.55468088,62c50e9c1127f2cd403a315f,,,,,,,,,,,,,,,,,,,,,,,,,,,,,,,,,,,,,,,,,,,,,,,,,,,,,,,,,,,,,,,,,,,,,,,,,,,,,,,,,,,,,,,,,,,,,,,,,,,,,,,,,,,,,,,,,,,,,,,,,,,,,,,,,,,,,,,,,,,,,,,,,,,,,,,,,,,,,,,,,,,
0,22,22,22,1,,5ee0a607b1d0693f75003f64,62c53a3f6fbbb58e9db4e16e,2022-07-06_10h31.24.391,Colour_Asymmetry_Pilot,2022.1.3,Win32,60.55468088,62c50e9c1127f2cd403a315f,,,,,,,,,,,,,,,,,,,,,,,,,,,,,,,,,,,,,,,,,,,,,,,,,,,,,,,,,,,,,,,,,,,,,,,,,,,,,,,,,,,,,,,,,,,,,,,,,,,,,,,,,,,,,,,,,,,,,,,,,,,,,,,,,,,,,,,,,,,,,,,,,,,,,,,,,,,,,,,,,,,
0,23,23,77,1,,5ee0a607b1d0693f75003f64,62c53a3f6fbbb58e9db4e16e,2022-07-06_10h31.24.391,Colour_Asymmetry_Pilot,2022.1.3,Win32,60.55468088,62c50e9c1127f2cd403a315f,,,,,,,,,,,,,,,,,,,,,,,,,,,,,,,,,,,,,,,,,,,,,,,,,,,,,,,,,,,,,,,,,,,,,,,,,,,,,,,,,,,,,,,,,,,,,,,,,,,,,,,,,,,,,,,,,,,,,,,,,,,,,,,,,,,,,,,,,,,,,,,,,,,,,,,,,,,,,,,,,,,
0,24,24,81,1,,5ee0a607b1d0693f75003f64,62c53a3f6fbbb58e9db4e16e,2022-07-06_10h31.24.391,Colour_Asymmetry_Pilot,2022.1.3,Win32,60.55468088,62c50e9c1127f2cd403a315f,,,,,,,,,,,,,,,,,,,,,,,,,,,,,,,,,,,,,,,,,,,,,,,,,,,,,,,,,,,,,,,,,,,,,,,,,,,,,,,,,,,,,,,,,,,,,,,,,,,,,,,,,,,,,,,,,,,,,,,,,,,,,,,,,,,,,,,,,,,,,,,,,,,,,,,,,,,,,,,,,,,
0,25,25,61,1,,5ee0a607b1d0693f75003f64,62c53a3f6fbbb58e9db4e16e,2022-07-06_10h31.24.391,Colour_Asymmetry_Pilot,2022.1.3,Win32,60.55468088,62c50e9c1127f2cd403a315f,,,,,,,,,,,,,,,,,,,,,,,,,,,,,,,,,,,,,,,,,,,,,,,,,,,,,,,,,,,,,,,,,,,,,,,,,,,,,,,,,,,,,,,,,,,,,,,,,,,,,,,,,,,,,,,,,,,,,,,,,,,,,,,,,,,,,,,,,,,,,,,,,,,,,,,,,,,,,,,,,,,
0,26,26,37,1,,5ee0a607b1d0693f75003f64,62c53a3f6fbbb58e9db4e16e,2022-07-06_10h31.24.391,Colour_Asymmetry_Pilot,2022.1.3,Win32,60.55468088,62c50e9c1127f2cd403a315f,,,,,,,,,,,,,,,,,,,,,,,,,,,,,,,,,,,,,,,,,,,,,,,,,,,,,,,,,,,,,,,,,,,,,,,,,,,,,,,,,,,,,,,,,,,,,,,,,,,,,,,,,,,,,,,,,,,,,,,,,,,,,,,,,,,,,,,,,,,,,,,,,,,,,,,,,,,,,,,,,,,
0,27,27,90,1,,5ee0a607b1d0693f75003f64,62c53a3f6fbbb58e9db4e16e,2022-07-06_10h31.24.391,Colour_Asymmetry_Pilot,2022.1.3,Win32,60.55468088,62c50e9c1127f2cd403a315f,,,,,,,,,,,,,,,,,,,,,,,,,,,,,,,,,,,,,,,,,,,,,,,,,,,,,,,,,,,,,,,,,,,,,,,,,,,,,,,,,,,,,,,,,,,,,,,,,,,,,,,,,,,,,,,,,,,,,,,,,,,,,,,,,,,,,,,,,,,,,,,,,,,,,,,,,,,,,,,,,,,
0,28,28,76,1,,5ee0a607b1d0693f75003f64,62c53a3f6fbbb58e9db4e16e,2022-07-06_10h31.24.391,Colour_Asymmetry_Pilot,2022.1.3,Win32,60.55468088,62c50e9c1127f2cd403a315f,,,,,,,,,,,,,,,,,,,,,,,,,,,,,,,,,,,,,,,,,,,,,,,,,,,,,,,,,,,,,,,,,,,,,,,,,,,,,,,,,,,,,,,,,,,,,,,,,,,,,,,,,,,,,,,,,,,,,,,,,,,,,,,,,,,,,,,,,,,,,,,,,,,,,,,,,,,,,,,,,,,
0,29,29,8,1,,5ee0a607b1d0693f75003f64,62c53a3f6fbbb58e9db4e16e,2022-07-06_10h31.24.391,Colour_Asymmetry_Pilot,2022.1.3,Win32,60.55468088,62c50e9c1127f2cd403a315f,,,,,,,,,,,,,,,,,,,,,,,,,,,,,,,,,,,,,,,,,,,,,,,,,,,,,,,,,,,,,,,,,,,,,,,,,,,,,,,,,,,,,,,,,,,,,,,,,,,,,,,,,,,,,,,,,,,,,,,,,,,,,,,,,,,,,,,,,,,,,,,,,,,,,,,,,,,,,,,,,,,
0,30,30,29,1,,5ee0a607b1d0693f75003f64,62c53a3f6fbbb58e9db4e16e,2022-07-06_10h31.24.391,Colour_Asymmetry_Pilot,2022.1.3,Win32,60.55468088,62c50e9c1127f2cd403a315f,,,,,,,,,,,,,,,,,,,,,,,,,,,,,,,,,,,,,,,,,,,,,,,,,,,,,,,,,,,,,,,,,,,,,,,,,,,,,,,,,,,,,,,,,,,,,,,,,,,,,,,,,,,,,,,,,,,,,,,,,,,,,,,,,,,,,,,,,,,,,,,,,,,,,,,,,,,,,,,,,,,
0,31,31,78,1,,5ee0a607b1d0693f75003f64,62c53a3f6fbbb58e9db4e16e,2022-07-06_10h31.24.391,Colour_Asymmetry_Pilot,2022.1.3,Win32,60.55468088,62c50e9c1127f2cd403a315f,,,,,,,,,,,,,,,,,,,,,,,,,,,,,,,,,,,,,,,,,,,,,,,,,,,,,,,,,,,,,,,,,,,,,,,,,,,,,,,,,,,,,,,,,,,,,,,,,,,,,,,,,,,,,,,,,,,,,,,,,,,,,,,,,,,,,,,,,,,,,,,,,,,,,,,,,,,,,,,,,,,
0,32,32,86,1,,5ee0a607b1d0693f75003f64,62c53a3f6fbbb58e9db4e16e,2022-07-06_10h31.24.391,Colour_Asymmetry_Pilot,2022.1.3,Win32,60.55468088,62c50e9c1127f2cd403a315f,,,,,,,,,,,,,,,,,,,,,,,,,,,,,,,,,,,,,,,,,,,,,,,,,,,,,,,,,,,,,,,,,,,,,,,,,,,,,,,,,,,,,,,,,,,,,,,,,,,,,,,,,,,,,,,,,,,,,,,,,,,,,,,,,,,,,,,,,,,,,,,,,,,,,,,,,,,,,,,,,,,
0,33,33,14,1,,5ee0a607b1d0693f75003f64,62c53a3f6fbbb58e9db4e16e,2022-07-06_10h31.24.391,Colour_Asymmetry_Pilot,2022.1.3,Win32,60.55468088,62c50e9c1127f2cd403a315f,,,,,,,,,,,,,,,,,,,,,,,,,,,,,,,,,,,,,,,,,,,,,,,,,,,,,,,,,,,,,,,,,,,,,,,,,,,,,,,,,,,,,,,,,,,,,,,,,,,,,,,,,,,,,,,,,,,,,,,,,,,,,,,,,,,,,,,,,,,,,,,,,,,,,,,,,,,,,,,,,,,
0,34,34,75,1,,5ee0a607b1d0693f75003f64,62c53a3f6fbbb58e9db4e16e,2022-07-06_10h31.24.391,Colour_Asymmetry_Pilot,2022.1.3,Win32,60.55468088,62c50e9c1127f2cd403a315f,,,,,,,,,,,,,,,,,,,,,,,,,,,,,,,,,,,,,,,,,,,,,,,,,,,,,,,,,,,,,,,,,,,,,,,,,,,,,,,,,,,,,,,,,,,,,,,,,,,,,,,,,,,,,,,,,,,,,,,,,,,,,,,,,,,,,,,,,,,,,,,,,,,,,,,,,,,,,,,,,,,
0,35,35,12,1,,5ee0a607b1d0693f75003f64,62c53a3f6fbbb58e9db4e16e,2022-07-06_10h31.24.391,Colour_Asymmetry_Pilot,2022.1.3,Win32,60.55468088,62c50e9c1127f2cd403a315f,,,,,,,,,,,,,,,,,,,,,,,,,,,,,,,,,,,,,,,,,,,,,,,,,,,,,,,,,,,,,,,,,,,,,,,,,,,,,,,,,,,,,,,,,,,,,,,,,,,,,,,,,,,,,,,,,,,,,,,,,,,,,,,,,,,,,,,,,,,,,,,,,,,,,,,,,,,,,,,,,,,
0,36,36,9,1,,5ee0a607b1d0693f75003f64,62c53a3f6fbbb58e9db4e16e,2022-07-06_10h31.24.391,Colour_Asymmetry_Pilot,2022.1.3,Win32,60.55468088,62c50e9c1127f2cd403a315f,,,,,,,,,,,,,,,,,,,,,,,,,,,,,,,,,,,,,,,,,,,,,,,,,,,,,,,,,,,,,,,,,,,,,,,,,,,,,,,,,,,,,,,,,,,,,,,,,,,,,,,,,,,,,,,,,,,,,,,,,,,,,,,,,,,,,,,,,,,,,,,,,,,,,,,,,,,,,,,,,,,
0,37,37,80,1,,5ee0a607b1d0693f75003f64,62c53a3f6fbbb58e9db4e16e,2022-07-06_10h31.24.391,Colour_Asymmetry_Pilot,2022.1.3,Win32,60.55468088,62c50e9c1127f2cd403a315f,,,,,,,,,,,,,,,,,,,,,,,,,,,,,,,,,,,,,,,,,,,,,,,,,,,,,,,,,,,,,,,,,,,,,,,,,,,,,,,,,,,,,,,,,,,,,,,,,,,,,,,,,,,,,,,,,,,,,,,,,,,,,,,,,,,,,,,,,,,,,,,,,,,,,,,,,,,,,,,,,,,
0,38,38,32,1,,5ee0a607b1d0693f75003f64,62c53a3f6fbbb58e9db4e16e,2022-07-06_10h31.24.391,Colour_Asymmetry_Pilot,2022.1.3,Win32,60.55468088,62c50e9c1127f2cd403a315f,,,,,,,,,,,,,,,,,,,,,,,,,,,,,,,,,,,,,,,,,,,,,,,,,,,,,,,,,,,,,,,,,,,,,,,,,,,,,,,,,,,,,,,,,,,,,,,,,,,,,,,,,,,,,,,,,,,,,,,,,,,,,,,,,,,,,,,,,,,,,,,,,,,,,,,,,,,,,,,,,,,
0,39,39,62,1,,5ee0a607b1d0693f75003f64,62c53a3f6fbbb58e9db4e16e,2022-07-06_10h31.24.391,Colour_Asymmetry_Pilot,2022.1.3,Win32,60.55468088,62c50e9c1127f2cd403a315f,,,,,,,,,,,,,,,,,,,,,,,,,,,,,,,,,,,,,,,,,,,,,,,,,,,,,,,,,,,,,,,,,,,,,,,,,,,,,,,,,,,,,,,,,,,,,,,,,,,,,,,,,,,,,,,,,,,,,,,,,,,,,,,,,,,,,,,,,,,,,,,,,,,,,,,,,,,,,,,,,,,
0,40,40,33,1,,5ee0a607b1d0693f75003f64,62c53a3f6fbbb58e9db4e16e,2022-07-06_10h31.24.391,Colour_Asymmetry_Pilot,2022.1.3,Win32,60.55468088,62c50e9c1127f2cd403a315f,,,,,,,,,,,,,,,,,,,,,,,,,,,,,,,,,,,,,,,,,,,,,,,,,,,,,,,,,,,,,,,,,,,,,,,,,,,,,,,,,,,,,,,,,,,,,,,,,,,,,,,,,,,,,,,,,,,,,,,,,,,,,,,,,,,,,,,,,,,,,,,,,,,,,,,,,,,,,,,,,,,
0,41,41,82,1,,5ee0a607b1d0693f75003f64,62c53a3f6fbbb58e9db4e16e,2022-07-06_10h31.24.391,Colour_Asymmetry_Pilot,2022.1.3,Win32,60.55468088,62c50e9c1127f2cd403a315f,,,,,,,,,,,,,,,,,,,,,,,,,,,,,,,,,,,,,,,,,,,,,,,,,,,,,,,,,,,,,,,,,,,,,,,,,,,,,,,,,,,,,,,,,,,,,,,,,,,,,,,,,,,,,,,,,,,,,,,,,,,,,,,,,,,,,,,,,,,,,,,,,,,,,,,,,,,,,,,,,,,
0,42,42,7,1,,5ee0a607b1d0693f75003f64,62c53a3f6fbbb58e9db4e16e,2022-07-06_10h31.24.391,Colour_Asymmetry_Pilot,2022.1.3,Win32,60.55468088,62c50e9c1127f2cd403a315f,,,,,,,,,,,,,,,,,,,,,,,,,,,,,,,,,,,,,,,,,,,,,,,,,,,,,,,,,,,,,,,,,,,,,,,,,,,,,,,,,,,,,,,,,,,,,,,,,,,,,,,,,,,,,,,,,,,,,,,,,,,,,,,,,,,,,,,,,,,,,,,,,,,,,,,,,,,,,,,,,,,
0,43,43,85,1,,5ee0a607b1d0693f75003f64,62c53a3f6fbbb58e9db4e16e,2022-07-06_10h31.24.391,Colour_Asymmetry_Pilot,2022.1.3,Win32,60.55468088,62c50e9c1127f2cd403a315f,,,,,,,,,,,,,,,,,,,,,,,,,,,,,,,,,,,,,,,,,,,,,,,,,,,,,,,,,,,,,,,,,,,,,,,,,,,,,,,,,,,,,,,,,,,,,,,,,,,,,,,,,,,,,,,,,,,,,,,,,,,,,,,,,,,,,,,,,,,,,,,,,,,,,,,,,,,,,,,,,,,
0,44,44,59,1,,5ee0a607b1d0693f75003f64,62c53a3f6fbbb58e9db4e16e,2022-07-06_10h31.24.391,Colour_Asymmetry_Pilot,2022.1.3,Win32,60.55468088,62c50e9c1127f2cd403a315f,,,,,,,,,,,,,,,,,,,,,,,,,,,,,,,,,,,,,,,,,,,,,,,,,,,,,,,,,,,,,,,,,,,,,,,,,,,,,,,,,,,,,,,,,,,,,,,,,,,,,,,,,,,,,,,,,,,,,,,,,,,,,,,,,,,,,,,,,,,,,,,,,,,,,,,,,,,,,,,,,,,
0,45,45,56,1,,5ee0a607b1d0693f75003f64,62c53a3f6fbbb58e9db4e16e,2022-07-06_10h31.24.391,Colour_Asymmetry_Pilot,2022.1.3,Win32,60.55468088,62c50e9c1127f2cd403a315f,,,,,,,,,,,,,,,,,,,,,,,,,,,,,,,,,,,,,,,,,,,,,,,,,,,,,,,,,,,,,,,,,,,,,,,,,,,,,,,,,,,,,,,,,,,,,,,,,,,,,,,,,,,,,,,,,,,,,,,,,,,,,,,,,,,,,,,,,,,,,,,,,,,,,,,,,,,,,,,,,,,
0,46,46,41,1,,5ee0a607b1d0693f75003f64,62c53a3f6fbbb58e9db4e16e,2022-07-06_10h31.24.391,Colour_Asymmetry_Pilot,2022.1.3,Win32,60.55468088,62c50e9c1127f2cd403a315f,,,,,,,,,,,,,,,,,,,,,,,,,,,,,,,,,,,,,,,,,,,,,,,,,,,,,,,,,,,,,,,,,,,,,,,,,,,,,,,,,,,,,,,,,,,,,,,,,,,,,,,,,,,,,,,,,,,,,,,,,,,,,,,,,,,,,,,,,,,,,,,,,,,,,,,,,,,,,,,,,,,
0,47,47,53,1,,5ee0a607b1d0693f75003f64,62c53a3f6fbbb58e9db4e16e,2022-07-06_10h31.24.391,Colour_Asymmetry_Pilot,2022.1.3,Win32,60.55468088,62c50e9c1127f2cd403a315f,,,,,,,,,,,,,,,,,,,,,,,,,,,,,,,,,,,,,,,,,,,,,,,,,,,,,,,,,,,,,,,,,,,,,,,,,,,,,,,,,,,,,,,,,,,,,,,,,,,,,,,,,,,,,,,,,,,,,,,,,,,,,,,,,,,,,,,,,,,,,,,,,,,,,,,,,,,,,,,,,,,
0,48,48,0,1,,5ee0a607b1d0693f75003f64,62c53a3f6fbbb58e9db4e16e,2022-07-06_10h31.24.391,Colour_Asymmetry_Pilot,2022.1.3,Win32,60.55468088,62c50e9c1127f2cd403a315f,,,,,,,,,,,,,,,,,,,,,,,,,,,,,,,,,,,,,,,,,,,,,,,,,,,,,,,,,,,,,,,,,,,,,,,,,,,,,,,,,,,,,,,,,,,,,,,,,,,,,,,,,,,,,,,,,,,,,,,,,,,,,,,,,,,,,,,,,,,,,,,,,,,,,,,,,,,,,,,,,,,
0,49,49,6,1,,5ee0a607b1d0693f75003f64,62c53a3f6fbbb58e9db4e16e,2022-07-06_10h31.24.391,Colour_Asymmetry_Pilot,2022.1.3,Win32,60.55468088,62c50e9c1127f2cd403a315f,,,,,,,,,,,,,,,,,,,,,,,,,,,,,,,,,,,,,,,,,,,,,,,,,,,,,,,,,,,,,,,,,,,,,,,,,,,,,,,,,,,,,,,,,,,,,,,,,,,,,,,,,,,,,,,,,,,,,,,,,,,,,,,,,,,,,,,,,,,,,,,,,,,,,,,,,,,,,,,,,,,
0,50,50,43,1,,5ee0a607b1d0693f75003f64,62c53a3f6fbbb58e9db4e16e,2022-07-06_10h31.24.391,Colour_Asymmetry_Pilot,2022.1.3,Win32,60.55468088,62c50e9c1127f2cd403a315f,,,,,,,,,,,,,,,,,,,,,,,,,,,,,,,,,,,,,,,,,,,,,,,,,,,,,,,,,,,,,,,,,,,,,,,,,,,,,,,,,,,,,,,,,,,,,,,,,,,,,,,,,,,,,,,,,,,,,,,,,,,,,,,,,,,,,,,,,,,,,,,,,,,,,,,,,,,,,,,,,,,
0,51,51,55,1,,5ee0a607b1d0693f75003f64,62c53a3f6fbbb58e9db4e16e,2022-07-06_10h31.24.391,Colour_Asymmetry_Pilot,2022.1.3,Win32,60.55468088,62c50e9c1127f2cd403a315f,,,,,,,,,,,,,,,,,,,,,,,,,,,,,,,,,,,,,,,,,,,,,,,,,,,,,,,,,,,,,,,,,,,,,,,,,,,,,,,,,,,,,,,,,,,,,,,,,,,,,,,,,,,,,,,,,,,,,,,,,,,,,,,,,,,,,,,,,,,,,,,,,,,,,,,,,,,,,,,,,,,
0,52,52,63,1,,5ee0a607b1d0693f75003f64,62c53a3f6fbbb58e9db4e16e,2022-07-06_10h31.24.391,Colour_Asymmetry_Pilot,2022.1.3,Win32,60.55468088,62c50e9c1127f2cd403a315f,,,,,,,,,,,,,,,,,,,,,,,,,,,,,,,,,,,,,,,,,,,,,,,,,,,,,,,,,,,,,,,,,,,,,,,,,,,,,,,,,,,,,,,,,,,,,,,,,,,,,,,,,,,,,,,,,,,,,,,,,,,,,,,,,,,,,,,,,,,,,,,,,,,,,,,,,,,,,,,,,,,
0,53,53,10,1,,5ee0a607b1d0693f75003f64,62c53a3f6fbbb58e9db4e16e,2022-07-06_10h31.24.391,Colour_Asymmetry_Pilot,2022.1.3,Win32,60.55468088,62c50e9c1127f2cd403a315f,,,,,,,,,,,,,,,,,,,,,,,,,,,,,,,,,,,,,,,,,,,,,,,,,,,,,,,,,,,,,,,,,,,,,,,,,,,,,,,,,,,,,,,,,,,,,,,,,,,,,,,,,,,,,,,,,,,,,,,,,,,,,,,,,,,,,,,,,,,,,,,,,,,,,,,,,,,,,,,,,,,
0,54,54,50,1,,5ee0a607b1d0693f75003f64,62c53a3f6fbbb58e9db4e16e,2022-07-06_10h31.24.391,Colour_Asymmetry_Pilot,2022.1.3,Win32,60.55468088,62c50e9c1127f2cd403a315f,,,,,,,,,,,,,,,,,,,,,,,,,,,,,,,,,,,,,,,,,,,,,,,,,,,,,,,,,,,,,,,,,,,,,,,,,,,,,,,,,,,,,,,,,,,,,,,,,,,,,,,,,,,,,,,,,,,,,,,,,,,,,,,,,,,,,,,,,,,,,,,,,,,,,,,,,,,,,,,,,,,
0,55,55,69,1,,5ee0a607b1d0693f75003f64,62c53a3f6fbbb58e9db4e16e,2022-07-06_10h31.24.391,Colour_Asymmetry_Pilot,2022.1.3,Win32,60.55468088,62c50e9c1127f2cd403a315f,,,,,,,,,,,,,,,,,,,,,,,,,,,,,,,,,,,,,,,,,,,,,,,,,,,,,,,,,,,,,,,,,,,,,,,,,,,,,,,,,,,,,,,,,,,,,,,,,,,,,,,,,,,,,,,,,,,,,,,,,,,,,,,,,,,,,,,,,,,,,,,,,,,,,,,,,,,,,,,,,,,
0,56,56,66,1,,5ee0a607b1d0693f75003f64,62c53a3f6fbbb58e9db4e16e,2022-07-06_10h31.24.391,Colour_Asymmetry_Pilot,2022.1.3,Win32,60.55468088,62c50e9c1127f2cd403a315f,,,,,,,,,,,,,,,,,,,,,,,,,,,,,,,,,,,,,,,,,,,,,,,,,,,,,,,,,,,,,,,,,,,,,,,,,,,,,,,,,,,,,,,,,,,,,,,,,,,,,,,,,,,,,,,,,,,,,,,,,,,,,,,,,,,,,,,,,,,,,,,,,,,,,,,,,,,,,,,,,,,
0,57,57,11,1,,5ee0a607b1d0693f75003f64,62c53a3f6fbbb58e9db4e16e,2022-07-06_10h31.24.391,Colour_Asymmetry_Pilot,2022.1.3,Win32,60.55468088,62c50e9c1127f2cd403a315f,,,,,,,,,,,,,,,,,,,,,,,,,,,,,,,,,,,,,,,,,,,,,,,,,,,,,,,,,,,,,,,,,,,,,,,,,,,,,,,,,,,,,,,,,,,,,,,,,,,,,,,,,,,,,,,,,,,,,,,,,,,,,,,,,,,,,,,,,,,,,,,,,,,,,,,,,,,,,,,,,,,
0,58,58,73,1,,5ee0a607b1d0693f75003f64,62c53a3f6fbbb58e9db4e16e,2022-07-06_10h31.24.391,Colour_Asymmetry_Pilot,2022.1.3,Win32,60.55468088,62c50e9c1127f2cd403a315f,,,,,,,,,,,,,,,,,,,,,,,,,,,,,,,,,,,,,,,,,,,,,,,,,,,,,,,,,,,,,,,,,,,,,,,,,,,,,,,,,,,,,,,,,,,,,,,,,,,,,,,,,,,,,,,,,,,,,,,,,,,,,,,,,,,,,,,,,,,,,,,,,,,,,,,,,,,,,,,,,,,
0,59,59,49,1,,5ee0a607b1d0693f75003f64,62c53a3f6fbbb58e9db4e16e,2022-07-06_10h31.24.391,Colour_Asymmetry_Pilot,2022.1.3,Win32,60.55468088,62c50e9c1127f2cd403a315f,,,,,,,,,,,,,,,,,,,,,,,,,,,,,,,,,,,,,,,,,,,,,,,,,,,,,,,,,,,,,,,,,,,,,,,,,,,,,,,,,,,,,,,,,,,,,,,,,,,,,,,,,,,,,,,,,,,,,,,,,,,,,,,,,,,,,,,,,,,,,,,,,,,,,,,,,,,,,,,,,,,
0,60,60,74,1,,5ee0a607b1d0693f75003f64,62c53a3f6fbbb58e9db4e16e,2022-07-06_10h31.24.391,Colour_Asymmetry_Pilot,2022.1.3,Win32,60.55468088,62c50e9c1127f2cd403a315f,,,,,,,,,,,,,,,,,,,,,,,,,,,,,,,,,,,,,,,,,,,,,,,,,,,,,,,,,,,,,,,,,,,,,,,,,,,,,,,,,,,,,,,,,,,,,,,,,,,,,,,,,,,,,,,,,,,,,,,,,,,,,,,,,,,,,,,,,,,,,,,,,,,,,,,,,,,,,,,,,,,
0,61,61,26,1,,5ee0a607b1d0693f75003f64,62c53a3f6fbbb58e9db4e16e,2022-07-06_10h31.24.391,Colour_Asymmetry_Pilot,2022.1.3,Win32,60.55468088,62c50e9c1127f2cd403a315f,,,,,,,,,,,,,,,,,,,,,,,,,,,,,,,,,,,,,,,,,,,,,,,,,,,,,,,,,,,,,,,,,,,,,,,,,,,,,,,,,,,,,,,,,,,,,,,,,,,,,,,,,,,,,,,,,,,,,,,,,,,,,,,,,,,,,,,,,,,,,,,,,,,,,,,,,,,,,,,,,,,
0,62,62,47,1,,5ee0a607b1d0693f75003f64,62c53a3f6fbbb58e9db4e16e,2022-07-06_10h31.24.391,Colour_Asymmetry_Pilot,2022.1.3,Win32,60.55468088,62c50e9c1127f2cd403a315f,,,,,,,,,,,,,,,,,,,,,,,,,,,,,,,,,,,,,,,,,,,,,,,,,,,,,,,,,,,,,,,,,,,,,,,,,,,,,,,,,,,,,,,,,,,,,,,,,,,,,,,,,,,,,,,,,,,,,,,,,,,,,,,,,,,,,,,,,,,,,,,,,,,,,,,,,,,,,,,,,,,
0,63,63,65,1,,5ee0a607b1d0693f75003f64,62c53a3f6fbbb58e9db4e16e,2022-07-06_10h31.24.391,Colour_Asymmetry_Pilot,2022.1.3,Win32,60.55468088,62c50e9c1127f2cd403a315f,,,,,,,,,,,,,,,,,,,,,,,,,,,,,,,,,,,,,,,,,,,,,,,,,,,,,,,,,,,,,,,,,,,,,,,,,,,,,,,,,,,,,,,,,,,,,,,,,,,,,,,,,,,,,,,,,,,,,,,,,,,,,,,,,,,,,,,,,,,,,,,,,,,,,,,,,,,,,,,,,,,
0,64,64,4,1,,5ee0a607b1d0693f75003f64,62c53a3f6fbbb58e9db4e16e,2022-07-06_10h31.24.391,Colour_Asymmetry_Pilot,2022.1.3,Win32,60.55468088,62c50e9c1127f2cd403a315f,,,,,,,,,,,,,,,,,,,,,,,,,,,,,,,,,,,,,,,,,,,,,,,,,,,,,,,,,,,,,,,,,,,,,,,,,,,,,,,,,,,,,,,,,,,,,,,,,,,,,,,,,,,,,,,,,,,,,,,,,,,,,,,,,,,,,,,,,,,,,,,,,,,,,,,,,,,,,,,,,,,
0,65,65,25,1,,5ee0a607b1d0693f75003f64,62c53a3f6fbbb58e9db4e16e,2022-07-06_10h31.24.391,Colour_Asymmetry_Pilot,2022.1.3,Win32,60.55468088,62c50e9c1127f2cd403a315f,,,,,,,,,,,,,,,,,,,,,,,,,,,,,,,,,,,,,,,,,,,,,,,,,,,,,,,,,,,,,,,,,,,,,,,,,,,,,,,,,,,,,,,,,,,,,,,,,,,,,,,,,,,,,,,,,,,,,,,,,,,,,,,,,,,,,,,,,,,,,,,,,,,,,,,,,,,,,,,,,,,
0,66,66,21,1,,5ee0a607b1d0693f75003f64,62c53a3f6fbbb58e9db4e16e,2022-07-06_10h31.24.391,Colour_Asymmetry_Pilot,2022.1.3,Win32,60.55468088,62c50e9c1127f2cd403a315f,,,,,,,,,,,,,,,,,,,,,,,,,,,,,,,,,,,,,,,,,,,,,,,,,,,,,,,,,,,,,,,,,,,,,,,,,,,,,,,,,,,,,,,,,,,,,,,,,,,,,,,,,,,,,,,,,,,,,,,,,,,,,,,,,,,,,,,,,,,,,,,,,,,,,,,,,,,,,,,,,,,
0,67,67,30,1,,5ee0a607b1d0693f75003f64,62c53a3f6fbbb58e9db4e16e,2022-07-06_10h31.24.391,Colour_Asymmetry_Pilot,2022.1.3,Win32,60.55468088,62c50e9c1127f2cd403a315f,,,,,,,,,,,,,,,,,,,,,,,,,,,,,,,,,,,,,,,,,,,,,,,,,,,,,,,,,,,,,,,,,,,,,,,,,,,,,,,,,,,,,,,,,,,,,,,,,,,,,,,,,,,,,,,,,,,,,,,,,,,,,,,,,,,,,,,,,,,,,,,,,,,,,,,,,,,,,,,,,,,
0,68,68,13,1,,5ee0a607b1d0693f75003f64,62c53a3f6fbbb58e9db4e16e,2022-07-06_10h31.24.391,Colour_Asymmetry_Pilot,2022.1.3,Win32,60.55468088,62c50e9c1127f2cd403a315f,,,,,,,,,,,,,,,,,,,,,,,,,,,,,,,,,,,,,,,,,,,,,,,,,,,,,,,,,,,,,,,,,,,,,,,,,,,,,,,,,,,,,,,,,,,,,,,,,,,,,,,,,,,,,,,,,,,,,,,,,,,,,,,,,,,,,,,,,,,,,,,,,,,,,,,,,,,,,,,,,,,
0,69,69,72,1,,5ee0a607b1d0693f75003f64,62c53a3f6fbbb58e9db4e16e,2022-07-06_10h31.24.391,Colour_Asymmetry_Pilot,2022.1.3,Win32,60.55468088,62c50e9c1127f2cd403a315f,,,,,,,,,,,,,,,,,,,,,,,,,,,,,,,,,,,,,,,,,,,,,,,,,,,,,,,,,,,,,,,,,,,,,,,,,,,,,,,,,,,,,,,,,,,,,,,,,,,,,,,,,,,,,,,,,,,,,,,,,,,,,,,,,,,,,,,,,,,,,,,,,,,,,,,,,,,,,,,,,,,
0,70,70,39,1,,5ee0a607b1d0693f75003f64,62c53a3f6fbbb58e9db4e16e,2022-07-06_10h31.24.391,Colour_Asymmetry_Pilot,2022.1.3,Win32,60.55468088,62c50e9c1127f2cd403a315f,,,,,,,,,,,,,,,,,,,,,,,,,,,,,,,,,,,,,,,,,,,,,,,,,,,,,,,,,,,,,,,,,,,,,,,,,,,,,,,,,,,,,,,,,,,,,,,,,,,,,,,,,,,,,,,,,,,,,,,,,,,,,,,,,,,,,,,,,,,,,,,,,,,,,,,,,,,,,,,,,,,
0,71,71,54,1,,5ee0a607b1d0693f75003f64,62c53a3f6fbbb58e9db4e16e,2022-07-06_10h31.24.391,Colour_Asymmetry_Pilot,2022.1.3,Win32,60.55468088,62c50e9c1127f2cd403a315f,,,,,,,,,,,,,,,,,,,,,,,,,,,,,,,,,,,,,,,,,,,,,,,,,,,,,,,,,,,,,,,,,,,,,,,,,,,,,,,,,,,,,,,,,,,,,,,,,,,,,,,,,,,,,,,,,,,,,,,,,,,,,,,,,,,,,,,,,,,,,,,,,,,,,,,,,,,,,,,,,,,
0,72,72,89,1,,5ee0a607b1d0693f75003f64,62c53a3f6fbbb58e9db4e16e,2022-07-06_10h31.24.391,Colour_Asymmetry_Pilot,2022.1.3,Win32,60.55468088,62c50e9c1127f2cd403a315f,,,,,,,,,,,,,,,,,,,,,,,,,,,,,,,,,,,,,,,,,,,,,,,,,,,,,,,,,,,,,,,,,,,,,,,,,,,,,,,,,,,,,,,,,,,,,,,,,,,,,,,,,,,,,,,,,,,,,,,,,,,,,,,,,,,,,,,,,,,,,,,,,,,,,,,,,,,,,,,,,,,
0,73,73,18,1,,5ee0a607b1d0693f75003f64,62c53a3f6fbbb58e9db4e16e,2022-07-06_10h31.24.391,Colour_Asymmetry_Pilot,2022.1.3,Win32,60.55468088,62c50e9c1127f2cd403a315f,,,,,,,,,,,,,,,,,,,,,,,,,,,,,,,,,,,,,,,,,,,,,,,,,,,,,,,,,,,,,,,,,,,,,,,,,,,,,,,,,,,,,,,,,,,,,,,,,,,,,,,,,,,,,,,,,,,,,,,,,,,,,,,,,,,,,,,,,,,,,,,,,,,,,,,,,,,,,,,,,,,
0,74,74,48,1,,5ee0a607b1d0693f75003f64,62c53a3f6fbbb58e9db4e16e,2022-07-06_10h31.24.391,Colour_Asymmetry_Pilot,2022.1.3,Win32,60.55468088,62c50e9c1127f2cd403a315f,,,,,,,,,,,,,,,,,,,,,,,,,,,,,,,,,,,,,,,,,,,,,,,,,,,,,,,,,,,,,,,,,,,,,,,,,,,,,,,,,,,,,,,,,,,,,,,,,,,,,,,,,,,,,,,,,,,,,,,,,,,,,,,,,,,,,,,,,,,,,,,,,,,,,,,,,,,,,,,,,,,
0,75,75,51,1,,5ee0a607b1d0693f75003f64,62c53a3f6fbbb58e9db4e16e,2022-07-06_10h31.24.391,Colour_Asymmetry_Pilot,2022.1.3,Win32,60.55468088,62c50e9c1127f2cd403a315f,,,,,,,,,,,,,,,,,,,,,,,,,,,,,,,,,,,,,,,,,,,,,,,,,,,,,,,,,,,,,,,,,,,,,,,,,,,,,,,,,,,,,,,,,,,,,,,,,,,,,,,,,,,,,,,,,,,,,,,,,,,,,,,,,,,,,,,,,,,,,,,,,,,,,,,,,,,,,,,,,,,
0,76,76,16,1,,5ee0a607b1d0693f75003f64,62c53a3f6fbbb58e9db4e16e,2022-07-06_10h31.24.391,Colour_Asymmetry_Pilot,2022.1.3,Win32,60.55468088,62c50e9c1127f2cd403a315f,,,,,,,,,,,,,,,,,,,,,,,,,,,,,,,,,,,,,,,,,,,,,,,,,,,,,,,,,,,,,,,,,,,,,,,,,,,,,,,,,,,,,,,,,,,,,,,,,,,,,,,,,,,,,,,,,,,,,,,,,,,,,,,,,,,,,,,,,,,,,,,,,,,,,,,,,,,,,,,,,,,
0,77,77,44,1,,5ee0a607b1d0693f75003f64,62c53a3f6fbbb58e9db4e16e,2022-07-06_10h31.24.391,Colour_Asymmetry_Pilot,2022.1.3,Win32,60.55468088,62c50e9c1127f2cd403a315f,,,,,,,,,,,,,,,,,,,,,,,,,,,,,,,,,,,,,,,,,,,,,,,,,,,,,,,,,,,,,,,,,,,,,,,,,,,,,,,,,,,,,,,,,,,,,,,,,,,,,,,,,,,,,,,,,,,,,,,,,,,,,,,,,,,,,,,,,,,,,,,,,,,,,,,,,,,,,,,,,,,
0,78,78,79,1,,5ee0a607b1d0693f75003f64,62c53a3f6fbbb58e9db4e16e,2022-07-06_10h31.24.391,Colour_Asymmetry_Pilot,2022.1.3,Win32,60.55468088,62c50e9c1127f2cd403a315f,,,,,,,,,,,,,,,,,,,,,,,,,,,,,,,,,,,,,,,,,,,,,,,,,,,,,,,,,,,,,,,,,,,,,,,,,,,,,,,,,,,,,,,,,,,,,,,,,,,,,,,,,,,,,,,,,,,,,,,,,,,,,,,,,,,,,,,,,,,,,,,,,,,,,,,,,,,,,,,,,,,
0,79,79,52,1,,5ee0a607b1d0693f75003f64,62c53a3f6fbbb58e9db4e16e,2022-07-06_10h31.24.391,Colour_Asymmetry_Pilot,2022.1.3,Win32,60.55468088,62c50e9c1127f2cd403a315f,,,,,,,,,,,,,,,,,,,,,,,,,,,,,,,,,,,,,,,,,,,,,,,,,,,,,,,,,,,,,,,,,,,,,,,,,,,,,,,,,,,,,,,,,,,,,,,,,,,,,,,,,,,,,,,,,,,,,,,,,,,,,,,,,,,,,,,,,,,,,,,,,,,,,,,,,,,,,,,,,,,
0,80,80,67,1,,5ee0a607b1d0693f75003f64,62c53a3f6fbbb58e9db4e16e,2022-07-06_10h31.24.391,Colour_Asymmetry_Pilot,2022.1.3,Win32,60.55468088,62c50e9c1127f2cd403a315f,,,,,,,,,,,,,,,,,,,,,,,,,,,,,,,,,,,,,,,,,,,,,,,,,,,,,,,,,,,,,,,,,,,,,,,,,,,,,,,,,,,,,,,,,,,,,,,,,,,,,,,,,,,,,,,,,,,,,,,,,,,,,,,,,,,,,,,,,,,,,,,,,,,,,,,,,,,,,,,,,,,
0,81,81,24,1,,5ee0a607b1d0693f75003f64,62c53a3f6fbbb58e9db4e16e,2022-07-06_10h31.24.391,Colour_Asymmetry_Pilot,2022.1.3,Win32,60.55468088,62c50e9c1127f2cd403a315f,,,,,,,,,,,,,,,,,,,,,,,,,,,,,,,,,,,,,,,,,,,,,,,,,,,,,,,,,,,,,,,,,,,,,,,,,,,,,,,,,,,,,,,,,,,,,,,,,,,,,,,,,,,,,,,,,,,,,,,,,,,,,,,,,,,,,,,,,,,,,,,,,,,,,,,,,,,,,,,,,,,
0,82,82,40,1,,5ee0a607b1d0693f75003f64,62c53a3f6fbbb58e9db4e16e,2022-07-06_10h31.24.391,Colour_Asymmetry_Pilot,2022.1.3,Win32,60.55468088,62c50e9c1127f2cd403a315f,,,,,,,,,,,,,,,,,,,,,,,,,,,,,,,,,,,,,,,,,,,,,,,,,,,,,,,,,,,,,,,,,,,,,,,,,,,,,,,,,,,,,,,,,,,,,,,,,,,,,,,,,,,,,,,,,,,,,,,,,,,,,,,,,,,,,,,,,,,,,,,,,,,,,,,,,,,,,,,,,,,
0,83,83,87,1,,5ee0a607b1d0693f75003f64,62c53a3f6fbbb58e9db4e16e,2022-07-06_10h31.24.391,Colour_Asymmetry_Pilot,2022.1.3,Win32,60.55468088,62c50e9c1127f2cd403a315f,,,,,,,,,,,,,,,,,,,,,,,,,,,,,,,,,,,,,,,,,,,,,,,,,,,,,,,,,,,,,,,,,,,,,,,,,,,,,,,,,,,,,,,,,,,,,,,,,,,,,,,,,,,,,,,,,,,,,,,,,,,,,,,,,,,,,,,,,,,,,,,,,,,,,,,,,,,,,,,,,,,
0,84,84,36,1,,5ee0a607b1d0693f75003f64,62c53a3f6fbbb58e9db4e16e,2022-07-06_10h31.24.391,Colour_Asymmetry_Pilot,2022.1.3,Win32,60.55468088,62c50e9c1127f2cd403a315f,,,,,,,,,,,,,,,,,,,,,,,,,,,,,,,,,,,,,,,,,,,,,,,,,,,,,,,,,,,,,,,,,,,,,,,,,,,,,,,,,,,,,,,,,,,,,,,,,,,,,,,,,,,,,,,,,,,,,,,,,,,,,,,,,,,,,,,,,,,,,,,,,,,,,,,,,,,,,,,,,,,
0,85,85,3,1,,5ee0a607b1d0693f75003f64,62c53a3f6fbbb58e9db4e16e,2022-07-06_10h31.24.391,Colour_Asymmetry_Pilot,2022.1.3,Win32,60.55468088,62c50e9c1127f2cd403a315f,,,,,,,,,,,,,,,,,,,,,,,,,,,,,,,,,,,,,,,,,,,,,,,,,,,,,,,,,,,,,,,,,,,,,,,,,,,,,,,,,,,,,,,,,,,,,,,,,,,,,,,,,,,,,,,,,,,,,,,,,,,,,,,,,,,,,,,,,,,,,,,,,,,,,,,,,,,,,,,,,,,
0,86,86,34,1,,5ee0a607b1d0693f75003f64,62c53a3f6fbbb58e9db4e16e,2022-07-06_10h31.24.391,Colour_Asymmetry_Pilot,2022.1.3,Win32,60.55468088,62c50e9c1127f2cd403a315f,,,,,,,,,,,,,,,,,,,,,,,,,,,,,,,,,,,,,,,,,,,,,,,,,,,,,,,,,,,,,,,,,,,,,,,,,,,,,,,,,,,,,,,,,,,,,,,,,,,,,,,,,,,,,,,,,,,,,,,,,,,,,,,,,,,,,,,,,,,,,,,,,,,,,,,,,,,,,,,,,,,
0,87,87,2,1,,5ee0a607b1d0693f75003f64,62c53a3f6fbbb58e9db4e16e,2022-07-06_10h31.24.391,Colour_Asymmetry_Pilot,2022.1.3,Win32,60.55468088,62c50e9c1127f2cd403a315f,,,,,,,,,,,,,,,,,,,,,,,,,,,,,,,,,,,,,,,,,,,,,,,,,,,,,,,,,,,,,,,,,,,,,,,,,,,,,,,,,,,,,,,,,,,,,,,,,,,,,,,,,,,,,,,,,,,,,,,,,,,,,,,,,,,,,,,,,,,,,,,,,,,,,,,,,,,,,,,,,,,
0,88,88,15,1,,5ee0a607b1d0693f75003f64,62c53a3f6fbbb58e9db4e16e,2022-07-06_10h31.24.391,Colour_Asymmetry_Pilot,2022.1.3,Win32,60.55468088,62c50e9c1127f2cd403a315f,,,,,,,,,,,,,,,,,,,,,,,,,,,,,,,,,,,,,,,,,,,,,,,,,,,,,,,,,,,,,,,,,,,,,,,,,,,,,,,,,,,,,,,,,,,,,,,,,,,,,,,,,,,,,,,,,,,,,,,,,,,,,,,,,,,,,,,,,,,,,,,,,,,,,,,,,,,,,,,,,,,
0,89,89,45,1,,5ee0a607b1d0693f75003f64,62c53a3f6fbbb58e9db4e16e,2022-07-06_10h31.24.391,Colour_Asymmetry_Pilot,2022.1.3,Win32,60.55468088,62c50e9c1127f2cd403a315f,,,,,,,,,,,,,,,,,,,,,,,,,,,,,,,,,,,,,,,,,,,,,,,,,,,,,,,,,,,,,,,,,,,,,,,,,,,,,,,,,,,,,,,,,,,,,,,,,,,,,,,,,,,,,,,,,,,,,,,,,,,,,,,,,,,,,,,,,,,,,,,,,,,,,,,,,,,,,,,,,,,
0,90,90,5,1,,5ee0a607b1d0693f75003f64,62c53a3f6fbbb58e9db4e16e,2022-07-06_10h31.24.391,Colour_Asymmetry_Pilot,2022.1.3,Win32,60.55468088,62c50e9c1127f2cd403a315f,,,,,,,,,,,,,,,,,,,,,,,,,,,,,,,,,,,,,,,,,,,,,,,,,,,,,,,,,,,,,,,,,,,,,,,,,,,,,,,,,,,,,,,,,,,,,,,,,,,,,,,,,,,,,,,,,,,,,,,,,,,,,,,,,,,,,,,,,,,,,,,,,,,,,,,,,,,,,,,,,,,
0,91,91,84,1,,5ee0a607b1d0693f75003f64,62c53a3f6fbbb58e9db4e16e,2022-07-06_10h31.24.391,Colour_Asymmetry_Pilot,2022.1.3,Win32,60.55468088,62c50e9c1127f2cd403a315f,,,,,,,,,,,,,,,,,,,,,,,,,,,,,,,,,,,,,,,,,,,,,,,,,,,,,,,,,,,,,,,,,,,,,,,,,,,,,,,,,,,,,,,,,,,,,,,,,,,,,,,,,,,,,,,,,,,,,,,,,,,,,,,,,,,,,,,,,,,,,,,,,,,,,,,,,,,,,,,,,,,
0,92,92,70,1,,5ee0a607b1d0693f75003f64,62c53a3f6fbbb58e9db4e16e,2022-07-06_10h31.24.391,Colour_Asymmetry_Pilot,2022.1.3,Win32,60.55468088,62c50e9c1127f2cd403a315f,,,,,,,,,,,,,,,,,,,,,,,,,,,,,,,,,,,,,,,,,,,,,,,,,,,,,,,,,,,,,,,,,,,,,,,,,,,,,,,,,,,,,,,,,,,,,,,,,,,,,,,,,,,,,,,,,,,,,,,,,,,,,,,,,,,,,,,,,,,,,,,,,,,,,,,,,,,,,,,,,,,
,,,,,,5ee0a607b1d0693f75003f64,62c53a3f6fbbb58e9db4e16e,2022-07-06_10h31.24.391,Colour_Asymmetry_Pilot,2022.1.3,Win32,60.55468088,62c50e9c1127f2cd403a315f,0,0,0,80,1,onetwo,,,,,,,,,,,,,,,,,,,,,,,,,,,,,,,,,,,,,,,,,,,,,,,,,,,,,,,,,,,,,,,,,,,,,,,,,,,,,,,,,,,,,,,,,,,,,,,,,,,,,,,,,,,,,,,,,,,,,,,,,,,,,,,,,,,,,,,,,,,,,,,,,,,,,,,,,,,,,
,,,,,,5ee0a607b1d0693f75003f64,62c53a3f6fbbb58e9db4e16e,2022-07-06_10h31.24.391,Colour_Asymmetry_Pilot,2022.1.3,Win32,60.55468088,62c50e9c1127f2cd403a315f,0,1,1,127,1,fourthree,,,,,,,,,,,,,,,,,,,,,,,,,,,,,,,,,,,,,,,,,,,,,,,,,,,,,,,,,,,,,,,,,,,,,,,,,,,,,,,,,,,,,,,,,,,,,,,,,,,,,,,,,,,,,,,,,,,,,,,,,,,,,,,,,,,,,,,,,,,,,,,,,,,,,,,,,,,,,
,,,,,,5ee0a607b1d0693f75003f64,62c53a3f6fbbb58e9db4e16e,2022-07-06_10h31.24.391,Colour_Asymmetry_Pilot,2022.1.3,Win32,60.55468088,62c50e9c1127f2cd403a315f,0,2,2,12,1,threeone,,,,,,,,,,,,,,,,,,,,,,,,,,,,,,,,,,,,,,,,,,,,,,,,,,,,,,,,,,,,,,,,,,,,,,,,,,,,,,,,,,,,,,,,,,,,,,,,,,,,,,,,,,,,,,,,,,,,,,,,,,,,,,,,,,,,,,,,,,,,,,,,,,,,,,,,,,,,,
,,,,,,5ee0a607b1d0693f75003f64,62c53a3f6fbbb58e9db4e16e,2022-07-06_10h31.24.391,Colour_Asymmetry_Pilot,2022.1.3,Win32,60.55468088,62c50e9c1127f2cd403a315f,0,3,3,128,1,onetwo,,,,,,,,,,,,,,,,,,,,,,,,,,,,,,,,,,,,,,,,,,,,,,,,,,,,,,,,,,,,,,,,,,,,,,,,,,,,,,,,,,,,,,,,,,,,,,,,,,,,,,,,,,,,,,,,,,,,,,,,,,,,,,,,,,,,,,,,,,,,,,,,,,,,,,,,,,,,,
,,,,,,5ee0a607b1d0693f75003f64,62c53a3f6fbbb58e9db4e16e,2022-07-06_10h31.24.391,Colour_Asymmetry_Pilot,2022.1.3,Win32,60.55468088,62c50e9c1127f2cd403a315f,0,4,4,6,1,fourtwo,,,,,,,,,,,,,,,,,,,,,,,,,,,,,,,,,,,,,,,,,,,,,,,,,,,,,,,,,,,,,,,,,,,,,,,,,,,,,,,,,,,,,,,,,,,,,,,,,,,,,,,,,,,,,,,,,,,,,,,,,,,,,,,,,,,,,,,,,,,,,,,,,,,,,,,,,,,,,
,,,,,,5ee0a607b1d0693f75003f64,62c53a3f6fbbb58e9db4e16e,2022-07-06_10h31.24.391,Colour_Asymmetry_Pilot,2022.1.3,Win32,60.55468088,62c50e9c1127f2cd403a315f,0,5,5,144,1,onetwo,,,,,,,,,,,,,,,,,,,,,,,,,,,,,,,,,,,,,,,,,,,,,,,,,,,,,,,,,,,,,,,,,,,,,,,,,,,,,,,,,,,,,,,,,,,,,,,,,,,,,,,,,,,,,,,,,,,,,,,,,,,,,,,,,,,,,,,,,,,,,,,,,,,,,,,,,,,,,
,,,,,,5ee0a607b1d0693f75003f64,62c53a3f6fbbb58e9db4e16e,2022-07-06_10h31.24.391,Colour_Asymmetry_Pilot,2022.1.3,Win32,60.55468088,62c50e9c1127f2cd403a315f,0,6,6,4,1,threeone,,,,,,,,,,,,,,,,,,,,,,,,,,,,,,,,,,,,,,,,,,,,,,,,,,,,,,,,,,,,,,,,,,,,,,,,,,,,,,,,,,,,,,,,,,,,,,,,,,,,,,,,,,,,,,,,,,,,,,,,,,,,,,,,,,,,,,,,,,,,,,,,,,,,,,,,,,,,,
,,,,,,5ee0a607b1d0693f75003f64,62c53a3f6fbbb58e9db4e16e,2022-07-06_10h31.24.391,Colour_Asymmetry_Pilot,2022.1.3,Win32,60.55468088,62c50e9c1127f2cd403a315f,0,7,7,146,1,twoone,,,,,,,,,,,,,,,,,,,,,,,,,,,,,,,,,,,,,,,,,,,,,,,,,,,,,,,,,,,,,,,,,,,,,,,,,,,,,,,,,,,,,,,,,,,,,,,,,,,,,,,,,,,,,,,,,,,,,,,,,,,,,,,,,,,,,,,,,,,,,,,,,,,,,,,,,,,,,
,,,,,,5ee0a607b1d0693f75003f64,62c53a3f6fbbb58e9db4e16e,2022-07-06_10h31.24.391,Colour_Asymmetry_Pilot,2022.1.3,Win32,60.55468088,62c50e9c1127f2cd403a315f,0,8,8,90,1,twoone,,,,,,,,,,,,,,,,,,,,,,,,,,,,,,,,,,,,,,,,,,,,,,,,,,,,,,,,,,,,,,,,,,,,,,,,,,,,,,,,,,,,,,,,,,,,,,,,,,,,,,,,,,,,,,,,,,,,,,,,,,,,,,,,,,,,,,,,,,,,,,,,,,,,,,,,,,,,,
,,,,,,5ee0a607b1d0693f75003f64,62c53a3f6fbbb58e9db4e16e,2022-07-06_10h31.24.391,Colour_Asymmetry_Pilot,2022.1.3,Win32,60.55468088,62c50e9c1127f2cd403a315f,0,9,9,143,1,fourthree,,,,,,,,,,,,,,,,,,,,,,,,,,,,,,,,,,,,,,,,,,,,,,,,,,,,,,,,,,,,,,,,,,,,,,,,,,,,,,,,,,,,,,,,,,,,,,,,,,,,,,,,,,,,,,,,,,,,,,,,,,,,,,,,,,,,,,,,,,,,,,,,,,,,,,,,,,,,,
,,,,,,5ee0a607b1d0693f75003f64,62c53a3f6fbbb58e9db4e16e,2022-07-06_10h31.24.391,Colour_Asymmetry_Pilot,2022.1.3,Win32,60.55468088,62c50e9c1127f2cd403a315f,0,10,10,40,1,onetwo,,,,,,,,,,,,,,,,,,,,,,,,,,,,,,,,,,,,,,,,,,,,,,,,,,,,,,,,,,,,,,,,,,,,,,,,,,,,,,,,,,,,,,,,,,,,,,,,,,,,,,,,,,,,,,,,,,,,,,,,,,,,,,,,,,,,,,,,,,,,,,,,,,,,,,,,,,,,,
,,,,,,5ee0a607b1d0693f75003f64,62c53a3f6fbbb58e9db4e16e,2022-07-06_10h31.24.391,Colour_Asymmetry_Pilot,2022.1.3,Win32,60.55468088,62c50e9c1127f2cd403a315f,0,11,11,158,1,fourtwo,,,,,,,,,,,,,,,,,,,,,,,,,,,,,,,,,,,,,,,,,,,,,,,,,,,,,,,,,,,,,,,,,,,,,,,,,,,,,,,,,,,,,,,,,,,,,,,,,,,,,,,,,,,,,,,,,,,,,,,,,,,,,,,,,,,,,,,,,,,,,,,,,,,,,,,,,,,,,
,,,,,,5ee0a607b1d0693f75003f64,62c53a3f6fbbb58e9db4e16e,2022-07-06_10h31.24.391,Colour_Asymmetry_Pilot,2022.1.3,Win32,60.55468088,62c50e9c1127f2cd403a315f,0,12,12,51,1,twofour,,,,,,,,,,,,,,,,,,,,,,,,,,,,,,,,,,,,,,,,,,,,,,,,,,,,,,,,,,,,,,,,,,,,,,,,,,,,,,,,,,,,,,,,,,,,,,,,,,,,,,,,,,,,,,,,,,,,,,,,,,,,,,,,,,,,,,,,,,,,,,,,,,,,,,,,,,,,,
,,,,,,5ee0a607b1d0693f75003f64,62c53a3f6fbbb58e9db4e16e,2022-07-06_10h31.24.391,Colour_Asymmetry_Pilot,2022.1.3,Win32,60.55468088,62c50e9c1127f2cd403a315f,0,13,13,52,1,threeone,,,,,,,,,,,,,,,,,,,,,,,,,,,,,,,,,,,,,,,,,,,,,,,,,,,,,,,,,,,,,,,,,,,,,,,,,,,,,,,,,,,,,,,,,,,,,,,,,,,,,,,,,,,,,,,,,,,,,,,,,,,,,,,,,,,,,,,,,,,,,,,,,,,,,,,,,,,,,
,,,,,,5ee0a607b1d0693f75003f64,62c53a3f6fbbb58e9db4e16e,2022-07-06_10h31.24.391,Colour_Asymmetry_Pilot,2022.1.3,Win32,60.55468088,62c50e9c1127f2cd403a315f,0,14,14,14,1,fourtwo,,,,,,,,,,,,,,,,,,,,,,,,,,,,,,,,,,,,,,,,,,,,,,,,,,,,,,,,,,,,,,,,,,,,,,,,,,,,,,,,,,,,,,,,,,,,,,,,,,,,,,,,,,,,,,,,,,,,,,,,,,,,,,,,,,,,,,,,,,,,,,,,,,,,,,,,,,,,,
,,,,,,5ee0a607b1d0693f75003f64,62c53a3f6fbbb58e9db4e16e,2022-07-06_10h31.24.391,Colour_Asymmetry_Pilot,2022.1.3,Win32,60.55468088,62c50e9c1127f2cd403a315f,0,15,15,11,1,twofour,,,,,,,,,,,,,,,,,,,,,,,,,,,,,,,,,,,,,,,,,,,,,,,,,,,,,,,,,,,,,,,,,,,,,,,,,,,,,,,,,,,,,,,,,,,,,,,,,,,,,,,,,,,,,,,,,,,,,,,,,,,,,,,,,,,,,,,,,,,,,,,,,,,,,,,,,,,,,
,,,,,,5ee0a607b1d0693f75003f64,62c53a3f6fbbb58e9db4e16e,2022-07-06_10h31.24.391,Colour_Asymmetry_Pilot,2022.1.3,Win32,60.55468088,62c50e9c1127f2cd403a315f,0,16,16,107,1,twofour,,,,,,,,,,,,,,,,,,,,,,,,,,,,,,,,,,,,,,,,,,,,,,,,,,,,,,,,,,,,,,,,,,,,,,,,,,,,,,,,,,,,,,,,,,,,,,,,,,,,,,,,,,,,,,,,,,,,,,,,,,,,,,,,,,,,,,,,,,,,,,,,,,,,,,,,,,,,,
,,,,,,5ee0a607b1d0693f75003f64,62c53a3f6fbbb58e9db4e16e,2022-07-06_10h31.24.391,Colour_Asymmetry_Pilot,2022.1.3,Win32,60.55468088,62c50e9c1127f2cd403a315f,0,17,17,109,1,threefour,,,,,,,,,,,,,,,,,,,,,,,,,,,,,,,,,,,,,,,,,,,,,,,,,,,,,,,,,,,,,,,,,,,,,,,,,,,,,,,,,,,,,,,,,,,,,,,,,,,,,,,,,,,,,,,,,,,,,,,,,,,,,,,,,,,,,,,,,,,,,,,,,,,,,,,,,,,,,
,,,,,,5ee0a607b1d0693f75003f64,62c53a3f6fbbb58e9db4e16e,2022-07-06_10h31.24.391,Colour_Asymmetry_Pilot,2022.1.3,Win32,60.55468088,62c50e9c1127f2cd403a315f,0,18,18,139,1,twofour,,,,,,,,,,,,,,,,,,,,,,,,,,,,,,,,,,,,,,,,,,,,,,,,,,,,,,,,,,,,,,,,,,,,,,,,,,,,,,,,,,,,,,,,,,,,,,,,,,,,,,,,,,,,,,,,,,,,,,,,,,,,,,,,,,,,,,,,,,,,,,,,,,,,,,,,,,,,,
,,,,,,5ee0a607b1d0693f75003f64,62c53a3f6fbbb58e9db4e16e,2022-07-06_10h31.24.391,Colour_Asymmetry_Pilot,2022.1.3,Win32,60.55468088,62c50e9c1127f2cd403a315f,0,19,19,28,1,threeone,,,,,,,,,,,,,,,,,,,,,,,,,,,,,,,,,,,,,,,,,,,,,,,,,,,,,,,,,,,,,,,,,,,,,,,,,,,,,,,,,,,,,,,,,,,,,,,,,,,,,,,,,,,,,,,,,,,,,,,,,,,,,,,,,,,,,,,,,,,,,,,,,,,,,,,,,,,,,
,,,,,,5ee0a607b1d0693f75003f64,62c53a3f6fbbb58e9db4e16e,2022-07-06_10h31.24.391,Colour_Asymmetry_Pilot,2022.1.3,Win32,60.55468088,62c50e9c1127f2cd403a315f,0,20,20,103,1,fourthree,,,,,,,,,,,,,,,,,,,,,,,,,,,,,,,,,,,,,,,,,,,,,,,,,,,,,,,,,,,,,,,,,,,,,,,,,,,,,,,,,,,,,,,,,,,,,,,,,,,,,,,,,,,,,,,,,,,,,,,,,,,,,,,,,,,,,,,,,,,,,,,,,,,,,,,,,,,,,
,,,,,,5ee0a607b1d0693f75003f64,62c53a3f6fbbb58e9db4e16e,2022-07-06_10h31.24.391,Colour_Asymmetry_Pilot,2022.1.3,Win32,60.55468088,62c50e9c1127f2cd403a315f,0,21,21,154,1,twoone,,,,,,,,,,,,,,,,,,,,,,,,,,,,,,,,,,,,,,,,,,,,,,,,,,,,,,,,,,,,,,,,,,,,,,,,,,,,,,,,,,,,,,,,,,,,,,,,,,,,,,,,,,,,,,,,,,,,,,,,,,,,,,,,,,,,,,,,,,,,,,,,,,,,,,,,,,,,,
,,,,,,5ee0a607b1d0693f75003f64,62c53a3f6fbbb58e9db4e16e,2022-07-06_10h31.24.391,Colour_Asymmetry_Pilot,2022.1.3,Win32,60.55468088,62c50e9c1127f2cd403a315f,0,22,22,58,1,twoone,,,,,,,,,,,,,,,,,,,,,,,,,,,,,,,,,,,,,,,,,,,,,,,,,,,,,,,,,,,,,,,,,,,,,,,,,,,,,,,,,,,,,,,,,,,,,,,,,,,,,,,,,,,,,,,,,,,,,,,,,,,,,,,,,,,,,,,,,,,,,,,,,,,,,,,,,,,,,
,,,,,,5ee0a607b1d0693f75003f64,62c53a3f6fbbb58e9db4e16e,2022-07-06_10h31.24.391,Colour_Asymmetry_Pilot,2022.1.3,Win32,60.55468088,62c50e9c1127f2cd403a315f,0,23,23,32,1,onetwo,,,,,,,,,,,,,,,,,,,,,,,,,,,,,,,,,,,,,,,,,,,,,,,,,,,,,,,,,,,,,,,,,,,,,,,,,,,,,,,,,,,,,,,,,,,,,,,,,,,,,,,,,,,,,,,,,,,,,,,,,,,,,,,,,,,,,,,,,,,,,,,,,,,,,,,,,,,,,
,,,,,,5ee0a607b1d0693f75003f64,62c53a3f6fbbb58e9db4e16e,2022-07-06_10h31.24.391,Colour_Asymmetry_Pilot,2022.1.3,Win32,60.55468088,62c50e9c1127f2cd403a315f,0,24,24,67,1,twofour,,,,,,,,,,,,,,,,,,,,,,,,,,,,,,,,,,,,,,,,,,,,,,,,,,,,,,,,,,,,,,,,,,,,,,,,,,,,,,,,,,,,,,,,,,,,,,,,,,,,,,,,,,,,,,,,,,,,,,,,,,,,,,,,,,,,,,,,,,,,,,,,,,,,,,,,,,,,,
,,,,,,5ee0a607b1d0693f75003f64,62c53a3f6fbbb58e9db4e16e,2022-07-06_10h31.24.391,Colour_Asymmetry_Pilot,2022.1.3,Win32,60.55468088,62c50e9c1127f2cd403a315f,0,25,25,49,1,onethree,,,,,,,,,,,,,,,,,,,,,,,,,,,,,,,,,,,,,,,,,,,,,,,,,,,,,,,,,,,,,,,,,,,,,,,,,,,,,,,,,,,,,,,,,,,,,,,,,,,,,,,,,,,,,,,,,,,,,,,,,,,,,,,,,,,,,,,,,,,,,,,,,,,,,,,,,,,,,
,,,,,,5ee0a607b1d0693f75003f64,62c53a3f6fbbb58e9db4e16e,2022-07-06_10h31.24.391,Colour_Asymmetry_Pilot,2022.1.3,Win32,60.55468088,62c50e9c1127f2cd403a315f,0,26,26,27,1,twofour,,,,,,,,,,,,,,,,,,,,,,,,,,,,,,,,,,,,,,,,,,,,,,,,,,,,,,,,,,,,,,,,,,,,,,,,,,,,,,,,,,,,,,,,,,,,,,,,,,,,,,,,,,,,,,,,,,,,,,,,,,,,,,,,,,,,,,,,,,,,,,,,,,,,,,,,,,,,,
,,,,,,5ee0a607b1d0693f75003f64,62c53a3f6fbbb58e9db4e16e,2022-07-06_10h31.24.391,Colour_Asymmetry_Pilot,2022.1.3,Win32,60.55468088,62c50e9c1127f2cd403a315f,0,27,27,57,1,onethree,,,,,,,,,,,,,,,,,,,,,,,,,,,,,,,,,,,,,,,,,,,,,,,,,,,,,,,,,,,,,,,,,,,,,,,,,,,,,,,,,,,,,,,,,,,,,,,,,,,,,,,,,,,,,,,,,,,,,,,,,,,,,,,,,,,,,,,,,,,,,,,,,,,,,,,,,,,,,
,,,,,,5ee0a607b1d0693f75003f64,62c53a3f6fbbb58e9db4e16e,2022-07-06_10h31.24.391,Colour_Asymmetry_Pilot,2022.1.3,Win32,60.55468088,62c50e9c1127f2cd403a315f,0,28,28,132,1,threeone,,,,,,,,,,,,,,,,,,,,,,,,,,,,,,,,,,,,,,,,,,,,,,,,,,,,,,,,,,,,,,,,,,,,,,,,,,,,,,,,,,,,,,,,,,,,,,,,,,,,,,,,,,,,,,,,,,,,,,,,,,,,,,,,,,,,,,,,,,,,,,,,,,,,,,,,,,,,,
,,,,,,5ee0a607b1d0693f75003f64,62c53a3f6fbbb58e9db4e16e,2022-07-06_10h31.24.391,Colour_Asymmetry_Pilot,2022.1.3,Win32,60.55468088,62c50e9c1127f2cd403a315f,0,29,29,29,1,threefour,,,,,,,,,,,,,,,,,,,,,,,,,,,,,,,,,,,,,,,,,,,,,,,,,,,,,,,,,,,,,,,,,,,,,,,,,,,,,,,,,,,,,,,,,,,,,,,,,,,,,,,,,,,,,,,,,,,,,,,,,,,,,,,,,,,,,,,,,,,,,,,,,,,,,,,,,,,,,
,,,,,,5ee0a607b1d0693f75003f64,62c53a3f6fbbb58e9db4e16e,2022-07-06_10h31.24.391,Colour_Asymmetry_Pilot,2022.1.3,Win32,60.55468088,62c50e9c1127f2cd403a315f,0,30,30,81,1,onethree,,,,,,,,,,,,,,,,,,,,,,,,,,,,,,,,,,,,,,,,,,,,,,,,,,,,,,,,,,,,,,,,,,,,,,,,,,,,,,,,,,,,,,,,,,,,,,,,,,,,,,,,,,,,,,,,,,,,,,,,,,,,,,,,,,,,,,,,,,,,,,,,,,,,,,,,,,,,,
,,,,,,5ee0a607b1d0693f75003f64,62c53a3f6fbbb58e9db4e16e,2022-07-06_10h31.24.391,Colour_Asymmetry_Pilot,2022.1.3,Win32,60.55468088,62c50e9c1127f2cd403a315f,0,31,31,42,1,twoone,,,,,,,,,,,,,,,,,,,,,,,,,,,,,,,,,,,,,,,,,,,,,,,,,,,,,,,,,,,,,,,,,,,,,,,,,,,,,,,,,,,,,,,,,,,,,,,,,,,,,,,,,,,,,,,,,,,,,,,,,,,,,,,,,,,,,,,,,,,,,,,,,,,,,,,,,,,,,
,,,,,,5ee0a607b1d0693f75003f64,62c53a3f6fbbb58e9db4e16e,2022-07-06_10h31.24.391,Colour_Asymmetry_Pilot,2022.1.3,Win32,60.55468088,62c50e9c1127f2cd403a315f,0,32,32,118,1,fourtwo,,,,,,,,,,,,,,,,,,,,,,,,,,,,,,,,,,,,,,,,,,,,,,,,,,,,,,,,,,,,,,,,,,,,,,,,,,,,,,,,,,,,,,,,,,,,,,,,,,,,,,,,,,,,,,,,,,,,,,,,,,,,,,,,,,,,,,,,,,,,,,,,,,,,,,,,,,,,,
,,,,,,5ee0a607b1d0693f75003f64,62c53a3f6fbbb58e9db4e16e,2022-07-06_10h31.24.391,Colour_Asymmetry_Pilot,2022.1.3,Win32,60.55468088,62c50e9c1127f2cd403a315f,0,33,33,129,1,onethree,,,,,,,,,,,,,,,,,,,,,,,,,,,,,,,,,,,,,,,,,,,,,,,,,,,,,,,,,,,,,,,,,,,,,,,,,,,,,,,,,,,,,,,,,,,,,,,,,,,,,,,,,,,,,,,,,,,,,,,,,,,,,,,,,,,,,,,,,,,,,,,,,,,,,,,,,,,,,
,,,,,,5ee0a607b1d0693f75003f64,62c53a3f6fbbb58e9db4e16e,2022-07-06_10h31.24.391,Colour_Asymmetry_Pilot,2022.1.3,Win32,60.55468088,62c50e9c1127f2cd403a315f,0,34,34,68,1,threeone,,,,,,,,,,,,,,,,,,,,,,,,,,,,,,,,,,,,,,,,,,,,,,,,,,,,,,,,,,,,,,,,,,,,,,,,,,,,,,,,,,,,,,,,,,,,,,,,,,,,,,,,,,,,,,,,,,,,,,,,,,,,,,,,,,,,,,,,,,,,,,,,,,,,,,,,,,,,,
,,,,,,5ee0a607b1d0693f75003f64,62c53a3f6fbbb58e9db4e16e,2022-07-06_10h31.24.391,Colour_Asymmetry_Pilot,2022.1.3,Win32,60.55468088,62c50e9c1127f2cd403a315f,0,35,35,108,1,threeone,,,,,,,,,,,,,,,,,,,,,,,,,,,,,,,,,,,,,,,,,,,,,,,,,,,,,,,,,,,,,,,,,,,,,,,,,,,,,,,,,,,,,,,,,,,,,,,,,,,,,,,,,,,,,,,,,,,,,,,,,,,,,,,,,,,,,,,,,,,,,,,,,,,,,,,,,,,,,
,,,,,,5ee0a607b1d0693f75003f64,62c53a3f6fbbb58e9db4e16e,2022-07-06_10h31.24.391,Colour_Asymmetry_Pilot,2022.1.3,Win32,60.55468088,62c50e9c1127f2cd403a315f,0,36,36,104,1,onetwo,,,,,,,,,,,,,,,,,,,,,,,,,,,,,,,,,,,,,,,,,,,,,,,,,,,,,,,,,,,,,,,,,,,,,,,,,,,,,,,,,,,,,,,,,,,,,,,,,,,,,,,,,,,,,,,,,,,,,,,,,,,,,,,,,,,,,,,,,,,,,,,,,,,,,,,,,,,,,
,,,,,,5ee0a607b1d0693f75003f64,62c53a3f6fbbb58e9db4e16e,2022-07-06_10h31.24.391,Colour_Asymmetry_Pilot,2022.1.3,Win32,60.55468088,62c50e9c1127f2cd403a315f,0,37,37,150,1,fourtwo,,,,,,,,,,,,,,,,,,,,,,,,,,,,,,,,,,,,,,,,,,,,,,,,,,,,,,,,,,,,,,,,,,,,,,,,,,,,,,,,,,,,,,,,,,,,,,,,,,,,,,,,,,,,,,,,,,,,,,,,,,,,,,,,,,,,,,,,,,,,,,,,,,,,,,,,,,,,,
,,,,,,5ee0a607b1d0693f75003f64,62c53a3f6fbbb58e9db4e16e,2022-07-06_10h31.24.391,Colour_Asymmetry_Pilot,2022.1.3,Win32,60.55468088,62c50e9c1127f2cd403a315f,0,38,38,3,1,twofour,,,,,,,,,,,,,,,,,,,,,,,,,,,,,,,,,,,,,,,,,,,,,,,,,,,,,,,,,,,,,,,,,,,,,,,,,,,,,,,,,,,,,,,,,,,,,,,,,,,,,,,,,,,,,,,,,,,,,,,,,,,,,,,,,,,,,,,,,,,,,,,,,,,,,,,,,,,,,
,,,,,,5ee0a607b1d0693f75003f64,62c53a3f6fbbb58e9db4e16e,2022-07-06_10h31.24.391,Colour_Asymmetry_Pilot,2022.1.3,Win32,60.55468088,62c50e9c1127f2cd403a315f,0,39,39,5,1,threefour,,,,,,,,,,,,,,,,,,,,,,,,,,,,,,,,,,,,,,,,,,,,,,,,,,,,,,,,,,,,,,,,,,,,,,,,,,,,,,,,,,,,,,,,,,,,,,,,,,,,,,,,,,,,,,,,,,,,,,,,,,,,,,,,,,,,,,,,,,,,,,,,,,,,,,,,,,,,,
,,,,,,5ee0a607b1d0693f75003f64,62c53a3f6fbbb58e9db4e16e,2022-07-06_10h31.24.391,Colour_Asymmetry_Pilot,2022.1.3,Win32,60.55468088,62c50e9c1127f2cd403a315f,0,40,40,85,1,threefour,,,,,,,,,,,,,,,,,,,,,,,,,,,,,,,,,,,,,,,,,,,,,,,,,,,,,,,,,,,,,,,,,,,,,,,,,,,,,,,,,,,,,,,,,,,,,,,,,,,,,,,,,,,,,,,,,,,,,,,,,,,,,,,,,,,,,,,,,,,,,,,,,,,,,,,,,,,,,
,,,,,,5ee0a607b1d0693f75003f64,62c53a3f6fbbb58e9db4e16e,2022-07-06_10h31.24.391,Colour_Asymmetry_Pilot,2022.1.3,Win32,60.55468088,62c50e9c1127f2cd403a315f,0,41,41,82,1,twoone,,,,,,,,,,,,,,,,,,,,,,,,,,,,,,,,,,,,,,,,,,,,,,,,,,,,,,,,,,,,,,,,,,,,,,,,,,,,,,,,,,,,,,,,,,,,,,,,,,,,,,,,,,,,,,,,,,,,,,,,,,,,,,,,,,,,,,,,,,,,,,,,,,,,,,,,,,,,,
,,,,,,5ee0a607b1d0693f75003f64,62c53a3f6fbbb58e9db4e16e,2022-07-06_10h31.24.391,Colour_Asymmetry_Pilot,2022.1.3,Win32,60.55468088,62c50e9c1127f2cd403a315f,0,42,42,153,1,onethree,,,,,,,,,,,,,,,,,,,,,,,,,,,,,,,,,,,,,,,,,,,,,,,,,,,,,,,,,,,,,,,,,,,,,,,,,,,,,,,,,,,,,,,,,,,,,,,,,,,,,,,,,,,,,,,,,,,,,,,,,,,,,,,,,,,,,,,,,,,,,,,,,,,,,,,,,,,,,
,,,,,,5ee0a607b1d0693f75003f64,62c53a3f6fbbb58e9db4e16e,2022-07-06_10h31.24.391,Colour_Asymmetry_Pilot,2022.1.3,Win32,60.55468088,62c50e9c1127f2cd403a315f,0,43,43,121,1,onethree,,,,,,,,,,,,,,,,,,,,,,,,,,,,,,,,,,,,,,,,,,,,,,,,,,,,,,,,,,,,,,,,,,,,,,,,,,,,,,,,,,,,,,,,,,,,,,,,,,,,,,,,,,,,,,,,,,,,,,,,,,,,,,,,,,,,,,,,,,,,,,,,,,,,,,,,,,,,,
,,,,,,5ee0a607b1d0693f75003f64,62c53a3f6fbbb58e9db4e16e,2022-07-06_10h31.24.391,Colour_Asymmetry_Pilot,2022.1.3,Win32,60.55468088,62c50e9c1127f2cd403a315f,0,44,44,124,1,threeone,,,,,,,,,,,,,,,,,,,,,,,,,,,,,,,,,,,,,,,,,,,,,,,,,,,,,,,,,,,,,,,,,,,,,,,,,,,,,,,,,,,,,,,,,,,,,,,,,,,,,,,,,,,,,,,,,,,,,,,,,,,,,,,,,,,,,,,,,,,,,,,,,,,,,,,,,,,,,
,,,,,,5ee0a607b1d0693f75003f64,62c53a3f6fbbb58e9db4e16e,2022-07-06_10h31.24.391,Colour_Asymmetry_Pilot,2022.1.3,Win32,60.55468088,62c50e9c1127f2cd403a315f,0,45,45,151,1,fourthree,,,,,,,,,,,,,,,,,,,,,,,,,,,,,,,,,,,,,,,,,,,,,,,,,,,,,,,,,,,,,,,,,,,,,,,,,,,,,,,,,,,,,,,,,,,,,,,,,,,,,,,,,,,,,,,,,,,,,,,,,,,,,,,,,,,,,,,,,,,,,,,,,,,,,,,,,,,,,
,,,,,,5ee0a607b1d0693f75003f64,62c53a3f6fbbb58e9db4e16e,2022-07-06_10h31.24.391,Colour_Asymmetry_Pilot,2022.1.3,Win32,60.55468088,62c50e9c1127f2cd403a315f,0,46,46,16,1,onetwo,,,,,,,,,,,,,,,,,,,,,,,,,,,,,,,,,,,,,,,,,,,,,,,,,,,,,,,,,,,,,,,,,,,,,,,,,,,,,,,,,,,,,,,,,,,,,,,,,,,,,,,,,,,,,,,,,,,,,,,,,,,,,,,,,,,,,,,,,,,,,,,,,,,,,,,,,,,,,
,,,,,,5ee0a607b1d0693f75003f64,62c53a3f6fbbb58e9db4e16e,2022-07-06_10h31.24.391,Colour_Asymmetry_Pilot,2022.1.3,Win32,60.55468088,62c50e9c1127f2cd403a315f,0,47,47,115,1,twofour,,,,,,,,,,,,,,,,,,,,,,,,,,,,,,,,,,,,,,,,,,,,,,,,,,,,,,,,,,,,,,,,,,,,,,,,,,,,,,,,,,,,,,,,,,,,,,,,,,,,,,,,,,,,,,,,,,,,,,,,,,,,,,,,,,,,,,,,,,,,,,,,,,,,,,,,,,,,,
,,,,,,5ee0a607b1d0693f75003f64,62c53a3f6fbbb58e9db4e16e,2022-07-06_10h31.24.391,Colour_Asymmetry_Pilot,2022.1.3,Win32,60.55468088,62c50e9c1127f2cd403a315f,0,48,48,78,1,fourtwo,,,,,,,,,,,,,,,,,,,,,,,,,,,,,,,,,,,,,,,,,,,,,,,,,,,,,,,,,,,,,,,,,,,,,,,,,,,,,,,,,,,,,,,,,,,,,,,,,,,,,,,,,,,,,,,,,,,,,,,,,,,,,,,,,,,,,,,,,,,,,,,,,,,,,,,,,,,,,
,,,,,,5ee0a607b1d0693f75003f64,62c53a3f6fbbb58e9db4e16e,2022-07-06_10h31.24.391,Colour_Asymmetry_Pilot,2022.1.3,Win32,60.55468088,62c50e9c1127f2cd403a315f,0,49,49,24,1,onetwo,,,,,,,,,,,,,,,,,,,,,,,,,,,,,,,,,,,,,,,,,,,,,,,,,,,,,,,,,,,,,,,,,,,,,,,,,,,,,,,,,,,,,,,,,,,,,,,,,,,,,,,,,,,,,,,,,,,,,,,,,,,,,,,,,,,,,,,,,,,,,,,,,,,,,,,,,,,,,
,,,,,,5ee0a607b1d0693f75003f64,62c53a3f6fbbb58e9db4e16e,2022-07-06_10h31.24.391,Colour_Asymmetry_Pilot,2022.1.3,Win32,60.55468088,62c50e9c1127f2cd403a315f,0,50,50,111,1,fourthree,,,,,,,,,,,,,,,,,,,,,,,,,,,,,,,,,,,,,,,,,,,,,,,,,,,,,,,,,,,,,,,,,,,,,,,,,,,,,,,,,,,,,,,,,,,,,,,,,,,,,,,,,,,,,,,,,,,,,,,,,,,,,,,,,,,,,,,,,,,,,,,,,,,,,,,,,,,,,
,,,,,,5ee0a607b1d0693f75003f64,62c53a3f6fbbb58e9db4e16e,2022-07-06_10h31.24.391,Colour_Asymmetry_Pilot,2022.1.3,Win32,60.55468088,62c50e9c1127f2cd403a315f,0,51,51,84,1,threeone,,,,,,,,,,,,,,,,,,,,,,,,,,,,,,,,,,,,,,,,,,,,,,,,,,,,,,,,,,,,,,,,,,,,,,,,,,,,,,,,,,,,,,,,,,,,,,,,,,,,,,,,,,,,,,,,,,,,,,,,,,,,,,,,,,,,,,,,,,,,,,,,,,,,,,,,,,,,,
,,,,,,5ee0a607b1d0693f75003f64,62c53a3f6fbbb58e9db4e16e,2022-07-06_10h31.24.391,Colour_Asymmetry_Pilot,2022.1.3,Win32,60.55468088,62c50e9c1127f2cd403a315f,0,52,52,73,1,onethree,,,,,,,,,,,,,,,,,,,,,,,,,,,,,,,,,,,,,,,,,,,,,,,,,,,,,,,,,,,,,,,,,,,,,,,,,,,,,,,,,,,,,,,,,,,,,,,,,,,,,,,,,,,,,,,,,,,,,,,,,,,,,,,,,,,,,,,,,,,,,,,,,,,,,,,,,,,,,
,,,,,,5ee0a607b1d0693f75003f64,62c53a3f6fbbb58e9db4e16e,2022-07-06_10h31.24.391,Colour_Asymmetry_Pilot,2022.1.3,Win32,60.55468088,62c50e9c1127f2cd403a315f,0,53,53,61,1,threefour,,,,,,,,,,,,,,,,,,,,,,,,,,,,,,,,,,,,,,,,,,,,,,,,,,,,,,,,,,,,,,,,,,,,,,,,,,,,,,,,,,,,,,,,,,,,,,,,,,,,,,,,,,,,,,,,,,,,,,,,,,,,,,,,,,,,,,,,,,,,,,,,,,,,,,,,,,,,,
,,,,,,5ee0a607b1d0693f75003f64,62c53a3f6fbbb58e9db4e16e,2022-07-06_10h31.24.391,Colour_Asymmetry_Pilot,2022.1.3,Win32,60.55468088,62c50e9c1127f2cd403a315f,0,54,54,20,1,threeone,,,,,,,,,,,,,,,,,,,,,,,,,,,,,,,,,,,,,,,,,,,,,,,,,,,,,,,,,,,,,,,,,,,,,,,,,,,,,,,,,,,,,,,,,,,,,,,,,,,,,,,,,,,,,,,,,,,,,,,,,,,,,,,,,,,,,,,,,,,,,,,,,,,,,,,,,,,,,
,,,,,,5ee0a607b1d0693f75003f64,62c53a3f6fbbb58e9db4e16e,2022-07-06_10h31.24.391,Colour_Asymmetry_Pilot,2022.1.3,Win32,60.55468088,62c50e9c1127f2cd403a315f,0,55,55,88,1,onetwo,,,,,,,,,,,,,,,,,,,,,,,,,,,,,,,,,,,,,,,,,,,,,,,,,,,,,,,,,,,,,,,,,,,,,,,,,,,,,,,,,,,,,,,,,,,,,,,,,,,,,,,,,,,,,,,,,,,,,,,,,,,,,,,,,,,,,,,,,,,,,,,,,,,,,,,,,,,,,
,,,,,,5ee0a607b1d0693f75003f64,62c53a3f6fbbb58e9db4e16e,2022-07-06_10h31.24.391,Colour_Asymmetry_Pilot,2022.1.3,Win32,60.55468088,62c50e9c1127f2cd403a315f,0,56,56,74,1,twoone,,,,,,,,,,,,,,,,,,,,,,,,,,,,,,,,,,,,,,,,,,,,,,,,,,,,,,,,,,,,,,,,,,,,,,,,,,,,,,,,,,,,,,,,,,,,,,,,,,,,,,,,,,,,,,,,,,,,,,,,,,,,,,,,,,,,,,,,,,,,,,,,,,,,,,,,,,,,,
,,,,,,5ee0a607b1d0693f75003f64,62c53a3f6fbbb58e9db4e16e,2022-07-06_10h31.24.391,Colour_Asymmetry_Pilot,2022.1.3,Win32,60.55468088,62c50e9c1127f2cd403a315f,0,57,57,13,1,threefour,,,,,,,,,,,,,,,,,,,,,,,,,,,,,,,,,,,,,,,,,,,,,,,,,,,,,,,,,,,,,,,,,,,,,,,,,,,,,,,,,,,,,,,,,,,,,,,,,,,,,,,,,,,,,,,,,,,,,,,,,,,,,,,,,,,,,,,,,,,,,,,,,,,,,,,,,,,,,
,,,,,,5ee0a607b1d0693f75003f64,62c53a3f6fbbb58e9db4e16e,2022-07-06_10h31.24.391,Colour_Asymmetry_Pilot,2022.1.3,Win32,60.55468088,62c50e9c1127f2cd403a315f,0,58,58,119,1,fourthree,,,,,,,,,,,,,,,,,,,,,,,,,,,,,,,,,,,,,,,,,,,,,,,,,,,,,,,,,,,,,,,,,,,,,,,,,,,,,,,,,,,,,,,,,,,,,,,,,,,,,,,,,,,,,,,,,,,,,,,,,,,,,,,,,,,,,,,,,,,,,,,,,,,,,,,,,,,,,
,,,,,,5ee0a607b1d0693f75003f64,62c53a3f6fbbb58e9db4e16e,2022-07-06_10h31.24.391,Colour_Asymmetry_Pilot,2022.1.3,Win32,60.55468088,62c50e9c1127f2cd403a315f,0,59,59,37,1,threefour,,,,,,,,,,,,,,,,,,,,,,,,,,,,,,,,,,,,,,,,,,,,,,,,,,,,,,,,,,,,,,,,,,,,,,,,,,,,,,,,,,,,,,,,,,,,,,,,,,,,,,,,,,,,,,,,,,,,,,,,,,,,,,,,,,,,,,,,,,,,,,,,,,,,,,,,,,,,,
,,,,,,5ee0a607b1d0693f75003f64,62c53a3f6fbbb58e9db4e16e,2022-07-06_10h31.24.391,Colour_Asymmetry_Pilot,2022.1.3,Win32,60.55468088,62c50e9c1127f2cd403a315f,0,60,60,50,1,twoone,,,,,,,,,,,,,,,,,,,,,,,,,,,,,,,,,,,,,,,,,,,,,,,,,,,,,,,,,,,,,,,,,,,,,,,,,,,,,,,,,,,,,,,,,,,,,,,,,,,,,,,,,,,,,,,,,,,,,,,,,,,,,,,,,,,,,,,,,,,,,,,,,,,,,,,,,,,,,
,,,,,,5ee0a607b1d0693f75003f64,62c53a3f6fbbb58e9db4e16e,2022-07-06_10h31.24.391,Colour_Asymmetry_Pilot,2022.1.3,Win32,60.55468088,62c50e9c1127f2cd403a315f,0,61,61,101,1,threefour,,,,,,,,,,,,,,,,,,,,,,,,,,,,,,,,,,,,,,,,,,,,,,,,,,,,,,,,,,,,,,,,,,,,,,,,,,,,,,,,,,,,,,,,,,,,,,,,,,,,,,,,,,,,,,,,,,,,,,,,,,,,,,,,,,,,,,,,,,,,,,,,,,,,,,,,,,,,,
,,,,,,5ee0a607b1d0693f75003f64,62c53a3f6fbbb58e9db4e16e,2022-07-06_10h31.24.391,Colour_Asymmetry_Pilot,2022.1.3,Win32,60.55468088,62c50e9c1127f2cd403a315f,0,62,62,77,1,threefour,,,,,,,,,,,,,,,,,,,,,,,,,,,,,,,,,,,,,,,,,,,,,,,,,,,,,,,,,,,,,,,,,,,,,,,,,,,,,,,,,,,,,,,,,,,,,,,,,,,,,,,,,,,,,,,,,,,,,,,,,,,,,,,,,,,,,,,,,,,,,,,,,,,,,,,,,,,,,
,,,,,,5ee0a607b1d0693f75003f64,62c53a3f6fbbb58e9db4e16e,2022-07-06_10h31.24.391,Colour_Asymmetry_Pilot,2022.1.3,Win32,60.55468088,62c50e9c1127f2cd403a315f,0,63,63,89,1,onethree,,,,,,,,,,,,,,,,,,,,,,,,,,,,,,,,,,,,,,,,,,,,,,,,,,,,,,,,,,,,,,,,,,,,,,,,,,,,,,,,,,,,,,,,,,,,,,,,,,,,,,,,,,,,,,,,,,,,,,,,,,,,,,,,,,,,,,,,,,,,,,,,,,,,,,,,,,,,,
,,,,,,5ee0a607b1d0693f75003f64,62c53a3f6fbbb58e9db4e16e,2022-07-06_10h31.24.391,Colour_Asymmetry_Pilot,2022.1.3,Win32,60.55468088,62c50e9c1127f2cd403a315f,0,64,64,33,1,onethree,,,,,,,,,,,,,,,,,,,,,,,,,,,,,,,,,,,,,,,,,,,,,,,,,,,,,,,,,,,,,,,,,,,,,,,,,,,,,,,,,,,,,,,,,,,,,,,,,,,,,,,,,,,,,,,,,,,,,,,,,,,,,,,,,,,,,,,,,,,,,,,,,,,,,,,,,,,,,
,,,,,,5ee0a607b1d0693f75003f64,62c53a3f6fbbb58e9db4e16e,2022-07-06_10h31.24.391,Colour_Asymmetry_Pilot,2022.1.3,Win32,60.55468088,62c50e9c1127f2cd403a315f,0,65,65,56,1,onetwo,,,,,,,,,,,,,,,,,,,,,,,,,,,,,,,,,,,,,,,,,,,,,,,,,,,,,,,,,,,,,,,,,,,,,,,,,,,,,,,,,,,,,,,,,,,,,,,,,,,,,,,,,,,,,,,,,,,,,,,,,,,,,,,,,,,,,,,,,,,,,,,,,,,,,,,,,,,,,
,,,,,,5ee0a607b1d0693f75003f64,62c53a3f6fbbb58e9db4e16e,2022-07-06_10h31.24.391,Colour_Asymmetry_Pilot,2022.1.3,Win32,60.55468088,62c50e9c1127f2cd403a315f,0,66,66,45,1,threefour,,,,,,,,,,,,,,,,,,,,,,,,,,,,,,,,,,,,,,,,,,,,,,,,,,,,,,,,,,,,,,,,,,,,,,,,,,,,,,,,,,,,,,,,,,,,,,,,,,,,,,,,,,,,,,,,,,,,,,,,,,,,,,,,,,,,,,,,,,,,,,,,,,,,,,,,,,,,,
,,,,,,5ee0a607b1d0693f75003f64,62c53a3f6fbbb58e9db4e16e,2022-07-06_10h31.24.391,Colour_Asymmetry_Pilot,2022.1.3,Win32,60.55468088,62c50e9c1127f2cd403a315f,0,67,67,96,1,onetwo,,,,,,,,,,,,,,,,,,,,,,,,,,,,,,,,,,,,,,,,,,,,,,,,,,,,,,,,,,,,,,,,,,,,,,,,,,,,,,,,,,,,,,,,,,,,,,,,,,,,,,,,,,,,,,,,,,,,,,,,,,,,,,,,,,,,,,,,,,,,,,,,,,,,,,,,,,,,,
,,,,,,5ee0a607b1d0693f75003f64,62c53a3f6fbbb58e9db4e16e,2022-07-06_10h31.24.391,Colour_Asymmetry_Pilot,2022.1.3,Win32,60.55468088,62c50e9c1127f2cd403a315f,0,68,68,155,1,twofour,,,,,,,,,,,,,,,,,,,,,,,,,,,,,,,,,,,,,,,,,,,,,,,,,,,,,,,,,,,,,,,,,,,,,,,,,,,,,,,,,,,,,,,,,,,,,,,,,,,,,,,,,,,,,,,,,,,,,,,,,,,,,,,,,,,,,,,,,,,,,,,,,,,,,,,,,,,,,
,,,,,,5ee0a607b1d0693f75003f64,62c53a3f6fbbb58e9db4e16e,2022-07-06_10h31.24.391,Colour_Asymmetry_Pilot,2022.1.3,Win32,60.55468088,62c50e9c1127f2cd403a315f,0,69,69,106,1,twoone,,,,,,,,,,,,,,,,,,,,,,,,,,,,,,,,,,,,,,,,,,,,,,,,,,,,,,,,,,,,,,,,,,,,,,,,,,,,,,,,,,,,,,,,,,,,,,,,,,,,,,,,,,,,,,,,,,,,,,,,,,,,,,,,,,,,,,,,,,,,,,,,,,,,,,,,,,,,,
,,,,,,5ee0a607b1d0693f75003f64,62c53a3f6fbbb58e9db4e16e,2022-07-06_10h31.24.391,Colour_Asymmetry_Pilot,2022.1.3,Win32,60.55468088,62c50e9c1127f2cd403a315f,0,70,70,23,1,fourthree,,,,,,,,,,,,,,,,,,,,,,,,,,,,,,,,,,,,,,,,,,,,,,,,,,,,,,,,,,,,,,,,,,,,,,,,,,,,,,,,,,,,,,,,,,,,,,,,,,,,,,,,,,,,,,,,,,,,,,,,,,,,,,,,,,,,,,,,,,,,,,,,,,,,,,,,,,,,,
,,,,,,5ee0a607b1d0693f75003f64,62c53a3f6fbbb58e9db4e16e,2022-07-06_10h31.24.391,Colour_Asymmetry_Pilot,2022.1.3,Win32,60.55468088,62c50e9c1127f2cd403a315f,0,71,71,145,1,onethree,,,,,,,,,,,,,,,,,,,,,,,,,,,,,,,,,,,,,,,,,,,,,,,,,,,,,,,,,,,,,,,,,,,,,,,,,,,,,,,,,,,,,,,,,,,,,,,,,,,,,,,,,,,,,,,,,,,,,,,,,,,,,,,,,,,,,,,,,,,,,,,,,,,,,,,,,,,,,
,,,,,,5ee0a607b1d0693f75003f64,62c53a3f6fbbb58e9db4e16e,2022-07-06_10h31.24.391,Colour_Asymmetry_Pilot,2022.1.3,Win32,60.55468088,62c50e9c1127f2cd403a315f,0,72,72,72,1,onetwo,,,,,,,,,,,,,,,,,,,,,,,,,,,,,,,,,,,,,,,,,,,,,,,,,,,,,,,,,,,,,,,,,,,,,,,,,,,,,,,,,,,,,,,,,,,,,,,,,,,,,,,,,,,,,,,,,,,,,,,,,,,,,,,,,,,,,,,,,,,,,,,,,,,,,,,,,,,,,
,,,,,,5ee0a607b1d0693f75003f64,62c53a3f6fbbb58e9db4e16e,2022-07-06_10h31.24.391,Colour_Asymmetry_Pilot,2022.1.3,Win32,60.55468088,62c50e9c1127f2cd403a315f,0,73,73,120,1,onetwo,,,,,,,,,,,,,,,,,,,,,,,,,,,,,,,,,,,,,,,,,,,,,,,,,,,,,,,,,,,,,,,,,,,,,,,,,,,,,,,,,,,,,,,,,,,,,,,,,,,,,,,,,,,,,,,,,,,,,,,,,,,,,,,,,,,,,,,,,,,,,,,,,,,,,,,,,,,,,
,,,,,,5ee0a607b1d0693f75003f64,62c53a3f6fbbb58e9db4e16e,2022-07-06_10h31.24.391,Colour_Asymmetry_Pilot,2022.1.3,Win32,60.55468088,62c50e9c1127f2cd403a315f,0,74,74,137,1,onethree,,,,,,,,,,,,,,,,,,,,,,,,,,,,,,,,,,,,,,,,,,,,,,,,,,,,,,,,,,,,,,,,,,,,,,,,,,,,,,,,,,,,,,,,,,,,,,,,,,,,,,,,,,,,,,,,,,,,,,,,,,,,,,,,,,,,,,,,,,,,,,,,,,,,,,,,,,,,,
,,,,,,5ee0a607b1d0693f75003f64,62c53a3f6fbbb58e9db4e16e,2022-07-06_10h31.24.391,Colour_Asymmetry_Pilot,2022.1.3,Win32,60.55468088,62c50e9c1127f2cd403a315f,0,75,75,114,1,twoone,,,,,,,,,,,,,,,,,,,,,,,,,,,,,,,,,,,,,,,,,,,,,,,,,,,,,,,,,,,,,,,,,,,,,,,,,,,,,,,,,,,,,,,,,,,,,,,,,,,,,,,,,,,,,,,,,,,,,,,,,,,,,,,,,,,,,,,,,,,,,,,,,,,,,,,,,,,,,
,,,,,,5ee0a607b1d0693f75003f64,62c53a3f6fbbb58e9db4e16e,2022-07-06_10h31.24.391,Colour_Asymmetry_Pilot,2022.1.3,Win32,60.55468088,62c50e9c1127f2cd403a315f,0,76,76,18,1,twoone,,,,,,,,,,,,,,,,,,,,,,,,,,,,,,,,,,,,,,,,,,,,,,,,,,,,,,,,,,,,,,,,,,,,,,,,,,,,,,,,,,,,,,,,,,,,,,,,,,,,,,,,,,,,,,,,,,,,,,,,,,,,,,,,,,,,,,,,,,,,,,,,,,,,,,,,,,,,,
,,,,,,5ee0a607b1d0693f75003f64,62c53a3f6fbbb58e9db4e16e,2022-07-06_10h31.24.391,Colour_Asymmetry_Pilot,2022.1.3,Win32,60.55468088,62c50e9c1127f2cd403a315f,0,77,77,93,1,threefour,,,,,,,,,,,,,,,,,,,,,,,,,,,,,,,,,,,,,,,,,,,,,,,,,,,,,,,,,,,,,,,,,,,,,,,,,,,,,,,,,,,,,,,,,,,,,,,,,,,,,,,,,,,,,,,,,,,,,,,,,,,,,,,,,,,,,,,,,,,,,,,,,,,,,,,,,,,,,
,,,,,,5ee0a607b1d0693f75003f64,62c53a3f6fbbb58e9db4e16e,2022-07-06_10h31.24.391,Colour_Asymmetry_Pilot,2022.1.3,Win32,60.55468088,62c50e9c1127f2cd403a315f,0,78,78,147,1,twofour,,,,,,,,,,,,,,,,,,,,,,,,,,,,,,,,,,,,,,,,,,,,,,,,,,,,,,,,,,,,,,,,,,,,,,,,,,,,,,,,,,,,,,,,,,,,,,,,,,,,,,,,,,,,,,,,,,,,,,,,,,,,,,,,,,,,,,,,,,,,,,,,,,,,,,,,,,,,,
,,,,,,5ee0a607b1d0693f75003f64,62c53a3f6fbbb58e9db4e16e,2022-07-06_10h31.24.391,Colour_Asymmetry_Pilot,2022.1.3,Win32,60.55468088,62c50e9c1127f2cd403a315f,0,79,79,7,1,fourthree,,,,,,,,,,,,,,,,,,,,,,,,,,,,,,,,,,,,,,,,,,,,,,,,,,,,,,,,,,,,,,,,,,,,,,,,,,,,,,,,,,,,,,,,,,,,,,,,,,,,,,,,,,,,,,,,,,,,,,,,,,,,,,,,,,,,,,,,,,,,,,,,,,,,,,,,,,,,,
,,,,,,5ee0a607b1d0693f75003f64,62c53a3f6fbbb58e9db4e16e,2022-07-06_10h31.24.391,Colour_Asymmetry_Pilot,2022.1.3,Win32,60.55468088,62c50e9c1127f2cd403a315f,0,80,80,2,1,twoone,,,,,,,,,,,,,,,,,,,,,,,,,,,,,,,,,,,,,,,,,,,,,,,,,,,,,,,,,,,,,,,,,,,,,,,,,,,,,,,,,,,,,,,,,,,,,,,,,,,,,,,,,,,,,,,,,,,,,,,,,,,,,,,,,,,,,,,,,,,,,,,,,,,,,,,,,,,,,
,,,,,,5ee0a607b1d0693f75003f64,62c53a3f6fbbb58e9db4e16e,2022-07-06_10h31.24.391,Colour_Asymmetry_Pilot,2022.1.3,Win32,60.55468088,62c50e9c1127f2cd403a315f,0,81,81,122,1,twoone,,,,,,,,,,,,,,,,,,,,,,,,,,,,,,,,,,,,,,,,,,,,,,,,,,,,,,,,,,,,,,,,,,,,,,,,,,,,,,,,,,,,,,,,,,,,,,,,,,,,,,,,,,,,,,,,,,,,,,,,,,,,,,,,,,,,,,,,,,,,,,,,,,,,,,,,,,,,,
,,,,,,5ee0a607b1d0693f75003f64,62c53a3f6fbbb58e9db4e16e,2022-07-06_10h31.24.391,Colour_Asymmetry_Pilot,2022.1.3,Win32,60.55468088,62c50e9c1127f2cd403a315f,0,82,82,161,1,onethree,,,,,,,,,,,,,,,,,,,,,,,,,,,,,,,,,,,,,,,,,,,,,,,,,,,,,,,,,,,,,,,,,,,,,,,,,,,,,,,,,,,,,,,,,,,,,,,,,,,,,,,,,,,,,,,,,,,,,,,,,,,,,,,,,,,,,,,,,,,,,,,,,,,,,,,,,,,,,
,,,,,,5ee0a607b1d0693f75003f64,62c53a3f6fbbb58e9db4e16e,2022-07-06_10h31.24.391,Colour_Asymmetry_Pilot,2022.1.3,Win32,60.55468088,62c50e9c1127f2cd403a315f,0,83,83,59,1,twofour,,,,,,,,,,,,,,,,,,,,,,,,,,,,,,,,,,,,,,,,,,,,,,,,,,,,,,,,,,,,,,,,,,,,,,,,,,,,,,,,,,,,,,,,,,,,,,,,,,,,,,,,,,,,,,,,,,,,,,,,,,,,,,,,,,,,,,,,,,,,,,,,,,,,,,,,,,,,,
,,,,,,5ee0a607b1d0693f75003f64,62c53a3f6fbbb58e9db4e16e,2022-07-06_10h31.24.391,Colour_Asymmetry_Pilot,2022.1.3,Win32,60.55468088,62c50e9c1127f2cd403a315f,0,84,84,159,1,fourthree,,,,,,,,,,,,,,,,,,,,,,,,,,,,,,,,,,,,,,,,,,,,,,,,,,,,,,,,,,,,,,,,,,,,,,,,,,,,,,,,,,,,,,,,,,,,,,,,,,,,,,,,,,,,,,,,,,,,,,,,,,,,,,,,,,,,,,,,,,,,,,,,,,,,,,,,,,,,,
,,,,,,5ee0a607b1d0693f75003f64,62c53a3f6fbbb58e9db4e16e,2022-07-06_10h31.24.391,Colour_Asymmetry_Pilot,2022.1.3,Win32,60.55468088,62c50e9c1127f2cd403a315f,0,85,85,138,1,twoone,,,,,,,,,,,,,,,,,,,,,,,,,,,,,,,,,,,,,,,,,,,,,,,,,,,,,,,,,,,,,,,,,,,,,,,,,,,,,,,,,,,,,,,,,,,,,,,,,,,,,,,,,,,,,,,,,,,,,,,,,,,,,,,,,,,,,,,,,,,,,,,,,,,,,,,,,,,,,
,,,,,,5ee0a607b1d0693f75003f64,62c53a3f6fbbb58e9db4e16e,2022-07-06_10h31.24.391,Colour_Asymmetry_Pilot,2022.1.3,Win32,60.55468088,62c50e9c1127f2cd403a315f,0,86,86,99,1,twofour,,,,,,,,,,,,,,,,,,,,,,,,,,,,,,,,,,,,,,,,,,,,,,,,,,,,,,,,,,,,,,,,,,,,,,,,,,,,,,,,,,,,,,,,,,,,,,,,,,,,,,,,,,,,,,,,,,,,,,,,,,,,,,,,,,,,,,,,,,,,,,,,,,,,,,,,,,,,,
,,,,,,5ee0a607b1d0693f75003f64,62c53a3f6fbbb58e9db4e16e,2022-07-06_10h31.24.391,Colour_Asymmetry_Pilot,2022.1.3,Win32,60.55468088,62c50e9c1127f2cd403a315f,0,87,87,15,1,fourthree,,,,,,,,,,,,,,,,,,,,,,,,,,,,,,,,,,,,,,,,,,,,,,,,,,,,,,,,,,,,,,,,,,,,,,,,,,,,,,,,,,,,,,,,,,,,,,,,,,,,,,,,,,,,,,,,,,,,,,,,,,,,,,,,,,,,,,,,,,,,,,,,,,,,,,,,,,,,,
,,,,,,5ee0a607b1d0693f75003f64,62c53a3f6fbbb58e9db4e16e,2022-07-06_10h31.24.391,Colour_Asymmetry_Pilot,2022.1.3,Win32,60.55468088,62c50e9c1127f2cd403a315f,0,88,88,21,1,threefour,,,,,,,,,,,,,,,,,,,,,,,,,,,,,,,,,,,,,,,,,,,,,,,,,,,,,,,,,,,,,,,,,,,,,,,,,,,,,,,,,,,,,,,,,,,,,,,,,,,,,,,,,,,,,,,,,,,,,,,,,,,,,,,,,,,,,,,,,,,,,,,,,,,,,,,,,,,,,
,,,,,,5ee0a607b1d0693f75003f64,62c53a3f6fbbb58e9db4e16e,2022-07-06_10h31.24.391,Colour_Asymmetry_Pilot,2022.1.3,Win32,60.55468088,62c50e9c1127f2cd403a315f,0,89,89,152,1,onetwo,,,,,,,,,,,,,,,,,,,,,,,,,,,,,,,,,,,,,,,,,,,,,,,,,,,,,,,,,,,,,,,,,,,,,,,,,,,,,,,,,,,,,,,,,,,,,,,,,,,,,,,,,,,,,,,,,,,,,,,,,,,,,,,,,,,,,,,,,,,,,,,,,,,,,,,,,,,,,
,,,,,,5ee0a607b1d0693f75003f64,62c53a3f6fbbb58e9db4e16e,2022-07-06_10h31.24.391,Colour_Asymmetry_Pilot,2022.1.3,Win32,60.55468088,62c50e9c1127f2cd403a315f,0,90,90,31,1,fourthree,,,,,,,,,,,,,,,,,,,,,,,,,,,,,,,,,,,,,,,,,,,,,,,,,,,,,,,,,,,,,,,,,,,,,,,,,,,,,,,,,,,,,,,,,,,,,,,,,,,,,,,,,,,,,,,,,,,,,,,,,,,,,,,,,,,,,,,,,,,,,,,,,,,,,,,,,,,,,
,,,,,,5ee0a607b1d0693f75003f64,62c53a3f6fbbb58e9db4e16e,2022-07-06_10h31.24.391,Colour_Asymmetry_Pilot,2022.1.3,Win32,60.55468088,62c50e9c1127f2cd403a315f,0,91,91,125,1,threefour,,,,,,,,,,,,,,,,,,,,,,,,,,,,,,,,,,,,,,,,,,,,,,,,,,,,,,,,,,,,,,,,,,,,,,,,,,,,,,,,,,,,,,,,,,,,,,,,,,,,,,,,,,,,,,,,,,,,,,,,,,,,,,,,,,,,,,,,,,,,,,,,,,,,,,,,,,,,,
,,,,,,5ee0a607b1d0693f75003f64,62c53a3f6fbbb58e9db4e16e,2022-07-06_10h31.24.391,Colour_Asymmetry_Pilot,2022.1.3,Win32,60.55468088,62c50e9c1127f2cd403a315f,0,92,92,123,1,twofour,,,,,,,,,,,,,,,,,,,,,,,,,,,,,,,,,,,,,,,,,,,,,,,,,,,,,,,,,,,,,,,,,,,,,,,,,,,,,,,,,,,,,,,,,,,,,,,,,,,,,,,,,,,,,,,,,,,,,,,,,,,,,,,,,,,,,,,,,,,,,,,,,,,,,,,,,,,,,
,,,,,,5ee0a607b1d0693f75003f64,62c53a3f6fbbb58e9db4e16e,2022-07-06_10h31.24.391,Colour_Asymmetry_Pilot,2022.1.3,Win32,60.55468088,62c50e9c1127f2cd403a315f,0,93,93,133,1,threefour,,,,,,,,,,,,,,,,,,,,,,,,,,,,,,,,,,,,,,,,,,,,,,,,,,,,,,,,,,,,,,,,,,,,,,,,,,,,,,,,,,,,,,,,,,,,,,,,,,,,,,,,,,,,,,,,,,,,,,,,,,,,,,,,,,,,,,,,,,,,,,,,,,,,,,,,,,,,,
,,,,,,5ee0a607b1d0693f75003f64,62c53a3f6fbbb58e9db4e16e,2022-07-06_10h31.24.391,Colour_Asymmetry_Pilot,2022.1.3,Win32,60.55468088,62c50e9c1127f2cd403a315f,0,94,94,0,1,onetwo,,,,,,,,,,,,,,,,,,,,,,,,,,,,,,,,,,,,,,,,,,,,,,,,,,,,,,,,,,,,,,,,,,,,,,,,,,,,,,,,,,,,,,,,,,,,,,,,,,,,,,,,,,,,,,,,,,,,,,,,,,,,,,,,,,,,,,,,,,,,,,,,,,,,,,,,,,,,,
,,,,,,5ee0a607b1d0693f75003f64,62c53a3f6fbbb58e9db4e16e,2022-07-06_10h31.24.391,Colour_Asymmetry_Pilot,2022.1.3,Win32,60.55468088,62c50e9c1127f2cd403a315f,0,95,95,131,1,twofour,,,,,,,,,,,,,,,,,,,,,,,,,,,,,,,,,,,,,,,,,,,,,,,,,,,,,,,,,,,,,,,,,,,,,,,,,,,,,,,,,,,,,,,,,,,,,,,,,,,,,,,,,,,,,,,,,,,,,,,,,,,,,,,,,,,,,,,,,,,,,,,,,,,,,,,,,,,,,
,,,,,,5ee0a607b1d0693f75003f64,62c53a3f6fbbb58e9db4e16e,2022-07-06_10h31.24.391,Colour_Asymmetry_Pilot,2022.1.3,Win32,60.55468088,62c50e9c1127f2cd403a315f,0,96,96,38,1,fourtwo,,,,,,,,,,,,,,,,,,,,,,,,,,,,,,,,,,,,,,,,,,,,,,,,,,,,,,,,,,,,,,,,,,,,,,,,,,,,,,,,,,,,,,,,,,,,,,,,,,,,,,,,,,,,,,,,,,,,,,,,,,,,,,,,,,,,,,,,,,,,,,,,,,,,,,,,,,,,,
,,,,,,5ee0a607b1d0693f75003f64,62c53a3f6fbbb58e9db4e16e,2022-07-06_10h31.24.391,Colour_Asymmetry_Pilot,2022.1.3,Win32,60.55468088,62c50e9c1127f2cd403a315f,0,97,97,86,1,fourtwo,,,,,,,,,,,,,,,,,,,,,,,,,,,,,,,,,,,,,,,,,,,,,,,,,,,,,,,,,,,,,,,,,,,,,,,,,,,,,,,,,,,,,,,,,,,,,,,,,,,,,,,,,,,,,,,,,,,,,,,,,,,,,,,,,,,,,,,,,,,,,,,,,,,,,,,,,,,,,
,,,,,,5ee0a607b1d0693f75003f64,62c53a3f6fbbb58e9db4e16e,2022-07-06_10h31.24.391,Colour_Asymmetry_Pilot,2022.1.3,Win32,60.55468088,62c50e9c1127f2cd403a315f,0,98,98,91,1,twofour,,,,,,,,,,,,,,,,,,,,,,,,,,,,,,,,,,,,,,,,,,,,,,,,,,,,,,,,,,,,,,,,,,,,,,,,,,,,,,,,,,,,,,,,,,,,,,,,,,,,,,,,,,,,,,,,,,,,,,,,,,,,,,,,,,,,,,,,,,,,,,,,,,,,,,,,,,,,,
,,,,,,5ee0a607b1d0693f75003f64,62c53a3f6fbbb58e9db4e16e,2022-07-06_10h31.24.391,Colour_Asymmetry_Pilot,2022.1.3,Win32,60.55468088,62c50e9c1127f2cd403a315f,0,99,99,39,1,fourthree,,,,,,,,,,,,,,,,,,,,,,,,,,,,,,,,,,,,,,,,,,,,,,,,,,,,,,,,,,,,,,,,,,,,,,,,,,,,,,,,,,,,,,,,,,,,,,,,,,,,,,,,,,,,,,,,,,,,,,,,,,,,,,,,,,,,,,,,,,,,,,,,,,,,,,,,,,,,,
,,,,,,5ee0a607b1d0693f75003f64,62c53a3f6fbbb58e9db4e16e,2022-07-06_10h31.24.391,Colour_Asymmetry_Pilot,2022.1.3,Win32,60.55468088,62c50e9c1127f2cd403a315f,0,100,100,41,1,onethree,,,,,,,,,,,,,,,,,,,,,,,,,,,,,,,,,,,,,,,,,,,,,,,,,,,,,,,,,,,,,,,,,,,,,,,,,,,,,,,,,,,,,,,,,,,,,,,,,,,,,,,,,,,,,,,,,,,,,,,,,,,,,,,,,,,,,,,,,,,,,,,,,,,,,,,,,,,,,
,,,,,,5ee0a607b1d0693f75003f64,62c53a3f6fbbb58e9db4e16e,2022-07-06_10h31.24.391,Colour_Asymmetry_Pilot,2022.1.3,Win32,60.55468088,62c50e9c1127f2cd403a315f,0,101,101,130,1,twoone,,,,,,,,,,,,,,,,,,,,,,,,,,,,,,,,,,,,,,,,,,,,,,,,,,,,,,,,,,,,,,,,,,,,,,,,,,,,,,,,,,,,,,,,,,,,,,,,,,,,,,,,,,,,,,,,,,,,,,,,,,,,,,,,,,,,,,,,,,,,,,,,,,,,,,,,,,,,,
,,,,,,5ee0a607b1d0693f75003f64,62c53a3f6fbbb58e9db4e16e,2022-07-06_10h31.24.391,Colour_Asymmetry_Pilot,2022.1.3,Win32,60.55468088,62c50e9c1127f2cd403a315f,0,102,102,102,1,fourtwo,,,,,,,,,,,,,,,,,,,,,,,,,,,,,,,,,,,,,,,,,,,,,,,,,,,,,,,,,,,,,,,,,,,,,,,,,,,,,,,,,,,,,,,,,,,,,,,,,,,,,,,,,,,,,,,,,,,,,,,,,,,,,,,,,,,,,,,,,,,,,,,,,,,,,,,,,,,,,
,,,,,,5ee0a607b1d0693f75003f64,62c53a3f6fbbb58e9db4e16e,2022-07-06_10h31.24.391,Colour_Asymmetry_Pilot,2022.1.3,Win32,60.55468088,62c50e9c1127f2cd403a315f,0,103,103,65,1,onethree,,,,,,,,,,,,,,,,,,,,,,,,,,,,,,,,,,,,,,,,,,,,,,,,,,,,,,,,,,,,,,,,,,,,,,,,,,,,,,,,,,,,,,,,,,,,,,,,,,,,,,,,,,,,,,,,,,,,,,,,,,,,,,,,,,,,,,,,,,,,,,,,,,,,,,,,,,,,,
,,,,,,5ee0a607b1d0693f75003f64,62c53a3f6fbbb58e9db4e16e,2022-07-06_10h31.24.391,Colour_Asymmetry_Pilot,2022.1.3,Win32,60.55468088,62c50e9c1127f2cd403a315f,0,104,104,36,1,threeone,,,,,,,,,,,,,,,,,,,,,,,,,,,,,,,,,,,,,,,,,,,,,,,,,,,,,,,,,,,,,,,,,,,,,,,,,,,,,,,,,,,,,,,,,,,,,,,,,,,,,,,,,,,,,,,,,,,,,,,,,,,,,,,,,,,,,,,,,,,,,,,,,,,,,,,,,,,,,
,,,,,,5ee0a607b1d0693f75003f64,62c53a3f6fbbb58e9db4e16e,2022-07-06_10h31.24.391,Colour_Asymmetry_Pilot,2022.1.3,Win32,60.55468088,62c50e9c1127f2cd403a315f,0,105,105,69,1,threefour,,,,,,,,,,,,,,,,,,,,,,,,,,,,,,,,,,,,,,,,,,,,,,,,,,,,,,,,,,,,,,,,,,,,,,,,,,,,,,,,,,,,,,,,,,,,,,,,,,,,,,,,,,,,,,,,,,,,,,,,,,,,,,,,,,,,,,,,,,,,,,,,,,,,,,,,,,,,,
,,,,,,5ee0a607b1d0693f75003f64,62c53a3f6fbbb58e9db4e16e,2022-07-06_10h31.24.391,Colour_Asymmetry_Pilot,2022.1.3,Win32,60.55468088,62c50e9c1127f2cd403a315f,0,106,106,113,1,onethree,,,,,,,,,,,,,,,,,,,,,,,,,,,,,,,,,,,,,,,,,,,,,,,,,,,,,,,,,,,,,,,,,,,,,,,,,,,,,,,,,,,,,,,,,,,,,,,,,,,,,,,,,,,,,,,,,,,,,,,,,,,,,,,,,,,,,,,,,,,,,,,,,,,,,,,,,,,,,
,,,,,,5ee0a607b1d0693f75003f64,62c53a3f6fbbb58e9db4e16e,2022-07-06_10h31.24.391,Colour_Asymmetry_Pilot,2022.1.3,Win32,60.55468088,62c50e9c1127f2cd403a315f,0,107,107,94,1,fourtwo,,,,,,,,,,,,,,,,,,,,,,,,,,,,,,,,,,,,,,,,,,,,,,,,,,,,,,,,,,,,,,,,,,,,,,,,,,,,,,,,,,,,,,,,,,,,,,,,,,,,,,,,,,,,,,,,,,,,,,,,,,,,,,,,,,,,,,,,,,,,,,,,,,,,,,,,,,,,,
,,,,,,5ee0a607b1d0693f75003f64,62c53a3f6fbbb58e9db4e16e,2022-07-06_10h31.24.391,Colour_Asymmetry_Pilot,2022.1.3,Win32,60.55468088,62c50e9c1127f2cd403a315f,0,108,108,92,1,threeone,,,,,,,,,,,,,,,,,,,,,,,,,,,,,,,,,,,,,,,,,,,,,,,,,,,,,,,,,,,,,,,,,,,,,,,,,,,,,,,,,,,,,,,,,,,,,,,,,,,,,,,,,,,,,,,,,,,,,,,,,,,,,,,,,,,,,,,,,,,,,,,,,,,,,,,,,,,,,
,,,,,,5ee0a607b1d0693f75003f64,62c53a3f6fbbb58e9db4e16e,2022-07-06_10h31.24.391,Colour_Asymmetry_Pilot,2022.1.3,Win32,60.55468088,62c50e9c1127f2cd403a315f,0,109,109,25,1,onethree,,,,,,,,,,,,,,,,,,,,,,,,,,,,,,,,,,,,,,,,,,,,,,,,,,,,,,,,,,,,,,,,,,,,,,,,,,,,,,,,,,,,,,,,,,,,,,,,,,,,,,,,,,,,,,,,,,,,,,,,,,,,,,,,,,,,,,,,,,,,,,,,,,,,,,,,,,,,,
,,,,,,5ee0a607b1d0693f75003f64,62c53a3f6fbbb58e9db4e16e,2022-07-06_10h31.24.391,Colour_Asymmetry_Pilot,2022.1.3,Win32,60.55468088,62c50e9c1127f2cd403a315f,0,110,110,79,1,fourthree,,,,,,,,,,,,,,,,,,,,,,,,,,,,,,,,,,,,,,,,,,,,,,,,,,,,,,,,,,,,,,,,,,,,,,,,,,,,,,,,,,,,,,,,,,,,,,,,,,,,,,,,,,,,,,,,,,,,,,,,,,,,,,,,,,,,,,,,,,,,,,,,,,,,,,,,,,,,,
,,,,,,5ee0a607b1d0693f75003f64,62c53a3f6fbbb58e9db4e16e,2022-07-06_10h31.24.391,Colour_Asymmetry_Pilot,2022.1.3,Win32,60.55468088,62c50e9c1127f2cd403a315f,0,111,111,9,1,onethree,,,,,,,,,,,,,,,,,,,,,,,,,,,,,,,,,,,,,,,,,,,,,,,,,,,,,,,,,,,,,,,,,,,,,,,,,,,,,,,,,,,,,,,,,,,,,,,,,,,,,,,,,,,,,,,,,,,,,,,,,,,,,,,,,,,,,,,,,,,,,,,,,,,,,,,,,,,,,
,,,,,,5ee0a607b1d0693f75003f64,62c53a3f6fbbb58e9db4e16e,2022-07-06_10h31.24.391,Colour_Asymmetry_Pilot,2022.1.3,Win32,60.55468088,62c50e9c1127f2cd403a315f,0,112,112,43,1,twofour,,,,,,,,,,,,,,,,,,,,,,,,,,,,,,,,,,,,,,,,,,,,,,,,,,,,,,,,,,,,,,,,,,,,,,,,,,,,,,,,,,,,,,,,,,,,,,,,,,,,,,,,,,,,,,,,,,,,,,,,,,,,,,,,,,,,,,,,,,,,,,,,,,,,,,,,,,,,,
,,,,,,5ee0a607b1d0693f75003f64,62c53a3f6fbbb58e9db4e16e,2022-07-06_10h31.24.391,Colour_Asymmetry_Pilot,2022.1.3,Win32,60.55468088,62c50e9c1127f2cd403a315f,0,113,113,46,1,fourtwo,,,,,,,,,,,,,,,,,,,,,,,,,,,,,,,,,,,,,,,,,,,,,,,,,,,,,,,,,,,,,,,,,,,,,,,,,,,,,,,,,,,,,,,,,,,,,,,,,,,,,,,,,,,,,,,,,,,,,,,,,,,,,,,,,,,,,,,,,,,,,,,,,,,,,,,,,,,,,
,,,,,,5ee0a607b1d0693f75003f64,62c53a3f6fbbb58e9db4e16e,2022-07-06_10h31.24.391,Colour_Asymmetry_Pilot,2022.1.3,Win32,60.55468088,62c50e9c1127f2cd403a315f,0,114,114,140,1,threeone,,,,,,,,,,,,,,,,,,,,,,,,,,,,,,,,,,,,,,,,,,,,,,,,,,,,,,,,,,,,,,,,,,,,,,,,,,,,,,,,,,,,,,,,,,,,,,,,,,,,,,,,,,,,,,,,,,,,,,,,,,,,,,,,,,,,,,,,,,,,,,,,,,,,,,,,,,,,,
,,,,,,5ee0a607b1d0693f75003f64,62c53a3f6fbbb58e9db4e16e,2022-07-06_10h31.24.391,Colour_Asymmetry_Pilot,2022.1.3,Win32,60.55468088,62c50e9c1127f2cd403a315f,0,115,115,142,1,fourtwo,,,,,,,,,,,,,,,,,,,,,,,,,,,,,,,,,,,,,,,,,,,,,,,,,,,,,,,,,,,,,,,,,,,,,,,,,,,,,,,,,,,,,,,,,,,,,,,,,,,,,,,,,,,,,,,,,,,,,,,,,,,,,,,,,,,,,,,,,,,,,,,,,,,,,,,,,,,,,
,,,,,,5ee0a607b1d0693f75003f64,62c53a3f6fbbb58e9db4e16e,2022-07-06_10h31.24.391,Colour_Asymmetry_Pilot,2022.1.3,Win32,60.55468088,62c50e9c1127f2cd403a315f,0,116,116,116,1,threeone,,,,,,,,,,,,,,,,,,,,,,,,,,,,,,,,,,,,,,,,,,,,,,,,,,,,,,,,,,,,,,,,,,,,,,,,,,,,,,,,,,,,,,,,,,,,,,,,,,,,,,,,,,,,,,,,,,,,,,,,,,,,,,,,,,,,,,,,,,,,,,,,,,,,,,,,,,,,,
,,,,,,5ee0a607b1d0693f75003f64,62c53a3f6fbbb58e9db4e16e,2022-07-06_10h31.24.391,Colour_Asymmetry_Pilot,2022.1.3,Win32,60.55468088,62c50e9c1127f2cd403a315f,0,117,117,70,1,fourtwo,,,,,,,,,,,,,,,,,,,,,,,,,,,,,,,,,,,,,,,,,,,,,,,,,,,,,,,,,,,,,,,,,,,,,,,,,,,,,,,,,,,,,,,,,,,,,,,,,,,,,,,,,,,,,,,,,,,,,,,,,,,,,,,,,,,,,,,,,,,,,,,,,,,,,,,,,,,,,
,,,,,,5ee0a607b1d0693f75003f64,62c53a3f6fbbb58e9db4e16e,2022-07-06_10h31.24.391,Colour_Asymmetry_Pilot,2022.1.3,Win32,60.55468088,62c50e9c1127f2cd403a315f,0,118,118,110,1,fourtwo,,,,,,,,,,,,,,,,,,,,,,,,,,,,,,,,,,,,,,,,,,,,,,,,,,,,,,,,,,,,,,,,,,,,,,,,,,,,,,,,,,,,,,,,,,,,,,,,,,,,,,,,,,,,,,,,,,,,,,,,,,,,,,,,,,,,,,,,,,,,,,,,,,,,,,,,,,,,,
,,,,,,5ee0a607b1d0693f75003f64,62c53a3f6fbbb58e9db4e16e,2022-07-06_10h31.24.391,Colour_Asymmetry_Pilot,2022.1.3,Win32,60.55468088,62c50e9c1127f2cd403a315f,0,119,119,97,1,onethree,,,,,,,,,,,,,,,,,,,,,,,,,,,,,,,,,,,,,,,,,,,,,,,,,,,,,,,,,,,,,,,,,,,,,,,,,,,,,,,,,,,,,,,,,,,,,,,,,,,,,,,,,,,,,,,,,,,,,,,,,,,,,,,,,,,,,,,,,,,,,,,,,,,,,,,,,,,,,
,,,,,,5ee0a607b1d0693f75003f64,62c53a3f6fbbb58e9db4e16e,2022-07-06_10h31.24.391,Colour_Asymmetry_Pilot,2022.1.3,Win32,60.55468088,62c50e9c1127f2cd403a315f,0,120,120,55,1,fourthree,,,,,,,,,,,,,,,,,,,,,,,,,,,,,,,,,,,,,,,,,,,,,,,,,,,,,,,,,,,,,,,,,,,,,,,,,,,,,,,,,,,,,,,,,,,,,,,,,,,,,,,,,,,,,,,,,,,,,,,,,,,,,,,,,,,,,,,,,,,,,,,,,,,,,,,,,,,,,
,,,,,,5ee0a607b1d0693f75003f64,62c53a3f6fbbb58e9db4e16e,2022-07-06_10h31.24.391,Colour_Asymmetry_Pilot,2022.1.3,Win32,60.55468088,62c50e9c1127f2cd403a315f,0,121,121,66,1,twoone,,,,,,,,,,,,,,,,,,,,,,,,,,,,,,,,,,,,,,,,,,,,,,,,,,,,,,,,,,,,,,,,,,,,,,,,,,,,,,,,,,,,,,,,,,,,,,,,,,,,,,,,,,,,,,,,,,,,,,,,,,,,,,,,,,,,,,,,,,,,,,,,,,,,,,,,,,,,,
,,,,,,5ee0a607b1d0693f75003f64,62c53a3f6fbbb58e9db4e16e,2022-07-06_10h31.24.391,Colour_Asymmetry_Pilot,2022.1.3,Win32,60.55468088,62c50e9c1127f2cd403a315f,0,122,122,10,1,twoone,,,,,,,,,,,,,,,,,,,,,,,,,,,,,,,,,,,,,,,,,,,,,,,,,,,,,,,,,,,,,,,,,,,,,,,,,,,,,,,,,,,,,,,,,,,,,,,,,,,,,,,,,,,,,,,,,,,,,,,,,,,,,,,,,,,,,,,,,,,,,,,,,,,,,,,,,,,,,
,,,,,,5ee0a607b1d0693f75003f64,62c53a3f6fbbb58e9db4e16e,2022-07-06_10h31.24.391,Colour_Asymmetry_Pilot,2022.1.3,Win32,60.55468088,62c50e9c1127f2cd403a315f,0,123,123,60,1,threeone,,,,,,,,,,,,,,,,,,,,,,,,,,,,,,,,,,,,,,,,,,,,,,,,,,,,,,,,,,,,,,,,,,,,,,,,,,,,,,,,,,,,,,,,,,,,,,,,,,,,,,,,,,,,,,,,,,,,,,,,,,,,,,,,,,,,,,,,,,,,,,,,,,,,,,,,,,,,,
,,,,,,5ee0a607b1d0693f75003f64,62c53a3f6fbbb58e9db4e16e,2022-07-06_10h31.24.391,Colour_Asymmetry_Pilot,2022.1.3,Win32,60.55468088,62c50e9c1127f2cd403a315f,0,124,124,19,1,twofour,,,,,,,,,,,,,,,,,,,,,,,,,,,,,,,,,,,,,,,,,,,,,,,,,,,,,,,,,,,,,,,,,,,,,,,,,,,,,,,,,,,,,,,,,,,,,,,,,,,,,,,,,,,,,,,,,,,,,,,,,,,,,,,,,,,,,,,,,,,,,,,,,,,,,,,,,,,,,
,,,,,,5ee0a607b1d0693f75003f64,62c53a3f6fbbb58e9db4e16e,2022-07-06_10h31.24.391,Colour_Asymmetry_Pilot,2022.1.3,Win32,60.55468088,62c50e9c1127f2cd403a315f,0,125,125,48,1,onetwo,,,,,,,,,,,,,,,,,,,,,,,,,,,,,,,,,,,,,,,,,,,,,,,,,,,,,,,,,,,,,,,,,,,,,,,,,,,,,,,,,,,,,,,,,,,,,,,,,,,,,,,,,,,,,,,,,,,,,,,,,,,,,,,,,,,,,,,,,,,,,,,,,,,,,,,,,,,,,
,,,,,,5ee0a607b1d0693f75003f64,62c53a3f6fbbb58e9db4e16e,2022-07-06_10h31.24.391,Colour_Asymmetry_Pilot,2022.1.3,Win32,60.55468088,62c50e9c1127f2cd403a315f,0,126,126,35,1,twofour,,,,,,,,,,,,,,,,,,,,,,,,,,,,,,,,,,,,,,,,,,,,,,,,,,,,,,,,,,,,,,,,,,,,,,,,,,,,,,,,,,,,,,,,,,,,,,,,,,,,,,,,,,,,,,,,,,,,,,,,,,,,,,,,,,,,,,,,,,,,,,,,,,,,,,,,,,,,,
,,,,,,5ee0a607b1d0693f75003f64,62c53a3f6fbbb58e9db4e16e,2022-07-06_10h31.24.391,Colour_Asymmetry_Pilot,2022.1.3,Win32,60.55468088,62c50e9c1127f2cd403a315f,0,127,127,1,1,onethree,,,,,,,,,,,,,,,,,,,,,,,,,,,,,,,,,,,,,,,,,,,,,,,,,,,,,,,,,,,,,,,,,,,,,,,,,,,,,,,,,,,,,,,,,,,,,,,,,,,,,,,,,,,,,,,,,,,,,,,,,,,,,,,,,,,,,,,,,,,,,,,,,,,,,,,,,,,,,
,,,,,,5ee0a607b1d0693f75003f64,62c53a3f6fbbb58e9db4e16e,2022-07-06_10h31.24.391,Colour_Asymmetry_Pilot,2022.1.3,Win32,60.55468088,62c50e9c1127f2cd403a315f,0,128,128,136,1,onetwo,,,,,,,,,,,,,,,,,,,,,,,,,,,,,,,,,,,,,,,,,,,,,,,,,,,,,,,,,,,,,,,,,,,,,,,,,,,,,,,,,,,,,,,,,,,,,,,,,,,,,,,,,,,,,,,,,,,,,,,,,,,,,,,,,,,,,,,,,,,,,,,,,,,,,,,,,,,,,
,,,,,,5ee0a607b1d0693f75003f64,62c53a3f6fbbb58e9db4e16e,2022-07-06_10h31.24.391,Colour_Asymmetry_Pilot,2022.1.3,Win32,60.55468088,62c50e9c1127f2cd403a315f,0,129,129,17,1,onethree,,,,,,,,,,,,,,,,,,,,,,,,,,,,,,,,,,,,,,,,,,,,,,,,,,,,,,,,,,,,,,,,,,,,,,,,,,,,,,,,,,,,,,,,,,,,,,,,,,,,,,,,,,,,,,,,,,,,,,,,,,,,,,,,,,,,,,,,,,,,,,,,,,,,,,,,,,,,,
,,,,,,5ee0a607b1d0693f75003f64,62c53a3f6fbbb58e9db4e16e,2022-07-06_10h31.24.391,Colour_Asymmetry_Pilot,2022.1.3,Win32,60.55468088,62c50e9c1127f2cd403a315f,0,130,130,64,1,onetwo,,,,,,,,,,,,,,,,,,,,,,,,,,,,,,,,,,,,,,,,,,,,,,,,,,,,,,,,,,,,,,,,,,,,,,,,,,,,,,,,,,,,,,,,,,,,,,,,,,,,,,,,,,,,,,,,,,,,,,,,,,,,,,,,,,,,,,,,,,,,,,,,,,,,,,,,,,,,,
,,,,,,5ee0a607b1d0693f75003f64,62c53a3f6fbbb58e9db4e16e,2022-07-06_10h31.24.391,Colour_Asymmetry_Pilot,2022.1.3,Win32,60.55468088,62c50e9c1127f2cd403a315f,0,131,131,87,1,fourthree,,,,,,,,,,,,,,,,,,,,,,,,,,,,,,,,,,,,,,,,,,,,,,,,,,,,,,,,,,,,,,,,,,,,,,,,,,,,,,,,,,,,,,,,,,,,,,,,,,,,,,,,,,,,,,,,,,,,,,,,,,,,,,,,,,,,,,,,,,,,,,,,,,,,,,,,,,,,,
,,,,,,5ee0a607b1d0693f75003f64,62c53a3f6fbbb58e9db4e16e,2022-07-06_10h31.24.391,Colour_Asymmetry_Pilot,2022.1.3,Win32,60.55468088,62c50e9c1127f2cd403a315f,0,132,132,47,1,fourthree,,,,,,,,,,,,,,,,,,,,,,,,,,,,,,,,,,,,,,,,,,,,,,,,,,,,,,,,,,,,,,,,,,,,,,,,,,,,,,,,,,,,,,,,,,,,,,,,,,,,,,,,,,,,,,,,,,,,,,,,,,,,,,,,,,,,,,,,,,,,,,,,,,,,,,,,,,,,,
,,,,,,5ee0a607b1d0693f75003f64,62c53a3f6fbbb58e9db4e16e,2022-07-06_10h31.24.391,Colour_Asymmetry_Pilot,2022.1.3,Win32,60.55468088,62c50e9c1127f2cd403a315f,0,133,133,95,1,fourthree,,,,,,,,,,,,,,,,,,,,,,,,,,,,,,,,,,,,,,,,,,,,,,,,,,,,,,,,,,,,,,,,,,,,,,,,,,,,,,,,,,,,,,,,,,,,,,,,,,,,,,,,,,,,,,,,,,,,,,,,,,,,,,,,,,,,,,,,,,,,,,,,,,,,,,,,,,,,,
,,,,,,5ee0a607b1d0693f75003f64,62c53a3f6fbbb58e9db4e16e,2022-07-06_10h31.24.391,Colour_Asymmetry_Pilot,2022.1.3,Win32,60.55468088,62c50e9c1127f2cd403a315f,0,134,134,22,1,fourtwo,,,,,,,,,,,,,,,,,,,,,,,,,,,,,,,,,,,,,,,,,,,,,,,,,,,,,,,,,,,,,,,,,,,,,,,,,,,,,,,,,,,,,,,,,,,,,,,,,,,,,,,,,,,,,,,,,,,,,,,,,,,,,,,,,,,,,,,,,,,,,,,,,,,,,,,,,,,,,
,,,,,,5ee0a607b1d0693f75003f64,62c53a3f6fbbb58e9db4e16e,2022-07-06_10h31.24.391,Colour_Asymmetry_Pilot,2022.1.3,Win32,60.55468088,62c50e9c1127f2cd403a315f,0,135,135,62,1,fourtwo,,,,,,,,,,,,,,,,,,,,,,,,,,,,,,,,,,,,,,,,,,,,,,,,,,,,,,,,,,,,,,,,,,,,,,,,,,,,,,,,,,,,,,,,,,,,,,,,,,,,,,,,,,,,,,,,,,,,,,,,,,,,,,,,,,,,,,,,,,,,,,,,,,,,,,,,,,,,,
,,,,,,5ee0a607b1d0693f75003f64,62c53a3f6fbbb58e9db4e16e,2022-07-06_10h31.24.391,Colour_Asymmetry_Pilot,2022.1.3,Win32,60.55468088,62c50e9c1127f2cd403a315f,0,136,136,98,1,twoone,,,,,,,,,,,,,,,,,,,,,,,,,,,,,,,,,,,,,,,,,,,,,,,,,,,,,,,,,,,,,,,,,,,,,,,,,,,,,,,,,,,,,,,,,,,,,,,,,,,,,,,,,,,,,,,,,,,,,,,,,,,,,,,,,,,,,,,,,,,,,,,,,,,,,,,,,,,,,
,,,,,,5ee0a607b1d0693f75003f64,62c53a3f6fbbb58e9db4e16e,2022-07-06_10h31.24.391,Colour_Asymmetry_Pilot,2022.1.3,Win32,60.55468088,62c50e9c1127f2cd403a315f,0,137,137,71,1,fourthree,,,,,,,,,,,,,,,,,,,,,,,,,,,,,,,,,,,,,,,,,,,,,,,,,,,,,,,,,,,,,,,,,,,,,,,,,,,,,,,,,,,,,,,,,,,,,,,,,,,,,,,,,,,,,,,,,,,,,,,,,,,,,,,,,,,,,,,,,,,,,,,,,,,,,,,,,,,,,
,,,,,,5ee0a607b1d0693f75003f64,62c53a3f6fbbb58e9db4e16e,2022-07-06_10h31.24.391,Colour_Asymmetry_Pilot,2022.1.3,Win32,60.55468088,62c50e9c1127f2cd403a315f,0,138,138,149,1,threefour,,,,,,,,,,,,,,,,,,,,,,,,,,,,,,,,,,,,,,,,,,,,,,,,,,,,,,,,,,,,,,,,,,,,,,,,,,,,,,,,,,,,,,,,,,,,,,,,,,,,,,,,,,,,,,,,,,,,,,,,,,,,,,,,,,,,,,,,,,,,,,,,,,,,,,,,,,,,,
,,,,,,5ee0a607b1d0693f75003f64,62c53a3f6fbbb58e9db4e16e,2022-07-06_10h31.24.391,Colour_Asymmetry_Pilot,2022.1.3,Win32,60.55468088,62c50e9c1127f2cd403a315f,0,139,139,26,1,twoone,,,,,,,,,,,,,,,,,,,,,,,,,,,,,,,,,,,,,,,,,,,,,,,,,,,,,,,,,,,,,,,,,,,,,,,,,,,,,,,,,,,,,,,,,,,,,,,,,,,,,,,,,,,,,,,,,,,,,,,,,,,,,,,,,,,,,,,,,,,,,,,,,,,,,,,,,,,,,
,,,,,,5ee0a607b1d0693f75003f64,62c53a3f6fbbb58e9db4e16e,2022-07-06_10h31.24.391,Colour_Asymmetry_Pilot,2022.1.3,Win32,60.55468088,62c50e9c1127f2cd403a315f,0,140,140,76,1,threeone,,,,,,,,,,,,,,,,,,,,,,,,,,,,,,,,,,,,,,,,,,,,,,,,,,,,,,,,,,,,,,,,,,,,,,,,,,,,,,,,,,,,,,,,,,,,,,,,,,,,,,,,,,,,,,,,,,,,,,,,,,,,,,,,,,,,,,,,,,,,,,,,,,,,,,,,,,,,,
,,,,,,5ee0a607b1d0693f75003f64,62c53a3f6fbbb58e9db4e16e,2022-07-06_10h31.24.391,Colour_Asymmetry_Pilot,2022.1.3,Win32,60.55468088,62c50e9c1127f2cd403a315f,0,141,141,141,1,threefour,,,,,,,,,,,,,,,,,,,,,,,,,,,,,,,,,,,,,,,,,,,,,,,,,,,,,,,,,,,,,,,,,,,,,,,,,,,,,,,,,,,,,,,,,,,,,,,,,,,,,,,,,,,,,,,,,,,,,,,,,,,,,,,,,,,,,,,,,,,,,,,,,,,,,,,,,,,,,
,,,,,,5ee0a607b1d0693f75003f64,62c53a3f6fbbb58e9db4e16e,2022-07-06_10h31.24.391,Colour_Asymmetry_Pilot,2022.1.3,Win32,60.55468088,62c50e9c1127f2cd403a315f,0,142,142,126,1,fourtwo,,,,,,,,,,,,,,,,,,,,,,,,,,,,,,,,,,,,,,,,,,,,,,,,,,,,,,,,,,,,,,,,,,,,,,,,,,,,,,,,,,,,,,,,,,,,,,,,,,,,,,,,,,,,,,,,,,,,,,,,,,,,,,,,,,,,,,,,,,,,,,,,,,,,,,,,,,,,,
,,,,,,5ee0a607b1d0693f75003f64,62c53a3f6fbbb58e9db4e16e,2022-07-06_10h31.24.391,Colour_Asymmetry_Pilot,2022.1.3,Win32,60.55468088,62c50e9c1127f2cd403a315f,0,143,143,156,1,threeone,,,,,,,,,,,,,,,,,,,,,,,,,,,,,,,,,,,,,,,,,,,,,,,,,,,,,,,,,,,,,,,,,,,,,,,,,,,,,,,,,,,,,,,,,,,,,,,,,,,,,,,,,,,,,,,,,,,,,,,,,,,,,,,,,,,,,,,,,,,,,,,,,,,,,,,,,,,,,
,,,,,,5ee0a607b1d0693f75003f64,62c53a3f6fbbb58e9db4e16e,2022-07-06_10h31.24.391,Colour_Asymmetry_Pilot,2022.1.3,Win32,60.55468088,62c50e9c1127f2cd403a315f,0,144,144,148,1,threeone,,,,,,,,,,,,,,,,,,,,,,,,,,,,,,,,,,,,,,,,,,,,,,,,,,,,,,,,,,,,,,,,,,,,,,,,,,,,,,,,,,,,,,,,,,,,,,,,,,,,,,,,,,,,,,,,,,,,,,,,,,,,,,,,,,,,,,,,,,,,,,,,,,,,,,,,,,,,,
,,,,,,5ee0a607b1d0693f75003f64,62c53a3f6fbbb58e9db4e16e,2022-07-06_10h31.24.391,Colour_Asymmetry_Pilot,2022.1.3,Win32,60.55468088,62c50e9c1127f2cd403a315f,0,145,145,134,1,fourtwo,,,,,,,,,,,,,,,,,,,,,,,,,,,,,,,,,,,,,,,,,,,,,,,,,,,,,,,,,,,,,,,,,,,,,,,,,,,,,,,,,,,,,,,,,,,,,,,,,,,,,,,,,,,,,,,,,,,,,,,,,,,,,,,,,,,,,,,,,,,,,,,,,,,,,,,,,,,,,
,,,,,,5ee0a607b1d0693f75003f64,62c53a3f6fbbb58e9db4e16e,2022-07-06_10h31.24.391,Colour_Asymmetry_Pilot,2022.1.3,Win32,60.55468088,62c50e9c1127f2cd403a315f,0,146,146,53,1,threefour,,,,,,,,,,,,,,,,,,,,,,,,,,,,,,,,,,,,,,,,,,,,,,,,,,,,,,,,,,,,,,,,,,,,,,,,,,,,,,,,,,,,,,,,,,,,,,,,,,,,,,,,,,,,,,,,,,,,,,,,,,,,,,,,,,,,,,,,,,,,,,,,,,,,,,,,,,,,,
,,,,,,5ee0a607b1d0693f75003f64,62c53a3f6fbbb58e9db4e16e,2022-07-06_10h31.24.391,Colour_Asymmetry_Pilot,2022.1.3,Win32,60.55468088,62c50e9c1127f2cd403a315f,0,147,147,105,1,onethree,,,,,,,,,,,,,,,,,,,,,,,,,,,,,,,,,,,,,,,,,,,,,,,,,,,,,,,,,,,,,,,,,,,,,,,,,,,,,,,,,,,,,,,,,,,,,,,,,,,,,,,,,,,,,,,,,,,,,,,,,,,,,,,,,,,,,,,,,,,,,,,,,,,,,,,,,,,,,
,,,,,,5ee0a607b1d0693f75003f64,62c53a3f6fbbb58e9db4e16e,2022-07-06_10h31.24.391,Colour_Asymmetry_Pilot,2022.1.3,Win32,60.55468088,62c50e9c1127f2cd403a315f,0,148,148,30,1,fourtwo,,,,,,,,,,,,,,,,,,,,,,,,,,,,,,,,,,,,,,,,,,,,,,,,,,,,,,,,,,,,,,,,,,,,,,,,,,,,,,,,,,,,,,,,,,,,,,,,,,,,,,,,,,,,,,,,,,,,,,,,,,,,,,,,,,,,,,,,,,,,,,,,,,,,,,,,,,,,,
,,,,,,5ee0a607b1d0693f75003f64,62c53a3f6fbbb58e9db4e16e,2022-07-06_10h31.24.391,Colour_Asymmetry_Pilot,2022.1.3,Win32,60.55468088,62c50e9c1127f2cd403a315f,0,149,149,44,1,threeone,,,,,,,,,,,,,,,,,,,,,,,,,,,,,,,,,,,,,,,,,,,,,,,,,,,,,,,,,,,,,,,,,,,,,,,,,,,,,,,,,,,,,,,,,,,,,,,,,,,,,,,,,,,,,,,,,,,,,,,,,,,,,,,,,,,,,,,,,,,,,,,,,,,,,,,,,,,,,
,,,,,,5ee0a607b1d0693f75003f64,62c53a3f6fbbb58e9db4e16e,2022-07-06_10h31.24.391,Colour_Asymmetry_Pilot,2022.1.3,Win32,60.55468088,62c50e9c1127f2cd403a315f,0,150,150,117,1,threefour,,,,,,,,,,,,,,,,,,,,,,,,,,,,,,,,,,,,,,,,,,,,,,,,,,,,,,,,,,,,,,,,,,,,,,,,,,,,,,,,,,,,,,,,,,,,,,,,,,,,,,,,,,,,,,,,,,,,,,,,,,,,,,,,,,,,,,,,,,,,,,,,,,,,,,,,,,,,,
,,,,,,5ee0a607b1d0693f75003f64,62c53a3f6fbbb58e9db4e16e,2022-07-06_10h31.24.391,Colour_Asymmetry_Pilot,2022.1.3,Win32,60.55468088,62c50e9c1127f2cd403a315f,0,151,151,100,1,threeone,,,,,,,,,,,,,,,,,,,,,,,,,,,,,,,,,,,,,,,,,,,,,,,,,,,,,,,,,,,,,,,,,,,,,,,,,,,,,,,,,,,,,,,,,,,,,,,,,,,,,,,,,,,,,,,,,,,,,,,,,,,,,,,,,,,,,,,,,,,,,,,,,,,,,,,,,,,,,
,,,,,,5ee0a607b1d0693f75003f64,62c53a3f6fbbb58e9db4e16e,2022-07-06_10h31.24.391,Colour_Asymmetry_Pilot,2022.1.3,Win32,60.55468088,62c50e9c1127f2cd403a315f,0,152,152,63,1,fourthree,,,,,,,,,,,,,,,,,,,,,,,,,,,,,,,,,,,,,,,,,,,,,,,,,,,,,,,,,,,,,,,,,,,,,,,,,,,,,,,,,,,,,,,,,,,,,,,,,,,,,,,,,,,,,,,,,,,,,,,,,,,,,,,,,,,,,,,,,,,,,,,,,,,,,,,,,,,,,
,,,,,,5ee0a607b1d0693f75003f64,62c53a3f6fbbb58e9db4e16e,2022-07-06_10h31.24.391,Colour_Asymmetry_Pilot,2022.1.3,Win32,60.55468088,62c50e9c1127f2cd403a315f,0,153,153,83,1,twofour,,,,,,,,,,,,,,,,,,,,,,,,,,,,,,,,,,,,,,,,,,,,,,,,,,,,,,,,,,,,,,,,,,,,,,,,,,,,,,,,,,,,,,,,,,,,,,,,,,,,,,,,,,,,,,,,,,,,,,,,,,,,,,,,,,,,,,,,,,,,,,,,,,,,,,,,,,,,,
,,,,,,5ee0a607b1d0693f75003f64,62c53a3f6fbbb58e9db4e16e,2022-07-06_10h31.24.391,Colour_Asymmetry_Pilot,2022.1.3,Win32,60.55468088,62c50e9c1127f2cd403a315f,0,154,154,112,1,onetwo,,,,,,,,,,,,,,,,,,,,,,,,,,,,,,,,,,,,,,,,,,,,,,,,,,,,,,,,,,,,,,,,,,,,,,,,,,,,,,,,,,,,,,,,,,,,,,,,,,,,,,,,,,,,,,,,,,,,,,,,,,,,,,,,,,,,,,,,,,,,,,,,,,,,,,,,,,,,,
,,,,,,5ee0a607b1d0693f75003f64,62c53a3f6fbbb58e9db4e16e,2022-07-06_10h31.24.391,Colour_Asymmetry_Pilot,2022.1.3,Win32,60.55468088,62c50e9c1127f2cd403a315f,0,155,155,75,1,twofour,,,,,,,,,,,,,,,,,,,,,,,,,,,,,,,,,,,,,,,,,,,,,,,,,,,,,,,,,,,,,,,,,,,,,,,,,,,,,,,,,,,,,,,,,,,,,,,,,,,,,,,,,,,,,,,,,,,,,,,,,,,,,,,,,,,,,,,,,,,,,,,,,,,,,,,,,,,,,
,,,,,,5ee0a607b1d0693f75003f64,62c53a3f6fbbb58e9db4e16e,2022-07-06_10h31.24.391,Colour_Asymmetry_Pilot,2022.1.3,Win32,60.55468088,62c50e9c1127f2cd403a315f,0,156,156,157,1,threefour,,,,,,,,,,,,,,,,,,,,,,,,,,,,,,,,,,,,,,,,,,,,,,,,,,,,,,,,,,,,,,,,,,,,,,,,,,,,,,,,,,,,,,,,,,,,,,,,,,,,,,,,,,,,,,,,,,,,,,,,,,,,,,,,,,,,,,,,,,,,,,,,,,,,,,,,,,,,,
,,,,,,5ee0a607b1d0693f75003f64,62c53a3f6fbbb58e9db4e16e,2022-07-06_10h31.24.391,Colour_Asymmetry_Pilot,2022.1.3,Win32,60.55468088,62c50e9c1127f2cd403a315f,0,157,157,160,1,onetwo,,,,,,,,,,,,,,,,,,,,,,,,,,,,,,,,,,,,,,,,,,,,,,,,,,,,,,,,,,,,,,,,,,,,,,,,,,,,,,,,,,,,,,,,,,,,,,,,,,,,,,,,,,,,,,,,,,,,,,,,,,,,,,,,,,,,,,,,,,,,,,,,,,,,,,,,,,,,,
,,,,,,5ee0a607b1d0693f75003f64,62c53a3f6fbbb58e9db4e16e,2022-07-06_10h31.24.391,Colour_Asymmetry_Pilot,2022.1.3,Win32,60.55468088,62c50e9c1127f2cd403a315f,0,158,158,135,1,fourthree,,,,,,,,,,,,,,,,,,,,,,,,,,,,,,,,,,,,,,,,,,,,,,,,,,,,,,,,,,,,,,,,,,,,,,,,,,,,,,,,,,,,,,,,,,,,,,,,,,,,,,,,,,,,,,,,,,,,,,,,,,,,,,,,,,,,,,,,,,,,,,,,,,,,,,,,,,,,,
,,,,,,5ee0a607b1d0693f75003f64,62c53a3f6fbbb58e9db4e16e,2022-07-06_10h31.24.391,Colour_Asymmetry_Pilot,2022.1.3,Win32,60.55468088,62c50e9c1127f2cd403a315f,0,159,159,8,1,onetwo,,,,,,,,,,,,,,,,,,,,,,,,,,,,,,,,,,,,,,,,,,,,,,,,,,,,,,,,,,,,,,,,,,,,,,,,,,,,,,,,,,,,,,,,,,,,,,,,,,,,,,,,,,,,,,,,,,,,,,,,,,,,,,,,,,,,,,,,,,,,,,,,,,,,,,,,,,,,,
,,,,,,5ee0a607b1d0693f75003f64,62c53a3f6fbbb58e9db4e16e,2022-07-06_10h31.24.391,Colour_Asymmetry_Pilot,2022.1.3,Win32,60.55468088,62c50e9c1127f2cd403a315f,0,160,160,34,1,twoone,,,,,,,,,,,,,,,,,,,,,,,,,,,,,,,,,,,,,,,,,,,,,,,,,,,,,,,,,,,,,,,,,,,,,,,,,,,,,,,,,,,,,,,,,,,,,,,,,,,,,,,,,,,,,,,,,,,,,,,,,,,,,,,,,,,,,,,,,,,,,,,,,,,,,,,,,,,,,
,,,,,,5ee0a607b1d0693f75003f64,62c53a3f6fbbb58e9db4e16e,2022-07-06_10h31.24.391,Colour_Asymmetry_Pilot,2022.1.3,Win32,60.55468088,62c50e9c1127f2cd403a315f,0,161,161,54,1,fourtwo,,,,,,,,,,,,,,,,,,,,,,,,,,,,,,,,,,,,,,,,,,,,,,,,,,,,,,,,,,,,,,,,,,,,,,,,,,,,,,,,,,,,,,,,,,,,,,,,,,,,,,,,,,,,,,,,,,,,,,,,,,,,,,,,,,,,,,,,,,,,,,,,,,,,,,,,,,,,,
,,,,,,5ee0a607b1d0693f75003f64,62c53a3f6fbbb58e9db4e16e,2022-07-06_10h31.24.391,Colour_Asymmetry_Pilot,2022.1.3,Win32,60.55468088,62c50e9c1127f2cd403a315f,,,,,,,space,2.5883,space,4.8882,space,24.5565,space,5.0706,space,0.8318,space,2.8177,"[0.9763999999999999,0.30979999999999985,-0.6786]",threefour,"[-0.2942,-0.24719999999999998,-0.357]",-1,10.0645,-52,-117,1,0,0,response5disk_5,-3,-3,1,0,0,rectangle_8,-3,-3,1,0,0,1,-3,-3,1,0,0,0,0,0,0,1,,,,,,,,,,,,,,,,,,,,,,,,,,,,,,,,,,,,,,,,,,,,,,,,,,,,,,,,,,,,,,,,,,,,,,,,,,,,,,,,,,,,,,,,,,,,,,,,,,,,,,,,,,,,,,,,
,,,,,,5ee0a607b1d0693f75003f64,62c53a3f6fbbb58e9db4e16e,2022-07-06_10h31.24.391,Colour_Asymmetry_Pilot,2022.1.3,Win32,60.55468088,62c50e9c1127f2cd403a315f,,,,,,,,,,,,,,,,,,,"[-0.9688,-0.7412000000000001,-0.4902000000000001]",fourthree,"[0.0351999999999999,0.41159999999999997,0.0038000000000000256]",-2,4.5373,-115,-58,1,0,0,response5disk_5,3,10,1,0,0,rectangle_8,3,10,1,0,0,1,3,10,1,0,0,1,0,1,0,1,,,,,,,,,,,,,,,,,,,,,,,,,,,,,,,,,,,,,,,,,,,,,,,,,,,,,,,,,,,,,,,,,,,,,,,,,,,,,,,,,,,,,,,,,,,,,,,,,,,,,,,,,,,,,,,,
,,,,,,5ee0a607b1d0693f75003f64,62c53a3f6fbbb58e9db4e16e,2022-07-06_10h31.24.391,Colour_Asymmetry_Pilot,2022.1.3,Win32,60.55468088,62c50e9c1127f2cd403a315f,,,,,,,,,,,,,,,,,,,"[0.7802,-0.23140000000000005,-0.20799999999999996]",threeone,"[-0.9766,-0.6472,0.07440000000000002]",-4,1.3346,-42,124,1,0,0,response7disk_5,16,1,1,0,0,rectangle_8,44,-129,1,0,0,1,3,3,1,0,0,2,0,2,0,1,response3disk_7,4,rectangle_4,,,,,,,,,,,,,,,,,,,,,,,,,,,,,,,,,,,,,,,,,,,,,,,,,,,,,,,,,,,,,,,,,,,,,,,,,,,,,,,,,,,,,,,,,,,,,,,,,,,,,,,,,,,,,
,,,,,,5ee0a607b1d0693f75003f64,62c53a3f6fbbb58e9db4e16e,2022-07-06_10h31.24.391,Colour_Asymmetry_Pilot,2022.1.3,Win32,60.55468088,62c50e9c1127f2cd403a315f,,,,,,,,,,,,,,,,,,,"[0.22340000000000004,-0.9296,-0.7884]",threeone,"[0.2784,-0.31000000000000005,-0.5452]",1,2.1347,45,-95,1,0,0,response3disk_5,26,-8,1,0,0,rectangle_8,26,-8,1,0,0,1,26,-8,1,0,0,3,0,3,0,1,,,,,,,,,,,,,,,,,,,,,,,,,,,,,,,,,,,,,,,,,,,,,,,,,,,,,,,,,,,,,,,,,,,,,,,,,,,,,,,,,,,,,,,,,,,,,,,,,,,,,,,,,,,,,,,,
,,,,,,5ee0a607b1d0693f75003f64,62c53a3f6fbbb58e9db4e16e,2022-07-06_10h31.24.391,Colour_Asymmetry_Pilot,2022.1.3,Win32,60.55468088,62c50e9c1127f2cd403a315f,,,,,,,,,,,,,,,,,,,"[0.8115999999999999,-0.0040000000000000036,-0.09819999999999995]",twofour,"[-0.9766,-0.6472,0.07440000000000002]",-3,2.1184,-126,62,1,0,0,response7disk_5,-2,-14,1,0,0,rectangle_8,-2,-14,1,0,0,1,-2,-14,1,0,0,4,0,4,0,1,,,,,,,,,,,,,,,,,,,,,,,,,,,,,,,,,,,,,,,,,,,,,,,,,,,,,,,,,,,,,,,,,,,,,,,,,,,,,,,,,,,,,,,,,,,,,,,,,,,,,,,,,,,,,,,,
,,,,,,5ee0a607b1d0693f75003f64,62c53a3f6fbbb58e9db4e16e,2022-07-06_10h31.24.391,Colour_Asymmetry_Pilot,2022.1.3,Win32,60.55468088,62c50e9c1127f2cd403a315f,,,,,,,,,,,,,,,,,,,"[0.34099999999999997,0.12939999999999996,-0.9766]",threefour,"[-0.5452,-0.608,0.2470000000000001]",-4,1.7346,-30,106,1,0,0,response7disk_5,12,-4,1,0,0,rectangle_8,12,-4,1,0,0,1,12,-4,1,0,0,5,0,5,0,1,,,,,,,,,,,,,,,,,,,,,,,,,,,,,,,,,,,,,,,,,,,,,,,,,,,,,,,,,,,,,,,,,,,,,,,,,,,,,,,,,,,,,,,,,,,,,,,,,,,,,,,,,,,,,,,,
,,,,,,5ee0a607b1d0693f75003f64,62c53a3f6fbbb58e9db4e16e,2022-07-06_10h31.24.391,Colour_Asymmetry_Pilot,2022.1.3,Win32,60.55468088,62c50e9c1127f2cd403a315f,,,,,,,,,,,,,,,,,,,"[-0.24719999999999998,-0.0354000000000001,0.3175999999999999]",onetwo,"[-0.30200000000000005,0.14500000000000002,0.2784]",3,2.8016,118,42,1,0,0,response1disk_5,6,4,1,0,0,rectangle_8,6,4,1,0,0,1,6,4,1,0,0,6,0,6,0,1,,,,,,,,,,,,,,,,,,,,,,,,,,,,,,,,,,,,,,,,,,,,,,,,,,,,,,,,,,,,,,,,,,,,,,,,,,,,,,,,,,,,,,,,,,,,,,,,,,,,,,,,,,,,,,,,
,,,,,,5ee0a607b1d0693f75003f64,62c53a3f6fbbb58e9db4e16e,2022-07-06_10h31.24.391,Colour_Asymmetry_Pilot,2022.1.3,Win32,60.55468088,62c50e9c1127f2cd403a315f,,,,,,,,,,,,,,,,,,,,onetwo,,4,2.2028,,,,,,,,,,,,,,,,,,,,,,,,,,,,,,,,space,3.5709,"[0.9213999999999998,0.6391999999999998,-0.9922]","[-0.2942,-0.7648,-0.7492000000000001]",39,109,1,0,0,response1disk,5,-6,1,0,0,rectangle,5,-6,1,0,0,,2,0.0033,0,5,-6,1,0,0,0,0,0,49,1,49,first,,,,,,,,,,,,,,,,,,,,,,,,,,,,,,,,,,,,,,,,,,,,,,,,,,,,,,,,,,,,,,,,,,,,,,,,
,,,,,,5ee0a607b1d0693f75003f64,62c53a3f6fbbb58e9db4e16e,2022-07-06_10h31.24.391,Colour_Asymmetry_Pilot,2022.1.3,Win32,60.55468088,62c50e9c1127f2cd403a315f,,,,,,,,,,,,,,,,,,,,fourthree,,4,1.8857,,,,,,,,,,,,,,,,,,,,,,,,,,,,,,,,,,"[0.7018,0.7176,0.6155999999999999]","[-0.7412000000000001,-0.08239999999999992,-0.6864]",55,123,1,0,0,response1disk,-4,-1,1,0,0,rectangle,-4,-1,1,0,0,,3,0.0005,0,-4,-1,1,0,0,0,1,1,28,1,28,first,,,,,,,,,,,,,,,,,,,,,,,,,,,,,,,,,,,,,,,,,,,,,,,,,,,,,,,,,,,,,,,,,,,,,,,,
,,,,,,5ee0a607b1d0693f75003f64,62c53a3f6fbbb58e9db4e16e,2022-07-06_10h31.24.391,Colour_Asymmetry_Pilot,2022.1.3,Win32,60.55468088,62c50e9c1127f2cd403a315f,,,,,,,,,,,,,,,,,,,,threeone,,3,2.4681,,,,,,,,,,,,,,,,,,,,,,,,,,,,,,,,,,"[0.7176,-0.906,-0.6864]","[-0.6706000000000001,-0.6157999999999999,-0.6786]",121,51,1,0,0,response1disk,-16,3,1,0,0,rectangle,46,-123,1,0,0,1,1,2.7187,1,3,11,1,0,0,0,2,2,36,1,36,first,response3disk_3,rectangle,,,,,,,,,,,,,,,,,,,,,,,,,,,,,,,,,,,,,,,,,,,,,,,,,,,,,,,,,,,,,,,,,,,,,,
,,,,,,5ee0a607b1d0693f75003f64,62c53a3f6fbbb58e9db4e16e,2022-07-06_10h31.24.391,Colour_Asymmetry_Pilot,2022.1.3,Win32,60.55468088,62c50e9c1127f2cd403a315f,,,,,,,,,,,,,,,,,,,,onetwo,,3,2.5523,,,,,,,,,,,,,,,,,,,,,,,,,,,,,,,,,,"[-0.34920000000000007,-0.702,-0.5216]","[0.6625999999999999,0.4980000000000002,-0.357]",117,48,1,0,0,response1disk,-11,5.5,1,0,0,rectangle,-11,5.5,1,0,0,1,3,0.0029,0,-11,5.5,1,0,0,0,3,3,74,1,74,first,,,,,,,,,,,,,,,,,,,,,,,,,,,,,,,,,,,,,,,,,,,,,,,,,,,,,,,,,,,,,,,,,,,,,,,,
,,,,,,5ee0a607b1d0693f75003f64,62c53a3f6fbbb58e9db4e16e,2022-07-06_10h31.24.391,Colour_Asymmetry_Pilot,2022.1.3,Win32,60.55468088,62c50e9c1127f2cd403a315f,,,,,,,,,,,,,,,,,,,,fourtwo,,2,1.7684,,,,,,,,,,,,,,,,,,,,,,,,,,,,,,,,,,"[-0.011800000000000033,-0.906,-0.45100000000000007]","[-0.5688,-0.08239999999999992,-0.1844]",110,-46.5,1,0,0,response3disk,16,-4.5,1,0,0,rectangle,16,-4.5,1,0,0,1,2,0.0015,0,16,-4.5,1,0,0,0,4,4,66,1,66,first,,,,,,,,,,,,,,,,,,,,,,,,,,,,,,,,,,,,,,,,,,,,,,,,,,,,,,,,,,,,,,,,,,,,,,,,
,,,,,,5ee0a607b1d0693f75003f64,62c53a3f6fbbb58e9db4e16e,2022-07-06_10h31.24.391,Colour_Asymmetry_Pilot,2022.1.3,Win32,60.55468088,62c50e9c1127f2cd403a315f,,,,,,,,,,,,,,,,,,,,onetwo,,3,3.6521,,,,,,,,,,,,,,,,,,,,,,,,,,,,,,,,,,"[-0.10599999999999998,-0.15300000000000002,0.15280000000000005]","[-0.8982,-0.37259999999999993,0.2784]",125,44.5,1,0,0,response1disk,-10,-3.5,1,0,0,rectangle,-10,-3.5,1,0,0,1,3,0.0004,0,-10,-3.5,1,0,0,0,5,5,83,1,2,second,,,,,,,,,,,,,,,,,,,,,,,,,,,,,,,,,,,,,,,,,,,,,,,,,,,,,,,,,,,,,,,,,,,,,,,,
,,,,,,5ee0a607b1d0693f75003f64,62c53a3f6fbbb58e9db4e16e,2022-07-06_10h31.24.391,Colour_Asymmetry_Pilot,2022.1.3,Win32,60.55468088,62c50e9c1127f2cd403a315f,,,,,,,,,,,,,,,,,,,,threeone,,-4,0.9675,,,,,,,,,,,,,,,,,,,,,,,,,,,,,,,,,,"[-0.34920000000000007,-0.702,-0.5216]","[0.9372,0.9450000000000001,0.8980000000000001]",-50,102.5,1,0,0,response7disk,8,-17.5,1,0,0,rectangle,8,-17.5,1,0,0,1,2,0.001,0,8,-17.5,1,0,0,0,6,6,106,1,25,second,,,,,,,,,,,,,,,,,,,,,,,,,,,,,,,,,,,,,,,,,,,,,,,,,,,,,,,,,,,,,,,,,,,,,,,,
,,,,,,5ee0a607b1d0693f75003f64,62c53a3f6fbbb58e9db4e16e,2022-07-06_10h31.24.391,Colour_Asymmetry_Pilot,2022.1.3,Win32,60.55468088,62c50e9c1127f2cd403a315f,,,,,,,,,,,,,,,,,,,,twoone,,2,1.6184,,,,,,,,,,,,,,,,,,,,,,,,,,,,,,,,,,"[-0.30200000000000005,0.14500000000000002,0.2784]","[-0.9688,-0.7412000000000001,-0.4902000000000001]",121,-38.5,1,0,0,response3disk,12,3.5,1,0,0,rectangle,12,3.5,1,0,0,1,1,0.0005,0,12,3.5,1,0,0,0,7,7,84,1,3,second,,,,,,,,,,,,,,,,,,,,,,,,,,,,,,,,,,,,,,,,,,,,,,,,,,,,,,,,,,,,,,,,,,,,,,,,
,,,,,,5ee0a607b1d0693f75003f64,62c53a3f6fbbb58e9db4e16e,2022-07-06_10h31.24.391,Colour_Asymmetry_Pilot,2022.1.3,Win32,60.55468088,62c50e9c1127f2cd403a315f,,,,,,,,,,,,,,,,,,,,twoone,,-4,0.7174,,,,,,,,,,,,,,,,,,,,,,,,,,,,,,,,,,"[-0.5452,-0.608,0.2470000000000001]","[1,0.12939999999999996,-1]",-44,104.5,1,0,0,response7disk,6,-8.5,1,0,0,rectangle,6,-8.5,1,0,0,1,1,0.0001,0,6,-8.5,1,0,0,0,8,8,69,1,69,first,,,,,,,,,,,,,,,,,,,,,,,,,,,,,,,,,,,,,,,,,,,,,,,,,,,,,,,,,,,,,,,,,,,,,,,,
,,,,,,5ee0a607b1d0693f75003f64,62c53a3f6fbbb58e9db4e16e,2022-07-06_10h31.24.391,Colour_Asymmetry_Pilot,2022.1.3,Win32,60.55468088,62c50e9c1127f2cd403a315f,,,,,,,,,,,,,,,,,,,,fourthree,,3,1.8352,,,,,,,,,,,,,,,,,,,,,,,,,,,,,,,,,,"[0.3881999999999999,-0.23939999999999995,-0.05040000000000011]","[-0.20799999999999996,-0.655,-0.01980000000000004]",123,41.5,1,0,0,response1disk,10,-2.5,1,0,0,rectangle,10,-2.5,1,0,0,1,1,0.0003,0,10,-2.5,1,0,0,0,9,9,138,1,57,second,,,,,,,,,,,,,,,,,,,,,,,,,,,,,,,,,,,,,,,,,,,,,,,,,,,,,,,,,,,,,,,,,,,,,,,,
,,,,,,5ee0a607b1d0693f75003f64,62c53a3f6fbbb58e9db4e16e,2022-07-06_10h31.24.391,Colour_Asymmetry_Pilot,2022.1.3,Win32,60.55468088,62c50e9c1127f2cd403a315f,,,,,,,,,,,,,,,,,,,,onetwo,,3,1.3339,,,,,,,,,,,,,,,,,,,,,,,,,,,,,,,,,,"[-0.2942,-0.7648,-0.7492000000000001]","[0.7802,-0.23140000000000005,-0.20799999999999996]",128,48.5,1,0,0,response1disk,-5,-5.5,1,0,0,rectangle,139,61,1,0,0,3,3,5.3865,1,9,0,1,0,0,0,10,10,104,1,23,second,response1disk_3,rectangle,,,,,,,,,,,,,,,,,,,,,,,,,,,,,,,,,,,,,,,,,,,,,,,,,,,,,,,,,,,,,,,,,,,,,,
,,,,,,5ee0a607b1d0693f75003f64,62c53a3f6fbbb58e9db4e16e,2022-07-06_10h31.24.391,Colour_Asymmetry_Pilot,2022.1.3,Win32,60.55468088,62c50e9c1127f2cd403a315f,,,,,,,,,,,,,,,,,,,,fourtwo,,2,0.7497,,,,,,,,,,,,,,,,,,,,,,,,,,,,,,,,,,"[-0.9688,-0.4902000000000001,-0.12159999999999993]","[0.2862,0.7802,0.3568]",90,-58,1,0,0,response3disk,6,0,1,0,0,rectangle,6,0,1,0,0,3,3,0.0023,0,6,0,1,0,0,0,11,11,153,1,72,second,,,,,,,,,,,,,,,,,,,,,,,,,,,,,,,,,,,,,,,,,,,,,,,,,,,,,,,,,,,,,,,,,,,,,,,,
,,,,,,5ee0a607b1d0693f75003f64,62c53a3f6fbbb58e9db4e16e,2022-07-06_10h31.24.391,Colour_Asymmetry_Pilot,2022.1.3,Win32,60.55468088,62c50e9c1127f2cd403a315f,,,,,,,,,,,,,,,,,,,,twofour,,-3,1.2514,,,,,,,,,,,,,,,,,,,,,,,,,,,,,,,,,,"[-0.9688,-0.38039999999999996,-0.41979999999999995]","[0.9686000000000001,0.5763999999999998,0.11359999999999992]",-113,41,1,0,0,response7disk,3,0,1,0,0,rectangle,3,0,1,0,0,3,2,0.0006,0,3,0,1,0,0,0,12,12,81,1,0,second,,,,,,,,,,,,,,,,,,,,,,,,,,,,,,,,,,,,,,,,,,,,,,,,,,,,,,,,,,,,,,,,,,,,,,,,
,,,,,,5ee0a607b1d0693f75003f64,62c53a3f6fbbb58e9db4e16e,2022-07-06_10h31.24.391,Colour_Asymmetry_Pilot,2022.1.3,Win32,60.55468088,62c50e9c1127f2cd403a315f,,,,,,,,,,,,,,,,,,,,threeone,,3,1.9342,,,,,,,,,,,,,,,,,,,,,,,,,,,,,,,,,,"[0.9213999999999998,0.6391999999999998,-0.9922]","[0.04299999999999993,0.16060000000000008,-0.6628000000000001]",138,54,1,0,0,response1disk,9,0,1,0,0,rectangle,9,0,1,0,0,3,1,0.0011,0,9,0,1,0,0,0,13,13,141,1,60,second,,,,,,,,,,,,,,,,,,,,,,,,,,,,,,,,,,,,,,,,,,,,,,,,,,,,,,,,,,,,,,,,,,,,,,,,
,,,,,,5ee0a607b1d0693f75003f64,62c53a3f6fbbb58e9db4e16e,2022-07-06_10h31.24.391,Colour_Asymmetry_Pilot,2022.1.3,Win32,60.55468088,62c50e9c1127f2cd403a315f,,,,,,,,,,,,,,,,,,,,fourtwo,,-2,2.0353,,,,,,,,,,,,,,,,,,,,,,,,,,,,,,,,,,"[0.9763999999999999,0.8588,-0.05900000000000005]","[0.18419999999999992,-0.4276,-0.404]",-94,-51,1,0,0,response5disk,-2,-5,1,0,0,rectangle,-2,-5,1,0,0,3,2,0.0004,0,-2,-5,1,0,0,0,14,14,42,1,42,first,,,,,,,,,,,,,,,,,,,,,,,,,,,,,,,,,,,,,,,,,,,,,,,,,,,,,,,,,,,,,,,,,,,,,,,,
,,,,,,5ee0a607b1d0693f75003f64,62c53a3f6fbbb58e9db4e16e,2022-07-06_10h31.24.391,Colour_Asymmetry_Pilot,2022.1.3,Win32,60.55468088,62c50e9c1127f2cd403a315f,,,,,,,,,,,,,,,,,,,,twofour,,2,3.9537,,,,,,,,,,,,,,,,,,,,,,,,,,,,,,,,,,"[0.6625999999999999,0.4980000000000002,-0.357]","[-0.0040000000000000036,0.02739999999999987,-0.08239999999999992]",76,-41,1,0,0,response3disk,-10,2,1,0,0,rectangle,-10,2,1,0,0,3,2,1E-04,0,-10,2,1,0,0,0,15,15,78,1,78,first,,,,,,,,,,,,,,,,,,,,,,,,,,,,,,,,,,,,,,,,,,,,,,,,,,,,,,,,,,,,,,,,,,,,,,,,
,,,,,,5ee0a607b1d0693f75003f64,62c53a3f6fbbb58e9db4e16e,2022-07-06_10h31.24.391,Colour_Asymmetry_Pilot,2022.1.3,Win32,60.55468088,62c50e9c1127f2cd403a315f,,,,,,,,,,,,,,,,,,,,twofour,,4,0.6662,,,,,,,,,,,,,,,,,,,,,,,,,,,,,,,,,,"[-0.8982,-0.37259999999999993,0.2784]","[-0.9766,-0.34920000000000007,0.2156]",59,129,1,0,0,response1disk,-19,1,1,0,0,rectangle,-19,1,1,0,0,3,1,0.0006,0,-19,1,1,0,0,0,16,16,80,1,80,first,,,,,,,,,,,,,,,,,,,,,,,,,,,,,,,,,,,,,,,,,,,,,,,,,,,,,,,,,,,,,,,,,,,,,,,,
,,,,,,5ee0a607b1d0693f75003f64,62c53a3f6fbbb58e9db4e16e,2022-07-06_10h31.24.391,Colour_Asymmetry_Pilot,2022.1.3,Win32,60.55468088,62c50e9c1127f2cd403a315f,,,,,,,,,,,,,,,,,,,,threefour,,1,1.8348,,,,,,,,,,,,,,,,,,,,,,,,,,,,,,,,,,"[-0.38039999999999996,-0.4276,-0.1452]","[-0.45899999999999996,-0.3256,-0.9374]",66,-104,1,0,0,response3disk,2,5,1,0,0,rectangle,2,5,1,0,0,3,2,0.0006,0,2,5,1,0,0,0,17,17,101,1,20,second,,,,,,,,,,,,,,,,,,,,,,,,,,,,,,,,,,,,,,,,,,,,,,,,,,,,,,,,,,,,,,,,,,,,,,,,
