trials.thisRepN,trials.thisTrialN,trials.thisN,trials.thisIndex,trials.ran,Colourcodes,participant,session,date,expName,psychopyVersion,OS,frameRate,study_id,trials_4.thisRepN,trials_4.thisTrialN,trials_4.thisN,trials_4.thisIndex,trials_4.ran,StimulusPos,key_resp.keys,key_resp.rt,key_resp_2.keys,key_resp_2.rt,key_resp_15.keys,key_resp_15.rt,key_resp_17.keys,key_resp_17.rt,key_resp_9.keys,key_resp_9.rt,key_resp_10.keys,key_resp_10.rt,Circle1_col,Ecc,Circle2_col,similarity,response_time,mouse_5.x,mouse_5.y,mouse_5.leftButton,mouse_5.midButton,mouse_5.rightButton,mouse_5.clicked_name,mouse_10.x,mouse_10.y,mouse_10.leftButton,mouse_10.midButton,mouse_10.rightButton,mouse_10.clicked_name,mouse_7.x,mouse_7.y,mouse_7.leftButton,mouse_7.midButton,mouse_7.rightButton,catchnumberprac,mouse_6.x,mouse_6.y,mouse_6.leftButton,mouse_6.midButton,mouse_6.rightButton,duringprac.thisRepN,duringprac.thisTrialN,duringprac.thisN,duringprac.thisIndex,duringprac.ran,mouse_7.clicked_name,catchprac,mouse_6.clicked_name,key_resp_22.keys,key_resp_22.rt,Circle1_colour,Circle2_colour,mouse.x,mouse.y,mouse.leftButton,mouse.midButton,mouse.rightButton,mouse.clicked_name,mouse_2.x,mouse_2.y,mouse_2.leftButton,mouse_2.midButton,mouse_2.rightButton,mouse_2.clicked_name,mouse_3.x,mouse_3.y,mouse_3.leftButton,mouse_3.midButton,mouse_3.rightButton,catchresponse,catchnumber,response_time_catch,Catch,mouse_11.x,mouse_11.y,mouse_11.leftButton,mouse_11.midButton,mouse_11.rightButton,trials_2.thisRepN,trials_2.thisTrialN,trials_2.thisN,trials_2.thisIndex,trials_2.ran,Colourpair,Temporder,mouse_3.clicked_name,mouse_11.clicked_name,trials_3.thisRepN,trials_3.thisTrialN,trials_3.thisN,trials_3.thisIndex,trials_3.ran,key_resp_instr_Ishi.keys,key_resp_instr_Ishi.rt,Ishi_trial_keyresp.keys,Ishi_textbox.text,Ishi_mouse.x,Ishi_mouse.y,Ishi_mouse.leftButton,Ishi_mouse.midButton,Ishi_mouse.rightButton,Ishi_mouse.clicked_name,Ishi_loop.thisRepN,Ishi_loop.thisTrialN,Ishi_loop.thisN,Ishi_loop.thisIndex,Ishi_loop.ran,imageaddress,textbox.text,mouse_4.x,mouse_4.y,mouse_4.leftButton,mouse_4.midButton,mouse_4.rightButton,mouse_4.clicked_name,textbox_2.text,mouse_8.x,mouse_8.y,mouse_8.leftButton,mouse_8.midButton,mouse_8.rightButton,mouse_8.clicked_name,textbox_3.text,mouse_9.x,mouse_9.y,mouse_9.leftButton,mouse_9.midButton,mouse_9.rightButton,mouse_9.clicked_name,textbox_4.text,mouse_12.x,mouse_12.y,mouse_12.leftButton,mouse_12.midButton,mouse_12.rightButton,mouse_12.clicked_name,textbox_5.text,mouse_13.x,mouse_13.y,mouse_13.leftButton,mouse_13.midButton,mouse_13.rightButton,mouse_13.clicked_name,textbox_6.text,mouse_14.x,mouse_14.y,mouse_14.leftButton,mouse_14.midButton,mouse_14.rightButton,mouse_14.clicked_name,textbox_7.text,mouse_15.x,mouse_15.y,mouse_15.leftButton,mouse_15.midButton,mouse_15.rightButton,mouse_15.clicked_name
0,0,0,49,1,,615513578b8c1d40dcec3b25,62c539d01ea850893376a8dc,2022-07-06_24h29.51.491,Colour_Asymmetry_Pilot,2022.1.3,Win32,60.43756799,62c50e9c1127f2cd403a315f,,,,,,,,,,,,,,,,,,,,,,,,,,,,,,,,,,,,,,,,,,,,,,,,,,,,,,,,,,,,,,,,,,,,,,,,,,,,,,,,,,,,,,,,,,,,,,,,,,,,,,,,,,,,,,,,,,,,,,,,,,,,,,,,,,,,,,,,,,,,,,,,,,,,,,,,,,,,,,,,,,,
0,1,1,69,1,,615513578b8c1d40dcec3b25,62c539d01ea850893376a8dc,2022-07-06_24h29.51.491,Colour_Asymmetry_Pilot,2022.1.3,Win32,60.43756799,62c50e9c1127f2cd403a315f,,,,,,,,,,,,,,,,,,,,,,,,,,,,,,,,,,,,,,,,,,,,,,,,,,,,,,,,,,,,,,,,,,,,,,,,,,,,,,,,,,,,,,,,,,,,,,,,,,,,,,,,,,,,,,,,,,,,,,,,,,,,,,,,,,,,,,,,,,,,,,,,,,,,,,,,,,,,,,,,,,,
0,2,2,34,1,,615513578b8c1d40dcec3b25,62c539d01ea850893376a8dc,2022-07-06_24h29.51.491,Colour_Asymmetry_Pilot,2022.1.3,Win32,60.43756799,62c50e9c1127f2cd403a315f,,,,,,,,,,,,,,,,,,,,,,,,,,,,,,,,,,,,,,,,,,,,,,,,,,,,,,,,,,,,,,,,,,,,,,,,,,,,,,,,,,,,,,,,,,,,,,,,,,,,,,,,,,,,,,,,,,,,,,,,,,,,,,,,,,,,,,,,,,,,,,,,,,,,,,,,,,,,,,,,,,,
0,3,3,11,1,,615513578b8c1d40dcec3b25,62c539d01ea850893376a8dc,2022-07-06_24h29.51.491,Colour_Asymmetry_Pilot,2022.1.3,Win32,60.43756799,62c50e9c1127f2cd403a315f,,,,,,,,,,,,,,,,,,,,,,,,,,,,,,,,,,,,,,,,,,,,,,,,,,,,,,,,,,,,,,,,,,,,,,,,,,,,,,,,,,,,,,,,,,,,,,,,,,,,,,,,,,,,,,,,,,,,,,,,,,,,,,,,,,,,,,,,,,,,,,,,,,,,,,,,,,,,,,,,,,,
0,4,4,75,1,,615513578b8c1d40dcec3b25,62c539d01ea850893376a8dc,2022-07-06_24h29.51.491,Colour_Asymmetry_Pilot,2022.1.3,Win32,60.43756799,62c50e9c1127f2cd403a315f,,,,,,,,,,,,,,,,,,,,,,,,,,,,,,,,,,,,,,,,,,,,,,,,,,,,,,,,,,,,,,,,,,,,,,,,,,,,,,,,,,,,,,,,,,,,,,,,,,,,,,,,,,,,,,,,,,,,,,,,,,,,,,,,,,,,,,,,,,,,,,,,,,,,,,,,,,,,,,,,,,,
0,5,5,22,1,,615513578b8c1d40dcec3b25,62c539d01ea850893376a8dc,2022-07-06_24h29.51.491,Colour_Asymmetry_Pilot,2022.1.3,Win32,60.43756799,62c50e9c1127f2cd403a315f,,,,,,,,,,,,,,,,,,,,,,,,,,,,,,,,,,,,,,,,,,,,,,,,,,,,,,,,,,,,,,,,,,,,,,,,,,,,,,,,,,,,,,,,,,,,,,,,,,,,,,,,,,,,,,,,,,,,,,,,,,,,,,,,,,,,,,,,,,,,,,,,,,,,,,,,,,,,,,,,,,,
0,6,6,55,1,,615513578b8c1d40dcec3b25,62c539d01ea850893376a8dc,2022-07-06_24h29.51.491,Colour_Asymmetry_Pilot,2022.1.3,Win32,60.43756799,62c50e9c1127f2cd403a315f,,,,,,,,,,,,,,,,,,,,,,,,,,,,,,,,,,,,,,,,,,,,,,,,,,,,,,,,,,,,,,,,,,,,,,,,,,,,,,,,,,,,,,,,,,,,,,,,,,,,,,,,,,,,,,,,,,,,,,,,,,,,,,,,,,,,,,,,,,,,,,,,,,,,,,,,,,,,,,,,,,,
0,7,7,81,1,,615513578b8c1d40dcec3b25,62c539d01ea850893376a8dc,2022-07-06_24h29.51.491,Colour_Asymmetry_Pilot,2022.1.3,Win32,60.43756799,62c50e9c1127f2cd403a315f,,,,,,,,,,,,,,,,,,,,,,,,,,,,,,,,,,,,,,,,,,,,,,,,,,,,,,,,,,,,,,,,,,,,,,,,,,,,,,,,,,,,,,,,,,,,,,,,,,,,,,,,,,,,,,,,,,,,,,,,,,,,,,,,,,,,,,,,,,,,,,,,,,,,,,,,,,,,,,,,,,,
0,8,8,39,1,,615513578b8c1d40dcec3b25,62c539d01ea850893376a8dc,2022-07-06_24h29.51.491,Colour_Asymmetry_Pilot,2022.1.3,Win32,60.43756799,62c50e9c1127f2cd403a315f,,,,,,,,,,,,,,,,,,,,,,,,,,,,,,,,,,,,,,,,,,,,,,,,,,,,,,,,,,,,,,,,,,,,,,,,,,,,,,,,,,,,,,,,,,,,,,,,,,,,,,,,,,,,,,,,,,,,,,,,,,,,,,,,,,,,,,,,,,,,,,,,,,,,,,,,,,,,,,,,,,,
0,9,9,44,1,,615513578b8c1d40dcec3b25,62c539d01ea850893376a8dc,2022-07-06_24h29.51.491,Colour_Asymmetry_Pilot,2022.1.3,Win32,60.43756799,62c50e9c1127f2cd403a315f,,,,,,,,,,,,,,,,,,,,,,,,,,,,,,,,,,,,,,,,,,,,,,,,,,,,,,,,,,,,,,,,,,,,,,,,,,,,,,,,,,,,,,,,,,,,,,,,,,,,,,,,,,,,,,,,,,,,,,,,,,,,,,,,,,,,,,,,,,,,,,,,,,,,,,,,,,,,,,,,,,,
0,10,10,51,1,,615513578b8c1d40dcec3b25,62c539d01ea850893376a8dc,2022-07-06_24h29.51.491,Colour_Asymmetry_Pilot,2022.1.3,Win32,60.43756799,62c50e9c1127f2cd403a315f,,,,,,,,,,,,,,,,,,,,,,,,,,,,,,,,,,,,,,,,,,,,,,,,,,,,,,,,,,,,,,,,,,,,,,,,,,,,,,,,,,,,,,,,,,,,,,,,,,,,,,,,,,,,,,,,,,,,,,,,,,,,,,,,,,,,,,,,,,,,,,,,,,,,,,,,,,,,,,,,,,,
0,11,11,42,1,,615513578b8c1d40dcec3b25,62c539d01ea850893376a8dc,2022-07-06_24h29.51.491,Colour_Asymmetry_Pilot,2022.1.3,Win32,60.43756799,62c50e9c1127f2cd403a315f,,,,,,,,,,,,,,,,,,,,,,,,,,,,,,,,,,,,,,,,,,,,,,,,,,,,,,,,,,,,,,,,,,,,,,,,,,,,,,,,,,,,,,,,,,,,,,,,,,,,,,,,,,,,,,,,,,,,,,,,,,,,,,,,,,,,,,,,,,,,,,,,,,,,,,,,,,,,,,,,,,,
0,12,12,63,1,,615513578b8c1d40dcec3b25,62c539d01ea850893376a8dc,2022-07-06_24h29.51.491,Colour_Asymmetry_Pilot,2022.1.3,Win32,60.43756799,62c50e9c1127f2cd403a315f,,,,,,,,,,,,,,,,,,,,,,,,,,,,,,,,,,,,,,,,,,,,,,,,,,,,,,,,,,,,,,,,,,,,,,,,,,,,,,,,,,,,,,,,,,,,,,,,,,,,,,,,,,,,,,,,,,,,,,,,,,,,,,,,,,,,,,,,,,,,,,,,,,,,,,,,,,,,,,,,,,,
0,13,13,76,1,,615513578b8c1d40dcec3b25,62c539d01ea850893376a8dc,2022-07-06_24h29.51.491,Colour_Asymmetry_Pilot,2022.1.3,Win32,60.43756799,62c50e9c1127f2cd403a315f,,,,,,,,,,,,,,,,,,,,,,,,,,,,,,,,,,,,,,,,,,,,,,,,,,,,,,,,,,,,,,,,,,,,,,,,,,,,,,,,,,,,,,,,,,,,,,,,,,,,,,,,,,,,,,,,,,,,,,,,,,,,,,,,,,,,,,,,,,,,,,,,,,,,,,,,,,,,,,,,,,,
0,14,14,65,1,,615513578b8c1d40dcec3b25,62c539d01ea850893376a8dc,2022-07-06_24h29.51.491,Colour_Asymmetry_Pilot,2022.1.3,Win32,60.43756799,62c50e9c1127f2cd403a315f,,,,,,,,,,,,,,,,,,,,,,,,,,,,,,,,,,,,,,,,,,,,,,,,,,,,,,,,,,,,,,,,,,,,,,,,,,,,,,,,,,,,,,,,,,,,,,,,,,,,,,,,,,,,,,,,,,,,,,,,,,,,,,,,,,,,,,,,,,,,,,,,,,,,,,,,,,,,,,,,,,,
0,15,15,19,1,,615513578b8c1d40dcec3b25,62c539d01ea850893376a8dc,2022-07-06_24h29.51.491,Colour_Asymmetry_Pilot,2022.1.3,Win32,60.43756799,62c50e9c1127f2cd403a315f,,,,,,,,,,,,,,,,,,,,,,,,,,,,,,,,,,,,,,,,,,,,,,,,,,,,,,,,,,,,,,,,,,,,,,,,,,,,,,,,,,,,,,,,,,,,,,,,,,,,,,,,,,,,,,,,,,,,,,,,,,,,,,,,,,,,,,,,,,,,,,,,,,,,,,,,,,,,,,,,,,,
0,16,16,83,1,,615513578b8c1d40dcec3b25,62c539d01ea850893376a8dc,2022-07-06_24h29.51.491,Colour_Asymmetry_Pilot,2022.1.3,Win32,60.43756799,62c50e9c1127f2cd403a315f,,,,,,,,,,,,,,,,,,,,,,,,,,,,,,,,,,,,,,,,,,,,,,,,,,,,,,,,,,,,,,,,,,,,,,,,,,,,,,,,,,,,,,,,,,,,,,,,,,,,,,,,,,,,,,,,,,,,,,,,,,,,,,,,,,,,,,,,,,,,,,,,,,,,,,,,,,,,,,,,,,,
0,17,17,84,1,,615513578b8c1d40dcec3b25,62c539d01ea850893376a8dc,2022-07-06_24h29.51.491,Colour_Asymmetry_Pilot,2022.1.3,Win32,60.43756799,62c50e9c1127f2cd403a315f,,,,,,,,,,,,,,,,,,,,,,,,,,,,,,,,,,,,,,,,,,,,,,,,,,,,,,,,,,,,,,,,,,,,,,,,,,,,,,,,,,,,,,,,,,,,,,,,,,,,,,,,,,,,,,,,,,,,,,,,,,,,,,,,,,,,,,,,,,,,,,,,,,,,,,,,,,,,,,,,,,,
0,18,18,33,1,,615513578b8c1d40dcec3b25,62c539d01ea850893376a8dc,2022-07-06_24h29.51.491,Colour_Asymmetry_Pilot,2022.1.3,Win32,60.43756799,62c50e9c1127f2cd403a315f,,,,,,,,,,,,,,,,,,,,,,,,,,,,,,,,,,,,,,,,,,,,,,,,,,,,,,,,,,,,,,,,,,,,,,,,,,,,,,,,,,,,,,,,,,,,,,,,,,,,,,,,,,,,,,,,,,,,,,,,,,,,,,,,,,,,,,,,,,,,,,,,,,,,,,,,,,,,,,,,,,,
0,19,19,60,1,,615513578b8c1d40dcec3b25,62c539d01ea850893376a8dc,2022-07-06_24h29.51.491,Colour_Asymmetry_Pilot,2022.1.3,Win32,60.43756799,62c50e9c1127f2cd403a315f,,,,,,,,,,,,,,,,,,,,,,,,,,,,,,,,,,,,,,,,,,,,,,,,,,,,,,,,,,,,,,,,,,,,,,,,,,,,,,,,,,,,,,,,,,,,,,,,,,,,,,,,,,,,,,,,,,,,,,,,,,,,,,,,,,,,,,,,,,,,,,,,,,,,,,,,,,,,,,,,,,,
0,20,20,67,1,,615513578b8c1d40dcec3b25,62c539d01ea850893376a8dc,2022-07-06_24h29.51.491,Colour_Asymmetry_Pilot,2022.1.3,Win32,60.43756799,62c50e9c1127f2cd403a315f,,,,,,,,,,,,,,,,,,,,,,,,,,,,,,,,,,,,,,,,,,,,,,,,,,,,,,,,,,,,,,,,,,,,,,,,,,,,,,,,,,,,,,,,,,,,,,,,,,,,,,,,,,,,,,,,,,,,,,,,,,,,,,,,,,,,,,,,,,,,,,,,,,,,,,,,,,,,,,,,,,,
0,21,21,64,1,,615513578b8c1d40dcec3b25,62c539d01ea850893376a8dc,2022-07-06_24h29.51.491,Colour_Asymmetry_Pilot,2022.1.3,Win32,60.43756799,62c50e9c1127f2cd403a315f,,,,,,,,,,,,,,,,,,,,,,,,,,,,,,,,,,,,,,,,,,,,,,,,,,,,,,,,,,,,,,,,,,,,,,,,,,,,,,,,,,,,,,,,,,,,,,,,,,,,,,,,,,,,,,,,,,,,,,,,,,,,,,,,,,,,,,,,,,,,,,,,,,,,,,,,,,,,,,,,,,,
0,22,22,92,1,,615513578b8c1d40dcec3b25,62c539d01ea850893376a8dc,2022-07-06_24h29.51.491,Colour_Asymmetry_Pilot,2022.1.3,Win32,60.43756799,62c50e9c1127f2cd403a315f,,,,,,,,,,,,,,,,,,,,,,,,,,,,,,,,,,,,,,,,,,,,,,,,,,,,,,,,,,,,,,,,,,,,,,,,,,,,,,,,,,,,,,,,,,,,,,,,,,,,,,,,,,,,,,,,,,,,,,,,,,,,,,,,,,,,,,,,,,,,,,,,,,,,,,,,,,,,,,,,,,,
0,23,23,52,1,,615513578b8c1d40dcec3b25,62c539d01ea850893376a8dc,2022-07-06_24h29.51.491,Colour_Asymmetry_Pilot,2022.1.3,Win32,60.43756799,62c50e9c1127f2cd403a315f,,,,,,,,,,,,,,,,,,,,,,,,,,,,,,,,,,,,,,,,,,,,,,,,,,,,,,,,,,,,,,,,,,,,,,,,,,,,,,,,,,,,,,,,,,,,,,,,,,,,,,,,,,,,,,,,,,,,,,,,,,,,,,,,,,,,,,,,,,,,,,,,,,,,,,,,,,,,,,,,,,,
0,24,24,17,1,,615513578b8c1d40dcec3b25,62c539d01ea850893376a8dc,2022-07-06_24h29.51.491,Colour_Asymmetry_Pilot,2022.1.3,Win32,60.43756799,62c50e9c1127f2cd403a315f,,,,,,,,,,,,,,,,,,,,,,,,,,,,,,,,,,,,,,,,,,,,,,,,,,,,,,,,,,,,,,,,,,,,,,,,,,,,,,,,,,,,,,,,,,,,,,,,,,,,,,,,,,,,,,,,,,,,,,,,,,,,,,,,,,,,,,,,,,,,,,,,,,,,,,,,,,,,,,,,,,,
0,25,25,15,1,,615513578b8c1d40dcec3b25,62c539d01ea850893376a8dc,2022-07-06_24h29.51.491,Colour_Asymmetry_Pilot,2022.1.3,Win32,60.43756799,62c50e9c1127f2cd403a315f,,,,,,,,,,,,,,,,,,,,,,,,,,,,,,,,,,,,,,,,,,,,,,,,,,,,,,,,,,,,,,,,,,,,,,,,,,,,,,,,,,,,,,,,,,,,,,,,,,,,,,,,,,,,,,,,,,,,,,,,,,,,,,,,,,,,,,,,,,,,,,,,,,,,,,,,,,,,,,,,,,,
0,26,26,54,1,,615513578b8c1d40dcec3b25,62c539d01ea850893376a8dc,2022-07-06_24h29.51.491,Colour_Asymmetry_Pilot,2022.1.3,Win32,60.43756799,62c50e9c1127f2cd403a315f,,,,,,,,,,,,,,,,,,,,,,,,,,,,,,,,,,,,,,,,,,,,,,,,,,,,,,,,,,,,,,,,,,,,,,,,,,,,,,,,,,,,,,,,,,,,,,,,,,,,,,,,,,,,,,,,,,,,,,,,,,,,,,,,,,,,,,,,,,,,,,,,,,,,,,,,,,,,,,,,,,,
0,27,27,45,1,,615513578b8c1d40dcec3b25,62c539d01ea850893376a8dc,2022-07-06_24h29.51.491,Colour_Asymmetry_Pilot,2022.1.3,Win32,60.43756799,62c50e9c1127f2cd403a315f,,,,,,,,,,,,,,,,,,,,,,,,,,,,,,,,,,,,,,,,,,,,,,,,,,,,,,,,,,,,,,,,,,,,,,,,,,,,,,,,,,,,,,,,,,,,,,,,,,,,,,,,,,,,,,,,,,,,,,,,,,,,,,,,,,,,,,,,,,,,,,,,,,,,,,,,,,,,,,,,,,,
0,28,28,9,1,,615513578b8c1d40dcec3b25,62c539d01ea850893376a8dc,2022-07-06_24h29.51.491,Colour_Asymmetry_Pilot,2022.1.3,Win32,60.43756799,62c50e9c1127f2cd403a315f,,,,,,,,,,,,,,,,,,,,,,,,,,,,,,,,,,,,,,,,,,,,,,,,,,,,,,,,,,,,,,,,,,,,,,,,,,,,,,,,,,,,,,,,,,,,,,,,,,,,,,,,,,,,,,,,,,,,,,,,,,,,,,,,,,,,,,,,,,,,,,,,,,,,,,,,,,,,,,,,,,,
0,29,29,58,1,,615513578b8c1d40dcec3b25,62c539d01ea850893376a8dc,2022-07-06_24h29.51.491,Colour_Asymmetry_Pilot,2022.1.3,Win32,60.43756799,62c50e9c1127f2cd403a315f,,,,,,,,,,,,,,,,,,,,,,,,,,,,,,,,,,,,,,,,,,,,,,,,,,,,,,,,,,,,,,,,,,,,,,,,,,,,,,,,,,,,,,,,,,,,,,,,,,,,,,,,,,,,,,,,,,,,,,,,,,,,,,,,,,,,,,,,,,,,,,,,,,,,,,,,,,,,,,,,,,,
0,30,30,73,1,,615513578b8c1d40dcec3b25,62c539d01ea850893376a8dc,2022-07-06_24h29.51.491,Colour_Asymmetry_Pilot,2022.1.3,Win32,60.43756799,62c50e9c1127f2cd403a315f,,,,,,,,,,,,,,,,,,,,,,,,,,,,,,,,,,,,,,,,,,,,,,,,,,,,,,,,,,,,,,,,,,,,,,,,,,,,,,,,,,,,,,,,,,,,,,,,,,,,,,,,,,,,,,,,,,,,,,,,,,,,,,,,,,,,,,,,,,,,,,,,,,,,,,,,,,,,,,,,,,,
0,31,31,56,1,,615513578b8c1d40dcec3b25,62c539d01ea850893376a8dc,2022-07-06_24h29.51.491,Colour_Asymmetry_Pilot,2022.1.3,Win32,60.43756799,62c50e9c1127f2cd403a315f,,,,,,,,,,,,,,,,,,,,,,,,,,,,,,,,,,,,,,,,,,,,,,,,,,,,,,,,,,,,,,,,,,,,,,,,,,,,,,,,,,,,,,,,,,,,,,,,,,,,,,,,,,,,,,,,,,,,,,,,,,,,,,,,,,,,,,,,,,,,,,,,,,,,,,,,,,,,,,,,,,,
0,32,32,32,1,,615513578b8c1d40dcec3b25,62c539d01ea850893376a8dc,2022-07-06_24h29.51.491,Colour_Asymmetry_Pilot,2022.1.3,Win32,60.43756799,62c50e9c1127f2cd403a315f,,,,,,,,,,,,,,,,,,,,,,,,,,,,,,,,,,,,,,,,,,,,,,,,,,,,,,,,,,,,,,,,,,,,,,,,,,,,,,,,,,,,,,,,,,,,,,,,,,,,,,,,,,,,,,,,,,,,,,,,,,,,,,,,,,,,,,,,,,,,,,,,,,,,,,,,,,,,,,,,,,,
0,33,33,6,1,,615513578b8c1d40dcec3b25,62c539d01ea850893376a8dc,2022-07-06_24h29.51.491,Colour_Asymmetry_Pilot,2022.1.3,Win32,60.43756799,62c50e9c1127f2cd403a315f,,,,,,,,,,,,,,,,,,,,,,,,,,,,,,,,,,,,,,,,,,,,,,,,,,,,,,,,,,,,,,,,,,,,,,,,,,,,,,,,,,,,,,,,,,,,,,,,,,,,,,,,,,,,,,,,,,,,,,,,,,,,,,,,,,,,,,,,,,,,,,,,,,,,,,,,,,,,,,,,,,,
0,34,34,20,1,,615513578b8c1d40dcec3b25,62c539d01ea850893376a8dc,2022-07-06_24h29.51.491,Colour_Asymmetry_Pilot,2022.1.3,Win32,60.43756799,62c50e9c1127f2cd403a315f,,,,,,,,,,,,,,,,,,,,,,,,,,,,,,,,,,,,,,,,,,,,,,,,,,,,,,,,,,,,,,,,,,,,,,,,,,,,,,,,,,,,,,,,,,,,,,,,,,,,,,,,,,,,,,,,,,,,,,,,,,,,,,,,,,,,,,,,,,,,,,,,,,,,,,,,,,,,,,,,,,,
0,35,35,4,1,,615513578b8c1d40dcec3b25,62c539d01ea850893376a8dc,2022-07-06_24h29.51.491,Colour_Asymmetry_Pilot,2022.1.3,Win32,60.43756799,62c50e9c1127f2cd403a315f,,,,,,,,,,,,,,,,,,,,,,,,,,,,,,,,,,,,,,,,,,,,,,,,,,,,,,,,,,,,,,,,,,,,,,,,,,,,,,,,,,,,,,,,,,,,,,,,,,,,,,,,,,,,,,,,,,,,,,,,,,,,,,,,,,,,,,,,,,,,,,,,,,,,,,,,,,,,,,,,,,,
0,36,36,90,1,,615513578b8c1d40dcec3b25,62c539d01ea850893376a8dc,2022-07-06_24h29.51.491,Colour_Asymmetry_Pilot,2022.1.3,Win32,60.43756799,62c50e9c1127f2cd403a315f,,,,,,,,,,,,,,,,,,,,,,,,,,,,,,,,,,,,,,,,,,,,,,,,,,,,,,,,,,,,,,,,,,,,,,,,,,,,,,,,,,,,,,,,,,,,,,,,,,,,,,,,,,,,,,,,,,,,,,,,,,,,,,,,,,,,,,,,,,,,,,,,,,,,,,,,,,,,,,,,,,,
0,37,37,35,1,,615513578b8c1d40dcec3b25,62c539d01ea850893376a8dc,2022-07-06_24h29.51.491,Colour_Asymmetry_Pilot,2022.1.3,Win32,60.43756799,62c50e9c1127f2cd403a315f,,,,,,,,,,,,,,,,,,,,,,,,,,,,,,,,,,,,,,,,,,,,,,,,,,,,,,,,,,,,,,,,,,,,,,,,,,,,,,,,,,,,,,,,,,,,,,,,,,,,,,,,,,,,,,,,,,,,,,,,,,,,,,,,,,,,,,,,,,,,,,,,,,,,,,,,,,,,,,,,,,,
0,38,38,25,1,,615513578b8c1d40dcec3b25,62c539d01ea850893376a8dc,2022-07-06_24h29.51.491,Colour_Asymmetry_Pilot,2022.1.3,Win32,60.43756799,62c50e9c1127f2cd403a315f,,,,,,,,,,,,,,,,,,,,,,,,,,,,,,,,,,,,,,,,,,,,,,,,,,,,,,,,,,,,,,,,,,,,,,,,,,,,,,,,,,,,,,,,,,,,,,,,,,,,,,,,,,,,,,,,,,,,,,,,,,,,,,,,,,,,,,,,,,,,,,,,,,,,,,,,,,,,,,,,,,,
0,39,39,68,1,,615513578b8c1d40dcec3b25,62c539d01ea850893376a8dc,2022-07-06_24h29.51.491,Colour_Asymmetry_Pilot,2022.1.3,Win32,60.43756799,62c50e9c1127f2cd403a315f,,,,,,,,,,,,,,,,,,,,,,,,,,,,,,,,,,,,,,,,,,,,,,,,,,,,,,,,,,,,,,,,,,,,,,,,,,,,,,,,,,,,,,,,,,,,,,,,,,,,,,,,,,,,,,,,,,,,,,,,,,,,,,,,,,,,,,,,,,,,,,,,,,,,,,,,,,,,,,,,,,,
0,40,40,14,1,,615513578b8c1d40dcec3b25,62c539d01ea850893376a8dc,2022-07-06_24h29.51.491,Colour_Asymmetry_Pilot,2022.1.3,Win32,60.43756799,62c50e9c1127f2cd403a315f,,,,,,,,,,,,,,,,,,,,,,,,,,,,,,,,,,,,,,,,,,,,,,,,,,,,,,,,,,,,,,,,,,,,,,,,,,,,,,,,,,,,,,,,,,,,,,,,,,,,,,,,,,,,,,,,,,,,,,,,,,,,,,,,,,,,,,,,,,,,,,,,,,,,,,,,,,,,,,,,,,,
0,41,41,26,1,,615513578b8c1d40dcec3b25,62c539d01ea850893376a8dc,2022-07-06_24h29.51.491,Colour_Asymmetry_Pilot,2022.1.3,Win32,60.43756799,62c50e9c1127f2cd403a315f,,,,,,,,,,,,,,,,,,,,,,,,,,,,,,,,,,,,,,,,,,,,,,,,,,,,,,,,,,,,,,,,,,,,,,,,,,,,,,,,,,,,,,,,,,,,,,,,,,,,,,,,,,,,,,,,,,,,,,,,,,,,,,,,,,,,,,,,,,,,,,,,,,,,,,,,,,,,,,,,,,,
0,42,42,30,1,,615513578b8c1d40dcec3b25,62c539d01ea850893376a8dc,2022-07-06_24h29.51.491,Colour_Asymmetry_Pilot,2022.1.3,Win32,60.43756799,62c50e9c1127f2cd403a315f,,,,,,,,,,,,,,,,,,,,,,,,,,,,,,,,,,,,,,,,,,,,,,,,,,,,,,,,,,,,,,,,,,,,,,,,,,,,,,,,,,,,,,,,,,,,,,,,,,,,,,,,,,,,,,,,,,,,,,,,,,,,,,,,,,,,,,,,,,,,,,,,,,,,,,,,,,,,,,,,,,,
0,43,43,78,1,,615513578b8c1d40dcec3b25,62c539d01ea850893376a8dc,2022-07-06_24h29.51.491,Colour_Asymmetry_Pilot,2022.1.3,Win32,60.43756799,62c50e9c1127f2cd403a315f,,,,,,,,,,,,,,,,,,,,,,,,,,,,,,,,,,,,,,,,,,,,,,,,,,,,,,,,,,,,,,,,,,,,,,,,,,,,,,,,,,,,,,,,,,,,,,,,,,,,,,,,,,,,,,,,,,,,,,,,,,,,,,,,,,,,,,,,,,,,,,,,,,,,,,,,,,,,,,,,,,,
0,44,44,88,1,,615513578b8c1d40dcec3b25,62c539d01ea850893376a8dc,2022-07-06_24h29.51.491,Colour_Asymmetry_Pilot,2022.1.3,Win32,60.43756799,62c50e9c1127f2cd403a315f,,,,,,,,,,,,,,,,,,,,,,,,,,,,,,,,,,,,,,,,,,,,,,,,,,,,,,,,,,,,,,,,,,,,,,,,,,,,,,,,,,,,,,,,,,,,,,,,,,,,,,,,,,,,,,,,,,,,,,,,,,,,,,,,,,,,,,,,,,,,,,,,,,,,,,,,,,,,,,,,,,,
0,45,45,43,1,,615513578b8c1d40dcec3b25,62c539d01ea850893376a8dc,2022-07-06_24h29.51.491,Colour_Asymmetry_Pilot,2022.1.3,Win32,60.43756799,62c50e9c1127f2cd403a315f,,,,,,,,,,,,,,,,,,,,,,,,,,,,,,,,,,,,,,,,,,,,,,,,,,,,,,,,,,,,,,,,,,,,,,,,,,,,,,,,,,,,,,,,,,,,,,,,,,,,,,,,,,,,,,,,,,,,,,,,,,,,,,,,,,,,,,,,,,,,,,,,,,,,,,,,,,,,,,,,,,,
0,46,46,3,1,,615513578b8c1d40dcec3b25,62c539d01ea850893376a8dc,2022-07-06_24h29.51.491,Colour_Asymmetry_Pilot,2022.1.3,Win32,60.43756799,62c50e9c1127f2cd403a315f,,,,,,,,,,,,,,,,,,,,,,,,,,,,,,,,,,,,,,,,,,,,,,,,,,,,,,,,,,,,,,,,,,,,,,,,,,,,,,,,,,,,,,,,,,,,,,,,,,,,,,,,,,,,,,,,,,,,,,,,,,,,,,,,,,,,,,,,,,,,,,,,,,,,,,,,,,,,,,,,,,,
0,47,47,31,1,,615513578b8c1d40dcec3b25,62c539d01ea850893376a8dc,2022-07-06_24h29.51.491,Colour_Asymmetry_Pilot,2022.1.3,Win32,60.43756799,62c50e9c1127f2cd403a315f,,,,,,,,,,,,,,,,,,,,,,,,,,,,,,,,,,,,,,,,,,,,,,,,,,,,,,,,,,,,,,,,,,,,,,,,,,,,,,,,,,,,,,,,,,,,,,,,,,,,,,,,,,,,,,,,,,,,,,,,,,,,,,,,,,,,,,,,,,,,,,,,,,,,,,,,,,,,,,,,,,,
0,48,48,87,1,,615513578b8c1d40dcec3b25,62c539d01ea850893376a8dc,2022-07-06_24h29.51.491,Colour_Asymmetry_Pilot,2022.1.3,Win32,60.43756799,62c50e9c1127f2cd403a315f,,,,,,,,,,,,,,,,,,,,,,,,,,,,,,,,,,,,,,,,,,,,,,,,,,,,,,,,,,,,,,,,,,,,,,,,,,,,,,,,,,,,,,,,,,,,,,,,,,,,,,,,,,,,,,,,,,,,,,,,,,,,,,,,,,,,,,,,,,,,,,,,,,,,,,,,,,,,,,,,,,,
0,49,49,80,1,,615513578b8c1d40dcec3b25,62c539d01ea850893376a8dc,2022-07-06_24h29.51.491,Colour_Asymmetry_Pilot,2022.1.3,Win32,60.43756799,62c50e9c1127f2cd403a315f,,,,,,,,,,,,,,,,,,,,,,,,,,,,,,,,,,,,,,,,,,,,,,,,,,,,,,,,,,,,,,,,,,,,,,,,,,,,,,,,,,,,,,,,,,,,,,,,,,,,,,,,,,,,,,,,,,,,,,,,,,,,,,,,,,,,,,,,,,,,,,,,,,,,,,,,,,,,,,,,,,,
0,50,50,23,1,,615513578b8c1d40dcec3b25,62c539d01ea850893376a8dc,2022-07-06_24h29.51.491,Colour_Asymmetry_Pilot,2022.1.3,Win32,60.43756799,62c50e9c1127f2cd403a315f,,,,,,,,,,,,,,,,,,,,,,,,,,,,,,,,,,,,,,,,,,,,,,,,,,,,,,,,,,,,,,,,,,,,,,,,,,,,,,,,,,,,,,,,,,,,,,,,,,,,,,,,,,,,,,,,,,,,,,,,,,,,,,,,,,,,,,,,,,,,,,,,,,,,,,,,,,,,,,,,,,,
0,51,51,38,1,,615513578b8c1d40dcec3b25,62c539d01ea850893376a8dc,2022-07-06_24h29.51.491,Colour_Asymmetry_Pilot,2022.1.3,Win32,60.43756799,62c50e9c1127f2cd403a315f,,,,,,,,,,,,,,,,,,,,,,,,,,,,,,,,,,,,,,,,,,,,,,,,,,,,,,,,,,,,,,,,,,,,,,,,,,,,,,,,,,,,,,,,,,,,,,,,,,,,,,,,,,,,,,,,,,,,,,,,,,,,,,,,,,,,,,,,,,,,,,,,,,,,,,,,,,,,,,,,,,,
0,52,52,7,1,,615513578b8c1d40dcec3b25,62c539d01ea850893376a8dc,2022-07-06_24h29.51.491,Colour_Asymmetry_Pilot,2022.1.3,Win32,60.43756799,62c50e9c1127f2cd403a315f,,,,,,,,,,,,,,,,,,,,,,,,,,,,,,,,,,,,,,,,,,,,,,,,,,,,,,,,,,,,,,,,,,,,,,,,,,,,,,,,,,,,,,,,,,,,,,,,,,,,,,,,,,,,,,,,,,,,,,,,,,,,,,,,,,,,,,,,,,,,,,,,,,,,,,,,,,,,,,,,,,,
0,53,53,13,1,,615513578b8c1d40dcec3b25,62c539d01ea850893376a8dc,2022-07-06_24h29.51.491,Colour_Asymmetry_Pilot,2022.1.3,Win32,60.43756799,62c50e9c1127f2cd403a315f,,,,,,,,,,,,,,,,,,,,,,,,,,,,,,,,,,,,,,,,,,,,,,,,,,,,,,,,,,,,,,,,,,,,,,,,,,,,,,,,,,,,,,,,,,,,,,,,,,,,,,,,,,,,,,,,,,,,,,,,,,,,,,,,,,,,,,,,,,,,,,,,,,,,,,,,,,,,,,,,,,,
0,54,54,10,1,,615513578b8c1d40dcec3b25,62c539d01ea850893376a8dc,2022-07-06_24h29.51.491,Colour_Asymmetry_Pilot,2022.1.3,Win32,60.43756799,62c50e9c1127f2cd403a315f,,,,,,,,,,,,,,,,,,,,,,,,,,,,,,,,,,,,,,,,,,,,,,,,,,,,,,,,,,,,,,,,,,,,,,,,,,,,,,,,,,,,,,,,,,,,,,,,,,,,,,,,,,,,,,,,,,,,,,,,,,,,,,,,,,,,,,,,,,,,,,,,,,,,,,,,,,,,,,,,,,,
0,55,55,29,1,,615513578b8c1d40dcec3b25,62c539d01ea850893376a8dc,2022-07-06_24h29.51.491,Colour_Asymmetry_Pilot,2022.1.3,Win32,60.43756799,62c50e9c1127f2cd403a315f,,,,,,,,,,,,,,,,,,,,,,,,,,,,,,,,,,,,,,,,,,,,,,,,,,,,,,,,,,,,,,,,,,,,,,,,,,,,,,,,,,,,,,,,,,,,,,,,,,,,,,,,,,,,,,,,,,,,,,,,,,,,,,,,,,,,,,,,,,,,,,,,,,,,,,,,,,,,,,,,,,,
0,56,56,1,1,,615513578b8c1d40dcec3b25,62c539d01ea850893376a8dc,2022-07-06_24h29.51.491,Colour_Asymmetry_Pilot,2022.1.3,Win32,60.43756799,62c50e9c1127f2cd403a315f,,,,,,,,,,,,,,,,,,,,,,,,,,,,,,,,,,,,,,,,,,,,,,,,,,,,,,,,,,,,,,,,,,,,,,,,,,,,,,,,,,,,,,,,,,,,,,,,,,,,,,,,,,,,,,,,,,,,,,,,,,,,,,,,,,,,,,,,,,,,,,,,,,,,,,,,,,,,,,,,,,,
0,57,57,62,1,,615513578b8c1d40dcec3b25,62c539d01ea850893376a8dc,2022-07-06_24h29.51.491,Colour_Asymmetry_Pilot,2022.1.3,Win32,60.43756799,62c50e9c1127f2cd403a315f,,,,,,,,,,,,,,,,,,,,,,,,,,,,,,,,,,,,,,,,,,,,,,,,,,,,,,,,,,,,,,,,,,,,,,,,,,,,,,,,,,,,,,,,,,,,,,,,,,,,,,,,,,,,,,,,,,,,,,,,,,,,,,,,,,,,,,,,,,,,,,,,,,,,,,,,,,,,,,,,,,,
0,58,58,46,1,,615513578b8c1d40dcec3b25,62c539d01ea850893376a8dc,2022-07-06_24h29.51.491,Colour_Asymmetry_Pilot,2022.1.3,Win32,60.43756799,62c50e9c1127f2cd403a315f,,,,,,,,,,,,,,,,,,,,,,,,,,,,,,,,,,,,,,,,,,,,,,,,,,,,,,,,,,,,,,,,,,,,,,,,,,,,,,,,,,,,,,,,,,,,,,,,,,,,,,,,,,,,,,,,,,,,,,,,,,,,,,,,,,,,,,,,,,,,,,,,,,,,,,,,,,,,,,,,,,,
0,59,59,24,1,,615513578b8c1d40dcec3b25,62c539d01ea850893376a8dc,2022-07-06_24h29.51.491,Colour_Asymmetry_Pilot,2022.1.3,Win32,60.43756799,62c50e9c1127f2cd403a315f,,,,,,,,,,,,,,,,,,,,,,,,,,,,,,,,,,,,,,,,,,,,,,,,,,,,,,,,,,,,,,,,,,,,,,,,,,,,,,,,,,,,,,,,,,,,,,,,,,,,,,,,,,,,,,,,,,,,,,,,,,,,,,,,,,,,,,,,,,,,,,,,,,,,,,,,,,,,,,,,,,,
0,60,60,86,1,,615513578b8c1d40dcec3b25,62c539d01ea850893376a8dc,2022-07-06_24h29.51.491,Colour_Asymmetry_Pilot,2022.1.3,Win32,60.43756799,62c50e9c1127f2cd403a315f,,,,,,,,,,,,,,,,,,,,,,,,,,,,,,,,,,,,,,,,,,,,,,,,,,,,,,,,,,,,,,,,,,,,,,,,,,,,,,,,,,,,,,,,,,,,,,,,,,,,,,,,,,,,,,,,,,,,,,,,,,,,,,,,,,,,,,,,,,,,,,,,,,,,,,,,,,,,,,,,,,,
0,61,61,89,1,,615513578b8c1d40dcec3b25,62c539d01ea850893376a8dc,2022-07-06_24h29.51.491,Colour_Asymmetry_Pilot,2022.1.3,Win32,60.43756799,62c50e9c1127f2cd403a315f,,,,,,,,,,,,,,,,,,,,,,,,,,,,,,,,,,,,,,,,,,,,,,,,,,,,,,,,,,,,,,,,,,,,,,,,,,,,,,,,,,,,,,,,,,,,,,,,,,,,,,,,,,,,,,,,,,,,,,,,,,,,,,,,,,,,,,,,,,,,,,,,,,,,,,,,,,,,,,,,,,,
0,62,62,70,1,,615513578b8c1d40dcec3b25,62c539d01ea850893376a8dc,2022-07-06_24h29.51.491,Colour_Asymmetry_Pilot,2022.1.3,Win32,60.43756799,62c50e9c1127f2cd403a315f,,,,,,,,,,,,,,,,,,,,,,,,,,,,,,,,,,,,,,,,,,,,,,,,,,,,,,,,,,,,,,,,,,,,,,,,,,,,,,,,,,,,,,,,,,,,,,,,,,,,,,,,,,,,,,,,,,,,,,,,,,,,,,,,,,,,,,,,,,,,,,,,,,,,,,,,,,,,,,,,,,,
0,63,63,5,1,,615513578b8c1d40dcec3b25,62c539d01ea850893376a8dc,2022-07-06_24h29.51.491,Colour_Asymmetry_Pilot,2022.1.3,Win32,60.43756799,62c50e9c1127f2cd403a315f,,,,,,,,,,,,,,,,,,,,,,,,,,,,,,,,,,,,,,,,,,,,,,,,,,,,,,,,,,,,,,,,,,,,,,,,,,,,,,,,,,,,,,,,,,,,,,,,,,,,,,,,,,,,,,,,,,,,,,,,,,,,,,,,,,,,,,,,,,,,,,,,,,,,,,,,,,,,,,,,,,,
0,64,64,40,1,,615513578b8c1d40dcec3b25,62c539d01ea850893376a8dc,2022-07-06_24h29.51.491,Colour_Asymmetry_Pilot,2022.1.3,Win32,60.43756799,62c50e9c1127f2cd403a315f,,,,,,,,,,,,,,,,,,,,,,,,,,,,,,,,,,,,,,,,,,,,,,,,,,,,,,,,,,,,,,,,,,,,,,,,,,,,,,,,,,,,,,,,,,,,,,,,,,,,,,,,,,,,,,,,,,,,,,,,,,,,,,,,,,,,,,,,,,,,,,,,,,,,,,,,,,,,,,,,,,,
0,65,65,82,1,,615513578b8c1d40dcec3b25,62c539d01ea850893376a8dc,2022-07-06_24h29.51.491,Colour_Asymmetry_Pilot,2022.1.3,Win32,60.43756799,62c50e9c1127f2cd403a315f,,,,,,,,,,,,,,,,,,,,,,,,,,,,,,,,,,,,,,,,,,,,,,,,,,,,,,,,,,,,,,,,,,,,,,,,,,,,,,,,,,,,,,,,,,,,,,,,,,,,,,,,,,,,,,,,,,,,,,,,,,,,,,,,,,,,,,,,,,,,,,,,,,,,,,,,,,,,,,,,,,,
0,66,66,18,1,,615513578b8c1d40dcec3b25,62c539d01ea850893376a8dc,2022-07-06_24h29.51.491,Colour_Asymmetry_Pilot,2022.1.3,Win32,60.43756799,62c50e9c1127f2cd403a315f,,,,,,,,,,,,,,,,,,,,,,,,,,,,,,,,,,,,,,,,,,,,,,,,,,,,,,,,,,,,,,,,,,,,,,,,,,,,,,,,,,,,,,,,,,,,,,,,,,,,,,,,,,,,,,,,,,,,,,,,,,,,,,,,,,,,,,,,,,,,,,,,,,,,,,,,,,,,,,,,,,,
0,67,67,72,1,,615513578b8c1d40dcec3b25,62c539d01ea850893376a8dc,2022-07-06_24h29.51.491,Colour_Asymmetry_Pilot,2022.1.3,Win32,60.43756799,62c50e9c1127f2cd403a315f,,,,,,,,,,,,,,,,,,,,,,,,,,,,,,,,,,,,,,,,,,,,,,,,,,,,,,,,,,,,,,,,,,,,,,,,,,,,,,,,,,,,,,,,,,,,,,,,,,,,,,,,,,,,,,,,,,,,,,,,,,,,,,,,,,,,,,,,,,,,,,,,,,,,,,,,,,,,,,,,,,,
0,68,68,53,1,,615513578b8c1d40dcec3b25,62c539d01ea850893376a8dc,2022-07-06_24h29.51.491,Colour_Asymmetry_Pilot,2022.1.3,Win32,60.43756799,62c50e9c1127f2cd403a315f,,,,,,,,,,,,,,,,,,,,,,,,,,,,,,,,,,,,,,,,,,,,,,,,,,,,,,,,,,,,,,,,,,,,,,,,,,,,,,,,,,,,,,,,,,,,,,,,,,,,,,,,,,,,,,,,,,,,,,,,,,,,,,,,,,,,,,,,,,,,,,,,,,,,,,,,,,,,,,,,,,,
0,69,69,79,1,,615513578b8c1d40dcec3b25,62c539d01ea850893376a8dc,2022-07-06_24h29.51.491,Colour_Asymmetry_Pilot,2022.1.3,Win32,60.43756799,62c50e9c1127f2cd403a315f,,,,,,,,,,,,,,,,,,,,,,,,,,,,,,,,,,,,,,,,,,,,,,,,,,,,,,,,,,,,,,,,,,,,,,,,,,,,,,,,,,,,,,,,,,,,,,,,,,,,,,,,,,,,,,,,,,,,,,,,,,,,,,,,,,,,,,,,,,,,,,,,,,,,,,,,,,,,,,,,,,,
0,70,70,57,1,,615513578b8c1d40dcec3b25,62c539d01ea850893376a8dc,2022-07-06_24h29.51.491,Colour_Asymmetry_Pilot,2022.1.3,Win32,60.43756799,62c50e9c1127f2cd403a315f,,,,,,,,,,,,,,,,,,,,,,,,,,,,,,,,,,,,,,,,,,,,,,,,,,,,,,,,,,,,,,,,,,,,,,,,,,,,,,,,,,,,,,,,,,,,,,,,,,,,,,,,,,,,,,,,,,,,,,,,,,,,,,,,,,,,,,,,,,,,,,,,,,,,,,,,,,,,,,,,,,,
0,71,71,28,1,,615513578b8c1d40dcec3b25,62c539d01ea850893376a8dc,2022-07-06_24h29.51.491,Colour_Asymmetry_Pilot,2022.1.3,Win32,60.43756799,62c50e9c1127f2cd403a315f,,,,,,,,,,,,,,,,,,,,,,,,,,,,,,,,,,,,,,,,,,,,,,,,,,,,,,,,,,,,,,,,,,,,,,,,,,,,,,,,,,,,,,,,,,,,,,,,,,,,,,,,,,,,,,,,,,,,,,,,,,,,,,,,,,,,,,,,,,,,,,,,,,,,,,,,,,,,,,,,,,,
0,72,72,41,1,,615513578b8c1d40dcec3b25,62c539d01ea850893376a8dc,2022-07-06_24h29.51.491,Colour_Asymmetry_Pilot,2022.1.3,Win32,60.43756799,62c50e9c1127f2cd403a315f,,,,,,,,,,,,,,,,,,,,,,,,,,,,,,,,,,,,,,,,,,,,,,,,,,,,,,,,,,,,,,,,,,,,,,,,,,,,,,,,,,,,,,,,,,,,,,,,,,,,,,,,,,,,,,,,,,,,,,,,,,,,,,,,,,,,,,,,,,,,,,,,,,,,,,,,,,,,,,,,,,,
0,73,73,61,1,,615513578b8c1d40dcec3b25,62c539d01ea850893376a8dc,2022-07-06_24h29.51.491,Colour_Asymmetry_Pilot,2022.1.3,Win32,60.43756799,62c50e9c1127f2cd403a315f,,,,,,,,,,,,,,,,,,,,,,,,,,,,,,,,,,,,,,,,,,,,,,,,,,,,,,,,,,,,,,,,,,,,,,,,,,,,,,,,,,,,,,,,,,,,,,,,,,,,,,,,,,,,,,,,,,,,,,,,,,,,,,,,,,,,,,,,,,,,,,,,,,,,,,,,,,,,,,,,,,,
0,74,74,47,1,,615513578b8c1d40dcec3b25,62c539d01ea850893376a8dc,2022-07-06_24h29.51.491,Colour_Asymmetry_Pilot,2022.1.3,Win32,60.43756799,62c50e9c1127f2cd403a315f,,,,,,,,,,,,,,,,,,,,,,,,,,,,,,,,,,,,,,,,,,,,,,,,,,,,,,,,,,,,,,,,,,,,,,,,,,,,,,,,,,,,,,,,,,,,,,,,,,,,,,,,,,,,,,,,,,,,,,,,,,,,,,,,,,,,,,,,,,,,,,,,,,,,,,,,,,,,,,,,,,,
0,75,75,8,1,,615513578b8c1d40dcec3b25,62c539d01ea850893376a8dc,2022-07-06_24h29.51.491,Colour_Asymmetry_Pilot,2022.1.3,Win32,60.43756799,62c50e9c1127f2cd403a315f,,,,,,,,,,,,,,,,,,,,,,,,,,,,,,,,,,,,,,,,,,,,,,,,,,,,,,,,,,,,,,,,,,,,,,,,,,,,,,,,,,,,,,,,,,,,,,,,,,,,,,,,,,,,,,,,,,,,,,,,,,,,,,,,,,,,,,,,,,,,,,,,,,,,,,,,,,,,,,,,,,,
0,76,76,77,1,,615513578b8c1d40dcec3b25,62c539d01ea850893376a8dc,2022-07-06_24h29.51.491,Colour_Asymmetry_Pilot,2022.1.3,Win32,60.43756799,62c50e9c1127f2cd403a315f,,,,,,,,,,,,,,,,,,,,,,,,,,,,,,,,,,,,,,,,,,,,,,,,,,,,,,,,,,,,,,,,,,,,,,,,,,,,,,,,,,,,,,,,,,,,,,,,,,,,,,,,,,,,,,,,,,,,,,,,,,,,,,,,,,,,,,,,,,,,,,,,,,,,,,,,,,,,,,,,,,,
0,77,77,71,1,,615513578b8c1d40dcec3b25,62c539d01ea850893376a8dc,2022-07-06_24h29.51.491,Colour_Asymmetry_Pilot,2022.1.3,Win32,60.43756799,62c50e9c1127f2cd403a315f,,,,,,,,,,,,,,,,,,,,,,,,,,,,,,,,,,,,,,,,,,,,,,,,,,,,,,,,,,,,,,,,,,,,,,,,,,,,,,,,,,,,,,,,,,,,,,,,,,,,,,,,,,,,,,,,,,,,,,,,,,,,,,,,,,,,,,,,,,,,,,,,,,,,,,,,,,,,,,,,,,,
0,78,78,21,1,,615513578b8c1d40dcec3b25,62c539d01ea850893376a8dc,2022-07-06_24h29.51.491,Colour_Asymmetry_Pilot,2022.1.3,Win32,60.43756799,62c50e9c1127f2cd403a315f,,,,,,,,,,,,,,,,,,,,,,,,,,,,,,,,,,,,,,,,,,,,,,,,,,,,,,,,,,,,,,,,,,,,,,,,,,,,,,,,,,,,,,,,,,,,,,,,,,,,,,,,,,,,,,,,,,,,,,,,,,,,,,,,,,,,,,,,,,,,,,,,,,,,,,,,,,,,,,,,,,,
0,79,79,66,1,,615513578b8c1d40dcec3b25,62c539d01ea850893376a8dc,2022-07-06_24h29.51.491,Colour_Asymmetry_Pilot,2022.1.3,Win32,60.43756799,62c50e9c1127f2cd403a315f,,,,,,,,,,,,,,,,,,,,,,,,,,,,,,,,,,,,,,,,,,,,,,,,,,,,,,,,,,,,,,,,,,,,,,,,,,,,,,,,,,,,,,,,,,,,,,,,,,,,,,,,,,,,,,,,,,,,,,,,,,,,,,,,,,,,,,,,,,,,,,,,,,,,,,,,,,,,,,,,,,,
0,80,80,36,1,,615513578b8c1d40dcec3b25,62c539d01ea850893376a8dc,2022-07-06_24h29.51.491,Colour_Asymmetry_Pilot,2022.1.3,Win32,60.43756799,62c50e9c1127f2cd403a315f,,,,,,,,,,,,,,,,,,,,,,,,,,,,,,,,,,,,,,,,,,,,,,,,,,,,,,,,,,,,,,,,,,,,,,,,,,,,,,,,,,,,,,,,,,,,,,,,,,,,,,,,,,,,,,,,,,,,,,,,,,,,,,,,,,,,,,,,,,,,,,,,,,,,,,,,,,,,,,,,,,,
0,81,81,37,1,,615513578b8c1d40dcec3b25,62c539d01ea850893376a8dc,2022-07-06_24h29.51.491,Colour_Asymmetry_Pilot,2022.1.3,Win32,60.43756799,62c50e9c1127f2cd403a315f,,,,,,,,,,,,,,,,,,,,,,,,,,,,,,,,,,,,,,,,,,,,,,,,,,,,,,,,,,,,,,,,,,,,,,,,,,,,,,,,,,,,,,,,,,,,,,,,,,,,,,,,,,,,,,,,,,,,,,,,,,,,,,,,,,,,,,,,,,,,,,,,,,,,,,,,,,,,,,,,,,,
0,82,82,50,1,,615513578b8c1d40dcec3b25,62c539d01ea850893376a8dc,2022-07-06_24h29.51.491,Colour_Asymmetry_Pilot,2022.1.3,Win32,60.43756799,62c50e9c1127f2cd403a315f,,,,,,,,,,,,,,,,,,,,,,,,,,,,,,,,,,,,,,,,,,,,,,,,,,,,,,,,,,,,,,,,,,,,,,,,,,,,,,,,,,,,,,,,,,,,,,,,,,,,,,,,,,,,,,,,,,,,,,,,,,,,,,,,,,,,,,,,,,,,,,,,,,,,,,,,,,,,,,,,,,,
0,83,83,48,1,,615513578b8c1d40dcec3b25,62c539d01ea850893376a8dc,2022-07-06_24h29.51.491,Colour_Asymmetry_Pilot,2022.1.3,Win32,60.43756799,62c50e9c1127f2cd403a315f,,,,,,,,,,,,,,,,,,,,,,,,,,,,,,,,,,,,,,,,,,,,,,,,,,,,,,,,,,,,,,,,,,,,,,,,,,,,,,,,,,,,,,,,,,,,,,,,,,,,,,,,,,,,,,,,,,,,,,,,,,,,,,,,,,,,,,,,,,,,,,,,,,,,,,,,,,,,,,,,,,,
0,84,84,85,1,,615513578b8c1d40dcec3b25,62c539d01ea850893376a8dc,2022-07-06_24h29.51.491,Colour_Asymmetry_Pilot,2022.1.3,Win32,60.43756799,62c50e9c1127f2cd403a315f,,,,,,,,,,,,,,,,,,,,,,,,,,,,,,,,,,,,,,,,,,,,,,,,,,,,,,,,,,,,,,,,,,,,,,,,,,,,,,,,,,,,,,,,,,,,,,,,,,,,,,,,,,,,,,,,,,,,,,,,,,,,,,,,,,,,,,,,,,,,,,,,,,,,,,,,,,,,,,,,,,,
0,85,85,91,1,,615513578b8c1d40dcec3b25,62c539d01ea850893376a8dc,2022-07-06_24h29.51.491,Colour_Asymmetry_Pilot,2022.1.3,Win32,60.43756799,62c50e9c1127f2cd403a315f,,,,,,,,,,,,,,,,,,,,,,,,,,,,,,,,,,,,,,,,,,,,,,,,,,,,,,,,,,,,,,,,,,,,,,,,,,,,,,,,,,,,,,,,,,,,,,,,,,,,,,,,,,,,,,,,,,,,,,,,,,,,,,,,,,,,,,,,,,,,,,,,,,,,,,,,,,,,,,,,,,,
0,86,86,0,1,,615513578b8c1d40dcec3b25,62c539d01ea850893376a8dc,2022-07-06_24h29.51.491,Colour_Asymmetry_Pilot,2022.1.3,Win32,60.43756799,62c50e9c1127f2cd403a315f,,,,,,,,,,,,,,,,,,,,,,,,,,,,,,,,,,,,,,,,,,,,,,,,,,,,,,,,,,,,,,,,,,,,,,,,,,,,,,,,,,,,,,,,,,,,,,,,,,,,,,,,,,,,,,,,,,,,,,,,,,,,,,,,,,,,,,,,,,,,,,,,,,,,,,,,,,,,,,,,,,,
0,87,87,27,1,,615513578b8c1d40dcec3b25,62c539d01ea850893376a8dc,2022-07-06_24h29.51.491,Colour_Asymmetry_Pilot,2022.1.3,Win32,60.43756799,62c50e9c1127f2cd403a315f,,,,,,,,,,,,,,,,,,,,,,,,,,,,,,,,,,,,,,,,,,,,,,,,,,,,,,,,,,,,,,,,,,,,,,,,,,,,,,,,,,,,,,,,,,,,,,,,,,,,,,,,,,,,,,,,,,,,,,,,,,,,,,,,,,,,,,,,,,,,,,,,,,,,,,,,,,,,,,,,,,,
0,88,88,12,1,,615513578b8c1d40dcec3b25,62c539d01ea850893376a8dc,2022-07-06_24h29.51.491,Colour_Asymmetry_Pilot,2022.1.3,Win32,60.43756799,62c50e9c1127f2cd403a315f,,,,,,,,,,,,,,,,,,,,,,,,,,,,,,,,,,,,,,,,,,,,,,,,,,,,,,,,,,,,,,,,,,,,,,,,,,,,,,,,,,,,,,,,,,,,,,,,,,,,,,,,,,,,,,,,,,,,,,,,,,,,,,,,,,,,,,,,,,,,,,,,,,,,,,,,,,,,,,,,,,,
0,89,89,74,1,,615513578b8c1d40dcec3b25,62c539d01ea850893376a8dc,2022-07-06_24h29.51.491,Colour_Asymmetry_Pilot,2022.1.3,Win32,60.43756799,62c50e9c1127f2cd403a315f,,,,,,,,,,,,,,,,,,,,,,,,,,,,,,,,,,,,,,,,,,,,,,,,,,,,,,,,,,,,,,,,,,,,,,,,,,,,,,,,,,,,,,,,,,,,,,,,,,,,,,,,,,,,,,,,,,,,,,,,,,,,,,,,,,,,,,,,,,,,,,,,,,,,,,,,,,,,,,,,,,,
0,90,90,2,1,,615513578b8c1d40dcec3b25,62c539d01ea850893376a8dc,2022-07-06_24h29.51.491,Colour_Asymmetry_Pilot,2022.1.3,Win32,60.43756799,62c50e9c1127f2cd403a315f,,,,,,,,,,,,,,,,,,,,,,,,,,,,,,,,,,,,,,,,,,,,,,,,,,,,,,,,,,,,,,,,,,,,,,,,,,,,,,,,,,,,,,,,,,,,,,,,,,,,,,,,,,,,,,,,,,,,,,,,,,,,,,,,,,,,,,,,,,,,,,,,,,,,,,,,,,,,,,,,,,,
0,91,91,16,1,,615513578b8c1d40dcec3b25,62c539d01ea850893376a8dc,2022-07-06_24h29.51.491,Colour_Asymmetry_Pilot,2022.1.3,Win32,60.43756799,62c50e9c1127f2cd403a315f,,,,,,,,,,,,,,,,,,,,,,,,,,,,,,,,,,,,,,,,,,,,,,,,,,,,,,,,,,,,,,,,,,,,,,,,,,,,,,,,,,,,,,,,,,,,,,,,,,,,,,,,,,,,,,,,,,,,,,,,,,,,,,,,,,,,,,,,,,,,,,,,,,,,,,,,,,,,,,,,,,,
0,92,92,59,1,,615513578b8c1d40dcec3b25,62c539d01ea850893376a8dc,2022-07-06_24h29.51.491,Colour_Asymmetry_Pilot,2022.1.3,Win32,60.43756799,62c50e9c1127f2cd403a315f,,,,,,,,,,,,,,,,,,,,,,,,,,,,,,,,,,,,,,,,,,,,,,,,,,,,,,,,,,,,,,,,,,,,,,,,,,,,,,,,,,,,,,,,,,,,,,,,,,,,,,,,,,,,,,,,,,,,,,,,,,,,,,,,,,,,,,,,,,,,,,,,,,,,,,,,,,,,,,,,,,,
,,,,,,615513578b8c1d40dcec3b25,62c539d01ea850893376a8dc,2022-07-06_24h29.51.491,Colour_Asymmetry_Pilot,2022.1.3,Win32,60.43756799,62c50e9c1127f2cd403a315f,0,0,0,30,1,fourtwo,,,,,,,,,,,,,,,,,,,,,,,,,,,,,,,,,,,,,,,,,,,,,,,,,,,,,,,,,,,,,,,,,,,,,,,,,,,,,,,,,,,,,,,,,,,,,,,,,,,,,,,,,,,,,,,,,,,,,,,,,,,,,,,,,,,,,,,,,,,,,,,,,,,,,,,,,,,,,
,,,,,,615513578b8c1d40dcec3b25,62c539d01ea850893376a8dc,2022-07-06_24h29.51.491,Colour_Asymmetry_Pilot,2022.1.3,Win32,60.43756799,62c50e9c1127f2cd403a315f,0,1,1,104,1,onetwo,,,,,,,,,,,,,,,,,,,,,,,,,,,,,,,,,,,,,,,,,,,,,,,,,,,,,,,,,,,,,,,,,,,,,,,,,,,,,,,,,,,,,,,,,,,,,,,,,,,,,,,,,,,,,,,,,,,,,,,,,,,,,,,,,,,,,,,,,,,,,,,,,,,,,,,,,,,,,
,,,,,,615513578b8c1d40dcec3b25,62c539d01ea850893376a8dc,2022-07-06_24h29.51.491,Colour_Asymmetry_Pilot,2022.1.3,Win32,60.43756799,62c50e9c1127f2cd403a315f,0,2,2,120,1,onetwo,,,,,,,,,,,,,,,,,,,,,,,,,,,,,,,,,,,,,,,,,,,,,,,,,,,,,,,,,,,,,,,,,,,,,,,,,,,,,,,,,,,,,,,,,,,,,,,,,,,,,,,,,,,,,,,,,,,,,,,,,,,,,,,,,,,,,,,,,,,,,,,,,,,,,,,,,,,,,
,,,,,,615513578b8c1d40dcec3b25,62c539d01ea850893376a8dc,2022-07-06_24h29.51.491,Colour_Asymmetry_Pilot,2022.1.3,Win32,60.43756799,62c50e9c1127f2cd403a315f,0,3,3,105,1,onethree,,,,,,,,,,,,,,,,,,,,,,,,,,,,,,,,,,,,,,,,,,,,,,,,,,,,,,,,,,,,,,,,,,,,,,,,,,,,,,,,,,,,,,,,,,,,,,,,,,,,,,,,,,,,,,,,,,,,,,,,,,,,,,,,,,,,,,,,,,,,,,,,,,,,,,,,,,,,,
,,,,,,615513578b8c1d40dcec3b25,62c539d01ea850893376a8dc,2022-07-06_24h29.51.491,Colour_Asymmetry_Pilot,2022.1.3,Win32,60.43756799,62c50e9c1127f2cd403a315f,0,4,4,94,1,fourtwo,,,,,,,,,,,,,,,,,,,,,,,,,,,,,,,,,,,,,,,,,,,,,,,,,,,,,,,,,,,,,,,,,,,,,,,,,,,,,,,,,,,,,,,,,,,,,,,,,,,,,,,,,,,,,,,,,,,,,,,,,,,,,,,,,,,,,,,,,,,,,,,,,,,,,,,,,,,,,
,,,,,,615513578b8c1d40dcec3b25,62c539d01ea850893376a8dc,2022-07-06_24h29.51.491,Colour_Asymmetry_Pilot,2022.1.3,Win32,60.43756799,62c50e9c1127f2cd403a315f,0,5,5,13,1,threefour,,,,,,,,,,,,,,,,,,,,,,,,,,,,,,,,,,,,,,,,,,,,,,,,,,,,,,,,,,,,,,,,,,,,,,,,,,,,,,,,,,,,,,,,,,,,,,,,,,,,,,,,,,,,,,,,,,,,,,,,,,,,,,,,,,,,,,,,,,,,,,,,,,,,,,,,,,,,,
,,,,,,615513578b8c1d40dcec3b25,62c539d01ea850893376a8dc,2022-07-06_24h29.51.491,Colour_Asymmetry_Pilot,2022.1.3,Win32,60.43756799,62c50e9c1127f2cd403a315f,0,6,6,32,1,onetwo,,,,,,,,,,,,,,,,,,,,,,,,,,,,,,,,,,,,,,,,,,,,,,,,,,,,,,,,,,,,,,,,,,,,,,,,,,,,,,,,,,,,,,,,,,,,,,,,,,,,,,,,,,,,,,,,,,,,,,,,,,,,,,,,,,,,,,,,,,,,,,,,,,,,,,,,,,,,,
,,,,,,615513578b8c1d40dcec3b25,62c539d01ea850893376a8dc,2022-07-06_24h29.51.491,Colour_Asymmetry_Pilot,2022.1.3,Win32,60.43756799,62c50e9c1127f2cd403a315f,0,7,7,123,1,twofour,,,,,,,,,,,,,,,,,,,,,,,,,,,,,,,,,,,,,,,,,,,,,,,,,,,,,,,,,,,,,,,,,,,,,,,,,,,,,,,,,,,,,,,,,,,,,,,,,,,,,,,,,,,,,,,,,,,,,,,,,,,,,,,,,,,,,,,,,,,,,,,,,,,,,,,,,,,,,
,,,,,,615513578b8c1d40dcec3b25,62c539d01ea850893376a8dc,2022-07-06_24h29.51.491,Colour_Asymmetry_Pilot,2022.1.3,Win32,60.43756799,62c50e9c1127f2cd403a315f,0,8,8,76,1,threeone,,,,,,,,,,,,,,,,,,,,,,,,,,,,,,,,,,,,,,,,,,,,,,,,,,,,,,,,,,,,,,,,,,,,,,,,,,,,,,,,,,,,,,,,,,,,,,,,,,,,,,,,,,,,,,,,,,,,,,,,,,,,,,,,,,,,,,,,,,,,,,,,,,,,,,,,,,,,,
,,,,,,615513578b8c1d40dcec3b25,62c539d01ea850893376a8dc,2022-07-06_24h29.51.491,Colour_Asymmetry_Pilot,2022.1.3,Win32,60.43756799,62c50e9c1127f2cd403a315f,0,9,9,133,1,threefour,,,,,,,,,,,,,,,,,,,,,,,,,,,,,,,,,,,,,,,,,,,,,,,,,,,,,,,,,,,,,,,,,,,,,,,,,,,,,,,,,,,,,,,,,,,,,,,,,,,,,,,,,,,,,,,,,,,,,,,,,,,,,,,,,,,,,,,,,,,,,,,,,,,,,,,,,,,,,
,,,,,,615513578b8c1d40dcec3b25,62c539d01ea850893376a8dc,2022-07-06_24h29.51.491,Colour_Asymmetry_Pilot,2022.1.3,Win32,60.43756799,62c50e9c1127f2cd403a315f,0,10,10,14,1,fourtwo,,,,,,,,,,,,,,,,,,,,,,,,,,,,,,,,,,,,,,,,,,,,,,,,,,,,,,,,,,,,,,,,,,,,,,,,,,,,,,,,,,,,,,,,,,,,,,,,,,,,,,,,,,,,,,,,,,,,,,,,,,,,,,,,,,,,,,,,,,,,,,,,,,,,,,,,,,,,,
,,,,,,615513578b8c1d40dcec3b25,62c539d01ea850893376a8dc,2022-07-06_24h29.51.491,Colour_Asymmetry_Pilot,2022.1.3,Win32,60.43756799,62c50e9c1127f2cd403a315f,0,11,11,24,1,onetwo,,,,,,,,,,,,,,,,,,,,,,,,,,,,,,,,,,,,,,,,,,,,,,,,,,,,,,,,,,,,,,,,,,,,,,,,,,,,,,,,,,,,,,,,,,,,,,,,,,,,,,,,,,,,,,,,,,,,,,,,,,,,,,,,,,,,,,,,,,,,,,,,,,,,,,,,,,,,,
,,,,,,615513578b8c1d40dcec3b25,62c539d01ea850893376a8dc,2022-07-06_24h29.51.491,Colour_Asymmetry_Pilot,2022.1.3,Win32,60.43756799,62c50e9c1127f2cd403a315f,0,12,12,113,1,onethree,,,,,,,,,,,,,,,,,,,,,,,,,,,,,,,,,,,,,,,,,,,,,,,,,,,,,,,,,,,,,,,,,,,,,,,,,,,,,,,,,,,,,,,,,,,,,,,,,,,,,,,,,,,,,,,,,,,,,,,,,,,,,,,,,,,,,,,,,,,,,,,,,,,,,,,,,,,,,
,,,,,,615513578b8c1d40dcec3b25,62c539d01ea850893376a8dc,2022-07-06_24h29.51.491,Colour_Asymmetry_Pilot,2022.1.3,Win32,60.43756799,62c50e9c1127f2cd403a315f,0,13,13,132,1,threeone,,,,,,,,,,,,,,,,,,,,,,,,,,,,,,,,,,,,,,,,,,,,,,,,,,,,,,,,,,,,,,,,,,,,,,,,,,,,,,,,,,,,,,,,,,,,,,,,,,,,,,,,,,,,,,,,,,,,,,,,,,,,,,,,,,,,,,,,,,,,,,,,,,,,,,,,,,,,,
,,,,,,615513578b8c1d40dcec3b25,62c539d01ea850893376a8dc,2022-07-06_24h29.51.491,Colour_Asymmetry_Pilot,2022.1.3,Win32,60.43756799,62c50e9c1127f2cd403a315f,0,14,14,152,1,onetwo,,,,,,,,,,,,,,,,,,,,,,,,,,,,,,,,,,,,,,,,,,,,,,,,,,,,,,,,,,,,,,,,,,,,,,,,,,,,,,,,,,,,,,,,,,,,,,,,,,,,,,,,,,,,,,,,,,,,,,,,,,,,,,,,,,,,,,,,,,,,,,,,,,,,,,,,,,,,,
,,,,,,615513578b8c1d40dcec3b25,62c539d01ea850893376a8dc,2022-07-06_24h29.51.491,Colour_Asymmetry_Pilot,2022.1.3,Win32,60.43756799,62c50e9c1127f2cd403a315f,0,15,15,3,1,twofour,,,,,,,,,,,,,,,,,,,,,,,,,,,,,,,,,,,,,,,,,,,,,,,,,,,,,,,,,,,,,,,,,,,,,,,,,,,,,,,,,,,,,,,,,,,,,,,,,,,,,,,,,,,,,,,,,,,,,,,,,,,,,,,,,,,,,,,,,,,,,,,,,,,,,,,,,,,,,
,,,,,,615513578b8c1d40dcec3b25,62c539d01ea850893376a8dc,2022-07-06_24h29.51.491,Colour_Asymmetry_Pilot,2022.1.3,Win32,60.43756799,62c50e9c1127f2cd403a315f,0,16,16,84,1,threeone,,,,,,,,,,,,,,,,,,,,,,,,,,,,,,,,,,,,,,,,,,,,,,,,,,,,,,,,,,,,,,,,,,,,,,,,,,,,,,,,,,,,,,,,,,,,,,,,,,,,,,,,,,,,,,,,,,,,,,,,,,,,,,,,,,,,,,,,,,,,,,,,,,,,,,,,,,,,,
,,,,,,615513578b8c1d40dcec3b25,62c539d01ea850893376a8dc,2022-07-06_24h29.51.491,Colour_Asymmetry_Pilot,2022.1.3,Win32,60.43756799,62c50e9c1127f2cd403a315f,0,17,17,135,1,fourthree,,,,,,,,,,,,,,,,,,,,,,,,,,,,,,,,,,,,,,,,,,,,,,,,,,,,,,,,,,,,,,,,,,,,,,,,,,,,,,,,,,,,,,,,,,,,,,,,,,,,,,,,,,,,,,,,,,,,,,,,,,,,,,,,,,,,,,,,,,,,,,,,,,,,,,,,,,,,,
,,,,,,615513578b8c1d40dcec3b25,62c539d01ea850893376a8dc,2022-07-06_24h29.51.491,Colour_Asymmetry_Pilot,2022.1.3,Win32,60.43756799,62c50e9c1127f2cd403a315f,0,18,18,83,1,twofour,,,,,,,,,,,,,,,,,,,,,,,,,,,,,,,,,,,,,,,,,,,,,,,,,,,,,,,,,,,,,,,,,,,,,,,,,,,,,,,,,,,,,,,,,,,,,,,,,,,,,,,,,,,,,,,,,,,,,,,,,,,,,,,,,,,,,,,,,,,,,,,,,,,,,,,,,,,,,
,,,,,,615513578b8c1d40dcec3b25,62c539d01ea850893376a8dc,2022-07-06_24h29.51.491,Colour_Asymmetry_Pilot,2022.1.3,Win32,60.43756799,62c50e9c1127f2cd403a315f,0,19,19,60,1,threeone,,,,,,,,,,,,,,,,,,,,,,,,,,,,,,,,,,,,,,,,,,,,,,,,,,,,,,,,,,,,,,,,,,,,,,,,,,,,,,,,,,,,,,,,,,,,,,,,,,,,,,,,,,,,,,,,,,,,,,,,,,,,,,,,,,,,,,,,,,,,,,,,,,,,,,,,,,,,,
,,,,,,615513578b8c1d40dcec3b25,62c539d01ea850893376a8dc,2022-07-06_24h29.51.491,Colour_Asymmetry_Pilot,2022.1.3,Win32,60.43756799,62c50e9c1127f2cd403a315f,0,20,20,144,1,onetwo,,,,,,,,,,,,,,,,,,,,,,,,,,,,,,,,,,,,,,,,,,,,,,,,,,,,,,,,,,,,,,,,,,,,,,,,,,,,,,,,,,,,,,,,,,,,,,,,,,,,,,,,,,,,,,,,,,,,,,,,,,,,,,,,,,,,,,,,,,,,,,,,,,,,,,,,,,,,,
,,,,,,615513578b8c1d40dcec3b25,62c539d01ea850893376a8dc,2022-07-06_24h29.51.491,Colour_Asymmetry_Pilot,2022.1.3,Win32,60.43756799,62c50e9c1127f2cd403a315f,0,21,21,122,1,twoone,,,,,,,,,,,,,,,,,,,,,,,,,,,,,,,,,,,,,,,,,,,,,,,,,,,,,,,,,,,,,,,,,,,,,,,,,,,,,,,,,,,,,,,,,,,,,,,,,,,,,,,,,,,,,,,,,,,,,,,,,,,,,,,,,,,,,,,,,,,,,,,,,,,,,,,,,,,,,
,,,,,,615513578b8c1d40dcec3b25,62c539d01ea850893376a8dc,2022-07-06_24h29.51.491,Colour_Asymmetry_Pilot,2022.1.3,Win32,60.43756799,62c50e9c1127f2cd403a315f,0,22,22,28,1,threeone,,,,,,,,,,,,,,,,,,,,,,,,,,,,,,,,,,,,,,,,,,,,,,,,,,,,,,,,,,,,,,,,,,,,,,,,,,,,,,,,,,,,,,,,,,,,,,,,,,,,,,,,,,,,,,,,,,,,,,,,,,,,,,,,,,,,,,,,,,,,,,,,,,,,,,,,,,,,,
,,,,,,615513578b8c1d40dcec3b25,62c539d01ea850893376a8dc,2022-07-06_24h29.51.491,Colour_Asymmetry_Pilot,2022.1.3,Win32,60.43756799,62c50e9c1127f2cd403a315f,0,23,23,109,1,threefour,,,,,,,,,,,,,,,,,,,,,,,,,,,,,,,,,,,,,,,,,,,,,,,,,,,,,,,,,,,,,,,,,,,,,,,,,,,,,,,,,,,,,,,,,,,,,,,,,,,,,,,,,,,,,,,,,,,,,,,,,,,,,,,,,,,,,,,,,,,,,,,,,,,,,,,,,,,,,
,,,,,,615513578b8c1d40dcec3b25,62c539d01ea850893376a8dc,2022-07-06_24h29.51.491,Colour_Asymmetry_Pilot,2022.1.3,Win32,60.43756799,62c50e9c1127f2cd403a315f,0,24,24,86,1,fourtwo,,,,,,,,,,,,,,,,,,,,,,,,,,,,,,,,,,,,,,,,,,,,,,,,,,,,,,,,,,,,,,,,,,,,,,,,,,,,,,,,,,,,,,,,,,,,,,,,,,,,,,,,,,,,,,,,,,,,,,,,,,,,,,,,,,,,,,,,,,,,,,,,,,,,,,,,,,,,,
,,,,,,615513578b8c1d40dcec3b25,62c539d01ea850893376a8dc,2022-07-06_24h29.51.491,Colour_Asymmetry_Pilot,2022.1.3,Win32,60.43756799,62c50e9c1127f2cd403a315f,0,25,25,98,1,twoone,,,,,,,,,,,,,,,,,,,,,,,,,,,,,,,,,,,,,,,,,,,,,,,,,,,,,,,,,,,,,,,,,,,,,,,,,,,,,,,,,,,,,,,,,,,,,,,,,,,,,,,,,,,,,,,,,,,,,,,,,,,,,,,,,,,,,,,,,,,,,,,,,,,,,,,,,,,,,
,,,,,,615513578b8c1d40dcec3b25,62c539d01ea850893376a8dc,2022-07-06_24h29.51.491,Colour_Asymmetry_Pilot,2022.1.3,Win32,60.43756799,62c50e9c1127f2cd403a315f,0,26,26,43,1,twofour,,,,,,,,,,,,,,,,,,,,,,,,,,,,,,,,,,,,,,,,,,,,,,,,,,,,,,,,,,,,,,,,,,,,,,,,,,,,,,,,,,,,,,,,,,,,,,,,,,,,,,,,,,,,,,,,,,,,,,,,,,,,,,,,,,,,,,,,,,,,,,,,,,,,,,,,,,,,,
,,,,,,615513578b8c1d40dcec3b25,62c539d01ea850893376a8dc,2022-07-06_24h29.51.491,Colour_Asymmetry_Pilot,2022.1.3,Win32,60.43756799,62c50e9c1127f2cd403a315f,0,27,27,139,1,twofour,,,,,,,,,,,,,,,,,,,,,,,,,,,,,,,,,,,,,,,,,,,,,,,,,,,,,,,,,,,,,,,,,,,,,,,,,,,,,,,,,,,,,,,,,,,,,,,,,,,,,,,,,,,,,,,,,,,,,,,,,,,,,,,,,,,,,,,,,,,,,,,,,,,,,,,,,,,,,
,,,,,,615513578b8c1d40dcec3b25,62c539d01ea850893376a8dc,2022-07-06_24h29.51.491,Colour_Asymmetry_Pilot,2022.1.3,Win32,60.43756799,62c50e9c1127f2cd403a315f,0,28,28,54,1,fourtwo,,,,,,,,,,,,,,,,,,,,,,,,,,,,,,,,,,,,,,,,,,,,,,,,,,,,,,,,,,,,,,,,,,,,,,,,,,,,,,,,,,,,,,,,,,,,,,,,,,,,,,,,,,,,,,,,,,,,,,,,,,,,,,,,,,,,,,,,,,,,,,,,,,,,,,,,,,,,,
,,,,,,615513578b8c1d40dcec3b25,62c539d01ea850893376a8dc,2022-07-06_24h29.51.491,Colour_Asymmetry_Pilot,2022.1.3,Win32,60.43756799,62c50e9c1127f2cd403a315f,0,29,29,55,1,fourthree,,,,,,,,,,,,,,,,,,,,,,,,,,,,,,,,,,,,,,,,,,,,,,,,,,,,,,,,,,,,,,,,,,,,,,,,,,,,,,,,,,,,,,,,,,,,,,,,,,,,,,,,,,,,,,,,,,,,,,,,,,,,,,,,,,,,,,,,,,,,,,,,,,,,,,,,,,,,,
,,,,,,615513578b8c1d40dcec3b25,62c539d01ea850893376a8dc,2022-07-06_24h29.51.491,Colour_Asymmetry_Pilot,2022.1.3,Win32,60.43756799,62c50e9c1127f2cd403a315f,0,30,30,89,1,onethree,,,,,,,,,,,,,,,,,,,,,,,,,,,,,,,,,,,,,,,,,,,,,,,,,,,,,,,,,,,,,,,,,,,,,,,,,,,,,,,,,,,,,,,,,,,,,,,,,,,,,,,,,,,,,,,,,,,,,,,,,,,,,,,,,,,,,,,,,,,,,,,,,,,,,,,,,,,,,
,,,,,,615513578b8c1d40dcec3b25,62c539d01ea850893376a8dc,2022-07-06_24h29.51.491,Colour_Asymmetry_Pilot,2022.1.3,Win32,60.43756799,62c50e9c1127f2cd403a315f,0,31,31,44,1,threeone,,,,,,,,,,,,,,,,,,,,,,,,,,,,,,,,,,,,,,,,,,,,,,,,,,,,,,,,,,,,,,,,,,,,,,,,,,,,,,,,,,,,,,,,,,,,,,,,,,,,,,,,,,,,,,,,,,,,,,,,,,,,,,,,,,,,,,,,,,,,,,,,,,,,,,,,,,,,,
,,,,,,615513578b8c1d40dcec3b25,62c539d01ea850893376a8dc,2022-07-06_24h29.51.491,Colour_Asymmetry_Pilot,2022.1.3,Win32,60.43756799,62c50e9c1127f2cd403a315f,0,32,32,102,1,fourtwo,,,,,,,,,,,,,,,,,,,,,,,,,,,,,,,,,,,,,,,,,,,,,,,,,,,,,,,,,,,,,,,,,,,,,,,,,,,,,,,,,,,,,,,,,,,,,,,,,,,,,,,,,,,,,,,,,,,,,,,,,,,,,,,,,,,,,,,,,,,,,,,,,,,,,,,,,,,,,
,,,,,,615513578b8c1d40dcec3b25,62c539d01ea850893376a8dc,2022-07-06_24h29.51.491,Colour_Asymmetry_Pilot,2022.1.3,Win32,60.43756799,62c50e9c1127f2cd403a315f,0,33,33,149,1,threefour,,,,,,,,,,,,,,,,,,,,,,,,,,,,,,,,,,,,,,,,,,,,,,,,,,,,,,,,,,,,,,,,,,,,,,,,,,,,,,,,,,,,,,,,,,,,,,,,,,,,,,,,,,,,,,,,,,,,,,,,,,,,,,,,,,,,,,,,,,,,,,,,,,,,,,,,,,,,,
,,,,,,615513578b8c1d40dcec3b25,62c539d01ea850893376a8dc,2022-07-06_24h29.51.491,Colour_Asymmetry_Pilot,2022.1.3,Win32,60.43756799,62c50e9c1127f2cd403a315f,0,34,34,160,1,onetwo,,,,,,,,,,,,,,,,,,,,,,,,,,,,,,,,,,,,,,,,,,,,,,,,,,,,,,,,,,,,,,,,,,,,,,,,,,,,,,,,,,,,,,,,,,,,,,,,,,,,,,,,,,,,,,,,,,,,,,,,,,,,,,,,,,,,,,,,,,,,,,,,,,,,,,,,,,,,,
,,,,,,615513578b8c1d40dcec3b25,62c539d01ea850893376a8dc,2022-07-06_24h29.51.491,Colour_Asymmetry_Pilot,2022.1.3,Win32,60.43756799,62c50e9c1127f2cd403a315f,0,35,35,87,1,fourthree,,,,,,,,,,,,,,,,,,,,,,,,,,,,,,,,,,,,,,,,,,,,,,,,,,,,,,,,,,,,,,,,,,,,,,,,,,,,,,,,,,,,,,,,,,,,,,,,,,,,,,,,,,,,,,,,,,,,,,,,,,,,,,,,,,,,,,,,,,,,,,,,,,,,,,,,,,,,,
,,,,,,615513578b8c1d40dcec3b25,62c539d01ea850893376a8dc,2022-07-06_24h29.51.491,Colour_Asymmetry_Pilot,2022.1.3,Win32,60.43756799,62c50e9c1127f2cd403a315f,0,36,36,39,1,fourthree,,,,,,,,,,,,,,,,,,,,,,,,,,,,,,,,,,,,,,,,,,,,,,,,,,,,,,,,,,,,,,,,,,,,,,,,,,,,,,,,,,,,,,,,,,,,,,,,,,,,,,,,,,,,,,,,,,,,,,,,,,,,,,,,,,,,,,,,,,,,,,,,,,,,,,,,,,,,,
,,,,,,615513578b8c1d40dcec3b25,62c539d01ea850893376a8dc,2022-07-06_24h29.51.491,Colour_Asymmetry_Pilot,2022.1.3,Win32,60.43756799,62c50e9c1127f2cd403a315f,0,37,37,64,1,onetwo,,,,,,,,,,,,,,,,,,,,,,,,,,,,,,,,,,,,,,,,,,,,,,,,,,,,,,,,,,,,,,,,,,,,,,,,,,,,,,,,,,,,,,,,,,,,,,,,,,,,,,,,,,,,,,,,,,,,,,,,,,,,,,,,,,,,,,,,,,,,,,,,,,,,,,,,,,,,,
,,,,,,615513578b8c1d40dcec3b25,62c539d01ea850893376a8dc,2022-07-06_24h29.51.491,Colour_Asymmetry_Pilot,2022.1.3,Win32,60.43756799,62c50e9c1127f2cd403a315f,0,38,38,161,1,onethree,,,,,,,,,,,,,,,,,,,,,,,,,,,,,,,,,,,,,,,,,,,,,,,,,,,,,,,,,,,,,,,,,,,,,,,,,,,,,,,,,,,,,,,,,,,,,,,,,,,,,,,,,,,,,,,,,,,,,,,,,,,,,,,,,,,,,,,,,,,,,,,,,,,,,,,,,,,,,
,,,,,,615513578b8c1d40dcec3b25,62c539d01ea850893376a8dc,2022-07-06_24h29.51.491,Colour_Asymmetry_Pilot,2022.1.3,Win32,60.43756799,62c50e9c1127f2cd403a315f,0,39,39,34,1,twoone,,,,,,,,,,,,,,,,,,,,,,,,,,,,,,,,,,,,,,,,,,,,,,,,,,,,,,,,,,,,,,,,,,,,,,,,,,,,,,,,,,,,,,,,,,,,,,,,,,,,,,,,,,,,,,,,,,,,,,,,,,,,,,,,,,,,,,,,,,,,,,,,,,,,,,,,,,,,,
,,,,,,615513578b8c1d40dcec3b25,62c539d01ea850893376a8dc,2022-07-06_24h29.51.491,Colour_Asymmetry_Pilot,2022.1.3,Win32,60.43756799,62c50e9c1127f2cd403a315f,0,40,40,72,1,onetwo,,,,,,,,,,,,,,,,,,,,,,,,,,,,,,,,,,,,,,,,,,,,,,,,,,,,,,,,,,,,,,,,,,,,,,,,,,,,,,,,,,,,,,,,,,,,,,,,,,,,,,,,,,,,,,,,,,,,,,,,,,,,,,,,,,,,,,,,,,,,,,,,,,,,,,,,,,,,,
,,,,,,615513578b8c1d40dcec3b25,62c539d01ea850893376a8dc,2022-07-06_24h29.51.491,Colour_Asymmetry_Pilot,2022.1.3,Win32,60.43756799,62c50e9c1127f2cd403a315f,0,41,41,48,1,onetwo,,,,,,,,,,,,,,,,,,,,,,,,,,,,,,,,,,,,,,,,,,,,,,,,,,,,,,,,,,,,,,,,,,,,,,,,,,,,,,,,,,,,,,,,,,,,,,,,,,,,,,,,,,,,,,,,,,,,,,,,,,,,,,,,,,,,,,,,,,,,,,,,,,,,,,,,,,,,,
,,,,,,615513578b8c1d40dcec3b25,62c539d01ea850893376a8dc,2022-07-06_24h29.51.491,Colour_Asymmetry_Pilot,2022.1.3,Win32,60.43756799,62c50e9c1127f2cd403a315f,0,42,42,59,1,twofour,,,,,,,,,,,,,,,,,,,,,,,,,,,,,,,,,,,,,,,,,,,,,,,,,,,,,,,,,,,,,,,,,,,,,,,,,,,,,,,,,,,,,,,,,,,,,,,,,,,,,,,,,,,,,,,,,,,,,,,,,,,,,,,,,,,,,,,,,,,,,,,,,,,,,,,,,,,,,
,,,,,,615513578b8c1d40dcec3b25,62c539d01ea850893376a8dc,2022-07-06_24h29.51.491,Colour_Asymmetry_Pilot,2022.1.3,Win32,60.43756799,62c50e9c1127f2cd403a315f,0,43,43,56,1,onetwo,,,,,,,,,,,,,,,,,,,,,,,,,,,,,,,,,,,,,,,,,,,,,,,,,,,,,,,,,,,,,,,,,,,,,,,,,,,,,,,,,,,,,,,,,,,,,,,,,,,,,,,,,,,,,,,,,,,,,,,,,,,,,,,,,,,,,,,,,,,,,,,,,,,,,,,,,,,,,
,,,,,,615513578b8c1d40dcec3b25,62c539d01ea850893376a8dc,2022-07-06_24h29.51.491,Colour_Asymmetry_Pilot,2022.1.3,Win32,60.43756799,62c50e9c1127f2cd403a315f,0,44,44,40,1,onetwo,,,,,,,,,,,,,,,,,,,,,,,,,,,,,,,,,,,,,,,,,,,,,,,,,,,,,,,,,,,,,,,,,,,,,,,,,,,,,,,,,,,,,,,,,,,,,,,,,,,,,,,,,,,,,,,,,,,,,,,,,,,,,,,,,,,,,,,,,,,,,,,,,,,,,,,,,,,,,
,,,,,,615513578b8c1d40dcec3b25,62c539d01ea850893376a8dc,2022-07-06_24h29.51.491,Colour_Asymmetry_Pilot,2022.1.3,Win32,60.43756799,62c50e9c1127f2cd403a315f,0,45,45,95,1,fourthree,,,,,,,,,,,,,,,,,,,,,,,,,,,,,,,,,,,,,,,,,,,,,,,,,,,,,,,,,,,,,,,,,,,,,,,,,,,,,,,,,,,,,,,,,,,,,,,,,,,,,,,,,,,,,,,,,,,,,,,,,,,,,,,,,,,,,,,,,,,,,,,,,,,,,,,,,,,,,
,,,,,,615513578b8c1d40dcec3b25,62c539d01ea850893376a8dc,2022-07-06_24h29.51.491,Colour_Asymmetry_Pilot,2022.1.3,Win32,60.43756799,62c50e9c1127f2cd403a315f,0,46,46,79,1,fourthree,,,,,,,,,,,,,,,,,,,,,,,,,,,,,,,,,,,,,,,,,,,,,,,,,,,,,,,,,,,,,,,,,,,,,,,,,,,,,,,,,,,,,,,,,,,,,,,,,,,,,,,,,,,,,,,,,,,,,,,,,,,,,,,,,,,,,,,,,,,,,,,,,,,,,,,,,,,,,
,,,,,,615513578b8c1d40dcec3b25,62c539d01ea850893376a8dc,2022-07-06_24h29.51.491,Colour_Asymmetry_Pilot,2022.1.3,Win32,60.43756799,62c50e9c1127f2cd403a315f,0,47,47,23,1,fourthree,,,,,,,,,,,,,,,,,,,,,,,,,,,,,,,,,,,,,,,,,,,,,,,,,,,,,,,,,,,,,,,,,,,,,,,,,,,,,,,,,,,,,,,,,,,,,,,,,,,,,,,,,,,,,,,,,,,,,,,,,,,,,,,,,,,,,,,,,,,,,,,,,,,,,,,,,,,,,
,,,,,,615513578b8c1d40dcec3b25,62c539d01ea850893376a8dc,2022-07-06_24h29.51.491,Colour_Asymmetry_Pilot,2022.1.3,Win32,60.43756799,62c50e9c1127f2cd403a315f,0,48,48,147,1,twofour,,,,,,,,,,,,,,,,,,,,,,,,,,,,,,,,,,,,,,,,,,,,,,,,,,,,,,,,,,,,,,,,,,,,,,,,,,,,,,,,,,,,,,,,,,,,,,,,,,,,,,,,,,,,,,,,,,,,,,,,,,,,,,,,,,,,,,,,,,,,,,,,,,,,,,,,,,,,,
,,,,,,615513578b8c1d40dcec3b25,62c539d01ea850893376a8dc,2022-07-06_24h29.51.491,Colour_Asymmetry_Pilot,2022.1.3,Win32,60.43756799,62c50e9c1127f2cd403a315f,0,49,49,20,1,threeone,,,,,,,,,,,,,,,,,,,,,,,,,,,,,,,,,,,,,,,,,,,,,,,,,,,,,,,,,,,,,,,,,,,,,,,,,,,,,,,,,,,,,,,,,,,,,,,,,,,,,,,,,,,,,,,,,,,,,,,,,,,,,,,,,,,,,,,,,,,,,,,,,,,,,,,,,,,,,
,,,,,,615513578b8c1d40dcec3b25,62c539d01ea850893376a8dc,2022-07-06_24h29.51.491,Colour_Asymmetry_Pilot,2022.1.3,Win32,60.43756799,62c50e9c1127f2cd403a315f,0,50,50,157,1,threefour,,,,,,,,,,,,,,,,,,,,,,,,,,,,,,,,,,,,,,,,,,,,,,,,,,,,,,,,,,,,,,,,,,,,,,,,,,,,,,,,,,,,,,,,,,,,,,,,,,,,,,,,,,,,,,,,,,,,,,,,,,,,,,,,,,,,,,,,,,,,,,,,,,,,,,,,,,,,,
,,,,,,615513578b8c1d40dcec3b25,62c539d01ea850893376a8dc,2022-07-06_24h29.51.491,Colour_Asymmetry_Pilot,2022.1.3,Win32,60.43756799,62c50e9c1127f2cd403a315f,0,51,51,70,1,fourtwo,,,,,,,,,,,,,,,,,,,,,,,,,,,,,,,,,,,,,,,,,,,,,,,,,,,,,,,,,,,,,,,,,,,,,,,,,,,,,,,,,,,,,,,,,,,,,,,,,,,,,,,,,,,,,,,,,,,,,,,,,,,,,,,,,,,,,,,,,,,,,,,,,,,,,,,,,,,,,
,,,,,,615513578b8c1d40dcec3b25,62c539d01ea850893376a8dc,2022-07-06_24h29.51.491,Colour_Asymmetry_Pilot,2022.1.3,Win32,60.43756799,62c50e9c1127f2cd403a315f,0,52,52,146,1,twoone,,,,,,,,,,,,,,,,,,,,,,,,,,,,,,,,,,,,,,,,,,,,,,,,,,,,,,,,,,,,,,,,,,,,,,,,,,,,,,,,,,,,,,,,,,,,,,,,,,,,,,,,,,,,,,,,,,,,,,,,,,,,,,,,,,,,,,,,,,,,,,,,,,,,,,,,,,,,,
,,,,,,615513578b8c1d40dcec3b25,62c539d01ea850893376a8dc,2022-07-06_24h29.51.491,Colour_Asymmetry_Pilot,2022.1.3,Win32,60.43756799,62c50e9c1127f2cd403a315f,0,53,53,96,1,onetwo,,,,,,,,,,,,,,,,,,,,,,,,,,,,,,,,,,,,,,,,,,,,,,,,,,,,,,,,,,,,,,,,,,,,,,,,,,,,,,,,,,,,,,,,,,,,,,,,,,,,,,,,,,,,,,,,,,,,,,,,,,,,,,,,,,,,,,,,,,,,,,,,,,,,,,,,,,,,,
,,,,,,615513578b8c1d40dcec3b25,62c539d01ea850893376a8dc,2022-07-06_24h29.51.491,Colour_Asymmetry_Pilot,2022.1.3,Win32,60.43756799,62c50e9c1127f2cd403a315f,0,54,54,117,1,threefour,,,,,,,,,,,,,,,,,,,,,,,,,,,,,,,,,,,,,,,,,,,,,,,,,,,,,,,,,,,,,,,,,,,,,,,,,,,,,,,,,,,,,,,,,,,,,,,,,,,,,,,,,,,,,,,,,,,,,,,,,,,,,,,,,,,,,,,,,,,,,,,,,,,,,,,,,,,,,
,,,,,,615513578b8c1d40dcec3b25,62c539d01ea850893376a8dc,2022-07-06_24h29.51.491,Colour_Asymmetry_Pilot,2022.1.3,Win32,60.43756799,62c50e9c1127f2cd403a315f,0,55,55,142,1,fourtwo,,,,,,,,,,,,,,,,,,,,,,,,,,,,,,,,,,,,,,,,,,,,,,,,,,,,,,,,,,,,,,,,,,,,,,,,,,,,,,,,,,,,,,,,,,,,,,,,,,,,,,,,,,,,,,,,,,,,,,,,,,,,,,,,,,,,,,,,,,,,,,,,,,,,,,,,,,,,,
,,,,,,615513578b8c1d40dcec3b25,62c539d01ea850893376a8dc,2022-07-06_24h29.51.491,Colour_Asymmetry_Pilot,2022.1.3,Win32,60.43756799,62c50e9c1127f2cd403a315f,0,56,56,63,1,fourthree,,,,,,,,,,,,,,,,,,,,,,,,,,,,,,,,,,,,,,,,,,,,,,,,,,,,,,,,,,,,,,,,,,,,,,,,,,,,,,,,,,,,,,,,,,,,,,,,,,,,,,,,,,,,,,,,,,,,,,,,,,,,,,,,,,,,,,,,,,,,,,,,,,,,,,,,,,,,,
,,,,,,615513578b8c1d40dcec3b25,62c539d01ea850893376a8dc,2022-07-06_24h29.51.491,Colour_Asymmetry_Pilot,2022.1.3,Win32,60.43756799,62c50e9c1127f2cd403a315f,0,57,57,50,1,twoone,,,,,,,,,,,,,,,,,,,,,,,,,,,,,,,,,,,,,,,,,,,,,,,,,,,,,,,,,,,,,,,,,,,,,,,,,,,,,,,,,,,,,,,,,,,,,,,,,,,,,,,,,,,,,,,,,,,,,,,,,,,,,,,,,,,,,,,,,,,,,,,,,,,,,,,,,,,,,
,,,,,,615513578b8c1d40dcec3b25,62c539d01ea850893376a8dc,2022-07-06_24h29.51.491,Colour_Asymmetry_Pilot,2022.1.3,Win32,60.43756799,62c50e9c1127f2cd403a315f,0,58,58,4,1,threeone,,,,,,,,,,,,,,,,,,,,,,,,,,,,,,,,,,,,,,,,,,,,,,,,,,,,,,,,,,,,,,,,,,,,,,,,,,,,,,,,,,,,,,,,,,,,,,,,,,,,,,,,,,,,,,,,,,,,,,,,,,,,,,,,,,,,,,,,,,,,,,,,,,,,,,,,,,,,,
,,,,,,615513578b8c1d40dcec3b25,62c539d01ea850893376a8dc,2022-07-06_24h29.51.491,Colour_Asymmetry_Pilot,2022.1.3,Win32,60.43756799,62c50e9c1127f2cd403a315f,0,59,59,25,1,onethree,,,,,,,,,,,,,,,,,,,,,,,,,,,,,,,,,,,,,,,,,,,,,,,,,,,,,,,,,,,,,,,,,,,,,,,,,,,,,,,,,,,,,,,,,,,,,,,,,,,,,,,,,,,,,,,,,,,,,,,,,,,,,,,,,,,,,,,,,,,,,,,,,,,,,,,,,,,,,
,,,,,,615513578b8c1d40dcec3b25,62c539d01ea850893376a8dc,2022-07-06_24h29.51.491,Colour_Asymmetry_Pilot,2022.1.3,Win32,60.43756799,62c50e9c1127f2cd403a315f,0,60,60,15,1,fourthree,,,,,,,,,,,,,,,,,,,,,,,,,,,,,,,,,,,,,,,,,,,,,,,,,,,,,,,,,,,,,,,,,,,,,,,,,,,,,,,,,,,,,,,,,,,,,,,,,,,,,,,,,,,,,,,,,,,,,,,,,,,,,,,,,,,,,,,,,,,,,,,,,,,,,,,,,,,,,
,,,,,,615513578b8c1d40dcec3b25,62c539d01ea850893376a8dc,2022-07-06_24h29.51.491,Colour_Asymmetry_Pilot,2022.1.3,Win32,60.43756799,62c50e9c1127f2cd403a315f,0,61,61,156,1,threeone,,,,,,,,,,,,,,,,,,,,,,,,,,,,,,,,,,,,,,,,,,,,,,,,,,,,,,,,,,,,,,,,,,,,,,,,,,,,,,,,,,,,,,,,,,,,,,,,,,,,,,,,,,,,,,,,,,,,,,,,,,,,,,,,,,,,,,,,,,,,,,,,,,,,,,,,,,,,,
,,,,,,615513578b8c1d40dcec3b25,62c539d01ea850893376a8dc,2022-07-06_24h29.51.491,Colour_Asymmetry_Pilot,2022.1.3,Win32,60.43756799,62c50e9c1127f2cd403a315f,0,62,62,85,1,threefour,,,,,,,,,,,,,,,,,,,,,,,,,,,,,,,,,,,,,,,,,,,,,,,,,,,,,,,,,,,,,,,,,,,,,,,,,,,,,,,,,,,,,,,,,,,,,,,,,,,,,,,,,,,,,,,,,,,,,,,,,,,,,,,,,,,,,,,,,,,,,,,,,,,,,,,,,,,,,
,,,,,,615513578b8c1d40dcec3b25,62c539d01ea850893376a8dc,2022-07-06_24h29.51.491,Colour_Asymmetry_Pilot,2022.1.3,Win32,60.43756799,62c50e9c1127f2cd403a315f,0,63,63,77,1,threefour,,,,,,,,,,,,,,,,,,,,,,,,,,,,,,,,,,,,,,,,,,,,,,,,,,,,,,,,,,,,,,,,,,,,,,,,,,,,,,,,,,,,,,,,,,,,,,,,,,,,,,,,,,,,,,,,,,,,,,,,,,,,,,,,,,,,,,,,,,,,,,,,,,,,,,,,,,,,,
,,,,,,615513578b8c1d40dcec3b25,62c539d01ea850893376a8dc,2022-07-06_24h29.51.491,Colour_Asymmetry_Pilot,2022.1.3,Win32,60.43756799,62c50e9c1127f2cd403a315f,0,64,64,22,1,fourtwo,,,,,,,,,,,,,,,,,,,,,,,,,,,,,,,,,,,,,,,,,,,,,,,,,,,,,,,,,,,,,,,,,,,,,,,,,,,,,,,,,,,,,,,,,,,,,,,,,,,,,,,,,,,,,,,,,,,,,,,,,,,,,,,,,,,,,,,,,,,,,,,,,,,,,,,,,,,,,
,,,,,,615513578b8c1d40dcec3b25,62c539d01ea850893376a8dc,2022-07-06_24h29.51.491,Colour_Asymmetry_Pilot,2022.1.3,Win32,60.43756799,62c50e9c1127f2cd403a315f,0,65,65,19,1,twofour,,,,,,,,,,,,,,,,,,,,,,,,,,,,,,,,,,,,,,,,,,,,,,,,,,,,,,,,,,,,,,,,,,,,,,,,,,,,,,,,,,,,,,,,,,,,,,,,,,,,,,,,,,,,,,,,,,,,,,,,,,,,,,,,,,,,,,,,,,,,,,,,,,,,,,,,,,,,,
,,,,,,615513578b8c1d40dcec3b25,62c539d01ea850893376a8dc,2022-07-06_24h29.51.491,Colour_Asymmetry_Pilot,2022.1.3,Win32,60.43756799,62c50e9c1127f2cd403a315f,0,66,66,107,1,twofour,,,,,,,,,,,,,,,,,,,,,,,,,,,,,,,,,,,,,,,,,,,,,,,,,,,,,,,,,,,,,,,,,,,,,,,,,,,,,,,,,,,,,,,,,,,,,,,,,,,,,,,,,,,,,,,,,,,,,,,,,,,,,,,,,,,,,,,,,,,,,,,,,,,,,,,,,,,,,
,,,,,,615513578b8c1d40dcec3b25,62c539d01ea850893376a8dc,2022-07-06_24h29.51.491,Colour_Asymmetry_Pilot,2022.1.3,Win32,60.43756799,62c50e9c1127f2cd403a315f,0,67,67,17,1,onethree,,,,,,,,,,,,,,,,,,,,,,,,,,,,,,,,,,,,,,,,,,,,,,,,,,,,,,,,,,,,,,,,,,,,,,,,,,,,,,,,,,,,,,,,,,,,,,,,,,,,,,,,,,,,,,,,,,,,,,,,,,,,,,,,,,,,,,,,,,,,,,,,,,,,,,,,,,,,,
,,,,,,615513578b8c1d40dcec3b25,62c539d01ea850893376a8dc,2022-07-06_24h29.51.491,Colour_Asymmetry_Pilot,2022.1.3,Win32,60.43756799,62c50e9c1127f2cd403a315f,0,68,68,26,1,twoone,,,,,,,,,,,,,,,,,,,,,,,,,,,,,,,,,,,,,,,,,,,,,,,,,,,,,,,,,,,,,,,,,,,,,,,,,,,,,,,,,,,,,,,,,,,,,,,,,,,,,,,,,,,,,,,,,,,,,,,,,,,,,,,,,,,,,,,,,,,,,,,,,,,,,,,,,,,,,
,,,,,,615513578b8c1d40dcec3b25,62c539d01ea850893376a8dc,2022-07-06_24h29.51.491,Colour_Asymmetry_Pilot,2022.1.3,Win32,60.43756799,62c50e9c1127f2cd403a315f,0,69,69,103,1,fourthree,,,,,,,,,,,,,,,,,,,,,,,,,,,,,,,,,,,,,,,,,,,,,,,,,,,,,,,,,,,,,,,,,,,,,,,,,,,,,,,,,,,,,,,,,,,,,,,,,,,,,,,,,,,,,,,,,,,,,,,,,,,,,,,,,,,,,,,,,,,,,,,,,,,,,,,,,,,,,
,,,,,,615513578b8c1d40dcec3b25,62c539d01ea850893376a8dc,2022-07-06_24h29.51.491,Colour_Asymmetry_Pilot,2022.1.3,Win32,60.43756799,62c50e9c1127f2cd403a315f,0,70,70,46,1,fourtwo,,,,,,,,,,,,,,,,,,,,,,,,,,,,,,,,,,,,,,,,,,,,,,,,,,,,,,,,,,,,,,,,,,,,,,,,,,,,,,,,,,,,,,,,,,,,,,,,,,,,,,,,,,,,,,,,,,,,,,,,,,,,,,,,,,,,,,,,,,,,,,,,,,,,,,,,,,,,,
,,,,,,615513578b8c1d40dcec3b25,62c539d01ea850893376a8dc,2022-07-06_24h29.51.491,Colour_Asymmetry_Pilot,2022.1.3,Win32,60.43756799,62c50e9c1127f2cd403a315f,0,71,71,106,1,twoone,,,,,,,,,,,,,,,,,,,,,,,,,,,,,,,,,,,,,,,,,,,,,,,,,,,,,,,,,,,,,,,,,,,,,,,,,,,,,,,,,,,,,,,,,,,,,,,,,,,,,,,,,,,,,,,,,,,,,,,,,,,,,,,,,,,,,,,,,,,,,,,,,,,,,,,,,,,,,
,,,,,,615513578b8c1d40dcec3b25,62c539d01ea850893376a8dc,2022-07-06_24h29.51.491,Colour_Asymmetry_Pilot,2022.1.3,Win32,60.43756799,62c50e9c1127f2cd403a315f,0,72,72,154,1,twoone,,,,,,,,,,,,,,,,,,,,,,,,,,,,,,,,,,,,,,,,,,,,,,,,,,,,,,,,,,,,,,,,,,,,,,,,,,,,,,,,,,,,,,,,,,,,,,,,,,,,,,,,,,,,,,,,,,,,,,,,,,,,,,,,,,,,,,,,,,,,,,,,,,,,,,,,,,,,,
,,,,,,615513578b8c1d40dcec3b25,62c539d01ea850893376a8dc,2022-07-06_24h29.51.491,Colour_Asymmetry_Pilot,2022.1.3,Win32,60.43756799,62c50e9c1127f2cd403a315f,0,73,73,125,1,threefour,,,,,,,,,,,,,,,,,,,,,,,,,,,,,,,,,,,,,,,,,,,,,,,,,,,,,,,,,,,,,,,,,,,,,,,,,,,,,,,,,,,,,,,,,,,,,,,,,,,,,,,,,,,,,,,,,,,,,,,,,,,,,,,,,,,,,,,,,,,,,,,,,,,,,,,,,,,,,
,,,,,,615513578b8c1d40dcec3b25,62c539d01ea850893376a8dc,2022-07-06_24h29.51.491,Colour_Asymmetry_Pilot,2022.1.3,Win32,60.43756799,62c50e9c1127f2cd403a315f,0,74,74,51,1,twofour,,,,,,,,,,,,,,,,,,,,,,,,,,,,,,,,,,,,,,,,,,,,,,,,,,,,,,,,,,,,,,,,,,,,,,,,,,,,,,,,,,,,,,,,,,,,,,,,,,,,,,,,,,,,,,,,,,,,,,,,,,,,,,,,,,,,,,,,,,,,,,,,,,,,,,,,,,,,,
,,,,,,615513578b8c1d40dcec3b25,62c539d01ea850893376a8dc,2022-07-06_24h29.51.491,Colour_Asymmetry_Pilot,2022.1.3,Win32,60.43756799,62c50e9c1127f2cd403a315f,0,75,75,53,1,threefour,,,,,,,,,,,,,,,,,,,,,,,,,,,,,,,,,,,,,,,,,,,,,,,,,,,,,,,,,,,,,,,,,,,,,,,,,,,,,,,,,,,,,,,,,,,,,,,,,,,,,,,,,,,,,,,,,,,,,,,,,,,,,,,,,,,,,,,,,,,,,,,,,,,,,,,,,,,,,
,,,,,,615513578b8c1d40dcec3b25,62c539d01ea850893376a8dc,2022-07-06_24h29.51.491,Colour_Asymmetry_Pilot,2022.1.3,Win32,60.43756799,62c50e9c1127f2cd403a315f,0,76,76,112,1,onetwo,,,,,,,,,,,,,,,,,,,,,,,,,,,,,,,,,,,,,,,,,,,,,,,,,,,,,,,,,,,,,,,,,,,,,,,,,,,,,,,,,,,,,,,,,,,,,,,,,,,,,,,,,,,,,,,,,,,,,,,,,,,,,,,,,,,,,,,,,,,,,,,,,,,,,,,,,,,,,
,,,,,,615513578b8c1d40dcec3b25,62c539d01ea850893376a8dc,2022-07-06_24h29.51.491,Colour_Asymmetry_Pilot,2022.1.3,Win32,60.43756799,62c50e9c1127f2cd403a315f,0,77,77,116,1,threeone,,,,,,,,,,,,,,,,,,,,,,,,,,,,,,,,,,,,,,,,,,,,,,,,,,,,,,,,,,,,,,,,,,,,,,,,,,,,,,,,,,,,,,,,,,,,,,,,,,,,,,,,,,,,,,,,,,,,,,,,,,,,,,,,,,,,,,,,,,,,,,,,,,,,,,,,,,,,,
,,,,,,615513578b8c1d40dcec3b25,62c539d01ea850893376a8dc,2022-07-06_24h29.51.491,Colour_Asymmetry_Pilot,2022.1.3,Win32,60.43756799,62c50e9c1127f2cd403a315f,0,78,78,45,1,threefour,,,,,,,,,,,,,,,,,,,,,,,,,,,,,,,,,,,,,,,,,,,,,,,,,,,,,,,,,,,,,,,,,,,,,,,,,,,,,,,,,,,,,,,,,,,,,,,,,,,,,,,,,,,,,,,,,,,,,,,,,,,,,,,,,,,,,,,,,,,,,,,,,,,,,,,,,,,,,
,,,,,,615513578b8c1d40dcec3b25,62c539d01ea850893376a8dc,2022-07-06_24h29.51.491,Colour_Asymmetry_Pilot,2022.1.3,Win32,60.43756799,62c50e9c1127f2cd403a315f,0,79,79,80,1,onetwo,,,,,,,,,,,,,,,,,,,,,,,,,,,,,,,,,,,,,,,,,,,,,,,,,,,,,,,,,,,,,,,,,,,,,,,,,,,,,,,,,,,,,,,,,,,,,,,,,,,,,,,,,,,,,,,,,,,,,,,,,,,,,,,,,,,,,,,,,,,,,,,,,,,,,,,,,,,,,
,,,,,,615513578b8c1d40dcec3b25,62c539d01ea850893376a8dc,2022-07-06_24h29.51.491,Colour_Asymmetry_Pilot,2022.1.3,Win32,60.43756799,62c50e9c1127f2cd403a315f,0,80,80,12,1,threeone,,,,,,,,,,,,,,,,,,,,,,,,,,,,,,,,,,,,,,,,,,,,,,,,,,,,,,,,,,,,,,,,,,,,,,,,,,,,,,,,,,,,,,,,,,,,,,,,,,,,,,,,,,,,,,,,,,,,,,,,,,,,,,,,,,,,,,,,,,,,,,,,,,,,,,,,,,,,,
,,,,,,615513578b8c1d40dcec3b25,62c539d01ea850893376a8dc,2022-07-06_24h29.51.491,Colour_Asymmetry_Pilot,2022.1.3,Win32,60.43756799,62c50e9c1127f2cd403a315f,0,81,81,124,1,threeone,,,,,,,,,,,,,,,,,,,,,,,,,,,,,,,,,,,,,,,,,,,,,,,,,,,,,,,,,,,,,,,,,,,,,,,,,,,,,,,,,,,,,,,,,,,,,,,,,,,,,,,,,,,,,,,,,,,,,,,,,,,,,,,,,,,,,,,,,,,,,,,,,,,,,,,,,,,,,
,,,,,,615513578b8c1d40dcec3b25,62c539d01ea850893376a8dc,2022-07-06_24h29.51.491,Colour_Asymmetry_Pilot,2022.1.3,Win32,60.43756799,62c50e9c1127f2cd403a315f,0,82,82,37,1,threefour,,,,,,,,,,,,,,,,,,,,,,,,,,,,,,,,,,,,,,,,,,,,,,,,,,,,,,,,,,,,,,,,,,,,,,,,,,,,,,,,,,,,,,,,,,,,,,,,,,,,,,,,,,,,,,,,,,,,,,,,,,,,,,,,,,,,,,,,,,,,,,,,,,,,,,,,,,,,,
,,,,,,615513578b8c1d40dcec3b25,62c539d01ea850893376a8dc,2022-07-06_24h29.51.491,Colour_Asymmetry_Pilot,2022.1.3,Win32,60.43756799,62c50e9c1127f2cd403a315f,0,83,83,93,1,threefour,,,,,,,,,,,,,,,,,,,,,,,,,,,,,,,,,,,,,,,,,,,,,,,,,,,,,,,,,,,,,,,,,,,,,,,,,,,,,,,,,,,,,,,,,,,,,,,,,,,,,,,,,,,,,,,,,,,,,,,,,,,,,,,,,,,,,,,,,,,,,,,,,,,,,,,,,,,,,
,,,,,,615513578b8c1d40dcec3b25,62c539d01ea850893376a8dc,2022-07-06_24h29.51.491,Colour_Asymmetry_Pilot,2022.1.3,Win32,60.43756799,62c50e9c1127f2cd403a315f,0,84,84,158,1,fourtwo,,,,,,,,,,,,,,,,,,,,,,,,,,,,,,,,,,,,,,,,,,,,,,,,,,,,,,,,,,,,,,,,,,,,,,,,,,,,,,,,,,,,,,,,,,,,,,,,,,,,,,,,,,,,,,,,,,,,,,,,,,,,,,,,,,,,,,,,,,,,,,,,,,,,,,,,,,,,,
,,,,,,615513578b8c1d40dcec3b25,62c539d01ea850893376a8dc,2022-07-06_24h29.51.491,Colour_Asymmetry_Pilot,2022.1.3,Win32,60.43756799,62c50e9c1127f2cd403a315f,0,85,85,131,1,twofour,,,,,,,,,,,,,,,,,,,,,,,,,,,,,,,,,,,,,,,,,,,,,,,,,,,,,,,,,,,,,,,,,,,,,,,,,,,,,,,,,,,,,,,,,,,,,,,,,,,,,,,,,,,,,,,,,,,,,,,,,,,,,,,,,,,,,,,,,,,,,,,,,,,,,,,,,,,,,
,,,,,,615513578b8c1d40dcec3b25,62c539d01ea850893376a8dc,2022-07-06_24h29.51.491,Colour_Asymmetry_Pilot,2022.1.3,Win32,60.43756799,62c50e9c1127f2cd403a315f,0,86,86,35,1,twofour,,,,,,,,,,,,,,,,,,,,,,,,,,,,,,,,,,,,,,,,,,,,,,,,,,,,,,,,,,,,,,,,,,,,,,,,,,,,,,,,,,,,,,,,,,,,,,,,,,,,,,,,,,,,,,,,,,,,,,,,,,,,,,,,,,,,,,,,,,,,,,,,,,,,,,,,,,,,,
,,,,,,615513578b8c1d40dcec3b25,62c539d01ea850893376a8dc,2022-07-06_24h29.51.491,Colour_Asymmetry_Pilot,2022.1.3,Win32,60.43756799,62c50e9c1127f2cd403a315f,0,87,87,36,1,threeone,,,,,,,,,,,,,,,,,,,,,,,,,,,,,,,,,,,,,,,,,,,,,,,,,,,,,,,,,,,,,,,,,,,,,,,,,,,,,,,,,,,,,,,,,,,,,,,,,,,,,,,,,,,,,,,,,,,,,,,,,,,,,,,,,,,,,,,,,,,,,,,,,,,,,,,,,,,,,
,,,,,,615513578b8c1d40dcec3b25,62c539d01ea850893376a8dc,2022-07-06_24h29.51.491,Colour_Asymmetry_Pilot,2022.1.3,Win32,60.43756799,62c50e9c1127f2cd403a315f,0,88,88,119,1,fourthree,,,,,,,,,,,,,,,,,,,,,,,,,,,,,,,,,,,,,,,,,,,,,,,,,,,,,,,,,,,,,,,,,,,,,,,,,,,,,,,,,,,,,,,,,,,,,,,,,,,,,,,,,,,,,,,,,,,,,,,,,,,,,,,,,,,,,,,,,,,,,,,,,,,,,,,,,,,,,
,,,,,,615513578b8c1d40dcec3b25,62c539d01ea850893376a8dc,2022-07-06_24h29.51.491,Colour_Asymmetry_Pilot,2022.1.3,Win32,60.43756799,62c50e9c1127f2cd403a315f,0,89,89,67,1,twofour,,,,,,,,,,,,,,,,,,,,,,,,,,,,,,,,,,,,,,,,,,,,,,,,,,,,,,,,,,,,,,,,,,,,,,,,,,,,,,,,,,,,,,,,,,,,,,,,,,,,,,,,,,,,,,,,,,,,,,,,,,,,,,,,,,,,,,,,,,,,,,,,,,,,,,,,,,,,,
,,,,,,615513578b8c1d40dcec3b25,62c539d01ea850893376a8dc,2022-07-06_24h29.51.491,Colour_Asymmetry_Pilot,2022.1.3,Win32,60.43756799,62c50e9c1127f2cd403a315f,0,90,90,150,1,fourtwo,,,,,,,,,,,,,,,,,,,,,,,,,,,,,,,,,,,,,,,,,,,,,,,,,,,,,,,,,,,,,,,,,,,,,,,,,,,,,,,,,,,,,,,,,,,,,,,,,,,,,,,,,,,,,,,,,,,,,,,,,,,,,,,,,,,,,,,,,,,,,,,,,,,,,,,,,,,,,
,,,,,,615513578b8c1d40dcec3b25,62c539d01ea850893376a8dc,2022-07-06_24h29.51.491,Colour_Asymmetry_Pilot,2022.1.3,Win32,60.43756799,62c50e9c1127f2cd403a315f,0,91,91,136,1,onetwo,,,,,,,,,,,,,,,,,,,,,,,,,,,,,,,,,,,,,,,,,,,,,,,,,,,,,,,,,,,,,,,,,,,,,,,,,,,,,,,,,,,,,,,,,,,,,,,,,,,,,,,,,,,,,,,,,,,,,,,,,,,,,,,,,,,,,,,,,,,,,,,,,,,,,,,,,,,,,
,,,,,,615513578b8c1d40dcec3b25,62c539d01ea850893376a8dc,2022-07-06_24h29.51.491,Colour_Asymmetry_Pilot,2022.1.3,Win32,60.43756799,62c50e9c1127f2cd403a315f,0,92,92,0,1,onetwo,,,,,,,,,,,,,,,,,,,,,,,,,,,,,,,,,,,,,,,,,,,,,,,,,,,,,,,,,,,,,,,,,,,,,,,,,,,,,,,,,,,,,,,,,,,,,,,,,,,,,,,,,,,,,,,,,,,,,,,,,,,,,,,,,,,,,,,,,,,,,,,,,,,,,,,,,,,,,
,,,,,,615513578b8c1d40dcec3b25,62c539d01ea850893376a8dc,2022-07-06_24h29.51.491,Colour_Asymmetry_Pilot,2022.1.3,Win32,60.43756799,62c50e9c1127f2cd403a315f,0,93,93,128,1,onetwo,,,,,,,,,,,,,,,,,,,,,,,,,,,,,,,,,,,,,,,,,,,,,,,,,,,,,,,,,,,,,,,,,,,,,,,,,,,,,,,,,,,,,,,,,,,,,,,,,,,,,,,,,,,,,,,,,,,,,,,,,,,,,,,,,,,,,,,,,,,,,,,,,,,,,,,,,,,,,
,,,,,,615513578b8c1d40dcec3b25,62c539d01ea850893376a8dc,2022-07-06_24h29.51.491,Colour_Asymmetry_Pilot,2022.1.3,Win32,60.43756799,62c50e9c1127f2cd403a315f,0,94,94,75,1,twofour,,,,,,,,,,,,,,,,,,,,,,,,,,,,,,,,,,,,,,,,,,,,,,,,,,,,,,,,,,,,,,,,,,,,,,,,,,,,,,,,,,,,,,,,,,,,,,,,,,,,,,,,,,,,,,,,,,,,,,,,,,,,,,,,,,,,,,,,,,,,,,,,,,,,,,,,,,,,,
,,,,,,615513578b8c1d40dcec3b25,62c539d01ea850893376a8dc,2022-07-06_24h29.51.491,Colour_Asymmetry_Pilot,2022.1.3,Win32,60.43756799,62c50e9c1127f2cd403a315f,0,95,95,11,1,twofour,,,,,,,,,,,,,,,,,,,,,,,,,,,,,,,,,,,,,,,,,,,,,,,,,,,,,,,,,,,,,,,,,,,,,,,,,,,,,,,,,,,,,,,,,,,,,,,,,,,,,,,,,,,,,,,,,,,,,,,,,,,,,,,,,,,,,,,,,,,,,,,,,,,,,,,,,,,,,
,,,,,,615513578b8c1d40dcec3b25,62c539d01ea850893376a8dc,2022-07-06_24h29.51.491,Colour_Asymmetry_Pilot,2022.1.3,Win32,60.43756799,62c50e9c1127f2cd403a315f,0,96,96,118,1,fourtwo,,,,,,,,,,,,,,,,,,,,,,,,,,,,,,,,,,,,,,,,,,,,,,,,,,,,,,,,,,,,,,,,,,,,,,,,,,,,,,,,,,,,,,,,,,,,,,,,,,,,,,,,,,,,,,,,,,,,,,,,,,,,,,,,,,,,,,,,,,,,,,,,,,,,,,,,,,,,,
,,,,,,615513578b8c1d40dcec3b25,62c539d01ea850893376a8dc,2022-07-06_24h29.51.491,Colour_Asymmetry_Pilot,2022.1.3,Win32,60.43756799,62c50e9c1127f2cd403a315f,0,97,97,121,1,onethree,,,,,,,,,,,,,,,,,,,,,,,,,,,,,,,,,,,,,,,,,,,,,,,,,,,,,,,,,,,,,,,,,,,,,,,,,,,,,,,,,,,,,,,,,,,,,,,,,,,,,,,,,,,,,,,,,,,,,,,,,,,,,,,,,,,,,,,,,,,,,,,,,,,,,,,,,,,,,
,,,,,,615513578b8c1d40dcec3b25,62c539d01ea850893376a8dc,2022-07-06_24h29.51.491,Colour_Asymmetry_Pilot,2022.1.3,Win32,60.43756799,62c50e9c1127f2cd403a315f,0,98,98,101,1,threefour,,,,,,,,,,,,,,,,,,,,,,,,,,,,,,,,,,,,,,,,,,,,,,,,,,,,,,,,,,,,,,,,,,,,,,,,,,,,,,,,,,,,,,,,,,,,,,,,,,,,,,,,,,,,,,,,,,,,,,,,,,,,,,,,,,,,,,,,,,,,,,,,,,,,,,,,,,,,,
,,,,,,615513578b8c1d40dcec3b25,62c539d01ea850893376a8dc,2022-07-06_24h29.51.491,Colour_Asymmetry_Pilot,2022.1.3,Win32,60.43756799,62c50e9c1127f2cd403a315f,0,99,99,65,1,onethree,,,,,,,,,,,,,,,,,,,,,,,,,,,,,,,,,,,,,,,,,,,,,,,,,,,,,,,,,,,,,,,,,,,,,,,,,,,,,,,,,,,,,,,,,,,,,,,,,,,,,,,,,,,,,,,,,,,,,,,,,,,,,,,,,,,,,,,,,,,,,,,,,,,,,,,,,,,,,
,,,,,,615513578b8c1d40dcec3b25,62c539d01ea850893376a8dc,2022-07-06_24h29.51.491,Colour_Asymmetry_Pilot,2022.1.3,Win32,60.43756799,62c50e9c1127f2cd403a315f,0,100,100,110,1,fourtwo,,,,,,,,,,,,,,,,,,,,,,,,,,,,,,,,,,,,,,,,,,,,,,,,,,,,,,,,,,,,,,,,,,,,,,,,,,,,,,,,,,,,,,,,,,,,,,,,,,,,,,,,,,,,,,,,,,,,,,,,,,,,,,,,,,,,,,,,,,,,,,,,,,,,,,,,,,,,,
,,,,,,615513578b8c1d40dcec3b25,62c539d01ea850893376a8dc,2022-07-06_24h29.51.491,Colour_Asymmetry_Pilot,2022.1.3,Win32,60.43756799,62c50e9c1127f2cd403a315f,0,101,101,49,1,onethree,,,,,,,,,,,,,,,,,,,,,,,,,,,,,,,,,,,,,,,,,,,,,,,,,,,,,,,,,,,,,,,,,,,,,,,,,,,,,,,,,,,,,,,,,,,,,,,,,,,,,,,,,,,,,,,,,,,,,,,,,,,,,,,,,,,,,,,,,,,,,,,,,,,,,,,,,,,,,
,,,,,,615513578b8c1d40dcec3b25,62c539d01ea850893376a8dc,2022-07-06_24h29.51.491,Colour_Asymmetry_Pilot,2022.1.3,Win32,60.43756799,62c50e9c1127f2cd403a315f,0,102,102,81,1,onethree,,,,,,,,,,,,,,,,,,,,,,,,,,,,,,,,,,,,,,,,,,,,,,,,,,,,,,,,,,,,,,,,,,,,,,,,,,,,,,,,,,,,,,,,,,,,,,,,,,,,,,,,,,,,,,,,,,,,,,,,,,,,,,,,,,,,,,,,,,,,,,,,,,,,,,,,,,,,,
,,,,,,615513578b8c1d40dcec3b25,62c539d01ea850893376a8dc,2022-07-06_24h29.51.491,Colour_Asymmetry_Pilot,2022.1.3,Win32,60.43756799,62c50e9c1127f2cd403a315f,0,103,103,9,1,onethree,,,,,,,,,,,,,,,,,,,,,,,,,,,,,,,,,,,,,,,,,,,,,,,,,,,,,,,,,,,,,,,,,,,,,,,,,,,,,,,,,,,,,,,,,,,,,,,,,,,,,,,,,,,,,,,,,,,,,,,,,,,,,,,,,,,,,,,,,,,,,,,,,,,,,,,,,,,,,
,,,,,,615513578b8c1d40dcec3b25,62c539d01ea850893376a8dc,2022-07-06_24h29.51.491,Colour_Asymmetry_Pilot,2022.1.3,Win32,60.43756799,62c50e9c1127f2cd403a315f,0,104,104,126,1,fourtwo,,,,,,,,,,,,,,,,,,,,,,,,,,,,,,,,,,,,,,,,,,,,,,,,,,,,,,,,,,,,,,,,,,,,,,,,,,,,,,,,,,,,,,,,,,,,,,,,,,,,,,,,,,,,,,,,,,,,,,,,,,,,,,,,,,,,,,,,,,,,,,,,,,,,,,,,,,,,,
,,,,,,615513578b8c1d40dcec3b25,62c539d01ea850893376a8dc,2022-07-06_24h29.51.491,Colour_Asymmetry_Pilot,2022.1.3,Win32,60.43756799,62c50e9c1127f2cd403a315f,0,105,105,1,1,onethree,,,,,,,,,,,,,,,,,,,,,,,,,,,,,,,,,,,,,,,,,,,,,,,,,,,,,,,,,,,,,,,,,,,,,,,,,,,,,,,,,,,,,,,,,,,,,,,,,,,,,,,,,,,,,,,,,,,,,,,,,,,,,,,,,,,,,,,,,,,,,,,,,,,,,,,,,,,,,
,,,,,,615513578b8c1d40dcec3b25,62c539d01ea850893376a8dc,2022-07-06_24h29.51.491,Colour_Asymmetry_Pilot,2022.1.3,Win32,60.43756799,62c50e9c1127f2cd403a315f,0,106,106,42,1,twoone,,,,,,,,,,,,,,,,,,,,,,,,,,,,,,,,,,,,,,,,,,,,,,,,,,,,,,,,,,,,,,,,,,,,,,,,,,,,,,,,,,,,,,,,,,,,,,,,,,,,,,,,,,,,,,,,,,,,,,,,,,,,,,,,,,,,,,,,,,,,,,,,,,,,,,,,,,,,,
,,,,,,615513578b8c1d40dcec3b25,62c539d01ea850893376a8dc,2022-07-06_24h29.51.491,Colour_Asymmetry_Pilot,2022.1.3,Win32,60.43756799,62c50e9c1127f2cd403a315f,0,107,107,7,1,fourthree,,,,,,,,,,,,,,,,,,,,,,,,,,,,,,,,,,,,,,,,,,,,,,,,,,,,,,,,,,,,,,,,,,,,,,,,,,,,,,,,,,,,,,,,,,,,,,,,,,,,,,,,,,,,,,,,,,,,,,,,,,,,,,,,,,,,,,,,,,,,,,,,,,,,,,,,,,,,,
,,,,,,615513578b8c1d40dcec3b25,62c539d01ea850893376a8dc,2022-07-06_24h29.51.491,Colour_Asymmetry_Pilot,2022.1.3,Win32,60.43756799,62c50e9c1127f2cd403a315f,0,108,108,74,1,twoone,,,,,,,,,,,,,,,,,,,,,,,,,,,,,,,,,,,,,,,,,,,,,,,,,,,,,,,,,,,,,,,,,,,,,,,,,,,,,,,,,,,,,,,,,,,,,,,,,,,,,,,,,,,,,,,,,,,,,,,,,,,,,,,,,,,,,,,,,,,,,,,,,,,,,,,,,,,,,
,,,,,,615513578b8c1d40dcec3b25,62c539d01ea850893376a8dc,2022-07-06_24h29.51.491,Colour_Asymmetry_Pilot,2022.1.3,Win32,60.43756799,62c50e9c1127f2cd403a315f,0,109,109,58,1,twoone,,,,,,,,,,,,,,,,,,,,,,,,,,,,,,,,,,,,,,,,,,,,,,,,,,,,,,,,,,,,,,,,,,,,,,,,,,,,,,,,,,,,,,,,,,,,,,,,,,,,,,,,,,,,,,,,,,,,,,,,,,,,,,,,,,,,,,,,,,,,,,,,,,,,,,,,,,,,,
,,,,,,615513578b8c1d40dcec3b25,62c539d01ea850893376a8dc,2022-07-06_24h29.51.491,Colour_Asymmetry_Pilot,2022.1.3,Win32,60.43756799,62c50e9c1127f2cd403a315f,0,110,110,2,1,twoone,,,,,,,,,,,,,,,,,,,,,,,,,,,,,,,,,,,,,,,,,,,,,,,,,,,,,,,,,,,,,,,,,,,,,,,,,,,,,,,,,,,,,,,,,,,,,,,,,,,,,,,,,,,,,,,,,,,,,,,,,,,,,,,,,,,,,,,,,,,,,,,,,,,,,,,,,,,,,
,,,,,,615513578b8c1d40dcec3b25,62c539d01ea850893376a8dc,2022-07-06_24h29.51.491,Colour_Asymmetry_Pilot,2022.1.3,Win32,60.43756799,62c50e9c1127f2cd403a315f,0,111,111,68,1,threeone,,,,,,,,,,,,,,,,,,,,,,,,,,,,,,,,,,,,,,,,,,,,,,,,,,,,,,,,,,,,,,,,,,,,,,,,,,,,,,,,,,,,,,,,,,,,,,,,,,,,,,,,,,,,,,,,,,,,,,,,,,,,,,,,,,,,,,,,,,,,,,,,,,,,,,,,,,,,,
,,,,,,615513578b8c1d40dcec3b25,62c539d01ea850893376a8dc,2022-07-06_24h29.51.491,Colour_Asymmetry_Pilot,2022.1.3,Win32,60.43756799,62c50e9c1127f2cd403a315f,0,112,112,38,1,fourtwo,,,,,,,,,,,,,,,,,,,,,,,,,,,,,,,,,,,,,,,,,,,,,,,,,,,,,,,,,,,,,,,,,,,,,,,,,,,,,,,,,,,,,,,,,,,,,,,,,,,,,,,,,,,,,,,,,,,,,,,,,,,,,,,,,,,,,,,,,,,,,,,,,,,,,,,,,,,,,
,,,,,,615513578b8c1d40dcec3b25,62c539d01ea850893376a8dc,2022-07-06_24h29.51.491,Colour_Asymmetry_Pilot,2022.1.3,Win32,60.43756799,62c50e9c1127f2cd403a315f,0,113,113,73,1,onethree,,,,,,,,,,,,,,,,,,,,,,,,,,,,,,,,,,,,,,,,,,,,,,,,,,,,,,,,,,,,,,,,,,,,,,,,,,,,,,,,,,,,,,,,,,,,,,,,,,,,,,,,,,,,,,,,,,,,,,,,,,,,,,,,,,,,,,,,,,,,,,,,,,,,,,,,,,,,,
,,,,,,615513578b8c1d40dcec3b25,62c539d01ea850893376a8dc,2022-07-06_24h29.51.491,Colour_Asymmetry_Pilot,2022.1.3,Win32,60.43756799,62c50e9c1127f2cd403a315f,0,114,114,52,1,threeone,,,,,,,,,,,,,,,,,,,,,,,,,,,,,,,,,,,,,,,,,,,,,,,,,,,,,,,,,,,,,,,,,,,,,,,,,,,,,,,,,,,,,,,,,,,,,,,,,,,,,,,,,,,,,,,,,,,,,,,,,,,,,,,,,,,,,,,,,,,,,,,,,,,,,,,,,,,,,
,,,,,,615513578b8c1d40dcec3b25,62c539d01ea850893376a8dc,2022-07-06_24h29.51.491,Colour_Asymmetry_Pilot,2022.1.3,Win32,60.43756799,62c50e9c1127f2cd403a315f,0,115,115,10,1,twoone,,,,,,,,,,,,,,,,,,,,,,,,,,,,,,,,,,,,,,,,,,,,,,,,,,,,,,,,,,,,,,,,,,,,,,,,,,,,,,,,,,,,,,,,,,,,,,,,,,,,,,,,,,,,,,,,,,,,,,,,,,,,,,,,,,,,,,,,,,,,,,,,,,,,,,,,,,,,,
,,,,,,615513578b8c1d40dcec3b25,62c539d01ea850893376a8dc,2022-07-06_24h29.51.491,Colour_Asymmetry_Pilot,2022.1.3,Win32,60.43756799,62c50e9c1127f2cd403a315f,0,116,116,61,1,threefour,,,,,,,,,,,,,,,,,,,,,,,,,,,,,,,,,,,,,,,,,,,,,,,,,,,,,,,,,,,,,,,,,,,,,,,,,,,,,,,,,,,,,,,,,,,,,,,,,,,,,,,,,,,,,,,,,,,,,,,,,,,,,,,,,,,,,,,,,,,,,,,,,,,,,,,,,,,,,
,,,,,,615513578b8c1d40dcec3b25,62c539d01ea850893376a8dc,2022-07-06_24h29.51.491,Colour_Asymmetry_Pilot,2022.1.3,Win32,60.43756799,62c50e9c1127f2cd403a315f,0,117,117,27,1,twofour,,,,,,,,,,,,,,,,,,,,,,,,,,,,,,,,,,,,,,,,,,,,,,,,,,,,,,,,,,,,,,,,,,,,,,,,,,,,,,,,,,,,,,,,,,,,,,,,,,,,,,,,,,,,,,,,,,,,,,,,,,,,,,,,,,,,,,,,,,,,,,,,,,,,,,,,,,,,,
,,,,,,615513578b8c1d40dcec3b25,62c539d01ea850893376a8dc,2022-07-06_24h29.51.491,Colour_Asymmetry_Pilot,2022.1.3,Win32,60.43756799,62c50e9c1127f2cd403a315f,0,118,118,151,1,fourthree,,,,,,,,,,,,,,,,,,,,,,,,,,,,,,,,,,,,,,,,,,,,,,,,,,,,,,,,,,,,,,,,,,,,,,,,,,,,,,,,,,,,,,,,,,,,,,,,,,,,,,,,,,,,,,,,,,,,,,,,,,,,,,,,,,,,,,,,,,,,,,,,,,,,,,,,,,,,,
,,,,,,615513578b8c1d40dcec3b25,62c539d01ea850893376a8dc,2022-07-06_24h29.51.491,Colour_Asymmetry_Pilot,2022.1.3,Win32,60.43756799,62c50e9c1127f2cd403a315f,0,119,119,66,1,twoone,,,,,,,,,,,,,,,,,,,,,,,,,,,,,,,,,,,,,,,,,,,,,,,,,,,,,,,,,,,,,,,,,,,,,,,,,,,,,,,,,,,,,,,,,,,,,,,,,,,,,,,,,,,,,,,,,,,,,,,,,,,,,,,,,,,,,,,,,,,,,,,,,,,,,,,,,,,,,
,,,,,,615513578b8c1d40dcec3b25,62c539d01ea850893376a8dc,2022-07-06_24h29.51.491,Colour_Asymmetry_Pilot,2022.1.3,Win32,60.43756799,62c50e9c1127f2cd403a315f,0,120,120,138,1,twoone,,,,,,,,,,,,,,,,,,,,,,,,,,,,,,,,,,,,,,,,,,,,,,,,,,,,,,,,,,,,,,,,,,,,,,,,,,,,,,,,,,,,,,,,,,,,,,,,,,,,,,,,,,,,,,,,,,,,,,,,,,,,,,,,,,,,,,,,,,,,,,,,,,,,,,,,,,,,,
,,,,,,615513578b8c1d40dcec3b25,62c539d01ea850893376a8dc,2022-07-06_24h29.51.491,Colour_Asymmetry_Pilot,2022.1.3,Win32,60.43756799,62c50e9c1127f2cd403a315f,0,121,121,18,1,twoone,,,,,,,,,,,,,,,,,,,,,,,,,,,,,,,,,,,,,,,,,,,,,,,,,,,,,,,,,,,,,,,,,,,,,,,,,,,,,,,,,,,,,,,,,,,,,,,,,,,,,,,,,,,,,,,,,,,,,,,,,,,,,,,,,,,,,,,,,,,,,,,,,,,,,,,,,,,,,
,,,,,,615513578b8c1d40dcec3b25,62c539d01ea850893376a8dc,2022-07-06_24h29.51.491,Colour_Asymmetry_Pilot,2022.1.3,Win32,60.43756799,62c50e9c1127f2cd403a315f,0,122,122,115,1,twofour,,,,,,,,,,,,,,,,,,,,,,,,,,,,,,,,,,,,,,,,,,,,,,,,,,,,,,,,,,,,,,,,,,,,,,,,,,,,,,,,,,,,,,,,,,,,,,,,,,,,,,,,,,,,,,,,,,,,,,,,,,,,,,,,,,,,,,,,,,,,,,,,,,,,,,,,,,,,,
,,,,,,615513578b8c1d40dcec3b25,62c539d01ea850893376a8dc,2022-07-06_24h29.51.491,Colour_Asymmetry_Pilot,2022.1.3,Win32,60.43756799,62c50e9c1127f2cd403a315f,0,123,123,92,1,threeone,,,,,,,,,,,,,,,,,,,,,,,,,,,,,,,,,,,,,,,,,,,,,,,,,,,,,,,,,,,,,,,,,,,,,,,,,,,,,,,,,,,,,,,,,,,,,,,,,,,,,,,,,,,,,,,,,,,,,,,,,,,,,,,,,,,,,,,,,,,,,,,,,,,,,,,,,,,,,
,,,,,,615513578b8c1d40dcec3b25,62c539d01ea850893376a8dc,2022-07-06_24h29.51.491,Colour_Asymmetry_Pilot,2022.1.3,Win32,60.43756799,62c50e9c1127f2cd403a315f,0,124,124,29,1,threefour,,,,,,,,,,,,,,,,,,,,,,,,,,,,,,,,,,,,,,,,,,,,,,,,,,,,,,,,,,,,,,,,,,,,,,,,,,,,,,,,,,,,,,,,,,,,,,,,,,,,,,,,,,,,,,,,,,,,,,,,,,,,,,,,,,,,,,,,,,,,,,,,,,,,,,,,,,,,,
,,,,,,615513578b8c1d40dcec3b25,62c539d01ea850893376a8dc,2022-07-06_24h29.51.491,Colour_Asymmetry_Pilot,2022.1.3,Win32,60.43756799,62c50e9c1127f2cd403a315f,0,125,125,140,1,threeone,,,,,,,,,,,,,,,,,,,,,,,,,,,,,,,,,,,,,,,,,,,,,,,,,,,,,,,,,,,,,,,,,,,,,,,,,,,,,,,,,,,,,,,,,,,,,,,,,,,,,,,,,,,,,,,,,,,,,,,,,,,,,,,,,,,,,,,,,,,,,,,,,,,,,,,,,,,,,
,,,,,,615513578b8c1d40dcec3b25,62c539d01ea850893376a8dc,2022-07-06_24h29.51.491,Colour_Asymmetry_Pilot,2022.1.3,Win32,60.43756799,62c50e9c1127f2cd403a315f,0,126,126,6,1,fourtwo,,,,,,,,,,,,,,,,,,,,,,,,,,,,,,,,,,,,,,,,,,,,,,,,,,,,,,,,,,,,,,,,,,,,,,,,,,,,,,,,,,,,,,,,,,,,,,,,,,,,,,,,,,,,,,,,,,,,,,,,,,,,,,,,,,,,,,,,,,,,,,,,,,,,,,,,,,,,,
,,,,,,615513578b8c1d40dcec3b25,62c539d01ea850893376a8dc,2022-07-06_24h29.51.491,Colour_Asymmetry_Pilot,2022.1.3,Win32,60.43756799,62c50e9c1127f2cd403a315f,0,127,127,155,1,twofour,,,,,,,,,,,,,,,,,,,,,,,,,,,,,,,,,,,,,,,,,,,,,,,,,,,,,,,,,,,,,,,,,,,,,,,,,,,,,,,,,,,,,,,,,,,,,,,,,,,,,,,,,,,,,,,,,,,,,,,,,,,,,,,,,,,,,,,,,,,,,,,,,,,,,,,,,,,,,
,,,,,,615513578b8c1d40dcec3b25,62c539d01ea850893376a8dc,2022-07-06_24h29.51.491,Colour_Asymmetry_Pilot,2022.1.3,Win32,60.43756799,62c50e9c1127f2cd403a315f,0,128,128,71,1,fourthree,,,,,,,,,,,,,,,,,,,,,,,,,,,,,,,,,,,,,,,,,,,,,,,,,,,,,,,,,,,,,,,,,,,,,,,,,,,,,,,,,,,,,,,,,,,,,,,,,,,,,,,,,,,,,,,,,,,,,,,,,,,,,,,,,,,,,,,,,,,,,,,,,,,,,,,,,,,,,
,,,,,,615513578b8c1d40dcec3b25,62c539d01ea850893376a8dc,2022-07-06_24h29.51.491,Colour_Asymmetry_Pilot,2022.1.3,Win32,60.43756799,62c50e9c1127f2cd403a315f,0,129,129,88,1,onetwo,,,,,,,,,,,,,,,,,,,,,,,,,,,,,,,,,,,,,,,,,,,,,,,,,,,,,,,,,,,,,,,,,,,,,,,,,,,,,,,,,,,,,,,,,,,,,,,,,,,,,,,,,,,,,,,,,,,,,,,,,,,,,,,,,,,,,,,,,,,,,,,,,,,,,,,,,,,,,
,,,,,,615513578b8c1d40dcec3b25,62c539d01ea850893376a8dc,2022-07-06_24h29.51.491,Colour_Asymmetry_Pilot,2022.1.3,Win32,60.43756799,62c50e9c1127f2cd403a315f,0,130,130,8,1,onetwo,,,,,,,,,,,,,,,,,,,,,,,,,,,,,,,,,,,,,,,,,,,,,,,,,,,,,,,,,,,,,,,,,,,,,,,,,,,,,,,,,,,,,,,,,,,,,,,,,,,,,,,,,,,,,,,,,,,,,,,,,,,,,,,,,,,,,,,,,,,,,,,,,,,,,,,,,,,,,
,,,,,,615513578b8c1d40dcec3b25,62c539d01ea850893376a8dc,2022-07-06_24h29.51.491,Colour_Asymmetry_Pilot,2022.1.3,Win32,60.43756799,62c50e9c1127f2cd403a315f,0,131,131,129,1,onethree,,,,,,,,,,,,,,,,,,,,,,,,,,,,,,,,,,,,,,,,,,,,,,,,,,,,,,,,,,,,,,,,,,,,,,,,,,,,,,,,,,,,,,,,,,,,,,,,,,,,,,,,,,,,,,,,,,,,,,,,,,,,,,,,,,,,,,,,,,,,,,,,,,,,,,,,,,,,,
,,,,,,615513578b8c1d40dcec3b25,62c539d01ea850893376a8dc,2022-07-06_24h29.51.491,Colour_Asymmetry_Pilot,2022.1.3,Win32,60.43756799,62c50e9c1127f2cd403a315f,0,132,132,111,1,fourthree,,,,,,,,,,,,,,,,,,,,,,,,,,,,,,,,,,,,,,,,,,,,,,,,,,,,,,,,,,,,,,,,,,,,,,,,,,,,,,,,,,,,,,,,,,,,,,,,,,,,,,,,,,,,,,,,,,,,,,,,,,,,,,,,,,,,,,,,,,,,,,,,,,,,,,,,,,,,,
,,,,,,615513578b8c1d40dcec3b25,62c539d01ea850893376a8dc,2022-07-06_24h29.51.491,Colour_Asymmetry_Pilot,2022.1.3,Win32,60.43756799,62c50e9c1127f2cd403a315f,0,133,133,137,1,onethree,,,,,,,,,,,,,,,,,,,,,,,,,,,,,,,,,,,,,,,,,,,,,,,,,,,,,,,,,,,,,,,,,,,,,,,,,,,,,,,,,,,,,,,,,,,,,,,,,,,,,,,,,,,,,,,,,,,,,,,,,,,,,,,,,,,,,,,,,,,,,,,,,,,,,,,,,,,,,
,,,,,,615513578b8c1d40dcec3b25,62c539d01ea850893376a8dc,2022-07-06_24h29.51.491,Colour_Asymmetry_Pilot,2022.1.3,Win32,60.43756799,62c50e9c1127f2cd403a315f,0,134,134,141,1,threefour,,,,,,,,,,,,,,,,,,,,,,,,,,,,,,,,,,,,,,,,,,,,,,,,,,,,,,,,,,,,,,,,,,,,,,,,,,,,,,,,,,,,,,,,,,,,,,,,,,,,,,,,,,,,,,,,,,,,,,,,,,,,,,,,,,,,,,,,,,,,,,,,,,,,,,,,,,,,,
,,,,,,615513578b8c1d40dcec3b25,62c539d01ea850893376a8dc,2022-07-06_24h29.51.491,Colour_Asymmetry_Pilot,2022.1.3,Win32,60.43756799,62c50e9c1127f2cd403a315f,0,135,135,33,1,onethree,,,,,,,,,,,,,,,,,,,,,,,,,,,,,,,,,,,,,,,,,,,,,,,,,,,,,,,,,,,,,,,,,,,,,,,,,,,,,,,,,,,,,,,,,,,,,,,,,,,,,,,,,,,,,,,,,,,,,,,,,,,,,,,,,,,,,,,,,,,,,,,,,,,,,,,,,,,,,
,,,,,,615513578b8c1d40dcec3b25,62c539d01ea850893376a8dc,2022-07-06_24h29.51.491,Colour_Asymmetry_Pilot,2022.1.3,Win32,60.43756799,62c50e9c1127f2cd403a315f,0,136,136,114,1,twoone,,,,,,,,,,,,,,,,,,,,,,,,,,,,,,,,,,,,,,,,,,,,,,,,,,,,,,,,,,,,,,,,,,,,,,,,,,,,,,,,,,,,,,,,,,,,,,,,,,,,,,,,,,,,,,,,,,,,,,,,,,,,,,,,,,,,,,,,,,,,,,,,,,,,,,,,,,,,,
,,,,,,615513578b8c1d40dcec3b25,62c539d01ea850893376a8dc,2022-07-06_24h29.51.491,Colour_Asymmetry_Pilot,2022.1.3,Win32,60.43756799,62c50e9c1127f2cd403a315f,0,137,137,90,1,twoone,,,,,,,,,,,,,,,,,,,,,,,,,,,,,,,,,,,,,,,,,,,,,,,,,,,,,,,,,,,,,,,,,,,,,,,,,,,,,,,,,,,,,,,,,,,,,,,,,,,,,,,,,,,,,,,,,,,,,,,,,,,,,,,,,,,,,,,,,,,,,,,,,,,,,,,,,,,,,
,,,,,,615513578b8c1d40dcec3b25,62c539d01ea850893376a8dc,2022-07-06_24h29.51.491,Colour_Asymmetry_Pilot,2022.1.3,Win32,60.43756799,62c50e9c1127f2cd403a315f,0,138,138,5,1,threefour,,,,,,,,,,,,,,,,,,,,,,,,,,,,,,,,,,,,,,,,,,,,,,,,,,,,,,,,,,,,,,,,,,,,,,,,,,,,,,,,,,,,,,,,,,,,,,,,,,,,,,,,,,,,,,,,,,,,,,,,,,,,,,,,,,,,,,,,,,,,,,,,,,,,,,,,,,,,,
,,,,,,615513578b8c1d40dcec3b25,62c539d01ea850893376a8dc,2022-07-06_24h29.51.491,Colour_Asymmetry_Pilot,2022.1.3,Win32,60.43756799,62c50e9c1127f2cd403a315f,0,139,139,143,1,fourthree,,,,,,,,,,,,,,,,,,,,,,,,,,,,,,,,,,,,,,,,,,,,,,,,,,,,,,,,,,,,,,,,,,,,,,,,,,,,,,,,,,,,,,,,,,,,,,,,,,,,,,,,,,,,,,,,,,,,,,,,,,,,,,,,,,,,,,,,,,,,,,,,,,,,,,,,,,,,,
,,,,,,615513578b8c1d40dcec3b25,62c539d01ea850893376a8dc,2022-07-06_24h29.51.491,Colour_Asymmetry_Pilot,2022.1.3,Win32,60.43756799,62c50e9c1127f2cd403a315f,0,140,140,21,1,threefour,,,,,,,,,,,,,,,,,,,,,,,,,,,,,,,,,,,,,,,,,,,,,,,,,,,,,,,,,,,,,,,,,,,,,,,,,,,,,,,,,,,,,,,,,,,,,,,,,,,,,,,,,,,,,,,,,,,,,,,,,,,,,,,,,,,,,,,,,,,,,,,,,,,,,,,,,,,,,
,,,,,,615513578b8c1d40dcec3b25,62c539d01ea850893376a8dc,2022-07-06_24h29.51.491,Colour_Asymmetry_Pilot,2022.1.3,Win32,60.43756799,62c50e9c1127f2cd403a315f,0,141,141,130,1,twoone,,,,,,,,,,,,,,,,,,,,,,,,,,,,,,,,,,,,,,,,,,,,,,,,,,,,,,,,,,,,,,,,,,,,,,,,,,,,,,,,,,,,,,,,,,,,,,,,,,,,,,,,,,,,,,,,,,,,,,,,,,,,,,,,,,,,,,,,,,,,,,,,,,,,,,,,,,,,,
,,,,,,615513578b8c1d40dcec3b25,62c539d01ea850893376a8dc,2022-07-06_24h29.51.491,Colour_Asymmetry_Pilot,2022.1.3,Win32,60.43756799,62c50e9c1127f2cd403a315f,0,142,142,57,1,onethree,,,,,,,,,,,,,,,,,,,,,,,,,,,,,,,,,,,,,,,,,,,,,,,,,,,,,,,,,,,,,,,,,,,,,,,,,,,,,,,,,,,,,,,,,,,,,,,,,,,,,,,,,,,,,,,,,,,,,,,,,,,,,,,,,,,,,,,,,,,,,,,,,,,,,,,,,,,,,
,,,,,,615513578b8c1d40dcec3b25,62c539d01ea850893376a8dc,2022-07-06_24h29.51.491,Colour_Asymmetry_Pilot,2022.1.3,Win32,60.43756799,62c50e9c1127f2cd403a315f,0,143,143,69,1,threefour,,,,,,,,,,,,,,,,,,,,,,,,,,,,,,,,,,,,,,,,,,,,,,,,,,,,,,,,,,,,,,,,,,,,,,,,,,,,,,,,,,,,,,,,,,,,,,,,,,,,,,,,,,,,,,,,,,,,,,,,,,,,,,,,,,,,,,,,,,,,,,,,,,,,,,,,,,,,,
,,,,,,615513578b8c1d40dcec3b25,62c539d01ea850893376a8dc,2022-07-06_24h29.51.491,Colour_Asymmetry_Pilot,2022.1.3,Win32,60.43756799,62c50e9c1127f2cd403a315f,0,144,144,148,1,threeone,,,,,,,,,,,,,,,,,,,,,,,,,,,,,,,,,,,,,,,,,,,,,,,,,,,,,,,,,,,,,,,,,,,,,,,,,,,,,,,,,,,,,,,,,,,,,,,,,,,,,,,,,,,,,,,,,,,,,,,,,,,,,,,,,,,,,,,,,,,,,,,,,,,,,,,,,,,,,
,,,,,,615513578b8c1d40dcec3b25,62c539d01ea850893376a8dc,2022-07-06_24h29.51.491,Colour_Asymmetry_Pilot,2022.1.3,Win32,60.43756799,62c50e9c1127f2cd403a315f,0,145,145,100,1,threeone,,,,,,,,,,,,,,,,,,,,,,,,,,,,,,,,,,,,,,,,,,,,,,,,,,,,,,,,,,,,,,,,,,,,,,,,,,,,,,,,,,,,,,,,,,,,,,,,,,,,,,,,,,,,,,,,,,,,,,,,,,,,,,,,,,,,,,,,,,,,,,,,,,,,,,,,,,,,,
,,,,,,615513578b8c1d40dcec3b25,62c539d01ea850893376a8dc,2022-07-06_24h29.51.491,Colour_Asymmetry_Pilot,2022.1.3,Win32,60.43756799,62c50e9c1127f2cd403a315f,0,146,146,82,1,twoone,,,,,,,,,,,,,,,,,,,,,,,,,,,,,,,,,,,,,,,,,,,,,,,,,,,,,,,,,,,,,,,,,,,,,,,,,,,,,,,,,,,,,,,,,,,,,,,,,,,,,,,,,,,,,,,,,,,,,,,,,,,,,,,,,,,,,,,,,,,,,,,,,,,,,,,,,,,,,
,,,,,,615513578b8c1d40dcec3b25,62c539d01ea850893376a8dc,2022-07-06_24h29.51.491,Colour_Asymmetry_Pilot,2022.1.3,Win32,60.43756799,62c50e9c1127f2cd403a315f,0,147,147,16,1,onetwo,,,,,,,,,,,,,,,,,,,,,,,,,,,,,,,,,,,,,,,,,,,,,,,,,,,,,,,,,,,,,,,,,,,,,,,,,,,,,,,,,,,,,,,,,,,,,,,,,,,,,,,,,,,,,,,,,,,,,,,,,,,,,,,,,,,,,,,,,,,,,,,,,,,,,,,,,,,,,
,,,,,,615513578b8c1d40dcec3b25,62c539d01ea850893376a8dc,2022-07-06_24h29.51.491,Colour_Asymmetry_Pilot,2022.1.3,Win32,60.43756799,62c50e9c1127f2cd403a315f,0,148,148,99,1,twofour,,,,,,,,,,,,,,,,,,,,,,,,,,,,,,,,,,,,,,,,,,,,,,,,,,,,,,,,,,,,,,,,,,,,,,,,,,,,,,,,,,,,,,,,,,,,,,,,,,,,,,,,,,,,,,,,,,,,,,,,,,,,,,,,,,,,,,,,,,,,,,,,,,,,,,,,,,,,,
,,,,,,615513578b8c1d40dcec3b25,62c539d01ea850893376a8dc,2022-07-06_24h29.51.491,Colour_Asymmetry_Pilot,2022.1.3,Win32,60.43756799,62c50e9c1127f2cd403a315f,0,149,149,145,1,onethree,,,,,,,,,,,,,,,,,,,,,,,,,,,,,,,,,,,,,,,,,,,,,,,,,,,,,,,,,,,,,,,,,,,,,,,,,,,,,,,,,,,,,,,,,,,,,,,,,,,,,,,,,,,,,,,,,,,,,,,,,,,,,,,,,,,,,,,,,,,,,,,,,,,,,,,,,,,,,
,,,,,,615513578b8c1d40dcec3b25,62c539d01ea850893376a8dc,2022-07-06_24h29.51.491,Colour_Asymmetry_Pilot,2022.1.3,Win32,60.43756799,62c50e9c1127f2cd403a315f,0,150,150,127,1,fourthree,,,,,,,,,,,,,,,,,,,,,,,,,,,,,,,,,,,,,,,,,,,,,,,,,,,,,,,,,,,,,,,,,,,,,,,,,,,,,,,,,,,,,,,,,,,,,,,,,,,,,,,,,,,,,,,,,,,,,,,,,,,,,,,,,,,,,,,,,,,,,,,,,,,,,,,,,,,,,
,,,,,,615513578b8c1d40dcec3b25,62c539d01ea850893376a8dc,2022-07-06_24h29.51.491,Colour_Asymmetry_Pilot,2022.1.3,Win32,60.43756799,62c50e9c1127f2cd403a315f,0,151,151,41,1,onethree,,,,,,,,,,,,,,,,,,,,,,,,,,,,,,,,,,,,,,,,,,,,,,,,,,,,,,,,,,,,,,,,,,,,,,,,,,,,,,,,,,,,,,,,,,,,,,,,,,,,,,,,,,,,,,,,,,,,,,,,,,,,,,,,,,,,,,,,,,,,,,,,,,,,,,,,,,,,,
,,,,,,615513578b8c1d40dcec3b25,62c539d01ea850893376a8dc,2022-07-06_24h29.51.491,Colour_Asymmetry_Pilot,2022.1.3,Win32,60.43756799,62c50e9c1127f2cd403a315f,0,152,152,47,1,fourthree,,,,,,,,,,,,,,,,,,,,,,,,,,,,,,,,,,,,,,,,,,,,,,,,,,,,,,,,,,,,,,,,,,,,,,,,,,,,,,,,,,,,,,,,,,,,,,,,,,,,,,,,,,,,,,,,,,,,,,,,,,,,,,,,,,,,,,,,,,,,,,,,,,,,,,,,,,,,,
,,,,,,615513578b8c1d40dcec3b25,62c539d01ea850893376a8dc,2022-07-06_24h29.51.491,Colour_Asymmetry_Pilot,2022.1.3,Win32,60.43756799,62c50e9c1127f2cd403a315f,0,153,153,62,1,fourtwo,,,,,,,,,,,,,,,,,,,,,,,,,,,,,,,,,,,,,,,,,,,,,,,,,,,,,,,,,,,,,,,,,,,,,,,,,,,,,,,,,,,,,,,,,,,,,,,,,,,,,,,,,,,,,,,,,,,,,,,,,,,,,,,,,,,,,,,,,,,,,,,,,,,,,,,,,,,,,
,,,,,,615513578b8c1d40dcec3b25,62c539d01ea850893376a8dc,2022-07-06_24h29.51.491,Colour_Asymmetry_Pilot,2022.1.3,Win32,60.43756799,62c50e9c1127f2cd403a315f,0,154,154,31,1,fourthree,,,,,,,,,,,,,,,,,,,,,,,,,,,,,,,,,,,,,,,,,,,,,,,,,,,,,,,,,,,,,,,,,,,,,,,,,,,,,,,,,,,,,,,,,,,,,,,,,,,,,,,,,,,,,,,,,,,,,,,,,,,,,,,,,,,,,,,,,,,,,,,,,,,,,,,,,,,,,
,,,,,,615513578b8c1d40dcec3b25,62c539d01ea850893376a8dc,2022-07-06_24h29.51.491,Colour_Asymmetry_Pilot,2022.1.3,Win32,60.43756799,62c50e9c1127f2cd403a315f,0,155,155,108,1,threeone,,,,,,,,,,,,,,,,,,,,,,,,,,,,,,,,,,,,,,,,,,,,,,,,,,,,,,,,,,,,,,,,,,,,,,,,,,,,,,,,,,,,,,,,,,,,,,,,,,,,,,,,,,,,,,,,,,,,,,,,,,,,,,,,,,,,,,,,,,,,,,,,,,,,,,,,,,,,,
,,,,,,615513578b8c1d40dcec3b25,62c539d01ea850893376a8dc,2022-07-06_24h29.51.491,Colour_Asymmetry_Pilot,2022.1.3,Win32,60.43756799,62c50e9c1127f2cd403a315f,0,156,156,153,1,onethree,,,,,,,,,,,,,,,,,,,,,,,,,,,,,,,,,,,,,,,,,,,,,,,,,,,,,,,,,,,,,,,,,,,,,,,,,,,,,,,,,,,,,,,,,,,,,,,,,,,,,,,,,,,,,,,,,,,,,,,,,,,,,,,,,,,,,,,,,,,,,,,,,,,,,,,,,,,,,
,,,,,,615513578b8c1d40dcec3b25,62c539d01ea850893376a8dc,2022-07-06_24h29.51.491,Colour_Asymmetry_Pilot,2022.1.3,Win32,60.43756799,62c50e9c1127f2cd403a315f,0,157,157,91,1,twofour,,,,,,,,,,,,,,,,,,,,,,,,,,,,,,,,,,,,,,,,,,,,,,,,,,,,,,,,,,,,,,,,,,,,,,,,,,,,,,,,,,,,,,,,,,,,,,,,,,,,,,,,,,,,,,,,,,,,,,,,,,,,,,,,,,,,,,,,,,,,,,,,,,,,,,,,,,,,,
,,,,,,615513578b8c1d40dcec3b25,62c539d01ea850893376a8dc,2022-07-06_24h29.51.491,Colour_Asymmetry_Pilot,2022.1.3,Win32,60.43756799,62c50e9c1127f2cd403a315f,0,158,158,97,1,onethree,,,,,,,,,,,,,,,,,,,,,,,,,,,,,,,,,,,,,,,,,,,,,,,,,,,,,,,,,,,,,,,,,,,,,,,,,,,,,,,,,,,,,,,,,,,,,,,,,,,,,,,,,,,,,,,,,,,,,,,,,,,,,,,,,,,,,,,,,,,,,,,,,,,,,,,,,,,,,
,,,,,,615513578b8c1d40dcec3b25,62c539d01ea850893376a8dc,2022-07-06_24h29.51.491,Colour_Asymmetry_Pilot,2022.1.3,Win32,60.43756799,62c50e9c1127f2cd403a315f,0,159,159,159,1,fourthree,,,,,,,,,,,,,,,,,,,,,,,,,,,,,,,,,,,,,,,,,,,,,,,,,,,,,,,,,,,,,,,,,,,,,,,,,,,,,,,,,,,,,,,,,,,,,,,,,,,,,,,,,,,,,,,,,,,,,,,,,,,,,,,,,,,,,,,,,,,,,,,,,,,,,,,,,,,,,
,,,,,,615513578b8c1d40dcec3b25,62c539d01ea850893376a8dc,2022-07-06_24h29.51.491,Colour_Asymmetry_Pilot,2022.1.3,Win32,60.43756799,62c50e9c1127f2cd403a315f,0,160,160,134,1,fourtwo,,,,,,,,,,,,,,,,,,,,,,,,,,,,,,,,,,,,,,,,,,,,,,,,,,,,,,,,,,,,,,,,,,,,,,,,,,,,,,,,,,,,,,,,,,,,,,,,,,,,,,,,,,,,,,,,,,,,,,,,,,,,,,,,,,,,,,,,,,,,,,,,,,,,,,,,,,,,,
,,,,,,615513578b8c1d40dcec3b25,62c539d01ea850893376a8dc,2022-07-06_24h29.51.491,Colour_Asymmetry_Pilot,2022.1.3,Win32,60.43756799,62c50e9c1127f2cd403a315f,0,161,161,78,1,fourtwo,,,,,,,,,,,,,,,,,,,,,,,,,,,,,,,,,,,,,,,,,,,,,,,,,,,,,,,,,,,,,,,,,,,,,,,,,,,,,,,,,,,,,,,,,,,,,,,,,,,,,,,,,,,,,,,,,,,,,,,,,,,,,,,,,,,,,,,,,,,,,,,,,,,,,,,,,,,,,
,,,,,,615513578b8c1d40dcec3b25,62c539d01ea850893376a8dc,2022-07-06_24h29.51.491,Colour_Asymmetry_Pilot,2022.1.3,Win32,60.43756799,62c50e9c1127f2cd403a315f,,,,,,,space,2.6107,space,69.8507,space,77.2889,space,13.2489,space,1.6789,space,7.7902,"[-0.24719999999999998,-0.0354000000000001,0.3175999999999999]",fourtwo,"[0.9763999999999999,0.30979999999999985,-0.6786]",-4,3.5904,-55,86,1,0,0,response7disk_5,1,-7,1,0,0,rectangle_8,1,-7,1,0,0,4,1,-7,1,0,0,0,0,0,0,1,,,,,,,,,,,,,,,,,,,,,,,,,,,,,,,,,,,,,,,,,,,,,,,,,,,,,,,,,,,,,,,,,,,,,,,,,,,,,,,,,,,,,,,,,,,,,,,,,,,,,,,,,,,,,,,,
,,,,,,615513578b8c1d40dcec3b25,62c539d01ea850893376a8dc,2022-07-06_24h29.51.491,Colour_Asymmetry_Pilot,2022.1.3,Win32,60.43756799,62c50e9c1127f2cd403a315f,,,,,,,,,,,,,,,,,,,"[0.4196,0.4665999999999999,0.3568]",threefour,"[0.18419999999999992,-0.4276,-0.404]",-4,1.8142,-36,94,1,0,0,response7disk_5,-2,2,1,0,0,rectangle_8,-2,2,1,0,0,4,-2,2,1,0,0,1,0,1,0,1,,,,,,,,,,,,,,,,,,,,,,,,,,,,,,,,,,,,,,,,,,,,,,,,,,,,,,,,,,,,,,,,,,,,,,,,,,,,,,,,,,,,,,,,,,,,,,,,,,,,,,,,,,,,,,,,
,,,,,,615513578b8c1d40dcec3b25,62c539d01ea850893376a8dc,2022-07-06_24h29.51.491,Colour_Asymmetry_Pilot,2022.1.3,Win32,60.43756799,62c50e9c1127f2cd403a315f,,,,,,,,,,,,,,,,,,,"[0.2862,0.7802,0.3568]",fourthree,"[-0.6,0.16860000000000008,0.44300000000000006]",4,1.4307,29,72,1,0,0,response1disk_5,3,8,1,0,0,rectangle_8,3,8,1,0,0,4,3,8,1,0,0,2,0,2,0,1,,,,,,,,,,,,,,,,,,,,,,,,,,,,,,,,,,,,,,,,,,,,,,,,,,,,,,,,,,,,,,,,,,,,,,,,,,,,,,,,,,,,,,,,,,,,,,,,,,,,,,,,,,,,,,,,
,,,,,,615513578b8c1d40dcec3b25,62c539d01ea850893376a8dc,2022-07-06_24h29.51.491,Colour_Asymmetry_Pilot,2022.1.3,Win32,60.43756799,62c50e9c1127f2cd403a315f,,,,,,,,,,,,,,,,,,,"[0.34099999999999997,0.5841999999999998,-0.9844]",fourthree,"[0.23920000000000008,0.2704,0.16060000000000008]",-4,1.2651,-29,63,1,0,0,response7disk_5,-14,-2,1,0,0,rectangle_8,-14,-2,1,0,0,4,-14,-2,1,0,0,3,0,3,0,1,,,,,,,,,,,,,,,,,,,,,,,,,,,,,,,,,,,,,,,,,,,,,,,,,,,,,,,,,,,,,,,,,,,,,,,,,,,,,,,,,,,,,,,,,,,,,,,,,,,,,,,,,,,,,,,,
,,,,,,615513578b8c1d40dcec3b25,62c539d01ea850893376a8dc,2022-07-06_24h29.51.491,Colour_Asymmetry_Pilot,2022.1.3,Win32,60.43756799,62c50e9c1127f2cd403a315f,,,,,,,,,,,,,,,,,,,"[0.30180000000000007,-0.7884,-0.9844]",threeone,"[-0.5452,-0.608,0.2470000000000001]",-4,1.0652,-37,99,1,0,0,response7disk_5,-15,11,1,0,0,rectangle_8,-15,11,1,0,0,4,-15,11,1,0,0,4,0,4,0,1,,,,,,,,,,,,,,,,,,,,,,,,,,,,,,,,,,,,,,,,,,,,,,,,,,,,,,,,,,,,,,,,,,,,,,,,,,,,,,,,,,,,,,,,,,,,,,,,,,,,,,,,,,,,,,,,
,,,,,,615513578b8c1d40dcec3b25,62c539d01ea850893376a8dc,2022-07-06_24h29.51.491,Colour_Asymmetry_Pilot,2022.1.3,Win32,60.43756799,62c50e9c1127f2cd403a315f,,,,,,,,,,,,,,,,,,,"[-0.01980000000000004,-0.5138,-0.38039999999999996]",onetwo,"[-0.38039999999999996,-0.4276,-0.1452]",4,1.1992,37,99,1,0,0,response1disk_5,-2,-2,1,0,0,rectangle_8,34,92,1,0,0,4,2,-2,1,0,0,5,0,5,0,1,response1disk_7,7,rectangle_4,,,,,,,,,,,,,,,,,,,,,,,,,,,,,,,,,,,,,,,,,,,,,,,,,,,,,,,,,,,,,,,,,,,,,,,,,,,,,,,,,,,,,,,,,,,,,,,,,,,,,,,,,,,,,
,,,,,,615513578b8c1d40dcec3b25,62c539d01ea850893376a8dc,2022-07-06_24h29.51.491,Colour_Asymmetry_Pilot,2022.1.3,Win32,60.43756799,62c50e9c1127f2cd403a315f,,,,,,,,,,,,,,,,,,,"[-0.01980000000000004,-0.5138,-0.38039999999999996]",twoone,"[-0.4902000000000001,0.2704,-0.45899999999999996]",-4,0.9322,-55,105,1,0,0,response7disk_5,-8,7,1,0,0,rectangle_8,-8,7,1,0,0,4,-8,7,1,0,0,6,0,6,0,1,,,,,,,,,,,,,,,,,,,,,,,,,,,,,,,,,,,,,,,,,,,,,,,,,,,,,,,,,,,,,,,,,,,,,,,,,,,,,,,,,,,,,,,,,,,,,,,,,,,,,,,,,,,,,,,,
,,,,,,615513578b8c1d40dcec3b25,62c539d01ea850893376a8dc,2022-07-06_24h29.51.491,Colour_Asymmetry_Pilot,2022.1.3,Win32,60.43756799,62c50e9c1127f2cd403a315f,,,,,,,,,,,,,,,,,,,,fourtwo,,4,3.4949,,,,,,,,,,,,,,,,,,,,,,,,,,,,,,,,space,5.2432,"[0.12939999999999996,-0.2864,0.3253999999999999]","[0.05879999999999996,0.2784,0.5841999999999998]",28,98,1,0,0,response1disk,-18,7,1,0,0,rectangle,-18,7,1,0,0,,2,0.0029,0,-18,7,1,0,0,0,0,0,142,1,61,second,,,,,,,,,,,,,,,,,,,,,,,,,,,,,,,,,,,,,,,,,,,,,,,,,,,,,,,,,,,,,,,,,,,,,,,,
,,,,,,615513578b8c1d40dcec3b25,62c539d01ea850893376a8dc,2022-07-06_24h29.51.491,Colour_Asymmetry_Pilot,2022.1.3,Win32,60.43756799,62c50e9c1127f2cd403a315f,,,,,,,,,,,,,,,,,,,,onetwo,,-4,0.7819,,,,,,,,,,,,,,,,,,,,,,,,,,,,,,,,,,"[-0.9216,-0.5529999999999999,-0.3962]","[-0.050999999999999934,-0.6706000000000001,-0.804]",-41,79,1,0,0,response7disk,-1,4,1,0,0,rectangle,-1,4,1,0,0,,1,0.0018,0,-1,4,1,0,0,0,1,1,82,1,1,second,,,,,,,,,,,,,,,,,,,,,,,,,,,,,,,,,,,,,,,,,,,,,,,,,,,,,,,,,,,,,,,,,,,,,,,,
,,,,,,615513578b8c1d40dcec3b25,62c539d01ea850893376a8dc,2022-07-06_24h29.51.491,Colour_Asymmetry_Pilot,2022.1.3,Win32,60.43756799,62c50e9c1127f2cd403a315f,,,,,,,,,,,,,,,,,,,,onetwo,,4,0.7321,,,,,,,,,,,,,,,,,,,,,,,,,,,,,,,,,,"[-0.0040000000000000036,0.02739999999999987,-0.08239999999999992]","[0.7018,0.7802,-0.16079999999999994]",29,71,1,0,0,response1disk,3,1,1,0,0,rectangle,3,1,1,0,0,,2,0.0012,0,3,1,1,0,0,0,2,2,73,1,73,first,,,,,,,,,,,,,,,,,,,,,,,,,,,,,,,,,,,,,,,,,,,,,,,,,,,,,,,,,,,,,,,,,,,,,,,,
,,,,,,615513578b8c1d40dcec3b25,62c539d01ea850893376a8dc,2022-07-06_24h29.51.491,Colour_Asymmetry_Pilot,2022.1.3,Win32,60.43756799,62c50e9c1127f2cd403a315f,,,,,,,,,,,,,,,,,,,,onethree,,-4,0.649,,,,,,,,,,,,,,,,,,,,,,,,,,,,,,,,,,"[0.5449999999999999,-0.31000000000000005,-0.0354000000000001]","[0.9213999999999998,0.6391999999999998,-0.9922]",-24,46,1,0,0,response7disk,-1,9,1,0,0,rectangle,-1,9,1,0,0,,3,0.0016,0,-1,9,1,0,0,0,3,3,32,1,32,first,,,,,,,,,,,,,,,,,,,,,,,,,,,,,,,,,,,,,,,,,,,,,,,,,,,,,,,,,,,,,,,,,,,,,,,,
,,,,,,615513578b8c1d40dcec3b25,62c539d01ea850893376a8dc,2022-07-06_24h29.51.491,Colour_Asymmetry_Pilot,2022.1.3,Win32,60.43756799,62c50e9c1127f2cd403a315f,,,,,,,,,,,,,,,,,,,,fourtwo,,-4,0.5488,,,,,,,,,,,,,,,,,,,,,,,,,,,,,,,,,,"[-0.10599999999999998,-0.15300000000000002,0.15280000000000005]","[0.9372,0.9450000000000001,0.8980000000000001]",-28,74,1,0,0,response7disk,4,-8,1,0,0,rectangle,4,-8,1,0,0,,2,0.0013,0,4,-8,1,0,0,0,4,4,90,1,9,second,,,,,,,,,,,,,,,,,,,,,,,,,,,,,,,,,,,,,,,,,,,,,,,,,,,,,,,,,,,,,,,,,,,,,,,,
,,,,,,615513578b8c1d40dcec3b25,62c539d01ea850893376a8dc,2022-07-06_24h29.51.491,Colour_Asymmetry_Pilot,2022.1.3,Win32,60.43756799,62c50e9c1127f2cd403a315f,,,,,,,,,,,,,,,,,,,,threefour,,-4,0.7154,,,,,,,,,,,,,,,,,,,,,,,,,,,,,,,,,,"[0.04299999999999993,0.16060000000000008,-0.6628000000000001]","[-0.10599999999999998,-0.10599999999999998,0.5841999999999998]",-46,88,1,0,0,response7disk,-11,2,1,0,0,rectangle,-11,2,1,0,0,,1,0.0018,0,-11,2,1,0,0,0,5,5,0,1,0,first,,,,,,,,,,,,,,,,,,,,,,,,,,,,,,,,,,,,,,,,,,,,,,,,,,,,,,,,,,,,,,,,,,,,,,,,
,,,,,,615513578b8c1d40dcec3b25,62c539d01ea850893376a8dc,2022-07-06_24h29.51.491,Colour_Asymmetry_Pilot,2022.1.3,Win32,60.43756799,62c50e9c1127f2cd403a315f,,,,,,,,,,,,,,,,,,,,onetwo,,-4,0.5989,,,,,,,,,,,,,,,,,,,,,,,,,,,,,,,,,,"[0.8274000000000001,-0.5844,-0.9452]","[-0.4746,-0.0354000000000001,0.5449999999999999]",-29,72,1,0,0,response7disk,6,0,1,0,0,rectangle,6,0,1,0,0,,2,0.002,0,6,0,1,0,0,0,6,6,35,1,35,first,,,,,,,,,,,,,,,,,,,,,,,,,,,,,,,,,,,,,,,,,,,,,,,,,,,,,,,,,,,,,,,,,,,,,,,,
,,,,,,615513578b8c1d40dcec3b25,62c539d01ea850893376a8dc,2022-07-06_24h29.51.491,Colour_Asymmetry_Pilot,2022.1.3,Win32,60.43756799,62c50e9c1127f2cd403a315f,,,,,,,,,,,,,,,,,,,,twofour,,4,0.6155,,,,,,,,,,,,,,,,,,,,,,,,,,,,,,,,,,"[-0.17659999999999998,-0.2864,-0.8354]","[0.6625999999999999,0.4980000000000002,-0.357]",25,75,1,0,0,response1disk,-2,3,1,0,0,rectangle,96,32,1,0,0,3,3,3.6456,1,-17,-4,1,0,0,0,7,7,97,1,16,second,response1disk_3,rectangle,,,,,,,,,,,,,,,,,,,,,,,,,,,,,,,,,,,,,,,,,,,,,,,,,,,,,,,,,,,,,,,,,,,,,,
,,,,,,615513578b8c1d40dcec3b25,62c539d01ea850893376a8dc,2022-07-06_24h29.51.491,Colour_Asymmetry_Pilot,2022.1.3,Win32,60.43756799,62c50e9c1127f2cd403a315f,,,,,,,,,,,,,,,,,,,,threeone,,-4,0.565,,,,,,,,,,,,,,,,,,,,,,,,,,,,,,,,,,"[-0.4982,-0.2942,-0.0354000000000001]","[0.7018,0.7802,-0.16079999999999994]",-55,100,1,0,0,response7disk,1,0,1,0,0,rectangle,1,0,1,0,0,3,2,0.0014,0,1,0,1,0,0,0,8,8,19,1,19,first,,,,,,,,,,,,,,,,,,,,,,,,,,,,,,,,,,,,,,,,,,,,,,,,,,,,,,,,,,,,,,,,,,,,,,,,
,,,,,,615513578b8c1d40dcec3b25,62c539d01ea850893376a8dc,2022-07-06_24h29.51.491,Colour_Asymmetry_Pilot,2022.1.3,Win32,60.43756799,62c50e9c1127f2cd403a315f,,,,,,,,,,,,,,,,,,,,threefour,,4,0.7991,,,,,,,,,,,,,,,,,,,,,,,,,,,,,,,,,,"[-0.9688,-0.7412000000000001,-0.4902000000000001]","[-0.9766,-0.34920000000000007,0.2156]",24,96,1,0,0,response1disk,-10,4,1,0,0,rectangle,-10,4,1,0,0,3,1,0.0008,0,-10,4,1,0,0,0,9,9,15,1,15,first,,,,,,,,,,,,,,,,,,,,,,,,,,,,,,,,,,,,,,,,,,,,,,,,,,,,,,,,,,,,,,,,,,,,,,,,
,,,,,,615513578b8c1d40dcec3b25,62c539d01ea850893376a8dc,2022-07-06_24h29.51.491,Colour_Asymmetry_Pilot,2022.1.3,Win32,60.43756799,62c50e9c1127f2cd403a315f,,,,,,,,,,,,,,,,,,,,fourtwo,,-4,1.6482,,,,,,,,,,,,,,,,,,,,,,,,,,,,,,,,,,"[-0.9766,-0.34920000000000007,0.2156]","[-0.7412000000000001,-0.08239999999999992,-0.6864]",-33,79,1,0,0,response7disk,6,-6,1,0,0,rectangle,6,-6,1,0,0,3,3,0.001,0,6,-6,1,0,0,0,10,10,22,1,22,first,,,,,,,,,,,,,,,,,,,,,,,,,,,,,,,,,,,,,,,,,,,,,,,,,,,,,,,,,,,,,,,,,,,,,,,,
,,,,,,615513578b8c1d40dcec3b25,62c539d01ea850893376a8dc,2022-07-06_24h29.51.491,Colour_Asymmetry_Pilot,2022.1.3,Win32,60.43756799,62c50e9c1127f2cd403a315f,,,,,,,,,,,,,,,,,,,,onetwo,,-4,0.6327,,,,,,,,,,,,,,,,,,,,,,,,,,,,,,,,,,"[-0.9844,-0.9688,-0.9922]","[0.9372,0.9450000000000001,0.8980000000000001]",-46,100,1,0,0,response7disk,-5,12,1,0,0,rectangle,-5,12,1,0,0,3,3,0.0003,0,-5,12,1,0,0,0,11,11,132,1,51,second,,,,,,,,,,,,,,,,,,,,,,,,,,,,,,,,,,,,,,,,,,,,,,,,,,,,,,,,,,,,,,,,,,,,,,,,
,,,,,,615513578b8c1d40dcec3b25,62c539d01ea850893376a8dc,2022-07-06_24h29.51.491,Colour_Asymmetry_Pilot,2022.1.3,Win32,60.43756799,62c50e9c1127f2cd403a315f,,,,,,,,,,,,,,,,,,,,onethree,,-4,1.1985,,,,,,,,,,,,,,,,,,,,,,,,,,,,,,,,,,"[0.9763999999999999,0.8588,-0.05900000000000005]","[0.8274000000000001,-0.5844,-0.9452]",-27,73,1,0,0,response7disk,-9,7,1,0,0,rectangle,-9,7,1,0,0,3,3,0.0002,0,-9,7,1,0,0,0,12,12,139,1,58,second,,,,,,,,,,,,,,,,,,,,,,,,,,,,,,,,,,,,,,,,,,,,,,,,,,,,,,,,,,,,,,,,,,,,,,,,
,,,,,,615513578b8c1d40dcec3b25,62c539d01ea850893376a8dc,2022-07-06_24h29.51.491,Colour_Asymmetry_Pilot,2022.1.3,Win32,60.43756799,62c50e9c1127f2cd403a315f,,,,,,,,,,,,,,,,,,,,threeone,,-4,1.265,,,,,,,,,,,,,,,,,,,,,,,,,,,,,,,,,,"[0.9372,0.20779999999999998,0.2704]","[-0.5452,-0.608,0.2470000000000001]",-26,98,1,0,0,response7disk,14,-7,1,0,0,rectangle,76,29,1,0,0,3,3,3.6442,1,-2,-5,1,0,0,0,13,13,36,1,36,first,response1disk_3,rectangle,,,,,,,,,,,,,,,,,,,,,,,,,,,,,,,,,,,,,,,,,,,,,,,,,,,,,,,,,,,,,,,,,,,,,,
,,,,,,615513578b8c1d40dcec3b25,62c539d01ea850893376a8dc,2022-07-06_24h29.51.491,Colour_Asymmetry_Pilot,2022.1.3,Win32,60.43756799,62c50e9c1127f2cd403a315f,,,,,,,,,,,,,,,,,,,,onetwo,,-4,0.5661,,,,,,,,,,,,,,,,,,,,,,,,,,,,,,,,,,"[0.8274000000000001,-0.5844,-0.9452]","[0.9763999999999999,0.8588,-0.05900000000000005]",-45,87,1,0,0,response7disk,-5,7,1,0,0,rectangle,-5,7,1,0,0,3,2,0.0016,0,-5,7,1,0,0,0,14,14,58,1,58,first,,,,,,,,,,,,,,,,,,,,,,,,,,,,,,,,,,,,,,,,,,,,,,,,,,,,,,,,,,,,,,,,,,,,,,,,
,,,,,,615513578b8c1d40dcec3b25,62c539d01ea850893376a8dc,2022-07-06_24h29.51.491,Colour_Asymmetry_Pilot,2022.1.3,Win32,60.43756799,62c50e9c1127f2cd403a315f,,,,,,,,,,,,,,,,,,,,twofour,,-4,0.5161,,,,,,,,,,,,,,,,,,,,,,,,,,,,,,,,,,"[0.3568,-0.20799999999999996,-0.9844]","[-0.9766,-0.34920000000000007,0.2156]",-36,65,1,0,0,response7disk,-5,-4,1,0,0,rectangle,-5,-4,1,0,0,3,2,0.0007,0,-5,-4,1,0,0,0,15,15,47,1,47,first,,,,,,,,,,,,,,,,,,,,,,,,,,,,,,,,,,,,,,,,,,,,,,,,,,,,,,,,,,,,,,,,,,,,,,,,
,,,,,,615513578b8c1d40dcec3b25,62c539d01ea850893376a8dc,2022-07-06_24h29.51.491,Colour_Asymmetry_Pilot,2022.1.3,Win32,60.43756799,62c50e9c1127f2cd403a315f,,,,,,,,,,,,,,,,,,,,threeone,,-4,0.5155,,,,,,,,,,,,,,,,,,,,,,,,,,,,,,,,,,"[0.18419999999999992,-0.4276,-0.404]","[0.7018,0.7802,-0.16079999999999994]",-35,69,1,0,0,response7disk,0,0,1,0,0,rectangle,0,0,1,0,0,3,2,0.0002,0,0,0,1,0,0,0,16,16,39,1,39,first,,,,,,,,,,,,,,,,,,,,,,,,,,,,,,,,,,,,,,,,,,,,,,,,,,,,,,,,,,,,,,,,,,,,,,,,
,,,,,,615513578b8c1d40dcec3b25,62c539d01ea850893376a8dc,2022-07-06_24h29.51.491,Colour_Asymmetry_Pilot,2022.1.3,Win32,60.43756799,62c50e9c1127f2cd403a315f,,,,,,,,,,,,,,,,,,,,fourthree,,-4,0.4825,,,,,,,,,,,,,,,,,,,,,,,,,,,,,,,,,,"[0.9686000000000001,0.3802000000000001,0.19999999999999996]","[-0.4902000000000001,0.2704,-0.45899999999999996]",-33,80,1,0,0,response7disk,-2,-4,1,0,0,rectangle,-2,-4,1,0,0,3,3,0.0011,0,-2,-4,1,0,0,0,17,17,28,1,28,first,,,,,,,,,,,,,,,,,,,,,,,,,,,,,,,,,,,,,,,,,,,,,,,,,,,,,,,,,,,,,,,,,,,,,,,,
