trials.thisRepN,trials.thisTrialN,trials.thisN,trials.thisIndex,trials.ran,Colourcodes,participant,session,date,expName,psychopyVersion,OS,frameRate,study_id,trials_4.thisRepN,trials_4.thisTrialN,trials_4.thisN,trials_4.thisIndex,trials_4.ran,StimulusPos,key_resp.keys,key_resp.rt,key_resp_2.keys,key_resp_2.rt,key_resp_15.keys,key_resp_15.rt,key_resp_17.keys,key_resp_17.rt,key_resp_9.keys,key_resp_9.rt,key_resp_10.keys,key_resp_10.rt,Circle1_col,Ecc,Circle2_col,similarity,response_time,mouse_5.x,mouse_5.y,mouse_5.leftButton,mouse_5.midButton,mouse_5.rightButton,mouse_5.clicked_name,mouse_10.x,mouse_10.y,mouse_10.leftButton,mouse_10.midButton,mouse_10.rightButton,mouse_10.clicked_name,mouse_7.x,mouse_7.y,mouse_7.leftButton,mouse_7.midButton,mouse_7.rightButton,mouse_7.clicked_name,catchprac,catchnumberprac,mouse_6.x,mouse_6.y,mouse_6.leftButton,mouse_6.midButton,mouse_6.rightButton,mouse_6.clicked_name,duringprac.thisRepN,duringprac.thisTrialN,duringprac.thisN,duringprac.thisIndex,duringprac.ran,key_resp_22.keys,key_resp_22.rt,Circle1_colour,Circle2_colour,mouse.x,mouse.y,mouse.leftButton,mouse.midButton,mouse.rightButton,mouse.clicked_name,mouse_2.x,mouse_2.y,mouse_2.leftButton,mouse_2.midButton,mouse_2.rightButton,mouse_2.clicked_name,mouse_3.x,mouse_3.y,mouse_3.leftButton,mouse_3.midButton,mouse_3.rightButton,catchresponse,catchnumber,response_time_catch,Catch,mouse_11.x,mouse_11.y,mouse_11.leftButton,mouse_11.midButton,mouse_11.rightButton,trials_2.thisRepN,trials_2.thisTrialN,trials_2.thisN,trials_2.thisIndex,trials_2.ran,Colourpair,Temporder,mouse_3.clicked_name,mouse_11.clicked_name,trials_3.thisRepN,trials_3.thisTrialN,trials_3.thisN,trials_3.thisIndex,trials_3.ran,key_resp_instr_Ishi.keys,key_resp_instr_Ishi.rt,Ishi_trial_keyresp.keys,Ishi_textbox.text,Ishi_mouse.x,Ishi_mouse.y,Ishi_mouse.leftButton,Ishi_mouse.midButton,Ishi_mouse.rightButton,Ishi_mouse.clicked_name,Ishi_loop.thisRepN,Ishi_loop.thisTrialN,Ishi_loop.thisN,Ishi_loop.thisIndex,Ishi_loop.ran,imageaddress,textbox.text,mouse_4.x,mouse_4.y,mouse_4.leftButton,mouse_4.midButton,mouse_4.rightButton,mouse_4.clicked_name,textbox_2.text,mouse_8.x,mouse_8.y,mouse_8.leftButton,mouse_8.midButton,mouse_8.rightButton,mouse_8.clicked_name,textbox_3.text,mouse_9.x,mouse_9.y,mouse_9.leftButton,mouse_9.midButton,mouse_9.rightButton,mouse_9.clicked_name,textbox_4.text,mouse_12.x,mouse_12.y,mouse_12.leftButton,mouse_12.midButton,mouse_12.rightButton,mouse_12.clicked_name,textbox_5.text,mouse_13.x,mouse_13.y,mouse_13.leftButton,mouse_13.midButton,mouse_13.rightButton,mouse_13.clicked_name,textbox_6.text,mouse_14.x,mouse_14.y,mouse_14.leftButton,mouse_14.midButton,mouse_14.rightButton,mouse_14.clicked_name,textbox_7.text,mouse_15.x,mouse_15.y,mouse_15.leftButton,mouse_15.midButton,mouse_15.rightButton,mouse_15.clicked_name
0,0,0,55,1,,614deecf67f2c8ccfe3df23b,62c53a01808438d282f10f02,2022-07-06_10h07.32.602,Colour_Asymmetry_Pilot,2022.1.3,Win32,59.85156811,62c50e9c1127f2cd403a315f,,,,,,,,,,,,,,,,,,,,,,,,,,,,,,,,,,,,,,,,,,,,,,,,,,,,,,,,,,,,,,,,,,,,,,,,,,,,,,,,,,,,,,,,,,,,,,,,,,,,,,,,,,,,,,,,,,,,,,,,,,,,,,,,,,,,,,,,,,,,,,,,,,,,,,,,,,,,,,,,,,,
0,1,1,66,1,,614deecf67f2c8ccfe3df23b,62c53a01808438d282f10f02,2022-07-06_10h07.32.602,Colour_Asymmetry_Pilot,2022.1.3,Win32,59.85156811,62c50e9c1127f2cd403a315f,,,,,,,,,,,,,,,,,,,,,,,,,,,,,,,,,,,,,,,,,,,,,,,,,,,,,,,,,,,,,,,,,,,,,,,,,,,,,,,,,,,,,,,,,,,,,,,,,,,,,,,,,,,,,,,,,,,,,,,,,,,,,,,,,,,,,,,,,,,,,,,,,,,,,,,,,,,,,,,,,,,
0,2,2,69,1,,614deecf67f2c8ccfe3df23b,62c53a01808438d282f10f02,2022-07-06_10h07.32.602,Colour_Asymmetry_Pilot,2022.1.3,Win32,59.85156811,62c50e9c1127f2cd403a315f,,,,,,,,,,,,,,,,,,,,,,,,,,,,,,,,,,,,,,,,,,,,,,,,,,,,,,,,,,,,,,,,,,,,,,,,,,,,,,,,,,,,,,,,,,,,,,,,,,,,,,,,,,,,,,,,,,,,,,,,,,,,,,,,,,,,,,,,,,,,,,,,,,,,,,,,,,,,,,,,,,,
0,3,3,30,1,,614deecf67f2c8ccfe3df23b,62c53a01808438d282f10f02,2022-07-06_10h07.32.602,Colour_Asymmetry_Pilot,2022.1.3,Win32,59.85156811,62c50e9c1127f2cd403a315f,,,,,,,,,,,,,,,,,,,,,,,,,,,,,,,,,,,,,,,,,,,,,,,,,,,,,,,,,,,,,,,,,,,,,,,,,,,,,,,,,,,,,,,,,,,,,,,,,,,,,,,,,,,,,,,,,,,,,,,,,,,,,,,,,,,,,,,,,,,,,,,,,,,,,,,,,,,,,,,,,,,
0,4,4,10,1,,614deecf67f2c8ccfe3df23b,62c53a01808438d282f10f02,2022-07-06_10h07.32.602,Colour_Asymmetry_Pilot,2022.1.3,Win32,59.85156811,62c50e9c1127f2cd403a315f,,,,,,,,,,,,,,,,,,,,,,,,,,,,,,,,,,,,,,,,,,,,,,,,,,,,,,,,,,,,,,,,,,,,,,,,,,,,,,,,,,,,,,,,,,,,,,,,,,,,,,,,,,,,,,,,,,,,,,,,,,,,,,,,,,,,,,,,,,,,,,,,,,,,,,,,,,,,,,,,,,,
0,5,5,77,1,,614deecf67f2c8ccfe3df23b,62c53a01808438d282f10f02,2022-07-06_10h07.32.602,Colour_Asymmetry_Pilot,2022.1.3,Win32,59.85156811,62c50e9c1127f2cd403a315f,,,,,,,,,,,,,,,,,,,,,,,,,,,,,,,,,,,,,,,,,,,,,,,,,,,,,,,,,,,,,,,,,,,,,,,,,,,,,,,,,,,,,,,,,,,,,,,,,,,,,,,,,,,,,,,,,,,,,,,,,,,,,,,,,,,,,,,,,,,,,,,,,,,,,,,,,,,,,,,,,,,
0,6,6,40,1,,614deecf67f2c8ccfe3df23b,62c53a01808438d282f10f02,2022-07-06_10h07.32.602,Colour_Asymmetry_Pilot,2022.1.3,Win32,59.85156811,62c50e9c1127f2cd403a315f,,,,,,,,,,,,,,,,,,,,,,,,,,,,,,,,,,,,,,,,,,,,,,,,,,,,,,,,,,,,,,,,,,,,,,,,,,,,,,,,,,,,,,,,,,,,,,,,,,,,,,,,,,,,,,,,,,,,,,,,,,,,,,,,,,,,,,,,,,,,,,,,,,,,,,,,,,,,,,,,,,,
0,7,7,90,1,,614deecf67f2c8ccfe3df23b,62c53a01808438d282f10f02,2022-07-06_10h07.32.602,Colour_Asymmetry_Pilot,2022.1.3,Win32,59.85156811,62c50e9c1127f2cd403a315f,,,,,,,,,,,,,,,,,,,,,,,,,,,,,,,,,,,,,,,,,,,,,,,,,,,,,,,,,,,,,,,,,,,,,,,,,,,,,,,,,,,,,,,,,,,,,,,,,,,,,,,,,,,,,,,,,,,,,,,,,,,,,,,,,,,,,,,,,,,,,,,,,,,,,,,,,,,,,,,,,,,
0,8,8,16,1,,614deecf67f2c8ccfe3df23b,62c53a01808438d282f10f02,2022-07-06_10h07.32.602,Colour_Asymmetry_Pilot,2022.1.3,Win32,59.85156811,62c50e9c1127f2cd403a315f,,,,,,,,,,,,,,,,,,,,,,,,,,,,,,,,,,,,,,,,,,,,,,,,,,,,,,,,,,,,,,,,,,,,,,,,,,,,,,,,,,,,,,,,,,,,,,,,,,,,,,,,,,,,,,,,,,,,,,,,,,,,,,,,,,,,,,,,,,,,,,,,,,,,,,,,,,,,,,,,,,,
0,9,9,46,1,,614deecf67f2c8ccfe3df23b,62c53a01808438d282f10f02,2022-07-06_10h07.32.602,Colour_Asymmetry_Pilot,2022.1.3,Win32,59.85156811,62c50e9c1127f2cd403a315f,,,,,,,,,,,,,,,,,,,,,,,,,,,,,,,,,,,,,,,,,,,,,,,,,,,,,,,,,,,,,,,,,,,,,,,,,,,,,,,,,,,,,,,,,,,,,,,,,,,,,,,,,,,,,,,,,,,,,,,,,,,,,,,,,,,,,,,,,,,,,,,,,,,,,,,,,,,,,,,,,,,
0,10,10,86,1,,614deecf67f2c8ccfe3df23b,62c53a01808438d282f10f02,2022-07-06_10h07.32.602,Colour_Asymmetry_Pilot,2022.1.3,Win32,59.85156811,62c50e9c1127f2cd403a315f,,,,,,,,,,,,,,,,,,,,,,,,,,,,,,,,,,,,,,,,,,,,,,,,,,,,,,,,,,,,,,,,,,,,,,,,,,,,,,,,,,,,,,,,,,,,,,,,,,,,,,,,,,,,,,,,,,,,,,,,,,,,,,,,,,,,,,,,,,,,,,,,,,,,,,,,,,,,,,,,,,,
0,11,11,37,1,,614deecf67f2c8ccfe3df23b,62c53a01808438d282f10f02,2022-07-06_10h07.32.602,Colour_Asymmetry_Pilot,2022.1.3,Win32,59.85156811,62c50e9c1127f2cd403a315f,,,,,,,,,,,,,,,,,,,,,,,,,,,,,,,,,,,,,,,,,,,,,,,,,,,,,,,,,,,,,,,,,,,,,,,,,,,,,,,,,,,,,,,,,,,,,,,,,,,,,,,,,,,,,,,,,,,,,,,,,,,,,,,,,,,,,,,,,,,,,,,,,,,,,,,,,,,,,,,,,,,
0,12,12,31,1,,614deecf67f2c8ccfe3df23b,62c53a01808438d282f10f02,2022-07-06_10h07.32.602,Colour_Asymmetry_Pilot,2022.1.3,Win32,59.85156811,62c50e9c1127f2cd403a315f,,,,,,,,,,,,,,,,,,,,,,,,,,,,,,,,,,,,,,,,,,,,,,,,,,,,,,,,,,,,,,,,,,,,,,,,,,,,,,,,,,,,,,,,,,,,,,,,,,,,,,,,,,,,,,,,,,,,,,,,,,,,,,,,,,,,,,,,,,,,,,,,,,,,,,,,,,,,,,,,,,,
0,13,13,29,1,,614deecf67f2c8ccfe3df23b,62c53a01808438d282f10f02,2022-07-06_10h07.32.602,Colour_Asymmetry_Pilot,2022.1.3,Win32,59.85156811,62c50e9c1127f2cd403a315f,,,,,,,,,,,,,,,,,,,,,,,,,,,,,,,,,,,,,,,,,,,,,,,,,,,,,,,,,,,,,,,,,,,,,,,,,,,,,,,,,,,,,,,,,,,,,,,,,,,,,,,,,,,,,,,,,,,,,,,,,,,,,,,,,,,,,,,,,,,,,,,,,,,,,,,,,,,,,,,,,,,
0,14,14,3,1,,614deecf67f2c8ccfe3df23b,62c53a01808438d282f10f02,2022-07-06_10h07.32.602,Colour_Asymmetry_Pilot,2022.1.3,Win32,59.85156811,62c50e9c1127f2cd403a315f,,,,,,,,,,,,,,,,,,,,,,,,,,,,,,,,,,,,,,,,,,,,,,,,,,,,,,,,,,,,,,,,,,,,,,,,,,,,,,,,,,,,,,,,,,,,,,,,,,,,,,,,,,,,,,,,,,,,,,,,,,,,,,,,,,,,,,,,,,,,,,,,,,,,,,,,,,,,,,,,,,,
0,15,15,6,1,,614deecf67f2c8ccfe3df23b,62c53a01808438d282f10f02,2022-07-06_10h07.32.602,Colour_Asymmetry_Pilot,2022.1.3,Win32,59.85156811,62c50e9c1127f2cd403a315f,,,,,,,,,,,,,,,,,,,,,,,,,,,,,,,,,,,,,,,,,,,,,,,,,,,,,,,,,,,,,,,,,,,,,,,,,,,,,,,,,,,,,,,,,,,,,,,,,,,,,,,,,,,,,,,,,,,,,,,,,,,,,,,,,,,,,,,,,,,,,,,,,,,,,,,,,,,,,,,,,,,
0,16,16,58,1,,614deecf67f2c8ccfe3df23b,62c53a01808438d282f10f02,2022-07-06_10h07.32.602,Colour_Asymmetry_Pilot,2022.1.3,Win32,59.85156811,62c50e9c1127f2cd403a315f,,,,,,,,,,,,,,,,,,,,,,,,,,,,,,,,,,,,,,,,,,,,,,,,,,,,,,,,,,,,,,,,,,,,,,,,,,,,,,,,,,,,,,,,,,,,,,,,,,,,,,,,,,,,,,,,,,,,,,,,,,,,,,,,,,,,,,,,,,,,,,,,,,,,,,,,,,,,,,,,,,,
0,17,17,41,1,,614deecf67f2c8ccfe3df23b,62c53a01808438d282f10f02,2022-07-06_10h07.32.602,Colour_Asymmetry_Pilot,2022.1.3,Win32,59.85156811,62c50e9c1127f2cd403a315f,,,,,,,,,,,,,,,,,,,,,,,,,,,,,,,,,,,,,,,,,,,,,,,,,,,,,,,,,,,,,,,,,,,,,,,,,,,,,,,,,,,,,,,,,,,,,,,,,,,,,,,,,,,,,,,,,,,,,,,,,,,,,,,,,,,,,,,,,,,,,,,,,,,,,,,,,,,,,,,,,,,
0,18,18,91,1,,614deecf67f2c8ccfe3df23b,62c53a01808438d282f10f02,2022-07-06_10h07.32.602,Colour_Asymmetry_Pilot,2022.1.3,Win32,59.85156811,62c50e9c1127f2cd403a315f,,,,,,,,,,,,,,,,,,,,,,,,,,,,,,,,,,,,,,,,,,,,,,,,,,,,,,,,,,,,,,,,,,,,,,,,,,,,,,,,,,,,,,,,,,,,,,,,,,,,,,,,,,,,,,,,,,,,,,,,,,,,,,,,,,,,,,,,,,,,,,,,,,,,,,,,,,,,,,,,,,,
0,19,19,75,1,,614deecf67f2c8ccfe3df23b,62c53a01808438d282f10f02,2022-07-06_10h07.32.602,Colour_Asymmetry_Pilot,2022.1.3,Win32,59.85156811,62c50e9c1127f2cd403a315f,,,,,,,,,,,,,,,,,,,,,,,,,,,,,,,,,,,,,,,,,,,,,,,,,,,,,,,,,,,,,,,,,,,,,,,,,,,,,,,,,,,,,,,,,,,,,,,,,,,,,,,,,,,,,,,,,,,,,,,,,,,,,,,,,,,,,,,,,,,,,,,,,,,,,,,,,,,,,,,,,,,
0,20,20,84,1,,614deecf67f2c8ccfe3df23b,62c53a01808438d282f10f02,2022-07-06_10h07.32.602,Colour_Asymmetry_Pilot,2022.1.3,Win32,59.85156811,62c50e9c1127f2cd403a315f,,,,,,,,,,,,,,,,,,,,,,,,,,,,,,,,,,,,,,,,,,,,,,,,,,,,,,,,,,,,,,,,,,,,,,,,,,,,,,,,,,,,,,,,,,,,,,,,,,,,,,,,,,,,,,,,,,,,,,,,,,,,,,,,,,,,,,,,,,,,,,,,,,,,,,,,,,,,,,,,,,,
0,21,21,38,1,,614deecf67f2c8ccfe3df23b,62c53a01808438d282f10f02,2022-07-06_10h07.32.602,Colour_Asymmetry_Pilot,2022.1.3,Win32,59.85156811,62c50e9c1127f2cd403a315f,,,,,,,,,,,,,,,,,,,,,,,,,,,,,,,,,,,,,,,,,,,,,,,,,,,,,,,,,,,,,,,,,,,,,,,,,,,,,,,,,,,,,,,,,,,,,,,,,,,,,,,,,,,,,,,,,,,,,,,,,,,,,,,,,,,,,,,,,,,,,,,,,,,,,,,,,,,,,,,,,,,
0,22,22,28,1,,614deecf67f2c8ccfe3df23b,62c53a01808438d282f10f02,2022-07-06_10h07.32.602,Colour_Asymmetry_Pilot,2022.1.3,Win32,59.85156811,62c50e9c1127f2cd403a315f,,,,,,,,,,,,,,,,,,,,,,,,,,,,,,,,,,,,,,,,,,,,,,,,,,,,,,,,,,,,,,,,,,,,,,,,,,,,,,,,,,,,,,,,,,,,,,,,,,,,,,,,,,,,,,,,,,,,,,,,,,,,,,,,,,,,,,,,,,,,,,,,,,,,,,,,,,,,,,,,,,,
0,23,23,42,1,,614deecf67f2c8ccfe3df23b,62c53a01808438d282f10f02,2022-07-06_10h07.32.602,Colour_Asymmetry_Pilot,2022.1.3,Win32,59.85156811,62c50e9c1127f2cd403a315f,,,,,,,,,,,,,,,,,,,,,,,,,,,,,,,,,,,,,,,,,,,,,,,,,,,,,,,,,,,,,,,,,,,,,,,,,,,,,,,,,,,,,,,,,,,,,,,,,,,,,,,,,,,,,,,,,,,,,,,,,,,,,,,,,,,,,,,,,,,,,,,,,,,,,,,,,,,,,,,,,,,
0,24,24,81,1,,614deecf67f2c8ccfe3df23b,62c53a01808438d282f10f02,2022-07-06_10h07.32.602,Colour_Asymmetry_Pilot,2022.1.3,Win32,59.85156811,62c50e9c1127f2cd403a315f,,,,,,,,,,,,,,,,,,,,,,,,,,,,,,,,,,,,,,,,,,,,,,,,,,,,,,,,,,,,,,,,,,,,,,,,,,,,,,,,,,,,,,,,,,,,,,,,,,,,,,,,,,,,,,,,,,,,,,,,,,,,,,,,,,,,,,,,,,,,,,,,,,,,,,,,,,,,,,,,,,,
0,25,25,72,1,,614deecf67f2c8ccfe3df23b,62c53a01808438d282f10f02,2022-07-06_10h07.32.602,Colour_Asymmetry_Pilot,2022.1.3,Win32,59.85156811,62c50e9c1127f2cd403a315f,,,,,,,,,,,,,,,,,,,,,,,,,,,,,,,,,,,,,,,,,,,,,,,,,,,,,,,,,,,,,,,,,,,,,,,,,,,,,,,,,,,,,,,,,,,,,,,,,,,,,,,,,,,,,,,,,,,,,,,,,,,,,,,,,,,,,,,,,,,,,,,,,,,,,,,,,,,,,,,,,,,
0,26,26,12,1,,614deecf67f2c8ccfe3df23b,62c53a01808438d282f10f02,2022-07-06_10h07.32.602,Colour_Asymmetry_Pilot,2022.1.3,Win32,59.85156811,62c50e9c1127f2cd403a315f,,,,,,,,,,,,,,,,,,,,,,,,,,,,,,,,,,,,,,,,,,,,,,,,,,,,,,,,,,,,,,,,,,,,,,,,,,,,,,,,,,,,,,,,,,,,,,,,,,,,,,,,,,,,,,,,,,,,,,,,,,,,,,,,,,,,,,,,,,,,,,,,,,,,,,,,,,,,,,,,,,,
0,27,27,76,1,,614deecf67f2c8ccfe3df23b,62c53a01808438d282f10f02,2022-07-06_10h07.32.602,Colour_Asymmetry_Pilot,2022.1.3,Win32,59.85156811,62c50e9c1127f2cd403a315f,,,,,,,,,,,,,,,,,,,,,,,,,,,,,,,,,,,,,,,,,,,,,,,,,,,,,,,,,,,,,,,,,,,,,,,,,,,,,,,,,,,,,,,,,,,,,,,,,,,,,,,,,,,,,,,,,,,,,,,,,,,,,,,,,,,,,,,,,,,,,,,,,,,,,,,,,,,,,,,,,,,
0,28,28,14,1,,614deecf67f2c8ccfe3df23b,62c53a01808438d282f10f02,2022-07-06_10h07.32.602,Colour_Asymmetry_Pilot,2022.1.3,Win32,59.85156811,62c50e9c1127f2cd403a315f,,,,,,,,,,,,,,,,,,,,,,,,,,,,,,,,,,,,,,,,,,,,,,,,,,,,,,,,,,,,,,,,,,,,,,,,,,,,,,,,,,,,,,,,,,,,,,,,,,,,,,,,,,,,,,,,,,,,,,,,,,,,,,,,,,,,,,,,,,,,,,,,,,,,,,,,,,,,,,,,,,,
0,29,29,17,1,,614deecf67f2c8ccfe3df23b,62c53a01808438d282f10f02,2022-07-06_10h07.32.602,Colour_Asymmetry_Pilot,2022.1.3,Win32,59.85156811,62c50e9c1127f2cd403a315f,,,,,,,,,,,,,,,,,,,,,,,,,,,,,,,,,,,,,,,,,,,,,,,,,,,,,,,,,,,,,,,,,,,,,,,,,,,,,,,,,,,,,,,,,,,,,,,,,,,,,,,,,,,,,,,,,,,,,,,,,,,,,,,,,,,,,,,,,,,,,,,,,,,,,,,,,,,,,,,,,,,
0,30,30,88,1,,614deecf67f2c8ccfe3df23b,62c53a01808438d282f10f02,2022-07-06_10h07.32.602,Colour_Asymmetry_Pilot,2022.1.3,Win32,59.85156811,62c50e9c1127f2cd403a315f,,,,,,,,,,,,,,,,,,,,,,,,,,,,,,,,,,,,,,,,,,,,,,,,,,,,,,,,,,,,,,,,,,,,,,,,,,,,,,,,,,,,,,,,,,,,,,,,,,,,,,,,,,,,,,,,,,,,,,,,,,,,,,,,,,,,,,,,,,,,,,,,,,,,,,,,,,,,,,,,,,,
0,31,31,15,1,,614deecf67f2c8ccfe3df23b,62c53a01808438d282f10f02,2022-07-06_10h07.32.602,Colour_Asymmetry_Pilot,2022.1.3,Win32,59.85156811,62c50e9c1127f2cd403a315f,,,,,,,,,,,,,,,,,,,,,,,,,,,,,,,,,,,,,,,,,,,,,,,,,,,,,,,,,,,,,,,,,,,,,,,,,,,,,,,,,,,,,,,,,,,,,,,,,,,,,,,,,,,,,,,,,,,,,,,,,,,,,,,,,,,,,,,,,,,,,,,,,,,,,,,,,,,,,,,,,,,
0,32,32,7,1,,614deecf67f2c8ccfe3df23b,62c53a01808438d282f10f02,2022-07-06_10h07.32.602,Colour_Asymmetry_Pilot,2022.1.3,Win32,59.85156811,62c50e9c1127f2cd403a315f,,,,,,,,,,,,,,,,,,,,,,,,,,,,,,,,,,,,,,,,,,,,,,,,,,,,,,,,,,,,,,,,,,,,,,,,,,,,,,,,,,,,,,,,,,,,,,,,,,,,,,,,,,,,,,,,,,,,,,,,,,,,,,,,,,,,,,,,,,,,,,,,,,,,,,,,,,,,,,,,,,,
0,33,33,51,1,,614deecf67f2c8ccfe3df23b,62c53a01808438d282f10f02,2022-07-06_10h07.32.602,Colour_Asymmetry_Pilot,2022.1.3,Win32,59.85156811,62c50e9c1127f2cd403a315f,,,,,,,,,,,,,,,,,,,,,,,,,,,,,,,,,,,,,,,,,,,,,,,,,,,,,,,,,,,,,,,,,,,,,,,,,,,,,,,,,,,,,,,,,,,,,,,,,,,,,,,,,,,,,,,,,,,,,,,,,,,,,,,,,,,,,,,,,,,,,,,,,,,,,,,,,,,,,,,,,,,
0,34,34,45,1,,614deecf67f2c8ccfe3df23b,62c53a01808438d282f10f02,2022-07-06_10h07.32.602,Colour_Asymmetry_Pilot,2022.1.3,Win32,59.85156811,62c50e9c1127f2cd403a315f,,,,,,,,,,,,,,,,,,,,,,,,,,,,,,,,,,,,,,,,,,,,,,,,,,,,,,,,,,,,,,,,,,,,,,,,,,,,,,,,,,,,,,,,,,,,,,,,,,,,,,,,,,,,,,,,,,,,,,,,,,,,,,,,,,,,,,,,,,,,,,,,,,,,,,,,,,,,,,,,,,,
0,35,35,49,1,,614deecf67f2c8ccfe3df23b,62c53a01808438d282f10f02,2022-07-06_10h07.32.602,Colour_Asymmetry_Pilot,2022.1.3,Win32,59.85156811,62c50e9c1127f2cd403a315f,,,,,,,,,,,,,,,,,,,,,,,,,,,,,,,,,,,,,,,,,,,,,,,,,,,,,,,,,,,,,,,,,,,,,,,,,,,,,,,,,,,,,,,,,,,,,,,,,,,,,,,,,,,,,,,,,,,,,,,,,,,,,,,,,,,,,,,,,,,,,,,,,,,,,,,,,,,,,,,,,,,
0,36,36,9,1,,614deecf67f2c8ccfe3df23b,62c53a01808438d282f10f02,2022-07-06_10h07.32.602,Colour_Asymmetry_Pilot,2022.1.3,Win32,59.85156811,62c50e9c1127f2cd403a315f,,,,,,,,,,,,,,,,,,,,,,,,,,,,,,,,,,,,,,,,,,,,,,,,,,,,,,,,,,,,,,,,,,,,,,,,,,,,,,,,,,,,,,,,,,,,,,,,,,,,,,,,,,,,,,,,,,,,,,,,,,,,,,,,,,,,,,,,,,,,,,,,,,,,,,,,,,,,,,,,,,,
0,37,37,65,1,,614deecf67f2c8ccfe3df23b,62c53a01808438d282f10f02,2022-07-06_10h07.32.602,Colour_Asymmetry_Pilot,2022.1.3,Win32,59.85156811,62c50e9c1127f2cd403a315f,,,,,,,,,,,,,,,,,,,,,,,,,,,,,,,,,,,,,,,,,,,,,,,,,,,,,,,,,,,,,,,,,,,,,,,,,,,,,,,,,,,,,,,,,,,,,,,,,,,,,,,,,,,,,,,,,,,,,,,,,,,,,,,,,,,,,,,,,,,,,,,,,,,,,,,,,,,,,,,,,,,
0,38,38,27,1,,614deecf67f2c8ccfe3df23b,62c53a01808438d282f10f02,2022-07-06_10h07.32.602,Colour_Asymmetry_Pilot,2022.1.3,Win32,59.85156811,62c50e9c1127f2cd403a315f,,,,,,,,,,,,,,,,,,,,,,,,,,,,,,,,,,,,,,,,,,,,,,,,,,,,,,,,,,,,,,,,,,,,,,,,,,,,,,,,,,,,,,,,,,,,,,,,,,,,,,,,,,,,,,,,,,,,,,,,,,,,,,,,,,,,,,,,,,,,,,,,,,,,,,,,,,,,,,,,,,,
0,39,39,20,1,,614deecf67f2c8ccfe3df23b,62c53a01808438d282f10f02,2022-07-06_10h07.32.602,Colour_Asymmetry_Pilot,2022.1.3,Win32,59.85156811,62c50e9c1127f2cd403a315f,,,,,,,,,,,,,,,,,,,,,,,,,,,,,,,,,,,,,,,,,,,,,,,,,,,,,,,,,,,,,,,,,,,,,,,,,,,,,,,,,,,,,,,,,,,,,,,,,,,,,,,,,,,,,,,,,,,,,,,,,,,,,,,,,,,,,,,,,,,,,,,,,,,,,,,,,,,,,,,,,,,
0,40,40,23,1,,614deecf67f2c8ccfe3df23b,62c53a01808438d282f10f02,2022-07-06_10h07.32.602,Colour_Asymmetry_Pilot,2022.1.3,Win32,59.85156811,62c50e9c1127f2cd403a315f,,,,,,,,,,,,,,,,,,,,,,,,,,,,,,,,,,,,,,,,,,,,,,,,,,,,,,,,,,,,,,,,,,,,,,,,,,,,,,,,,,,,,,,,,,,,,,,,,,,,,,,,,,,,,,,,,,,,,,,,,,,,,,,,,,,,,,,,,,,,,,,,,,,,,,,,,,,,,,,,,,,
0,41,41,83,1,,614deecf67f2c8ccfe3df23b,62c53a01808438d282f10f02,2022-07-06_10h07.32.602,Colour_Asymmetry_Pilot,2022.1.3,Win32,59.85156811,62c50e9c1127f2cd403a315f,,,,,,,,,,,,,,,,,,,,,,,,,,,,,,,,,,,,,,,,,,,,,,,,,,,,,,,,,,,,,,,,,,,,,,,,,,,,,,,,,,,,,,,,,,,,,,,,,,,,,,,,,,,,,,,,,,,,,,,,,,,,,,,,,,,,,,,,,,,,,,,,,,,,,,,,,,,,,,,,,,,
0,42,42,22,1,,614deecf67f2c8ccfe3df23b,62c53a01808438d282f10f02,2022-07-06_10h07.32.602,Colour_Asymmetry_Pilot,2022.1.3,Win32,59.85156811,62c50e9c1127f2cd403a315f,,,,,,,,,,,,,,,,,,,,,,,,,,,,,,,,,,,,,,,,,,,,,,,,,,,,,,,,,,,,,,,,,,,,,,,,,,,,,,,,,,,,,,,,,,,,,,,,,,,,,,,,,,,,,,,,,,,,,,,,,,,,,,,,,,,,,,,,,,,,,,,,,,,,,,,,,,,,,,,,,,,
0,43,43,59,1,,614deecf67f2c8ccfe3df23b,62c53a01808438d282f10f02,2022-07-06_10h07.32.602,Colour_Asymmetry_Pilot,2022.1.3,Win32,59.85156811,62c50e9c1127f2cd403a315f,,,,,,,,,,,,,,,,,,,,,,,,,,,,,,,,,,,,,,,,,,,,,,,,,,,,,,,,,,,,,,,,,,,,,,,,,,,,,,,,,,,,,,,,,,,,,,,,,,,,,,,,,,,,,,,,,,,,,,,,,,,,,,,,,,,,,,,,,,,,,,,,,,,,,,,,,,,,,,,,,,,
0,44,44,73,1,,614deecf67f2c8ccfe3df23b,62c53a01808438d282f10f02,2022-07-06_10h07.32.602,Colour_Asymmetry_Pilot,2022.1.3,Win32,59.85156811,62c50e9c1127f2cd403a315f,,,,,,,,,,,,,,,,,,,,,,,,,,,,,,,,,,,,,,,,,,,,,,,,,,,,,,,,,,,,,,,,,,,,,,,,,,,,,,,,,,,,,,,,,,,,,,,,,,,,,,,,,,,,,,,,,,,,,,,,,,,,,,,,,,,,,,,,,,,,,,,,,,,,,,,,,,,,,,,,,,,
0,45,45,92,1,,614deecf67f2c8ccfe3df23b,62c53a01808438d282f10f02,2022-07-06_10h07.32.602,Colour_Asymmetry_Pilot,2022.1.3,Win32,59.85156811,62c50e9c1127f2cd403a315f,,,,,,,,,,,,,,,,,,,,,,,,,,,,,,,,,,,,,,,,,,,,,,,,,,,,,,,,,,,,,,,,,,,,,,,,,,,,,,,,,,,,,,,,,,,,,,,,,,,,,,,,,,,,,,,,,,,,,,,,,,,,,,,,,,,,,,,,,,,,,,,,,,,,,,,,,,,,,,,,,,,
0,46,46,56,1,,614deecf67f2c8ccfe3df23b,62c53a01808438d282f10f02,2022-07-06_10h07.32.602,Colour_Asymmetry_Pilot,2022.1.3,Win32,59.85156811,62c50e9c1127f2cd403a315f,,,,,,,,,,,,,,,,,,,,,,,,,,,,,,,,,,,,,,,,,,,,,,,,,,,,,,,,,,,,,,,,,,,,,,,,,,,,,,,,,,,,,,,,,,,,,,,,,,,,,,,,,,,,,,,,,,,,,,,,,,,,,,,,,,,,,,,,,,,,,,,,,,,,,,,,,,,,,,,,,,,
0,47,47,53,1,,614deecf67f2c8ccfe3df23b,62c53a01808438d282f10f02,2022-07-06_10h07.32.602,Colour_Asymmetry_Pilot,2022.1.3,Win32,59.85156811,62c50e9c1127f2cd403a315f,,,,,,,,,,,,,,,,,,,,,,,,,,,,,,,,,,,,,,,,,,,,,,,,,,,,,,,,,,,,,,,,,,,,,,,,,,,,,,,,,,,,,,,,,,,,,,,,,,,,,,,,,,,,,,,,,,,,,,,,,,,,,,,,,,,,,,,,,,,,,,,,,,,,,,,,,,,,,,,,,,,
0,48,48,33,1,,614deecf67f2c8ccfe3df23b,62c53a01808438d282f10f02,2022-07-06_10h07.32.602,Colour_Asymmetry_Pilot,2022.1.3,Win32,59.85156811,62c50e9c1127f2cd403a315f,,,,,,,,,,,,,,,,,,,,,,,,,,,,,,,,,,,,,,,,,,,,,,,,,,,,,,,,,,,,,,,,,,,,,,,,,,,,,,,,,,,,,,,,,,,,,,,,,,,,,,,,,,,,,,,,,,,,,,,,,,,,,,,,,,,,,,,,,,,,,,,,,,,,,,,,,,,,,,,,,,,
0,49,49,63,1,,614deecf67f2c8ccfe3df23b,62c53a01808438d282f10f02,2022-07-06_10h07.32.602,Colour_Asymmetry_Pilot,2022.1.3,Win32,59.85156811,62c50e9c1127f2cd403a315f,,,,,,,,,,,,,,,,,,,,,,,,,,,,,,,,,,,,,,,,,,,,,,,,,,,,,,,,,,,,,,,,,,,,,,,,,,,,,,,,,,,,,,,,,,,,,,,,,,,,,,,,,,,,,,,,,,,,,,,,,,,,,,,,,,,,,,,,,,,,,,,,,,,,,,,,,,,,,,,,,,,
0,50,50,52,1,,614deecf67f2c8ccfe3df23b,62c53a01808438d282f10f02,2022-07-06_10h07.32.602,Colour_Asymmetry_Pilot,2022.1.3,Win32,59.85156811,62c50e9c1127f2cd403a315f,,,,,,,,,,,,,,,,,,,,,,,,,,,,,,,,,,,,,,,,,,,,,,,,,,,,,,,,,,,,,,,,,,,,,,,,,,,,,,,,,,,,,,,,,,,,,,,,,,,,,,,,,,,,,,,,,,,,,,,,,,,,,,,,,,,,,,,,,,,,,,,,,,,,,,,,,,,,,,,,,,,
0,51,51,2,1,,614deecf67f2c8ccfe3df23b,62c53a01808438d282f10f02,2022-07-06_10h07.32.602,Colour_Asymmetry_Pilot,2022.1.3,Win32,59.85156811,62c50e9c1127f2cd403a315f,,,,,,,,,,,,,,,,,,,,,,,,,,,,,,,,,,,,,,,,,,,,,,,,,,,,,,,,,,,,,,,,,,,,,,,,,,,,,,,,,,,,,,,,,,,,,,,,,,,,,,,,,,,,,,,,,,,,,,,,,,,,,,,,,,,,,,,,,,,,,,,,,,,,,,,,,,,,,,,,,,,
0,52,52,89,1,,614deecf67f2c8ccfe3df23b,62c53a01808438d282f10f02,2022-07-06_10h07.32.602,Colour_Asymmetry_Pilot,2022.1.3,Win32,59.85156811,62c50e9c1127f2cd403a315f,,,,,,,,,,,,,,,,,,,,,,,,,,,,,,,,,,,,,,,,,,,,,,,,,,,,,,,,,,,,,,,,,,,,,,,,,,,,,,,,,,,,,,,,,,,,,,,,,,,,,,,,,,,,,,,,,,,,,,,,,,,,,,,,,,,,,,,,,,,,,,,,,,,,,,,,,,,,,,,,,,,
0,53,53,13,1,,614deecf67f2c8ccfe3df23b,62c53a01808438d282f10f02,2022-07-06_10h07.32.602,Colour_Asymmetry_Pilot,2022.1.3,Win32,59.85156811,62c50e9c1127f2cd403a315f,,,,,,,,,,,,,,,,,,,,,,,,,,,,,,,,,,,,,,,,,,,,,,,,,,,,,,,,,,,,,,,,,,,,,,,,,,,,,,,,,,,,,,,,,,,,,,,,,,,,,,,,,,,,,,,,,,,,,,,,,,,,,,,,,,,,,,,,,,,,,,,,,,,,,,,,,,,,,,,,,,,
0,54,54,0,1,,614deecf67f2c8ccfe3df23b,62c53a01808438d282f10f02,2022-07-06_10h07.32.602,Colour_Asymmetry_Pilot,2022.1.3,Win32,59.85156811,62c50e9c1127f2cd403a315f,,,,,,,,,,,,,,,,,,,,,,,,,,,,,,,,,,,,,,,,,,,,,,,,,,,,,,,,,,,,,,,,,,,,,,,,,,,,,,,,,,,,,,,,,,,,,,,,,,,,,,,,,,,,,,,,,,,,,,,,,,,,,,,,,,,,,,,,,,,,,,,,,,,,,,,,,,,,,,,,,,,
0,55,55,44,1,,614deecf67f2c8ccfe3df23b,62c53a01808438d282f10f02,2022-07-06_10h07.32.602,Colour_Asymmetry_Pilot,2022.1.3,Win32,59.85156811,62c50e9c1127f2cd403a315f,,,,,,,,,,,,,,,,,,,,,,,,,,,,,,,,,,,,,,,,,,,,,,,,,,,,,,,,,,,,,,,,,,,,,,,,,,,,,,,,,,,,,,,,,,,,,,,,,,,,,,,,,,,,,,,,,,,,,,,,,,,,,,,,,,,,,,,,,,,,,,,,,,,,,,,,,,,,,,,,,,,
0,56,56,39,1,,614deecf67f2c8ccfe3df23b,62c53a01808438d282f10f02,2022-07-06_10h07.32.602,Colour_Asymmetry_Pilot,2022.1.3,Win32,59.85156811,62c50e9c1127f2cd403a315f,,,,,,,,,,,,,,,,,,,,,,,,,,,,,,,,,,,,,,,,,,,,,,,,,,,,,,,,,,,,,,,,,,,,,,,,,,,,,,,,,,,,,,,,,,,,,,,,,,,,,,,,,,,,,,,,,,,,,,,,,,,,,,,,,,,,,,,,,,,,,,,,,,,,,,,,,,,,,,,,,,,
0,57,57,43,1,,614deecf67f2c8ccfe3df23b,62c53a01808438d282f10f02,2022-07-06_10h07.32.602,Colour_Asymmetry_Pilot,2022.1.3,Win32,59.85156811,62c50e9c1127f2cd403a315f,,,,,,,,,,,,,,,,,,,,,,,,,,,,,,,,,,,,,,,,,,,,,,,,,,,,,,,,,,,,,,,,,,,,,,,,,,,,,,,,,,,,,,,,,,,,,,,,,,,,,,,,,,,,,,,,,,,,,,,,,,,,,,,,,,,,,,,,,,,,,,,,,,,,,,,,,,,,,,,,,,,
0,58,58,85,1,,614deecf67f2c8ccfe3df23b,62c53a01808438d282f10f02,2022-07-06_10h07.32.602,Colour_Asymmetry_Pilot,2022.1.3,Win32,59.85156811,62c50e9c1127f2cd403a315f,,,,,,,,,,,,,,,,,,,,,,,,,,,,,,,,,,,,,,,,,,,,,,,,,,,,,,,,,,,,,,,,,,,,,,,,,,,,,,,,,,,,,,,,,,,,,,,,,,,,,,,,,,,,,,,,,,,,,,,,,,,,,,,,,,,,,,,,,,,,,,,,,,,,,,,,,,,,,,,,,,,
0,59,59,18,1,,614deecf67f2c8ccfe3df23b,62c53a01808438d282f10f02,2022-07-06_10h07.32.602,Colour_Asymmetry_Pilot,2022.1.3,Win32,59.85156811,62c50e9c1127f2cd403a315f,,,,,,,,,,,,,,,,,,,,,,,,,,,,,,,,,,,,,,,,,,,,,,,,,,,,,,,,,,,,,,,,,,,,,,,,,,,,,,,,,,,,,,,,,,,,,,,,,,,,,,,,,,,,,,,,,,,,,,,,,,,,,,,,,,,,,,,,,,,,,,,,,,,,,,,,,,,,,,,,,,,
0,60,60,25,1,,614deecf67f2c8ccfe3df23b,62c53a01808438d282f10f02,2022-07-06_10h07.32.602,Colour_Asymmetry_Pilot,2022.1.3,Win32,59.85156811,62c50e9c1127f2cd403a315f,,,,,,,,,,,,,,,,,,,,,,,,,,,,,,,,,,,,,,,,,,,,,,,,,,,,,,,,,,,,,,,,,,,,,,,,,,,,,,,,,,,,,,,,,,,,,,,,,,,,,,,,,,,,,,,,,,,,,,,,,,,,,,,,,,,,,,,,,,,,,,,,,,,,,,,,,,,,,,,,,,,
0,61,61,78,1,,614deecf67f2c8ccfe3df23b,62c53a01808438d282f10f02,2022-07-06_10h07.32.602,Colour_Asymmetry_Pilot,2022.1.3,Win32,59.85156811,62c50e9c1127f2cd403a315f,,,,,,,,,,,,,,,,,,,,,,,,,,,,,,,,,,,,,,,,,,,,,,,,,,,,,,,,,,,,,,,,,,,,,,,,,,,,,,,,,,,,,,,,,,,,,,,,,,,,,,,,,,,,,,,,,,,,,,,,,,,,,,,,,,,,,,,,,,,,,,,,,,,,,,,,,,,,,,,,,,,
0,62,62,1,1,,614deecf67f2c8ccfe3df23b,62c53a01808438d282f10f02,2022-07-06_10h07.32.602,Colour_Asymmetry_Pilot,2022.1.3,Win32,59.85156811,62c50e9c1127f2cd403a315f,,,,,,,,,,,,,,,,,,,,,,,,,,,,,,,,,,,,,,,,,,,,,,,,,,,,,,,,,,,,,,,,,,,,,,,,,,,,,,,,,,,,,,,,,,,,,,,,,,,,,,,,,,,,,,,,,,,,,,,,,,,,,,,,,,,,,,,,,,,,,,,,,,,,,,,,,,,,,,,,,,,
0,63,63,48,1,,614deecf67f2c8ccfe3df23b,62c53a01808438d282f10f02,2022-07-06_10h07.32.602,Colour_Asymmetry_Pilot,2022.1.3,Win32,59.85156811,62c50e9c1127f2cd403a315f,,,,,,,,,,,,,,,,,,,,,,,,,,,,,,,,,,,,,,,,,,,,,,,,,,,,,,,,,,,,,,,,,,,,,,,,,,,,,,,,,,,,,,,,,,,,,,,,,,,,,,,,,,,,,,,,,,,,,,,,,,,,,,,,,,,,,,,,,,,,,,,,,,,,,,,,,,,,,,,,,,,
0,64,64,21,1,,614deecf67f2c8ccfe3df23b,62c53a01808438d282f10f02,2022-07-06_10h07.32.602,Colour_Asymmetry_Pilot,2022.1.3,Win32,59.85156811,62c50e9c1127f2cd403a315f,,,,,,,,,,,,,,,,,,,,,,,,,,,,,,,,,,,,,,,,,,,,,,,,,,,,,,,,,,,,,,,,,,,,,,,,,,,,,,,,,,,,,,,,,,,,,,,,,,,,,,,,,,,,,,,,,,,,,,,,,,,,,,,,,,,,,,,,,,,,,,,,,,,,,,,,,,,,,,,,,,,
0,65,65,50,1,,614deecf67f2c8ccfe3df23b,62c53a01808438d282f10f02,2022-07-06_10h07.32.602,Colour_Asymmetry_Pilot,2022.1.3,Win32,59.85156811,62c50e9c1127f2cd403a315f,,,,,,,,,,,,,,,,,,,,,,,,,,,,,,,,,,,,,,,,,,,,,,,,,,,,,,,,,,,,,,,,,,,,,,,,,,,,,,,,,,,,,,,,,,,,,,,,,,,,,,,,,,,,,,,,,,,,,,,,,,,,,,,,,,,,,,,,,,,,,,,,,,,,,,,,,,,,,,,,,,,
0,66,66,79,1,,614deecf67f2c8ccfe3df23b,62c53a01808438d282f10f02,2022-07-06_10h07.32.602,Colour_Asymmetry_Pilot,2022.1.3,Win32,59.85156811,62c50e9c1127f2cd403a315f,,,,,,,,,,,,,,,,,,,,,,,,,,,,,,,,,,,,,,,,,,,,,,,,,,,,,,,,,,,,,,,,,,,,,,,,,,,,,,,,,,,,,,,,,,,,,,,,,,,,,,,,,,,,,,,,,,,,,,,,,,,,,,,,,,,,,,,,,,,,,,,,,,,,,,,,,,,,,,,,,,,
0,67,67,47,1,,614deecf67f2c8ccfe3df23b,62c53a01808438d282f10f02,2022-07-06_10h07.32.602,Colour_Asymmetry_Pilot,2022.1.3,Win32,59.85156811,62c50e9c1127f2cd403a315f,,,,,,,,,,,,,,,,,,,,,,,,,,,,,,,,,,,,,,,,,,,,,,,,,,,,,,,,,,,,,,,,,,,,,,,,,,,,,,,,,,,,,,,,,,,,,,,,,,,,,,,,,,,,,,,,,,,,,,,,,,,,,,,,,,,,,,,,,,,,,,,,,,,,,,,,,,,,,,,,,,,
0,68,68,62,1,,614deecf67f2c8ccfe3df23b,62c53a01808438d282f10f02,2022-07-06_10h07.32.602,Colour_Asymmetry_Pilot,2022.1.3,Win32,59.85156811,62c50e9c1127f2cd403a315f,,,,,,,,,,,,,,,,,,,,,,,,,,,,,,,,,,,,,,,,,,,,,,,,,,,,,,,,,,,,,,,,,,,,,,,,,,,,,,,,,,,,,,,,,,,,,,,,,,,,,,,,,,,,,,,,,,,,,,,,,,,,,,,,,,,,,,,,,,,,,,,,,,,,,,,,,,,,,,,,,,,
0,69,69,5,1,,614deecf67f2c8ccfe3df23b,62c53a01808438d282f10f02,2022-07-06_10h07.32.602,Colour_Asymmetry_Pilot,2022.1.3,Win32,59.85156811,62c50e9c1127f2cd403a315f,,,,,,,,,,,,,,,,,,,,,,,,,,,,,,,,,,,,,,,,,,,,,,,,,,,,,,,,,,,,,,,,,,,,,,,,,,,,,,,,,,,,,,,,,,,,,,,,,,,,,,,,,,,,,,,,,,,,,,,,,,,,,,,,,,,,,,,,,,,,,,,,,,,,,,,,,,,,,,,,,,,
0,70,70,24,1,,614deecf67f2c8ccfe3df23b,62c53a01808438d282f10f02,2022-07-06_10h07.32.602,Colour_Asymmetry_Pilot,2022.1.3,Win32,59.85156811,62c50e9c1127f2cd403a315f,,,,,,,,,,,,,,,,,,,,,,,,,,,,,,,,,,,,,,,,,,,,,,,,,,,,,,,,,,,,,,,,,,,,,,,,,,,,,,,,,,,,,,,,,,,,,,,,,,,,,,,,,,,,,,,,,,,,,,,,,,,,,,,,,,,,,,,,,,,,,,,,,,,,,,,,,,,,,,,,,,,
0,71,71,74,1,,614deecf67f2c8ccfe3df23b,62c53a01808438d282f10f02,2022-07-06_10h07.32.602,Colour_Asymmetry_Pilot,2022.1.3,Win32,59.85156811,62c50e9c1127f2cd403a315f,,,,,,,,,,,,,,,,,,,,,,,,,,,,,,,,,,,,,,,,,,,,,,,,,,,,,,,,,,,,,,,,,,,,,,,,,,,,,,,,,,,,,,,,,,,,,,,,,,,,,,,,,,,,,,,,,,,,,,,,,,,,,,,,,,,,,,,,,,,,,,,,,,,,,,,,,,,,,,,,,,,
0,72,72,26,1,,614deecf67f2c8ccfe3df23b,62c53a01808438d282f10f02,2022-07-06_10h07.32.602,Colour_Asymmetry_Pilot,2022.1.3,Win32,59.85156811,62c50e9c1127f2cd403a315f,,,,,,,,,,,,,,,,,,,,,,,,,,,,,,,,,,,,,,,,,,,,,,,,,,,,,,,,,,,,,,,,,,,,,,,,,,,,,,,,,,,,,,,,,,,,,,,,,,,,,,,,,,,,,,,,,,,,,,,,,,,,,,,,,,,,,,,,,,,,,,,,,,,,,,,,,,,,,,,,,,,
0,73,73,60,1,,614deecf67f2c8ccfe3df23b,62c53a01808438d282f10f02,2022-07-06_10h07.32.602,Colour_Asymmetry_Pilot,2022.1.3,Win32,59.85156811,62c50e9c1127f2cd403a315f,,,,,,,,,,,,,,,,,,,,,,,,,,,,,,,,,,,,,,,,,,,,,,,,,,,,,,,,,,,,,,,,,,,,,,,,,,,,,,,,,,,,,,,,,,,,,,,,,,,,,,,,,,,,,,,,,,,,,,,,,,,,,,,,,,,,,,,,,,,,,,,,,,,,,,,,,,,,,,,,,,,
0,74,74,68,1,,614deecf67f2c8ccfe3df23b,62c53a01808438d282f10f02,2022-07-06_10h07.32.602,Colour_Asymmetry_Pilot,2022.1.3,Win32,59.85156811,62c50e9c1127f2cd403a315f,,,,,,,,,,,,,,,,,,,,,,,,,,,,,,,,,,,,,,,,,,,,,,,,,,,,,,,,,,,,,,,,,,,,,,,,,,,,,,,,,,,,,,,,,,,,,,,,,,,,,,,,,,,,,,,,,,,,,,,,,,,,,,,,,,,,,,,,,,,,,,,,,,,,,,,,,,,,,,,,,,,
0,75,75,80,1,,614deecf67f2c8ccfe3df23b,62c53a01808438d282f10f02,2022-07-06_10h07.32.602,Colour_Asymmetry_Pilot,2022.1.3,Win32,59.85156811,62c50e9c1127f2cd403a315f,,,,,,,,,,,,,,,,,,,,,,,,,,,,,,,,,,,,,,,,,,,,,,,,,,,,,,,,,,,,,,,,,,,,,,,,,,,,,,,,,,,,,,,,,,,,,,,,,,,,,,,,,,,,,,,,,,,,,,,,,,,,,,,,,,,,,,,,,,,,,,,,,,,,,,,,,,,,,,,,,,,
0,76,76,82,1,,614deecf67f2c8ccfe3df23b,62c53a01808438d282f10f02,2022-07-06_10h07.32.602,Colour_Asymmetry_Pilot,2022.1.3,Win32,59.85156811,62c50e9c1127f2cd403a315f,,,,,,,,,,,,,,,,,,,,,,,,,,,,,,,,,,,,,,,,,,,,,,,,,,,,,,,,,,,,,,,,,,,,,,,,,,,,,,,,,,,,,,,,,,,,,,,,,,,,,,,,,,,,,,,,,,,,,,,,,,,,,,,,,,,,,,,,,,,,,,,,,,,,,,,,,,,,,,,,,,,
0,77,77,34,1,,614deecf67f2c8ccfe3df23b,62c53a01808438d282f10f02,2022-07-06_10h07.32.602,Colour_Asymmetry_Pilot,2022.1.3,Win32,59.85156811,62c50e9c1127f2cd403a315f,,,,,,,,,,,,,,,,,,,,,,,,,,,,,,,,,,,,,,,,,,,,,,,,,,,,,,,,,,,,,,,,,,,,,,,,,,,,,,,,,,,,,,,,,,,,,,,,,,,,,,,,,,,,,,,,,,,,,,,,,,,,,,,,,,,,,,,,,,,,,,,,,,,,,,,,,,,,,,,,,,,
0,78,78,19,1,,614deecf67f2c8ccfe3df23b,62c53a01808438d282f10f02,2022-07-06_10h07.32.602,Colour_Asymmetry_Pilot,2022.1.3,Win32,59.85156811,62c50e9c1127f2cd403a315f,,,,,,,,,,,,,,,,,,,,,,,,,,,,,,,,,,,,,,,,,,,,,,,,,,,,,,,,,,,,,,,,,,,,,,,,,,,,,,,,,,,,,,,,,,,,,,,,,,,,,,,,,,,,,,,,,,,,,,,,,,,,,,,,,,,,,,,,,,,,,,,,,,,,,,,,,,,,,,,,,,,
0,79,79,35,1,,614deecf67f2c8ccfe3df23b,62c53a01808438d282f10f02,2022-07-06_10h07.32.602,Colour_Asymmetry_Pilot,2022.1.3,Win32,59.85156811,62c50e9c1127f2cd403a315f,,,,,,,,,,,,,,,,,,,,,,,,,,,,,,,,,,,,,,,,,,,,,,,,,,,,,,,,,,,,,,,,,,,,,,,,,,,,,,,,,,,,,,,,,,,,,,,,,,,,,,,,,,,,,,,,,,,,,,,,,,,,,,,,,,,,,,,,,,,,,,,,,,,,,,,,,,,,,,,,,,,
0,80,80,57,1,,614deecf67f2c8ccfe3df23b,62c53a01808438d282f10f02,2022-07-06_10h07.32.602,Colour_Asymmetry_Pilot,2022.1.3,Win32,59.85156811,62c50e9c1127f2cd403a315f,,,,,,,,,,,,,,,,,,,,,,,,,,,,,,,,,,,,,,,,,,,,,,,,,,,,,,,,,,,,,,,,,,,,,,,,,,,,,,,,,,,,,,,,,,,,,,,,,,,,,,,,,,,,,,,,,,,,,,,,,,,,,,,,,,,,,,,,,,,,,,,,,,,,,,,,,,,,,,,,,,,
0,81,81,70,1,,614deecf67f2c8ccfe3df23b,62c53a01808438d282f10f02,2022-07-06_10h07.32.602,Colour_Asymmetry_Pilot,2022.1.3,Win32,59.85156811,62c50e9c1127f2cd403a315f,,,,,,,,,,,,,,,,,,,,,,,,,,,,,,,,,,,,,,,,,,,,,,,,,,,,,,,,,,,,,,,,,,,,,,,,,,,,,,,,,,,,,,,,,,,,,,,,,,,,,,,,,,,,,,,,,,,,,,,,,,,,,,,,,,,,,,,,,,,,,,,,,,,,,,,,,,,,,,,,,,,
0,82,82,4,1,,614deecf67f2c8ccfe3df23b,62c53a01808438d282f10f02,2022-07-06_10h07.32.602,Colour_Asymmetry_Pilot,2022.1.3,Win32,59.85156811,62c50e9c1127f2cd403a315f,,,,,,,,,,,,,,,,,,,,,,,,,,,,,,,,,,,,,,,,,,,,,,,,,,,,,,,,,,,,,,,,,,,,,,,,,,,,,,,,,,,,,,,,,,,,,,,,,,,,,,,,,,,,,,,,,,,,,,,,,,,,,,,,,,,,,,,,,,,,,,,,,,,,,,,,,,,,,,,,,,,
0,83,83,87,1,,614deecf67f2c8ccfe3df23b,62c53a01808438d282f10f02,2022-07-06_10h07.32.602,Colour_Asymmetry_Pilot,2022.1.3,Win32,59.85156811,62c50e9c1127f2cd403a315f,,,,,,,,,,,,,,,,,,,,,,,,,,,,,,,,,,,,,,,,,,,,,,,,,,,,,,,,,,,,,,,,,,,,,,,,,,,,,,,,,,,,,,,,,,,,,,,,,,,,,,,,,,,,,,,,,,,,,,,,,,,,,,,,,,,,,,,,,,,,,,,,,,,,,,,,,,,,,,,,,,,
0,84,84,32,1,,614deecf67f2c8ccfe3df23b,62c53a01808438d282f10f02,2022-07-06_10h07.32.602,Colour_Asymmetry_Pilot,2022.1.3,Win32,59.85156811,62c50e9c1127f2cd403a315f,,,,,,,,,,,,,,,,,,,,,,,,,,,,,,,,,,,,,,,,,,,,,,,,,,,,,,,,,,,,,,,,,,,,,,,,,,,,,,,,,,,,,,,,,,,,,,,,,,,,,,,,,,,,,,,,,,,,,,,,,,,,,,,,,,,,,,,,,,,,,,,,,,,,,,,,,,,,,,,,,,,
0,85,85,8,1,,614deecf67f2c8ccfe3df23b,62c53a01808438d282f10f02,2022-07-06_10h07.32.602,Colour_Asymmetry_Pilot,2022.1.3,Win32,59.85156811,62c50e9c1127f2cd403a315f,,,,,,,,,,,,,,,,,,,,,,,,,,,,,,,,,,,,,,,,,,,,,,,,,,,,,,,,,,,,,,,,,,,,,,,,,,,,,,,,,,,,,,,,,,,,,,,,,,,,,,,,,,,,,,,,,,,,,,,,,,,,,,,,,,,,,,,,,,,,,,,,,,,,,,,,,,,,,,,,,,,
0,86,86,36,1,,614deecf67f2c8ccfe3df23b,62c53a01808438d282f10f02,2022-07-06_10h07.32.602,Colour_Asymmetry_Pilot,2022.1.3,Win32,59.85156811,62c50e9c1127f2cd403a315f,,,,,,,,,,,,,,,,,,,,,,,,,,,,,,,,,,,,,,,,,,,,,,,,,,,,,,,,,,,,,,,,,,,,,,,,,,,,,,,,,,,,,,,,,,,,,,,,,,,,,,,,,,,,,,,,,,,,,,,,,,,,,,,,,,,,,,,,,,,,,,,,,,,,,,,,,,,,,,,,,,,
0,87,87,11,1,,614deecf67f2c8ccfe3df23b,62c53a01808438d282f10f02,2022-07-06_10h07.32.602,Colour_Asymmetry_Pilot,2022.1.3,Win32,59.85156811,62c50e9c1127f2cd403a315f,,,,,,,,,,,,,,,,,,,,,,,,,,,,,,,,,,,,,,,,,,,,,,,,,,,,,,,,,,,,,,,,,,,,,,,,,,,,,,,,,,,,,,,,,,,,,,,,,,,,,,,,,,,,,,,,,,,,,,,,,,,,,,,,,,,,,,,,,,,,,,,,,,,,,,,,,,,,,,,,,,,
0,88,88,67,1,,614deecf67f2c8ccfe3df23b,62c53a01808438d282f10f02,2022-07-06_10h07.32.602,Colour_Asymmetry_Pilot,2022.1.3,Win32,59.85156811,62c50e9c1127f2cd403a315f,,,,,,,,,,,,,,,,,,,,,,,,,,,,,,,,,,,,,,,,,,,,,,,,,,,,,,,,,,,,,,,,,,,,,,,,,,,,,,,,,,,,,,,,,,,,,,,,,,,,,,,,,,,,,,,,,,,,,,,,,,,,,,,,,,,,,,,,,,,,,,,,,,,,,,,,,,,,,,,,,,,
0,89,89,61,1,,614deecf67f2c8ccfe3df23b,62c53a01808438d282f10f02,2022-07-06_10h07.32.602,Colour_Asymmetry_Pilot,2022.1.3,Win32,59.85156811,62c50e9c1127f2cd403a315f,,,,,,,,,,,,,,,,,,,,,,,,,,,,,,,,,,,,,,,,,,,,,,,,,,,,,,,,,,,,,,,,,,,,,,,,,,,,,,,,,,,,,,,,,,,,,,,,,,,,,,,,,,,,,,,,,,,,,,,,,,,,,,,,,,,,,,,,,,,,,,,,,,,,,,,,,,,,,,,,,,,
0,90,90,71,1,,614deecf67f2c8ccfe3df23b,62c53a01808438d282f10f02,2022-07-06_10h07.32.602,Colour_Asymmetry_Pilot,2022.1.3,Win32,59.85156811,62c50e9c1127f2cd403a315f,,,,,,,,,,,,,,,,,,,,,,,,,,,,,,,,,,,,,,,,,,,,,,,,,,,,,,,,,,,,,,,,,,,,,,,,,,,,,,,,,,,,,,,,,,,,,,,,,,,,,,,,,,,,,,,,,,,,,,,,,,,,,,,,,,,,,,,,,,,,,,,,,,,,,,,,,,,,,,,,,,,
0,91,91,64,1,,614deecf67f2c8ccfe3df23b,62c53a01808438d282f10f02,2022-07-06_10h07.32.602,Colour_Asymmetry_Pilot,2022.1.3,Win32,59.85156811,62c50e9c1127f2cd403a315f,,,,,,,,,,,,,,,,,,,,,,,,,,,,,,,,,,,,,,,,,,,,,,,,,,,,,,,,,,,,,,,,,,,,,,,,,,,,,,,,,,,,,,,,,,,,,,,,,,,,,,,,,,,,,,,,,,,,,,,,,,,,,,,,,,,,,,,,,,,,,,,,,,,,,,,,,,,,,,,,,,,
0,92,92,54,1,,614deecf67f2c8ccfe3df23b,62c53a01808438d282f10f02,2022-07-06_10h07.32.602,Colour_Asymmetry_Pilot,2022.1.3,Win32,59.85156811,62c50e9c1127f2cd403a315f,,,,,,,,,,,,,,,,,,,,,,,,,,,,,,,,,,,,,,,,,,,,,,,,,,,,,,,,,,,,,,,,,,,,,,,,,,,,,,,,,,,,,,,,,,,,,,,,,,,,,,,,,,,,,,,,,,,,,,,,,,,,,,,,,,,,,,,,,,,,,,,,,,,,,,,,,,,,,,,,,,,
,,,,,,614deecf67f2c8ccfe3df23b,62c53a01808438d282f10f02,2022-07-06_10h07.32.602,Colour_Asymmetry_Pilot,2022.1.3,Win32,59.85156811,62c50e9c1127f2cd403a315f,0,0,0,113,1,onethree,,,,,,,,,,,,,,,,,,,,,,,,,,,,,,,,,,,,,,,,,,,,,,,,,,,,,,,,,,,,,,,,,,,,,,,,,,,,,,,,,,,,,,,,,,,,,,,,,,,,,,,,,,,,,,,,,,,,,,,,,,,,,,,,,,,,,,,,,,,,,,,,,,,,,,,,,,,,,
,,,,,,614deecf67f2c8ccfe3df23b,62c53a01808438d282f10f02,2022-07-06_10h07.32.602,Colour_Asymmetry_Pilot,2022.1.3,Win32,59.85156811,62c50e9c1127f2cd403a315f,0,1,1,132,1,threeone,,,,,,,,,,,,,,,,,,,,,,,,,,,,,,,,,,,,,,,,,,,,,,,,,,,,,,,,,,,,,,,,,,,,,,,,,,,,,,,,,,,,,,,,,,,,,,,,,,,,,,,,,,,,,,,,,,,,,,,,,,,,,,,,,,,,,,,,,,,,,,,,,,,,,,,,,,,,,
,,,,,,614deecf67f2c8ccfe3df23b,62c53a01808438d282f10f02,2022-07-06_10h07.32.602,Colour_Asymmetry_Pilot,2022.1.3,Win32,59.85156811,62c50e9c1127f2cd403a315f,0,2,2,71,1,fourthree,,,,,,,,,,,,,,,,,,,,,,,,,,,,,,,,,,,,,,,,,,,,,,,,,,,,,,,,,,,,,,,,,,,,,,,,,,,,,,,,,,,,,,,,,,,,,,,,,,,,,,,,,,,,,,,,,,,,,,,,,,,,,,,,,,,,,,,,,,,,,,,,,,,,,,,,,,,,,
,,,,,,614deecf67f2c8ccfe3df23b,62c53a01808438d282f10f02,2022-07-06_10h07.32.602,Colour_Asymmetry_Pilot,2022.1.3,Win32,59.85156811,62c50e9c1127f2cd403a315f,0,3,3,107,1,twofour,,,,,,,,,,,,,,,,,,,,,,,,,,,,,,,,,,,,,,,,,,,,,,,,,,,,,,,,,,,,,,,,,,,,,,,,,,,,,,,,,,,,,,,,,,,,,,,,,,,,,,,,,,,,,,,,,,,,,,,,,,,,,,,,,,,,,,,,,,,,,,,,,,,,,,,,,,,,,
,,,,,,614deecf67f2c8ccfe3df23b,62c53a01808438d282f10f02,2022-07-06_10h07.32.602,Colour_Asymmetry_Pilot,2022.1.3,Win32,59.85156811,62c50e9c1127f2cd403a315f,0,4,4,38,1,fourtwo,,,,,,,,,,,,,,,,,,,,,,,,,,,,,,,,,,,,,,,,,,,,,,,,,,,,,,,,,,,,,,,,,,,,,,,,,,,,,,,,,,,,,,,,,,,,,,,,,,,,,,,,,,,,,,,,,,,,,,,,,,,,,,,,,,,,,,,,,,,,,,,,,,,,,,,,,,,,,
,,,,,,614deecf67f2c8ccfe3df23b,62c53a01808438d282f10f02,2022-07-06_10h07.32.602,Colour_Asymmetry_Pilot,2022.1.3,Win32,59.85156811,62c50e9c1127f2cd403a315f,0,5,5,55,1,fourthree,,,,,,,,,,,,,,,,,,,,,,,,,,,,,,,,,,,,,,,,,,,,,,,,,,,,,,,,,,,,,,,,,,,,,,,,,,,,,,,,,,,,,,,,,,,,,,,,,,,,,,,,,,,,,,,,,,,,,,,,,,,,,,,,,,,,,,,,,,,,,,,,,,,,,,,,,,,,,
,,,,,,614deecf67f2c8ccfe3df23b,62c53a01808438d282f10f02,2022-07-06_10h07.32.602,Colour_Asymmetry_Pilot,2022.1.3,Win32,59.85156811,62c50e9c1127f2cd403a315f,0,6,6,111,1,fourthree,,,,,,,,,,,,,,,,,,,,,,,,,,,,,,,,,,,,,,,,,,,,,,,,,,,,,,,,,,,,,,,,,,,,,,,,,,,,,,,,,,,,,,,,,,,,,,,,,,,,,,,,,,,,,,,,,,,,,,,,,,,,,,,,,,,,,,,,,,,,,,,,,,,,,,,,,,,,,
,,,,,,614deecf67f2c8ccfe3df23b,62c53a01808438d282f10f02,2022-07-06_10h07.32.602,Colour_Asymmetry_Pilot,2022.1.3,Win32,59.85156811,62c50e9c1127f2cd403a315f,0,7,7,100,1,threeone,,,,,,,,,,,,,,,,,,,,,,,,,,,,,,,,,,,,,,,,,,,,,,,,,,,,,,,,,,,,,,,,,,,,,,,,,,,,,,,,,,,,,,,,,,,,,,,,,,,,,,,,,,,,,,,,,,,,,,,,,,,,,,,,,,,,,,,,,,,,,,,,,,,,,,,,,,,,,
,,,,,,614deecf67f2c8ccfe3df23b,62c53a01808438d282f10f02,2022-07-06_10h07.32.602,Colour_Asymmetry_Pilot,2022.1.3,Win32,59.85156811,62c50e9c1127f2cd403a315f,0,8,8,73,1,onethree,,,,,,,,,,,,,,,,,,,,,,,,,,,,,,,,,,,,,,,,,,,,,,,,,,,,,,,,,,,,,,,,,,,,,,,,,,,,,,,,,,,,,,,,,,,,,,,,,,,,,,,,,,,,,,,,,,,,,,,,,,,,,,,,,,,,,,,,,,,,,,,,,,,,,,,,,,,,,
,,,,,,614deecf67f2c8ccfe3df23b,62c53a01808438d282f10f02,2022-07-06_10h07.32.602,Colour_Asymmetry_Pilot,2022.1.3,Win32,59.85156811,62c50e9c1127f2cd403a315f,0,9,9,39,1,fourthree,,,,,,,,,,,,,,,,,,,,,,,,,,,,,,,,,,,,,,,,,,,,,,,,,,,,,,,,,,,,,,,,,,,,,,,,,,,,,,,,,,,,,,,,,,,,,,,,,,,,,,,,,,,,,,,,,,,,,,,,,,,,,,,,,,,,,,,,,,,,,,,,,,,,,,,,,,,,,
,,,,,,614deecf67f2c8ccfe3df23b,62c53a01808438d282f10f02,2022-07-06_10h07.32.602,Colour_Asymmetry_Pilot,2022.1.3,Win32,59.85156811,62c50e9c1127f2cd403a315f,0,10,10,13,1,threefour,,,,,,,,,,,,,,,,,,,,,,,,,,,,,,,,,,,,,,,,,,,,,,,,,,,,,,,,,,,,,,,,,,,,,,,,,,,,,,,,,,,,,,,,,,,,,,,,,,,,,,,,,,,,,,,,,,,,,,,,,,,,,,,,,,,,,,,,,,,,,,,,,,,,,,,,,,,,,
,,,,,,614deecf67f2c8ccfe3df23b,62c53a01808438d282f10f02,2022-07-06_10h07.32.602,Colour_Asymmetry_Pilot,2022.1.3,Win32,59.85156811,62c50e9c1127f2cd403a315f,0,11,11,137,1,onethree,,,,,,,,,,,,,,,,,,,,,,,,,,,,,,,,,,,,,,,,,,,,,,,,,,,,,,,,,,,,,,,,,,,,,,,,,,,,,,,,,,,,,,,,,,,,,,,,,,,,,,,,,,,,,,,,,,,,,,,,,,,,,,,,,,,,,,,,,,,,,,,,,,,,,,,,,,,,,
,,,,,,614deecf67f2c8ccfe3df23b,62c53a01808438d282f10f02,2022-07-06_10h07.32.602,Colour_Asymmetry_Pilot,2022.1.3,Win32,59.85156811,62c50e9c1127f2cd403a315f,0,12,12,146,1,twoone,,,,,,,,,,,,,,,,,,,,,,,,,,,,,,,,,,,,,,,,,,,,,,,,,,,,,,,,,,,,,,,,,,,,,,,,,,,,,,,,,,,,,,,,,,,,,,,,,,,,,,,,,,,,,,,,,,,,,,,,,,,,,,,,,,,,,,,,,,,,,,,,,,,,,,,,,,,,,
,,,,,,614deecf67f2c8ccfe3df23b,62c53a01808438d282f10f02,2022-07-06_10h07.32.602,Colour_Asymmetry_Pilot,2022.1.3,Win32,59.85156811,62c50e9c1127f2cd403a315f,0,13,13,66,1,twoone,,,,,,,,,,,,,,,,,,,,,,,,,,,,,,,,,,,,,,,,,,,,,,,,,,,,,,,,,,,,,,,,,,,,,,,,,,,,,,,,,,,,,,,,,,,,,,,,,,,,,,,,,,,,,,,,,,,,,,,,,,,,,,,,,,,,,,,,,,,,,,,,,,,,,,,,,,,,,
,,,,,,614deecf67f2c8ccfe3df23b,62c53a01808438d282f10f02,2022-07-06_10h07.32.602,Colour_Asymmetry_Pilot,2022.1.3,Win32,59.85156811,62c50e9c1127f2cd403a315f,0,14,14,10,1,twoone,,,,,,,,,,,,,,,,,,,,,,,,,,,,,,,,,,,,,,,,,,,,,,,,,,,,,,,,,,,,,,,,,,,,,,,,,,,,,,,,,,,,,,,,,,,,,,,,,,,,,,,,,,,,,,,,,,,,,,,,,,,,,,,,,,,,,,,,,,,,,,,,,,,,,,,,,,,,,
,,,,,,614deecf67f2c8ccfe3df23b,62c53a01808438d282f10f02,2022-07-06_10h07.32.602,Colour_Asymmetry_Pilot,2022.1.3,Win32,59.85156811,62c50e9c1127f2cd403a315f,0,15,15,60,1,threeone,,,,,,,,,,,,,,,,,,,,,,,,,,,,,,,,,,,,,,,,,,,,,,,,,,,,,,,,,,,,,,,,,,,,,,,,,,,,,,,,,,,,,,,,,,,,,,,,,,,,,,,,,,,,,,,,,,,,,,,,,,,,,,,,,,,,,,,,,,,,,,,,,,,,,,,,,,,,,
,,,,,,614deecf67f2c8ccfe3df23b,62c53a01808438d282f10f02,2022-07-06_10h07.32.602,Colour_Asymmetry_Pilot,2022.1.3,Win32,59.85156811,62c50e9c1127f2cd403a315f,0,16,16,68,1,threeone,,,,,,,,,,,,,,,,,,,,,,,,,,,,,,,,,,,,,,,,,,,,,,,,,,,,,,,,,,,,,,,,,,,,,,,,,,,,,,,,,,,,,,,,,,,,,,,,,,,,,,,,,,,,,,,,,,,,,,,,,,,,,,,,,,,,,,,,,,,,,,,,,,,,,,,,,,,,,
,,,,,,614deecf67f2c8ccfe3df23b,62c53a01808438d282f10f02,2022-07-06_10h07.32.602,Colour_Asymmetry_Pilot,2022.1.3,Win32,59.85156811,62c50e9c1127f2cd403a315f,0,17,17,40,1,onetwo,,,,,,,,,,,,,,,,,,,,,,,,,,,,,,,,,,,,,,,,,,,,,,,,,,,,,,,,,,,,,,,,,,,,,,,,,,,,,,,,,,,,,,,,,,,,,,,,,,,,,,,,,,,,,,,,,,,,,,,,,,,,,,,,,,,,,,,,,,,,,,,,,,,,,,,,,,,,,
,,,,,,614deecf67f2c8ccfe3df23b,62c53a01808438d282f10f02,2022-07-06_10h07.32.602,Colour_Asymmetry_Pilot,2022.1.3,Win32,59.85156811,62c50e9c1127f2cd403a315f,0,18,18,99,1,twofour,,,,,,,,,,,,,,,,,,,,,,,,,,,,,,,,,,,,,,,,,,,,,,,,,,,,,,,,,,,,,,,,,,,,,,,,,,,,,,,,,,,,,,,,,,,,,,,,,,,,,,,,,,,,,,,,,,,,,,,,,,,,,,,,,,,,,,,,,,,,,,,,,,,,,,,,,,,,,
,,,,,,614deecf67f2c8ccfe3df23b,62c53a01808438d282f10f02,2022-07-06_10h07.32.602,Colour_Asymmetry_Pilot,2022.1.3,Win32,59.85156811,62c50e9c1127f2cd403a315f,0,19,19,86,1,fourtwo,,,,,,,,,,,,,,,,,,,,,,,,,,,,,,,,,,,,,,,,,,,,,,,,,,,,,,,,,,,,,,,,,,,,,,,,,,,,,,,,,,,,,,,,,,,,,,,,,,,,,,,,,,,,,,,,,,,,,,,,,,,,,,,,,,,,,,,,,,,,,,,,,,,,,,,,,,,,,
,,,,,,614deecf67f2c8ccfe3df23b,62c53a01808438d282f10f02,2022-07-06_10h07.32.602,Colour_Asymmetry_Pilot,2022.1.3,Win32,59.85156811,62c50e9c1127f2cd403a315f,0,20,20,30,1,fourtwo,,,,,,,,,,,,,,,,,,,,,,,,,,,,,,,,,,,,,,,,,,,,,,,,,,,,,,,,,,,,,,,,,,,,,,,,,,,,,,,,,,,,,,,,,,,,,,,,,,,,,,,,,,,,,,,,,,,,,,,,,,,,,,,,,,,,,,,,,,,,,,,,,,,,,,,,,,,,,
,,,,,,614deecf67f2c8ccfe3df23b,62c53a01808438d282f10f02,2022-07-06_10h07.32.602,Colour_Asymmetry_Pilot,2022.1.3,Win32,59.85156811,62c50e9c1127f2cd403a315f,0,21,21,70,1,fourtwo,,,,,,,,,,,,,,,,,,,,,,,,,,,,,,,,,,,,,,,,,,,,,,,,,,,,,,,,,,,,,,,,,,,,,,,,,,,,,,,,,,,,,,,,,,,,,,,,,,,,,,,,,,,,,,,,,,,,,,,,,,,,,,,,,,,,,,,,,,,,,,,,,,,,,,,,,,,,,
,,,,,,614deecf67f2c8ccfe3df23b,62c53a01808438d282f10f02,2022-07-06_10h07.32.602,Colour_Asymmetry_Pilot,2022.1.3,Win32,59.85156811,62c50e9c1127f2cd403a315f,0,22,22,7,1,fourthree,,,,,,,,,,,,,,,,,,,,,,,,,,,,,,,,,,,,,,,,,,,,,,,,,,,,,,,,,,,,,,,,,,,,,,,,,,,,,,,,,,,,,,,,,,,,,,,,,,,,,,,,,,,,,,,,,,,,,,,,,,,,,,,,,,,,,,,,,,,,,,,,,,,,,,,,,,,,,
,,,,,,614deecf67f2c8ccfe3df23b,62c53a01808438d282f10f02,2022-07-06_10h07.32.602,Colour_Asymmetry_Pilot,2022.1.3,Win32,59.85156811,62c50e9c1127f2cd403a315f,0,23,23,96,1,onetwo,,,,,,,,,,,,,,,,,,,,,,,,,,,,,,,,,,,,,,,,,,,,,,,,,,,,,,,,,,,,,,,,,,,,,,,,,,,,,,,,,,,,,,,,,,,,,,,,,,,,,,,,,,,,,,,,,,,,,,,,,,,,,,,,,,,,,,,,,,,,,,,,,,,,,,,,,,,,,
,,,,,,614deecf67f2c8ccfe3df23b,62c53a01808438d282f10f02,2022-07-06_10h07.32.602,Colour_Asymmetry_Pilot,2022.1.3,Win32,59.85156811,62c50e9c1127f2cd403a315f,0,24,24,128,1,onetwo,,,,,,,,,,,,,,,,,,,,,,,,,,,,,,,,,,,,,,,,,,,,,,,,,,,,,,,,,,,,,,,,,,,,,,,,,,,,,,,,,,,,,,,,,,,,,,,,,,,,,,,,,,,,,,,,,,,,,,,,,,,,,,,,,,,,,,,,,,,,,,,,,,,,,,,,,,,,,
,,,,,,614deecf67f2c8ccfe3df23b,62c53a01808438d282f10f02,2022-07-06_10h07.32.602,Colour_Asymmetry_Pilot,2022.1.3,Win32,59.85156811,62c50e9c1127f2cd403a315f,0,25,25,56,1,onetwo,,,,,,,,,,,,,,,,,,,,,,,,,,,,,,,,,,,,,,,,,,,,,,,,,,,,,,,,,,,,,,,,,,,,,,,,,,,,,,,,,,,,,,,,,,,,,,,,,,,,,,,,,,,,,,,,,,,,,,,,,,,,,,,,,,,,,,,,,,,,,,,,,,,,,,,,,,,,,
,,,,,,614deecf67f2c8ccfe3df23b,62c53a01808438d282f10f02,2022-07-06_10h07.32.602,Colour_Asymmetry_Pilot,2022.1.3,Win32,59.85156811,62c50e9c1127f2cd403a315f,0,26,26,105,1,onethree,,,,,,,,,,,,,,,,,,,,,,,,,,,,,,,,,,,,,,,,,,,,,,,,,,,,,,,,,,,,,,,,,,,,,,,,,,,,,,,,,,,,,,,,,,,,,,,,,,,,,,,,,,,,,,,,,,,,,,,,,,,,,,,,,,,,,,,,,,,,,,,,,,,,,,,,,,,,,
,,,,,,614deecf67f2c8ccfe3df23b,62c53a01808438d282f10f02,2022-07-06_10h07.32.602,Colour_Asymmetry_Pilot,2022.1.3,Win32,59.85156811,62c50e9c1127f2cd403a315f,0,27,27,116,1,threeone,,,,,,,,,,,,,,,,,,,,,,,,,,,,,,,,,,,,,,,,,,,,,,,,,,,,,,,,,,,,,,,,,,,,,,,,,,,,,,,,,,,,,,,,,,,,,,,,,,,,,,,,,,,,,,,,,,,,,,,,,,,,,,,,,,,,,,,,,,,,,,,,,,,,,,,,,,,,,
,,,,,,614deecf67f2c8ccfe3df23b,62c53a01808438d282f10f02,2022-07-06_10h07.32.602,Colour_Asymmetry_Pilot,2022.1.3,Win32,59.85156811,62c50e9c1127f2cd403a315f,0,28,28,88,1,onetwo,,,,,,,,,,,,,,,,,,,,,,,,,,,,,,,,,,,,,,,,,,,,,,,,,,,,,,,,,,,,,,,,,,,,,,,,,,,,,,,,,,,,,,,,,,,,,,,,,,,,,,,,,,,,,,,,,,,,,,,,,,,,,,,,,,,,,,,,,,,,,,,,,,,,,,,,,,,,,
,,,,,,614deecf67f2c8ccfe3df23b,62c53a01808438d282f10f02,2022-07-06_10h07.32.602,Colour_Asymmetry_Pilot,2022.1.3,Win32,59.85156811,62c50e9c1127f2cd403a315f,0,29,29,114,1,twoone,,,,,,,,,,,,,,,,,,,,,,,,,,,,,,,,,,,,,,,,,,,,,,,,,,,,,,,,,,,,,,,,,,,,,,,,,,,,,,,,,,,,,,,,,,,,,,,,,,,,,,,,,,,,,,,,,,,,,,,,,,,,,,,,,,,,,,,,,,,,,,,,,,,,,,,,,,,,,
,,,,,,614deecf67f2c8ccfe3df23b,62c53a01808438d282f10f02,2022-07-06_10h07.32.602,Colour_Asymmetry_Pilot,2022.1.3,Win32,59.85156811,62c50e9c1127f2cd403a315f,0,30,30,29,1,threefour,,,,,,,,,,,,,,,,,,,,,,,,,,,,,,,,,,,,,,,,,,,,,,,,,,,,,,,,,,,,,,,,,,,,,,,,,,,,,,,,,,,,,,,,,,,,,,,,,,,,,,,,,,,,,,,,,,,,,,,,,,,,,,,,,,,,,,,,,,,,,,,,,,,,,,,,,,,,,
,,,,,,614deecf67f2c8ccfe3df23b,62c53a01808438d282f10f02,2022-07-06_10h07.32.602,Colour_Asymmetry_Pilot,2022.1.3,Win32,59.85156811,62c50e9c1127f2cd403a315f,0,31,31,117,1,threefour,,,,,,,,,,,,,,,,,,,,,,,,,,,,,,,,,,,,,,,,,,,,,,,,,,,,,,,,,,,,,,,,,,,,,,,,,,,,,,,,,,,,,,,,,,,,,,,,,,,,,,,,,,,,,,,,,,,,,,,,,,,,,,,,,,,,,,,,,,,,,,,,,,,,,,,,,,,,,
,,,,,,614deecf67f2c8ccfe3df23b,62c53a01808438d282f10f02,2022-07-06_10h07.32.602,Colour_Asymmetry_Pilot,2022.1.3,Win32,59.85156811,62c50e9c1127f2cd403a315f,0,32,32,152,1,onetwo,,,,,,,,,,,,,,,,,,,,,,,,,,,,,,,,,,,,,,,,,,,,,,,,,,,,,,,,,,,,,,,,,,,,,,,,,,,,,,,,,,,,,,,,,,,,,,,,,,,,,,,,,,,,,,,,,,,,,,,,,,,,,,,,,,,,,,,,,,,,,,,,,,,,,,,,,,,,,
,,,,,,614deecf67f2c8ccfe3df23b,62c53a01808438d282f10f02,2022-07-06_10h07.32.602,Colour_Asymmetry_Pilot,2022.1.3,Win32,59.85156811,62c50e9c1127f2cd403a315f,0,33,33,138,1,twoone,,,,,,,,,,,,,,,,,,,,,,,,,,,,,,,,,,,,,,,,,,,,,,,,,,,,,,,,,,,,,,,,,,,,,,,,,,,,,,,,,,,,,,,,,,,,,,,,,,,,,,,,,,,,,,,,,,,,,,,,,,,,,,,,,,,,,,,,,,,,,,,,,,,,,,,,,,,,,
,,,,,,614deecf67f2c8ccfe3df23b,62c53a01808438d282f10f02,2022-07-06_10h07.32.602,Colour_Asymmetry_Pilot,2022.1.3,Win32,59.85156811,62c50e9c1127f2cd403a315f,0,34,34,110,1,fourtwo,,,,,,,,,,,,,,,,,,,,,,,,,,,,,,,,,,,,,,,,,,,,,,,,,,,,,,,,,,,,,,,,,,,,,,,,,,,,,,,,,,,,,,,,,,,,,,,,,,,,,,,,,,,,,,,,,,,,,,,,,,,,,,,,,,,,,,,,,,,,,,,,,,,,,,,,,,,,,
,,,,,,614deecf67f2c8ccfe3df23b,62c53a01808438d282f10f02,2022-07-06_10h07.32.602,Colour_Asymmetry_Pilot,2022.1.3,Win32,59.85156811,62c50e9c1127f2cd403a315f,0,35,35,127,1,fourthree,,,,,,,,,,,,,,,,,,,,,,,,,,,,,,,,,,,,,,,,,,,,,,,,,,,,,,,,,,,,,,,,,,,,,,,,,,,,,,,,,,,,,,,,,,,,,,,,,,,,,,,,,,,,,,,,,,,,,,,,,,,,,,,,,,,,,,,,,,,,,,,,,,,,,,,,,,,,,
,,,,,,614deecf67f2c8ccfe3df23b,62c53a01808438d282f10f02,2022-07-06_10h07.32.602,Colour_Asymmetry_Pilot,2022.1.3,Win32,59.85156811,62c50e9c1127f2cd403a315f,0,36,36,156,1,threeone,,,,,,,,,,,,,,,,,,,,,,,,,,,,,,,,,,,,,,,,,,,,,,,,,,,,,,,,,,,,,,,,,,,,,,,,,,,,,,,,,,,,,,,,,,,,,,,,,,,,,,,,,,,,,,,,,,,,,,,,,,,,,,,,,,,,,,,,,,,,,,,,,,,,,,,,,,,,,
,,,,,,614deecf67f2c8ccfe3df23b,62c53a01808438d282f10f02,2022-07-06_10h07.32.602,Colour_Asymmetry_Pilot,2022.1.3,Win32,59.85156811,62c50e9c1127f2cd403a315f,0,37,37,135,1,fourthree,,,,,,,,,,,,,,,,,,,,,,,,,,,,,,,,,,,,,,,,,,,,,,,,,,,,,,,,,,,,,,,,,,,,,,,,,,,,,,,,,,,,,,,,,,,,,,,,,,,,,,,,,,,,,,,,,,,,,,,,,,,,,,,,,,,,,,,,,,,,,,,,,,,,,,,,,,,,,
,,,,,,614deecf67f2c8ccfe3df23b,62c53a01808438d282f10f02,2022-07-06_10h07.32.602,Colour_Asymmetry_Pilot,2022.1.3,Win32,59.85156811,62c50e9c1127f2cd403a315f,0,38,38,129,1,onethree,,,,,,,,,,,,,,,,,,,,,,,,,,,,,,,,,,,,,,,,,,,,,,,,,,,,,,,,,,,,,,,,,,,,,,,,,,,,,,,,,,,,,,,,,,,,,,,,,,,,,,,,,,,,,,,,,,,,,,,,,,,,,,,,,,,,,,,,,,,,,,,,,,,,,,,,,,,,,
,,,,,,614deecf67f2c8ccfe3df23b,62c53a01808438d282f10f02,2022-07-06_10h07.32.602,Colour_Asymmetry_Pilot,2022.1.3,Win32,59.85156811,62c50e9c1127f2cd403a315f,0,39,39,140,1,threeone,,,,,,,,,,,,,,,,,,,,,,,,,,,,,,,,,,,,,,,,,,,,,,,,,,,,,,,,,,,,,,,,,,,,,,,,,,,,,,,,,,,,,,,,,,,,,,,,,,,,,,,,,,,,,,,,,,,,,,,,,,,,,,,,,,,,,,,,,,,,,,,,,,,,,,,,,,,,,
,,,,,,614deecf67f2c8ccfe3df23b,62c53a01808438d282f10f02,2022-07-06_10h07.32.602,Colour_Asymmetry_Pilot,2022.1.3,Win32,59.85156811,62c50e9c1127f2cd403a315f,0,40,40,1,1,onethree,,,,,,,,,,,,,,,,,,,,,,,,,,,,,,,,,,,,,,,,,,,,,,,,,,,,,,,,,,,,,,,,,,,,,,,,,,,,,,,,,,,,,,,,,,,,,,,,,,,,,,,,,,,,,,,,,,,,,,,,,,,,,,,,,,,,,,,,,,,,,,,,,,,,,,,,,,,,,
,,,,,,614deecf67f2c8ccfe3df23b,62c53a01808438d282f10f02,2022-07-06_10h07.32.602,Colour_Asymmetry_Pilot,2022.1.3,Win32,59.85156811,62c50e9c1127f2cd403a315f,0,41,41,5,1,threefour,,,,,,,,,,,,,,,,,,,,,,,,,,,,,,,,,,,,,,,,,,,,,,,,,,,,,,,,,,,,,,,,,,,,,,,,,,,,,,,,,,,,,,,,,,,,,,,,,,,,,,,,,,,,,,,,,,,,,,,,,,,,,,,,,,,,,,,,,,,,,,,,,,,,,,,,,,,,,
,,,,,,614deecf67f2c8ccfe3df23b,62c53a01808438d282f10f02,2022-07-06_10h07.32.602,Colour_Asymmetry_Pilot,2022.1.3,Win32,59.85156811,62c50e9c1127f2cd403a315f,0,42,42,64,1,onetwo,,,,,,,,,,,,,,,,,,,,,,,,,,,,,,,,,,,,,,,,,,,,,,,,,,,,,,,,,,,,,,,,,,,,,,,,,,,,,,,,,,,,,,,,,,,,,,,,,,,,,,,,,,,,,,,,,,,,,,,,,,,,,,,,,,,,,,,,,,,,,,,,,,,,,,,,,,,,,
,,,,,,614deecf67f2c8ccfe3df23b,62c53a01808438d282f10f02,2022-07-06_10h07.32.602,Colour_Asymmetry_Pilot,2022.1.3,Win32,59.85156811,62c50e9c1127f2cd403a315f,0,43,43,151,1,fourthree,,,,,,,,,,,,,,,,,,,,,,,,,,,,,,,,,,,,,,,,,,,,,,,,,,,,,,,,,,,,,,,,,,,,,,,,,,,,,,,,,,,,,,,,,,,,,,,,,,,,,,,,,,,,,,,,,,,,,,,,,,,,,,,,,,,,,,,,,,,,,,,,,,,,,,,,,,,,,
,,,,,,614deecf67f2c8ccfe3df23b,62c53a01808438d282f10f02,2022-07-06_10h07.32.602,Colour_Asymmetry_Pilot,2022.1.3,Win32,59.85156811,62c50e9c1127f2cd403a315f,0,44,44,89,1,onethree,,,,,,,,,,,,,,,,,,,,,,,,,,,,,,,,,,,,,,,,,,,,,,,,,,,,,,,,,,,,,,,,,,,,,,,,,,,,,,,,,,,,,,,,,,,,,,,,,,,,,,,,,,,,,,,,,,,,,,,,,,,,,,,,,,,,,,,,,,,,,,,,,,,,,,,,,,,,,
,,,,,,614deecf67f2c8ccfe3df23b,62c53a01808438d282f10f02,2022-07-06_10h07.32.602,Colour_Asymmetry_Pilot,2022.1.3,Win32,59.85156811,62c50e9c1127f2cd403a315f,0,45,45,8,1,onetwo,,,,,,,,,,,,,,,,,,,,,,,,,,,,,,,,,,,,,,,,,,,,,,,,,,,,,,,,,,,,,,,,,,,,,,,,,,,,,,,,,,,,,,,,,,,,,,,,,,,,,,,,,,,,,,,,,,,,,,,,,,,,,,,,,,,,,,,,,,,,,,,,,,,,,,,,,,,,,
,,,,,,614deecf67f2c8ccfe3df23b,62c53a01808438d282f10f02,2022-07-06_10h07.32.602,Colour_Asymmetry_Pilot,2022.1.3,Win32,59.85156811,62c50e9c1127f2cd403a315f,0,46,46,3,1,twofour,,,,,,,,,,,,,,,,,,,,,,,,,,,,,,,,,,,,,,,,,,,,,,,,,,,,,,,,,,,,,,,,,,,,,,,,,,,,,,,,,,,,,,,,,,,,,,,,,,,,,,,,,,,,,,,,,,,,,,,,,,,,,,,,,,,,,,,,,,,,,,,,,,,,,,,,,,,,,
,,,,,,614deecf67f2c8ccfe3df23b,62c53a01808438d282f10f02,2022-07-06_10h07.32.602,Colour_Asymmetry_Pilot,2022.1.3,Win32,59.85156811,62c50e9c1127f2cd403a315f,0,47,47,54,1,fourtwo,,,,,,,,,,,,,,,,,,,,,,,,,,,,,,,,,,,,,,,,,,,,,,,,,,,,,,,,,,,,,,,,,,,,,,,,,,,,,,,,,,,,,,,,,,,,,,,,,,,,,,,,,,,,,,,,,,,,,,,,,,,,,,,,,,,,,,,,,,,,,,,,,,,,,,,,,,,,,
,,,,,,614deecf67f2c8ccfe3df23b,62c53a01808438d282f10f02,2022-07-06_10h07.32.602,Colour_Asymmetry_Pilot,2022.1.3,Win32,59.85156811,62c50e9c1127f2cd403a315f,0,48,48,69,1,threefour,,,,,,,,,,,,,,,,,,,,,,,,,,,,,,,,,,,,,,,,,,,,,,,,,,,,,,,,,,,,,,,,,,,,,,,,,,,,,,,,,,,,,,,,,,,,,,,,,,,,,,,,,,,,,,,,,,,,,,,,,,,,,,,,,,,,,,,,,,,,,,,,,,,,,,,,,,,,,
,,,,,,614deecf67f2c8ccfe3df23b,62c53a01808438d282f10f02,2022-07-06_10h07.32.602,Colour_Asymmetry_Pilot,2022.1.3,Win32,59.85156811,62c50e9c1127f2cd403a315f,0,49,49,94,1,fourtwo,,,,,,,,,,,,,,,,,,,,,,,,,,,,,,,,,,,,,,,,,,,,,,,,,,,,,,,,,,,,,,,,,,,,,,,,,,,,,,,,,,,,,,,,,,,,,,,,,,,,,,,,,,,,,,,,,,,,,,,,,,,,,,,,,,,,,,,,,,,,,,,,,,,,,,,,,,,,,
,,,,,,614deecf67f2c8ccfe3df23b,62c53a01808438d282f10f02,2022-07-06_10h07.32.602,Colour_Asymmetry_Pilot,2022.1.3,Win32,59.85156811,62c50e9c1127f2cd403a315f,0,50,50,15,1,fourthree,,,,,,,,,,,,,,,,,,,,,,,,,,,,,,,,,,,,,,,,,,,,,,,,,,,,,,,,,,,,,,,,,,,,,,,,,,,,,,,,,,,,,,,,,,,,,,,,,,,,,,,,,,,,,,,,,,,,,,,,,,,,,,,,,,,,,,,,,,,,,,,,,,,,,,,,,,,,,
,,,,,,614deecf67f2c8ccfe3df23b,62c53a01808438d282f10f02,2022-07-06_10h07.32.602,Colour_Asymmetry_Pilot,2022.1.3,Win32,59.85156811,62c50e9c1127f2cd403a315f,0,51,51,76,1,threeone,,,,,,,,,,,,,,,,,,,,,,,,,,,,,,,,,,,,,,,,,,,,,,,,,,,,,,,,,,,,,,,,,,,,,,,,,,,,,,,,,,,,,,,,,,,,,,,,,,,,,,,,,,,,,,,,,,,,,,,,,,,,,,,,,,,,,,,,,,,,,,,,,,,,,,,,,,,,,
,,,,,,614deecf67f2c8ccfe3df23b,62c53a01808438d282f10f02,2022-07-06_10h07.32.602,Colour_Asymmetry_Pilot,2022.1.3,Win32,59.85156811,62c50e9c1127f2cd403a315f,0,52,52,72,1,onetwo,,,,,,,,,,,,,,,,,,,,,,,,,,,,,,,,,,,,,,,,,,,,,,,,,,,,,,,,,,,,,,,,,,,,,,,,,,,,,,,,,,,,,,,,,,,,,,,,,,,,,,,,,,,,,,,,,,,,,,,,,,,,,,,,,,,,,,,,,,,,,,,,,,,,,,,,,,,,,
,,,,,,614deecf67f2c8ccfe3df23b,62c53a01808438d282f10f02,2022-07-06_10h07.32.602,Colour_Asymmetry_Pilot,2022.1.3,Win32,59.85156811,62c50e9c1127f2cd403a315f,0,53,53,65,1,onethree,,,,,,,,,,,,,,,,,,,,,,,,,,,,,,,,,,,,,,,,,,,,,,,,,,,,,,,,,,,,,,,,,,,,,,,,,,,,,,,,,,,,,,,,,,,,,,,,,,,,,,,,,,,,,,,,,,,,,,,,,,,,,,,,,,,,,,,,,,,,,,,,,,,,,,,,,,,,,
,,,,,,614deecf67f2c8ccfe3df23b,62c53a01808438d282f10f02,2022-07-06_10h07.32.602,Colour_Asymmetry_Pilot,2022.1.3,Win32,59.85156811,62c50e9c1127f2cd403a315f,0,54,54,49,1,onethree,,,,,,,,,,,,,,,,,,,,,,,,,,,,,,,,,,,,,,,,,,,,,,,,,,,,,,,,,,,,,,,,,,,,,,,,,,,,,,,,,,,,,,,,,,,,,,,,,,,,,,,,,,,,,,,,,,,,,,,,,,,,,,,,,,,,,,,,,,,,,,,,,,,,,,,,,,,,,
,,,,,,614deecf67f2c8ccfe3df23b,62c53a01808438d282f10f02,2022-07-06_10h07.32.602,Colour_Asymmetry_Pilot,2022.1.3,Win32,59.85156811,62c50e9c1127f2cd403a315f,0,55,55,77,1,threefour,,,,,,,,,,,,,,,,,,,,,,,,,,,,,,,,,,,,,,,,,,,,,,,,,,,,,,,,,,,,,,,,,,,,,,,,,,,,,,,,,,,,,,,,,,,,,,,,,,,,,,,,,,,,,,,,,,,,,,,,,,,,,,,,,,,,,,,,,,,,,,,,,,,,,,,,,,,,,
,,,,,,614deecf67f2c8ccfe3df23b,62c53a01808438d282f10f02,2022-07-06_10h07.32.602,Colour_Asymmetry_Pilot,2022.1.3,Win32,59.85156811,62c50e9c1127f2cd403a315f,0,56,56,21,1,threefour,,,,,,,,,,,,,,,,,,,,,,,,,,,,,,,,,,,,,,,,,,,,,,,,,,,,,,,,,,,,,,,,,,,,,,,,,,,,,,,,,,,,,,,,,,,,,,,,,,,,,,,,,,,,,,,,,,,,,,,,,,,,,,,,,,,,,,,,,,,,,,,,,,,,,,,,,,,,,
,,,,,,614deecf67f2c8ccfe3df23b,62c53a01808438d282f10f02,2022-07-06_10h07.32.602,Colour_Asymmetry_Pilot,2022.1.3,Win32,59.85156811,62c50e9c1127f2cd403a315f,0,57,57,98,1,twoone,,,,,,,,,,,,,,,,,,,,,,,,,,,,,,,,,,,,,,,,,,,,,,,,,,,,,,,,,,,,,,,,,,,,,,,,,,,,,,,,,,,,,,,,,,,,,,,,,,,,,,,,,,,,,,,,,,,,,,,,,,,,,,,,,,,,,,,,,,,,,,,,,,,,,,,,,,,,,
,,,,,,614deecf67f2c8ccfe3df23b,62c53a01808438d282f10f02,2022-07-06_10h07.32.602,Colour_Asymmetry_Pilot,2022.1.3,Win32,59.85156811,62c50e9c1127f2cd403a315f,0,58,58,84,1,threeone,,,,,,,,,,,,,,,,,,,,,,,,,,,,,,,,,,,,,,,,,,,,,,,,,,,,,,,,,,,,,,,,,,,,,,,,,,,,,,,,,,,,,,,,,,,,,,,,,,,,,,,,,,,,,,,,,,,,,,,,,,,,,,,,,,,,,,,,,,,,,,,,,,,,,,,,,,,,,
,,,,,,614deecf67f2c8ccfe3df23b,62c53a01808438d282f10f02,2022-07-06_10h07.32.602,Colour_Asymmetry_Pilot,2022.1.3,Win32,59.85156811,62c50e9c1127f2cd403a315f,0,59,59,2,1,twoone,,,,,,,,,,,,,,,,,,,,,,,,,,,,,,,,,,,,,,,,,,,,,,,,,,,,,,,,,,,,,,,,,,,,,,,,,,,,,,,,,,,,,,,,,,,,,,,,,,,,,,,,,,,,,,,,,,,,,,,,,,,,,,,,,,,,,,,,,,,,,,,,,,,,,,,,,,,,,
,,,,,,614deecf67f2c8ccfe3df23b,62c53a01808438d282f10f02,2022-07-06_10h07.32.602,Colour_Asymmetry_Pilot,2022.1.3,Win32,59.85156811,62c50e9c1127f2cd403a315f,0,60,60,153,1,onethree,,,,,,,,,,,,,,,,,,,,,,,,,,,,,,,,,,,,,,,,,,,,,,,,,,,,,,,,,,,,,,,,,,,,,,,,,,,,,,,,,,,,,,,,,,,,,,,,,,,,,,,,,,,,,,,,,,,,,,,,,,,,,,,,,,,,,,,,,,,,,,,,,,,,,,,,,,,,,
,,,,,,614deecf67f2c8ccfe3df23b,62c53a01808438d282f10f02,2022-07-06_10h07.32.602,Colour_Asymmetry_Pilot,2022.1.3,Win32,59.85156811,62c50e9c1127f2cd403a315f,0,61,61,0,1,onetwo,,,,,,,,,,,,,,,,,,,,,,,,,,,,,,,,,,,,,,,,,,,,,,,,,,,,,,,,,,,,,,,,,,,,,,,,,,,,,,,,,,,,,,,,,,,,,,,,,,,,,,,,,,,,,,,,,,,,,,,,,,,,,,,,,,,,,,,,,,,,,,,,,,,,,,,,,,,,,
,,,,,,614deecf67f2c8ccfe3df23b,62c53a01808438d282f10f02,2022-07-06_10h07.32.602,Colour_Asymmetry_Pilot,2022.1.3,Win32,59.85156811,62c50e9c1127f2cd403a315f,0,62,62,92,1,threeone,,,,,,,,,,,,,,,,,,,,,,,,,,,,,,,,,,,,,,,,,,,,,,,,,,,,,,,,,,,,,,,,,,,,,,,,,,,,,,,,,,,,,,,,,,,,,,,,,,,,,,,,,,,,,,,,,,,,,,,,,,,,,,,,,,,,,,,,,,,,,,,,,,,,,,,,,,,,,
,,,,,,614deecf67f2c8ccfe3df23b,62c53a01808438d282f10f02,2022-07-06_10h07.32.602,Colour_Asymmetry_Pilot,2022.1.3,Win32,59.85156811,62c50e9c1127f2cd403a315f,0,63,63,25,1,onethree,,,,,,,,,,,,,,,,,,,,,,,,,,,,,,,,,,,,,,,,,,,,,,,,,,,,,,,,,,,,,,,,,,,,,,,,,,,,,,,,,,,,,,,,,,,,,,,,,,,,,,,,,,,,,,,,,,,,,,,,,,,,,,,,,,,,,,,,,,,,,,,,,,,,,,,,,,,,,
,,,,,,614deecf67f2c8ccfe3df23b,62c53a01808438d282f10f02,2022-07-06_10h07.32.602,Colour_Asymmetry_Pilot,2022.1.3,Win32,59.85156811,62c50e9c1127f2cd403a315f,0,64,64,123,1,twofour,,,,,,,,,,,,,,,,,,,,,,,,,,,,,,,,,,,,,,,,,,,,,,,,,,,,,,,,,,,,,,,,,,,,,,,,,,,,,,,,,,,,,,,,,,,,,,,,,,,,,,,,,,,,,,,,,,,,,,,,,,,,,,,,,,,,,,,,,,,,,,,,,,,,,,,,,,,,,
,,,,,,614deecf67f2c8ccfe3df23b,62c53a01808438d282f10f02,2022-07-06_10h07.32.602,Colour_Asymmetry_Pilot,2022.1.3,Win32,59.85156811,62c50e9c1127f2cd403a315f,0,65,65,81,1,onethree,,,,,,,,,,,,,,,,,,,,,,,,,,,,,,,,,,,,,,,,,,,,,,,,,,,,,,,,,,,,,,,,,,,,,,,,,,,,,,,,,,,,,,,,,,,,,,,,,,,,,,,,,,,,,,,,,,,,,,,,,,,,,,,,,,,,,,,,,,,,,,,,,,,,,,,,,,,,,
,,,,,,614deecf67f2c8ccfe3df23b,62c53a01808438d282f10f02,2022-07-06_10h07.32.602,Colour_Asymmetry_Pilot,2022.1.3,Win32,59.85156811,62c50e9c1127f2cd403a315f,0,66,66,11,1,twofour,,,,,,,,,,,,,,,,,,,,,,,,,,,,,,,,,,,,,,,,,,,,,,,,,,,,,,,,,,,,,,,,,,,,,,,,,,,,,,,,,,,,,,,,,,,,,,,,,,,,,,,,,,,,,,,,,,,,,,,,,,,,,,,,,,,,,,,,,,,,,,,,,,,,,,,,,,,,,
,,,,,,614deecf67f2c8ccfe3df23b,62c53a01808438d282f10f02,2022-07-06_10h07.32.602,Colour_Asymmetry_Pilot,2022.1.3,Win32,59.85156811,62c50e9c1127f2cd403a315f,0,67,67,36,1,threeone,,,,,,,,,,,,,,,,,,,,,,,,,,,,,,,,,,,,,,,,,,,,,,,,,,,,,,,,,,,,,,,,,,,,,,,,,,,,,,,,,,,,,,,,,,,,,,,,,,,,,,,,,,,,,,,,,,,,,,,,,,,,,,,,,,,,,,,,,,,,,,,,,,,,,,,,,,,,,
,,,,,,614deecf67f2c8ccfe3df23b,62c53a01808438d282f10f02,2022-07-06_10h07.32.602,Colour_Asymmetry_Pilot,2022.1.3,Win32,59.85156811,62c50e9c1127f2cd403a315f,0,68,68,108,1,threeone,,,,,,,,,,,,,,,,,,,,,,,,,,,,,,,,,,,,,,,,,,,,,,,,,,,,,,,,,,,,,,,,,,,,,,,,,,,,,,,,,,,,,,,,,,,,,,,,,,,,,,,,,,,,,,,,,,,,,,,,,,,,,,,,,,,,,,,,,,,,,,,,,,,,,,,,,,,,,
,,,,,,614deecf67f2c8ccfe3df23b,62c53a01808438d282f10f02,2022-07-06_10h07.32.602,Colour_Asymmetry_Pilot,2022.1.3,Win32,59.85156811,62c50e9c1127f2cd403a315f,0,69,69,136,1,onetwo,,,,,,,,,,,,,,,,,,,,,,,,,,,,,,,,,,,,,,,,,,,,,,,,,,,,,,,,,,,,,,,,,,,,,,,,,,,,,,,,,,,,,,,,,,,,,,,,,,,,,,,,,,,,,,,,,,,,,,,,,,,,,,,,,,,,,,,,,,,,,,,,,,,,,,,,,,,,,
,,,,,,614deecf67f2c8ccfe3df23b,62c53a01808438d282f10f02,2022-07-06_10h07.32.602,Colour_Asymmetry_Pilot,2022.1.3,Win32,59.85156811,62c50e9c1127f2cd403a315f,0,70,70,53,1,threefour,,,,,,,,,,,,,,,,,,,,,,,,,,,,,,,,,,,,,,,,,,,,,,,,,,,,,,,,,,,,,,,,,,,,,,,,,,,,,,,,,,,,,,,,,,,,,,,,,,,,,,,,,,,,,,,,,,,,,,,,,,,,,,,,,,,,,,,,,,,,,,,,,,,,,,,,,,,,,
,,,,,,614deecf67f2c8ccfe3df23b,62c53a01808438d282f10f02,2022-07-06_10h07.32.602,Colour_Asymmetry_Pilot,2022.1.3,Win32,59.85156811,62c50e9c1127f2cd403a315f,0,71,71,144,1,onetwo,,,,,,,,,,,,,,,,,,,,,,,,,,,,,,,,,,,,,,,,,,,,,,,,,,,,,,,,,,,,,,,,,,,,,,,,,,,,,,,,,,,,,,,,,,,,,,,,,,,,,,,,,,,,,,,,,,,,,,,,,,,,,,,,,,,,,,,,,,,,,,,,,,,,,,,,,,,,,
,,,,,,614deecf67f2c8ccfe3df23b,62c53a01808438d282f10f02,2022-07-06_10h07.32.602,Colour_Asymmetry_Pilot,2022.1.3,Win32,59.85156811,62c50e9c1127f2cd403a315f,0,72,72,28,1,threeone,,,,,,,,,,,,,,,,,,,,,,,,,,,,,,,,,,,,,,,,,,,,,,,,,,,,,,,,,,,,,,,,,,,,,,,,,,,,,,,,,,,,,,,,,,,,,,,,,,,,,,,,,,,,,,,,,,,,,,,,,,,,,,,,,,,,,,,,,,,,,,,,,,,,,,,,,,,,,
,,,,,,614deecf67f2c8ccfe3df23b,62c53a01808438d282f10f02,2022-07-06_10h07.32.602,Colour_Asymmetry_Pilot,2022.1.3,Win32,59.85156811,62c50e9c1127f2cd403a315f,0,73,73,143,1,fourthree,,,,,,,,,,,,,,,,,,,,,,,,,,,,,,,,,,,,,,,,,,,,,,,,,,,,,,,,,,,,,,,,,,,,,,,,,,,,,,,,,,,,,,,,,,,,,,,,,,,,,,,,,,,,,,,,,,,,,,,,,,,,,,,,,,,,,,,,,,,,,,,,,,,,,,,,,,,,,
,,,,,,614deecf67f2c8ccfe3df23b,62c53a01808438d282f10f02,2022-07-06_10h07.32.602,Colour_Asymmetry_Pilot,2022.1.3,Win32,59.85156811,62c50e9c1127f2cd403a315f,0,74,74,93,1,threefour,,,,,,,,,,,,,,,,,,,,,,,,,,,,,,,,,,,,,,,,,,,,,,,,,,,,,,,,,,,,,,,,,,,,,,,,,,,,,,,,,,,,,,,,,,,,,,,,,,,,,,,,,,,,,,,,,,,,,,,,,,,,,,,,,,,,,,,,,,,,,,,,,,,,,,,,,,,,,
,,,,,,614deecf67f2c8ccfe3df23b,62c53a01808438d282f10f02,2022-07-06_10h07.32.602,Colour_Asymmetry_Pilot,2022.1.3,Win32,59.85156811,62c50e9c1127f2cd403a315f,0,75,75,67,1,twofour,,,,,,,,,,,,,,,,,,,,,,,,,,,,,,,,,,,,,,,,,,,,,,,,,,,,,,,,,,,,,,,,,,,,,,,,,,,,,,,,,,,,,,,,,,,,,,,,,,,,,,,,,,,,,,,,,,,,,,,,,,,,,,,,,,,,,,,,,,,,,,,,,,,,,,,,,,,,,
,,,,,,614deecf67f2c8ccfe3df23b,62c53a01808438d282f10f02,2022-07-06_10h07.32.602,Colour_Asymmetry_Pilot,2022.1.3,Win32,59.85156811,62c50e9c1127f2cd403a315f,0,76,76,63,1,fourthree,,,,,,,,,,,,,,,,,,,,,,,,,,,,,,,,,,,,,,,,,,,,,,,,,,,,,,,,,,,,,,,,,,,,,,,,,,,,,,,,,,,,,,,,,,,,,,,,,,,,,,,,,,,,,,,,,,,,,,,,,,,,,,,,,,,,,,,,,,,,,,,,,,,,,,,,,,,,,
,,,,,,614deecf67f2c8ccfe3df23b,62c53a01808438d282f10f02,2022-07-06_10h07.32.602,Colour_Asymmetry_Pilot,2022.1.3,Win32,59.85156811,62c50e9c1127f2cd403a315f,0,77,77,95,1,fourthree,,,,,,,,,,,,,,,,,,,,,,,,,,,,,,,,,,,,,,,,,,,,,,,,,,,,,,,,,,,,,,,,,,,,,,,,,,,,,,,,,,,,,,,,,,,,,,,,,,,,,,,,,,,,,,,,,,,,,,,,,,,,,,,,,,,,,,,,,,,,,,,,,,,,,,,,,,,,,
,,,,,,614deecf67f2c8ccfe3df23b,62c53a01808438d282f10f02,2022-07-06_10h07.32.602,Colour_Asymmetry_Pilot,2022.1.3,Win32,59.85156811,62c50e9c1127f2cd403a315f,0,78,78,44,1,threeone,,,,,,,,,,,,,,,,,,,,,,,,,,,,,,,,,,,,,,,,,,,,,,,,,,,,,,,,,,,,,,,,,,,,,,,,,,,,,,,,,,,,,,,,,,,,,,,,,,,,,,,,,,,,,,,,,,,,,,,,,,,,,,,,,,,,,,,,,,,,,,,,,,,,,,,,,,,,,
,,,,,,614deecf67f2c8ccfe3df23b,62c53a01808438d282f10f02,2022-07-06_10h07.32.602,Colour_Asymmetry_Pilot,2022.1.3,Win32,59.85156811,62c50e9c1127f2cd403a315f,0,79,79,121,1,onethree,,,,,,,,,,,,,,,,,,,,,,,,,,,,,,,,,,,,,,,,,,,,,,,,,,,,,,,,,,,,,,,,,,,,,,,,,,,,,,,,,,,,,,,,,,,,,,,,,,,,,,,,,,,,,,,,,,,,,,,,,,,,,,,,,,,,,,,,,,,,,,,,,,,,,,,,,,,,,
,,,,,,614deecf67f2c8ccfe3df23b,62c53a01808438d282f10f02,2022-07-06_10h07.32.602,Colour_Asymmetry_Pilot,2022.1.3,Win32,59.85156811,62c50e9c1127f2cd403a315f,0,80,80,62,1,fourtwo,,,,,,,,,,,,,,,,,,,,,,,,,,,,,,,,,,,,,,,,,,,,,,,,,,,,,,,,,,,,,,,,,,,,,,,,,,,,,,,,,,,,,,,,,,,,,,,,,,,,,,,,,,,,,,,,,,,,,,,,,,,,,,,,,,,,,,,,,,,,,,,,,,,,,,,,,,,,,
,,,,,,614deecf67f2c8ccfe3df23b,62c53a01808438d282f10f02,2022-07-06_10h07.32.602,Colour_Asymmetry_Pilot,2022.1.3,Win32,59.85156811,62c50e9c1127f2cd403a315f,0,81,81,9,1,onethree,,,,,,,,,,,,,,,,,,,,,,,,,,,,,,,,,,,,,,,,,,,,,,,,,,,,,,,,,,,,,,,,,,,,,,,,,,,,,,,,,,,,,,,,,,,,,,,,,,,,,,,,,,,,,,,,,,,,,,,,,,,,,,,,,,,,,,,,,,,,,,,,,,,,,,,,,,,,,
,,,,,,614deecf67f2c8ccfe3df23b,62c53a01808438d282f10f02,2022-07-06_10h07.32.602,Colour_Asymmetry_Pilot,2022.1.3,Win32,59.85156811,62c50e9c1127f2cd403a315f,0,82,82,50,1,twoone,,,,,,,,,,,,,,,,,,,,,,,,,,,,,,,,,,,,,,,,,,,,,,,,,,,,,,,,,,,,,,,,,,,,,,,,,,,,,,,,,,,,,,,,,,,,,,,,,,,,,,,,,,,,,,,,,,,,,,,,,,,,,,,,,,,,,,,,,,,,,,,,,,,,,,,,,,,,,
,,,,,,614deecf67f2c8ccfe3df23b,62c53a01808438d282f10f02,2022-07-06_10h07.32.602,Colour_Asymmetry_Pilot,2022.1.3,Win32,59.85156811,62c50e9c1127f2cd403a315f,0,83,83,6,1,fourtwo,,,,,,,,,,,,,,,,,,,,,,,,,,,,,,,,,,,,,,,,,,,,,,,,,,,,,,,,,,,,,,,,,,,,,,,,,,,,,,,,,,,,,,,,,,,,,,,,,,,,,,,,,,,,,,,,,,,,,,,,,,,,,,,,,,,,,,,,,,,,,,,,,,,,,,,,,,,,,
,,,,,,614deecf67f2c8ccfe3df23b,62c53a01808438d282f10f02,2022-07-06_10h07.32.602,Colour_Asymmetry_Pilot,2022.1.3,Win32,59.85156811,62c50e9c1127f2cd403a315f,0,84,84,124,1,threeone,,,,,,,,,,,,,,,,,,,,,,,,,,,,,,,,,,,,,,,,,,,,,,,,,,,,,,,,,,,,,,,,,,,,,,,,,,,,,,,,,,,,,,,,,,,,,,,,,,,,,,,,,,,,,,,,,,,,,,,,,,,,,,,,,,,,,,,,,,,,,,,,,,,,,,,,,,,,,
,,,,,,614deecf67f2c8ccfe3df23b,62c53a01808438d282f10f02,2022-07-06_10h07.32.602,Colour_Asymmetry_Pilot,2022.1.3,Win32,59.85156811,62c50e9c1127f2cd403a315f,0,85,85,57,1,onethree,,,,,,,,,,,,,,,,,,,,,,,,,,,,,,,,,,,,,,,,,,,,,,,,,,,,,,,,,,,,,,,,,,,,,,,,,,,,,,,,,,,,,,,,,,,,,,,,,,,,,,,,,,,,,,,,,,,,,,,,,,,,,,,,,,,,,,,,,,,,,,,,,,,,,,,,,,,,,
,,,,,,614deecf67f2c8ccfe3df23b,62c53a01808438d282f10f02,2022-07-06_10h07.32.602,Colour_Asymmetry_Pilot,2022.1.3,Win32,59.85156811,62c50e9c1127f2cd403a315f,0,86,86,154,1,twoone,,,,,,,,,,,,,,,,,,,,,,,,,,,,,,,,,,,,,,,,,,,,,,,,,,,,,,,,,,,,,,,,,,,,,,,,,,,,,,,,,,,,,,,,,,,,,,,,,,,,,,,,,,,,,,,,,,,,,,,,,,,,,,,,,,,,,,,,,,,,,,,,,,,,,,,,,,,,,
,,,,,,614deecf67f2c8ccfe3df23b,62c53a01808438d282f10f02,2022-07-06_10h07.32.602,Colour_Asymmetry_Pilot,2022.1.3,Win32,59.85156811,62c50e9c1127f2cd403a315f,0,87,87,78,1,fourtwo,,,,,,,,,,,,,,,,,,,,,,,,,,,,,,,,,,,,,,,,,,,,,,,,,,,,,,,,,,,,,,,,,,,,,,,,,,,,,,,,,,,,,,,,,,,,,,,,,,,,,,,,,,,,,,,,,,,,,,,,,,,,,,,,,,,,,,,,,,,,,,,,,,,,,,,,,,,,,
,,,,,,614deecf67f2c8ccfe3df23b,62c53a01808438d282f10f02,2022-07-06_10h07.32.602,Colour_Asymmetry_Pilot,2022.1.3,Win32,59.85156811,62c50e9c1127f2cd403a315f,0,88,88,16,1,onetwo,,,,,,,,,,,,,,,,,,,,,,,,,,,,,,,,,,,,,,,,,,,,,,,,,,,,,,,,,,,,,,,,,,,,,,,,,,,,,,,,,,,,,,,,,,,,,,,,,,,,,,,,,,,,,,,,,,,,,,,,,,,,,,,,,,,,,,,,,,,,,,,,,,,,,,,,,,,,,
,,,,,,614deecf67f2c8ccfe3df23b,62c53a01808438d282f10f02,2022-07-06_10h07.32.602,Colour_Asymmetry_Pilot,2022.1.3,Win32,59.85156811,62c50e9c1127f2cd403a315f,0,89,89,119,1,fourthree,,,,,,,,,,,,,,,,,,,,,,,,,,,,,,,,,,,,,,,,,,,,,,,,,,,,,,,,,,,,,,,,,,,,,,,,,,,,,,,,,,,,,,,,,,,,,,,,,,,,,,,,,,,,,,,,,,,,,,,,,,,,,,,,,,,,,,,,,,,,,,,,,,,,,,,,,,,,,
,,,,,,614deecf67f2c8ccfe3df23b,62c53a01808438d282f10f02,2022-07-06_10h07.32.602,Colour_Asymmetry_Pilot,2022.1.3,Win32,59.85156811,62c50e9c1127f2cd403a315f,0,90,90,19,1,twofour,,,,,,,,,,,,,,,,,,,,,,,,,,,,,,,,,,,,,,,,,,,,,,,,,,,,,,,,,,,,,,,,,,,,,,,,,,,,,,,,,,,,,,,,,,,,,,,,,,,,,,,,,,,,,,,,,,,,,,,,,,,,,,,,,,,,,,,,,,,,,,,,,,,,,,,,,,,,,
,,,,,,614deecf67f2c8ccfe3df23b,62c53a01808438d282f10f02,2022-07-06_10h07.32.602,Colour_Asymmetry_Pilot,2022.1.3,Win32,59.85156811,62c50e9c1127f2cd403a315f,0,91,91,118,1,fourtwo,,,,,,,,,,,,,,,,,,,,,,,,,,,,,,,,,,,,,,,,,,,,,,,,,,,,,,,,,,,,,,,,,,,,,,,,,,,,,,,,,,,,,,,,,,,,,,,,,,,,,,,,,,,,,,,,,,,,,,,,,,,,,,,,,,,,,,,,,,,,,,,,,,,,,,,,,,,,,
,,,,,,614deecf67f2c8ccfe3df23b,62c53a01808438d282f10f02,2022-07-06_10h07.32.602,Colour_Asymmetry_Pilot,2022.1.3,Win32,59.85156811,62c50e9c1127f2cd403a315f,0,92,92,97,1,onethree,,,,,,,,,,,,,,,,,,,,,,,,,,,,,,,,,,,,,,,,,,,,,,,,,,,,,,,,,,,,,,,,,,,,,,,,,,,,,,,,,,,,,,,,,,,,,,,,,,,,,,,,,,,,,,,,,,,,,,,,,,,,,,,,,,,,,,,,,,,,,,,,,,,,,,,,,,,,,
,,,,,,614deecf67f2c8ccfe3df23b,62c53a01808438d282f10f02,2022-07-06_10h07.32.602,Colour_Asymmetry_Pilot,2022.1.3,Win32,59.85156811,62c50e9c1127f2cd403a315f,0,93,93,149,1,threefour,,,,,,,,,,,,,,,,,,,,,,,,,,,,,,,,,,,,,,,,,,,,,,,,,,,,,,,,,,,,,,,,,,,,,,,,,,,,,,,,,,,,,,,,,,,,,,,,,,,,,,,,,,,,,,,,,,,,,,,,,,,,,,,,,,,,,,,,,,,,,,,,,,,,,,,,,,,,,
,,,,,,614deecf67f2c8ccfe3df23b,62c53a01808438d282f10f02,2022-07-06_10h07.32.602,Colour_Asymmetry_Pilot,2022.1.3,Win32,59.85156811,62c50e9c1127f2cd403a315f,0,94,94,43,1,twofour,,,,,,,,,,,,,,,,,,,,,,,,,,,,,,,,,,,,,,,,,,,,,,,,,,,,,,,,,,,,,,,,,,,,,,,,,,,,,,,,,,,,,,,,,,,,,,,,,,,,,,,,,,,,,,,,,,,,,,,,,,,,,,,,,,,,,,,,,,,,,,,,,,,,,,,,,,,,,
,,,,,,614deecf67f2c8ccfe3df23b,62c53a01808438d282f10f02,2022-07-06_10h07.32.602,Colour_Asymmetry_Pilot,2022.1.3,Win32,59.85156811,62c50e9c1127f2cd403a315f,0,95,95,112,1,onetwo,,,,,,,,,,,,,,,,,,,,,,,,,,,,,,,,,,,,,,,,,,,,,,,,,,,,,,,,,,,,,,,,,,,,,,,,,,,,,,,,,,,,,,,,,,,,,,,,,,,,,,,,,,,,,,,,,,,,,,,,,,,,,,,,,,,,,,,,,,,,,,,,,,,,,,,,,,,,,
,,,,,,614deecf67f2c8ccfe3df23b,62c53a01808438d282f10f02,2022-07-06_10h07.32.602,Colour_Asymmetry_Pilot,2022.1.3,Win32,59.85156811,62c50e9c1127f2cd403a315f,0,96,96,131,1,twofour,,,,,,,,,,,,,,,,,,,,,,,,,,,,,,,,,,,,,,,,,,,,,,,,,,,,,,,,,,,,,,,,,,,,,,,,,,,,,,,,,,,,,,,,,,,,,,,,,,,,,,,,,,,,,,,,,,,,,,,,,,,,,,,,,,,,,,,,,,,,,,,,,,,,,,,,,,,,,
,,,,,,614deecf67f2c8ccfe3df23b,62c53a01808438d282f10f02,2022-07-06_10h07.32.602,Colour_Asymmetry_Pilot,2022.1.3,Win32,59.85156811,62c50e9c1127f2cd403a315f,0,97,97,24,1,onetwo,,,,,,,,,,,,,,,,,,,,,,,,,,,,,,,,,,,,,,,,,,,,,,,,,,,,,,,,,,,,,,,,,,,,,,,,,,,,,,,,,,,,,,,,,,,,,,,,,,,,,,,,,,,,,,,,,,,,,,,,,,,,,,,,,,,,,,,,,,,,,,,,,,,,,,,,,,,,,
,,,,,,614deecf67f2c8ccfe3df23b,62c53a01808438d282f10f02,2022-07-06_10h07.32.602,Colour_Asymmetry_Pilot,2022.1.3,Win32,59.85156811,62c50e9c1127f2cd403a315f,0,98,98,87,1,fourthree,,,,,,,,,,,,,,,,,,,,,,,,,,,,,,,,,,,,,,,,,,,,,,,,,,,,,,,,,,,,,,,,,,,,,,,,,,,,,,,,,,,,,,,,,,,,,,,,,,,,,,,,,,,,,,,,,,,,,,,,,,,,,,,,,,,,,,,,,,,,,,,,,,,,,,,,,,,,,
,,,,,,614deecf67f2c8ccfe3df23b,62c53a01808438d282f10f02,2022-07-06_10h07.32.602,Colour_Asymmetry_Pilot,2022.1.3,Win32,59.85156811,62c50e9c1127f2cd403a315f,0,99,99,104,1,onetwo,,,,,,,,,,,,,,,,,,,,,,,,,,,,,,,,,,,,,,,,,,,,,,,,,,,,,,,,,,,,,,,,,,,,,,,,,,,,,,,,,,,,,,,,,,,,,,,,,,,,,,,,,,,,,,,,,,,,,,,,,,,,,,,,,,,,,,,,,,,,,,,,,,,,,,,,,,,,,
,,,,,,614deecf67f2c8ccfe3df23b,62c53a01808438d282f10f02,2022-07-06_10h07.32.602,Colour_Asymmetry_Pilot,2022.1.3,Win32,59.85156811,62c50e9c1127f2cd403a315f,0,100,100,46,1,fourtwo,,,,,,,,,,,,,,,,,,,,,,,,,,,,,,,,,,,,,,,,,,,,,,,,,,,,,,,,,,,,,,,,,,,,,,,,,,,,,,,,,,,,,,,,,,,,,,,,,,,,,,,,,,,,,,,,,,,,,,,,,,,,,,,,,,,,,,,,,,,,,,,,,,,,,,,,,,,,,
,,,,,,614deecf67f2c8ccfe3df23b,62c53a01808438d282f10f02,2022-07-06_10h07.32.602,Colour_Asymmetry_Pilot,2022.1.3,Win32,59.85156811,62c50e9c1127f2cd403a315f,0,101,101,58,1,twoone,,,,,,,,,,,,,,,,,,,,,,,,,,,,,,,,,,,,,,,,,,,,,,,,,,,,,,,,,,,,,,,,,,,,,,,,,,,,,,,,,,,,,,,,,,,,,,,,,,,,,,,,,,,,,,,,,,,,,,,,,,,,,,,,,,,,,,,,,,,,,,,,,,,,,,,,,,,,,
,,,,,,614deecf67f2c8ccfe3df23b,62c53a01808438d282f10f02,2022-07-06_10h07.32.602,Colour_Asymmetry_Pilot,2022.1.3,Win32,59.85156811,62c50e9c1127f2cd403a315f,0,102,102,80,1,onetwo,,,,,,,,,,,,,,,,,,,,,,,,,,,,,,,,,,,,,,,,,,,,,,,,,,,,,,,,,,,,,,,,,,,,,,,,,,,,,,,,,,,,,,,,,,,,,,,,,,,,,,,,,,,,,,,,,,,,,,,,,,,,,,,,,,,,,,,,,,,,,,,,,,,,,,,,,,,,,
,,,,,,614deecf67f2c8ccfe3df23b,62c53a01808438d282f10f02,2022-07-06_10h07.32.602,Colour_Asymmetry_Pilot,2022.1.3,Win32,59.85156811,62c50e9c1127f2cd403a315f,0,103,103,26,1,twoone,,,,,,,,,,,,,,,,,,,,,,,,,,,,,,,,,,,,,,,,,,,,,,,,,,,,,,,,,,,,,,,,,,,,,,,,,,,,,,,,,,,,,,,,,,,,,,,,,,,,,,,,,,,,,,,,,,,,,,,,,,,,,,,,,,,,,,,,,,,,,,,,,,,,,,,,,,,,,
,,,,,,614deecf67f2c8ccfe3df23b,62c53a01808438d282f10f02,2022-07-06_10h07.32.602,Colour_Asymmetry_Pilot,2022.1.3,Win32,59.85156811,62c50e9c1127f2cd403a315f,0,104,104,126,1,fourtwo,,,,,,,,,,,,,,,,,,,,,,,,,,,,,,,,,,,,,,,,,,,,,,,,,,,,,,,,,,,,,,,,,,,,,,,,,,,,,,,,,,,,,,,,,,,,,,,,,,,,,,,,,,,,,,,,,,,,,,,,,,,,,,,,,,,,,,,,,,,,,,,,,,,,,,,,,,,,,
,,,,,,614deecf67f2c8ccfe3df23b,62c53a01808438d282f10f02,2022-07-06_10h07.32.602,Colour_Asymmetry_Pilot,2022.1.3,Win32,59.85156811,62c50e9c1127f2cd403a315f,0,105,105,145,1,onethree,,,,,,,,,,,,,,,,,,,,,,,,,,,,,,,,,,,,,,,,,,,,,,,,,,,,,,,,,,,,,,,,,,,,,,,,,,,,,,,,,,,,,,,,,,,,,,,,,,,,,,,,,,,,,,,,,,,,,,,,,,,,,,,,,,,,,,,,,,,,,,,,,,,,,,,,,,,,,
,,,,,,614deecf67f2c8ccfe3df23b,62c53a01808438d282f10f02,2022-07-06_10h07.32.602,Colour_Asymmetry_Pilot,2022.1.3,Win32,59.85156811,62c50e9c1127f2cd403a315f,0,106,106,101,1,threefour,,,,,,,,,,,,,,,,,,,,,,,,,,,,,,,,,,,,,,,,,,,,,,,,,,,,,,,,,,,,,,,,,,,,,,,,,,,,,,,,,,,,,,,,,,,,,,,,,,,,,,,,,,,,,,,,,,,,,,,,,,,,,,,,,,,,,,,,,,,,,,,,,,,,,,,,,,,,,
,,,,,,614deecf67f2c8ccfe3df23b,62c53a01808438d282f10f02,2022-07-06_10h07.32.602,Colour_Asymmetry_Pilot,2022.1.3,Win32,59.85156811,62c50e9c1127f2cd403a315f,0,107,107,122,1,twoone,,,,,,,,,,,,,,,,,,,,,,,,,,,,,,,,,,,,,,,,,,,,,,,,,,,,,,,,,,,,,,,,,,,,,,,,,,,,,,,,,,,,,,,,,,,,,,,,,,,,,,,,,,,,,,,,,,,,,,,,,,,,,,,,,,,,,,,,,,,,,,,,,,,,,,,,,,,,,
,,,,,,614deecf67f2c8ccfe3df23b,62c53a01808438d282f10f02,2022-07-06_10h07.32.602,Colour_Asymmetry_Pilot,2022.1.3,Win32,59.85156811,62c50e9c1127f2cd403a315f,0,108,108,139,1,twofour,,,,,,,,,,,,,,,,,,,,,,,,,,,,,,,,,,,,,,,,,,,,,,,,,,,,,,,,,,,,,,,,,,,,,,,,,,,,,,,,,,,,,,,,,,,,,,,,,,,,,,,,,,,,,,,,,,,,,,,,,,,,,,,,,,,,,,,,,,,,,,,,,,,,,,,,,,,,,
,,,,,,614deecf67f2c8ccfe3df23b,62c53a01808438d282f10f02,2022-07-06_10h07.32.602,Colour_Asymmetry_Pilot,2022.1.3,Win32,59.85156811,62c50e9c1127f2cd403a315f,0,109,109,155,1,twofour,,,,,,,,,,,,,,,,,,,,,,,,,,,,,,,,,,,,,,,,,,,,,,,,,,,,,,,,,,,,,,,,,,,,,,,,,,,,,,,,,,,,,,,,,,,,,,,,,,,,,,,,,,,,,,,,,,,,,,,,,,,,,,,,,,,,,,,,,,,,,,,,,,,,,,,,,,,,,
,,,,,,614deecf67f2c8ccfe3df23b,62c53a01808438d282f10f02,2022-07-06_10h07.32.602,Colour_Asymmetry_Pilot,2022.1.3,Win32,59.85156811,62c50e9c1127f2cd403a315f,0,110,110,159,1,fourthree,,,,,,,,,,,,,,,,,,,,,,,,,,,,,,,,,,,,,,,,,,,,,,,,,,,,,,,,,,,,,,,,,,,,,,,,,,,,,,,,,,,,,,,,,,,,,,,,,,,,,,,,,,,,,,,,,,,,,,,,,,,,,,,,,,,,,,,,,,,,,,,,,,,,,,,,,,,,,
,,,,,,614deecf67f2c8ccfe3df23b,62c53a01808438d282f10f02,2022-07-06_10h07.32.602,Colour_Asymmetry_Pilot,2022.1.3,Win32,59.85156811,62c50e9c1127f2cd403a315f,0,111,111,150,1,fourtwo,,,,,,,,,,,,,,,,,,,,,,,,,,,,,,,,,,,,,,,,,,,,,,,,,,,,,,,,,,,,,,,,,,,,,,,,,,,,,,,,,,,,,,,,,,,,,,,,,,,,,,,,,,,,,,,,,,,,,,,,,,,,,,,,,,,,,,,,,,,,,,,,,,,,,,,,,,,,,
,,,,,,614deecf67f2c8ccfe3df23b,62c53a01808438d282f10f02,2022-07-06_10h07.32.602,Colour_Asymmetry_Pilot,2022.1.3,Win32,59.85156811,62c50e9c1127f2cd403a315f,0,112,112,142,1,fourtwo,,,,,,,,,,,,,,,,,,,,,,,,,,,,,,,,,,,,,,,,,,,,,,,,,,,,,,,,,,,,,,,,,,,,,,,,,,,,,,,,,,,,,,,,,,,,,,,,,,,,,,,,,,,,,,,,,,,,,,,,,,,,,,,,,,,,,,,,,,,,,,,,,,,,,,,,,,,,,
,,,,,,614deecf67f2c8ccfe3df23b,62c53a01808438d282f10f02,2022-07-06_10h07.32.602,Colour_Asymmetry_Pilot,2022.1.3,Win32,59.85156811,62c50e9c1127f2cd403a315f,0,113,113,160,1,onetwo,,,,,,,,,,,,,,,,,,,,,,,,,,,,,,,,,,,,,,,,,,,,,,,,,,,,,,,,,,,,,,,,,,,,,,,,,,,,,,,,,,,,,,,,,,,,,,,,,,,,,,,,,,,,,,,,,,,,,,,,,,,,,,,,,,,,,,,,,,,,,,,,,,,,,,,,,,,,,
,,,,,,614deecf67f2c8ccfe3df23b,62c53a01808438d282f10f02,2022-07-06_10h07.32.602,Colour_Asymmetry_Pilot,2022.1.3,Win32,59.85156811,62c50e9c1127f2cd403a315f,0,114,114,74,1,twoone,,,,,,,,,,,,,,,,,,,,,,,,,,,,,,,,,,,,,,,,,,,,,,,,,,,,,,,,,,,,,,,,,,,,,,,,,,,,,,,,,,,,,,,,,,,,,,,,,,,,,,,,,,,,,,,,,,,,,,,,,,,,,,,,,,,,,,,,,,,,,,,,,,,,,,,,,,,,,
,,,,,,614deecf67f2c8ccfe3df23b,62c53a01808438d282f10f02,2022-07-06_10h07.32.602,Colour_Asymmetry_Pilot,2022.1.3,Win32,59.85156811,62c50e9c1127f2cd403a315f,0,115,115,115,1,twofour,,,,,,,,,,,,,,,,,,,,,,,,,,,,,,,,,,,,,,,,,,,,,,,,,,,,,,,,,,,,,,,,,,,,,,,,,,,,,,,,,,,,,,,,,,,,,,,,,,,,,,,,,,,,,,,,,,,,,,,,,,,,,,,,,,,,,,,,,,,,,,,,,,,,,,,,,,,,,
,,,,,,614deecf67f2c8ccfe3df23b,62c53a01808438d282f10f02,2022-07-06_10h07.32.602,Colour_Asymmetry_Pilot,2022.1.3,Win32,59.85156811,62c50e9c1127f2cd403a315f,0,116,116,79,1,fourthree,,,,,,,,,,,,,,,,,,,,,,,,,,,,,,,,,,,,,,,,,,,,,,,,,,,,,,,,,,,,,,,,,,,,,,,,,,,,,,,,,,,,,,,,,,,,,,,,,,,,,,,,,,,,,,,,,,,,,,,,,,,,,,,,,,,,,,,,,,,,,,,,,,,,,,,,,,,,,
,,,,,,614deecf67f2c8ccfe3df23b,62c53a01808438d282f10f02,2022-07-06_10h07.32.602,Colour_Asymmetry_Pilot,2022.1.3,Win32,59.85156811,62c50e9c1127f2cd403a315f,0,117,117,33,1,onethree,,,,,,,,,,,,,,,,,,,,,,,,,,,,,,,,,,,,,,,,,,,,,,,,,,,,,,,,,,,,,,,,,,,,,,,,,,,,,,,,,,,,,,,,,,,,,,,,,,,,,,,,,,,,,,,,,,,,,,,,,,,,,,,,,,,,,,,,,,,,,,,,,,,,,,,,,,,,,
,,,,,,614deecf67f2c8ccfe3df23b,62c53a01808438d282f10f02,2022-07-06_10h07.32.602,Colour_Asymmetry_Pilot,2022.1.3,Win32,59.85156811,62c50e9c1127f2cd403a315f,0,118,118,12,1,threeone,,,,,,,,,,,,,,,,,,,,,,,,,,,,,,,,,,,,,,,,,,,,,,,,,,,,,,,,,,,,,,,,,,,,,,,,,,,,,,,,,,,,,,,,,,,,,,,,,,,,,,,,,,,,,,,,,,,,,,,,,,,,,,,,,,,,,,,,,,,,,,,,,,,,,,,,,,,,,
,,,,,,614deecf67f2c8ccfe3df23b,62c53a01808438d282f10f02,2022-07-06_10h07.32.602,Colour_Asymmetry_Pilot,2022.1.3,Win32,59.85156811,62c50e9c1127f2cd403a315f,0,119,119,130,1,twoone,,,,,,,,,,,,,,,,,,,,,,,,,,,,,,,,,,,,,,,,,,,,,,,,,,,,,,,,,,,,,,,,,,,,,,,,,,,,,,,,,,,,,,,,,,,,,,,,,,,,,,,,,,,,,,,,,,,,,,,,,,,,,,,,,,,,,,,,,,,,,,,,,,,,,,,,,,,,,
,,,,,,614deecf67f2c8ccfe3df23b,62c53a01808438d282f10f02,2022-07-06_10h07.32.602,Colour_Asymmetry_Pilot,2022.1.3,Win32,59.85156811,62c50e9c1127f2cd403a315f,0,120,120,35,1,twofour,,,,,,,,,,,,,,,,,,,,,,,,,,,,,,,,,,,,,,,,,,,,,,,,,,,,,,,,,,,,,,,,,,,,,,,,,,,,,,,,,,,,,,,,,,,,,,,,,,,,,,,,,,,,,,,,,,,,,,,,,,,,,,,,,,,,,,,,,,,,,,,,,,,,,,,,,,,,,
,,,,,,614deecf67f2c8ccfe3df23b,62c53a01808438d282f10f02,2022-07-06_10h07.32.602,Colour_Asymmetry_Pilot,2022.1.3,Win32,59.85156811,62c50e9c1127f2cd403a315f,0,121,121,20,1,threeone,,,,,,,,,,,,,,,,,,,,,,,,,,,,,,,,,,,,,,,,,,,,,,,,,,,,,,,,,,,,,,,,,,,,,,,,,,,,,,,,,,,,,,,,,,,,,,,,,,,,,,,,,,,,,,,,,,,,,,,,,,,,,,,,,,,,,,,,,,,,,,,,,,,,,,,,,,,,,
,,,,,,614deecf67f2c8ccfe3df23b,62c53a01808438d282f10f02,2022-07-06_10h07.32.602,Colour_Asymmetry_Pilot,2022.1.3,Win32,59.85156811,62c50e9c1127f2cd403a315f,0,122,122,82,1,twoone,,,,,,,,,,,,,,,,,,,,,,,,,,,,,,,,,,,,,,,,,,,,,,,,,,,,,,,,,,,,,,,,,,,,,,,,,,,,,,,,,,,,,,,,,,,,,,,,,,,,,,,,,,,,,,,,,,,,,,,,,,,,,,,,,,,,,,,,,,,,,,,,,,,,,,,,,,,,,
,,,,,,614deecf67f2c8ccfe3df23b,62c53a01808438d282f10f02,2022-07-06_10h07.32.602,Colour_Asymmetry_Pilot,2022.1.3,Win32,59.85156811,62c50e9c1127f2cd403a315f,0,123,123,61,1,threefour,,,,,,,,,,,,,,,,,,,,,,,,,,,,,,,,,,,,,,,,,,,,,,,,,,,,,,,,,,,,,,,,,,,,,,,,,,,,,,,,,,,,,,,,,,,,,,,,,,,,,,,,,,,,,,,,,,,,,,,,,,,,,,,,,,,,,,,,,,,,,,,,,,,,,,,,,,,,,
,,,,,,614deecf67f2c8ccfe3df23b,62c53a01808438d282f10f02,2022-07-06_10h07.32.602,Colour_Asymmetry_Pilot,2022.1.3,Win32,59.85156811,62c50e9c1127f2cd403a315f,0,124,124,52,1,threeone,,,,,,,,,,,,,,,,,,,,,,,,,,,,,,,,,,,,,,,,,,,,,,,,,,,,,,,,,,,,,,,,,,,,,,,,,,,,,,,,,,,,,,,,,,,,,,,,,,,,,,,,,,,,,,,,,,,,,,,,,,,,,,,,,,,,,,,,,,,,,,,,,,,,,,,,,,,,,
,,,,,,614deecf67f2c8ccfe3df23b,62c53a01808438d282f10f02,2022-07-06_10h07.32.602,Colour_Asymmetry_Pilot,2022.1.3,Win32,59.85156811,62c50e9c1127f2cd403a315f,0,125,125,34,1,twoone,,,,,,,,,,,,,,,,,,,,,,,,,,,,,,,,,,,,,,,,,,,,,,,,,,,,,,,,,,,,,,,,,,,,,,,,,,,,,,,,,,,,,,,,,,,,,,,,,,,,,,,,,,,,,,,,,,,,,,,,,,,,,,,,,,,,,,,,,,,,,,,,,,,,,,,,,,,,,
,,,,,,614deecf67f2c8ccfe3df23b,62c53a01808438d282f10f02,2022-07-06_10h07.32.602,Colour_Asymmetry_Pilot,2022.1.3,Win32,59.85156811,62c50e9c1127f2cd403a315f,0,126,126,51,1,twofour,,,,,,,,,,,,,,,,,,,,,,,,,,,,,,,,,,,,,,,,,,,,,,,,,,,,,,,,,,,,,,,,,,,,,,,,,,,,,,,,,,,,,,,,,,,,,,,,,,,,,,,,,,,,,,,,,,,,,,,,,,,,,,,,,,,,,,,,,,,,,,,,,,,,,,,,,,,,,
,,,,,,614deecf67f2c8ccfe3df23b,62c53a01808438d282f10f02,2022-07-06_10h07.32.602,Colour_Asymmetry_Pilot,2022.1.3,Win32,59.85156811,62c50e9c1127f2cd403a315f,0,127,127,37,1,threefour,,,,,,,,,,,,,,,,,,,,,,,,,,,,,,,,,,,,,,,,,,,,,,,,,,,,,,,,,,,,,,,,,,,,,,,,,,,,,,,,,,,,,,,,,,,,,,,,,,,,,,,,,,,,,,,,,,,,,,,,,,,,,,,,,,,,,,,,,,,,,,,,,,,,,,,,,,,,,
,,,,,,614deecf67f2c8ccfe3df23b,62c53a01808438d282f10f02,2022-07-06_10h07.32.602,Colour_Asymmetry_Pilot,2022.1.3,Win32,59.85156811,62c50e9c1127f2cd403a315f,0,128,128,141,1,threefour,,,,,,,,,,,,,,,,,,,,,,,,,,,,,,,,,,,,,,,,,,,,,,,,,,,,,,,,,,,,,,,,,,,,,,,,,,,,,,,,,,,,,,,,,,,,,,,,,,,,,,,,,,,,,,,,,,,,,,,,,,,,,,,,,,,,,,,,,,,,,,,,,,,,,,,,,,,,,
,,,,,,614deecf67f2c8ccfe3df23b,62c53a01808438d282f10f02,2022-07-06_10h07.32.602,Colour_Asymmetry_Pilot,2022.1.3,Win32,59.85156811,62c50e9c1127f2cd403a315f,0,129,129,158,1,fourtwo,,,,,,,,,,,,,,,,,,,,,,,,,,,,,,,,,,,,,,,,,,,,,,,,,,,,,,,,,,,,,,,,,,,,,,,,,,,,,,,,,,,,,,,,,,,,,,,,,,,,,,,,,,,,,,,,,,,,,,,,,,,,,,,,,,,,,,,,,,,,,,,,,,,,,,,,,,,,,
,,,,,,614deecf67f2c8ccfe3df23b,62c53a01808438d282f10f02,2022-07-06_10h07.32.602,Colour_Asymmetry_Pilot,2022.1.3,Win32,59.85156811,62c50e9c1127f2cd403a315f,0,130,130,59,1,twofour,,,,,,,,,,,,,,,,,,,,,,,,,,,,,,,,,,,,,,,,,,,,,,,,,,,,,,,,,,,,,,,,,,,,,,,,,,,,,,,,,,,,,,,,,,,,,,,,,,,,,,,,,,,,,,,,,,,,,,,,,,,,,,,,,,,,,,,,,,,,,,,,,,,,,,,,,,,,,
,,,,,,614deecf67f2c8ccfe3df23b,62c53a01808438d282f10f02,2022-07-06_10h07.32.602,Colour_Asymmetry_Pilot,2022.1.3,Win32,59.85156811,62c50e9c1127f2cd403a315f,0,131,131,75,1,twofour,,,,,,,,,,,,,,,,,,,,,,,,,,,,,,,,,,,,,,,,,,,,,,,,,,,,,,,,,,,,,,,,,,,,,,,,,,,,,,,,,,,,,,,,,,,,,,,,,,,,,,,,,,,,,,,,,,,,,,,,,,,,,,,,,,,,,,,,,,,,,,,,,,,,,,,,,,,,,
,,,,,,614deecf67f2c8ccfe3df23b,62c53a01808438d282f10f02,2022-07-06_10h07.32.602,Colour_Asymmetry_Pilot,2022.1.3,Win32,59.85156811,62c50e9c1127f2cd403a315f,0,132,132,47,1,fourthree,,,,,,,,,,,,,,,,,,,,,,,,,,,,,,,,,,,,,,,,,,,,,,,,,,,,,,,,,,,,,,,,,,,,,,,,,,,,,,,,,,,,,,,,,,,,,,,,,,,,,,,,,,,,,,,,,,,,,,,,,,,,,,,,,,,,,,,,,,,,,,,,,,,,,,,,,,,,,
,,,,,,614deecf67f2c8ccfe3df23b,62c53a01808438d282f10f02,2022-07-06_10h07.32.602,Colour_Asymmetry_Pilot,2022.1.3,Win32,59.85156811,62c50e9c1127f2cd403a315f,0,133,133,27,1,twofour,,,,,,,,,,,,,,,,,,,,,,,,,,,,,,,,,,,,,,,,,,,,,,,,,,,,,,,,,,,,,,,,,,,,,,,,,,,,,,,,,,,,,,,,,,,,,,,,,,,,,,,,,,,,,,,,,,,,,,,,,,,,,,,,,,,,,,,,,,,,,,,,,,,,,,,,,,,,,
,,,,,,614deecf67f2c8ccfe3df23b,62c53a01808438d282f10f02,2022-07-06_10h07.32.602,Colour_Asymmetry_Pilot,2022.1.3,Win32,59.85156811,62c50e9c1127f2cd403a315f,0,134,134,31,1,fourthree,,,,,,,,,,,,,,,,,,,,,,,,,,,,,,,,,,,,,,,,,,,,,,,,,,,,,,,,,,,,,,,,,,,,,,,,,,,,,,,,,,,,,,,,,,,,,,,,,,,,,,,,,,,,,,,,,,,,,,,,,,,,,,,,,,,,,,,,,,,,,,,,,,,,,,,,,,,,,
,,,,,,614deecf67f2c8ccfe3df23b,62c53a01808438d282f10f02,2022-07-06_10h07.32.602,Colour_Asymmetry_Pilot,2022.1.3,Win32,59.85156811,62c50e9c1127f2cd403a315f,0,135,135,125,1,threefour,,,,,,,,,,,,,,,,,,,,,,,,,,,,,,,,,,,,,,,,,,,,,,,,,,,,,,,,,,,,,,,,,,,,,,,,,,,,,,,,,,,,,,,,,,,,,,,,,,,,,,,,,,,,,,,,,,,,,,,,,,,,,,,,,,,,,,,,,,,,,,,,,,,,,,,,,,,,,
,,,,,,614deecf67f2c8ccfe3df23b,62c53a01808438d282f10f02,2022-07-06_10h07.32.602,Colour_Asymmetry_Pilot,2022.1.3,Win32,59.85156811,62c50e9c1127f2cd403a315f,0,136,136,18,1,twoone,,,,,,,,,,,,,,,,,,,,,,,,,,,,,,,,,,,,,,,,,,,,,,,,,,,,,,,,,,,,,,,,,,,,,,,,,,,,,,,,,,,,,,,,,,,,,,,,,,,,,,,,,,,,,,,,,,,,,,,,,,,,,,,,,,,,,,,,,,,,,,,,,,,,,,,,,,,,,
,,,,,,614deecf67f2c8ccfe3df23b,62c53a01808438d282f10f02,2022-07-06_10h07.32.602,Colour_Asymmetry_Pilot,2022.1.3,Win32,59.85156811,62c50e9c1127f2cd403a315f,0,137,137,83,1,twofour,,,,,,,,,,,,,,,,,,,,,,,,,,,,,,,,,,,,,,,,,,,,,,,,,,,,,,,,,,,,,,,,,,,,,,,,,,,,,,,,,,,,,,,,,,,,,,,,,,,,,,,,,,,,,,,,,,,,,,,,,,,,,,,,,,,,,,,,,,,,,,,,,,,,,,,,,,,,,
,,,,,,614deecf67f2c8ccfe3df23b,62c53a01808438d282f10f02,2022-07-06_10h07.32.602,Colour_Asymmetry_Pilot,2022.1.3,Win32,59.85156811,62c50e9c1127f2cd403a315f,0,138,138,14,1,fourtwo,,,,,,,,,,,,,,,,,,,,,,,,,,,,,,,,,,,,,,,,,,,,,,,,,,,,,,,,,,,,,,,,,,,,,,,,,,,,,,,,,,,,,,,,,,,,,,,,,,,,,,,,,,,,,,,,,,,,,,,,,,,,,,,,,,,,,,,,,,,,,,,,,,,,,,,,,,,,,
,,,,,,614deecf67f2c8ccfe3df23b,62c53a01808438d282f10f02,2022-07-06_10h07.32.602,Colour_Asymmetry_Pilot,2022.1.3,Win32,59.85156811,62c50e9c1127f2cd403a315f,0,139,139,41,1,onethree,,,,,,,,,,,,,,,,,,,,,,,,,,,,,,,,,,,,,,,,,,,,,,,,,,,,,,,,,,,,,,,,,,,,,,,,,,,,,,,,,,,,,,,,,,,,,,,,,,,,,,,,,,,,,,,,,,,,,,,,,,,,,,,,,,,,,,,,,,,,,,,,,,,,,,,,,,,,,
,,,,,,614deecf67f2c8ccfe3df23b,62c53a01808438d282f10f02,2022-07-06_10h07.32.602,Colour_Asymmetry_Pilot,2022.1.3,Win32,59.85156811,62c50e9c1127f2cd403a315f,0,140,140,109,1,threefour,,,,,,,,,,,,,,,,,,,,,,,,,,,,,,,,,,,,,,,,,,,,,,,,,,,,,,,,,,,,,,,,,,,,,,,,,,,,,,,,,,,,,,,,,,,,,,,,,,,,,,,,,,,,,,,,,,,,,,,,,,,,,,,,,,,,,,,,,,,,,,,,,,,,,,,,,,,,,
,,,,,,614deecf67f2c8ccfe3df23b,62c53a01808438d282f10f02,2022-07-06_10h07.32.602,Colour_Asymmetry_Pilot,2022.1.3,Win32,59.85156811,62c50e9c1127f2cd403a315f,0,141,141,148,1,threeone,,,,,,,,,,,,,,,,,,,,,,,,,,,,,,,,,,,,,,,,,,,,,,,,,,,,,,,,,,,,,,,,,,,,,,,,,,,,,,,,,,,,,,,,,,,,,,,,,,,,,,,,,,,,,,,,,,,,,,,,,,,,,,,,,,,,,,,,,,,,,,,,,,,,,,,,,,,,,
,,,,,,614deecf67f2c8ccfe3df23b,62c53a01808438d282f10f02,2022-07-06_10h07.32.602,Colour_Asymmetry_Pilot,2022.1.3,Win32,59.85156811,62c50e9c1127f2cd403a315f,0,142,142,106,1,twoone,,,,,,,,,,,,,,,,,,,,,,,,,,,,,,,,,,,,,,,,,,,,,,,,,,,,,,,,,,,,,,,,,,,,,,,,,,,,,,,,,,,,,,,,,,,,,,,,,,,,,,,,,,,,,,,,,,,,,,,,,,,,,,,,,,,,,,,,,,,,,,,,,,,,,,,,,,,,,
,,,,,,614deecf67f2c8ccfe3df23b,62c53a01808438d282f10f02,2022-07-06_10h07.32.602,Colour_Asymmetry_Pilot,2022.1.3,Win32,59.85156811,62c50e9c1127f2cd403a315f,0,143,143,45,1,threefour,,,,,,,,,,,,,,,,,,,,,,,,,,,,,,,,,,,,,,,,,,,,,,,,,,,,,,,,,,,,,,,,,,,,,,,,,,,,,,,,,,,,,,,,,,,,,,,,,,,,,,,,,,,,,,,,,,,,,,,,,,,,,,,,,,,,,,,,,,,,,,,,,,,,,,,,,,,,,
,,,,,,614deecf67f2c8ccfe3df23b,62c53a01808438d282f10f02,2022-07-06_10h07.32.602,Colour_Asymmetry_Pilot,2022.1.3,Win32,59.85156811,62c50e9c1127f2cd403a315f,0,144,144,4,1,threeone,,,,,,,,,,,,,,,,,,,,,,,,,,,,,,,,,,,,,,,,,,,,,,,,,,,,,,,,,,,,,,,,,,,,,,,,,,,,,,,,,,,,,,,,,,,,,,,,,,,,,,,,,,,,,,,,,,,,,,,,,,,,,,,,,,,,,,,,,,,,,,,,,,,,,,,,,,,,,
,,,,,,614deecf67f2c8ccfe3df23b,62c53a01808438d282f10f02,2022-07-06_10h07.32.602,Colour_Asymmetry_Pilot,2022.1.3,Win32,59.85156811,62c50e9c1127f2cd403a315f,0,145,145,103,1,fourthree,,,,,,,,,,,,,,,,,,,,,,,,,,,,,,,,,,,,,,,,,,,,,,,,,,,,,,,,,,,,,,,,,,,,,,,,,,,,,,,,,,,,,,,,,,,,,,,,,,,,,,,,,,,,,,,,,,,,,,,,,,,,,,,,,,,,,,,,,,,,,,,,,,,,,,,,,,,,,
,,,,,,614deecf67f2c8ccfe3df23b,62c53a01808438d282f10f02,2022-07-06_10h07.32.602,Colour_Asymmetry_Pilot,2022.1.3,Win32,59.85156811,62c50e9c1127f2cd403a315f,0,146,146,42,1,twoone,,,,,,,,,,,,,,,,,,,,,,,,,,,,,,,,,,,,,,,,,,,,,,,,,,,,,,,,,,,,,,,,,,,,,,,,,,,,,,,,,,,,,,,,,,,,,,,,,,,,,,,,,,,,,,,,,,,,,,,,,,,,,,,,,,,,,,,,,,,,,,,,,,,,,,,,,,,,,
,,,,,,614deecf67f2c8ccfe3df23b,62c53a01808438d282f10f02,2022-07-06_10h07.32.602,Colour_Asymmetry_Pilot,2022.1.3,Win32,59.85156811,62c50e9c1127f2cd403a315f,0,147,147,32,1,onetwo,,,,,,,,,,,,,,,,,,,,,,,,,,,,,,,,,,,,,,,,,,,,,,,,,,,,,,,,,,,,,,,,,,,,,,,,,,,,,,,,,,,,,,,,,,,,,,,,,,,,,,,,,,,,,,,,,,,,,,,,,,,,,,,,,,,,,,,,,,,,,,,,,,,,,,,,,,,,,
,,,,,,614deecf67f2c8ccfe3df23b,62c53a01808438d282f10f02,2022-07-06_10h07.32.602,Colour_Asymmetry_Pilot,2022.1.3,Win32,59.85156811,62c50e9c1127f2cd403a315f,0,148,148,17,1,onethree,,,,,,,,,,,,,,,,,,,,,,,,,,,,,,,,,,,,,,,,,,,,,,,,,,,,,,,,,,,,,,,,,,,,,,,,,,,,,,,,,,,,,,,,,,,,,,,,,,,,,,,,,,,,,,,,,,,,,,,,,,,,,,,,,,,,,,,,,,,,,,,,,,,,,,,,,,,,,
,,,,,,614deecf67f2c8ccfe3df23b,62c53a01808438d282f10f02,2022-07-06_10h07.32.602,Colour_Asymmetry_Pilot,2022.1.3,Win32,59.85156811,62c50e9c1127f2cd403a315f,0,149,149,48,1,onetwo,,,,,,,,,,,,,,,,,,,,,,,,,,,,,,,,,,,,,,,,,,,,,,,,,,,,,,,,,,,,,,,,,,,,,,,,,,,,,,,,,,,,,,,,,,,,,,,,,,,,,,,,,,,,,,,,,,,,,,,,,,,,,,,,,,,,,,,,,,,,,,,,,,,,,,,,,,,,,
,,,,,,614deecf67f2c8ccfe3df23b,62c53a01808438d282f10f02,2022-07-06_10h07.32.602,Colour_Asymmetry_Pilot,2022.1.3,Win32,59.85156811,62c50e9c1127f2cd403a315f,0,150,150,102,1,fourtwo,,,,,,,,,,,,,,,,,,,,,,,,,,,,,,,,,,,,,,,,,,,,,,,,,,,,,,,,,,,,,,,,,,,,,,,,,,,,,,,,,,,,,,,,,,,,,,,,,,,,,,,,,,,,,,,,,,,,,,,,,,,,,,,,,,,,,,,,,,,,,,,,,,,,,,,,,,,,,
,,,,,,614deecf67f2c8ccfe3df23b,62c53a01808438d282f10f02,2022-07-06_10h07.32.602,Colour_Asymmetry_Pilot,2022.1.3,Win32,59.85156811,62c50e9c1127f2cd403a315f,0,151,151,133,1,threefour,,,,,,,,,,,,,,,,,,,,,,,,,,,,,,,,,,,,,,,,,,,,,,,,,,,,,,,,,,,,,,,,,,,,,,,,,,,,,,,,,,,,,,,,,,,,,,,,,,,,,,,,,,,,,,,,,,,,,,,,,,,,,,,,,,,,,,,,,,,,,,,,,,,,,,,,,,,,,
,,,,,,614deecf67f2c8ccfe3df23b,62c53a01808438d282f10f02,2022-07-06_10h07.32.602,Colour_Asymmetry_Pilot,2022.1.3,Win32,59.85156811,62c50e9c1127f2cd403a315f,0,152,152,91,1,twofour,,,,,,,,,,,,,,,,,,,,,,,,,,,,,,,,,,,,,,,,,,,,,,,,,,,,,,,,,,,,,,,,,,,,,,,,,,,,,,,,,,,,,,,,,,,,,,,,,,,,,,,,,,,,,,,,,,,,,,,,,,,,,,,,,,,,,,,,,,,,,,,,,,,,,,,,,,,,,
,,,,,,614deecf67f2c8ccfe3df23b,62c53a01808438d282f10f02,2022-07-06_10h07.32.602,Colour_Asymmetry_Pilot,2022.1.3,Win32,59.85156811,62c50e9c1127f2cd403a315f,0,153,153,85,1,threefour,,,,,,,,,,,,,,,,,,,,,,,,,,,,,,,,,,,,,,,,,,,,,,,,,,,,,,,,,,,,,,,,,,,,,,,,,,,,,,,,,,,,,,,,,,,,,,,,,,,,,,,,,,,,,,,,,,,,,,,,,,,,,,,,,,,,,,,,,,,,,,,,,,,,,,,,,,,,,
,,,,,,614deecf67f2c8ccfe3df23b,62c53a01808438d282f10f02,2022-07-06_10h07.32.602,Colour_Asymmetry_Pilot,2022.1.3,Win32,59.85156811,62c50e9c1127f2cd403a315f,0,154,154,134,1,fourtwo,,,,,,,,,,,,,,,,,,,,,,,,,,,,,,,,,,,,,,,,,,,,,,,,,,,,,,,,,,,,,,,,,,,,,,,,,,,,,,,,,,,,,,,,,,,,,,,,,,,,,,,,,,,,,,,,,,,,,,,,,,,,,,,,,,,,,,,,,,,,,,,,,,,,,,,,,,,,,
,,,,,,614deecf67f2c8ccfe3df23b,62c53a01808438d282f10f02,2022-07-06_10h07.32.602,Colour_Asymmetry_Pilot,2022.1.3,Win32,59.85156811,62c50e9c1127f2cd403a315f,0,155,155,23,1,fourthree,,,,,,,,,,,,,,,,,,,,,,,,,,,,,,,,,,,,,,,,,,,,,,,,,,,,,,,,,,,,,,,,,,,,,,,,,,,,,,,,,,,,,,,,,,,,,,,,,,,,,,,,,,,,,,,,,,,,,,,,,,,,,,,,,,,,,,,,,,,,,,,,,,,,,,,,,,,,,
,,,,,,614deecf67f2c8ccfe3df23b,62c53a01808438d282f10f02,2022-07-06_10h07.32.602,Colour_Asymmetry_Pilot,2022.1.3,Win32,59.85156811,62c50e9c1127f2cd403a315f,0,156,156,90,1,twoone,,,,,,,,,,,,,,,,,,,,,,,,,,,,,,,,,,,,,,,,,,,,,,,,,,,,,,,,,,,,,,,,,,,,,,,,,,,,,,,,,,,,,,,,,,,,,,,,,,,,,,,,,,,,,,,,,,,,,,,,,,,,,,,,,,,,,,,,,,,,,,,,,,,,,,,,,,,,,
,,,,,,614deecf67f2c8ccfe3df23b,62c53a01808438d282f10f02,2022-07-06_10h07.32.602,Colour_Asymmetry_Pilot,2022.1.3,Win32,59.85156811,62c50e9c1127f2cd403a315f,0,157,157,157,1,threefour,,,,,,,,,,,,,,,,,,,,,,,,,,,,,,,,,,,,,,,,,,,,,,,,,,,,,,,,,,,,,,,,,,,,,,,,,,,,,,,,,,,,,,,,,,,,,,,,,,,,,,,,,,,,,,,,,,,,,,,,,,,,,,,,,,,,,,,,,,,,,,,,,,,,,,,,,,,,,
,,,,,,614deecf67f2c8ccfe3df23b,62c53a01808438d282f10f02,2022-07-06_10h07.32.602,Colour_Asymmetry_Pilot,2022.1.3,Win32,59.85156811,62c50e9c1127f2cd403a315f,0,158,158,120,1,onetwo,,,,,,,,,,,,,,,,,,,,,,,,,,,,,,,,,,,,,,,,,,,,,,,,,,,,,,,,,,,,,,,,,,,,,,,,,,,,,,,,,,,,,,,,,,,,,,,,,,,,,,,,,,,,,,,,,,,,,,,,,,,,,,,,,,,,,,,,,,,,,,,,,,,,,,,,,,,,,
,,,,,,614deecf67f2c8ccfe3df23b,62c53a01808438d282f10f02,2022-07-06_10h07.32.602,Colour_Asymmetry_Pilot,2022.1.3,Win32,59.85156811,62c50e9c1127f2cd403a315f,0,159,159,161,1,onethree,,,,,,,,,,,,,,,,,,,,,,,,,,,,,,,,,,,,,,,,,,,,,,,,,,,,,,,,,,,,,,,,,,,,,,,,,,,,,,,,,,,,,,,,,,,,,,,,,,,,,,,,,,,,,,,,,,,,,,,,,,,,,,,,,,,,,,,,,,,,,,,,,,,,,,,,,,,,,
,,,,,,614deecf67f2c8ccfe3df23b,62c53a01808438d282f10f02,2022-07-06_10h07.32.602,Colour_Asymmetry_Pilot,2022.1.3,Win32,59.85156811,62c50e9c1127f2cd403a315f,0,160,160,22,1,fourtwo,,,,,,,,,,,,,,,,,,,,,,,,,,,,,,,,,,,,,,,,,,,,,,,,,,,,,,,,,,,,,,,,,,,,,,,,,,,,,,,,,,,,,,,,,,,,,,,,,,,,,,,,,,,,,,,,,,,,,,,,,,,,,,,,,,,,,,,,,,,,,,,,,,,,,,,,,,,,,
,,,,,,614deecf67f2c8ccfe3df23b,62c53a01808438d282f10f02,2022-07-06_10h07.32.602,Colour_Asymmetry_Pilot,2022.1.3,Win32,59.85156811,62c50e9c1127f2cd403a315f,0,161,161,147,1,twofour,,,,,,,,,,,,,,,,,,,,,,,,,,,,,,,,,,,,,,,,,,,,,,,,,,,,,,,,,,,,,,,,,,,,,,,,,,,,,,,,,,,,,,,,,,,,,,,,,,,,,,,,,,,,,,,,,,,,,,,,,,,,,,,,,,,,,,,,,,,,,,,,,,,,,,,,,,,,,
,,,,,,614deecf67f2c8ccfe3df23b,62c53a01808438d282f10f02,2022-07-06_10h07.32.602,Colour_Asymmetry_Pilot,2022.1.3,Win32,59.85156811,62c50e9c1127f2cd403a315f,,,,,,,space,0.3737,space,1.3553,space,1.1424,space,0.82,space,0.9033,space,2.6017,"[0.37240000000000006,0.4980000000000002,-0.2864]",threefour,"[-0.34920000000000007,-0.702,-0.5216]",-2,5.6095,-71,-36,1,0,0,response5disk_5,-18,-13,1,0,0,rectangle_8,30,54,1,0,0,response1disk_7,7,4,6,3,1,0,0,rectangle_4,0,0,0,0,1,,,,,,,,,,,,,,,,,,,,,,,,,,,,,,,,,,,,,,,,,,,,,,,,,,,,,,,,,,,,,,,,,,,,,,,,,,,,,,,,,,,,,,,,,,,,,,,,,,,,,,,,,,,,,
,,,,,,614deecf67f2c8ccfe3df23b,62c53a01808438d282f10f02,2022-07-06_10h07.32.602,Colour_Asymmetry_Pilot,2022.1.3,Win32,59.85156811,62c50e9c1127f2cd403a315f,,,,,,,,,,,,,,,,,,,"[0.30180000000000007,-0.7884,-0.9844]",onetwo,"[0.34099999999999997,0.5841999999999998,-0.9844]",-3,1.3674,-60,42,1,0,0,response7disk_5,-7,4,1,0,0,rectangle_8,-7,4,1,0,0,,,4,-7,4,1,0,0,,1,0,1,0,1,,,,,,,,,,,,,,,,,,,,,,,,,,,,,,,,,,,,,,,,,,,,,,,,,,,,,,,,,,,,,,,,,,,,,,,,,,,,,,,,,,,,,,,,,,,,,,,,,,,,,,,,,,,,,
,,,,,,614deecf67f2c8ccfe3df23b,62c53a01808438d282f10f02,2022-07-06_10h07.32.602,Colour_Asymmetry_Pilot,2022.1.3,Win32,59.85156811,62c50e9c1127f2cd403a315f,,,,,,,,,,,,,,,,,,,"[-0.6235999999999999,-0.6786,-0.08239999999999992]",fourtwo,"[-0.9296,-0.12959999999999994,-0.043199999999999905]",4,1.6325,39,58,1,0,0,response1disk_5,11,-4,1,0,0,rectangle_8,11,-4,1,0,0,,,4,11,-4,1,0,0,,2,0,2,0,1,,,,,,,,,,,,,,,,,,,,,,,,,,,,,,,,,,,,,,,,,,,,,,,,,,,,,,,,,,,,,,,,,,,,,,,,,,,,,,,,,,,,,,,,,,,,,,,,,,,,,,,,,,,,,
,,,,,,614deecf67f2c8ccfe3df23b,62c53a01808438d282f10f02,2022-07-06_10h07.32.602,Colour_Asymmetry_Pilot,2022.1.3,Win32,59.85156811,62c50e9c1127f2cd403a315f,,,,,,,,,,,,,,,,,,,"[0.7176,-0.906,-0.6864]",twoone,"[-0.01980000000000004,-0.5138,-0.38039999999999996]",3,1.4389,88,44,1,0,0,response1disk_5,14,5,1,0,0,rectangle_8,14,5,1,0,0,,,4,14,5,1,0,0,,3,0,3,0,1,,,,,,,,,,,,,,,,,,,,,,,,,,,,,,,,,,,,,,,,,,,,,,,,,,,,,,,,,,,,,,,,,,,,,,,,,,,,,,,,,,,,,,,,,,,,,,,,,,,,,,,,,,,,,
,,,,,,614deecf67f2c8ccfe3df23b,62c53a01808438d282f10f02,2022-07-06_10h07.32.602,Colour_Asymmetry_Pilot,2022.1.3,Win32,59.85156811,62c50e9c1127f2cd403a315f,,,,,,,,,,,,,,,,,,,"[-0.2942,-0.7648,-0.7492000000000001]",threeone,"[0.3568,-0.20799999999999996,-0.9844]",-3,1.467,-83,46,1,0,0,response7disk_5,-14,-1,1,0,0,rectangle_8,-14,-1,1,0,0,,,4,-14,-1,1,0,0,,4,0,4,0,1,,,,,,,,,,,,,,,,,,,,,,,,,,,,,,,,,,,,,,,,,,,,,,,,,,,,,,,,,,,,,,,,,,,,,,,,,,,,,,,,,,,,,,,,,,,,,,,,,,,,,,,,,,,,,
,,,,,,614deecf67f2c8ccfe3df23b,62c53a01808438d282f10f02,2022-07-06_10h07.32.602,Colour_Asymmetry_Pilot,2022.1.3,Win32,59.85156811,62c50e9c1127f2cd403a315f,,,,,,,,,,,,,,,,,,,"[0.9686000000000001,0.5763999999999998,0.11359999999999992]",threefour,"[0.12939999999999996,-0.2864,0.3253999999999999]",-3,1.4056,-79,28,1,0,0,response7disk_5,-11,5,1,0,0,rectangle_8,-11,5,1,0,0,,,4,-11,5,1,0,0,,5,0,5,0,1,,,,,,,,,,,,,,,,,,,,,,,,,,,,,,,,,,,,,,,,,,,,,,,,,,,,,,,,,,,,,,,,,,,,,,,,,,,,,,,,,,,,,,,,,,,,,,,,,,,,,,,,,,,,,
,,,,,,614deecf67f2c8ccfe3df23b,62c53a01808438d282f10f02,2022-07-06_10h07.32.602,Colour_Asymmetry_Pilot,2022.1.3,Win32,59.85156811,62c50e9c1127f2cd403a315f,,,,,,,,,,,,,,,,,,,"[0.2862,0.7802,0.3568]",threeone,"[-0.6706000000000001,-0.6157999999999999,-0.6786]",3,1.3495,101,51,1,0,0,response1disk_5,-7,7,1,0,0,rectangle_8,-7,7,1,0,0,,,4,-7,7,1,0,0,,6,0,6,0,1,,,,,,,,,,,,,,,,,,,,,,,,,,,,,,,,,,,,,,,,,,,,,,,,,,,,,,,,,,,,,,,,,,,,,,,,,,,,,,,,,,,,,,,,,,,,,,,,,,,,,,,,,,,,,
,,,,,,614deecf67f2c8ccfe3df23b,62c53a01808438d282f10f02,2022-07-06_10h07.32.602,Colour_Asymmetry_Pilot,2022.1.3,Win32,59.85156811,62c50e9c1127f2cd403a315f,,,,,,,,,,,,,,,,,,,,onethree,,-3,1.0519,,,,,,,,,,,,,,,,,,,,,,,,,,,,,,,,space,1.2569,"[-0.10599999999999998,-0.15300000000000002,0.15280000000000005]","[0.9213999999999998,0.6391999999999998,-0.9922]",-72,57,1,0,0,response7disk,11,-2,1,0,0,rectangle,11,-2,1,0,0,,2,0.0068,0,11,-2,1,0,0,0,0,0,22,1,22,first,,,,,,,,,,,,,,,,,,,,,,,,,,,,,,,,,,,,,,,,,,,,,,,,,,,,,,,,,,,,,,,,,,,,,,,,
,,,,,,614deecf67f2c8ccfe3df23b,62c53a01808438d282f10f02,2022-07-06_10h07.32.602,Colour_Asymmetry_Pilot,2022.1.3,Win32,59.85156811,62c50e9c1127f2cd403a315f,,,,,,,,,,,,,,,,,,,,threeone,,-4,1.0815,,,,,,,,,,,,,,,,,,,,,,,,,,,,,,,,,,"[-0.30200000000000005,0.14500000000000002,0.2784]","[-0.17659999999999998,-0.2864,-0.8354]",-51,59,1,0,0,response7disk,-7,13,1,0,0,rectangle,-7,13,1,0,0,,2,0.0004,0,-7,13,1,0,0,0,1,1,46,1,46,first,,,,,,,,,,,,,,,,,,,,,,,,,,,,,,,,,,,,,,,,,,,,,,,,,,,,,,,,,,,,,,,,,,,,,,,,
,,,,,,614deecf67f2c8ccfe3df23b,62c53a01808438d282f10f02,2022-07-06_10h07.32.602,Colour_Asymmetry_Pilot,2022.1.3,Win32,59.85156811,62c50e9c1127f2cd403a315f,,,,,,,,,,,,,,,,,,,,fourthree,,4,0.5503,,,,,,,,,,,,,,,,,,,,,,,,,,,,,,,,,,"[-0.38039999999999996,-0.4276,-0.1452]","[-0.09019999999999995,0.44300000000000006,0.5371999999999999]",41,70,1,0,0,response1disk,17,5,1,0,0,rectangle,17,5,1,0,0,,3,0.0023,0,17,5,1,0,0,0,2,2,151,1,70,second,,,,,,,,,,,,,,,,,,,,,,,,,,,,,,,,,,,,,,,,,,,,,,,,,,,,,,,,,,,,,,,,,,,,,,,,
,,,,,,614deecf67f2c8ccfe3df23b,62c53a01808438d282f10f02,2022-07-06_10h07.32.602,Colour_Asymmetry_Pilot,2022.1.3,Win32,59.85156811,62c50e9c1127f2cd403a315f,,,,,,,,,,,,,,,,,,,,twofour,,4,0.6899,,,,,,,,,,,,,,,,,,,,,,,,,,,,,,,,,,"[0.3568,-0.20799999999999996,-0.9844]","[-0.48240000000000005,0.3175999999999999,0.2156]",34,56,1,0,0,response1disk,14,13,1,0,0,rectangle,14,13,1,0,0,,2,0.002,0,14,13,1,0,0,0,3,3,49,1,49,first,,,,,,,,,,,,,,,,,,,,,,,,,,,,,,,,,,,,,,,,,,,,,,,,,,,,,,,,,,,,,,,,,,,,,,,,
,,,,,,614deecf67f2c8ccfe3df23b,62c53a01808438d282f10f02,2022-07-06_10h07.32.602,Colour_Asymmetry_Pilot,2022.1.3,Win32,59.85156811,62c50e9c1127f2cd403a315f,,,,,,,,,,,,,,,,,,,,fourtwo,,4,0.5353,,,,,,,,,,,,,,,,,,,,,,,,,,,,,,,,,,"[-0.26280000000000003,-0.4746,-0.2158]","[-0.5688,-0.08239999999999992,-0.1844]",65,70,1,0,0,response1disk,24,-4,1,0,0,rectangle,24,-4,1,0,0,,2,0.0007,0,24,-4,1,0,0,0,4,4,44,1,44,first,,,,,,,,,,,,,,,,,,,,,,,,,,,,,,,,,,,,,,,,,,,,,,,,,,,,,,,,,,,,,,,,,,,,,,,,
,,,,,,614deecf67f2c8ccfe3df23b,62c53a01808438d282f10f02,2022-07-06_10h07.32.602,Colour_Asymmetry_Pilot,2022.1.3,Win32,59.85156811,62c50e9c1127f2cd403a315f,,,,,,,,,,,,,,,,,,,,fourthree,,-2,0.7154,,,,,,,,,,,,,,,,,,,,,,,,,,,,,,,,,,"[0.19199999999999995,0.18419999999999992,0.5136000000000001]","[-0.34920000000000007,-0.702,-0.5216]",-89,-70,1,0,0,response5disk,-5,-8,1,0,0,rectangle,-5,-8,1,0,0,,1,0.0012,0,-5,-8,1,0,0,0,5,5,133,1,52,second,,,,,,,,,,,,,,,,,,,,,,,,,,,,,,,,,,,,,,,,,,,,,,,,,,,,,,,,,,,,,,,,,,,,,,,,
,,,,,,614deecf67f2c8ccfe3df23b,62c53a01808438d282f10f02,2022-07-06_10h07.32.602,Colour_Asymmetry_Pilot,2022.1.3,Win32,59.85156811,62c50e9c1127f2cd403a315f,,,,,,,,,,,,,,,,,,,,fourthree,,-4,0.4273,,,,,,,,,,,,,,,,,,,,,,,,,,,,,,,,,,"[0.9763999999999999,0.8588,-0.05900000000000005]","[-0.9844,-0.9688,-0.9922]",-56,77,1,0,0,response7disk,13,13,1,0,0,rectangle,13,13,1,0,0,,1,0.0018,0,13,13,1,0,0,0,6,6,90,1,9,second,,,,,,,,,,,,,,,,,,,,,,,,,,,,,,,,,,,,,,,,,,,,,,,,,,,,,,,,,,,,,,,,,,,,,,,,
,,,,,,614deecf67f2c8ccfe3df23b,62c53a01808438d282f10f02,2022-07-06_10h07.32.602,Colour_Asymmetry_Pilot,2022.1.3,Win32,59.85156811,62c50e9c1127f2cd403a315f,,,,,,,,,,,,,,,,,,,,threeone,,-4,0.5845,,,,,,,,,,,,,,,,,,,,,,,,,,,,,,,,,,"[0.8274000000000001,-0.5844,-0.9452]","[-0.48240000000000005,0.3175999999999999,0.2156]",-68,85,1,0,0,response7disk,-12,1,1,0,0,rectangle,-12,1,1,0,0,,1,0.0004,0,-12,1,1,0,0,0,7,7,98,1,17,second,,,,,,,,,,,,,,,,,,,,,,,,,,,,,,,,,,,,,,,,,,,,,,,,,,,,,,,,,,,,,,,,,,,,,,,,
,,,,,,614deecf67f2c8ccfe3df23b,62c53a01808438d282f10f02,2022-07-06_10h07.32.602,Colour_Asymmetry_Pilot,2022.1.3,Win32,59.85156811,62c50e9c1127f2cd403a315f,,,,,,,,,,,,,,,,,,,,onethree,,4,0.5745,,,,,,,,,,,,,,,,,,,,,,,,,,,,,,,,,,"[0.0351999999999999,0.41159999999999997,0.0038000000000000256]","[0.0351999999999999,0.41159999999999997,0.0038000000000000256]",16,62,1,0,0,response1disk,-18,-12,1,0,0,rectangle,-18,-12,1,0,0,,2,0.001,0,-18,-12,1,0,0,0,8,8,82,1,1,second,,,,,,,,,,,,,,,,,,,,,,,,,,,,,,,,,,,,,,,,,,,,,,,,,,,,,,,,,,,,,,,,,,,,,,,,
,,,,,,614deecf67f2c8ccfe3df23b,62c53a01808438d282f10f02,2022-07-06_10h07.32.602,Colour_Asymmetry_Pilot,2022.1.3,Win32,59.85156811,62c50e9c1127f2cd403a315f,,,,,,,,,,,,,,,,,,,,fourthree,,-4,1.1004,,,,,,,,,,,,,,,,,,,,,,,,,,,,,,,,,,"[0.9763999999999999,0.30979999999999985,-0.6786]","[-0.050999999999999934,-0.6706000000000001,-0.804]",-34,57,1,0,0,response7disk,16,-2,1,0,0,rectangle,16,-2,1,0,0,,3,0.0038,0,16,-2,1,0,0,0,9,9,63,1,63,first,,,,,,,,,,,,,,,,,,,,,,,,,,,,,,,,,,,,,,,,,,,,,,,,,,,,,,,,,,,,,,,,,,,,,,,,
,,,,,,614deecf67f2c8ccfe3df23b,62c53a01808438d282f10f02,2022-07-06_10h07.32.602,Colour_Asymmetry_Pilot,2022.1.3,Win32,59.85156811,62c50e9c1127f2cd403a315f,,,,,,,,,,,,,,,,,,,,threefour,,-4,0.9148,,,,,,,,,,,,,,,,,,,,,,,,,,,,,,,,,,"[0.30180000000000007,-0.7884,-0.9844]","[-0.9688,-0.4902000000000001,-0.12159999999999993]",-36,52,1,0,0,response7disk,-1,-5,1,0,0,rectangle,-1,-5,1,0,0,,1,0.0054,0,-1,-5,1,0,0,0,10,10,94,1,13,second,,,,,,,,,,,,,,,,,,,,,,,,,,,,,,,,,,,,,,,,,,,,,,,,,,,,,,,,,,,,,,,,,,,,,,,,
,,,,,,614deecf67f2c8ccfe3df23b,62c53a01808438d282f10f02,2022-07-06_10h07.32.602,Colour_Asymmetry_Pilot,2022.1.3,Win32,59.85156811,62c50e9c1127f2cd403a315f,,,,,,,,,,,,,,,,,,,,onethree,,-3,1.5826,,,,,,,,,,,,,,,,,,,,,,,,,,,,,,,,,,"[-0.24719999999999998,0.5213999999999999,-0.12959999999999994]","[-0.011800000000000033,-0.906,-0.45100000000000007]",-67,67,1,0,0,response7disk,-21,6,1,0,0,rectangle,112,-63,1,0,0,2,2,2.0007,1,0,4,1,0,0,0,11,11,76,1,76,first,response3disk_3,rectangle,,,,,,,,,,,,,,,,,,,,,,,,,,,,,,,,,,,,,,,,,,,,,,,,,,,,,,,,,,,,,,,,,,,,,,
,,,,,,614deecf67f2c8ccfe3df23b,62c53a01808438d282f10f02,2022-07-06_10h07.32.602,Colour_Asymmetry_Pilot,2022.1.3,Win32,59.85156811,62c50e9c1127f2cd403a315f,,,,,,,,,,,,,,,,,,,,twoone,,3,1390.3778,,,,,,,,,,,,,,,,,,,,,,,,,,,,,,,,,,"[0.22340000000000004,-0.9296,-0.7884]","[-0.24719999999999998,0.5213999999999999,-0.12959999999999994]",37,26.5,1,0,0,response1disk,-17,5.5,1,0,0,rectangle,-17,5.5,1,0,0,2,3,0.0016,0,-17,5.5,1,0,0,0,12,12,4,1,4,first,,,,,,,,,,,,,,,,,,,,,,,,,,,,,,,,,,,,,,,,,,,,,,,,,,,,,,,,,,,,,,,,,,,,,,,,
,,,,,,614deecf67f2c8ccfe3df23b,62c53a01808438d282f10f02,2022-07-06_10h07.32.602,Colour_Asymmetry_Pilot,2022.1.3,Win32,59.85156811,62c50e9c1127f2cd403a315f,,,,,,,,,,,,,,,,,,,,twoone,,-4,0.6335,,,,,,,,,,,,,,,,,,,,,,,,,,,,,,,,,,"[-0.011800000000000033,-0.906,-0.45100000000000007]","[-0.24719999999999998,0.5213999999999999,-0.12959999999999994]",-20,42.5,1,0,0,response7disk,-5,3.5,1,0,0,rectangle,-5,3.5,1,0,0,2,3,0.0018,0,-5,3.5,1,0,0,0,13,13,157,1,76,second,,,,,,,,,,,,,,,,,,,,,,,,,,,,,,,,,,,,,,,,,,,,,,,,,,,,,,,,,,,,,,,,,,,,,,,,
,,,,,,614deecf67f2c8ccfe3df23b,62c53a01808438d282f10f02,2022-07-06_10h07.32.602,Colour_Asymmetry_Pilot,2022.1.3,Win32,59.85156811,62c50e9c1127f2cd403a315f,,,,,,,,,,,,,,,,,,,,twoone,,-4,0.6491,,,,,,,,,,,,,,,,,,,,,,,,,,,,,,,,,,"[0.9686000000000001,0.5763999999999998,0.11359999999999992]","[-0.9688,-0.4902000000000001,-0.12159999999999993]",-37,42.5,1,0,0,response7disk,-18,10.5,1,0,0,rectangle,-18,10.5,1,0,0,2,1,0.0021,0,-18,10.5,1,0,0,0,14,14,45,1,45,first,,,,,,,,,,,,,,,,,,,,,,,,,,,,,,,,,,,,,,,,,,,,,,,,,,,,,,,,,,,,,,,,,,,,,,,,
,,,,,,614deecf67f2c8ccfe3df23b,62c53a01808438d282f10f02,2022-07-06_10h07.32.602,Colour_Asymmetry_Pilot,2022.1.3,Win32,59.85156811,62c50e9c1127f2cd403a315f,,,,,,,,,,,,,,,,,,,,threeone,,4,1.2992,,,,,,,,,,,,,,,,,,,,,,,,,,,,,,,,,,"[-0.30200000000000005,0.14500000000000002,0.2784]","[0.34099999999999997,0.5841999999999998,-0.9844]",30,56.5,1,0,0,response1disk,5,11.5,1,0,0,rectangle,5,11.5,1,0,0,2,2,0.002,0,5,11.5,1,0,0,0,15,15,156,1,75,second,,,,,,,,,,,,,,,,,,,,,,,,,,,,,,,,,,,,,,,,,,,,,,,,,,,,,,,,,,,,,,,,,,,,,,,,
,,,,,,614deecf67f2c8ccfe3df23b,62c53a01808438d282f10f02,2022-07-06_10h07.32.602,Colour_Asymmetry_Pilot,2022.1.3,Win32,59.85156811,62c50e9c1127f2cd403a315f,,,,,,,,,,,,,,,,,,,,threeone,,3,1.3441,,,,,,,,,,,,,,,,,,,,,,,,,,,,,,,,,,"[-0.9766,-0.6472,0.07440000000000002]","[-0.6,0.16860000000000008,0.44300000000000006]",111,40.5,1,0,0,response1disk,4,9.5,1,0,0,rectangle,4,9.5,1,0,0,2,2,0.0002,0,4,9.5,1,0,0,0,16,16,15,1,15,first,,,,,,,,,,,,,,,,,,,,,,,,,,,,,,,,,,,,,,,,,,,,,,,,,,,,,,,,,,,,,,,,,,,,,,,,
,,,,,,614deecf67f2c8ccfe3df23b,62c53a01808438d282f10f02,2022-07-06_10h07.32.602,Colour_Asymmetry_Pilot,2022.1.3,Win32,59.85156811,62c50e9c1127f2cd403a315f,,,,,,,,,,,,,,,,,,,,onetwo,,4,7.9016,,,,,,,,,,,,,,,,,,,,,,,,,,,,,,,,,,"[0.3802000000000001,0.19199999999999995,-0.6394]","[0.796,0.2156,-0.27859999999999996]",30,73.5,1,0,0,response1disk,4,-12.5,1,0,0,rectangle,4,-12.5,1,0,0,2,3,0.0025,0,4,-12.5,1,0,0,0,17,17,71,1,71,first,,,,,,,,,,,,,,,,,,,,,,,,,,,,,,,,,,,,,,,,,,,,,,,,,,,,,,,,,,,,,,,,,,,,,,,,
