trials.thisRepN,trials.thisTrialN,trials.thisN,trials.thisIndex,trials.ran,Colourcodes,participant,session,date,expName,psychopyVersion,OS,frameRate,study_id,trials_4.thisRepN,trials_4.thisTrialN,trials_4.thisN,trials_4.thisIndex,trials_4.ran,StimulusPos,key_resp.keys,key_resp.rt,key_resp_2.keys,key_resp_2.rt,key_resp_15.keys,key_resp_15.rt,key_resp_17.keys,key_resp_17.rt,key_resp_9.keys,key_resp_9.rt,key_resp_10.keys,key_resp_10.rt,Circle1_col,Ecc,Circle2_col,similarity,response_time,mouse_5.x,mouse_5.y,mouse_5.leftButton,mouse_5.midButton,mouse_5.rightButton,mouse_5.clicked_name,mouse_10.x,mouse_10.y,mouse_10.leftButton,mouse_10.midButton,mouse_10.rightButton,mouse_10.clicked_name,mouse_7.x,mouse_7.y,mouse_7.leftButton,mouse_7.midButton,mouse_7.rightButton,catchnumberprac,mouse_6.x,mouse_6.y,mouse_6.leftButton,mouse_6.midButton,mouse_6.rightButton,duringprac.thisRepN,duringprac.thisTrialN,duringprac.thisN,duringprac.thisIndex,duringprac.ran,mouse_7.clicked_name,catchprac,mouse_6.clicked_name,key_resp_22.keys,key_resp_22.rt,Circle1_colour,Circle2_colour,mouse.x,mouse.y,mouse.leftButton,mouse.midButton,mouse.rightButton,mouse.clicked_name,mouse_2.x,mouse_2.y,mouse_2.leftButton,mouse_2.midButton,mouse_2.rightButton,mouse_2.clicked_name,mouse_3.x,mouse_3.y,mouse_3.leftButton,mouse_3.midButton,mouse_3.rightButton,catchresponse,catchnumber,response_time_catch,Catch,mouse_11.x,mouse_11.y,mouse_11.leftButton,mouse_11.midButton,mouse_11.rightButton,trials_2.thisRepN,trials_2.thisTrialN,trials_2.thisN,trials_2.thisIndex,trials_2.ran,Colourpair,Temporder,mouse_3.clicked_name,mouse_11.clicked_name,trials_3.thisRepN,trials_3.thisTrialN,trials_3.thisN,trials_3.thisIndex,trials_3.ran,key_resp_instr_Ishi.keys,key_resp_instr_Ishi.rt,Ishi_trial_keyresp.keys,Ishi_textbox.text,Ishi_mouse.x,Ishi_mouse.y,Ishi_mouse.leftButton,Ishi_mouse.midButton,Ishi_mouse.rightButton,Ishi_mouse.clicked_name,Ishi_loop.thisRepN,Ishi_loop.thisTrialN,Ishi_loop.thisN,Ishi_loop.thisIndex,Ishi_loop.ran,imageaddress,textbox.text,mouse_4.x,mouse_4.y,mouse_4.leftButton,mouse_4.midButton,mouse_4.rightButton,mouse_4.clicked_name,textbox_2.text,mouse_8.x,mouse_8.y,mouse_8.leftButton,mouse_8.midButton,mouse_8.rightButton,mouse_8.clicked_name,textbox_3.text,mouse_9.x,mouse_9.y,mouse_9.leftButton,mouse_9.midButton,mouse_9.rightButton,mouse_9.clicked_name,textbox_4.text,mouse_12.x,mouse_12.y,mouse_12.leftButton,mouse_12.midButton,mouse_12.rightButton,mouse_12.clicked_name,textbox_5.text,mouse_13.x,mouse_13.y,mouse_13.leftButton,mouse_13.midButton,mouse_13.rightButton,mouse_13.clicked_name,textbox_6.text,mouse_14.x,mouse_14.y,mouse_14.leftButton,mouse_14.midButton,mouse_14.rightButton,mouse_14.clicked_name,textbox_7.text,mouse_15.x,mouse_15.y,mouse_15.leftButton,mouse_15.midButton,mouse_15.rightButton,mouse_15.clicked_name
0,0,0,64,1,,5f573b18a6a8b51a94fdbd08,62c5388dc05c36cbf9f6d3ff,2022-07-06_02h42.51.219,Colour_Asymmetry_Pilot,2022.1.3,Win32,11.99630514,62c50e9c1127f2cd403a315f,,,,,,,,,,,,,,,,,,,,,,,,,,,,,,,,,,,,,,,,,,,,,,,,,,,,,,,,,,,,,,,,,,,,,,,,,,,,,,,,,,,,,,,,,,,,,,,,,,,,,,,,,,,,,,,,,,,,,,,,,,,,,,,,,,,,,,,,,,,,,,,,,,,,,,,,,,,,,,,,,,,
0,1,1,28,1,,5f573b18a6a8b51a94fdbd08,62c5388dc05c36cbf9f6d3ff,2022-07-06_02h42.51.219,Colour_Asymmetry_Pilot,2022.1.3,Win32,11.99630514,62c50e9c1127f2cd403a315f,,,,,,,,,,,,,,,,,,,,,,,,,,,,,,,,,,,,,,,,,,,,,,,,,,,,,,,,,,,,,,,,,,,,,,,,,,,,,,,,,,,,,,,,,,,,,,,,,,,,,,,,,,,,,,,,,,,,,,,,,,,,,,,,,,,,,,,,,,,,,,,,,,,,,,,,,,,,,,,,,,,
0,2,2,39,1,,5f573b18a6a8b51a94fdbd08,62c5388dc05c36cbf9f6d3ff,2022-07-06_02h42.51.219,Colour_Asymmetry_Pilot,2022.1.3,Win32,11.99630514,62c50e9c1127f2cd403a315f,,,,,,,,,,,,,,,,,,,,,,,,,,,,,,,,,,,,,,,,,,,,,,,,,,,,,,,,,,,,,,,,,,,,,,,,,,,,,,,,,,,,,,,,,,,,,,,,,,,,,,,,,,,,,,,,,,,,,,,,,,,,,,,,,,,,,,,,,,,,,,,,,,,,,,,,,,,,,,,,,,,
0,3,3,34,1,,5f573b18a6a8b51a94fdbd08,62c5388dc05c36cbf9f6d3ff,2022-07-06_02h42.51.219,Colour_Asymmetry_Pilot,2022.1.3,Win32,11.99630514,62c50e9c1127f2cd403a315f,,,,,,,,,,,,,,,,,,,,,,,,,,,,,,,,,,,,,,,,,,,,,,,,,,,,,,,,,,,,,,,,,,,,,,,,,,,,,,,,,,,,,,,,,,,,,,,,,,,,,,,,,,,,,,,,,,,,,,,,,,,,,,,,,,,,,,,,,,,,,,,,,,,,,,,,,,,,,,,,,,,
0,4,4,20,1,,5f573b18a6a8b51a94fdbd08,62c5388dc05c36cbf9f6d3ff,2022-07-06_02h42.51.219,Colour_Asymmetry_Pilot,2022.1.3,Win32,11.99630514,62c50e9c1127f2cd403a315f,,,,,,,,,,,,,,,,,,,,,,,,,,,,,,,,,,,,,,,,,,,,,,,,,,,,,,,,,,,,,,,,,,,,,,,,,,,,,,,,,,,,,,,,,,,,,,,,,,,,,,,,,,,,,,,,,,,,,,,,,,,,,,,,,,,,,,,,,,,,,,,,,,,,,,,,,,,,,,,,,,,
0,5,5,36,1,,5f573b18a6a8b51a94fdbd08,62c5388dc05c36cbf9f6d3ff,2022-07-06_02h42.51.219,Colour_Asymmetry_Pilot,2022.1.3,Win32,11.99630514,62c50e9c1127f2cd403a315f,,,,,,,,,,,,,,,,,,,,,,,,,,,,,,,,,,,,,,,,,,,,,,,,,,,,,,,,,,,,,,,,,,,,,,,,,,,,,,,,,,,,,,,,,,,,,,,,,,,,,,,,,,,,,,,,,,,,,,,,,,,,,,,,,,,,,,,,,,,,,,,,,,,,,,,,,,,,,,,,,,,
0,6,6,10,1,,5f573b18a6a8b51a94fdbd08,62c5388dc05c36cbf9f6d3ff,2022-07-06_02h42.51.219,Colour_Asymmetry_Pilot,2022.1.3,Win32,11.99630514,62c50e9c1127f2cd403a315f,,,,,,,,,,,,,,,,,,,,,,,,,,,,,,,,,,,,,,,,,,,,,,,,,,,,,,,,,,,,,,,,,,,,,,,,,,,,,,,,,,,,,,,,,,,,,,,,,,,,,,,,,,,,,,,,,,,,,,,,,,,,,,,,,,,,,,,,,,,,,,,,,,,,,,,,,,,,,,,,,,,
0,7,7,83,1,,5f573b18a6a8b51a94fdbd08,62c5388dc05c36cbf9f6d3ff,2022-07-06_02h42.51.219,Colour_Asymmetry_Pilot,2022.1.3,Win32,11.99630514,62c50e9c1127f2cd403a315f,,,,,,,,,,,,,,,,,,,,,,,,,,,,,,,,,,,,,,,,,,,,,,,,,,,,,,,,,,,,,,,,,,,,,,,,,,,,,,,,,,,,,,,,,,,,,,,,,,,,,,,,,,,,,,,,,,,,,,,,,,,,,,,,,,,,,,,,,,,,,,,,,,,,,,,,,,,,,,,,,,,
0,8,8,46,1,,5f573b18a6a8b51a94fdbd08,62c5388dc05c36cbf9f6d3ff,2022-07-06_02h42.51.219,Colour_Asymmetry_Pilot,2022.1.3,Win32,11.99630514,62c50e9c1127f2cd403a315f,,,,,,,,,,,,,,,,,,,,,,,,,,,,,,,,,,,,,,,,,,,,,,,,,,,,,,,,,,,,,,,,,,,,,,,,,,,,,,,,,,,,,,,,,,,,,,,,,,,,,,,,,,,,,,,,,,,,,,,,,,,,,,,,,,,,,,,,,,,,,,,,,,,,,,,,,,,,,,,,,,,
0,9,9,88,1,,5f573b18a6a8b51a94fdbd08,62c5388dc05c36cbf9f6d3ff,2022-07-06_02h42.51.219,Colour_Asymmetry_Pilot,2022.1.3,Win32,11.99630514,62c50e9c1127f2cd403a315f,,,,,,,,,,,,,,,,,,,,,,,,,,,,,,,,,,,,,,,,,,,,,,,,,,,,,,,,,,,,,,,,,,,,,,,,,,,,,,,,,,,,,,,,,,,,,,,,,,,,,,,,,,,,,,,,,,,,,,,,,,,,,,,,,,,,,,,,,,,,,,,,,,,,,,,,,,,,,,,,,,,
0,10,10,53,1,,5f573b18a6a8b51a94fdbd08,62c5388dc05c36cbf9f6d3ff,2022-07-06_02h42.51.219,Colour_Asymmetry_Pilot,2022.1.3,Win32,11.99630514,62c50e9c1127f2cd403a315f,,,,,,,,,,,,,,,,,,,,,,,,,,,,,,,,,,,,,,,,,,,,,,,,,,,,,,,,,,,,,,,,,,,,,,,,,,,,,,,,,,,,,,,,,,,,,,,,,,,,,,,,,,,,,,,,,,,,,,,,,,,,,,,,,,,,,,,,,,,,,,,,,,,,,,,,,,,,,,,,,,,
0,11,11,32,1,,5f573b18a6a8b51a94fdbd08,62c5388dc05c36cbf9f6d3ff,2022-07-06_02h42.51.219,Colour_Asymmetry_Pilot,2022.1.3,Win32,11.99630514,62c50e9c1127f2cd403a315f,,,,,,,,,,,,,,,,,,,,,,,,,,,,,,,,,,,,,,,,,,,,,,,,,,,,,,,,,,,,,,,,,,,,,,,,,,,,,,,,,,,,,,,,,,,,,,,,,,,,,,,,,,,,,,,,,,,,,,,,,,,,,,,,,,,,,,,,,,,,,,,,,,,,,,,,,,,,,,,,,,,
0,12,12,24,1,,5f573b18a6a8b51a94fdbd08,62c5388dc05c36cbf9f6d3ff,2022-07-06_02h42.51.219,Colour_Asymmetry_Pilot,2022.1.3,Win32,11.99630514,62c50e9c1127f2cd403a315f,,,,,,,,,,,,,,,,,,,,,,,,,,,,,,,,,,,,,,,,,,,,,,,,,,,,,,,,,,,,,,,,,,,,,,,,,,,,,,,,,,,,,,,,,,,,,,,,,,,,,,,,,,,,,,,,,,,,,,,,,,,,,,,,,,,,,,,,,,,,,,,,,,,,,,,,,,,,,,,,,,,
0,13,13,6,1,,5f573b18a6a8b51a94fdbd08,62c5388dc05c36cbf9f6d3ff,2022-07-06_02h42.51.219,Colour_Asymmetry_Pilot,2022.1.3,Win32,11.99630514,62c50e9c1127f2cd403a315f,,,,,,,,,,,,,,,,,,,,,,,,,,,,,,,,,,,,,,,,,,,,,,,,,,,,,,,,,,,,,,,,,,,,,,,,,,,,,,,,,,,,,,,,,,,,,,,,,,,,,,,,,,,,,,,,,,,,,,,,,,,,,,,,,,,,,,,,,,,,,,,,,,,,,,,,,,,,,,,,,,,
0,14,14,43,1,,5f573b18a6a8b51a94fdbd08,62c5388dc05c36cbf9f6d3ff,2022-07-06_02h42.51.219,Colour_Asymmetry_Pilot,2022.1.3,Win32,11.99630514,62c50e9c1127f2cd403a315f,,,,,,,,,,,,,,,,,,,,,,,,,,,,,,,,,,,,,,,,,,,,,,,,,,,,,,,,,,,,,,,,,,,,,,,,,,,,,,,,,,,,,,,,,,,,,,,,,,,,,,,,,,,,,,,,,,,,,,,,,,,,,,,,,,,,,,,,,,,,,,,,,,,,,,,,,,,,,,,,,,,
0,15,15,65,1,,5f573b18a6a8b51a94fdbd08,62c5388dc05c36cbf9f6d3ff,2022-07-06_02h42.51.219,Colour_Asymmetry_Pilot,2022.1.3,Win32,11.99630514,62c50e9c1127f2cd403a315f,,,,,,,,,,,,,,,,,,,,,,,,,,,,,,,,,,,,,,,,,,,,,,,,,,,,,,,,,,,,,,,,,,,,,,,,,,,,,,,,,,,,,,,,,,,,,,,,,,,,,,,,,,,,,,,,,,,,,,,,,,,,,,,,,,,,,,,,,,,,,,,,,,,,,,,,,,,,,,,,,,,
0,16,16,25,1,,5f573b18a6a8b51a94fdbd08,62c5388dc05c36cbf9f6d3ff,2022-07-06_02h42.51.219,Colour_Asymmetry_Pilot,2022.1.3,Win32,11.99630514,62c50e9c1127f2cd403a315f,,,,,,,,,,,,,,,,,,,,,,,,,,,,,,,,,,,,,,,,,,,,,,,,,,,,,,,,,,,,,,,,,,,,,,,,,,,,,,,,,,,,,,,,,,,,,,,,,,,,,,,,,,,,,,,,,,,,,,,,,,,,,,,,,,,,,,,,,,,,,,,,,,,,,,,,,,,,,,,,,,,
0,17,17,55,1,,5f573b18a6a8b51a94fdbd08,62c5388dc05c36cbf9f6d3ff,2022-07-06_02h42.51.219,Colour_Asymmetry_Pilot,2022.1.3,Win32,11.99630514,62c50e9c1127f2cd403a315f,,,,,,,,,,,,,,,,,,,,,,,,,,,,,,,,,,,,,,,,,,,,,,,,,,,,,,,,,,,,,,,,,,,,,,,,,,,,,,,,,,,,,,,,,,,,,,,,,,,,,,,,,,,,,,,,,,,,,,,,,,,,,,,,,,,,,,,,,,,,,,,,,,,,,,,,,,,,,,,,,,,
0,18,18,44,1,,5f573b18a6a8b51a94fdbd08,62c5388dc05c36cbf9f6d3ff,2022-07-06_02h42.51.219,Colour_Asymmetry_Pilot,2022.1.3,Win32,11.99630514,62c50e9c1127f2cd403a315f,,,,,,,,,,,,,,,,,,,,,,,,,,,,,,,,,,,,,,,,,,,,,,,,,,,,,,,,,,,,,,,,,,,,,,,,,,,,,,,,,,,,,,,,,,,,,,,,,,,,,,,,,,,,,,,,,,,,,,,,,,,,,,,,,,,,,,,,,,,,,,,,,,,,,,,,,,,,,,,,,,,
0,19,19,66,1,,5f573b18a6a8b51a94fdbd08,62c5388dc05c36cbf9f6d3ff,2022-07-06_02h42.51.219,Colour_Asymmetry_Pilot,2022.1.3,Win32,11.99630514,62c50e9c1127f2cd403a315f,,,,,,,,,,,,,,,,,,,,,,,,,,,,,,,,,,,,,,,,,,,,,,,,,,,,,,,,,,,,,,,,,,,,,,,,,,,,,,,,,,,,,,,,,,,,,,,,,,,,,,,,,,,,,,,,,,,,,,,,,,,,,,,,,,,,,,,,,,,,,,,,,,,,,,,,,,,,,,,,,,,
0,20,20,84,1,,5f573b18a6a8b51a94fdbd08,62c5388dc05c36cbf9f6d3ff,2022-07-06_02h42.51.219,Colour_Asymmetry_Pilot,2022.1.3,Win32,11.99630514,62c50e9c1127f2cd403a315f,,,,,,,,,,,,,,,,,,,,,,,,,,,,,,,,,,,,,,,,,,,,,,,,,,,,,,,,,,,,,,,,,,,,,,,,,,,,,,,,,,,,,,,,,,,,,,,,,,,,,,,,,,,,,,,,,,,,,,,,,,,,,,,,,,,,,,,,,,,,,,,,,,,,,,,,,,,,,,,,,,,
0,21,21,15,1,,5f573b18a6a8b51a94fdbd08,62c5388dc05c36cbf9f6d3ff,2022-07-06_02h42.51.219,Colour_Asymmetry_Pilot,2022.1.3,Win32,11.99630514,62c50e9c1127f2cd403a315f,,,,,,,,,,,,,,,,,,,,,,,,,,,,,,,,,,,,,,,,,,,,,,,,,,,,,,,,,,,,,,,,,,,,,,,,,,,,,,,,,,,,,,,,,,,,,,,,,,,,,,,,,,,,,,,,,,,,,,,,,,,,,,,,,,,,,,,,,,,,,,,,,,,,,,,,,,,,,,,,,,,
0,22,22,41,1,,5f573b18a6a8b51a94fdbd08,62c5388dc05c36cbf9f6d3ff,2022-07-06_02h42.51.219,Colour_Asymmetry_Pilot,2022.1.3,Win32,11.99630514,62c50e9c1127f2cd403a315f,,,,,,,,,,,,,,,,,,,,,,,,,,,,,,,,,,,,,,,,,,,,,,,,,,,,,,,,,,,,,,,,,,,,,,,,,,,,,,,,,,,,,,,,,,,,,,,,,,,,,,,,,,,,,,,,,,,,,,,,,,,,,,,,,,,,,,,,,,,,,,,,,,,,,,,,,,,,,,,,,,,
0,23,23,73,1,,5f573b18a6a8b51a94fdbd08,62c5388dc05c36cbf9f6d3ff,2022-07-06_02h42.51.219,Colour_Asymmetry_Pilot,2022.1.3,Win32,11.99630514,62c50e9c1127f2cd403a315f,,,,,,,,,,,,,,,,,,,,,,,,,,,,,,,,,,,,,,,,,,,,,,,,,,,,,,,,,,,,,,,,,,,,,,,,,,,,,,,,,,,,,,,,,,,,,,,,,,,,,,,,,,,,,,,,,,,,,,,,,,,,,,,,,,,,,,,,,,,,,,,,,,,,,,,,,,,,,,,,,,,
0,24,24,21,1,,5f573b18a6a8b51a94fdbd08,62c5388dc05c36cbf9f6d3ff,2022-07-06_02h42.51.219,Colour_Asymmetry_Pilot,2022.1.3,Win32,11.99630514,62c50e9c1127f2cd403a315f,,,,,,,,,,,,,,,,,,,,,,,,,,,,,,,,,,,,,,,,,,,,,,,,,,,,,,,,,,,,,,,,,,,,,,,,,,,,,,,,,,,,,,,,,,,,,,,,,,,,,,,,,,,,,,,,,,,,,,,,,,,,,,,,,,,,,,,,,,,,,,,,,,,,,,,,,,,,,,,,,,,
0,25,25,54,1,,5f573b18a6a8b51a94fdbd08,62c5388dc05c36cbf9f6d3ff,2022-07-06_02h42.51.219,Colour_Asymmetry_Pilot,2022.1.3,Win32,11.99630514,62c50e9c1127f2cd403a315f,,,,,,,,,,,,,,,,,,,,,,,,,,,,,,,,,,,,,,,,,,,,,,,,,,,,,,,,,,,,,,,,,,,,,,,,,,,,,,,,,,,,,,,,,,,,,,,,,,,,,,,,,,,,,,,,,,,,,,,,,,,,,,,,,,,,,,,,,,,,,,,,,,,,,,,,,,,,,,,,,,,
0,26,26,29,1,,5f573b18a6a8b51a94fdbd08,62c5388dc05c36cbf9f6d3ff,2022-07-06_02h42.51.219,Colour_Asymmetry_Pilot,2022.1.3,Win32,11.99630514,62c50e9c1127f2cd403a315f,,,,,,,,,,,,,,,,,,,,,,,,,,,,,,,,,,,,,,,,,,,,,,,,,,,,,,,,,,,,,,,,,,,,,,,,,,,,,,,,,,,,,,,,,,,,,,,,,,,,,,,,,,,,,,,,,,,,,,,,,,,,,,,,,,,,,,,,,,,,,,,,,,,,,,,,,,,,,,,,,,,
0,27,27,9,1,,5f573b18a6a8b51a94fdbd08,62c5388dc05c36cbf9f6d3ff,2022-07-06_02h42.51.219,Colour_Asymmetry_Pilot,2022.1.3,Win32,11.99630514,62c50e9c1127f2cd403a315f,,,,,,,,,,,,,,,,,,,,,,,,,,,,,,,,,,,,,,,,,,,,,,,,,,,,,,,,,,,,,,,,,,,,,,,,,,,,,,,,,,,,,,,,,,,,,,,,,,,,,,,,,,,,,,,,,,,,,,,,,,,,,,,,,,,,,,,,,,,,,,,,,,,,,,,,,,,,,,,,,,,
0,28,28,0,1,,5f573b18a6a8b51a94fdbd08,62c5388dc05c36cbf9f6d3ff,2022-07-06_02h42.51.219,Colour_Asymmetry_Pilot,2022.1.3,Win32,11.99630514,62c50e9c1127f2cd403a315f,,,,,,,,,,,,,,,,,,,,,,,,,,,,,,,,,,,,,,,,,,,,,,,,,,,,,,,,,,,,,,,,,,,,,,,,,,,,,,,,,,,,,,,,,,,,,,,,,,,,,,,,,,,,,,,,,,,,,,,,,,,,,,,,,,,,,,,,,,,,,,,,,,,,,,,,,,,,,,,,,,,
0,29,29,90,1,,5f573b18a6a8b51a94fdbd08,62c5388dc05c36cbf9f6d3ff,2022-07-06_02h42.51.219,Colour_Asymmetry_Pilot,2022.1.3,Win32,11.99630514,62c50e9c1127f2cd403a315f,,,,,,,,,,,,,,,,,,,,,,,,,,,,,,,,,,,,,,,,,,,,,,,,,,,,,,,,,,,,,,,,,,,,,,,,,,,,,,,,,,,,,,,,,,,,,,,,,,,,,,,,,,,,,,,,,,,,,,,,,,,,,,,,,,,,,,,,,,,,,,,,,,,,,,,,,,,,,,,,,,,
0,30,30,49,1,,5f573b18a6a8b51a94fdbd08,62c5388dc05c36cbf9f6d3ff,2022-07-06_02h42.51.219,Colour_Asymmetry_Pilot,2022.1.3,Win32,11.99630514,62c50e9c1127f2cd403a315f,,,,,,,,,,,,,,,,,,,,,,,,,,,,,,,,,,,,,,,,,,,,,,,,,,,,,,,,,,,,,,,,,,,,,,,,,,,,,,,,,,,,,,,,,,,,,,,,,,,,,,,,,,,,,,,,,,,,,,,,,,,,,,,,,,,,,,,,,,,,,,,,,,,,,,,,,,,,,,,,,,,
0,31,31,72,1,,5f573b18a6a8b51a94fdbd08,62c5388dc05c36cbf9f6d3ff,2022-07-06_02h42.51.219,Colour_Asymmetry_Pilot,2022.1.3,Win32,11.99630514,62c50e9c1127f2cd403a315f,,,,,,,,,,,,,,,,,,,,,,,,,,,,,,,,,,,,,,,,,,,,,,,,,,,,,,,,,,,,,,,,,,,,,,,,,,,,,,,,,,,,,,,,,,,,,,,,,,,,,,,,,,,,,,,,,,,,,,,,,,,,,,,,,,,,,,,,,,,,,,,,,,,,,,,,,,,,,,,,,,,
0,32,32,75,1,,5f573b18a6a8b51a94fdbd08,62c5388dc05c36cbf9f6d3ff,2022-07-06_02h42.51.219,Colour_Asymmetry_Pilot,2022.1.3,Win32,11.99630514,62c50e9c1127f2cd403a315f,,,,,,,,,,,,,,,,,,,,,,,,,,,,,,,,,,,,,,,,,,,,,,,,,,,,,,,,,,,,,,,,,,,,,,,,,,,,,,,,,,,,,,,,,,,,,,,,,,,,,,,,,,,,,,,,,,,,,,,,,,,,,,,,,,,,,,,,,,,,,,,,,,,,,,,,,,,,,,,,,,,
0,33,33,58,1,,5f573b18a6a8b51a94fdbd08,62c5388dc05c36cbf9f6d3ff,2022-07-06_02h42.51.219,Colour_Asymmetry_Pilot,2022.1.3,Win32,11.99630514,62c50e9c1127f2cd403a315f,,,,,,,,,,,,,,,,,,,,,,,,,,,,,,,,,,,,,,,,,,,,,,,,,,,,,,,,,,,,,,,,,,,,,,,,,,,,,,,,,,,,,,,,,,,,,,,,,,,,,,,,,,,,,,,,,,,,,,,,,,,,,,,,,,,,,,,,,,,,,,,,,,,,,,,,,,,,,,,,,,,
0,34,34,5,1,,5f573b18a6a8b51a94fdbd08,62c5388dc05c36cbf9f6d3ff,2022-07-06_02h42.51.219,Colour_Asymmetry_Pilot,2022.1.3,Win32,11.99630514,62c50e9c1127f2cd403a315f,,,,,,,,,,,,,,,,,,,,,,,,,,,,,,,,,,,,,,,,,,,,,,,,,,,,,,,,,,,,,,,,,,,,,,,,,,,,,,,,,,,,,,,,,,,,,,,,,,,,,,,,,,,,,,,,,,,,,,,,,,,,,,,,,,,,,,,,,,,,,,,,,,,,,,,,,,,,,,,,,,,
0,35,35,35,1,,5f573b18a6a8b51a94fdbd08,62c5388dc05c36cbf9f6d3ff,2022-07-06_02h42.51.219,Colour_Asymmetry_Pilot,2022.1.3,Win32,11.99630514,62c50e9c1127f2cd403a315f,,,,,,,,,,,,,,,,,,,,,,,,,,,,,,,,,,,,,,,,,,,,,,,,,,,,,,,,,,,,,,,,,,,,,,,,,,,,,,,,,,,,,,,,,,,,,,,,,,,,,,,,,,,,,,,,,,,,,,,,,,,,,,,,,,,,,,,,,,,,,,,,,,,,,,,,,,,,,,,,,,,
0,36,36,7,1,,5f573b18a6a8b51a94fdbd08,62c5388dc05c36cbf9f6d3ff,2022-07-06_02h42.51.219,Colour_Asymmetry_Pilot,2022.1.3,Win32,11.99630514,62c50e9c1127f2cd403a315f,,,,,,,,,,,,,,,,,,,,,,,,,,,,,,,,,,,,,,,,,,,,,,,,,,,,,,,,,,,,,,,,,,,,,,,,,,,,,,,,,,,,,,,,,,,,,,,,,,,,,,,,,,,,,,,,,,,,,,,,,,,,,,,,,,,,,,,,,,,,,,,,,,,,,,,,,,,,,,,,,,,
0,37,37,2,1,,5f573b18a6a8b51a94fdbd08,62c5388dc05c36cbf9f6d3ff,2022-07-06_02h42.51.219,Colour_Asymmetry_Pilot,2022.1.3,Win32,11.99630514,62c50e9c1127f2cd403a315f,,,,,,,,,,,,,,,,,,,,,,,,,,,,,,,,,,,,,,,,,,,,,,,,,,,,,,,,,,,,,,,,,,,,,,,,,,,,,,,,,,,,,,,,,,,,,,,,,,,,,,,,,,,,,,,,,,,,,,,,,,,,,,,,,,,,,,,,,,,,,,,,,,,,,,,,,,,,,,,,,,,
0,38,38,50,1,,5f573b18a6a8b51a94fdbd08,62c5388dc05c36cbf9f6d3ff,2022-07-06_02h42.51.219,Colour_Asymmetry_Pilot,2022.1.3,Win32,11.99630514,62c50e9c1127f2cd403a315f,,,,,,,,,,,,,,,,,,,,,,,,,,,,,,,,,,,,,,,,,,,,,,,,,,,,,,,,,,,,,,,,,,,,,,,,,,,,,,,,,,,,,,,,,,,,,,,,,,,,,,,,,,,,,,,,,,,,,,,,,,,,,,,,,,,,,,,,,,,,,,,,,,,,,,,,,,,,,,,,,,,
0,39,39,33,1,,5f573b18a6a8b51a94fdbd08,62c5388dc05c36cbf9f6d3ff,2022-07-06_02h42.51.219,Colour_Asymmetry_Pilot,2022.1.3,Win32,11.99630514,62c50e9c1127f2cd403a315f,,,,,,,,,,,,,,,,,,,,,,,,,,,,,,,,,,,,,,,,,,,,,,,,,,,,,,,,,,,,,,,,,,,,,,,,,,,,,,,,,,,,,,,,,,,,,,,,,,,,,,,,,,,,,,,,,,,,,,,,,,,,,,,,,,,,,,,,,,,,,,,,,,,,,,,,,,,,,,,,,,,
0,40,40,71,1,,5f573b18a6a8b51a94fdbd08,62c5388dc05c36cbf9f6d3ff,2022-07-06_02h42.51.219,Colour_Asymmetry_Pilot,2022.1.3,Win32,11.99630514,62c50e9c1127f2cd403a315f,,,,,,,,,,,,,,,,,,,,,,,,,,,,,,,,,,,,,,,,,,,,,,,,,,,,,,,,,,,,,,,,,,,,,,,,,,,,,,,,,,,,,,,,,,,,,,,,,,,,,,,,,,,,,,,,,,,,,,,,,,,,,,,,,,,,,,,,,,,,,,,,,,,,,,,,,,,,,,,,,,,
0,41,41,38,1,,5f573b18a6a8b51a94fdbd08,62c5388dc05c36cbf9f6d3ff,2022-07-06_02h42.51.219,Colour_Asymmetry_Pilot,2022.1.3,Win32,11.99630514,62c50e9c1127f2cd403a315f,,,,,,,,,,,,,,,,,,,,,,,,,,,,,,,,,,,,,,,,,,,,,,,,,,,,,,,,,,,,,,,,,,,,,,,,,,,,,,,,,,,,,,,,,,,,,,,,,,,,,,,,,,,,,,,,,,,,,,,,,,,,,,,,,,,,,,,,,,,,,,,,,,,,,,,,,,,,,,,,,,,
0,42,42,61,1,,5f573b18a6a8b51a94fdbd08,62c5388dc05c36cbf9f6d3ff,2022-07-06_02h42.51.219,Colour_Asymmetry_Pilot,2022.1.3,Win32,11.99630514,62c50e9c1127f2cd403a315f,,,,,,,,,,,,,,,,,,,,,,,,,,,,,,,,,,,,,,,,,,,,,,,,,,,,,,,,,,,,,,,,,,,,,,,,,,,,,,,,,,,,,,,,,,,,,,,,,,,,,,,,,,,,,,,,,,,,,,,,,,,,,,,,,,,,,,,,,,,,,,,,,,,,,,,,,,,,,,,,,,,
0,43,43,40,1,,5f573b18a6a8b51a94fdbd08,62c5388dc05c36cbf9f6d3ff,2022-07-06_02h42.51.219,Colour_Asymmetry_Pilot,2022.1.3,Win32,11.99630514,62c50e9c1127f2cd403a315f,,,,,,,,,,,,,,,,,,,,,,,,,,,,,,,,,,,,,,,,,,,,,,,,,,,,,,,,,,,,,,,,,,,,,,,,,,,,,,,,,,,,,,,,,,,,,,,,,,,,,,,,,,,,,,,,,,,,,,,,,,,,,,,,,,,,,,,,,,,,,,,,,,,,,,,,,,,,,,,,,,,
0,44,44,56,1,,5f573b18a6a8b51a94fdbd08,62c5388dc05c36cbf9f6d3ff,2022-07-06_02h42.51.219,Colour_Asymmetry_Pilot,2022.1.3,Win32,11.99630514,62c50e9c1127f2cd403a315f,,,,,,,,,,,,,,,,,,,,,,,,,,,,,,,,,,,,,,,,,,,,,,,,,,,,,,,,,,,,,,,,,,,,,,,,,,,,,,,,,,,,,,,,,,,,,,,,,,,,,,,,,,,,,,,,,,,,,,,,,,,,,,,,,,,,,,,,,,,,,,,,,,,,,,,,,,,,,,,,,,,
0,45,45,13,1,,5f573b18a6a8b51a94fdbd08,62c5388dc05c36cbf9f6d3ff,2022-07-06_02h42.51.219,Colour_Asymmetry_Pilot,2022.1.3,Win32,11.99630514,62c50e9c1127f2cd403a315f,,,,,,,,,,,,,,,,,,,,,,,,,,,,,,,,,,,,,,,,,,,,,,,,,,,,,,,,,,,,,,,,,,,,,,,,,,,,,,,,,,,,,,,,,,,,,,,,,,,,,,,,,,,,,,,,,,,,,,,,,,,,,,,,,,,,,,,,,,,,,,,,,,,,,,,,,,,,,,,,,,,
0,46,46,1,1,,5f573b18a6a8b51a94fdbd08,62c5388dc05c36cbf9f6d3ff,2022-07-06_02h42.51.219,Colour_Asymmetry_Pilot,2022.1.3,Win32,11.99630514,62c50e9c1127f2cd403a315f,,,,,,,,,,,,,,,,,,,,,,,,,,,,,,,,,,,,,,,,,,,,,,,,,,,,,,,,,,,,,,,,,,,,,,,,,,,,,,,,,,,,,,,,,,,,,,,,,,,,,,,,,,,,,,,,,,,,,,,,,,,,,,,,,,,,,,,,,,,,,,,,,,,,,,,,,,,,,,,,,,,
0,47,47,4,1,,5f573b18a6a8b51a94fdbd08,62c5388dc05c36cbf9f6d3ff,2022-07-06_02h42.51.219,Colour_Asymmetry_Pilot,2022.1.3,Win32,11.99630514,62c50e9c1127f2cd403a315f,,,,,,,,,,,,,,,,,,,,,,,,,,,,,,,,,,,,,,,,,,,,,,,,,,,,,,,,,,,,,,,,,,,,,,,,,,,,,,,,,,,,,,,,,,,,,,,,,,,,,,,,,,,,,,,,,,,,,,,,,,,,,,,,,,,,,,,,,,,,,,,,,,,,,,,,,,,,,,,,,,,
0,48,48,80,1,,5f573b18a6a8b51a94fdbd08,62c5388dc05c36cbf9f6d3ff,2022-07-06_02h42.51.219,Colour_Asymmetry_Pilot,2022.1.3,Win32,11.99630514,62c50e9c1127f2cd403a315f,,,,,,,,,,,,,,,,,,,,,,,,,,,,,,,,,,,,,,,,,,,,,,,,,,,,,,,,,,,,,,,,,,,,,,,,,,,,,,,,,,,,,,,,,,,,,,,,,,,,,,,,,,,,,,,,,,,,,,,,,,,,,,,,,,,,,,,,,,,,,,,,,,,,,,,,,,,,,,,,,,,
0,49,49,48,1,,5f573b18a6a8b51a94fdbd08,62c5388dc05c36cbf9f6d3ff,2022-07-06_02h42.51.219,Colour_Asymmetry_Pilot,2022.1.3,Win32,11.99630514,62c50e9c1127f2cd403a315f,,,,,,,,,,,,,,,,,,,,,,,,,,,,,,,,,,,,,,,,,,,,,,,,,,,,,,,,,,,,,,,,,,,,,,,,,,,,,,,,,,,,,,,,,,,,,,,,,,,,,,,,,,,,,,,,,,,,,,,,,,,,,,,,,,,,,,,,,,,,,,,,,,,,,,,,,,,,,,,,,,,
0,50,50,91,1,,5f573b18a6a8b51a94fdbd08,62c5388dc05c36cbf9f6d3ff,2022-07-06_02h42.51.219,Colour_Asymmetry_Pilot,2022.1.3,Win32,11.99630514,62c50e9c1127f2cd403a315f,,,,,,,,,,,,,,,,,,,,,,,,,,,,,,,,,,,,,,,,,,,,,,,,,,,,,,,,,,,,,,,,,,,,,,,,,,,,,,,,,,,,,,,,,,,,,,,,,,,,,,,,,,,,,,,,,,,,,,,,,,,,,,,,,,,,,,,,,,,,,,,,,,,,,,,,,,,,,,,,,,,
0,51,51,31,1,,5f573b18a6a8b51a94fdbd08,62c5388dc05c36cbf9f6d3ff,2022-07-06_02h42.51.219,Colour_Asymmetry_Pilot,2022.1.3,Win32,11.99630514,62c50e9c1127f2cd403a315f,,,,,,,,,,,,,,,,,,,,,,,,,,,,,,,,,,,,,,,,,,,,,,,,,,,,,,,,,,,,,,,,,,,,,,,,,,,,,,,,,,,,,,,,,,,,,,,,,,,,,,,,,,,,,,,,,,,,,,,,,,,,,,,,,,,,,,,,,,,,,,,,,,,,,,,,,,,,,,,,,,,
0,52,52,77,1,,5f573b18a6a8b51a94fdbd08,62c5388dc05c36cbf9f6d3ff,2022-07-06_02h42.51.219,Colour_Asymmetry_Pilot,2022.1.3,Win32,11.99630514,62c50e9c1127f2cd403a315f,,,,,,,,,,,,,,,,,,,,,,,,,,,,,,,,,,,,,,,,,,,,,,,,,,,,,,,,,,,,,,,,,,,,,,,,,,,,,,,,,,,,,,,,,,,,,,,,,,,,,,,,,,,,,,,,,,,,,,,,,,,,,,,,,,,,,,,,,,,,,,,,,,,,,,,,,,,,,,,,,,,
0,53,53,59,1,,5f573b18a6a8b51a94fdbd08,62c5388dc05c36cbf9f6d3ff,2022-07-06_02h42.51.219,Colour_Asymmetry_Pilot,2022.1.3,Win32,11.99630514,62c50e9c1127f2cd403a315f,,,,,,,,,,,,,,,,,,,,,,,,,,,,,,,,,,,,,,,,,,,,,,,,,,,,,,,,,,,,,,,,,,,,,,,,,,,,,,,,,,,,,,,,,,,,,,,,,,,,,,,,,,,,,,,,,,,,,,,,,,,,,,,,,,,,,,,,,,,,,,,,,,,,,,,,,,,,,,,,,,,
0,54,54,74,1,,5f573b18a6a8b51a94fdbd08,62c5388dc05c36cbf9f6d3ff,2022-07-06_02h42.51.219,Colour_Asymmetry_Pilot,2022.1.3,Win32,11.99630514,62c50e9c1127f2cd403a315f,,,,,,,,,,,,,,,,,,,,,,,,,,,,,,,,,,,,,,,,,,,,,,,,,,,,,,,,,,,,,,,,,,,,,,,,,,,,,,,,,,,,,,,,,,,,,,,,,,,,,,,,,,,,,,,,,,,,,,,,,,,,,,,,,,,,,,,,,,,,,,,,,,,,,,,,,,,,,,,,,,,
0,55,55,27,1,,5f573b18a6a8b51a94fdbd08,62c5388dc05c36cbf9f6d3ff,2022-07-06_02h42.51.219,Colour_Asymmetry_Pilot,2022.1.3,Win32,11.99630514,62c50e9c1127f2cd403a315f,,,,,,,,,,,,,,,,,,,,,,,,,,,,,,,,,,,,,,,,,,,,,,,,,,,,,,,,,,,,,,,,,,,,,,,,,,,,,,,,,,,,,,,,,,,,,,,,,,,,,,,,,,,,,,,,,,,,,,,,,,,,,,,,,,,,,,,,,,,,,,,,,,,,,,,,,,,,,,,,,,,
0,56,56,37,1,,5f573b18a6a8b51a94fdbd08,62c5388dc05c36cbf9f6d3ff,2022-07-06_02h42.51.219,Colour_Asymmetry_Pilot,2022.1.3,Win32,11.99630514,62c50e9c1127f2cd403a315f,,,,,,,,,,,,,,,,,,,,,,,,,,,,,,,,,,,,,,,,,,,,,,,,,,,,,,,,,,,,,,,,,,,,,,,,,,,,,,,,,,,,,,,,,,,,,,,,,,,,,,,,,,,,,,,,,,,,,,,,,,,,,,,,,,,,,,,,,,,,,,,,,,,,,,,,,,,,,,,,,,,
0,57,57,85,1,,5f573b18a6a8b51a94fdbd08,62c5388dc05c36cbf9f6d3ff,2022-07-06_02h42.51.219,Colour_Asymmetry_Pilot,2022.1.3,Win32,11.99630514,62c50e9c1127f2cd403a315f,,,,,,,,,,,,,,,,,,,,,,,,,,,,,,,,,,,,,,,,,,,,,,,,,,,,,,,,,,,,,,,,,,,,,,,,,,,,,,,,,,,,,,,,,,,,,,,,,,,,,,,,,,,,,,,,,,,,,,,,,,,,,,,,,,,,,,,,,,,,,,,,,,,,,,,,,,,,,,,,,,,
0,58,58,8,1,,5f573b18a6a8b51a94fdbd08,62c5388dc05c36cbf9f6d3ff,2022-07-06_02h42.51.219,Colour_Asymmetry_Pilot,2022.1.3,Win32,11.99630514,62c50e9c1127f2cd403a315f,,,,,,,,,,,,,,,,,,,,,,,,,,,,,,,,,,,,,,,,,,,,,,,,,,,,,,,,,,,,,,,,,,,,,,,,,,,,,,,,,,,,,,,,,,,,,,,,,,,,,,,,,,,,,,,,,,,,,,,,,,,,,,,,,,,,,,,,,,,,,,,,,,,,,,,,,,,,,,,,,,,
0,59,59,69,1,,5f573b18a6a8b51a94fdbd08,62c5388dc05c36cbf9f6d3ff,2022-07-06_02h42.51.219,Colour_Asymmetry_Pilot,2022.1.3,Win32,11.99630514,62c50e9c1127f2cd403a315f,,,,,,,,,,,,,,,,,,,,,,,,,,,,,,,,,,,,,,,,,,,,,,,,,,,,,,,,,,,,,,,,,,,,,,,,,,,,,,,,,,,,,,,,,,,,,,,,,,,,,,,,,,,,,,,,,,,,,,,,,,,,,,,,,,,,,,,,,,,,,,,,,,,,,,,,,,,,,,,,,,,
0,60,60,3,1,,5f573b18a6a8b51a94fdbd08,62c5388dc05c36cbf9f6d3ff,2022-07-06_02h42.51.219,Colour_Asymmetry_Pilot,2022.1.3,Win32,11.99630514,62c50e9c1127f2cd403a315f,,,,,,,,,,,,,,,,,,,,,,,,,,,,,,,,,,,,,,,,,,,,,,,,,,,,,,,,,,,,,,,,,,,,,,,,,,,,,,,,,,,,,,,,,,,,,,,,,,,,,,,,,,,,,,,,,,,,,,,,,,,,,,,,,,,,,,,,,,,,,,,,,,,,,,,,,,,,,,,,,,,
0,61,61,26,1,,5f573b18a6a8b51a94fdbd08,62c5388dc05c36cbf9f6d3ff,2022-07-06_02h42.51.219,Colour_Asymmetry_Pilot,2022.1.3,Win32,11.99630514,62c50e9c1127f2cd403a315f,,,,,,,,,,,,,,,,,,,,,,,,,,,,,,,,,,,,,,,,,,,,,,,,,,,,,,,,,,,,,,,,,,,,,,,,,,,,,,,,,,,,,,,,,,,,,,,,,,,,,,,,,,,,,,,,,,,,,,,,,,,,,,,,,,,,,,,,,,,,,,,,,,,,,,,,,,,,,,,,,,,
0,62,62,17,1,,5f573b18a6a8b51a94fdbd08,62c5388dc05c36cbf9f6d3ff,2022-07-06_02h42.51.219,Colour_Asymmetry_Pilot,2022.1.3,Win32,11.99630514,62c50e9c1127f2cd403a315f,,,,,,,,,,,,,,,,,,,,,,,,,,,,,,,,,,,,,,,,,,,,,,,,,,,,,,,,,,,,,,,,,,,,,,,,,,,,,,,,,,,,,,,,,,,,,,,,,,,,,,,,,,,,,,,,,,,,,,,,,,,,,,,,,,,,,,,,,,,,,,,,,,,,,,,,,,,,,,,,,,,
0,63,63,86,1,,5f573b18a6a8b51a94fdbd08,62c5388dc05c36cbf9f6d3ff,2022-07-06_02h42.51.219,Colour_Asymmetry_Pilot,2022.1.3,Win32,11.99630514,62c50e9c1127f2cd403a315f,,,,,,,,,,,,,,,,,,,,,,,,,,,,,,,,,,,,,,,,,,,,,,,,,,,,,,,,,,,,,,,,,,,,,,,,,,,,,,,,,,,,,,,,,,,,,,,,,,,,,,,,,,,,,,,,,,,,,,,,,,,,,,,,,,,,,,,,,,,,,,,,,,,,,,,,,,,,,,,,,,,
0,64,64,11,1,,5f573b18a6a8b51a94fdbd08,62c5388dc05c36cbf9f6d3ff,2022-07-06_02h42.51.219,Colour_Asymmetry_Pilot,2022.1.3,Win32,11.99630514,62c50e9c1127f2cd403a315f,,,,,,,,,,,,,,,,,,,,,,,,,,,,,,,,,,,,,,,,,,,,,,,,,,,,,,,,,,,,,,,,,,,,,,,,,,,,,,,,,,,,,,,,,,,,,,,,,,,,,,,,,,,,,,,,,,,,,,,,,,,,,,,,,,,,,,,,,,,,,,,,,,,,,,,,,,,,,,,,,,,
0,65,65,12,1,,5f573b18a6a8b51a94fdbd08,62c5388dc05c36cbf9f6d3ff,2022-07-06_02h42.51.219,Colour_Asymmetry_Pilot,2022.1.3,Win32,11.99630514,62c50e9c1127f2cd403a315f,,,,,,,,,,,,,,,,,,,,,,,,,,,,,,,,,,,,,,,,,,,,,,,,,,,,,,,,,,,,,,,,,,,,,,,,,,,,,,,,,,,,,,,,,,,,,,,,,,,,,,,,,,,,,,,,,,,,,,,,,,,,,,,,,,,,,,,,,,,,,,,,,,,,,,,,,,,,,,,,,,,
0,66,66,23,1,,5f573b18a6a8b51a94fdbd08,62c5388dc05c36cbf9f6d3ff,2022-07-06_02h42.51.219,Colour_Asymmetry_Pilot,2022.1.3,Win32,11.99630514,62c50e9c1127f2cd403a315f,,,,,,,,,,,,,,,,,,,,,,,,,,,,,,,,,,,,,,,,,,,,,,,,,,,,,,,,,,,,,,,,,,,,,,,,,,,,,,,,,,,,,,,,,,,,,,,,,,,,,,,,,,,,,,,,,,,,,,,,,,,,,,,,,,,,,,,,,,,,,,,,,,,,,,,,,,,,,,,,,,,
0,67,67,47,1,,5f573b18a6a8b51a94fdbd08,62c5388dc05c36cbf9f6d3ff,2022-07-06_02h42.51.219,Colour_Asymmetry_Pilot,2022.1.3,Win32,11.99630514,62c50e9c1127f2cd403a315f,,,,,,,,,,,,,,,,,,,,,,,,,,,,,,,,,,,,,,,,,,,,,,,,,,,,,,,,,,,,,,,,,,,,,,,,,,,,,,,,,,,,,,,,,,,,,,,,,,,,,,,,,,,,,,,,,,,,,,,,,,,,,,,,,,,,,,,,,,,,,,,,,,,,,,,,,,,,,,,,,,,
0,68,68,70,1,,5f573b18a6a8b51a94fdbd08,62c5388dc05c36cbf9f6d3ff,2022-07-06_02h42.51.219,Colour_Asymmetry_Pilot,2022.1.3,Win32,11.99630514,62c50e9c1127f2cd403a315f,,,,,,,,,,,,,,,,,,,,,,,,,,,,,,,,,,,,,,,,,,,,,,,,,,,,,,,,,,,,,,,,,,,,,,,,,,,,,,,,,,,,,,,,,,,,,,,,,,,,,,,,,,,,,,,,,,,,,,,,,,,,,,,,,,,,,,,,,,,,,,,,,,,,,,,,,,,,,,,,,,,
0,69,69,82,1,,5f573b18a6a8b51a94fdbd08,62c5388dc05c36cbf9f6d3ff,2022-07-06_02h42.51.219,Colour_Asymmetry_Pilot,2022.1.3,Win32,11.99630514,62c50e9c1127f2cd403a315f,,,,,,,,,,,,,,,,,,,,,,,,,,,,,,,,,,,,,,,,,,,,,,,,,,,,,,,,,,,,,,,,,,,,,,,,,,,,,,,,,,,,,,,,,,,,,,,,,,,,,,,,,,,,,,,,,,,,,,,,,,,,,,,,,,,,,,,,,,,,,,,,,,,,,,,,,,,,,,,,,,,
0,70,70,68,1,,5f573b18a6a8b51a94fdbd08,62c5388dc05c36cbf9f6d3ff,2022-07-06_02h42.51.219,Colour_Asymmetry_Pilot,2022.1.3,Win32,11.99630514,62c50e9c1127f2cd403a315f,,,,,,,,,,,,,,,,,,,,,,,,,,,,,,,,,,,,,,,,,,,,,,,,,,,,,,,,,,,,,,,,,,,,,,,,,,,,,,,,,,,,,,,,,,,,,,,,,,,,,,,,,,,,,,,,,,,,,,,,,,,,,,,,,,,,,,,,,,,,,,,,,,,,,,,,,,,,,,,,,,,
0,71,71,62,1,,5f573b18a6a8b51a94fdbd08,62c5388dc05c36cbf9f6d3ff,2022-07-06_02h42.51.219,Colour_Asymmetry_Pilot,2022.1.3,Win32,11.99630514,62c50e9c1127f2cd403a315f,,,,,,,,,,,,,,,,,,,,,,,,,,,,,,,,,,,,,,,,,,,,,,,,,,,,,,,,,,,,,,,,,,,,,,,,,,,,,,,,,,,,,,,,,,,,,,,,,,,,,,,,,,,,,,,,,,,,,,,,,,,,,,,,,,,,,,,,,,,,,,,,,,,,,,,,,,,,,,,,,,,
0,72,72,16,1,,5f573b18a6a8b51a94fdbd08,62c5388dc05c36cbf9f6d3ff,2022-07-06_02h42.51.219,Colour_Asymmetry_Pilot,2022.1.3,Win32,11.99630514,62c50e9c1127f2cd403a315f,,,,,,,,,,,,,,,,,,,,,,,,,,,,,,,,,,,,,,,,,,,,,,,,,,,,,,,,,,,,,,,,,,,,,,,,,,,,,,,,,,,,,,,,,,,,,,,,,,,,,,,,,,,,,,,,,,,,,,,,,,,,,,,,,,,,,,,,,,,,,,,,,,,,,,,,,,,,,,,,,,,
0,73,73,14,1,,5f573b18a6a8b51a94fdbd08,62c5388dc05c36cbf9f6d3ff,2022-07-06_02h42.51.219,Colour_Asymmetry_Pilot,2022.1.3,Win32,11.99630514,62c50e9c1127f2cd403a315f,,,,,,,,,,,,,,,,,,,,,,,,,,,,,,,,,,,,,,,,,,,,,,,,,,,,,,,,,,,,,,,,,,,,,,,,,,,,,,,,,,,,,,,,,,,,,,,,,,,,,,,,,,,,,,,,,,,,,,,,,,,,,,,,,,,,,,,,,,,,,,,,,,,,,,,,,,,,,,,,,,,
0,74,74,79,1,,5f573b18a6a8b51a94fdbd08,62c5388dc05c36cbf9f6d3ff,2022-07-06_02h42.51.219,Colour_Asymmetry_Pilot,2022.1.3,Win32,11.99630514,62c50e9c1127f2cd403a315f,,,,,,,,,,,,,,,,,,,,,,,,,,,,,,,,,,,,,,,,,,,,,,,,,,,,,,,,,,,,,,,,,,,,,,,,,,,,,,,,,,,,,,,,,,,,,,,,,,,,,,,,,,,,,,,,,,,,,,,,,,,,,,,,,,,,,,,,,,,,,,,,,,,,,,,,,,,,,,,,,,,
0,75,75,89,1,,5f573b18a6a8b51a94fdbd08,62c5388dc05c36cbf9f6d3ff,2022-07-06_02h42.51.219,Colour_Asymmetry_Pilot,2022.1.3,Win32,11.99630514,62c50e9c1127f2cd403a315f,,,,,,,,,,,,,,,,,,,,,,,,,,,,,,,,,,,,,,,,,,,,,,,,,,,,,,,,,,,,,,,,,,,,,,,,,,,,,,,,,,,,,,,,,,,,,,,,,,,,,,,,,,,,,,,,,,,,,,,,,,,,,,,,,,,,,,,,,,,,,,,,,,,,,,,,,,,,,,,,,,,
0,76,76,18,1,,5f573b18a6a8b51a94fdbd08,62c5388dc05c36cbf9f6d3ff,2022-07-06_02h42.51.219,Colour_Asymmetry_Pilot,2022.1.3,Win32,11.99630514,62c50e9c1127f2cd403a315f,,,,,,,,,,,,,,,,,,,,,,,,,,,,,,,,,,,,,,,,,,,,,,,,,,,,,,,,,,,,,,,,,,,,,,,,,,,,,,,,,,,,,,,,,,,,,,,,,,,,,,,,,,,,,,,,,,,,,,,,,,,,,,,,,,,,,,,,,,,,,,,,,,,,,,,,,,,,,,,,,,,
0,77,77,57,1,,5f573b18a6a8b51a94fdbd08,62c5388dc05c36cbf9f6d3ff,2022-07-06_02h42.51.219,Colour_Asymmetry_Pilot,2022.1.3,Win32,11.99630514,62c50e9c1127f2cd403a315f,,,,,,,,,,,,,,,,,,,,,,,,,,,,,,,,,,,,,,,,,,,,,,,,,,,,,,,,,,,,,,,,,,,,,,,,,,,,,,,,,,,,,,,,,,,,,,,,,,,,,,,,,,,,,,,,,,,,,,,,,,,,,,,,,,,,,,,,,,,,,,,,,,,,,,,,,,,,,,,,,,,
0,78,78,67,1,,5f573b18a6a8b51a94fdbd08,62c5388dc05c36cbf9f6d3ff,2022-07-06_02h42.51.219,Colour_Asymmetry_Pilot,2022.1.3,Win32,11.99630514,62c50e9c1127f2cd403a315f,,,,,,,,,,,,,,,,,,,,,,,,,,,,,,,,,,,,,,,,,,,,,,,,,,,,,,,,,,,,,,,,,,,,,,,,,,,,,,,,,,,,,,,,,,,,,,,,,,,,,,,,,,,,,,,,,,,,,,,,,,,,,,,,,,,,,,,,,,,,,,,,,,,,,,,,,,,,,,,,,,,
0,79,79,42,1,,5f573b18a6a8b51a94fdbd08,62c5388dc05c36cbf9f6d3ff,2022-07-06_02h42.51.219,Colour_Asymmetry_Pilot,2022.1.3,Win32,11.99630514,62c50e9c1127f2cd403a315f,,,,,,,,,,,,,,,,,,,,,,,,,,,,,,,,,,,,,,,,,,,,,,,,,,,,,,,,,,,,,,,,,,,,,,,,,,,,,,,,,,,,,,,,,,,,,,,,,,,,,,,,,,,,,,,,,,,,,,,,,,,,,,,,,,,,,,,,,,,,,,,,,,,,,,,,,,,,,,,,,,,
0,80,80,19,1,,5f573b18a6a8b51a94fdbd08,62c5388dc05c36cbf9f6d3ff,2022-07-06_02h42.51.219,Colour_Asymmetry_Pilot,2022.1.3,Win32,11.99630514,62c50e9c1127f2cd403a315f,,,,,,,,,,,,,,,,,,,,,,,,,,,,,,,,,,,,,,,,,,,,,,,,,,,,,,,,,,,,,,,,,,,,,,,,,,,,,,,,,,,,,,,,,,,,,,,,,,,,,,,,,,,,,,,,,,,,,,,,,,,,,,,,,,,,,,,,,,,,,,,,,,,,,,,,,,,,,,,,,,,
0,81,81,87,1,,5f573b18a6a8b51a94fdbd08,62c5388dc05c36cbf9f6d3ff,2022-07-06_02h42.51.219,Colour_Asymmetry_Pilot,2022.1.3,Win32,11.99630514,62c50e9c1127f2cd403a315f,,,,,,,,,,,,,,,,,,,,,,,,,,,,,,,,,,,,,,,,,,,,,,,,,,,,,,,,,,,,,,,,,,,,,,,,,,,,,,,,,,,,,,,,,,,,,,,,,,,,,,,,,,,,,,,,,,,,,,,,,,,,,,,,,,,,,,,,,,,,,,,,,,,,,,,,,,,,,,,,,,,
0,82,82,30,1,,5f573b18a6a8b51a94fdbd08,62c5388dc05c36cbf9f6d3ff,2022-07-06_02h42.51.219,Colour_Asymmetry_Pilot,2022.1.3,Win32,11.99630514,62c50e9c1127f2cd403a315f,,,,,,,,,,,,,,,,,,,,,,,,,,,,,,,,,,,,,,,,,,,,,,,,,,,,,,,,,,,,,,,,,,,,,,,,,,,,,,,,,,,,,,,,,,,,,,,,,,,,,,,,,,,,,,,,,,,,,,,,,,,,,,,,,,,,,,,,,,,,,,,,,,,,,,,,,,,,,,,,,,,
0,83,83,45,1,,5f573b18a6a8b51a94fdbd08,62c5388dc05c36cbf9f6d3ff,2022-07-06_02h42.51.219,Colour_Asymmetry_Pilot,2022.1.3,Win32,11.99630514,62c50e9c1127f2cd403a315f,,,,,,,,,,,,,,,,,,,,,,,,,,,,,,,,,,,,,,,,,,,,,,,,,,,,,,,,,,,,,,,,,,,,,,,,,,,,,,,,,,,,,,,,,,,,,,,,,,,,,,,,,,,,,,,,,,,,,,,,,,,,,,,,,,,,,,,,,,,,,,,,,,,,,,,,,,,,,,,,,,,
0,84,84,63,1,,5f573b18a6a8b51a94fdbd08,62c5388dc05c36cbf9f6d3ff,2022-07-06_02h42.51.219,Colour_Asymmetry_Pilot,2022.1.3,Win32,11.99630514,62c50e9c1127f2cd403a315f,,,,,,,,,,,,,,,,,,,,,,,,,,,,,,,,,,,,,,,,,,,,,,,,,,,,,,,,,,,,,,,,,,,,,,,,,,,,,,,,,,,,,,,,,,,,,,,,,,,,,,,,,,,,,,,,,,,,,,,,,,,,,,,,,,,,,,,,,,,,,,,,,,,,,,,,,,,,,,,,,,,
0,85,85,92,1,,5f573b18a6a8b51a94fdbd08,62c5388dc05c36cbf9f6d3ff,2022-07-06_02h42.51.219,Colour_Asymmetry_Pilot,2022.1.3,Win32,11.99630514,62c50e9c1127f2cd403a315f,,,,,,,,,,,,,,,,,,,,,,,,,,,,,,,,,,,,,,,,,,,,,,,,,,,,,,,,,,,,,,,,,,,,,,,,,,,,,,,,,,,,,,,,,,,,,,,,,,,,,,,,,,,,,,,,,,,,,,,,,,,,,,,,,,,,,,,,,,,,,,,,,,,,,,,,,,,,,,,,,,,
0,86,86,52,1,,5f573b18a6a8b51a94fdbd08,62c5388dc05c36cbf9f6d3ff,2022-07-06_02h42.51.219,Colour_Asymmetry_Pilot,2022.1.3,Win32,11.99630514,62c50e9c1127f2cd403a315f,,,,,,,,,,,,,,,,,,,,,,,,,,,,,,,,,,,,,,,,,,,,,,,,,,,,,,,,,,,,,,,,,,,,,,,,,,,,,,,,,,,,,,,,,,,,,,,,,,,,,,,,,,,,,,,,,,,,,,,,,,,,,,,,,,,,,,,,,,,,,,,,,,,,,,,,,,,,,,,,,,,
0,87,87,60,1,,5f573b18a6a8b51a94fdbd08,62c5388dc05c36cbf9f6d3ff,2022-07-06_02h42.51.219,Colour_Asymmetry_Pilot,2022.1.3,Win32,11.99630514,62c50e9c1127f2cd403a315f,,,,,,,,,,,,,,,,,,,,,,,,,,,,,,,,,,,,,,,,,,,,,,,,,,,,,,,,,,,,,,,,,,,,,,,,,,,,,,,,,,,,,,,,,,,,,,,,,,,,,,,,,,,,,,,,,,,,,,,,,,,,,,,,,,,,,,,,,,,,,,,,,,,,,,,,,,,,,,,,,,,
0,88,88,81,1,,5f573b18a6a8b51a94fdbd08,62c5388dc05c36cbf9f6d3ff,2022-07-06_02h42.51.219,Colour_Asymmetry_Pilot,2022.1.3,Win32,11.99630514,62c50e9c1127f2cd403a315f,,,,,,,,,,,,,,,,,,,,,,,,,,,,,,,,,,,,,,,,,,,,,,,,,,,,,,,,,,,,,,,,,,,,,,,,,,,,,,,,,,,,,,,,,,,,,,,,,,,,,,,,,,,,,,,,,,,,,,,,,,,,,,,,,,,,,,,,,,,,,,,,,,,,,,,,,,,,,,,,,,,
0,89,89,22,1,,5f573b18a6a8b51a94fdbd08,62c5388dc05c36cbf9f6d3ff,2022-07-06_02h42.51.219,Colour_Asymmetry_Pilot,2022.1.3,Win32,11.99630514,62c50e9c1127f2cd403a315f,,,,,,,,,,,,,,,,,,,,,,,,,,,,,,,,,,,,,,,,,,,,,,,,,,,,,,,,,,,,,,,,,,,,,,,,,,,,,,,,,,,,,,,,,,,,,,,,,,,,,,,,,,,,,,,,,,,,,,,,,,,,,,,,,,,,,,,,,,,,,,,,,,,,,,,,,,,,,,,,,,,
0,90,90,76,1,,5f573b18a6a8b51a94fdbd08,62c5388dc05c36cbf9f6d3ff,2022-07-06_02h42.51.219,Colour_Asymmetry_Pilot,2022.1.3,Win32,11.99630514,62c50e9c1127f2cd403a315f,,,,,,,,,,,,,,,,,,,,,,,,,,,,,,,,,,,,,,,,,,,,,,,,,,,,,,,,,,,,,,,,,,,,,,,,,,,,,,,,,,,,,,,,,,,,,,,,,,,,,,,,,,,,,,,,,,,,,,,,,,,,,,,,,,,,,,,,,,,,,,,,,,,,,,,,,,,,,,,,,,,
0,91,91,78,1,,5f573b18a6a8b51a94fdbd08,62c5388dc05c36cbf9f6d3ff,2022-07-06_02h42.51.219,Colour_Asymmetry_Pilot,2022.1.3,Win32,11.99630514,62c50e9c1127f2cd403a315f,,,,,,,,,,,,,,,,,,,,,,,,,,,,,,,,,,,,,,,,,,,,,,,,,,,,,,,,,,,,,,,,,,,,,,,,,,,,,,,,,,,,,,,,,,,,,,,,,,,,,,,,,,,,,,,,,,,,,,,,,,,,,,,,,,,,,,,,,,,,,,,,,,,,,,,,,,,,,,,,,,,
0,92,92,51,1,,5f573b18a6a8b51a94fdbd08,62c5388dc05c36cbf9f6d3ff,2022-07-06_02h42.51.219,Colour_Asymmetry_Pilot,2022.1.3,Win32,11.99630514,62c50e9c1127f2cd403a315f,,,,,,,,,,,,,,,,,,,,,,,,,,,,,,,,,,,,,,,,,,,,,,,,,,,,,,,,,,,,,,,,,,,,,,,,,,,,,,,,,,,,,,,,,,,,,,,,,,,,,,,,,,,,,,,,,,,,,,,,,,,,,,,,,,,,,,,,,,,,,,,,,,,,,,,,,,,,,,,,,,,
,,,,,,5f573b18a6a8b51a94fdbd08,62c5388dc05c36cbf9f6d3ff,2022-07-06_02h42.51.219,Colour_Asymmetry_Pilot,2022.1.3,Win32,11.99630514,62c50e9c1127f2cd403a315f,0,0,0,17,1,onethree,,,,,,,,,,,,,,,,,,,,,,,,,,,,,,,,,,,,,,,,,,,,,,,,,,,,,,,,,,,,,,,,,,,,,,,,,,,,,,,,,,,,,,,,,,,,,,,,,,,,,,,,,,,,,,,,,,,,,,,,,,,,,,,,,,,,,,,,,,,,,,,,,,,,,,,,,,,,,
,,,,,,5f573b18a6a8b51a94fdbd08,62c5388dc05c36cbf9f6d3ff,2022-07-06_02h42.51.219,Colour_Asymmetry_Pilot,2022.1.3,Win32,11.99630514,62c50e9c1127f2cd403a315f,0,1,1,66,1,twoone,,,,,,,,,,,,,,,,,,,,,,,,,,,,,,,,,,,,,,,,,,,,,,,,,,,,,,,,,,,,,,,,,,,,,,,,,,,,,,,,,,,,,,,,,,,,,,,,,,,,,,,,,,,,,,,,,,,,,,,,,,,,,,,,,,,,,,,,,,,,,,,,,,,,,,,,,,,,,
,,,,,,5f573b18a6a8b51a94fdbd08,62c5388dc05c36cbf9f6d3ff,2022-07-06_02h42.51.219,Colour_Asymmetry_Pilot,2022.1.3,Win32,11.99630514,62c50e9c1127f2cd403a315f,0,2,2,132,1,threeone,,,,,,,,,,,,,,,,,,,,,,,,,,,,,,,,,,,,,,,,,,,,,,,,,,,,,,,,,,,,,,,,,,,,,,,,,,,,,,,,,,,,,,,,,,,,,,,,,,,,,,,,,,,,,,,,,,,,,,,,,,,,,,,,,,,,,,,,,,,,,,,,,,,,,,,,,,,,,
,,,,,,5f573b18a6a8b51a94fdbd08,62c5388dc05c36cbf9f6d3ff,2022-07-06_02h42.51.219,Colour_Asymmetry_Pilot,2022.1.3,Win32,11.99630514,62c50e9c1127f2cd403a315f,0,3,3,138,1,twoone,,,,,,,,,,,,,,,,,,,,,,,,,,,,,,,,,,,,,,,,,,,,,,,,,,,,,,,,,,,,,,,,,,,,,,,,,,,,,,,,,,,,,,,,,,,,,,,,,,,,,,,,,,,,,,,,,,,,,,,,,,,,,,,,,,,,,,,,,,,,,,,,,,,,,,,,,,,,,
,,,,,,5f573b18a6a8b51a94fdbd08,62c5388dc05c36cbf9f6d3ff,2022-07-06_02h42.51.219,Colour_Asymmetry_Pilot,2022.1.3,Win32,11.99630514,62c50e9c1127f2cd403a315f,0,4,4,154,1,twoone,,,,,,,,,,,,,,,,,,,,,,,,,,,,,,,,,,,,,,,,,,,,,,,,,,,,,,,,,,,,,,,,,,,,,,,,,,,,,,,,,,,,,,,,,,,,,,,,,,,,,,,,,,,,,,,,,,,,,,,,,,,,,,,,,,,,,,,,,,,,,,,,,,,,,,,,,,,,,
,,,,,,5f573b18a6a8b51a94fdbd08,62c5388dc05c36cbf9f6d3ff,2022-07-06_02h42.51.219,Colour_Asymmetry_Pilot,2022.1.3,Win32,11.99630514,62c50e9c1127f2cd403a315f,0,5,5,101,1,threefour,,,,,,,,,,,,,,,,,,,,,,,,,,,,,,,,,,,,,,,,,,,,,,,,,,,,,,,,,,,,,,,,,,,,,,,,,,,,,,,,,,,,,,,,,,,,,,,,,,,,,,,,,,,,,,,,,,,,,,,,,,,,,,,,,,,,,,,,,,,,,,,,,,,,,,,,,,,,,
,,,,,,5f573b18a6a8b51a94fdbd08,62c5388dc05c36cbf9f6d3ff,2022-07-06_02h42.51.219,Colour_Asymmetry_Pilot,2022.1.3,Win32,11.99630514,62c50e9c1127f2cd403a315f,0,6,6,106,1,twoone,,,,,,,,,,,,,,,,,,,,,,,,,,,,,,,,,,,,,,,,,,,,,,,,,,,,,,,,,,,,,,,,,,,,,,,,,,,,,,,,,,,,,,,,,,,,,,,,,,,,,,,,,,,,,,,,,,,,,,,,,,,,,,,,,,,,,,,,,,,,,,,,,,,,,,,,,,,,,
,,,,,,5f573b18a6a8b51a94fdbd08,62c5388dc05c36cbf9f6d3ff,2022-07-06_02h42.51.219,Colour_Asymmetry_Pilot,2022.1.3,Win32,11.99630514,62c50e9c1127f2cd403a315f,0,7,7,160,1,onetwo,,,,,,,,,,,,,,,,,,,,,,,,,,,,,,,,,,,,,,,,,,,,,,,,,,,,,,,,,,,,,,,,,,,,,,,,,,,,,,,,,,,,,,,,,,,,,,,,,,,,,,,,,,,,,,,,,,,,,,,,,,,,,,,,,,,,,,,,,,,,,,,,,,,,,,,,,,,,,
,,,,,,5f573b18a6a8b51a94fdbd08,62c5388dc05c36cbf9f6d3ff,2022-07-06_02h42.51.219,Colour_Asymmetry_Pilot,2022.1.3,Win32,11.99630514,62c50e9c1127f2cd403a315f,0,8,8,150,1,fourtwo,,,,,,,,,,,,,,,,,,,,,,,,,,,,,,,,,,,,,,,,,,,,,,,,,,,,,,,,,,,,,,,,,,,,,,,,,,,,,,,,,,,,,,,,,,,,,,,,,,,,,,,,,,,,,,,,,,,,,,,,,,,,,,,,,,,,,,,,,,,,,,,,,,,,,,,,,,,,,
,,,,,,5f573b18a6a8b51a94fdbd08,62c5388dc05c36cbf9f6d3ff,2022-07-06_02h42.51.219,Colour_Asymmetry_Pilot,2022.1.3,Win32,11.99630514,62c50e9c1127f2cd403a315f,0,9,9,75,1,twofour,,,,,,,,,,,,,,,,,,,,,,,,,,,,,,,,,,,,,,,,,,,,,,,,,,,,,,,,,,,,,,,,,,,,,,,,,,,,,,,,,,,,,,,,,,,,,,,,,,,,,,,,,,,,,,,,,,,,,,,,,,,,,,,,,,,,,,,,,,,,,,,,,,,,,,,,,,,,,
,,,,,,5f573b18a6a8b51a94fdbd08,62c5388dc05c36cbf9f6d3ff,2022-07-06_02h42.51.219,Colour_Asymmetry_Pilot,2022.1.3,Win32,11.99630514,62c50e9c1127f2cd403a315f,0,10,10,53,1,threefour,,,,,,,,,,,,,,,,,,,,,,,,,,,,,,,,,,,,,,,,,,,,,,,,,,,,,,,,,,,,,,,,,,,,,,,,,,,,,,,,,,,,,,,,,,,,,,,,,,,,,,,,,,,,,,,,,,,,,,,,,,,,,,,,,,,,,,,,,,,,,,,,,,,,,,,,,,,,,
,,,,,,5f573b18a6a8b51a94fdbd08,62c5388dc05c36cbf9f6d3ff,2022-07-06_02h42.51.219,Colour_Asymmetry_Pilot,2022.1.3,Win32,11.99630514,62c50e9c1127f2cd403a315f,0,11,11,136,1,onetwo,,,,,,,,,,,,,,,,,,,,,,,,,,,,,,,,,,,,,,,,,,,,,,,,,,,,,,,,,,,,,,,,,,,,,,,,,,,,,,,,,,,,,,,,,,,,,,,,,,,,,,,,,,,,,,,,,,,,,,,,,,,,,,,,,,,,,,,,,,,,,,,,,,,,,,,,,,,,,
,,,,,,5f573b18a6a8b51a94fdbd08,62c5388dc05c36cbf9f6d3ff,2022-07-06_02h42.51.219,Colour_Asymmetry_Pilot,2022.1.3,Win32,11.99630514,62c50e9c1127f2cd403a315f,0,12,12,26,1,twoone,,,,,,,,,,,,,,,,,,,,,,,,,,,,,,,,,,,,,,,,,,,,,,,,,,,,,,,,,,,,,,,,,,,,,,,,,,,,,,,,,,,,,,,,,,,,,,,,,,,,,,,,,,,,,,,,,,,,,,,,,,,,,,,,,,,,,,,,,,,,,,,,,,,,,,,,,,,,,
,,,,,,5f573b18a6a8b51a94fdbd08,62c5388dc05c36cbf9f6d3ff,2022-07-06_02h42.51.219,Colour_Asymmetry_Pilot,2022.1.3,Win32,11.99630514,62c50e9c1127f2cd403a315f,0,13,13,143,1,fourthree,,,,,,,,,,,,,,,,,,,,,,,,,,,,,,,,,,,,,,,,,,,,,,,,,,,,,,,,,,,,,,,,,,,,,,,,,,,,,,,,,,,,,,,,,,,,,,,,,,,,,,,,,,,,,,,,,,,,,,,,,,,,,,,,,,,,,,,,,,,,,,,,,,,,,,,,,,,,,
,,,,,,5f573b18a6a8b51a94fdbd08,62c5388dc05c36cbf9f6d3ff,2022-07-06_02h42.51.219,Colour_Asymmetry_Pilot,2022.1.3,Win32,11.99630514,62c50e9c1127f2cd403a315f,0,14,14,117,1,threefour,,,,,,,,,,,,,,,,,,,,,,,,,,,,,,,,,,,,,,,,,,,,,,,,,,,,,,,,,,,,,,,,,,,,,,,,,,,,,,,,,,,,,,,,,,,,,,,,,,,,,,,,,,,,,,,,,,,,,,,,,,,,,,,,,,,,,,,,,,,,,,,,,,,,,,,,,,,,,
,,,,,,5f573b18a6a8b51a94fdbd08,62c5388dc05c36cbf9f6d3ff,2022-07-06_02h42.51.219,Colour_Asymmetry_Pilot,2022.1.3,Win32,11.99630514,62c50e9c1127f2cd403a315f,0,15,15,14,1,fourtwo,,,,,,,,,,,,,,,,,,,,,,,,,,,,,,,,,,,,,,,,,,,,,,,,,,,,,,,,,,,,,,,,,,,,,,,,,,,,,,,,,,,,,,,,,,,,,,,,,,,,,,,,,,,,,,,,,,,,,,,,,,,,,,,,,,,,,,,,,,,,,,,,,,,,,,,,,,,,,
,,,,,,5f573b18a6a8b51a94fdbd08,62c5388dc05c36cbf9f6d3ff,2022-07-06_02h42.51.219,Colour_Asymmetry_Pilot,2022.1.3,Win32,11.99630514,62c50e9c1127f2cd403a315f,0,16,16,28,1,threeone,,,,,,,,,,,,,,,,,,,,,,,,,,,,,,,,,,,,,,,,,,,,,,,,,,,,,,,,,,,,,,,,,,,,,,,,,,,,,,,,,,,,,,,,,,,,,,,,,,,,,,,,,,,,,,,,,,,,,,,,,,,,,,,,,,,,,,,,,,,,,,,,,,,,,,,,,,,,,
,,,,,,5f573b18a6a8b51a94fdbd08,62c5388dc05c36cbf9f6d3ff,2022-07-06_02h42.51.219,Colour_Asymmetry_Pilot,2022.1.3,Win32,11.99630514,62c50e9c1127f2cd403a315f,0,17,17,98,1,twoone,,,,,,,,,,,,,,,,,,,,,,,,,,,,,,,,,,,,,,,,,,,,,,,,,,,,,,,,,,,,,,,,,,,,,,,,,,,,,,,,,,,,,,,,,,,,,,,,,,,,,,,,,,,,,,,,,,,,,,,,,,,,,,,,,,,,,,,,,,,,,,,,,,,,,,,,,,,,,
,,,,,,5f573b18a6a8b51a94fdbd08,62c5388dc05c36cbf9f6d3ff,2022-07-06_02h42.51.219,Colour_Asymmetry_Pilot,2022.1.3,Win32,11.99630514,62c50e9c1127f2cd403a315f,0,18,18,111,1,fourthree,,,,,,,,,,,,,,,,,,,,,,,,,,,,,,,,,,,,,,,,,,,,,,,,,,,,,,,,,,,,,,,,,,,,,,,,,,,,,,,,,,,,,,,,,,,,,,,,,,,,,,,,,,,,,,,,,,,,,,,,,,,,,,,,,,,,,,,,,,,,,,,,,,,,,,,,,,,,,
,,,,,,5f573b18a6a8b51a94fdbd08,62c5388dc05c36cbf9f6d3ff,2022-07-06_02h42.51.219,Colour_Asymmetry_Pilot,2022.1.3,Win32,11.99630514,62c50e9c1127f2cd403a315f,0,19,19,5,1,threefour,,,,,,,,,,,,,,,,,,,,,,,,,,,,,,,,,,,,,,,,,,,,,,,,,,,,,,,,,,,,,,,,,,,,,,,,,,,,,,,,,,,,,,,,,,,,,,,,,,,,,,,,,,,,,,,,,,,,,,,,,,,,,,,,,,,,,,,,,,,,,,,,,,,,,,,,,,,,,
,,,,,,5f573b18a6a8b51a94fdbd08,62c5388dc05c36cbf9f6d3ff,2022-07-06_02h42.51.219,Colour_Asymmetry_Pilot,2022.1.3,Win32,11.99630514,62c50e9c1127f2cd403a315f,0,20,20,113,1,onethree,,,,,,,,,,,,,,,,,,,,,,,,,,,,,,,,,,,,,,,,,,,,,,,,,,,,,,,,,,,,,,,,,,,,,,,,,,,,,,,,,,,,,,,,,,,,,,,,,,,,,,,,,,,,,,,,,,,,,,,,,,,,,,,,,,,,,,,,,,,,,,,,,,,,,,,,,,,,,
,,,,,,5f573b18a6a8b51a94fdbd08,62c5388dc05c36cbf9f6d3ff,2022-07-06_02h42.51.219,Colour_Asymmetry_Pilot,2022.1.3,Win32,11.99630514,62c50e9c1127f2cd403a315f,0,21,21,72,1,onetwo,,,,,,,,,,,,,,,,,,,,,,,,,,,,,,,,,,,,,,,,,,,,,,,,,,,,,,,,,,,,,,,,,,,,,,,,,,,,,,,,,,,,,,,,,,,,,,,,,,,,,,,,,,,,,,,,,,,,,,,,,,,,,,,,,,,,,,,,,,,,,,,,,,,,,,,,,,,,,
,,,,,,5f573b18a6a8b51a94fdbd08,62c5388dc05c36cbf9f6d3ff,2022-07-06_02h42.51.219,Colour_Asymmetry_Pilot,2022.1.3,Win32,11.99630514,62c50e9c1127f2cd403a315f,0,22,22,134,1,fourtwo,,,,,,,,,,,,,,,,,,,,,,,,,,,,,,,,,,,,,,,,,,,,,,,,,,,,,,,,,,,,,,,,,,,,,,,,,,,,,,,,,,,,,,,,,,,,,,,,,,,,,,,,,,,,,,,,,,,,,,,,,,,,,,,,,,,,,,,,,,,,,,,,,,,,,,,,,,,,,
,,,,,,5f573b18a6a8b51a94fdbd08,62c5388dc05c36cbf9f6d3ff,2022-07-06_02h42.51.219,Colour_Asymmetry_Pilot,2022.1.3,Win32,11.99630514,62c50e9c1127f2cd403a315f,0,23,23,149,1,threefour,,,,,,,,,,,,,,,,,,,,,,,,,,,,,,,,,,,,,,,,,,,,,,,,,,,,,,,,,,,,,,,,,,,,,,,,,,,,,,,,,,,,,,,,,,,,,,,,,,,,,,,,,,,,,,,,,,,,,,,,,,,,,,,,,,,,,,,,,,,,,,,,,,,,,,,,,,,,,
,,,,,,5f573b18a6a8b51a94fdbd08,62c5388dc05c36cbf9f6d3ff,2022-07-06_02h42.51.219,Colour_Asymmetry_Pilot,2022.1.3,Win32,11.99630514,62c50e9c1127f2cd403a315f,0,24,24,145,1,onethree,,,,,,,,,,,,,,,,,,,,,,,,,,,,,,,,,,,,,,,,,,,,,,,,,,,,,,,,,,,,,,,,,,,,,,,,,,,,,,,,,,,,,,,,,,,,,,,,,,,,,,,,,,,,,,,,,,,,,,,,,,,,,,,,,,,,,,,,,,,,,,,,,,,,,,,,,,,,,
,,,,,,5f573b18a6a8b51a94fdbd08,62c5388dc05c36cbf9f6d3ff,2022-07-06_02h42.51.219,Colour_Asymmetry_Pilot,2022.1.3,Win32,11.99630514,62c50e9c1127f2cd403a315f,0,25,25,76,1,threeone,,,,,,,,,,,,,,,,,,,,,,,,,,,,,,,,,,,,,,,,,,,,,,,,,,,,,,,,,,,,,,,,,,,,,,,,,,,,,,,,,,,,,,,,,,,,,,,,,,,,,,,,,,,,,,,,,,,,,,,,,,,,,,,,,,,,,,,,,,,,,,,,,,,,,,,,,,,,,
,,,,,,5f573b18a6a8b51a94fdbd08,62c5388dc05c36cbf9f6d3ff,2022-07-06_02h42.51.219,Colour_Asymmetry_Pilot,2022.1.3,Win32,11.99630514,62c50e9c1127f2cd403a315f,0,26,26,124,1,threeone,,,,,,,,,,,,,,,,,,,,,,,,,,,,,,,,,,,,,,,,,,,,,,,,,,,,,,,,,,,,,,,,,,,,,,,,,,,,,,,,,,,,,,,,,,,,,,,,,,,,,,,,,,,,,,,,,,,,,,,,,,,,,,,,,,,,,,,,,,,,,,,,,,,,,,,,,,,,,
,,,,,,5f573b18a6a8b51a94fdbd08,62c5388dc05c36cbf9f6d3ff,2022-07-06_02h42.51.219,Colour_Asymmetry_Pilot,2022.1.3,Win32,11.99630514,62c50e9c1127f2cd403a315f,0,27,27,69,1,threefour,,,,,,,,,,,,,,,,,,,,,,,,,,,,,,,,,,,,,,,,,,,,,,,,,,,,,,,,,,,,,,,,,,,,,,,,,,,,,,,,,,,,,,,,,,,,,,,,,,,,,,,,,,,,,,,,,,,,,,,,,,,,,,,,,,,,,,,,,,,,,,,,,,,,,,,,,,,,,
,,,,,,5f573b18a6a8b51a94fdbd08,62c5388dc05c36cbf9f6d3ff,2022-07-06_02h42.51.219,Colour_Asymmetry_Pilot,2022.1.3,Win32,11.99630514,62c50e9c1127f2cd403a315f,0,28,28,64,1,onetwo,,,,,,,,,,,,,,,,,,,,,,,,,,,,,,,,,,,,,,,,,,,,,,,,,,,,,,,,,,,,,,,,,,,,,,,,,,,,,,,,,,,,,,,,,,,,,,,,,,,,,,,,,,,,,,,,,,,,,,,,,,,,,,,,,,,,,,,,,,,,,,,,,,,,,,,,,,,,,
,,,,,,5f573b18a6a8b51a94fdbd08,62c5388dc05c36cbf9f6d3ff,2022-07-06_02h42.51.219,Colour_Asymmetry_Pilot,2022.1.3,Win32,11.99630514,62c50e9c1127f2cd403a315f,0,29,29,54,1,fourtwo,,,,,,,,,,,,,,,,,,,,,,,,,,,,,,,,,,,,,,,,,,,,,,,,,,,,,,,,,,,,,,,,,,,,,,,,,,,,,,,,,,,,,,,,,,,,,,,,,,,,,,,,,,,,,,,,,,,,,,,,,,,,,,,,,,,,,,,,,,,,,,,,,,,,,,,,,,,,,
,,,,,,5f573b18a6a8b51a94fdbd08,62c5388dc05c36cbf9f6d3ff,2022-07-06_02h42.51.219,Colour_Asymmetry_Pilot,2022.1.3,Win32,11.99630514,62c50e9c1127f2cd403a315f,0,30,30,158,1,fourtwo,,,,,,,,,,,,,,,,,,,,,,,,,,,,,,,,,,,,,,,,,,,,,,,,,,,,,,,,,,,,,,,,,,,,,,,,,,,,,,,,,,,,,,,,,,,,,,,,,,,,,,,,,,,,,,,,,,,,,,,,,,,,,,,,,,,,,,,,,,,,,,,,,,,,,,,,,,,,,
,,,,,,5f573b18a6a8b51a94fdbd08,62c5388dc05c36cbf9f6d3ff,2022-07-06_02h42.51.219,Colour_Asymmetry_Pilot,2022.1.3,Win32,11.99630514,62c50e9c1127f2cd403a315f,0,31,31,36,1,threeone,,,,,,,,,,,,,,,,,,,,,,,,,,,,,,,,,,,,,,,,,,,,,,,,,,,,,,,,,,,,,,,,,,,,,,,,,,,,,,,,,,,,,,,,,,,,,,,,,,,,,,,,,,,,,,,,,,,,,,,,,,,,,,,,,,,,,,,,,,,,,,,,,,,,,,,,,,,,,
,,,,,,5f573b18a6a8b51a94fdbd08,62c5388dc05c36cbf9f6d3ff,2022-07-06_02h42.51.219,Colour_Asymmetry_Pilot,2022.1.3,Win32,11.99630514,62c50e9c1127f2cd403a315f,0,32,32,119,1,fourthree,,,,,,,,,,,,,,,,,,,,,,,,,,,,,,,,,,,,,,,,,,,,,,,,,,,,,,,,,,,,,,,,,,,,,,,,,,,,,,,,,,,,,,,,,,,,,,,,,,,,,,,,,,,,,,,,,,,,,,,,,,,,,,,,,,,,,,,,,,,,,,,,,,,,,,,,,,,,,
,,,,,,5f573b18a6a8b51a94fdbd08,62c5388dc05c36cbf9f6d3ff,2022-07-06_02h42.51.219,Colour_Asymmetry_Pilot,2022.1.3,Win32,11.99630514,62c50e9c1127f2cd403a315f,0,33,33,89,1,onethree,,,,,,,,,,,,,,,,,,,,,,,,,,,,,,,,,,,,,,,,,,,,,,,,,,,,,,,,,,,,,,,,,,,,,,,,,,,,,,,,,,,,,,,,,,,,,,,,,,,,,,,,,,,,,,,,,,,,,,,,,,,,,,,,,,,,,,,,,,,,,,,,,,,,,,,,,,,,,
,,,,,,5f573b18a6a8b51a94fdbd08,62c5388dc05c36cbf9f6d3ff,2022-07-06_02h42.51.219,Colour_Asymmetry_Pilot,2022.1.3,Win32,11.99630514,62c50e9c1127f2cd403a315f,0,34,34,9,1,onethree,,,,,,,,,,,,,,,,,,,,,,,,,,,,,,,,,,,,,,,,,,,,,,,,,,,,,,,,,,,,,,,,,,,,,,,,,,,,,,,,,,,,,,,,,,,,,,,,,,,,,,,,,,,,,,,,,,,,,,,,,,,,,,,,,,,,,,,,,,,,,,,,,,,,,,,,,,,,,
,,,,,,5f573b18a6a8b51a94fdbd08,62c5388dc05c36cbf9f6d3ff,2022-07-06_02h42.51.219,Colour_Asymmetry_Pilot,2022.1.3,Win32,11.99630514,62c50e9c1127f2cd403a315f,0,35,35,56,1,onetwo,,,,,,,,,,,,,,,,,,,,,,,,,,,,,,,,,,,,,,,,,,,,,,,,,,,,,,,,,,,,,,,,,,,,,,,,,,,,,,,,,,,,,,,,,,,,,,,,,,,,,,,,,,,,,,,,,,,,,,,,,,,,,,,,,,,,,,,,,,,,,,,,,,,,,,,,,,,,,
,,,,,,5f573b18a6a8b51a94fdbd08,62c5388dc05c36cbf9f6d3ff,2022-07-06_02h42.51.219,Colour_Asymmetry_Pilot,2022.1.3,Win32,11.99630514,62c50e9c1127f2cd403a315f,0,36,36,100,1,threeone,,,,,,,,,,,,,,,,,,,,,,,,,,,,,,,,,,,,,,,,,,,,,,,,,,,,,,,,,,,,,,,,,,,,,,,,,,,,,,,,,,,,,,,,,,,,,,,,,,,,,,,,,,,,,,,,,,,,,,,,,,,,,,,,,,,,,,,,,,,,,,,,,,,,,,,,,,,,,
,,,,,,5f573b18a6a8b51a94fdbd08,62c5388dc05c36cbf9f6d3ff,2022-07-06_02h42.51.219,Colour_Asymmetry_Pilot,2022.1.3,Win32,11.99630514,62c50e9c1127f2cd403a315f,0,37,37,27,1,twofour,,,,,,,,,,,,,,,,,,,,,,,,,,,,,,,,,,,,,,,,,,,,,,,,,,,,,,,,,,,,,,,,,,,,,,,,,,,,,,,,,,,,,,,,,,,,,,,,,,,,,,,,,,,,,,,,,,,,,,,,,,,,,,,,,,,,,,,,,,,,,,,,,,,,,,,,,,,,,
,,,,,,5f573b18a6a8b51a94fdbd08,62c5388dc05c36cbf9f6d3ff,2022-07-06_02h42.51.219,Colour_Asymmetry_Pilot,2022.1.3,Win32,11.99630514,62c50e9c1127f2cd403a315f,0,38,38,13,1,threefour,,,,,,,,,,,,,,,,,,,,,,,,,,,,,,,,,,,,,,,,,,,,,,,,,,,,,,,,,,,,,,,,,,,,,,,,,,,,,,,,,,,,,,,,,,,,,,,,,,,,,,,,,,,,,,,,,,,,,,,,,,,,,,,,,,,,,,,,,,,,,,,,,,,,,,,,,,,,,
,,,,,,5f573b18a6a8b51a94fdbd08,62c5388dc05c36cbf9f6d3ff,2022-07-06_02h42.51.219,Colour_Asymmetry_Pilot,2022.1.3,Win32,11.99630514,62c50e9c1127f2cd403a315f,0,39,39,125,1,threefour,,,,,,,,,,,,,,,,,,,,,,,,,,,,,,,,,,,,,,,,,,,,,,,,,,,,,,,,,,,,,,,,,,,,,,,,,,,,,,,,,,,,,,,,,,,,,,,,,,,,,,,,,,,,,,,,,,,,,,,,,,,,,,,,,,,,,,,,,,,,,,,,,,,,,,,,,,,,,
,,,,,,5f573b18a6a8b51a94fdbd08,62c5388dc05c36cbf9f6d3ff,2022-07-06_02h42.51.219,Colour_Asymmetry_Pilot,2022.1.3,Win32,11.99630514,62c50e9c1127f2cd403a315f,0,40,40,116,1,threeone,,,,,,,,,,,,,,,,,,,,,,,,,,,,,,,,,,,,,,,,,,,,,,,,,,,,,,,,,,,,,,,,,,,,,,,,,,,,,,,,,,,,,,,,,,,,,,,,,,,,,,,,,,,,,,,,,,,,,,,,,,,,,,,,,,,,,,,,,,,,,,,,,,,,,,,,,,,,,
,,,,,,5f573b18a6a8b51a94fdbd08,62c5388dc05c36cbf9f6d3ff,2022-07-06_02h42.51.219,Colour_Asymmetry_Pilot,2022.1.3,Win32,11.99630514,62c50e9c1127f2cd403a315f,0,41,41,51,1,twofour,,,,,,,,,,,,,,,,,,,,,,,,,,,,,,,,,,,,,,,,,,,,,,,,,,,,,,,,,,,,,,,,,,,,,,,,,,,,,,,,,,,,,,,,,,,,,,,,,,,,,,,,,,,,,,,,,,,,,,,,,,,,,,,,,,,,,,,,,,,,,,,,,,,,,,,,,,,,,
,,,,,,5f573b18a6a8b51a94fdbd08,62c5388dc05c36cbf9f6d3ff,2022-07-06_02h42.51.219,Colour_Asymmetry_Pilot,2022.1.3,Win32,11.99630514,62c50e9c1127f2cd403a315f,0,42,42,67,1,twofour,,,,,,,,,,,,,,,,,,,,,,,,,,,,,,,,,,,,,,,,,,,,,,,,,,,,,,,,,,,,,,,,,,,,,,,,,,,,,,,,,,,,,,,,,,,,,,,,,,,,,,,,,,,,,,,,,,,,,,,,,,,,,,,,,,,,,,,,,,,,,,,,,,,,,,,,,,,,,
,,,,,,5f573b18a6a8b51a94fdbd08,62c5388dc05c36cbf9f6d3ff,2022-07-06_02h42.51.219,Colour_Asymmetry_Pilot,2022.1.3,Win32,11.99630514,62c50e9c1127f2cd403a315f,0,43,43,137,1,onethree,,,,,,,,,,,,,,,,,,,,,,,,,,,,,,,,,,,,,,,,,,,,,,,,,,,,,,,,,,,,,,,,,,,,,,,,,,,,,,,,,,,,,,,,,,,,,,,,,,,,,,,,,,,,,,,,,,,,,,,,,,,,,,,,,,,,,,,,,,,,,,,,,,,,,,,,,,,,,
,,,,,,5f573b18a6a8b51a94fdbd08,62c5388dc05c36cbf9f6d3ff,2022-07-06_02h42.51.219,Colour_Asymmetry_Pilot,2022.1.3,Win32,11.99630514,62c50e9c1127f2cd403a315f,0,44,44,133,1,threefour,,,,,,,,,,,,,,,,,,,,,,,,,,,,,,,,,,,,,,,,,,,,,,,,,,,,,,,,,,,,,,,,,,,,,,,,,,,,,,,,,,,,,,,,,,,,,,,,,,,,,,,,,,,,,,,,,,,,,,,,,,,,,,,,,,,,,,,,,,,,,,,,,,,,,,,,,,,,,
,,,,,,5f573b18a6a8b51a94fdbd08,62c5388dc05c36cbf9f6d3ff,2022-07-06_02h42.51.219,Colour_Asymmetry_Pilot,2022.1.3,Win32,11.99630514,62c50e9c1127f2cd403a315f,0,45,45,82,1,twoone,,,,,,,,,,,,,,,,,,,,,,,,,,,,,,,,,,,,,,,,,,,,,,,,,,,,,,,,,,,,,,,,,,,,,,,,,,,,,,,,,,,,,,,,,,,,,,,,,,,,,,,,,,,,,,,,,,,,,,,,,,,,,,,,,,,,,,,,,,,,,,,,,,,,,,,,,,,,,
,,,,,,5f573b18a6a8b51a94fdbd08,62c5388dc05c36cbf9f6d3ff,2022-07-06_02h42.51.219,Colour_Asymmetry_Pilot,2022.1.3,Win32,11.99630514,62c50e9c1127f2cd403a315f,0,46,46,8,1,onetwo,,,,,,,,,,,,,,,,,,,,,,,,,,,,,,,,,,,,,,,,,,,,,,,,,,,,,,,,,,,,,,,,,,,,,,,,,,,,,,,,,,,,,,,,,,,,,,,,,,,,,,,,,,,,,,,,,,,,,,,,,,,,,,,,,,,,,,,,,,,,,,,,,,,,,,,,,,,,,
,,,,,,5f573b18a6a8b51a94fdbd08,62c5388dc05c36cbf9f6d3ff,2022-07-06_02h42.51.219,Colour_Asymmetry_Pilot,2022.1.3,Win32,11.99630514,62c50e9c1127f2cd403a315f,0,47,47,12,1,threeone,,,,,,,,,,,,,,,,,,,,,,,,,,,,,,,,,,,,,,,,,,,,,,,,,,,,,,,,,,,,,,,,,,,,,,,,,,,,,,,,,,,,,,,,,,,,,,,,,,,,,,,,,,,,,,,,,,,,,,,,,,,,,,,,,,,,,,,,,,,,,,,,,,,,,,,,,,,,,
,,,,,,5f573b18a6a8b51a94fdbd08,62c5388dc05c36cbf9f6d3ff,2022-07-06_02h42.51.219,Colour_Asymmetry_Pilot,2022.1.3,Win32,11.99630514,62c50e9c1127f2cd403a315f,0,48,48,15,1,fourthree,,,,,,,,,,,,,,,,,,,,,,,,,,,,,,,,,,,,,,,,,,,,,,,,,,,,,,,,,,,,,,,,,,,,,,,,,,,,,,,,,,,,,,,,,,,,,,,,,,,,,,,,,,,,,,,,,,,,,,,,,,,,,,,,,,,,,,,,,,,,,,,,,,,,,,,,,,,,,
,,,,,,5f573b18a6a8b51a94fdbd08,62c5388dc05c36cbf9f6d3ff,2022-07-06_02h42.51.219,Colour_Asymmetry_Pilot,2022.1.3,Win32,11.99630514,62c50e9c1127f2cd403a315f,0,49,49,25,1,onethree,,,,,,,,,,,,,,,,,,,,,,,,,,,,,,,,,,,,,,,,,,,,,,,,,,,,,,,,,,,,,,,,,,,,,,,,,,,,,,,,,,,,,,,,,,,,,,,,,,,,,,,,,,,,,,,,,,,,,,,,,,,,,,,,,,,,,,,,,,,,,,,,,,,,,,,,,,,,,
,,,,,,5f573b18a6a8b51a94fdbd08,62c5388dc05c36cbf9f6d3ff,2022-07-06_02h42.51.219,Colour_Asymmetry_Pilot,2022.1.3,Win32,11.99630514,62c50e9c1127f2cd403a315f,0,50,50,52,1,threeone,,,,,,,,,,,,,,,,,,,,,,,,,,,,,,,,,,,,,,,,,,,,,,,,,,,,,,,,,,,,,,,,,,,,,,,,,,,,,,,,,,,,,,,,,,,,,,,,,,,,,,,,,,,,,,,,,,,,,,,,,,,,,,,,,,,,,,,,,,,,,,,,,,,,,,,,,,,,,
,,,,,,5f573b18a6a8b51a94fdbd08,62c5388dc05c36cbf9f6d3ff,2022-07-06_02h42.51.219,Colour_Asymmetry_Pilot,2022.1.3,Win32,11.99630514,62c50e9c1127f2cd403a315f,0,51,51,87,1,fourthree,,,,,,,,,,,,,,,,,,,,,,,,,,,,,,,,,,,,,,,,,,,,,,,,,,,,,,,,,,,,,,,,,,,,,,,,,,,,,,,,,,,,,,,,,,,,,,,,,,,,,,,,,,,,,,,,,,,,,,,,,,,,,,,,,,,,,,,,,,,,,,,,,,,,,,,,,,,,,
,,,,,,5f573b18a6a8b51a94fdbd08,62c5388dc05c36cbf9f6d3ff,2022-07-06_02h42.51.219,Colour_Asymmetry_Pilot,2022.1.3,Win32,11.99630514,62c50e9c1127f2cd403a315f,0,52,52,102,1,fourtwo,,,,,,,,,,,,,,,,,,,,,,,,,,,,,,,,,,,,,,,,,,,,,,,,,,,,,,,,,,,,,,,,,,,,,,,,,,,,,,,,,,,,,,,,,,,,,,,,,,,,,,,,,,,,,,,,,,,,,,,,,,,,,,,,,,,,,,,,,,,,,,,,,,,,,,,,,,,,,
,,,,,,5f573b18a6a8b51a94fdbd08,62c5388dc05c36cbf9f6d3ff,2022-07-06_02h42.51.219,Colour_Asymmetry_Pilot,2022.1.3,Win32,11.99630514,62c50e9c1127f2cd403a315f,0,53,53,83,1,twofour,,,,,,,,,,,,,,,,,,,,,,,,,,,,,,,,,,,,,,,,,,,,,,,,,,,,,,,,,,,,,,,,,,,,,,,,,,,,,,,,,,,,,,,,,,,,,,,,,,,,,,,,,,,,,,,,,,,,,,,,,,,,,,,,,,,,,,,,,,,,,,,,,,,,,,,,,,,,,
,,,,,,5f573b18a6a8b51a94fdbd08,62c5388dc05c36cbf9f6d3ff,2022-07-06_02h42.51.219,Colour_Asymmetry_Pilot,2022.1.3,Win32,11.99630514,62c50e9c1127f2cd403a315f,0,54,54,1,1,onethree,,,,,,,,,,,,,,,,,,,,,,,,,,,,,,,,,,,,,,,,,,,,,,,,,,,,,,,,,,,,,,,,,,,,,,,,,,,,,,,,,,,,,,,,,,,,,,,,,,,,,,,,,,,,,,,,,,,,,,,,,,,,,,,,,,,,,,,,,,,,,,,,,,,,,,,,,,,,,
,,,,,,5f573b18a6a8b51a94fdbd08,62c5388dc05c36cbf9f6d3ff,2022-07-06_02h42.51.219,Colour_Asymmetry_Pilot,2022.1.3,Win32,11.99630514,62c50e9c1127f2cd403a315f,0,55,55,74,1,twoone,,,,,,,,,,,,,,,,,,,,,,,,,,,,,,,,,,,,,,,,,,,,,,,,,,,,,,,,,,,,,,,,,,,,,,,,,,,,,,,,,,,,,,,,,,,,,,,,,,,,,,,,,,,,,,,,,,,,,,,,,,,,,,,,,,,,,,,,,,,,,,,,,,,,,,,,,,,,,
,,,,,,5f573b18a6a8b51a94fdbd08,62c5388dc05c36cbf9f6d3ff,2022-07-06_02h42.51.219,Colour_Asymmetry_Pilot,2022.1.3,Win32,11.99630514,62c50e9c1127f2cd403a315f,0,56,56,77,1,threefour,,,,,,,,,,,,,,,,,,,,,,,,,,,,,,,,,,,,,,,,,,,,,,,,,,,,,,,,,,,,,,,,,,,,,,,,,,,,,,,,,,,,,,,,,,,,,,,,,,,,,,,,,,,,,,,,,,,,,,,,,,,,,,,,,,,,,,,,,,,,,,,,,,,,,,,,,,,,,
,,,,,,5f573b18a6a8b51a94fdbd08,62c5388dc05c36cbf9f6d3ff,2022-07-06_02h42.51.219,Colour_Asymmetry_Pilot,2022.1.3,Win32,11.99630514,62c50e9c1127f2cd403a315f,0,57,57,130,1,twoone,,,,,,,,,,,,,,,,,,,,,,,,,,,,,,,,,,,,,,,,,,,,,,,,,,,,,,,,,,,,,,,,,,,,,,,,,,,,,,,,,,,,,,,,,,,,,,,,,,,,,,,,,,,,,,,,,,,,,,,,,,,,,,,,,,,,,,,,,,,,,,,,,,,,,,,,,,,,,
,,,,,,5f573b18a6a8b51a94fdbd08,62c5388dc05c36cbf9f6d3ff,2022-07-06_02h42.51.219,Colour_Asymmetry_Pilot,2022.1.3,Win32,11.99630514,62c50e9c1127f2cd403a315f,0,58,58,40,1,onetwo,,,,,,,,,,,,,,,,,,,,,,,,,,,,,,,,,,,,,,,,,,,,,,,,,,,,,,,,,,,,,,,,,,,,,,,,,,,,,,,,,,,,,,,,,,,,,,,,,,,,,,,,,,,,,,,,,,,,,,,,,,,,,,,,,,,,,,,,,,,,,,,,,,,,,,,,,,,,,
,,,,,,5f573b18a6a8b51a94fdbd08,62c5388dc05c36cbf9f6d3ff,2022-07-06_02h42.51.219,Colour_Asymmetry_Pilot,2022.1.3,Win32,11.99630514,62c50e9c1127f2cd403a315f,0,59,59,139,1,twofour,,,,,,,,,,,,,,,,,,,,,,,,,,,,,,,,,,,,,,,,,,,,,,,,,,,,,,,,,,,,,,,,,,,,,,,,,,,,,,,,,,,,,,,,,,,,,,,,,,,,,,,,,,,,,,,,,,,,,,,,,,,,,,,,,,,,,,,,,,,,,,,,,,,,,,,,,,,,,
,,,,,,5f573b18a6a8b51a94fdbd08,62c5388dc05c36cbf9f6d3ff,2022-07-06_02h42.51.219,Colour_Asymmetry_Pilot,2022.1.3,Win32,11.99630514,62c50e9c1127f2cd403a315f,0,60,60,153,1,onethree,,,,,,,,,,,,,,,,,,,,,,,,,,,,,,,,,,,,,,,,,,,,,,,,,,,,,,,,,,,,,,,,,,,,,,,,,,,,,,,,,,,,,,,,,,,,,,,,,,,,,,,,,,,,,,,,,,,,,,,,,,,,,,,,,,,,,,,,,,,,,,,,,,,,,,,,,,,,,
,,,,,,5f573b18a6a8b51a94fdbd08,62c5388dc05c36cbf9f6d3ff,2022-07-06_02h42.51.219,Colour_Asymmetry_Pilot,2022.1.3,Win32,11.99630514,62c50e9c1127f2cd403a315f,0,61,61,24,1,onetwo,,,,,,,,,,,,,,,,,,,,,,,,,,,,,,,,,,,,,,,,,,,,,,,,,,,,,,,,,,,,,,,,,,,,,,,,,,,,,,,,,,,,,,,,,,,,,,,,,,,,,,,,,,,,,,,,,,,,,,,,,,,,,,,,,,,,,,,,,,,,,,,,,,,,,,,,,,,,,
,,,,,,5f573b18a6a8b51a94fdbd08,62c5388dc05c36cbf9f6d3ff,2022-07-06_02h42.51.219,Colour_Asymmetry_Pilot,2022.1.3,Win32,11.99630514,62c50e9c1127f2cd403a315f,0,62,62,35,1,twofour,,,,,,,,,,,,,,,,,,,,,,,,,,,,,,,,,,,,,,,,,,,,,,,,,,,,,,,,,,,,,,,,,,,,,,,,,,,,,,,,,,,,,,,,,,,,,,,,,,,,,,,,,,,,,,,,,,,,,,,,,,,,,,,,,,,,,,,,,,,,,,,,,,,,,,,,,,,,,
,,,,,,5f573b18a6a8b51a94fdbd08,62c5388dc05c36cbf9f6d3ff,2022-07-06_02h42.51.219,Colour_Asymmetry_Pilot,2022.1.3,Win32,11.99630514,62c50e9c1127f2cd403a315f,0,63,63,127,1,fourthree,,,,,,,,,,,,,,,,,,,,,,,,,,,,,,,,,,,,,,,,,,,,,,,,,,,,,,,,,,,,,,,,,,,,,,,,,,,,,,,,,,,,,,,,,,,,,,,,,,,,,,,,,,,,,,,,,,,,,,,,,,,,,,,,,,,,,,,,,,,,,,,,,,,,,,,,,,,,,
,,,,,,5f573b18a6a8b51a94fdbd08,62c5388dc05c36cbf9f6d3ff,2022-07-06_02h42.51.219,Colour_Asymmetry_Pilot,2022.1.3,Win32,11.99630514,62c50e9c1127f2cd403a315f,0,64,64,22,1,fourtwo,,,,,,,,,,,,,,,,,,,,,,,,,,,,,,,,,,,,,,,,,,,,,,,,,,,,,,,,,,,,,,,,,,,,,,,,,,,,,,,,,,,,,,,,,,,,,,,,,,,,,,,,,,,,,,,,,,,,,,,,,,,,,,,,,,,,,,,,,,,,,,,,,,,,,,,,,,,,,
,,,,,,5f573b18a6a8b51a94fdbd08,62c5388dc05c36cbf9f6d3ff,2022-07-06_02h42.51.219,Colour_Asymmetry_Pilot,2022.1.3,Win32,11.99630514,62c50e9c1127f2cd403a315f,0,65,65,121,1,onethree,,,,,,,,,,,,,,,,,,,,,,,,,,,,,,,,,,,,,,,,,,,,,,,,,,,,,,,,,,,,,,,,,,,,,,,,,,,,,,,,,,,,,,,,,,,,,,,,,,,,,,,,,,,,,,,,,,,,,,,,,,,,,,,,,,,,,,,,,,,,,,,,,,,,,,,,,,,,,
,,,,,,5f573b18a6a8b51a94fdbd08,62c5388dc05c36cbf9f6d3ff,2022-07-06_02h42.51.219,Colour_Asymmetry_Pilot,2022.1.3,Win32,11.99630514,62c50e9c1127f2cd403a315f,0,66,66,91,1,twofour,,,,,,,,,,,,,,,,,,,,,,,,,,,,,,,,,,,,,,,,,,,,,,,,,,,,,,,,,,,,,,,,,,,,,,,,,,,,,,,,,,,,,,,,,,,,,,,,,,,,,,,,,,,,,,,,,,,,,,,,,,,,,,,,,,,,,,,,,,,,,,,,,,,,,,,,,,,,,
,,,,,,5f573b18a6a8b51a94fdbd08,62c5388dc05c36cbf9f6d3ff,2022-07-06_02h42.51.219,Colour_Asymmetry_Pilot,2022.1.3,Win32,11.99630514,62c50e9c1127f2cd403a315f,0,67,67,152,1,onetwo,,,,,,,,,,,,,,,,,,,,,,,,,,,,,,,,,,,,,,,,,,,,,,,,,,,,,,,,,,,,,,,,,,,,,,,,,,,,,,,,,,,,,,,,,,,,,,,,,,,,,,,,,,,,,,,,,,,,,,,,,,,,,,,,,,,,,,,,,,,,,,,,,,,,,,,,,,,,,
,,,,,,5f573b18a6a8b51a94fdbd08,62c5388dc05c36cbf9f6d3ff,2022-07-06_02h42.51.219,Colour_Asymmetry_Pilot,2022.1.3,Win32,11.99630514,62c50e9c1127f2cd403a315f,0,68,68,146,1,twoone,,,,,,,,,,,,,,,,,,,,,,,,,,,,,,,,,,,,,,,,,,,,,,,,,,,,,,,,,,,,,,,,,,,,,,,,,,,,,,,,,,,,,,,,,,,,,,,,,,,,,,,,,,,,,,,,,,,,,,,,,,,,,,,,,,,,,,,,,,,,,,,,,,,,,,,,,,,,,
,,,,,,5f573b18a6a8b51a94fdbd08,62c5388dc05c36cbf9f6d3ff,2022-07-06_02h42.51.219,Colour_Asymmetry_Pilot,2022.1.3,Win32,11.99630514,62c50e9c1127f2cd403a315f,0,69,69,103,1,fourthree,,,,,,,,,,,,,,,,,,,,,,,,,,,,,,,,,,,,,,,,,,,,,,,,,,,,,,,,,,,,,,,,,,,,,,,,,,,,,,,,,,,,,,,,,,,,,,,,,,,,,,,,,,,,,,,,,,,,,,,,,,,,,,,,,,,,,,,,,,,,,,,,,,,,,,,,,,,,,
,,,,,,5f573b18a6a8b51a94fdbd08,62c5388dc05c36cbf9f6d3ff,2022-07-06_02h42.51.219,Colour_Asymmetry_Pilot,2022.1.3,Win32,11.99630514,62c50e9c1127f2cd403a315f,0,70,70,38,1,fourtwo,,,,,,,,,,,,,,,,,,,,,,,,,,,,,,,,,,,,,,,,,,,,,,,,,,,,,,,,,,,,,,,,,,,,,,,,,,,,,,,,,,,,,,,,,,,,,,,,,,,,,,,,,,,,,,,,,,,,,,,,,,,,,,,,,,,,,,,,,,,,,,,,,,,,,,,,,,,,,
,,,,,,5f573b18a6a8b51a94fdbd08,62c5388dc05c36cbf9f6d3ff,2022-07-06_02h42.51.219,Colour_Asymmetry_Pilot,2022.1.3,Win32,11.99630514,62c50e9c1127f2cd403a315f,0,71,71,108,1,threeone,,,,,,,,,,,,,,,,,,,,,,,,,,,,,,,,,,,,,,,,,,,,,,,,,,,,,,,,,,,,,,,,,,,,,,,,,,,,,,,,,,,,,,,,,,,,,,,,,,,,,,,,,,,,,,,,,,,,,,,,,,,,,,,,,,,,,,,,,,,,,,,,,,,,,,,,,,,,,
,,,,,,5f573b18a6a8b51a94fdbd08,62c5388dc05c36cbf9f6d3ff,2022-07-06_02h42.51.219,Colour_Asymmetry_Pilot,2022.1.3,Win32,11.99630514,62c50e9c1127f2cd403a315f,0,72,72,123,1,twofour,,,,,,,,,,,,,,,,,,,,,,,,,,,,,,,,,,,,,,,,,,,,,,,,,,,,,,,,,,,,,,,,,,,,,,,,,,,,,,,,,,,,,,,,,,,,,,,,,,,,,,,,,,,,,,,,,,,,,,,,,,,,,,,,,,,,,,,,,,,,,,,,,,,,,,,,,,,,,
,,,,,,5f573b18a6a8b51a94fdbd08,62c5388dc05c36cbf9f6d3ff,2022-07-06_02h42.51.219,Colour_Asymmetry_Pilot,2022.1.3,Win32,11.99630514,62c50e9c1127f2cd403a315f,0,73,73,3,1,twofour,,,,,,,,,,,,,,,,,,,,,,,,,,,,,,,,,,,,,,,,,,,,,,,,,,,,,,,,,,,,,,,,,,,,,,,,,,,,,,,,,,,,,,,,,,,,,,,,,,,,,,,,,,,,,,,,,,,,,,,,,,,,,,,,,,,,,,,,,,,,,,,,,,,,,,,,,,,,,
,,,,,,5f573b18a6a8b51a94fdbd08,62c5388dc05c36cbf9f6d3ff,2022-07-06_02h42.51.219,Colour_Asymmetry_Pilot,2022.1.3,Win32,11.99630514,62c50e9c1127f2cd403a315f,0,74,74,60,1,threeone,,,,,,,,,,,,,,,,,,,,,,,,,,,,,,,,,,,,,,,,,,,,,,,,,,,,,,,,,,,,,,,,,,,,,,,,,,,,,,,,,,,,,,,,,,,,,,,,,,,,,,,,,,,,,,,,,,,,,,,,,,,,,,,,,,,,,,,,,,,,,,,,,,,,,,,,,,,,,
,,,,,,5f573b18a6a8b51a94fdbd08,62c5388dc05c36cbf9f6d3ff,2022-07-06_02h42.51.219,Colour_Asymmetry_Pilot,2022.1.3,Win32,11.99630514,62c50e9c1127f2cd403a315f,0,75,75,84,1,threeone,,,,,,,,,,,,,,,,,,,,,,,,,,,,,,,,,,,,,,,,,,,,,,,,,,,,,,,,,,,,,,,,,,,,,,,,,,,,,,,,,,,,,,,,,,,,,,,,,,,,,,,,,,,,,,,,,,,,,,,,,,,,,,,,,,,,,,,,,,,,,,,,,,,,,,,,,,,,,
,,,,,,5f573b18a6a8b51a94fdbd08,62c5388dc05c36cbf9f6d3ff,2022-07-06_02h42.51.219,Colour_Asymmetry_Pilot,2022.1.3,Win32,11.99630514,62c50e9c1127f2cd403a315f,0,76,76,148,1,threeone,,,,,,,,,,,,,,,,,,,,,,,,,,,,,,,,,,,,,,,,,,,,,,,,,,,,,,,,,,,,,,,,,,,,,,,,,,,,,,,,,,,,,,,,,,,,,,,,,,,,,,,,,,,,,,,,,,,,,,,,,,,,,,,,,,,,,,,,,,,,,,,,,,,,,,,,,,,,,
,,,,,,5f573b18a6a8b51a94fdbd08,62c5388dc05c36cbf9f6d3ff,2022-07-06_02h42.51.219,Colour_Asymmetry_Pilot,2022.1.3,Win32,11.99630514,62c50e9c1127f2cd403a315f,0,77,77,16,1,onetwo,,,,,,,,,,,,,,,,,,,,,,,,,,,,,,,,,,,,,,,,,,,,,,,,,,,,,,,,,,,,,,,,,,,,,,,,,,,,,,,,,,,,,,,,,,,,,,,,,,,,,,,,,,,,,,,,,,,,,,,,,,,,,,,,,,,,,,,,,,,,,,,,,,,,,,,,,,,,,
,,,,,,5f573b18a6a8b51a94fdbd08,62c5388dc05c36cbf9f6d3ff,2022-07-06_02h42.51.219,Colour_Asymmetry_Pilot,2022.1.3,Win32,11.99630514,62c50e9c1127f2cd403a315f,0,78,78,97,1,onethree,,,,,,,,,,,,,,,,,,,,,,,,,,,,,,,,,,,,,,,,,,,,,,,,,,,,,,,,,,,,,,,,,,,,,,,,,,,,,,,,,,,,,,,,,,,,,,,,,,,,,,,,,,,,,,,,,,,,,,,,,,,,,,,,,,,,,,,,,,,,,,,,,,,,,,,,,,,,,
,,,,,,5f573b18a6a8b51a94fdbd08,62c5388dc05c36cbf9f6d3ff,2022-07-06_02h42.51.219,Colour_Asymmetry_Pilot,2022.1.3,Win32,11.99630514,62c50e9c1127f2cd403a315f,0,79,79,41,1,onethree,,,,,,,,,,,,,,,,,,,,,,,,,,,,,,,,,,,,,,,,,,,,,,,,,,,,,,,,,,,,,,,,,,,,,,,,,,,,,,,,,,,,,,,,,,,,,,,,,,,,,,,,,,,,,,,,,,,,,,,,,,,,,,,,,,,,,,,,,,,,,,,,,,,,,,,,,,,,,
,,,,,,5f573b18a6a8b51a94fdbd08,62c5388dc05c36cbf9f6d3ff,2022-07-06_02h42.51.219,Colour_Asymmetry_Pilot,2022.1.3,Win32,11.99630514,62c50e9c1127f2cd403a315f,0,80,80,159,1,fourthree,,,,,,,,,,,,,,,,,,,,,,,,,,,,,,,,,,,,,,,,,,,,,,,,,,,,,,,,,,,,,,,,,,,,,,,,,,,,,,,,,,,,,,,,,,,,,,,,,,,,,,,,,,,,,,,,,,,,,,,,,,,,,,,,,,,,,,,,,,,,,,,,,,,,,,,,,,,,,
,,,,,,5f573b18a6a8b51a94fdbd08,62c5388dc05c36cbf9f6d3ff,2022-07-06_02h42.51.219,Colour_Asymmetry_Pilot,2022.1.3,Win32,11.99630514,62c50e9c1127f2cd403a315f,0,81,81,105,1,onethree,,,,,,,,,,,,,,,,,,,,,,,,,,,,,,,,,,,,,,,,,,,,,,,,,,,,,,,,,,,,,,,,,,,,,,,,,,,,,,,,,,,,,,,,,,,,,,,,,,,,,,,,,,,,,,,,,,,,,,,,,,,,,,,,,,,,,,,,,,,,,,,,,,,,,,,,,,,,,
,,,,,,5f573b18a6a8b51a94fdbd08,62c5388dc05c36cbf9f6d3ff,2022-07-06_02h42.51.219,Colour_Asymmetry_Pilot,2022.1.3,Win32,11.99630514,62c50e9c1127f2cd403a315f,0,82,82,32,1,onetwo,,,,,,,,,,,,,,,,,,,,,,,,,,,,,,,,,,,,,,,,,,,,,,,,,,,,,,,,,,,,,,,,,,,,,,,,,,,,,,,,,,,,,,,,,,,,,,,,,,,,,,,,,,,,,,,,,,,,,,,,,,,,,,,,,,,,,,,,,,,,,,,,,,,,,,,,,,,,,
,,,,,,5f573b18a6a8b51a94fdbd08,62c5388dc05c36cbf9f6d3ff,2022-07-06_02h42.51.219,Colour_Asymmetry_Pilot,2022.1.3,Win32,11.99630514,62c50e9c1127f2cd403a315f,0,83,83,34,1,twoone,,,,,,,,,,,,,,,,,,,,,,,,,,,,,,,,,,,,,,,,,,,,,,,,,,,,,,,,,,,,,,,,,,,,,,,,,,,,,,,,,,,,,,,,,,,,,,,,,,,,,,,,,,,,,,,,,,,,,,,,,,,,,,,,,,,,,,,,,,,,,,,,,,,,,,,,,,,,,
,,,,,,5f573b18a6a8b51a94fdbd08,62c5388dc05c36cbf9f6d3ff,2022-07-06_02h42.51.219,Colour_Asymmetry_Pilot,2022.1.3,Win32,11.99630514,62c50e9c1127f2cd403a315f,0,84,84,131,1,twofour,,,,,,,,,,,,,,,,,,,,,,,,,,,,,,,,,,,,,,,,,,,,,,,,,,,,,,,,,,,,,,,,,,,,,,,,,,,,,,,,,,,,,,,,,,,,,,,,,,,,,,,,,,,,,,,,,,,,,,,,,,,,,,,,,,,,,,,,,,,,,,,,,,,,,,,,,,,,,
,,,,,,5f573b18a6a8b51a94fdbd08,62c5388dc05c36cbf9f6d3ff,2022-07-06_02h42.51.219,Colour_Asymmetry_Pilot,2022.1.3,Win32,11.99630514,62c50e9c1127f2cd403a315f,0,85,85,11,1,twofour,,,,,,,,,,,,,,,,,,,,,,,,,,,,,,,,,,,,,,,,,,,,,,,,,,,,,,,,,,,,,,,,,,,,,,,,,,,,,,,,,,,,,,,,,,,,,,,,,,,,,,,,,,,,,,,,,,,,,,,,,,,,,,,,,,,,,,,,,,,,,,,,,,,,,,,,,,,,,
,,,,,,5f573b18a6a8b51a94fdbd08,62c5388dc05c36cbf9f6d3ff,2022-07-06_02h42.51.219,Colour_Asymmetry_Pilot,2022.1.3,Win32,11.99630514,62c50e9c1127f2cd403a315f,0,86,86,61,1,threefour,,,,,,,,,,,,,,,,,,,,,,,,,,,,,,,,,,,,,,,,,,,,,,,,,,,,,,,,,,,,,,,,,,,,,,,,,,,,,,,,,,,,,,,,,,,,,,,,,,,,,,,,,,,,,,,,,,,,,,,,,,,,,,,,,,,,,,,,,,,,,,,,,,,,,,,,,,,,,
,,,,,,5f573b18a6a8b51a94fdbd08,62c5388dc05c36cbf9f6d3ff,2022-07-06_02h42.51.219,Colour_Asymmetry_Pilot,2022.1.3,Win32,11.99630514,62c50e9c1127f2cd403a315f,0,87,87,147,1,twofour,,,,,,,,,,,,,,,,,,,,,,,,,,,,,,,,,,,,,,,,,,,,,,,,,,,,,,,,,,,,,,,,,,,,,,,,,,,,,,,,,,,,,,,,,,,,,,,,,,,,,,,,,,,,,,,,,,,,,,,,,,,,,,,,,,,,,,,,,,,,,,,,,,,,,,,,,,,,,
,,,,,,5f573b18a6a8b51a94fdbd08,62c5388dc05c36cbf9f6d3ff,2022-07-06_02h42.51.219,Colour_Asymmetry_Pilot,2022.1.3,Win32,11.99630514,62c50e9c1127f2cd403a315f,0,88,88,80,1,onetwo,,,,,,,,,,,,,,,,,,,,,,,,,,,,,,,,,,,,,,,,,,,,,,,,,,,,,,,,,,,,,,,,,,,,,,,,,,,,,,,,,,,,,,,,,,,,,,,,,,,,,,,,,,,,,,,,,,,,,,,,,,,,,,,,,,,,,,,,,,,,,,,,,,,,,,,,,,,,,
,,,,,,5f573b18a6a8b51a94fdbd08,62c5388dc05c36cbf9f6d3ff,2022-07-06_02h42.51.219,Colour_Asymmetry_Pilot,2022.1.3,Win32,11.99630514,62c50e9c1127f2cd403a315f,0,89,89,4,1,threeone,,,,,,,,,,,,,,,,,,,,,,,,,,,,,,,,,,,,,,,,,,,,,,,,,,,,,,,,,,,,,,,,,,,,,,,,,,,,,,,,,,,,,,,,,,,,,,,,,,,,,,,,,,,,,,,,,,,,,,,,,,,,,,,,,,,,,,,,,,,,,,,,,,,,,,,,,,,,,
,,,,,,5f573b18a6a8b51a94fdbd08,62c5388dc05c36cbf9f6d3ff,2022-07-06_02h42.51.219,Colour_Asymmetry_Pilot,2022.1.3,Win32,11.99630514,62c50e9c1127f2cd403a315f,0,90,90,43,1,twofour,,,,,,,,,,,,,,,,,,,,,,,,,,,,,,,,,,,,,,,,,,,,,,,,,,,,,,,,,,,,,,,,,,,,,,,,,,,,,,,,,,,,,,,,,,,,,,,,,,,,,,,,,,,,,,,,,,,,,,,,,,,,,,,,,,,,,,,,,,,,,,,,,,,,,,,,,,,,,
,,,,,,5f573b18a6a8b51a94fdbd08,62c5388dc05c36cbf9f6d3ff,2022-07-06_02h42.51.219,Colour_Asymmetry_Pilot,2022.1.3,Win32,11.99630514,62c50e9c1127f2cd403a315f,0,91,91,93,1,threefour,,,,,,,,,,,,,,,,,,,,,,,,,,,,,,,,,,,,,,,,,,,,,,,,,,,,,,,,,,,,,,,,,,,,,,,,,,,,,,,,,,,,,,,,,,,,,,,,,,,,,,,,,,,,,,,,,,,,,,,,,,,,,,,,,,,,,,,,,,,,,,,,,,,,,,,,,,,,,
,,,,,,5f573b18a6a8b51a94fdbd08,62c5388dc05c36cbf9f6d3ff,2022-07-06_02h42.51.219,Colour_Asymmetry_Pilot,2022.1.3,Win32,11.99630514,62c50e9c1127f2cd403a315f,0,92,92,155,1,twofour,,,,,,,,,,,,,,,,,,,,,,,,,,,,,,,,,,,,,,,,,,,,,,,,,,,,,,,,,,,,,,,,,,,,,,,,,,,,,,,,,,,,,,,,,,,,,,,,,,,,,,,,,,,,,,,,,,,,,,,,,,,,,,,,,,,,,,,,,,,,,,,,,,,,,,,,,,,,,
,,,,,,5f573b18a6a8b51a94fdbd08,62c5388dc05c36cbf9f6d3ff,2022-07-06_02h42.51.219,Colour_Asymmetry_Pilot,2022.1.3,Win32,11.99630514,62c50e9c1127f2cd403a315f,0,93,93,104,1,onetwo,,,,,,,,,,,,,,,,,,,,,,,,,,,,,,,,,,,,,,,,,,,,,,,,,,,,,,,,,,,,,,,,,,,,,,,,,,,,,,,,,,,,,,,,,,,,,,,,,,,,,,,,,,,,,,,,,,,,,,,,,,,,,,,,,,,,,,,,,,,,,,,,,,,,,,,,,,,,,
,,,,,,5f573b18a6a8b51a94fdbd08,62c5388dc05c36cbf9f6d3ff,2022-07-06_02h42.51.219,Colour_Asymmetry_Pilot,2022.1.3,Win32,11.99630514,62c50e9c1127f2cd403a315f,0,94,94,110,1,fourtwo,,,,,,,,,,,,,,,,,,,,,,,,,,,,,,,,,,,,,,,,,,,,,,,,,,,,,,,,,,,,,,,,,,,,,,,,,,,,,,,,,,,,,,,,,,,,,,,,,,,,,,,,,,,,,,,,,,,,,,,,,,,,,,,,,,,,,,,,,,,,,,,,,,,,,,,,,,,,,
,,,,,,5f573b18a6a8b51a94fdbd08,62c5388dc05c36cbf9f6d3ff,2022-07-06_02h42.51.219,Colour_Asymmetry_Pilot,2022.1.3,Win32,11.99630514,62c50e9c1127f2cd403a315f,0,95,95,68,1,threeone,,,,,,,,,,,,,,,,,,,,,,,,,,,,,,,,,,,,,,,,,,,,,,,,,,,,,,,,,,,,,,,,,,,,,,,,,,,,,,,,,,,,,,,,,,,,,,,,,,,,,,,,,,,,,,,,,,,,,,,,,,,,,,,,,,,,,,,,,,,,,,,,,,,,,,,,,,,,,
,,,,,,5f573b18a6a8b51a94fdbd08,62c5388dc05c36cbf9f6d3ff,2022-07-06_02h42.51.219,Colour_Asymmetry_Pilot,2022.1.3,Win32,11.99630514,62c50e9c1127f2cd403a315f,0,96,96,18,1,twoone,,,,,,,,,,,,,,,,,,,,,,,,,,,,,,,,,,,,,,,,,,,,,,,,,,,,,,,,,,,,,,,,,,,,,,,,,,,,,,,,,,,,,,,,,,,,,,,,,,,,,,,,,,,,,,,,,,,,,,,,,,,,,,,,,,,,,,,,,,,,,,,,,,,,,,,,,,,,,
,,,,,,5f573b18a6a8b51a94fdbd08,62c5388dc05c36cbf9f6d3ff,2022-07-06_02h42.51.219,Colour_Asymmetry_Pilot,2022.1.3,Win32,11.99630514,62c50e9c1127f2cd403a315f,0,97,97,44,1,threeone,,,,,,,,,,,,,,,,,,,,,,,,,,,,,,,,,,,,,,,,,,,,,,,,,,,,,,,,,,,,,,,,,,,,,,,,,,,,,,,,,,,,,,,,,,,,,,,,,,,,,,,,,,,,,,,,,,,,,,,,,,,,,,,,,,,,,,,,,,,,,,,,,,,,,,,,,,,,,
,,,,,,5f573b18a6a8b51a94fdbd08,62c5388dc05c36cbf9f6d3ff,2022-07-06_02h42.51.219,Colour_Asymmetry_Pilot,2022.1.3,Win32,11.99630514,62c50e9c1127f2cd403a315f,0,98,98,57,1,onethree,,,,,,,,,,,,,,,,,,,,,,,,,,,,,,,,,,,,,,,,,,,,,,,,,,,,,,,,,,,,,,,,,,,,,,,,,,,,,,,,,,,,,,,,,,,,,,,,,,,,,,,,,,,,,,,,,,,,,,,,,,,,,,,,,,,,,,,,,,,,,,,,,,,,,,,,,,,,,
,,,,,,5f573b18a6a8b51a94fdbd08,62c5388dc05c36cbf9f6d3ff,2022-07-06_02h42.51.219,Colour_Asymmetry_Pilot,2022.1.3,Win32,11.99630514,62c50e9c1127f2cd403a315f,0,99,99,65,1,onethree,,,,,,,,,,,,,,,,,,,,,,,,,,,,,,,,,,,,,,,,,,,,,,,,,,,,,,,,,,,,,,,,,,,,,,,,,,,,,,,,,,,,,,,,,,,,,,,,,,,,,,,,,,,,,,,,,,,,,,,,,,,,,,,,,,,,,,,,,,,,,,,,,,,,,,,,,,,,,
,,,,,,5f573b18a6a8b51a94fdbd08,62c5388dc05c36cbf9f6d3ff,2022-07-06_02h42.51.219,Colour_Asymmetry_Pilot,2022.1.3,Win32,11.99630514,62c50e9c1127f2cd403a315f,0,100,100,30,1,fourtwo,,,,,,,,,,,,,,,,,,,,,,,,,,,,,,,,,,,,,,,,,,,,,,,,,,,,,,,,,,,,,,,,,,,,,,,,,,,,,,,,,,,,,,,,,,,,,,,,,,,,,,,,,,,,,,,,,,,,,,,,,,,,,,,,,,,,,,,,,,,,,,,,,,,,,,,,,,,,,
,,,,,,5f573b18a6a8b51a94fdbd08,62c5388dc05c36cbf9f6d3ff,2022-07-06_02h42.51.219,Colour_Asymmetry_Pilot,2022.1.3,Win32,11.99630514,62c50e9c1127f2cd403a315f,0,101,101,19,1,twofour,,,,,,,,,,,,,,,,,,,,,,,,,,,,,,,,,,,,,,,,,,,,,,,,,,,,,,,,,,,,,,,,,,,,,,,,,,,,,,,,,,,,,,,,,,,,,,,,,,,,,,,,,,,,,,,,,,,,,,,,,,,,,,,,,,,,,,,,,,,,,,,,,,,,,,,,,,,,,
,,,,,,5f573b18a6a8b51a94fdbd08,62c5388dc05c36cbf9f6d3ff,2022-07-06_02h42.51.219,Colour_Asymmetry_Pilot,2022.1.3,Win32,11.99630514,62c50e9c1127f2cd403a315f,0,102,102,7,1,fourthree,,,,,,,,,,,,,,,,,,,,,,,,,,,,,,,,,,,,,,,,,,,,,,,,,,,,,,,,,,,,,,,,,,,,,,,,,,,,,,,,,,,,,,,,,,,,,,,,,,,,,,,,,,,,,,,,,,,,,,,,,,,,,,,,,,,,,,,,,,,,,,,,,,,,,,,,,,,,,
,,,,,,5f573b18a6a8b51a94fdbd08,62c5388dc05c36cbf9f6d3ff,2022-07-06_02h42.51.219,Colour_Asymmetry_Pilot,2022.1.3,Win32,11.99630514,62c50e9c1127f2cd403a315f,0,103,103,48,1,onetwo,,,,,,,,,,,,,,,,,,,,,,,,,,,,,,,,,,,,,,,,,,,,,,,,,,,,,,,,,,,,,,,,,,,,,,,,,,,,,,,,,,,,,,,,,,,,,,,,,,,,,,,,,,,,,,,,,,,,,,,,,,,,,,,,,,,,,,,,,,,,,,,,,,,,,,,,,,,,,
,,,,,,5f573b18a6a8b51a94fdbd08,62c5388dc05c36cbf9f6d3ff,2022-07-06_02h42.51.219,Colour_Asymmetry_Pilot,2022.1.3,Win32,11.99630514,62c50e9c1127f2cd403a315f,0,104,104,71,1,fourthree,,,,,,,,,,,,,,,,,,,,,,,,,,,,,,,,,,,,,,,,,,,,,,,,,,,,,,,,,,,,,,,,,,,,,,,,,,,,,,,,,,,,,,,,,,,,,,,,,,,,,,,,,,,,,,,,,,,,,,,,,,,,,,,,,,,,,,,,,,,,,,,,,,,,,,,,,,,,,
,,,,,,5f573b18a6a8b51a94fdbd08,62c5388dc05c36cbf9f6d3ff,2022-07-06_02h42.51.219,Colour_Asymmetry_Pilot,2022.1.3,Win32,11.99630514,62c50e9c1127f2cd403a315f,0,105,105,86,1,fourtwo,,,,,,,,,,,,,,,,,,,,,,,,,,,,,,,,,,,,,,,,,,,,,,,,,,,,,,,,,,,,,,,,,,,,,,,,,,,,,,,,,,,,,,,,,,,,,,,,,,,,,,,,,,,,,,,,,,,,,,,,,,,,,,,,,,,,,,,,,,,,,,,,,,,,,,,,,,,,,
,,,,,,5f573b18a6a8b51a94fdbd08,62c5388dc05c36cbf9f6d3ff,2022-07-06_02h42.51.219,Colour_Asymmetry_Pilot,2022.1.3,Win32,11.99630514,62c50e9c1127f2cd403a315f,0,106,106,129,1,onethree,,,,,,,,,,,,,,,,,,,,,,,,,,,,,,,,,,,,,,,,,,,,,,,,,,,,,,,,,,,,,,,,,,,,,,,,,,,,,,,,,,,,,,,,,,,,,,,,,,,,,,,,,,,,,,,,,,,,,,,,,,,,,,,,,,,,,,,,,,,,,,,,,,,,,,,,,,,,,
,,,,,,5f573b18a6a8b51a94fdbd08,62c5388dc05c36cbf9f6d3ff,2022-07-06_02h42.51.219,Colour_Asymmetry_Pilot,2022.1.3,Win32,11.99630514,62c50e9c1127f2cd403a315f,0,107,107,47,1,fourthree,,,,,,,,,,,,,,,,,,,,,,,,,,,,,,,,,,,,,,,,,,,,,,,,,,,,,,,,,,,,,,,,,,,,,,,,,,,,,,,,,,,,,,,,,,,,,,,,,,,,,,,,,,,,,,,,,,,,,,,,,,,,,,,,,,,,,,,,,,,,,,,,,,,,,,,,,,,,,
,,,,,,5f573b18a6a8b51a94fdbd08,62c5388dc05c36cbf9f6d3ff,2022-07-06_02h42.51.219,Colour_Asymmetry_Pilot,2022.1.3,Win32,11.99630514,62c50e9c1127f2cd403a315f,0,108,108,21,1,threefour,,,,,,,,,,,,,,,,,,,,,,,,,,,,,,,,,,,,,,,,,,,,,,,,,,,,,,,,,,,,,,,,,,,,,,,,,,,,,,,,,,,,,,,,,,,,,,,,,,,,,,,,,,,,,,,,,,,,,,,,,,,,,,,,,,,,,,,,,,,,,,,,,,,,,,,,,,,,,
,,,,,,5f573b18a6a8b51a94fdbd08,62c5388dc05c36cbf9f6d3ff,2022-07-06_02h42.51.219,Colour_Asymmetry_Pilot,2022.1.3,Win32,11.99630514,62c50e9c1127f2cd403a315f,0,109,109,107,1,twofour,,,,,,,,,,,,,,,,,,,,,,,,,,,,,,,,,,,,,,,,,,,,,,,,,,,,,,,,,,,,,,,,,,,,,,,,,,,,,,,,,,,,,,,,,,,,,,,,,,,,,,,,,,,,,,,,,,,,,,,,,,,,,,,,,,,,,,,,,,,,,,,,,,,,,,,,,,,,,
,,,,,,5f573b18a6a8b51a94fdbd08,62c5388dc05c36cbf9f6d3ff,2022-07-06_02h42.51.219,Colour_Asymmetry_Pilot,2022.1.3,Win32,11.99630514,62c50e9c1127f2cd403a315f,0,110,110,126,1,fourtwo,,,,,,,,,,,,,,,,,,,,,,,,,,,,,,,,,,,,,,,,,,,,,,,,,,,,,,,,,,,,,,,,,,,,,,,,,,,,,,,,,,,,,,,,,,,,,,,,,,,,,,,,,,,,,,,,,,,,,,,,,,,,,,,,,,,,,,,,,,,,,,,,,,,,,,,,,,,,,
,,,,,,5f573b18a6a8b51a94fdbd08,62c5388dc05c36cbf9f6d3ff,2022-07-06_02h42.51.219,Colour_Asymmetry_Pilot,2022.1.3,Win32,11.99630514,62c50e9c1127f2cd403a315f,0,111,111,90,1,twoone,,,,,,,,,,,,,,,,,,,,,,,,,,,,,,,,,,,,,,,,,,,,,,,,,,,,,,,,,,,,,,,,,,,,,,,,,,,,,,,,,,,,,,,,,,,,,,,,,,,,,,,,,,,,,,,,,,,,,,,,,,,,,,,,,,,,,,,,,,,,,,,,,,,,,,,,,,,,,
,,,,,,5f573b18a6a8b51a94fdbd08,62c5388dc05c36cbf9f6d3ff,2022-07-06_02h42.51.219,Colour_Asymmetry_Pilot,2022.1.3,Win32,11.99630514,62c50e9c1127f2cd403a315f,0,112,112,58,1,twoone,,,,,,,,,,,,,,,,,,,,,,,,,,,,,,,,,,,,,,,,,,,,,,,,,,,,,,,,,,,,,,,,,,,,,,,,,,,,,,,,,,,,,,,,,,,,,,,,,,,,,,,,,,,,,,,,,,,,,,,,,,,,,,,,,,,,,,,,,,,,,,,,,,,,,,,,,,,,,
,,,,,,5f573b18a6a8b51a94fdbd08,62c5388dc05c36cbf9f6d3ff,2022-07-06_02h42.51.219,Colour_Asymmetry_Pilot,2022.1.3,Win32,11.99630514,62c50e9c1127f2cd403a315f,0,113,113,128,1,onetwo,,,,,,,,,,,,,,,,,,,,,,,,,,,,,,,,,,,,,,,,,,,,,,,,,,,,,,,,,,,,,,,,,,,,,,,,,,,,,,,,,,,,,,,,,,,,,,,,,,,,,,,,,,,,,,,,,,,,,,,,,,,,,,,,,,,,,,,,,,,,,,,,,,,,,,,,,,,,,
,,,,,,5f573b18a6a8b51a94fdbd08,62c5388dc05c36cbf9f6d3ff,2022-07-06_02h42.51.219,Colour_Asymmetry_Pilot,2022.1.3,Win32,11.99630514,62c50e9c1127f2cd403a315f,0,114,114,112,1,onetwo,,,,,,,,,,,,,,,,,,,,,,,,,,,,,,,,,,,,,,,,,,,,,,,,,,,,,,,,,,,,,,,,,,,,,,,,,,,,,,,,,,,,,,,,,,,,,,,,,,,,,,,,,,,,,,,,,,,,,,,,,,,,,,,,,,,,,,,,,,,,,,,,,,,,,,,,,,,,,
,,,,,,5f573b18a6a8b51a94fdbd08,62c5388dc05c36cbf9f6d3ff,2022-07-06_02h42.51.219,Colour_Asymmetry_Pilot,2022.1.3,Win32,11.99630514,62c50e9c1127f2cd403a315f,0,115,115,81,1,onethree,,,,,,,,,,,,,,,,,,,,,,,,,,,,,,,,,,,,,,,,,,,,,,,,,,,,,,,,,,,,,,,,,,,,,,,,,,,,,,,,,,,,,,,,,,,,,,,,,,,,,,,,,,,,,,,,,,,,,,,,,,,,,,,,,,,,,,,,,,,,,,,,,,,,,,,,,,,,,
,,,,,,5f573b18a6a8b51a94fdbd08,62c5388dc05c36cbf9f6d3ff,2022-07-06_02h42.51.219,Colour_Asymmetry_Pilot,2022.1.3,Win32,11.99630514,62c50e9c1127f2cd403a315f,0,116,116,120,1,onetwo,,,,,,,,,,,,,,,,,,,,,,,,,,,,,,,,,,,,,,,,,,,,,,,,,,,,,,,,,,,,,,,,,,,,,,,,,,,,,,,,,,,,,,,,,,,,,,,,,,,,,,,,,,,,,,,,,,,,,,,,,,,,,,,,,,,,,,,,,,,,,,,,,,,,,,,,,,,,,
,,,,,,5f573b18a6a8b51a94fdbd08,62c5388dc05c36cbf9f6d3ff,2022-07-06_02h42.51.219,Colour_Asymmetry_Pilot,2022.1.3,Win32,11.99630514,62c50e9c1127f2cd403a315f,0,117,117,23,1,fourthree,,,,,,,,,,,,,,,,,,,,,,,,,,,,,,,,,,,,,,,,,,,,,,,,,,,,,,,,,,,,,,,,,,,,,,,,,,,,,,,,,,,,,,,,,,,,,,,,,,,,,,,,,,,,,,,,,,,,,,,,,,,,,,,,,,,,,,,,,,,,,,,,,,,,,,,,,,,,,
,,,,,,5f573b18a6a8b51a94fdbd08,62c5388dc05c36cbf9f6d3ff,2022-07-06_02h42.51.219,Colour_Asymmetry_Pilot,2022.1.3,Win32,11.99630514,62c50e9c1127f2cd403a315f,0,118,118,20,1,threeone,,,,,,,,,,,,,,,,,,,,,,,,,,,,,,,,,,,,,,,,,,,,,,,,,,,,,,,,,,,,,,,,,,,,,,,,,,,,,,,,,,,,,,,,,,,,,,,,,,,,,,,,,,,,,,,,,,,,,,,,,,,,,,,,,,,,,,,,,,,,,,,,,,,,,,,,,,,,,
,,,,,,5f573b18a6a8b51a94fdbd08,62c5388dc05c36cbf9f6d3ff,2022-07-06_02h42.51.219,Colour_Asymmetry_Pilot,2022.1.3,Win32,11.99630514,62c50e9c1127f2cd403a315f,0,119,119,99,1,twofour,,,,,,,,,,,,,,,,,,,,,,,,,,,,,,,,,,,,,,,,,,,,,,,,,,,,,,,,,,,,,,,,,,,,,,,,,,,,,,,,,,,,,,,,,,,,,,,,,,,,,,,,,,,,,,,,,,,,,,,,,,,,,,,,,,,,,,,,,,,,,,,,,,,,,,,,,,,,,
,,,,,,5f573b18a6a8b51a94fdbd08,62c5388dc05c36cbf9f6d3ff,2022-07-06_02h42.51.219,Colour_Asymmetry_Pilot,2022.1.3,Win32,11.99630514,62c50e9c1127f2cd403a315f,0,120,120,115,1,twofour,,,,,,,,,,,,,,,,,,,,,,,,,,,,,,,,,,,,,,,,,,,,,,,,,,,,,,,,,,,,,,,,,,,,,,,,,,,,,,,,,,,,,,,,,,,,,,,,,,,,,,,,,,,,,,,,,,,,,,,,,,,,,,,,,,,,,,,,,,,,,,,,,,,,,,,,,,,,,
,,,,,,5f573b18a6a8b51a94fdbd08,62c5388dc05c36cbf9f6d3ff,2022-07-06_02h42.51.219,Colour_Asymmetry_Pilot,2022.1.3,Win32,11.99630514,62c50e9c1127f2cd403a315f,0,121,121,31,1,fourthree,,,,,,,,,,,,,,,,,,,,,,,,,,,,,,,,,,,,,,,,,,,,,,,,,,,,,,,,,,,,,,,,,,,,,,,,,,,,,,,,,,,,,,,,,,,,,,,,,,,,,,,,,,,,,,,,,,,,,,,,,,,,,,,,,,,,,,,,,,,,,,,,,,,,,,,,,,,,,
,,,,,,5f573b18a6a8b51a94fdbd08,62c5388dc05c36cbf9f6d3ff,2022-07-06_02h42.51.219,Colour_Asymmetry_Pilot,2022.1.3,Win32,11.99630514,62c50e9c1127f2cd403a315f,0,122,122,78,1,fourtwo,,,,,,,,,,,,,,,,,,,,,,,,,,,,,,,,,,,,,,,,,,,,,,,,,,,,,,,,,,,,,,,,,,,,,,,,,,,,,,,,,,,,,,,,,,,,,,,,,,,,,,,,,,,,,,,,,,,,,,,,,,,,,,,,,,,,,,,,,,,,,,,,,,,,,,,,,,,,,
,,,,,,5f573b18a6a8b51a94fdbd08,62c5388dc05c36cbf9f6d3ff,2022-07-06_02h42.51.219,Colour_Asymmetry_Pilot,2022.1.3,Win32,11.99630514,62c50e9c1127f2cd403a315f,0,123,123,141,1,threefour,,,,,,,,,,,,,,,,,,,,,,,,,,,,,,,,,,,,,,,,,,,,,,,,,,,,,,,,,,,,,,,,,,,,,,,,,,,,,,,,,,,,,,,,,,,,,,,,,,,,,,,,,,,,,,,,,,,,,,,,,,,,,,,,,,,,,,,,,,,,,,,,,,,,,,,,,,,,,
,,,,,,5f573b18a6a8b51a94fdbd08,62c5388dc05c36cbf9f6d3ff,2022-07-06_02h42.51.219,Colour_Asymmetry_Pilot,2022.1.3,Win32,11.99630514,62c50e9c1127f2cd403a315f,0,124,124,42,1,twoone,,,,,,,,,,,,,,,,,,,,,,,,,,,,,,,,,,,,,,,,,,,,,,,,,,,,,,,,,,,,,,,,,,,,,,,,,,,,,,,,,,,,,,,,,,,,,,,,,,,,,,,,,,,,,,,,,,,,,,,,,,,,,,,,,,,,,,,,,,,,,,,,,,,,,,,,,,,,,
,,,,,,5f573b18a6a8b51a94fdbd08,62c5388dc05c36cbf9f6d3ff,2022-07-06_02h42.51.219,Colour_Asymmetry_Pilot,2022.1.3,Win32,11.99630514,62c50e9c1127f2cd403a315f,0,125,125,92,1,threeone,,,,,,,,,,,,,,,,,,,,,,,,,,,,,,,,,,,,,,,,,,,,,,,,,,,,,,,,,,,,,,,,,,,,,,,,,,,,,,,,,,,,,,,,,,,,,,,,,,,,,,,,,,,,,,,,,,,,,,,,,,,,,,,,,,,,,,,,,,,,,,,,,,,,,,,,,,,,,
,,,,,,5f573b18a6a8b51a94fdbd08,62c5388dc05c36cbf9f6d3ff,2022-07-06_02h42.51.219,Colour_Asymmetry_Pilot,2022.1.3,Win32,11.99630514,62c50e9c1127f2cd403a315f,0,126,126,49,1,onethree,,,,,,,,,,,,,,,,,,,,,,,,,,,,,,,,,,,,,,,,,,,,,,,,,,,,,,,,,,,,,,,,,,,,,,,,,,,,,,,,,,,,,,,,,,,,,,,,,,,,,,,,,,,,,,,,,,,,,,,,,,,,,,,,,,,,,,,,,,,,,,,,,,,,,,,,,,,,,
,,,,,,5f573b18a6a8b51a94fdbd08,62c5388dc05c36cbf9f6d3ff,2022-07-06_02h42.51.219,Colour_Asymmetry_Pilot,2022.1.3,Win32,11.99630514,62c50e9c1127f2cd403a315f,0,127,127,95,1,fourthree,,,,,,,,,,,,,,,,,,,,,,,,,,,,,,,,,,,,,,,,,,,,,,,,,,,,,,,,,,,,,,,,,,,,,,,,,,,,,,,,,,,,,,,,,,,,,,,,,,,,,,,,,,,,,,,,,,,,,,,,,,,,,,,,,,,,,,,,,,,,,,,,,,,,,,,,,,,,,
,,,,,,5f573b18a6a8b51a94fdbd08,62c5388dc05c36cbf9f6d3ff,2022-07-06_02h42.51.219,Colour_Asymmetry_Pilot,2022.1.3,Win32,11.99630514,62c50e9c1127f2cd403a315f,0,128,128,55,1,fourthree,,,,,,,,,,,,,,,,,,,,,,,,,,,,,,,,,,,,,,,,,,,,,,,,,,,,,,,,,,,,,,,,,,,,,,,,,,,,,,,,,,,,,,,,,,,,,,,,,,,,,,,,,,,,,,,,,,,,,,,,,,,,,,,,,,,,,,,,,,,,,,,,,,,,,,,,,,,,,
,,,,,,5f573b18a6a8b51a94fdbd08,62c5388dc05c36cbf9f6d3ff,2022-07-06_02h42.51.219,Colour_Asymmetry_Pilot,2022.1.3,Win32,11.99630514,62c50e9c1127f2cd403a315f,0,129,129,156,1,threeone,,,,,,,,,,,,,,,,,,,,,,,,,,,,,,,,,,,,,,,,,,,,,,,,,,,,,,,,,,,,,,,,,,,,,,,,,,,,,,,,,,,,,,,,,,,,,,,,,,,,,,,,,,,,,,,,,,,,,,,,,,,,,,,,,,,,,,,,,,,,,,,,,,,,,,,,,,,,,
,,,,,,5f573b18a6a8b51a94fdbd08,62c5388dc05c36cbf9f6d3ff,2022-07-06_02h42.51.219,Colour_Asymmetry_Pilot,2022.1.3,Win32,11.99630514,62c50e9c1127f2cd403a315f,0,130,130,6,1,fourtwo,,,,,,,,,,,,,,,,,,,,,,,,,,,,,,,,,,,,,,,,,,,,,,,,,,,,,,,,,,,,,,,,,,,,,,,,,,,,,,,,,,,,,,,,,,,,,,,,,,,,,,,,,,,,,,,,,,,,,,,,,,,,,,,,,,,,,,,,,,,,,,,,,,,,,,,,,,,,,
,,,,,,5f573b18a6a8b51a94fdbd08,62c5388dc05c36cbf9f6d3ff,2022-07-06_02h42.51.219,Colour_Asymmetry_Pilot,2022.1.3,Win32,11.99630514,62c50e9c1127f2cd403a315f,0,131,131,144,1,onetwo,,,,,,,,,,,,,,,,,,,,,,,,,,,,,,,,,,,,,,,,,,,,,,,,,,,,,,,,,,,,,,,,,,,,,,,,,,,,,,,,,,,,,,,,,,,,,,,,,,,,,,,,,,,,,,,,,,,,,,,,,,,,,,,,,,,,,,,,,,,,,,,,,,,,,,,,,,,,,
,,,,,,5f573b18a6a8b51a94fdbd08,62c5388dc05c36cbf9f6d3ff,2022-07-06_02h42.51.219,Colour_Asymmetry_Pilot,2022.1.3,Win32,11.99630514,62c50e9c1127f2cd403a315f,0,132,132,142,1,fourtwo,,,,,,,,,,,,,,,,,,,,,,,,,,,,,,,,,,,,,,,,,,,,,,,,,,,,,,,,,,,,,,,,,,,,,,,,,,,,,,,,,,,,,,,,,,,,,,,,,,,,,,,,,,,,,,,,,,,,,,,,,,,,,,,,,,,,,,,,,,,,,,,,,,,,,,,,,,,,,
,,,,,,5f573b18a6a8b51a94fdbd08,62c5388dc05c36cbf9f6d3ff,2022-07-06_02h42.51.219,Colour_Asymmetry_Pilot,2022.1.3,Win32,11.99630514,62c50e9c1127f2cd403a315f,0,133,133,94,1,fourtwo,,,,,,,,,,,,,,,,,,,,,,,,,,,,,,,,,,,,,,,,,,,,,,,,,,,,,,,,,,,,,,,,,,,,,,,,,,,,,,,,,,,,,,,,,,,,,,,,,,,,,,,,,,,,,,,,,,,,,,,,,,,,,,,,,,,,,,,,,,,,,,,,,,,,,,,,,,,,,
,,,,,,5f573b18a6a8b51a94fdbd08,62c5388dc05c36cbf9f6d3ff,2022-07-06_02h42.51.219,Colour_Asymmetry_Pilot,2022.1.3,Win32,11.99630514,62c50e9c1127f2cd403a315f,0,134,134,29,1,threefour,,,,,,,,,,,,,,,,,,,,,,,,,,,,,,,,,,,,,,,,,,,,,,,,,,,,,,,,,,,,,,,,,,,,,,,,,,,,,,,,,,,,,,,,,,,,,,,,,,,,,,,,,,,,,,,,,,,,,,,,,,,,,,,,,,,,,,,,,,,,,,,,,,,,,,,,,,,,,
,,,,,,5f573b18a6a8b51a94fdbd08,62c5388dc05c36cbf9f6d3ff,2022-07-06_02h42.51.219,Colour_Asymmetry_Pilot,2022.1.3,Win32,11.99630514,62c50e9c1127f2cd403a315f,0,135,135,10,1,twoone,,,,,,,,,,,,,,,,,,,,,,,,,,,,,,,,,,,,,,,,,,,,,,,,,,,,,,,,,,,,,,,,,,,,,,,,,,,,,,,,,,,,,,,,,,,,,,,,,,,,,,,,,,,,,,,,,,,,,,,,,,,,,,,,,,,,,,,,,,,,,,,,,,,,,,,,,,,,,
,,,,,,5f573b18a6a8b51a94fdbd08,62c5388dc05c36cbf9f6d3ff,2022-07-06_02h42.51.219,Colour_Asymmetry_Pilot,2022.1.3,Win32,11.99630514,62c50e9c1127f2cd403a315f,0,136,136,70,1,fourtwo,,,,,,,,,,,,,,,,,,,,,,,,,,,,,,,,,,,,,,,,,,,,,,,,,,,,,,,,,,,,,,,,,,,,,,,,,,,,,,,,,,,,,,,,,,,,,,,,,,,,,,,,,,,,,,,,,,,,,,,,,,,,,,,,,,,,,,,,,,,,,,,,,,,,,,,,,,,,,
,,,,,,5f573b18a6a8b51a94fdbd08,62c5388dc05c36cbf9f6d3ff,2022-07-06_02h42.51.219,Colour_Asymmetry_Pilot,2022.1.3,Win32,11.99630514,62c50e9c1127f2cd403a315f,0,137,137,63,1,fourthree,,,,,,,,,,,,,,,,,,,,,,,,,,,,,,,,,,,,,,,,,,,,,,,,,,,,,,,,,,,,,,,,,,,,,,,,,,,,,,,,,,,,,,,,,,,,,,,,,,,,,,,,,,,,,,,,,,,,,,,,,,,,,,,,,,,,,,,,,,,,,,,,,,,,,,,,,,,,,
,,,,,,5f573b18a6a8b51a94fdbd08,62c5388dc05c36cbf9f6d3ff,2022-07-06_02h42.51.219,Colour_Asymmetry_Pilot,2022.1.3,Win32,11.99630514,62c50e9c1127f2cd403a315f,0,138,138,79,1,fourthree,,,,,,,,,,,,,,,,,,,,,,,,,,,,,,,,,,,,,,,,,,,,,,,,,,,,,,,,,,,,,,,,,,,,,,,,,,,,,,,,,,,,,,,,,,,,,,,,,,,,,,,,,,,,,,,,,,,,,,,,,,,,,,,,,,,,,,,,,,,,,,,,,,,,,,,,,,,,,
,,,,,,5f573b18a6a8b51a94fdbd08,62c5388dc05c36cbf9f6d3ff,2022-07-06_02h42.51.219,Colour_Asymmetry_Pilot,2022.1.3,Win32,11.99630514,62c50e9c1127f2cd403a315f,0,139,139,2,1,twoone,,,,,,,,,,,,,,,,,,,,,,,,,,,,,,,,,,,,,,,,,,,,,,,,,,,,,,,,,,,,,,,,,,,,,,,,,,,,,,,,,,,,,,,,,,,,,,,,,,,,,,,,,,,,,,,,,,,,,,,,,,,,,,,,,,,,,,,,,,,,,,,,,,,,,,,,,,,,,
,,,,,,5f573b18a6a8b51a94fdbd08,62c5388dc05c36cbf9f6d3ff,2022-07-06_02h42.51.219,Colour_Asymmetry_Pilot,2022.1.3,Win32,11.99630514,62c50e9c1127f2cd403a315f,0,140,140,73,1,onethree,,,,,,,,,,,,,,,,,,,,,,,,,,,,,,,,,,,,,,,,,,,,,,,,,,,,,,,,,,,,,,,,,,,,,,,,,,,,,,,,,,,,,,,,,,,,,,,,,,,,,,,,,,,,,,,,,,,,,,,,,,,,,,,,,,,,,,,,,,,,,,,,,,,,,,,,,,,,,
,,,,,,5f573b18a6a8b51a94fdbd08,62c5388dc05c36cbf9f6d3ff,2022-07-06_02h42.51.219,Colour_Asymmetry_Pilot,2022.1.3,Win32,11.99630514,62c50e9c1127f2cd403a315f,0,141,141,50,1,twoone,,,,,,,,,,,,,,,,,,,,,,,,,,,,,,,,,,,,,,,,,,,,,,,,,,,,,,,,,,,,,,,,,,,,,,,,,,,,,,,,,,,,,,,,,,,,,,,,,,,,,,,,,,,,,,,,,,,,,,,,,,,,,,,,,,,,,,,,,,,,,,,,,,,,,,,,,,,,,
,,,,,,5f573b18a6a8b51a94fdbd08,62c5388dc05c36cbf9f6d3ff,2022-07-06_02h42.51.219,Colour_Asymmetry_Pilot,2022.1.3,Win32,11.99630514,62c50e9c1127f2cd403a315f,0,142,142,109,1,threefour,,,,,,,,,,,,,,,,,,,,,,,,,,,,,,,,,,,,,,,,,,,,,,,,,,,,,,,,,,,,,,,,,,,,,,,,,,,,,,,,,,,,,,,,,,,,,,,,,,,,,,,,,,,,,,,,,,,,,,,,,,,,,,,,,,,,,,,,,,,,,,,,,,,,,,,,,,,,,
,,,,,,5f573b18a6a8b51a94fdbd08,62c5388dc05c36cbf9f6d3ff,2022-07-06_02h42.51.219,Colour_Asymmetry_Pilot,2022.1.3,Win32,11.99630514,62c50e9c1127f2cd403a315f,0,143,143,46,1,fourtwo,,,,,,,,,,,,,,,,,,,,,,,,,,,,,,,,,,,,,,,,,,,,,,,,,,,,,,,,,,,,,,,,,,,,,,,,,,,,,,,,,,,,,,,,,,,,,,,,,,,,,,,,,,,,,,,,,,,,,,,,,,,,,,,,,,,,,,,,,,,,,,,,,,,,,,,,,,,,,
,,,,,,5f573b18a6a8b51a94fdbd08,62c5388dc05c36cbf9f6d3ff,2022-07-06_02h42.51.219,Colour_Asymmetry_Pilot,2022.1.3,Win32,11.99630514,62c50e9c1127f2cd403a315f,0,144,144,85,1,threefour,,,,,,,,,,,,,,,,,,,,,,,,,,,,,,,,,,,,,,,,,,,,,,,,,,,,,,,,,,,,,,,,,,,,,,,,,,,,,,,,,,,,,,,,,,,,,,,,,,,,,,,,,,,,,,,,,,,,,,,,,,,,,,,,,,,,,,,,,,,,,,,,,,,,,,,,,,,,,
,,,,,,5f573b18a6a8b51a94fdbd08,62c5388dc05c36cbf9f6d3ff,2022-07-06_02h42.51.219,Colour_Asymmetry_Pilot,2022.1.3,Win32,11.99630514,62c50e9c1127f2cd403a315f,0,145,145,135,1,fourthree,,,,,,,,,,,,,,,,,,,,,,,,,,,,,,,,,,,,,,,,,,,,,,,,,,,,,,,,,,,,,,,,,,,,,,,,,,,,,,,,,,,,,,,,,,,,,,,,,,,,,,,,,,,,,,,,,,,,,,,,,,,,,,,,,,,,,,,,,,,,,,,,,,,,,,,,,,,,,
,,,,,,5f573b18a6a8b51a94fdbd08,62c5388dc05c36cbf9f6d3ff,2022-07-06_02h42.51.219,Colour_Asymmetry_Pilot,2022.1.3,Win32,11.99630514,62c50e9c1127f2cd403a315f,0,146,146,140,1,threeone,,,,,,,,,,,,,,,,,,,,,,,,,,,,,,,,,,,,,,,,,,,,,,,,,,,,,,,,,,,,,,,,,,,,,,,,,,,,,,,,,,,,,,,,,,,,,,,,,,,,,,,,,,,,,,,,,,,,,,,,,,,,,,,,,,,,,,,,,,,,,,,,,,,,,,,,,,,,,
,,,,,,5f573b18a6a8b51a94fdbd08,62c5388dc05c36cbf9f6d3ff,2022-07-06_02h42.51.219,Colour_Asymmetry_Pilot,2022.1.3,Win32,11.99630514,62c50e9c1127f2cd403a315f,0,147,147,157,1,threefour,,,,,,,,,,,,,,,,,,,,,,,,,,,,,,,,,,,,,,,,,,,,,,,,,,,,,,,,,,,,,,,,,,,,,,,,,,,,,,,,,,,,,,,,,,,,,,,,,,,,,,,,,,,,,,,,,,,,,,,,,,,,,,,,,,,,,,,,,,,,,,,,,,,,,,,,,,,,,
,,,,,,5f573b18a6a8b51a94fdbd08,62c5388dc05c36cbf9f6d3ff,2022-07-06_02h42.51.219,Colour_Asymmetry_Pilot,2022.1.3,Win32,11.99630514,62c50e9c1127f2cd403a315f,0,148,148,37,1,threefour,,,,,,,,,,,,,,,,,,,,,,,,,,,,,,,,,,,,,,,,,,,,,,,,,,,,,,,,,,,,,,,,,,,,,,,,,,,,,,,,,,,,,,,,,,,,,,,,,,,,,,,,,,,,,,,,,,,,,,,,,,,,,,,,,,,,,,,,,,,,,,,,,,,,,,,,,,,,,
,,,,,,5f573b18a6a8b51a94fdbd08,62c5388dc05c36cbf9f6d3ff,2022-07-06_02h42.51.219,Colour_Asymmetry_Pilot,2022.1.3,Win32,11.99630514,62c50e9c1127f2cd403a315f,0,149,149,39,1,fourthree,,,,,,,,,,,,,,,,,,,,,,,,,,,,,,,,,,,,,,,,,,,,,,,,,,,,,,,,,,,,,,,,,,,,,,,,,,,,,,,,,,,,,,,,,,,,,,,,,,,,,,,,,,,,,,,,,,,,,,,,,,,,,,,,,,,,,,,,,,,,,,,,,,,,,,,,,,,,,
,,,,,,5f573b18a6a8b51a94fdbd08,62c5388dc05c36cbf9f6d3ff,2022-07-06_02h42.51.219,Colour_Asymmetry_Pilot,2022.1.3,Win32,11.99630514,62c50e9c1127f2cd403a315f,0,150,150,33,1,onethree,,,,,,,,,,,,,,,,,,,,,,,,,,,,,,,,,,,,,,,,,,,,,,,,,,,,,,,,,,,,,,,,,,,,,,,,,,,,,,,,,,,,,,,,,,,,,,,,,,,,,,,,,,,,,,,,,,,,,,,,,,,,,,,,,,,,,,,,,,,,,,,,,,,,,,,,,,,,,
,,,,,,5f573b18a6a8b51a94fdbd08,62c5388dc05c36cbf9f6d3ff,2022-07-06_02h42.51.219,Colour_Asymmetry_Pilot,2022.1.3,Win32,11.99630514,62c50e9c1127f2cd403a315f,0,151,151,151,1,fourthree,,,,,,,,,,,,,,,,,,,,,,,,,,,,,,,,,,,,,,,,,,,,,,,,,,,,,,,,,,,,,,,,,,,,,,,,,,,,,,,,,,,,,,,,,,,,,,,,,,,,,,,,,,,,,,,,,,,,,,,,,,,,,,,,,,,,,,,,,,,,,,,,,,,,,,,,,,,,,
,,,,,,5f573b18a6a8b51a94fdbd08,62c5388dc05c36cbf9f6d3ff,2022-07-06_02h42.51.219,Colour_Asymmetry_Pilot,2022.1.3,Win32,11.99630514,62c50e9c1127f2cd403a315f,0,152,152,88,1,onetwo,,,,,,,,,,,,,,,,,,,,,,,,,,,,,,,,,,,,,,,,,,,,,,,,,,,,,,,,,,,,,,,,,,,,,,,,,,,,,,,,,,,,,,,,,,,,,,,,,,,,,,,,,,,,,,,,,,,,,,,,,,,,,,,,,,,,,,,,,,,,,,,,,,,,,,,,,,,,,
,,,,,,5f573b18a6a8b51a94fdbd08,62c5388dc05c36cbf9f6d3ff,2022-07-06_02h42.51.219,Colour_Asymmetry_Pilot,2022.1.3,Win32,11.99630514,62c50e9c1127f2cd403a315f,0,153,153,122,1,twoone,,,,,,,,,,,,,,,,,,,,,,,,,,,,,,,,,,,,,,,,,,,,,,,,,,,,,,,,,,,,,,,,,,,,,,,,,,,,,,,,,,,,,,,,,,,,,,,,,,,,,,,,,,,,,,,,,,,,,,,,,,,,,,,,,,,,,,,,,,,,,,,,,,,,,,,,,,,,,
,,,,,,5f573b18a6a8b51a94fdbd08,62c5388dc05c36cbf9f6d3ff,2022-07-06_02h42.51.219,Colour_Asymmetry_Pilot,2022.1.3,Win32,11.99630514,62c50e9c1127f2cd403a315f,0,154,154,0,1,onetwo,,,,,,,,,,,,,,,,,,,,,,,,,,,,,,,,,,,,,,,,,,,,,,,,,,,,,,,,,,,,,,,,,,,,,,,,,,,,,,,,,,,,,,,,,,,,,,,,,,,,,,,,,,,,,,,,,,,,,,,,,,,,,,,,,,,,,,,,,,,,,,,,,,,,,,,,,,,,,
,,,,,,5f573b18a6a8b51a94fdbd08,62c5388dc05c36cbf9f6d3ff,2022-07-06_02h42.51.219,Colour_Asymmetry_Pilot,2022.1.3,Win32,11.99630514,62c50e9c1127f2cd403a315f,0,155,155,62,1,fourtwo,,,,,,,,,,,,,,,,,,,,,,,,,,,,,,,,,,,,,,,,,,,,,,,,,,,,,,,,,,,,,,,,,,,,,,,,,,,,,,,,,,,,,,,,,,,,,,,,,,,,,,,,,,,,,,,,,,,,,,,,,,,,,,,,,,,,,,,,,,,,,,,,,,,,,,,,,,,,,
,,,,,,5f573b18a6a8b51a94fdbd08,62c5388dc05c36cbf9f6d3ff,2022-07-06_02h42.51.219,Colour_Asymmetry_Pilot,2022.1.3,Win32,11.99630514,62c50e9c1127f2cd403a315f,0,156,156,96,1,onetwo,,,,,,,,,,,,,,,,,,,,,,,,,,,,,,,,,,,,,,,,,,,,,,,,,,,,,,,,,,,,,,,,,,,,,,,,,,,,,,,,,,,,,,,,,,,,,,,,,,,,,,,,,,,,,,,,,,,,,,,,,,,,,,,,,,,,,,,,,,,,,,,,,,,,,,,,,,,,,
,,,,,,5f573b18a6a8b51a94fdbd08,62c5388dc05c36cbf9f6d3ff,2022-07-06_02h42.51.219,Colour_Asymmetry_Pilot,2022.1.3,Win32,11.99630514,62c50e9c1127f2cd403a315f,0,157,157,59,1,twofour,,,,,,,,,,,,,,,,,,,,,,,,,,,,,,,,,,,,,,,,,,,,,,,,,,,,,,,,,,,,,,,,,,,,,,,,,,,,,,,,,,,,,,,,,,,,,,,,,,,,,,,,,,,,,,,,,,,,,,,,,,,,,,,,,,,,,,,,,,,,,,,,,,,,,,,,,,,,,
,,,,,,5f573b18a6a8b51a94fdbd08,62c5388dc05c36cbf9f6d3ff,2022-07-06_02h42.51.219,Colour_Asymmetry_Pilot,2022.1.3,Win32,11.99630514,62c50e9c1127f2cd403a315f,0,158,158,114,1,twoone,,,,,,,,,,,,,,,,,,,,,,,,,,,,,,,,,,,,,,,,,,,,,,,,,,,,,,,,,,,,,,,,,,,,,,,,,,,,,,,,,,,,,,,,,,,,,,,,,,,,,,,,,,,,,,,,,,,,,,,,,,,,,,,,,,,,,,,,,,,,,,,,,,,,,,,,,,,,,
,,,,,,5f573b18a6a8b51a94fdbd08,62c5388dc05c36cbf9f6d3ff,2022-07-06_02h42.51.219,Colour_Asymmetry_Pilot,2022.1.3,Win32,11.99630514,62c50e9c1127f2cd403a315f,0,159,159,161,1,onethree,,,,,,,,,,,,,,,,,,,,,,,,,,,,,,,,,,,,,,,,,,,,,,,,,,,,,,,,,,,,,,,,,,,,,,,,,,,,,,,,,,,,,,,,,,,,,,,,,,,,,,,,,,,,,,,,,,,,,,,,,,,,,,,,,,,,,,,,,,,,,,,,,,,,,,,,,,,,,
,,,,,,5f573b18a6a8b51a94fdbd08,62c5388dc05c36cbf9f6d3ff,2022-07-06_02h42.51.219,Colour_Asymmetry_Pilot,2022.1.3,Win32,11.99630514,62c50e9c1127f2cd403a315f,0,160,160,118,1,fourtwo,,,,,,,,,,,,,,,,,,,,,,,,,,,,,,,,,,,,,,,,,,,,,,,,,,,,,,,,,,,,,,,,,,,,,,,,,,,,,,,,,,,,,,,,,,,,,,,,,,,,,,,,,,,,,,,,,,,,,,,,,,,,,,,,,,,,,,,,,,,,,,,,,,,,,,,,,,,,,
,,,,,,5f573b18a6a8b51a94fdbd08,62c5388dc05c36cbf9f6d3ff,2022-07-06_02h42.51.219,Colour_Asymmetry_Pilot,2022.1.3,Win32,11.99630514,62c50e9c1127f2cd403a315f,0,161,161,45,1,threefour,,,,,,,,,,,,,,,,,,,,,,,,,,,,,,,,,,,,,,,,,,,,,,,,,,,,,,,,,,,,,,,,,,,,,,,,,,,,,,,,,,,,,,,,,,,,,,,,,,,,,,,,,,,,,,,,,,,,,,,,,,,,,,,,,,,,,,,,,,,,,,,,,,,,,,,,,,,,,
,,,,,,5f573b18a6a8b51a94fdbd08,62c5388dc05c36cbf9f6d3ff,2022-07-06_02h42.51.219,Colour_Asymmetry_Pilot,2022.1.3,Win32,11.99630514,62c50e9c1127f2cd403a315f,,,,,,,space,7.9397,space,11.2491,space,86.7526,space,40.2839,space,7.367,space,19.2333,"[0.9372,0.20779999999999998,0.2704]",onethree,"[0.7018,0.7176,0.6155999999999999]",4,6.762,35,75,1,0,0,response1disk_5,2,0,1,0,0,rectangle_8,2,0,1,0,0,1,2,0,1,0,0,0,0,0,0,1,,,,,,,,,,,,,,,,,,,,,,,,,,,,,,,,,,,,,,,,,,,,,,,,,,,,,,,,,,,,,,,,,,,,,,,,,,,,,,,,,,,,,,,,,,,,,,,,,,,,,,,,,,,,,,,,
,,,,,,5f573b18a6a8b51a94fdbd08,62c5388dc05c36cbf9f6d3ff,2022-07-06_02h42.51.219,Colour_Asymmetry_Pilot,2022.1.3,Win32,11.99630514,62c50e9c1127f2cd403a315f,,,,,,,,,,,,,,,,,,,"[0.7646000000000002,0.07440000000000002,0.2704]",twoone,"[-0.9766,-0.6472,0.07440000000000002]",-4,2.2334,-42,84,1,0,0,response7disk_5,-4,-1,1,0,0,rectangle_8,-4,-1,1,0,0,1,-4,-1,1,0,0,1,0,1,0,1,,,,,,,,,,,,,,,,,,,,,,,,,,,,,,,,,,,,,,,,,,,,,,,,,,,,,,,,,,,,,,,,,,,,,,,,,,,,,,,,,,,,,,,,,,,,,,,,,,,,,,,,,,,,,,,,
,,,,,,5f573b18a6a8b51a94fdbd08,62c5388dc05c36cbf9f6d3ff,2022-07-06_02h42.51.219,Colour_Asymmetry_Pilot,2022.1.3,Win32,11.99630514,62c50e9c1127f2cd403a315f,,,,,,,,,,,,,,,,,,,"[-0.5688,-0.08239999999999992,-0.1844]",threefour,"[-0.20799999999999996,-0.655,-0.01980000000000004]",-4,6.9504,-38,78,1,0,0,response7disk_5,0,2,1,0,0,rectangle_8,29,-83,1,0,0,1,-1,-2,1,0,0,2,0,2,0,1,response3disk_7,4,rectangle_4,,,,,,,,,,,,,,,,,,,,,,,,,,,,,,,,,,,,,,,,,,,,,,,,,,,,,,,,,,,,,,,,,,,,,,,,,,,,,,,,,,,,,,,,,,,,,,,,,,,,,,,,,,,,,
,,,,,,5f573b18a6a8b51a94fdbd08,62c5388dc05c36cbf9f6d3ff,2022-07-06_02h42.51.219,Colour_Asymmetry_Pilot,2022.1.3,Win32,11.99630514,62c50e9c1127f2cd403a315f,,,,,,,,,,,,,,,,,,,"[0.19199999999999995,0.18419999999999992,0.5136000000000001]",threefour,"[-0.8118,-0.8198,-0.5452]",4,10.721,40,82,1,0,0,response1disk_5,3,-6,1,0,0,rectangle_8,3,-6,1,0,0,1,3,-6,1,0,0,3,0,3,0,1,,,,,,,,,,,,,,,,,,,,,,,,,,,,,,,,,,,,,,,,,,,,,,,,,,,,,,,,,,,,,,,,,,,,,,,,,,,,,,,,,,,,,,,,,,,,,,,,,,,,,,,,,,,,,,,,
,,,,,,5f573b18a6a8b51a94fdbd08,62c5388dc05c36cbf9f6d3ff,2022-07-06_02h42.51.219,Colour_Asymmetry_Pilot,2022.1.3,Win32,11.99630514,62c50e9c1127f2cd403a315f,,,,,,,,,,,,,,,,,,,"[0.6547999999999998,-0.043199999999999905,-0.011800000000000033]",threeone,"[-0.4668,-0.8746,-0.2942]",-2,5.5333,-67,-26,1,0,0,response5disk_5,-11,2,1,0,0,rectangle_8,29,-75,1,0,0,1,-2,5,1,0,0,4,0,4,0,1,response3disk_7,4,rectangle_4,,,,,,,,,,,,,,,,,,,,,,,,,,,,,,,,,,,,,,,,,,,,,,,,,,,,,,,,,,,,,,,,,,,,,,,,,,,,,,,,,,,,,,,,,,,,,,,,,,,,,,,,,,,,,
,,,,,,5f573b18a6a8b51a94fdbd08,62c5388dc05c36cbf9f6d3ff,2022-07-06_02h42.51.219,Colour_Asymmetry_Pilot,2022.1.3,Win32,11.99630514,62c50e9c1127f2cd403a315f,,,,,,,,,,,,,,,,,,,"[0.9686000000000001,0.5763999999999998,0.11359999999999992]",twofour,"[-0.9688,-0.4902000000000001,-0.12159999999999993]",-4,8.6684,-49,76,1,0,0,response7disk_5,0,-2,1,0,0,rectangle_8,0,-2,1,0,0,1,0,-2,1,0,0,5,0,5,0,1,,,,,,,,,,,,,,,,,,,,,,,,,,,,,,,,,,,,,,,,,,,,,,,,,,,,,,,,,,,,,,,,,,,,,,,,,,,,,,,,,,,,,,,,,,,,,,,,,,,,,,,,,,,,,,,,
,,,,,,5f573b18a6a8b51a94fdbd08,62c5388dc05c36cbf9f6d3ff,2022-07-06_02h42.51.219,Colour_Asymmetry_Pilot,2022.1.3,Win32,11.99630514,62c50e9c1127f2cd403a315f,,,,,,,,,,,,,,,,,,,"[-0.9688,-0.7412000000000001,-0.4902000000000001]",onethree,"[0.796,0.2156,-0.27859999999999996]",-2,3.971,-93,-24,1,0,0,response5disk_5,-10,0,1,0,0,rectangle_8,-10,0,1,0,0,1,-10,0,1,0,0,6,0,6,0,1,,,,,,,,,,,,,,,,,,,,,,,,,,,,,,,,,,,,,,,,,,,,,,,,,,,,,,,,,,,,,,,,,,,,,,,,,,,,,,,,,,,,,,,,,,,,,,,,,,,,,,,,,,,,,,,,
,,,,,,5f573b18a6a8b51a94fdbd08,62c5388dc05c36cbf9f6d3ff,2022-07-06_02h42.51.219,Colour_Asymmetry_Pilot,2022.1.3,Win32,11.99630514,62c50e9c1127f2cd403a315f,,,,,,,,,,,,,,,,,,,,onethree,,1,6.7706,,,,,,,,,,,,,,,,,,,,,,,,,,,,,,,,space,6.3869,"[0.09799999999999986,-0.24719999999999998,0.15280000000000005]","[-0.2942,-0.7648,-0.7492000000000001]",41,-70,1,0,0,response3disk,-1,5,1,0,0,rectangle,-1,5,1,0,0,,3,0.0018,0,-1,5,1,0,0,0,0,0,106,1,25,second,,,,,,,,,,,,,,,,,,,,,,,,,,,,,,,,,,,,,,,,,,,,,,,,,,,,,,,,,,,,,,,,,,,,,,,,
,,,,,,5f573b18a6a8b51a94fdbd08,62c5388dc05c36cbf9f6d3ff,2022-07-06_02h42.51.219,Colour_Asymmetry_Pilot,2022.1.3,Win32,11.99630514,62c50e9c1127f2cd403a315f,,,,,,,,,,,,,,,,,,,,twoone,,-1,2.5571,,,,,,,,,,,,,,,,,,,,,,,,,,,,,,,,,,"[0.23120000000000007,-0.7726,-0.34120000000000006]","[0.7018,0.7176,0.6155999999999999]",-48,-73,1,0,0,response5disk,2,7,1,0,0,rectangle,2,7,1,0,0,,3,0.0002,0,2,7,1,0,0,0,1,1,155,1,74,second,,,,,,,,,,,,,,,,,,,,,,,,,,,,,,,,,,,,,,,,,,,,,,,,,,,,,,,,,,,,,,,,,,,,,,,,
,,,,,,5f573b18a6a8b51a94fdbd08,62c5388dc05c36cbf9f6d3ff,2022-07-06_02h42.51.219,Colour_Asymmetry_Pilot,2022.1.3,Win32,11.99630514,62c50e9c1127f2cd403a315f,,,,,,,,,,,,,,,,,,,,threeone,,-1,2.9038,,,,,,,,,,,,,,,,,,,,,,,,,,,,,,,,,,"[-0.8198,-0.5138,-0.7492000000000001]","[0.9372,0.20779999999999998,0.2704]",-49,-73,1,0,0,response5disk,-5,3,1,0,0,rectangle,-5,3,1,0,0,,1,0.0011,0,-5,3,1,0,0,0,2,2,12,1,12,first,,,,,,,,,,,,,,,,,,,,,,,,,,,,,,,,,,,,,,,,,,,,,,,,,,,,,,,,,,,,,,,,,,,,,,,,
,,,,,,5f573b18a6a8b51a94fdbd08,62c5388dc05c36cbf9f6d3ff,2022-07-06_02h42.51.219,Colour_Asymmetry_Pilot,2022.1.3,Win32,11.99630514,62c50e9c1127f2cd403a315f,,,,,,,,,,,,,,,,,,,,twoone,,3,4.2327,,,,,,,,,,,,,,,,,,,,,,,,,,,,,,,,,,"[-0.06680000000000008,-0.45100000000000007,-0.906]","[0.37240000000000006,-0.050999999999999934,-0.5216]",86,34,1,0,0,response1disk,3,5,1,0,0,rectangle,3,5,1,0,0,,2,0.0011,0,3,5,1,0,0,0,3,3,110,1,29,second,,,,,,,,,,,,,,,,,,,,,,,,,,,,,,,,,,,,,,,,,,,,,,,,,,,,,,,,,,,,,,,,,,,,,,,,
,,,,,,5f573b18a6a8b51a94fdbd08,62c5388dc05c36cbf9f6d3ff,2022-07-06_02h42.51.219,Colour_Asymmetry_Pilot,2022.1.3,Win32,11.99630514,62c50e9c1127f2cd403a315f,,,,,,,,,,,,,,,,,,,,twoone,,3,7.943,,,,,,,,,,,,,,,,,,,,,,,,,,,,,,,,,,"[-0.4982,-0.2942,-0.0354000000000001]","[-0.30200000000000005,0.14500000000000002,0.2784]",71,63,1,0,0,response1disk,-1,7,1,0,0,rectangle,-1,7,1,0,0,,1,0.0011,0,-1,7,1,0,0,0,4,4,96,1,15,second,,,,,,,,,,,,,,,,,,,,,,,,,,,,,,,,,,,,,,,,,,,,,,,,,,,,,,,,,,,,,,,,,,,,,,,,
,,,,,,5f573b18a6a8b51a94fdbd08,62c5388dc05c36cbf9f6d3ff,2022-07-06_02h42.51.219,Colour_Asymmetry_Pilot,2022.1.3,Win32,11.99630514,62c50e9c1127f2cd403a315f,,,,,,,,,,,,,,,,,,,,threefour,,-4,3.5819,,,,,,,,,,,,,,,,,,,,,,,,,,,,,,,,,,"[-0.17659999999999998,-0.2864,-0.8354]","[-0.5452,-0.608,0.2470000000000001]",-46,92,1,0,0,response7disk,-3,4,1,0,0,rectangle,-3,4,1,0,0,,3,0.001,0,-3,4,1,0,0,0,5,5,45,1,45,first,,,,,,,,,,,,,,,,,,,,,,,,,,,,,,,,,,,,,,,,,,,,,,,,,,,,,,,,,,,,,,,,,,,,,,,,
,,,,,,5f573b18a6a8b51a94fdbd08,62c5388dc05c36cbf9f6d3ff,2022-07-06_02h42.51.219,Colour_Asymmetry_Pilot,2022.1.3,Win32,11.99630514,62c50e9c1127f2cd403a315f,,,,,,,,,,,,,,,,,,,,twoone,,-4,5.5681,,,,,,,,,,,,,,,,,,,,,,,,,,,,,,,,,,"[-0.38039999999999996,-0.4276,-0.1452]","[0.9372,0.9450000000000001,0.8980000000000001]",-46,79,1,0,0,response7disk,-4,2,1,0,0,rectangle,-4,2,1,0,0,,2,0.0014,0,-4,2,1,0,0,0,6,6,24,1,24,first,,,,,,,,,,,,,,,,,,,,,,,,,,,,,,,,,,,,,,,,,,,,,,,,,,,,,,,,,,,,,,,,,,,,,,,,
,,,,,,5f573b18a6a8b51a94fdbd08,62c5388dc05c36cbf9f6d3ff,2022-07-06_02h42.51.219,Colour_Asymmetry_Pilot,2022.1.3,Win32,11.99630514,62c50e9c1127f2cd403a315f,,,,,,,,,,,,,,,,,,,,onetwo,,2,3.5986,,,,,,,,,,,,,,,,,,,,,,,,,,,,,,,,,,"[0.37240000000000006,-0.050999999999999934,-0.5216]","[0.9842,0.7409999999999999,-0.6628000000000001]",74,-33,1,0,0,response3disk,-3,4,1,0,0,rectangle,76,42,1,0,0,3,3,6.6067,1,2,-2,1,0,0,0,7,7,76,1,76,first,response1disk_3,rectangle,,,,,,,,,,,,,,,,,,,,,,,,,,,,,,,,,,,,,,,,,,,,,,,,,,,,,,,,,,,,,,,,,,,,,,
,,,,,,5f573b18a6a8b51a94fdbd08,62c5388dc05c36cbf9f6d3ff,2022-07-06_02h42.51.219,Colour_Asymmetry_Pilot,2022.1.3,Win32,11.99630514,62c50e9c1127f2cd403a315f,,,,,,,,,,,,,,,,,,,,fourtwo,,1,7.7084,,,,,,,,,,,,,,,,,,,,,,,,,,,,,,,,,,"[0.2784,-0.31000000000000005,-0.5452]","[0.4196,0.4665999999999999,0.3568]",19,-53,1,0,0,response3disk,-10,0,1,0,0,rectangle,-10,0,1,0,0,3,1,0.0013,0,-10,0,1,0,0,0,8,8,58,1,58,first,,,,,,,,,,,,,,,,,,,,,,,,,,,,,,,,,,,,,,,,,,,,,,,,,,,,,,,,,,,,,,,,,,,,,,,,
,,,,,,5f573b18a6a8b51a94fdbd08,62c5388dc05c36cbf9f6d3ff,2022-07-06_02h42.51.219,Colour_Asymmetry_Pilot,2022.1.3,Win32,11.99630514,62c50e9c1127f2cd403a315f,,,,,,,,,,,,,,,,,,,,twofour,,2,3.8238,,,,,,,,,,,,,,,,,,,,,,,,,,,,,,,,,,"[0.7646000000000002,0.07440000000000002,0.2704]","[-0.011800000000000033,-0.906,-0.45100000000000007]",79,-34,1,0,0,response3disk,2,-4,1,0,0,rectangle,2,-4,1,0,0,3,2,0.0011,0,2,-4,1,0,0,0,9,9,128,1,47,second,,,,,,,,,,,,,,,,,,,,,,,,,,,,,,,,,,,,,,,,,,,,,,,,,,,,,,,,,,,,,,,,,,,,,,,,
,,,,,,5f573b18a6a8b51a94fdbd08,62c5388dc05c36cbf9f6d3ff,2022-07-06_02h42.51.219,Colour_Asymmetry_Pilot,2022.1.3,Win32,11.99630514,62c50e9c1127f2cd403a315f,,,,,,,,,,,,,,,,,,,,threefour,,-2,3.8066,,,,,,,,,,,,,,,,,,,,,,,,,,,,,,,,,,"[0.37240000000000006,-0.050999999999999934,-0.5216]","[-0.34920000000000007,-0.702,-0.5216]",-65,-43,1,0,0,response5disk,1,3,1,0,0,rectangle,1,3,1,0,0,3,2,0.0002,0,1,3,1,0,0,0,10,10,100,1,19,second,,,,,,,,,,,,,,,,,,,,,,,,,,,,,,,,,,,,,,,,,,,,,,,,,,,,,,,,,,,,,,,,,,,,,,,,
,,,,,,5f573b18a6a8b51a94fdbd08,62c5388dc05c36cbf9f6d3ff,2022-07-06_02h42.51.219,Colour_Asymmetry_Pilot,2022.1.3,Win32,11.99630514,62c50e9c1127f2cd403a315f,,,,,,,,,,,,,,,,,,,,onetwo,,-4,3.2352,,,,,,,,,,,,,,,,,,,,,,,,,,,,,,,,,,"[0.11359999999999992,0.6312,0.5213999999999999]","[0.9763999999999999,-0.1137999999999999,-0.6314]",-70,79,1,0,0,response7disk,-5,-4,1,0,0,rectangle,-5,-4,1,0,0,3,2,0.0003,0,-5,-4,1,0,0,0,11,11,123,1,42,second,,,,,,,,,,,,,,,,,,,,,,,,,,,,,,,,,,,,,,,,,,,,,,,,,,,,,,,,,,,,,,,,,,,,,,,,
,,,,,,5f573b18a6a8b51a94fdbd08,62c5388dc05c36cbf9f6d3ff,2022-07-06_02h42.51.219,Colour_Asymmetry_Pilot,2022.1.3,Win32,11.99630514,62c50e9c1127f2cd403a315f,,,,,,,,,,,,,,,,,,,,twoone,,-4,2.4309,,,,,,,,,,,,,,,,,,,,,,,,,,,,,,,,,,"[-0.8118,-0.8198,-0.5452]","[0.23920000000000008,0.2704,0.16060000000000008]",-62,88,1,0,0,response7disk,-7,5,1,0,0,rectangle,-7,5,1,0,0,3,2,0.0004,0,-7,5,1,0,0,0,12,12,20,1,20,first,,,,,,,,,,,,,,,,,,,,,,,,,,,,,,,,,,,,,,,,,,,,,,,,,,,,,,,,,,,,,,,,,,,,,,,,
,,,,,,5f573b18a6a8b51a94fdbd08,62c5388dc05c36cbf9f6d3ff,2022-07-06_02h42.51.219,Colour_Asymmetry_Pilot,2022.1.3,Win32,11.99630514,62c50e9c1127f2cd403a315f,,,,,,,,,,,,,,,,,,,,fourthree,,-4,2.5161,,,,,,,,,,,,,,,,,,,,,,,,,,,,,,,,,,"[0.9372,0.9450000000000001,0.8980000000000001]","[-0.5688,-0.08239999999999992,-0.1844]",-44,80,1,0,0,response7disk,0,0,1,0,0,rectangle,0,0,1,0,0,3,3,0.0014,0,0,0,1,0,0,0,13,13,86,1,5,second,,,,,,,,,,,,,,,,,,,,,,,,,,,,,,,,,,,,,,,,,,,,,,,,,,,,,,,,,,,,,,,,,,,,,,,,
,,,,,,5f573b18a6a8b51a94fdbd08,62c5388dc05c36cbf9f6d3ff,2022-07-06_02h42.51.219,Colour_Asymmetry_Pilot,2022.1.3,Win32,11.99630514,62c50e9c1127f2cd403a315f,,,,,,,,,,,,,,,,,,,,threefour,,2,4.4447,,,,,,,,,,,,,,,,,,,,,,,,,,,,,,,,,,"[0.09799999999999986,-0.24719999999999998,0.15280000000000005]","[-0.01980000000000004,-0.5138,-0.38039999999999996]",79,-30,1,0,0,response3disk,-2,0,1,0,0,rectangle,-2,0,1,0,0,3,2,0.001,0,-2,0,1,0,0,0,14,14,111,1,30,second,,,,,,,,,,,,,,,,,,,,,,,,,,,,,,,,,,,,,,,,,,,,,,,,,,,,,,,,,,,,,,,,,,,,,,,,
,,,,,,5f573b18a6a8b51a94fdbd08,62c5388dc05c36cbf9f6d3ff,2022-07-06_02h42.51.219,Colour_Asymmetry_Pilot,2022.1.3,Win32,11.99630514,62c50e9c1127f2cd403a315f,,,,,,,,,,,,,,,,,,,,fourtwo,,4,2.2588,,,,,,,,,,,,,,,,,,,,,,,,,,,,,,,,,,"[0.34099999999999997,0.12939999999999996,-0.9766]","[0.34099999999999997,0.12939999999999996,-0.9766]",29,76,1,0,0,response1disk,-7,-1,1,0,0,rectangle,-7,-1,1,0,0,3,3,0.0011,0,-7,-1,1,0,0,0,15,15,1,1,1,first,,,,,,,,,,,,,,,,,,,,,,,,,,,,,,,,,,,,,,,,,,,,,,,,,,,,,,,,,,,,,,,,,,,,,,,,
,,,,,,5f573b18a6a8b51a94fdbd08,62c5388dc05c36cbf9f6d3ff,2022-07-06_02h42.51.219,Colour_Asymmetry_Pilot,2022.1.3,Win32,11.99630514,62c50e9c1127f2cd403a315f,,,,,,,,,,,,,,,,,,,,threeone,,1,6.2969,,,,,,,,,,,,,,,,,,,,,,,,,,,,,,,,,,"[-0.011800000000000033,-0.906,-0.45100000000000007]","[0.7646000000000002,0.07440000000000002,0.2704]",36,-64,1,0,0,response3disk,-3,1,1,0,0,rectangle,-3,1,1,0,0,3,2,0.001,0,-3,1,1,0,0,0,16,16,47,1,47,first,,,,,,,,,,,,,,,,,,,,,,,,,,,,,,,,,,,,,,,,,,,,,,,,,,,,,,,,,,,,,,,,,,,,,,,,
,,,,,,5f573b18a6a8b51a94fdbd08,62c5388dc05c36cbf9f6d3ff,2022-07-06_02h42.51.219,Colour_Asymmetry_Pilot,2022.1.3,Win32,11.99630514,62c50e9c1127f2cd403a315f,,,,,,,,,,,,,,,,,,,,twoone,,-3,5.413,,,,,,,,,,,,,,,,,,,,,,,,,,,,,,,,,,"[0.9372,0.20779999999999998,0.2704]","[0.37240000000000006,-0.050999999999999934,-0.5216]",-90,28,1,0,0,response7disk,7,4,1,0,0,rectangle,7,4,1,0,0,3,1,0.0012,0,7,4,1,0,0,0,17,17,140,1,59,second,,,,,,,,,,,,,,,,,,,,,,,,,,,,,,,,,,,,,,,,,,,,,,,,,,,,,,,,,,,,,,,,,,,,,,,,
