trials.thisRepN,trials.thisTrialN,trials.thisN,trials.thisIndex,trials.ran,Colourcodes,participant,session,date,expName,psychopyVersion,OS,frameRate,study_id,trials_4.thisRepN,trials_4.thisTrialN,trials_4.thisN,trials_4.thisIndex,trials_4.ran,StimulusPos,key_resp.keys,key_resp.rt,key_resp_2.keys,key_resp_2.rt,key_resp_15.keys,key_resp_15.rt,key_resp_17.keys,key_resp_17.rt,key_resp_9.keys,key_resp_9.rt,key_resp_10.keys,key_resp_10.rt,Circle1_col,Ecc,Circle2_col,similarity,response_time,mouse_5.x,mouse_5.y,mouse_5.leftButton,mouse_5.midButton,mouse_5.rightButton,mouse_5.clicked_name,mouse_10.x,mouse_10.y,mouse_10.leftButton,mouse_10.midButton,mouse_10.rightButton,mouse_10.clicked_name,mouse_7.x,mouse_7.y,mouse_7.leftButton,mouse_7.midButton,mouse_7.rightButton,catchnumberprac,mouse_6.x,mouse_6.y,mouse_6.leftButton,mouse_6.midButton,mouse_6.rightButton,duringprac.thisRepN,duringprac.thisTrialN,duringprac.thisN,duringprac.thisIndex,duringprac.ran,mouse_7.clicked_name,catchprac,mouse_6.clicked_name,key_resp_22.keys,key_resp_22.rt,Circle1_colour,Circle2_colour,mouse.x,mouse.y,mouse.leftButton,mouse.midButton,mouse.rightButton,mouse.clicked_name,mouse_2.x,mouse_2.y,mouse_2.leftButton,mouse_2.midButton,mouse_2.rightButton,mouse_2.clicked_name,mouse_3.x,mouse_3.y,mouse_3.leftButton,mouse_3.midButton,mouse_3.rightButton,catchresponse,catchnumber,response_time_catch,Catch,mouse_11.x,mouse_11.y,mouse_11.leftButton,mouse_11.midButton,mouse_11.rightButton,trials_2.thisRepN,trials_2.thisTrialN,trials_2.thisN,trials_2.thisIndex,trials_2.ran,Colourpair,Temporder,mouse_3.clicked_name,mouse_11.clicked_name,trials_3.thisRepN,trials_3.thisTrialN,trials_3.thisN,trials_3.thisIndex,trials_3.ran,key_resp_instr_Ishi.keys,key_resp_instr_Ishi.rt,Ishi_trial_keyresp.keys,Ishi_textbox.text,Ishi_mouse.x,Ishi_mouse.y,Ishi_mouse.leftButton,Ishi_mouse.midButton,Ishi_mouse.rightButton,Ishi_mouse.clicked_name,Ishi_loop.thisRepN,Ishi_loop.thisTrialN,Ishi_loop.thisN,Ishi_loop.thisIndex,Ishi_loop.ran,imageaddress,textbox.text,mouse_4.x,mouse_4.y,mouse_4.leftButton,mouse_4.midButton,mouse_4.rightButton,mouse_4.clicked_name,textbox_2.text,mouse_8.x,mouse_8.y,mouse_8.leftButton,mouse_8.midButton,mouse_8.rightButton,mouse_8.clicked_name,textbox_3.text,mouse_9.x,mouse_9.y,mouse_9.leftButton,mouse_9.midButton,mouse_9.rightButton,mouse_9.clicked_name,textbox_4.text,mouse_12.x,mouse_12.y,mouse_12.leftButton,mouse_12.midButton,mouse_12.rightButton,mouse_12.clicked_name,textbox_5.text,mouse_13.x,mouse_13.y,mouse_13.leftButton,mouse_13.midButton,mouse_13.rightButton,mouse_13.clicked_name,textbox_6.text,mouse_14.x,mouse_14.y,mouse_14.leftButton,mouse_14.midButton,mouse_14.rightButton,mouse_14.clicked_name,textbox_7.text,mouse_15.x,mouse_15.y,mouse_15.leftButton,mouse_15.midButton,mouse_15.rightButton,mouse_15.clicked_name
0,0,0,52,1,,5dac180a79d2ea00160034a3,62c53a429c287cc7faf3dbd5,2022-07-06_09h32.06.598,Colour_Asymmetry_Pilot,2022.1.3,Win32,60.27000964,62c50e9c1127f2cd403a315f,,,,,,,,,,,,,,,,,,,,,,,,,,,,,,,,,,,,,,,,,,,,,,,,,,,,,,,,,,,,,,,,,,,,,,,,,,,,,,,,,,,,,,,,,,,,,,,,,,,,,,,,,,,,,,,,,,,,,,,,,,,,,,,,,,,,,,,,,,,,,,,,,,,,,,,,,,,,,,,,,,,
0,1,1,53,1,,5dac180a79d2ea00160034a3,62c53a429c287cc7faf3dbd5,2022-07-06_09h32.06.598,Colour_Asymmetry_Pilot,2022.1.3,Win32,60.27000964,62c50e9c1127f2cd403a315f,,,,,,,,,,,,,,,,,,,,,,,,,,,,,,,,,,,,,,,,,,,,,,,,,,,,,,,,,,,,,,,,,,,,,,,,,,,,,,,,,,,,,,,,,,,,,,,,,,,,,,,,,,,,,,,,,,,,,,,,,,,,,,,,,,,,,,,,,,,,,,,,,,,,,,,,,,,,,,,,,,,
0,2,2,64,1,,5dac180a79d2ea00160034a3,62c53a429c287cc7faf3dbd5,2022-07-06_09h32.06.598,Colour_Asymmetry_Pilot,2022.1.3,Win32,60.27000964,62c50e9c1127f2cd403a315f,,,,,,,,,,,,,,,,,,,,,,,,,,,,,,,,,,,,,,,,,,,,,,,,,,,,,,,,,,,,,,,,,,,,,,,,,,,,,,,,,,,,,,,,,,,,,,,,,,,,,,,,,,,,,,,,,,,,,,,,,,,,,,,,,,,,,,,,,,,,,,,,,,,,,,,,,,,,,,,,,,,
0,3,3,2,1,,5dac180a79d2ea00160034a3,62c53a429c287cc7faf3dbd5,2022-07-06_09h32.06.598,Colour_Asymmetry_Pilot,2022.1.3,Win32,60.27000964,62c50e9c1127f2cd403a315f,,,,,,,,,,,,,,,,,,,,,,,,,,,,,,,,,,,,,,,,,,,,,,,,,,,,,,,,,,,,,,,,,,,,,,,,,,,,,,,,,,,,,,,,,,,,,,,,,,,,,,,,,,,,,,,,,,,,,,,,,,,,,,,,,,,,,,,,,,,,,,,,,,,,,,,,,,,,,,,,,,,
0,4,4,15,1,,5dac180a79d2ea00160034a3,62c53a429c287cc7faf3dbd5,2022-07-06_09h32.06.598,Colour_Asymmetry_Pilot,2022.1.3,Win32,60.27000964,62c50e9c1127f2cd403a315f,,,,,,,,,,,,,,,,,,,,,,,,,,,,,,,,,,,,,,,,,,,,,,,,,,,,,,,,,,,,,,,,,,,,,,,,,,,,,,,,,,,,,,,,,,,,,,,,,,,,,,,,,,,,,,,,,,,,,,,,,,,,,,,,,,,,,,,,,,,,,,,,,,,,,,,,,,,,,,,,,,,
0,5,5,11,1,,5dac180a79d2ea00160034a3,62c53a429c287cc7faf3dbd5,2022-07-06_09h32.06.598,Colour_Asymmetry_Pilot,2022.1.3,Win32,60.27000964,62c50e9c1127f2cd403a315f,,,,,,,,,,,,,,,,,,,,,,,,,,,,,,,,,,,,,,,,,,,,,,,,,,,,,,,,,,,,,,,,,,,,,,,,,,,,,,,,,,,,,,,,,,,,,,,,,,,,,,,,,,,,,,,,,,,,,,,,,,,,,,,,,,,,,,,,,,,,,,,,,,,,,,,,,,,,,,,,,,,
0,6,6,68,1,,5dac180a79d2ea00160034a3,62c53a429c287cc7faf3dbd5,2022-07-06_09h32.06.598,Colour_Asymmetry_Pilot,2022.1.3,Win32,60.27000964,62c50e9c1127f2cd403a315f,,,,,,,,,,,,,,,,,,,,,,,,,,,,,,,,,,,,,,,,,,,,,,,,,,,,,,,,,,,,,,,,,,,,,,,,,,,,,,,,,,,,,,,,,,,,,,,,,,,,,,,,,,,,,,,,,,,,,,,,,,,,,,,,,,,,,,,,,,,,,,,,,,,,,,,,,,,,,,,,,,,
0,7,7,19,1,,5dac180a79d2ea00160034a3,62c53a429c287cc7faf3dbd5,2022-07-06_09h32.06.598,Colour_Asymmetry_Pilot,2022.1.3,Win32,60.27000964,62c50e9c1127f2cd403a315f,,,,,,,,,,,,,,,,,,,,,,,,,,,,,,,,,,,,,,,,,,,,,,,,,,,,,,,,,,,,,,,,,,,,,,,,,,,,,,,,,,,,,,,,,,,,,,,,,,,,,,,,,,,,,,,,,,,,,,,,,,,,,,,,,,,,,,,,,,,,,,,,,,,,,,,,,,,,,,,,,,,
0,8,8,8,1,,5dac180a79d2ea00160034a3,62c53a429c287cc7faf3dbd5,2022-07-06_09h32.06.598,Colour_Asymmetry_Pilot,2022.1.3,Win32,60.27000964,62c50e9c1127f2cd403a315f,,,,,,,,,,,,,,,,,,,,,,,,,,,,,,,,,,,,,,,,,,,,,,,,,,,,,,,,,,,,,,,,,,,,,,,,,,,,,,,,,,,,,,,,,,,,,,,,,,,,,,,,,,,,,,,,,,,,,,,,,,,,,,,,,,,,,,,,,,,,,,,,,,,,,,,,,,,,,,,,,,,
0,9,9,47,1,,5dac180a79d2ea00160034a3,62c53a429c287cc7faf3dbd5,2022-07-06_09h32.06.598,Colour_Asymmetry_Pilot,2022.1.3,Win32,60.27000964,62c50e9c1127f2cd403a315f,,,,,,,,,,,,,,,,,,,,,,,,,,,,,,,,,,,,,,,,,,,,,,,,,,,,,,,,,,,,,,,,,,,,,,,,,,,,,,,,,,,,,,,,,,,,,,,,,,,,,,,,,,,,,,,,,,,,,,,,,,,,,,,,,,,,,,,,,,,,,,,,,,,,,,,,,,,,,,,,,,,
0,10,10,61,1,,5dac180a79d2ea00160034a3,62c53a429c287cc7faf3dbd5,2022-07-06_09h32.06.598,Colour_Asymmetry_Pilot,2022.1.3,Win32,60.27000964,62c50e9c1127f2cd403a315f,,,,,,,,,,,,,,,,,,,,,,,,,,,,,,,,,,,,,,,,,,,,,,,,,,,,,,,,,,,,,,,,,,,,,,,,,,,,,,,,,,,,,,,,,,,,,,,,,,,,,,,,,,,,,,,,,,,,,,,,,,,,,,,,,,,,,,,,,,,,,,,,,,,,,,,,,,,,,,,,,,,
0,11,11,17,1,,5dac180a79d2ea00160034a3,62c53a429c287cc7faf3dbd5,2022-07-06_09h32.06.598,Colour_Asymmetry_Pilot,2022.1.3,Win32,60.27000964,62c50e9c1127f2cd403a315f,,,,,,,,,,,,,,,,,,,,,,,,,,,,,,,,,,,,,,,,,,,,,,,,,,,,,,,,,,,,,,,,,,,,,,,,,,,,,,,,,,,,,,,,,,,,,,,,,,,,,,,,,,,,,,,,,,,,,,,,,,,,,,,,,,,,,,,,,,,,,,,,,,,,,,,,,,,,,,,,,,,
0,12,12,23,1,,5dac180a79d2ea00160034a3,62c53a429c287cc7faf3dbd5,2022-07-06_09h32.06.598,Colour_Asymmetry_Pilot,2022.1.3,Win32,60.27000964,62c50e9c1127f2cd403a315f,,,,,,,,,,,,,,,,,,,,,,,,,,,,,,,,,,,,,,,,,,,,,,,,,,,,,,,,,,,,,,,,,,,,,,,,,,,,,,,,,,,,,,,,,,,,,,,,,,,,,,,,,,,,,,,,,,,,,,,,,,,,,,,,,,,,,,,,,,,,,,,,,,,,,,,,,,,,,,,,,,,
0,13,13,88,1,,5dac180a79d2ea00160034a3,62c53a429c287cc7faf3dbd5,2022-07-06_09h32.06.598,Colour_Asymmetry_Pilot,2022.1.3,Win32,60.27000964,62c50e9c1127f2cd403a315f,,,,,,,,,,,,,,,,,,,,,,,,,,,,,,,,,,,,,,,,,,,,,,,,,,,,,,,,,,,,,,,,,,,,,,,,,,,,,,,,,,,,,,,,,,,,,,,,,,,,,,,,,,,,,,,,,,,,,,,,,,,,,,,,,,,,,,,,,,,,,,,,,,,,,,,,,,,,,,,,,,,
0,14,14,70,1,,5dac180a79d2ea00160034a3,62c53a429c287cc7faf3dbd5,2022-07-06_09h32.06.598,Colour_Asymmetry_Pilot,2022.1.3,Win32,60.27000964,62c50e9c1127f2cd403a315f,,,,,,,,,,,,,,,,,,,,,,,,,,,,,,,,,,,,,,,,,,,,,,,,,,,,,,,,,,,,,,,,,,,,,,,,,,,,,,,,,,,,,,,,,,,,,,,,,,,,,,,,,,,,,,,,,,,,,,,,,,,,,,,,,,,,,,,,,,,,,,,,,,,,,,,,,,,,,,,,,,,
0,15,15,92,1,,5dac180a79d2ea00160034a3,62c53a429c287cc7faf3dbd5,2022-07-06_09h32.06.598,Colour_Asymmetry_Pilot,2022.1.3,Win32,60.27000964,62c50e9c1127f2cd403a315f,,,,,,,,,,,,,,,,,,,,,,,,,,,,,,,,,,,,,,,,,,,,,,,,,,,,,,,,,,,,,,,,,,,,,,,,,,,,,,,,,,,,,,,,,,,,,,,,,,,,,,,,,,,,,,,,,,,,,,,,,,,,,,,,,,,,,,,,,,,,,,,,,,,,,,,,,,,,,,,,,,,
0,16,16,32,1,,5dac180a79d2ea00160034a3,62c53a429c287cc7faf3dbd5,2022-07-06_09h32.06.598,Colour_Asymmetry_Pilot,2022.1.3,Win32,60.27000964,62c50e9c1127f2cd403a315f,,,,,,,,,,,,,,,,,,,,,,,,,,,,,,,,,,,,,,,,,,,,,,,,,,,,,,,,,,,,,,,,,,,,,,,,,,,,,,,,,,,,,,,,,,,,,,,,,,,,,,,,,,,,,,,,,,,,,,,,,,,,,,,,,,,,,,,,,,,,,,,,,,,,,,,,,,,,,,,,,,,
0,17,17,58,1,,5dac180a79d2ea00160034a3,62c53a429c287cc7faf3dbd5,2022-07-06_09h32.06.598,Colour_Asymmetry_Pilot,2022.1.3,Win32,60.27000964,62c50e9c1127f2cd403a315f,,,,,,,,,,,,,,,,,,,,,,,,,,,,,,,,,,,,,,,,,,,,,,,,,,,,,,,,,,,,,,,,,,,,,,,,,,,,,,,,,,,,,,,,,,,,,,,,,,,,,,,,,,,,,,,,,,,,,,,,,,,,,,,,,,,,,,,,,,,,,,,,,,,,,,,,,,,,,,,,,,,
0,18,18,72,1,,5dac180a79d2ea00160034a3,62c53a429c287cc7faf3dbd5,2022-07-06_09h32.06.598,Colour_Asymmetry_Pilot,2022.1.3,Win32,60.27000964,62c50e9c1127f2cd403a315f,,,,,,,,,,,,,,,,,,,,,,,,,,,,,,,,,,,,,,,,,,,,,,,,,,,,,,,,,,,,,,,,,,,,,,,,,,,,,,,,,,,,,,,,,,,,,,,,,,,,,,,,,,,,,,,,,,,,,,,,,,,,,,,,,,,,,,,,,,,,,,,,,,,,,,,,,,,,,,,,,,,
0,19,19,9,1,,5dac180a79d2ea00160034a3,62c53a429c287cc7faf3dbd5,2022-07-06_09h32.06.598,Colour_Asymmetry_Pilot,2022.1.3,Win32,60.27000964,62c50e9c1127f2cd403a315f,,,,,,,,,,,,,,,,,,,,,,,,,,,,,,,,,,,,,,,,,,,,,,,,,,,,,,,,,,,,,,,,,,,,,,,,,,,,,,,,,,,,,,,,,,,,,,,,,,,,,,,,,,,,,,,,,,,,,,,,,,,,,,,,,,,,,,,,,,,,,,,,,,,,,,,,,,,,,,,,,,,
0,20,20,90,1,,5dac180a79d2ea00160034a3,62c53a429c287cc7faf3dbd5,2022-07-06_09h32.06.598,Colour_Asymmetry_Pilot,2022.1.3,Win32,60.27000964,62c50e9c1127f2cd403a315f,,,,,,,,,,,,,,,,,,,,,,,,,,,,,,,,,,,,,,,,,,,,,,,,,,,,,,,,,,,,,,,,,,,,,,,,,,,,,,,,,,,,,,,,,,,,,,,,,,,,,,,,,,,,,,,,,,,,,,,,,,,,,,,,,,,,,,,,,,,,,,,,,,,,,,,,,,,,,,,,,,,
0,21,21,60,1,,5dac180a79d2ea00160034a3,62c53a429c287cc7faf3dbd5,2022-07-06_09h32.06.598,Colour_Asymmetry_Pilot,2022.1.3,Win32,60.27000964,62c50e9c1127f2cd403a315f,,,,,,,,,,,,,,,,,,,,,,,,,,,,,,,,,,,,,,,,,,,,,,,,,,,,,,,,,,,,,,,,,,,,,,,,,,,,,,,,,,,,,,,,,,,,,,,,,,,,,,,,,,,,,,,,,,,,,,,,,,,,,,,,,,,,,,,,,,,,,,,,,,,,,,,,,,,,,,,,,,,
0,22,22,38,1,,5dac180a79d2ea00160034a3,62c53a429c287cc7faf3dbd5,2022-07-06_09h32.06.598,Colour_Asymmetry_Pilot,2022.1.3,Win32,60.27000964,62c50e9c1127f2cd403a315f,,,,,,,,,,,,,,,,,,,,,,,,,,,,,,,,,,,,,,,,,,,,,,,,,,,,,,,,,,,,,,,,,,,,,,,,,,,,,,,,,,,,,,,,,,,,,,,,,,,,,,,,,,,,,,,,,,,,,,,,,,,,,,,,,,,,,,,,,,,,,,,,,,,,,,,,,,,,,,,,,,,
0,23,23,3,1,,5dac180a79d2ea00160034a3,62c53a429c287cc7faf3dbd5,2022-07-06_09h32.06.598,Colour_Asymmetry_Pilot,2022.1.3,Win32,60.27000964,62c50e9c1127f2cd403a315f,,,,,,,,,,,,,,,,,,,,,,,,,,,,,,,,,,,,,,,,,,,,,,,,,,,,,,,,,,,,,,,,,,,,,,,,,,,,,,,,,,,,,,,,,,,,,,,,,,,,,,,,,,,,,,,,,,,,,,,,,,,,,,,,,,,,,,,,,,,,,,,,,,,,,,,,,,,,,,,,,,,
0,24,24,43,1,,5dac180a79d2ea00160034a3,62c53a429c287cc7faf3dbd5,2022-07-06_09h32.06.598,Colour_Asymmetry_Pilot,2022.1.3,Win32,60.27000964,62c50e9c1127f2cd403a315f,,,,,,,,,,,,,,,,,,,,,,,,,,,,,,,,,,,,,,,,,,,,,,,,,,,,,,,,,,,,,,,,,,,,,,,,,,,,,,,,,,,,,,,,,,,,,,,,,,,,,,,,,,,,,,,,,,,,,,,,,,,,,,,,,,,,,,,,,,,,,,,,,,,,,,,,,,,,,,,,,,,
0,25,25,65,1,,5dac180a79d2ea00160034a3,62c53a429c287cc7faf3dbd5,2022-07-06_09h32.06.598,Colour_Asymmetry_Pilot,2022.1.3,Win32,60.27000964,62c50e9c1127f2cd403a315f,,,,,,,,,,,,,,,,,,,,,,,,,,,,,,,,,,,,,,,,,,,,,,,,,,,,,,,,,,,,,,,,,,,,,,,,,,,,,,,,,,,,,,,,,,,,,,,,,,,,,,,,,,,,,,,,,,,,,,,,,,,,,,,,,,,,,,,,,,,,,,,,,,,,,,,,,,,,,,,,,,,
0,26,26,37,1,,5dac180a79d2ea00160034a3,62c53a429c287cc7faf3dbd5,2022-07-06_09h32.06.598,Colour_Asymmetry_Pilot,2022.1.3,Win32,60.27000964,62c50e9c1127f2cd403a315f,,,,,,,,,,,,,,,,,,,,,,,,,,,,,,,,,,,,,,,,,,,,,,,,,,,,,,,,,,,,,,,,,,,,,,,,,,,,,,,,,,,,,,,,,,,,,,,,,,,,,,,,,,,,,,,,,,,,,,,,,,,,,,,,,,,,,,,,,,,,,,,,,,,,,,,,,,,,,,,,,,,
0,27,27,6,1,,5dac180a79d2ea00160034a3,62c53a429c287cc7faf3dbd5,2022-07-06_09h32.06.598,Colour_Asymmetry_Pilot,2022.1.3,Win32,60.27000964,62c50e9c1127f2cd403a315f,,,,,,,,,,,,,,,,,,,,,,,,,,,,,,,,,,,,,,,,,,,,,,,,,,,,,,,,,,,,,,,,,,,,,,,,,,,,,,,,,,,,,,,,,,,,,,,,,,,,,,,,,,,,,,,,,,,,,,,,,,,,,,,,,,,,,,,,,,,,,,,,,,,,,,,,,,,,,,,,,,,
0,28,28,56,1,,5dac180a79d2ea00160034a3,62c53a429c287cc7faf3dbd5,2022-07-06_09h32.06.598,Colour_Asymmetry_Pilot,2022.1.3,Win32,60.27000964,62c50e9c1127f2cd403a315f,,,,,,,,,,,,,,,,,,,,,,,,,,,,,,,,,,,,,,,,,,,,,,,,,,,,,,,,,,,,,,,,,,,,,,,,,,,,,,,,,,,,,,,,,,,,,,,,,,,,,,,,,,,,,,,,,,,,,,,,,,,,,,,,,,,,,,,,,,,,,,,,,,,,,,,,,,,,,,,,,,,
0,29,29,80,1,,5dac180a79d2ea00160034a3,62c53a429c287cc7faf3dbd5,2022-07-06_09h32.06.598,Colour_Asymmetry_Pilot,2022.1.3,Win32,60.27000964,62c50e9c1127f2cd403a315f,,,,,,,,,,,,,,,,,,,,,,,,,,,,,,,,,,,,,,,,,,,,,,,,,,,,,,,,,,,,,,,,,,,,,,,,,,,,,,,,,,,,,,,,,,,,,,,,,,,,,,,,,,,,,,,,,,,,,,,,,,,,,,,,,,,,,,,,,,,,,,,,,,,,,,,,,,,,,,,,,,,
0,30,30,91,1,,5dac180a79d2ea00160034a3,62c53a429c287cc7faf3dbd5,2022-07-06_09h32.06.598,Colour_Asymmetry_Pilot,2022.1.3,Win32,60.27000964,62c50e9c1127f2cd403a315f,,,,,,,,,,,,,,,,,,,,,,,,,,,,,,,,,,,,,,,,,,,,,,,,,,,,,,,,,,,,,,,,,,,,,,,,,,,,,,,,,,,,,,,,,,,,,,,,,,,,,,,,,,,,,,,,,,,,,,,,,,,,,,,,,,,,,,,,,,,,,,,,,,,,,,,,,,,,,,,,,,,
0,31,31,42,1,,5dac180a79d2ea00160034a3,62c53a429c287cc7faf3dbd5,2022-07-06_09h32.06.598,Colour_Asymmetry_Pilot,2022.1.3,Win32,60.27000964,62c50e9c1127f2cd403a315f,,,,,,,,,,,,,,,,,,,,,,,,,,,,,,,,,,,,,,,,,,,,,,,,,,,,,,,,,,,,,,,,,,,,,,,,,,,,,,,,,,,,,,,,,,,,,,,,,,,,,,,,,,,,,,,,,,,,,,,,,,,,,,,,,,,,,,,,,,,,,,,,,,,,,,,,,,,,,,,,,,,
0,32,32,63,1,,5dac180a79d2ea00160034a3,62c53a429c287cc7faf3dbd5,2022-07-06_09h32.06.598,Colour_Asymmetry_Pilot,2022.1.3,Win32,60.27000964,62c50e9c1127f2cd403a315f,,,,,,,,,,,,,,,,,,,,,,,,,,,,,,,,,,,,,,,,,,,,,,,,,,,,,,,,,,,,,,,,,,,,,,,,,,,,,,,,,,,,,,,,,,,,,,,,,,,,,,,,,,,,,,,,,,,,,,,,,,,,,,,,,,,,,,,,,,,,,,,,,,,,,,,,,,,,,,,,,,,
0,33,33,16,1,,5dac180a79d2ea00160034a3,62c53a429c287cc7faf3dbd5,2022-07-06_09h32.06.598,Colour_Asymmetry_Pilot,2022.1.3,Win32,60.27000964,62c50e9c1127f2cd403a315f,,,,,,,,,,,,,,,,,,,,,,,,,,,,,,,,,,,,,,,,,,,,,,,,,,,,,,,,,,,,,,,,,,,,,,,,,,,,,,,,,,,,,,,,,,,,,,,,,,,,,,,,,,,,,,,,,,,,,,,,,,,,,,,,,,,,,,,,,,,,,,,,,,,,,,,,,,,,,,,,,,,
0,34,34,86,1,,5dac180a79d2ea00160034a3,62c53a429c287cc7faf3dbd5,2022-07-06_09h32.06.598,Colour_Asymmetry_Pilot,2022.1.3,Win32,60.27000964,62c50e9c1127f2cd403a315f,,,,,,,,,,,,,,,,,,,,,,,,,,,,,,,,,,,,,,,,,,,,,,,,,,,,,,,,,,,,,,,,,,,,,,,,,,,,,,,,,,,,,,,,,,,,,,,,,,,,,,,,,,,,,,,,,,,,,,,,,,,,,,,,,,,,,,,,,,,,,,,,,,,,,,,,,,,,,,,,,,,
0,35,35,20,1,,5dac180a79d2ea00160034a3,62c53a429c287cc7faf3dbd5,2022-07-06_09h32.06.598,Colour_Asymmetry_Pilot,2022.1.3,Win32,60.27000964,62c50e9c1127f2cd403a315f,,,,,,,,,,,,,,,,,,,,,,,,,,,,,,,,,,,,,,,,,,,,,,,,,,,,,,,,,,,,,,,,,,,,,,,,,,,,,,,,,,,,,,,,,,,,,,,,,,,,,,,,,,,,,,,,,,,,,,,,,,,,,,,,,,,,,,,,,,,,,,,,,,,,,,,,,,,,,,,,,,,
0,36,36,66,1,,5dac180a79d2ea00160034a3,62c53a429c287cc7faf3dbd5,2022-07-06_09h32.06.598,Colour_Asymmetry_Pilot,2022.1.3,Win32,60.27000964,62c50e9c1127f2cd403a315f,,,,,,,,,,,,,,,,,,,,,,,,,,,,,,,,,,,,,,,,,,,,,,,,,,,,,,,,,,,,,,,,,,,,,,,,,,,,,,,,,,,,,,,,,,,,,,,,,,,,,,,,,,,,,,,,,,,,,,,,,,,,,,,,,,,,,,,,,,,,,,,,,,,,,,,,,,,,,,,,,,,
0,37,37,39,1,,5dac180a79d2ea00160034a3,62c53a429c287cc7faf3dbd5,2022-07-06_09h32.06.598,Colour_Asymmetry_Pilot,2022.1.3,Win32,60.27000964,62c50e9c1127f2cd403a315f,,,,,,,,,,,,,,,,,,,,,,,,,,,,,,,,,,,,,,,,,,,,,,,,,,,,,,,,,,,,,,,,,,,,,,,,,,,,,,,,,,,,,,,,,,,,,,,,,,,,,,,,,,,,,,,,,,,,,,,,,,,,,,,,,,,,,,,,,,,,,,,,,,,,,,,,,,,,,,,,,,,
0,38,38,10,1,,5dac180a79d2ea00160034a3,62c53a429c287cc7faf3dbd5,2022-07-06_09h32.06.598,Colour_Asymmetry_Pilot,2022.1.3,Win32,60.27000964,62c50e9c1127f2cd403a315f,,,,,,,,,,,,,,,,,,,,,,,,,,,,,,,,,,,,,,,,,,,,,,,,,,,,,,,,,,,,,,,,,,,,,,,,,,,,,,,,,,,,,,,,,,,,,,,,,,,,,,,,,,,,,,,,,,,,,,,,,,,,,,,,,,,,,,,,,,,,,,,,,,,,,,,,,,,,,,,,,,,
0,39,39,79,1,,5dac180a79d2ea00160034a3,62c53a429c287cc7faf3dbd5,2022-07-06_09h32.06.598,Colour_Asymmetry_Pilot,2022.1.3,Win32,60.27000964,62c50e9c1127f2cd403a315f,,,,,,,,,,,,,,,,,,,,,,,,,,,,,,,,,,,,,,,,,,,,,,,,,,,,,,,,,,,,,,,,,,,,,,,,,,,,,,,,,,,,,,,,,,,,,,,,,,,,,,,,,,,,,,,,,,,,,,,,,,,,,,,,,,,,,,,,,,,,,,,,,,,,,,,,,,,,,,,,,,,
0,40,40,29,1,,5dac180a79d2ea00160034a3,62c53a429c287cc7faf3dbd5,2022-07-06_09h32.06.598,Colour_Asymmetry_Pilot,2022.1.3,Win32,60.27000964,62c50e9c1127f2cd403a315f,,,,,,,,,,,,,,,,,,,,,,,,,,,,,,,,,,,,,,,,,,,,,,,,,,,,,,,,,,,,,,,,,,,,,,,,,,,,,,,,,,,,,,,,,,,,,,,,,,,,,,,,,,,,,,,,,,,,,,,,,,,,,,,,,,,,,,,,,,,,,,,,,,,,,,,,,,,,,,,,,,,
0,41,41,73,1,,5dac180a79d2ea00160034a3,62c53a429c287cc7faf3dbd5,2022-07-06_09h32.06.598,Colour_Asymmetry_Pilot,2022.1.3,Win32,60.27000964,62c50e9c1127f2cd403a315f,,,,,,,,,,,,,,,,,,,,,,,,,,,,,,,,,,,,,,,,,,,,,,,,,,,,,,,,,,,,,,,,,,,,,,,,,,,,,,,,,,,,,,,,,,,,,,,,,,,,,,,,,,,,,,,,,,,,,,,,,,,,,,,,,,,,,,,,,,,,,,,,,,,,,,,,,,,,,,,,,,,
0,42,42,28,1,,5dac180a79d2ea00160034a3,62c53a429c287cc7faf3dbd5,2022-07-06_09h32.06.598,Colour_Asymmetry_Pilot,2022.1.3,Win32,60.27000964,62c50e9c1127f2cd403a315f,,,,,,,,,,,,,,,,,,,,,,,,,,,,,,,,,,,,,,,,,,,,,,,,,,,,,,,,,,,,,,,,,,,,,,,,,,,,,,,,,,,,,,,,,,,,,,,,,,,,,,,,,,,,,,,,,,,,,,,,,,,,,,,,,,,,,,,,,,,,,,,,,,,,,,,,,,,,,,,,,,,
0,43,43,18,1,,5dac180a79d2ea00160034a3,62c53a429c287cc7faf3dbd5,2022-07-06_09h32.06.598,Colour_Asymmetry_Pilot,2022.1.3,Win32,60.27000964,62c50e9c1127f2cd403a315f,,,,,,,,,,,,,,,,,,,,,,,,,,,,,,,,,,,,,,,,,,,,,,,,,,,,,,,,,,,,,,,,,,,,,,,,,,,,,,,,,,,,,,,,,,,,,,,,,,,,,,,,,,,,,,,,,,,,,,,,,,,,,,,,,,,,,,,,,,,,,,,,,,,,,,,,,,,,,,,,,,,
0,44,44,55,1,,5dac180a79d2ea00160034a3,62c53a429c287cc7faf3dbd5,2022-07-06_09h32.06.598,Colour_Asymmetry_Pilot,2022.1.3,Win32,60.27000964,62c50e9c1127f2cd403a315f,,,,,,,,,,,,,,,,,,,,,,,,,,,,,,,,,,,,,,,,,,,,,,,,,,,,,,,,,,,,,,,,,,,,,,,,,,,,,,,,,,,,,,,,,,,,,,,,,,,,,,,,,,,,,,,,,,,,,,,,,,,,,,,,,,,,,,,,,,,,,,,,,,,,,,,,,,,,,,,,,,,
0,45,45,46,1,,5dac180a79d2ea00160034a3,62c53a429c287cc7faf3dbd5,2022-07-06_09h32.06.598,Colour_Asymmetry_Pilot,2022.1.3,Win32,60.27000964,62c50e9c1127f2cd403a315f,,,,,,,,,,,,,,,,,,,,,,,,,,,,,,,,,,,,,,,,,,,,,,,,,,,,,,,,,,,,,,,,,,,,,,,,,,,,,,,,,,,,,,,,,,,,,,,,,,,,,,,,,,,,,,,,,,,,,,,,,,,,,,,,,,,,,,,,,,,,,,,,,,,,,,,,,,,,,,,,,,,
0,46,46,22,1,,5dac180a79d2ea00160034a3,62c53a429c287cc7faf3dbd5,2022-07-06_09h32.06.598,Colour_Asymmetry_Pilot,2022.1.3,Win32,60.27000964,62c50e9c1127f2cd403a315f,,,,,,,,,,,,,,,,,,,,,,,,,,,,,,,,,,,,,,,,,,,,,,,,,,,,,,,,,,,,,,,,,,,,,,,,,,,,,,,,,,,,,,,,,,,,,,,,,,,,,,,,,,,,,,,,,,,,,,,,,,,,,,,,,,,,,,,,,,,,,,,,,,,,,,,,,,,,,,,,,,,
0,47,47,33,1,,5dac180a79d2ea00160034a3,62c53a429c287cc7faf3dbd5,2022-07-06_09h32.06.598,Colour_Asymmetry_Pilot,2022.1.3,Win32,60.27000964,62c50e9c1127f2cd403a315f,,,,,,,,,,,,,,,,,,,,,,,,,,,,,,,,,,,,,,,,,,,,,,,,,,,,,,,,,,,,,,,,,,,,,,,,,,,,,,,,,,,,,,,,,,,,,,,,,,,,,,,,,,,,,,,,,,,,,,,,,,,,,,,,,,,,,,,,,,,,,,,,,,,,,,,,,,,,,,,,,,,
0,48,48,87,1,,5dac180a79d2ea00160034a3,62c53a429c287cc7faf3dbd5,2022-07-06_09h32.06.598,Colour_Asymmetry_Pilot,2022.1.3,Win32,60.27000964,62c50e9c1127f2cd403a315f,,,,,,,,,,,,,,,,,,,,,,,,,,,,,,,,,,,,,,,,,,,,,,,,,,,,,,,,,,,,,,,,,,,,,,,,,,,,,,,,,,,,,,,,,,,,,,,,,,,,,,,,,,,,,,,,,,,,,,,,,,,,,,,,,,,,,,,,,,,,,,,,,,,,,,,,,,,,,,,,,,,
0,49,49,84,1,,5dac180a79d2ea00160034a3,62c53a429c287cc7faf3dbd5,2022-07-06_09h32.06.598,Colour_Asymmetry_Pilot,2022.1.3,Win32,60.27000964,62c50e9c1127f2cd403a315f,,,,,,,,,,,,,,,,,,,,,,,,,,,,,,,,,,,,,,,,,,,,,,,,,,,,,,,,,,,,,,,,,,,,,,,,,,,,,,,,,,,,,,,,,,,,,,,,,,,,,,,,,,,,,,,,,,,,,,,,,,,,,,,,,,,,,,,,,,,,,,,,,,,,,,,,,,,,,,,,,,,
0,50,50,41,1,,5dac180a79d2ea00160034a3,62c53a429c287cc7faf3dbd5,2022-07-06_09h32.06.598,Colour_Asymmetry_Pilot,2022.1.3,Win32,60.27000964,62c50e9c1127f2cd403a315f,,,,,,,,,,,,,,,,,,,,,,,,,,,,,,,,,,,,,,,,,,,,,,,,,,,,,,,,,,,,,,,,,,,,,,,,,,,,,,,,,,,,,,,,,,,,,,,,,,,,,,,,,,,,,,,,,,,,,,,,,,,,,,,,,,,,,,,,,,,,,,,,,,,,,,,,,,,,,,,,,,,
0,51,51,57,1,,5dac180a79d2ea00160034a3,62c53a429c287cc7faf3dbd5,2022-07-06_09h32.06.598,Colour_Asymmetry_Pilot,2022.1.3,Win32,60.27000964,62c50e9c1127f2cd403a315f,,,,,,,,,,,,,,,,,,,,,,,,,,,,,,,,,,,,,,,,,,,,,,,,,,,,,,,,,,,,,,,,,,,,,,,,,,,,,,,,,,,,,,,,,,,,,,,,,,,,,,,,,,,,,,,,,,,,,,,,,,,,,,,,,,,,,,,,,,,,,,,,,,,,,,,,,,,,,,,,,,,
0,52,52,30,1,,5dac180a79d2ea00160034a3,62c53a429c287cc7faf3dbd5,2022-07-06_09h32.06.598,Colour_Asymmetry_Pilot,2022.1.3,Win32,60.27000964,62c50e9c1127f2cd403a315f,,,,,,,,,,,,,,,,,,,,,,,,,,,,,,,,,,,,,,,,,,,,,,,,,,,,,,,,,,,,,,,,,,,,,,,,,,,,,,,,,,,,,,,,,,,,,,,,,,,,,,,,,,,,,,,,,,,,,,,,,,,,,,,,,,,,,,,,,,,,,,,,,,,,,,,,,,,,,,,,,,,
0,53,53,54,1,,5dac180a79d2ea00160034a3,62c53a429c287cc7faf3dbd5,2022-07-06_09h32.06.598,Colour_Asymmetry_Pilot,2022.1.3,Win32,60.27000964,62c50e9c1127f2cd403a315f,,,,,,,,,,,,,,,,,,,,,,,,,,,,,,,,,,,,,,,,,,,,,,,,,,,,,,,,,,,,,,,,,,,,,,,,,,,,,,,,,,,,,,,,,,,,,,,,,,,,,,,,,,,,,,,,,,,,,,,,,,,,,,,,,,,,,,,,,,,,,,,,,,,,,,,,,,,,,,,,,,,
0,54,54,77,1,,5dac180a79d2ea00160034a3,62c53a429c287cc7faf3dbd5,2022-07-06_09h32.06.598,Colour_Asymmetry_Pilot,2022.1.3,Win32,60.27000964,62c50e9c1127f2cd403a315f,,,,,,,,,,,,,,,,,,,,,,,,,,,,,,,,,,,,,,,,,,,,,,,,,,,,,,,,,,,,,,,,,,,,,,,,,,,,,,,,,,,,,,,,,,,,,,,,,,,,,,,,,,,,,,,,,,,,,,,,,,,,,,,,,,,,,,,,,,,,,,,,,,,,,,,,,,,,,,,,,,,
0,55,55,1,1,,5dac180a79d2ea00160034a3,62c53a429c287cc7faf3dbd5,2022-07-06_09h32.06.598,Colour_Asymmetry_Pilot,2022.1.3,Win32,60.27000964,62c50e9c1127f2cd403a315f,,,,,,,,,,,,,,,,,,,,,,,,,,,,,,,,,,,,,,,,,,,,,,,,,,,,,,,,,,,,,,,,,,,,,,,,,,,,,,,,,,,,,,,,,,,,,,,,,,,,,,,,,,,,,,,,,,,,,,,,,,,,,,,,,,,,,,,,,,,,,,,,,,,,,,,,,,,,,,,,,,,
0,56,56,7,1,,5dac180a79d2ea00160034a3,62c53a429c287cc7faf3dbd5,2022-07-06_09h32.06.598,Colour_Asymmetry_Pilot,2022.1.3,Win32,60.27000964,62c50e9c1127f2cd403a315f,,,,,,,,,,,,,,,,,,,,,,,,,,,,,,,,,,,,,,,,,,,,,,,,,,,,,,,,,,,,,,,,,,,,,,,,,,,,,,,,,,,,,,,,,,,,,,,,,,,,,,,,,,,,,,,,,,,,,,,,,,,,,,,,,,,,,,,,,,,,,,,,,,,,,,,,,,,,,,,,,,,
0,57,57,89,1,,5dac180a79d2ea00160034a3,62c53a429c287cc7faf3dbd5,2022-07-06_09h32.06.598,Colour_Asymmetry_Pilot,2022.1.3,Win32,60.27000964,62c50e9c1127f2cd403a315f,,,,,,,,,,,,,,,,,,,,,,,,,,,,,,,,,,,,,,,,,,,,,,,,,,,,,,,,,,,,,,,,,,,,,,,,,,,,,,,,,,,,,,,,,,,,,,,,,,,,,,,,,,,,,,,,,,,,,,,,,,,,,,,,,,,,,,,,,,,,,,,,,,,,,,,,,,,,,,,,,,,
0,58,58,74,1,,5dac180a79d2ea00160034a3,62c53a429c287cc7faf3dbd5,2022-07-06_09h32.06.598,Colour_Asymmetry_Pilot,2022.1.3,Win32,60.27000964,62c50e9c1127f2cd403a315f,,,,,,,,,,,,,,,,,,,,,,,,,,,,,,,,,,,,,,,,,,,,,,,,,,,,,,,,,,,,,,,,,,,,,,,,,,,,,,,,,,,,,,,,,,,,,,,,,,,,,,,,,,,,,,,,,,,,,,,,,,,,,,,,,,,,,,,,,,,,,,,,,,,,,,,,,,,,,,,,,,,
0,59,59,24,1,,5dac180a79d2ea00160034a3,62c53a429c287cc7faf3dbd5,2022-07-06_09h32.06.598,Colour_Asymmetry_Pilot,2022.1.3,Win32,60.27000964,62c50e9c1127f2cd403a315f,,,,,,,,,,,,,,,,,,,,,,,,,,,,,,,,,,,,,,,,,,,,,,,,,,,,,,,,,,,,,,,,,,,,,,,,,,,,,,,,,,,,,,,,,,,,,,,,,,,,,,,,,,,,,,,,,,,,,,,,,,,,,,,,,,,,,,,,,,,,,,,,,,,,,,,,,,,,,,,,,,,
0,60,60,35,1,,5dac180a79d2ea00160034a3,62c53a429c287cc7faf3dbd5,2022-07-06_09h32.06.598,Colour_Asymmetry_Pilot,2022.1.3,Win32,60.27000964,62c50e9c1127f2cd403a315f,,,,,,,,,,,,,,,,,,,,,,,,,,,,,,,,,,,,,,,,,,,,,,,,,,,,,,,,,,,,,,,,,,,,,,,,,,,,,,,,,,,,,,,,,,,,,,,,,,,,,,,,,,,,,,,,,,,,,,,,,,,,,,,,,,,,,,,,,,,,,,,,,,,,,,,,,,,,,,,,,,,
0,61,61,21,1,,5dac180a79d2ea00160034a3,62c53a429c287cc7faf3dbd5,2022-07-06_09h32.06.598,Colour_Asymmetry_Pilot,2022.1.3,Win32,60.27000964,62c50e9c1127f2cd403a315f,,,,,,,,,,,,,,,,,,,,,,,,,,,,,,,,,,,,,,,,,,,,,,,,,,,,,,,,,,,,,,,,,,,,,,,,,,,,,,,,,,,,,,,,,,,,,,,,,,,,,,,,,,,,,,,,,,,,,,,,,,,,,,,,,,,,,,,,,,,,,,,,,,,,,,,,,,,,,,,,,,,
0,62,62,48,1,,5dac180a79d2ea00160034a3,62c53a429c287cc7faf3dbd5,2022-07-06_09h32.06.598,Colour_Asymmetry_Pilot,2022.1.3,Win32,60.27000964,62c50e9c1127f2cd403a315f,,,,,,,,,,,,,,,,,,,,,,,,,,,,,,,,,,,,,,,,,,,,,,,,,,,,,,,,,,,,,,,,,,,,,,,,,,,,,,,,,,,,,,,,,,,,,,,,,,,,,,,,,,,,,,,,,,,,,,,,,,,,,,,,,,,,,,,,,,,,,,,,,,,,,,,,,,,,,,,,,,,
0,63,63,14,1,,5dac180a79d2ea00160034a3,62c53a429c287cc7faf3dbd5,2022-07-06_09h32.06.598,Colour_Asymmetry_Pilot,2022.1.3,Win32,60.27000964,62c50e9c1127f2cd403a315f,,,,,,,,,,,,,,,,,,,,,,,,,,,,,,,,,,,,,,,,,,,,,,,,,,,,,,,,,,,,,,,,,,,,,,,,,,,,,,,,,,,,,,,,,,,,,,,,,,,,,,,,,,,,,,,,,,,,,,,,,,,,,,,,,,,,,,,,,,,,,,,,,,,,,,,,,,,,,,,,,,,
0,64,64,31,1,,5dac180a79d2ea00160034a3,62c53a429c287cc7faf3dbd5,2022-07-06_09h32.06.598,Colour_Asymmetry_Pilot,2022.1.3,Win32,60.27000964,62c50e9c1127f2cd403a315f,,,,,,,,,,,,,,,,,,,,,,,,,,,,,,,,,,,,,,,,,,,,,,,,,,,,,,,,,,,,,,,,,,,,,,,,,,,,,,,,,,,,,,,,,,,,,,,,,,,,,,,,,,,,,,,,,,,,,,,,,,,,,,,,,,,,,,,,,,,,,,,,,,,,,,,,,,,,,,,,,,,
0,65,65,36,1,,5dac180a79d2ea00160034a3,62c53a429c287cc7faf3dbd5,2022-07-06_09h32.06.598,Colour_Asymmetry_Pilot,2022.1.3,Win32,60.27000964,62c50e9c1127f2cd403a315f,,,,,,,,,,,,,,,,,,,,,,,,,,,,,,,,,,,,,,,,,,,,,,,,,,,,,,,,,,,,,,,,,,,,,,,,,,,,,,,,,,,,,,,,,,,,,,,,,,,,,,,,,,,,,,,,,,,,,,,,,,,,,,,,,,,,,,,,,,,,,,,,,,,,,,,,,,,,,,,,,,,
0,66,66,82,1,,5dac180a79d2ea00160034a3,62c53a429c287cc7faf3dbd5,2022-07-06_09h32.06.598,Colour_Asymmetry_Pilot,2022.1.3,Win32,60.27000964,62c50e9c1127f2cd403a315f,,,,,,,,,,,,,,,,,,,,,,,,,,,,,,,,,,,,,,,,,,,,,,,,,,,,,,,,,,,,,,,,,,,,,,,,,,,,,,,,,,,,,,,,,,,,,,,,,,,,,,,,,,,,,,,,,,,,,,,,,,,,,,,,,,,,,,,,,,,,,,,,,,,,,,,,,,,,,,,,,,,
0,67,67,13,1,,5dac180a79d2ea00160034a3,62c53a429c287cc7faf3dbd5,2022-07-06_09h32.06.598,Colour_Asymmetry_Pilot,2022.1.3,Win32,60.27000964,62c50e9c1127f2cd403a315f,,,,,,,,,,,,,,,,,,,,,,,,,,,,,,,,,,,,,,,,,,,,,,,,,,,,,,,,,,,,,,,,,,,,,,,,,,,,,,,,,,,,,,,,,,,,,,,,,,,,,,,,,,,,,,,,,,,,,,,,,,,,,,,,,,,,,,,,,,,,,,,,,,,,,,,,,,,,,,,,,,,
0,68,68,4,1,,5dac180a79d2ea00160034a3,62c53a429c287cc7faf3dbd5,2022-07-06_09h32.06.598,Colour_Asymmetry_Pilot,2022.1.3,Win32,60.27000964,62c50e9c1127f2cd403a315f,,,,,,,,,,,,,,,,,,,,,,,,,,,,,,,,,,,,,,,,,,,,,,,,,,,,,,,,,,,,,,,,,,,,,,,,,,,,,,,,,,,,,,,,,,,,,,,,,,,,,,,,,,,,,,,,,,,,,,,,,,,,,,,,,,,,,,,,,,,,,,,,,,,,,,,,,,,,,,,,,,,
0,69,69,40,1,,5dac180a79d2ea00160034a3,62c53a429c287cc7faf3dbd5,2022-07-06_09h32.06.598,Colour_Asymmetry_Pilot,2022.1.3,Win32,60.27000964,62c50e9c1127f2cd403a315f,,,,,,,,,,,,,,,,,,,,,,,,,,,,,,,,,,,,,,,,,,,,,,,,,,,,,,,,,,,,,,,,,,,,,,,,,,,,,,,,,,,,,,,,,,,,,,,,,,,,,,,,,,,,,,,,,,,,,,,,,,,,,,,,,,,,,,,,,,,,,,,,,,,,,,,,,,,,,,,,,,,
0,70,70,34,1,,5dac180a79d2ea00160034a3,62c53a429c287cc7faf3dbd5,2022-07-06_09h32.06.598,Colour_Asymmetry_Pilot,2022.1.3,Win32,60.27000964,62c50e9c1127f2cd403a315f,,,,,,,,,,,,,,,,,,,,,,,,,,,,,,,,,,,,,,,,,,,,,,,,,,,,,,,,,,,,,,,,,,,,,,,,,,,,,,,,,,,,,,,,,,,,,,,,,,,,,,,,,,,,,,,,,,,,,,,,,,,,,,,,,,,,,,,,,,,,,,,,,,,,,,,,,,,,,,,,,,,
0,71,71,76,1,,5dac180a79d2ea00160034a3,62c53a429c287cc7faf3dbd5,2022-07-06_09h32.06.598,Colour_Asymmetry_Pilot,2022.1.3,Win32,60.27000964,62c50e9c1127f2cd403a315f,,,,,,,,,,,,,,,,,,,,,,,,,,,,,,,,,,,,,,,,,,,,,,,,,,,,,,,,,,,,,,,,,,,,,,,,,,,,,,,,,,,,,,,,,,,,,,,,,,,,,,,,,,,,,,,,,,,,,,,,,,,,,,,,,,,,,,,,,,,,,,,,,,,,,,,,,,,,,,,,,,,
0,72,72,71,1,,5dac180a79d2ea00160034a3,62c53a429c287cc7faf3dbd5,2022-07-06_09h32.06.598,Colour_Asymmetry_Pilot,2022.1.3,Win32,60.27000964,62c50e9c1127f2cd403a315f,,,,,,,,,,,,,,,,,,,,,,,,,,,,,,,,,,,,,,,,,,,,,,,,,,,,,,,,,,,,,,,,,,,,,,,,,,,,,,,,,,,,,,,,,,,,,,,,,,,,,,,,,,,,,,,,,,,,,,,,,,,,,,,,,,,,,,,,,,,,,,,,,,,,,,,,,,,,,,,,,,,
0,73,73,26,1,,5dac180a79d2ea00160034a3,62c53a429c287cc7faf3dbd5,2022-07-06_09h32.06.598,Colour_Asymmetry_Pilot,2022.1.3,Win32,60.27000964,62c50e9c1127f2cd403a315f,,,,,,,,,,,,,,,,,,,,,,,,,,,,,,,,,,,,,,,,,,,,,,,,,,,,,,,,,,,,,,,,,,,,,,,,,,,,,,,,,,,,,,,,,,,,,,,,,,,,,,,,,,,,,,,,,,,,,,,,,,,,,,,,,,,,,,,,,,,,,,,,,,,,,,,,,,,,,,,,,,,
0,74,74,44,1,,5dac180a79d2ea00160034a3,62c53a429c287cc7faf3dbd5,2022-07-06_09h32.06.598,Colour_Asymmetry_Pilot,2022.1.3,Win32,60.27000964,62c50e9c1127f2cd403a315f,,,,,,,,,,,,,,,,,,,,,,,,,,,,,,,,,,,,,,,,,,,,,,,,,,,,,,,,,,,,,,,,,,,,,,,,,,,,,,,,,,,,,,,,,,,,,,,,,,,,,,,,,,,,,,,,,,,,,,,,,,,,,,,,,,,,,,,,,,,,,,,,,,,,,,,,,,,,,,,,,,,
0,75,75,83,1,,5dac180a79d2ea00160034a3,62c53a429c287cc7faf3dbd5,2022-07-06_09h32.06.598,Colour_Asymmetry_Pilot,2022.1.3,Win32,60.27000964,62c50e9c1127f2cd403a315f,,,,,,,,,,,,,,,,,,,,,,,,,,,,,,,,,,,,,,,,,,,,,,,,,,,,,,,,,,,,,,,,,,,,,,,,,,,,,,,,,,,,,,,,,,,,,,,,,,,,,,,,,,,,,,,,,,,,,,,,,,,,,,,,,,,,,,,,,,,,,,,,,,,,,,,,,,,,,,,,,,,
0,76,76,50,1,,5dac180a79d2ea00160034a3,62c53a429c287cc7faf3dbd5,2022-07-06_09h32.06.598,Colour_Asymmetry_Pilot,2022.1.3,Win32,60.27000964,62c50e9c1127f2cd403a315f,,,,,,,,,,,,,,,,,,,,,,,,,,,,,,,,,,,,,,,,,,,,,,,,,,,,,,,,,,,,,,,,,,,,,,,,,,,,,,,,,,,,,,,,,,,,,,,,,,,,,,,,,,,,,,,,,,,,,,,,,,,,,,,,,,,,,,,,,,,,,,,,,,,,,,,,,,,,,,,,,,,
0,77,77,0,1,,5dac180a79d2ea00160034a3,62c53a429c287cc7faf3dbd5,2022-07-06_09h32.06.598,Colour_Asymmetry_Pilot,2022.1.3,Win32,60.27000964,62c50e9c1127f2cd403a315f,,,,,,,,,,,,,,,,,,,,,,,,,,,,,,,,,,,,,,,,,,,,,,,,,,,,,,,,,,,,,,,,,,,,,,,,,,,,,,,,,,,,,,,,,,,,,,,,,,,,,,,,,,,,,,,,,,,,,,,,,,,,,,,,,,,,,,,,,,,,,,,,,,,,,,,,,,,,,,,,,,,
0,78,78,45,1,,5dac180a79d2ea00160034a3,62c53a429c287cc7faf3dbd5,2022-07-06_09h32.06.598,Colour_Asymmetry_Pilot,2022.1.3,Win32,60.27000964,62c50e9c1127f2cd403a315f,,,,,,,,,,,,,,,,,,,,,,,,,,,,,,,,,,,,,,,,,,,,,,,,,,,,,,,,,,,,,,,,,,,,,,,,,,,,,,,,,,,,,,,,,,,,,,,,,,,,,,,,,,,,,,,,,,,,,,,,,,,,,,,,,,,,,,,,,,,,,,,,,,,,,,,,,,,,,,,,,,,
0,79,79,27,1,,5dac180a79d2ea00160034a3,62c53a429c287cc7faf3dbd5,2022-07-06_09h32.06.598,Colour_Asymmetry_Pilot,2022.1.3,Win32,60.27000964,62c50e9c1127f2cd403a315f,,,,,,,,,,,,,,,,,,,,,,,,,,,,,,,,,,,,,,,,,,,,,,,,,,,,,,,,,,,,,,,,,,,,,,,,,,,,,,,,,,,,,,,,,,,,,,,,,,,,,,,,,,,,,,,,,,,,,,,,,,,,,,,,,,,,,,,,,,,,,,,,,,,,,,,,,,,,,,,,,,,
0,80,80,25,1,,5dac180a79d2ea00160034a3,62c53a429c287cc7faf3dbd5,2022-07-06_09h32.06.598,Colour_Asymmetry_Pilot,2022.1.3,Win32,60.27000964,62c50e9c1127f2cd403a315f,,,,,,,,,,,,,,,,,,,,,,,,,,,,,,,,,,,,,,,,,,,,,,,,,,,,,,,,,,,,,,,,,,,,,,,,,,,,,,,,,,,,,,,,,,,,,,,,,,,,,,,,,,,,,,,,,,,,,,,,,,,,,,,,,,,,,,,,,,,,,,,,,,,,,,,,,,,,,,,,,,,
0,81,81,81,1,,5dac180a79d2ea00160034a3,62c53a429c287cc7faf3dbd5,2022-07-06_09h32.06.598,Colour_Asymmetry_Pilot,2022.1.3,Win32,60.27000964,62c50e9c1127f2cd403a315f,,,,,,,,,,,,,,,,,,,,,,,,,,,,,,,,,,,,,,,,,,,,,,,,,,,,,,,,,,,,,,,,,,,,,,,,,,,,,,,,,,,,,,,,,,,,,,,,,,,,,,,,,,,,,,,,,,,,,,,,,,,,,,,,,,,,,,,,,,,,,,,,,,,,,,,,,,,,,,,,,,,
0,82,82,59,1,,5dac180a79d2ea00160034a3,62c53a429c287cc7faf3dbd5,2022-07-06_09h32.06.598,Colour_Asymmetry_Pilot,2022.1.3,Win32,60.27000964,62c50e9c1127f2cd403a315f,,,,,,,,,,,,,,,,,,,,,,,,,,,,,,,,,,,,,,,,,,,,,,,,,,,,,,,,,,,,,,,,,,,,,,,,,,,,,,,,,,,,,,,,,,,,,,,,,,,,,,,,,,,,,,,,,,,,,,,,,,,,,,,,,,,,,,,,,,,,,,,,,,,,,,,,,,,,,,,,,,,
0,83,83,12,1,,5dac180a79d2ea00160034a3,62c53a429c287cc7faf3dbd5,2022-07-06_09h32.06.598,Colour_Asymmetry_Pilot,2022.1.3,Win32,60.27000964,62c50e9c1127f2cd403a315f,,,,,,,,,,,,,,,,,,,,,,,,,,,,,,,,,,,,,,,,,,,,,,,,,,,,,,,,,,,,,,,,,,,,,,,,,,,,,,,,,,,,,,,,,,,,,,,,,,,,,,,,,,,,,,,,,,,,,,,,,,,,,,,,,,,,,,,,,,,,,,,,,,,,,,,,,,,,,,,,,,,
0,84,84,51,1,,5dac180a79d2ea00160034a3,62c53a429c287cc7faf3dbd5,2022-07-06_09h32.06.598,Colour_Asymmetry_Pilot,2022.1.3,Win32,60.27000964,62c50e9c1127f2cd403a315f,,,,,,,,,,,,,,,,,,,,,,,,,,,,,,,,,,,,,,,,,,,,,,,,,,,,,,,,,,,,,,,,,,,,,,,,,,,,,,,,,,,,,,,,,,,,,,,,,,,,,,,,,,,,,,,,,,,,,,,,,,,,,,,,,,,,,,,,,,,,,,,,,,,,,,,,,,,,,,,,,,,
0,85,85,67,1,,5dac180a79d2ea00160034a3,62c53a429c287cc7faf3dbd5,2022-07-06_09h32.06.598,Colour_Asymmetry_Pilot,2022.1.3,Win32,60.27000964,62c50e9c1127f2cd403a315f,,,,,,,,,,,,,,,,,,,,,,,,,,,,,,,,,,,,,,,,,,,,,,,,,,,,,,,,,,,,,,,,,,,,,,,,,,,,,,,,,,,,,,,,,,,,,,,,,,,,,,,,,,,,,,,,,,,,,,,,,,,,,,,,,,,,,,,,,,,,,,,,,,,,,,,,,,,,,,,,,,,
0,86,86,49,1,,5dac180a79d2ea00160034a3,62c53a429c287cc7faf3dbd5,2022-07-06_09h32.06.598,Colour_Asymmetry_Pilot,2022.1.3,Win32,60.27000964,62c50e9c1127f2cd403a315f,,,,,,,,,,,,,,,,,,,,,,,,,,,,,,,,,,,,,,,,,,,,,,,,,,,,,,,,,,,,,,,,,,,,,,,,,,,,,,,,,,,,,,,,,,,,,,,,,,,,,,,,,,,,,,,,,,,,,,,,,,,,,,,,,,,,,,,,,,,,,,,,,,,,,,,,,,,,,,,,,,,
0,87,87,69,1,,5dac180a79d2ea00160034a3,62c53a429c287cc7faf3dbd5,2022-07-06_09h32.06.598,Colour_Asymmetry_Pilot,2022.1.3,Win32,60.27000964,62c50e9c1127f2cd403a315f,,,,,,,,,,,,,,,,,,,,,,,,,,,,,,,,,,,,,,,,,,,,,,,,,,,,,,,,,,,,,,,,,,,,,,,,,,,,,,,,,,,,,,,,,,,,,,,,,,,,,,,,,,,,,,,,,,,,,,,,,,,,,,,,,,,,,,,,,,,,,,,,,,,,,,,,,,,,,,,,,,,
0,88,88,85,1,,5dac180a79d2ea00160034a3,62c53a429c287cc7faf3dbd5,2022-07-06_09h32.06.598,Colour_Asymmetry_Pilot,2022.1.3,Win32,60.27000964,62c50e9c1127f2cd403a315f,,,,,,,,,,,,,,,,,,,,,,,,,,,,,,,,,,,,,,,,,,,,,,,,,,,,,,,,,,,,,,,,,,,,,,,,,,,,,,,,,,,,,,,,,,,,,,,,,,,,,,,,,,,,,,,,,,,,,,,,,,,,,,,,,,,,,,,,,,,,,,,,,,,,,,,,,,,,,,,,,,,
0,89,89,62,1,,5dac180a79d2ea00160034a3,62c53a429c287cc7faf3dbd5,2022-07-06_09h32.06.598,Colour_Asymmetry_Pilot,2022.1.3,Win32,60.27000964,62c50e9c1127f2cd403a315f,,,,,,,,,,,,,,,,,,,,,,,,,,,,,,,,,,,,,,,,,,,,,,,,,,,,,,,,,,,,,,,,,,,,,,,,,,,,,,,,,,,,,,,,,,,,,,,,,,,,,,,,,,,,,,,,,,,,,,,,,,,,,,,,,,,,,,,,,,,,,,,,,,,,,,,,,,,,,,,,,,,
0,90,90,75,1,,5dac180a79d2ea00160034a3,62c53a429c287cc7faf3dbd5,2022-07-06_09h32.06.598,Colour_Asymmetry_Pilot,2022.1.3,Win32,60.27000964,62c50e9c1127f2cd403a315f,,,,,,,,,,,,,,,,,,,,,,,,,,,,,,,,,,,,,,,,,,,,,,,,,,,,,,,,,,,,,,,,,,,,,,,,,,,,,,,,,,,,,,,,,,,,,,,,,,,,,,,,,,,,,,,,,,,,,,,,,,,,,,,,,,,,,,,,,,,,,,,,,,,,,,,,,,,,,,,,,,,
0,91,91,78,1,,5dac180a79d2ea00160034a3,62c53a429c287cc7faf3dbd5,2022-07-06_09h32.06.598,Colour_Asymmetry_Pilot,2022.1.3,Win32,60.27000964,62c50e9c1127f2cd403a315f,,,,,,,,,,,,,,,,,,,,,,,,,,,,,,,,,,,,,,,,,,,,,,,,,,,,,,,,,,,,,,,,,,,,,,,,,,,,,,,,,,,,,,,,,,,,,,,,,,,,,,,,,,,,,,,,,,,,,,,,,,,,,,,,,,,,,,,,,,,,,,,,,,,,,,,,,,,,,,,,,,,
0,92,92,5,1,,5dac180a79d2ea00160034a3,62c53a429c287cc7faf3dbd5,2022-07-06_09h32.06.598,Colour_Asymmetry_Pilot,2022.1.3,Win32,60.27000964,62c50e9c1127f2cd403a315f,,,,,,,,,,,,,,,,,,,,,,,,,,,,,,,,,,,,,,,,,,,,,,,,,,,,,,,,,,,,,,,,,,,,,,,,,,,,,,,,,,,,,,,,,,,,,,,,,,,,,,,,,,,,,,,,,,,,,,,,,,,,,,,,,,,,,,,,,,,,,,,,,,,,,,,,,,,,,,,,,,,
,,,,,,5dac180a79d2ea00160034a3,62c53a429c287cc7faf3dbd5,2022-07-06_09h32.06.598,Colour_Asymmetry_Pilot,2022.1.3,Win32,60.27000964,62c50e9c1127f2cd403a315f,0,0,0,26,1,twoone,,,,,,,,,,,,,,,,,,,,,,,,,,,,,,,,,,,,,,,,,,,,,,,,,,,,,,,,,,,,,,,,,,,,,,,,,,,,,,,,,,,,,,,,,,,,,,,,,,,,,,,,,,,,,,,,,,,,,,,,,,,,,,,,,,,,,,,,,,,,,,,,,,,,,,,,,,,,,
,,,,,,5dac180a79d2ea00160034a3,62c53a429c287cc7faf3dbd5,2022-07-06_09h32.06.598,Colour_Asymmetry_Pilot,2022.1.3,Win32,60.27000964,62c50e9c1127f2cd403a315f,0,1,1,15,1,fourthree,,,,,,,,,,,,,,,,,,,,,,,,,,,,,,,,,,,,,,,,,,,,,,,,,,,,,,,,,,,,,,,,,,,,,,,,,,,,,,,,,,,,,,,,,,,,,,,,,,,,,,,,,,,,,,,,,,,,,,,,,,,,,,,,,,,,,,,,,,,,,,,,,,,,,,,,,,,,,
,,,,,,5dac180a79d2ea00160034a3,62c53a429c287cc7faf3dbd5,2022-07-06_09h32.06.598,Colour_Asymmetry_Pilot,2022.1.3,Win32,60.27000964,62c50e9c1127f2cd403a315f,0,2,2,0,1,onetwo,,,,,,,,,,,,,,,,,,,,,,,,,,,,,,,,,,,,,,,,,,,,,,,,,,,,,,,,,,,,,,,,,,,,,,,,,,,,,,,,,,,,,,,,,,,,,,,,,,,,,,,,,,,,,,,,,,,,,,,,,,,,,,,,,,,,,,,,,,,,,,,,,,,,,,,,,,,,,
,,,,,,5dac180a79d2ea00160034a3,62c53a429c287cc7faf3dbd5,2022-07-06_09h32.06.598,Colour_Asymmetry_Pilot,2022.1.3,Win32,60.27000964,62c50e9c1127f2cd403a315f,0,3,3,84,1,threeone,,,,,,,,,,,,,,,,,,,,,,,,,,,,,,,,,,,,,,,,,,,,,,,,,,,,,,,,,,,,,,,,,,,,,,,,,,,,,,,,,,,,,,,,,,,,,,,,,,,,,,,,,,,,,,,,,,,,,,,,,,,,,,,,,,,,,,,,,,,,,,,,,,,,,,,,,,,,,
,,,,,,5dac180a79d2ea00160034a3,62c53a429c287cc7faf3dbd5,2022-07-06_09h32.06.598,Colour_Asymmetry_Pilot,2022.1.3,Win32,60.27000964,62c50e9c1127f2cd403a315f,0,4,4,145,1,onethree,,,,,,,,,,,,,,,,,,,,,,,,,,,,,,,,,,,,,,,,,,,,,,,,,,,,,,,,,,,,,,,,,,,,,,,,,,,,,,,,,,,,,,,,,,,,,,,,,,,,,,,,,,,,,,,,,,,,,,,,,,,,,,,,,,,,,,,,,,,,,,,,,,,,,,,,,,,,,
,,,,,,5dac180a79d2ea00160034a3,62c53a429c287cc7faf3dbd5,2022-07-06_09h32.06.598,Colour_Asymmetry_Pilot,2022.1.3,Win32,60.27000964,62c50e9c1127f2cd403a315f,0,5,5,157,1,threefour,,,,,,,,,,,,,,,,,,,,,,,,,,,,,,,,,,,,,,,,,,,,,,,,,,,,,,,,,,,,,,,,,,,,,,,,,,,,,,,,,,,,,,,,,,,,,,,,,,,,,,,,,,,,,,,,,,,,,,,,,,,,,,,,,,,,,,,,,,,,,,,,,,,,,,,,,,,,,
,,,,,,5dac180a79d2ea00160034a3,62c53a429c287cc7faf3dbd5,2022-07-06_09h32.06.598,Colour_Asymmetry_Pilot,2022.1.3,Win32,60.27000964,62c50e9c1127f2cd403a315f,0,6,6,94,1,fourtwo,,,,,,,,,,,,,,,,,,,,,,,,,,,,,,,,,,,,,,,,,,,,,,,,,,,,,,,,,,,,,,,,,,,,,,,,,,,,,,,,,,,,,,,,,,,,,,,,,,,,,,,,,,,,,,,,,,,,,,,,,,,,,,,,,,,,,,,,,,,,,,,,,,,,,,,,,,,,,
,,,,,,5dac180a79d2ea00160034a3,62c53a429c287cc7faf3dbd5,2022-07-06_09h32.06.598,Colour_Asymmetry_Pilot,2022.1.3,Win32,60.27000964,62c50e9c1127f2cd403a315f,0,7,7,75,1,twofour,,,,,,,,,,,,,,,,,,,,,,,,,,,,,,,,,,,,,,,,,,,,,,,,,,,,,,,,,,,,,,,,,,,,,,,,,,,,,,,,,,,,,,,,,,,,,,,,,,,,,,,,,,,,,,,,,,,,,,,,,,,,,,,,,,,,,,,,,,,,,,,,,,,,,,,,,,,,,
,,,,,,5dac180a79d2ea00160034a3,62c53a429c287cc7faf3dbd5,2022-07-06_09h32.06.598,Colour_Asymmetry_Pilot,2022.1.3,Win32,60.27000964,62c50e9c1127f2cd403a315f,0,8,8,58,1,twoone,,,,,,,,,,,,,,,,,,,,,,,,,,,,,,,,,,,,,,,,,,,,,,,,,,,,,,,,,,,,,,,,,,,,,,,,,,,,,,,,,,,,,,,,,,,,,,,,,,,,,,,,,,,,,,,,,,,,,,,,,,,,,,,,,,,,,,,,,,,,,,,,,,,,,,,,,,,,,
,,,,,,5dac180a79d2ea00160034a3,62c53a429c287cc7faf3dbd5,2022-07-06_09h32.06.598,Colour_Asymmetry_Pilot,2022.1.3,Win32,60.27000964,62c50e9c1127f2cd403a315f,0,9,9,97,1,onethree,,,,,,,,,,,,,,,,,,,,,,,,,,,,,,,,,,,,,,,,,,,,,,,,,,,,,,,,,,,,,,,,,,,,,,,,,,,,,,,,,,,,,,,,,,,,,,,,,,,,,,,,,,,,,,,,,,,,,,,,,,,,,,,,,,,,,,,,,,,,,,,,,,,,,,,,,,,,,
,,,,,,5dac180a79d2ea00160034a3,62c53a429c287cc7faf3dbd5,2022-07-06_09h32.06.598,Colour_Asymmetry_Pilot,2022.1.3,Win32,60.27000964,62c50e9c1127f2cd403a315f,0,10,10,160,1,onetwo,,,,,,,,,,,,,,,,,,,,,,,,,,,,,,,,,,,,,,,,,,,,,,,,,,,,,,,,,,,,,,,,,,,,,,,,,,,,,,,,,,,,,,,,,,,,,,,,,,,,,,,,,,,,,,,,,,,,,,,,,,,,,,,,,,,,,,,,,,,,,,,,,,,,,,,,,,,,,
,,,,,,5dac180a79d2ea00160034a3,62c53a429c287cc7faf3dbd5,2022-07-06_09h32.06.598,Colour_Asymmetry_Pilot,2022.1.3,Win32,60.27000964,62c50e9c1127f2cd403a315f,0,11,11,106,1,twoone,,,,,,,,,,,,,,,,,,,,,,,,,,,,,,,,,,,,,,,,,,,,,,,,,,,,,,,,,,,,,,,,,,,,,,,,,,,,,,,,,,,,,,,,,,,,,,,,,,,,,,,,,,,,,,,,,,,,,,,,,,,,,,,,,,,,,,,,,,,,,,,,,,,,,,,,,,,,,
,,,,,,5dac180a79d2ea00160034a3,62c53a429c287cc7faf3dbd5,2022-07-06_09h32.06.598,Colour_Asymmetry_Pilot,2022.1.3,Win32,60.27000964,62c50e9c1127f2cd403a315f,0,12,12,17,1,onethree,,,,,,,,,,,,,,,,,,,,,,,,,,,,,,,,,,,,,,,,,,,,,,,,,,,,,,,,,,,,,,,,,,,,,,,,,,,,,,,,,,,,,,,,,,,,,,,,,,,,,,,,,,,,,,,,,,,,,,,,,,,,,,,,,,,,,,,,,,,,,,,,,,,,,,,,,,,,,
,,,,,,5dac180a79d2ea00160034a3,62c53a429c287cc7faf3dbd5,2022-07-06_09h32.06.598,Colour_Asymmetry_Pilot,2022.1.3,Win32,60.27000964,62c50e9c1127f2cd403a315f,0,13,13,9,1,onethree,,,,,,,,,,,,,,,,,,,,,,,,,,,,,,,,,,,,,,,,,,,,,,,,,,,,,,,,,,,,,,,,,,,,,,,,,,,,,,,,,,,,,,,,,,,,,,,,,,,,,,,,,,,,,,,,,,,,,,,,,,,,,,,,,,,,,,,,,,,,,,,,,,,,,,,,,,,,,
,,,,,,5dac180a79d2ea00160034a3,62c53a429c287cc7faf3dbd5,2022-07-06_09h32.06.598,Colour_Asymmetry_Pilot,2022.1.3,Win32,60.27000964,62c50e9c1127f2cd403a315f,0,14,14,45,1,threefour,,,,,,,,,,,,,,,,,,,,,,,,,,,,,,,,,,,,,,,,,,,,,,,,,,,,,,,,,,,,,,,,,,,,,,,,,,,,,,,,,,,,,,,,,,,,,,,,,,,,,,,,,,,,,,,,,,,,,,,,,,,,,,,,,,,,,,,,,,,,,,,,,,,,,,,,,,,,,
,,,,,,5dac180a79d2ea00160034a3,62c53a429c287cc7faf3dbd5,2022-07-06_09h32.06.598,Colour_Asymmetry_Pilot,2022.1.3,Win32,60.27000964,62c50e9c1127f2cd403a315f,0,15,15,38,1,fourtwo,,,,,,,,,,,,,,,,,,,,,,,,,,,,,,,,,,,,,,,,,,,,,,,,,,,,,,,,,,,,,,,,,,,,,,,,,,,,,,,,,,,,,,,,,,,,,,,,,,,,,,,,,,,,,,,,,,,,,,,,,,,,,,,,,,,,,,,,,,,,,,,,,,,,,,,,,,,,,
,,,,,,5dac180a79d2ea00160034a3,62c53a429c287cc7faf3dbd5,2022-07-06_09h32.06.598,Colour_Asymmetry_Pilot,2022.1.3,Win32,60.27000964,62c50e9c1127f2cd403a315f,0,16,16,109,1,threefour,,,,,,,,,,,,,,,,,,,,,,,,,,,,,,,,,,,,,,,,,,,,,,,,,,,,,,,,,,,,,,,,,,,,,,,,,,,,,,,,,,,,,,,,,,,,,,,,,,,,,,,,,,,,,,,,,,,,,,,,,,,,,,,,,,,,,,,,,,,,,,,,,,,,,,,,,,,,,
,,,,,,5dac180a79d2ea00160034a3,62c53a429c287cc7faf3dbd5,2022-07-06_09h32.06.598,Colour_Asymmetry_Pilot,2022.1.3,Win32,60.27000964,62c50e9c1127f2cd403a315f,0,17,17,151,1,fourthree,,,,,,,,,,,,,,,,,,,,,,,,,,,,,,,,,,,,,,,,,,,,,,,,,,,,,,,,,,,,,,,,,,,,,,,,,,,,,,,,,,,,,,,,,,,,,,,,,,,,,,,,,,,,,,,,,,,,,,,,,,,,,,,,,,,,,,,,,,,,,,,,,,,,,,,,,,,,,
,,,,,,5dac180a79d2ea00160034a3,62c53a429c287cc7faf3dbd5,2022-07-06_09h32.06.598,Colour_Asymmetry_Pilot,2022.1.3,Win32,60.27000964,62c50e9c1127f2cd403a315f,0,18,18,29,1,threefour,,,,,,,,,,,,,,,,,,,,,,,,,,,,,,,,,,,,,,,,,,,,,,,,,,,,,,,,,,,,,,,,,,,,,,,,,,,,,,,,,,,,,,,,,,,,,,,,,,,,,,,,,,,,,,,,,,,,,,,,,,,,,,,,,,,,,,,,,,,,,,,,,,,,,,,,,,,,,
,,,,,,5dac180a79d2ea00160034a3,62c53a429c287cc7faf3dbd5,2022-07-06_09h32.06.598,Colour_Asymmetry_Pilot,2022.1.3,Win32,60.27000964,62c50e9c1127f2cd403a315f,0,19,19,102,1,fourtwo,,,,,,,,,,,,,,,,,,,,,,,,,,,,,,,,,,,,,,,,,,,,,,,,,,,,,,,,,,,,,,,,,,,,,,,,,,,,,,,,,,,,,,,,,,,,,,,,,,,,,,,,,,,,,,,,,,,,,,,,,,,,,,,,,,,,,,,,,,,,,,,,,,,,,,,,,,,,,
,,,,,,5dac180a79d2ea00160034a3,62c53a429c287cc7faf3dbd5,2022-07-06_09h32.06.598,Colour_Asymmetry_Pilot,2022.1.3,Win32,60.27000964,62c50e9c1127f2cd403a315f,0,20,20,99,1,twofour,,,,,,,,,,,,,,,,,,,,,,,,,,,,,,,,,,,,,,,,,,,,,,,,,,,,,,,,,,,,,,,,,,,,,,,,,,,,,,,,,,,,,,,,,,,,,,,,,,,,,,,,,,,,,,,,,,,,,,,,,,,,,,,,,,,,,,,,,,,,,,,,,,,,,,,,,,,,,
,,,,,,5dac180a79d2ea00160034a3,62c53a429c287cc7faf3dbd5,2022-07-06_09h32.06.598,Colour_Asymmetry_Pilot,2022.1.3,Win32,60.27000964,62c50e9c1127f2cd403a315f,0,21,21,146,1,twoone,,,,,,,,,,,,,,,,,,,,,,,,,,,,,,,,,,,,,,,,,,,,,,,,,,,,,,,,,,,,,,,,,,,,,,,,,,,,,,,,,,,,,,,,,,,,,,,,,,,,,,,,,,,,,,,,,,,,,,,,,,,,,,,,,,,,,,,,,,,,,,,,,,,,,,,,,,,,,
,,,,,,5dac180a79d2ea00160034a3,62c53a429c287cc7faf3dbd5,2022-07-06_09h32.06.598,Colour_Asymmetry_Pilot,2022.1.3,Win32,60.27000964,62c50e9c1127f2cd403a315f,0,22,22,141,1,threefour,,,,,,,,,,,,,,,,,,,,,,,,,,,,,,,,,,,,,,,,,,,,,,,,,,,,,,,,,,,,,,,,,,,,,,,,,,,,,,,,,,,,,,,,,,,,,,,,,,,,,,,,,,,,,,,,,,,,,,,,,,,,,,,,,,,,,,,,,,,,,,,,,,,,,,,,,,,,,
,,,,,,5dac180a79d2ea00160034a3,62c53a429c287cc7faf3dbd5,2022-07-06_09h32.06.598,Colour_Asymmetry_Pilot,2022.1.3,Win32,60.27000964,62c50e9c1127f2cd403a315f,0,23,23,89,1,onethree,,,,,,,,,,,,,,,,,,,,,,,,,,,,,,,,,,,,,,,,,,,,,,,,,,,,,,,,,,,,,,,,,,,,,,,,,,,,,,,,,,,,,,,,,,,,,,,,,,,,,,,,,,,,,,,,,,,,,,,,,,,,,,,,,,,,,,,,,,,,,,,,,,,,,,,,,,,,,
,,,,,,5dac180a79d2ea00160034a3,62c53a429c287cc7faf3dbd5,2022-07-06_09h32.06.598,Colour_Asymmetry_Pilot,2022.1.3,Win32,60.27000964,62c50e9c1127f2cd403a315f,0,24,24,125,1,threefour,,,,,,,,,,,,,,,,,,,,,,,,,,,,,,,,,,,,,,,,,,,,,,,,,,,,,,,,,,,,,,,,,,,,,,,,,,,,,,,,,,,,,,,,,,,,,,,,,,,,,,,,,,,,,,,,,,,,,,,,,,,,,,,,,,,,,,,,,,,,,,,,,,,,,,,,,,,,,
,,,,,,5dac180a79d2ea00160034a3,62c53a429c287cc7faf3dbd5,2022-07-06_09h32.06.598,Colour_Asymmetry_Pilot,2022.1.3,Win32,60.27000964,62c50e9c1127f2cd403a315f,0,25,25,70,1,fourtwo,,,,,,,,,,,,,,,,,,,,,,,,,,,,,,,,,,,,,,,,,,,,,,,,,,,,,,,,,,,,,,,,,,,,,,,,,,,,,,,,,,,,,,,,,,,,,,,,,,,,,,,,,,,,,,,,,,,,,,,,,,,,,,,,,,,,,,,,,,,,,,,,,,,,,,,,,,,,,
,,,,,,5dac180a79d2ea00160034a3,62c53a429c287cc7faf3dbd5,2022-07-06_09h32.06.598,Colour_Asymmetry_Pilot,2022.1.3,Win32,60.27000964,62c50e9c1127f2cd403a315f,0,26,26,19,1,twofour,,,,,,,,,,,,,,,,,,,,,,,,,,,,,,,,,,,,,,,,,,,,,,,,,,,,,,,,,,,,,,,,,,,,,,,,,,,,,,,,,,,,,,,,,,,,,,,,,,,,,,,,,,,,,,,,,,,,,,,,,,,,,,,,,,,,,,,,,,,,,,,,,,,,,,,,,,,,,
,,,,,,5dac180a79d2ea00160034a3,62c53a429c287cc7faf3dbd5,2022-07-06_09h32.06.598,Colour_Asymmetry_Pilot,2022.1.3,Win32,60.27000964,62c50e9c1127f2cd403a315f,0,27,27,152,1,onetwo,,,,,,,,,,,,,,,,,,,,,,,,,,,,,,,,,,,,,,,,,,,,,,,,,,,,,,,,,,,,,,,,,,,,,,,,,,,,,,,,,,,,,,,,,,,,,,,,,,,,,,,,,,,,,,,,,,,,,,,,,,,,,,,,,,,,,,,,,,,,,,,,,,,,,,,,,,,,,
,,,,,,5dac180a79d2ea00160034a3,62c53a429c287cc7faf3dbd5,2022-07-06_09h32.06.598,Colour_Asymmetry_Pilot,2022.1.3,Win32,60.27000964,62c50e9c1127f2cd403a315f,0,28,28,71,1,fourthree,,,,,,,,,,,,,,,,,,,,,,,,,,,,,,,,,,,,,,,,,,,,,,,,,,,,,,,,,,,,,,,,,,,,,,,,,,,,,,,,,,,,,,,,,,,,,,,,,,,,,,,,,,,,,,,,,,,,,,,,,,,,,,,,,,,,,,,,,,,,,,,,,,,,,,,,,,,,,
,,,,,,5dac180a79d2ea00160034a3,62c53a429c287cc7faf3dbd5,2022-07-06_09h32.06.598,Colour_Asymmetry_Pilot,2022.1.3,Win32,60.27000964,62c50e9c1127f2cd403a315f,0,29,29,79,1,fourthree,,,,,,,,,,,,,,,,,,,,,,,,,,,,,,,,,,,,,,,,,,,,,,,,,,,,,,,,,,,,,,,,,,,,,,,,,,,,,,,,,,,,,,,,,,,,,,,,,,,,,,,,,,,,,,,,,,,,,,,,,,,,,,,,,,,,,,,,,,,,,,,,,,,,,,,,,,,,,
,,,,,,5dac180a79d2ea00160034a3,62c53a429c287cc7faf3dbd5,2022-07-06_09h32.06.598,Colour_Asymmetry_Pilot,2022.1.3,Win32,60.27000964,62c50e9c1127f2cd403a315f,0,30,30,11,1,twofour,,,,,,,,,,,,,,,,,,,,,,,,,,,,,,,,,,,,,,,,,,,,,,,,,,,,,,,,,,,,,,,,,,,,,,,,,,,,,,,,,,,,,,,,,,,,,,,,,,,,,,,,,,,,,,,,,,,,,,,,,,,,,,,,,,,,,,,,,,,,,,,,,,,,,,,,,,,,,
,,,,,,5dac180a79d2ea00160034a3,62c53a429c287cc7faf3dbd5,2022-07-06_09h32.06.598,Colour_Asymmetry_Pilot,2022.1.3,Win32,60.27000964,62c50e9c1127f2cd403a315f,0,31,31,90,1,twoone,,,,,,,,,,,,,,,,,,,,,,,,,,,,,,,,,,,,,,,,,,,,,,,,,,,,,,,,,,,,,,,,,,,,,,,,,,,,,,,,,,,,,,,,,,,,,,,,,,,,,,,,,,,,,,,,,,,,,,,,,,,,,,,,,,,,,,,,,,,,,,,,,,,,,,,,,,,,,
,,,,,,5dac180a79d2ea00160034a3,62c53a429c287cc7faf3dbd5,2022-07-06_09h32.06.598,Colour_Asymmetry_Pilot,2022.1.3,Win32,60.27000964,62c50e9c1127f2cd403a315f,0,32,32,8,1,onetwo,,,,,,,,,,,,,,,,,,,,,,,,,,,,,,,,,,,,,,,,,,,,,,,,,,,,,,,,,,,,,,,,,,,,,,,,,,,,,,,,,,,,,,,,,,,,,,,,,,,,,,,,,,,,,,,,,,,,,,,,,,,,,,,,,,,,,,,,,,,,,,,,,,,,,,,,,,,,,
,,,,,,5dac180a79d2ea00160034a3,62c53a429c287cc7faf3dbd5,2022-07-06_09h32.06.598,Colour_Asymmetry_Pilot,2022.1.3,Win32,60.27000964,62c50e9c1127f2cd403a315f,0,33,33,7,1,fourthree,,,,,,,,,,,,,,,,,,,,,,,,,,,,,,,,,,,,,,,,,,,,,,,,,,,,,,,,,,,,,,,,,,,,,,,,,,,,,,,,,,,,,,,,,,,,,,,,,,,,,,,,,,,,,,,,,,,,,,,,,,,,,,,,,,,,,,,,,,,,,,,,,,,,,,,,,,,,,
,,,,,,5dac180a79d2ea00160034a3,62c53a429c287cc7faf3dbd5,2022-07-06_09h32.06.598,Colour_Asymmetry_Pilot,2022.1.3,Win32,60.27000964,62c50e9c1127f2cd403a315f,0,34,34,148,1,threeone,,,,,,,,,,,,,,,,,,,,,,,,,,,,,,,,,,,,,,,,,,,,,,,,,,,,,,,,,,,,,,,,,,,,,,,,,,,,,,,,,,,,,,,,,,,,,,,,,,,,,,,,,,,,,,,,,,,,,,,,,,,,,,,,,,,,,,,,,,,,,,,,,,,,,,,,,,,,,
,,,,,,5dac180a79d2ea00160034a3,62c53a429c287cc7faf3dbd5,2022-07-06_09h32.06.598,Colour_Asymmetry_Pilot,2022.1.3,Win32,60.27000964,62c50e9c1127f2cd403a315f,0,35,35,27,1,twofour,,,,,,,,,,,,,,,,,,,,,,,,,,,,,,,,,,,,,,,,,,,,,,,,,,,,,,,,,,,,,,,,,,,,,,,,,,,,,,,,,,,,,,,,,,,,,,,,,,,,,,,,,,,,,,,,,,,,,,,,,,,,,,,,,,,,,,,,,,,,,,,,,,,,,,,,,,,,,
,,,,,,5dac180a79d2ea00160034a3,62c53a429c287cc7faf3dbd5,2022-07-06_09h32.06.598,Colour_Asymmetry_Pilot,2022.1.3,Win32,60.27000964,62c50e9c1127f2cd403a315f,0,36,36,120,1,onetwo,,,,,,,,,,,,,,,,,,,,,,,,,,,,,,,,,,,,,,,,,,,,,,,,,,,,,,,,,,,,,,,,,,,,,,,,,,,,,,,,,,,,,,,,,,,,,,,,,,,,,,,,,,,,,,,,,,,,,,,,,,,,,,,,,,,,,,,,,,,,,,,,,,,,,,,,,,,,,
,,,,,,5dac180a79d2ea00160034a3,62c53a429c287cc7faf3dbd5,2022-07-06_09h32.06.598,Colour_Asymmetry_Pilot,2022.1.3,Win32,60.27000964,62c50e9c1127f2cd403a315f,0,37,37,155,1,twofour,,,,,,,,,,,,,,,,,,,,,,,,,,,,,,,,,,,,,,,,,,,,,,,,,,,,,,,,,,,,,,,,,,,,,,,,,,,,,,,,,,,,,,,,,,,,,,,,,,,,,,,,,,,,,,,,,,,,,,,,,,,,,,,,,,,,,,,,,,,,,,,,,,,,,,,,,,,,,
,,,,,,5dac180a79d2ea00160034a3,62c53a429c287cc7faf3dbd5,2022-07-06_09h32.06.598,Colour_Asymmetry_Pilot,2022.1.3,Win32,60.27000964,62c50e9c1127f2cd403a315f,0,38,38,22,1,fourtwo,,,,,,,,,,,,,,,,,,,,,,,,,,,,,,,,,,,,,,,,,,,,,,,,,,,,,,,,,,,,,,,,,,,,,,,,,,,,,,,,,,,,,,,,,,,,,,,,,,,,,,,,,,,,,,,,,,,,,,,,,,,,,,,,,,,,,,,,,,,,,,,,,,,,,,,,,,,,,
,,,,,,5dac180a79d2ea00160034a3,62c53a429c287cc7faf3dbd5,2022-07-06_09h32.06.598,Colour_Asymmetry_Pilot,2022.1.3,Win32,60.27000964,62c50e9c1127f2cd403a315f,0,39,39,48,1,onetwo,,,,,,,,,,,,,,,,,,,,,,,,,,,,,,,,,,,,,,,,,,,,,,,,,,,,,,,,,,,,,,,,,,,,,,,,,,,,,,,,,,,,,,,,,,,,,,,,,,,,,,,,,,,,,,,,,,,,,,,,,,,,,,,,,,,,,,,,,,,,,,,,,,,,,,,,,,,,,
,,,,,,5dac180a79d2ea00160034a3,62c53a429c287cc7faf3dbd5,2022-07-06_09h32.06.598,Colour_Asymmetry_Pilot,2022.1.3,Win32,60.27000964,62c50e9c1127f2cd403a315f,0,40,40,55,1,fourthree,,,,,,,,,,,,,,,,,,,,,,,,,,,,,,,,,,,,,,,,,,,,,,,,,,,,,,,,,,,,,,,,,,,,,,,,,,,,,,,,,,,,,,,,,,,,,,,,,,,,,,,,,,,,,,,,,,,,,,,,,,,,,,,,,,,,,,,,,,,,,,,,,,,,,,,,,,,,,
,,,,,,5dac180a79d2ea00160034a3,62c53a429c287cc7faf3dbd5,2022-07-06_09h32.06.598,Colour_Asymmetry_Pilot,2022.1.3,Win32,60.27000964,62c50e9c1127f2cd403a315f,0,41,41,85,1,threefour,,,,,,,,,,,,,,,,,,,,,,,,,,,,,,,,,,,,,,,,,,,,,,,,,,,,,,,,,,,,,,,,,,,,,,,,,,,,,,,,,,,,,,,,,,,,,,,,,,,,,,,,,,,,,,,,,,,,,,,,,,,,,,,,,,,,,,,,,,,,,,,,,,,,,,,,,,,,,
,,,,,,5dac180a79d2ea00160034a3,62c53a429c287cc7faf3dbd5,2022-07-06_09h32.06.598,Colour_Asymmetry_Pilot,2022.1.3,Win32,60.27000964,62c50e9c1127f2cd403a315f,0,42,42,67,1,twofour,,,,,,,,,,,,,,,,,,,,,,,,,,,,,,,,,,,,,,,,,,,,,,,,,,,,,,,,,,,,,,,,,,,,,,,,,,,,,,,,,,,,,,,,,,,,,,,,,,,,,,,,,,,,,,,,,,,,,,,,,,,,,,,,,,,,,,,,,,,,,,,,,,,,,,,,,,,,,
,,,,,,5dac180a79d2ea00160034a3,62c53a429c287cc7faf3dbd5,2022-07-06_09h32.06.598,Colour_Asymmetry_Pilot,2022.1.3,Win32,60.27000964,62c50e9c1127f2cd403a315f,0,43,43,137,1,onethree,,,,,,,,,,,,,,,,,,,,,,,,,,,,,,,,,,,,,,,,,,,,,,,,,,,,,,,,,,,,,,,,,,,,,,,,,,,,,,,,,,,,,,,,,,,,,,,,,,,,,,,,,,,,,,,,,,,,,,,,,,,,,,,,,,,,,,,,,,,,,,,,,,,,,,,,,,,,,
,,,,,,5dac180a79d2ea00160034a3,62c53a429c287cc7faf3dbd5,2022-07-06_09h32.06.598,Colour_Asymmetry_Pilot,2022.1.3,Win32,60.27000964,62c50e9c1127f2cd403a315f,0,44,44,2,1,twoone,,,,,,,,,,,,,,,,,,,,,,,,,,,,,,,,,,,,,,,,,,,,,,,,,,,,,,,,,,,,,,,,,,,,,,,,,,,,,,,,,,,,,,,,,,,,,,,,,,,,,,,,,,,,,,,,,,,,,,,,,,,,,,,,,,,,,,,,,,,,,,,,,,,,,,,,,,,,,
,,,,,,5dac180a79d2ea00160034a3,62c53a429c287cc7faf3dbd5,2022-07-06_09h32.06.598,Colour_Asymmetry_Pilot,2022.1.3,Win32,60.27000964,62c50e9c1127f2cd403a315f,0,45,45,37,1,threefour,,,,,,,,,,,,,,,,,,,,,,,,,,,,,,,,,,,,,,,,,,,,,,,,,,,,,,,,,,,,,,,,,,,,,,,,,,,,,,,,,,,,,,,,,,,,,,,,,,,,,,,,,,,,,,,,,,,,,,,,,,,,,,,,,,,,,,,,,,,,,,,,,,,,,,,,,,,,,
,,,,,,5dac180a79d2ea00160034a3,62c53a429c287cc7faf3dbd5,2022-07-06_09h32.06.598,Colour_Asymmetry_Pilot,2022.1.3,Win32,60.27000964,62c50e9c1127f2cd403a315f,0,46,46,123,1,twofour,,,,,,,,,,,,,,,,,,,,,,,,,,,,,,,,,,,,,,,,,,,,,,,,,,,,,,,,,,,,,,,,,,,,,,,,,,,,,,,,,,,,,,,,,,,,,,,,,,,,,,,,,,,,,,,,,,,,,,,,,,,,,,,,,,,,,,,,,,,,,,,,,,,,,,,,,,,,,
,,,,,,5dac180a79d2ea00160034a3,62c53a429c287cc7faf3dbd5,2022-07-06_09h32.06.598,Colour_Asymmetry_Pilot,2022.1.3,Win32,60.27000964,62c50e9c1127f2cd403a315f,0,47,47,130,1,twoone,,,,,,,,,,,,,,,,,,,,,,,,,,,,,,,,,,,,,,,,,,,,,,,,,,,,,,,,,,,,,,,,,,,,,,,,,,,,,,,,,,,,,,,,,,,,,,,,,,,,,,,,,,,,,,,,,,,,,,,,,,,,,,,,,,,,,,,,,,,,,,,,,,,,,,,,,,,,,
,,,,,,5dac180a79d2ea00160034a3,62c53a429c287cc7faf3dbd5,2022-07-06_09h32.06.598,Colour_Asymmetry_Pilot,2022.1.3,Win32,60.27000964,62c50e9c1127f2cd403a315f,0,48,48,149,1,threefour,,,,,,,,,,,,,,,,,,,,,,,,,,,,,,,,,,,,,,,,,,,,,,,,,,,,,,,,,,,,,,,,,,,,,,,,,,,,,,,,,,,,,,,,,,,,,,,,,,,,,,,,,,,,,,,,,,,,,,,,,,,,,,,,,,,,,,,,,,,,,,,,,,,,,,,,,,,,,
,,,,,,5dac180a79d2ea00160034a3,62c53a429c287cc7faf3dbd5,2022-07-06_09h32.06.598,Colour_Asymmetry_Pilot,2022.1.3,Win32,60.27000964,62c50e9c1127f2cd403a315f,0,49,49,32,1,onetwo,,,,,,,,,,,,,,,,,,,,,,,,,,,,,,,,,,,,,,,,,,,,,,,,,,,,,,,,,,,,,,,,,,,,,,,,,,,,,,,,,,,,,,,,,,,,,,,,,,,,,,,,,,,,,,,,,,,,,,,,,,,,,,,,,,,,,,,,,,,,,,,,,,,,,,,,,,,,,
,,,,,,5dac180a79d2ea00160034a3,62c53a429c287cc7faf3dbd5,2022-07-06_09h32.06.598,Colour_Asymmetry_Pilot,2022.1.3,Win32,60.27000964,62c50e9c1127f2cd403a315f,0,50,50,13,1,threefour,,,,,,,,,,,,,,,,,,,,,,,,,,,,,,,,,,,,,,,,,,,,,,,,,,,,,,,,,,,,,,,,,,,,,,,,,,,,,,,,,,,,,,,,,,,,,,,,,,,,,,,,,,,,,,,,,,,,,,,,,,,,,,,,,,,,,,,,,,,,,,,,,,,,,,,,,,,,,
,,,,,,5dac180a79d2ea00160034a3,62c53a429c287cc7faf3dbd5,2022-07-06_09h32.06.598,Colour_Asymmetry_Pilot,2022.1.3,Win32,60.27000964,62c50e9c1127f2cd403a315f,0,51,51,51,1,twofour,,,,,,,,,,,,,,,,,,,,,,,,,,,,,,,,,,,,,,,,,,,,,,,,,,,,,,,,,,,,,,,,,,,,,,,,,,,,,,,,,,,,,,,,,,,,,,,,,,,,,,,,,,,,,,,,,,,,,,,,,,,,,,,,,,,,,,,,,,,,,,,,,,,,,,,,,,,,,
,,,,,,5dac180a79d2ea00160034a3,62c53a429c287cc7faf3dbd5,2022-07-06_09h32.06.598,Colour_Asymmetry_Pilot,2022.1.3,Win32,60.27000964,62c50e9c1127f2cd403a315f,0,52,52,93,1,threefour,,,,,,,,,,,,,,,,,,,,,,,,,,,,,,,,,,,,,,,,,,,,,,,,,,,,,,,,,,,,,,,,,,,,,,,,,,,,,,,,,,,,,,,,,,,,,,,,,,,,,,,,,,,,,,,,,,,,,,,,,,,,,,,,,,,,,,,,,,,,,,,,,,,,,,,,,,,,,
,,,,,,5dac180a79d2ea00160034a3,62c53a429c287cc7faf3dbd5,2022-07-06_09h32.06.598,Colour_Asymmetry_Pilot,2022.1.3,Win32,60.27000964,62c50e9c1127f2cd403a315f,0,53,53,39,1,fourthree,,,,,,,,,,,,,,,,,,,,,,,,,,,,,,,,,,,,,,,,,,,,,,,,,,,,,,,,,,,,,,,,,,,,,,,,,,,,,,,,,,,,,,,,,,,,,,,,,,,,,,,,,,,,,,,,,,,,,,,,,,,,,,,,,,,,,,,,,,,,,,,,,,,,,,,,,,,,,
,,,,,,5dac180a79d2ea00160034a3,62c53a429c287cc7faf3dbd5,2022-07-06_09h32.06.598,Colour_Asymmetry_Pilot,2022.1.3,Win32,60.27000964,62c50e9c1127f2cd403a315f,0,54,54,34,1,twoone,,,,,,,,,,,,,,,,,,,,,,,,,,,,,,,,,,,,,,,,,,,,,,,,,,,,,,,,,,,,,,,,,,,,,,,,,,,,,,,,,,,,,,,,,,,,,,,,,,,,,,,,,,,,,,,,,,,,,,,,,,,,,,,,,,,,,,,,,,,,,,,,,,,,,,,,,,,,,
,,,,,,5dac180a79d2ea00160034a3,62c53a429c287cc7faf3dbd5,2022-07-06_09h32.06.598,Colour_Asymmetry_Pilot,2022.1.3,Win32,60.27000964,62c50e9c1127f2cd403a315f,0,55,55,131,1,twofour,,,,,,,,,,,,,,,,,,,,,,,,,,,,,,,,,,,,,,,,,,,,,,,,,,,,,,,,,,,,,,,,,,,,,,,,,,,,,,,,,,,,,,,,,,,,,,,,,,,,,,,,,,,,,,,,,,,,,,,,,,,,,,,,,,,,,,,,,,,,,,,,,,,,,,,,,,,,,
,,,,,,5dac180a79d2ea00160034a3,62c53a429c287cc7faf3dbd5,2022-07-06_09h32.06.598,Colour_Asymmetry_Pilot,2022.1.3,Win32,60.27000964,62c50e9c1127f2cd403a315f,0,56,56,59,1,twofour,,,,,,,,,,,,,,,,,,,,,,,,,,,,,,,,,,,,,,,,,,,,,,,,,,,,,,,,,,,,,,,,,,,,,,,,,,,,,,,,,,,,,,,,,,,,,,,,,,,,,,,,,,,,,,,,,,,,,,,,,,,,,,,,,,,,,,,,,,,,,,,,,,,,,,,,,,,,,
,,,,,,5dac180a79d2ea00160034a3,62c53a429c287cc7faf3dbd5,2022-07-06_09h32.06.598,Colour_Asymmetry_Pilot,2022.1.3,Win32,60.27000964,62c50e9c1127f2cd403a315f,0,57,57,91,1,twofour,,,,,,,,,,,,,,,,,,,,,,,,,,,,,,,,,,,,,,,,,,,,,,,,,,,,,,,,,,,,,,,,,,,,,,,,,,,,,,,,,,,,,,,,,,,,,,,,,,,,,,,,,,,,,,,,,,,,,,,,,,,,,,,,,,,,,,,,,,,,,,,,,,,,,,,,,,,,,
,,,,,,5dac180a79d2ea00160034a3,62c53a429c287cc7faf3dbd5,2022-07-06_09h32.06.598,Colour_Asymmetry_Pilot,2022.1.3,Win32,60.27000964,62c50e9c1127f2cd403a315f,0,58,58,108,1,threeone,,,,,,,,,,,,,,,,,,,,,,,,,,,,,,,,,,,,,,,,,,,,,,,,,,,,,,,,,,,,,,,,,,,,,,,,,,,,,,,,,,,,,,,,,,,,,,,,,,,,,,,,,,,,,,,,,,,,,,,,,,,,,,,,,,,,,,,,,,,,,,,,,,,,,,,,,,,,,
,,,,,,5dac180a79d2ea00160034a3,62c53a429c287cc7faf3dbd5,2022-07-06_09h32.06.598,Colour_Asymmetry_Pilot,2022.1.3,Win32,60.27000964,62c50e9c1127f2cd403a315f,0,59,59,53,1,threefour,,,,,,,,,,,,,,,,,,,,,,,,,,,,,,,,,,,,,,,,,,,,,,,,,,,,,,,,,,,,,,,,,,,,,,,,,,,,,,,,,,,,,,,,,,,,,,,,,,,,,,,,,,,,,,,,,,,,,,,,,,,,,,,,,,,,,,,,,,,,,,,,,,,,,,,,,,,,,
,,,,,,5dac180a79d2ea00160034a3,62c53a429c287cc7faf3dbd5,2022-07-06_09h32.06.598,Colour_Asymmetry_Pilot,2022.1.3,Win32,60.27000964,62c50e9c1127f2cd403a315f,0,60,60,69,1,threefour,,,,,,,,,,,,,,,,,,,,,,,,,,,,,,,,,,,,,,,,,,,,,,,,,,,,,,,,,,,,,,,,,,,,,,,,,,,,,,,,,,,,,,,,,,,,,,,,,,,,,,,,,,,,,,,,,,,,,,,,,,,,,,,,,,,,,,,,,,,,,,,,,,,,,,,,,,,,,
,,,,,,5dac180a79d2ea00160034a3,62c53a429c287cc7faf3dbd5,2022-07-06_09h32.06.598,Colour_Asymmetry_Pilot,2022.1.3,Win32,60.27000964,62c50e9c1127f2cd403a315f,0,61,61,80,1,onetwo,,,,,,,,,,,,,,,,,,,,,,,,,,,,,,,,,,,,,,,,,,,,,,,,,,,,,,,,,,,,,,,,,,,,,,,,,,,,,,,,,,,,,,,,,,,,,,,,,,,,,,,,,,,,,,,,,,,,,,,,,,,,,,,,,,,,,,,,,,,,,,,,,,,,,,,,,,,,,
,,,,,,5dac180a79d2ea00160034a3,62c53a429c287cc7faf3dbd5,2022-07-06_09h32.06.598,Colour_Asymmetry_Pilot,2022.1.3,Win32,60.27000964,62c50e9c1127f2cd403a315f,0,62,62,98,1,twoone,,,,,,,,,,,,,,,,,,,,,,,,,,,,,,,,,,,,,,,,,,,,,,,,,,,,,,,,,,,,,,,,,,,,,,,,,,,,,,,,,,,,,,,,,,,,,,,,,,,,,,,,,,,,,,,,,,,,,,,,,,,,,,,,,,,,,,,,,,,,,,,,,,,,,,,,,,,,,
,,,,,,5dac180a79d2ea00160034a3,62c53a429c287cc7faf3dbd5,2022-07-06_09h32.06.598,Colour_Asymmetry_Pilot,2022.1.3,Win32,60.27000964,62c50e9c1127f2cd403a315f,0,63,63,124,1,threeone,,,,,,,,,,,,,,,,,,,,,,,,,,,,,,,,,,,,,,,,,,,,,,,,,,,,,,,,,,,,,,,,,,,,,,,,,,,,,,,,,,,,,,,,,,,,,,,,,,,,,,,,,,,,,,,,,,,,,,,,,,,,,,,,,,,,,,,,,,,,,,,,,,,,,,,,,,,,,
,,,,,,5dac180a79d2ea00160034a3,62c53a429c287cc7faf3dbd5,2022-07-06_09h32.06.598,Colour_Asymmetry_Pilot,2022.1.3,Win32,60.27000964,62c50e9c1127f2cd403a315f,0,64,64,23,1,fourthree,,,,,,,,,,,,,,,,,,,,,,,,,,,,,,,,,,,,,,,,,,,,,,,,,,,,,,,,,,,,,,,,,,,,,,,,,,,,,,,,,,,,,,,,,,,,,,,,,,,,,,,,,,,,,,,,,,,,,,,,,,,,,,,,,,,,,,,,,,,,,,,,,,,,,,,,,,,,,
,,,,,,5dac180a79d2ea00160034a3,62c53a429c287cc7faf3dbd5,2022-07-06_09h32.06.598,Colour_Asymmetry_Pilot,2022.1.3,Win32,60.27000964,62c50e9c1127f2cd403a315f,0,65,65,47,1,fourthree,,,,,,,,,,,,,,,,,,,,,,,,,,,,,,,,,,,,,,,,,,,,,,,,,,,,,,,,,,,,,,,,,,,,,,,,,,,,,,,,,,,,,,,,,,,,,,,,,,,,,,,,,,,,,,,,,,,,,,,,,,,,,,,,,,,,,,,,,,,,,,,,,,,,,,,,,,,,,
,,,,,,5dac180a79d2ea00160034a3,62c53a429c287cc7faf3dbd5,2022-07-06_09h32.06.598,Colour_Asymmetry_Pilot,2022.1.3,Win32,60.27000964,62c50e9c1127f2cd403a315f,0,66,66,20,1,threeone,,,,,,,,,,,,,,,,,,,,,,,,,,,,,,,,,,,,,,,,,,,,,,,,,,,,,,,,,,,,,,,,,,,,,,,,,,,,,,,,,,,,,,,,,,,,,,,,,,,,,,,,,,,,,,,,,,,,,,,,,,,,,,,,,,,,,,,,,,,,,,,,,,,,,,,,,,,,,
,,,,,,5dac180a79d2ea00160034a3,62c53a429c287cc7faf3dbd5,2022-07-06_09h32.06.598,Colour_Asymmetry_Pilot,2022.1.3,Win32,60.27000964,62c50e9c1127f2cd403a315f,0,67,67,104,1,onetwo,,,,,,,,,,,,,,,,,,,,,,,,,,,,,,,,,,,,,,,,,,,,,,,,,,,,,,,,,,,,,,,,,,,,,,,,,,,,,,,,,,,,,,,,,,,,,,,,,,,,,,,,,,,,,,,,,,,,,,,,,,,,,,,,,,,,,,,,,,,,,,,,,,,,,,,,,,,,,
,,,,,,5dac180a79d2ea00160034a3,62c53a429c287cc7faf3dbd5,2022-07-06_09h32.06.598,Colour_Asymmetry_Pilot,2022.1.3,Win32,60.27000964,62c50e9c1127f2cd403a315f,0,68,68,115,1,twofour,,,,,,,,,,,,,,,,,,,,,,,,,,,,,,,,,,,,,,,,,,,,,,,,,,,,,,,,,,,,,,,,,,,,,,,,,,,,,,,,,,,,,,,,,,,,,,,,,,,,,,,,,,,,,,,,,,,,,,,,,,,,,,,,,,,,,,,,,,,,,,,,,,,,,,,,,,,,,
,,,,,,5dac180a79d2ea00160034a3,62c53a429c287cc7faf3dbd5,2022-07-06_09h32.06.598,Colour_Asymmetry_Pilot,2022.1.3,Win32,60.27000964,62c50e9c1127f2cd403a315f,0,69,69,50,1,twoone,,,,,,,,,,,,,,,,,,,,,,,,,,,,,,,,,,,,,,,,,,,,,,,,,,,,,,,,,,,,,,,,,,,,,,,,,,,,,,,,,,,,,,,,,,,,,,,,,,,,,,,,,,,,,,,,,,,,,,,,,,,,,,,,,,,,,,,,,,,,,,,,,,,,,,,,,,,,,
,,,,,,5dac180a79d2ea00160034a3,62c53a429c287cc7faf3dbd5,2022-07-06_09h32.06.598,Colour_Asymmetry_Pilot,2022.1.3,Win32,60.27000964,62c50e9c1127f2cd403a315f,0,70,70,119,1,fourthree,,,,,,,,,,,,,,,,,,,,,,,,,,,,,,,,,,,,,,,,,,,,,,,,,,,,,,,,,,,,,,,,,,,,,,,,,,,,,,,,,,,,,,,,,,,,,,,,,,,,,,,,,,,,,,,,,,,,,,,,,,,,,,,,,,,,,,,,,,,,,,,,,,,,,,,,,,,,,
,,,,,,5dac180a79d2ea00160034a3,62c53a429c287cc7faf3dbd5,2022-07-06_09h32.06.598,Colour_Asymmetry_Pilot,2022.1.3,Win32,60.27000964,62c50e9c1127f2cd403a315f,0,71,71,133,1,threefour,,,,,,,,,,,,,,,,,,,,,,,,,,,,,,,,,,,,,,,,,,,,,,,,,,,,,,,,,,,,,,,,,,,,,,,,,,,,,,,,,,,,,,,,,,,,,,,,,,,,,,,,,,,,,,,,,,,,,,,,,,,,,,,,,,,,,,,,,,,,,,,,,,,,,,,,,,,,,
,,,,,,5dac180a79d2ea00160034a3,62c53a429c287cc7faf3dbd5,2022-07-06_09h32.06.598,Colour_Asymmetry_Pilot,2022.1.3,Win32,60.27000964,62c50e9c1127f2cd403a315f,0,72,72,43,1,twofour,,,,,,,,,,,,,,,,,,,,,,,,,,,,,,,,,,,,,,,,,,,,,,,,,,,,,,,,,,,,,,,,,,,,,,,,,,,,,,,,,,,,,,,,,,,,,,,,,,,,,,,,,,,,,,,,,,,,,,,,,,,,,,,,,,,,,,,,,,,,,,,,,,,,,,,,,,,,,
,,,,,,5dac180a79d2ea00160034a3,62c53a429c287cc7faf3dbd5,2022-07-06_09h32.06.598,Colour_Asymmetry_Pilot,2022.1.3,Win32,60.27000964,62c50e9c1127f2cd403a315f,0,73,73,143,1,fourthree,,,,,,,,,,,,,,,,,,,,,,,,,,,,,,,,,,,,,,,,,,,,,,,,,,,,,,,,,,,,,,,,,,,,,,,,,,,,,,,,,,,,,,,,,,,,,,,,,,,,,,,,,,,,,,,,,,,,,,,,,,,,,,,,,,,,,,,,,,,,,,,,,,,,,,,,,,,,,
,,,,,,5dac180a79d2ea00160034a3,62c53a429c287cc7faf3dbd5,2022-07-06_09h32.06.598,Colour_Asymmetry_Pilot,2022.1.3,Win32,60.27000964,62c50e9c1127f2cd403a315f,0,74,74,111,1,fourthree,,,,,,,,,,,,,,,,,,,,,,,,,,,,,,,,,,,,,,,,,,,,,,,,,,,,,,,,,,,,,,,,,,,,,,,,,,,,,,,,,,,,,,,,,,,,,,,,,,,,,,,,,,,,,,,,,,,,,,,,,,,,,,,,,,,,,,,,,,,,,,,,,,,,,,,,,,,,,
,,,,,,5dac180a79d2ea00160034a3,62c53a429c287cc7faf3dbd5,2022-07-06_09h32.06.598,Colour_Asymmetry_Pilot,2022.1.3,Win32,60.27000964,62c50e9c1127f2cd403a315f,0,75,75,118,1,fourtwo,,,,,,,,,,,,,,,,,,,,,,,,,,,,,,,,,,,,,,,,,,,,,,,,,,,,,,,,,,,,,,,,,,,,,,,,,,,,,,,,,,,,,,,,,,,,,,,,,,,,,,,,,,,,,,,,,,,,,,,,,,,,,,,,,,,,,,,,,,,,,,,,,,,,,,,,,,,,,
,,,,,,5dac180a79d2ea00160034a3,62c53a429c287cc7faf3dbd5,2022-07-06_09h32.06.598,Colour_Asymmetry_Pilot,2022.1.3,Win32,60.27000964,62c50e9c1127f2cd403a315f,0,76,76,134,1,fourtwo,,,,,,,,,,,,,,,,,,,,,,,,,,,,,,,,,,,,,,,,,,,,,,,,,,,,,,,,,,,,,,,,,,,,,,,,,,,,,,,,,,,,,,,,,,,,,,,,,,,,,,,,,,,,,,,,,,,,,,,,,,,,,,,,,,,,,,,,,,,,,,,,,,,,,,,,,,,,,
,,,,,,5dac180a79d2ea00160034a3,62c53a429c287cc7faf3dbd5,2022-07-06_09h32.06.598,Colour_Asymmetry_Pilot,2022.1.3,Win32,60.27000964,62c50e9c1127f2cd403a315f,0,77,77,144,1,onetwo,,,,,,,,,,,,,,,,,,,,,,,,,,,,,,,,,,,,,,,,,,,,,,,,,,,,,,,,,,,,,,,,,,,,,,,,,,,,,,,,,,,,,,,,,,,,,,,,,,,,,,,,,,,,,,,,,,,,,,,,,,,,,,,,,,,,,,,,,,,,,,,,,,,,,,,,,,,,,
,,,,,,5dac180a79d2ea00160034a3,62c53a429c287cc7faf3dbd5,2022-07-06_09h32.06.598,Colour_Asymmetry_Pilot,2022.1.3,Win32,60.27000964,62c50e9c1127f2cd403a315f,0,78,78,126,1,fourtwo,,,,,,,,,,,,,,,,,,,,,,,,,,,,,,,,,,,,,,,,,,,,,,,,,,,,,,,,,,,,,,,,,,,,,,,,,,,,,,,,,,,,,,,,,,,,,,,,,,,,,,,,,,,,,,,,,,,,,,,,,,,,,,,,,,,,,,,,,,,,,,,,,,,,,,,,,,,,,
,,,,,,5dac180a79d2ea00160034a3,62c53a429c287cc7faf3dbd5,2022-07-06_09h32.06.598,Colour_Asymmetry_Pilot,2022.1.3,Win32,60.27000964,62c50e9c1127f2cd403a315f,0,79,79,52,1,threeone,,,,,,,,,,,,,,,,,,,,,,,,,,,,,,,,,,,,,,,,,,,,,,,,,,,,,,,,,,,,,,,,,,,,,,,,,,,,,,,,,,,,,,,,,,,,,,,,,,,,,,,,,,,,,,,,,,,,,,,,,,,,,,,,,,,,,,,,,,,,,,,,,,,,,,,,,,,,,
,,,,,,5dac180a79d2ea00160034a3,62c53a429c287cc7faf3dbd5,2022-07-06_09h32.06.598,Colour_Asymmetry_Pilot,2022.1.3,Win32,60.27000964,62c50e9c1127f2cd403a315f,0,80,80,72,1,onetwo,,,,,,,,,,,,,,,,,,,,,,,,,,,,,,,,,,,,,,,,,,,,,,,,,,,,,,,,,,,,,,,,,,,,,,,,,,,,,,,,,,,,,,,,,,,,,,,,,,,,,,,,,,,,,,,,,,,,,,,,,,,,,,,,,,,,,,,,,,,,,,,,,,,,,,,,,,,,,
,,,,,,5dac180a79d2ea00160034a3,62c53a429c287cc7faf3dbd5,2022-07-06_09h32.06.598,Colour_Asymmetry_Pilot,2022.1.3,Win32,60.27000964,62c50e9c1127f2cd403a315f,0,81,81,113,1,onethree,,,,,,,,,,,,,,,,,,,,,,,,,,,,,,,,,,,,,,,,,,,,,,,,,,,,,,,,,,,,,,,,,,,,,,,,,,,,,,,,,,,,,,,,,,,,,,,,,,,,,,,,,,,,,,,,,,,,,,,,,,,,,,,,,,,,,,,,,,,,,,,,,,,,,,,,,,,,,
,,,,,,5dac180a79d2ea00160034a3,62c53a429c287cc7faf3dbd5,2022-07-06_09h32.06.598,Colour_Asymmetry_Pilot,2022.1.3,Win32,60.27000964,62c50e9c1127f2cd403a315f,0,82,82,114,1,twoone,,,,,,,,,,,,,,,,,,,,,,,,,,,,,,,,,,,,,,,,,,,,,,,,,,,,,,,,,,,,,,,,,,,,,,,,,,,,,,,,,,,,,,,,,,,,,,,,,,,,,,,,,,,,,,,,,,,,,,,,,,,,,,,,,,,,,,,,,,,,,,,,,,,,,,,,,,,,,
,,,,,,5dac180a79d2ea00160034a3,62c53a429c287cc7faf3dbd5,2022-07-06_09h32.06.598,Colour_Asymmetry_Pilot,2022.1.3,Win32,60.27000964,62c50e9c1127f2cd403a315f,0,83,83,105,1,onethree,,,,,,,,,,,,,,,,,,,,,,,,,,,,,,,,,,,,,,,,,,,,,,,,,,,,,,,,,,,,,,,,,,,,,,,,,,,,,,,,,,,,,,,,,,,,,,,,,,,,,,,,,,,,,,,,,,,,,,,,,,,,,,,,,,,,,,,,,,,,,,,,,,,,,,,,,,,,,
,,,,,,5dac180a79d2ea00160034a3,62c53a429c287cc7faf3dbd5,2022-07-06_09h32.06.598,Colour_Asymmetry_Pilot,2022.1.3,Win32,60.27000964,62c50e9c1127f2cd403a315f,0,84,84,35,1,twofour,,,,,,,,,,,,,,,,,,,,,,,,,,,,,,,,,,,,,,,,,,,,,,,,,,,,,,,,,,,,,,,,,,,,,,,,,,,,,,,,,,,,,,,,,,,,,,,,,,,,,,,,,,,,,,,,,,,,,,,,,,,,,,,,,,,,,,,,,,,,,,,,,,,,,,,,,,,,,
,,,,,,5dac180a79d2ea00160034a3,62c53a429c287cc7faf3dbd5,2022-07-06_09h32.06.598,Colour_Asymmetry_Pilot,2022.1.3,Win32,60.27000964,62c50e9c1127f2cd403a315f,0,85,85,73,1,onethree,,,,,,,,,,,,,,,,,,,,,,,,,,,,,,,,,,,,,,,,,,,,,,,,,,,,,,,,,,,,,,,,,,,,,,,,,,,,,,,,,,,,,,,,,,,,,,,,,,,,,,,,,,,,,,,,,,,,,,,,,,,,,,,,,,,,,,,,,,,,,,,,,,,,,,,,,,,,,
,,,,,,5dac180a79d2ea00160034a3,62c53a429c287cc7faf3dbd5,2022-07-06_09h32.06.598,Colour_Asymmetry_Pilot,2022.1.3,Win32,60.27000964,62c50e9c1127f2cd403a315f,0,86,86,129,1,onethree,,,,,,,,,,,,,,,,,,,,,,,,,,,,,,,,,,,,,,,,,,,,,,,,,,,,,,,,,,,,,,,,,,,,,,,,,,,,,,,,,,,,,,,,,,,,,,,,,,,,,,,,,,,,,,,,,,,,,,,,,,,,,,,,,,,,,,,,,,,,,,,,,,,,,,,,,,,,,
,,,,,,5dac180a79d2ea00160034a3,62c53a429c287cc7faf3dbd5,2022-07-06_09h32.06.598,Colour_Asymmetry_Pilot,2022.1.3,Win32,60.27000964,62c50e9c1127f2cd403a315f,0,87,87,128,1,onetwo,,,,,,,,,,,,,,,,,,,,,,,,,,,,,,,,,,,,,,,,,,,,,,,,,,,,,,,,,,,,,,,,,,,,,,,,,,,,,,,,,,,,,,,,,,,,,,,,,,,,,,,,,,,,,,,,,,,,,,,,,,,,,,,,,,,,,,,,,,,,,,,,,,,,,,,,,,,,,
,,,,,,5dac180a79d2ea00160034a3,62c53a429c287cc7faf3dbd5,2022-07-06_09h32.06.598,Colour_Asymmetry_Pilot,2022.1.3,Win32,60.27000964,62c50e9c1127f2cd403a315f,0,88,88,10,1,twoone,,,,,,,,,,,,,,,,,,,,,,,,,,,,,,,,,,,,,,,,,,,,,,,,,,,,,,,,,,,,,,,,,,,,,,,,,,,,,,,,,,,,,,,,,,,,,,,,,,,,,,,,,,,,,,,,,,,,,,,,,,,,,,,,,,,,,,,,,,,,,,,,,,,,,,,,,,,,,
,,,,,,5dac180a79d2ea00160034a3,62c53a429c287cc7faf3dbd5,2022-07-06_09h32.06.598,Colour_Asymmetry_Pilot,2022.1.3,Win32,60.27000964,62c50e9c1127f2cd403a315f,0,89,89,107,1,twofour,,,,,,,,,,,,,,,,,,,,,,,,,,,,,,,,,,,,,,,,,,,,,,,,,,,,,,,,,,,,,,,,,,,,,,,,,,,,,,,,,,,,,,,,,,,,,,,,,,,,,,,,,,,,,,,,,,,,,,,,,,,,,,,,,,,,,,,,,,,,,,,,,,,,,,,,,,,,,
,,,,,,5dac180a79d2ea00160034a3,62c53a429c287cc7faf3dbd5,2022-07-06_09h32.06.598,Colour_Asymmetry_Pilot,2022.1.3,Win32,60.27000964,62c50e9c1127f2cd403a315f,0,90,90,88,1,onetwo,,,,,,,,,,,,,,,,,,,,,,,,,,,,,,,,,,,,,,,,,,,,,,,,,,,,,,,,,,,,,,,,,,,,,,,,,,,,,,,,,,,,,,,,,,,,,,,,,,,,,,,,,,,,,,,,,,,,,,,,,,,,,,,,,,,,,,,,,,,,,,,,,,,,,,,,,,,,,
,,,,,,5dac180a79d2ea00160034a3,62c53a429c287cc7faf3dbd5,2022-07-06_09h32.06.598,Colour_Asymmetry_Pilot,2022.1.3,Win32,60.27000964,62c50e9c1127f2cd403a315f,0,91,91,95,1,fourthree,,,,,,,,,,,,,,,,,,,,,,,,,,,,,,,,,,,,,,,,,,,,,,,,,,,,,,,,,,,,,,,,,,,,,,,,,,,,,,,,,,,,,,,,,,,,,,,,,,,,,,,,,,,,,,,,,,,,,,,,,,,,,,,,,,,,,,,,,,,,,,,,,,,,,,,,,,,,,
,,,,,,5dac180a79d2ea00160034a3,62c53a429c287cc7faf3dbd5,2022-07-06_09h32.06.598,Colour_Asymmetry_Pilot,2022.1.3,Win32,60.27000964,62c50e9c1127f2cd403a315f,0,92,92,64,1,onetwo,,,,,,,,,,,,,,,,,,,,,,,,,,,,,,,,,,,,,,,,,,,,,,,,,,,,,,,,,,,,,,,,,,,,,,,,,,,,,,,,,,,,,,,,,,,,,,,,,,,,,,,,,,,,,,,,,,,,,,,,,,,,,,,,,,,,,,,,,,,,,,,,,,,,,,,,,,,,,
,,,,,,5dac180a79d2ea00160034a3,62c53a429c287cc7faf3dbd5,2022-07-06_09h32.06.598,Colour_Asymmetry_Pilot,2022.1.3,Win32,60.27000964,62c50e9c1127f2cd403a315f,0,93,93,158,1,fourtwo,,,,,,,,,,,,,,,,,,,,,,,,,,,,,,,,,,,,,,,,,,,,,,,,,,,,,,,,,,,,,,,,,,,,,,,,,,,,,,,,,,,,,,,,,,,,,,,,,,,,,,,,,,,,,,,,,,,,,,,,,,,,,,,,,,,,,,,,,,,,,,,,,,,,,,,,,,,,,
,,,,,,5dac180a79d2ea00160034a3,62c53a429c287cc7faf3dbd5,2022-07-06_09h32.06.598,Colour_Asymmetry_Pilot,2022.1.3,Win32,60.27000964,62c50e9c1127f2cd403a315f,0,94,94,150,1,fourtwo,,,,,,,,,,,,,,,,,,,,,,,,,,,,,,,,,,,,,,,,,,,,,,,,,,,,,,,,,,,,,,,,,,,,,,,,,,,,,,,,,,,,,,,,,,,,,,,,,,,,,,,,,,,,,,,,,,,,,,,,,,,,,,,,,,,,,,,,,,,,,,,,,,,,,,,,,,,,,
,,,,,,5dac180a79d2ea00160034a3,62c53a429c287cc7faf3dbd5,2022-07-06_09h32.06.598,Colour_Asymmetry_Pilot,2022.1.3,Win32,60.27000964,62c50e9c1127f2cd403a315f,0,95,95,103,1,fourthree,,,,,,,,,,,,,,,,,,,,,,,,,,,,,,,,,,,,,,,,,,,,,,,,,,,,,,,,,,,,,,,,,,,,,,,,,,,,,,,,,,,,,,,,,,,,,,,,,,,,,,,,,,,,,,,,,,,,,,,,,,,,,,,,,,,,,,,,,,,,,,,,,,,,,,,,,,,,,
,,,,,,5dac180a79d2ea00160034a3,62c53a429c287cc7faf3dbd5,2022-07-06_09h32.06.598,Colour_Asymmetry_Pilot,2022.1.3,Win32,60.27000964,62c50e9c1127f2cd403a315f,0,96,96,156,1,threeone,,,,,,,,,,,,,,,,,,,,,,,,,,,,,,,,,,,,,,,,,,,,,,,,,,,,,,,,,,,,,,,,,,,,,,,,,,,,,,,,,,,,,,,,,,,,,,,,,,,,,,,,,,,,,,,,,,,,,,,,,,,,,,,,,,,,,,,,,,,,,,,,,,,,,,,,,,,,,
,,,,,,5dac180a79d2ea00160034a3,62c53a429c287cc7faf3dbd5,2022-07-06_09h32.06.598,Colour_Asymmetry_Pilot,2022.1.3,Win32,60.27000964,62c50e9c1127f2cd403a315f,0,97,97,16,1,onetwo,,,,,,,,,,,,,,,,,,,,,,,,,,,,,,,,,,,,,,,,,,,,,,,,,,,,,,,,,,,,,,,,,,,,,,,,,,,,,,,,,,,,,,,,,,,,,,,,,,,,,,,,,,,,,,,,,,,,,,,,,,,,,,,,,,,,,,,,,,,,,,,,,,,,,,,,,,,,,
,,,,,,5dac180a79d2ea00160034a3,62c53a429c287cc7faf3dbd5,2022-07-06_09h32.06.598,Colour_Asymmetry_Pilot,2022.1.3,Win32,60.27000964,62c50e9c1127f2cd403a315f,0,98,98,83,1,twofour,,,,,,,,,,,,,,,,,,,,,,,,,,,,,,,,,,,,,,,,,,,,,,,,,,,,,,,,,,,,,,,,,,,,,,,,,,,,,,,,,,,,,,,,,,,,,,,,,,,,,,,,,,,,,,,,,,,,,,,,,,,,,,,,,,,,,,,,,,,,,,,,,,,,,,,,,,,,,
,,,,,,5dac180a79d2ea00160034a3,62c53a429c287cc7faf3dbd5,2022-07-06_09h32.06.598,Colour_Asymmetry_Pilot,2022.1.3,Win32,60.27000964,62c50e9c1127f2cd403a315f,0,99,99,12,1,threeone,,,,,,,,,,,,,,,,,,,,,,,,,,,,,,,,,,,,,,,,,,,,,,,,,,,,,,,,,,,,,,,,,,,,,,,,,,,,,,,,,,,,,,,,,,,,,,,,,,,,,,,,,,,,,,,,,,,,,,,,,,,,,,,,,,,,,,,,,,,,,,,,,,,,,,,,,,,,,
,,,,,,5dac180a79d2ea00160034a3,62c53a429c287cc7faf3dbd5,2022-07-06_09h32.06.598,Colour_Asymmetry_Pilot,2022.1.3,Win32,60.27000964,62c50e9c1127f2cd403a315f,0,100,100,116,1,threeone,,,,,,,,,,,,,,,,,,,,,,,,,,,,,,,,,,,,,,,,,,,,,,,,,,,,,,,,,,,,,,,,,,,,,,,,,,,,,,,,,,,,,,,,,,,,,,,,,,,,,,,,,,,,,,,,,,,,,,,,,,,,,,,,,,,,,,,,,,,,,,,,,,,,,,,,,,,,,
,,,,,,5dac180a79d2ea00160034a3,62c53a429c287cc7faf3dbd5,2022-07-06_09h32.06.598,Colour_Asymmetry_Pilot,2022.1.3,Win32,60.27000964,62c50e9c1127f2cd403a315f,0,101,101,49,1,onethree,,,,,,,,,,,,,,,,,,,,,,,,,,,,,,,,,,,,,,,,,,,,,,,,,,,,,,,,,,,,,,,,,,,,,,,,,,,,,,,,,,,,,,,,,,,,,,,,,,,,,,,,,,,,,,,,,,,,,,,,,,,,,,,,,,,,,,,,,,,,,,,,,,,,,,,,,,,,,
,,,,,,5dac180a79d2ea00160034a3,62c53a429c287cc7faf3dbd5,2022-07-06_09h32.06.598,Colour_Asymmetry_Pilot,2022.1.3,Win32,60.27000964,62c50e9c1127f2cd403a315f,0,102,102,127,1,fourthree,,,,,,,,,,,,,,,,,,,,,,,,,,,,,,,,,,,,,,,,,,,,,,,,,,,,,,,,,,,,,,,,,,,,,,,,,,,,,,,,,,,,,,,,,,,,,,,,,,,,,,,,,,,,,,,,,,,,,,,,,,,,,,,,,,,,,,,,,,,,,,,,,,,,,,,,,,,,,
,,,,,,5dac180a79d2ea00160034a3,62c53a429c287cc7faf3dbd5,2022-07-06_09h32.06.598,Colour_Asymmetry_Pilot,2022.1.3,Win32,60.27000964,62c50e9c1127f2cd403a315f,0,103,103,66,1,twoone,,,,,,,,,,,,,,,,,,,,,,,,,,,,,,,,,,,,,,,,,,,,,,,,,,,,,,,,,,,,,,,,,,,,,,,,,,,,,,,,,,,,,,,,,,,,,,,,,,,,,,,,,,,,,,,,,,,,,,,,,,,,,,,,,,,,,,,,,,,,,,,,,,,,,,,,,,,,,
,,,,,,5dac180a79d2ea00160034a3,62c53a429c287cc7faf3dbd5,2022-07-06_09h32.06.598,Colour_Asymmetry_Pilot,2022.1.3,Win32,60.27000964,62c50e9c1127f2cd403a315f,0,104,104,28,1,threeone,,,,,,,,,,,,,,,,,,,,,,,,,,,,,,,,,,,,,,,,,,,,,,,,,,,,,,,,,,,,,,,,,,,,,,,,,,,,,,,,,,,,,,,,,,,,,,,,,,,,,,,,,,,,,,,,,,,,,,,,,,,,,,,,,,,,,,,,,,,,,,,,,,,,,,,,,,,,,
,,,,,,5dac180a79d2ea00160034a3,62c53a429c287cc7faf3dbd5,2022-07-06_09h32.06.598,Colour_Asymmetry_Pilot,2022.1.3,Win32,60.27000964,62c50e9c1127f2cd403a315f,0,105,105,81,1,onethree,,,,,,,,,,,,,,,,,,,,,,,,,,,,,,,,,,,,,,,,,,,,,,,,,,,,,,,,,,,,,,,,,,,,,,,,,,,,,,,,,,,,,,,,,,,,,,,,,,,,,,,,,,,,,,,,,,,,,,,,,,,,,,,,,,,,,,,,,,,,,,,,,,,,,,,,,,,,,
,,,,,,5dac180a79d2ea00160034a3,62c53a429c287cc7faf3dbd5,2022-07-06_09h32.06.598,Colour_Asymmetry_Pilot,2022.1.3,Win32,60.27000964,62c50e9c1127f2cd403a315f,0,106,106,77,1,threefour,,,,,,,,,,,,,,,,,,,,,,,,,,,,,,,,,,,,,,,,,,,,,,,,,,,,,,,,,,,,,,,,,,,,,,,,,,,,,,,,,,,,,,,,,,,,,,,,,,,,,,,,,,,,,,,,,,,,,,,,,,,,,,,,,,,,,,,,,,,,,,,,,,,,,,,,,,,,,
,,,,,,5dac180a79d2ea00160034a3,62c53a429c287cc7faf3dbd5,2022-07-06_09h32.06.598,Colour_Asymmetry_Pilot,2022.1.3,Win32,60.27000964,62c50e9c1127f2cd403a315f,0,107,107,5,1,threefour,,,,,,,,,,,,,,,,,,,,,,,,,,,,,,,,,,,,,,,,,,,,,,,,,,,,,,,,,,,,,,,,,,,,,,,,,,,,,,,,,,,,,,,,,,,,,,,,,,,,,,,,,,,,,,,,,,,,,,,,,,,,,,,,,,,,,,,,,,,,,,,,,,,,,,,,,,,,,
,,,,,,5dac180a79d2ea00160034a3,62c53a429c287cc7faf3dbd5,2022-07-06_09h32.06.598,Colour_Asymmetry_Pilot,2022.1.3,Win32,60.27000964,62c50e9c1127f2cd403a315f,0,108,108,122,1,twoone,,,,,,,,,,,,,,,,,,,,,,,,,,,,,,,,,,,,,,,,,,,,,,,,,,,,,,,,,,,,,,,,,,,,,,,,,,,,,,,,,,,,,,,,,,,,,,,,,,,,,,,,,,,,,,,,,,,,,,,,,,,,,,,,,,,,,,,,,,,,,,,,,,,,,,,,,,,,,
,,,,,,5dac180a79d2ea00160034a3,62c53a429c287cc7faf3dbd5,2022-07-06_09h32.06.598,Colour_Asymmetry_Pilot,2022.1.3,Win32,60.27000964,62c50e9c1127f2cd403a315f,0,109,109,140,1,threeone,,,,,,,,,,,,,,,,,,,,,,,,,,,,,,,,,,,,,,,,,,,,,,,,,,,,,,,,,,,,,,,,,,,,,,,,,,,,,,,,,,,,,,,,,,,,,,,,,,,,,,,,,,,,,,,,,,,,,,,,,,,,,,,,,,,,,,,,,,,,,,,,,,,,,,,,,,,,,
,,,,,,5dac180a79d2ea00160034a3,62c53a429c287cc7faf3dbd5,2022-07-06_09h32.06.598,Colour_Asymmetry_Pilot,2022.1.3,Win32,60.27000964,62c50e9c1127f2cd403a315f,0,110,110,100,1,threeone,,,,,,,,,,,,,,,,,,,,,,,,,,,,,,,,,,,,,,,,,,,,,,,,,,,,,,,,,,,,,,,,,,,,,,,,,,,,,,,,,,,,,,,,,,,,,,,,,,,,,,,,,,,,,,,,,,,,,,,,,,,,,,,,,,,,,,,,,,,,,,,,,,,,,,,,,,,,,
,,,,,,5dac180a79d2ea00160034a3,62c53a429c287cc7faf3dbd5,2022-07-06_09h32.06.598,Colour_Asymmetry_Pilot,2022.1.3,Win32,60.27000964,62c50e9c1127f2cd403a315f,0,111,111,135,1,fourthree,,,,,,,,,,,,,,,,,,,,,,,,,,,,,,,,,,,,,,,,,,,,,,,,,,,,,,,,,,,,,,,,,,,,,,,,,,,,,,,,,,,,,,,,,,,,,,,,,,,,,,,,,,,,,,,,,,,,,,,,,,,,,,,,,,,,,,,,,,,,,,,,,,,,,,,,,,,,,
,,,,,,5dac180a79d2ea00160034a3,62c53a429c287cc7faf3dbd5,2022-07-06_09h32.06.598,Colour_Asymmetry_Pilot,2022.1.3,Win32,60.27000964,62c50e9c1127f2cd403a315f,0,112,112,86,1,fourtwo,,,,,,,,,,,,,,,,,,,,,,,,,,,,,,,,,,,,,,,,,,,,,,,,,,,,,,,,,,,,,,,,,,,,,,,,,,,,,,,,,,,,,,,,,,,,,,,,,,,,,,,,,,,,,,,,,,,,,,,,,,,,,,,,,,,,,,,,,,,,,,,,,,,,,,,,,,,,,
,,,,,,5dac180a79d2ea00160034a3,62c53a429c287cc7faf3dbd5,2022-07-06_09h32.06.598,Colour_Asymmetry_Pilot,2022.1.3,Win32,60.27000964,62c50e9c1127f2cd403a315f,0,113,113,117,1,threefour,,,,,,,,,,,,,,,,,,,,,,,,,,,,,,,,,,,,,,,,,,,,,,,,,,,,,,,,,,,,,,,,,,,,,,,,,,,,,,,,,,,,,,,,,,,,,,,,,,,,,,,,,,,,,,,,,,,,,,,,,,,,,,,,,,,,,,,,,,,,,,,,,,,,,,,,,,,,,
,,,,,,5dac180a79d2ea00160034a3,62c53a429c287cc7faf3dbd5,2022-07-06_09h32.06.598,Colour_Asymmetry_Pilot,2022.1.3,Win32,60.27000964,62c50e9c1127f2cd403a315f,0,114,114,41,1,onethree,,,,,,,,,,,,,,,,,,,,,,,,,,,,,,,,,,,,,,,,,,,,,,,,,,,,,,,,,,,,,,,,,,,,,,,,,,,,,,,,,,,,,,,,,,,,,,,,,,,,,,,,,,,,,,,,,,,,,,,,,,,,,,,,,,,,,,,,,,,,,,,,,,,,,,,,,,,,,
,,,,,,5dac180a79d2ea00160034a3,62c53a429c287cc7faf3dbd5,2022-07-06_09h32.06.598,Colour_Asymmetry_Pilot,2022.1.3,Win32,60.27000964,62c50e9c1127f2cd403a315f,0,115,115,61,1,threefour,,,,,,,,,,,,,,,,,,,,,,,,,,,,,,,,,,,,,,,,,,,,,,,,,,,,,,,,,,,,,,,,,,,,,,,,,,,,,,,,,,,,,,,,,,,,,,,,,,,,,,,,,,,,,,,,,,,,,,,,,,,,,,,,,,,,,,,,,,,,,,,,,,,,,,,,,,,,,
,,,,,,5dac180a79d2ea00160034a3,62c53a429c287cc7faf3dbd5,2022-07-06_09h32.06.598,Colour_Asymmetry_Pilot,2022.1.3,Win32,60.27000964,62c50e9c1127f2cd403a315f,0,116,116,57,1,onethree,,,,,,,,,,,,,,,,,,,,,,,,,,,,,,,,,,,,,,,,,,,,,,,,,,,,,,,,,,,,,,,,,,,,,,,,,,,,,,,,,,,,,,,,,,,,,,,,,,,,,,,,,,,,,,,,,,,,,,,,,,,,,,,,,,,,,,,,,,,,,,,,,,,,,,,,,,,,,
,,,,,,5dac180a79d2ea00160034a3,62c53a429c287cc7faf3dbd5,2022-07-06_09h32.06.598,Colour_Asymmetry_Pilot,2022.1.3,Win32,60.27000964,62c50e9c1127f2cd403a315f,0,117,117,18,1,twoone,,,,,,,,,,,,,,,,,,,,,,,,,,,,,,,,,,,,,,,,,,,,,,,,,,,,,,,,,,,,,,,,,,,,,,,,,,,,,,,,,,,,,,,,,,,,,,,,,,,,,,,,,,,,,,,,,,,,,,,,,,,,,,,,,,,,,,,,,,,,,,,,,,,,,,,,,,,,,
,,,,,,5dac180a79d2ea00160034a3,62c53a429c287cc7faf3dbd5,2022-07-06_09h32.06.598,Colour_Asymmetry_Pilot,2022.1.3,Win32,60.27000964,62c50e9c1127f2cd403a315f,0,118,118,110,1,fourtwo,,,,,,,,,,,,,,,,,,,,,,,,,,,,,,,,,,,,,,,,,,,,,,,,,,,,,,,,,,,,,,,,,,,,,,,,,,,,,,,,,,,,,,,,,,,,,,,,,,,,,,,,,,,,,,,,,,,,,,,,,,,,,,,,,,,,,,,,,,,,,,,,,,,,,,,,,,,,,
,,,,,,5dac180a79d2ea00160034a3,62c53a429c287cc7faf3dbd5,2022-07-06_09h32.06.598,Colour_Asymmetry_Pilot,2022.1.3,Win32,60.27000964,62c50e9c1127f2cd403a315f,0,119,119,3,1,twofour,,,,,,,,,,,,,,,,,,,,,,,,,,,,,,,,,,,,,,,,,,,,,,,,,,,,,,,,,,,,,,,,,,,,,,,,,,,,,,,,,,,,,,,,,,,,,,,,,,,,,,,,,,,,,,,,,,,,,,,,,,,,,,,,,,,,,,,,,,,,,,,,,,,,,,,,,,,,,
,,,,,,5dac180a79d2ea00160034a3,62c53a429c287cc7faf3dbd5,2022-07-06_09h32.06.598,Colour_Asymmetry_Pilot,2022.1.3,Win32,60.27000964,62c50e9c1127f2cd403a315f,0,120,120,76,1,threeone,,,,,,,,,,,,,,,,,,,,,,,,,,,,,,,,,,,,,,,,,,,,,,,,,,,,,,,,,,,,,,,,,,,,,,,,,,,,,,,,,,,,,,,,,,,,,,,,,,,,,,,,,,,,,,,,,,,,,,,,,,,,,,,,,,,,,,,,,,,,,,,,,,,,,,,,,,,,,
,,,,,,5dac180a79d2ea00160034a3,62c53a429c287cc7faf3dbd5,2022-07-06_09h32.06.598,Colour_Asymmetry_Pilot,2022.1.3,Win32,60.27000964,62c50e9c1127f2cd403a315f,0,121,121,154,1,twoone,,,,,,,,,,,,,,,,,,,,,,,,,,,,,,,,,,,,,,,,,,,,,,,,,,,,,,,,,,,,,,,,,,,,,,,,,,,,,,,,,,,,,,,,,,,,,,,,,,,,,,,,,,,,,,,,,,,,,,,,,,,,,,,,,,,,,,,,,,,,,,,,,,,,,,,,,,,,,
,,,,,,5dac180a79d2ea00160034a3,62c53a429c287cc7faf3dbd5,2022-07-06_09h32.06.598,Colour_Asymmetry_Pilot,2022.1.3,Win32,60.27000964,62c50e9c1127f2cd403a315f,0,122,122,132,1,threeone,,,,,,,,,,,,,,,,,,,,,,,,,,,,,,,,,,,,,,,,,,,,,,,,,,,,,,,,,,,,,,,,,,,,,,,,,,,,,,,,,,,,,,,,,,,,,,,,,,,,,,,,,,,,,,,,,,,,,,,,,,,,,,,,,,,,,,,,,,,,,,,,,,,,,,,,,,,,,
,,,,,,5dac180a79d2ea00160034a3,62c53a429c287cc7faf3dbd5,2022-07-06_09h32.06.598,Colour_Asymmetry_Pilot,2022.1.3,Win32,60.27000964,62c50e9c1127f2cd403a315f,0,123,123,161,1,onethree,,,,,,,,,,,,,,,,,,,,,,,,,,,,,,,,,,,,,,,,,,,,,,,,,,,,,,,,,,,,,,,,,,,,,,,,,,,,,,,,,,,,,,,,,,,,,,,,,,,,,,,,,,,,,,,,,,,,,,,,,,,,,,,,,,,,,,,,,,,,,,,,,,,,,,,,,,,,,
,,,,,,5dac180a79d2ea00160034a3,62c53a429c287cc7faf3dbd5,2022-07-06_09h32.06.598,Colour_Asymmetry_Pilot,2022.1.3,Win32,60.27000964,62c50e9c1127f2cd403a315f,0,124,124,24,1,onetwo,,,,,,,,,,,,,,,,,,,,,,,,,,,,,,,,,,,,,,,,,,,,,,,,,,,,,,,,,,,,,,,,,,,,,,,,,,,,,,,,,,,,,,,,,,,,,,,,,,,,,,,,,,,,,,,,,,,,,,,,,,,,,,,,,,,,,,,,,,,,,,,,,,,,,,,,,,,,,
,,,,,,5dac180a79d2ea00160034a3,62c53a429c287cc7faf3dbd5,2022-07-06_09h32.06.598,Colour_Asymmetry_Pilot,2022.1.3,Win32,60.27000964,62c50e9c1127f2cd403a315f,0,125,125,121,1,onethree,,,,,,,,,,,,,,,,,,,,,,,,,,,,,,,,,,,,,,,,,,,,,,,,,,,,,,,,,,,,,,,,,,,,,,,,,,,,,,,,,,,,,,,,,,,,,,,,,,,,,,,,,,,,,,,,,,,,,,,,,,,,,,,,,,,,,,,,,,,,,,,,,,,,,,,,,,,,,
,,,,,,5dac180a79d2ea00160034a3,62c53a429c287cc7faf3dbd5,2022-07-06_09h32.06.598,Colour_Asymmetry_Pilot,2022.1.3,Win32,60.27000964,62c50e9c1127f2cd403a315f,0,126,126,74,1,twoone,,,,,,,,,,,,,,,,,,,,,,,,,,,,,,,,,,,,,,,,,,,,,,,,,,,,,,,,,,,,,,,,,,,,,,,,,,,,,,,,,,,,,,,,,,,,,,,,,,,,,,,,,,,,,,,,,,,,,,,,,,,,,,,,,,,,,,,,,,,,,,,,,,,,,,,,,,,,,
,,,,,,5dac180a79d2ea00160034a3,62c53a429c287cc7faf3dbd5,2022-07-06_09h32.06.598,Colour_Asymmetry_Pilot,2022.1.3,Win32,60.27000964,62c50e9c1127f2cd403a315f,0,127,127,46,1,fourtwo,,,,,,,,,,,,,,,,,,,,,,,,,,,,,,,,,,,,,,,,,,,,,,,,,,,,,,,,,,,,,,,,,,,,,,,,,,,,,,,,,,,,,,,,,,,,,,,,,,,,,,,,,,,,,,,,,,,,,,,,,,,,,,,,,,,,,,,,,,,,,,,,,,,,,,,,,,,,,
,,,,,,5dac180a79d2ea00160034a3,62c53a429c287cc7faf3dbd5,2022-07-06_09h32.06.598,Colour_Asymmetry_Pilot,2022.1.3,Win32,60.27000964,62c50e9c1127f2cd403a315f,0,128,128,147,1,twofour,,,,,,,,,,,,,,,,,,,,,,,,,,,,,,,,,,,,,,,,,,,,,,,,,,,,,,,,,,,,,,,,,,,,,,,,,,,,,,,,,,,,,,,,,,,,,,,,,,,,,,,,,,,,,,,,,,,,,,,,,,,,,,,,,,,,,,,,,,,,,,,,,,,,,,,,,,,,,
,,,,,,5dac180a79d2ea00160034a3,62c53a429c287cc7faf3dbd5,2022-07-06_09h32.06.598,Colour_Asymmetry_Pilot,2022.1.3,Win32,60.27000964,62c50e9c1127f2cd403a315f,0,129,129,112,1,onetwo,,,,,,,,,,,,,,,,,,,,,,,,,,,,,,,,,,,,,,,,,,,,,,,,,,,,,,,,,,,,,,,,,,,,,,,,,,,,,,,,,,,,,,,,,,,,,,,,,,,,,,,,,,,,,,,,,,,,,,,,,,,,,,,,,,,,,,,,,,,,,,,,,,,,,,,,,,,,,
,,,,,,5dac180a79d2ea00160034a3,62c53a429c287cc7faf3dbd5,2022-07-06_09h32.06.598,Colour_Asymmetry_Pilot,2022.1.3,Win32,60.27000964,62c50e9c1127f2cd403a315f,0,130,130,30,1,fourtwo,,,,,,,,,,,,,,,,,,,,,,,,,,,,,,,,,,,,,,,,,,,,,,,,,,,,,,,,,,,,,,,,,,,,,,,,,,,,,,,,,,,,,,,,,,,,,,,,,,,,,,,,,,,,,,,,,,,,,,,,,,,,,,,,,,,,,,,,,,,,,,,,,,,,,,,,,,,,,
,,,,,,5dac180a79d2ea00160034a3,62c53a429c287cc7faf3dbd5,2022-07-06_09h32.06.598,Colour_Asymmetry_Pilot,2022.1.3,Win32,60.27000964,62c50e9c1127f2cd403a315f,0,131,131,92,1,threeone,,,,,,,,,,,,,,,,,,,,,,,,,,,,,,,,,,,,,,,,,,,,,,,,,,,,,,,,,,,,,,,,,,,,,,,,,,,,,,,,,,,,,,,,,,,,,,,,,,,,,,,,,,,,,,,,,,,,,,,,,,,,,,,,,,,,,,,,,,,,,,,,,,,,,,,,,,,,,
,,,,,,5dac180a79d2ea00160034a3,62c53a429c287cc7faf3dbd5,2022-07-06_09h32.06.598,Colour_Asymmetry_Pilot,2022.1.3,Win32,60.27000964,62c50e9c1127f2cd403a315f,0,132,132,54,1,fourtwo,,,,,,,,,,,,,,,,,,,,,,,,,,,,,,,,,,,,,,,,,,,,,,,,,,,,,,,,,,,,,,,,,,,,,,,,,,,,,,,,,,,,,,,,,,,,,,,,,,,,,,,,,,,,,,,,,,,,,,,,,,,,,,,,,,,,,,,,,,,,,,,,,,,,,,,,,,,,,
,,,,,,5dac180a79d2ea00160034a3,62c53a429c287cc7faf3dbd5,2022-07-06_09h32.06.598,Colour_Asymmetry_Pilot,2022.1.3,Win32,60.27000964,62c50e9c1127f2cd403a315f,0,133,133,4,1,threeone,,,,,,,,,,,,,,,,,,,,,,,,,,,,,,,,,,,,,,,,,,,,,,,,,,,,,,,,,,,,,,,,,,,,,,,,,,,,,,,,,,,,,,,,,,,,,,,,,,,,,,,,,,,,,,,,,,,,,,,,,,,,,,,,,,,,,,,,,,,,,,,,,,,,,,,,,,,,,
,,,,,,5dac180a79d2ea00160034a3,62c53a429c287cc7faf3dbd5,2022-07-06_09h32.06.598,Colour_Asymmetry_Pilot,2022.1.3,Win32,60.27000964,62c50e9c1127f2cd403a315f,0,134,134,6,1,fourtwo,,,,,,,,,,,,,,,,,,,,,,,,,,,,,,,,,,,,,,,,,,,,,,,,,,,,,,,,,,,,,,,,,,,,,,,,,,,,,,,,,,,,,,,,,,,,,,,,,,,,,,,,,,,,,,,,,,,,,,,,,,,,,,,,,,,,,,,,,,,,,,,,,,,,,,,,,,,,,
,,,,,,5dac180a79d2ea00160034a3,62c53a429c287cc7faf3dbd5,2022-07-06_09h32.06.598,Colour_Asymmetry_Pilot,2022.1.3,Win32,60.27000964,62c50e9c1127f2cd403a315f,0,135,135,25,1,onethree,,,,,,,,,,,,,,,,,,,,,,,,,,,,,,,,,,,,,,,,,,,,,,,,,,,,,,,,,,,,,,,,,,,,,,,,,,,,,,,,,,,,,,,,,,,,,,,,,,,,,,,,,,,,,,,,,,,,,,,,,,,,,,,,,,,,,,,,,,,,,,,,,,,,,,,,,,,,,
,,,,,,5dac180a79d2ea00160034a3,62c53a429c287cc7faf3dbd5,2022-07-06_09h32.06.598,Colour_Asymmetry_Pilot,2022.1.3,Win32,60.27000964,62c50e9c1127f2cd403a315f,0,136,136,60,1,threeone,,,,,,,,,,,,,,,,,,,,,,,,,,,,,,,,,,,,,,,,,,,,,,,,,,,,,,,,,,,,,,,,,,,,,,,,,,,,,,,,,,,,,,,,,,,,,,,,,,,,,,,,,,,,,,,,,,,,,,,,,,,,,,,,,,,,,,,,,,,,,,,,,,,,,,,,,,,,,
,,,,,,5dac180a79d2ea00160034a3,62c53a429c287cc7faf3dbd5,2022-07-06_09h32.06.598,Colour_Asymmetry_Pilot,2022.1.3,Win32,60.27000964,62c50e9c1127f2cd403a315f,0,137,137,56,1,onetwo,,,,,,,,,,,,,,,,,,,,,,,,,,,,,,,,,,,,,,,,,,,,,,,,,,,,,,,,,,,,,,,,,,,,,,,,,,,,,,,,,,,,,,,,,,,,,,,,,,,,,,,,,,,,,,,,,,,,,,,,,,,,,,,,,,,,,,,,,,,,,,,,,,,,,,,,,,,,,
,,,,,,5dac180a79d2ea00160034a3,62c53a429c287cc7faf3dbd5,2022-07-06_09h32.06.598,Colour_Asymmetry_Pilot,2022.1.3,Win32,60.27000964,62c50e9c1127f2cd403a315f,0,138,138,21,1,threefour,,,,,,,,,,,,,,,,,,,,,,,,,,,,,,,,,,,,,,,,,,,,,,,,,,,,,,,,,,,,,,,,,,,,,,,,,,,,,,,,,,,,,,,,,,,,,,,,,,,,,,,,,,,,,,,,,,,,,,,,,,,,,,,,,,,,,,,,,,,,,,,,,,,,,,,,,,,,,
,,,,,,5dac180a79d2ea00160034a3,62c53a429c287cc7faf3dbd5,2022-07-06_09h32.06.598,Colour_Asymmetry_Pilot,2022.1.3,Win32,60.27000964,62c50e9c1127f2cd403a315f,0,139,139,44,1,threeone,,,,,,,,,,,,,,,,,,,,,,,,,,,,,,,,,,,,,,,,,,,,,,,,,,,,,,,,,,,,,,,,,,,,,,,,,,,,,,,,,,,,,,,,,,,,,,,,,,,,,,,,,,,,,,,,,,,,,,,,,,,,,,,,,,,,,,,,,,,,,,,,,,,,,,,,,,,,,
,,,,,,5dac180a79d2ea00160034a3,62c53a429c287cc7faf3dbd5,2022-07-06_09h32.06.598,Colour_Asymmetry_Pilot,2022.1.3,Win32,60.27000964,62c50e9c1127f2cd403a315f,0,140,140,62,1,fourtwo,,,,,,,,,,,,,,,,,,,,,,,,,,,,,,,,,,,,,,,,,,,,,,,,,,,,,,,,,,,,,,,,,,,,,,,,,,,,,,,,,,,,,,,,,,,,,,,,,,,,,,,,,,,,,,,,,,,,,,,,,,,,,,,,,,,,,,,,,,,,,,,,,,,,,,,,,,,,,
,,,,,,5dac180a79d2ea00160034a3,62c53a429c287cc7faf3dbd5,2022-07-06_09h32.06.598,Colour_Asymmetry_Pilot,2022.1.3,Win32,60.27000964,62c50e9c1127f2cd403a315f,0,141,141,142,1,fourtwo,,,,,,,,,,,,,,,,,,,,,,,,,,,,,,,,,,,,,,,,,,,,,,,,,,,,,,,,,,,,,,,,,,,,,,,,,,,,,,,,,,,,,,,,,,,,,,,,,,,,,,,,,,,,,,,,,,,,,,,,,,,,,,,,,,,,,,,,,,,,,,,,,,,,,,,,,,,,,
,,,,,,5dac180a79d2ea00160034a3,62c53a429c287cc7faf3dbd5,2022-07-06_09h32.06.598,Colour_Asymmetry_Pilot,2022.1.3,Win32,60.27000964,62c50e9c1127f2cd403a315f,0,142,142,33,1,onethree,,,,,,,,,,,,,,,,,,,,,,,,,,,,,,,,,,,,,,,,,,,,,,,,,,,,,,,,,,,,,,,,,,,,,,,,,,,,,,,,,,,,,,,,,,,,,,,,,,,,,,,,,,,,,,,,,,,,,,,,,,,,,,,,,,,,,,,,,,,,,,,,,,,,,,,,,,,,,
,,,,,,5dac180a79d2ea00160034a3,62c53a429c287cc7faf3dbd5,2022-07-06_09h32.06.598,Colour_Asymmetry_Pilot,2022.1.3,Win32,60.27000964,62c50e9c1127f2cd403a315f,0,143,143,153,1,onethree,,,,,,,,,,,,,,,,,,,,,,,,,,,,,,,,,,,,,,,,,,,,,,,,,,,,,,,,,,,,,,,,,,,,,,,,,,,,,,,,,,,,,,,,,,,,,,,,,,,,,,,,,,,,,,,,,,,,,,,,,,,,,,,,,,,,,,,,,,,,,,,,,,,,,,,,,,,,,
,,,,,,5dac180a79d2ea00160034a3,62c53a429c287cc7faf3dbd5,2022-07-06_09h32.06.598,Colour_Asymmetry_Pilot,2022.1.3,Win32,60.27000964,62c50e9c1127f2cd403a315f,0,144,144,159,1,fourthree,,,,,,,,,,,,,,,,,,,,,,,,,,,,,,,,,,,,,,,,,,,,,,,,,,,,,,,,,,,,,,,,,,,,,,,,,,,,,,,,,,,,,,,,,,,,,,,,,,,,,,,,,,,,,,,,,,,,,,,,,,,,,,,,,,,,,,,,,,,,,,,,,,,,,,,,,,,,,
,,,,,,5dac180a79d2ea00160034a3,62c53a429c287cc7faf3dbd5,2022-07-06_09h32.06.598,Colour_Asymmetry_Pilot,2022.1.3,Win32,60.27000964,62c50e9c1127f2cd403a315f,0,145,145,14,1,fourtwo,,,,,,,,,,,,,,,,,,,,,,,,,,,,,,,,,,,,,,,,,,,,,,,,,,,,,,,,,,,,,,,,,,,,,,,,,,,,,,,,,,,,,,,,,,,,,,,,,,,,,,,,,,,,,,,,,,,,,,,,,,,,,,,,,,,,,,,,,,,,,,,,,,,,,,,,,,,,,
,,,,,,5dac180a79d2ea00160034a3,62c53a429c287cc7faf3dbd5,2022-07-06_09h32.06.598,Colour_Asymmetry_Pilot,2022.1.3,Win32,60.27000964,62c50e9c1127f2cd403a315f,0,146,146,139,1,twofour,,,,,,,,,,,,,,,,,,,,,,,,,,,,,,,,,,,,,,,,,,,,,,,,,,,,,,,,,,,,,,,,,,,,,,,,,,,,,,,,,,,,,,,,,,,,,,,,,,,,,,,,,,,,,,,,,,,,,,,,,,,,,,,,,,,,,,,,,,,,,,,,,,,,,,,,,,,,,
,,,,,,5dac180a79d2ea00160034a3,62c53a429c287cc7faf3dbd5,2022-07-06_09h32.06.598,Colour_Asymmetry_Pilot,2022.1.3,Win32,60.27000964,62c50e9c1127f2cd403a315f,0,147,147,1,1,onethree,,,,,,,,,,,,,,,,,,,,,,,,,,,,,,,,,,,,,,,,,,,,,,,,,,,,,,,,,,,,,,,,,,,,,,,,,,,,,,,,,,,,,,,,,,,,,,,,,,,,,,,,,,,,,,,,,,,,,,,,,,,,,,,,,,,,,,,,,,,,,,,,,,,,,,,,,,,,,
,,,,,,5dac180a79d2ea00160034a3,62c53a429c287cc7faf3dbd5,2022-07-06_09h32.06.598,Colour_Asymmetry_Pilot,2022.1.3,Win32,60.27000964,62c50e9c1127f2cd403a315f,0,148,148,87,1,fourthree,,,,,,,,,,,,,,,,,,,,,,,,,,,,,,,,,,,,,,,,,,,,,,,,,,,,,,,,,,,,,,,,,,,,,,,,,,,,,,,,,,,,,,,,,,,,,,,,,,,,,,,,,,,,,,,,,,,,,,,,,,,,,,,,,,,,,,,,,,,,,,,,,,,,,,,,,,,,,
,,,,,,5dac180a79d2ea00160034a3,62c53a429c287cc7faf3dbd5,2022-07-06_09h32.06.598,Colour_Asymmetry_Pilot,2022.1.3,Win32,60.27000964,62c50e9c1127f2cd403a315f,0,149,149,31,1,fourthree,,,,,,,,,,,,,,,,,,,,,,,,,,,,,,,,,,,,,,,,,,,,,,,,,,,,,,,,,,,,,,,,,,,,,,,,,,,,,,,,,,,,,,,,,,,,,,,,,,,,,,,,,,,,,,,,,,,,,,,,,,,,,,,,,,,,,,,,,,,,,,,,,,,,,,,,,,,,,
,,,,,,5dac180a79d2ea00160034a3,62c53a429c287cc7faf3dbd5,2022-07-06_09h32.06.598,Colour_Asymmetry_Pilot,2022.1.3,Win32,60.27000964,62c50e9c1127f2cd403a315f,0,150,150,96,1,onetwo,,,,,,,,,,,,,,,,,,,,,,,,,,,,,,,,,,,,,,,,,,,,,,,,,,,,,,,,,,,,,,,,,,,,,,,,,,,,,,,,,,,,,,,,,,,,,,,,,,,,,,,,,,,,,,,,,,,,,,,,,,,,,,,,,,,,,,,,,,,,,,,,,,,,,,,,,,,,,
,,,,,,5dac180a79d2ea00160034a3,62c53a429c287cc7faf3dbd5,2022-07-06_09h32.06.598,Colour_Asymmetry_Pilot,2022.1.3,Win32,60.27000964,62c50e9c1127f2cd403a315f,0,151,151,36,1,threeone,,,,,,,,,,,,,,,,,,,,,,,,,,,,,,,,,,,,,,,,,,,,,,,,,,,,,,,,,,,,,,,,,,,,,,,,,,,,,,,,,,,,,,,,,,,,,,,,,,,,,,,,,,,,,,,,,,,,,,,,,,,,,,,,,,,,,,,,,,,,,,,,,,,,,,,,,,,,,
,,,,,,5dac180a79d2ea00160034a3,62c53a429c287cc7faf3dbd5,2022-07-06_09h32.06.598,Colour_Asymmetry_Pilot,2022.1.3,Win32,60.27000964,62c50e9c1127f2cd403a315f,0,152,152,68,1,threeone,,,,,,,,,,,,,,,,,,,,,,,,,,,,,,,,,,,,,,,,,,,,,,,,,,,,,,,,,,,,,,,,,,,,,,,,,,,,,,,,,,,,,,,,,,,,,,,,,,,,,,,,,,,,,,,,,,,,,,,,,,,,,,,,,,,,,,,,,,,,,,,,,,,,,,,,,,,,,
,,,,,,5dac180a79d2ea00160034a3,62c53a429c287cc7faf3dbd5,2022-07-06_09h32.06.598,Colour_Asymmetry_Pilot,2022.1.3,Win32,60.27000964,62c50e9c1127f2cd403a315f,0,153,153,101,1,threefour,,,,,,,,,,,,,,,,,,,,,,,,,,,,,,,,,,,,,,,,,,,,,,,,,,,,,,,,,,,,,,,,,,,,,,,,,,,,,,,,,,,,,,,,,,,,,,,,,,,,,,,,,,,,,,,,,,,,,,,,,,,,,,,,,,,,,,,,,,,,,,,,,,,,,,,,,,,,,
,,,,,,5dac180a79d2ea00160034a3,62c53a429c287cc7faf3dbd5,2022-07-06_09h32.06.598,Colour_Asymmetry_Pilot,2022.1.3,Win32,60.27000964,62c50e9c1127f2cd403a315f,0,154,154,78,1,fourtwo,,,,,,,,,,,,,,,,,,,,,,,,,,,,,,,,,,,,,,,,,,,,,,,,,,,,,,,,,,,,,,,,,,,,,,,,,,,,,,,,,,,,,,,,,,,,,,,,,,,,,,,,,,,,,,,,,,,,,,,,,,,,,,,,,,,,,,,,,,,,,,,,,,,,,,,,,,,,,
,,,,,,5dac180a79d2ea00160034a3,62c53a429c287cc7faf3dbd5,2022-07-06_09h32.06.598,Colour_Asymmetry_Pilot,2022.1.3,Win32,60.27000964,62c50e9c1127f2cd403a315f,0,155,155,65,1,onethree,,,,,,,,,,,,,,,,,,,,,,,,,,,,,,,,,,,,,,,,,,,,,,,,,,,,,,,,,,,,,,,,,,,,,,,,,,,,,,,,,,,,,,,,,,,,,,,,,,,,,,,,,,,,,,,,,,,,,,,,,,,,,,,,,,,,,,,,,,,,,,,,,,,,,,,,,,,,,
,,,,,,5dac180a79d2ea00160034a3,62c53a429c287cc7faf3dbd5,2022-07-06_09h32.06.598,Colour_Asymmetry_Pilot,2022.1.3,Win32,60.27000964,62c50e9c1127f2cd403a315f,0,156,156,136,1,onetwo,,,,,,,,,,,,,,,,,,,,,,,,,,,,,,,,,,,,,,,,,,,,,,,,,,,,,,,,,,,,,,,,,,,,,,,,,,,,,,,,,,,,,,,,,,,,,,,,,,,,,,,,,,,,,,,,,,,,,,,,,,,,,,,,,,,,,,,,,,,,,,,,,,,,,,,,,,,,,
,,,,,,5dac180a79d2ea00160034a3,62c53a429c287cc7faf3dbd5,2022-07-06_09h32.06.598,Colour_Asymmetry_Pilot,2022.1.3,Win32,60.27000964,62c50e9c1127f2cd403a315f,0,157,157,63,1,fourthree,,,,,,,,,,,,,,,,,,,,,,,,,,,,,,,,,,,,,,,,,,,,,,,,,,,,,,,,,,,,,,,,,,,,,,,,,,,,,,,,,,,,,,,,,,,,,,,,,,,,,,,,,,,,,,,,,,,,,,,,,,,,,,,,,,,,,,,,,,,,,,,,,,,,,,,,,,,,,
,,,,,,5dac180a79d2ea00160034a3,62c53a429c287cc7faf3dbd5,2022-07-06_09h32.06.598,Colour_Asymmetry_Pilot,2022.1.3,Win32,60.27000964,62c50e9c1127f2cd403a315f,0,158,158,42,1,twoone,,,,,,,,,,,,,,,,,,,,,,,,,,,,,,,,,,,,,,,,,,,,,,,,,,,,,,,,,,,,,,,,,,,,,,,,,,,,,,,,,,,,,,,,,,,,,,,,,,,,,,,,,,,,,,,,,,,,,,,,,,,,,,,,,,,,,,,,,,,,,,,,,,,,,,,,,,,,,
,,,,,,5dac180a79d2ea00160034a3,62c53a429c287cc7faf3dbd5,2022-07-06_09h32.06.598,Colour_Asymmetry_Pilot,2022.1.3,Win32,60.27000964,62c50e9c1127f2cd403a315f,0,159,159,138,1,twoone,,,,,,,,,,,,,,,,,,,,,,,,,,,,,,,,,,,,,,,,,,,,,,,,,,,,,,,,,,,,,,,,,,,,,,,,,,,,,,,,,,,,,,,,,,,,,,,,,,,,,,,,,,,,,,,,,,,,,,,,,,,,,,,,,,,,,,,,,,,,,,,,,,,,,,,,,,,,,
,,,,,,5dac180a79d2ea00160034a3,62c53a429c287cc7faf3dbd5,2022-07-06_09h32.06.598,Colour_Asymmetry_Pilot,2022.1.3,Win32,60.27000964,62c50e9c1127f2cd403a315f,0,160,160,40,1,onetwo,,,,,,,,,,,,,,,,,,,,,,,,,,,,,,,,,,,,,,,,,,,,,,,,,,,,,,,,,,,,,,,,,,,,,,,,,,,,,,,,,,,,,,,,,,,,,,,,,,,,,,,,,,,,,,,,,,,,,,,,,,,,,,,,,,,,,,,,,,,,,,,,,,,,,,,,,,,,,
,,,,,,5dac180a79d2ea00160034a3,62c53a429c287cc7faf3dbd5,2022-07-06_09h32.06.598,Colour_Asymmetry_Pilot,2022.1.3,Win32,60.27000964,62c50e9c1127f2cd403a315f,0,161,161,82,1,twoone,,,,,,,,,,,,,,,,,,,,,,,,,,,,,,,,,,,,,,,,,,,,,,,,,,,,,,,,,,,,,,,,,,,,,,,,,,,,,,,,,,,,,,,,,,,,,,,,,,,,,,,,,,,,,,,,,,,,,,,,,,,,,,,,,,,,,,,,,,,,,,,,,,,,,,,,,,,,,
,,,,,,5dac180a79d2ea00160034a3,62c53a429c287cc7faf3dbd5,2022-07-06_09h32.06.598,Colour_Asymmetry_Pilot,2022.1.3,Win32,60.27000964,62c50e9c1127f2cd403a315f,,,,,,,space,167.7753,space,11.5057,space,54.5316,space,37.7861,space,5.441,space,1212.8228,"[-0.06680000000000008,-0.45100000000000007,-0.906]",twofour,"[-0.34920000000000007,-0.702,-0.5216]",3,18.5839,106,65,1,0,0,response1disk_5,-12,-5,1,0,0,rectangle_8,-12,-5,1,0,0,3,-12,-5,1,0,0,0,0,0,0,1,,,,,,,,,,,,,,,,,,,,,,,,,,,,,,,,,,,,,,,,,,,,,,,,,,,,,,,,,,,,,,,,,,,,,,,,,,,,,,,,,,,,,,,,,,,,,,,,,,,,,,,,,,,,,,,,
,,,,,,5dac180a79d2ea00160034a3,62c53a429c287cc7faf3dbd5,2022-07-06_09h32.06.598,Colour_Asymmetry_Pilot,2022.1.3,Win32,60.27000964,62c50e9c1127f2cd403a315f,,,,,,,,,,,,,,,,,,,"[-0.20799999999999996,-0.655,-0.01980000000000004]",onetwo,"[-0.9688,-0.7412000000000001,-0.4902000000000001]",4,7.6226,35,77,1,0,0,response1disk_5,14,4,1,0,0,rectangle_8,14,4,1,0,0,3,14,4,1,0,0,1,0,1,0,1,,,,,,,,,,,,,,,,,,,,,,,,,,,,,,,,,,,,,,,,,,,,,,,,,,,,,,,,,,,,,,,,,,,,,,,,,,,,,,,,,,,,,,,,,,,,,,,,,,,,,,,,,,,,,,,,
,,,,,,5dac180a79d2ea00160034a3,62c53a429c287cc7faf3dbd5,2022-07-06_09h32.06.598,Colour_Asymmetry_Pilot,2022.1.3,Win32,60.27000964,62c50e9c1127f2cd403a315f,,,,,,,,,,,,,,,,,,,"[-0.0040000000000000036,0.02739999999999987,-0.08239999999999992]",onetwo,"[-0.5452,-0.608,0.2470000000000001]",2,2.5343,99,-51,1,0,0,response3disk_5,-23,10,1,0,0,rectangle_8,95,74,1,0,0,3,7,8,1,0,0,2,0,2,0,1,response1disk_7,6,rectangle_4,,,,,,,,,,,,,,,,,,,,,,,,,,,,,,,,,,,,,,,,,,,,,,,,,,,,,,,,,,,,,,,,,,,,,,,,,,,,,,,,,,,,,,,,,,,,,,,,,,,,,,,,,,,,,
,,,,,,5dac180a79d2ea00160034a3,62c53a429c287cc7faf3dbd5,2022-07-06_09h32.06.598,Colour_Asymmetry_Pilot,2022.1.3,Win32,60.27000964,62c50e9c1127f2cd403a315f,,,,,,,,,,,,,,,,,,,"[0.9842,0.7409999999999999,-0.6628000000000001]",onetwo,"[-0.2942,-0.7648,-0.7492000000000001]",-2,2.5123,-73,-45,1,0,0,response5disk_5,0,-6,1,0,0,rectangle_8,0,-6,1,0,0,3,0,-6,1,0,0,3,0,3,0,1,,,,,,,,,,,,,,,,,,,,,,,,,,,,,,,,,,,,,,,,,,,,,,,,,,,,,,,,,,,,,,,,,,,,,,,,,,,,,,,,,,,,,,,,,,,,,,,,,,,,,,,,,,,,,,,,
,,,,,,5dac180a79d2ea00160034a3,62c53a429c287cc7faf3dbd5,2022-07-06_09h32.06.598,Colour_Asymmetry_Pilot,2022.1.3,Win32,60.27000964,62c50e9c1127f2cd403a315f,,,,,,,,,,,,,,,,,,,"[0.37240000000000006,-0.050999999999999934,-0.5216]",fourthree,"[-0.2942,-0.24719999999999998,-0.357]",-1,8.2905,-63,-97,1,0,0,response5disk_5,7,2,1,0,0,rectangle_8,7,2,1,0,0,3,7,2,1,0,0,4,0,4,0,1,,,,,,,,,,,,,,,,,,,,,,,,,,,,,,,,,,,,,,,,,,,,,,,,,,,,,,,,,,,,,,,,,,,,,,,,,,,,,,,,,,,,,,,,,,,,,,,,,,,,,,,,,,,,,,,,
,,,,,,5dac180a79d2ea00160034a3,62c53a429c287cc7faf3dbd5,2022-07-06_09h32.06.598,Colour_Asymmetry_Pilot,2022.1.3,Win32,60.27000964,62c50e9c1127f2cd403a315f,,,,,,,,,,,,,,,,,,,"[0.23120000000000007,-0.7726,-0.34120000000000006]",twofour,"[0.2862,0.7802,0.3568]",-4,3.1659,-61,104,1,0,0,response7disk_5,-12,4,1,0,0,rectangle_8,-12,4,1,0,0,3,-12,4,1,0,0,5,0,5,0,1,,,,,,,,,,,,,,,,,,,,,,,,,,,,,,,,,,,,,,,,,,,,,,,,,,,,,,,,,,,,,,,,,,,,,,,,,,,,,,,,,,,,,,,,,,,,,,,,,,,,,,,,,,,,,,,,
,,,,,,5dac180a79d2ea00160034a3,62c53a429c287cc7faf3dbd5,2022-07-06_09h32.06.598,Colour_Asymmetry_Pilot,2022.1.3,Win32,60.27000964,62c50e9c1127f2cd403a315f,,,,,,,,,,,,,,,,,,,"[-0.8982,-0.37259999999999993,0.2784]",threefour,"[0.30180000000000007,-0.7884,-0.9844]",-3,1.9688,-93,40,1,0,0,response7disk_5,7,3,1,0,0,rectangle_8,7,3,1,0,0,3,7,3,1,0,0,6,0,6,0,1,,,,,,,,,,,,,,,,,,,,,,,,,,,,,,,,,,,,,,,,,,,,,,,,,,,,,,,,,,,,,,,,,,,,,,,,,,,,,,,,,,,,,,,,,,,,,,,,,,,,,,,,,,,,,,,,
,,,,,,5dac180a79d2ea00160034a3,62c53a429c287cc7faf3dbd5,2022-07-06_09h32.06.598,Colour_Asymmetry_Pilot,2022.1.3,Win32,60.27000964,62c50e9c1127f2cd403a315f,,,,,,,,,,,,,,,,,,,,twoone,,-3,2.4499,,,,,,,,,,,,,,,,,,,,,,,,,,,,,,,,space,7.004,"[0.7802,-0.23140000000000005,-0.20799999999999996]","[-0.9688,-0.4902000000000001,-0.12159999999999993]",-54,32,1,0,0,response7disk,-4,14,1,0,0,rectangle,-4,14,1,0,0,,3,0.0119,0,-4,14,1,0,0,0,0,0,23,1,23,first,,,,,,,,,,,,,,,,,,,,,,,,,,,,,,,,,,,,,,,,,,,,,,,,,,,,,,,,,,,,,,,,,,,,,,,,
,,,,,,5dac180a79d2ea00160034a3,62c53a429c287cc7faf3dbd5,2022-07-06_09h32.06.598,Colour_Asymmetry_Pilot,2022.1.3,Win32,60.27000964,62c50e9c1127f2cd403a315f,,,,,,,,,,,,,,,,,,,,fourthree,,-1,2.8065,,,,,,,,,,,,,,,,,,,,,,,,,,,,,,,,,,"[-0.10599999999999998,-0.15300000000000002,0.15280000000000005]","[0.11359999999999992,0.6312,0.5213999999999999]",-34,-108,1,0,0,response5disk,23,0,1,0,0,rectangle,23,0,1,0,0,,1,0.0035,0,23,0,1,0,0,0,1,1,130,1,49,second,,,,,,,,,,,,,,,,,,,,,,,,,,,,,,,,,,,,,,,,,,,,,,,,,,,,,,,,,,,,,,,,,,,,,,,,
,,,,,,5dac180a79d2ea00160034a3,62c53a429c287cc7faf3dbd5,2022-07-06_09h32.06.598,Colour_Asymmetry_Pilot,2022.1.3,Win32,60.27000964,62c50e9c1127f2cd403a315f,,,,,,,,,,,,,,,,,,,,onetwo,,-2,2.3481,,,,,,,,,,,,,,,,,,,,,,,,,,,,,,,,,,"[0.2862,0.7802,0.3568]","[-0.8118,-0.8198,-0.5452]",-82,-60,1,0,0,response5disk,-11,-6,1,0,0,rectangle,-11,-6,1,0,0,,1,0.0012,0,-11,-6,1,0,0,0,2,2,14,1,14,first,,,,,,,,,,,,,,,,,,,,,,,,,,,,,,,,,,,,,,,,,,,,,,,,,,,,,,,,,,,,,,,,,,,,,,,,
,,,,,,5dac180a79d2ea00160034a3,62c53a429c287cc7faf3dbd5,2022-07-06_09h32.06.598,Colour_Asymmetry_Pilot,2022.1.3,Win32,60.27000964,62c50e9c1127f2cd403a315f,,,,,,,,,,,,,,,,,,,,threeone,,-3,1.3165,,,,,,,,,,,,,,,,,,,,,,,,,,,,,,,,,,"[-0.9766,-0.6472,0.07440000000000002]","[0.2784,-0.31000000000000005,-0.5452]",-110,49,1,0,0,response7disk,-11,-5,1,0,0,rectangle,53,-97,1,0,0,1,1,2.7864,1,10,-5,1,0,0,0,3,3,55,1,55,first,response3disk_3,rectangle,,,,,,,,,,,,,,,,,,,,,,,,,,,,,,,,,,,,,,,,,,,,,,,,,,,,,,,,,,,,,,,,,,,,,,
,,,,,,5dac180a79d2ea00160034a3,62c53a429c287cc7faf3dbd5,2022-07-06_09h32.06.598,Colour_Asymmetry_Pilot,2022.1.3,Win32,60.27000964,62c50e9c1127f2cd403a315f,,,,,,,,,,,,,,,,,,,,onethree,,-2,1.486,,,,,,,,,,,,,,,,,,,,,,,,,,,,,,,,,,"[-0.9766,-0.34920000000000007,0.2156]","[0.0351999999999999,0.41159999999999997,0.0038000000000000256]",-103,-63,1,0,0,response5disk,20,8,1,0,0,rectangle,20,8,1,0,0,1,3,0.0034,0,20,8,1,0,0,0,4,4,60,1,60,first,,,,,,,,,,,,,,,,,,,,,,,,,,,,,,,,,,,,,,,,,,,,,,,,,,,,,,,,,,,,,,,,,,,,,,,,
,,,,,,5dac180a79d2ea00160034a3,62c53a429c287cc7faf3dbd5,2022-07-06_09h32.06.598,Colour_Asymmetry_Pilot,2022.1.3,Win32,60.27000964,62c50e9c1127f2cd403a315f,,,,,,,,,,,,,,,,,,,,threefour,,2,2.8311,,,,,,,,,,,,,,,,,,,,,,,,,,,,,,,,,,"[-0.10599999999999998,-0.15300000000000002,0.15280000000000005]","[-0.5452,-0.608,0.2470000000000001]",84,-33,1,0,0,response3disk,10,10,1,0,0,rectangle,10,10,1,0,0,1,2,0.0056,0,10,10,1,0,0,0,5,5,93,1,12,second,,,,,,,,,,,,,,,,,,,,,,,,,,,,,,,,,,,,,,,,,,,,,,,,,,,,,,,,,,,,,,,,,,,,,,,,
,,,,,,5dac180a79d2ea00160034a3,62c53a429c287cc7faf3dbd5,2022-07-06_09h32.06.598,Colour_Asymmetry_Pilot,2022.1.3,Win32,60.27000964,62c50e9c1127f2cd403a315f,,,,,,,,,,,,,,,,,,,,fourtwo,,-2,2.9432,,,,,,,,,,,,,,,,,,,,,,,,,,,,,,,,,,"[0.11359999999999992,0.6312,0.5213999999999999]","[0.2784,-0.31000000000000005,-0.5452]",-87,-64,1,0,0,response5disk,-19,12,1,0,0,rectangle,-19,12,1,0,0,1,2,0.0017,0,-19,12,1,0,0,0,6,6,16,1,16,first,,,,,,,,,,,,,,,,,,,,,,,,,,,,,,,,,,,,,,,,,,,,,,,,,,,,,,,,,,,,,,,,,,,,,,,,
,,,,,,5dac180a79d2ea00160034a3,62c53a429c287cc7faf3dbd5,2022-07-06_09h32.06.598,Colour_Asymmetry_Pilot,2022.1.3,Win32,60.27000964,62c50e9c1127f2cd403a315f,,,,,,,,,,,,,,,,,,,,twofour,,-3,2.2193,,,,,,,,,,,,,,,,,,,,,,,,,,,,,,,,,,"[-0.10599999999999998,-0.15300000000000002,0.15280000000000005]","[0.34099999999999997,0.5841999999999998,-0.9844]",-73,28,1,0,0,response7disk,5,3,1,0,0,rectangle,5,3,1,0,0,1,3,0.0025,0,5,3,1,0,0,0,7,7,156,1,75,second,,,,,,,,,,,,,,,,,,,,,,,,,,,,,,,,,,,,,,,,,,,,,,,,,,,,,,,,,,,,,,,,,,,,,,,,
,,,,,,5dac180a79d2ea00160034a3,62c53a429c287cc7faf3dbd5,2022-07-06_09h32.06.598,Colour_Asymmetry_Pilot,2022.1.3,Win32,60.27000964,62c50e9c1127f2cd403a315f,,,,,,,,,,,,,,,,,,,,twoone,,-2,1.2045,,,,,,,,,,,,,,,,,,,,,,,,,,,,,,,,,,"[0.8115999999999999,-0.0040000000000000036,-0.09819999999999995]","[0.40379999999999994,0.09000000000000008,0.44300000000000006]",-91,-73,1,0,0,response5disk,2,-2,1,0,0,rectangle,2,-2,1,0,0,1,3,0.0019,0,2,-2,1,0,0,0,8,8,81,1,0,second,,,,,,,,,,,,,,,,,,,,,,,,,,,,,,,,,,,,,,,,,,,,,,,,,,,,,,,,,,,,,,,,,,,,,,,,
,,,,,,5dac180a79d2ea00160034a3,62c53a429c287cc7faf3dbd5,2022-07-06_09h32.06.598,Colour_Asymmetry_Pilot,2022.1.3,Win32,60.27000964,62c50e9c1127f2cd403a315f,,,,,,,,,,,,,,,,,,,,onethree,,-3,1.4126,,,,,,,,,,,,,,,,,,,,,,,,,,,,,,,,,,"[0.34099999999999997,0.12939999999999996,-0.9766]","[0.3881999999999999,-0.23939999999999995,-0.05040000000000011]",-60,33,1,0,0,response7disk,-6,4,1,0,0,rectangle,-6,4,1,0,0,1,2,0.0036,0,-6,4,1,0,0,0,9,9,88,1,7,second,,,,,,,,,,,,,,,,,,,,,,,,,,,,,,,,,,,,,,,,,,,,,,,,,,,,,,,,,,,,,,,,,,,,,,,,
,,,,,,5dac180a79d2ea00160034a3,62c53a429c287cc7faf3dbd5,2022-07-06_09h32.06.598,Colour_Asymmetry_Pilot,2022.1.3,Win32,60.27000964,62c50e9c1127f2cd403a315f,,,,,,,,,,,,,,,,,,,,onetwo,,-4,1.0882,,,,,,,,,,,,,,,,,,,,,,,,,,,,,,,,,,"[-0.7412000000000001,-0.08239999999999992,-0.6864]","[0.9763999999999999,0.8588,-0.05900000000000005]",-27,71,1,0,0,response7disk,14,-3,1,0,0,rectangle,14,-3,1,0,0,1,2,0.0012,0,14,-3,1,0,0,0,10,10,108,1,27,second,,,,,,,,,,,,,,,,,,,,,,,,,,,,,,,,,,,,,,,,,,,,,,,,,,,,,,,,,,,,,,,,,,,,,,,,
,,,,,,5dac180a79d2ea00160034a3,62c53a429c287cc7faf3dbd5,2022-07-06_09h32.06.598,Colour_Asymmetry_Pilot,2022.1.3,Win32,60.27000964,62c50e9c1127f2cd403a315f,,,,,,,,,,,,,,,,,,,,twoone,,2,2.8162,,,,,,,,,,,,,,,,,,,,,,,,,,,,,,,,,,"[-0.17659999999999998,0.3253999999999999,0.19999999999999996]","[-0.9296,-0.12959999999999994,-0.043199999999999905]",111,-39,1,0,0,response3disk,29,-10,1,0,0,rectangle,29,-10,1,0,0,1,1,0.0038,0,29,-10,1,0,0,0,11,11,120,1,39,second,,,,,,,,,,,,,,,,,,,,,,,,,,,,,,,,,,,,,,,,,,,,,,,,,,,,,,,,,,,,,,,,,,,,,,,,
,,,,,,5dac180a79d2ea00160034a3,62c53a429c287cc7faf3dbd5,2022-07-06_09h32.06.598,Colour_Asymmetry_Pilot,2022.1.3,Win32,60.27000964,62c50e9c1127f2cd403a315f,,,,,,,,,,,,,,,,,,,,onethree,,-3,0.8835,,,,,,,,,,,,,,,,,,,,,,,,,,,,,,,,,,"[0.8115999999999999,-0.0040000000000000036,-0.09819999999999995]","[0.2862,0.7802,0.3568]",-68,45,1,0,0,response7disk,-10,4,1,0,0,rectangle,-10,4,1,0,0,1,2,0.0033,0,-10,4,1,0,0,0,12,12,138,1,57,second,,,,,,,,,,,,,,,,,,,,,,,,,,,,,,,,,,,,,,,,,,,,,,,,,,,,,,,,,,,,,,,,,,,,,,,,
,,,,,,5dac180a79d2ea00160034a3,62c53a429c287cc7faf3dbd5,2022-07-06_09h32.06.598,Colour_Asymmetry_Pilot,2022.1.3,Win32,60.27000964,62c50e9c1127f2cd403a315f,,,,,,,,,,,,,,,,,,,,onethree,,-3,2.3821,,,,,,,,,,,,,,,,,,,,,,,,,,,,,,,,,,"[0.11359999999999992,0.6312,0.5213999999999999]","[-0.07459999999999989,0.12139999999999995,-0.9922]",-65,29,1,0,0,response7disk,11,1,1,0,0,rectangle,11,1,1,0,0,1,2,0.0016,0,11,1,1,0,0,0,13,13,31,1,31,first,,,,,,,,,,,,,,,,,,,,,,,,,,,,,,,,,,,,,,,,,,,,,,,,,,,,,,,,,,,,,,,,,,,,,,,,
,,,,,,5dac180a79d2ea00160034a3,62c53a429c287cc7faf3dbd5,2022-07-06_09h32.06.598,Colour_Asymmetry_Pilot,2022.1.3,Win32,60.27000964,62c50e9c1127f2cd403a315f,,,,,,,,,,,,,,,,,,,,threefour,,-4,2.1209,,,,,,,,,,,,,,,,,,,,,,,,,,,,,,,,,,"[0.5528,0.7409999999999999,-0.71]","[-0.8118,-0.8198,-0.5452]",-52,75,1,0,0,response7disk,0,-1,1,0,0,rectangle,0,-1,1,0,0,1,3,0.0042,0,0,-1,1,0,0,0,14,14,83,1,2,second,,,,,,,,,,,,,,,,,,,,,,,,,,,,,,,,,,,,,,,,,,,,,,,,,,,,,,,,,,,,,,,,,,,,,,,,
,,,,,,5dac180a79d2ea00160034a3,62c53a429c287cc7faf3dbd5,2022-07-06_09h32.06.598,Colour_Asymmetry_Pilot,2022.1.3,Win32,60.27000964,62c50e9c1127f2cd403a315f,,,,,,,,,,,,,,,,,,,,fourtwo,,-2,1.1512,,,,,,,,,,,,,,,,,,,,,,,,,,,,,,,,,,"[0.796,0.2156,-0.27859999999999996]","[-0.4902000000000001,0.2704,-0.45899999999999996]",-83,-41,1,0,0,response5disk,5,-7,1,0,0,rectangle,5,-7,1,0,0,1,3,0.0006,0,5,-7,1,0,0,0,15,15,103,1,22,second,,,,,,,,,,,,,,,,,,,,,,,,,,,,,,,,,,,,,,,,,,,,,,,,,,,,,,,,,,,,,,,,,,,,,,,,
,,,,,,5dac180a79d2ea00160034a3,62c53a429c287cc7faf3dbd5,2022-07-06_09h32.06.598,Colour_Asymmetry_Pilot,2022.1.3,Win32,60.27000964,62c50e9c1127f2cd403a315f,,,,,,,,,,,,,,,,,,,,threefour,,1,1.13,,,,,,,,,,,,,,,,,,,,,,,,,,,,,,,,,,"[0.23920000000000008,0.2704,0.16060000000000008]","[0.40379999999999994,0.09000000000000008,0.44300000000000006]",62,-82,1,0,0,response3disk,5,7,1,0,0,rectangle,112,-43,1,0,0,2,2,2.6864,1,-14,-1,1,0,0,0,16,16,36,1,36,first,response3disk_3,rectangle,,,,,,,,,,,,,,,,,,,,,,,,,,,,,,,,,,,,,,,,,,,,,,,,,,,,,,,,,,,,,,,,,,,,,,
,,,,,,5dac180a79d2ea00160034a3,62c53a429c287cc7faf3dbd5,2022-07-06_09h32.06.598,Colour_Asymmetry_Pilot,2022.1.3,Win32,60.27000964,62c50e9c1127f2cd403a315f,,,,,,,,,,,,,,,,,,,,fourthree,,-3,1.6665,,,,,,,,,,,,,,,,,,,,,,,,,,,,,,,,,,"[0.5528,0.7409999999999999,-0.71]","[0.7176,-0.906,-0.6864]",-81,34,1,0,0,response7disk,25,-2,1,0,0,rectangle,25,-2,1,0,0,2,2,0.0006,0,25,-2,1,0,0,0,17,17,51,1,51,first,,,,,,,,,,,,,,,,,,,,,,,,,,,,,,,,,,,,,,,,,,,,,,,,,,,,,,,,,,,,,,,,,,,,,,,,
