trials.thisRepN,trials.thisTrialN,trials.thisN,trials.thisIndex,trials.ran,Colourcodes,participant,session,date,expName,psychopyVersion,OS,frameRate,study_id,trials_4.thisRepN,trials_4.thisTrialN,trials_4.thisN,trials_4.thisIndex,trials_4.ran,StimulusPos,key_resp.keys,key_resp.rt,key_resp_2.keys,key_resp_2.rt,key_resp_15.keys,key_resp_15.rt,key_resp_17.keys,key_resp_17.rt,key_resp_9.keys,key_resp_9.rt,key_resp_10.keys,key_resp_10.rt,Circle1_col,Ecc,Circle2_col,similarity,response_time,mouse_5.x,mouse_5.y,mouse_5.leftButton,mouse_5.midButton,mouse_5.rightButton,mouse_5.clicked_name,mouse_10.x,mouse_10.y,mouse_10.leftButton,mouse_10.midButton,mouse_10.rightButton,mouse_10.clicked_name,mouse_7.x,mouse_7.y,mouse_7.leftButton,mouse_7.midButton,mouse_7.rightButton,catchnumberprac,mouse_6.x,mouse_6.y,mouse_6.leftButton,mouse_6.midButton,mouse_6.rightButton,duringprac.thisRepN,duringprac.thisTrialN,duringprac.thisN,duringprac.thisIndex,duringprac.ran,mouse_7.clicked_name,catchprac,mouse_6.clicked_name,key_resp_22.keys,key_resp_22.rt,Circle1_colour,Circle2_colour,mouse.x,mouse.y,mouse.leftButton,mouse.midButton,mouse.rightButton,mouse.clicked_name,mouse_2.x,mouse_2.y,mouse_2.leftButton,mouse_2.midButton,mouse_2.rightButton,mouse_2.clicked_name,mouse_3.x,mouse_3.y,mouse_3.leftButton,mouse_3.midButton,mouse_3.rightButton,catchresponse,catchnumber,response_time_catch,Catch,mouse_11.x,mouse_11.y,mouse_11.leftButton,mouse_11.midButton,mouse_11.rightButton,trials_2.thisRepN,trials_2.thisTrialN,trials_2.thisN,trials_2.thisIndex,trials_2.ran,Colourpair,Temporder,mouse_3.clicked_name,mouse_11.clicked_name,trials_3.thisRepN,trials_3.thisTrialN,trials_3.thisN,trials_3.thisIndex,trials_3.ran,key_resp_instr_Ishi.keys,key_resp_instr_Ishi.rt,Ishi_trial_keyresp.keys,Ishi_textbox.text,Ishi_mouse.x,Ishi_mouse.y,Ishi_mouse.leftButton,Ishi_mouse.midButton,Ishi_mouse.rightButton,Ishi_mouse.clicked_name,Ishi_loop.thisRepN,Ishi_loop.thisTrialN,Ishi_loop.thisN,Ishi_loop.thisIndex,Ishi_loop.ran,imageaddress,textbox.text,mouse_4.x,mouse_4.y,mouse_4.leftButton,mouse_4.midButton,mouse_4.rightButton,mouse_4.clicked_name,textbox_2.text,mouse_8.x,mouse_8.y,mouse_8.leftButton,mouse_8.midButton,mouse_8.rightButton,mouse_8.clicked_name,textbox_3.text,mouse_9.x,mouse_9.y,mouse_9.leftButton,mouse_9.midButton,mouse_9.rightButton,mouse_9.clicked_name,textbox_4.text,mouse_12.x,mouse_12.y,mouse_12.leftButton,mouse_12.midButton,mouse_12.rightButton,mouse_12.clicked_name,textbox_5.text,mouse_13.x,mouse_13.y,mouse_13.leftButton,mouse_13.midButton,mouse_13.rightButton,mouse_13.clicked_name,textbox_6.text,mouse_14.x,mouse_14.y,mouse_14.leftButton,mouse_14.midButton,mouse_14.rightButton,mouse_14.clicked_name,textbox_7.text,mouse_15.x,mouse_15.y,mouse_15.leftButton,mouse_15.midButton,mouse_15.rightButton,mouse_15.clicked_name
0,0,0,83,1,,60f680ce31ba0cae7ac7d716,62c538decc76923a56d01ccb,2022-07-06_09h27.30.324,Colour_Asymmetry_Pilot,2022.1.3,Win32,59.55926147,62c50e9c1127f2cd403a315f,,,,,,,,,,,,,,,,,,,,,,,,,,,,,,,,,,,,,,,,,,,,,,,,,,,,,,,,,,,,,,,,,,,,,,,,,,,,,,,,,,,,,,,,,,,,,,,,,,,,,,,,,,,,,,,,,,,,,,,,,,,,,,,,,,,,,,,,,,,,,,,,,,,,,,,,,,,,,,,,,,,
0,1,1,75,1,,60f680ce31ba0cae7ac7d716,62c538decc76923a56d01ccb,2022-07-06_09h27.30.324,Colour_Asymmetry_Pilot,2022.1.3,Win32,59.55926147,62c50e9c1127f2cd403a315f,,,,,,,,,,,,,,,,,,,,,,,,,,,,,,,,,,,,,,,,,,,,,,,,,,,,,,,,,,,,,,,,,,,,,,,,,,,,,,,,,,,,,,,,,,,,,,,,,,,,,,,,,,,,,,,,,,,,,,,,,,,,,,,,,,,,,,,,,,,,,,,,,,,,,,,,,,,,,,,,,,,
0,2,2,35,1,,60f680ce31ba0cae7ac7d716,62c538decc76923a56d01ccb,2022-07-06_09h27.30.324,Colour_Asymmetry_Pilot,2022.1.3,Win32,59.55926147,62c50e9c1127f2cd403a315f,,,,,,,,,,,,,,,,,,,,,,,,,,,,,,,,,,,,,,,,,,,,,,,,,,,,,,,,,,,,,,,,,,,,,,,,,,,,,,,,,,,,,,,,,,,,,,,,,,,,,,,,,,,,,,,,,,,,,,,,,,,,,,,,,,,,,,,,,,,,,,,,,,,,,,,,,,,,,,,,,,,
0,3,3,27,1,,60f680ce31ba0cae7ac7d716,62c538decc76923a56d01ccb,2022-07-06_09h27.30.324,Colour_Asymmetry_Pilot,2022.1.3,Win32,59.55926147,62c50e9c1127f2cd403a315f,,,,,,,,,,,,,,,,,,,,,,,,,,,,,,,,,,,,,,,,,,,,,,,,,,,,,,,,,,,,,,,,,,,,,,,,,,,,,,,,,,,,,,,,,,,,,,,,,,,,,,,,,,,,,,,,,,,,,,,,,,,,,,,,,,,,,,,,,,,,,,,,,,,,,,,,,,,,,,,,,,,
0,4,4,87,1,,60f680ce31ba0cae7ac7d716,62c538decc76923a56d01ccb,2022-07-06_09h27.30.324,Colour_Asymmetry_Pilot,2022.1.3,Win32,59.55926147,62c50e9c1127f2cd403a315f,,,,,,,,,,,,,,,,,,,,,,,,,,,,,,,,,,,,,,,,,,,,,,,,,,,,,,,,,,,,,,,,,,,,,,,,,,,,,,,,,,,,,,,,,,,,,,,,,,,,,,,,,,,,,,,,,,,,,,,,,,,,,,,,,,,,,,,,,,,,,,,,,,,,,,,,,,,,,,,,,,,
0,5,5,32,1,,60f680ce31ba0cae7ac7d716,62c538decc76923a56d01ccb,2022-07-06_09h27.30.324,Colour_Asymmetry_Pilot,2022.1.3,Win32,59.55926147,62c50e9c1127f2cd403a315f,,,,,,,,,,,,,,,,,,,,,,,,,,,,,,,,,,,,,,,,,,,,,,,,,,,,,,,,,,,,,,,,,,,,,,,,,,,,,,,,,,,,,,,,,,,,,,,,,,,,,,,,,,,,,,,,,,,,,,,,,,,,,,,,,,,,,,,,,,,,,,,,,,,,,,,,,,,,,,,,,,,
0,6,6,76,1,,60f680ce31ba0cae7ac7d716,62c538decc76923a56d01ccb,2022-07-06_09h27.30.324,Colour_Asymmetry_Pilot,2022.1.3,Win32,59.55926147,62c50e9c1127f2cd403a315f,,,,,,,,,,,,,,,,,,,,,,,,,,,,,,,,,,,,,,,,,,,,,,,,,,,,,,,,,,,,,,,,,,,,,,,,,,,,,,,,,,,,,,,,,,,,,,,,,,,,,,,,,,,,,,,,,,,,,,,,,,,,,,,,,,,,,,,,,,,,,,,,,,,,,,,,,,,,,,,,,,,
0,7,7,79,1,,60f680ce31ba0cae7ac7d716,62c538decc76923a56d01ccb,2022-07-06_09h27.30.324,Colour_Asymmetry_Pilot,2022.1.3,Win32,59.55926147,62c50e9c1127f2cd403a315f,,,,,,,,,,,,,,,,,,,,,,,,,,,,,,,,,,,,,,,,,,,,,,,,,,,,,,,,,,,,,,,,,,,,,,,,,,,,,,,,,,,,,,,,,,,,,,,,,,,,,,,,,,,,,,,,,,,,,,,,,,,,,,,,,,,,,,,,,,,,,,,,,,,,,,,,,,,,,,,,,,,
0,8,8,78,1,,60f680ce31ba0cae7ac7d716,62c538decc76923a56d01ccb,2022-07-06_09h27.30.324,Colour_Asymmetry_Pilot,2022.1.3,Win32,59.55926147,62c50e9c1127f2cd403a315f,,,,,,,,,,,,,,,,,,,,,,,,,,,,,,,,,,,,,,,,,,,,,,,,,,,,,,,,,,,,,,,,,,,,,,,,,,,,,,,,,,,,,,,,,,,,,,,,,,,,,,,,,,,,,,,,,,,,,,,,,,,,,,,,,,,,,,,,,,,,,,,,,,,,,,,,,,,,,,,,,,,
0,9,9,53,1,,60f680ce31ba0cae7ac7d716,62c538decc76923a56d01ccb,2022-07-06_09h27.30.324,Colour_Asymmetry_Pilot,2022.1.3,Win32,59.55926147,62c50e9c1127f2cd403a315f,,,,,,,,,,,,,,,,,,,,,,,,,,,,,,,,,,,,,,,,,,,,,,,,,,,,,,,,,,,,,,,,,,,,,,,,,,,,,,,,,,,,,,,,,,,,,,,,,,,,,,,,,,,,,,,,,,,,,,,,,,,,,,,,,,,,,,,,,,,,,,,,,,,,,,,,,,,,,,,,,,,
0,10,10,34,1,,60f680ce31ba0cae7ac7d716,62c538decc76923a56d01ccb,2022-07-06_09h27.30.324,Colour_Asymmetry_Pilot,2022.1.3,Win32,59.55926147,62c50e9c1127f2cd403a315f,,,,,,,,,,,,,,,,,,,,,,,,,,,,,,,,,,,,,,,,,,,,,,,,,,,,,,,,,,,,,,,,,,,,,,,,,,,,,,,,,,,,,,,,,,,,,,,,,,,,,,,,,,,,,,,,,,,,,,,,,,,,,,,,,,,,,,,,,,,,,,,,,,,,,,,,,,,,,,,,,,,
0,11,11,70,1,,60f680ce31ba0cae7ac7d716,62c538decc76923a56d01ccb,2022-07-06_09h27.30.324,Colour_Asymmetry_Pilot,2022.1.3,Win32,59.55926147,62c50e9c1127f2cd403a315f,,,,,,,,,,,,,,,,,,,,,,,,,,,,,,,,,,,,,,,,,,,,,,,,,,,,,,,,,,,,,,,,,,,,,,,,,,,,,,,,,,,,,,,,,,,,,,,,,,,,,,,,,,,,,,,,,,,,,,,,,,,,,,,,,,,,,,,,,,,,,,,,,,,,,,,,,,,,,,,,,,,
0,12,12,10,1,,60f680ce31ba0cae7ac7d716,62c538decc76923a56d01ccb,2022-07-06_09h27.30.324,Colour_Asymmetry_Pilot,2022.1.3,Win32,59.55926147,62c50e9c1127f2cd403a315f,,,,,,,,,,,,,,,,,,,,,,,,,,,,,,,,,,,,,,,,,,,,,,,,,,,,,,,,,,,,,,,,,,,,,,,,,,,,,,,,,,,,,,,,,,,,,,,,,,,,,,,,,,,,,,,,,,,,,,,,,,,,,,,,,,,,,,,,,,,,,,,,,,,,,,,,,,,,,,,,,,,
0,13,13,5,1,,60f680ce31ba0cae7ac7d716,62c538decc76923a56d01ccb,2022-07-06_09h27.30.324,Colour_Asymmetry_Pilot,2022.1.3,Win32,59.55926147,62c50e9c1127f2cd403a315f,,,,,,,,,,,,,,,,,,,,,,,,,,,,,,,,,,,,,,,,,,,,,,,,,,,,,,,,,,,,,,,,,,,,,,,,,,,,,,,,,,,,,,,,,,,,,,,,,,,,,,,,,,,,,,,,,,,,,,,,,,,,,,,,,,,,,,,,,,,,,,,,,,,,,,,,,,,,,,,,,,,
0,14,14,59,1,,60f680ce31ba0cae7ac7d716,62c538decc76923a56d01ccb,2022-07-06_09h27.30.324,Colour_Asymmetry_Pilot,2022.1.3,Win32,59.55926147,62c50e9c1127f2cd403a315f,,,,,,,,,,,,,,,,,,,,,,,,,,,,,,,,,,,,,,,,,,,,,,,,,,,,,,,,,,,,,,,,,,,,,,,,,,,,,,,,,,,,,,,,,,,,,,,,,,,,,,,,,,,,,,,,,,,,,,,,,,,,,,,,,,,,,,,,,,,,,,,,,,,,,,,,,,,,,,,,,,,
0,15,15,12,1,,60f680ce31ba0cae7ac7d716,62c538decc76923a56d01ccb,2022-07-06_09h27.30.324,Colour_Asymmetry_Pilot,2022.1.3,Win32,59.55926147,62c50e9c1127f2cd403a315f,,,,,,,,,,,,,,,,,,,,,,,,,,,,,,,,,,,,,,,,,,,,,,,,,,,,,,,,,,,,,,,,,,,,,,,,,,,,,,,,,,,,,,,,,,,,,,,,,,,,,,,,,,,,,,,,,,,,,,,,,,,,,,,,,,,,,,,,,,,,,,,,,,,,,,,,,,,,,,,,,,,
0,16,16,54,1,,60f680ce31ba0cae7ac7d716,62c538decc76923a56d01ccb,2022-07-06_09h27.30.324,Colour_Asymmetry_Pilot,2022.1.3,Win32,59.55926147,62c50e9c1127f2cd403a315f,,,,,,,,,,,,,,,,,,,,,,,,,,,,,,,,,,,,,,,,,,,,,,,,,,,,,,,,,,,,,,,,,,,,,,,,,,,,,,,,,,,,,,,,,,,,,,,,,,,,,,,,,,,,,,,,,,,,,,,,,,,,,,,,,,,,,,,,,,,,,,,,,,,,,,,,,,,,,,,,,,,
0,17,17,77,1,,60f680ce31ba0cae7ac7d716,62c538decc76923a56d01ccb,2022-07-06_09h27.30.324,Colour_Asymmetry_Pilot,2022.1.3,Win32,59.55926147,62c50e9c1127f2cd403a315f,,,,,,,,,,,,,,,,,,,,,,,,,,,,,,,,,,,,,,,,,,,,,,,,,,,,,,,,,,,,,,,,,,,,,,,,,,,,,,,,,,,,,,,,,,,,,,,,,,,,,,,,,,,,,,,,,,,,,,,,,,,,,,,,,,,,,,,,,,,,,,,,,,,,,,,,,,,,,,,,,,,
0,18,18,20,1,,60f680ce31ba0cae7ac7d716,62c538decc76923a56d01ccb,2022-07-06_09h27.30.324,Colour_Asymmetry_Pilot,2022.1.3,Win32,59.55926147,62c50e9c1127f2cd403a315f,,,,,,,,,,,,,,,,,,,,,,,,,,,,,,,,,,,,,,,,,,,,,,,,,,,,,,,,,,,,,,,,,,,,,,,,,,,,,,,,,,,,,,,,,,,,,,,,,,,,,,,,,,,,,,,,,,,,,,,,,,,,,,,,,,,,,,,,,,,,,,,,,,,,,,,,,,,,,,,,,,,
0,19,19,90,1,,60f680ce31ba0cae7ac7d716,62c538decc76923a56d01ccb,2022-07-06_09h27.30.324,Colour_Asymmetry_Pilot,2022.1.3,Win32,59.55926147,62c50e9c1127f2cd403a315f,,,,,,,,,,,,,,,,,,,,,,,,,,,,,,,,,,,,,,,,,,,,,,,,,,,,,,,,,,,,,,,,,,,,,,,,,,,,,,,,,,,,,,,,,,,,,,,,,,,,,,,,,,,,,,,,,,,,,,,,,,,,,,,,,,,,,,,,,,,,,,,,,,,,,,,,,,,,,,,,,,,
0,20,20,48,1,,60f680ce31ba0cae7ac7d716,62c538decc76923a56d01ccb,2022-07-06_09h27.30.324,Colour_Asymmetry_Pilot,2022.1.3,Win32,59.55926147,62c50e9c1127f2cd403a315f,,,,,,,,,,,,,,,,,,,,,,,,,,,,,,,,,,,,,,,,,,,,,,,,,,,,,,,,,,,,,,,,,,,,,,,,,,,,,,,,,,,,,,,,,,,,,,,,,,,,,,,,,,,,,,,,,,,,,,,,,,,,,,,,,,,,,,,,,,,,,,,,,,,,,,,,,,,,,,,,,,,
0,21,21,81,1,,60f680ce31ba0cae7ac7d716,62c538decc76923a56d01ccb,2022-07-06_09h27.30.324,Colour_Asymmetry_Pilot,2022.1.3,Win32,59.55926147,62c50e9c1127f2cd403a315f,,,,,,,,,,,,,,,,,,,,,,,,,,,,,,,,,,,,,,,,,,,,,,,,,,,,,,,,,,,,,,,,,,,,,,,,,,,,,,,,,,,,,,,,,,,,,,,,,,,,,,,,,,,,,,,,,,,,,,,,,,,,,,,,,,,,,,,,,,,,,,,,,,,,,,,,,,,,,,,,,,,
0,22,22,24,1,,60f680ce31ba0cae7ac7d716,62c538decc76923a56d01ccb,2022-07-06_09h27.30.324,Colour_Asymmetry_Pilot,2022.1.3,Win32,59.55926147,62c50e9c1127f2cd403a315f,,,,,,,,,,,,,,,,,,,,,,,,,,,,,,,,,,,,,,,,,,,,,,,,,,,,,,,,,,,,,,,,,,,,,,,,,,,,,,,,,,,,,,,,,,,,,,,,,,,,,,,,,,,,,,,,,,,,,,,,,,,,,,,,,,,,,,,,,,,,,,,,,,,,,,,,,,,,,,,,,,,
0,23,23,46,1,,60f680ce31ba0cae7ac7d716,62c538decc76923a56d01ccb,2022-07-06_09h27.30.324,Colour_Asymmetry_Pilot,2022.1.3,Win32,59.55926147,62c50e9c1127f2cd403a315f,,,,,,,,,,,,,,,,,,,,,,,,,,,,,,,,,,,,,,,,,,,,,,,,,,,,,,,,,,,,,,,,,,,,,,,,,,,,,,,,,,,,,,,,,,,,,,,,,,,,,,,,,,,,,,,,,,,,,,,,,,,,,,,,,,,,,,,,,,,,,,,,,,,,,,,,,,,,,,,,,,,
0,24,24,82,1,,60f680ce31ba0cae7ac7d716,62c538decc76923a56d01ccb,2022-07-06_09h27.30.324,Colour_Asymmetry_Pilot,2022.1.3,Win32,59.55926147,62c50e9c1127f2cd403a315f,,,,,,,,,,,,,,,,,,,,,,,,,,,,,,,,,,,,,,,,,,,,,,,,,,,,,,,,,,,,,,,,,,,,,,,,,,,,,,,,,,,,,,,,,,,,,,,,,,,,,,,,,,,,,,,,,,,,,,,,,,,,,,,,,,,,,,,,,,,,,,,,,,,,,,,,,,,,,,,,,,,
0,25,25,41,1,,60f680ce31ba0cae7ac7d716,62c538decc76923a56d01ccb,2022-07-06_09h27.30.324,Colour_Asymmetry_Pilot,2022.1.3,Win32,59.55926147,62c50e9c1127f2cd403a315f,,,,,,,,,,,,,,,,,,,,,,,,,,,,,,,,,,,,,,,,,,,,,,,,,,,,,,,,,,,,,,,,,,,,,,,,,,,,,,,,,,,,,,,,,,,,,,,,,,,,,,,,,,,,,,,,,,,,,,,,,,,,,,,,,,,,,,,,,,,,,,,,,,,,,,,,,,,,,,,,,,,
0,26,26,31,1,,60f680ce31ba0cae7ac7d716,62c538decc76923a56d01ccb,2022-07-06_09h27.30.324,Colour_Asymmetry_Pilot,2022.1.3,Win32,59.55926147,62c50e9c1127f2cd403a315f,,,,,,,,,,,,,,,,,,,,,,,,,,,,,,,,,,,,,,,,,,,,,,,,,,,,,,,,,,,,,,,,,,,,,,,,,,,,,,,,,,,,,,,,,,,,,,,,,,,,,,,,,,,,,,,,,,,,,,,,,,,,,,,,,,,,,,,,,,,,,,,,,,,,,,,,,,,,,,,,,,,
0,27,27,14,1,,60f680ce31ba0cae7ac7d716,62c538decc76923a56d01ccb,2022-07-06_09h27.30.324,Colour_Asymmetry_Pilot,2022.1.3,Win32,59.55926147,62c50e9c1127f2cd403a315f,,,,,,,,,,,,,,,,,,,,,,,,,,,,,,,,,,,,,,,,,,,,,,,,,,,,,,,,,,,,,,,,,,,,,,,,,,,,,,,,,,,,,,,,,,,,,,,,,,,,,,,,,,,,,,,,,,,,,,,,,,,,,,,,,,,,,,,,,,,,,,,,,,,,,,,,,,,,,,,,,,,
0,28,28,17,1,,60f680ce31ba0cae7ac7d716,62c538decc76923a56d01ccb,2022-07-06_09h27.30.324,Colour_Asymmetry_Pilot,2022.1.3,Win32,59.55926147,62c50e9c1127f2cd403a315f,,,,,,,,,,,,,,,,,,,,,,,,,,,,,,,,,,,,,,,,,,,,,,,,,,,,,,,,,,,,,,,,,,,,,,,,,,,,,,,,,,,,,,,,,,,,,,,,,,,,,,,,,,,,,,,,,,,,,,,,,,,,,,,,,,,,,,,,,,,,,,,,,,,,,,,,,,,,,,,,,,,
0,29,29,65,1,,60f680ce31ba0cae7ac7d716,62c538decc76923a56d01ccb,2022-07-06_09h27.30.324,Colour_Asymmetry_Pilot,2022.1.3,Win32,59.55926147,62c50e9c1127f2cd403a315f,,,,,,,,,,,,,,,,,,,,,,,,,,,,,,,,,,,,,,,,,,,,,,,,,,,,,,,,,,,,,,,,,,,,,,,,,,,,,,,,,,,,,,,,,,,,,,,,,,,,,,,,,,,,,,,,,,,,,,,,,,,,,,,,,,,,,,,,,,,,,,,,,,,,,,,,,,,,,,,,,,,
0,30,30,33,1,,60f680ce31ba0cae7ac7d716,62c538decc76923a56d01ccb,2022-07-06_09h27.30.324,Colour_Asymmetry_Pilot,2022.1.3,Win32,59.55926147,62c50e9c1127f2cd403a315f,,,,,,,,,,,,,,,,,,,,,,,,,,,,,,,,,,,,,,,,,,,,,,,,,,,,,,,,,,,,,,,,,,,,,,,,,,,,,,,,,,,,,,,,,,,,,,,,,,,,,,,,,,,,,,,,,,,,,,,,,,,,,,,,,,,,,,,,,,,,,,,,,,,,,,,,,,,,,,,,,,,
0,31,31,38,1,,60f680ce31ba0cae7ac7d716,62c538decc76923a56d01ccb,2022-07-06_09h27.30.324,Colour_Asymmetry_Pilot,2022.1.3,Win32,59.55926147,62c50e9c1127f2cd403a315f,,,,,,,,,,,,,,,,,,,,,,,,,,,,,,,,,,,,,,,,,,,,,,,,,,,,,,,,,,,,,,,,,,,,,,,,,,,,,,,,,,,,,,,,,,,,,,,,,,,,,,,,,,,,,,,,,,,,,,,,,,,,,,,,,,,,,,,,,,,,,,,,,,,,,,,,,,,,,,,,,,,
0,32,32,36,1,,60f680ce31ba0cae7ac7d716,62c538decc76923a56d01ccb,2022-07-06_09h27.30.324,Colour_Asymmetry_Pilot,2022.1.3,Win32,59.55926147,62c50e9c1127f2cd403a315f,,,,,,,,,,,,,,,,,,,,,,,,,,,,,,,,,,,,,,,,,,,,,,,,,,,,,,,,,,,,,,,,,,,,,,,,,,,,,,,,,,,,,,,,,,,,,,,,,,,,,,,,,,,,,,,,,,,,,,,,,,,,,,,,,,,,,,,,,,,,,,,,,,,,,,,,,,,,,,,,,,,
0,33,33,85,1,,60f680ce31ba0cae7ac7d716,62c538decc76923a56d01ccb,2022-07-06_09h27.30.324,Colour_Asymmetry_Pilot,2022.1.3,Win32,59.55926147,62c50e9c1127f2cd403a315f,,,,,,,,,,,,,,,,,,,,,,,,,,,,,,,,,,,,,,,,,,,,,,,,,,,,,,,,,,,,,,,,,,,,,,,,,,,,,,,,,,,,,,,,,,,,,,,,,,,,,,,,,,,,,,,,,,,,,,,,,,,,,,,,,,,,,,,,,,,,,,,,,,,,,,,,,,,,,,,,,,,
0,34,34,29,1,,60f680ce31ba0cae7ac7d716,62c538decc76923a56d01ccb,2022-07-06_09h27.30.324,Colour_Asymmetry_Pilot,2022.1.3,Win32,59.55926147,62c50e9c1127f2cd403a315f,,,,,,,,,,,,,,,,,,,,,,,,,,,,,,,,,,,,,,,,,,,,,,,,,,,,,,,,,,,,,,,,,,,,,,,,,,,,,,,,,,,,,,,,,,,,,,,,,,,,,,,,,,,,,,,,,,,,,,,,,,,,,,,,,,,,,,,,,,,,,,,,,,,,,,,,,,,,,,,,,,,
0,35,35,80,1,,60f680ce31ba0cae7ac7d716,62c538decc76923a56d01ccb,2022-07-06_09h27.30.324,Colour_Asymmetry_Pilot,2022.1.3,Win32,59.55926147,62c50e9c1127f2cd403a315f,,,,,,,,,,,,,,,,,,,,,,,,,,,,,,,,,,,,,,,,,,,,,,,,,,,,,,,,,,,,,,,,,,,,,,,,,,,,,,,,,,,,,,,,,,,,,,,,,,,,,,,,,,,,,,,,,,,,,,,,,,,,,,,,,,,,,,,,,,,,,,,,,,,,,,,,,,,,,,,,,,,
0,36,36,28,1,,60f680ce31ba0cae7ac7d716,62c538decc76923a56d01ccb,2022-07-06_09h27.30.324,Colour_Asymmetry_Pilot,2022.1.3,Win32,59.55926147,62c50e9c1127f2cd403a315f,,,,,,,,,,,,,,,,,,,,,,,,,,,,,,,,,,,,,,,,,,,,,,,,,,,,,,,,,,,,,,,,,,,,,,,,,,,,,,,,,,,,,,,,,,,,,,,,,,,,,,,,,,,,,,,,,,,,,,,,,,,,,,,,,,,,,,,,,,,,,,,,,,,,,,,,,,,,,,,,,,,
0,37,37,88,1,,60f680ce31ba0cae7ac7d716,62c538decc76923a56d01ccb,2022-07-06_09h27.30.324,Colour_Asymmetry_Pilot,2022.1.3,Win32,59.55926147,62c50e9c1127f2cd403a315f,,,,,,,,,,,,,,,,,,,,,,,,,,,,,,,,,,,,,,,,,,,,,,,,,,,,,,,,,,,,,,,,,,,,,,,,,,,,,,,,,,,,,,,,,,,,,,,,,,,,,,,,,,,,,,,,,,,,,,,,,,,,,,,,,,,,,,,,,,,,,,,,,,,,,,,,,,,,,,,,,,,
0,38,38,71,1,,60f680ce31ba0cae7ac7d716,62c538decc76923a56d01ccb,2022-07-06_09h27.30.324,Colour_Asymmetry_Pilot,2022.1.3,Win32,59.55926147,62c50e9c1127f2cd403a315f,,,,,,,,,,,,,,,,,,,,,,,,,,,,,,,,,,,,,,,,,,,,,,,,,,,,,,,,,,,,,,,,,,,,,,,,,,,,,,,,,,,,,,,,,,,,,,,,,,,,,,,,,,,,,,,,,,,,,,,,,,,,,,,,,,,,,,,,,,,,,,,,,,,,,,,,,,,,,,,,,,,
0,39,39,72,1,,60f680ce31ba0cae7ac7d716,62c538decc76923a56d01ccb,2022-07-06_09h27.30.324,Colour_Asymmetry_Pilot,2022.1.3,Win32,59.55926147,62c50e9c1127f2cd403a315f,,,,,,,,,,,,,,,,,,,,,,,,,,,,,,,,,,,,,,,,,,,,,,,,,,,,,,,,,,,,,,,,,,,,,,,,,,,,,,,,,,,,,,,,,,,,,,,,,,,,,,,,,,,,,,,,,,,,,,,,,,,,,,,,,,,,,,,,,,,,,,,,,,,,,,,,,,,,,,,,,,,
0,40,40,50,1,,60f680ce31ba0cae7ac7d716,62c538decc76923a56d01ccb,2022-07-06_09h27.30.324,Colour_Asymmetry_Pilot,2022.1.3,Win32,59.55926147,62c50e9c1127f2cd403a315f,,,,,,,,,,,,,,,,,,,,,,,,,,,,,,,,,,,,,,,,,,,,,,,,,,,,,,,,,,,,,,,,,,,,,,,,,,,,,,,,,,,,,,,,,,,,,,,,,,,,,,,,,,,,,,,,,,,,,,,,,,,,,,,,,,,,,,,,,,,,,,,,,,,,,,,,,,,,,,,,,,,
0,41,41,84,1,,60f680ce31ba0cae7ac7d716,62c538decc76923a56d01ccb,2022-07-06_09h27.30.324,Colour_Asymmetry_Pilot,2022.1.3,Win32,59.55926147,62c50e9c1127f2cd403a315f,,,,,,,,,,,,,,,,,,,,,,,,,,,,,,,,,,,,,,,,,,,,,,,,,,,,,,,,,,,,,,,,,,,,,,,,,,,,,,,,,,,,,,,,,,,,,,,,,,,,,,,,,,,,,,,,,,,,,,,,,,,,,,,,,,,,,,,,,,,,,,,,,,,,,,,,,,,,,,,,,,,
0,42,42,56,1,,60f680ce31ba0cae7ac7d716,62c538decc76923a56d01ccb,2022-07-06_09h27.30.324,Colour_Asymmetry_Pilot,2022.1.3,Win32,59.55926147,62c50e9c1127f2cd403a315f,,,,,,,,,,,,,,,,,,,,,,,,,,,,,,,,,,,,,,,,,,,,,,,,,,,,,,,,,,,,,,,,,,,,,,,,,,,,,,,,,,,,,,,,,,,,,,,,,,,,,,,,,,,,,,,,,,,,,,,,,,,,,,,,,,,,,,,,,,,,,,,,,,,,,,,,,,,,,,,,,,,
0,43,43,7,1,,60f680ce31ba0cae7ac7d716,62c538decc76923a56d01ccb,2022-07-06_09h27.30.324,Colour_Asymmetry_Pilot,2022.1.3,Win32,59.55926147,62c50e9c1127f2cd403a315f,,,,,,,,,,,,,,,,,,,,,,,,,,,,,,,,,,,,,,,,,,,,,,,,,,,,,,,,,,,,,,,,,,,,,,,,,,,,,,,,,,,,,,,,,,,,,,,,,,,,,,,,,,,,,,,,,,,,,,,,,,,,,,,,,,,,,,,,,,,,,,,,,,,,,,,,,,,,,,,,,,,
0,44,44,22,1,,60f680ce31ba0cae7ac7d716,62c538decc76923a56d01ccb,2022-07-06_09h27.30.324,Colour_Asymmetry_Pilot,2022.1.3,Win32,59.55926147,62c50e9c1127f2cd403a315f,,,,,,,,,,,,,,,,,,,,,,,,,,,,,,,,,,,,,,,,,,,,,,,,,,,,,,,,,,,,,,,,,,,,,,,,,,,,,,,,,,,,,,,,,,,,,,,,,,,,,,,,,,,,,,,,,,,,,,,,,,,,,,,,,,,,,,,,,,,,,,,,,,,,,,,,,,,,,,,,,,,
0,45,45,43,1,,60f680ce31ba0cae7ac7d716,62c538decc76923a56d01ccb,2022-07-06_09h27.30.324,Colour_Asymmetry_Pilot,2022.1.3,Win32,59.55926147,62c50e9c1127f2cd403a315f,,,,,,,,,,,,,,,,,,,,,,,,,,,,,,,,,,,,,,,,,,,,,,,,,,,,,,,,,,,,,,,,,,,,,,,,,,,,,,,,,,,,,,,,,,,,,,,,,,,,,,,,,,,,,,,,,,,,,,,,,,,,,,,,,,,,,,,,,,,,,,,,,,,,,,,,,,,,,,,,,,,
0,46,46,91,1,,60f680ce31ba0cae7ac7d716,62c538decc76923a56d01ccb,2022-07-06_09h27.30.324,Colour_Asymmetry_Pilot,2022.1.3,Win32,59.55926147,62c50e9c1127f2cd403a315f,,,,,,,,,,,,,,,,,,,,,,,,,,,,,,,,,,,,,,,,,,,,,,,,,,,,,,,,,,,,,,,,,,,,,,,,,,,,,,,,,,,,,,,,,,,,,,,,,,,,,,,,,,,,,,,,,,,,,,,,,,,,,,,,,,,,,,,,,,,,,,,,,,,,,,,,,,,,,,,,,,,
0,47,47,0,1,,60f680ce31ba0cae7ac7d716,62c538decc76923a56d01ccb,2022-07-06_09h27.30.324,Colour_Asymmetry_Pilot,2022.1.3,Win32,59.55926147,62c50e9c1127f2cd403a315f,,,,,,,,,,,,,,,,,,,,,,,,,,,,,,,,,,,,,,,,,,,,,,,,,,,,,,,,,,,,,,,,,,,,,,,,,,,,,,,,,,,,,,,,,,,,,,,,,,,,,,,,,,,,,,,,,,,,,,,,,,,,,,,,,,,,,,,,,,,,,,,,,,,,,,,,,,,,,,,,,,,
0,48,48,18,1,,60f680ce31ba0cae7ac7d716,62c538decc76923a56d01ccb,2022-07-06_09h27.30.324,Colour_Asymmetry_Pilot,2022.1.3,Win32,59.55926147,62c50e9c1127f2cd403a315f,,,,,,,,,,,,,,,,,,,,,,,,,,,,,,,,,,,,,,,,,,,,,,,,,,,,,,,,,,,,,,,,,,,,,,,,,,,,,,,,,,,,,,,,,,,,,,,,,,,,,,,,,,,,,,,,,,,,,,,,,,,,,,,,,,,,,,,,,,,,,,,,,,,,,,,,,,,,,,,,,,,
0,49,49,86,1,,60f680ce31ba0cae7ac7d716,62c538decc76923a56d01ccb,2022-07-06_09h27.30.324,Colour_Asymmetry_Pilot,2022.1.3,Win32,59.55926147,62c50e9c1127f2cd403a315f,,,,,,,,,,,,,,,,,,,,,,,,,,,,,,,,,,,,,,,,,,,,,,,,,,,,,,,,,,,,,,,,,,,,,,,,,,,,,,,,,,,,,,,,,,,,,,,,,,,,,,,,,,,,,,,,,,,,,,,,,,,,,,,,,,,,,,,,,,,,,,,,,,,,,,,,,,,,,,,,,,,
0,50,50,21,1,,60f680ce31ba0cae7ac7d716,62c538decc76923a56d01ccb,2022-07-06_09h27.30.324,Colour_Asymmetry_Pilot,2022.1.3,Win32,59.55926147,62c50e9c1127f2cd403a315f,,,,,,,,,,,,,,,,,,,,,,,,,,,,,,,,,,,,,,,,,,,,,,,,,,,,,,,,,,,,,,,,,,,,,,,,,,,,,,,,,,,,,,,,,,,,,,,,,,,,,,,,,,,,,,,,,,,,,,,,,,,,,,,,,,,,,,,,,,,,,,,,,,,,,,,,,,,,,,,,,,,
0,51,51,61,1,,60f680ce31ba0cae7ac7d716,62c538decc76923a56d01ccb,2022-07-06_09h27.30.324,Colour_Asymmetry_Pilot,2022.1.3,Win32,59.55926147,62c50e9c1127f2cd403a315f,,,,,,,,,,,,,,,,,,,,,,,,,,,,,,,,,,,,,,,,,,,,,,,,,,,,,,,,,,,,,,,,,,,,,,,,,,,,,,,,,,,,,,,,,,,,,,,,,,,,,,,,,,,,,,,,,,,,,,,,,,,,,,,,,,,,,,,,,,,,,,,,,,,,,,,,,,,,,,,,,,,
0,52,52,60,1,,60f680ce31ba0cae7ac7d716,62c538decc76923a56d01ccb,2022-07-06_09h27.30.324,Colour_Asymmetry_Pilot,2022.1.3,Win32,59.55926147,62c50e9c1127f2cd403a315f,,,,,,,,,,,,,,,,,,,,,,,,,,,,,,,,,,,,,,,,,,,,,,,,,,,,,,,,,,,,,,,,,,,,,,,,,,,,,,,,,,,,,,,,,,,,,,,,,,,,,,,,,,,,,,,,,,,,,,,,,,,,,,,,,,,,,,,,,,,,,,,,,,,,,,,,,,,,,,,,,,,
0,53,53,4,1,,60f680ce31ba0cae7ac7d716,62c538decc76923a56d01ccb,2022-07-06_09h27.30.324,Colour_Asymmetry_Pilot,2022.1.3,Win32,59.55926147,62c50e9c1127f2cd403a315f,,,,,,,,,,,,,,,,,,,,,,,,,,,,,,,,,,,,,,,,,,,,,,,,,,,,,,,,,,,,,,,,,,,,,,,,,,,,,,,,,,,,,,,,,,,,,,,,,,,,,,,,,,,,,,,,,,,,,,,,,,,,,,,,,,,,,,,,,,,,,,,,,,,,,,,,,,,,,,,,,,,
0,54,54,73,1,,60f680ce31ba0cae7ac7d716,62c538decc76923a56d01ccb,2022-07-06_09h27.30.324,Colour_Asymmetry_Pilot,2022.1.3,Win32,59.55926147,62c50e9c1127f2cd403a315f,,,,,,,,,,,,,,,,,,,,,,,,,,,,,,,,,,,,,,,,,,,,,,,,,,,,,,,,,,,,,,,,,,,,,,,,,,,,,,,,,,,,,,,,,,,,,,,,,,,,,,,,,,,,,,,,,,,,,,,,,,,,,,,,,,,,,,,,,,,,,,,,,,,,,,,,,,,,,,,,,,,
0,55,55,62,1,,60f680ce31ba0cae7ac7d716,62c538decc76923a56d01ccb,2022-07-06_09h27.30.324,Colour_Asymmetry_Pilot,2022.1.3,Win32,59.55926147,62c50e9c1127f2cd403a315f,,,,,,,,,,,,,,,,,,,,,,,,,,,,,,,,,,,,,,,,,,,,,,,,,,,,,,,,,,,,,,,,,,,,,,,,,,,,,,,,,,,,,,,,,,,,,,,,,,,,,,,,,,,,,,,,,,,,,,,,,,,,,,,,,,,,,,,,,,,,,,,,,,,,,,,,,,,,,,,,,,,
0,56,56,25,1,,60f680ce31ba0cae7ac7d716,62c538decc76923a56d01ccb,2022-07-06_09h27.30.324,Colour_Asymmetry_Pilot,2022.1.3,Win32,59.55926147,62c50e9c1127f2cd403a315f,,,,,,,,,,,,,,,,,,,,,,,,,,,,,,,,,,,,,,,,,,,,,,,,,,,,,,,,,,,,,,,,,,,,,,,,,,,,,,,,,,,,,,,,,,,,,,,,,,,,,,,,,,,,,,,,,,,,,,,,,,,,,,,,,,,,,,,,,,,,,,,,,,,,,,,,,,,,,,,,,,,
0,57,57,89,1,,60f680ce31ba0cae7ac7d716,62c538decc76923a56d01ccb,2022-07-06_09h27.30.324,Colour_Asymmetry_Pilot,2022.1.3,Win32,59.55926147,62c50e9c1127f2cd403a315f,,,,,,,,,,,,,,,,,,,,,,,,,,,,,,,,,,,,,,,,,,,,,,,,,,,,,,,,,,,,,,,,,,,,,,,,,,,,,,,,,,,,,,,,,,,,,,,,,,,,,,,,,,,,,,,,,,,,,,,,,,,,,,,,,,,,,,,,,,,,,,,,,,,,,,,,,,,,,,,,,,,
0,58,58,55,1,,60f680ce31ba0cae7ac7d716,62c538decc76923a56d01ccb,2022-07-06_09h27.30.324,Colour_Asymmetry_Pilot,2022.1.3,Win32,59.55926147,62c50e9c1127f2cd403a315f,,,,,,,,,,,,,,,,,,,,,,,,,,,,,,,,,,,,,,,,,,,,,,,,,,,,,,,,,,,,,,,,,,,,,,,,,,,,,,,,,,,,,,,,,,,,,,,,,,,,,,,,,,,,,,,,,,,,,,,,,,,,,,,,,,,,,,,,,,,,,,,,,,,,,,,,,,,,,,,,,,,
0,59,59,66,1,,60f680ce31ba0cae7ac7d716,62c538decc76923a56d01ccb,2022-07-06_09h27.30.324,Colour_Asymmetry_Pilot,2022.1.3,Win32,59.55926147,62c50e9c1127f2cd403a315f,,,,,,,,,,,,,,,,,,,,,,,,,,,,,,,,,,,,,,,,,,,,,,,,,,,,,,,,,,,,,,,,,,,,,,,,,,,,,,,,,,,,,,,,,,,,,,,,,,,,,,,,,,,,,,,,,,,,,,,,,,,,,,,,,,,,,,,,,,,,,,,,,,,,,,,,,,,,,,,,,,,
0,60,60,92,1,,60f680ce31ba0cae7ac7d716,62c538decc76923a56d01ccb,2022-07-06_09h27.30.324,Colour_Asymmetry_Pilot,2022.1.3,Win32,59.55926147,62c50e9c1127f2cd403a315f,,,,,,,,,,,,,,,,,,,,,,,,,,,,,,,,,,,,,,,,,,,,,,,,,,,,,,,,,,,,,,,,,,,,,,,,,,,,,,,,,,,,,,,,,,,,,,,,,,,,,,,,,,,,,,,,,,,,,,,,,,,,,,,,,,,,,,,,,,,,,,,,,,,,,,,,,,,,,,,,,,,
0,61,61,58,1,,60f680ce31ba0cae7ac7d716,62c538decc76923a56d01ccb,2022-07-06_09h27.30.324,Colour_Asymmetry_Pilot,2022.1.3,Win32,59.55926147,62c50e9c1127f2cd403a315f,,,,,,,,,,,,,,,,,,,,,,,,,,,,,,,,,,,,,,,,,,,,,,,,,,,,,,,,,,,,,,,,,,,,,,,,,,,,,,,,,,,,,,,,,,,,,,,,,,,,,,,,,,,,,,,,,,,,,,,,,,,,,,,,,,,,,,,,,,,,,,,,,,,,,,,,,,,,,,,,,,,
0,62,62,23,1,,60f680ce31ba0cae7ac7d716,62c538decc76923a56d01ccb,2022-07-06_09h27.30.324,Colour_Asymmetry_Pilot,2022.1.3,Win32,59.55926147,62c50e9c1127f2cd403a315f,,,,,,,,,,,,,,,,,,,,,,,,,,,,,,,,,,,,,,,,,,,,,,,,,,,,,,,,,,,,,,,,,,,,,,,,,,,,,,,,,,,,,,,,,,,,,,,,,,,,,,,,,,,,,,,,,,,,,,,,,,,,,,,,,,,,,,,,,,,,,,,,,,,,,,,,,,,,,,,,,,,
0,63,63,13,1,,60f680ce31ba0cae7ac7d716,62c538decc76923a56d01ccb,2022-07-06_09h27.30.324,Colour_Asymmetry_Pilot,2022.1.3,Win32,59.55926147,62c50e9c1127f2cd403a315f,,,,,,,,,,,,,,,,,,,,,,,,,,,,,,,,,,,,,,,,,,,,,,,,,,,,,,,,,,,,,,,,,,,,,,,,,,,,,,,,,,,,,,,,,,,,,,,,,,,,,,,,,,,,,,,,,,,,,,,,,,,,,,,,,,,,,,,,,,,,,,,,,,,,,,,,,,,,,,,,,,,
0,64,64,11,1,,60f680ce31ba0cae7ac7d716,62c538decc76923a56d01ccb,2022-07-06_09h27.30.324,Colour_Asymmetry_Pilot,2022.1.3,Win32,59.55926147,62c50e9c1127f2cd403a315f,,,,,,,,,,,,,,,,,,,,,,,,,,,,,,,,,,,,,,,,,,,,,,,,,,,,,,,,,,,,,,,,,,,,,,,,,,,,,,,,,,,,,,,,,,,,,,,,,,,,,,,,,,,,,,,,,,,,,,,,,,,,,,,,,,,,,,,,,,,,,,,,,,,,,,,,,,,,,,,,,,,
0,65,65,63,1,,60f680ce31ba0cae7ac7d716,62c538decc76923a56d01ccb,2022-07-06_09h27.30.324,Colour_Asymmetry_Pilot,2022.1.3,Win32,59.55926147,62c50e9c1127f2cd403a315f,,,,,,,,,,,,,,,,,,,,,,,,,,,,,,,,,,,,,,,,,,,,,,,,,,,,,,,,,,,,,,,,,,,,,,,,,,,,,,,,,,,,,,,,,,,,,,,,,,,,,,,,,,,,,,,,,,,,,,,,,,,,,,,,,,,,,,,,,,,,,,,,,,,,,,,,,,,,,,,,,,,
0,66,66,67,1,,60f680ce31ba0cae7ac7d716,62c538decc76923a56d01ccb,2022-07-06_09h27.30.324,Colour_Asymmetry_Pilot,2022.1.3,Win32,59.55926147,62c50e9c1127f2cd403a315f,,,,,,,,,,,,,,,,,,,,,,,,,,,,,,,,,,,,,,,,,,,,,,,,,,,,,,,,,,,,,,,,,,,,,,,,,,,,,,,,,,,,,,,,,,,,,,,,,,,,,,,,,,,,,,,,,,,,,,,,,,,,,,,,,,,,,,,,,,,,,,,,,,,,,,,,,,,,,,,,,,,
0,67,67,19,1,,60f680ce31ba0cae7ac7d716,62c538decc76923a56d01ccb,2022-07-06_09h27.30.324,Colour_Asymmetry_Pilot,2022.1.3,Win32,59.55926147,62c50e9c1127f2cd403a315f,,,,,,,,,,,,,,,,,,,,,,,,,,,,,,,,,,,,,,,,,,,,,,,,,,,,,,,,,,,,,,,,,,,,,,,,,,,,,,,,,,,,,,,,,,,,,,,,,,,,,,,,,,,,,,,,,,,,,,,,,,,,,,,,,,,,,,,,,,,,,,,,,,,,,,,,,,,,,,,,,,,
0,68,68,42,1,,60f680ce31ba0cae7ac7d716,62c538decc76923a56d01ccb,2022-07-06_09h27.30.324,Colour_Asymmetry_Pilot,2022.1.3,Win32,59.55926147,62c50e9c1127f2cd403a315f,,,,,,,,,,,,,,,,,,,,,,,,,,,,,,,,,,,,,,,,,,,,,,,,,,,,,,,,,,,,,,,,,,,,,,,,,,,,,,,,,,,,,,,,,,,,,,,,,,,,,,,,,,,,,,,,,,,,,,,,,,,,,,,,,,,,,,,,,,,,,,,,,,,,,,,,,,,,,,,,,,,
0,69,69,16,1,,60f680ce31ba0cae7ac7d716,62c538decc76923a56d01ccb,2022-07-06_09h27.30.324,Colour_Asymmetry_Pilot,2022.1.3,Win32,59.55926147,62c50e9c1127f2cd403a315f,,,,,,,,,,,,,,,,,,,,,,,,,,,,,,,,,,,,,,,,,,,,,,,,,,,,,,,,,,,,,,,,,,,,,,,,,,,,,,,,,,,,,,,,,,,,,,,,,,,,,,,,,,,,,,,,,,,,,,,,,,,,,,,,,,,,,,,,,,,,,,,,,,,,,,,,,,,,,,,,,,,
0,70,70,49,1,,60f680ce31ba0cae7ac7d716,62c538decc76923a56d01ccb,2022-07-06_09h27.30.324,Colour_Asymmetry_Pilot,2022.1.3,Win32,59.55926147,62c50e9c1127f2cd403a315f,,,,,,,,,,,,,,,,,,,,,,,,,,,,,,,,,,,,,,,,,,,,,,,,,,,,,,,,,,,,,,,,,,,,,,,,,,,,,,,,,,,,,,,,,,,,,,,,,,,,,,,,,,,,,,,,,,,,,,,,,,,,,,,,,,,,,,,,,,,,,,,,,,,,,,,,,,,,,,,,,,,
0,71,71,44,1,,60f680ce31ba0cae7ac7d716,62c538decc76923a56d01ccb,2022-07-06_09h27.30.324,Colour_Asymmetry_Pilot,2022.1.3,Win32,59.55926147,62c50e9c1127f2cd403a315f,,,,,,,,,,,,,,,,,,,,,,,,,,,,,,,,,,,,,,,,,,,,,,,,,,,,,,,,,,,,,,,,,,,,,,,,,,,,,,,,,,,,,,,,,,,,,,,,,,,,,,,,,,,,,,,,,,,,,,,,,,,,,,,,,,,,,,,,,,,,,,,,,,,,,,,,,,,,,,,,,,,
0,72,72,2,1,,60f680ce31ba0cae7ac7d716,62c538decc76923a56d01ccb,2022-07-06_09h27.30.324,Colour_Asymmetry_Pilot,2022.1.3,Win32,59.55926147,62c50e9c1127f2cd403a315f,,,,,,,,,,,,,,,,,,,,,,,,,,,,,,,,,,,,,,,,,,,,,,,,,,,,,,,,,,,,,,,,,,,,,,,,,,,,,,,,,,,,,,,,,,,,,,,,,,,,,,,,,,,,,,,,,,,,,,,,,,,,,,,,,,,,,,,,,,,,,,,,,,,,,,,,,,,,,,,,,,,
0,73,73,3,1,,60f680ce31ba0cae7ac7d716,62c538decc76923a56d01ccb,2022-07-06_09h27.30.324,Colour_Asymmetry_Pilot,2022.1.3,Win32,59.55926147,62c50e9c1127f2cd403a315f,,,,,,,,,,,,,,,,,,,,,,,,,,,,,,,,,,,,,,,,,,,,,,,,,,,,,,,,,,,,,,,,,,,,,,,,,,,,,,,,,,,,,,,,,,,,,,,,,,,,,,,,,,,,,,,,,,,,,,,,,,,,,,,,,,,,,,,,,,,,,,,,,,,,,,,,,,,,,,,,,,,
0,74,74,47,1,,60f680ce31ba0cae7ac7d716,62c538decc76923a56d01ccb,2022-07-06_09h27.30.324,Colour_Asymmetry_Pilot,2022.1.3,Win32,59.55926147,62c50e9c1127f2cd403a315f,,,,,,,,,,,,,,,,,,,,,,,,,,,,,,,,,,,,,,,,,,,,,,,,,,,,,,,,,,,,,,,,,,,,,,,,,,,,,,,,,,,,,,,,,,,,,,,,,,,,,,,,,,,,,,,,,,,,,,,,,,,,,,,,,,,,,,,,,,,,,,,,,,,,,,,,,,,,,,,,,,,
0,75,75,1,1,,60f680ce31ba0cae7ac7d716,62c538decc76923a56d01ccb,2022-07-06_09h27.30.324,Colour_Asymmetry_Pilot,2022.1.3,Win32,59.55926147,62c50e9c1127f2cd403a315f,,,,,,,,,,,,,,,,,,,,,,,,,,,,,,,,,,,,,,,,,,,,,,,,,,,,,,,,,,,,,,,,,,,,,,,,,,,,,,,,,,,,,,,,,,,,,,,,,,,,,,,,,,,,,,,,,,,,,,,,,,,,,,,,,,,,,,,,,,,,,,,,,,,,,,,,,,,,,,,,,,,
0,76,76,26,1,,60f680ce31ba0cae7ac7d716,62c538decc76923a56d01ccb,2022-07-06_09h27.30.324,Colour_Asymmetry_Pilot,2022.1.3,Win32,59.55926147,62c50e9c1127f2cd403a315f,,,,,,,,,,,,,,,,,,,,,,,,,,,,,,,,,,,,,,,,,,,,,,,,,,,,,,,,,,,,,,,,,,,,,,,,,,,,,,,,,,,,,,,,,,,,,,,,,,,,,,,,,,,,,,,,,,,,,,,,,,,,,,,,,,,,,,,,,,,,,,,,,,,,,,,,,,,,,,,,,,,
0,77,77,30,1,,60f680ce31ba0cae7ac7d716,62c538decc76923a56d01ccb,2022-07-06_09h27.30.324,Colour_Asymmetry_Pilot,2022.1.3,Win32,59.55926147,62c50e9c1127f2cd403a315f,,,,,,,,,,,,,,,,,,,,,,,,,,,,,,,,,,,,,,,,,,,,,,,,,,,,,,,,,,,,,,,,,,,,,,,,,,,,,,,,,,,,,,,,,,,,,,,,,,,,,,,,,,,,,,,,,,,,,,,,,,,,,,,,,,,,,,,,,,,,,,,,,,,,,,,,,,,,,,,,,,,
0,78,78,8,1,,60f680ce31ba0cae7ac7d716,62c538decc76923a56d01ccb,2022-07-06_09h27.30.324,Colour_Asymmetry_Pilot,2022.1.3,Win32,59.55926147,62c50e9c1127f2cd403a315f,,,,,,,,,,,,,,,,,,,,,,,,,,,,,,,,,,,,,,,,,,,,,,,,,,,,,,,,,,,,,,,,,,,,,,,,,,,,,,,,,,,,,,,,,,,,,,,,,,,,,,,,,,,,,,,,,,,,,,,,,,,,,,,,,,,,,,,,,,,,,,,,,,,,,,,,,,,,,,,,,,,
0,79,79,64,1,,60f680ce31ba0cae7ac7d716,62c538decc76923a56d01ccb,2022-07-06_09h27.30.324,Colour_Asymmetry_Pilot,2022.1.3,Win32,59.55926147,62c50e9c1127f2cd403a315f,,,,,,,,,,,,,,,,,,,,,,,,,,,,,,,,,,,,,,,,,,,,,,,,,,,,,,,,,,,,,,,,,,,,,,,,,,,,,,,,,,,,,,,,,,,,,,,,,,,,,,,,,,,,,,,,,,,,,,,,,,,,,,,,,,,,,,,,,,,,,,,,,,,,,,,,,,,,,,,,,,,
0,80,80,39,1,,60f680ce31ba0cae7ac7d716,62c538decc76923a56d01ccb,2022-07-06_09h27.30.324,Colour_Asymmetry_Pilot,2022.1.3,Win32,59.55926147,62c50e9c1127f2cd403a315f,,,,,,,,,,,,,,,,,,,,,,,,,,,,,,,,,,,,,,,,,,,,,,,,,,,,,,,,,,,,,,,,,,,,,,,,,,,,,,,,,,,,,,,,,,,,,,,,,,,,,,,,,,,,,,,,,,,,,,,,,,,,,,,,,,,,,,,,,,,,,,,,,,,,,,,,,,,,,,,,,,,
0,81,81,57,1,,60f680ce31ba0cae7ac7d716,62c538decc76923a56d01ccb,2022-07-06_09h27.30.324,Colour_Asymmetry_Pilot,2022.1.3,Win32,59.55926147,62c50e9c1127f2cd403a315f,,,,,,,,,,,,,,,,,,,,,,,,,,,,,,,,,,,,,,,,,,,,,,,,,,,,,,,,,,,,,,,,,,,,,,,,,,,,,,,,,,,,,,,,,,,,,,,,,,,,,,,,,,,,,,,,,,,,,,,,,,,,,,,,,,,,,,,,,,,,,,,,,,,,,,,,,,,,,,,,,,,
0,82,82,15,1,,60f680ce31ba0cae7ac7d716,62c538decc76923a56d01ccb,2022-07-06_09h27.30.324,Colour_Asymmetry_Pilot,2022.1.3,Win32,59.55926147,62c50e9c1127f2cd403a315f,,,,,,,,,,,,,,,,,,,,,,,,,,,,,,,,,,,,,,,,,,,,,,,,,,,,,,,,,,,,,,,,,,,,,,,,,,,,,,,,,,,,,,,,,,,,,,,,,,,,,,,,,,,,,,,,,,,,,,,,,,,,,,,,,,,,,,,,,,,,,,,,,,,,,,,,,,,,,,,,,,,
0,83,83,52,1,,60f680ce31ba0cae7ac7d716,62c538decc76923a56d01ccb,2022-07-06_09h27.30.324,Colour_Asymmetry_Pilot,2022.1.3,Win32,59.55926147,62c50e9c1127f2cd403a315f,,,,,,,,,,,,,,,,,,,,,,,,,,,,,,,,,,,,,,,,,,,,,,,,,,,,,,,,,,,,,,,,,,,,,,,,,,,,,,,,,,,,,,,,,,,,,,,,,,,,,,,,,,,,,,,,,,,,,,,,,,,,,,,,,,,,,,,,,,,,,,,,,,,,,,,,,,,,,,,,,,,
0,84,84,45,1,,60f680ce31ba0cae7ac7d716,62c538decc76923a56d01ccb,2022-07-06_09h27.30.324,Colour_Asymmetry_Pilot,2022.1.3,Win32,59.55926147,62c50e9c1127f2cd403a315f,,,,,,,,,,,,,,,,,,,,,,,,,,,,,,,,,,,,,,,,,,,,,,,,,,,,,,,,,,,,,,,,,,,,,,,,,,,,,,,,,,,,,,,,,,,,,,,,,,,,,,,,,,,,,,,,,,,,,,,,,,,,,,,,,,,,,,,,,,,,,,,,,,,,,,,,,,,,,,,,,,,
0,85,85,68,1,,60f680ce31ba0cae7ac7d716,62c538decc76923a56d01ccb,2022-07-06_09h27.30.324,Colour_Asymmetry_Pilot,2022.1.3,Win32,59.55926147,62c50e9c1127f2cd403a315f,,,,,,,,,,,,,,,,,,,,,,,,,,,,,,,,,,,,,,,,,,,,,,,,,,,,,,,,,,,,,,,,,,,,,,,,,,,,,,,,,,,,,,,,,,,,,,,,,,,,,,,,,,,,,,,,,,,,,,,,,,,,,,,,,,,,,,,,,,,,,,,,,,,,,,,,,,,,,,,,,,,
0,86,86,40,1,,60f680ce31ba0cae7ac7d716,62c538decc76923a56d01ccb,2022-07-06_09h27.30.324,Colour_Asymmetry_Pilot,2022.1.3,Win32,59.55926147,62c50e9c1127f2cd403a315f,,,,,,,,,,,,,,,,,,,,,,,,,,,,,,,,,,,,,,,,,,,,,,,,,,,,,,,,,,,,,,,,,,,,,,,,,,,,,,,,,,,,,,,,,,,,,,,,,,,,,,,,,,,,,,,,,,,,,,,,,,,,,,,,,,,,,,,,,,,,,,,,,,,,,,,,,,,,,,,,,,,
0,87,87,37,1,,60f680ce31ba0cae7ac7d716,62c538decc76923a56d01ccb,2022-07-06_09h27.30.324,Colour_Asymmetry_Pilot,2022.1.3,Win32,59.55926147,62c50e9c1127f2cd403a315f,,,,,,,,,,,,,,,,,,,,,,,,,,,,,,,,,,,,,,,,,,,,,,,,,,,,,,,,,,,,,,,,,,,,,,,,,,,,,,,,,,,,,,,,,,,,,,,,,,,,,,,,,,,,,,,,,,,,,,,,,,,,,,,,,,,,,,,,,,,,,,,,,,,,,,,,,,,,,,,,,,,
0,88,88,74,1,,60f680ce31ba0cae7ac7d716,62c538decc76923a56d01ccb,2022-07-06_09h27.30.324,Colour_Asymmetry_Pilot,2022.1.3,Win32,59.55926147,62c50e9c1127f2cd403a315f,,,,,,,,,,,,,,,,,,,,,,,,,,,,,,,,,,,,,,,,,,,,,,,,,,,,,,,,,,,,,,,,,,,,,,,,,,,,,,,,,,,,,,,,,,,,,,,,,,,,,,,,,,,,,,,,,,,,,,,,,,,,,,,,,,,,,,,,,,,,,,,,,,,,,,,,,,,,,,,,,,,
0,89,89,6,1,,60f680ce31ba0cae7ac7d716,62c538decc76923a56d01ccb,2022-07-06_09h27.30.324,Colour_Asymmetry_Pilot,2022.1.3,Win32,59.55926147,62c50e9c1127f2cd403a315f,,,,,,,,,,,,,,,,,,,,,,,,,,,,,,,,,,,,,,,,,,,,,,,,,,,,,,,,,,,,,,,,,,,,,,,,,,,,,,,,,,,,,,,,,,,,,,,,,,,,,,,,,,,,,,,,,,,,,,,,,,,,,,,,,,,,,,,,,,,,,,,,,,,,,,,,,,,,,,,,,,,
0,90,90,51,1,,60f680ce31ba0cae7ac7d716,62c538decc76923a56d01ccb,2022-07-06_09h27.30.324,Colour_Asymmetry_Pilot,2022.1.3,Win32,59.55926147,62c50e9c1127f2cd403a315f,,,,,,,,,,,,,,,,,,,,,,,,,,,,,,,,,,,,,,,,,,,,,,,,,,,,,,,,,,,,,,,,,,,,,,,,,,,,,,,,,,,,,,,,,,,,,,,,,,,,,,,,,,,,,,,,,,,,,,,,,,,,,,,,,,,,,,,,,,,,,,,,,,,,,,,,,,,,,,,,,,,
0,91,91,9,1,,60f680ce31ba0cae7ac7d716,62c538decc76923a56d01ccb,2022-07-06_09h27.30.324,Colour_Asymmetry_Pilot,2022.1.3,Win32,59.55926147,62c50e9c1127f2cd403a315f,,,,,,,,,,,,,,,,,,,,,,,,,,,,,,,,,,,,,,,,,,,,,,,,,,,,,,,,,,,,,,,,,,,,,,,,,,,,,,,,,,,,,,,,,,,,,,,,,,,,,,,,,,,,,,,,,,,,,,,,,,,,,,,,,,,,,,,,,,,,,,,,,,,,,,,,,,,,,,,,,,,
0,92,92,69,1,,60f680ce31ba0cae7ac7d716,62c538decc76923a56d01ccb,2022-07-06_09h27.30.324,Colour_Asymmetry_Pilot,2022.1.3,Win32,59.55926147,62c50e9c1127f2cd403a315f,,,,,,,,,,,,,,,,,,,,,,,,,,,,,,,,,,,,,,,,,,,,,,,,,,,,,,,,,,,,,,,,,,,,,,,,,,,,,,,,,,,,,,,,,,,,,,,,,,,,,,,,,,,,,,,,,,,,,,,,,,,,,,,,,,,,,,,,,,,,,,,,,,,,,,,,,,,,,,,,,,,
,,,,,,60f680ce31ba0cae7ac7d716,62c538decc76923a56d01ccb,2022-07-06_09h27.30.324,Colour_Asymmetry_Pilot,2022.1.3,Win32,59.55926147,62c50e9c1127f2cd403a315f,0,0,0,124,1,threeone,,,,,,,,,,,,,,,,,,,,,,,,,,,,,,,,,,,,,,,,,,,,,,,,,,,,,,,,,,,,,,,,,,,,,,,,,,,,,,,,,,,,,,,,,,,,,,,,,,,,,,,,,,,,,,,,,,,,,,,,,,,,,,,,,,,,,,,,,,,,,,,,,,,,,,,,,,,,,
,,,,,,60f680ce31ba0cae7ac7d716,62c538decc76923a56d01ccb,2022-07-06_09h27.30.324,Colour_Asymmetry_Pilot,2022.1.3,Win32,59.55926147,62c50e9c1127f2cd403a315f,0,1,1,29,1,threefour,,,,,,,,,,,,,,,,,,,,,,,,,,,,,,,,,,,,,,,,,,,,,,,,,,,,,,,,,,,,,,,,,,,,,,,,,,,,,,,,,,,,,,,,,,,,,,,,,,,,,,,,,,,,,,,,,,,,,,,,,,,,,,,,,,,,,,,,,,,,,,,,,,,,,,,,,,,,,
,,,,,,60f680ce31ba0cae7ac7d716,62c538decc76923a56d01ccb,2022-07-06_09h27.30.324,Colour_Asymmetry_Pilot,2022.1.3,Win32,59.55926147,62c50e9c1127f2cd403a315f,0,2,2,98,1,twoone,,,,,,,,,,,,,,,,,,,,,,,,,,,,,,,,,,,,,,,,,,,,,,,,,,,,,,,,,,,,,,,,,,,,,,,,,,,,,,,,,,,,,,,,,,,,,,,,,,,,,,,,,,,,,,,,,,,,,,,,,,,,,,,,,,,,,,,,,,,,,,,,,,,,,,,,,,,,,
,,,,,,60f680ce31ba0cae7ac7d716,62c538decc76923a56d01ccb,2022-07-06_09h27.30.324,Colour_Asymmetry_Pilot,2022.1.3,Win32,59.55926147,62c50e9c1127f2cd403a315f,0,3,3,66,1,twoone,,,,,,,,,,,,,,,,,,,,,,,,,,,,,,,,,,,,,,,,,,,,,,,,,,,,,,,,,,,,,,,,,,,,,,,,,,,,,,,,,,,,,,,,,,,,,,,,,,,,,,,,,,,,,,,,,,,,,,,,,,,,,,,,,,,,,,,,,,,,,,,,,,,,,,,,,,,,,
,,,,,,60f680ce31ba0cae7ac7d716,62c538decc76923a56d01ccb,2022-07-06_09h27.30.324,Colour_Asymmetry_Pilot,2022.1.3,Win32,59.55926147,62c50e9c1127f2cd403a315f,0,4,4,85,1,threefour,,,,,,,,,,,,,,,,,,,,,,,,,,,,,,,,,,,,,,,,,,,,,,,,,,,,,,,,,,,,,,,,,,,,,,,,,,,,,,,,,,,,,,,,,,,,,,,,,,,,,,,,,,,,,,,,,,,,,,,,,,,,,,,,,,,,,,,,,,,,,,,,,,,,,,,,,,,,,
,,,,,,60f680ce31ba0cae7ac7d716,62c538decc76923a56d01ccb,2022-07-06_09h27.30.324,Colour_Asymmetry_Pilot,2022.1.3,Win32,59.55926147,62c50e9c1127f2cd403a315f,0,5,5,95,1,fourthree,,,,,,,,,,,,,,,,,,,,,,,,,,,,,,,,,,,,,,,,,,,,,,,,,,,,,,,,,,,,,,,,,,,,,,,,,,,,,,,,,,,,,,,,,,,,,,,,,,,,,,,,,,,,,,,,,,,,,,,,,,,,,,,,,,,,,,,,,,,,,,,,,,,,,,,,,,,,,
,,,,,,60f680ce31ba0cae7ac7d716,62c538decc76923a56d01ccb,2022-07-06_09h27.30.324,Colour_Asymmetry_Pilot,2022.1.3,Win32,59.55926147,62c50e9c1127f2cd403a315f,0,6,6,93,1,threefour,,,,,,,,,,,,,,,,,,,,,,,,,,,,,,,,,,,,,,,,,,,,,,,,,,,,,,,,,,,,,,,,,,,,,,,,,,,,,,,,,,,,,,,,,,,,,,,,,,,,,,,,,,,,,,,,,,,,,,,,,,,,,,,,,,,,,,,,,,,,,,,,,,,,,,,,,,,,,
,,,,,,60f680ce31ba0cae7ac7d716,62c538decc76923a56d01ccb,2022-07-06_09h27.30.324,Colour_Asymmetry_Pilot,2022.1.3,Win32,59.55926147,62c50e9c1127f2cd403a315f,0,7,7,103,1,fourthree,,,,,,,,,,,,,,,,,,,,,,,,,,,,,,,,,,,,,,,,,,,,,,,,,,,,,,,,,,,,,,,,,,,,,,,,,,,,,,,,,,,,,,,,,,,,,,,,,,,,,,,,,,,,,,,,,,,,,,,,,,,,,,,,,,,,,,,,,,,,,,,,,,,,,,,,,,,,,
,,,,,,60f680ce31ba0cae7ac7d716,62c538decc76923a56d01ccb,2022-07-06_09h27.30.324,Colour_Asymmetry_Pilot,2022.1.3,Win32,59.55926147,62c50e9c1127f2cd403a315f,0,8,8,27,1,twofour,,,,,,,,,,,,,,,,,,,,,,,,,,,,,,,,,,,,,,,,,,,,,,,,,,,,,,,,,,,,,,,,,,,,,,,,,,,,,,,,,,,,,,,,,,,,,,,,,,,,,,,,,,,,,,,,,,,,,,,,,,,,,,,,,,,,,,,,,,,,,,,,,,,,,,,,,,,,,
,,,,,,60f680ce31ba0cae7ac7d716,62c538decc76923a56d01ccb,2022-07-06_09h27.30.324,Colour_Asymmetry_Pilot,2022.1.3,Win32,59.55926147,62c50e9c1127f2cd403a315f,0,9,9,54,1,fourtwo,,,,,,,,,,,,,,,,,,,,,,,,,,,,,,,,,,,,,,,,,,,,,,,,,,,,,,,,,,,,,,,,,,,,,,,,,,,,,,,,,,,,,,,,,,,,,,,,,,,,,,,,,,,,,,,,,,,,,,,,,,,,,,,,,,,,,,,,,,,,,,,,,,,,,,,,,,,,,
,,,,,,60f680ce31ba0cae7ac7d716,62c538decc76923a56d01ccb,2022-07-06_09h27.30.324,Colour_Asymmetry_Pilot,2022.1.3,Win32,59.55926147,62c50e9c1127f2cd403a315f,0,10,10,63,1,fourthree,,,,,,,,,,,,,,,,,,,,,,,,,,,,,,,,,,,,,,,,,,,,,,,,,,,,,,,,,,,,,,,,,,,,,,,,,,,,,,,,,,,,,,,,,,,,,,,,,,,,,,,,,,,,,,,,,,,,,,,,,,,,,,,,,,,,,,,,,,,,,,,,,,,,,,,,,,,,,
,,,,,,60f680ce31ba0cae7ac7d716,62c538decc76923a56d01ccb,2022-07-06_09h27.30.324,Colour_Asymmetry_Pilot,2022.1.3,Win32,59.55926147,62c50e9c1127f2cd403a315f,0,11,11,75,1,twofour,,,,,,,,,,,,,,,,,,,,,,,,,,,,,,,,,,,,,,,,,,,,,,,,,,,,,,,,,,,,,,,,,,,,,,,,,,,,,,,,,,,,,,,,,,,,,,,,,,,,,,,,,,,,,,,,,,,,,,,,,,,,,,,,,,,,,,,,,,,,,,,,,,,,,,,,,,,,,
,,,,,,60f680ce31ba0cae7ac7d716,62c538decc76923a56d01ccb,2022-07-06_09h27.30.324,Colour_Asymmetry_Pilot,2022.1.3,Win32,59.55926147,62c50e9c1127f2cd403a315f,0,12,12,119,1,fourthree,,,,,,,,,,,,,,,,,,,,,,,,,,,,,,,,,,,,,,,,,,,,,,,,,,,,,,,,,,,,,,,,,,,,,,,,,,,,,,,,,,,,,,,,,,,,,,,,,,,,,,,,,,,,,,,,,,,,,,,,,,,,,,,,,,,,,,,,,,,,,,,,,,,,,,,,,,,,,
,,,,,,60f680ce31ba0cae7ac7d716,62c538decc76923a56d01ccb,2022-07-06_09h27.30.324,Colour_Asymmetry_Pilot,2022.1.3,Win32,59.55926147,62c50e9c1127f2cd403a315f,0,13,13,141,1,threefour,,,,,,,,,,,,,,,,,,,,,,,,,,,,,,,,,,,,,,,,,,,,,,,,,,,,,,,,,,,,,,,,,,,,,,,,,,,,,,,,,,,,,,,,,,,,,,,,,,,,,,,,,,,,,,,,,,,,,,,,,,,,,,,,,,,,,,,,,,,,,,,,,,,,,,,,,,,,,
,,,,,,60f680ce31ba0cae7ac7d716,62c538decc76923a56d01ccb,2022-07-06_09h27.30.324,Colour_Asymmetry_Pilot,2022.1.3,Win32,59.55926147,62c50e9c1127f2cd403a315f,0,14,14,106,1,twoone,,,,,,,,,,,,,,,,,,,,,,,,,,,,,,,,,,,,,,,,,,,,,,,,,,,,,,,,,,,,,,,,,,,,,,,,,,,,,,,,,,,,,,,,,,,,,,,,,,,,,,,,,,,,,,,,,,,,,,,,,,,,,,,,,,,,,,,,,,,,,,,,,,,,,,,,,,,,,
,,,,,,60f680ce31ba0cae7ac7d716,62c538decc76923a56d01ccb,2022-07-06_09h27.30.324,Colour_Asymmetry_Pilot,2022.1.3,Win32,59.55926147,62c50e9c1127f2cd403a315f,0,15,15,1,1,onethree,,,,,,,,,,,,,,,,,,,,,,,,,,,,,,,,,,,,,,,,,,,,,,,,,,,,,,,,,,,,,,,,,,,,,,,,,,,,,,,,,,,,,,,,,,,,,,,,,,,,,,,,,,,,,,,,,,,,,,,,,,,,,,,,,,,,,,,,,,,,,,,,,,,,,,,,,,,,,
,,,,,,60f680ce31ba0cae7ac7d716,62c538decc76923a56d01ccb,2022-07-06_09h27.30.324,Colour_Asymmetry_Pilot,2022.1.3,Win32,59.55926147,62c50e9c1127f2cd403a315f,0,16,16,90,1,twoone,,,,,,,,,,,,,,,,,,,,,,,,,,,,,,,,,,,,,,,,,,,,,,,,,,,,,,,,,,,,,,,,,,,,,,,,,,,,,,,,,,,,,,,,,,,,,,,,,,,,,,,,,,,,,,,,,,,,,,,,,,,,,,,,,,,,,,,,,,,,,,,,,,,,,,,,,,,,,
,,,,,,60f680ce31ba0cae7ac7d716,62c538decc76923a56d01ccb,2022-07-06_09h27.30.324,Colour_Asymmetry_Pilot,2022.1.3,Win32,59.55926147,62c50e9c1127f2cd403a315f,0,17,17,68,1,threeone,,,,,,,,,,,,,,,,,,,,,,,,,,,,,,,,,,,,,,,,,,,,,,,,,,,,,,,,,,,,,,,,,,,,,,,,,,,,,,,,,,,,,,,,,,,,,,,,,,,,,,,,,,,,,,,,,,,,,,,,,,,,,,,,,,,,,,,,,,,,,,,,,,,,,,,,,,,,,
,,,,,,60f680ce31ba0cae7ac7d716,62c538decc76923a56d01ccb,2022-07-06_09h27.30.324,Colour_Asymmetry_Pilot,2022.1.3,Win32,59.55926147,62c50e9c1127f2cd403a315f,0,18,18,55,1,fourthree,,,,,,,,,,,,,,,,,,,,,,,,,,,,,,,,,,,,,,,,,,,,,,,,,,,,,,,,,,,,,,,,,,,,,,,,,,,,,,,,,,,,,,,,,,,,,,,,,,,,,,,,,,,,,,,,,,,,,,,,,,,,,,,,,,,,,,,,,,,,,,,,,,,,,,,,,,,,,
,,,,,,60f680ce31ba0cae7ac7d716,62c538decc76923a56d01ccb,2022-07-06_09h27.30.324,Colour_Asymmetry_Pilot,2022.1.3,Win32,59.55926147,62c50e9c1127f2cd403a315f,0,19,19,116,1,threeone,,,,,,,,,,,,,,,,,,,,,,,,,,,,,,,,,,,,,,,,,,,,,,,,,,,,,,,,,,,,,,,,,,,,,,,,,,,,,,,,,,,,,,,,,,,,,,,,,,,,,,,,,,,,,,,,,,,,,,,,,,,,,,,,,,,,,,,,,,,,,,,,,,,,,,,,,,,,,
,,,,,,60f680ce31ba0cae7ac7d716,62c538decc76923a56d01ccb,2022-07-06_09h27.30.324,Colour_Asymmetry_Pilot,2022.1.3,Win32,59.55926147,62c50e9c1127f2cd403a315f,0,20,20,135,1,fourthree,,,,,,,,,,,,,,,,,,,,,,,,,,,,,,,,,,,,,,,,,,,,,,,,,,,,,,,,,,,,,,,,,,,,,,,,,,,,,,,,,,,,,,,,,,,,,,,,,,,,,,,,,,,,,,,,,,,,,,,,,,,,,,,,,,,,,,,,,,,,,,,,,,,,,,,,,,,,,
,,,,,,60f680ce31ba0cae7ac7d716,62c538decc76923a56d01ccb,2022-07-06_09h27.30.324,Colour_Asymmetry_Pilot,2022.1.3,Win32,59.55926147,62c50e9c1127f2cd403a315f,0,21,21,155,1,twofour,,,,,,,,,,,,,,,,,,,,,,,,,,,,,,,,,,,,,,,,,,,,,,,,,,,,,,,,,,,,,,,,,,,,,,,,,,,,,,,,,,,,,,,,,,,,,,,,,,,,,,,,,,,,,,,,,,,,,,,,,,,,,,,,,,,,,,,,,,,,,,,,,,,,,,,,,,,,,
,,,,,,60f680ce31ba0cae7ac7d716,62c538decc76923a56d01ccb,2022-07-06_09h27.30.324,Colour_Asymmetry_Pilot,2022.1.3,Win32,59.55926147,62c50e9c1127f2cd403a315f,0,22,22,120,1,onetwo,,,,,,,,,,,,,,,,,,,,,,,,,,,,,,,,,,,,,,,,,,,,,,,,,,,,,,,,,,,,,,,,,,,,,,,,,,,,,,,,,,,,,,,,,,,,,,,,,,,,,,,,,,,,,,,,,,,,,,,,,,,,,,,,,,,,,,,,,,,,,,,,,,,,,,,,,,,,,
,,,,,,60f680ce31ba0cae7ac7d716,62c538decc76923a56d01ccb,2022-07-06_09h27.30.324,Colour_Asymmetry_Pilot,2022.1.3,Win32,59.55926147,62c50e9c1127f2cd403a315f,0,23,23,107,1,twofour,,,,,,,,,,,,,,,,,,,,,,,,,,,,,,,,,,,,,,,,,,,,,,,,,,,,,,,,,,,,,,,,,,,,,,,,,,,,,,,,,,,,,,,,,,,,,,,,,,,,,,,,,,,,,,,,,,,,,,,,,,,,,,,,,,,,,,,,,,,,,,,,,,,,,,,,,,,,,
,,,,,,60f680ce31ba0cae7ac7d716,62c538decc76923a56d01ccb,2022-07-06_09h27.30.324,Colour_Asymmetry_Pilot,2022.1.3,Win32,59.55926147,62c50e9c1127f2cd403a315f,0,24,24,43,1,twofour,,,,,,,,,,,,,,,,,,,,,,,,,,,,,,,,,,,,,,,,,,,,,,,,,,,,,,,,,,,,,,,,,,,,,,,,,,,,,,,,,,,,,,,,,,,,,,,,,,,,,,,,,,,,,,,,,,,,,,,,,,,,,,,,,,,,,,,,,,,,,,,,,,,,,,,,,,,,,
,,,,,,60f680ce31ba0cae7ac7d716,62c538decc76923a56d01ccb,2022-07-06_09h27.30.324,Colour_Asymmetry_Pilot,2022.1.3,Win32,59.55926147,62c50e9c1127f2cd403a315f,0,25,25,8,1,onetwo,,,,,,,,,,,,,,,,,,,,,,,,,,,,,,,,,,,,,,,,,,,,,,,,,,,,,,,,,,,,,,,,,,,,,,,,,,,,,,,,,,,,,,,,,,,,,,,,,,,,,,,,,,,,,,,,,,,,,,,,,,,,,,,,,,,,,,,,,,,,,,,,,,,,,,,,,,,,,
,,,,,,60f680ce31ba0cae7ac7d716,62c538decc76923a56d01ccb,2022-07-06_09h27.30.324,Colour_Asymmetry_Pilot,2022.1.3,Win32,59.55926147,62c50e9c1127f2cd403a315f,0,26,26,0,1,onetwo,,,,,,,,,,,,,,,,,,,,,,,,,,,,,,,,,,,,,,,,,,,,,,,,,,,,,,,,,,,,,,,,,,,,,,,,,,,,,,,,,,,,,,,,,,,,,,,,,,,,,,,,,,,,,,,,,,,,,,,,,,,,,,,,,,,,,,,,,,,,,,,,,,,,,,,,,,,,,
,,,,,,60f680ce31ba0cae7ac7d716,62c538decc76923a56d01ccb,2022-07-06_09h27.30.324,Colour_Asymmetry_Pilot,2022.1.3,Win32,59.55926147,62c50e9c1127f2cd403a315f,0,27,27,94,1,fourtwo,,,,,,,,,,,,,,,,,,,,,,,,,,,,,,,,,,,,,,,,,,,,,,,,,,,,,,,,,,,,,,,,,,,,,,,,,,,,,,,,,,,,,,,,,,,,,,,,,,,,,,,,,,,,,,,,,,,,,,,,,,,,,,,,,,,,,,,,,,,,,,,,,,,,,,,,,,,,,
,,,,,,60f680ce31ba0cae7ac7d716,62c538decc76923a56d01ccb,2022-07-06_09h27.30.324,Colour_Asymmetry_Pilot,2022.1.3,Win32,59.55926147,62c50e9c1127f2cd403a315f,0,28,28,158,1,fourtwo,,,,,,,,,,,,,,,,,,,,,,,,,,,,,,,,,,,,,,,,,,,,,,,,,,,,,,,,,,,,,,,,,,,,,,,,,,,,,,,,,,,,,,,,,,,,,,,,,,,,,,,,,,,,,,,,,,,,,,,,,,,,,,,,,,,,,,,,,,,,,,,,,,,,,,,,,,,,,
,,,,,,60f680ce31ba0cae7ac7d716,62c538decc76923a56d01ccb,2022-07-06_09h27.30.324,Colour_Asymmetry_Pilot,2022.1.3,Win32,59.55926147,62c50e9c1127f2cd403a315f,0,29,29,28,1,threeone,,,,,,,,,,,,,,,,,,,,,,,,,,,,,,,,,,,,,,,,,,,,,,,,,,,,,,,,,,,,,,,,,,,,,,,,,,,,,,,,,,,,,,,,,,,,,,,,,,,,,,,,,,,,,,,,,,,,,,,,,,,,,,,,,,,,,,,,,,,,,,,,,,,,,,,,,,,,,
,,,,,,60f680ce31ba0cae7ac7d716,62c538decc76923a56d01ccb,2022-07-06_09h27.30.324,Colour_Asymmetry_Pilot,2022.1.3,Win32,59.55926147,62c50e9c1127f2cd403a315f,0,30,30,99,1,twofour,,,,,,,,,,,,,,,,,,,,,,,,,,,,,,,,,,,,,,,,,,,,,,,,,,,,,,,,,,,,,,,,,,,,,,,,,,,,,,,,,,,,,,,,,,,,,,,,,,,,,,,,,,,,,,,,,,,,,,,,,,,,,,,,,,,,,,,,,,,,,,,,,,,,,,,,,,,,,
,,,,,,60f680ce31ba0cae7ac7d716,62c538decc76923a56d01ccb,2022-07-06_09h27.30.324,Colour_Asymmetry_Pilot,2022.1.3,Win32,59.55926147,62c50e9c1127f2cd403a315f,0,31,31,61,1,threefour,,,,,,,,,,,,,,,,,,,,,,,,,,,,,,,,,,,,,,,,,,,,,,,,,,,,,,,,,,,,,,,,,,,,,,,,,,,,,,,,,,,,,,,,,,,,,,,,,,,,,,,,,,,,,,,,,,,,,,,,,,,,,,,,,,,,,,,,,,,,,,,,,,,,,,,,,,,,,
,,,,,,60f680ce31ba0cae7ac7d716,62c538decc76923a56d01ccb,2022-07-06_09h27.30.324,Colour_Asymmetry_Pilot,2022.1.3,Win32,59.55926147,62c50e9c1127f2cd403a315f,0,32,32,62,1,fourtwo,,,,,,,,,,,,,,,,,,,,,,,,,,,,,,,,,,,,,,,,,,,,,,,,,,,,,,,,,,,,,,,,,,,,,,,,,,,,,,,,,,,,,,,,,,,,,,,,,,,,,,,,,,,,,,,,,,,,,,,,,,,,,,,,,,,,,,,,,,,,,,,,,,,,,,,,,,,,,
,,,,,,60f680ce31ba0cae7ac7d716,62c538decc76923a56d01ccb,2022-07-06_09h27.30.324,Colour_Asymmetry_Pilot,2022.1.3,Win32,59.55926147,62c50e9c1127f2cd403a315f,0,33,33,127,1,fourthree,,,,,,,,,,,,,,,,,,,,,,,,,,,,,,,,,,,,,,,,,,,,,,,,,,,,,,,,,,,,,,,,,,,,,,,,,,,,,,,,,,,,,,,,,,,,,,,,,,,,,,,,,,,,,,,,,,,,,,,,,,,,,,,,,,,,,,,,,,,,,,,,,,,,,,,,,,,,,
,,,,,,60f680ce31ba0cae7ac7d716,62c538decc76923a56d01ccb,2022-07-06_09h27.30.324,Colour_Asymmetry_Pilot,2022.1.3,Win32,59.55926147,62c50e9c1127f2cd403a315f,0,34,34,52,1,threeone,,,,,,,,,,,,,,,,,,,,,,,,,,,,,,,,,,,,,,,,,,,,,,,,,,,,,,,,,,,,,,,,,,,,,,,,,,,,,,,,,,,,,,,,,,,,,,,,,,,,,,,,,,,,,,,,,,,,,,,,,,,,,,,,,,,,,,,,,,,,,,,,,,,,,,,,,,,,,
,,,,,,60f680ce31ba0cae7ac7d716,62c538decc76923a56d01ccb,2022-07-06_09h27.30.324,Colour_Asymmetry_Pilot,2022.1.3,Win32,59.55926147,62c50e9c1127f2cd403a315f,0,35,35,104,1,onetwo,,,,,,,,,,,,,,,,,,,,,,,,,,,,,,,,,,,,,,,,,,,,,,,,,,,,,,,,,,,,,,,,,,,,,,,,,,,,,,,,,,,,,,,,,,,,,,,,,,,,,,,,,,,,,,,,,,,,,,,,,,,,,,,,,,,,,,,,,,,,,,,,,,,,,,,,,,,,,
,,,,,,60f680ce31ba0cae7ac7d716,62c538decc76923a56d01ccb,2022-07-06_09h27.30.324,Colour_Asymmetry_Pilot,2022.1.3,Win32,59.55926147,62c50e9c1127f2cd403a315f,0,36,36,154,1,twoone,,,,,,,,,,,,,,,,,,,,,,,,,,,,,,,,,,,,,,,,,,,,,,,,,,,,,,,,,,,,,,,,,,,,,,,,,,,,,,,,,,,,,,,,,,,,,,,,,,,,,,,,,,,,,,,,,,,,,,,,,,,,,,,,,,,,,,,,,,,,,,,,,,,,,,,,,,,,,
,,,,,,60f680ce31ba0cae7ac7d716,62c538decc76923a56d01ccb,2022-07-06_09h27.30.324,Colour_Asymmetry_Pilot,2022.1.3,Win32,59.55926147,62c50e9c1127f2cd403a315f,0,37,37,30,1,fourtwo,,,,,,,,,,,,,,,,,,,,,,,,,,,,,,,,,,,,,,,,,,,,,,,,,,,,,,,,,,,,,,,,,,,,,,,,,,,,,,,,,,,,,,,,,,,,,,,,,,,,,,,,,,,,,,,,,,,,,,,,,,,,,,,,,,,,,,,,,,,,,,,,,,,,,,,,,,,,,
,,,,,,60f680ce31ba0cae7ac7d716,62c538decc76923a56d01ccb,2022-07-06_09h27.30.324,Colour_Asymmetry_Pilot,2022.1.3,Win32,59.55926147,62c50e9c1127f2cd403a315f,0,38,38,123,1,twofour,,,,,,,,,,,,,,,,,,,,,,,,,,,,,,,,,,,,,,,,,,,,,,,,,,,,,,,,,,,,,,,,,,,,,,,,,,,,,,,,,,,,,,,,,,,,,,,,,,,,,,,,,,,,,,,,,,,,,,,,,,,,,,,,,,,,,,,,,,,,,,,,,,,,,,,,,,,,,
,,,,,,60f680ce31ba0cae7ac7d716,62c538decc76923a56d01ccb,2022-07-06_09h27.30.324,Colour_Asymmetry_Pilot,2022.1.3,Win32,59.55926147,62c50e9c1127f2cd403a315f,0,39,39,2,1,twoone,,,,,,,,,,,,,,,,,,,,,,,,,,,,,,,,,,,,,,,,,,,,,,,,,,,,,,,,,,,,,,,,,,,,,,,,,,,,,,,,,,,,,,,,,,,,,,,,,,,,,,,,,,,,,,,,,,,,,,,,,,,,,,,,,,,,,,,,,,,,,,,,,,,,,,,,,,,,,
,,,,,,60f680ce31ba0cae7ac7d716,62c538decc76923a56d01ccb,2022-07-06_09h27.30.324,Colour_Asymmetry_Pilot,2022.1.3,Win32,59.55926147,62c50e9c1127f2cd403a315f,0,40,40,48,1,onetwo,,,,,,,,,,,,,,,,,,,,,,,,,,,,,,,,,,,,,,,,,,,,,,,,,,,,,,,,,,,,,,,,,,,,,,,,,,,,,,,,,,,,,,,,,,,,,,,,,,,,,,,,,,,,,,,,,,,,,,,,,,,,,,,,,,,,,,,,,,,,,,,,,,,,,,,,,,,,,
,,,,,,60f680ce31ba0cae7ac7d716,62c538decc76923a56d01ccb,2022-07-06_09h27.30.324,Colour_Asymmetry_Pilot,2022.1.3,Win32,59.55926147,62c50e9c1127f2cd403a315f,0,41,41,32,1,onetwo,,,,,,,,,,,,,,,,,,,,,,,,,,,,,,,,,,,,,,,,,,,,,,,,,,,,,,,,,,,,,,,,,,,,,,,,,,,,,,,,,,,,,,,,,,,,,,,,,,,,,,,,,,,,,,,,,,,,,,,,,,,,,,,,,,,,,,,,,,,,,,,,,,,,,,,,,,,,,
,,,,,,60f680ce31ba0cae7ac7d716,62c538decc76923a56d01ccb,2022-07-06_09h27.30.324,Colour_Asymmetry_Pilot,2022.1.3,Win32,59.55926147,62c50e9c1127f2cd403a315f,0,42,42,157,1,threefour,,,,,,,,,,,,,,,,,,,,,,,,,,,,,,,,,,,,,,,,,,,,,,,,,,,,,,,,,,,,,,,,,,,,,,,,,,,,,,,,,,,,,,,,,,,,,,,,,,,,,,,,,,,,,,,,,,,,,,,,,,,,,,,,,,,,,,,,,,,,,,,,,,,,,,,,,,,,,
,,,,,,60f680ce31ba0cae7ac7d716,62c538decc76923a56d01ccb,2022-07-06_09h27.30.324,Colour_Asymmetry_Pilot,2022.1.3,Win32,59.55926147,62c50e9c1127f2cd403a315f,0,43,43,128,1,onetwo,,,,,,,,,,,,,,,,,,,,,,,,,,,,,,,,,,,,,,,,,,,,,,,,,,,,,,,,,,,,,,,,,,,,,,,,,,,,,,,,,,,,,,,,,,,,,,,,,,,,,,,,,,,,,,,,,,,,,,,,,,,,,,,,,,,,,,,,,,,,,,,,,,,,,,,,,,,,,
,,,,,,60f680ce31ba0cae7ac7d716,62c538decc76923a56d01ccb,2022-07-06_09h27.30.324,Colour_Asymmetry_Pilot,2022.1.3,Win32,59.55926147,62c50e9c1127f2cd403a315f,0,44,44,7,1,fourthree,,,,,,,,,,,,,,,,,,,,,,,,,,,,,,,,,,,,,,,,,,,,,,,,,,,,,,,,,,,,,,,,,,,,,,,,,,,,,,,,,,,,,,,,,,,,,,,,,,,,,,,,,,,,,,,,,,,,,,,,,,,,,,,,,,,,,,,,,,,,,,,,,,,,,,,,,,,,,
,,,,,,60f680ce31ba0cae7ac7d716,62c538decc76923a56d01ccb,2022-07-06_09h27.30.324,Colour_Asymmetry_Pilot,2022.1.3,Win32,59.55926147,62c50e9c1127f2cd403a315f,0,45,45,71,1,fourthree,,,,,,,,,,,,,,,,,,,,,,,,,,,,,,,,,,,,,,,,,,,,,,,,,,,,,,,,,,,,,,,,,,,,,,,,,,,,,,,,,,,,,,,,,,,,,,,,,,,,,,,,,,,,,,,,,,,,,,,,,,,,,,,,,,,,,,,,,,,,,,,,,,,,,,,,,,,,,
,,,,,,60f680ce31ba0cae7ac7d716,62c538decc76923a56d01ccb,2022-07-06_09h27.30.324,Colour_Asymmetry_Pilot,2022.1.3,Win32,59.55926147,62c50e9c1127f2cd403a315f,0,46,46,56,1,onetwo,,,,,,,,,,,,,,,,,,,,,,,,,,,,,,,,,,,,,,,,,,,,,,,,,,,,,,,,,,,,,,,,,,,,,,,,,,,,,,,,,,,,,,,,,,,,,,,,,,,,,,,,,,,,,,,,,,,,,,,,,,,,,,,,,,,,,,,,,,,,,,,,,,,,,,,,,,,,,
,,,,,,60f680ce31ba0cae7ac7d716,62c538decc76923a56d01ccb,2022-07-06_09h27.30.324,Colour_Asymmetry_Pilot,2022.1.3,Win32,59.55926147,62c50e9c1127f2cd403a315f,0,47,47,160,1,onetwo,,,,,,,,,,,,,,,,,,,,,,,,,,,,,,,,,,,,,,,,,,,,,,,,,,,,,,,,,,,,,,,,,,,,,,,,,,,,,,,,,,,,,,,,,,,,,,,,,,,,,,,,,,,,,,,,,,,,,,,,,,,,,,,,,,,,,,,,,,,,,,,,,,,,,,,,,,,,,
,,,,,,60f680ce31ba0cae7ac7d716,62c538decc76923a56d01ccb,2022-07-06_09h27.30.324,Colour_Asymmetry_Pilot,2022.1.3,Win32,59.55926147,62c50e9c1127f2cd403a315f,0,48,48,34,1,twoone,,,,,,,,,,,,,,,,,,,,,,,,,,,,,,,,,,,,,,,,,,,,,,,,,,,,,,,,,,,,,,,,,,,,,,,,,,,,,,,,,,,,,,,,,,,,,,,,,,,,,,,,,,,,,,,,,,,,,,,,,,,,,,,,,,,,,,,,,,,,,,,,,,,,,,,,,,,,,
,,,,,,60f680ce31ba0cae7ac7d716,62c538decc76923a56d01ccb,2022-07-06_09h27.30.324,Colour_Asymmetry_Pilot,2022.1.3,Win32,59.55926147,62c50e9c1127f2cd403a315f,0,49,49,101,1,threefour,,,,,,,,,,,,,,,,,,,,,,,,,,,,,,,,,,,,,,,,,,,,,,,,,,,,,,,,,,,,,,,,,,,,,,,,,,,,,,,,,,,,,,,,,,,,,,,,,,,,,,,,,,,,,,,,,,,,,,,,,,,,,,,,,,,,,,,,,,,,,,,,,,,,,,,,,,,,,
,,,,,,60f680ce31ba0cae7ac7d716,62c538decc76923a56d01ccb,2022-07-06_09h27.30.324,Colour_Asymmetry_Pilot,2022.1.3,Win32,59.55926147,62c50e9c1127f2cd403a315f,0,50,50,17,1,onethree,,,,,,,,,,,,,,,,,,,,,,,,,,,,,,,,,,,,,,,,,,,,,,,,,,,,,,,,,,,,,,,,,,,,,,,,,,,,,,,,,,,,,,,,,,,,,,,,,,,,,,,,,,,,,,,,,,,,,,,,,,,,,,,,,,,,,,,,,,,,,,,,,,,,,,,,,,,,,
,,,,,,60f680ce31ba0cae7ac7d716,62c538decc76923a56d01ccb,2022-07-06_09h27.30.324,Colour_Asymmetry_Pilot,2022.1.3,Win32,59.55926147,62c50e9c1127f2cd403a315f,0,51,51,88,1,onetwo,,,,,,,,,,,,,,,,,,,,,,,,,,,,,,,,,,,,,,,,,,,,,,,,,,,,,,,,,,,,,,,,,,,,,,,,,,,,,,,,,,,,,,,,,,,,,,,,,,,,,,,,,,,,,,,,,,,,,,,,,,,,,,,,,,,,,,,,,,,,,,,,,,,,,,,,,,,,,
,,,,,,60f680ce31ba0cae7ac7d716,62c538decc76923a56d01ccb,2022-07-06_09h27.30.324,Colour_Asymmetry_Pilot,2022.1.3,Win32,59.55926147,62c50e9c1127f2cd403a315f,0,52,52,67,1,twofour,,,,,,,,,,,,,,,,,,,,,,,,,,,,,,,,,,,,,,,,,,,,,,,,,,,,,,,,,,,,,,,,,,,,,,,,,,,,,,,,,,,,,,,,,,,,,,,,,,,,,,,,,,,,,,,,,,,,,,,,,,,,,,,,,,,,,,,,,,,,,,,,,,,,,,,,,,,,,
,,,,,,60f680ce31ba0cae7ac7d716,62c538decc76923a56d01ccb,2022-07-06_09h27.30.324,Colour_Asymmetry_Pilot,2022.1.3,Win32,59.55926147,62c50e9c1127f2cd403a315f,0,53,53,49,1,onethree,,,,,,,,,,,,,,,,,,,,,,,,,,,,,,,,,,,,,,,,,,,,,,,,,,,,,,,,,,,,,,,,,,,,,,,,,,,,,,,,,,,,,,,,,,,,,,,,,,,,,,,,,,,,,,,,,,,,,,,,,,,,,,,,,,,,,,,,,,,,,,,,,,,,,,,,,,,,,
,,,,,,60f680ce31ba0cae7ac7d716,62c538decc76923a56d01ccb,2022-07-06_09h27.30.324,Colour_Asymmetry_Pilot,2022.1.3,Win32,59.55926147,62c50e9c1127f2cd403a315f,0,54,54,149,1,threefour,,,,,,,,,,,,,,,,,,,,,,,,,,,,,,,,,,,,,,,,,,,,,,,,,,,,,,,,,,,,,,,,,,,,,,,,,,,,,,,,,,,,,,,,,,,,,,,,,,,,,,,,,,,,,,,,,,,,,,,,,,,,,,,,,,,,,,,,,,,,,,,,,,,,,,,,,,,,,
,,,,,,60f680ce31ba0cae7ac7d716,62c538decc76923a56d01ccb,2022-07-06_09h27.30.324,Colour_Asymmetry_Pilot,2022.1.3,Win32,59.55926147,62c50e9c1127f2cd403a315f,0,55,55,147,1,twofour,,,,,,,,,,,,,,,,,,,,,,,,,,,,,,,,,,,,,,,,,,,,,,,,,,,,,,,,,,,,,,,,,,,,,,,,,,,,,,,,,,,,,,,,,,,,,,,,,,,,,,,,,,,,,,,,,,,,,,,,,,,,,,,,,,,,,,,,,,,,,,,,,,,,,,,,,,,,,
,,,,,,60f680ce31ba0cae7ac7d716,62c538decc76923a56d01ccb,2022-07-06_09h27.30.324,Colour_Asymmetry_Pilot,2022.1.3,Win32,59.55926147,62c50e9c1127f2cd403a315f,0,56,56,57,1,onethree,,,,,,,,,,,,,,,,,,,,,,,,,,,,,,,,,,,,,,,,,,,,,,,,,,,,,,,,,,,,,,,,,,,,,,,,,,,,,,,,,,,,,,,,,,,,,,,,,,,,,,,,,,,,,,,,,,,,,,,,,,,,,,,,,,,,,,,,,,,,,,,,,,,,,,,,,,,,,
,,,,,,60f680ce31ba0cae7ac7d716,62c538decc76923a56d01ccb,2022-07-06_09h27.30.324,Colour_Asymmetry_Pilot,2022.1.3,Win32,59.55926147,62c50e9c1127f2cd403a315f,0,57,57,156,1,threeone,,,,,,,,,,,,,,,,,,,,,,,,,,,,,,,,,,,,,,,,,,,,,,,,,,,,,,,,,,,,,,,,,,,,,,,,,,,,,,,,,,,,,,,,,,,,,,,,,,,,,,,,,,,,,,,,,,,,,,,,,,,,,,,,,,,,,,,,,,,,,,,,,,,,,,,,,,,,,
,,,,,,60f680ce31ba0cae7ac7d716,62c538decc76923a56d01ccb,2022-07-06_09h27.30.324,Colour_Asymmetry_Pilot,2022.1.3,Win32,59.55926147,62c50e9c1127f2cd403a315f,0,58,58,105,1,onethree,,,,,,,,,,,,,,,,,,,,,,,,,,,,,,,,,,,,,,,,,,,,,,,,,,,,,,,,,,,,,,,,,,,,,,,,,,,,,,,,,,,,,,,,,,,,,,,,,,,,,,,,,,,,,,,,,,,,,,,,,,,,,,,,,,,,,,,,,,,,,,,,,,,,,,,,,,,,,
,,,,,,60f680ce31ba0cae7ac7d716,62c538decc76923a56d01ccb,2022-07-06_09h27.30.324,Colour_Asymmetry_Pilot,2022.1.3,Win32,59.55926147,62c50e9c1127f2cd403a315f,0,59,59,41,1,onethree,,,,,,,,,,,,,,,,,,,,,,,,,,,,,,,,,,,,,,,,,,,,,,,,,,,,,,,,,,,,,,,,,,,,,,,,,,,,,,,,,,,,,,,,,,,,,,,,,,,,,,,,,,,,,,,,,,,,,,,,,,,,,,,,,,,,,,,,,,,,,,,,,,,,,,,,,,,,,
,,,,,,60f680ce31ba0cae7ac7d716,62c538decc76923a56d01ccb,2022-07-06_09h27.30.324,Colour_Asymmetry_Pilot,2022.1.3,Win32,59.55926147,62c50e9c1127f2cd403a315f,0,60,60,118,1,fourtwo,,,,,,,,,,,,,,,,,,,,,,,,,,,,,,,,,,,,,,,,,,,,,,,,,,,,,,,,,,,,,,,,,,,,,,,,,,,,,,,,,,,,,,,,,,,,,,,,,,,,,,,,,,,,,,,,,,,,,,,,,,,,,,,,,,,,,,,,,,,,,,,,,,,,,,,,,,,,,
,,,,,,60f680ce31ba0cae7ac7d716,62c538decc76923a56d01ccb,2022-07-06_09h27.30.324,Colour_Asymmetry_Pilot,2022.1.3,Win32,59.55926147,62c50e9c1127f2cd403a315f,0,61,61,102,1,fourtwo,,,,,,,,,,,,,,,,,,,,,,,,,,,,,,,,,,,,,,,,,,,,,,,,,,,,,,,,,,,,,,,,,,,,,,,,,,,,,,,,,,,,,,,,,,,,,,,,,,,,,,,,,,,,,,,,,,,,,,,,,,,,,,,,,,,,,,,,,,,,,,,,,,,,,,,,,,,,,
,,,,,,60f680ce31ba0cae7ac7d716,62c538decc76923a56d01ccb,2022-07-06_09h27.30.324,Colour_Asymmetry_Pilot,2022.1.3,Win32,59.55926147,62c50e9c1127f2cd403a315f,0,62,62,84,1,threeone,,,,,,,,,,,,,,,,,,,,,,,,,,,,,,,,,,,,,,,,,,,,,,,,,,,,,,,,,,,,,,,,,,,,,,,,,,,,,,,,,,,,,,,,,,,,,,,,,,,,,,,,,,,,,,,,,,,,,,,,,,,,,,,,,,,,,,,,,,,,,,,,,,,,,,,,,,,,,
,,,,,,60f680ce31ba0cae7ac7d716,62c538decc76923a56d01ccb,2022-07-06_09h27.30.324,Colour_Asymmetry_Pilot,2022.1.3,Win32,59.55926147,62c50e9c1127f2cd403a315f,0,63,63,109,1,threefour,,,,,,,,,,,,,,,,,,,,,,,,,,,,,,,,,,,,,,,,,,,,,,,,,,,,,,,,,,,,,,,,,,,,,,,,,,,,,,,,,,,,,,,,,,,,,,,,,,,,,,,,,,,,,,,,,,,,,,,,,,,,,,,,,,,,,,,,,,,,,,,,,,,,,,,,,,,,,
,,,,,,60f680ce31ba0cae7ac7d716,62c538decc76923a56d01ccb,2022-07-06_09h27.30.324,Colour_Asymmetry_Pilot,2022.1.3,Win32,59.55926147,62c50e9c1127f2cd403a315f,0,64,64,133,1,threefour,,,,,,,,,,,,,,,,,,,,,,,,,,,,,,,,,,,,,,,,,,,,,,,,,,,,,,,,,,,,,,,,,,,,,,,,,,,,,,,,,,,,,,,,,,,,,,,,,,,,,,,,,,,,,,,,,,,,,,,,,,,,,,,,,,,,,,,,,,,,,,,,,,,,,,,,,,,,,
,,,,,,60f680ce31ba0cae7ac7d716,62c538decc76923a56d01ccb,2022-07-06_09h27.30.324,Colour_Asymmetry_Pilot,2022.1.3,Win32,59.55926147,62c50e9c1127f2cd403a315f,0,65,65,5,1,threefour,,,,,,,,,,,,,,,,,,,,,,,,,,,,,,,,,,,,,,,,,,,,,,,,,,,,,,,,,,,,,,,,,,,,,,,,,,,,,,,,,,,,,,,,,,,,,,,,,,,,,,,,,,,,,,,,,,,,,,,,,,,,,,,,,,,,,,,,,,,,,,,,,,,,,,,,,,,,,
,,,,,,60f680ce31ba0cae7ac7d716,62c538decc76923a56d01ccb,2022-07-06_09h27.30.324,Colour_Asymmetry_Pilot,2022.1.3,Win32,59.55926147,62c50e9c1127f2cd403a315f,0,66,66,23,1,fourthree,,,,,,,,,,,,,,,,,,,,,,,,,,,,,,,,,,,,,,,,,,,,,,,,,,,,,,,,,,,,,,,,,,,,,,,,,,,,,,,,,,,,,,,,,,,,,,,,,,,,,,,,,,,,,,,,,,,,,,,,,,,,,,,,,,,,,,,,,,,,,,,,,,,,,,,,,,,,,
,,,,,,60f680ce31ba0cae7ac7d716,62c538decc76923a56d01ccb,2022-07-06_09h27.30.324,Colour_Asymmetry_Pilot,2022.1.3,Win32,59.55926147,62c50e9c1127f2cd403a315f,0,67,67,65,1,onethree,,,,,,,,,,,,,,,,,,,,,,,,,,,,,,,,,,,,,,,,,,,,,,,,,,,,,,,,,,,,,,,,,,,,,,,,,,,,,,,,,,,,,,,,,,,,,,,,,,,,,,,,,,,,,,,,,,,,,,,,,,,,,,,,,,,,,,,,,,,,,,,,,,,,,,,,,,,,,
,,,,,,60f680ce31ba0cae7ac7d716,62c538decc76923a56d01ccb,2022-07-06_09h27.30.324,Colour_Asymmetry_Pilot,2022.1.3,Win32,59.55926147,62c50e9c1127f2cd403a315f,0,68,68,108,1,threeone,,,,,,,,,,,,,,,,,,,,,,,,,,,,,,,,,,,,,,,,,,,,,,,,,,,,,,,,,,,,,,,,,,,,,,,,,,,,,,,,,,,,,,,,,,,,,,,,,,,,,,,,,,,,,,,,,,,,,,,,,,,,,,,,,,,,,,,,,,,,,,,,,,,,,,,,,,,,,
,,,,,,60f680ce31ba0cae7ac7d716,62c538decc76923a56d01ccb,2022-07-06_09h27.30.324,Colour_Asymmetry_Pilot,2022.1.3,Win32,59.55926147,62c50e9c1127f2cd403a315f,0,69,69,114,1,twoone,,,,,,,,,,,,,,,,,,,,,,,,,,,,,,,,,,,,,,,,,,,,,,,,,,,,,,,,,,,,,,,,,,,,,,,,,,,,,,,,,,,,,,,,,,,,,,,,,,,,,,,,,,,,,,,,,,,,,,,,,,,,,,,,,,,,,,,,,,,,,,,,,,,,,,,,,,,,,
,,,,,,60f680ce31ba0cae7ac7d716,62c538decc76923a56d01ccb,2022-07-06_09h27.30.324,Colour_Asymmetry_Pilot,2022.1.3,Win32,59.55926147,62c50e9c1127f2cd403a315f,0,70,70,26,1,twoone,,,,,,,,,,,,,,,,,,,,,,,,,,,,,,,,,,,,,,,,,,,,,,,,,,,,,,,,,,,,,,,,,,,,,,,,,,,,,,,,,,,,,,,,,,,,,,,,,,,,,,,,,,,,,,,,,,,,,,,,,,,,,,,,,,,,,,,,,,,,,,,,,,,,,,,,,,,,,
,,,,,,60f680ce31ba0cae7ac7d716,62c538decc76923a56d01ccb,2022-07-06_09h27.30.324,Colour_Asymmetry_Pilot,2022.1.3,Win32,59.55926147,62c50e9c1127f2cd403a315f,0,71,71,4,1,threeone,,,,,,,,,,,,,,,,,,,,,,,,,,,,,,,,,,,,,,,,,,,,,,,,,,,,,,,,,,,,,,,,,,,,,,,,,,,,,,,,,,,,,,,,,,,,,,,,,,,,,,,,,,,,,,,,,,,,,,,,,,,,,,,,,,,,,,,,,,,,,,,,,,,,,,,,,,,,,
,,,,,,60f680ce31ba0cae7ac7d716,62c538decc76923a56d01ccb,2022-07-06_09h27.30.324,Colour_Asymmetry_Pilot,2022.1.3,Win32,59.55926147,62c50e9c1127f2cd403a315f,0,72,72,83,1,twofour,,,,,,,,,,,,,,,,,,,,,,,,,,,,,,,,,,,,,,,,,,,,,,,,,,,,,,,,,,,,,,,,,,,,,,,,,,,,,,,,,,,,,,,,,,,,,,,,,,,,,,,,,,,,,,,,,,,,,,,,,,,,,,,,,,,,,,,,,,,,,,,,,,,,,,,,,,,,,
,,,,,,60f680ce31ba0cae7ac7d716,62c538decc76923a56d01ccb,2022-07-06_09h27.30.324,Colour_Asymmetry_Pilot,2022.1.3,Win32,59.55926147,62c50e9c1127f2cd403a315f,0,73,73,89,1,onethree,,,,,,,,,,,,,,,,,,,,,,,,,,,,,,,,,,,,,,,,,,,,,,,,,,,,,,,,,,,,,,,,,,,,,,,,,,,,,,,,,,,,,,,,,,,,,,,,,,,,,,,,,,,,,,,,,,,,,,,,,,,,,,,,,,,,,,,,,,,,,,,,,,,,,,,,,,,,,
,,,,,,60f680ce31ba0cae7ac7d716,62c538decc76923a56d01ccb,2022-07-06_09h27.30.324,Colour_Asymmetry_Pilot,2022.1.3,Win32,59.55926147,62c50e9c1127f2cd403a315f,0,74,74,3,1,twofour,,,,,,,,,,,,,,,,,,,,,,,,,,,,,,,,,,,,,,,,,,,,,,,,,,,,,,,,,,,,,,,,,,,,,,,,,,,,,,,,,,,,,,,,,,,,,,,,,,,,,,,,,,,,,,,,,,,,,,,,,,,,,,,,,,,,,,,,,,,,,,,,,,,,,,,,,,,,,
,,,,,,60f680ce31ba0cae7ac7d716,62c538decc76923a56d01ccb,2022-07-06_09h27.30.324,Colour_Asymmetry_Pilot,2022.1.3,Win32,59.55926147,62c50e9c1127f2cd403a315f,0,75,75,72,1,onetwo,,,,,,,,,,,,,,,,,,,,,,,,,,,,,,,,,,,,,,,,,,,,,,,,,,,,,,,,,,,,,,,,,,,,,,,,,,,,,,,,,,,,,,,,,,,,,,,,,,,,,,,,,,,,,,,,,,,,,,,,,,,,,,,,,,,,,,,,,,,,,,,,,,,,,,,,,,,,,
,,,,,,60f680ce31ba0cae7ac7d716,62c538decc76923a56d01ccb,2022-07-06_09h27.30.324,Colour_Asymmetry_Pilot,2022.1.3,Win32,59.55926147,62c50e9c1127f2cd403a315f,0,76,76,74,1,twoone,,,,,,,,,,,,,,,,,,,,,,,,,,,,,,,,,,,,,,,,,,,,,,,,,,,,,,,,,,,,,,,,,,,,,,,,,,,,,,,,,,,,,,,,,,,,,,,,,,,,,,,,,,,,,,,,,,,,,,,,,,,,,,,,,,,,,,,,,,,,,,,,,,,,,,,,,,,,,
,,,,,,60f680ce31ba0cae7ac7d716,62c538decc76923a56d01ccb,2022-07-06_09h27.30.324,Colour_Asymmetry_Pilot,2022.1.3,Win32,59.55926147,62c50e9c1127f2cd403a315f,0,77,77,69,1,threefour,,,,,,,,,,,,,,,,,,,,,,,,,,,,,,,,,,,,,,,,,,,,,,,,,,,,,,,,,,,,,,,,,,,,,,,,,,,,,,,,,,,,,,,,,,,,,,,,,,,,,,,,,,,,,,,,,,,,,,,,,,,,,,,,,,,,,,,,,,,,,,,,,,,,,,,,,,,,,
,,,,,,60f680ce31ba0cae7ac7d716,62c538decc76923a56d01ccb,2022-07-06_09h27.30.324,Colour_Asymmetry_Pilot,2022.1.3,Win32,59.55926147,62c50e9c1127f2cd403a315f,0,78,78,73,1,onethree,,,,,,,,,,,,,,,,,,,,,,,,,,,,,,,,,,,,,,,,,,,,,,,,,,,,,,,,,,,,,,,,,,,,,,,,,,,,,,,,,,,,,,,,,,,,,,,,,,,,,,,,,,,,,,,,,,,,,,,,,,,,,,,,,,,,,,,,,,,,,,,,,,,,,,,,,,,,,
,,,,,,60f680ce31ba0cae7ac7d716,62c538decc76923a56d01ccb,2022-07-06_09h27.30.324,Colour_Asymmetry_Pilot,2022.1.3,Win32,59.55926147,62c50e9c1127f2cd403a315f,0,79,79,97,1,onethree,,,,,,,,,,,,,,,,,,,,,,,,,,,,,,,,,,,,,,,,,,,,,,,,,,,,,,,,,,,,,,,,,,,,,,,,,,,,,,,,,,,,,,,,,,,,,,,,,,,,,,,,,,,,,,,,,,,,,,,,,,,,,,,,,,,,,,,,,,,,,,,,,,,,,,,,,,,,,
,,,,,,60f680ce31ba0cae7ac7d716,62c538decc76923a56d01ccb,2022-07-06_09h27.30.324,Colour_Asymmetry_Pilot,2022.1.3,Win32,59.55926147,62c50e9c1127f2cd403a315f,0,80,80,37,1,threefour,,,,,,,,,,,,,,,,,,,,,,,,,,,,,,,,,,,,,,,,,,,,,,,,,,,,,,,,,,,,,,,,,,,,,,,,,,,,,,,,,,,,,,,,,,,,,,,,,,,,,,,,,,,,,,,,,,,,,,,,,,,,,,,,,,,,,,,,,,,,,,,,,,,,,,,,,,,,,
,,,,,,60f680ce31ba0cae7ac7d716,62c538decc76923a56d01ccb,2022-07-06_09h27.30.324,Colour_Asymmetry_Pilot,2022.1.3,Win32,59.55926147,62c50e9c1127f2cd403a315f,0,81,81,100,1,threeone,,,,,,,,,,,,,,,,,,,,,,,,,,,,,,,,,,,,,,,,,,,,,,,,,,,,,,,,,,,,,,,,,,,,,,,,,,,,,,,,,,,,,,,,,,,,,,,,,,,,,,,,,,,,,,,,,,,,,,,,,,,,,,,,,,,,,,,,,,,,,,,,,,,,,,,,,,,,,
,,,,,,60f680ce31ba0cae7ac7d716,62c538decc76923a56d01ccb,2022-07-06_09h27.30.324,Colour_Asymmetry_Pilot,2022.1.3,Win32,59.55926147,62c50e9c1127f2cd403a315f,0,82,82,60,1,threeone,,,,,,,,,,,,,,,,,,,,,,,,,,,,,,,,,,,,,,,,,,,,,,,,,,,,,,,,,,,,,,,,,,,,,,,,,,,,,,,,,,,,,,,,,,,,,,,,,,,,,,,,,,,,,,,,,,,,,,,,,,,,,,,,,,,,,,,,,,,,,,,,,,,,,,,,,,,,,
,,,,,,60f680ce31ba0cae7ac7d716,62c538decc76923a56d01ccb,2022-07-06_09h27.30.324,Colour_Asymmetry_Pilot,2022.1.3,Win32,59.55926147,62c50e9c1127f2cd403a315f,0,83,83,80,1,onetwo,,,,,,,,,,,,,,,,,,,,,,,,,,,,,,,,,,,,,,,,,,,,,,,,,,,,,,,,,,,,,,,,,,,,,,,,,,,,,,,,,,,,,,,,,,,,,,,,,,,,,,,,,,,,,,,,,,,,,,,,,,,,,,,,,,,,,,,,,,,,,,,,,,,,,,,,,,,,,
,,,,,,60f680ce31ba0cae7ac7d716,62c538decc76923a56d01ccb,2022-07-06_09h27.30.324,Colour_Asymmetry_Pilot,2022.1.3,Win32,59.55926147,62c50e9c1127f2cd403a315f,0,84,84,139,1,twofour,,,,,,,,,,,,,,,,,,,,,,,,,,,,,,,,,,,,,,,,,,,,,,,,,,,,,,,,,,,,,,,,,,,,,,,,,,,,,,,,,,,,,,,,,,,,,,,,,,,,,,,,,,,,,,,,,,,,,,,,,,,,,,,,,,,,,,,,,,,,,,,,,,,,,,,,,,,,,
,,,,,,60f680ce31ba0cae7ac7d716,62c538decc76923a56d01ccb,2022-07-06_09h27.30.324,Colour_Asymmetry_Pilot,2022.1.3,Win32,59.55926147,62c50e9c1127f2cd403a315f,0,85,85,10,1,twoone,,,,,,,,,,,,,,,,,,,,,,,,,,,,,,,,,,,,,,,,,,,,,,,,,,,,,,,,,,,,,,,,,,,,,,,,,,,,,,,,,,,,,,,,,,,,,,,,,,,,,,,,,,,,,,,,,,,,,,,,,,,,,,,,,,,,,,,,,,,,,,,,,,,,,,,,,,,,,
,,,,,,60f680ce31ba0cae7ac7d716,62c538decc76923a56d01ccb,2022-07-06_09h27.30.324,Colour_Asymmetry_Pilot,2022.1.3,Win32,59.55926147,62c50e9c1127f2cd403a315f,0,86,86,138,1,twoone,,,,,,,,,,,,,,,,,,,,,,,,,,,,,,,,,,,,,,,,,,,,,,,,,,,,,,,,,,,,,,,,,,,,,,,,,,,,,,,,,,,,,,,,,,,,,,,,,,,,,,,,,,,,,,,,,,,,,,,,,,,,,,,,,,,,,,,,,,,,,,,,,,,,,,,,,,,,,
,,,,,,60f680ce31ba0cae7ac7d716,62c538decc76923a56d01ccb,2022-07-06_09h27.30.324,Colour_Asymmetry_Pilot,2022.1.3,Win32,59.55926147,62c50e9c1127f2cd403a315f,0,87,87,113,1,onethree,,,,,,,,,,,,,,,,,,,,,,,,,,,,,,,,,,,,,,,,,,,,,,,,,,,,,,,,,,,,,,,,,,,,,,,,,,,,,,,,,,,,,,,,,,,,,,,,,,,,,,,,,,,,,,,,,,,,,,,,,,,,,,,,,,,,,,,,,,,,,,,,,,,,,,,,,,,,,
,,,,,,60f680ce31ba0cae7ac7d716,62c538decc76923a56d01ccb,2022-07-06_09h27.30.324,Colour_Asymmetry_Pilot,2022.1.3,Win32,59.55926147,62c50e9c1127f2cd403a315f,0,88,88,31,1,fourthree,,,,,,,,,,,,,,,,,,,,,,,,,,,,,,,,,,,,,,,,,,,,,,,,,,,,,,,,,,,,,,,,,,,,,,,,,,,,,,,,,,,,,,,,,,,,,,,,,,,,,,,,,,,,,,,,,,,,,,,,,,,,,,,,,,,,,,,,,,,,,,,,,,,,,,,,,,,,,
,,,,,,60f680ce31ba0cae7ac7d716,62c538decc76923a56d01ccb,2022-07-06_09h27.30.324,Colour_Asymmetry_Pilot,2022.1.3,Win32,59.55926147,62c50e9c1127f2cd403a315f,0,89,89,76,1,threeone,,,,,,,,,,,,,,,,,,,,,,,,,,,,,,,,,,,,,,,,,,,,,,,,,,,,,,,,,,,,,,,,,,,,,,,,,,,,,,,,,,,,,,,,,,,,,,,,,,,,,,,,,,,,,,,,,,,,,,,,,,,,,,,,,,,,,,,,,,,,,,,,,,,,,,,,,,,,,
,,,,,,60f680ce31ba0cae7ac7d716,62c538decc76923a56d01ccb,2022-07-06_09h27.30.324,Colour_Asymmetry_Pilot,2022.1.3,Win32,59.55926147,62c50e9c1127f2cd403a315f,0,90,90,82,1,twoone,,,,,,,,,,,,,,,,,,,,,,,,,,,,,,,,,,,,,,,,,,,,,,,,,,,,,,,,,,,,,,,,,,,,,,,,,,,,,,,,,,,,,,,,,,,,,,,,,,,,,,,,,,,,,,,,,,,,,,,,,,,,,,,,,,,,,,,,,,,,,,,,,,,,,,,,,,,,,
,,,,,,60f680ce31ba0cae7ac7d716,62c538decc76923a56d01ccb,2022-07-06_09h27.30.324,Colour_Asymmetry_Pilot,2022.1.3,Win32,59.55926147,62c50e9c1127f2cd403a315f,0,91,91,44,1,threeone,,,,,,,,,,,,,,,,,,,,,,,,,,,,,,,,,,,,,,,,,,,,,,,,,,,,,,,,,,,,,,,,,,,,,,,,,,,,,,,,,,,,,,,,,,,,,,,,,,,,,,,,,,,,,,,,,,,,,,,,,,,,,,,,,,,,,,,,,,,,,,,,,,,,,,,,,,,,,
,,,,,,60f680ce31ba0cae7ac7d716,62c538decc76923a56d01ccb,2022-07-06_09h27.30.324,Colour_Asymmetry_Pilot,2022.1.3,Win32,59.55926147,62c50e9c1127f2cd403a315f,0,92,92,115,1,twofour,,,,,,,,,,,,,,,,,,,,,,,,,,,,,,,,,,,,,,,,,,,,,,,,,,,,,,,,,,,,,,,,,,,,,,,,,,,,,,,,,,,,,,,,,,,,,,,,,,,,,,,,,,,,,,,,,,,,,,,,,,,,,,,,,,,,,,,,,,,,,,,,,,,,,,,,,,,,,
,,,,,,60f680ce31ba0cae7ac7d716,62c538decc76923a56d01ccb,2022-07-06_09h27.30.324,Colour_Asymmetry_Pilot,2022.1.3,Win32,59.55926147,62c50e9c1127f2cd403a315f,0,93,93,137,1,onethree,,,,,,,,,,,,,,,,,,,,,,,,,,,,,,,,,,,,,,,,,,,,,,,,,,,,,,,,,,,,,,,,,,,,,,,,,,,,,,,,,,,,,,,,,,,,,,,,,,,,,,,,,,,,,,,,,,,,,,,,,,,,,,,,,,,,,,,,,,,,,,,,,,,,,,,,,,,,,
,,,,,,60f680ce31ba0cae7ac7d716,62c538decc76923a56d01ccb,2022-07-06_09h27.30.324,Colour_Asymmetry_Pilot,2022.1.3,Win32,59.55926147,62c50e9c1127f2cd403a315f,0,94,94,144,1,onetwo,,,,,,,,,,,,,,,,,,,,,,,,,,,,,,,,,,,,,,,,,,,,,,,,,,,,,,,,,,,,,,,,,,,,,,,,,,,,,,,,,,,,,,,,,,,,,,,,,,,,,,,,,,,,,,,,,,,,,,,,,,,,,,,,,,,,,,,,,,,,,,,,,,,,,,,,,,,,,
,,,,,,60f680ce31ba0cae7ac7d716,62c538decc76923a56d01ccb,2022-07-06_09h27.30.324,Colour_Asymmetry_Pilot,2022.1.3,Win32,59.55926147,62c50e9c1127f2cd403a315f,0,95,95,50,1,twoone,,,,,,,,,,,,,,,,,,,,,,,,,,,,,,,,,,,,,,,,,,,,,,,,,,,,,,,,,,,,,,,,,,,,,,,,,,,,,,,,,,,,,,,,,,,,,,,,,,,,,,,,,,,,,,,,,,,,,,,,,,,,,,,,,,,,,,,,,,,,,,,,,,,,,,,,,,,,,
,,,,,,60f680ce31ba0cae7ac7d716,62c538decc76923a56d01ccb,2022-07-06_09h27.30.324,Colour_Asymmetry_Pilot,2022.1.3,Win32,59.55926147,62c50e9c1127f2cd403a315f,0,96,96,134,1,fourtwo,,,,,,,,,,,,,,,,,,,,,,,,,,,,,,,,,,,,,,,,,,,,,,,,,,,,,,,,,,,,,,,,,,,,,,,,,,,,,,,,,,,,,,,,,,,,,,,,,,,,,,,,,,,,,,,,,,,,,,,,,,,,,,,,,,,,,,,,,,,,,,,,,,,,,,,,,,,,,
,,,,,,60f680ce31ba0cae7ac7d716,62c538decc76923a56d01ccb,2022-07-06_09h27.30.324,Colour_Asymmetry_Pilot,2022.1.3,Win32,59.55926147,62c50e9c1127f2cd403a315f,0,97,97,111,1,fourthree,,,,,,,,,,,,,,,,,,,,,,,,,,,,,,,,,,,,,,,,,,,,,,,,,,,,,,,,,,,,,,,,,,,,,,,,,,,,,,,,,,,,,,,,,,,,,,,,,,,,,,,,,,,,,,,,,,,,,,,,,,,,,,,,,,,,,,,,,,,,,,,,,,,,,,,,,,,,,
,,,,,,60f680ce31ba0cae7ac7d716,62c538decc76923a56d01ccb,2022-07-06_09h27.30.324,Colour_Asymmetry_Pilot,2022.1.3,Win32,59.55926147,62c50e9c1127f2cd403a315f,0,98,98,51,1,twofour,,,,,,,,,,,,,,,,,,,,,,,,,,,,,,,,,,,,,,,,,,,,,,,,,,,,,,,,,,,,,,,,,,,,,,,,,,,,,,,,,,,,,,,,,,,,,,,,,,,,,,,,,,,,,,,,,,,,,,,,,,,,,,,,,,,,,,,,,,,,,,,,,,,,,,,,,,,,,
,,,,,,60f680ce31ba0cae7ac7d716,62c538decc76923a56d01ccb,2022-07-06_09h27.30.324,Colour_Asymmetry_Pilot,2022.1.3,Win32,59.55926147,62c50e9c1127f2cd403a315f,0,99,99,143,1,fourthree,,,,,,,,,,,,,,,,,,,,,,,,,,,,,,,,,,,,,,,,,,,,,,,,,,,,,,,,,,,,,,,,,,,,,,,,,,,,,,,,,,,,,,,,,,,,,,,,,,,,,,,,,,,,,,,,,,,,,,,,,,,,,,,,,,,,,,,,,,,,,,,,,,,,,,,,,,,,,
,,,,,,60f680ce31ba0cae7ac7d716,62c538decc76923a56d01ccb,2022-07-06_09h27.30.324,Colour_Asymmetry_Pilot,2022.1.3,Win32,59.55926147,62c50e9c1127f2cd403a315f,0,100,100,33,1,onethree,,,,,,,,,,,,,,,,,,,,,,,,,,,,,,,,,,,,,,,,,,,,,,,,,,,,,,,,,,,,,,,,,,,,,,,,,,,,,,,,,,,,,,,,,,,,,,,,,,,,,,,,,,,,,,,,,,,,,,,,,,,,,,,,,,,,,,,,,,,,,,,,,,,,,,,,,,,,,
,,,,,,60f680ce31ba0cae7ac7d716,62c538decc76923a56d01ccb,2022-07-06_09h27.30.324,Colour_Asymmetry_Pilot,2022.1.3,Win32,59.55926147,62c50e9c1127f2cd403a315f,0,101,101,58,1,twoone,,,,,,,,,,,,,,,,,,,,,,,,,,,,,,,,,,,,,,,,,,,,,,,,,,,,,,,,,,,,,,,,,,,,,,,,,,,,,,,,,,,,,,,,,,,,,,,,,,,,,,,,,,,,,,,,,,,,,,,,,,,,,,,,,,,,,,,,,,,,,,,,,,,,,,,,,,,,,
,,,,,,60f680ce31ba0cae7ac7d716,62c538decc76923a56d01ccb,2022-07-06_09h27.30.324,Colour_Asymmetry_Pilot,2022.1.3,Win32,59.55926147,62c50e9c1127f2cd403a315f,0,102,102,112,1,onetwo,,,,,,,,,,,,,,,,,,,,,,,,,,,,,,,,,,,,,,,,,,,,,,,,,,,,,,,,,,,,,,,,,,,,,,,,,,,,,,,,,,,,,,,,,,,,,,,,,,,,,,,,,,,,,,,,,,,,,,,,,,,,,,,,,,,,,,,,,,,,,,,,,,,,,,,,,,,,,
,,,,,,60f680ce31ba0cae7ac7d716,62c538decc76923a56d01ccb,2022-07-06_09h27.30.324,Colour_Asymmetry_Pilot,2022.1.3,Win32,59.55926147,62c50e9c1127f2cd403a315f,0,103,103,59,1,twofour,,,,,,,,,,,,,,,,,,,,,,,,,,,,,,,,,,,,,,,,,,,,,,,,,,,,,,,,,,,,,,,,,,,,,,,,,,,,,,,,,,,,,,,,,,,,,,,,,,,,,,,,,,,,,,,,,,,,,,,,,,,,,,,,,,,,,,,,,,,,,,,,,,,,,,,,,,,,,
,,,,,,60f680ce31ba0cae7ac7d716,62c538decc76923a56d01ccb,2022-07-06_09h27.30.324,Colour_Asymmetry_Pilot,2022.1.3,Win32,59.55926147,62c50e9c1127f2cd403a315f,0,104,104,132,1,threeone,,,,,,,,,,,,,,,,,,,,,,,,,,,,,,,,,,,,,,,,,,,,,,,,,,,,,,,,,,,,,,,,,,,,,,,,,,,,,,,,,,,,,,,,,,,,,,,,,,,,,,,,,,,,,,,,,,,,,,,,,,,,,,,,,,,,,,,,,,,,,,,,,,,,,,,,,,,,,
,,,,,,60f680ce31ba0cae7ac7d716,62c538decc76923a56d01ccb,2022-07-06_09h27.30.324,Colour_Asymmetry_Pilot,2022.1.3,Win32,59.55926147,62c50e9c1127f2cd403a315f,0,105,105,21,1,threefour,,,,,,,,,,,,,,,,,,,,,,,,,,,,,,,,,,,,,,,,,,,,,,,,,,,,,,,,,,,,,,,,,,,,,,,,,,,,,,,,,,,,,,,,,,,,,,,,,,,,,,,,,,,,,,,,,,,,,,,,,,,,,,,,,,,,,,,,,,,,,,,,,,,,,,,,,,,,,
,,,,,,60f680ce31ba0cae7ac7d716,62c538decc76923a56d01ccb,2022-07-06_09h27.30.324,Colour_Asymmetry_Pilot,2022.1.3,Win32,59.55926147,62c50e9c1127f2cd403a315f,0,106,106,86,1,fourtwo,,,,,,,,,,,,,,,,,,,,,,,,,,,,,,,,,,,,,,,,,,,,,,,,,,,,,,,,,,,,,,,,,,,,,,,,,,,,,,,,,,,,,,,,,,,,,,,,,,,,,,,,,,,,,,,,,,,,,,,,,,,,,,,,,,,,,,,,,,,,,,,,,,,,,,,,,,,,,
,,,,,,60f680ce31ba0cae7ac7d716,62c538decc76923a56d01ccb,2022-07-06_09h27.30.324,Colour_Asymmetry_Pilot,2022.1.3,Win32,59.55926147,62c50e9c1127f2cd403a315f,0,107,107,14,1,fourtwo,,,,,,,,,,,,,,,,,,,,,,,,,,,,,,,,,,,,,,,,,,,,,,,,,,,,,,,,,,,,,,,,,,,,,,,,,,,,,,,,,,,,,,,,,,,,,,,,,,,,,,,,,,,,,,,,,,,,,,,,,,,,,,,,,,,,,,,,,,,,,,,,,,,,,,,,,,,,,
,,,,,,60f680ce31ba0cae7ac7d716,62c538decc76923a56d01ccb,2022-07-06_09h27.30.324,Colour_Asymmetry_Pilot,2022.1.3,Win32,59.55926147,62c50e9c1127f2cd403a315f,0,108,108,46,1,fourtwo,,,,,,,,,,,,,,,,,,,,,,,,,,,,,,,,,,,,,,,,,,,,,,,,,,,,,,,,,,,,,,,,,,,,,,,,,,,,,,,,,,,,,,,,,,,,,,,,,,,,,,,,,,,,,,,,,,,,,,,,,,,,,,,,,,,,,,,,,,,,,,,,,,,,,,,,,,,,,
,,,,,,60f680ce31ba0cae7ac7d716,62c538decc76923a56d01ccb,2022-07-06_09h27.30.324,Colour_Asymmetry_Pilot,2022.1.3,Win32,59.55926147,62c50e9c1127f2cd403a315f,0,109,109,122,1,twoone,,,,,,,,,,,,,,,,,,,,,,,,,,,,,,,,,,,,,,,,,,,,,,,,,,,,,,,,,,,,,,,,,,,,,,,,,,,,,,,,,,,,,,,,,,,,,,,,,,,,,,,,,,,,,,,,,,,,,,,,,,,,,,,,,,,,,,,,,,,,,,,,,,,,,,,,,,,,,
,,,,,,60f680ce31ba0cae7ac7d716,62c538decc76923a56d01ccb,2022-07-06_09h27.30.324,Colour_Asymmetry_Pilot,2022.1.3,Win32,59.55926147,62c50e9c1127f2cd403a315f,0,110,110,159,1,fourthree,,,,,,,,,,,,,,,,,,,,,,,,,,,,,,,,,,,,,,,,,,,,,,,,,,,,,,,,,,,,,,,,,,,,,,,,,,,,,,,,,,,,,,,,,,,,,,,,,,,,,,,,,,,,,,,,,,,,,,,,,,,,,,,,,,,,,,,,,,,,,,,,,,,,,,,,,,,,,
,,,,,,60f680ce31ba0cae7ac7d716,62c538decc76923a56d01ccb,2022-07-06_09h27.30.324,Colour_Asymmetry_Pilot,2022.1.3,Win32,59.55926147,62c50e9c1127f2cd403a315f,0,111,111,79,1,fourthree,,,,,,,,,,,,,,,,,,,,,,,,,,,,,,,,,,,,,,,,,,,,,,,,,,,,,,,,,,,,,,,,,,,,,,,,,,,,,,,,,,,,,,,,,,,,,,,,,,,,,,,,,,,,,,,,,,,,,,,,,,,,,,,,,,,,,,,,,,,,,,,,,,,,,,,,,,,,,
,,,,,,60f680ce31ba0cae7ac7d716,62c538decc76923a56d01ccb,2022-07-06_09h27.30.324,Colour_Asymmetry_Pilot,2022.1.3,Win32,59.55926147,62c50e9c1127f2cd403a315f,0,112,112,19,1,twofour,,,,,,,,,,,,,,,,,,,,,,,,,,,,,,,,,,,,,,,,,,,,,,,,,,,,,,,,,,,,,,,,,,,,,,,,,,,,,,,,,,,,,,,,,,,,,,,,,,,,,,,,,,,,,,,,,,,,,,,,,,,,,,,,,,,,,,,,,,,,,,,,,,,,,,,,,,,,,
,,,,,,60f680ce31ba0cae7ac7d716,62c538decc76923a56d01ccb,2022-07-06_09h27.30.324,Colour_Asymmetry_Pilot,2022.1.3,Win32,59.55926147,62c50e9c1127f2cd403a315f,0,113,113,78,1,fourtwo,,,,,,,,,,,,,,,,,,,,,,,,,,,,,,,,,,,,,,,,,,,,,,,,,,,,,,,,,,,,,,,,,,,,,,,,,,,,,,,,,,,,,,,,,,,,,,,,,,,,,,,,,,,,,,,,,,,,,,,,,,,,,,,,,,,,,,,,,,,,,,,,,,,,,,,,,,,,,
,,,,,,60f680ce31ba0cae7ac7d716,62c538decc76923a56d01ccb,2022-07-06_09h27.30.324,Colour_Asymmetry_Pilot,2022.1.3,Win32,59.55926147,62c50e9c1127f2cd403a315f,0,114,114,47,1,fourthree,,,,,,,,,,,,,,,,,,,,,,,,,,,,,,,,,,,,,,,,,,,,,,,,,,,,,,,,,,,,,,,,,,,,,,,,,,,,,,,,,,,,,,,,,,,,,,,,,,,,,,,,,,,,,,,,,,,,,,,,,,,,,,,,,,,,,,,,,,,,,,,,,,,,,,,,,,,,,
,,,,,,60f680ce31ba0cae7ac7d716,62c538decc76923a56d01ccb,2022-07-06_09h27.30.324,Colour_Asymmetry_Pilot,2022.1.3,Win32,59.55926147,62c50e9c1127f2cd403a315f,0,115,115,64,1,onetwo,,,,,,,,,,,,,,,,,,,,,,,,,,,,,,,,,,,,,,,,,,,,,,,,,,,,,,,,,,,,,,,,,,,,,,,,,,,,,,,,,,,,,,,,,,,,,,,,,,,,,,,,,,,,,,,,,,,,,,,,,,,,,,,,,,,,,,,,,,,,,,,,,,,,,,,,,,,,,
,,,,,,60f680ce31ba0cae7ac7d716,62c538decc76923a56d01ccb,2022-07-06_09h27.30.324,Colour_Asymmetry_Pilot,2022.1.3,Win32,59.55926147,62c50e9c1127f2cd403a315f,0,116,116,11,1,twofour,,,,,,,,,,,,,,,,,,,,,,,,,,,,,,,,,,,,,,,,,,,,,,,,,,,,,,,,,,,,,,,,,,,,,,,,,,,,,,,,,,,,,,,,,,,,,,,,,,,,,,,,,,,,,,,,,,,,,,,,,,,,,,,,,,,,,,,,,,,,,,,,,,,,,,,,,,,,,
,,,,,,60f680ce31ba0cae7ac7d716,62c538decc76923a56d01ccb,2022-07-06_09h27.30.324,Colour_Asymmetry_Pilot,2022.1.3,Win32,59.55926147,62c50e9c1127f2cd403a315f,0,117,117,140,1,threeone,,,,,,,,,,,,,,,,,,,,,,,,,,,,,,,,,,,,,,,,,,,,,,,,,,,,,,,,,,,,,,,,,,,,,,,,,,,,,,,,,,,,,,,,,,,,,,,,,,,,,,,,,,,,,,,,,,,,,,,,,,,,,,,,,,,,,,,,,,,,,,,,,,,,,,,,,,,,,
,,,,,,60f680ce31ba0cae7ac7d716,62c538decc76923a56d01ccb,2022-07-06_09h27.30.324,Colour_Asymmetry_Pilot,2022.1.3,Win32,59.55926147,62c50e9c1127f2cd403a315f,0,118,118,24,1,onetwo,,,,,,,,,,,,,,,,,,,,,,,,,,,,,,,,,,,,,,,,,,,,,,,,,,,,,,,,,,,,,,,,,,,,,,,,,,,,,,,,,,,,,,,,,,,,,,,,,,,,,,,,,,,,,,,,,,,,,,,,,,,,,,,,,,,,,,,,,,,,,,,,,,,,,,,,,,,,,
,,,,,,60f680ce31ba0cae7ac7d716,62c538decc76923a56d01ccb,2022-07-06_09h27.30.324,Colour_Asymmetry_Pilot,2022.1.3,Win32,59.55926147,62c50e9c1127f2cd403a315f,0,119,119,35,1,twofour,,,,,,,,,,,,,,,,,,,,,,,,,,,,,,,,,,,,,,,,,,,,,,,,,,,,,,,,,,,,,,,,,,,,,,,,,,,,,,,,,,,,,,,,,,,,,,,,,,,,,,,,,,,,,,,,,,,,,,,,,,,,,,,,,,,,,,,,,,,,,,,,,,,,,,,,,,,,,
,,,,,,60f680ce31ba0cae7ac7d716,62c538decc76923a56d01ccb,2022-07-06_09h27.30.324,Colour_Asymmetry_Pilot,2022.1.3,Win32,59.55926147,62c50e9c1127f2cd403a315f,0,120,120,13,1,threefour,,,,,,,,,,,,,,,,,,,,,,,,,,,,,,,,,,,,,,,,,,,,,,,,,,,,,,,,,,,,,,,,,,,,,,,,,,,,,,,,,,,,,,,,,,,,,,,,,,,,,,,,,,,,,,,,,,,,,,,,,,,,,,,,,,,,,,,,,,,,,,,,,,,,,,,,,,,,,
,,,,,,60f680ce31ba0cae7ac7d716,62c538decc76923a56d01ccb,2022-07-06_09h27.30.324,Colour_Asymmetry_Pilot,2022.1.3,Win32,59.55926147,62c50e9c1127f2cd403a315f,0,121,121,121,1,onethree,,,,,,,,,,,,,,,,,,,,,,,,,,,,,,,,,,,,,,,,,,,,,,,,,,,,,,,,,,,,,,,,,,,,,,,,,,,,,,,,,,,,,,,,,,,,,,,,,,,,,,,,,,,,,,,,,,,,,,,,,,,,,,,,,,,,,,,,,,,,,,,,,,,,,,,,,,,,,
,,,,,,60f680ce31ba0cae7ac7d716,62c538decc76923a56d01ccb,2022-07-06_09h27.30.324,Colour_Asymmetry_Pilot,2022.1.3,Win32,59.55926147,62c50e9c1127f2cd403a315f,0,122,122,142,1,fourtwo,,,,,,,,,,,,,,,,,,,,,,,,,,,,,,,,,,,,,,,,,,,,,,,,,,,,,,,,,,,,,,,,,,,,,,,,,,,,,,,,,,,,,,,,,,,,,,,,,,,,,,,,,,,,,,,,,,,,,,,,,,,,,,,,,,,,,,,,,,,,,,,,,,,,,,,,,,,,,
,,,,,,60f680ce31ba0cae7ac7d716,62c538decc76923a56d01ccb,2022-07-06_09h27.30.324,Colour_Asymmetry_Pilot,2022.1.3,Win32,59.55926147,62c50e9c1127f2cd403a315f,0,123,123,45,1,threefour,,,,,,,,,,,,,,,,,,,,,,,,,,,,,,,,,,,,,,,,,,,,,,,,,,,,,,,,,,,,,,,,,,,,,,,,,,,,,,,,,,,,,,,,,,,,,,,,,,,,,,,,,,,,,,,,,,,,,,,,,,,,,,,,,,,,,,,,,,,,,,,,,,,,,,,,,,,,,
,,,,,,60f680ce31ba0cae7ac7d716,62c538decc76923a56d01ccb,2022-07-06_09h27.30.324,Colour_Asymmetry_Pilot,2022.1.3,Win32,59.55926147,62c50e9c1127f2cd403a315f,0,124,124,25,1,onethree,,,,,,,,,,,,,,,,,,,,,,,,,,,,,,,,,,,,,,,,,,,,,,,,,,,,,,,,,,,,,,,,,,,,,,,,,,,,,,,,,,,,,,,,,,,,,,,,,,,,,,,,,,,,,,,,,,,,,,,,,,,,,,,,,,,,,,,,,,,,,,,,,,,,,,,,,,,,,
,,,,,,60f680ce31ba0cae7ac7d716,62c538decc76923a56d01ccb,2022-07-06_09h27.30.324,Colour_Asymmetry_Pilot,2022.1.3,Win32,59.55926147,62c50e9c1127f2cd403a315f,0,125,125,92,1,threeone,,,,,,,,,,,,,,,,,,,,,,,,,,,,,,,,,,,,,,,,,,,,,,,,,,,,,,,,,,,,,,,,,,,,,,,,,,,,,,,,,,,,,,,,,,,,,,,,,,,,,,,,,,,,,,,,,,,,,,,,,,,,,,,,,,,,,,,,,,,,,,,,,,,,,,,,,,,,,
,,,,,,60f680ce31ba0cae7ac7d716,62c538decc76923a56d01ccb,2022-07-06_09h27.30.324,Colour_Asymmetry_Pilot,2022.1.3,Win32,59.55926147,62c50e9c1127f2cd403a315f,0,126,126,18,1,twoone,,,,,,,,,,,,,,,,,,,,,,,,,,,,,,,,,,,,,,,,,,,,,,,,,,,,,,,,,,,,,,,,,,,,,,,,,,,,,,,,,,,,,,,,,,,,,,,,,,,,,,,,,,,,,,,,,,,,,,,,,,,,,,,,,,,,,,,,,,,,,,,,,,,,,,,,,,,,,
,,,,,,60f680ce31ba0cae7ac7d716,62c538decc76923a56d01ccb,2022-07-06_09h27.30.324,Colour_Asymmetry_Pilot,2022.1.3,Win32,59.55926147,62c50e9c1127f2cd403a315f,0,127,127,22,1,fourtwo,,,,,,,,,,,,,,,,,,,,,,,,,,,,,,,,,,,,,,,,,,,,,,,,,,,,,,,,,,,,,,,,,,,,,,,,,,,,,,,,,,,,,,,,,,,,,,,,,,,,,,,,,,,,,,,,,,,,,,,,,,,,,,,,,,,,,,,,,,,,,,,,,,,,,,,,,,,,,
,,,,,,60f680ce31ba0cae7ac7d716,62c538decc76923a56d01ccb,2022-07-06_09h27.30.324,Colour_Asymmetry_Pilot,2022.1.3,Win32,59.55926147,62c50e9c1127f2cd403a315f,0,128,128,148,1,threeone,,,,,,,,,,,,,,,,,,,,,,,,,,,,,,,,,,,,,,,,,,,,,,,,,,,,,,,,,,,,,,,,,,,,,,,,,,,,,,,,,,,,,,,,,,,,,,,,,,,,,,,,,,,,,,,,,,,,,,,,,,,,,,,,,,,,,,,,,,,,,,,,,,,,,,,,,,,,,
,,,,,,60f680ce31ba0cae7ac7d716,62c538decc76923a56d01ccb,2022-07-06_09h27.30.324,Colour_Asymmetry_Pilot,2022.1.3,Win32,59.55926147,62c50e9c1127f2cd403a315f,0,129,129,16,1,onetwo,,,,,,,,,,,,,,,,,,,,,,,,,,,,,,,,,,,,,,,,,,,,,,,,,,,,,,,,,,,,,,,,,,,,,,,,,,,,,,,,,,,,,,,,,,,,,,,,,,,,,,,,,,,,,,,,,,,,,,,,,,,,,,,,,,,,,,,,,,,,,,,,,,,,,,,,,,,,,
,,,,,,60f680ce31ba0cae7ac7d716,62c538decc76923a56d01ccb,2022-07-06_09h27.30.324,Colour_Asymmetry_Pilot,2022.1.3,Win32,59.55926147,62c50e9c1127f2cd403a315f,0,130,130,6,1,fourtwo,,,,,,,,,,,,,,,,,,,,,,,,,,,,,,,,,,,,,,,,,,,,,,,,,,,,,,,,,,,,,,,,,,,,,,,,,,,,,,,,,,,,,,,,,,,,,,,,,,,,,,,,,,,,,,,,,,,,,,,,,,,,,,,,,,,,,,,,,,,,,,,,,,,,,,,,,,,,,
,,,,,,60f680ce31ba0cae7ac7d716,62c538decc76923a56d01ccb,2022-07-06_09h27.30.324,Colour_Asymmetry_Pilot,2022.1.3,Win32,59.55926147,62c50e9c1127f2cd403a315f,0,131,131,81,1,onethree,,,,,,,,,,,,,,,,,,,,,,,,,,,,,,,,,,,,,,,,,,,,,,,,,,,,,,,,,,,,,,,,,,,,,,,,,,,,,,,,,,,,,,,,,,,,,,,,,,,,,,,,,,,,,,,,,,,,,,,,,,,,,,,,,,,,,,,,,,,,,,,,,,,,,,,,,,,,,
,,,,,,60f680ce31ba0cae7ac7d716,62c538decc76923a56d01ccb,2022-07-06_09h27.30.324,Colour_Asymmetry_Pilot,2022.1.3,Win32,59.55926147,62c50e9c1127f2cd403a315f,0,132,132,136,1,onetwo,,,,,,,,,,,,,,,,,,,,,,,,,,,,,,,,,,,,,,,,,,,,,,,,,,,,,,,,,,,,,,,,,,,,,,,,,,,,,,,,,,,,,,,,,,,,,,,,,,,,,,,,,,,,,,,,,,,,,,,,,,,,,,,,,,,,,,,,,,,,,,,,,,,,,,,,,,,,,
,,,,,,60f680ce31ba0cae7ac7d716,62c538decc76923a56d01ccb,2022-07-06_09h27.30.324,Colour_Asymmetry_Pilot,2022.1.3,Win32,59.55926147,62c50e9c1127f2cd403a315f,0,133,133,129,1,onethree,,,,,,,,,,,,,,,,,,,,,,,,,,,,,,,,,,,,,,,,,,,,,,,,,,,,,,,,,,,,,,,,,,,,,,,,,,,,,,,,,,,,,,,,,,,,,,,,,,,,,,,,,,,,,,,,,,,,,,,,,,,,,,,,,,,,,,,,,,,,,,,,,,,,,,,,,,,,,
,,,,,,60f680ce31ba0cae7ac7d716,62c538decc76923a56d01ccb,2022-07-06_09h27.30.324,Colour_Asymmetry_Pilot,2022.1.3,Win32,59.55926147,62c50e9c1127f2cd403a315f,0,134,134,126,1,fourtwo,,,,,,,,,,,,,,,,,,,,,,,,,,,,,,,,,,,,,,,,,,,,,,,,,,,,,,,,,,,,,,,,,,,,,,,,,,,,,,,,,,,,,,,,,,,,,,,,,,,,,,,,,,,,,,,,,,,,,,,,,,,,,,,,,,,,,,,,,,,,,,,,,,,,,,,,,,,,,
,,,,,,60f680ce31ba0cae7ac7d716,62c538decc76923a56d01ccb,2022-07-06_09h27.30.324,Colour_Asymmetry_Pilot,2022.1.3,Win32,59.55926147,62c50e9c1127f2cd403a315f,0,135,135,161,1,onethree,,,,,,,,,,,,,,,,,,,,,,,,,,,,,,,,,,,,,,,,,,,,,,,,,,,,,,,,,,,,,,,,,,,,,,,,,,,,,,,,,,,,,,,,,,,,,,,,,,,,,,,,,,,,,,,,,,,,,,,,,,,,,,,,,,,,,,,,,,,,,,,,,,,,,,,,,,,,,
,,,,,,60f680ce31ba0cae7ac7d716,62c538decc76923a56d01ccb,2022-07-06_09h27.30.324,Colour_Asymmetry_Pilot,2022.1.3,Win32,59.55926147,62c50e9c1127f2cd403a315f,0,136,136,77,1,threefour,,,,,,,,,,,,,,,,,,,,,,,,,,,,,,,,,,,,,,,,,,,,,,,,,,,,,,,,,,,,,,,,,,,,,,,,,,,,,,,,,,,,,,,,,,,,,,,,,,,,,,,,,,,,,,,,,,,,,,,,,,,,,,,,,,,,,,,,,,,,,,,,,,,,,,,,,,,,,
,,,,,,60f680ce31ba0cae7ac7d716,62c538decc76923a56d01ccb,2022-07-06_09h27.30.324,Colour_Asymmetry_Pilot,2022.1.3,Win32,59.55926147,62c50e9c1127f2cd403a315f,0,137,137,91,1,twofour,,,,,,,,,,,,,,,,,,,,,,,,,,,,,,,,,,,,,,,,,,,,,,,,,,,,,,,,,,,,,,,,,,,,,,,,,,,,,,,,,,,,,,,,,,,,,,,,,,,,,,,,,,,,,,,,,,,,,,,,,,,,,,,,,,,,,,,,,,,,,,,,,,,,,,,,,,,,,
,,,,,,60f680ce31ba0cae7ac7d716,62c538decc76923a56d01ccb,2022-07-06_09h27.30.324,Colour_Asymmetry_Pilot,2022.1.3,Win32,59.55926147,62c50e9c1127f2cd403a315f,0,138,138,15,1,fourthree,,,,,,,,,,,,,,,,,,,,,,,,,,,,,,,,,,,,,,,,,,,,,,,,,,,,,,,,,,,,,,,,,,,,,,,,,,,,,,,,,,,,,,,,,,,,,,,,,,,,,,,,,,,,,,,,,,,,,,,,,,,,,,,,,,,,,,,,,,,,,,,,,,,,,,,,,,,,,
,,,,,,60f680ce31ba0cae7ac7d716,62c538decc76923a56d01ccb,2022-07-06_09h27.30.324,Colour_Asymmetry_Pilot,2022.1.3,Win32,59.55926147,62c50e9c1127f2cd403a315f,0,139,139,151,1,fourthree,,,,,,,,,,,,,,,,,,,,,,,,,,,,,,,,,,,,,,,,,,,,,,,,,,,,,,,,,,,,,,,,,,,,,,,,,,,,,,,,,,,,,,,,,,,,,,,,,,,,,,,,,,,,,,,,,,,,,,,,,,,,,,,,,,,,,,,,,,,,,,,,,,,,,,,,,,,,,
,,,,,,60f680ce31ba0cae7ac7d716,62c538decc76923a56d01ccb,2022-07-06_09h27.30.324,Colour_Asymmetry_Pilot,2022.1.3,Win32,59.55926147,62c50e9c1127f2cd403a315f,0,140,140,40,1,onetwo,,,,,,,,,,,,,,,,,,,,,,,,,,,,,,,,,,,,,,,,,,,,,,,,,,,,,,,,,,,,,,,,,,,,,,,,,,,,,,,,,,,,,,,,,,,,,,,,,,,,,,,,,,,,,,,,,,,,,,,,,,,,,,,,,,,,,,,,,,,,,,,,,,,,,,,,,,,,,
,,,,,,60f680ce31ba0cae7ac7d716,62c538decc76923a56d01ccb,2022-07-06_09h27.30.324,Colour_Asymmetry_Pilot,2022.1.3,Win32,59.55926147,62c50e9c1127f2cd403a315f,0,141,141,53,1,threefour,,,,,,,,,,,,,,,,,,,,,,,,,,,,,,,,,,,,,,,,,,,,,,,,,,,,,,,,,,,,,,,,,,,,,,,,,,,,,,,,,,,,,,,,,,,,,,,,,,,,,,,,,,,,,,,,,,,,,,,,,,,,,,,,,,,,,,,,,,,,,,,,,,,,,,,,,,,,,
,,,,,,60f680ce31ba0cae7ac7d716,62c538decc76923a56d01ccb,2022-07-06_09h27.30.324,Colour_Asymmetry_Pilot,2022.1.3,Win32,59.55926147,62c50e9c1127f2cd403a315f,0,142,142,39,1,fourthree,,,,,,,,,,,,,,,,,,,,,,,,,,,,,,,,,,,,,,,,,,,,,,,,,,,,,,,,,,,,,,,,,,,,,,,,,,,,,,,,,,,,,,,,,,,,,,,,,,,,,,,,,,,,,,,,,,,,,,,,,,,,,,,,,,,,,,,,,,,,,,,,,,,,,,,,,,,,,
,,,,,,60f680ce31ba0cae7ac7d716,62c538decc76923a56d01ccb,2022-07-06_09h27.30.324,Colour_Asymmetry_Pilot,2022.1.3,Win32,59.55926147,62c50e9c1127f2cd403a315f,0,143,143,96,1,onetwo,,,,,,,,,,,,,,,,,,,,,,,,,,,,,,,,,,,,,,,,,,,,,,,,,,,,,,,,,,,,,,,,,,,,,,,,,,,,,,,,,,,,,,,,,,,,,,,,,,,,,,,,,,,,,,,,,,,,,,,,,,,,,,,,,,,,,,,,,,,,,,,,,,,,,,,,,,,,,
,,,,,,60f680ce31ba0cae7ac7d716,62c538decc76923a56d01ccb,2022-07-06_09h27.30.324,Colour_Asymmetry_Pilot,2022.1.3,Win32,59.55926147,62c50e9c1127f2cd403a315f,0,144,144,70,1,fourtwo,,,,,,,,,,,,,,,,,,,,,,,,,,,,,,,,,,,,,,,,,,,,,,,,,,,,,,,,,,,,,,,,,,,,,,,,,,,,,,,,,,,,,,,,,,,,,,,,,,,,,,,,,,,,,,,,,,,,,,,,,,,,,,,,,,,,,,,,,,,,,,,,,,,,,,,,,,,,,
,,,,,,60f680ce31ba0cae7ac7d716,62c538decc76923a56d01ccb,2022-07-06_09h27.30.324,Colour_Asymmetry_Pilot,2022.1.3,Win32,59.55926147,62c50e9c1127f2cd403a315f,0,145,145,153,1,onethree,,,,,,,,,,,,,,,,,,,,,,,,,,,,,,,,,,,,,,,,,,,,,,,,,,,,,,,,,,,,,,,,,,,,,,,,,,,,,,,,,,,,,,,,,,,,,,,,,,,,,,,,,,,,,,,,,,,,,,,,,,,,,,,,,,,,,,,,,,,,,,,,,,,,,,,,,,,,,
,,,,,,60f680ce31ba0cae7ac7d716,62c538decc76923a56d01ccb,2022-07-06_09h27.30.324,Colour_Asymmetry_Pilot,2022.1.3,Win32,59.55926147,62c50e9c1127f2cd403a315f,0,146,146,152,1,onetwo,,,,,,,,,,,,,,,,,,,,,,,,,,,,,,,,,,,,,,,,,,,,,,,,,,,,,,,,,,,,,,,,,,,,,,,,,,,,,,,,,,,,,,,,,,,,,,,,,,,,,,,,,,,,,,,,,,,,,,,,,,,,,,,,,,,,,,,,,,,,,,,,,,,,,,,,,,,,,
,,,,,,60f680ce31ba0cae7ac7d716,62c538decc76923a56d01ccb,2022-07-06_09h27.30.324,Colour_Asymmetry_Pilot,2022.1.3,Win32,59.55926147,62c50e9c1127f2cd403a315f,0,147,147,131,1,twofour,,,,,,,,,,,,,,,,,,,,,,,,,,,,,,,,,,,,,,,,,,,,,,,,,,,,,,,,,,,,,,,,,,,,,,,,,,,,,,,,,,,,,,,,,,,,,,,,,,,,,,,,,,,,,,,,,,,,,,,,,,,,,,,,,,,,,,,,,,,,,,,,,,,,,,,,,,,,,
,,,,,,60f680ce31ba0cae7ac7d716,62c538decc76923a56d01ccb,2022-07-06_09h27.30.324,Colour_Asymmetry_Pilot,2022.1.3,Win32,59.55926147,62c50e9c1127f2cd403a315f,0,148,148,110,1,fourtwo,,,,,,,,,,,,,,,,,,,,,,,,,,,,,,,,,,,,,,,,,,,,,,,,,,,,,,,,,,,,,,,,,,,,,,,,,,,,,,,,,,,,,,,,,,,,,,,,,,,,,,,,,,,,,,,,,,,,,,,,,,,,,,,,,,,,,,,,,,,,,,,,,,,,,,,,,,,,,
,,,,,,60f680ce31ba0cae7ac7d716,62c538decc76923a56d01ccb,2022-07-06_09h27.30.324,Colour_Asymmetry_Pilot,2022.1.3,Win32,59.55926147,62c50e9c1127f2cd403a315f,0,149,149,145,1,onethree,,,,,,,,,,,,,,,,,,,,,,,,,,,,,,,,,,,,,,,,,,,,,,,,,,,,,,,,,,,,,,,,,,,,,,,,,,,,,,,,,,,,,,,,,,,,,,,,,,,,,,,,,,,,,,,,,,,,,,,,,,,,,,,,,,,,,,,,,,,,,,,,,,,,,,,,,,,,,
,,,,,,60f680ce31ba0cae7ac7d716,62c538decc76923a56d01ccb,2022-07-06_09h27.30.324,Colour_Asymmetry_Pilot,2022.1.3,Win32,59.55926147,62c50e9c1127f2cd403a315f,0,150,150,42,1,twoone,,,,,,,,,,,,,,,,,,,,,,,,,,,,,,,,,,,,,,,,,,,,,,,,,,,,,,,,,,,,,,,,,,,,,,,,,,,,,,,,,,,,,,,,,,,,,,,,,,,,,,,,,,,,,,,,,,,,,,,,,,,,,,,,,,,,,,,,,,,,,,,,,,,,,,,,,,,,,
,,,,,,60f680ce31ba0cae7ac7d716,62c538decc76923a56d01ccb,2022-07-06_09h27.30.324,Colour_Asymmetry_Pilot,2022.1.3,Win32,59.55926147,62c50e9c1127f2cd403a315f,0,151,151,38,1,fourtwo,,,,,,,,,,,,,,,,,,,,,,,,,,,,,,,,,,,,,,,,,,,,,,,,,,,,,,,,,,,,,,,,,,,,,,,,,,,,,,,,,,,,,,,,,,,,,,,,,,,,,,,,,,,,,,,,,,,,,,,,,,,,,,,,,,,,,,,,,,,,,,,,,,,,,,,,,,,,,
,,,,,,60f680ce31ba0cae7ac7d716,62c538decc76923a56d01ccb,2022-07-06_09h27.30.324,Colour_Asymmetry_Pilot,2022.1.3,Win32,59.55926147,62c50e9c1127f2cd403a315f,0,152,152,117,1,threefour,,,,,,,,,,,,,,,,,,,,,,,,,,,,,,,,,,,,,,,,,,,,,,,,,,,,,,,,,,,,,,,,,,,,,,,,,,,,,,,,,,,,,,,,,,,,,,,,,,,,,,,,,,,,,,,,,,,,,,,,,,,,,,,,,,,,,,,,,,,,,,,,,,,,,,,,,,,,,
,,,,,,60f680ce31ba0cae7ac7d716,62c538decc76923a56d01ccb,2022-07-06_09h27.30.324,Colour_Asymmetry_Pilot,2022.1.3,Win32,59.55926147,62c50e9c1127f2cd403a315f,0,153,153,150,1,fourtwo,,,,,,,,,,,,,,,,,,,,,,,,,,,,,,,,,,,,,,,,,,,,,,,,,,,,,,,,,,,,,,,,,,,,,,,,,,,,,,,,,,,,,,,,,,,,,,,,,,,,,,,,,,,,,,,,,,,,,,,,,,,,,,,,,,,,,,,,,,,,,,,,,,,,,,,,,,,,,
,,,,,,60f680ce31ba0cae7ac7d716,62c538decc76923a56d01ccb,2022-07-06_09h27.30.324,Colour_Asymmetry_Pilot,2022.1.3,Win32,59.55926147,62c50e9c1127f2cd403a315f,0,154,154,12,1,threeone,,,,,,,,,,,,,,,,,,,,,,,,,,,,,,,,,,,,,,,,,,,,,,,,,,,,,,,,,,,,,,,,,,,,,,,,,,,,,,,,,,,,,,,,,,,,,,,,,,,,,,,,,,,,,,,,,,,,,,,,,,,,,,,,,,,,,,,,,,,,,,,,,,,,,,,,,,,,,
,,,,,,60f680ce31ba0cae7ac7d716,62c538decc76923a56d01ccb,2022-07-06_09h27.30.324,Colour_Asymmetry_Pilot,2022.1.3,Win32,59.55926147,62c50e9c1127f2cd403a315f,0,155,155,130,1,twoone,,,,,,,,,,,,,,,,,,,,,,,,,,,,,,,,,,,,,,,,,,,,,,,,,,,,,,,,,,,,,,,,,,,,,,,,,,,,,,,,,,,,,,,,,,,,,,,,,,,,,,,,,,,,,,,,,,,,,,,,,,,,,,,,,,,,,,,,,,,,,,,,,,,,,,,,,,,,,
,,,,,,60f680ce31ba0cae7ac7d716,62c538decc76923a56d01ccb,2022-07-06_09h27.30.324,Colour_Asymmetry_Pilot,2022.1.3,Win32,59.55926147,62c50e9c1127f2cd403a315f,0,156,156,125,1,threefour,,,,,,,,,,,,,,,,,,,,,,,,,,,,,,,,,,,,,,,,,,,,,,,,,,,,,,,,,,,,,,,,,,,,,,,,,,,,,,,,,,,,,,,,,,,,,,,,,,,,,,,,,,,,,,,,,,,,,,,,,,,,,,,,,,,,,,,,,,,,,,,,,,,,,,,,,,,,,
,,,,,,60f680ce31ba0cae7ac7d716,62c538decc76923a56d01ccb,2022-07-06_09h27.30.324,Colour_Asymmetry_Pilot,2022.1.3,Win32,59.55926147,62c50e9c1127f2cd403a315f,0,157,157,146,1,twoone,,,,,,,,,,,,,,,,,,,,,,,,,,,,,,,,,,,,,,,,,,,,,,,,,,,,,,,,,,,,,,,,,,,,,,,,,,,,,,,,,,,,,,,,,,,,,,,,,,,,,,,,,,,,,,,,,,,,,,,,,,,,,,,,,,,,,,,,,,,,,,,,,,,,,,,,,,,,,
,,,,,,60f680ce31ba0cae7ac7d716,62c538decc76923a56d01ccb,2022-07-06_09h27.30.324,Colour_Asymmetry_Pilot,2022.1.3,Win32,59.55926147,62c50e9c1127f2cd403a315f,0,158,158,20,1,threeone,,,,,,,,,,,,,,,,,,,,,,,,,,,,,,,,,,,,,,,,,,,,,,,,,,,,,,,,,,,,,,,,,,,,,,,,,,,,,,,,,,,,,,,,,,,,,,,,,,,,,,,,,,,,,,,,,,,,,,,,,,,,,,,,,,,,,,,,,,,,,,,,,,,,,,,,,,,,,
,,,,,,60f680ce31ba0cae7ac7d716,62c538decc76923a56d01ccb,2022-07-06_09h27.30.324,Colour_Asymmetry_Pilot,2022.1.3,Win32,59.55926147,62c50e9c1127f2cd403a315f,0,159,159,9,1,onethree,,,,,,,,,,,,,,,,,,,,,,,,,,,,,,,,,,,,,,,,,,,,,,,,,,,,,,,,,,,,,,,,,,,,,,,,,,,,,,,,,,,,,,,,,,,,,,,,,,,,,,,,,,,,,,,,,,,,,,,,,,,,,,,,,,,,,,,,,,,,,,,,,,,,,,,,,,,,,
,,,,,,60f680ce31ba0cae7ac7d716,62c538decc76923a56d01ccb,2022-07-06_09h27.30.324,Colour_Asymmetry_Pilot,2022.1.3,Win32,59.55926147,62c50e9c1127f2cd403a315f,0,160,160,36,1,threeone,,,,,,,,,,,,,,,,,,,,,,,,,,,,,,,,,,,,,,,,,,,,,,,,,,,,,,,,,,,,,,,,,,,,,,,,,,,,,,,,,,,,,,,,,,,,,,,,,,,,,,,,,,,,,,,,,,,,,,,,,,,,,,,,,,,,,,,,,,,,,,,,,,,,,,,,,,,,,
,,,,,,60f680ce31ba0cae7ac7d716,62c538decc76923a56d01ccb,2022-07-06_09h27.30.324,Colour_Asymmetry_Pilot,2022.1.3,Win32,59.55926147,62c50e9c1127f2cd403a315f,0,161,161,87,1,fourthree,,,,,,,,,,,,,,,,,,,,,,,,,,,,,,,,,,,,,,,,,,,,,,,,,,,,,,,,,,,,,,,,,,,,,,,,,,,,,,,,,,,,,,,,,,,,,,,,,,,,,,,,,,,,,,,,,,,,,,,,,,,,,,,,,,,,,,,,,,,,,,,,,,,,,,,,,,,,,
,,,,,,60f680ce31ba0cae7ac7d716,62c538decc76923a56d01ccb,2022-07-06_09h27.30.324,Colour_Asymmetry_Pilot,2022.1.3,Win32,59.55926147,62c50e9c1127f2cd403a315f,,,,,,,space,10.971,space,194.6484,space,174.6671,space,17.3214,space,8.1042,space,9.6101,"[-0.6,0.16860000000000008,0.44300000000000006]",onethree,"[-0.9766,-0.34920000000000007,0.2156]",4,6.9597,51,137,1,0,0,response1disk_5,3,5,1,0,0,rectangle_8,3,5,1,0,0,4,3,5,1,0,0,0,0,0,0,1,,,,,,,,,,,,,,,,,,,,,,,,,,,,,,,,,,,,,,,,,,,,,,,,,,,,,,,,,,,,,,,,,,,,,,,,,,,,,,,,,,,,,,,,,,,,,,,,,,,,,,,,,,,,,,,,
,,,,,,60f680ce31ba0cae7ac7d716,62c538decc76923a56d01ccb,2022-07-06_09h27.30.324,Colour_Asymmetry_Pilot,2022.1.3,Win32,59.55926147,62c50e9c1127f2cd403a315f,,,,,,,,,,,,,,,,,,,"[0.9763999999999999,0.8588,-0.05900000000000005]",fourtwo,"[-0.38039999999999996,-0.4276,-0.1452]",-4,2.7935,-79,131,1,0,0,response7disk_5,3,-3,1,0,0,rectangle_8,3,-3,1,0,0,4,3,-3,1,0,0,1,0,1,0,1,,,,,,,,,,,,,,,,,,,,,,,,,,,,,,,,,,,,,,,,,,,,,,,,,,,,,,,,,,,,,,,,,,,,,,,,,,,,,,,,,,,,,,,,,,,,,,,,,,,,,,,,,,,,,,,,
,,,,,,60f680ce31ba0cae7ac7d716,62c538decc76923a56d01ccb,2022-07-06_09h27.30.324,Colour_Asymmetry_Pilot,2022.1.3,Win32,59.55926147,62c50e9c1127f2cd403a315f,,,,,,,,,,,,,,,,,,,"[-0.6,0.16860000000000008,0.44300000000000006]",onetwo,"[-0.9766,-0.6472,0.07440000000000002]",3,9.1595,92,42,1,0,0,response1disk_5,20,6,1,0,0,rectangle_8,20,6,1,0,0,4,20,6,1,0,0,2,0,2,0,1,,,,,,,,,,,,,,,,,,,,,,,,,,,,,,,,,,,,,,,,,,,,,,,,,,,,,,,,,,,,,,,,,,,,,,,,,,,,,,,,,,,,,,,,,,,,,,,,,,,,,,,,,,,,,,,,
,,,,,,60f680ce31ba0cae7ac7d716,62c538decc76923a56d01ccb,2022-07-06_09h27.30.324,Colour_Asymmetry_Pilot,2022.1.3,Win32,59.55926147,62c50e9c1127f2cd403a315f,,,,,,,,,,,,,,,,,,,"[-0.9688,-0.4902000000000001,-0.12159999999999993]",onetwo,"[-0.9296,-0.12959999999999994,-0.043199999999999905]",2,6.9452,86,-50,1,0,0,response3disk_5,-27,12,1,0,0,rectangle_8,-27,12,1,0,0,4,-27,12,1,0,0,3,0,3,0,1,,,,,,,,,,,,,,,,,,,,,,,,,,,,,,,,,,,,,,,,,,,,,,,,,,,,,,,,,,,,,,,,,,,,,,,,,,,,,,,,,,,,,,,,,,,,,,,,,,,,,,,,,,,,,,,,
,,,,,,60f680ce31ba0cae7ac7d716,62c538decc76923a56d01ccb,2022-07-06_09h27.30.324,Colour_Asymmetry_Pilot,2022.1.3,Win32,59.55926147,62c50e9c1127f2cd403a315f,,,,,,,,,,,,,,,,,,,"[0.6625999999999999,0.4980000000000002,-0.357]",twofour,"[0.7176,-0.906,-0.6864]",-2,2.4752,-128,-46,1,0,0,response5disk_5,-15,-2,1,0,0,rectangle_8,44,111,1,0,0,4,-5,-7,1,0,0,4,0,4,0,1,response1disk_7,7,rectangle_4,,,,,,,,,,,,,,,,,,,,,,,,,,,,,,,,,,,,,,,,,,,,,,,,,,,,,,,,,,,,,,,,,,,,,,,,,,,,,,,,,,,,,,,,,,,,,,,,,,,,,,,,,,,,,
,,,,,,60f680ce31ba0cae7ac7d716,62c538decc76923a56d01ccb,2022-07-06_09h27.30.324,Colour_Asymmetry_Pilot,2022.1.3,Win32,59.55926147,62c50e9c1127f2cd403a315f,,,,,,,,,,,,,,,,,,,"[0.23920000000000008,0.2704,0.16060000000000008]",threefour,"[0.6547999999999998,-0.043199999999999905,-0.011800000000000033]",-1,2.3069,-51,-137,1,0,0,response5disk_5,-21,1,1,0,0,rectangle_8,49,130,1,0,0,4,0,-2,1,0,0,5,0,5,0,1,response1disk_7,7,rectangle_4,,,,,,,,,,,,,,,,,,,,,,,,,,,,,,,,,,,,,,,,,,,,,,,,,,,,,,,,,,,,,,,,,,,,,,,,,,,,,,,,,,,,,,,,,,,,,,,,,,,,,,,,,,,,,
,,,,,,60f680ce31ba0cae7ac7d716,62c538decc76923a56d01ccb,2022-07-06_09h27.30.324,Colour_Asymmetry_Pilot,2022.1.3,Win32,59.55926147,62c50e9c1127f2cd403a315f,,,,,,,,,,,,,,,,,,,"[0.5528,0.7409999999999999,-0.71]",fourtwo,"[0.34099999999999997,0.5841999999999998,-0.9844]",3,3.247,79,36,1,0,0,response1disk_5,-10,-3,1,0,0,rectangle_8,-10,-3,1,0,0,4,-10,-3,1,0,0,6,0,6,0,1,,,,,,,,,,,,,,,,,,,,,,,,,,,,,,,,,,,,,,,,,,,,,,,,,,,,,,,,,,,,,,,,,,,,,,,,,,,,,,,,,,,,,,,,,,,,,,,,,,,,,,,,,,,,,,,,
,,,,,,60f680ce31ba0cae7ac7d716,62c538decc76923a56d01ccb,2022-07-06_09h27.30.324,Colour_Asymmetry_Pilot,2022.1.3,Win32,59.55926147,62c50e9c1127f2cd403a315f,,,,,,,,,,,,,,,,,,,,threeone,,1,3.0639,,,,,,,,,,,,,,,,,,,,,,,,,,,,,,,,space,5.9164,"[0.8115999999999999,-0.0040000000000000036,-0.09819999999999995]","[0.37240000000000006,0.4980000000000002,-0.2864]",74,-127,1,0,0,response3disk,13,-3,1,0,0,rectangle,13,-3,1,0,0,,3,0.0038,0,13,-3,1,0,0,0,0,0,32,1,32,first,,,,,,,,,,,,,,,,,,,,,,,,,,,,,,,,,,,,,,,,,,,,,,,,,,,,,,,,,,,,,,,,,,,,,,,,
,,,,,,60f680ce31ba0cae7ac7d716,62c538decc76923a56d01ccb,2022-07-06_09h27.30.324,Colour_Asymmetry_Pilot,2022.1.3,Win32,59.55926147,62c50e9c1127f2cd403a315f,,,,,,,,,,,,,,,,,,,,threefour,,2,1.1804,,,,,,,,,,,,,,,,,,,,,,,,,,,,,,,,,,"[0.9763999999999999,0.8588,-0.05900000000000005]","[0.7018,0.7176,0.6155999999999999]",116,-82,1,0,0,response3disk,-6,-5,1,0,0,rectangle,-6,-5,1,0,0,,2,0.0023,0,-6,-5,1,0,0,0,1,1,94,1,13,second,,,,,,,,,,,,,,,,,,,,,,,,,,,,,,,,,,,,,,,,,,,,,,,,,,,,,,,,,,,,,,,,,,,,,,,,
,,,,,,60f680ce31ba0cae7ac7d716,62c538decc76923a56d01ccb,2022-07-06_09h27.30.324,Colour_Asymmetry_Pilot,2022.1.3,Win32,59.55926147,62c50e9c1127f2cd403a315f,,,,,,,,,,,,,,,,,,,,twoone,,-2,1.1561,,,,,,,,,,,,,,,,,,,,,,,,,,,,,,,,,,"[0.5528,0.7409999999999999,-0.71]","[0.9372,0.20779999999999998,0.2704]",-120,-93,1,0,0,response5disk,18,-3,1,0,0,rectangle,105,-41,1,0,0,2,2,5.7361,1,-16,6,1,0,0,0,2,2,159,1,78,second,response3disk_3,rectangle,,,,,,,,,,,,,,,,,,,,,,,,,,,,,,,,,,,,,,,,,,,,,,,,,,,,,,,,,,,,,,,,,,,,,,
,,,,,,60f680ce31ba0cae7ac7d716,62c538decc76923a56d01ccb,2022-07-06_09h27.30.324,Colour_Asymmetry_Pilot,2022.1.3,Win32,59.55926147,62c50e9c1127f2cd403a315f,,,,,,,,,,,,,,,,,,,,twoone,,-1,1.739,,,,,,,,,,,,,,,,,,,,,,,,,,,,,,,,,,"[0.7018,0.7802,-0.16079999999999994]","[-0.011800000000000033,-0.906,-0.45100000000000007]",-36,-97,1,0,0,response5disk,1,7,1,0,0,rectangle,1,7,1,0,0,2,3,0.0025,0,1,7,1,0,0,0,3,3,24,1,24,first,,,,,,,,,,,,,,,,,,,,,,,,,,,,,,,,,,,,,,,,,,,,,,,,,,,,,,,,,,,,,,,,,,,,,,,,
,,,,,,60f680ce31ba0cae7ac7d716,62c538decc76923a56d01ccb,2022-07-06_09h27.30.324,Colour_Asymmetry_Pilot,2022.1.3,Win32,59.55926147,62c50e9c1127f2cd403a315f,,,,,,,,,,,,,,,,,,,,threefour,,-1,1.4145,,,,,,,,,,,,,,,,,,,,,,,,,,,,,,,,,,"[-0.06680000000000008,-0.45100000000000007,-0.906]","[-0.48240000000000005,0.3175999999999999,0.2156]",-37,-92,1,0,0,response5disk,1,13,1,0,0,rectangle,1,13,1,0,0,2,2,0.0023,0,1,13,1,0,0,0,4,4,33,1,33,first,,,,,,,,,,,,,,,,,,,,,,,,,,,,,,,,,,,,,,,,,,,,,,,,,,,,,,,,,,,,,,,,,,,,,,,,
,,,,,,60f680ce31ba0cae7ac7d716,62c538decc76923a56d01ccb,2022-07-06_09h27.30.324,Colour_Asymmetry_Pilot,2022.1.3,Win32,59.55926147,62c50e9c1127f2cd403a315f,,,,,,,,,,,,,,,,,,,,fourthree,,-3,2.9274,,,,,,,,,,,,,,,,,,,,,,,,,,,,,,,,,,"[0.22340000000000004,-0.9296,-0.7884]","[0.37240000000000006,-0.050999999999999934,-0.5216]",-79,47,1,0,0,response7disk,2,-8,1,0,0,rectangle,2,-8,1,0,0,2,2,0.0002,0,2,-8,1,0,0,0,5,5,46,1,46,first,,,,,,,,,,,,,,,,,,,,,,,,,,,,,,,,,,,,,,,,,,,,,,,,,,,,,,,,,,,,,,,,,,,,,,,,
,,,,,,60f680ce31ba0cae7ac7d716,62c538decc76923a56d01ccb,2022-07-06_09h27.30.324,Colour_Asymmetry_Pilot,2022.1.3,Win32,59.55926147,62c50e9c1127f2cd403a315f,,,,,,,,,,,,,,,,,,,,threefour,,-3,3.2626,,,,,,,,,,,,,,,,,,,,,,,,,,,,,,,,,,"[-0.6706000000000001,-0.6157999999999999,-0.6786]","[0.7018,0.7176,0.6155999999999999]",-59,32,1,0,0,response7disk,1,-2,1,0,0,rectangle,1,-2,1,0,0,2,1,0.0023,0,1,-2,1,0,0,0,6,6,117,1,36,second,,,,,,,,,,,,,,,,,,,,,,,,,,,,,,,,,,,,,,,,,,,,,,,,,,,,,,,,,,,,,,,,,,,,,,,,
,,,,,,60f680ce31ba0cae7ac7d716,62c538decc76923a56d01ccb,2022-07-06_09h27.30.324,Colour_Asymmetry_Pilot,2022.1.3,Win32,59.55926147,62c50e9c1127f2cd403a315f,,,,,,,,,,,,,,,,,,,,fourthree,,-1,5.7695,,,,,,,,,,,,,,,,,,,,,,,,,,,,,,,,,,"[0.18419999999999992,-0.4276,-0.404]","[0.9842,0.7409999999999999,-0.6628000000000001]",-47,-149,1,0,0,response5disk,-7,-3,1,0,0,rectangle,-7,-3,1,0,0,2,2,0.0018,0,-7,-3,1,0,0,0,7,7,125,1,44,second,,,,,,,,,,,,,,,,,,,,,,,,,,,,,,,,,,,,,,,,,,,,,,,,,,,,,,,,,,,,,,,,,,,,,,,,
,,,,,,60f680ce31ba0cae7ac7d716,62c538decc76923a56d01ccb,2022-07-06_09h27.30.324,Colour_Asymmetry_Pilot,2022.1.3,Win32,59.55926147,62c50e9c1127f2cd403a315f,,,,,,,,,,,,,,,,,,,,twofour,,-2,4.1974,,,,,,,,,,,,,,,,,,,,,,,,,,,,,,,,,,"[-0.8198,-0.5138,-0.7492000000000001]","[0.23920000000000008,0.2704,0.16060000000000008]",-123,-43,1,0,0,response5disk,-3,5,1,0,0,rectangle,-3,5,1,0,0,2,3,0.0025,0,-3,5,1,0,0,0,8,8,138,1,57,second,,,,,,,,,,,,,,,,,,,,,,,,,,,,,,,,,,,,,,,,,,,,,,,,,,,,,,,,,,,,,,,,,,,,,,,,
,,,,,,60f680ce31ba0cae7ac7d716,62c538decc76923a56d01ccb,2022-07-06_09h27.30.324,Colour_Asymmetry_Pilot,2022.1.3,Win32,59.55926147,62c50e9c1127f2cd403a315f,,,,,,,,,,,,,,,,,,,,fourtwo,,1,1.5866,,,,,,,,,,,,,,,,,,,,,,,,,,,,,,,,,,"[0.23920000000000008,0.2704,0.16060000000000008]","[-0.4902000000000001,0.2704,-0.45899999999999996]",83,-156,1,0,0,response3disk,5,-11,1,0,0,rectangle,5,-11,1,0,0,2,3,0.0006,0,5,-11,1,0,0,0,9,9,156,1,75,second,,,,,,,,,,,,,,,,,,,,,,,,,,,,,,,,,,,,,,,,,,,,,,,,,,,,,,,,,,,,,,,,,,,,,,,,
,,,,,,60f680ce31ba0cae7ac7d716,62c538decc76923a56d01ccb,2022-07-06_09h27.30.324,Colour_Asymmetry_Pilot,2022.1.3,Win32,59.55926147,62c50e9c1127f2cd403a315f,,,,,,,,,,,,,,,,,,,,fourthree,,-1,1.8464,,,,,,,,,,,,,,,,,,,,,,,,,,,,,,,,,,"[0.23120000000000007,-0.7726,-0.34120000000000006]","[-0.4668,-0.8746,-0.2942]",-52,-101,1,0,0,response5disk,-8,17,1,0,0,rectangle,-8,17,1,0,0,2,3,0.0038,0,-8,17,1,0,0,0,10,10,8,1,8,first,,,,,,,,,,,,,,,,,,,,,,,,,,,,,,,,,,,,,,,,,,,,,,,,,,,,,,,,,,,,,,,,,,,,,,,,
,,,,,,60f680ce31ba0cae7ac7d716,62c538decc76923a56d01ccb,2022-07-06_09h27.30.324,Colour_Asymmetry_Pilot,2022.1.3,Win32,59.55926147,62c50e9c1127f2cd403a315f,,,,,,,,,,,,,,,,,,,,twofour,,4,2.4138,,,,,,,,,,,,,,,,,,,,,,,,,,,,,,,,,,"[-0.0040000000000000036,0.02739999999999987,-0.08239999999999992]","[-0.09019999999999995,0.44300000000000006,0.5371999999999999]",75,130,1,0,0,response1disk,-14,4,1,0,0,rectangle,-14,4,1,0,0,2,3,0.0002,0,-14,4,1,0,0,0,11,11,129,1,48,second,,,,,,,,,,,,,,,,,,,,,,,,,,,,,,,,,,,,,,,,,,,,,,,,,,,,,,,,,,,,,,,,,,,,,,,,
,,,,,,60f680ce31ba0cae7ac7d716,62c538decc76923a56d01ccb,2022-07-06_09h27.30.324,Colour_Asymmetry_Pilot,2022.1.3,Win32,59.55926147,62c50e9c1127f2cd403a315f,,,,,,,,,,,,,,,,,,,,fourthree,,2,1.5294,,,,,,,,,,,,,,,,,,,,,,,,,,,,,,,,,,"[0.4196,0.4665999999999999,0.3568]","[-0.10599999999999998,-0.15300000000000002,0.15280000000000005]",85,-40,1,0,0,response3disk,8,10,1,0,0,rectangle,8,10,1,0,0,2,1,0.0015,0,8,10,1,0,0,0,12,12,146,1,65,second,,,,,,,,,,,,,,,,,,,,,,,,,,,,,,,,,,,,,,,,,,,,,,,,,,,,,,,,,,,,,,,,,,,,,,,,
,,,,,,60f680ce31ba0cae7ac7d716,62c538decc76923a56d01ccb,2022-07-06_09h27.30.324,Colour_Asymmetry_Pilot,2022.1.3,Win32,59.55926147,62c50e9c1127f2cd403a315f,,,,,,,,,,,,,,,,,,,,threefour,,-2,1.4339,,,,,,,,,,,,,,,,,,,,,,,,,,,,,,,,,,"[-0.9766,-0.6472,0.07440000000000002]","[0.5528,0.7409999999999999,-0.71]",-93,-57,1,0,0,response5disk,-20,1,1,0,0,rectangle,-20,1,1,0,0,2,3,0.003,0,-20,1,1,0,0,0,13,13,26,1,26,first,,,,,,,,,,,,,,,,,,,,,,,,,,,,,,,,,,,,,,,,,,,,,,,,,,,,,,,,,,,,,,,,,,,,,,,,
,,,,,,60f680ce31ba0cae7ac7d716,62c538decc76923a56d01ccb,2022-07-06_09h27.30.324,Colour_Asymmetry_Pilot,2022.1.3,Win32,59.55926147,62c50e9c1127f2cd403a315f,,,,,,,,,,,,,,,,,,,,twoone,,4,2.9559,,,,,,,,,,,,,,,,,,,,,,,,,,,,,,,,,,"[0.2784,-0.31000000000000005,-0.5452]","[-0.06680000000000008,-0.45100000000000007,-0.906]",54,102,1,0,0,response1disk,-12,-7,1,0,0,rectangle,-12,-7,1,0,0,2,3,0.0002,0,-12,-7,1,0,0,0,14,14,92,1,11,second,,,,,,,,,,,,,,,,,,,,,,,,,,,,,,,,,,,,,,,,,,,,,,,,,,,,,,,,,,,,,,,,,,,,,,,,
,,,,,,60f680ce31ba0cae7ac7d716,62c538decc76923a56d01ccb,2022-07-06_09h27.30.324,Colour_Asymmetry_Pilot,2022.1.3,Win32,59.55926147,62c50e9c1127f2cd403a315f,,,,,,,,,,,,,,,,,,,,onethree,,-1,2.5517,,,,,,,,,,,,,,,,,,,,,,,,,,,,,,,,,,"[0.23120000000000007,-0.7726,-0.34120000000000006]","[-0.9766,-0.34920000000000007,0.2156]",-62,-103,1,0,0,response5disk,-8,3,1,0,0,rectangle,105,-49,1,0,0,2,2,55.8876,1,12,-2,1,0,0,0,15,15,161,1,80,second,response3disk_3,rectangle,,,,,,,,,,,,,,,,,,,,,,,,,,,,,,,,,,,,,,,,,,,,,,,,,,,,,,,,,,,,,,,,,,,,,,
,,,,,,60f680ce31ba0cae7ac7d716,62c538decc76923a56d01ccb,2022-07-06_09h27.30.324,Colour_Asymmetry_Pilot,2022.1.3,Win32,59.55926147,62c50e9c1127f2cd403a315f,,,,,,,,,,,,,,,,,,,,twoone,,2,89.9584,,,,,,,,,,,,,,,,,,,,,,,,,,,,,,,,,,"[-0.4902000000000001,0.2704,-0.45899999999999996]","[0.23920000000000008,0.2704,0.16060000000000008]",78,-39,1,0,0,response3disk,32,-6,1,0,0,rectangle,32,-6,1,0,0,2,1,0.0026,0,32,-6,1,0,0,0,16,16,75,1,75,first,,,,,,,,,,,,,,,,,,,,,,,,,,,,,,,,,,,,,,,,,,,,,,,,,,,,,,,,,,,,,,,,,,,,,,,,
,,,,,,60f680ce31ba0cae7ac7d716,62c538decc76923a56d01ccb,2022-07-06_09h27.30.324,Colour_Asymmetry_Pilot,2022.1.3,Win32,59.55926147,62c50e9c1127f2cd403a315f,,,,,,,,,,,,,,,,,,,,threeone,,-2,1.1664,,,,,,,,,,,,,,,,,,,,,,,,,,,,,,,,,,"[0.3881999999999999,-0.23939999999999995,-0.05040000000000011]","[-0.4276,0.0038000000000000256,-0.3256]",-118,-76,1,0,0,response5disk,-26,3,1,0,0,rectangle,-26,3,1,0,0,2,3,0.0023,0,-26,3,1,0,0,0,17,17,124,1,43,second,,,,,,,,,,,,,,,,,,,,,,,,,,,,,,,,,,,,,,,,,,,,,,,,,,,,,,,,,,,,,,,,,,,,,,,,
