trials.thisRepN,trials.thisTrialN,trials.thisN,trials.thisIndex,trials.ran,Colourcodes,participant,session,date,expName,psychopyVersion,OS,frameRate,study_id,trials_4.thisRepN,trials_4.thisTrialN,trials_4.thisN,trials_4.thisIndex,trials_4.ran,StimulusPos,key_resp.keys,key_resp.rt,key_resp_2.keys,key_resp_2.rt,key_resp_15.keys,key_resp_15.rt,key_resp_17.keys,key_resp_17.rt,key_resp_9.keys,key_resp_9.rt,key_resp_10.keys,key_resp_10.rt,Circle1_col,Ecc,Circle2_col,similarity,response_time,mouse_5.x,mouse_5.y,mouse_5.leftButton,mouse_5.midButton,mouse_5.rightButton,mouse_5.clicked_name,mouse_10.x,mouse_10.y,mouse_10.leftButton,mouse_10.midButton,mouse_10.rightButton,mouse_10.clicked_name,mouse_7.x,mouse_7.y,mouse_7.leftButton,mouse_7.midButton,mouse_7.rightButton,catchnumberprac,mouse_6.x,mouse_6.y,mouse_6.leftButton,mouse_6.midButton,mouse_6.rightButton,duringprac.thisRepN,duringprac.thisTrialN,duringprac.thisN,duringprac.thisIndex,duringprac.ran,mouse_7.clicked_name,catchprac,mouse_6.clicked_name,key_resp_22.keys,key_resp_22.rt,Circle1_colour,Circle2_colour,mouse.x,mouse.y,mouse.leftButton,mouse.midButton,mouse.rightButton,mouse.clicked_name,mouse_2.x,mouse_2.y,mouse_2.leftButton,mouse_2.midButton,mouse_2.rightButton,mouse_2.clicked_name,mouse_3.x,mouse_3.y,mouse_3.leftButton,mouse_3.midButton,mouse_3.rightButton,catchresponse,catchnumber,response_time_catch,Catch,mouse_11.x,mouse_11.y,mouse_11.leftButton,mouse_11.midButton,mouse_11.rightButton,trials_2.thisRepN,trials_2.thisTrialN,trials_2.thisN,trials_2.thisIndex,trials_2.ran,Colourpair,Temporder,mouse_3.clicked_name,mouse_11.clicked_name,trials_3.thisRepN,trials_3.thisTrialN,trials_3.thisN,trials_3.thisIndex,trials_3.ran,key_resp_instr_Ishi.keys,key_resp_instr_Ishi.rt,Ishi_trial_keyresp.keys,Ishi_textbox.text,Ishi_mouse.x,Ishi_mouse.y,Ishi_mouse.leftButton,Ishi_mouse.midButton,Ishi_mouse.rightButton,Ishi_mouse.clicked_name,Ishi_loop.thisRepN,Ishi_loop.thisTrialN,Ishi_loop.thisN,Ishi_loop.thisIndex,Ishi_loop.ran,imageaddress,textbox.text,mouse_4.x,mouse_4.y,mouse_4.leftButton,mouse_4.midButton,mouse_4.rightButton,mouse_4.clicked_name,textbox_2.text,mouse_8.x,mouse_8.y,mouse_8.leftButton,mouse_8.midButton,mouse_8.rightButton,mouse_8.clicked_name,textbox_3.text,mouse_9.x,mouse_9.y,mouse_9.leftButton,mouse_9.midButton,mouse_9.rightButton,mouse_9.clicked_name,textbox_4.text,mouse_12.x,mouse_12.y,mouse_12.leftButton,mouse_12.midButton,mouse_12.rightButton,mouse_12.clicked_name,textbox_5.text,mouse_13.x,mouse_13.y,mouse_13.leftButton,mouse_13.midButton,mouse_13.rightButton,mouse_13.clicked_name,textbox_6.text,mouse_14.x,mouse_14.y,mouse_14.leftButton,mouse_14.midButton,mouse_14.rightButton,mouse_14.clicked_name,textbox_7.text,mouse_15.x,mouse_15.y,mouse_15.leftButton,mouse_15.midButton,mouse_15.rightButton,mouse_15.clicked_name
0,0,0,37,1,,5f966b181caf595331d1685e,62c53978bee84d668969a533,2022-07-06_09h31.23.195,Colour_Asymmetry_Pilot,2022.1.3,MacIntel,60.04202942,62c50e9c1127f2cd403a315f,,,,,,,,,,,,,,,,,,,,,,,,,,,,,,,,,,,,,,,,,,,,,,,,,,,,,,,,,,,,,,,,,,,,,,,,,,,,,,,,,,,,,,,,,,,,,,,,,,,,,,,,,,,,,,,,,,,,,,,,,,,,,,,,,,,,,,,,,,,,,,,,,,,,,,,,,,,,,,,,,,,
0,1,1,0,1,,5f966b181caf595331d1685e,62c53978bee84d668969a533,2022-07-06_09h31.23.195,Colour_Asymmetry_Pilot,2022.1.3,MacIntel,60.04202942,62c50e9c1127f2cd403a315f,,,,,,,,,,,,,,,,,,,,,,,,,,,,,,,,,,,,,,,,,,,,,,,,,,,,,,,,,,,,,,,,,,,,,,,,,,,,,,,,,,,,,,,,,,,,,,,,,,,,,,,,,,,,,,,,,,,,,,,,,,,,,,,,,,,,,,,,,,,,,,,,,,,,,,,,,,,,,,,,,,,
0,2,2,66,1,,5f966b181caf595331d1685e,62c53978bee84d668969a533,2022-07-06_09h31.23.195,Colour_Asymmetry_Pilot,2022.1.3,MacIntel,60.04202942,62c50e9c1127f2cd403a315f,,,,,,,,,,,,,,,,,,,,,,,,,,,,,,,,,,,,,,,,,,,,,,,,,,,,,,,,,,,,,,,,,,,,,,,,,,,,,,,,,,,,,,,,,,,,,,,,,,,,,,,,,,,,,,,,,,,,,,,,,,,,,,,,,,,,,,,,,,,,,,,,,,,,,,,,,,,,,,,,,,,
0,3,3,39,1,,5f966b181caf595331d1685e,62c53978bee84d668969a533,2022-07-06_09h31.23.195,Colour_Asymmetry_Pilot,2022.1.3,MacIntel,60.04202942,62c50e9c1127f2cd403a315f,,,,,,,,,,,,,,,,,,,,,,,,,,,,,,,,,,,,,,,,,,,,,,,,,,,,,,,,,,,,,,,,,,,,,,,,,,,,,,,,,,,,,,,,,,,,,,,,,,,,,,,,,,,,,,,,,,,,,,,,,,,,,,,,,,,,,,,,,,,,,,,,,,,,,,,,,,,,,,,,,,,
0,4,4,40,1,,5f966b181caf595331d1685e,62c53978bee84d668969a533,2022-07-06_09h31.23.195,Colour_Asymmetry_Pilot,2022.1.3,MacIntel,60.04202942,62c50e9c1127f2cd403a315f,,,,,,,,,,,,,,,,,,,,,,,,,,,,,,,,,,,,,,,,,,,,,,,,,,,,,,,,,,,,,,,,,,,,,,,,,,,,,,,,,,,,,,,,,,,,,,,,,,,,,,,,,,,,,,,,,,,,,,,,,,,,,,,,,,,,,,,,,,,,,,,,,,,,,,,,,,,,,,,,,,,
0,5,5,32,1,,5f966b181caf595331d1685e,62c53978bee84d668969a533,2022-07-06_09h31.23.195,Colour_Asymmetry_Pilot,2022.1.3,MacIntel,60.04202942,62c50e9c1127f2cd403a315f,,,,,,,,,,,,,,,,,,,,,,,,,,,,,,,,,,,,,,,,,,,,,,,,,,,,,,,,,,,,,,,,,,,,,,,,,,,,,,,,,,,,,,,,,,,,,,,,,,,,,,,,,,,,,,,,,,,,,,,,,,,,,,,,,,,,,,,,,,,,,,,,,,,,,,,,,,,,,,,,,,,
0,6,6,38,1,,5f966b181caf595331d1685e,62c53978bee84d668969a533,2022-07-06_09h31.23.195,Colour_Asymmetry_Pilot,2022.1.3,MacIntel,60.04202942,62c50e9c1127f2cd403a315f,,,,,,,,,,,,,,,,,,,,,,,,,,,,,,,,,,,,,,,,,,,,,,,,,,,,,,,,,,,,,,,,,,,,,,,,,,,,,,,,,,,,,,,,,,,,,,,,,,,,,,,,,,,,,,,,,,,,,,,,,,,,,,,,,,,,,,,,,,,,,,,,,,,,,,,,,,,,,,,,,,,
0,7,7,76,1,,5f966b181caf595331d1685e,62c53978bee84d668969a533,2022-07-06_09h31.23.195,Colour_Asymmetry_Pilot,2022.1.3,MacIntel,60.04202942,62c50e9c1127f2cd403a315f,,,,,,,,,,,,,,,,,,,,,,,,,,,,,,,,,,,,,,,,,,,,,,,,,,,,,,,,,,,,,,,,,,,,,,,,,,,,,,,,,,,,,,,,,,,,,,,,,,,,,,,,,,,,,,,,,,,,,,,,,,,,,,,,,,,,,,,,,,,,,,,,,,,,,,,,,,,,,,,,,,,
0,8,8,42,1,,5f966b181caf595331d1685e,62c53978bee84d668969a533,2022-07-06_09h31.23.195,Colour_Asymmetry_Pilot,2022.1.3,MacIntel,60.04202942,62c50e9c1127f2cd403a315f,,,,,,,,,,,,,,,,,,,,,,,,,,,,,,,,,,,,,,,,,,,,,,,,,,,,,,,,,,,,,,,,,,,,,,,,,,,,,,,,,,,,,,,,,,,,,,,,,,,,,,,,,,,,,,,,,,,,,,,,,,,,,,,,,,,,,,,,,,,,,,,,,,,,,,,,,,,,,,,,,,,
0,9,9,43,1,,5f966b181caf595331d1685e,62c53978bee84d668969a533,2022-07-06_09h31.23.195,Colour_Asymmetry_Pilot,2022.1.3,MacIntel,60.04202942,62c50e9c1127f2cd403a315f,,,,,,,,,,,,,,,,,,,,,,,,,,,,,,,,,,,,,,,,,,,,,,,,,,,,,,,,,,,,,,,,,,,,,,,,,,,,,,,,,,,,,,,,,,,,,,,,,,,,,,,,,,,,,,,,,,,,,,,,,,,,,,,,,,,,,,,,,,,,,,,,,,,,,,,,,,,,,,,,,,,
0,10,10,27,1,,5f966b181caf595331d1685e,62c53978bee84d668969a533,2022-07-06_09h31.23.195,Colour_Asymmetry_Pilot,2022.1.3,MacIntel,60.04202942,62c50e9c1127f2cd403a315f,,,,,,,,,,,,,,,,,,,,,,,,,,,,,,,,,,,,,,,,,,,,,,,,,,,,,,,,,,,,,,,,,,,,,,,,,,,,,,,,,,,,,,,,,,,,,,,,,,,,,,,,,,,,,,,,,,,,,,,,,,,,,,,,,,,,,,,,,,,,,,,,,,,,,,,,,,,,,,,,,,,
0,11,11,55,1,,5f966b181caf595331d1685e,62c53978bee84d668969a533,2022-07-06_09h31.23.195,Colour_Asymmetry_Pilot,2022.1.3,MacIntel,60.04202942,62c50e9c1127f2cd403a315f,,,,,,,,,,,,,,,,,,,,,,,,,,,,,,,,,,,,,,,,,,,,,,,,,,,,,,,,,,,,,,,,,,,,,,,,,,,,,,,,,,,,,,,,,,,,,,,,,,,,,,,,,,,,,,,,,,,,,,,,,,,,,,,,,,,,,,,,,,,,,,,,,,,,,,,,,,,,,,,,,,,
0,12,12,88,1,,5f966b181caf595331d1685e,62c53978bee84d668969a533,2022-07-06_09h31.23.195,Colour_Asymmetry_Pilot,2022.1.3,MacIntel,60.04202942,62c50e9c1127f2cd403a315f,,,,,,,,,,,,,,,,,,,,,,,,,,,,,,,,,,,,,,,,,,,,,,,,,,,,,,,,,,,,,,,,,,,,,,,,,,,,,,,,,,,,,,,,,,,,,,,,,,,,,,,,,,,,,,,,,,,,,,,,,,,,,,,,,,,,,,,,,,,,,,,,,,,,,,,,,,,,,,,,,,,
0,13,13,35,1,,5f966b181caf595331d1685e,62c53978bee84d668969a533,2022-07-06_09h31.23.195,Colour_Asymmetry_Pilot,2022.1.3,MacIntel,60.04202942,62c50e9c1127f2cd403a315f,,,,,,,,,,,,,,,,,,,,,,,,,,,,,,,,,,,,,,,,,,,,,,,,,,,,,,,,,,,,,,,,,,,,,,,,,,,,,,,,,,,,,,,,,,,,,,,,,,,,,,,,,,,,,,,,,,,,,,,,,,,,,,,,,,,,,,,,,,,,,,,,,,,,,,,,,,,,,,,,,,,
0,14,14,82,1,,5f966b181caf595331d1685e,62c53978bee84d668969a533,2022-07-06_09h31.23.195,Colour_Asymmetry_Pilot,2022.1.3,MacIntel,60.04202942,62c50e9c1127f2cd403a315f,,,,,,,,,,,,,,,,,,,,,,,,,,,,,,,,,,,,,,,,,,,,,,,,,,,,,,,,,,,,,,,,,,,,,,,,,,,,,,,,,,,,,,,,,,,,,,,,,,,,,,,,,,,,,,,,,,,,,,,,,,,,,,,,,,,,,,,,,,,,,,,,,,,,,,,,,,,,,,,,,,,
0,15,15,45,1,,5f966b181caf595331d1685e,62c53978bee84d668969a533,2022-07-06_09h31.23.195,Colour_Asymmetry_Pilot,2022.1.3,MacIntel,60.04202942,62c50e9c1127f2cd403a315f,,,,,,,,,,,,,,,,,,,,,,,,,,,,,,,,,,,,,,,,,,,,,,,,,,,,,,,,,,,,,,,,,,,,,,,,,,,,,,,,,,,,,,,,,,,,,,,,,,,,,,,,,,,,,,,,,,,,,,,,,,,,,,,,,,,,,,,,,,,,,,,,,,,,,,,,,,,,,,,,,,,
0,16,16,80,1,,5f966b181caf595331d1685e,62c53978bee84d668969a533,2022-07-06_09h31.23.195,Colour_Asymmetry_Pilot,2022.1.3,MacIntel,60.04202942,62c50e9c1127f2cd403a315f,,,,,,,,,,,,,,,,,,,,,,,,,,,,,,,,,,,,,,,,,,,,,,,,,,,,,,,,,,,,,,,,,,,,,,,,,,,,,,,,,,,,,,,,,,,,,,,,,,,,,,,,,,,,,,,,,,,,,,,,,,,,,,,,,,,,,,,,,,,,,,,,,,,,,,,,,,,,,,,,,,,
0,17,17,60,1,,5f966b181caf595331d1685e,62c53978bee84d668969a533,2022-07-06_09h31.23.195,Colour_Asymmetry_Pilot,2022.1.3,MacIntel,60.04202942,62c50e9c1127f2cd403a315f,,,,,,,,,,,,,,,,,,,,,,,,,,,,,,,,,,,,,,,,,,,,,,,,,,,,,,,,,,,,,,,,,,,,,,,,,,,,,,,,,,,,,,,,,,,,,,,,,,,,,,,,,,,,,,,,,,,,,,,,,,,,,,,,,,,,,,,,,,,,,,,,,,,,,,,,,,,,,,,,,,,
0,18,18,3,1,,5f966b181caf595331d1685e,62c53978bee84d668969a533,2022-07-06_09h31.23.195,Colour_Asymmetry_Pilot,2022.1.3,MacIntel,60.04202942,62c50e9c1127f2cd403a315f,,,,,,,,,,,,,,,,,,,,,,,,,,,,,,,,,,,,,,,,,,,,,,,,,,,,,,,,,,,,,,,,,,,,,,,,,,,,,,,,,,,,,,,,,,,,,,,,,,,,,,,,,,,,,,,,,,,,,,,,,,,,,,,,,,,,,,,,,,,,,,,,,,,,,,,,,,,,,,,,,,,
0,19,19,91,1,,5f966b181caf595331d1685e,62c53978bee84d668969a533,2022-07-06_09h31.23.195,Colour_Asymmetry_Pilot,2022.1.3,MacIntel,60.04202942,62c50e9c1127f2cd403a315f,,,,,,,,,,,,,,,,,,,,,,,,,,,,,,,,,,,,,,,,,,,,,,,,,,,,,,,,,,,,,,,,,,,,,,,,,,,,,,,,,,,,,,,,,,,,,,,,,,,,,,,,,,,,,,,,,,,,,,,,,,,,,,,,,,,,,,,,,,,,,,,,,,,,,,,,,,,,,,,,,,,
0,20,20,49,1,,5f966b181caf595331d1685e,62c53978bee84d668969a533,2022-07-06_09h31.23.195,Colour_Asymmetry_Pilot,2022.1.3,MacIntel,60.04202942,62c50e9c1127f2cd403a315f,,,,,,,,,,,,,,,,,,,,,,,,,,,,,,,,,,,,,,,,,,,,,,,,,,,,,,,,,,,,,,,,,,,,,,,,,,,,,,,,,,,,,,,,,,,,,,,,,,,,,,,,,,,,,,,,,,,,,,,,,,,,,,,,,,,,,,,,,,,,,,,,,,,,,,,,,,,,,,,,,,,
0,21,21,89,1,,5f966b181caf595331d1685e,62c53978bee84d668969a533,2022-07-06_09h31.23.195,Colour_Asymmetry_Pilot,2022.1.3,MacIntel,60.04202942,62c50e9c1127f2cd403a315f,,,,,,,,,,,,,,,,,,,,,,,,,,,,,,,,,,,,,,,,,,,,,,,,,,,,,,,,,,,,,,,,,,,,,,,,,,,,,,,,,,,,,,,,,,,,,,,,,,,,,,,,,,,,,,,,,,,,,,,,,,,,,,,,,,,,,,,,,,,,,,,,,,,,,,,,,,,,,,,,,,,
0,22,22,86,1,,5f966b181caf595331d1685e,62c53978bee84d668969a533,2022-07-06_09h31.23.195,Colour_Asymmetry_Pilot,2022.1.3,MacIntel,60.04202942,62c50e9c1127f2cd403a315f,,,,,,,,,,,,,,,,,,,,,,,,,,,,,,,,,,,,,,,,,,,,,,,,,,,,,,,,,,,,,,,,,,,,,,,,,,,,,,,,,,,,,,,,,,,,,,,,,,,,,,,,,,,,,,,,,,,,,,,,,,,,,,,,,,,,,,,,,,,,,,,,,,,,,,,,,,,,,,,,,,,
0,23,23,17,1,,5f966b181caf595331d1685e,62c53978bee84d668969a533,2022-07-06_09h31.23.195,Colour_Asymmetry_Pilot,2022.1.3,MacIntel,60.04202942,62c50e9c1127f2cd403a315f,,,,,,,,,,,,,,,,,,,,,,,,,,,,,,,,,,,,,,,,,,,,,,,,,,,,,,,,,,,,,,,,,,,,,,,,,,,,,,,,,,,,,,,,,,,,,,,,,,,,,,,,,,,,,,,,,,,,,,,,,,,,,,,,,,,,,,,,,,,,,,,,,,,,,,,,,,,,,,,,,,,
0,24,24,85,1,,5f966b181caf595331d1685e,62c53978bee84d668969a533,2022-07-06_09h31.23.195,Colour_Asymmetry_Pilot,2022.1.3,MacIntel,60.04202942,62c50e9c1127f2cd403a315f,,,,,,,,,,,,,,,,,,,,,,,,,,,,,,,,,,,,,,,,,,,,,,,,,,,,,,,,,,,,,,,,,,,,,,,,,,,,,,,,,,,,,,,,,,,,,,,,,,,,,,,,,,,,,,,,,,,,,,,,,,,,,,,,,,,,,,,,,,,,,,,,,,,,,,,,,,,,,,,,,,,
0,25,25,1,1,,5f966b181caf595331d1685e,62c53978bee84d668969a533,2022-07-06_09h31.23.195,Colour_Asymmetry_Pilot,2022.1.3,MacIntel,60.04202942,62c50e9c1127f2cd403a315f,,,,,,,,,,,,,,,,,,,,,,,,,,,,,,,,,,,,,,,,,,,,,,,,,,,,,,,,,,,,,,,,,,,,,,,,,,,,,,,,,,,,,,,,,,,,,,,,,,,,,,,,,,,,,,,,,,,,,,,,,,,,,,,,,,,,,,,,,,,,,,,,,,,,,,,,,,,,,,,,,,,
0,26,26,34,1,,5f966b181caf595331d1685e,62c53978bee84d668969a533,2022-07-06_09h31.23.195,Colour_Asymmetry_Pilot,2022.1.3,MacIntel,60.04202942,62c50e9c1127f2cd403a315f,,,,,,,,,,,,,,,,,,,,,,,,,,,,,,,,,,,,,,,,,,,,,,,,,,,,,,,,,,,,,,,,,,,,,,,,,,,,,,,,,,,,,,,,,,,,,,,,,,,,,,,,,,,,,,,,,,,,,,,,,,,,,,,,,,,,,,,,,,,,,,,,,,,,,,,,,,,,,,,,,,,
0,27,27,15,1,,5f966b181caf595331d1685e,62c53978bee84d668969a533,2022-07-06_09h31.23.195,Colour_Asymmetry_Pilot,2022.1.3,MacIntel,60.04202942,62c50e9c1127f2cd403a315f,,,,,,,,,,,,,,,,,,,,,,,,,,,,,,,,,,,,,,,,,,,,,,,,,,,,,,,,,,,,,,,,,,,,,,,,,,,,,,,,,,,,,,,,,,,,,,,,,,,,,,,,,,,,,,,,,,,,,,,,,,,,,,,,,,,,,,,,,,,,,,,,,,,,,,,,,,,,,,,,,,,
0,28,28,31,1,,5f966b181caf595331d1685e,62c53978bee84d668969a533,2022-07-06_09h31.23.195,Colour_Asymmetry_Pilot,2022.1.3,MacIntel,60.04202942,62c50e9c1127f2cd403a315f,,,,,,,,,,,,,,,,,,,,,,,,,,,,,,,,,,,,,,,,,,,,,,,,,,,,,,,,,,,,,,,,,,,,,,,,,,,,,,,,,,,,,,,,,,,,,,,,,,,,,,,,,,,,,,,,,,,,,,,,,,,,,,,,,,,,,,,,,,,,,,,,,,,,,,,,,,,,,,,,,,,
0,29,29,92,1,,5f966b181caf595331d1685e,62c53978bee84d668969a533,2022-07-06_09h31.23.195,Colour_Asymmetry_Pilot,2022.1.3,MacIntel,60.04202942,62c50e9c1127f2cd403a315f,,,,,,,,,,,,,,,,,,,,,,,,,,,,,,,,,,,,,,,,,,,,,,,,,,,,,,,,,,,,,,,,,,,,,,,,,,,,,,,,,,,,,,,,,,,,,,,,,,,,,,,,,,,,,,,,,,,,,,,,,,,,,,,,,,,,,,,,,,,,,,,,,,,,,,,,,,,,,,,,,,,
0,30,30,28,1,,5f966b181caf595331d1685e,62c53978bee84d668969a533,2022-07-06_09h31.23.195,Colour_Asymmetry_Pilot,2022.1.3,MacIntel,60.04202942,62c50e9c1127f2cd403a315f,,,,,,,,,,,,,,,,,,,,,,,,,,,,,,,,,,,,,,,,,,,,,,,,,,,,,,,,,,,,,,,,,,,,,,,,,,,,,,,,,,,,,,,,,,,,,,,,,,,,,,,,,,,,,,,,,,,,,,,,,,,,,,,,,,,,,,,,,,,,,,,,,,,,,,,,,,,,,,,,,,,
0,31,31,6,1,,5f966b181caf595331d1685e,62c53978bee84d668969a533,2022-07-06_09h31.23.195,Colour_Asymmetry_Pilot,2022.1.3,MacIntel,60.04202942,62c50e9c1127f2cd403a315f,,,,,,,,,,,,,,,,,,,,,,,,,,,,,,,,,,,,,,,,,,,,,,,,,,,,,,,,,,,,,,,,,,,,,,,,,,,,,,,,,,,,,,,,,,,,,,,,,,,,,,,,,,,,,,,,,,,,,,,,,,,,,,,,,,,,,,,,,,,,,,,,,,,,,,,,,,,,,,,,,,,
0,32,32,22,1,,5f966b181caf595331d1685e,62c53978bee84d668969a533,2022-07-06_09h31.23.195,Colour_Asymmetry_Pilot,2022.1.3,MacIntel,60.04202942,62c50e9c1127f2cd403a315f,,,,,,,,,,,,,,,,,,,,,,,,,,,,,,,,,,,,,,,,,,,,,,,,,,,,,,,,,,,,,,,,,,,,,,,,,,,,,,,,,,,,,,,,,,,,,,,,,,,,,,,,,,,,,,,,,,,,,,,,,,,,,,,,,,,,,,,,,,,,,,,,,,,,,,,,,,,,,,,,,,,
0,33,33,57,1,,5f966b181caf595331d1685e,62c53978bee84d668969a533,2022-07-06_09h31.23.195,Colour_Asymmetry_Pilot,2022.1.3,MacIntel,60.04202942,62c50e9c1127f2cd403a315f,,,,,,,,,,,,,,,,,,,,,,,,,,,,,,,,,,,,,,,,,,,,,,,,,,,,,,,,,,,,,,,,,,,,,,,,,,,,,,,,,,,,,,,,,,,,,,,,,,,,,,,,,,,,,,,,,,,,,,,,,,,,,,,,,,,,,,,,,,,,,,,,,,,,,,,,,,,,,,,,,,,
0,34,34,12,1,,5f966b181caf595331d1685e,62c53978bee84d668969a533,2022-07-06_09h31.23.195,Colour_Asymmetry_Pilot,2022.1.3,MacIntel,60.04202942,62c50e9c1127f2cd403a315f,,,,,,,,,,,,,,,,,,,,,,,,,,,,,,,,,,,,,,,,,,,,,,,,,,,,,,,,,,,,,,,,,,,,,,,,,,,,,,,,,,,,,,,,,,,,,,,,,,,,,,,,,,,,,,,,,,,,,,,,,,,,,,,,,,,,,,,,,,,,,,,,,,,,,,,,,,,,,,,,,,,
0,35,35,5,1,,5f966b181caf595331d1685e,62c53978bee84d668969a533,2022-07-06_09h31.23.195,Colour_Asymmetry_Pilot,2022.1.3,MacIntel,60.04202942,62c50e9c1127f2cd403a315f,,,,,,,,,,,,,,,,,,,,,,,,,,,,,,,,,,,,,,,,,,,,,,,,,,,,,,,,,,,,,,,,,,,,,,,,,,,,,,,,,,,,,,,,,,,,,,,,,,,,,,,,,,,,,,,,,,,,,,,,,,,,,,,,,,,,,,,,,,,,,,,,,,,,,,,,,,,,,,,,,,,
0,36,36,20,1,,5f966b181caf595331d1685e,62c53978bee84d668969a533,2022-07-06_09h31.23.195,Colour_Asymmetry_Pilot,2022.1.3,MacIntel,60.04202942,62c50e9c1127f2cd403a315f,,,,,,,,,,,,,,,,,,,,,,,,,,,,,,,,,,,,,,,,,,,,,,,,,,,,,,,,,,,,,,,,,,,,,,,,,,,,,,,,,,,,,,,,,,,,,,,,,,,,,,,,,,,,,,,,,,,,,,,,,,,,,,,,,,,,,,,,,,,,,,,,,,,,,,,,,,,,,,,,,,,
0,37,37,33,1,,5f966b181caf595331d1685e,62c53978bee84d668969a533,2022-07-06_09h31.23.195,Colour_Asymmetry_Pilot,2022.1.3,MacIntel,60.04202942,62c50e9c1127f2cd403a315f,,,,,,,,,,,,,,,,,,,,,,,,,,,,,,,,,,,,,,,,,,,,,,,,,,,,,,,,,,,,,,,,,,,,,,,,,,,,,,,,,,,,,,,,,,,,,,,,,,,,,,,,,,,,,,,,,,,,,,,,,,,,,,,,,,,,,,,,,,,,,,,,,,,,,,,,,,,,,,,,,,,
0,38,38,59,1,,5f966b181caf595331d1685e,62c53978bee84d668969a533,2022-07-06_09h31.23.195,Colour_Asymmetry_Pilot,2022.1.3,MacIntel,60.04202942,62c50e9c1127f2cd403a315f,,,,,,,,,,,,,,,,,,,,,,,,,,,,,,,,,,,,,,,,,,,,,,,,,,,,,,,,,,,,,,,,,,,,,,,,,,,,,,,,,,,,,,,,,,,,,,,,,,,,,,,,,,,,,,,,,,,,,,,,,,,,,,,,,,,,,,,,,,,,,,,,,,,,,,,,,,,,,,,,,,,
0,39,39,13,1,,5f966b181caf595331d1685e,62c53978bee84d668969a533,2022-07-06_09h31.23.195,Colour_Asymmetry_Pilot,2022.1.3,MacIntel,60.04202942,62c50e9c1127f2cd403a315f,,,,,,,,,,,,,,,,,,,,,,,,,,,,,,,,,,,,,,,,,,,,,,,,,,,,,,,,,,,,,,,,,,,,,,,,,,,,,,,,,,,,,,,,,,,,,,,,,,,,,,,,,,,,,,,,,,,,,,,,,,,,,,,,,,,,,,,,,,,,,,,,,,,,,,,,,,,,,,,,,,,
0,40,40,46,1,,5f966b181caf595331d1685e,62c53978bee84d668969a533,2022-07-06_09h31.23.195,Colour_Asymmetry_Pilot,2022.1.3,MacIntel,60.04202942,62c50e9c1127f2cd403a315f,,,,,,,,,,,,,,,,,,,,,,,,,,,,,,,,,,,,,,,,,,,,,,,,,,,,,,,,,,,,,,,,,,,,,,,,,,,,,,,,,,,,,,,,,,,,,,,,,,,,,,,,,,,,,,,,,,,,,,,,,,,,,,,,,,,,,,,,,,,,,,,,,,,,,,,,,,,,,,,,,,,
0,41,41,41,1,,5f966b181caf595331d1685e,62c53978bee84d668969a533,2022-07-06_09h31.23.195,Colour_Asymmetry_Pilot,2022.1.3,MacIntel,60.04202942,62c50e9c1127f2cd403a315f,,,,,,,,,,,,,,,,,,,,,,,,,,,,,,,,,,,,,,,,,,,,,,,,,,,,,,,,,,,,,,,,,,,,,,,,,,,,,,,,,,,,,,,,,,,,,,,,,,,,,,,,,,,,,,,,,,,,,,,,,,,,,,,,,,,,,,,,,,,,,,,,,,,,,,,,,,,,,,,,,,,
0,42,42,53,1,,5f966b181caf595331d1685e,62c53978bee84d668969a533,2022-07-06_09h31.23.195,Colour_Asymmetry_Pilot,2022.1.3,MacIntel,60.04202942,62c50e9c1127f2cd403a315f,,,,,,,,,,,,,,,,,,,,,,,,,,,,,,,,,,,,,,,,,,,,,,,,,,,,,,,,,,,,,,,,,,,,,,,,,,,,,,,,,,,,,,,,,,,,,,,,,,,,,,,,,,,,,,,,,,,,,,,,,,,,,,,,,,,,,,,,,,,,,,,,,,,,,,,,,,,,,,,,,,,
0,43,43,9,1,,5f966b181caf595331d1685e,62c53978bee84d668969a533,2022-07-06_09h31.23.195,Colour_Asymmetry_Pilot,2022.1.3,MacIntel,60.04202942,62c50e9c1127f2cd403a315f,,,,,,,,,,,,,,,,,,,,,,,,,,,,,,,,,,,,,,,,,,,,,,,,,,,,,,,,,,,,,,,,,,,,,,,,,,,,,,,,,,,,,,,,,,,,,,,,,,,,,,,,,,,,,,,,,,,,,,,,,,,,,,,,,,,,,,,,,,,,,,,,,,,,,,,,,,,,,,,,,,,
0,44,44,8,1,,5f966b181caf595331d1685e,62c53978bee84d668969a533,2022-07-06_09h31.23.195,Colour_Asymmetry_Pilot,2022.1.3,MacIntel,60.04202942,62c50e9c1127f2cd403a315f,,,,,,,,,,,,,,,,,,,,,,,,,,,,,,,,,,,,,,,,,,,,,,,,,,,,,,,,,,,,,,,,,,,,,,,,,,,,,,,,,,,,,,,,,,,,,,,,,,,,,,,,,,,,,,,,,,,,,,,,,,,,,,,,,,,,,,,,,,,,,,,,,,,,,,,,,,,,,,,,,,,
0,45,45,44,1,,5f966b181caf595331d1685e,62c53978bee84d668969a533,2022-07-06_09h31.23.195,Colour_Asymmetry_Pilot,2022.1.3,MacIntel,60.04202942,62c50e9c1127f2cd403a315f,,,,,,,,,,,,,,,,,,,,,,,,,,,,,,,,,,,,,,,,,,,,,,,,,,,,,,,,,,,,,,,,,,,,,,,,,,,,,,,,,,,,,,,,,,,,,,,,,,,,,,,,,,,,,,,,,,,,,,,,,,,,,,,,,,,,,,,,,,,,,,,,,,,,,,,,,,,,,,,,,,,
0,46,46,14,1,,5f966b181caf595331d1685e,62c53978bee84d668969a533,2022-07-06_09h31.23.195,Colour_Asymmetry_Pilot,2022.1.3,MacIntel,60.04202942,62c50e9c1127f2cd403a315f,,,,,,,,,,,,,,,,,,,,,,,,,,,,,,,,,,,,,,,,,,,,,,,,,,,,,,,,,,,,,,,,,,,,,,,,,,,,,,,,,,,,,,,,,,,,,,,,,,,,,,,,,,,,,,,,,,,,,,,,,,,,,,,,,,,,,,,,,,,,,,,,,,,,,,,,,,,,,,,,,,,
0,47,47,23,1,,5f966b181caf595331d1685e,62c53978bee84d668969a533,2022-07-06_09h31.23.195,Colour_Asymmetry_Pilot,2022.1.3,MacIntel,60.04202942,62c50e9c1127f2cd403a315f,,,,,,,,,,,,,,,,,,,,,,,,,,,,,,,,,,,,,,,,,,,,,,,,,,,,,,,,,,,,,,,,,,,,,,,,,,,,,,,,,,,,,,,,,,,,,,,,,,,,,,,,,,,,,,,,,,,,,,,,,,,,,,,,,,,,,,,,,,,,,,,,,,,,,,,,,,,,,,,,,,,
0,48,48,51,1,,5f966b181caf595331d1685e,62c53978bee84d668969a533,2022-07-06_09h31.23.195,Colour_Asymmetry_Pilot,2022.1.3,MacIntel,60.04202942,62c50e9c1127f2cd403a315f,,,,,,,,,,,,,,,,,,,,,,,,,,,,,,,,,,,,,,,,,,,,,,,,,,,,,,,,,,,,,,,,,,,,,,,,,,,,,,,,,,,,,,,,,,,,,,,,,,,,,,,,,,,,,,,,,,,,,,,,,,,,,,,,,,,,,,,,,,,,,,,,,,,,,,,,,,,,,,,,,,,
0,49,49,63,1,,5f966b181caf595331d1685e,62c53978bee84d668969a533,2022-07-06_09h31.23.195,Colour_Asymmetry_Pilot,2022.1.3,MacIntel,60.04202942,62c50e9c1127f2cd403a315f,,,,,,,,,,,,,,,,,,,,,,,,,,,,,,,,,,,,,,,,,,,,,,,,,,,,,,,,,,,,,,,,,,,,,,,,,,,,,,,,,,,,,,,,,,,,,,,,,,,,,,,,,,,,,,,,,,,,,,,,,,,,,,,,,,,,,,,,,,,,,,,,,,,,,,,,,,,,,,,,,,,
0,50,50,36,1,,5f966b181caf595331d1685e,62c53978bee84d668969a533,2022-07-06_09h31.23.195,Colour_Asymmetry_Pilot,2022.1.3,MacIntel,60.04202942,62c50e9c1127f2cd403a315f,,,,,,,,,,,,,,,,,,,,,,,,,,,,,,,,,,,,,,,,,,,,,,,,,,,,,,,,,,,,,,,,,,,,,,,,,,,,,,,,,,,,,,,,,,,,,,,,,,,,,,,,,,,,,,,,,,,,,,,,,,,,,,,,,,,,,,,,,,,,,,,,,,,,,,,,,,,,,,,,,,,
0,51,51,47,1,,5f966b181caf595331d1685e,62c53978bee84d668969a533,2022-07-06_09h31.23.195,Colour_Asymmetry_Pilot,2022.1.3,MacIntel,60.04202942,62c50e9c1127f2cd403a315f,,,,,,,,,,,,,,,,,,,,,,,,,,,,,,,,,,,,,,,,,,,,,,,,,,,,,,,,,,,,,,,,,,,,,,,,,,,,,,,,,,,,,,,,,,,,,,,,,,,,,,,,,,,,,,,,,,,,,,,,,,,,,,,,,,,,,,,,,,,,,,,,,,,,,,,,,,,,,,,,,,,
0,52,52,25,1,,5f966b181caf595331d1685e,62c53978bee84d668969a533,2022-07-06_09h31.23.195,Colour_Asymmetry_Pilot,2022.1.3,MacIntel,60.04202942,62c50e9c1127f2cd403a315f,,,,,,,,,,,,,,,,,,,,,,,,,,,,,,,,,,,,,,,,,,,,,,,,,,,,,,,,,,,,,,,,,,,,,,,,,,,,,,,,,,,,,,,,,,,,,,,,,,,,,,,,,,,,,,,,,,,,,,,,,,,,,,,,,,,,,,,,,,,,,,,,,,,,,,,,,,,,,,,,,,,
0,53,53,90,1,,5f966b181caf595331d1685e,62c53978bee84d668969a533,2022-07-06_09h31.23.195,Colour_Asymmetry_Pilot,2022.1.3,MacIntel,60.04202942,62c50e9c1127f2cd403a315f,,,,,,,,,,,,,,,,,,,,,,,,,,,,,,,,,,,,,,,,,,,,,,,,,,,,,,,,,,,,,,,,,,,,,,,,,,,,,,,,,,,,,,,,,,,,,,,,,,,,,,,,,,,,,,,,,,,,,,,,,,,,,,,,,,,,,,,,,,,,,,,,,,,,,,,,,,,,,,,,,,,
0,54,54,18,1,,5f966b181caf595331d1685e,62c53978bee84d668969a533,2022-07-06_09h31.23.195,Colour_Asymmetry_Pilot,2022.1.3,MacIntel,60.04202942,62c50e9c1127f2cd403a315f,,,,,,,,,,,,,,,,,,,,,,,,,,,,,,,,,,,,,,,,,,,,,,,,,,,,,,,,,,,,,,,,,,,,,,,,,,,,,,,,,,,,,,,,,,,,,,,,,,,,,,,,,,,,,,,,,,,,,,,,,,,,,,,,,,,,,,,,,,,,,,,,,,,,,,,,,,,,,,,,,,,
0,55,55,64,1,,5f966b181caf595331d1685e,62c53978bee84d668969a533,2022-07-06_09h31.23.195,Colour_Asymmetry_Pilot,2022.1.3,MacIntel,60.04202942,62c50e9c1127f2cd403a315f,,,,,,,,,,,,,,,,,,,,,,,,,,,,,,,,,,,,,,,,,,,,,,,,,,,,,,,,,,,,,,,,,,,,,,,,,,,,,,,,,,,,,,,,,,,,,,,,,,,,,,,,,,,,,,,,,,,,,,,,,,,,,,,,,,,,,,,,,,,,,,,,,,,,,,,,,,,,,,,,,,,
0,56,56,29,1,,5f966b181caf595331d1685e,62c53978bee84d668969a533,2022-07-06_09h31.23.195,Colour_Asymmetry_Pilot,2022.1.3,MacIntel,60.04202942,62c50e9c1127f2cd403a315f,,,,,,,,,,,,,,,,,,,,,,,,,,,,,,,,,,,,,,,,,,,,,,,,,,,,,,,,,,,,,,,,,,,,,,,,,,,,,,,,,,,,,,,,,,,,,,,,,,,,,,,,,,,,,,,,,,,,,,,,,,,,,,,,,,,,,,,,,,,,,,,,,,,,,,,,,,,,,,,,,,,
0,57,57,65,1,,5f966b181caf595331d1685e,62c53978bee84d668969a533,2022-07-06_09h31.23.195,Colour_Asymmetry_Pilot,2022.1.3,MacIntel,60.04202942,62c50e9c1127f2cd403a315f,,,,,,,,,,,,,,,,,,,,,,,,,,,,,,,,,,,,,,,,,,,,,,,,,,,,,,,,,,,,,,,,,,,,,,,,,,,,,,,,,,,,,,,,,,,,,,,,,,,,,,,,,,,,,,,,,,,,,,,,,,,,,,,,,,,,,,,,,,,,,,,,,,,,,,,,,,,,,,,,,,,
0,58,58,78,1,,5f966b181caf595331d1685e,62c53978bee84d668969a533,2022-07-06_09h31.23.195,Colour_Asymmetry_Pilot,2022.1.3,MacIntel,60.04202942,62c50e9c1127f2cd403a315f,,,,,,,,,,,,,,,,,,,,,,,,,,,,,,,,,,,,,,,,,,,,,,,,,,,,,,,,,,,,,,,,,,,,,,,,,,,,,,,,,,,,,,,,,,,,,,,,,,,,,,,,,,,,,,,,,,,,,,,,,,,,,,,,,,,,,,,,,,,,,,,,,,,,,,,,,,,,,,,,,,,
0,59,59,84,1,,5f966b181caf595331d1685e,62c53978bee84d668969a533,2022-07-06_09h31.23.195,Colour_Asymmetry_Pilot,2022.1.3,MacIntel,60.04202942,62c50e9c1127f2cd403a315f,,,,,,,,,,,,,,,,,,,,,,,,,,,,,,,,,,,,,,,,,,,,,,,,,,,,,,,,,,,,,,,,,,,,,,,,,,,,,,,,,,,,,,,,,,,,,,,,,,,,,,,,,,,,,,,,,,,,,,,,,,,,,,,,,,,,,,,,,,,,,,,,,,,,,,,,,,,,,,,,,,,
0,60,60,67,1,,5f966b181caf595331d1685e,62c53978bee84d668969a533,2022-07-06_09h31.23.195,Colour_Asymmetry_Pilot,2022.1.3,MacIntel,60.04202942,62c50e9c1127f2cd403a315f,,,,,,,,,,,,,,,,,,,,,,,,,,,,,,,,,,,,,,,,,,,,,,,,,,,,,,,,,,,,,,,,,,,,,,,,,,,,,,,,,,,,,,,,,,,,,,,,,,,,,,,,,,,,,,,,,,,,,,,,,,,,,,,,,,,,,,,,,,,,,,,,,,,,,,,,,,,,,,,,,,,
0,61,61,54,1,,5f966b181caf595331d1685e,62c53978bee84d668969a533,2022-07-06_09h31.23.195,Colour_Asymmetry_Pilot,2022.1.3,MacIntel,60.04202942,62c50e9c1127f2cd403a315f,,,,,,,,,,,,,,,,,,,,,,,,,,,,,,,,,,,,,,,,,,,,,,,,,,,,,,,,,,,,,,,,,,,,,,,,,,,,,,,,,,,,,,,,,,,,,,,,,,,,,,,,,,,,,,,,,,,,,,,,,,,,,,,,,,,,,,,,,,,,,,,,,,,,,,,,,,,,,,,,,,,
0,62,62,7,1,,5f966b181caf595331d1685e,62c53978bee84d668969a533,2022-07-06_09h31.23.195,Colour_Asymmetry_Pilot,2022.1.3,MacIntel,60.04202942,62c50e9c1127f2cd403a315f,,,,,,,,,,,,,,,,,,,,,,,,,,,,,,,,,,,,,,,,,,,,,,,,,,,,,,,,,,,,,,,,,,,,,,,,,,,,,,,,,,,,,,,,,,,,,,,,,,,,,,,,,,,,,,,,,,,,,,,,,,,,,,,,,,,,,,,,,,,,,,,,,,,,,,,,,,,,,,,,,,,
0,63,63,56,1,,5f966b181caf595331d1685e,62c53978bee84d668969a533,2022-07-06_09h31.23.195,Colour_Asymmetry_Pilot,2022.1.3,MacIntel,60.04202942,62c50e9c1127f2cd403a315f,,,,,,,,,,,,,,,,,,,,,,,,,,,,,,,,,,,,,,,,,,,,,,,,,,,,,,,,,,,,,,,,,,,,,,,,,,,,,,,,,,,,,,,,,,,,,,,,,,,,,,,,,,,,,,,,,,,,,,,,,,,,,,,,,,,,,,,,,,,,,,,,,,,,,,,,,,,,,,,,,,,
0,64,64,73,1,,5f966b181caf595331d1685e,62c53978bee84d668969a533,2022-07-06_09h31.23.195,Colour_Asymmetry_Pilot,2022.1.3,MacIntel,60.04202942,62c50e9c1127f2cd403a315f,,,,,,,,,,,,,,,,,,,,,,,,,,,,,,,,,,,,,,,,,,,,,,,,,,,,,,,,,,,,,,,,,,,,,,,,,,,,,,,,,,,,,,,,,,,,,,,,,,,,,,,,,,,,,,,,,,,,,,,,,,,,,,,,,,,,,,,,,,,,,,,,,,,,,,,,,,,,,,,,,,,
0,65,65,2,1,,5f966b181caf595331d1685e,62c53978bee84d668969a533,2022-07-06_09h31.23.195,Colour_Asymmetry_Pilot,2022.1.3,MacIntel,60.04202942,62c50e9c1127f2cd403a315f,,,,,,,,,,,,,,,,,,,,,,,,,,,,,,,,,,,,,,,,,,,,,,,,,,,,,,,,,,,,,,,,,,,,,,,,,,,,,,,,,,,,,,,,,,,,,,,,,,,,,,,,,,,,,,,,,,,,,,,,,,,,,,,,,,,,,,,,,,,,,,,,,,,,,,,,,,,,,,,,,,,
0,66,66,21,1,,5f966b181caf595331d1685e,62c53978bee84d668969a533,2022-07-06_09h31.23.195,Colour_Asymmetry_Pilot,2022.1.3,MacIntel,60.04202942,62c50e9c1127f2cd403a315f,,,,,,,,,,,,,,,,,,,,,,,,,,,,,,,,,,,,,,,,,,,,,,,,,,,,,,,,,,,,,,,,,,,,,,,,,,,,,,,,,,,,,,,,,,,,,,,,,,,,,,,,,,,,,,,,,,,,,,,,,,,,,,,,,,,,,,,,,,,,,,,,,,,,,,,,,,,,,,,,,,,
0,67,67,72,1,,5f966b181caf595331d1685e,62c53978bee84d668969a533,2022-07-06_09h31.23.195,Colour_Asymmetry_Pilot,2022.1.3,MacIntel,60.04202942,62c50e9c1127f2cd403a315f,,,,,,,,,,,,,,,,,,,,,,,,,,,,,,,,,,,,,,,,,,,,,,,,,,,,,,,,,,,,,,,,,,,,,,,,,,,,,,,,,,,,,,,,,,,,,,,,,,,,,,,,,,,,,,,,,,,,,,,,,,,,,,,,,,,,,,,,,,,,,,,,,,,,,,,,,,,,,,,,,,,
0,68,68,30,1,,5f966b181caf595331d1685e,62c53978bee84d668969a533,2022-07-06_09h31.23.195,Colour_Asymmetry_Pilot,2022.1.3,MacIntel,60.04202942,62c50e9c1127f2cd403a315f,,,,,,,,,,,,,,,,,,,,,,,,,,,,,,,,,,,,,,,,,,,,,,,,,,,,,,,,,,,,,,,,,,,,,,,,,,,,,,,,,,,,,,,,,,,,,,,,,,,,,,,,,,,,,,,,,,,,,,,,,,,,,,,,,,,,,,,,,,,,,,,,,,,,,,,,,,,,,,,,,,,
0,69,69,69,1,,5f966b181caf595331d1685e,62c53978bee84d668969a533,2022-07-06_09h31.23.195,Colour_Asymmetry_Pilot,2022.1.3,MacIntel,60.04202942,62c50e9c1127f2cd403a315f,,,,,,,,,,,,,,,,,,,,,,,,,,,,,,,,,,,,,,,,,,,,,,,,,,,,,,,,,,,,,,,,,,,,,,,,,,,,,,,,,,,,,,,,,,,,,,,,,,,,,,,,,,,,,,,,,,,,,,,,,,,,,,,,,,,,,,,,,,,,,,,,,,,,,,,,,,,,,,,,,,,
0,70,70,58,1,,5f966b181caf595331d1685e,62c53978bee84d668969a533,2022-07-06_09h31.23.195,Colour_Asymmetry_Pilot,2022.1.3,MacIntel,60.04202942,62c50e9c1127f2cd403a315f,,,,,,,,,,,,,,,,,,,,,,,,,,,,,,,,,,,,,,,,,,,,,,,,,,,,,,,,,,,,,,,,,,,,,,,,,,,,,,,,,,,,,,,,,,,,,,,,,,,,,,,,,,,,,,,,,,,,,,,,,,,,,,,,,,,,,,,,,,,,,,,,,,,,,,,,,,,,,,,,,,,
0,71,71,71,1,,5f966b181caf595331d1685e,62c53978bee84d668969a533,2022-07-06_09h31.23.195,Colour_Asymmetry_Pilot,2022.1.3,MacIntel,60.04202942,62c50e9c1127f2cd403a315f,,,,,,,,,,,,,,,,,,,,,,,,,,,,,,,,,,,,,,,,,,,,,,,,,,,,,,,,,,,,,,,,,,,,,,,,,,,,,,,,,,,,,,,,,,,,,,,,,,,,,,,,,,,,,,,,,,,,,,,,,,,,,,,,,,,,,,,,,,,,,,,,,,,,,,,,,,,,,,,,,,,
0,72,72,74,1,,5f966b181caf595331d1685e,62c53978bee84d668969a533,2022-07-06_09h31.23.195,Colour_Asymmetry_Pilot,2022.1.3,MacIntel,60.04202942,62c50e9c1127f2cd403a315f,,,,,,,,,,,,,,,,,,,,,,,,,,,,,,,,,,,,,,,,,,,,,,,,,,,,,,,,,,,,,,,,,,,,,,,,,,,,,,,,,,,,,,,,,,,,,,,,,,,,,,,,,,,,,,,,,,,,,,,,,,,,,,,,,,,,,,,,,,,,,,,,,,,,,,,,,,,,,,,,,,,
0,73,73,4,1,,5f966b181caf595331d1685e,62c53978bee84d668969a533,2022-07-06_09h31.23.195,Colour_Asymmetry_Pilot,2022.1.3,MacIntel,60.04202942,62c50e9c1127f2cd403a315f,,,,,,,,,,,,,,,,,,,,,,,,,,,,,,,,,,,,,,,,,,,,,,,,,,,,,,,,,,,,,,,,,,,,,,,,,,,,,,,,,,,,,,,,,,,,,,,,,,,,,,,,,,,,,,,,,,,,,,,,,,,,,,,,,,,,,,,,,,,,,,,,,,,,,,,,,,,,,,,,,,,
0,74,74,75,1,,5f966b181caf595331d1685e,62c53978bee84d668969a533,2022-07-06_09h31.23.195,Colour_Asymmetry_Pilot,2022.1.3,MacIntel,60.04202942,62c50e9c1127f2cd403a315f,,,,,,,,,,,,,,,,,,,,,,,,,,,,,,,,,,,,,,,,,,,,,,,,,,,,,,,,,,,,,,,,,,,,,,,,,,,,,,,,,,,,,,,,,,,,,,,,,,,,,,,,,,,,,,,,,,,,,,,,,,,,,,,,,,,,,,,,,,,,,,,,,,,,,,,,,,,,,,,,,,,
0,75,75,79,1,,5f966b181caf595331d1685e,62c53978bee84d668969a533,2022-07-06_09h31.23.195,Colour_Asymmetry_Pilot,2022.1.3,MacIntel,60.04202942,62c50e9c1127f2cd403a315f,,,,,,,,,,,,,,,,,,,,,,,,,,,,,,,,,,,,,,,,,,,,,,,,,,,,,,,,,,,,,,,,,,,,,,,,,,,,,,,,,,,,,,,,,,,,,,,,,,,,,,,,,,,,,,,,,,,,,,,,,,,,,,,,,,,,,,,,,,,,,,,,,,,,,,,,,,,,,,,,,,,
0,76,76,81,1,,5f966b181caf595331d1685e,62c53978bee84d668969a533,2022-07-06_09h31.23.195,Colour_Asymmetry_Pilot,2022.1.3,MacIntel,60.04202942,62c50e9c1127f2cd403a315f,,,,,,,,,,,,,,,,,,,,,,,,,,,,,,,,,,,,,,,,,,,,,,,,,,,,,,,,,,,,,,,,,,,,,,,,,,,,,,,,,,,,,,,,,,,,,,,,,,,,,,,,,,,,,,,,,,,,,,,,,,,,,,,,,,,,,,,,,,,,,,,,,,,,,,,,,,,,,,,,,,,
0,77,77,83,1,,5f966b181caf595331d1685e,62c53978bee84d668969a533,2022-07-06_09h31.23.195,Colour_Asymmetry_Pilot,2022.1.3,MacIntel,60.04202942,62c50e9c1127f2cd403a315f,,,,,,,,,,,,,,,,,,,,,,,,,,,,,,,,,,,,,,,,,,,,,,,,,,,,,,,,,,,,,,,,,,,,,,,,,,,,,,,,,,,,,,,,,,,,,,,,,,,,,,,,,,,,,,,,,,,,,,,,,,,,,,,,,,,,,,,,,,,,,,,,,,,,,,,,,,,,,,,,,,,
0,78,78,11,1,,5f966b181caf595331d1685e,62c53978bee84d668969a533,2022-07-06_09h31.23.195,Colour_Asymmetry_Pilot,2022.1.3,MacIntel,60.04202942,62c50e9c1127f2cd403a315f,,,,,,,,,,,,,,,,,,,,,,,,,,,,,,,,,,,,,,,,,,,,,,,,,,,,,,,,,,,,,,,,,,,,,,,,,,,,,,,,,,,,,,,,,,,,,,,,,,,,,,,,,,,,,,,,,,,,,,,,,,,,,,,,,,,,,,,,,,,,,,,,,,,,,,,,,,,,,,,,,,,
0,79,79,70,1,,5f966b181caf595331d1685e,62c53978bee84d668969a533,2022-07-06_09h31.23.195,Colour_Asymmetry_Pilot,2022.1.3,MacIntel,60.04202942,62c50e9c1127f2cd403a315f,,,,,,,,,,,,,,,,,,,,,,,,,,,,,,,,,,,,,,,,,,,,,,,,,,,,,,,,,,,,,,,,,,,,,,,,,,,,,,,,,,,,,,,,,,,,,,,,,,,,,,,,,,,,,,,,,,,,,,,,,,,,,,,,,,,,,,,,,,,,,,,,,,,,,,,,,,,,,,,,,,,
0,80,80,62,1,,5f966b181caf595331d1685e,62c53978bee84d668969a533,2022-07-06_09h31.23.195,Colour_Asymmetry_Pilot,2022.1.3,MacIntel,60.04202942,62c50e9c1127f2cd403a315f,,,,,,,,,,,,,,,,,,,,,,,,,,,,,,,,,,,,,,,,,,,,,,,,,,,,,,,,,,,,,,,,,,,,,,,,,,,,,,,,,,,,,,,,,,,,,,,,,,,,,,,,,,,,,,,,,,,,,,,,,,,,,,,,,,,,,,,,,,,,,,,,,,,,,,,,,,,,,,,,,,,
0,81,81,10,1,,5f966b181caf595331d1685e,62c53978bee84d668969a533,2022-07-06_09h31.23.195,Colour_Asymmetry_Pilot,2022.1.3,MacIntel,60.04202942,62c50e9c1127f2cd403a315f,,,,,,,,,,,,,,,,,,,,,,,,,,,,,,,,,,,,,,,,,,,,,,,,,,,,,,,,,,,,,,,,,,,,,,,,,,,,,,,,,,,,,,,,,,,,,,,,,,,,,,,,,,,,,,,,,,,,,,,,,,,,,,,,,,,,,,,,,,,,,,,,,,,,,,,,,,,,,,,,,,,
0,82,82,68,1,,5f966b181caf595331d1685e,62c53978bee84d668969a533,2022-07-06_09h31.23.195,Colour_Asymmetry_Pilot,2022.1.3,MacIntel,60.04202942,62c50e9c1127f2cd403a315f,,,,,,,,,,,,,,,,,,,,,,,,,,,,,,,,,,,,,,,,,,,,,,,,,,,,,,,,,,,,,,,,,,,,,,,,,,,,,,,,,,,,,,,,,,,,,,,,,,,,,,,,,,,,,,,,,,,,,,,,,,,,,,,,,,,,,,,,,,,,,,,,,,,,,,,,,,,,,,,,,,,
0,83,83,50,1,,5f966b181caf595331d1685e,62c53978bee84d668969a533,2022-07-06_09h31.23.195,Colour_Asymmetry_Pilot,2022.1.3,MacIntel,60.04202942,62c50e9c1127f2cd403a315f,,,,,,,,,,,,,,,,,,,,,,,,,,,,,,,,,,,,,,,,,,,,,,,,,,,,,,,,,,,,,,,,,,,,,,,,,,,,,,,,,,,,,,,,,,,,,,,,,,,,,,,,,,,,,,,,,,,,,,,,,,,,,,,,,,,,,,,,,,,,,,,,,,,,,,,,,,,,,,,,,,,
0,84,84,61,1,,5f966b181caf595331d1685e,62c53978bee84d668969a533,2022-07-06_09h31.23.195,Colour_Asymmetry_Pilot,2022.1.3,MacIntel,60.04202942,62c50e9c1127f2cd403a315f,,,,,,,,,,,,,,,,,,,,,,,,,,,,,,,,,,,,,,,,,,,,,,,,,,,,,,,,,,,,,,,,,,,,,,,,,,,,,,,,,,,,,,,,,,,,,,,,,,,,,,,,,,,,,,,,,,,,,,,,,,,,,,,,,,,,,,,,,,,,,,,,,,,,,,,,,,,,,,,,,,,
0,85,85,87,1,,5f966b181caf595331d1685e,62c53978bee84d668969a533,2022-07-06_09h31.23.195,Colour_Asymmetry_Pilot,2022.1.3,MacIntel,60.04202942,62c50e9c1127f2cd403a315f,,,,,,,,,,,,,,,,,,,,,,,,,,,,,,,,,,,,,,,,,,,,,,,,,,,,,,,,,,,,,,,,,,,,,,,,,,,,,,,,,,,,,,,,,,,,,,,,,,,,,,,,,,,,,,,,,,,,,,,,,,,,,,,,,,,,,,,,,,,,,,,,,,,,,,,,,,,,,,,,,,,
0,86,86,16,1,,5f966b181caf595331d1685e,62c53978bee84d668969a533,2022-07-06_09h31.23.195,Colour_Asymmetry_Pilot,2022.1.3,MacIntel,60.04202942,62c50e9c1127f2cd403a315f,,,,,,,,,,,,,,,,,,,,,,,,,,,,,,,,,,,,,,,,,,,,,,,,,,,,,,,,,,,,,,,,,,,,,,,,,,,,,,,,,,,,,,,,,,,,,,,,,,,,,,,,,,,,,,,,,,,,,,,,,,,,,,,,,,,,,,,,,,,,,,,,,,,,,,,,,,,,,,,,,,,
0,87,87,48,1,,5f966b181caf595331d1685e,62c53978bee84d668969a533,2022-07-06_09h31.23.195,Colour_Asymmetry_Pilot,2022.1.3,MacIntel,60.04202942,62c50e9c1127f2cd403a315f,,,,,,,,,,,,,,,,,,,,,,,,,,,,,,,,,,,,,,,,,,,,,,,,,,,,,,,,,,,,,,,,,,,,,,,,,,,,,,,,,,,,,,,,,,,,,,,,,,,,,,,,,,,,,,,,,,,,,,,,,,,,,,,,,,,,,,,,,,,,,,,,,,,,,,,,,,,,,,,,,,,
0,88,88,24,1,,5f966b181caf595331d1685e,62c53978bee84d668969a533,2022-07-06_09h31.23.195,Colour_Asymmetry_Pilot,2022.1.3,MacIntel,60.04202942,62c50e9c1127f2cd403a315f,,,,,,,,,,,,,,,,,,,,,,,,,,,,,,,,,,,,,,,,,,,,,,,,,,,,,,,,,,,,,,,,,,,,,,,,,,,,,,,,,,,,,,,,,,,,,,,,,,,,,,,,,,,,,,,,,,,,,,,,,,,,,,,,,,,,,,,,,,,,,,,,,,,,,,,,,,,,,,,,,,,
0,89,89,77,1,,5f966b181caf595331d1685e,62c53978bee84d668969a533,2022-07-06_09h31.23.195,Colour_Asymmetry_Pilot,2022.1.3,MacIntel,60.04202942,62c50e9c1127f2cd403a315f,,,,,,,,,,,,,,,,,,,,,,,,,,,,,,,,,,,,,,,,,,,,,,,,,,,,,,,,,,,,,,,,,,,,,,,,,,,,,,,,,,,,,,,,,,,,,,,,,,,,,,,,,,,,,,,,,,,,,,,,,,,,,,,,,,,,,,,,,,,,,,,,,,,,,,,,,,,,,,,,,,,
0,90,90,26,1,,5f966b181caf595331d1685e,62c53978bee84d668969a533,2022-07-06_09h31.23.195,Colour_Asymmetry_Pilot,2022.1.3,MacIntel,60.04202942,62c50e9c1127f2cd403a315f,,,,,,,,,,,,,,,,,,,,,,,,,,,,,,,,,,,,,,,,,,,,,,,,,,,,,,,,,,,,,,,,,,,,,,,,,,,,,,,,,,,,,,,,,,,,,,,,,,,,,,,,,,,,,,,,,,,,,,,,,,,,,,,,,,,,,,,,,,,,,,,,,,,,,,,,,,,,,,,,,,,
0,91,91,52,1,,5f966b181caf595331d1685e,62c53978bee84d668969a533,2022-07-06_09h31.23.195,Colour_Asymmetry_Pilot,2022.1.3,MacIntel,60.04202942,62c50e9c1127f2cd403a315f,,,,,,,,,,,,,,,,,,,,,,,,,,,,,,,,,,,,,,,,,,,,,,,,,,,,,,,,,,,,,,,,,,,,,,,,,,,,,,,,,,,,,,,,,,,,,,,,,,,,,,,,,,,,,,,,,,,,,,,,,,,,,,,,,,,,,,,,,,,,,,,,,,,,,,,,,,,,,,,,,,,
0,92,92,19,1,,5f966b181caf595331d1685e,62c53978bee84d668969a533,2022-07-06_09h31.23.195,Colour_Asymmetry_Pilot,2022.1.3,MacIntel,60.04202942,62c50e9c1127f2cd403a315f,,,,,,,,,,,,,,,,,,,,,,,,,,,,,,,,,,,,,,,,,,,,,,,,,,,,,,,,,,,,,,,,,,,,,,,,,,,,,,,,,,,,,,,,,,,,,,,,,,,,,,,,,,,,,,,,,,,,,,,,,,,,,,,,,,,,,,,,,,,,,,,,,,,,,,,,,,,,,,,,,,,
,,,,,,5f966b181caf595331d1685e,62c53978bee84d668969a533,2022-07-06_09h31.23.195,Colour_Asymmetry_Pilot,2022.1.3,MacIntel,60.04202942,62c50e9c1127f2cd403a315f,0,0,0,103,1,fourthree,,,,,,,,,,,,,,,,,,,,,,,,,,,,,,,,,,,,,,,,,,,,,,,,,,,,,,,,,,,,,,,,,,,,,,,,,,,,,,,,,,,,,,,,,,,,,,,,,,,,,,,,,,,,,,,,,,,,,,,,,,,,,,,,,,,,,,,,,,,,,,,,,,,,,,,,,,,,,
,,,,,,5f966b181caf595331d1685e,62c53978bee84d668969a533,2022-07-06_09h31.23.195,Colour_Asymmetry_Pilot,2022.1.3,MacIntel,60.04202942,62c50e9c1127f2cd403a315f,0,1,1,86,1,fourtwo,,,,,,,,,,,,,,,,,,,,,,,,,,,,,,,,,,,,,,,,,,,,,,,,,,,,,,,,,,,,,,,,,,,,,,,,,,,,,,,,,,,,,,,,,,,,,,,,,,,,,,,,,,,,,,,,,,,,,,,,,,,,,,,,,,,,,,,,,,,,,,,,,,,,,,,,,,,,,
,,,,,,5f966b181caf595331d1685e,62c53978bee84d668969a533,2022-07-06_09h31.23.195,Colour_Asymmetry_Pilot,2022.1.3,MacIntel,60.04202942,62c50e9c1127f2cd403a315f,0,2,2,161,1,onethree,,,,,,,,,,,,,,,,,,,,,,,,,,,,,,,,,,,,,,,,,,,,,,,,,,,,,,,,,,,,,,,,,,,,,,,,,,,,,,,,,,,,,,,,,,,,,,,,,,,,,,,,,,,,,,,,,,,,,,,,,,,,,,,,,,,,,,,,,,,,,,,,,,,,,,,,,,,,,
,,,,,,5f966b181caf595331d1685e,62c53978bee84d668969a533,2022-07-06_09h31.23.195,Colour_Asymmetry_Pilot,2022.1.3,MacIntel,60.04202942,62c50e9c1127f2cd403a315f,0,3,3,143,1,fourthree,,,,,,,,,,,,,,,,,,,,,,,,,,,,,,,,,,,,,,,,,,,,,,,,,,,,,,,,,,,,,,,,,,,,,,,,,,,,,,,,,,,,,,,,,,,,,,,,,,,,,,,,,,,,,,,,,,,,,,,,,,,,,,,,,,,,,,,,,,,,,,,,,,,,,,,,,,,,,
,,,,,,5f966b181caf595331d1685e,62c53978bee84d668969a533,2022-07-06_09h31.23.195,Colour_Asymmetry_Pilot,2022.1.3,MacIntel,60.04202942,62c50e9c1127f2cd403a315f,0,4,4,129,1,onethree,,,,,,,,,,,,,,,,,,,,,,,,,,,,,,,,,,,,,,,,,,,,,,,,,,,,,,,,,,,,,,,,,,,,,,,,,,,,,,,,,,,,,,,,,,,,,,,,,,,,,,,,,,,,,,,,,,,,,,,,,,,,,,,,,,,,,,,,,,,,,,,,,,,,,,,,,,,,,
,,,,,,5f966b181caf595331d1685e,62c53978bee84d668969a533,2022-07-06_09h31.23.195,Colour_Asymmetry_Pilot,2022.1.3,MacIntel,60.04202942,62c50e9c1127f2cd403a315f,0,5,5,134,1,fourtwo,,,,,,,,,,,,,,,,,,,,,,,,,,,,,,,,,,,,,,,,,,,,,,,,,,,,,,,,,,,,,,,,,,,,,,,,,,,,,,,,,,,,,,,,,,,,,,,,,,,,,,,,,,,,,,,,,,,,,,,,,,,,,,,,,,,,,,,,,,,,,,,,,,,,,,,,,,,,,
,,,,,,5f966b181caf595331d1685e,62c53978bee84d668969a533,2022-07-06_09h31.23.195,Colour_Asymmetry_Pilot,2022.1.3,MacIntel,60.04202942,62c50e9c1127f2cd403a315f,0,6,6,145,1,onethree,,,,,,,,,,,,,,,,,,,,,,,,,,,,,,,,,,,,,,,,,,,,,,,,,,,,,,,,,,,,,,,,,,,,,,,,,,,,,,,,,,,,,,,,,,,,,,,,,,,,,,,,,,,,,,,,,,,,,,,,,,,,,,,,,,,,,,,,,,,,,,,,,,,,,,,,,,,,,
,,,,,,5f966b181caf595331d1685e,62c53978bee84d668969a533,2022-07-06_09h31.23.195,Colour_Asymmetry_Pilot,2022.1.3,MacIntel,60.04202942,62c50e9c1127f2cd403a315f,0,7,7,88,1,onetwo,,,,,,,,,,,,,,,,,,,,,,,,,,,,,,,,,,,,,,,,,,,,,,,,,,,,,,,,,,,,,,,,,,,,,,,,,,,,,,,,,,,,,,,,,,,,,,,,,,,,,,,,,,,,,,,,,,,,,,,,,,,,,,,,,,,,,,,,,,,,,,,,,,,,,,,,,,,,,
,,,,,,5f966b181caf595331d1685e,62c53978bee84d668969a533,2022-07-06_09h31.23.195,Colour_Asymmetry_Pilot,2022.1.3,MacIntel,60.04202942,62c50e9c1127f2cd403a315f,0,8,8,127,1,fourthree,,,,,,,,,,,,,,,,,,,,,,,,,,,,,,,,,,,,,,,,,,,,,,,,,,,,,,,,,,,,,,,,,,,,,,,,,,,,,,,,,,,,,,,,,,,,,,,,,,,,,,,,,,,,,,,,,,,,,,,,,,,,,,,,,,,,,,,,,,,,,,,,,,,,,,,,,,,,,
,,,,,,5f966b181caf595331d1685e,62c53978bee84d668969a533,2022-07-06_09h31.23.195,Colour_Asymmetry_Pilot,2022.1.3,MacIntel,60.04202942,62c50e9c1127f2cd403a315f,0,9,9,119,1,fourthree,,,,,,,,,,,,,,,,,,,,,,,,,,,,,,,,,,,,,,,,,,,,,,,,,,,,,,,,,,,,,,,,,,,,,,,,,,,,,,,,,,,,,,,,,,,,,,,,,,,,,,,,,,,,,,,,,,,,,,,,,,,,,,,,,,,,,,,,,,,,,,,,,,,,,,,,,,,,,
,,,,,,5f966b181caf595331d1685e,62c53978bee84d668969a533,2022-07-06_09h31.23.195,Colour_Asymmetry_Pilot,2022.1.3,MacIntel,60.04202942,62c50e9c1127f2cd403a315f,0,10,10,71,1,fourthree,,,,,,,,,,,,,,,,,,,,,,,,,,,,,,,,,,,,,,,,,,,,,,,,,,,,,,,,,,,,,,,,,,,,,,,,,,,,,,,,,,,,,,,,,,,,,,,,,,,,,,,,,,,,,,,,,,,,,,,,,,,,,,,,,,,,,,,,,,,,,,,,,,,,,,,,,,,,,
,,,,,,5f966b181caf595331d1685e,62c53978bee84d668969a533,2022-07-06_09h31.23.195,Colour_Asymmetry_Pilot,2022.1.3,MacIntel,60.04202942,62c50e9c1127f2cd403a315f,0,11,11,55,1,fourthree,,,,,,,,,,,,,,,,,,,,,,,,,,,,,,,,,,,,,,,,,,,,,,,,,,,,,,,,,,,,,,,,,,,,,,,,,,,,,,,,,,,,,,,,,,,,,,,,,,,,,,,,,,,,,,,,,,,,,,,,,,,,,,,,,,,,,,,,,,,,,,,,,,,,,,,,,,,,,
,,,,,,5f966b181caf595331d1685e,62c53978bee84d668969a533,2022-07-06_09h31.23.195,Colour_Asymmetry_Pilot,2022.1.3,MacIntel,60.04202942,62c50e9c1127f2cd403a315f,0,12,12,150,1,fourtwo,,,,,,,,,,,,,,,,,,,,,,,,,,,,,,,,,,,,,,,,,,,,,,,,,,,,,,,,,,,,,,,,,,,,,,,,,,,,,,,,,,,,,,,,,,,,,,,,,,,,,,,,,,,,,,,,,,,,,,,,,,,,,,,,,,,,,,,,,,,,,,,,,,,,,,,,,,,,,
,,,,,,5f966b181caf595331d1685e,62c53978bee84d668969a533,2022-07-06_09h31.23.195,Colour_Asymmetry_Pilot,2022.1.3,MacIntel,60.04202942,62c50e9c1127f2cd403a315f,0,13,13,63,1,fourthree,,,,,,,,,,,,,,,,,,,,,,,,,,,,,,,,,,,,,,,,,,,,,,,,,,,,,,,,,,,,,,,,,,,,,,,,,,,,,,,,,,,,,,,,,,,,,,,,,,,,,,,,,,,,,,,,,,,,,,,,,,,,,,,,,,,,,,,,,,,,,,,,,,,,,,,,,,,,,
,,,,,,5f966b181caf595331d1685e,62c53978bee84d668969a533,2022-07-06_09h31.23.195,Colour_Asymmetry_Pilot,2022.1.3,MacIntel,60.04202942,62c50e9c1127f2cd403a315f,0,14,14,98,1,twoone,,,,,,,,,,,,,,,,,,,,,,,,,,,,,,,,,,,,,,,,,,,,,,,,,,,,,,,,,,,,,,,,,,,,,,,,,,,,,,,,,,,,,,,,,,,,,,,,,,,,,,,,,,,,,,,,,,,,,,,,,,,,,,,,,,,,,,,,,,,,,,,,,,,,,,,,,,,,,
,,,,,,5f966b181caf595331d1685e,62c53978bee84d668969a533,2022-07-06_09h31.23.195,Colour_Asymmetry_Pilot,2022.1.3,MacIntel,60.04202942,62c50e9c1127f2cd403a315f,0,15,15,155,1,twofour,,,,,,,,,,,,,,,,,,,,,,,,,,,,,,,,,,,,,,,,,,,,,,,,,,,,,,,,,,,,,,,,,,,,,,,,,,,,,,,,,,,,,,,,,,,,,,,,,,,,,,,,,,,,,,,,,,,,,,,,,,,,,,,,,,,,,,,,,,,,,,,,,,,,,,,,,,,,,
,,,,,,5f966b181caf595331d1685e,62c53978bee84d668969a533,2022-07-06_09h31.23.195,Colour_Asymmetry_Pilot,2022.1.3,MacIntel,60.04202942,62c50e9c1127f2cd403a315f,0,16,16,107,1,twofour,,,,,,,,,,,,,,,,,,,,,,,,,,,,,,,,,,,,,,,,,,,,,,,,,,,,,,,,,,,,,,,,,,,,,,,,,,,,,,,,,,,,,,,,,,,,,,,,,,,,,,,,,,,,,,,,,,,,,,,,,,,,,,,,,,,,,,,,,,,,,,,,,,,,,,,,,,,,,
,,,,,,5f966b181caf595331d1685e,62c53978bee84d668969a533,2022-07-06_09h31.23.195,Colour_Asymmetry_Pilot,2022.1.3,MacIntel,60.04202942,62c50e9c1127f2cd403a315f,0,17,17,102,1,fourtwo,,,,,,,,,,,,,,,,,,,,,,,,,,,,,,,,,,,,,,,,,,,,,,,,,,,,,,,,,,,,,,,,,,,,,,,,,,,,,,,,,,,,,,,,,,,,,,,,,,,,,,,,,,,,,,,,,,,,,,,,,,,,,,,,,,,,,,,,,,,,,,,,,,,,,,,,,,,,,
,,,,,,5f966b181caf595331d1685e,62c53978bee84d668969a533,2022-07-06_09h31.23.195,Colour_Asymmetry_Pilot,2022.1.3,MacIntel,60.04202942,62c50e9c1127f2cd403a315f,0,18,18,59,1,twofour,,,,,,,,,,,,,,,,,,,,,,,,,,,,,,,,,,,,,,,,,,,,,,,,,,,,,,,,,,,,,,,,,,,,,,,,,,,,,,,,,,,,,,,,,,,,,,,,,,,,,,,,,,,,,,,,,,,,,,,,,,,,,,,,,,,,,,,,,,,,,,,,,,,,,,,,,,,,,
,,,,,,5f966b181caf595331d1685e,62c53978bee84d668969a533,2022-07-06_09h31.23.195,Colour_Asymmetry_Pilot,2022.1.3,MacIntel,60.04202942,62c50e9c1127f2cd403a315f,0,19,19,3,1,twofour,,,,,,,,,,,,,,,,,,,,,,,,,,,,,,,,,,,,,,,,,,,,,,,,,,,,,,,,,,,,,,,,,,,,,,,,,,,,,,,,,,,,,,,,,,,,,,,,,,,,,,,,,,,,,,,,,,,,,,,,,,,,,,,,,,,,,,,,,,,,,,,,,,,,,,,,,,,,,
,,,,,,5f966b181caf595331d1685e,62c53978bee84d668969a533,2022-07-06_09h31.23.195,Colour_Asymmetry_Pilot,2022.1.3,MacIntel,60.04202942,62c50e9c1127f2cd403a315f,0,20,20,38,1,fourtwo,,,,,,,,,,,,,,,,,,,,,,,,,,,,,,,,,,,,,,,,,,,,,,,,,,,,,,,,,,,,,,,,,,,,,,,,,,,,,,,,,,,,,,,,,,,,,,,,,,,,,,,,,,,,,,,,,,,,,,,,,,,,,,,,,,,,,,,,,,,,,,,,,,,,,,,,,,,,,
,,,,,,5f966b181caf595331d1685e,62c53978bee84d668969a533,2022-07-06_09h31.23.195,Colour_Asymmetry_Pilot,2022.1.3,MacIntel,60.04202942,62c50e9c1127f2cd403a315f,0,21,21,82,1,twoone,,,,,,,,,,,,,,,,,,,,,,,,,,,,,,,,,,,,,,,,,,,,,,,,,,,,,,,,,,,,,,,,,,,,,,,,,,,,,,,,,,,,,,,,,,,,,,,,,,,,,,,,,,,,,,,,,,,,,,,,,,,,,,,,,,,,,,,,,,,,,,,,,,,,,,,,,,,,,
,,,,,,5f966b181caf595331d1685e,62c53978bee84d668969a533,2022-07-06_09h31.23.195,Colour_Asymmetry_Pilot,2022.1.3,MacIntel,60.04202942,62c50e9c1127f2cd403a315f,0,22,22,30,1,fourtwo,,,,,,,,,,,,,,,,,,,,,,,,,,,,,,,,,,,,,,,,,,,,,,,,,,,,,,,,,,,,,,,,,,,,,,,,,,,,,,,,,,,,,,,,,,,,,,,,,,,,,,,,,,,,,,,,,,,,,,,,,,,,,,,,,,,,,,,,,,,,,,,,,,,,,,,,,,,,,
,,,,,,5f966b181caf595331d1685e,62c53978bee84d668969a533,2022-07-06_09h31.23.195,Colour_Asymmetry_Pilot,2022.1.3,MacIntel,60.04202942,62c50e9c1127f2cd403a315f,0,23,23,154,1,twoone,,,,,,,,,,,,,,,,,,,,,,,,,,,,,,,,,,,,,,,,,,,,,,,,,,,,,,,,,,,,,,,,,,,,,,,,,,,,,,,,,,,,,,,,,,,,,,,,,,,,,,,,,,,,,,,,,,,,,,,,,,,,,,,,,,,,,,,,,,,,,,,,,,,,,,,,,,,,,
,,,,,,5f966b181caf595331d1685e,62c53978bee84d668969a533,2022-07-06_09h31.23.195,Colour_Asymmetry_Pilot,2022.1.3,MacIntel,60.04202942,62c50e9c1127f2cd403a315f,0,24,24,49,1,onethree,,,,,,,,,,,,,,,,,,,,,,,,,,,,,,,,,,,,,,,,,,,,,,,,,,,,,,,,,,,,,,,,,,,,,,,,,,,,,,,,,,,,,,,,,,,,,,,,,,,,,,,,,,,,,,,,,,,,,,,,,,,,,,,,,,,,,,,,,,,,,,,,,,,,,,,,,,,,,
,,,,,,5f966b181caf595331d1685e,62c53978bee84d668969a533,2022-07-06_09h31.23.195,Colour_Asymmetry_Pilot,2022.1.3,MacIntel,60.04202942,62c50e9c1127f2cd403a315f,0,25,25,70,1,fourtwo,,,,,,,,,,,,,,,,,,,,,,,,,,,,,,,,,,,,,,,,,,,,,,,,,,,,,,,,,,,,,,,,,,,,,,,,,,,,,,,,,,,,,,,,,,,,,,,,,,,,,,,,,,,,,,,,,,,,,,,,,,,,,,,,,,,,,,,,,,,,,,,,,,,,,,,,,,,,,
,,,,,,5f966b181caf595331d1685e,62c53978bee84d668969a533,2022-07-06_09h31.23.195,Colour_Asymmetry_Pilot,2022.1.3,MacIntel,60.04202942,62c50e9c1127f2cd403a315f,0,26,26,124,1,threeone,,,,,,,,,,,,,,,,,,,,,,,,,,,,,,,,,,,,,,,,,,,,,,,,,,,,,,,,,,,,,,,,,,,,,,,,,,,,,,,,,,,,,,,,,,,,,,,,,,,,,,,,,,,,,,,,,,,,,,,,,,,,,,,,,,,,,,,,,,,,,,,,,,,,,,,,,,,,,
,,,,,,5f966b181caf595331d1685e,62c53978bee84d668969a533,2022-07-06_09h31.23.195,Colour_Asymmetry_Pilot,2022.1.3,MacIntel,60.04202942,62c50e9c1127f2cd403a315f,0,27,27,61,1,threefour,,,,,,,,,,,,,,,,,,,,,,,,,,,,,,,,,,,,,,,,,,,,,,,,,,,,,,,,,,,,,,,,,,,,,,,,,,,,,,,,,,,,,,,,,,,,,,,,,,,,,,,,,,,,,,,,,,,,,,,,,,,,,,,,,,,,,,,,,,,,,,,,,,,,,,,,,,,,,
,,,,,,5f966b181caf595331d1685e,62c53978bee84d668969a533,2022-07-06_09h31.23.195,Colour_Asymmetry_Pilot,2022.1.3,MacIntel,60.04202942,62c50e9c1127f2cd403a315f,0,28,28,126,1,fourtwo,,,,,,,,,,,,,,,,,,,,,,,,,,,,,,,,,,,,,,,,,,,,,,,,,,,,,,,,,,,,,,,,,,,,,,,,,,,,,,,,,,,,,,,,,,,,,,,,,,,,,,,,,,,,,,,,,,,,,,,,,,,,,,,,,,,,,,,,,,,,,,,,,,,,,,,,,,,,,
,,,,,,5f966b181caf595331d1685e,62c53978bee84d668969a533,2022-07-06_09h31.23.195,Colour_Asymmetry_Pilot,2022.1.3,MacIntel,60.04202942,62c50e9c1127f2cd403a315f,0,29,29,93,1,threefour,,,,,,,,,,,,,,,,,,,,,,,,,,,,,,,,,,,,,,,,,,,,,,,,,,,,,,,,,,,,,,,,,,,,,,,,,,,,,,,,,,,,,,,,,,,,,,,,,,,,,,,,,,,,,,,,,,,,,,,,,,,,,,,,,,,,,,,,,,,,,,,,,,,,,,,,,,,,,
,,,,,,5f966b181caf595331d1685e,62c53978bee84d668969a533,2022-07-06_09h31.23.195,Colour_Asymmetry_Pilot,2022.1.3,MacIntel,60.04202942,62c50e9c1127f2cd403a315f,0,30,30,122,1,twoone,,,,,,,,,,,,,,,,,,,,,,,,,,,,,,,,,,,,,,,,,,,,,,,,,,,,,,,,,,,,,,,,,,,,,,,,,,,,,,,,,,,,,,,,,,,,,,,,,,,,,,,,,,,,,,,,,,,,,,,,,,,,,,,,,,,,,,,,,,,,,,,,,,,,,,,,,,,,,
,,,,,,5f966b181caf595331d1685e,62c53978bee84d668969a533,2022-07-06_09h31.23.195,Colour_Asymmetry_Pilot,2022.1.3,MacIntel,60.04202942,62c50e9c1127f2cd403a315f,0,31,31,90,1,twoone,,,,,,,,,,,,,,,,,,,,,,,,,,,,,,,,,,,,,,,,,,,,,,,,,,,,,,,,,,,,,,,,,,,,,,,,,,,,,,,,,,,,,,,,,,,,,,,,,,,,,,,,,,,,,,,,,,,,,,,,,,,,,,,,,,,,,,,,,,,,,,,,,,,,,,,,,,,,,
,,,,,,5f966b181caf595331d1685e,62c53978bee84d668969a533,2022-07-06_09h31.23.195,Colour_Asymmetry_Pilot,2022.1.3,MacIntel,60.04202942,62c50e9c1127f2cd403a315f,0,32,32,22,1,fourtwo,,,,,,,,,,,,,,,,,,,,,,,,,,,,,,,,,,,,,,,,,,,,,,,,,,,,,,,,,,,,,,,,,,,,,,,,,,,,,,,,,,,,,,,,,,,,,,,,,,,,,,,,,,,,,,,,,,,,,,,,,,,,,,,,,,,,,,,,,,,,,,,,,,,,,,,,,,,,,
,,,,,,5f966b181caf595331d1685e,62c53978bee84d668969a533,2022-07-06_09h31.23.195,Colour_Asymmetry_Pilot,2022.1.3,MacIntel,60.04202942,62c50e9c1127f2cd403a315f,0,33,33,58,1,twoone,,,,,,,,,,,,,,,,,,,,,,,,,,,,,,,,,,,,,,,,,,,,,,,,,,,,,,,,,,,,,,,,,,,,,,,,,,,,,,,,,,,,,,,,,,,,,,,,,,,,,,,,,,,,,,,,,,,,,,,,,,,,,,,,,,,,,,,,,,,,,,,,,,,,,,,,,,,,,
,,,,,,5f966b181caf595331d1685e,62c53978bee84d668969a533,2022-07-06_09h31.23.195,Colour_Asymmetry_Pilot,2022.1.3,MacIntel,60.04202942,62c50e9c1127f2cd403a315f,0,34,34,34,1,twoone,,,,,,,,,,,,,,,,,,,,,,,,,,,,,,,,,,,,,,,,,,,,,,,,,,,,,,,,,,,,,,,,,,,,,,,,,,,,,,,,,,,,,,,,,,,,,,,,,,,,,,,,,,,,,,,,,,,,,,,,,,,,,,,,,,,,,,,,,,,,,,,,,,,,,,,,,,,,,
,,,,,,5f966b181caf595331d1685e,62c53978bee84d668969a533,2022-07-06_09h31.23.195,Colour_Asymmetry_Pilot,2022.1.3,MacIntel,60.04202942,62c50e9c1127f2cd403a315f,0,35,35,33,1,onethree,,,,,,,,,,,,,,,,,,,,,,,,,,,,,,,,,,,,,,,,,,,,,,,,,,,,,,,,,,,,,,,,,,,,,,,,,,,,,,,,,,,,,,,,,,,,,,,,,,,,,,,,,,,,,,,,,,,,,,,,,,,,,,,,,,,,,,,,,,,,,,,,,,,,,,,,,,,,,
,,,,,,5f966b181caf595331d1685e,62c53978bee84d668969a533,2022-07-06_09h31.23.195,Colour_Asymmetry_Pilot,2022.1.3,MacIntel,60.04202942,62c50e9c1127f2cd403a315f,0,36,36,97,1,onethree,,,,,,,,,,,,,,,,,,,,,,,,,,,,,,,,,,,,,,,,,,,,,,,,,,,,,,,,,,,,,,,,,,,,,,,,,,,,,,,,,,,,,,,,,,,,,,,,,,,,,,,,,,,,,,,,,,,,,,,,,,,,,,,,,,,,,,,,,,,,,,,,,,,,,,,,,,,,,
,,,,,,5f966b181caf595331d1685e,62c53978bee84d668969a533,2022-07-06_09h31.23.195,Colour_Asymmetry_Pilot,2022.1.3,MacIntel,60.04202942,62c50e9c1127f2cd403a315f,0,37,37,14,1,fourtwo,,,,,,,,,,,,,,,,,,,,,,,,,,,,,,,,,,,,,,,,,,,,,,,,,,,,,,,,,,,,,,,,,,,,,,,,,,,,,,,,,,,,,,,,,,,,,,,,,,,,,,,,,,,,,,,,,,,,,,,,,,,,,,,,,,,,,,,,,,,,,,,,,,,,,,,,,,,,,
,,,,,,5f966b181caf595331d1685e,62c53978bee84d668969a533,2022-07-06_09h31.23.195,Colour_Asymmetry_Pilot,2022.1.3,MacIntel,60.04202942,62c50e9c1127f2cd403a315f,0,38,38,12,1,threeone,,,,,,,,,,,,,,,,,,,,,,,,,,,,,,,,,,,,,,,,,,,,,,,,,,,,,,,,,,,,,,,,,,,,,,,,,,,,,,,,,,,,,,,,,,,,,,,,,,,,,,,,,,,,,,,,,,,,,,,,,,,,,,,,,,,,,,,,,,,,,,,,,,,,,,,,,,,,,
,,,,,,5f966b181caf595331d1685e,62c53978bee84d668969a533,2022-07-06_09h31.23.195,Colour_Asymmetry_Pilot,2022.1.3,MacIntel,60.04202942,62c50e9c1127f2cd403a315f,0,39,39,105,1,onethree,,,,,,,,,,,,,,,,,,,,,,,,,,,,,,,,,,,,,,,,,,,,,,,,,,,,,,,,,,,,,,,,,,,,,,,,,,,,,,,,,,,,,,,,,,,,,,,,,,,,,,,,,,,,,,,,,,,,,,,,,,,,,,,,,,,,,,,,,,,,,,,,,,,,,,,,,,,,,
,,,,,,5f966b181caf595331d1685e,62c53978bee84d668969a533,2022-07-06_09h31.23.195,Colour_Asymmetry_Pilot,2022.1.3,MacIntel,60.04202942,62c50e9c1127f2cd403a315f,0,40,40,72,1,onetwo,,,,,,,,,,,,,,,,,,,,,,,,,,,,,,,,,,,,,,,,,,,,,,,,,,,,,,,,,,,,,,,,,,,,,,,,,,,,,,,,,,,,,,,,,,,,,,,,,,,,,,,,,,,,,,,,,,,,,,,,,,,,,,,,,,,,,,,,,,,,,,,,,,,,,,,,,,,,,
,,,,,,5f966b181caf595331d1685e,62c53978bee84d668969a533,2022-07-06_09h31.23.195,Colour_Asymmetry_Pilot,2022.1.3,MacIntel,60.04202942,62c50e9c1127f2cd403a315f,0,41,41,111,1,fourthree,,,,,,,,,,,,,,,,,,,,,,,,,,,,,,,,,,,,,,,,,,,,,,,,,,,,,,,,,,,,,,,,,,,,,,,,,,,,,,,,,,,,,,,,,,,,,,,,,,,,,,,,,,,,,,,,,,,,,,,,,,,,,,,,,,,,,,,,,,,,,,,,,,,,,,,,,,,,,
,,,,,,5f966b181caf595331d1685e,62c53978bee84d668969a533,2022-07-06_09h31.23.195,Colour_Asymmetry_Pilot,2022.1.3,MacIntel,60.04202942,62c50e9c1127f2cd403a315f,0,42,42,114,1,twoone,,,,,,,,,,,,,,,,,,,,,,,,,,,,,,,,,,,,,,,,,,,,,,,,,,,,,,,,,,,,,,,,,,,,,,,,,,,,,,,,,,,,,,,,,,,,,,,,,,,,,,,,,,,,,,,,,,,,,,,,,,,,,,,,,,,,,,,,,,,,,,,,,,,,,,,,,,,,,
,,,,,,5f966b181caf595331d1685e,62c53978bee84d668969a533,2022-07-06_09h31.23.195,Colour_Asymmetry_Pilot,2022.1.3,MacIntel,60.04202942,62c50e9c1127f2cd403a315f,0,43,43,46,1,fourtwo,,,,,,,,,,,,,,,,,,,,,,,,,,,,,,,,,,,,,,,,,,,,,,,,,,,,,,,,,,,,,,,,,,,,,,,,,,,,,,,,,,,,,,,,,,,,,,,,,,,,,,,,,,,,,,,,,,,,,,,,,,,,,,,,,,,,,,,,,,,,,,,,,,,,,,,,,,,,,
,,,,,,5f966b181caf595331d1685e,62c53978bee84d668969a533,2022-07-06_09h31.23.195,Colour_Asymmetry_Pilot,2022.1.3,MacIntel,60.04202942,62c50e9c1127f2cd403a315f,0,44,44,115,1,twofour,,,,,,,,,,,,,,,,,,,,,,,,,,,,,,,,,,,,,,,,,,,,,,,,,,,,,,,,,,,,,,,,,,,,,,,,,,,,,,,,,,,,,,,,,,,,,,,,,,,,,,,,,,,,,,,,,,,,,,,,,,,,,,,,,,,,,,,,,,,,,,,,,,,,,,,,,,,,,
,,,,,,5f966b181caf595331d1685e,62c53978bee84d668969a533,2022-07-06_09h31.23.195,Colour_Asymmetry_Pilot,2022.1.3,MacIntel,60.04202942,62c50e9c1127f2cd403a315f,0,45,45,113,1,onethree,,,,,,,,,,,,,,,,,,,,,,,,,,,,,,,,,,,,,,,,,,,,,,,,,,,,,,,,,,,,,,,,,,,,,,,,,,,,,,,,,,,,,,,,,,,,,,,,,,,,,,,,,,,,,,,,,,,,,,,,,,,,,,,,,,,,,,,,,,,,,,,,,,,,,,,,,,,,,
,,,,,,5f966b181caf595331d1685e,62c53978bee84d668969a533,2022-07-06_09h31.23.195,Colour_Asymmetry_Pilot,2022.1.3,MacIntel,60.04202942,62c50e9c1127f2cd403a315f,0,46,46,132,1,threeone,,,,,,,,,,,,,,,,,,,,,,,,,,,,,,,,,,,,,,,,,,,,,,,,,,,,,,,,,,,,,,,,,,,,,,,,,,,,,,,,,,,,,,,,,,,,,,,,,,,,,,,,,,,,,,,,,,,,,,,,,,,,,,,,,,,,,,,,,,,,,,,,,,,,,,,,,,,,,
,,,,,,5f966b181caf595331d1685e,62c53978bee84d668969a533,2022-07-06_09h31.23.195,Colour_Asymmetry_Pilot,2022.1.3,MacIntel,60.04202942,62c50e9c1127f2cd403a315f,0,47,47,148,1,threeone,,,,,,,,,,,,,,,,,,,,,,,,,,,,,,,,,,,,,,,,,,,,,,,,,,,,,,,,,,,,,,,,,,,,,,,,,,,,,,,,,,,,,,,,,,,,,,,,,,,,,,,,,,,,,,,,,,,,,,,,,,,,,,,,,,,,,,,,,,,,,,,,,,,,,,,,,,,,,
,,,,,,5f966b181caf595331d1685e,62c53978bee84d668969a533,2022-07-06_09h31.23.195,Colour_Asymmetry_Pilot,2022.1.3,MacIntel,60.04202942,62c50e9c1127f2cd403a315f,0,48,48,89,1,onethree,,,,,,,,,,,,,,,,,,,,,,,,,,,,,,,,,,,,,,,,,,,,,,,,,,,,,,,,,,,,,,,,,,,,,,,,,,,,,,,,,,,,,,,,,,,,,,,,,,,,,,,,,,,,,,,,,,,,,,,,,,,,,,,,,,,,,,,,,,,,,,,,,,,,,,,,,,,,,
,,,,,,5f966b181caf595331d1685e,62c53978bee84d668969a533,2022-07-06_09h31.23.195,Colour_Asymmetry_Pilot,2022.1.3,MacIntel,60.04202942,62c50e9c1127f2cd403a315f,0,49,49,110,1,fourtwo,,,,,,,,,,,,,,,,,,,,,,,,,,,,,,,,,,,,,,,,,,,,,,,,,,,,,,,,,,,,,,,,,,,,,,,,,,,,,,,,,,,,,,,,,,,,,,,,,,,,,,,,,,,,,,,,,,,,,,,,,,,,,,,,,,,,,,,,,,,,,,,,,,,,,,,,,,,,,
,,,,,,5f966b181caf595331d1685e,62c53978bee84d668969a533,2022-07-06_09h31.23.195,Colour_Asymmetry_Pilot,2022.1.3,MacIntel,60.04202942,62c50e9c1127f2cd403a315f,0,50,50,36,1,threeone,,,,,,,,,,,,,,,,,,,,,,,,,,,,,,,,,,,,,,,,,,,,,,,,,,,,,,,,,,,,,,,,,,,,,,,,,,,,,,,,,,,,,,,,,,,,,,,,,,,,,,,,,,,,,,,,,,,,,,,,,,,,,,,,,,,,,,,,,,,,,,,,,,,,,,,,,,,,,
,,,,,,5f966b181caf595331d1685e,62c53978bee84d668969a533,2022-07-06_09h31.23.195,Colour_Asymmetry_Pilot,2022.1.3,MacIntel,60.04202942,62c50e9c1127f2cd403a315f,0,51,51,23,1,fourthree,,,,,,,,,,,,,,,,,,,,,,,,,,,,,,,,,,,,,,,,,,,,,,,,,,,,,,,,,,,,,,,,,,,,,,,,,,,,,,,,,,,,,,,,,,,,,,,,,,,,,,,,,,,,,,,,,,,,,,,,,,,,,,,,,,,,,,,,,,,,,,,,,,,,,,,,,,,,,
,,,,,,5f966b181caf595331d1685e,62c53978bee84d668969a533,2022-07-06_09h31.23.195,Colour_Asymmetry_Pilot,2022.1.3,MacIntel,60.04202942,62c50e9c1127f2cd403a315f,0,52,52,11,1,twofour,,,,,,,,,,,,,,,,,,,,,,,,,,,,,,,,,,,,,,,,,,,,,,,,,,,,,,,,,,,,,,,,,,,,,,,,,,,,,,,,,,,,,,,,,,,,,,,,,,,,,,,,,,,,,,,,,,,,,,,,,,,,,,,,,,,,,,,,,,,,,,,,,,,,,,,,,,,,,
,,,,,,5f966b181caf595331d1685e,62c53978bee84d668969a533,2022-07-06_09h31.23.195,Colour_Asymmetry_Pilot,2022.1.3,MacIntel,60.04202942,62c50e9c1127f2cd403a315f,0,53,53,48,1,onetwo,,,,,,,,,,,,,,,,,,,,,,,,,,,,,,,,,,,,,,,,,,,,,,,,,,,,,,,,,,,,,,,,,,,,,,,,,,,,,,,,,,,,,,,,,,,,,,,,,,,,,,,,,,,,,,,,,,,,,,,,,,,,,,,,,,,,,,,,,,,,,,,,,,,,,,,,,,,,,
,,,,,,5f966b181caf595331d1685e,62c53978bee84d668969a533,2022-07-06_09h31.23.195,Colour_Asymmetry_Pilot,2022.1.3,MacIntel,60.04202942,62c50e9c1127f2cd403a315f,0,54,54,7,1,fourthree,,,,,,,,,,,,,,,,,,,,,,,,,,,,,,,,,,,,,,,,,,,,,,,,,,,,,,,,,,,,,,,,,,,,,,,,,,,,,,,,,,,,,,,,,,,,,,,,,,,,,,,,,,,,,,,,,,,,,,,,,,,,,,,,,,,,,,,,,,,,,,,,,,,,,,,,,,,,,
,,,,,,5f966b181caf595331d1685e,62c53978bee84d668969a533,2022-07-06_09h31.23.195,Colour_Asymmetry_Pilot,2022.1.3,MacIntel,60.04202942,62c50e9c1127f2cd403a315f,0,55,55,99,1,twofour,,,,,,,,,,,,,,,,,,,,,,,,,,,,,,,,,,,,,,,,,,,,,,,,,,,,,,,,,,,,,,,,,,,,,,,,,,,,,,,,,,,,,,,,,,,,,,,,,,,,,,,,,,,,,,,,,,,,,,,,,,,,,,,,,,,,,,,,,,,,,,,,,,,,,,,,,,,,,
,,,,,,5f966b181caf595331d1685e,62c53978bee84d668969a533,2022-07-06_09h31.23.195,Colour_Asymmetry_Pilot,2022.1.3,MacIntel,60.04202942,62c50e9c1127f2cd403a315f,0,56,56,128,1,onetwo,,,,,,,,,,,,,,,,,,,,,,,,,,,,,,,,,,,,,,,,,,,,,,,,,,,,,,,,,,,,,,,,,,,,,,,,,,,,,,,,,,,,,,,,,,,,,,,,,,,,,,,,,,,,,,,,,,,,,,,,,,,,,,,,,,,,,,,,,,,,,,,,,,,,,,,,,,,,,
,,,,,,5f966b181caf595331d1685e,62c53978bee84d668969a533,2022-07-06_09h31.23.195,Colour_Asymmetry_Pilot,2022.1.3,MacIntel,60.04202942,62c50e9c1127f2cd403a315f,0,57,57,17,1,onethree,,,,,,,,,,,,,,,,,,,,,,,,,,,,,,,,,,,,,,,,,,,,,,,,,,,,,,,,,,,,,,,,,,,,,,,,,,,,,,,,,,,,,,,,,,,,,,,,,,,,,,,,,,,,,,,,,,,,,,,,,,,,,,,,,,,,,,,,,,,,,,,,,,,,,,,,,,,,,
,,,,,,5f966b181caf595331d1685e,62c53978bee84d668969a533,2022-07-06_09h31.23.195,Colour_Asymmetry_Pilot,2022.1.3,MacIntel,60.04202942,62c50e9c1127f2cd403a315f,0,58,58,24,1,onetwo,,,,,,,,,,,,,,,,,,,,,,,,,,,,,,,,,,,,,,,,,,,,,,,,,,,,,,,,,,,,,,,,,,,,,,,,,,,,,,,,,,,,,,,,,,,,,,,,,,,,,,,,,,,,,,,,,,,,,,,,,,,,,,,,,,,,,,,,,,,,,,,,,,,,,,,,,,,,,
,,,,,,5f966b181caf595331d1685e,62c53978bee84d668969a533,2022-07-06_09h31.23.195,Colour_Asymmetry_Pilot,2022.1.3,MacIntel,60.04202942,62c50e9c1127f2cd403a315f,0,59,59,56,1,onetwo,,,,,,,,,,,,,,,,,,,,,,,,,,,,,,,,,,,,,,,,,,,,,,,,,,,,,,,,,,,,,,,,,,,,,,,,,,,,,,,,,,,,,,,,,,,,,,,,,,,,,,,,,,,,,,,,,,,,,,,,,,,,,,,,,,,,,,,,,,,,,,,,,,,,,,,,,,,,,
,,,,,,5f966b181caf595331d1685e,62c53978bee84d668969a533,2022-07-06_09h31.23.195,Colour_Asymmetry_Pilot,2022.1.3,MacIntel,60.04202942,62c50e9c1127f2cd403a315f,0,60,60,25,1,onethree,,,,,,,,,,,,,,,,,,,,,,,,,,,,,,,,,,,,,,,,,,,,,,,,,,,,,,,,,,,,,,,,,,,,,,,,,,,,,,,,,,,,,,,,,,,,,,,,,,,,,,,,,,,,,,,,,,,,,,,,,,,,,,,,,,,,,,,,,,,,,,,,,,,,,,,,,,,,,
,,,,,,5f966b181caf595331d1685e,62c53978bee84d668969a533,2022-07-06_09h31.23.195,Colour_Asymmetry_Pilot,2022.1.3,MacIntel,60.04202942,62c50e9c1127f2cd403a315f,0,61,61,121,1,onethree,,,,,,,,,,,,,,,,,,,,,,,,,,,,,,,,,,,,,,,,,,,,,,,,,,,,,,,,,,,,,,,,,,,,,,,,,,,,,,,,,,,,,,,,,,,,,,,,,,,,,,,,,,,,,,,,,,,,,,,,,,,,,,,,,,,,,,,,,,,,,,,,,,,,,,,,,,,,,
,,,,,,5f966b181caf595331d1685e,62c53978bee84d668969a533,2022-07-06_09h31.23.195,Colour_Asymmetry_Pilot,2022.1.3,MacIntel,60.04202942,62c50e9c1127f2cd403a315f,0,62,62,54,1,fourtwo,,,,,,,,,,,,,,,,,,,,,,,,,,,,,,,,,,,,,,,,,,,,,,,,,,,,,,,,,,,,,,,,,,,,,,,,,,,,,,,,,,,,,,,,,,,,,,,,,,,,,,,,,,,,,,,,,,,,,,,,,,,,,,,,,,,,,,,,,,,,,,,,,,,,,,,,,,,,,
,,,,,,5f966b181caf595331d1685e,62c53978bee84d668969a533,2022-07-06_09h31.23.195,Colour_Asymmetry_Pilot,2022.1.3,MacIntel,60.04202942,62c50e9c1127f2cd403a315f,0,63,63,8,1,onetwo,,,,,,,,,,,,,,,,,,,,,,,,,,,,,,,,,,,,,,,,,,,,,,,,,,,,,,,,,,,,,,,,,,,,,,,,,,,,,,,,,,,,,,,,,,,,,,,,,,,,,,,,,,,,,,,,,,,,,,,,,,,,,,,,,,,,,,,,,,,,,,,,,,,,,,,,,,,,,
,,,,,,5f966b181caf595331d1685e,62c53978bee84d668969a533,2022-07-06_09h31.23.195,Colour_Asymmetry_Pilot,2022.1.3,MacIntel,60.04202942,62c50e9c1127f2cd403a315f,0,64,64,64,1,onetwo,,,,,,,,,,,,,,,,,,,,,,,,,,,,,,,,,,,,,,,,,,,,,,,,,,,,,,,,,,,,,,,,,,,,,,,,,,,,,,,,,,,,,,,,,,,,,,,,,,,,,,,,,,,,,,,,,,,,,,,,,,,,,,,,,,,,,,,,,,,,,,,,,,,,,,,,,,,,,
,,,,,,5f966b181caf595331d1685e,62c53978bee84d668969a533,2022-07-06_09h31.23.195,Colour_Asymmetry_Pilot,2022.1.3,MacIntel,60.04202942,62c50e9c1127f2cd403a315f,0,65,65,139,1,twofour,,,,,,,,,,,,,,,,,,,,,,,,,,,,,,,,,,,,,,,,,,,,,,,,,,,,,,,,,,,,,,,,,,,,,,,,,,,,,,,,,,,,,,,,,,,,,,,,,,,,,,,,,,,,,,,,,,,,,,,,,,,,,,,,,,,,,,,,,,,,,,,,,,,,,,,,,,,,,
,,,,,,5f966b181caf595331d1685e,62c53978bee84d668969a533,2022-07-06_09h31.23.195,Colour_Asymmetry_Pilot,2022.1.3,MacIntel,60.04202942,62c50e9c1127f2cd403a315f,0,66,66,149,1,threefour,,,,,,,,,,,,,,,,,,,,,,,,,,,,,,,,,,,,,,,,,,,,,,,,,,,,,,,,,,,,,,,,,,,,,,,,,,,,,,,,,,,,,,,,,,,,,,,,,,,,,,,,,,,,,,,,,,,,,,,,,,,,,,,,,,,,,,,,,,,,,,,,,,,,,,,,,,,,,
,,,,,,5f966b181caf595331d1685e,62c53978bee84d668969a533,2022-07-06_09h31.23.195,Colour_Asymmetry_Pilot,2022.1.3,MacIntel,60.04202942,62c50e9c1127f2cd403a315f,0,67,67,158,1,fourtwo,,,,,,,,,,,,,,,,,,,,,,,,,,,,,,,,,,,,,,,,,,,,,,,,,,,,,,,,,,,,,,,,,,,,,,,,,,,,,,,,,,,,,,,,,,,,,,,,,,,,,,,,,,,,,,,,,,,,,,,,,,,,,,,,,,,,,,,,,,,,,,,,,,,,,,,,,,,,,
,,,,,,5f966b181caf595331d1685e,62c53978bee84d668969a533,2022-07-06_09h31.23.195,Colour_Asymmetry_Pilot,2022.1.3,MacIntel,60.04202942,62c50e9c1127f2cd403a315f,0,68,68,159,1,fourthree,,,,,,,,,,,,,,,,,,,,,,,,,,,,,,,,,,,,,,,,,,,,,,,,,,,,,,,,,,,,,,,,,,,,,,,,,,,,,,,,,,,,,,,,,,,,,,,,,,,,,,,,,,,,,,,,,,,,,,,,,,,,,,,,,,,,,,,,,,,,,,,,,,,,,,,,,,,,,
,,,,,,5f966b181caf595331d1685e,62c53978bee84d668969a533,2022-07-06_09h31.23.195,Colour_Asymmetry_Pilot,2022.1.3,MacIntel,60.04202942,62c50e9c1127f2cd403a315f,0,69,69,123,1,twofour,,,,,,,,,,,,,,,,,,,,,,,,,,,,,,,,,,,,,,,,,,,,,,,,,,,,,,,,,,,,,,,,,,,,,,,,,,,,,,,,,,,,,,,,,,,,,,,,,,,,,,,,,,,,,,,,,,,,,,,,,,,,,,,,,,,,,,,,,,,,,,,,,,,,,,,,,,,,,
,,,,,,5f966b181caf595331d1685e,62c53978bee84d668969a533,2022-07-06_09h31.23.195,Colour_Asymmetry_Pilot,2022.1.3,MacIntel,60.04202942,62c50e9c1127f2cd403a315f,0,70,70,31,1,fourthree,,,,,,,,,,,,,,,,,,,,,,,,,,,,,,,,,,,,,,,,,,,,,,,,,,,,,,,,,,,,,,,,,,,,,,,,,,,,,,,,,,,,,,,,,,,,,,,,,,,,,,,,,,,,,,,,,,,,,,,,,,,,,,,,,,,,,,,,,,,,,,,,,,,,,,,,,,,,,
,,,,,,5f966b181caf595331d1685e,62c53978bee84d668969a533,2022-07-06_09h31.23.195,Colour_Asymmetry_Pilot,2022.1.3,MacIntel,60.04202942,62c50e9c1127f2cd403a315f,0,71,71,77,1,threefour,,,,,,,,,,,,,,,,,,,,,,,,,,,,,,,,,,,,,,,,,,,,,,,,,,,,,,,,,,,,,,,,,,,,,,,,,,,,,,,,,,,,,,,,,,,,,,,,,,,,,,,,,,,,,,,,,,,,,,,,,,,,,,,,,,,,,,,,,,,,,,,,,,,,,,,,,,,,,
,,,,,,5f966b181caf595331d1685e,62c53978bee84d668969a533,2022-07-06_09h31.23.195,Colour_Asymmetry_Pilot,2022.1.3,MacIntel,60.04202942,62c50e9c1127f2cd403a315f,0,72,72,118,1,fourtwo,,,,,,,,,,,,,,,,,,,,,,,,,,,,,,,,,,,,,,,,,,,,,,,,,,,,,,,,,,,,,,,,,,,,,,,,,,,,,,,,,,,,,,,,,,,,,,,,,,,,,,,,,,,,,,,,,,,,,,,,,,,,,,,,,,,,,,,,,,,,,,,,,,,,,,,,,,,,,
,,,,,,5f966b181caf595331d1685e,62c53978bee84d668969a533,2022-07-06_09h31.23.195,Colour_Asymmetry_Pilot,2022.1.3,MacIntel,60.04202942,62c50e9c1127f2cd403a315f,0,73,73,125,1,threefour,,,,,,,,,,,,,,,,,,,,,,,,,,,,,,,,,,,,,,,,,,,,,,,,,,,,,,,,,,,,,,,,,,,,,,,,,,,,,,,,,,,,,,,,,,,,,,,,,,,,,,,,,,,,,,,,,,,,,,,,,,,,,,,,,,,,,,,,,,,,,,,,,,,,,,,,,,,,,
,,,,,,5f966b181caf595331d1685e,62c53978bee84d668969a533,2022-07-06_09h31.23.195,Colour_Asymmetry_Pilot,2022.1.3,MacIntel,60.04202942,62c50e9c1127f2cd403a315f,0,74,74,104,1,onetwo,,,,,,,,,,,,,,,,,,,,,,,,,,,,,,,,,,,,,,,,,,,,,,,,,,,,,,,,,,,,,,,,,,,,,,,,,,,,,,,,,,,,,,,,,,,,,,,,,,,,,,,,,,,,,,,,,,,,,,,,,,,,,,,,,,,,,,,,,,,,,,,,,,,,,,,,,,,,,
,,,,,,5f966b181caf595331d1685e,62c53978bee84d668969a533,2022-07-06_09h31.23.195,Colour_Asymmetry_Pilot,2022.1.3,MacIntel,60.04202942,62c50e9c1127f2cd403a315f,0,75,75,10,1,twoone,,,,,,,,,,,,,,,,,,,,,,,,,,,,,,,,,,,,,,,,,,,,,,,,,,,,,,,,,,,,,,,,,,,,,,,,,,,,,,,,,,,,,,,,,,,,,,,,,,,,,,,,,,,,,,,,,,,,,,,,,,,,,,,,,,,,,,,,,,,,,,,,,,,,,,,,,,,,,
,,,,,,5f966b181caf595331d1685e,62c53978bee84d668969a533,2022-07-06_09h31.23.195,Colour_Asymmetry_Pilot,2022.1.3,MacIntel,60.04202942,62c50e9c1127f2cd403a315f,0,76,76,57,1,onethree,,,,,,,,,,,,,,,,,,,,,,,,,,,,,,,,,,,,,,,,,,,,,,,,,,,,,,,,,,,,,,,,,,,,,,,,,,,,,,,,,,,,,,,,,,,,,,,,,,,,,,,,,,,,,,,,,,,,,,,,,,,,,,,,,,,,,,,,,,,,,,,,,,,,,,,,,,,,,
,,,,,,5f966b181caf595331d1685e,62c53978bee84d668969a533,2022-07-06_09h31.23.195,Colour_Asymmetry_Pilot,2022.1.3,MacIntel,60.04202942,62c50e9c1127f2cd403a315f,0,77,77,152,1,onetwo,,,,,,,,,,,,,,,,,,,,,,,,,,,,,,,,,,,,,,,,,,,,,,,,,,,,,,,,,,,,,,,,,,,,,,,,,,,,,,,,,,,,,,,,,,,,,,,,,,,,,,,,,,,,,,,,,,,,,,,,,,,,,,,,,,,,,,,,,,,,,,,,,,,,,,,,,,,,,
,,,,,,5f966b181caf595331d1685e,62c53978bee84d668969a533,2022-07-06_09h31.23.195,Colour_Asymmetry_Pilot,2022.1.3,MacIntel,60.04202942,62c50e9c1127f2cd403a315f,0,78,78,13,1,threefour,,,,,,,,,,,,,,,,,,,,,,,,,,,,,,,,,,,,,,,,,,,,,,,,,,,,,,,,,,,,,,,,,,,,,,,,,,,,,,,,,,,,,,,,,,,,,,,,,,,,,,,,,,,,,,,,,,,,,,,,,,,,,,,,,,,,,,,,,,,,,,,,,,,,,,,,,,,,,
,,,,,,5f966b181caf595331d1685e,62c53978bee84d668969a533,2022-07-06_09h31.23.195,Colour_Asymmetry_Pilot,2022.1.3,MacIntel,60.04202942,62c50e9c1127f2cd403a315f,0,79,79,135,1,fourthree,,,,,,,,,,,,,,,,,,,,,,,,,,,,,,,,,,,,,,,,,,,,,,,,,,,,,,,,,,,,,,,,,,,,,,,,,,,,,,,,,,,,,,,,,,,,,,,,,,,,,,,,,,,,,,,,,,,,,,,,,,,,,,,,,,,,,,,,,,,,,,,,,,,,,,,,,,,,,
,,,,,,5f966b181caf595331d1685e,62c53978bee84d668969a533,2022-07-06_09h31.23.195,Colour_Asymmetry_Pilot,2022.1.3,MacIntel,60.04202942,62c50e9c1127f2cd403a315f,0,80,80,109,1,threefour,,,,,,,,,,,,,,,,,,,,,,,,,,,,,,,,,,,,,,,,,,,,,,,,,,,,,,,,,,,,,,,,,,,,,,,,,,,,,,,,,,,,,,,,,,,,,,,,,,,,,,,,,,,,,,,,,,,,,,,,,,,,,,,,,,,,,,,,,,,,,,,,,,,,,,,,,,,,,
,,,,,,5f966b181caf595331d1685e,62c53978bee84d668969a533,2022-07-06_09h31.23.195,Colour_Asymmetry_Pilot,2022.1.3,MacIntel,60.04202942,62c50e9c1127f2cd403a315f,0,81,81,4,1,threeone,,,,,,,,,,,,,,,,,,,,,,,,,,,,,,,,,,,,,,,,,,,,,,,,,,,,,,,,,,,,,,,,,,,,,,,,,,,,,,,,,,,,,,,,,,,,,,,,,,,,,,,,,,,,,,,,,,,,,,,,,,,,,,,,,,,,,,,,,,,,,,,,,,,,,,,,,,,,,
,,,,,,5f966b181caf595331d1685e,62c53978bee84d668969a533,2022-07-06_09h31.23.195,Colour_Asymmetry_Pilot,2022.1.3,MacIntel,60.04202942,62c50e9c1127f2cd403a315f,0,82,82,60,1,threeone,,,,,,,,,,,,,,,,,,,,,,,,,,,,,,,,,,,,,,,,,,,,,,,,,,,,,,,,,,,,,,,,,,,,,,,,,,,,,,,,,,,,,,,,,,,,,,,,,,,,,,,,,,,,,,,,,,,,,,,,,,,,,,,,,,,,,,,,,,,,,,,,,,,,,,,,,,,,,
,,,,,,5f966b181caf595331d1685e,62c53978bee84d668969a533,2022-07-06_09h31.23.195,Colour_Asymmetry_Pilot,2022.1.3,MacIntel,60.04202942,62c50e9c1127f2cd403a315f,0,83,83,45,1,threefour,,,,,,,,,,,,,,,,,,,,,,,,,,,,,,,,,,,,,,,,,,,,,,,,,,,,,,,,,,,,,,,,,,,,,,,,,,,,,,,,,,,,,,,,,,,,,,,,,,,,,,,,,,,,,,,,,,,,,,,,,,,,,,,,,,,,,,,,,,,,,,,,,,,,,,,,,,,,,
,,,,,,5f966b181caf595331d1685e,62c53978bee84d668969a533,2022-07-06_09h31.23.195,Colour_Asymmetry_Pilot,2022.1.3,MacIntel,60.04202942,62c50e9c1127f2cd403a315f,0,84,84,153,1,onethree,,,,,,,,,,,,,,,,,,,,,,,,,,,,,,,,,,,,,,,,,,,,,,,,,,,,,,,,,,,,,,,,,,,,,,,,,,,,,,,,,,,,,,,,,,,,,,,,,,,,,,,,,,,,,,,,,,,,,,,,,,,,,,,,,,,,,,,,,,,,,,,,,,,,,,,,,,,,,
,,,,,,5f966b181caf595331d1685e,62c53978bee84d668969a533,2022-07-06_09h31.23.195,Colour_Asymmetry_Pilot,2022.1.3,MacIntel,60.04202942,62c50e9c1127f2cd403a315f,0,85,85,39,1,fourthree,,,,,,,,,,,,,,,,,,,,,,,,,,,,,,,,,,,,,,,,,,,,,,,,,,,,,,,,,,,,,,,,,,,,,,,,,,,,,,,,,,,,,,,,,,,,,,,,,,,,,,,,,,,,,,,,,,,,,,,,,,,,,,,,,,,,,,,,,,,,,,,,,,,,,,,,,,,,,
,,,,,,5f966b181caf595331d1685e,62c53978bee84d668969a533,2022-07-06_09h31.23.195,Colour_Asymmetry_Pilot,2022.1.3,MacIntel,60.04202942,62c50e9c1127f2cd403a315f,0,86,86,68,1,threeone,,,,,,,,,,,,,,,,,,,,,,,,,,,,,,,,,,,,,,,,,,,,,,,,,,,,,,,,,,,,,,,,,,,,,,,,,,,,,,,,,,,,,,,,,,,,,,,,,,,,,,,,,,,,,,,,,,,,,,,,,,,,,,,,,,,,,,,,,,,,,,,,,,,,,,,,,,,,,
,,,,,,5f966b181caf595331d1685e,62c53978bee84d668969a533,2022-07-06_09h31.23.195,Colour_Asymmetry_Pilot,2022.1.3,MacIntel,60.04202942,62c50e9c1127f2cd403a315f,0,87,87,28,1,threeone,,,,,,,,,,,,,,,,,,,,,,,,,,,,,,,,,,,,,,,,,,,,,,,,,,,,,,,,,,,,,,,,,,,,,,,,,,,,,,,,,,,,,,,,,,,,,,,,,,,,,,,,,,,,,,,,,,,,,,,,,,,,,,,,,,,,,,,,,,,,,,,,,,,,,,,,,,,,,
,,,,,,5f966b181caf595331d1685e,62c53978bee84d668969a533,2022-07-06_09h31.23.195,Colour_Asymmetry_Pilot,2022.1.3,MacIntel,60.04202942,62c50e9c1127f2cd403a315f,0,88,88,146,1,twoone,,,,,,,,,,,,,,,,,,,,,,,,,,,,,,,,,,,,,,,,,,,,,,,,,,,,,,,,,,,,,,,,,,,,,,,,,,,,,,,,,,,,,,,,,,,,,,,,,,,,,,,,,,,,,,,,,,,,,,,,,,,,,,,,,,,,,,,,,,,,,,,,,,,,,,,,,,,,,
,,,,,,5f966b181caf595331d1685e,62c53978bee84d668969a533,2022-07-06_09h31.23.195,Colour_Asymmetry_Pilot,2022.1.3,MacIntel,60.04202942,62c50e9c1127f2cd403a315f,0,89,89,65,1,onethree,,,,,,,,,,,,,,,,,,,,,,,,,,,,,,,,,,,,,,,,,,,,,,,,,,,,,,,,,,,,,,,,,,,,,,,,,,,,,,,,,,,,,,,,,,,,,,,,,,,,,,,,,,,,,,,,,,,,,,,,,,,,,,,,,,,,,,,,,,,,,,,,,,,,,,,,,,,,,
,,,,,,5f966b181caf595331d1685e,62c53978bee84d668969a533,2022-07-06_09h31.23.195,Colour_Asymmetry_Pilot,2022.1.3,MacIntel,60.04202942,62c50e9c1127f2cd403a315f,0,90,90,5,1,threefour,,,,,,,,,,,,,,,,,,,,,,,,,,,,,,,,,,,,,,,,,,,,,,,,,,,,,,,,,,,,,,,,,,,,,,,,,,,,,,,,,,,,,,,,,,,,,,,,,,,,,,,,,,,,,,,,,,,,,,,,,,,,,,,,,,,,,,,,,,,,,,,,,,,,,,,,,,,,,
,,,,,,5f966b181caf595331d1685e,62c53978bee84d668969a533,2022-07-06_09h31.23.195,Colour_Asymmetry_Pilot,2022.1.3,MacIntel,60.04202942,62c50e9c1127f2cd403a315f,0,91,91,50,1,twoone,,,,,,,,,,,,,,,,,,,,,,,,,,,,,,,,,,,,,,,,,,,,,,,,,,,,,,,,,,,,,,,,,,,,,,,,,,,,,,,,,,,,,,,,,,,,,,,,,,,,,,,,,,,,,,,,,,,,,,,,,,,,,,,,,,,,,,,,,,,,,,,,,,,,,,,,,,,,,
,,,,,,5f966b181caf595331d1685e,62c53978bee84d668969a533,2022-07-06_09h31.23.195,Colour_Asymmetry_Pilot,2022.1.3,MacIntel,60.04202942,62c50e9c1127f2cd403a315f,0,92,92,76,1,threeone,,,,,,,,,,,,,,,,,,,,,,,,,,,,,,,,,,,,,,,,,,,,,,,,,,,,,,,,,,,,,,,,,,,,,,,,,,,,,,,,,,,,,,,,,,,,,,,,,,,,,,,,,,,,,,,,,,,,,,,,,,,,,,,,,,,,,,,,,,,,,,,,,,,,,,,,,,,,,
,,,,,,5f966b181caf595331d1685e,62c53978bee84d668969a533,2022-07-06_09h31.23.195,Colour_Asymmetry_Pilot,2022.1.3,MacIntel,60.04202942,62c50e9c1127f2cd403a315f,0,93,93,26,1,twoone,,,,,,,,,,,,,,,,,,,,,,,,,,,,,,,,,,,,,,,,,,,,,,,,,,,,,,,,,,,,,,,,,,,,,,,,,,,,,,,,,,,,,,,,,,,,,,,,,,,,,,,,,,,,,,,,,,,,,,,,,,,,,,,,,,,,,,,,,,,,,,,,,,,,,,,,,,,,,
,,,,,,5f966b181caf595331d1685e,62c53978bee84d668969a533,2022-07-06_09h31.23.195,Colour_Asymmetry_Pilot,2022.1.3,MacIntel,60.04202942,62c50e9c1127f2cd403a315f,0,94,94,74,1,twoone,,,,,,,,,,,,,,,,,,,,,,,,,,,,,,,,,,,,,,,,,,,,,,,,,,,,,,,,,,,,,,,,,,,,,,,,,,,,,,,,,,,,,,,,,,,,,,,,,,,,,,,,,,,,,,,,,,,,,,,,,,,,,,,,,,,,,,,,,,,,,,,,,,,,,,,,,,,,,
,,,,,,5f966b181caf595331d1685e,62c53978bee84d668969a533,2022-07-06_09h31.23.195,Colour_Asymmetry_Pilot,2022.1.3,MacIntel,60.04202942,62c50e9c1127f2cd403a315f,0,95,95,37,1,threefour,,,,,,,,,,,,,,,,,,,,,,,,,,,,,,,,,,,,,,,,,,,,,,,,,,,,,,,,,,,,,,,,,,,,,,,,,,,,,,,,,,,,,,,,,,,,,,,,,,,,,,,,,,,,,,,,,,,,,,,,,,,,,,,,,,,,,,,,,,,,,,,,,,,,,,,,,,,,,
,,,,,,5f966b181caf595331d1685e,62c53978bee84d668969a533,2022-07-06_09h31.23.195,Colour_Asymmetry_Pilot,2022.1.3,MacIntel,60.04202942,62c50e9c1127f2cd403a315f,0,96,96,157,1,threefour,,,,,,,,,,,,,,,,,,,,,,,,,,,,,,,,,,,,,,,,,,,,,,,,,,,,,,,,,,,,,,,,,,,,,,,,,,,,,,,,,,,,,,,,,,,,,,,,,,,,,,,,,,,,,,,,,,,,,,,,,,,,,,,,,,,,,,,,,,,,,,,,,,,,,,,,,,,,,
,,,,,,5f966b181caf595331d1685e,62c53978bee84d668969a533,2022-07-06_09h31.23.195,Colour_Asymmetry_Pilot,2022.1.3,MacIntel,60.04202942,62c50e9c1127f2cd403a315f,0,97,97,73,1,onethree,,,,,,,,,,,,,,,,,,,,,,,,,,,,,,,,,,,,,,,,,,,,,,,,,,,,,,,,,,,,,,,,,,,,,,,,,,,,,,,,,,,,,,,,,,,,,,,,,,,,,,,,,,,,,,,,,,,,,,,,,,,,,,,,,,,,,,,,,,,,,,,,,,,,,,,,,,,,,
,,,,,,5f966b181caf595331d1685e,62c53978bee84d668969a533,2022-07-06_09h31.23.195,Colour_Asymmetry_Pilot,2022.1.3,MacIntel,60.04202942,62c50e9c1127f2cd403a315f,0,98,98,44,1,threeone,,,,,,,,,,,,,,,,,,,,,,,,,,,,,,,,,,,,,,,,,,,,,,,,,,,,,,,,,,,,,,,,,,,,,,,,,,,,,,,,,,,,,,,,,,,,,,,,,,,,,,,,,,,,,,,,,,,,,,,,,,,,,,,,,,,,,,,,,,,,,,,,,,,,,,,,,,,,,
,,,,,,5f966b181caf595331d1685e,62c53978bee84d668969a533,2022-07-06_09h31.23.195,Colour_Asymmetry_Pilot,2022.1.3,MacIntel,60.04202942,62c50e9c1127f2cd403a315f,0,99,99,95,1,fourthree,,,,,,,,,,,,,,,,,,,,,,,,,,,,,,,,,,,,,,,,,,,,,,,,,,,,,,,,,,,,,,,,,,,,,,,,,,,,,,,,,,,,,,,,,,,,,,,,,,,,,,,,,,,,,,,,,,,,,,,,,,,,,,,,,,,,,,,,,,,,,,,,,,,,,,,,,,,,,
,,,,,,5f966b181caf595331d1685e,62c53978bee84d668969a533,2022-07-06_09h31.23.195,Colour_Asymmetry_Pilot,2022.1.3,MacIntel,60.04202942,62c50e9c1127f2cd403a315f,0,100,100,147,1,twofour,,,,,,,,,,,,,,,,,,,,,,,,,,,,,,,,,,,,,,,,,,,,,,,,,,,,,,,,,,,,,,,,,,,,,,,,,,,,,,,,,,,,,,,,,,,,,,,,,,,,,,,,,,,,,,,,,,,,,,,,,,,,,,,,,,,,,,,,,,,,,,,,,,,,,,,,,,,,,
,,,,,,5f966b181caf595331d1685e,62c53978bee84d668969a533,2022-07-06_09h31.23.195,Colour_Asymmetry_Pilot,2022.1.3,MacIntel,60.04202942,62c50e9c1127f2cd403a315f,0,101,101,83,1,twofour,,,,,,,,,,,,,,,,,,,,,,,,,,,,,,,,,,,,,,,,,,,,,,,,,,,,,,,,,,,,,,,,,,,,,,,,,,,,,,,,,,,,,,,,,,,,,,,,,,,,,,,,,,,,,,,,,,,,,,,,,,,,,,,,,,,,,,,,,,,,,,,,,,,,,,,,,,,,,
,,,,,,5f966b181caf595331d1685e,62c53978bee84d668969a533,2022-07-06_09h31.23.195,Colour_Asymmetry_Pilot,2022.1.3,MacIntel,60.04202942,62c50e9c1127f2cd403a315f,0,102,102,112,1,onetwo,,,,,,,,,,,,,,,,,,,,,,,,,,,,,,,,,,,,,,,,,,,,,,,,,,,,,,,,,,,,,,,,,,,,,,,,,,,,,,,,,,,,,,,,,,,,,,,,,,,,,,,,,,,,,,,,,,,,,,,,,,,,,,,,,,,,,,,,,,,,,,,,,,,,,,,,,,,,,
,,,,,,5f966b181caf595331d1685e,62c53978bee84d668969a533,2022-07-06_09h31.23.195,Colour_Asymmetry_Pilot,2022.1.3,MacIntel,60.04202942,62c50e9c1127f2cd403a315f,0,103,103,133,1,threefour,,,,,,,,,,,,,,,,,,,,,,,,,,,,,,,,,,,,,,,,,,,,,,,,,,,,,,,,,,,,,,,,,,,,,,,,,,,,,,,,,,,,,,,,,,,,,,,,,,,,,,,,,,,,,,,,,,,,,,,,,,,,,,,,,,,,,,,,,,,,,,,,,,,,,,,,,,,,,
,,,,,,5f966b181caf595331d1685e,62c53978bee84d668969a533,2022-07-06_09h31.23.195,Colour_Asymmetry_Pilot,2022.1.3,MacIntel,60.04202942,62c50e9c1127f2cd403a315f,0,104,104,20,1,threeone,,,,,,,,,,,,,,,,,,,,,,,,,,,,,,,,,,,,,,,,,,,,,,,,,,,,,,,,,,,,,,,,,,,,,,,,,,,,,,,,,,,,,,,,,,,,,,,,,,,,,,,,,,,,,,,,,,,,,,,,,,,,,,,,,,,,,,,,,,,,,,,,,,,,,,,,,,,,,
,,,,,,5f966b181caf595331d1685e,62c53978bee84d668969a533,2022-07-06_09h31.23.195,Colour_Asymmetry_Pilot,2022.1.3,MacIntel,60.04202942,62c50e9c1127f2cd403a315f,0,105,105,43,1,twofour,,,,,,,,,,,,,,,,,,,,,,,,,,,,,,,,,,,,,,,,,,,,,,,,,,,,,,,,,,,,,,,,,,,,,,,,,,,,,,,,,,,,,,,,,,,,,,,,,,,,,,,,,,,,,,,,,,,,,,,,,,,,,,,,,,,,,,,,,,,,,,,,,,,,,,,,,,,,,
,,,,,,5f966b181caf595331d1685e,62c53978bee84d668969a533,2022-07-06_09h31.23.195,Colour_Asymmetry_Pilot,2022.1.3,MacIntel,60.04202942,62c50e9c1127f2cd403a315f,0,106,106,69,1,threefour,,,,,,,,,,,,,,,,,,,,,,,,,,,,,,,,,,,,,,,,,,,,,,,,,,,,,,,,,,,,,,,,,,,,,,,,,,,,,,,,,,,,,,,,,,,,,,,,,,,,,,,,,,,,,,,,,,,,,,,,,,,,,,,,,,,,,,,,,,,,,,,,,,,,,,,,,,,,,
,,,,,,5f966b181caf595331d1685e,62c53978bee84d668969a533,2022-07-06_09h31.23.195,Colour_Asymmetry_Pilot,2022.1.3,MacIntel,60.04202942,62c50e9c1127f2cd403a315f,0,107,107,21,1,threefour,,,,,,,,,,,,,,,,,,,,,,,,,,,,,,,,,,,,,,,,,,,,,,,,,,,,,,,,,,,,,,,,,,,,,,,,,,,,,,,,,,,,,,,,,,,,,,,,,,,,,,,,,,,,,,,,,,,,,,,,,,,,,,,,,,,,,,,,,,,,,,,,,,,,,,,,,,,,,
,,,,,,5f966b181caf595331d1685e,62c53978bee84d668969a533,2022-07-06_09h31.23.195,Colour_Asymmetry_Pilot,2022.1.3,MacIntel,60.04202942,62c50e9c1127f2cd403a315f,0,108,108,29,1,threefour,,,,,,,,,,,,,,,,,,,,,,,,,,,,,,,,,,,,,,,,,,,,,,,,,,,,,,,,,,,,,,,,,,,,,,,,,,,,,,,,,,,,,,,,,,,,,,,,,,,,,,,,,,,,,,,,,,,,,,,,,,,,,,,,,,,,,,,,,,,,,,,,,,,,,,,,,,,,,
,,,,,,5f966b181caf595331d1685e,62c53978bee84d668969a533,2022-07-06_09h31.23.195,Colour_Asymmetry_Pilot,2022.1.3,MacIntel,60.04202942,62c50e9c1127f2cd403a315f,0,109,109,75,1,twofour,,,,,,,,,,,,,,,,,,,,,,,,,,,,,,,,,,,,,,,,,,,,,,,,,,,,,,,,,,,,,,,,,,,,,,,,,,,,,,,,,,,,,,,,,,,,,,,,,,,,,,,,,,,,,,,,,,,,,,,,,,,,,,,,,,,,,,,,,,,,,,,,,,,,,,,,,,,,,
,,,,,,5f966b181caf595331d1685e,62c53978bee84d668969a533,2022-07-06_09h31.23.195,Colour_Asymmetry_Pilot,2022.1.3,MacIntel,60.04202942,62c50e9c1127f2cd403a315f,0,110,110,138,1,twoone,,,,,,,,,,,,,,,,,,,,,,,,,,,,,,,,,,,,,,,,,,,,,,,,,,,,,,,,,,,,,,,,,,,,,,,,,,,,,,,,,,,,,,,,,,,,,,,,,,,,,,,,,,,,,,,,,,,,,,,,,,,,,,,,,,,,,,,,,,,,,,,,,,,,,,,,,,,,,
,,,,,,5f966b181caf595331d1685e,62c53978bee84d668969a533,2022-07-06_09h31.23.195,Colour_Asymmetry_Pilot,2022.1.3,MacIntel,60.04202942,62c50e9c1127f2cd403a315f,0,111,111,137,1,onethree,,,,,,,,,,,,,,,,,,,,,,,,,,,,,,,,,,,,,,,,,,,,,,,,,,,,,,,,,,,,,,,,,,,,,,,,,,,,,,,,,,,,,,,,,,,,,,,,,,,,,,,,,,,,,,,,,,,,,,,,,,,,,,,,,,,,,,,,,,,,,,,,,,,,,,,,,,,,,
,,,,,,5f966b181caf595331d1685e,62c53978bee84d668969a533,2022-07-06_09h31.23.195,Colour_Asymmetry_Pilot,2022.1.3,MacIntel,60.04202942,62c50e9c1127f2cd403a315f,0,112,112,131,1,twofour,,,,,,,,,,,,,,,,,,,,,,,,,,,,,,,,,,,,,,,,,,,,,,,,,,,,,,,,,,,,,,,,,,,,,,,,,,,,,,,,,,,,,,,,,,,,,,,,,,,,,,,,,,,,,,,,,,,,,,,,,,,,,,,,,,,,,,,,,,,,,,,,,,,,,,,,,,,,,
,,,,,,5f966b181caf595331d1685e,62c53978bee84d668969a533,2022-07-06_09h31.23.195,Colour_Asymmetry_Pilot,2022.1.3,MacIntel,60.04202942,62c50e9c1127f2cd403a315f,0,113,113,140,1,threeone,,,,,,,,,,,,,,,,,,,,,,,,,,,,,,,,,,,,,,,,,,,,,,,,,,,,,,,,,,,,,,,,,,,,,,,,,,,,,,,,,,,,,,,,,,,,,,,,,,,,,,,,,,,,,,,,,,,,,,,,,,,,,,,,,,,,,,,,,,,,,,,,,,,,,,,,,,,,,
,,,,,,5f966b181caf595331d1685e,62c53978bee84d668969a533,2022-07-06_09h31.23.195,Colour_Asymmetry_Pilot,2022.1.3,MacIntel,60.04202942,62c50e9c1127f2cd403a315f,0,114,114,35,1,twofour,,,,,,,,,,,,,,,,,,,,,,,,,,,,,,,,,,,,,,,,,,,,,,,,,,,,,,,,,,,,,,,,,,,,,,,,,,,,,,,,,,,,,,,,,,,,,,,,,,,,,,,,,,,,,,,,,,,,,,,,,,,,,,,,,,,,,,,,,,,,,,,,,,,,,,,,,,,,,
,,,,,,5f966b181caf595331d1685e,62c53978bee84d668969a533,2022-07-06_09h31.23.195,Colour_Asymmetry_Pilot,2022.1.3,MacIntel,60.04202942,62c50e9c1127f2cd403a315f,0,115,115,117,1,threefour,,,,,,,,,,,,,,,,,,,,,,,,,,,,,,,,,,,,,,,,,,,,,,,,,,,,,,,,,,,,,,,,,,,,,,,,,,,,,,,,,,,,,,,,,,,,,,,,,,,,,,,,,,,,,,,,,,,,,,,,,,,,,,,,,,,,,,,,,,,,,,,,,,,,,,,,,,,,,
,,,,,,5f966b181caf595331d1685e,62c53978bee84d668969a533,2022-07-06_09h31.23.195,Colour_Asymmetry_Pilot,2022.1.3,MacIntel,60.04202942,62c50e9c1127f2cd403a315f,0,116,116,160,1,onetwo,,,,,,,,,,,,,,,,,,,,,,,,,,,,,,,,,,,,,,,,,,,,,,,,,,,,,,,,,,,,,,,,,,,,,,,,,,,,,,,,,,,,,,,,,,,,,,,,,,,,,,,,,,,,,,,,,,,,,,,,,,,,,,,,,,,,,,,,,,,,,,,,,,,,,,,,,,,,,
,,,,,,5f966b181caf595331d1685e,62c53978bee84d668969a533,2022-07-06_09h31.23.195,Colour_Asymmetry_Pilot,2022.1.3,MacIntel,60.04202942,62c50e9c1127f2cd403a315f,0,117,117,15,1,fourthree,,,,,,,,,,,,,,,,,,,,,,,,,,,,,,,,,,,,,,,,,,,,,,,,,,,,,,,,,,,,,,,,,,,,,,,,,,,,,,,,,,,,,,,,,,,,,,,,,,,,,,,,,,,,,,,,,,,,,,,,,,,,,,,,,,,,,,,,,,,,,,,,,,,,,,,,,,,,,
,,,,,,5f966b181caf595331d1685e,62c53978bee84d668969a533,2022-07-06_09h31.23.195,Colour_Asymmetry_Pilot,2022.1.3,MacIntel,60.04202942,62c50e9c1127f2cd403a315f,0,118,118,156,1,threeone,,,,,,,,,,,,,,,,,,,,,,,,,,,,,,,,,,,,,,,,,,,,,,,,,,,,,,,,,,,,,,,,,,,,,,,,,,,,,,,,,,,,,,,,,,,,,,,,,,,,,,,,,,,,,,,,,,,,,,,,,,,,,,,,,,,,,,,,,,,,,,,,,,,,,,,,,,,,,
,,,,,,5f966b181caf595331d1685e,62c53978bee84d668969a533,2022-07-06_09h31.23.195,Colour_Asymmetry_Pilot,2022.1.3,MacIntel,60.04202942,62c50e9c1127f2cd403a315f,0,119,119,2,1,twoone,,,,,,,,,,,,,,,,,,,,,,,,,,,,,,,,,,,,,,,,,,,,,,,,,,,,,,,,,,,,,,,,,,,,,,,,,,,,,,,,,,,,,,,,,,,,,,,,,,,,,,,,,,,,,,,,,,,,,,,,,,,,,,,,,,,,,,,,,,,,,,,,,,,,,,,,,,,,,
,,,,,,5f966b181caf595331d1685e,62c53978bee84d668969a533,2022-07-06_09h31.23.195,Colour_Asymmetry_Pilot,2022.1.3,MacIntel,60.04202942,62c50e9c1127f2cd403a315f,0,120,120,67,1,twofour,,,,,,,,,,,,,,,,,,,,,,,,,,,,,,,,,,,,,,,,,,,,,,,,,,,,,,,,,,,,,,,,,,,,,,,,,,,,,,,,,,,,,,,,,,,,,,,,,,,,,,,,,,,,,,,,,,,,,,,,,,,,,,,,,,,,,,,,,,,,,,,,,,,,,,,,,,,,,
,,,,,,5f966b181caf595331d1685e,62c53978bee84d668969a533,2022-07-06_09h31.23.195,Colour_Asymmetry_Pilot,2022.1.3,MacIntel,60.04202942,62c50e9c1127f2cd403a315f,0,121,121,101,1,threefour,,,,,,,,,,,,,,,,,,,,,,,,,,,,,,,,,,,,,,,,,,,,,,,,,,,,,,,,,,,,,,,,,,,,,,,,,,,,,,,,,,,,,,,,,,,,,,,,,,,,,,,,,,,,,,,,,,,,,,,,,,,,,,,,,,,,,,,,,,,,,,,,,,,,,,,,,,,,,
,,,,,,5f966b181caf595331d1685e,62c53978bee84d668969a533,2022-07-06_09h31.23.195,Colour_Asymmetry_Pilot,2022.1.3,MacIntel,60.04202942,62c50e9c1127f2cd403a315f,0,122,122,92,1,threeone,,,,,,,,,,,,,,,,,,,,,,,,,,,,,,,,,,,,,,,,,,,,,,,,,,,,,,,,,,,,,,,,,,,,,,,,,,,,,,,,,,,,,,,,,,,,,,,,,,,,,,,,,,,,,,,,,,,,,,,,,,,,,,,,,,,,,,,,,,,,,,,,,,,,,,,,,,,,,
,,,,,,5f966b181caf595331d1685e,62c53978bee84d668969a533,2022-07-06_09h31.23.195,Colour_Asymmetry_Pilot,2022.1.3,MacIntel,60.04202942,62c50e9c1127f2cd403a315f,0,123,123,144,1,onetwo,,,,,,,,,,,,,,,,,,,,,,,,,,,,,,,,,,,,,,,,,,,,,,,,,,,,,,,,,,,,,,,,,,,,,,,,,,,,,,,,,,,,,,,,,,,,,,,,,,,,,,,,,,,,,,,,,,,,,,,,,,,,,,,,,,,,,,,,,,,,,,,,,,,,,,,,,,,,,
,,,,,,5f966b181caf595331d1685e,62c53978bee84d668969a533,2022-07-06_09h31.23.195,Colour_Asymmetry_Pilot,2022.1.3,MacIntel,60.04202942,62c50e9c1127f2cd403a315f,0,124,124,16,1,onetwo,,,,,,,,,,,,,,,,,,,,,,,,,,,,,,,,,,,,,,,,,,,,,,,,,,,,,,,,,,,,,,,,,,,,,,,,,,,,,,,,,,,,,,,,,,,,,,,,,,,,,,,,,,,,,,,,,,,,,,,,,,,,,,,,,,,,,,,,,,,,,,,,,,,,,,,,,,,,,
,,,,,,5f966b181caf595331d1685e,62c53978bee84d668969a533,2022-07-06_09h31.23.195,Colour_Asymmetry_Pilot,2022.1.3,MacIntel,60.04202942,62c50e9c1127f2cd403a315f,0,125,125,116,1,threeone,,,,,,,,,,,,,,,,,,,,,,,,,,,,,,,,,,,,,,,,,,,,,,,,,,,,,,,,,,,,,,,,,,,,,,,,,,,,,,,,,,,,,,,,,,,,,,,,,,,,,,,,,,,,,,,,,,,,,,,,,,,,,,,,,,,,,,,,,,,,,,,,,,,,,,,,,,,,,
,,,,,,5f966b181caf595331d1685e,62c53978bee84d668969a533,2022-07-06_09h31.23.195,Colour_Asymmetry_Pilot,2022.1.3,MacIntel,60.04202942,62c50e9c1127f2cd403a315f,0,126,126,120,1,onetwo,,,,,,,,,,,,,,,,,,,,,,,,,,,,,,,,,,,,,,,,,,,,,,,,,,,,,,,,,,,,,,,,,,,,,,,,,,,,,,,,,,,,,,,,,,,,,,,,,,,,,,,,,,,,,,,,,,,,,,,,,,,,,,,,,,,,,,,,,,,,,,,,,,,,,,,,,,,,,
,,,,,,5f966b181caf595331d1685e,62c53978bee84d668969a533,2022-07-06_09h31.23.195,Colour_Asymmetry_Pilot,2022.1.3,MacIntel,60.04202942,62c50e9c1127f2cd403a315f,0,127,127,66,1,twoone,,,,,,,,,,,,,,,,,,,,,,,,,,,,,,,,,,,,,,,,,,,,,,,,,,,,,,,,,,,,,,,,,,,,,,,,,,,,,,,,,,,,,,,,,,,,,,,,,,,,,,,,,,,,,,,,,,,,,,,,,,,,,,,,,,,,,,,,,,,,,,,,,,,,,,,,,,,,,
,,,,,,5f966b181caf595331d1685e,62c53978bee84d668969a533,2022-07-06_09h31.23.195,Colour_Asymmetry_Pilot,2022.1.3,MacIntel,60.04202942,62c50e9c1127f2cd403a315f,0,128,128,94,1,fourtwo,,,,,,,,,,,,,,,,,,,,,,,,,,,,,,,,,,,,,,,,,,,,,,,,,,,,,,,,,,,,,,,,,,,,,,,,,,,,,,,,,,,,,,,,,,,,,,,,,,,,,,,,,,,,,,,,,,,,,,,,,,,,,,,,,,,,,,,,,,,,,,,,,,,,,,,,,,,,,
,,,,,,5f966b181caf595331d1685e,62c53978bee84d668969a533,2022-07-06_09h31.23.195,Colour_Asymmetry_Pilot,2022.1.3,MacIntel,60.04202942,62c50e9c1127f2cd403a315f,0,129,129,130,1,twoone,,,,,,,,,,,,,,,,,,,,,,,,,,,,,,,,,,,,,,,,,,,,,,,,,,,,,,,,,,,,,,,,,,,,,,,,,,,,,,,,,,,,,,,,,,,,,,,,,,,,,,,,,,,,,,,,,,,,,,,,,,,,,,,,,,,,,,,,,,,,,,,,,,,,,,,,,,,,,
,,,,,,5f966b181caf595331d1685e,62c53978bee84d668969a533,2022-07-06_09h31.23.195,Colour_Asymmetry_Pilot,2022.1.3,MacIntel,60.04202942,62c50e9c1127f2cd403a315f,0,130,130,40,1,onetwo,,,,,,,,,,,,,,,,,,,,,,,,,,,,,,,,,,,,,,,,,,,,,,,,,,,,,,,,,,,,,,,,,,,,,,,,,,,,,,,,,,,,,,,,,,,,,,,,,,,,,,,,,,,,,,,,,,,,,,,,,,,,,,,,,,,,,,,,,,,,,,,,,,,,,,,,,,,,,
,,,,,,5f966b181caf595331d1685e,62c53978bee84d668969a533,2022-07-06_09h31.23.195,Colour_Asymmetry_Pilot,2022.1.3,MacIntel,60.04202942,62c50e9c1127f2cd403a315f,0,131,131,6,1,fourtwo,,,,,,,,,,,,,,,,,,,,,,,,,,,,,,,,,,,,,,,,,,,,,,,,,,,,,,,,,,,,,,,,,,,,,,,,,,,,,,,,,,,,,,,,,,,,,,,,,,,,,,,,,,,,,,,,,,,,,,,,,,,,,,,,,,,,,,,,,,,,,,,,,,,,,,,,,,,,,
,,,,,,5f966b181caf595331d1685e,62c53978bee84d668969a533,2022-07-06_09h31.23.195,Colour_Asymmetry_Pilot,2022.1.3,MacIntel,60.04202942,62c50e9c1127f2cd403a315f,0,132,132,96,1,onetwo,,,,,,,,,,,,,,,,,,,,,,,,,,,,,,,,,,,,,,,,,,,,,,,,,,,,,,,,,,,,,,,,,,,,,,,,,,,,,,,,,,,,,,,,,,,,,,,,,,,,,,,,,,,,,,,,,,,,,,,,,,,,,,,,,,,,,,,,,,,,,,,,,,,,,,,,,,,,,
,,,,,,5f966b181caf595331d1685e,62c53978bee84d668969a533,2022-07-06_09h31.23.195,Colour_Asymmetry_Pilot,2022.1.3,MacIntel,60.04202942,62c50e9c1127f2cd403a315f,0,133,133,27,1,twofour,,,,,,,,,,,,,,,,,,,,,,,,,,,,,,,,,,,,,,,,,,,,,,,,,,,,,,,,,,,,,,,,,,,,,,,,,,,,,,,,,,,,,,,,,,,,,,,,,,,,,,,,,,,,,,,,,,,,,,,,,,,,,,,,,,,,,,,,,,,,,,,,,,,,,,,,,,,,,
,,,,,,5f966b181caf595331d1685e,62c53978bee84d668969a533,2022-07-06_09h31.23.195,Colour_Asymmetry_Pilot,2022.1.3,MacIntel,60.04202942,62c50e9c1127f2cd403a315f,0,134,134,53,1,threefour,,,,,,,,,,,,,,,,,,,,,,,,,,,,,,,,,,,,,,,,,,,,,,,,,,,,,,,,,,,,,,,,,,,,,,,,,,,,,,,,,,,,,,,,,,,,,,,,,,,,,,,,,,,,,,,,,,,,,,,,,,,,,,,,,,,,,,,,,,,,,,,,,,,,,,,,,,,,,
,,,,,,5f966b181caf595331d1685e,62c53978bee84d668969a533,2022-07-06_09h31.23.195,Colour_Asymmetry_Pilot,2022.1.3,MacIntel,60.04202942,62c50e9c1127f2cd403a315f,0,135,135,79,1,fourthree,,,,,,,,,,,,,,,,,,,,,,,,,,,,,,,,,,,,,,,,,,,,,,,,,,,,,,,,,,,,,,,,,,,,,,,,,,,,,,,,,,,,,,,,,,,,,,,,,,,,,,,,,,,,,,,,,,,,,,,,,,,,,,,,,,,,,,,,,,,,,,,,,,,,,,,,,,,,,
,,,,,,5f966b181caf595331d1685e,62c53978bee84d668969a533,2022-07-06_09h31.23.195,Colour_Asymmetry_Pilot,2022.1.3,MacIntel,60.04202942,62c50e9c1127f2cd403a315f,0,136,136,108,1,threeone,,,,,,,,,,,,,,,,,,,,,,,,,,,,,,,,,,,,,,,,,,,,,,,,,,,,,,,,,,,,,,,,,,,,,,,,,,,,,,,,,,,,,,,,,,,,,,,,,,,,,,,,,,,,,,,,,,,,,,,,,,,,,,,,,,,,,,,,,,,,,,,,,,,,,,,,,,,,,
,,,,,,5f966b181caf595331d1685e,62c53978bee84d668969a533,2022-07-06_09h31.23.195,Colour_Asymmetry_Pilot,2022.1.3,MacIntel,60.04202942,62c50e9c1127f2cd403a315f,0,137,137,51,1,twofour,,,,,,,,,,,,,,,,,,,,,,,,,,,,,,,,,,,,,,,,,,,,,,,,,,,,,,,,,,,,,,,,,,,,,,,,,,,,,,,,,,,,,,,,,,,,,,,,,,,,,,,,,,,,,,,,,,,,,,,,,,,,,,,,,,,,,,,,,,,,,,,,,,,,,,,,,,,,,
,,,,,,5f966b181caf595331d1685e,62c53978bee84d668969a533,2022-07-06_09h31.23.195,Colour_Asymmetry_Pilot,2022.1.3,MacIntel,60.04202942,62c50e9c1127f2cd403a315f,0,138,138,80,1,onetwo,,,,,,,,,,,,,,,,,,,,,,,,,,,,,,,,,,,,,,,,,,,,,,,,,,,,,,,,,,,,,,,,,,,,,,,,,,,,,,,,,,,,,,,,,,,,,,,,,,,,,,,,,,,,,,,,,,,,,,,,,,,,,,,,,,,,,,,,,,,,,,,,,,,,,,,,,,,,,
,,,,,,5f966b181caf595331d1685e,62c53978bee84d668969a533,2022-07-06_09h31.23.195,Colour_Asymmetry_Pilot,2022.1.3,MacIntel,60.04202942,62c50e9c1127f2cd403a315f,0,139,139,151,1,fourthree,,,,,,,,,,,,,,,,,,,,,,,,,,,,,,,,,,,,,,,,,,,,,,,,,,,,,,,,,,,,,,,,,,,,,,,,,,,,,,,,,,,,,,,,,,,,,,,,,,,,,,,,,,,,,,,,,,,,,,,,,,,,,,,,,,,,,,,,,,,,,,,,,,,,,,,,,,,,,
,,,,,,5f966b181caf595331d1685e,62c53978bee84d668969a533,2022-07-06_09h31.23.195,Colour_Asymmetry_Pilot,2022.1.3,MacIntel,60.04202942,62c50e9c1127f2cd403a315f,0,140,140,19,1,twofour,,,,,,,,,,,,,,,,,,,,,,,,,,,,,,,,,,,,,,,,,,,,,,,,,,,,,,,,,,,,,,,,,,,,,,,,,,,,,,,,,,,,,,,,,,,,,,,,,,,,,,,,,,,,,,,,,,,,,,,,,,,,,,,,,,,,,,,,,,,,,,,,,,,,,,,,,,,,,
,,,,,,5f966b181caf595331d1685e,62c53978bee84d668969a533,2022-07-06_09h31.23.195,Colour_Asymmetry_Pilot,2022.1.3,MacIntel,60.04202942,62c50e9c1127f2cd403a315f,0,141,141,85,1,threefour,,,,,,,,,,,,,,,,,,,,,,,,,,,,,,,,,,,,,,,,,,,,,,,,,,,,,,,,,,,,,,,,,,,,,,,,,,,,,,,,,,,,,,,,,,,,,,,,,,,,,,,,,,,,,,,,,,,,,,,,,,,,,,,,,,,,,,,,,,,,,,,,,,,,,,,,,,,,,
,,,,,,5f966b181caf595331d1685e,62c53978bee84d668969a533,2022-07-06_09h31.23.195,Colour_Asymmetry_Pilot,2022.1.3,MacIntel,60.04202942,62c50e9c1127f2cd403a315f,0,142,142,62,1,fourtwo,,,,,,,,,,,,,,,,,,,,,,,,,,,,,,,,,,,,,,,,,,,,,,,,,,,,,,,,,,,,,,,,,,,,,,,,,,,,,,,,,,,,,,,,,,,,,,,,,,,,,,,,,,,,,,,,,,,,,,,,,,,,,,,,,,,,,,,,,,,,,,,,,,,,,,,,,,,,,
,,,,,,5f966b181caf595331d1685e,62c53978bee84d668969a533,2022-07-06_09h31.23.195,Colour_Asymmetry_Pilot,2022.1.3,MacIntel,60.04202942,62c50e9c1127f2cd403a315f,0,143,143,47,1,fourthree,,,,,,,,,,,,,,,,,,,,,,,,,,,,,,,,,,,,,,,,,,,,,,,,,,,,,,,,,,,,,,,,,,,,,,,,,,,,,,,,,,,,,,,,,,,,,,,,,,,,,,,,,,,,,,,,,,,,,,,,,,,,,,,,,,,,,,,,,,,,,,,,,,,,,,,,,,,,,
,,,,,,5f966b181caf595331d1685e,62c53978bee84d668969a533,2022-07-06_09h31.23.195,Colour_Asymmetry_Pilot,2022.1.3,MacIntel,60.04202942,62c50e9c1127f2cd403a315f,0,144,144,91,1,twofour,,,,,,,,,,,,,,,,,,,,,,,,,,,,,,,,,,,,,,,,,,,,,,,,,,,,,,,,,,,,,,,,,,,,,,,,,,,,,,,,,,,,,,,,,,,,,,,,,,,,,,,,,,,,,,,,,,,,,,,,,,,,,,,,,,,,,,,,,,,,,,,,,,,,,,,,,,,,,
,,,,,,5f966b181caf595331d1685e,62c53978bee84d668969a533,2022-07-06_09h31.23.195,Colour_Asymmetry_Pilot,2022.1.3,MacIntel,60.04202942,62c50e9c1127f2cd403a315f,0,145,145,0,1,onetwo,,,,,,,,,,,,,,,,,,,,,,,,,,,,,,,,,,,,,,,,,,,,,,,,,,,,,,,,,,,,,,,,,,,,,,,,,,,,,,,,,,,,,,,,,,,,,,,,,,,,,,,,,,,,,,,,,,,,,,,,,,,,,,,,,,,,,,,,,,,,,,,,,,,,,,,,,,,,,
,,,,,,5f966b181caf595331d1685e,62c53978bee84d668969a533,2022-07-06_09h31.23.195,Colour_Asymmetry_Pilot,2022.1.3,MacIntel,60.04202942,62c50e9c1127f2cd403a315f,0,146,146,41,1,onethree,,,,,,,,,,,,,,,,,,,,,,,,,,,,,,,,,,,,,,,,,,,,,,,,,,,,,,,,,,,,,,,,,,,,,,,,,,,,,,,,,,,,,,,,,,,,,,,,,,,,,,,,,,,,,,,,,,,,,,,,,,,,,,,,,,,,,,,,,,,,,,,,,,,,,,,,,,,,,
,,,,,,5f966b181caf595331d1685e,62c53978bee84d668969a533,2022-07-06_09h31.23.195,Colour_Asymmetry_Pilot,2022.1.3,MacIntel,60.04202942,62c50e9c1127f2cd403a315f,0,147,147,100,1,threeone,,,,,,,,,,,,,,,,,,,,,,,,,,,,,,,,,,,,,,,,,,,,,,,,,,,,,,,,,,,,,,,,,,,,,,,,,,,,,,,,,,,,,,,,,,,,,,,,,,,,,,,,,,,,,,,,,,,,,,,,,,,,,,,,,,,,,,,,,,,,,,,,,,,,,,,,,,,,,
,,,,,,5f966b181caf595331d1685e,62c53978bee84d668969a533,2022-07-06_09h31.23.195,Colour_Asymmetry_Pilot,2022.1.3,MacIntel,60.04202942,62c50e9c1127f2cd403a315f,0,148,148,136,1,onetwo,,,,,,,,,,,,,,,,,,,,,,,,,,,,,,,,,,,,,,,,,,,,,,,,,,,,,,,,,,,,,,,,,,,,,,,,,,,,,,,,,,,,,,,,,,,,,,,,,,,,,,,,,,,,,,,,,,,,,,,,,,,,,,,,,,,,,,,,,,,,,,,,,,,,,,,,,,,,,
,,,,,,5f966b181caf595331d1685e,62c53978bee84d668969a533,2022-07-06_09h31.23.195,Colour_Asymmetry_Pilot,2022.1.3,MacIntel,60.04202942,62c50e9c1127f2cd403a315f,0,149,149,141,1,threefour,,,,,,,,,,,,,,,,,,,,,,,,,,,,,,,,,,,,,,,,,,,,,,,,,,,,,,,,,,,,,,,,,,,,,,,,,,,,,,,,,,,,,,,,,,,,,,,,,,,,,,,,,,,,,,,,,,,,,,,,,,,,,,,,,,,,,,,,,,,,,,,,,,,,,,,,,,,,,
,,,,,,5f966b181caf595331d1685e,62c53978bee84d668969a533,2022-07-06_09h31.23.195,Colour_Asymmetry_Pilot,2022.1.3,MacIntel,60.04202942,62c50e9c1127f2cd403a315f,0,150,150,42,1,twoone,,,,,,,,,,,,,,,,,,,,,,,,,,,,,,,,,,,,,,,,,,,,,,,,,,,,,,,,,,,,,,,,,,,,,,,,,,,,,,,,,,,,,,,,,,,,,,,,,,,,,,,,,,,,,,,,,,,,,,,,,,,,,,,,,,,,,,,,,,,,,,,,,,,,,,,,,,,,,
,,,,,,5f966b181caf595331d1685e,62c53978bee84d668969a533,2022-07-06_09h31.23.195,Colour_Asymmetry_Pilot,2022.1.3,MacIntel,60.04202942,62c50e9c1127f2cd403a315f,0,151,151,84,1,threeone,,,,,,,,,,,,,,,,,,,,,,,,,,,,,,,,,,,,,,,,,,,,,,,,,,,,,,,,,,,,,,,,,,,,,,,,,,,,,,,,,,,,,,,,,,,,,,,,,,,,,,,,,,,,,,,,,,,,,,,,,,,,,,,,,,,,,,,,,,,,,,,,,,,,,,,,,,,,,
,,,,,,5f966b181caf595331d1685e,62c53978bee84d668969a533,2022-07-06_09h31.23.195,Colour_Asymmetry_Pilot,2022.1.3,MacIntel,60.04202942,62c50e9c1127f2cd403a315f,0,152,152,78,1,fourtwo,,,,,,,,,,,,,,,,,,,,,,,,,,,,,,,,,,,,,,,,,,,,,,,,,,,,,,,,,,,,,,,,,,,,,,,,,,,,,,,,,,,,,,,,,,,,,,,,,,,,,,,,,,,,,,,,,,,,,,,,,,,,,,,,,,,,,,,,,,,,,,,,,,,,,,,,,,,,,
,,,,,,5f966b181caf595331d1685e,62c53978bee84d668969a533,2022-07-06_09h31.23.195,Colour_Asymmetry_Pilot,2022.1.3,MacIntel,60.04202942,62c50e9c1127f2cd403a315f,0,153,153,9,1,onethree,,,,,,,,,,,,,,,,,,,,,,,,,,,,,,,,,,,,,,,,,,,,,,,,,,,,,,,,,,,,,,,,,,,,,,,,,,,,,,,,,,,,,,,,,,,,,,,,,,,,,,,,,,,,,,,,,,,,,,,,,,,,,,,,,,,,,,,,,,,,,,,,,,,,,,,,,,,,,
,,,,,,5f966b181caf595331d1685e,62c53978bee84d668969a533,2022-07-06_09h31.23.195,Colour_Asymmetry_Pilot,2022.1.3,MacIntel,60.04202942,62c50e9c1127f2cd403a315f,0,154,154,1,1,onethree,,,,,,,,,,,,,,,,,,,,,,,,,,,,,,,,,,,,,,,,,,,,,,,,,,,,,,,,,,,,,,,,,,,,,,,,,,,,,,,,,,,,,,,,,,,,,,,,,,,,,,,,,,,,,,,,,,,,,,,,,,,,,,,,,,,,,,,,,,,,,,,,,,,,,,,,,,,,,
,,,,,,5f966b181caf595331d1685e,62c53978bee84d668969a533,2022-07-06_09h31.23.195,Colour_Asymmetry_Pilot,2022.1.3,MacIntel,60.04202942,62c50e9c1127f2cd403a315f,0,155,155,106,1,twoone,,,,,,,,,,,,,,,,,,,,,,,,,,,,,,,,,,,,,,,,,,,,,,,,,,,,,,,,,,,,,,,,,,,,,,,,,,,,,,,,,,,,,,,,,,,,,,,,,,,,,,,,,,,,,,,,,,,,,,,,,,,,,,,,,,,,,,,,,,,,,,,,,,,,,,,,,,,,,
,,,,,,5f966b181caf595331d1685e,62c53978bee84d668969a533,2022-07-06_09h31.23.195,Colour_Asymmetry_Pilot,2022.1.3,MacIntel,60.04202942,62c50e9c1127f2cd403a315f,0,156,156,87,1,fourthree,,,,,,,,,,,,,,,,,,,,,,,,,,,,,,,,,,,,,,,,,,,,,,,,,,,,,,,,,,,,,,,,,,,,,,,,,,,,,,,,,,,,,,,,,,,,,,,,,,,,,,,,,,,,,,,,,,,,,,,,,,,,,,,,,,,,,,,,,,,,,,,,,,,,,,,,,,,,,
,,,,,,5f966b181caf595331d1685e,62c53978bee84d668969a533,2022-07-06_09h31.23.195,Colour_Asymmetry_Pilot,2022.1.3,MacIntel,60.04202942,62c50e9c1127f2cd403a315f,0,157,157,18,1,twoone,,,,,,,,,,,,,,,,,,,,,,,,,,,,,,,,,,,,,,,,,,,,,,,,,,,,,,,,,,,,,,,,,,,,,,,,,,,,,,,,,,,,,,,,,,,,,,,,,,,,,,,,,,,,,,,,,,,,,,,,,,,,,,,,,,,,,,,,,,,,,,,,,,,,,,,,,,,,,
,,,,,,5f966b181caf595331d1685e,62c53978bee84d668969a533,2022-07-06_09h31.23.195,Colour_Asymmetry_Pilot,2022.1.3,MacIntel,60.04202942,62c50e9c1127f2cd403a315f,0,158,158,142,1,fourtwo,,,,,,,,,,,,,,,,,,,,,,,,,,,,,,,,,,,,,,,,,,,,,,,,,,,,,,,,,,,,,,,,,,,,,,,,,,,,,,,,,,,,,,,,,,,,,,,,,,,,,,,,,,,,,,,,,,,,,,,,,,,,,,,,,,,,,,,,,,,,,,,,,,,,,,,,,,,,,
,,,,,,5f966b181caf595331d1685e,62c53978bee84d668969a533,2022-07-06_09h31.23.195,Colour_Asymmetry_Pilot,2022.1.3,MacIntel,60.04202942,62c50e9c1127f2cd403a315f,0,159,159,32,1,onetwo,,,,,,,,,,,,,,,,,,,,,,,,,,,,,,,,,,,,,,,,,,,,,,,,,,,,,,,,,,,,,,,,,,,,,,,,,,,,,,,,,,,,,,,,,,,,,,,,,,,,,,,,,,,,,,,,,,,,,,,,,,,,,,,,,,,,,,,,,,,,,,,,,,,,,,,,,,,,,
,,,,,,5f966b181caf595331d1685e,62c53978bee84d668969a533,2022-07-06_09h31.23.195,Colour_Asymmetry_Pilot,2022.1.3,MacIntel,60.04202942,62c50e9c1127f2cd403a315f,0,160,160,81,1,onethree,,,,,,,,,,,,,,,,,,,,,,,,,,,,,,,,,,,,,,,,,,,,,,,,,,,,,,,,,,,,,,,,,,,,,,,,,,,,,,,,,,,,,,,,,,,,,,,,,,,,,,,,,,,,,,,,,,,,,,,,,,,,,,,,,,,,,,,,,,,,,,,,,,,,,,,,,,,,,
,,,,,,5f966b181caf595331d1685e,62c53978bee84d668969a533,2022-07-06_09h31.23.195,Colour_Asymmetry_Pilot,2022.1.3,MacIntel,60.04202942,62c50e9c1127f2cd403a315f,0,161,161,52,1,threeone,,,,,,,,,,,,,,,,,,,,,,,,,,,,,,,,,,,,,,,,,,,,,,,,,,,,,,,,,,,,,,,,,,,,,,,,,,,,,,,,,,,,,,,,,,,,,,,,,,,,,,,,,,,,,,,,,,,,,,,,,,,,,,,,,,,,,,,,,,,,,,,,,,,,,,,,,,,,,
,,,,,,5f966b181caf595331d1685e,62c53978bee84d668969a533,2022-07-06_09h31.23.195,Colour_Asymmetry_Pilot,2022.1.3,MacIntel,60.04202942,62c50e9c1127f2cd403a315f,,,,,,,space,7.0252,space,19.0461,space,56.3915,space,28.1832,space,5.5636,space,6.8506,"[-0.7412000000000001,-0.08239999999999992,-0.6864]",onethree,"[-0.7412000000000001,-0.08239999999999992,-0.6864]",4,4.9952,48.40924072,98.93725586,1,0,0,response1disk_5,0.351196289,0.269989014,1,0,0,rectangle_8,0.351196289,0.269989014,1,0,0,1,0.351196289,0.269989014,1,0,0,0,0,0,0,1,,,,,,,,,,,,,,,,,,,,,,,,,,,,,,,,,,,,,,,,,,,,,,,,,,,,,,,,,,,,,,,,,,,,,,,,,,,,,,,,,,,,,,,,,,,,,,,,,,,,,,,,,,,,,,,,
,,,,,,5f966b181caf595331d1685e,62c53978bee84d668969a533,2022-07-06_09h31.23.195,Colour_Asymmetry_Pilot,2022.1.3,MacIntel,60.04202942,62c50e9c1127f2cd403a315f,,,,,,,,,,,,,,,,,,,"[-0.7412000000000001,-0.08239999999999992,-0.6864]",threefour,"[0.30180000000000007,-0.7884,-0.9844]",-4,2.682,-32.02685547,88.91586304,1,0,0,response7disk_5,10.81646729,-2.406494141,1,0,0,rectangle_8,10.81646729,-2.406494141,1,0,0,1,10.81646729,-2.406494141,1,0,0,1,0,1,0,1,,,,,,,,,,,,,,,,,,,,,,,,,,,,,,,,,,,,,,,,,,,,,,,,,,,,,,,,,,,,,,,,,,,,,,,,,,,,,,,,,,,,,,,,,,,,,,,,,,,,,,,,,,,,,,,,
,,,,,,5f966b181caf595331d1685e,62c53978bee84d668969a533,2022-07-06_09h31.23.195,Colour_Asymmetry_Pilot,2022.1.3,MacIntel,60.04202942,62c50e9c1127f2cd403a315f,,,,,,,,,,,,,,,,,,,"[0.37240000000000006,-0.050999999999999934,-0.5216]",fourtwo,"[-0.07459999999999989,0.12139999999999995,-0.9922]",-3,3.2634,-86.47912598,42.99853516,1,0,0,response7disk_5,-12.75177002,-6.26361084,1,0,0,rectangle_8,44.88208008,-94.09240723,1,0,0,1,8.004882813,-3.680755615,1,0,0,2,0,2,0,1,response3disk_7,4,rectangle_4,,,,,,,,,,,,,,,,,,,,,,,,,,,,,,,,,,,,,,,,,,,,,,,,,,,,,,,,,,,,,,,,,,,,,,,,,,,,,,,,,,,,,,,,,,,,,,,,,,,,,,,,,,,,,
,,,,,,5f966b181caf595331d1685e,62c53978bee84d668969a533,2022-07-06_09h31.23.195,Colour_Asymmetry_Pilot,2022.1.3,MacIntel,60.04202942,62c50e9c1127f2cd403a315f,,,,,,,,,,,,,,,,,,,"[0.9763999999999999,-0.1137999999999999,-0.6314]",twofour,"[-0.6,0.16860000000000008,0.44300000000000006]",-4,1.5771,-44.84155273,93.9229126,1,0,0,response7disk_5,-1.695983887,-3.66973877,1,0,0,rectangle_8,-1.695983887,-3.66973877,1,0,0,1,-1.695983887,-3.66973877,1,0,0,3,0,3,0,1,,,,,,,,,,,,,,,,,,,,,,,,,,,,,,,,,,,,,,,,,,,,,,,,,,,,,,,,,,,,,,,,,,,,,,,,,,,,,,,,,,,,,,,,,,,,,,,,,,,,,,,,,,,,,,,,
,,,,,,5f966b181caf595331d1685e,62c53978bee84d668969a533,2022-07-06_09h31.23.195,Colour_Asymmetry_Pilot,2022.1.3,MacIntel,60.04202942,62c50e9c1127f2cd403a315f,,,,,,,,,,,,,,,,,,,"[-0.011800000000000033,-0.906,-0.45100000000000007]",fourthree,"[-0.8118,-0.8198,-0.5452]",-2,3.5974,-88.2220459,-37.32702637,1,0,0,response5disk_5,-10.87615967,-5.529327393,1,0,0,rectangle_8,-10.87615967,-5.529327393,1,0,0,1,-10.87615967,-5.529327393,1,0,0,4,0,4,0,1,,,,,,,,,,,,,,,,,,,,,,,,,,,,,,,,,,,,,,,,,,,,,,,,,,,,,,,,,,,,,,,,,,,,,,,,,,,,,,,,,,,,,,,,,,,,,,,,,,,,,,,,,,,,,,,,
,,,,,,5f966b181caf595331d1685e,62c53978bee84d668969a533,2022-07-06_09h31.23.195,Colour_Asymmetry_Pilot,2022.1.3,MacIntel,60.04202942,62c50e9c1127f2cd403a315f,,,,,,,,,,,,,,,,,,,"[-0.6235999999999999,-0.6786,-0.08239999999999992]",fourthree,"[0.0351999999999999,0.41159999999999997,0.0038000000000000256]",-4,1.7484,-42.6998291,87.17663574,1,0,0,response7disk_5,-1.838867188,-2.461486816,1,0,0,rectangle_8,-1.838867188,-2.461486816,1,0,0,1,-1.838867188,-2.461486816,1,0,0,5,0,5,0,1,,,,,,,,,,,,,,,,,,,,,,,,,,,,,,,,,,,,,,,,,,,,,,,,,,,,,,,,,,,,,,,,,,,,,,,,,,,,,,,,,,,,,,,,,,,,,,,,,,,,,,,,,,,,,,,,
,,,,,,5f966b181caf595331d1685e,62c53978bee84d668969a533,2022-07-06_09h31.23.195,Colour_Asymmetry_Pilot,2022.1.3,MacIntel,60.04202942,62c50e9c1127f2cd403a315f,,,,,,,,,,,,,,,,,,,"[-0.01980000000000004,-0.5138,-0.38039999999999996]",twofour,"[-0.20799999999999996,-0.655,-0.01980000000000004]",-3,2.382,-79.02319336,50.85101318,1,0,0,response7disk_5,-3.284179688,-2.770385742,1,0,0,rectangle_8,-3.284179688,-2.770385742,1,0,0,1,-3.284179688,-2.770385742,1,0,0,6,0,6,0,1,,,,,,,,,,,,,,,,,,,,,,,,,,,,,,,,,,,,,,,,,,,,,,,,,,,,,,,,,,,,,,,,,,,,,,,,,,,,,,,,,,,,,,,,,,,,,,,,,,,,,,,,,,,,,,,,
,,,,,,5f966b181caf595331d1685e,62c53978bee84d668969a533,2022-07-06_09h31.23.195,Colour_Asymmetry_Pilot,2022.1.3,MacIntel,60.04202942,62c50e9c1127f2cd403a315f,,,,,,,,,,,,,,,,,,,,fourthree,,-4,1.6816,,,,,,,,,,,,,,,,,,,,,,,,,,,,,,,,space,7.6024,"[-0.5688,-0.08239999999999992,-0.1844]","[0.18419999999999992,-0.4276,-0.404]",-50.10186768,82.48571777,1,0,0,response7disk,-7.877685547,3.03894043,1,0,0,rectangle,-7.877685547,3.03894043,1,0,0,,2,0.0029,0,-7.877685547,3.03894043,1,0,0,0,0,0,103,1,22,second,,,,,,,,,,,,,,,,,,,,,,,,,,,,,,,,,,,,,,,,,,,,,,,,,,,,,,,,,,,,,,,,,,,,,,,,
,,,,,,5f966b181caf595331d1685e,62c53978bee84d668969a533,2022-07-06_09h31.23.195,Colour_Asymmetry_Pilot,2022.1.3,MacIntel,60.04202942,62c50e9c1127f2cd403a315f,,,,,,,,,,,,,,,,,,,,fourtwo,,-4,2.2148,,,,,,,,,,,,,,,,,,,,,,,,,,,,,,,,,,"[-0.011800000000000033,-0.906,-0.45100000000000007]","[0.796,0.2156,-0.27859999999999996]",-46.08947754,86.17276001,1,0,0,response7disk,0.435546875,-1.257141113,1,0,0,rectangle,0.435546875,-1.257141113,1,0,0,,2,0.0005,0,0.435546875,-1.257141113,1,0,0,0,1,1,138,1,57,second,,,,,,,,,,,,,,,,,,,,,,,,,,,,,,,,,,,,,,,,,,,,,,,,,,,,,,,,,,,,,,,,,,,,,,,,
,,,,,,5f966b181caf595331d1685e,62c53978bee84d668969a533,2022-07-06_09h31.23.195,Colour_Asymmetry_Pilot,2022.1.3,MacIntel,60.04202942,62c50e9c1127f2cd403a315f,,,,,,,,,,,,,,,,,,,,onethree,,-4,1.1322,,,,,,,,,,,,,,,,,,,,,,,,,,,,,,,,,,"[-0.6942,-0.7648,-0.12959999999999994]","[1,0.12939999999999996,-1]",-41.4708252,82.17816162,1,0,0,response7disk,9.734924316,-2.780090332,1,0,0,rectangle,9.734924316,-2.780090332,1,0,0,,2,0.0004,0,9.734924316,-2.780090332,1,0,0,0,2,2,157,1,76,second,,,,,,,,,,,,,,,,,,,,,,,,,,,,,,,,,,,,,,,,,,,,,,,,,,,,,,,,,,,,,,,,,,,,,,,,
,,,,,,5f966b181caf595331d1685e,62c53978bee84d668969a533,2022-07-06_09h31.23.195,Colour_Asymmetry_Pilot,2022.1.3,MacIntel,60.04202942,62c50e9c1127f2cd403a315f,,,,,,,,,,,,,,,,,,,,fourthree,,2,4.2149,,,,,,,,,,,,,,,,,,,,,,,,,,,,,,,,,,"[-0.38039999999999996,-0.4276,-0.1452]","[-0.6942,-0.7648,-0.12959999999999994]",80.18688965,-41.96063232,1,0,0,response3disk,9.531555176,-0.20413208,1,0,0,rectangle,9.531555176,-0.20413208,1,0,0,,3,0.001,0,9.531555176,-0.20413208,1,0,0,0,3,3,110,1,29,second,,,,,,,,,,,,,,,,,,,,,,,,,,,,,,,,,,,,,,,,,,,,,,,,,,,,,,,,,,,,,,,,,,,,,,,,
,,,,,,5f966b181caf595331d1685e,62c53978bee84d668969a533,2022-07-06_09h31.23.195,Colour_Asymmetry_Pilot,2022.1.3,MacIntel,60.04202942,62c50e9c1127f2cd403a315f,,,,,,,,,,,,,,,,,,,,onethree,,-4,1.0651,,,,,,,,,,,,,,,,,,,,,,,,,,,,,,,,,,"[0.9763999999999999,0.8588,-0.05900000000000005]","[0.8274000000000001,-0.5844,-0.9452]",-35.2980957,88.70831299,1,0,0,response7disk,1.190307617,-0.114044189,1,0,0,rectangle,1.190307617,-0.114044189,1,0,0,,3,0.0003,0,1.190307617,-0.114044189,1,0,0,0,4,4,115,1,34,second,,,,,,,,,,,,,,,,,,,,,,,,,,,,,,,,,,,,,,,,,,,,,,,,,,,,,,,,,,,,,,,,,,,,,,,,
,,,,,,5f966b181caf595331d1685e,62c53978bee84d668969a533,2022-07-06_09h31.23.195,Colour_Asymmetry_Pilot,2022.1.3,MacIntel,60.04202942,62c50e9c1127f2cd403a315f,,,,,,,,,,,,,,,,,,,,fourtwo,,-4,1.1152,,,,,,,,,,,,,,,,,,,,,,,,,,,,,,,,,,"[0.8274000000000001,-0.5844,-0.9452]","[0.04299999999999993,0.16060000000000008,-0.6628000000000001]",-41.76965332,80.88769531,1,0,0,response7disk,19.98840332,-2.728607178,1,0,0,rectangle,19.98840332,-2.728607178,1,0,0,,2,0.0017,0,19.98840332,-2.728607178,1,0,0,0,5,5,23,1,23,first,,,,,,,,,,,,,,,,,,,,,,,,,,,,,,,,,,,,,,,,,,,,,,,,,,,,,,,,,,,,,,,,,,,,,,,,
,,,,,,5f966b181caf595331d1685e,62c53978bee84d668969a533,2022-07-06_09h31.23.195,Colour_Asymmetry_Pilot,2022.1.3,MacIntel,60.04202942,62c50e9c1127f2cd403a315f,,,,,,,,,,,,,,,,,,,,onethree,,-2,2.5987,,,,,,,,,,,,,,,,,,,,,,,,,,,,,,,,,,"[0.12939999999999996,-0.2864,0.3253999999999999]","[-0.26280000000000003,-0.4746,-0.2158]",-78.03527832,-46.22387695,1,0,0,response5disk,7.989013672,-5.33782959,1,0,0,rectangle,7.989013672,-5.33782959,1,0,0,,3,0.0028,0,7.989013672,-5.33782959,1,0,0,0,6,6,7,1,7,first,,,,,,,,,,,,,,,,,,,,,,,,,,,,,,,,,,,,,,,,,,,,,,,,,,,,,,,,,,,,,,,,,,,,,,,,
,,,,,,5f966b181caf595331d1685e,62c53978bee84d668969a533,2022-07-06_09h31.23.195,Colour_Asymmetry_Pilot,2022.1.3,MacIntel,60.04202942,62c50e9c1127f2cd403a315f,,,,,,,,,,,,,,,,,,,,onetwo,,-4,0.7155,,,,,,,,,,,,,,,,,,,,,,,,,,,,,,,,,,"[0.3568,-0.20799999999999996,-0.9844]","[0.0351999999999999,0.41159999999999997,0.0038000000000000256]",-37.00543213,80.12857056,1,0,0,response7disk,3.042175293,-0.343902588,1,0,0,rectangle,3.042175293,-0.343902588,1,0,0,,1,0.0012,0,3.042175293,-0.343902588,1,0,0,0,7,7,13,1,13,first,,,,,,,,,,,,,,,,,,,,,,,,,,,,,,,,,,,,,,,,,,,,,,,,,,,,,,,,,,,,,,,,,,,,,,,,
,,,,,,5f966b181caf595331d1685e,62c53978bee84d668969a533,2022-07-06_09h31.23.195,Colour_Asymmetry_Pilot,2022.1.3,MacIntel,60.04202942,62c50e9c1127f2cd403a315f,,,,,,,,,,,,,,,,,,,,fourthree,,-3,1.9816,,,,,,,,,,,,,,,,,,,,,,,,,,,,,,,,,,"[-0.24719999999999998,-0.0354000000000001,0.3175999999999999]","[-0.38039999999999996,-0.4276,-0.1452]",-81.15325928,40.90344238,1,0,0,response7disk,16.38531494,-2.008880615,1,0,0,rectangle,16.38531494,-2.008880615,1,0,0,,1,0.0002,0,16.38531494,-2.008880615,1,0,0,0,8,8,44,1,44,first,,,,,,,,,,,,,,,,,,,,,,,,,,,,,,,,,,,,,,,,,,,,,,,,,,,,,,,,,,,,,,,,,,,,,,,,
,,,,,,5f966b181caf595331d1685e,62c53978bee84d668969a533,2022-07-06_09h31.23.195,Colour_Asymmetry_Pilot,2022.1.3,MacIntel,60.04202942,62c50e9c1127f2cd403a315f,,,,,,,,,,,,,,,,,,,,fourthree,,4,1.9329,,,,,,,,,,,,,,,,,,,,,,,,,,,,,,,,,,"[-0.07459999999999989,0.12139999999999995,-0.9922]","[-0.07459999999999989,0.12139999999999995,-0.9922]",47.32922363,67.79284668,1,0,0,response1disk,11.22497559,-5.331115723,1,0,0,rectangle,11.22497559,-5.331115723,1,0,0,,3,0.0012,0,11.22497559,-5.331115723,1,0,0,0,9,9,47,1,47,first,,,,,,,,,,,,,,,,,,,,,,,,,,,,,,,,,,,,,,,,,,,,,,,,,,,,,,,,,,,,,,,,,,,,,,,,
,,,,,,5f966b181caf595331d1685e,62c53978bee84d668969a533,2022-07-06_09h31.23.195,Colour_Asymmetry_Pilot,2022.1.3,MacIntel,60.04202942,62c50e9c1127f2cd403a315f,,,,,,,,,,,,,,,,,,,,fourthree,,-4,0.7649,,,,,,,,,,,,,,,,,,,,,,,,,,,,,,,,,,"[0.6625999999999999,0.4980000000000002,-0.357]","[-0.9766,-0.34920000000000007,0.2156]",-38.5836792,87.19226074,1,0,0,response7disk,9.528259277,-0.43258667,1,0,0,rectangle,9.528259277,-0.43258667,1,0,0,,1,0.0011,0,9.528259277,-0.43258667,1,0,0,0,10,10,48,1,48,first,,,,,,,,,,,,,,,,,,,,,,,,,,,,,,,,,,,,,,,,,,,,,,,,,,,,,,,,,,,,,,,,,,,,,,,,
,,,,,,5f966b181caf595331d1685e,62c53978bee84d668969a533,2022-07-06_09h31.23.195,Colour_Asymmetry_Pilot,2022.1.3,MacIntel,60.04202942,62c50e9c1127f2cd403a315f,,,,,,,,,,,,,,,,,,,,fourthree,,-3,1.716,,,,,,,,,,,,,,,,,,,,,,,,,,,,,,,,,,"[0.7646000000000002,0.07440000000000002,0.2704]","[0.7802,-0.23140000000000005,-0.20799999999999996]",-82.32470703,48.57745361,1,0,0,response7disk,-13.140625,-0.586486816,1,0,0,rectangle,-13.140625,-0.586486816,1,0,0,,2,0.0013,0,-13.140625,-0.586486816,1,0,0,0,11,11,141,1,60,second,,,,,,,,,,,,,,,,,,,,,,,,,,,,,,,,,,,,,,,,,,,,,,,,,,,,,,,,,,,,,,,,,,,,,,,,
,,,,,,5f966b181caf595331d1685e,62c53978bee84d668969a533,2022-07-06_09h31.23.195,Colour_Asymmetry_Pilot,2022.1.3,MacIntel,60.04202942,62c50e9c1127f2cd403a315f,,,,,,,,,,,,,,,,,,,,fourtwo,,-4,1.7152,,,,,,,,,,,,,,,,,,,,,,,,,,,,,,,,,,"[0.9372,0.20779999999999998,0.2704]","[0.4196,0.4665999999999999,0.3568]",-39.91040039,73.75701904,1,0,0,response7disk,7.975097656,-0.958831787,1,0,0,rectangle,7.975097656,-0.958831787,1,0,0,,1,0.002,0,7.975097656,-0.958831787,1,0,0,0,12,12,67,1,67,first,,,,,,,,,,,,,,,,,,,,,,,,,,,,,,,,,,,,,,,,,,,,,,,,,,,,,,,,,,,,,,,,,,,,,,,,
