trials.thisRepN,trials.thisTrialN,trials.thisN,trials.thisIndex,trials.ran,Colourcodes,participant,session,date,expName,psychopyVersion,OS,frameRate,study_id,trials_4.thisRepN,trials_4.thisTrialN,trials_4.thisN,trials_4.thisIndex,trials_4.ran,StimulusPos,key_resp.keys,key_resp.rt,key_resp_2.keys,key_resp_2.rt,key_resp_15.keys,key_resp_15.rt,key_resp_17.keys,key_resp_17.rt,key_resp_9.keys,key_resp_9.rt,key_resp_10.keys,key_resp_10.rt,Circle1_col,Ecc,Circle2_col,similarity,response_time,mouse_5.x,mouse_5.y,mouse_5.leftButton,mouse_5.midButton,mouse_5.rightButton,mouse_5.clicked_name,mouse_10.x,mouse_10.y,mouse_10.leftButton,mouse_10.midButton,mouse_10.rightButton,mouse_10.clicked_name,mouse_7.x,mouse_7.y,mouse_7.leftButton,mouse_7.midButton,mouse_7.rightButton,mouse_7.clicked_name,catchprac,catchnumberprac,mouse_6.x,mouse_6.y,mouse_6.leftButton,mouse_6.midButton,mouse_6.rightButton,mouse_6.clicked_name,duringprac.thisRepN,duringprac.thisTrialN,duringprac.thisN,duringprac.thisIndex,duringprac.ran,key_resp_22.keys,key_resp_22.rt,Circle1_colour,Circle2_colour,mouse.x,mouse.y,mouse.leftButton,mouse.midButton,mouse.rightButton,mouse.clicked_name,mouse_2.x,mouse_2.y,mouse_2.leftButton,mouse_2.midButton,mouse_2.rightButton,mouse_2.clicked_name,mouse_3.x,mouse_3.y,mouse_3.leftButton,mouse_3.midButton,mouse_3.rightButton,mouse_3.clicked_name,catchresponse,catchnumber,response_time_catch,Catch,mouse_11.x,mouse_11.y,mouse_11.leftButton,mouse_11.midButton,mouse_11.rightButton,mouse_11.clicked_name,trials_2.thisRepN,trials_2.thisTrialN,trials_2.thisN,trials_2.thisIndex,trials_2.ran,Colourpair,Temporder,trials_3.thisRepN,trials_3.thisTrialN,trials_3.thisN,trials_3.thisIndex,trials_3.ran,key_resp_instr_Ishi.keys,key_resp_instr_Ishi.rt,Ishi_trial_keyresp.keys,Ishi_textbox.text,Ishi_mouse.x,Ishi_mouse.y,Ishi_mouse.leftButton,Ishi_mouse.midButton,Ishi_mouse.rightButton,Ishi_mouse.clicked_name,Ishi_loop.thisRepN,Ishi_loop.thisTrialN,Ishi_loop.thisN,Ishi_loop.thisIndex,Ishi_loop.ran,imageaddress,textbox.text,mouse_4.x,mouse_4.y,mouse_4.leftButton,mouse_4.midButton,mouse_4.rightButton,mouse_4.clicked_name,textbox_2.text,mouse_8.x,mouse_8.y,mouse_8.leftButton,mouse_8.midButton,mouse_8.rightButton,mouse_8.clicked_name,textbox_3.text,mouse_9.x,mouse_9.y,mouse_9.leftButton,mouse_9.midButton,mouse_9.rightButton,mouse_9.clicked_name,textbox_4.text,mouse_12.x,mouse_12.y,mouse_12.leftButton,mouse_12.midButton,mouse_12.rightButton,mouse_12.clicked_name,textbox_5.text,mouse_13.x,mouse_13.y,mouse_13.leftButton,mouse_13.midButton,mouse_13.rightButton,mouse_13.clicked_name,textbox_6.text,mouse_14.x,mouse_14.y,mouse_14.leftButton,mouse_14.midButton,mouse_14.rightButton,mouse_14.clicked_name,textbox_7.text,mouse_15.x,mouse_15.y,mouse_15.leftButton,mouse_15.midButton,mouse_15.rightButton,mouse_15.clicked_name
0,0,0,83,1,,60e9ea97d19e613e60a994da,62c53aad9cc59c4ecebc80f6,2022-07-06_09h34.11.786,Colour_Asymmetry_Pilot,2022.1.3,Win32,60.03121623,62c50e9c1127f2cd403a315f,,,,,,,,,,,,,,,,,,,,,,,,,,,,,,,,,,,,,,,,,,,,,,,,,,,,,,,,,,,,,,,,,,,,,,,,,,,,,,,,,,,,,,,,,,,,,,,,,,,,,,,,,,,,,,,,,,,,,,,,,,,,,,,,,,,,,,,,,,,,,,,,,,,,,,,,,,,,,,,,,,,
0,1,1,26,1,,60e9ea97d19e613e60a994da,62c53aad9cc59c4ecebc80f6,2022-07-06_09h34.11.786,Colour_Asymmetry_Pilot,2022.1.3,Win32,60.03121623,62c50e9c1127f2cd403a315f,,,,,,,,,,,,,,,,,,,,,,,,,,,,,,,,,,,,,,,,,,,,,,,,,,,,,,,,,,,,,,,,,,,,,,,,,,,,,,,,,,,,,,,,,,,,,,,,,,,,,,,,,,,,,,,,,,,,,,,,,,,,,,,,,,,,,,,,,,,,,,,,,,,,,,,,,,,,,,,,,,,
0,2,2,48,1,,60e9ea97d19e613e60a994da,62c53aad9cc59c4ecebc80f6,2022-07-06_09h34.11.786,Colour_Asymmetry_Pilot,2022.1.3,Win32,60.03121623,62c50e9c1127f2cd403a315f,,,,,,,,,,,,,,,,,,,,,,,,,,,,,,,,,,,,,,,,,,,,,,,,,,,,,,,,,,,,,,,,,,,,,,,,,,,,,,,,,,,,,,,,,,,,,,,,,,,,,,,,,,,,,,,,,,,,,,,,,,,,,,,,,,,,,,,,,,,,,,,,,,,,,,,,,,,,,,,,,,,
0,3,3,77,1,,60e9ea97d19e613e60a994da,62c53aad9cc59c4ecebc80f6,2022-07-06_09h34.11.786,Colour_Asymmetry_Pilot,2022.1.3,Win32,60.03121623,62c50e9c1127f2cd403a315f,,,,,,,,,,,,,,,,,,,,,,,,,,,,,,,,,,,,,,,,,,,,,,,,,,,,,,,,,,,,,,,,,,,,,,,,,,,,,,,,,,,,,,,,,,,,,,,,,,,,,,,,,,,,,,,,,,,,,,,,,,,,,,,,,,,,,,,,,,,,,,,,,,,,,,,,,,,,,,,,,,,
0,4,4,47,1,,60e9ea97d19e613e60a994da,62c53aad9cc59c4ecebc80f6,2022-07-06_09h34.11.786,Colour_Asymmetry_Pilot,2022.1.3,Win32,60.03121623,62c50e9c1127f2cd403a315f,,,,,,,,,,,,,,,,,,,,,,,,,,,,,,,,,,,,,,,,,,,,,,,,,,,,,,,,,,,,,,,,,,,,,,,,,,,,,,,,,,,,,,,,,,,,,,,,,,,,,,,,,,,,,,,,,,,,,,,,,,,,,,,,,,,,,,,,,,,,,,,,,,,,,,,,,,,,,,,,,,,
0,5,5,81,1,,60e9ea97d19e613e60a994da,62c53aad9cc59c4ecebc80f6,2022-07-06_09h34.11.786,Colour_Asymmetry_Pilot,2022.1.3,Win32,60.03121623,62c50e9c1127f2cd403a315f,,,,,,,,,,,,,,,,,,,,,,,,,,,,,,,,,,,,,,,,,,,,,,,,,,,,,,,,,,,,,,,,,,,,,,,,,,,,,,,,,,,,,,,,,,,,,,,,,,,,,,,,,,,,,,,,,,,,,,,,,,,,,,,,,,,,,,,,,,,,,,,,,,,,,,,,,,,,,,,,,,,
0,6,6,74,1,,60e9ea97d19e613e60a994da,62c53aad9cc59c4ecebc80f6,2022-07-06_09h34.11.786,Colour_Asymmetry_Pilot,2022.1.3,Win32,60.03121623,62c50e9c1127f2cd403a315f,,,,,,,,,,,,,,,,,,,,,,,,,,,,,,,,,,,,,,,,,,,,,,,,,,,,,,,,,,,,,,,,,,,,,,,,,,,,,,,,,,,,,,,,,,,,,,,,,,,,,,,,,,,,,,,,,,,,,,,,,,,,,,,,,,,,,,,,,,,,,,,,,,,,,,,,,,,,,,,,,,,
0,7,7,49,1,,60e9ea97d19e613e60a994da,62c53aad9cc59c4ecebc80f6,2022-07-06_09h34.11.786,Colour_Asymmetry_Pilot,2022.1.3,Win32,60.03121623,62c50e9c1127f2cd403a315f,,,,,,,,,,,,,,,,,,,,,,,,,,,,,,,,,,,,,,,,,,,,,,,,,,,,,,,,,,,,,,,,,,,,,,,,,,,,,,,,,,,,,,,,,,,,,,,,,,,,,,,,,,,,,,,,,,,,,,,,,,,,,,,,,,,,,,,,,,,,,,,,,,,,,,,,,,,,,,,,,,,
0,8,8,23,1,,60e9ea97d19e613e60a994da,62c53aad9cc59c4ecebc80f6,2022-07-06_09h34.11.786,Colour_Asymmetry_Pilot,2022.1.3,Win32,60.03121623,62c50e9c1127f2cd403a315f,,,,,,,,,,,,,,,,,,,,,,,,,,,,,,,,,,,,,,,,,,,,,,,,,,,,,,,,,,,,,,,,,,,,,,,,,,,,,,,,,,,,,,,,,,,,,,,,,,,,,,,,,,,,,,,,,,,,,,,,,,,,,,,,,,,,,,,,,,,,,,,,,,,,,,,,,,,,,,,,,,,
0,9,9,51,1,,60e9ea97d19e613e60a994da,62c53aad9cc59c4ecebc80f6,2022-07-06_09h34.11.786,Colour_Asymmetry_Pilot,2022.1.3,Win32,60.03121623,62c50e9c1127f2cd403a315f,,,,,,,,,,,,,,,,,,,,,,,,,,,,,,,,,,,,,,,,,,,,,,,,,,,,,,,,,,,,,,,,,,,,,,,,,,,,,,,,,,,,,,,,,,,,,,,,,,,,,,,,,,,,,,,,,,,,,,,,,,,,,,,,,,,,,,,,,,,,,,,,,,,,,,,,,,,,,,,,,,,
0,10,10,58,1,,60e9ea97d19e613e60a994da,62c53aad9cc59c4ecebc80f6,2022-07-06_09h34.11.786,Colour_Asymmetry_Pilot,2022.1.3,Win32,60.03121623,62c50e9c1127f2cd403a315f,,,,,,,,,,,,,,,,,,,,,,,,,,,,,,,,,,,,,,,,,,,,,,,,,,,,,,,,,,,,,,,,,,,,,,,,,,,,,,,,,,,,,,,,,,,,,,,,,,,,,,,,,,,,,,,,,,,,,,,,,,,,,,,,,,,,,,,,,,,,,,,,,,,,,,,,,,,,,,,,,,,
0,11,11,62,1,,60e9ea97d19e613e60a994da,62c53aad9cc59c4ecebc80f6,2022-07-06_09h34.11.786,Colour_Asymmetry_Pilot,2022.1.3,Win32,60.03121623,62c50e9c1127f2cd403a315f,,,,,,,,,,,,,,,,,,,,,,,,,,,,,,,,,,,,,,,,,,,,,,,,,,,,,,,,,,,,,,,,,,,,,,,,,,,,,,,,,,,,,,,,,,,,,,,,,,,,,,,,,,,,,,,,,,,,,,,,,,,,,,,,,,,,,,,,,,,,,,,,,,,,,,,,,,,,,,,,,,,
0,12,12,2,1,,60e9ea97d19e613e60a994da,62c53aad9cc59c4ecebc80f6,2022-07-06_09h34.11.786,Colour_Asymmetry_Pilot,2022.1.3,Win32,60.03121623,62c50e9c1127f2cd403a315f,,,,,,,,,,,,,,,,,,,,,,,,,,,,,,,,,,,,,,,,,,,,,,,,,,,,,,,,,,,,,,,,,,,,,,,,,,,,,,,,,,,,,,,,,,,,,,,,,,,,,,,,,,,,,,,,,,,,,,,,,,,,,,,,,,,,,,,,,,,,,,,,,,,,,,,,,,,,,,,,,,,
0,13,13,25,1,,60e9ea97d19e613e60a994da,62c53aad9cc59c4ecebc80f6,2022-07-06_09h34.11.786,Colour_Asymmetry_Pilot,2022.1.3,Win32,60.03121623,62c50e9c1127f2cd403a315f,,,,,,,,,,,,,,,,,,,,,,,,,,,,,,,,,,,,,,,,,,,,,,,,,,,,,,,,,,,,,,,,,,,,,,,,,,,,,,,,,,,,,,,,,,,,,,,,,,,,,,,,,,,,,,,,,,,,,,,,,,,,,,,,,,,,,,,,,,,,,,,,,,,,,,,,,,,,,,,,,,,
0,14,14,85,1,,60e9ea97d19e613e60a994da,62c53aad9cc59c4ecebc80f6,2022-07-06_09h34.11.786,Colour_Asymmetry_Pilot,2022.1.3,Win32,60.03121623,62c50e9c1127f2cd403a315f,,,,,,,,,,,,,,,,,,,,,,,,,,,,,,,,,,,,,,,,,,,,,,,,,,,,,,,,,,,,,,,,,,,,,,,,,,,,,,,,,,,,,,,,,,,,,,,,,,,,,,,,,,,,,,,,,,,,,,,,,,,,,,,,,,,,,,,,,,,,,,,,,,,,,,,,,,,,,,,,,,,
0,15,15,37,1,,60e9ea97d19e613e60a994da,62c53aad9cc59c4ecebc80f6,2022-07-06_09h34.11.786,Colour_Asymmetry_Pilot,2022.1.3,Win32,60.03121623,62c50e9c1127f2cd403a315f,,,,,,,,,,,,,,,,,,,,,,,,,,,,,,,,,,,,,,,,,,,,,,,,,,,,,,,,,,,,,,,,,,,,,,,,,,,,,,,,,,,,,,,,,,,,,,,,,,,,,,,,,,,,,,,,,,,,,,,,,,,,,,,,,,,,,,,,,,,,,,,,,,,,,,,,,,,,,,,,,,,
0,16,16,63,1,,60e9ea97d19e613e60a994da,62c53aad9cc59c4ecebc80f6,2022-07-06_09h34.11.786,Colour_Asymmetry_Pilot,2022.1.3,Win32,60.03121623,62c50e9c1127f2cd403a315f,,,,,,,,,,,,,,,,,,,,,,,,,,,,,,,,,,,,,,,,,,,,,,,,,,,,,,,,,,,,,,,,,,,,,,,,,,,,,,,,,,,,,,,,,,,,,,,,,,,,,,,,,,,,,,,,,,,,,,,,,,,,,,,,,,,,,,,,,,,,,,,,,,,,,,,,,,,,,,,,,,,
0,17,17,64,1,,60e9ea97d19e613e60a994da,62c53aad9cc59c4ecebc80f6,2022-07-06_09h34.11.786,Colour_Asymmetry_Pilot,2022.1.3,Win32,60.03121623,62c50e9c1127f2cd403a315f,,,,,,,,,,,,,,,,,,,,,,,,,,,,,,,,,,,,,,,,,,,,,,,,,,,,,,,,,,,,,,,,,,,,,,,,,,,,,,,,,,,,,,,,,,,,,,,,,,,,,,,,,,,,,,,,,,,,,,,,,,,,,,,,,,,,,,,,,,,,,,,,,,,,,,,,,,,,,,,,,,,
0,18,18,65,1,,60e9ea97d19e613e60a994da,62c53aad9cc59c4ecebc80f6,2022-07-06_09h34.11.786,Colour_Asymmetry_Pilot,2022.1.3,Win32,60.03121623,62c50e9c1127f2cd403a315f,,,,,,,,,,,,,,,,,,,,,,,,,,,,,,,,,,,,,,,,,,,,,,,,,,,,,,,,,,,,,,,,,,,,,,,,,,,,,,,,,,,,,,,,,,,,,,,,,,,,,,,,,,,,,,,,,,,,,,,,,,,,,,,,,,,,,,,,,,,,,,,,,,,,,,,,,,,,,,,,,,,
0,19,19,91,1,,60e9ea97d19e613e60a994da,62c53aad9cc59c4ecebc80f6,2022-07-06_09h34.11.786,Colour_Asymmetry_Pilot,2022.1.3,Win32,60.03121623,62c50e9c1127f2cd403a315f,,,,,,,,,,,,,,,,,,,,,,,,,,,,,,,,,,,,,,,,,,,,,,,,,,,,,,,,,,,,,,,,,,,,,,,,,,,,,,,,,,,,,,,,,,,,,,,,,,,,,,,,,,,,,,,,,,,,,,,,,,,,,,,,,,,,,,,,,,,,,,,,,,,,,,,,,,,,,,,,,,,
0,20,20,78,1,,60e9ea97d19e613e60a994da,62c53aad9cc59c4ecebc80f6,2022-07-06_09h34.11.786,Colour_Asymmetry_Pilot,2022.1.3,Win32,60.03121623,62c50e9c1127f2cd403a315f,,,,,,,,,,,,,,,,,,,,,,,,,,,,,,,,,,,,,,,,,,,,,,,,,,,,,,,,,,,,,,,,,,,,,,,,,,,,,,,,,,,,,,,,,,,,,,,,,,,,,,,,,,,,,,,,,,,,,,,,,,,,,,,,,,,,,,,,,,,,,,,,,,,,,,,,,,,,,,,,,,,
0,21,21,13,1,,60e9ea97d19e613e60a994da,62c53aad9cc59c4ecebc80f6,2022-07-06_09h34.11.786,Colour_Asymmetry_Pilot,2022.1.3,Win32,60.03121623,62c50e9c1127f2cd403a315f,,,,,,,,,,,,,,,,,,,,,,,,,,,,,,,,,,,,,,,,,,,,,,,,,,,,,,,,,,,,,,,,,,,,,,,,,,,,,,,,,,,,,,,,,,,,,,,,,,,,,,,,,,,,,,,,,,,,,,,,,,,,,,,,,,,,,,,,,,,,,,,,,,,,,,,,,,,,,,,,,,,
0,22,22,69,1,,60e9ea97d19e613e60a994da,62c53aad9cc59c4ecebc80f6,2022-07-06_09h34.11.786,Colour_Asymmetry_Pilot,2022.1.3,Win32,60.03121623,62c50e9c1127f2cd403a315f,,,,,,,,,,,,,,,,,,,,,,,,,,,,,,,,,,,,,,,,,,,,,,,,,,,,,,,,,,,,,,,,,,,,,,,,,,,,,,,,,,,,,,,,,,,,,,,,,,,,,,,,,,,,,,,,,,,,,,,,,,,,,,,,,,,,,,,,,,,,,,,,,,,,,,,,,,,,,,,,,,,
0,23,23,22,1,,60e9ea97d19e613e60a994da,62c53aad9cc59c4ecebc80f6,2022-07-06_09h34.11.786,Colour_Asymmetry_Pilot,2022.1.3,Win32,60.03121623,62c50e9c1127f2cd403a315f,,,,,,,,,,,,,,,,,,,,,,,,,,,,,,,,,,,,,,,,,,,,,,,,,,,,,,,,,,,,,,,,,,,,,,,,,,,,,,,,,,,,,,,,,,,,,,,,,,,,,,,,,,,,,,,,,,,,,,,,,,,,,,,,,,,,,,,,,,,,,,,,,,,,,,,,,,,,,,,,,,,
0,24,24,72,1,,60e9ea97d19e613e60a994da,62c53aad9cc59c4ecebc80f6,2022-07-06_09h34.11.786,Colour_Asymmetry_Pilot,2022.1.3,Win32,60.03121623,62c50e9c1127f2cd403a315f,,,,,,,,,,,,,,,,,,,,,,,,,,,,,,,,,,,,,,,,,,,,,,,,,,,,,,,,,,,,,,,,,,,,,,,,,,,,,,,,,,,,,,,,,,,,,,,,,,,,,,,,,,,,,,,,,,,,,,,,,,,,,,,,,,,,,,,,,,,,,,,,,,,,,,,,,,,,,,,,,,,
0,25,25,89,1,,60e9ea97d19e613e60a994da,62c53aad9cc59c4ecebc80f6,2022-07-06_09h34.11.786,Colour_Asymmetry_Pilot,2022.1.3,Win32,60.03121623,62c50e9c1127f2cd403a315f,,,,,,,,,,,,,,,,,,,,,,,,,,,,,,,,,,,,,,,,,,,,,,,,,,,,,,,,,,,,,,,,,,,,,,,,,,,,,,,,,,,,,,,,,,,,,,,,,,,,,,,,,,,,,,,,,,,,,,,,,,,,,,,,,,,,,,,,,,,,,,,,,,,,,,,,,,,,,,,,,,,
0,26,26,87,1,,60e9ea97d19e613e60a994da,62c53aad9cc59c4ecebc80f6,2022-07-06_09h34.11.786,Colour_Asymmetry_Pilot,2022.1.3,Win32,60.03121623,62c50e9c1127f2cd403a315f,,,,,,,,,,,,,,,,,,,,,,,,,,,,,,,,,,,,,,,,,,,,,,,,,,,,,,,,,,,,,,,,,,,,,,,,,,,,,,,,,,,,,,,,,,,,,,,,,,,,,,,,,,,,,,,,,,,,,,,,,,,,,,,,,,,,,,,,,,,,,,,,,,,,,,,,,,,,,,,,,,,
0,27,27,21,1,,60e9ea97d19e613e60a994da,62c53aad9cc59c4ecebc80f6,2022-07-06_09h34.11.786,Colour_Asymmetry_Pilot,2022.1.3,Win32,60.03121623,62c50e9c1127f2cd403a315f,,,,,,,,,,,,,,,,,,,,,,,,,,,,,,,,,,,,,,,,,,,,,,,,,,,,,,,,,,,,,,,,,,,,,,,,,,,,,,,,,,,,,,,,,,,,,,,,,,,,,,,,,,,,,,,,,,,,,,,,,,,,,,,,,,,,,,,,,,,,,,,,,,,,,,,,,,,,,,,,,,,
0,28,28,80,1,,60e9ea97d19e613e60a994da,62c53aad9cc59c4ecebc80f6,2022-07-06_09h34.11.786,Colour_Asymmetry_Pilot,2022.1.3,Win32,60.03121623,62c50e9c1127f2cd403a315f,,,,,,,,,,,,,,,,,,,,,,,,,,,,,,,,,,,,,,,,,,,,,,,,,,,,,,,,,,,,,,,,,,,,,,,,,,,,,,,,,,,,,,,,,,,,,,,,,,,,,,,,,,,,,,,,,,,,,,,,,,,,,,,,,,,,,,,,,,,,,,,,,,,,,,,,,,,,,,,,,,,
0,29,29,30,1,,60e9ea97d19e613e60a994da,62c53aad9cc59c4ecebc80f6,2022-07-06_09h34.11.786,Colour_Asymmetry_Pilot,2022.1.3,Win32,60.03121623,62c50e9c1127f2cd403a315f,,,,,,,,,,,,,,,,,,,,,,,,,,,,,,,,,,,,,,,,,,,,,,,,,,,,,,,,,,,,,,,,,,,,,,,,,,,,,,,,,,,,,,,,,,,,,,,,,,,,,,,,,,,,,,,,,,,,,,,,,,,,,,,,,,,,,,,,,,,,,,,,,,,,,,,,,,,,,,,,,,,
0,30,30,60,1,,60e9ea97d19e613e60a994da,62c53aad9cc59c4ecebc80f6,2022-07-06_09h34.11.786,Colour_Asymmetry_Pilot,2022.1.3,Win32,60.03121623,62c50e9c1127f2cd403a315f,,,,,,,,,,,,,,,,,,,,,,,,,,,,,,,,,,,,,,,,,,,,,,,,,,,,,,,,,,,,,,,,,,,,,,,,,,,,,,,,,,,,,,,,,,,,,,,,,,,,,,,,,,,,,,,,,,,,,,,,,,,,,,,,,,,,,,,,,,,,,,,,,,,,,,,,,,,,,,,,,,,
0,31,31,53,1,,60e9ea97d19e613e60a994da,62c53aad9cc59c4ecebc80f6,2022-07-06_09h34.11.786,Colour_Asymmetry_Pilot,2022.1.3,Win32,60.03121623,62c50e9c1127f2cd403a315f,,,,,,,,,,,,,,,,,,,,,,,,,,,,,,,,,,,,,,,,,,,,,,,,,,,,,,,,,,,,,,,,,,,,,,,,,,,,,,,,,,,,,,,,,,,,,,,,,,,,,,,,,,,,,,,,,,,,,,,,,,,,,,,,,,,,,,,,,,,,,,,,,,,,,,,,,,,,,,,,,,,
0,32,32,31,1,,60e9ea97d19e613e60a994da,62c53aad9cc59c4ecebc80f6,2022-07-06_09h34.11.786,Colour_Asymmetry_Pilot,2022.1.3,Win32,60.03121623,62c50e9c1127f2cd403a315f,,,,,,,,,,,,,,,,,,,,,,,,,,,,,,,,,,,,,,,,,,,,,,,,,,,,,,,,,,,,,,,,,,,,,,,,,,,,,,,,,,,,,,,,,,,,,,,,,,,,,,,,,,,,,,,,,,,,,,,,,,,,,,,,,,,,,,,,,,,,,,,,,,,,,,,,,,,,,,,,,,,
0,33,33,27,1,,60e9ea97d19e613e60a994da,62c53aad9cc59c4ecebc80f6,2022-07-06_09h34.11.786,Colour_Asymmetry_Pilot,2022.1.3,Win32,60.03121623,62c50e9c1127f2cd403a315f,,,,,,,,,,,,,,,,,,,,,,,,,,,,,,,,,,,,,,,,,,,,,,,,,,,,,,,,,,,,,,,,,,,,,,,,,,,,,,,,,,,,,,,,,,,,,,,,,,,,,,,,,,,,,,,,,,,,,,,,,,,,,,,,,,,,,,,,,,,,,,,,,,,,,,,,,,,,,,,,,,,
0,34,34,75,1,,60e9ea97d19e613e60a994da,62c53aad9cc59c4ecebc80f6,2022-07-06_09h34.11.786,Colour_Asymmetry_Pilot,2022.1.3,Win32,60.03121623,62c50e9c1127f2cd403a315f,,,,,,,,,,,,,,,,,,,,,,,,,,,,,,,,,,,,,,,,,,,,,,,,,,,,,,,,,,,,,,,,,,,,,,,,,,,,,,,,,,,,,,,,,,,,,,,,,,,,,,,,,,,,,,,,,,,,,,,,,,,,,,,,,,,,,,,,,,,,,,,,,,,,,,,,,,,,,,,,,,,
0,35,35,24,1,,60e9ea97d19e613e60a994da,62c53aad9cc59c4ecebc80f6,2022-07-06_09h34.11.786,Colour_Asymmetry_Pilot,2022.1.3,Win32,60.03121623,62c50e9c1127f2cd403a315f,,,,,,,,,,,,,,,,,,,,,,,,,,,,,,,,,,,,,,,,,,,,,,,,,,,,,,,,,,,,,,,,,,,,,,,,,,,,,,,,,,,,,,,,,,,,,,,,,,,,,,,,,,,,,,,,,,,,,,,,,,,,,,,,,,,,,,,,,,,,,,,,,,,,,,,,,,,,,,,,,,,
0,36,36,10,1,,60e9ea97d19e613e60a994da,62c53aad9cc59c4ecebc80f6,2022-07-06_09h34.11.786,Colour_Asymmetry_Pilot,2022.1.3,Win32,60.03121623,62c50e9c1127f2cd403a315f,,,,,,,,,,,,,,,,,,,,,,,,,,,,,,,,,,,,,,,,,,,,,,,,,,,,,,,,,,,,,,,,,,,,,,,,,,,,,,,,,,,,,,,,,,,,,,,,,,,,,,,,,,,,,,,,,,,,,,,,,,,,,,,,,,,,,,,,,,,,,,,,,,,,,,,,,,,,,,,,,,,
0,37,37,76,1,,60e9ea97d19e613e60a994da,62c53aad9cc59c4ecebc80f6,2022-07-06_09h34.11.786,Colour_Asymmetry_Pilot,2022.1.3,Win32,60.03121623,62c50e9c1127f2cd403a315f,,,,,,,,,,,,,,,,,,,,,,,,,,,,,,,,,,,,,,,,,,,,,,,,,,,,,,,,,,,,,,,,,,,,,,,,,,,,,,,,,,,,,,,,,,,,,,,,,,,,,,,,,,,,,,,,,,,,,,,,,,,,,,,,,,,,,,,,,,,,,,,,,,,,,,,,,,,,,,,,,,,
0,38,38,43,1,,60e9ea97d19e613e60a994da,62c53aad9cc59c4ecebc80f6,2022-07-06_09h34.11.786,Colour_Asymmetry_Pilot,2022.1.3,Win32,60.03121623,62c50e9c1127f2cd403a315f,,,,,,,,,,,,,,,,,,,,,,,,,,,,,,,,,,,,,,,,,,,,,,,,,,,,,,,,,,,,,,,,,,,,,,,,,,,,,,,,,,,,,,,,,,,,,,,,,,,,,,,,,,,,,,,,,,,,,,,,,,,,,,,,,,,,,,,,,,,,,,,,,,,,,,,,,,,,,,,,,,,
0,39,39,36,1,,60e9ea97d19e613e60a994da,62c53aad9cc59c4ecebc80f6,2022-07-06_09h34.11.786,Colour_Asymmetry_Pilot,2022.1.3,Win32,60.03121623,62c50e9c1127f2cd403a315f,,,,,,,,,,,,,,,,,,,,,,,,,,,,,,,,,,,,,,,,,,,,,,,,,,,,,,,,,,,,,,,,,,,,,,,,,,,,,,,,,,,,,,,,,,,,,,,,,,,,,,,,,,,,,,,,,,,,,,,,,,,,,,,,,,,,,,,,,,,,,,,,,,,,,,,,,,,,,,,,,,,
0,40,40,61,1,,60e9ea97d19e613e60a994da,62c53aad9cc59c4ecebc80f6,2022-07-06_09h34.11.786,Colour_Asymmetry_Pilot,2022.1.3,Win32,60.03121623,62c50e9c1127f2cd403a315f,,,,,,,,,,,,,,,,,,,,,,,,,,,,,,,,,,,,,,,,,,,,,,,,,,,,,,,,,,,,,,,,,,,,,,,,,,,,,,,,,,,,,,,,,,,,,,,,,,,,,,,,,,,,,,,,,,,,,,,,,,,,,,,,,,,,,,,,,,,,,,,,,,,,,,,,,,,,,,,,,,,
0,41,41,20,1,,60e9ea97d19e613e60a994da,62c53aad9cc59c4ecebc80f6,2022-07-06_09h34.11.786,Colour_Asymmetry_Pilot,2022.1.3,Win32,60.03121623,62c50e9c1127f2cd403a315f,,,,,,,,,,,,,,,,,,,,,,,,,,,,,,,,,,,,,,,,,,,,,,,,,,,,,,,,,,,,,,,,,,,,,,,,,,,,,,,,,,,,,,,,,,,,,,,,,,,,,,,,,,,,,,,,,,,,,,,,,,,,,,,,,,,,,,,,,,,,,,,,,,,,,,,,,,,,,,,,,,,
0,42,42,86,1,,60e9ea97d19e613e60a994da,62c53aad9cc59c4ecebc80f6,2022-07-06_09h34.11.786,Colour_Asymmetry_Pilot,2022.1.3,Win32,60.03121623,62c50e9c1127f2cd403a315f,,,,,,,,,,,,,,,,,,,,,,,,,,,,,,,,,,,,,,,,,,,,,,,,,,,,,,,,,,,,,,,,,,,,,,,,,,,,,,,,,,,,,,,,,,,,,,,,,,,,,,,,,,,,,,,,,,,,,,,,,,,,,,,,,,,,,,,,,,,,,,,,,,,,,,,,,,,,,,,,,,,
0,43,43,73,1,,60e9ea97d19e613e60a994da,62c53aad9cc59c4ecebc80f6,2022-07-06_09h34.11.786,Colour_Asymmetry_Pilot,2022.1.3,Win32,60.03121623,62c50e9c1127f2cd403a315f,,,,,,,,,,,,,,,,,,,,,,,,,,,,,,,,,,,,,,,,,,,,,,,,,,,,,,,,,,,,,,,,,,,,,,,,,,,,,,,,,,,,,,,,,,,,,,,,,,,,,,,,,,,,,,,,,,,,,,,,,,,,,,,,,,,,,,,,,,,,,,,,,,,,,,,,,,,,,,,,,,,
0,44,44,34,1,,60e9ea97d19e613e60a994da,62c53aad9cc59c4ecebc80f6,2022-07-06_09h34.11.786,Colour_Asymmetry_Pilot,2022.1.3,Win32,60.03121623,62c50e9c1127f2cd403a315f,,,,,,,,,,,,,,,,,,,,,,,,,,,,,,,,,,,,,,,,,,,,,,,,,,,,,,,,,,,,,,,,,,,,,,,,,,,,,,,,,,,,,,,,,,,,,,,,,,,,,,,,,,,,,,,,,,,,,,,,,,,,,,,,,,,,,,,,,,,,,,,,,,,,,,,,,,,,,,,,,,,
0,45,45,45,1,,60e9ea97d19e613e60a994da,62c53aad9cc59c4ecebc80f6,2022-07-06_09h34.11.786,Colour_Asymmetry_Pilot,2022.1.3,Win32,60.03121623,62c50e9c1127f2cd403a315f,,,,,,,,,,,,,,,,,,,,,,,,,,,,,,,,,,,,,,,,,,,,,,,,,,,,,,,,,,,,,,,,,,,,,,,,,,,,,,,,,,,,,,,,,,,,,,,,,,,,,,,,,,,,,,,,,,,,,,,,,,,,,,,,,,,,,,,,,,,,,,,,,,,,,,,,,,,,,,,,,,,
0,46,46,12,1,,60e9ea97d19e613e60a994da,62c53aad9cc59c4ecebc80f6,2022-07-06_09h34.11.786,Colour_Asymmetry_Pilot,2022.1.3,Win32,60.03121623,62c50e9c1127f2cd403a315f,,,,,,,,,,,,,,,,,,,,,,,,,,,,,,,,,,,,,,,,,,,,,,,,,,,,,,,,,,,,,,,,,,,,,,,,,,,,,,,,,,,,,,,,,,,,,,,,,,,,,,,,,,,,,,,,,,,,,,,,,,,,,,,,,,,,,,,,,,,,,,,,,,,,,,,,,,,,,,,,,,,
0,47,47,44,1,,60e9ea97d19e613e60a994da,62c53aad9cc59c4ecebc80f6,2022-07-06_09h34.11.786,Colour_Asymmetry_Pilot,2022.1.3,Win32,60.03121623,62c50e9c1127f2cd403a315f,,,,,,,,,,,,,,,,,,,,,,,,,,,,,,,,,,,,,,,,,,,,,,,,,,,,,,,,,,,,,,,,,,,,,,,,,,,,,,,,,,,,,,,,,,,,,,,,,,,,,,,,,,,,,,,,,,,,,,,,,,,,,,,,,,,,,,,,,,,,,,,,,,,,,,,,,,,,,,,,,,,
0,48,48,16,1,,60e9ea97d19e613e60a994da,62c53aad9cc59c4ecebc80f6,2022-07-06_09h34.11.786,Colour_Asymmetry_Pilot,2022.1.3,Win32,60.03121623,62c50e9c1127f2cd403a315f,,,,,,,,,,,,,,,,,,,,,,,,,,,,,,,,,,,,,,,,,,,,,,,,,,,,,,,,,,,,,,,,,,,,,,,,,,,,,,,,,,,,,,,,,,,,,,,,,,,,,,,,,,,,,,,,,,,,,,,,,,,,,,,,,,,,,,,,,,,,,,,,,,,,,,,,,,,,,,,,,,,
0,49,49,82,1,,60e9ea97d19e613e60a994da,62c53aad9cc59c4ecebc80f6,2022-07-06_09h34.11.786,Colour_Asymmetry_Pilot,2022.1.3,Win32,60.03121623,62c50e9c1127f2cd403a315f,,,,,,,,,,,,,,,,,,,,,,,,,,,,,,,,,,,,,,,,,,,,,,,,,,,,,,,,,,,,,,,,,,,,,,,,,,,,,,,,,,,,,,,,,,,,,,,,,,,,,,,,,,,,,,,,,,,,,,,,,,,,,,,,,,,,,,,,,,,,,,,,,,,,,,,,,,,,,,,,,,,
0,50,50,0,1,,60e9ea97d19e613e60a994da,62c53aad9cc59c4ecebc80f6,2022-07-06_09h34.11.786,Colour_Asymmetry_Pilot,2022.1.3,Win32,60.03121623,62c50e9c1127f2cd403a315f,,,,,,,,,,,,,,,,,,,,,,,,,,,,,,,,,,,,,,,,,,,,,,,,,,,,,,,,,,,,,,,,,,,,,,,,,,,,,,,,,,,,,,,,,,,,,,,,,,,,,,,,,,,,,,,,,,,,,,,,,,,,,,,,,,,,,,,,,,,,,,,,,,,,,,,,,,,,,,,,,,,
0,51,51,32,1,,60e9ea97d19e613e60a994da,62c53aad9cc59c4ecebc80f6,2022-07-06_09h34.11.786,Colour_Asymmetry_Pilot,2022.1.3,Win32,60.03121623,62c50e9c1127f2cd403a315f,,,,,,,,,,,,,,,,,,,,,,,,,,,,,,,,,,,,,,,,,,,,,,,,,,,,,,,,,,,,,,,,,,,,,,,,,,,,,,,,,,,,,,,,,,,,,,,,,,,,,,,,,,,,,,,,,,,,,,,,,,,,,,,,,,,,,,,,,,,,,,,,,,,,,,,,,,,,,,,,,,,
0,52,52,42,1,,60e9ea97d19e613e60a994da,62c53aad9cc59c4ecebc80f6,2022-07-06_09h34.11.786,Colour_Asymmetry_Pilot,2022.1.3,Win32,60.03121623,62c50e9c1127f2cd403a315f,,,,,,,,,,,,,,,,,,,,,,,,,,,,,,,,,,,,,,,,,,,,,,,,,,,,,,,,,,,,,,,,,,,,,,,,,,,,,,,,,,,,,,,,,,,,,,,,,,,,,,,,,,,,,,,,,,,,,,,,,,,,,,,,,,,,,,,,,,,,,,,,,,,,,,,,,,,,,,,,,,,
0,53,53,84,1,,60e9ea97d19e613e60a994da,62c53aad9cc59c4ecebc80f6,2022-07-06_09h34.11.786,Colour_Asymmetry_Pilot,2022.1.3,Win32,60.03121623,62c50e9c1127f2cd403a315f,,,,,,,,,,,,,,,,,,,,,,,,,,,,,,,,,,,,,,,,,,,,,,,,,,,,,,,,,,,,,,,,,,,,,,,,,,,,,,,,,,,,,,,,,,,,,,,,,,,,,,,,,,,,,,,,,,,,,,,,,,,,,,,,,,,,,,,,,,,,,,,,,,,,,,,,,,,,,,,,,,,
0,54,54,59,1,,60e9ea97d19e613e60a994da,62c53aad9cc59c4ecebc80f6,2022-07-06_09h34.11.786,Colour_Asymmetry_Pilot,2022.1.3,Win32,60.03121623,62c50e9c1127f2cd403a315f,,,,,,,,,,,,,,,,,,,,,,,,,,,,,,,,,,,,,,,,,,,,,,,,,,,,,,,,,,,,,,,,,,,,,,,,,,,,,,,,,,,,,,,,,,,,,,,,,,,,,,,,,,,,,,,,,,,,,,,,,,,,,,,,,,,,,,,,,,,,,,,,,,,,,,,,,,,,,,,,,,,
0,55,55,17,1,,60e9ea97d19e613e60a994da,62c53aad9cc59c4ecebc80f6,2022-07-06_09h34.11.786,Colour_Asymmetry_Pilot,2022.1.3,Win32,60.03121623,62c50e9c1127f2cd403a315f,,,,,,,,,,,,,,,,,,,,,,,,,,,,,,,,,,,,,,,,,,,,,,,,,,,,,,,,,,,,,,,,,,,,,,,,,,,,,,,,,,,,,,,,,,,,,,,,,,,,,,,,,,,,,,,,,,,,,,,,,,,,,,,,,,,,,,,,,,,,,,,,,,,,,,,,,,,,,,,,,,,
0,56,56,56,1,,60e9ea97d19e613e60a994da,62c53aad9cc59c4ecebc80f6,2022-07-06_09h34.11.786,Colour_Asymmetry_Pilot,2022.1.3,Win32,60.03121623,62c50e9c1127f2cd403a315f,,,,,,,,,,,,,,,,,,,,,,,,,,,,,,,,,,,,,,,,,,,,,,,,,,,,,,,,,,,,,,,,,,,,,,,,,,,,,,,,,,,,,,,,,,,,,,,,,,,,,,,,,,,,,,,,,,,,,,,,,,,,,,,,,,,,,,,,,,,,,,,,,,,,,,,,,,,,,,,,,,,
0,57,57,90,1,,60e9ea97d19e613e60a994da,62c53aad9cc59c4ecebc80f6,2022-07-06_09h34.11.786,Colour_Asymmetry_Pilot,2022.1.3,Win32,60.03121623,62c50e9c1127f2cd403a315f,,,,,,,,,,,,,,,,,,,,,,,,,,,,,,,,,,,,,,,,,,,,,,,,,,,,,,,,,,,,,,,,,,,,,,,,,,,,,,,,,,,,,,,,,,,,,,,,,,,,,,,,,,,,,,,,,,,,,,,,,,,,,,,,,,,,,,,,,,,,,,,,,,,,,,,,,,,,,,,,,,,
0,58,58,71,1,,60e9ea97d19e613e60a994da,62c53aad9cc59c4ecebc80f6,2022-07-06_09h34.11.786,Colour_Asymmetry_Pilot,2022.1.3,Win32,60.03121623,62c50e9c1127f2cd403a315f,,,,,,,,,,,,,,,,,,,,,,,,,,,,,,,,,,,,,,,,,,,,,,,,,,,,,,,,,,,,,,,,,,,,,,,,,,,,,,,,,,,,,,,,,,,,,,,,,,,,,,,,,,,,,,,,,,,,,,,,,,,,,,,,,,,,,,,,,,,,,,,,,,,,,,,,,,,,,,,,,,,
0,59,59,79,1,,60e9ea97d19e613e60a994da,62c53aad9cc59c4ecebc80f6,2022-07-06_09h34.11.786,Colour_Asymmetry_Pilot,2022.1.3,Win32,60.03121623,62c50e9c1127f2cd403a315f,,,,,,,,,,,,,,,,,,,,,,,,,,,,,,,,,,,,,,,,,,,,,,,,,,,,,,,,,,,,,,,,,,,,,,,,,,,,,,,,,,,,,,,,,,,,,,,,,,,,,,,,,,,,,,,,,,,,,,,,,,,,,,,,,,,,,,,,,,,,,,,,,,,,,,,,,,,,,,,,,,,
0,60,60,6,1,,60e9ea97d19e613e60a994da,62c53aad9cc59c4ecebc80f6,2022-07-06_09h34.11.786,Colour_Asymmetry_Pilot,2022.1.3,Win32,60.03121623,62c50e9c1127f2cd403a315f,,,,,,,,,,,,,,,,,,,,,,,,,,,,,,,,,,,,,,,,,,,,,,,,,,,,,,,,,,,,,,,,,,,,,,,,,,,,,,,,,,,,,,,,,,,,,,,,,,,,,,,,,,,,,,,,,,,,,,,,,,,,,,,,,,,,,,,,,,,,,,,,,,,,,,,,,,,,,,,,,,,
0,61,61,50,1,,60e9ea97d19e613e60a994da,62c53aad9cc59c4ecebc80f6,2022-07-06_09h34.11.786,Colour_Asymmetry_Pilot,2022.1.3,Win32,60.03121623,62c50e9c1127f2cd403a315f,,,,,,,,,,,,,,,,,,,,,,,,,,,,,,,,,,,,,,,,,,,,,,,,,,,,,,,,,,,,,,,,,,,,,,,,,,,,,,,,,,,,,,,,,,,,,,,,,,,,,,,,,,,,,,,,,,,,,,,,,,,,,,,,,,,,,,,,,,,,,,,,,,,,,,,,,,,,,,,,,,,
0,62,62,38,1,,60e9ea97d19e613e60a994da,62c53aad9cc59c4ecebc80f6,2022-07-06_09h34.11.786,Colour_Asymmetry_Pilot,2022.1.3,Win32,60.03121623,62c50e9c1127f2cd403a315f,,,,,,,,,,,,,,,,,,,,,,,,,,,,,,,,,,,,,,,,,,,,,,,,,,,,,,,,,,,,,,,,,,,,,,,,,,,,,,,,,,,,,,,,,,,,,,,,,,,,,,,,,,,,,,,,,,,,,,,,,,,,,,,,,,,,,,,,,,,,,,,,,,,,,,,,,,,,,,,,,,,
0,63,63,54,1,,60e9ea97d19e613e60a994da,62c53aad9cc59c4ecebc80f6,2022-07-06_09h34.11.786,Colour_Asymmetry_Pilot,2022.1.3,Win32,60.03121623,62c50e9c1127f2cd403a315f,,,,,,,,,,,,,,,,,,,,,,,,,,,,,,,,,,,,,,,,,,,,,,,,,,,,,,,,,,,,,,,,,,,,,,,,,,,,,,,,,,,,,,,,,,,,,,,,,,,,,,,,,,,,,,,,,,,,,,,,,,,,,,,,,,,,,,,,,,,,,,,,,,,,,,,,,,,,,,,,,,,
0,64,64,46,1,,60e9ea97d19e613e60a994da,62c53aad9cc59c4ecebc80f6,2022-07-06_09h34.11.786,Colour_Asymmetry_Pilot,2022.1.3,Win32,60.03121623,62c50e9c1127f2cd403a315f,,,,,,,,,,,,,,,,,,,,,,,,,,,,,,,,,,,,,,,,,,,,,,,,,,,,,,,,,,,,,,,,,,,,,,,,,,,,,,,,,,,,,,,,,,,,,,,,,,,,,,,,,,,,,,,,,,,,,,,,,,,,,,,,,,,,,,,,,,,,,,,,,,,,,,,,,,,,,,,,,,,
0,65,65,15,1,,60e9ea97d19e613e60a994da,62c53aad9cc59c4ecebc80f6,2022-07-06_09h34.11.786,Colour_Asymmetry_Pilot,2022.1.3,Win32,60.03121623,62c50e9c1127f2cd403a315f,,,,,,,,,,,,,,,,,,,,,,,,,,,,,,,,,,,,,,,,,,,,,,,,,,,,,,,,,,,,,,,,,,,,,,,,,,,,,,,,,,,,,,,,,,,,,,,,,,,,,,,,,,,,,,,,,,,,,,,,,,,,,,,,,,,,,,,,,,,,,,,,,,,,,,,,,,,,,,,,,,,
0,66,66,29,1,,60e9ea97d19e613e60a994da,62c53aad9cc59c4ecebc80f6,2022-07-06_09h34.11.786,Colour_Asymmetry_Pilot,2022.1.3,Win32,60.03121623,62c50e9c1127f2cd403a315f,,,,,,,,,,,,,,,,,,,,,,,,,,,,,,,,,,,,,,,,,,,,,,,,,,,,,,,,,,,,,,,,,,,,,,,,,,,,,,,,,,,,,,,,,,,,,,,,,,,,,,,,,,,,,,,,,,,,,,,,,,,,,,,,,,,,,,,,,,,,,,,,,,,,,,,,,,,,,,,,,,,
0,67,67,55,1,,60e9ea97d19e613e60a994da,62c53aad9cc59c4ecebc80f6,2022-07-06_09h34.11.786,Colour_Asymmetry_Pilot,2022.1.3,Win32,60.03121623,62c50e9c1127f2cd403a315f,,,,,,,,,,,,,,,,,,,,,,,,,,,,,,,,,,,,,,,,,,,,,,,,,,,,,,,,,,,,,,,,,,,,,,,,,,,,,,,,,,,,,,,,,,,,,,,,,,,,,,,,,,,,,,,,,,,,,,,,,,,,,,,,,,,,,,,,,,,,,,,,,,,,,,,,,,,,,,,,,,,
0,68,68,40,1,,60e9ea97d19e613e60a994da,62c53aad9cc59c4ecebc80f6,2022-07-06_09h34.11.786,Colour_Asymmetry_Pilot,2022.1.3,Win32,60.03121623,62c50e9c1127f2cd403a315f,,,,,,,,,,,,,,,,,,,,,,,,,,,,,,,,,,,,,,,,,,,,,,,,,,,,,,,,,,,,,,,,,,,,,,,,,,,,,,,,,,,,,,,,,,,,,,,,,,,,,,,,,,,,,,,,,,,,,,,,,,,,,,,,,,,,,,,,,,,,,,,,,,,,,,,,,,,,,,,,,,,
0,69,69,4,1,,60e9ea97d19e613e60a994da,62c53aad9cc59c4ecebc80f6,2022-07-06_09h34.11.786,Colour_Asymmetry_Pilot,2022.1.3,Win32,60.03121623,62c50e9c1127f2cd403a315f,,,,,,,,,,,,,,,,,,,,,,,,,,,,,,,,,,,,,,,,,,,,,,,,,,,,,,,,,,,,,,,,,,,,,,,,,,,,,,,,,,,,,,,,,,,,,,,,,,,,,,,,,,,,,,,,,,,,,,,,,,,,,,,,,,,,,,,,,,,,,,,,,,,,,,,,,,,,,,,,,,,
0,70,70,3,1,,60e9ea97d19e613e60a994da,62c53aad9cc59c4ecebc80f6,2022-07-06_09h34.11.786,Colour_Asymmetry_Pilot,2022.1.3,Win32,60.03121623,62c50e9c1127f2cd403a315f,,,,,,,,,,,,,,,,,,,,,,,,,,,,,,,,,,,,,,,,,,,,,,,,,,,,,,,,,,,,,,,,,,,,,,,,,,,,,,,,,,,,,,,,,,,,,,,,,,,,,,,,,,,,,,,,,,,,,,,,,,,,,,,,,,,,,,,,,,,,,,,,,,,,,,,,,,,,,,,,,,,
0,71,71,5,1,,60e9ea97d19e613e60a994da,62c53aad9cc59c4ecebc80f6,2022-07-06_09h34.11.786,Colour_Asymmetry_Pilot,2022.1.3,Win32,60.03121623,62c50e9c1127f2cd403a315f,,,,,,,,,,,,,,,,,,,,,,,,,,,,,,,,,,,,,,,,,,,,,,,,,,,,,,,,,,,,,,,,,,,,,,,,,,,,,,,,,,,,,,,,,,,,,,,,,,,,,,,,,,,,,,,,,,,,,,,,,,,,,,,,,,,,,,,,,,,,,,,,,,,,,,,,,,,,,,,,,,,
0,72,72,7,1,,60e9ea97d19e613e60a994da,62c53aad9cc59c4ecebc80f6,2022-07-06_09h34.11.786,Colour_Asymmetry_Pilot,2022.1.3,Win32,60.03121623,62c50e9c1127f2cd403a315f,,,,,,,,,,,,,,,,,,,,,,,,,,,,,,,,,,,,,,,,,,,,,,,,,,,,,,,,,,,,,,,,,,,,,,,,,,,,,,,,,,,,,,,,,,,,,,,,,,,,,,,,,,,,,,,,,,,,,,,,,,,,,,,,,,,,,,,,,,,,,,,,,,,,,,,,,,,,,,,,,,,
0,73,73,33,1,,60e9ea97d19e613e60a994da,62c53aad9cc59c4ecebc80f6,2022-07-06_09h34.11.786,Colour_Asymmetry_Pilot,2022.1.3,Win32,60.03121623,62c50e9c1127f2cd403a315f,,,,,,,,,,,,,,,,,,,,,,,,,,,,,,,,,,,,,,,,,,,,,,,,,,,,,,,,,,,,,,,,,,,,,,,,,,,,,,,,,,,,,,,,,,,,,,,,,,,,,,,,,,,,,,,,,,,,,,,,,,,,,,,,,,,,,,,,,,,,,,,,,,,,,,,,,,,,,,,,,,,
0,74,74,18,1,,60e9ea97d19e613e60a994da,62c53aad9cc59c4ecebc80f6,2022-07-06_09h34.11.786,Colour_Asymmetry_Pilot,2022.1.3,Win32,60.03121623,62c50e9c1127f2cd403a315f,,,,,,,,,,,,,,,,,,,,,,,,,,,,,,,,,,,,,,,,,,,,,,,,,,,,,,,,,,,,,,,,,,,,,,,,,,,,,,,,,,,,,,,,,,,,,,,,,,,,,,,,,,,,,,,,,,,,,,,,,,,,,,,,,,,,,,,,,,,,,,,,,,,,,,,,,,,,,,,,,,,
0,75,75,57,1,,60e9ea97d19e613e60a994da,62c53aad9cc59c4ecebc80f6,2022-07-06_09h34.11.786,Colour_Asymmetry_Pilot,2022.1.3,Win32,60.03121623,62c50e9c1127f2cd403a315f,,,,,,,,,,,,,,,,,,,,,,,,,,,,,,,,,,,,,,,,,,,,,,,,,,,,,,,,,,,,,,,,,,,,,,,,,,,,,,,,,,,,,,,,,,,,,,,,,,,,,,,,,,,,,,,,,,,,,,,,,,,,,,,,,,,,,,,,,,,,,,,,,,,,,,,,,,,,,,,,,,,
0,76,76,11,1,,60e9ea97d19e613e60a994da,62c53aad9cc59c4ecebc80f6,2022-07-06_09h34.11.786,Colour_Asymmetry_Pilot,2022.1.3,Win32,60.03121623,62c50e9c1127f2cd403a315f,,,,,,,,,,,,,,,,,,,,,,,,,,,,,,,,,,,,,,,,,,,,,,,,,,,,,,,,,,,,,,,,,,,,,,,,,,,,,,,,,,,,,,,,,,,,,,,,,,,,,,,,,,,,,,,,,,,,,,,,,,,,,,,,,,,,,,,,,,,,,,,,,,,,,,,,,,,,,,,,,,,
0,77,77,52,1,,60e9ea97d19e613e60a994da,62c53aad9cc59c4ecebc80f6,2022-07-06_09h34.11.786,Colour_Asymmetry_Pilot,2022.1.3,Win32,60.03121623,62c50e9c1127f2cd403a315f,,,,,,,,,,,,,,,,,,,,,,,,,,,,,,,,,,,,,,,,,,,,,,,,,,,,,,,,,,,,,,,,,,,,,,,,,,,,,,,,,,,,,,,,,,,,,,,,,,,,,,,,,,,,,,,,,,,,,,,,,,,,,,,,,,,,,,,,,,,,,,,,,,,,,,,,,,,,,,,,,,,
0,78,78,9,1,,60e9ea97d19e613e60a994da,62c53aad9cc59c4ecebc80f6,2022-07-06_09h34.11.786,Colour_Asymmetry_Pilot,2022.1.3,Win32,60.03121623,62c50e9c1127f2cd403a315f,,,,,,,,,,,,,,,,,,,,,,,,,,,,,,,,,,,,,,,,,,,,,,,,,,,,,,,,,,,,,,,,,,,,,,,,,,,,,,,,,,,,,,,,,,,,,,,,,,,,,,,,,,,,,,,,,,,,,,,,,,,,,,,,,,,,,,,,,,,,,,,,,,,,,,,,,,,,,,,,,,,
0,79,79,1,1,,60e9ea97d19e613e60a994da,62c53aad9cc59c4ecebc80f6,2022-07-06_09h34.11.786,Colour_Asymmetry_Pilot,2022.1.3,Win32,60.03121623,62c50e9c1127f2cd403a315f,,,,,,,,,,,,,,,,,,,,,,,,,,,,,,,,,,,,,,,,,,,,,,,,,,,,,,,,,,,,,,,,,,,,,,,,,,,,,,,,,,,,,,,,,,,,,,,,,,,,,,,,,,,,,,,,,,,,,,,,,,,,,,,,,,,,,,,,,,,,,,,,,,,,,,,,,,,,,,,,,,,
0,80,80,70,1,,60e9ea97d19e613e60a994da,62c53aad9cc59c4ecebc80f6,2022-07-06_09h34.11.786,Colour_Asymmetry_Pilot,2022.1.3,Win32,60.03121623,62c50e9c1127f2cd403a315f,,,,,,,,,,,,,,,,,,,,,,,,,,,,,,,,,,,,,,,,,,,,,,,,,,,,,,,,,,,,,,,,,,,,,,,,,,,,,,,,,,,,,,,,,,,,,,,,,,,,,,,,,,,,,,,,,,,,,,,,,,,,,,,,,,,,,,,,,,,,,,,,,,,,,,,,,,,,,,,,,,,
0,81,81,41,1,,60e9ea97d19e613e60a994da,62c53aad9cc59c4ecebc80f6,2022-07-06_09h34.11.786,Colour_Asymmetry_Pilot,2022.1.3,Win32,60.03121623,62c50e9c1127f2cd403a315f,,,,,,,,,,,,,,,,,,,,,,,,,,,,,,,,,,,,,,,,,,,,,,,,,,,,,,,,,,,,,,,,,,,,,,,,,,,,,,,,,,,,,,,,,,,,,,,,,,,,,,,,,,,,,,,,,,,,,,,,,,,,,,,,,,,,,,,,,,,,,,,,,,,,,,,,,,,,,,,,,,,
0,82,82,35,1,,60e9ea97d19e613e60a994da,62c53aad9cc59c4ecebc80f6,2022-07-06_09h34.11.786,Colour_Asymmetry_Pilot,2022.1.3,Win32,60.03121623,62c50e9c1127f2cd403a315f,,,,,,,,,,,,,,,,,,,,,,,,,,,,,,,,,,,,,,,,,,,,,,,,,,,,,,,,,,,,,,,,,,,,,,,,,,,,,,,,,,,,,,,,,,,,,,,,,,,,,,,,,,,,,,,,,,,,,,,,,,,,,,,,,,,,,,,,,,,,,,,,,,,,,,,,,,,,,,,,,,,
0,83,83,19,1,,60e9ea97d19e613e60a994da,62c53aad9cc59c4ecebc80f6,2022-07-06_09h34.11.786,Colour_Asymmetry_Pilot,2022.1.3,Win32,60.03121623,62c50e9c1127f2cd403a315f,,,,,,,,,,,,,,,,,,,,,,,,,,,,,,,,,,,,,,,,,,,,,,,,,,,,,,,,,,,,,,,,,,,,,,,,,,,,,,,,,,,,,,,,,,,,,,,,,,,,,,,,,,,,,,,,,,,,,,,,,,,,,,,,,,,,,,,,,,,,,,,,,,,,,,,,,,,,,,,,,,,
0,84,84,14,1,,60e9ea97d19e613e60a994da,62c53aad9cc59c4ecebc80f6,2022-07-06_09h34.11.786,Colour_Asymmetry_Pilot,2022.1.3,Win32,60.03121623,62c50e9c1127f2cd403a315f,,,,,,,,,,,,,,,,,,,,,,,,,,,,,,,,,,,,,,,,,,,,,,,,,,,,,,,,,,,,,,,,,,,,,,,,,,,,,,,,,,,,,,,,,,,,,,,,,,,,,,,,,,,,,,,,,,,,,,,,,,,,,,,,,,,,,,,,,,,,,,,,,,,,,,,,,,,,,,,,,,,
0,85,85,88,1,,60e9ea97d19e613e60a994da,62c53aad9cc59c4ecebc80f6,2022-07-06_09h34.11.786,Colour_Asymmetry_Pilot,2022.1.3,Win32,60.03121623,62c50e9c1127f2cd403a315f,,,,,,,,,,,,,,,,,,,,,,,,,,,,,,,,,,,,,,,,,,,,,,,,,,,,,,,,,,,,,,,,,,,,,,,,,,,,,,,,,,,,,,,,,,,,,,,,,,,,,,,,,,,,,,,,,,,,,,,,,,,,,,,,,,,,,,,,,,,,,,,,,,,,,,,,,,,,,,,,,,,
0,86,86,28,1,,60e9ea97d19e613e60a994da,62c53aad9cc59c4ecebc80f6,2022-07-06_09h34.11.786,Colour_Asymmetry_Pilot,2022.1.3,Win32,60.03121623,62c50e9c1127f2cd403a315f,,,,,,,,,,,,,,,,,,,,,,,,,,,,,,,,,,,,,,,,,,,,,,,,,,,,,,,,,,,,,,,,,,,,,,,,,,,,,,,,,,,,,,,,,,,,,,,,,,,,,,,,,,,,,,,,,,,,,,,,,,,,,,,,,,,,,,,,,,,,,,,,,,,,,,,,,,,,,,,,,,,
0,87,87,92,1,,60e9ea97d19e613e60a994da,62c53aad9cc59c4ecebc80f6,2022-07-06_09h34.11.786,Colour_Asymmetry_Pilot,2022.1.3,Win32,60.03121623,62c50e9c1127f2cd403a315f,,,,,,,,,,,,,,,,,,,,,,,,,,,,,,,,,,,,,,,,,,,,,,,,,,,,,,,,,,,,,,,,,,,,,,,,,,,,,,,,,,,,,,,,,,,,,,,,,,,,,,,,,,,,,,,,,,,,,,,,,,,,,,,,,,,,,,,,,,,,,,,,,,,,,,,,,,,,,,,,,,,
0,88,88,67,1,,60e9ea97d19e613e60a994da,62c53aad9cc59c4ecebc80f6,2022-07-06_09h34.11.786,Colour_Asymmetry_Pilot,2022.1.3,Win32,60.03121623,62c50e9c1127f2cd403a315f,,,,,,,,,,,,,,,,,,,,,,,,,,,,,,,,,,,,,,,,,,,,,,,,,,,,,,,,,,,,,,,,,,,,,,,,,,,,,,,,,,,,,,,,,,,,,,,,,,,,,,,,,,,,,,,,,,,,,,,,,,,,,,,,,,,,,,,,,,,,,,,,,,,,,,,,,,,,,,,,,,,
0,89,89,66,1,,60e9ea97d19e613e60a994da,62c53aad9cc59c4ecebc80f6,2022-07-06_09h34.11.786,Colour_Asymmetry_Pilot,2022.1.3,Win32,60.03121623,62c50e9c1127f2cd403a315f,,,,,,,,,,,,,,,,,,,,,,,,,,,,,,,,,,,,,,,,,,,,,,,,,,,,,,,,,,,,,,,,,,,,,,,,,,,,,,,,,,,,,,,,,,,,,,,,,,,,,,,,,,,,,,,,,,,,,,,,,,,,,,,,,,,,,,,,,,,,,,,,,,,,,,,,,,,,,,,,,,,
0,90,90,68,1,,60e9ea97d19e613e60a994da,62c53aad9cc59c4ecebc80f6,2022-07-06_09h34.11.786,Colour_Asymmetry_Pilot,2022.1.3,Win32,60.03121623,62c50e9c1127f2cd403a315f,,,,,,,,,,,,,,,,,,,,,,,,,,,,,,,,,,,,,,,,,,,,,,,,,,,,,,,,,,,,,,,,,,,,,,,,,,,,,,,,,,,,,,,,,,,,,,,,,,,,,,,,,,,,,,,,,,,,,,,,,,,,,,,,,,,,,,,,,,,,,,,,,,,,,,,,,,,,,,,,,,,
0,91,91,39,1,,60e9ea97d19e613e60a994da,62c53aad9cc59c4ecebc80f6,2022-07-06_09h34.11.786,Colour_Asymmetry_Pilot,2022.1.3,Win32,60.03121623,62c50e9c1127f2cd403a315f,,,,,,,,,,,,,,,,,,,,,,,,,,,,,,,,,,,,,,,,,,,,,,,,,,,,,,,,,,,,,,,,,,,,,,,,,,,,,,,,,,,,,,,,,,,,,,,,,,,,,,,,,,,,,,,,,,,,,,,,,,,,,,,,,,,,,,,,,,,,,,,,,,,,,,,,,,,,,,,,,,,
0,92,92,8,1,,60e9ea97d19e613e60a994da,62c53aad9cc59c4ecebc80f6,2022-07-06_09h34.11.786,Colour_Asymmetry_Pilot,2022.1.3,Win32,60.03121623,62c50e9c1127f2cd403a315f,,,,,,,,,,,,,,,,,,,,,,,,,,,,,,,,,,,,,,,,,,,,,,,,,,,,,,,,,,,,,,,,,,,,,,,,,,,,,,,,,,,,,,,,,,,,,,,,,,,,,,,,,,,,,,,,,,,,,,,,,,,,,,,,,,,,,,,,,,,,,,,,,,,,,,,,,,,,,,,,,,,
,,,,,,60e9ea97d19e613e60a994da,62c53aad9cc59c4ecebc80f6,2022-07-06_09h34.11.786,Colour_Asymmetry_Pilot,2022.1.3,Win32,60.03121623,62c50e9c1127f2cd403a315f,0,0,0,21,1,threefour,,,,,,,,,,,,,,,,,,,,,,,,,,,,,,,,,,,,,,,,,,,,,,,,,,,,,,,,,,,,,,,,,,,,,,,,,,,,,,,,,,,,,,,,,,,,,,,,,,,,,,,,,,,,,,,,,,,,,,,,,,,,,,,,,,,,,,,,,,,,,,,,,,,,,,,,,,,,,
,,,,,,60e9ea97d19e613e60a994da,62c53aad9cc59c4ecebc80f6,2022-07-06_09h34.11.786,Colour_Asymmetry_Pilot,2022.1.3,Win32,60.03121623,62c50e9c1127f2cd403a315f,0,1,1,119,1,fourthree,,,,,,,,,,,,,,,,,,,,,,,,,,,,,,,,,,,,,,,,,,,,,,,,,,,,,,,,,,,,,,,,,,,,,,,,,,,,,,,,,,,,,,,,,,,,,,,,,,,,,,,,,,,,,,,,,,,,,,,,,,,,,,,,,,,,,,,,,,,,,,,,,,,,,,,,,,,,,
,,,,,,60e9ea97d19e613e60a994da,62c53aad9cc59c4ecebc80f6,2022-07-06_09h34.11.786,Colour_Asymmetry_Pilot,2022.1.3,Win32,60.03121623,62c50e9c1127f2cd403a315f,0,2,2,161,1,onethree,,,,,,,,,,,,,,,,,,,,,,,,,,,,,,,,,,,,,,,,,,,,,,,,,,,,,,,,,,,,,,,,,,,,,,,,,,,,,,,,,,,,,,,,,,,,,,,,,,,,,,,,,,,,,,,,,,,,,,,,,,,,,,,,,,,,,,,,,,,,,,,,,,,,,,,,,,,,,
,,,,,,60e9ea97d19e613e60a994da,62c53aad9cc59c4ecebc80f6,2022-07-06_09h34.11.786,Colour_Asymmetry_Pilot,2022.1.3,Win32,60.03121623,62c50e9c1127f2cd403a315f,0,3,3,127,1,fourthree,,,,,,,,,,,,,,,,,,,,,,,,,,,,,,,,,,,,,,,,,,,,,,,,,,,,,,,,,,,,,,,,,,,,,,,,,,,,,,,,,,,,,,,,,,,,,,,,,,,,,,,,,,,,,,,,,,,,,,,,,,,,,,,,,,,,,,,,,,,,,,,,,,,,,,,,,,,,,
,,,,,,60e9ea97d19e613e60a994da,62c53aad9cc59c4ecebc80f6,2022-07-06_09h34.11.786,Colour_Asymmetry_Pilot,2022.1.3,Win32,60.03121623,62c50e9c1127f2cd403a315f,0,4,4,125,1,threefour,,,,,,,,,,,,,,,,,,,,,,,,,,,,,,,,,,,,,,,,,,,,,,,,,,,,,,,,,,,,,,,,,,,,,,,,,,,,,,,,,,,,,,,,,,,,,,,,,,,,,,,,,,,,,,,,,,,,,,,,,,,,,,,,,,,,,,,,,,,,,,,,,,,,,,,,,,,,,
,,,,,,60e9ea97d19e613e60a994da,62c53aad9cc59c4ecebc80f6,2022-07-06_09h34.11.786,Colour_Asymmetry_Pilot,2022.1.3,Win32,60.03121623,62c50e9c1127f2cd403a315f,0,5,5,124,1,threeone,,,,,,,,,,,,,,,,,,,,,,,,,,,,,,,,,,,,,,,,,,,,,,,,,,,,,,,,,,,,,,,,,,,,,,,,,,,,,,,,,,,,,,,,,,,,,,,,,,,,,,,,,,,,,,,,,,,,,,,,,,,,,,,,,,,,,,,,,,,,,,,,,,,,,,,,,,,,,
,,,,,,60e9ea97d19e613e60a994da,62c53aad9cc59c4ecebc80f6,2022-07-06_09h34.11.786,Colour_Asymmetry_Pilot,2022.1.3,Win32,60.03121623,62c50e9c1127f2cd403a315f,0,6,6,10,1,twoone,,,,,,,,,,,,,,,,,,,,,,,,,,,,,,,,,,,,,,,,,,,,,,,,,,,,,,,,,,,,,,,,,,,,,,,,,,,,,,,,,,,,,,,,,,,,,,,,,,,,,,,,,,,,,,,,,,,,,,,,,,,,,,,,,,,,,,,,,,,,,,,,,,,,,,,,,,,,,
,,,,,,60e9ea97d19e613e60a994da,62c53aad9cc59c4ecebc80f6,2022-07-06_09h34.11.786,Colour_Asymmetry_Pilot,2022.1.3,Win32,60.03121623,62c50e9c1127f2cd403a315f,0,7,7,147,1,twofour,,,,,,,,,,,,,,,,,,,,,,,,,,,,,,,,,,,,,,,,,,,,,,,,,,,,,,,,,,,,,,,,,,,,,,,,,,,,,,,,,,,,,,,,,,,,,,,,,,,,,,,,,,,,,,,,,,,,,,,,,,,,,,,,,,,,,,,,,,,,,,,,,,,,,,,,,,,,,
,,,,,,60e9ea97d19e613e60a994da,62c53aad9cc59c4ecebc80f6,2022-07-06_09h34.11.786,Colour_Asymmetry_Pilot,2022.1.3,Win32,60.03121623,62c50e9c1127f2cd403a315f,0,8,8,111,1,fourthree,,,,,,,,,,,,,,,,,,,,,,,,,,,,,,,,,,,,,,,,,,,,,,,,,,,,,,,,,,,,,,,,,,,,,,,,,,,,,,,,,,,,,,,,,,,,,,,,,,,,,,,,,,,,,,,,,,,,,,,,,,,,,,,,,,,,,,,,,,,,,,,,,,,,,,,,,,,,,
,,,,,,60e9ea97d19e613e60a994da,62c53aad9cc59c4ecebc80f6,2022-07-06_09h34.11.786,Colour_Asymmetry_Pilot,2022.1.3,Win32,60.03121623,62c50e9c1127f2cd403a315f,0,9,9,16,1,onetwo,,,,,,,,,,,,,,,,,,,,,,,,,,,,,,,,,,,,,,,,,,,,,,,,,,,,,,,,,,,,,,,,,,,,,,,,,,,,,,,,,,,,,,,,,,,,,,,,,,,,,,,,,,,,,,,,,,,,,,,,,,,,,,,,,,,,,,,,,,,,,,,,,,,,,,,,,,,,,
,,,,,,60e9ea97d19e613e60a994da,62c53aad9cc59c4ecebc80f6,2022-07-06_09h34.11.786,Colour_Asymmetry_Pilot,2022.1.3,Win32,60.03121623,62c50e9c1127f2cd403a315f,0,10,10,150,1,fourtwo,,,,,,,,,,,,,,,,,,,,,,,,,,,,,,,,,,,,,,,,,,,,,,,,,,,,,,,,,,,,,,,,,,,,,,,,,,,,,,,,,,,,,,,,,,,,,,,,,,,,,,,,,,,,,,,,,,,,,,,,,,,,,,,,,,,,,,,,,,,,,,,,,,,,,,,,,,,,,
,,,,,,60e9ea97d19e613e60a994da,62c53aad9cc59c4ecebc80f6,2022-07-06_09h34.11.786,Colour_Asymmetry_Pilot,2022.1.3,Win32,60.03121623,62c50e9c1127f2cd403a315f,0,11,11,96,1,onetwo,,,,,,,,,,,,,,,,,,,,,,,,,,,,,,,,,,,,,,,,,,,,,,,,,,,,,,,,,,,,,,,,,,,,,,,,,,,,,,,,,,,,,,,,,,,,,,,,,,,,,,,,,,,,,,,,,,,,,,,,,,,,,,,,,,,,,,,,,,,,,,,,,,,,,,,,,,,,,
,,,,,,60e9ea97d19e613e60a994da,62c53aad9cc59c4ecebc80f6,2022-07-06_09h34.11.786,Colour_Asymmetry_Pilot,2022.1.3,Win32,60.03121623,62c50e9c1127f2cd403a315f,0,12,12,29,1,threefour,,,,,,,,,,,,,,,,,,,,,,,,,,,,,,,,,,,,,,,,,,,,,,,,,,,,,,,,,,,,,,,,,,,,,,,,,,,,,,,,,,,,,,,,,,,,,,,,,,,,,,,,,,,,,,,,,,,,,,,,,,,,,,,,,,,,,,,,,,,,,,,,,,,,,,,,,,,,,
,,,,,,60e9ea97d19e613e60a994da,62c53aad9cc59c4ecebc80f6,2022-07-06_09h34.11.786,Colour_Asymmetry_Pilot,2022.1.3,Win32,60.03121623,62c50e9c1127f2cd403a315f,0,13,13,43,1,twofour,,,,,,,,,,,,,,,,,,,,,,,,,,,,,,,,,,,,,,,,,,,,,,,,,,,,,,,,,,,,,,,,,,,,,,,,,,,,,,,,,,,,,,,,,,,,,,,,,,,,,,,,,,,,,,,,,,,,,,,,,,,,,,,,,,,,,,,,,,,,,,,,,,,,,,,,,,,,,
,,,,,,60e9ea97d19e613e60a994da,62c53aad9cc59c4ecebc80f6,2022-07-06_09h34.11.786,Colour_Asymmetry_Pilot,2022.1.3,Win32,60.03121623,62c50e9c1127f2cd403a315f,0,14,14,88,1,onetwo,,,,,,,,,,,,,,,,,,,,,,,,,,,,,,,,,,,,,,,,,,,,,,,,,,,,,,,,,,,,,,,,,,,,,,,,,,,,,,,,,,,,,,,,,,,,,,,,,,,,,,,,,,,,,,,,,,,,,,,,,,,,,,,,,,,,,,,,,,,,,,,,,,,,,,,,,,,,,
,,,,,,60e9ea97d19e613e60a994da,62c53aad9cc59c4ecebc80f6,2022-07-06_09h34.11.786,Colour_Asymmetry_Pilot,2022.1.3,Win32,60.03121623,62c50e9c1127f2cd403a315f,0,15,15,49,1,onethree,,,,,,,,,,,,,,,,,,,,,,,,,,,,,,,,,,,,,,,,,,,,,,,,,,,,,,,,,,,,,,,,,,,,,,,,,,,,,,,,,,,,,,,,,,,,,,,,,,,,,,,,,,,,,,,,,,,,,,,,,,,,,,,,,,,,,,,,,,,,,,,,,,,,,,,,,,,,,
,,,,,,60e9ea97d19e613e60a994da,62c53aad9cc59c4ecebc80f6,2022-07-06_09h34.11.786,Colour_Asymmetry_Pilot,2022.1.3,Win32,60.03121623,62c50e9c1127f2cd403a315f,0,16,16,6,1,fourtwo,,,,,,,,,,,,,,,,,,,,,,,,,,,,,,,,,,,,,,,,,,,,,,,,,,,,,,,,,,,,,,,,,,,,,,,,,,,,,,,,,,,,,,,,,,,,,,,,,,,,,,,,,,,,,,,,,,,,,,,,,,,,,,,,,,,,,,,,,,,,,,,,,,,,,,,,,,,,,
,,,,,,60e9ea97d19e613e60a994da,62c53aad9cc59c4ecebc80f6,2022-07-06_09h34.11.786,Colour_Asymmetry_Pilot,2022.1.3,Win32,60.03121623,62c50e9c1127f2cd403a315f,0,17,17,92,1,threeone,,,,,,,,,,,,,,,,,,,,,,,,,,,,,,,,,,,,,,,,,,,,,,,,,,,,,,,,,,,,,,,,,,,,,,,,,,,,,,,,,,,,,,,,,,,,,,,,,,,,,,,,,,,,,,,,,,,,,,,,,,,,,,,,,,,,,,,,,,,,,,,,,,,,,,,,,,,,,
,,,,,,60e9ea97d19e613e60a994da,62c53aad9cc59c4ecebc80f6,2022-07-06_09h34.11.786,Colour_Asymmetry_Pilot,2022.1.3,Win32,60.03121623,62c50e9c1127f2cd403a315f,0,18,18,22,1,fourtwo,,,,,,,,,,,,,,,,,,,,,,,,,,,,,,,,,,,,,,,,,,,,,,,,,,,,,,,,,,,,,,,,,,,,,,,,,,,,,,,,,,,,,,,,,,,,,,,,,,,,,,,,,,,,,,,,,,,,,,,,,,,,,,,,,,,,,,,,,,,,,,,,,,,,,,,,,,,,,
,,,,,,60e9ea97d19e613e60a994da,62c53aad9cc59c4ecebc80f6,2022-07-06_09h34.11.786,Colour_Asymmetry_Pilot,2022.1.3,Win32,60.03121623,62c50e9c1127f2cd403a315f,0,19,19,117,1,threefour,,,,,,,,,,,,,,,,,,,,,,,,,,,,,,,,,,,,,,,,,,,,,,,,,,,,,,,,,,,,,,,,,,,,,,,,,,,,,,,,,,,,,,,,,,,,,,,,,,,,,,,,,,,,,,,,,,,,,,,,,,,,,,,,,,,,,,,,,,,,,,,,,,,,,,,,,,,,,
,,,,,,60e9ea97d19e613e60a994da,62c53aad9cc59c4ecebc80f6,2022-07-06_09h34.11.786,Colour_Asymmetry_Pilot,2022.1.3,Win32,60.03121623,62c50e9c1127f2cd403a315f,0,20,20,135,1,fourthree,,,,,,,,,,,,,,,,,,,,,,,,,,,,,,,,,,,,,,,,,,,,,,,,,,,,,,,,,,,,,,,,,,,,,,,,,,,,,,,,,,,,,,,,,,,,,,,,,,,,,,,,,,,,,,,,,,,,,,,,,,,,,,,,,,,,,,,,,,,,,,,,,,,,,,,,,,,,,
,,,,,,60e9ea97d19e613e60a994da,62c53aad9cc59c4ecebc80f6,2022-07-06_09h34.11.786,Colour_Asymmetry_Pilot,2022.1.3,Win32,60.03121623,62c50e9c1127f2cd403a315f,0,21,21,12,1,threeone,,,,,,,,,,,,,,,,,,,,,,,,,,,,,,,,,,,,,,,,,,,,,,,,,,,,,,,,,,,,,,,,,,,,,,,,,,,,,,,,,,,,,,,,,,,,,,,,,,,,,,,,,,,,,,,,,,,,,,,,,,,,,,,,,,,,,,,,,,,,,,,,,,,,,,,,,,,,,
,,,,,,60e9ea97d19e613e60a994da,62c53aad9cc59c4ecebc80f6,2022-07-06_09h34.11.786,Colour_Asymmetry_Pilot,2022.1.3,Win32,60.03121623,62c50e9c1127f2cd403a315f,0,22,22,108,1,threeone,,,,,,,,,,,,,,,,,,,,,,,,,,,,,,,,,,,,,,,,,,,,,,,,,,,,,,,,,,,,,,,,,,,,,,,,,,,,,,,,,,,,,,,,,,,,,,,,,,,,,,,,,,,,,,,,,,,,,,,,,,,,,,,,,,,,,,,,,,,,,,,,,,,,,,,,,,,,,
,,,,,,60e9ea97d19e613e60a994da,62c53aad9cc59c4ecebc80f6,2022-07-06_09h34.11.786,Colour_Asymmetry_Pilot,2022.1.3,Win32,60.03121623,62c50e9c1127f2cd403a315f,0,23,23,90,1,twoone,,,,,,,,,,,,,,,,,,,,,,,,,,,,,,,,,,,,,,,,,,,,,,,,,,,,,,,,,,,,,,,,,,,,,,,,,,,,,,,,,,,,,,,,,,,,,,,,,,,,,,,,,,,,,,,,,,,,,,,,,,,,,,,,,,,,,,,,,,,,,,,,,,,,,,,,,,,,,
,,,,,,60e9ea97d19e613e60a994da,62c53aad9cc59c4ecebc80f6,2022-07-06_09h34.11.786,Colour_Asymmetry_Pilot,2022.1.3,Win32,60.03121623,62c50e9c1127f2cd403a315f,0,24,24,85,1,threefour,,,,,,,,,,,,,,,,,,,,,,,,,,,,,,,,,,,,,,,,,,,,,,,,,,,,,,,,,,,,,,,,,,,,,,,,,,,,,,,,,,,,,,,,,,,,,,,,,,,,,,,,,,,,,,,,,,,,,,,,,,,,,,,,,,,,,,,,,,,,,,,,,,,,,,,,,,,,,
,,,,,,60e9ea97d19e613e60a994da,62c53aad9cc59c4ecebc80f6,2022-07-06_09h34.11.786,Colour_Asymmetry_Pilot,2022.1.3,Win32,60.03121623,62c50e9c1127f2cd403a315f,0,25,25,55,1,fourthree,,,,,,,,,,,,,,,,,,,,,,,,,,,,,,,,,,,,,,,,,,,,,,,,,,,,,,,,,,,,,,,,,,,,,,,,,,,,,,,,,,,,,,,,,,,,,,,,,,,,,,,,,,,,,,,,,,,,,,,,,,,,,,,,,,,,,,,,,,,,,,,,,,,,,,,,,,,,,
,,,,,,60e9ea97d19e613e60a994da,62c53aad9cc59c4ecebc80f6,2022-07-06_09h34.11.786,Colour_Asymmetry_Pilot,2022.1.3,Win32,60.03121623,62c50e9c1127f2cd403a315f,0,26,26,57,1,onethree,,,,,,,,,,,,,,,,,,,,,,,,,,,,,,,,,,,,,,,,,,,,,,,,,,,,,,,,,,,,,,,,,,,,,,,,,,,,,,,,,,,,,,,,,,,,,,,,,,,,,,,,,,,,,,,,,,,,,,,,,,,,,,,,,,,,,,,,,,,,,,,,,,,,,,,,,,,,,
,,,,,,60e9ea97d19e613e60a994da,62c53aad9cc59c4ecebc80f6,2022-07-06_09h34.11.786,Colour_Asymmetry_Pilot,2022.1.3,Win32,60.03121623,62c50e9c1127f2cd403a315f,0,27,27,107,1,twofour,,,,,,,,,,,,,,,,,,,,,,,,,,,,,,,,,,,,,,,,,,,,,,,,,,,,,,,,,,,,,,,,,,,,,,,,,,,,,,,,,,,,,,,,,,,,,,,,,,,,,,,,,,,,,,,,,,,,,,,,,,,,,,,,,,,,,,,,,,,,,,,,,,,,,,,,,,,,,
,,,,,,60e9ea97d19e613e60a994da,62c53aad9cc59c4ecebc80f6,2022-07-06_09h34.11.786,Colour_Asymmetry_Pilot,2022.1.3,Win32,60.03121623,62c50e9c1127f2cd403a315f,0,28,28,68,1,threeone,,,,,,,,,,,,,,,,,,,,,,,,,,,,,,,,,,,,,,,,,,,,,,,,,,,,,,,,,,,,,,,,,,,,,,,,,,,,,,,,,,,,,,,,,,,,,,,,,,,,,,,,,,,,,,,,,,,,,,,,,,,,,,,,,,,,,,,,,,,,,,,,,,,,,,,,,,,,,
,,,,,,60e9ea97d19e613e60a994da,62c53aad9cc59c4ecebc80f6,2022-07-06_09h34.11.786,Colour_Asymmetry_Pilot,2022.1.3,Win32,60.03121623,62c50e9c1127f2cd403a315f,0,29,29,60,1,threeone,,,,,,,,,,,,,,,,,,,,,,,,,,,,,,,,,,,,,,,,,,,,,,,,,,,,,,,,,,,,,,,,,,,,,,,,,,,,,,,,,,,,,,,,,,,,,,,,,,,,,,,,,,,,,,,,,,,,,,,,,,,,,,,,,,,,,,,,,,,,,,,,,,,,,,,,,,,,,
,,,,,,60e9ea97d19e613e60a994da,62c53aad9cc59c4ecebc80f6,2022-07-06_09h34.11.786,Colour_Asymmetry_Pilot,2022.1.3,Win32,60.03121623,62c50e9c1127f2cd403a315f,0,30,30,97,1,onethree,,,,,,,,,,,,,,,,,,,,,,,,,,,,,,,,,,,,,,,,,,,,,,,,,,,,,,,,,,,,,,,,,,,,,,,,,,,,,,,,,,,,,,,,,,,,,,,,,,,,,,,,,,,,,,,,,,,,,,,,,,,,,,,,,,,,,,,,,,,,,,,,,,,,,,,,,,,,,
,,,,,,60e9ea97d19e613e60a994da,62c53aad9cc59c4ecebc80f6,2022-07-06_09h34.11.786,Colour_Asymmetry_Pilot,2022.1.3,Win32,60.03121623,62c50e9c1127f2cd403a315f,0,31,31,59,1,twofour,,,,,,,,,,,,,,,,,,,,,,,,,,,,,,,,,,,,,,,,,,,,,,,,,,,,,,,,,,,,,,,,,,,,,,,,,,,,,,,,,,,,,,,,,,,,,,,,,,,,,,,,,,,,,,,,,,,,,,,,,,,,,,,,,,,,,,,,,,,,,,,,,,,,,,,,,,,,,
,,,,,,60e9ea97d19e613e60a994da,62c53aad9cc59c4ecebc80f6,2022-07-06_09h34.11.786,Colour_Asymmetry_Pilot,2022.1.3,Win32,60.03121623,62c50e9c1127f2cd403a315f,0,32,32,103,1,fourthree,,,,,,,,,,,,,,,,,,,,,,,,,,,,,,,,,,,,,,,,,,,,,,,,,,,,,,,,,,,,,,,,,,,,,,,,,,,,,,,,,,,,,,,,,,,,,,,,,,,,,,,,,,,,,,,,,,,,,,,,,,,,,,,,,,,,,,,,,,,,,,,,,,,,,,,,,,,,,
,,,,,,60e9ea97d19e613e60a994da,62c53aad9cc59c4ecebc80f6,2022-07-06_09h34.11.786,Colour_Asymmetry_Pilot,2022.1.3,Win32,60.03121623,62c50e9c1127f2cd403a315f,0,33,33,65,1,onethree,,,,,,,,,,,,,,,,,,,,,,,,,,,,,,,,,,,,,,,,,,,,,,,,,,,,,,,,,,,,,,,,,,,,,,,,,,,,,,,,,,,,,,,,,,,,,,,,,,,,,,,,,,,,,,,,,,,,,,,,,,,,,,,,,,,,,,,,,,,,,,,,,,,,,,,,,,,,,
,,,,,,60e9ea97d19e613e60a994da,62c53aad9cc59c4ecebc80f6,2022-07-06_09h34.11.786,Colour_Asymmetry_Pilot,2022.1.3,Win32,60.03121623,62c50e9c1127f2cd403a315f,0,34,34,17,1,onethree,,,,,,,,,,,,,,,,,,,,,,,,,,,,,,,,,,,,,,,,,,,,,,,,,,,,,,,,,,,,,,,,,,,,,,,,,,,,,,,,,,,,,,,,,,,,,,,,,,,,,,,,,,,,,,,,,,,,,,,,,,,,,,,,,,,,,,,,,,,,,,,,,,,,,,,,,,,,,
,,,,,,60e9ea97d19e613e60a994da,62c53aad9cc59c4ecebc80f6,2022-07-06_09h34.11.786,Colour_Asymmetry_Pilot,2022.1.3,Win32,60.03121623,62c50e9c1127f2cd403a315f,0,35,35,118,1,fourtwo,,,,,,,,,,,,,,,,,,,,,,,,,,,,,,,,,,,,,,,,,,,,,,,,,,,,,,,,,,,,,,,,,,,,,,,,,,,,,,,,,,,,,,,,,,,,,,,,,,,,,,,,,,,,,,,,,,,,,,,,,,,,,,,,,,,,,,,,,,,,,,,,,,,,,,,,,,,,,
,,,,,,60e9ea97d19e613e60a994da,62c53aad9cc59c4ecebc80f6,2022-07-06_09h34.11.786,Colour_Asymmetry_Pilot,2022.1.3,Win32,60.03121623,62c50e9c1127f2cd403a315f,0,36,36,51,1,twofour,,,,,,,,,,,,,,,,,,,,,,,,,,,,,,,,,,,,,,,,,,,,,,,,,,,,,,,,,,,,,,,,,,,,,,,,,,,,,,,,,,,,,,,,,,,,,,,,,,,,,,,,,,,,,,,,,,,,,,,,,,,,,,,,,,,,,,,,,,,,,,,,,,,,,,,,,,,,,
,,,,,,60e9ea97d19e613e60a994da,62c53aad9cc59c4ecebc80f6,2022-07-06_09h34.11.786,Colour_Asymmetry_Pilot,2022.1.3,Win32,60.03121623,62c50e9c1127f2cd403a315f,0,37,37,53,1,threefour,,,,,,,,,,,,,,,,,,,,,,,,,,,,,,,,,,,,,,,,,,,,,,,,,,,,,,,,,,,,,,,,,,,,,,,,,,,,,,,,,,,,,,,,,,,,,,,,,,,,,,,,,,,,,,,,,,,,,,,,,,,,,,,,,,,,,,,,,,,,,,,,,,,,,,,,,,,,,
,,,,,,60e9ea97d19e613e60a994da,62c53aad9cc59c4ecebc80f6,2022-07-06_09h34.11.786,Colour_Asymmetry_Pilot,2022.1.3,Win32,60.03121623,62c50e9c1127f2cd403a315f,0,38,38,152,1,onetwo,,,,,,,,,,,,,,,,,,,,,,,,,,,,,,,,,,,,,,,,,,,,,,,,,,,,,,,,,,,,,,,,,,,,,,,,,,,,,,,,,,,,,,,,,,,,,,,,,,,,,,,,,,,,,,,,,,,,,,,,,,,,,,,,,,,,,,,,,,,,,,,,,,,,,,,,,,,,,
,,,,,,60e9ea97d19e613e60a994da,62c53aad9cc59c4ecebc80f6,2022-07-06_09h34.11.786,Colour_Asymmetry_Pilot,2022.1.3,Win32,60.03121623,62c50e9c1127f2cd403a315f,0,39,39,157,1,threefour,,,,,,,,,,,,,,,,,,,,,,,,,,,,,,,,,,,,,,,,,,,,,,,,,,,,,,,,,,,,,,,,,,,,,,,,,,,,,,,,,,,,,,,,,,,,,,,,,,,,,,,,,,,,,,,,,,,,,,,,,,,,,,,,,,,,,,,,,,,,,,,,,,,,,,,,,,,,,
,,,,,,60e9ea97d19e613e60a994da,62c53aad9cc59c4ecebc80f6,2022-07-06_09h34.11.786,Colour_Asymmetry_Pilot,2022.1.3,Win32,60.03121623,62c50e9c1127f2cd403a315f,0,40,40,109,1,threefour,,,,,,,,,,,,,,,,,,,,,,,,,,,,,,,,,,,,,,,,,,,,,,,,,,,,,,,,,,,,,,,,,,,,,,,,,,,,,,,,,,,,,,,,,,,,,,,,,,,,,,,,,,,,,,,,,,,,,,,,,,,,,,,,,,,,,,,,,,,,,,,,,,,,,,,,,,,,,
,,,,,,60e9ea97d19e613e60a994da,62c53aad9cc59c4ecebc80f6,2022-07-06_09h34.11.786,Colour_Asymmetry_Pilot,2022.1.3,Win32,60.03121623,62c50e9c1127f2cd403a315f,0,41,41,122,1,twoone,,,,,,,,,,,,,,,,,,,,,,,,,,,,,,,,,,,,,,,,,,,,,,,,,,,,,,,,,,,,,,,,,,,,,,,,,,,,,,,,,,,,,,,,,,,,,,,,,,,,,,,,,,,,,,,,,,,,,,,,,,,,,,,,,,,,,,,,,,,,,,,,,,,,,,,,,,,,,
,,,,,,60e9ea97d19e613e60a994da,62c53aad9cc59c4ecebc80f6,2022-07-06_09h34.11.786,Colour_Asymmetry_Pilot,2022.1.3,Win32,60.03121623,62c50e9c1127f2cd403a315f,0,42,42,62,1,fourtwo,,,,,,,,,,,,,,,,,,,,,,,,,,,,,,,,,,,,,,,,,,,,,,,,,,,,,,,,,,,,,,,,,,,,,,,,,,,,,,,,,,,,,,,,,,,,,,,,,,,,,,,,,,,,,,,,,,,,,,,,,,,,,,,,,,,,,,,,,,,,,,,,,,,,,,,,,,,,,
,,,,,,60e9ea97d19e613e60a994da,62c53aad9cc59c4ecebc80f6,2022-07-06_09h34.11.786,Colour_Asymmetry_Pilot,2022.1.3,Win32,60.03121623,62c50e9c1127f2cd403a315f,0,43,43,54,1,fourtwo,,,,,,,,,,,,,,,,,,,,,,,,,,,,,,,,,,,,,,,,,,,,,,,,,,,,,,,,,,,,,,,,,,,,,,,,,,,,,,,,,,,,,,,,,,,,,,,,,,,,,,,,,,,,,,,,,,,,,,,,,,,,,,,,,,,,,,,,,,,,,,,,,,,,,,,,,,,,,
,,,,,,60e9ea97d19e613e60a994da,62c53aad9cc59c4ecebc80f6,2022-07-06_09h34.11.786,Colour_Asymmetry_Pilot,2022.1.3,Win32,60.03121623,62c50e9c1127f2cd403a315f,0,44,44,153,1,onethree,,,,,,,,,,,,,,,,,,,,,,,,,,,,,,,,,,,,,,,,,,,,,,,,,,,,,,,,,,,,,,,,,,,,,,,,,,,,,,,,,,,,,,,,,,,,,,,,,,,,,,,,,,,,,,,,,,,,,,,,,,,,,,,,,,,,,,,,,,,,,,,,,,,,,,,,,,,,,
,,,,,,60e9ea97d19e613e60a994da,62c53aad9cc59c4ecebc80f6,2022-07-06_09h34.11.786,Colour_Asymmetry_Pilot,2022.1.3,Win32,60.03121623,62c50e9c1127f2cd403a315f,0,45,45,106,1,twoone,,,,,,,,,,,,,,,,,,,,,,,,,,,,,,,,,,,,,,,,,,,,,,,,,,,,,,,,,,,,,,,,,,,,,,,,,,,,,,,,,,,,,,,,,,,,,,,,,,,,,,,,,,,,,,,,,,,,,,,,,,,,,,,,,,,,,,,,,,,,,,,,,,,,,,,,,,,,,
,,,,,,60e9ea97d19e613e60a994da,62c53aad9cc59c4ecebc80f6,2022-07-06_09h34.11.786,Colour_Asymmetry_Pilot,2022.1.3,Win32,60.03121623,62c50e9c1127f2cd403a315f,0,46,46,144,1,onetwo,,,,,,,,,,,,,,,,,,,,,,,,,,,,,,,,,,,,,,,,,,,,,,,,,,,,,,,,,,,,,,,,,,,,,,,,,,,,,,,,,,,,,,,,,,,,,,,,,,,,,,,,,,,,,,,,,,,,,,,,,,,,,,,,,,,,,,,,,,,,,,,,,,,,,,,,,,,,,
,,,,,,60e9ea97d19e613e60a994da,62c53aad9cc59c4ecebc80f6,2022-07-06_09h34.11.786,Colour_Asymmetry_Pilot,2022.1.3,Win32,60.03121623,62c50e9c1127f2cd403a315f,0,47,47,123,1,twofour,,,,,,,,,,,,,,,,,,,,,,,,,,,,,,,,,,,,,,,,,,,,,,,,,,,,,,,,,,,,,,,,,,,,,,,,,,,,,,,,,,,,,,,,,,,,,,,,,,,,,,,,,,,,,,,,,,,,,,,,,,,,,,,,,,,,,,,,,,,,,,,,,,,,,,,,,,,,,
,,,,,,60e9ea97d19e613e60a994da,62c53aad9cc59c4ecebc80f6,2022-07-06_09h34.11.786,Colour_Asymmetry_Pilot,2022.1.3,Win32,60.03121623,62c50e9c1127f2cd403a315f,0,48,48,137,1,onethree,,,,,,,,,,,,,,,,,,,,,,,,,,,,,,,,,,,,,,,,,,,,,,,,,,,,,,,,,,,,,,,,,,,,,,,,,,,,,,,,,,,,,,,,,,,,,,,,,,,,,,,,,,,,,,,,,,,,,,,,,,,,,,,,,,,,,,,,,,,,,,,,,,,,,,,,,,,,,
,,,,,,60e9ea97d19e613e60a994da,62c53aad9cc59c4ecebc80f6,2022-07-06_09h34.11.786,Colour_Asymmetry_Pilot,2022.1.3,Win32,60.03121623,62c50e9c1127f2cd403a315f,0,49,49,110,1,fourtwo,,,,,,,,,,,,,,,,,,,,,,,,,,,,,,,,,,,,,,,,,,,,,,,,,,,,,,,,,,,,,,,,,,,,,,,,,,,,,,,,,,,,,,,,,,,,,,,,,,,,,,,,,,,,,,,,,,,,,,,,,,,,,,,,,,,,,,,,,,,,,,,,,,,,,,,,,,,,,
,,,,,,60e9ea97d19e613e60a994da,62c53aad9cc59c4ecebc80f6,2022-07-06_09h34.11.786,Colour_Asymmetry_Pilot,2022.1.3,Win32,60.03121623,62c50e9c1127f2cd403a315f,0,50,50,46,1,fourtwo,,,,,,,,,,,,,,,,,,,,,,,,,,,,,,,,,,,,,,,,,,,,,,,,,,,,,,,,,,,,,,,,,,,,,,,,,,,,,,,,,,,,,,,,,,,,,,,,,,,,,,,,,,,,,,,,,,,,,,,,,,,,,,,,,,,,,,,,,,,,,,,,,,,,,,,,,,,,,
,,,,,,60e9ea97d19e613e60a994da,62c53aad9cc59c4ecebc80f6,2022-07-06_09h34.11.786,Colour_Asymmetry_Pilot,2022.1.3,Win32,60.03121623,62c50e9c1127f2cd403a315f,0,51,51,93,1,threefour,,,,,,,,,,,,,,,,,,,,,,,,,,,,,,,,,,,,,,,,,,,,,,,,,,,,,,,,,,,,,,,,,,,,,,,,,,,,,,,,,,,,,,,,,,,,,,,,,,,,,,,,,,,,,,,,,,,,,,,,,,,,,,,,,,,,,,,,,,,,,,,,,,,,,,,,,,,,,
,,,,,,60e9ea97d19e613e60a994da,62c53aad9cc59c4ecebc80f6,2022-07-06_09h34.11.786,Colour_Asymmetry_Pilot,2022.1.3,Win32,60.03121623,62c50e9c1127f2cd403a315f,0,52,52,151,1,fourthree,,,,,,,,,,,,,,,,,,,,,,,,,,,,,,,,,,,,,,,,,,,,,,,,,,,,,,,,,,,,,,,,,,,,,,,,,,,,,,,,,,,,,,,,,,,,,,,,,,,,,,,,,,,,,,,,,,,,,,,,,,,,,,,,,,,,,,,,,,,,,,,,,,,,,,,,,,,,,
,,,,,,60e9ea97d19e613e60a994da,62c53aad9cc59c4ecebc80f6,2022-07-06_09h34.11.786,Colour_Asymmetry_Pilot,2022.1.3,Win32,60.03121623,62c50e9c1127f2cd403a315f,0,53,53,115,1,twofour,,,,,,,,,,,,,,,,,,,,,,,,,,,,,,,,,,,,,,,,,,,,,,,,,,,,,,,,,,,,,,,,,,,,,,,,,,,,,,,,,,,,,,,,,,,,,,,,,,,,,,,,,,,,,,,,,,,,,,,,,,,,,,,,,,,,,,,,,,,,,,,,,,,,,,,,,,,,,
,,,,,,60e9ea97d19e613e60a994da,62c53aad9cc59c4ecebc80f6,2022-07-06_09h34.11.786,Colour_Asymmetry_Pilot,2022.1.3,Win32,60.03121623,62c50e9c1127f2cd403a315f,0,54,54,35,1,twofour,,,,,,,,,,,,,,,,,,,,,,,,,,,,,,,,,,,,,,,,,,,,,,,,,,,,,,,,,,,,,,,,,,,,,,,,,,,,,,,,,,,,,,,,,,,,,,,,,,,,,,,,,,,,,,,,,,,,,,,,,,,,,,,,,,,,,,,,,,,,,,,,,,,,,,,,,,,,,
,,,,,,60e9ea97d19e613e60a994da,62c53aad9cc59c4ecebc80f6,2022-07-06_09h34.11.786,Colour_Asymmetry_Pilot,2022.1.3,Win32,60.03121623,62c50e9c1127f2cd403a315f,0,55,55,42,1,twoone,,,,,,,,,,,,,,,,,,,,,,,,,,,,,,,,,,,,,,,,,,,,,,,,,,,,,,,,,,,,,,,,,,,,,,,,,,,,,,,,,,,,,,,,,,,,,,,,,,,,,,,,,,,,,,,,,,,,,,,,,,,,,,,,,,,,,,,,,,,,,,,,,,,,,,,,,,,,,
,,,,,,60e9ea97d19e613e60a994da,62c53aad9cc59c4ecebc80f6,2022-07-06_09h34.11.786,Colour_Asymmetry_Pilot,2022.1.3,Win32,60.03121623,62c50e9c1127f2cd403a315f,0,56,56,25,1,onethree,,,,,,,,,,,,,,,,,,,,,,,,,,,,,,,,,,,,,,,,,,,,,,,,,,,,,,,,,,,,,,,,,,,,,,,,,,,,,,,,,,,,,,,,,,,,,,,,,,,,,,,,,,,,,,,,,,,,,,,,,,,,,,,,,,,,,,,,,,,,,,,,,,,,,,,,,,,,,
,,,,,,60e9ea97d19e613e60a994da,62c53aad9cc59c4ecebc80f6,2022-07-06_09h34.11.786,Colour_Asymmetry_Pilot,2022.1.3,Win32,60.03121623,62c50e9c1127f2cd403a315f,0,57,57,23,1,fourthree,,,,,,,,,,,,,,,,,,,,,,,,,,,,,,,,,,,,,,,,,,,,,,,,,,,,,,,,,,,,,,,,,,,,,,,,,,,,,,,,,,,,,,,,,,,,,,,,,,,,,,,,,,,,,,,,,,,,,,,,,,,,,,,,,,,,,,,,,,,,,,,,,,,,,,,,,,,,,
,,,,,,60e9ea97d19e613e60a994da,62c53aad9cc59c4ecebc80f6,2022-07-06_09h34.11.786,Colour_Asymmetry_Pilot,2022.1.3,Win32,60.03121623,62c50e9c1127f2cd403a315f,0,58,58,74,1,twoone,,,,,,,,,,,,,,,,,,,,,,,,,,,,,,,,,,,,,,,,,,,,,,,,,,,,,,,,,,,,,,,,,,,,,,,,,,,,,,,,,,,,,,,,,,,,,,,,,,,,,,,,,,,,,,,,,,,,,,,,,,,,,,,,,,,,,,,,,,,,,,,,,,,,,,,,,,,,,
,,,,,,60e9ea97d19e613e60a994da,62c53aad9cc59c4ecebc80f6,2022-07-06_09h34.11.786,Colour_Asymmetry_Pilot,2022.1.3,Win32,60.03121623,62c50e9c1127f2cd403a315f,0,59,59,80,1,onetwo,,,,,,,,,,,,,,,,,,,,,,,,,,,,,,,,,,,,,,,,,,,,,,,,,,,,,,,,,,,,,,,,,,,,,,,,,,,,,,,,,,,,,,,,,,,,,,,,,,,,,,,,,,,,,,,,,,,,,,,,,,,,,,,,,,,,,,,,,,,,,,,,,,,,,,,,,,,,,
,,,,,,60e9ea97d19e613e60a994da,62c53aad9cc59c4ecebc80f6,2022-07-06_09h34.11.786,Colour_Asymmetry_Pilot,2022.1.3,Win32,60.03121623,62c50e9c1127f2cd403a315f,0,60,60,112,1,onetwo,,,,,,,,,,,,,,,,,,,,,,,,,,,,,,,,,,,,,,,,,,,,,,,,,,,,,,,,,,,,,,,,,,,,,,,,,,,,,,,,,,,,,,,,,,,,,,,,,,,,,,,,,,,,,,,,,,,,,,,,,,,,,,,,,,,,,,,,,,,,,,,,,,,,,,,,,,,,,
,,,,,,60e9ea97d19e613e60a994da,62c53aad9cc59c4ecebc80f6,2022-07-06_09h34.11.786,Colour_Asymmetry_Pilot,2022.1.3,Win32,60.03121623,62c50e9c1127f2cd403a315f,0,61,61,160,1,onetwo,,,,,,,,,,,,,,,,,,,,,,,,,,,,,,,,,,,,,,,,,,,,,,,,,,,,,,,,,,,,,,,,,,,,,,,,,,,,,,,,,,,,,,,,,,,,,,,,,,,,,,,,,,,,,,,,,,,,,,,,,,,,,,,,,,,,,,,,,,,,,,,,,,,,,,,,,,,,,
,,,,,,60e9ea97d19e613e60a994da,62c53aad9cc59c4ecebc80f6,2022-07-06_09h34.11.786,Colour_Asymmetry_Pilot,2022.1.3,Win32,60.03121623,62c50e9c1127f2cd403a315f,0,62,62,132,1,threeone,,,,,,,,,,,,,,,,,,,,,,,,,,,,,,,,,,,,,,,,,,,,,,,,,,,,,,,,,,,,,,,,,,,,,,,,,,,,,,,,,,,,,,,,,,,,,,,,,,,,,,,,,,,,,,,,,,,,,,,,,,,,,,,,,,,,,,,,,,,,,,,,,,,,,,,,,,,,,
,,,,,,60e9ea97d19e613e60a994da,62c53aad9cc59c4ecebc80f6,2022-07-06_09h34.11.786,Colour_Asymmetry_Pilot,2022.1.3,Win32,60.03121623,62c50e9c1127f2cd403a315f,0,63,63,63,1,fourthree,,,,,,,,,,,,,,,,,,,,,,,,,,,,,,,,,,,,,,,,,,,,,,,,,,,,,,,,,,,,,,,,,,,,,,,,,,,,,,,,,,,,,,,,,,,,,,,,,,,,,,,,,,,,,,,,,,,,,,,,,,,,,,,,,,,,,,,,,,,,,,,,,,,,,,,,,,,,,
,,,,,,60e9ea97d19e613e60a994da,62c53aad9cc59c4ecebc80f6,2022-07-06_09h34.11.786,Colour_Asymmetry_Pilot,2022.1.3,Win32,60.03121623,62c50e9c1127f2cd403a315f,0,64,64,87,1,fourthree,,,,,,,,,,,,,,,,,,,,,,,,,,,,,,,,,,,,,,,,,,,,,,,,,,,,,,,,,,,,,,,,,,,,,,,,,,,,,,,,,,,,,,,,,,,,,,,,,,,,,,,,,,,,,,,,,,,,,,,,,,,,,,,,,,,,,,,,,,,,,,,,,,,,,,,,,,,,,
,,,,,,60e9ea97d19e613e60a994da,62c53aad9cc59c4ecebc80f6,2022-07-06_09h34.11.786,Colour_Asymmetry_Pilot,2022.1.3,Win32,60.03121623,62c50e9c1127f2cd403a315f,0,65,65,102,1,fourtwo,,,,,,,,,,,,,,,,,,,,,,,,,,,,,,,,,,,,,,,,,,,,,,,,,,,,,,,,,,,,,,,,,,,,,,,,,,,,,,,,,,,,,,,,,,,,,,,,,,,,,,,,,,,,,,,,,,,,,,,,,,,,,,,,,,,,,,,,,,,,,,,,,,,,,,,,,,,,,
,,,,,,60e9ea97d19e613e60a994da,62c53aad9cc59c4ecebc80f6,2022-07-06_09h34.11.786,Colour_Asymmetry_Pilot,2022.1.3,Win32,60.03121623,62c50e9c1127f2cd403a315f,0,66,66,136,1,onetwo,,,,,,,,,,,,,,,,,,,,,,,,,,,,,,,,,,,,,,,,,,,,,,,,,,,,,,,,,,,,,,,,,,,,,,,,,,,,,,,,,,,,,,,,,,,,,,,,,,,,,,,,,,,,,,,,,,,,,,,,,,,,,,,,,,,,,,,,,,,,,,,,,,,,,,,,,,,,,
,,,,,,60e9ea97d19e613e60a994da,62c53aad9cc59c4ecebc80f6,2022-07-06_09h34.11.786,Colour_Asymmetry_Pilot,2022.1.3,Win32,60.03121623,62c50e9c1127f2cd403a315f,0,67,67,11,1,twofour,,,,,,,,,,,,,,,,,,,,,,,,,,,,,,,,,,,,,,,,,,,,,,,,,,,,,,,,,,,,,,,,,,,,,,,,,,,,,,,,,,,,,,,,,,,,,,,,,,,,,,,,,,,,,,,,,,,,,,,,,,,,,,,,,,,,,,,,,,,,,,,,,,,,,,,,,,,,,
,,,,,,60e9ea97d19e613e60a994da,62c53aad9cc59c4ecebc80f6,2022-07-06_09h34.11.786,Colour_Asymmetry_Pilot,2022.1.3,Win32,60.03121623,62c50e9c1127f2cd403a315f,0,68,68,0,1,onetwo,,,,,,,,,,,,,,,,,,,,,,,,,,,,,,,,,,,,,,,,,,,,,,,,,,,,,,,,,,,,,,,,,,,,,,,,,,,,,,,,,,,,,,,,,,,,,,,,,,,,,,,,,,,,,,,,,,,,,,,,,,,,,,,,,,,,,,,,,,,,,,,,,,,,,,,,,,,,,
,,,,,,60e9ea97d19e613e60a994da,62c53aad9cc59c4ecebc80f6,2022-07-06_09h34.11.786,Colour_Asymmetry_Pilot,2022.1.3,Win32,60.03121623,62c50e9c1127f2cd403a315f,0,69,69,120,1,onetwo,,,,,,,,,,,,,,,,,,,,,,,,,,,,,,,,,,,,,,,,,,,,,,,,,,,,,,,,,,,,,,,,,,,,,,,,,,,,,,,,,,,,,,,,,,,,,,,,,,,,,,,,,,,,,,,,,,,,,,,,,,,,,,,,,,,,,,,,,,,,,,,,,,,,,,,,,,,,,
,,,,,,60e9ea97d19e613e60a994da,62c53aad9cc59c4ecebc80f6,2022-07-06_09h34.11.786,Colour_Asymmetry_Pilot,2022.1.3,Win32,60.03121623,62c50e9c1127f2cd403a315f,0,70,70,19,1,twofour,,,,,,,,,,,,,,,,,,,,,,,,,,,,,,,,,,,,,,,,,,,,,,,,,,,,,,,,,,,,,,,,,,,,,,,,,,,,,,,,,,,,,,,,,,,,,,,,,,,,,,,,,,,,,,,,,,,,,,,,,,,,,,,,,,,,,,,,,,,,,,,,,,,,,,,,,,,,,
,,,,,,60e9ea97d19e613e60a994da,62c53aad9cc59c4ecebc80f6,2022-07-06_09h34.11.786,Colour_Asymmetry_Pilot,2022.1.3,Win32,60.03121623,62c50e9c1127f2cd403a315f,0,71,71,8,1,onetwo,,,,,,,,,,,,,,,,,,,,,,,,,,,,,,,,,,,,,,,,,,,,,,,,,,,,,,,,,,,,,,,,,,,,,,,,,,,,,,,,,,,,,,,,,,,,,,,,,,,,,,,,,,,,,,,,,,,,,,,,,,,,,,,,,,,,,,,,,,,,,,,,,,,,,,,,,,,,,
,,,,,,60e9ea97d19e613e60a994da,62c53aad9cc59c4ecebc80f6,2022-07-06_09h34.11.786,Colour_Asymmetry_Pilot,2022.1.3,Win32,60.03121623,62c50e9c1127f2cd403a315f,0,72,72,133,1,threefour,,,,,,,,,,,,,,,,,,,,,,,,,,,,,,,,,,,,,,,,,,,,,,,,,,,,,,,,,,,,,,,,,,,,,,,,,,,,,,,,,,,,,,,,,,,,,,,,,,,,,,,,,,,,,,,,,,,,,,,,,,,,,,,,,,,,,,,,,,,,,,,,,,,,,,,,,,,,,
,,,,,,60e9ea97d19e613e60a994da,62c53aad9cc59c4ecebc80f6,2022-07-06_09h34.11.786,Colour_Asymmetry_Pilot,2022.1.3,Win32,60.03121623,62c50e9c1127f2cd403a315f,0,73,73,45,1,threefour,,,,,,,,,,,,,,,,,,,,,,,,,,,,,,,,,,,,,,,,,,,,,,,,,,,,,,,,,,,,,,,,,,,,,,,,,,,,,,,,,,,,,,,,,,,,,,,,,,,,,,,,,,,,,,,,,,,,,,,,,,,,,,,,,,,,,,,,,,,,,,,,,,,,,,,,,,,,,
,,,,,,60e9ea97d19e613e60a994da,62c53aad9cc59c4ecebc80f6,2022-07-06_09h34.11.786,Colour_Asymmetry_Pilot,2022.1.3,Win32,60.03121623,62c50e9c1127f2cd403a315f,0,74,74,41,1,onethree,,,,,,,,,,,,,,,,,,,,,,,,,,,,,,,,,,,,,,,,,,,,,,,,,,,,,,,,,,,,,,,,,,,,,,,,,,,,,,,,,,,,,,,,,,,,,,,,,,,,,,,,,,,,,,,,,,,,,,,,,,,,,,,,,,,,,,,,,,,,,,,,,,,,,,,,,,,,,
,,,,,,60e9ea97d19e613e60a994da,62c53aad9cc59c4ecebc80f6,2022-07-06_09h34.11.786,Colour_Asymmetry_Pilot,2022.1.3,Win32,60.03121623,62c50e9c1127f2cd403a315f,0,75,75,146,1,twoone,,,,,,,,,,,,,,,,,,,,,,,,,,,,,,,,,,,,,,,,,,,,,,,,,,,,,,,,,,,,,,,,,,,,,,,,,,,,,,,,,,,,,,,,,,,,,,,,,,,,,,,,,,,,,,,,,,,,,,,,,,,,,,,,,,,,,,,,,,,,,,,,,,,,,,,,,,,,,
,,,,,,60e9ea97d19e613e60a994da,62c53aad9cc59c4ecebc80f6,2022-07-06_09h34.11.786,Colour_Asymmetry_Pilot,2022.1.3,Win32,60.03121623,62c50e9c1127f2cd403a315f,0,76,76,1,1,onethree,,,,,,,,,,,,,,,,,,,,,,,,,,,,,,,,,,,,,,,,,,,,,,,,,,,,,,,,,,,,,,,,,,,,,,,,,,,,,,,,,,,,,,,,,,,,,,,,,,,,,,,,,,,,,,,,,,,,,,,,,,,,,,,,,,,,,,,,,,,,,,,,,,,,,,,,,,,,,
,,,,,,60e9ea97d19e613e60a994da,62c53aad9cc59c4ecebc80f6,2022-07-06_09h34.11.786,Colour_Asymmetry_Pilot,2022.1.3,Win32,60.03121623,62c50e9c1127f2cd403a315f,0,77,77,50,1,twoone,,,,,,,,,,,,,,,,,,,,,,,,,,,,,,,,,,,,,,,,,,,,,,,,,,,,,,,,,,,,,,,,,,,,,,,,,,,,,,,,,,,,,,,,,,,,,,,,,,,,,,,,,,,,,,,,,,,,,,,,,,,,,,,,,,,,,,,,,,,,,,,,,,,,,,,,,,,,,
,,,,,,60e9ea97d19e613e60a994da,62c53aad9cc59c4ecebc80f6,2022-07-06_09h34.11.786,Colour_Asymmetry_Pilot,2022.1.3,Win32,60.03121623,62c50e9c1127f2cd403a315f,0,78,78,100,1,threeone,,,,,,,,,,,,,,,,,,,,,,,,,,,,,,,,,,,,,,,,,,,,,,,,,,,,,,,,,,,,,,,,,,,,,,,,,,,,,,,,,,,,,,,,,,,,,,,,,,,,,,,,,,,,,,,,,,,,,,,,,,,,,,,,,,,,,,,,,,,,,,,,,,,,,,,,,,,,,
,,,,,,60e9ea97d19e613e60a994da,62c53aad9cc59c4ecebc80f6,2022-07-06_09h34.11.786,Colour_Asymmetry_Pilot,2022.1.3,Win32,60.03121623,62c50e9c1127f2cd403a315f,0,79,79,128,1,onetwo,,,,,,,,,,,,,,,,,,,,,,,,,,,,,,,,,,,,,,,,,,,,,,,,,,,,,,,,,,,,,,,,,,,,,,,,,,,,,,,,,,,,,,,,,,,,,,,,,,,,,,,,,,,,,,,,,,,,,,,,,,,,,,,,,,,,,,,,,,,,,,,,,,,,,,,,,,,,,
,,,,,,60e9ea97d19e613e60a994da,62c53aad9cc59c4ecebc80f6,2022-07-06_09h34.11.786,Colour_Asymmetry_Pilot,2022.1.3,Win32,60.03121623,62c50e9c1127f2cd403a315f,0,80,80,33,1,onethree,,,,,,,,,,,,,,,,,,,,,,,,,,,,,,,,,,,,,,,,,,,,,,,,,,,,,,,,,,,,,,,,,,,,,,,,,,,,,,,,,,,,,,,,,,,,,,,,,,,,,,,,,,,,,,,,,,,,,,,,,,,,,,,,,,,,,,,,,,,,,,,,,,,,,,,,,,,,,
,,,,,,60e9ea97d19e613e60a994da,62c53aad9cc59c4ecebc80f6,2022-07-06_09h34.11.786,Colour_Asymmetry_Pilot,2022.1.3,Win32,60.03121623,62c50e9c1127f2cd403a315f,0,81,81,13,1,threefour,,,,,,,,,,,,,,,,,,,,,,,,,,,,,,,,,,,,,,,,,,,,,,,,,,,,,,,,,,,,,,,,,,,,,,,,,,,,,,,,,,,,,,,,,,,,,,,,,,,,,,,,,,,,,,,,,,,,,,,,,,,,,,,,,,,,,,,,,,,,,,,,,,,,,,,,,,,,,
,,,,,,60e9ea97d19e613e60a994da,62c53aad9cc59c4ecebc80f6,2022-07-06_09h34.11.786,Colour_Asymmetry_Pilot,2022.1.3,Win32,60.03121623,62c50e9c1127f2cd403a315f,0,82,82,79,1,fourthree,,,,,,,,,,,,,,,,,,,,,,,,,,,,,,,,,,,,,,,,,,,,,,,,,,,,,,,,,,,,,,,,,,,,,,,,,,,,,,,,,,,,,,,,,,,,,,,,,,,,,,,,,,,,,,,,,,,,,,,,,,,,,,,,,,,,,,,,,,,,,,,,,,,,,,,,,,,,,
,,,,,,60e9ea97d19e613e60a994da,62c53aad9cc59c4ecebc80f6,2022-07-06_09h34.11.786,Colour_Asymmetry_Pilot,2022.1.3,Win32,60.03121623,62c50e9c1127f2cd403a315f,0,83,83,77,1,threefour,,,,,,,,,,,,,,,,,,,,,,,,,,,,,,,,,,,,,,,,,,,,,,,,,,,,,,,,,,,,,,,,,,,,,,,,,,,,,,,,,,,,,,,,,,,,,,,,,,,,,,,,,,,,,,,,,,,,,,,,,,,,,,,,,,,,,,,,,,,,,,,,,,,,,,,,,,,,,
,,,,,,60e9ea97d19e613e60a994da,62c53aad9cc59c4ecebc80f6,2022-07-06_09h34.11.786,Colour_Asymmetry_Pilot,2022.1.3,Win32,60.03121623,62c50e9c1127f2cd403a315f,0,84,84,36,1,threeone,,,,,,,,,,,,,,,,,,,,,,,,,,,,,,,,,,,,,,,,,,,,,,,,,,,,,,,,,,,,,,,,,,,,,,,,,,,,,,,,,,,,,,,,,,,,,,,,,,,,,,,,,,,,,,,,,,,,,,,,,,,,,,,,,,,,,,,,,,,,,,,,,,,,,,,,,,,,,
,,,,,,60e9ea97d19e613e60a994da,62c53aad9cc59c4ecebc80f6,2022-07-06_09h34.11.786,Colour_Asymmetry_Pilot,2022.1.3,Win32,60.03121623,62c50e9c1127f2cd403a315f,0,85,85,104,1,onetwo,,,,,,,,,,,,,,,,,,,,,,,,,,,,,,,,,,,,,,,,,,,,,,,,,,,,,,,,,,,,,,,,,,,,,,,,,,,,,,,,,,,,,,,,,,,,,,,,,,,,,,,,,,,,,,,,,,,,,,,,,,,,,,,,,,,,,,,,,,,,,,,,,,,,,,,,,,,,,
,,,,,,60e9ea97d19e613e60a994da,62c53aad9cc59c4ecebc80f6,2022-07-06_09h34.11.786,Colour_Asymmetry_Pilot,2022.1.3,Win32,60.03121623,62c50e9c1127f2cd403a315f,0,86,86,83,1,twofour,,,,,,,,,,,,,,,,,,,,,,,,,,,,,,,,,,,,,,,,,,,,,,,,,,,,,,,,,,,,,,,,,,,,,,,,,,,,,,,,,,,,,,,,,,,,,,,,,,,,,,,,,,,,,,,,,,,,,,,,,,,,,,,,,,,,,,,,,,,,,,,,,,,,,,,,,,,,,
,,,,,,60e9ea97d19e613e60a994da,62c53aad9cc59c4ecebc80f6,2022-07-06_09h34.11.786,Colour_Asymmetry_Pilot,2022.1.3,Win32,60.03121623,62c50e9c1127f2cd403a315f,0,87,87,70,1,fourtwo,,,,,,,,,,,,,,,,,,,,,,,,,,,,,,,,,,,,,,,,,,,,,,,,,,,,,,,,,,,,,,,,,,,,,,,,,,,,,,,,,,,,,,,,,,,,,,,,,,,,,,,,,,,,,,,,,,,,,,,,,,,,,,,,,,,,,,,,,,,,,,,,,,,,,,,,,,,,,
,,,,,,60e9ea97d19e613e60a994da,62c53aad9cc59c4ecebc80f6,2022-07-06_09h34.11.786,Colour_Asymmetry_Pilot,2022.1.3,Win32,60.03121623,62c50e9c1127f2cd403a315f,0,88,88,145,1,onethree,,,,,,,,,,,,,,,,,,,,,,,,,,,,,,,,,,,,,,,,,,,,,,,,,,,,,,,,,,,,,,,,,,,,,,,,,,,,,,,,,,,,,,,,,,,,,,,,,,,,,,,,,,,,,,,,,,,,,,,,,,,,,,,,,,,,,,,,,,,,,,,,,,,,,,,,,,,,,
,,,,,,60e9ea97d19e613e60a994da,62c53aad9cc59c4ecebc80f6,2022-07-06_09h34.11.786,Colour_Asymmetry_Pilot,2022.1.3,Win32,60.03121623,62c50e9c1127f2cd403a315f,0,89,89,140,1,threeone,,,,,,,,,,,,,,,,,,,,,,,,,,,,,,,,,,,,,,,,,,,,,,,,,,,,,,,,,,,,,,,,,,,,,,,,,,,,,,,,,,,,,,,,,,,,,,,,,,,,,,,,,,,,,,,,,,,,,,,,,,,,,,,,,,,,,,,,,,,,,,,,,,,,,,,,,,,,,
,,,,,,60e9ea97d19e613e60a994da,62c53aad9cc59c4ecebc80f6,2022-07-06_09h34.11.786,Colour_Asymmetry_Pilot,2022.1.3,Win32,60.03121623,62c50e9c1127f2cd403a315f,0,90,90,64,1,onetwo,,,,,,,,,,,,,,,,,,,,,,,,,,,,,,,,,,,,,,,,,,,,,,,,,,,,,,,,,,,,,,,,,,,,,,,,,,,,,,,,,,,,,,,,,,,,,,,,,,,,,,,,,,,,,,,,,,,,,,,,,,,,,,,,,,,,,,,,,,,,,,,,,,,,,,,,,,,,,
,,,,,,60e9ea97d19e613e60a994da,62c53aad9cc59c4ecebc80f6,2022-07-06_09h34.11.786,Colour_Asymmetry_Pilot,2022.1.3,Win32,60.03121623,62c50e9c1127f2cd403a315f,0,91,91,27,1,twofour,,,,,,,,,,,,,,,,,,,,,,,,,,,,,,,,,,,,,,,,,,,,,,,,,,,,,,,,,,,,,,,,,,,,,,,,,,,,,,,,,,,,,,,,,,,,,,,,,,,,,,,,,,,,,,,,,,,,,,,,,,,,,,,,,,,,,,,,,,,,,,,,,,,,,,,,,,,,,
,,,,,,60e9ea97d19e613e60a994da,62c53aad9cc59c4ecebc80f6,2022-07-06_09h34.11.786,Colour_Asymmetry_Pilot,2022.1.3,Win32,60.03121623,62c50e9c1127f2cd403a315f,0,92,92,149,1,threefour,,,,,,,,,,,,,,,,,,,,,,,,,,,,,,,,,,,,,,,,,,,,,,,,,,,,,,,,,,,,,,,,,,,,,,,,,,,,,,,,,,,,,,,,,,,,,,,,,,,,,,,,,,,,,,,,,,,,,,,,,,,,,,,,,,,,,,,,,,,,,,,,,,,,,,,,,,,,,
,,,,,,60e9ea97d19e613e60a994da,62c53aad9cc59c4ecebc80f6,2022-07-06_09h34.11.786,Colour_Asymmetry_Pilot,2022.1.3,Win32,60.03121623,62c50e9c1127f2cd403a315f,0,93,93,24,1,onetwo,,,,,,,,,,,,,,,,,,,,,,,,,,,,,,,,,,,,,,,,,,,,,,,,,,,,,,,,,,,,,,,,,,,,,,,,,,,,,,,,,,,,,,,,,,,,,,,,,,,,,,,,,,,,,,,,,,,,,,,,,,,,,,,,,,,,,,,,,,,,,,,,,,,,,,,,,,,,,
,,,,,,60e9ea97d19e613e60a994da,62c53aad9cc59c4ecebc80f6,2022-07-06_09h34.11.786,Colour_Asymmetry_Pilot,2022.1.3,Win32,60.03121623,62c50e9c1127f2cd403a315f,0,94,94,114,1,twoone,,,,,,,,,,,,,,,,,,,,,,,,,,,,,,,,,,,,,,,,,,,,,,,,,,,,,,,,,,,,,,,,,,,,,,,,,,,,,,,,,,,,,,,,,,,,,,,,,,,,,,,,,,,,,,,,,,,,,,,,,,,,,,,,,,,,,,,,,,,,,,,,,,,,,,,,,,,,,
,,,,,,60e9ea97d19e613e60a994da,62c53aad9cc59c4ecebc80f6,2022-07-06_09h34.11.786,Colour_Asymmetry_Pilot,2022.1.3,Win32,60.03121623,62c50e9c1127f2cd403a315f,0,95,95,39,1,fourthree,,,,,,,,,,,,,,,,,,,,,,,,,,,,,,,,,,,,,,,,,,,,,,,,,,,,,,,,,,,,,,,,,,,,,,,,,,,,,,,,,,,,,,,,,,,,,,,,,,,,,,,,,,,,,,,,,,,,,,,,,,,,,,,,,,,,,,,,,,,,,,,,,,,,,,,,,,,,,
,,,,,,60e9ea97d19e613e60a994da,62c53aad9cc59c4ecebc80f6,2022-07-06_09h34.11.786,Colour_Asymmetry_Pilot,2022.1.3,Win32,60.03121623,62c50e9c1127f2cd403a315f,0,96,96,40,1,onetwo,,,,,,,,,,,,,,,,,,,,,,,,,,,,,,,,,,,,,,,,,,,,,,,,,,,,,,,,,,,,,,,,,,,,,,,,,,,,,,,,,,,,,,,,,,,,,,,,,,,,,,,,,,,,,,,,,,,,,,,,,,,,,,,,,,,,,,,,,,,,,,,,,,,,,,,,,,,,,
,,,,,,60e9ea97d19e613e60a994da,62c53aad9cc59c4ecebc80f6,2022-07-06_09h34.11.786,Colour_Asymmetry_Pilot,2022.1.3,Win32,60.03121623,62c50e9c1127f2cd403a315f,0,97,97,58,1,twoone,,,,,,,,,,,,,,,,,,,,,,,,,,,,,,,,,,,,,,,,,,,,,,,,,,,,,,,,,,,,,,,,,,,,,,,,,,,,,,,,,,,,,,,,,,,,,,,,,,,,,,,,,,,,,,,,,,,,,,,,,,,,,,,,,,,,,,,,,,,,,,,,,,,,,,,,,,,,,
,,,,,,60e9ea97d19e613e60a994da,62c53aad9cc59c4ecebc80f6,2022-07-06_09h34.11.786,Colour_Asymmetry_Pilot,2022.1.3,Win32,60.03121623,62c50e9c1127f2cd403a315f,0,98,98,143,1,fourthree,,,,,,,,,,,,,,,,,,,,,,,,,,,,,,,,,,,,,,,,,,,,,,,,,,,,,,,,,,,,,,,,,,,,,,,,,,,,,,,,,,,,,,,,,,,,,,,,,,,,,,,,,,,,,,,,,,,,,,,,,,,,,,,,,,,,,,,,,,,,,,,,,,,,,,,,,,,,,
,,,,,,60e9ea97d19e613e60a994da,62c53aad9cc59c4ecebc80f6,2022-07-06_09h34.11.786,Colour_Asymmetry_Pilot,2022.1.3,Win32,60.03121623,62c50e9c1127f2cd403a315f,0,99,99,94,1,fourtwo,,,,,,,,,,,,,,,,,,,,,,,,,,,,,,,,,,,,,,,,,,,,,,,,,,,,,,,,,,,,,,,,,,,,,,,,,,,,,,,,,,,,,,,,,,,,,,,,,,,,,,,,,,,,,,,,,,,,,,,,,,,,,,,,,,,,,,,,,,,,,,,,,,,,,,,,,,,,,
,,,,,,60e9ea97d19e613e60a994da,62c53aad9cc59c4ecebc80f6,2022-07-06_09h34.11.786,Colour_Asymmetry_Pilot,2022.1.3,Win32,60.03121623,62c50e9c1127f2cd403a315f,0,100,100,116,1,threeone,,,,,,,,,,,,,,,,,,,,,,,,,,,,,,,,,,,,,,,,,,,,,,,,,,,,,,,,,,,,,,,,,,,,,,,,,,,,,,,,,,,,,,,,,,,,,,,,,,,,,,,,,,,,,,,,,,,,,,,,,,,,,,,,,,,,,,,,,,,,,,,,,,,,,,,,,,,,,
,,,,,,60e9ea97d19e613e60a994da,62c53aad9cc59c4ecebc80f6,2022-07-06_09h34.11.786,Colour_Asymmetry_Pilot,2022.1.3,Win32,60.03121623,62c50e9c1127f2cd403a315f,0,101,101,69,1,threefour,,,,,,,,,,,,,,,,,,,,,,,,,,,,,,,,,,,,,,,,,,,,,,,,,,,,,,,,,,,,,,,,,,,,,,,,,,,,,,,,,,,,,,,,,,,,,,,,,,,,,,,,,,,,,,,,,,,,,,,,,,,,,,,,,,,,,,,,,,,,,,,,,,,,,,,,,,,,,
,,,,,,60e9ea97d19e613e60a994da,62c53aad9cc59c4ecebc80f6,2022-07-06_09h34.11.786,Colour_Asymmetry_Pilot,2022.1.3,Win32,60.03121623,62c50e9c1127f2cd403a315f,0,102,102,32,1,onetwo,,,,,,,,,,,,,,,,,,,,,,,,,,,,,,,,,,,,,,,,,,,,,,,,,,,,,,,,,,,,,,,,,,,,,,,,,,,,,,,,,,,,,,,,,,,,,,,,,,,,,,,,,,,,,,,,,,,,,,,,,,,,,,,,,,,,,,,,,,,,,,,,,,,,,,,,,,,,,
,,,,,,60e9ea97d19e613e60a994da,62c53aad9cc59c4ecebc80f6,2022-07-06_09h34.11.786,Colour_Asymmetry_Pilot,2022.1.3,Win32,60.03121623,62c50e9c1127f2cd403a315f,0,103,103,89,1,onethree,,,,,,,,,,,,,,,,,,,,,,,,,,,,,,,,,,,,,,,,,,,,,,,,,,,,,,,,,,,,,,,,,,,,,,,,,,,,,,,,,,,,,,,,,,,,,,,,,,,,,,,,,,,,,,,,,,,,,,,,,,,,,,,,,,,,,,,,,,,,,,,,,,,,,,,,,,,,,
,,,,,,60e9ea97d19e613e60a994da,62c53aad9cc59c4ecebc80f6,2022-07-06_09h34.11.786,Colour_Asymmetry_Pilot,2022.1.3,Win32,60.03121623,62c50e9c1127f2cd403a315f,0,104,104,56,1,onetwo,,,,,,,,,,,,,,,,,,,,,,,,,,,,,,,,,,,,,,,,,,,,,,,,,,,,,,,,,,,,,,,,,,,,,,,,,,,,,,,,,,,,,,,,,,,,,,,,,,,,,,,,,,,,,,,,,,,,,,,,,,,,,,,,,,,,,,,,,,,,,,,,,,,,,,,,,,,,,
,,,,,,60e9ea97d19e613e60a994da,62c53aad9cc59c4ecebc80f6,2022-07-06_09h34.11.786,Colour_Asymmetry_Pilot,2022.1.3,Win32,60.03121623,62c50e9c1127f2cd403a315f,0,105,105,113,1,onethree,,,,,,,,,,,,,,,,,,,,,,,,,,,,,,,,,,,,,,,,,,,,,,,,,,,,,,,,,,,,,,,,,,,,,,,,,,,,,,,,,,,,,,,,,,,,,,,,,,,,,,,,,,,,,,,,,,,,,,,,,,,,,,,,,,,,,,,,,,,,,,,,,,,,,,,,,,,,,
,,,,,,60e9ea97d19e613e60a994da,62c53aad9cc59c4ecebc80f6,2022-07-06_09h34.11.786,Colour_Asymmetry_Pilot,2022.1.3,Win32,60.03121623,62c50e9c1127f2cd403a315f,0,106,106,91,1,twofour,,,,,,,,,,,,,,,,,,,,,,,,,,,,,,,,,,,,,,,,,,,,,,,,,,,,,,,,,,,,,,,,,,,,,,,,,,,,,,,,,,,,,,,,,,,,,,,,,,,,,,,,,,,,,,,,,,,,,,,,,,,,,,,,,,,,,,,,,,,,,,,,,,,,,,,,,,,,,
,,,,,,60e9ea97d19e613e60a994da,62c53aad9cc59c4ecebc80f6,2022-07-06_09h34.11.786,Colour_Asymmetry_Pilot,2022.1.3,Win32,60.03121623,62c50e9c1127f2cd403a315f,0,107,107,121,1,onethree,,,,,,,,,,,,,,,,,,,,,,,,,,,,,,,,,,,,,,,,,,,,,,,,,,,,,,,,,,,,,,,,,,,,,,,,,,,,,,,,,,,,,,,,,,,,,,,,,,,,,,,,,,,,,,,,,,,,,,,,,,,,,,,,,,,,,,,,,,,,,,,,,,,,,,,,,,,,,
,,,,,,60e9ea97d19e613e60a994da,62c53aad9cc59c4ecebc80f6,2022-07-06_09h34.11.786,Colour_Asymmetry_Pilot,2022.1.3,Win32,60.03121623,62c50e9c1127f2cd403a315f,0,108,108,131,1,twofour,,,,,,,,,,,,,,,,,,,,,,,,,,,,,,,,,,,,,,,,,,,,,,,,,,,,,,,,,,,,,,,,,,,,,,,,,,,,,,,,,,,,,,,,,,,,,,,,,,,,,,,,,,,,,,,,,,,,,,,,,,,,,,,,,,,,,,,,,,,,,,,,,,,,,,,,,,,,,
,,,,,,60e9ea97d19e613e60a994da,62c53aad9cc59c4ecebc80f6,2022-07-06_09h34.11.786,Colour_Asymmetry_Pilot,2022.1.3,Win32,60.03121623,62c50e9c1127f2cd403a315f,0,109,109,38,1,fourtwo,,,,,,,,,,,,,,,,,,,,,,,,,,,,,,,,,,,,,,,,,,,,,,,,,,,,,,,,,,,,,,,,,,,,,,,,,,,,,,,,,,,,,,,,,,,,,,,,,,,,,,,,,,,,,,,,,,,,,,,,,,,,,,,,,,,,,,,,,,,,,,,,,,,,,,,,,,,,,
,,,,,,60e9ea97d19e613e60a994da,62c53aad9cc59c4ecebc80f6,2022-07-06_09h34.11.786,Colour_Asymmetry_Pilot,2022.1.3,Win32,60.03121623,62c50e9c1127f2cd403a315f,0,110,110,148,1,threeone,,,,,,,,,,,,,,,,,,,,,,,,,,,,,,,,,,,,,,,,,,,,,,,,,,,,,,,,,,,,,,,,,,,,,,,,,,,,,,,,,,,,,,,,,,,,,,,,,,,,,,,,,,,,,,,,,,,,,,,,,,,,,,,,,,,,,,,,,,,,,,,,,,,,,,,,,,,,,
,,,,,,60e9ea97d19e613e60a994da,62c53aad9cc59c4ecebc80f6,2022-07-06_09h34.11.786,Colour_Asymmetry_Pilot,2022.1.3,Win32,60.03121623,62c50e9c1127f2cd403a315f,0,111,111,78,1,fourtwo,,,,,,,,,,,,,,,,,,,,,,,,,,,,,,,,,,,,,,,,,,,,,,,,,,,,,,,,,,,,,,,,,,,,,,,,,,,,,,,,,,,,,,,,,,,,,,,,,,,,,,,,,,,,,,,,,,,,,,,,,,,,,,,,,,,,,,,,,,,,,,,,,,,,,,,,,,,,,
,,,,,,60e9ea97d19e613e60a994da,62c53aad9cc59c4ecebc80f6,2022-07-06_09h34.11.786,Colour_Asymmetry_Pilot,2022.1.3,Win32,60.03121623,62c50e9c1127f2cd403a315f,0,112,112,20,1,threeone,,,,,,,,,,,,,,,,,,,,,,,,,,,,,,,,,,,,,,,,,,,,,,,,,,,,,,,,,,,,,,,,,,,,,,,,,,,,,,,,,,,,,,,,,,,,,,,,,,,,,,,,,,,,,,,,,,,,,,,,,,,,,,,,,,,,,,,,,,,,,,,,,,,,,,,,,,,,,
,,,,,,60e9ea97d19e613e60a994da,62c53aad9cc59c4ecebc80f6,2022-07-06_09h34.11.786,Colour_Asymmetry_Pilot,2022.1.3,Win32,60.03121623,62c50e9c1127f2cd403a315f,0,113,113,73,1,onethree,,,,,,,,,,,,,,,,,,,,,,,,,,,,,,,,,,,,,,,,,,,,,,,,,,,,,,,,,,,,,,,,,,,,,,,,,,,,,,,,,,,,,,,,,,,,,,,,,,,,,,,,,,,,,,,,,,,,,,,,,,,,,,,,,,,,,,,,,,,,,,,,,,,,,,,,,,,,,
,,,,,,60e9ea97d19e613e60a994da,62c53aad9cc59c4ecebc80f6,2022-07-06_09h34.11.786,Colour_Asymmetry_Pilot,2022.1.3,Win32,60.03121623,62c50e9c1127f2cd403a315f,0,114,114,98,1,twoone,,,,,,,,,,,,,,,,,,,,,,,,,,,,,,,,,,,,,,,,,,,,,,,,,,,,,,,,,,,,,,,,,,,,,,,,,,,,,,,,,,,,,,,,,,,,,,,,,,,,,,,,,,,,,,,,,,,,,,,,,,,,,,,,,,,,,,,,,,,,,,,,,,,,,,,,,,,,,
,,,,,,60e9ea97d19e613e60a994da,62c53aad9cc59c4ecebc80f6,2022-07-06_09h34.11.786,Colour_Asymmetry_Pilot,2022.1.3,Win32,60.03121623,62c50e9c1127f2cd403a315f,0,115,115,158,1,fourtwo,,,,,,,,,,,,,,,,,,,,,,,,,,,,,,,,,,,,,,,,,,,,,,,,,,,,,,,,,,,,,,,,,,,,,,,,,,,,,,,,,,,,,,,,,,,,,,,,,,,,,,,,,,,,,,,,,,,,,,,,,,,,,,,,,,,,,,,,,,,,,,,,,,,,,,,,,,,,,
,,,,,,60e9ea97d19e613e60a994da,62c53aad9cc59c4ecebc80f6,2022-07-06_09h34.11.786,Colour_Asymmetry_Pilot,2022.1.3,Win32,60.03121623,62c50e9c1127f2cd403a315f,0,116,116,44,1,threeone,,,,,,,,,,,,,,,,,,,,,,,,,,,,,,,,,,,,,,,,,,,,,,,,,,,,,,,,,,,,,,,,,,,,,,,,,,,,,,,,,,,,,,,,,,,,,,,,,,,,,,,,,,,,,,,,,,,,,,,,,,,,,,,,,,,,,,,,,,,,,,,,,,,,,,,,,,,,,
,,,,,,60e9ea97d19e613e60a994da,62c53aad9cc59c4ecebc80f6,2022-07-06_09h34.11.786,Colour_Asymmetry_Pilot,2022.1.3,Win32,60.03121623,62c50e9c1127f2cd403a315f,0,117,117,14,1,fourtwo,,,,,,,,,,,,,,,,,,,,,,,,,,,,,,,,,,,,,,,,,,,,,,,,,,,,,,,,,,,,,,,,,,,,,,,,,,,,,,,,,,,,,,,,,,,,,,,,,,,,,,,,,,,,,,,,,,,,,,,,,,,,,,,,,,,,,,,,,,,,,,,,,,,,,,,,,,,,,
,,,,,,60e9ea97d19e613e60a994da,62c53aad9cc59c4ecebc80f6,2022-07-06_09h34.11.786,Colour_Asymmetry_Pilot,2022.1.3,Win32,60.03121623,62c50e9c1127f2cd403a315f,0,118,118,76,1,threeone,,,,,,,,,,,,,,,,,,,,,,,,,,,,,,,,,,,,,,,,,,,,,,,,,,,,,,,,,,,,,,,,,,,,,,,,,,,,,,,,,,,,,,,,,,,,,,,,,,,,,,,,,,,,,,,,,,,,,,,,,,,,,,,,,,,,,,,,,,,,,,,,,,,,,,,,,,,,,
,,,,,,60e9ea97d19e613e60a994da,62c53aad9cc59c4ecebc80f6,2022-07-06_09h34.11.786,Colour_Asymmetry_Pilot,2022.1.3,Win32,60.03121623,62c50e9c1127f2cd403a315f,0,119,119,101,1,threefour,,,,,,,,,,,,,,,,,,,,,,,,,,,,,,,,,,,,,,,,,,,,,,,,,,,,,,,,,,,,,,,,,,,,,,,,,,,,,,,,,,,,,,,,,,,,,,,,,,,,,,,,,,,,,,,,,,,,,,,,,,,,,,,,,,,,,,,,,,,,,,,,,,,,,,,,,,,,,
,,,,,,60e9ea97d19e613e60a994da,62c53aad9cc59c4ecebc80f6,2022-07-06_09h34.11.786,Colour_Asymmetry_Pilot,2022.1.3,Win32,60.03121623,62c50e9c1127f2cd403a315f,0,120,120,28,1,threeone,,,,,,,,,,,,,,,,,,,,,,,,,,,,,,,,,,,,,,,,,,,,,,,,,,,,,,,,,,,,,,,,,,,,,,,,,,,,,,,,,,,,,,,,,,,,,,,,,,,,,,,,,,,,,,,,,,,,,,,,,,,,,,,,,,,,,,,,,,,,,,,,,,,,,,,,,,,,,
,,,,,,60e9ea97d19e613e60a994da,62c53aad9cc59c4ecebc80f6,2022-07-06_09h34.11.786,Colour_Asymmetry_Pilot,2022.1.3,Win32,60.03121623,62c50e9c1127f2cd403a315f,0,121,121,4,1,threeone,,,,,,,,,,,,,,,,,,,,,,,,,,,,,,,,,,,,,,,,,,,,,,,,,,,,,,,,,,,,,,,,,,,,,,,,,,,,,,,,,,,,,,,,,,,,,,,,,,,,,,,,,,,,,,,,,,,,,,,,,,,,,,,,,,,,,,,,,,,,,,,,,,,,,,,,,,,,,
,,,,,,60e9ea97d19e613e60a994da,62c53aad9cc59c4ecebc80f6,2022-07-06_09h34.11.786,Colour_Asymmetry_Pilot,2022.1.3,Win32,60.03121623,62c50e9c1127f2cd403a315f,0,122,122,130,1,twoone,,,,,,,,,,,,,,,,,,,,,,,,,,,,,,,,,,,,,,,,,,,,,,,,,,,,,,,,,,,,,,,,,,,,,,,,,,,,,,,,,,,,,,,,,,,,,,,,,,,,,,,,,,,,,,,,,,,,,,,,,,,,,,,,,,,,,,,,,,,,,,,,,,,,,,,,,,,,,
,,,,,,60e9ea97d19e613e60a994da,62c53aad9cc59c4ecebc80f6,2022-07-06_09h34.11.786,Colour_Asymmetry_Pilot,2022.1.3,Win32,60.03121623,62c50e9c1127f2cd403a315f,0,123,123,61,1,threefour,,,,,,,,,,,,,,,,,,,,,,,,,,,,,,,,,,,,,,,,,,,,,,,,,,,,,,,,,,,,,,,,,,,,,,,,,,,,,,,,,,,,,,,,,,,,,,,,,,,,,,,,,,,,,,,,,,,,,,,,,,,,,,,,,,,,,,,,,,,,,,,,,,,,,,,,,,,,,
,,,,,,60e9ea97d19e613e60a994da,62c53aad9cc59c4ecebc80f6,2022-07-06_09h34.11.786,Colour_Asymmetry_Pilot,2022.1.3,Win32,60.03121623,62c50e9c1127f2cd403a315f,0,124,124,155,1,twofour,,,,,,,,,,,,,,,,,,,,,,,,,,,,,,,,,,,,,,,,,,,,,,,,,,,,,,,,,,,,,,,,,,,,,,,,,,,,,,,,,,,,,,,,,,,,,,,,,,,,,,,,,,,,,,,,,,,,,,,,,,,,,,,,,,,,,,,,,,,,,,,,,,,,,,,,,,,,,
,,,,,,60e9ea97d19e613e60a994da,62c53aad9cc59c4ecebc80f6,2022-07-06_09h34.11.786,Colour_Asymmetry_Pilot,2022.1.3,Win32,60.03121623,62c50e9c1127f2cd403a315f,0,125,125,126,1,fourtwo,,,,,,,,,,,,,,,,,,,,,,,,,,,,,,,,,,,,,,,,,,,,,,,,,,,,,,,,,,,,,,,,,,,,,,,,,,,,,,,,,,,,,,,,,,,,,,,,,,,,,,,,,,,,,,,,,,,,,,,,,,,,,,,,,,,,,,,,,,,,,,,,,,,,,,,,,,,,,
,,,,,,60e9ea97d19e613e60a994da,62c53aad9cc59c4ecebc80f6,2022-07-06_09h34.11.786,Colour_Asymmetry_Pilot,2022.1.3,Win32,60.03121623,62c50e9c1127f2cd403a315f,0,126,126,159,1,fourthree,,,,,,,,,,,,,,,,,,,,,,,,,,,,,,,,,,,,,,,,,,,,,,,,,,,,,,,,,,,,,,,,,,,,,,,,,,,,,,,,,,,,,,,,,,,,,,,,,,,,,,,,,,,,,,,,,,,,,,,,,,,,,,,,,,,,,,,,,,,,,,,,,,,,,,,,,,,,,
,,,,,,60e9ea97d19e613e60a994da,62c53aad9cc59c4ecebc80f6,2022-07-06_09h34.11.786,Colour_Asymmetry_Pilot,2022.1.3,Win32,60.03121623,62c50e9c1127f2cd403a315f,0,127,127,9,1,onethree,,,,,,,,,,,,,,,,,,,,,,,,,,,,,,,,,,,,,,,,,,,,,,,,,,,,,,,,,,,,,,,,,,,,,,,,,,,,,,,,,,,,,,,,,,,,,,,,,,,,,,,,,,,,,,,,,,,,,,,,,,,,,,,,,,,,,,,,,,,,,,,,,,,,,,,,,,,,,
,,,,,,60e9ea97d19e613e60a994da,62c53aad9cc59c4ecebc80f6,2022-07-06_09h34.11.786,Colour_Asymmetry_Pilot,2022.1.3,Win32,60.03121623,62c50e9c1127f2cd403a315f,0,128,128,26,1,twoone,,,,,,,,,,,,,,,,,,,,,,,,,,,,,,,,,,,,,,,,,,,,,,,,,,,,,,,,,,,,,,,,,,,,,,,,,,,,,,,,,,,,,,,,,,,,,,,,,,,,,,,,,,,,,,,,,,,,,,,,,,,,,,,,,,,,,,,,,,,,,,,,,,,,,,,,,,,,,
,,,,,,60e9ea97d19e613e60a994da,62c53aad9cc59c4ecebc80f6,2022-07-06_09h34.11.786,Colour_Asymmetry_Pilot,2022.1.3,Win32,60.03121623,62c50e9c1127f2cd403a315f,0,129,129,30,1,fourtwo,,,,,,,,,,,,,,,,,,,,,,,,,,,,,,,,,,,,,,,,,,,,,,,,,,,,,,,,,,,,,,,,,,,,,,,,,,,,,,,,,,,,,,,,,,,,,,,,,,,,,,,,,,,,,,,,,,,,,,,,,,,,,,,,,,,,,,,,,,,,,,,,,,,,,,,,,,,,,
,,,,,,60e9ea97d19e613e60a994da,62c53aad9cc59c4ecebc80f6,2022-07-06_09h34.11.786,Colour_Asymmetry_Pilot,2022.1.3,Win32,60.03121623,62c50e9c1127f2cd403a315f,0,130,130,48,1,onetwo,,,,,,,,,,,,,,,,,,,,,,,,,,,,,,,,,,,,,,,,,,,,,,,,,,,,,,,,,,,,,,,,,,,,,,,,,,,,,,,,,,,,,,,,,,,,,,,,,,,,,,,,,,,,,,,,,,,,,,,,,,,,,,,,,,,,,,,,,,,,,,,,,,,,,,,,,,,,,
,,,,,,60e9ea97d19e613e60a994da,62c53aad9cc59c4ecebc80f6,2022-07-06_09h34.11.786,Colour_Asymmetry_Pilot,2022.1.3,Win32,60.03121623,62c50e9c1127f2cd403a315f,0,131,131,52,1,threeone,,,,,,,,,,,,,,,,,,,,,,,,,,,,,,,,,,,,,,,,,,,,,,,,,,,,,,,,,,,,,,,,,,,,,,,,,,,,,,,,,,,,,,,,,,,,,,,,,,,,,,,,,,,,,,,,,,,,,,,,,,,,,,,,,,,,,,,,,,,,,,,,,,,,,,,,,,,,,
,,,,,,60e9ea97d19e613e60a994da,62c53aad9cc59c4ecebc80f6,2022-07-06_09h34.11.786,Colour_Asymmetry_Pilot,2022.1.3,Win32,60.03121623,62c50e9c1127f2cd403a315f,0,132,132,84,1,threeone,,,,,,,,,,,,,,,,,,,,,,,,,,,,,,,,,,,,,,,,,,,,,,,,,,,,,,,,,,,,,,,,,,,,,,,,,,,,,,,,,,,,,,,,,,,,,,,,,,,,,,,,,,,,,,,,,,,,,,,,,,,,,,,,,,,,,,,,,,,,,,,,,,,,,,,,,,,,,
,,,,,,60e9ea97d19e613e60a994da,62c53aad9cc59c4ecebc80f6,2022-07-06_09h34.11.786,Colour_Asymmetry_Pilot,2022.1.3,Win32,60.03121623,62c50e9c1127f2cd403a315f,0,133,133,141,1,threefour,,,,,,,,,,,,,,,,,,,,,,,,,,,,,,,,,,,,,,,,,,,,,,,,,,,,,,,,,,,,,,,,,,,,,,,,,,,,,,,,,,,,,,,,,,,,,,,,,,,,,,,,,,,,,,,,,,,,,,,,,,,,,,,,,,,,,,,,,,,,,,,,,,,,,,,,,,,,,
,,,,,,60e9ea97d19e613e60a994da,62c53aad9cc59c4ecebc80f6,2022-07-06_09h34.11.786,Colour_Asymmetry_Pilot,2022.1.3,Win32,60.03121623,62c50e9c1127f2cd403a315f,0,134,134,47,1,fourthree,,,,,,,,,,,,,,,,,,,,,,,,,,,,,,,,,,,,,,,,,,,,,,,,,,,,,,,,,,,,,,,,,,,,,,,,,,,,,,,,,,,,,,,,,,,,,,,,,,,,,,,,,,,,,,,,,,,,,,,,,,,,,,,,,,,,,,,,,,,,,,,,,,,,,,,,,,,,,
,,,,,,60e9ea97d19e613e60a994da,62c53aad9cc59c4ecebc80f6,2022-07-06_09h34.11.786,Colour_Asymmetry_Pilot,2022.1.3,Win32,60.03121623,62c50e9c1127f2cd403a315f,0,135,135,5,1,threefour,,,,,,,,,,,,,,,,,,,,,,,,,,,,,,,,,,,,,,,,,,,,,,,,,,,,,,,,,,,,,,,,,,,,,,,,,,,,,,,,,,,,,,,,,,,,,,,,,,,,,,,,,,,,,,,,,,,,,,,,,,,,,,,,,,,,,,,,,,,,,,,,,,,,,,,,,,,,,
,,,,,,60e9ea97d19e613e60a994da,62c53aad9cc59c4ecebc80f6,2022-07-06_09h34.11.786,Colour_Asymmetry_Pilot,2022.1.3,Win32,60.03121623,62c50e9c1127f2cd403a315f,0,136,136,37,1,threefour,,,,,,,,,,,,,,,,,,,,,,,,,,,,,,,,,,,,,,,,,,,,,,,,,,,,,,,,,,,,,,,,,,,,,,,,,,,,,,,,,,,,,,,,,,,,,,,,,,,,,,,,,,,,,,,,,,,,,,,,,,,,,,,,,,,,,,,,,,,,,,,,,,,,,,,,,,,,,
,,,,,,60e9ea97d19e613e60a994da,62c53aad9cc59c4ecebc80f6,2022-07-06_09h34.11.786,Colour_Asymmetry_Pilot,2022.1.3,Win32,60.03121623,62c50e9c1127f2cd403a315f,0,137,137,105,1,onethree,,,,,,,,,,,,,,,,,,,,,,,,,,,,,,,,,,,,,,,,,,,,,,,,,,,,,,,,,,,,,,,,,,,,,,,,,,,,,,,,,,,,,,,,,,,,,,,,,,,,,,,,,,,,,,,,,,,,,,,,,,,,,,,,,,,,,,,,,,,,,,,,,,,,,,,,,,,,,
,,,,,,60e9ea97d19e613e60a994da,62c53aad9cc59c4ecebc80f6,2022-07-06_09h34.11.786,Colour_Asymmetry_Pilot,2022.1.3,Win32,60.03121623,62c50e9c1127f2cd403a315f,0,138,138,129,1,onethree,,,,,,,,,,,,,,,,,,,,,,,,,,,,,,,,,,,,,,,,,,,,,,,,,,,,,,,,,,,,,,,,,,,,,,,,,,,,,,,,,,,,,,,,,,,,,,,,,,,,,,,,,,,,,,,,,,,,,,,,,,,,,,,,,,,,,,,,,,,,,,,,,,,,,,,,,,,,,
,,,,,,60e9ea97d19e613e60a994da,62c53aad9cc59c4ecebc80f6,2022-07-06_09h34.11.786,Colour_Asymmetry_Pilot,2022.1.3,Win32,60.03121623,62c50e9c1127f2cd403a315f,0,139,139,66,1,twoone,,,,,,,,,,,,,,,,,,,,,,,,,,,,,,,,,,,,,,,,,,,,,,,,,,,,,,,,,,,,,,,,,,,,,,,,,,,,,,,,,,,,,,,,,,,,,,,,,,,,,,,,,,,,,,,,,,,,,,,,,,,,,,,,,,,,,,,,,,,,,,,,,,,,,,,,,,,,,
,,,,,,60e9ea97d19e613e60a994da,62c53aad9cc59c4ecebc80f6,2022-07-06_09h34.11.786,Colour_Asymmetry_Pilot,2022.1.3,Win32,60.03121623,62c50e9c1127f2cd403a315f,0,140,140,31,1,fourthree,,,,,,,,,,,,,,,,,,,,,,,,,,,,,,,,,,,,,,,,,,,,,,,,,,,,,,,,,,,,,,,,,,,,,,,,,,,,,,,,,,,,,,,,,,,,,,,,,,,,,,,,,,,,,,,,,,,,,,,,,,,,,,,,,,,,,,,,,,,,,,,,,,,,,,,,,,,,,
,,,,,,60e9ea97d19e613e60a994da,62c53aad9cc59c4ecebc80f6,2022-07-06_09h34.11.786,Colour_Asymmetry_Pilot,2022.1.3,Win32,60.03121623,62c50e9c1127f2cd403a315f,0,141,141,156,1,threeone,,,,,,,,,,,,,,,,,,,,,,,,,,,,,,,,,,,,,,,,,,,,,,,,,,,,,,,,,,,,,,,,,,,,,,,,,,,,,,,,,,,,,,,,,,,,,,,,,,,,,,,,,,,,,,,,,,,,,,,,,,,,,,,,,,,,,,,,,,,,,,,,,,,,,,,,,,,,,
,,,,,,60e9ea97d19e613e60a994da,62c53aad9cc59c4ecebc80f6,2022-07-06_09h34.11.786,Colour_Asymmetry_Pilot,2022.1.3,Win32,60.03121623,62c50e9c1127f2cd403a315f,0,142,142,99,1,twofour,,,,,,,,,,,,,,,,,,,,,,,,,,,,,,,,,,,,,,,,,,,,,,,,,,,,,,,,,,,,,,,,,,,,,,,,,,,,,,,,,,,,,,,,,,,,,,,,,,,,,,,,,,,,,,,,,,,,,,,,,,,,,,,,,,,,,,,,,,,,,,,,,,,,,,,,,,,,,
,,,,,,60e9ea97d19e613e60a994da,62c53aad9cc59c4ecebc80f6,2022-07-06_09h34.11.786,Colour_Asymmetry_Pilot,2022.1.3,Win32,60.03121623,62c50e9c1127f2cd403a315f,0,143,143,138,1,twoone,,,,,,,,,,,,,,,,,,,,,,,,,,,,,,,,,,,,,,,,,,,,,,,,,,,,,,,,,,,,,,,,,,,,,,,,,,,,,,,,,,,,,,,,,,,,,,,,,,,,,,,,,,,,,,,,,,,,,,,,,,,,,,,,,,,,,,,,,,,,,,,,,,,,,,,,,,,,,
,,,,,,60e9ea97d19e613e60a994da,62c53aad9cc59c4ecebc80f6,2022-07-06_09h34.11.786,Colour_Asymmetry_Pilot,2022.1.3,Win32,60.03121623,62c50e9c1127f2cd403a315f,0,144,144,82,1,twoone,,,,,,,,,,,,,,,,,,,,,,,,,,,,,,,,,,,,,,,,,,,,,,,,,,,,,,,,,,,,,,,,,,,,,,,,,,,,,,,,,,,,,,,,,,,,,,,,,,,,,,,,,,,,,,,,,,,,,,,,,,,,,,,,,,,,,,,,,,,,,,,,,,,,,,,,,,,,,
,,,,,,60e9ea97d19e613e60a994da,62c53aad9cc59c4ecebc80f6,2022-07-06_09h34.11.786,Colour_Asymmetry_Pilot,2022.1.3,Win32,60.03121623,62c50e9c1127f2cd403a315f,0,145,145,154,1,twoone,,,,,,,,,,,,,,,,,,,,,,,,,,,,,,,,,,,,,,,,,,,,,,,,,,,,,,,,,,,,,,,,,,,,,,,,,,,,,,,,,,,,,,,,,,,,,,,,,,,,,,,,,,,,,,,,,,,,,,,,,,,,,,,,,,,,,,,,,,,,,,,,,,,,,,,,,,,,,
,,,,,,60e9ea97d19e613e60a994da,62c53aad9cc59c4ecebc80f6,2022-07-06_09h34.11.786,Colour_Asymmetry_Pilot,2022.1.3,Win32,60.03121623,62c50e9c1127f2cd403a315f,0,146,146,7,1,fourthree,,,,,,,,,,,,,,,,,,,,,,,,,,,,,,,,,,,,,,,,,,,,,,,,,,,,,,,,,,,,,,,,,,,,,,,,,,,,,,,,,,,,,,,,,,,,,,,,,,,,,,,,,,,,,,,,,,,,,,,,,,,,,,,,,,,,,,,,,,,,,,,,,,,,,,,,,,,,,
,,,,,,60e9ea97d19e613e60a994da,62c53aad9cc59c4ecebc80f6,2022-07-06_09h34.11.786,Colour_Asymmetry_Pilot,2022.1.3,Win32,60.03121623,62c50e9c1127f2cd403a315f,0,147,147,2,1,twoone,,,,,,,,,,,,,,,,,,,,,,,,,,,,,,,,,,,,,,,,,,,,,,,,,,,,,,,,,,,,,,,,,,,,,,,,,,,,,,,,,,,,,,,,,,,,,,,,,,,,,,,,,,,,,,,,,,,,,,,,,,,,,,,,,,,,,,,,,,,,,,,,,,,,,,,,,,,,,
,,,,,,60e9ea97d19e613e60a994da,62c53aad9cc59c4ecebc80f6,2022-07-06_09h34.11.786,Colour_Asymmetry_Pilot,2022.1.3,Win32,60.03121623,62c50e9c1127f2cd403a315f,0,148,148,81,1,onethree,,,,,,,,,,,,,,,,,,,,,,,,,,,,,,,,,,,,,,,,,,,,,,,,,,,,,,,,,,,,,,,,,,,,,,,,,,,,,,,,,,,,,,,,,,,,,,,,,,,,,,,,,,,,,,,,,,,,,,,,,,,,,,,,,,,,,,,,,,,,,,,,,,,,,,,,,,,,,
,,,,,,60e9ea97d19e613e60a994da,62c53aad9cc59c4ecebc80f6,2022-07-06_09h34.11.786,Colour_Asymmetry_Pilot,2022.1.3,Win32,60.03121623,62c50e9c1127f2cd403a315f,0,149,149,3,1,twofour,,,,,,,,,,,,,,,,,,,,,,,,,,,,,,,,,,,,,,,,,,,,,,,,,,,,,,,,,,,,,,,,,,,,,,,,,,,,,,,,,,,,,,,,,,,,,,,,,,,,,,,,,,,,,,,,,,,,,,,,,,,,,,,,,,,,,,,,,,,,,,,,,,,,,,,,,,,,,
,,,,,,60e9ea97d19e613e60a994da,62c53aad9cc59c4ecebc80f6,2022-07-06_09h34.11.786,Colour_Asymmetry_Pilot,2022.1.3,Win32,60.03121623,62c50e9c1127f2cd403a315f,0,150,150,72,1,onetwo,,,,,,,,,,,,,,,,,,,,,,,,,,,,,,,,,,,,,,,,,,,,,,,,,,,,,,,,,,,,,,,,,,,,,,,,,,,,,,,,,,,,,,,,,,,,,,,,,,,,,,,,,,,,,,,,,,,,,,,,,,,,,,,,,,,,,,,,,,,,,,,,,,,,,,,,,,,,,
,,,,,,60e9ea97d19e613e60a994da,62c53aad9cc59c4ecebc80f6,2022-07-06_09h34.11.786,Colour_Asymmetry_Pilot,2022.1.3,Win32,60.03121623,62c50e9c1127f2cd403a315f,0,151,151,95,1,fourthree,,,,,,,,,,,,,,,,,,,,,,,,,,,,,,,,,,,,,,,,,,,,,,,,,,,,,,,,,,,,,,,,,,,,,,,,,,,,,,,,,,,,,,,,,,,,,,,,,,,,,,,,,,,,,,,,,,,,,,,,,,,,,,,,,,,,,,,,,,,,,,,,,,,,,,,,,,,,,
,,,,,,60e9ea97d19e613e60a994da,62c53aad9cc59c4ecebc80f6,2022-07-06_09h34.11.786,Colour_Asymmetry_Pilot,2022.1.3,Win32,60.03121623,62c50e9c1127f2cd403a315f,0,152,152,139,1,twofour,,,,,,,,,,,,,,,,,,,,,,,,,,,,,,,,,,,,,,,,,,,,,,,,,,,,,,,,,,,,,,,,,,,,,,,,,,,,,,,,,,,,,,,,,,,,,,,,,,,,,,,,,,,,,,,,,,,,,,,,,,,,,,,,,,,,,,,,,,,,,,,,,,,,,,,,,,,,,
,,,,,,60e9ea97d19e613e60a994da,62c53aad9cc59c4ecebc80f6,2022-07-06_09h34.11.786,Colour_Asymmetry_Pilot,2022.1.3,Win32,60.03121623,62c50e9c1127f2cd403a315f,0,153,153,86,1,fourtwo,,,,,,,,,,,,,,,,,,,,,,,,,,,,,,,,,,,,,,,,,,,,,,,,,,,,,,,,,,,,,,,,,,,,,,,,,,,,,,,,,,,,,,,,,,,,,,,,,,,,,,,,,,,,,,,,,,,,,,,,,,,,,,,,,,,,,,,,,,,,,,,,,,,,,,,,,,,,,
,,,,,,60e9ea97d19e613e60a994da,62c53aad9cc59c4ecebc80f6,2022-07-06_09h34.11.786,Colour_Asymmetry_Pilot,2022.1.3,Win32,60.03121623,62c50e9c1127f2cd403a315f,0,154,154,71,1,fourthree,,,,,,,,,,,,,,,,,,,,,,,,,,,,,,,,,,,,,,,,,,,,,,,,,,,,,,,,,,,,,,,,,,,,,,,,,,,,,,,,,,,,,,,,,,,,,,,,,,,,,,,,,,,,,,,,,,,,,,,,,,,,,,,,,,,,,,,,,,,,,,,,,,,,,,,,,,,,,
,,,,,,60e9ea97d19e613e60a994da,62c53aad9cc59c4ecebc80f6,2022-07-06_09h34.11.786,Colour_Asymmetry_Pilot,2022.1.3,Win32,60.03121623,62c50e9c1127f2cd403a315f,0,155,155,34,1,twoone,,,,,,,,,,,,,,,,,,,,,,,,,,,,,,,,,,,,,,,,,,,,,,,,,,,,,,,,,,,,,,,,,,,,,,,,,,,,,,,,,,,,,,,,,,,,,,,,,,,,,,,,,,,,,,,,,,,,,,,,,,,,,,,,,,,,,,,,,,,,,,,,,,,,,,,,,,,,,
,,,,,,60e9ea97d19e613e60a994da,62c53aad9cc59c4ecebc80f6,2022-07-06_09h34.11.786,Colour_Asymmetry_Pilot,2022.1.3,Win32,60.03121623,62c50e9c1127f2cd403a315f,0,156,156,142,1,fourtwo,,,,,,,,,,,,,,,,,,,,,,,,,,,,,,,,,,,,,,,,,,,,,,,,,,,,,,,,,,,,,,,,,,,,,,,,,,,,,,,,,,,,,,,,,,,,,,,,,,,,,,,,,,,,,,,,,,,,,,,,,,,,,,,,,,,,,,,,,,,,,,,,,,,,,,,,,,,,,
,,,,,,60e9ea97d19e613e60a994da,62c53aad9cc59c4ecebc80f6,2022-07-06_09h34.11.786,Colour_Asymmetry_Pilot,2022.1.3,Win32,60.03121623,62c50e9c1127f2cd403a315f,0,157,157,15,1,fourthree,,,,,,,,,,,,,,,,,,,,,,,,,,,,,,,,,,,,,,,,,,,,,,,,,,,,,,,,,,,,,,,,,,,,,,,,,,,,,,,,,,,,,,,,,,,,,,,,,,,,,,,,,,,,,,,,,,,,,,,,,,,,,,,,,,,,,,,,,,,,,,,,,,,,,,,,,,,,,
,,,,,,60e9ea97d19e613e60a994da,62c53aad9cc59c4ecebc80f6,2022-07-06_09h34.11.786,Colour_Asymmetry_Pilot,2022.1.3,Win32,60.03121623,62c50e9c1127f2cd403a315f,0,158,158,134,1,fourtwo,,,,,,,,,,,,,,,,,,,,,,,,,,,,,,,,,,,,,,,,,,,,,,,,,,,,,,,,,,,,,,,,,,,,,,,,,,,,,,,,,,,,,,,,,,,,,,,,,,,,,,,,,,,,,,,,,,,,,,,,,,,,,,,,,,,,,,,,,,,,,,,,,,,,,,,,,,,,,
,,,,,,60e9ea97d19e613e60a994da,62c53aad9cc59c4ecebc80f6,2022-07-06_09h34.11.786,Colour_Asymmetry_Pilot,2022.1.3,Win32,60.03121623,62c50e9c1127f2cd403a315f,0,159,159,18,1,twoone,,,,,,,,,,,,,,,,,,,,,,,,,,,,,,,,,,,,,,,,,,,,,,,,,,,,,,,,,,,,,,,,,,,,,,,,,,,,,,,,,,,,,,,,,,,,,,,,,,,,,,,,,,,,,,,,,,,,,,,,,,,,,,,,,,,,,,,,,,,,,,,,,,,,,,,,,,,,,
,,,,,,60e9ea97d19e613e60a994da,62c53aad9cc59c4ecebc80f6,2022-07-06_09h34.11.786,Colour_Asymmetry_Pilot,2022.1.3,Win32,60.03121623,62c50e9c1127f2cd403a315f,0,160,160,75,1,twofour,,,,,,,,,,,,,,,,,,,,,,,,,,,,,,,,,,,,,,,,,,,,,,,,,,,,,,,,,,,,,,,,,,,,,,,,,,,,,,,,,,,,,,,,,,,,,,,,,,,,,,,,,,,,,,,,,,,,,,,,,,,,,,,,,,,,,,,,,,,,,,,,,,,,,,,,,,,,,
,,,,,,60e9ea97d19e613e60a994da,62c53aad9cc59c4ecebc80f6,2022-07-06_09h34.11.786,Colour_Asymmetry_Pilot,2022.1.3,Win32,60.03121623,62c50e9c1127f2cd403a315f,0,161,161,67,1,twofour,,,,,,,,,,,,,,,,,,,,,,,,,,,,,,,,,,,,,,,,,,,,,,,,,,,,,,,,,,,,,,,,,,,,,,,,,,,,,,,,,,,,,,,,,,,,,,,,,,,,,,,,,,,,,,,,,,,,,,,,,,,,,,,,,,,,,,,,,,,,,,,,,,,,,,,,,,,,,
,,,,,,60e9ea97d19e613e60a994da,62c53aad9cc59c4ecebc80f6,2022-07-06_09h34.11.786,Colour_Asymmetry_Pilot,2022.1.3,Win32,60.03121623,62c50e9c1127f2cd403a315f,,,,,,,space,9.2026,space,3.9116,space,42.8556,space,18.7792,space,7.3658,space,12.3394,"[-0.011800000000000033,-0.906,-0.45100000000000007]",fourthree,"[-0.34920000000000007,-0.702,-0.5216]",4,1.4492,36,88,1,0,0,response1disk_5,3,7,1,0,0,rectangle_8,80,39,1,0,0,response1disk_7,6,3,-12,-3,1,0,0,rectangle_4,0,0,0,0,1,,,,,,,,,,,,,,,,,,,,,,,,,,,,,,,,,,,,,,,,,,,,,,,,,,,,,,,,,,,,,,,,,,,,,,,,,,,,,,,,,,,,,,,,,,,,,,,,,,,,,,,,,,,,,
,,,,,,60e9ea97d19e613e60a994da,62c53aad9cc59c4ecebc80f6,2022-07-06_09h34.11.786,Colour_Asymmetry_Pilot,2022.1.3,Win32,60.03121623,62c50e9c1127f2cd403a315f,,,,,,,,,,,,,,,,,,,"[0.7646000000000002,0.07440000000000002,0.2704]",threeone,"[0.9213999999999998,0.6391999999999998,-0.9922]",-4,2.2503,-25,82,1,0,0,response7disk_5,-3,-1,1,0,0,rectangle_8,-3,-1,1,0,0,,,3,-3,-1,1,0,0,,1,0,1,0,1,,,,,,,,,,,,,,,,,,,,,,,,,,,,,,,,,,,,,,,,,,,,,,,,,,,,,,,,,,,,,,,,,,,,,,,,,,,,,,,,,,,,,,,,,,,,,,,,,,,,,,,,,,,,,
,,,,,,60e9ea97d19e613e60a994da,62c53aad9cc59c4ecebc80f6,2022-07-06_09h34.11.786,Colour_Asymmetry_Pilot,2022.1.3,Win32,60.03121623,62c50e9c1127f2cd403a315f,,,,,,,,,,,,,,,,,,,"[-0.9766,-0.6472,0.07440000000000002]",threefour,"[-0.26280000000000003,-0.4746,-0.2158]",-4,1.1999,-61,99,1,0,0,response7disk_5,1,3,1,0,0,rectangle_8,1,3,1,0,0,,,3,1,3,1,0,0,,2,0,2,0,1,,,,,,,,,,,,,,,,,,,,,,,,,,,,,,,,,,,,,,,,,,,,,,,,,,,,,,,,,,,,,,,,,,,,,,,,,,,,,,,,,,,,,,,,,,,,,,,,,,,,,,,,,,,,,
,,,,,,60e9ea97d19e613e60a994da,62c53aad9cc59c4ecebc80f6,2022-07-06_09h34.11.786,Colour_Asymmetry_Pilot,2022.1.3,Win32,60.03121623,62c50e9c1127f2cd403a315f,,,,,,,,,,,,,,,,,,,"[-0.34920000000000007,-0.702,-0.5216]",threefour,"[-0.45899999999999996,-0.3256,-0.9374]",-4,1.2305,-59,108,1,0,0,response7disk_5,3,-8,1,0,0,rectangle_8,3,-8,1,0,0,,,3,3,-8,1,0,0,,3,0,3,0,1,,,,,,,,,,,,,,,,,,,,,,,,,,,,,,,,,,,,,,,,,,,,,,,,,,,,,,,,,,,,,,,,,,,,,,,,,,,,,,,,,,,,,,,,,,,,,,,,,,,,,,,,,,,,,
,,,,,,60e9ea97d19e613e60a994da,62c53aad9cc59c4ecebc80f6,2022-07-06_09h34.11.786,Colour_Asymmetry_Pilot,2022.1.3,Win32,60.03121623,62c50e9c1127f2cd403a315f,,,,,,,,,,,,,,,,,,,"[0.22340000000000004,-0.9296,-0.7884]",onetwo,"[0.796,0.2156,-0.27859999999999996]",-4,0.8166,-58,97,1,0,0,response7disk_5,8,-5,1,0,0,rectangle_8,8,-5,1,0,0,,,3,8,-5,1,0,0,,4,0,4,0,1,,,,,,,,,,,,,,,,,,,,,,,,,,,,,,,,,,,,,,,,,,,,,,,,,,,,,,,,,,,,,,,,,,,,,,,,,,,,,,,,,,,,,,,,,,,,,,,,,,,,,,,,,,,,,
,,,,,,60e9ea97d19e613e60a994da,62c53aad9cc59c4ecebc80f6,2022-07-06_09h34.11.786,Colour_Asymmetry_Pilot,2022.1.3,Win32,60.03121623,62c50e9c1127f2cd403a315f,,,,,,,,,,,,,,,,,,,"[0.4196,0.4665999999999999,0.3568]",twofour,"[-0.34920000000000007,-0.702,-0.5216]",-4,0.85,-53,93,1,0,0,response7disk_5,-10,4,1,0,0,rectangle_8,91,50,1,0,0,response1disk_7,6,3,3,-4,1,0,0,rectangle_4,5,0,5,0,1,,,,,,,,,,,,,,,,,,,,,,,,,,,,,,,,,,,,,,,,,,,,,,,,,,,,,,,,,,,,,,,,,,,,,,,,,,,,,,,,,,,,,,,,,,,,,,,,,,,,,,,,,,,,,
,,,,,,60e9ea97d19e613e60a994da,62c53aad9cc59c4ecebc80f6,2022-07-06_09h34.11.786,Colour_Asymmetry_Pilot,2022.1.3,Win32,60.03121623,62c50e9c1127f2cd403a315f,,,,,,,,,,,,,,,,,,,"[-0.5688,-0.08239999999999992,-0.1844]",onethree,"[-0.20799999999999996,-0.655,-0.01980000000000004]",-4,0.8662,-48,88,1,0,0,response7disk_5,21,2,1,0,0,rectangle_8,21,2,1,0,0,,,3,21,2,1,0,0,,6,0,6,0,1,,,,,,,,,,,,,,,,,,,,,,,,,,,,,,,,,,,,,,,,,,,,,,,,,,,,,,,,,,,,,,,,,,,,,,,,,,,,,,,,,,,,,,,,,,,,,,,,,,,,,,,,,,,,,
,,,,,,60e9ea97d19e613e60a994da,62c53aad9cc59c4ecebc80f6,2022-07-06_09h34.11.786,Colour_Asymmetry_Pilot,2022.1.3,Win32,60.03121623,62c50e9c1127f2cd403a315f,,,,,,,,,,,,,,,,,,,,threefour,,-4,0.8496,,,,,,,,,,,,,,,,,,,,,,,,,,,,,,,,space,5.4216,"[0.7802,-0.23140000000000005,-0.20799999999999996]","[0.9842,0.7409999999999999,-0.6628000000000001]",-35,107,1,0,0,response7disk,14,0,1,0,0,rectangle,97,-42,1,0,0,response3disk_3,2,2,2.6661,1,2,-5,1,0,0,rectangle,0,0,0,55,1,55,first,,,,,,,,,,,,,,,,,,,,,,,,,,,,,,,,,,,,,,,,,,,,,,,,,,,,,,,,,,,,,,,,,,,,,,
,,,,,,60e9ea97d19e613e60a994da,62c53aad9cc59c4ecebc80f6,2022-07-06_09h34.11.786,Colour_Asymmetry_Pilot,2022.1.3,Win32,60.03121623,62c50e9c1127f2cd403a315f,,,,,,,,,,,,,,,,,,,,fourthree,,-4,0.4821,,,,,,,,,,,,,,,,,,,,,,,,,,,,,,,,,,"[-0.24719999999999998,0.5213999999999999,-0.12959999999999994]","[-0.9688,-0.7412000000000001,-0.4902000000000001]",-69,105,1,0,0,response7disk,21,7,1,0,0,rectangle,79,44,1,0,0,response1disk_3,3,3,2.1647,1,1,9,1,0,0,rectangle,0,1,1,159,1,78,second,,,,,,,,,,,,,,,,,,,,,,,,,,,,,,,,,,,,,,,,,,,,,,,,,,,,,,,,,,,,,,,,,,,,,,
,,,,,,60e9ea97d19e613e60a994da,62c53aad9cc59c4ecebc80f6,2022-07-06_09h34.11.786,Colour_Asymmetry_Pilot,2022.1.3,Win32,60.03121623,62c50e9c1127f2cd403a315f,,,,,,,,,,,,,,,,,,,,onethree,,4,1.3663,,,,,,,,,,,,,,,,,,,,,,,,,,,,,,,,,,"[-0.0040000000000000036,0.02739999999999987,-0.08239999999999992]","[-0.9688,-0.4902000000000001,-0.12159999999999993]",26,89,1,0,0,response1disk,9,3,1,0,0,rectangle,9,3,1,0,0,,3,1,0.0014,0,9,3,1,0,0,,0,2,2,63,1,63,first,,,,,,,,,,,,,,,,,,,,,,,,,,,,,,,,,,,,,,,,,,,,,,,,,,,,,,,,,,,,,,,,,,,,,,
,,,,,,60e9ea97d19e613e60a994da,62c53aad9cc59c4ecebc80f6,2022-07-06_09h34.11.786,Colour_Asymmetry_Pilot,2022.1.3,Win32,60.03121623,62c50e9c1127f2cd403a315f,,,,,,,,,,,,,,,,,,,,fourthree,,-4,0.6497,,,,,,,,,,,,,,,,,,,,,,,,,,,,,,,,,,"[-0.09019999999999995,0.44300000000000006,0.5371999999999999]","[0.40379999999999994,0.09000000000000008,0.44300000000000006]",-39,97,1,0,0,response7disk,-6,1,1,0,0,rectangle,113,-39,1,0,0,response3disk_3,2,2,1.798,1,9,11,1,0,0,rectangle,0,3,3,160,1,79,second,,,,,,,,,,,,,,,,,,,,,,,,,,,,,,,,,,,,,,,,,,,,,,,,,,,,,,,,,,,,,,,,,,,,,,
,,,,,,60e9ea97d19e613e60a994da,62c53aad9cc59c4ecebc80f6,2022-07-06_09h34.11.786,Colour_Asymmetry_Pilot,2022.1.3,Win32,60.03121623,62c50e9c1127f2cd403a315f,,,,,,,,,,,,,,,,,,,,threefour,,-4,0.5326,,,,,,,,,,,,,,,,,,,,,,,,,,,,,,,,,,"[0.9372,0.20779999999999998,0.2704]","[0.23920000000000008,0.2704,0.16060000000000008]",-69,100,1,0,0,response7disk,5,-3,1,0,0,rectangle,5,-3,1,0,0,,2,1,0.001,0,5,-3,1,0,0,,0,4,4,12,1,12,first,,,,,,,,,,,,,,,,,,,,,,,,,,,,,,,,,,,,,,,,,,,,,,,,,,,,,,,,,,,,,,,,,,,,,,
,,,,,,60e9ea97d19e613e60a994da,62c53aad9cc59c4ecebc80f6,2022-07-06_09h34.11.786,Colour_Asymmetry_Pilot,2022.1.3,Win32,60.03121623,62c50e9c1127f2cd403a315f,,,,,,,,,,,,,,,,,,,,threeone,,-4,2.0491,,,,,,,,,,,,,,,,,,,,,,,,,,,,,,,,,,"[0.7802,-0.23140000000000005,-0.20799999999999996]","[-0.34920000000000007,-0.702,-0.5216]",-51,93,1,0,0,response7disk,1,2,1,0,0,rectangle,1,2,1,0,0,,2,3,0.0012,0,1,2,1,0,0,,0,5,5,133,1,52,second,,,,,,,,,,,,,,,,,,,,,,,,,,,,,,,,,,,,,,,,,,,,,,,,,,,,,,,,,,,,,,,,,,,,,,
,,,,,,60e9ea97d19e613e60a994da,62c53aad9cc59c4ecebc80f6,2022-07-06_09h34.11.786,Colour_Asymmetry_Pilot,2022.1.3,Win32,60.03121623,62c50e9c1127f2cd403a315f,,,,,,,,,,,,,,,,,,,,twoone,,-4,0.6157,,,,,,,,,,,,,,,,,,,,,,,,,,,,,,,,,,"[0.7176,-0.906,-0.6864]","[-0.10599999999999998,-0.10599999999999998,0.5841999999999998]",-60,103,1,0,0,response7disk,15,-3,1,0,0,rectangle,15,-3,1,0,0,,2,2,0.0013,0,15,-3,1,0,0,,0,6,6,71,1,71,first,,,,,,,,,,,,,,,,,,,,,,,,,,,,,,,,,,,,,,,,,,,,,,,,,,,,,,,,,,,,,,,,,,,,,,
,,,,,,60e9ea97d19e613e60a994da,62c53aad9cc59c4ecebc80f6,2022-07-06_09h34.11.786,Colour_Asymmetry_Pilot,2022.1.3,Win32,60.03121623,62c50e9c1127f2cd403a315f,,,,,,,,,,,,,,,,,,,,twofour,,4,0.5659,,,,,,,,,,,,,,,,,,,,,,,,,,,,,,,,,,"[-0.4668,-0.8746,-0.2942]","[-0.8118,-0.8198,-0.5452]",57,101,1,0,0,response1disk,3,-5,1,0,0,rectangle,3,-5,1,0,0,,2,1,0.0015,0,3,-5,1,0,0,,0,7,7,156,1,75,second,,,,,,,,,,,,,,,,,,,,,,,,,,,,,,,,,,,,,,,,,,,,,,,,,,,,,,,,,,,,,,,,,,,,,,
,,,,,,60e9ea97d19e613e60a994da,62c53aad9cc59c4ecebc80f6,2022-07-06_09h34.11.786,Colour_Asymmetry_Pilot,2022.1.3,Win32,60.03121623,62c50e9c1127f2cd403a315f,,,,,,,,,,,,,,,,,,,,fourthree,,-4,0.7974,,,,,,,,,,,,,,,,,,,,,,,,,,,,,,,,,,"[-0.4276,0.0038000000000000256,-0.3256]","[0.9372,0.9450000000000001,0.8980000000000001]",-51,103,1,0,0,response7disk,-9,1,1,0,0,rectangle,-9,1,1,0,0,,2,3,0.0012,0,-9,1,1,0,0,,0,8,8,111,1,30,second,,,,,,,,,,,,,,,,,,,,,,,,,,,,,,,,,,,,,,,,,,,,,,,,,,,,,,,,,,,,,,,,,,,,,,
,,,,,,60e9ea97d19e613e60a994da,62c53aad9cc59c4ecebc80f6,2022-07-06_09h34.11.786,Colour_Asymmetry_Pilot,2022.1.3,Win32,60.03121623,62c50e9c1127f2cd403a315f,,,,,,,,,,,,,,,,,,,,onetwo,,-4,0.883,,,,,,,,,,,,,,,,,,,,,,,,,,,,,,,,,,"[0.12939999999999996,-0.2864,0.3253999999999999]","[0.37240000000000006,-0.050999999999999934,-0.5216]",-49,87,1,0,0,response7disk,-10,-1,1,0,0,rectangle,-10,-1,1,0,0,,2,1,0.0011,0,-10,-1,1,0,0,,0,9,9,67,1,67,first,,,,,,,,,,,,,,,,,,,,,,,,,,,,,,,,,,,,,,,,,,,,,,,,,,,,,,,,,,,,,,,,,,,,,,
,,,,,,60e9ea97d19e613e60a994da,62c53aad9cc59c4ecebc80f6,2022-07-06_09h34.11.786,Colour_Asymmetry_Pilot,2022.1.3,Win32,60.03121623,62c50e9c1127f2cd403a315f,,,,,,,,,,,,,,,,,,,,fourtwo,,-4,0.6487,,,,,,,,,,,,,,,,,,,,,,,,,,,,,,,,,,"[0.11359999999999992,0.6312,0.5213999999999999]","[0.37240000000000006,0.4980000000000002,-0.2864]",-37,95,1,0,0,response7disk,-2,-3,1,0,0,rectangle,-2,-3,1,0,0,,2,3,0.0011,0,-2,-3,1,0,0,,0,10,10,99,1,18,second,,,,,,,,,,,,,,,,,,,,,,,,,,,,,,,,,,,,,,,,,,,,,,,,,,,,,,,,,,,,,,,,,,,,,,
,,,,,,60e9ea97d19e613e60a994da,62c53aad9cc59c4ecebc80f6,2022-07-06_09h34.11.786,Colour_Asymmetry_Pilot,2022.1.3,Win32,60.03121623,62c50e9c1127f2cd403a315f,,,,,,,,,,,,,,,,,,,,onetwo,,-4,0.7662,,,,,,,,,,,,,,,,,,,,,,,,,,,,,,,,,,"[-0.8118,-0.8198,-0.5452]","[-0.45899999999999996,-0.3256,-0.9374]",-59,104,1,0,0,response7disk,-8,6,1,0,0,rectangle,-8,6,1,0,0,,2,3,0.0003,0,-8,6,1,0,0,,0,11,11,107,1,26,second,,,,,,,,,,,,,,,,,,,,,,,,,,,,,,,,,,,,,,,,,,,,,,,,,,,,,,,,,,,,,,,,,,,,,,
,,,,,,60e9ea97d19e613e60a994da,62c53aad9cc59c4ecebc80f6,2022-07-06_09h34.11.786,Colour_Asymmetry_Pilot,2022.1.3,Win32,60.03121623,62c50e9c1127f2cd403a315f,,,,,,,,,,,,,,,,,,,,threefour,,-4,3.3659,,,,,,,,,,,,,,,,,,,,,,,,,,,,,,,,,,"[0.8115999999999999,-0.0040000000000000036,-0.09819999999999995]","[-0.20799999999999996,-0.655,-0.01980000000000004]",-27,71,1,0,0,response7disk,8,7,1,0,0,rectangle,8,7,1,0,0,,2,3,0.0004,0,8,7,1,0,0,,0,12,12,157,1,76,second,,,,,,,,,,,,,,,,,,,,,,,,,,,,,,,,,,,,,,,,,,,,,,,,,,,,,,,,,,,,,,,,,,,,,,
,,,,,,60e9ea97d19e613e60a994da,62c53aad9cc59c4ecebc80f6,2022-07-06_09h34.11.786,Colour_Asymmetry_Pilot,2022.1.3,Win32,60.03121623,62c50e9c1127f2cd403a315f,,,,,,,,,,,,,,,,,,,,twofour,,-4,0.4638,,,,,,,,,,,,,,,,,,,,,,,,,,,,,,,,,,"[0.09799999999999986,-0.24719999999999998,0.15280000000000005]","[-0.9766,-0.34920000000000007,0.2156]",-25,92,1,0,0,response7disk,4,7,1,0,0,rectangle,4,7,1,0,0,,2,2,0.0008,0,4,7,1,0,0,,0,13,13,138,1,57,second,,,,,,,,,,,,,,,,,,,,,,,,,,,,,,,,,,,,,,,,,,,,,,,,,,,,,,,,,,,,,,,,,,,,,,
,,,,,,60e9ea97d19e613e60a994da,62c53aad9cc59c4ecebc80f6,2022-07-06_09h34.11.786,Colour_Asymmetry_Pilot,2022.1.3,Win32,60.03121623,62c50e9c1127f2cd403a315f,,,,,,,,,,,,,,,,,,,,onetwo,,-4,0.9501,,,,,,,,,,,,,,,,,,,,,,,,,,,,,,,,,,"[0.9763999999999999,-0.1137999999999999,-0.6314]","[-0.9296,-0.12959999999999994,-0.043199999999999905]",-54,92,1,0,0,response7disk,-5,4,1,0,0,rectangle,-5,4,1,0,0,,2,2,0.0003,0,-5,4,1,0,0,,0,14,14,118,1,37,second,,,,,,,,,,,,,,,,,,,,,,,,,,,,,,,,,,,,,,,,,,,,,,,,,,,,,,,,,,,,,,,,,,,,,,
,,,,,,60e9ea97d19e613e60a994da,62c53aad9cc59c4ecebc80f6,2022-07-06_09h34.11.786,Colour_Asymmetry_Pilot,2022.1.3,Win32,60.03121623,62c50e9c1127f2cd403a315f,,,,,,,,,,,,,,,,,,,,onethree,,-4,0.5996,,,,,,,,,,,,,,,,,,,,,,,,,,,,,,,,,,"[-0.10599999999999998,-0.15300000000000002,0.15280000000000005]","[0.30180000000000007,-0.7884,-0.9844]",-61,96,1,0,0,response7disk,1,0,1,0,0,rectangle,1,0,1,0,0,,2,2,0.0002,0,1,0,1,0,0,,0,15,15,127,1,46,second,,,,,,,,,,,,,,,,,,,,,,,,,,,,,,,,,,,,,,,,,,,,,,,,,,,,,,,,,,,,,,,,,,,,,,
,,,,,,60e9ea97d19e613e60a994da,62c53aad9cc59c4ecebc80f6,2022-07-06_09h34.11.786,Colour_Asymmetry_Pilot,2022.1.3,Win32,60.03121623,62c50e9c1127f2cd403a315f,,,,,,,,,,,,,,,,,,,,fourtwo,,-4,0.6169,,,,,,,,,,,,,,,,,,,,,,,,,,,,,,,,,,"[-0.9688,-0.4902000000000001,-0.12159999999999993]","[-0.0040000000000000036,0.02739999999999987,-0.08239999999999992]",-40,94,1,0,0,response7disk,2,1,1,0,0,rectangle,2,1,1,0,0,,2,3,0.0018,0,2,1,1,0,0,,0,16,16,144,1,63,second,,,,,,,,,,,,,,,,,,,,,,,,,,,,,,,,,,,,,,,,,,,,,,,,,,,,,,,,,,,,,,,,,,,,,,
,,,,,,60e9ea97d19e613e60a994da,62c53aad9cc59c4ecebc80f6,2022-07-06_09h34.11.786,Colour_Asymmetry_Pilot,2022.1.3,Win32,60.03121623,62c50e9c1127f2cd403a315f,,,,,,,,,,,,,,,,,,,,threeone,,-4,0.65,,,,,,,,,,,,,,,,,,,,,,,,,,,,,,,,,,"[-0.38039999999999996,-0.4276,-0.1452]","[-0.7412000000000001,-0.08239999999999992,-0.6864]",-50,85,1,0,0,response7disk,2,-9,1,0,0,rectangle,2,-9,1,0,0,,2,3,0.0002,0,2,-9,1,0,0,,0,17,17,145,1,64,second,,,,,,,,,,,,,,,,,,,,,,,,,,,,,,,,,,,,,,,,,,,,,,,,,,,,,,,,,,,,,,,,,,,,,,
