trials.thisRepN,trials.thisTrialN,trials.thisN,trials.thisIndex,trials.ran,Colourcodes,participant,session,date,expName,psychopyVersion,OS,frameRate,study_id,trials_4.thisRepN,trials_4.thisTrialN,trials_4.thisN,trials_4.thisIndex,trials_4.ran,StimulusPos,key_resp.keys,key_resp.rt,key_resp_2.keys,key_resp_2.rt,key_resp_15.keys,key_resp_15.rt,key_resp_17.keys,key_resp_17.rt,key_resp_9.keys,key_resp_9.rt,key_resp_10.keys,key_resp_10.rt,Circle1_col,Ecc,Circle2_col,similarity,response_time,mouse_5.x,mouse_5.y,mouse_5.leftButton,mouse_5.midButton,mouse_5.rightButton,mouse_5.clicked_name,mouse_10.x,mouse_10.y,mouse_10.leftButton,mouse_10.midButton,mouse_10.rightButton,mouse_10.clicked_name,mouse_7.x,mouse_7.y,mouse_7.leftButton,mouse_7.midButton,mouse_7.rightButton,mouse_7.clicked_name,catchprac,catchnumberprac,mouse_6.x,mouse_6.y,mouse_6.leftButton,mouse_6.midButton,mouse_6.rightButton,mouse_6.clicked_name,duringprac.thisRepN,duringprac.thisTrialN,duringprac.thisN,duringprac.thisIndex,duringprac.ran,key_resp_22.keys,key_resp_22.rt,Circle1_colour,Circle2_colour,mouse.x,mouse.y,mouse.leftButton,mouse.midButton,mouse.rightButton,mouse.clicked_name,mouse_2.x,mouse_2.y,mouse_2.leftButton,mouse_2.midButton,mouse_2.rightButton,mouse_2.clicked_name,mouse_3.x,mouse_3.y,mouse_3.leftButton,mouse_3.midButton,mouse_3.rightButton,catchresponse,catchnumber,response_time_catch,Catch,mouse_11.x,mouse_11.y,mouse_11.leftButton,mouse_11.midButton,mouse_11.rightButton,trials_2.thisRepN,trials_2.thisTrialN,trials_2.thisN,trials_2.thisIndex,trials_2.ran,Colourpair,Temporder,mouse_3.clicked_name,mouse_11.clicked_name,trials_3.thisRepN,trials_3.thisTrialN,trials_3.thisN,trials_3.thisIndex,trials_3.ran,key_resp_instr_Ishi.keys,key_resp_instr_Ishi.rt,Ishi_trial_keyresp.keys,Ishi_textbox.text,Ishi_mouse.x,Ishi_mouse.y,Ishi_mouse.leftButton,Ishi_mouse.midButton,Ishi_mouse.rightButton,Ishi_mouse.clicked_name,Ishi_loop.thisRepN,Ishi_loop.thisTrialN,Ishi_loop.thisN,Ishi_loop.thisIndex,Ishi_loop.ran,imageaddress,textbox.text,mouse_4.x,mouse_4.y,mouse_4.leftButton,mouse_4.midButton,mouse_4.rightButton,mouse_4.clicked_name,textbox_2.text,mouse_8.x,mouse_8.y,mouse_8.leftButton,mouse_8.midButton,mouse_8.rightButton,mouse_8.clicked_name,textbox_3.text,mouse_9.x,mouse_9.y,mouse_9.leftButton,mouse_9.midButton,mouse_9.rightButton,mouse_9.clicked_name,textbox_4.text,mouse_12.x,mouse_12.y,mouse_12.leftButton,mouse_12.midButton,mouse_12.rightButton,mouse_12.clicked_name,textbox_5.text,mouse_13.x,mouse_13.y,mouse_13.leftButton,mouse_13.midButton,mouse_13.rightButton,mouse_13.clicked_name,textbox_6.text,mouse_14.x,mouse_14.y,mouse_14.leftButton,mouse_14.midButton,mouse_14.rightButton,mouse_14.clicked_name,textbox_7.text,mouse_15.x,mouse_15.y,mouse_15.leftButton,mouse_15.midButton,mouse_15.rightButton,mouse_15.clicked_name
0,0,0,71,1,,5ed40c08af400008d9286698,62c539cc424f00fccbaf4ee4,2022-07-06_09h29.59.271,Colour_Asymmetry_Pilot,2022.1.3,Win32,61.10228523,62c50e9c1127f2cd403a315f,,,,,,,,,,,,,,,,,,,,,,,,,,,,,,,,,,,,,,,,,,,,,,,,,,,,,,,,,,,,,,,,,,,,,,,,,,,,,,,,,,,,,,,,,,,,,,,,,,,,,,,,,,,,,,,,,,,,,,,,,,,,,,,,,,,,,,,,,,,,,,,,,,,,,,,,,,,,,,,,,,,
0,1,1,37,1,,5ed40c08af400008d9286698,62c539cc424f00fccbaf4ee4,2022-07-06_09h29.59.271,Colour_Asymmetry_Pilot,2022.1.3,Win32,61.10228523,62c50e9c1127f2cd403a315f,,,,,,,,,,,,,,,,,,,,,,,,,,,,,,,,,,,,,,,,,,,,,,,,,,,,,,,,,,,,,,,,,,,,,,,,,,,,,,,,,,,,,,,,,,,,,,,,,,,,,,,,,,,,,,,,,,,,,,,,,,,,,,,,,,,,,,,,,,,,,,,,,,,,,,,,,,,,,,,,,,,
0,2,2,47,1,,5ed40c08af400008d9286698,62c539cc424f00fccbaf4ee4,2022-07-06_09h29.59.271,Colour_Asymmetry_Pilot,2022.1.3,Win32,61.10228523,62c50e9c1127f2cd403a315f,,,,,,,,,,,,,,,,,,,,,,,,,,,,,,,,,,,,,,,,,,,,,,,,,,,,,,,,,,,,,,,,,,,,,,,,,,,,,,,,,,,,,,,,,,,,,,,,,,,,,,,,,,,,,,,,,,,,,,,,,,,,,,,,,,,,,,,,,,,,,,,,,,,,,,,,,,,,,,,,,,,
0,3,3,25,1,,5ed40c08af400008d9286698,62c539cc424f00fccbaf4ee4,2022-07-06_09h29.59.271,Colour_Asymmetry_Pilot,2022.1.3,Win32,61.10228523,62c50e9c1127f2cd403a315f,,,,,,,,,,,,,,,,,,,,,,,,,,,,,,,,,,,,,,,,,,,,,,,,,,,,,,,,,,,,,,,,,,,,,,,,,,,,,,,,,,,,,,,,,,,,,,,,,,,,,,,,,,,,,,,,,,,,,,,,,,,,,,,,,,,,,,,,,,,,,,,,,,,,,,,,,,,,,,,,,,,
0,4,4,44,1,,5ed40c08af400008d9286698,62c539cc424f00fccbaf4ee4,2022-07-06_09h29.59.271,Colour_Asymmetry_Pilot,2022.1.3,Win32,61.10228523,62c50e9c1127f2cd403a315f,,,,,,,,,,,,,,,,,,,,,,,,,,,,,,,,,,,,,,,,,,,,,,,,,,,,,,,,,,,,,,,,,,,,,,,,,,,,,,,,,,,,,,,,,,,,,,,,,,,,,,,,,,,,,,,,,,,,,,,,,,,,,,,,,,,,,,,,,,,,,,,,,,,,,,,,,,,,,,,,,,,
0,5,5,60,1,,5ed40c08af400008d9286698,62c539cc424f00fccbaf4ee4,2022-07-06_09h29.59.271,Colour_Asymmetry_Pilot,2022.1.3,Win32,61.10228523,62c50e9c1127f2cd403a315f,,,,,,,,,,,,,,,,,,,,,,,,,,,,,,,,,,,,,,,,,,,,,,,,,,,,,,,,,,,,,,,,,,,,,,,,,,,,,,,,,,,,,,,,,,,,,,,,,,,,,,,,,,,,,,,,,,,,,,,,,,,,,,,,,,,,,,,,,,,,,,,,,,,,,,,,,,,,,,,,,,,
0,6,6,43,1,,5ed40c08af400008d9286698,62c539cc424f00fccbaf4ee4,2022-07-06_09h29.59.271,Colour_Asymmetry_Pilot,2022.1.3,Win32,61.10228523,62c50e9c1127f2cd403a315f,,,,,,,,,,,,,,,,,,,,,,,,,,,,,,,,,,,,,,,,,,,,,,,,,,,,,,,,,,,,,,,,,,,,,,,,,,,,,,,,,,,,,,,,,,,,,,,,,,,,,,,,,,,,,,,,,,,,,,,,,,,,,,,,,,,,,,,,,,,,,,,,,,,,,,,,,,,,,,,,,,,
0,7,7,10,1,,5ed40c08af400008d9286698,62c539cc424f00fccbaf4ee4,2022-07-06_09h29.59.271,Colour_Asymmetry_Pilot,2022.1.3,Win32,61.10228523,62c50e9c1127f2cd403a315f,,,,,,,,,,,,,,,,,,,,,,,,,,,,,,,,,,,,,,,,,,,,,,,,,,,,,,,,,,,,,,,,,,,,,,,,,,,,,,,,,,,,,,,,,,,,,,,,,,,,,,,,,,,,,,,,,,,,,,,,,,,,,,,,,,,,,,,,,,,,,,,,,,,,,,,,,,,,,,,,,,,
0,8,8,3,1,,5ed40c08af400008d9286698,62c539cc424f00fccbaf4ee4,2022-07-06_09h29.59.271,Colour_Asymmetry_Pilot,2022.1.3,Win32,61.10228523,62c50e9c1127f2cd403a315f,,,,,,,,,,,,,,,,,,,,,,,,,,,,,,,,,,,,,,,,,,,,,,,,,,,,,,,,,,,,,,,,,,,,,,,,,,,,,,,,,,,,,,,,,,,,,,,,,,,,,,,,,,,,,,,,,,,,,,,,,,,,,,,,,,,,,,,,,,,,,,,,,,,,,,,,,,,,,,,,,,,
0,9,9,22,1,,5ed40c08af400008d9286698,62c539cc424f00fccbaf4ee4,2022-07-06_09h29.59.271,Colour_Asymmetry_Pilot,2022.1.3,Win32,61.10228523,62c50e9c1127f2cd403a315f,,,,,,,,,,,,,,,,,,,,,,,,,,,,,,,,,,,,,,,,,,,,,,,,,,,,,,,,,,,,,,,,,,,,,,,,,,,,,,,,,,,,,,,,,,,,,,,,,,,,,,,,,,,,,,,,,,,,,,,,,,,,,,,,,,,,,,,,,,,,,,,,,,,,,,,,,,,,,,,,,,,
0,10,10,17,1,,5ed40c08af400008d9286698,62c539cc424f00fccbaf4ee4,2022-07-06_09h29.59.271,Colour_Asymmetry_Pilot,2022.1.3,Win32,61.10228523,62c50e9c1127f2cd403a315f,,,,,,,,,,,,,,,,,,,,,,,,,,,,,,,,,,,,,,,,,,,,,,,,,,,,,,,,,,,,,,,,,,,,,,,,,,,,,,,,,,,,,,,,,,,,,,,,,,,,,,,,,,,,,,,,,,,,,,,,,,,,,,,,,,,,,,,,,,,,,,,,,,,,,,,,,,,,,,,,,,,
0,11,11,80,1,,5ed40c08af400008d9286698,62c539cc424f00fccbaf4ee4,2022-07-06_09h29.59.271,Colour_Asymmetry_Pilot,2022.1.3,Win32,61.10228523,62c50e9c1127f2cd403a315f,,,,,,,,,,,,,,,,,,,,,,,,,,,,,,,,,,,,,,,,,,,,,,,,,,,,,,,,,,,,,,,,,,,,,,,,,,,,,,,,,,,,,,,,,,,,,,,,,,,,,,,,,,,,,,,,,,,,,,,,,,,,,,,,,,,,,,,,,,,,,,,,,,,,,,,,,,,,,,,,,,,
0,12,12,20,1,,5ed40c08af400008d9286698,62c539cc424f00fccbaf4ee4,2022-07-06_09h29.59.271,Colour_Asymmetry_Pilot,2022.1.3,Win32,61.10228523,62c50e9c1127f2cd403a315f,,,,,,,,,,,,,,,,,,,,,,,,,,,,,,,,,,,,,,,,,,,,,,,,,,,,,,,,,,,,,,,,,,,,,,,,,,,,,,,,,,,,,,,,,,,,,,,,,,,,,,,,,,,,,,,,,,,,,,,,,,,,,,,,,,,,,,,,,,,,,,,,,,,,,,,,,,,,,,,,,,,
0,13,13,42,1,,5ed40c08af400008d9286698,62c539cc424f00fccbaf4ee4,2022-07-06_09h29.59.271,Colour_Asymmetry_Pilot,2022.1.3,Win32,61.10228523,62c50e9c1127f2cd403a315f,,,,,,,,,,,,,,,,,,,,,,,,,,,,,,,,,,,,,,,,,,,,,,,,,,,,,,,,,,,,,,,,,,,,,,,,,,,,,,,,,,,,,,,,,,,,,,,,,,,,,,,,,,,,,,,,,,,,,,,,,,,,,,,,,,,,,,,,,,,,,,,,,,,,,,,,,,,,,,,,,,,
0,14,14,11,1,,5ed40c08af400008d9286698,62c539cc424f00fccbaf4ee4,2022-07-06_09h29.59.271,Colour_Asymmetry_Pilot,2022.1.3,Win32,61.10228523,62c50e9c1127f2cd403a315f,,,,,,,,,,,,,,,,,,,,,,,,,,,,,,,,,,,,,,,,,,,,,,,,,,,,,,,,,,,,,,,,,,,,,,,,,,,,,,,,,,,,,,,,,,,,,,,,,,,,,,,,,,,,,,,,,,,,,,,,,,,,,,,,,,,,,,,,,,,,,,,,,,,,,,,,,,,,,,,,,,,
0,15,15,66,1,,5ed40c08af400008d9286698,62c539cc424f00fccbaf4ee4,2022-07-06_09h29.59.271,Colour_Asymmetry_Pilot,2022.1.3,Win32,61.10228523,62c50e9c1127f2cd403a315f,,,,,,,,,,,,,,,,,,,,,,,,,,,,,,,,,,,,,,,,,,,,,,,,,,,,,,,,,,,,,,,,,,,,,,,,,,,,,,,,,,,,,,,,,,,,,,,,,,,,,,,,,,,,,,,,,,,,,,,,,,,,,,,,,,,,,,,,,,,,,,,,,,,,,,,,,,,,,,,,,,,
0,16,16,26,1,,5ed40c08af400008d9286698,62c539cc424f00fccbaf4ee4,2022-07-06_09h29.59.271,Colour_Asymmetry_Pilot,2022.1.3,Win32,61.10228523,62c50e9c1127f2cd403a315f,,,,,,,,,,,,,,,,,,,,,,,,,,,,,,,,,,,,,,,,,,,,,,,,,,,,,,,,,,,,,,,,,,,,,,,,,,,,,,,,,,,,,,,,,,,,,,,,,,,,,,,,,,,,,,,,,,,,,,,,,,,,,,,,,,,,,,,,,,,,,,,,,,,,,,,,,,,,,,,,,,,
0,17,17,21,1,,5ed40c08af400008d9286698,62c539cc424f00fccbaf4ee4,2022-07-06_09h29.59.271,Colour_Asymmetry_Pilot,2022.1.3,Win32,61.10228523,62c50e9c1127f2cd403a315f,,,,,,,,,,,,,,,,,,,,,,,,,,,,,,,,,,,,,,,,,,,,,,,,,,,,,,,,,,,,,,,,,,,,,,,,,,,,,,,,,,,,,,,,,,,,,,,,,,,,,,,,,,,,,,,,,,,,,,,,,,,,,,,,,,,,,,,,,,,,,,,,,,,,,,,,,,,,,,,,,,,
0,18,18,64,1,,5ed40c08af400008d9286698,62c539cc424f00fccbaf4ee4,2022-07-06_09h29.59.271,Colour_Asymmetry_Pilot,2022.1.3,Win32,61.10228523,62c50e9c1127f2cd403a315f,,,,,,,,,,,,,,,,,,,,,,,,,,,,,,,,,,,,,,,,,,,,,,,,,,,,,,,,,,,,,,,,,,,,,,,,,,,,,,,,,,,,,,,,,,,,,,,,,,,,,,,,,,,,,,,,,,,,,,,,,,,,,,,,,,,,,,,,,,,,,,,,,,,,,,,,,,,,,,,,,,,
0,19,19,38,1,,5ed40c08af400008d9286698,62c539cc424f00fccbaf4ee4,2022-07-06_09h29.59.271,Colour_Asymmetry_Pilot,2022.1.3,Win32,61.10228523,62c50e9c1127f2cd403a315f,,,,,,,,,,,,,,,,,,,,,,,,,,,,,,,,,,,,,,,,,,,,,,,,,,,,,,,,,,,,,,,,,,,,,,,,,,,,,,,,,,,,,,,,,,,,,,,,,,,,,,,,,,,,,,,,,,,,,,,,,,,,,,,,,,,,,,,,,,,,,,,,,,,,,,,,,,,,,,,,,,,
0,20,20,72,1,,5ed40c08af400008d9286698,62c539cc424f00fccbaf4ee4,2022-07-06_09h29.59.271,Colour_Asymmetry_Pilot,2022.1.3,Win32,61.10228523,62c50e9c1127f2cd403a315f,,,,,,,,,,,,,,,,,,,,,,,,,,,,,,,,,,,,,,,,,,,,,,,,,,,,,,,,,,,,,,,,,,,,,,,,,,,,,,,,,,,,,,,,,,,,,,,,,,,,,,,,,,,,,,,,,,,,,,,,,,,,,,,,,,,,,,,,,,,,,,,,,,,,,,,,,,,,,,,,,,,
0,21,21,91,1,,5ed40c08af400008d9286698,62c539cc424f00fccbaf4ee4,2022-07-06_09h29.59.271,Colour_Asymmetry_Pilot,2022.1.3,Win32,61.10228523,62c50e9c1127f2cd403a315f,,,,,,,,,,,,,,,,,,,,,,,,,,,,,,,,,,,,,,,,,,,,,,,,,,,,,,,,,,,,,,,,,,,,,,,,,,,,,,,,,,,,,,,,,,,,,,,,,,,,,,,,,,,,,,,,,,,,,,,,,,,,,,,,,,,,,,,,,,,,,,,,,,,,,,,,,,,,,,,,,,,
0,22,22,2,1,,5ed40c08af400008d9286698,62c539cc424f00fccbaf4ee4,2022-07-06_09h29.59.271,Colour_Asymmetry_Pilot,2022.1.3,Win32,61.10228523,62c50e9c1127f2cd403a315f,,,,,,,,,,,,,,,,,,,,,,,,,,,,,,,,,,,,,,,,,,,,,,,,,,,,,,,,,,,,,,,,,,,,,,,,,,,,,,,,,,,,,,,,,,,,,,,,,,,,,,,,,,,,,,,,,,,,,,,,,,,,,,,,,,,,,,,,,,,,,,,,,,,,,,,,,,,,,,,,,,,
0,23,23,83,1,,5ed40c08af400008d9286698,62c539cc424f00fccbaf4ee4,2022-07-06_09h29.59.271,Colour_Asymmetry_Pilot,2022.1.3,Win32,61.10228523,62c50e9c1127f2cd403a315f,,,,,,,,,,,,,,,,,,,,,,,,,,,,,,,,,,,,,,,,,,,,,,,,,,,,,,,,,,,,,,,,,,,,,,,,,,,,,,,,,,,,,,,,,,,,,,,,,,,,,,,,,,,,,,,,,,,,,,,,,,,,,,,,,,,,,,,,,,,,,,,,,,,,,,,,,,,,,,,,,,,
0,24,24,32,1,,5ed40c08af400008d9286698,62c539cc424f00fccbaf4ee4,2022-07-06_09h29.59.271,Colour_Asymmetry_Pilot,2022.1.3,Win32,61.10228523,62c50e9c1127f2cd403a315f,,,,,,,,,,,,,,,,,,,,,,,,,,,,,,,,,,,,,,,,,,,,,,,,,,,,,,,,,,,,,,,,,,,,,,,,,,,,,,,,,,,,,,,,,,,,,,,,,,,,,,,,,,,,,,,,,,,,,,,,,,,,,,,,,,,,,,,,,,,,,,,,,,,,,,,,,,,,,,,,,,,
0,25,25,62,1,,5ed40c08af400008d9286698,62c539cc424f00fccbaf4ee4,2022-07-06_09h29.59.271,Colour_Asymmetry_Pilot,2022.1.3,Win32,61.10228523,62c50e9c1127f2cd403a315f,,,,,,,,,,,,,,,,,,,,,,,,,,,,,,,,,,,,,,,,,,,,,,,,,,,,,,,,,,,,,,,,,,,,,,,,,,,,,,,,,,,,,,,,,,,,,,,,,,,,,,,,,,,,,,,,,,,,,,,,,,,,,,,,,,,,,,,,,,,,,,,,,,,,,,,,,,,,,,,,,,,
0,26,26,59,1,,5ed40c08af400008d9286698,62c539cc424f00fccbaf4ee4,2022-07-06_09h29.59.271,Colour_Asymmetry_Pilot,2022.1.3,Win32,61.10228523,62c50e9c1127f2cd403a315f,,,,,,,,,,,,,,,,,,,,,,,,,,,,,,,,,,,,,,,,,,,,,,,,,,,,,,,,,,,,,,,,,,,,,,,,,,,,,,,,,,,,,,,,,,,,,,,,,,,,,,,,,,,,,,,,,,,,,,,,,,,,,,,,,,,,,,,,,,,,,,,,,,,,,,,,,,,,,,,,,,,
0,27,27,50,1,,5ed40c08af400008d9286698,62c539cc424f00fccbaf4ee4,2022-07-06_09h29.59.271,Colour_Asymmetry_Pilot,2022.1.3,Win32,61.10228523,62c50e9c1127f2cd403a315f,,,,,,,,,,,,,,,,,,,,,,,,,,,,,,,,,,,,,,,,,,,,,,,,,,,,,,,,,,,,,,,,,,,,,,,,,,,,,,,,,,,,,,,,,,,,,,,,,,,,,,,,,,,,,,,,,,,,,,,,,,,,,,,,,,,,,,,,,,,,,,,,,,,,,,,,,,,,,,,,,,,
0,28,28,15,1,,5ed40c08af400008d9286698,62c539cc424f00fccbaf4ee4,2022-07-06_09h29.59.271,Colour_Asymmetry_Pilot,2022.1.3,Win32,61.10228523,62c50e9c1127f2cd403a315f,,,,,,,,,,,,,,,,,,,,,,,,,,,,,,,,,,,,,,,,,,,,,,,,,,,,,,,,,,,,,,,,,,,,,,,,,,,,,,,,,,,,,,,,,,,,,,,,,,,,,,,,,,,,,,,,,,,,,,,,,,,,,,,,,,,,,,,,,,,,,,,,,,,,,,,,,,,,,,,,,,,
0,29,29,7,1,,5ed40c08af400008d9286698,62c539cc424f00fccbaf4ee4,2022-07-06_09h29.59.271,Colour_Asymmetry_Pilot,2022.1.3,Win32,61.10228523,62c50e9c1127f2cd403a315f,,,,,,,,,,,,,,,,,,,,,,,,,,,,,,,,,,,,,,,,,,,,,,,,,,,,,,,,,,,,,,,,,,,,,,,,,,,,,,,,,,,,,,,,,,,,,,,,,,,,,,,,,,,,,,,,,,,,,,,,,,,,,,,,,,,,,,,,,,,,,,,,,,,,,,,,,,,,,,,,,,,
0,30,30,61,1,,5ed40c08af400008d9286698,62c539cc424f00fccbaf4ee4,2022-07-06_09h29.59.271,Colour_Asymmetry_Pilot,2022.1.3,Win32,61.10228523,62c50e9c1127f2cd403a315f,,,,,,,,,,,,,,,,,,,,,,,,,,,,,,,,,,,,,,,,,,,,,,,,,,,,,,,,,,,,,,,,,,,,,,,,,,,,,,,,,,,,,,,,,,,,,,,,,,,,,,,,,,,,,,,,,,,,,,,,,,,,,,,,,,,,,,,,,,,,,,,,,,,,,,,,,,,,,,,,,,,
0,31,31,58,1,,5ed40c08af400008d9286698,62c539cc424f00fccbaf4ee4,2022-07-06_09h29.59.271,Colour_Asymmetry_Pilot,2022.1.3,Win32,61.10228523,62c50e9c1127f2cd403a315f,,,,,,,,,,,,,,,,,,,,,,,,,,,,,,,,,,,,,,,,,,,,,,,,,,,,,,,,,,,,,,,,,,,,,,,,,,,,,,,,,,,,,,,,,,,,,,,,,,,,,,,,,,,,,,,,,,,,,,,,,,,,,,,,,,,,,,,,,,,,,,,,,,,,,,,,,,,,,,,,,,,
0,32,32,8,1,,5ed40c08af400008d9286698,62c539cc424f00fccbaf4ee4,2022-07-06_09h29.59.271,Colour_Asymmetry_Pilot,2022.1.3,Win32,61.10228523,62c50e9c1127f2cd403a315f,,,,,,,,,,,,,,,,,,,,,,,,,,,,,,,,,,,,,,,,,,,,,,,,,,,,,,,,,,,,,,,,,,,,,,,,,,,,,,,,,,,,,,,,,,,,,,,,,,,,,,,,,,,,,,,,,,,,,,,,,,,,,,,,,,,,,,,,,,,,,,,,,,,,,,,,,,,,,,,,,,,
0,33,33,33,1,,5ed40c08af400008d9286698,62c539cc424f00fccbaf4ee4,2022-07-06_09h29.59.271,Colour_Asymmetry_Pilot,2022.1.3,Win32,61.10228523,62c50e9c1127f2cd403a315f,,,,,,,,,,,,,,,,,,,,,,,,,,,,,,,,,,,,,,,,,,,,,,,,,,,,,,,,,,,,,,,,,,,,,,,,,,,,,,,,,,,,,,,,,,,,,,,,,,,,,,,,,,,,,,,,,,,,,,,,,,,,,,,,,,,,,,,,,,,,,,,,,,,,,,,,,,,,,,,,,,,
0,34,34,23,1,,5ed40c08af400008d9286698,62c539cc424f00fccbaf4ee4,2022-07-06_09h29.59.271,Colour_Asymmetry_Pilot,2022.1.3,Win32,61.10228523,62c50e9c1127f2cd403a315f,,,,,,,,,,,,,,,,,,,,,,,,,,,,,,,,,,,,,,,,,,,,,,,,,,,,,,,,,,,,,,,,,,,,,,,,,,,,,,,,,,,,,,,,,,,,,,,,,,,,,,,,,,,,,,,,,,,,,,,,,,,,,,,,,,,,,,,,,,,,,,,,,,,,,,,,,,,,,,,,,,,
0,35,35,51,1,,5ed40c08af400008d9286698,62c539cc424f00fccbaf4ee4,2022-07-06_09h29.59.271,Colour_Asymmetry_Pilot,2022.1.3,Win32,61.10228523,62c50e9c1127f2cd403a315f,,,,,,,,,,,,,,,,,,,,,,,,,,,,,,,,,,,,,,,,,,,,,,,,,,,,,,,,,,,,,,,,,,,,,,,,,,,,,,,,,,,,,,,,,,,,,,,,,,,,,,,,,,,,,,,,,,,,,,,,,,,,,,,,,,,,,,,,,,,,,,,,,,,,,,,,,,,,,,,,,,,
0,36,36,41,1,,5ed40c08af400008d9286698,62c539cc424f00fccbaf4ee4,2022-07-06_09h29.59.271,Colour_Asymmetry_Pilot,2022.1.3,Win32,61.10228523,62c50e9c1127f2cd403a315f,,,,,,,,,,,,,,,,,,,,,,,,,,,,,,,,,,,,,,,,,,,,,,,,,,,,,,,,,,,,,,,,,,,,,,,,,,,,,,,,,,,,,,,,,,,,,,,,,,,,,,,,,,,,,,,,,,,,,,,,,,,,,,,,,,,,,,,,,,,,,,,,,,,,,,,,,,,,,,,,,,,
0,37,37,13,1,,5ed40c08af400008d9286698,62c539cc424f00fccbaf4ee4,2022-07-06_09h29.59.271,Colour_Asymmetry_Pilot,2022.1.3,Win32,61.10228523,62c50e9c1127f2cd403a315f,,,,,,,,,,,,,,,,,,,,,,,,,,,,,,,,,,,,,,,,,,,,,,,,,,,,,,,,,,,,,,,,,,,,,,,,,,,,,,,,,,,,,,,,,,,,,,,,,,,,,,,,,,,,,,,,,,,,,,,,,,,,,,,,,,,,,,,,,,,,,,,,,,,,,,,,,,,,,,,,,,,
0,38,38,35,1,,5ed40c08af400008d9286698,62c539cc424f00fccbaf4ee4,2022-07-06_09h29.59.271,Colour_Asymmetry_Pilot,2022.1.3,Win32,61.10228523,62c50e9c1127f2cd403a315f,,,,,,,,,,,,,,,,,,,,,,,,,,,,,,,,,,,,,,,,,,,,,,,,,,,,,,,,,,,,,,,,,,,,,,,,,,,,,,,,,,,,,,,,,,,,,,,,,,,,,,,,,,,,,,,,,,,,,,,,,,,,,,,,,,,,,,,,,,,,,,,,,,,,,,,,,,,,,,,,,,,
0,39,39,24,1,,5ed40c08af400008d9286698,62c539cc424f00fccbaf4ee4,2022-07-06_09h29.59.271,Colour_Asymmetry_Pilot,2022.1.3,Win32,61.10228523,62c50e9c1127f2cd403a315f,,,,,,,,,,,,,,,,,,,,,,,,,,,,,,,,,,,,,,,,,,,,,,,,,,,,,,,,,,,,,,,,,,,,,,,,,,,,,,,,,,,,,,,,,,,,,,,,,,,,,,,,,,,,,,,,,,,,,,,,,,,,,,,,,,,,,,,,,,,,,,,,,,,,,,,,,,,,,,,,,,,
0,40,40,55,1,,5ed40c08af400008d9286698,62c539cc424f00fccbaf4ee4,2022-07-06_09h29.59.271,Colour_Asymmetry_Pilot,2022.1.3,Win32,61.10228523,62c50e9c1127f2cd403a315f,,,,,,,,,,,,,,,,,,,,,,,,,,,,,,,,,,,,,,,,,,,,,,,,,,,,,,,,,,,,,,,,,,,,,,,,,,,,,,,,,,,,,,,,,,,,,,,,,,,,,,,,,,,,,,,,,,,,,,,,,,,,,,,,,,,,,,,,,,,,,,,,,,,,,,,,,,,,,,,,,,,
0,41,41,73,1,,5ed40c08af400008d9286698,62c539cc424f00fccbaf4ee4,2022-07-06_09h29.59.271,Colour_Asymmetry_Pilot,2022.1.3,Win32,61.10228523,62c50e9c1127f2cd403a315f,,,,,,,,,,,,,,,,,,,,,,,,,,,,,,,,,,,,,,,,,,,,,,,,,,,,,,,,,,,,,,,,,,,,,,,,,,,,,,,,,,,,,,,,,,,,,,,,,,,,,,,,,,,,,,,,,,,,,,,,,,,,,,,,,,,,,,,,,,,,,,,,,,,,,,,,,,,,,,,,,,,
0,42,42,29,1,,5ed40c08af400008d9286698,62c539cc424f00fccbaf4ee4,2022-07-06_09h29.59.271,Colour_Asymmetry_Pilot,2022.1.3,Win32,61.10228523,62c50e9c1127f2cd403a315f,,,,,,,,,,,,,,,,,,,,,,,,,,,,,,,,,,,,,,,,,,,,,,,,,,,,,,,,,,,,,,,,,,,,,,,,,,,,,,,,,,,,,,,,,,,,,,,,,,,,,,,,,,,,,,,,,,,,,,,,,,,,,,,,,,,,,,,,,,,,,,,,,,,,,,,,,,,,,,,,,,,
0,43,43,74,1,,5ed40c08af400008d9286698,62c539cc424f00fccbaf4ee4,2022-07-06_09h29.59.271,Colour_Asymmetry_Pilot,2022.1.3,Win32,61.10228523,62c50e9c1127f2cd403a315f,,,,,,,,,,,,,,,,,,,,,,,,,,,,,,,,,,,,,,,,,,,,,,,,,,,,,,,,,,,,,,,,,,,,,,,,,,,,,,,,,,,,,,,,,,,,,,,,,,,,,,,,,,,,,,,,,,,,,,,,,,,,,,,,,,,,,,,,,,,,,,,,,,,,,,,,,,,,,,,,,,,
0,44,44,5,1,,5ed40c08af400008d9286698,62c539cc424f00fccbaf4ee4,2022-07-06_09h29.59.271,Colour_Asymmetry_Pilot,2022.1.3,Win32,61.10228523,62c50e9c1127f2cd403a315f,,,,,,,,,,,,,,,,,,,,,,,,,,,,,,,,,,,,,,,,,,,,,,,,,,,,,,,,,,,,,,,,,,,,,,,,,,,,,,,,,,,,,,,,,,,,,,,,,,,,,,,,,,,,,,,,,,,,,,,,,,,,,,,,,,,,,,,,,,,,,,,,,,,,,,,,,,,,,,,,,,,
0,45,45,1,1,,5ed40c08af400008d9286698,62c539cc424f00fccbaf4ee4,2022-07-06_09h29.59.271,Colour_Asymmetry_Pilot,2022.1.3,Win32,61.10228523,62c50e9c1127f2cd403a315f,,,,,,,,,,,,,,,,,,,,,,,,,,,,,,,,,,,,,,,,,,,,,,,,,,,,,,,,,,,,,,,,,,,,,,,,,,,,,,,,,,,,,,,,,,,,,,,,,,,,,,,,,,,,,,,,,,,,,,,,,,,,,,,,,,,,,,,,,,,,,,,,,,,,,,,,,,,,,,,,,,,
0,46,46,81,1,,5ed40c08af400008d9286698,62c539cc424f00fccbaf4ee4,2022-07-06_09h29.59.271,Colour_Asymmetry_Pilot,2022.1.3,Win32,61.10228523,62c50e9c1127f2cd403a315f,,,,,,,,,,,,,,,,,,,,,,,,,,,,,,,,,,,,,,,,,,,,,,,,,,,,,,,,,,,,,,,,,,,,,,,,,,,,,,,,,,,,,,,,,,,,,,,,,,,,,,,,,,,,,,,,,,,,,,,,,,,,,,,,,,,,,,,,,,,,,,,,,,,,,,,,,,,,,,,,,,,
0,47,47,46,1,,5ed40c08af400008d9286698,62c539cc424f00fccbaf4ee4,2022-07-06_09h29.59.271,Colour_Asymmetry_Pilot,2022.1.3,Win32,61.10228523,62c50e9c1127f2cd403a315f,,,,,,,,,,,,,,,,,,,,,,,,,,,,,,,,,,,,,,,,,,,,,,,,,,,,,,,,,,,,,,,,,,,,,,,,,,,,,,,,,,,,,,,,,,,,,,,,,,,,,,,,,,,,,,,,,,,,,,,,,,,,,,,,,,,,,,,,,,,,,,,,,,,,,,,,,,,,,,,,,,,
0,48,48,45,1,,5ed40c08af400008d9286698,62c539cc424f00fccbaf4ee4,2022-07-06_09h29.59.271,Colour_Asymmetry_Pilot,2022.1.3,Win32,61.10228523,62c50e9c1127f2cd403a315f,,,,,,,,,,,,,,,,,,,,,,,,,,,,,,,,,,,,,,,,,,,,,,,,,,,,,,,,,,,,,,,,,,,,,,,,,,,,,,,,,,,,,,,,,,,,,,,,,,,,,,,,,,,,,,,,,,,,,,,,,,,,,,,,,,,,,,,,,,,,,,,,,,,,,,,,,,,,,,,,,,,
0,49,49,56,1,,5ed40c08af400008d9286698,62c539cc424f00fccbaf4ee4,2022-07-06_09h29.59.271,Colour_Asymmetry_Pilot,2022.1.3,Win32,61.10228523,62c50e9c1127f2cd403a315f,,,,,,,,,,,,,,,,,,,,,,,,,,,,,,,,,,,,,,,,,,,,,,,,,,,,,,,,,,,,,,,,,,,,,,,,,,,,,,,,,,,,,,,,,,,,,,,,,,,,,,,,,,,,,,,,,,,,,,,,,,,,,,,,,,,,,,,,,,,,,,,,,,,,,,,,,,,,,,,,,,,
0,50,50,85,1,,5ed40c08af400008d9286698,62c539cc424f00fccbaf4ee4,2022-07-06_09h29.59.271,Colour_Asymmetry_Pilot,2022.1.3,Win32,61.10228523,62c50e9c1127f2cd403a315f,,,,,,,,,,,,,,,,,,,,,,,,,,,,,,,,,,,,,,,,,,,,,,,,,,,,,,,,,,,,,,,,,,,,,,,,,,,,,,,,,,,,,,,,,,,,,,,,,,,,,,,,,,,,,,,,,,,,,,,,,,,,,,,,,,,,,,,,,,,,,,,,,,,,,,,,,,,,,,,,,,,
0,51,51,52,1,,5ed40c08af400008d9286698,62c539cc424f00fccbaf4ee4,2022-07-06_09h29.59.271,Colour_Asymmetry_Pilot,2022.1.3,Win32,61.10228523,62c50e9c1127f2cd403a315f,,,,,,,,,,,,,,,,,,,,,,,,,,,,,,,,,,,,,,,,,,,,,,,,,,,,,,,,,,,,,,,,,,,,,,,,,,,,,,,,,,,,,,,,,,,,,,,,,,,,,,,,,,,,,,,,,,,,,,,,,,,,,,,,,,,,,,,,,,,,,,,,,,,,,,,,,,,,,,,,,,,
0,52,52,76,1,,5ed40c08af400008d9286698,62c539cc424f00fccbaf4ee4,2022-07-06_09h29.59.271,Colour_Asymmetry_Pilot,2022.1.3,Win32,61.10228523,62c50e9c1127f2cd403a315f,,,,,,,,,,,,,,,,,,,,,,,,,,,,,,,,,,,,,,,,,,,,,,,,,,,,,,,,,,,,,,,,,,,,,,,,,,,,,,,,,,,,,,,,,,,,,,,,,,,,,,,,,,,,,,,,,,,,,,,,,,,,,,,,,,,,,,,,,,,,,,,,,,,,,,,,,,,,,,,,,,,
0,53,53,86,1,,5ed40c08af400008d9286698,62c539cc424f00fccbaf4ee4,2022-07-06_09h29.59.271,Colour_Asymmetry_Pilot,2022.1.3,Win32,61.10228523,62c50e9c1127f2cd403a315f,,,,,,,,,,,,,,,,,,,,,,,,,,,,,,,,,,,,,,,,,,,,,,,,,,,,,,,,,,,,,,,,,,,,,,,,,,,,,,,,,,,,,,,,,,,,,,,,,,,,,,,,,,,,,,,,,,,,,,,,,,,,,,,,,,,,,,,,,,,,,,,,,,,,,,,,,,,,,,,,,,,
0,54,54,6,1,,5ed40c08af400008d9286698,62c539cc424f00fccbaf4ee4,2022-07-06_09h29.59.271,Colour_Asymmetry_Pilot,2022.1.3,Win32,61.10228523,62c50e9c1127f2cd403a315f,,,,,,,,,,,,,,,,,,,,,,,,,,,,,,,,,,,,,,,,,,,,,,,,,,,,,,,,,,,,,,,,,,,,,,,,,,,,,,,,,,,,,,,,,,,,,,,,,,,,,,,,,,,,,,,,,,,,,,,,,,,,,,,,,,,,,,,,,,,,,,,,,,,,,,,,,,,,,,,,,,,
0,55,55,49,1,,5ed40c08af400008d9286698,62c539cc424f00fccbaf4ee4,2022-07-06_09h29.59.271,Colour_Asymmetry_Pilot,2022.1.3,Win32,61.10228523,62c50e9c1127f2cd403a315f,,,,,,,,,,,,,,,,,,,,,,,,,,,,,,,,,,,,,,,,,,,,,,,,,,,,,,,,,,,,,,,,,,,,,,,,,,,,,,,,,,,,,,,,,,,,,,,,,,,,,,,,,,,,,,,,,,,,,,,,,,,,,,,,,,,,,,,,,,,,,,,,,,,,,,,,,,,,,,,,,,,
0,56,56,84,1,,5ed40c08af400008d9286698,62c539cc424f00fccbaf4ee4,2022-07-06_09h29.59.271,Colour_Asymmetry_Pilot,2022.1.3,Win32,61.10228523,62c50e9c1127f2cd403a315f,,,,,,,,,,,,,,,,,,,,,,,,,,,,,,,,,,,,,,,,,,,,,,,,,,,,,,,,,,,,,,,,,,,,,,,,,,,,,,,,,,,,,,,,,,,,,,,,,,,,,,,,,,,,,,,,,,,,,,,,,,,,,,,,,,,,,,,,,,,,,,,,,,,,,,,,,,,,,,,,,,,
0,57,57,12,1,,5ed40c08af400008d9286698,62c539cc424f00fccbaf4ee4,2022-07-06_09h29.59.271,Colour_Asymmetry_Pilot,2022.1.3,Win32,61.10228523,62c50e9c1127f2cd403a315f,,,,,,,,,,,,,,,,,,,,,,,,,,,,,,,,,,,,,,,,,,,,,,,,,,,,,,,,,,,,,,,,,,,,,,,,,,,,,,,,,,,,,,,,,,,,,,,,,,,,,,,,,,,,,,,,,,,,,,,,,,,,,,,,,,,,,,,,,,,,,,,,,,,,,,,,,,,,,,,,,,,
0,58,58,75,1,,5ed40c08af400008d9286698,62c539cc424f00fccbaf4ee4,2022-07-06_09h29.59.271,Colour_Asymmetry_Pilot,2022.1.3,Win32,61.10228523,62c50e9c1127f2cd403a315f,,,,,,,,,,,,,,,,,,,,,,,,,,,,,,,,,,,,,,,,,,,,,,,,,,,,,,,,,,,,,,,,,,,,,,,,,,,,,,,,,,,,,,,,,,,,,,,,,,,,,,,,,,,,,,,,,,,,,,,,,,,,,,,,,,,,,,,,,,,,,,,,,,,,,,,,,,,,,,,,,,,
0,59,59,69,1,,5ed40c08af400008d9286698,62c539cc424f00fccbaf4ee4,2022-07-06_09h29.59.271,Colour_Asymmetry_Pilot,2022.1.3,Win32,61.10228523,62c50e9c1127f2cd403a315f,,,,,,,,,,,,,,,,,,,,,,,,,,,,,,,,,,,,,,,,,,,,,,,,,,,,,,,,,,,,,,,,,,,,,,,,,,,,,,,,,,,,,,,,,,,,,,,,,,,,,,,,,,,,,,,,,,,,,,,,,,,,,,,,,,,,,,,,,,,,,,,,,,,,,,,,,,,,,,,,,,,
0,60,60,54,1,,5ed40c08af400008d9286698,62c539cc424f00fccbaf4ee4,2022-07-06_09h29.59.271,Colour_Asymmetry_Pilot,2022.1.3,Win32,61.10228523,62c50e9c1127f2cd403a315f,,,,,,,,,,,,,,,,,,,,,,,,,,,,,,,,,,,,,,,,,,,,,,,,,,,,,,,,,,,,,,,,,,,,,,,,,,,,,,,,,,,,,,,,,,,,,,,,,,,,,,,,,,,,,,,,,,,,,,,,,,,,,,,,,,,,,,,,,,,,,,,,,,,,,,,,,,,,,,,,,,,
0,61,61,53,1,,5ed40c08af400008d9286698,62c539cc424f00fccbaf4ee4,2022-07-06_09h29.59.271,Colour_Asymmetry_Pilot,2022.1.3,Win32,61.10228523,62c50e9c1127f2cd403a315f,,,,,,,,,,,,,,,,,,,,,,,,,,,,,,,,,,,,,,,,,,,,,,,,,,,,,,,,,,,,,,,,,,,,,,,,,,,,,,,,,,,,,,,,,,,,,,,,,,,,,,,,,,,,,,,,,,,,,,,,,,,,,,,,,,,,,,,,,,,,,,,,,,,,,,,,,,,,,,,,,,,
0,62,62,16,1,,5ed40c08af400008d9286698,62c539cc424f00fccbaf4ee4,2022-07-06_09h29.59.271,Colour_Asymmetry_Pilot,2022.1.3,Win32,61.10228523,62c50e9c1127f2cd403a315f,,,,,,,,,,,,,,,,,,,,,,,,,,,,,,,,,,,,,,,,,,,,,,,,,,,,,,,,,,,,,,,,,,,,,,,,,,,,,,,,,,,,,,,,,,,,,,,,,,,,,,,,,,,,,,,,,,,,,,,,,,,,,,,,,,,,,,,,,,,,,,,,,,,,,,,,,,,,,,,,,,,
0,63,63,78,1,,5ed40c08af400008d9286698,62c539cc424f00fccbaf4ee4,2022-07-06_09h29.59.271,Colour_Asymmetry_Pilot,2022.1.3,Win32,61.10228523,62c50e9c1127f2cd403a315f,,,,,,,,,,,,,,,,,,,,,,,,,,,,,,,,,,,,,,,,,,,,,,,,,,,,,,,,,,,,,,,,,,,,,,,,,,,,,,,,,,,,,,,,,,,,,,,,,,,,,,,,,,,,,,,,,,,,,,,,,,,,,,,,,,,,,,,,,,,,,,,,,,,,,,,,,,,,,,,,,,,
0,64,64,4,1,,5ed40c08af400008d9286698,62c539cc424f00fccbaf4ee4,2022-07-06_09h29.59.271,Colour_Asymmetry_Pilot,2022.1.3,Win32,61.10228523,62c50e9c1127f2cd403a315f,,,,,,,,,,,,,,,,,,,,,,,,,,,,,,,,,,,,,,,,,,,,,,,,,,,,,,,,,,,,,,,,,,,,,,,,,,,,,,,,,,,,,,,,,,,,,,,,,,,,,,,,,,,,,,,,,,,,,,,,,,,,,,,,,,,,,,,,,,,,,,,,,,,,,,,,,,,,,,,,,,,
0,65,65,18,1,,5ed40c08af400008d9286698,62c539cc424f00fccbaf4ee4,2022-07-06_09h29.59.271,Colour_Asymmetry_Pilot,2022.1.3,Win32,61.10228523,62c50e9c1127f2cd403a315f,,,,,,,,,,,,,,,,,,,,,,,,,,,,,,,,,,,,,,,,,,,,,,,,,,,,,,,,,,,,,,,,,,,,,,,,,,,,,,,,,,,,,,,,,,,,,,,,,,,,,,,,,,,,,,,,,,,,,,,,,,,,,,,,,,,,,,,,,,,,,,,,,,,,,,,,,,,,,,,,,,,
0,66,66,82,1,,5ed40c08af400008d9286698,62c539cc424f00fccbaf4ee4,2022-07-06_09h29.59.271,Colour_Asymmetry_Pilot,2022.1.3,Win32,61.10228523,62c50e9c1127f2cd403a315f,,,,,,,,,,,,,,,,,,,,,,,,,,,,,,,,,,,,,,,,,,,,,,,,,,,,,,,,,,,,,,,,,,,,,,,,,,,,,,,,,,,,,,,,,,,,,,,,,,,,,,,,,,,,,,,,,,,,,,,,,,,,,,,,,,,,,,,,,,,,,,,,,,,,,,,,,,,,,,,,,,,
0,67,67,65,1,,5ed40c08af400008d9286698,62c539cc424f00fccbaf4ee4,2022-07-06_09h29.59.271,Colour_Asymmetry_Pilot,2022.1.3,Win32,61.10228523,62c50e9c1127f2cd403a315f,,,,,,,,,,,,,,,,,,,,,,,,,,,,,,,,,,,,,,,,,,,,,,,,,,,,,,,,,,,,,,,,,,,,,,,,,,,,,,,,,,,,,,,,,,,,,,,,,,,,,,,,,,,,,,,,,,,,,,,,,,,,,,,,,,,,,,,,,,,,,,,,,,,,,,,,,,,,,,,,,,,
0,68,68,92,1,,5ed40c08af400008d9286698,62c539cc424f00fccbaf4ee4,2022-07-06_09h29.59.271,Colour_Asymmetry_Pilot,2022.1.3,Win32,61.10228523,62c50e9c1127f2cd403a315f,,,,,,,,,,,,,,,,,,,,,,,,,,,,,,,,,,,,,,,,,,,,,,,,,,,,,,,,,,,,,,,,,,,,,,,,,,,,,,,,,,,,,,,,,,,,,,,,,,,,,,,,,,,,,,,,,,,,,,,,,,,,,,,,,,,,,,,,,,,,,,,,,,,,,,,,,,,,,,,,,,,
0,69,69,19,1,,5ed40c08af400008d9286698,62c539cc424f00fccbaf4ee4,2022-07-06_09h29.59.271,Colour_Asymmetry_Pilot,2022.1.3,Win32,61.10228523,62c50e9c1127f2cd403a315f,,,,,,,,,,,,,,,,,,,,,,,,,,,,,,,,,,,,,,,,,,,,,,,,,,,,,,,,,,,,,,,,,,,,,,,,,,,,,,,,,,,,,,,,,,,,,,,,,,,,,,,,,,,,,,,,,,,,,,,,,,,,,,,,,,,,,,,,,,,,,,,,,,,,,,,,,,,,,,,,,,,
0,70,70,87,1,,5ed40c08af400008d9286698,62c539cc424f00fccbaf4ee4,2022-07-06_09h29.59.271,Colour_Asymmetry_Pilot,2022.1.3,Win32,61.10228523,62c50e9c1127f2cd403a315f,,,,,,,,,,,,,,,,,,,,,,,,,,,,,,,,,,,,,,,,,,,,,,,,,,,,,,,,,,,,,,,,,,,,,,,,,,,,,,,,,,,,,,,,,,,,,,,,,,,,,,,,,,,,,,,,,,,,,,,,,,,,,,,,,,,,,,,,,,,,,,,,,,,,,,,,,,,,,,,,,,,
0,71,71,9,1,,5ed40c08af400008d9286698,62c539cc424f00fccbaf4ee4,2022-07-06_09h29.59.271,Colour_Asymmetry_Pilot,2022.1.3,Win32,61.10228523,62c50e9c1127f2cd403a315f,,,,,,,,,,,,,,,,,,,,,,,,,,,,,,,,,,,,,,,,,,,,,,,,,,,,,,,,,,,,,,,,,,,,,,,,,,,,,,,,,,,,,,,,,,,,,,,,,,,,,,,,,,,,,,,,,,,,,,,,,,,,,,,,,,,,,,,,,,,,,,,,,,,,,,,,,,,,,,,,,,,
0,72,72,67,1,,5ed40c08af400008d9286698,62c539cc424f00fccbaf4ee4,2022-07-06_09h29.59.271,Colour_Asymmetry_Pilot,2022.1.3,Win32,61.10228523,62c50e9c1127f2cd403a315f,,,,,,,,,,,,,,,,,,,,,,,,,,,,,,,,,,,,,,,,,,,,,,,,,,,,,,,,,,,,,,,,,,,,,,,,,,,,,,,,,,,,,,,,,,,,,,,,,,,,,,,,,,,,,,,,,,,,,,,,,,,,,,,,,,,,,,,,,,,,,,,,,,,,,,,,,,,,,,,,,,,
0,73,73,68,1,,5ed40c08af400008d9286698,62c539cc424f00fccbaf4ee4,2022-07-06_09h29.59.271,Colour_Asymmetry_Pilot,2022.1.3,Win32,61.10228523,62c50e9c1127f2cd403a315f,,,,,,,,,,,,,,,,,,,,,,,,,,,,,,,,,,,,,,,,,,,,,,,,,,,,,,,,,,,,,,,,,,,,,,,,,,,,,,,,,,,,,,,,,,,,,,,,,,,,,,,,,,,,,,,,,,,,,,,,,,,,,,,,,,,,,,,,,,,,,,,,,,,,,,,,,,,,,,,,,,,
0,74,74,14,1,,5ed40c08af400008d9286698,62c539cc424f00fccbaf4ee4,2022-07-06_09h29.59.271,Colour_Asymmetry_Pilot,2022.1.3,Win32,61.10228523,62c50e9c1127f2cd403a315f,,,,,,,,,,,,,,,,,,,,,,,,,,,,,,,,,,,,,,,,,,,,,,,,,,,,,,,,,,,,,,,,,,,,,,,,,,,,,,,,,,,,,,,,,,,,,,,,,,,,,,,,,,,,,,,,,,,,,,,,,,,,,,,,,,,,,,,,,,,,,,,,,,,,,,,,,,,,,,,,,,,
0,75,75,63,1,,5ed40c08af400008d9286698,62c539cc424f00fccbaf4ee4,2022-07-06_09h29.59.271,Colour_Asymmetry_Pilot,2022.1.3,Win32,61.10228523,62c50e9c1127f2cd403a315f,,,,,,,,,,,,,,,,,,,,,,,,,,,,,,,,,,,,,,,,,,,,,,,,,,,,,,,,,,,,,,,,,,,,,,,,,,,,,,,,,,,,,,,,,,,,,,,,,,,,,,,,,,,,,,,,,,,,,,,,,,,,,,,,,,,,,,,,,,,,,,,,,,,,,,,,,,,,,,,,,,,
0,76,76,27,1,,5ed40c08af400008d9286698,62c539cc424f00fccbaf4ee4,2022-07-06_09h29.59.271,Colour_Asymmetry_Pilot,2022.1.3,Win32,61.10228523,62c50e9c1127f2cd403a315f,,,,,,,,,,,,,,,,,,,,,,,,,,,,,,,,,,,,,,,,,,,,,,,,,,,,,,,,,,,,,,,,,,,,,,,,,,,,,,,,,,,,,,,,,,,,,,,,,,,,,,,,,,,,,,,,,,,,,,,,,,,,,,,,,,,,,,,,,,,,,,,,,,,,,,,,,,,,,,,,,,,
0,77,77,28,1,,5ed40c08af400008d9286698,62c539cc424f00fccbaf4ee4,2022-07-06_09h29.59.271,Colour_Asymmetry_Pilot,2022.1.3,Win32,61.10228523,62c50e9c1127f2cd403a315f,,,,,,,,,,,,,,,,,,,,,,,,,,,,,,,,,,,,,,,,,,,,,,,,,,,,,,,,,,,,,,,,,,,,,,,,,,,,,,,,,,,,,,,,,,,,,,,,,,,,,,,,,,,,,,,,,,,,,,,,,,,,,,,,,,,,,,,,,,,,,,,,,,,,,,,,,,,,,,,,,,,
0,78,78,36,1,,5ed40c08af400008d9286698,62c539cc424f00fccbaf4ee4,2022-07-06_09h29.59.271,Colour_Asymmetry_Pilot,2022.1.3,Win32,61.10228523,62c50e9c1127f2cd403a315f,,,,,,,,,,,,,,,,,,,,,,,,,,,,,,,,,,,,,,,,,,,,,,,,,,,,,,,,,,,,,,,,,,,,,,,,,,,,,,,,,,,,,,,,,,,,,,,,,,,,,,,,,,,,,,,,,,,,,,,,,,,,,,,,,,,,,,,,,,,,,,,,,,,,,,,,,,,,,,,,,,,
0,79,79,90,1,,5ed40c08af400008d9286698,62c539cc424f00fccbaf4ee4,2022-07-06_09h29.59.271,Colour_Asymmetry_Pilot,2022.1.3,Win32,61.10228523,62c50e9c1127f2cd403a315f,,,,,,,,,,,,,,,,,,,,,,,,,,,,,,,,,,,,,,,,,,,,,,,,,,,,,,,,,,,,,,,,,,,,,,,,,,,,,,,,,,,,,,,,,,,,,,,,,,,,,,,,,,,,,,,,,,,,,,,,,,,,,,,,,,,,,,,,,,,,,,,,,,,,,,,,,,,,,,,,,,,
0,80,80,34,1,,5ed40c08af400008d9286698,62c539cc424f00fccbaf4ee4,2022-07-06_09h29.59.271,Colour_Asymmetry_Pilot,2022.1.3,Win32,61.10228523,62c50e9c1127f2cd403a315f,,,,,,,,,,,,,,,,,,,,,,,,,,,,,,,,,,,,,,,,,,,,,,,,,,,,,,,,,,,,,,,,,,,,,,,,,,,,,,,,,,,,,,,,,,,,,,,,,,,,,,,,,,,,,,,,,,,,,,,,,,,,,,,,,,,,,,,,,,,,,,,,,,,,,,,,,,,,,,,,,,,
0,81,81,40,1,,5ed40c08af400008d9286698,62c539cc424f00fccbaf4ee4,2022-07-06_09h29.59.271,Colour_Asymmetry_Pilot,2022.1.3,Win32,61.10228523,62c50e9c1127f2cd403a315f,,,,,,,,,,,,,,,,,,,,,,,,,,,,,,,,,,,,,,,,,,,,,,,,,,,,,,,,,,,,,,,,,,,,,,,,,,,,,,,,,,,,,,,,,,,,,,,,,,,,,,,,,,,,,,,,,,,,,,,,,,,,,,,,,,,,,,,,,,,,,,,,,,,,,,,,,,,,,,,,,,,
0,82,82,31,1,,5ed40c08af400008d9286698,62c539cc424f00fccbaf4ee4,2022-07-06_09h29.59.271,Colour_Asymmetry_Pilot,2022.1.3,Win32,61.10228523,62c50e9c1127f2cd403a315f,,,,,,,,,,,,,,,,,,,,,,,,,,,,,,,,,,,,,,,,,,,,,,,,,,,,,,,,,,,,,,,,,,,,,,,,,,,,,,,,,,,,,,,,,,,,,,,,,,,,,,,,,,,,,,,,,,,,,,,,,,,,,,,,,,,,,,,,,,,,,,,,,,,,,,,,,,,,,,,,,,,
0,83,83,70,1,,5ed40c08af400008d9286698,62c539cc424f00fccbaf4ee4,2022-07-06_09h29.59.271,Colour_Asymmetry_Pilot,2022.1.3,Win32,61.10228523,62c50e9c1127f2cd403a315f,,,,,,,,,,,,,,,,,,,,,,,,,,,,,,,,,,,,,,,,,,,,,,,,,,,,,,,,,,,,,,,,,,,,,,,,,,,,,,,,,,,,,,,,,,,,,,,,,,,,,,,,,,,,,,,,,,,,,,,,,,,,,,,,,,,,,,,,,,,,,,,,,,,,,,,,,,,,,,,,,,,
0,84,84,77,1,,5ed40c08af400008d9286698,62c539cc424f00fccbaf4ee4,2022-07-06_09h29.59.271,Colour_Asymmetry_Pilot,2022.1.3,Win32,61.10228523,62c50e9c1127f2cd403a315f,,,,,,,,,,,,,,,,,,,,,,,,,,,,,,,,,,,,,,,,,,,,,,,,,,,,,,,,,,,,,,,,,,,,,,,,,,,,,,,,,,,,,,,,,,,,,,,,,,,,,,,,,,,,,,,,,,,,,,,,,,,,,,,,,,,,,,,,,,,,,,,,,,,,,,,,,,,,,,,,,,,
0,85,85,79,1,,5ed40c08af400008d9286698,62c539cc424f00fccbaf4ee4,2022-07-06_09h29.59.271,Colour_Asymmetry_Pilot,2022.1.3,Win32,61.10228523,62c50e9c1127f2cd403a315f,,,,,,,,,,,,,,,,,,,,,,,,,,,,,,,,,,,,,,,,,,,,,,,,,,,,,,,,,,,,,,,,,,,,,,,,,,,,,,,,,,,,,,,,,,,,,,,,,,,,,,,,,,,,,,,,,,,,,,,,,,,,,,,,,,,,,,,,,,,,,,,,,,,,,,,,,,,,,,,,,,,
0,86,86,30,1,,5ed40c08af400008d9286698,62c539cc424f00fccbaf4ee4,2022-07-06_09h29.59.271,Colour_Asymmetry_Pilot,2022.1.3,Win32,61.10228523,62c50e9c1127f2cd403a315f,,,,,,,,,,,,,,,,,,,,,,,,,,,,,,,,,,,,,,,,,,,,,,,,,,,,,,,,,,,,,,,,,,,,,,,,,,,,,,,,,,,,,,,,,,,,,,,,,,,,,,,,,,,,,,,,,,,,,,,,,,,,,,,,,,,,,,,,,,,,,,,,,,,,,,,,,,,,,,,,,,,
0,87,87,57,1,,5ed40c08af400008d9286698,62c539cc424f00fccbaf4ee4,2022-07-06_09h29.59.271,Colour_Asymmetry_Pilot,2022.1.3,Win32,61.10228523,62c50e9c1127f2cd403a315f,,,,,,,,,,,,,,,,,,,,,,,,,,,,,,,,,,,,,,,,,,,,,,,,,,,,,,,,,,,,,,,,,,,,,,,,,,,,,,,,,,,,,,,,,,,,,,,,,,,,,,,,,,,,,,,,,,,,,,,,,,,,,,,,,,,,,,,,,,,,,,,,,,,,,,,,,,,,,,,,,,,
0,88,88,39,1,,5ed40c08af400008d9286698,62c539cc424f00fccbaf4ee4,2022-07-06_09h29.59.271,Colour_Asymmetry_Pilot,2022.1.3,Win32,61.10228523,62c50e9c1127f2cd403a315f,,,,,,,,,,,,,,,,,,,,,,,,,,,,,,,,,,,,,,,,,,,,,,,,,,,,,,,,,,,,,,,,,,,,,,,,,,,,,,,,,,,,,,,,,,,,,,,,,,,,,,,,,,,,,,,,,,,,,,,,,,,,,,,,,,,,,,,,,,,,,,,,,,,,,,,,,,,,,,,,,,,
0,89,89,88,1,,5ed40c08af400008d9286698,62c539cc424f00fccbaf4ee4,2022-07-06_09h29.59.271,Colour_Asymmetry_Pilot,2022.1.3,Win32,61.10228523,62c50e9c1127f2cd403a315f,,,,,,,,,,,,,,,,,,,,,,,,,,,,,,,,,,,,,,,,,,,,,,,,,,,,,,,,,,,,,,,,,,,,,,,,,,,,,,,,,,,,,,,,,,,,,,,,,,,,,,,,,,,,,,,,,,,,,,,,,,,,,,,,,,,,,,,,,,,,,,,,,,,,,,,,,,,,,,,,,,,
0,90,90,48,1,,5ed40c08af400008d9286698,62c539cc424f00fccbaf4ee4,2022-07-06_09h29.59.271,Colour_Asymmetry_Pilot,2022.1.3,Win32,61.10228523,62c50e9c1127f2cd403a315f,,,,,,,,,,,,,,,,,,,,,,,,,,,,,,,,,,,,,,,,,,,,,,,,,,,,,,,,,,,,,,,,,,,,,,,,,,,,,,,,,,,,,,,,,,,,,,,,,,,,,,,,,,,,,,,,,,,,,,,,,,,,,,,,,,,,,,,,,,,,,,,,,,,,,,,,,,,,,,,,,,,
0,91,91,0,1,,5ed40c08af400008d9286698,62c539cc424f00fccbaf4ee4,2022-07-06_09h29.59.271,Colour_Asymmetry_Pilot,2022.1.3,Win32,61.10228523,62c50e9c1127f2cd403a315f,,,,,,,,,,,,,,,,,,,,,,,,,,,,,,,,,,,,,,,,,,,,,,,,,,,,,,,,,,,,,,,,,,,,,,,,,,,,,,,,,,,,,,,,,,,,,,,,,,,,,,,,,,,,,,,,,,,,,,,,,,,,,,,,,,,,,,,,,,,,,,,,,,,,,,,,,,,,,,,,,,,
0,92,92,89,1,,5ed40c08af400008d9286698,62c539cc424f00fccbaf4ee4,2022-07-06_09h29.59.271,Colour_Asymmetry_Pilot,2022.1.3,Win32,61.10228523,62c50e9c1127f2cd403a315f,,,,,,,,,,,,,,,,,,,,,,,,,,,,,,,,,,,,,,,,,,,,,,,,,,,,,,,,,,,,,,,,,,,,,,,,,,,,,,,,,,,,,,,,,,,,,,,,,,,,,,,,,,,,,,,,,,,,,,,,,,,,,,,,,,,,,,,,,,,,,,,,,,,,,,,,,,,,,,,,,,,
,,,,,,5ed40c08af400008d9286698,62c539cc424f00fccbaf4ee4,2022-07-06_09h29.59.271,Colour_Asymmetry_Pilot,2022.1.3,Win32,61.10228523,62c50e9c1127f2cd403a315f,0,0,0,98,1,twoone,,,,,,,,,,,,,,,,,,,,,,,,,,,,,,,,,,,,,,,,,,,,,,,,,,,,,,,,,,,,,,,,,,,,,,,,,,,,,,,,,,,,,,,,,,,,,,,,,,,,,,,,,,,,,,,,,,,,,,,,,,,,,,,,,,,,,,,,,,,,,,,,,,,,,,,,,,,,,
,,,,,,5ed40c08af400008d9286698,62c539cc424f00fccbaf4ee4,2022-07-06_09h29.59.271,Colour_Asymmetry_Pilot,2022.1.3,Win32,61.10228523,62c50e9c1127f2cd403a315f,0,1,1,107,1,twofour,,,,,,,,,,,,,,,,,,,,,,,,,,,,,,,,,,,,,,,,,,,,,,,,,,,,,,,,,,,,,,,,,,,,,,,,,,,,,,,,,,,,,,,,,,,,,,,,,,,,,,,,,,,,,,,,,,,,,,,,,,,,,,,,,,,,,,,,,,,,,,,,,,,,,,,,,,,,,
,,,,,,5ed40c08af400008d9286698,62c539cc424f00fccbaf4ee4,2022-07-06_09h29.59.271,Colour_Asymmetry_Pilot,2022.1.3,Win32,61.10228523,62c50e9c1127f2cd403a315f,0,2,2,36,1,threeone,,,,,,,,,,,,,,,,,,,,,,,,,,,,,,,,,,,,,,,,,,,,,,,,,,,,,,,,,,,,,,,,,,,,,,,,,,,,,,,,,,,,,,,,,,,,,,,,,,,,,,,,,,,,,,,,,,,,,,,,,,,,,,,,,,,,,,,,,,,,,,,,,,,,,,,,,,,,,
,,,,,,5ed40c08af400008d9286698,62c539cc424f00fccbaf4ee4,2022-07-06_09h29.59.271,Colour_Asymmetry_Pilot,2022.1.3,Win32,61.10228523,62c50e9c1127f2cd403a315f,0,3,3,155,1,twofour,,,,,,,,,,,,,,,,,,,,,,,,,,,,,,,,,,,,,,,,,,,,,,,,,,,,,,,,,,,,,,,,,,,,,,,,,,,,,,,,,,,,,,,,,,,,,,,,,,,,,,,,,,,,,,,,,,,,,,,,,,,,,,,,,,,,,,,,,,,,,,,,,,,,,,,,,,,,,
,,,,,,5ed40c08af400008d9286698,62c539cc424f00fccbaf4ee4,2022-07-06_09h29.59.271,Colour_Asymmetry_Pilot,2022.1.3,Win32,61.10228523,62c50e9c1127f2cd403a315f,0,4,4,137,1,onethree,,,,,,,,,,,,,,,,,,,,,,,,,,,,,,,,,,,,,,,,,,,,,,,,,,,,,,,,,,,,,,,,,,,,,,,,,,,,,,,,,,,,,,,,,,,,,,,,,,,,,,,,,,,,,,,,,,,,,,,,,,,,,,,,,,,,,,,,,,,,,,,,,,,,,,,,,,,,,
,,,,,,5ed40c08af400008d9286698,62c539cc424f00fccbaf4ee4,2022-07-06_09h29.59.271,Colour_Asymmetry_Pilot,2022.1.3,Win32,61.10228523,62c50e9c1127f2cd403a315f,0,5,5,61,1,threefour,,,,,,,,,,,,,,,,,,,,,,,,,,,,,,,,,,,,,,,,,,,,,,,,,,,,,,,,,,,,,,,,,,,,,,,,,,,,,,,,,,,,,,,,,,,,,,,,,,,,,,,,,,,,,,,,,,,,,,,,,,,,,,,,,,,,,,,,,,,,,,,,,,,,,,,,,,,,,
,,,,,,5ed40c08af400008d9286698,62c539cc424f00fccbaf4ee4,2022-07-06_09h29.59.271,Colour_Asymmetry_Pilot,2022.1.3,Win32,61.10228523,62c50e9c1127f2cd403a315f,0,6,6,122,1,twoone,,,,,,,,,,,,,,,,,,,,,,,,,,,,,,,,,,,,,,,,,,,,,,,,,,,,,,,,,,,,,,,,,,,,,,,,,,,,,,,,,,,,,,,,,,,,,,,,,,,,,,,,,,,,,,,,,,,,,,,,,,,,,,,,,,,,,,,,,,,,,,,,,,,,,,,,,,,,,
,,,,,,5ed40c08af400008d9286698,62c539cc424f00fccbaf4ee4,2022-07-06_09h29.59.271,Colour_Asymmetry_Pilot,2022.1.3,Win32,61.10228523,62c50e9c1127f2cd403a315f,0,7,7,153,1,onethree,,,,,,,,,,,,,,,,,,,,,,,,,,,,,,,,,,,,,,,,,,,,,,,,,,,,,,,,,,,,,,,,,,,,,,,,,,,,,,,,,,,,,,,,,,,,,,,,,,,,,,,,,,,,,,,,,,,,,,,,,,,,,,,,,,,,,,,,,,,,,,,,,,,,,,,,,,,,,
,,,,,,5ed40c08af400008d9286698,62c539cc424f00fccbaf4ee4,2022-07-06_09h29.59.271,Colour_Asymmetry_Pilot,2022.1.3,Win32,61.10228523,62c50e9c1127f2cd403a315f,0,8,8,39,1,fourthree,,,,,,,,,,,,,,,,,,,,,,,,,,,,,,,,,,,,,,,,,,,,,,,,,,,,,,,,,,,,,,,,,,,,,,,,,,,,,,,,,,,,,,,,,,,,,,,,,,,,,,,,,,,,,,,,,,,,,,,,,,,,,,,,,,,,,,,,,,,,,,,,,,,,,,,,,,,,,
,,,,,,5ed40c08af400008d9286698,62c539cc424f00fccbaf4ee4,2022-07-06_09h29.59.271,Colour_Asymmetry_Pilot,2022.1.3,Win32,61.10228523,62c50e9c1127f2cd403a315f,0,9,9,70,1,fourtwo,,,,,,,,,,,,,,,,,,,,,,,,,,,,,,,,,,,,,,,,,,,,,,,,,,,,,,,,,,,,,,,,,,,,,,,,,,,,,,,,,,,,,,,,,,,,,,,,,,,,,,,,,,,,,,,,,,,,,,,,,,,,,,,,,,,,,,,,,,,,,,,,,,,,,,,,,,,,,
,,,,,,5ed40c08af400008d9286698,62c539cc424f00fccbaf4ee4,2022-07-06_09h29.59.271,Colour_Asymmetry_Pilot,2022.1.3,Win32,61.10228523,62c50e9c1127f2cd403a315f,0,10,10,86,1,fourtwo,,,,,,,,,,,,,,,,,,,,,,,,,,,,,,,,,,,,,,,,,,,,,,,,,,,,,,,,,,,,,,,,,,,,,,,,,,,,,,,,,,,,,,,,,,,,,,,,,,,,,,,,,,,,,,,,,,,,,,,,,,,,,,,,,,,,,,,,,,,,,,,,,,,,,,,,,,,,,
,,,,,,5ed40c08af400008d9286698,62c539cc424f00fccbaf4ee4,2022-07-06_09h29.59.271,Colour_Asymmetry_Pilot,2022.1.3,Win32,61.10228523,62c50e9c1127f2cd403a315f,0,11,11,123,1,twofour,,,,,,,,,,,,,,,,,,,,,,,,,,,,,,,,,,,,,,,,,,,,,,,,,,,,,,,,,,,,,,,,,,,,,,,,,,,,,,,,,,,,,,,,,,,,,,,,,,,,,,,,,,,,,,,,,,,,,,,,,,,,,,,,,,,,,,,,,,,,,,,,,,,,,,,,,,,,,
,,,,,,5ed40c08af400008d9286698,62c539cc424f00fccbaf4ee4,2022-07-06_09h29.59.271,Colour_Asymmetry_Pilot,2022.1.3,Win32,61.10228523,62c50e9c1127f2cd403a315f,0,12,12,76,1,threeone,,,,,,,,,,,,,,,,,,,,,,,,,,,,,,,,,,,,,,,,,,,,,,,,,,,,,,,,,,,,,,,,,,,,,,,,,,,,,,,,,,,,,,,,,,,,,,,,,,,,,,,,,,,,,,,,,,,,,,,,,,,,,,,,,,,,,,,,,,,,,,,,,,,,,,,,,,,,,
,,,,,,5ed40c08af400008d9286698,62c539cc424f00fccbaf4ee4,2022-07-06_09h29.59.271,Colour_Asymmetry_Pilot,2022.1.3,Win32,61.10228523,62c50e9c1127f2cd403a315f,0,13,13,117,1,threefour,,,,,,,,,,,,,,,,,,,,,,,,,,,,,,,,,,,,,,,,,,,,,,,,,,,,,,,,,,,,,,,,,,,,,,,,,,,,,,,,,,,,,,,,,,,,,,,,,,,,,,,,,,,,,,,,,,,,,,,,,,,,,,,,,,,,,,,,,,,,,,,,,,,,,,,,,,,,,
,,,,,,5ed40c08af400008d9286698,62c539cc424f00fccbaf4ee4,2022-07-06_09h29.59.271,Colour_Asymmetry_Pilot,2022.1.3,Win32,61.10228523,62c50e9c1127f2cd403a315f,0,14,14,108,1,threeone,,,,,,,,,,,,,,,,,,,,,,,,,,,,,,,,,,,,,,,,,,,,,,,,,,,,,,,,,,,,,,,,,,,,,,,,,,,,,,,,,,,,,,,,,,,,,,,,,,,,,,,,,,,,,,,,,,,,,,,,,,,,,,,,,,,,,,,,,,,,,,,,,,,,,,,,,,,,,
,,,,,,5ed40c08af400008d9286698,62c539cc424f00fccbaf4ee4,2022-07-06_09h29.59.271,Colour_Asymmetry_Pilot,2022.1.3,Win32,61.10228523,62c50e9c1127f2cd403a315f,0,15,15,33,1,onethree,,,,,,,,,,,,,,,,,,,,,,,,,,,,,,,,,,,,,,,,,,,,,,,,,,,,,,,,,,,,,,,,,,,,,,,,,,,,,,,,,,,,,,,,,,,,,,,,,,,,,,,,,,,,,,,,,,,,,,,,,,,,,,,,,,,,,,,,,,,,,,,,,,,,,,,,,,,,,
,,,,,,5ed40c08af400008d9286698,62c539cc424f00fccbaf4ee4,2022-07-06_09h29.59.271,Colour_Asymmetry_Pilot,2022.1.3,Win32,61.10228523,62c50e9c1127f2cd403a315f,0,16,16,136,1,onetwo,,,,,,,,,,,,,,,,,,,,,,,,,,,,,,,,,,,,,,,,,,,,,,,,,,,,,,,,,,,,,,,,,,,,,,,,,,,,,,,,,,,,,,,,,,,,,,,,,,,,,,,,,,,,,,,,,,,,,,,,,,,,,,,,,,,,,,,,,,,,,,,,,,,,,,,,,,,,,
,,,,,,5ed40c08af400008d9286698,62c539cc424f00fccbaf4ee4,2022-07-06_09h29.59.271,Colour_Asymmetry_Pilot,2022.1.3,Win32,61.10228523,62c50e9c1127f2cd403a315f,0,17,17,12,1,threeone,,,,,,,,,,,,,,,,,,,,,,,,,,,,,,,,,,,,,,,,,,,,,,,,,,,,,,,,,,,,,,,,,,,,,,,,,,,,,,,,,,,,,,,,,,,,,,,,,,,,,,,,,,,,,,,,,,,,,,,,,,,,,,,,,,,,,,,,,,,,,,,,,,,,,,,,,,,,,
,,,,,,5ed40c08af400008d9286698,62c539cc424f00fccbaf4ee4,2022-07-06_09h29.59.271,Colour_Asymmetry_Pilot,2022.1.3,Win32,61.10228523,62c50e9c1127f2cd403a315f,0,18,18,56,1,onetwo,,,,,,,,,,,,,,,,,,,,,,,,,,,,,,,,,,,,,,,,,,,,,,,,,,,,,,,,,,,,,,,,,,,,,,,,,,,,,,,,,,,,,,,,,,,,,,,,,,,,,,,,,,,,,,,,,,,,,,,,,,,,,,,,,,,,,,,,,,,,,,,,,,,,,,,,,,,,,
,,,,,,5ed40c08af400008d9286698,62c539cc424f00fccbaf4ee4,2022-07-06_09h29.59.271,Colour_Asymmetry_Pilot,2022.1.3,Win32,61.10228523,62c50e9c1127f2cd403a315f,0,19,19,152,1,onetwo,,,,,,,,,,,,,,,,,,,,,,,,,,,,,,,,,,,,,,,,,,,,,,,,,,,,,,,,,,,,,,,,,,,,,,,,,,,,,,,,,,,,,,,,,,,,,,,,,,,,,,,,,,,,,,,,,,,,,,,,,,,,,,,,,,,,,,,,,,,,,,,,,,,,,,,,,,,,,
,,,,,,5ed40c08af400008d9286698,62c539cc424f00fccbaf4ee4,2022-07-06_09h29.59.271,Colour_Asymmetry_Pilot,2022.1.3,Win32,61.10228523,62c50e9c1127f2cd403a315f,0,20,20,7,1,fourthree,,,,,,,,,,,,,,,,,,,,,,,,,,,,,,,,,,,,,,,,,,,,,,,,,,,,,,,,,,,,,,,,,,,,,,,,,,,,,,,,,,,,,,,,,,,,,,,,,,,,,,,,,,,,,,,,,,,,,,,,,,,,,,,,,,,,,,,,,,,,,,,,,,,,,,,,,,,,,
,,,,,,5ed40c08af400008d9286698,62c539cc424f00fccbaf4ee4,2022-07-06_09h29.59.271,Colour_Asymmetry_Pilot,2022.1.3,Win32,61.10228523,62c50e9c1127f2cd403a315f,0,21,21,15,1,fourthree,,,,,,,,,,,,,,,,,,,,,,,,,,,,,,,,,,,,,,,,,,,,,,,,,,,,,,,,,,,,,,,,,,,,,,,,,,,,,,,,,,,,,,,,,,,,,,,,,,,,,,,,,,,,,,,,,,,,,,,,,,,,,,,,,,,,,,,,,,,,,,,,,,,,,,,,,,,,,
,,,,,,5ed40c08af400008d9286698,62c539cc424f00fccbaf4ee4,2022-07-06_09h29.59.271,Colour_Asymmetry_Pilot,2022.1.3,Win32,61.10228523,62c50e9c1127f2cd403a315f,0,22,22,159,1,fourthree,,,,,,,,,,,,,,,,,,,,,,,,,,,,,,,,,,,,,,,,,,,,,,,,,,,,,,,,,,,,,,,,,,,,,,,,,,,,,,,,,,,,,,,,,,,,,,,,,,,,,,,,,,,,,,,,,,,,,,,,,,,,,,,,,,,,,,,,,,,,,,,,,,,,,,,,,,,,,
,,,,,,5ed40c08af400008d9286698,62c539cc424f00fccbaf4ee4,2022-07-06_09h29.59.271,Colour_Asymmetry_Pilot,2022.1.3,Win32,61.10228523,62c50e9c1127f2cd403a315f,0,23,23,97,1,onethree,,,,,,,,,,,,,,,,,,,,,,,,,,,,,,,,,,,,,,,,,,,,,,,,,,,,,,,,,,,,,,,,,,,,,,,,,,,,,,,,,,,,,,,,,,,,,,,,,,,,,,,,,,,,,,,,,,,,,,,,,,,,,,,,,,,,,,,,,,,,,,,,,,,,,,,,,,,,,
,,,,,,5ed40c08af400008d9286698,62c539cc424f00fccbaf4ee4,2022-07-06_09h29.59.271,Colour_Asymmetry_Pilot,2022.1.3,Win32,61.10228523,62c50e9c1127f2cd403a315f,0,24,24,42,1,twoone,,,,,,,,,,,,,,,,,,,,,,,,,,,,,,,,,,,,,,,,,,,,,,,,,,,,,,,,,,,,,,,,,,,,,,,,,,,,,,,,,,,,,,,,,,,,,,,,,,,,,,,,,,,,,,,,,,,,,,,,,,,,,,,,,,,,,,,,,,,,,,,,,,,,,,,,,,,,,
,,,,,,5ed40c08af400008d9286698,62c539cc424f00fccbaf4ee4,2022-07-06_09h29.59.271,Colour_Asymmetry_Pilot,2022.1.3,Win32,61.10228523,62c50e9c1127f2cd403a315f,0,25,25,99,1,twofour,,,,,,,,,,,,,,,,,,,,,,,,,,,,,,,,,,,,,,,,,,,,,,,,,,,,,,,,,,,,,,,,,,,,,,,,,,,,,,,,,,,,,,,,,,,,,,,,,,,,,,,,,,,,,,,,,,,,,,,,,,,,,,,,,,,,,,,,,,,,,,,,,,,,,,,,,,,,,
,,,,,,5ed40c08af400008d9286698,62c539cc424f00fccbaf4ee4,2022-07-06_09h29.59.271,Colour_Asymmetry_Pilot,2022.1.3,Win32,61.10228523,62c50e9c1127f2cd403a315f,0,26,26,154,1,twoone,,,,,,,,,,,,,,,,,,,,,,,,,,,,,,,,,,,,,,,,,,,,,,,,,,,,,,,,,,,,,,,,,,,,,,,,,,,,,,,,,,,,,,,,,,,,,,,,,,,,,,,,,,,,,,,,,,,,,,,,,,,,,,,,,,,,,,,,,,,,,,,,,,,,,,,,,,,,,
,,,,,,5ed40c08af400008d9286698,62c539cc424f00fccbaf4ee4,2022-07-06_09h29.59.271,Colour_Asymmetry_Pilot,2022.1.3,Win32,61.10228523,62c50e9c1127f2cd403a315f,0,27,27,146,1,twoone,,,,,,,,,,,,,,,,,,,,,,,,,,,,,,,,,,,,,,,,,,,,,,,,,,,,,,,,,,,,,,,,,,,,,,,,,,,,,,,,,,,,,,,,,,,,,,,,,,,,,,,,,,,,,,,,,,,,,,,,,,,,,,,,,,,,,,,,,,,,,,,,,,,,,,,,,,,,,
,,,,,,5ed40c08af400008d9286698,62c539cc424f00fccbaf4ee4,2022-07-06_09h29.59.271,Colour_Asymmetry_Pilot,2022.1.3,Win32,61.10228523,62c50e9c1127f2cd403a315f,0,28,28,48,1,onetwo,,,,,,,,,,,,,,,,,,,,,,,,,,,,,,,,,,,,,,,,,,,,,,,,,,,,,,,,,,,,,,,,,,,,,,,,,,,,,,,,,,,,,,,,,,,,,,,,,,,,,,,,,,,,,,,,,,,,,,,,,,,,,,,,,,,,,,,,,,,,,,,,,,,,,,,,,,,,,
,,,,,,5ed40c08af400008d9286698,62c539cc424f00fccbaf4ee4,2022-07-06_09h29.59.271,Colour_Asymmetry_Pilot,2022.1.3,Win32,61.10228523,62c50e9c1127f2cd403a315f,0,29,29,91,1,twofour,,,,,,,,,,,,,,,,,,,,,,,,,,,,,,,,,,,,,,,,,,,,,,,,,,,,,,,,,,,,,,,,,,,,,,,,,,,,,,,,,,,,,,,,,,,,,,,,,,,,,,,,,,,,,,,,,,,,,,,,,,,,,,,,,,,,,,,,,,,,,,,,,,,,,,,,,,,,,
,,,,,,5ed40c08af400008d9286698,62c539cc424f00fccbaf4ee4,2022-07-06_09h29.59.271,Colour_Asymmetry_Pilot,2022.1.3,Win32,61.10228523,62c50e9c1127f2cd403a315f,0,30,30,127,1,fourthree,,,,,,,,,,,,,,,,,,,,,,,,,,,,,,,,,,,,,,,,,,,,,,,,,,,,,,,,,,,,,,,,,,,,,,,,,,,,,,,,,,,,,,,,,,,,,,,,,,,,,,,,,,,,,,,,,,,,,,,,,,,,,,,,,,,,,,,,,,,,,,,,,,,,,,,,,,,,,
,,,,,,5ed40c08af400008d9286698,62c539cc424f00fccbaf4ee4,2022-07-06_09h29.59.271,Colour_Asymmetry_Pilot,2022.1.3,Win32,61.10228523,62c50e9c1127f2cd403a315f,0,31,31,11,1,twofour,,,,,,,,,,,,,,,,,,,,,,,,,,,,,,,,,,,,,,,,,,,,,,,,,,,,,,,,,,,,,,,,,,,,,,,,,,,,,,,,,,,,,,,,,,,,,,,,,,,,,,,,,,,,,,,,,,,,,,,,,,,,,,,,,,,,,,,,,,,,,,,,,,,,,,,,,,,,,
,,,,,,5ed40c08af400008d9286698,62c539cc424f00fccbaf4ee4,2022-07-06_09h29.59.271,Colour_Asymmetry_Pilot,2022.1.3,Win32,61.10228523,62c50e9c1127f2cd403a315f,0,32,32,143,1,fourthree,,,,,,,,,,,,,,,,,,,,,,,,,,,,,,,,,,,,,,,,,,,,,,,,,,,,,,,,,,,,,,,,,,,,,,,,,,,,,,,,,,,,,,,,,,,,,,,,,,,,,,,,,,,,,,,,,,,,,,,,,,,,,,,,,,,,,,,,,,,,,,,,,,,,,,,,,,,,,
,,,,,,5ed40c08af400008d9286698,62c539cc424f00fccbaf4ee4,2022-07-06_09h29.59.271,Colour_Asymmetry_Pilot,2022.1.3,Win32,61.10228523,62c50e9c1127f2cd403a315f,0,33,33,30,1,fourtwo,,,,,,,,,,,,,,,,,,,,,,,,,,,,,,,,,,,,,,,,,,,,,,,,,,,,,,,,,,,,,,,,,,,,,,,,,,,,,,,,,,,,,,,,,,,,,,,,,,,,,,,,,,,,,,,,,,,,,,,,,,,,,,,,,,,,,,,,,,,,,,,,,,,,,,,,,,,,,
,,,,,,5ed40c08af400008d9286698,62c539cc424f00fccbaf4ee4,2022-07-06_09h29.59.271,Colour_Asymmetry_Pilot,2022.1.3,Win32,61.10228523,62c50e9c1127f2cd403a315f,0,34,34,0,1,onetwo,,,,,,,,,,,,,,,,,,,,,,,,,,,,,,,,,,,,,,,,,,,,,,,,,,,,,,,,,,,,,,,,,,,,,,,,,,,,,,,,,,,,,,,,,,,,,,,,,,,,,,,,,,,,,,,,,,,,,,,,,,,,,,,,,,,,,,,,,,,,,,,,,,,,,,,,,,,,,
,,,,,,5ed40c08af400008d9286698,62c539cc424f00fccbaf4ee4,2022-07-06_09h29.59.271,Colour_Asymmetry_Pilot,2022.1.3,Win32,61.10228523,62c50e9c1127f2cd403a315f,0,35,35,74,1,twoone,,,,,,,,,,,,,,,,,,,,,,,,,,,,,,,,,,,,,,,,,,,,,,,,,,,,,,,,,,,,,,,,,,,,,,,,,,,,,,,,,,,,,,,,,,,,,,,,,,,,,,,,,,,,,,,,,,,,,,,,,,,,,,,,,,,,,,,,,,,,,,,,,,,,,,,,,,,,,
,,,,,,5ed40c08af400008d9286698,62c539cc424f00fccbaf4ee4,2022-07-06_09h29.59.271,Colour_Asymmetry_Pilot,2022.1.3,Win32,61.10228523,62c50e9c1127f2cd403a315f,0,36,36,72,1,onetwo,,,,,,,,,,,,,,,,,,,,,,,,,,,,,,,,,,,,,,,,,,,,,,,,,,,,,,,,,,,,,,,,,,,,,,,,,,,,,,,,,,,,,,,,,,,,,,,,,,,,,,,,,,,,,,,,,,,,,,,,,,,,,,,,,,,,,,,,,,,,,,,,,,,,,,,,,,,,,
,,,,,,5ed40c08af400008d9286698,62c539cc424f00fccbaf4ee4,2022-07-06_09h29.59.271,Colour_Asymmetry_Pilot,2022.1.3,Win32,61.10228523,62c50e9c1127f2cd403a315f,0,37,37,124,1,threeone,,,,,,,,,,,,,,,,,,,,,,,,,,,,,,,,,,,,,,,,,,,,,,,,,,,,,,,,,,,,,,,,,,,,,,,,,,,,,,,,,,,,,,,,,,,,,,,,,,,,,,,,,,,,,,,,,,,,,,,,,,,,,,,,,,,,,,,,,,,,,,,,,,,,,,,,,,,,,
,,,,,,5ed40c08af400008d9286698,62c539cc424f00fccbaf4ee4,2022-07-06_09h29.59.271,Colour_Asymmetry_Pilot,2022.1.3,Win32,61.10228523,62c50e9c1127f2cd403a315f,0,38,38,68,1,threeone,,,,,,,,,,,,,,,,,,,,,,,,,,,,,,,,,,,,,,,,,,,,,,,,,,,,,,,,,,,,,,,,,,,,,,,,,,,,,,,,,,,,,,,,,,,,,,,,,,,,,,,,,,,,,,,,,,,,,,,,,,,,,,,,,,,,,,,,,,,,,,,,,,,,,,,,,,,,,
,,,,,,5ed40c08af400008d9286698,62c539cc424f00fccbaf4ee4,2022-07-06_09h29.59.271,Colour_Asymmetry_Pilot,2022.1.3,Win32,61.10228523,62c50e9c1127f2cd403a315f,0,39,39,65,1,onethree,,,,,,,,,,,,,,,,,,,,,,,,,,,,,,,,,,,,,,,,,,,,,,,,,,,,,,,,,,,,,,,,,,,,,,,,,,,,,,,,,,,,,,,,,,,,,,,,,,,,,,,,,,,,,,,,,,,,,,,,,,,,,,,,,,,,,,,,,,,,,,,,,,,,,,,,,,,,,
,,,,,,5ed40c08af400008d9286698,62c539cc424f00fccbaf4ee4,2022-07-06_09h29.59.271,Colour_Asymmetry_Pilot,2022.1.3,Win32,61.10228523,62c50e9c1127f2cd403a315f,0,40,40,134,1,fourtwo,,,,,,,,,,,,,,,,,,,,,,,,,,,,,,,,,,,,,,,,,,,,,,,,,,,,,,,,,,,,,,,,,,,,,,,,,,,,,,,,,,,,,,,,,,,,,,,,,,,,,,,,,,,,,,,,,,,,,,,,,,,,,,,,,,,,,,,,,,,,,,,,,,,,,,,,,,,,,
,,,,,,5ed40c08af400008d9286698,62c539cc424f00fccbaf4ee4,2022-07-06_09h29.59.271,Colour_Asymmetry_Pilot,2022.1.3,Win32,61.10228523,62c50e9c1127f2cd403a315f,0,41,41,67,1,twofour,,,,,,,,,,,,,,,,,,,,,,,,,,,,,,,,,,,,,,,,,,,,,,,,,,,,,,,,,,,,,,,,,,,,,,,,,,,,,,,,,,,,,,,,,,,,,,,,,,,,,,,,,,,,,,,,,,,,,,,,,,,,,,,,,,,,,,,,,,,,,,,,,,,,,,,,,,,,,
,,,,,,5ed40c08af400008d9286698,62c539cc424f00fccbaf4ee4,2022-07-06_09h29.59.271,Colour_Asymmetry_Pilot,2022.1.3,Win32,61.10228523,62c50e9c1127f2cd403a315f,0,42,42,128,1,onetwo,,,,,,,,,,,,,,,,,,,,,,,,,,,,,,,,,,,,,,,,,,,,,,,,,,,,,,,,,,,,,,,,,,,,,,,,,,,,,,,,,,,,,,,,,,,,,,,,,,,,,,,,,,,,,,,,,,,,,,,,,,,,,,,,,,,,,,,,,,,,,,,,,,,,,,,,,,,,,
,,,,,,5ed40c08af400008d9286698,62c539cc424f00fccbaf4ee4,2022-07-06_09h29.59.271,Colour_Asymmetry_Pilot,2022.1.3,Win32,61.10228523,62c50e9c1127f2cd403a315f,0,43,43,38,1,fourtwo,,,,,,,,,,,,,,,,,,,,,,,,,,,,,,,,,,,,,,,,,,,,,,,,,,,,,,,,,,,,,,,,,,,,,,,,,,,,,,,,,,,,,,,,,,,,,,,,,,,,,,,,,,,,,,,,,,,,,,,,,,,,,,,,,,,,,,,,,,,,,,,,,,,,,,,,,,,,,
,,,,,,5ed40c08af400008d9286698,62c539cc424f00fccbaf4ee4,2022-07-06_09h29.59.271,Colour_Asymmetry_Pilot,2022.1.3,Win32,61.10228523,62c50e9c1127f2cd403a315f,0,44,44,112,1,onetwo,,,,,,,,,,,,,,,,,,,,,,,,,,,,,,,,,,,,,,,,,,,,,,,,,,,,,,,,,,,,,,,,,,,,,,,,,,,,,,,,,,,,,,,,,,,,,,,,,,,,,,,,,,,,,,,,,,,,,,,,,,,,,,,,,,,,,,,,,,,,,,,,,,,,,,,,,,,,,
,,,,,,5ed40c08af400008d9286698,62c539cc424f00fccbaf4ee4,2022-07-06_09h29.59.271,Colour_Asymmetry_Pilot,2022.1.3,Win32,61.10228523,62c50e9c1127f2cd403a315f,0,45,45,1,1,onethree,,,,,,,,,,,,,,,,,,,,,,,,,,,,,,,,,,,,,,,,,,,,,,,,,,,,,,,,,,,,,,,,,,,,,,,,,,,,,,,,,,,,,,,,,,,,,,,,,,,,,,,,,,,,,,,,,,,,,,,,,,,,,,,,,,,,,,,,,,,,,,,,,,,,,,,,,,,,,
,,,,,,5ed40c08af400008d9286698,62c539cc424f00fccbaf4ee4,2022-07-06_09h29.59.271,Colour_Asymmetry_Pilot,2022.1.3,Win32,61.10228523,62c50e9c1127f2cd403a315f,0,46,46,53,1,threefour,,,,,,,,,,,,,,,,,,,,,,,,,,,,,,,,,,,,,,,,,,,,,,,,,,,,,,,,,,,,,,,,,,,,,,,,,,,,,,,,,,,,,,,,,,,,,,,,,,,,,,,,,,,,,,,,,,,,,,,,,,,,,,,,,,,,,,,,,,,,,,,,,,,,,,,,,,,,,
,,,,,,5ed40c08af400008d9286698,62c539cc424f00fccbaf4ee4,2022-07-06_09h29.59.271,Colour_Asymmetry_Pilot,2022.1.3,Win32,61.10228523,62c50e9c1127f2cd403a315f,0,47,47,47,1,fourthree,,,,,,,,,,,,,,,,,,,,,,,,,,,,,,,,,,,,,,,,,,,,,,,,,,,,,,,,,,,,,,,,,,,,,,,,,,,,,,,,,,,,,,,,,,,,,,,,,,,,,,,,,,,,,,,,,,,,,,,,,,,,,,,,,,,,,,,,,,,,,,,,,,,,,,,,,,,,,
,,,,,,5ed40c08af400008d9286698,62c539cc424f00fccbaf4ee4,2022-07-06_09h29.59.271,Colour_Asymmetry_Pilot,2022.1.3,Win32,61.10228523,62c50e9c1127f2cd403a315f,0,48,48,57,1,onethree,,,,,,,,,,,,,,,,,,,,,,,,,,,,,,,,,,,,,,,,,,,,,,,,,,,,,,,,,,,,,,,,,,,,,,,,,,,,,,,,,,,,,,,,,,,,,,,,,,,,,,,,,,,,,,,,,,,,,,,,,,,,,,,,,,,,,,,,,,,,,,,,,,,,,,,,,,,,,
,,,,,,5ed40c08af400008d9286698,62c539cc424f00fccbaf4ee4,2022-07-06_09h29.59.271,Colour_Asymmetry_Pilot,2022.1.3,Win32,61.10228523,62c50e9c1127f2cd403a315f,0,49,49,41,1,onethree,,,,,,,,,,,,,,,,,,,,,,,,,,,,,,,,,,,,,,,,,,,,,,,,,,,,,,,,,,,,,,,,,,,,,,,,,,,,,,,,,,,,,,,,,,,,,,,,,,,,,,,,,,,,,,,,,,,,,,,,,,,,,,,,,,,,,,,,,,,,,,,,,,,,,,,,,,,,,
,,,,,,5ed40c08af400008d9286698,62c539cc424f00fccbaf4ee4,2022-07-06_09h29.59.271,Colour_Asymmetry_Pilot,2022.1.3,Win32,61.10228523,62c50e9c1127f2cd403a315f,0,50,50,51,1,twofour,,,,,,,,,,,,,,,,,,,,,,,,,,,,,,,,,,,,,,,,,,,,,,,,,,,,,,,,,,,,,,,,,,,,,,,,,,,,,,,,,,,,,,,,,,,,,,,,,,,,,,,,,,,,,,,,,,,,,,,,,,,,,,,,,,,,,,,,,,,,,,,,,,,,,,,,,,,,,
,,,,,,5ed40c08af400008d9286698,62c539cc424f00fccbaf4ee4,2022-07-06_09h29.59.271,Colour_Asymmetry_Pilot,2022.1.3,Win32,61.10228523,62c50e9c1127f2cd403a315f,0,51,51,18,1,twoone,,,,,,,,,,,,,,,,,,,,,,,,,,,,,,,,,,,,,,,,,,,,,,,,,,,,,,,,,,,,,,,,,,,,,,,,,,,,,,,,,,,,,,,,,,,,,,,,,,,,,,,,,,,,,,,,,,,,,,,,,,,,,,,,,,,,,,,,,,,,,,,,,,,,,,,,,,,,,
,,,,,,5ed40c08af400008d9286698,62c539cc424f00fccbaf4ee4,2022-07-06_09h29.59.271,Colour_Asymmetry_Pilot,2022.1.3,Win32,61.10228523,62c50e9c1127f2cd403a315f,0,52,52,52,1,threeone,,,,,,,,,,,,,,,,,,,,,,,,,,,,,,,,,,,,,,,,,,,,,,,,,,,,,,,,,,,,,,,,,,,,,,,,,,,,,,,,,,,,,,,,,,,,,,,,,,,,,,,,,,,,,,,,,,,,,,,,,,,,,,,,,,,,,,,,,,,,,,,,,,,,,,,,,,,,,
,,,,,,5ed40c08af400008d9286698,62c539cc424f00fccbaf4ee4,2022-07-06_09h29.59.271,Colour_Asymmetry_Pilot,2022.1.3,Win32,61.10228523,62c50e9c1127f2cd403a315f,0,53,53,126,1,fourtwo,,,,,,,,,,,,,,,,,,,,,,,,,,,,,,,,,,,,,,,,,,,,,,,,,,,,,,,,,,,,,,,,,,,,,,,,,,,,,,,,,,,,,,,,,,,,,,,,,,,,,,,,,,,,,,,,,,,,,,,,,,,,,,,,,,,,,,,,,,,,,,,,,,,,,,,,,,,,,
,,,,,,5ed40c08af400008d9286698,62c539cc424f00fccbaf4ee4,2022-07-06_09h29.59.271,Colour_Asymmetry_Pilot,2022.1.3,Win32,61.10228523,62c50e9c1127f2cd403a315f,0,54,54,142,1,fourtwo,,,,,,,,,,,,,,,,,,,,,,,,,,,,,,,,,,,,,,,,,,,,,,,,,,,,,,,,,,,,,,,,,,,,,,,,,,,,,,,,,,,,,,,,,,,,,,,,,,,,,,,,,,,,,,,,,,,,,,,,,,,,,,,,,,,,,,,,,,,,,,,,,,,,,,,,,,,,,
,,,,,,5ed40c08af400008d9286698,62c539cc424f00fccbaf4ee4,2022-07-06_09h29.59.271,Colour_Asymmetry_Pilot,2022.1.3,Win32,61.10228523,62c50e9c1127f2cd403a315f,0,55,55,115,1,twofour,,,,,,,,,,,,,,,,,,,,,,,,,,,,,,,,,,,,,,,,,,,,,,,,,,,,,,,,,,,,,,,,,,,,,,,,,,,,,,,,,,,,,,,,,,,,,,,,,,,,,,,,,,,,,,,,,,,,,,,,,,,,,,,,,,,,,,,,,,,,,,,,,,,,,,,,,,,,,
,,,,,,5ed40c08af400008d9286698,62c539cc424f00fccbaf4ee4,2022-07-06_09h29.59.271,Colour_Asymmetry_Pilot,2022.1.3,Win32,61.10228523,62c50e9c1127f2cd403a315f,0,56,56,150,1,fourtwo,,,,,,,,,,,,,,,,,,,,,,,,,,,,,,,,,,,,,,,,,,,,,,,,,,,,,,,,,,,,,,,,,,,,,,,,,,,,,,,,,,,,,,,,,,,,,,,,,,,,,,,,,,,,,,,,,,,,,,,,,,,,,,,,,,,,,,,,,,,,,,,,,,,,,,,,,,,,,
,,,,,,5ed40c08af400008d9286698,62c539cc424f00fccbaf4ee4,2022-07-06_09h29.59.271,Colour_Asymmetry_Pilot,2022.1.3,Win32,61.10228523,62c50e9c1127f2cd403a315f,0,57,57,32,1,onetwo,,,,,,,,,,,,,,,,,,,,,,,,,,,,,,,,,,,,,,,,,,,,,,,,,,,,,,,,,,,,,,,,,,,,,,,,,,,,,,,,,,,,,,,,,,,,,,,,,,,,,,,,,,,,,,,,,,,,,,,,,,,,,,,,,,,,,,,,,,,,,,,,,,,,,,,,,,,,,
,,,,,,5ed40c08af400008d9286698,62c539cc424f00fccbaf4ee4,2022-07-06_09h29.59.271,Colour_Asymmetry_Pilot,2022.1.3,Win32,61.10228523,62c50e9c1127f2cd403a315f,0,58,58,59,1,twofour,,,,,,,,,,,,,,,,,,,,,,,,,,,,,,,,,,,,,,,,,,,,,,,,,,,,,,,,,,,,,,,,,,,,,,,,,,,,,,,,,,,,,,,,,,,,,,,,,,,,,,,,,,,,,,,,,,,,,,,,,,,,,,,,,,,,,,,,,,,,,,,,,,,,,,,,,,,,,
,,,,,,5ed40c08af400008d9286698,62c539cc424f00fccbaf4ee4,2022-07-06_09h29.59.271,Colour_Asymmetry_Pilot,2022.1.3,Win32,61.10228523,62c50e9c1127f2cd403a315f,0,59,59,104,1,onetwo,,,,,,,,,,,,,,,,,,,,,,,,,,,,,,,,,,,,,,,,,,,,,,,,,,,,,,,,,,,,,,,,,,,,,,,,,,,,,,,,,,,,,,,,,,,,,,,,,,,,,,,,,,,,,,,,,,,,,,,,,,,,,,,,,,,,,,,,,,,,,,,,,,,,,,,,,,,,,
,,,,,,5ed40c08af400008d9286698,62c539cc424f00fccbaf4ee4,2022-07-06_09h29.59.271,Colour_Asymmetry_Pilot,2022.1.3,Win32,61.10228523,62c50e9c1127f2cd403a315f,0,60,60,83,1,twofour,,,,,,,,,,,,,,,,,,,,,,,,,,,,,,,,,,,,,,,,,,,,,,,,,,,,,,,,,,,,,,,,,,,,,,,,,,,,,,,,,,,,,,,,,,,,,,,,,,,,,,,,,,,,,,,,,,,,,,,,,,,,,,,,,,,,,,,,,,,,,,,,,,,,,,,,,,,,,
,,,,,,5ed40c08af400008d9286698,62c539cc424f00fccbaf4ee4,2022-07-06_09h29.59.271,Colour_Asymmetry_Pilot,2022.1.3,Win32,61.10228523,62c50e9c1127f2cd403a315f,0,61,61,81,1,onethree,,,,,,,,,,,,,,,,,,,,,,,,,,,,,,,,,,,,,,,,,,,,,,,,,,,,,,,,,,,,,,,,,,,,,,,,,,,,,,,,,,,,,,,,,,,,,,,,,,,,,,,,,,,,,,,,,,,,,,,,,,,,,,,,,,,,,,,,,,,,,,,,,,,,,,,,,,,,,
,,,,,,5ed40c08af400008d9286698,62c539cc424f00fccbaf4ee4,2022-07-06_09h29.59.271,Colour_Asymmetry_Pilot,2022.1.3,Win32,61.10228523,62c50e9c1127f2cd403a315f,0,62,62,100,1,threeone,,,,,,,,,,,,,,,,,,,,,,,,,,,,,,,,,,,,,,,,,,,,,,,,,,,,,,,,,,,,,,,,,,,,,,,,,,,,,,,,,,,,,,,,,,,,,,,,,,,,,,,,,,,,,,,,,,,,,,,,,,,,,,,,,,,,,,,,,,,,,,,,,,,,,,,,,,,,,
,,,,,,5ed40c08af400008d9286698,62c539cc424f00fccbaf4ee4,2022-07-06_09h29.59.271,Colour_Asymmetry_Pilot,2022.1.3,Win32,61.10228523,62c50e9c1127f2cd403a315f,0,63,63,2,1,twoone,,,,,,,,,,,,,,,,,,,,,,,,,,,,,,,,,,,,,,,,,,,,,,,,,,,,,,,,,,,,,,,,,,,,,,,,,,,,,,,,,,,,,,,,,,,,,,,,,,,,,,,,,,,,,,,,,,,,,,,,,,,,,,,,,,,,,,,,,,,,,,,,,,,,,,,,,,,,,
,,,,,,5ed40c08af400008d9286698,62c539cc424f00fccbaf4ee4,2022-07-06_09h29.59.271,Colour_Asymmetry_Pilot,2022.1.3,Win32,61.10228523,62c50e9c1127f2cd403a315f,0,64,64,4,1,threeone,,,,,,,,,,,,,,,,,,,,,,,,,,,,,,,,,,,,,,,,,,,,,,,,,,,,,,,,,,,,,,,,,,,,,,,,,,,,,,,,,,,,,,,,,,,,,,,,,,,,,,,,,,,,,,,,,,,,,,,,,,,,,,,,,,,,,,,,,,,,,,,,,,,,,,,,,,,,,
,,,,,,5ed40c08af400008d9286698,62c539cc424f00fccbaf4ee4,2022-07-06_09h29.59.271,Colour_Asymmetry_Pilot,2022.1.3,Win32,61.10228523,62c50e9c1127f2cd403a315f,0,65,65,121,1,onethree,,,,,,,,,,,,,,,,,,,,,,,,,,,,,,,,,,,,,,,,,,,,,,,,,,,,,,,,,,,,,,,,,,,,,,,,,,,,,,,,,,,,,,,,,,,,,,,,,,,,,,,,,,,,,,,,,,,,,,,,,,,,,,,,,,,,,,,,,,,,,,,,,,,,,,,,,,,,,
,,,,,,5ed40c08af400008d9286698,62c539cc424f00fccbaf4ee4,2022-07-06_09h29.59.271,Colour_Asymmetry_Pilot,2022.1.3,Win32,61.10228523,62c50e9c1127f2cd403a315f,0,66,66,77,1,threefour,,,,,,,,,,,,,,,,,,,,,,,,,,,,,,,,,,,,,,,,,,,,,,,,,,,,,,,,,,,,,,,,,,,,,,,,,,,,,,,,,,,,,,,,,,,,,,,,,,,,,,,,,,,,,,,,,,,,,,,,,,,,,,,,,,,,,,,,,,,,,,,,,,,,,,,,,,,,,
,,,,,,5ed40c08af400008d9286698,62c539cc424f00fccbaf4ee4,2022-07-06_09h29.59.271,Colour_Asymmetry_Pilot,2022.1.3,Win32,61.10228523,62c50e9c1127f2cd403a315f,0,67,67,105,1,onethree,,,,,,,,,,,,,,,,,,,,,,,,,,,,,,,,,,,,,,,,,,,,,,,,,,,,,,,,,,,,,,,,,,,,,,,,,,,,,,,,,,,,,,,,,,,,,,,,,,,,,,,,,,,,,,,,,,,,,,,,,,,,,,,,,,,,,,,,,,,,,,,,,,,,,,,,,,,,,
,,,,,,5ed40c08af400008d9286698,62c539cc424f00fccbaf4ee4,2022-07-06_09h29.59.271,Colour_Asymmetry_Pilot,2022.1.3,Win32,61.10228523,62c50e9c1127f2cd403a315f,0,68,68,45,1,threefour,,,,,,,,,,,,,,,,,,,,,,,,,,,,,,,,,,,,,,,,,,,,,,,,,,,,,,,,,,,,,,,,,,,,,,,,,,,,,,,,,,,,,,,,,,,,,,,,,,,,,,,,,,,,,,,,,,,,,,,,,,,,,,,,,,,,,,,,,,,,,,,,,,,,,,,,,,,,,
,,,,,,5ed40c08af400008d9286698,62c539cc424f00fccbaf4ee4,2022-07-06_09h29.59.271,Colour_Asymmetry_Pilot,2022.1.3,Win32,61.10228523,62c50e9c1127f2cd403a315f,0,69,69,87,1,fourthree,,,,,,,,,,,,,,,,,,,,,,,,,,,,,,,,,,,,,,,,,,,,,,,,,,,,,,,,,,,,,,,,,,,,,,,,,,,,,,,,,,,,,,,,,,,,,,,,,,,,,,,,,,,,,,,,,,,,,,,,,,,,,,,,,,,,,,,,,,,,,,,,,,,,,,,,,,,,,
,,,,,,5ed40c08af400008d9286698,62c539cc424f00fccbaf4ee4,2022-07-06_09h29.59.271,Colour_Asymmetry_Pilot,2022.1.3,Win32,61.10228523,62c50e9c1127f2cd403a315f,0,70,70,6,1,fourtwo,,,,,,,,,,,,,,,,,,,,,,,,,,,,,,,,,,,,,,,,,,,,,,,,,,,,,,,,,,,,,,,,,,,,,,,,,,,,,,,,,,,,,,,,,,,,,,,,,,,,,,,,,,,,,,,,,,,,,,,,,,,,,,,,,,,,,,,,,,,,,,,,,,,,,,,,,,,,,
,,,,,,5ed40c08af400008d9286698,62c539cc424f00fccbaf4ee4,2022-07-06_09h29.59.271,Colour_Asymmetry_Pilot,2022.1.3,Win32,61.10228523,62c50e9c1127f2cd403a315f,0,71,71,147,1,twofour,,,,,,,,,,,,,,,,,,,,,,,,,,,,,,,,,,,,,,,,,,,,,,,,,,,,,,,,,,,,,,,,,,,,,,,,,,,,,,,,,,,,,,,,,,,,,,,,,,,,,,,,,,,,,,,,,,,,,,,,,,,,,,,,,,,,,,,,,,,,,,,,,,,,,,,,,,,,,
,,,,,,5ed40c08af400008d9286698,62c539cc424f00fccbaf4ee4,2022-07-06_09h29.59.271,Colour_Asymmetry_Pilot,2022.1.3,Win32,61.10228523,62c50e9c1127f2cd403a315f,0,72,72,114,1,twoone,,,,,,,,,,,,,,,,,,,,,,,,,,,,,,,,,,,,,,,,,,,,,,,,,,,,,,,,,,,,,,,,,,,,,,,,,,,,,,,,,,,,,,,,,,,,,,,,,,,,,,,,,,,,,,,,,,,,,,,,,,,,,,,,,,,,,,,,,,,,,,,,,,,,,,,,,,,,,
,,,,,,5ed40c08af400008d9286698,62c539cc424f00fccbaf4ee4,2022-07-06_09h29.59.271,Colour_Asymmetry_Pilot,2022.1.3,Win32,61.10228523,62c50e9c1127f2cd403a315f,0,73,73,80,1,onetwo,,,,,,,,,,,,,,,,,,,,,,,,,,,,,,,,,,,,,,,,,,,,,,,,,,,,,,,,,,,,,,,,,,,,,,,,,,,,,,,,,,,,,,,,,,,,,,,,,,,,,,,,,,,,,,,,,,,,,,,,,,,,,,,,,,,,,,,,,,,,,,,,,,,,,,,,,,,,,
,,,,,,5ed40c08af400008d9286698,62c539cc424f00fccbaf4ee4,2022-07-06_09h29.59.271,Colour_Asymmetry_Pilot,2022.1.3,Win32,61.10228523,62c50e9c1127f2cd403a315f,0,74,74,103,1,fourthree,,,,,,,,,,,,,,,,,,,,,,,,,,,,,,,,,,,,,,,,,,,,,,,,,,,,,,,,,,,,,,,,,,,,,,,,,,,,,,,,,,,,,,,,,,,,,,,,,,,,,,,,,,,,,,,,,,,,,,,,,,,,,,,,,,,,,,,,,,,,,,,,,,,,,,,,,,,,,
,,,,,,5ed40c08af400008d9286698,62c539cc424f00fccbaf4ee4,2022-07-06_09h29.59.271,Colour_Asymmetry_Pilot,2022.1.3,Win32,61.10228523,62c50e9c1127f2cd403a315f,0,75,75,110,1,fourtwo,,,,,,,,,,,,,,,,,,,,,,,,,,,,,,,,,,,,,,,,,,,,,,,,,,,,,,,,,,,,,,,,,,,,,,,,,,,,,,,,,,,,,,,,,,,,,,,,,,,,,,,,,,,,,,,,,,,,,,,,,,,,,,,,,,,,,,,,,,,,,,,,,,,,,,,,,,,,,
,,,,,,5ed40c08af400008d9286698,62c539cc424f00fccbaf4ee4,2022-07-06_09h29.59.271,Colour_Asymmetry_Pilot,2022.1.3,Win32,61.10228523,62c50e9c1127f2cd403a315f,0,76,76,64,1,onetwo,,,,,,,,,,,,,,,,,,,,,,,,,,,,,,,,,,,,,,,,,,,,,,,,,,,,,,,,,,,,,,,,,,,,,,,,,,,,,,,,,,,,,,,,,,,,,,,,,,,,,,,,,,,,,,,,,,,,,,,,,,,,,,,,,,,,,,,,,,,,,,,,,,,,,,,,,,,,,
,,,,,,5ed40c08af400008d9286698,62c539cc424f00fccbaf4ee4,2022-07-06_09h29.59.271,Colour_Asymmetry_Pilot,2022.1.3,Win32,61.10228523,62c50e9c1127f2cd403a315f,0,77,77,23,1,fourthree,,,,,,,,,,,,,,,,,,,,,,,,,,,,,,,,,,,,,,,,,,,,,,,,,,,,,,,,,,,,,,,,,,,,,,,,,,,,,,,,,,,,,,,,,,,,,,,,,,,,,,,,,,,,,,,,,,,,,,,,,,,,,,,,,,,,,,,,,,,,,,,,,,,,,,,,,,,,,
,,,,,,5ed40c08af400008d9286698,62c539cc424f00fccbaf4ee4,2022-07-06_09h29.59.271,Colour_Asymmetry_Pilot,2022.1.3,Win32,61.10228523,62c50e9c1127f2cd403a315f,0,78,78,44,1,threeone,,,,,,,,,,,,,,,,,,,,,,,,,,,,,,,,,,,,,,,,,,,,,,,,,,,,,,,,,,,,,,,,,,,,,,,,,,,,,,,,,,,,,,,,,,,,,,,,,,,,,,,,,,,,,,,,,,,,,,,,,,,,,,,,,,,,,,,,,,,,,,,,,,,,,,,,,,,,,
,,,,,,5ed40c08af400008d9286698,62c539cc424f00fccbaf4ee4,2022-07-06_09h29.59.271,Colour_Asymmetry_Pilot,2022.1.3,Win32,61.10228523,62c50e9c1127f2cd403a315f,0,79,79,24,1,onetwo,,,,,,,,,,,,,,,,,,,,,,,,,,,,,,,,,,,,,,,,,,,,,,,,,,,,,,,,,,,,,,,,,,,,,,,,,,,,,,,,,,,,,,,,,,,,,,,,,,,,,,,,,,,,,,,,,,,,,,,,,,,,,,,,,,,,,,,,,,,,,,,,,,,,,,,,,,,,,
,,,,,,5ed40c08af400008d9286698,62c539cc424f00fccbaf4ee4,2022-07-06_09h29.59.271,Colour_Asymmetry_Pilot,2022.1.3,Win32,61.10228523,62c50e9c1127f2cd403a315f,0,80,80,160,1,onetwo,,,,,,,,,,,,,,,,,,,,,,,,,,,,,,,,,,,,,,,,,,,,,,,,,,,,,,,,,,,,,,,,,,,,,,,,,,,,,,,,,,,,,,,,,,,,,,,,,,,,,,,,,,,,,,,,,,,,,,,,,,,,,,,,,,,,,,,,,,,,,,,,,,,,,,,,,,,,,
,,,,,,5ed40c08af400008d9286698,62c539cc424f00fccbaf4ee4,2022-07-06_09h29.59.271,Colour_Asymmetry_Pilot,2022.1.3,Win32,61.10228523,62c50e9c1127f2cd403a315f,0,81,81,58,1,twoone,,,,,,,,,,,,,,,,,,,,,,,,,,,,,,,,,,,,,,,,,,,,,,,,,,,,,,,,,,,,,,,,,,,,,,,,,,,,,,,,,,,,,,,,,,,,,,,,,,,,,,,,,,,,,,,,,,,,,,,,,,,,,,,,,,,,,,,,,,,,,,,,,,,,,,,,,,,,,
,,,,,,5ed40c08af400008d9286698,62c539cc424f00fccbaf4ee4,2022-07-06_09h29.59.271,Colour_Asymmetry_Pilot,2022.1.3,Win32,61.10228523,62c50e9c1127f2cd403a315f,0,82,82,26,1,twoone,,,,,,,,,,,,,,,,,,,,,,,,,,,,,,,,,,,,,,,,,,,,,,,,,,,,,,,,,,,,,,,,,,,,,,,,,,,,,,,,,,,,,,,,,,,,,,,,,,,,,,,,,,,,,,,,,,,,,,,,,,,,,,,,,,,,,,,,,,,,,,,,,,,,,,,,,,,,,
,,,,,,5ed40c08af400008d9286698,62c539cc424f00fccbaf4ee4,2022-07-06_09h29.59.271,Colour_Asymmetry_Pilot,2022.1.3,Win32,61.10228523,62c50e9c1127f2cd403a315f,0,83,83,19,1,twofour,,,,,,,,,,,,,,,,,,,,,,,,,,,,,,,,,,,,,,,,,,,,,,,,,,,,,,,,,,,,,,,,,,,,,,,,,,,,,,,,,,,,,,,,,,,,,,,,,,,,,,,,,,,,,,,,,,,,,,,,,,,,,,,,,,,,,,,,,,,,,,,,,,,,,,,,,,,,,
,,,,,,5ed40c08af400008d9286698,62c539cc424f00fccbaf4ee4,2022-07-06_09h29.59.271,Colour_Asymmetry_Pilot,2022.1.3,Win32,61.10228523,62c50e9c1127f2cd403a315f,0,84,84,21,1,threefour,,,,,,,,,,,,,,,,,,,,,,,,,,,,,,,,,,,,,,,,,,,,,,,,,,,,,,,,,,,,,,,,,,,,,,,,,,,,,,,,,,,,,,,,,,,,,,,,,,,,,,,,,,,,,,,,,,,,,,,,,,,,,,,,,,,,,,,,,,,,,,,,,,,,,,,,,,,,,
,,,,,,5ed40c08af400008d9286698,62c539cc424f00fccbaf4ee4,2022-07-06_09h29.59.271,Colour_Asymmetry_Pilot,2022.1.3,Win32,61.10228523,62c50e9c1127f2cd403a315f,0,85,85,73,1,onethree,,,,,,,,,,,,,,,,,,,,,,,,,,,,,,,,,,,,,,,,,,,,,,,,,,,,,,,,,,,,,,,,,,,,,,,,,,,,,,,,,,,,,,,,,,,,,,,,,,,,,,,,,,,,,,,,,,,,,,,,,,,,,,,,,,,,,,,,,,,,,,,,,,,,,,,,,,,,,
,,,,,,5ed40c08af400008d9286698,62c539cc424f00fccbaf4ee4,2022-07-06_09h29.59.271,Colour_Asymmetry_Pilot,2022.1.3,Win32,61.10228523,62c50e9c1127f2cd403a315f,0,86,86,125,1,threefour,,,,,,,,,,,,,,,,,,,,,,,,,,,,,,,,,,,,,,,,,,,,,,,,,,,,,,,,,,,,,,,,,,,,,,,,,,,,,,,,,,,,,,,,,,,,,,,,,,,,,,,,,,,,,,,,,,,,,,,,,,,,,,,,,,,,,,,,,,,,,,,,,,,,,,,,,,,,,
,,,,,,5ed40c08af400008d9286698,62c539cc424f00fccbaf4ee4,2022-07-06_09h29.59.271,Colour_Asymmetry_Pilot,2022.1.3,Win32,61.10228523,62c50e9c1127f2cd403a315f,0,87,87,82,1,twoone,,,,,,,,,,,,,,,,,,,,,,,,,,,,,,,,,,,,,,,,,,,,,,,,,,,,,,,,,,,,,,,,,,,,,,,,,,,,,,,,,,,,,,,,,,,,,,,,,,,,,,,,,,,,,,,,,,,,,,,,,,,,,,,,,,,,,,,,,,,,,,,,,,,,,,,,,,,,,
,,,,,,5ed40c08af400008d9286698,62c539cc424f00fccbaf4ee4,2022-07-06_09h29.59.271,Colour_Asymmetry_Pilot,2022.1.3,Win32,61.10228523,62c50e9c1127f2cd403a315f,0,88,88,75,1,twofour,,,,,,,,,,,,,,,,,,,,,,,,,,,,,,,,,,,,,,,,,,,,,,,,,,,,,,,,,,,,,,,,,,,,,,,,,,,,,,,,,,,,,,,,,,,,,,,,,,,,,,,,,,,,,,,,,,,,,,,,,,,,,,,,,,,,,,,,,,,,,,,,,,,,,,,,,,,,,
,,,,,,5ed40c08af400008d9286698,62c539cc424f00fccbaf4ee4,2022-07-06_09h29.59.271,Colour_Asymmetry_Pilot,2022.1.3,Win32,61.10228523,62c50e9c1127f2cd403a315f,0,89,89,131,1,twofour,,,,,,,,,,,,,,,,,,,,,,,,,,,,,,,,,,,,,,,,,,,,,,,,,,,,,,,,,,,,,,,,,,,,,,,,,,,,,,,,,,,,,,,,,,,,,,,,,,,,,,,,,,,,,,,,,,,,,,,,,,,,,,,,,,,,,,,,,,,,,,,,,,,,,,,,,,,,,
,,,,,,5ed40c08af400008d9286698,62c539cc424f00fccbaf4ee4,2022-07-06_09h29.59.271,Colour_Asymmetry_Pilot,2022.1.3,Win32,61.10228523,62c50e9c1127f2cd403a315f,0,90,90,138,1,twoone,,,,,,,,,,,,,,,,,,,,,,,,,,,,,,,,,,,,,,,,,,,,,,,,,,,,,,,,,,,,,,,,,,,,,,,,,,,,,,,,,,,,,,,,,,,,,,,,,,,,,,,,,,,,,,,,,,,,,,,,,,,,,,,,,,,,,,,,,,,,,,,,,,,,,,,,,,,,,
,,,,,,5ed40c08af400008d9286698,62c539cc424f00fccbaf4ee4,2022-07-06_09h29.59.271,Colour_Asymmetry_Pilot,2022.1.3,Win32,61.10228523,62c50e9c1127f2cd403a315f,0,91,91,69,1,threefour,,,,,,,,,,,,,,,,,,,,,,,,,,,,,,,,,,,,,,,,,,,,,,,,,,,,,,,,,,,,,,,,,,,,,,,,,,,,,,,,,,,,,,,,,,,,,,,,,,,,,,,,,,,,,,,,,,,,,,,,,,,,,,,,,,,,,,,,,,,,,,,,,,,,,,,,,,,,,
,,,,,,5ed40c08af400008d9286698,62c539cc424f00fccbaf4ee4,2022-07-06_09h29.59.271,Colour_Asymmetry_Pilot,2022.1.3,Win32,61.10228523,62c50e9c1127f2cd403a315f,0,92,92,148,1,threeone,,,,,,,,,,,,,,,,,,,,,,,,,,,,,,,,,,,,,,,,,,,,,,,,,,,,,,,,,,,,,,,,,,,,,,,,,,,,,,,,,,,,,,,,,,,,,,,,,,,,,,,,,,,,,,,,,,,,,,,,,,,,,,,,,,,,,,,,,,,,,,,,,,,,,,,,,,,,,
,,,,,,5ed40c08af400008d9286698,62c539cc424f00fccbaf4ee4,2022-07-06_09h29.59.271,Colour_Asymmetry_Pilot,2022.1.3,Win32,61.10228523,62c50e9c1127f2cd403a315f,0,93,93,22,1,fourtwo,,,,,,,,,,,,,,,,,,,,,,,,,,,,,,,,,,,,,,,,,,,,,,,,,,,,,,,,,,,,,,,,,,,,,,,,,,,,,,,,,,,,,,,,,,,,,,,,,,,,,,,,,,,,,,,,,,,,,,,,,,,,,,,,,,,,,,,,,,,,,,,,,,,,,,,,,,,,,
,,,,,,5ed40c08af400008d9286698,62c539cc424f00fccbaf4ee4,2022-07-06_09h29.59.271,Colour_Asymmetry_Pilot,2022.1.3,Win32,61.10228523,62c50e9c1127f2cd403a315f,0,94,94,96,1,onetwo,,,,,,,,,,,,,,,,,,,,,,,,,,,,,,,,,,,,,,,,,,,,,,,,,,,,,,,,,,,,,,,,,,,,,,,,,,,,,,,,,,,,,,,,,,,,,,,,,,,,,,,,,,,,,,,,,,,,,,,,,,,,,,,,,,,,,,,,,,,,,,,,,,,,,,,,,,,,,
,,,,,,5ed40c08af400008d9286698,62c539cc424f00fccbaf4ee4,2022-07-06_09h29.59.271,Colour_Asymmetry_Pilot,2022.1.3,Win32,61.10228523,62c50e9c1127f2cd403a315f,0,95,95,92,1,threeone,,,,,,,,,,,,,,,,,,,,,,,,,,,,,,,,,,,,,,,,,,,,,,,,,,,,,,,,,,,,,,,,,,,,,,,,,,,,,,,,,,,,,,,,,,,,,,,,,,,,,,,,,,,,,,,,,,,,,,,,,,,,,,,,,,,,,,,,,,,,,,,,,,,,,,,,,,,,,
,,,,,,5ed40c08af400008d9286698,62c539cc424f00fccbaf4ee4,2022-07-06_09h29.59.271,Colour_Asymmetry_Pilot,2022.1.3,Win32,61.10228523,62c50e9c1127f2cd403a315f,0,96,96,151,1,fourthree,,,,,,,,,,,,,,,,,,,,,,,,,,,,,,,,,,,,,,,,,,,,,,,,,,,,,,,,,,,,,,,,,,,,,,,,,,,,,,,,,,,,,,,,,,,,,,,,,,,,,,,,,,,,,,,,,,,,,,,,,,,,,,,,,,,,,,,,,,,,,,,,,,,,,,,,,,,,,
,,,,,,5ed40c08af400008d9286698,62c539cc424f00fccbaf4ee4,2022-07-06_09h29.59.271,Colour_Asymmetry_Pilot,2022.1.3,Win32,61.10228523,62c50e9c1127f2cd403a315f,0,97,97,93,1,threefour,,,,,,,,,,,,,,,,,,,,,,,,,,,,,,,,,,,,,,,,,,,,,,,,,,,,,,,,,,,,,,,,,,,,,,,,,,,,,,,,,,,,,,,,,,,,,,,,,,,,,,,,,,,,,,,,,,,,,,,,,,,,,,,,,,,,,,,,,,,,,,,,,,,,,,,,,,,,,
,,,,,,5ed40c08af400008d9286698,62c539cc424f00fccbaf4ee4,2022-07-06_09h29.59.271,Colour_Asymmetry_Pilot,2022.1.3,Win32,61.10228523,62c50e9c1127f2cd403a315f,0,98,98,95,1,fourthree,,,,,,,,,,,,,,,,,,,,,,,,,,,,,,,,,,,,,,,,,,,,,,,,,,,,,,,,,,,,,,,,,,,,,,,,,,,,,,,,,,,,,,,,,,,,,,,,,,,,,,,,,,,,,,,,,,,,,,,,,,,,,,,,,,,,,,,,,,,,,,,,,,,,,,,,,,,,,
,,,,,,5ed40c08af400008d9286698,62c539cc424f00fccbaf4ee4,2022-07-06_09h29.59.271,Colour_Asymmetry_Pilot,2022.1.3,Win32,61.10228523,62c50e9c1127f2cd403a315f,0,99,99,50,1,twoone,,,,,,,,,,,,,,,,,,,,,,,,,,,,,,,,,,,,,,,,,,,,,,,,,,,,,,,,,,,,,,,,,,,,,,,,,,,,,,,,,,,,,,,,,,,,,,,,,,,,,,,,,,,,,,,,,,,,,,,,,,,,,,,,,,,,,,,,,,,,,,,,,,,,,,,,,,,,,
,,,,,,5ed40c08af400008d9286698,62c539cc424f00fccbaf4ee4,2022-07-06_09h29.59.271,Colour_Asymmetry_Pilot,2022.1.3,Win32,61.10228523,62c50e9c1127f2cd403a315f,0,100,100,145,1,onethree,,,,,,,,,,,,,,,,,,,,,,,,,,,,,,,,,,,,,,,,,,,,,,,,,,,,,,,,,,,,,,,,,,,,,,,,,,,,,,,,,,,,,,,,,,,,,,,,,,,,,,,,,,,,,,,,,,,,,,,,,,,,,,,,,,,,,,,,,,,,,,,,,,,,,,,,,,,,,
,,,,,,5ed40c08af400008d9286698,62c539cc424f00fccbaf4ee4,2022-07-06_09h29.59.271,Colour_Asymmetry_Pilot,2022.1.3,Win32,61.10228523,62c50e9c1127f2cd403a315f,0,101,101,17,1,onethree,,,,,,,,,,,,,,,,,,,,,,,,,,,,,,,,,,,,,,,,,,,,,,,,,,,,,,,,,,,,,,,,,,,,,,,,,,,,,,,,,,,,,,,,,,,,,,,,,,,,,,,,,,,,,,,,,,,,,,,,,,,,,,,,,,,,,,,,,,,,,,,,,,,,,,,,,,,,,
,,,,,,5ed40c08af400008d9286698,62c539cc424f00fccbaf4ee4,2022-07-06_09h29.59.271,Colour_Asymmetry_Pilot,2022.1.3,Win32,61.10228523,62c50e9c1127f2cd403a315f,0,102,102,55,1,fourthree,,,,,,,,,,,,,,,,,,,,,,,,,,,,,,,,,,,,,,,,,,,,,,,,,,,,,,,,,,,,,,,,,,,,,,,,,,,,,,,,,,,,,,,,,,,,,,,,,,,,,,,,,,,,,,,,,,,,,,,,,,,,,,,,,,,,,,,,,,,,,,,,,,,,,,,,,,,,,
,,,,,,5ed40c08af400008d9286698,62c539cc424f00fccbaf4ee4,2022-07-06_09h29.59.271,Colour_Asymmetry_Pilot,2022.1.3,Win32,61.10228523,62c50e9c1127f2cd403a315f,0,103,103,31,1,fourthree,,,,,,,,,,,,,,,,,,,,,,,,,,,,,,,,,,,,,,,,,,,,,,,,,,,,,,,,,,,,,,,,,,,,,,,,,,,,,,,,,,,,,,,,,,,,,,,,,,,,,,,,,,,,,,,,,,,,,,,,,,,,,,,,,,,,,,,,,,,,,,,,,,,,,,,,,,,,,
,,,,,,5ed40c08af400008d9286698,62c539cc424f00fccbaf4ee4,2022-07-06_09h29.59.271,Colour_Asymmetry_Pilot,2022.1.3,Win32,61.10228523,62c50e9c1127f2cd403a315f,0,104,104,144,1,onetwo,,,,,,,,,,,,,,,,,,,,,,,,,,,,,,,,,,,,,,,,,,,,,,,,,,,,,,,,,,,,,,,,,,,,,,,,,,,,,,,,,,,,,,,,,,,,,,,,,,,,,,,,,,,,,,,,,,,,,,,,,,,,,,,,,,,,,,,,,,,,,,,,,,,,,,,,,,,,,
,,,,,,5ed40c08af400008d9286698,62c539cc424f00fccbaf4ee4,2022-07-06_09h29.59.271,Colour_Asymmetry_Pilot,2022.1.3,Win32,61.10228523,62c50e9c1127f2cd403a315f,0,105,105,79,1,fourthree,,,,,,,,,,,,,,,,,,,,,,,,,,,,,,,,,,,,,,,,,,,,,,,,,,,,,,,,,,,,,,,,,,,,,,,,,,,,,,,,,,,,,,,,,,,,,,,,,,,,,,,,,,,,,,,,,,,,,,,,,,,,,,,,,,,,,,,,,,,,,,,,,,,,,,,,,,,,,
,,,,,,5ed40c08af400008d9286698,62c539cc424f00fccbaf4ee4,2022-07-06_09h29.59.271,Colour_Asymmetry_Pilot,2022.1.3,Win32,61.10228523,62c50e9c1127f2cd403a315f,0,106,106,34,1,twoone,,,,,,,,,,,,,,,,,,,,,,,,,,,,,,,,,,,,,,,,,,,,,,,,,,,,,,,,,,,,,,,,,,,,,,,,,,,,,,,,,,,,,,,,,,,,,,,,,,,,,,,,,,,,,,,,,,,,,,,,,,,,,,,,,,,,,,,,,,,,,,,,,,,,,,,,,,,,,
,,,,,,5ed40c08af400008d9286698,62c539cc424f00fccbaf4ee4,2022-07-06_09h29.59.271,Colour_Asymmetry_Pilot,2022.1.3,Win32,61.10228523,62c50e9c1127f2cd403a315f,0,107,107,14,1,fourtwo,,,,,,,,,,,,,,,,,,,,,,,,,,,,,,,,,,,,,,,,,,,,,,,,,,,,,,,,,,,,,,,,,,,,,,,,,,,,,,,,,,,,,,,,,,,,,,,,,,,,,,,,,,,,,,,,,,,,,,,,,,,,,,,,,,,,,,,,,,,,,,,,,,,,,,,,,,,,,
,,,,,,5ed40c08af400008d9286698,62c539cc424f00fccbaf4ee4,2022-07-06_09h29.59.271,Colour_Asymmetry_Pilot,2022.1.3,Win32,61.10228523,62c50e9c1127f2cd403a315f,0,108,108,35,1,twofour,,,,,,,,,,,,,,,,,,,,,,,,,,,,,,,,,,,,,,,,,,,,,,,,,,,,,,,,,,,,,,,,,,,,,,,,,,,,,,,,,,,,,,,,,,,,,,,,,,,,,,,,,,,,,,,,,,,,,,,,,,,,,,,,,,,,,,,,,,,,,,,,,,,,,,,,,,,,,
,,,,,,5ed40c08af400008d9286698,62c539cc424f00fccbaf4ee4,2022-07-06_09h29.59.271,Colour_Asymmetry_Pilot,2022.1.3,Win32,61.10228523,62c50e9c1127f2cd403a315f,0,109,109,29,1,threefour,,,,,,,,,,,,,,,,,,,,,,,,,,,,,,,,,,,,,,,,,,,,,,,,,,,,,,,,,,,,,,,,,,,,,,,,,,,,,,,,,,,,,,,,,,,,,,,,,,,,,,,,,,,,,,,,,,,,,,,,,,,,,,,,,,,,,,,,,,,,,,,,,,,,,,,,,,,,,
,,,,,,5ed40c08af400008d9286698,62c539cc424f00fccbaf4ee4,2022-07-06_09h29.59.271,Colour_Asymmetry_Pilot,2022.1.3,Win32,61.10228523,62c50e9c1127f2cd403a315f,0,110,110,20,1,threeone,,,,,,,,,,,,,,,,,,,,,,,,,,,,,,,,,,,,,,,,,,,,,,,,,,,,,,,,,,,,,,,,,,,,,,,,,,,,,,,,,,,,,,,,,,,,,,,,,,,,,,,,,,,,,,,,,,,,,,,,,,,,,,,,,,,,,,,,,,,,,,,,,,,,,,,,,,,,,
,,,,,,5ed40c08af400008d9286698,62c539cc424f00fccbaf4ee4,2022-07-06_09h29.59.271,Colour_Asymmetry_Pilot,2022.1.3,Win32,61.10228523,62c50e9c1127f2cd403a315f,0,111,111,129,1,onethree,,,,,,,,,,,,,,,,,,,,,,,,,,,,,,,,,,,,,,,,,,,,,,,,,,,,,,,,,,,,,,,,,,,,,,,,,,,,,,,,,,,,,,,,,,,,,,,,,,,,,,,,,,,,,,,,,,,,,,,,,,,,,,,,,,,,,,,,,,,,,,,,,,,,,,,,,,,,,
,,,,,,5ed40c08af400008d9286698,62c539cc424f00fccbaf4ee4,2022-07-06_09h29.59.271,Colour_Asymmetry_Pilot,2022.1.3,Win32,61.10228523,62c50e9c1127f2cd403a315f,0,112,112,113,1,onethree,,,,,,,,,,,,,,,,,,,,,,,,,,,,,,,,,,,,,,,,,,,,,,,,,,,,,,,,,,,,,,,,,,,,,,,,,,,,,,,,,,,,,,,,,,,,,,,,,,,,,,,,,,,,,,,,,,,,,,,,,,,,,,,,,,,,,,,,,,,,,,,,,,,,,,,,,,,,,
,,,,,,5ed40c08af400008d9286698,62c539cc424f00fccbaf4ee4,2022-07-06_09h29.59.271,Colour_Asymmetry_Pilot,2022.1.3,Win32,61.10228523,62c50e9c1127f2cd403a315f,0,113,113,3,1,twofour,,,,,,,,,,,,,,,,,,,,,,,,,,,,,,,,,,,,,,,,,,,,,,,,,,,,,,,,,,,,,,,,,,,,,,,,,,,,,,,,,,,,,,,,,,,,,,,,,,,,,,,,,,,,,,,,,,,,,,,,,,,,,,,,,,,,,,,,,,,,,,,,,,,,,,,,,,,,,
,,,,,,5ed40c08af400008d9286698,62c539cc424f00fccbaf4ee4,2022-07-06_09h29.59.271,Colour_Asymmetry_Pilot,2022.1.3,Win32,61.10228523,62c50e9c1127f2cd403a315f,0,114,114,78,1,fourtwo,,,,,,,,,,,,,,,,,,,,,,,,,,,,,,,,,,,,,,,,,,,,,,,,,,,,,,,,,,,,,,,,,,,,,,,,,,,,,,,,,,,,,,,,,,,,,,,,,,,,,,,,,,,,,,,,,,,,,,,,,,,,,,,,,,,,,,,,,,,,,,,,,,,,,,,,,,,,,
,,,,,,5ed40c08af400008d9286698,62c539cc424f00fccbaf4ee4,2022-07-06_09h29.59.271,Colour_Asymmetry_Pilot,2022.1.3,Win32,61.10228523,62c50e9c1127f2cd403a315f,0,115,115,28,1,threeone,,,,,,,,,,,,,,,,,,,,,,,,,,,,,,,,,,,,,,,,,,,,,,,,,,,,,,,,,,,,,,,,,,,,,,,,,,,,,,,,,,,,,,,,,,,,,,,,,,,,,,,,,,,,,,,,,,,,,,,,,,,,,,,,,,,,,,,,,,,,,,,,,,,,,,,,,,,,,
,,,,,,5ed40c08af400008d9286698,62c539cc424f00fccbaf4ee4,2022-07-06_09h29.59.271,Colour_Asymmetry_Pilot,2022.1.3,Win32,61.10228523,62c50e9c1127f2cd403a315f,0,116,116,63,1,fourthree,,,,,,,,,,,,,,,,,,,,,,,,,,,,,,,,,,,,,,,,,,,,,,,,,,,,,,,,,,,,,,,,,,,,,,,,,,,,,,,,,,,,,,,,,,,,,,,,,,,,,,,,,,,,,,,,,,,,,,,,,,,,,,,,,,,,,,,,,,,,,,,,,,,,,,,,,,,,,
,,,,,,5ed40c08af400008d9286698,62c539cc424f00fccbaf4ee4,2022-07-06_09h29.59.271,Colour_Asymmetry_Pilot,2022.1.3,Win32,61.10228523,62c50e9c1127f2cd403a315f,0,117,117,106,1,twoone,,,,,,,,,,,,,,,,,,,,,,,,,,,,,,,,,,,,,,,,,,,,,,,,,,,,,,,,,,,,,,,,,,,,,,,,,,,,,,,,,,,,,,,,,,,,,,,,,,,,,,,,,,,,,,,,,,,,,,,,,,,,,,,,,,,,,,,,,,,,,,,,,,,,,,,,,,,,,
,,,,,,5ed40c08af400008d9286698,62c539cc424f00fccbaf4ee4,2022-07-06_09h29.59.271,Colour_Asymmetry_Pilot,2022.1.3,Win32,61.10228523,62c50e9c1127f2cd403a315f,0,118,118,43,1,twofour,,,,,,,,,,,,,,,,,,,,,,,,,,,,,,,,,,,,,,,,,,,,,,,,,,,,,,,,,,,,,,,,,,,,,,,,,,,,,,,,,,,,,,,,,,,,,,,,,,,,,,,,,,,,,,,,,,,,,,,,,,,,,,,,,,,,,,,,,,,,,,,,,,,,,,,,,,,,,
,,,,,,5ed40c08af400008d9286698,62c539cc424f00fccbaf4ee4,2022-07-06_09h29.59.271,Colour_Asymmetry_Pilot,2022.1.3,Win32,61.10228523,62c50e9c1127f2cd403a315f,0,119,119,89,1,onethree,,,,,,,,,,,,,,,,,,,,,,,,,,,,,,,,,,,,,,,,,,,,,,,,,,,,,,,,,,,,,,,,,,,,,,,,,,,,,,,,,,,,,,,,,,,,,,,,,,,,,,,,,,,,,,,,,,,,,,,,,,,,,,,,,,,,,,,,,,,,,,,,,,,,,,,,,,,,,
,,,,,,5ed40c08af400008d9286698,62c539cc424f00fccbaf4ee4,2022-07-06_09h29.59.271,Colour_Asymmetry_Pilot,2022.1.3,Win32,61.10228523,62c50e9c1127f2cd403a315f,0,120,120,85,1,threefour,,,,,,,,,,,,,,,,,,,,,,,,,,,,,,,,,,,,,,,,,,,,,,,,,,,,,,,,,,,,,,,,,,,,,,,,,,,,,,,,,,,,,,,,,,,,,,,,,,,,,,,,,,,,,,,,,,,,,,,,,,,,,,,,,,,,,,,,,,,,,,,,,,,,,,,,,,,,,
,,,,,,5ed40c08af400008d9286698,62c539cc424f00fccbaf4ee4,2022-07-06_09h29.59.271,Colour_Asymmetry_Pilot,2022.1.3,Win32,61.10228523,62c50e9c1127f2cd403a315f,0,121,121,156,1,threeone,,,,,,,,,,,,,,,,,,,,,,,,,,,,,,,,,,,,,,,,,,,,,,,,,,,,,,,,,,,,,,,,,,,,,,,,,,,,,,,,,,,,,,,,,,,,,,,,,,,,,,,,,,,,,,,,,,,,,,,,,,,,,,,,,,,,,,,,,,,,,,,,,,,,,,,,,,,,,
,,,,,,5ed40c08af400008d9286698,62c539cc424f00fccbaf4ee4,2022-07-06_09h29.59.271,Colour_Asymmetry_Pilot,2022.1.3,Win32,61.10228523,62c50e9c1127f2cd403a315f,0,122,122,116,1,threeone,,,,,,,,,,,,,,,,,,,,,,,,,,,,,,,,,,,,,,,,,,,,,,,,,,,,,,,,,,,,,,,,,,,,,,,,,,,,,,,,,,,,,,,,,,,,,,,,,,,,,,,,,,,,,,,,,,,,,,,,,,,,,,,,,,,,,,,,,,,,,,,,,,,,,,,,,,,,,
,,,,,,5ed40c08af400008d9286698,62c539cc424f00fccbaf4ee4,2022-07-06_09h29.59.271,Colour_Asymmetry_Pilot,2022.1.3,Win32,61.10228523,62c50e9c1127f2cd403a315f,0,123,123,111,1,fourthree,,,,,,,,,,,,,,,,,,,,,,,,,,,,,,,,,,,,,,,,,,,,,,,,,,,,,,,,,,,,,,,,,,,,,,,,,,,,,,,,,,,,,,,,,,,,,,,,,,,,,,,,,,,,,,,,,,,,,,,,,,,,,,,,,,,,,,,,,,,,,,,,,,,,,,,,,,,,,
,,,,,,5ed40c08af400008d9286698,62c539cc424f00fccbaf4ee4,2022-07-06_09h29.59.271,Colour_Asymmetry_Pilot,2022.1.3,Win32,61.10228523,62c50e9c1127f2cd403a315f,0,124,124,132,1,threeone,,,,,,,,,,,,,,,,,,,,,,,,,,,,,,,,,,,,,,,,,,,,,,,,,,,,,,,,,,,,,,,,,,,,,,,,,,,,,,,,,,,,,,,,,,,,,,,,,,,,,,,,,,,,,,,,,,,,,,,,,,,,,,,,,,,,,,,,,,,,,,,,,,,,,,,,,,,,,
,,,,,,5ed40c08af400008d9286698,62c539cc424f00fccbaf4ee4,2022-07-06_09h29.59.271,Colour_Asymmetry_Pilot,2022.1.3,Win32,61.10228523,62c50e9c1127f2cd403a315f,0,125,125,54,1,fourtwo,,,,,,,,,,,,,,,,,,,,,,,,,,,,,,,,,,,,,,,,,,,,,,,,,,,,,,,,,,,,,,,,,,,,,,,,,,,,,,,,,,,,,,,,,,,,,,,,,,,,,,,,,,,,,,,,,,,,,,,,,,,,,,,,,,,,,,,,,,,,,,,,,,,,,,,,,,,,,
,,,,,,5ed40c08af400008d9286698,62c539cc424f00fccbaf4ee4,2022-07-06_09h29.59.271,Colour_Asymmetry_Pilot,2022.1.3,Win32,61.10228523,62c50e9c1127f2cd403a315f,0,126,126,62,1,fourtwo,,,,,,,,,,,,,,,,,,,,,,,,,,,,,,,,,,,,,,,,,,,,,,,,,,,,,,,,,,,,,,,,,,,,,,,,,,,,,,,,,,,,,,,,,,,,,,,,,,,,,,,,,,,,,,,,,,,,,,,,,,,,,,,,,,,,,,,,,,,,,,,,,,,,,,,,,,,,,
,,,,,,5ed40c08af400008d9286698,62c539cc424f00fccbaf4ee4,2022-07-06_09h29.59.271,Colour_Asymmetry_Pilot,2022.1.3,Win32,61.10228523,62c50e9c1127f2cd403a315f,0,127,127,90,1,twoone,,,,,,,,,,,,,,,,,,,,,,,,,,,,,,,,,,,,,,,,,,,,,,,,,,,,,,,,,,,,,,,,,,,,,,,,,,,,,,,,,,,,,,,,,,,,,,,,,,,,,,,,,,,,,,,,,,,,,,,,,,,,,,,,,,,,,,,,,,,,,,,,,,,,,,,,,,,,,
,,,,,,5ed40c08af400008d9286698,62c539cc424f00fccbaf4ee4,2022-07-06_09h29.59.271,Colour_Asymmetry_Pilot,2022.1.3,Win32,61.10228523,62c50e9c1127f2cd403a315f,0,128,128,120,1,onetwo,,,,,,,,,,,,,,,,,,,,,,,,,,,,,,,,,,,,,,,,,,,,,,,,,,,,,,,,,,,,,,,,,,,,,,,,,,,,,,,,,,,,,,,,,,,,,,,,,,,,,,,,,,,,,,,,,,,,,,,,,,,,,,,,,,,,,,,,,,,,,,,,,,,,,,,,,,,,,
,,,,,,5ed40c08af400008d9286698,62c539cc424f00fccbaf4ee4,2022-07-06_09h29.59.271,Colour_Asymmetry_Pilot,2022.1.3,Win32,61.10228523,62c50e9c1127f2cd403a315f,0,129,129,25,1,onethree,,,,,,,,,,,,,,,,,,,,,,,,,,,,,,,,,,,,,,,,,,,,,,,,,,,,,,,,,,,,,,,,,,,,,,,,,,,,,,,,,,,,,,,,,,,,,,,,,,,,,,,,,,,,,,,,,,,,,,,,,,,,,,,,,,,,,,,,,,,,,,,,,,,,,,,,,,,,,
,,,,,,5ed40c08af400008d9286698,62c539cc424f00fccbaf4ee4,2022-07-06_09h29.59.271,Colour_Asymmetry_Pilot,2022.1.3,Win32,61.10228523,62c50e9c1127f2cd403a315f,0,130,130,66,1,twoone,,,,,,,,,,,,,,,,,,,,,,,,,,,,,,,,,,,,,,,,,,,,,,,,,,,,,,,,,,,,,,,,,,,,,,,,,,,,,,,,,,,,,,,,,,,,,,,,,,,,,,,,,,,,,,,,,,,,,,,,,,,,,,,,,,,,,,,,,,,,,,,,,,,,,,,,,,,,,
,,,,,,5ed40c08af400008d9286698,62c539cc424f00fccbaf4ee4,2022-07-06_09h29.59.271,Colour_Asymmetry_Pilot,2022.1.3,Win32,61.10228523,62c50e9c1127f2cd403a315f,0,131,131,8,1,onetwo,,,,,,,,,,,,,,,,,,,,,,,,,,,,,,,,,,,,,,,,,,,,,,,,,,,,,,,,,,,,,,,,,,,,,,,,,,,,,,,,,,,,,,,,,,,,,,,,,,,,,,,,,,,,,,,,,,,,,,,,,,,,,,,,,,,,,,,,,,,,,,,,,,,,,,,,,,,,,
,,,,,,5ed40c08af400008d9286698,62c539cc424f00fccbaf4ee4,2022-07-06_09h29.59.271,Colour_Asymmetry_Pilot,2022.1.3,Win32,61.10228523,62c50e9c1127f2cd403a315f,0,132,132,135,1,fourthree,,,,,,,,,,,,,,,,,,,,,,,,,,,,,,,,,,,,,,,,,,,,,,,,,,,,,,,,,,,,,,,,,,,,,,,,,,,,,,,,,,,,,,,,,,,,,,,,,,,,,,,,,,,,,,,,,,,,,,,,,,,,,,,,,,,,,,,,,,,,,,,,,,,,,,,,,,,,,
,,,,,,5ed40c08af400008d9286698,62c539cc424f00fccbaf4ee4,2022-07-06_09h29.59.271,Colour_Asymmetry_Pilot,2022.1.3,Win32,61.10228523,62c50e9c1127f2cd403a315f,0,133,133,37,1,threefour,,,,,,,,,,,,,,,,,,,,,,,,,,,,,,,,,,,,,,,,,,,,,,,,,,,,,,,,,,,,,,,,,,,,,,,,,,,,,,,,,,,,,,,,,,,,,,,,,,,,,,,,,,,,,,,,,,,,,,,,,,,,,,,,,,,,,,,,,,,,,,,,,,,,,,,,,,,,,
,,,,,,5ed40c08af400008d9286698,62c539cc424f00fccbaf4ee4,2022-07-06_09h29.59.271,Colour_Asymmetry_Pilot,2022.1.3,Win32,61.10228523,62c50e9c1127f2cd403a315f,0,134,134,149,1,threefour,,,,,,,,,,,,,,,,,,,,,,,,,,,,,,,,,,,,,,,,,,,,,,,,,,,,,,,,,,,,,,,,,,,,,,,,,,,,,,,,,,,,,,,,,,,,,,,,,,,,,,,,,,,,,,,,,,,,,,,,,,,,,,,,,,,,,,,,,,,,,,,,,,,,,,,,,,,,,
,,,,,,5ed40c08af400008d9286698,62c539cc424f00fccbaf4ee4,2022-07-06_09h29.59.271,Colour_Asymmetry_Pilot,2022.1.3,Win32,61.10228523,62c50e9c1127f2cd403a315f,0,135,135,60,1,threeone,,,,,,,,,,,,,,,,,,,,,,,,,,,,,,,,,,,,,,,,,,,,,,,,,,,,,,,,,,,,,,,,,,,,,,,,,,,,,,,,,,,,,,,,,,,,,,,,,,,,,,,,,,,,,,,,,,,,,,,,,,,,,,,,,,,,,,,,,,,,,,,,,,,,,,,,,,,,,
,,,,,,5ed40c08af400008d9286698,62c539cc424f00fccbaf4ee4,2022-07-06_09h29.59.271,Colour_Asymmetry_Pilot,2022.1.3,Win32,61.10228523,62c50e9c1127f2cd403a315f,0,136,136,118,1,fourtwo,,,,,,,,,,,,,,,,,,,,,,,,,,,,,,,,,,,,,,,,,,,,,,,,,,,,,,,,,,,,,,,,,,,,,,,,,,,,,,,,,,,,,,,,,,,,,,,,,,,,,,,,,,,,,,,,,,,,,,,,,,,,,,,,,,,,,,,,,,,,,,,,,,,,,,,,,,,,,
,,,,,,5ed40c08af400008d9286698,62c539cc424f00fccbaf4ee4,2022-07-06_09h29.59.271,Colour_Asymmetry_Pilot,2022.1.3,Win32,61.10228523,62c50e9c1127f2cd403a315f,0,137,137,161,1,onethree,,,,,,,,,,,,,,,,,,,,,,,,,,,,,,,,,,,,,,,,,,,,,,,,,,,,,,,,,,,,,,,,,,,,,,,,,,,,,,,,,,,,,,,,,,,,,,,,,,,,,,,,,,,,,,,,,,,,,,,,,,,,,,,,,,,,,,,,,,,,,,,,,,,,,,,,,,,,,
,,,,,,5ed40c08af400008d9286698,62c539cc424f00fccbaf4ee4,2022-07-06_09h29.59.271,Colour_Asymmetry_Pilot,2022.1.3,Win32,61.10228523,62c50e9c1127f2cd403a315f,0,138,138,119,1,fourthree,,,,,,,,,,,,,,,,,,,,,,,,,,,,,,,,,,,,,,,,,,,,,,,,,,,,,,,,,,,,,,,,,,,,,,,,,,,,,,,,,,,,,,,,,,,,,,,,,,,,,,,,,,,,,,,,,,,,,,,,,,,,,,,,,,,,,,,,,,,,,,,,,,,,,,,,,,,,,
,,,,,,5ed40c08af400008d9286698,62c539cc424f00fccbaf4ee4,2022-07-06_09h29.59.271,Colour_Asymmetry_Pilot,2022.1.3,Win32,61.10228523,62c50e9c1127f2cd403a315f,0,139,139,157,1,threefour,,,,,,,,,,,,,,,,,,,,,,,,,,,,,,,,,,,,,,,,,,,,,,,,,,,,,,,,,,,,,,,,,,,,,,,,,,,,,,,,,,,,,,,,,,,,,,,,,,,,,,,,,,,,,,,,,,,,,,,,,,,,,,,,,,,,,,,,,,,,,,,,,,,,,,,,,,,,,
,,,,,,5ed40c08af400008d9286698,62c539cc424f00fccbaf4ee4,2022-07-06_09h29.59.271,Colour_Asymmetry_Pilot,2022.1.3,Win32,61.10228523,62c50e9c1127f2cd403a315f,0,140,140,141,1,threefour,,,,,,,,,,,,,,,,,,,,,,,,,,,,,,,,,,,,,,,,,,,,,,,,,,,,,,,,,,,,,,,,,,,,,,,,,,,,,,,,,,,,,,,,,,,,,,,,,,,,,,,,,,,,,,,,,,,,,,,,,,,,,,,,,,,,,,,,,,,,,,,,,,,,,,,,,,,,,
,,,,,,5ed40c08af400008d9286698,62c539cc424f00fccbaf4ee4,2022-07-06_09h29.59.271,Colour_Asymmetry_Pilot,2022.1.3,Win32,61.10228523,62c50e9c1127f2cd403a315f,0,141,141,49,1,onethree,,,,,,,,,,,,,,,,,,,,,,,,,,,,,,,,,,,,,,,,,,,,,,,,,,,,,,,,,,,,,,,,,,,,,,,,,,,,,,,,,,,,,,,,,,,,,,,,,,,,,,,,,,,,,,,,,,,,,,,,,,,,,,,,,,,,,,,,,,,,,,,,,,,,,,,,,,,,,
,,,,,,5ed40c08af400008d9286698,62c539cc424f00fccbaf4ee4,2022-07-06_09h29.59.271,Colour_Asymmetry_Pilot,2022.1.3,Win32,61.10228523,62c50e9c1127f2cd403a315f,0,142,142,102,1,fourtwo,,,,,,,,,,,,,,,,,,,,,,,,,,,,,,,,,,,,,,,,,,,,,,,,,,,,,,,,,,,,,,,,,,,,,,,,,,,,,,,,,,,,,,,,,,,,,,,,,,,,,,,,,,,,,,,,,,,,,,,,,,,,,,,,,,,,,,,,,,,,,,,,,,,,,,,,,,,,,
,,,,,,5ed40c08af400008d9286698,62c539cc424f00fccbaf4ee4,2022-07-06_09h29.59.271,Colour_Asymmetry_Pilot,2022.1.3,Win32,61.10228523,62c50e9c1127f2cd403a315f,0,143,143,84,1,threeone,,,,,,,,,,,,,,,,,,,,,,,,,,,,,,,,,,,,,,,,,,,,,,,,,,,,,,,,,,,,,,,,,,,,,,,,,,,,,,,,,,,,,,,,,,,,,,,,,,,,,,,,,,,,,,,,,,,,,,,,,,,,,,,,,,,,,,,,,,,,,,,,,,,,,,,,,,,,,
,,,,,,5ed40c08af400008d9286698,62c539cc424f00fccbaf4ee4,2022-07-06_09h29.59.271,Colour_Asymmetry_Pilot,2022.1.3,Win32,61.10228523,62c50e9c1127f2cd403a315f,0,144,144,40,1,onetwo,,,,,,,,,,,,,,,,,,,,,,,,,,,,,,,,,,,,,,,,,,,,,,,,,,,,,,,,,,,,,,,,,,,,,,,,,,,,,,,,,,,,,,,,,,,,,,,,,,,,,,,,,,,,,,,,,,,,,,,,,,,,,,,,,,,,,,,,,,,,,,,,,,,,,,,,,,,,,
,,,,,,5ed40c08af400008d9286698,62c539cc424f00fccbaf4ee4,2022-07-06_09h29.59.271,Colour_Asymmetry_Pilot,2022.1.3,Win32,61.10228523,62c50e9c1127f2cd403a315f,0,145,145,16,1,onetwo,,,,,,,,,,,,,,,,,,,,,,,,,,,,,,,,,,,,,,,,,,,,,,,,,,,,,,,,,,,,,,,,,,,,,,,,,,,,,,,,,,,,,,,,,,,,,,,,,,,,,,,,,,,,,,,,,,,,,,,,,,,,,,,,,,,,,,,,,,,,,,,,,,,,,,,,,,,,,
,,,,,,5ed40c08af400008d9286698,62c539cc424f00fccbaf4ee4,2022-07-06_09h29.59.271,Colour_Asymmetry_Pilot,2022.1.3,Win32,61.10228523,62c50e9c1127f2cd403a315f,0,146,146,140,1,threeone,,,,,,,,,,,,,,,,,,,,,,,,,,,,,,,,,,,,,,,,,,,,,,,,,,,,,,,,,,,,,,,,,,,,,,,,,,,,,,,,,,,,,,,,,,,,,,,,,,,,,,,,,,,,,,,,,,,,,,,,,,,,,,,,,,,,,,,,,,,,,,,,,,,,,,,,,,,,,
,,,,,,5ed40c08af400008d9286698,62c539cc424f00fccbaf4ee4,2022-07-06_09h29.59.271,Colour_Asymmetry_Pilot,2022.1.3,Win32,61.10228523,62c50e9c1127f2cd403a315f,0,147,147,139,1,twofour,,,,,,,,,,,,,,,,,,,,,,,,,,,,,,,,,,,,,,,,,,,,,,,,,,,,,,,,,,,,,,,,,,,,,,,,,,,,,,,,,,,,,,,,,,,,,,,,,,,,,,,,,,,,,,,,,,,,,,,,,,,,,,,,,,,,,,,,,,,,,,,,,,,,,,,,,,,,,
,,,,,,5ed40c08af400008d9286698,62c539cc424f00fccbaf4ee4,2022-07-06_09h29.59.271,Colour_Asymmetry_Pilot,2022.1.3,Win32,61.10228523,62c50e9c1127f2cd403a315f,0,148,148,5,1,threefour,,,,,,,,,,,,,,,,,,,,,,,,,,,,,,,,,,,,,,,,,,,,,,,,,,,,,,,,,,,,,,,,,,,,,,,,,,,,,,,,,,,,,,,,,,,,,,,,,,,,,,,,,,,,,,,,,,,,,,,,,,,,,,,,,,,,,,,,,,,,,,,,,,,,,,,,,,,,,
,,,,,,5ed40c08af400008d9286698,62c539cc424f00fccbaf4ee4,2022-07-06_09h29.59.271,Colour_Asymmetry_Pilot,2022.1.3,Win32,61.10228523,62c50e9c1127f2cd403a315f,0,149,149,109,1,threefour,,,,,,,,,,,,,,,,,,,,,,,,,,,,,,,,,,,,,,,,,,,,,,,,,,,,,,,,,,,,,,,,,,,,,,,,,,,,,,,,,,,,,,,,,,,,,,,,,,,,,,,,,,,,,,,,,,,,,,,,,,,,,,,,,,,,,,,,,,,,,,,,,,,,,,,,,,,,,
,,,,,,5ed40c08af400008d9286698,62c539cc424f00fccbaf4ee4,2022-07-06_09h29.59.271,Colour_Asymmetry_Pilot,2022.1.3,Win32,61.10228523,62c50e9c1127f2cd403a315f,0,150,150,10,1,twoone,,,,,,,,,,,,,,,,,,,,,,,,,,,,,,,,,,,,,,,,,,,,,,,,,,,,,,,,,,,,,,,,,,,,,,,,,,,,,,,,,,,,,,,,,,,,,,,,,,,,,,,,,,,,,,,,,,,,,,,,,,,,,,,,,,,,,,,,,,,,,,,,,,,,,,,,,,,,,
,,,,,,5ed40c08af400008d9286698,62c539cc424f00fccbaf4ee4,2022-07-06_09h29.59.271,Colour_Asymmetry_Pilot,2022.1.3,Win32,61.10228523,62c50e9c1127f2cd403a315f,0,151,151,13,1,threefour,,,,,,,,,,,,,,,,,,,,,,,,,,,,,,,,,,,,,,,,,,,,,,,,,,,,,,,,,,,,,,,,,,,,,,,,,,,,,,,,,,,,,,,,,,,,,,,,,,,,,,,,,,,,,,,,,,,,,,,,,,,,,,,,,,,,,,,,,,,,,,,,,,,,,,,,,,,,,
,,,,,,5ed40c08af400008d9286698,62c539cc424f00fccbaf4ee4,2022-07-06_09h29.59.271,Colour_Asymmetry_Pilot,2022.1.3,Win32,61.10228523,62c50e9c1127f2cd403a315f,0,152,152,158,1,fourtwo,,,,,,,,,,,,,,,,,,,,,,,,,,,,,,,,,,,,,,,,,,,,,,,,,,,,,,,,,,,,,,,,,,,,,,,,,,,,,,,,,,,,,,,,,,,,,,,,,,,,,,,,,,,,,,,,,,,,,,,,,,,,,,,,,,,,,,,,,,,,,,,,,,,,,,,,,,,,,
,,,,,,5ed40c08af400008d9286698,62c539cc424f00fccbaf4ee4,2022-07-06_09h29.59.271,Colour_Asymmetry_Pilot,2022.1.3,Win32,61.10228523,62c50e9c1127f2cd403a315f,0,153,153,94,1,fourtwo,,,,,,,,,,,,,,,,,,,,,,,,,,,,,,,,,,,,,,,,,,,,,,,,,,,,,,,,,,,,,,,,,,,,,,,,,,,,,,,,,,,,,,,,,,,,,,,,,,,,,,,,,,,,,,,,,,,,,,,,,,,,,,,,,,,,,,,,,,,,,,,,,,,,,,,,,,,,,
,,,,,,5ed40c08af400008d9286698,62c539cc424f00fccbaf4ee4,2022-07-06_09h29.59.271,Colour_Asymmetry_Pilot,2022.1.3,Win32,61.10228523,62c50e9c1127f2cd403a315f,0,154,154,27,1,twofour,,,,,,,,,,,,,,,,,,,,,,,,,,,,,,,,,,,,,,,,,,,,,,,,,,,,,,,,,,,,,,,,,,,,,,,,,,,,,,,,,,,,,,,,,,,,,,,,,,,,,,,,,,,,,,,,,,,,,,,,,,,,,,,,,,,,,,,,,,,,,,,,,,,,,,,,,,,,,
,,,,,,5ed40c08af400008d9286698,62c539cc424f00fccbaf4ee4,2022-07-06_09h29.59.271,Colour_Asymmetry_Pilot,2022.1.3,Win32,61.10228523,62c50e9c1127f2cd403a315f,0,155,155,46,1,fourtwo,,,,,,,,,,,,,,,,,,,,,,,,,,,,,,,,,,,,,,,,,,,,,,,,,,,,,,,,,,,,,,,,,,,,,,,,,,,,,,,,,,,,,,,,,,,,,,,,,,,,,,,,,,,,,,,,,,,,,,,,,,,,,,,,,,,,,,,,,,,,,,,,,,,,,,,,,,,,,
,,,,,,5ed40c08af400008d9286698,62c539cc424f00fccbaf4ee4,2022-07-06_09h29.59.271,Colour_Asymmetry_Pilot,2022.1.3,Win32,61.10228523,62c50e9c1127f2cd403a315f,0,156,156,9,1,onethree,,,,,,,,,,,,,,,,,,,,,,,,,,,,,,,,,,,,,,,,,,,,,,,,,,,,,,,,,,,,,,,,,,,,,,,,,,,,,,,,,,,,,,,,,,,,,,,,,,,,,,,,,,,,,,,,,,,,,,,,,,,,,,,,,,,,,,,,,,,,,,,,,,,,,,,,,,,,,
,,,,,,5ed40c08af400008d9286698,62c539cc424f00fccbaf4ee4,2022-07-06_09h29.59.271,Colour_Asymmetry_Pilot,2022.1.3,Win32,61.10228523,62c50e9c1127f2cd403a315f,0,157,157,101,1,threefour,,,,,,,,,,,,,,,,,,,,,,,,,,,,,,,,,,,,,,,,,,,,,,,,,,,,,,,,,,,,,,,,,,,,,,,,,,,,,,,,,,,,,,,,,,,,,,,,,,,,,,,,,,,,,,,,,,,,,,,,,,,,,,,,,,,,,,,,,,,,,,,,,,,,,,,,,,,,,
,,,,,,5ed40c08af400008d9286698,62c539cc424f00fccbaf4ee4,2022-07-06_09h29.59.271,Colour_Asymmetry_Pilot,2022.1.3,Win32,61.10228523,62c50e9c1127f2cd403a315f,0,158,158,133,1,threefour,,,,,,,,,,,,,,,,,,,,,,,,,,,,,,,,,,,,,,,,,,,,,,,,,,,,,,,,,,,,,,,,,,,,,,,,,,,,,,,,,,,,,,,,,,,,,,,,,,,,,,,,,,,,,,,,,,,,,,,,,,,,,,,,,,,,,,,,,,,,,,,,,,,,,,,,,,,,,
,,,,,,5ed40c08af400008d9286698,62c539cc424f00fccbaf4ee4,2022-07-06_09h29.59.271,Colour_Asymmetry_Pilot,2022.1.3,Win32,61.10228523,62c50e9c1127f2cd403a315f,0,159,159,88,1,onetwo,,,,,,,,,,,,,,,,,,,,,,,,,,,,,,,,,,,,,,,,,,,,,,,,,,,,,,,,,,,,,,,,,,,,,,,,,,,,,,,,,,,,,,,,,,,,,,,,,,,,,,,,,,,,,,,,,,,,,,,,,,,,,,,,,,,,,,,,,,,,,,,,,,,,,,,,,,,,,
,,,,,,5ed40c08af400008d9286698,62c539cc424f00fccbaf4ee4,2022-07-06_09h29.59.271,Colour_Asymmetry_Pilot,2022.1.3,Win32,61.10228523,62c50e9c1127f2cd403a315f,0,160,160,130,1,twoone,,,,,,,,,,,,,,,,,,,,,,,,,,,,,,,,,,,,,,,,,,,,,,,,,,,,,,,,,,,,,,,,,,,,,,,,,,,,,,,,,,,,,,,,,,,,,,,,,,,,,,,,,,,,,,,,,,,,,,,,,,,,,,,,,,,,,,,,,,,,,,,,,,,,,,,,,,,,,
,,,,,,5ed40c08af400008d9286698,62c539cc424f00fccbaf4ee4,2022-07-06_09h29.59.271,Colour_Asymmetry_Pilot,2022.1.3,Win32,61.10228523,62c50e9c1127f2cd403a315f,0,161,161,71,1,fourthree,,,,,,,,,,,,,,,,,,,,,,,,,,,,,,,,,,,,,,,,,,,,,,,,,,,,,,,,,,,,,,,,,,,,,,,,,,,,,,,,,,,,,,,,,,,,,,,,,,,,,,,,,,,,,,,,,,,,,,,,,,,,,,,,,,,,,,,,,,,,,,,,,,,,,,,,,,,,,
,,,,,,5ed40c08af400008d9286698,62c539cc424f00fccbaf4ee4,2022-07-06_09h29.59.271,Colour_Asymmetry_Pilot,2022.1.3,Win32,61.10228523,62c50e9c1127f2cd403a315f,,,,,,,space,8.468,space,40.4922,space,121.0128,space,16.2083,space,7.9799,space,6.9649,"[0.37240000000000006,-0.050999999999999934,-0.5216]",fourthree,"[-0.4902000000000001,0.2704,-0.45899999999999996]",4,16.4747,30,98,1,0,0,response1disk_5,-14,0,1,0,0,rectangle_8,38,-87,1,0,0,response3disk_7,4,1,6,-1,1,0,0,rectangle_4,0,0,0,0,1,,,,,,,,,,,,,,,,,,,,,,,,,,,,,,,,,,,,,,,,,,,,,,,,,,,,,,,,,,,,,,,,,,,,,,,,,,,,,,,,,,,,,,,,,,,,,,,,,,,,,,,,,,,,,
,,,,,,5ed40c08af400008d9286698,62c539cc424f00fccbaf4ee4,2022-07-06_09h29.59.271,Colour_Asymmetry_Pilot,2022.1.3,Win32,61.10228523,62c50e9c1127f2cd403a315f,,,,,,,,,,,,,,,,,,,"[-0.20799999999999996,-0.655,-0.01980000000000004]",threefour,"[-0.48240000000000005,0.3175999999999999,0.2156]",-4,5.4162,-46,99,1,0,0,response7disk_5,-3,-1,1,0,0,rectangle_8,-3,-1,1,0,0,,,1,-3,-1,1,0,0,,1,0,1,0,1,,,,,,,,,,,,,,,,,,,,,,,,,,,,,,,,,,,,,,,,,,,,,,,,,,,,,,,,,,,,,,,,,,,,,,,,,,,,,,,,,,,,,,,,,,,,,,,,,,,,,,,,,,,,,
,,,,,,5ed40c08af400008d9286698,62c539cc424f00fccbaf4ee4,2022-07-06_09h29.59.271,Colour_Asymmetry_Pilot,2022.1.3,Win32,61.10228523,62c50e9c1127f2cd403a315f,,,,,,,,,,,,,,,,,,,"[0.2784,-0.31000000000000005,-0.5452]",threefour,"[-0.30200000000000005,0.14500000000000002,0.2784]",-4,4.3879,-50,82,1,0,0,response7disk_5,-6,-4,1,0,0,rectangle_8,-6,-4,1,0,0,,,1,-6,-4,1,0,0,,2,0,2,0,1,,,,,,,,,,,,,,,,,,,,,,,,,,,,,,,,,,,,,,,,,,,,,,,,,,,,,,,,,,,,,,,,,,,,,,,,,,,,,,,,,,,,,,,,,,,,,,,,,,,,,,,,,,,,,
,,,,,,5ed40c08af400008d9286698,62c539cc424f00fccbaf4ee4,2022-07-06_09h29.59.271,Colour_Asymmetry_Pilot,2022.1.3,Win32,61.10228523,62c50e9c1127f2cd403a315f,,,,,,,,,,,,,,,,,,,"[0.9763999999999999,0.8588,-0.05900000000000005]",fourtwo,"[-0.26280000000000003,-0.2158,-0.3256]",-4,12.1449,-44,102,1,0,0,response7disk_5,2,4,1,0,0,rectangle_8,2,4,1,0,0,,,1,2,4,1,0,0,,3,0,3,0,1,,,,,,,,,,,,,,,,,,,,,,,,,,,,,,,,,,,,,,,,,,,,,,,,,,,,,,,,,,,,,,,,,,,,,,,,,,,,,,,,,,,,,,,,,,,,,,,,,,,,,,,,,,,,,
,,,,,,5ed40c08af400008d9286698,62c539cc424f00fccbaf4ee4,2022-07-06_09h29.59.271,Colour_Asymmetry_Pilot,2022.1.3,Win32,61.10228523,62c50e9c1127f2cd403a315f,,,,,,,,,,,,,,,,,,,"[0.2862,0.7802,0.3568]",onetwo,"[0.7018,0.7802,-0.16079999999999994]",4,5.351,33,92,1,0,0,response1disk_5,-3,0,1,0,0,rectangle_8,41,-98,1,0,0,response3disk_7,4,1,-1,1,1,0,0,rectangle_4,4,0,4,0,1,,,,,,,,,,,,,,,,,,,,,,,,,,,,,,,,,,,,,,,,,,,,,,,,,,,,,,,,,,,,,,,,,,,,,,,,,,,,,,,,,,,,,,,,,,,,,,,,,,,,,,,,,,,,,
,,,,,,5ed40c08af400008d9286698,62c539cc424f00fccbaf4ee4,2022-07-06_09h29.59.271,Colour_Asymmetry_Pilot,2022.1.3,Win32,61.10228523,62c50e9c1127f2cd403a315f,,,,,,,,,,,,,,,,,,,"[-0.10599999999999998,-0.15300000000000002,0.15280000000000005]",onetwo,"[0.40379999999999994,0.09000000000000008,0.44300000000000006]",4,3.7643,30,93,1,0,0,response1disk_5,-7,0,1,0,0,rectangle_8,-7,0,1,0,0,,,1,-7,0,1,0,0,,5,0,5,0,1,,,,,,,,,,,,,,,,,,,,,,,,,,,,,,,,,,,,,,,,,,,,,,,,,,,,,,,,,,,,,,,,,,,,,,,,,,,,,,,,,,,,,,,,,,,,,,,,,,,,,,,,,,,,,
,,,,,,5ed40c08af400008d9286698,62c539cc424f00fccbaf4ee4,2022-07-06_09h29.59.271,Colour_Asymmetry_Pilot,2022.1.3,Win32,61.10228523,62c50e9c1127f2cd403a315f,,,,,,,,,,,,,,,,,,,"[-0.8118,-0.8198,-0.5452]",twofour,"[-0.01980000000000004,-0.5138,-0.38039999999999996]",-4,2.968,-42,91,1,0,0,response7disk_5,-6,1,1,0,0,rectangle_8,-6,1,1,0,0,,,1,-6,1,1,0,0,,6,0,6,0,1,,,,,,,,,,,,,,,,,,,,,,,,,,,,,,,,,,,,,,,,,,,,,,,,,,,,,,,,,,,,,,,,,,,,,,,,,,,,,,,,,,,,,,,,,,,,,,,,,,,,,,,,,,,,,
,,,,,,5ed40c08af400008d9286698,62c539cc424f00fccbaf4ee4,2022-07-06_09h29.59.271,Colour_Asymmetry_Pilot,2022.1.3,Win32,61.10228523,62c50e9c1127f2cd403a315f,,,,,,,,,,,,,,,,,,,,twoone,,-4,3.7027,,,,,,,,,,,,,,,,,,,,,,,,,,,,,,,,space,4.2618,"[-0.17659999999999998,0.3253999999999999,0.19999999999999996]","[0.9372,0.9450000000000001,0.8980000000000001]",-35,81,1,0,0,response7disk,-3,10,1,0,0,rectangle,-3,10,1,0,0,,2,0.0064,0,-3,10,1,0,0,0,0,0,22,1,22,first,,,,,,,,,,,,,,,,,,,,,,,,,,,,,,,,,,,,,,,,,,,,,,,,,,,,,,,,,,,,,,,,,,,,,,,,
,,,,,,5ed40c08af400008d9286698,62c539cc424f00fccbaf4ee4,2022-07-06_09h29.59.271,Colour_Asymmetry_Pilot,2022.1.3,Win32,61.10228523,62c50e9c1127f2cd403a315f,,,,,,,,,,,,,,,,,,,,twofour,,-4,3.3999,,,,,,,,,,,,,,,,,,,,,,,,,,,,,,,,,,"[-0.09019999999999995,0.44300000000000006,0.5371999999999999]","[-0.4982,-0.2942,-0.0354000000000001]",-34,72,1,0,0,response7disk,11,-4,1,0,0,rectangle,11,-4,1,0,0,,2,0.0012,0,11,-4,1,0,0,0,1,1,46,1,46,first,,,,,,,,,,,,,,,,,,,,,,,,,,,,,,,,,,,,,,,,,,,,,,,,,,,,,,,,,,,,,,,,,,,,,,,,
,,,,,,5ed40c08af400008d9286698,62c539cc424f00fccbaf4ee4,2022-07-06_09h29.59.271,Colour_Asymmetry_Pilot,2022.1.3,Win32,61.10228523,62c50e9c1127f2cd403a315f,,,,,,,,,,,,,,,,,,,,threeone,,-4,2.5101,,,,,,,,,,,,,,,,,,,,,,,,,,,,,,,,,,"[0.9763999999999999,-0.1137999999999999,-0.6314]","[-0.9688,-0.4902000000000001,-0.12159999999999993]",-36,86,1,0,0,response7disk,-5,2,1,0,0,rectangle,-5,2,1,0,0,,1,0.0027,0,-5,2,1,0,0,0,2,2,151,1,70,second,,,,,,,,,,,,,,,,,,,,,,,,,,,,,,,,,,,,,,,,,,,,,,,,,,,,,,,,,,,,,,,,,,,,,,,,
,,,,,,5ed40c08af400008d9286698,62c539cc424f00fccbaf4ee4,2022-07-06_09h29.59.271,Colour_Asymmetry_Pilot,2022.1.3,Win32,61.10228523,62c50e9c1127f2cd403a315f,,,,,,,,,,,,,,,,,,,,twofour,,4,3.4876,,,,,,,,,,,,,,,,,,,,,,,,,,,,,,,,,,"[-0.17659999999999998,-0.2864,-0.8354]","[0.37240000000000006,-0.050999999999999934,-0.5216]",28,102,1,0,0,response1disk,9,4,1,0,0,rectangle,9,4,1,0,0,,3,0.0048,0,9,4,1,0,0,0,3,3,49,1,49,first,,,,,,,,,,,,,,,,,,,,,,,,,,,,,,,,,,,,,,,,,,,,,,,,,,,,,,,,,,,,,,,,,,,,,,,,
,,,,,,5ed40c08af400008d9286698,62c539cc424f00fccbaf4ee4,2022-07-06_09h29.59.271,Colour_Asymmetry_Pilot,2022.1.3,Win32,61.10228523,62c50e9c1127f2cd403a315f,,,,,,,,,,,,,,,,,,,,onethree,,-4,4.442,,,,,,,,,,,,,,,,,,,,,,,,,,,,,,,,,,"[-0.8198,-0.5138,-0.7492000000000001]","[0.5449999999999999,-0.31000000000000005,-0.0354000000000001]",-42,92,1,0,0,response7disk,-7,3,1,0,0,rectangle,-7,3,1,0,0,,2,0.0047,0,-7,3,1,0,0,0,4,4,44,1,44,first,,,,,,,,,,,,,,,,,,,,,,,,,,,,,,,,,,,,,,,,,,,,,,,,,,,,,,,,,,,,,,,,,,,,,,,,
,,,,,,5ed40c08af400008d9286698,62c539cc424f00fccbaf4ee4,2022-07-06_09h29.59.271,Colour_Asymmetry_Pilot,2022.1.3,Win32,61.10228523,62c50e9c1127f2cd403a315f,,,,,,,,,,,,,,,,,,,,threefour,,-4,2.4927,,,,,,,,,,,,,,,,,,,,,,,,,,,,,,,,,,"[0.7802,-0.23140000000000005,-0.20799999999999996]","[0.7018,0.7176,0.6155999999999999]",-33,69,1,0,0,response7disk,8,-7,1,0,0,rectangle,8,-7,1,0,0,,2,0.0005,0,8,-7,1,0,0,0,5,5,133,1,52,second,,,,,,,,,,,,,,,,,,,,,,,,,,,,,,,,,,,,,,,,,,,,,,,,,,,,,,,,,,,,,,,,,,,,,,,,
,,,,,,5ed40c08af400008d9286698,62c539cc424f00fccbaf4ee4,2022-07-06_09h29.59.271,Colour_Asymmetry_Pilot,2022.1.3,Win32,61.10228523,62c50e9c1127f2cd403a315f,,,,,,,,,,,,,,,,,,,,twoone,,-4,20.669,,,,,,,,,,,,,,,,,,,,,,,,,,,,,,,,,,"[1,0.12939999999999996,-1]","[-0.9138,-0.5296000000000001,-0.5529999999999999]",-41,84,1,0,0,response7disk,5,0,1,0,0,rectangle,5,0,1,0,0,,3,0.0027,0,5,0,1,0,0,0,6,6,90,1,9,second,,,,,,,,,,,,,,,,,,,,,,,,,,,,,,,,,,,,,,,,,,,,,,,,,,,,,,,,,,,,,,,,,,,,,,,,
,,,,,,5ed40c08af400008d9286698,62c539cc424f00fccbaf4ee4,2022-07-06_09h29.59.271,Colour_Asymmetry_Pilot,2022.1.3,Win32,61.10228523,62c50e9c1127f2cd403a315f,,,,,,,,,,,,,,,,,,,,onethree,,-4,6.3236,,,,,,,,,,,,,,,,,,,,,,,,,,,,,,,,,,"[0.7802,-0.23140000000000005,-0.20799999999999996]","[-0.9766,-0.34920000000000007,0.2156]",-30,71,1,0,0,response7disk,13,8,1,0,0,rectangle,13,8,1,0,0,,1,0.0032,0,13,8,1,0,0,0,7,7,98,1,17,second,,,,,,,,,,,,,,,,,,,,,,,,,,,,,,,,,,,,,,,,,,,,,,,,,,,,,,,,,,,,,,,,,,,,,,,,
,,,,,,5ed40c08af400008d9286698,62c539cc424f00fccbaf4ee4,2022-07-06_09h29.59.271,Colour_Asymmetry_Pilot,2022.1.3,Win32,61.10228523,62c50e9c1127f2cd403a315f,,,,,,,,,,,,,,,,,,,,fourthree,,4,4.6181,,,,,,,,,,,,,,,,,,,,,,,,,,,,,,,,,,"[-0.4982,-0.2942,-0.0354000000000001]","[-0.9688,-0.4902000000000001,-0.12159999999999993]",36,90,1,0,0,response1disk,-2,2,1,0,0,rectangle,-2,2,1,0,0,,2,0.0028,0,-2,2,1,0,0,0,8,8,82,1,1,second,,,,,,,,,,,,,,,,,,,,,,,,,,,,,,,,,,,,,,,,,,,,,,,,,,,,,,,,,,,,,,,,,,,,,,,,
,,,,,,5ed40c08af400008d9286698,62c539cc424f00fccbaf4ee4,2022-07-06_09h29.59.271,Colour_Asymmetry_Pilot,2022.1.3,Win32,61.10228523,62c50e9c1127f2cd403a315f,,,,,,,,,,,,,,,,,,,,fourtwo,,-4,2.5526,,,,,,,,,,,,,,,,,,,,,,,,,,,,,,,,,,"[0.6625999999999999,0.4980000000000002,-0.357]","[-0.6706000000000001,-0.6157999999999999,-0.6786]",-33,109,1,0,0,response7disk,-14,-1,1,0,0,rectangle,-14,-1,1,0,0,,1,0.0031,0,-14,-1,1,0,0,0,9,9,63,1,63,first,,,,,,,,,,,,,,,,,,,,,,,,,,,,,,,,,,,,,,,,,,,,,,,,,,,,,,,,,,,,,,,,,,,,,,,,
,,,,,,5ed40c08af400008d9286698,62c539cc424f00fccbaf4ee4,2022-07-06_09h29.59.271,Colour_Asymmetry_Pilot,2022.1.3,Win32,61.10228523,62c50e9c1127f2cd403a315f,,,,,,,,,,,,,,,,,,,,fourtwo,,-4,2.0436,,,,,,,,,,,,,,,,,,,,,,,,,,,,,,,,,,"[0.40379999999999994,0.09000000000000008,0.44300000000000006]","[0.7176,-0.906,-0.6864]",-45,88,1,0,0,response7disk,-3,7,1,0,0,rectangle,-3,7,1,0,0,,1,0.0007,0,-3,7,1,0,0,0,10,10,94,1,13,second,,,,,,,,,,,,,,,,,,,,,,,,,,,,,,,,,,,,,,,,,,,,,,,,,,,,,,,,,,,,,,,,,,,,,,,,
,,,,,,5ed40c08af400008d9286698,62c539cc424f00fccbaf4ee4,2022-07-06_09h29.59.271,Colour_Asymmetry_Pilot,2022.1.3,Win32,61.10228523,62c50e9c1127f2cd403a315f,,,,,,,,,,,,,,,,,,,,twofour,,-4,3.373,,,,,,,,,,,,,,,,,,,,,,,,,,,,,,,,,,"[-0.07459999999999989,0.12139999999999995,-0.9922]","[0.3568,-0.20799999999999996,-0.9844]",-36,65,1,0,0,response7disk,4,5,1,0,0,rectangle,33,-97,1,0,0,1,1,6.237,1,-4,-1,1,0,0,0,11,11,76,1,76,first,response3disk_3,rectangle,,,,,,,,,,,,,,,,,,,,,,,,,,,,,,,,,,,,,,,,,,,,,,,,,,,,,,,,,,,,,,,,,,,,,,
,,,,,,5ed40c08af400008d9286698,62c539cc424f00fccbaf4ee4,2022-07-06_09h29.59.271,Colour_Asymmetry_Pilot,2022.1.3,Win32,61.10228523,62c50e9c1127f2cd403a315f,,,,,,,,,,,,,,,,,,,,threeone,,4,9.1009,,,,,,,,,,,,,,,,,,,,,,,,,,,,,,,,,,"[-0.9216,-0.5529999999999999,-0.3962]","[-0.24719999999999998,-0.0354000000000001,0.3175999999999999]",48,95,1,0,0,response1disk,0,8,1,0,0,rectangle,0,8,1,0,0,1,1,0.0008,0,0,8,1,0,0,0,12,12,4,1,4,first,,,,,,,,,,,,,,,,,,,,,,,,,,,,,,,,,,,,,,,,,,,,,,,,,,,,,,,,,,,,,,,,,,,,,,,,
,,,,,,5ed40c08af400008d9286698,62c539cc424f00fccbaf4ee4,2022-07-06_09h29.59.271,Colour_Asymmetry_Pilot,2022.1.3,Win32,61.10228523,62c50e9c1127f2cd403a315f,,,,,,,,,,,,,,,,,,,,threefour,,4,2.5213,,,,,,,,,,,,,,,,,,,,,,,,,,,,,,,,,,"[0.3568,-0.20799999999999996,-0.9844]","[-0.07459999999999989,0.12139999999999995,-0.9922]",47,98,1,0,0,response1disk,2,-4,1,0,0,rectangle,2,-4,1,0,0,1,2,0.0036,0,2,-4,1,0,0,0,13,13,157,1,76,second,,,,,,,,,,,,,,,,,,,,,,,,,,,,,,,,,,,,,,,,,,,,,,,,,,,,,,,,,,,,,,,,,,,,,,,,
,,,,,,5ed40c08af400008d9286698,62c539cc424f00fccbaf4ee4,2022-07-06_09h29.59.271,Colour_Asymmetry_Pilot,2022.1.3,Win32,61.10228523,62c50e9c1127f2cd403a315f,,,,,,,,,,,,,,,,,,,,threeone,,-4,3.8086,,,,,,,,,,,,,,,,,,,,,,,,,,,,,,,,,,"[-0.9844,-0.9688,-0.9922]","[-0.9296,-0.12959999999999994,-0.043199999999999905]",-48,79,1,0,0,response7disk,5,-10,1,0,0,rectangle,5,-10,1,0,0,1,1,0.003,0,5,-10,1,0,0,0,14,14,45,1,45,first,,,,,,,,,,,,,,,,,,,,,,,,,,,,,,,,,,,,,,,,,,,,,,,,,,,,,,,,,,,,,,,,,,,,,,,,
,,,,,,5ed40c08af400008d9286698,62c539cc424f00fccbaf4ee4,2022-07-06_09h29.59.271,Colour_Asymmetry_Pilot,2022.1.3,Win32,61.10228523,62c50e9c1127f2cd403a315f,,,,,,,,,,,,,,,,,,,,onethree,,4,12.0924,,,,,,,,,,,,,,,,,,,,,,,,,,,,,,,,,,"[-0.0040000000000000036,0.02739999999999987,-0.08239999999999992]","[-0.24719999999999998,0.5213999999999999,-0.12959999999999994]",40,90,1,0,0,response1disk,-12,-7,1,0,0,rectangle,-12,-7,1,0,0,1,2,0.0042,0,-12,-7,1,0,0,0,15,15,156,1,75,second,,,,,,,,,,,,,,,,,,,,,,,,,,,,,,,,,,,,,,,,,,,,,,,,,,,,,,,,,,,,,,,,,,,,,,,,
,,,,,,5ed40c08af400008d9286698,62c539cc424f00fccbaf4ee4,2022-07-06_09h29.59.271,Colour_Asymmetry_Pilot,2022.1.3,Win32,61.10228523,62c50e9c1127f2cd403a315f,,,,,,,,,,,,,,,,,,,,onetwo,,-4,3.6372,,,,,,,,,,,,,,,,,,,,,,,,,,,,,,,,,,"[0.09799999999999986,-0.24719999999999998,0.15280000000000005]","[-0.24719999999999998,-0.0354000000000001,0.3175999999999999]",-34,86,1,0,0,response7disk,4,0,1,0,0,rectangle,4,0,1,0,0,1,1,0.0028,0,4,0,1,0,0,0,16,16,15,1,15,first,,,,,,,,,,,,,,,,,,,,,,,,,,,,,,,,,,,,,,,,,,,,,,,,,,,,,,,,,,,,,,,,,,,,,,,,
,,,,,,5ed40c08af400008d9286698,62c539cc424f00fccbaf4ee4,2022-07-06_09h29.59.271,Colour_Asymmetry_Pilot,2022.1.3,Win32,61.10228523,62c50e9c1127f2cd403a315f,,,,,,,,,,,,,,,,,,,,threeone,,4,8.7357,,,,,,,,,,,,,,,,,,,,,,,,,,,,,,,,,,"[-0.6,0.16860000000000008,0.44300000000000006]","[-0.8198,-0.5138,-0.7492000000000001]",45,108,1,0,0,response1disk,3,0,1,0,0,rectangle,3,0,1,0,0,1,3,0.0033,0,3,0,1,0,0,0,17,17,71,1,71,first,,,,,,,,,,,,,,,,,,,,,,,,,,,,,,,,,,,,,,,,,,,,,,,,,,,,,,,,,,,,,,,,,,,,,,,,
