trials.thisRepN,trials.thisTrialN,trials.thisN,trials.thisIndex,trials.ran,Colourcodes,participant,session,date,expName,psychopyVersion,OS,frameRate,study_id,trials_4.thisRepN,trials_4.thisTrialN,trials_4.thisN,trials_4.thisIndex,trials_4.ran,StimulusPos,key_resp.keys,key_resp.rt,key_resp_2.keys,key_resp_2.rt,key_resp_15.keys,key_resp_15.rt,key_resp_17.keys,key_resp_17.rt,key_resp_9.keys,key_resp_9.rt,key_resp_10.keys,key_resp_10.rt,Circle1_col,Ecc,Circle2_col,similarity,response_time,mouse_5.x,mouse_5.y,mouse_5.leftButton,mouse_5.midButton,mouse_5.rightButton,mouse_5.clicked_name,mouse_10.x,mouse_10.y,mouse_10.leftButton,mouse_10.midButton,mouse_10.rightButton,mouse_10.clicked_name,mouse_7.x,mouse_7.y,mouse_7.leftButton,mouse_7.midButton,mouse_7.rightButton,catchnumberprac,mouse_6.x,mouse_6.y,mouse_6.leftButton,mouse_6.midButton,mouse_6.rightButton,duringprac.thisRepN,duringprac.thisTrialN,duringprac.thisN,duringprac.thisIndex,duringprac.ran,mouse_7.clicked_name,catchprac,mouse_6.clicked_name,key_resp_22.keys,key_resp_22.rt,Circle1_colour,Circle2_colour,mouse.x,mouse.y,mouse.leftButton,mouse.midButton,mouse.rightButton,mouse.clicked_name,mouse_2.x,mouse_2.y,mouse_2.leftButton,mouse_2.midButton,mouse_2.rightButton,mouse_2.clicked_name,mouse_3.x,mouse_3.y,mouse_3.leftButton,mouse_3.midButton,mouse_3.rightButton,catchresponse,catchnumber,response_time_catch,Catch,mouse_11.x,mouse_11.y,mouse_11.leftButton,mouse_11.midButton,mouse_11.rightButton,trials_2.thisRepN,trials_2.thisTrialN,trials_2.thisN,trials_2.thisIndex,trials_2.ran,Colourpair,Temporder,mouse_3.clicked_name,mouse_11.clicked_name,trials_3.thisRepN,trials_3.thisTrialN,trials_3.thisN,trials_3.thisIndex,trials_3.ran,key_resp_instr_Ishi.keys,key_resp_instr_Ishi.rt,Ishi_trial_keyresp.keys,Ishi_textbox.text,Ishi_mouse.x,Ishi_mouse.y,Ishi_mouse.leftButton,Ishi_mouse.midButton,Ishi_mouse.rightButton,Ishi_mouse.clicked_name,Ishi_loop.thisRepN,Ishi_loop.thisTrialN,Ishi_loop.thisN,Ishi_loop.thisIndex,Ishi_loop.ran,imageaddress,textbox.text,mouse_4.x,mouse_4.y,mouse_4.leftButton,mouse_4.midButton,mouse_4.rightButton,mouse_4.clicked_name,textbox_2.text,mouse_8.x,mouse_8.y,mouse_8.leftButton,mouse_8.midButton,mouse_8.rightButton,mouse_8.clicked_name,textbox_3.text,mouse_9.x,mouse_9.y,mouse_9.leftButton,mouse_9.midButton,mouse_9.rightButton,mouse_9.clicked_name,textbox_4.text,mouse_12.x,mouse_12.y,mouse_12.leftButton,mouse_12.midButton,mouse_12.rightButton,mouse_12.clicked_name,textbox_5.text,mouse_13.x,mouse_13.y,mouse_13.leftButton,mouse_13.midButton,mouse_13.rightButton,mouse_13.clicked_name,textbox_6.text,mouse_14.x,mouse_14.y,mouse_14.leftButton,mouse_14.midButton,mouse_14.rightButton,mouse_14.clicked_name,textbox_7.text,mouse_15.x,mouse_15.y,mouse_15.leftButton,mouse_15.midButton,mouse_15.rightButton,mouse_15.clicked_name
0,0,0,45,1,,5b8e8feeee5b0500010f16d0,62c538b0e11c40b2f02aaeaf,2022-07-06_09h24.45.976,Colour_Asymmetry_Pilot,2022.1.3,Win32,59.56635692,62c50e9c1127f2cd403a315f,,,,,,,,,,,,,,,,,,,,,,,,,,,,,,,,,,,,,,,,,,,,,,,,,,,,,,,,,,,,,,,,,,,,,,,,,,,,,,,,,,,,,,,,,,,,,,,,,,,,,,,,,,,,,,,,,,,,,,,,,,,,,,,,,,,,,,,,,,,,,,,,,,,,,,,,,,,,,,,,,,,
0,1,1,1,1,,5b8e8feeee5b0500010f16d0,62c538b0e11c40b2f02aaeaf,2022-07-06_09h24.45.976,Colour_Asymmetry_Pilot,2022.1.3,Win32,59.56635692,62c50e9c1127f2cd403a315f,,,,,,,,,,,,,,,,,,,,,,,,,,,,,,,,,,,,,,,,,,,,,,,,,,,,,,,,,,,,,,,,,,,,,,,,,,,,,,,,,,,,,,,,,,,,,,,,,,,,,,,,,,,,,,,,,,,,,,,,,,,,,,,,,,,,,,,,,,,,,,,,,,,,,,,,,,,,,,,,,,,
0,2,2,20,1,,5b8e8feeee5b0500010f16d0,62c538b0e11c40b2f02aaeaf,2022-07-06_09h24.45.976,Colour_Asymmetry_Pilot,2022.1.3,Win32,59.56635692,62c50e9c1127f2cd403a315f,,,,,,,,,,,,,,,,,,,,,,,,,,,,,,,,,,,,,,,,,,,,,,,,,,,,,,,,,,,,,,,,,,,,,,,,,,,,,,,,,,,,,,,,,,,,,,,,,,,,,,,,,,,,,,,,,,,,,,,,,,,,,,,,,,,,,,,,,,,,,,,,,,,,,,,,,,,,,,,,,,,
0,3,3,43,1,,5b8e8feeee5b0500010f16d0,62c538b0e11c40b2f02aaeaf,2022-07-06_09h24.45.976,Colour_Asymmetry_Pilot,2022.1.3,Win32,59.56635692,62c50e9c1127f2cd403a315f,,,,,,,,,,,,,,,,,,,,,,,,,,,,,,,,,,,,,,,,,,,,,,,,,,,,,,,,,,,,,,,,,,,,,,,,,,,,,,,,,,,,,,,,,,,,,,,,,,,,,,,,,,,,,,,,,,,,,,,,,,,,,,,,,,,,,,,,,,,,,,,,,,,,,,,,,,,,,,,,,,,
0,4,4,77,1,,5b8e8feeee5b0500010f16d0,62c538b0e11c40b2f02aaeaf,2022-07-06_09h24.45.976,Colour_Asymmetry_Pilot,2022.1.3,Win32,59.56635692,62c50e9c1127f2cd403a315f,,,,,,,,,,,,,,,,,,,,,,,,,,,,,,,,,,,,,,,,,,,,,,,,,,,,,,,,,,,,,,,,,,,,,,,,,,,,,,,,,,,,,,,,,,,,,,,,,,,,,,,,,,,,,,,,,,,,,,,,,,,,,,,,,,,,,,,,,,,,,,,,,,,,,,,,,,,,,,,,,,,
0,5,5,53,1,,5b8e8feeee5b0500010f16d0,62c538b0e11c40b2f02aaeaf,2022-07-06_09h24.45.976,Colour_Asymmetry_Pilot,2022.1.3,Win32,59.56635692,62c50e9c1127f2cd403a315f,,,,,,,,,,,,,,,,,,,,,,,,,,,,,,,,,,,,,,,,,,,,,,,,,,,,,,,,,,,,,,,,,,,,,,,,,,,,,,,,,,,,,,,,,,,,,,,,,,,,,,,,,,,,,,,,,,,,,,,,,,,,,,,,,,,,,,,,,,,,,,,,,,,,,,,,,,,,,,,,,,,
0,6,6,4,1,,5b8e8feeee5b0500010f16d0,62c538b0e11c40b2f02aaeaf,2022-07-06_09h24.45.976,Colour_Asymmetry_Pilot,2022.1.3,Win32,59.56635692,62c50e9c1127f2cd403a315f,,,,,,,,,,,,,,,,,,,,,,,,,,,,,,,,,,,,,,,,,,,,,,,,,,,,,,,,,,,,,,,,,,,,,,,,,,,,,,,,,,,,,,,,,,,,,,,,,,,,,,,,,,,,,,,,,,,,,,,,,,,,,,,,,,,,,,,,,,,,,,,,,,,,,,,,,,,,,,,,,,,
0,7,7,17,1,,5b8e8feeee5b0500010f16d0,62c538b0e11c40b2f02aaeaf,2022-07-06_09h24.45.976,Colour_Asymmetry_Pilot,2022.1.3,Win32,59.56635692,62c50e9c1127f2cd403a315f,,,,,,,,,,,,,,,,,,,,,,,,,,,,,,,,,,,,,,,,,,,,,,,,,,,,,,,,,,,,,,,,,,,,,,,,,,,,,,,,,,,,,,,,,,,,,,,,,,,,,,,,,,,,,,,,,,,,,,,,,,,,,,,,,,,,,,,,,,,,,,,,,,,,,,,,,,,,,,,,,,,
0,8,8,3,1,,5b8e8feeee5b0500010f16d0,62c538b0e11c40b2f02aaeaf,2022-07-06_09h24.45.976,Colour_Asymmetry_Pilot,2022.1.3,Win32,59.56635692,62c50e9c1127f2cd403a315f,,,,,,,,,,,,,,,,,,,,,,,,,,,,,,,,,,,,,,,,,,,,,,,,,,,,,,,,,,,,,,,,,,,,,,,,,,,,,,,,,,,,,,,,,,,,,,,,,,,,,,,,,,,,,,,,,,,,,,,,,,,,,,,,,,,,,,,,,,,,,,,,,,,,,,,,,,,,,,,,,,,
0,9,9,39,1,,5b8e8feeee5b0500010f16d0,62c538b0e11c40b2f02aaeaf,2022-07-06_09h24.45.976,Colour_Asymmetry_Pilot,2022.1.3,Win32,59.56635692,62c50e9c1127f2cd403a315f,,,,,,,,,,,,,,,,,,,,,,,,,,,,,,,,,,,,,,,,,,,,,,,,,,,,,,,,,,,,,,,,,,,,,,,,,,,,,,,,,,,,,,,,,,,,,,,,,,,,,,,,,,,,,,,,,,,,,,,,,,,,,,,,,,,,,,,,,,,,,,,,,,,,,,,,,,,,,,,,,,,
0,10,10,10,1,,5b8e8feeee5b0500010f16d0,62c538b0e11c40b2f02aaeaf,2022-07-06_09h24.45.976,Colour_Asymmetry_Pilot,2022.1.3,Win32,59.56635692,62c50e9c1127f2cd403a315f,,,,,,,,,,,,,,,,,,,,,,,,,,,,,,,,,,,,,,,,,,,,,,,,,,,,,,,,,,,,,,,,,,,,,,,,,,,,,,,,,,,,,,,,,,,,,,,,,,,,,,,,,,,,,,,,,,,,,,,,,,,,,,,,,,,,,,,,,,,,,,,,,,,,,,,,,,,,,,,,,,,
0,11,11,72,1,,5b8e8feeee5b0500010f16d0,62c538b0e11c40b2f02aaeaf,2022-07-06_09h24.45.976,Colour_Asymmetry_Pilot,2022.1.3,Win32,59.56635692,62c50e9c1127f2cd403a315f,,,,,,,,,,,,,,,,,,,,,,,,,,,,,,,,,,,,,,,,,,,,,,,,,,,,,,,,,,,,,,,,,,,,,,,,,,,,,,,,,,,,,,,,,,,,,,,,,,,,,,,,,,,,,,,,,,,,,,,,,,,,,,,,,,,,,,,,,,,,,,,,,,,,,,,,,,,,,,,,,,,
0,12,12,48,1,,5b8e8feeee5b0500010f16d0,62c538b0e11c40b2f02aaeaf,2022-07-06_09h24.45.976,Colour_Asymmetry_Pilot,2022.1.3,Win32,59.56635692,62c50e9c1127f2cd403a315f,,,,,,,,,,,,,,,,,,,,,,,,,,,,,,,,,,,,,,,,,,,,,,,,,,,,,,,,,,,,,,,,,,,,,,,,,,,,,,,,,,,,,,,,,,,,,,,,,,,,,,,,,,,,,,,,,,,,,,,,,,,,,,,,,,,,,,,,,,,,,,,,,,,,,,,,,,,,,,,,,,,
0,13,13,64,1,,5b8e8feeee5b0500010f16d0,62c538b0e11c40b2f02aaeaf,2022-07-06_09h24.45.976,Colour_Asymmetry_Pilot,2022.1.3,Win32,59.56635692,62c50e9c1127f2cd403a315f,,,,,,,,,,,,,,,,,,,,,,,,,,,,,,,,,,,,,,,,,,,,,,,,,,,,,,,,,,,,,,,,,,,,,,,,,,,,,,,,,,,,,,,,,,,,,,,,,,,,,,,,,,,,,,,,,,,,,,,,,,,,,,,,,,,,,,,,,,,,,,,,,,,,,,,,,,,,,,,,,,,
0,14,14,6,1,,5b8e8feeee5b0500010f16d0,62c538b0e11c40b2f02aaeaf,2022-07-06_09h24.45.976,Colour_Asymmetry_Pilot,2022.1.3,Win32,59.56635692,62c50e9c1127f2cd403a315f,,,,,,,,,,,,,,,,,,,,,,,,,,,,,,,,,,,,,,,,,,,,,,,,,,,,,,,,,,,,,,,,,,,,,,,,,,,,,,,,,,,,,,,,,,,,,,,,,,,,,,,,,,,,,,,,,,,,,,,,,,,,,,,,,,,,,,,,,,,,,,,,,,,,,,,,,,,,,,,,,,,
0,15,15,92,1,,5b8e8feeee5b0500010f16d0,62c538b0e11c40b2f02aaeaf,2022-07-06_09h24.45.976,Colour_Asymmetry_Pilot,2022.1.3,Win32,59.56635692,62c50e9c1127f2cd403a315f,,,,,,,,,,,,,,,,,,,,,,,,,,,,,,,,,,,,,,,,,,,,,,,,,,,,,,,,,,,,,,,,,,,,,,,,,,,,,,,,,,,,,,,,,,,,,,,,,,,,,,,,,,,,,,,,,,,,,,,,,,,,,,,,,,,,,,,,,,,,,,,,,,,,,,,,,,,,,,,,,,,
0,16,16,70,1,,5b8e8feeee5b0500010f16d0,62c538b0e11c40b2f02aaeaf,2022-07-06_09h24.45.976,Colour_Asymmetry_Pilot,2022.1.3,Win32,59.56635692,62c50e9c1127f2cd403a315f,,,,,,,,,,,,,,,,,,,,,,,,,,,,,,,,,,,,,,,,,,,,,,,,,,,,,,,,,,,,,,,,,,,,,,,,,,,,,,,,,,,,,,,,,,,,,,,,,,,,,,,,,,,,,,,,,,,,,,,,,,,,,,,,,,,,,,,,,,,,,,,,,,,,,,,,,,,,,,,,,,,
0,17,17,35,1,,5b8e8feeee5b0500010f16d0,62c538b0e11c40b2f02aaeaf,2022-07-06_09h24.45.976,Colour_Asymmetry_Pilot,2022.1.3,Win32,59.56635692,62c50e9c1127f2cd403a315f,,,,,,,,,,,,,,,,,,,,,,,,,,,,,,,,,,,,,,,,,,,,,,,,,,,,,,,,,,,,,,,,,,,,,,,,,,,,,,,,,,,,,,,,,,,,,,,,,,,,,,,,,,,,,,,,,,,,,,,,,,,,,,,,,,,,,,,,,,,,,,,,,,,,,,,,,,,,,,,,,,,
0,18,18,9,1,,5b8e8feeee5b0500010f16d0,62c538b0e11c40b2f02aaeaf,2022-07-06_09h24.45.976,Colour_Asymmetry_Pilot,2022.1.3,Win32,59.56635692,62c50e9c1127f2cd403a315f,,,,,,,,,,,,,,,,,,,,,,,,,,,,,,,,,,,,,,,,,,,,,,,,,,,,,,,,,,,,,,,,,,,,,,,,,,,,,,,,,,,,,,,,,,,,,,,,,,,,,,,,,,,,,,,,,,,,,,,,,,,,,,,,,,,,,,,,,,,,,,,,,,,,,,,,,,,,,,,,,,,
0,19,19,75,1,,5b8e8feeee5b0500010f16d0,62c538b0e11c40b2f02aaeaf,2022-07-06_09h24.45.976,Colour_Asymmetry_Pilot,2022.1.3,Win32,59.56635692,62c50e9c1127f2cd403a315f,,,,,,,,,,,,,,,,,,,,,,,,,,,,,,,,,,,,,,,,,,,,,,,,,,,,,,,,,,,,,,,,,,,,,,,,,,,,,,,,,,,,,,,,,,,,,,,,,,,,,,,,,,,,,,,,,,,,,,,,,,,,,,,,,,,,,,,,,,,,,,,,,,,,,,,,,,,,,,,,,,,
0,20,20,87,1,,5b8e8feeee5b0500010f16d0,62c538b0e11c40b2f02aaeaf,2022-07-06_09h24.45.976,Colour_Asymmetry_Pilot,2022.1.3,Win32,59.56635692,62c50e9c1127f2cd403a315f,,,,,,,,,,,,,,,,,,,,,,,,,,,,,,,,,,,,,,,,,,,,,,,,,,,,,,,,,,,,,,,,,,,,,,,,,,,,,,,,,,,,,,,,,,,,,,,,,,,,,,,,,,,,,,,,,,,,,,,,,,,,,,,,,,,,,,,,,,,,,,,,,,,,,,,,,,,,,,,,,,,
0,21,21,57,1,,5b8e8feeee5b0500010f16d0,62c538b0e11c40b2f02aaeaf,2022-07-06_09h24.45.976,Colour_Asymmetry_Pilot,2022.1.3,Win32,59.56635692,62c50e9c1127f2cd403a315f,,,,,,,,,,,,,,,,,,,,,,,,,,,,,,,,,,,,,,,,,,,,,,,,,,,,,,,,,,,,,,,,,,,,,,,,,,,,,,,,,,,,,,,,,,,,,,,,,,,,,,,,,,,,,,,,,,,,,,,,,,,,,,,,,,,,,,,,,,,,,,,,,,,,,,,,,,,,,,,,,,,
0,22,22,60,1,,5b8e8feeee5b0500010f16d0,62c538b0e11c40b2f02aaeaf,2022-07-06_09h24.45.976,Colour_Asymmetry_Pilot,2022.1.3,Win32,59.56635692,62c50e9c1127f2cd403a315f,,,,,,,,,,,,,,,,,,,,,,,,,,,,,,,,,,,,,,,,,,,,,,,,,,,,,,,,,,,,,,,,,,,,,,,,,,,,,,,,,,,,,,,,,,,,,,,,,,,,,,,,,,,,,,,,,,,,,,,,,,,,,,,,,,,,,,,,,,,,,,,,,,,,,,,,,,,,,,,,,,,
0,23,23,19,1,,5b8e8feeee5b0500010f16d0,62c538b0e11c40b2f02aaeaf,2022-07-06_09h24.45.976,Colour_Asymmetry_Pilot,2022.1.3,Win32,59.56635692,62c50e9c1127f2cd403a315f,,,,,,,,,,,,,,,,,,,,,,,,,,,,,,,,,,,,,,,,,,,,,,,,,,,,,,,,,,,,,,,,,,,,,,,,,,,,,,,,,,,,,,,,,,,,,,,,,,,,,,,,,,,,,,,,,,,,,,,,,,,,,,,,,,,,,,,,,,,,,,,,,,,,,,,,,,,,,,,,,,,
0,24,24,33,1,,5b8e8feeee5b0500010f16d0,62c538b0e11c40b2f02aaeaf,2022-07-06_09h24.45.976,Colour_Asymmetry_Pilot,2022.1.3,Win32,59.56635692,62c50e9c1127f2cd403a315f,,,,,,,,,,,,,,,,,,,,,,,,,,,,,,,,,,,,,,,,,,,,,,,,,,,,,,,,,,,,,,,,,,,,,,,,,,,,,,,,,,,,,,,,,,,,,,,,,,,,,,,,,,,,,,,,,,,,,,,,,,,,,,,,,,,,,,,,,,,,,,,,,,,,,,,,,,,,,,,,,,,
0,25,25,62,1,,5b8e8feeee5b0500010f16d0,62c538b0e11c40b2f02aaeaf,2022-07-06_09h24.45.976,Colour_Asymmetry_Pilot,2022.1.3,Win32,59.56635692,62c50e9c1127f2cd403a315f,,,,,,,,,,,,,,,,,,,,,,,,,,,,,,,,,,,,,,,,,,,,,,,,,,,,,,,,,,,,,,,,,,,,,,,,,,,,,,,,,,,,,,,,,,,,,,,,,,,,,,,,,,,,,,,,,,,,,,,,,,,,,,,,,,,,,,,,,,,,,,,,,,,,,,,,,,,,,,,,,,,
0,26,26,25,1,,5b8e8feeee5b0500010f16d0,62c538b0e11c40b2f02aaeaf,2022-07-06_09h24.45.976,Colour_Asymmetry_Pilot,2022.1.3,Win32,59.56635692,62c50e9c1127f2cd403a315f,,,,,,,,,,,,,,,,,,,,,,,,,,,,,,,,,,,,,,,,,,,,,,,,,,,,,,,,,,,,,,,,,,,,,,,,,,,,,,,,,,,,,,,,,,,,,,,,,,,,,,,,,,,,,,,,,,,,,,,,,,,,,,,,,,,,,,,,,,,,,,,,,,,,,,,,,,,,,,,,,,,
0,27,27,37,1,,5b8e8feeee5b0500010f16d0,62c538b0e11c40b2f02aaeaf,2022-07-06_09h24.45.976,Colour_Asymmetry_Pilot,2022.1.3,Win32,59.56635692,62c50e9c1127f2cd403a315f,,,,,,,,,,,,,,,,,,,,,,,,,,,,,,,,,,,,,,,,,,,,,,,,,,,,,,,,,,,,,,,,,,,,,,,,,,,,,,,,,,,,,,,,,,,,,,,,,,,,,,,,,,,,,,,,,,,,,,,,,,,,,,,,,,,,,,,,,,,,,,,,,,,,,,,,,,,,,,,,,,,
0,28,28,83,1,,5b8e8feeee5b0500010f16d0,62c538b0e11c40b2f02aaeaf,2022-07-06_09h24.45.976,Colour_Asymmetry_Pilot,2022.1.3,Win32,59.56635692,62c50e9c1127f2cd403a315f,,,,,,,,,,,,,,,,,,,,,,,,,,,,,,,,,,,,,,,,,,,,,,,,,,,,,,,,,,,,,,,,,,,,,,,,,,,,,,,,,,,,,,,,,,,,,,,,,,,,,,,,,,,,,,,,,,,,,,,,,,,,,,,,,,,,,,,,,,,,,,,,,,,,,,,,,,,,,,,,,,,
0,29,29,7,1,,5b8e8feeee5b0500010f16d0,62c538b0e11c40b2f02aaeaf,2022-07-06_09h24.45.976,Colour_Asymmetry_Pilot,2022.1.3,Win32,59.56635692,62c50e9c1127f2cd403a315f,,,,,,,,,,,,,,,,,,,,,,,,,,,,,,,,,,,,,,,,,,,,,,,,,,,,,,,,,,,,,,,,,,,,,,,,,,,,,,,,,,,,,,,,,,,,,,,,,,,,,,,,,,,,,,,,,,,,,,,,,,,,,,,,,,,,,,,,,,,,,,,,,,,,,,,,,,,,,,,,,,,
0,30,30,29,1,,5b8e8feeee5b0500010f16d0,62c538b0e11c40b2f02aaeaf,2022-07-06_09h24.45.976,Colour_Asymmetry_Pilot,2022.1.3,Win32,59.56635692,62c50e9c1127f2cd403a315f,,,,,,,,,,,,,,,,,,,,,,,,,,,,,,,,,,,,,,,,,,,,,,,,,,,,,,,,,,,,,,,,,,,,,,,,,,,,,,,,,,,,,,,,,,,,,,,,,,,,,,,,,,,,,,,,,,,,,,,,,,,,,,,,,,,,,,,,,,,,,,,,,,,,,,,,,,,,,,,,,,,
0,31,31,42,1,,5b8e8feeee5b0500010f16d0,62c538b0e11c40b2f02aaeaf,2022-07-06_09h24.45.976,Colour_Asymmetry_Pilot,2022.1.3,Win32,59.56635692,62c50e9c1127f2cd403a315f,,,,,,,,,,,,,,,,,,,,,,,,,,,,,,,,,,,,,,,,,,,,,,,,,,,,,,,,,,,,,,,,,,,,,,,,,,,,,,,,,,,,,,,,,,,,,,,,,,,,,,,,,,,,,,,,,,,,,,,,,,,,,,,,,,,,,,,,,,,,,,,,,,,,,,,,,,,,,,,,,,,
0,32,32,88,1,,5b8e8feeee5b0500010f16d0,62c538b0e11c40b2f02aaeaf,2022-07-06_09h24.45.976,Colour_Asymmetry_Pilot,2022.1.3,Win32,59.56635692,62c50e9c1127f2cd403a315f,,,,,,,,,,,,,,,,,,,,,,,,,,,,,,,,,,,,,,,,,,,,,,,,,,,,,,,,,,,,,,,,,,,,,,,,,,,,,,,,,,,,,,,,,,,,,,,,,,,,,,,,,,,,,,,,,,,,,,,,,,,,,,,,,,,,,,,,,,,,,,,,,,,,,,,,,,,,,,,,,,,
0,33,33,69,1,,5b8e8feeee5b0500010f16d0,62c538b0e11c40b2f02aaeaf,2022-07-06_09h24.45.976,Colour_Asymmetry_Pilot,2022.1.3,Win32,59.56635692,62c50e9c1127f2cd403a315f,,,,,,,,,,,,,,,,,,,,,,,,,,,,,,,,,,,,,,,,,,,,,,,,,,,,,,,,,,,,,,,,,,,,,,,,,,,,,,,,,,,,,,,,,,,,,,,,,,,,,,,,,,,,,,,,,,,,,,,,,,,,,,,,,,,,,,,,,,,,,,,,,,,,,,,,,,,,,,,,,,,
0,34,34,38,1,,5b8e8feeee5b0500010f16d0,62c538b0e11c40b2f02aaeaf,2022-07-06_09h24.45.976,Colour_Asymmetry_Pilot,2022.1.3,Win32,59.56635692,62c50e9c1127f2cd403a315f,,,,,,,,,,,,,,,,,,,,,,,,,,,,,,,,,,,,,,,,,,,,,,,,,,,,,,,,,,,,,,,,,,,,,,,,,,,,,,,,,,,,,,,,,,,,,,,,,,,,,,,,,,,,,,,,,,,,,,,,,,,,,,,,,,,,,,,,,,,,,,,,,,,,,,,,,,,,,,,,,,,
0,35,35,58,1,,5b8e8feeee5b0500010f16d0,62c538b0e11c40b2f02aaeaf,2022-07-06_09h24.45.976,Colour_Asymmetry_Pilot,2022.1.3,Win32,59.56635692,62c50e9c1127f2cd403a315f,,,,,,,,,,,,,,,,,,,,,,,,,,,,,,,,,,,,,,,,,,,,,,,,,,,,,,,,,,,,,,,,,,,,,,,,,,,,,,,,,,,,,,,,,,,,,,,,,,,,,,,,,,,,,,,,,,,,,,,,,,,,,,,,,,,,,,,,,,,,,,,,,,,,,,,,,,,,,,,,,,,
0,36,36,89,1,,5b8e8feeee5b0500010f16d0,62c538b0e11c40b2f02aaeaf,2022-07-06_09h24.45.976,Colour_Asymmetry_Pilot,2022.1.3,Win32,59.56635692,62c50e9c1127f2cd403a315f,,,,,,,,,,,,,,,,,,,,,,,,,,,,,,,,,,,,,,,,,,,,,,,,,,,,,,,,,,,,,,,,,,,,,,,,,,,,,,,,,,,,,,,,,,,,,,,,,,,,,,,,,,,,,,,,,,,,,,,,,,,,,,,,,,,,,,,,,,,,,,,,,,,,,,,,,,,,,,,,,,,
0,37,37,44,1,,5b8e8feeee5b0500010f16d0,62c538b0e11c40b2f02aaeaf,2022-07-06_09h24.45.976,Colour_Asymmetry_Pilot,2022.1.3,Win32,59.56635692,62c50e9c1127f2cd403a315f,,,,,,,,,,,,,,,,,,,,,,,,,,,,,,,,,,,,,,,,,,,,,,,,,,,,,,,,,,,,,,,,,,,,,,,,,,,,,,,,,,,,,,,,,,,,,,,,,,,,,,,,,,,,,,,,,,,,,,,,,,,,,,,,,,,,,,,,,,,,,,,,,,,,,,,,,,,,,,,,,,,
0,38,38,73,1,,5b8e8feeee5b0500010f16d0,62c538b0e11c40b2f02aaeaf,2022-07-06_09h24.45.976,Colour_Asymmetry_Pilot,2022.1.3,Win32,59.56635692,62c50e9c1127f2cd403a315f,,,,,,,,,,,,,,,,,,,,,,,,,,,,,,,,,,,,,,,,,,,,,,,,,,,,,,,,,,,,,,,,,,,,,,,,,,,,,,,,,,,,,,,,,,,,,,,,,,,,,,,,,,,,,,,,,,,,,,,,,,,,,,,,,,,,,,,,,,,,,,,,,,,,,,,,,,,,,,,,,,,
0,39,39,71,1,,5b8e8feeee5b0500010f16d0,62c538b0e11c40b2f02aaeaf,2022-07-06_09h24.45.976,Colour_Asymmetry_Pilot,2022.1.3,Win32,59.56635692,62c50e9c1127f2cd403a315f,,,,,,,,,,,,,,,,,,,,,,,,,,,,,,,,,,,,,,,,,,,,,,,,,,,,,,,,,,,,,,,,,,,,,,,,,,,,,,,,,,,,,,,,,,,,,,,,,,,,,,,,,,,,,,,,,,,,,,,,,,,,,,,,,,,,,,,,,,,,,,,,,,,,,,,,,,,,,,,,,,,
0,40,40,16,1,,5b8e8feeee5b0500010f16d0,62c538b0e11c40b2f02aaeaf,2022-07-06_09h24.45.976,Colour_Asymmetry_Pilot,2022.1.3,Win32,59.56635692,62c50e9c1127f2cd403a315f,,,,,,,,,,,,,,,,,,,,,,,,,,,,,,,,,,,,,,,,,,,,,,,,,,,,,,,,,,,,,,,,,,,,,,,,,,,,,,,,,,,,,,,,,,,,,,,,,,,,,,,,,,,,,,,,,,,,,,,,,,,,,,,,,,,,,,,,,,,,,,,,,,,,,,,,,,,,,,,,,,,
0,41,41,31,1,,5b8e8feeee5b0500010f16d0,62c538b0e11c40b2f02aaeaf,2022-07-06_09h24.45.976,Colour_Asymmetry_Pilot,2022.1.3,Win32,59.56635692,62c50e9c1127f2cd403a315f,,,,,,,,,,,,,,,,,,,,,,,,,,,,,,,,,,,,,,,,,,,,,,,,,,,,,,,,,,,,,,,,,,,,,,,,,,,,,,,,,,,,,,,,,,,,,,,,,,,,,,,,,,,,,,,,,,,,,,,,,,,,,,,,,,,,,,,,,,,,,,,,,,,,,,,,,,,,,,,,,,,
0,42,42,59,1,,5b8e8feeee5b0500010f16d0,62c538b0e11c40b2f02aaeaf,2022-07-06_09h24.45.976,Colour_Asymmetry_Pilot,2022.1.3,Win32,59.56635692,62c50e9c1127f2cd403a315f,,,,,,,,,,,,,,,,,,,,,,,,,,,,,,,,,,,,,,,,,,,,,,,,,,,,,,,,,,,,,,,,,,,,,,,,,,,,,,,,,,,,,,,,,,,,,,,,,,,,,,,,,,,,,,,,,,,,,,,,,,,,,,,,,,,,,,,,,,,,,,,,,,,,,,,,,,,,,,,,,,,
0,43,43,26,1,,5b8e8feeee5b0500010f16d0,62c538b0e11c40b2f02aaeaf,2022-07-06_09h24.45.976,Colour_Asymmetry_Pilot,2022.1.3,Win32,59.56635692,62c50e9c1127f2cd403a315f,,,,,,,,,,,,,,,,,,,,,,,,,,,,,,,,,,,,,,,,,,,,,,,,,,,,,,,,,,,,,,,,,,,,,,,,,,,,,,,,,,,,,,,,,,,,,,,,,,,,,,,,,,,,,,,,,,,,,,,,,,,,,,,,,,,,,,,,,,,,,,,,,,,,,,,,,,,,,,,,,,,
0,44,44,49,1,,5b8e8feeee5b0500010f16d0,62c538b0e11c40b2f02aaeaf,2022-07-06_09h24.45.976,Colour_Asymmetry_Pilot,2022.1.3,Win32,59.56635692,62c50e9c1127f2cd403a315f,,,,,,,,,,,,,,,,,,,,,,,,,,,,,,,,,,,,,,,,,,,,,,,,,,,,,,,,,,,,,,,,,,,,,,,,,,,,,,,,,,,,,,,,,,,,,,,,,,,,,,,,,,,,,,,,,,,,,,,,,,,,,,,,,,,,,,,,,,,,,,,,,,,,,,,,,,,,,,,,,,,
0,45,45,86,1,,5b8e8feeee5b0500010f16d0,62c538b0e11c40b2f02aaeaf,2022-07-06_09h24.45.976,Colour_Asymmetry_Pilot,2022.1.3,Win32,59.56635692,62c50e9c1127f2cd403a315f,,,,,,,,,,,,,,,,,,,,,,,,,,,,,,,,,,,,,,,,,,,,,,,,,,,,,,,,,,,,,,,,,,,,,,,,,,,,,,,,,,,,,,,,,,,,,,,,,,,,,,,,,,,,,,,,,,,,,,,,,,,,,,,,,,,,,,,,,,,,,,,,,,,,,,,,,,,,,,,,,,,
0,46,46,78,1,,5b8e8feeee5b0500010f16d0,62c538b0e11c40b2f02aaeaf,2022-07-06_09h24.45.976,Colour_Asymmetry_Pilot,2022.1.3,Win32,59.56635692,62c50e9c1127f2cd403a315f,,,,,,,,,,,,,,,,,,,,,,,,,,,,,,,,,,,,,,,,,,,,,,,,,,,,,,,,,,,,,,,,,,,,,,,,,,,,,,,,,,,,,,,,,,,,,,,,,,,,,,,,,,,,,,,,,,,,,,,,,,,,,,,,,,,,,,,,,,,,,,,,,,,,,,,,,,,,,,,,,,,
0,47,47,61,1,,5b8e8feeee5b0500010f16d0,62c538b0e11c40b2f02aaeaf,2022-07-06_09h24.45.976,Colour_Asymmetry_Pilot,2022.1.3,Win32,59.56635692,62c50e9c1127f2cd403a315f,,,,,,,,,,,,,,,,,,,,,,,,,,,,,,,,,,,,,,,,,,,,,,,,,,,,,,,,,,,,,,,,,,,,,,,,,,,,,,,,,,,,,,,,,,,,,,,,,,,,,,,,,,,,,,,,,,,,,,,,,,,,,,,,,,,,,,,,,,,,,,,,,,,,,,,,,,,,,,,,,,,
0,48,48,28,1,,5b8e8feeee5b0500010f16d0,62c538b0e11c40b2f02aaeaf,2022-07-06_09h24.45.976,Colour_Asymmetry_Pilot,2022.1.3,Win32,59.56635692,62c50e9c1127f2cd403a315f,,,,,,,,,,,,,,,,,,,,,,,,,,,,,,,,,,,,,,,,,,,,,,,,,,,,,,,,,,,,,,,,,,,,,,,,,,,,,,,,,,,,,,,,,,,,,,,,,,,,,,,,,,,,,,,,,,,,,,,,,,,,,,,,,,,,,,,,,,,,,,,,,,,,,,,,,,,,,,,,,,,
0,49,49,32,1,,5b8e8feeee5b0500010f16d0,62c538b0e11c40b2f02aaeaf,2022-07-06_09h24.45.976,Colour_Asymmetry_Pilot,2022.1.3,Win32,59.56635692,62c50e9c1127f2cd403a315f,,,,,,,,,,,,,,,,,,,,,,,,,,,,,,,,,,,,,,,,,,,,,,,,,,,,,,,,,,,,,,,,,,,,,,,,,,,,,,,,,,,,,,,,,,,,,,,,,,,,,,,,,,,,,,,,,,,,,,,,,,,,,,,,,,,,,,,,,,,,,,,,,,,,,,,,,,,,,,,,,,,
0,50,50,66,1,,5b8e8feeee5b0500010f16d0,62c538b0e11c40b2f02aaeaf,2022-07-06_09h24.45.976,Colour_Asymmetry_Pilot,2022.1.3,Win32,59.56635692,62c50e9c1127f2cd403a315f,,,,,,,,,,,,,,,,,,,,,,,,,,,,,,,,,,,,,,,,,,,,,,,,,,,,,,,,,,,,,,,,,,,,,,,,,,,,,,,,,,,,,,,,,,,,,,,,,,,,,,,,,,,,,,,,,,,,,,,,,,,,,,,,,,,,,,,,,,,,,,,,,,,,,,,,,,,,,,,,,,,
0,51,51,13,1,,5b8e8feeee5b0500010f16d0,62c538b0e11c40b2f02aaeaf,2022-07-06_09h24.45.976,Colour_Asymmetry_Pilot,2022.1.3,Win32,59.56635692,62c50e9c1127f2cd403a315f,,,,,,,,,,,,,,,,,,,,,,,,,,,,,,,,,,,,,,,,,,,,,,,,,,,,,,,,,,,,,,,,,,,,,,,,,,,,,,,,,,,,,,,,,,,,,,,,,,,,,,,,,,,,,,,,,,,,,,,,,,,,,,,,,,,,,,,,,,,,,,,,,,,,,,,,,,,,,,,,,,,
0,52,52,40,1,,5b8e8feeee5b0500010f16d0,62c538b0e11c40b2f02aaeaf,2022-07-06_09h24.45.976,Colour_Asymmetry_Pilot,2022.1.3,Win32,59.56635692,62c50e9c1127f2cd403a315f,,,,,,,,,,,,,,,,,,,,,,,,,,,,,,,,,,,,,,,,,,,,,,,,,,,,,,,,,,,,,,,,,,,,,,,,,,,,,,,,,,,,,,,,,,,,,,,,,,,,,,,,,,,,,,,,,,,,,,,,,,,,,,,,,,,,,,,,,,,,,,,,,,,,,,,,,,,,,,,,,,,
0,53,53,54,1,,5b8e8feeee5b0500010f16d0,62c538b0e11c40b2f02aaeaf,2022-07-06_09h24.45.976,Colour_Asymmetry_Pilot,2022.1.3,Win32,59.56635692,62c50e9c1127f2cd403a315f,,,,,,,,,,,,,,,,,,,,,,,,,,,,,,,,,,,,,,,,,,,,,,,,,,,,,,,,,,,,,,,,,,,,,,,,,,,,,,,,,,,,,,,,,,,,,,,,,,,,,,,,,,,,,,,,,,,,,,,,,,,,,,,,,,,,,,,,,,,,,,,,,,,,,,,,,,,,,,,,,,,
0,54,54,50,1,,5b8e8feeee5b0500010f16d0,62c538b0e11c40b2f02aaeaf,2022-07-06_09h24.45.976,Colour_Asymmetry_Pilot,2022.1.3,Win32,59.56635692,62c50e9c1127f2cd403a315f,,,,,,,,,,,,,,,,,,,,,,,,,,,,,,,,,,,,,,,,,,,,,,,,,,,,,,,,,,,,,,,,,,,,,,,,,,,,,,,,,,,,,,,,,,,,,,,,,,,,,,,,,,,,,,,,,,,,,,,,,,,,,,,,,,,,,,,,,,,,,,,,,,,,,,,,,,,,,,,,,,,
0,55,55,51,1,,5b8e8feeee5b0500010f16d0,62c538b0e11c40b2f02aaeaf,2022-07-06_09h24.45.976,Colour_Asymmetry_Pilot,2022.1.3,Win32,59.56635692,62c50e9c1127f2cd403a315f,,,,,,,,,,,,,,,,,,,,,,,,,,,,,,,,,,,,,,,,,,,,,,,,,,,,,,,,,,,,,,,,,,,,,,,,,,,,,,,,,,,,,,,,,,,,,,,,,,,,,,,,,,,,,,,,,,,,,,,,,,,,,,,,,,,,,,,,,,,,,,,,,,,,,,,,,,,,,,,,,,,
0,56,56,24,1,,5b8e8feeee5b0500010f16d0,62c538b0e11c40b2f02aaeaf,2022-07-06_09h24.45.976,Colour_Asymmetry_Pilot,2022.1.3,Win32,59.56635692,62c50e9c1127f2cd403a315f,,,,,,,,,,,,,,,,,,,,,,,,,,,,,,,,,,,,,,,,,,,,,,,,,,,,,,,,,,,,,,,,,,,,,,,,,,,,,,,,,,,,,,,,,,,,,,,,,,,,,,,,,,,,,,,,,,,,,,,,,,,,,,,,,,,,,,,,,,,,,,,,,,,,,,,,,,,,,,,,,,,
0,57,57,80,1,,5b8e8feeee5b0500010f16d0,62c538b0e11c40b2f02aaeaf,2022-07-06_09h24.45.976,Colour_Asymmetry_Pilot,2022.1.3,Win32,59.56635692,62c50e9c1127f2cd403a315f,,,,,,,,,,,,,,,,,,,,,,,,,,,,,,,,,,,,,,,,,,,,,,,,,,,,,,,,,,,,,,,,,,,,,,,,,,,,,,,,,,,,,,,,,,,,,,,,,,,,,,,,,,,,,,,,,,,,,,,,,,,,,,,,,,,,,,,,,,,,,,,,,,,,,,,,,,,,,,,,,,,
0,58,58,85,1,,5b8e8feeee5b0500010f16d0,62c538b0e11c40b2f02aaeaf,2022-07-06_09h24.45.976,Colour_Asymmetry_Pilot,2022.1.3,Win32,59.56635692,62c50e9c1127f2cd403a315f,,,,,,,,,,,,,,,,,,,,,,,,,,,,,,,,,,,,,,,,,,,,,,,,,,,,,,,,,,,,,,,,,,,,,,,,,,,,,,,,,,,,,,,,,,,,,,,,,,,,,,,,,,,,,,,,,,,,,,,,,,,,,,,,,,,,,,,,,,,,,,,,,,,,,,,,,,,,,,,,,,,
0,59,59,36,1,,5b8e8feeee5b0500010f16d0,62c538b0e11c40b2f02aaeaf,2022-07-06_09h24.45.976,Colour_Asymmetry_Pilot,2022.1.3,Win32,59.56635692,62c50e9c1127f2cd403a315f,,,,,,,,,,,,,,,,,,,,,,,,,,,,,,,,,,,,,,,,,,,,,,,,,,,,,,,,,,,,,,,,,,,,,,,,,,,,,,,,,,,,,,,,,,,,,,,,,,,,,,,,,,,,,,,,,,,,,,,,,,,,,,,,,,,,,,,,,,,,,,,,,,,,,,,,,,,,,,,,,,,
0,60,60,14,1,,5b8e8feeee5b0500010f16d0,62c538b0e11c40b2f02aaeaf,2022-07-06_09h24.45.976,Colour_Asymmetry_Pilot,2022.1.3,Win32,59.56635692,62c50e9c1127f2cd403a315f,,,,,,,,,,,,,,,,,,,,,,,,,,,,,,,,,,,,,,,,,,,,,,,,,,,,,,,,,,,,,,,,,,,,,,,,,,,,,,,,,,,,,,,,,,,,,,,,,,,,,,,,,,,,,,,,,,,,,,,,,,,,,,,,,,,,,,,,,,,,,,,,,,,,,,,,,,,,,,,,,,,
0,61,61,81,1,,5b8e8feeee5b0500010f16d0,62c538b0e11c40b2f02aaeaf,2022-07-06_09h24.45.976,Colour_Asymmetry_Pilot,2022.1.3,Win32,59.56635692,62c50e9c1127f2cd403a315f,,,,,,,,,,,,,,,,,,,,,,,,,,,,,,,,,,,,,,,,,,,,,,,,,,,,,,,,,,,,,,,,,,,,,,,,,,,,,,,,,,,,,,,,,,,,,,,,,,,,,,,,,,,,,,,,,,,,,,,,,,,,,,,,,,,,,,,,,,,,,,,,,,,,,,,,,,,,,,,,,,,
0,62,62,52,1,,5b8e8feeee5b0500010f16d0,62c538b0e11c40b2f02aaeaf,2022-07-06_09h24.45.976,Colour_Asymmetry_Pilot,2022.1.3,Win32,59.56635692,62c50e9c1127f2cd403a315f,,,,,,,,,,,,,,,,,,,,,,,,,,,,,,,,,,,,,,,,,,,,,,,,,,,,,,,,,,,,,,,,,,,,,,,,,,,,,,,,,,,,,,,,,,,,,,,,,,,,,,,,,,,,,,,,,,,,,,,,,,,,,,,,,,,,,,,,,,,,,,,,,,,,,,,,,,,,,,,,,,,
0,63,63,22,1,,5b8e8feeee5b0500010f16d0,62c538b0e11c40b2f02aaeaf,2022-07-06_09h24.45.976,Colour_Asymmetry_Pilot,2022.1.3,Win32,59.56635692,62c50e9c1127f2cd403a315f,,,,,,,,,,,,,,,,,,,,,,,,,,,,,,,,,,,,,,,,,,,,,,,,,,,,,,,,,,,,,,,,,,,,,,,,,,,,,,,,,,,,,,,,,,,,,,,,,,,,,,,,,,,,,,,,,,,,,,,,,,,,,,,,,,,,,,,,,,,,,,,,,,,,,,,,,,,,,,,,,,,
0,64,64,41,1,,5b8e8feeee5b0500010f16d0,62c538b0e11c40b2f02aaeaf,2022-07-06_09h24.45.976,Colour_Asymmetry_Pilot,2022.1.3,Win32,59.56635692,62c50e9c1127f2cd403a315f,,,,,,,,,,,,,,,,,,,,,,,,,,,,,,,,,,,,,,,,,,,,,,,,,,,,,,,,,,,,,,,,,,,,,,,,,,,,,,,,,,,,,,,,,,,,,,,,,,,,,,,,,,,,,,,,,,,,,,,,,,,,,,,,,,,,,,,,,,,,,,,,,,,,,,,,,,,,,,,,,,,
0,65,65,12,1,,5b8e8feeee5b0500010f16d0,62c538b0e11c40b2f02aaeaf,2022-07-06_09h24.45.976,Colour_Asymmetry_Pilot,2022.1.3,Win32,59.56635692,62c50e9c1127f2cd403a315f,,,,,,,,,,,,,,,,,,,,,,,,,,,,,,,,,,,,,,,,,,,,,,,,,,,,,,,,,,,,,,,,,,,,,,,,,,,,,,,,,,,,,,,,,,,,,,,,,,,,,,,,,,,,,,,,,,,,,,,,,,,,,,,,,,,,,,,,,,,,,,,,,,,,,,,,,,,,,,,,,,,
0,66,66,18,1,,5b8e8feeee5b0500010f16d0,62c538b0e11c40b2f02aaeaf,2022-07-06_09h24.45.976,Colour_Asymmetry_Pilot,2022.1.3,Win32,59.56635692,62c50e9c1127f2cd403a315f,,,,,,,,,,,,,,,,,,,,,,,,,,,,,,,,,,,,,,,,,,,,,,,,,,,,,,,,,,,,,,,,,,,,,,,,,,,,,,,,,,,,,,,,,,,,,,,,,,,,,,,,,,,,,,,,,,,,,,,,,,,,,,,,,,,,,,,,,,,,,,,,,,,,,,,,,,,,,,,,,,,
0,67,67,11,1,,5b8e8feeee5b0500010f16d0,62c538b0e11c40b2f02aaeaf,2022-07-06_09h24.45.976,Colour_Asymmetry_Pilot,2022.1.3,Win32,59.56635692,62c50e9c1127f2cd403a315f,,,,,,,,,,,,,,,,,,,,,,,,,,,,,,,,,,,,,,,,,,,,,,,,,,,,,,,,,,,,,,,,,,,,,,,,,,,,,,,,,,,,,,,,,,,,,,,,,,,,,,,,,,,,,,,,,,,,,,,,,,,,,,,,,,,,,,,,,,,,,,,,,,,,,,,,,,,,,,,,,,,
0,68,68,90,1,,5b8e8feeee5b0500010f16d0,62c538b0e11c40b2f02aaeaf,2022-07-06_09h24.45.976,Colour_Asymmetry_Pilot,2022.1.3,Win32,59.56635692,62c50e9c1127f2cd403a315f,,,,,,,,,,,,,,,,,,,,,,,,,,,,,,,,,,,,,,,,,,,,,,,,,,,,,,,,,,,,,,,,,,,,,,,,,,,,,,,,,,,,,,,,,,,,,,,,,,,,,,,,,,,,,,,,,,,,,,,,,,,,,,,,,,,,,,,,,,,,,,,,,,,,,,,,,,,,,,,,,,,
0,69,69,56,1,,5b8e8feeee5b0500010f16d0,62c538b0e11c40b2f02aaeaf,2022-07-06_09h24.45.976,Colour_Asymmetry_Pilot,2022.1.3,Win32,59.56635692,62c50e9c1127f2cd403a315f,,,,,,,,,,,,,,,,,,,,,,,,,,,,,,,,,,,,,,,,,,,,,,,,,,,,,,,,,,,,,,,,,,,,,,,,,,,,,,,,,,,,,,,,,,,,,,,,,,,,,,,,,,,,,,,,,,,,,,,,,,,,,,,,,,,,,,,,,,,,,,,,,,,,,,,,,,,,,,,,,,,
0,70,70,15,1,,5b8e8feeee5b0500010f16d0,62c538b0e11c40b2f02aaeaf,2022-07-06_09h24.45.976,Colour_Asymmetry_Pilot,2022.1.3,Win32,59.56635692,62c50e9c1127f2cd403a315f,,,,,,,,,,,,,,,,,,,,,,,,,,,,,,,,,,,,,,,,,,,,,,,,,,,,,,,,,,,,,,,,,,,,,,,,,,,,,,,,,,,,,,,,,,,,,,,,,,,,,,,,,,,,,,,,,,,,,,,,,,,,,,,,,,,,,,,,,,,,,,,,,,,,,,,,,,,,,,,,,,,
0,71,71,55,1,,5b8e8feeee5b0500010f16d0,62c538b0e11c40b2f02aaeaf,2022-07-06_09h24.45.976,Colour_Asymmetry_Pilot,2022.1.3,Win32,59.56635692,62c50e9c1127f2cd403a315f,,,,,,,,,,,,,,,,,,,,,,,,,,,,,,,,,,,,,,,,,,,,,,,,,,,,,,,,,,,,,,,,,,,,,,,,,,,,,,,,,,,,,,,,,,,,,,,,,,,,,,,,,,,,,,,,,,,,,,,,,,,,,,,,,,,,,,,,,,,,,,,,,,,,,,,,,,,,,,,,,,,
0,72,72,34,1,,5b8e8feeee5b0500010f16d0,62c538b0e11c40b2f02aaeaf,2022-07-06_09h24.45.976,Colour_Asymmetry_Pilot,2022.1.3,Win32,59.56635692,62c50e9c1127f2cd403a315f,,,,,,,,,,,,,,,,,,,,,,,,,,,,,,,,,,,,,,,,,,,,,,,,,,,,,,,,,,,,,,,,,,,,,,,,,,,,,,,,,,,,,,,,,,,,,,,,,,,,,,,,,,,,,,,,,,,,,,,,,,,,,,,,,,,,,,,,,,,,,,,,,,,,,,,,,,,,,,,,,,,
0,73,73,2,1,,5b8e8feeee5b0500010f16d0,62c538b0e11c40b2f02aaeaf,2022-07-06_09h24.45.976,Colour_Asymmetry_Pilot,2022.1.3,Win32,59.56635692,62c50e9c1127f2cd403a315f,,,,,,,,,,,,,,,,,,,,,,,,,,,,,,,,,,,,,,,,,,,,,,,,,,,,,,,,,,,,,,,,,,,,,,,,,,,,,,,,,,,,,,,,,,,,,,,,,,,,,,,,,,,,,,,,,,,,,,,,,,,,,,,,,,,,,,,,,,,,,,,,,,,,,,,,,,,,,,,,,,,
0,74,74,46,1,,5b8e8feeee5b0500010f16d0,62c538b0e11c40b2f02aaeaf,2022-07-06_09h24.45.976,Colour_Asymmetry_Pilot,2022.1.3,Win32,59.56635692,62c50e9c1127f2cd403a315f,,,,,,,,,,,,,,,,,,,,,,,,,,,,,,,,,,,,,,,,,,,,,,,,,,,,,,,,,,,,,,,,,,,,,,,,,,,,,,,,,,,,,,,,,,,,,,,,,,,,,,,,,,,,,,,,,,,,,,,,,,,,,,,,,,,,,,,,,,,,,,,,,,,,,,,,,,,,,,,,,,,
0,75,75,67,1,,5b8e8feeee5b0500010f16d0,62c538b0e11c40b2f02aaeaf,2022-07-06_09h24.45.976,Colour_Asymmetry_Pilot,2022.1.3,Win32,59.56635692,62c50e9c1127f2cd403a315f,,,,,,,,,,,,,,,,,,,,,,,,,,,,,,,,,,,,,,,,,,,,,,,,,,,,,,,,,,,,,,,,,,,,,,,,,,,,,,,,,,,,,,,,,,,,,,,,,,,,,,,,,,,,,,,,,,,,,,,,,,,,,,,,,,,,,,,,,,,,,,,,,,,,,,,,,,,,,,,,,,,
0,76,76,21,1,,5b8e8feeee5b0500010f16d0,62c538b0e11c40b2f02aaeaf,2022-07-06_09h24.45.976,Colour_Asymmetry_Pilot,2022.1.3,Win32,59.56635692,62c50e9c1127f2cd403a315f,,,,,,,,,,,,,,,,,,,,,,,,,,,,,,,,,,,,,,,,,,,,,,,,,,,,,,,,,,,,,,,,,,,,,,,,,,,,,,,,,,,,,,,,,,,,,,,,,,,,,,,,,,,,,,,,,,,,,,,,,,,,,,,,,,,,,,,,,,,,,,,,,,,,,,,,,,,,,,,,,,,
0,77,77,65,1,,5b8e8feeee5b0500010f16d0,62c538b0e11c40b2f02aaeaf,2022-07-06_09h24.45.976,Colour_Asymmetry_Pilot,2022.1.3,Win32,59.56635692,62c50e9c1127f2cd403a315f,,,,,,,,,,,,,,,,,,,,,,,,,,,,,,,,,,,,,,,,,,,,,,,,,,,,,,,,,,,,,,,,,,,,,,,,,,,,,,,,,,,,,,,,,,,,,,,,,,,,,,,,,,,,,,,,,,,,,,,,,,,,,,,,,,,,,,,,,,,,,,,,,,,,,,,,,,,,,,,,,,,
0,78,78,8,1,,5b8e8feeee5b0500010f16d0,62c538b0e11c40b2f02aaeaf,2022-07-06_09h24.45.976,Colour_Asymmetry_Pilot,2022.1.3,Win32,59.56635692,62c50e9c1127f2cd403a315f,,,,,,,,,,,,,,,,,,,,,,,,,,,,,,,,,,,,,,,,,,,,,,,,,,,,,,,,,,,,,,,,,,,,,,,,,,,,,,,,,,,,,,,,,,,,,,,,,,,,,,,,,,,,,,,,,,,,,,,,,,,,,,,,,,,,,,,,,,,,,,,,,,,,,,,,,,,,,,,,,,,
0,79,79,23,1,,5b8e8feeee5b0500010f16d0,62c538b0e11c40b2f02aaeaf,2022-07-06_09h24.45.976,Colour_Asymmetry_Pilot,2022.1.3,Win32,59.56635692,62c50e9c1127f2cd403a315f,,,,,,,,,,,,,,,,,,,,,,,,,,,,,,,,,,,,,,,,,,,,,,,,,,,,,,,,,,,,,,,,,,,,,,,,,,,,,,,,,,,,,,,,,,,,,,,,,,,,,,,,,,,,,,,,,,,,,,,,,,,,,,,,,,,,,,,,,,,,,,,,,,,,,,,,,,,,,,,,,,,
0,80,80,0,1,,5b8e8feeee5b0500010f16d0,62c538b0e11c40b2f02aaeaf,2022-07-06_09h24.45.976,Colour_Asymmetry_Pilot,2022.1.3,Win32,59.56635692,62c50e9c1127f2cd403a315f,,,,,,,,,,,,,,,,,,,,,,,,,,,,,,,,,,,,,,,,,,,,,,,,,,,,,,,,,,,,,,,,,,,,,,,,,,,,,,,,,,,,,,,,,,,,,,,,,,,,,,,,,,,,,,,,,,,,,,,,,,,,,,,,,,,,,,,,,,,,,,,,,,,,,,,,,,,,,,,,,,,
0,81,81,5,1,,5b8e8feeee5b0500010f16d0,62c538b0e11c40b2f02aaeaf,2022-07-06_09h24.45.976,Colour_Asymmetry_Pilot,2022.1.3,Win32,59.56635692,62c50e9c1127f2cd403a315f,,,,,,,,,,,,,,,,,,,,,,,,,,,,,,,,,,,,,,,,,,,,,,,,,,,,,,,,,,,,,,,,,,,,,,,,,,,,,,,,,,,,,,,,,,,,,,,,,,,,,,,,,,,,,,,,,,,,,,,,,,,,,,,,,,,,,,,,,,,,,,,,,,,,,,,,,,,,,,,,,,,
0,82,82,82,1,,5b8e8feeee5b0500010f16d0,62c538b0e11c40b2f02aaeaf,2022-07-06_09h24.45.976,Colour_Asymmetry_Pilot,2022.1.3,Win32,59.56635692,62c50e9c1127f2cd403a315f,,,,,,,,,,,,,,,,,,,,,,,,,,,,,,,,,,,,,,,,,,,,,,,,,,,,,,,,,,,,,,,,,,,,,,,,,,,,,,,,,,,,,,,,,,,,,,,,,,,,,,,,,,,,,,,,,,,,,,,,,,,,,,,,,,,,,,,,,,,,,,,,,,,,,,,,,,,,,,,,,,,
0,83,83,30,1,,5b8e8feeee5b0500010f16d0,62c538b0e11c40b2f02aaeaf,2022-07-06_09h24.45.976,Colour_Asymmetry_Pilot,2022.1.3,Win32,59.56635692,62c50e9c1127f2cd403a315f,,,,,,,,,,,,,,,,,,,,,,,,,,,,,,,,,,,,,,,,,,,,,,,,,,,,,,,,,,,,,,,,,,,,,,,,,,,,,,,,,,,,,,,,,,,,,,,,,,,,,,,,,,,,,,,,,,,,,,,,,,,,,,,,,,,,,,,,,,,,,,,,,,,,,,,,,,,,,,,,,,,
0,84,84,68,1,,5b8e8feeee5b0500010f16d0,62c538b0e11c40b2f02aaeaf,2022-07-06_09h24.45.976,Colour_Asymmetry_Pilot,2022.1.3,Win32,59.56635692,62c50e9c1127f2cd403a315f,,,,,,,,,,,,,,,,,,,,,,,,,,,,,,,,,,,,,,,,,,,,,,,,,,,,,,,,,,,,,,,,,,,,,,,,,,,,,,,,,,,,,,,,,,,,,,,,,,,,,,,,,,,,,,,,,,,,,,,,,,,,,,,,,,,,,,,,,,,,,,,,,,,,,,,,,,,,,,,,,,,
0,85,85,74,1,,5b8e8feeee5b0500010f16d0,62c538b0e11c40b2f02aaeaf,2022-07-06_09h24.45.976,Colour_Asymmetry_Pilot,2022.1.3,Win32,59.56635692,62c50e9c1127f2cd403a315f,,,,,,,,,,,,,,,,,,,,,,,,,,,,,,,,,,,,,,,,,,,,,,,,,,,,,,,,,,,,,,,,,,,,,,,,,,,,,,,,,,,,,,,,,,,,,,,,,,,,,,,,,,,,,,,,,,,,,,,,,,,,,,,,,,,,,,,,,,,,,,,,,,,,,,,,,,,,,,,,,,,
0,86,86,91,1,,5b8e8feeee5b0500010f16d0,62c538b0e11c40b2f02aaeaf,2022-07-06_09h24.45.976,Colour_Asymmetry_Pilot,2022.1.3,Win32,59.56635692,62c50e9c1127f2cd403a315f,,,,,,,,,,,,,,,,,,,,,,,,,,,,,,,,,,,,,,,,,,,,,,,,,,,,,,,,,,,,,,,,,,,,,,,,,,,,,,,,,,,,,,,,,,,,,,,,,,,,,,,,,,,,,,,,,,,,,,,,,,,,,,,,,,,,,,,,,,,,,,,,,,,,,,,,,,,,,,,,,,,
0,87,87,47,1,,5b8e8feeee5b0500010f16d0,62c538b0e11c40b2f02aaeaf,2022-07-06_09h24.45.976,Colour_Asymmetry_Pilot,2022.1.3,Win32,59.56635692,62c50e9c1127f2cd403a315f,,,,,,,,,,,,,,,,,,,,,,,,,,,,,,,,,,,,,,,,,,,,,,,,,,,,,,,,,,,,,,,,,,,,,,,,,,,,,,,,,,,,,,,,,,,,,,,,,,,,,,,,,,,,,,,,,,,,,,,,,,,,,,,,,,,,,,,,,,,,,,,,,,,,,,,,,,,,,,,,,,,
0,88,88,63,1,,5b8e8feeee5b0500010f16d0,62c538b0e11c40b2f02aaeaf,2022-07-06_09h24.45.976,Colour_Asymmetry_Pilot,2022.1.3,Win32,59.56635692,62c50e9c1127f2cd403a315f,,,,,,,,,,,,,,,,,,,,,,,,,,,,,,,,,,,,,,,,,,,,,,,,,,,,,,,,,,,,,,,,,,,,,,,,,,,,,,,,,,,,,,,,,,,,,,,,,,,,,,,,,,,,,,,,,,,,,,,,,,,,,,,,,,,,,,,,,,,,,,,,,,,,,,,,,,,,,,,,,,,
0,89,89,79,1,,5b8e8feeee5b0500010f16d0,62c538b0e11c40b2f02aaeaf,2022-07-06_09h24.45.976,Colour_Asymmetry_Pilot,2022.1.3,Win32,59.56635692,62c50e9c1127f2cd403a315f,,,,,,,,,,,,,,,,,,,,,,,,,,,,,,,,,,,,,,,,,,,,,,,,,,,,,,,,,,,,,,,,,,,,,,,,,,,,,,,,,,,,,,,,,,,,,,,,,,,,,,,,,,,,,,,,,,,,,,,,,,,,,,,,,,,,,,,,,,,,,,,,,,,,,,,,,,,,,,,,,,,
0,90,90,27,1,,5b8e8feeee5b0500010f16d0,62c538b0e11c40b2f02aaeaf,2022-07-06_09h24.45.976,Colour_Asymmetry_Pilot,2022.1.3,Win32,59.56635692,62c50e9c1127f2cd403a315f,,,,,,,,,,,,,,,,,,,,,,,,,,,,,,,,,,,,,,,,,,,,,,,,,,,,,,,,,,,,,,,,,,,,,,,,,,,,,,,,,,,,,,,,,,,,,,,,,,,,,,,,,,,,,,,,,,,,,,,,,,,,,,,,,,,,,,,,,,,,,,,,,,,,,,,,,,,,,,,,,,,
0,91,91,76,1,,5b8e8feeee5b0500010f16d0,62c538b0e11c40b2f02aaeaf,2022-07-06_09h24.45.976,Colour_Asymmetry_Pilot,2022.1.3,Win32,59.56635692,62c50e9c1127f2cd403a315f,,,,,,,,,,,,,,,,,,,,,,,,,,,,,,,,,,,,,,,,,,,,,,,,,,,,,,,,,,,,,,,,,,,,,,,,,,,,,,,,,,,,,,,,,,,,,,,,,,,,,,,,,,,,,,,,,,,,,,,,,,,,,,,,,,,,,,,,,,,,,,,,,,,,,,,,,,,,,,,,,,,
0,92,92,84,1,,5b8e8feeee5b0500010f16d0,62c538b0e11c40b2f02aaeaf,2022-07-06_09h24.45.976,Colour_Asymmetry_Pilot,2022.1.3,Win32,59.56635692,62c50e9c1127f2cd403a315f,,,,,,,,,,,,,,,,,,,,,,,,,,,,,,,,,,,,,,,,,,,,,,,,,,,,,,,,,,,,,,,,,,,,,,,,,,,,,,,,,,,,,,,,,,,,,,,,,,,,,,,,,,,,,,,,,,,,,,,,,,,,,,,,,,,,,,,,,,,,,,,,,,,,,,,,,,,,,,,,,,,
,,,,,,5b8e8feeee5b0500010f16d0,62c538b0e11c40b2f02aaeaf,2022-07-06_09h24.45.976,Colour_Asymmetry_Pilot,2022.1.3,Win32,59.56635692,62c50e9c1127f2cd403a315f,0,0,0,58,1,twoone,,,,,,,,,,,,,,,,,,,,,,,,,,,,,,,,,,,,,,,,,,,,,,,,,,,,,,,,,,,,,,,,,,,,,,,,,,,,,,,,,,,,,,,,,,,,,,,,,,,,,,,,,,,,,,,,,,,,,,,,,,,,,,,,,,,,,,,,,,,,,,,,,,,,,,,,,,,,,
,,,,,,5b8e8feeee5b0500010f16d0,62c538b0e11c40b2f02aaeaf,2022-07-06_09h24.45.976,Colour_Asymmetry_Pilot,2022.1.3,Win32,59.56635692,62c50e9c1127f2cd403a315f,0,1,1,117,1,threefour,,,,,,,,,,,,,,,,,,,,,,,,,,,,,,,,,,,,,,,,,,,,,,,,,,,,,,,,,,,,,,,,,,,,,,,,,,,,,,,,,,,,,,,,,,,,,,,,,,,,,,,,,,,,,,,,,,,,,,,,,,,,,,,,,,,,,,,,,,,,,,,,,,,,,,,,,,,,,
,,,,,,5b8e8feeee5b0500010f16d0,62c538b0e11c40b2f02aaeaf,2022-07-06_09h24.45.976,Colour_Asymmetry_Pilot,2022.1.3,Win32,59.56635692,62c50e9c1127f2cd403a315f,0,2,2,42,1,twoone,,,,,,,,,,,,,,,,,,,,,,,,,,,,,,,,,,,,,,,,,,,,,,,,,,,,,,,,,,,,,,,,,,,,,,,,,,,,,,,,,,,,,,,,,,,,,,,,,,,,,,,,,,,,,,,,,,,,,,,,,,,,,,,,,,,,,,,,,,,,,,,,,,,,,,,,,,,,,
,,,,,,5b8e8feeee5b0500010f16d0,62c538b0e11c40b2f02aaeaf,2022-07-06_09h24.45.976,Colour_Asymmetry_Pilot,2022.1.3,Win32,59.56635692,62c50e9c1127f2cd403a315f,0,3,3,24,1,onetwo,,,,,,,,,,,,,,,,,,,,,,,,,,,,,,,,,,,,,,,,,,,,,,,,,,,,,,,,,,,,,,,,,,,,,,,,,,,,,,,,,,,,,,,,,,,,,,,,,,,,,,,,,,,,,,,,,,,,,,,,,,,,,,,,,,,,,,,,,,,,,,,,,,,,,,,,,,,,,
,,,,,,5b8e8feeee5b0500010f16d0,62c538b0e11c40b2f02aaeaf,2022-07-06_09h24.45.976,Colour_Asymmetry_Pilot,2022.1.3,Win32,59.56635692,62c50e9c1127f2cd403a315f,0,4,4,44,1,threeone,,,,,,,,,,,,,,,,,,,,,,,,,,,,,,,,,,,,,,,,,,,,,,,,,,,,,,,,,,,,,,,,,,,,,,,,,,,,,,,,,,,,,,,,,,,,,,,,,,,,,,,,,,,,,,,,,,,,,,,,,,,,,,,,,,,,,,,,,,,,,,,,,,,,,,,,,,,,,
,,,,,,5b8e8feeee5b0500010f16d0,62c538b0e11c40b2f02aaeaf,2022-07-06_09h24.45.976,Colour_Asymmetry_Pilot,2022.1.3,Win32,59.56635692,62c50e9c1127f2cd403a315f,0,5,5,96,1,onetwo,,,,,,,,,,,,,,,,,,,,,,,,,,,,,,,,,,,,,,,,,,,,,,,,,,,,,,,,,,,,,,,,,,,,,,,,,,,,,,,,,,,,,,,,,,,,,,,,,,,,,,,,,,,,,,,,,,,,,,,,,,,,,,,,,,,,,,,,,,,,,,,,,,,,,,,,,,,,,
,,,,,,5b8e8feeee5b0500010f16d0,62c538b0e11c40b2f02aaeaf,2022-07-06_09h24.45.976,Colour_Asymmetry_Pilot,2022.1.3,Win32,59.56635692,62c50e9c1127f2cd403a315f,0,6,6,1,1,onethree,,,,,,,,,,,,,,,,,,,,,,,,,,,,,,,,,,,,,,,,,,,,,,,,,,,,,,,,,,,,,,,,,,,,,,,,,,,,,,,,,,,,,,,,,,,,,,,,,,,,,,,,,,,,,,,,,,,,,,,,,,,,,,,,,,,,,,,,,,,,,,,,,,,,,,,,,,,,,
,,,,,,5b8e8feeee5b0500010f16d0,62c538b0e11c40b2f02aaeaf,2022-07-06_09h24.45.976,Colour_Asymmetry_Pilot,2022.1.3,Win32,59.56635692,62c50e9c1127f2cd403a315f,0,7,7,30,1,fourtwo,,,,,,,,,,,,,,,,,,,,,,,,,,,,,,,,,,,,,,,,,,,,,,,,,,,,,,,,,,,,,,,,,,,,,,,,,,,,,,,,,,,,,,,,,,,,,,,,,,,,,,,,,,,,,,,,,,,,,,,,,,,,,,,,,,,,,,,,,,,,,,,,,,,,,,,,,,,,,
,,,,,,5b8e8feeee5b0500010f16d0,62c538b0e11c40b2f02aaeaf,2022-07-06_09h24.45.976,Colour_Asymmetry_Pilot,2022.1.3,Win32,59.56635692,62c50e9c1127f2cd403a315f,0,8,8,92,1,threeone,,,,,,,,,,,,,,,,,,,,,,,,,,,,,,,,,,,,,,,,,,,,,,,,,,,,,,,,,,,,,,,,,,,,,,,,,,,,,,,,,,,,,,,,,,,,,,,,,,,,,,,,,,,,,,,,,,,,,,,,,,,,,,,,,,,,,,,,,,,,,,,,,,,,,,,,,,,,,
,,,,,,5b8e8feeee5b0500010f16d0,62c538b0e11c40b2f02aaeaf,2022-07-06_09h24.45.976,Colour_Asymmetry_Pilot,2022.1.3,Win32,59.56635692,62c50e9c1127f2cd403a315f,0,9,9,0,1,onetwo,,,,,,,,,,,,,,,,,,,,,,,,,,,,,,,,,,,,,,,,,,,,,,,,,,,,,,,,,,,,,,,,,,,,,,,,,,,,,,,,,,,,,,,,,,,,,,,,,,,,,,,,,,,,,,,,,,,,,,,,,,,,,,,,,,,,,,,,,,,,,,,,,,,,,,,,,,,,,
,,,,,,5b8e8feeee5b0500010f16d0,62c538b0e11c40b2f02aaeaf,2022-07-06_09h24.45.976,Colour_Asymmetry_Pilot,2022.1.3,Win32,59.56635692,62c50e9c1127f2cd403a315f,0,10,10,62,1,fourtwo,,,,,,,,,,,,,,,,,,,,,,,,,,,,,,,,,,,,,,,,,,,,,,,,,,,,,,,,,,,,,,,,,,,,,,,,,,,,,,,,,,,,,,,,,,,,,,,,,,,,,,,,,,,,,,,,,,,,,,,,,,,,,,,,,,,,,,,,,,,,,,,,,,,,,,,,,,,,,
,,,,,,5b8e8feeee5b0500010f16d0,62c538b0e11c40b2f02aaeaf,2022-07-06_09h24.45.976,Colour_Asymmetry_Pilot,2022.1.3,Win32,59.56635692,62c50e9c1127f2cd403a315f,0,11,11,109,1,threefour,,,,,,,,,,,,,,,,,,,,,,,,,,,,,,,,,,,,,,,,,,,,,,,,,,,,,,,,,,,,,,,,,,,,,,,,,,,,,,,,,,,,,,,,,,,,,,,,,,,,,,,,,,,,,,,,,,,,,,,,,,,,,,,,,,,,,,,,,,,,,,,,,,,,,,,,,,,,,
,,,,,,5b8e8feeee5b0500010f16d0,62c538b0e11c40b2f02aaeaf,2022-07-06_09h24.45.976,Colour_Asymmetry_Pilot,2022.1.3,Win32,59.56635692,62c50e9c1127f2cd403a315f,0,12,12,11,1,twofour,,,,,,,,,,,,,,,,,,,,,,,,,,,,,,,,,,,,,,,,,,,,,,,,,,,,,,,,,,,,,,,,,,,,,,,,,,,,,,,,,,,,,,,,,,,,,,,,,,,,,,,,,,,,,,,,,,,,,,,,,,,,,,,,,,,,,,,,,,,,,,,,,,,,,,,,,,,,,
,,,,,,5b8e8feeee5b0500010f16d0,62c538b0e11c40b2f02aaeaf,2022-07-06_09h24.45.976,Colour_Asymmetry_Pilot,2022.1.3,Win32,59.56635692,62c50e9c1127f2cd403a315f,0,13,13,149,1,threefour,,,,,,,,,,,,,,,,,,,,,,,,,,,,,,,,,,,,,,,,,,,,,,,,,,,,,,,,,,,,,,,,,,,,,,,,,,,,,,,,,,,,,,,,,,,,,,,,,,,,,,,,,,,,,,,,,,,,,,,,,,,,,,,,,,,,,,,,,,,,,,,,,,,,,,,,,,,,,
,,,,,,5b8e8feeee5b0500010f16d0,62c538b0e11c40b2f02aaeaf,2022-07-06_09h24.45.976,Colour_Asymmetry_Pilot,2022.1.3,Win32,59.56635692,62c50e9c1127f2cd403a315f,0,14,14,94,1,fourtwo,,,,,,,,,,,,,,,,,,,,,,,,,,,,,,,,,,,,,,,,,,,,,,,,,,,,,,,,,,,,,,,,,,,,,,,,,,,,,,,,,,,,,,,,,,,,,,,,,,,,,,,,,,,,,,,,,,,,,,,,,,,,,,,,,,,,,,,,,,,,,,,,,,,,,,,,,,,,,
,,,,,,5b8e8feeee5b0500010f16d0,62c538b0e11c40b2f02aaeaf,2022-07-06_09h24.45.976,Colour_Asymmetry_Pilot,2022.1.3,Win32,59.56635692,62c50e9c1127f2cd403a315f,0,15,15,153,1,onethree,,,,,,,,,,,,,,,,,,,,,,,,,,,,,,,,,,,,,,,,,,,,,,,,,,,,,,,,,,,,,,,,,,,,,,,,,,,,,,,,,,,,,,,,,,,,,,,,,,,,,,,,,,,,,,,,,,,,,,,,,,,,,,,,,,,,,,,,,,,,,,,,,,,,,,,,,,,,,
,,,,,,5b8e8feeee5b0500010f16d0,62c538b0e11c40b2f02aaeaf,2022-07-06_09h24.45.976,Colour_Asymmetry_Pilot,2022.1.3,Win32,59.56635692,62c50e9c1127f2cd403a315f,0,16,16,43,1,twofour,,,,,,,,,,,,,,,,,,,,,,,,,,,,,,,,,,,,,,,,,,,,,,,,,,,,,,,,,,,,,,,,,,,,,,,,,,,,,,,,,,,,,,,,,,,,,,,,,,,,,,,,,,,,,,,,,,,,,,,,,,,,,,,,,,,,,,,,,,,,,,,,,,,,,,,,,,,,,
,,,,,,5b8e8feeee5b0500010f16d0,62c538b0e11c40b2f02aaeaf,2022-07-06_09h24.45.976,Colour_Asymmetry_Pilot,2022.1.3,Win32,59.56635692,62c50e9c1127f2cd403a315f,0,17,17,52,1,threeone,,,,,,,,,,,,,,,,,,,,,,,,,,,,,,,,,,,,,,,,,,,,,,,,,,,,,,,,,,,,,,,,,,,,,,,,,,,,,,,,,,,,,,,,,,,,,,,,,,,,,,,,,,,,,,,,,,,,,,,,,,,,,,,,,,,,,,,,,,,,,,,,,,,,,,,,,,,,,
,,,,,,5b8e8feeee5b0500010f16d0,62c538b0e11c40b2f02aaeaf,2022-07-06_09h24.45.976,Colour_Asymmetry_Pilot,2022.1.3,Win32,59.56635692,62c50e9c1127f2cd403a315f,0,18,18,70,1,fourtwo,,,,,,,,,,,,,,,,,,,,,,,,,,,,,,,,,,,,,,,,,,,,,,,,,,,,,,,,,,,,,,,,,,,,,,,,,,,,,,,,,,,,,,,,,,,,,,,,,,,,,,,,,,,,,,,,,,,,,,,,,,,,,,,,,,,,,,,,,,,,,,,,,,,,,,,,,,,,,
,,,,,,5b8e8feeee5b0500010f16d0,62c538b0e11c40b2f02aaeaf,2022-07-06_09h24.45.976,Colour_Asymmetry_Pilot,2022.1.3,Win32,59.56635692,62c50e9c1127f2cd403a315f,0,19,19,67,1,twofour,,,,,,,,,,,,,,,,,,,,,,,,,,,,,,,,,,,,,,,,,,,,,,,,,,,,,,,,,,,,,,,,,,,,,,,,,,,,,,,,,,,,,,,,,,,,,,,,,,,,,,,,,,,,,,,,,,,,,,,,,,,,,,,,,,,,,,,,,,,,,,,,,,,,,,,,,,,,,
,,,,,,5b8e8feeee5b0500010f16d0,62c538b0e11c40b2f02aaeaf,2022-07-06_09h24.45.976,Colour_Asymmetry_Pilot,2022.1.3,Win32,59.56635692,62c50e9c1127f2cd403a315f,0,20,20,88,1,onetwo,,,,,,,,,,,,,,,,,,,,,,,,,,,,,,,,,,,,,,,,,,,,,,,,,,,,,,,,,,,,,,,,,,,,,,,,,,,,,,,,,,,,,,,,,,,,,,,,,,,,,,,,,,,,,,,,,,,,,,,,,,,,,,,,,,,,,,,,,,,,,,,,,,,,,,,,,,,,,
,,,,,,5b8e8feeee5b0500010f16d0,62c538b0e11c40b2f02aaeaf,2022-07-06_09h24.45.976,Colour_Asymmetry_Pilot,2022.1.3,Win32,59.56635692,62c50e9c1127f2cd403a315f,0,21,21,113,1,onethree,,,,,,,,,,,,,,,,,,,,,,,,,,,,,,,,,,,,,,,,,,,,,,,,,,,,,,,,,,,,,,,,,,,,,,,,,,,,,,,,,,,,,,,,,,,,,,,,,,,,,,,,,,,,,,,,,,,,,,,,,,,,,,,,,,,,,,,,,,,,,,,,,,,,,,,,,,,,,
,,,,,,5b8e8feeee5b0500010f16d0,62c538b0e11c40b2f02aaeaf,2022-07-06_09h24.45.976,Colour_Asymmetry_Pilot,2022.1.3,Win32,59.56635692,62c50e9c1127f2cd403a315f,0,22,22,47,1,fourthree,,,,,,,,,,,,,,,,,,,,,,,,,,,,,,,,,,,,,,,,,,,,,,,,,,,,,,,,,,,,,,,,,,,,,,,,,,,,,,,,,,,,,,,,,,,,,,,,,,,,,,,,,,,,,,,,,,,,,,,,,,,,,,,,,,,,,,,,,,,,,,,,,,,,,,,,,,,,,
,,,,,,5b8e8feeee5b0500010f16d0,62c538b0e11c40b2f02aaeaf,2022-07-06_09h24.45.976,Colour_Asymmetry_Pilot,2022.1.3,Win32,59.56635692,62c50e9c1127f2cd403a315f,0,23,23,118,1,fourtwo,,,,,,,,,,,,,,,,,,,,,,,,,,,,,,,,,,,,,,,,,,,,,,,,,,,,,,,,,,,,,,,,,,,,,,,,,,,,,,,,,,,,,,,,,,,,,,,,,,,,,,,,,,,,,,,,,,,,,,,,,,,,,,,,,,,,,,,,,,,,,,,,,,,,,,,,,,,,,
,,,,,,5b8e8feeee5b0500010f16d0,62c538b0e11c40b2f02aaeaf,2022-07-06_09h24.45.976,Colour_Asymmetry_Pilot,2022.1.3,Win32,59.56635692,62c50e9c1127f2cd403a315f,0,24,24,101,1,threefour,,,,,,,,,,,,,,,,,,,,,,,,,,,,,,,,,,,,,,,,,,,,,,,,,,,,,,,,,,,,,,,,,,,,,,,,,,,,,,,,,,,,,,,,,,,,,,,,,,,,,,,,,,,,,,,,,,,,,,,,,,,,,,,,,,,,,,,,,,,,,,,,,,,,,,,,,,,,,
,,,,,,5b8e8feeee5b0500010f16d0,62c538b0e11c40b2f02aaeaf,2022-07-06_09h24.45.976,Colour_Asymmetry_Pilot,2022.1.3,Win32,59.56635692,62c50e9c1127f2cd403a315f,0,25,25,103,1,fourthree,,,,,,,,,,,,,,,,,,,,,,,,,,,,,,,,,,,,,,,,,,,,,,,,,,,,,,,,,,,,,,,,,,,,,,,,,,,,,,,,,,,,,,,,,,,,,,,,,,,,,,,,,,,,,,,,,,,,,,,,,,,,,,,,,,,,,,,,,,,,,,,,,,,,,,,,,,,,,
,,,,,,5b8e8feeee5b0500010f16d0,62c538b0e11c40b2f02aaeaf,2022-07-06_09h24.45.976,Colour_Asymmetry_Pilot,2022.1.3,Win32,59.56635692,62c50e9c1127f2cd403a315f,0,26,26,152,1,onetwo,,,,,,,,,,,,,,,,,,,,,,,,,,,,,,,,,,,,,,,,,,,,,,,,,,,,,,,,,,,,,,,,,,,,,,,,,,,,,,,,,,,,,,,,,,,,,,,,,,,,,,,,,,,,,,,,,,,,,,,,,,,,,,,,,,,,,,,,,,,,,,,,,,,,,,,,,,,,,
,,,,,,5b8e8feeee5b0500010f16d0,62c538b0e11c40b2f02aaeaf,2022-07-06_09h24.45.976,Colour_Asymmetry_Pilot,2022.1.3,Win32,59.56635692,62c50e9c1127f2cd403a315f,0,27,27,81,1,onethree,,,,,,,,,,,,,,,,,,,,,,,,,,,,,,,,,,,,,,,,,,,,,,,,,,,,,,,,,,,,,,,,,,,,,,,,,,,,,,,,,,,,,,,,,,,,,,,,,,,,,,,,,,,,,,,,,,,,,,,,,,,,,,,,,,,,,,,,,,,,,,,,,,,,,,,,,,,,,
,,,,,,5b8e8feeee5b0500010f16d0,62c538b0e11c40b2f02aaeaf,2022-07-06_09h24.45.976,Colour_Asymmetry_Pilot,2022.1.3,Win32,59.56635692,62c50e9c1127f2cd403a315f,0,28,28,108,1,threeone,,,,,,,,,,,,,,,,,,,,,,,,,,,,,,,,,,,,,,,,,,,,,,,,,,,,,,,,,,,,,,,,,,,,,,,,,,,,,,,,,,,,,,,,,,,,,,,,,,,,,,,,,,,,,,,,,,,,,,,,,,,,,,,,,,,,,,,,,,,,,,,,,,,,,,,,,,,,,
,,,,,,5b8e8feeee5b0500010f16d0,62c538b0e11c40b2f02aaeaf,2022-07-06_09h24.45.976,Colour_Asymmetry_Pilot,2022.1.3,Win32,59.56635692,62c50e9c1127f2cd403a315f,0,29,29,146,1,twoone,,,,,,,,,,,,,,,,,,,,,,,,,,,,,,,,,,,,,,,,,,,,,,,,,,,,,,,,,,,,,,,,,,,,,,,,,,,,,,,,,,,,,,,,,,,,,,,,,,,,,,,,,,,,,,,,,,,,,,,,,,,,,,,,,,,,,,,,,,,,,,,,,,,,,,,,,,,,,
,,,,,,5b8e8feeee5b0500010f16d0,62c538b0e11c40b2f02aaeaf,2022-07-06_09h24.45.976,Colour_Asymmetry_Pilot,2022.1.3,Win32,59.56635692,62c50e9c1127f2cd403a315f,0,30,30,154,1,twoone,,,,,,,,,,,,,,,,,,,,,,,,,,,,,,,,,,,,,,,,,,,,,,,,,,,,,,,,,,,,,,,,,,,,,,,,,,,,,,,,,,,,,,,,,,,,,,,,,,,,,,,,,,,,,,,,,,,,,,,,,,,,,,,,,,,,,,,,,,,,,,,,,,,,,,,,,,,,,
,,,,,,5b8e8feeee5b0500010f16d0,62c538b0e11c40b2f02aaeaf,2022-07-06_09h24.45.976,Colour_Asymmetry_Pilot,2022.1.3,Win32,59.56635692,62c50e9c1127f2cd403a315f,0,31,31,7,1,fourthree,,,,,,,,,,,,,,,,,,,,,,,,,,,,,,,,,,,,,,,,,,,,,,,,,,,,,,,,,,,,,,,,,,,,,,,,,,,,,,,,,,,,,,,,,,,,,,,,,,,,,,,,,,,,,,,,,,,,,,,,,,,,,,,,,,,,,,,,,,,,,,,,,,,,,,,,,,,,,
,,,,,,5b8e8feeee5b0500010f16d0,62c538b0e11c40b2f02aaeaf,2022-07-06_09h24.45.976,Colour_Asymmetry_Pilot,2022.1.3,Win32,59.56635692,62c50e9c1127f2cd403a315f,0,32,32,38,1,fourtwo,,,,,,,,,,,,,,,,,,,,,,,,,,,,,,,,,,,,,,,,,,,,,,,,,,,,,,,,,,,,,,,,,,,,,,,,,,,,,,,,,,,,,,,,,,,,,,,,,,,,,,,,,,,,,,,,,,,,,,,,,,,,,,,,,,,,,,,,,,,,,,,,,,,,,,,,,,,,,
,,,,,,5b8e8feeee5b0500010f16d0,62c538b0e11c40b2f02aaeaf,2022-07-06_09h24.45.976,Colour_Asymmetry_Pilot,2022.1.3,Win32,59.56635692,62c50e9c1127f2cd403a315f,0,33,33,25,1,onethree,,,,,,,,,,,,,,,,,,,,,,,,,,,,,,,,,,,,,,,,,,,,,,,,,,,,,,,,,,,,,,,,,,,,,,,,,,,,,,,,,,,,,,,,,,,,,,,,,,,,,,,,,,,,,,,,,,,,,,,,,,,,,,,,,,,,,,,,,,,,,,,,,,,,,,,,,,,,,
,,,,,,5b8e8feeee5b0500010f16d0,62c538b0e11c40b2f02aaeaf,2022-07-06_09h24.45.976,Colour_Asymmetry_Pilot,2022.1.3,Win32,59.56635692,62c50e9c1127f2cd403a315f,0,34,34,21,1,threefour,,,,,,,,,,,,,,,,,,,,,,,,,,,,,,,,,,,,,,,,,,,,,,,,,,,,,,,,,,,,,,,,,,,,,,,,,,,,,,,,,,,,,,,,,,,,,,,,,,,,,,,,,,,,,,,,,,,,,,,,,,,,,,,,,,,,,,,,,,,,,,,,,,,,,,,,,,,,,
,,,,,,5b8e8feeee5b0500010f16d0,62c538b0e11c40b2f02aaeaf,2022-07-06_09h24.45.976,Colour_Asymmetry_Pilot,2022.1.3,Win32,59.56635692,62c50e9c1127f2cd403a315f,0,35,35,122,1,twoone,,,,,,,,,,,,,,,,,,,,,,,,,,,,,,,,,,,,,,,,,,,,,,,,,,,,,,,,,,,,,,,,,,,,,,,,,,,,,,,,,,,,,,,,,,,,,,,,,,,,,,,,,,,,,,,,,,,,,,,,,,,,,,,,,,,,,,,,,,,,,,,,,,,,,,,,,,,,,
,,,,,,5b8e8feeee5b0500010f16d0,62c538b0e11c40b2f02aaeaf,2022-07-06_09h24.45.976,Colour_Asymmetry_Pilot,2022.1.3,Win32,59.56635692,62c50e9c1127f2cd403a315f,0,36,36,141,1,threefour,,,,,,,,,,,,,,,,,,,,,,,,,,,,,,,,,,,,,,,,,,,,,,,,,,,,,,,,,,,,,,,,,,,,,,,,,,,,,,,,,,,,,,,,,,,,,,,,,,,,,,,,,,,,,,,,,,,,,,,,,,,,,,,,,,,,,,,,,,,,,,,,,,,,,,,,,,,,,
,,,,,,5b8e8feeee5b0500010f16d0,62c538b0e11c40b2f02aaeaf,2022-07-06_09h24.45.976,Colour_Asymmetry_Pilot,2022.1.3,Win32,59.56635692,62c50e9c1127f2cd403a315f,0,37,37,15,1,fourthree,,,,,,,,,,,,,,,,,,,,,,,,,,,,,,,,,,,,,,,,,,,,,,,,,,,,,,,,,,,,,,,,,,,,,,,,,,,,,,,,,,,,,,,,,,,,,,,,,,,,,,,,,,,,,,,,,,,,,,,,,,,,,,,,,,,,,,,,,,,,,,,,,,,,,,,,,,,,,
,,,,,,5b8e8feeee5b0500010f16d0,62c538b0e11c40b2f02aaeaf,2022-07-06_09h24.45.976,Colour_Asymmetry_Pilot,2022.1.3,Win32,59.56635692,62c50e9c1127f2cd403a315f,0,38,38,40,1,onetwo,,,,,,,,,,,,,,,,,,,,,,,,,,,,,,,,,,,,,,,,,,,,,,,,,,,,,,,,,,,,,,,,,,,,,,,,,,,,,,,,,,,,,,,,,,,,,,,,,,,,,,,,,,,,,,,,,,,,,,,,,,,,,,,,,,,,,,,,,,,,,,,,,,,,,,,,,,,,,
,,,,,,5b8e8feeee5b0500010f16d0,62c538b0e11c40b2f02aaeaf,2022-07-06_09h24.45.976,Colour_Asymmetry_Pilot,2022.1.3,Win32,59.56635692,62c50e9c1127f2cd403a315f,0,39,39,91,1,twofour,,,,,,,,,,,,,,,,,,,,,,,,,,,,,,,,,,,,,,,,,,,,,,,,,,,,,,,,,,,,,,,,,,,,,,,,,,,,,,,,,,,,,,,,,,,,,,,,,,,,,,,,,,,,,,,,,,,,,,,,,,,,,,,,,,,,,,,,,,,,,,,,,,,,,,,,,,,,,
,,,,,,5b8e8feeee5b0500010f16d0,62c538b0e11c40b2f02aaeaf,2022-07-06_09h24.45.976,Colour_Asymmetry_Pilot,2022.1.3,Win32,59.56635692,62c50e9c1127f2cd403a315f,0,40,40,50,1,twoone,,,,,,,,,,,,,,,,,,,,,,,,,,,,,,,,,,,,,,,,,,,,,,,,,,,,,,,,,,,,,,,,,,,,,,,,,,,,,,,,,,,,,,,,,,,,,,,,,,,,,,,,,,,,,,,,,,,,,,,,,,,,,,,,,,,,,,,,,,,,,,,,,,,,,,,,,,,,,
,,,,,,5b8e8feeee5b0500010f16d0,62c538b0e11c40b2f02aaeaf,2022-07-06_09h24.45.976,Colour_Asymmetry_Pilot,2022.1.3,Win32,59.56635692,62c50e9c1127f2cd403a315f,0,41,41,89,1,onethree,,,,,,,,,,,,,,,,,,,,,,,,,,,,,,,,,,,,,,,,,,,,,,,,,,,,,,,,,,,,,,,,,,,,,,,,,,,,,,,,,,,,,,,,,,,,,,,,,,,,,,,,,,,,,,,,,,,,,,,,,,,,,,,,,,,,,,,,,,,,,,,,,,,,,,,,,,,,,
,,,,,,5b8e8feeee5b0500010f16d0,62c538b0e11c40b2f02aaeaf,2022-07-06_09h24.45.976,Colour_Asymmetry_Pilot,2022.1.3,Win32,59.56635692,62c50e9c1127f2cd403a315f,0,42,42,35,1,twofour,,,,,,,,,,,,,,,,,,,,,,,,,,,,,,,,,,,,,,,,,,,,,,,,,,,,,,,,,,,,,,,,,,,,,,,,,,,,,,,,,,,,,,,,,,,,,,,,,,,,,,,,,,,,,,,,,,,,,,,,,,,,,,,,,,,,,,,,,,,,,,,,,,,,,,,,,,,,,
,,,,,,5b8e8feeee5b0500010f16d0,62c538b0e11c40b2f02aaeaf,2022-07-06_09h24.45.976,Colour_Asymmetry_Pilot,2022.1.3,Win32,59.56635692,62c50e9c1127f2cd403a315f,0,43,43,139,1,twofour,,,,,,,,,,,,,,,,,,,,,,,,,,,,,,,,,,,,,,,,,,,,,,,,,,,,,,,,,,,,,,,,,,,,,,,,,,,,,,,,,,,,,,,,,,,,,,,,,,,,,,,,,,,,,,,,,,,,,,,,,,,,,,,,,,,,,,,,,,,,,,,,,,,,,,,,,,,,,
,,,,,,5b8e8feeee5b0500010f16d0,62c538b0e11c40b2f02aaeaf,2022-07-06_09h24.45.976,Colour_Asymmetry_Pilot,2022.1.3,Win32,59.56635692,62c50e9c1127f2cd403a315f,0,44,44,86,1,fourtwo,,,,,,,,,,,,,,,,,,,,,,,,,,,,,,,,,,,,,,,,,,,,,,,,,,,,,,,,,,,,,,,,,,,,,,,,,,,,,,,,,,,,,,,,,,,,,,,,,,,,,,,,,,,,,,,,,,,,,,,,,,,,,,,,,,,,,,,,,,,,,,,,,,,,,,,,,,,,,
,,,,,,5b8e8feeee5b0500010f16d0,62c538b0e11c40b2f02aaeaf,2022-07-06_09h24.45.976,Colour_Asymmetry_Pilot,2022.1.3,Win32,59.56635692,62c50e9c1127f2cd403a315f,0,45,45,150,1,fourtwo,,,,,,,,,,,,,,,,,,,,,,,,,,,,,,,,,,,,,,,,,,,,,,,,,,,,,,,,,,,,,,,,,,,,,,,,,,,,,,,,,,,,,,,,,,,,,,,,,,,,,,,,,,,,,,,,,,,,,,,,,,,,,,,,,,,,,,,,,,,,,,,,,,,,,,,,,,,,,
,,,,,,5b8e8feeee5b0500010f16d0,62c538b0e11c40b2f02aaeaf,2022-07-06_09h24.45.976,Colour_Asymmetry_Pilot,2022.1.3,Win32,59.56635692,62c50e9c1127f2cd403a315f,0,46,46,144,1,onetwo,,,,,,,,,,,,,,,,,,,,,,,,,,,,,,,,,,,,,,,,,,,,,,,,,,,,,,,,,,,,,,,,,,,,,,,,,,,,,,,,,,,,,,,,,,,,,,,,,,,,,,,,,,,,,,,,,,,,,,,,,,,,,,,,,,,,,,,,,,,,,,,,,,,,,,,,,,,,,
,,,,,,5b8e8feeee5b0500010f16d0,62c538b0e11c40b2f02aaeaf,2022-07-06_09h24.45.976,Colour_Asymmetry_Pilot,2022.1.3,Win32,59.56635692,62c50e9c1127f2cd403a315f,0,47,47,102,1,fourtwo,,,,,,,,,,,,,,,,,,,,,,,,,,,,,,,,,,,,,,,,,,,,,,,,,,,,,,,,,,,,,,,,,,,,,,,,,,,,,,,,,,,,,,,,,,,,,,,,,,,,,,,,,,,,,,,,,,,,,,,,,,,,,,,,,,,,,,,,,,,,,,,,,,,,,,,,,,,,,
,,,,,,5b8e8feeee5b0500010f16d0,62c538b0e11c40b2f02aaeaf,2022-07-06_09h24.45.976,Colour_Asymmetry_Pilot,2022.1.3,Win32,59.56635692,62c50e9c1127f2cd403a315f,0,48,48,46,1,fourtwo,,,,,,,,,,,,,,,,,,,,,,,,,,,,,,,,,,,,,,,,,,,,,,,,,,,,,,,,,,,,,,,,,,,,,,,,,,,,,,,,,,,,,,,,,,,,,,,,,,,,,,,,,,,,,,,,,,,,,,,,,,,,,,,,,,,,,,,,,,,,,,,,,,,,,,,,,,,,,
,,,,,,5b8e8feeee5b0500010f16d0,62c538b0e11c40b2f02aaeaf,2022-07-06_09h24.45.976,Colour_Asymmetry_Pilot,2022.1.3,Win32,59.56635692,62c50e9c1127f2cd403a315f,0,49,49,131,1,twofour,,,,,,,,,,,,,,,,,,,,,,,,,,,,,,,,,,,,,,,,,,,,,,,,,,,,,,,,,,,,,,,,,,,,,,,,,,,,,,,,,,,,,,,,,,,,,,,,,,,,,,,,,,,,,,,,,,,,,,,,,,,,,,,,,,,,,,,,,,,,,,,,,,,,,,,,,,,,,
,,,,,,5b8e8feeee5b0500010f16d0,62c538b0e11c40b2f02aaeaf,2022-07-06_09h24.45.976,Colour_Asymmetry_Pilot,2022.1.3,Win32,59.56635692,62c50e9c1127f2cd403a315f,0,50,50,14,1,fourtwo,,,,,,,,,,,,,,,,,,,,,,,,,,,,,,,,,,,,,,,,,,,,,,,,,,,,,,,,,,,,,,,,,,,,,,,,,,,,,,,,,,,,,,,,,,,,,,,,,,,,,,,,,,,,,,,,,,,,,,,,,,,,,,,,,,,,,,,,,,,,,,,,,,,,,,,,,,,,,
,,,,,,5b8e8feeee5b0500010f16d0,62c538b0e11c40b2f02aaeaf,2022-07-06_09h24.45.976,Colour_Asymmetry_Pilot,2022.1.3,Win32,59.56635692,62c50e9c1127f2cd403a315f,0,51,51,98,1,twoone,,,,,,,,,,,,,,,,,,,,,,,,,,,,,,,,,,,,,,,,,,,,,,,,,,,,,,,,,,,,,,,,,,,,,,,,,,,,,,,,,,,,,,,,,,,,,,,,,,,,,,,,,,,,,,,,,,,,,,,,,,,,,,,,,,,,,,,,,,,,,,,,,,,,,,,,,,,,,
,,,,,,5b8e8feeee5b0500010f16d0,62c538b0e11c40b2f02aaeaf,2022-07-06_09h24.45.976,Colour_Asymmetry_Pilot,2022.1.3,Win32,59.56635692,62c50e9c1127f2cd403a315f,0,52,52,128,1,onetwo,,,,,,,,,,,,,,,,,,,,,,,,,,,,,,,,,,,,,,,,,,,,,,,,,,,,,,,,,,,,,,,,,,,,,,,,,,,,,,,,,,,,,,,,,,,,,,,,,,,,,,,,,,,,,,,,,,,,,,,,,,,,,,,,,,,,,,,,,,,,,,,,,,,,,,,,,,,,,
,,,,,,5b8e8feeee5b0500010f16d0,62c538b0e11c40b2f02aaeaf,2022-07-06_09h24.45.976,Colour_Asymmetry_Pilot,2022.1.3,Win32,59.56635692,62c50e9c1127f2cd403a315f,0,53,53,72,1,onetwo,,,,,,,,,,,,,,,,,,,,,,,,,,,,,,,,,,,,,,,,,,,,,,,,,,,,,,,,,,,,,,,,,,,,,,,,,,,,,,,,,,,,,,,,,,,,,,,,,,,,,,,,,,,,,,,,,,,,,,,,,,,,,,,,,,,,,,,,,,,,,,,,,,,,,,,,,,,,,
,,,,,,5b8e8feeee5b0500010f16d0,62c538b0e11c40b2f02aaeaf,2022-07-06_09h24.45.976,Colour_Asymmetry_Pilot,2022.1.3,Win32,59.56635692,62c50e9c1127f2cd403a315f,0,54,54,68,1,threeone,,,,,,,,,,,,,,,,,,,,,,,,,,,,,,,,,,,,,,,,,,,,,,,,,,,,,,,,,,,,,,,,,,,,,,,,,,,,,,,,,,,,,,,,,,,,,,,,,,,,,,,,,,,,,,,,,,,,,,,,,,,,,,,,,,,,,,,,,,,,,,,,,,,,,,,,,,,,,
,,,,,,5b8e8feeee5b0500010f16d0,62c538b0e11c40b2f02aaeaf,2022-07-06_09h24.45.976,Colour_Asymmetry_Pilot,2022.1.3,Win32,59.56635692,62c50e9c1127f2cd403a315f,0,55,55,69,1,threefour,,,,,,,,,,,,,,,,,,,,,,,,,,,,,,,,,,,,,,,,,,,,,,,,,,,,,,,,,,,,,,,,,,,,,,,,,,,,,,,,,,,,,,,,,,,,,,,,,,,,,,,,,,,,,,,,,,,,,,,,,,,,,,,,,,,,,,,,,,,,,,,,,,,,,,,,,,,,,
,,,,,,5b8e8feeee5b0500010f16d0,62c538b0e11c40b2f02aaeaf,2022-07-06_09h24.45.976,Colour_Asymmetry_Pilot,2022.1.3,Win32,59.56635692,62c50e9c1127f2cd403a315f,0,56,56,28,1,threeone,,,,,,,,,,,,,,,,,,,,,,,,,,,,,,,,,,,,,,,,,,,,,,,,,,,,,,,,,,,,,,,,,,,,,,,,,,,,,,,,,,,,,,,,,,,,,,,,,,,,,,,,,,,,,,,,,,,,,,,,,,,,,,,,,,,,,,,,,,,,,,,,,,,,,,,,,,,,,
,,,,,,5b8e8feeee5b0500010f16d0,62c538b0e11c40b2f02aaeaf,2022-07-06_09h24.45.976,Colour_Asymmetry_Pilot,2022.1.3,Win32,59.56635692,62c50e9c1127f2cd403a315f,0,57,57,157,1,threefour,,,,,,,,,,,,,,,,,,,,,,,,,,,,,,,,,,,,,,,,,,,,,,,,,,,,,,,,,,,,,,,,,,,,,,,,,,,,,,,,,,,,,,,,,,,,,,,,,,,,,,,,,,,,,,,,,,,,,,,,,,,,,,,,,,,,,,,,,,,,,,,,,,,,,,,,,,,,,
,,,,,,5b8e8feeee5b0500010f16d0,62c538b0e11c40b2f02aaeaf,2022-07-06_09h24.45.976,Colour_Asymmetry_Pilot,2022.1.3,Win32,59.56635692,62c50e9c1127f2cd403a315f,0,58,58,129,1,onethree,,,,,,,,,,,,,,,,,,,,,,,,,,,,,,,,,,,,,,,,,,,,,,,,,,,,,,,,,,,,,,,,,,,,,,,,,,,,,,,,,,,,,,,,,,,,,,,,,,,,,,,,,,,,,,,,,,,,,,,,,,,,,,,,,,,,,,,,,,,,,,,,,,,,,,,,,,,,,
,,,,,,5b8e8feeee5b0500010f16d0,62c538b0e11c40b2f02aaeaf,2022-07-06_09h24.45.976,Colour_Asymmetry_Pilot,2022.1.3,Win32,59.56635692,62c50e9c1127f2cd403a315f,0,59,59,80,1,onetwo,,,,,,,,,,,,,,,,,,,,,,,,,,,,,,,,,,,,,,,,,,,,,,,,,,,,,,,,,,,,,,,,,,,,,,,,,,,,,,,,,,,,,,,,,,,,,,,,,,,,,,,,,,,,,,,,,,,,,,,,,,,,,,,,,,,,,,,,,,,,,,,,,,,,,,,,,,,,,
,,,,,,5b8e8feeee5b0500010f16d0,62c538b0e11c40b2f02aaeaf,2022-07-06_09h24.45.976,Colour_Asymmetry_Pilot,2022.1.3,Win32,59.56635692,62c50e9c1127f2cd403a315f,0,60,60,74,1,twoone,,,,,,,,,,,,,,,,,,,,,,,,,,,,,,,,,,,,,,,,,,,,,,,,,,,,,,,,,,,,,,,,,,,,,,,,,,,,,,,,,,,,,,,,,,,,,,,,,,,,,,,,,,,,,,,,,,,,,,,,,,,,,,,,,,,,,,,,,,,,,,,,,,,,,,,,,,,,,
,,,,,,5b8e8feeee5b0500010f16d0,62c538b0e11c40b2f02aaeaf,2022-07-06_09h24.45.976,Colour_Asymmetry_Pilot,2022.1.3,Win32,59.56635692,62c50e9c1127f2cd403a315f,0,61,61,147,1,twofour,,,,,,,,,,,,,,,,,,,,,,,,,,,,,,,,,,,,,,,,,,,,,,,,,,,,,,,,,,,,,,,,,,,,,,,,,,,,,,,,,,,,,,,,,,,,,,,,,,,,,,,,,,,,,,,,,,,,,,,,,,,,,,,,,,,,,,,,,,,,,,,,,,,,,,,,,,,,,
,,,,,,5b8e8feeee5b0500010f16d0,62c538b0e11c40b2f02aaeaf,2022-07-06_09h24.45.976,Colour_Asymmetry_Pilot,2022.1.3,Win32,59.56635692,62c50e9c1127f2cd403a315f,0,62,62,110,1,fourtwo,,,,,,,,,,,,,,,,,,,,,,,,,,,,,,,,,,,,,,,,,,,,,,,,,,,,,,,,,,,,,,,,,,,,,,,,,,,,,,,,,,,,,,,,,,,,,,,,,,,,,,,,,,,,,,,,,,,,,,,,,,,,,,,,,,,,,,,,,,,,,,,,,,,,,,,,,,,,,
,,,,,,5b8e8feeee5b0500010f16d0,62c538b0e11c40b2f02aaeaf,2022-07-06_09h24.45.976,Colour_Asymmetry_Pilot,2022.1.3,Win32,59.56635692,62c50e9c1127f2cd403a315f,0,63,63,49,1,onethree,,,,,,,,,,,,,,,,,,,,,,,,,,,,,,,,,,,,,,,,,,,,,,,,,,,,,,,,,,,,,,,,,,,,,,,,,,,,,,,,,,,,,,,,,,,,,,,,,,,,,,,,,,,,,,,,,,,,,,,,,,,,,,,,,,,,,,,,,,,,,,,,,,,,,,,,,,,,,
,,,,,,5b8e8feeee5b0500010f16d0,62c538b0e11c40b2f02aaeaf,2022-07-06_09h24.45.976,Colour_Asymmetry_Pilot,2022.1.3,Win32,59.56635692,62c50e9c1127f2cd403a315f,0,64,64,97,1,onethree,,,,,,,,,,,,,,,,,,,,,,,,,,,,,,,,,,,,,,,,,,,,,,,,,,,,,,,,,,,,,,,,,,,,,,,,,,,,,,,,,,,,,,,,,,,,,,,,,,,,,,,,,,,,,,,,,,,,,,,,,,,,,,,,,,,,,,,,,,,,,,,,,,,,,,,,,,,,,
,,,,,,5b8e8feeee5b0500010f16d0,62c538b0e11c40b2f02aaeaf,2022-07-06_09h24.45.976,Colour_Asymmetry_Pilot,2022.1.3,Win32,59.56635692,62c50e9c1127f2cd403a315f,0,65,65,161,1,onethree,,,,,,,,,,,,,,,,,,,,,,,,,,,,,,,,,,,,,,,,,,,,,,,,,,,,,,,,,,,,,,,,,,,,,,,,,,,,,,,,,,,,,,,,,,,,,,,,,,,,,,,,,,,,,,,,,,,,,,,,,,,,,,,,,,,,,,,,,,,,,,,,,,,,,,,,,,,,,
,,,,,,5b8e8feeee5b0500010f16d0,62c538b0e11c40b2f02aaeaf,2022-07-06_09h24.45.976,Colour_Asymmetry_Pilot,2022.1.3,Win32,59.56635692,62c50e9c1127f2cd403a315f,0,66,66,100,1,threeone,,,,,,,,,,,,,,,,,,,,,,,,,,,,,,,,,,,,,,,,,,,,,,,,,,,,,,,,,,,,,,,,,,,,,,,,,,,,,,,,,,,,,,,,,,,,,,,,,,,,,,,,,,,,,,,,,,,,,,,,,,,,,,,,,,,,,,,,,,,,,,,,,,,,,,,,,,,,,
,,,,,,5b8e8feeee5b0500010f16d0,62c538b0e11c40b2f02aaeaf,2022-07-06_09h24.45.976,Colour_Asymmetry_Pilot,2022.1.3,Win32,59.56635692,62c50e9c1127f2cd403a315f,0,67,67,132,1,threeone,,,,,,,,,,,,,,,,,,,,,,,,,,,,,,,,,,,,,,,,,,,,,,,,,,,,,,,,,,,,,,,,,,,,,,,,,,,,,,,,,,,,,,,,,,,,,,,,,,,,,,,,,,,,,,,,,,,,,,,,,,,,,,,,,,,,,,,,,,,,,,,,,,,,,,,,,,,,,
,,,,,,5b8e8feeee5b0500010f16d0,62c538b0e11c40b2f02aaeaf,2022-07-06_09h24.45.976,Colour_Asymmetry_Pilot,2022.1.3,Win32,59.56635692,62c50e9c1127f2cd403a315f,0,68,68,32,1,onetwo,,,,,,,,,,,,,,,,,,,,,,,,,,,,,,,,,,,,,,,,,,,,,,,,,,,,,,,,,,,,,,,,,,,,,,,,,,,,,,,,,,,,,,,,,,,,,,,,,,,,,,,,,,,,,,,,,,,,,,,,,,,,,,,,,,,,,,,,,,,,,,,,,,,,,,,,,,,,,
,,,,,,5b8e8feeee5b0500010f16d0,62c538b0e11c40b2f02aaeaf,2022-07-06_09h24.45.976,Colour_Asymmetry_Pilot,2022.1.3,Win32,59.56635692,62c50e9c1127f2cd403a315f,0,69,69,105,1,onethree,,,,,,,,,,,,,,,,,,,,,,,,,,,,,,,,,,,,,,,,,,,,,,,,,,,,,,,,,,,,,,,,,,,,,,,,,,,,,,,,,,,,,,,,,,,,,,,,,,,,,,,,,,,,,,,,,,,,,,,,,,,,,,,,,,,,,,,,,,,,,,,,,,,,,,,,,,,,,
,,,,,,5b8e8feeee5b0500010f16d0,62c538b0e11c40b2f02aaeaf,2022-07-06_09h24.45.976,Colour_Asymmetry_Pilot,2022.1.3,Win32,59.56635692,62c50e9c1127f2cd403a315f,0,70,70,115,1,twofour,,,,,,,,,,,,,,,,,,,,,,,,,,,,,,,,,,,,,,,,,,,,,,,,,,,,,,,,,,,,,,,,,,,,,,,,,,,,,,,,,,,,,,,,,,,,,,,,,,,,,,,,,,,,,,,,,,,,,,,,,,,,,,,,,,,,,,,,,,,,,,,,,,,,,,,,,,,,,
,,,,,,5b8e8feeee5b0500010f16d0,62c538b0e11c40b2f02aaeaf,2022-07-06_09h24.45.976,Colour_Asymmetry_Pilot,2022.1.3,Win32,59.56635692,62c50e9c1127f2cd403a315f,0,71,71,87,1,fourthree,,,,,,,,,,,,,,,,,,,,,,,,,,,,,,,,,,,,,,,,,,,,,,,,,,,,,,,,,,,,,,,,,,,,,,,,,,,,,,,,,,,,,,,,,,,,,,,,,,,,,,,,,,,,,,,,,,,,,,,,,,,,,,,,,,,,,,,,,,,,,,,,,,,,,,,,,,,,,
,,,,,,5b8e8feeee5b0500010f16d0,62c538b0e11c40b2f02aaeaf,2022-07-06_09h24.45.976,Colour_Asymmetry_Pilot,2022.1.3,Win32,59.56635692,62c50e9c1127f2cd403a315f,0,72,72,39,1,fourthree,,,,,,,,,,,,,,,,,,,,,,,,,,,,,,,,,,,,,,,,,,,,,,,,,,,,,,,,,,,,,,,,,,,,,,,,,,,,,,,,,,,,,,,,,,,,,,,,,,,,,,,,,,,,,,,,,,,,,,,,,,,,,,,,,,,,,,,,,,,,,,,,,,,,,,,,,,,,,
,,,,,,5b8e8feeee5b0500010f16d0,62c538b0e11c40b2f02aaeaf,2022-07-06_09h24.45.976,Colour_Asymmetry_Pilot,2022.1.3,Win32,59.56635692,62c50e9c1127f2cd403a315f,0,73,73,63,1,fourthree,,,,,,,,,,,,,,,,,,,,,,,,,,,,,,,,,,,,,,,,,,,,,,,,,,,,,,,,,,,,,,,,,,,,,,,,,,,,,,,,,,,,,,,,,,,,,,,,,,,,,,,,,,,,,,,,,,,,,,,,,,,,,,,,,,,,,,,,,,,,,,,,,,,,,,,,,,,,,
,,,,,,5b8e8feeee5b0500010f16d0,62c538b0e11c40b2f02aaeaf,2022-07-06_09h24.45.976,Colour_Asymmetry_Pilot,2022.1.3,Win32,59.56635692,62c50e9c1127f2cd403a315f,0,74,74,29,1,threefour,,,,,,,,,,,,,,,,,,,,,,,,,,,,,,,,,,,,,,,,,,,,,,,,,,,,,,,,,,,,,,,,,,,,,,,,,,,,,,,,,,,,,,,,,,,,,,,,,,,,,,,,,,,,,,,,,,,,,,,,,,,,,,,,,,,,,,,,,,,,,,,,,,,,,,,,,,,,,
,,,,,,5b8e8feeee5b0500010f16d0,62c538b0e11c40b2f02aaeaf,2022-07-06_09h24.45.976,Colour_Asymmetry_Pilot,2022.1.3,Win32,59.56635692,62c50e9c1127f2cd403a315f,0,75,75,155,1,twofour,,,,,,,,,,,,,,,,,,,,,,,,,,,,,,,,,,,,,,,,,,,,,,,,,,,,,,,,,,,,,,,,,,,,,,,,,,,,,,,,,,,,,,,,,,,,,,,,,,,,,,,,,,,,,,,,,,,,,,,,,,,,,,,,,,,,,,,,,,,,,,,,,,,,,,,,,,,,,
,,,,,,5b8e8feeee5b0500010f16d0,62c538b0e11c40b2f02aaeaf,2022-07-06_09h24.45.976,Colour_Asymmetry_Pilot,2022.1.3,Win32,59.56635692,62c50e9c1127f2cd403a315f,0,76,76,114,1,twoone,,,,,,,,,,,,,,,,,,,,,,,,,,,,,,,,,,,,,,,,,,,,,,,,,,,,,,,,,,,,,,,,,,,,,,,,,,,,,,,,,,,,,,,,,,,,,,,,,,,,,,,,,,,,,,,,,,,,,,,,,,,,,,,,,,,,,,,,,,,,,,,,,,,,,,,,,,,,,
,,,,,,5b8e8feeee5b0500010f16d0,62c538b0e11c40b2f02aaeaf,2022-07-06_09h24.45.976,Colour_Asymmetry_Pilot,2022.1.3,Win32,59.56635692,62c50e9c1127f2cd403a315f,0,77,77,51,1,twofour,,,,,,,,,,,,,,,,,,,,,,,,,,,,,,,,,,,,,,,,,,,,,,,,,,,,,,,,,,,,,,,,,,,,,,,,,,,,,,,,,,,,,,,,,,,,,,,,,,,,,,,,,,,,,,,,,,,,,,,,,,,,,,,,,,,,,,,,,,,,,,,,,,,,,,,,,,,,,
,,,,,,5b8e8feeee5b0500010f16d0,62c538b0e11c40b2f02aaeaf,2022-07-06_09h24.45.976,Colour_Asymmetry_Pilot,2022.1.3,Win32,59.56635692,62c50e9c1127f2cd403a315f,0,78,78,19,1,twofour,,,,,,,,,,,,,,,,,,,,,,,,,,,,,,,,,,,,,,,,,,,,,,,,,,,,,,,,,,,,,,,,,,,,,,,,,,,,,,,,,,,,,,,,,,,,,,,,,,,,,,,,,,,,,,,,,,,,,,,,,,,,,,,,,,,,,,,,,,,,,,,,,,,,,,,,,,,,,
,,,,,,5b8e8feeee5b0500010f16d0,62c538b0e11c40b2f02aaeaf,2022-07-06_09h24.45.976,Colour_Asymmetry_Pilot,2022.1.3,Win32,59.56635692,62c50e9c1127f2cd403a315f,0,79,79,123,1,twofour,,,,,,,,,,,,,,,,,,,,,,,,,,,,,,,,,,,,,,,,,,,,,,,,,,,,,,,,,,,,,,,,,,,,,,,,,,,,,,,,,,,,,,,,,,,,,,,,,,,,,,,,,,,,,,,,,,,,,,,,,,,,,,,,,,,,,,,,,,,,,,,,,,,,,,,,,,,,,
,,,,,,5b8e8feeee5b0500010f16d0,62c538b0e11c40b2f02aaeaf,2022-07-06_09h24.45.976,Colour_Asymmetry_Pilot,2022.1.3,Win32,59.56635692,62c50e9c1127f2cd403a315f,0,80,80,160,1,onetwo,,,,,,,,,,,,,,,,,,,,,,,,,,,,,,,,,,,,,,,,,,,,,,,,,,,,,,,,,,,,,,,,,,,,,,,,,,,,,,,,,,,,,,,,,,,,,,,,,,,,,,,,,,,,,,,,,,,,,,,,,,,,,,,,,,,,,,,,,,,,,,,,,,,,,,,,,,,,,
,,,,,,5b8e8feeee5b0500010f16d0,62c538b0e11c40b2f02aaeaf,2022-07-06_09h24.45.976,Colour_Asymmetry_Pilot,2022.1.3,Win32,59.56635692,62c50e9c1127f2cd403a315f,0,81,81,159,1,fourthree,,,,,,,,,,,,,,,,,,,,,,,,,,,,,,,,,,,,,,,,,,,,,,,,,,,,,,,,,,,,,,,,,,,,,,,,,,,,,,,,,,,,,,,,,,,,,,,,,,,,,,,,,,,,,,,,,,,,,,,,,,,,,,,,,,,,,,,,,,,,,,,,,,,,,,,,,,,,,
,,,,,,5b8e8feeee5b0500010f16d0,62c538b0e11c40b2f02aaeaf,2022-07-06_09h24.45.976,Colour_Asymmetry_Pilot,2022.1.3,Win32,59.56635692,62c50e9c1127f2cd403a315f,0,82,82,41,1,onethree,,,,,,,,,,,,,,,,,,,,,,,,,,,,,,,,,,,,,,,,,,,,,,,,,,,,,,,,,,,,,,,,,,,,,,,,,,,,,,,,,,,,,,,,,,,,,,,,,,,,,,,,,,,,,,,,,,,,,,,,,,,,,,,,,,,,,,,,,,,,,,,,,,,,,,,,,,,,,
,,,,,,5b8e8feeee5b0500010f16d0,62c538b0e11c40b2f02aaeaf,2022-07-06_09h24.45.976,Colour_Asymmetry_Pilot,2022.1.3,Win32,59.56635692,62c50e9c1127f2cd403a315f,0,83,83,60,1,threeone,,,,,,,,,,,,,,,,,,,,,,,,,,,,,,,,,,,,,,,,,,,,,,,,,,,,,,,,,,,,,,,,,,,,,,,,,,,,,,,,,,,,,,,,,,,,,,,,,,,,,,,,,,,,,,,,,,,,,,,,,,,,,,,,,,,,,,,,,,,,,,,,,,,,,,,,,,,,,
,,,,,,5b8e8feeee5b0500010f16d0,62c538b0e11c40b2f02aaeaf,2022-07-06_09h24.45.976,Colour_Asymmetry_Pilot,2022.1.3,Win32,59.56635692,62c50e9c1127f2cd403a315f,0,84,84,148,1,threeone,,,,,,,,,,,,,,,,,,,,,,,,,,,,,,,,,,,,,,,,,,,,,,,,,,,,,,,,,,,,,,,,,,,,,,,,,,,,,,,,,,,,,,,,,,,,,,,,,,,,,,,,,,,,,,,,,,,,,,,,,,,,,,,,,,,,,,,,,,,,,,,,,,,,,,,,,,,,,
,,,,,,5b8e8feeee5b0500010f16d0,62c538b0e11c40b2f02aaeaf,2022-07-06_09h24.45.976,Colour_Asymmetry_Pilot,2022.1.3,Win32,59.56635692,62c50e9c1127f2cd403a315f,0,85,85,127,1,fourthree,,,,,,,,,,,,,,,,,,,,,,,,,,,,,,,,,,,,,,,,,,,,,,,,,,,,,,,,,,,,,,,,,,,,,,,,,,,,,,,,,,,,,,,,,,,,,,,,,,,,,,,,,,,,,,,,,,,,,,,,,,,,,,,,,,,,,,,,,,,,,,,,,,,,,,,,,,,,,
,,,,,,5b8e8feeee5b0500010f16d0,62c538b0e11c40b2f02aaeaf,2022-07-06_09h24.45.976,Colour_Asymmetry_Pilot,2022.1.3,Win32,59.56635692,62c50e9c1127f2cd403a315f,0,86,86,140,1,threeone,,,,,,,,,,,,,,,,,,,,,,,,,,,,,,,,,,,,,,,,,,,,,,,,,,,,,,,,,,,,,,,,,,,,,,,,,,,,,,,,,,,,,,,,,,,,,,,,,,,,,,,,,,,,,,,,,,,,,,,,,,,,,,,,,,,,,,,,,,,,,,,,,,,,,,,,,,,,,
,,,,,,5b8e8feeee5b0500010f16d0,62c538b0e11c40b2f02aaeaf,2022-07-06_09h24.45.976,Colour_Asymmetry_Pilot,2022.1.3,Win32,59.56635692,62c50e9c1127f2cd403a315f,0,87,87,83,1,twofour,,,,,,,,,,,,,,,,,,,,,,,,,,,,,,,,,,,,,,,,,,,,,,,,,,,,,,,,,,,,,,,,,,,,,,,,,,,,,,,,,,,,,,,,,,,,,,,,,,,,,,,,,,,,,,,,,,,,,,,,,,,,,,,,,,,,,,,,,,,,,,,,,,,,,,,,,,,,,
,,,,,,5b8e8feeee5b0500010f16d0,62c538b0e11c40b2f02aaeaf,2022-07-06_09h24.45.976,Colour_Asymmetry_Pilot,2022.1.3,Win32,59.56635692,62c50e9c1127f2cd403a315f,0,88,88,59,1,twofour,,,,,,,,,,,,,,,,,,,,,,,,,,,,,,,,,,,,,,,,,,,,,,,,,,,,,,,,,,,,,,,,,,,,,,,,,,,,,,,,,,,,,,,,,,,,,,,,,,,,,,,,,,,,,,,,,,,,,,,,,,,,,,,,,,,,,,,,,,,,,,,,,,,,,,,,,,,,,
,,,,,,5b8e8feeee5b0500010f16d0,62c538b0e11c40b2f02aaeaf,2022-07-06_09h24.45.976,Colour_Asymmetry_Pilot,2022.1.3,Win32,59.56635692,62c50e9c1127f2cd403a315f,0,89,89,120,1,onetwo,,,,,,,,,,,,,,,,,,,,,,,,,,,,,,,,,,,,,,,,,,,,,,,,,,,,,,,,,,,,,,,,,,,,,,,,,,,,,,,,,,,,,,,,,,,,,,,,,,,,,,,,,,,,,,,,,,,,,,,,,,,,,,,,,,,,,,,,,,,,,,,,,,,,,,,,,,,,,
,,,,,,5b8e8feeee5b0500010f16d0,62c538b0e11c40b2f02aaeaf,2022-07-06_09h24.45.976,Colour_Asymmetry_Pilot,2022.1.3,Win32,59.56635692,62c50e9c1127f2cd403a315f,0,90,90,78,1,fourtwo,,,,,,,,,,,,,,,,,,,,,,,,,,,,,,,,,,,,,,,,,,,,,,,,,,,,,,,,,,,,,,,,,,,,,,,,,,,,,,,,,,,,,,,,,,,,,,,,,,,,,,,,,,,,,,,,,,,,,,,,,,,,,,,,,,,,,,,,,,,,,,,,,,,,,,,,,,,,,
,,,,,,5b8e8feeee5b0500010f16d0,62c538b0e11c40b2f02aaeaf,2022-07-06_09h24.45.976,Colour_Asymmetry_Pilot,2022.1.3,Win32,59.56635692,62c50e9c1127f2cd403a315f,0,91,91,45,1,threefour,,,,,,,,,,,,,,,,,,,,,,,,,,,,,,,,,,,,,,,,,,,,,,,,,,,,,,,,,,,,,,,,,,,,,,,,,,,,,,,,,,,,,,,,,,,,,,,,,,,,,,,,,,,,,,,,,,,,,,,,,,,,,,,,,,,,,,,,,,,,,,,,,,,,,,,,,,,,,
,,,,,,5b8e8feeee5b0500010f16d0,62c538b0e11c40b2f02aaeaf,2022-07-06_09h24.45.976,Colour_Asymmetry_Pilot,2022.1.3,Win32,59.56635692,62c50e9c1127f2cd403a315f,0,92,92,13,1,threefour,,,,,,,,,,,,,,,,,,,,,,,,,,,,,,,,,,,,,,,,,,,,,,,,,,,,,,,,,,,,,,,,,,,,,,,,,,,,,,,,,,,,,,,,,,,,,,,,,,,,,,,,,,,,,,,,,,,,,,,,,,,,,,,,,,,,,,,,,,,,,,,,,,,,,,,,,,,,,
,,,,,,5b8e8feeee5b0500010f16d0,62c538b0e11c40b2f02aaeaf,2022-07-06_09h24.45.976,Colour_Asymmetry_Pilot,2022.1.3,Win32,59.56635692,62c50e9c1127f2cd403a315f,0,93,93,158,1,fourtwo,,,,,,,,,,,,,,,,,,,,,,,,,,,,,,,,,,,,,,,,,,,,,,,,,,,,,,,,,,,,,,,,,,,,,,,,,,,,,,,,,,,,,,,,,,,,,,,,,,,,,,,,,,,,,,,,,,,,,,,,,,,,,,,,,,,,,,,,,,,,,,,,,,,,,,,,,,,,,
,,,,,,5b8e8feeee5b0500010f16d0,62c538b0e11c40b2f02aaeaf,2022-07-06_09h24.45.976,Colour_Asymmetry_Pilot,2022.1.3,Win32,59.56635692,62c50e9c1127f2cd403a315f,0,94,94,76,1,threeone,,,,,,,,,,,,,,,,,,,,,,,,,,,,,,,,,,,,,,,,,,,,,,,,,,,,,,,,,,,,,,,,,,,,,,,,,,,,,,,,,,,,,,,,,,,,,,,,,,,,,,,,,,,,,,,,,,,,,,,,,,,,,,,,,,,,,,,,,,,,,,,,,,,,,,,,,,,,,
,,,,,,5b8e8feeee5b0500010f16d0,62c538b0e11c40b2f02aaeaf,2022-07-06_09h24.45.976,Colour_Asymmetry_Pilot,2022.1.3,Win32,59.56635692,62c50e9c1127f2cd403a315f,0,95,95,95,1,fourthree,,,,,,,,,,,,,,,,,,,,,,,,,,,,,,,,,,,,,,,,,,,,,,,,,,,,,,,,,,,,,,,,,,,,,,,,,,,,,,,,,,,,,,,,,,,,,,,,,,,,,,,,,,,,,,,,,,,,,,,,,,,,,,,,,,,,,,,,,,,,,,,,,,,,,,,,,,,,,
,,,,,,5b8e8feeee5b0500010f16d0,62c538b0e11c40b2f02aaeaf,2022-07-06_09h24.45.976,Colour_Asymmetry_Pilot,2022.1.3,Win32,59.56635692,62c50e9c1127f2cd403a315f,0,96,96,16,1,onetwo,,,,,,,,,,,,,,,,,,,,,,,,,,,,,,,,,,,,,,,,,,,,,,,,,,,,,,,,,,,,,,,,,,,,,,,,,,,,,,,,,,,,,,,,,,,,,,,,,,,,,,,,,,,,,,,,,,,,,,,,,,,,,,,,,,,,,,,,,,,,,,,,,,,,,,,,,,,,,
,,,,,,5b8e8feeee5b0500010f16d0,62c538b0e11c40b2f02aaeaf,2022-07-06_09h24.45.976,Colour_Asymmetry_Pilot,2022.1.3,Win32,59.56635692,62c50e9c1127f2cd403a315f,0,97,97,34,1,twoone,,,,,,,,,,,,,,,,,,,,,,,,,,,,,,,,,,,,,,,,,,,,,,,,,,,,,,,,,,,,,,,,,,,,,,,,,,,,,,,,,,,,,,,,,,,,,,,,,,,,,,,,,,,,,,,,,,,,,,,,,,,,,,,,,,,,,,,,,,,,,,,,,,,,,,,,,,,,,
,,,,,,5b8e8feeee5b0500010f16d0,62c538b0e11c40b2f02aaeaf,2022-07-06_09h24.45.976,Colour_Asymmetry_Pilot,2022.1.3,Win32,59.56635692,62c50e9c1127f2cd403a315f,0,98,98,2,1,twoone,,,,,,,,,,,,,,,,,,,,,,,,,,,,,,,,,,,,,,,,,,,,,,,,,,,,,,,,,,,,,,,,,,,,,,,,,,,,,,,,,,,,,,,,,,,,,,,,,,,,,,,,,,,,,,,,,,,,,,,,,,,,,,,,,,,,,,,,,,,,,,,,,,,,,,,,,,,,,
,,,,,,5b8e8feeee5b0500010f16d0,62c538b0e11c40b2f02aaeaf,2022-07-06_09h24.45.976,Colour_Asymmetry_Pilot,2022.1.3,Win32,59.56635692,62c50e9c1127f2cd403a315f,0,99,99,121,1,onethree,,,,,,,,,,,,,,,,,,,,,,,,,,,,,,,,,,,,,,,,,,,,,,,,,,,,,,,,,,,,,,,,,,,,,,,,,,,,,,,,,,,,,,,,,,,,,,,,,,,,,,,,,,,,,,,,,,,,,,,,,,,,,,,,,,,,,,,,,,,,,,,,,,,,,,,,,,,,,
,,,,,,5b8e8feeee5b0500010f16d0,62c538b0e11c40b2f02aaeaf,2022-07-06_09h24.45.976,Colour_Asymmetry_Pilot,2022.1.3,Win32,59.56635692,62c50e9c1127f2cd403a315f,0,100,100,145,1,onethree,,,,,,,,,,,,,,,,,,,,,,,,,,,,,,,,,,,,,,,,,,,,,,,,,,,,,,,,,,,,,,,,,,,,,,,,,,,,,,,,,,,,,,,,,,,,,,,,,,,,,,,,,,,,,,,,,,,,,,,,,,,,,,,,,,,,,,,,,,,,,,,,,,,,,,,,,,,,,
,,,,,,5b8e8feeee5b0500010f16d0,62c538b0e11c40b2f02aaeaf,2022-07-06_09h24.45.976,Colour_Asymmetry_Pilot,2022.1.3,Win32,59.56635692,62c50e9c1127f2cd403a315f,0,101,101,65,1,onethree,,,,,,,,,,,,,,,,,,,,,,,,,,,,,,,,,,,,,,,,,,,,,,,,,,,,,,,,,,,,,,,,,,,,,,,,,,,,,,,,,,,,,,,,,,,,,,,,,,,,,,,,,,,,,,,,,,,,,,,,,,,,,,,,,,,,,,,,,,,,,,,,,,,,,,,,,,,,,
,,,,,,5b8e8feeee5b0500010f16d0,62c538b0e11c40b2f02aaeaf,2022-07-06_09h24.45.976,Colour_Asymmetry_Pilot,2022.1.3,Win32,59.56635692,62c50e9c1127f2cd403a315f,0,102,102,82,1,twoone,,,,,,,,,,,,,,,,,,,,,,,,,,,,,,,,,,,,,,,,,,,,,,,,,,,,,,,,,,,,,,,,,,,,,,,,,,,,,,,,,,,,,,,,,,,,,,,,,,,,,,,,,,,,,,,,,,,,,,,,,,,,,,,,,,,,,,,,,,,,,,,,,,,,,,,,,,,,,
,,,,,,5b8e8feeee5b0500010f16d0,62c538b0e11c40b2f02aaeaf,2022-07-06_09h24.45.976,Colour_Asymmetry_Pilot,2022.1.3,Win32,59.56635692,62c50e9c1127f2cd403a315f,0,103,103,73,1,onethree,,,,,,,,,,,,,,,,,,,,,,,,,,,,,,,,,,,,,,,,,,,,,,,,,,,,,,,,,,,,,,,,,,,,,,,,,,,,,,,,,,,,,,,,,,,,,,,,,,,,,,,,,,,,,,,,,,,,,,,,,,,,,,,,,,,,,,,,,,,,,,,,,,,,,,,,,,,,,
,,,,,,5b8e8feeee5b0500010f16d0,62c538b0e11c40b2f02aaeaf,2022-07-06_09h24.45.976,Colour_Asymmetry_Pilot,2022.1.3,Win32,59.56635692,62c50e9c1127f2cd403a315f,0,104,104,99,1,twofour,,,,,,,,,,,,,,,,,,,,,,,,,,,,,,,,,,,,,,,,,,,,,,,,,,,,,,,,,,,,,,,,,,,,,,,,,,,,,,,,,,,,,,,,,,,,,,,,,,,,,,,,,,,,,,,,,,,,,,,,,,,,,,,,,,,,,,,,,,,,,,,,,,,,,,,,,,,,,
,,,,,,5b8e8feeee5b0500010f16d0,62c538b0e11c40b2f02aaeaf,2022-07-06_09h24.45.976,Colour_Asymmetry_Pilot,2022.1.3,Win32,59.56635692,62c50e9c1127f2cd403a315f,0,105,105,55,1,fourthree,,,,,,,,,,,,,,,,,,,,,,,,,,,,,,,,,,,,,,,,,,,,,,,,,,,,,,,,,,,,,,,,,,,,,,,,,,,,,,,,,,,,,,,,,,,,,,,,,,,,,,,,,,,,,,,,,,,,,,,,,,,,,,,,,,,,,,,,,,,,,,,,,,,,,,,,,,,,,
,,,,,,5b8e8feeee5b0500010f16d0,62c538b0e11c40b2f02aaeaf,2022-07-06_09h24.45.976,Colour_Asymmetry_Pilot,2022.1.3,Win32,59.56635692,62c50e9c1127f2cd403a315f,0,106,106,116,1,threeone,,,,,,,,,,,,,,,,,,,,,,,,,,,,,,,,,,,,,,,,,,,,,,,,,,,,,,,,,,,,,,,,,,,,,,,,,,,,,,,,,,,,,,,,,,,,,,,,,,,,,,,,,,,,,,,,,,,,,,,,,,,,,,,,,,,,,,,,,,,,,,,,,,,,,,,,,,,,,
,,,,,,5b8e8feeee5b0500010f16d0,62c538b0e11c40b2f02aaeaf,2022-07-06_09h24.45.976,Colour_Asymmetry_Pilot,2022.1.3,Win32,59.56635692,62c50e9c1127f2cd403a315f,0,107,107,134,1,fourtwo,,,,,,,,,,,,,,,,,,,,,,,,,,,,,,,,,,,,,,,,,,,,,,,,,,,,,,,,,,,,,,,,,,,,,,,,,,,,,,,,,,,,,,,,,,,,,,,,,,,,,,,,,,,,,,,,,,,,,,,,,,,,,,,,,,,,,,,,,,,,,,,,,,,,,,,,,,,,,
,,,,,,5b8e8feeee5b0500010f16d0,62c538b0e11c40b2f02aaeaf,2022-07-06_09h24.45.976,Colour_Asymmetry_Pilot,2022.1.3,Win32,59.56635692,62c50e9c1127f2cd403a315f,0,108,108,156,1,threeone,,,,,,,,,,,,,,,,,,,,,,,,,,,,,,,,,,,,,,,,,,,,,,,,,,,,,,,,,,,,,,,,,,,,,,,,,,,,,,,,,,,,,,,,,,,,,,,,,,,,,,,,,,,,,,,,,,,,,,,,,,,,,,,,,,,,,,,,,,,,,,,,,,,,,,,,,,,,,
,,,,,,5b8e8feeee5b0500010f16d0,62c538b0e11c40b2f02aaeaf,2022-07-06_09h24.45.976,Colour_Asymmetry_Pilot,2022.1.3,Win32,59.56635692,62c50e9c1127f2cd403a315f,0,109,109,93,1,threefour,,,,,,,,,,,,,,,,,,,,,,,,,,,,,,,,,,,,,,,,,,,,,,,,,,,,,,,,,,,,,,,,,,,,,,,,,,,,,,,,,,,,,,,,,,,,,,,,,,,,,,,,,,,,,,,,,,,,,,,,,,,,,,,,,,,,,,,,,,,,,,,,,,,,,,,,,,,,,
,,,,,,5b8e8feeee5b0500010f16d0,62c538b0e11c40b2f02aaeaf,2022-07-06_09h24.45.976,Colour_Asymmetry_Pilot,2022.1.3,Win32,59.56635692,62c50e9c1127f2cd403a315f,0,110,110,12,1,threeone,,,,,,,,,,,,,,,,,,,,,,,,,,,,,,,,,,,,,,,,,,,,,,,,,,,,,,,,,,,,,,,,,,,,,,,,,,,,,,,,,,,,,,,,,,,,,,,,,,,,,,,,,,,,,,,,,,,,,,,,,,,,,,,,,,,,,,,,,,,,,,,,,,,,,,,,,,,,,
,,,,,,5b8e8feeee5b0500010f16d0,62c538b0e11c40b2f02aaeaf,2022-07-06_09h24.45.976,Colour_Asymmetry_Pilot,2022.1.3,Win32,59.56635692,62c50e9c1127f2cd403a315f,0,111,111,64,1,onetwo,,,,,,,,,,,,,,,,,,,,,,,,,,,,,,,,,,,,,,,,,,,,,,,,,,,,,,,,,,,,,,,,,,,,,,,,,,,,,,,,,,,,,,,,,,,,,,,,,,,,,,,,,,,,,,,,,,,,,,,,,,,,,,,,,,,,,,,,,,,,,,,,,,,,,,,,,,,,,
,,,,,,5b8e8feeee5b0500010f16d0,62c538b0e11c40b2f02aaeaf,2022-07-06_09h24.45.976,Colour_Asymmetry_Pilot,2022.1.3,Win32,59.56635692,62c50e9c1127f2cd403a315f,0,112,112,26,1,twoone,,,,,,,,,,,,,,,,,,,,,,,,,,,,,,,,,,,,,,,,,,,,,,,,,,,,,,,,,,,,,,,,,,,,,,,,,,,,,,,,,,,,,,,,,,,,,,,,,,,,,,,,,,,,,,,,,,,,,,,,,,,,,,,,,,,,,,,,,,,,,,,,,,,,,,,,,,,,,
,,,,,,5b8e8feeee5b0500010f16d0,62c538b0e11c40b2f02aaeaf,2022-07-06_09h24.45.976,Colour_Asymmetry_Pilot,2022.1.3,Win32,59.56635692,62c50e9c1127f2cd403a315f,0,113,113,10,1,twoone,,,,,,,,,,,,,,,,,,,,,,,,,,,,,,,,,,,,,,,,,,,,,,,,,,,,,,,,,,,,,,,,,,,,,,,,,,,,,,,,,,,,,,,,,,,,,,,,,,,,,,,,,,,,,,,,,,,,,,,,,,,,,,,,,,,,,,,,,,,,,,,,,,,,,,,,,,,,,
,,,,,,5b8e8feeee5b0500010f16d0,62c538b0e11c40b2f02aaeaf,2022-07-06_09h24.45.976,Colour_Asymmetry_Pilot,2022.1.3,Win32,59.56635692,62c50e9c1127f2cd403a315f,0,114,114,6,1,fourtwo,,,,,,,,,,,,,,,,,,,,,,,,,,,,,,,,,,,,,,,,,,,,,,,,,,,,,,,,,,,,,,,,,,,,,,,,,,,,,,,,,,,,,,,,,,,,,,,,,,,,,,,,,,,,,,,,,,,,,,,,,,,,,,,,,,,,,,,,,,,,,,,,,,,,,,,,,,,,,
,,,,,,5b8e8feeee5b0500010f16d0,62c538b0e11c40b2f02aaeaf,2022-07-06_09h24.45.976,Colour_Asymmetry_Pilot,2022.1.3,Win32,59.56635692,62c50e9c1127f2cd403a315f,0,115,115,9,1,onethree,,,,,,,,,,,,,,,,,,,,,,,,,,,,,,,,,,,,,,,,,,,,,,,,,,,,,,,,,,,,,,,,,,,,,,,,,,,,,,,,,,,,,,,,,,,,,,,,,,,,,,,,,,,,,,,,,,,,,,,,,,,,,,,,,,,,,,,,,,,,,,,,,,,,,,,,,,,,,
,,,,,,5b8e8feeee5b0500010f16d0,62c538b0e11c40b2f02aaeaf,2022-07-06_09h24.45.976,Colour_Asymmetry_Pilot,2022.1.3,Win32,59.56635692,62c50e9c1127f2cd403a315f,0,116,116,107,1,twofour,,,,,,,,,,,,,,,,,,,,,,,,,,,,,,,,,,,,,,,,,,,,,,,,,,,,,,,,,,,,,,,,,,,,,,,,,,,,,,,,,,,,,,,,,,,,,,,,,,,,,,,,,,,,,,,,,,,,,,,,,,,,,,,,,,,,,,,,,,,,,,,,,,,,,,,,,,,,,
,,,,,,5b8e8feeee5b0500010f16d0,62c538b0e11c40b2f02aaeaf,2022-07-06_09h24.45.976,Colour_Asymmetry_Pilot,2022.1.3,Win32,59.56635692,62c50e9c1127f2cd403a315f,0,117,117,151,1,fourthree,,,,,,,,,,,,,,,,,,,,,,,,,,,,,,,,,,,,,,,,,,,,,,,,,,,,,,,,,,,,,,,,,,,,,,,,,,,,,,,,,,,,,,,,,,,,,,,,,,,,,,,,,,,,,,,,,,,,,,,,,,,,,,,,,,,,,,,,,,,,,,,,,,,,,,,,,,,,,
,,,,,,5b8e8feeee5b0500010f16d0,62c538b0e11c40b2f02aaeaf,2022-07-06_09h24.45.976,Colour_Asymmetry_Pilot,2022.1.3,Win32,59.56635692,62c50e9c1127f2cd403a315f,0,118,118,5,1,threefour,,,,,,,,,,,,,,,,,,,,,,,,,,,,,,,,,,,,,,,,,,,,,,,,,,,,,,,,,,,,,,,,,,,,,,,,,,,,,,,,,,,,,,,,,,,,,,,,,,,,,,,,,,,,,,,,,,,,,,,,,,,,,,,,,,,,,,,,,,,,,,,,,,,,,,,,,,,,,
,,,,,,5b8e8feeee5b0500010f16d0,62c538b0e11c40b2f02aaeaf,2022-07-06_09h24.45.976,Colour_Asymmetry_Pilot,2022.1.3,Win32,59.56635692,62c50e9c1127f2cd403a315f,0,119,119,36,1,threeone,,,,,,,,,,,,,,,,,,,,,,,,,,,,,,,,,,,,,,,,,,,,,,,,,,,,,,,,,,,,,,,,,,,,,,,,,,,,,,,,,,,,,,,,,,,,,,,,,,,,,,,,,,,,,,,,,,,,,,,,,,,,,,,,,,,,,,,,,,,,,,,,,,,,,,,,,,,,,
,,,,,,5b8e8feeee5b0500010f16d0,62c538b0e11c40b2f02aaeaf,2022-07-06_09h24.45.976,Colour_Asymmetry_Pilot,2022.1.3,Win32,59.56635692,62c50e9c1127f2cd403a315f,0,120,120,125,1,threefour,,,,,,,,,,,,,,,,,,,,,,,,,,,,,,,,,,,,,,,,,,,,,,,,,,,,,,,,,,,,,,,,,,,,,,,,,,,,,,,,,,,,,,,,,,,,,,,,,,,,,,,,,,,,,,,,,,,,,,,,,,,,,,,,,,,,,,,,,,,,,,,,,,,,,,,,,,,,,
,,,,,,5b8e8feeee5b0500010f16d0,62c538b0e11c40b2f02aaeaf,2022-07-06_09h24.45.976,Colour_Asymmetry_Pilot,2022.1.3,Win32,59.56635692,62c50e9c1127f2cd403a315f,0,121,121,56,1,onetwo,,,,,,,,,,,,,,,,,,,,,,,,,,,,,,,,,,,,,,,,,,,,,,,,,,,,,,,,,,,,,,,,,,,,,,,,,,,,,,,,,,,,,,,,,,,,,,,,,,,,,,,,,,,,,,,,,,,,,,,,,,,,,,,,,,,,,,,,,,,,,,,,,,,,,,,,,,,,,
,,,,,,5b8e8feeee5b0500010f16d0,62c538b0e11c40b2f02aaeaf,2022-07-06_09h24.45.976,Colour_Asymmetry_Pilot,2022.1.3,Win32,59.56635692,62c50e9c1127f2cd403a315f,0,122,122,85,1,threefour,,,,,,,,,,,,,,,,,,,,,,,,,,,,,,,,,,,,,,,,,,,,,,,,,,,,,,,,,,,,,,,,,,,,,,,,,,,,,,,,,,,,,,,,,,,,,,,,,,,,,,,,,,,,,,,,,,,,,,,,,,,,,,,,,,,,,,,,,,,,,,,,,,,,,,,,,,,,,
,,,,,,5b8e8feeee5b0500010f16d0,62c538b0e11c40b2f02aaeaf,2022-07-06_09h24.45.976,Colour_Asymmetry_Pilot,2022.1.3,Win32,59.56635692,62c50e9c1127f2cd403a315f,0,123,123,75,1,twofour,,,,,,,,,,,,,,,,,,,,,,,,,,,,,,,,,,,,,,,,,,,,,,,,,,,,,,,,,,,,,,,,,,,,,,,,,,,,,,,,,,,,,,,,,,,,,,,,,,,,,,,,,,,,,,,,,,,,,,,,,,,,,,,,,,,,,,,,,,,,,,,,,,,,,,,,,,,,,
,,,,,,5b8e8feeee5b0500010f16d0,62c538b0e11c40b2f02aaeaf,2022-07-06_09h24.45.976,Colour_Asymmetry_Pilot,2022.1.3,Win32,59.56635692,62c50e9c1127f2cd403a315f,0,124,124,104,1,onetwo,,,,,,,,,,,,,,,,,,,,,,,,,,,,,,,,,,,,,,,,,,,,,,,,,,,,,,,,,,,,,,,,,,,,,,,,,,,,,,,,,,,,,,,,,,,,,,,,,,,,,,,,,,,,,,,,,,,,,,,,,,,,,,,,,,,,,,,,,,,,,,,,,,,,,,,,,,,,,
,,,,,,5b8e8feeee5b0500010f16d0,62c538b0e11c40b2f02aaeaf,2022-07-06_09h24.45.976,Colour_Asymmetry_Pilot,2022.1.3,Win32,59.56635692,62c50e9c1127f2cd403a315f,0,125,125,136,1,onetwo,,,,,,,,,,,,,,,,,,,,,,,,,,,,,,,,,,,,,,,,,,,,,,,,,,,,,,,,,,,,,,,,,,,,,,,,,,,,,,,,,,,,,,,,,,,,,,,,,,,,,,,,,,,,,,,,,,,,,,,,,,,,,,,,,,,,,,,,,,,,,,,,,,,,,,,,,,,,,
,,,,,,5b8e8feeee5b0500010f16d0,62c538b0e11c40b2f02aaeaf,2022-07-06_09h24.45.976,Colour_Asymmetry_Pilot,2022.1.3,Win32,59.56635692,62c50e9c1127f2cd403a315f,0,126,126,18,1,twoone,,,,,,,,,,,,,,,,,,,,,,,,,,,,,,,,,,,,,,,,,,,,,,,,,,,,,,,,,,,,,,,,,,,,,,,,,,,,,,,,,,,,,,,,,,,,,,,,,,,,,,,,,,,,,,,,,,,,,,,,,,,,,,,,,,,,,,,,,,,,,,,,,,,,,,,,,,,,,
,,,,,,5b8e8feeee5b0500010f16d0,62c538b0e11c40b2f02aaeaf,2022-07-06_09h24.45.976,Colour_Asymmetry_Pilot,2022.1.3,Win32,59.56635692,62c50e9c1127f2cd403a315f,0,127,127,111,1,fourthree,,,,,,,,,,,,,,,,,,,,,,,,,,,,,,,,,,,,,,,,,,,,,,,,,,,,,,,,,,,,,,,,,,,,,,,,,,,,,,,,,,,,,,,,,,,,,,,,,,,,,,,,,,,,,,,,,,,,,,,,,,,,,,,,,,,,,,,,,,,,,,,,,,,,,,,,,,,,,
,,,,,,5b8e8feeee5b0500010f16d0,62c538b0e11c40b2f02aaeaf,2022-07-06_09h24.45.976,Colour_Asymmetry_Pilot,2022.1.3,Win32,59.56635692,62c50e9c1127f2cd403a315f,0,128,128,27,1,twofour,,,,,,,,,,,,,,,,,,,,,,,,,,,,,,,,,,,,,,,,,,,,,,,,,,,,,,,,,,,,,,,,,,,,,,,,,,,,,,,,,,,,,,,,,,,,,,,,,,,,,,,,,,,,,,,,,,,,,,,,,,,,,,,,,,,,,,,,,,,,,,,,,,,,,,,,,,,,,
,,,,,,5b8e8feeee5b0500010f16d0,62c538b0e11c40b2f02aaeaf,2022-07-06_09h24.45.976,Colour_Asymmetry_Pilot,2022.1.3,Win32,59.56635692,62c50e9c1127f2cd403a315f,0,129,129,90,1,twoone,,,,,,,,,,,,,,,,,,,,,,,,,,,,,,,,,,,,,,,,,,,,,,,,,,,,,,,,,,,,,,,,,,,,,,,,,,,,,,,,,,,,,,,,,,,,,,,,,,,,,,,,,,,,,,,,,,,,,,,,,,,,,,,,,,,,,,,,,,,,,,,,,,,,,,,,,,,,,
,,,,,,5b8e8feeee5b0500010f16d0,62c538b0e11c40b2f02aaeaf,2022-07-06_09h24.45.976,Colour_Asymmetry_Pilot,2022.1.3,Win32,59.56635692,62c50e9c1127f2cd403a315f,0,130,130,119,1,fourthree,,,,,,,,,,,,,,,,,,,,,,,,,,,,,,,,,,,,,,,,,,,,,,,,,,,,,,,,,,,,,,,,,,,,,,,,,,,,,,,,,,,,,,,,,,,,,,,,,,,,,,,,,,,,,,,,,,,,,,,,,,,,,,,,,,,,,,,,,,,,,,,,,,,,,,,,,,,,,
,,,,,,5b8e8feeee5b0500010f16d0,62c538b0e11c40b2f02aaeaf,2022-07-06_09h24.45.976,Colour_Asymmetry_Pilot,2022.1.3,Win32,59.56635692,62c50e9c1127f2cd403a315f,0,131,131,8,1,onetwo,,,,,,,,,,,,,,,,,,,,,,,,,,,,,,,,,,,,,,,,,,,,,,,,,,,,,,,,,,,,,,,,,,,,,,,,,,,,,,,,,,,,,,,,,,,,,,,,,,,,,,,,,,,,,,,,,,,,,,,,,,,,,,,,,,,,,,,,,,,,,,,,,,,,,,,,,,,,,
,,,,,,5b8e8feeee5b0500010f16d0,62c538b0e11c40b2f02aaeaf,2022-07-06_09h24.45.976,Colour_Asymmetry_Pilot,2022.1.3,Win32,59.56635692,62c50e9c1127f2cd403a315f,0,132,132,138,1,twoone,,,,,,,,,,,,,,,,,,,,,,,,,,,,,,,,,,,,,,,,,,,,,,,,,,,,,,,,,,,,,,,,,,,,,,,,,,,,,,,,,,,,,,,,,,,,,,,,,,,,,,,,,,,,,,,,,,,,,,,,,,,,,,,,,,,,,,,,,,,,,,,,,,,,,,,,,,,,,
,,,,,,5b8e8feeee5b0500010f16d0,62c538b0e11c40b2f02aaeaf,2022-07-06_09h24.45.976,Colour_Asymmetry_Pilot,2022.1.3,Win32,59.56635692,62c50e9c1127f2cd403a315f,0,133,133,71,1,fourthree,,,,,,,,,,,,,,,,,,,,,,,,,,,,,,,,,,,,,,,,,,,,,,,,,,,,,,,,,,,,,,,,,,,,,,,,,,,,,,,,,,,,,,,,,,,,,,,,,,,,,,,,,,,,,,,,,,,,,,,,,,,,,,,,,,,,,,,,,,,,,,,,,,,,,,,,,,,,,
,,,,,,5b8e8feeee5b0500010f16d0,62c538b0e11c40b2f02aaeaf,2022-07-06_09h24.45.976,Colour_Asymmetry_Pilot,2022.1.3,Win32,59.56635692,62c50e9c1127f2cd403a315f,0,134,134,4,1,threeone,,,,,,,,,,,,,,,,,,,,,,,,,,,,,,,,,,,,,,,,,,,,,,,,,,,,,,,,,,,,,,,,,,,,,,,,,,,,,,,,,,,,,,,,,,,,,,,,,,,,,,,,,,,,,,,,,,,,,,,,,,,,,,,,,,,,,,,,,,,,,,,,,,,,,,,,,,,,,
,,,,,,5b8e8feeee5b0500010f16d0,62c538b0e11c40b2f02aaeaf,2022-07-06_09h24.45.976,Colour_Asymmetry_Pilot,2022.1.3,Win32,59.56635692,62c50e9c1127f2cd403a315f,0,135,135,37,1,threefour,,,,,,,,,,,,,,,,,,,,,,,,,,,,,,,,,,,,,,,,,,,,,,,,,,,,,,,,,,,,,,,,,,,,,,,,,,,,,,,,,,,,,,,,,,,,,,,,,,,,,,,,,,,,,,,,,,,,,,,,,,,,,,,,,,,,,,,,,,,,,,,,,,,,,,,,,,,,,
,,,,,,5b8e8feeee5b0500010f16d0,62c538b0e11c40b2f02aaeaf,2022-07-06_09h24.45.976,Colour_Asymmetry_Pilot,2022.1.3,Win32,59.56635692,62c50e9c1127f2cd403a315f,0,136,136,133,1,threefour,,,,,,,,,,,,,,,,,,,,,,,,,,,,,,,,,,,,,,,,,,,,,,,,,,,,,,,,,,,,,,,,,,,,,,,,,,,,,,,,,,,,,,,,,,,,,,,,,,,,,,,,,,,,,,,,,,,,,,,,,,,,,,,,,,,,,,,,,,,,,,,,,,,,,,,,,,,,,
,,,,,,5b8e8feeee5b0500010f16d0,62c538b0e11c40b2f02aaeaf,2022-07-06_09h24.45.976,Colour_Asymmetry_Pilot,2022.1.3,Win32,59.56635692,62c50e9c1127f2cd403a315f,0,137,137,130,1,twoone,,,,,,,,,,,,,,,,,,,,,,,,,,,,,,,,,,,,,,,,,,,,,,,,,,,,,,,,,,,,,,,,,,,,,,,,,,,,,,,,,,,,,,,,,,,,,,,,,,,,,,,,,,,,,,,,,,,,,,,,,,,,,,,,,,,,,,,,,,,,,,,,,,,,,,,,,,,,,
,,,,,,5b8e8feeee5b0500010f16d0,62c538b0e11c40b2f02aaeaf,2022-07-06_09h24.45.976,Colour_Asymmetry_Pilot,2022.1.3,Win32,59.56635692,62c50e9c1127f2cd403a315f,0,138,138,48,1,onetwo,,,,,,,,,,,,,,,,,,,,,,,,,,,,,,,,,,,,,,,,,,,,,,,,,,,,,,,,,,,,,,,,,,,,,,,,,,,,,,,,,,,,,,,,,,,,,,,,,,,,,,,,,,,,,,,,,,,,,,,,,,,,,,,,,,,,,,,,,,,,,,,,,,,,,,,,,,,,,
,,,,,,5b8e8feeee5b0500010f16d0,62c538b0e11c40b2f02aaeaf,2022-07-06_09h24.45.976,Colour_Asymmetry_Pilot,2022.1.3,Win32,59.56635692,62c50e9c1127f2cd403a315f,0,139,139,23,1,fourthree,,,,,,,,,,,,,,,,,,,,,,,,,,,,,,,,,,,,,,,,,,,,,,,,,,,,,,,,,,,,,,,,,,,,,,,,,,,,,,,,,,,,,,,,,,,,,,,,,,,,,,,,,,,,,,,,,,,,,,,,,,,,,,,,,,,,,,,,,,,,,,,,,,,,,,,,,,,,,
,,,,,,5b8e8feeee5b0500010f16d0,62c538b0e11c40b2f02aaeaf,2022-07-06_09h24.45.976,Colour_Asymmetry_Pilot,2022.1.3,Win32,59.56635692,62c50e9c1127f2cd403a315f,0,140,140,143,1,fourthree,,,,,,,,,,,,,,,,,,,,,,,,,,,,,,,,,,,,,,,,,,,,,,,,,,,,,,,,,,,,,,,,,,,,,,,,,,,,,,,,,,,,,,,,,,,,,,,,,,,,,,,,,,,,,,,,,,,,,,,,,,,,,,,,,,,,,,,,,,,,,,,,,,,,,,,,,,,,,
,,,,,,5b8e8feeee5b0500010f16d0,62c538b0e11c40b2f02aaeaf,2022-07-06_09h24.45.976,Colour_Asymmetry_Pilot,2022.1.3,Win32,59.56635692,62c50e9c1127f2cd403a315f,0,141,141,112,1,onetwo,,,,,,,,,,,,,,,,,,,,,,,,,,,,,,,,,,,,,,,,,,,,,,,,,,,,,,,,,,,,,,,,,,,,,,,,,,,,,,,,,,,,,,,,,,,,,,,,,,,,,,,,,,,,,,,,,,,,,,,,,,,,,,,,,,,,,,,,,,,,,,,,,,,,,,,,,,,,,
,,,,,,5b8e8feeee5b0500010f16d0,62c538b0e11c40b2f02aaeaf,2022-07-06_09h24.45.976,Colour_Asymmetry_Pilot,2022.1.3,Win32,59.56635692,62c50e9c1127f2cd403a315f,0,142,142,126,1,fourtwo,,,,,,,,,,,,,,,,,,,,,,,,,,,,,,,,,,,,,,,,,,,,,,,,,,,,,,,,,,,,,,,,,,,,,,,,,,,,,,,,,,,,,,,,,,,,,,,,,,,,,,,,,,,,,,,,,,,,,,,,,,,,,,,,,,,,,,,,,,,,,,,,,,,,,,,,,,,,,
,,,,,,5b8e8feeee5b0500010f16d0,62c538b0e11c40b2f02aaeaf,2022-07-06_09h24.45.976,Colour_Asymmetry_Pilot,2022.1.3,Win32,59.56635692,62c50e9c1127f2cd403a315f,0,143,143,135,1,fourthree,,,,,,,,,,,,,,,,,,,,,,,,,,,,,,,,,,,,,,,,,,,,,,,,,,,,,,,,,,,,,,,,,,,,,,,,,,,,,,,,,,,,,,,,,,,,,,,,,,,,,,,,,,,,,,,,,,,,,,,,,,,,,,,,,,,,,,,,,,,,,,,,,,,,,,,,,,,,,
,,,,,,5b8e8feeee5b0500010f16d0,62c538b0e11c40b2f02aaeaf,2022-07-06_09h24.45.976,Colour_Asymmetry_Pilot,2022.1.3,Win32,59.56635692,62c50e9c1127f2cd403a315f,0,144,144,54,1,fourtwo,,,,,,,,,,,,,,,,,,,,,,,,,,,,,,,,,,,,,,,,,,,,,,,,,,,,,,,,,,,,,,,,,,,,,,,,,,,,,,,,,,,,,,,,,,,,,,,,,,,,,,,,,,,,,,,,,,,,,,,,,,,,,,,,,,,,,,,,,,,,,,,,,,,,,,,,,,,,,
,,,,,,5b8e8feeee5b0500010f16d0,62c538b0e11c40b2f02aaeaf,2022-07-06_09h24.45.976,Colour_Asymmetry_Pilot,2022.1.3,Win32,59.56635692,62c50e9c1127f2cd403a315f,0,145,145,66,1,twoone,,,,,,,,,,,,,,,,,,,,,,,,,,,,,,,,,,,,,,,,,,,,,,,,,,,,,,,,,,,,,,,,,,,,,,,,,,,,,,,,,,,,,,,,,,,,,,,,,,,,,,,,,,,,,,,,,,,,,,,,,,,,,,,,,,,,,,,,,,,,,,,,,,,,,,,,,,,,,
,,,,,,5b8e8feeee5b0500010f16d0,62c538b0e11c40b2f02aaeaf,2022-07-06_09h24.45.976,Colour_Asymmetry_Pilot,2022.1.3,Win32,59.56635692,62c50e9c1127f2cd403a315f,0,146,146,79,1,fourthree,,,,,,,,,,,,,,,,,,,,,,,,,,,,,,,,,,,,,,,,,,,,,,,,,,,,,,,,,,,,,,,,,,,,,,,,,,,,,,,,,,,,,,,,,,,,,,,,,,,,,,,,,,,,,,,,,,,,,,,,,,,,,,,,,,,,,,,,,,,,,,,,,,,,,,,,,,,,,
,,,,,,5b8e8feeee5b0500010f16d0,62c538b0e11c40b2f02aaeaf,2022-07-06_09h24.45.976,Colour_Asymmetry_Pilot,2022.1.3,Win32,59.56635692,62c50e9c1127f2cd403a315f,0,147,147,33,1,onethree,,,,,,,,,,,,,,,,,,,,,,,,,,,,,,,,,,,,,,,,,,,,,,,,,,,,,,,,,,,,,,,,,,,,,,,,,,,,,,,,,,,,,,,,,,,,,,,,,,,,,,,,,,,,,,,,,,,,,,,,,,,,,,,,,,,,,,,,,,,,,,,,,,,,,,,,,,,,,
,,,,,,5b8e8feeee5b0500010f16d0,62c538b0e11c40b2f02aaeaf,2022-07-06_09h24.45.976,Colour_Asymmetry_Pilot,2022.1.3,Win32,59.56635692,62c50e9c1127f2cd403a315f,0,148,148,31,1,fourthree,,,,,,,,,,,,,,,,,,,,,,,,,,,,,,,,,,,,,,,,,,,,,,,,,,,,,,,,,,,,,,,,,,,,,,,,,,,,,,,,,,,,,,,,,,,,,,,,,,,,,,,,,,,,,,,,,,,,,,,,,,,,,,,,,,,,,,,,,,,,,,,,,,,,,,,,,,,,,
,,,,,,5b8e8feeee5b0500010f16d0,62c538b0e11c40b2f02aaeaf,2022-07-06_09h24.45.976,Colour_Asymmetry_Pilot,2022.1.3,Win32,59.56635692,62c50e9c1127f2cd403a315f,0,149,149,84,1,threeone,,,,,,,,,,,,,,,,,,,,,,,,,,,,,,,,,,,,,,,,,,,,,,,,,,,,,,,,,,,,,,,,,,,,,,,,,,,,,,,,,,,,,,,,,,,,,,,,,,,,,,,,,,,,,,,,,,,,,,,,,,,,,,,,,,,,,,,,,,,,,,,,,,,,,,,,,,,,,
,,,,,,5b8e8feeee5b0500010f16d0,62c538b0e11c40b2f02aaeaf,2022-07-06_09h24.45.976,Colour_Asymmetry_Pilot,2022.1.3,Win32,59.56635692,62c50e9c1127f2cd403a315f,0,150,150,20,1,threeone,,,,,,,,,,,,,,,,,,,,,,,,,,,,,,,,,,,,,,,,,,,,,,,,,,,,,,,,,,,,,,,,,,,,,,,,,,,,,,,,,,,,,,,,,,,,,,,,,,,,,,,,,,,,,,,,,,,,,,,,,,,,,,,,,,,,,,,,,,,,,,,,,,,,,,,,,,,,,
,,,,,,5b8e8feeee5b0500010f16d0,62c538b0e11c40b2f02aaeaf,2022-07-06_09h24.45.976,Colour_Asymmetry_Pilot,2022.1.3,Win32,59.56635692,62c50e9c1127f2cd403a315f,0,151,151,22,1,fourtwo,,,,,,,,,,,,,,,,,,,,,,,,,,,,,,,,,,,,,,,,,,,,,,,,,,,,,,,,,,,,,,,,,,,,,,,,,,,,,,,,,,,,,,,,,,,,,,,,,,,,,,,,,,,,,,,,,,,,,,,,,,,,,,,,,,,,,,,,,,,,,,,,,,,,,,,,,,,,,
,,,,,,5b8e8feeee5b0500010f16d0,62c538b0e11c40b2f02aaeaf,2022-07-06_09h24.45.976,Colour_Asymmetry_Pilot,2022.1.3,Win32,59.56635692,62c50e9c1127f2cd403a315f,0,152,152,3,1,twofour,,,,,,,,,,,,,,,,,,,,,,,,,,,,,,,,,,,,,,,,,,,,,,,,,,,,,,,,,,,,,,,,,,,,,,,,,,,,,,,,,,,,,,,,,,,,,,,,,,,,,,,,,,,,,,,,,,,,,,,,,,,,,,,,,,,,,,,,,,,,,,,,,,,,,,,,,,,,,
,,,,,,5b8e8feeee5b0500010f16d0,62c538b0e11c40b2f02aaeaf,2022-07-06_09h24.45.976,Colour_Asymmetry_Pilot,2022.1.3,Win32,59.56635692,62c50e9c1127f2cd403a315f,0,153,153,61,1,threefour,,,,,,,,,,,,,,,,,,,,,,,,,,,,,,,,,,,,,,,,,,,,,,,,,,,,,,,,,,,,,,,,,,,,,,,,,,,,,,,,,,,,,,,,,,,,,,,,,,,,,,,,,,,,,,,,,,,,,,,,,,,,,,,,,,,,,,,,,,,,,,,,,,,,,,,,,,,,,
,,,,,,5b8e8feeee5b0500010f16d0,62c538b0e11c40b2f02aaeaf,2022-07-06_09h24.45.976,Colour_Asymmetry_Pilot,2022.1.3,Win32,59.56635692,62c50e9c1127f2cd403a315f,0,154,154,137,1,onethree,,,,,,,,,,,,,,,,,,,,,,,,,,,,,,,,,,,,,,,,,,,,,,,,,,,,,,,,,,,,,,,,,,,,,,,,,,,,,,,,,,,,,,,,,,,,,,,,,,,,,,,,,,,,,,,,,,,,,,,,,,,,,,,,,,,,,,,,,,,,,,,,,,,,,,,,,,,,,
,,,,,,5b8e8feeee5b0500010f16d0,62c538b0e11c40b2f02aaeaf,2022-07-06_09h24.45.976,Colour_Asymmetry_Pilot,2022.1.3,Win32,59.56635692,62c50e9c1127f2cd403a315f,0,155,155,124,1,threeone,,,,,,,,,,,,,,,,,,,,,,,,,,,,,,,,,,,,,,,,,,,,,,,,,,,,,,,,,,,,,,,,,,,,,,,,,,,,,,,,,,,,,,,,,,,,,,,,,,,,,,,,,,,,,,,,,,,,,,,,,,,,,,,,,,,,,,,,,,,,,,,,,,,,,,,,,,,,,
,,,,,,5b8e8feeee5b0500010f16d0,62c538b0e11c40b2f02aaeaf,2022-07-06_09h24.45.976,Colour_Asymmetry_Pilot,2022.1.3,Win32,59.56635692,62c50e9c1127f2cd403a315f,0,156,156,142,1,fourtwo,,,,,,,,,,,,,,,,,,,,,,,,,,,,,,,,,,,,,,,,,,,,,,,,,,,,,,,,,,,,,,,,,,,,,,,,,,,,,,,,,,,,,,,,,,,,,,,,,,,,,,,,,,,,,,,,,,,,,,,,,,,,,,,,,,,,,,,,,,,,,,,,,,,,,,,,,,,,,
,,,,,,5b8e8feeee5b0500010f16d0,62c538b0e11c40b2f02aaeaf,2022-07-06_09h24.45.976,Colour_Asymmetry_Pilot,2022.1.3,Win32,59.56635692,62c50e9c1127f2cd403a315f,0,157,157,57,1,onethree,,,,,,,,,,,,,,,,,,,,,,,,,,,,,,,,,,,,,,,,,,,,,,,,,,,,,,,,,,,,,,,,,,,,,,,,,,,,,,,,,,,,,,,,,,,,,,,,,,,,,,,,,,,,,,,,,,,,,,,,,,,,,,,,,,,,,,,,,,,,,,,,,,,,,,,,,,,,,
,,,,,,5b8e8feeee5b0500010f16d0,62c538b0e11c40b2f02aaeaf,2022-07-06_09h24.45.976,Colour_Asymmetry_Pilot,2022.1.3,Win32,59.56635692,62c50e9c1127f2cd403a315f,0,158,158,17,1,onethree,,,,,,,,,,,,,,,,,,,,,,,,,,,,,,,,,,,,,,,,,,,,,,,,,,,,,,,,,,,,,,,,,,,,,,,,,,,,,,,,,,,,,,,,,,,,,,,,,,,,,,,,,,,,,,,,,,,,,,,,,,,,,,,,,,,,,,,,,,,,,,,,,,,,,,,,,,,,,
,,,,,,5b8e8feeee5b0500010f16d0,62c538b0e11c40b2f02aaeaf,2022-07-06_09h24.45.976,Colour_Asymmetry_Pilot,2022.1.3,Win32,59.56635692,62c50e9c1127f2cd403a315f,0,159,159,106,1,twoone,,,,,,,,,,,,,,,,,,,,,,,,,,,,,,,,,,,,,,,,,,,,,,,,,,,,,,,,,,,,,,,,,,,,,,,,,,,,,,,,,,,,,,,,,,,,,,,,,,,,,,,,,,,,,,,,,,,,,,,,,,,,,,,,,,,,,,,,,,,,,,,,,,,,,,,,,,,,,
,,,,,,5b8e8feeee5b0500010f16d0,62c538b0e11c40b2f02aaeaf,2022-07-06_09h24.45.976,Colour_Asymmetry_Pilot,2022.1.3,Win32,59.56635692,62c50e9c1127f2cd403a315f,0,160,160,77,1,threefour,,,,,,,,,,,,,,,,,,,,,,,,,,,,,,,,,,,,,,,,,,,,,,,,,,,,,,,,,,,,,,,,,,,,,,,,,,,,,,,,,,,,,,,,,,,,,,,,,,,,,,,,,,,,,,,,,,,,,,,,,,,,,,,,,,,,,,,,,,,,,,,,,,,,,,,,,,,,,
,,,,,,5b8e8feeee5b0500010f16d0,62c538b0e11c40b2f02aaeaf,2022-07-06_09h24.45.976,Colour_Asymmetry_Pilot,2022.1.3,Win32,59.56635692,62c50e9c1127f2cd403a315f,0,161,161,53,1,threefour,,,,,,,,,,,,,,,,,,,,,,,,,,,,,,,,,,,,,,,,,,,,,,,,,,,,,,,,,,,,,,,,,,,,,,,,,,,,,,,,,,,,,,,,,,,,,,,,,,,,,,,,,,,,,,,,,,,,,,,,,,,,,,,,,,,,,,,,,,,,,,,,,,,,,,,,,,,,,
,,,,,,5b8e8feeee5b0500010f16d0,62c538b0e11c40b2f02aaeaf,2022-07-06_09h24.45.976,Colour_Asymmetry_Pilot,2022.1.3,Win32,59.56635692,62c50e9c1127f2cd403a315f,,,,,,,space,5.1441,space,14.5271,space,62.1438,space,7.6553,space,2.6249,space,4.2467,"[0.8274000000000001,-0.5844,-0.9452]",twofour,"[0.9372,0.9450000000000001,0.8980000000000001]",-1,10.0484,-52.79998779,-116,1,0,0,response5disk_5,-4.799987793,-4,1,0,0,rectangle_8,-4.799987793,-4,1,0,0,2,-4.799987793,-4,1,0,0,0,0,0,0,1,,,,,,,,,,,,,,,,,,,,,,,,,,,,,,,,,,,,,,,,,,,,,,,,,,,,,,,,,,,,,,,,,,,,,,,,,,,,,,,,,,,,,,,,,,,,,,,,,,,,,,,,,,,,,,,,
,,,,,,5b8e8feeee5b0500010f16d0,62c538b0e11c40b2f02aaeaf,2022-07-06_09h24.45.976,Colour_Asymmetry_Pilot,2022.1.3,Win32,59.56635692,62c50e9c1127f2cd403a315f,,,,,,,,,,,,,,,,,,,"[-0.5922000000000001,-0.7492000000000001,-0.5296000000000001]",threefour,"[0.34099999999999997,0.5841999999999998,-0.9844]",-1,3.3485,-65.59997559,-118.4000244,1,0,0,response5disk_5,-3.200012207,-1.600006104,1,0,0,rectangle_8,-3.200012207,-1.600006104,1,0,0,2,-3.200012207,-1.600006104,1,0,0,1,0,1,0,1,,,,,,,,,,,,,,,,,,,,,,,,,,,,,,,,,,,,,,,,,,,,,,,,,,,,,,,,,,,,,,,,,,,,,,,,,,,,,,,,,,,,,,,,,,,,,,,,,,,,,,,,,,,,,,,,
,,,,,,5b8e8feeee5b0500010f16d0,62c538b0e11c40b2f02aaeaf,2022-07-06_09h24.45.976,Colour_Asymmetry_Pilot,2022.1.3,Win32,59.56635692,62c50e9c1127f2cd403a315f,,,,,,,,,,,,,,,,,,,"[-0.0040000000000000036,0.02739999999999987,-0.08239999999999992]",onethree,"[0.34099999999999997,0.12939999999999996,-0.9766]",-1,2.3533,-49.59997559,-99.20001221,1,0,0,response5disk_5,4,-0.800018311,1,0,0,rectangle_8,4,-0.800018311,1,0,0,2,4,-0.800018311,1,0,0,2,0,2,0,1,,,,,,,,,,,,,,,,,,,,,,,,,,,,,,,,,,,,,,,,,,,,,,,,,,,,,,,,,,,,,,,,,,,,,,,,,,,,,,,,,,,,,,,,,,,,,,,,,,,,,,,,,,,,,,,,
,,,,,,5b8e8feeee5b0500010f16d0,62c538b0e11c40b2f02aaeaf,2022-07-06_09h24.45.976,Colour_Asymmetry_Pilot,2022.1.3,Win32,59.56635692,62c50e9c1127f2cd403a315f,,,,,,,,,,,,,,,,,,,"[0.19199999999999995,0.18419999999999992,0.5136000000000001]",onethree,"[0.4196,0.4665999999999999,0.3568]",-2,4.5134,-92.79998779,-52,1,0,0,response5disk_5,1.600036621,-1.600006104,1,0,0,rectangle_8,90.40002441,-53.6000061,1,0,0,2,-4.799987793,3.199981689,1,0,0,3,0,3,0,1,response3disk_7,5,rectangle_4,,,,,,,,,,,,,,,,,,,,,,,,,,,,,,,,,,,,,,,,,,,,,,,,,,,,,,,,,,,,,,,,,,,,,,,,,,,,,,,,,,,,,,,,,,,,,,,,,,,,,,,,,,,,,
,,,,,,5b8e8feeee5b0500010f16d0,62c538b0e11c40b2f02aaeaf,2022-07-06_09h24.45.976,Colour_Asymmetry_Pilot,2022.1.3,Win32,59.56635692,62c50e9c1127f2cd403a315f,,,,,,,,,,,,,,,,,,,"[-0.6706000000000001,-0.6157999999999999,-0.6786]",onetwo,"[0.9213999999999998,0.6391999999999998,-0.9922]",-1,1.8193,-60,-106.4000244,1,0,0,response5disk_5,-4.799987793,6.399993896,1,0,0,rectangle_8,111.2000122,-56.80001831,1,0,0,2,-3.200012207,3.199981689,1,0,0,4,0,4,0,1,response3disk_7,5,rectangle_4,,,,,,,,,,,,,,,,,,,,,,,,,,,,,,,,,,,,,,,,,,,,,,,,,,,,,,,,,,,,,,,,,,,,,,,,,,,,,,,,,,,,,,,,,,,,,,,,,,,,,,,,,,,,,
,,,,,,5b8e8feeee5b0500010f16d0,62c538b0e11c40b2f02aaeaf,2022-07-06_09h24.45.976,Colour_Asymmetry_Pilot,2022.1.3,Win32,59.56635692,62c50e9c1127f2cd403a315f,,,,,,,,,,,,,,,,,,,"[-0.24719999999999998,0.5213999999999999,-0.12959999999999994]",onetwo,"[-0.9216,-0.5529999999999999,-0.3962]",2,2.9819,106.4000244,-47.20001221,1,0,0,response3disk_5,-2.399963379,-0.800018311,1,0,0,rectangle_8,-2.399963379,-0.800018311,1,0,0,2,-2.399963379,-0.800018311,1,0,0,5,0,5,0,1,,,,,,,,,,,,,,,,,,,,,,,,,,,,,,,,,,,,,,,,,,,,,,,,,,,,,,,,,,,,,,,,,,,,,,,,,,,,,,,,,,,,,,,,,,,,,,,,,,,,,,,,,,,,,,,,
,,,,,,5b8e8feeee5b0500010f16d0,62c538b0e11c40b2f02aaeaf,2022-07-06_09h24.45.976,Colour_Asymmetry_Pilot,2022.1.3,Win32,59.56635692,62c50e9c1127f2cd403a315f,,,,,,,,,,,,,,,,,,,"[-0.17659999999999998,-0.2864,-0.8354]",onetwo,"[-0.0040000000000000036,0.02739999999999987,-0.08239999999999992]",3,2.2644,90.40002441,32,1,0,0,response1disk_5,0,2.399993896,1,0,0,rectangle_8,0,2.399993896,1,0,0,2,0,2.399993896,1,0,0,6,0,6,0,1,,,,,,,,,,,,,,,,,,,,,,,,,,,,,,,,,,,,,,,,,,,,,,,,,,,,,,,,,,,,,,,,,,,,,,,,,,,,,,,,,,,,,,,,,,,,,,,,,,,,,,,,,,,,,,,,
,,,,,,5b8e8feeee5b0500010f16d0,62c538b0e11c40b2f02aaeaf,2022-07-06_09h24.45.976,Colour_Asymmetry_Pilot,2022.1.3,Win32,59.56635692,62c50e9c1127f2cd403a315f,,,,,,,,,,,,,,,,,,,,twoone,,2,1.359,,,,,,,,,,,,,,,,,,,,,,,,,,,,,,,,space,72.3488,"[-0.4276,0.0038000000000000256,-0.3256]","[0.3568,-0.20799999999999996,-0.9844]",104,-43.20001221,1,0,0,response3disk,-1.599975586,-4.800018311,1,0,0,rectangle,-1.599975586,-4.800018311,1,0,0,,2,0.0031,0,-1.599975586,-4.800018311,1,0,0,0,0,0,2,1,2,first,,,,,,,,,,,,,,,,,,,,,,,,,,,,,,,,,,,,,,,,,,,,,,,,,,,,,,,,,,,,,,,,,,,,,,,,
,,,,,,5b8e8feeee5b0500010f16d0,62c538b0e11c40b2f02aaeaf,2022-07-06_09h24.45.976,Colour_Asymmetry_Pilot,2022.1.3,Win32,59.56635692,62c50e9c1127f2cd403a315f,,,,,,,,,,,,,,,,,,,,threefour,,2,1.0572,,,,,,,,,,,,,,,,,,,,,,,,,,,,,,,,,,"[-0.2942,-0.7648,-0.7492000000000001]","[0.09799999999999986,-0.24719999999999998,0.15280000000000005]",91.20001221,-41.6000061,1,0,0,response3disk,0,-1.600006104,1,0,0,rectangle,0,-1.600006104,1,0,0,,3,0.0034,0,0,-1.600006104,1,0,0,0,1,1,116,1,35,second,,,,,,,,,,,,,,,,,,,,,,,,,,,,,,,,,,,,,,,,,,,,,,,,,,,,,,,,,,,,,,,,,,,,,,,,
,,,,,,5b8e8feeee5b0500010f16d0,62c538b0e11c40b2f02aaeaf,2022-07-06_09h24.45.976,Colour_Asymmetry_Pilot,2022.1.3,Win32,59.56635692,62c50e9c1127f2cd403a315f,,,,,,,,,,,,,,,,,,,,twoone,,2,0.4762,,,,,,,,,,,,,,,,,,,,,,,,,,,,,,,,,,"[0.37240000000000006,0.4980000000000002,-0.2864]","[-0.10599999999999998,-0.10599999999999998,0.5841999999999998]",120,-55.20001221,1,0,0,response3disk,-2.399963379,8,1,0,0,rectangle,-2.399963379,8,1,0,0,,1,0.0034,0,-2.399963379,8,1,0,0,0,2,2,117,1,36,second,,,,,,,,,,,,,,,,,,,,,,,,,,,,,,,,,,,,,,,,,,,,,,,,,,,,,,,,,,,,,,,,,,,,,,,,
,,,,,,5b8e8feeee5b0500010f16d0,62c538b0e11c40b2f02aaeaf,2022-07-06_09h24.45.976,Colour_Asymmetry_Pilot,2022.1.3,Win32,59.56635692,62c50e9c1127f2cd403a315f,,,,,,,,,,,,,,,,,,,,onetwo,,-3,3.4485,,,,,,,,,,,,,,,,,,,,,,,,,,,,,,,,,,"[0.3568,-0.20799999999999996,-0.9844]","[-0.6,0.16860000000000008,0.44300000000000006]",-113.5999756,43.19998169,1,0,0,response7disk,2.400024414,-5.600006104,1,0,0,rectangle,2.400024414,-5.600006104,1,0,0,,1,0.0007,0,2.400024414,-5.600006104,1,0,0,0,3,3,73,1,73,first,,,,,,,,,,,,,,,,,,,,,,,,,,,,,,,,,,,,,,,,,,,,,,,,,,,,,,,,,,,,,,,,,,,,,,,,
,,,,,,5b8e8feeee5b0500010f16d0,62c538b0e11c40b2f02aaeaf,2022-07-06_09h24.45.976,Colour_Asymmetry_Pilot,2022.1.3,Win32,59.56635692,62c50e9c1127f2cd403a315f,,,,,,,,,,,,,,,,,,,,threeone,,-3,0.9113,,,,,,,,,,,,,,,,,,,,,,,,,,,,,,,,,,"[-0.6706000000000001,-0.6157999999999999,-0.6786]","[0.3568,-0.20799999999999996,-0.9844]",-68,66.3999939,1,0,0,response7disk,7.200012207,1.600006104,1,0,0,rectangle,7.200012207,1.600006104,1,0,0,,1,0.0005,0,7.200012207,1.600006104,1,0,0,0,4,4,29,1,29,first,,,,,,,,,,,,,,,,,,,,,,,,,,,,,,,,,,,,,,,,,,,,,,,,,,,,,,,,,,,,,,,,,,,,,,,,
,,,,,,5b8e8feeee5b0500010f16d0,62c538b0e11c40b2f02aaeaf,2022-07-06_09h24.45.976,Colour_Asymmetry_Pilot,2022.1.3,Win32,59.56635692,62c50e9c1127f2cd403a315f,,,,,,,,,,,,,,,,,,,,onetwo,,-3,2.1496,,,,,,,,,,,,,,,,,,,,,,,,,,,,,,,,,,"[0.3802000000000001,0.19199999999999995,-0.6394]","[0.7646000000000002,0.07440000000000002,0.2704]",-80.79998779,39.19998169,1,0,0,response7disk,-0.799987793,2.399993896,1,0,0,rectangle,-0.799987793,2.399993896,1,0,0,,2,0.0033,0,-0.799987793,2.399993896,1,0,0,0,5,5,3,1,3,first,,,,,,,,,,,,,,,,,,,,,,,,,,,,,,,,,,,,,,,,,,,,,,,,,,,,,,,,,,,,,,,,,,,,,,,,
,,,,,,5b8e8feeee5b0500010f16d0,62c538b0e11c40b2f02aaeaf,2022-07-06_09h24.45.976,Colour_Asymmetry_Pilot,2022.1.3,Win32,59.56635692,62c50e9c1127f2cd403a315f,,,,,,,,,,,,,,,,,,,,onethree,,-4,0.6912,,,,,,,,,,,,,,,,,,,,,,,,,,,,,,,,,,"[-0.10599999999999998,-0.10599999999999998,0.5841999999999998]","[0.30180000000000007,-0.7884,-0.9844]",-38.39996338,86.3999939,1,0,0,response7disk,-2.399963379,-1.600006104,1,0,0,rectangle,-2.399963379,-1.600006104,1,0,0,,2,0.0005,0,-2.399963379,-1.600006104,1,0,0,0,6,6,151,1,70,second,,,,,,,,,,,,,,,,,,,,,,,,,,,,,,,,,,,,,,,,,,,,,,,,,,,,,,,,,,,,,,,,,,,,,,,,
,,,,,,5b8e8feeee5b0500010f16d0,62c538b0e11c40b2f02aaeaf,2022-07-06_09h24.45.976,Colour_Asymmetry_Pilot,2022.1.3,Win32,59.56635692,62c50e9c1127f2cd403a315f,,,,,,,,,,,,,,,,,,,,fourtwo,,2,0.7159,,,,,,,,,,,,,,,,,,,,,,,,,,,,,,,,,,"[-0.4668,-0.8746,-0.2942]","[0.5449999999999999,-0.31000000000000005,-0.0354000000000001]",95.20001221,-49.6000061,1,0,0,response3disk,-4.799987793,5.600006104,1,0,0,rectangle,-4.799987793,5.600006104,1,0,0,,2,0.001,0,-4.799987793,5.600006104,1,0,0,0,7,7,149,1,68,second,,,,,,,,,,,,,,,,,,,,,,,,,,,,,,,,,,,,,,,,,,,,,,,,,,,,,,,,,,,,,,,,,,,,,,,,
,,,,,,5b8e8feeee5b0500010f16d0,62c538b0e11c40b2f02aaeaf,2022-07-06_09h24.45.976,Colour_Asymmetry_Pilot,2022.1.3,Win32,59.56635692,62c50e9c1127f2cd403a315f,,,,,,,,,,,,,,,,,,,,threeone,,2,0.7835,,,,,,,,,,,,,,,,,,,,,,,,,,,,,,,,,,"[-0.9216,-0.5529999999999999,-0.3962]","[1,0.12939999999999996,-1]",115.2000122,-58.3999939,1,0,0,response3disk,8.799987793,1.600006104,1,0,0,rectangle,8.799987793,1.600006104,1,0,0,,2,0.0005,0,8.799987793,1.600006104,1,0,0,0,8,8,31,1,31,first,,,,,,,,,,,,,,,,,,,,,,,,,,,,,,,,,,,,,,,,,,,,,,,,,,,,,,,,,,,,,,,,,,,,,,,,
,,,,,,5b8e8feeee5b0500010f16d0,62c538b0e11c40b2f02aaeaf,2022-07-06_09h24.45.976,Colour_Asymmetry_Pilot,2022.1.3,Win32,59.56635692,62c50e9c1127f2cd403a315f,,,,,,,,,,,,,,,,,,,,onetwo,,-3,0.7416,,,,,,,,,,,,,,,,,,,,,,,,,,,,,,,,,,"[0.9213999999999998,0.6391999999999998,-0.9922]","[0.12939999999999996,-0.2864,0.3253999999999999]",-104,34.3999939,1,0,0,response7disk,-16,4,1,0,0,rectangle,-16,4,1,0,0,,3,0.0028,0,-16,4,1,0,0,0,9,9,140,1,59,second,,,,,,,,,,,,,,,,,,,,,,,,,,,,,,,,,,,,,,,,,,,,,,,,,,,,,,,,,,,,,,,,,,,,,,,,
,,,,,,5b8e8feeee5b0500010f16d0,62c538b0e11c40b2f02aaeaf,2022-07-06_09h24.45.976,Colour_Asymmetry_Pilot,2022.1.3,Win32,59.56635692,62c50e9c1127f2cd403a315f,,,,,,,,,,,,,,,,,,,,fourtwo,,2,1.9068,,,,,,,,,,,,,,,,,,,,,,,,,,,,,,,,,,"[0.9686000000000001,0.5763999999999998,0.11359999999999992]","[-0.01980000000000004,-0.5138,-0.38039999999999996]",104.7999878,-41.6000061,1,0,0,response3disk,-3.200012207,5.600006104,1,0,0,rectangle,-3.200012207,5.600006104,1,0,0,,3,0.0004,0,-3.200012207,5.600006104,1,0,0,0,10,10,78,1,78,first,,,,,,,,,,,,,,,,,,,,,,,,,,,,,,,,,,,,,,,,,,,,,,,,,,,,,,,,,,,,,,,,,,,,,,,,
,,,,,,5b8e8feeee5b0500010f16d0,62c538b0e11c40b2f02aaeaf,2022-07-06_09h24.45.976,Colour_Asymmetry_Pilot,2022.1.3,Win32,59.56635692,62c50e9c1127f2cd403a315f,,,,,,,,,,,,,,,,,,,,threefour,,-4,1.4651,,,,,,,,,,,,,,,,,,,,,,,,,,,,,,,,,,"[-0.2942,-0.7648,-0.7492000000000001]","[-0.5688,-0.08239999999999992,-0.1844]",-64,104.7999878,1,0,0,response7disk,-0.799987793,5.600006104,1,0,0,rectangle,-0.799987793,5.600006104,1,0,0,,3,0.0004,0,-0.799987793,5.600006104,1,0,0,0,11,11,91,1,10,second,,,,,,,,,,,,,,,,,,,,,,,,,,,,,,,,,,,,,,,,,,,,,,,,,,,,,,,,,,,,,,,,,,,,,,,,
,,,,,,5b8e8feeee5b0500010f16d0,62c538b0e11c40b2f02aaeaf,2022-07-06_09h24.45.976,Colour_Asymmetry_Pilot,2022.1.3,Win32,59.56635692,62c50e9c1127f2cd403a315f,,,,,,,,,,,,,,,,,,,,twofour,,-4,0.6006,,,,,,,,,,,,,,,,,,,,,,,,,,,,,,,,,,"[0.9763999999999999,-0.1137999999999999,-0.6314]","[0.4196,0.4665999999999999,0.3568]",-43.20001221,79.19998169,1,0,0,response7disk,-5.599975586,0.799987793,1,0,0,rectangle,-5.599975586,0.799987793,1,0,0,,1,0.0014,0,-5.599975586,0.799987793,1,0,0,0,12,12,135,1,54,second,,,,,,,,,,,,,,,,,,,,,,,,,,,,,,,,,,,,,,,,,,,,,,,,,,,,,,,,,,,,,,,,,,,,,,,,
,,,,,,5b8e8feeee5b0500010f16d0,62c538b0e11c40b2f02aaeaf,2022-07-06_09h24.45.976,Colour_Asymmetry_Pilot,2022.1.3,Win32,59.56635692,62c50e9c1127f2cd403a315f,,,,,,,,,,,,,,,,,,,,threefour,,2,0.7994,,,,,,,,,,,,,,,,,,,,,,,,,,,,,,,,,,"[-0.20799999999999996,-0.655,-0.01980000000000004]","[-0.01980000000000004,-0.5138,-0.38039999999999996]",88.79998779,-49.6000061,1,0,0,response3disk,-8.799987793,3.199981689,1,0,0,rectangle,105.6000366,39.19998169,1,0,0,3,3,2.4177,1,3.200012207,1.600006104,1,0,0,0,13,13,160,1,79,second,response1disk_3,rectangle,,,,,,,,,,,,,,,,,,,,,,,,,,,,,,,,,,,,,,,,,,,,,,,,,,,,,,,,,,,,,,,,,,,,,,
,,,,,,5b8e8feeee5b0500010f16d0,62c538b0e11c40b2f02aaeaf,2022-07-06_09h24.45.976,Colour_Asymmetry_Pilot,2022.1.3,Win32,59.56635692,62c50e9c1127f2cd403a315f,,,,,,,,,,,,,,,,,,,,fourtwo,,2,0.6155,,,,,,,,,,,,,,,,,,,,,,,,,,,,,,,,,,"[0.09799999999999986,-0.24719999999999998,0.15280000000000005]","[-0.2942,-0.7648,-0.7492000000000001]",90.40002441,-40,1,0,0,response3disk,-12.79998779,16,1,0,0,rectangle,-12.79998779,16,1,0,0,3,2,0.0042,0,-12.79998779,16,1,0,0,0,14,14,35,1,35,first,,,,,,,,,,,,,,,,,,,,,,,,,,,,,,,,,,,,,,,,,,,,,,,,,,,,,,,,,,,,,,,,,,,,,,,,
