trials.thisRepN,trials.thisTrialN,trials.thisN,trials.thisIndex,trials.ran,Colourcodes,participant,session,date,expName,psychopyVersion,OS,frameRate,study_id,trials_4.thisRepN,trials_4.thisTrialN,trials_4.thisN,trials_4.thisIndex,trials_4.ran,StimulusPos,key_resp.keys,key_resp.rt,key_resp_2.keys,key_resp_2.rt,key_resp_15.keys,key_resp_15.rt,key_resp_17.keys,key_resp_17.rt,key_resp_9.keys,key_resp_9.rt,key_resp_10.keys,key_resp_10.rt,Circle1_col,Ecc,Circle2_col,similarity,response_time,mouse_5.x,mouse_5.y,mouse_5.leftButton,mouse_5.midButton,mouse_5.rightButton,mouse_5.clicked_name,mouse_10.x,mouse_10.y,mouse_10.leftButton,mouse_10.midButton,mouse_10.rightButton,mouse_10.clicked_name,mouse_7.x,mouse_7.y,mouse_7.leftButton,mouse_7.midButton,mouse_7.rightButton,catchnumberprac,mouse_6.x,mouse_6.y,mouse_6.leftButton,mouse_6.midButton,mouse_6.rightButton,duringprac.thisRepN,duringprac.thisTrialN,duringprac.thisN,duringprac.thisIndex,duringprac.ran,catchprac,mouse_7.clicked_name,mouse_6.clicked_name,key_resp_22.keys,key_resp_22.rt,Circle1_colour,Circle2_colour,mouse.x,mouse.y,mouse.leftButton,mouse.midButton,mouse.rightButton,mouse.clicked_name,mouse_2.x,mouse_2.y,mouse_2.leftButton,mouse_2.midButton,mouse_2.rightButton,mouse_2.clicked_name,mouse_3.x,mouse_3.y,mouse_3.leftButton,mouse_3.midButton,mouse_3.rightButton,mouse_3.clicked_name,catchresponse,catchnumber,response_time_catch,Catch,mouse_11.x,mouse_11.y,mouse_11.leftButton,mouse_11.midButton,mouse_11.rightButton,mouse_11.clicked_name,trials_2.thisRepN,trials_2.thisTrialN,trials_2.thisN,trials_2.thisIndex,trials_2.ran,Colourpair,Temporder,trials_3.thisRepN,trials_3.thisTrialN,trials_3.thisN,trials_3.thisIndex,trials_3.ran,key_resp_instr_Ishi.keys,key_resp_instr_Ishi.rt,Ishi_trial_keyresp.keys,Ishi_textbox.text,Ishi_mouse.x,Ishi_mouse.y,Ishi_mouse.leftButton,Ishi_mouse.midButton,Ishi_mouse.rightButton,Ishi_mouse.clicked_name,Ishi_loop.thisRepN,Ishi_loop.thisTrialN,Ishi_loop.thisN,Ishi_loop.thisIndex,Ishi_loop.ran,imageaddress,textbox.text,mouse_4.x,mouse_4.y,mouse_4.leftButton,mouse_4.midButton,mouse_4.rightButton,mouse_4.clicked_name,textbox_2.text,mouse_8.x,mouse_8.y,mouse_8.leftButton,mouse_8.midButton,mouse_8.rightButton,mouse_8.clicked_name,textbox_3.text,mouse_9.x,mouse_9.y,mouse_9.leftButton,mouse_9.midButton,mouse_9.rightButton,mouse_9.clicked_name,textbox_4.text,mouse_12.x,mouse_12.y,mouse_12.leftButton,mouse_12.midButton,mouse_12.rightButton,mouse_12.clicked_name,textbox_5.text,mouse_13.x,mouse_13.y,mouse_13.leftButton,mouse_13.midButton,mouse_13.rightButton,mouse_13.clicked_name,textbox_6.text,mouse_14.x,mouse_14.y,mouse_14.leftButton,mouse_14.midButton,mouse_14.rightButton,textbox_7.text,mouse_15.x,mouse_15.y,mouse_15.leftButton,mouse_15.midButton,mouse_15.rightButton,mouse_15.clicked_name
0,0,0,3,1,,60a57ec89138a40a4a5acc63,62c5561e7800824eb1166815,2022-07-06_10h34.50.940,Colour_Asymmetry_Pilot,2022.1.3,Win32,60.04924038,62c50e9c1127f2cd403a315f,,,,,,,,,,,,,,,,,,,,,,,,,,,,,,,,,,,,,,,,,,,,,,,,,,,,,,,,,,,,,,,,,,,,,,,,,,,,,,,,,,,,,,,,,,,,,,,,,,,,,,,,,,,,,,,,,,,,,,,,,,,,,,,,,,,,,,,,,,,,,,,,,,,,,,,,,,,,,,,,,,
0,1,1,81,1,,60a57ec89138a40a4a5acc63,62c5561e7800824eb1166815,2022-07-06_10h34.50.940,Colour_Asymmetry_Pilot,2022.1.3,Win32,60.04924038,62c50e9c1127f2cd403a315f,,,,,,,,,,,,,,,,,,,,,,,,,,,,,,,,,,,,,,,,,,,,,,,,,,,,,,,,,,,,,,,,,,,,,,,,,,,,,,,,,,,,,,,,,,,,,,,,,,,,,,,,,,,,,,,,,,,,,,,,,,,,,,,,,,,,,,,,,,,,,,,,,,,,,,,,,,,,,,,,,,
0,2,2,56,1,,60a57ec89138a40a4a5acc63,62c5561e7800824eb1166815,2022-07-06_10h34.50.940,Colour_Asymmetry_Pilot,2022.1.3,Win32,60.04924038,62c50e9c1127f2cd403a315f,,,,,,,,,,,,,,,,,,,,,,,,,,,,,,,,,,,,,,,,,,,,,,,,,,,,,,,,,,,,,,,,,,,,,,,,,,,,,,,,,,,,,,,,,,,,,,,,,,,,,,,,,,,,,,,,,,,,,,,,,,,,,,,,,,,,,,,,,,,,,,,,,,,,,,,,,,,,,,,,,,
0,3,3,33,1,,60a57ec89138a40a4a5acc63,62c5561e7800824eb1166815,2022-07-06_10h34.50.940,Colour_Asymmetry_Pilot,2022.1.3,Win32,60.04924038,62c50e9c1127f2cd403a315f,,,,,,,,,,,,,,,,,,,,,,,,,,,,,,,,,,,,,,,,,,,,,,,,,,,,,,,,,,,,,,,,,,,,,,,,,,,,,,,,,,,,,,,,,,,,,,,,,,,,,,,,,,,,,,,,,,,,,,,,,,,,,,,,,,,,,,,,,,,,,,,,,,,,,,,,,,,,,,,,,,
0,4,4,39,1,,60a57ec89138a40a4a5acc63,62c5561e7800824eb1166815,2022-07-06_10h34.50.940,Colour_Asymmetry_Pilot,2022.1.3,Win32,60.04924038,62c50e9c1127f2cd403a315f,,,,,,,,,,,,,,,,,,,,,,,,,,,,,,,,,,,,,,,,,,,,,,,,,,,,,,,,,,,,,,,,,,,,,,,,,,,,,,,,,,,,,,,,,,,,,,,,,,,,,,,,,,,,,,,,,,,,,,,,,,,,,,,,,,,,,,,,,,,,,,,,,,,,,,,,,,,,,,,,,,
0,5,5,35,1,,60a57ec89138a40a4a5acc63,62c5561e7800824eb1166815,2022-07-06_10h34.50.940,Colour_Asymmetry_Pilot,2022.1.3,Win32,60.04924038,62c50e9c1127f2cd403a315f,,,,,,,,,,,,,,,,,,,,,,,,,,,,,,,,,,,,,,,,,,,,,,,,,,,,,,,,,,,,,,,,,,,,,,,,,,,,,,,,,,,,,,,,,,,,,,,,,,,,,,,,,,,,,,,,,,,,,,,,,,,,,,,,,,,,,,,,,,,,,,,,,,,,,,,,,,,,,,,,,,
0,6,6,26,1,,60a57ec89138a40a4a5acc63,62c5561e7800824eb1166815,2022-07-06_10h34.50.940,Colour_Asymmetry_Pilot,2022.1.3,Win32,60.04924038,62c50e9c1127f2cd403a315f,,,,,,,,,,,,,,,,,,,,,,,,,,,,,,,,,,,,,,,,,,,,,,,,,,,,,,,,,,,,,,,,,,,,,,,,,,,,,,,,,,,,,,,,,,,,,,,,,,,,,,,,,,,,,,,,,,,,,,,,,,,,,,,,,,,,,,,,,,,,,,,,,,,,,,,,,,,,,,,,,,
0,7,7,75,1,,60a57ec89138a40a4a5acc63,62c5561e7800824eb1166815,2022-07-06_10h34.50.940,Colour_Asymmetry_Pilot,2022.1.3,Win32,60.04924038,62c50e9c1127f2cd403a315f,,,,,,,,,,,,,,,,,,,,,,,,,,,,,,,,,,,,,,,,,,,,,,,,,,,,,,,,,,,,,,,,,,,,,,,,,,,,,,,,,,,,,,,,,,,,,,,,,,,,,,,,,,,,,,,,,,,,,,,,,,,,,,,,,,,,,,,,,,,,,,,,,,,,,,,,,,,,,,,,,,
0,8,8,64,1,,60a57ec89138a40a4a5acc63,62c5561e7800824eb1166815,2022-07-06_10h34.50.940,Colour_Asymmetry_Pilot,2022.1.3,Win32,60.04924038,62c50e9c1127f2cd403a315f,,,,,,,,,,,,,,,,,,,,,,,,,,,,,,,,,,,,,,,,,,,,,,,,,,,,,,,,,,,,,,,,,,,,,,,,,,,,,,,,,,,,,,,,,,,,,,,,,,,,,,,,,,,,,,,,,,,,,,,,,,,,,,,,,,,,,,,,,,,,,,,,,,,,,,,,,,,,,,,,,,
0,9,9,27,1,,60a57ec89138a40a4a5acc63,62c5561e7800824eb1166815,2022-07-06_10h34.50.940,Colour_Asymmetry_Pilot,2022.1.3,Win32,60.04924038,62c50e9c1127f2cd403a315f,,,,,,,,,,,,,,,,,,,,,,,,,,,,,,,,,,,,,,,,,,,,,,,,,,,,,,,,,,,,,,,,,,,,,,,,,,,,,,,,,,,,,,,,,,,,,,,,,,,,,,,,,,,,,,,,,,,,,,,,,,,,,,,,,,,,,,,,,,,,,,,,,,,,,,,,,,,,,,,,,,
0,10,10,6,1,,60a57ec89138a40a4a5acc63,62c5561e7800824eb1166815,2022-07-06_10h34.50.940,Colour_Asymmetry_Pilot,2022.1.3,Win32,60.04924038,62c50e9c1127f2cd403a315f,,,,,,,,,,,,,,,,,,,,,,,,,,,,,,,,,,,,,,,,,,,,,,,,,,,,,,,,,,,,,,,,,,,,,,,,,,,,,,,,,,,,,,,,,,,,,,,,,,,,,,,,,,,,,,,,,,,,,,,,,,,,,,,,,,,,,,,,,,,,,,,,,,,,,,,,,,,,,,,,,,
0,11,11,36,1,,60a57ec89138a40a4a5acc63,62c5561e7800824eb1166815,2022-07-06_10h34.50.940,Colour_Asymmetry_Pilot,2022.1.3,Win32,60.04924038,62c50e9c1127f2cd403a315f,,,,,,,,,,,,,,,,,,,,,,,,,,,,,,,,,,,,,,,,,,,,,,,,,,,,,,,,,,,,,,,,,,,,,,,,,,,,,,,,,,,,,,,,,,,,,,,,,,,,,,,,,,,,,,,,,,,,,,,,,,,,,,,,,,,,,,,,,,,,,,,,,,,,,,,,,,,,,,,,,,
0,12,12,4,1,,60a57ec89138a40a4a5acc63,62c5561e7800824eb1166815,2022-07-06_10h34.50.940,Colour_Asymmetry_Pilot,2022.1.3,Win32,60.04924038,62c50e9c1127f2cd403a315f,,,,,,,,,,,,,,,,,,,,,,,,,,,,,,,,,,,,,,,,,,,,,,,,,,,,,,,,,,,,,,,,,,,,,,,,,,,,,,,,,,,,,,,,,,,,,,,,,,,,,,,,,,,,,,,,,,,,,,,,,,,,,,,,,,,,,,,,,,,,,,,,,,,,,,,,,,,,,,,,,,
0,13,13,77,1,,60a57ec89138a40a4a5acc63,62c5561e7800824eb1166815,2022-07-06_10h34.50.940,Colour_Asymmetry_Pilot,2022.1.3,Win32,60.04924038,62c50e9c1127f2cd403a315f,,,,,,,,,,,,,,,,,,,,,,,,,,,,,,,,,,,,,,,,,,,,,,,,,,,,,,,,,,,,,,,,,,,,,,,,,,,,,,,,,,,,,,,,,,,,,,,,,,,,,,,,,,,,,,,,,,,,,,,,,,,,,,,,,,,,,,,,,,,,,,,,,,,,,,,,,,,,,,,,,,
0,14,14,63,1,,60a57ec89138a40a4a5acc63,62c5561e7800824eb1166815,2022-07-06_10h34.50.940,Colour_Asymmetry_Pilot,2022.1.3,Win32,60.04924038,62c50e9c1127f2cd403a315f,,,,,,,,,,,,,,,,,,,,,,,,,,,,,,,,,,,,,,,,,,,,,,,,,,,,,,,,,,,,,,,,,,,,,,,,,,,,,,,,,,,,,,,,,,,,,,,,,,,,,,,,,,,,,,,,,,,,,,,,,,,,,,,,,,,,,,,,,,,,,,,,,,,,,,,,,,,,,,,,,,
0,15,15,79,1,,60a57ec89138a40a4a5acc63,62c5561e7800824eb1166815,2022-07-06_10h34.50.940,Colour_Asymmetry_Pilot,2022.1.3,Win32,60.04924038,62c50e9c1127f2cd403a315f,,,,,,,,,,,,,,,,,,,,,,,,,,,,,,,,,,,,,,,,,,,,,,,,,,,,,,,,,,,,,,,,,,,,,,,,,,,,,,,,,,,,,,,,,,,,,,,,,,,,,,,,,,,,,,,,,,,,,,,,,,,,,,,,,,,,,,,,,,,,,,,,,,,,,,,,,,,,,,,,,,
0,16,16,60,1,,60a57ec89138a40a4a5acc63,62c5561e7800824eb1166815,2022-07-06_10h34.50.940,Colour_Asymmetry_Pilot,2022.1.3,Win32,60.04924038,62c50e9c1127f2cd403a315f,,,,,,,,,,,,,,,,,,,,,,,,,,,,,,,,,,,,,,,,,,,,,,,,,,,,,,,,,,,,,,,,,,,,,,,,,,,,,,,,,,,,,,,,,,,,,,,,,,,,,,,,,,,,,,,,,,,,,,,,,,,,,,,,,,,,,,,,,,,,,,,,,,,,,,,,,,,,,,,,,,
0,17,17,65,1,,60a57ec89138a40a4a5acc63,62c5561e7800824eb1166815,2022-07-06_10h34.50.940,Colour_Asymmetry_Pilot,2022.1.3,Win32,60.04924038,62c50e9c1127f2cd403a315f,,,,,,,,,,,,,,,,,,,,,,,,,,,,,,,,,,,,,,,,,,,,,,,,,,,,,,,,,,,,,,,,,,,,,,,,,,,,,,,,,,,,,,,,,,,,,,,,,,,,,,,,,,,,,,,,,,,,,,,,,,,,,,,,,,,,,,,,,,,,,,,,,,,,,,,,,,,,,,,,,,
0,18,18,48,1,,60a57ec89138a40a4a5acc63,62c5561e7800824eb1166815,2022-07-06_10h34.50.940,Colour_Asymmetry_Pilot,2022.1.3,Win32,60.04924038,62c50e9c1127f2cd403a315f,,,,,,,,,,,,,,,,,,,,,,,,,,,,,,,,,,,,,,,,,,,,,,,,,,,,,,,,,,,,,,,,,,,,,,,,,,,,,,,,,,,,,,,,,,,,,,,,,,,,,,,,,,,,,,,,,,,,,,,,,,,,,,,,,,,,,,,,,,,,,,,,,,,,,,,,,,,,,,,,,,
0,19,19,37,1,,60a57ec89138a40a4a5acc63,62c5561e7800824eb1166815,2022-07-06_10h34.50.940,Colour_Asymmetry_Pilot,2022.1.3,Win32,60.04924038,62c50e9c1127f2cd403a315f,,,,,,,,,,,,,,,,,,,,,,,,,,,,,,,,,,,,,,,,,,,,,,,,,,,,,,,,,,,,,,,,,,,,,,,,,,,,,,,,,,,,,,,,,,,,,,,,,,,,,,,,,,,,,,,,,,,,,,,,,,,,,,,,,,,,,,,,,,,,,,,,,,,,,,,,,,,,,,,,,,
0,20,20,58,1,,60a57ec89138a40a4a5acc63,62c5561e7800824eb1166815,2022-07-06_10h34.50.940,Colour_Asymmetry_Pilot,2022.1.3,Win32,60.04924038,62c50e9c1127f2cd403a315f,,,,,,,,,,,,,,,,,,,,,,,,,,,,,,,,,,,,,,,,,,,,,,,,,,,,,,,,,,,,,,,,,,,,,,,,,,,,,,,,,,,,,,,,,,,,,,,,,,,,,,,,,,,,,,,,,,,,,,,,,,,,,,,,,,,,,,,,,,,,,,,,,,,,,,,,,,,,,,,,,,
0,21,21,24,1,,60a57ec89138a40a4a5acc63,62c5561e7800824eb1166815,2022-07-06_10h34.50.940,Colour_Asymmetry_Pilot,2022.1.3,Win32,60.04924038,62c50e9c1127f2cd403a315f,,,,,,,,,,,,,,,,,,,,,,,,,,,,,,,,,,,,,,,,,,,,,,,,,,,,,,,,,,,,,,,,,,,,,,,,,,,,,,,,,,,,,,,,,,,,,,,,,,,,,,,,,,,,,,,,,,,,,,,,,,,,,,,,,,,,,,,,,,,,,,,,,,,,,,,,,,,,,,,,,,
0,22,22,7,1,,60a57ec89138a40a4a5acc63,62c5561e7800824eb1166815,2022-07-06_10h34.50.940,Colour_Asymmetry_Pilot,2022.1.3,Win32,60.04924038,62c50e9c1127f2cd403a315f,,,,,,,,,,,,,,,,,,,,,,,,,,,,,,,,,,,,,,,,,,,,,,,,,,,,,,,,,,,,,,,,,,,,,,,,,,,,,,,,,,,,,,,,,,,,,,,,,,,,,,,,,,,,,,,,,,,,,,,,,,,,,,,,,,,,,,,,,,,,,,,,,,,,,,,,,,,,,,,,,,
0,23,23,15,1,,60a57ec89138a40a4a5acc63,62c5561e7800824eb1166815,2022-07-06_10h34.50.940,Colour_Asymmetry_Pilot,2022.1.3,Win32,60.04924038,62c50e9c1127f2cd403a315f,,,,,,,,,,,,,,,,,,,,,,,,,,,,,,,,,,,,,,,,,,,,,,,,,,,,,,,,,,,,,,,,,,,,,,,,,,,,,,,,,,,,,,,,,,,,,,,,,,,,,,,,,,,,,,,,,,,,,,,,,,,,,,,,,,,,,,,,,,,,,,,,,,,,,,,,,,,,,,,,,,
0,24,24,67,1,,60a57ec89138a40a4a5acc63,62c5561e7800824eb1166815,2022-07-06_10h34.50.940,Colour_Asymmetry_Pilot,2022.1.3,Win32,60.04924038,62c50e9c1127f2cd403a315f,,,,,,,,,,,,,,,,,,,,,,,,,,,,,,,,,,,,,,,,,,,,,,,,,,,,,,,,,,,,,,,,,,,,,,,,,,,,,,,,,,,,,,,,,,,,,,,,,,,,,,,,,,,,,,,,,,,,,,,,,,,,,,,,,,,,,,,,,,,,,,,,,,,,,,,,,,,,,,,,,,
0,25,25,32,1,,60a57ec89138a40a4a5acc63,62c5561e7800824eb1166815,2022-07-06_10h34.50.940,Colour_Asymmetry_Pilot,2022.1.3,Win32,60.04924038,62c50e9c1127f2cd403a315f,,,,,,,,,,,,,,,,,,,,,,,,,,,,,,,,,,,,,,,,,,,,,,,,,,,,,,,,,,,,,,,,,,,,,,,,,,,,,,,,,,,,,,,,,,,,,,,,,,,,,,,,,,,,,,,,,,,,,,,,,,,,,,,,,,,,,,,,,,,,,,,,,,,,,,,,,,,,,,,,,,
0,26,26,91,1,,60a57ec89138a40a4a5acc63,62c5561e7800824eb1166815,2022-07-06_10h34.50.940,Colour_Asymmetry_Pilot,2022.1.3,Win32,60.04924038,62c50e9c1127f2cd403a315f,,,,,,,,,,,,,,,,,,,,,,,,,,,,,,,,,,,,,,,,,,,,,,,,,,,,,,,,,,,,,,,,,,,,,,,,,,,,,,,,,,,,,,,,,,,,,,,,,,,,,,,,,,,,,,,,,,,,,,,,,,,,,,,,,,,,,,,,,,,,,,,,,,,,,,,,,,,,,,,,,,
0,27,27,9,1,,60a57ec89138a40a4a5acc63,62c5561e7800824eb1166815,2022-07-06_10h34.50.940,Colour_Asymmetry_Pilot,2022.1.3,Win32,60.04924038,62c50e9c1127f2cd403a315f,,,,,,,,,,,,,,,,,,,,,,,,,,,,,,,,,,,,,,,,,,,,,,,,,,,,,,,,,,,,,,,,,,,,,,,,,,,,,,,,,,,,,,,,,,,,,,,,,,,,,,,,,,,,,,,,,,,,,,,,,,,,,,,,,,,,,,,,,,,,,,,,,,,,,,,,,,,,,,,,,,
0,28,28,62,1,,60a57ec89138a40a4a5acc63,62c5561e7800824eb1166815,2022-07-06_10h34.50.940,Colour_Asymmetry_Pilot,2022.1.3,Win32,60.04924038,62c50e9c1127f2cd403a315f,,,,,,,,,,,,,,,,,,,,,,,,,,,,,,,,,,,,,,,,,,,,,,,,,,,,,,,,,,,,,,,,,,,,,,,,,,,,,,,,,,,,,,,,,,,,,,,,,,,,,,,,,,,,,,,,,,,,,,,,,,,,,,,,,,,,,,,,,,,,,,,,,,,,,,,,,,,,,,,,,,
0,29,29,14,1,,60a57ec89138a40a4a5acc63,62c5561e7800824eb1166815,2022-07-06_10h34.50.940,Colour_Asymmetry_Pilot,2022.1.3,Win32,60.04924038,62c50e9c1127f2cd403a315f,,,,,,,,,,,,,,,,,,,,,,,,,,,,,,,,,,,,,,,,,,,,,,,,,,,,,,,,,,,,,,,,,,,,,,,,,,,,,,,,,,,,,,,,,,,,,,,,,,,,,,,,,,,,,,,,,,,,,,,,,,,,,,,,,,,,,,,,,,,,,,,,,,,,,,,,,,,,,,,,,,
0,30,30,84,1,,60a57ec89138a40a4a5acc63,62c5561e7800824eb1166815,2022-07-06_10h34.50.940,Colour_Asymmetry_Pilot,2022.1.3,Win32,60.04924038,62c50e9c1127f2cd403a315f,,,,,,,,,,,,,,,,,,,,,,,,,,,,,,,,,,,,,,,,,,,,,,,,,,,,,,,,,,,,,,,,,,,,,,,,,,,,,,,,,,,,,,,,,,,,,,,,,,,,,,,,,,,,,,,,,,,,,,,,,,,,,,,,,,,,,,,,,,,,,,,,,,,,,,,,,,,,,,,,,,
0,31,31,50,1,,60a57ec89138a40a4a5acc63,62c5561e7800824eb1166815,2022-07-06_10h34.50.940,Colour_Asymmetry_Pilot,2022.1.3,Win32,60.04924038,62c50e9c1127f2cd403a315f,,,,,,,,,,,,,,,,,,,,,,,,,,,,,,,,,,,,,,,,,,,,,,,,,,,,,,,,,,,,,,,,,,,,,,,,,,,,,,,,,,,,,,,,,,,,,,,,,,,,,,,,,,,,,,,,,,,,,,,,,,,,,,,,,,,,,,,,,,,,,,,,,,,,,,,,,,,,,,,,,,
0,32,32,19,1,,60a57ec89138a40a4a5acc63,62c5561e7800824eb1166815,2022-07-06_10h34.50.940,Colour_Asymmetry_Pilot,2022.1.3,Win32,60.04924038,62c50e9c1127f2cd403a315f,,,,,,,,,,,,,,,,,,,,,,,,,,,,,,,,,,,,,,,,,,,,,,,,,,,,,,,,,,,,,,,,,,,,,,,,,,,,,,,,,,,,,,,,,,,,,,,,,,,,,,,,,,,,,,,,,,,,,,,,,,,,,,,,,,,,,,,,,,,,,,,,,,,,,,,,,,,,,,,,,,
0,33,33,76,1,,60a57ec89138a40a4a5acc63,62c5561e7800824eb1166815,2022-07-06_10h34.50.940,Colour_Asymmetry_Pilot,2022.1.3,Win32,60.04924038,62c50e9c1127f2cd403a315f,,,,,,,,,,,,,,,,,,,,,,,,,,,,,,,,,,,,,,,,,,,,,,,,,,,,,,,,,,,,,,,,,,,,,,,,,,,,,,,,,,,,,,,,,,,,,,,,,,,,,,,,,,,,,,,,,,,,,,,,,,,,,,,,,,,,,,,,,,,,,,,,,,,,,,,,,,,,,,,,,,
0,34,34,90,1,,60a57ec89138a40a4a5acc63,62c5561e7800824eb1166815,2022-07-06_10h34.50.940,Colour_Asymmetry_Pilot,2022.1.3,Win32,60.04924038,62c50e9c1127f2cd403a315f,,,,,,,,,,,,,,,,,,,,,,,,,,,,,,,,,,,,,,,,,,,,,,,,,,,,,,,,,,,,,,,,,,,,,,,,,,,,,,,,,,,,,,,,,,,,,,,,,,,,,,,,,,,,,,,,,,,,,,,,,,,,,,,,,,,,,,,,,,,,,,,,,,,,,,,,,,,,,,,,,,
0,35,35,23,1,,60a57ec89138a40a4a5acc63,62c5561e7800824eb1166815,2022-07-06_10h34.50.940,Colour_Asymmetry_Pilot,2022.1.3,Win32,60.04924038,62c50e9c1127f2cd403a315f,,,,,,,,,,,,,,,,,,,,,,,,,,,,,,,,,,,,,,,,,,,,,,,,,,,,,,,,,,,,,,,,,,,,,,,,,,,,,,,,,,,,,,,,,,,,,,,,,,,,,,,,,,,,,,,,,,,,,,,,,,,,,,,,,,,,,,,,,,,,,,,,,,,,,,,,,,,,,,,,,,
0,36,36,43,1,,60a57ec89138a40a4a5acc63,62c5561e7800824eb1166815,2022-07-06_10h34.50.940,Colour_Asymmetry_Pilot,2022.1.3,Win32,60.04924038,62c50e9c1127f2cd403a315f,,,,,,,,,,,,,,,,,,,,,,,,,,,,,,,,,,,,,,,,,,,,,,,,,,,,,,,,,,,,,,,,,,,,,,,,,,,,,,,,,,,,,,,,,,,,,,,,,,,,,,,,,,,,,,,,,,,,,,,,,,,,,,,,,,,,,,,,,,,,,,,,,,,,,,,,,,,,,,,,,,
0,37,37,78,1,,60a57ec89138a40a4a5acc63,62c5561e7800824eb1166815,2022-07-06_10h34.50.940,Colour_Asymmetry_Pilot,2022.1.3,Win32,60.04924038,62c50e9c1127f2cd403a315f,,,,,,,,,,,,,,,,,,,,,,,,,,,,,,,,,,,,,,,,,,,,,,,,,,,,,,,,,,,,,,,,,,,,,,,,,,,,,,,,,,,,,,,,,,,,,,,,,,,,,,,,,,,,,,,,,,,,,,,,,,,,,,,,,,,,,,,,,,,,,,,,,,,,,,,,,,,,,,,,,,
0,38,38,12,1,,60a57ec89138a40a4a5acc63,62c5561e7800824eb1166815,2022-07-06_10h34.50.940,Colour_Asymmetry_Pilot,2022.1.3,Win32,60.04924038,62c50e9c1127f2cd403a315f,,,,,,,,,,,,,,,,,,,,,,,,,,,,,,,,,,,,,,,,,,,,,,,,,,,,,,,,,,,,,,,,,,,,,,,,,,,,,,,,,,,,,,,,,,,,,,,,,,,,,,,,,,,,,,,,,,,,,,,,,,,,,,,,,,,,,,,,,,,,,,,,,,,,,,,,,,,,,,,,,,
0,39,39,10,1,,60a57ec89138a40a4a5acc63,62c5561e7800824eb1166815,2022-07-06_10h34.50.940,Colour_Asymmetry_Pilot,2022.1.3,Win32,60.04924038,62c50e9c1127f2cd403a315f,,,,,,,,,,,,,,,,,,,,,,,,,,,,,,,,,,,,,,,,,,,,,,,,,,,,,,,,,,,,,,,,,,,,,,,,,,,,,,,,,,,,,,,,,,,,,,,,,,,,,,,,,,,,,,,,,,,,,,,,,,,,,,,,,,,,,,,,,,,,,,,,,,,,,,,,,,,,,,,,,,
0,40,40,5,1,,60a57ec89138a40a4a5acc63,62c5561e7800824eb1166815,2022-07-06_10h34.50.940,Colour_Asymmetry_Pilot,2022.1.3,Win32,60.04924038,62c50e9c1127f2cd403a315f,,,,,,,,,,,,,,,,,,,,,,,,,,,,,,,,,,,,,,,,,,,,,,,,,,,,,,,,,,,,,,,,,,,,,,,,,,,,,,,,,,,,,,,,,,,,,,,,,,,,,,,,,,,,,,,,,,,,,,,,,,,,,,,,,,,,,,,,,,,,,,,,,,,,,,,,,,,,,,,,,,
0,41,41,69,1,,60a57ec89138a40a4a5acc63,62c5561e7800824eb1166815,2022-07-06_10h34.50.940,Colour_Asymmetry_Pilot,2022.1.3,Win32,60.04924038,62c50e9c1127f2cd403a315f,,,,,,,,,,,,,,,,,,,,,,,,,,,,,,,,,,,,,,,,,,,,,,,,,,,,,,,,,,,,,,,,,,,,,,,,,,,,,,,,,,,,,,,,,,,,,,,,,,,,,,,,,,,,,,,,,,,,,,,,,,,,,,,,,,,,,,,,,,,,,,,,,,,,,,,,,,,,,,,,,,
0,42,42,21,1,,60a57ec89138a40a4a5acc63,62c5561e7800824eb1166815,2022-07-06_10h34.50.940,Colour_Asymmetry_Pilot,2022.1.3,Win32,60.04924038,62c50e9c1127f2cd403a315f,,,,,,,,,,,,,,,,,,,,,,,,,,,,,,,,,,,,,,,,,,,,,,,,,,,,,,,,,,,,,,,,,,,,,,,,,,,,,,,,,,,,,,,,,,,,,,,,,,,,,,,,,,,,,,,,,,,,,,,,,,,,,,,,,,,,,,,,,,,,,,,,,,,,,,,,,,,,,,,,,,
0,43,43,46,1,,60a57ec89138a40a4a5acc63,62c5561e7800824eb1166815,2022-07-06_10h34.50.940,Colour_Asymmetry_Pilot,2022.1.3,Win32,60.04924038,62c50e9c1127f2cd403a315f,,,,,,,,,,,,,,,,,,,,,,,,,,,,,,,,,,,,,,,,,,,,,,,,,,,,,,,,,,,,,,,,,,,,,,,,,,,,,,,,,,,,,,,,,,,,,,,,,,,,,,,,,,,,,,,,,,,,,,,,,,,,,,,,,,,,,,,,,,,,,,,,,,,,,,,,,,,,,,,,,,
0,44,44,66,1,,60a57ec89138a40a4a5acc63,62c5561e7800824eb1166815,2022-07-06_10h34.50.940,Colour_Asymmetry_Pilot,2022.1.3,Win32,60.04924038,62c50e9c1127f2cd403a315f,,,,,,,,,,,,,,,,,,,,,,,,,,,,,,,,,,,,,,,,,,,,,,,,,,,,,,,,,,,,,,,,,,,,,,,,,,,,,,,,,,,,,,,,,,,,,,,,,,,,,,,,,,,,,,,,,,,,,,,,,,,,,,,,,,,,,,,,,,,,,,,,,,,,,,,,,,,,,,,,,,
0,45,45,28,1,,60a57ec89138a40a4a5acc63,62c5561e7800824eb1166815,2022-07-06_10h34.50.940,Colour_Asymmetry_Pilot,2022.1.3,Win32,60.04924038,62c50e9c1127f2cd403a315f,,,,,,,,,,,,,,,,,,,,,,,,,,,,,,,,,,,,,,,,,,,,,,,,,,,,,,,,,,,,,,,,,,,,,,,,,,,,,,,,,,,,,,,,,,,,,,,,,,,,,,,,,,,,,,,,,,,,,,,,,,,,,,,,,,,,,,,,,,,,,,,,,,,,,,,,,,,,,,,,,,
0,46,46,89,1,,60a57ec89138a40a4a5acc63,62c5561e7800824eb1166815,2022-07-06_10h34.50.940,Colour_Asymmetry_Pilot,2022.1.3,Win32,60.04924038,62c50e9c1127f2cd403a315f,,,,,,,,,,,,,,,,,,,,,,,,,,,,,,,,,,,,,,,,,,,,,,,,,,,,,,,,,,,,,,,,,,,,,,,,,,,,,,,,,,,,,,,,,,,,,,,,,,,,,,,,,,,,,,,,,,,,,,,,,,,,,,,,,,,,,,,,,,,,,,,,,,,,,,,,,,,,,,,,,,
0,47,47,13,1,,60a57ec89138a40a4a5acc63,62c5561e7800824eb1166815,2022-07-06_10h34.50.940,Colour_Asymmetry_Pilot,2022.1.3,Win32,60.04924038,62c50e9c1127f2cd403a315f,,,,,,,,,,,,,,,,,,,,,,,,,,,,,,,,,,,,,,,,,,,,,,,,,,,,,,,,,,,,,,,,,,,,,,,,,,,,,,,,,,,,,,,,,,,,,,,,,,,,,,,,,,,,,,,,,,,,,,,,,,,,,,,,,,,,,,,,,,,,,,,,,,,,,,,,,,,,,,,,,,
0,48,48,88,1,,60a57ec89138a40a4a5acc63,62c5561e7800824eb1166815,2022-07-06_10h34.50.940,Colour_Asymmetry_Pilot,2022.1.3,Win32,60.04924038,62c50e9c1127f2cd403a315f,,,,,,,,,,,,,,,,,,,,,,,,,,,,,,,,,,,,,,,,,,,,,,,,,,,,,,,,,,,,,,,,,,,,,,,,,,,,,,,,,,,,,,,,,,,,,,,,,,,,,,,,,,,,,,,,,,,,,,,,,,,,,,,,,,,,,,,,,,,,,,,,,,,,,,,,,,,,,,,,,,
0,49,49,74,1,,60a57ec89138a40a4a5acc63,62c5561e7800824eb1166815,2022-07-06_10h34.50.940,Colour_Asymmetry_Pilot,2022.1.3,Win32,60.04924038,62c50e9c1127f2cd403a315f,,,,,,,,,,,,,,,,,,,,,,,,,,,,,,,,,,,,,,,,,,,,,,,,,,,,,,,,,,,,,,,,,,,,,,,,,,,,,,,,,,,,,,,,,,,,,,,,,,,,,,,,,,,,,,,,,,,,,,,,,,,,,,,,,,,,,,,,,,,,,,,,,,,,,,,,,,,,,,,,,,
0,50,50,59,1,,60a57ec89138a40a4a5acc63,62c5561e7800824eb1166815,2022-07-06_10h34.50.940,Colour_Asymmetry_Pilot,2022.1.3,Win32,60.04924038,62c50e9c1127f2cd403a315f,,,,,,,,,,,,,,,,,,,,,,,,,,,,,,,,,,,,,,,,,,,,,,,,,,,,,,,,,,,,,,,,,,,,,,,,,,,,,,,,,,,,,,,,,,,,,,,,,,,,,,,,,,,,,,,,,,,,,,,,,,,,,,,,,,,,,,,,,,,,,,,,,,,,,,,,,,,,,,,,,,
0,51,51,71,1,,60a57ec89138a40a4a5acc63,62c5561e7800824eb1166815,2022-07-06_10h34.50.940,Colour_Asymmetry_Pilot,2022.1.3,Win32,60.04924038,62c50e9c1127f2cd403a315f,,,,,,,,,,,,,,,,,,,,,,,,,,,,,,,,,,,,,,,,,,,,,,,,,,,,,,,,,,,,,,,,,,,,,,,,,,,,,,,,,,,,,,,,,,,,,,,,,,,,,,,,,,,,,,,,,,,,,,,,,,,,,,,,,,,,,,,,,,,,,,,,,,,,,,,,,,,,,,,,,,
0,52,52,44,1,,60a57ec89138a40a4a5acc63,62c5561e7800824eb1166815,2022-07-06_10h34.50.940,Colour_Asymmetry_Pilot,2022.1.3,Win32,60.04924038,62c50e9c1127f2cd403a315f,,,,,,,,,,,,,,,,,,,,,,,,,,,,,,,,,,,,,,,,,,,,,,,,,,,,,,,,,,,,,,,,,,,,,,,,,,,,,,,,,,,,,,,,,,,,,,,,,,,,,,,,,,,,,,,,,,,,,,,,,,,,,,,,,,,,,,,,,,,,,,,,,,,,,,,,,,,,,,,,,,
0,53,53,68,1,,60a57ec89138a40a4a5acc63,62c5561e7800824eb1166815,2022-07-06_10h34.50.940,Colour_Asymmetry_Pilot,2022.1.3,Win32,60.04924038,62c50e9c1127f2cd403a315f,,,,,,,,,,,,,,,,,,,,,,,,,,,,,,,,,,,,,,,,,,,,,,,,,,,,,,,,,,,,,,,,,,,,,,,,,,,,,,,,,,,,,,,,,,,,,,,,,,,,,,,,,,,,,,,,,,,,,,,,,,,,,,,,,,,,,,,,,,,,,,,,,,,,,,,,,,,,,,,,,,
0,54,54,1,1,,60a57ec89138a40a4a5acc63,62c5561e7800824eb1166815,2022-07-06_10h34.50.940,Colour_Asymmetry_Pilot,2022.1.3,Win32,60.04924038,62c50e9c1127f2cd403a315f,,,,,,,,,,,,,,,,,,,,,,,,,,,,,,,,,,,,,,,,,,,,,,,,,,,,,,,,,,,,,,,,,,,,,,,,,,,,,,,,,,,,,,,,,,,,,,,,,,,,,,,,,,,,,,,,,,,,,,,,,,,,,,,,,,,,,,,,,,,,,,,,,,,,,,,,,,,,,,,,,,
0,55,55,22,1,,60a57ec89138a40a4a5acc63,62c5561e7800824eb1166815,2022-07-06_10h34.50.940,Colour_Asymmetry_Pilot,2022.1.3,Win32,60.04924038,62c50e9c1127f2cd403a315f,,,,,,,,,,,,,,,,,,,,,,,,,,,,,,,,,,,,,,,,,,,,,,,,,,,,,,,,,,,,,,,,,,,,,,,,,,,,,,,,,,,,,,,,,,,,,,,,,,,,,,,,,,,,,,,,,,,,,,,,,,,,,,,,,,,,,,,,,,,,,,,,,,,,,,,,,,,,,,,,,,
0,56,56,57,1,,60a57ec89138a40a4a5acc63,62c5561e7800824eb1166815,2022-07-06_10h34.50.940,Colour_Asymmetry_Pilot,2022.1.3,Win32,60.04924038,62c50e9c1127f2cd403a315f,,,,,,,,,,,,,,,,,,,,,,,,,,,,,,,,,,,,,,,,,,,,,,,,,,,,,,,,,,,,,,,,,,,,,,,,,,,,,,,,,,,,,,,,,,,,,,,,,,,,,,,,,,,,,,,,,,,,,,,,,,,,,,,,,,,,,,,,,,,,,,,,,,,,,,,,,,,,,,,,,,
0,57,57,0,1,,60a57ec89138a40a4a5acc63,62c5561e7800824eb1166815,2022-07-06_10h34.50.940,Colour_Asymmetry_Pilot,2022.1.3,Win32,60.04924038,62c50e9c1127f2cd403a315f,,,,,,,,,,,,,,,,,,,,,,,,,,,,,,,,,,,,,,,,,,,,,,,,,,,,,,,,,,,,,,,,,,,,,,,,,,,,,,,,,,,,,,,,,,,,,,,,,,,,,,,,,,,,,,,,,,,,,,,,,,,,,,,,,,,,,,,,,,,,,,,,,,,,,,,,,,,,,,,,,,
0,58,58,25,1,,60a57ec89138a40a4a5acc63,62c5561e7800824eb1166815,2022-07-06_10h34.50.940,Colour_Asymmetry_Pilot,2022.1.3,Win32,60.04924038,62c50e9c1127f2cd403a315f,,,,,,,,,,,,,,,,,,,,,,,,,,,,,,,,,,,,,,,,,,,,,,,,,,,,,,,,,,,,,,,,,,,,,,,,,,,,,,,,,,,,,,,,,,,,,,,,,,,,,,,,,,,,,,,,,,,,,,,,,,,,,,,,,,,,,,,,,,,,,,,,,,,,,,,,,,,,,,,,,,
0,59,59,70,1,,60a57ec89138a40a4a5acc63,62c5561e7800824eb1166815,2022-07-06_10h34.50.940,Colour_Asymmetry_Pilot,2022.1.3,Win32,60.04924038,62c50e9c1127f2cd403a315f,,,,,,,,,,,,,,,,,,,,,,,,,,,,,,,,,,,,,,,,,,,,,,,,,,,,,,,,,,,,,,,,,,,,,,,,,,,,,,,,,,,,,,,,,,,,,,,,,,,,,,,,,,,,,,,,,,,,,,,,,,,,,,,,,,,,,,,,,,,,,,,,,,,,,,,,,,,,,,,,,,
0,60,60,86,1,,60a57ec89138a40a4a5acc63,62c5561e7800824eb1166815,2022-07-06_10h34.50.940,Colour_Asymmetry_Pilot,2022.1.3,Win32,60.04924038,62c50e9c1127f2cd403a315f,,,,,,,,,,,,,,,,,,,,,,,,,,,,,,,,,,,,,,,,,,,,,,,,,,,,,,,,,,,,,,,,,,,,,,,,,,,,,,,,,,,,,,,,,,,,,,,,,,,,,,,,,,,,,,,,,,,,,,,,,,,,,,,,,,,,,,,,,,,,,,,,,,,,,,,,,,,,,,,,,,
0,61,61,87,1,,60a57ec89138a40a4a5acc63,62c5561e7800824eb1166815,2022-07-06_10h34.50.940,Colour_Asymmetry_Pilot,2022.1.3,Win32,60.04924038,62c50e9c1127f2cd403a315f,,,,,,,,,,,,,,,,,,,,,,,,,,,,,,,,,,,,,,,,,,,,,,,,,,,,,,,,,,,,,,,,,,,,,,,,,,,,,,,,,,,,,,,,,,,,,,,,,,,,,,,,,,,,,,,,,,,,,,,,,,,,,,,,,,,,,,,,,,,,,,,,,,,,,,,,,,,,,,,,,,
0,62,62,2,1,,60a57ec89138a40a4a5acc63,62c5561e7800824eb1166815,2022-07-06_10h34.50.940,Colour_Asymmetry_Pilot,2022.1.3,Win32,60.04924038,62c50e9c1127f2cd403a315f,,,,,,,,,,,,,,,,,,,,,,,,,,,,,,,,,,,,,,,,,,,,,,,,,,,,,,,,,,,,,,,,,,,,,,,,,,,,,,,,,,,,,,,,,,,,,,,,,,,,,,,,,,,,,,,,,,,,,,,,,,,,,,,,,,,,,,,,,,,,,,,,,,,,,,,,,,,,,,,,,,
0,63,63,47,1,,60a57ec89138a40a4a5acc63,62c5561e7800824eb1166815,2022-07-06_10h34.50.940,Colour_Asymmetry_Pilot,2022.1.3,Win32,60.04924038,62c50e9c1127f2cd403a315f,,,,,,,,,,,,,,,,,,,,,,,,,,,,,,,,,,,,,,,,,,,,,,,,,,,,,,,,,,,,,,,,,,,,,,,,,,,,,,,,,,,,,,,,,,,,,,,,,,,,,,,,,,,,,,,,,,,,,,,,,,,,,,,,,,,,,,,,,,,,,,,,,,,,,,,,,,,,,,,,,,
0,64,64,54,1,,60a57ec89138a40a4a5acc63,62c5561e7800824eb1166815,2022-07-06_10h34.50.940,Colour_Asymmetry_Pilot,2022.1.3,Win32,60.04924038,62c50e9c1127f2cd403a315f,,,,,,,,,,,,,,,,,,,,,,,,,,,,,,,,,,,,,,,,,,,,,,,,,,,,,,,,,,,,,,,,,,,,,,,,,,,,,,,,,,,,,,,,,,,,,,,,,,,,,,,,,,,,,,,,,,,,,,,,,,,,,,,,,,,,,,,,,,,,,,,,,,,,,,,,,,,,,,,,,,
0,65,65,29,1,,60a57ec89138a40a4a5acc63,62c5561e7800824eb1166815,2022-07-06_10h34.50.940,Colour_Asymmetry_Pilot,2022.1.3,Win32,60.04924038,62c50e9c1127f2cd403a315f,,,,,,,,,,,,,,,,,,,,,,,,,,,,,,,,,,,,,,,,,,,,,,,,,,,,,,,,,,,,,,,,,,,,,,,,,,,,,,,,,,,,,,,,,,,,,,,,,,,,,,,,,,,,,,,,,,,,,,,,,,,,,,,,,,,,,,,,,,,,,,,,,,,,,,,,,,,,,,,,,,
0,66,66,83,1,,60a57ec89138a40a4a5acc63,62c5561e7800824eb1166815,2022-07-06_10h34.50.940,Colour_Asymmetry_Pilot,2022.1.3,Win32,60.04924038,62c50e9c1127f2cd403a315f,,,,,,,,,,,,,,,,,,,,,,,,,,,,,,,,,,,,,,,,,,,,,,,,,,,,,,,,,,,,,,,,,,,,,,,,,,,,,,,,,,,,,,,,,,,,,,,,,,,,,,,,,,,,,,,,,,,,,,,,,,,,,,,,,,,,,,,,,,,,,,,,,,,,,,,,,,,,,,,,,,
0,67,67,53,1,,60a57ec89138a40a4a5acc63,62c5561e7800824eb1166815,2022-07-06_10h34.50.940,Colour_Asymmetry_Pilot,2022.1.3,Win32,60.04924038,62c50e9c1127f2cd403a315f,,,,,,,,,,,,,,,,,,,,,,,,,,,,,,,,,,,,,,,,,,,,,,,,,,,,,,,,,,,,,,,,,,,,,,,,,,,,,,,,,,,,,,,,,,,,,,,,,,,,,,,,,,,,,,,,,,,,,,,,,,,,,,,,,,,,,,,,,,,,,,,,,,,,,,,,,,,,,,,,,,
0,68,68,55,1,,60a57ec89138a40a4a5acc63,62c5561e7800824eb1166815,2022-07-06_10h34.50.940,Colour_Asymmetry_Pilot,2022.1.3,Win32,60.04924038,62c50e9c1127f2cd403a315f,,,,,,,,,,,,,,,,,,,,,,,,,,,,,,,,,,,,,,,,,,,,,,,,,,,,,,,,,,,,,,,,,,,,,,,,,,,,,,,,,,,,,,,,,,,,,,,,,,,,,,,,,,,,,,,,,,,,,,,,,,,,,,,,,,,,,,,,,,,,,,,,,,,,,,,,,,,,,,,,,,
0,69,69,72,1,,60a57ec89138a40a4a5acc63,62c5561e7800824eb1166815,2022-07-06_10h34.50.940,Colour_Asymmetry_Pilot,2022.1.3,Win32,60.04924038,62c50e9c1127f2cd403a315f,,,,,,,,,,,,,,,,,,,,,,,,,,,,,,,,,,,,,,,,,,,,,,,,,,,,,,,,,,,,,,,,,,,,,,,,,,,,,,,,,,,,,,,,,,,,,,,,,,,,,,,,,,,,,,,,,,,,,,,,,,,,,,,,,,,,,,,,,,,,,,,,,,,,,,,,,,,,,,,,,,
0,70,70,85,1,,60a57ec89138a40a4a5acc63,62c5561e7800824eb1166815,2022-07-06_10h34.50.940,Colour_Asymmetry_Pilot,2022.1.3,Win32,60.04924038,62c50e9c1127f2cd403a315f,,,,,,,,,,,,,,,,,,,,,,,,,,,,,,,,,,,,,,,,,,,,,,,,,,,,,,,,,,,,,,,,,,,,,,,,,,,,,,,,,,,,,,,,,,,,,,,,,,,,,,,,,,,,,,,,,,,,,,,,,,,,,,,,,,,,,,,,,,,,,,,,,,,,,,,,,,,,,,,,,,
0,71,71,41,1,,60a57ec89138a40a4a5acc63,62c5561e7800824eb1166815,2022-07-06_10h34.50.940,Colour_Asymmetry_Pilot,2022.1.3,Win32,60.04924038,62c50e9c1127f2cd403a315f,,,,,,,,,,,,,,,,,,,,,,,,,,,,,,,,,,,,,,,,,,,,,,,,,,,,,,,,,,,,,,,,,,,,,,,,,,,,,,,,,,,,,,,,,,,,,,,,,,,,,,,,,,,,,,,,,,,,,,,,,,,,,,,,,,,,,,,,,,,,,,,,,,,,,,,,,,,,,,,,,,
0,72,72,11,1,,60a57ec89138a40a4a5acc63,62c5561e7800824eb1166815,2022-07-06_10h34.50.940,Colour_Asymmetry_Pilot,2022.1.3,Win32,60.04924038,62c50e9c1127f2cd403a315f,,,,,,,,,,,,,,,,,,,,,,,,,,,,,,,,,,,,,,,,,,,,,,,,,,,,,,,,,,,,,,,,,,,,,,,,,,,,,,,,,,,,,,,,,,,,,,,,,,,,,,,,,,,,,,,,,,,,,,,,,,,,,,,,,,,,,,,,,,,,,,,,,,,,,,,,,,,,,,,,,,
0,73,73,92,1,,60a57ec89138a40a4a5acc63,62c5561e7800824eb1166815,2022-07-06_10h34.50.940,Colour_Asymmetry_Pilot,2022.1.3,Win32,60.04924038,62c50e9c1127f2cd403a315f,,,,,,,,,,,,,,,,,,,,,,,,,,,,,,,,,,,,,,,,,,,,,,,,,,,,,,,,,,,,,,,,,,,,,,,,,,,,,,,,,,,,,,,,,,,,,,,,,,,,,,,,,,,,,,,,,,,,,,,,,,,,,,,,,,,,,,,,,,,,,,,,,,,,,,,,,,,,,,,,,,
0,74,74,8,1,,60a57ec89138a40a4a5acc63,62c5561e7800824eb1166815,2022-07-06_10h34.50.940,Colour_Asymmetry_Pilot,2022.1.3,Win32,60.04924038,62c50e9c1127f2cd403a315f,,,,,,,,,,,,,,,,,,,,,,,,,,,,,,,,,,,,,,,,,,,,,,,,,,,,,,,,,,,,,,,,,,,,,,,,,,,,,,,,,,,,,,,,,,,,,,,,,,,,,,,,,,,,,,,,,,,,,,,,,,,,,,,,,,,,,,,,,,,,,,,,,,,,,,,,,,,,,,,,,,
0,75,75,51,1,,60a57ec89138a40a4a5acc63,62c5561e7800824eb1166815,2022-07-06_10h34.50.940,Colour_Asymmetry_Pilot,2022.1.3,Win32,60.04924038,62c50e9c1127f2cd403a315f,,,,,,,,,,,,,,,,,,,,,,,,,,,,,,,,,,,,,,,,,,,,,,,,,,,,,,,,,,,,,,,,,,,,,,,,,,,,,,,,,,,,,,,,,,,,,,,,,,,,,,,,,,,,,,,,,,,,,,,,,,,,,,,,,,,,,,,,,,,,,,,,,,,,,,,,,,,,,,,,,,
0,76,76,80,1,,60a57ec89138a40a4a5acc63,62c5561e7800824eb1166815,2022-07-06_10h34.50.940,Colour_Asymmetry_Pilot,2022.1.3,Win32,60.04924038,62c50e9c1127f2cd403a315f,,,,,,,,,,,,,,,,,,,,,,,,,,,,,,,,,,,,,,,,,,,,,,,,,,,,,,,,,,,,,,,,,,,,,,,,,,,,,,,,,,,,,,,,,,,,,,,,,,,,,,,,,,,,,,,,,,,,,,,,,,,,,,,,,,,,,,,,,,,,,,,,,,,,,,,,,,,,,,,,,,
0,77,77,20,1,,60a57ec89138a40a4a5acc63,62c5561e7800824eb1166815,2022-07-06_10h34.50.940,Colour_Asymmetry_Pilot,2022.1.3,Win32,60.04924038,62c50e9c1127f2cd403a315f,,,,,,,,,,,,,,,,,,,,,,,,,,,,,,,,,,,,,,,,,,,,,,,,,,,,,,,,,,,,,,,,,,,,,,,,,,,,,,,,,,,,,,,,,,,,,,,,,,,,,,,,,,,,,,,,,,,,,,,,,,,,,,,,,,,,,,,,,,,,,,,,,,,,,,,,,,,,,,,,,,
0,78,78,61,1,,60a57ec89138a40a4a5acc63,62c5561e7800824eb1166815,2022-07-06_10h34.50.940,Colour_Asymmetry_Pilot,2022.1.3,Win32,60.04924038,62c50e9c1127f2cd403a315f,,,,,,,,,,,,,,,,,,,,,,,,,,,,,,,,,,,,,,,,,,,,,,,,,,,,,,,,,,,,,,,,,,,,,,,,,,,,,,,,,,,,,,,,,,,,,,,,,,,,,,,,,,,,,,,,,,,,,,,,,,,,,,,,,,,,,,,,,,,,,,,,,,,,,,,,,,,,,,,,,,
0,79,79,16,1,,60a57ec89138a40a4a5acc63,62c5561e7800824eb1166815,2022-07-06_10h34.50.940,Colour_Asymmetry_Pilot,2022.1.3,Win32,60.04924038,62c50e9c1127f2cd403a315f,,,,,,,,,,,,,,,,,,,,,,,,,,,,,,,,,,,,,,,,,,,,,,,,,,,,,,,,,,,,,,,,,,,,,,,,,,,,,,,,,,,,,,,,,,,,,,,,,,,,,,,,,,,,,,,,,,,,,,,,,,,,,,,,,,,,,,,,,,,,,,,,,,,,,,,,,,,,,,,,,,
0,80,80,52,1,,60a57ec89138a40a4a5acc63,62c5561e7800824eb1166815,2022-07-06_10h34.50.940,Colour_Asymmetry_Pilot,2022.1.3,Win32,60.04924038,62c50e9c1127f2cd403a315f,,,,,,,,,,,,,,,,,,,,,,,,,,,,,,,,,,,,,,,,,,,,,,,,,,,,,,,,,,,,,,,,,,,,,,,,,,,,,,,,,,,,,,,,,,,,,,,,,,,,,,,,,,,,,,,,,,,,,,,,,,,,,,,,,,,,,,,,,,,,,,,,,,,,,,,,,,,,,,,,,,
0,81,81,31,1,,60a57ec89138a40a4a5acc63,62c5561e7800824eb1166815,2022-07-06_10h34.50.940,Colour_Asymmetry_Pilot,2022.1.3,Win32,60.04924038,62c50e9c1127f2cd403a315f,,,,,,,,,,,,,,,,,,,,,,,,,,,,,,,,,,,,,,,,,,,,,,,,,,,,,,,,,,,,,,,,,,,,,,,,,,,,,,,,,,,,,,,,,,,,,,,,,,,,,,,,,,,,,,,,,,,,,,,,,,,,,,,,,,,,,,,,,,,,,,,,,,,,,,,,,,,,,,,,,,
0,82,82,42,1,,60a57ec89138a40a4a5acc63,62c5561e7800824eb1166815,2022-07-06_10h34.50.940,Colour_Asymmetry_Pilot,2022.1.3,Win32,60.04924038,62c50e9c1127f2cd403a315f,,,,,,,,,,,,,,,,,,,,,,,,,,,,,,,,,,,,,,,,,,,,,,,,,,,,,,,,,,,,,,,,,,,,,,,,,,,,,,,,,,,,,,,,,,,,,,,,,,,,,,,,,,,,,,,,,,,,,,,,,,,,,,,,,,,,,,,,,,,,,,,,,,,,,,,,,,,,,,,,,,
0,83,83,17,1,,60a57ec89138a40a4a5acc63,62c5561e7800824eb1166815,2022-07-06_10h34.50.940,Colour_Asymmetry_Pilot,2022.1.3,Win32,60.04924038,62c50e9c1127f2cd403a315f,,,,,,,,,,,,,,,,,,,,,,,,,,,,,,,,,,,,,,,,,,,,,,,,,,,,,,,,,,,,,,,,,,,,,,,,,,,,,,,,,,,,,,,,,,,,,,,,,,,,,,,,,,,,,,,,,,,,,,,,,,,,,,,,,,,,,,,,,,,,,,,,,,,,,,,,,,,,,,,,,,
0,84,84,45,1,,60a57ec89138a40a4a5acc63,62c5561e7800824eb1166815,2022-07-06_10h34.50.940,Colour_Asymmetry_Pilot,2022.1.3,Win32,60.04924038,62c50e9c1127f2cd403a315f,,,,,,,,,,,,,,,,,,,,,,,,,,,,,,,,,,,,,,,,,,,,,,,,,,,,,,,,,,,,,,,,,,,,,,,,,,,,,,,,,,,,,,,,,,,,,,,,,,,,,,,,,,,,,,,,,,,,,,,,,,,,,,,,,,,,,,,,,,,,,,,,,,,,,,,,,,,,,,,,,,
0,85,85,40,1,,60a57ec89138a40a4a5acc63,62c5561e7800824eb1166815,2022-07-06_10h34.50.940,Colour_Asymmetry_Pilot,2022.1.3,Win32,60.04924038,62c50e9c1127f2cd403a315f,,,,,,,,,,,,,,,,,,,,,,,,,,,,,,,,,,,,,,,,,,,,,,,,,,,,,,,,,,,,,,,,,,,,,,,,,,,,,,,,,,,,,,,,,,,,,,,,,,,,,,,,,,,,,,,,,,,,,,,,,,,,,,,,,,,,,,,,,,,,,,,,,,,,,,,,,,,,,,,,,,
0,86,86,73,1,,60a57ec89138a40a4a5acc63,62c5561e7800824eb1166815,2022-07-06_10h34.50.940,Colour_Asymmetry_Pilot,2022.1.3,Win32,60.04924038,62c50e9c1127f2cd403a315f,,,,,,,,,,,,,,,,,,,,,,,,,,,,,,,,,,,,,,,,,,,,,,,,,,,,,,,,,,,,,,,,,,,,,,,,,,,,,,,,,,,,,,,,,,,,,,,,,,,,,,,,,,,,,,,,,,,,,,,,,,,,,,,,,,,,,,,,,,,,,,,,,,,,,,,,,,,,,,,,,,
0,87,87,38,1,,60a57ec89138a40a4a5acc63,62c5561e7800824eb1166815,2022-07-06_10h34.50.940,Colour_Asymmetry_Pilot,2022.1.3,Win32,60.04924038,62c50e9c1127f2cd403a315f,,,,,,,,,,,,,,,,,,,,,,,,,,,,,,,,,,,,,,,,,,,,,,,,,,,,,,,,,,,,,,,,,,,,,,,,,,,,,,,,,,,,,,,,,,,,,,,,,,,,,,,,,,,,,,,,,,,,,,,,,,,,,,,,,,,,,,,,,,,,,,,,,,,,,,,,,,,,,,,,,,
0,88,88,34,1,,60a57ec89138a40a4a5acc63,62c5561e7800824eb1166815,2022-07-06_10h34.50.940,Colour_Asymmetry_Pilot,2022.1.3,Win32,60.04924038,62c50e9c1127f2cd403a315f,,,,,,,,,,,,,,,,,,,,,,,,,,,,,,,,,,,,,,,,,,,,,,,,,,,,,,,,,,,,,,,,,,,,,,,,,,,,,,,,,,,,,,,,,,,,,,,,,,,,,,,,,,,,,,,,,,,,,,,,,,,,,,,,,,,,,,,,,,,,,,,,,,,,,,,,,,,,,,,,,,
0,89,89,18,1,,60a57ec89138a40a4a5acc63,62c5561e7800824eb1166815,2022-07-06_10h34.50.940,Colour_Asymmetry_Pilot,2022.1.3,Win32,60.04924038,62c50e9c1127f2cd403a315f,,,,,,,,,,,,,,,,,,,,,,,,,,,,,,,,,,,,,,,,,,,,,,,,,,,,,,,,,,,,,,,,,,,,,,,,,,,,,,,,,,,,,,,,,,,,,,,,,,,,,,,,,,,,,,,,,,,,,,,,,,,,,,,,,,,,,,,,,,,,,,,,,,,,,,,,,,,,,,,,,,
0,90,90,49,1,,60a57ec89138a40a4a5acc63,62c5561e7800824eb1166815,2022-07-06_10h34.50.940,Colour_Asymmetry_Pilot,2022.1.3,Win32,60.04924038,62c50e9c1127f2cd403a315f,,,,,,,,,,,,,,,,,,,,,,,,,,,,,,,,,,,,,,,,,,,,,,,,,,,,,,,,,,,,,,,,,,,,,,,,,,,,,,,,,,,,,,,,,,,,,,,,,,,,,,,,,,,,,,,,,,,,,,,,,,,,,,,,,,,,,,,,,,,,,,,,,,,,,,,,,,,,,,,,,,
0,91,91,82,1,,60a57ec89138a40a4a5acc63,62c5561e7800824eb1166815,2022-07-06_10h34.50.940,Colour_Asymmetry_Pilot,2022.1.3,Win32,60.04924038,62c50e9c1127f2cd403a315f,,,,,,,,,,,,,,,,,,,,,,,,,,,,,,,,,,,,,,,,,,,,,,,,,,,,,,,,,,,,,,,,,,,,,,,,,,,,,,,,,,,,,,,,,,,,,,,,,,,,,,,,,,,,,,,,,,,,,,,,,,,,,,,,,,,,,,,,,,,,,,,,,,,,,,,,,,,,,,,,,,
0,92,92,30,1,,60a57ec89138a40a4a5acc63,62c5561e7800824eb1166815,2022-07-06_10h34.50.940,Colour_Asymmetry_Pilot,2022.1.3,Win32,60.04924038,62c50e9c1127f2cd403a315f,,,,,,,,,,,,,,,,,,,,,,,,,,,,,,,,,,,,,,,,,,,,,,,,,,,,,,,,,,,,,,,,,,,,,,,,,,,,,,,,,,,,,,,,,,,,,,,,,,,,,,,,,,,,,,,,,,,,,,,,,,,,,,,,,,,,,,,,,,,,,,,,,,,,,,,,,,,,,,,,,,
,,,,,,60a57ec89138a40a4a5acc63,62c5561e7800824eb1166815,2022-07-06_10h34.50.940,Colour_Asymmetry_Pilot,2022.1.3,Win32,60.04924038,62c50e9c1127f2cd403a315f,0,0,0,58,1,twoone,,,,,,,,,,,,,,,,,,,,,,,,,,,,,,,,,,,,,,,,,,,,,,,,,,,,,,,,,,,,,,,,,,,,,,,,,,,,,,,,,,,,,,,,,,,,,,,,,,,,,,,,,,,,,,,,,,,,,,,,,,,,,,,,,,,,,,,,,,,,,,,,,,,,,,,,,,,,
,,,,,,60a57ec89138a40a4a5acc63,62c5561e7800824eb1166815,2022-07-06_10h34.50.940,Colour_Asymmetry_Pilot,2022.1.3,Win32,60.04924038,62c50e9c1127f2cd403a315f,0,1,1,144,1,onetwo,,,,,,,,,,,,,,,,,,,,,,,,,,,,,,,,,,,,,,,,,,,,,,,,,,,,,,,,,,,,,,,,,,,,,,,,,,,,,,,,,,,,,,,,,,,,,,,,,,,,,,,,,,,,,,,,,,,,,,,,,,,,,,,,,,,,,,,,,,,,,,,,,,,,,,,,,,,,
,,,,,,60a57ec89138a40a4a5acc63,62c5561e7800824eb1166815,2022-07-06_10h34.50.940,Colour_Asymmetry_Pilot,2022.1.3,Win32,60.04924038,62c50e9c1127f2cd403a315f,0,2,2,40,1,onetwo,,,,,,,,,,,,,,,,,,,,,,,,,,,,,,,,,,,,,,,,,,,,,,,,,,,,,,,,,,,,,,,,,,,,,,,,,,,,,,,,,,,,,,,,,,,,,,,,,,,,,,,,,,,,,,,,,,,,,,,,,,,,,,,,,,,,,,,,,,,,,,,,,,,,,,,,,,,,
,,,,,,60a57ec89138a40a4a5acc63,62c5561e7800824eb1166815,2022-07-06_10h34.50.940,Colour_Asymmetry_Pilot,2022.1.3,Win32,60.04924038,62c50e9c1127f2cd403a315f,0,3,3,3,1,twofour,,,,,,,,,,,,,,,,,,,,,,,,,,,,,,,,,,,,,,,,,,,,,,,,,,,,,,,,,,,,,,,,,,,,,,,,,,,,,,,,,,,,,,,,,,,,,,,,,,,,,,,,,,,,,,,,,,,,,,,,,,,,,,,,,,,,,,,,,,,,,,,,,,,,,,,,,,,,
,,,,,,60a57ec89138a40a4a5acc63,62c5561e7800824eb1166815,2022-07-06_10h34.50.940,Colour_Asymmetry_Pilot,2022.1.3,Win32,60.04924038,62c50e9c1127f2cd403a315f,0,4,4,151,1,fourthree,,,,,,,,,,,,,,,,,,,,,,,,,,,,,,,,,,,,,,,,,,,,,,,,,,,,,,,,,,,,,,,,,,,,,,,,,,,,,,,,,,,,,,,,,,,,,,,,,,,,,,,,,,,,,,,,,,,,,,,,,,,,,,,,,,,,,,,,,,,,,,,,,,,,,,,,,,,,
,,,,,,60a57ec89138a40a4a5acc63,62c5561e7800824eb1166815,2022-07-06_10h34.50.940,Colour_Asymmetry_Pilot,2022.1.3,Win32,60.04924038,62c50e9c1127f2cd403a315f,0,5,5,160,1,onetwo,,,,,,,,,,,,,,,,,,,,,,,,,,,,,,,,,,,,,,,,,,,,,,,,,,,,,,,,,,,,,,,,,,,,,,,,,,,,,,,,,,,,,,,,,,,,,,,,,,,,,,,,,,,,,,,,,,,,,,,,,,,,,,,,,,,,,,,,,,,,,,,,,,,,,,,,,,,,
,,,,,,60a57ec89138a40a4a5acc63,62c5561e7800824eb1166815,2022-07-06_10h34.50.940,Colour_Asymmetry_Pilot,2022.1.3,Win32,60.04924038,62c50e9c1127f2cd403a315f,0,6,6,1,1,onethree,,,,,,,,,,,,,,,,,,,,,,,,,,,,,,,,,,,,,,,,,,,,,,,,,,,,,,,,,,,,,,,,,,,,,,,,,,,,,,,,,,,,,,,,,,,,,,,,,,,,,,,,,,,,,,,,,,,,,,,,,,,,,,,,,,,,,,,,,,,,,,,,,,,,,,,,,,,,
,,,,,,60a57ec89138a40a4a5acc63,62c5561e7800824eb1166815,2022-07-06_10h34.50.940,Colour_Asymmetry_Pilot,2022.1.3,Win32,60.04924038,62c50e9c1127f2cd403a315f,0,7,7,45,1,threefour,,,,,,,,,,,,,,,,,,,,,,,,,,,,,,,,,,,,,,,,,,,,,,,,,,,,,,,,,,,,,,,,,,,,,,,,,,,,,,,,,,,,,,,,,,,,,,,,,,,,,,,,,,,,,,,,,,,,,,,,,,,,,,,,,,,,,,,,,,,,,,,,,,,,,,,,,,,,
,,,,,,60a57ec89138a40a4a5acc63,62c5561e7800824eb1166815,2022-07-06_10h34.50.940,Colour_Asymmetry_Pilot,2022.1.3,Win32,60.04924038,62c50e9c1127f2cd403a315f,0,8,8,146,1,twoone,,,,,,,,,,,,,,,,,,,,,,,,,,,,,,,,,,,,,,,,,,,,,,,,,,,,,,,,,,,,,,,,,,,,,,,,,,,,,,,,,,,,,,,,,,,,,,,,,,,,,,,,,,,,,,,,,,,,,,,,,,,,,,,,,,,,,,,,,,,,,,,,,,,,,,,,,,,,
,,,,,,60a57ec89138a40a4a5acc63,62c5561e7800824eb1166815,2022-07-06_10h34.50.940,Colour_Asymmetry_Pilot,2022.1.3,Win32,60.04924038,62c50e9c1127f2cd403a315f,0,9,9,26,1,twoone,,,,,,,,,,,,,,,,,,,,,,,,,,,,,,,,,,,,,,,,,,,,,,,,,,,,,,,,,,,,,,,,,,,,,,,,,,,,,,,,,,,,,,,,,,,,,,,,,,,,,,,,,,,,,,,,,,,,,,,,,,,,,,,,,,,,,,,,,,,,,,,,,,,,,,,,,,,,
,,,,,,60a57ec89138a40a4a5acc63,62c5561e7800824eb1166815,2022-07-06_10h34.50.940,Colour_Asymmetry_Pilot,2022.1.3,Win32,60.04924038,62c50e9c1127f2cd403a315f,0,10,10,110,1,fourtwo,,,,,,,,,,,,,,,,,,,,,,,,,,,,,,,,,,,,,,,,,,,,,,,,,,,,,,,,,,,,,,,,,,,,,,,,,,,,,,,,,,,,,,,,,,,,,,,,,,,,,,,,,,,,,,,,,,,,,,,,,,,,,,,,,,,,,,,,,,,,,,,,,,,,,,,,,,,,
,,,,,,60a57ec89138a40a4a5acc63,62c5561e7800824eb1166815,2022-07-06_10h34.50.940,Colour_Asymmetry_Pilot,2022.1.3,Win32,60.04924038,62c50e9c1127f2cd403a315f,0,11,11,120,1,onetwo,,,,,,,,,,,,,,,,,,,,,,,,,,,,,,,,,,,,,,,,,,,,,,,,,,,,,,,,,,,,,,,,,,,,,,,,,,,,,,,,,,,,,,,,,,,,,,,,,,,,,,,,,,,,,,,,,,,,,,,,,,,,,,,,,,,,,,,,,,,,,,,,,,,,,,,,,,,,
,,,,,,60a57ec89138a40a4a5acc63,62c5561e7800824eb1166815,2022-07-06_10h34.50.940,Colour_Asymmetry_Pilot,2022.1.3,Win32,60.04924038,62c50e9c1127f2cd403a315f,0,12,12,63,1,fourthree,,,,,,,,,,,,,,,,,,,,,,,,,,,,,,,,,,,,,,,,,,,,,,,,,,,,,,,,,,,,,,,,,,,,,,,,,,,,,,,,,,,,,,,,,,,,,,,,,,,,,,,,,,,,,,,,,,,,,,,,,,,,,,,,,,,,,,,,,,,,,,,,,,,,,,,,,,,,
,,,,,,60a57ec89138a40a4a5acc63,62c5561e7800824eb1166815,2022-07-06_10h34.50.940,Colour_Asymmetry_Pilot,2022.1.3,Win32,60.04924038,62c50e9c1127f2cd403a315f,0,13,13,127,1,fourthree,,,,,,,,,,,,,,,,,,,,,,,,,,,,,,,,,,,,,,,,,,,,,,,,,,,,,,,,,,,,,,,,,,,,,,,,,,,,,,,,,,,,,,,,,,,,,,,,,,,,,,,,,,,,,,,,,,,,,,,,,,,,,,,,,,,,,,,,,,,,,,,,,,,,,,,,,,,,
,,,,,,60a57ec89138a40a4a5acc63,62c5561e7800824eb1166815,2022-07-06_10h34.50.940,Colour_Asymmetry_Pilot,2022.1.3,Win32,60.04924038,62c50e9c1127f2cd403a315f,0,14,14,149,1,threefour,,,,,,,,,,,,,,,,,,,,,,,,,,,,,,,,,,,,,,,,,,,,,,,,,,,,,,,,,,,,,,,,,,,,,,,,,,,,,,,,,,,,,,,,,,,,,,,,,,,,,,,,,,,,,,,,,,,,,,,,,,,,,,,,,,,,,,,,,,,,,,,,,,,,,,,,,,,,
,,,,,,60a57ec89138a40a4a5acc63,62c5561e7800824eb1166815,2022-07-06_10h34.50.940,Colour_Asymmetry_Pilot,2022.1.3,Win32,60.04924038,62c50e9c1127f2cd403a315f,0,15,15,79,1,fourthree,,,,,,,,,,,,,,,,,,,,,,,,,,,,,,,,,,,,,,,,,,,,,,,,,,,,,,,,,,,,,,,,,,,,,,,,,,,,,,,,,,,,,,,,,,,,,,,,,,,,,,,,,,,,,,,,,,,,,,,,,,,,,,,,,,,,,,,,,,,,,,,,,,,,,,,,,,,,
,,,,,,60a57ec89138a40a4a5acc63,62c5561e7800824eb1166815,2022-07-06_10h34.50.940,Colour_Asymmetry_Pilot,2022.1.3,Win32,60.04924038,62c50e9c1127f2cd403a315f,0,16,16,12,1,threeone,,,,,,,,,,,,,,,,,,,,,,,,,,,,,,,,,,,,,,,,,,,,,,,,,,,,,,,,,,,,,,,,,,,,,,,,,,,,,,,,,,,,,,,,,,,,,,,,,,,,,,,,,,,,,,,,,,,,,,,,,,,,,,,,,,,,,,,,,,,,,,,,,,,,,,,,,,,,
,,,,,,60a57ec89138a40a4a5acc63,62c5561e7800824eb1166815,2022-07-06_10h34.50.940,Colour_Asymmetry_Pilot,2022.1.3,Win32,60.04924038,62c50e9c1127f2cd403a315f,0,17,17,64,1,onetwo,,,,,,,,,,,,,,,,,,,,,,,,,,,,,,,,,,,,,,,,,,,,,,,,,,,,,,,,,,,,,,,,,,,,,,,,,,,,,,,,,,,,,,,,,,,,,,,,,,,,,,,,,,,,,,,,,,,,,,,,,,,,,,,,,,,,,,,,,,,,,,,,,,,,,,,,,,,,
,,,,,,60a57ec89138a40a4a5acc63,62c5561e7800824eb1166815,2022-07-06_10h34.50.940,Colour_Asymmetry_Pilot,2022.1.3,Win32,60.04924038,62c50e9c1127f2cd403a315f,0,18,18,28,1,threeone,,,,,,,,,,,,,,,,,,,,,,,,,,,,,,,,,,,,,,,,,,,,,,,,,,,,,,,,,,,,,,,,,,,,,,,,,,,,,,,,,,,,,,,,,,,,,,,,,,,,,,,,,,,,,,,,,,,,,,,,,,,,,,,,,,,,,,,,,,,,,,,,,,,,,,,,,,,,
,,,,,,60a57ec89138a40a4a5acc63,62c5561e7800824eb1166815,2022-07-06_10h34.50.940,Colour_Asymmetry_Pilot,2022.1.3,Win32,60.04924038,62c50e9c1127f2cd403a315f,0,19,19,42,1,twoone,,,,,,,,,,,,,,,,,,,,,,,,,,,,,,,,,,,,,,,,,,,,,,,,,,,,,,,,,,,,,,,,,,,,,,,,,,,,,,,,,,,,,,,,,,,,,,,,,,,,,,,,,,,,,,,,,,,,,,,,,,,,,,,,,,,,,,,,,,,,,,,,,,,,,,,,,,,,
,,,,,,60a57ec89138a40a4a5acc63,62c5561e7800824eb1166815,2022-07-06_10h34.50.940,Colour_Asymmetry_Pilot,2022.1.3,Win32,60.04924038,62c50e9c1127f2cd403a315f,0,20,20,68,1,threeone,,,,,,,,,,,,,,,,,,,,,,,,,,,,,,,,,,,,,,,,,,,,,,,,,,,,,,,,,,,,,,,,,,,,,,,,,,,,,,,,,,,,,,,,,,,,,,,,,,,,,,,,,,,,,,,,,,,,,,,,,,,,,,,,,,,,,,,,,,,,,,,,,,,,,,,,,,,,
,,,,,,60a57ec89138a40a4a5acc63,62c5561e7800824eb1166815,2022-07-06_10h34.50.940,Colour_Asymmetry_Pilot,2022.1.3,Win32,60.04924038,62c50e9c1127f2cd403a315f,0,21,21,94,1,fourtwo,,,,,,,,,,,,,,,,,,,,,,,,,,,,,,,,,,,,,,,,,,,,,,,,,,,,,,,,,,,,,,,,,,,,,,,,,,,,,,,,,,,,,,,,,,,,,,,,,,,,,,,,,,,,,,,,,,,,,,,,,,,,,,,,,,,,,,,,,,,,,,,,,,,,,,,,,,,,
,,,,,,60a57ec89138a40a4a5acc63,62c5561e7800824eb1166815,2022-07-06_10h34.50.940,Colour_Asymmetry_Pilot,2022.1.3,Win32,60.04924038,62c50e9c1127f2cd403a315f,0,22,22,90,1,twoone,,,,,,,,,,,,,,,,,,,,,,,,,,,,,,,,,,,,,,,,,,,,,,,,,,,,,,,,,,,,,,,,,,,,,,,,,,,,,,,,,,,,,,,,,,,,,,,,,,,,,,,,,,,,,,,,,,,,,,,,,,,,,,,,,,,,,,,,,,,,,,,,,,,,,,,,,,,,
,,,,,,60a57ec89138a40a4a5acc63,62c5561e7800824eb1166815,2022-07-06_10h34.50.940,Colour_Asymmetry_Pilot,2022.1.3,Win32,60.04924038,62c50e9c1127f2cd403a315f,0,23,23,109,1,threefour,,,,,,,,,,,,,,,,,,,,,,,,,,,,,,,,,,,,,,,,,,,,,,,,,,,,,,,,,,,,,,,,,,,,,,,,,,,,,,,,,,,,,,,,,,,,,,,,,,,,,,,,,,,,,,,,,,,,,,,,,,,,,,,,,,,,,,,,,,,,,,,,,,,,,,,,,,,,
,,,,,,60a57ec89138a40a4a5acc63,62c5561e7800824eb1166815,2022-07-06_10h34.50.940,Colour_Asymmetry_Pilot,2022.1.3,Win32,60.04924038,62c50e9c1127f2cd403a315f,0,24,24,122,1,twoone,,,,,,,,,,,,,,,,,,,,,,,,,,,,,,,,,,,,,,,,,,,,,,,,,,,,,,,,,,,,,,,,,,,,,,,,,,,,,,,,,,,,,,,,,,,,,,,,,,,,,,,,,,,,,,,,,,,,,,,,,,,,,,,,,,,,,,,,,,,,,,,,,,,,,,,,,,,,
,,,,,,60a57ec89138a40a4a5acc63,62c5561e7800824eb1166815,2022-07-06_10h34.50.940,Colour_Asymmetry_Pilot,2022.1.3,Win32,60.04924038,62c50e9c1127f2cd403a315f,0,25,25,29,1,threefour,,,,,,,,,,,,,,,,,,,,,,,,,,,,,,,,,,,,,,,,,,,,,,,,,,,,,,,,,,,,,,,,,,,,,,,,,,,,,,,,,,,,,,,,,,,,,,,,,,,,,,,,,,,,,,,,,,,,,,,,,,,,,,,,,,,,,,,,,,,,,,,,,,,,,,,,,,,,
,,,,,,60a57ec89138a40a4a5acc63,62c5561e7800824eb1166815,2022-07-06_10h34.50.940,Colour_Asymmetry_Pilot,2022.1.3,Win32,60.04924038,62c50e9c1127f2cd403a315f,0,26,26,115,1,twofour,,,,,,,,,,,,,,,,,,,,,,,,,,,,,,,,,,,,,,,,,,,,,,,,,,,,,,,,,,,,,,,,,,,,,,,,,,,,,,,,,,,,,,,,,,,,,,,,,,,,,,,,,,,,,,,,,,,,,,,,,,,,,,,,,,,,,,,,,,,,,,,,,,,,,,,,,,,,
,,,,,,60a57ec89138a40a4a5acc63,62c5561e7800824eb1166815,2022-07-06_10h34.50.940,Colour_Asymmetry_Pilot,2022.1.3,Win32,60.04924038,62c50e9c1127f2cd403a315f,0,27,27,143,1,fourthree,,,,,,,,,,,,,,,,,,,,,,,,,,,,,,,,,,,,,,,,,,,,,,,,,,,,,,,,,,,,,,,,,,,,,,,,,,,,,,,,,,,,,,,,,,,,,,,,,,,,,,,,,,,,,,,,,,,,,,,,,,,,,,,,,,,,,,,,,,,,,,,,,,,,,,,,,,,,
,,,,,,60a57ec89138a40a4a5acc63,62c5561e7800824eb1166815,2022-07-06_10h34.50.940,Colour_Asymmetry_Pilot,2022.1.3,Win32,60.04924038,62c50e9c1127f2cd403a315f,0,28,28,108,1,threeone,,,,,,,,,,,,,,,,,,,,,,,,,,,,,,,,,,,,,,,,,,,,,,,,,,,,,,,,,,,,,,,,,,,,,,,,,,,,,,,,,,,,,,,,,,,,,,,,,,,,,,,,,,,,,,,,,,,,,,,,,,,,,,,,,,,,,,,,,,,,,,,,,,,,,,,,,,,,
,,,,,,60a57ec89138a40a4a5acc63,62c5561e7800824eb1166815,2022-07-06_10h34.50.940,Colour_Asymmetry_Pilot,2022.1.3,Win32,60.04924038,62c50e9c1127f2cd403a315f,0,29,29,30,1,fourtwo,,,,,,,,,,,,,,,,,,,,,,,,,,,,,,,,,,,,,,,,,,,,,,,,,,,,,,,,,,,,,,,,,,,,,,,,,,,,,,,,,,,,,,,,,,,,,,,,,,,,,,,,,,,,,,,,,,,,,,,,,,,,,,,,,,,,,,,,,,,,,,,,,,,,,,,,,,,,
,,,,,,60a57ec89138a40a4a5acc63,62c5561e7800824eb1166815,2022-07-06_10h34.50.940,Colour_Asymmetry_Pilot,2022.1.3,Win32,60.04924038,62c50e9c1127f2cd403a315f,0,30,30,88,1,onetwo,,,,,,,,,,,,,,,,,,,,,,,,,,,,,,,,,,,,,,,,,,,,,,,,,,,,,,,,,,,,,,,,,,,,,,,,,,,,,,,,,,,,,,,,,,,,,,,,,,,,,,,,,,,,,,,,,,,,,,,,,,,,,,,,,,,,,,,,,,,,,,,,,,,,,,,,,,,,
,,,,,,60a57ec89138a40a4a5acc63,62c5561e7800824eb1166815,2022-07-06_10h34.50.940,Colour_Asymmetry_Pilot,2022.1.3,Win32,60.04924038,62c50e9c1127f2cd403a315f,0,31,31,35,1,twofour,,,,,,,,,,,,,,,,,,,,,,,,,,,,,,,,,,,,,,,,,,,,,,,,,,,,,,,,,,,,,,,,,,,,,,,,,,,,,,,,,,,,,,,,,,,,,,,,,,,,,,,,,,,,,,,,,,,,,,,,,,,,,,,,,,,,,,,,,,,,,,,,,,,,,,,,,,,,
,,,,,,60a57ec89138a40a4a5acc63,62c5561e7800824eb1166815,2022-07-06_10h34.50.940,Colour_Asymmetry_Pilot,2022.1.3,Win32,60.04924038,62c50e9c1127f2cd403a315f,0,32,32,59,1,twofour,,,,,,,,,,,,,,,,,,,,,,,,,,,,,,,,,,,,,,,,,,,,,,,,,,,,,,,,,,,,,,,,,,,,,,,,,,,,,,,,,,,,,,,,,,,,,,,,,,,,,,,,,,,,,,,,,,,,,,,,,,,,,,,,,,,,,,,,,,,,,,,,,,,,,,,,,,,,
,,,,,,60a57ec89138a40a4a5acc63,62c5561e7800824eb1166815,2022-07-06_10h34.50.940,Colour_Asymmetry_Pilot,2022.1.3,Win32,60.04924038,62c50e9c1127f2cd403a315f,0,33,33,150,1,fourtwo,,,,,,,,,,,,,,,,,,,,,,,,,,,,,,,,,,,,,,,,,,,,,,,,,,,,,,,,,,,,,,,,,,,,,,,,,,,,,,,,,,,,,,,,,,,,,,,,,,,,,,,,,,,,,,,,,,,,,,,,,,,,,,,,,,,,,,,,,,,,,,,,,,,,,,,,,,,,
,,,,,,60a57ec89138a40a4a5acc63,62c5561e7800824eb1166815,2022-07-06_10h34.50.940,Colour_Asymmetry_Pilot,2022.1.3,Win32,60.04924038,62c50e9c1127f2cd403a315f,0,34,34,118,1,fourtwo,,,,,,,,,,,,,,,,,,,,,,,,,,,,,,,,,,,,,,,,,,,,,,,,,,,,,,,,,,,,,,,,,,,,,,,,,,,,,,,,,,,,,,,,,,,,,,,,,,,,,,,,,,,,,,,,,,,,,,,,,,,,,,,,,,,,,,,,,,,,,,,,,,,,,,,,,,,,
,,,,,,60a57ec89138a40a4a5acc63,62c5561e7800824eb1166815,2022-07-06_10h34.50.940,Colour_Asymmetry_Pilot,2022.1.3,Win32,60.04924038,62c50e9c1127f2cd403a315f,0,35,35,21,1,threefour,,,,,,,,,,,,,,,,,,,,,,,,,,,,,,,,,,,,,,,,,,,,,,,,,,,,,,,,,,,,,,,,,,,,,,,,,,,,,,,,,,,,,,,,,,,,,,,,,,,,,,,,,,,,,,,,,,,,,,,,,,,,,,,,,,,,,,,,,,,,,,,,,,,,,,,,,,,,
,,,,,,60a57ec89138a40a4a5acc63,62c5561e7800824eb1166815,2022-07-06_10h34.50.940,Colour_Asymmetry_Pilot,2022.1.3,Win32,60.04924038,62c50e9c1127f2cd403a315f,0,36,36,23,1,fourthree,,,,,,,,,,,,,,,,,,,,,,,,,,,,,,,,,,,,,,,,,,,,,,,,,,,,,,,,,,,,,,,,,,,,,,,,,,,,,,,,,,,,,,,,,,,,,,,,,,,,,,,,,,,,,,,,,,,,,,,,,,,,,,,,,,,,,,,,,,,,,,,,,,,,,,,,,,,,
,,,,,,60a57ec89138a40a4a5acc63,62c5561e7800824eb1166815,2022-07-06_10h34.50.940,Colour_Asymmetry_Pilot,2022.1.3,Win32,60.04924038,62c50e9c1127f2cd403a315f,0,37,37,83,1,twofour,,,,,,,,,,,,,,,,,,,,,,,,,,,,,,,,,,,,,,,,,,,,,,,,,,,,,,,,,,,,,,,,,,,,,,,,,,,,,,,,,,,,,,,,,,,,,,,,,,,,,,,,,,,,,,,,,,,,,,,,,,,,,,,,,,,,,,,,,,,,,,,,,,,,,,,,,,,,
,,,,,,60a57ec89138a40a4a5acc63,62c5561e7800824eb1166815,2022-07-06_10h34.50.940,Colour_Asymmetry_Pilot,2022.1.3,Win32,60.04924038,62c50e9c1127f2cd403a315f,0,38,38,25,1,onethree,,,,,,,,,,,,,,,,,,,,,,,,,,,,,,,,,,,,,,,,,,,,,,,,,,,,,,,,,,,,,,,,,,,,,,,,,,,,,,,,,,,,,,,,,,,,,,,,,,,,,,,,,,,,,,,,,,,,,,,,,,,,,,,,,,,,,,,,,,,,,,,,,,,,,,,,,,,,
,,,,,,60a57ec89138a40a4a5acc63,62c5561e7800824eb1166815,2022-07-06_10h34.50.940,Colour_Asymmetry_Pilot,2022.1.3,Win32,60.04924038,62c50e9c1127f2cd403a315f,0,39,39,153,1,onethree,,,,,,,,,,,,,,,,,,,,,,,,,,,,,,,,,,,,,,,,,,,,,,,,,,,,,,,,,,,,,,,,,,,,,,,,,,,,,,,,,,,,,,,,,,,,,,,,,,,,,,,,,,,,,,,,,,,,,,,,,,,,,,,,,,,,,,,,,,,,,,,,,,,,,,,,,,,,
,,,,,,60a57ec89138a40a4a5acc63,62c5561e7800824eb1166815,2022-07-06_10h34.50.940,Colour_Asymmetry_Pilot,2022.1.3,Win32,60.04924038,62c50e9c1127f2cd403a315f,0,40,40,61,1,threefour,,,,,,,,,,,,,,,,,,,,,,,,,,,,,,,,,,,,,,,,,,,,,,,,,,,,,,,,,,,,,,,,,,,,,,,,,,,,,,,,,,,,,,,,,,,,,,,,,,,,,,,,,,,,,,,,,,,,,,,,,,,,,,,,,,,,,,,,,,,,,,,,,,,,,,,,,,,,
,,,,,,60a57ec89138a40a4a5acc63,62c5561e7800824eb1166815,2022-07-06_10h34.50.940,Colour_Asymmetry_Pilot,2022.1.3,Win32,60.04924038,62c50e9c1127f2cd403a315f,0,41,41,78,1,fourtwo,,,,,,,,,,,,,,,,,,,,,,,,,,,,,,,,,,,,,,,,,,,,,,,,,,,,,,,,,,,,,,,,,,,,,,,,,,,,,,,,,,,,,,,,,,,,,,,,,,,,,,,,,,,,,,,,,,,,,,,,,,,,,,,,,,,,,,,,,,,,,,,,,,,,,,,,,,,,
,,,,,,60a57ec89138a40a4a5acc63,62c5561e7800824eb1166815,2022-07-06_10h34.50.940,Colour_Asymmetry_Pilot,2022.1.3,Win32,60.04924038,62c50e9c1127f2cd403a315f,0,42,42,138,1,twoone,,,,,,,,,,,,,,,,,,,,,,,,,,,,,,,,,,,,,,,,,,,,,,,,,,,,,,,,,,,,,,,,,,,,,,,,,,,,,,,,,,,,,,,,,,,,,,,,,,,,,,,,,,,,,,,,,,,,,,,,,,,,,,,,,,,,,,,,,,,,,,,,,,,,,,,,,,,,
,,,,,,60a57ec89138a40a4a5acc63,62c5561e7800824eb1166815,2022-07-06_10h34.50.940,Colour_Asymmetry_Pilot,2022.1.3,Win32,60.04924038,62c50e9c1127f2cd403a315f,0,43,43,80,1,onetwo,,,,,,,,,,,,,,,,,,,,,,,,,,,,,,,,,,,,,,,,,,,,,,,,,,,,,,,,,,,,,,,,,,,,,,,,,,,,,,,,,,,,,,,,,,,,,,,,,,,,,,,,,,,,,,,,,,,,,,,,,,,,,,,,,,,,,,,,,,,,,,,,,,,,,,,,,,,,
,,,,,,60a57ec89138a40a4a5acc63,62c5561e7800824eb1166815,2022-07-06_10h34.50.940,Colour_Asymmetry_Pilot,2022.1.3,Win32,60.04924038,62c50e9c1127f2cd403a315f,0,44,44,152,1,onetwo,,,,,,,,,,,,,,,,,,,,,,,,,,,,,,,,,,,,,,,,,,,,,,,,,,,,,,,,,,,,,,,,,,,,,,,,,,,,,,,,,,,,,,,,,,,,,,,,,,,,,,,,,,,,,,,,,,,,,,,,,,,,,,,,,,,,,,,,,,,,,,,,,,,,,,,,,,,,
,,,,,,60a57ec89138a40a4a5acc63,62c5561e7800824eb1166815,2022-07-06_10h34.50.940,Colour_Asymmetry_Pilot,2022.1.3,Win32,60.04924038,62c50e9c1127f2cd403a315f,0,45,45,111,1,fourthree,,,,,,,,,,,,,,,,,,,,,,,,,,,,,,,,,,,,,,,,,,,,,,,,,,,,,,,,,,,,,,,,,,,,,,,,,,,,,,,,,,,,,,,,,,,,,,,,,,,,,,,,,,,,,,,,,,,,,,,,,,,,,,,,,,,,,,,,,,,,,,,,,,,,,,,,,,,,
,,,,,,60a57ec89138a40a4a5acc63,62c5561e7800824eb1166815,2022-07-06_10h34.50.940,Colour_Asymmetry_Pilot,2022.1.3,Win32,60.04924038,62c50e9c1127f2cd403a315f,0,46,46,82,1,twoone,,,,,,,,,,,,,,,,,,,,,,,,,,,,,,,,,,,,,,,,,,,,,,,,,,,,,,,,,,,,,,,,,,,,,,,,,,,,,,,,,,,,,,,,,,,,,,,,,,,,,,,,,,,,,,,,,,,,,,,,,,,,,,,,,,,,,,,,,,,,,,,,,,,,,,,,,,,,
,,,,,,60a57ec89138a40a4a5acc63,62c5561e7800824eb1166815,2022-07-06_10h34.50.940,Colour_Asymmetry_Pilot,2022.1.3,Win32,60.04924038,62c50e9c1127f2cd403a315f,0,47,47,77,1,threefour,,,,,,,,,,,,,,,,,,,,,,,,,,,,,,,,,,,,,,,,,,,,,,,,,,,,,,,,,,,,,,,,,,,,,,,,,,,,,,,,,,,,,,,,,,,,,,,,,,,,,,,,,,,,,,,,,,,,,,,,,,,,,,,,,,,,,,,,,,,,,,,,,,,,,,,,,,,,
,,,,,,60a57ec89138a40a4a5acc63,62c5561e7800824eb1166815,2022-07-06_10h34.50.940,Colour_Asymmetry_Pilot,2022.1.3,Win32,60.04924038,62c50e9c1127f2cd403a315f,0,48,48,145,1,onethree,,,,,,,,,,,,,,,,,,,,,,,,,,,,,,,,,,,,,,,,,,,,,,,,,,,,,,,,,,,,,,,,,,,,,,,,,,,,,,,,,,,,,,,,,,,,,,,,,,,,,,,,,,,,,,,,,,,,,,,,,,,,,,,,,,,,,,,,,,,,,,,,,,,,,,,,,,,,
,,,,,,60a57ec89138a40a4a5acc63,62c5561e7800824eb1166815,2022-07-06_10h34.50.940,Colour_Asymmetry_Pilot,2022.1.3,Win32,60.04924038,62c50e9c1127f2cd403a315f,0,49,49,142,1,fourtwo,,,,,,,,,,,,,,,,,,,,,,,,,,,,,,,,,,,,,,,,,,,,,,,,,,,,,,,,,,,,,,,,,,,,,,,,,,,,,,,,,,,,,,,,,,,,,,,,,,,,,,,,,,,,,,,,,,,,,,,,,,,,,,,,,,,,,,,,,,,,,,,,,,,,,,,,,,,,
,,,,,,60a57ec89138a40a4a5acc63,62c5561e7800824eb1166815,2022-07-06_10h34.50.940,Colour_Asymmetry_Pilot,2022.1.3,Win32,60.04924038,62c50e9c1127f2cd403a315f,0,50,50,161,1,onethree,,,,,,,,,,,,,,,,,,,,,,,,,,,,,,,,,,,,,,,,,,,,,,,,,,,,,,,,,,,,,,,,,,,,,,,,,,,,,,,,,,,,,,,,,,,,,,,,,,,,,,,,,,,,,,,,,,,,,,,,,,,,,,,,,,,,,,,,,,,,,,,,,,,,,,,,,,,,
,,,,,,60a57ec89138a40a4a5acc63,62c5561e7800824eb1166815,2022-07-06_10h34.50.940,Colour_Asymmetry_Pilot,2022.1.3,Win32,60.04924038,62c50e9c1127f2cd403a315f,0,51,51,38,1,fourtwo,,,,,,,,,,,,,,,,,,,,,,,,,,,,,,,,,,,,,,,,,,,,,,,,,,,,,,,,,,,,,,,,,,,,,,,,,,,,,,,,,,,,,,,,,,,,,,,,,,,,,,,,,,,,,,,,,,,,,,,,,,,,,,,,,,,,,,,,,,,,,,,,,,,,,,,,,,,,
,,,,,,60a57ec89138a40a4a5acc63,62c5561e7800824eb1166815,2022-07-06_10h34.50.940,Colour_Asymmetry_Pilot,2022.1.3,Win32,60.04924038,62c50e9c1127f2cd403a315f,0,52,52,129,1,onethree,,,,,,,,,,,,,,,,,,,,,,,,,,,,,,,,,,,,,,,,,,,,,,,,,,,,,,,,,,,,,,,,,,,,,,,,,,,,,,,,,,,,,,,,,,,,,,,,,,,,,,,,,,,,,,,,,,,,,,,,,,,,,,,,,,,,,,,,,,,,,,,,,,,,,,,,,,,,
,,,,,,60a57ec89138a40a4a5acc63,62c5561e7800824eb1166815,2022-07-06_10h34.50.940,Colour_Asymmetry_Pilot,2022.1.3,Win32,60.04924038,62c50e9c1127f2cd403a315f,0,53,53,139,1,twofour,,,,,,,,,,,,,,,,,,,,,,,,,,,,,,,,,,,,,,,,,,,,,,,,,,,,,,,,,,,,,,,,,,,,,,,,,,,,,,,,,,,,,,,,,,,,,,,,,,,,,,,,,,,,,,,,,,,,,,,,,,,,,,,,,,,,,,,,,,,,,,,,,,,,,,,,,,,,
,,,,,,60a57ec89138a40a4a5acc63,62c5561e7800824eb1166815,2022-07-06_10h34.50.940,Colour_Asymmetry_Pilot,2022.1.3,Win32,60.04924038,62c50e9c1127f2cd403a315f,0,54,54,19,1,twofour,,,,,,,,,,,,,,,,,,,,,,,,,,,,,,,,,,,,,,,,,,,,,,,,,,,,,,,,,,,,,,,,,,,,,,,,,,,,,,,,,,,,,,,,,,,,,,,,,,,,,,,,,,,,,,,,,,,,,,,,,,,,,,,,,,,,,,,,,,,,,,,,,,,,,,,,,,,,
,,,,,,60a57ec89138a40a4a5acc63,62c5561e7800824eb1166815,2022-07-06_10h34.50.940,Colour_Asymmetry_Pilot,2022.1.3,Win32,60.04924038,62c50e9c1127f2cd403a315f,0,55,55,71,1,fourthree,,,,,,,,,,,,,,,,,,,,,,,,,,,,,,,,,,,,,,,,,,,,,,,,,,,,,,,,,,,,,,,,,,,,,,,,,,,,,,,,,,,,,,,,,,,,,,,,,,,,,,,,,,,,,,,,,,,,,,,,,,,,,,,,,,,,,,,,,,,,,,,,,,,,,,,,,,,,
,,,,,,60a57ec89138a40a4a5acc63,62c5561e7800824eb1166815,2022-07-06_10h34.50.940,Colour_Asymmetry_Pilot,2022.1.3,Win32,60.04924038,62c50e9c1127f2cd403a315f,0,56,56,52,1,threeone,,,,,,,,,,,,,,,,,,,,,,,,,,,,,,,,,,,,,,,,,,,,,,,,,,,,,,,,,,,,,,,,,,,,,,,,,,,,,,,,,,,,,,,,,,,,,,,,,,,,,,,,,,,,,,,,,,,,,,,,,,,,,,,,,,,,,,,,,,,,,,,,,,,,,,,,,,,,
,,,,,,60a57ec89138a40a4a5acc63,62c5561e7800824eb1166815,2022-07-06_10h34.50.940,Colour_Asymmetry_Pilot,2022.1.3,Win32,60.04924038,62c50e9c1127f2cd403a315f,0,57,57,132,1,threeone,,,,,,,,,,,,,,,,,,,,,,,,,,,,,,,,,,,,,,,,,,,,,,,,,,,,,,,,,,,,,,,,,,,,,,,,,,,,,,,,,,,,,,,,,,,,,,,,,,,,,,,,,,,,,,,,,,,,,,,,,,,,,,,,,,,,,,,,,,,,,,,,,,,,,,,,,,,,
,,,,,,60a57ec89138a40a4a5acc63,62c5561e7800824eb1166815,2022-07-06_10h34.50.940,Colour_Asymmetry_Pilot,2022.1.3,Win32,60.04924038,62c50e9c1127f2cd403a315f,0,58,58,123,1,twofour,,,,,,,,,,,,,,,,,,,,,,,,,,,,,,,,,,,,,,,,,,,,,,,,,,,,,,,,,,,,,,,,,,,,,,,,,,,,,,,,,,,,,,,,,,,,,,,,,,,,,,,,,,,,,,,,,,,,,,,,,,,,,,,,,,,,,,,,,,,,,,,,,,,,,,,,,,,,
,,,,,,60a57ec89138a40a4a5acc63,62c5561e7800824eb1166815,2022-07-06_10h34.50.940,Colour_Asymmetry_Pilot,2022.1.3,Win32,60.04924038,62c50e9c1127f2cd403a315f,0,59,59,125,1,threefour,,,,,,,,,,,,,,,,,,,,,,,,,,,,,,,,,,,,,,,,,,,,,,,,,,,,,,,,,,,,,,,,,,,,,,,,,,,,,,,,,,,,,,,,,,,,,,,,,,,,,,,,,,,,,,,,,,,,,,,,,,,,,,,,,,,,,,,,,,,,,,,,,,,,,,,,,,,,
,,,,,,60a57ec89138a40a4a5acc63,62c5561e7800824eb1166815,2022-07-06_10h34.50.940,Colour_Asymmetry_Pilot,2022.1.3,Win32,60.04924038,62c50e9c1127f2cd403a315f,0,60,60,154,1,twoone,,,,,,,,,,,,,,,,,,,,,,,,,,,,,,,,,,,,,,,,,,,,,,,,,,,,,,,,,,,,,,,,,,,,,,,,,,,,,,,,,,,,,,,,,,,,,,,,,,,,,,,,,,,,,,,,,,,,,,,,,,,,,,,,,,,,,,,,,,,,,,,,,,,,,,,,,,,,
,,,,,,60a57ec89138a40a4a5acc63,62c5561e7800824eb1166815,2022-07-06_10h34.50.940,Colour_Asymmetry_Pilot,2022.1.3,Win32,60.04924038,62c50e9c1127f2cd403a315f,0,61,61,101,1,threefour,,,,,,,,,,,,,,,,,,,,,,,,,,,,,,,,,,,,,,,,,,,,,,,,,,,,,,,,,,,,,,,,,,,,,,,,,,,,,,,,,,,,,,,,,,,,,,,,,,,,,,,,,,,,,,,,,,,,,,,,,,,,,,,,,,,,,,,,,,,,,,,,,,,,,,,,,,,,
,,,,,,60a57ec89138a40a4a5acc63,62c5561e7800824eb1166815,2022-07-06_10h34.50.940,Colour_Asymmetry_Pilot,2022.1.3,Win32,60.04924038,62c50e9c1127f2cd403a315f,0,62,62,49,1,onethree,,,,,,,,,,,,,,,,,,,,,,,,,,,,,,,,,,,,,,,,,,,,,,,,,,,,,,,,,,,,,,,,,,,,,,,,,,,,,,,,,,,,,,,,,,,,,,,,,,,,,,,,,,,,,,,,,,,,,,,,,,,,,,,,,,,,,,,,,,,,,,,,,,,,,,,,,,,,
,,,,,,60a57ec89138a40a4a5acc63,62c5561e7800824eb1166815,2022-07-06_10h34.50.940,Colour_Asymmetry_Pilot,2022.1.3,Win32,60.04924038,62c50e9c1127f2cd403a315f,0,63,63,34,1,twoone,,,,,,,,,,,,,,,,,,,,,,,,,,,,,,,,,,,,,,,,,,,,,,,,,,,,,,,,,,,,,,,,,,,,,,,,,,,,,,,,,,,,,,,,,,,,,,,,,,,,,,,,,,,,,,,,,,,,,,,,,,,,,,,,,,,,,,,,,,,,,,,,,,,,,,,,,,,,
,,,,,,60a57ec89138a40a4a5acc63,62c5561e7800824eb1166815,2022-07-06_10h34.50.940,Colour_Asymmetry_Pilot,2022.1.3,Win32,60.04924038,62c50e9c1127f2cd403a315f,0,64,64,106,1,twoone,,,,,,,,,,,,,,,,,,,,,,,,,,,,,,,,,,,,,,,,,,,,,,,,,,,,,,,,,,,,,,,,,,,,,,,,,,,,,,,,,,,,,,,,,,,,,,,,,,,,,,,,,,,,,,,,,,,,,,,,,,,,,,,,,,,,,,,,,,,,,,,,,,,,,,,,,,,,
,,,,,,60a57ec89138a40a4a5acc63,62c5561e7800824eb1166815,2022-07-06_10h34.50.940,Colour_Asymmetry_Pilot,2022.1.3,Win32,60.04924038,62c50e9c1127f2cd403a315f,0,65,65,74,1,twoone,,,,,,,,,,,,,,,,,,,,,,,,,,,,,,,,,,,,,,,,,,,,,,,,,,,,,,,,,,,,,,,,,,,,,,,,,,,,,,,,,,,,,,,,,,,,,,,,,,,,,,,,,,,,,,,,,,,,,,,,,,,,,,,,,,,,,,,,,,,,,,,,,,,,,,,,,,,,
,,,,,,60a57ec89138a40a4a5acc63,62c5561e7800824eb1166815,2022-07-06_10h34.50.940,Colour_Asymmetry_Pilot,2022.1.3,Win32,60.04924038,62c50e9c1127f2cd403a315f,0,66,66,134,1,fourtwo,,,,,,,,,,,,,,,,,,,,,,,,,,,,,,,,,,,,,,,,,,,,,,,,,,,,,,,,,,,,,,,,,,,,,,,,,,,,,,,,,,,,,,,,,,,,,,,,,,,,,,,,,,,,,,,,,,,,,,,,,,,,,,,,,,,,,,,,,,,,,,,,,,,,,,,,,,,,
,,,,,,60a57ec89138a40a4a5acc63,62c5561e7800824eb1166815,2022-07-06_10h34.50.940,Colour_Asymmetry_Pilot,2022.1.3,Win32,60.04924038,62c50e9c1127f2cd403a315f,0,67,67,7,1,fourthree,,,,,,,,,,,,,,,,,,,,,,,,,,,,,,,,,,,,,,,,,,,,,,,,,,,,,,,,,,,,,,,,,,,,,,,,,,,,,,,,,,,,,,,,,,,,,,,,,,,,,,,,,,,,,,,,,,,,,,,,,,,,,,,,,,,,,,,,,,,,,,,,,,,,,,,,,,,,
,,,,,,60a57ec89138a40a4a5acc63,62c5561e7800824eb1166815,2022-07-06_10h34.50.940,Colour_Asymmetry_Pilot,2022.1.3,Win32,60.04924038,62c50e9c1127f2cd403a315f,0,68,68,113,1,onethree,,,,,,,,,,,,,,,,,,,,,,,,,,,,,,,,,,,,,,,,,,,,,,,,,,,,,,,,,,,,,,,,,,,,,,,,,,,,,,,,,,,,,,,,,,,,,,,,,,,,,,,,,,,,,,,,,,,,,,,,,,,,,,,,,,,,,,,,,,,,,,,,,,,,,,,,,,,,
,,,,,,60a57ec89138a40a4a5acc63,62c5561e7800824eb1166815,2022-07-06_10h34.50.940,Colour_Asymmetry_Pilot,2022.1.3,Win32,60.04924038,62c50e9c1127f2cd403a315f,0,69,69,92,1,threeone,,,,,,,,,,,,,,,,,,,,,,,,,,,,,,,,,,,,,,,,,,,,,,,,,,,,,,,,,,,,,,,,,,,,,,,,,,,,,,,,,,,,,,,,,,,,,,,,,,,,,,,,,,,,,,,,,,,,,,,,,,,,,,,,,,,,,,,,,,,,,,,,,,,,,,,,,,,,
,,,,,,60a57ec89138a40a4a5acc63,62c5561e7800824eb1166815,2022-07-06_10h34.50.940,Colour_Asymmetry_Pilot,2022.1.3,Win32,60.04924038,62c50e9c1127f2cd403a315f,0,70,70,6,1,fourtwo,,,,,,,,,,,,,,,,,,,,,,,,,,,,,,,,,,,,,,,,,,,,,,,,,,,,,,,,,,,,,,,,,,,,,,,,,,,,,,,,,,,,,,,,,,,,,,,,,,,,,,,,,,,,,,,,,,,,,,,,,,,,,,,,,,,,,,,,,,,,,,,,,,,,,,,,,,,,
,,,,,,60a57ec89138a40a4a5acc63,62c5561e7800824eb1166815,2022-07-06_10h34.50.940,Colour_Asymmetry_Pilot,2022.1.3,Win32,60.04924038,62c50e9c1127f2cd403a315f,0,71,71,148,1,threeone,,,,,,,,,,,,,,,,,,,,,,,,,,,,,,,,,,,,,,,,,,,,,,,,,,,,,,,,,,,,,,,,,,,,,,,,,,,,,,,,,,,,,,,,,,,,,,,,,,,,,,,,,,,,,,,,,,,,,,,,,,,,,,,,,,,,,,,,,,,,,,,,,,,,,,,,,,,,
,,,,,,60a57ec89138a40a4a5acc63,62c5561e7800824eb1166815,2022-07-06_10h34.50.940,Colour_Asymmetry_Pilot,2022.1.3,Win32,60.04924038,62c50e9c1127f2cd403a315f,0,72,72,17,1,onethree,,,,,,,,,,,,,,,,,,,,,,,,,,,,,,,,,,,,,,,,,,,,,,,,,,,,,,,,,,,,,,,,,,,,,,,,,,,,,,,,,,,,,,,,,,,,,,,,,,,,,,,,,,,,,,,,,,,,,,,,,,,,,,,,,,,,,,,,,,,,,,,,,,,,,,,,,,,,
,,,,,,60a57ec89138a40a4a5acc63,62c5561e7800824eb1166815,2022-07-06_10h34.50.940,Colour_Asymmetry_Pilot,2022.1.3,Win32,60.04924038,62c50e9c1127f2cd403a315f,0,73,73,112,1,onetwo,,,,,,,,,,,,,,,,,,,,,,,,,,,,,,,,,,,,,,,,,,,,,,,,,,,,,,,,,,,,,,,,,,,,,,,,,,,,,,,,,,,,,,,,,,,,,,,,,,,,,,,,,,,,,,,,,,,,,,,,,,,,,,,,,,,,,,,,,,,,,,,,,,,,,,,,,,,,
,,,,,,60a57ec89138a40a4a5acc63,62c5561e7800824eb1166815,2022-07-06_10h34.50.940,Colour_Asymmetry_Pilot,2022.1.3,Win32,60.04924038,62c50e9c1127f2cd403a315f,0,74,74,62,1,fourtwo,,,,,,,,,,,,,,,,,,,,,,,,,,,,,,,,,,,,,,,,,,,,,,,,,,,,,,,,,,,,,,,,,,,,,,,,,,,,,,,,,,,,,,,,,,,,,,,,,,,,,,,,,,,,,,,,,,,,,,,,,,,,,,,,,,,,,,,,,,,,,,,,,,,,,,,,,,,,
,,,,,,60a57ec89138a40a4a5acc63,62c5561e7800824eb1166815,2022-07-06_10h34.50.940,Colour_Asymmetry_Pilot,2022.1.3,Win32,60.04924038,62c50e9c1127f2cd403a315f,0,75,75,22,1,fourtwo,,,,,,,,,,,,,,,,,,,,,,,,,,,,,,,,,,,,,,,,,,,,,,,,,,,,,,,,,,,,,,,,,,,,,,,,,,,,,,,,,,,,,,,,,,,,,,,,,,,,,,,,,,,,,,,,,,,,,,,,,,,,,,,,,,,,,,,,,,,,,,,,,,,,,,,,,,,,
,,,,,,60a57ec89138a40a4a5acc63,62c5561e7800824eb1166815,2022-07-06_10h34.50.940,Colour_Asymmetry_Pilot,2022.1.3,Win32,60.04924038,62c50e9c1127f2cd403a315f,0,76,76,13,1,threefour,,,,,,,,,,,,,,,,,,,,,,,,,,,,,,,,,,,,,,,,,,,,,,,,,,,,,,,,,,,,,,,,,,,,,,,,,,,,,,,,,,,,,,,,,,,,,,,,,,,,,,,,,,,,,,,,,,,,,,,,,,,,,,,,,,,,,,,,,,,,,,,,,,,,,,,,,,,,
,,,,,,60a57ec89138a40a4a5acc63,62c5561e7800824eb1166815,2022-07-06_10h34.50.940,Colour_Asymmetry_Pilot,2022.1.3,Win32,60.04924038,62c50e9c1127f2cd403a315f,0,77,77,147,1,twofour,,,,,,,,,,,,,,,,,,,,,,,,,,,,,,,,,,,,,,,,,,,,,,,,,,,,,,,,,,,,,,,,,,,,,,,,,,,,,,,,,,,,,,,,,,,,,,,,,,,,,,,,,,,,,,,,,,,,,,,,,,,,,,,,,,,,,,,,,,,,,,,,,,,,,,,,,,,,
,,,,,,60a57ec89138a40a4a5acc63,62c5561e7800824eb1166815,2022-07-06_10h34.50.940,Colour_Asymmetry_Pilot,2022.1.3,Win32,60.04924038,62c50e9c1127f2cd403a315f,0,78,78,67,1,twofour,,,,,,,,,,,,,,,,,,,,,,,,,,,,,,,,,,,,,,,,,,,,,,,,,,,,,,,,,,,,,,,,,,,,,,,,,,,,,,,,,,,,,,,,,,,,,,,,,,,,,,,,,,,,,,,,,,,,,,,,,,,,,,,,,,,,,,,,,,,,,,,,,,,,,,,,,,,,
,,,,,,60a57ec89138a40a4a5acc63,62c5561e7800824eb1166815,2022-07-06_10h34.50.940,Colour_Asymmetry_Pilot,2022.1.3,Win32,60.04924038,62c50e9c1127f2cd403a315f,0,79,79,91,1,twofour,,,,,,,,,,,,,,,,,,,,,,,,,,,,,,,,,,,,,,,,,,,,,,,,,,,,,,,,,,,,,,,,,,,,,,,,,,,,,,,,,,,,,,,,,,,,,,,,,,,,,,,,,,,,,,,,,,,,,,,,,,,,,,,,,,,,,,,,,,,,,,,,,,,,,,,,,,,,
,,,,,,60a57ec89138a40a4a5acc63,62c5561e7800824eb1166815,2022-07-06_10h34.50.940,Colour_Asymmetry_Pilot,2022.1.3,Win32,60.04924038,62c50e9c1127f2cd403a315f,0,80,80,124,1,threeone,,,,,,,,,,,,,,,,,,,,,,,,,,,,,,,,,,,,,,,,,,,,,,,,,,,,,,,,,,,,,,,,,,,,,,,,,,,,,,,,,,,,,,,,,,,,,,,,,,,,,,,,,,,,,,,,,,,,,,,,,,,,,,,,,,,,,,,,,,,,,,,,,,,,,,,,,,,,
,,,,,,60a57ec89138a40a4a5acc63,62c5561e7800824eb1166815,2022-07-06_10h34.50.940,Colour_Asymmetry_Pilot,2022.1.3,Win32,60.04924038,62c50e9c1127f2cd403a315f,0,81,81,65,1,onethree,,,,,,,,,,,,,,,,,,,,,,,,,,,,,,,,,,,,,,,,,,,,,,,,,,,,,,,,,,,,,,,,,,,,,,,,,,,,,,,,,,,,,,,,,,,,,,,,,,,,,,,,,,,,,,,,,,,,,,,,,,,,,,,,,,,,,,,,,,,,,,,,,,,,,,,,,,,,
,,,,,,60a57ec89138a40a4a5acc63,62c5561e7800824eb1166815,2022-07-06_10h34.50.940,Colour_Asymmetry_Pilot,2022.1.3,Win32,60.04924038,62c50e9c1127f2cd403a315f,0,82,82,104,1,onetwo,,,,,,,,,,,,,,,,,,,,,,,,,,,,,,,,,,,,,,,,,,,,,,,,,,,,,,,,,,,,,,,,,,,,,,,,,,,,,,,,,,,,,,,,,,,,,,,,,,,,,,,,,,,,,,,,,,,,,,,,,,,,,,,,,,,,,,,,,,,,,,,,,,,,,,,,,,,,
,,,,,,60a57ec89138a40a4a5acc63,62c5561e7800824eb1166815,2022-07-06_10h34.50.940,Colour_Asymmetry_Pilot,2022.1.3,Win32,60.04924038,62c50e9c1127f2cd403a315f,0,83,83,87,1,fourthree,,,,,,,,,,,,,,,,,,,,,,,,,,,,,,,,,,,,,,,,,,,,,,,,,,,,,,,,,,,,,,,,,,,,,,,,,,,,,,,,,,,,,,,,,,,,,,,,,,,,,,,,,,,,,,,,,,,,,,,,,,,,,,,,,,,,,,,,,,,,,,,,,,,,,,,,,,,,
,,,,,,60a57ec89138a40a4a5acc63,62c5561e7800824eb1166815,2022-07-06_10h34.50.940,Colour_Asymmetry_Pilot,2022.1.3,Win32,60.04924038,62c50e9c1127f2cd403a315f,0,84,84,159,1,fourthree,,,,,,,,,,,,,,,,,,,,,,,,,,,,,,,,,,,,,,,,,,,,,,,,,,,,,,,,,,,,,,,,,,,,,,,,,,,,,,,,,,,,,,,,,,,,,,,,,,,,,,,,,,,,,,,,,,,,,,,,,,,,,,,,,,,,,,,,,,,,,,,,,,,,,,,,,,,,
,,,,,,60a57ec89138a40a4a5acc63,62c5561e7800824eb1166815,2022-07-06_10h34.50.940,Colour_Asymmetry_Pilot,2022.1.3,Win32,60.04924038,62c50e9c1127f2cd403a315f,0,85,85,39,1,fourthree,,,,,,,,,,,,,,,,,,,,,,,,,,,,,,,,,,,,,,,,,,,,,,,,,,,,,,,,,,,,,,,,,,,,,,,,,,,,,,,,,,,,,,,,,,,,,,,,,,,,,,,,,,,,,,,,,,,,,,,,,,,,,,,,,,,,,,,,,,,,,,,,,,,,,,,,,,,,
,,,,,,60a57ec89138a40a4a5acc63,62c5561e7800824eb1166815,2022-07-06_10h34.50.940,Colour_Asymmetry_Pilot,2022.1.3,Win32,60.04924038,62c50e9c1127f2cd403a315f,0,86,86,157,1,threefour,,,,,,,,,,,,,,,,,,,,,,,,,,,,,,,,,,,,,,,,,,,,,,,,,,,,,,,,,,,,,,,,,,,,,,,,,,,,,,,,,,,,,,,,,,,,,,,,,,,,,,,,,,,,,,,,,,,,,,,,,,,,,,,,,,,,,,,,,,,,,,,,,,,,,,,,,,,,
,,,,,,60a57ec89138a40a4a5acc63,62c5561e7800824eb1166815,2022-07-06_10h34.50.940,Colour_Asymmetry_Pilot,2022.1.3,Win32,60.04924038,62c50e9c1127f2cd403a315f,0,87,87,70,1,fourtwo,,,,,,,,,,,,,,,,,,,,,,,,,,,,,,,,,,,,,,,,,,,,,,,,,,,,,,,,,,,,,,,,,,,,,,,,,,,,,,,,,,,,,,,,,,,,,,,,,,,,,,,,,,,,,,,,,,,,,,,,,,,,,,,,,,,,,,,,,,,,,,,,,,,,,,,,,,,,
,,,,,,60a57ec89138a40a4a5acc63,62c5561e7800824eb1166815,2022-07-06_10h34.50.940,Colour_Asymmetry_Pilot,2022.1.3,Win32,60.04924038,62c50e9c1127f2cd403a315f,0,88,88,16,1,onetwo,,,,,,,,,,,,,,,,,,,,,,,,,,,,,,,,,,,,,,,,,,,,,,,,,,,,,,,,,,,,,,,,,,,,,,,,,,,,,,,,,,,,,,,,,,,,,,,,,,,,,,,,,,,,,,,,,,,,,,,,,,,,,,,,,,,,,,,,,,,,,,,,,,,,,,,,,,,,
,,,,,,60a57ec89138a40a4a5acc63,62c5561e7800824eb1166815,2022-07-06_10h34.50.940,Colour_Asymmetry_Pilot,2022.1.3,Win32,60.04924038,62c50e9c1127f2cd403a315f,0,89,89,81,1,onethree,,,,,,,,,,,,,,,,,,,,,,,,,,,,,,,,,,,,,,,,,,,,,,,,,,,,,,,,,,,,,,,,,,,,,,,,,,,,,,,,,,,,,,,,,,,,,,,,,,,,,,,,,,,,,,,,,,,,,,,,,,,,,,,,,,,,,,,,,,,,,,,,,,,,,,,,,,,,
,,,,,,60a57ec89138a40a4a5acc63,62c5561e7800824eb1166815,2022-07-06_10h34.50.940,Colour_Asymmetry_Pilot,2022.1.3,Win32,60.04924038,62c50e9c1127f2cd403a315f,0,90,90,72,1,onetwo,,,,,,,,,,,,,,,,,,,,,,,,,,,,,,,,,,,,,,,,,,,,,,,,,,,,,,,,,,,,,,,,,,,,,,,,,,,,,,,,,,,,,,,,,,,,,,,,,,,,,,,,,,,,,,,,,,,,,,,,,,,,,,,,,,,,,,,,,,,,,,,,,,,,,,,,,,,,
,,,,,,60a57ec89138a40a4a5acc63,62c5561e7800824eb1166815,2022-07-06_10h34.50.940,Colour_Asymmetry_Pilot,2022.1.3,Win32,60.04924038,62c50e9c1127f2cd403a315f,0,91,91,96,1,onetwo,,,,,,,,,,,,,,,,,,,,,,,,,,,,,,,,,,,,,,,,,,,,,,,,,,,,,,,,,,,,,,,,,,,,,,,,,,,,,,,,,,,,,,,,,,,,,,,,,,,,,,,,,,,,,,,,,,,,,,,,,,,,,,,,,,,,,,,,,,,,,,,,,,,,,,,,,,,,
,,,,,,60a57ec89138a40a4a5acc63,62c5561e7800824eb1166815,2022-07-06_10h34.50.940,Colour_Asymmetry_Pilot,2022.1.3,Win32,60.04924038,62c50e9c1127f2cd403a315f,0,92,92,99,1,twofour,,,,,,,,,,,,,,,,,,,,,,,,,,,,,,,,,,,,,,,,,,,,,,,,,,,,,,,,,,,,,,,,,,,,,,,,,,,,,,,,,,,,,,,,,,,,,,,,,,,,,,,,,,,,,,,,,,,,,,,,,,,,,,,,,,,,,,,,,,,,,,,,,,,,,,,,,,,,
,,,,,,60a57ec89138a40a4a5acc63,62c5561e7800824eb1166815,2022-07-06_10h34.50.940,Colour_Asymmetry_Pilot,2022.1.3,Win32,60.04924038,62c50e9c1127f2cd403a315f,0,93,93,53,1,threefour,,,,,,,,,,,,,,,,,,,,,,,,,,,,,,,,,,,,,,,,,,,,,,,,,,,,,,,,,,,,,,,,,,,,,,,,,,,,,,,,,,,,,,,,,,,,,,,,,,,,,,,,,,,,,,,,,,,,,,,,,,,,,,,,,,,,,,,,,,,,,,,,,,,,,,,,,,,,
,,,,,,60a57ec89138a40a4a5acc63,62c5561e7800824eb1166815,2022-07-06_10h34.50.940,Colour_Asymmetry_Pilot,2022.1.3,Win32,60.04924038,62c50e9c1127f2cd403a315f,0,94,94,73,1,onethree,,,,,,,,,,,,,,,,,,,,,,,,,,,,,,,,,,,,,,,,,,,,,,,,,,,,,,,,,,,,,,,,,,,,,,,,,,,,,,,,,,,,,,,,,,,,,,,,,,,,,,,,,,,,,,,,,,,,,,,,,,,,,,,,,,,,,,,,,,,,,,,,,,,,,,,,,,,,
,,,,,,60a57ec89138a40a4a5acc63,62c5561e7800824eb1166815,2022-07-06_10h34.50.940,Colour_Asymmetry_Pilot,2022.1.3,Win32,60.04924038,62c50e9c1127f2cd403a315f,0,95,95,31,1,fourthree,,,,,,,,,,,,,,,,,,,,,,,,,,,,,,,,,,,,,,,,,,,,,,,,,,,,,,,,,,,,,,,,,,,,,,,,,,,,,,,,,,,,,,,,,,,,,,,,,,,,,,,,,,,,,,,,,,,,,,,,,,,,,,,,,,,,,,,,,,,,,,,,,,,,,,,,,,,,
,,,,,,60a57ec89138a40a4a5acc63,62c5561e7800824eb1166815,2022-07-06_10h34.50.940,Colour_Asymmetry_Pilot,2022.1.3,Win32,60.04924038,62c50e9c1127f2cd403a315f,0,96,96,18,1,twoone,,,,,,,,,,,,,,,,,,,,,,,,,,,,,,,,,,,,,,,,,,,,,,,,,,,,,,,,,,,,,,,,,,,,,,,,,,,,,,,,,,,,,,,,,,,,,,,,,,,,,,,,,,,,,,,,,,,,,,,,,,,,,,,,,,,,,,,,,,,,,,,,,,,,,,,,,,,,
,,,,,,60a57ec89138a40a4a5acc63,62c5561e7800824eb1166815,2022-07-06_10h34.50.940,Colour_Asymmetry_Pilot,2022.1.3,Win32,60.04924038,62c50e9c1127f2cd403a315f,0,97,97,135,1,fourthree,,,,,,,,,,,,,,,,,,,,,,,,,,,,,,,,,,,,,,,,,,,,,,,,,,,,,,,,,,,,,,,,,,,,,,,,,,,,,,,,,,,,,,,,,,,,,,,,,,,,,,,,,,,,,,,,,,,,,,,,,,,,,,,,,,,,,,,,,,,,,,,,,,,,,,,,,,,,
,,,,,,60a57ec89138a40a4a5acc63,62c5561e7800824eb1166815,2022-07-06_10h34.50.940,Colour_Asymmetry_Pilot,2022.1.3,Win32,60.04924038,62c50e9c1127f2cd403a315f,0,98,98,128,1,onetwo,,,,,,,,,,,,,,,,,,,,,,,,,,,,,,,,,,,,,,,,,,,,,,,,,,,,,,,,,,,,,,,,,,,,,,,,,,,,,,,,,,,,,,,,,,,,,,,,,,,,,,,,,,,,,,,,,,,,,,,,,,,,,,,,,,,,,,,,,,,,,,,,,,,,,,,,,,,,
,,,,,,60a57ec89138a40a4a5acc63,62c5561e7800824eb1166815,2022-07-06_10h34.50.940,Colour_Asymmetry_Pilot,2022.1.3,Win32,60.04924038,62c50e9c1127f2cd403a315f,0,99,99,4,1,threeone,,,,,,,,,,,,,,,,,,,,,,,,,,,,,,,,,,,,,,,,,,,,,,,,,,,,,,,,,,,,,,,,,,,,,,,,,,,,,,,,,,,,,,,,,,,,,,,,,,,,,,,,,,,,,,,,,,,,,,,,,,,,,,,,,,,,,,,,,,,,,,,,,,,,,,,,,,,,
,,,,,,60a57ec89138a40a4a5acc63,62c5561e7800824eb1166815,2022-07-06_10h34.50.940,Colour_Asymmetry_Pilot,2022.1.3,Win32,60.04924038,62c50e9c1127f2cd403a315f,0,100,100,14,1,fourtwo,,,,,,,,,,,,,,,,,,,,,,,,,,,,,,,,,,,,,,,,,,,,,,,,,,,,,,,,,,,,,,,,,,,,,,,,,,,,,,,,,,,,,,,,,,,,,,,,,,,,,,,,,,,,,,,,,,,,,,,,,,,,,,,,,,,,,,,,,,,,,,,,,,,,,,,,,,,,
,,,,,,60a57ec89138a40a4a5acc63,62c5561e7800824eb1166815,2022-07-06_10h34.50.940,Colour_Asymmetry_Pilot,2022.1.3,Win32,60.04924038,62c50e9c1127f2cd403a315f,0,101,101,33,1,onethree,,,,,,,,,,,,,,,,,,,,,,,,,,,,,,,,,,,,,,,,,,,,,,,,,,,,,,,,,,,,,,,,,,,,,,,,,,,,,,,,,,,,,,,,,,,,,,,,,,,,,,,,,,,,,,,,,,,,,,,,,,,,,,,,,,,,,,,,,,,,,,,,,,,,,,,,,,,,
,,,,,,60a57ec89138a40a4a5acc63,62c5561e7800824eb1166815,2022-07-06_10h34.50.940,Colour_Asymmetry_Pilot,2022.1.3,Win32,60.04924038,62c50e9c1127f2cd403a315f,0,102,102,114,1,twoone,,,,,,,,,,,,,,,,,,,,,,,,,,,,,,,,,,,,,,,,,,,,,,,,,,,,,,,,,,,,,,,,,,,,,,,,,,,,,,,,,,,,,,,,,,,,,,,,,,,,,,,,,,,,,,,,,,,,,,,,,,,,,,,,,,,,,,,,,,,,,,,,,,,,,,,,,,,,
,,,,,,60a57ec89138a40a4a5acc63,62c5561e7800824eb1166815,2022-07-06_10h34.50.940,Colour_Asymmetry_Pilot,2022.1.3,Win32,60.04924038,62c50e9c1127f2cd403a315f,0,103,103,24,1,onetwo,,,,,,,,,,,,,,,,,,,,,,,,,,,,,,,,,,,,,,,,,,,,,,,,,,,,,,,,,,,,,,,,,,,,,,,,,,,,,,,,,,,,,,,,,,,,,,,,,,,,,,,,,,,,,,,,,,,,,,,,,,,,,,,,,,,,,,,,,,,,,,,,,,,,,,,,,,,,
,,,,,,60a57ec89138a40a4a5acc63,62c5561e7800824eb1166815,2022-07-06_10h34.50.940,Colour_Asymmetry_Pilot,2022.1.3,Win32,60.04924038,62c50e9c1127f2cd403a315f,0,104,104,89,1,onethree,,,,,,,,,,,,,,,,,,,,,,,,,,,,,,,,,,,,,,,,,,,,,,,,,,,,,,,,,,,,,,,,,,,,,,,,,,,,,,,,,,,,,,,,,,,,,,,,,,,,,,,,,,,,,,,,,,,,,,,,,,,,,,,,,,,,,,,,,,,,,,,,,,,,,,,,,,,,
,,,,,,60a57ec89138a40a4a5acc63,62c5561e7800824eb1166815,2022-07-06_10h34.50.940,Colour_Asymmetry_Pilot,2022.1.3,Win32,60.04924038,62c50e9c1127f2cd403a315f,0,105,105,126,1,fourtwo,,,,,,,,,,,,,,,,,,,,,,,,,,,,,,,,,,,,,,,,,,,,,,,,,,,,,,,,,,,,,,,,,,,,,,,,,,,,,,,,,,,,,,,,,,,,,,,,,,,,,,,,,,,,,,,,,,,,,,,,,,,,,,,,,,,,,,,,,,,,,,,,,,,,,,,,,,,,
,,,,,,60a57ec89138a40a4a5acc63,62c5561e7800824eb1166815,2022-07-06_10h34.50.940,Colour_Asymmetry_Pilot,2022.1.3,Win32,60.04924038,62c50e9c1127f2cd403a315f,0,106,106,119,1,fourthree,,,,,,,,,,,,,,,,,,,,,,,,,,,,,,,,,,,,,,,,,,,,,,,,,,,,,,,,,,,,,,,,,,,,,,,,,,,,,,,,,,,,,,,,,,,,,,,,,,,,,,,,,,,,,,,,,,,,,,,,,,,,,,,,,,,,,,,,,,,,,,,,,,,,,,,,,,,,
,,,,,,60a57ec89138a40a4a5acc63,62c5561e7800824eb1166815,2022-07-06_10h34.50.940,Colour_Asymmetry_Pilot,2022.1.3,Win32,60.04924038,62c50e9c1127f2cd403a315f,0,107,107,155,1,twofour,,,,,,,,,,,,,,,,,,,,,,,,,,,,,,,,,,,,,,,,,,,,,,,,,,,,,,,,,,,,,,,,,,,,,,,,,,,,,,,,,,,,,,,,,,,,,,,,,,,,,,,,,,,,,,,,,,,,,,,,,,,,,,,,,,,,,,,,,,,,,,,,,,,,,,,,,,,,
,,,,,,60a57ec89138a40a4a5acc63,62c5561e7800824eb1166815,2022-07-06_10h34.50.940,Colour_Asymmetry_Pilot,2022.1.3,Win32,60.04924038,62c50e9c1127f2cd403a315f,0,108,108,10,1,twoone,,,,,,,,,,,,,,,,,,,,,,,,,,,,,,,,,,,,,,,,,,,,,,,,,,,,,,,,,,,,,,,,,,,,,,,,,,,,,,,,,,,,,,,,,,,,,,,,,,,,,,,,,,,,,,,,,,,,,,,,,,,,,,,,,,,,,,,,,,,,,,,,,,,,,,,,,,,,
,,,,,,60a57ec89138a40a4a5acc63,62c5561e7800824eb1166815,2022-07-06_10h34.50.940,Colour_Asymmetry_Pilot,2022.1.3,Win32,60.04924038,62c50e9c1127f2cd403a315f,0,109,109,11,1,twofour,,,,,,,,,,,,,,,,,,,,,,,,,,,,,,,,,,,,,,,,,,,,,,,,,,,,,,,,,,,,,,,,,,,,,,,,,,,,,,,,,,,,,,,,,,,,,,,,,,,,,,,,,,,,,,,,,,,,,,,,,,,,,,,,,,,,,,,,,,,,,,,,,,,,,,,,,,,,
,,,,,,60a57ec89138a40a4a5acc63,62c5561e7800824eb1166815,2022-07-06_10h34.50.940,Colour_Asymmetry_Pilot,2022.1.3,Win32,60.04924038,62c50e9c1127f2cd403a315f,0,110,110,57,1,onethree,,,,,,,,,,,,,,,,,,,,,,,,,,,,,,,,,,,,,,,,,,,,,,,,,,,,,,,,,,,,,,,,,,,,,,,,,,,,,,,,,,,,,,,,,,,,,,,,,,,,,,,,,,,,,,,,,,,,,,,,,,,,,,,,,,,,,,,,,,,,,,,,,,,,,,,,,,,,
,,,,,,60a57ec89138a40a4a5acc63,62c5561e7800824eb1166815,2022-07-06_10h34.50.940,Colour_Asymmetry_Pilot,2022.1.3,Win32,60.04924038,62c50e9c1127f2cd403a315f,0,111,111,66,1,twoone,,,,,,,,,,,,,,,,,,,,,,,,,,,,,,,,,,,,,,,,,,,,,,,,,,,,,,,,,,,,,,,,,,,,,,,,,,,,,,,,,,,,,,,,,,,,,,,,,,,,,,,,,,,,,,,,,,,,,,,,,,,,,,,,,,,,,,,,,,,,,,,,,,,,,,,,,,,,
,,,,,,60a57ec89138a40a4a5acc63,62c5561e7800824eb1166815,2022-07-06_10h34.50.940,Colour_Asymmetry_Pilot,2022.1.3,Win32,60.04924038,62c50e9c1127f2cd403a315f,0,112,112,9,1,onethree,,,,,,,,,,,,,,,,,,,,,,,,,,,,,,,,,,,,,,,,,,,,,,,,,,,,,,,,,,,,,,,,,,,,,,,,,,,,,,,,,,,,,,,,,,,,,,,,,,,,,,,,,,,,,,,,,,,,,,,,,,,,,,,,,,,,,,,,,,,,,,,,,,,,,,,,,,,,
,,,,,,60a57ec89138a40a4a5acc63,62c5561e7800824eb1166815,2022-07-06_10h34.50.940,Colour_Asymmetry_Pilot,2022.1.3,Win32,60.04924038,62c50e9c1127f2cd403a315f,0,113,113,86,1,fourtwo,,,,,,,,,,,,,,,,,,,,,,,,,,,,,,,,,,,,,,,,,,,,,,,,,,,,,,,,,,,,,,,,,,,,,,,,,,,,,,,,,,,,,,,,,,,,,,,,,,,,,,,,,,,,,,,,,,,,,,,,,,,,,,,,,,,,,,,,,,,,,,,,,,,,,,,,,,,,
,,,,,,60a57ec89138a40a4a5acc63,62c5561e7800824eb1166815,2022-07-06_10h34.50.940,Colour_Asymmetry_Pilot,2022.1.3,Win32,60.04924038,62c50e9c1127f2cd403a315f,0,114,114,117,1,threefour,,,,,,,,,,,,,,,,,,,,,,,,,,,,,,,,,,,,,,,,,,,,,,,,,,,,,,,,,,,,,,,,,,,,,,,,,,,,,,,,,,,,,,,,,,,,,,,,,,,,,,,,,,,,,,,,,,,,,,,,,,,,,,,,,,,,,,,,,,,,,,,,,,,,,,,,,,,,
,,,,,,60a57ec89138a40a4a5acc63,62c5561e7800824eb1166815,2022-07-06_10h34.50.940,Colour_Asymmetry_Pilot,2022.1.3,Win32,60.04924038,62c50e9c1127f2cd403a315f,0,115,115,60,1,threeone,,,,,,,,,,,,,,,,,,,,,,,,,,,,,,,,,,,,,,,,,,,,,,,,,,,,,,,,,,,,,,,,,,,,,,,,,,,,,,,,,,,,,,,,,,,,,,,,,,,,,,,,,,,,,,,,,,,,,,,,,,,,,,,,,,,,,,,,,,,,,,,,,,,,,,,,,,,,
,,,,,,60a57ec89138a40a4a5acc63,62c5561e7800824eb1166815,2022-07-06_10h34.50.940,Colour_Asymmetry_Pilot,2022.1.3,Win32,60.04924038,62c50e9c1127f2cd403a315f,0,116,116,46,1,fourtwo,,,,,,,,,,,,,,,,,,,,,,,,,,,,,,,,,,,,,,,,,,,,,,,,,,,,,,,,,,,,,,,,,,,,,,,,,,,,,,,,,,,,,,,,,,,,,,,,,,,,,,,,,,,,,,,,,,,,,,,,,,,,,,,,,,,,,,,,,,,,,,,,,,,,,,,,,,,,
,,,,,,60a57ec89138a40a4a5acc63,62c5561e7800824eb1166815,2022-07-06_10h34.50.940,Colour_Asymmetry_Pilot,2022.1.3,Win32,60.04924038,62c50e9c1127f2cd403a315f,0,117,117,158,1,fourtwo,,,,,,,,,,,,,,,,,,,,,,,,,,,,,,,,,,,,,,,,,,,,,,,,,,,,,,,,,,,,,,,,,,,,,,,,,,,,,,,,,,,,,,,,,,,,,,,,,,,,,,,,,,,,,,,,,,,,,,,,,,,,,,,,,,,,,,,,,,,,,,,,,,,,,,,,,,,,
,,,,,,60a57ec89138a40a4a5acc63,62c5561e7800824eb1166815,2022-07-06_10h34.50.940,Colour_Asymmetry_Pilot,2022.1.3,Win32,60.04924038,62c50e9c1127f2cd403a315f,0,118,118,69,1,threefour,,,,,,,,,,,,,,,,,,,,,,,,,,,,,,,,,,,,,,,,,,,,,,,,,,,,,,,,,,,,,,,,,,,,,,,,,,,,,,,,,,,,,,,,,,,,,,,,,,,,,,,,,,,,,,,,,,,,,,,,,,,,,,,,,,,,,,,,,,,,,,,,,,,,,,,,,,,,
,,,,,,60a57ec89138a40a4a5acc63,62c5561e7800824eb1166815,2022-07-06_10h34.50.940,Colour_Asymmetry_Pilot,2022.1.3,Win32,60.04924038,62c50e9c1127f2cd403a315f,0,119,119,116,1,threeone,,,,,,,,,,,,,,,,,,,,,,,,,,,,,,,,,,,,,,,,,,,,,,,,,,,,,,,,,,,,,,,,,,,,,,,,,,,,,,,,,,,,,,,,,,,,,,,,,,,,,,,,,,,,,,,,,,,,,,,,,,,,,,,,,,,,,,,,,,,,,,,,,,,,,,,,,,,,
,,,,,,60a57ec89138a40a4a5acc63,62c5561e7800824eb1166815,2022-07-06_10h34.50.940,Colour_Asymmetry_Pilot,2022.1.3,Win32,60.04924038,62c50e9c1127f2cd403a315f,0,120,120,51,1,twofour,,,,,,,,,,,,,,,,,,,,,,,,,,,,,,,,,,,,,,,,,,,,,,,,,,,,,,,,,,,,,,,,,,,,,,,,,,,,,,,,,,,,,,,,,,,,,,,,,,,,,,,,,,,,,,,,,,,,,,,,,,,,,,,,,,,,,,,,,,,,,,,,,,,,,,,,,,,,
,,,,,,60a57ec89138a40a4a5acc63,62c5561e7800824eb1166815,2022-07-06_10h34.50.940,Colour_Asymmetry_Pilot,2022.1.3,Win32,60.04924038,62c50e9c1127f2cd403a315f,0,121,121,95,1,fourthree,,,,,,,,,,,,,,,,,,,,,,,,,,,,,,,,,,,,,,,,,,,,,,,,,,,,,,,,,,,,,,,,,,,,,,,,,,,,,,,,,,,,,,,,,,,,,,,,,,,,,,,,,,,,,,,,,,,,,,,,,,,,,,,,,,,,,,,,,,,,,,,,,,,,,,,,,,,,
,,,,,,60a57ec89138a40a4a5acc63,62c5561e7800824eb1166815,2022-07-06_10h34.50.940,Colour_Asymmetry_Pilot,2022.1.3,Win32,60.04924038,62c50e9c1127f2cd403a315f,0,122,122,156,1,threeone,,,,,,,,,,,,,,,,,,,,,,,,,,,,,,,,,,,,,,,,,,,,,,,,,,,,,,,,,,,,,,,,,,,,,,,,,,,,,,,,,,,,,,,,,,,,,,,,,,,,,,,,,,,,,,,,,,,,,,,,,,,,,,,,,,,,,,,,,,,,,,,,,,,,,,,,,,,,
,,,,,,60a57ec89138a40a4a5acc63,62c5561e7800824eb1166815,2022-07-06_10h34.50.940,Colour_Asymmetry_Pilot,2022.1.3,Win32,60.04924038,62c50e9c1127f2cd403a315f,0,123,123,107,1,twofour,,,,,,,,,,,,,,,,,,,,,,,,,,,,,,,,,,,,,,,,,,,,,,,,,,,,,,,,,,,,,,,,,,,,,,,,,,,,,,,,,,,,,,,,,,,,,,,,,,,,,,,,,,,,,,,,,,,,,,,,,,,,,,,,,,,,,,,,,,,,,,,,,,,,,,,,,,,,
,,,,,,60a57ec89138a40a4a5acc63,62c5561e7800824eb1166815,2022-07-06_10h34.50.940,Colour_Asymmetry_Pilot,2022.1.3,Win32,60.04924038,62c50e9c1127f2cd403a315f,0,124,124,37,1,threefour,,,,,,,,,,,,,,,,,,,,,,,,,,,,,,,,,,,,,,,,,,,,,,,,,,,,,,,,,,,,,,,,,,,,,,,,,,,,,,,,,,,,,,,,,,,,,,,,,,,,,,,,,,,,,,,,,,,,,,,,,,,,,,,,,,,,,,,,,,,,,,,,,,,,,,,,,,,,
,,,,,,60a57ec89138a40a4a5acc63,62c5561e7800824eb1166815,2022-07-06_10h34.50.940,Colour_Asymmetry_Pilot,2022.1.3,Win32,60.04924038,62c50e9c1127f2cd403a315f,0,125,125,140,1,threeone,,,,,,,,,,,,,,,,,,,,,,,,,,,,,,,,,,,,,,,,,,,,,,,,,,,,,,,,,,,,,,,,,,,,,,,,,,,,,,,,,,,,,,,,,,,,,,,,,,,,,,,,,,,,,,,,,,,,,,,,,,,,,,,,,,,,,,,,,,,,,,,,,,,,,,,,,,,,
,,,,,,60a57ec89138a40a4a5acc63,62c5561e7800824eb1166815,2022-07-06_10h34.50.940,Colour_Asymmetry_Pilot,2022.1.3,Win32,60.04924038,62c50e9c1127f2cd403a315f,0,126,126,84,1,threeone,,,,,,,,,,,,,,,,,,,,,,,,,,,,,,,,,,,,,,,,,,,,,,,,,,,,,,,,,,,,,,,,,,,,,,,,,,,,,,,,,,,,,,,,,,,,,,,,,,,,,,,,,,,,,,,,,,,,,,,,,,,,,,,,,,,,,,,,,,,,,,,,,,,,,,,,,,,,
,,,,,,60a57ec89138a40a4a5acc63,62c5561e7800824eb1166815,2022-07-06_10h34.50.940,Colour_Asymmetry_Pilot,2022.1.3,Win32,60.04924038,62c50e9c1127f2cd403a315f,0,127,127,137,1,onethree,,,,,,,,,,,,,,,,,,,,,,,,,,,,,,,,,,,,,,,,,,,,,,,,,,,,,,,,,,,,,,,,,,,,,,,,,,,,,,,,,,,,,,,,,,,,,,,,,,,,,,,,,,,,,,,,,,,,,,,,,,,,,,,,,,,,,,,,,,,,,,,,,,,,,,,,,,,,
,,,,,,60a57ec89138a40a4a5acc63,62c5561e7800824eb1166815,2022-07-06_10h34.50.940,Colour_Asymmetry_Pilot,2022.1.3,Win32,60.04924038,62c50e9c1127f2cd403a315f,0,128,128,93,1,threefour,,,,,,,,,,,,,,,,,,,,,,,,,,,,,,,,,,,,,,,,,,,,,,,,,,,,,,,,,,,,,,,,,,,,,,,,,,,,,,,,,,,,,,,,,,,,,,,,,,,,,,,,,,,,,,,,,,,,,,,,,,,,,,,,,,,,,,,,,,,,,,,,,,,,,,,,,,,,
,,,,,,60a57ec89138a40a4a5acc63,62c5561e7800824eb1166815,2022-07-06_10h34.50.940,Colour_Asymmetry_Pilot,2022.1.3,Win32,60.04924038,62c50e9c1127f2cd403a315f,0,129,129,105,1,onethree,,,,,,,,,,,,,,,,,,,,,,,,,,,,,,,,,,,,,,,,,,,,,,,,,,,,,,,,,,,,,,,,,,,,,,,,,,,,,,,,,,,,,,,,,,,,,,,,,,,,,,,,,,,,,,,,,,,,,,,,,,,,,,,,,,,,,,,,,,,,,,,,,,,,,,,,,,,,
,,,,,,60a57ec89138a40a4a5acc63,62c5561e7800824eb1166815,2022-07-06_10h34.50.940,Colour_Asymmetry_Pilot,2022.1.3,Win32,60.04924038,62c50e9c1127f2cd403a315f,0,130,130,56,1,onetwo,,,,,,,,,,,,,,,,,,,,,,,,,,,,,,,,,,,,,,,,,,,,,,,,,,,,,,,,,,,,,,,,,,,,,,,,,,,,,,,,,,,,,,,,,,,,,,,,,,,,,,,,,,,,,,,,,,,,,,,,,,,,,,,,,,,,,,,,,,,,,,,,,,,,,,,,,,,,
,,,,,,60a57ec89138a40a4a5acc63,62c5561e7800824eb1166815,2022-07-06_10h34.50.940,Colour_Asymmetry_Pilot,2022.1.3,Win32,60.04924038,62c50e9c1127f2cd403a315f,0,131,131,27,1,twofour,,,,,,,,,,,,,,,,,,,,,,,,,,,,,,,,,,,,,,,,,,,,,,,,,,,,,,,,,,,,,,,,,,,,,,,,,,,,,,,,,,,,,,,,,,,,,,,,,,,,,,,,,,,,,,,,,,,,,,,,,,,,,,,,,,,,,,,,,,,,,,,,,,,,,,,,,,,,
,,,,,,60a57ec89138a40a4a5acc63,62c5561e7800824eb1166815,2022-07-06_10h34.50.940,Colour_Asymmetry_Pilot,2022.1.3,Win32,60.04924038,62c50e9c1127f2cd403a315f,0,132,132,43,1,twofour,,,,,,,,,,,,,,,,,,,,,,,,,,,,,,,,,,,,,,,,,,,,,,,,,,,,,,,,,,,,,,,,,,,,,,,,,,,,,,,,,,,,,,,,,,,,,,,,,,,,,,,,,,,,,,,,,,,,,,,,,,,,,,,,,,,,,,,,,,,,,,,,,,,,,,,,,,,,
,,,,,,60a57ec89138a40a4a5acc63,62c5561e7800824eb1166815,2022-07-06_10h34.50.940,Colour_Asymmetry_Pilot,2022.1.3,Win32,60.04924038,62c50e9c1127f2cd403a315f,0,133,133,0,1,onetwo,,,,,,,,,,,,,,,,,,,,,,,,,,,,,,,,,,,,,,,,,,,,,,,,,,,,,,,,,,,,,,,,,,,,,,,,,,,,,,,,,,,,,,,,,,,,,,,,,,,,,,,,,,,,,,,,,,,,,,,,,,,,,,,,,,,,,,,,,,,,,,,,,,,,,,,,,,,,
,,,,,,60a57ec89138a40a4a5acc63,62c5561e7800824eb1166815,2022-07-06_10h34.50.940,Colour_Asymmetry_Pilot,2022.1.3,Win32,60.04924038,62c50e9c1127f2cd403a315f,0,134,134,32,1,onetwo,,,,,,,,,,,,,,,,,,,,,,,,,,,,,,,,,,,,,,,,,,,,,,,,,,,,,,,,,,,,,,,,,,,,,,,,,,,,,,,,,,,,,,,,,,,,,,,,,,,,,,,,,,,,,,,,,,,,,,,,,,,,,,,,,,,,,,,,,,,,,,,,,,,,,,,,,,,,
,,,,,,60a57ec89138a40a4a5acc63,62c5561e7800824eb1166815,2022-07-06_10h34.50.940,Colour_Asymmetry_Pilot,2022.1.3,Win32,60.04924038,62c50e9c1127f2cd403a315f,0,135,135,131,1,twofour,,,,,,,,,,,,,,,,,,,,,,,,,,,,,,,,,,,,,,,,,,,,,,,,,,,,,,,,,,,,,,,,,,,,,,,,,,,,,,,,,,,,,,,,,,,,,,,,,,,,,,,,,,,,,,,,,,,,,,,,,,,,,,,,,,,,,,,,,,,,,,,,,,,,,,,,,,,,
,,,,,,60a57ec89138a40a4a5acc63,62c5561e7800824eb1166815,2022-07-06_10h34.50.940,Colour_Asymmetry_Pilot,2022.1.3,Win32,60.04924038,62c50e9c1127f2cd403a315f,0,136,136,97,1,onethree,,,,,,,,,,,,,,,,,,,,,,,,,,,,,,,,,,,,,,,,,,,,,,,,,,,,,,,,,,,,,,,,,,,,,,,,,,,,,,,,,,,,,,,,,,,,,,,,,,,,,,,,,,,,,,,,,,,,,,,,,,,,,,,,,,,,,,,,,,,,,,,,,,,,,,,,,,,,
,,,,,,60a57ec89138a40a4a5acc63,62c5561e7800824eb1166815,2022-07-06_10h34.50.940,Colour_Asymmetry_Pilot,2022.1.3,Win32,60.04924038,62c50e9c1127f2cd403a315f,0,137,137,48,1,onetwo,,,,,,,,,,,,,,,,,,,,,,,,,,,,,,,,,,,,,,,,,,,,,,,,,,,,,,,,,,,,,,,,,,,,,,,,,,,,,,,,,,,,,,,,,,,,,,,,,,,,,,,,,,,,,,,,,,,,,,,,,,,,,,,,,,,,,,,,,,,,,,,,,,,,,,,,,,,,
,,,,,,60a57ec89138a40a4a5acc63,62c5561e7800824eb1166815,2022-07-06_10h34.50.940,Colour_Asymmetry_Pilot,2022.1.3,Win32,60.04924038,62c50e9c1127f2cd403a315f,0,138,138,5,1,threefour,,,,,,,,,,,,,,,,,,,,,,,,,,,,,,,,,,,,,,,,,,,,,,,,,,,,,,,,,,,,,,,,,,,,,,,,,,,,,,,,,,,,,,,,,,,,,,,,,,,,,,,,,,,,,,,,,,,,,,,,,,,,,,,,,,,,,,,,,,,,,,,,,,,,,,,,,,,,
,,,,,,60a57ec89138a40a4a5acc63,62c5561e7800824eb1166815,2022-07-06_10h34.50.940,Colour_Asymmetry_Pilot,2022.1.3,Win32,60.04924038,62c50e9c1127f2cd403a315f,0,139,139,100,1,threeone,,,,,,,,,,,,,,,,,,,,,,,,,,,,,,,,,,,,,,,,,,,,,,,,,,,,,,,,,,,,,,,,,,,,,,,,,,,,,,,,,,,,,,,,,,,,,,,,,,,,,,,,,,,,,,,,,,,,,,,,,,,,,,,,,,,,,,,,,,,,,,,,,,,,,,,,,,,,
,,,,,,60a57ec89138a40a4a5acc63,62c5561e7800824eb1166815,2022-07-06_10h34.50.940,Colour_Asymmetry_Pilot,2022.1.3,Win32,60.04924038,62c50e9c1127f2cd403a315f,0,140,140,76,1,threeone,,,,,,,,,,,,,,,,,,,,,,,,,,,,,,,,,,,,,,,,,,,,,,,,,,,,,,,,,,,,,,,,,,,,,,,,,,,,,,,,,,,,,,,,,,,,,,,,,,,,,,,,,,,,,,,,,,,,,,,,,,,,,,,,,,,,,,,,,,,,,,,,,,,,,,,,,,,,
,,,,,,60a57ec89138a40a4a5acc63,62c5561e7800824eb1166815,2022-07-06_10h34.50.940,Colour_Asymmetry_Pilot,2022.1.3,Win32,60.04924038,62c50e9c1127f2cd403a315f,0,141,141,121,1,onethree,,,,,,,,,,,,,,,,,,,,,,,,,,,,,,,,,,,,,,,,,,,,,,,,,,,,,,,,,,,,,,,,,,,,,,,,,,,,,,,,,,,,,,,,,,,,,,,,,,,,,,,,,,,,,,,,,,,,,,,,,,,,,,,,,,,,,,,,,,,,,,,,,,,,,,,,,,,,
,,,,,,60a57ec89138a40a4a5acc63,62c5561e7800824eb1166815,2022-07-06_10h34.50.940,Colour_Asymmetry_Pilot,2022.1.3,Win32,60.04924038,62c50e9c1127f2cd403a315f,0,142,142,55,1,fourthree,,,,,,,,,,,,,,,,,,,,,,,,,,,,,,,,,,,,,,,,,,,,,,,,,,,,,,,,,,,,,,,,,,,,,,,,,,,,,,,,,,,,,,,,,,,,,,,,,,,,,,,,,,,,,,,,,,,,,,,,,,,,,,,,,,,,,,,,,,,,,,,,,,,,,,,,,,,,
,,,,,,60a57ec89138a40a4a5acc63,62c5561e7800824eb1166815,2022-07-06_10h34.50.940,Colour_Asymmetry_Pilot,2022.1.3,Win32,60.04924038,62c50e9c1127f2cd403a315f,0,143,143,8,1,onetwo,,,,,,,,,,,,,,,,,,,,,,,,,,,,,,,,,,,,,,,,,,,,,,,,,,,,,,,,,,,,,,,,,,,,,,,,,,,,,,,,,,,,,,,,,,,,,,,,,,,,,,,,,,,,,,,,,,,,,,,,,,,,,,,,,,,,,,,,,,,,,,,,,,,,,,,,,,,,
,,,,,,60a57ec89138a40a4a5acc63,62c5561e7800824eb1166815,2022-07-06_10h34.50.940,Colour_Asymmetry_Pilot,2022.1.3,Win32,60.04924038,62c50e9c1127f2cd403a315f,0,144,144,47,1,fourthree,,,,,,,,,,,,,,,,,,,,,,,,,,,,,,,,,,,,,,,,,,,,,,,,,,,,,,,,,,,,,,,,,,,,,,,,,,,,,,,,,,,,,,,,,,,,,,,,,,,,,,,,,,,,,,,,,,,,,,,,,,,,,,,,,,,,,,,,,,,,,,,,,,,,,,,,,,,,
,,,,,,60a57ec89138a40a4a5acc63,62c5561e7800824eb1166815,2022-07-06_10h34.50.940,Colour_Asymmetry_Pilot,2022.1.3,Win32,60.04924038,62c50e9c1127f2cd403a315f,0,145,145,41,1,onethree,,,,,,,,,,,,,,,,,,,,,,,,,,,,,,,,,,,,,,,,,,,,,,,,,,,,,,,,,,,,,,,,,,,,,,,,,,,,,,,,,,,,,,,,,,,,,,,,,,,,,,,,,,,,,,,,,,,,,,,,,,,,,,,,,,,,,,,,,,,,,,,,,,,,,,,,,,,,
,,,,,,60a57ec89138a40a4a5acc63,62c5561e7800824eb1166815,2022-07-06_10h34.50.940,Colour_Asymmetry_Pilot,2022.1.3,Win32,60.04924038,62c50e9c1127f2cd403a315f,0,146,146,36,1,threeone,,,,,,,,,,,,,,,,,,,,,,,,,,,,,,,,,,,,,,,,,,,,,,,,,,,,,,,,,,,,,,,,,,,,,,,,,,,,,,,,,,,,,,,,,,,,,,,,,,,,,,,,,,,,,,,,,,,,,,,,,,,,,,,,,,,,,,,,,,,,,,,,,,,,,,,,,,,,
,,,,,,60a57ec89138a40a4a5acc63,62c5561e7800824eb1166815,2022-07-06_10h34.50.940,Colour_Asymmetry_Pilot,2022.1.3,Win32,60.04924038,62c50e9c1127f2cd403a315f,0,147,147,2,1,twoone,,,,,,,,,,,,,,,,,,,,,,,,,,,,,,,,,,,,,,,,,,,,,,,,,,,,,,,,,,,,,,,,,,,,,,,,,,,,,,,,,,,,,,,,,,,,,,,,,,,,,,,,,,,,,,,,,,,,,,,,,,,,,,,,,,,,,,,,,,,,,,,,,,,,,,,,,,,,
,,,,,,60a57ec89138a40a4a5acc63,62c5561e7800824eb1166815,2022-07-06_10h34.50.940,Colour_Asymmetry_Pilot,2022.1.3,Win32,60.04924038,62c50e9c1127f2cd403a315f,0,148,148,130,1,twoone,,,,,,,,,,,,,,,,,,,,,,,,,,,,,,,,,,,,,,,,,,,,,,,,,,,,,,,,,,,,,,,,,,,,,,,,,,,,,,,,,,,,,,,,,,,,,,,,,,,,,,,,,,,,,,,,,,,,,,,,,,,,,,,,,,,,,,,,,,,,,,,,,,,,,,,,,,,,
,,,,,,60a57ec89138a40a4a5acc63,62c5561e7800824eb1166815,2022-07-06_10h34.50.940,Colour_Asymmetry_Pilot,2022.1.3,Win32,60.04924038,62c50e9c1127f2cd403a315f,0,149,149,136,1,onetwo,,,,,,,,,,,,,,,,,,,,,,,,,,,,,,,,,,,,,,,,,,,,,,,,,,,,,,,,,,,,,,,,,,,,,,,,,,,,,,,,,,,,,,,,,,,,,,,,,,,,,,,,,,,,,,,,,,,,,,,,,,,,,,,,,,,,,,,,,,,,,,,,,,,,,,,,,,,,
,,,,,,60a57ec89138a40a4a5acc63,62c5561e7800824eb1166815,2022-07-06_10h34.50.940,Colour_Asymmetry_Pilot,2022.1.3,Win32,60.04924038,62c50e9c1127f2cd403a315f,0,150,150,85,1,threefour,,,,,,,,,,,,,,,,,,,,,,,,,,,,,,,,,,,,,,,,,,,,,,,,,,,,,,,,,,,,,,,,,,,,,,,,,,,,,,,,,,,,,,,,,,,,,,,,,,,,,,,,,,,,,,,,,,,,,,,,,,,,,,,,,,,,,,,,,,,,,,,,,,,,,,,,,,,,
,,,,,,60a57ec89138a40a4a5acc63,62c5561e7800824eb1166815,2022-07-06_10h34.50.940,Colour_Asymmetry_Pilot,2022.1.3,Win32,60.04924038,62c50e9c1127f2cd403a315f,0,151,151,54,1,fourtwo,,,,,,,,,,,,,,,,,,,,,,,,,,,,,,,,,,,,,,,,,,,,,,,,,,,,,,,,,,,,,,,,,,,,,,,,,,,,,,,,,,,,,,,,,,,,,,,,,,,,,,,,,,,,,,,,,,,,,,,,,,,,,,,,,,,,,,,,,,,,,,,,,,,,,,,,,,,,
,,,,,,60a57ec89138a40a4a5acc63,62c5561e7800824eb1166815,2022-07-06_10h34.50.940,Colour_Asymmetry_Pilot,2022.1.3,Win32,60.04924038,62c50e9c1127f2cd403a315f,0,152,152,15,1,fourthree,,,,,,,,,,,,,,,,,,,,,,,,,,,,,,,,,,,,,,,,,,,,,,,,,,,,,,,,,,,,,,,,,,,,,,,,,,,,,,,,,,,,,,,,,,,,,,,,,,,,,,,,,,,,,,,,,,,,,,,,,,,,,,,,,,,,,,,,,,,,,,,,,,,,,,,,,,,,
,,,,,,60a57ec89138a40a4a5acc63,62c5561e7800824eb1166815,2022-07-06_10h34.50.940,Colour_Asymmetry_Pilot,2022.1.3,Win32,60.04924038,62c50e9c1127f2cd403a315f,0,153,153,75,1,twofour,,,,,,,,,,,,,,,,,,,,,,,,,,,,,,,,,,,,,,,,,,,,,,,,,,,,,,,,,,,,,,,,,,,,,,,,,,,,,,,,,,,,,,,,,,,,,,,,,,,,,,,,,,,,,,,,,,,,,,,,,,,,,,,,,,,,,,,,,,,,,,,,,,,,,,,,,,,,
,,,,,,60a57ec89138a40a4a5acc63,62c5561e7800824eb1166815,2022-07-06_10h34.50.940,Colour_Asymmetry_Pilot,2022.1.3,Win32,60.04924038,62c50e9c1127f2cd403a315f,0,154,154,133,1,threefour,,,,,,,,,,,,,,,,,,,,,,,,,,,,,,,,,,,,,,,,,,,,,,,,,,,,,,,,,,,,,,,,,,,,,,,,,,,,,,,,,,,,,,,,,,,,,,,,,,,,,,,,,,,,,,,,,,,,,,,,,,,,,,,,,,,,,,,,,,,,,,,,,,,,,,,,,,,,
,,,,,,60a57ec89138a40a4a5acc63,62c5561e7800824eb1166815,2022-07-06_10h34.50.940,Colour_Asymmetry_Pilot,2022.1.3,Win32,60.04924038,62c50e9c1127f2cd403a315f,0,155,155,44,1,threeone,,,,,,,,,,,,,,,,,,,,,,,,,,,,,,,,,,,,,,,,,,,,,,,,,,,,,,,,,,,,,,,,,,,,,,,,,,,,,,,,,,,,,,,,,,,,,,,,,,,,,,,,,,,,,,,,,,,,,,,,,,,,,,,,,,,,,,,,,,,,,,,,,,,,,,,,,,,,
,,,,,,60a57ec89138a40a4a5acc63,62c5561e7800824eb1166815,2022-07-06_10h34.50.940,Colour_Asymmetry_Pilot,2022.1.3,Win32,60.04924038,62c50e9c1127f2cd403a315f,0,156,156,50,1,twoone,,,,,,,,,,,,,,,,,,,,,,,,,,,,,,,,,,,,,,,,,,,,,,,,,,,,,,,,,,,,,,,,,,,,,,,,,,,,,,,,,,,,,,,,,,,,,,,,,,,,,,,,,,,,,,,,,,,,,,,,,,,,,,,,,,,,,,,,,,,,,,,,,,,,,,,,,,,,
,,,,,,60a57ec89138a40a4a5acc63,62c5561e7800824eb1166815,2022-07-06_10h34.50.940,Colour_Asymmetry_Pilot,2022.1.3,Win32,60.04924038,62c50e9c1127f2cd403a315f,0,157,157,98,1,twoone,,,,,,,,,,,,,,,,,,,,,,,,,,,,,,,,,,,,,,,,,,,,,,,,,,,,,,,,,,,,,,,,,,,,,,,,,,,,,,,,,,,,,,,,,,,,,,,,,,,,,,,,,,,,,,,,,,,,,,,,,,,,,,,,,,,,,,,,,,,,,,,,,,,,,,,,,,,,
,,,,,,60a57ec89138a40a4a5acc63,62c5561e7800824eb1166815,2022-07-06_10h34.50.940,Colour_Asymmetry_Pilot,2022.1.3,Win32,60.04924038,62c50e9c1127f2cd403a315f,0,158,158,141,1,threefour,,,,,,,,,,,,,,,,,,,,,,,,,,,,,,,,,,,,,,,,,,,,,,,,,,,,,,,,,,,,,,,,,,,,,,,,,,,,,,,,,,,,,,,,,,,,,,,,,,,,,,,,,,,,,,,,,,,,,,,,,,,,,,,,,,,,,,,,,,,,,,,,,,,,,,,,,,,,
,,,,,,60a57ec89138a40a4a5acc63,62c5561e7800824eb1166815,2022-07-06_10h34.50.940,Colour_Asymmetry_Pilot,2022.1.3,Win32,60.04924038,62c50e9c1127f2cd403a315f,0,159,159,20,1,threeone,,,,,,,,,,,,,,,,,,,,,,,,,,,,,,,,,,,,,,,,,,,,,,,,,,,,,,,,,,,,,,,,,,,,,,,,,,,,,,,,,,,,,,,,,,,,,,,,,,,,,,,,,,,,,,,,,,,,,,,,,,,,,,,,,,,,,,,,,,,,,,,,,,,,,,,,,,,,
,,,,,,60a57ec89138a40a4a5acc63,62c5561e7800824eb1166815,2022-07-06_10h34.50.940,Colour_Asymmetry_Pilot,2022.1.3,Win32,60.04924038,62c50e9c1127f2cd403a315f,0,160,160,103,1,fourthree,,,,,,,,,,,,,,,,,,,,,,,,,,,,,,,,,,,,,,,,,,,,,,,,,,,,,,,,,,,,,,,,,,,,,,,,,,,,,,,,,,,,,,,,,,,,,,,,,,,,,,,,,,,,,,,,,,,,,,,,,,,,,,,,,,,,,,,,,,,,,,,,,,,,,,,,,,,,
,,,,,,60a57ec89138a40a4a5acc63,62c5561e7800824eb1166815,2022-07-06_10h34.50.940,Colour_Asymmetry_Pilot,2022.1.3,Win32,60.04924038,62c50e9c1127f2cd403a315f,0,161,161,102,1,fourtwo,,,,,,,,,,,,,,,,,,,,,,,,,,,,,,,,,,,,,,,,,,,,,,,,,,,,,,,,,,,,,,,,,,,,,,,,,,,,,,,,,,,,,,,,,,,,,,,,,,,,,,,,,,,,,,,,,,,,,,,,,,,,,,,,,,,,,,,,,,,,,,,,,,,,,,,,,,,,
,,,,,,60a57ec89138a40a4a5acc63,62c5561e7800824eb1166815,2022-07-06_10h34.50.940,Colour_Asymmetry_Pilot,2022.1.3,Win32,60.04924038,62c50e9c1127f2cd403a315f,,,,,,,space,0.2339,space,0.7335,space,14.1805,space,13.3305,space,0.6333,space,4.5947,"[0.3568,-0.20799999999999996,-0.9844]",fourtwo,"[0.9842,0.7409999999999999,-0.6628000000000001]",2,4.0411,80,-50,1,0,0,response3disk_5,14,4,1,0,0,rectangle_8,14,4,1,0,0,4,14,4,1,0,0,0,0,0,0,1,,,,,,,,,,,,,,,,,,,,,,,,,,,,,,,,,,,,,,,,,,,,,,,,,,,,,,,,,,,,,,,,,,,,,,,,,,,,,,,,,,,,,,,,,,,,,,,,,,,,,,,,,,,,,,,
,,,,,,60a57ec89138a40a4a5acc63,62c5561e7800824eb1166815,2022-07-06_10h34.50.940,Colour_Asymmetry_Pilot,2022.1.3,Win32,60.04924038,62c50e9c1127f2cd403a315f,,,,,,,,,,,,,,,,,,,"[1,0.12939999999999996,-1]",twoone,"[0.9372,0.20779999999999998,0.2704]",-4,1.85,-37,88,1,0,0,response7disk_5,-9,4,1,0,0,rectangle_8,-9,4,1,0,0,4,-9,4,1,0,0,1,0,1,0,1,,,,,,,,,,,,,,,,,,,,,,,,,,,,,,,,,,,,,,,,,,,,,,,,,,,,,,,,,,,,,,,,,,,,,,,,,,,,,,,,,,,,,,,,,,,,,,,,,,,,,,,,,,,,,,,
,,,,,,60a57ec89138a40a4a5acc63,62c5561e7800824eb1166815,2022-07-06_10h34.50.940,Colour_Asymmetry_Pilot,2022.1.3,Win32,60.04924038,62c50e9c1127f2cd403a315f,,,,,,,,,,,,,,,,,,,"[0.9763999999999999,0.30979999999999985,-0.6786]",threefour,"[0.3881999999999999,-0.23939999999999995,-0.05040000000000011]",-3,1.5996,-87,37,1,0,0,response7disk_5,-22,-15,1,0,0,rectangle_8,-22,-15,1,0,0,4,-22,-15,1,0,0,2,0,2,0,1,2,,,,,,,,,,,,,,,,,,,,,,,,,,,,,,,,,,,,,,,,,,,,,,,,,,,,,,,,,,,,,,,,,,,,,,,,,,,,,,,,,,,,,,,,,,,,,,,,,,,,,,,,,,,,,,
,,,,,,60a57ec89138a40a4a5acc63,62c5561e7800824eb1166815,2022-07-06_10h34.50.940,Colour_Asymmetry_Pilot,2022.1.3,Win32,60.04924038,62c50e9c1127f2cd403a315f,,,,,,,,,,,,,,,,,,,"[0.3802000000000001,0.19199999999999995,-0.6394]",twoone,"[-0.4746,-0.0354000000000001,0.5449999999999999]",-3,2.1827,-79,30,1,0,0,response7disk_5,-24,12,1,0,0,rectangle_8,-24,12,1,0,0,4,-24,12,1,0,0,3,0,3,0,1,,,,,,,,,,,,,,,,,,,,,,,,,,,,,,,,,,,,,,,,,,,,,,,,,,,,,,,,,,,,,,,,,,,,,,,,,,,,,,,,,,,,,,,,,,,,,,,,,,,,,,,,,,,,,,,
,,,,,,60a57ec89138a40a4a5acc63,62c5561e7800824eb1166815,2022-07-06_10h34.50.940,Colour_Asymmetry_Pilot,2022.1.3,Win32,60.04924038,62c50e9c1127f2cd403a315f,,,,,,,,,,,,,,,,,,,"[0.37240000000000006,0.4980000000000002,-0.2864]",onethree,"[-0.7412000000000001,-0.08239999999999992,-0.6864]",1,2.5336,41,-104,1,0,0,response3disk_5,0,10,1,0,0,rectangle_8,43,90,1,0,0,4,1,-6,1,0,0,4,0,4,0,1,7,response1disk_7,rectangle_4,,,,,,,,,,,,,,,,,,,,,,,,,,,,,,,,,,,,,,,,,,,,,,,,,,,,,,,,,,,,,,,,,,,,,,,,,,,,,,,,,,,,,,,,,,,,,,,,,,,,,,,,,,,,
,,,,,,60a57ec89138a40a4a5acc63,62c5561e7800824eb1166815,2022-07-06_10h34.50.940,Colour_Asymmetry_Pilot,2022.1.3,Win32,60.04924038,62c50e9c1127f2cd403a315f,,,,,,,,,,,,,,,,,,,"[-0.8198,-0.5138,-0.7492000000000001]",fourthree,"[-0.9766,-0.6472,0.07440000000000002]",-2,2.25,-83,-42,1,0,0,response5disk_5,-3,-2,1,0,0,rectangle_8,-3,-2,1,0,0,4,-3,-2,1,0,0,5,0,5,0,1,,,,,,,,,,,,,,,,,,,,,,,,,,,,,,,,,,,,,,,,,,,,,,,,,,,,,,,,,,,,,,,,,,,,,,,,,,,,,,,,,,,,,,,,,,,,,,,,,,,,,,,,,,,,,,,
,,,,,,60a57ec89138a40a4a5acc63,62c5561e7800824eb1166815,2022-07-06_10h34.50.940,Colour_Asymmetry_Pilot,2022.1.3,Win32,60.04924038,62c50e9c1127f2cd403a315f,,,,,,,,,,,,,,,,,,,"[0.7018,0.7802,-0.16079999999999994]",threefour,"[0.9842,0.7409999999999999,-0.6628000000000001]",3,2.0152,94,32,1,0,0,response1disk_5,13,-1,1,0,0,rectangle_8,13,-1,1,0,0,4,13,-1,1,0,0,6,0,6,0,1,,,,,,,,,,,,,,,,,,,,,,,,,,,,,,,,,,,,,,,,,,,,,,,,,,,,,,,,,,,,,,,,,,,,,,,,,,,,,,,,,,,,,,,,,,,,,,,,,,,,,,,,,,,,,,,
,,,,,,60a57ec89138a40a4a5acc63,62c5561e7800824eb1166815,2022-07-06_10h34.50.940,Colour_Asymmetry_Pilot,2022.1.3,Win32,60.04924038,62c50e9c1127f2cd403a315f,,,,,,,,,,,,,,,,,,,,twoone,,-2,1.0824,,,,,,,,,,,,,,,,,,,,,,,,,,,,,,,,space,4.2933,"[-0.7412000000000001,-0.08239999999999992,-0.6864]","[-0.6942,-0.7648,-0.12959999999999994]",-63,-22,1,0,0,response5disk,-9,3,1,0,0,rectangle,44,-100,1,0,0,response3disk_3,1,1,1.5836,1,9,-3,1,0,0,rectangle,0,0,0,36,1,36,first,,,,,,,,,,,,,,,,,,,,,,,,,,,,,,,,,,,,,,,,,,,,,,,,,,,,,,,,,,,,,,,,,,,,,
,,,,,,60a57ec89138a40a4a5acc63,62c5561e7800824eb1166815,2022-07-06_10h34.50.940,Colour_Asymmetry_Pilot,2022.1.3,Win32,60.04924038,62c50e9c1127f2cd403a315f,,,,,,,,,,,,,,,,,,,,onetwo,,-3,1.1188,,,,,,,,,,,,,,,,,,,,,,,,,,,,,,,,,,"[-0.30200000000000005,0.14500000000000002,0.2784]","[-0.06680000000000008,-0.45100000000000007,-0.906]",-89,37,1,0,0,response7disk,3,-3,1,0,0,rectangle,3,-3,1,0,0,,1,2,0.0007,0,3,-3,1,0,0,,0,1,1,102,1,21,second,,,,,,,,,,,,,,,,,,,,,,,,,,,,,,,,,,,,,,,,,,,,,,,,,,,,,,,,,,,,,,,,,,,,,
,,,,,,60a57ec89138a40a4a5acc63,62c5561e7800824eb1166815,2022-07-06_10h34.50.940,Colour_Asymmetry_Pilot,2022.1.3,Win32,60.04924038,62c50e9c1127f2cd403a315f,,,,,,,,,,,,,,,,,,,,onetwo,,1,1.4541,,,,,,,,,,,,,,,,,,,,,,,,,,,,,,,,,,"[-0.30200000000000005,0.14500000000000002,0.2784]","[-0.9688,-0.7412000000000001,-0.4902000000000001]",32,-93,1,0,0,response3disk,2,4,1,0,0,rectangle,2,4,1,0,0,,1,3,0.0007,0,2,4,1,0,0,,0,2,2,46,1,46,first,,,,,,,,,,,,,,,,,,,,,,,,,,,,,,,,,,,,,,,,,,,,,,,,,,,,,,,,,,,,,,,,,,,,,
,,,,,,60a57ec89138a40a4a5acc63,62c5561e7800824eb1166815,2022-07-06_10h34.50.940,Colour_Asymmetry_Pilot,2022.1.3,Win32,60.04924038,62c50e9c1127f2cd403a315f,,,,,,,,,,,,,,,,,,,,twofour,,-4,0.7331,,,,,,,,,,,,,,,,,,,,,,,,,,,,,,,,,,"[-0.17659999999999998,0.3253999999999999,0.19999999999999996]","[0.8274000000000001,-0.5844,-0.9452]",-41,80,1,0,0,response7disk,6,-4,1,0,0,rectangle,6,-4,1,0,0,,1,2,0.0007,0,6,-4,1,0,0,,0,3,3,113,1,32,second,,,,,,,,,,,,,,,,,,,,,,,,,,,,,,,,,,,,,,,,,,,,,,,,,,,,,,,,,,,,,,,,,,,,,
,,,,,,60a57ec89138a40a4a5acc63,62c5561e7800824eb1166815,2022-07-06_10h34.50.940,Colour_Asymmetry_Pilot,2022.1.3,Win32,60.04924038,62c50e9c1127f2cd403a315f,,,,,,,,,,,,,,,,,,,,fourthree,,4,0.85,,,,,,,,,,,,,,,,,,,,,,,,,,,,,,,,,,"[-0.8982,-0.37259999999999993,0.2784]","[-0.9766,-0.34920000000000007,0.2156]",36,60,1,0,0,response1disk,5,-3,1,0,0,rectangle,5,-3,1,0,0,,1,1,0.0005,0,5,-3,1,0,0,,0,4,4,4,1,4,first,,,,,,,,,,,,,,,,,,,,,,,,,,,,,,,,,,,,,,,,,,,,,,,,,,,,,,,,,,,,,,,,,,,,,
,,,,,,60a57ec89138a40a4a5acc63,62c5561e7800824eb1166815,2022-07-06_10h34.50.940,Colour_Asymmetry_Pilot,2022.1.3,Win32,60.04924038,62c50e9c1127f2cd403a315f,,,,,,,,,,,,,,,,,,,,onetwo,,-1,1.4499,,,,,,,,,,,,,,,,,,,,,,,,,,,,,,,,,,"[0.7018,0.7176,0.6155999999999999]","[0.5528,0.7409999999999999,-0.71]",-43,-95,1,0,0,response5disk,1,1,1,0,0,rectangle,1,1,1,0,0,,1,1,9.99999E-05,0,1,1,1,0,0,,0,5,5,51,1,51,first,,,,,,,,,,,,,,,,,,,,,,,,,,,,,,,,,,,,,,,,,,,,,,,,,,,,,,,,,,,,,,,,,,,,,
,,,,,,60a57ec89138a40a4a5acc63,62c5561e7800824eb1166815,2022-07-06_10h34.50.940,Colour_Asymmetry_Pilot,2022.1.3,Win32,60.04924038,62c50e9c1127f2cd403a315f,,,,,,,,,,,,,,,,,,,,onethree,,3,0.8499,,,,,,,,,,,,,,,,,,,,,,,,,,,,,,,,,,"[-0.20799999999999996,-0.655,-0.01980000000000004]","[-0.011800000000000033,-0.906,-0.45100000000000007]",71,21,1,0,0,response1disk,-2,-13,1,0,0,rectangle,-2,-13,1,0,0,,1,3,0.0006,0,-2,-13,1,0,0,,0,6,6,95,1,14,second,,,,,,,,,,,,,,,,,,,,,,,,,,,,,,,,,,,,,,,,,,,,,,,,,,,,,,,,,,,,,,,,,,,,,
,,,,,,60a57ec89138a40a4a5acc63,62c5561e7800824eb1166815,2022-07-06_10h34.50.940,Colour_Asymmetry_Pilot,2022.1.3,Win32,60.04924038,62c50e9c1127f2cd403a315f,,,,,,,,,,,,,,,,,,,,threefour,,1,0.9712,,,,,,,,,,,,,,,,,,,,,,,,,,,,,,,,,,"[0.3568,-0.20799999999999996,-0.9844]","[0.09799999999999986,-0.24719999999999998,0.15280000000000005]",44,-87,1,0,0,response3disk,-8,6,1,0,0,rectangle,-8,6,1,0,0,,1,2,0.0006,0,-8,6,1,0,0,,0,7,7,149,1,68,second,,,,,,,,,,,,,,,,,,,,,,,,,,,,,,,,,,,,,,,,,,,,,,,,,,,,,,,,,,,,,,,,,,,,,
,,,,,,60a57ec89138a40a4a5acc63,62c5561e7800824eb1166815,2022-07-06_10h34.50.940,Colour_Asymmetry_Pilot,2022.1.3,Win32,60.04924038,62c50e9c1127f2cd403a315f,,,,,,,,,,,,,,,,,,,,twoone,,-4,0.5499,,,,,,,,,,,,,,,,,,,,,,,,,,,,,,,,,,"[-0.07459999999999989,0.12139999999999995,-0.9922]","[0.9842,0.7409999999999999,-0.6628000000000001]",-41,73,1,0,0,response7disk,-4,2,1,0,0,rectangle,-4,2,1,0,0,,1,3,0.0005,0,-4,2,1,0,0,,0,8,8,45,1,45,first,,,,,,,,,,,,,,,,,,,,,,,,,,,,,,,,,,,,,,,,,,,,,,,,,,,,,,,,,,,,,,,,,,,,,
,,,,,,60a57ec89138a40a4a5acc63,62c5561e7800824eb1166815,2022-07-06_10h34.50.940,Colour_Asymmetry_Pilot,2022.1.3,Win32,60.04924038,62c50e9c1127f2cd403a315f,,,,,,,,,,,,,,,,,,,,twoone,,-4,0.8127,,,,,,,,,,,,,,,,,,,,,,,,,,,,,,,,,,"[0.23120000000000007,-0.7726,-0.34120000000000006]","[0.11359999999999992,0.6312,0.5213999999999999]",-40,68,1,0,0,response7disk,9,1,1,0,0,rectangle,9,1,1,0,0,,1,2,0.0006,0,9,1,1,0,0,,0,9,9,109,1,28,second,,,,,,,,,,,,,,,,,,,,,,,,,,,,,,,,,,,,,,,,,,,,,,,,,,,,,,,,,,,,,,,,,,,,,
,,,,,,60a57ec89138a40a4a5acc63,62c5561e7800824eb1166815,2022-07-06_10h34.50.940,Colour_Asymmetry_Pilot,2022.1.3,Win32,60.04924038,62c50e9c1127f2cd403a315f,,,,,,,,,,,,,,,,,,,,fourtwo,,-3,0.9376,,,,,,,,,,,,,,,,,,,,,,,,,,,,,,,,,,"[0.7646000000000002,0.07440000000000002,0.2704]","[-0.8118,-0.8198,-0.5452]",-86,43,1,0,0,response7disk,1,4,1,0,0,rectangle,1,4,1,0,0,,1,1,0.0007,0,1,4,1,0,0,,0,10,10,15,1,15,first,,,,,,,,,,,,,,,,,,,,,,,,,,,,,,,,,,,,,,,,,,,,,,,,,,,,,,,,,,,,,,,,,,,,,
,,,,,,60a57ec89138a40a4a5acc63,62c5561e7800824eb1166815,2022-07-06_10h34.50.940,Colour_Asymmetry_Pilot,2022.1.3,Win32,60.04924038,62c50e9c1127f2cd403a315f,,,,,,,,,,,,,,,,,,,,onetwo,,2,0.6336,,,,,,,,,,,,,,,,,,,,,,,,,,,,,,,,,,"[0.40379999999999994,0.09000000000000008,0.44300000000000006]","[-0.38039999999999996,-0.4276,-0.1452]",77,-43,1,0,0,response3disk,-6,-8,1,0,0,rectangle,-6,-8,1,0,0,,1,2,0.0007,0,-6,-8,1,0,0,,0,11,11,17,1,17,first,,,,,,,,,,,,,,,,,,,,,,,,,,,,,,,,,,,,,,,,,,,,,,,,,,,,,,,,,,,,,,,,,,,,,
,,,,,,60a57ec89138a40a4a5acc63,62c5561e7800824eb1166815,2022-07-06_10h34.50.940,Colour_Asymmetry_Pilot,2022.1.3,Win32,60.04924038,62c50e9c1127f2cd403a315f,,,,,,,,,,,,,,,,,,,,fourthree,,1,0.6665,,,,,,,,,,,,,,,,,,,,,,,,,,,,,,,,,,"[-0.01980000000000004,-0.5138,-0.38039999999999996]","[-0.5452,-0.608,0.2470000000000001]",39,-76,1,0,0,response3disk,-3,5,1,0,0,rectangle,-3,5,1,0,0,,1,1,0.0005,0,-3,5,1,0,0,,0,12,12,100,1,19,second,,,,,,,,,,,,,,,,,,,,,,,,,,,,,,,,,,,,,,,,,,,,,,,,,,,,,,,,,,,,,,,,,,,,,
,,,,,,60a57ec89138a40a4a5acc63,62c5561e7800824eb1166815,2022-07-06_10h34.50.940,Colour_Asymmetry_Pilot,2022.1.3,Win32,60.04924038,62c50e9c1127f2cd403a315f,,,,,,,,,,,,,,,,,,,,fourthree,,-1,1.2502,,,,,,,,,,,,,,,,,,,,,,,,,,,,,,,,,,"[0.18419999999999992,-0.4276,-0.404]","[0.19199999999999995,0.18419999999999992,0.5136000000000001]",-42,-73,1,0,0,response5disk,-3,9,1,0,0,rectangle,-3,9,1,0,0,,1,3,0.0005,0,-3,9,1,0,0,,0,13,13,33,1,33,first,,,,,,,,,,,,,,,,,,,,,,,,,,,,,,,,,,,,,,,,,,,,,,,,,,,,,,,,,,,,,,,,,,,,,
,,,,,,60a57ec89138a40a4a5acc63,62c5561e7800824eb1166815,2022-07-06_10h34.50.940,Colour_Asymmetry_Pilot,2022.1.3,Win32,60.04924038,62c50e9c1127f2cd403a315f,,,,,,,,,,,,,,,,,,,,threefour,,4,0.4503,,,,,,,,,,,,,,,,,,,,,,,,,,,,,,,,,,"[0.9763999999999999,-0.1137999999999999,-0.6314]","[0.9763999999999999,-0.1137999999999999,-0.6314]",19,69,1,0,0,response1disk,-15,-8,1,0,0,rectangle,-15,-8,1,0,0,,1,3,0.0002,0,-15,-8,1,0,0,,0,14,14,148,1,67,second,,,,,,,,,,,,,,,,,,,,,,,,,,,,,,,,,,,,,,,,,,,,,,,,,,,,,,,,,,,,,,,,,,,,,
,,,,,,60a57ec89138a40a4a5acc63,62c5561e7800824eb1166815,2022-07-06_10h34.50.940,Colour_Asymmetry_Pilot,2022.1.3,Win32,60.04924038,62c50e9c1127f2cd403a315f,,,,,,,,,,,,,,,,,,,,fourthree,,-4,0.4834,,,,,,,,,,,,,,,,,,,,,,,,,,,,,,,,,,"[0.8274000000000001,-0.5844,-0.9452]","[-0.7412000000000001,-0.08239999999999992,-0.6864]",-44,70,1,0,0,response7disk,-3,3,1,0,0,rectangle,-3,3,1,0,0,,1,3,0.0002,0,-3,3,1,0,0,,0,15,15,64,1,64,first,,,,,,,,,,,,,,,,,,,,,,,,,,,,,,,,,,,,,,,,,,,,,,,,,,,,,,,,,,,,,,,,,,,,,
,,,,,,60a57ec89138a40a4a5acc63,62c5561e7800824eb1166815,2022-07-06_10h34.50.940,Colour_Asymmetry_Pilot,2022.1.3,Win32,60.04924038,62c50e9c1127f2cd403a315f,,,,,,,,,,,,,,,,,,,,threeone,,-4,0.371,,,,,,,,,,,,,,,,,,,,,,,,,,,,,,,,,,"[-0.5452,-0.608,0.2470000000000001]","[1,0.12939999999999996,-1]",-45,80,1,0,0,response7disk,0,-1,1,0,0,rectangle,0,-1,1,0,0,,1,3,9.99999E-05,0,0,-1,1,0,0,,0,16,16,125,1,44,second,,,,,,,,,,,,,,,,,,,,,,,,,,,,,,,,,,,,,,,,,,,,,,,,,,,,,,,,,,,,,,,,,,,,,
,,,,,,60a57ec89138a40a4a5acc63,62c5561e7800824eb1166815,2022-07-06_10h34.50.940,Colour_Asymmetry_Pilot,2022.1.3,Win32,60.04924038,62c50e9c1127f2cd403a315f,,,,,,,,,,,,,,,,,,,,onetwo,,-2,1.0136,,,,,,,,,,,,,,,,,,,,,,,,,,,,,,,,,,"[0.34099999999999997,0.5841999999999998,-0.9844]","[-0.6,0.16860000000000008,0.44300000000000006]",-70,-40,1,0,0,response5disk,11,2,1,0,0,rectangle,11,2,1,0,0,,1,3,0.0001,0,11,2,1,0,0,,0,17,17,88,1,7,second,,,,,,,,,,,,,,,,,,,,,,,,,,,,,,,,,,,,,,,,,,,,,,,,,,,,,,,,,,,,,,,,,,,,,
,,,,,,60a57ec89138a40a4a5acc63,62c5561e7800824eb1166815,2022-07-06_10h34.50.940,Colour_Asymmetry_Pilot,2022.1.3,Win32,60.04924038,62c50e9c1127f2cd403a315f,,,,,,,,,,,,,,,,,,,,threeone,,-3,0.6167,,,,,,,,,,,,,,,,,,,,,,,,,,,,,,,,,,"[-0.06680000000000008,-0.45100000000000007,-0.906]","[-0.48240000000000005,0.3175999999999999,0.2156]",-92,48,1,0,0,response7disk,-5,-3,1,0,0,rectangle,-5,-3,1,0,0,,1,3,0.0002,0,-5,-3,1,0,0,,0,18,18,146,1,65,second,,,,,,,,,,,,,,,,,,,,,,,,,,,,,,,,,,,,,,,,,,,,,,,,,,,,,,,,,,,,,,,,,,,,,
