trials.thisRepN,trials.thisTrialN,trials.thisN,trials.thisIndex,trials.ran,Colourcodes,participant,session,date,expName,psychopyVersion,OS,frameRate,study_id,trials_4.thisRepN,trials_4.thisTrialN,trials_4.thisN,trials_4.thisIndex,trials_4.ran,StimulusPos,key_resp.keys,key_resp.rt,key_resp_2.keys,key_resp_2.rt,key_resp_15.keys,key_resp_15.rt,key_resp_17.keys,key_resp_17.rt,key_resp_9.keys,key_resp_9.rt,key_resp_10.keys,key_resp_10.rt,Circle1_col,Ecc,Circle2_col,similarity,response_time,mouse_5.x,mouse_5.y,mouse_5.leftButton,mouse_5.midButton,mouse_5.rightButton,mouse_5.clicked_name,mouse_10.x,mouse_10.y,mouse_10.leftButton,mouse_10.midButton,mouse_10.rightButton,mouse_10.clicked_name,mouse_7.x,mouse_7.y,mouse_7.leftButton,mouse_7.midButton,mouse_7.rightButton,catchnumberprac,mouse_6.x,mouse_6.y,mouse_6.leftButton,mouse_6.midButton,mouse_6.rightButton,duringprac.thisRepN,duringprac.thisTrialN,duringprac.thisN,duringprac.thisIndex,duringprac.ran,key_resp_22.keys,key_resp_22.rt,Circle1_colour,Circle2_colour,mouse.x,mouse.y,mouse.leftButton,mouse.midButton,mouse.rightButton,mouse.clicked_name,mouse_2.x,mouse_2.y,mouse_2.leftButton,mouse_2.midButton,mouse_2.rightButton,mouse_2.clicked_name,mouse_3.x,mouse_3.y,mouse_3.leftButton,mouse_3.midButton,mouse_3.rightButton,catchresponse,catchnumber,response_time_catch,Catch,mouse_11.x,mouse_11.y,mouse_11.leftButton,mouse_11.midButton,mouse_11.rightButton,trials_2.thisRepN,trials_2.thisTrialN,trials_2.thisN,trials_2.thisIndex,trials_2.ran,Colourpair,Temporder,mouse_3.clicked_name,mouse_11.clicked_name,trials_3.thisRepN,trials_3.thisTrialN,trials_3.thisN,trials_3.thisIndex,trials_3.ran,key_resp_instr_Ishi.keys,key_resp_instr_Ishi.rt,Ishi_trial_keyresp.keys,Ishi_textbox.text,Ishi_mouse.x,Ishi_mouse.y,Ishi_mouse.leftButton,Ishi_mouse.midButton,Ishi_mouse.rightButton,Ishi_mouse.clicked_name,Ishi_loop.thisRepN,Ishi_loop.thisTrialN,Ishi_loop.thisN,Ishi_loop.thisIndex,Ishi_loop.ran,imageaddress,textbox.text,mouse_4.x,mouse_4.y,mouse_4.leftButton,mouse_4.midButton,mouse_4.rightButton,mouse_4.clicked_name,textbox_2.text,mouse_8.x,mouse_8.y,mouse_8.leftButton,mouse_8.midButton,mouse_8.rightButton,mouse_8.clicked_name,textbox_3.text,mouse_9.x,mouse_9.y,mouse_9.leftButton,mouse_9.midButton,mouse_9.rightButton,mouse_9.clicked_name,textbox_4.text,mouse_12.x,mouse_12.y,mouse_12.leftButton,mouse_12.midButton,mouse_12.rightButton,mouse_12.clicked_name,textbox_5.text,mouse_13.x,mouse_13.y,mouse_13.leftButton,mouse_13.midButton,mouse_13.rightButton,mouse_13.clicked_name,textbox_6.text,mouse_14.x,mouse_14.y,mouse_14.leftButton,mouse_14.midButton,mouse_14.rightButton,mouse_14.clicked_name,textbox_7.text,mouse_15.x,mouse_15.y,mouse_15.leftButton,mouse_15.midButton,mouse_15.rightButton,mouse_15.clicked_name
0,0,0,84,1,,614a4c9d8172751921452626,62c538622c3cf42a78b91f1b,2022-07-06_24h23.57.254,Colour_Asymmetry_Pilot,2022.1.3,Win32,60.0024001,62c50e9c1127f2cd403a315f,,,,,,,,,,,,,,,,,,,,,,,,,,,,,,,,,,,,,,,,,,,,,,,,,,,,,,,,,,,,,,,,,,,,,,,,,,,,,,,,,,,,,,,,,,,,,,,,,,,,,,,,,,,,,,,,,,,,,,,,,,,,,,,,,,,,,,,,,,,,,,,,,,,,,,,,,,,,,,,,
0,1,1,43,1,,614a4c9d8172751921452626,62c538622c3cf42a78b91f1b,2022-07-06_24h23.57.254,Colour_Asymmetry_Pilot,2022.1.3,Win32,60.0024001,62c50e9c1127f2cd403a315f,,,,,,,,,,,,,,,,,,,,,,,,,,,,,,,,,,,,,,,,,,,,,,,,,,,,,,,,,,,,,,,,,,,,,,,,,,,,,,,,,,,,,,,,,,,,,,,,,,,,,,,,,,,,,,,,,,,,,,,,,,,,,,,,,,,,,,,,,,,,,,,,,,,,,,,,,,,,,,,,
0,2,2,12,1,,614a4c9d8172751921452626,62c538622c3cf42a78b91f1b,2022-07-06_24h23.57.254,Colour_Asymmetry_Pilot,2022.1.3,Win32,60.0024001,62c50e9c1127f2cd403a315f,,,,,,,,,,,,,,,,,,,,,,,,,,,,,,,,,,,,,,,,,,,,,,,,,,,,,,,,,,,,,,,,,,,,,,,,,,,,,,,,,,,,,,,,,,,,,,,,,,,,,,,,,,,,,,,,,,,,,,,,,,,,,,,,,,,,,,,,,,,,,,,,,,,,,,,,,,,,,,,,
0,3,3,55,1,,614a4c9d8172751921452626,62c538622c3cf42a78b91f1b,2022-07-06_24h23.57.254,Colour_Asymmetry_Pilot,2022.1.3,Win32,60.0024001,62c50e9c1127f2cd403a315f,,,,,,,,,,,,,,,,,,,,,,,,,,,,,,,,,,,,,,,,,,,,,,,,,,,,,,,,,,,,,,,,,,,,,,,,,,,,,,,,,,,,,,,,,,,,,,,,,,,,,,,,,,,,,,,,,,,,,,,,,,,,,,,,,,,,,,,,,,,,,,,,,,,,,,,,,,,,,,,,
0,4,4,81,1,,614a4c9d8172751921452626,62c538622c3cf42a78b91f1b,2022-07-06_24h23.57.254,Colour_Asymmetry_Pilot,2022.1.3,Win32,60.0024001,62c50e9c1127f2cd403a315f,,,,,,,,,,,,,,,,,,,,,,,,,,,,,,,,,,,,,,,,,,,,,,,,,,,,,,,,,,,,,,,,,,,,,,,,,,,,,,,,,,,,,,,,,,,,,,,,,,,,,,,,,,,,,,,,,,,,,,,,,,,,,,,,,,,,,,,,,,,,,,,,,,,,,,,,,,,,,,,,
0,5,5,5,1,,614a4c9d8172751921452626,62c538622c3cf42a78b91f1b,2022-07-06_24h23.57.254,Colour_Asymmetry_Pilot,2022.1.3,Win32,60.0024001,62c50e9c1127f2cd403a315f,,,,,,,,,,,,,,,,,,,,,,,,,,,,,,,,,,,,,,,,,,,,,,,,,,,,,,,,,,,,,,,,,,,,,,,,,,,,,,,,,,,,,,,,,,,,,,,,,,,,,,,,,,,,,,,,,,,,,,,,,,,,,,,,,,,,,,,,,,,,,,,,,,,,,,,,,,,,,,,,
0,6,6,72,1,,614a4c9d8172751921452626,62c538622c3cf42a78b91f1b,2022-07-06_24h23.57.254,Colour_Asymmetry_Pilot,2022.1.3,Win32,60.0024001,62c50e9c1127f2cd403a315f,,,,,,,,,,,,,,,,,,,,,,,,,,,,,,,,,,,,,,,,,,,,,,,,,,,,,,,,,,,,,,,,,,,,,,,,,,,,,,,,,,,,,,,,,,,,,,,,,,,,,,,,,,,,,,,,,,,,,,,,,,,,,,,,,,,,,,,,,,,,,,,,,,,,,,,,,,,,,,,,
0,7,7,70,1,,614a4c9d8172751921452626,62c538622c3cf42a78b91f1b,2022-07-06_24h23.57.254,Colour_Asymmetry_Pilot,2022.1.3,Win32,60.0024001,62c50e9c1127f2cd403a315f,,,,,,,,,,,,,,,,,,,,,,,,,,,,,,,,,,,,,,,,,,,,,,,,,,,,,,,,,,,,,,,,,,,,,,,,,,,,,,,,,,,,,,,,,,,,,,,,,,,,,,,,,,,,,,,,,,,,,,,,,,,,,,,,,,,,,,,,,,,,,,,,,,,,,,,,,,,,,,,,
0,8,8,61,1,,614a4c9d8172751921452626,62c538622c3cf42a78b91f1b,2022-07-06_24h23.57.254,Colour_Asymmetry_Pilot,2022.1.3,Win32,60.0024001,62c50e9c1127f2cd403a315f,,,,,,,,,,,,,,,,,,,,,,,,,,,,,,,,,,,,,,,,,,,,,,,,,,,,,,,,,,,,,,,,,,,,,,,,,,,,,,,,,,,,,,,,,,,,,,,,,,,,,,,,,,,,,,,,,,,,,,,,,,,,,,,,,,,,,,,,,,,,,,,,,,,,,,,,,,,,,,,,
0,9,9,6,1,,614a4c9d8172751921452626,62c538622c3cf42a78b91f1b,2022-07-06_24h23.57.254,Colour_Asymmetry_Pilot,2022.1.3,Win32,60.0024001,62c50e9c1127f2cd403a315f,,,,,,,,,,,,,,,,,,,,,,,,,,,,,,,,,,,,,,,,,,,,,,,,,,,,,,,,,,,,,,,,,,,,,,,,,,,,,,,,,,,,,,,,,,,,,,,,,,,,,,,,,,,,,,,,,,,,,,,,,,,,,,,,,,,,,,,,,,,,,,,,,,,,,,,,,,,,,,,,
0,10,10,71,1,,614a4c9d8172751921452626,62c538622c3cf42a78b91f1b,2022-07-06_24h23.57.254,Colour_Asymmetry_Pilot,2022.1.3,Win32,60.0024001,62c50e9c1127f2cd403a315f,,,,,,,,,,,,,,,,,,,,,,,,,,,,,,,,,,,,,,,,,,,,,,,,,,,,,,,,,,,,,,,,,,,,,,,,,,,,,,,,,,,,,,,,,,,,,,,,,,,,,,,,,,,,,,,,,,,,,,,,,,,,,,,,,,,,,,,,,,,,,,,,,,,,,,,,,,,,,,,,
0,11,11,45,1,,614a4c9d8172751921452626,62c538622c3cf42a78b91f1b,2022-07-06_24h23.57.254,Colour_Asymmetry_Pilot,2022.1.3,Win32,60.0024001,62c50e9c1127f2cd403a315f,,,,,,,,,,,,,,,,,,,,,,,,,,,,,,,,,,,,,,,,,,,,,,,,,,,,,,,,,,,,,,,,,,,,,,,,,,,,,,,,,,,,,,,,,,,,,,,,,,,,,,,,,,,,,,,,,,,,,,,,,,,,,,,,,,,,,,,,,,,,,,,,,,,,,,,,,,,,,,,,
0,12,12,30,1,,614a4c9d8172751921452626,62c538622c3cf42a78b91f1b,2022-07-06_24h23.57.254,Colour_Asymmetry_Pilot,2022.1.3,Win32,60.0024001,62c50e9c1127f2cd403a315f,,,,,,,,,,,,,,,,,,,,,,,,,,,,,,,,,,,,,,,,,,,,,,,,,,,,,,,,,,,,,,,,,,,,,,,,,,,,,,,,,,,,,,,,,,,,,,,,,,,,,,,,,,,,,,,,,,,,,,,,,,,,,,,,,,,,,,,,,,,,,,,,,,,,,,,,,,,,,,,,
0,13,13,63,1,,614a4c9d8172751921452626,62c538622c3cf42a78b91f1b,2022-07-06_24h23.57.254,Colour_Asymmetry_Pilot,2022.1.3,Win32,60.0024001,62c50e9c1127f2cd403a315f,,,,,,,,,,,,,,,,,,,,,,,,,,,,,,,,,,,,,,,,,,,,,,,,,,,,,,,,,,,,,,,,,,,,,,,,,,,,,,,,,,,,,,,,,,,,,,,,,,,,,,,,,,,,,,,,,,,,,,,,,,,,,,,,,,,,,,,,,,,,,,,,,,,,,,,,,,,,,,,,
0,14,14,8,1,,614a4c9d8172751921452626,62c538622c3cf42a78b91f1b,2022-07-06_24h23.57.254,Colour_Asymmetry_Pilot,2022.1.3,Win32,60.0024001,62c50e9c1127f2cd403a315f,,,,,,,,,,,,,,,,,,,,,,,,,,,,,,,,,,,,,,,,,,,,,,,,,,,,,,,,,,,,,,,,,,,,,,,,,,,,,,,,,,,,,,,,,,,,,,,,,,,,,,,,,,,,,,,,,,,,,,,,,,,,,,,,,,,,,,,,,,,,,,,,,,,,,,,,,,,,,,,,
0,15,15,87,1,,614a4c9d8172751921452626,62c538622c3cf42a78b91f1b,2022-07-06_24h23.57.254,Colour_Asymmetry_Pilot,2022.1.3,Win32,60.0024001,62c50e9c1127f2cd403a315f,,,,,,,,,,,,,,,,,,,,,,,,,,,,,,,,,,,,,,,,,,,,,,,,,,,,,,,,,,,,,,,,,,,,,,,,,,,,,,,,,,,,,,,,,,,,,,,,,,,,,,,,,,,,,,,,,,,,,,,,,,,,,,,,,,,,,,,,,,,,,,,,,,,,,,,,,,,,,,,,
0,16,16,41,1,,614a4c9d8172751921452626,62c538622c3cf42a78b91f1b,2022-07-06_24h23.57.254,Colour_Asymmetry_Pilot,2022.1.3,Win32,60.0024001,62c50e9c1127f2cd403a315f,,,,,,,,,,,,,,,,,,,,,,,,,,,,,,,,,,,,,,,,,,,,,,,,,,,,,,,,,,,,,,,,,,,,,,,,,,,,,,,,,,,,,,,,,,,,,,,,,,,,,,,,,,,,,,,,,,,,,,,,,,,,,,,,,,,,,,,,,,,,,,,,,,,,,,,,,,,,,,,,
0,17,17,47,1,,614a4c9d8172751921452626,62c538622c3cf42a78b91f1b,2022-07-06_24h23.57.254,Colour_Asymmetry_Pilot,2022.1.3,Win32,60.0024001,62c50e9c1127f2cd403a315f,,,,,,,,,,,,,,,,,,,,,,,,,,,,,,,,,,,,,,,,,,,,,,,,,,,,,,,,,,,,,,,,,,,,,,,,,,,,,,,,,,,,,,,,,,,,,,,,,,,,,,,,,,,,,,,,,,,,,,,,,,,,,,,,,,,,,,,,,,,,,,,,,,,,,,,,,,,,,,,,
0,18,18,34,1,,614a4c9d8172751921452626,62c538622c3cf42a78b91f1b,2022-07-06_24h23.57.254,Colour_Asymmetry_Pilot,2022.1.3,Win32,60.0024001,62c50e9c1127f2cd403a315f,,,,,,,,,,,,,,,,,,,,,,,,,,,,,,,,,,,,,,,,,,,,,,,,,,,,,,,,,,,,,,,,,,,,,,,,,,,,,,,,,,,,,,,,,,,,,,,,,,,,,,,,,,,,,,,,,,,,,,,,,,,,,,,,,,,,,,,,,,,,,,,,,,,,,,,,,,,,,,,,
0,19,19,44,1,,614a4c9d8172751921452626,62c538622c3cf42a78b91f1b,2022-07-06_24h23.57.254,Colour_Asymmetry_Pilot,2022.1.3,Win32,60.0024001,62c50e9c1127f2cd403a315f,,,,,,,,,,,,,,,,,,,,,,,,,,,,,,,,,,,,,,,,,,,,,,,,,,,,,,,,,,,,,,,,,,,,,,,,,,,,,,,,,,,,,,,,,,,,,,,,,,,,,,,,,,,,,,,,,,,,,,,,,,,,,,,,,,,,,,,,,,,,,,,,,,,,,,,,,,,,,,,,
0,20,20,52,1,,614a4c9d8172751921452626,62c538622c3cf42a78b91f1b,2022-07-06_24h23.57.254,Colour_Asymmetry_Pilot,2022.1.3,Win32,60.0024001,62c50e9c1127f2cd403a315f,,,,,,,,,,,,,,,,,,,,,,,,,,,,,,,,,,,,,,,,,,,,,,,,,,,,,,,,,,,,,,,,,,,,,,,,,,,,,,,,,,,,,,,,,,,,,,,,,,,,,,,,,,,,,,,,,,,,,,,,,,,,,,,,,,,,,,,,,,,,,,,,,,,,,,,,,,,,,,,,
0,21,21,33,1,,614a4c9d8172751921452626,62c538622c3cf42a78b91f1b,2022-07-06_24h23.57.254,Colour_Asymmetry_Pilot,2022.1.3,Win32,60.0024001,62c50e9c1127f2cd403a315f,,,,,,,,,,,,,,,,,,,,,,,,,,,,,,,,,,,,,,,,,,,,,,,,,,,,,,,,,,,,,,,,,,,,,,,,,,,,,,,,,,,,,,,,,,,,,,,,,,,,,,,,,,,,,,,,,,,,,,,,,,,,,,,,,,,,,,,,,,,,,,,,,,,,,,,,,,,,,,,,
0,22,22,68,1,,614a4c9d8172751921452626,62c538622c3cf42a78b91f1b,2022-07-06_24h23.57.254,Colour_Asymmetry_Pilot,2022.1.3,Win32,60.0024001,62c50e9c1127f2cd403a315f,,,,,,,,,,,,,,,,,,,,,,,,,,,,,,,,,,,,,,,,,,,,,,,,,,,,,,,,,,,,,,,,,,,,,,,,,,,,,,,,,,,,,,,,,,,,,,,,,,,,,,,,,,,,,,,,,,,,,,,,,,,,,,,,,,,,,,,,,,,,,,,,,,,,,,,,,,,,,,,,
0,23,23,9,1,,614a4c9d8172751921452626,62c538622c3cf42a78b91f1b,2022-07-06_24h23.57.254,Colour_Asymmetry_Pilot,2022.1.3,Win32,60.0024001,62c50e9c1127f2cd403a315f,,,,,,,,,,,,,,,,,,,,,,,,,,,,,,,,,,,,,,,,,,,,,,,,,,,,,,,,,,,,,,,,,,,,,,,,,,,,,,,,,,,,,,,,,,,,,,,,,,,,,,,,,,,,,,,,,,,,,,,,,,,,,,,,,,,,,,,,,,,,,,,,,,,,,,,,,,,,,,,,
0,24,24,35,1,,614a4c9d8172751921452626,62c538622c3cf42a78b91f1b,2022-07-06_24h23.57.254,Colour_Asymmetry_Pilot,2022.1.3,Win32,60.0024001,62c50e9c1127f2cd403a315f,,,,,,,,,,,,,,,,,,,,,,,,,,,,,,,,,,,,,,,,,,,,,,,,,,,,,,,,,,,,,,,,,,,,,,,,,,,,,,,,,,,,,,,,,,,,,,,,,,,,,,,,,,,,,,,,,,,,,,,,,,,,,,,,,,,,,,,,,,,,,,,,,,,,,,,,,,,,,,,,
0,25,25,38,1,,614a4c9d8172751921452626,62c538622c3cf42a78b91f1b,2022-07-06_24h23.57.254,Colour_Asymmetry_Pilot,2022.1.3,Win32,60.0024001,62c50e9c1127f2cd403a315f,,,,,,,,,,,,,,,,,,,,,,,,,,,,,,,,,,,,,,,,,,,,,,,,,,,,,,,,,,,,,,,,,,,,,,,,,,,,,,,,,,,,,,,,,,,,,,,,,,,,,,,,,,,,,,,,,,,,,,,,,,,,,,,,,,,,,,,,,,,,,,,,,,,,,,,,,,,,,,,,
0,26,26,90,1,,614a4c9d8172751921452626,62c538622c3cf42a78b91f1b,2022-07-06_24h23.57.254,Colour_Asymmetry_Pilot,2022.1.3,Win32,60.0024001,62c50e9c1127f2cd403a315f,,,,,,,,,,,,,,,,,,,,,,,,,,,,,,,,,,,,,,,,,,,,,,,,,,,,,,,,,,,,,,,,,,,,,,,,,,,,,,,,,,,,,,,,,,,,,,,,,,,,,,,,,,,,,,,,,,,,,,,,,,,,,,,,,,,,,,,,,,,,,,,,,,,,,,,,,,,,,,,,
0,27,27,29,1,,614a4c9d8172751921452626,62c538622c3cf42a78b91f1b,2022-07-06_24h23.57.254,Colour_Asymmetry_Pilot,2022.1.3,Win32,60.0024001,62c50e9c1127f2cd403a315f,,,,,,,,,,,,,,,,,,,,,,,,,,,,,,,,,,,,,,,,,,,,,,,,,,,,,,,,,,,,,,,,,,,,,,,,,,,,,,,,,,,,,,,,,,,,,,,,,,,,,,,,,,,,,,,,,,,,,,,,,,,,,,,,,,,,,,,,,,,,,,,,,,,,,,,,,,,,,,,,
0,28,28,0,1,,614a4c9d8172751921452626,62c538622c3cf42a78b91f1b,2022-07-06_24h23.57.254,Colour_Asymmetry_Pilot,2022.1.3,Win32,60.0024001,62c50e9c1127f2cd403a315f,,,,,,,,,,,,,,,,,,,,,,,,,,,,,,,,,,,,,,,,,,,,,,,,,,,,,,,,,,,,,,,,,,,,,,,,,,,,,,,,,,,,,,,,,,,,,,,,,,,,,,,,,,,,,,,,,,,,,,,,,,,,,,,,,,,,,,,,,,,,,,,,,,,,,,,,,,,,,,,,
0,29,29,17,1,,614a4c9d8172751921452626,62c538622c3cf42a78b91f1b,2022-07-06_24h23.57.254,Colour_Asymmetry_Pilot,2022.1.3,Win32,60.0024001,62c50e9c1127f2cd403a315f,,,,,,,,,,,,,,,,,,,,,,,,,,,,,,,,,,,,,,,,,,,,,,,,,,,,,,,,,,,,,,,,,,,,,,,,,,,,,,,,,,,,,,,,,,,,,,,,,,,,,,,,,,,,,,,,,,,,,,,,,,,,,,,,,,,,,,,,,,,,,,,,,,,,,,,,,,,,,,,,
0,30,30,67,1,,614a4c9d8172751921452626,62c538622c3cf42a78b91f1b,2022-07-06_24h23.57.254,Colour_Asymmetry_Pilot,2022.1.3,Win32,60.0024001,62c50e9c1127f2cd403a315f,,,,,,,,,,,,,,,,,,,,,,,,,,,,,,,,,,,,,,,,,,,,,,,,,,,,,,,,,,,,,,,,,,,,,,,,,,,,,,,,,,,,,,,,,,,,,,,,,,,,,,,,,,,,,,,,,,,,,,,,,,,,,,,,,,,,,,,,,,,,,,,,,,,,,,,,,,,,,,,,
0,31,31,91,1,,614a4c9d8172751921452626,62c538622c3cf42a78b91f1b,2022-07-06_24h23.57.254,Colour_Asymmetry_Pilot,2022.1.3,Win32,60.0024001,62c50e9c1127f2cd403a315f,,,,,,,,,,,,,,,,,,,,,,,,,,,,,,,,,,,,,,,,,,,,,,,,,,,,,,,,,,,,,,,,,,,,,,,,,,,,,,,,,,,,,,,,,,,,,,,,,,,,,,,,,,,,,,,,,,,,,,,,,,,,,,,,,,,,,,,,,,,,,,,,,,,,,,,,,,,,,,,,
0,32,32,3,1,,614a4c9d8172751921452626,62c538622c3cf42a78b91f1b,2022-07-06_24h23.57.254,Colour_Asymmetry_Pilot,2022.1.3,Win32,60.0024001,62c50e9c1127f2cd403a315f,,,,,,,,,,,,,,,,,,,,,,,,,,,,,,,,,,,,,,,,,,,,,,,,,,,,,,,,,,,,,,,,,,,,,,,,,,,,,,,,,,,,,,,,,,,,,,,,,,,,,,,,,,,,,,,,,,,,,,,,,,,,,,,,,,,,,,,,,,,,,,,,,,,,,,,,,,,,,,,,
0,33,33,82,1,,614a4c9d8172751921452626,62c538622c3cf42a78b91f1b,2022-07-06_24h23.57.254,Colour_Asymmetry_Pilot,2022.1.3,Win32,60.0024001,62c50e9c1127f2cd403a315f,,,,,,,,,,,,,,,,,,,,,,,,,,,,,,,,,,,,,,,,,,,,,,,,,,,,,,,,,,,,,,,,,,,,,,,,,,,,,,,,,,,,,,,,,,,,,,,,,,,,,,,,,,,,,,,,,,,,,,,,,,,,,,,,,,,,,,,,,,,,,,,,,,,,,,,,,,,,,,,,
0,34,34,51,1,,614a4c9d8172751921452626,62c538622c3cf42a78b91f1b,2022-07-06_24h23.57.254,Colour_Asymmetry_Pilot,2022.1.3,Win32,60.0024001,62c50e9c1127f2cd403a315f,,,,,,,,,,,,,,,,,,,,,,,,,,,,,,,,,,,,,,,,,,,,,,,,,,,,,,,,,,,,,,,,,,,,,,,,,,,,,,,,,,,,,,,,,,,,,,,,,,,,,,,,,,,,,,,,,,,,,,,,,,,,,,,,,,,,,,,,,,,,,,,,,,,,,,,,,,,,,,,,
0,35,35,11,1,,614a4c9d8172751921452626,62c538622c3cf42a78b91f1b,2022-07-06_24h23.57.254,Colour_Asymmetry_Pilot,2022.1.3,Win32,60.0024001,62c50e9c1127f2cd403a315f,,,,,,,,,,,,,,,,,,,,,,,,,,,,,,,,,,,,,,,,,,,,,,,,,,,,,,,,,,,,,,,,,,,,,,,,,,,,,,,,,,,,,,,,,,,,,,,,,,,,,,,,,,,,,,,,,,,,,,,,,,,,,,,,,,,,,,,,,,,,,,,,,,,,,,,,,,,,,,,,
0,36,36,18,1,,614a4c9d8172751921452626,62c538622c3cf42a78b91f1b,2022-07-06_24h23.57.254,Colour_Asymmetry_Pilot,2022.1.3,Win32,60.0024001,62c50e9c1127f2cd403a315f,,,,,,,,,,,,,,,,,,,,,,,,,,,,,,,,,,,,,,,,,,,,,,,,,,,,,,,,,,,,,,,,,,,,,,,,,,,,,,,,,,,,,,,,,,,,,,,,,,,,,,,,,,,,,,,,,,,,,,,,,,,,,,,,,,,,,,,,,,,,,,,,,,,,,,,,,,,,,,,,
0,37,37,16,1,,614a4c9d8172751921452626,62c538622c3cf42a78b91f1b,2022-07-06_24h23.57.254,Colour_Asymmetry_Pilot,2022.1.3,Win32,60.0024001,62c50e9c1127f2cd403a315f,,,,,,,,,,,,,,,,,,,,,,,,,,,,,,,,,,,,,,,,,,,,,,,,,,,,,,,,,,,,,,,,,,,,,,,,,,,,,,,,,,,,,,,,,,,,,,,,,,,,,,,,,,,,,,,,,,,,,,,,,,,,,,,,,,,,,,,,,,,,,,,,,,,,,,,,,,,,,,,,
0,38,38,59,1,,614a4c9d8172751921452626,62c538622c3cf42a78b91f1b,2022-07-06_24h23.57.254,Colour_Asymmetry_Pilot,2022.1.3,Win32,60.0024001,62c50e9c1127f2cd403a315f,,,,,,,,,,,,,,,,,,,,,,,,,,,,,,,,,,,,,,,,,,,,,,,,,,,,,,,,,,,,,,,,,,,,,,,,,,,,,,,,,,,,,,,,,,,,,,,,,,,,,,,,,,,,,,,,,,,,,,,,,,,,,,,,,,,,,,,,,,,,,,,,,,,,,,,,,,,,,,,,
0,39,39,88,1,,614a4c9d8172751921452626,62c538622c3cf42a78b91f1b,2022-07-06_24h23.57.254,Colour_Asymmetry_Pilot,2022.1.3,Win32,60.0024001,62c50e9c1127f2cd403a315f,,,,,,,,,,,,,,,,,,,,,,,,,,,,,,,,,,,,,,,,,,,,,,,,,,,,,,,,,,,,,,,,,,,,,,,,,,,,,,,,,,,,,,,,,,,,,,,,,,,,,,,,,,,,,,,,,,,,,,,,,,,,,,,,,,,,,,,,,,,,,,,,,,,,,,,,,,,,,,,,
0,40,40,24,1,,614a4c9d8172751921452626,62c538622c3cf42a78b91f1b,2022-07-06_24h23.57.254,Colour_Asymmetry_Pilot,2022.1.3,Win32,60.0024001,62c50e9c1127f2cd403a315f,,,,,,,,,,,,,,,,,,,,,,,,,,,,,,,,,,,,,,,,,,,,,,,,,,,,,,,,,,,,,,,,,,,,,,,,,,,,,,,,,,,,,,,,,,,,,,,,,,,,,,,,,,,,,,,,,,,,,,,,,,,,,,,,,,,,,,,,,,,,,,,,,,,,,,,,,,,,,,,,
0,41,41,62,1,,614a4c9d8172751921452626,62c538622c3cf42a78b91f1b,2022-07-06_24h23.57.254,Colour_Asymmetry_Pilot,2022.1.3,Win32,60.0024001,62c50e9c1127f2cd403a315f,,,,,,,,,,,,,,,,,,,,,,,,,,,,,,,,,,,,,,,,,,,,,,,,,,,,,,,,,,,,,,,,,,,,,,,,,,,,,,,,,,,,,,,,,,,,,,,,,,,,,,,,,,,,,,,,,,,,,,,,,,,,,,,,,,,,,,,,,,,,,,,,,,,,,,,,,,,,,,,,
0,42,42,75,1,,614a4c9d8172751921452626,62c538622c3cf42a78b91f1b,2022-07-06_24h23.57.254,Colour_Asymmetry_Pilot,2022.1.3,Win32,60.0024001,62c50e9c1127f2cd403a315f,,,,,,,,,,,,,,,,,,,,,,,,,,,,,,,,,,,,,,,,,,,,,,,,,,,,,,,,,,,,,,,,,,,,,,,,,,,,,,,,,,,,,,,,,,,,,,,,,,,,,,,,,,,,,,,,,,,,,,,,,,,,,,,,,,,,,,,,,,,,,,,,,,,,,,,,,,,,,,,,
0,43,43,22,1,,614a4c9d8172751921452626,62c538622c3cf42a78b91f1b,2022-07-06_24h23.57.254,Colour_Asymmetry_Pilot,2022.1.3,Win32,60.0024001,62c50e9c1127f2cd403a315f,,,,,,,,,,,,,,,,,,,,,,,,,,,,,,,,,,,,,,,,,,,,,,,,,,,,,,,,,,,,,,,,,,,,,,,,,,,,,,,,,,,,,,,,,,,,,,,,,,,,,,,,,,,,,,,,,,,,,,,,,,,,,,,,,,,,,,,,,,,,,,,,,,,,,,,,,,,,,,,,
0,44,44,53,1,,614a4c9d8172751921452626,62c538622c3cf42a78b91f1b,2022-07-06_24h23.57.254,Colour_Asymmetry_Pilot,2022.1.3,Win32,60.0024001,62c50e9c1127f2cd403a315f,,,,,,,,,,,,,,,,,,,,,,,,,,,,,,,,,,,,,,,,,,,,,,,,,,,,,,,,,,,,,,,,,,,,,,,,,,,,,,,,,,,,,,,,,,,,,,,,,,,,,,,,,,,,,,,,,,,,,,,,,,,,,,,,,,,,,,,,,,,,,,,,,,,,,,,,,,,,,,,,
0,45,45,26,1,,614a4c9d8172751921452626,62c538622c3cf42a78b91f1b,2022-07-06_24h23.57.254,Colour_Asymmetry_Pilot,2022.1.3,Win32,60.0024001,62c50e9c1127f2cd403a315f,,,,,,,,,,,,,,,,,,,,,,,,,,,,,,,,,,,,,,,,,,,,,,,,,,,,,,,,,,,,,,,,,,,,,,,,,,,,,,,,,,,,,,,,,,,,,,,,,,,,,,,,,,,,,,,,,,,,,,,,,,,,,,,,,,,,,,,,,,,,,,,,,,,,,,,,,,,,,,,,
0,46,46,65,1,,614a4c9d8172751921452626,62c538622c3cf42a78b91f1b,2022-07-06_24h23.57.254,Colour_Asymmetry_Pilot,2022.1.3,Win32,60.0024001,62c50e9c1127f2cd403a315f,,,,,,,,,,,,,,,,,,,,,,,,,,,,,,,,,,,,,,,,,,,,,,,,,,,,,,,,,,,,,,,,,,,,,,,,,,,,,,,,,,,,,,,,,,,,,,,,,,,,,,,,,,,,,,,,,,,,,,,,,,,,,,,,,,,,,,,,,,,,,,,,,,,,,,,,,,,,,,,,
0,47,47,73,1,,614a4c9d8172751921452626,62c538622c3cf42a78b91f1b,2022-07-06_24h23.57.254,Colour_Asymmetry_Pilot,2022.1.3,Win32,60.0024001,62c50e9c1127f2cd403a315f,,,,,,,,,,,,,,,,,,,,,,,,,,,,,,,,,,,,,,,,,,,,,,,,,,,,,,,,,,,,,,,,,,,,,,,,,,,,,,,,,,,,,,,,,,,,,,,,,,,,,,,,,,,,,,,,,,,,,,,,,,,,,,,,,,,,,,,,,,,,,,,,,,,,,,,,,,,,,,,,
0,48,48,15,1,,614a4c9d8172751921452626,62c538622c3cf42a78b91f1b,2022-07-06_24h23.57.254,Colour_Asymmetry_Pilot,2022.1.3,Win32,60.0024001,62c50e9c1127f2cd403a315f,,,,,,,,,,,,,,,,,,,,,,,,,,,,,,,,,,,,,,,,,,,,,,,,,,,,,,,,,,,,,,,,,,,,,,,,,,,,,,,,,,,,,,,,,,,,,,,,,,,,,,,,,,,,,,,,,,,,,,,,,,,,,,,,,,,,,,,,,,,,,,,,,,,,,,,,,,,,,,,,
0,49,49,49,1,,614a4c9d8172751921452626,62c538622c3cf42a78b91f1b,2022-07-06_24h23.57.254,Colour_Asymmetry_Pilot,2022.1.3,Win32,60.0024001,62c50e9c1127f2cd403a315f,,,,,,,,,,,,,,,,,,,,,,,,,,,,,,,,,,,,,,,,,,,,,,,,,,,,,,,,,,,,,,,,,,,,,,,,,,,,,,,,,,,,,,,,,,,,,,,,,,,,,,,,,,,,,,,,,,,,,,,,,,,,,,,,,,,,,,,,,,,,,,,,,,,,,,,,,,,,,,,,
0,50,50,40,1,,614a4c9d8172751921452626,62c538622c3cf42a78b91f1b,2022-07-06_24h23.57.254,Colour_Asymmetry_Pilot,2022.1.3,Win32,60.0024001,62c50e9c1127f2cd403a315f,,,,,,,,,,,,,,,,,,,,,,,,,,,,,,,,,,,,,,,,,,,,,,,,,,,,,,,,,,,,,,,,,,,,,,,,,,,,,,,,,,,,,,,,,,,,,,,,,,,,,,,,,,,,,,,,,,,,,,,,,,,,,,,,,,,,,,,,,,,,,,,,,,,,,,,,,,,,,,,,
0,51,51,19,1,,614a4c9d8172751921452626,62c538622c3cf42a78b91f1b,2022-07-06_24h23.57.254,Colour_Asymmetry_Pilot,2022.1.3,Win32,60.0024001,62c50e9c1127f2cd403a315f,,,,,,,,,,,,,,,,,,,,,,,,,,,,,,,,,,,,,,,,,,,,,,,,,,,,,,,,,,,,,,,,,,,,,,,,,,,,,,,,,,,,,,,,,,,,,,,,,,,,,,,,,,,,,,,,,,,,,,,,,,,,,,,,,,,,,,,,,,,,,,,,,,,,,,,,,,,,,,,,
0,52,52,48,1,,614a4c9d8172751921452626,62c538622c3cf42a78b91f1b,2022-07-06_24h23.57.254,Colour_Asymmetry_Pilot,2022.1.3,Win32,60.0024001,62c50e9c1127f2cd403a315f,,,,,,,,,,,,,,,,,,,,,,,,,,,,,,,,,,,,,,,,,,,,,,,,,,,,,,,,,,,,,,,,,,,,,,,,,,,,,,,,,,,,,,,,,,,,,,,,,,,,,,,,,,,,,,,,,,,,,,,,,,,,,,,,,,,,,,,,,,,,,,,,,,,,,,,,,,,,,,,,
0,53,53,83,1,,614a4c9d8172751921452626,62c538622c3cf42a78b91f1b,2022-07-06_24h23.57.254,Colour_Asymmetry_Pilot,2022.1.3,Win32,60.0024001,62c50e9c1127f2cd403a315f,,,,,,,,,,,,,,,,,,,,,,,,,,,,,,,,,,,,,,,,,,,,,,,,,,,,,,,,,,,,,,,,,,,,,,,,,,,,,,,,,,,,,,,,,,,,,,,,,,,,,,,,,,,,,,,,,,,,,,,,,,,,,,,,,,,,,,,,,,,,,,,,,,,,,,,,,,,,,,,,
0,54,54,27,1,,614a4c9d8172751921452626,62c538622c3cf42a78b91f1b,2022-07-06_24h23.57.254,Colour_Asymmetry_Pilot,2022.1.3,Win32,60.0024001,62c50e9c1127f2cd403a315f,,,,,,,,,,,,,,,,,,,,,,,,,,,,,,,,,,,,,,,,,,,,,,,,,,,,,,,,,,,,,,,,,,,,,,,,,,,,,,,,,,,,,,,,,,,,,,,,,,,,,,,,,,,,,,,,,,,,,,,,,,,,,,,,,,,,,,,,,,,,,,,,,,,,,,,,,,,,,,,,
0,55,55,46,1,,614a4c9d8172751921452626,62c538622c3cf42a78b91f1b,2022-07-06_24h23.57.254,Colour_Asymmetry_Pilot,2022.1.3,Win32,60.0024001,62c50e9c1127f2cd403a315f,,,,,,,,,,,,,,,,,,,,,,,,,,,,,,,,,,,,,,,,,,,,,,,,,,,,,,,,,,,,,,,,,,,,,,,,,,,,,,,,,,,,,,,,,,,,,,,,,,,,,,,,,,,,,,,,,,,,,,,,,,,,,,,,,,,,,,,,,,,,,,,,,,,,,,,,,,,,,,,,
0,56,56,76,1,,614a4c9d8172751921452626,62c538622c3cf42a78b91f1b,2022-07-06_24h23.57.254,Colour_Asymmetry_Pilot,2022.1.3,Win32,60.0024001,62c50e9c1127f2cd403a315f,,,,,,,,,,,,,,,,,,,,,,,,,,,,,,,,,,,,,,,,,,,,,,,,,,,,,,,,,,,,,,,,,,,,,,,,,,,,,,,,,,,,,,,,,,,,,,,,,,,,,,,,,,,,,,,,,,,,,,,,,,,,,,,,,,,,,,,,,,,,,,,,,,,,,,,,,,,,,,,,
0,57,57,2,1,,614a4c9d8172751921452626,62c538622c3cf42a78b91f1b,2022-07-06_24h23.57.254,Colour_Asymmetry_Pilot,2022.1.3,Win32,60.0024001,62c50e9c1127f2cd403a315f,,,,,,,,,,,,,,,,,,,,,,,,,,,,,,,,,,,,,,,,,,,,,,,,,,,,,,,,,,,,,,,,,,,,,,,,,,,,,,,,,,,,,,,,,,,,,,,,,,,,,,,,,,,,,,,,,,,,,,,,,,,,,,,,,,,,,,,,,,,,,,,,,,,,,,,,,,,,,,,,
0,58,58,31,1,,614a4c9d8172751921452626,62c538622c3cf42a78b91f1b,2022-07-06_24h23.57.254,Colour_Asymmetry_Pilot,2022.1.3,Win32,60.0024001,62c50e9c1127f2cd403a315f,,,,,,,,,,,,,,,,,,,,,,,,,,,,,,,,,,,,,,,,,,,,,,,,,,,,,,,,,,,,,,,,,,,,,,,,,,,,,,,,,,,,,,,,,,,,,,,,,,,,,,,,,,,,,,,,,,,,,,,,,,,,,,,,,,,,,,,,,,,,,,,,,,,,,,,,,,,,,,,,
0,59,59,14,1,,614a4c9d8172751921452626,62c538622c3cf42a78b91f1b,2022-07-06_24h23.57.254,Colour_Asymmetry_Pilot,2022.1.3,Win32,60.0024001,62c50e9c1127f2cd403a315f,,,,,,,,,,,,,,,,,,,,,,,,,,,,,,,,,,,,,,,,,,,,,,,,,,,,,,,,,,,,,,,,,,,,,,,,,,,,,,,,,,,,,,,,,,,,,,,,,,,,,,,,,,,,,,,,,,,,,,,,,,,,,,,,,,,,,,,,,,,,,,,,,,,,,,,,,,,,,,,,
0,60,60,66,1,,614a4c9d8172751921452626,62c538622c3cf42a78b91f1b,2022-07-06_24h23.57.254,Colour_Asymmetry_Pilot,2022.1.3,Win32,60.0024001,62c50e9c1127f2cd403a315f,,,,,,,,,,,,,,,,,,,,,,,,,,,,,,,,,,,,,,,,,,,,,,,,,,,,,,,,,,,,,,,,,,,,,,,,,,,,,,,,,,,,,,,,,,,,,,,,,,,,,,,,,,,,,,,,,,,,,,,,,,,,,,,,,,,,,,,,,,,,,,,,,,,,,,,,,,,,,,,,
0,61,61,78,1,,614a4c9d8172751921452626,62c538622c3cf42a78b91f1b,2022-07-06_24h23.57.254,Colour_Asymmetry_Pilot,2022.1.3,Win32,60.0024001,62c50e9c1127f2cd403a315f,,,,,,,,,,,,,,,,,,,,,,,,,,,,,,,,,,,,,,,,,,,,,,,,,,,,,,,,,,,,,,,,,,,,,,,,,,,,,,,,,,,,,,,,,,,,,,,,,,,,,,,,,,,,,,,,,,,,,,,,,,,,,,,,,,,,,,,,,,,,,,,,,,,,,,,,,,,,,,,,
0,62,62,57,1,,614a4c9d8172751921452626,62c538622c3cf42a78b91f1b,2022-07-06_24h23.57.254,Colour_Asymmetry_Pilot,2022.1.3,Win32,60.0024001,62c50e9c1127f2cd403a315f,,,,,,,,,,,,,,,,,,,,,,,,,,,,,,,,,,,,,,,,,,,,,,,,,,,,,,,,,,,,,,,,,,,,,,,,,,,,,,,,,,,,,,,,,,,,,,,,,,,,,,,,,,,,,,,,,,,,,,,,,,,,,,,,,,,,,,,,,,,,,,,,,,,,,,,,,,,,,,,,
0,63,63,39,1,,614a4c9d8172751921452626,62c538622c3cf42a78b91f1b,2022-07-06_24h23.57.254,Colour_Asymmetry_Pilot,2022.1.3,Win32,60.0024001,62c50e9c1127f2cd403a315f,,,,,,,,,,,,,,,,,,,,,,,,,,,,,,,,,,,,,,,,,,,,,,,,,,,,,,,,,,,,,,,,,,,,,,,,,,,,,,,,,,,,,,,,,,,,,,,,,,,,,,,,,,,,,,,,,,,,,,,,,,,,,,,,,,,,,,,,,,,,,,,,,,,,,,,,,,,,,,,,
0,64,64,50,1,,614a4c9d8172751921452626,62c538622c3cf42a78b91f1b,2022-07-06_24h23.57.254,Colour_Asymmetry_Pilot,2022.1.3,Win32,60.0024001,62c50e9c1127f2cd403a315f,,,,,,,,,,,,,,,,,,,,,,,,,,,,,,,,,,,,,,,,,,,,,,,,,,,,,,,,,,,,,,,,,,,,,,,,,,,,,,,,,,,,,,,,,,,,,,,,,,,,,,,,,,,,,,,,,,,,,,,,,,,,,,,,,,,,,,,,,,,,,,,,,,,,,,,,,,,,,,,,
0,65,65,56,1,,614a4c9d8172751921452626,62c538622c3cf42a78b91f1b,2022-07-06_24h23.57.254,Colour_Asymmetry_Pilot,2022.1.3,Win32,60.0024001,62c50e9c1127f2cd403a315f,,,,,,,,,,,,,,,,,,,,,,,,,,,,,,,,,,,,,,,,,,,,,,,,,,,,,,,,,,,,,,,,,,,,,,,,,,,,,,,,,,,,,,,,,,,,,,,,,,,,,,,,,,,,,,,,,,,,,,,,,,,,,,,,,,,,,,,,,,,,,,,,,,,,,,,,,,,,,,,,
0,66,66,25,1,,614a4c9d8172751921452626,62c538622c3cf42a78b91f1b,2022-07-06_24h23.57.254,Colour_Asymmetry_Pilot,2022.1.3,Win32,60.0024001,62c50e9c1127f2cd403a315f,,,,,,,,,,,,,,,,,,,,,,,,,,,,,,,,,,,,,,,,,,,,,,,,,,,,,,,,,,,,,,,,,,,,,,,,,,,,,,,,,,,,,,,,,,,,,,,,,,,,,,,,,,,,,,,,,,,,,,,,,,,,,,,,,,,,,,,,,,,,,,,,,,,,,,,,,,,,,,,,
0,67,67,13,1,,614a4c9d8172751921452626,62c538622c3cf42a78b91f1b,2022-07-06_24h23.57.254,Colour_Asymmetry_Pilot,2022.1.3,Win32,60.0024001,62c50e9c1127f2cd403a315f,,,,,,,,,,,,,,,,,,,,,,,,,,,,,,,,,,,,,,,,,,,,,,,,,,,,,,,,,,,,,,,,,,,,,,,,,,,,,,,,,,,,,,,,,,,,,,,,,,,,,,,,,,,,,,,,,,,,,,,,,,,,,,,,,,,,,,,,,,,,,,,,,,,,,,,,,,,,,,,,
0,68,68,77,1,,614a4c9d8172751921452626,62c538622c3cf42a78b91f1b,2022-07-06_24h23.57.254,Colour_Asymmetry_Pilot,2022.1.3,Win32,60.0024001,62c50e9c1127f2cd403a315f,,,,,,,,,,,,,,,,,,,,,,,,,,,,,,,,,,,,,,,,,,,,,,,,,,,,,,,,,,,,,,,,,,,,,,,,,,,,,,,,,,,,,,,,,,,,,,,,,,,,,,,,,,,,,,,,,,,,,,,,,,,,,,,,,,,,,,,,,,,,,,,,,,,,,,,,,,,,,,,,
0,69,69,23,1,,614a4c9d8172751921452626,62c538622c3cf42a78b91f1b,2022-07-06_24h23.57.254,Colour_Asymmetry_Pilot,2022.1.3,Win32,60.0024001,62c50e9c1127f2cd403a315f,,,,,,,,,,,,,,,,,,,,,,,,,,,,,,,,,,,,,,,,,,,,,,,,,,,,,,,,,,,,,,,,,,,,,,,,,,,,,,,,,,,,,,,,,,,,,,,,,,,,,,,,,,,,,,,,,,,,,,,,,,,,,,,,,,,,,,,,,,,,,,,,,,,,,,,,,,,,,,,,
0,70,70,28,1,,614a4c9d8172751921452626,62c538622c3cf42a78b91f1b,2022-07-06_24h23.57.254,Colour_Asymmetry_Pilot,2022.1.3,Win32,60.0024001,62c50e9c1127f2cd403a315f,,,,,,,,,,,,,,,,,,,,,,,,,,,,,,,,,,,,,,,,,,,,,,,,,,,,,,,,,,,,,,,,,,,,,,,,,,,,,,,,,,,,,,,,,,,,,,,,,,,,,,,,,,,,,,,,,,,,,,,,,,,,,,,,,,,,,,,,,,,,,,,,,,,,,,,,,,,,,,,,
0,71,71,21,1,,614a4c9d8172751921452626,62c538622c3cf42a78b91f1b,2022-07-06_24h23.57.254,Colour_Asymmetry_Pilot,2022.1.3,Win32,60.0024001,62c50e9c1127f2cd403a315f,,,,,,,,,,,,,,,,,,,,,,,,,,,,,,,,,,,,,,,,,,,,,,,,,,,,,,,,,,,,,,,,,,,,,,,,,,,,,,,,,,,,,,,,,,,,,,,,,,,,,,,,,,,,,,,,,,,,,,,,,,,,,,,,,,,,,,,,,,,,,,,,,,,,,,,,,,,,,,,,
0,72,72,86,1,,614a4c9d8172751921452626,62c538622c3cf42a78b91f1b,2022-07-06_24h23.57.254,Colour_Asymmetry_Pilot,2022.1.3,Win32,60.0024001,62c50e9c1127f2cd403a315f,,,,,,,,,,,,,,,,,,,,,,,,,,,,,,,,,,,,,,,,,,,,,,,,,,,,,,,,,,,,,,,,,,,,,,,,,,,,,,,,,,,,,,,,,,,,,,,,,,,,,,,,,,,,,,,,,,,,,,,,,,,,,,,,,,,,,,,,,,,,,,,,,,,,,,,,,,,,,,,,
0,73,73,74,1,,614a4c9d8172751921452626,62c538622c3cf42a78b91f1b,2022-07-06_24h23.57.254,Colour_Asymmetry_Pilot,2022.1.3,Win32,60.0024001,62c50e9c1127f2cd403a315f,,,,,,,,,,,,,,,,,,,,,,,,,,,,,,,,,,,,,,,,,,,,,,,,,,,,,,,,,,,,,,,,,,,,,,,,,,,,,,,,,,,,,,,,,,,,,,,,,,,,,,,,,,,,,,,,,,,,,,,,,,,,,,,,,,,,,,,,,,,,,,,,,,,,,,,,,,,,,,,,
0,74,74,4,1,,614a4c9d8172751921452626,62c538622c3cf42a78b91f1b,2022-07-06_24h23.57.254,Colour_Asymmetry_Pilot,2022.1.3,Win32,60.0024001,62c50e9c1127f2cd403a315f,,,,,,,,,,,,,,,,,,,,,,,,,,,,,,,,,,,,,,,,,,,,,,,,,,,,,,,,,,,,,,,,,,,,,,,,,,,,,,,,,,,,,,,,,,,,,,,,,,,,,,,,,,,,,,,,,,,,,,,,,,,,,,,,,,,,,,,,,,,,,,,,,,,,,,,,,,,,,,,,
0,75,75,69,1,,614a4c9d8172751921452626,62c538622c3cf42a78b91f1b,2022-07-06_24h23.57.254,Colour_Asymmetry_Pilot,2022.1.3,Win32,60.0024001,62c50e9c1127f2cd403a315f,,,,,,,,,,,,,,,,,,,,,,,,,,,,,,,,,,,,,,,,,,,,,,,,,,,,,,,,,,,,,,,,,,,,,,,,,,,,,,,,,,,,,,,,,,,,,,,,,,,,,,,,,,,,,,,,,,,,,,,,,,,,,,,,,,,,,,,,,,,,,,,,,,,,,,,,,,,,,,,,
0,76,76,1,1,,614a4c9d8172751921452626,62c538622c3cf42a78b91f1b,2022-07-06_24h23.57.254,Colour_Asymmetry_Pilot,2022.1.3,Win32,60.0024001,62c50e9c1127f2cd403a315f,,,,,,,,,,,,,,,,,,,,,,,,,,,,,,,,,,,,,,,,,,,,,,,,,,,,,,,,,,,,,,,,,,,,,,,,,,,,,,,,,,,,,,,,,,,,,,,,,,,,,,,,,,,,,,,,,,,,,,,,,,,,,,,,,,,,,,,,,,,,,,,,,,,,,,,,,,,,,,,,
0,77,77,89,1,,614a4c9d8172751921452626,62c538622c3cf42a78b91f1b,2022-07-06_24h23.57.254,Colour_Asymmetry_Pilot,2022.1.3,Win32,60.0024001,62c50e9c1127f2cd403a315f,,,,,,,,,,,,,,,,,,,,,,,,,,,,,,,,,,,,,,,,,,,,,,,,,,,,,,,,,,,,,,,,,,,,,,,,,,,,,,,,,,,,,,,,,,,,,,,,,,,,,,,,,,,,,,,,,,,,,,,,,,,,,,,,,,,,,,,,,,,,,,,,,,,,,,,,,,,,,,,,
0,78,78,36,1,,614a4c9d8172751921452626,62c538622c3cf42a78b91f1b,2022-07-06_24h23.57.254,Colour_Asymmetry_Pilot,2022.1.3,Win32,60.0024001,62c50e9c1127f2cd403a315f,,,,,,,,,,,,,,,,,,,,,,,,,,,,,,,,,,,,,,,,,,,,,,,,,,,,,,,,,,,,,,,,,,,,,,,,,,,,,,,,,,,,,,,,,,,,,,,,,,,,,,,,,,,,,,,,,,,,,,,,,,,,,,,,,,,,,,,,,,,,,,,,,,,,,,,,,,,,,,,,
0,79,79,10,1,,614a4c9d8172751921452626,62c538622c3cf42a78b91f1b,2022-07-06_24h23.57.254,Colour_Asymmetry_Pilot,2022.1.3,Win32,60.0024001,62c50e9c1127f2cd403a315f,,,,,,,,,,,,,,,,,,,,,,,,,,,,,,,,,,,,,,,,,,,,,,,,,,,,,,,,,,,,,,,,,,,,,,,,,,,,,,,,,,,,,,,,,,,,,,,,,,,,,,,,,,,,,,,,,,,,,,,,,,,,,,,,,,,,,,,,,,,,,,,,,,,,,,,,,,,,,,,,
0,80,80,80,1,,614a4c9d8172751921452626,62c538622c3cf42a78b91f1b,2022-07-06_24h23.57.254,Colour_Asymmetry_Pilot,2022.1.3,Win32,60.0024001,62c50e9c1127f2cd403a315f,,,,,,,,,,,,,,,,,,,,,,,,,,,,,,,,,,,,,,,,,,,,,,,,,,,,,,,,,,,,,,,,,,,,,,,,,,,,,,,,,,,,,,,,,,,,,,,,,,,,,,,,,,,,,,,,,,,,,,,,,,,,,,,,,,,,,,,,,,,,,,,,,,,,,,,,,,,,,,,,
0,81,81,20,1,,614a4c9d8172751921452626,62c538622c3cf42a78b91f1b,2022-07-06_24h23.57.254,Colour_Asymmetry_Pilot,2022.1.3,Win32,60.0024001,62c50e9c1127f2cd403a315f,,,,,,,,,,,,,,,,,,,,,,,,,,,,,,,,,,,,,,,,,,,,,,,,,,,,,,,,,,,,,,,,,,,,,,,,,,,,,,,,,,,,,,,,,,,,,,,,,,,,,,,,,,,,,,,,,,,,,,,,,,,,,,,,,,,,,,,,,,,,,,,,,,,,,,,,,,,,,,,,
0,82,82,7,1,,614a4c9d8172751921452626,62c538622c3cf42a78b91f1b,2022-07-06_24h23.57.254,Colour_Asymmetry_Pilot,2022.1.3,Win32,60.0024001,62c50e9c1127f2cd403a315f,,,,,,,,,,,,,,,,,,,,,,,,,,,,,,,,,,,,,,,,,,,,,,,,,,,,,,,,,,,,,,,,,,,,,,,,,,,,,,,,,,,,,,,,,,,,,,,,,,,,,,,,,,,,,,,,,,,,,,,,,,,,,,,,,,,,,,,,,,,,,,,,,,,,,,,,,,,,,,,,
0,83,83,79,1,,614a4c9d8172751921452626,62c538622c3cf42a78b91f1b,2022-07-06_24h23.57.254,Colour_Asymmetry_Pilot,2022.1.3,Win32,60.0024001,62c50e9c1127f2cd403a315f,,,,,,,,,,,,,,,,,,,,,,,,,,,,,,,,,,,,,,,,,,,,,,,,,,,,,,,,,,,,,,,,,,,,,,,,,,,,,,,,,,,,,,,,,,,,,,,,,,,,,,,,,,,,,,,,,,,,,,,,,,,,,,,,,,,,,,,,,,,,,,,,,,,,,,,,,,,,,,,,
0,84,84,58,1,,614a4c9d8172751921452626,62c538622c3cf42a78b91f1b,2022-07-06_24h23.57.254,Colour_Asymmetry_Pilot,2022.1.3,Win32,60.0024001,62c50e9c1127f2cd403a315f,,,,,,,,,,,,,,,,,,,,,,,,,,,,,,,,,,,,,,,,,,,,,,,,,,,,,,,,,,,,,,,,,,,,,,,,,,,,,,,,,,,,,,,,,,,,,,,,,,,,,,,,,,,,,,,,,,,,,,,,,,,,,,,,,,,,,,,,,,,,,,,,,,,,,,,,,,,,,,,,
0,85,85,85,1,,614a4c9d8172751921452626,62c538622c3cf42a78b91f1b,2022-07-06_24h23.57.254,Colour_Asymmetry_Pilot,2022.1.3,Win32,60.0024001,62c50e9c1127f2cd403a315f,,,,,,,,,,,,,,,,,,,,,,,,,,,,,,,,,,,,,,,,,,,,,,,,,,,,,,,,,,,,,,,,,,,,,,,,,,,,,,,,,,,,,,,,,,,,,,,,,,,,,,,,,,,,,,,,,,,,,,,,,,,,,,,,,,,,,,,,,,,,,,,,,,,,,,,,,,,,,,,,
0,86,86,37,1,,614a4c9d8172751921452626,62c538622c3cf42a78b91f1b,2022-07-06_24h23.57.254,Colour_Asymmetry_Pilot,2022.1.3,Win32,60.0024001,62c50e9c1127f2cd403a315f,,,,,,,,,,,,,,,,,,,,,,,,,,,,,,,,,,,,,,,,,,,,,,,,,,,,,,,,,,,,,,,,,,,,,,,,,,,,,,,,,,,,,,,,,,,,,,,,,,,,,,,,,,,,,,,,,,,,,,,,,,,,,,,,,,,,,,,,,,,,,,,,,,,,,,,,,,,,,,,,
0,87,87,42,1,,614a4c9d8172751921452626,62c538622c3cf42a78b91f1b,2022-07-06_24h23.57.254,Colour_Asymmetry_Pilot,2022.1.3,Win32,60.0024001,62c50e9c1127f2cd403a315f,,,,,,,,,,,,,,,,,,,,,,,,,,,,,,,,,,,,,,,,,,,,,,,,,,,,,,,,,,,,,,,,,,,,,,,,,,,,,,,,,,,,,,,,,,,,,,,,,,,,,,,,,,,,,,,,,,,,,,,,,,,,,,,,,,,,,,,,,,,,,,,,,,,,,,,,,,,,,,,,
0,88,88,64,1,,614a4c9d8172751921452626,62c538622c3cf42a78b91f1b,2022-07-06_24h23.57.254,Colour_Asymmetry_Pilot,2022.1.3,Win32,60.0024001,62c50e9c1127f2cd403a315f,,,,,,,,,,,,,,,,,,,,,,,,,,,,,,,,,,,,,,,,,,,,,,,,,,,,,,,,,,,,,,,,,,,,,,,,,,,,,,,,,,,,,,,,,,,,,,,,,,,,,,,,,,,,,,,,,,,,,,,,,,,,,,,,,,,,,,,,,,,,,,,,,,,,,,,,,,,,,,,,
0,89,89,54,1,,614a4c9d8172751921452626,62c538622c3cf42a78b91f1b,2022-07-06_24h23.57.254,Colour_Asymmetry_Pilot,2022.1.3,Win32,60.0024001,62c50e9c1127f2cd403a315f,,,,,,,,,,,,,,,,,,,,,,,,,,,,,,,,,,,,,,,,,,,,,,,,,,,,,,,,,,,,,,,,,,,,,,,,,,,,,,,,,,,,,,,,,,,,,,,,,,,,,,,,,,,,,,,,,,,,,,,,,,,,,,,,,,,,,,,,,,,,,,,,,,,,,,,,,,,,,,,,
0,90,90,32,1,,614a4c9d8172751921452626,62c538622c3cf42a78b91f1b,2022-07-06_24h23.57.254,Colour_Asymmetry_Pilot,2022.1.3,Win32,60.0024001,62c50e9c1127f2cd403a315f,,,,,,,,,,,,,,,,,,,,,,,,,,,,,,,,,,,,,,,,,,,,,,,,,,,,,,,,,,,,,,,,,,,,,,,,,,,,,,,,,,,,,,,,,,,,,,,,,,,,,,,,,,,,,,,,,,,,,,,,,,,,,,,,,,,,,,,,,,,,,,,,,,,,,,,,,,,,,,,,
0,91,91,60,1,,614a4c9d8172751921452626,62c538622c3cf42a78b91f1b,2022-07-06_24h23.57.254,Colour_Asymmetry_Pilot,2022.1.3,Win32,60.0024001,62c50e9c1127f2cd403a315f,,,,,,,,,,,,,,,,,,,,,,,,,,,,,,,,,,,,,,,,,,,,,,,,,,,,,,,,,,,,,,,,,,,,,,,,,,,,,,,,,,,,,,,,,,,,,,,,,,,,,,,,,,,,,,,,,,,,,,,,,,,,,,,,,,,,,,,,,,,,,,,,,,,,,,,,,,,,,,,,
0,92,92,92,1,,614a4c9d8172751921452626,62c538622c3cf42a78b91f1b,2022-07-06_24h23.57.254,Colour_Asymmetry_Pilot,2022.1.3,Win32,60.0024001,62c50e9c1127f2cd403a315f,,,,,,,,,,,,,,,,,,,,,,,,,,,,,,,,,,,,,,,,,,,,,,,,,,,,,,,,,,,,,,,,,,,,,,,,,,,,,,,,,,,,,,,,,,,,,,,,,,,,,,,,,,,,,,,,,,,,,,,,,,,,,,,,,,,,,,,,,,,,,,,,,,,,,,,,,,,,,,,,
,,,,,,614a4c9d8172751921452626,62c538622c3cf42a78b91f1b,2022-07-06_24h23.57.254,Colour_Asymmetry_Pilot,2022.1.3,Win32,60.0024001,62c50e9c1127f2cd403a315f,0,0,0,13,1,threefour,,,,,,,,,,,,,,,,,,,,,,,,,,,,,,,,,,,,,,,,,,,,,,,,,,,,,,,,,,,,,,,,,,,,,,,,,,,,,,,,,,,,,,,,,,,,,,,,,,,,,,,,,,,,,,,,,,,,,,,,,,,,,,,,,,,,,,,,,,,,,,,,,,,,,,,,,,
,,,,,,614a4c9d8172751921452626,62c538622c3cf42a78b91f1b,2022-07-06_24h23.57.254,Colour_Asymmetry_Pilot,2022.1.3,Win32,60.0024001,62c50e9c1127f2cd403a315f,0,1,1,39,1,fourthree,,,,,,,,,,,,,,,,,,,,,,,,,,,,,,,,,,,,,,,,,,,,,,,,,,,,,,,,,,,,,,,,,,,,,,,,,,,,,,,,,,,,,,,,,,,,,,,,,,,,,,,,,,,,,,,,,,,,,,,,,,,,,,,,,,,,,,,,,,,,,,,,,,,,,,,,,,
,,,,,,614a4c9d8172751921452626,62c538622c3cf42a78b91f1b,2022-07-06_24h23.57.254,Colour_Asymmetry_Pilot,2022.1.3,Win32,60.0024001,62c50e9c1127f2cd403a315f,0,2,2,80,1,onetwo,,,,,,,,,,,,,,,,,,,,,,,,,,,,,,,,,,,,,,,,,,,,,,,,,,,,,,,,,,,,,,,,,,,,,,,,,,,,,,,,,,,,,,,,,,,,,,,,,,,,,,,,,,,,,,,,,,,,,,,,,,,,,,,,,,,,,,,,,,,,,,,,,,,,,,,,,,
,,,,,,614a4c9d8172751921452626,62c538622c3cf42a78b91f1b,2022-07-06_24h23.57.254,Colour_Asymmetry_Pilot,2022.1.3,Win32,60.0024001,62c50e9c1127f2cd403a315f,0,3,3,112,1,onetwo,,,,,,,,,,,,,,,,,,,,,,,,,,,,,,,,,,,,,,,,,,,,,,,,,,,,,,,,,,,,,,,,,,,,,,,,,,,,,,,,,,,,,,,,,,,,,,,,,,,,,,,,,,,,,,,,,,,,,,,,,,,,,,,,,,,,,,,,,,,,,,,,,,,,,,,,,,
,,,,,,614a4c9d8172751921452626,62c538622c3cf42a78b91f1b,2022-07-06_24h23.57.254,Colour_Asymmetry_Pilot,2022.1.3,Win32,60.0024001,62c50e9c1127f2cd403a315f,0,4,4,57,1,onethree,,,,,,,,,,,,,,,,,,,,,,,,,,,,,,,,,,,,,,,,,,,,,,,,,,,,,,,,,,,,,,,,,,,,,,,,,,,,,,,,,,,,,,,,,,,,,,,,,,,,,,,,,,,,,,,,,,,,,,,,,,,,,,,,,,,,,,,,,,,,,,,,,,,,,,,,,,
,,,,,,614a4c9d8172751921452626,62c538622c3cf42a78b91f1b,2022-07-06_24h23.57.254,Colour_Asymmetry_Pilot,2022.1.3,Win32,60.0024001,62c50e9c1127f2cd403a315f,0,5,5,104,1,onetwo,,,,,,,,,,,,,,,,,,,,,,,,,,,,,,,,,,,,,,,,,,,,,,,,,,,,,,,,,,,,,,,,,,,,,,,,,,,,,,,,,,,,,,,,,,,,,,,,,,,,,,,,,,,,,,,,,,,,,,,,,,,,,,,,,,,,,,,,,,,,,,,,,,,,,,,,,,
,,,,,,614a4c9d8172751921452626,62c538622c3cf42a78b91f1b,2022-07-06_24h23.57.254,Colour_Asymmetry_Pilot,2022.1.3,Win32,60.0024001,62c50e9c1127f2cd403a315f,0,6,6,40,1,onetwo,,,,,,,,,,,,,,,,,,,,,,,,,,,,,,,,,,,,,,,,,,,,,,,,,,,,,,,,,,,,,,,,,,,,,,,,,,,,,,,,,,,,,,,,,,,,,,,,,,,,,,,,,,,,,,,,,,,,,,,,,,,,,,,,,,,,,,,,,,,,,,,,,,,,,,,,,,
,,,,,,614a4c9d8172751921452626,62c538622c3cf42a78b91f1b,2022-07-06_24h23.57.254,Colour_Asymmetry_Pilot,2022.1.3,Win32,60.0024001,62c50e9c1127f2cd403a315f,0,7,7,6,1,fourtwo,,,,,,,,,,,,,,,,,,,,,,,,,,,,,,,,,,,,,,,,,,,,,,,,,,,,,,,,,,,,,,,,,,,,,,,,,,,,,,,,,,,,,,,,,,,,,,,,,,,,,,,,,,,,,,,,,,,,,,,,,,,,,,,,,,,,,,,,,,,,,,,,,,,,,,,,,,
,,,,,,614a4c9d8172751921452626,62c538622c3cf42a78b91f1b,2022-07-06_24h23.57.254,Colour_Asymmetry_Pilot,2022.1.3,Win32,60.0024001,62c50e9c1127f2cd403a315f,0,8,8,138,1,twoone,,,,,,,,,,,,,,,,,,,,,,,,,,,,,,,,,,,,,,,,,,,,,,,,,,,,,,,,,,,,,,,,,,,,,,,,,,,,,,,,,,,,,,,,,,,,,,,,,,,,,,,,,,,,,,,,,,,,,,,,,,,,,,,,,,,,,,,,,,,,,,,,,,,,,,,,,,
,,,,,,614a4c9d8172751921452626,62c538622c3cf42a78b91f1b,2022-07-06_24h23.57.254,Colour_Asymmetry_Pilot,2022.1.3,Win32,60.0024001,62c50e9c1127f2cd403a315f,0,9,9,91,1,twofour,,,,,,,,,,,,,,,,,,,,,,,,,,,,,,,,,,,,,,,,,,,,,,,,,,,,,,,,,,,,,,,,,,,,,,,,,,,,,,,,,,,,,,,,,,,,,,,,,,,,,,,,,,,,,,,,,,,,,,,,,,,,,,,,,,,,,,,,,,,,,,,,,,,,,,,,,,
,,,,,,614a4c9d8172751921452626,62c538622c3cf42a78b91f1b,2022-07-06_24h23.57.254,Colour_Asymmetry_Pilot,2022.1.3,Win32,60.0024001,62c50e9c1127f2cd403a315f,0,10,10,16,1,onetwo,,,,,,,,,,,,,,,,,,,,,,,,,,,,,,,,,,,,,,,,,,,,,,,,,,,,,,,,,,,,,,,,,,,,,,,,,,,,,,,,,,,,,,,,,,,,,,,,,,,,,,,,,,,,,,,,,,,,,,,,,,,,,,,,,,,,,,,,,,,,,,,,,,,,,,,,,,
,,,,,,614a4c9d8172751921452626,62c538622c3cf42a78b91f1b,2022-07-06_24h23.57.254,Colour_Asymmetry_Pilot,2022.1.3,Win32,60.0024001,62c50e9c1127f2cd403a315f,0,11,11,72,1,onetwo,,,,,,,,,,,,,,,,,,,,,,,,,,,,,,,,,,,,,,,,,,,,,,,,,,,,,,,,,,,,,,,,,,,,,,,,,,,,,,,,,,,,,,,,,,,,,,,,,,,,,,,,,,,,,,,,,,,,,,,,,,,,,,,,,,,,,,,,,,,,,,,,,,,,,,,,,,
,,,,,,614a4c9d8172751921452626,62c538622c3cf42a78b91f1b,2022-07-06_24h23.57.254,Colour_Asymmetry_Pilot,2022.1.3,Win32,60.0024001,62c50e9c1127f2cd403a315f,0,12,12,53,1,threefour,,,,,,,,,,,,,,,,,,,,,,,,,,,,,,,,,,,,,,,,,,,,,,,,,,,,,,,,,,,,,,,,,,,,,,,,,,,,,,,,,,,,,,,,,,,,,,,,,,,,,,,,,,,,,,,,,,,,,,,,,,,,,,,,,,,,,,,,,,,,,,,,,,,,,,,,,,
,,,,,,614a4c9d8172751921452626,62c538622c3cf42a78b91f1b,2022-07-06_24h23.57.254,Colour_Asymmetry_Pilot,2022.1.3,Win32,60.0024001,62c50e9c1127f2cd403a315f,0,13,13,155,1,twofour,,,,,,,,,,,,,,,,,,,,,,,,,,,,,,,,,,,,,,,,,,,,,,,,,,,,,,,,,,,,,,,,,,,,,,,,,,,,,,,,,,,,,,,,,,,,,,,,,,,,,,,,,,,,,,,,,,,,,,,,,,,,,,,,,,,,,,,,,,,,,,,,,,,,,,,,,,
,,,,,,614a4c9d8172751921452626,62c538622c3cf42a78b91f1b,2022-07-06_24h23.57.254,Colour_Asymmetry_Pilot,2022.1.3,Win32,60.0024001,62c50e9c1127f2cd403a315f,0,14,14,14,1,fourtwo,,,,,,,,,,,,,,,,,,,,,,,,,,,,,,,,,,,,,,,,,,,,,,,,,,,,,,,,,,,,,,,,,,,,,,,,,,,,,,,,,,,,,,,,,,,,,,,,,,,,,,,,,,,,,,,,,,,,,,,,,,,,,,,,,,,,,,,,,,,,,,,,,,,,,,,,,,
,,,,,,614a4c9d8172751921452626,62c538622c3cf42a78b91f1b,2022-07-06_24h23.57.254,Colour_Asymmetry_Pilot,2022.1.3,Win32,60.0024001,62c50e9c1127f2cd403a315f,0,15,15,128,1,onetwo,,,,,,,,,,,,,,,,,,,,,,,,,,,,,,,,,,,,,,,,,,,,,,,,,,,,,,,,,,,,,,,,,,,,,,,,,,,,,,,,,,,,,,,,,,,,,,,,,,,,,,,,,,,,,,,,,,,,,,,,,,,,,,,,,,,,,,,,,,,,,,,,,,,,,,,,,,
,,,,,,614a4c9d8172751921452626,62c538622c3cf42a78b91f1b,2022-07-06_24h23.57.254,Colour_Asymmetry_Pilot,2022.1.3,Win32,60.0024001,62c50e9c1127f2cd403a315f,0,16,16,109,1,threefour,,,,,,,,,,,,,,,,,,,,,,,,,,,,,,,,,,,,,,,,,,,,,,,,,,,,,,,,,,,,,,,,,,,,,,,,,,,,,,,,,,,,,,,,,,,,,,,,,,,,,,,,,,,,,,,,,,,,,,,,,,,,,,,,,,,,,,,,,,,,,,,,,,,,,,,,,,
,,,,,,614a4c9d8172751921452626,62c538622c3cf42a78b91f1b,2022-07-06_24h23.57.254,Colour_Asymmetry_Pilot,2022.1.3,Win32,60.0024001,62c50e9c1127f2cd403a315f,0,17,17,150,1,fourtwo,,,,,,,,,,,,,,,,,,,,,,,,,,,,,,,,,,,,,,,,,,,,,,,,,,,,,,,,,,,,,,,,,,,,,,,,,,,,,,,,,,,,,,,,,,,,,,,,,,,,,,,,,,,,,,,,,,,,,,,,,,,,,,,,,,,,,,,,,,,,,,,,,,,,,,,,,,
,,,,,,614a4c9d8172751921452626,62c538622c3cf42a78b91f1b,2022-07-06_24h23.57.254,Colour_Asymmetry_Pilot,2022.1.3,Win32,60.0024001,62c50e9c1127f2cd403a315f,0,18,18,102,1,fourtwo,,,,,,,,,,,,,,,,,,,,,,,,,,,,,,,,,,,,,,,,,,,,,,,,,,,,,,,,,,,,,,,,,,,,,,,,,,,,,,,,,,,,,,,,,,,,,,,,,,,,,,,,,,,,,,,,,,,,,,,,,,,,,,,,,,,,,,,,,,,,,,,,,,,,,,,,,,
,,,,,,614a4c9d8172751921452626,62c538622c3cf42a78b91f1b,2022-07-06_24h23.57.254,Colour_Asymmetry_Pilot,2022.1.3,Win32,60.0024001,62c50e9c1127f2cd403a315f,0,19,19,151,1,fourthree,,,,,,,,,,,,,,,,,,,,,,,,,,,,,,,,,,,,,,,,,,,,,,,,,,,,,,,,,,,,,,,,,,,,,,,,,,,,,,,,,,,,,,,,,,,,,,,,,,,,,,,,,,,,,,,,,,,,,,,,,,,,,,,,,,,,,,,,,,,,,,,,,,,,,,,,,,
,,,,,,614a4c9d8172751921452626,62c538622c3cf42a78b91f1b,2022-07-06_24h23.57.254,Colour_Asymmetry_Pilot,2022.1.3,Win32,60.0024001,62c50e9c1127f2cd403a315f,0,20,20,43,1,twofour,,,,,,,,,,,,,,,,,,,,,,,,,,,,,,,,,,,,,,,,,,,,,,,,,,,,,,,,,,,,,,,,,,,,,,,,,,,,,,,,,,,,,,,,,,,,,,,,,,,,,,,,,,,,,,,,,,,,,,,,,,,,,,,,,,,,,,,,,,,,,,,,,,,,,,,,,,
,,,,,,614a4c9d8172751921452626,62c538622c3cf42a78b91f1b,2022-07-06_24h23.57.254,Colour_Asymmetry_Pilot,2022.1.3,Win32,60.0024001,62c50e9c1127f2cd403a315f,0,21,21,61,1,threefour,,,,,,,,,,,,,,,,,,,,,,,,,,,,,,,,,,,,,,,,,,,,,,,,,,,,,,,,,,,,,,,,,,,,,,,,,,,,,,,,,,,,,,,,,,,,,,,,,,,,,,,,,,,,,,,,,,,,,,,,,,,,,,,,,,,,,,,,,,,,,,,,,,,,,,,,,,
,,,,,,614a4c9d8172751921452626,62c538622c3cf42a78b91f1b,2022-07-06_24h23.57.254,Colour_Asymmetry_Pilot,2022.1.3,Win32,60.0024001,62c50e9c1127f2cd403a315f,0,22,22,148,1,threeone,,,,,,,,,,,,,,,,,,,,,,,,,,,,,,,,,,,,,,,,,,,,,,,,,,,,,,,,,,,,,,,,,,,,,,,,,,,,,,,,,,,,,,,,,,,,,,,,,,,,,,,,,,,,,,,,,,,,,,,,,,,,,,,,,,,,,,,,,,,,,,,,,,,,,,,,,,
,,,,,,614a4c9d8172751921452626,62c538622c3cf42a78b91f1b,2022-07-06_24h23.57.254,Colour_Asymmetry_Pilot,2022.1.3,Win32,60.0024001,62c50e9c1127f2cd403a315f,0,23,23,140,1,threeone,,,,,,,,,,,,,,,,,,,,,,,,,,,,,,,,,,,,,,,,,,,,,,,,,,,,,,,,,,,,,,,,,,,,,,,,,,,,,,,,,,,,,,,,,,,,,,,,,,,,,,,,,,,,,,,,,,,,,,,,,,,,,,,,,,,,,,,,,,,,,,,,,,,,,,,,,,
,,,,,,614a4c9d8172751921452626,62c538622c3cf42a78b91f1b,2022-07-06_24h23.57.254,Colour_Asymmetry_Pilot,2022.1.3,Win32,60.0024001,62c50e9c1127f2cd403a315f,0,24,24,158,1,fourtwo,,,,,,,,,,,,,,,,,,,,,,,,,,,,,,,,,,,,,,,,,,,,,,,,,,,,,,,,,,,,,,,,,,,,,,,,,,,,,,,,,,,,,,,,,,,,,,,,,,,,,,,,,,,,,,,,,,,,,,,,,,,,,,,,,,,,,,,,,,,,,,,,,,,,,,,,,,
,,,,,,614a4c9d8172751921452626,62c538622c3cf42a78b91f1b,2022-07-06_24h23.57.254,Colour_Asymmetry_Pilot,2022.1.3,Win32,60.0024001,62c50e9c1127f2cd403a315f,0,25,25,27,1,twofour,,,,,,,,,,,,,,,,,,,,,,,,,,,,,,,,,,,,,,,,,,,,,,,,,,,,,,,,,,,,,,,,,,,,,,,,,,,,,,,,,,,,,,,,,,,,,,,,,,,,,,,,,,,,,,,,,,,,,,,,,,,,,,,,,,,,,,,,,,,,,,,,,,,,,,,,,,
,,,,,,614a4c9d8172751921452626,62c538622c3cf42a78b91f1b,2022-07-06_24h23.57.254,Colour_Asymmetry_Pilot,2022.1.3,Win32,60.0024001,62c50e9c1127f2cd403a315f,0,26,26,26,1,twoone,,,,,,,,,,,,,,,,,,,,,,,,,,,,,,,,,,,,,,,,,,,,,,,,,,,,,,,,,,,,,,,,,,,,,,,,,,,,,,,,,,,,,,,,,,,,,,,,,,,,,,,,,,,,,,,,,,,,,,,,,,,,,,,,,,,,,,,,,,,,,,,,,,,,,,,,,,
,,,,,,614a4c9d8172751921452626,62c538622c3cf42a78b91f1b,2022-07-06_24h23.57.254,Colour_Asymmetry_Pilot,2022.1.3,Win32,60.0024001,62c50e9c1127f2cd403a315f,0,27,27,15,1,fourthree,,,,,,,,,,,,,,,,,,,,,,,,,,,,,,,,,,,,,,,,,,,,,,,,,,,,,,,,,,,,,,,,,,,,,,,,,,,,,,,,,,,,,,,,,,,,,,,,,,,,,,,,,,,,,,,,,,,,,,,,,,,,,,,,,,,,,,,,,,,,,,,,,,,,,,,,,,
,,,,,,614a4c9d8172751921452626,62c538622c3cf42a78b91f1b,2022-07-06_24h23.57.254,Colour_Asymmetry_Pilot,2022.1.3,Win32,60.0024001,62c50e9c1127f2cd403a315f,0,28,28,32,1,onetwo,,,,,,,,,,,,,,,,,,,,,,,,,,,,,,,,,,,,,,,,,,,,,,,,,,,,,,,,,,,,,,,,,,,,,,,,,,,,,,,,,,,,,,,,,,,,,,,,,,,,,,,,,,,,,,,,,,,,,,,,,,,,,,,,,,,,,,,,,,,,,,,,,,,,,,,,,,
,,,,,,614a4c9d8172751921452626,62c538622c3cf42a78b91f1b,2022-07-06_24h23.57.254,Colour_Asymmetry_Pilot,2022.1.3,Win32,60.0024001,62c50e9c1127f2cd403a315f,0,29,29,121,1,onethree,,,,,,,,,,,,,,,,,,,,,,,,,,,,,,,,,,,,,,,,,,,,,,,,,,,,,,,,,,,,,,,,,,,,,,,,,,,,,,,,,,,,,,,,,,,,,,,,,,,,,,,,,,,,,,,,,,,,,,,,,,,,,,,,,,,,,,,,,,,,,,,,,,,,,,,,,,
,,,,,,614a4c9d8172751921452626,62c538622c3cf42a78b91f1b,2022-07-06_24h23.57.254,Colour_Asymmetry_Pilot,2022.1.3,Win32,60.0024001,62c50e9c1127f2cd403a315f,0,30,30,48,1,onetwo,,,,,,,,,,,,,,,,,,,,,,,,,,,,,,,,,,,,,,,,,,,,,,,,,,,,,,,,,,,,,,,,,,,,,,,,,,,,,,,,,,,,,,,,,,,,,,,,,,,,,,,,,,,,,,,,,,,,,,,,,,,,,,,,,,,,,,,,,,,,,,,,,,,,,,,,,,
,,,,,,614a4c9d8172751921452626,62c538622c3cf42a78b91f1b,2022-07-06_24h23.57.254,Colour_Asymmetry_Pilot,2022.1.3,Win32,60.0024001,62c50e9c1127f2cd403a315f,0,31,31,8,1,onetwo,,,,,,,,,,,,,,,,,,,,,,,,,,,,,,,,,,,,,,,,,,,,,,,,,,,,,,,,,,,,,,,,,,,,,,,,,,,,,,,,,,,,,,,,,,,,,,,,,,,,,,,,,,,,,,,,,,,,,,,,,,,,,,,,,,,,,,,,,,,,,,,,,,,,,,,,,,
,,,,,,614a4c9d8172751921452626,62c538622c3cf42a78b91f1b,2022-07-06_24h23.57.254,Colour_Asymmetry_Pilot,2022.1.3,Win32,60.0024001,62c50e9c1127f2cd403a315f,0,32,32,139,1,twofour,,,,,,,,,,,,,,,,,,,,,,,,,,,,,,,,,,,,,,,,,,,,,,,,,,,,,,,,,,,,,,,,,,,,,,,,,,,,,,,,,,,,,,,,,,,,,,,,,,,,,,,,,,,,,,,,,,,,,,,,,,,,,,,,,,,,,,,,,,,,,,,,,,,,,,,,,,
,,,,,,614a4c9d8172751921452626,62c538622c3cf42a78b91f1b,2022-07-06_24h23.57.254,Colour_Asymmetry_Pilot,2022.1.3,Win32,60.0024001,62c50e9c1127f2cd403a315f,0,33,33,144,1,onetwo,,,,,,,,,,,,,,,,,,,,,,,,,,,,,,,,,,,,,,,,,,,,,,,,,,,,,,,,,,,,,,,,,,,,,,,,,,,,,,,,,,,,,,,,,,,,,,,,,,,,,,,,,,,,,,,,,,,,,,,,,,,,,,,,,,,,,,,,,,,,,,,,,,,,,,,,,,
,,,,,,614a4c9d8172751921452626,62c538622c3cf42a78b91f1b,2022-07-06_24h23.57.254,Colour_Asymmetry_Pilot,2022.1.3,Win32,60.0024001,62c50e9c1127f2cd403a315f,0,34,34,134,1,fourtwo,,,,,,,,,,,,,,,,,,,,,,,,,,,,,,,,,,,,,,,,,,,,,,,,,,,,,,,,,,,,,,,,,,,,,,,,,,,,,,,,,,,,,,,,,,,,,,,,,,,,,,,,,,,,,,,,,,,,,,,,,,,,,,,,,,,,,,,,,,,,,,,,,,,,,,,,,,
,,,,,,614a4c9d8172751921452626,62c538622c3cf42a78b91f1b,2022-07-06_24h23.57.254,Colour_Asymmetry_Pilot,2022.1.3,Win32,60.0024001,62c50e9c1127f2cd403a315f,0,35,35,99,1,twofour,,,,,,,,,,,,,,,,,,,,,,,,,,,,,,,,,,,,,,,,,,,,,,,,,,,,,,,,,,,,,,,,,,,,,,,,,,,,,,,,,,,,,,,,,,,,,,,,,,,,,,,,,,,,,,,,,,,,,,,,,,,,,,,,,,,,,,,,,,,,,,,,,,,,,,,,,,
,,,,,,614a4c9d8172751921452626,62c538622c3cf42a78b91f1b,2022-07-06_24h23.57.254,Colour_Asymmetry_Pilot,2022.1.3,Win32,60.0024001,62c50e9c1127f2cd403a315f,0,36,36,30,1,fourtwo,,,,,,,,,,,,,,,,,,,,,,,,,,,,,,,,,,,,,,,,,,,,,,,,,,,,,,,,,,,,,,,,,,,,,,,,,,,,,,,,,,,,,,,,,,,,,,,,,,,,,,,,,,,,,,,,,,,,,,,,,,,,,,,,,,,,,,,,,,,,,,,,,,,,,,,,,,
,,,,,,614a4c9d8172751921452626,62c538622c3cf42a78b91f1b,2022-07-06_24h23.57.254,Colour_Asymmetry_Pilot,2022.1.3,Win32,60.0024001,62c50e9c1127f2cd403a315f,0,37,37,108,1,threeone,,,,,,,,,,,,,,,,,,,,,,,,,,,,,,,,,,,,,,,,,,,,,,,,,,,,,,,,,,,,,,,,,,,,,,,,,,,,,,,,,,,,,,,,,,,,,,,,,,,,,,,,,,,,,,,,,,,,,,,,,,,,,,,,,,,,,,,,,,,,,,,,,,,,,,,,,,
,,,,,,614a4c9d8172751921452626,62c538622c3cf42a78b91f1b,2022-07-06_24h23.57.254,Colour_Asymmetry_Pilot,2022.1.3,Win32,60.0024001,62c50e9c1127f2cd403a315f,0,38,38,42,1,twoone,,,,,,,,,,,,,,,,,,,,,,,,,,,,,,,,,,,,,,,,,,,,,,,,,,,,,,,,,,,,,,,,,,,,,,,,,,,,,,,,,,,,,,,,,,,,,,,,,,,,,,,,,,,,,,,,,,,,,,,,,,,,,,,,,,,,,,,,,,,,,,,,,,,,,,,,,,
,,,,,,614a4c9d8172751921452626,62c538622c3cf42a78b91f1b,2022-07-06_24h23.57.254,Colour_Asymmetry_Pilot,2022.1.3,Win32,60.0024001,62c50e9c1127f2cd403a315f,0,39,39,56,1,onetwo,,,,,,,,,,,,,,,,,,,,,,,,,,,,,,,,,,,,,,,,,,,,,,,,,,,,,,,,,,,,,,,,,,,,,,,,,,,,,,,,,,,,,,,,,,,,,,,,,,,,,,,,,,,,,,,,,,,,,,,,,,,,,,,,,,,,,,,,,,,,,,,,,,,,,,,,,,
,,,,,,614a4c9d8172751921452626,62c538622c3cf42a78b91f1b,2022-07-06_24h23.57.254,Colour_Asymmetry_Pilot,2022.1.3,Win32,60.0024001,62c50e9c1127f2cd403a315f,0,40,40,146,1,twoone,,,,,,,,,,,,,,,,,,,,,,,,,,,,,,,,,,,,,,,,,,,,,,,,,,,,,,,,,,,,,,,,,,,,,,,,,,,,,,,,,,,,,,,,,,,,,,,,,,,,,,,,,,,,,,,,,,,,,,,,,,,,,,,,,,,,,,,,,,,,,,,,,,,,,,,,,,
,,,,,,614a4c9d8172751921452626,62c538622c3cf42a78b91f1b,2022-07-06_24h23.57.254,Colour_Asymmetry_Pilot,2022.1.3,Win32,60.0024001,62c50e9c1127f2cd403a315f,0,41,41,60,1,threeone,,,,,,,,,,,,,,,,,,,,,,,,,,,,,,,,,,,,,,,,,,,,,,,,,,,,,,,,,,,,,,,,,,,,,,,,,,,,,,,,,,,,,,,,,,,,,,,,,,,,,,,,,,,,,,,,,,,,,,,,,,,,,,,,,,,,,,,,,,,,,,,,,,,,,,,,,,
,,,,,,614a4c9d8172751921452626,62c538622c3cf42a78b91f1b,2022-07-06_24h23.57.254,Colour_Asymmetry_Pilot,2022.1.3,Win32,60.0024001,62c50e9c1127f2cd403a315f,0,42,42,22,1,fourtwo,,,,,,,,,,,,,,,,,,,,,,,,,,,,,,,,,,,,,,,,,,,,,,,,,,,,,,,,,,,,,,,,,,,,,,,,,,,,,,,,,,,,,,,,,,,,,,,,,,,,,,,,,,,,,,,,,,,,,,,,,,,,,,,,,,,,,,,,,,,,,,,,,,,,,,,,,,
,,,,,,614a4c9d8172751921452626,62c538622c3cf42a78b91f1b,2022-07-06_24h23.57.254,Colour_Asymmetry_Pilot,2022.1.3,Win32,60.0024001,62c50e9c1127f2cd403a315f,0,43,43,78,1,fourtwo,,,,,,,,,,,,,,,,,,,,,,,,,,,,,,,,,,,,,,,,,,,,,,,,,,,,,,,,,,,,,,,,,,,,,,,,,,,,,,,,,,,,,,,,,,,,,,,,,,,,,,,,,,,,,,,,,,,,,,,,,,,,,,,,,,,,,,,,,,,,,,,,,,,,,,,,,,
,,,,,,614a4c9d8172751921452626,62c538622c3cf42a78b91f1b,2022-07-06_24h23.57.254,Colour_Asymmetry_Pilot,2022.1.3,Win32,60.0024001,62c50e9c1127f2cd403a315f,0,44,44,133,1,threefour,,,,,,,,,,,,,,,,,,,,,,,,,,,,,,,,,,,,,,,,,,,,,,,,,,,,,,,,,,,,,,,,,,,,,,,,,,,,,,,,,,,,,,,,,,,,,,,,,,,,,,,,,,,,,,,,,,,,,,,,,,,,,,,,,,,,,,,,,,,,,,,,,,,,,,,,,,
,,,,,,614a4c9d8172751921452626,62c538622c3cf42a78b91f1b,2022-07-06_24h23.57.254,Colour_Asymmetry_Pilot,2022.1.3,Win32,60.0024001,62c50e9c1127f2cd403a315f,0,45,45,74,1,twoone,,,,,,,,,,,,,,,,,,,,,,,,,,,,,,,,,,,,,,,,,,,,,,,,,,,,,,,,,,,,,,,,,,,,,,,,,,,,,,,,,,,,,,,,,,,,,,,,,,,,,,,,,,,,,,,,,,,,,,,,,,,,,,,,,,,,,,,,,,,,,,,,,,,,,,,,,,
,,,,,,614a4c9d8172751921452626,62c538622c3cf42a78b91f1b,2022-07-06_24h23.57.254,Colour_Asymmetry_Pilot,2022.1.3,Win32,60.0024001,62c50e9c1127f2cd403a315f,0,46,46,118,1,fourtwo,,,,,,,,,,,,,,,,,,,,,,,,,,,,,,,,,,,,,,,,,,,,,,,,,,,,,,,,,,,,,,,,,,,,,,,,,,,,,,,,,,,,,,,,,,,,,,,,,,,,,,,,,,,,,,,,,,,,,,,,,,,,,,,,,,,,,,,,,,,,,,,,,,,,,,,,,,
,,,,,,614a4c9d8172751921452626,62c538622c3cf42a78b91f1b,2022-07-06_24h23.57.254,Colour_Asymmetry_Pilot,2022.1.3,Win32,60.0024001,62c50e9c1127f2cd403a315f,0,47,47,52,1,threeone,,,,,,,,,,,,,,,,,,,,,,,,,,,,,,,,,,,,,,,,,,,,,,,,,,,,,,,,,,,,,,,,,,,,,,,,,,,,,,,,,,,,,,,,,,,,,,,,,,,,,,,,,,,,,,,,,,,,,,,,,,,,,,,,,,,,,,,,,,,,,,,,,,,,,,,,,,
,,,,,,614a4c9d8172751921452626,62c538622c3cf42a78b91f1b,2022-07-06_24h23.57.254,Colour_Asymmetry_Pilot,2022.1.3,Win32,60.0024001,62c50e9c1127f2cd403a315f,0,48,48,77,1,threefour,,,,,,,,,,,,,,,,,,,,,,,,,,,,,,,,,,,,,,,,,,,,,,,,,,,,,,,,,,,,,,,,,,,,,,,,,,,,,,,,,,,,,,,,,,,,,,,,,,,,,,,,,,,,,,,,,,,,,,,,,,,,,,,,,,,,,,,,,,,,,,,,,,,,,,,,,,
,,,,,,614a4c9d8172751921452626,62c538622c3cf42a78b91f1b,2022-07-06_24h23.57.254,Colour_Asymmetry_Pilot,2022.1.3,Win32,60.0024001,62c50e9c1127f2cd403a315f,0,49,49,58,1,twoone,,,,,,,,,,,,,,,,,,,,,,,,,,,,,,,,,,,,,,,,,,,,,,,,,,,,,,,,,,,,,,,,,,,,,,,,,,,,,,,,,,,,,,,,,,,,,,,,,,,,,,,,,,,,,,,,,,,,,,,,,,,,,,,,,,,,,,,,,,,,,,,,,,,,,,,,,,
,,,,,,614a4c9d8172751921452626,62c538622c3cf42a78b91f1b,2022-07-06_24h23.57.254,Colour_Asymmetry_Pilot,2022.1.3,Win32,60.0024001,62c50e9c1127f2cd403a315f,0,50,50,107,1,twofour,,,,,,,,,,,,,,,,,,,,,,,,,,,,,,,,,,,,,,,,,,,,,,,,,,,,,,,,,,,,,,,,,,,,,,,,,,,,,,,,,,,,,,,,,,,,,,,,,,,,,,,,,,,,,,,,,,,,,,,,,,,,,,,,,,,,,,,,,,,,,,,,,,,,,,,,,,
,,,,,,614a4c9d8172751921452626,62c538622c3cf42a78b91f1b,2022-07-06_24h23.57.254,Colour_Asymmetry_Pilot,2022.1.3,Win32,60.0024001,62c50e9c1127f2cd403a315f,0,51,51,9,1,onethree,,,,,,,,,,,,,,,,,,,,,,,,,,,,,,,,,,,,,,,,,,,,,,,,,,,,,,,,,,,,,,,,,,,,,,,,,,,,,,,,,,,,,,,,,,,,,,,,,,,,,,,,,,,,,,,,,,,,,,,,,,,,,,,,,,,,,,,,,,,,,,,,,,,,,,,,,,
,,,,,,614a4c9d8172751921452626,62c538622c3cf42a78b91f1b,2022-07-06_24h23.57.254,Colour_Asymmetry_Pilot,2022.1.3,Win32,60.0024001,62c50e9c1127f2cd403a315f,0,52,52,65,1,onethree,,,,,,,,,,,,,,,,,,,,,,,,,,,,,,,,,,,,,,,,,,,,,,,,,,,,,,,,,,,,,,,,,,,,,,,,,,,,,,,,,,,,,,,,,,,,,,,,,,,,,,,,,,,,,,,,,,,,,,,,,,,,,,,,,,,,,,,,,,,,,,,,,,,,,,,,,,
,,,,,,614a4c9d8172751921452626,62c538622c3cf42a78b91f1b,2022-07-06_24h23.57.254,Colour_Asymmetry_Pilot,2022.1.3,Win32,60.0024001,62c50e9c1127f2cd403a315f,0,53,53,31,1,fourthree,,,,,,,,,,,,,,,,,,,,,,,,,,,,,,,,,,,,,,,,,,,,,,,,,,,,,,,,,,,,,,,,,,,,,,,,,,,,,,,,,,,,,,,,,,,,,,,,,,,,,,,,,,,,,,,,,,,,,,,,,,,,,,,,,,,,,,,,,,,,,,,,,,,,,,,,,,
,,,,,,614a4c9d8172751921452626,62c538622c3cf42a78b91f1b,2022-07-06_24h23.57.254,Colour_Asymmetry_Pilot,2022.1.3,Win32,60.0024001,62c50e9c1127f2cd403a315f,0,54,54,114,1,twoone,,,,,,,,,,,,,,,,,,,,,,,,,,,,,,,,,,,,,,,,,,,,,,,,,,,,,,,,,,,,,,,,,,,,,,,,,,,,,,,,,,,,,,,,,,,,,,,,,,,,,,,,,,,,,,,,,,,,,,,,,,,,,,,,,,,,,,,,,,,,,,,,,,,,,,,,,,
,,,,,,614a4c9d8172751921452626,62c538622c3cf42a78b91f1b,2022-07-06_24h23.57.254,Colour_Asymmetry_Pilot,2022.1.3,Win32,60.0024001,62c50e9c1127f2cd403a315f,0,55,55,76,1,threeone,,,,,,,,,,,,,,,,,,,,,,,,,,,,,,,,,,,,,,,,,,,,,,,,,,,,,,,,,,,,,,,,,,,,,,,,,,,,,,,,,,,,,,,,,,,,,,,,,,,,,,,,,,,,,,,,,,,,,,,,,,,,,,,,,,,,,,,,,,,,,,,,,,,,,,,,,,
,,,,,,614a4c9d8172751921452626,62c538622c3cf42a78b91f1b,2022-07-06_24h23.57.254,Colour_Asymmetry_Pilot,2022.1.3,Win32,60.0024001,62c50e9c1127f2cd403a315f,0,56,56,17,1,onethree,,,,,,,,,,,,,,,,,,,,,,,,,,,,,,,,,,,,,,,,,,,,,,,,,,,,,,,,,,,,,,,,,,,,,,,,,,,,,,,,,,,,,,,,,,,,,,,,,,,,,,,,,,,,,,,,,,,,,,,,,,,,,,,,,,,,,,,,,,,,,,,,,,,,,,,,,,
,,,,,,614a4c9d8172751921452626,62c538622c3cf42a78b91f1b,2022-07-06_24h23.57.254,Colour_Asymmetry_Pilot,2022.1.3,Win32,60.0024001,62c50e9c1127f2cd403a315f,0,57,57,36,1,threeone,,,,,,,,,,,,,,,,,,,,,,,,,,,,,,,,,,,,,,,,,,,,,,,,,,,,,,,,,,,,,,,,,,,,,,,,,,,,,,,,,,,,,,,,,,,,,,,,,,,,,,,,,,,,,,,,,,,,,,,,,,,,,,,,,,,,,,,,,,,,,,,,,,,,,,,,,,
,,,,,,614a4c9d8172751921452626,62c538622c3cf42a78b91f1b,2022-07-06_24h23.57.254,Colour_Asymmetry_Pilot,2022.1.3,Win32,60.0024001,62c50e9c1127f2cd403a315f,0,58,58,19,1,twofour,,,,,,,,,,,,,,,,,,,,,,,,,,,,,,,,,,,,,,,,,,,,,,,,,,,,,,,,,,,,,,,,,,,,,,,,,,,,,,,,,,,,,,,,,,,,,,,,,,,,,,,,,,,,,,,,,,,,,,,,,,,,,,,,,,,,,,,,,,,,,,,,,,,,,,,,,,
,,,,,,614a4c9d8172751921452626,62c538622c3cf42a78b91f1b,2022-07-06_24h23.57.254,Colour_Asymmetry_Pilot,2022.1.3,Win32,60.0024001,62c50e9c1127f2cd403a315f,0,59,59,23,1,fourthree,,,,,,,,,,,,,,,,,,,,,,,,,,,,,,,,,,,,,,,,,,,,,,,,,,,,,,,,,,,,,,,,,,,,,,,,,,,,,,,,,,,,,,,,,,,,,,,,,,,,,,,,,,,,,,,,,,,,,,,,,,,,,,,,,,,,,,,,,,,,,,,,,,,,,,,,,,
,,,,,,614a4c9d8172751921452626,62c538622c3cf42a78b91f1b,2022-07-06_24h23.57.254,Colour_Asymmetry_Pilot,2022.1.3,Win32,60.0024001,62c50e9c1127f2cd403a315f,0,60,60,37,1,threefour,,,,,,,,,,,,,,,,,,,,,,,,,,,,,,,,,,,,,,,,,,,,,,,,,,,,,,,,,,,,,,,,,,,,,,,,,,,,,,,,,,,,,,,,,,,,,,,,,,,,,,,,,,,,,,,,,,,,,,,,,,,,,,,,,,,,,,,,,,,,,,,,,,,,,,,,,,
,,,,,,614a4c9d8172751921452626,62c538622c3cf42a78b91f1b,2022-07-06_24h23.57.254,Colour_Asymmetry_Pilot,2022.1.3,Win32,60.0024001,62c50e9c1127f2cd403a315f,0,61,61,147,1,twofour,,,,,,,,,,,,,,,,,,,,,,,,,,,,,,,,,,,,,,,,,,,,,,,,,,,,,,,,,,,,,,,,,,,,,,,,,,,,,,,,,,,,,,,,,,,,,,,,,,,,,,,,,,,,,,,,,,,,,,,,,,,,,,,,,,,,,,,,,,,,,,,,,,,,,,,,,,
,,,,,,614a4c9d8172751921452626,62c538622c3cf42a78b91f1b,2022-07-06_24h23.57.254,Colour_Asymmetry_Pilot,2022.1.3,Win32,60.0024001,62c50e9c1127f2cd403a315f,0,62,62,157,1,threefour,,,,,,,,,,,,,,,,,,,,,,,,,,,,,,,,,,,,,,,,,,,,,,,,,,,,,,,,,,,,,,,,,,,,,,,,,,,,,,,,,,,,,,,,,,,,,,,,,,,,,,,,,,,,,,,,,,,,,,,,,,,,,,,,,,,,,,,,,,,,,,,,,,,,,,,,,,
,,,,,,614a4c9d8172751921452626,62c538622c3cf42a78b91f1b,2022-07-06_24h23.57.254,Colour_Asymmetry_Pilot,2022.1.3,Win32,60.0024001,62c50e9c1127f2cd403a315f,0,63,63,136,1,onetwo,,,,,,,,,,,,,,,,,,,,,,,,,,,,,,,,,,,,,,,,,,,,,,,,,,,,,,,,,,,,,,,,,,,,,,,,,,,,,,,,,,,,,,,,,,,,,,,,,,,,,,,,,,,,,,,,,,,,,,,,,,,,,,,,,,,,,,,,,,,,,,,,,,,,,,,,,,
,,,,,,614a4c9d8172751921452626,62c538622c3cf42a78b91f1b,2022-07-06_24h23.57.254,Colour_Asymmetry_Pilot,2022.1.3,Win32,60.0024001,62c50e9c1127f2cd403a315f,0,64,64,154,1,twoone,,,,,,,,,,,,,,,,,,,,,,,,,,,,,,,,,,,,,,,,,,,,,,,,,,,,,,,,,,,,,,,,,,,,,,,,,,,,,,,,,,,,,,,,,,,,,,,,,,,,,,,,,,,,,,,,,,,,,,,,,,,,,,,,,,,,,,,,,,,,,,,,,,,,,,,,,,
,,,,,,614a4c9d8172751921452626,62c538622c3cf42a78b91f1b,2022-07-06_24h23.57.254,Colour_Asymmetry_Pilot,2022.1.3,Win32,60.0024001,62c50e9c1127f2cd403a315f,0,65,65,54,1,fourtwo,,,,,,,,,,,,,,,,,,,,,,,,,,,,,,,,,,,,,,,,,,,,,,,,,,,,,,,,,,,,,,,,,,,,,,,,,,,,,,,,,,,,,,,,,,,,,,,,,,,,,,,,,,,,,,,,,,,,,,,,,,,,,,,,,,,,,,,,,,,,,,,,,,,,,,,,,,
,,,,,,614a4c9d8172751921452626,62c538622c3cf42a78b91f1b,2022-07-06_24h23.57.254,Colour_Asymmetry_Pilot,2022.1.3,Win32,60.0024001,62c50e9c1127f2cd403a315f,0,66,66,87,1,fourthree,,,,,,,,,,,,,,,,,,,,,,,,,,,,,,,,,,,,,,,,,,,,,,,,,,,,,,,,,,,,,,,,,,,,,,,,,,,,,,,,,,,,,,,,,,,,,,,,,,,,,,,,,,,,,,,,,,,,,,,,,,,,,,,,,,,,,,,,,,,,,,,,,,,,,,,,,,
,,,,,,614a4c9d8172751921452626,62c538622c3cf42a78b91f1b,2022-07-06_24h23.57.254,Colour_Asymmetry_Pilot,2022.1.3,Win32,60.0024001,62c50e9c1127f2cd403a315f,0,67,67,3,1,twofour,,,,,,,,,,,,,,,,,,,,,,,,,,,,,,,,,,,,,,,,,,,,,,,,,,,,,,,,,,,,,,,,,,,,,,,,,,,,,,,,,,,,,,,,,,,,,,,,,,,,,,,,,,,,,,,,,,,,,,,,,,,,,,,,,,,,,,,,,,,,,,,,,,,,,,,,,,
,,,,,,614a4c9d8172751921452626,62c538622c3cf42a78b91f1b,2022-07-06_24h23.57.254,Colour_Asymmetry_Pilot,2022.1.3,Win32,60.0024001,62c50e9c1127f2cd403a315f,0,68,68,67,1,twofour,,,,,,,,,,,,,,,,,,,,,,,,,,,,,,,,,,,,,,,,,,,,,,,,,,,,,,,,,,,,,,,,,,,,,,,,,,,,,,,,,,,,,,,,,,,,,,,,,,,,,,,,,,,,,,,,,,,,,,,,,,,,,,,,,,,,,,,,,,,,,,,,,,,,,,,,,,
,,,,,,614a4c9d8172751921452626,62c538622c3cf42a78b91f1b,2022-07-06_24h23.57.254,Colour_Asymmetry_Pilot,2022.1.3,Win32,60.0024001,62c50e9c1127f2cd403a315f,0,69,69,156,1,threeone,,,,,,,,,,,,,,,,,,,,,,,,,,,,,,,,,,,,,,,,,,,,,,,,,,,,,,,,,,,,,,,,,,,,,,,,,,,,,,,,,,,,,,,,,,,,,,,,,,,,,,,,,,,,,,,,,,,,,,,,,,,,,,,,,,,,,,,,,,,,,,,,,,,,,,,,,,
,,,,,,614a4c9d8172751921452626,62c538622c3cf42a78b91f1b,2022-07-06_24h23.57.254,Colour_Asymmetry_Pilot,2022.1.3,Win32,60.0024001,62c50e9c1127f2cd403a315f,0,70,70,29,1,threefour,,,,,,,,,,,,,,,,,,,,,,,,,,,,,,,,,,,,,,,,,,,,,,,,,,,,,,,,,,,,,,,,,,,,,,,,,,,,,,,,,,,,,,,,,,,,,,,,,,,,,,,,,,,,,,,,,,,,,,,,,,,,,,,,,,,,,,,,,,,,,,,,,,,,,,,,,,
,,,,,,614a4c9d8172751921452626,62c538622c3cf42a78b91f1b,2022-07-06_24h23.57.254,Colour_Asymmetry_Pilot,2022.1.3,Win32,60.0024001,62c50e9c1127f2cd403a315f,0,71,71,44,1,threeone,,,,,,,,,,,,,,,,,,,,,,,,,,,,,,,,,,,,,,,,,,,,,,,,,,,,,,,,,,,,,,,,,,,,,,,,,,,,,,,,,,,,,,,,,,,,,,,,,,,,,,,,,,,,,,,,,,,,,,,,,,,,,,,,,,,,,,,,,,,,,,,,,,,,,,,,,,
,,,,,,614a4c9d8172751921452626,62c538622c3cf42a78b91f1b,2022-07-06_24h23.57.254,Colour_Asymmetry_Pilot,2022.1.3,Win32,60.0024001,62c50e9c1127f2cd403a315f,0,72,72,64,1,onetwo,,,,,,,,,,,,,,,,,,,,,,,,,,,,,,,,,,,,,,,,,,,,,,,,,,,,,,,,,,,,,,,,,,,,,,,,,,,,,,,,,,,,,,,,,,,,,,,,,,,,,,,,,,,,,,,,,,,,,,,,,,,,,,,,,,,,,,,,,,,,,,,,,,,,,,,,,,
,,,,,,614a4c9d8172751921452626,62c538622c3cf42a78b91f1b,2022-07-06_24h23.57.254,Colour_Asymmetry_Pilot,2022.1.3,Win32,60.0024001,62c50e9c1127f2cd403a315f,0,73,73,63,1,fourthree,,,,,,,,,,,,,,,,,,,,,,,,,,,,,,,,,,,,,,,,,,,,,,,,,,,,,,,,,,,,,,,,,,,,,,,,,,,,,,,,,,,,,,,,,,,,,,,,,,,,,,,,,,,,,,,,,,,,,,,,,,,,,,,,,,,,,,,,,,,,,,,,,,,,,,,,,,
,,,,,,614a4c9d8172751921452626,62c538622c3cf42a78b91f1b,2022-07-06_24h23.57.254,Colour_Asymmetry_Pilot,2022.1.3,Win32,60.0024001,62c50e9c1127f2cd403a315f,0,74,74,86,1,fourtwo,,,,,,,,,,,,,,,,,,,,,,,,,,,,,,,,,,,,,,,,,,,,,,,,,,,,,,,,,,,,,,,,,,,,,,,,,,,,,,,,,,,,,,,,,,,,,,,,,,,,,,,,,,,,,,,,,,,,,,,,,,,,,,,,,,,,,,,,,,,,,,,,,,,,,,,,,,
,,,,,,614a4c9d8172751921452626,62c538622c3cf42a78b91f1b,2022-07-06_24h23.57.254,Colour_Asymmetry_Pilot,2022.1.3,Win32,60.0024001,62c50e9c1127f2cd403a315f,0,75,75,18,1,twoone,,,,,,,,,,,,,,,,,,,,,,,,,,,,,,,,,,,,,,,,,,,,,,,,,,,,,,,,,,,,,,,,,,,,,,,,,,,,,,,,,,,,,,,,,,,,,,,,,,,,,,,,,,,,,,,,,,,,,,,,,,,,,,,,,,,,,,,,,,,,,,,,,,,,,,,,,,
,,,,,,614a4c9d8172751921452626,62c538622c3cf42a78b91f1b,2022-07-06_24h23.57.254,Colour_Asymmetry_Pilot,2022.1.3,Win32,60.0024001,62c50e9c1127f2cd403a315f,0,76,76,50,1,twoone,,,,,,,,,,,,,,,,,,,,,,,,,,,,,,,,,,,,,,,,,,,,,,,,,,,,,,,,,,,,,,,,,,,,,,,,,,,,,,,,,,,,,,,,,,,,,,,,,,,,,,,,,,,,,,,,,,,,,,,,,,,,,,,,,,,,,,,,,,,,,,,,,,,,,,,,,,
,,,,,,614a4c9d8172751921452626,62c538622c3cf42a78b91f1b,2022-07-06_24h23.57.254,Colour_Asymmetry_Pilot,2022.1.3,Win32,60.0024001,62c50e9c1127f2cd403a315f,0,77,77,95,1,fourthree,,,,,,,,,,,,,,,,,,,,,,,,,,,,,,,,,,,,,,,,,,,,,,,,,,,,,,,,,,,,,,,,,,,,,,,,,,,,,,,,,,,,,,,,,,,,,,,,,,,,,,,,,,,,,,,,,,,,,,,,,,,,,,,,,,,,,,,,,,,,,,,,,,,,,,,,,,
,,,,,,614a4c9d8172751921452626,62c538622c3cf42a78b91f1b,2022-07-06_24h23.57.254,Colour_Asymmetry_Pilot,2022.1.3,Win32,60.0024001,62c50e9c1127f2cd403a315f,0,78,78,130,1,twoone,,,,,,,,,,,,,,,,,,,,,,,,,,,,,,,,,,,,,,,,,,,,,,,,,,,,,,,,,,,,,,,,,,,,,,,,,,,,,,,,,,,,,,,,,,,,,,,,,,,,,,,,,,,,,,,,,,,,,,,,,,,,,,,,,,,,,,,,,,,,,,,,,,,,,,,,,,
,,,,,,614a4c9d8172751921452626,62c538622c3cf42a78b91f1b,2022-07-06_24h23.57.254,Colour_Asymmetry_Pilot,2022.1.3,Win32,60.0024001,62c50e9c1127f2cd403a315f,0,79,79,97,1,onethree,,,,,,,,,,,,,,,,,,,,,,,,,,,,,,,,,,,,,,,,,,,,,,,,,,,,,,,,,,,,,,,,,,,,,,,,,,,,,,,,,,,,,,,,,,,,,,,,,,,,,,,,,,,,,,,,,,,,,,,,,,,,,,,,,,,,,,,,,,,,,,,,,,,,,,,,,,
,,,,,,614a4c9d8172751921452626,62c538622c3cf42a78b91f1b,2022-07-06_24h23.57.254,Colour_Asymmetry_Pilot,2022.1.3,Win32,60.0024001,62c50e9c1127f2cd403a315f,0,80,80,94,1,fourtwo,,,,,,,,,,,,,,,,,,,,,,,,,,,,,,,,,,,,,,,,,,,,,,,,,,,,,,,,,,,,,,,,,,,,,,,,,,,,,,,,,,,,,,,,,,,,,,,,,,,,,,,,,,,,,,,,,,,,,,,,,,,,,,,,,,,,,,,,,,,,,,,,,,,,,,,,,,
,,,,,,614a4c9d8172751921452626,62c538622c3cf42a78b91f1b,2022-07-06_24h23.57.254,Colour_Asymmetry_Pilot,2022.1.3,Win32,60.0024001,62c50e9c1127f2cd403a315f,0,81,81,120,1,onetwo,,,,,,,,,,,,,,,,,,,,,,,,,,,,,,,,,,,,,,,,,,,,,,,,,,,,,,,,,,,,,,,,,,,,,,,,,,,,,,,,,,,,,,,,,,,,,,,,,,,,,,,,,,,,,,,,,,,,,,,,,,,,,,,,,,,,,,,,,,,,,,,,,,,,,,,,,,
,,,,,,614a4c9d8172751921452626,62c538622c3cf42a78b91f1b,2022-07-06_24h23.57.254,Colour_Asymmetry_Pilot,2022.1.3,Win32,60.0024001,62c50e9c1127f2cd403a315f,0,82,82,4,1,threeone,,,,,,,,,,,,,,,,,,,,,,,,,,,,,,,,,,,,,,,,,,,,,,,,,,,,,,,,,,,,,,,,,,,,,,,,,,,,,,,,,,,,,,,,,,,,,,,,,,,,,,,,,,,,,,,,,,,,,,,,,,,,,,,,,,,,,,,,,,,,,,,,,,,,,,,,,,
,,,,,,614a4c9d8172751921452626,62c538622c3cf42a78b91f1b,2022-07-06_24h23.57.254,Colour_Asymmetry_Pilot,2022.1.3,Win32,60.0024001,62c50e9c1127f2cd403a315f,0,83,83,88,1,onetwo,,,,,,,,,,,,,,,,,,,,,,,,,,,,,,,,,,,,,,,,,,,,,,,,,,,,,,,,,,,,,,,,,,,,,,,,,,,,,,,,,,,,,,,,,,,,,,,,,,,,,,,,,,,,,,,,,,,,,,,,,,,,,,,,,,,,,,,,,,,,,,,,,,,,,,,,,,
,,,,,,614a4c9d8172751921452626,62c538622c3cf42a78b91f1b,2022-07-06_24h23.57.254,Colour_Asymmetry_Pilot,2022.1.3,Win32,60.0024001,62c50e9c1127f2cd403a315f,0,84,84,119,1,fourthree,,,,,,,,,,,,,,,,,,,,,,,,,,,,,,,,,,,,,,,,,,,,,,,,,,,,,,,,,,,,,,,,,,,,,,,,,,,,,,,,,,,,,,,,,,,,,,,,,,,,,,,,,,,,,,,,,,,,,,,,,,,,,,,,,,,,,,,,,,,,,,,,,,,,,,,,,,
,,,,,,614a4c9d8172751921452626,62c538622c3cf42a78b91f1b,2022-07-06_24h23.57.254,Colour_Asymmetry_Pilot,2022.1.3,Win32,60.0024001,62c50e9c1127f2cd403a315f,0,85,85,160,1,onetwo,,,,,,,,,,,,,,,,,,,,,,,,,,,,,,,,,,,,,,,,,,,,,,,,,,,,,,,,,,,,,,,,,,,,,,,,,,,,,,,,,,,,,,,,,,,,,,,,,,,,,,,,,,,,,,,,,,,,,,,,,,,,,,,,,,,,,,,,,,,,,,,,,,,,,,,,,,
,,,,,,614a4c9d8172751921452626,62c538622c3cf42a78b91f1b,2022-07-06_24h23.57.254,Colour_Asymmetry_Pilot,2022.1.3,Win32,60.0024001,62c50e9c1127f2cd403a315f,0,86,86,34,1,twoone,,,,,,,,,,,,,,,,,,,,,,,,,,,,,,,,,,,,,,,,,,,,,,,,,,,,,,,,,,,,,,,,,,,,,,,,,,,,,,,,,,,,,,,,,,,,,,,,,,,,,,,,,,,,,,,,,,,,,,,,,,,,,,,,,,,,,,,,,,,,,,,,,,,,,,,,,,
,,,,,,614a4c9d8172751921452626,62c538622c3cf42a78b91f1b,2022-07-06_24h23.57.254,Colour_Asymmetry_Pilot,2022.1.3,Win32,60.0024001,62c50e9c1127f2cd403a315f,0,87,87,96,1,onetwo,,,,,,,,,,,,,,,,,,,,,,,,,,,,,,,,,,,,,,,,,,,,,,,,,,,,,,,,,,,,,,,,,,,,,,,,,,,,,,,,,,,,,,,,,,,,,,,,,,,,,,,,,,,,,,,,,,,,,,,,,,,,,,,,,,,,,,,,,,,,,,,,,,,,,,,,,,
,,,,,,614a4c9d8172751921452626,62c538622c3cf42a78b91f1b,2022-07-06_24h23.57.254,Colour_Asymmetry_Pilot,2022.1.3,Win32,60.0024001,62c50e9c1127f2cd403a315f,0,88,88,79,1,fourthree,,,,,,,,,,,,,,,,,,,,,,,,,,,,,,,,,,,,,,,,,,,,,,,,,,,,,,,,,,,,,,,,,,,,,,,,,,,,,,,,,,,,,,,,,,,,,,,,,,,,,,,,,,,,,,,,,,,,,,,,,,,,,,,,,,,,,,,,,,,,,,,,,,,,,,,,,,
,,,,,,614a4c9d8172751921452626,62c538622c3cf42a78b91f1b,2022-07-06_24h23.57.254,Colour_Asymmetry_Pilot,2022.1.3,Win32,60.0024001,62c50e9c1127f2cd403a315f,0,89,89,89,1,onethree,,,,,,,,,,,,,,,,,,,,,,,,,,,,,,,,,,,,,,,,,,,,,,,,,,,,,,,,,,,,,,,,,,,,,,,,,,,,,,,,,,,,,,,,,,,,,,,,,,,,,,,,,,,,,,,,,,,,,,,,,,,,,,,,,,,,,,,,,,,,,,,,,,,,,,,,,,
,,,,,,614a4c9d8172751921452626,62c538622c3cf42a78b91f1b,2022-07-06_24h23.57.254,Colour_Asymmetry_Pilot,2022.1.3,Win32,60.0024001,62c50e9c1127f2cd403a315f,0,90,90,124,1,threeone,,,,,,,,,,,,,,,,,,,,,,,,,,,,,,,,,,,,,,,,,,,,,,,,,,,,,,,,,,,,,,,,,,,,,,,,,,,,,,,,,,,,,,,,,,,,,,,,,,,,,,,,,,,,,,,,,,,,,,,,,,,,,,,,,,,,,,,,,,,,,,,,,,,,,,,,,,
,,,,,,614a4c9d8172751921452626,62c538622c3cf42a78b91f1b,2022-07-06_24h23.57.254,Colour_Asymmetry_Pilot,2022.1.3,Win32,60.0024001,62c50e9c1127f2cd403a315f,0,91,91,153,1,onethree,,,,,,,,,,,,,,,,,,,,,,,,,,,,,,,,,,,,,,,,,,,,,,,,,,,,,,,,,,,,,,,,,,,,,,,,,,,,,,,,,,,,,,,,,,,,,,,,,,,,,,,,,,,,,,,,,,,,,,,,,,,,,,,,,,,,,,,,,,,,,,,,,,,,,,,,,,
,,,,,,614a4c9d8172751921452626,62c538622c3cf42a78b91f1b,2022-07-06_24h23.57.254,Colour_Asymmetry_Pilot,2022.1.3,Win32,60.0024001,62c50e9c1127f2cd403a315f,0,92,92,116,1,threeone,,,,,,,,,,,,,,,,,,,,,,,,,,,,,,,,,,,,,,,,,,,,,,,,,,,,,,,,,,,,,,,,,,,,,,,,,,,,,,,,,,,,,,,,,,,,,,,,,,,,,,,,,,,,,,,,,,,,,,,,,,,,,,,,,,,,,,,,,,,,,,,,,,,,,,,,,,
,,,,,,614a4c9d8172751921452626,62c538622c3cf42a78b91f1b,2022-07-06_24h23.57.254,Colour_Asymmetry_Pilot,2022.1.3,Win32,60.0024001,62c50e9c1127f2cd403a315f,0,93,93,110,1,fourtwo,,,,,,,,,,,,,,,,,,,,,,,,,,,,,,,,,,,,,,,,,,,,,,,,,,,,,,,,,,,,,,,,,,,,,,,,,,,,,,,,,,,,,,,,,,,,,,,,,,,,,,,,,,,,,,,,,,,,,,,,,,,,,,,,,,,,,,,,,,,,,,,,,,,,,,,,,,
,,,,,,614a4c9d8172751921452626,62c538622c3cf42a78b91f1b,2022-07-06_24h23.57.254,Colour_Asymmetry_Pilot,2022.1.3,Win32,60.0024001,62c50e9c1127f2cd403a315f,0,94,94,93,1,threefour,,,,,,,,,,,,,,,,,,,,,,,,,,,,,,,,,,,,,,,,,,,,,,,,,,,,,,,,,,,,,,,,,,,,,,,,,,,,,,,,,,,,,,,,,,,,,,,,,,,,,,,,,,,,,,,,,,,,,,,,,,,,,,,,,,,,,,,,,,,,,,,,,,,,,,,,,,
,,,,,,614a4c9d8172751921452626,62c538622c3cf42a78b91f1b,2022-07-06_24h23.57.254,Colour_Asymmetry_Pilot,2022.1.3,Win32,60.0024001,62c50e9c1127f2cd403a315f,0,95,95,12,1,threeone,,,,,,,,,,,,,,,,,,,,,,,,,,,,,,,,,,,,,,,,,,,,,,,,,,,,,,,,,,,,,,,,,,,,,,,,,,,,,,,,,,,,,,,,,,,,,,,,,,,,,,,,,,,,,,,,,,,,,,,,,,,,,,,,,,,,,,,,,,,,,,,,,,,,,,,,,,
,,,,,,614a4c9d8172751921452626,62c538622c3cf42a78b91f1b,2022-07-06_24h23.57.254,Colour_Asymmetry_Pilot,2022.1.3,Win32,60.0024001,62c50e9c1127f2cd403a315f,0,96,96,5,1,threefour,,,,,,,,,,,,,,,,,,,,,,,,,,,,,,,,,,,,,,,,,,,,,,,,,,,,,,,,,,,,,,,,,,,,,,,,,,,,,,,,,,,,,,,,,,,,,,,,,,,,,,,,,,,,,,,,,,,,,,,,,,,,,,,,,,,,,,,,,,,,,,,,,,,,,,,,,,
,,,,,,614a4c9d8172751921452626,62c538622c3cf42a78b91f1b,2022-07-06_24h23.57.254,Colour_Asymmetry_Pilot,2022.1.3,Win32,60.0024001,62c50e9c1127f2cd403a315f,0,97,97,71,1,fourthree,,,,,,,,,,,,,,,,,,,,,,,,,,,,,,,,,,,,,,,,,,,,,,,,,,,,,,,,,,,,,,,,,,,,,,,,,,,,,,,,,,,,,,,,,,,,,,,,,,,,,,,,,,,,,,,,,,,,,,,,,,,,,,,,,,,,,,,,,,,,,,,,,,,,,,,,,,
,,,,,,614a4c9d8172751921452626,62c538622c3cf42a78b91f1b,2022-07-06_24h23.57.254,Colour_Asymmetry_Pilot,2022.1.3,Win32,60.0024001,62c50e9c1127f2cd403a315f,0,98,98,81,1,onethree,,,,,,,,,,,,,,,,,,,,,,,,,,,,,,,,,,,,,,,,,,,,,,,,,,,,,,,,,,,,,,,,,,,,,,,,,,,,,,,,,,,,,,,,,,,,,,,,,,,,,,,,,,,,,,,,,,,,,,,,,,,,,,,,,,,,,,,,,,,,,,,,,,,,,,,,,,
,,,,,,614a4c9d8172751921452626,62c538622c3cf42a78b91f1b,2022-07-06_24h23.57.254,Colour_Asymmetry_Pilot,2022.1.3,Win32,60.0024001,62c50e9c1127f2cd403a315f,0,99,99,68,1,threeone,,,,,,,,,,,,,,,,,,,,,,,,,,,,,,,,,,,,,,,,,,,,,,,,,,,,,,,,,,,,,,,,,,,,,,,,,,,,,,,,,,,,,,,,,,,,,,,,,,,,,,,,,,,,,,,,,,,,,,,,,,,,,,,,,,,,,,,,,,,,,,,,,,,,,,,,,,
,,,,,,614a4c9d8172751921452626,62c538622c3cf42a78b91f1b,2022-07-06_24h23.57.254,Colour_Asymmetry_Pilot,2022.1.3,Win32,60.0024001,62c50e9c1127f2cd403a315f,0,100,100,49,1,onethree,,,,,,,,,,,,,,,,,,,,,,,,,,,,,,,,,,,,,,,,,,,,,,,,,,,,,,,,,,,,,,,,,,,,,,,,,,,,,,,,,,,,,,,,,,,,,,,,,,,,,,,,,,,,,,,,,,,,,,,,,,,,,,,,,,,,,,,,,,,,,,,,,,,,,,,,,,
,,,,,,614a4c9d8172751921452626,62c538622c3cf42a78b91f1b,2022-07-06_24h23.57.254,Colour_Asymmetry_Pilot,2022.1.3,Win32,60.0024001,62c50e9c1127f2cd403a315f,0,101,101,41,1,onethree,,,,,,,,,,,,,,,,,,,,,,,,,,,,,,,,,,,,,,,,,,,,,,,,,,,,,,,,,,,,,,,,,,,,,,,,,,,,,,,,,,,,,,,,,,,,,,,,,,,,,,,,,,,,,,,,,,,,,,,,,,,,,,,,,,,,,,,,,,,,,,,,,,,,,,,,,,
,,,,,,614a4c9d8172751921452626,62c538622c3cf42a78b91f1b,2022-07-06_24h23.57.254,Colour_Asymmetry_Pilot,2022.1.3,Win32,60.0024001,62c50e9c1127f2cd403a315f,0,102,102,0,1,onetwo,,,,,,,,,,,,,,,,,,,,,,,,,,,,,,,,,,,,,,,,,,,,,,,,,,,,,,,,,,,,,,,,,,,,,,,,,,,,,,,,,,,,,,,,,,,,,,,,,,,,,,,,,,,,,,,,,,,,,,,,,,,,,,,,,,,,,,,,,,,,,,,,,,,,,,,,,,
,,,,,,614a4c9d8172751921452626,62c538622c3cf42a78b91f1b,2022-07-06_24h23.57.254,Colour_Asymmetry_Pilot,2022.1.3,Win32,60.0024001,62c50e9c1127f2cd403a315f,0,103,103,25,1,onethree,,,,,,,,,,,,,,,,,,,,,,,,,,,,,,,,,,,,,,,,,,,,,,,,,,,,,,,,,,,,,,,,,,,,,,,,,,,,,,,,,,,,,,,,,,,,,,,,,,,,,,,,,,,,,,,,,,,,,,,,,,,,,,,,,,,,,,,,,,,,,,,,,,,,,,,,,,
,,,,,,614a4c9d8172751921452626,62c538622c3cf42a78b91f1b,2022-07-06_24h23.57.254,Colour_Asymmetry_Pilot,2022.1.3,Win32,60.0024001,62c50e9c1127f2cd403a315f,0,104,104,106,1,twoone,,,,,,,,,,,,,,,,,,,,,,,,,,,,,,,,,,,,,,,,,,,,,,,,,,,,,,,,,,,,,,,,,,,,,,,,,,,,,,,,,,,,,,,,,,,,,,,,,,,,,,,,,,,,,,,,,,,,,,,,,,,,,,,,,,,,,,,,,,,,,,,,,,,,,,,,,,
,,,,,,614a4c9d8172751921452626,62c538622c3cf42a78b91f1b,2022-07-06_24h23.57.254,Colour_Asymmetry_Pilot,2022.1.3,Win32,60.0024001,62c50e9c1127f2cd403a315f,0,105,105,100,1,threeone,,,,,,,,,,,,,,,,,,,,,,,,,,,,,,,,,,,,,,,,,,,,,,,,,,,,,,,,,,,,,,,,,,,,,,,,,,,,,,,,,,,,,,,,,,,,,,,,,,,,,,,,,,,,,,,,,,,,,,,,,,,,,,,,,,,,,,,,,,,,,,,,,,,,,,,,,,
,,,,,,614a4c9d8172751921452626,62c538622c3cf42a78b91f1b,2022-07-06_24h23.57.254,Colour_Asymmetry_Pilot,2022.1.3,Win32,60.0024001,62c50e9c1127f2cd403a315f,0,106,106,82,1,twoone,,,,,,,,,,,,,,,,,,,,,,,,,,,,,,,,,,,,,,,,,,,,,,,,,,,,,,,,,,,,,,,,,,,,,,,,,,,,,,,,,,,,,,,,,,,,,,,,,,,,,,,,,,,,,,,,,,,,,,,,,,,,,,,,,,,,,,,,,,,,,,,,,,,,,,,,,,
,,,,,,614a4c9d8172751921452626,62c538622c3cf42a78b91f1b,2022-07-06_24h23.57.254,Colour_Asymmetry_Pilot,2022.1.3,Win32,60.0024001,62c50e9c1127f2cd403a315f,0,107,107,11,1,twofour,,,,,,,,,,,,,,,,,,,,,,,,,,,,,,,,,,,,,,,,,,,,,,,,,,,,,,,,,,,,,,,,,,,,,,,,,,,,,,,,,,,,,,,,,,,,,,,,,,,,,,,,,,,,,,,,,,,,,,,,,,,,,,,,,,,,,,,,,,,,,,,,,,,,,,,,,,
,,,,,,614a4c9d8172751921452626,62c538622c3cf42a78b91f1b,2022-07-06_24h23.57.254,Colour_Asymmetry_Pilot,2022.1.3,Win32,60.0024001,62c50e9c1127f2cd403a315f,0,108,108,113,1,onethree,,,,,,,,,,,,,,,,,,,,,,,,,,,,,,,,,,,,,,,,,,,,,,,,,,,,,,,,,,,,,,,,,,,,,,,,,,,,,,,,,,,,,,,,,,,,,,,,,,,,,,,,,,,,,,,,,,,,,,,,,,,,,,,,,,,,,,,,,,,,,,,,,,,,,,,,,,
,,,,,,614a4c9d8172751921452626,62c538622c3cf42a78b91f1b,2022-07-06_24h23.57.254,Colour_Asymmetry_Pilot,2022.1.3,Win32,60.0024001,62c50e9c1127f2cd403a315f,0,109,109,103,1,fourthree,,,,,,,,,,,,,,,,,,,,,,,,,,,,,,,,,,,,,,,,,,,,,,,,,,,,,,,,,,,,,,,,,,,,,,,,,,,,,,,,,,,,,,,,,,,,,,,,,,,,,,,,,,,,,,,,,,,,,,,,,,,,,,,,,,,,,,,,,,,,,,,,,,,,,,,,,,
,,,,,,614a4c9d8172751921452626,62c538622c3cf42a78b91f1b,2022-07-06_24h23.57.254,Colour_Asymmetry_Pilot,2022.1.3,Win32,60.0024001,62c50e9c1127f2cd403a315f,0,110,110,83,1,twofour,,,,,,,,,,,,,,,,,,,,,,,,,,,,,,,,,,,,,,,,,,,,,,,,,,,,,,,,,,,,,,,,,,,,,,,,,,,,,,,,,,,,,,,,,,,,,,,,,,,,,,,,,,,,,,,,,,,,,,,,,,,,,,,,,,,,,,,,,,,,,,,,,,,,,,,,,,
,,,,,,614a4c9d8172751921452626,62c538622c3cf42a78b91f1b,2022-07-06_24h23.57.254,Colour_Asymmetry_Pilot,2022.1.3,Win32,60.0024001,62c50e9c1127f2cd403a315f,0,111,111,98,1,twoone,,,,,,,,,,,,,,,,,,,,,,,,,,,,,,,,,,,,,,,,,,,,,,,,,,,,,,,,,,,,,,,,,,,,,,,,,,,,,,,,,,,,,,,,,,,,,,,,,,,,,,,,,,,,,,,,,,,,,,,,,,,,,,,,,,,,,,,,,,,,,,,,,,,,,,,,,,
,,,,,,614a4c9d8172751921452626,62c538622c3cf42a78b91f1b,2022-07-06_24h23.57.254,Colour_Asymmetry_Pilot,2022.1.3,Win32,60.0024001,62c50e9c1127f2cd403a315f,0,112,112,47,1,fourthree,,,,,,,,,,,,,,,,,,,,,,,,,,,,,,,,,,,,,,,,,,,,,,,,,,,,,,,,,,,,,,,,,,,,,,,,,,,,,,,,,,,,,,,,,,,,,,,,,,,,,,,,,,,,,,,,,,,,,,,,,,,,,,,,,,,,,,,,,,,,,,,,,,,,,,,,,,
,,,,,,614a4c9d8172751921452626,62c538622c3cf42a78b91f1b,2022-07-06_24h23.57.254,Colour_Asymmetry_Pilot,2022.1.3,Win32,60.0024001,62c50e9c1127f2cd403a315f,0,113,113,70,1,fourtwo,,,,,,,,,,,,,,,,,,,,,,,,,,,,,,,,,,,,,,,,,,,,,,,,,,,,,,,,,,,,,,,,,,,,,,,,,,,,,,,,,,,,,,,,,,,,,,,,,,,,,,,,,,,,,,,,,,,,,,,,,,,,,,,,,,,,,,,,,,,,,,,,,,,,,,,,,,
,,,,,,614a4c9d8172751921452626,62c538622c3cf42a78b91f1b,2022-07-06_24h23.57.254,Colour_Asymmetry_Pilot,2022.1.3,Win32,60.0024001,62c50e9c1127f2cd403a315f,0,114,114,122,1,twoone,,,,,,,,,,,,,,,,,,,,,,,,,,,,,,,,,,,,,,,,,,,,,,,,,,,,,,,,,,,,,,,,,,,,,,,,,,,,,,,,,,,,,,,,,,,,,,,,,,,,,,,,,,,,,,,,,,,,,,,,,,,,,,,,,,,,,,,,,,,,,,,,,,,,,,,,,,
,,,,,,614a4c9d8172751921452626,62c538622c3cf42a78b91f1b,2022-07-06_24h23.57.254,Colour_Asymmetry_Pilot,2022.1.3,Win32,60.0024001,62c50e9c1127f2cd403a315f,0,115,115,7,1,fourthree,,,,,,,,,,,,,,,,,,,,,,,,,,,,,,,,,,,,,,,,,,,,,,,,,,,,,,,,,,,,,,,,,,,,,,,,,,,,,,,,,,,,,,,,,,,,,,,,,,,,,,,,,,,,,,,,,,,,,,,,,,,,,,,,,,,,,,,,,,,,,,,,,,,,,,,,,,
,,,,,,614a4c9d8172751921452626,62c538622c3cf42a78b91f1b,2022-07-06_24h23.57.254,Colour_Asymmetry_Pilot,2022.1.3,Win32,60.0024001,62c50e9c1127f2cd403a315f,0,116,116,132,1,threeone,,,,,,,,,,,,,,,,,,,,,,,,,,,,,,,,,,,,,,,,,,,,,,,,,,,,,,,,,,,,,,,,,,,,,,,,,,,,,,,,,,,,,,,,,,,,,,,,,,,,,,,,,,,,,,,,,,,,,,,,,,,,,,,,,,,,,,,,,,,,,,,,,,,,,,,,,,
,,,,,,614a4c9d8172751921452626,62c538622c3cf42a78b91f1b,2022-07-06_24h23.57.254,Colour_Asymmetry_Pilot,2022.1.3,Win32,60.0024001,62c50e9c1127f2cd403a315f,0,117,117,137,1,onethree,,,,,,,,,,,,,,,,,,,,,,,,,,,,,,,,,,,,,,,,,,,,,,,,,,,,,,,,,,,,,,,,,,,,,,,,,,,,,,,,,,,,,,,,,,,,,,,,,,,,,,,,,,,,,,,,,,,,,,,,,,,,,,,,,,,,,,,,,,,,,,,,,,,,,,,,,,
,,,,,,614a4c9d8172751921452626,62c538622c3cf42a78b91f1b,2022-07-06_24h23.57.254,Colour_Asymmetry_Pilot,2022.1.3,Win32,60.0024001,62c50e9c1127f2cd403a315f,0,118,118,126,1,fourtwo,,,,,,,,,,,,,,,,,,,,,,,,,,,,,,,,,,,,,,,,,,,,,,,,,,,,,,,,,,,,,,,,,,,,,,,,,,,,,,,,,,,,,,,,,,,,,,,,,,,,,,,,,,,,,,,,,,,,,,,,,,,,,,,,,,,,,,,,,,,,,,,,,,,,,,,,,,
,,,,,,614a4c9d8172751921452626,62c538622c3cf42a78b91f1b,2022-07-06_24h23.57.254,Colour_Asymmetry_Pilot,2022.1.3,Win32,60.0024001,62c50e9c1127f2cd403a315f,0,119,119,129,1,onethree,,,,,,,,,,,,,,,,,,,,,,,,,,,,,,,,,,,,,,,,,,,,,,,,,,,,,,,,,,,,,,,,,,,,,,,,,,,,,,,,,,,,,,,,,,,,,,,,,,,,,,,,,,,,,,,,,,,,,,,,,,,,,,,,,,,,,,,,,,,,,,,,,,,,,,,,,,
,,,,,,614a4c9d8172751921452626,62c538622c3cf42a78b91f1b,2022-07-06_24h23.57.254,Colour_Asymmetry_Pilot,2022.1.3,Win32,60.0024001,62c50e9c1127f2cd403a315f,0,120,120,45,1,threefour,,,,,,,,,,,,,,,,,,,,,,,,,,,,,,,,,,,,,,,,,,,,,,,,,,,,,,,,,,,,,,,,,,,,,,,,,,,,,,,,,,,,,,,,,,,,,,,,,,,,,,,,,,,,,,,,,,,,,,,,,,,,,,,,,,,,,,,,,,,,,,,,,,,,,,,,,,
,,,,,,614a4c9d8172751921452626,62c538622c3cf42a78b91f1b,2022-07-06_24h23.57.254,Colour_Asymmetry_Pilot,2022.1.3,Win32,60.0024001,62c50e9c1127f2cd403a315f,0,121,121,33,1,onethree,,,,,,,,,,,,,,,,,,,,,,,,,,,,,,,,,,,,,,,,,,,,,,,,,,,,,,,,,,,,,,,,,,,,,,,,,,,,,,,,,,,,,,,,,,,,,,,,,,,,,,,,,,,,,,,,,,,,,,,,,,,,,,,,,,,,,,,,,,,,,,,,,,,,,,,,,,
,,,,,,614a4c9d8172751921452626,62c538622c3cf42a78b91f1b,2022-07-06_24h23.57.254,Colour_Asymmetry_Pilot,2022.1.3,Win32,60.0024001,62c50e9c1127f2cd403a315f,0,122,122,123,1,twofour,,,,,,,,,,,,,,,,,,,,,,,,,,,,,,,,,,,,,,,,,,,,,,,,,,,,,,,,,,,,,,,,,,,,,,,,,,,,,,,,,,,,,,,,,,,,,,,,,,,,,,,,,,,,,,,,,,,,,,,,,,,,,,,,,,,,,,,,,,,,,,,,,,,,,,,,,,
,,,,,,614a4c9d8172751921452626,62c538622c3cf42a78b91f1b,2022-07-06_24h23.57.254,Colour_Asymmetry_Pilot,2022.1.3,Win32,60.0024001,62c50e9c1127f2cd403a315f,0,123,123,46,1,fourtwo,,,,,,,,,,,,,,,,,,,,,,,,,,,,,,,,,,,,,,,,,,,,,,,,,,,,,,,,,,,,,,,,,,,,,,,,,,,,,,,,,,,,,,,,,,,,,,,,,,,,,,,,,,,,,,,,,,,,,,,,,,,,,,,,,,,,,,,,,,,,,,,,,,,,,,,,,,
,,,,,,614a4c9d8172751921452626,62c538622c3cf42a78b91f1b,2022-07-06_24h23.57.254,Colour_Asymmetry_Pilot,2022.1.3,Win32,60.0024001,62c50e9c1127f2cd403a315f,0,124,124,115,1,twofour,,,,,,,,,,,,,,,,,,,,,,,,,,,,,,,,,,,,,,,,,,,,,,,,,,,,,,,,,,,,,,,,,,,,,,,,,,,,,,,,,,,,,,,,,,,,,,,,,,,,,,,,,,,,,,,,,,,,,,,,,,,,,,,,,,,,,,,,,,,,,,,,,,,,,,,,,,
,,,,,,614a4c9d8172751921452626,62c538622c3cf42a78b91f1b,2022-07-06_24h23.57.254,Colour_Asymmetry_Pilot,2022.1.3,Win32,60.0024001,62c50e9c1127f2cd403a315f,0,125,125,105,1,onethree,,,,,,,,,,,,,,,,,,,,,,,,,,,,,,,,,,,,,,,,,,,,,,,,,,,,,,,,,,,,,,,,,,,,,,,,,,,,,,,,,,,,,,,,,,,,,,,,,,,,,,,,,,,,,,,,,,,,,,,,,,,,,,,,,,,,,,,,,,,,,,,,,,,,,,,,,,
,,,,,,614a4c9d8172751921452626,62c538622c3cf42a78b91f1b,2022-07-06_24h23.57.254,Colour_Asymmetry_Pilot,2022.1.3,Win32,60.0024001,62c50e9c1127f2cd403a315f,0,126,126,24,1,onetwo,,,,,,,,,,,,,,,,,,,,,,,,,,,,,,,,,,,,,,,,,,,,,,,,,,,,,,,,,,,,,,,,,,,,,,,,,,,,,,,,,,,,,,,,,,,,,,,,,,,,,,,,,,,,,,,,,,,,,,,,,,,,,,,,,,,,,,,,,,,,,,,,,,,,,,,,,,
,,,,,,614a4c9d8172751921452626,62c538622c3cf42a78b91f1b,2022-07-06_24h23.57.254,Colour_Asymmetry_Pilot,2022.1.3,Win32,60.0024001,62c50e9c1127f2cd403a315f,0,127,127,159,1,fourthree,,,,,,,,,,,,,,,,,,,,,,,,,,,,,,,,,,,,,,,,,,,,,,,,,,,,,,,,,,,,,,,,,,,,,,,,,,,,,,,,,,,,,,,,,,,,,,,,,,,,,,,,,,,,,,,,,,,,,,,,,,,,,,,,,,,,,,,,,,,,,,,,,,,,,,,,,,
,,,,,,614a4c9d8172751921452626,62c538622c3cf42a78b91f1b,2022-07-06_24h23.57.254,Colour_Asymmetry_Pilot,2022.1.3,Win32,60.0024001,62c50e9c1127f2cd403a315f,0,128,128,2,1,twoone,,,,,,,,,,,,,,,,,,,,,,,,,,,,,,,,,,,,,,,,,,,,,,,,,,,,,,,,,,,,,,,,,,,,,,,,,,,,,,,,,,,,,,,,,,,,,,,,,,,,,,,,,,,,,,,,,,,,,,,,,,,,,,,,,,,,,,,,,,,,,,,,,,,,,,,,,,
,,,,,,614a4c9d8172751921452626,62c538622c3cf42a78b91f1b,2022-07-06_24h23.57.254,Colour_Asymmetry_Pilot,2022.1.3,Win32,60.0024001,62c50e9c1127f2cd403a315f,0,129,129,117,1,threefour,,,,,,,,,,,,,,,,,,,,,,,,,,,,,,,,,,,,,,,,,,,,,,,,,,,,,,,,,,,,,,,,,,,,,,,,,,,,,,,,,,,,,,,,,,,,,,,,,,,,,,,,,,,,,,,,,,,,,,,,,,,,,,,,,,,,,,,,,,,,,,,,,,,,,,,,,,
,,,,,,614a4c9d8172751921452626,62c538622c3cf42a78b91f1b,2022-07-06_24h23.57.254,Colour_Asymmetry_Pilot,2022.1.3,Win32,60.0024001,62c50e9c1127f2cd403a315f,0,130,130,75,1,twofour,,,,,,,,,,,,,,,,,,,,,,,,,,,,,,,,,,,,,,,,,,,,,,,,,,,,,,,,,,,,,,,,,,,,,,,,,,,,,,,,,,,,,,,,,,,,,,,,,,,,,,,,,,,,,,,,,,,,,,,,,,,,,,,,,,,,,,,,,,,,,,,,,,,,,,,,,,
,,,,,,614a4c9d8172751921452626,62c538622c3cf42a78b91f1b,2022-07-06_24h23.57.254,Colour_Asymmetry_Pilot,2022.1.3,Win32,60.0024001,62c50e9c1127f2cd403a315f,0,131,131,38,1,fourtwo,,,,,,,,,,,,,,,,,,,,,,,,,,,,,,,,,,,,,,,,,,,,,,,,,,,,,,,,,,,,,,,,,,,,,,,,,,,,,,,,,,,,,,,,,,,,,,,,,,,,,,,,,,,,,,,,,,,,,,,,,,,,,,,,,,,,,,,,,,,,,,,,,,,,,,,,,,
,,,,,,614a4c9d8172751921452626,62c538622c3cf42a78b91f1b,2022-07-06_24h23.57.254,Colour_Asymmetry_Pilot,2022.1.3,Win32,60.0024001,62c50e9c1127f2cd403a315f,0,132,132,20,1,threeone,,,,,,,,,,,,,,,,,,,,,,,,,,,,,,,,,,,,,,,,,,,,,,,,,,,,,,,,,,,,,,,,,,,,,,,,,,,,,,,,,,,,,,,,,,,,,,,,,,,,,,,,,,,,,,,,,,,,,,,,,,,,,,,,,,,,,,,,,,,,,,,,,,,,,,,,,,
,,,,,,614a4c9d8172751921452626,62c538622c3cf42a78b91f1b,2022-07-06_24h23.57.254,Colour_Asymmetry_Pilot,2022.1.3,Win32,60.0024001,62c50e9c1127f2cd403a315f,0,133,133,84,1,threeone,,,,,,,,,,,,,,,,,,,,,,,,,,,,,,,,,,,,,,,,,,,,,,,,,,,,,,,,,,,,,,,,,,,,,,,,,,,,,,,,,,,,,,,,,,,,,,,,,,,,,,,,,,,,,,,,,,,,,,,,,,,,,,,,,,,,,,,,,,,,,,,,,,,,,,,,,,
,,,,,,614a4c9d8172751921452626,62c538622c3cf42a78b91f1b,2022-07-06_24h23.57.254,Colour_Asymmetry_Pilot,2022.1.3,Win32,60.0024001,62c50e9c1127f2cd403a315f,0,134,134,51,1,twofour,,,,,,,,,,,,,,,,,,,,,,,,,,,,,,,,,,,,,,,,,,,,,,,,,,,,,,,,,,,,,,,,,,,,,,,,,,,,,,,,,,,,,,,,,,,,,,,,,,,,,,,,,,,,,,,,,,,,,,,,,,,,,,,,,,,,,,,,,,,,,,,,,,,,,,,,,,
,,,,,,614a4c9d8172751921452626,62c538622c3cf42a78b91f1b,2022-07-06_24h23.57.254,Colour_Asymmetry_Pilot,2022.1.3,Win32,60.0024001,62c50e9c1127f2cd403a315f,0,135,135,101,1,threefour,,,,,,,,,,,,,,,,,,,,,,,,,,,,,,,,,,,,,,,,,,,,,,,,,,,,,,,,,,,,,,,,,,,,,,,,,,,,,,,,,,,,,,,,,,,,,,,,,,,,,,,,,,,,,,,,,,,,,,,,,,,,,,,,,,,,,,,,,,,,,,,,,,,,,,,,,,
,,,,,,614a4c9d8172751921452626,62c538622c3cf42a78b91f1b,2022-07-06_24h23.57.254,Colour_Asymmetry_Pilot,2022.1.3,Win32,60.0024001,62c50e9c1127f2cd403a315f,0,136,136,92,1,threeone,,,,,,,,,,,,,,,,,,,,,,,,,,,,,,,,,,,,,,,,,,,,,,,,,,,,,,,,,,,,,,,,,,,,,,,,,,,,,,,,,,,,,,,,,,,,,,,,,,,,,,,,,,,,,,,,,,,,,,,,,,,,,,,,,,,,,,,,,,,,,,,,,,,,,,,,,,
,,,,,,614a4c9d8172751921452626,62c538622c3cf42a78b91f1b,2022-07-06_24h23.57.254,Colour_Asymmetry_Pilot,2022.1.3,Win32,60.0024001,62c50e9c1127f2cd403a315f,0,137,137,1,1,onethree,,,,,,,,,,,,,,,,,,,,,,,,,,,,,,,,,,,,,,,,,,,,,,,,,,,,,,,,,,,,,,,,,,,,,,,,,,,,,,,,,,,,,,,,,,,,,,,,,,,,,,,,,,,,,,,,,,,,,,,,,,,,,,,,,,,,,,,,,,,,,,,,,,,,,,,,,,
,,,,,,614a4c9d8172751921452626,62c538622c3cf42a78b91f1b,2022-07-06_24h23.57.254,Colour_Asymmetry_Pilot,2022.1.3,Win32,60.0024001,62c50e9c1127f2cd403a315f,0,138,138,125,1,threefour,,,,,,,,,,,,,,,,,,,,,,,,,,,,,,,,,,,,,,,,,,,,,,,,,,,,,,,,,,,,,,,,,,,,,,,,,,,,,,,,,,,,,,,,,,,,,,,,,,,,,,,,,,,,,,,,,,,,,,,,,,,,,,,,,,,,,,,,,,,,,,,,,,,,,,,,,,
,,,,,,614a4c9d8172751921452626,62c538622c3cf42a78b91f1b,2022-07-06_24h23.57.254,Colour_Asymmetry_Pilot,2022.1.3,Win32,60.0024001,62c50e9c1127f2cd403a315f,0,139,139,62,1,fourtwo,,,,,,,,,,,,,,,,,,,,,,,,,,,,,,,,,,,,,,,,,,,,,,,,,,,,,,,,,,,,,,,,,,,,,,,,,,,,,,,,,,,,,,,,,,,,,,,,,,,,,,,,,,,,,,,,,,,,,,,,,,,,,,,,,,,,,,,,,,,,,,,,,,,,,,,,,,
,,,,,,614a4c9d8172751921452626,62c538622c3cf42a78b91f1b,2022-07-06_24h23.57.254,Colour_Asymmetry_Pilot,2022.1.3,Win32,60.0024001,62c50e9c1127f2cd403a315f,0,140,140,149,1,threefour,,,,,,,,,,,,,,,,,,,,,,,,,,,,,,,,,,,,,,,,,,,,,,,,,,,,,,,,,,,,,,,,,,,,,,,,,,,,,,,,,,,,,,,,,,,,,,,,,,,,,,,,,,,,,,,,,,,,,,,,,,,,,,,,,,,,,,,,,,,,,,,,,,,,,,,,,,
,,,,,,614a4c9d8172751921452626,62c538622c3cf42a78b91f1b,2022-07-06_24h23.57.254,Colour_Asymmetry_Pilot,2022.1.3,Win32,60.0024001,62c50e9c1127f2cd403a315f,0,141,141,142,1,fourtwo,,,,,,,,,,,,,,,,,,,,,,,,,,,,,,,,,,,,,,,,,,,,,,,,,,,,,,,,,,,,,,,,,,,,,,,,,,,,,,,,,,,,,,,,,,,,,,,,,,,,,,,,,,,,,,,,,,,,,,,,,,,,,,,,,,,,,,,,,,,,,,,,,,,,,,,,,,
,,,,,,614a4c9d8172751921452626,62c538622c3cf42a78b91f1b,2022-07-06_24h23.57.254,Colour_Asymmetry_Pilot,2022.1.3,Win32,60.0024001,62c50e9c1127f2cd403a315f,0,142,142,55,1,fourthree,,,,,,,,,,,,,,,,,,,,,,,,,,,,,,,,,,,,,,,,,,,,,,,,,,,,,,,,,,,,,,,,,,,,,,,,,,,,,,,,,,,,,,,,,,,,,,,,,,,,,,,,,,,,,,,,,,,,,,,,,,,,,,,,,,,,,,,,,,,,,,,,,,,,,,,,,,
,,,,,,614a4c9d8172751921452626,62c538622c3cf42a78b91f1b,2022-07-06_24h23.57.254,Colour_Asymmetry_Pilot,2022.1.3,Win32,60.0024001,62c50e9c1127f2cd403a315f,0,143,143,73,1,onethree,,,,,,,,,,,,,,,,,,,,,,,,,,,,,,,,,,,,,,,,,,,,,,,,,,,,,,,,,,,,,,,,,,,,,,,,,,,,,,,,,,,,,,,,,,,,,,,,,,,,,,,,,,,,,,,,,,,,,,,,,,,,,,,,,,,,,,,,,,,,,,,,,,,,,,,,,,
,,,,,,614a4c9d8172751921452626,62c538622c3cf42a78b91f1b,2022-07-06_24h23.57.254,Colour_Asymmetry_Pilot,2022.1.3,Win32,60.0024001,62c50e9c1127f2cd403a315f,0,144,144,152,1,onetwo,,,,,,,,,,,,,,,,,,,,,,,,,,,,,,,,,,,,,,,,,,,,,,,,,,,,,,,,,,,,,,,,,,,,,,,,,,,,,,,,,,,,,,,,,,,,,,,,,,,,,,,,,,,,,,,,,,,,,,,,,,,,,,,,,,,,,,,,,,,,,,,,,,,,,,,,,,
,,,,,,614a4c9d8172751921452626,62c538622c3cf42a78b91f1b,2022-07-06_24h23.57.254,Colour_Asymmetry_Pilot,2022.1.3,Win32,60.0024001,62c50e9c1127f2cd403a315f,0,145,145,28,1,threeone,,,,,,,,,,,,,,,,,,,,,,,,,,,,,,,,,,,,,,,,,,,,,,,,,,,,,,,,,,,,,,,,,,,,,,,,,,,,,,,,,,,,,,,,,,,,,,,,,,,,,,,,,,,,,,,,,,,,,,,,,,,,,,,,,,,,,,,,,,,,,,,,,,,,,,,,,,
,,,,,,614a4c9d8172751921452626,62c538622c3cf42a78b91f1b,2022-07-06_24h23.57.254,Colour_Asymmetry_Pilot,2022.1.3,Win32,60.0024001,62c50e9c1127f2cd403a315f,0,146,146,59,1,twofour,,,,,,,,,,,,,,,,,,,,,,,,,,,,,,,,,,,,,,,,,,,,,,,,,,,,,,,,,,,,,,,,,,,,,,,,,,,,,,,,,,,,,,,,,,,,,,,,,,,,,,,,,,,,,,,,,,,,,,,,,,,,,,,,,,,,,,,,,,,,,,,,,,,,,,,,,,
,,,,,,614a4c9d8172751921452626,62c538622c3cf42a78b91f1b,2022-07-06_24h23.57.254,Colour_Asymmetry_Pilot,2022.1.3,Win32,60.0024001,62c50e9c1127f2cd403a315f,0,147,147,135,1,fourthree,,,,,,,,,,,,,,,,,,,,,,,,,,,,,,,,,,,,,,,,,,,,,,,,,,,,,,,,,,,,,,,,,,,,,,,,,,,,,,,,,,,,,,,,,,,,,,,,,,,,,,,,,,,,,,,,,,,,,,,,,,,,,,,,,,,,,,,,,,,,,,,,,,,,,,,,,,
,,,,,,614a4c9d8172751921452626,62c538622c3cf42a78b91f1b,2022-07-06_24h23.57.254,Colour_Asymmetry_Pilot,2022.1.3,Win32,60.0024001,62c50e9c1127f2cd403a315f,0,148,148,35,1,twofour,,,,,,,,,,,,,,,,,,,,,,,,,,,,,,,,,,,,,,,,,,,,,,,,,,,,,,,,,,,,,,,,,,,,,,,,,,,,,,,,,,,,,,,,,,,,,,,,,,,,,,,,,,,,,,,,,,,,,,,,,,,,,,,,,,,,,,,,,,,,,,,,,,,,,,,,,,
,,,,,,614a4c9d8172751921452626,62c538622c3cf42a78b91f1b,2022-07-06_24h23.57.254,Colour_Asymmetry_Pilot,2022.1.3,Win32,60.0024001,62c50e9c1127f2cd403a315f,0,149,149,161,1,onethree,,,,,,,,,,,,,,,,,,,,,,,,,,,,,,,,,,,,,,,,,,,,,,,,,,,,,,,,,,,,,,,,,,,,,,,,,,,,,,,,,,,,,,,,,,,,,,,,,,,,,,,,,,,,,,,,,,,,,,,,,,,,,,,,,,,,,,,,,,,,,,,,,,,,,,,,,,
,,,,,,614a4c9d8172751921452626,62c538622c3cf42a78b91f1b,2022-07-06_24h23.57.254,Colour_Asymmetry_Pilot,2022.1.3,Win32,60.0024001,62c50e9c1127f2cd403a315f,0,150,150,10,1,twoone,,,,,,,,,,,,,,,,,,,,,,,,,,,,,,,,,,,,,,,,,,,,,,,,,,,,,,,,,,,,,,,,,,,,,,,,,,,,,,,,,,,,,,,,,,,,,,,,,,,,,,,,,,,,,,,,,,,,,,,,,,,,,,,,,,,,,,,,,,,,,,,,,,,,,,,,,,
,,,,,,614a4c9d8172751921452626,62c538622c3cf42a78b91f1b,2022-07-06_24h23.57.254,Colour_Asymmetry_Pilot,2022.1.3,Win32,60.0024001,62c50e9c1127f2cd403a315f,0,151,151,127,1,fourthree,,,,,,,,,,,,,,,,,,,,,,,,,,,,,,,,,,,,,,,,,,,,,,,,,,,,,,,,,,,,,,,,,,,,,,,,,,,,,,,,,,,,,,,,,,,,,,,,,,,,,,,,,,,,,,,,,,,,,,,,,,,,,,,,,,,,,,,,,,,,,,,,,,,,,,,,,,
,,,,,,614a4c9d8172751921452626,62c538622c3cf42a78b91f1b,2022-07-06_24h23.57.254,Colour_Asymmetry_Pilot,2022.1.3,Win32,60.0024001,62c50e9c1127f2cd403a315f,0,152,152,131,1,twofour,,,,,,,,,,,,,,,,,,,,,,,,,,,,,,,,,,,,,,,,,,,,,,,,,,,,,,,,,,,,,,,,,,,,,,,,,,,,,,,,,,,,,,,,,,,,,,,,,,,,,,,,,,,,,,,,,,,,,,,,,,,,,,,,,,,,,,,,,,,,,,,,,,,,,,,,,,
,,,,,,614a4c9d8172751921452626,62c538622c3cf42a78b91f1b,2022-07-06_24h23.57.254,Colour_Asymmetry_Pilot,2022.1.3,Win32,60.0024001,62c50e9c1127f2cd403a315f,0,153,153,141,1,threefour,,,,,,,,,,,,,,,,,,,,,,,,,,,,,,,,,,,,,,,,,,,,,,,,,,,,,,,,,,,,,,,,,,,,,,,,,,,,,,,,,,,,,,,,,,,,,,,,,,,,,,,,,,,,,,,,,,,,,,,,,,,,,,,,,,,,,,,,,,,,,,,,,,,,,,,,,,
,,,,,,614a4c9d8172751921452626,62c538622c3cf42a78b91f1b,2022-07-06_24h23.57.254,Colour_Asymmetry_Pilot,2022.1.3,Win32,60.0024001,62c50e9c1127f2cd403a315f,0,154,154,85,1,threefour,,,,,,,,,,,,,,,,,,,,,,,,,,,,,,,,,,,,,,,,,,,,,,,,,,,,,,,,,,,,,,,,,,,,,,,,,,,,,,,,,,,,,,,,,,,,,,,,,,,,,,,,,,,,,,,,,,,,,,,,,,,,,,,,,,,,,,,,,,,,,,,,,,,,,,,,,,
,,,,,,614a4c9d8172751921452626,62c538622c3cf42a78b91f1b,2022-07-06_24h23.57.254,Colour_Asymmetry_Pilot,2022.1.3,Win32,60.0024001,62c50e9c1127f2cd403a315f,0,155,155,145,1,onethree,,,,,,,,,,,,,,,,,,,,,,,,,,,,,,,,,,,,,,,,,,,,,,,,,,,,,,,,,,,,,,,,,,,,,,,,,,,,,,,,,,,,,,,,,,,,,,,,,,,,,,,,,,,,,,,,,,,,,,,,,,,,,,,,,,,,,,,,,,,,,,,,,,,,,,,,,,
,,,,,,614a4c9d8172751921452626,62c538622c3cf42a78b91f1b,2022-07-06_24h23.57.254,Colour_Asymmetry_Pilot,2022.1.3,Win32,60.0024001,62c50e9c1127f2cd403a315f,0,156,156,66,1,twoone,,,,,,,,,,,,,,,,,,,,,,,,,,,,,,,,,,,,,,,,,,,,,,,,,,,,,,,,,,,,,,,,,,,,,,,,,,,,,,,,,,,,,,,,,,,,,,,,,,,,,,,,,,,,,,,,,,,,,,,,,,,,,,,,,,,,,,,,,,,,,,,,,,,,,,,,,,
,,,,,,614a4c9d8172751921452626,62c538622c3cf42a78b91f1b,2022-07-06_24h23.57.254,Colour_Asymmetry_Pilot,2022.1.3,Win32,60.0024001,62c50e9c1127f2cd403a315f,0,157,157,90,1,twoone,,,,,,,,,,,,,,,,,,,,,,,,,,,,,,,,,,,,,,,,,,,,,,,,,,,,,,,,,,,,,,,,,,,,,,,,,,,,,,,,,,,,,,,,,,,,,,,,,,,,,,,,,,,,,,,,,,,,,,,,,,,,,,,,,,,,,,,,,,,,,,,,,,,,,,,,,,
,,,,,,614a4c9d8172751921452626,62c538622c3cf42a78b91f1b,2022-07-06_24h23.57.254,Colour_Asymmetry_Pilot,2022.1.3,Win32,60.0024001,62c50e9c1127f2cd403a315f,0,158,158,21,1,threefour,,,,,,,,,,,,,,,,,,,,,,,,,,,,,,,,,,,,,,,,,,,,,,,,,,,,,,,,,,,,,,,,,,,,,,,,,,,,,,,,,,,,,,,,,,,,,,,,,,,,,,,,,,,,,,,,,,,,,,,,,,,,,,,,,,,,,,,,,,,,,,,,,,,,,,,,,,
,,,,,,614a4c9d8172751921452626,62c538622c3cf42a78b91f1b,2022-07-06_24h23.57.254,Colour_Asymmetry_Pilot,2022.1.3,Win32,60.0024001,62c50e9c1127f2cd403a315f,0,159,159,143,1,fourthree,,,,,,,,,,,,,,,,,,,,,,,,,,,,,,,,,,,,,,,,,,,,,,,,,,,,,,,,,,,,,,,,,,,,,,,,,,,,,,,,,,,,,,,,,,,,,,,,,,,,,,,,,,,,,,,,,,,,,,,,,,,,,,,,,,,,,,,,,,,,,,,,,,,,,,,,,,
,,,,,,614a4c9d8172751921452626,62c538622c3cf42a78b91f1b,2022-07-06_24h23.57.254,Colour_Asymmetry_Pilot,2022.1.3,Win32,60.0024001,62c50e9c1127f2cd403a315f,0,160,160,69,1,threefour,,,,,,,,,,,,,,,,,,,,,,,,,,,,,,,,,,,,,,,,,,,,,,,,,,,,,,,,,,,,,,,,,,,,,,,,,,,,,,,,,,,,,,,,,,,,,,,,,,,,,,,,,,,,,,,,,,,,,,,,,,,,,,,,,,,,,,,,,,,,,,,,,,,,,,,,,,
,,,,,,614a4c9d8172751921452626,62c538622c3cf42a78b91f1b,2022-07-06_24h23.57.254,Colour_Asymmetry_Pilot,2022.1.3,Win32,60.0024001,62c50e9c1127f2cd403a315f,0,161,161,111,1,fourthree,,,,,,,,,,,,,,,,,,,,,,,,,,,,,,,,,,,,,,,,,,,,,,,,,,,,,,,,,,,,,,,,,,,,,,,,,,,,,,,,,,,,,,,,,,,,,,,,,,,,,,,,,,,,,,,,,,,,,,,,,,,,,,,,,,,,,,,,,,,,,,,,,,,,,,,,,,
,,,,,,614a4c9d8172751921452626,62c538622c3cf42a78b91f1b,2022-07-06_24h23.57.254,Colour_Asymmetry_Pilot,2022.1.3,Win32,60.0024001,62c50e9c1127f2cd403a315f,,,,,,,space,4.4292,space,14.3719,space,36.4556,space,5.6317,space,2.8481,space,4.204,"[0.8115999999999999,-0.0040000000000000036,-0.09819999999999995]",threefour,"[-0.4902000000000001,0.2704,-0.45899999999999996]",-1,22.7372,-78,-138,1,0,0,response5disk_5,11,0,1,0,0,rectangle_8,11,0,1,0,0,3,11,0,1,0,0,0,0,0,0,1,,,,,,,,,,,,,,,,,,,,,,,,,,,,,,,,,,,,,,,,,,,,,,,,,,,,,,,,,,,,,,,,,,,,,,,,,,,,,,,,,,,,,,,,,,,,,,,,,,,,,,,,,,,,,
,,,,,,614a4c9d8172751921452626,62c538622c3cf42a78b91f1b,2022-07-06_24h23.57.254,Colour_Asymmetry_Pilot,2022.1.3,Win32,60.0024001,62c50e9c1127f2cd403a315f,,,,,,,,,,,,,,,,,,,"[0.0351999999999999,0.41159999999999997,0.0038000000000000256]",fourtwo,"[-0.8118,-0.8198,-0.5452]",-4,9.044,-57,104,1,0,0,response7disk_5,-33,-4,1,0,0,rectangle_8,-33,-4,1,0,0,3,-33,-4,1,0,0,1,0,1,0,1,,,,,,,,,,,,,,,,,,,,,,,,,,,,,,,,,,,,,,,,,,,,,,,,,,,,,,,,,,,,,,,,,,,,,,,,,,,,,,,,,,,,,,,,,,,,,,,,,,,,,,,,,,,,,
,,,,,,614a4c9d8172751921452626,62c538622c3cf42a78b91f1b,2022-07-06_24h23.57.254,Colour_Asymmetry_Pilot,2022.1.3,Win32,60.0024001,62c50e9c1127f2cd403a315f,,,,,,,,,,,,,,,,,,,"[0.2784,-0.31000000000000005,-0.5452]",threeone,"[0.19199999999999995,0.18419999999999992,0.5136000000000001]",-4,5.2285,-34,105,1,0,0,response7disk_5,13,5,1,0,0,rectangle_8,13,5,1,0,0,3,13,5,1,0,0,2,0,2,0,1,,,,,,,,,,,,,,,,,,,,,,,,,,,,,,,,,,,,,,,,,,,,,,,,,,,,,,,,,,,,,,,,,,,,,,,,,,,,,,,,,,,,,,,,,,,,,,,,,,,,,,,,,,,,,
,,,,,,614a4c9d8172751921452626,62c538622c3cf42a78b91f1b,2022-07-06_24h23.57.254,Colour_Asymmetry_Pilot,2022.1.3,Win32,60.0024001,62c50e9c1127f2cd403a315f,,,,,,,,,,,,,,,,,,,"[-0.9688,-0.4902000000000001,-0.12159999999999993]",onetwo,"[-0.9138,-0.5296000000000001,-0.5529999999999999]",-1,3.8042,-28,-74,1,0,0,response5disk_5,14,4,1,0,0,rectangle_8,14,4,1,0,0,3,14,4,1,0,0,3,0,3,0,1,,,,,,,,,,,,,,,,,,,,,,,,,,,,,,,,,,,,,,,,,,,,,,,,,,,,,,,,,,,,,,,,,,,,,,,,,,,,,,,,,,,,,,,,,,,,,,,,,,,,,,,,,,,,,
,,,,,,614a4c9d8172751921452626,62c538622c3cf42a78b91f1b,2022-07-06_24h23.57.254,Colour_Asymmetry_Pilot,2022.1.3,Win32,60.0024001,62c50e9c1127f2cd403a315f,,,,,,,,,,,,,,,,,,,"[-0.6235999999999999,-0.6786,-0.08239999999999992]",twoone,"[0.7646000000000002,0.07440000000000002,0.2704]",-3,4.1735,-81,35,1,0,0,response7disk_5,38,-10,1,0,0,rectangle_8,38,-10,1,0,0,3,38,-10,1,0,0,4,0,4,0,1,,,,,,,,,,,,,,,,,,,,,,,,,,,,,,,,,,,,,,,,,,,,,,,,,,,,,,,,,,,,,,,,,,,,,,,,,,,,,,,,,,,,,,,,,,,,,,,,,,,,,,,,,,,,,
,,,,,,614a4c9d8172751921452626,62c538622c3cf42a78b91f1b,2022-07-06_24h23.57.254,Colour_Asymmetry_Pilot,2022.1.3,Win32,60.0024001,62c50e9c1127f2cd403a315f,,,,,,,,,,,,,,,,,,,"[-0.34920000000000007,-0.702,-0.5216]",twofour,"[0.3802000000000001,0.19199999999999995,-0.6394]",-2,2.8937,-82,-36,1,0,0,response5disk_5,11,4,1,0,0,rectangle_8,11,4,1,0,0,3,11,4,1,0,0,5,0,5,0,1,,,,,,,,,,,,,,,,,,,,,,,,,,,,,,,,,,,,,,,,,,,,,,,,,,,,,,,,,,,,,,,,,,,,,,,,,,,,,,,,,,,,,,,,,,,,,,,,,,,,,,,,,,,,,
,,,,,,614a4c9d8172751921452626,62c538622c3cf42a78b91f1b,2022-07-06_24h23.57.254,Colour_Asymmetry_Pilot,2022.1.3,Win32,60.0024001,62c50e9c1127f2cd403a315f,,,,,,,,,,,,,,,,,,,"[0.7646000000000002,0.07440000000000002,0.2704]",onethree,"[0.3568,-0.20799999999999996,-0.9844]",-2,2.5576,-108,-46,1,0,0,response5disk_5,-5,1,1,0,0,rectangle_8,-5,1,1,0,0,3,-5,1,1,0,0,6,0,6,0,1,,,,,,,,,,,,,,,,,,,,,,,,,,,,,,,,,,,,,,,,,,,,,,,,,,,,,,,,,,,,,,,,,,,,,,,,,,,,,,,,,,,,,,,,,,,,,,,,,,,,,,,,,,,,,
,,,,,,614a4c9d8172751921452626,62c538622c3cf42a78b91f1b,2022-07-06_24h23.57.254,Colour_Asymmetry_Pilot,2022.1.3,Win32,60.0024001,62c50e9c1127f2cd403a315f,,,,,,,,,,,,,,,,,,,,threefour,,-1,1.3079,,,,,,,,,,,,,,,,,,,,,,,,,,,,,space,4.3123,"[0.5528,0.7409999999999999,-0.71]","[0.0351999999999999,0.41159999999999997,0.0038000000000000256]",-65,-121,1,0,0,response5disk,13,1,1,0,0,rectangle,13,1,1,0,0,,1,0.0009,0,13,1,1,0,0,0,0,0,108,1,27,second,,,,,,,,,,,,,,,,,,,,,,,,,,,,,,,,,,,,,,,,,,,,,,,,,,,,,,,,,,,,,,,,,,,,,,,,
,,,,,,614a4c9d8172751921452626,62c538622c3cf42a78b91f1b,2022-07-06_24h23.57.254,Colour_Asymmetry_Pilot,2022.1.3,Win32,60.0024001,62c50e9c1127f2cd403a315f,,,,,,,,,,,,,,,,,,,,fourthree,,1,1.842,,,,,,,,,,,,,,,,,,,,,,,,,,,,,,,"[-0.9296,-0.12959999999999994,-0.043199999999999905]","[-0.9844,-0.9688,-0.9922]",34,-128,1,0,0,response3disk,29,6,1,0,0,rectangle,29,6,1,0,0,,2,0.0007,0,29,6,1,0,0,0,1,1,126,1,45,second,,,,,,,,,,,,,,,,,,,,,,,,,,,,,,,,,,,,,,,,,,,,,,,,,,,,,,,,,,,,,,,,,,,,,,,,
,,,,,,614a4c9d8172751921452626,62c538622c3cf42a78b91f1b,2022-07-06_24h23.57.254,Colour_Asymmetry_Pilot,2022.1.3,Win32,60.0024001,62c50e9c1127f2cd403a315f,,,,,,,,,,,,,,,,,,,,onetwo,,1,5.0329,,,,,,,,,,,,,,,,,,,,,,,,,,,,,,,"[-0.7412000000000001,-0.08239999999999992,-0.6864]","[-0.4746,-0.0354000000000001,0.5449999999999999]",60,-95,1,0,0,response3disk,35,2,1,0,0,rectangle,35,2,1,0,0,,3,0.0013,0,35,2,1,0,0,0,2,2,109,1,28,second,,,,,,,,,,,,,,,,,,,,,,,,,,,,,,,,,,,,,,,,,,,,,,,,,,,,,,,,,,,,,,,,,,,,,,,,
,,,,,,614a4c9d8172751921452626,62c538622c3cf42a78b91f1b,2022-07-06_24h23.57.254,Colour_Asymmetry_Pilot,2022.1.3,Win32,60.0024001,62c50e9c1127f2cd403a315f,,,,,,,,,,,,,,,,,,,,onetwo,,2,0.7445,,,,,,,,,,,,,,,,,,,,,,,,,,,,,,,"[0.22340000000000004,-0.9296,-0.7884]","[0.7646000000000002,0.07440000000000002,0.2704]",128,-67,1,0,0,response3disk,27,-2,1,0,0,rectangle,27,-2,1,0,0,,1,0.0008,0,27,-2,1,0,0,0,3,3,99,1,18,second,,,,,,,,,,,,,,,,,,,,,,,,,,,,,,,,,,,,,,,,,,,,,,,,,,,,,,,,,,,,,,,,,,,,,,,,
,,,,,,614a4c9d8172751921452626,62c538622c3cf42a78b91f1b,2022-07-06_24h23.57.254,Colour_Asymmetry_Pilot,2022.1.3,Win32,60.0024001,62c50e9c1127f2cd403a315f,,,,,,,,,,,,,,,,,,,,onethree,,-2,1.7282,,,,,,,,,,,,,,,,,,,,,,,,,,,,,,,"[0.7802,-0.23140000000000005,-0.20799999999999996]","[0.9763999999999999,0.8588,-0.05900000000000005]",-83,-60,1,0,0,response5disk,-11,8,1,0,0,rectangle,-11,8,1,0,0,,3,0.0011,0,-11,8,1,0,0,0,4,4,91,1,10,second,,,,,,,,,,,,,,,,,,,,,,,,,,,,,,,,,,,,,,,,,,,,,,,,,,,,,,,,,,,,,,,,,,,,,,,,
,,,,,,614a4c9d8172751921452626,62c538622c3cf42a78b91f1b,2022-07-06_24h23.57.254,Colour_Asymmetry_Pilot,2022.1.3,Win32,60.0024001,62c50e9c1127f2cd403a315f,,,,,,,,,,,,,,,,,,,,onetwo,,1,1.6459,,,,,,,,,,,,,,,,,,,,,,,,,,,,,,,"[0.7018,0.7176,0.6155999999999999]","[-0.2942,-0.24719999999999998,-0.357]",40,-119,1,0,0,response3disk,17,-4,1,0,0,rectangle,17,-4,1,0,0,,1,0.0006,0,17,-4,1,0,0,0,5,5,123,1,42,second,,,,,,,,,,,,,,,,,,,,,,,,,,,,,,,,,,,,,,,,,,,,,,,,,,,,,,,,,,,,,,,,,,,,,,,,
,,,,,,614a4c9d8172751921452626,62c538622c3cf42a78b91f1b,2022-07-06_24h23.57.254,Colour_Asymmetry_Pilot,2022.1.3,Win32,60.0024001,62c50e9c1127f2cd403a315f,,,,,,,,,,,,,,,,,,,,onetwo,,4,0.9071,,,,,,,,,,,,,,,,,,,,,,,,,,,,,,,"[-0.8982,-0.37259999999999993,0.2784]","[-0.4746,-0.0354000000000001,0.5449999999999999]",66,98,1,0,0,response1disk,3,-10,1,0,0,rectangle,3,-10,1,0,0,,2,0.0011,0,3,-10,1,0,0,0,6,6,87,1,6,second,,,,,,,,,,,,,,,,,,,,,,,,,,,,,,,,,,,,,,,,,,,,,,,,,,,,,,,,,,,,,,,,,,,,,,,,
,,,,,,614a4c9d8172751921452626,62c538622c3cf42a78b91f1b,2022-07-06_24h23.57.254,Colour_Asymmetry_Pilot,2022.1.3,Win32,60.0024001,62c50e9c1127f2cd403a315f,,,,,,,,,,,,,,,,,,,,fourtwo,,1,1.9602,,,,,,,,,,,,,,,,,,,,,,,,,,,,,,,"[0.34099999999999997,0.12939999999999996,-0.9766]","[-0.17659999999999998,0.3253999999999999,0.19999999999999996]",34,-132,1,0,0,response3disk,-1,8,1,0,0,rectangle,-1,8,1,0,0,,2,0.0002,0,-1,8,1,0,0,0,7,7,58,1,58,first,,,,,,,,,,,,,,,,,,,,,,,,,,,,,,,,,,,,,,,,,,,,,,,,,,,,,,,,,,,,,,,,,,,,,,,,
,,,,,,614a4c9d8172751921452626,62c538622c3cf42a78b91f1b,2022-07-06_24h23.57.254,Colour_Asymmetry_Pilot,2022.1.3,Win32,60.0024001,62c50e9c1127f2cd403a315f,,,,,,,,,,,,,,,,,,,,twoone,,-3,1.2463,,,,,,,,,,,,,,,,,,,,,,,,,,,,,,,"[0.7802,-0.23140000000000005,-0.20799999999999996]","[-0.45899999999999996,-0.3256,-0.9374]",-88,41,1,0,0,response7disk,18,1,1,0,0,rectangle,18,1,1,0,0,,3,0.0005,0,18,1,1,0,0,0,8,8,47,1,47,first,,,,,,,,,,,,,,,,,,,,,,,,,,,,,,,,,,,,,,,,,,,,,,,,,,,,,,,,,,,,,,,,,,,,,,,,
,,,,,,614a4c9d8172751921452626,62c538622c3cf42a78b91f1b,2022-07-06_24h23.57.254,Colour_Asymmetry_Pilot,2022.1.3,Win32,60.0024001,62c50e9c1127f2cd403a315f,,,,,,,,,,,,,,,,,,,,twofour,,-4,1.7758,,,,,,,,,,,,,,,,,,,,,,,,,,,,,,,"[-0.09019999999999995,0.44300000000000006,0.5371999999999999]","[0.09799999999999986,-0.24719999999999998,0.15280000000000005]",-53,89,1,0,0,response7disk,-23,3,1,0,0,rectangle,-23,3,1,0,0,,3,0.0004,0,-23,3,1,0,0,0,9,9,61,1,61,first,,,,,,,,,,,,,,,,,,,,,,,,,,,,,,,,,,,,,,,,,,,,,,,,,,,,,,,,,,,,,,,,,,,,,,,,
,,,,,,614a4c9d8172751921452626,62c538622c3cf42a78b91f1b,2022-07-06_24h23.57.254,Colour_Asymmetry_Pilot,2022.1.3,Win32,60.0024001,62c50e9c1127f2cd403a315f,,,,,,,,,,,,,,,,,,,,onetwo,,-4,1.1244,,,,,,,,,,,,,,,,,,,,,,,,,,,,,,,"[-0.45899999999999996,-0.3256,-0.9374]","[0.7802,-0.23140000000000005,-0.20799999999999996]",-52,96,1,0,0,response7disk,12,-3,1,0,0,rectangle,12,-3,1,0,0,,2,0.001,0,12,-3,1,0,0,0,10,10,128,1,47,second,,,,,,,,,,,,,,,,,,,,,,,,,,,,,,,,,,,,,,,,,,,,,,,,,,,,,,,,,,,,,,,,,,,,,,,,
,,,,,,614a4c9d8172751921452626,62c538622c3cf42a78b91f1b,2022-07-06_24h23.57.254,Colour_Asymmetry_Pilot,2022.1.3,Win32,60.0024001,62c50e9c1127f2cd403a315f,,,,,,,,,,,,,,,,,,,,onetwo,,-4,1.0597,,,,,,,,,,,,,,,,,,,,,,,,,,,,,,,"[0.6547999999999998,-0.043199999999999905,-0.011800000000000033]","[-0.07459999999999989,0.12139999999999995,-0.9922]",-35,108,1,0,0,response7disk,-2,-10,1,0,0,rectangle,-2,-10,1,0,0,,3,0.0004,0,-2,-10,1,0,0,0,11,11,2,1,2,first,,,,,,,,,,,,,,,,,,,,,,,,,,,,,,,,,,,,,,,,,,,,,,,,,,,,,,,,,,,,,,,,,,,,,,,,
,,,,,,614a4c9d8172751921452626,62c538622c3cf42a78b91f1b,2022-07-06_24h23.57.254,Colour_Asymmetry_Pilot,2022.1.3,Win32,60.0024001,62c50e9c1127f2cd403a315f,,,,,,,,,,,,,,,,,,,,threefour,,-3,0.7226,,,,,,,,,,,,,,,,,,,,,,,,,,,,,,,"[-0.050999999999999934,-0.6706000000000001,-0.804]","[-0.48240000000000005,0.3175999999999999,0.2156]",-77,45,1,0,0,response7disk,-6,-6,1,0,0,rectangle,-6,-6,1,0,0,,2,0.0005,0,-6,-6,1,0,0,0,12,12,134,1,53,second,,,,,,,,,,,,,,,,,,,,,,,,,,,,,,,,,,,,,,,,,,,,,,,,,,,,,,,,,,,,,,,,,,,,,,,,
,,,,,,614a4c9d8172751921452626,62c538622c3cf42a78b91f1b,2022-07-06_24h23.57.254,Colour_Asymmetry_Pilot,2022.1.3,Win32,60.0024001,62c50e9c1127f2cd403a315f,,,,,,,,,,,,,,,,,,,,twofour,,1,1.678,,,,,,,,,,,,,,,,,,,,,,,,,,,,,,,"[0.2784,-0.31000000000000005,-0.5452]","[0.7176,-0.906,-0.6864]",61,-105,1,0,0,response3disk,-19,6,1,0,0,rectangle,-19,6,1,0,0,,2,0.0008,0,-19,6,1,0,0,0,13,13,122,1,41,second,,,,,,,,,,,,,,,,,,,,,,,,,,,,,,,,,,,,,,,,,,,,,,,,,,,,,,,,,,,,,,,,,,,,,,,,
,,,,,,614a4c9d8172751921452626,62c538622c3cf42a78b91f1b,2022-07-06_24h23.57.254,Colour_Asymmetry_Pilot,2022.1.3,Win32,60.0024001,62c50e9c1127f2cd403a315f,,,,,,,,,,,,,,,,,,,,fourtwo,,-4,1.0443,,,,,,,,,,,,,,,,,,,,,,,,,,,,,,,"[0.18419999999999992,-0.4276,-0.404]","[-0.4276,0.0038000000000000256,-0.3256]",-62,97,1,0,0,response7disk,5,5,1,0,0,rectangle,5,5,1,0,0,,1,0.0013,0,5,5,1,0,0,0,14,14,64,1,64,first,,,,,,,,,,,,,,,,,,,,,,,,,,,,,,,,,,,,,,,,,,,,,,,,,,,,,,,,,,,,,,,,,,,,,,,,
,,,,,,614a4c9d8172751921452626,62c538622c3cf42a78b91f1b,2022-07-06_24h23.57.254,Colour_Asymmetry_Pilot,2022.1.3,Win32,60.0024001,62c50e9c1127f2cd403a315f,,,,,,,,,,,,,,,,,,,,onetwo,,-1,2.9158,,,,,,,,,,,,,,,,,,,,,,,,,,,,,,,"[-0.5688,-0.08239999999999992,-0.1844]","[-0.10599999999999998,-0.10599999999999998,0.5841999999999998]",-43,-87,1,0,0,response5disk,-7,-2,1,0,0,rectangle,-7,-2,1,0,0,,3,0.0011,0,-7,-2,1,0,0,0,15,15,30,1,30,first,,,,,,,,,,,,,,,,,,,,,,,,,,,,,,,,,,,,,,,,,,,,,,,,,,,,,,,,,,,,,,,,,,,,,,,,
,,,,,,614a4c9d8172751921452626,62c538622c3cf42a78b91f1b,2022-07-06_24h23.57.254,Colour_Asymmetry_Pilot,2022.1.3,Win32,60.0024001,62c50e9c1127f2cd403a315f,,,,,,,,,,,,,,,,,,,,threefour,,-4,2.1434,,,,,,,,,,,,,,,,,,,,,,,,,,,,,,,"[0.3802000000000001,0.19199999999999995,-0.6394]","[-0.4668,-0.8746,-0.2942]",-35,76,1,0,0,response7disk,10,4,1,0,0,rectangle,10,4,1,0,0,,2,0.0011,0,10,4,1,0,0,0,16,16,25,1,25,first,,,,,,,,,,,,,,,,,,,,,,,,,,,,,,,,,,,,,,,,,,,,,,,,,,,,,,,,,,,,,,,,,,,,,,,,
,,,,,,614a4c9d8172751921452626,62c538622c3cf42a78b91f1b,2022-07-06_24h23.57.254,Colour_Asymmetry_Pilot,2022.1.3,Win32,60.0024001,62c50e9c1127f2cd403a315f,,,,,,,,,,,,,,,,,,,,fourtwo,,-4,1.8927,,,,,,,,,,,,,,,,,,,,,,,,,,,,,,,"[-0.10599999999999998,-0.15300000000000002,0.15280000000000005]","[0.37240000000000006,-0.050999999999999934,-0.5216]",-44,89,1,0,0,response7disk,-5,-16,1,0,0,rectangle,-5,-16,1,0,0,,1,0.0011,0,-5,-16,1,0,0,0,17,17,113,1,32,second,,,,,,,,,,,,,,,,,,,,,,,,,,,,,,,,,,,,,,,,,,,,,,,,,,,,,,,,,,,,,,,,,,,,,,,,
,,,,,,614a4c9d8172751921452626,62c538622c3cf42a78b91f1b,2022-07-06_24h23.57.254,Colour_Asymmetry_Pilot,2022.1.3,Win32,60.0024001,62c50e9c1127f2cd403a315f,,,,,,,,,,,,,,,,,,,,fourtwo,,-1,1.1919,,,,,,,,,,,,,,,,,,,,,,,,,,,,,,,"[-0.34920000000000007,-0.702,-0.5216]","[-0.8982,-0.37259999999999993,0.2784]",-44,-91,1,0,0,response5disk,12,2,1,0,0,rectangle,12,2,1,0,0,,1,9.99999E-05,0,12,2,1,0,0,0,18,18,31,1,31,first,,,,,,,,,,,,,,,,,,,,,,,,,,,,,,,,,,,,,,,,,,,,,,,,,,,,,,,,,,,,,,,,,,,,,,,,
,,,,,,614a4c9d8172751921452626,62c538622c3cf42a78b91f1b,2022-07-06_24h23.57.254,Colour_Asymmetry_Pilot,2022.1.3,Win32,60.0024001,62c50e9c1127f2cd403a315f,,,,,,,,,,,,,,,,,,,,fourthree,,-4,0.5777,,,,,,,,,,,,,,,,,,,,,,,,,,,,,,,"[-0.8118,-0.8198,-0.5452]","[0.34099999999999997,0.5841999999999998,-0.9844]",-40,66,1,0,0,response7disk,-4,5,1,0,0,rectangle,-4,5,1,0,0,,1,0.0002,0,-4,5,1,0,0,0,19,19,0,1,0,first,,,,,,,,,,,,,,,,,,,,,,,,,,,,,,,,,,,,,,,,,,,,,,,,,,,,,,,,,,,,,,,,,,,,,,,,
