trials.thisRepN,trials.thisTrialN,trials.thisN,trials.thisIndex,trials.ran,Colourcodes,participant,session,date,expName,psychopyVersion,OS,frameRate,study_id,trials_4.thisRepN,trials_4.thisTrialN,trials_4.thisN,trials_4.thisIndex,trials_4.ran,StimulusPos,key_resp.keys,key_resp.rt,key_resp_2.keys,key_resp_2.rt,key_resp_15.keys,key_resp_15.rt,key_resp_17.keys,key_resp_17.rt,key_resp_9.keys,key_resp_9.rt,key_resp_10.keys,key_resp_10.rt,Circle1_col,Ecc,Circle2_col,similarity,response_time,mouse_5.x,mouse_5.y,mouse_5.leftButton,mouse_5.midButton,mouse_5.rightButton,mouse_5.clicked_name,mouse_10.x,mouse_10.y,mouse_10.leftButton,mouse_10.midButton,mouse_10.rightButton,mouse_10.clicked_name,mouse_7.x,mouse_7.y,mouse_7.leftButton,mouse_7.midButton,mouse_7.rightButton,catchnumberprac,mouse_6.x,mouse_6.y,mouse_6.leftButton,mouse_6.midButton,mouse_6.rightButton,duringprac.thisRepN,duringprac.thisTrialN,duringprac.thisN,duringprac.thisIndex,duringprac.ran,mouse_7.clicked_name,catchprac,mouse_6.clicked_name,key_resp_22.keys,key_resp_22.rt,Circle1_colour,Circle2_colour,mouse.x,mouse.y,mouse.leftButton,mouse.midButton,mouse.rightButton,mouse.clicked_name,mouse_2.x,mouse_2.y,mouse_2.leftButton,mouse_2.midButton,mouse_2.rightButton,mouse_2.clicked_name,mouse_3.x,mouse_3.y,mouse_3.leftButton,mouse_3.midButton,mouse_3.rightButton,catchresponse,catchnumber,response_time_catch,Catch,mouse_11.x,mouse_11.y,mouse_11.leftButton,mouse_11.midButton,mouse_11.rightButton,trials_2.thisRepN,trials_2.thisTrialN,trials_2.thisN,trials_2.thisIndex,trials_2.ran,Colourpair,Temporder,mouse_3.clicked_name,mouse_11.clicked_name,trials_3.thisRepN,trials_3.thisTrialN,trials_3.thisN,trials_3.thisIndex,trials_3.ran,key_resp_instr_Ishi.keys,key_resp_instr_Ishi.rt,Ishi_trial_keyresp.keys,Ishi_textbox.text,Ishi_mouse.x,Ishi_mouse.y,Ishi_mouse.leftButton,Ishi_mouse.midButton,Ishi_mouse.rightButton,Ishi_mouse.clicked_name,Ishi_loop.thisRepN,Ishi_loop.thisTrialN,Ishi_loop.thisN,Ishi_loop.thisIndex,Ishi_loop.ran,imageaddress,textbox.text,mouse_4.x,mouse_4.y,mouse_4.leftButton,mouse_4.midButton,mouse_4.rightButton,mouse_4.clicked_name,textbox_2.text,mouse_8.x,mouse_8.y,mouse_8.leftButton,mouse_8.midButton,mouse_8.rightButton,mouse_8.clicked_name,textbox_3.text,mouse_9.x,mouse_9.y,mouse_9.leftButton,mouse_9.midButton,mouse_9.rightButton,mouse_9.clicked_name,textbox_4.text,mouse_12.x,mouse_12.y,mouse_12.leftButton,mouse_12.midButton,mouse_12.rightButton,mouse_12.clicked_name,textbox_5.text,mouse_13.x,mouse_13.y,mouse_13.leftButton,mouse_13.midButton,mouse_13.rightButton,mouse_13.clicked_name,textbox_6.text,mouse_14.x,mouse_14.y,mouse_14.leftButton,mouse_14.midButton,mouse_14.rightButton,mouse_14.clicked_name,textbox_7.text,mouse_15.x,mouse_15.y,mouse_15.leftButton,mouse_15.midButton,mouse_15.rightButton,mouse_15.clicked_name
0,0,0,14,1,,6117772456477652eea60139,62c53a0d1ea850893376a8df,2022-07-06_09h31.42.784,Colour_Asymmetry_Pilot,2022.1.3,Win32,60.0348202,62c50e9c1127f2cd403a315f,,,,,,,,,,,,,,,,,,,,,,,,,,,,,,,,,,,,,,,,,,,,,,,,,,,,,,,,,,,,,,,,,,,,,,,,,,,,,,,,,,,,,,,,,,,,,,,,,,,,,,,,,,,,,,,,,,,,,,,,,,,,,,,,,,,,,,,,,,,,,,,,,,,,,,,,,,,,,,,,,,,
0,1,1,89,1,,6117772456477652eea60139,62c53a0d1ea850893376a8df,2022-07-06_09h31.42.784,Colour_Asymmetry_Pilot,2022.1.3,Win32,60.0348202,62c50e9c1127f2cd403a315f,,,,,,,,,,,,,,,,,,,,,,,,,,,,,,,,,,,,,,,,,,,,,,,,,,,,,,,,,,,,,,,,,,,,,,,,,,,,,,,,,,,,,,,,,,,,,,,,,,,,,,,,,,,,,,,,,,,,,,,,,,,,,,,,,,,,,,,,,,,,,,,,,,,,,,,,,,,,,,,,,,,
0,2,2,4,1,,6117772456477652eea60139,62c53a0d1ea850893376a8df,2022-07-06_09h31.42.784,Colour_Asymmetry_Pilot,2022.1.3,Win32,60.0348202,62c50e9c1127f2cd403a315f,,,,,,,,,,,,,,,,,,,,,,,,,,,,,,,,,,,,,,,,,,,,,,,,,,,,,,,,,,,,,,,,,,,,,,,,,,,,,,,,,,,,,,,,,,,,,,,,,,,,,,,,,,,,,,,,,,,,,,,,,,,,,,,,,,,,,,,,,,,,,,,,,,,,,,,,,,,,,,,,,,,
0,3,3,39,1,,6117772456477652eea60139,62c53a0d1ea850893376a8df,2022-07-06_09h31.42.784,Colour_Asymmetry_Pilot,2022.1.3,Win32,60.0348202,62c50e9c1127f2cd403a315f,,,,,,,,,,,,,,,,,,,,,,,,,,,,,,,,,,,,,,,,,,,,,,,,,,,,,,,,,,,,,,,,,,,,,,,,,,,,,,,,,,,,,,,,,,,,,,,,,,,,,,,,,,,,,,,,,,,,,,,,,,,,,,,,,,,,,,,,,,,,,,,,,,,,,,,,,,,,,,,,,,,
0,4,4,44,1,,6117772456477652eea60139,62c53a0d1ea850893376a8df,2022-07-06_09h31.42.784,Colour_Asymmetry_Pilot,2022.1.3,Win32,60.0348202,62c50e9c1127f2cd403a315f,,,,,,,,,,,,,,,,,,,,,,,,,,,,,,,,,,,,,,,,,,,,,,,,,,,,,,,,,,,,,,,,,,,,,,,,,,,,,,,,,,,,,,,,,,,,,,,,,,,,,,,,,,,,,,,,,,,,,,,,,,,,,,,,,,,,,,,,,,,,,,,,,,,,,,,,,,,,,,,,,,,
0,5,5,50,1,,6117772456477652eea60139,62c53a0d1ea850893376a8df,2022-07-06_09h31.42.784,Colour_Asymmetry_Pilot,2022.1.3,Win32,60.0348202,62c50e9c1127f2cd403a315f,,,,,,,,,,,,,,,,,,,,,,,,,,,,,,,,,,,,,,,,,,,,,,,,,,,,,,,,,,,,,,,,,,,,,,,,,,,,,,,,,,,,,,,,,,,,,,,,,,,,,,,,,,,,,,,,,,,,,,,,,,,,,,,,,,,,,,,,,,,,,,,,,,,,,,,,,,,,,,,,,,,
0,6,6,77,1,,6117772456477652eea60139,62c53a0d1ea850893376a8df,2022-07-06_09h31.42.784,Colour_Asymmetry_Pilot,2022.1.3,Win32,60.0348202,62c50e9c1127f2cd403a315f,,,,,,,,,,,,,,,,,,,,,,,,,,,,,,,,,,,,,,,,,,,,,,,,,,,,,,,,,,,,,,,,,,,,,,,,,,,,,,,,,,,,,,,,,,,,,,,,,,,,,,,,,,,,,,,,,,,,,,,,,,,,,,,,,,,,,,,,,,,,,,,,,,,,,,,,,,,,,,,,,,,
0,7,7,61,1,,6117772456477652eea60139,62c53a0d1ea850893376a8df,2022-07-06_09h31.42.784,Colour_Asymmetry_Pilot,2022.1.3,Win32,60.0348202,62c50e9c1127f2cd403a315f,,,,,,,,,,,,,,,,,,,,,,,,,,,,,,,,,,,,,,,,,,,,,,,,,,,,,,,,,,,,,,,,,,,,,,,,,,,,,,,,,,,,,,,,,,,,,,,,,,,,,,,,,,,,,,,,,,,,,,,,,,,,,,,,,,,,,,,,,,,,,,,,,,,,,,,,,,,,,,,,,,,
0,8,8,70,1,,6117772456477652eea60139,62c53a0d1ea850893376a8df,2022-07-06_09h31.42.784,Colour_Asymmetry_Pilot,2022.1.3,Win32,60.0348202,62c50e9c1127f2cd403a315f,,,,,,,,,,,,,,,,,,,,,,,,,,,,,,,,,,,,,,,,,,,,,,,,,,,,,,,,,,,,,,,,,,,,,,,,,,,,,,,,,,,,,,,,,,,,,,,,,,,,,,,,,,,,,,,,,,,,,,,,,,,,,,,,,,,,,,,,,,,,,,,,,,,,,,,,,,,,,,,,,,,
0,9,9,82,1,,6117772456477652eea60139,62c53a0d1ea850893376a8df,2022-07-06_09h31.42.784,Colour_Asymmetry_Pilot,2022.1.3,Win32,60.0348202,62c50e9c1127f2cd403a315f,,,,,,,,,,,,,,,,,,,,,,,,,,,,,,,,,,,,,,,,,,,,,,,,,,,,,,,,,,,,,,,,,,,,,,,,,,,,,,,,,,,,,,,,,,,,,,,,,,,,,,,,,,,,,,,,,,,,,,,,,,,,,,,,,,,,,,,,,,,,,,,,,,,,,,,,,,,,,,,,,,,
0,10,10,80,1,,6117772456477652eea60139,62c53a0d1ea850893376a8df,2022-07-06_09h31.42.784,Colour_Asymmetry_Pilot,2022.1.3,Win32,60.0348202,62c50e9c1127f2cd403a315f,,,,,,,,,,,,,,,,,,,,,,,,,,,,,,,,,,,,,,,,,,,,,,,,,,,,,,,,,,,,,,,,,,,,,,,,,,,,,,,,,,,,,,,,,,,,,,,,,,,,,,,,,,,,,,,,,,,,,,,,,,,,,,,,,,,,,,,,,,,,,,,,,,,,,,,,,,,,,,,,,,,
0,11,11,23,1,,6117772456477652eea60139,62c53a0d1ea850893376a8df,2022-07-06_09h31.42.784,Colour_Asymmetry_Pilot,2022.1.3,Win32,60.0348202,62c50e9c1127f2cd403a315f,,,,,,,,,,,,,,,,,,,,,,,,,,,,,,,,,,,,,,,,,,,,,,,,,,,,,,,,,,,,,,,,,,,,,,,,,,,,,,,,,,,,,,,,,,,,,,,,,,,,,,,,,,,,,,,,,,,,,,,,,,,,,,,,,,,,,,,,,,,,,,,,,,,,,,,,,,,,,,,,,,,
0,12,12,22,1,,6117772456477652eea60139,62c53a0d1ea850893376a8df,2022-07-06_09h31.42.784,Colour_Asymmetry_Pilot,2022.1.3,Win32,60.0348202,62c50e9c1127f2cd403a315f,,,,,,,,,,,,,,,,,,,,,,,,,,,,,,,,,,,,,,,,,,,,,,,,,,,,,,,,,,,,,,,,,,,,,,,,,,,,,,,,,,,,,,,,,,,,,,,,,,,,,,,,,,,,,,,,,,,,,,,,,,,,,,,,,,,,,,,,,,,,,,,,,,,,,,,,,,,,,,,,,,,
0,13,13,76,1,,6117772456477652eea60139,62c53a0d1ea850893376a8df,2022-07-06_09h31.42.784,Colour_Asymmetry_Pilot,2022.1.3,Win32,60.0348202,62c50e9c1127f2cd403a315f,,,,,,,,,,,,,,,,,,,,,,,,,,,,,,,,,,,,,,,,,,,,,,,,,,,,,,,,,,,,,,,,,,,,,,,,,,,,,,,,,,,,,,,,,,,,,,,,,,,,,,,,,,,,,,,,,,,,,,,,,,,,,,,,,,,,,,,,,,,,,,,,,,,,,,,,,,,,,,,,,,,
0,14,14,1,1,,6117772456477652eea60139,62c53a0d1ea850893376a8df,2022-07-06_09h31.42.784,Colour_Asymmetry_Pilot,2022.1.3,Win32,60.0348202,62c50e9c1127f2cd403a315f,,,,,,,,,,,,,,,,,,,,,,,,,,,,,,,,,,,,,,,,,,,,,,,,,,,,,,,,,,,,,,,,,,,,,,,,,,,,,,,,,,,,,,,,,,,,,,,,,,,,,,,,,,,,,,,,,,,,,,,,,,,,,,,,,,,,,,,,,,,,,,,,,,,,,,,,,,,,,,,,,,,
0,15,15,68,1,,6117772456477652eea60139,62c53a0d1ea850893376a8df,2022-07-06_09h31.42.784,Colour_Asymmetry_Pilot,2022.1.3,Win32,60.0348202,62c50e9c1127f2cd403a315f,,,,,,,,,,,,,,,,,,,,,,,,,,,,,,,,,,,,,,,,,,,,,,,,,,,,,,,,,,,,,,,,,,,,,,,,,,,,,,,,,,,,,,,,,,,,,,,,,,,,,,,,,,,,,,,,,,,,,,,,,,,,,,,,,,,,,,,,,,,,,,,,,,,,,,,,,,,,,,,,,,,
0,16,16,90,1,,6117772456477652eea60139,62c53a0d1ea850893376a8df,2022-07-06_09h31.42.784,Colour_Asymmetry_Pilot,2022.1.3,Win32,60.0348202,62c50e9c1127f2cd403a315f,,,,,,,,,,,,,,,,,,,,,,,,,,,,,,,,,,,,,,,,,,,,,,,,,,,,,,,,,,,,,,,,,,,,,,,,,,,,,,,,,,,,,,,,,,,,,,,,,,,,,,,,,,,,,,,,,,,,,,,,,,,,,,,,,,,,,,,,,,,,,,,,,,,,,,,,,,,,,,,,,,,
0,17,17,13,1,,6117772456477652eea60139,62c53a0d1ea850893376a8df,2022-07-06_09h31.42.784,Colour_Asymmetry_Pilot,2022.1.3,Win32,60.0348202,62c50e9c1127f2cd403a315f,,,,,,,,,,,,,,,,,,,,,,,,,,,,,,,,,,,,,,,,,,,,,,,,,,,,,,,,,,,,,,,,,,,,,,,,,,,,,,,,,,,,,,,,,,,,,,,,,,,,,,,,,,,,,,,,,,,,,,,,,,,,,,,,,,,,,,,,,,,,,,,,,,,,,,,,,,,,,,,,,,,
0,18,18,3,1,,6117772456477652eea60139,62c53a0d1ea850893376a8df,2022-07-06_09h31.42.784,Colour_Asymmetry_Pilot,2022.1.3,Win32,60.0348202,62c50e9c1127f2cd403a315f,,,,,,,,,,,,,,,,,,,,,,,,,,,,,,,,,,,,,,,,,,,,,,,,,,,,,,,,,,,,,,,,,,,,,,,,,,,,,,,,,,,,,,,,,,,,,,,,,,,,,,,,,,,,,,,,,,,,,,,,,,,,,,,,,,,,,,,,,,,,,,,,,,,,,,,,,,,,,,,,,,,
0,19,19,92,1,,6117772456477652eea60139,62c53a0d1ea850893376a8df,2022-07-06_09h31.42.784,Colour_Asymmetry_Pilot,2022.1.3,Win32,60.0348202,62c50e9c1127f2cd403a315f,,,,,,,,,,,,,,,,,,,,,,,,,,,,,,,,,,,,,,,,,,,,,,,,,,,,,,,,,,,,,,,,,,,,,,,,,,,,,,,,,,,,,,,,,,,,,,,,,,,,,,,,,,,,,,,,,,,,,,,,,,,,,,,,,,,,,,,,,,,,,,,,,,,,,,,,,,,,,,,,,,,
0,20,20,53,1,,6117772456477652eea60139,62c53a0d1ea850893376a8df,2022-07-06_09h31.42.784,Colour_Asymmetry_Pilot,2022.1.3,Win32,60.0348202,62c50e9c1127f2cd403a315f,,,,,,,,,,,,,,,,,,,,,,,,,,,,,,,,,,,,,,,,,,,,,,,,,,,,,,,,,,,,,,,,,,,,,,,,,,,,,,,,,,,,,,,,,,,,,,,,,,,,,,,,,,,,,,,,,,,,,,,,,,,,,,,,,,,,,,,,,,,,,,,,,,,,,,,,,,,,,,,,,,,
0,21,21,54,1,,6117772456477652eea60139,62c53a0d1ea850893376a8df,2022-07-06_09h31.42.784,Colour_Asymmetry_Pilot,2022.1.3,Win32,60.0348202,62c50e9c1127f2cd403a315f,,,,,,,,,,,,,,,,,,,,,,,,,,,,,,,,,,,,,,,,,,,,,,,,,,,,,,,,,,,,,,,,,,,,,,,,,,,,,,,,,,,,,,,,,,,,,,,,,,,,,,,,,,,,,,,,,,,,,,,,,,,,,,,,,,,,,,,,,,,,,,,,,,,,,,,,,,,,,,,,,,,
0,22,22,71,1,,6117772456477652eea60139,62c53a0d1ea850893376a8df,2022-07-06_09h31.42.784,Colour_Asymmetry_Pilot,2022.1.3,Win32,60.0348202,62c50e9c1127f2cd403a315f,,,,,,,,,,,,,,,,,,,,,,,,,,,,,,,,,,,,,,,,,,,,,,,,,,,,,,,,,,,,,,,,,,,,,,,,,,,,,,,,,,,,,,,,,,,,,,,,,,,,,,,,,,,,,,,,,,,,,,,,,,,,,,,,,,,,,,,,,,,,,,,,,,,,,,,,,,,,,,,,,,,
0,23,23,83,1,,6117772456477652eea60139,62c53a0d1ea850893376a8df,2022-07-06_09h31.42.784,Colour_Asymmetry_Pilot,2022.1.3,Win32,60.0348202,62c50e9c1127f2cd403a315f,,,,,,,,,,,,,,,,,,,,,,,,,,,,,,,,,,,,,,,,,,,,,,,,,,,,,,,,,,,,,,,,,,,,,,,,,,,,,,,,,,,,,,,,,,,,,,,,,,,,,,,,,,,,,,,,,,,,,,,,,,,,,,,,,,,,,,,,,,,,,,,,,,,,,,,,,,,,,,,,,,,
0,24,24,26,1,,6117772456477652eea60139,62c53a0d1ea850893376a8df,2022-07-06_09h31.42.784,Colour_Asymmetry_Pilot,2022.1.3,Win32,60.0348202,62c50e9c1127f2cd403a315f,,,,,,,,,,,,,,,,,,,,,,,,,,,,,,,,,,,,,,,,,,,,,,,,,,,,,,,,,,,,,,,,,,,,,,,,,,,,,,,,,,,,,,,,,,,,,,,,,,,,,,,,,,,,,,,,,,,,,,,,,,,,,,,,,,,,,,,,,,,,,,,,,,,,,,,,,,,,,,,,,,,
0,25,25,5,1,,6117772456477652eea60139,62c53a0d1ea850893376a8df,2022-07-06_09h31.42.784,Colour_Asymmetry_Pilot,2022.1.3,Win32,60.0348202,62c50e9c1127f2cd403a315f,,,,,,,,,,,,,,,,,,,,,,,,,,,,,,,,,,,,,,,,,,,,,,,,,,,,,,,,,,,,,,,,,,,,,,,,,,,,,,,,,,,,,,,,,,,,,,,,,,,,,,,,,,,,,,,,,,,,,,,,,,,,,,,,,,,,,,,,,,,,,,,,,,,,,,,,,,,,,,,,,,,
0,26,26,64,1,,6117772456477652eea60139,62c53a0d1ea850893376a8df,2022-07-06_09h31.42.784,Colour_Asymmetry_Pilot,2022.1.3,Win32,60.0348202,62c50e9c1127f2cd403a315f,,,,,,,,,,,,,,,,,,,,,,,,,,,,,,,,,,,,,,,,,,,,,,,,,,,,,,,,,,,,,,,,,,,,,,,,,,,,,,,,,,,,,,,,,,,,,,,,,,,,,,,,,,,,,,,,,,,,,,,,,,,,,,,,,,,,,,,,,,,,,,,,,,,,,,,,,,,,,,,,,,,
0,27,27,8,1,,6117772456477652eea60139,62c53a0d1ea850893376a8df,2022-07-06_09h31.42.784,Colour_Asymmetry_Pilot,2022.1.3,Win32,60.0348202,62c50e9c1127f2cd403a315f,,,,,,,,,,,,,,,,,,,,,,,,,,,,,,,,,,,,,,,,,,,,,,,,,,,,,,,,,,,,,,,,,,,,,,,,,,,,,,,,,,,,,,,,,,,,,,,,,,,,,,,,,,,,,,,,,,,,,,,,,,,,,,,,,,,,,,,,,,,,,,,,,,,,,,,,,,,,,,,,,,,
0,28,28,87,1,,6117772456477652eea60139,62c53a0d1ea850893376a8df,2022-07-06_09h31.42.784,Colour_Asymmetry_Pilot,2022.1.3,Win32,60.0348202,62c50e9c1127f2cd403a315f,,,,,,,,,,,,,,,,,,,,,,,,,,,,,,,,,,,,,,,,,,,,,,,,,,,,,,,,,,,,,,,,,,,,,,,,,,,,,,,,,,,,,,,,,,,,,,,,,,,,,,,,,,,,,,,,,,,,,,,,,,,,,,,,,,,,,,,,,,,,,,,,,,,,,,,,,,,,,,,,,,,
0,29,29,10,1,,6117772456477652eea60139,62c53a0d1ea850893376a8df,2022-07-06_09h31.42.784,Colour_Asymmetry_Pilot,2022.1.3,Win32,60.0348202,62c50e9c1127f2cd403a315f,,,,,,,,,,,,,,,,,,,,,,,,,,,,,,,,,,,,,,,,,,,,,,,,,,,,,,,,,,,,,,,,,,,,,,,,,,,,,,,,,,,,,,,,,,,,,,,,,,,,,,,,,,,,,,,,,,,,,,,,,,,,,,,,,,,,,,,,,,,,,,,,,,,,,,,,,,,,,,,,,,,
0,30,30,6,1,,6117772456477652eea60139,62c53a0d1ea850893376a8df,2022-07-06_09h31.42.784,Colour_Asymmetry_Pilot,2022.1.3,Win32,60.0348202,62c50e9c1127f2cd403a315f,,,,,,,,,,,,,,,,,,,,,,,,,,,,,,,,,,,,,,,,,,,,,,,,,,,,,,,,,,,,,,,,,,,,,,,,,,,,,,,,,,,,,,,,,,,,,,,,,,,,,,,,,,,,,,,,,,,,,,,,,,,,,,,,,,,,,,,,,,,,,,,,,,,,,,,,,,,,,,,,,,,
0,31,31,43,1,,6117772456477652eea60139,62c53a0d1ea850893376a8df,2022-07-06_09h31.42.784,Colour_Asymmetry_Pilot,2022.1.3,Win32,60.0348202,62c50e9c1127f2cd403a315f,,,,,,,,,,,,,,,,,,,,,,,,,,,,,,,,,,,,,,,,,,,,,,,,,,,,,,,,,,,,,,,,,,,,,,,,,,,,,,,,,,,,,,,,,,,,,,,,,,,,,,,,,,,,,,,,,,,,,,,,,,,,,,,,,,,,,,,,,,,,,,,,,,,,,,,,,,,,,,,,,,,
0,32,32,58,1,,6117772456477652eea60139,62c53a0d1ea850893376a8df,2022-07-06_09h31.42.784,Colour_Asymmetry_Pilot,2022.1.3,Win32,60.0348202,62c50e9c1127f2cd403a315f,,,,,,,,,,,,,,,,,,,,,,,,,,,,,,,,,,,,,,,,,,,,,,,,,,,,,,,,,,,,,,,,,,,,,,,,,,,,,,,,,,,,,,,,,,,,,,,,,,,,,,,,,,,,,,,,,,,,,,,,,,,,,,,,,,,,,,,,,,,,,,,,,,,,,,,,,,,,,,,,,,,
0,33,33,51,1,,6117772456477652eea60139,62c53a0d1ea850893376a8df,2022-07-06_09h31.42.784,Colour_Asymmetry_Pilot,2022.1.3,Win32,60.0348202,62c50e9c1127f2cd403a315f,,,,,,,,,,,,,,,,,,,,,,,,,,,,,,,,,,,,,,,,,,,,,,,,,,,,,,,,,,,,,,,,,,,,,,,,,,,,,,,,,,,,,,,,,,,,,,,,,,,,,,,,,,,,,,,,,,,,,,,,,,,,,,,,,,,,,,,,,,,,,,,,,,,,,,,,,,,,,,,,,,,
0,34,34,59,1,,6117772456477652eea60139,62c53a0d1ea850893376a8df,2022-07-06_09h31.42.784,Colour_Asymmetry_Pilot,2022.1.3,Win32,60.0348202,62c50e9c1127f2cd403a315f,,,,,,,,,,,,,,,,,,,,,,,,,,,,,,,,,,,,,,,,,,,,,,,,,,,,,,,,,,,,,,,,,,,,,,,,,,,,,,,,,,,,,,,,,,,,,,,,,,,,,,,,,,,,,,,,,,,,,,,,,,,,,,,,,,,,,,,,,,,,,,,,,,,,,,,,,,,,,,,,,,,
0,35,35,91,1,,6117772456477652eea60139,62c53a0d1ea850893376a8df,2022-07-06_09h31.42.784,Colour_Asymmetry_Pilot,2022.1.3,Win32,60.0348202,62c50e9c1127f2cd403a315f,,,,,,,,,,,,,,,,,,,,,,,,,,,,,,,,,,,,,,,,,,,,,,,,,,,,,,,,,,,,,,,,,,,,,,,,,,,,,,,,,,,,,,,,,,,,,,,,,,,,,,,,,,,,,,,,,,,,,,,,,,,,,,,,,,,,,,,,,,,,,,,,,,,,,,,,,,,,,,,,,,,
0,36,36,2,1,,6117772456477652eea60139,62c53a0d1ea850893376a8df,2022-07-06_09h31.42.784,Colour_Asymmetry_Pilot,2022.1.3,Win32,60.0348202,62c50e9c1127f2cd403a315f,,,,,,,,,,,,,,,,,,,,,,,,,,,,,,,,,,,,,,,,,,,,,,,,,,,,,,,,,,,,,,,,,,,,,,,,,,,,,,,,,,,,,,,,,,,,,,,,,,,,,,,,,,,,,,,,,,,,,,,,,,,,,,,,,,,,,,,,,,,,,,,,,,,,,,,,,,,,,,,,,,,
0,37,37,29,1,,6117772456477652eea60139,62c53a0d1ea850893376a8df,2022-07-06_09h31.42.784,Colour_Asymmetry_Pilot,2022.1.3,Win32,60.0348202,62c50e9c1127f2cd403a315f,,,,,,,,,,,,,,,,,,,,,,,,,,,,,,,,,,,,,,,,,,,,,,,,,,,,,,,,,,,,,,,,,,,,,,,,,,,,,,,,,,,,,,,,,,,,,,,,,,,,,,,,,,,,,,,,,,,,,,,,,,,,,,,,,,,,,,,,,,,,,,,,,,,,,,,,,,,,,,,,,,,
0,38,38,48,1,,6117772456477652eea60139,62c53a0d1ea850893376a8df,2022-07-06_09h31.42.784,Colour_Asymmetry_Pilot,2022.1.3,Win32,60.0348202,62c50e9c1127f2cd403a315f,,,,,,,,,,,,,,,,,,,,,,,,,,,,,,,,,,,,,,,,,,,,,,,,,,,,,,,,,,,,,,,,,,,,,,,,,,,,,,,,,,,,,,,,,,,,,,,,,,,,,,,,,,,,,,,,,,,,,,,,,,,,,,,,,,,,,,,,,,,,,,,,,,,,,,,,,,,,,,,,,,,
0,39,39,67,1,,6117772456477652eea60139,62c53a0d1ea850893376a8df,2022-07-06_09h31.42.784,Colour_Asymmetry_Pilot,2022.1.3,Win32,60.0348202,62c50e9c1127f2cd403a315f,,,,,,,,,,,,,,,,,,,,,,,,,,,,,,,,,,,,,,,,,,,,,,,,,,,,,,,,,,,,,,,,,,,,,,,,,,,,,,,,,,,,,,,,,,,,,,,,,,,,,,,,,,,,,,,,,,,,,,,,,,,,,,,,,,,,,,,,,,,,,,,,,,,,,,,,,,,,,,,,,,,
0,40,40,25,1,,6117772456477652eea60139,62c53a0d1ea850893376a8df,2022-07-06_09h31.42.784,Colour_Asymmetry_Pilot,2022.1.3,Win32,60.0348202,62c50e9c1127f2cd403a315f,,,,,,,,,,,,,,,,,,,,,,,,,,,,,,,,,,,,,,,,,,,,,,,,,,,,,,,,,,,,,,,,,,,,,,,,,,,,,,,,,,,,,,,,,,,,,,,,,,,,,,,,,,,,,,,,,,,,,,,,,,,,,,,,,,,,,,,,,,,,,,,,,,,,,,,,,,,,,,,,,,,
0,41,41,32,1,,6117772456477652eea60139,62c53a0d1ea850893376a8df,2022-07-06_09h31.42.784,Colour_Asymmetry_Pilot,2022.1.3,Win32,60.0348202,62c50e9c1127f2cd403a315f,,,,,,,,,,,,,,,,,,,,,,,,,,,,,,,,,,,,,,,,,,,,,,,,,,,,,,,,,,,,,,,,,,,,,,,,,,,,,,,,,,,,,,,,,,,,,,,,,,,,,,,,,,,,,,,,,,,,,,,,,,,,,,,,,,,,,,,,,,,,,,,,,,,,,,,,,,,,,,,,,,,
0,42,42,49,1,,6117772456477652eea60139,62c53a0d1ea850893376a8df,2022-07-06_09h31.42.784,Colour_Asymmetry_Pilot,2022.1.3,Win32,60.0348202,62c50e9c1127f2cd403a315f,,,,,,,,,,,,,,,,,,,,,,,,,,,,,,,,,,,,,,,,,,,,,,,,,,,,,,,,,,,,,,,,,,,,,,,,,,,,,,,,,,,,,,,,,,,,,,,,,,,,,,,,,,,,,,,,,,,,,,,,,,,,,,,,,,,,,,,,,,,,,,,,,,,,,,,,,,,,,,,,,,,
0,43,43,42,1,,6117772456477652eea60139,62c53a0d1ea850893376a8df,2022-07-06_09h31.42.784,Colour_Asymmetry_Pilot,2022.1.3,Win32,60.0348202,62c50e9c1127f2cd403a315f,,,,,,,,,,,,,,,,,,,,,,,,,,,,,,,,,,,,,,,,,,,,,,,,,,,,,,,,,,,,,,,,,,,,,,,,,,,,,,,,,,,,,,,,,,,,,,,,,,,,,,,,,,,,,,,,,,,,,,,,,,,,,,,,,,,,,,,,,,,,,,,,,,,,,,,,,,,,,,,,,,,
0,44,44,66,1,,6117772456477652eea60139,62c53a0d1ea850893376a8df,2022-07-06_09h31.42.784,Colour_Asymmetry_Pilot,2022.1.3,Win32,60.0348202,62c50e9c1127f2cd403a315f,,,,,,,,,,,,,,,,,,,,,,,,,,,,,,,,,,,,,,,,,,,,,,,,,,,,,,,,,,,,,,,,,,,,,,,,,,,,,,,,,,,,,,,,,,,,,,,,,,,,,,,,,,,,,,,,,,,,,,,,,,,,,,,,,,,,,,,,,,,,,,,,,,,,,,,,,,,,,,,,,,,
0,45,45,9,1,,6117772456477652eea60139,62c53a0d1ea850893376a8df,2022-07-06_09h31.42.784,Colour_Asymmetry_Pilot,2022.1.3,Win32,60.0348202,62c50e9c1127f2cd403a315f,,,,,,,,,,,,,,,,,,,,,,,,,,,,,,,,,,,,,,,,,,,,,,,,,,,,,,,,,,,,,,,,,,,,,,,,,,,,,,,,,,,,,,,,,,,,,,,,,,,,,,,,,,,,,,,,,,,,,,,,,,,,,,,,,,,,,,,,,,,,,,,,,,,,,,,,,,,,,,,,,,,
0,46,46,69,1,,6117772456477652eea60139,62c53a0d1ea850893376a8df,2022-07-06_09h31.42.784,Colour_Asymmetry_Pilot,2022.1.3,Win32,60.0348202,62c50e9c1127f2cd403a315f,,,,,,,,,,,,,,,,,,,,,,,,,,,,,,,,,,,,,,,,,,,,,,,,,,,,,,,,,,,,,,,,,,,,,,,,,,,,,,,,,,,,,,,,,,,,,,,,,,,,,,,,,,,,,,,,,,,,,,,,,,,,,,,,,,,,,,,,,,,,,,,,,,,,,,,,,,,,,,,,,,,
0,47,47,36,1,,6117772456477652eea60139,62c53a0d1ea850893376a8df,2022-07-06_09h31.42.784,Colour_Asymmetry_Pilot,2022.1.3,Win32,60.0348202,62c50e9c1127f2cd403a315f,,,,,,,,,,,,,,,,,,,,,,,,,,,,,,,,,,,,,,,,,,,,,,,,,,,,,,,,,,,,,,,,,,,,,,,,,,,,,,,,,,,,,,,,,,,,,,,,,,,,,,,,,,,,,,,,,,,,,,,,,,,,,,,,,,,,,,,,,,,,,,,,,,,,,,,,,,,,,,,,,,,
0,48,48,31,1,,6117772456477652eea60139,62c53a0d1ea850893376a8df,2022-07-06_09h31.42.784,Colour_Asymmetry_Pilot,2022.1.3,Win32,60.0348202,62c50e9c1127f2cd403a315f,,,,,,,,,,,,,,,,,,,,,,,,,,,,,,,,,,,,,,,,,,,,,,,,,,,,,,,,,,,,,,,,,,,,,,,,,,,,,,,,,,,,,,,,,,,,,,,,,,,,,,,,,,,,,,,,,,,,,,,,,,,,,,,,,,,,,,,,,,,,,,,,,,,,,,,,,,,,,,,,,,,
0,49,49,63,1,,6117772456477652eea60139,62c53a0d1ea850893376a8df,2022-07-06_09h31.42.784,Colour_Asymmetry_Pilot,2022.1.3,Win32,60.0348202,62c50e9c1127f2cd403a315f,,,,,,,,,,,,,,,,,,,,,,,,,,,,,,,,,,,,,,,,,,,,,,,,,,,,,,,,,,,,,,,,,,,,,,,,,,,,,,,,,,,,,,,,,,,,,,,,,,,,,,,,,,,,,,,,,,,,,,,,,,,,,,,,,,,,,,,,,,,,,,,,,,,,,,,,,,,,,,,,,,,
0,50,50,74,1,,6117772456477652eea60139,62c53a0d1ea850893376a8df,2022-07-06_09h31.42.784,Colour_Asymmetry_Pilot,2022.1.3,Win32,60.0348202,62c50e9c1127f2cd403a315f,,,,,,,,,,,,,,,,,,,,,,,,,,,,,,,,,,,,,,,,,,,,,,,,,,,,,,,,,,,,,,,,,,,,,,,,,,,,,,,,,,,,,,,,,,,,,,,,,,,,,,,,,,,,,,,,,,,,,,,,,,,,,,,,,,,,,,,,,,,,,,,,,,,,,,,,,,,,,,,,,,,
0,51,51,11,1,,6117772456477652eea60139,62c53a0d1ea850893376a8df,2022-07-06_09h31.42.784,Colour_Asymmetry_Pilot,2022.1.3,Win32,60.0348202,62c50e9c1127f2cd403a315f,,,,,,,,,,,,,,,,,,,,,,,,,,,,,,,,,,,,,,,,,,,,,,,,,,,,,,,,,,,,,,,,,,,,,,,,,,,,,,,,,,,,,,,,,,,,,,,,,,,,,,,,,,,,,,,,,,,,,,,,,,,,,,,,,,,,,,,,,,,,,,,,,,,,,,,,,,,,,,,,,,,
0,52,52,34,1,,6117772456477652eea60139,62c53a0d1ea850893376a8df,2022-07-06_09h31.42.784,Colour_Asymmetry_Pilot,2022.1.3,Win32,60.0348202,62c50e9c1127f2cd403a315f,,,,,,,,,,,,,,,,,,,,,,,,,,,,,,,,,,,,,,,,,,,,,,,,,,,,,,,,,,,,,,,,,,,,,,,,,,,,,,,,,,,,,,,,,,,,,,,,,,,,,,,,,,,,,,,,,,,,,,,,,,,,,,,,,,,,,,,,,,,,,,,,,,,,,,,,,,,,,,,,,,,
0,53,53,79,1,,6117772456477652eea60139,62c53a0d1ea850893376a8df,2022-07-06_09h31.42.784,Colour_Asymmetry_Pilot,2022.1.3,Win32,60.0348202,62c50e9c1127f2cd403a315f,,,,,,,,,,,,,,,,,,,,,,,,,,,,,,,,,,,,,,,,,,,,,,,,,,,,,,,,,,,,,,,,,,,,,,,,,,,,,,,,,,,,,,,,,,,,,,,,,,,,,,,,,,,,,,,,,,,,,,,,,,,,,,,,,,,,,,,,,,,,,,,,,,,,,,,,,,,,,,,,,,,
0,54,54,88,1,,6117772456477652eea60139,62c53a0d1ea850893376a8df,2022-07-06_09h31.42.784,Colour_Asymmetry_Pilot,2022.1.3,Win32,60.0348202,62c50e9c1127f2cd403a315f,,,,,,,,,,,,,,,,,,,,,,,,,,,,,,,,,,,,,,,,,,,,,,,,,,,,,,,,,,,,,,,,,,,,,,,,,,,,,,,,,,,,,,,,,,,,,,,,,,,,,,,,,,,,,,,,,,,,,,,,,,,,,,,,,,,,,,,,,,,,,,,,,,,,,,,,,,,,,,,,,,,
0,55,55,52,1,,6117772456477652eea60139,62c53a0d1ea850893376a8df,2022-07-06_09h31.42.784,Colour_Asymmetry_Pilot,2022.1.3,Win32,60.0348202,62c50e9c1127f2cd403a315f,,,,,,,,,,,,,,,,,,,,,,,,,,,,,,,,,,,,,,,,,,,,,,,,,,,,,,,,,,,,,,,,,,,,,,,,,,,,,,,,,,,,,,,,,,,,,,,,,,,,,,,,,,,,,,,,,,,,,,,,,,,,,,,,,,,,,,,,,,,,,,,,,,,,,,,,,,,,,,,,,,,
0,56,56,45,1,,6117772456477652eea60139,62c53a0d1ea850893376a8df,2022-07-06_09h31.42.784,Colour_Asymmetry_Pilot,2022.1.3,Win32,60.0348202,62c50e9c1127f2cd403a315f,,,,,,,,,,,,,,,,,,,,,,,,,,,,,,,,,,,,,,,,,,,,,,,,,,,,,,,,,,,,,,,,,,,,,,,,,,,,,,,,,,,,,,,,,,,,,,,,,,,,,,,,,,,,,,,,,,,,,,,,,,,,,,,,,,,,,,,,,,,,,,,,,,,,,,,,,,,,,,,,,,,
0,57,57,24,1,,6117772456477652eea60139,62c53a0d1ea850893376a8df,2022-07-06_09h31.42.784,Colour_Asymmetry_Pilot,2022.1.3,Win32,60.0348202,62c50e9c1127f2cd403a315f,,,,,,,,,,,,,,,,,,,,,,,,,,,,,,,,,,,,,,,,,,,,,,,,,,,,,,,,,,,,,,,,,,,,,,,,,,,,,,,,,,,,,,,,,,,,,,,,,,,,,,,,,,,,,,,,,,,,,,,,,,,,,,,,,,,,,,,,,,,,,,,,,,,,,,,,,,,,,,,,,,,
0,58,58,0,1,,6117772456477652eea60139,62c53a0d1ea850893376a8df,2022-07-06_09h31.42.784,Colour_Asymmetry_Pilot,2022.1.3,Win32,60.0348202,62c50e9c1127f2cd403a315f,,,,,,,,,,,,,,,,,,,,,,,,,,,,,,,,,,,,,,,,,,,,,,,,,,,,,,,,,,,,,,,,,,,,,,,,,,,,,,,,,,,,,,,,,,,,,,,,,,,,,,,,,,,,,,,,,,,,,,,,,,,,,,,,,,,,,,,,,,,,,,,,,,,,,,,,,,,,,,,,,,,
0,59,59,57,1,,6117772456477652eea60139,62c53a0d1ea850893376a8df,2022-07-06_09h31.42.784,Colour_Asymmetry_Pilot,2022.1.3,Win32,60.0348202,62c50e9c1127f2cd403a315f,,,,,,,,,,,,,,,,,,,,,,,,,,,,,,,,,,,,,,,,,,,,,,,,,,,,,,,,,,,,,,,,,,,,,,,,,,,,,,,,,,,,,,,,,,,,,,,,,,,,,,,,,,,,,,,,,,,,,,,,,,,,,,,,,,,,,,,,,,,,,,,,,,,,,,,,,,,,,,,,,,,
0,60,60,19,1,,6117772456477652eea60139,62c53a0d1ea850893376a8df,2022-07-06_09h31.42.784,Colour_Asymmetry_Pilot,2022.1.3,Win32,60.0348202,62c50e9c1127f2cd403a315f,,,,,,,,,,,,,,,,,,,,,,,,,,,,,,,,,,,,,,,,,,,,,,,,,,,,,,,,,,,,,,,,,,,,,,,,,,,,,,,,,,,,,,,,,,,,,,,,,,,,,,,,,,,,,,,,,,,,,,,,,,,,,,,,,,,,,,,,,,,,,,,,,,,,,,,,,,,,,,,,,,,
0,61,61,47,1,,6117772456477652eea60139,62c53a0d1ea850893376a8df,2022-07-06_09h31.42.784,Colour_Asymmetry_Pilot,2022.1.3,Win32,60.0348202,62c50e9c1127f2cd403a315f,,,,,,,,,,,,,,,,,,,,,,,,,,,,,,,,,,,,,,,,,,,,,,,,,,,,,,,,,,,,,,,,,,,,,,,,,,,,,,,,,,,,,,,,,,,,,,,,,,,,,,,,,,,,,,,,,,,,,,,,,,,,,,,,,,,,,,,,,,,,,,,,,,,,,,,,,,,,,,,,,,,
0,62,62,60,1,,6117772456477652eea60139,62c53a0d1ea850893376a8df,2022-07-06_09h31.42.784,Colour_Asymmetry_Pilot,2022.1.3,Win32,60.0348202,62c50e9c1127f2cd403a315f,,,,,,,,,,,,,,,,,,,,,,,,,,,,,,,,,,,,,,,,,,,,,,,,,,,,,,,,,,,,,,,,,,,,,,,,,,,,,,,,,,,,,,,,,,,,,,,,,,,,,,,,,,,,,,,,,,,,,,,,,,,,,,,,,,,,,,,,,,,,,,,,,,,,,,,,,,,,,,,,,,,
0,63,63,65,1,,6117772456477652eea60139,62c53a0d1ea850893376a8df,2022-07-06_09h31.42.784,Colour_Asymmetry_Pilot,2022.1.3,Win32,60.0348202,62c50e9c1127f2cd403a315f,,,,,,,,,,,,,,,,,,,,,,,,,,,,,,,,,,,,,,,,,,,,,,,,,,,,,,,,,,,,,,,,,,,,,,,,,,,,,,,,,,,,,,,,,,,,,,,,,,,,,,,,,,,,,,,,,,,,,,,,,,,,,,,,,,,,,,,,,,,,,,,,,,,,,,,,,,,,,,,,,,,
0,64,64,16,1,,6117772456477652eea60139,62c53a0d1ea850893376a8df,2022-07-06_09h31.42.784,Colour_Asymmetry_Pilot,2022.1.3,Win32,60.0348202,62c50e9c1127f2cd403a315f,,,,,,,,,,,,,,,,,,,,,,,,,,,,,,,,,,,,,,,,,,,,,,,,,,,,,,,,,,,,,,,,,,,,,,,,,,,,,,,,,,,,,,,,,,,,,,,,,,,,,,,,,,,,,,,,,,,,,,,,,,,,,,,,,,,,,,,,,,,,,,,,,,,,,,,,,,,,,,,,,,,
0,65,65,56,1,,6117772456477652eea60139,62c53a0d1ea850893376a8df,2022-07-06_09h31.42.784,Colour_Asymmetry_Pilot,2022.1.3,Win32,60.0348202,62c50e9c1127f2cd403a315f,,,,,,,,,,,,,,,,,,,,,,,,,,,,,,,,,,,,,,,,,,,,,,,,,,,,,,,,,,,,,,,,,,,,,,,,,,,,,,,,,,,,,,,,,,,,,,,,,,,,,,,,,,,,,,,,,,,,,,,,,,,,,,,,,,,,,,,,,,,,,,,,,,,,,,,,,,,,,,,,,,,
0,66,66,27,1,,6117772456477652eea60139,62c53a0d1ea850893376a8df,2022-07-06_09h31.42.784,Colour_Asymmetry_Pilot,2022.1.3,Win32,60.0348202,62c50e9c1127f2cd403a315f,,,,,,,,,,,,,,,,,,,,,,,,,,,,,,,,,,,,,,,,,,,,,,,,,,,,,,,,,,,,,,,,,,,,,,,,,,,,,,,,,,,,,,,,,,,,,,,,,,,,,,,,,,,,,,,,,,,,,,,,,,,,,,,,,,,,,,,,,,,,,,,,,,,,,,,,,,,,,,,,,,,
0,67,67,28,1,,6117772456477652eea60139,62c53a0d1ea850893376a8df,2022-07-06_09h31.42.784,Colour_Asymmetry_Pilot,2022.1.3,Win32,60.0348202,62c50e9c1127f2cd403a315f,,,,,,,,,,,,,,,,,,,,,,,,,,,,,,,,,,,,,,,,,,,,,,,,,,,,,,,,,,,,,,,,,,,,,,,,,,,,,,,,,,,,,,,,,,,,,,,,,,,,,,,,,,,,,,,,,,,,,,,,,,,,,,,,,,,,,,,,,,,,,,,,,,,,,,,,,,,,,,,,,,,
0,68,68,55,1,,6117772456477652eea60139,62c53a0d1ea850893376a8df,2022-07-06_09h31.42.784,Colour_Asymmetry_Pilot,2022.1.3,Win32,60.0348202,62c50e9c1127f2cd403a315f,,,,,,,,,,,,,,,,,,,,,,,,,,,,,,,,,,,,,,,,,,,,,,,,,,,,,,,,,,,,,,,,,,,,,,,,,,,,,,,,,,,,,,,,,,,,,,,,,,,,,,,,,,,,,,,,,,,,,,,,,,,,,,,,,,,,,,,,,,,,,,,,,,,,,,,,,,,,,,,,,,,
0,69,69,72,1,,6117772456477652eea60139,62c53a0d1ea850893376a8df,2022-07-06_09h31.42.784,Colour_Asymmetry_Pilot,2022.1.3,Win32,60.0348202,62c50e9c1127f2cd403a315f,,,,,,,,,,,,,,,,,,,,,,,,,,,,,,,,,,,,,,,,,,,,,,,,,,,,,,,,,,,,,,,,,,,,,,,,,,,,,,,,,,,,,,,,,,,,,,,,,,,,,,,,,,,,,,,,,,,,,,,,,,,,,,,,,,,,,,,,,,,,,,,,,,,,,,,,,,,,,,,,,,,
0,70,70,46,1,,6117772456477652eea60139,62c53a0d1ea850893376a8df,2022-07-06_09h31.42.784,Colour_Asymmetry_Pilot,2022.1.3,Win32,60.0348202,62c50e9c1127f2cd403a315f,,,,,,,,,,,,,,,,,,,,,,,,,,,,,,,,,,,,,,,,,,,,,,,,,,,,,,,,,,,,,,,,,,,,,,,,,,,,,,,,,,,,,,,,,,,,,,,,,,,,,,,,,,,,,,,,,,,,,,,,,,,,,,,,,,,,,,,,,,,,,,,,,,,,,,,,,,,,,,,,,,,
0,71,71,40,1,,6117772456477652eea60139,62c53a0d1ea850893376a8df,2022-07-06_09h31.42.784,Colour_Asymmetry_Pilot,2022.1.3,Win32,60.0348202,62c50e9c1127f2cd403a315f,,,,,,,,,,,,,,,,,,,,,,,,,,,,,,,,,,,,,,,,,,,,,,,,,,,,,,,,,,,,,,,,,,,,,,,,,,,,,,,,,,,,,,,,,,,,,,,,,,,,,,,,,,,,,,,,,,,,,,,,,,,,,,,,,,,,,,,,,,,,,,,,,,,,,,,,,,,,,,,,,,,
0,72,72,85,1,,6117772456477652eea60139,62c53a0d1ea850893376a8df,2022-07-06_09h31.42.784,Colour_Asymmetry_Pilot,2022.1.3,Win32,60.0348202,62c50e9c1127f2cd403a315f,,,,,,,,,,,,,,,,,,,,,,,,,,,,,,,,,,,,,,,,,,,,,,,,,,,,,,,,,,,,,,,,,,,,,,,,,,,,,,,,,,,,,,,,,,,,,,,,,,,,,,,,,,,,,,,,,,,,,,,,,,,,,,,,,,,,,,,,,,,,,,,,,,,,,,,,,,,,,,,,,,,
0,73,73,75,1,,6117772456477652eea60139,62c53a0d1ea850893376a8df,2022-07-06_09h31.42.784,Colour_Asymmetry_Pilot,2022.1.3,Win32,60.0348202,62c50e9c1127f2cd403a315f,,,,,,,,,,,,,,,,,,,,,,,,,,,,,,,,,,,,,,,,,,,,,,,,,,,,,,,,,,,,,,,,,,,,,,,,,,,,,,,,,,,,,,,,,,,,,,,,,,,,,,,,,,,,,,,,,,,,,,,,,,,,,,,,,,,,,,,,,,,,,,,,,,,,,,,,,,,,,,,,,,,
0,74,74,15,1,,6117772456477652eea60139,62c53a0d1ea850893376a8df,2022-07-06_09h31.42.784,Colour_Asymmetry_Pilot,2022.1.3,Win32,60.0348202,62c50e9c1127f2cd403a315f,,,,,,,,,,,,,,,,,,,,,,,,,,,,,,,,,,,,,,,,,,,,,,,,,,,,,,,,,,,,,,,,,,,,,,,,,,,,,,,,,,,,,,,,,,,,,,,,,,,,,,,,,,,,,,,,,,,,,,,,,,,,,,,,,,,,,,,,,,,,,,,,,,,,,,,,,,,,,,,,,,,
0,75,75,33,1,,6117772456477652eea60139,62c53a0d1ea850893376a8df,2022-07-06_09h31.42.784,Colour_Asymmetry_Pilot,2022.1.3,Win32,60.0348202,62c50e9c1127f2cd403a315f,,,,,,,,,,,,,,,,,,,,,,,,,,,,,,,,,,,,,,,,,,,,,,,,,,,,,,,,,,,,,,,,,,,,,,,,,,,,,,,,,,,,,,,,,,,,,,,,,,,,,,,,,,,,,,,,,,,,,,,,,,,,,,,,,,,,,,,,,,,,,,,,,,,,,,,,,,,,,,,,,,,
0,76,76,81,1,,6117772456477652eea60139,62c53a0d1ea850893376a8df,2022-07-06_09h31.42.784,Colour_Asymmetry_Pilot,2022.1.3,Win32,60.0348202,62c50e9c1127f2cd403a315f,,,,,,,,,,,,,,,,,,,,,,,,,,,,,,,,,,,,,,,,,,,,,,,,,,,,,,,,,,,,,,,,,,,,,,,,,,,,,,,,,,,,,,,,,,,,,,,,,,,,,,,,,,,,,,,,,,,,,,,,,,,,,,,,,,,,,,,,,,,,,,,,,,,,,,,,,,,,,,,,,,,
0,77,77,73,1,,6117772456477652eea60139,62c53a0d1ea850893376a8df,2022-07-06_09h31.42.784,Colour_Asymmetry_Pilot,2022.1.3,Win32,60.0348202,62c50e9c1127f2cd403a315f,,,,,,,,,,,,,,,,,,,,,,,,,,,,,,,,,,,,,,,,,,,,,,,,,,,,,,,,,,,,,,,,,,,,,,,,,,,,,,,,,,,,,,,,,,,,,,,,,,,,,,,,,,,,,,,,,,,,,,,,,,,,,,,,,,,,,,,,,,,,,,,,,,,,,,,,,,,,,,,,,,,
0,78,78,38,1,,6117772456477652eea60139,62c53a0d1ea850893376a8df,2022-07-06_09h31.42.784,Colour_Asymmetry_Pilot,2022.1.3,Win32,60.0348202,62c50e9c1127f2cd403a315f,,,,,,,,,,,,,,,,,,,,,,,,,,,,,,,,,,,,,,,,,,,,,,,,,,,,,,,,,,,,,,,,,,,,,,,,,,,,,,,,,,,,,,,,,,,,,,,,,,,,,,,,,,,,,,,,,,,,,,,,,,,,,,,,,,,,,,,,,,,,,,,,,,,,,,,,,,,,,,,,,,,
0,79,79,84,1,,6117772456477652eea60139,62c53a0d1ea850893376a8df,2022-07-06_09h31.42.784,Colour_Asymmetry_Pilot,2022.1.3,Win32,60.0348202,62c50e9c1127f2cd403a315f,,,,,,,,,,,,,,,,,,,,,,,,,,,,,,,,,,,,,,,,,,,,,,,,,,,,,,,,,,,,,,,,,,,,,,,,,,,,,,,,,,,,,,,,,,,,,,,,,,,,,,,,,,,,,,,,,,,,,,,,,,,,,,,,,,,,,,,,,,,,,,,,,,,,,,,,,,,,,,,,,,,
0,80,80,86,1,,6117772456477652eea60139,62c53a0d1ea850893376a8df,2022-07-06_09h31.42.784,Colour_Asymmetry_Pilot,2022.1.3,Win32,60.0348202,62c50e9c1127f2cd403a315f,,,,,,,,,,,,,,,,,,,,,,,,,,,,,,,,,,,,,,,,,,,,,,,,,,,,,,,,,,,,,,,,,,,,,,,,,,,,,,,,,,,,,,,,,,,,,,,,,,,,,,,,,,,,,,,,,,,,,,,,,,,,,,,,,,,,,,,,,,,,,,,,,,,,,,,,,,,,,,,,,,,
0,81,81,30,1,,6117772456477652eea60139,62c53a0d1ea850893376a8df,2022-07-06_09h31.42.784,Colour_Asymmetry_Pilot,2022.1.3,Win32,60.0348202,62c50e9c1127f2cd403a315f,,,,,,,,,,,,,,,,,,,,,,,,,,,,,,,,,,,,,,,,,,,,,,,,,,,,,,,,,,,,,,,,,,,,,,,,,,,,,,,,,,,,,,,,,,,,,,,,,,,,,,,,,,,,,,,,,,,,,,,,,,,,,,,,,,,,,,,,,,,,,,,,,,,,,,,,,,,,,,,,,,,
0,82,82,20,1,,6117772456477652eea60139,62c53a0d1ea850893376a8df,2022-07-06_09h31.42.784,Colour_Asymmetry_Pilot,2022.1.3,Win32,60.0348202,62c50e9c1127f2cd403a315f,,,,,,,,,,,,,,,,,,,,,,,,,,,,,,,,,,,,,,,,,,,,,,,,,,,,,,,,,,,,,,,,,,,,,,,,,,,,,,,,,,,,,,,,,,,,,,,,,,,,,,,,,,,,,,,,,,,,,,,,,,,,,,,,,,,,,,,,,,,,,,,,,,,,,,,,,,,,,,,,,,,
0,83,83,37,1,,6117772456477652eea60139,62c53a0d1ea850893376a8df,2022-07-06_09h31.42.784,Colour_Asymmetry_Pilot,2022.1.3,Win32,60.0348202,62c50e9c1127f2cd403a315f,,,,,,,,,,,,,,,,,,,,,,,,,,,,,,,,,,,,,,,,,,,,,,,,,,,,,,,,,,,,,,,,,,,,,,,,,,,,,,,,,,,,,,,,,,,,,,,,,,,,,,,,,,,,,,,,,,,,,,,,,,,,,,,,,,,,,,,,,,,,,,,,,,,,,,,,,,,,,,,,,,,
0,84,84,17,1,,6117772456477652eea60139,62c53a0d1ea850893376a8df,2022-07-06_09h31.42.784,Colour_Asymmetry_Pilot,2022.1.3,Win32,60.0348202,62c50e9c1127f2cd403a315f,,,,,,,,,,,,,,,,,,,,,,,,,,,,,,,,,,,,,,,,,,,,,,,,,,,,,,,,,,,,,,,,,,,,,,,,,,,,,,,,,,,,,,,,,,,,,,,,,,,,,,,,,,,,,,,,,,,,,,,,,,,,,,,,,,,,,,,,,,,,,,,,,,,,,,,,,,,,,,,,,,,
0,85,85,78,1,,6117772456477652eea60139,62c53a0d1ea850893376a8df,2022-07-06_09h31.42.784,Colour_Asymmetry_Pilot,2022.1.3,Win32,60.0348202,62c50e9c1127f2cd403a315f,,,,,,,,,,,,,,,,,,,,,,,,,,,,,,,,,,,,,,,,,,,,,,,,,,,,,,,,,,,,,,,,,,,,,,,,,,,,,,,,,,,,,,,,,,,,,,,,,,,,,,,,,,,,,,,,,,,,,,,,,,,,,,,,,,,,,,,,,,,,,,,,,,,,,,,,,,,,,,,,,,,
0,86,86,62,1,,6117772456477652eea60139,62c53a0d1ea850893376a8df,2022-07-06_09h31.42.784,Colour_Asymmetry_Pilot,2022.1.3,Win32,60.0348202,62c50e9c1127f2cd403a315f,,,,,,,,,,,,,,,,,,,,,,,,,,,,,,,,,,,,,,,,,,,,,,,,,,,,,,,,,,,,,,,,,,,,,,,,,,,,,,,,,,,,,,,,,,,,,,,,,,,,,,,,,,,,,,,,,,,,,,,,,,,,,,,,,,,,,,,,,,,,,,,,,,,,,,,,,,,,,,,,,,,
0,87,87,21,1,,6117772456477652eea60139,62c53a0d1ea850893376a8df,2022-07-06_09h31.42.784,Colour_Asymmetry_Pilot,2022.1.3,Win32,60.0348202,62c50e9c1127f2cd403a315f,,,,,,,,,,,,,,,,,,,,,,,,,,,,,,,,,,,,,,,,,,,,,,,,,,,,,,,,,,,,,,,,,,,,,,,,,,,,,,,,,,,,,,,,,,,,,,,,,,,,,,,,,,,,,,,,,,,,,,,,,,,,,,,,,,,,,,,,,,,,,,,,,,,,,,,,,,,,,,,,,,,
0,88,88,41,1,,6117772456477652eea60139,62c53a0d1ea850893376a8df,2022-07-06_09h31.42.784,Colour_Asymmetry_Pilot,2022.1.3,Win32,60.0348202,62c50e9c1127f2cd403a315f,,,,,,,,,,,,,,,,,,,,,,,,,,,,,,,,,,,,,,,,,,,,,,,,,,,,,,,,,,,,,,,,,,,,,,,,,,,,,,,,,,,,,,,,,,,,,,,,,,,,,,,,,,,,,,,,,,,,,,,,,,,,,,,,,,,,,,,,,,,,,,,,,,,,,,,,,,,,,,,,,,,
0,89,89,35,1,,6117772456477652eea60139,62c53a0d1ea850893376a8df,2022-07-06_09h31.42.784,Colour_Asymmetry_Pilot,2022.1.3,Win32,60.0348202,62c50e9c1127f2cd403a315f,,,,,,,,,,,,,,,,,,,,,,,,,,,,,,,,,,,,,,,,,,,,,,,,,,,,,,,,,,,,,,,,,,,,,,,,,,,,,,,,,,,,,,,,,,,,,,,,,,,,,,,,,,,,,,,,,,,,,,,,,,,,,,,,,,,,,,,,,,,,,,,,,,,,,,,,,,,,,,,,,,,
0,90,90,18,1,,6117772456477652eea60139,62c53a0d1ea850893376a8df,2022-07-06_09h31.42.784,Colour_Asymmetry_Pilot,2022.1.3,Win32,60.0348202,62c50e9c1127f2cd403a315f,,,,,,,,,,,,,,,,,,,,,,,,,,,,,,,,,,,,,,,,,,,,,,,,,,,,,,,,,,,,,,,,,,,,,,,,,,,,,,,,,,,,,,,,,,,,,,,,,,,,,,,,,,,,,,,,,,,,,,,,,,,,,,,,,,,,,,,,,,,,,,,,,,,,,,,,,,,,,,,,,,,
0,91,91,12,1,,6117772456477652eea60139,62c53a0d1ea850893376a8df,2022-07-06_09h31.42.784,Colour_Asymmetry_Pilot,2022.1.3,Win32,60.0348202,62c50e9c1127f2cd403a315f,,,,,,,,,,,,,,,,,,,,,,,,,,,,,,,,,,,,,,,,,,,,,,,,,,,,,,,,,,,,,,,,,,,,,,,,,,,,,,,,,,,,,,,,,,,,,,,,,,,,,,,,,,,,,,,,,,,,,,,,,,,,,,,,,,,,,,,,,,,,,,,,,,,,,,,,,,,,,,,,,,,
0,92,92,7,1,,6117772456477652eea60139,62c53a0d1ea850893376a8df,2022-07-06_09h31.42.784,Colour_Asymmetry_Pilot,2022.1.3,Win32,60.0348202,62c50e9c1127f2cd403a315f,,,,,,,,,,,,,,,,,,,,,,,,,,,,,,,,,,,,,,,,,,,,,,,,,,,,,,,,,,,,,,,,,,,,,,,,,,,,,,,,,,,,,,,,,,,,,,,,,,,,,,,,,,,,,,,,,,,,,,,,,,,,,,,,,,,,,,,,,,,,,,,,,,,,,,,,,,,,,,,,,,,
,,,,,,6117772456477652eea60139,62c53a0d1ea850893376a8df,2022-07-06_09h31.42.784,Colour_Asymmetry_Pilot,2022.1.3,Win32,60.0348202,62c50e9c1127f2cd403a315f,0,0,0,12,1,threeone,,,,,,,,,,,,,,,,,,,,,,,,,,,,,,,,,,,,,,,,,,,,,,,,,,,,,,,,,,,,,,,,,,,,,,,,,,,,,,,,,,,,,,,,,,,,,,,,,,,,,,,,,,,,,,,,,,,,,,,,,,,,,,,,,,,,,,,,,,,,,,,,,,,,,,,,,,,,,
,,,,,,6117772456477652eea60139,62c53a0d1ea850893376a8df,2022-07-06_09h31.42.784,Colour_Asymmetry_Pilot,2022.1.3,Win32,60.0348202,62c50e9c1127f2cd403a315f,0,1,1,82,1,twoone,,,,,,,,,,,,,,,,,,,,,,,,,,,,,,,,,,,,,,,,,,,,,,,,,,,,,,,,,,,,,,,,,,,,,,,,,,,,,,,,,,,,,,,,,,,,,,,,,,,,,,,,,,,,,,,,,,,,,,,,,,,,,,,,,,,,,,,,,,,,,,,,,,,,,,,,,,,,,
,,,,,,6117772456477652eea60139,62c53a0d1ea850893376a8df,2022-07-06_09h31.42.784,Colour_Asymmetry_Pilot,2022.1.3,Win32,60.0348202,62c50e9c1127f2cd403a315f,0,2,2,30,1,fourtwo,,,,,,,,,,,,,,,,,,,,,,,,,,,,,,,,,,,,,,,,,,,,,,,,,,,,,,,,,,,,,,,,,,,,,,,,,,,,,,,,,,,,,,,,,,,,,,,,,,,,,,,,,,,,,,,,,,,,,,,,,,,,,,,,,,,,,,,,,,,,,,,,,,,,,,,,,,,,,
,,,,,,6117772456477652eea60139,62c53a0d1ea850893376a8df,2022-07-06_09h31.42.784,Colour_Asymmetry_Pilot,2022.1.3,Win32,60.0348202,62c50e9c1127f2cd403a315f,0,3,3,86,1,fourtwo,,,,,,,,,,,,,,,,,,,,,,,,,,,,,,,,,,,,,,,,,,,,,,,,,,,,,,,,,,,,,,,,,,,,,,,,,,,,,,,,,,,,,,,,,,,,,,,,,,,,,,,,,,,,,,,,,,,,,,,,,,,,,,,,,,,,,,,,,,,,,,,,,,,,,,,,,,,,,
,,,,,,6117772456477652eea60139,62c53a0d1ea850893376a8df,2022-07-06_09h31.42.784,Colour_Asymmetry_Pilot,2022.1.3,Win32,60.0348202,62c50e9c1127f2cd403a315f,0,4,4,71,1,fourthree,,,,,,,,,,,,,,,,,,,,,,,,,,,,,,,,,,,,,,,,,,,,,,,,,,,,,,,,,,,,,,,,,,,,,,,,,,,,,,,,,,,,,,,,,,,,,,,,,,,,,,,,,,,,,,,,,,,,,,,,,,,,,,,,,,,,,,,,,,,,,,,,,,,,,,,,,,,,,
,,,,,,6117772456477652eea60139,62c53a0d1ea850893376a8df,2022-07-06_09h31.42.784,Colour_Asymmetry_Pilot,2022.1.3,Win32,60.0348202,62c50e9c1127f2cd403a315f,0,5,5,28,1,threeone,,,,,,,,,,,,,,,,,,,,,,,,,,,,,,,,,,,,,,,,,,,,,,,,,,,,,,,,,,,,,,,,,,,,,,,,,,,,,,,,,,,,,,,,,,,,,,,,,,,,,,,,,,,,,,,,,,,,,,,,,,,,,,,,,,,,,,,,,,,,,,,,,,,,,,,,,,,,,
,,,,,,6117772456477652eea60139,62c53a0d1ea850893376a8df,2022-07-06_09h31.42.784,Colour_Asymmetry_Pilot,2022.1.3,Win32,60.0348202,62c50e9c1127f2cd403a315f,0,6,6,68,1,threeone,,,,,,,,,,,,,,,,,,,,,,,,,,,,,,,,,,,,,,,,,,,,,,,,,,,,,,,,,,,,,,,,,,,,,,,,,,,,,,,,,,,,,,,,,,,,,,,,,,,,,,,,,,,,,,,,,,,,,,,,,,,,,,,,,,,,,,,,,,,,,,,,,,,,,,,,,,,,,
,,,,,,6117772456477652eea60139,62c53a0d1ea850893376a8df,2022-07-06_09h31.42.784,Colour_Asymmetry_Pilot,2022.1.3,Win32,60.0348202,62c50e9c1127f2cd403a315f,0,7,7,102,1,fourtwo,,,,,,,,,,,,,,,,,,,,,,,,,,,,,,,,,,,,,,,,,,,,,,,,,,,,,,,,,,,,,,,,,,,,,,,,,,,,,,,,,,,,,,,,,,,,,,,,,,,,,,,,,,,,,,,,,,,,,,,,,,,,,,,,,,,,,,,,,,,,,,,,,,,,,,,,,,,,,
,,,,,,6117772456477652eea60139,62c53a0d1ea850893376a8df,2022-07-06_09h31.42.784,Colour_Asymmetry_Pilot,2022.1.3,Win32,60.0348202,62c50e9c1127f2cd403a315f,0,8,8,112,1,onetwo,,,,,,,,,,,,,,,,,,,,,,,,,,,,,,,,,,,,,,,,,,,,,,,,,,,,,,,,,,,,,,,,,,,,,,,,,,,,,,,,,,,,,,,,,,,,,,,,,,,,,,,,,,,,,,,,,,,,,,,,,,,,,,,,,,,,,,,,,,,,,,,,,,,,,,,,,,,,,
,,,,,,6117772456477652eea60139,62c53a0d1ea850893376a8df,2022-07-06_09h31.42.784,Colour_Asymmetry_Pilot,2022.1.3,Win32,60.0348202,62c50e9c1127f2cd403a315f,0,9,9,125,1,threefour,,,,,,,,,,,,,,,,,,,,,,,,,,,,,,,,,,,,,,,,,,,,,,,,,,,,,,,,,,,,,,,,,,,,,,,,,,,,,,,,,,,,,,,,,,,,,,,,,,,,,,,,,,,,,,,,,,,,,,,,,,,,,,,,,,,,,,,,,,,,,,,,,,,,,,,,,,,,,
,,,,,,6117772456477652eea60139,62c53a0d1ea850893376a8df,2022-07-06_09h31.42.784,Colour_Asymmetry_Pilot,2022.1.3,Win32,60.0348202,62c50e9c1127f2cd403a315f,0,10,10,161,1,onethree,,,,,,,,,,,,,,,,,,,,,,,,,,,,,,,,,,,,,,,,,,,,,,,,,,,,,,,,,,,,,,,,,,,,,,,,,,,,,,,,,,,,,,,,,,,,,,,,,,,,,,,,,,,,,,,,,,,,,,,,,,,,,,,,,,,,,,,,,,,,,,,,,,,,,,,,,,,,,
,,,,,,6117772456477652eea60139,62c53a0d1ea850893376a8df,2022-07-06_09h31.42.784,Colour_Asymmetry_Pilot,2022.1.3,Win32,60.0348202,62c50e9c1127f2cd403a315f,0,11,11,1,1,onethree,,,,,,,,,,,,,,,,,,,,,,,,,,,,,,,,,,,,,,,,,,,,,,,,,,,,,,,,,,,,,,,,,,,,,,,,,,,,,,,,,,,,,,,,,,,,,,,,,,,,,,,,,,,,,,,,,,,,,,,,,,,,,,,,,,,,,,,,,,,,,,,,,,,,,,,,,,,,,
,,,,,,6117772456477652eea60139,62c53a0d1ea850893376a8df,2022-07-06_09h31.42.784,Colour_Asymmetry_Pilot,2022.1.3,Win32,60.0348202,62c50e9c1127f2cd403a315f,0,12,12,39,1,fourthree,,,,,,,,,,,,,,,,,,,,,,,,,,,,,,,,,,,,,,,,,,,,,,,,,,,,,,,,,,,,,,,,,,,,,,,,,,,,,,,,,,,,,,,,,,,,,,,,,,,,,,,,,,,,,,,,,,,,,,,,,,,,,,,,,,,,,,,,,,,,,,,,,,,,,,,,,,,,,
,,,,,,6117772456477652eea60139,62c53a0d1ea850893376a8df,2022-07-06_09h31.42.784,Colour_Asymmetry_Pilot,2022.1.3,Win32,60.0348202,62c50e9c1127f2cd403a315f,0,13,13,5,1,threefour,,,,,,,,,,,,,,,,,,,,,,,,,,,,,,,,,,,,,,,,,,,,,,,,,,,,,,,,,,,,,,,,,,,,,,,,,,,,,,,,,,,,,,,,,,,,,,,,,,,,,,,,,,,,,,,,,,,,,,,,,,,,,,,,,,,,,,,,,,,,,,,,,,,,,,,,,,,,,
,,,,,,6117772456477652eea60139,62c53a0d1ea850893376a8df,2022-07-06_09h31.42.784,Colour_Asymmetry_Pilot,2022.1.3,Win32,60.0348202,62c50e9c1127f2cd403a315f,0,14,14,70,1,fourtwo,,,,,,,,,,,,,,,,,,,,,,,,,,,,,,,,,,,,,,,,,,,,,,,,,,,,,,,,,,,,,,,,,,,,,,,,,,,,,,,,,,,,,,,,,,,,,,,,,,,,,,,,,,,,,,,,,,,,,,,,,,,,,,,,,,,,,,,,,,,,,,,,,,,,,,,,,,,,,
,,,,,,6117772456477652eea60139,62c53a0d1ea850893376a8df,2022-07-06_09h31.42.784,Colour_Asymmetry_Pilot,2022.1.3,Win32,60.0348202,62c50e9c1127f2cd403a315f,0,15,15,65,1,onethree,,,,,,,,,,,,,,,,,,,,,,,,,,,,,,,,,,,,,,,,,,,,,,,,,,,,,,,,,,,,,,,,,,,,,,,,,,,,,,,,,,,,,,,,,,,,,,,,,,,,,,,,,,,,,,,,,,,,,,,,,,,,,,,,,,,,,,,,,,,,,,,,,,,,,,,,,,,,,
,,,,,,6117772456477652eea60139,62c53a0d1ea850893376a8df,2022-07-06_09h31.42.784,Colour_Asymmetry_Pilot,2022.1.3,Win32,60.0348202,62c50e9c1127f2cd403a315f,0,16,16,156,1,threeone,,,,,,,,,,,,,,,,,,,,,,,,,,,,,,,,,,,,,,,,,,,,,,,,,,,,,,,,,,,,,,,,,,,,,,,,,,,,,,,,,,,,,,,,,,,,,,,,,,,,,,,,,,,,,,,,,,,,,,,,,,,,,,,,,,,,,,,,,,,,,,,,,,,,,,,,,,,,,
,,,,,,6117772456477652eea60139,62c53a0d1ea850893376a8df,2022-07-06_09h31.42.784,Colour_Asymmetry_Pilot,2022.1.3,Win32,60.0348202,62c50e9c1127f2cd403a315f,0,17,17,22,1,fourtwo,,,,,,,,,,,,,,,,,,,,,,,,,,,,,,,,,,,,,,,,,,,,,,,,,,,,,,,,,,,,,,,,,,,,,,,,,,,,,,,,,,,,,,,,,,,,,,,,,,,,,,,,,,,,,,,,,,,,,,,,,,,,,,,,,,,,,,,,,,,,,,,,,,,,,,,,,,,,,
,,,,,,6117772456477652eea60139,62c53a0d1ea850893376a8df,2022-07-06_09h31.42.784,Colour_Asymmetry_Pilot,2022.1.3,Win32,60.0348202,62c50e9c1127f2cd403a315f,0,18,18,11,1,twofour,,,,,,,,,,,,,,,,,,,,,,,,,,,,,,,,,,,,,,,,,,,,,,,,,,,,,,,,,,,,,,,,,,,,,,,,,,,,,,,,,,,,,,,,,,,,,,,,,,,,,,,,,,,,,,,,,,,,,,,,,,,,,,,,,,,,,,,,,,,,,,,,,,,,,,,,,,,,,
,,,,,,6117772456477652eea60139,62c53a0d1ea850893376a8df,2022-07-06_09h31.42.784,Colour_Asymmetry_Pilot,2022.1.3,Win32,60.0348202,62c50e9c1127f2cd403a315f,0,19,19,85,1,threefour,,,,,,,,,,,,,,,,,,,,,,,,,,,,,,,,,,,,,,,,,,,,,,,,,,,,,,,,,,,,,,,,,,,,,,,,,,,,,,,,,,,,,,,,,,,,,,,,,,,,,,,,,,,,,,,,,,,,,,,,,,,,,,,,,,,,,,,,,,,,,,,,,,,,,,,,,,,,,
,,,,,,6117772456477652eea60139,62c53a0d1ea850893376a8df,2022-07-06_09h31.42.784,Colour_Asymmetry_Pilot,2022.1.3,Win32,60.0348202,62c50e9c1127f2cd403a315f,0,20,20,104,1,onetwo,,,,,,,,,,,,,,,,,,,,,,,,,,,,,,,,,,,,,,,,,,,,,,,,,,,,,,,,,,,,,,,,,,,,,,,,,,,,,,,,,,,,,,,,,,,,,,,,,,,,,,,,,,,,,,,,,,,,,,,,,,,,,,,,,,,,,,,,,,,,,,,,,,,,,,,,,,,,,
,,,,,,6117772456477652eea60139,62c53a0d1ea850893376a8df,2022-07-06_09h31.42.784,Colour_Asymmetry_Pilot,2022.1.3,Win32,60.0348202,62c50e9c1127f2cd403a315f,0,21,21,141,1,threefour,,,,,,,,,,,,,,,,,,,,,,,,,,,,,,,,,,,,,,,,,,,,,,,,,,,,,,,,,,,,,,,,,,,,,,,,,,,,,,,,,,,,,,,,,,,,,,,,,,,,,,,,,,,,,,,,,,,,,,,,,,,,,,,,,,,,,,,,,,,,,,,,,,,,,,,,,,,,,
,,,,,,6117772456477652eea60139,62c53a0d1ea850893376a8df,2022-07-06_09h31.42.784,Colour_Asymmetry_Pilot,2022.1.3,Win32,60.0348202,62c50e9c1127f2cd403a315f,0,22,22,153,1,onethree,,,,,,,,,,,,,,,,,,,,,,,,,,,,,,,,,,,,,,,,,,,,,,,,,,,,,,,,,,,,,,,,,,,,,,,,,,,,,,,,,,,,,,,,,,,,,,,,,,,,,,,,,,,,,,,,,,,,,,,,,,,,,,,,,,,,,,,,,,,,,,,,,,,,,,,,,,,,,
,,,,,,6117772456477652eea60139,62c53a0d1ea850893376a8df,2022-07-06_09h31.42.784,Colour_Asymmetry_Pilot,2022.1.3,Win32,60.0348202,62c50e9c1127f2cd403a315f,0,23,23,75,1,twofour,,,,,,,,,,,,,,,,,,,,,,,,,,,,,,,,,,,,,,,,,,,,,,,,,,,,,,,,,,,,,,,,,,,,,,,,,,,,,,,,,,,,,,,,,,,,,,,,,,,,,,,,,,,,,,,,,,,,,,,,,,,,,,,,,,,,,,,,,,,,,,,,,,,,,,,,,,,,,
,,,,,,6117772456477652eea60139,62c53a0d1ea850893376a8df,2022-07-06_09h31.42.784,Colour_Asymmetry_Pilot,2022.1.3,Win32,60.0348202,62c50e9c1127f2cd403a315f,0,24,24,92,1,threeone,,,,,,,,,,,,,,,,,,,,,,,,,,,,,,,,,,,,,,,,,,,,,,,,,,,,,,,,,,,,,,,,,,,,,,,,,,,,,,,,,,,,,,,,,,,,,,,,,,,,,,,,,,,,,,,,,,,,,,,,,,,,,,,,,,,,,,,,,,,,,,,,,,,,,,,,,,,,,
,,,,,,6117772456477652eea60139,62c53a0d1ea850893376a8df,2022-07-06_09h31.42.784,Colour_Asymmetry_Pilot,2022.1.3,Win32,60.0348202,62c50e9c1127f2cd403a315f,0,25,25,142,1,fourtwo,,,,,,,,,,,,,,,,,,,,,,,,,,,,,,,,,,,,,,,,,,,,,,,,,,,,,,,,,,,,,,,,,,,,,,,,,,,,,,,,,,,,,,,,,,,,,,,,,,,,,,,,,,,,,,,,,,,,,,,,,,,,,,,,,,,,,,,,,,,,,,,,,,,,,,,,,,,,,
,,,,,,6117772456477652eea60139,62c53a0d1ea850893376a8df,2022-07-06_09h31.42.784,Colour_Asymmetry_Pilot,2022.1.3,Win32,60.0348202,62c50e9c1127f2cd403a315f,0,26,26,29,1,threefour,,,,,,,,,,,,,,,,,,,,,,,,,,,,,,,,,,,,,,,,,,,,,,,,,,,,,,,,,,,,,,,,,,,,,,,,,,,,,,,,,,,,,,,,,,,,,,,,,,,,,,,,,,,,,,,,,,,,,,,,,,,,,,,,,,,,,,,,,,,,,,,,,,,,,,,,,,,,,
,,,,,,6117772456477652eea60139,62c53a0d1ea850893376a8df,2022-07-06_09h31.42.784,Colour_Asymmetry_Pilot,2022.1.3,Win32,60.0348202,62c50e9c1127f2cd403a315f,0,27,27,143,1,fourthree,,,,,,,,,,,,,,,,,,,,,,,,,,,,,,,,,,,,,,,,,,,,,,,,,,,,,,,,,,,,,,,,,,,,,,,,,,,,,,,,,,,,,,,,,,,,,,,,,,,,,,,,,,,,,,,,,,,,,,,,,,,,,,,,,,,,,,,,,,,,,,,,,,,,,,,,,,,,,
,,,,,,6117772456477652eea60139,62c53a0d1ea850893376a8df,2022-07-06_09h31.42.784,Colour_Asymmetry_Pilot,2022.1.3,Win32,60.0348202,62c50e9c1127f2cd403a315f,0,28,28,139,1,twofour,,,,,,,,,,,,,,,,,,,,,,,,,,,,,,,,,,,,,,,,,,,,,,,,,,,,,,,,,,,,,,,,,,,,,,,,,,,,,,,,,,,,,,,,,,,,,,,,,,,,,,,,,,,,,,,,,,,,,,,,,,,,,,,,,,,,,,,,,,,,,,,,,,,,,,,,,,,,,
,,,,,,6117772456477652eea60139,62c53a0d1ea850893376a8df,2022-07-06_09h31.42.784,Colour_Asymmetry_Pilot,2022.1.3,Win32,60.0348202,62c50e9c1127f2cd403a315f,0,29,29,20,1,threeone,,,,,,,,,,,,,,,,,,,,,,,,,,,,,,,,,,,,,,,,,,,,,,,,,,,,,,,,,,,,,,,,,,,,,,,,,,,,,,,,,,,,,,,,,,,,,,,,,,,,,,,,,,,,,,,,,,,,,,,,,,,,,,,,,,,,,,,,,,,,,,,,,,,,,,,,,,,,,
,,,,,,6117772456477652eea60139,62c53a0d1ea850893376a8df,2022-07-06_09h31.42.784,Colour_Asymmetry_Pilot,2022.1.3,Win32,60.0348202,62c50e9c1127f2cd403a315f,0,30,30,14,1,fourtwo,,,,,,,,,,,,,,,,,,,,,,,,,,,,,,,,,,,,,,,,,,,,,,,,,,,,,,,,,,,,,,,,,,,,,,,,,,,,,,,,,,,,,,,,,,,,,,,,,,,,,,,,,,,,,,,,,,,,,,,,,,,,,,,,,,,,,,,,,,,,,,,,,,,,,,,,,,,,,
,,,,,,6117772456477652eea60139,62c53a0d1ea850893376a8df,2022-07-06_09h31.42.784,Colour_Asymmetry_Pilot,2022.1.3,Win32,60.0348202,62c50e9c1127f2cd403a315f,0,31,31,123,1,twofour,,,,,,,,,,,,,,,,,,,,,,,,,,,,,,,,,,,,,,,,,,,,,,,,,,,,,,,,,,,,,,,,,,,,,,,,,,,,,,,,,,,,,,,,,,,,,,,,,,,,,,,,,,,,,,,,,,,,,,,,,,,,,,,,,,,,,,,,,,,,,,,,,,,,,,,,,,,,,
,,,,,,6117772456477652eea60139,62c53a0d1ea850893376a8df,2022-07-06_09h31.42.784,Colour_Asymmetry_Pilot,2022.1.3,Win32,60.0348202,62c50e9c1127f2cd403a315f,0,32,32,81,1,onethree,,,,,,,,,,,,,,,,,,,,,,,,,,,,,,,,,,,,,,,,,,,,,,,,,,,,,,,,,,,,,,,,,,,,,,,,,,,,,,,,,,,,,,,,,,,,,,,,,,,,,,,,,,,,,,,,,,,,,,,,,,,,,,,,,,,,,,,,,,,,,,,,,,,,,,,,,,,,,
,,,,,,6117772456477652eea60139,62c53a0d1ea850893376a8df,2022-07-06_09h31.42.784,Colour_Asymmetry_Pilot,2022.1.3,Win32,60.0348202,62c50e9c1127f2cd403a315f,0,33,33,137,1,onethree,,,,,,,,,,,,,,,,,,,,,,,,,,,,,,,,,,,,,,,,,,,,,,,,,,,,,,,,,,,,,,,,,,,,,,,,,,,,,,,,,,,,,,,,,,,,,,,,,,,,,,,,,,,,,,,,,,,,,,,,,,,,,,,,,,,,,,,,,,,,,,,,,,,,,,,,,,,,,
,,,,,,6117772456477652eea60139,62c53a0d1ea850893376a8df,2022-07-06_09h31.42.784,Colour_Asymmetry_Pilot,2022.1.3,Win32,60.0348202,62c50e9c1127f2cd403a315f,0,34,34,91,1,twofour,,,,,,,,,,,,,,,,,,,,,,,,,,,,,,,,,,,,,,,,,,,,,,,,,,,,,,,,,,,,,,,,,,,,,,,,,,,,,,,,,,,,,,,,,,,,,,,,,,,,,,,,,,,,,,,,,,,,,,,,,,,,,,,,,,,,,,,,,,,,,,,,,,,,,,,,,,,,,
,,,,,,6117772456477652eea60139,62c53a0d1ea850893376a8df,2022-07-06_09h31.42.784,Colour_Asymmetry_Pilot,2022.1.3,Win32,60.0348202,62c50e9c1127f2cd403a315f,0,35,35,144,1,onetwo,,,,,,,,,,,,,,,,,,,,,,,,,,,,,,,,,,,,,,,,,,,,,,,,,,,,,,,,,,,,,,,,,,,,,,,,,,,,,,,,,,,,,,,,,,,,,,,,,,,,,,,,,,,,,,,,,,,,,,,,,,,,,,,,,,,,,,,,,,,,,,,,,,,,,,,,,,,,,
,,,,,,6117772456477652eea60139,62c53a0d1ea850893376a8df,2022-07-06_09h31.42.784,Colour_Asymmetry_Pilot,2022.1.3,Win32,60.0348202,62c50e9c1127f2cd403a315f,0,36,36,54,1,fourtwo,,,,,,,,,,,,,,,,,,,,,,,,,,,,,,,,,,,,,,,,,,,,,,,,,,,,,,,,,,,,,,,,,,,,,,,,,,,,,,,,,,,,,,,,,,,,,,,,,,,,,,,,,,,,,,,,,,,,,,,,,,,,,,,,,,,,,,,,,,,,,,,,,,,,,,,,,,,,,
,,,,,,6117772456477652eea60139,62c53a0d1ea850893376a8df,2022-07-06_09h31.42.784,Colour_Asymmetry_Pilot,2022.1.3,Win32,60.0348202,62c50e9c1127f2cd403a315f,0,37,37,129,1,onethree,,,,,,,,,,,,,,,,,,,,,,,,,,,,,,,,,,,,,,,,,,,,,,,,,,,,,,,,,,,,,,,,,,,,,,,,,,,,,,,,,,,,,,,,,,,,,,,,,,,,,,,,,,,,,,,,,,,,,,,,,,,,,,,,,,,,,,,,,,,,,,,,,,,,,,,,,,,,,
,,,,,,6117772456477652eea60139,62c53a0d1ea850893376a8df,2022-07-06_09h31.42.784,Colour_Asymmetry_Pilot,2022.1.3,Win32,60.0348202,62c50e9c1127f2cd403a315f,0,38,38,66,1,twoone,,,,,,,,,,,,,,,,,,,,,,,,,,,,,,,,,,,,,,,,,,,,,,,,,,,,,,,,,,,,,,,,,,,,,,,,,,,,,,,,,,,,,,,,,,,,,,,,,,,,,,,,,,,,,,,,,,,,,,,,,,,,,,,,,,,,,,,,,,,,,,,,,,,,,,,,,,,,,
,,,,,,6117772456477652eea60139,62c53a0d1ea850893376a8df,2022-07-06_09h31.42.784,Colour_Asymmetry_Pilot,2022.1.3,Win32,60.0348202,62c50e9c1127f2cd403a315f,0,39,39,133,1,threefour,,,,,,,,,,,,,,,,,,,,,,,,,,,,,,,,,,,,,,,,,,,,,,,,,,,,,,,,,,,,,,,,,,,,,,,,,,,,,,,,,,,,,,,,,,,,,,,,,,,,,,,,,,,,,,,,,,,,,,,,,,,,,,,,,,,,,,,,,,,,,,,,,,,,,,,,,,,,,
,,,,,,6117772456477652eea60139,62c53a0d1ea850893376a8df,2022-07-06_09h31.42.784,Colour_Asymmetry_Pilot,2022.1.3,Win32,60.0348202,62c50e9c1127f2cd403a315f,0,40,40,135,1,fourthree,,,,,,,,,,,,,,,,,,,,,,,,,,,,,,,,,,,,,,,,,,,,,,,,,,,,,,,,,,,,,,,,,,,,,,,,,,,,,,,,,,,,,,,,,,,,,,,,,,,,,,,,,,,,,,,,,,,,,,,,,,,,,,,,,,,,,,,,,,,,,,,,,,,,,,,,,,,,,
,,,,,,6117772456477652eea60139,62c53a0d1ea850893376a8df,2022-07-06_09h31.42.784,Colour_Asymmetry_Pilot,2022.1.3,Win32,60.0348202,62c50e9c1127f2cd403a315f,0,41,41,25,1,onethree,,,,,,,,,,,,,,,,,,,,,,,,,,,,,,,,,,,,,,,,,,,,,,,,,,,,,,,,,,,,,,,,,,,,,,,,,,,,,,,,,,,,,,,,,,,,,,,,,,,,,,,,,,,,,,,,,,,,,,,,,,,,,,,,,,,,,,,,,,,,,,,,,,,,,,,,,,,,,
,,,,,,6117772456477652eea60139,62c53a0d1ea850893376a8df,2022-07-06_09h31.42.784,Colour_Asymmetry_Pilot,2022.1.3,Win32,60.0348202,62c50e9c1127f2cd403a315f,0,42,42,89,1,onethree,,,,,,,,,,,,,,,,,,,,,,,,,,,,,,,,,,,,,,,,,,,,,,,,,,,,,,,,,,,,,,,,,,,,,,,,,,,,,,,,,,,,,,,,,,,,,,,,,,,,,,,,,,,,,,,,,,,,,,,,,,,,,,,,,,,,,,,,,,,,,,,,,,,,,,,,,,,,,
,,,,,,6117772456477652eea60139,62c53a0d1ea850893376a8df,2022-07-06_09h31.42.784,Colour_Asymmetry_Pilot,2022.1.3,Win32,60.0348202,62c50e9c1127f2cd403a315f,0,43,43,155,1,twofour,,,,,,,,,,,,,,,,,,,,,,,,,,,,,,,,,,,,,,,,,,,,,,,,,,,,,,,,,,,,,,,,,,,,,,,,,,,,,,,,,,,,,,,,,,,,,,,,,,,,,,,,,,,,,,,,,,,,,,,,,,,,,,,,,,,,,,,,,,,,,,,,,,,,,,,,,,,,,
,,,,,,6117772456477652eea60139,62c53a0d1ea850893376a8df,2022-07-06_09h31.42.784,Colour_Asymmetry_Pilot,2022.1.3,Win32,60.0348202,62c50e9c1127f2cd403a315f,0,44,44,74,1,twoone,,,,,,,,,,,,,,,,,,,,,,,,,,,,,,,,,,,,,,,,,,,,,,,,,,,,,,,,,,,,,,,,,,,,,,,,,,,,,,,,,,,,,,,,,,,,,,,,,,,,,,,,,,,,,,,,,,,,,,,,,,,,,,,,,,,,,,,,,,,,,,,,,,,,,,,,,,,,,
,,,,,,6117772456477652eea60139,62c53a0d1ea850893376a8df,2022-07-06_09h31.42.784,Colour_Asymmetry_Pilot,2022.1.3,Win32,60.0348202,62c50e9c1127f2cd403a315f,0,45,45,23,1,fourthree,,,,,,,,,,,,,,,,,,,,,,,,,,,,,,,,,,,,,,,,,,,,,,,,,,,,,,,,,,,,,,,,,,,,,,,,,,,,,,,,,,,,,,,,,,,,,,,,,,,,,,,,,,,,,,,,,,,,,,,,,,,,,,,,,,,,,,,,,,,,,,,,,,,,,,,,,,,,,
,,,,,,6117772456477652eea60139,62c53a0d1ea850893376a8df,2022-07-06_09h31.42.784,Colour_Asymmetry_Pilot,2022.1.3,Win32,60.0348202,62c50e9c1127f2cd403a315f,0,46,46,128,1,onetwo,,,,,,,,,,,,,,,,,,,,,,,,,,,,,,,,,,,,,,,,,,,,,,,,,,,,,,,,,,,,,,,,,,,,,,,,,,,,,,,,,,,,,,,,,,,,,,,,,,,,,,,,,,,,,,,,,,,,,,,,,,,,,,,,,,,,,,,,,,,,,,,,,,,,,,,,,,,,,
,,,,,,6117772456477652eea60139,62c53a0d1ea850893376a8df,2022-07-06_09h31.42.784,Colour_Asymmetry_Pilot,2022.1.3,Win32,60.0348202,62c50e9c1127f2cd403a315f,0,47,47,124,1,threeone,,,,,,,,,,,,,,,,,,,,,,,,,,,,,,,,,,,,,,,,,,,,,,,,,,,,,,,,,,,,,,,,,,,,,,,,,,,,,,,,,,,,,,,,,,,,,,,,,,,,,,,,,,,,,,,,,,,,,,,,,,,,,,,,,,,,,,,,,,,,,,,,,,,,,,,,,,,,,
,,,,,,6117772456477652eea60139,62c53a0d1ea850893376a8df,2022-07-06_09h31.42.784,Colour_Asymmetry_Pilot,2022.1.3,Win32,60.0348202,62c50e9c1127f2cd403a315f,0,48,48,127,1,fourthree,,,,,,,,,,,,,,,,,,,,,,,,,,,,,,,,,,,,,,,,,,,,,,,,,,,,,,,,,,,,,,,,,,,,,,,,,,,,,,,,,,,,,,,,,,,,,,,,,,,,,,,,,,,,,,,,,,,,,,,,,,,,,,,,,,,,,,,,,,,,,,,,,,,,,,,,,,,,,
,,,,,,6117772456477652eea60139,62c53a0d1ea850893376a8df,2022-07-06_09h31.42.784,Colour_Asymmetry_Pilot,2022.1.3,Win32,60.0348202,62c50e9c1127f2cd403a315f,0,49,49,18,1,twoone,,,,,,,,,,,,,,,,,,,,,,,,,,,,,,,,,,,,,,,,,,,,,,,,,,,,,,,,,,,,,,,,,,,,,,,,,,,,,,,,,,,,,,,,,,,,,,,,,,,,,,,,,,,,,,,,,,,,,,,,,,,,,,,,,,,,,,,,,,,,,,,,,,,,,,,,,,,,,
,,,,,,6117772456477652eea60139,62c53a0d1ea850893376a8df,2022-07-06_09h31.42.784,Colour_Asymmetry_Pilot,2022.1.3,Win32,60.0348202,62c50e9c1127f2cd403a315f,0,50,50,46,1,fourtwo,,,,,,,,,,,,,,,,,,,,,,,,,,,,,,,,,,,,,,,,,,,,,,,,,,,,,,,,,,,,,,,,,,,,,,,,,,,,,,,,,,,,,,,,,,,,,,,,,,,,,,,,,,,,,,,,,,,,,,,,,,,,,,,,,,,,,,,,,,,,,,,,,,,,,,,,,,,,,
,,,,,,6117772456477652eea60139,62c53a0d1ea850893376a8df,2022-07-06_09h31.42.784,Colour_Asymmetry_Pilot,2022.1.3,Win32,60.0348202,62c50e9c1127f2cd403a315f,0,51,51,36,1,threeone,,,,,,,,,,,,,,,,,,,,,,,,,,,,,,,,,,,,,,,,,,,,,,,,,,,,,,,,,,,,,,,,,,,,,,,,,,,,,,,,,,,,,,,,,,,,,,,,,,,,,,,,,,,,,,,,,,,,,,,,,,,,,,,,,,,,,,,,,,,,,,,,,,,,,,,,,,,,,
,,,,,,6117772456477652eea60139,62c53a0d1ea850893376a8df,2022-07-06_09h31.42.784,Colour_Asymmetry_Pilot,2022.1.3,Win32,60.0348202,62c50e9c1127f2cd403a315f,0,52,52,152,1,onetwo,,,,,,,,,,,,,,,,,,,,,,,,,,,,,,,,,,,,,,,,,,,,,,,,,,,,,,,,,,,,,,,,,,,,,,,,,,,,,,,,,,,,,,,,,,,,,,,,,,,,,,,,,,,,,,,,,,,,,,,,,,,,,,,,,,,,,,,,,,,,,,,,,,,,,,,,,,,,,
,,,,,,6117772456477652eea60139,62c53a0d1ea850893376a8df,2022-07-06_09h31.42.784,Colour_Asymmetry_Pilot,2022.1.3,Win32,60.0348202,62c50e9c1127f2cd403a315f,0,53,53,49,1,onethree,,,,,,,,,,,,,,,,,,,,,,,,,,,,,,,,,,,,,,,,,,,,,,,,,,,,,,,,,,,,,,,,,,,,,,,,,,,,,,,,,,,,,,,,,,,,,,,,,,,,,,,,,,,,,,,,,,,,,,,,,,,,,,,,,,,,,,,,,,,,,,,,,,,,,,,,,,,,,
,,,,,,6117772456477652eea60139,62c53a0d1ea850893376a8df,2022-07-06_09h31.42.784,Colour_Asymmetry_Pilot,2022.1.3,Win32,60.0348202,62c50e9c1127f2cd403a315f,0,54,54,151,1,fourthree,,,,,,,,,,,,,,,,,,,,,,,,,,,,,,,,,,,,,,,,,,,,,,,,,,,,,,,,,,,,,,,,,,,,,,,,,,,,,,,,,,,,,,,,,,,,,,,,,,,,,,,,,,,,,,,,,,,,,,,,,,,,,,,,,,,,,,,,,,,,,,,,,,,,,,,,,,,,,
,,,,,,6117772456477652eea60139,62c53a0d1ea850893376a8df,2022-07-06_09h31.42.784,Colour_Asymmetry_Pilot,2022.1.3,Win32,60.0348202,62c50e9c1127f2cd403a315f,0,55,55,109,1,threefour,,,,,,,,,,,,,,,,,,,,,,,,,,,,,,,,,,,,,,,,,,,,,,,,,,,,,,,,,,,,,,,,,,,,,,,,,,,,,,,,,,,,,,,,,,,,,,,,,,,,,,,,,,,,,,,,,,,,,,,,,,,,,,,,,,,,,,,,,,,,,,,,,,,,,,,,,,,,,
,,,,,,6117772456477652eea60139,62c53a0d1ea850893376a8df,2022-07-06_09h31.42.784,Colour_Asymmetry_Pilot,2022.1.3,Win32,60.0348202,62c50e9c1127f2cd403a315f,0,56,56,78,1,fourtwo,,,,,,,,,,,,,,,,,,,,,,,,,,,,,,,,,,,,,,,,,,,,,,,,,,,,,,,,,,,,,,,,,,,,,,,,,,,,,,,,,,,,,,,,,,,,,,,,,,,,,,,,,,,,,,,,,,,,,,,,,,,,,,,,,,,,,,,,,,,,,,,,,,,,,,,,,,,,,
,,,,,,6117772456477652eea60139,62c53a0d1ea850893376a8df,2022-07-06_09h31.42.784,Colour_Asymmetry_Pilot,2022.1.3,Win32,60.0348202,62c50e9c1127f2cd403a315f,0,57,57,154,1,twoone,,,,,,,,,,,,,,,,,,,,,,,,,,,,,,,,,,,,,,,,,,,,,,,,,,,,,,,,,,,,,,,,,,,,,,,,,,,,,,,,,,,,,,,,,,,,,,,,,,,,,,,,,,,,,,,,,,,,,,,,,,,,,,,,,,,,,,,,,,,,,,,,,,,,,,,,,,,,,
,,,,,,6117772456477652eea60139,62c53a0d1ea850893376a8df,2022-07-06_09h31.42.784,Colour_Asymmetry_Pilot,2022.1.3,Win32,60.0348202,62c50e9c1127f2cd403a315f,0,58,58,88,1,onetwo,,,,,,,,,,,,,,,,,,,,,,,,,,,,,,,,,,,,,,,,,,,,,,,,,,,,,,,,,,,,,,,,,,,,,,,,,,,,,,,,,,,,,,,,,,,,,,,,,,,,,,,,,,,,,,,,,,,,,,,,,,,,,,,,,,,,,,,,,,,,,,,,,,,,,,,,,,,,,
,,,,,,6117772456477652eea60139,62c53a0d1ea850893376a8df,2022-07-06_09h31.42.784,Colour_Asymmetry_Pilot,2022.1.3,Win32,60.0348202,62c50e9c1127f2cd403a315f,0,59,59,61,1,threefour,,,,,,,,,,,,,,,,,,,,,,,,,,,,,,,,,,,,,,,,,,,,,,,,,,,,,,,,,,,,,,,,,,,,,,,,,,,,,,,,,,,,,,,,,,,,,,,,,,,,,,,,,,,,,,,,,,,,,,,,,,,,,,,,,,,,,,,,,,,,,,,,,,,,,,,,,,,,,
,,,,,,6117772456477652eea60139,62c53a0d1ea850893376a8df,2022-07-06_09h31.42.784,Colour_Asymmetry_Pilot,2022.1.3,Win32,60.0348202,62c50e9c1127f2cd403a315f,0,60,60,115,1,twofour,,,,,,,,,,,,,,,,,,,,,,,,,,,,,,,,,,,,,,,,,,,,,,,,,,,,,,,,,,,,,,,,,,,,,,,,,,,,,,,,,,,,,,,,,,,,,,,,,,,,,,,,,,,,,,,,,,,,,,,,,,,,,,,,,,,,,,,,,,,,,,,,,,,,,,,,,,,,,
,,,,,,6117772456477652eea60139,62c53a0d1ea850893376a8df,2022-07-06_09h31.42.784,Colour_Asymmetry_Pilot,2022.1.3,Win32,60.0348202,62c50e9c1127f2cd403a315f,0,61,61,2,1,twoone,,,,,,,,,,,,,,,,,,,,,,,,,,,,,,,,,,,,,,,,,,,,,,,,,,,,,,,,,,,,,,,,,,,,,,,,,,,,,,,,,,,,,,,,,,,,,,,,,,,,,,,,,,,,,,,,,,,,,,,,,,,,,,,,,,,,,,,,,,,,,,,,,,,,,,,,,,,,,
,,,,,,6117772456477652eea60139,62c53a0d1ea850893376a8df,2022-07-06_09h31.42.784,Colour_Asymmetry_Pilot,2022.1.3,Win32,60.0348202,62c50e9c1127f2cd403a315f,0,62,62,80,1,onetwo,,,,,,,,,,,,,,,,,,,,,,,,,,,,,,,,,,,,,,,,,,,,,,,,,,,,,,,,,,,,,,,,,,,,,,,,,,,,,,,,,,,,,,,,,,,,,,,,,,,,,,,,,,,,,,,,,,,,,,,,,,,,,,,,,,,,,,,,,,,,,,,,,,,,,,,,,,,,,
,,,,,,6117772456477652eea60139,62c53a0d1ea850893376a8df,2022-07-06_09h31.42.784,Colour_Asymmetry_Pilot,2022.1.3,Win32,60.0348202,62c50e9c1127f2cd403a315f,0,63,63,90,1,twoone,,,,,,,,,,,,,,,,,,,,,,,,,,,,,,,,,,,,,,,,,,,,,,,,,,,,,,,,,,,,,,,,,,,,,,,,,,,,,,,,,,,,,,,,,,,,,,,,,,,,,,,,,,,,,,,,,,,,,,,,,,,,,,,,,,,,,,,,,,,,,,,,,,,,,,,,,,,,,
,,,,,,6117772456477652eea60139,62c53a0d1ea850893376a8df,2022-07-06_09h31.42.784,Colour_Asymmetry_Pilot,2022.1.3,Win32,60.0348202,62c50e9c1127f2cd403a315f,0,64,64,0,1,onetwo,,,,,,,,,,,,,,,,,,,,,,,,,,,,,,,,,,,,,,,,,,,,,,,,,,,,,,,,,,,,,,,,,,,,,,,,,,,,,,,,,,,,,,,,,,,,,,,,,,,,,,,,,,,,,,,,,,,,,,,,,,,,,,,,,,,,,,,,,,,,,,,,,,,,,,,,,,,,,
,,,,,,6117772456477652eea60139,62c53a0d1ea850893376a8df,2022-07-06_09h31.42.784,Colour_Asymmetry_Pilot,2022.1.3,Win32,60.0348202,62c50e9c1127f2cd403a315f,0,65,65,111,1,fourthree,,,,,,,,,,,,,,,,,,,,,,,,,,,,,,,,,,,,,,,,,,,,,,,,,,,,,,,,,,,,,,,,,,,,,,,,,,,,,,,,,,,,,,,,,,,,,,,,,,,,,,,,,,,,,,,,,,,,,,,,,,,,,,,,,,,,,,,,,,,,,,,,,,,,,,,,,,,,,
,,,,,,6117772456477652eea60139,62c53a0d1ea850893376a8df,2022-07-06_09h31.42.784,Colour_Asymmetry_Pilot,2022.1.3,Win32,60.0348202,62c50e9c1127f2cd403a315f,0,66,66,51,1,twofour,,,,,,,,,,,,,,,,,,,,,,,,,,,,,,,,,,,,,,,,,,,,,,,,,,,,,,,,,,,,,,,,,,,,,,,,,,,,,,,,,,,,,,,,,,,,,,,,,,,,,,,,,,,,,,,,,,,,,,,,,,,,,,,,,,,,,,,,,,,,,,,,,,,,,,,,,,,,,
,,,,,,6117772456477652eea60139,62c53a0d1ea850893376a8df,2022-07-06_09h31.42.784,Colour_Asymmetry_Pilot,2022.1.3,Win32,60.0348202,62c50e9c1127f2cd403a315f,0,67,67,31,1,fourthree,,,,,,,,,,,,,,,,,,,,,,,,,,,,,,,,,,,,,,,,,,,,,,,,,,,,,,,,,,,,,,,,,,,,,,,,,,,,,,,,,,,,,,,,,,,,,,,,,,,,,,,,,,,,,,,,,,,,,,,,,,,,,,,,,,,,,,,,,,,,,,,,,,,,,,,,,,,,,
,,,,,,6117772456477652eea60139,62c53a0d1ea850893376a8df,2022-07-06_09h31.42.784,Colour_Asymmetry_Pilot,2022.1.3,Win32,60.0348202,62c50e9c1127f2cd403a315f,0,68,68,15,1,fourthree,,,,,,,,,,,,,,,,,,,,,,,,,,,,,,,,,,,,,,,,,,,,,,,,,,,,,,,,,,,,,,,,,,,,,,,,,,,,,,,,,,,,,,,,,,,,,,,,,,,,,,,,,,,,,,,,,,,,,,,,,,,,,,,,,,,,,,,,,,,,,,,,,,,,,,,,,,,,,
,,,,,,6117772456477652eea60139,62c53a0d1ea850893376a8df,2022-07-06_09h31.42.784,Colour_Asymmetry_Pilot,2022.1.3,Win32,60.0348202,62c50e9c1127f2cd403a315f,0,69,69,93,1,threefour,,,,,,,,,,,,,,,,,,,,,,,,,,,,,,,,,,,,,,,,,,,,,,,,,,,,,,,,,,,,,,,,,,,,,,,,,,,,,,,,,,,,,,,,,,,,,,,,,,,,,,,,,,,,,,,,,,,,,,,,,,,,,,,,,,,,,,,,,,,,,,,,,,,,,,,,,,,,,
,,,,,,6117772456477652eea60139,62c53a0d1ea850893376a8df,2022-07-06_09h31.42.784,Colour_Asymmetry_Pilot,2022.1.3,Win32,60.0348202,62c50e9c1127f2cd403a315f,0,70,70,121,1,onethree,,,,,,,,,,,,,,,,,,,,,,,,,,,,,,,,,,,,,,,,,,,,,,,,,,,,,,,,,,,,,,,,,,,,,,,,,,,,,,,,,,,,,,,,,,,,,,,,,,,,,,,,,,,,,,,,,,,,,,,,,,,,,,,,,,,,,,,,,,,,,,,,,,,,,,,,,,,,,
,,,,,,6117772456477652eea60139,62c53a0d1ea850893376a8df,2022-07-06_09h31.42.784,Colour_Asymmetry_Pilot,2022.1.3,Win32,60.0348202,62c50e9c1127f2cd403a315f,0,71,71,118,1,fourtwo,,,,,,,,,,,,,,,,,,,,,,,,,,,,,,,,,,,,,,,,,,,,,,,,,,,,,,,,,,,,,,,,,,,,,,,,,,,,,,,,,,,,,,,,,,,,,,,,,,,,,,,,,,,,,,,,,,,,,,,,,,,,,,,,,,,,,,,,,,,,,,,,,,,,,,,,,,,,,
,,,,,,6117772456477652eea60139,62c53a0d1ea850893376a8df,2022-07-06_09h31.42.784,Colour_Asymmetry_Pilot,2022.1.3,Win32,60.0348202,62c50e9c1127f2cd403a315f,0,72,72,148,1,threeone,,,,,,,,,,,,,,,,,,,,,,,,,,,,,,,,,,,,,,,,,,,,,,,,,,,,,,,,,,,,,,,,,,,,,,,,,,,,,,,,,,,,,,,,,,,,,,,,,,,,,,,,,,,,,,,,,,,,,,,,,,,,,,,,,,,,,,,,,,,,,,,,,,,,,,,,,,,,,
,,,,,,6117772456477652eea60139,62c53a0d1ea850893376a8df,2022-07-06_09h31.42.784,Colour_Asymmetry_Pilot,2022.1.3,Win32,60.0348202,62c50e9c1127f2cd403a315f,0,73,73,48,1,onetwo,,,,,,,,,,,,,,,,,,,,,,,,,,,,,,,,,,,,,,,,,,,,,,,,,,,,,,,,,,,,,,,,,,,,,,,,,,,,,,,,,,,,,,,,,,,,,,,,,,,,,,,,,,,,,,,,,,,,,,,,,,,,,,,,,,,,,,,,,,,,,,,,,,,,,,,,,,,,,
,,,,,,6117772456477652eea60139,62c53a0d1ea850893376a8df,2022-07-06_09h31.42.784,Colour_Asymmetry_Pilot,2022.1.3,Win32,60.0348202,62c50e9c1127f2cd403a315f,0,74,74,4,1,threeone,,,,,,,,,,,,,,,,,,,,,,,,,,,,,,,,,,,,,,,,,,,,,,,,,,,,,,,,,,,,,,,,,,,,,,,,,,,,,,,,,,,,,,,,,,,,,,,,,,,,,,,,,,,,,,,,,,,,,,,,,,,,,,,,,,,,,,,,,,,,,,,,,,,,,,,,,,,,,
,,,,,,6117772456477652eea60139,62c53a0d1ea850893376a8df,2022-07-06_09h31.42.784,Colour_Asymmetry_Pilot,2022.1.3,Win32,60.0348202,62c50e9c1127f2cd403a315f,0,75,75,26,1,twoone,,,,,,,,,,,,,,,,,,,,,,,,,,,,,,,,,,,,,,,,,,,,,,,,,,,,,,,,,,,,,,,,,,,,,,,,,,,,,,,,,,,,,,,,,,,,,,,,,,,,,,,,,,,,,,,,,,,,,,,,,,,,,,,,,,,,,,,,,,,,,,,,,,,,,,,,,,,,,
,,,,,,6117772456477652eea60139,62c53a0d1ea850893376a8df,2022-07-06_09h31.42.784,Colour_Asymmetry_Pilot,2022.1.3,Win32,60.0348202,62c50e9c1127f2cd403a315f,0,76,76,119,1,fourthree,,,,,,,,,,,,,,,,,,,,,,,,,,,,,,,,,,,,,,,,,,,,,,,,,,,,,,,,,,,,,,,,,,,,,,,,,,,,,,,,,,,,,,,,,,,,,,,,,,,,,,,,,,,,,,,,,,,,,,,,,,,,,,,,,,,,,,,,,,,,,,,,,,,,,,,,,,,,,
,,,,,,6117772456477652eea60139,62c53a0d1ea850893376a8df,2022-07-06_09h31.42.784,Colour_Asymmetry_Pilot,2022.1.3,Win32,60.0348202,62c50e9c1127f2cd403a315f,0,77,77,87,1,fourthree,,,,,,,,,,,,,,,,,,,,,,,,,,,,,,,,,,,,,,,,,,,,,,,,,,,,,,,,,,,,,,,,,,,,,,,,,,,,,,,,,,,,,,,,,,,,,,,,,,,,,,,,,,,,,,,,,,,,,,,,,,,,,,,,,,,,,,,,,,,,,,,,,,,,,,,,,,,,,
,,,,,,6117772456477652eea60139,62c53a0d1ea850893376a8df,2022-07-06_09h31.42.784,Colour_Asymmetry_Pilot,2022.1.3,Win32,60.0348202,62c50e9c1127f2cd403a315f,0,78,78,53,1,threefour,,,,,,,,,,,,,,,,,,,,,,,,,,,,,,,,,,,,,,,,,,,,,,,,,,,,,,,,,,,,,,,,,,,,,,,,,,,,,,,,,,,,,,,,,,,,,,,,,,,,,,,,,,,,,,,,,,,,,,,,,,,,,,,,,,,,,,,,,,,,,,,,,,,,,,,,,,,,,
,,,,,,6117772456477652eea60139,62c53a0d1ea850893376a8df,2022-07-06_09h31.42.784,Colour_Asymmetry_Pilot,2022.1.3,Win32,60.0348202,62c50e9c1127f2cd403a315f,0,79,79,69,1,threefour,,,,,,,,,,,,,,,,,,,,,,,,,,,,,,,,,,,,,,,,,,,,,,,,,,,,,,,,,,,,,,,,,,,,,,,,,,,,,,,,,,,,,,,,,,,,,,,,,,,,,,,,,,,,,,,,,,,,,,,,,,,,,,,,,,,,,,,,,,,,,,,,,,,,,,,,,,,,,
,,,,,,6117772456477652eea60139,62c53a0d1ea850893376a8df,2022-07-06_09h31.42.784,Colour_Asymmetry_Pilot,2022.1.3,Win32,60.0348202,62c50e9c1127f2cd403a315f,0,80,80,145,1,onethree,,,,,,,,,,,,,,,,,,,,,,,,,,,,,,,,,,,,,,,,,,,,,,,,,,,,,,,,,,,,,,,,,,,,,,,,,,,,,,,,,,,,,,,,,,,,,,,,,,,,,,,,,,,,,,,,,,,,,,,,,,,,,,,,,,,,,,,,,,,,,,,,,,,,,,,,,,,,,
,,,,,,6117772456477652eea60139,62c53a0d1ea850893376a8df,2022-07-06_09h31.42.784,Colour_Asymmetry_Pilot,2022.1.3,Win32,60.0348202,62c50e9c1127f2cd403a315f,0,81,81,17,1,onethree,,,,,,,,,,,,,,,,,,,,,,,,,,,,,,,,,,,,,,,,,,,,,,,,,,,,,,,,,,,,,,,,,,,,,,,,,,,,,,,,,,,,,,,,,,,,,,,,,,,,,,,,,,,,,,,,,,,,,,,,,,,,,,,,,,,,,,,,,,,,,,,,,,,,,,,,,,,,,
,,,,,,6117772456477652eea60139,62c53a0d1ea850893376a8df,2022-07-06_09h31.42.784,Colour_Asymmetry_Pilot,2022.1.3,Win32,60.0348202,62c50e9c1127f2cd403a315f,0,82,82,134,1,fourtwo,,,,,,,,,,,,,,,,,,,,,,,,,,,,,,,,,,,,,,,,,,,,,,,,,,,,,,,,,,,,,,,,,,,,,,,,,,,,,,,,,,,,,,,,,,,,,,,,,,,,,,,,,,,,,,,,,,,,,,,,,,,,,,,,,,,,,,,,,,,,,,,,,,,,,,,,,,,,,
,,,,,,6117772456477652eea60139,62c53a0d1ea850893376a8df,2022-07-06_09h31.42.784,Colour_Asymmetry_Pilot,2022.1.3,Win32,60.0348202,62c50e9c1127f2cd403a315f,0,83,83,72,1,onetwo,,,,,,,,,,,,,,,,,,,,,,,,,,,,,,,,,,,,,,,,,,,,,,,,,,,,,,,,,,,,,,,,,,,,,,,,,,,,,,,,,,,,,,,,,,,,,,,,,,,,,,,,,,,,,,,,,,,,,,,,,,,,,,,,,,,,,,,,,,,,,,,,,,,,,,,,,,,,,
,,,,,,6117772456477652eea60139,62c53a0d1ea850893376a8df,2022-07-06_09h31.42.784,Colour_Asymmetry_Pilot,2022.1.3,Win32,60.0348202,62c50e9c1127f2cd403a315f,0,84,84,159,1,fourthree,,,,,,,,,,,,,,,,,,,,,,,,,,,,,,,,,,,,,,,,,,,,,,,,,,,,,,,,,,,,,,,,,,,,,,,,,,,,,,,,,,,,,,,,,,,,,,,,,,,,,,,,,,,,,,,,,,,,,,,,,,,,,,,,,,,,,,,,,,,,,,,,,,,,,,,,,,,,,
,,,,,,6117772456477652eea60139,62c53a0d1ea850893376a8df,2022-07-06_09h31.42.784,Colour_Asymmetry_Pilot,2022.1.3,Win32,60.0348202,62c50e9c1127f2cd403a315f,0,85,85,6,1,fourtwo,,,,,,,,,,,,,,,,,,,,,,,,,,,,,,,,,,,,,,,,,,,,,,,,,,,,,,,,,,,,,,,,,,,,,,,,,,,,,,,,,,,,,,,,,,,,,,,,,,,,,,,,,,,,,,,,,,,,,,,,,,,,,,,,,,,,,,,,,,,,,,,,,,,,,,,,,,,,,
,,,,,,6117772456477652eea60139,62c53a0d1ea850893376a8df,2022-07-06_09h31.42.784,Colour_Asymmetry_Pilot,2022.1.3,Win32,60.0348202,62c50e9c1127f2cd403a315f,0,86,86,7,1,fourthree,,,,,,,,,,,,,,,,,,,,,,,,,,,,,,,,,,,,,,,,,,,,,,,,,,,,,,,,,,,,,,,,,,,,,,,,,,,,,,,,,,,,,,,,,,,,,,,,,,,,,,,,,,,,,,,,,,,,,,,,,,,,,,,,,,,,,,,,,,,,,,,,,,,,,,,,,,,,,
,,,,,,6117772456477652eea60139,62c53a0d1ea850893376a8df,2022-07-06_09h31.42.784,Colour_Asymmetry_Pilot,2022.1.3,Win32,60.0348202,62c50e9c1127f2cd403a315f,0,87,87,84,1,threeone,,,,,,,,,,,,,,,,,,,,,,,,,,,,,,,,,,,,,,,,,,,,,,,,,,,,,,,,,,,,,,,,,,,,,,,,,,,,,,,,,,,,,,,,,,,,,,,,,,,,,,,,,,,,,,,,,,,,,,,,,,,,,,,,,,,,,,,,,,,,,,,,,,,,,,,,,,,,,
,,,,,,6117772456477652eea60139,62c53a0d1ea850893376a8df,2022-07-06_09h31.42.784,Colour_Asymmetry_Pilot,2022.1.3,Win32,60.0348202,62c50e9c1127f2cd403a315f,0,88,88,160,1,onetwo,,,,,,,,,,,,,,,,,,,,,,,,,,,,,,,,,,,,,,,,,,,,,,,,,,,,,,,,,,,,,,,,,,,,,,,,,,,,,,,,,,,,,,,,,,,,,,,,,,,,,,,,,,,,,,,,,,,,,,,,,,,,,,,,,,,,,,,,,,,,,,,,,,,,,,,,,,,,,
,,,,,,6117772456477652eea60139,62c53a0d1ea850893376a8df,2022-07-06_09h31.42.784,Colour_Asymmetry_Pilot,2022.1.3,Win32,60.0348202,62c50e9c1127f2cd403a315f,0,89,89,64,1,onetwo,,,,,,,,,,,,,,,,,,,,,,,,,,,,,,,,,,,,,,,,,,,,,,,,,,,,,,,,,,,,,,,,,,,,,,,,,,,,,,,,,,,,,,,,,,,,,,,,,,,,,,,,,,,,,,,,,,,,,,,,,,,,,,,,,,,,,,,,,,,,,,,,,,,,,,,,,,,,,
,,,,,,6117772456477652eea60139,62c53a0d1ea850893376a8df,2022-07-06_09h31.42.784,Colour_Asymmetry_Pilot,2022.1.3,Win32,60.0348202,62c50e9c1127f2cd403a315f,0,90,90,47,1,fourthree,,,,,,,,,,,,,,,,,,,,,,,,,,,,,,,,,,,,,,,,,,,,,,,,,,,,,,,,,,,,,,,,,,,,,,,,,,,,,,,,,,,,,,,,,,,,,,,,,,,,,,,,,,,,,,,,,,,,,,,,,,,,,,,,,,,,,,,,,,,,,,,,,,,,,,,,,,,,,
,,,,,,6117772456477652eea60139,62c53a0d1ea850893376a8df,2022-07-06_09h31.42.784,Colour_Asymmetry_Pilot,2022.1.3,Win32,60.0348202,62c50e9c1127f2cd403a315f,0,91,91,8,1,onetwo,,,,,,,,,,,,,,,,,,,,,,,,,,,,,,,,,,,,,,,,,,,,,,,,,,,,,,,,,,,,,,,,,,,,,,,,,,,,,,,,,,,,,,,,,,,,,,,,,,,,,,,,,,,,,,,,,,,,,,,,,,,,,,,,,,,,,,,,,,,,,,,,,,,,,,,,,,,,,
,,,,,,6117772456477652eea60139,62c53a0d1ea850893376a8df,2022-07-06_09h31.42.784,Colour_Asymmetry_Pilot,2022.1.3,Win32,60.0348202,62c50e9c1127f2cd403a315f,0,92,92,63,1,fourthree,,,,,,,,,,,,,,,,,,,,,,,,,,,,,,,,,,,,,,,,,,,,,,,,,,,,,,,,,,,,,,,,,,,,,,,,,,,,,,,,,,,,,,,,,,,,,,,,,,,,,,,,,,,,,,,,,,,,,,,,,,,,,,,,,,,,,,,,,,,,,,,,,,,,,,,,,,,,,
,,,,,,6117772456477652eea60139,62c53a0d1ea850893376a8df,2022-07-06_09h31.42.784,Colour_Asymmetry_Pilot,2022.1.3,Win32,60.0348202,62c50e9c1127f2cd403a315f,0,93,93,108,1,threeone,,,,,,,,,,,,,,,,,,,,,,,,,,,,,,,,,,,,,,,,,,,,,,,,,,,,,,,,,,,,,,,,,,,,,,,,,,,,,,,,,,,,,,,,,,,,,,,,,,,,,,,,,,,,,,,,,,,,,,,,,,,,,,,,,,,,,,,,,,,,,,,,,,,,,,,,,,,,,
,,,,,,6117772456477652eea60139,62c53a0d1ea850893376a8df,2022-07-06_09h31.42.784,Colour_Asymmetry_Pilot,2022.1.3,Win32,60.0348202,62c50e9c1127f2cd403a315f,0,94,94,77,1,threefour,,,,,,,,,,,,,,,,,,,,,,,,,,,,,,,,,,,,,,,,,,,,,,,,,,,,,,,,,,,,,,,,,,,,,,,,,,,,,,,,,,,,,,,,,,,,,,,,,,,,,,,,,,,,,,,,,,,,,,,,,,,,,,,,,,,,,,,,,,,,,,,,,,,,,,,,,,,,,
,,,,,,6117772456477652eea60139,62c53a0d1ea850893376a8df,2022-07-06_09h31.42.784,Colour_Asymmetry_Pilot,2022.1.3,Win32,60.0348202,62c50e9c1127f2cd403a315f,0,95,95,83,1,twofour,,,,,,,,,,,,,,,,,,,,,,,,,,,,,,,,,,,,,,,,,,,,,,,,,,,,,,,,,,,,,,,,,,,,,,,,,,,,,,,,,,,,,,,,,,,,,,,,,,,,,,,,,,,,,,,,,,,,,,,,,,,,,,,,,,,,,,,,,,,,,,,,,,,,,,,,,,,,,
,,,,,,6117772456477652eea60139,62c53a0d1ea850893376a8df,2022-07-06_09h31.42.784,Colour_Asymmetry_Pilot,2022.1.3,Win32,60.0348202,62c50e9c1127f2cd403a315f,0,96,96,41,1,onethree,,,,,,,,,,,,,,,,,,,,,,,,,,,,,,,,,,,,,,,,,,,,,,,,,,,,,,,,,,,,,,,,,,,,,,,,,,,,,,,,,,,,,,,,,,,,,,,,,,,,,,,,,,,,,,,,,,,,,,,,,,,,,,,,,,,,,,,,,,,,,,,,,,,,,,,,,,,,,
,,,,,,6117772456477652eea60139,62c53a0d1ea850893376a8df,2022-07-06_09h31.42.784,Colour_Asymmetry_Pilot,2022.1.3,Win32,60.0348202,62c50e9c1127f2cd403a315f,0,97,97,98,1,twoone,,,,,,,,,,,,,,,,,,,,,,,,,,,,,,,,,,,,,,,,,,,,,,,,,,,,,,,,,,,,,,,,,,,,,,,,,,,,,,,,,,,,,,,,,,,,,,,,,,,,,,,,,,,,,,,,,,,,,,,,,,,,,,,,,,,,,,,,,,,,,,,,,,,,,,,,,,,,,
,,,,,,6117772456477652eea60139,62c53a0d1ea850893376a8df,2022-07-06_09h31.42.784,Colour_Asymmetry_Pilot,2022.1.3,Win32,60.0348202,62c50e9c1127f2cd403a315f,0,98,98,107,1,twofour,,,,,,,,,,,,,,,,,,,,,,,,,,,,,,,,,,,,,,,,,,,,,,,,,,,,,,,,,,,,,,,,,,,,,,,,,,,,,,,,,,,,,,,,,,,,,,,,,,,,,,,,,,,,,,,,,,,,,,,,,,,,,,,,,,,,,,,,,,,,,,,,,,,,,,,,,,,,,
,,,,,,6117772456477652eea60139,62c53a0d1ea850893376a8df,2022-07-06_09h31.42.784,Colour_Asymmetry_Pilot,2022.1.3,Win32,60.0348202,62c50e9c1127f2cd403a315f,0,99,99,120,1,onetwo,,,,,,,,,,,,,,,,,,,,,,,,,,,,,,,,,,,,,,,,,,,,,,,,,,,,,,,,,,,,,,,,,,,,,,,,,,,,,,,,,,,,,,,,,,,,,,,,,,,,,,,,,,,,,,,,,,,,,,,,,,,,,,,,,,,,,,,,,,,,,,,,,,,,,,,,,,,,,
,,,,,,6117772456477652eea60139,62c53a0d1ea850893376a8df,2022-07-06_09h31.42.784,Colour_Asymmetry_Pilot,2022.1.3,Win32,60.0348202,62c50e9c1127f2cd403a315f,0,100,100,62,1,fourtwo,,,,,,,,,,,,,,,,,,,,,,,,,,,,,,,,,,,,,,,,,,,,,,,,,,,,,,,,,,,,,,,,,,,,,,,,,,,,,,,,,,,,,,,,,,,,,,,,,,,,,,,,,,,,,,,,,,,,,,,,,,,,,,,,,,,,,,,,,,,,,,,,,,,,,,,,,,,,,
,,,,,,6117772456477652eea60139,62c53a0d1ea850893376a8df,2022-07-06_09h31.42.784,Colour_Asymmetry_Pilot,2022.1.3,Win32,60.0348202,62c50e9c1127f2cd403a315f,0,101,101,44,1,threeone,,,,,,,,,,,,,,,,,,,,,,,,,,,,,,,,,,,,,,,,,,,,,,,,,,,,,,,,,,,,,,,,,,,,,,,,,,,,,,,,,,,,,,,,,,,,,,,,,,,,,,,,,,,,,,,,,,,,,,,,,,,,,,,,,,,,,,,,,,,,,,,,,,,,,,,,,,,,,
,,,,,,6117772456477652eea60139,62c53a0d1ea850893376a8df,2022-07-06_09h31.42.784,Colour_Asymmetry_Pilot,2022.1.3,Win32,60.0348202,62c50e9c1127f2cd403a315f,0,102,102,73,1,onethree,,,,,,,,,,,,,,,,,,,,,,,,,,,,,,,,,,,,,,,,,,,,,,,,,,,,,,,,,,,,,,,,,,,,,,,,,,,,,,,,,,,,,,,,,,,,,,,,,,,,,,,,,,,,,,,,,,,,,,,,,,,,,,,,,,,,,,,,,,,,,,,,,,,,,,,,,,,,,
,,,,,,6117772456477652eea60139,62c53a0d1ea850893376a8df,2022-07-06_09h31.42.784,Colour_Asymmetry_Pilot,2022.1.3,Win32,60.0348202,62c50e9c1127f2cd403a315f,0,103,103,99,1,twofour,,,,,,,,,,,,,,,,,,,,,,,,,,,,,,,,,,,,,,,,,,,,,,,,,,,,,,,,,,,,,,,,,,,,,,,,,,,,,,,,,,,,,,,,,,,,,,,,,,,,,,,,,,,,,,,,,,,,,,,,,,,,,,,,,,,,,,,,,,,,,,,,,,,,,,,,,,,,,
,,,,,,6117772456477652eea60139,62c53a0d1ea850893376a8df,2022-07-06_09h31.42.784,Colour_Asymmetry_Pilot,2022.1.3,Win32,60.0348202,62c50e9c1127f2cd403a315f,0,104,104,50,1,twoone,,,,,,,,,,,,,,,,,,,,,,,,,,,,,,,,,,,,,,,,,,,,,,,,,,,,,,,,,,,,,,,,,,,,,,,,,,,,,,,,,,,,,,,,,,,,,,,,,,,,,,,,,,,,,,,,,,,,,,,,,,,,,,,,,,,,,,,,,,,,,,,,,,,,,,,,,,,,,
,,,,,,6117772456477652eea60139,62c53a0d1ea850893376a8df,2022-07-06_09h31.42.784,Colour_Asymmetry_Pilot,2022.1.3,Win32,60.0348202,62c50e9c1127f2cd403a315f,0,105,105,95,1,fourthree,,,,,,,,,,,,,,,,,,,,,,,,,,,,,,,,,,,,,,,,,,,,,,,,,,,,,,,,,,,,,,,,,,,,,,,,,,,,,,,,,,,,,,,,,,,,,,,,,,,,,,,,,,,,,,,,,,,,,,,,,,,,,,,,,,,,,,,,,,,,,,,,,,,,,,,,,,,,,
,,,,,,6117772456477652eea60139,62c53a0d1ea850893376a8df,2022-07-06_09h31.42.784,Colour_Asymmetry_Pilot,2022.1.3,Win32,60.0348202,62c50e9c1127f2cd403a315f,0,106,106,45,1,threefour,,,,,,,,,,,,,,,,,,,,,,,,,,,,,,,,,,,,,,,,,,,,,,,,,,,,,,,,,,,,,,,,,,,,,,,,,,,,,,,,,,,,,,,,,,,,,,,,,,,,,,,,,,,,,,,,,,,,,,,,,,,,,,,,,,,,,,,,,,,,,,,,,,,,,,,,,,,,,
,,,,,,6117772456477652eea60139,62c53a0d1ea850893376a8df,2022-07-06_09h31.42.784,Colour_Asymmetry_Pilot,2022.1.3,Win32,60.0348202,62c50e9c1127f2cd403a315f,0,107,107,114,1,twoone,,,,,,,,,,,,,,,,,,,,,,,,,,,,,,,,,,,,,,,,,,,,,,,,,,,,,,,,,,,,,,,,,,,,,,,,,,,,,,,,,,,,,,,,,,,,,,,,,,,,,,,,,,,,,,,,,,,,,,,,,,,,,,,,,,,,,,,,,,,,,,,,,,,,,,,,,,,,,
,,,,,,6117772456477652eea60139,62c53a0d1ea850893376a8df,2022-07-06_09h31.42.784,Colour_Asymmetry_Pilot,2022.1.3,Win32,60.0348202,62c50e9c1127f2cd403a315f,0,108,108,60,1,threeone,,,,,,,,,,,,,,,,,,,,,,,,,,,,,,,,,,,,,,,,,,,,,,,,,,,,,,,,,,,,,,,,,,,,,,,,,,,,,,,,,,,,,,,,,,,,,,,,,,,,,,,,,,,,,,,,,,,,,,,,,,,,,,,,,,,,,,,,,,,,,,,,,,,,,,,,,,,,,
,,,,,,6117772456477652eea60139,62c53a0d1ea850893376a8df,2022-07-06_09h31.42.784,Colour_Asymmetry_Pilot,2022.1.3,Win32,60.0348202,62c50e9c1127f2cd403a315f,0,109,109,57,1,onethree,,,,,,,,,,,,,,,,,,,,,,,,,,,,,,,,,,,,,,,,,,,,,,,,,,,,,,,,,,,,,,,,,,,,,,,,,,,,,,,,,,,,,,,,,,,,,,,,,,,,,,,,,,,,,,,,,,,,,,,,,,,,,,,,,,,,,,,,,,,,,,,,,,,,,,,,,,,,,
,,,,,,6117772456477652eea60139,62c53a0d1ea850893376a8df,2022-07-06_09h31.42.784,Colour_Asymmetry_Pilot,2022.1.3,Win32,60.0348202,62c50e9c1127f2cd403a315f,0,110,110,38,1,fourtwo,,,,,,,,,,,,,,,,,,,,,,,,,,,,,,,,,,,,,,,,,,,,,,,,,,,,,,,,,,,,,,,,,,,,,,,,,,,,,,,,,,,,,,,,,,,,,,,,,,,,,,,,,,,,,,,,,,,,,,,,,,,,,,,,,,,,,,,,,,,,,,,,,,,,,,,,,,,,,
,,,,,,6117772456477652eea60139,62c53a0d1ea850893376a8df,2022-07-06_09h31.42.784,Colour_Asymmetry_Pilot,2022.1.3,Win32,60.0348202,62c50e9c1127f2cd403a315f,0,111,111,37,1,threefour,,,,,,,,,,,,,,,,,,,,,,,,,,,,,,,,,,,,,,,,,,,,,,,,,,,,,,,,,,,,,,,,,,,,,,,,,,,,,,,,,,,,,,,,,,,,,,,,,,,,,,,,,,,,,,,,,,,,,,,,,,,,,,,,,,,,,,,,,,,,,,,,,,,,,,,,,,,,,
,,,,,,6117772456477652eea60139,62c53a0d1ea850893376a8df,2022-07-06_09h31.42.784,Colour_Asymmetry_Pilot,2022.1.3,Win32,60.0348202,62c50e9c1127f2cd403a315f,0,112,112,10,1,twoone,,,,,,,,,,,,,,,,,,,,,,,,,,,,,,,,,,,,,,,,,,,,,,,,,,,,,,,,,,,,,,,,,,,,,,,,,,,,,,,,,,,,,,,,,,,,,,,,,,,,,,,,,,,,,,,,,,,,,,,,,,,,,,,,,,,,,,,,,,,,,,,,,,,,,,,,,,,,,
,,,,,,6117772456477652eea60139,62c53a0d1ea850893376a8df,2022-07-06_09h31.42.784,Colour_Asymmetry_Pilot,2022.1.3,Win32,60.0348202,62c50e9c1127f2cd403a315f,0,113,113,55,1,fourthree,,,,,,,,,,,,,,,,,,,,,,,,,,,,,,,,,,,,,,,,,,,,,,,,,,,,,,,,,,,,,,,,,,,,,,,,,,,,,,,,,,,,,,,,,,,,,,,,,,,,,,,,,,,,,,,,,,,,,,,,,,,,,,,,,,,,,,,,,,,,,,,,,,,,,,,,,,,,,
,,,,,,6117772456477652eea60139,62c53a0d1ea850893376a8df,2022-07-06_09h31.42.784,Colour_Asymmetry_Pilot,2022.1.3,Win32,60.0348202,62c50e9c1127f2cd403a315f,0,114,114,136,1,onetwo,,,,,,,,,,,,,,,,,,,,,,,,,,,,,,,,,,,,,,,,,,,,,,,,,,,,,,,,,,,,,,,,,,,,,,,,,,,,,,,,,,,,,,,,,,,,,,,,,,,,,,,,,,,,,,,,,,,,,,,,,,,,,,,,,,,,,,,,,,,,,,,,,,,,,,,,,,,,,
,,,,,,6117772456477652eea60139,62c53a0d1ea850893376a8df,2022-07-06_09h31.42.784,Colour_Asymmetry_Pilot,2022.1.3,Win32,60.0348202,62c50e9c1127f2cd403a315f,0,115,115,157,1,threefour,,,,,,,,,,,,,,,,,,,,,,,,,,,,,,,,,,,,,,,,,,,,,,,,,,,,,,,,,,,,,,,,,,,,,,,,,,,,,,,,,,,,,,,,,,,,,,,,,,,,,,,,,,,,,,,,,,,,,,,,,,,,,,,,,,,,,,,,,,,,,,,,,,,,,,,,,,,,,
,,,,,,6117772456477652eea60139,62c53a0d1ea850893376a8df,2022-07-06_09h31.42.784,Colour_Asymmetry_Pilot,2022.1.3,Win32,60.0348202,62c50e9c1127f2cd403a315f,0,116,116,149,1,threefour,,,,,,,,,,,,,,,,,,,,,,,,,,,,,,,,,,,,,,,,,,,,,,,,,,,,,,,,,,,,,,,,,,,,,,,,,,,,,,,,,,,,,,,,,,,,,,,,,,,,,,,,,,,,,,,,,,,,,,,,,,,,,,,,,,,,,,,,,,,,,,,,,,,,,,,,,,,,,
,,,,,,6117772456477652eea60139,62c53a0d1ea850893376a8df,2022-07-06_09h31.42.784,Colour_Asymmetry_Pilot,2022.1.3,Win32,60.0348202,62c50e9c1127f2cd403a315f,0,117,117,150,1,fourtwo,,,,,,,,,,,,,,,,,,,,,,,,,,,,,,,,,,,,,,,,,,,,,,,,,,,,,,,,,,,,,,,,,,,,,,,,,,,,,,,,,,,,,,,,,,,,,,,,,,,,,,,,,,,,,,,,,,,,,,,,,,,,,,,,,,,,,,,,,,,,,,,,,,,,,,,,,,,,,
,,,,,,6117772456477652eea60139,62c53a0d1ea850893376a8df,2022-07-06_09h31.42.784,Colour_Asymmetry_Pilot,2022.1.3,Win32,60.0348202,62c50e9c1127f2cd403a315f,0,118,118,16,1,onetwo,,,,,,,,,,,,,,,,,,,,,,,,,,,,,,,,,,,,,,,,,,,,,,,,,,,,,,,,,,,,,,,,,,,,,,,,,,,,,,,,,,,,,,,,,,,,,,,,,,,,,,,,,,,,,,,,,,,,,,,,,,,,,,,,,,,,,,,,,,,,,,,,,,,,,,,,,,,,,
,,,,,,6117772456477652eea60139,62c53a0d1ea850893376a8df,2022-07-06_09h31.42.784,Colour_Asymmetry_Pilot,2022.1.3,Win32,60.0348202,62c50e9c1127f2cd403a315f,0,119,119,32,1,onetwo,,,,,,,,,,,,,,,,,,,,,,,,,,,,,,,,,,,,,,,,,,,,,,,,,,,,,,,,,,,,,,,,,,,,,,,,,,,,,,,,,,,,,,,,,,,,,,,,,,,,,,,,,,,,,,,,,,,,,,,,,,,,,,,,,,,,,,,,,,,,,,,,,,,,,,,,,,,,,
,,,,,,6117772456477652eea60139,62c53a0d1ea850893376a8df,2022-07-06_09h31.42.784,Colour_Asymmetry_Pilot,2022.1.3,Win32,60.0348202,62c50e9c1127f2cd403a315f,0,120,120,146,1,twoone,,,,,,,,,,,,,,,,,,,,,,,,,,,,,,,,,,,,,,,,,,,,,,,,,,,,,,,,,,,,,,,,,,,,,,,,,,,,,,,,,,,,,,,,,,,,,,,,,,,,,,,,,,,,,,,,,,,,,,,,,,,,,,,,,,,,,,,,,,,,,,,,,,,,,,,,,,,,,
,,,,,,6117772456477652eea60139,62c53a0d1ea850893376a8df,2022-07-06_09h31.42.784,Colour_Asymmetry_Pilot,2022.1.3,Win32,60.0348202,62c50e9c1127f2cd403a315f,0,121,121,110,1,fourtwo,,,,,,,,,,,,,,,,,,,,,,,,,,,,,,,,,,,,,,,,,,,,,,,,,,,,,,,,,,,,,,,,,,,,,,,,,,,,,,,,,,,,,,,,,,,,,,,,,,,,,,,,,,,,,,,,,,,,,,,,,,,,,,,,,,,,,,,,,,,,,,,,,,,,,,,,,,,,,
,,,,,,6117772456477652eea60139,62c53a0d1ea850893376a8df,2022-07-06_09h31.42.784,Colour_Asymmetry_Pilot,2022.1.3,Win32,60.0348202,62c50e9c1127f2cd403a315f,0,122,122,79,1,fourthree,,,,,,,,,,,,,,,,,,,,,,,,,,,,,,,,,,,,,,,,,,,,,,,,,,,,,,,,,,,,,,,,,,,,,,,,,,,,,,,,,,,,,,,,,,,,,,,,,,,,,,,,,,,,,,,,,,,,,,,,,,,,,,,,,,,,,,,,,,,,,,,,,,,,,,,,,,,,,
,,,,,,6117772456477652eea60139,62c53a0d1ea850893376a8df,2022-07-06_09h31.42.784,Colour_Asymmetry_Pilot,2022.1.3,Win32,60.0348202,62c50e9c1127f2cd403a315f,0,123,123,40,1,onetwo,,,,,,,,,,,,,,,,,,,,,,,,,,,,,,,,,,,,,,,,,,,,,,,,,,,,,,,,,,,,,,,,,,,,,,,,,,,,,,,,,,,,,,,,,,,,,,,,,,,,,,,,,,,,,,,,,,,,,,,,,,,,,,,,,,,,,,,,,,,,,,,,,,,,,,,,,,,,,
,,,,,,6117772456477652eea60139,62c53a0d1ea850893376a8df,2022-07-06_09h31.42.784,Colour_Asymmetry_Pilot,2022.1.3,Win32,60.0348202,62c50e9c1127f2cd403a315f,0,124,124,58,1,twoone,,,,,,,,,,,,,,,,,,,,,,,,,,,,,,,,,,,,,,,,,,,,,,,,,,,,,,,,,,,,,,,,,,,,,,,,,,,,,,,,,,,,,,,,,,,,,,,,,,,,,,,,,,,,,,,,,,,,,,,,,,,,,,,,,,,,,,,,,,,,,,,,,,,,,,,,,,,,,
,,,,,,6117772456477652eea60139,62c53a0d1ea850893376a8df,2022-07-06_09h31.42.784,Colour_Asymmetry_Pilot,2022.1.3,Win32,60.0348202,62c50e9c1127f2cd403a315f,0,125,125,76,1,threeone,,,,,,,,,,,,,,,,,,,,,,,,,,,,,,,,,,,,,,,,,,,,,,,,,,,,,,,,,,,,,,,,,,,,,,,,,,,,,,,,,,,,,,,,,,,,,,,,,,,,,,,,,,,,,,,,,,,,,,,,,,,,,,,,,,,,,,,,,,,,,,,,,,,,,,,,,,,,,
,,,,,,6117772456477652eea60139,62c53a0d1ea850893376a8df,2022-07-06_09h31.42.784,Colour_Asymmetry_Pilot,2022.1.3,Win32,60.0348202,62c50e9c1127f2cd403a315f,0,126,126,52,1,threeone,,,,,,,,,,,,,,,,,,,,,,,,,,,,,,,,,,,,,,,,,,,,,,,,,,,,,,,,,,,,,,,,,,,,,,,,,,,,,,,,,,,,,,,,,,,,,,,,,,,,,,,,,,,,,,,,,,,,,,,,,,,,,,,,,,,,,,,,,,,,,,,,,,,,,,,,,,,,,
,,,,,,6117772456477652eea60139,62c53a0d1ea850893376a8df,2022-07-06_09h31.42.784,Colour_Asymmetry_Pilot,2022.1.3,Win32,60.0348202,62c50e9c1127f2cd403a315f,0,127,127,116,1,threeone,,,,,,,,,,,,,,,,,,,,,,,,,,,,,,,,,,,,,,,,,,,,,,,,,,,,,,,,,,,,,,,,,,,,,,,,,,,,,,,,,,,,,,,,,,,,,,,,,,,,,,,,,,,,,,,,,,,,,,,,,,,,,,,,,,,,,,,,,,,,,,,,,,,,,,,,,,,,,
,,,,,,6117772456477652eea60139,62c53a0d1ea850893376a8df,2022-07-06_09h31.42.784,Colour_Asymmetry_Pilot,2022.1.3,Win32,60.0348202,62c50e9c1127f2cd403a315f,0,128,128,56,1,onetwo,,,,,,,,,,,,,,,,,,,,,,,,,,,,,,,,,,,,,,,,,,,,,,,,,,,,,,,,,,,,,,,,,,,,,,,,,,,,,,,,,,,,,,,,,,,,,,,,,,,,,,,,,,,,,,,,,,,,,,,,,,,,,,,,,,,,,,,,,,,,,,,,,,,,,,,,,,,,,
,,,,,,6117772456477652eea60139,62c53a0d1ea850893376a8df,2022-07-06_09h31.42.784,Colour_Asymmetry_Pilot,2022.1.3,Win32,60.0348202,62c50e9c1127f2cd403a315f,0,129,129,27,1,twofour,,,,,,,,,,,,,,,,,,,,,,,,,,,,,,,,,,,,,,,,,,,,,,,,,,,,,,,,,,,,,,,,,,,,,,,,,,,,,,,,,,,,,,,,,,,,,,,,,,,,,,,,,,,,,,,,,,,,,,,,,,,,,,,,,,,,,,,,,,,,,,,,,,,,,,,,,,,,,
,,,,,,6117772456477652eea60139,62c53a0d1ea850893376a8df,2022-07-06_09h31.42.784,Colour_Asymmetry_Pilot,2022.1.3,Win32,60.0348202,62c50e9c1127f2cd403a315f,0,130,130,106,1,twoone,,,,,,,,,,,,,,,,,,,,,,,,,,,,,,,,,,,,,,,,,,,,,,,,,,,,,,,,,,,,,,,,,,,,,,,,,,,,,,,,,,,,,,,,,,,,,,,,,,,,,,,,,,,,,,,,,,,,,,,,,,,,,,,,,,,,,,,,,,,,,,,,,,,,,,,,,,,,,
,,,,,,6117772456477652eea60139,62c53a0d1ea850893376a8df,2022-07-06_09h31.42.784,Colour_Asymmetry_Pilot,2022.1.3,Win32,60.0348202,62c50e9c1127f2cd403a315f,0,131,131,130,1,twoone,,,,,,,,,,,,,,,,,,,,,,,,,,,,,,,,,,,,,,,,,,,,,,,,,,,,,,,,,,,,,,,,,,,,,,,,,,,,,,,,,,,,,,,,,,,,,,,,,,,,,,,,,,,,,,,,,,,,,,,,,,,,,,,,,,,,,,,,,,,,,,,,,,,,,,,,,,,,,
,,,,,,6117772456477652eea60139,62c53a0d1ea850893376a8df,2022-07-06_09h31.42.784,Colour_Asymmetry_Pilot,2022.1.3,Win32,60.0348202,62c50e9c1127f2cd403a315f,0,132,132,105,1,onethree,,,,,,,,,,,,,,,,,,,,,,,,,,,,,,,,,,,,,,,,,,,,,,,,,,,,,,,,,,,,,,,,,,,,,,,,,,,,,,,,,,,,,,,,,,,,,,,,,,,,,,,,,,,,,,,,,,,,,,,,,,,,,,,,,,,,,,,,,,,,,,,,,,,,,,,,,,,,,
,,,,,,6117772456477652eea60139,62c53a0d1ea850893376a8df,2022-07-06_09h31.42.784,Colour_Asymmetry_Pilot,2022.1.3,Win32,60.0348202,62c50e9c1127f2cd403a315f,0,133,133,117,1,threefour,,,,,,,,,,,,,,,,,,,,,,,,,,,,,,,,,,,,,,,,,,,,,,,,,,,,,,,,,,,,,,,,,,,,,,,,,,,,,,,,,,,,,,,,,,,,,,,,,,,,,,,,,,,,,,,,,,,,,,,,,,,,,,,,,,,,,,,,,,,,,,,,,,,,,,,,,,,,,
,,,,,,6117772456477652eea60139,62c53a0d1ea850893376a8df,2022-07-06_09h31.42.784,Colour_Asymmetry_Pilot,2022.1.3,Win32,60.0348202,62c50e9c1127f2cd403a315f,0,134,134,94,1,fourtwo,,,,,,,,,,,,,,,,,,,,,,,,,,,,,,,,,,,,,,,,,,,,,,,,,,,,,,,,,,,,,,,,,,,,,,,,,,,,,,,,,,,,,,,,,,,,,,,,,,,,,,,,,,,,,,,,,,,,,,,,,,,,,,,,,,,,,,,,,,,,,,,,,,,,,,,,,,,,,
,,,,,,6117772456477652eea60139,62c53a0d1ea850893376a8df,2022-07-06_09h31.42.784,Colour_Asymmetry_Pilot,2022.1.3,Win32,60.0348202,62c50e9c1127f2cd403a315f,0,135,135,19,1,twofour,,,,,,,,,,,,,,,,,,,,,,,,,,,,,,,,,,,,,,,,,,,,,,,,,,,,,,,,,,,,,,,,,,,,,,,,,,,,,,,,,,,,,,,,,,,,,,,,,,,,,,,,,,,,,,,,,,,,,,,,,,,,,,,,,,,,,,,,,,,,,,,,,,,,,,,,,,,,,
,,,,,,6117772456477652eea60139,62c53a0d1ea850893376a8df,2022-07-06_09h31.42.784,Colour_Asymmetry_Pilot,2022.1.3,Win32,60.0348202,62c50e9c1127f2cd403a315f,0,136,136,43,1,twofour,,,,,,,,,,,,,,,,,,,,,,,,,,,,,,,,,,,,,,,,,,,,,,,,,,,,,,,,,,,,,,,,,,,,,,,,,,,,,,,,,,,,,,,,,,,,,,,,,,,,,,,,,,,,,,,,,,,,,,,,,,,,,,,,,,,,,,,,,,,,,,,,,,,,,,,,,,,,,
,,,,,,6117772456477652eea60139,62c53a0d1ea850893376a8df,2022-07-06_09h31.42.784,Colour_Asymmetry_Pilot,2022.1.3,Win32,60.0348202,62c50e9c1127f2cd403a315f,0,137,137,138,1,twoone,,,,,,,,,,,,,,,,,,,,,,,,,,,,,,,,,,,,,,,,,,,,,,,,,,,,,,,,,,,,,,,,,,,,,,,,,,,,,,,,,,,,,,,,,,,,,,,,,,,,,,,,,,,,,,,,,,,,,,,,,,,,,,,,,,,,,,,,,,,,,,,,,,,,,,,,,,,,,
,,,,,,6117772456477652eea60139,62c53a0d1ea850893376a8df,2022-07-06_09h31.42.784,Colour_Asymmetry_Pilot,2022.1.3,Win32,60.0348202,62c50e9c1127f2cd403a315f,0,138,138,67,1,twofour,,,,,,,,,,,,,,,,,,,,,,,,,,,,,,,,,,,,,,,,,,,,,,,,,,,,,,,,,,,,,,,,,,,,,,,,,,,,,,,,,,,,,,,,,,,,,,,,,,,,,,,,,,,,,,,,,,,,,,,,,,,,,,,,,,,,,,,,,,,,,,,,,,,,,,,,,,,,,
,,,,,,6117772456477652eea60139,62c53a0d1ea850893376a8df,2022-07-06_09h31.42.784,Colour_Asymmetry_Pilot,2022.1.3,Win32,60.0348202,62c50e9c1127f2cd403a315f,0,139,139,122,1,twoone,,,,,,,,,,,,,,,,,,,,,,,,,,,,,,,,,,,,,,,,,,,,,,,,,,,,,,,,,,,,,,,,,,,,,,,,,,,,,,,,,,,,,,,,,,,,,,,,,,,,,,,,,,,,,,,,,,,,,,,,,,,,,,,,,,,,,,,,,,,,,,,,,,,,,,,,,,,,,
,,,,,,6117772456477652eea60139,62c53a0d1ea850893376a8df,2022-07-06_09h31.42.784,Colour_Asymmetry_Pilot,2022.1.3,Win32,60.0348202,62c50e9c1127f2cd403a315f,0,140,140,21,1,threefour,,,,,,,,,,,,,,,,,,,,,,,,,,,,,,,,,,,,,,,,,,,,,,,,,,,,,,,,,,,,,,,,,,,,,,,,,,,,,,,,,,,,,,,,,,,,,,,,,,,,,,,,,,,,,,,,,,,,,,,,,,,,,,,,,,,,,,,,,,,,,,,,,,,,,,,,,,,,,
,,,,,,6117772456477652eea60139,62c53a0d1ea850893376a8df,2022-07-06_09h31.42.784,Colour_Asymmetry_Pilot,2022.1.3,Win32,60.0348202,62c50e9c1127f2cd403a315f,0,141,141,100,1,threeone,,,,,,,,,,,,,,,,,,,,,,,,,,,,,,,,,,,,,,,,,,,,,,,,,,,,,,,,,,,,,,,,,,,,,,,,,,,,,,,,,,,,,,,,,,,,,,,,,,,,,,,,,,,,,,,,,,,,,,,,,,,,,,,,,,,,,,,,,,,,,,,,,,,,,,,,,,,,,
,,,,,,6117772456477652eea60139,62c53a0d1ea850893376a8df,2022-07-06_09h31.42.784,Colour_Asymmetry_Pilot,2022.1.3,Win32,60.0348202,62c50e9c1127f2cd403a315f,0,142,142,33,1,onethree,,,,,,,,,,,,,,,,,,,,,,,,,,,,,,,,,,,,,,,,,,,,,,,,,,,,,,,,,,,,,,,,,,,,,,,,,,,,,,,,,,,,,,,,,,,,,,,,,,,,,,,,,,,,,,,,,,,,,,,,,,,,,,,,,,,,,,,,,,,,,,,,,,,,,,,,,,,,,
,,,,,,6117772456477652eea60139,62c53a0d1ea850893376a8df,2022-07-06_09h31.42.784,Colour_Asymmetry_Pilot,2022.1.3,Win32,60.0348202,62c50e9c1127f2cd403a315f,0,143,143,132,1,threeone,,,,,,,,,,,,,,,,,,,,,,,,,,,,,,,,,,,,,,,,,,,,,,,,,,,,,,,,,,,,,,,,,,,,,,,,,,,,,,,,,,,,,,,,,,,,,,,,,,,,,,,,,,,,,,,,,,,,,,,,,,,,,,,,,,,,,,,,,,,,,,,,,,,,,,,,,,,,,
,,,,,,6117772456477652eea60139,62c53a0d1ea850893376a8df,2022-07-06_09h31.42.784,Colour_Asymmetry_Pilot,2022.1.3,Win32,60.0348202,62c50e9c1127f2cd403a315f,0,144,144,35,1,twofour,,,,,,,,,,,,,,,,,,,,,,,,,,,,,,,,,,,,,,,,,,,,,,,,,,,,,,,,,,,,,,,,,,,,,,,,,,,,,,,,,,,,,,,,,,,,,,,,,,,,,,,,,,,,,,,,,,,,,,,,,,,,,,,,,,,,,,,,,,,,,,,,,,,,,,,,,,,,,
,,,,,,6117772456477652eea60139,62c53a0d1ea850893376a8df,2022-07-06_09h31.42.784,Colour_Asymmetry_Pilot,2022.1.3,Win32,60.0348202,62c50e9c1127f2cd403a315f,0,145,145,96,1,onetwo,,,,,,,,,,,,,,,,,,,,,,,,,,,,,,,,,,,,,,,,,,,,,,,,,,,,,,,,,,,,,,,,,,,,,,,,,,,,,,,,,,,,,,,,,,,,,,,,,,,,,,,,,,,,,,,,,,,,,,,,,,,,,,,,,,,,,,,,,,,,,,,,,,,,,,,,,,,,,
,,,,,,6117772456477652eea60139,62c53a0d1ea850893376a8df,2022-07-06_09h31.42.784,Colour_Asymmetry_Pilot,2022.1.3,Win32,60.0348202,62c50e9c1127f2cd403a315f,0,146,146,59,1,twofour,,,,,,,,,,,,,,,,,,,,,,,,,,,,,,,,,,,,,,,,,,,,,,,,,,,,,,,,,,,,,,,,,,,,,,,,,,,,,,,,,,,,,,,,,,,,,,,,,,,,,,,,,,,,,,,,,,,,,,,,,,,,,,,,,,,,,,,,,,,,,,,,,,,,,,,,,,,,,
,,,,,,6117772456477652eea60139,62c53a0d1ea850893376a8df,2022-07-06_09h31.42.784,Colour_Asymmetry_Pilot,2022.1.3,Win32,60.0348202,62c50e9c1127f2cd403a315f,0,147,147,103,1,fourthree,,,,,,,,,,,,,,,,,,,,,,,,,,,,,,,,,,,,,,,,,,,,,,,,,,,,,,,,,,,,,,,,,,,,,,,,,,,,,,,,,,,,,,,,,,,,,,,,,,,,,,,,,,,,,,,,,,,,,,,,,,,,,,,,,,,,,,,,,,,,,,,,,,,,,,,,,,,,,
,,,,,,6117772456477652eea60139,62c53a0d1ea850893376a8df,2022-07-06_09h31.42.784,Colour_Asymmetry_Pilot,2022.1.3,Win32,60.0348202,62c50e9c1127f2cd403a315f,0,148,148,42,1,twoone,,,,,,,,,,,,,,,,,,,,,,,,,,,,,,,,,,,,,,,,,,,,,,,,,,,,,,,,,,,,,,,,,,,,,,,,,,,,,,,,,,,,,,,,,,,,,,,,,,,,,,,,,,,,,,,,,,,,,,,,,,,,,,,,,,,,,,,,,,,,,,,,,,,,,,,,,,,,,
,,,,,,6117772456477652eea60139,62c53a0d1ea850893376a8df,2022-07-06_09h31.42.784,Colour_Asymmetry_Pilot,2022.1.3,Win32,60.0348202,62c50e9c1127f2cd403a315f,0,149,149,97,1,onethree,,,,,,,,,,,,,,,,,,,,,,,,,,,,,,,,,,,,,,,,,,,,,,,,,,,,,,,,,,,,,,,,,,,,,,,,,,,,,,,,,,,,,,,,,,,,,,,,,,,,,,,,,,,,,,,,,,,,,,,,,,,,,,,,,,,,,,,,,,,,,,,,,,,,,,,,,,,,,
,,,,,,6117772456477652eea60139,62c53a0d1ea850893376a8df,2022-07-06_09h31.42.784,Colour_Asymmetry_Pilot,2022.1.3,Win32,60.0348202,62c50e9c1127f2cd403a315f,0,150,150,113,1,onethree,,,,,,,,,,,,,,,,,,,,,,,,,,,,,,,,,,,,,,,,,,,,,,,,,,,,,,,,,,,,,,,,,,,,,,,,,,,,,,,,,,,,,,,,,,,,,,,,,,,,,,,,,,,,,,,,,,,,,,,,,,,,,,,,,,,,,,,,,,,,,,,,,,,,,,,,,,,,,
,,,,,,6117772456477652eea60139,62c53a0d1ea850893376a8df,2022-07-06_09h31.42.784,Colour_Asymmetry_Pilot,2022.1.3,Win32,60.0348202,62c50e9c1127f2cd403a315f,0,151,151,9,1,onethree,,,,,,,,,,,,,,,,,,,,,,,,,,,,,,,,,,,,,,,,,,,,,,,,,,,,,,,,,,,,,,,,,,,,,,,,,,,,,,,,,,,,,,,,,,,,,,,,,,,,,,,,,,,,,,,,,,,,,,,,,,,,,,,,,,,,,,,,,,,,,,,,,,,,,,,,,,,,,
,,,,,,6117772456477652eea60139,62c53a0d1ea850893376a8df,2022-07-06_09h31.42.784,Colour_Asymmetry_Pilot,2022.1.3,Win32,60.0348202,62c50e9c1127f2cd403a315f,0,152,152,158,1,fourtwo,,,,,,,,,,,,,,,,,,,,,,,,,,,,,,,,,,,,,,,,,,,,,,,,,,,,,,,,,,,,,,,,,,,,,,,,,,,,,,,,,,,,,,,,,,,,,,,,,,,,,,,,,,,,,,,,,,,,,,,,,,,,,,,,,,,,,,,,,,,,,,,,,,,,,,,,,,,,,
,,,,,,6117772456477652eea60139,62c53a0d1ea850893376a8df,2022-07-06_09h31.42.784,Colour_Asymmetry_Pilot,2022.1.3,Win32,60.0348202,62c50e9c1127f2cd403a315f,0,153,153,34,1,twoone,,,,,,,,,,,,,,,,,,,,,,,,,,,,,,,,,,,,,,,,,,,,,,,,,,,,,,,,,,,,,,,,,,,,,,,,,,,,,,,,,,,,,,,,,,,,,,,,,,,,,,,,,,,,,,,,,,,,,,,,,,,,,,,,,,,,,,,,,,,,,,,,,,,,,,,,,,,,,
,,,,,,6117772456477652eea60139,62c53a0d1ea850893376a8df,2022-07-06_09h31.42.784,Colour_Asymmetry_Pilot,2022.1.3,Win32,60.0348202,62c50e9c1127f2cd403a315f,0,154,154,24,1,onetwo,,,,,,,,,,,,,,,,,,,,,,,,,,,,,,,,,,,,,,,,,,,,,,,,,,,,,,,,,,,,,,,,,,,,,,,,,,,,,,,,,,,,,,,,,,,,,,,,,,,,,,,,,,,,,,,,,,,,,,,,,,,,,,,,,,,,,,,,,,,,,,,,,,,,,,,,,,,,,
,,,,,,6117772456477652eea60139,62c53a0d1ea850893376a8df,2022-07-06_09h31.42.784,Colour_Asymmetry_Pilot,2022.1.3,Win32,60.0348202,62c50e9c1127f2cd403a315f,0,155,155,3,1,twofour,,,,,,,,,,,,,,,,,,,,,,,,,,,,,,,,,,,,,,,,,,,,,,,,,,,,,,,,,,,,,,,,,,,,,,,,,,,,,,,,,,,,,,,,,,,,,,,,,,,,,,,,,,,,,,,,,,,,,,,,,,,,,,,,,,,,,,,,,,,,,,,,,,,,,,,,,,,,,
,,,,,,6117772456477652eea60139,62c53a0d1ea850893376a8df,2022-07-06_09h31.42.784,Colour_Asymmetry_Pilot,2022.1.3,Win32,60.0348202,62c50e9c1127f2cd403a315f,0,156,156,147,1,twofour,,,,,,,,,,,,,,,,,,,,,,,,,,,,,,,,,,,,,,,,,,,,,,,,,,,,,,,,,,,,,,,,,,,,,,,,,,,,,,,,,,,,,,,,,,,,,,,,,,,,,,,,,,,,,,,,,,,,,,,,,,,,,,,,,,,,,,,,,,,,,,,,,,,,,,,,,,,,,
,,,,,,6117772456477652eea60139,62c53a0d1ea850893376a8df,2022-07-06_09h31.42.784,Colour_Asymmetry_Pilot,2022.1.3,Win32,60.0348202,62c50e9c1127f2cd403a315f,0,157,157,126,1,fourtwo,,,,,,,,,,,,,,,,,,,,,,,,,,,,,,,,,,,,,,,,,,,,,,,,,,,,,,,,,,,,,,,,,,,,,,,,,,,,,,,,,,,,,,,,,,,,,,,,,,,,,,,,,,,,,,,,,,,,,,,,,,,,,,,,,,,,,,,,,,,,,,,,,,,,,,,,,,,,,
,,,,,,6117772456477652eea60139,62c53a0d1ea850893376a8df,2022-07-06_09h31.42.784,Colour_Asymmetry_Pilot,2022.1.3,Win32,60.0348202,62c50e9c1127f2cd403a315f,0,158,158,131,1,twofour,,,,,,,,,,,,,,,,,,,,,,,,,,,,,,,,,,,,,,,,,,,,,,,,,,,,,,,,,,,,,,,,,,,,,,,,,,,,,,,,,,,,,,,,,,,,,,,,,,,,,,,,,,,,,,,,,,,,,,,,,,,,,,,,,,,,,,,,,,,,,,,,,,,,,,,,,,,,,
,,,,,,6117772456477652eea60139,62c53a0d1ea850893376a8df,2022-07-06_09h31.42.784,Colour_Asymmetry_Pilot,2022.1.3,Win32,60.0348202,62c50e9c1127f2cd403a315f,0,159,159,101,1,threefour,,,,,,,,,,,,,,,,,,,,,,,,,,,,,,,,,,,,,,,,,,,,,,,,,,,,,,,,,,,,,,,,,,,,,,,,,,,,,,,,,,,,,,,,,,,,,,,,,,,,,,,,,,,,,,,,,,,,,,,,,,,,,,,,,,,,,,,,,,,,,,,,,,,,,,,,,,,,,
,,,,,,6117772456477652eea60139,62c53a0d1ea850893376a8df,2022-07-06_09h31.42.784,Colour_Asymmetry_Pilot,2022.1.3,Win32,60.0348202,62c50e9c1127f2cd403a315f,0,160,160,140,1,threeone,,,,,,,,,,,,,,,,,,,,,,,,,,,,,,,,,,,,,,,,,,,,,,,,,,,,,,,,,,,,,,,,,,,,,,,,,,,,,,,,,,,,,,,,,,,,,,,,,,,,,,,,,,,,,,,,,,,,,,,,,,,,,,,,,,,,,,,,,,,,,,,,,,,,,,,,,,,,,
,,,,,,6117772456477652eea60139,62c53a0d1ea850893376a8df,2022-07-06_09h31.42.784,Colour_Asymmetry_Pilot,2022.1.3,Win32,60.0348202,62c50e9c1127f2cd403a315f,0,161,161,13,1,threefour,,,,,,,,,,,,,,,,,,,,,,,,,,,,,,,,,,,,,,,,,,,,,,,,,,,,,,,,,,,,,,,,,,,,,,,,,,,,,,,,,,,,,,,,,,,,,,,,,,,,,,,,,,,,,,,,,,,,,,,,,,,,,,,,,,,,,,,,,,,,,,,,,,,,,,,,,,,,,
,,,,,,6117772456477652eea60139,62c53a0d1ea850893376a8df,2022-07-06_09h31.42.784,Colour_Asymmetry_Pilot,2022.1.3,Win32,60.0348202,62c50e9c1127f2cd403a315f,,,,,,,space,5.5342,space,21.5591,space,48.9888,space,28.9021,space,36.812,space,5.4154,"[0.2862,0.7802,0.3568]",fourtwo,"[-0.5688,-0.08239999999999992,-0.1844]",2,21.5949,99.33337402,-47.33334351,1,0,0,response3disk_5,1.333374023,-1.333343506,1,0,0,rectangle_8,1.333374023,-1.333343506,1,0,0,4,1.333374023,-1.333343506,1,0,0,0,0,0,0,1,,,,,,,,,,,,,,,,,,,,,,,,,,,,,,,,,,,,,,,,,,,,,,,,,,,,,,,,,,,,,,,,,,,,,,,,,,,,,,,,,,,,,,,,,,,,,,,,,,,,,,,,,,,,,,,,
,,,,,,6117772456477652eea60139,62c53a0d1ea850893376a8df,2022-07-06_09h31.42.784,Colour_Asymmetry_Pilot,2022.1.3,Win32,60.0348202,62c50e9c1127f2cd403a315f,,,,,,,,,,,,,,,,,,,"[0.18419999999999992,-0.4276,-0.404]",threeone,"[-0.5922000000000001,-0.7492000000000001,-0.5296000000000001]",-2,11.9936,-92.66662598,-48,1,0,0,response5disk_5,-0.666625977,-3.333343506,1,0,0,rectangle_8,54.66668701,116,1,0,0,4,-15.33331299,-2,1,0,0,1,0,1,0,1,response1disk_7,7,rectangle_4,,,,,,,,,,,,,,,,,,,,,,,,,,,,,,,,,,,,,,,,,,,,,,,,,,,,,,,,,,,,,,,,,,,,,,,,,,,,,,,,,,,,,,,,,,,,,,,,,,,,,,,,,,,,,
,,,,,,6117772456477652eea60139,62c53a0d1ea850893376a8df,2022-07-06_09h31.42.784,Colour_Asymmetry_Pilot,2022.1.3,Win32,60.0348202,62c50e9c1127f2cd403a315f,,,,,,,,,,,,,,,,,,,"[-0.9844,-0.9688,-0.9922]",threefour,"[0.9763999999999999,0.30979999999999985,-0.6786]",-4,2.4156,-38,120,1,0,0,response7disk_5,-7.333312988,-1.333343506,1,0,0,rectangle_8,42.66668701,116,1,0,0,4,4,-2,1,0,0,2,0,2,0,1,response1disk_7,7,rectangle_4,,,,,,,,,,,,,,,,,,,,,,,,,,,,,,,,,,,,,,,,,,,,,,,,,,,,,,,,,,,,,,,,,,,,,,,,,,,,,,,,,,,,,,,,,,,,,,,,,,,,,,,,,,,,,
,,,,,,6117772456477652eea60139,62c53a0d1ea850893376a8df,2022-07-06_09h31.42.784,Colour_Asymmetry_Pilot,2022.1.3,Win32,60.0348202,62c50e9c1127f2cd403a315f,,,,,,,,,,,,,,,,,,,"[0.8115999999999999,-0.0040000000000000036,-0.09819999999999995]",threefour,"[0.9686000000000001,0.3802000000000001,0.19999999999999996]",3,9.8117,117.333374,48.66665649,1,0,0,response1disk_5,-11.33331299,4,1,0,0,rectangle_8,-11.33331299,4,1,0,0,4,-11.33331299,4,1,0,0,3,0,3,0,1,,,,,,,,,,,,,,,,,,,,,,,,,,,,,,,,,,,,,,,,,,,,,,,,,,,,,,,,,,,,,,,,,,,,,,,,,,,,,,,,,,,,,,,,,,,,,,,,,,,,,,,,,,,,,,,,
,,,,,,6117772456477652eea60139,62c53a0d1ea850893376a8df,2022-07-06_09h31.42.784,Colour_Asymmetry_Pilot,2022.1.3,Win32,60.0348202,62c50e9c1127f2cd403a315f,,,,,,,,,,,,,,,,,,,"[0.8115999999999999,-0.0040000000000000036,-0.09819999999999995]",fourtwo,"[0.34099999999999997,0.12939999999999996,-0.9766]",1,4.5976,60,-109.3333435,1,0,0,response3disk_5,-5.333312988,1.333312988,1,0,0,rectangle_8,-5.333312988,1.333312988,1,0,0,4,-5.333312988,1.333312988,1,0,0,4,0,4,0,1,,,,,,,,,,,,,,,,,,,,,,,,,,,,,,,,,,,,,,,,,,,,,,,,,,,,,,,,,,,,,,,,,,,,,,,,,,,,,,,,,,,,,,,,,,,,,,,,,,,,,,,,,,,,,,,,
,,,,,,6117772456477652eea60139,62c53a0d1ea850893376a8df,2022-07-06_09h31.42.784,Colour_Asymmetry_Pilot,2022.1.3,Win32,60.0348202,62c50e9c1127f2cd403a315f,,,,,,,,,,,,,,,,,,,"[0.09799999999999986,-0.24719999999999998,0.15280000000000005]",fourtwo,"[-0.4902000000000001,0.2704,-0.45899999999999996]",-4,2.8485,-45.33331299,114,1,0,0,response7disk_5,-2.666625977,1.333312988,1,0,0,rectangle_8,-2.666625977,1.333312988,1,0,0,4,-2.666625977,1.333312988,1,0,0,5,0,5,0,1,,,,,,,,,,,,,,,,,,,,,,,,,,,,,,,,,,,,,,,,,,,,,,,,,,,,,,,,,,,,,,,,,,,,,,,,,,,,,,,,,,,,,,,,,,,,,,,,,,,,,,,,,,,,,,,,
,,,,,,6117772456477652eea60139,62c53a0d1ea850893376a8df,2022-07-06_09h31.42.784,Colour_Asymmetry_Pilot,2022.1.3,Win32,60.0348202,62c50e9c1127f2cd403a315f,,,,,,,,,,,,,,,,,,,"[-0.4668,-0.8746,-0.2942]",twofour,"[0.4196,0.4665999999999999,0.3568]",-2,5.8463,-94,-43.33334351,1,0,0,response5disk_5,-1.333312988,-2,1,0,0,rectangle_8,-1.333312988,-2,1,0,0,4,-1.333312988,-2,1,0,0,6,0,6,0,1,,,,,,,,,,,,,,,,,,,,,,,,,,,,,,,,,,,,,,,,,,,,,,,,,,,,,,,,,,,,,,,,,,,,,,,,,,,,,,,,,,,,,,,,,,,,,,,,,,,,,,,,,,,,,,,,
,,,,,,6117772456477652eea60139,62c53a0d1ea850893376a8df,2022-07-06_09h31.42.784,Colour_Asymmetry_Pilot,2022.1.3,Win32,60.0348202,62c50e9c1127f2cd403a315f,,,,,,,,,,,,,,,,,,,,threeone,,-2,5.2076,,,,,,,,,,,,,,,,,,,,,,,,,,,,,,,,space,4.4133,"[-0.9688,-0.4902000000000001,-0.12159999999999993]","[-0.2942,-0.7648,-0.7492000000000001]",-99.33331299,-50.66668701,1,0,0,response5disk,-2.666625977,4.666656494,1,0,0,rectangle,-2.666625977,4.666656494,1,0,0,,3,0.0025,0,-2.666625977,4.666656494,1,0,0,0,0,0,26,1,26,first,,,,,,,,,,,,,,,,,,,,,,,,,,,,,,,,,,,,,,,,,,,,,,,,,,,,,,,,,,,,,,,,,,,,,,,,
,,,,,,6117772456477652eea60139,62c53a0d1ea850893376a8df,2022-07-06_09h31.42.784,Colour_Asymmetry_Pilot,2022.1.3,Win32,60.0348202,62c50e9c1127f2cd403a315f,,,,,,,,,,,,,,,,,,,,twoone,,-2,2.882,,,,,,,,,,,,,,,,,,,,,,,,,,,,,,,,,,"[-0.06680000000000008,-0.45100000000000007,-0.906]","[0.37240000000000006,0.4980000000000002,-0.2864]",-106.666626,-38.66668701,1,0,0,response5disk,7.333374023,-4,1,0,0,rectangle,7.333374023,-4,1,0,0,,2,0.0016,0,7.333374023,-4,1,0,0,0,1,1,66,1,66,first,,,,,,,,,,,,,,,,,,,,,,,,,,,,,,,,,,,,,,,,,,,,,,,,,,,,,,,,,,,,,,,,,,,,,,,,
,,,,,,6117772456477652eea60139,62c53a0d1ea850893376a8df,2022-07-06_09h31.42.784,Colour_Asymmetry_Pilot,2022.1.3,Win32,60.0348202,62c50e9c1127f2cd403a315f,,,,,,,,,,,,,,,,,,,,fourtwo,,1,2.4655,,,,,,,,,,,,,,,,,,,,,,,,,,,,,,,,,,"[-0.9138,-0.5296000000000001,-0.5529999999999999]","[0.5528,0.7409999999999999,-0.71]",41.33337402,-107.3333435,1,0,0,response3disk,-13.33331299,-4.666687012,1,0,0,rectangle,-13.33331299,-4.666687012,1,0,0,,2,0.0003,0,-13.33331299,-4.666687012,1,0,0,0,2,2,93,1,12,second,,,,,,,,,,,,,,,,,,,,,,,,,,,,,,,,,,,,,,,,,,,,,,,,,,,,,,,,,,,,,,,,,,,,,,,,
,,,,,,6117772456477652eea60139,62c53a0d1ea850893376a8df,2022-07-06_09h31.42.784,Colour_Asymmetry_Pilot,2022.1.3,Win32,60.0348202,62c50e9c1127f2cd403a315f,,,,,,,,,,,,,,,,,,,,fourtwo,,-3,5.1641,,,,,,,,,,,,,,,,,,,,,,,,,,,,,,,,,,"[-0.0040000000000000036,0.02739999999999987,-0.08239999999999992]","[-0.8118,-0.8198,-0.5452]",-118,28,1,0,0,response7disk,-12.66662598,8,1,0,0,rectangle,-12.66662598,8,1,0,0,,1,0.0013,0,-12.66662598,8,1,0,0,0,3,3,115,1,34,second,,,,,,,,,,,,,,,,,,,,,,,,,,,,,,,,,,,,,,,,,,,,,,,,,,,,,,,,,,,,,,,,,,,,,,,,
,,,,,,6117772456477652eea60139,62c53a0d1ea850893376a8df,2022-07-06_09h31.42.784,Colour_Asymmetry_Pilot,2022.1.3,Win32,60.0348202,62c50e9c1127f2cd403a315f,,,,,,,,,,,,,,,,,,,,fourthree,,3,4.4141,,,,,,,,,,,,,,,,,,,,,,,,,,,,,,,,,,"[-0.5922000000000001,-0.7492000000000001,-0.5296000000000001]","[-0.20799999999999996,-0.655,-0.01980000000000004]",106.666687,46.66665649,1,0,0,response1disk,-7.333312988,2.666656494,1,0,0,rectangle,-7.333312988,2.666656494,1,0,0,,2,0.0016,0,-7.333312988,2.666656494,1,0,0,0,4,4,152,1,71,second,,,,,,,,,,,,,,,,,,,,,,,,,,,,,,,,,,,,,,,,,,,,,,,,,,,,,,,,,,,,,,,,,,,,,,,,
,,,,,,6117772456477652eea60139,62c53a0d1ea850893376a8df,2022-07-06_09h31.42.784,Colour_Asymmetry_Pilot,2022.1.3,Win32,60.0348202,62c50e9c1127f2cd403a315f,,,,,,,,,,,,,,,,,,,,threeone,,1,2.599,,,,,,,,,,,,,,,,,,,,,,,,,,,,,,,,,,"[-0.6,0.16860000000000008,0.44300000000000006]","[-0.9138,-0.5296000000000001,-0.5529999999999999]",54.66668701,-118.666687,1,0,0,response3disk,-2,6,1,0,0,rectangle,-2,6,1,0,0,,2,0.0004,0,-2,6,1,0,0,0,5,5,22,1,22,first,,,,,,,,,,,,,,,,,,,,,,,,,,,,,,,,,,,,,,,,,,,,,,,,,,,,,,,,,,,,,,,,,,,,,,,,
,,,,,,6117772456477652eea60139,62c53a0d1ea850893376a8df,2022-07-06_09h31.42.784,Colour_Asymmetry_Pilot,2022.1.3,Win32,60.0348202,62c50e9c1127f2cd403a315f,,,,,,,,,,,,,,,,,,,,threeone,,4,4.8142,,,,,,,,,,,,,,,,,,,,,,,,,,,,,,,,,,"[-0.8982,-0.37259999999999993,0.2784]","[-0.4746,-0.0354000000000001,0.5449999999999999]",52.66668701,110,1,0,0,response1disk,15.33337402,-5.333343506,1,0,0,rectangle,15.33337402,-5.333343506,1,0,0,,1,0.0018,0,15.33337402,-5.333343506,1,0,0,0,6,6,27,1,27,first,,,,,,,,,,,,,,,,,,,,,,,,,,,,,,,,,,,,,,,,,,,,,,,,,,,,,,,,,,,,,,,,,,,,,,,,
,,,,,,6117772456477652eea60139,62c53a0d1ea850893376a8df,2022-07-06_09h31.42.784,Colour_Asymmetry_Pilot,2022.1.3,Win32,60.0348202,62c50e9c1127f2cd403a315f,,,,,,,,,,,,,,,,,,,,fourtwo,,-3,2.349,,,,,,,,,,,,,,,,,,,,,,,,,,,,,,,,,,"[-0.48240000000000005,0.3175999999999999,0.2156]","[0.37240000000000006,-0.050999999999999934,-0.5216]",-100.666626,35.33331299,1,0,0,response7disk,14.66668701,0,1,0,0,rectangle,14.66668701,0,1,0,0,,2,0.002,0,14.66668701,0,1,0,0,0,7,7,129,1,48,second,,,,,,,,,,,,,,,,,,,,,,,,,,,,,,,,,,,,,,,,,,,,,,,,,,,,,,,,,,,,,,,,,,,,,,,,
,,,,,,6117772456477652eea60139,62c53a0d1ea850893376a8df,2022-07-06_09h31.42.784,Colour_Asymmetry_Pilot,2022.1.3,Win32,60.0348202,62c50e9c1127f2cd403a315f,,,,,,,,,,,,,,,,,,,,onetwo,,-4,4.2647,,,,,,,,,,,,,,,,,,,,,,,,,,,,,,,,,,"[0.37240000000000006,-0.050999999999999934,-0.5216]","[0.09799999999999986,-0.24719999999999998,0.15280000000000005]",-41.33331299,112,1,0,0,response7disk,0.666687012,5.333312988,1,0,0,rectangle,0.666687012,5.333312988,1,0,0,,2,0.0003,0,0.666687012,5.333312988,1,0,0,0,8,8,53,1,53,first,,,,,,,,,,,,,,,,,,,,,,,,,,,,,,,,,,,,,,,,,,,,,,,,,,,,,,,,,,,,,,,,,,,,,,,,
,,,,,,6117772456477652eea60139,62c53a0d1ea850893376a8df,2022-07-06_09h31.42.784,Colour_Asymmetry_Pilot,2022.1.3,Win32,60.0348202,62c50e9c1127f2cd403a315f,,,,,,,,,,,,,,,,,,,,threefour,,-2,1.8072,,,,,,,,,,,,,,,,,,,,,,,,,,,,,,,,,,"[-0.8982,-0.37259999999999993,0.2784]","[0.2862,0.7802,0.3568]",-97.33331299,-46,1,0,0,response5disk,-28,3.333312988,1,0,0,rectangle,114,46,1,0,0,3,3,5.8963,1,3.333374023,6,1,0,0,0,9,9,161,1,80,second,response1disk_3,rectangle,,,,,,,,,,,,,,,,,,,,,,,,,,,,,,,,,,,,,,,,,,,,,,,,,,,,,,,,,,,,,,,,,,,,,,
,,,,,,6117772456477652eea60139,62c53a0d1ea850893376a8df,2022-07-06_09h31.42.784,Colour_Asymmetry_Pilot,2022.1.3,Win32,60.0348202,62c50e9c1127f2cd403a315f,,,,,,,,,,,,,,,,,,,,onethree,,-2,2.1989,,,,,,,,,,,,,,,,,,,,,,,,,,,,,,,,,,"[-0.34920000000000007,-0.702,-0.5216]","[0.11359999999999992,0.6312,0.5213999999999999]",-96,-38,1,0,0,response5disk,11.33337402,2.666656494,1,0,0,rectangle,11.33337402,2.666656494,1,0,0,3,1,0.0014,0,11.33337402,2.666656494,1,0,0,0,10,10,150,1,69,second,,,,,,,,,,,,,,,,,,,,,,,,,,,,,,,,,,,,,,,,,,,,,,,,,,,,,,,,,,,,,,,,,,,,,,,,
,,,,,,6117772456477652eea60139,62c53a0d1ea850893376a8df,2022-07-06_09h31.42.784,Colour_Asymmetry_Pilot,2022.1.3,Win32,60.0348202,62c50e9c1127f2cd403a315f,,,,,,,,,,,,,,,,,,,,onethree,,-3,1.6825,,,,,,,,,,,,,,,,,,,,,,,,,,,,,,,,,,"[-0.01980000000000004,-0.5138,-0.38039999999999996]","[0.3802000000000001,0.19199999999999995,-0.6394]",-112,62,1,0,0,response7disk,-5.333312988,12,1,0,0,rectangle,-5.333312988,12,1,0,0,3,2,0.0015,0,-5.333312988,12,1,0,0,0,11,11,121,1,40,second,,,,,,,,,,,,,,,,,,,,,,,,,,,,,,,,,,,,,,,,,,,,,,,,,,,,,,,,,,,,,,,,,,,,,,,,
,,,,,,6117772456477652eea60139,62c53a0d1ea850893376a8df,2022-07-06_09h31.42.784,Colour_Asymmetry_Pilot,2022.1.3,Win32,60.0348202,62c50e9c1127f2cd403a315f,,,,,,,,,,,,,,,,,,,,fourthree,,-4,2.0363,,,,,,,,,,,,,,,,,,,,,,,,,,,,,,,,,,"[0.9763999999999999,0.30979999999999985,-0.6786]","[0.7018,0.7176,0.6155999999999999]",-48.66662598,115.3333282,1,0,0,response7disk,21.33337402,-1.333343506,1,0,0,rectangle,21.33337402,-1.333343506,1,0,0,3,3,0.0014,0,21.33337402,-1.333343506,1,0,0,0,12,12,63,1,63,first,,,,,,,,,,,,,,,,,,,,,,,,,,,,,,,,,,,,,,,,,,,,,,,,,,,,,,,,,,,,,,,,,,,,,,,,
,,,,,,6117772456477652eea60139,62c53a0d1ea850893376a8df,2022-07-06_09h31.42.784,Colour_Asymmetry_Pilot,2022.1.3,Win32,60.0348202,62c50e9c1127f2cd403a315f,,,,,,,,,,,,,,,,,,,,threefour,,-3,2.9318,,,,,,,,,,,,,,,,,,,,,,,,,,,,,,,,,,"[0.09799999999999986,-0.24719999999999998,0.15280000000000005]","[0.37240000000000006,-0.050999999999999934,-0.5216]",-107.333313,48.66665649,1,0,0,response7disk,-11.33331299,1.333312988,1,0,0,rectangle,-11.33331299,1.333312988,1,0,0,3,2,0.0013,0,-11.33331299,1.333312988,1,0,0,0,13,13,134,1,53,second,,,,,,,,,,,,,,,,,,,,,,,,,,,,,,,,,,,,,,,,,,,,,,,,,,,,,,,,,,,,,,,,,,,,,,,,
,,,,,,6117772456477652eea60139,62c53a0d1ea850893376a8df,2022-07-06_09h31.42.784,Colour_Asymmetry_Pilot,2022.1.3,Win32,60.0348202,62c50e9c1127f2cd403a315f,,,,,,,,,,,,,,,,,,,,fourtwo,,4,0.8998,,,,,,,,,,,,,,,,,,,,,,,,,,,,,,,,,,"[-0.01980000000000004,-0.5138,-0.38039999999999996]","[-0.011800000000000033,-0.906,-0.45100000000000007]",34.66668701,112.6666565,1,0,0,response1disk,7.333374023,0.666656494,1,0,0,rectangle,7.333374023,0.666656494,1,0,0,3,2,0.0002,0,7.333374023,0.666656494,1,0,0,0,14,14,131,1,50,second,,,,,,,,,,,,,,,,,,,,,,,,,,,,,,,,,,,,,,,,,,,,,,,,,,,,,,,,,,,,,,,,,,,,,,,,
,,,,,,6117772456477652eea60139,62c53a0d1ea850893376a8df,2022-07-06_09h31.42.784,Colour_Asymmetry_Pilot,2022.1.3,Win32,60.0348202,62c50e9c1127f2cd403a315f,,,,,,,,,,,,,,,,,,,,onethree,,-3,1.0998,,,,,,,,,,,,,,,,,,,,,,,,,,,,,,,,,,"[0.34099999999999997,0.5841999999999998,-0.9844]","[-0.2942,-0.7648,-0.7492000000000001]",-116.666626,48,1,0,0,response7disk,8,6.666656494,1,0,0,rectangle,8,6.666656494,1,0,0,3,3,0.0017,0,8,6.666656494,1,0,0,0,15,15,141,1,60,second,,,,,,,,,,,,,,,,,,,,,,,,,,,,,,,,,,,,,,,,,,,,,,,,,,,,,,,,,,,,,,,,,,,,,,,,
