trials.thisRepN,trials.thisTrialN,trials.thisN,trials.thisIndex,trials.ran,Colourcodes,participant,session,date,expName,psychopyVersion,OS,frameRate,study_id,trials_4.thisRepN,trials_4.thisTrialN,trials_4.thisN,trials_4.thisIndex,trials_4.ran,StimulusPos,key_resp.keys,key_resp.rt,key_resp_2.keys,key_resp_2.rt,key_resp_15.keys,key_resp_15.rt,key_resp_17.keys,key_resp_17.rt,key_resp_9.keys,key_resp_9.rt,key_resp_10.keys,key_resp_10.rt,Circle1_col,Ecc,Circle2_col,similarity,response_time,mouse_5.x,mouse_5.y,mouse_5.leftButton,mouse_5.midButton,mouse_5.rightButton,mouse_5.clicked_name,mouse_10.x,mouse_10.y,mouse_10.leftButton,mouse_10.midButton,mouse_10.rightButton,mouse_10.clicked_name,mouse_7.x,mouse_7.y,mouse_7.leftButton,mouse_7.midButton,mouse_7.rightButton,catchnumberprac,mouse_6.x,mouse_6.y,mouse_6.leftButton,mouse_6.midButton,mouse_6.rightButton,duringprac.thisRepN,duringprac.thisTrialN,duringprac.thisN,duringprac.thisIndex,duringprac.ran,mouse_7.clicked_name,catchprac,mouse_6.clicked_name,key_resp_22.keys,key_resp_22.rt,Circle1_colour,Circle2_colour,mouse.x,mouse.y,mouse.leftButton,mouse.midButton,mouse.rightButton,mouse.clicked_name,mouse_2.x,mouse_2.y,mouse_2.leftButton,mouse_2.midButton,mouse_2.rightButton,mouse_2.clicked_name,mouse_3.x,mouse_3.y,mouse_3.leftButton,mouse_3.midButton,mouse_3.rightButton,catchresponse,catchnumber,response_time_catch,Catch,mouse_11.x,mouse_11.y,mouse_11.leftButton,mouse_11.midButton,mouse_11.rightButton,trials_2.thisRepN,trials_2.thisTrialN,trials_2.thisN,trials_2.thisIndex,trials_2.ran,Colourpair,Temporder,mouse_3.clicked_name,mouse_11.clicked_name,trials_3.thisRepN,trials_3.thisTrialN,trials_3.thisN,trials_3.thisIndex,trials_3.ran,key_resp_instr_Ishi.keys,key_resp_instr_Ishi.rt,Ishi_trial_keyresp.keys,Ishi_textbox.text,Ishi_mouse.x,Ishi_mouse.y,Ishi_mouse.leftButton,Ishi_mouse.midButton,Ishi_mouse.rightButton,Ishi_mouse.clicked_name,Ishi_loop.thisRepN,Ishi_loop.thisTrialN,Ishi_loop.thisN,Ishi_loop.thisIndex,Ishi_loop.ran,imageaddress,textbox.text,mouse_4.x,mouse_4.y,mouse_4.leftButton,mouse_4.midButton,mouse_4.rightButton,mouse_4.clicked_name,textbox_2.text,mouse_8.x,mouse_8.y,mouse_8.leftButton,mouse_8.midButton,mouse_8.rightButton,mouse_8.clicked_name,textbox_3.text,mouse_9.x,mouse_9.y,mouse_9.leftButton,mouse_9.midButton,mouse_9.rightButton,mouse_9.clicked_name,textbox_4.text,mouse_12.x,mouse_12.y,mouse_12.leftButton,mouse_12.midButton,mouse_12.rightButton,mouse_12.clicked_name,textbox_5.text,mouse_13.x,mouse_13.y,mouse_13.leftButton,mouse_13.midButton,mouse_13.rightButton,mouse_13.clicked_name,textbox_6.text,mouse_14.x,mouse_14.y,mouse_14.leftButton,mouse_14.midButton,mouse_14.rightButton,mouse_14.clicked_name,textbox_7.text,mouse_15.x,mouse_15.y,mouse_15.leftButton,mouse_15.midButton,mouse_15.rightButton,mouse_15.clicked_name
0,0,0,16,1,,60fd3d9e7434801d922cd2e0,62c53a9a394159e382b487d0,2022-07-06_19h33.03.974,Colour_Asymmetry_Pilot,2022.1.3,Win32,143.8641922,62c50e9c1127f2cd403a315f,,,,,,,,,,,,,,,,,,,,,,,,,,,,,,,,,,,,,,,,,,,,,,,,,,,,,,,,,,,,,,,,,,,,,,,,,,,,,,,,,,,,,,,,,,,,,,,,,,,,,,,,,,,,,,,,,,,,,,,,,,,,,,,,,,,,,,,,,,,,,,,,,,,,,,,,,,,,,,,,,,,
0,1,1,18,1,,60fd3d9e7434801d922cd2e0,62c53a9a394159e382b487d0,2022-07-06_19h33.03.974,Colour_Asymmetry_Pilot,2022.1.3,Win32,143.8641922,62c50e9c1127f2cd403a315f,,,,,,,,,,,,,,,,,,,,,,,,,,,,,,,,,,,,,,,,,,,,,,,,,,,,,,,,,,,,,,,,,,,,,,,,,,,,,,,,,,,,,,,,,,,,,,,,,,,,,,,,,,,,,,,,,,,,,,,,,,,,,,,,,,,,,,,,,,,,,,,,,,,,,,,,,,,,,,,,,,,
0,2,2,47,1,,60fd3d9e7434801d922cd2e0,62c53a9a394159e382b487d0,2022-07-06_19h33.03.974,Colour_Asymmetry_Pilot,2022.1.3,Win32,143.8641922,62c50e9c1127f2cd403a315f,,,,,,,,,,,,,,,,,,,,,,,,,,,,,,,,,,,,,,,,,,,,,,,,,,,,,,,,,,,,,,,,,,,,,,,,,,,,,,,,,,,,,,,,,,,,,,,,,,,,,,,,,,,,,,,,,,,,,,,,,,,,,,,,,,,,,,,,,,,,,,,,,,,,,,,,,,,,,,,,,,,
0,3,3,54,1,,60fd3d9e7434801d922cd2e0,62c53a9a394159e382b487d0,2022-07-06_19h33.03.974,Colour_Asymmetry_Pilot,2022.1.3,Win32,143.8641922,62c50e9c1127f2cd403a315f,,,,,,,,,,,,,,,,,,,,,,,,,,,,,,,,,,,,,,,,,,,,,,,,,,,,,,,,,,,,,,,,,,,,,,,,,,,,,,,,,,,,,,,,,,,,,,,,,,,,,,,,,,,,,,,,,,,,,,,,,,,,,,,,,,,,,,,,,,,,,,,,,,,,,,,,,,,,,,,,,,,
0,4,4,48,1,,60fd3d9e7434801d922cd2e0,62c53a9a394159e382b487d0,2022-07-06_19h33.03.974,Colour_Asymmetry_Pilot,2022.1.3,Win32,143.8641922,62c50e9c1127f2cd403a315f,,,,,,,,,,,,,,,,,,,,,,,,,,,,,,,,,,,,,,,,,,,,,,,,,,,,,,,,,,,,,,,,,,,,,,,,,,,,,,,,,,,,,,,,,,,,,,,,,,,,,,,,,,,,,,,,,,,,,,,,,,,,,,,,,,,,,,,,,,,,,,,,,,,,,,,,,,,,,,,,,,,
0,5,5,63,1,,60fd3d9e7434801d922cd2e0,62c53a9a394159e382b487d0,2022-07-06_19h33.03.974,Colour_Asymmetry_Pilot,2022.1.3,Win32,143.8641922,62c50e9c1127f2cd403a315f,,,,,,,,,,,,,,,,,,,,,,,,,,,,,,,,,,,,,,,,,,,,,,,,,,,,,,,,,,,,,,,,,,,,,,,,,,,,,,,,,,,,,,,,,,,,,,,,,,,,,,,,,,,,,,,,,,,,,,,,,,,,,,,,,,,,,,,,,,,,,,,,,,,,,,,,,,,,,,,,,,,
0,6,6,5,1,,60fd3d9e7434801d922cd2e0,62c53a9a394159e382b487d0,2022-07-06_19h33.03.974,Colour_Asymmetry_Pilot,2022.1.3,Win32,143.8641922,62c50e9c1127f2cd403a315f,,,,,,,,,,,,,,,,,,,,,,,,,,,,,,,,,,,,,,,,,,,,,,,,,,,,,,,,,,,,,,,,,,,,,,,,,,,,,,,,,,,,,,,,,,,,,,,,,,,,,,,,,,,,,,,,,,,,,,,,,,,,,,,,,,,,,,,,,,,,,,,,,,,,,,,,,,,,,,,,,,,
0,7,7,78,1,,60fd3d9e7434801d922cd2e0,62c53a9a394159e382b487d0,2022-07-06_19h33.03.974,Colour_Asymmetry_Pilot,2022.1.3,Win32,143.8641922,62c50e9c1127f2cd403a315f,,,,,,,,,,,,,,,,,,,,,,,,,,,,,,,,,,,,,,,,,,,,,,,,,,,,,,,,,,,,,,,,,,,,,,,,,,,,,,,,,,,,,,,,,,,,,,,,,,,,,,,,,,,,,,,,,,,,,,,,,,,,,,,,,,,,,,,,,,,,,,,,,,,,,,,,,,,,,,,,,,,
0,8,8,81,1,,60fd3d9e7434801d922cd2e0,62c53a9a394159e382b487d0,2022-07-06_19h33.03.974,Colour_Asymmetry_Pilot,2022.1.3,Win32,143.8641922,62c50e9c1127f2cd403a315f,,,,,,,,,,,,,,,,,,,,,,,,,,,,,,,,,,,,,,,,,,,,,,,,,,,,,,,,,,,,,,,,,,,,,,,,,,,,,,,,,,,,,,,,,,,,,,,,,,,,,,,,,,,,,,,,,,,,,,,,,,,,,,,,,,,,,,,,,,,,,,,,,,,,,,,,,,,,,,,,,,,
0,9,9,49,1,,60fd3d9e7434801d922cd2e0,62c53a9a394159e382b487d0,2022-07-06_19h33.03.974,Colour_Asymmetry_Pilot,2022.1.3,Win32,143.8641922,62c50e9c1127f2cd403a315f,,,,,,,,,,,,,,,,,,,,,,,,,,,,,,,,,,,,,,,,,,,,,,,,,,,,,,,,,,,,,,,,,,,,,,,,,,,,,,,,,,,,,,,,,,,,,,,,,,,,,,,,,,,,,,,,,,,,,,,,,,,,,,,,,,,,,,,,,,,,,,,,,,,,,,,,,,,,,,,,,,,
0,10,10,31,1,,60fd3d9e7434801d922cd2e0,62c53a9a394159e382b487d0,2022-07-06_19h33.03.974,Colour_Asymmetry_Pilot,2022.1.3,Win32,143.8641922,62c50e9c1127f2cd403a315f,,,,,,,,,,,,,,,,,,,,,,,,,,,,,,,,,,,,,,,,,,,,,,,,,,,,,,,,,,,,,,,,,,,,,,,,,,,,,,,,,,,,,,,,,,,,,,,,,,,,,,,,,,,,,,,,,,,,,,,,,,,,,,,,,,,,,,,,,,,,,,,,,,,,,,,,,,,,,,,,,,,
0,11,11,7,1,,60fd3d9e7434801d922cd2e0,62c53a9a394159e382b487d0,2022-07-06_19h33.03.974,Colour_Asymmetry_Pilot,2022.1.3,Win32,143.8641922,62c50e9c1127f2cd403a315f,,,,,,,,,,,,,,,,,,,,,,,,,,,,,,,,,,,,,,,,,,,,,,,,,,,,,,,,,,,,,,,,,,,,,,,,,,,,,,,,,,,,,,,,,,,,,,,,,,,,,,,,,,,,,,,,,,,,,,,,,,,,,,,,,,,,,,,,,,,,,,,,,,,,,,,,,,,,,,,,,,,
0,12,12,20,1,,60fd3d9e7434801d922cd2e0,62c53a9a394159e382b487d0,2022-07-06_19h33.03.974,Colour_Asymmetry_Pilot,2022.1.3,Win32,143.8641922,62c50e9c1127f2cd403a315f,,,,,,,,,,,,,,,,,,,,,,,,,,,,,,,,,,,,,,,,,,,,,,,,,,,,,,,,,,,,,,,,,,,,,,,,,,,,,,,,,,,,,,,,,,,,,,,,,,,,,,,,,,,,,,,,,,,,,,,,,,,,,,,,,,,,,,,,,,,,,,,,,,,,,,,,,,,,,,,,,,,
0,13,13,89,1,,60fd3d9e7434801d922cd2e0,62c53a9a394159e382b487d0,2022-07-06_19h33.03.974,Colour_Asymmetry_Pilot,2022.1.3,Win32,143.8641922,62c50e9c1127f2cd403a315f,,,,,,,,,,,,,,,,,,,,,,,,,,,,,,,,,,,,,,,,,,,,,,,,,,,,,,,,,,,,,,,,,,,,,,,,,,,,,,,,,,,,,,,,,,,,,,,,,,,,,,,,,,,,,,,,,,,,,,,,,,,,,,,,,,,,,,,,,,,,,,,,,,,,,,,,,,,,,,,,,,,
0,14,14,79,1,,60fd3d9e7434801d922cd2e0,62c53a9a394159e382b487d0,2022-07-06_19h33.03.974,Colour_Asymmetry_Pilot,2022.1.3,Win32,143.8641922,62c50e9c1127f2cd403a315f,,,,,,,,,,,,,,,,,,,,,,,,,,,,,,,,,,,,,,,,,,,,,,,,,,,,,,,,,,,,,,,,,,,,,,,,,,,,,,,,,,,,,,,,,,,,,,,,,,,,,,,,,,,,,,,,,,,,,,,,,,,,,,,,,,,,,,,,,,,,,,,,,,,,,,,,,,,,,,,,,,,
0,15,15,73,1,,60fd3d9e7434801d922cd2e0,62c53a9a394159e382b487d0,2022-07-06_19h33.03.974,Colour_Asymmetry_Pilot,2022.1.3,Win32,143.8641922,62c50e9c1127f2cd403a315f,,,,,,,,,,,,,,,,,,,,,,,,,,,,,,,,,,,,,,,,,,,,,,,,,,,,,,,,,,,,,,,,,,,,,,,,,,,,,,,,,,,,,,,,,,,,,,,,,,,,,,,,,,,,,,,,,,,,,,,,,,,,,,,,,,,,,,,,,,,,,,,,,,,,,,,,,,,,,,,,,,,
0,16,16,71,1,,60fd3d9e7434801d922cd2e0,62c53a9a394159e382b487d0,2022-07-06_19h33.03.974,Colour_Asymmetry_Pilot,2022.1.3,Win32,143.8641922,62c50e9c1127f2cd403a315f,,,,,,,,,,,,,,,,,,,,,,,,,,,,,,,,,,,,,,,,,,,,,,,,,,,,,,,,,,,,,,,,,,,,,,,,,,,,,,,,,,,,,,,,,,,,,,,,,,,,,,,,,,,,,,,,,,,,,,,,,,,,,,,,,,,,,,,,,,,,,,,,,,,,,,,,,,,,,,,,,,,
0,17,17,51,1,,60fd3d9e7434801d922cd2e0,62c53a9a394159e382b487d0,2022-07-06_19h33.03.974,Colour_Asymmetry_Pilot,2022.1.3,Win32,143.8641922,62c50e9c1127f2cd403a315f,,,,,,,,,,,,,,,,,,,,,,,,,,,,,,,,,,,,,,,,,,,,,,,,,,,,,,,,,,,,,,,,,,,,,,,,,,,,,,,,,,,,,,,,,,,,,,,,,,,,,,,,,,,,,,,,,,,,,,,,,,,,,,,,,,,,,,,,,,,,,,,,,,,,,,,,,,,,,,,,,,,
0,18,18,12,1,,60fd3d9e7434801d922cd2e0,62c53a9a394159e382b487d0,2022-07-06_19h33.03.974,Colour_Asymmetry_Pilot,2022.1.3,Win32,143.8641922,62c50e9c1127f2cd403a315f,,,,,,,,,,,,,,,,,,,,,,,,,,,,,,,,,,,,,,,,,,,,,,,,,,,,,,,,,,,,,,,,,,,,,,,,,,,,,,,,,,,,,,,,,,,,,,,,,,,,,,,,,,,,,,,,,,,,,,,,,,,,,,,,,,,,,,,,,,,,,,,,,,,,,,,,,,,,,,,,,,,
0,19,19,92,1,,60fd3d9e7434801d922cd2e0,62c53a9a394159e382b487d0,2022-07-06_19h33.03.974,Colour_Asymmetry_Pilot,2022.1.3,Win32,143.8641922,62c50e9c1127f2cd403a315f,,,,,,,,,,,,,,,,,,,,,,,,,,,,,,,,,,,,,,,,,,,,,,,,,,,,,,,,,,,,,,,,,,,,,,,,,,,,,,,,,,,,,,,,,,,,,,,,,,,,,,,,,,,,,,,,,,,,,,,,,,,,,,,,,,,,,,,,,,,,,,,,,,,,,,,,,,,,,,,,,,,
0,20,20,1,1,,60fd3d9e7434801d922cd2e0,62c53a9a394159e382b487d0,2022-07-06_19h33.03.974,Colour_Asymmetry_Pilot,2022.1.3,Win32,143.8641922,62c50e9c1127f2cd403a315f,,,,,,,,,,,,,,,,,,,,,,,,,,,,,,,,,,,,,,,,,,,,,,,,,,,,,,,,,,,,,,,,,,,,,,,,,,,,,,,,,,,,,,,,,,,,,,,,,,,,,,,,,,,,,,,,,,,,,,,,,,,,,,,,,,,,,,,,,,,,,,,,,,,,,,,,,,,,,,,,,,,
0,21,21,84,1,,60fd3d9e7434801d922cd2e0,62c53a9a394159e382b487d0,2022-07-06_19h33.03.974,Colour_Asymmetry_Pilot,2022.1.3,Win32,143.8641922,62c50e9c1127f2cd403a315f,,,,,,,,,,,,,,,,,,,,,,,,,,,,,,,,,,,,,,,,,,,,,,,,,,,,,,,,,,,,,,,,,,,,,,,,,,,,,,,,,,,,,,,,,,,,,,,,,,,,,,,,,,,,,,,,,,,,,,,,,,,,,,,,,,,,,,,,,,,,,,,,,,,,,,,,,,,,,,,,,,,
0,22,22,14,1,,60fd3d9e7434801d922cd2e0,62c53a9a394159e382b487d0,2022-07-06_19h33.03.974,Colour_Asymmetry_Pilot,2022.1.3,Win32,143.8641922,62c50e9c1127f2cd403a315f,,,,,,,,,,,,,,,,,,,,,,,,,,,,,,,,,,,,,,,,,,,,,,,,,,,,,,,,,,,,,,,,,,,,,,,,,,,,,,,,,,,,,,,,,,,,,,,,,,,,,,,,,,,,,,,,,,,,,,,,,,,,,,,,,,,,,,,,,,,,,,,,,,,,,,,,,,,,,,,,,,,
0,23,23,59,1,,60fd3d9e7434801d922cd2e0,62c53a9a394159e382b487d0,2022-07-06_19h33.03.974,Colour_Asymmetry_Pilot,2022.1.3,Win32,143.8641922,62c50e9c1127f2cd403a315f,,,,,,,,,,,,,,,,,,,,,,,,,,,,,,,,,,,,,,,,,,,,,,,,,,,,,,,,,,,,,,,,,,,,,,,,,,,,,,,,,,,,,,,,,,,,,,,,,,,,,,,,,,,,,,,,,,,,,,,,,,,,,,,,,,,,,,,,,,,,,,,,,,,,,,,,,,,,,,,,,,,
0,24,24,39,1,,60fd3d9e7434801d922cd2e0,62c53a9a394159e382b487d0,2022-07-06_19h33.03.974,Colour_Asymmetry_Pilot,2022.1.3,Win32,143.8641922,62c50e9c1127f2cd403a315f,,,,,,,,,,,,,,,,,,,,,,,,,,,,,,,,,,,,,,,,,,,,,,,,,,,,,,,,,,,,,,,,,,,,,,,,,,,,,,,,,,,,,,,,,,,,,,,,,,,,,,,,,,,,,,,,,,,,,,,,,,,,,,,,,,,,,,,,,,,,,,,,,,,,,,,,,,,,,,,,,,,
0,25,25,3,1,,60fd3d9e7434801d922cd2e0,62c53a9a394159e382b487d0,2022-07-06_19h33.03.974,Colour_Asymmetry_Pilot,2022.1.3,Win32,143.8641922,62c50e9c1127f2cd403a315f,,,,,,,,,,,,,,,,,,,,,,,,,,,,,,,,,,,,,,,,,,,,,,,,,,,,,,,,,,,,,,,,,,,,,,,,,,,,,,,,,,,,,,,,,,,,,,,,,,,,,,,,,,,,,,,,,,,,,,,,,,,,,,,,,,,,,,,,,,,,,,,,,,,,,,,,,,,,,,,,,,,
0,26,26,86,1,,60fd3d9e7434801d922cd2e0,62c53a9a394159e382b487d0,2022-07-06_19h33.03.974,Colour_Asymmetry_Pilot,2022.1.3,Win32,143.8641922,62c50e9c1127f2cd403a315f,,,,,,,,,,,,,,,,,,,,,,,,,,,,,,,,,,,,,,,,,,,,,,,,,,,,,,,,,,,,,,,,,,,,,,,,,,,,,,,,,,,,,,,,,,,,,,,,,,,,,,,,,,,,,,,,,,,,,,,,,,,,,,,,,,,,,,,,,,,,,,,,,,,,,,,,,,,,,,,,,,,
0,27,27,68,1,,60fd3d9e7434801d922cd2e0,62c53a9a394159e382b487d0,2022-07-06_19h33.03.974,Colour_Asymmetry_Pilot,2022.1.3,Win32,143.8641922,62c50e9c1127f2cd403a315f,,,,,,,,,,,,,,,,,,,,,,,,,,,,,,,,,,,,,,,,,,,,,,,,,,,,,,,,,,,,,,,,,,,,,,,,,,,,,,,,,,,,,,,,,,,,,,,,,,,,,,,,,,,,,,,,,,,,,,,,,,,,,,,,,,,,,,,,,,,,,,,,,,,,,,,,,,,,,,,,,,,
0,28,28,9,1,,60fd3d9e7434801d922cd2e0,62c53a9a394159e382b487d0,2022-07-06_19h33.03.974,Colour_Asymmetry_Pilot,2022.1.3,Win32,143.8641922,62c50e9c1127f2cd403a315f,,,,,,,,,,,,,,,,,,,,,,,,,,,,,,,,,,,,,,,,,,,,,,,,,,,,,,,,,,,,,,,,,,,,,,,,,,,,,,,,,,,,,,,,,,,,,,,,,,,,,,,,,,,,,,,,,,,,,,,,,,,,,,,,,,,,,,,,,,,,,,,,,,,,,,,,,,,,,,,,,,,
0,29,29,32,1,,60fd3d9e7434801d922cd2e0,62c53a9a394159e382b487d0,2022-07-06_19h33.03.974,Colour_Asymmetry_Pilot,2022.1.3,Win32,143.8641922,62c50e9c1127f2cd403a315f,,,,,,,,,,,,,,,,,,,,,,,,,,,,,,,,,,,,,,,,,,,,,,,,,,,,,,,,,,,,,,,,,,,,,,,,,,,,,,,,,,,,,,,,,,,,,,,,,,,,,,,,,,,,,,,,,,,,,,,,,,,,,,,,,,,,,,,,,,,,,,,,,,,,,,,,,,,,,,,,,,,
0,30,30,27,1,,60fd3d9e7434801d922cd2e0,62c53a9a394159e382b487d0,2022-07-06_19h33.03.974,Colour_Asymmetry_Pilot,2022.1.3,Win32,143.8641922,62c50e9c1127f2cd403a315f,,,,,,,,,,,,,,,,,,,,,,,,,,,,,,,,,,,,,,,,,,,,,,,,,,,,,,,,,,,,,,,,,,,,,,,,,,,,,,,,,,,,,,,,,,,,,,,,,,,,,,,,,,,,,,,,,,,,,,,,,,,,,,,,,,,,,,,,,,,,,,,,,,,,,,,,,,,,,,,,,,,
0,31,31,52,1,,60fd3d9e7434801d922cd2e0,62c53a9a394159e382b487d0,2022-07-06_19h33.03.974,Colour_Asymmetry_Pilot,2022.1.3,Win32,143.8641922,62c50e9c1127f2cd403a315f,,,,,,,,,,,,,,,,,,,,,,,,,,,,,,,,,,,,,,,,,,,,,,,,,,,,,,,,,,,,,,,,,,,,,,,,,,,,,,,,,,,,,,,,,,,,,,,,,,,,,,,,,,,,,,,,,,,,,,,,,,,,,,,,,,,,,,,,,,,,,,,,,,,,,,,,,,,,,,,,,,,
0,32,32,21,1,,60fd3d9e7434801d922cd2e0,62c53a9a394159e382b487d0,2022-07-06_19h33.03.974,Colour_Asymmetry_Pilot,2022.1.3,Win32,143.8641922,62c50e9c1127f2cd403a315f,,,,,,,,,,,,,,,,,,,,,,,,,,,,,,,,,,,,,,,,,,,,,,,,,,,,,,,,,,,,,,,,,,,,,,,,,,,,,,,,,,,,,,,,,,,,,,,,,,,,,,,,,,,,,,,,,,,,,,,,,,,,,,,,,,,,,,,,,,,,,,,,,,,,,,,,,,,,,,,,,,,
0,33,33,75,1,,60fd3d9e7434801d922cd2e0,62c53a9a394159e382b487d0,2022-07-06_19h33.03.974,Colour_Asymmetry_Pilot,2022.1.3,Win32,143.8641922,62c50e9c1127f2cd403a315f,,,,,,,,,,,,,,,,,,,,,,,,,,,,,,,,,,,,,,,,,,,,,,,,,,,,,,,,,,,,,,,,,,,,,,,,,,,,,,,,,,,,,,,,,,,,,,,,,,,,,,,,,,,,,,,,,,,,,,,,,,,,,,,,,,,,,,,,,,,,,,,,,,,,,,,,,,,,,,,,,,,
0,34,34,70,1,,60fd3d9e7434801d922cd2e0,62c53a9a394159e382b487d0,2022-07-06_19h33.03.974,Colour_Asymmetry_Pilot,2022.1.3,Win32,143.8641922,62c50e9c1127f2cd403a315f,,,,,,,,,,,,,,,,,,,,,,,,,,,,,,,,,,,,,,,,,,,,,,,,,,,,,,,,,,,,,,,,,,,,,,,,,,,,,,,,,,,,,,,,,,,,,,,,,,,,,,,,,,,,,,,,,,,,,,,,,,,,,,,,,,,,,,,,,,,,,,,,,,,,,,,,,,,,,,,,,,,
0,35,35,23,1,,60fd3d9e7434801d922cd2e0,62c53a9a394159e382b487d0,2022-07-06_19h33.03.974,Colour_Asymmetry_Pilot,2022.1.3,Win32,143.8641922,62c50e9c1127f2cd403a315f,,,,,,,,,,,,,,,,,,,,,,,,,,,,,,,,,,,,,,,,,,,,,,,,,,,,,,,,,,,,,,,,,,,,,,,,,,,,,,,,,,,,,,,,,,,,,,,,,,,,,,,,,,,,,,,,,,,,,,,,,,,,,,,,,,,,,,,,,,,,,,,,,,,,,,,,,,,,,,,,,,,
0,36,36,56,1,,60fd3d9e7434801d922cd2e0,62c53a9a394159e382b487d0,2022-07-06_19h33.03.974,Colour_Asymmetry_Pilot,2022.1.3,Win32,143.8641922,62c50e9c1127f2cd403a315f,,,,,,,,,,,,,,,,,,,,,,,,,,,,,,,,,,,,,,,,,,,,,,,,,,,,,,,,,,,,,,,,,,,,,,,,,,,,,,,,,,,,,,,,,,,,,,,,,,,,,,,,,,,,,,,,,,,,,,,,,,,,,,,,,,,,,,,,,,,,,,,,,,,,,,,,,,,,,,,,,,,
0,37,37,24,1,,60fd3d9e7434801d922cd2e0,62c53a9a394159e382b487d0,2022-07-06_19h33.03.974,Colour_Asymmetry_Pilot,2022.1.3,Win32,143.8641922,62c50e9c1127f2cd403a315f,,,,,,,,,,,,,,,,,,,,,,,,,,,,,,,,,,,,,,,,,,,,,,,,,,,,,,,,,,,,,,,,,,,,,,,,,,,,,,,,,,,,,,,,,,,,,,,,,,,,,,,,,,,,,,,,,,,,,,,,,,,,,,,,,,,,,,,,,,,,,,,,,,,,,,,,,,,,,,,,,,,
0,38,38,67,1,,60fd3d9e7434801d922cd2e0,62c53a9a394159e382b487d0,2022-07-06_19h33.03.974,Colour_Asymmetry_Pilot,2022.1.3,Win32,143.8641922,62c50e9c1127f2cd403a315f,,,,,,,,,,,,,,,,,,,,,,,,,,,,,,,,,,,,,,,,,,,,,,,,,,,,,,,,,,,,,,,,,,,,,,,,,,,,,,,,,,,,,,,,,,,,,,,,,,,,,,,,,,,,,,,,,,,,,,,,,,,,,,,,,,,,,,,,,,,,,,,,,,,,,,,,,,,,,,,,,,,
0,39,39,10,1,,60fd3d9e7434801d922cd2e0,62c53a9a394159e382b487d0,2022-07-06_19h33.03.974,Colour_Asymmetry_Pilot,2022.1.3,Win32,143.8641922,62c50e9c1127f2cd403a315f,,,,,,,,,,,,,,,,,,,,,,,,,,,,,,,,,,,,,,,,,,,,,,,,,,,,,,,,,,,,,,,,,,,,,,,,,,,,,,,,,,,,,,,,,,,,,,,,,,,,,,,,,,,,,,,,,,,,,,,,,,,,,,,,,,,,,,,,,,,,,,,,,,,,,,,,,,,,,,,,,,,
0,40,40,44,1,,60fd3d9e7434801d922cd2e0,62c53a9a394159e382b487d0,2022-07-06_19h33.03.974,Colour_Asymmetry_Pilot,2022.1.3,Win32,143.8641922,62c50e9c1127f2cd403a315f,,,,,,,,,,,,,,,,,,,,,,,,,,,,,,,,,,,,,,,,,,,,,,,,,,,,,,,,,,,,,,,,,,,,,,,,,,,,,,,,,,,,,,,,,,,,,,,,,,,,,,,,,,,,,,,,,,,,,,,,,,,,,,,,,,,,,,,,,,,,,,,,,,,,,,,,,,,,,,,,,,,
0,41,41,40,1,,60fd3d9e7434801d922cd2e0,62c53a9a394159e382b487d0,2022-07-06_19h33.03.974,Colour_Asymmetry_Pilot,2022.1.3,Win32,143.8641922,62c50e9c1127f2cd403a315f,,,,,,,,,,,,,,,,,,,,,,,,,,,,,,,,,,,,,,,,,,,,,,,,,,,,,,,,,,,,,,,,,,,,,,,,,,,,,,,,,,,,,,,,,,,,,,,,,,,,,,,,,,,,,,,,,,,,,,,,,,,,,,,,,,,,,,,,,,,,,,,,,,,,,,,,,,,,,,,,,,,
0,42,42,83,1,,60fd3d9e7434801d922cd2e0,62c53a9a394159e382b487d0,2022-07-06_19h33.03.974,Colour_Asymmetry_Pilot,2022.1.3,Win32,143.8641922,62c50e9c1127f2cd403a315f,,,,,,,,,,,,,,,,,,,,,,,,,,,,,,,,,,,,,,,,,,,,,,,,,,,,,,,,,,,,,,,,,,,,,,,,,,,,,,,,,,,,,,,,,,,,,,,,,,,,,,,,,,,,,,,,,,,,,,,,,,,,,,,,,,,,,,,,,,,,,,,,,,,,,,,,,,,,,,,,,,,
0,43,43,15,1,,60fd3d9e7434801d922cd2e0,62c53a9a394159e382b487d0,2022-07-06_19h33.03.974,Colour_Asymmetry_Pilot,2022.1.3,Win32,143.8641922,62c50e9c1127f2cd403a315f,,,,,,,,,,,,,,,,,,,,,,,,,,,,,,,,,,,,,,,,,,,,,,,,,,,,,,,,,,,,,,,,,,,,,,,,,,,,,,,,,,,,,,,,,,,,,,,,,,,,,,,,,,,,,,,,,,,,,,,,,,,,,,,,,,,,,,,,,,,,,,,,,,,,,,,,,,,,,,,,,,,
0,44,44,26,1,,60fd3d9e7434801d922cd2e0,62c53a9a394159e382b487d0,2022-07-06_19h33.03.974,Colour_Asymmetry_Pilot,2022.1.3,Win32,143.8641922,62c50e9c1127f2cd403a315f,,,,,,,,,,,,,,,,,,,,,,,,,,,,,,,,,,,,,,,,,,,,,,,,,,,,,,,,,,,,,,,,,,,,,,,,,,,,,,,,,,,,,,,,,,,,,,,,,,,,,,,,,,,,,,,,,,,,,,,,,,,,,,,,,,,,,,,,,,,,,,,,,,,,,,,,,,,,,,,,,,,
0,45,45,19,1,,60fd3d9e7434801d922cd2e0,62c53a9a394159e382b487d0,2022-07-06_19h33.03.974,Colour_Asymmetry_Pilot,2022.1.3,Win32,143.8641922,62c50e9c1127f2cd403a315f,,,,,,,,,,,,,,,,,,,,,,,,,,,,,,,,,,,,,,,,,,,,,,,,,,,,,,,,,,,,,,,,,,,,,,,,,,,,,,,,,,,,,,,,,,,,,,,,,,,,,,,,,,,,,,,,,,,,,,,,,,,,,,,,,,,,,,,,,,,,,,,,,,,,,,,,,,,,,,,,,,,
0,46,46,72,1,,60fd3d9e7434801d922cd2e0,62c53a9a394159e382b487d0,2022-07-06_19h33.03.974,Colour_Asymmetry_Pilot,2022.1.3,Win32,143.8641922,62c50e9c1127f2cd403a315f,,,,,,,,,,,,,,,,,,,,,,,,,,,,,,,,,,,,,,,,,,,,,,,,,,,,,,,,,,,,,,,,,,,,,,,,,,,,,,,,,,,,,,,,,,,,,,,,,,,,,,,,,,,,,,,,,,,,,,,,,,,,,,,,,,,,,,,,,,,,,,,,,,,,,,,,,,,,,,,,,,,
0,47,47,88,1,,60fd3d9e7434801d922cd2e0,62c53a9a394159e382b487d0,2022-07-06_19h33.03.974,Colour_Asymmetry_Pilot,2022.1.3,Win32,143.8641922,62c50e9c1127f2cd403a315f,,,,,,,,,,,,,,,,,,,,,,,,,,,,,,,,,,,,,,,,,,,,,,,,,,,,,,,,,,,,,,,,,,,,,,,,,,,,,,,,,,,,,,,,,,,,,,,,,,,,,,,,,,,,,,,,,,,,,,,,,,,,,,,,,,,,,,,,,,,,,,,,,,,,,,,,,,,,,,,,,,,
0,48,48,50,1,,60fd3d9e7434801d922cd2e0,62c53a9a394159e382b487d0,2022-07-06_19h33.03.974,Colour_Asymmetry_Pilot,2022.1.3,Win32,143.8641922,62c50e9c1127f2cd403a315f,,,,,,,,,,,,,,,,,,,,,,,,,,,,,,,,,,,,,,,,,,,,,,,,,,,,,,,,,,,,,,,,,,,,,,,,,,,,,,,,,,,,,,,,,,,,,,,,,,,,,,,,,,,,,,,,,,,,,,,,,,,,,,,,,,,,,,,,,,,,,,,,,,,,,,,,,,,,,,,,,,,
0,49,49,11,1,,60fd3d9e7434801d922cd2e0,62c53a9a394159e382b487d0,2022-07-06_19h33.03.974,Colour_Asymmetry_Pilot,2022.1.3,Win32,143.8641922,62c50e9c1127f2cd403a315f,,,,,,,,,,,,,,,,,,,,,,,,,,,,,,,,,,,,,,,,,,,,,,,,,,,,,,,,,,,,,,,,,,,,,,,,,,,,,,,,,,,,,,,,,,,,,,,,,,,,,,,,,,,,,,,,,,,,,,,,,,,,,,,,,,,,,,,,,,,,,,,,,,,,,,,,,,,,,,,,,,,
0,50,50,4,1,,60fd3d9e7434801d922cd2e0,62c53a9a394159e382b487d0,2022-07-06_19h33.03.974,Colour_Asymmetry_Pilot,2022.1.3,Win32,143.8641922,62c50e9c1127f2cd403a315f,,,,,,,,,,,,,,,,,,,,,,,,,,,,,,,,,,,,,,,,,,,,,,,,,,,,,,,,,,,,,,,,,,,,,,,,,,,,,,,,,,,,,,,,,,,,,,,,,,,,,,,,,,,,,,,,,,,,,,,,,,,,,,,,,,,,,,,,,,,,,,,,,,,,,,,,,,,,,,,,,,,
0,51,51,77,1,,60fd3d9e7434801d922cd2e0,62c53a9a394159e382b487d0,2022-07-06_19h33.03.974,Colour_Asymmetry_Pilot,2022.1.3,Win32,143.8641922,62c50e9c1127f2cd403a315f,,,,,,,,,,,,,,,,,,,,,,,,,,,,,,,,,,,,,,,,,,,,,,,,,,,,,,,,,,,,,,,,,,,,,,,,,,,,,,,,,,,,,,,,,,,,,,,,,,,,,,,,,,,,,,,,,,,,,,,,,,,,,,,,,,,,,,,,,,,,,,,,,,,,,,,,,,,,,,,,,,,
0,52,52,34,1,,60fd3d9e7434801d922cd2e0,62c53a9a394159e382b487d0,2022-07-06_19h33.03.974,Colour_Asymmetry_Pilot,2022.1.3,Win32,143.8641922,62c50e9c1127f2cd403a315f,,,,,,,,,,,,,,,,,,,,,,,,,,,,,,,,,,,,,,,,,,,,,,,,,,,,,,,,,,,,,,,,,,,,,,,,,,,,,,,,,,,,,,,,,,,,,,,,,,,,,,,,,,,,,,,,,,,,,,,,,,,,,,,,,,,,,,,,,,,,,,,,,,,,,,,,,,,,,,,,,,,
0,53,53,37,1,,60fd3d9e7434801d922cd2e0,62c53a9a394159e382b487d0,2022-07-06_19h33.03.974,Colour_Asymmetry_Pilot,2022.1.3,Win32,143.8641922,62c50e9c1127f2cd403a315f,,,,,,,,,,,,,,,,,,,,,,,,,,,,,,,,,,,,,,,,,,,,,,,,,,,,,,,,,,,,,,,,,,,,,,,,,,,,,,,,,,,,,,,,,,,,,,,,,,,,,,,,,,,,,,,,,,,,,,,,,,,,,,,,,,,,,,,,,,,,,,,,,,,,,,,,,,,,,,,,,,,
0,54,54,6,1,,60fd3d9e7434801d922cd2e0,62c53a9a394159e382b487d0,2022-07-06_19h33.03.974,Colour_Asymmetry_Pilot,2022.1.3,Win32,143.8641922,62c50e9c1127f2cd403a315f,,,,,,,,,,,,,,,,,,,,,,,,,,,,,,,,,,,,,,,,,,,,,,,,,,,,,,,,,,,,,,,,,,,,,,,,,,,,,,,,,,,,,,,,,,,,,,,,,,,,,,,,,,,,,,,,,,,,,,,,,,,,,,,,,,,,,,,,,,,,,,,,,,,,,,,,,,,,,,,,,,,
0,55,55,45,1,,60fd3d9e7434801d922cd2e0,62c53a9a394159e382b487d0,2022-07-06_19h33.03.974,Colour_Asymmetry_Pilot,2022.1.3,Win32,143.8641922,62c50e9c1127f2cd403a315f,,,,,,,,,,,,,,,,,,,,,,,,,,,,,,,,,,,,,,,,,,,,,,,,,,,,,,,,,,,,,,,,,,,,,,,,,,,,,,,,,,,,,,,,,,,,,,,,,,,,,,,,,,,,,,,,,,,,,,,,,,,,,,,,,,,,,,,,,,,,,,,,,,,,,,,,,,,,,,,,,,,
0,56,56,57,1,,60fd3d9e7434801d922cd2e0,62c53a9a394159e382b487d0,2022-07-06_19h33.03.974,Colour_Asymmetry_Pilot,2022.1.3,Win32,143.8641922,62c50e9c1127f2cd403a315f,,,,,,,,,,,,,,,,,,,,,,,,,,,,,,,,,,,,,,,,,,,,,,,,,,,,,,,,,,,,,,,,,,,,,,,,,,,,,,,,,,,,,,,,,,,,,,,,,,,,,,,,,,,,,,,,,,,,,,,,,,,,,,,,,,,,,,,,,,,,,,,,,,,,,,,,,,,,,,,,,,,
0,57,57,25,1,,60fd3d9e7434801d922cd2e0,62c53a9a394159e382b487d0,2022-07-06_19h33.03.974,Colour_Asymmetry_Pilot,2022.1.3,Win32,143.8641922,62c50e9c1127f2cd403a315f,,,,,,,,,,,,,,,,,,,,,,,,,,,,,,,,,,,,,,,,,,,,,,,,,,,,,,,,,,,,,,,,,,,,,,,,,,,,,,,,,,,,,,,,,,,,,,,,,,,,,,,,,,,,,,,,,,,,,,,,,,,,,,,,,,,,,,,,,,,,,,,,,,,,,,,,,,,,,,,,,,,
0,58,58,64,1,,60fd3d9e7434801d922cd2e0,62c53a9a394159e382b487d0,2022-07-06_19h33.03.974,Colour_Asymmetry_Pilot,2022.1.3,Win32,143.8641922,62c50e9c1127f2cd403a315f,,,,,,,,,,,,,,,,,,,,,,,,,,,,,,,,,,,,,,,,,,,,,,,,,,,,,,,,,,,,,,,,,,,,,,,,,,,,,,,,,,,,,,,,,,,,,,,,,,,,,,,,,,,,,,,,,,,,,,,,,,,,,,,,,,,,,,,,,,,,,,,,,,,,,,,,,,,,,,,,,,,
0,59,59,66,1,,60fd3d9e7434801d922cd2e0,62c53a9a394159e382b487d0,2022-07-06_19h33.03.974,Colour_Asymmetry_Pilot,2022.1.3,Win32,143.8641922,62c50e9c1127f2cd403a315f,,,,,,,,,,,,,,,,,,,,,,,,,,,,,,,,,,,,,,,,,,,,,,,,,,,,,,,,,,,,,,,,,,,,,,,,,,,,,,,,,,,,,,,,,,,,,,,,,,,,,,,,,,,,,,,,,,,,,,,,,,,,,,,,,,,,,,,,,,,,,,,,,,,,,,,,,,,,,,,,,,,
0,60,60,13,1,,60fd3d9e7434801d922cd2e0,62c53a9a394159e382b487d0,2022-07-06_19h33.03.974,Colour_Asymmetry_Pilot,2022.1.3,Win32,143.8641922,62c50e9c1127f2cd403a315f,,,,,,,,,,,,,,,,,,,,,,,,,,,,,,,,,,,,,,,,,,,,,,,,,,,,,,,,,,,,,,,,,,,,,,,,,,,,,,,,,,,,,,,,,,,,,,,,,,,,,,,,,,,,,,,,,,,,,,,,,,,,,,,,,,,,,,,,,,,,,,,,,,,,,,,,,,,,,,,,,,,
0,61,61,74,1,,60fd3d9e7434801d922cd2e0,62c53a9a394159e382b487d0,2022-07-06_19h33.03.974,Colour_Asymmetry_Pilot,2022.1.3,Win32,143.8641922,62c50e9c1127f2cd403a315f,,,,,,,,,,,,,,,,,,,,,,,,,,,,,,,,,,,,,,,,,,,,,,,,,,,,,,,,,,,,,,,,,,,,,,,,,,,,,,,,,,,,,,,,,,,,,,,,,,,,,,,,,,,,,,,,,,,,,,,,,,,,,,,,,,,,,,,,,,,,,,,,,,,,,,,,,,,,,,,,,,,
0,62,62,46,1,,60fd3d9e7434801d922cd2e0,62c53a9a394159e382b487d0,2022-07-06_19h33.03.974,Colour_Asymmetry_Pilot,2022.1.3,Win32,143.8641922,62c50e9c1127f2cd403a315f,,,,,,,,,,,,,,,,,,,,,,,,,,,,,,,,,,,,,,,,,,,,,,,,,,,,,,,,,,,,,,,,,,,,,,,,,,,,,,,,,,,,,,,,,,,,,,,,,,,,,,,,,,,,,,,,,,,,,,,,,,,,,,,,,,,,,,,,,,,,,,,,,,,,,,,,,,,,,,,,,,,
0,63,63,0,1,,60fd3d9e7434801d922cd2e0,62c53a9a394159e382b487d0,2022-07-06_19h33.03.974,Colour_Asymmetry_Pilot,2022.1.3,Win32,143.8641922,62c50e9c1127f2cd403a315f,,,,,,,,,,,,,,,,,,,,,,,,,,,,,,,,,,,,,,,,,,,,,,,,,,,,,,,,,,,,,,,,,,,,,,,,,,,,,,,,,,,,,,,,,,,,,,,,,,,,,,,,,,,,,,,,,,,,,,,,,,,,,,,,,,,,,,,,,,,,,,,,,,,,,,,,,,,,,,,,,,,
0,64,64,91,1,,60fd3d9e7434801d922cd2e0,62c53a9a394159e382b487d0,2022-07-06_19h33.03.974,Colour_Asymmetry_Pilot,2022.1.3,Win32,143.8641922,62c50e9c1127f2cd403a315f,,,,,,,,,,,,,,,,,,,,,,,,,,,,,,,,,,,,,,,,,,,,,,,,,,,,,,,,,,,,,,,,,,,,,,,,,,,,,,,,,,,,,,,,,,,,,,,,,,,,,,,,,,,,,,,,,,,,,,,,,,,,,,,,,,,,,,,,,,,,,,,,,,,,,,,,,,,,,,,,,,,
0,65,65,30,1,,60fd3d9e7434801d922cd2e0,62c53a9a394159e382b487d0,2022-07-06_19h33.03.974,Colour_Asymmetry_Pilot,2022.1.3,Win32,143.8641922,62c50e9c1127f2cd403a315f,,,,,,,,,,,,,,,,,,,,,,,,,,,,,,,,,,,,,,,,,,,,,,,,,,,,,,,,,,,,,,,,,,,,,,,,,,,,,,,,,,,,,,,,,,,,,,,,,,,,,,,,,,,,,,,,,,,,,,,,,,,,,,,,,,,,,,,,,,,,,,,,,,,,,,,,,,,,,,,,,,,
0,66,66,61,1,,60fd3d9e7434801d922cd2e0,62c53a9a394159e382b487d0,2022-07-06_19h33.03.974,Colour_Asymmetry_Pilot,2022.1.3,Win32,143.8641922,62c50e9c1127f2cd403a315f,,,,,,,,,,,,,,,,,,,,,,,,,,,,,,,,,,,,,,,,,,,,,,,,,,,,,,,,,,,,,,,,,,,,,,,,,,,,,,,,,,,,,,,,,,,,,,,,,,,,,,,,,,,,,,,,,,,,,,,,,,,,,,,,,,,,,,,,,,,,,,,,,,,,,,,,,,,,,,,,,,,
0,67,67,17,1,,60fd3d9e7434801d922cd2e0,62c53a9a394159e382b487d0,2022-07-06_19h33.03.974,Colour_Asymmetry_Pilot,2022.1.3,Win32,143.8641922,62c50e9c1127f2cd403a315f,,,,,,,,,,,,,,,,,,,,,,,,,,,,,,,,,,,,,,,,,,,,,,,,,,,,,,,,,,,,,,,,,,,,,,,,,,,,,,,,,,,,,,,,,,,,,,,,,,,,,,,,,,,,,,,,,,,,,,,,,,,,,,,,,,,,,,,,,,,,,,,,,,,,,,,,,,,,,,,,,,,
0,68,68,58,1,,60fd3d9e7434801d922cd2e0,62c53a9a394159e382b487d0,2022-07-06_19h33.03.974,Colour_Asymmetry_Pilot,2022.1.3,Win32,143.8641922,62c50e9c1127f2cd403a315f,,,,,,,,,,,,,,,,,,,,,,,,,,,,,,,,,,,,,,,,,,,,,,,,,,,,,,,,,,,,,,,,,,,,,,,,,,,,,,,,,,,,,,,,,,,,,,,,,,,,,,,,,,,,,,,,,,,,,,,,,,,,,,,,,,,,,,,,,,,,,,,,,,,,,,,,,,,,,,,,,,,
0,69,69,41,1,,60fd3d9e7434801d922cd2e0,62c53a9a394159e382b487d0,2022-07-06_19h33.03.974,Colour_Asymmetry_Pilot,2022.1.3,Win32,143.8641922,62c50e9c1127f2cd403a315f,,,,,,,,,,,,,,,,,,,,,,,,,,,,,,,,,,,,,,,,,,,,,,,,,,,,,,,,,,,,,,,,,,,,,,,,,,,,,,,,,,,,,,,,,,,,,,,,,,,,,,,,,,,,,,,,,,,,,,,,,,,,,,,,,,,,,,,,,,,,,,,,,,,,,,,,,,,,,,,,,,,
0,70,70,69,1,,60fd3d9e7434801d922cd2e0,62c53a9a394159e382b487d0,2022-07-06_19h33.03.974,Colour_Asymmetry_Pilot,2022.1.3,Win32,143.8641922,62c50e9c1127f2cd403a315f,,,,,,,,,,,,,,,,,,,,,,,,,,,,,,,,,,,,,,,,,,,,,,,,,,,,,,,,,,,,,,,,,,,,,,,,,,,,,,,,,,,,,,,,,,,,,,,,,,,,,,,,,,,,,,,,,,,,,,,,,,,,,,,,,,,,,,,,,,,,,,,,,,,,,,,,,,,,,,,,,,,
0,71,71,2,1,,60fd3d9e7434801d922cd2e0,62c53a9a394159e382b487d0,2022-07-06_19h33.03.974,Colour_Asymmetry_Pilot,2022.1.3,Win32,143.8641922,62c50e9c1127f2cd403a315f,,,,,,,,,,,,,,,,,,,,,,,,,,,,,,,,,,,,,,,,,,,,,,,,,,,,,,,,,,,,,,,,,,,,,,,,,,,,,,,,,,,,,,,,,,,,,,,,,,,,,,,,,,,,,,,,,,,,,,,,,,,,,,,,,,,,,,,,,,,,,,,,,,,,,,,,,,,,,,,,,,,
0,72,72,38,1,,60fd3d9e7434801d922cd2e0,62c53a9a394159e382b487d0,2022-07-06_19h33.03.974,Colour_Asymmetry_Pilot,2022.1.3,Win32,143.8641922,62c50e9c1127f2cd403a315f,,,,,,,,,,,,,,,,,,,,,,,,,,,,,,,,,,,,,,,,,,,,,,,,,,,,,,,,,,,,,,,,,,,,,,,,,,,,,,,,,,,,,,,,,,,,,,,,,,,,,,,,,,,,,,,,,,,,,,,,,,,,,,,,,,,,,,,,,,,,,,,,,,,,,,,,,,,,,,,,,,,
0,73,73,28,1,,60fd3d9e7434801d922cd2e0,62c53a9a394159e382b487d0,2022-07-06_19h33.03.974,Colour_Asymmetry_Pilot,2022.1.3,Win32,143.8641922,62c50e9c1127f2cd403a315f,,,,,,,,,,,,,,,,,,,,,,,,,,,,,,,,,,,,,,,,,,,,,,,,,,,,,,,,,,,,,,,,,,,,,,,,,,,,,,,,,,,,,,,,,,,,,,,,,,,,,,,,,,,,,,,,,,,,,,,,,,,,,,,,,,,,,,,,,,,,,,,,,,,,,,,,,,,,,,,,,,,
0,74,74,33,1,,60fd3d9e7434801d922cd2e0,62c53a9a394159e382b487d0,2022-07-06_19h33.03.974,Colour_Asymmetry_Pilot,2022.1.3,Win32,143.8641922,62c50e9c1127f2cd403a315f,,,,,,,,,,,,,,,,,,,,,,,,,,,,,,,,,,,,,,,,,,,,,,,,,,,,,,,,,,,,,,,,,,,,,,,,,,,,,,,,,,,,,,,,,,,,,,,,,,,,,,,,,,,,,,,,,,,,,,,,,,,,,,,,,,,,,,,,,,,,,,,,,,,,,,,,,,,,,,,,,,,
0,75,75,22,1,,60fd3d9e7434801d922cd2e0,62c53a9a394159e382b487d0,2022-07-06_19h33.03.974,Colour_Asymmetry_Pilot,2022.1.3,Win32,143.8641922,62c50e9c1127f2cd403a315f,,,,,,,,,,,,,,,,,,,,,,,,,,,,,,,,,,,,,,,,,,,,,,,,,,,,,,,,,,,,,,,,,,,,,,,,,,,,,,,,,,,,,,,,,,,,,,,,,,,,,,,,,,,,,,,,,,,,,,,,,,,,,,,,,,,,,,,,,,,,,,,,,,,,,,,,,,,,,,,,,,,
0,76,76,65,1,,60fd3d9e7434801d922cd2e0,62c53a9a394159e382b487d0,2022-07-06_19h33.03.974,Colour_Asymmetry_Pilot,2022.1.3,Win32,143.8641922,62c50e9c1127f2cd403a315f,,,,,,,,,,,,,,,,,,,,,,,,,,,,,,,,,,,,,,,,,,,,,,,,,,,,,,,,,,,,,,,,,,,,,,,,,,,,,,,,,,,,,,,,,,,,,,,,,,,,,,,,,,,,,,,,,,,,,,,,,,,,,,,,,,,,,,,,,,,,,,,,,,,,,,,,,,,,,,,,,,,
0,77,77,55,1,,60fd3d9e7434801d922cd2e0,62c53a9a394159e382b487d0,2022-07-06_19h33.03.974,Colour_Asymmetry_Pilot,2022.1.3,Win32,143.8641922,62c50e9c1127f2cd403a315f,,,,,,,,,,,,,,,,,,,,,,,,,,,,,,,,,,,,,,,,,,,,,,,,,,,,,,,,,,,,,,,,,,,,,,,,,,,,,,,,,,,,,,,,,,,,,,,,,,,,,,,,,,,,,,,,,,,,,,,,,,,,,,,,,,,,,,,,,,,,,,,,,,,,,,,,,,,,,,,,,,,
0,78,78,82,1,,60fd3d9e7434801d922cd2e0,62c53a9a394159e382b487d0,2022-07-06_19h33.03.974,Colour_Asymmetry_Pilot,2022.1.3,Win32,143.8641922,62c50e9c1127f2cd403a315f,,,,,,,,,,,,,,,,,,,,,,,,,,,,,,,,,,,,,,,,,,,,,,,,,,,,,,,,,,,,,,,,,,,,,,,,,,,,,,,,,,,,,,,,,,,,,,,,,,,,,,,,,,,,,,,,,,,,,,,,,,,,,,,,,,,,,,,,,,,,,,,,,,,,,,,,,,,,,,,,,,,
0,79,79,76,1,,60fd3d9e7434801d922cd2e0,62c53a9a394159e382b487d0,2022-07-06_19h33.03.974,Colour_Asymmetry_Pilot,2022.1.3,Win32,143.8641922,62c50e9c1127f2cd403a315f,,,,,,,,,,,,,,,,,,,,,,,,,,,,,,,,,,,,,,,,,,,,,,,,,,,,,,,,,,,,,,,,,,,,,,,,,,,,,,,,,,,,,,,,,,,,,,,,,,,,,,,,,,,,,,,,,,,,,,,,,,,,,,,,,,,,,,,,,,,,,,,,,,,,,,,,,,,,,,,,,,,
0,80,80,29,1,,60fd3d9e7434801d922cd2e0,62c53a9a394159e382b487d0,2022-07-06_19h33.03.974,Colour_Asymmetry_Pilot,2022.1.3,Win32,143.8641922,62c50e9c1127f2cd403a315f,,,,,,,,,,,,,,,,,,,,,,,,,,,,,,,,,,,,,,,,,,,,,,,,,,,,,,,,,,,,,,,,,,,,,,,,,,,,,,,,,,,,,,,,,,,,,,,,,,,,,,,,,,,,,,,,,,,,,,,,,,,,,,,,,,,,,,,,,,,,,,,,,,,,,,,,,,,,,,,,,,,
0,81,81,80,1,,60fd3d9e7434801d922cd2e0,62c53a9a394159e382b487d0,2022-07-06_19h33.03.974,Colour_Asymmetry_Pilot,2022.1.3,Win32,143.8641922,62c50e9c1127f2cd403a315f,,,,,,,,,,,,,,,,,,,,,,,,,,,,,,,,,,,,,,,,,,,,,,,,,,,,,,,,,,,,,,,,,,,,,,,,,,,,,,,,,,,,,,,,,,,,,,,,,,,,,,,,,,,,,,,,,,,,,,,,,,,,,,,,,,,,,,,,,,,,,,,,,,,,,,,,,,,,,,,,,,,
0,82,82,36,1,,60fd3d9e7434801d922cd2e0,62c53a9a394159e382b487d0,2022-07-06_19h33.03.974,Colour_Asymmetry_Pilot,2022.1.3,Win32,143.8641922,62c50e9c1127f2cd403a315f,,,,,,,,,,,,,,,,,,,,,,,,,,,,,,,,,,,,,,,,,,,,,,,,,,,,,,,,,,,,,,,,,,,,,,,,,,,,,,,,,,,,,,,,,,,,,,,,,,,,,,,,,,,,,,,,,,,,,,,,,,,,,,,,,,,,,,,,,,,,,,,,,,,,,,,,,,,,,,,,,,,
0,83,83,42,1,,60fd3d9e7434801d922cd2e0,62c53a9a394159e382b487d0,2022-07-06_19h33.03.974,Colour_Asymmetry_Pilot,2022.1.3,Win32,143.8641922,62c50e9c1127f2cd403a315f,,,,,,,,,,,,,,,,,,,,,,,,,,,,,,,,,,,,,,,,,,,,,,,,,,,,,,,,,,,,,,,,,,,,,,,,,,,,,,,,,,,,,,,,,,,,,,,,,,,,,,,,,,,,,,,,,,,,,,,,,,,,,,,,,,,,,,,,,,,,,,,,,,,,,,,,,,,,,,,,,,,
0,84,84,60,1,,60fd3d9e7434801d922cd2e0,62c53a9a394159e382b487d0,2022-07-06_19h33.03.974,Colour_Asymmetry_Pilot,2022.1.3,Win32,143.8641922,62c50e9c1127f2cd403a315f,,,,,,,,,,,,,,,,,,,,,,,,,,,,,,,,,,,,,,,,,,,,,,,,,,,,,,,,,,,,,,,,,,,,,,,,,,,,,,,,,,,,,,,,,,,,,,,,,,,,,,,,,,,,,,,,,,,,,,,,,,,,,,,,,,,,,,,,,,,,,,,,,,,,,,,,,,,,,,,,,,,
0,85,85,90,1,,60fd3d9e7434801d922cd2e0,62c53a9a394159e382b487d0,2022-07-06_19h33.03.974,Colour_Asymmetry_Pilot,2022.1.3,Win32,143.8641922,62c50e9c1127f2cd403a315f,,,,,,,,,,,,,,,,,,,,,,,,,,,,,,,,,,,,,,,,,,,,,,,,,,,,,,,,,,,,,,,,,,,,,,,,,,,,,,,,,,,,,,,,,,,,,,,,,,,,,,,,,,,,,,,,,,,,,,,,,,,,,,,,,,,,,,,,,,,,,,,,,,,,,,,,,,,,,,,,,,,
0,86,86,35,1,,60fd3d9e7434801d922cd2e0,62c53a9a394159e382b487d0,2022-07-06_19h33.03.974,Colour_Asymmetry_Pilot,2022.1.3,Win32,143.8641922,62c50e9c1127f2cd403a315f,,,,,,,,,,,,,,,,,,,,,,,,,,,,,,,,,,,,,,,,,,,,,,,,,,,,,,,,,,,,,,,,,,,,,,,,,,,,,,,,,,,,,,,,,,,,,,,,,,,,,,,,,,,,,,,,,,,,,,,,,,,,,,,,,,,,,,,,,,,,,,,,,,,,,,,,,,,,,,,,,,,
0,87,87,8,1,,60fd3d9e7434801d922cd2e0,62c53a9a394159e382b487d0,2022-07-06_19h33.03.974,Colour_Asymmetry_Pilot,2022.1.3,Win32,143.8641922,62c50e9c1127f2cd403a315f,,,,,,,,,,,,,,,,,,,,,,,,,,,,,,,,,,,,,,,,,,,,,,,,,,,,,,,,,,,,,,,,,,,,,,,,,,,,,,,,,,,,,,,,,,,,,,,,,,,,,,,,,,,,,,,,,,,,,,,,,,,,,,,,,,,,,,,,,,,,,,,,,,,,,,,,,,,,,,,,,,,
0,88,88,62,1,,60fd3d9e7434801d922cd2e0,62c53a9a394159e382b487d0,2022-07-06_19h33.03.974,Colour_Asymmetry_Pilot,2022.1.3,Win32,143.8641922,62c50e9c1127f2cd403a315f,,,,,,,,,,,,,,,,,,,,,,,,,,,,,,,,,,,,,,,,,,,,,,,,,,,,,,,,,,,,,,,,,,,,,,,,,,,,,,,,,,,,,,,,,,,,,,,,,,,,,,,,,,,,,,,,,,,,,,,,,,,,,,,,,,,,,,,,,,,,,,,,,,,,,,,,,,,,,,,,,,,
0,89,89,85,1,,60fd3d9e7434801d922cd2e0,62c53a9a394159e382b487d0,2022-07-06_19h33.03.974,Colour_Asymmetry_Pilot,2022.1.3,Win32,143.8641922,62c50e9c1127f2cd403a315f,,,,,,,,,,,,,,,,,,,,,,,,,,,,,,,,,,,,,,,,,,,,,,,,,,,,,,,,,,,,,,,,,,,,,,,,,,,,,,,,,,,,,,,,,,,,,,,,,,,,,,,,,,,,,,,,,,,,,,,,,,,,,,,,,,,,,,,,,,,,,,,,,,,,,,,,,,,,,,,,,,,
0,90,90,87,1,,60fd3d9e7434801d922cd2e0,62c53a9a394159e382b487d0,2022-07-06_19h33.03.974,Colour_Asymmetry_Pilot,2022.1.3,Win32,143.8641922,62c50e9c1127f2cd403a315f,,,,,,,,,,,,,,,,,,,,,,,,,,,,,,,,,,,,,,,,,,,,,,,,,,,,,,,,,,,,,,,,,,,,,,,,,,,,,,,,,,,,,,,,,,,,,,,,,,,,,,,,,,,,,,,,,,,,,,,,,,,,,,,,,,,,,,,,,,,,,,,,,,,,,,,,,,,,,,,,,,,
0,91,91,43,1,,60fd3d9e7434801d922cd2e0,62c53a9a394159e382b487d0,2022-07-06_19h33.03.974,Colour_Asymmetry_Pilot,2022.1.3,Win32,143.8641922,62c50e9c1127f2cd403a315f,,,,,,,,,,,,,,,,,,,,,,,,,,,,,,,,,,,,,,,,,,,,,,,,,,,,,,,,,,,,,,,,,,,,,,,,,,,,,,,,,,,,,,,,,,,,,,,,,,,,,,,,,,,,,,,,,,,,,,,,,,,,,,,,,,,,,,,,,,,,,,,,,,,,,,,,,,,,,,,,,,,
0,92,92,53,1,,60fd3d9e7434801d922cd2e0,62c53a9a394159e382b487d0,2022-07-06_19h33.03.974,Colour_Asymmetry_Pilot,2022.1.3,Win32,143.8641922,62c50e9c1127f2cd403a315f,,,,,,,,,,,,,,,,,,,,,,,,,,,,,,,,,,,,,,,,,,,,,,,,,,,,,,,,,,,,,,,,,,,,,,,,,,,,,,,,,,,,,,,,,,,,,,,,,,,,,,,,,,,,,,,,,,,,,,,,,,,,,,,,,,,,,,,,,,,,,,,,,,,,,,,,,,,,,,,,,,,
,,,,,,60fd3d9e7434801d922cd2e0,62c53a9a394159e382b487d0,2022-07-06_19h33.03.974,Colour_Asymmetry_Pilot,2022.1.3,Win32,143.8641922,62c50e9c1127f2cd403a315f,0,0,0,20,1,threeone,,,,,,,,,,,,,,,,,,,,,,,,,,,,,,,,,,,,,,,,,,,,,,,,,,,,,,,,,,,,,,,,,,,,,,,,,,,,,,,,,,,,,,,,,,,,,,,,,,,,,,,,,,,,,,,,,,,,,,,,,,,,,,,,,,,,,,,,,,,,,,,,,,,,,,,,,,,,,
,,,,,,60fd3d9e7434801d922cd2e0,62c53a9a394159e382b487d0,2022-07-06_19h33.03.974,Colour_Asymmetry_Pilot,2022.1.3,Win32,143.8641922,62c50e9c1127f2cd403a315f,0,1,1,67,1,twofour,,,,,,,,,,,,,,,,,,,,,,,,,,,,,,,,,,,,,,,,,,,,,,,,,,,,,,,,,,,,,,,,,,,,,,,,,,,,,,,,,,,,,,,,,,,,,,,,,,,,,,,,,,,,,,,,,,,,,,,,,,,,,,,,,,,,,,,,,,,,,,,,,,,,,,,,,,,,,
,,,,,,60fd3d9e7434801d922cd2e0,62c53a9a394159e382b487d0,2022-07-06_19h33.03.974,Colour_Asymmetry_Pilot,2022.1.3,Win32,143.8641922,62c50e9c1127f2cd403a315f,0,2,2,128,1,onetwo,,,,,,,,,,,,,,,,,,,,,,,,,,,,,,,,,,,,,,,,,,,,,,,,,,,,,,,,,,,,,,,,,,,,,,,,,,,,,,,,,,,,,,,,,,,,,,,,,,,,,,,,,,,,,,,,,,,,,,,,,,,,,,,,,,,,,,,,,,,,,,,,,,,,,,,,,,,,,
,,,,,,60fd3d9e7434801d922cd2e0,62c53a9a394159e382b487d0,2022-07-06_19h33.03.974,Colour_Asymmetry_Pilot,2022.1.3,Win32,143.8641922,62c50e9c1127f2cd403a315f,0,3,3,145,1,onethree,,,,,,,,,,,,,,,,,,,,,,,,,,,,,,,,,,,,,,,,,,,,,,,,,,,,,,,,,,,,,,,,,,,,,,,,,,,,,,,,,,,,,,,,,,,,,,,,,,,,,,,,,,,,,,,,,,,,,,,,,,,,,,,,,,,,,,,,,,,,,,,,,,,,,,,,,,,,,
,,,,,,60fd3d9e7434801d922cd2e0,62c53a9a394159e382b487d0,2022-07-06_19h33.03.974,Colour_Asymmetry_Pilot,2022.1.3,Win32,143.8641922,62c50e9c1127f2cd403a315f,0,4,4,161,1,onethree,,,,,,,,,,,,,,,,,,,,,,,,,,,,,,,,,,,,,,,,,,,,,,,,,,,,,,,,,,,,,,,,,,,,,,,,,,,,,,,,,,,,,,,,,,,,,,,,,,,,,,,,,,,,,,,,,,,,,,,,,,,,,,,,,,,,,,,,,,,,,,,,,,,,,,,,,,,,,
,,,,,,60fd3d9e7434801d922cd2e0,62c53a9a394159e382b487d0,2022-07-06_19h33.03.974,Colour_Asymmetry_Pilot,2022.1.3,Win32,143.8641922,62c50e9c1127f2cd403a315f,0,5,5,95,1,fourthree,,,,,,,,,,,,,,,,,,,,,,,,,,,,,,,,,,,,,,,,,,,,,,,,,,,,,,,,,,,,,,,,,,,,,,,,,,,,,,,,,,,,,,,,,,,,,,,,,,,,,,,,,,,,,,,,,,,,,,,,,,,,,,,,,,,,,,,,,,,,,,,,,,,,,,,,,,,,,
,,,,,,60fd3d9e7434801d922cd2e0,62c53a9a394159e382b487d0,2022-07-06_19h33.03.974,Colour_Asymmetry_Pilot,2022.1.3,Win32,143.8641922,62c50e9c1127f2cd403a315f,0,6,6,138,1,twoone,,,,,,,,,,,,,,,,,,,,,,,,,,,,,,,,,,,,,,,,,,,,,,,,,,,,,,,,,,,,,,,,,,,,,,,,,,,,,,,,,,,,,,,,,,,,,,,,,,,,,,,,,,,,,,,,,,,,,,,,,,,,,,,,,,,,,,,,,,,,,,,,,,,,,,,,,,,,,
,,,,,,60fd3d9e7434801d922cd2e0,62c53a9a394159e382b487d0,2022-07-06_19h33.03.974,Colour_Asymmetry_Pilot,2022.1.3,Win32,143.8641922,62c50e9c1127f2cd403a315f,0,7,7,159,1,fourthree,,,,,,,,,,,,,,,,,,,,,,,,,,,,,,,,,,,,,,,,,,,,,,,,,,,,,,,,,,,,,,,,,,,,,,,,,,,,,,,,,,,,,,,,,,,,,,,,,,,,,,,,,,,,,,,,,,,,,,,,,,,,,,,,,,,,,,,,,,,,,,,,,,,,,,,,,,,,,
,,,,,,60fd3d9e7434801d922cd2e0,62c53a9a394159e382b487d0,2022-07-06_19h33.03.974,Colour_Asymmetry_Pilot,2022.1.3,Win32,143.8641922,62c50e9c1127f2cd403a315f,0,8,8,50,1,twoone,,,,,,,,,,,,,,,,,,,,,,,,,,,,,,,,,,,,,,,,,,,,,,,,,,,,,,,,,,,,,,,,,,,,,,,,,,,,,,,,,,,,,,,,,,,,,,,,,,,,,,,,,,,,,,,,,,,,,,,,,,,,,,,,,,,,,,,,,,,,,,,,,,,,,,,,,,,,,
,,,,,,60fd3d9e7434801d922cd2e0,62c53a9a394159e382b487d0,2022-07-06_19h33.03.974,Colour_Asymmetry_Pilot,2022.1.3,Win32,143.8641922,62c50e9c1127f2cd403a315f,0,9,9,49,1,onethree,,,,,,,,,,,,,,,,,,,,,,,,,,,,,,,,,,,,,,,,,,,,,,,,,,,,,,,,,,,,,,,,,,,,,,,,,,,,,,,,,,,,,,,,,,,,,,,,,,,,,,,,,,,,,,,,,,,,,,,,,,,,,,,,,,,,,,,,,,,,,,,,,,,,,,,,,,,,,
,,,,,,60fd3d9e7434801d922cd2e0,62c53a9a394159e382b487d0,2022-07-06_19h33.03.974,Colour_Asymmetry_Pilot,2022.1.3,Win32,143.8641922,62c50e9c1127f2cd403a315f,0,10,10,26,1,twoone,,,,,,,,,,,,,,,,,,,,,,,,,,,,,,,,,,,,,,,,,,,,,,,,,,,,,,,,,,,,,,,,,,,,,,,,,,,,,,,,,,,,,,,,,,,,,,,,,,,,,,,,,,,,,,,,,,,,,,,,,,,,,,,,,,,,,,,,,,,,,,,,,,,,,,,,,,,,,
,,,,,,60fd3d9e7434801d922cd2e0,62c53a9a394159e382b487d0,2022-07-06_19h33.03.974,Colour_Asymmetry_Pilot,2022.1.3,Win32,143.8641922,62c50e9c1127f2cd403a315f,0,11,11,1,1,onethree,,,,,,,,,,,,,,,,,,,,,,,,,,,,,,,,,,,,,,,,,,,,,,,,,,,,,,,,,,,,,,,,,,,,,,,,,,,,,,,,,,,,,,,,,,,,,,,,,,,,,,,,,,,,,,,,,,,,,,,,,,,,,,,,,,,,,,,,,,,,,,,,,,,,,,,,,,,,,
,,,,,,60fd3d9e7434801d922cd2e0,62c53a9a394159e382b487d0,2022-07-06_19h33.03.974,Colour_Asymmetry_Pilot,2022.1.3,Win32,143.8641922,62c50e9c1127f2cd403a315f,0,12,12,102,1,fourtwo,,,,,,,,,,,,,,,,,,,,,,,,,,,,,,,,,,,,,,,,,,,,,,,,,,,,,,,,,,,,,,,,,,,,,,,,,,,,,,,,,,,,,,,,,,,,,,,,,,,,,,,,,,,,,,,,,,,,,,,,,,,,,,,,,,,,,,,,,,,,,,,,,,,,,,,,,,,,,
,,,,,,60fd3d9e7434801d922cd2e0,62c53a9a394159e382b487d0,2022-07-06_19h33.03.974,Colour_Asymmetry_Pilot,2022.1.3,Win32,143.8641922,62c50e9c1127f2cd403a315f,0,13,13,158,1,fourtwo,,,,,,,,,,,,,,,,,,,,,,,,,,,,,,,,,,,,,,,,,,,,,,,,,,,,,,,,,,,,,,,,,,,,,,,,,,,,,,,,,,,,,,,,,,,,,,,,,,,,,,,,,,,,,,,,,,,,,,,,,,,,,,,,,,,,,,,,,,,,,,,,,,,,,,,,,,,,,
,,,,,,60fd3d9e7434801d922cd2e0,62c53a9a394159e382b487d0,2022-07-06_19h33.03.974,Colour_Asymmetry_Pilot,2022.1.3,Win32,143.8641922,62c50e9c1127f2cd403a315f,0,14,14,82,1,twoone,,,,,,,,,,,,,,,,,,,,,,,,,,,,,,,,,,,,,,,,,,,,,,,,,,,,,,,,,,,,,,,,,,,,,,,,,,,,,,,,,,,,,,,,,,,,,,,,,,,,,,,,,,,,,,,,,,,,,,,,,,,,,,,,,,,,,,,,,,,,,,,,,,,,,,,,,,,,,
,,,,,,60fd3d9e7434801d922cd2e0,62c53a9a394159e382b487d0,2022-07-06_19h33.03.974,Colour_Asymmetry_Pilot,2022.1.3,Win32,143.8641922,62c50e9c1127f2cd403a315f,0,15,15,11,1,twofour,,,,,,,,,,,,,,,,,,,,,,,,,,,,,,,,,,,,,,,,,,,,,,,,,,,,,,,,,,,,,,,,,,,,,,,,,,,,,,,,,,,,,,,,,,,,,,,,,,,,,,,,,,,,,,,,,,,,,,,,,,,,,,,,,,,,,,,,,,,,,,,,,,,,,,,,,,,,,
,,,,,,60fd3d9e7434801d922cd2e0,62c53a9a394159e382b487d0,2022-07-06_19h33.03.974,Colour_Asymmetry_Pilot,2022.1.3,Win32,143.8641922,62c50e9c1127f2cd403a315f,0,16,16,68,1,threeone,,,,,,,,,,,,,,,,,,,,,,,,,,,,,,,,,,,,,,,,,,,,,,,,,,,,,,,,,,,,,,,,,,,,,,,,,,,,,,,,,,,,,,,,,,,,,,,,,,,,,,,,,,,,,,,,,,,,,,,,,,,,,,,,,,,,,,,,,,,,,,,,,,,,,,,,,,,,,
,,,,,,60fd3d9e7434801d922cd2e0,62c53a9a394159e382b487d0,2022-07-06_19h33.03.974,Colour_Asymmetry_Pilot,2022.1.3,Win32,143.8641922,62c50e9c1127f2cd403a315f,0,17,17,38,1,fourtwo,,,,,,,,,,,,,,,,,,,,,,,,,,,,,,,,,,,,,,,,,,,,,,,,,,,,,,,,,,,,,,,,,,,,,,,,,,,,,,,,,,,,,,,,,,,,,,,,,,,,,,,,,,,,,,,,,,,,,,,,,,,,,,,,,,,,,,,,,,,,,,,,,,,,,,,,,,,,,
,,,,,,60fd3d9e7434801d922cd2e0,62c53a9a394159e382b487d0,2022-07-06_19h33.03.974,Colour_Asymmetry_Pilot,2022.1.3,Win32,143.8641922,62c50e9c1127f2cd403a315f,0,18,18,140,1,threeone,,,,,,,,,,,,,,,,,,,,,,,,,,,,,,,,,,,,,,,,,,,,,,,,,,,,,,,,,,,,,,,,,,,,,,,,,,,,,,,,,,,,,,,,,,,,,,,,,,,,,,,,,,,,,,,,,,,,,,,,,,,,,,,,,,,,,,,,,,,,,,,,,,,,,,,,,,,,,
,,,,,,60fd3d9e7434801d922cd2e0,62c53a9a394159e382b487d0,2022-07-06_19h33.03.974,Colour_Asymmetry_Pilot,2022.1.3,Win32,143.8641922,62c50e9c1127f2cd403a315f,0,19,19,75,1,twofour,,,,,,,,,,,,,,,,,,,,,,,,,,,,,,,,,,,,,,,,,,,,,,,,,,,,,,,,,,,,,,,,,,,,,,,,,,,,,,,,,,,,,,,,,,,,,,,,,,,,,,,,,,,,,,,,,,,,,,,,,,,,,,,,,,,,,,,,,,,,,,,,,,,,,,,,,,,,,
,,,,,,60fd3d9e7434801d922cd2e0,62c53a9a394159e382b487d0,2022-07-06_19h33.03.974,Colour_Asymmetry_Pilot,2022.1.3,Win32,143.8641922,62c50e9c1127f2cd403a315f,0,20,20,53,1,threefour,,,,,,,,,,,,,,,,,,,,,,,,,,,,,,,,,,,,,,,,,,,,,,,,,,,,,,,,,,,,,,,,,,,,,,,,,,,,,,,,,,,,,,,,,,,,,,,,,,,,,,,,,,,,,,,,,,,,,,,,,,,,,,,,,,,,,,,,,,,,,,,,,,,,,,,,,,,,,
,,,,,,60fd3d9e7434801d922cd2e0,62c53a9a394159e382b487d0,2022-07-06_19h33.03.974,Colour_Asymmetry_Pilot,2022.1.3,Win32,143.8641922,62c50e9c1127f2cd403a315f,0,21,21,96,1,onetwo,,,,,,,,,,,,,,,,,,,,,,,,,,,,,,,,,,,,,,,,,,,,,,,,,,,,,,,,,,,,,,,,,,,,,,,,,,,,,,,,,,,,,,,,,,,,,,,,,,,,,,,,,,,,,,,,,,,,,,,,,,,,,,,,,,,,,,,,,,,,,,,,,,,,,,,,,,,,,
,,,,,,60fd3d9e7434801d922cd2e0,62c53a9a394159e382b487d0,2022-07-06_19h33.03.974,Colour_Asymmetry_Pilot,2022.1.3,Win32,143.8641922,62c50e9c1127f2cd403a315f,0,22,22,5,1,threefour,,,,,,,,,,,,,,,,,,,,,,,,,,,,,,,,,,,,,,,,,,,,,,,,,,,,,,,,,,,,,,,,,,,,,,,,,,,,,,,,,,,,,,,,,,,,,,,,,,,,,,,,,,,,,,,,,,,,,,,,,,,,,,,,,,,,,,,,,,,,,,,,,,,,,,,,,,,,,
,,,,,,60fd3d9e7434801d922cd2e0,62c53a9a394159e382b487d0,2022-07-06_19h33.03.974,Colour_Asymmetry_Pilot,2022.1.3,Win32,143.8641922,62c50e9c1127f2cd403a315f,0,23,23,52,1,threeone,,,,,,,,,,,,,,,,,,,,,,,,,,,,,,,,,,,,,,,,,,,,,,,,,,,,,,,,,,,,,,,,,,,,,,,,,,,,,,,,,,,,,,,,,,,,,,,,,,,,,,,,,,,,,,,,,,,,,,,,,,,,,,,,,,,,,,,,,,,,,,,,,,,,,,,,,,,,,
,,,,,,60fd3d9e7434801d922cd2e0,62c53a9a394159e382b487d0,2022-07-06_19h33.03.974,Colour_Asymmetry_Pilot,2022.1.3,Win32,143.8641922,62c50e9c1127f2cd403a315f,0,24,24,73,1,onethree,,,,,,,,,,,,,,,,,,,,,,,,,,,,,,,,,,,,,,,,,,,,,,,,,,,,,,,,,,,,,,,,,,,,,,,,,,,,,,,,,,,,,,,,,,,,,,,,,,,,,,,,,,,,,,,,,,,,,,,,,,,,,,,,,,,,,,,,,,,,,,,,,,,,,,,,,,,,,
,,,,,,60fd3d9e7434801d922cd2e0,62c53a9a394159e382b487d0,2022-07-06_19h33.03.974,Colour_Asymmetry_Pilot,2022.1.3,Win32,143.8641922,62c50e9c1127f2cd403a315f,0,25,25,22,1,fourtwo,,,,,,,,,,,,,,,,,,,,,,,,,,,,,,,,,,,,,,,,,,,,,,,,,,,,,,,,,,,,,,,,,,,,,,,,,,,,,,,,,,,,,,,,,,,,,,,,,,,,,,,,,,,,,,,,,,,,,,,,,,,,,,,,,,,,,,,,,,,,,,,,,,,,,,,,,,,,,
,,,,,,60fd3d9e7434801d922cd2e0,62c53a9a394159e382b487d0,2022-07-06_19h33.03.974,Colour_Asymmetry_Pilot,2022.1.3,Win32,143.8641922,62c50e9c1127f2cd403a315f,0,26,26,127,1,fourthree,,,,,,,,,,,,,,,,,,,,,,,,,,,,,,,,,,,,,,,,,,,,,,,,,,,,,,,,,,,,,,,,,,,,,,,,,,,,,,,,,,,,,,,,,,,,,,,,,,,,,,,,,,,,,,,,,,,,,,,,,,,,,,,,,,,,,,,,,,,,,,,,,,,,,,,,,,,,,
,,,,,,60fd3d9e7434801d922cd2e0,62c53a9a394159e382b487d0,2022-07-06_19h33.03.974,Colour_Asymmetry_Pilot,2022.1.3,Win32,143.8641922,62c50e9c1127f2cd403a315f,0,27,27,71,1,fourthree,,,,,,,,,,,,,,,,,,,,,,,,,,,,,,,,,,,,,,,,,,,,,,,,,,,,,,,,,,,,,,,,,,,,,,,,,,,,,,,,,,,,,,,,,,,,,,,,,,,,,,,,,,,,,,,,,,,,,,,,,,,,,,,,,,,,,,,,,,,,,,,,,,,,,,,,,,,,,
,,,,,,60fd3d9e7434801d922cd2e0,62c53a9a394159e382b487d0,2022-07-06_19h33.03.974,Colour_Asymmetry_Pilot,2022.1.3,Win32,143.8641922,62c50e9c1127f2cd403a315f,0,28,28,149,1,threefour,,,,,,,,,,,,,,,,,,,,,,,,,,,,,,,,,,,,,,,,,,,,,,,,,,,,,,,,,,,,,,,,,,,,,,,,,,,,,,,,,,,,,,,,,,,,,,,,,,,,,,,,,,,,,,,,,,,,,,,,,,,,,,,,,,,,,,,,,,,,,,,,,,,,,,,,,,,,,
,,,,,,60fd3d9e7434801d922cd2e0,62c53a9a394159e382b487d0,2022-07-06_19h33.03.974,Colour_Asymmetry_Pilot,2022.1.3,Win32,143.8641922,62c50e9c1127f2cd403a315f,0,29,29,147,1,twofour,,,,,,,,,,,,,,,,,,,,,,,,,,,,,,,,,,,,,,,,,,,,,,,,,,,,,,,,,,,,,,,,,,,,,,,,,,,,,,,,,,,,,,,,,,,,,,,,,,,,,,,,,,,,,,,,,,,,,,,,,,,,,,,,,,,,,,,,,,,,,,,,,,,,,,,,,,,,,
,,,,,,60fd3d9e7434801d922cd2e0,62c53a9a394159e382b487d0,2022-07-06_19h33.03.974,Colour_Asymmetry_Pilot,2022.1.3,Win32,143.8641922,62c50e9c1127f2cd403a315f,0,30,30,131,1,twofour,,,,,,,,,,,,,,,,,,,,,,,,,,,,,,,,,,,,,,,,,,,,,,,,,,,,,,,,,,,,,,,,,,,,,,,,,,,,,,,,,,,,,,,,,,,,,,,,,,,,,,,,,,,,,,,,,,,,,,,,,,,,,,,,,,,,,,,,,,,,,,,,,,,,,,,,,,,,,
,,,,,,60fd3d9e7434801d922cd2e0,62c53a9a394159e382b487d0,2022-07-06_19h33.03.974,Colour_Asymmetry_Pilot,2022.1.3,Win32,143.8641922,62c50e9c1127f2cd403a315f,0,31,31,27,1,twofour,,,,,,,,,,,,,,,,,,,,,,,,,,,,,,,,,,,,,,,,,,,,,,,,,,,,,,,,,,,,,,,,,,,,,,,,,,,,,,,,,,,,,,,,,,,,,,,,,,,,,,,,,,,,,,,,,,,,,,,,,,,,,,,,,,,,,,,,,,,,,,,,,,,,,,,,,,,,,
,,,,,,60fd3d9e7434801d922cd2e0,62c53a9a394159e382b487d0,2022-07-06_19h33.03.974,Colour_Asymmetry_Pilot,2022.1.3,Win32,143.8641922,62c50e9c1127f2cd403a315f,0,32,32,24,1,onetwo,,,,,,,,,,,,,,,,,,,,,,,,,,,,,,,,,,,,,,,,,,,,,,,,,,,,,,,,,,,,,,,,,,,,,,,,,,,,,,,,,,,,,,,,,,,,,,,,,,,,,,,,,,,,,,,,,,,,,,,,,,,,,,,,,,,,,,,,,,,,,,,,,,,,,,,,,,,,,
,,,,,,60fd3d9e7434801d922cd2e0,62c53a9a394159e382b487d0,2022-07-06_19h33.03.974,Colour_Asymmetry_Pilot,2022.1.3,Win32,143.8641922,62c50e9c1127f2cd403a315f,0,33,33,66,1,twoone,,,,,,,,,,,,,,,,,,,,,,,,,,,,,,,,,,,,,,,,,,,,,,,,,,,,,,,,,,,,,,,,,,,,,,,,,,,,,,,,,,,,,,,,,,,,,,,,,,,,,,,,,,,,,,,,,,,,,,,,,,,,,,,,,,,,,,,,,,,,,,,,,,,,,,,,,,,,,
,,,,,,60fd3d9e7434801d922cd2e0,62c53a9a394159e382b487d0,2022-07-06_19h33.03.974,Colour_Asymmetry_Pilot,2022.1.3,Win32,143.8641922,62c50e9c1127f2cd403a315f,0,34,34,55,1,fourthree,,,,,,,,,,,,,,,,,,,,,,,,,,,,,,,,,,,,,,,,,,,,,,,,,,,,,,,,,,,,,,,,,,,,,,,,,,,,,,,,,,,,,,,,,,,,,,,,,,,,,,,,,,,,,,,,,,,,,,,,,,,,,,,,,,,,,,,,,,,,,,,,,,,,,,,,,,,,,
,,,,,,60fd3d9e7434801d922cd2e0,62c53a9a394159e382b487d0,2022-07-06_19h33.03.974,Colour_Asymmetry_Pilot,2022.1.3,Win32,143.8641922,62c50e9c1127f2cd403a315f,0,35,35,39,1,fourthree,,,,,,,,,,,,,,,,,,,,,,,,,,,,,,,,,,,,,,,,,,,,,,,,,,,,,,,,,,,,,,,,,,,,,,,,,,,,,,,,,,,,,,,,,,,,,,,,,,,,,,,,,,,,,,,,,,,,,,,,,,,,,,,,,,,,,,,,,,,,,,,,,,,,,,,,,,,,,
,,,,,,60fd3d9e7434801d922cd2e0,62c53a9a394159e382b487d0,2022-07-06_19h33.03.974,Colour_Asymmetry_Pilot,2022.1.3,Win32,143.8641922,62c50e9c1127f2cd403a315f,0,36,36,157,1,threefour,,,,,,,,,,,,,,,,,,,,,,,,,,,,,,,,,,,,,,,,,,,,,,,,,,,,,,,,,,,,,,,,,,,,,,,,,,,,,,,,,,,,,,,,,,,,,,,,,,,,,,,,,,,,,,,,,,,,,,,,,,,,,,,,,,,,,,,,,,,,,,,,,,,,,,,,,,,,,
,,,,,,60fd3d9e7434801d922cd2e0,62c53a9a394159e382b487d0,2022-07-06_19h33.03.974,Colour_Asymmetry_Pilot,2022.1.3,Win32,143.8641922,62c50e9c1127f2cd403a315f,0,37,37,45,1,threefour,,,,,,,,,,,,,,,,,,,,,,,,,,,,,,,,,,,,,,,,,,,,,,,,,,,,,,,,,,,,,,,,,,,,,,,,,,,,,,,,,,,,,,,,,,,,,,,,,,,,,,,,,,,,,,,,,,,,,,,,,,,,,,,,,,,,,,,,,,,,,,,,,,,,,,,,,,,,,
,,,,,,60fd3d9e7434801d922cd2e0,62c53a9a394159e382b487d0,2022-07-06_19h33.03.974,Colour_Asymmetry_Pilot,2022.1.3,Win32,143.8641922,62c50e9c1127f2cd403a315f,0,38,38,156,1,threeone,,,,,,,,,,,,,,,,,,,,,,,,,,,,,,,,,,,,,,,,,,,,,,,,,,,,,,,,,,,,,,,,,,,,,,,,,,,,,,,,,,,,,,,,,,,,,,,,,,,,,,,,,,,,,,,,,,,,,,,,,,,,,,,,,,,,,,,,,,,,,,,,,,,,,,,,,,,,,
,,,,,,60fd3d9e7434801d922cd2e0,62c53a9a394159e382b487d0,2022-07-06_19h33.03.974,Colour_Asymmetry_Pilot,2022.1.3,Win32,143.8641922,62c50e9c1127f2cd403a315f,0,39,39,59,1,twofour,,,,,,,,,,,,,,,,,,,,,,,,,,,,,,,,,,,,,,,,,,,,,,,,,,,,,,,,,,,,,,,,,,,,,,,,,,,,,,,,,,,,,,,,,,,,,,,,,,,,,,,,,,,,,,,,,,,,,,,,,,,,,,,,,,,,,,,,,,,,,,,,,,,,,,,,,,,,,
,,,,,,60fd3d9e7434801d922cd2e0,62c53a9a394159e382b487d0,2022-07-06_19h33.03.974,Colour_Asymmetry_Pilot,2022.1.3,Win32,143.8641922,62c50e9c1127f2cd403a315f,0,40,40,56,1,onetwo,,,,,,,,,,,,,,,,,,,,,,,,,,,,,,,,,,,,,,,,,,,,,,,,,,,,,,,,,,,,,,,,,,,,,,,,,,,,,,,,,,,,,,,,,,,,,,,,,,,,,,,,,,,,,,,,,,,,,,,,,,,,,,,,,,,,,,,,,,,,,,,,,,,,,,,,,,,,,
,,,,,,60fd3d9e7434801d922cd2e0,62c53a9a394159e382b487d0,2022-07-06_19h33.03.974,Colour_Asymmetry_Pilot,2022.1.3,Win32,143.8641922,62c50e9c1127f2cd403a315f,0,41,41,64,1,onetwo,,,,,,,,,,,,,,,,,,,,,,,,,,,,,,,,,,,,,,,,,,,,,,,,,,,,,,,,,,,,,,,,,,,,,,,,,,,,,,,,,,,,,,,,,,,,,,,,,,,,,,,,,,,,,,,,,,,,,,,,,,,,,,,,,,,,,,,,,,,,,,,,,,,,,,,,,,,,,
,,,,,,60fd3d9e7434801d922cd2e0,62c53a9a394159e382b487d0,2022-07-06_19h33.03.974,Colour_Asymmetry_Pilot,2022.1.3,Win32,143.8641922,62c50e9c1127f2cd403a315f,0,42,42,14,1,fourtwo,,,,,,,,,,,,,,,,,,,,,,,,,,,,,,,,,,,,,,,,,,,,,,,,,,,,,,,,,,,,,,,,,,,,,,,,,,,,,,,,,,,,,,,,,,,,,,,,,,,,,,,,,,,,,,,,,,,,,,,,,,,,,,,,,,,,,,,,,,,,,,,,,,,,,,,,,,,,,
,,,,,,60fd3d9e7434801d922cd2e0,62c53a9a394159e382b487d0,2022-07-06_19h33.03.974,Colour_Asymmetry_Pilot,2022.1.3,Win32,143.8641922,62c50e9c1127f2cd403a315f,0,43,43,19,1,twofour,,,,,,,,,,,,,,,,,,,,,,,,,,,,,,,,,,,,,,,,,,,,,,,,,,,,,,,,,,,,,,,,,,,,,,,,,,,,,,,,,,,,,,,,,,,,,,,,,,,,,,,,,,,,,,,,,,,,,,,,,,,,,,,,,,,,,,,,,,,,,,,,,,,,,,,,,,,,,
,,,,,,60fd3d9e7434801d922cd2e0,62c53a9a394159e382b487d0,2022-07-06_19h33.03.974,Colour_Asymmetry_Pilot,2022.1.3,Win32,143.8641922,62c50e9c1127f2cd403a315f,0,44,44,92,1,threeone,,,,,,,,,,,,,,,,,,,,,,,,,,,,,,,,,,,,,,,,,,,,,,,,,,,,,,,,,,,,,,,,,,,,,,,,,,,,,,,,,,,,,,,,,,,,,,,,,,,,,,,,,,,,,,,,,,,,,,,,,,,,,,,,,,,,,,,,,,,,,,,,,,,,,,,,,,,,,
,,,,,,60fd3d9e7434801d922cd2e0,62c53a9a394159e382b487d0,2022-07-06_19h33.03.974,Colour_Asymmetry_Pilot,2022.1.3,Win32,143.8641922,62c50e9c1127f2cd403a315f,0,45,45,42,1,twoone,,,,,,,,,,,,,,,,,,,,,,,,,,,,,,,,,,,,,,,,,,,,,,,,,,,,,,,,,,,,,,,,,,,,,,,,,,,,,,,,,,,,,,,,,,,,,,,,,,,,,,,,,,,,,,,,,,,,,,,,,,,,,,,,,,,,,,,,,,,,,,,,,,,,,,,,,,,,,
,,,,,,60fd3d9e7434801d922cd2e0,62c53a9a394159e382b487d0,2022-07-06_19h33.03.974,Colour_Asymmetry_Pilot,2022.1.3,Win32,143.8641922,62c50e9c1127f2cd403a315f,0,46,46,130,1,twoone,,,,,,,,,,,,,,,,,,,,,,,,,,,,,,,,,,,,,,,,,,,,,,,,,,,,,,,,,,,,,,,,,,,,,,,,,,,,,,,,,,,,,,,,,,,,,,,,,,,,,,,,,,,,,,,,,,,,,,,,,,,,,,,,,,,,,,,,,,,,,,,,,,,,,,,,,,,,,
,,,,,,60fd3d9e7434801d922cd2e0,62c53a9a394159e382b487d0,2022-07-06_19h33.03.974,Colour_Asymmetry_Pilot,2022.1.3,Win32,143.8641922,62c50e9c1127f2cd403a315f,0,47,47,132,1,threeone,,,,,,,,,,,,,,,,,,,,,,,,,,,,,,,,,,,,,,,,,,,,,,,,,,,,,,,,,,,,,,,,,,,,,,,,,,,,,,,,,,,,,,,,,,,,,,,,,,,,,,,,,,,,,,,,,,,,,,,,,,,,,,,,,,,,,,,,,,,,,,,,,,,,,,,,,,,,,
,,,,,,60fd3d9e7434801d922cd2e0,62c53a9a394159e382b487d0,2022-07-06_19h33.03.974,Colour_Asymmetry_Pilot,2022.1.3,Win32,143.8641922,62c50e9c1127f2cd403a315f,0,48,48,98,1,twoone,,,,,,,,,,,,,,,,,,,,,,,,,,,,,,,,,,,,,,,,,,,,,,,,,,,,,,,,,,,,,,,,,,,,,,,,,,,,,,,,,,,,,,,,,,,,,,,,,,,,,,,,,,,,,,,,,,,,,,,,,,,,,,,,,,,,,,,,,,,,,,,,,,,,,,,,,,,,,
,,,,,,60fd3d9e7434801d922cd2e0,62c53a9a394159e382b487d0,2022-07-06_19h33.03.974,Colour_Asymmetry_Pilot,2022.1.3,Win32,143.8641922,62c50e9c1127f2cd403a315f,0,49,49,135,1,fourthree,,,,,,,,,,,,,,,,,,,,,,,,,,,,,,,,,,,,,,,,,,,,,,,,,,,,,,,,,,,,,,,,,,,,,,,,,,,,,,,,,,,,,,,,,,,,,,,,,,,,,,,,,,,,,,,,,,,,,,,,,,,,,,,,,,,,,,,,,,,,,,,,,,,,,,,,,,,,,
,,,,,,60fd3d9e7434801d922cd2e0,62c53a9a394159e382b487d0,2022-07-06_19h33.03.974,Colour_Asymmetry_Pilot,2022.1.3,Win32,143.8641922,62c50e9c1127f2cd403a315f,0,50,50,35,1,twofour,,,,,,,,,,,,,,,,,,,,,,,,,,,,,,,,,,,,,,,,,,,,,,,,,,,,,,,,,,,,,,,,,,,,,,,,,,,,,,,,,,,,,,,,,,,,,,,,,,,,,,,,,,,,,,,,,,,,,,,,,,,,,,,,,,,,,,,,,,,,,,,,,,,,,,,,,,,,,
,,,,,,60fd3d9e7434801d922cd2e0,62c53a9a394159e382b487d0,2022-07-06_19h33.03.974,Colour_Asymmetry_Pilot,2022.1.3,Win32,143.8641922,62c50e9c1127f2cd403a315f,0,51,51,36,1,threeone,,,,,,,,,,,,,,,,,,,,,,,,,,,,,,,,,,,,,,,,,,,,,,,,,,,,,,,,,,,,,,,,,,,,,,,,,,,,,,,,,,,,,,,,,,,,,,,,,,,,,,,,,,,,,,,,,,,,,,,,,,,,,,,,,,,,,,,,,,,,,,,,,,,,,,,,,,,,,
,,,,,,60fd3d9e7434801d922cd2e0,62c53a9a394159e382b487d0,2022-07-06_19h33.03.974,Colour_Asymmetry_Pilot,2022.1.3,Win32,143.8641922,62c50e9c1127f2cd403a315f,0,52,52,117,1,threefour,,,,,,,,,,,,,,,,,,,,,,,,,,,,,,,,,,,,,,,,,,,,,,,,,,,,,,,,,,,,,,,,,,,,,,,,,,,,,,,,,,,,,,,,,,,,,,,,,,,,,,,,,,,,,,,,,,,,,,,,,,,,,,,,,,,,,,,,,,,,,,,,,,,,,,,,,,,,,
,,,,,,60fd3d9e7434801d922cd2e0,62c53a9a394159e382b487d0,2022-07-06_19h33.03.974,Colour_Asymmetry_Pilot,2022.1.3,Win32,143.8641922,62c50e9c1127f2cd403a315f,0,53,53,150,1,fourtwo,,,,,,,,,,,,,,,,,,,,,,,,,,,,,,,,,,,,,,,,,,,,,,,,,,,,,,,,,,,,,,,,,,,,,,,,,,,,,,,,,,,,,,,,,,,,,,,,,,,,,,,,,,,,,,,,,,,,,,,,,,,,,,,,,,,,,,,,,,,,,,,,,,,,,,,,,,,,,
,,,,,,60fd3d9e7434801d922cd2e0,62c53a9a394159e382b487d0,2022-07-06_19h33.03.974,Colour_Asymmetry_Pilot,2022.1.3,Win32,143.8641922,62c50e9c1127f2cd403a315f,0,54,54,85,1,threefour,,,,,,,,,,,,,,,,,,,,,,,,,,,,,,,,,,,,,,,,,,,,,,,,,,,,,,,,,,,,,,,,,,,,,,,,,,,,,,,,,,,,,,,,,,,,,,,,,,,,,,,,,,,,,,,,,,,,,,,,,,,,,,,,,,,,,,,,,,,,,,,,,,,,,,,,,,,,,
,,,,,,60fd3d9e7434801d922cd2e0,62c53a9a394159e382b487d0,2022-07-06_19h33.03.974,Colour_Asymmetry_Pilot,2022.1.3,Win32,143.8641922,62c50e9c1127f2cd403a315f,0,55,55,108,1,threeone,,,,,,,,,,,,,,,,,,,,,,,,,,,,,,,,,,,,,,,,,,,,,,,,,,,,,,,,,,,,,,,,,,,,,,,,,,,,,,,,,,,,,,,,,,,,,,,,,,,,,,,,,,,,,,,,,,,,,,,,,,,,,,,,,,,,,,,,,,,,,,,,,,,,,,,,,,,,,
,,,,,,60fd3d9e7434801d922cd2e0,62c53a9a394159e382b487d0,2022-07-06_19h33.03.974,Colour_Asymmetry_Pilot,2022.1.3,Win32,143.8641922,62c50e9c1127f2cd403a315f,0,56,56,48,1,onetwo,,,,,,,,,,,,,,,,,,,,,,,,,,,,,,,,,,,,,,,,,,,,,,,,,,,,,,,,,,,,,,,,,,,,,,,,,,,,,,,,,,,,,,,,,,,,,,,,,,,,,,,,,,,,,,,,,,,,,,,,,,,,,,,,,,,,,,,,,,,,,,,,,,,,,,,,,,,,,
,,,,,,60fd3d9e7434801d922cd2e0,62c53a9a394159e382b487d0,2022-07-06_19h33.03.974,Colour_Asymmetry_Pilot,2022.1.3,Win32,143.8641922,62c50e9c1127f2cd403a315f,0,57,57,0,1,onetwo,,,,,,,,,,,,,,,,,,,,,,,,,,,,,,,,,,,,,,,,,,,,,,,,,,,,,,,,,,,,,,,,,,,,,,,,,,,,,,,,,,,,,,,,,,,,,,,,,,,,,,,,,,,,,,,,,,,,,,,,,,,,,,,,,,,,,,,,,,,,,,,,,,,,,,,,,,,,,
,,,,,,60fd3d9e7434801d922cd2e0,62c53a9a394159e382b487d0,2022-07-06_19h33.03.974,Colour_Asymmetry_Pilot,2022.1.3,Win32,143.8641922,62c50e9c1127f2cd403a315f,0,58,58,146,1,twoone,,,,,,,,,,,,,,,,,,,,,,,,,,,,,,,,,,,,,,,,,,,,,,,,,,,,,,,,,,,,,,,,,,,,,,,,,,,,,,,,,,,,,,,,,,,,,,,,,,,,,,,,,,,,,,,,,,,,,,,,,,,,,,,,,,,,,,,,,,,,,,,,,,,,,,,,,,,,,
,,,,,,60fd3d9e7434801d922cd2e0,62c53a9a394159e382b487d0,2022-07-06_19h33.03.974,Colour_Asymmetry_Pilot,2022.1.3,Win32,143.8641922,62c50e9c1127f2cd403a315f,0,59,59,65,1,onethree,,,,,,,,,,,,,,,,,,,,,,,,,,,,,,,,,,,,,,,,,,,,,,,,,,,,,,,,,,,,,,,,,,,,,,,,,,,,,,,,,,,,,,,,,,,,,,,,,,,,,,,,,,,,,,,,,,,,,,,,,,,,,,,,,,,,,,,,,,,,,,,,,,,,,,,,,,,,,
,,,,,,60fd3d9e7434801d922cd2e0,62c53a9a394159e382b487d0,2022-07-06_19h33.03.974,Colour_Asymmetry_Pilot,2022.1.3,Win32,143.8641922,62c50e9c1127f2cd403a315f,0,60,60,40,1,onetwo,,,,,,,,,,,,,,,,,,,,,,,,,,,,,,,,,,,,,,,,,,,,,,,,,,,,,,,,,,,,,,,,,,,,,,,,,,,,,,,,,,,,,,,,,,,,,,,,,,,,,,,,,,,,,,,,,,,,,,,,,,,,,,,,,,,,,,,,,,,,,,,,,,,,,,,,,,,,,
,,,,,,60fd3d9e7434801d922cd2e0,62c53a9a394159e382b487d0,2022-07-06_19h33.03.974,Colour_Asymmetry_Pilot,2022.1.3,Win32,143.8641922,62c50e9c1127f2cd403a315f,0,61,61,34,1,twoone,,,,,,,,,,,,,,,,,,,,,,,,,,,,,,,,,,,,,,,,,,,,,,,,,,,,,,,,,,,,,,,,,,,,,,,,,,,,,,,,,,,,,,,,,,,,,,,,,,,,,,,,,,,,,,,,,,,,,,,,,,,,,,,,,,,,,,,,,,,,,,,,,,,,,,,,,,,,,
,,,,,,60fd3d9e7434801d922cd2e0,62c53a9a394159e382b487d0,2022-07-06_19h33.03.974,Colour_Asymmetry_Pilot,2022.1.3,Win32,143.8641922,62c50e9c1127f2cd403a315f,0,62,62,109,1,threefour,,,,,,,,,,,,,,,,,,,,,,,,,,,,,,,,,,,,,,,,,,,,,,,,,,,,,,,,,,,,,,,,,,,,,,,,,,,,,,,,,,,,,,,,,,,,,,,,,,,,,,,,,,,,,,,,,,,,,,,,,,,,,,,,,,,,,,,,,,,,,,,,,,,,,,,,,,,,,
,,,,,,60fd3d9e7434801d922cd2e0,62c53a9a394159e382b487d0,2022-07-06_19h33.03.974,Colour_Asymmetry_Pilot,2022.1.3,Win32,143.8641922,62c50e9c1127f2cd403a315f,0,63,63,107,1,twofour,,,,,,,,,,,,,,,,,,,,,,,,,,,,,,,,,,,,,,,,,,,,,,,,,,,,,,,,,,,,,,,,,,,,,,,,,,,,,,,,,,,,,,,,,,,,,,,,,,,,,,,,,,,,,,,,,,,,,,,,,,,,,,,,,,,,,,,,,,,,,,,,,,,,,,,,,,,,,
,,,,,,60fd3d9e7434801d922cd2e0,62c53a9a394159e382b487d0,2022-07-06_19h33.03.974,Colour_Asymmetry_Pilot,2022.1.3,Win32,143.8641922,62c50e9c1127f2cd403a315f,0,64,64,90,1,twoone,,,,,,,,,,,,,,,,,,,,,,,,,,,,,,,,,,,,,,,,,,,,,,,,,,,,,,,,,,,,,,,,,,,,,,,,,,,,,,,,,,,,,,,,,,,,,,,,,,,,,,,,,,,,,,,,,,,,,,,,,,,,,,,,,,,,,,,,,,,,,,,,,,,,,,,,,,,,,
,,,,,,60fd3d9e7434801d922cd2e0,62c53a9a394159e382b487d0,2022-07-06_19h33.03.974,Colour_Asymmetry_Pilot,2022.1.3,Win32,143.8641922,62c50e9c1127f2cd403a315f,0,65,65,154,1,twoone,,,,,,,,,,,,,,,,,,,,,,,,,,,,,,,,,,,,,,,,,,,,,,,,,,,,,,,,,,,,,,,,,,,,,,,,,,,,,,,,,,,,,,,,,,,,,,,,,,,,,,,,,,,,,,,,,,,,,,,,,,,,,,,,,,,,,,,,,,,,,,,,,,,,,,,,,,,,,
,,,,,,60fd3d9e7434801d922cd2e0,62c53a9a394159e382b487d0,2022-07-06_19h33.03.974,Colour_Asymmetry_Pilot,2022.1.3,Win32,143.8641922,62c50e9c1127f2cd403a315f,0,66,66,104,1,onetwo,,,,,,,,,,,,,,,,,,,,,,,,,,,,,,,,,,,,,,,,,,,,,,,,,,,,,,,,,,,,,,,,,,,,,,,,,,,,,,,,,,,,,,,,,,,,,,,,,,,,,,,,,,,,,,,,,,,,,,,,,,,,,,,,,,,,,,,,,,,,,,,,,,,,,,,,,,,,,
,,,,,,60fd3d9e7434801d922cd2e0,62c53a9a394159e382b487d0,2022-07-06_19h33.03.974,Colour_Asymmetry_Pilot,2022.1.3,Win32,143.8641922,62c50e9c1127f2cd403a315f,0,67,67,4,1,threeone,,,,,,,,,,,,,,,,,,,,,,,,,,,,,,,,,,,,,,,,,,,,,,,,,,,,,,,,,,,,,,,,,,,,,,,,,,,,,,,,,,,,,,,,,,,,,,,,,,,,,,,,,,,,,,,,,,,,,,,,,,,,,,,,,,,,,,,,,,,,,,,,,,,,,,,,,,,,,
,,,,,,60fd3d9e7434801d922cd2e0,62c53a9a394159e382b487d0,2022-07-06_19h33.03.974,Colour_Asymmetry_Pilot,2022.1.3,Win32,143.8641922,62c50e9c1127f2cd403a315f,0,68,68,93,1,threefour,,,,,,,,,,,,,,,,,,,,,,,,,,,,,,,,,,,,,,,,,,,,,,,,,,,,,,,,,,,,,,,,,,,,,,,,,,,,,,,,,,,,,,,,,,,,,,,,,,,,,,,,,,,,,,,,,,,,,,,,,,,,,,,,,,,,,,,,,,,,,,,,,,,,,,,,,,,,,
,,,,,,60fd3d9e7434801d922cd2e0,62c53a9a394159e382b487d0,2022-07-06_19h33.03.974,Colour_Asymmetry_Pilot,2022.1.3,Win32,143.8641922,62c50e9c1127f2cd403a315f,0,69,69,33,1,onethree,,,,,,,,,,,,,,,,,,,,,,,,,,,,,,,,,,,,,,,,,,,,,,,,,,,,,,,,,,,,,,,,,,,,,,,,,,,,,,,,,,,,,,,,,,,,,,,,,,,,,,,,,,,,,,,,,,,,,,,,,,,,,,,,,,,,,,,,,,,,,,,,,,,,,,,,,,,,,
,,,,,,60fd3d9e7434801d922cd2e0,62c53a9a394159e382b487d0,2022-07-06_19h33.03.974,Colour_Asymmetry_Pilot,2022.1.3,Win32,143.8641922,62c50e9c1127f2cd403a315f,0,70,70,114,1,twoone,,,,,,,,,,,,,,,,,,,,,,,,,,,,,,,,,,,,,,,,,,,,,,,,,,,,,,,,,,,,,,,,,,,,,,,,,,,,,,,,,,,,,,,,,,,,,,,,,,,,,,,,,,,,,,,,,,,,,,,,,,,,,,,,,,,,,,,,,,,,,,,,,,,,,,,,,,,,,
,,,,,,60fd3d9e7434801d922cd2e0,62c53a9a394159e382b487d0,2022-07-06_19h33.03.974,Colour_Asymmetry_Pilot,2022.1.3,Win32,143.8641922,62c50e9c1127f2cd403a315f,0,71,71,125,1,threefour,,,,,,,,,,,,,,,,,,,,,,,,,,,,,,,,,,,,,,,,,,,,,,,,,,,,,,,,,,,,,,,,,,,,,,,,,,,,,,,,,,,,,,,,,,,,,,,,,,,,,,,,,,,,,,,,,,,,,,,,,,,,,,,,,,,,,,,,,,,,,,,,,,,,,,,,,,,,,
,,,,,,60fd3d9e7434801d922cd2e0,62c53a9a394159e382b487d0,2022-07-06_19h33.03.974,Colour_Asymmetry_Pilot,2022.1.3,Win32,143.8641922,62c50e9c1127f2cd403a315f,0,72,72,152,1,onetwo,,,,,,,,,,,,,,,,,,,,,,,,,,,,,,,,,,,,,,,,,,,,,,,,,,,,,,,,,,,,,,,,,,,,,,,,,,,,,,,,,,,,,,,,,,,,,,,,,,,,,,,,,,,,,,,,,,,,,,,,,,,,,,,,,,,,,,,,,,,,,,,,,,,,,,,,,,,,,
,,,,,,60fd3d9e7434801d922cd2e0,62c53a9a394159e382b487d0,2022-07-06_19h33.03.974,Colour_Asymmetry_Pilot,2022.1.3,Win32,143.8641922,62c50e9c1127f2cd403a315f,0,73,73,101,1,threefour,,,,,,,,,,,,,,,,,,,,,,,,,,,,,,,,,,,,,,,,,,,,,,,,,,,,,,,,,,,,,,,,,,,,,,,,,,,,,,,,,,,,,,,,,,,,,,,,,,,,,,,,,,,,,,,,,,,,,,,,,,,,,,,,,,,,,,,,,,,,,,,,,,,,,,,,,,,,,
,,,,,,60fd3d9e7434801d922cd2e0,62c53a9a394159e382b487d0,2022-07-06_19h33.03.974,Colour_Asymmetry_Pilot,2022.1.3,Win32,143.8641922,62c50e9c1127f2cd403a315f,0,74,74,46,1,fourtwo,,,,,,,,,,,,,,,,,,,,,,,,,,,,,,,,,,,,,,,,,,,,,,,,,,,,,,,,,,,,,,,,,,,,,,,,,,,,,,,,,,,,,,,,,,,,,,,,,,,,,,,,,,,,,,,,,,,,,,,,,,,,,,,,,,,,,,,,,,,,,,,,,,,,,,,,,,,,,
,,,,,,60fd3d9e7434801d922cd2e0,62c53a9a394159e382b487d0,2022-07-06_19h33.03.974,Colour_Asymmetry_Pilot,2022.1.3,Win32,143.8641922,62c50e9c1127f2cd403a315f,0,75,75,43,1,twofour,,,,,,,,,,,,,,,,,,,,,,,,,,,,,,,,,,,,,,,,,,,,,,,,,,,,,,,,,,,,,,,,,,,,,,,,,,,,,,,,,,,,,,,,,,,,,,,,,,,,,,,,,,,,,,,,,,,,,,,,,,,,,,,,,,,,,,,,,,,,,,,,,,,,,,,,,,,,,
,,,,,,60fd3d9e7434801d922cd2e0,62c53a9a394159e382b487d0,2022-07-06_19h33.03.974,Colour_Asymmetry_Pilot,2022.1.3,Win32,143.8641922,62c50e9c1127f2cd403a315f,0,76,76,72,1,onetwo,,,,,,,,,,,,,,,,,,,,,,,,,,,,,,,,,,,,,,,,,,,,,,,,,,,,,,,,,,,,,,,,,,,,,,,,,,,,,,,,,,,,,,,,,,,,,,,,,,,,,,,,,,,,,,,,,,,,,,,,,,,,,,,,,,,,,,,,,,,,,,,,,,,,,,,,,,,,,
,,,,,,60fd3d9e7434801d922cd2e0,62c53a9a394159e382b487d0,2022-07-06_19h33.03.974,Colour_Asymmetry_Pilot,2022.1.3,Win32,143.8641922,62c50e9c1127f2cd403a315f,0,77,77,51,1,twofour,,,,,,,,,,,,,,,,,,,,,,,,,,,,,,,,,,,,,,,,,,,,,,,,,,,,,,,,,,,,,,,,,,,,,,,,,,,,,,,,,,,,,,,,,,,,,,,,,,,,,,,,,,,,,,,,,,,,,,,,,,,,,,,,,,,,,,,,,,,,,,,,,,,,,,,,,,,,,
,,,,,,60fd3d9e7434801d922cd2e0,62c53a9a394159e382b487d0,2022-07-06_19h33.03.974,Colour_Asymmetry_Pilot,2022.1.3,Win32,143.8641922,62c50e9c1127f2cd403a315f,0,78,78,143,1,fourthree,,,,,,,,,,,,,,,,,,,,,,,,,,,,,,,,,,,,,,,,,,,,,,,,,,,,,,,,,,,,,,,,,,,,,,,,,,,,,,,,,,,,,,,,,,,,,,,,,,,,,,,,,,,,,,,,,,,,,,,,,,,,,,,,,,,,,,,,,,,,,,,,,,,,,,,,,,,,,
,,,,,,60fd3d9e7434801d922cd2e0,62c53a9a394159e382b487d0,2022-07-06_19h33.03.974,Colour_Asymmetry_Pilot,2022.1.3,Win32,143.8641922,62c50e9c1127f2cd403a315f,0,79,79,151,1,fourthree,,,,,,,,,,,,,,,,,,,,,,,,,,,,,,,,,,,,,,,,,,,,,,,,,,,,,,,,,,,,,,,,,,,,,,,,,,,,,,,,,,,,,,,,,,,,,,,,,,,,,,,,,,,,,,,,,,,,,,,,,,,,,,,,,,,,,,,,,,,,,,,,,,,,,,,,,,,,,
,,,,,,60fd3d9e7434801d922cd2e0,62c53a9a394159e382b487d0,2022-07-06_19h33.03.974,Colour_Asymmetry_Pilot,2022.1.3,Win32,143.8641922,62c50e9c1127f2cd403a315f,0,80,80,126,1,fourtwo,,,,,,,,,,,,,,,,,,,,,,,,,,,,,,,,,,,,,,,,,,,,,,,,,,,,,,,,,,,,,,,,,,,,,,,,,,,,,,,,,,,,,,,,,,,,,,,,,,,,,,,,,,,,,,,,,,,,,,,,,,,,,,,,,,,,,,,,,,,,,,,,,,,,,,,,,,,,,
,,,,,,60fd3d9e7434801d922cd2e0,62c53a9a394159e382b487d0,2022-07-06_19h33.03.974,Colour_Asymmetry_Pilot,2022.1.3,Win32,143.8641922,62c50e9c1127f2cd403a315f,0,81,81,129,1,onethree,,,,,,,,,,,,,,,,,,,,,,,,,,,,,,,,,,,,,,,,,,,,,,,,,,,,,,,,,,,,,,,,,,,,,,,,,,,,,,,,,,,,,,,,,,,,,,,,,,,,,,,,,,,,,,,,,,,,,,,,,,,,,,,,,,,,,,,,,,,,,,,,,,,,,,,,,,,,,
,,,,,,60fd3d9e7434801d922cd2e0,62c53a9a394159e382b487d0,2022-07-06_19h33.03.974,Colour_Asymmetry_Pilot,2022.1.3,Win32,143.8641922,62c50e9c1127f2cd403a315f,0,82,82,32,1,onetwo,,,,,,,,,,,,,,,,,,,,,,,,,,,,,,,,,,,,,,,,,,,,,,,,,,,,,,,,,,,,,,,,,,,,,,,,,,,,,,,,,,,,,,,,,,,,,,,,,,,,,,,,,,,,,,,,,,,,,,,,,,,,,,,,,,,,,,,,,,,,,,,,,,,,,,,,,,,,,
,,,,,,60fd3d9e7434801d922cd2e0,62c53a9a394159e382b487d0,2022-07-06_19h33.03.974,Colour_Asymmetry_Pilot,2022.1.3,Win32,143.8641922,62c50e9c1127f2cd403a315f,0,83,83,94,1,fourtwo,,,,,,,,,,,,,,,,,,,,,,,,,,,,,,,,,,,,,,,,,,,,,,,,,,,,,,,,,,,,,,,,,,,,,,,,,,,,,,,,,,,,,,,,,,,,,,,,,,,,,,,,,,,,,,,,,,,,,,,,,,,,,,,,,,,,,,,,,,,,,,,,,,,,,,,,,,,,,
,,,,,,60fd3d9e7434801d922cd2e0,62c53a9a394159e382b487d0,2022-07-06_19h33.03.974,Colour_Asymmetry_Pilot,2022.1.3,Win32,143.8641922,62c50e9c1127f2cd403a315f,0,84,84,148,1,threeone,,,,,,,,,,,,,,,,,,,,,,,,,,,,,,,,,,,,,,,,,,,,,,,,,,,,,,,,,,,,,,,,,,,,,,,,,,,,,,,,,,,,,,,,,,,,,,,,,,,,,,,,,,,,,,,,,,,,,,,,,,,,,,,,,,,,,,,,,,,,,,,,,,,,,,,,,,,,,
,,,,,,60fd3d9e7434801d922cd2e0,62c53a9a394159e382b487d0,2022-07-06_19h33.03.974,Colour_Asymmetry_Pilot,2022.1.3,Win32,143.8641922,62c50e9c1127f2cd403a315f,0,85,85,79,1,fourthree,,,,,,,,,,,,,,,,,,,,,,,,,,,,,,,,,,,,,,,,,,,,,,,,,,,,,,,,,,,,,,,,,,,,,,,,,,,,,,,,,,,,,,,,,,,,,,,,,,,,,,,,,,,,,,,,,,,,,,,,,,,,,,,,,,,,,,,,,,,,,,,,,,,,,,,,,,,,,
,,,,,,60fd3d9e7434801d922cd2e0,62c53a9a394159e382b487d0,2022-07-06_19h33.03.974,Colour_Asymmetry_Pilot,2022.1.3,Win32,143.8641922,62c50e9c1127f2cd403a315f,0,86,86,103,1,fourthree,,,,,,,,,,,,,,,,,,,,,,,,,,,,,,,,,,,,,,,,,,,,,,,,,,,,,,,,,,,,,,,,,,,,,,,,,,,,,,,,,,,,,,,,,,,,,,,,,,,,,,,,,,,,,,,,,,,,,,,,,,,,,,,,,,,,,,,,,,,,,,,,,,,,,,,,,,,,,
,,,,,,60fd3d9e7434801d922cd2e0,62c53a9a394159e382b487d0,2022-07-06_19h33.03.974,Colour_Asymmetry_Pilot,2022.1.3,Win32,143.8641922,62c50e9c1127f2cd403a315f,0,87,87,41,1,onethree,,,,,,,,,,,,,,,,,,,,,,,,,,,,,,,,,,,,,,,,,,,,,,,,,,,,,,,,,,,,,,,,,,,,,,,,,,,,,,,,,,,,,,,,,,,,,,,,,,,,,,,,,,,,,,,,,,,,,,,,,,,,,,,,,,,,,,,,,,,,,,,,,,,,,,,,,,,,,
,,,,,,60fd3d9e7434801d922cd2e0,62c53a9a394159e382b487d0,2022-07-06_19h33.03.974,Colour_Asymmetry_Pilot,2022.1.3,Win32,143.8641922,62c50e9c1127f2cd403a315f,0,88,88,106,1,twoone,,,,,,,,,,,,,,,,,,,,,,,,,,,,,,,,,,,,,,,,,,,,,,,,,,,,,,,,,,,,,,,,,,,,,,,,,,,,,,,,,,,,,,,,,,,,,,,,,,,,,,,,,,,,,,,,,,,,,,,,,,,,,,,,,,,,,,,,,,,,,,,,,,,,,,,,,,,,,
,,,,,,60fd3d9e7434801d922cd2e0,62c53a9a394159e382b487d0,2022-07-06_19h33.03.974,Colour_Asymmetry_Pilot,2022.1.3,Win32,143.8641922,62c50e9c1127f2cd403a315f,0,89,89,76,1,threeone,,,,,,,,,,,,,,,,,,,,,,,,,,,,,,,,,,,,,,,,,,,,,,,,,,,,,,,,,,,,,,,,,,,,,,,,,,,,,,,,,,,,,,,,,,,,,,,,,,,,,,,,,,,,,,,,,,,,,,,,,,,,,,,,,,,,,,,,,,,,,,,,,,,,,,,,,,,,,
,,,,,,60fd3d9e7434801d922cd2e0,62c53a9a394159e382b487d0,2022-07-06_19h33.03.974,Colour_Asymmetry_Pilot,2022.1.3,Win32,143.8641922,62c50e9c1127f2cd403a315f,0,90,90,80,1,onetwo,,,,,,,,,,,,,,,,,,,,,,,,,,,,,,,,,,,,,,,,,,,,,,,,,,,,,,,,,,,,,,,,,,,,,,,,,,,,,,,,,,,,,,,,,,,,,,,,,,,,,,,,,,,,,,,,,,,,,,,,,,,,,,,,,,,,,,,,,,,,,,,,,,,,,,,,,,,,,
,,,,,,60fd3d9e7434801d922cd2e0,62c53a9a394159e382b487d0,2022-07-06_19h33.03.974,Colour_Asymmetry_Pilot,2022.1.3,Win32,143.8641922,62c50e9c1127f2cd403a315f,0,91,91,97,1,onethree,,,,,,,,,,,,,,,,,,,,,,,,,,,,,,,,,,,,,,,,,,,,,,,,,,,,,,,,,,,,,,,,,,,,,,,,,,,,,,,,,,,,,,,,,,,,,,,,,,,,,,,,,,,,,,,,,,,,,,,,,,,,,,,,,,,,,,,,,,,,,,,,,,,,,,,,,,,,,
,,,,,,60fd3d9e7434801d922cd2e0,62c53a9a394159e382b487d0,2022-07-06_19h33.03.974,Colour_Asymmetry_Pilot,2022.1.3,Win32,143.8641922,62c50e9c1127f2cd403a315f,0,92,92,30,1,fourtwo,,,,,,,,,,,,,,,,,,,,,,,,,,,,,,,,,,,,,,,,,,,,,,,,,,,,,,,,,,,,,,,,,,,,,,,,,,,,,,,,,,,,,,,,,,,,,,,,,,,,,,,,,,,,,,,,,,,,,,,,,,,,,,,,,,,,,,,,,,,,,,,,,,,,,,,,,,,,,
,,,,,,60fd3d9e7434801d922cd2e0,62c53a9a394159e382b487d0,2022-07-06_19h33.03.974,Colour_Asymmetry_Pilot,2022.1.3,Win32,143.8641922,62c50e9c1127f2cd403a315f,0,93,93,133,1,threefour,,,,,,,,,,,,,,,,,,,,,,,,,,,,,,,,,,,,,,,,,,,,,,,,,,,,,,,,,,,,,,,,,,,,,,,,,,,,,,,,,,,,,,,,,,,,,,,,,,,,,,,,,,,,,,,,,,,,,,,,,,,,,,,,,,,,,,,,,,,,,,,,,,,,,,,,,,,,,
,,,,,,60fd3d9e7434801d922cd2e0,62c53a9a394159e382b487d0,2022-07-06_19h33.03.974,Colour_Asymmetry_Pilot,2022.1.3,Win32,143.8641922,62c50e9c1127f2cd403a315f,0,94,94,18,1,twoone,,,,,,,,,,,,,,,,,,,,,,,,,,,,,,,,,,,,,,,,,,,,,,,,,,,,,,,,,,,,,,,,,,,,,,,,,,,,,,,,,,,,,,,,,,,,,,,,,,,,,,,,,,,,,,,,,,,,,,,,,,,,,,,,,,,,,,,,,,,,,,,,,,,,,,,,,,,,,
,,,,,,60fd3d9e7434801d922cd2e0,62c53a9a394159e382b487d0,2022-07-06_19h33.03.974,Colour_Asymmetry_Pilot,2022.1.3,Win32,143.8641922,62c50e9c1127f2cd403a315f,0,95,95,84,1,threeone,,,,,,,,,,,,,,,,,,,,,,,,,,,,,,,,,,,,,,,,,,,,,,,,,,,,,,,,,,,,,,,,,,,,,,,,,,,,,,,,,,,,,,,,,,,,,,,,,,,,,,,,,,,,,,,,,,,,,,,,,,,,,,,,,,,,,,,,,,,,,,,,,,,,,,,,,,,,,
,,,,,,60fd3d9e7434801d922cd2e0,62c53a9a394159e382b487d0,2022-07-06_19h33.03.974,Colour_Asymmetry_Pilot,2022.1.3,Win32,143.8641922,62c50e9c1127f2cd403a315f,0,96,96,16,1,onetwo,,,,,,,,,,,,,,,,,,,,,,,,,,,,,,,,,,,,,,,,,,,,,,,,,,,,,,,,,,,,,,,,,,,,,,,,,,,,,,,,,,,,,,,,,,,,,,,,,,,,,,,,,,,,,,,,,,,,,,,,,,,,,,,,,,,,,,,,,,,,,,,,,,,,,,,,,,,,,
,,,,,,60fd3d9e7434801d922cd2e0,62c53a9a394159e382b487d0,2022-07-06_19h33.03.974,Colour_Asymmetry_Pilot,2022.1.3,Win32,143.8641922,62c50e9c1127f2cd403a315f,0,97,97,112,1,onetwo,,,,,,,,,,,,,,,,,,,,,,,,,,,,,,,,,,,,,,,,,,,,,,,,,,,,,,,,,,,,,,,,,,,,,,,,,,,,,,,,,,,,,,,,,,,,,,,,,,,,,,,,,,,,,,,,,,,,,,,,,,,,,,,,,,,,,,,,,,,,,,,,,,,,,,,,,,,,,
,,,,,,60fd3d9e7434801d922cd2e0,62c53a9a394159e382b487d0,2022-07-06_19h33.03.974,Colour_Asymmetry_Pilot,2022.1.3,Win32,143.8641922,62c50e9c1127f2cd403a315f,0,98,98,8,1,onetwo,,,,,,,,,,,,,,,,,,,,,,,,,,,,,,,,,,,,,,,,,,,,,,,,,,,,,,,,,,,,,,,,,,,,,,,,,,,,,,,,,,,,,,,,,,,,,,,,,,,,,,,,,,,,,,,,,,,,,,,,,,,,,,,,,,,,,,,,,,,,,,,,,,,,,,,,,,,,,
,,,,,,60fd3d9e7434801d922cd2e0,62c53a9a394159e382b487d0,2022-07-06_19h33.03.974,Colour_Asymmetry_Pilot,2022.1.3,Win32,143.8641922,62c50e9c1127f2cd403a315f,0,99,99,21,1,threefour,,,,,,,,,,,,,,,,,,,,,,,,,,,,,,,,,,,,,,,,,,,,,,,,,,,,,,,,,,,,,,,,,,,,,,,,,,,,,,,,,,,,,,,,,,,,,,,,,,,,,,,,,,,,,,,,,,,,,,,,,,,,,,,,,,,,,,,,,,,,,,,,,,,,,,,,,,,,,
,,,,,,60fd3d9e7434801d922cd2e0,62c53a9a394159e382b487d0,2022-07-06_19h33.03.974,Colour_Asymmetry_Pilot,2022.1.3,Win32,143.8641922,62c50e9c1127f2cd403a315f,0,100,100,142,1,fourtwo,,,,,,,,,,,,,,,,,,,,,,,,,,,,,,,,,,,,,,,,,,,,,,,,,,,,,,,,,,,,,,,,,,,,,,,,,,,,,,,,,,,,,,,,,,,,,,,,,,,,,,,,,,,,,,,,,,,,,,,,,,,,,,,,,,,,,,,,,,,,,,,,,,,,,,,,,,,,,
,,,,,,60fd3d9e7434801d922cd2e0,62c53a9a394159e382b487d0,2022-07-06_19h33.03.974,Colour_Asymmetry_Pilot,2022.1.3,Win32,143.8641922,62c50e9c1127f2cd403a315f,0,101,101,3,1,twofour,,,,,,,,,,,,,,,,,,,,,,,,,,,,,,,,,,,,,,,,,,,,,,,,,,,,,,,,,,,,,,,,,,,,,,,,,,,,,,,,,,,,,,,,,,,,,,,,,,,,,,,,,,,,,,,,,,,,,,,,,,,,,,,,,,,,,,,,,,,,,,,,,,,,,,,,,,,,,
,,,,,,60fd3d9e7434801d922cd2e0,62c53a9a394159e382b487d0,2022-07-06_19h33.03.974,Colour_Asymmetry_Pilot,2022.1.3,Win32,143.8641922,62c50e9c1127f2cd403a315f,0,102,102,144,1,onetwo,,,,,,,,,,,,,,,,,,,,,,,,,,,,,,,,,,,,,,,,,,,,,,,,,,,,,,,,,,,,,,,,,,,,,,,,,,,,,,,,,,,,,,,,,,,,,,,,,,,,,,,,,,,,,,,,,,,,,,,,,,,,,,,,,,,,,,,,,,,,,,,,,,,,,,,,,,,,,
,,,,,,60fd3d9e7434801d922cd2e0,62c53a9a394159e382b487d0,2022-07-06_19h33.03.974,Colour_Asymmetry_Pilot,2022.1.3,Win32,143.8641922,62c50e9c1127f2cd403a315f,0,103,103,118,1,fourtwo,,,,,,,,,,,,,,,,,,,,,,,,,,,,,,,,,,,,,,,,,,,,,,,,,,,,,,,,,,,,,,,,,,,,,,,,,,,,,,,,,,,,,,,,,,,,,,,,,,,,,,,,,,,,,,,,,,,,,,,,,,,,,,,,,,,,,,,,,,,,,,,,,,,,,,,,,,,,,
,,,,,,60fd3d9e7434801d922cd2e0,62c53a9a394159e382b487d0,2022-07-06_19h33.03.974,Colour_Asymmetry_Pilot,2022.1.3,Win32,143.8641922,62c50e9c1127f2cd403a315f,0,104,104,57,1,onethree,,,,,,,,,,,,,,,,,,,,,,,,,,,,,,,,,,,,,,,,,,,,,,,,,,,,,,,,,,,,,,,,,,,,,,,,,,,,,,,,,,,,,,,,,,,,,,,,,,,,,,,,,,,,,,,,,,,,,,,,,,,,,,,,,,,,,,,,,,,,,,,,,,,,,,,,,,,,,
,,,,,,60fd3d9e7434801d922cd2e0,62c53a9a394159e382b487d0,2022-07-06_19h33.03.974,Colour_Asymmetry_Pilot,2022.1.3,Win32,143.8641922,62c50e9c1127f2cd403a315f,0,105,105,77,1,threefour,,,,,,,,,,,,,,,,,,,,,,,,,,,,,,,,,,,,,,,,,,,,,,,,,,,,,,,,,,,,,,,,,,,,,,,,,,,,,,,,,,,,,,,,,,,,,,,,,,,,,,,,,,,,,,,,,,,,,,,,,,,,,,,,,,,,,,,,,,,,,,,,,,,,,,,,,,,,,
,,,,,,60fd3d9e7434801d922cd2e0,62c53a9a394159e382b487d0,2022-07-06_19h33.03.974,Colour_Asymmetry_Pilot,2022.1.3,Win32,143.8641922,62c50e9c1127f2cd403a315f,0,106,106,81,1,onethree,,,,,,,,,,,,,,,,,,,,,,,,,,,,,,,,,,,,,,,,,,,,,,,,,,,,,,,,,,,,,,,,,,,,,,,,,,,,,,,,,,,,,,,,,,,,,,,,,,,,,,,,,,,,,,,,,,,,,,,,,,,,,,,,,,,,,,,,,,,,,,,,,,,,,,,,,,,,,
,,,,,,60fd3d9e7434801d922cd2e0,62c53a9a394159e382b487d0,2022-07-06_19h33.03.974,Colour_Asymmetry_Pilot,2022.1.3,Win32,143.8641922,62c50e9c1127f2cd403a315f,0,107,107,9,1,onethree,,,,,,,,,,,,,,,,,,,,,,,,,,,,,,,,,,,,,,,,,,,,,,,,,,,,,,,,,,,,,,,,,,,,,,,,,,,,,,,,,,,,,,,,,,,,,,,,,,,,,,,,,,,,,,,,,,,,,,,,,,,,,,,,,,,,,,,,,,,,,,,,,,,,,,,,,,,,,
,,,,,,60fd3d9e7434801d922cd2e0,62c53a9a394159e382b487d0,2022-07-06_19h33.03.974,Colour_Asymmetry_Pilot,2022.1.3,Win32,143.8641922,62c50e9c1127f2cd403a315f,0,108,108,153,1,onethree,,,,,,,,,,,,,,,,,,,,,,,,,,,,,,,,,,,,,,,,,,,,,,,,,,,,,,,,,,,,,,,,,,,,,,,,,,,,,,,,,,,,,,,,,,,,,,,,,,,,,,,,,,,,,,,,,,,,,,,,,,,,,,,,,,,,,,,,,,,,,,,,,,,,,,,,,,,,,
,,,,,,60fd3d9e7434801d922cd2e0,62c53a9a394159e382b487d0,2022-07-06_19h33.03.974,Colour_Asymmetry_Pilot,2022.1.3,Win32,143.8641922,62c50e9c1127f2cd403a315f,0,109,109,87,1,fourthree,,,,,,,,,,,,,,,,,,,,,,,,,,,,,,,,,,,,,,,,,,,,,,,,,,,,,,,,,,,,,,,,,,,,,,,,,,,,,,,,,,,,,,,,,,,,,,,,,,,,,,,,,,,,,,,,,,,,,,,,,,,,,,,,,,,,,,,,,,,,,,,,,,,,,,,,,,,,,
,,,,,,60fd3d9e7434801d922cd2e0,62c53a9a394159e382b487d0,2022-07-06_19h33.03.974,Colour_Asymmetry_Pilot,2022.1.3,Win32,143.8641922,62c50e9c1127f2cd403a315f,0,110,110,2,1,twoone,,,,,,,,,,,,,,,,,,,,,,,,,,,,,,,,,,,,,,,,,,,,,,,,,,,,,,,,,,,,,,,,,,,,,,,,,,,,,,,,,,,,,,,,,,,,,,,,,,,,,,,,,,,,,,,,,,,,,,,,,,,,,,,,,,,,,,,,,,,,,,,,,,,,,,,,,,,,,
,,,,,,60fd3d9e7434801d922cd2e0,62c53a9a394159e382b487d0,2022-07-06_19h33.03.974,Colour_Asymmetry_Pilot,2022.1.3,Win32,143.8641922,62c50e9c1127f2cd403a315f,0,111,111,119,1,fourthree,,,,,,,,,,,,,,,,,,,,,,,,,,,,,,,,,,,,,,,,,,,,,,,,,,,,,,,,,,,,,,,,,,,,,,,,,,,,,,,,,,,,,,,,,,,,,,,,,,,,,,,,,,,,,,,,,,,,,,,,,,,,,,,,,,,,,,,,,,,,,,,,,,,,,,,,,,,,,
,,,,,,60fd3d9e7434801d922cd2e0,62c53a9a394159e382b487d0,2022-07-06_19h33.03.974,Colour_Asymmetry_Pilot,2022.1.3,Win32,143.8641922,62c50e9c1127f2cd403a315f,0,112,112,62,1,fourtwo,,,,,,,,,,,,,,,,,,,,,,,,,,,,,,,,,,,,,,,,,,,,,,,,,,,,,,,,,,,,,,,,,,,,,,,,,,,,,,,,,,,,,,,,,,,,,,,,,,,,,,,,,,,,,,,,,,,,,,,,,,,,,,,,,,,,,,,,,,,,,,,,,,,,,,,,,,,,,
,,,,,,60fd3d9e7434801d922cd2e0,62c53a9a394159e382b487d0,2022-07-06_19h33.03.974,Colour_Asymmetry_Pilot,2022.1.3,Win32,143.8641922,62c50e9c1127f2cd403a315f,0,113,113,10,1,twoone,,,,,,,,,,,,,,,,,,,,,,,,,,,,,,,,,,,,,,,,,,,,,,,,,,,,,,,,,,,,,,,,,,,,,,,,,,,,,,,,,,,,,,,,,,,,,,,,,,,,,,,,,,,,,,,,,,,,,,,,,,,,,,,,,,,,,,,,,,,,,,,,,,,,,,,,,,,,,
,,,,,,60fd3d9e7434801d922cd2e0,62c53a9a394159e382b487d0,2022-07-06_19h33.03.974,Colour_Asymmetry_Pilot,2022.1.3,Win32,143.8641922,62c50e9c1127f2cd403a315f,0,114,114,29,1,threefour,,,,,,,,,,,,,,,,,,,,,,,,,,,,,,,,,,,,,,,,,,,,,,,,,,,,,,,,,,,,,,,,,,,,,,,,,,,,,,,,,,,,,,,,,,,,,,,,,,,,,,,,,,,,,,,,,,,,,,,,,,,,,,,,,,,,,,,,,,,,,,,,,,,,,,,,,,,,,
,,,,,,60fd3d9e7434801d922cd2e0,62c53a9a394159e382b487d0,2022-07-06_19h33.03.974,Colour_Asymmetry_Pilot,2022.1.3,Win32,143.8641922,62c50e9c1127f2cd403a315f,0,115,115,110,1,fourtwo,,,,,,,,,,,,,,,,,,,,,,,,,,,,,,,,,,,,,,,,,,,,,,,,,,,,,,,,,,,,,,,,,,,,,,,,,,,,,,,,,,,,,,,,,,,,,,,,,,,,,,,,,,,,,,,,,,,,,,,,,,,,,,,,,,,,,,,,,,,,,,,,,,,,,,,,,,,,,
,,,,,,60fd3d9e7434801d922cd2e0,62c53a9a394159e382b487d0,2022-07-06_19h33.03.974,Colour_Asymmetry_Pilot,2022.1.3,Win32,143.8641922,62c50e9c1127f2cd403a315f,0,116,116,60,1,threeone,,,,,,,,,,,,,,,,,,,,,,,,,,,,,,,,,,,,,,,,,,,,,,,,,,,,,,,,,,,,,,,,,,,,,,,,,,,,,,,,,,,,,,,,,,,,,,,,,,,,,,,,,,,,,,,,,,,,,,,,,,,,,,,,,,,,,,,,,,,,,,,,,,,,,,,,,,,,,
,,,,,,60fd3d9e7434801d922cd2e0,62c53a9a394159e382b487d0,2022-07-06_19h33.03.974,Colour_Asymmetry_Pilot,2022.1.3,Win32,143.8641922,62c50e9c1127f2cd403a315f,0,117,117,61,1,threefour,,,,,,,,,,,,,,,,,,,,,,,,,,,,,,,,,,,,,,,,,,,,,,,,,,,,,,,,,,,,,,,,,,,,,,,,,,,,,,,,,,,,,,,,,,,,,,,,,,,,,,,,,,,,,,,,,,,,,,,,,,,,,,,,,,,,,,,,,,,,,,,,,,,,,,,,,,,,,
,,,,,,60fd3d9e7434801d922cd2e0,62c53a9a394159e382b487d0,2022-07-06_19h33.03.974,Colour_Asymmetry_Pilot,2022.1.3,Win32,143.8641922,62c50e9c1127f2cd403a315f,0,118,118,91,1,twofour,,,,,,,,,,,,,,,,,,,,,,,,,,,,,,,,,,,,,,,,,,,,,,,,,,,,,,,,,,,,,,,,,,,,,,,,,,,,,,,,,,,,,,,,,,,,,,,,,,,,,,,,,,,,,,,,,,,,,,,,,,,,,,,,,,,,,,,,,,,,,,,,,,,,,,,,,,,,,
,,,,,,60fd3d9e7434801d922cd2e0,62c53a9a394159e382b487d0,2022-07-06_19h33.03.974,Colour_Asymmetry_Pilot,2022.1.3,Win32,143.8641922,62c50e9c1127f2cd403a315f,0,119,119,17,1,onethree,,,,,,,,,,,,,,,,,,,,,,,,,,,,,,,,,,,,,,,,,,,,,,,,,,,,,,,,,,,,,,,,,,,,,,,,,,,,,,,,,,,,,,,,,,,,,,,,,,,,,,,,,,,,,,,,,,,,,,,,,,,,,,,,,,,,,,,,,,,,,,,,,,,,,,,,,,,,,
,,,,,,60fd3d9e7434801d922cd2e0,62c53a9a394159e382b487d0,2022-07-06_19h33.03.974,Colour_Asymmetry_Pilot,2022.1.3,Win32,143.8641922,62c50e9c1127f2cd403a315f,0,120,120,63,1,fourthree,,,,,,,,,,,,,,,,,,,,,,,,,,,,,,,,,,,,,,,,,,,,,,,,,,,,,,,,,,,,,,,,,,,,,,,,,,,,,,,,,,,,,,,,,,,,,,,,,,,,,,,,,,,,,,,,,,,,,,,,,,,,,,,,,,,,,,,,,,,,,,,,,,,,,,,,,,,,,
,,,,,,60fd3d9e7434801d922cd2e0,62c53a9a394159e382b487d0,2022-07-06_19h33.03.974,Colour_Asymmetry_Pilot,2022.1.3,Win32,143.8641922,62c50e9c1127f2cd403a315f,0,121,121,116,1,threeone,,,,,,,,,,,,,,,,,,,,,,,,,,,,,,,,,,,,,,,,,,,,,,,,,,,,,,,,,,,,,,,,,,,,,,,,,,,,,,,,,,,,,,,,,,,,,,,,,,,,,,,,,,,,,,,,,,,,,,,,,,,,,,,,,,,,,,,,,,,,,,,,,,,,,,,,,,,,,
,,,,,,60fd3d9e7434801d922cd2e0,62c53a9a394159e382b487d0,2022-07-06_19h33.03.974,Colour_Asymmetry_Pilot,2022.1.3,Win32,143.8641922,62c50e9c1127f2cd403a315f,0,122,122,105,1,onethree,,,,,,,,,,,,,,,,,,,,,,,,,,,,,,,,,,,,,,,,,,,,,,,,,,,,,,,,,,,,,,,,,,,,,,,,,,,,,,,,,,,,,,,,,,,,,,,,,,,,,,,,,,,,,,,,,,,,,,,,,,,,,,,,,,,,,,,,,,,,,,,,,,,,,,,,,,,,,
,,,,,,60fd3d9e7434801d922cd2e0,62c53a9a394159e382b487d0,2022-07-06_19h33.03.974,Colour_Asymmetry_Pilot,2022.1.3,Win32,143.8641922,62c50e9c1127f2cd403a315f,0,123,123,23,1,fourthree,,,,,,,,,,,,,,,,,,,,,,,,,,,,,,,,,,,,,,,,,,,,,,,,,,,,,,,,,,,,,,,,,,,,,,,,,,,,,,,,,,,,,,,,,,,,,,,,,,,,,,,,,,,,,,,,,,,,,,,,,,,,,,,,,,,,,,,,,,,,,,,,,,,,,,,,,,,,,
,,,,,,60fd3d9e7434801d922cd2e0,62c53a9a394159e382b487d0,2022-07-06_19h33.03.974,Colour_Asymmetry_Pilot,2022.1.3,Win32,143.8641922,62c50e9c1127f2cd403a315f,0,124,124,69,1,threefour,,,,,,,,,,,,,,,,,,,,,,,,,,,,,,,,,,,,,,,,,,,,,,,,,,,,,,,,,,,,,,,,,,,,,,,,,,,,,,,,,,,,,,,,,,,,,,,,,,,,,,,,,,,,,,,,,,,,,,,,,,,,,,,,,,,,,,,,,,,,,,,,,,,,,,,,,,,,,
,,,,,,60fd3d9e7434801d922cd2e0,62c53a9a394159e382b487d0,2022-07-06_19h33.03.974,Colour_Asymmetry_Pilot,2022.1.3,Win32,143.8641922,62c50e9c1127f2cd403a315f,0,125,125,54,1,fourtwo,,,,,,,,,,,,,,,,,,,,,,,,,,,,,,,,,,,,,,,,,,,,,,,,,,,,,,,,,,,,,,,,,,,,,,,,,,,,,,,,,,,,,,,,,,,,,,,,,,,,,,,,,,,,,,,,,,,,,,,,,,,,,,,,,,,,,,,,,,,,,,,,,,,,,,,,,,,,,
,,,,,,60fd3d9e7434801d922cd2e0,62c53a9a394159e382b487d0,2022-07-06_19h33.03.974,Colour_Asymmetry_Pilot,2022.1.3,Win32,143.8641922,62c50e9c1127f2cd403a315f,0,126,126,160,1,onetwo,,,,,,,,,,,,,,,,,,,,,,,,,,,,,,,,,,,,,,,,,,,,,,,,,,,,,,,,,,,,,,,,,,,,,,,,,,,,,,,,,,,,,,,,,,,,,,,,,,,,,,,,,,,,,,,,,,,,,,,,,,,,,,,,,,,,,,,,,,,,,,,,,,,,,,,,,,,,,
,,,,,,60fd3d9e7434801d922cd2e0,62c53a9a394159e382b487d0,2022-07-06_19h33.03.974,Colour_Asymmetry_Pilot,2022.1.3,Win32,143.8641922,62c50e9c1127f2cd403a315f,0,127,127,44,1,threeone,,,,,,,,,,,,,,,,,,,,,,,,,,,,,,,,,,,,,,,,,,,,,,,,,,,,,,,,,,,,,,,,,,,,,,,,,,,,,,,,,,,,,,,,,,,,,,,,,,,,,,,,,,,,,,,,,,,,,,,,,,,,,,,,,,,,,,,,,,,,,,,,,,,,,,,,,,,,,
,,,,,,60fd3d9e7434801d922cd2e0,62c53a9a394159e382b487d0,2022-07-06_19h33.03.974,Colour_Asymmetry_Pilot,2022.1.3,Win32,143.8641922,62c50e9c1127f2cd403a315f,0,128,128,120,1,onetwo,,,,,,,,,,,,,,,,,,,,,,,,,,,,,,,,,,,,,,,,,,,,,,,,,,,,,,,,,,,,,,,,,,,,,,,,,,,,,,,,,,,,,,,,,,,,,,,,,,,,,,,,,,,,,,,,,,,,,,,,,,,,,,,,,,,,,,,,,,,,,,,,,,,,,,,,,,,,,
,,,,,,60fd3d9e7434801d922cd2e0,62c53a9a394159e382b487d0,2022-07-06_19h33.03.974,Colour_Asymmetry_Pilot,2022.1.3,Win32,143.8641922,62c50e9c1127f2cd403a315f,0,129,129,70,1,fourtwo,,,,,,,,,,,,,,,,,,,,,,,,,,,,,,,,,,,,,,,,,,,,,,,,,,,,,,,,,,,,,,,,,,,,,,,,,,,,,,,,,,,,,,,,,,,,,,,,,,,,,,,,,,,,,,,,,,,,,,,,,,,,,,,,,,,,,,,,,,,,,,,,,,,,,,,,,,,,,
,,,,,,60fd3d9e7434801d922cd2e0,62c53a9a394159e382b487d0,2022-07-06_19h33.03.974,Colour_Asymmetry_Pilot,2022.1.3,Win32,143.8641922,62c50e9c1127f2cd403a315f,0,130,130,88,1,onetwo,,,,,,,,,,,,,,,,,,,,,,,,,,,,,,,,,,,,,,,,,,,,,,,,,,,,,,,,,,,,,,,,,,,,,,,,,,,,,,,,,,,,,,,,,,,,,,,,,,,,,,,,,,,,,,,,,,,,,,,,,,,,,,,,,,,,,,,,,,,,,,,,,,,,,,,,,,,,,
,,,,,,60fd3d9e7434801d922cd2e0,62c53a9a394159e382b487d0,2022-07-06_19h33.03.974,Colour_Asymmetry_Pilot,2022.1.3,Win32,143.8641922,62c50e9c1127f2cd403a315f,0,131,131,7,1,fourthree,,,,,,,,,,,,,,,,,,,,,,,,,,,,,,,,,,,,,,,,,,,,,,,,,,,,,,,,,,,,,,,,,,,,,,,,,,,,,,,,,,,,,,,,,,,,,,,,,,,,,,,,,,,,,,,,,,,,,,,,,,,,,,,,,,,,,,,,,,,,,,,,,,,,,,,,,,,,,
,,,,,,60fd3d9e7434801d922cd2e0,62c53a9a394159e382b487d0,2022-07-06_19h33.03.974,Colour_Asymmetry_Pilot,2022.1.3,Win32,143.8641922,62c50e9c1127f2cd403a315f,0,132,132,115,1,twofour,,,,,,,,,,,,,,,,,,,,,,,,,,,,,,,,,,,,,,,,,,,,,,,,,,,,,,,,,,,,,,,,,,,,,,,,,,,,,,,,,,,,,,,,,,,,,,,,,,,,,,,,,,,,,,,,,,,,,,,,,,,,,,,,,,,,,,,,,,,,,,,,,,,,,,,,,,,,,
,,,,,,60fd3d9e7434801d922cd2e0,62c53a9a394159e382b487d0,2022-07-06_19h33.03.974,Colour_Asymmetry_Pilot,2022.1.3,Win32,143.8641922,62c50e9c1127f2cd403a315f,0,133,133,137,1,onethree,,,,,,,,,,,,,,,,,,,,,,,,,,,,,,,,,,,,,,,,,,,,,,,,,,,,,,,,,,,,,,,,,,,,,,,,,,,,,,,,,,,,,,,,,,,,,,,,,,,,,,,,,,,,,,,,,,,,,,,,,,,,,,,,,,,,,,,,,,,,,,,,,,,,,,,,,,,,,
,,,,,,60fd3d9e7434801d922cd2e0,62c53a9a394159e382b487d0,2022-07-06_19h33.03.974,Colour_Asymmetry_Pilot,2022.1.3,Win32,143.8641922,62c50e9c1127f2cd403a315f,0,134,134,86,1,fourtwo,,,,,,,,,,,,,,,,,,,,,,,,,,,,,,,,,,,,,,,,,,,,,,,,,,,,,,,,,,,,,,,,,,,,,,,,,,,,,,,,,,,,,,,,,,,,,,,,,,,,,,,,,,,,,,,,,,,,,,,,,,,,,,,,,,,,,,,,,,,,,,,,,,,,,,,,,,,,,
,,,,,,60fd3d9e7434801d922cd2e0,62c53a9a394159e382b487d0,2022-07-06_19h33.03.974,Colour_Asymmetry_Pilot,2022.1.3,Win32,143.8641922,62c50e9c1127f2cd403a315f,0,135,135,155,1,twofour,,,,,,,,,,,,,,,,,,,,,,,,,,,,,,,,,,,,,,,,,,,,,,,,,,,,,,,,,,,,,,,,,,,,,,,,,,,,,,,,,,,,,,,,,,,,,,,,,,,,,,,,,,,,,,,,,,,,,,,,,,,,,,,,,,,,,,,,,,,,,,,,,,,,,,,,,,,,,
,,,,,,60fd3d9e7434801d922cd2e0,62c53a9a394159e382b487d0,2022-07-06_19h33.03.974,Colour_Asymmetry_Pilot,2022.1.3,Win32,143.8641922,62c50e9c1127f2cd403a315f,0,136,136,100,1,threeone,,,,,,,,,,,,,,,,,,,,,,,,,,,,,,,,,,,,,,,,,,,,,,,,,,,,,,,,,,,,,,,,,,,,,,,,,,,,,,,,,,,,,,,,,,,,,,,,,,,,,,,,,,,,,,,,,,,,,,,,,,,,,,,,,,,,,,,,,,,,,,,,,,,,,,,,,,,,,
,,,,,,60fd3d9e7434801d922cd2e0,62c53a9a394159e382b487d0,2022-07-06_19h33.03.974,Colour_Asymmetry_Pilot,2022.1.3,Win32,143.8641922,62c50e9c1127f2cd403a315f,0,137,137,37,1,threefour,,,,,,,,,,,,,,,,,,,,,,,,,,,,,,,,,,,,,,,,,,,,,,,,,,,,,,,,,,,,,,,,,,,,,,,,,,,,,,,,,,,,,,,,,,,,,,,,,,,,,,,,,,,,,,,,,,,,,,,,,,,,,,,,,,,,,,,,,,,,,,,,,,,,,,,,,,,,,
,,,,,,60fd3d9e7434801d922cd2e0,62c53a9a394159e382b487d0,2022-07-06_19h33.03.974,Colour_Asymmetry_Pilot,2022.1.3,Win32,143.8641922,62c50e9c1127f2cd403a315f,0,138,138,28,1,threeone,,,,,,,,,,,,,,,,,,,,,,,,,,,,,,,,,,,,,,,,,,,,,,,,,,,,,,,,,,,,,,,,,,,,,,,,,,,,,,,,,,,,,,,,,,,,,,,,,,,,,,,,,,,,,,,,,,,,,,,,,,,,,,,,,,,,,,,,,,,,,,,,,,,,,,,,,,,,,
,,,,,,60fd3d9e7434801d922cd2e0,62c53a9a394159e382b487d0,2022-07-06_19h33.03.974,Colour_Asymmetry_Pilot,2022.1.3,Win32,143.8641922,62c50e9c1127f2cd403a315f,0,139,139,122,1,twoone,,,,,,,,,,,,,,,,,,,,,,,,,,,,,,,,,,,,,,,,,,,,,,,,,,,,,,,,,,,,,,,,,,,,,,,,,,,,,,,,,,,,,,,,,,,,,,,,,,,,,,,,,,,,,,,,,,,,,,,,,,,,,,,,,,,,,,,,,,,,,,,,,,,,,,,,,,,,,
,,,,,,60fd3d9e7434801d922cd2e0,62c53a9a394159e382b487d0,2022-07-06_19h33.03.974,Colour_Asymmetry_Pilot,2022.1.3,Win32,143.8641922,62c50e9c1127f2cd403a315f,0,140,140,113,1,onethree,,,,,,,,,,,,,,,,,,,,,,,,,,,,,,,,,,,,,,,,,,,,,,,,,,,,,,,,,,,,,,,,,,,,,,,,,,,,,,,,,,,,,,,,,,,,,,,,,,,,,,,,,,,,,,,,,,,,,,,,,,,,,,,,,,,,,,,,,,,,,,,,,,,,,,,,,,,,,
,,,,,,60fd3d9e7434801d922cd2e0,62c53a9a394159e382b487d0,2022-07-06_19h33.03.974,Colour_Asymmetry_Pilot,2022.1.3,Win32,143.8641922,62c50e9c1127f2cd403a315f,0,141,141,124,1,threeone,,,,,,,,,,,,,,,,,,,,,,,,,,,,,,,,,,,,,,,,,,,,,,,,,,,,,,,,,,,,,,,,,,,,,,,,,,,,,,,,,,,,,,,,,,,,,,,,,,,,,,,,,,,,,,,,,,,,,,,,,,,,,,,,,,,,,,,,,,,,,,,,,,,,,,,,,,,,,
,,,,,,60fd3d9e7434801d922cd2e0,62c53a9a394159e382b487d0,2022-07-06_19h33.03.974,Colour_Asymmetry_Pilot,2022.1.3,Win32,143.8641922,62c50e9c1127f2cd403a315f,0,142,142,78,1,fourtwo,,,,,,,,,,,,,,,,,,,,,,,,,,,,,,,,,,,,,,,,,,,,,,,,,,,,,,,,,,,,,,,,,,,,,,,,,,,,,,,,,,,,,,,,,,,,,,,,,,,,,,,,,,,,,,,,,,,,,,,,,,,,,,,,,,,,,,,,,,,,,,,,,,,,,,,,,,,,,
,,,,,,60fd3d9e7434801d922cd2e0,62c53a9a394159e382b487d0,2022-07-06_19h33.03.974,Colour_Asymmetry_Pilot,2022.1.3,Win32,143.8641922,62c50e9c1127f2cd403a315f,0,143,143,6,1,fourtwo,,,,,,,,,,,,,,,,,,,,,,,,,,,,,,,,,,,,,,,,,,,,,,,,,,,,,,,,,,,,,,,,,,,,,,,,,,,,,,,,,,,,,,,,,,,,,,,,,,,,,,,,,,,,,,,,,,,,,,,,,,,,,,,,,,,,,,,,,,,,,,,,,,,,,,,,,,,,,
,,,,,,60fd3d9e7434801d922cd2e0,62c53a9a394159e382b487d0,2022-07-06_19h33.03.974,Colour_Asymmetry_Pilot,2022.1.3,Win32,143.8641922,62c50e9c1127f2cd403a315f,0,144,144,141,1,threefour,,,,,,,,,,,,,,,,,,,,,,,,,,,,,,,,,,,,,,,,,,,,,,,,,,,,,,,,,,,,,,,,,,,,,,,,,,,,,,,,,,,,,,,,,,,,,,,,,,,,,,,,,,,,,,,,,,,,,,,,,,,,,,,,,,,,,,,,,,,,,,,,,,,,,,,,,,,,,
,,,,,,60fd3d9e7434801d922cd2e0,62c53a9a394159e382b487d0,2022-07-06_19h33.03.974,Colour_Asymmetry_Pilot,2022.1.3,Win32,143.8641922,62c50e9c1127f2cd403a315f,0,145,145,121,1,onethree,,,,,,,,,,,,,,,,,,,,,,,,,,,,,,,,,,,,,,,,,,,,,,,,,,,,,,,,,,,,,,,,,,,,,,,,,,,,,,,,,,,,,,,,,,,,,,,,,,,,,,,,,,,,,,,,,,,,,,,,,,,,,,,,,,,,,,,,,,,,,,,,,,,,,,,,,,,,,
,,,,,,60fd3d9e7434801d922cd2e0,62c53a9a394159e382b487d0,2022-07-06_19h33.03.974,Colour_Asymmetry_Pilot,2022.1.3,Win32,143.8641922,62c50e9c1127f2cd403a315f,0,146,146,83,1,twofour,,,,,,,,,,,,,,,,,,,,,,,,,,,,,,,,,,,,,,,,,,,,,,,,,,,,,,,,,,,,,,,,,,,,,,,,,,,,,,,,,,,,,,,,,,,,,,,,,,,,,,,,,,,,,,,,,,,,,,,,,,,,,,,,,,,,,,,,,,,,,,,,,,,,,,,,,,,,,
,,,,,,60fd3d9e7434801d922cd2e0,62c53a9a394159e382b487d0,2022-07-06_19h33.03.974,Colour_Asymmetry_Pilot,2022.1.3,Win32,143.8641922,62c50e9c1127f2cd403a315f,0,147,147,123,1,twofour,,,,,,,,,,,,,,,,,,,,,,,,,,,,,,,,,,,,,,,,,,,,,,,,,,,,,,,,,,,,,,,,,,,,,,,,,,,,,,,,,,,,,,,,,,,,,,,,,,,,,,,,,,,,,,,,,,,,,,,,,,,,,,,,,,,,,,,,,,,,,,,,,,,,,,,,,,,,,
,,,,,,60fd3d9e7434801d922cd2e0,62c53a9a394159e382b487d0,2022-07-06_19h33.03.974,Colour_Asymmetry_Pilot,2022.1.3,Win32,143.8641922,62c50e9c1127f2cd403a315f,0,148,148,74,1,twoone,,,,,,,,,,,,,,,,,,,,,,,,,,,,,,,,,,,,,,,,,,,,,,,,,,,,,,,,,,,,,,,,,,,,,,,,,,,,,,,,,,,,,,,,,,,,,,,,,,,,,,,,,,,,,,,,,,,,,,,,,,,,,,,,,,,,,,,,,,,,,,,,,,,,,,,,,,,,,
,,,,,,60fd3d9e7434801d922cd2e0,62c53a9a394159e382b487d0,2022-07-06_19h33.03.974,Colour_Asymmetry_Pilot,2022.1.3,Win32,143.8641922,62c50e9c1127f2cd403a315f,0,149,149,25,1,onethree,,,,,,,,,,,,,,,,,,,,,,,,,,,,,,,,,,,,,,,,,,,,,,,,,,,,,,,,,,,,,,,,,,,,,,,,,,,,,,,,,,,,,,,,,,,,,,,,,,,,,,,,,,,,,,,,,,,,,,,,,,,,,,,,,,,,,,,,,,,,,,,,,,,,,,,,,,,,,
,,,,,,60fd3d9e7434801d922cd2e0,62c53a9a394159e382b487d0,2022-07-06_19h33.03.974,Colour_Asymmetry_Pilot,2022.1.3,Win32,143.8641922,62c50e9c1127f2cd403a315f,0,150,150,99,1,twofour,,,,,,,,,,,,,,,,,,,,,,,,,,,,,,,,,,,,,,,,,,,,,,,,,,,,,,,,,,,,,,,,,,,,,,,,,,,,,,,,,,,,,,,,,,,,,,,,,,,,,,,,,,,,,,,,,,,,,,,,,,,,,,,,,,,,,,,,,,,,,,,,,,,,,,,,,,,,,
,,,,,,60fd3d9e7434801d922cd2e0,62c53a9a394159e382b487d0,2022-07-06_19h33.03.974,Colour_Asymmetry_Pilot,2022.1.3,Win32,143.8641922,62c50e9c1127f2cd403a315f,0,151,151,89,1,onethree,,,,,,,,,,,,,,,,,,,,,,,,,,,,,,,,,,,,,,,,,,,,,,,,,,,,,,,,,,,,,,,,,,,,,,,,,,,,,,,,,,,,,,,,,,,,,,,,,,,,,,,,,,,,,,,,,,,,,,,,,,,,,,,,,,,,,,,,,,,,,,,,,,,,,,,,,,,,,
,,,,,,60fd3d9e7434801d922cd2e0,62c53a9a394159e382b487d0,2022-07-06_19h33.03.974,Colour_Asymmetry_Pilot,2022.1.3,Win32,143.8641922,62c50e9c1127f2cd403a315f,0,152,152,12,1,threeone,,,,,,,,,,,,,,,,,,,,,,,,,,,,,,,,,,,,,,,,,,,,,,,,,,,,,,,,,,,,,,,,,,,,,,,,,,,,,,,,,,,,,,,,,,,,,,,,,,,,,,,,,,,,,,,,,,,,,,,,,,,,,,,,,,,,,,,,,,,,,,,,,,,,,,,,,,,,,
,,,,,,60fd3d9e7434801d922cd2e0,62c53a9a394159e382b487d0,2022-07-06_19h33.03.974,Colour_Asymmetry_Pilot,2022.1.3,Win32,143.8641922,62c50e9c1127f2cd403a315f,0,153,153,139,1,twofour,,,,,,,,,,,,,,,,,,,,,,,,,,,,,,,,,,,,,,,,,,,,,,,,,,,,,,,,,,,,,,,,,,,,,,,,,,,,,,,,,,,,,,,,,,,,,,,,,,,,,,,,,,,,,,,,,,,,,,,,,,,,,,,,,,,,,,,,,,,,,,,,,,,,,,,,,,,,,
,,,,,,60fd3d9e7434801d922cd2e0,62c53a9a394159e382b487d0,2022-07-06_19h33.03.974,Colour_Asymmetry_Pilot,2022.1.3,Win32,143.8641922,62c50e9c1127f2cd403a315f,0,154,154,111,1,fourthree,,,,,,,,,,,,,,,,,,,,,,,,,,,,,,,,,,,,,,,,,,,,,,,,,,,,,,,,,,,,,,,,,,,,,,,,,,,,,,,,,,,,,,,,,,,,,,,,,,,,,,,,,,,,,,,,,,,,,,,,,,,,,,,,,,,,,,,,,,,,,,,,,,,,,,,,,,,,,
,,,,,,60fd3d9e7434801d922cd2e0,62c53a9a394159e382b487d0,2022-07-06_19h33.03.974,Colour_Asymmetry_Pilot,2022.1.3,Win32,143.8641922,62c50e9c1127f2cd403a315f,0,155,155,136,1,onetwo,,,,,,,,,,,,,,,,,,,,,,,,,,,,,,,,,,,,,,,,,,,,,,,,,,,,,,,,,,,,,,,,,,,,,,,,,,,,,,,,,,,,,,,,,,,,,,,,,,,,,,,,,,,,,,,,,,,,,,,,,,,,,,,,,,,,,,,,,,,,,,,,,,,,,,,,,,,,,
,,,,,,60fd3d9e7434801d922cd2e0,62c53a9a394159e382b487d0,2022-07-06_19h33.03.974,Colour_Asymmetry_Pilot,2022.1.3,Win32,143.8641922,62c50e9c1127f2cd403a315f,0,156,156,15,1,fourthree,,,,,,,,,,,,,,,,,,,,,,,,,,,,,,,,,,,,,,,,,,,,,,,,,,,,,,,,,,,,,,,,,,,,,,,,,,,,,,,,,,,,,,,,,,,,,,,,,,,,,,,,,,,,,,,,,,,,,,,,,,,,,,,,,,,,,,,,,,,,,,,,,,,,,,,,,,,,,
,,,,,,60fd3d9e7434801d922cd2e0,62c53a9a394159e382b487d0,2022-07-06_19h33.03.974,Colour_Asymmetry_Pilot,2022.1.3,Win32,143.8641922,62c50e9c1127f2cd403a315f,0,157,157,134,1,fourtwo,,,,,,,,,,,,,,,,,,,,,,,,,,,,,,,,,,,,,,,,,,,,,,,,,,,,,,,,,,,,,,,,,,,,,,,,,,,,,,,,,,,,,,,,,,,,,,,,,,,,,,,,,,,,,,,,,,,,,,,,,,,,,,,,,,,,,,,,,,,,,,,,,,,,,,,,,,,,,
,,,,,,60fd3d9e7434801d922cd2e0,62c53a9a394159e382b487d0,2022-07-06_19h33.03.974,Colour_Asymmetry_Pilot,2022.1.3,Win32,143.8641922,62c50e9c1127f2cd403a315f,0,158,158,47,1,fourthree,,,,,,,,,,,,,,,,,,,,,,,,,,,,,,,,,,,,,,,,,,,,,,,,,,,,,,,,,,,,,,,,,,,,,,,,,,,,,,,,,,,,,,,,,,,,,,,,,,,,,,,,,,,,,,,,,,,,,,,,,,,,,,,,,,,,,,,,,,,,,,,,,,,,,,,,,,,,,
,,,,,,60fd3d9e7434801d922cd2e0,62c53a9a394159e382b487d0,2022-07-06_19h33.03.974,Colour_Asymmetry_Pilot,2022.1.3,Win32,143.8641922,62c50e9c1127f2cd403a315f,0,159,159,13,1,threefour,,,,,,,,,,,,,,,,,,,,,,,,,,,,,,,,,,,,,,,,,,,,,,,,,,,,,,,,,,,,,,,,,,,,,,,,,,,,,,,,,,,,,,,,,,,,,,,,,,,,,,,,,,,,,,,,,,,,,,,,,,,,,,,,,,,,,,,,,,,,,,,,,,,,,,,,,,,,,
,,,,,,60fd3d9e7434801d922cd2e0,62c53a9a394159e382b487d0,2022-07-06_19h33.03.974,Colour_Asymmetry_Pilot,2022.1.3,Win32,143.8641922,62c50e9c1127f2cd403a315f,0,160,160,31,1,fourthree,,,,,,,,,,,,,,,,,,,,,,,,,,,,,,,,,,,,,,,,,,,,,,,,,,,,,,,,,,,,,,,,,,,,,,,,,,,,,,,,,,,,,,,,,,,,,,,,,,,,,,,,,,,,,,,,,,,,,,,,,,,,,,,,,,,,,,,,,,,,,,,,,,,,,,,,,,,,,
,,,,,,60fd3d9e7434801d922cd2e0,62c53a9a394159e382b487d0,2022-07-06_19h33.03.974,Colour_Asymmetry_Pilot,2022.1.3,Win32,143.8641922,62c50e9c1127f2cd403a315f,0,161,161,58,1,twoone,,,,,,,,,,,,,,,,,,,,,,,,,,,,,,,,,,,,,,,,,,,,,,,,,,,,,,,,,,,,,,,,,,,,,,,,,,,,,,,,,,,,,,,,,,,,,,,,,,,,,,,,,,,,,,,,,,,,,,,,,,,,,,,,,,,,,,,,,,,,,,,,,,,,,,,,,,,,,
,,,,,,60fd3d9e7434801d922cd2e0,62c53a9a394159e382b487d0,2022-07-06_19h33.03.974,Colour_Asymmetry_Pilot,2022.1.3,Win32,143.8641922,62c50e9c1127f2cd403a315f,,,,,,,space,2.0345,space,4.9075,space,15.3098,space,5.1591,space,1.9985,space,1.7527,"[0.5449999999999999,-0.31000000000000005,-0.0354000000000001]",twoone,"[0.18419999999999992,-0.4276,-0.404]",2,5.1473,85.60003662,-40.80001831,1,0,0,response3disk_5,-8.799987793,-9.600006104,1,0,0,rectangle_8,-8.799987793,-9.600006104,1,0,0,3,-8.799987793,-9.600006104,1,0,0,0,0,0,0,1,,,,,,,,,,,,,,,,,,,,,,,,,,,,,,,,,,,,,,,,,,,,,,,,,,,,,,,,,,,,,,,,,,,,,,,,,,,,,,,,,,,,,,,,,,,,,,,,,,,,,,,,,,,,,,,,
,,,,,,60fd3d9e7434801d922cd2e0,62c53a9a394159e382b487d0,2022-07-06_19h33.03.974,Colour_Asymmetry_Pilot,2022.1.3,Win32,143.8641922,62c50e9c1127f2cd403a315f,,,,,,,,,,,,,,,,,,,"[0.12939999999999996,-0.2864,0.3253999999999999]",fourthree,"[-0.9766,-0.34920000000000007,0.2156]",1,3.9581,52.79998779,-84.79998779,1,0,0,response3disk_5,-28,8,1,0,0,rectangle_8,-28,8,1,0,0,3,-28,8,1,0,0,1,0,1,0,1,,,,,,,,,,,,,,,,,,,,,,,,,,,,,,,,,,,,,,,,,,,,,,,,,,,,,,,,,,,,,,,,,,,,,,,,,,,,,,,,,,,,,,,,,,,,,,,,,,,,,,,,,,,,,,,,
,,,,,,60fd3d9e7434801d922cd2e0,62c53a9a394159e382b487d0,2022-07-06_19h33.03.974,Colour_Asymmetry_Pilot,2022.1.3,Win32,143.8641922,62c50e9c1127f2cd403a315f,,,,,,,,,,,,,,,,,,,"[-0.6706000000000001,-0.6157999999999999,-0.6786]",threefour,"[-0.7412000000000001,-0.08239999999999992,-0.6864]",-3,6.1111,-100.7999878,65.6000061,1,0,0,response7disk_5,5.600036621,-2.399993896,1,0,0,rectangle_8,5.600036621,-2.399993896,1,0,0,3,5.600036621,-2.399993896,1,0,0,2,0,2,0,1,,,,,,,,,,,,,,,,,,,,,,,,,,,,,,,,,,,,,,,,,,,,,,,,,,,,,,,,,,,,,,,,,,,,,,,,,,,,,,,,,,,,,,,,,,,,,,,,,,,,,,,,,,,,,,,,
,,,,,,60fd3d9e7434801d922cd2e0,62c53a9a394159e382b487d0,2022-07-06_19h33.03.974,Colour_Asymmetry_Pilot,2022.1.3,Win32,143.8641922,62c50e9c1127f2cd403a315f,,,,,,,,,,,,,,,,,,,"[0.9763999999999999,-0.1137999999999999,-0.6314]",threefour,"[-0.9688,-0.7412000000000001,-0.4902000000000001]",-4,1.2227,-31.20001221,68.79998779,1,0,0,response7disk_5,5.600036621,5.600006104,1,0,0,rectangle_8,92,27.19998169,1,0,0,3,-3.200012207,-1.600006104,1,0,0,3,0,3,0,1,response1disk_7,6,rectangle_4,,,,,,,,,,,,,,,,,,,,,,,,,,,,,,,,,,,,,,,,,,,,,,,,,,,,,,,,,,,,,,,,,,,,,,,,,,,,,,,,,,,,,,,,,,,,,,,,,,,,,,,,,,,,,
,,,,,,60fd3d9e7434801d922cd2e0,62c53a9a394159e382b487d0,2022-07-06_19h33.03.974,Colour_Asymmetry_Pilot,2022.1.3,Win32,143.8641922,62c50e9c1127f2cd403a315f,,,,,,,,,,,,,,,,,,,"[0.8115999999999999,-0.0040000000000000036,-0.09819999999999995]",twofour,"[0.05879999999999996,0.2784,0.5841999999999998]",-4,3.4647,-62.39996338,76,1,0,0,response7disk_5,20,-8.800018311,1,0,0,rectangle_8,84.79998779,34.3999939,1,0,0,3,-6.399963379,0.799987793,1,0,0,4,0,4,0,1,response1disk_7,6,rectangle_4,,,,,,,,,,,,,,,,,,,,,,,,,,,,,,,,,,,,,,,,,,,,,,,,,,,,,,,,,,,,,,,,,,,,,,,,,,,,,,,,,,,,,,,,,,,,,,,,,,,,,,,,,,,,,
,,,,,,60fd3d9e7434801d922cd2e0,62c53a9a394159e382b487d0,2022-07-06_19h33.03.974,Colour_Asymmetry_Pilot,2022.1.3,Win32,143.8641922,62c50e9c1127f2cd403a315f,,,,,,,,,,,,,,,,,,,"[-0.6706000000000001,-0.6157999999999999,-0.6786]",threeone,"[-0.9688,-0.4902000000000001,-0.12159999999999993]",-3,3.0692,-65.59997559,57.6000061,1,0,0,response7disk_5,-12.79998779,-1.600006104,1,0,0,rectangle_8,-12.79998779,-1.600006104,1,0,0,3,-12.79998779,-1.600006104,1,0,0,5,0,5,0,1,,,,,,,,,,,,,,,,,,,,,,,,,,,,,,,,,,,,,,,,,,,,,,,,,,,,,,,,,,,,,,,,,,,,,,,,,,,,,,,,,,,,,,,,,,,,,,,,,,,,,,,,,,,,,,,,
,,,,,,60fd3d9e7434801d922cd2e0,62c53a9a394159e382b487d0,2022-07-06_19h33.03.974,Colour_Asymmetry_Pilot,2022.1.3,Win32,143.8641922,62c50e9c1127f2cd403a315f,,,,,,,,,,,,,,,,,,,"[-0.6235999999999999,-0.6786,-0.08239999999999992]",twoone,"[0.3881999999999999,-0.23939999999999995,-0.05040000000000011]",-4,1.9992,-30.39996338,70.3999939,1,0,0,response7disk_5,-8,-6.399993896,1,0,0,rectangle_8,-8,-6.399993896,1,0,0,3,-8,-6.399993896,1,0,0,6,0,6,0,1,,,,,,,,,,,,,,,,,,,,,,,,,,,,,,,,,,,,,,,,,,,,,,,,,,,,,,,,,,,,,,,,,,,,,,,,,,,,,,,,,,,,,,,,,,,,,,,,,,,,,,,,,,,,,,,,
,,,,,,60fd3d9e7434801d922cd2e0,62c53a9a394159e382b487d0,2022-07-06_19h33.03.974,Colour_Asymmetry_Pilot,2022.1.3,Win32,143.8641922,62c50e9c1127f2cd403a315f,,,,,,,,,,,,,,,,,,,,threeone,,4,1.5774,,,,,,,,,,,,,,,,,,,,,,,,,,,,,,,,space,4.2932,"[-0.38039999999999996,-0.4276,-0.1452]","[-0.38039999999999996,-0.4276,-0.1452]",52,104.7999878,1,0,0,response1disk,6.400024414,4,1,0,0,rectangle,6.400024414,4,1,0,0,,1,0.0009,0,6.400024414,4,1,0,0,0,0,0,41,1,41,first,,,,,,,,,,,,,,,,,,,,,,,,,,,,,,,,,,,,,,,,,,,,,,,,,,,,,,,,,,,,,,,,,,,,,,,,
,,,,,,60fd3d9e7434801d922cd2e0,62c53a9a394159e382b487d0,2022-07-06_19h33.03.974,Colour_Asymmetry_Pilot,2022.1.3,Win32,143.8641922,62c50e9c1127f2cd403a315f,,,,,,,,,,,,,,,,,,,,twofour,,1,3.2437,,,,,,,,,,,,,,,,,,,,,,,,,,,,,,,,,,"[0.23120000000000007,-0.7726,-0.34120000000000006]","[-0.20799999999999996,-0.655,-0.01980000000000004]",54.40002441,-71.20001221,1,0,0,response3disk,12,-4,1,0,0,rectangle,12,-4,1,0,0,,3,0.0007,0,12,-4,1,0,0,0,1,1,73,1,73,first,,,,,,,,,,,,,,,,,,,,,,,,,,,,,,,,,,,,,,,,,,,,,,,,,,,,,,,,,,,,,,,,,,,,,,,,
,,,,,,60fd3d9e7434801d922cd2e0,62c53a9a394159e382b487d0,2022-07-06_19h33.03.974,Colour_Asymmetry_Pilot,2022.1.3,Win32,143.8641922,62c50e9c1127f2cd403a315f,,,,,,,,,,,,,,,,,,,,onetwo,,-1,5.3811,,,,,,,,,,,,,,,,,,,,,,,,,,,,,,,,,,"[-0.07459999999999989,0.12139999999999995,-0.9922]","[1,0.12939999999999996,-1]",-19.20001221,-71.20001221,1,0,0,response5disk,-5.599975586,-1.600006104,1,0,0,rectangle,-5.599975586,-1.600006104,1,0,0,,1,0.001,0,-5.599975586,-1.600006104,1,0,0,0,2,2,9,1,9,first,,,,,,,,,,,,,,,,,,,,,,,,,,,,,,,,,,,,,,,,,,,,,,,,,,,,,,,,,,,,,,,,,,,,,,,,
,,,,,,60fd3d9e7434801d922cd2e0,62c53a9a394159e382b487d0,2022-07-06_19h33.03.974,Colour_Asymmetry_Pilot,2022.1.3,Win32,143.8641922,62c50e9c1127f2cd403a315f,,,,,,,,,,,,,,,,,,,,onethree,,2,1.826,,,,,,,,,,,,,,,,,,,,,,,,,,,,,,,,,,"[-0.10599999999999998,-0.10599999999999998,0.5841999999999998]","[-0.10599999999999998,-0.15300000000000002,0.15280000000000005]",80.79998779,-56,1,0,0,response3disk,12,4.799987793,1,0,0,rectangle,12,4.799987793,1,0,0,,3,0.0006,0,12,4.799987793,1,0,0,0,3,3,82,1,1,second,,,,,,,,,,,,,,,,,,,,,,,,,,,,,,,,,,,,,,,,,,,,,,,,,,,,,,,,,,,,,,,,,,,,,,,,
,,,,,,60fd3d9e7434801d922cd2e0,62c53a9a394159e382b487d0,2022-07-06_19h33.03.974,Colour_Asymmetry_Pilot,2022.1.3,Win32,143.8641922,62c50e9c1127f2cd403a315f,,,,,,,,,,,,,,,,,,,,onethree,,-4,1.8534,,,,,,,,,,,,,,,,,,,,,,,,,,,,,,,,,,"[0.9763999999999999,0.30979999999999985,-0.6786]","[-0.6706000000000001,-0.6157999999999999,-0.6786]",-55.20001221,102.3999939,1,0,0,response7disk,-1.599975586,0,1,0,0,rectangle,-1.599975586,0,1,0,0,,3,0.0002,0,-1.599975586,0,1,0,0,0,4,4,91,1,10,second,,,,,,,,,,,,,,,,,,,,,,,,,,,,,,,,,,,,,,,,,,,,,,,,,,,,,,,,,,,,,,,,,,,,,,,,
,,,,,,60fd3d9e7434801d922cd2e0,62c53a9a394159e382b487d0,2022-07-06_19h33.03.974,Colour_Asymmetry_Pilot,2022.1.3,Win32,143.8641922,62c50e9c1127f2cd403a315f,,,,,,,,,,,,,,,,,,,,fourthree,,-3,3.4439,,,,,,,,,,,,,,,,,,,,,,,,,,,,,,,,,,"[0.7018,0.7176,0.6155999999999999]","[-0.9688,-0.7412000000000001,-0.4902000000000001]",-64.79998779,34.3999939,1,0,0,response7disk,4,6.399993896,1,0,0,rectangle,4,6.399993896,1,0,0,,3,0.0001,0,4,6.399993896,1,0,0,0,5,5,45,1,45,first,,,,,,,,,,,,,,,,,,,,,,,,,,,,,,,,,,,,,,,,,,,,,,,,,,,,,,,,,,,,,,,,,,,,,,,,
,,,,,,60fd3d9e7434801d922cd2e0,62c53a9a394159e382b487d0,2022-07-06_19h33.03.974,Colour_Asymmetry_Pilot,2022.1.3,Win32,143.8641922,62c50e9c1127f2cd403a315f,,,,,,,,,,,,,,,,,,,,twoone,,-2,2.1323,,,,,,,,,,,,,,,,,,,,,,,,,,,,,,,,,,"[-0.9138,-0.5296000000000001,-0.5529999999999999]","[-0.38039999999999996,-0.4276,-0.1452]",-60,-32.80001831,1,0,0,response5disk,-23.20001221,-4,1,0,0,rectangle,38.40002441,-89.60003662,1,0,0,1,1,2.6317,1,10.40002441,0.799987793,1,0,0,0,6,6,76,1,76,first,response3disk_3,rectangle,,,,,,,,,,,,,,,,,,,,,,,,,,,,,,,,,,,,,,,,,,,,,,,,,,,,,,,,,,,,,,,,,,,,,,
,,,,,,60fd3d9e7434801d922cd2e0,62c53a9a394159e382b487d0,2022-07-06_19h33.03.974,Colour_Asymmetry_Pilot,2022.1.3,Win32,143.8641922,62c50e9c1127f2cd403a315f,,,,,,,,,,,,,,,,,,,,fourthree,,-4,2.7913,,,,,,,,,,,,,,,,,,,,,,,,,,,,,,,,,,"[0.19199999999999995,0.18419999999999992,0.5136000000000001]","[-0.45899999999999996,-0.3256,-0.9374]",-56.79998779,77.6000061,1,0,0,response7disk,-19.20001221,2.399993896,1,0,0,rectangle,74.40002441,-44.80001831,1,0,0,2,2,1.5616,1,-8.799987793,10.3999939,1,0,0,0,7,7,36,1,36,first,response3disk_3,rectangle,,,,,,,,,,,,,,,,,,,,,,,,,,,,,,,,,,,,,,,,,,,,,,,,,,,,,,,,,,,,,,,,,,,,,,
,,,,,,60fd3d9e7434801d922cd2e0,62c53a9a394159e382b487d0,2022-07-06_19h33.03.974,Colour_Asymmetry_Pilot,2022.1.3,Win32,143.8641922,62c50e9c1127f2cd403a315f,,,,,,,,,,,,,,,,,,,,twoone,,-4,0.9585,,,,,,,,,,,,,,,,,,,,,,,,,,,,,,,,,,"[0.9842,0.7409999999999999,-0.6628000000000001]","[-0.6235999999999999,-0.6786,-0.08239999999999992]",-34.39996338,52,1,0,0,response7disk,-2.399963379,-4.800018311,1,0,0,rectangle,-2.399963379,-4.800018311,1,0,0,2,3,0.0006,0,-2.399963379,-4.800018311,1,0,0,0,8,8,43,1,43,first,,,,,,,,,,,,,,,,,,,,,,,,,,,,,,,,,,,,,,,,,,,,,,,,,,,,,,,,,,,,,,,,,,,,,,,,
,,,,,,60fd3d9e7434801d922cd2e0,62c53a9a394159e382b487d0,2022-07-06_19h33.03.974,Colour_Asymmetry_Pilot,2022.1.3,Win32,143.8641922,62c50e9c1127f2cd403a315f,,,,,,,,,,,,,,,,,,,,onethree,,1,1.1602,,,,,,,,,,,,,,,,,,,,,,,,,,,,,,,,,,"[0.22340000000000004,-0.9296,-0.7884]","[0.9372,0.20779999999999998,0.2704]",60.79998779,-82.40002441,1,0,0,response3disk,10.40002441,-3.200012207,1,0,0,rectangle,10.40002441,-3.200012207,1,0,0,2,2,0.0006,0,10.40002441,-3.200012207,1,0,0,0,9,9,79,1,79,first,,,,,,,,,,,,,,,,,,,,,,,,,,,,,,,,,,,,,,,,,,,,,,,,,,,,,,,,,,,,,,,,,,,,,,,,
,,,,,,60fd3d9e7434801d922cd2e0,62c53a9a394159e382b487d0,2022-07-06_19h33.03.974,Colour_Asymmetry_Pilot,2022.1.3,Win32,143.8641922,62c50e9c1127f2cd403a315f,,,,,,,,,,,,,,,,,,,,twoone,,-2,2.1671,,,,,,,,,,,,,,,,,,,,,,,,,,,,,,,,,,"[-0.38039999999999996,-0.4276,-0.1452]","[0.2862,0.7802,0.3568]",-91.20001221,-44.80001831,1,0,0,response5disk,-3.200012207,-6.399993896,1,0,0,rectangle,-3.200012207,-6.399993896,1,0,0,2,1,0.0008,0,-3.200012207,-6.399993896,1,0,0,0,10,10,89,1,8,second,,,,,,,,,,,,,,,,,,,,,,,,,,,,,,,,,,,,,,,,,,,,,,,,,,,,,,,,,,,,,,,,,,,,,,,,
,,,,,,60fd3d9e7434801d922cd2e0,62c53a9a394159e382b487d0,2022-07-06_19h33.03.974,Colour_Asymmetry_Pilot,2022.1.3,Win32,143.8641922,62c50e9c1127f2cd403a315f,,,,,,,,,,,,,,,,,,,,onethree,,-3,1.3608,,,,,,,,,,,,,,,,,,,,,,,,,,,,,,,,,,"[0.22340000000000004,-0.9296,-0.7884]","[-0.10599999999999998,-0.15300000000000002,0.15280000000000005]",-93.59997559,39.19998169,1,0,0,response7disk,10.40002441,-12.80001831,1,0,0,rectangle,10.40002441,-12.80001831,1,0,0,2,1,0.0003,0,10.40002441,-12.80001831,1,0,0,0,11,11,152,1,71,second,,,,,,,,,,,,,,,,,,,,,,,,,,,,,,,,,,,,,,,,,,,,,,,,,,,,,,,,,,,,,,,,,,,,,,,,
,,,,,,60fd3d9e7434801d922cd2e0,62c53a9a394159e382b487d0,2022-07-06_19h33.03.974,Colour_Asymmetry_Pilot,2022.1.3,Win32,143.8641922,62c50e9c1127f2cd403a315f,,,,,,,,,,,,,,,,,,,,fourtwo,,-4,0.444,,,,,,,,,,,,,,,,,,,,,,,,,,,,,,,,,,"[0.9763999999999999,0.30979999999999985,-0.6786]","[-0.9688,-0.7412000000000001,-0.4902000000000001]",-36.79998779,81.6000061,1,0,0,response7disk,-19.20001221,-4.800018311,1,0,0,rectangle,-19.20001221,-4.800018311,1,0,0,2,1,9.99999E-05,0,-19.20001221,-4.800018311,1,0,0,0,12,12,148,1,67,second,,,,,,,,,,,,,,,,,,,,,,,,,,,,,,,,,,,,,,,,,,,,,,,,,,,,,,,,,,,,,,,,,,,,,,,,
,,,,,,60fd3d9e7434801d922cd2e0,62c53a9a394159e382b487d0,2022-07-06_19h33.03.974,Colour_Asymmetry_Pilot,2022.1.3,Win32,143.8641922,62c50e9c1127f2cd403a315f,,,,,,,,,,,,,,,,,,,,fourtwo,,2,2.4098,,,,,,,,,,,,,,,,,,,,,,,,,,,,,,,,,,"[-0.09019999999999995,0.44300000000000006,0.5371999999999999]","[-0.10599999999999998,-0.15300000000000002,0.15280000000000005]",64.79998779,-24,1,0,0,response3disk,19.20001221,4.799987793,1,0,0,rectangle,19.20001221,4.799987793,1,0,0,2,2,0.0005,0,19.20001221,4.799987793,1,0,0,0,13,13,19,1,19,first,,,,,,,,,,,,,,,,,,,,,,,,,,,,,,,,,,,,,,,,,,,,,,,,,,,,,,,,,,,,,,,,,,,,,,,,
,,,,,,60fd3d9e7434801d922cd2e0,62c53a9a394159e382b487d0,2022-07-06_19h33.03.974,Colour_Asymmetry_Pilot,2022.1.3,Win32,143.8641922,62c50e9c1127f2cd403a315f,,,,,,,,,,,,,,,,,,,,twoone,,3,1.3544,,,,,,,,,,,,,,,,,,,,,,,,,,,,,,,,,,"[-0.050999999999999934,-0.6706000000000001,-0.804]","[0.9763999999999999,-0.1137999999999999,-0.6314]",73.60003662,40.79998779,1,0,0,response1disk,-8.799987793,-3.200012207,1,0,0,rectangle,-8.799987793,-3.200012207,1,0,0,2,3,0.0009,0,-8.799987793,-3.200012207,1,0,0,0,14,14,29,1,29,first,,,,,,,,,,,,,,,,,,,,,,,,,,,,,,,,,,,,,,,,,,,,,,,,,,,,,,,,,,,,,,,,,,,,,,,,
