trials.thisRepN,trials.thisTrialN,trials.thisN,trials.thisIndex,trials.ran,Colourcodes,participant,session,date,expName,psychopyVersion,OS,frameRate,study_id,trials_4.thisRepN,trials_4.thisTrialN,trials_4.thisN,trials_4.thisIndex,trials_4.ran,StimulusPos,key_resp.keys,key_resp.rt,key_resp_2.keys,key_resp_2.rt,key_resp_15.keys,key_resp_15.rt,key_resp_17.keys,key_resp_17.rt,key_resp_9.keys,key_resp_9.rt,key_resp_10.keys,key_resp_10.rt,Circle1_col,Ecc,Circle2_col,similarity,response_time,mouse_5.x,mouse_5.y,mouse_5.leftButton,mouse_5.midButton,mouse_5.rightButton,mouse_5.clicked_name,mouse_10.x,mouse_10.y,mouse_10.leftButton,mouse_10.midButton,mouse_10.rightButton,mouse_10.clicked_name,mouse_7.x,mouse_7.y,mouse_7.leftButton,mouse_7.midButton,mouse_7.rightButton,catchnumberprac,mouse_6.x,mouse_6.y,mouse_6.leftButton,mouse_6.midButton,mouse_6.rightButton,duringprac.thisRepN,duringprac.thisTrialN,duringprac.thisN,duringprac.thisIndex,duringprac.ran,mouse_7.clicked_name,catchprac,mouse_6.clicked_name,key_resp_22.keys,key_resp_22.rt,Circle1_colour,Circle2_colour,mouse.x,mouse.y,mouse.leftButton,mouse.midButton,mouse.rightButton,mouse.clicked_name,mouse_2.x,mouse_2.y,mouse_2.leftButton,mouse_2.midButton,mouse_2.rightButton,mouse_2.clicked_name,mouse_3.x,mouse_3.y,mouse_3.leftButton,mouse_3.midButton,mouse_3.rightButton,catchresponse,catchnumber,response_time_catch,Catch,mouse_11.x,mouse_11.y,mouse_11.leftButton,mouse_11.midButton,mouse_11.rightButton,trials_2.thisRepN,trials_2.thisTrialN,trials_2.thisN,trials_2.thisIndex,trials_2.ran,Colourpair,Temporder,mouse_3.clicked_name,mouse_11.clicked_name,trials_3.thisRepN,trials_3.thisTrialN,trials_3.thisN,trials_3.thisIndex,trials_3.ran,key_resp_instr_Ishi.keys,key_resp_instr_Ishi.rt,Ishi_trial_keyresp.keys,Ishi_textbox.text,Ishi_mouse.x,Ishi_mouse.y,Ishi_mouse.leftButton,Ishi_mouse.midButton,Ishi_mouse.rightButton,Ishi_mouse.clicked_name,Ishi_loop.thisRepN,Ishi_loop.thisTrialN,Ishi_loop.thisN,Ishi_loop.thisIndex,Ishi_loop.ran,imageaddress,textbox.text,mouse_4.x,mouse_4.y,mouse_4.leftButton,mouse_4.midButton,mouse_4.rightButton,mouse_4.clicked_name,textbox_2.text,mouse_8.x,mouse_8.y,mouse_8.leftButton,mouse_8.midButton,mouse_8.rightButton,mouse_8.clicked_name,textbox_3.text,mouse_9.x,mouse_9.y,mouse_9.leftButton,mouse_9.midButton,mouse_9.rightButton,mouse_9.clicked_name,textbox_4.text,mouse_12.x,mouse_12.y,mouse_12.leftButton,mouse_12.midButton,mouse_12.rightButton,mouse_12.clicked_name,textbox_5.text,mouse_13.x,mouse_13.y,mouse_13.leftButton,mouse_13.midButton,mouse_13.rightButton,mouse_13.clicked_name,textbox_6.text,mouse_14.x,mouse_14.y,mouse_14.leftButton,mouse_14.midButton,mouse_14.rightButton,mouse_14.clicked_name,textbox_7.text,mouse_15.x,mouse_15.y,mouse_15.leftButton,mouse_15.midButton,mouse_15.rightButton,mouse_15.clicked_name
0,0,0,14,1,,5f4139a5fb4ebc2ad33cb71d,62c538c1c1c9a7c5e0129e84,2022-07-06_09h30.13.263,Colour_Asymmetry_Pilot,2022.1.3,Win32,60.05645307,62c50e9c1127f2cd403a315f,,,,,,,,,,,,,,,,,,,,,,,,,,,,,,,,,,,,,,,,,,,,,,,,,,,,,,,,,,,,,,,,,,,,,,,,,,,,,,,,,,,,,,,,,,,,,,,,,,,,,,,,,,,,,,,,,,,,,,,,,,,,,,,,,,,,,,,,,,,,,,,,,,,,,,,,,,,,,,,,,,,
0,1,1,44,1,,5f4139a5fb4ebc2ad33cb71d,62c538c1c1c9a7c5e0129e84,2022-07-06_09h30.13.263,Colour_Asymmetry_Pilot,2022.1.3,Win32,60.05645307,62c50e9c1127f2cd403a315f,,,,,,,,,,,,,,,,,,,,,,,,,,,,,,,,,,,,,,,,,,,,,,,,,,,,,,,,,,,,,,,,,,,,,,,,,,,,,,,,,,,,,,,,,,,,,,,,,,,,,,,,,,,,,,,,,,,,,,,,,,,,,,,,,,,,,,,,,,,,,,,,,,,,,,,,,,,,,,,,,,,
0,2,2,83,1,,5f4139a5fb4ebc2ad33cb71d,62c538c1c1c9a7c5e0129e84,2022-07-06_09h30.13.263,Colour_Asymmetry_Pilot,2022.1.3,Win32,60.05645307,62c50e9c1127f2cd403a315f,,,,,,,,,,,,,,,,,,,,,,,,,,,,,,,,,,,,,,,,,,,,,,,,,,,,,,,,,,,,,,,,,,,,,,,,,,,,,,,,,,,,,,,,,,,,,,,,,,,,,,,,,,,,,,,,,,,,,,,,,,,,,,,,,,,,,,,,,,,,,,,,,,,,,,,,,,,,,,,,,,,
0,3,3,69,1,,5f4139a5fb4ebc2ad33cb71d,62c538c1c1c9a7c5e0129e84,2022-07-06_09h30.13.263,Colour_Asymmetry_Pilot,2022.1.3,Win32,60.05645307,62c50e9c1127f2cd403a315f,,,,,,,,,,,,,,,,,,,,,,,,,,,,,,,,,,,,,,,,,,,,,,,,,,,,,,,,,,,,,,,,,,,,,,,,,,,,,,,,,,,,,,,,,,,,,,,,,,,,,,,,,,,,,,,,,,,,,,,,,,,,,,,,,,,,,,,,,,,,,,,,,,,,,,,,,,,,,,,,,,,
0,4,4,4,1,,5f4139a5fb4ebc2ad33cb71d,62c538c1c1c9a7c5e0129e84,2022-07-06_09h30.13.263,Colour_Asymmetry_Pilot,2022.1.3,Win32,60.05645307,62c50e9c1127f2cd403a315f,,,,,,,,,,,,,,,,,,,,,,,,,,,,,,,,,,,,,,,,,,,,,,,,,,,,,,,,,,,,,,,,,,,,,,,,,,,,,,,,,,,,,,,,,,,,,,,,,,,,,,,,,,,,,,,,,,,,,,,,,,,,,,,,,,,,,,,,,,,,,,,,,,,,,,,,,,,,,,,,,,,
0,5,5,52,1,,5f4139a5fb4ebc2ad33cb71d,62c538c1c1c9a7c5e0129e84,2022-07-06_09h30.13.263,Colour_Asymmetry_Pilot,2022.1.3,Win32,60.05645307,62c50e9c1127f2cd403a315f,,,,,,,,,,,,,,,,,,,,,,,,,,,,,,,,,,,,,,,,,,,,,,,,,,,,,,,,,,,,,,,,,,,,,,,,,,,,,,,,,,,,,,,,,,,,,,,,,,,,,,,,,,,,,,,,,,,,,,,,,,,,,,,,,,,,,,,,,,,,,,,,,,,,,,,,,,,,,,,,,,,
0,6,6,10,1,,5f4139a5fb4ebc2ad33cb71d,62c538c1c1c9a7c5e0129e84,2022-07-06_09h30.13.263,Colour_Asymmetry_Pilot,2022.1.3,Win32,60.05645307,62c50e9c1127f2cd403a315f,,,,,,,,,,,,,,,,,,,,,,,,,,,,,,,,,,,,,,,,,,,,,,,,,,,,,,,,,,,,,,,,,,,,,,,,,,,,,,,,,,,,,,,,,,,,,,,,,,,,,,,,,,,,,,,,,,,,,,,,,,,,,,,,,,,,,,,,,,,,,,,,,,,,,,,,,,,,,,,,,,,
0,7,7,88,1,,5f4139a5fb4ebc2ad33cb71d,62c538c1c1c9a7c5e0129e84,2022-07-06_09h30.13.263,Colour_Asymmetry_Pilot,2022.1.3,Win32,60.05645307,62c50e9c1127f2cd403a315f,,,,,,,,,,,,,,,,,,,,,,,,,,,,,,,,,,,,,,,,,,,,,,,,,,,,,,,,,,,,,,,,,,,,,,,,,,,,,,,,,,,,,,,,,,,,,,,,,,,,,,,,,,,,,,,,,,,,,,,,,,,,,,,,,,,,,,,,,,,,,,,,,,,,,,,,,,,,,,,,,,,
0,8,8,47,1,,5f4139a5fb4ebc2ad33cb71d,62c538c1c1c9a7c5e0129e84,2022-07-06_09h30.13.263,Colour_Asymmetry_Pilot,2022.1.3,Win32,60.05645307,62c50e9c1127f2cd403a315f,,,,,,,,,,,,,,,,,,,,,,,,,,,,,,,,,,,,,,,,,,,,,,,,,,,,,,,,,,,,,,,,,,,,,,,,,,,,,,,,,,,,,,,,,,,,,,,,,,,,,,,,,,,,,,,,,,,,,,,,,,,,,,,,,,,,,,,,,,,,,,,,,,,,,,,,,,,,,,,,,,,
0,9,9,3,1,,5f4139a5fb4ebc2ad33cb71d,62c538c1c1c9a7c5e0129e84,2022-07-06_09h30.13.263,Colour_Asymmetry_Pilot,2022.1.3,Win32,60.05645307,62c50e9c1127f2cd403a315f,,,,,,,,,,,,,,,,,,,,,,,,,,,,,,,,,,,,,,,,,,,,,,,,,,,,,,,,,,,,,,,,,,,,,,,,,,,,,,,,,,,,,,,,,,,,,,,,,,,,,,,,,,,,,,,,,,,,,,,,,,,,,,,,,,,,,,,,,,,,,,,,,,,,,,,,,,,,,,,,,,,
0,10,10,74,1,,5f4139a5fb4ebc2ad33cb71d,62c538c1c1c9a7c5e0129e84,2022-07-06_09h30.13.263,Colour_Asymmetry_Pilot,2022.1.3,Win32,60.05645307,62c50e9c1127f2cd403a315f,,,,,,,,,,,,,,,,,,,,,,,,,,,,,,,,,,,,,,,,,,,,,,,,,,,,,,,,,,,,,,,,,,,,,,,,,,,,,,,,,,,,,,,,,,,,,,,,,,,,,,,,,,,,,,,,,,,,,,,,,,,,,,,,,,,,,,,,,,,,,,,,,,,,,,,,,,,,,,,,,,,
0,11,11,59,1,,5f4139a5fb4ebc2ad33cb71d,62c538c1c1c9a7c5e0129e84,2022-07-06_09h30.13.263,Colour_Asymmetry_Pilot,2022.1.3,Win32,60.05645307,62c50e9c1127f2cd403a315f,,,,,,,,,,,,,,,,,,,,,,,,,,,,,,,,,,,,,,,,,,,,,,,,,,,,,,,,,,,,,,,,,,,,,,,,,,,,,,,,,,,,,,,,,,,,,,,,,,,,,,,,,,,,,,,,,,,,,,,,,,,,,,,,,,,,,,,,,,,,,,,,,,,,,,,,,,,,,,,,,,,
0,12,12,42,1,,5f4139a5fb4ebc2ad33cb71d,62c538c1c1c9a7c5e0129e84,2022-07-06_09h30.13.263,Colour_Asymmetry_Pilot,2022.1.3,Win32,60.05645307,62c50e9c1127f2cd403a315f,,,,,,,,,,,,,,,,,,,,,,,,,,,,,,,,,,,,,,,,,,,,,,,,,,,,,,,,,,,,,,,,,,,,,,,,,,,,,,,,,,,,,,,,,,,,,,,,,,,,,,,,,,,,,,,,,,,,,,,,,,,,,,,,,,,,,,,,,,,,,,,,,,,,,,,,,,,,,,,,,,,
0,13,13,60,1,,5f4139a5fb4ebc2ad33cb71d,62c538c1c1c9a7c5e0129e84,2022-07-06_09h30.13.263,Colour_Asymmetry_Pilot,2022.1.3,Win32,60.05645307,62c50e9c1127f2cd403a315f,,,,,,,,,,,,,,,,,,,,,,,,,,,,,,,,,,,,,,,,,,,,,,,,,,,,,,,,,,,,,,,,,,,,,,,,,,,,,,,,,,,,,,,,,,,,,,,,,,,,,,,,,,,,,,,,,,,,,,,,,,,,,,,,,,,,,,,,,,,,,,,,,,,,,,,,,,,,,,,,,,,
0,14,14,70,1,,5f4139a5fb4ebc2ad33cb71d,62c538c1c1c9a7c5e0129e84,2022-07-06_09h30.13.263,Colour_Asymmetry_Pilot,2022.1.3,Win32,60.05645307,62c50e9c1127f2cd403a315f,,,,,,,,,,,,,,,,,,,,,,,,,,,,,,,,,,,,,,,,,,,,,,,,,,,,,,,,,,,,,,,,,,,,,,,,,,,,,,,,,,,,,,,,,,,,,,,,,,,,,,,,,,,,,,,,,,,,,,,,,,,,,,,,,,,,,,,,,,,,,,,,,,,,,,,,,,,,,,,,,,,
0,15,15,77,1,,5f4139a5fb4ebc2ad33cb71d,62c538c1c1c9a7c5e0129e84,2022-07-06_09h30.13.263,Colour_Asymmetry_Pilot,2022.1.3,Win32,60.05645307,62c50e9c1127f2cd403a315f,,,,,,,,,,,,,,,,,,,,,,,,,,,,,,,,,,,,,,,,,,,,,,,,,,,,,,,,,,,,,,,,,,,,,,,,,,,,,,,,,,,,,,,,,,,,,,,,,,,,,,,,,,,,,,,,,,,,,,,,,,,,,,,,,,,,,,,,,,,,,,,,,,,,,,,,,,,,,,,,,,,
0,16,16,80,1,,5f4139a5fb4ebc2ad33cb71d,62c538c1c1c9a7c5e0129e84,2022-07-06_09h30.13.263,Colour_Asymmetry_Pilot,2022.1.3,Win32,60.05645307,62c50e9c1127f2cd403a315f,,,,,,,,,,,,,,,,,,,,,,,,,,,,,,,,,,,,,,,,,,,,,,,,,,,,,,,,,,,,,,,,,,,,,,,,,,,,,,,,,,,,,,,,,,,,,,,,,,,,,,,,,,,,,,,,,,,,,,,,,,,,,,,,,,,,,,,,,,,,,,,,,,,,,,,,,,,,,,,,,,,
0,17,17,30,1,,5f4139a5fb4ebc2ad33cb71d,62c538c1c1c9a7c5e0129e84,2022-07-06_09h30.13.263,Colour_Asymmetry_Pilot,2022.1.3,Win32,60.05645307,62c50e9c1127f2cd403a315f,,,,,,,,,,,,,,,,,,,,,,,,,,,,,,,,,,,,,,,,,,,,,,,,,,,,,,,,,,,,,,,,,,,,,,,,,,,,,,,,,,,,,,,,,,,,,,,,,,,,,,,,,,,,,,,,,,,,,,,,,,,,,,,,,,,,,,,,,,,,,,,,,,,,,,,,,,,,,,,,,,,
0,18,18,6,1,,5f4139a5fb4ebc2ad33cb71d,62c538c1c1c9a7c5e0129e84,2022-07-06_09h30.13.263,Colour_Asymmetry_Pilot,2022.1.3,Win32,60.05645307,62c50e9c1127f2cd403a315f,,,,,,,,,,,,,,,,,,,,,,,,,,,,,,,,,,,,,,,,,,,,,,,,,,,,,,,,,,,,,,,,,,,,,,,,,,,,,,,,,,,,,,,,,,,,,,,,,,,,,,,,,,,,,,,,,,,,,,,,,,,,,,,,,,,,,,,,,,,,,,,,,,,,,,,,,,,,,,,,,,,
0,19,19,81,1,,5f4139a5fb4ebc2ad33cb71d,62c538c1c1c9a7c5e0129e84,2022-07-06_09h30.13.263,Colour_Asymmetry_Pilot,2022.1.3,Win32,60.05645307,62c50e9c1127f2cd403a315f,,,,,,,,,,,,,,,,,,,,,,,,,,,,,,,,,,,,,,,,,,,,,,,,,,,,,,,,,,,,,,,,,,,,,,,,,,,,,,,,,,,,,,,,,,,,,,,,,,,,,,,,,,,,,,,,,,,,,,,,,,,,,,,,,,,,,,,,,,,,,,,,,,,,,,,,,,,,,,,,,,,
0,20,20,36,1,,5f4139a5fb4ebc2ad33cb71d,62c538c1c1c9a7c5e0129e84,2022-07-06_09h30.13.263,Colour_Asymmetry_Pilot,2022.1.3,Win32,60.05645307,62c50e9c1127f2cd403a315f,,,,,,,,,,,,,,,,,,,,,,,,,,,,,,,,,,,,,,,,,,,,,,,,,,,,,,,,,,,,,,,,,,,,,,,,,,,,,,,,,,,,,,,,,,,,,,,,,,,,,,,,,,,,,,,,,,,,,,,,,,,,,,,,,,,,,,,,,,,,,,,,,,,,,,,,,,,,,,,,,,,
0,21,21,35,1,,5f4139a5fb4ebc2ad33cb71d,62c538c1c1c9a7c5e0129e84,2022-07-06_09h30.13.263,Colour_Asymmetry_Pilot,2022.1.3,Win32,60.05645307,62c50e9c1127f2cd403a315f,,,,,,,,,,,,,,,,,,,,,,,,,,,,,,,,,,,,,,,,,,,,,,,,,,,,,,,,,,,,,,,,,,,,,,,,,,,,,,,,,,,,,,,,,,,,,,,,,,,,,,,,,,,,,,,,,,,,,,,,,,,,,,,,,,,,,,,,,,,,,,,,,,,,,,,,,,,,,,,,,,,
0,22,22,17,1,,5f4139a5fb4ebc2ad33cb71d,62c538c1c1c9a7c5e0129e84,2022-07-06_09h30.13.263,Colour_Asymmetry_Pilot,2022.1.3,Win32,60.05645307,62c50e9c1127f2cd403a315f,,,,,,,,,,,,,,,,,,,,,,,,,,,,,,,,,,,,,,,,,,,,,,,,,,,,,,,,,,,,,,,,,,,,,,,,,,,,,,,,,,,,,,,,,,,,,,,,,,,,,,,,,,,,,,,,,,,,,,,,,,,,,,,,,,,,,,,,,,,,,,,,,,,,,,,,,,,,,,,,,,,
0,23,23,15,1,,5f4139a5fb4ebc2ad33cb71d,62c538c1c1c9a7c5e0129e84,2022-07-06_09h30.13.263,Colour_Asymmetry_Pilot,2022.1.3,Win32,60.05645307,62c50e9c1127f2cd403a315f,,,,,,,,,,,,,,,,,,,,,,,,,,,,,,,,,,,,,,,,,,,,,,,,,,,,,,,,,,,,,,,,,,,,,,,,,,,,,,,,,,,,,,,,,,,,,,,,,,,,,,,,,,,,,,,,,,,,,,,,,,,,,,,,,,,,,,,,,,,,,,,,,,,,,,,,,,,,,,,,,,,
0,24,24,32,1,,5f4139a5fb4ebc2ad33cb71d,62c538c1c1c9a7c5e0129e84,2022-07-06_09h30.13.263,Colour_Asymmetry_Pilot,2022.1.3,Win32,60.05645307,62c50e9c1127f2cd403a315f,,,,,,,,,,,,,,,,,,,,,,,,,,,,,,,,,,,,,,,,,,,,,,,,,,,,,,,,,,,,,,,,,,,,,,,,,,,,,,,,,,,,,,,,,,,,,,,,,,,,,,,,,,,,,,,,,,,,,,,,,,,,,,,,,,,,,,,,,,,,,,,,,,,,,,,,,,,,,,,,,,,
0,25,25,53,1,,5f4139a5fb4ebc2ad33cb71d,62c538c1c1c9a7c5e0129e84,2022-07-06_09h30.13.263,Colour_Asymmetry_Pilot,2022.1.3,Win32,60.05645307,62c50e9c1127f2cd403a315f,,,,,,,,,,,,,,,,,,,,,,,,,,,,,,,,,,,,,,,,,,,,,,,,,,,,,,,,,,,,,,,,,,,,,,,,,,,,,,,,,,,,,,,,,,,,,,,,,,,,,,,,,,,,,,,,,,,,,,,,,,,,,,,,,,,,,,,,,,,,,,,,,,,,,,,,,,,,,,,,,,,
0,26,26,79,1,,5f4139a5fb4ebc2ad33cb71d,62c538c1c1c9a7c5e0129e84,2022-07-06_09h30.13.263,Colour_Asymmetry_Pilot,2022.1.3,Win32,60.05645307,62c50e9c1127f2cd403a315f,,,,,,,,,,,,,,,,,,,,,,,,,,,,,,,,,,,,,,,,,,,,,,,,,,,,,,,,,,,,,,,,,,,,,,,,,,,,,,,,,,,,,,,,,,,,,,,,,,,,,,,,,,,,,,,,,,,,,,,,,,,,,,,,,,,,,,,,,,,,,,,,,,,,,,,,,,,,,,,,,,,
0,27,27,76,1,,5f4139a5fb4ebc2ad33cb71d,62c538c1c1c9a7c5e0129e84,2022-07-06_09h30.13.263,Colour_Asymmetry_Pilot,2022.1.3,Win32,60.05645307,62c50e9c1127f2cd403a315f,,,,,,,,,,,,,,,,,,,,,,,,,,,,,,,,,,,,,,,,,,,,,,,,,,,,,,,,,,,,,,,,,,,,,,,,,,,,,,,,,,,,,,,,,,,,,,,,,,,,,,,,,,,,,,,,,,,,,,,,,,,,,,,,,,,,,,,,,,,,,,,,,,,,,,,,,,,,,,,,,,,
0,28,28,68,1,,5f4139a5fb4ebc2ad33cb71d,62c538c1c1c9a7c5e0129e84,2022-07-06_09h30.13.263,Colour_Asymmetry_Pilot,2022.1.3,Win32,60.05645307,62c50e9c1127f2cd403a315f,,,,,,,,,,,,,,,,,,,,,,,,,,,,,,,,,,,,,,,,,,,,,,,,,,,,,,,,,,,,,,,,,,,,,,,,,,,,,,,,,,,,,,,,,,,,,,,,,,,,,,,,,,,,,,,,,,,,,,,,,,,,,,,,,,,,,,,,,,,,,,,,,,,,,,,,,,,,,,,,,,,
0,29,29,19,1,,5f4139a5fb4ebc2ad33cb71d,62c538c1c1c9a7c5e0129e84,2022-07-06_09h30.13.263,Colour_Asymmetry_Pilot,2022.1.3,Win32,60.05645307,62c50e9c1127f2cd403a315f,,,,,,,,,,,,,,,,,,,,,,,,,,,,,,,,,,,,,,,,,,,,,,,,,,,,,,,,,,,,,,,,,,,,,,,,,,,,,,,,,,,,,,,,,,,,,,,,,,,,,,,,,,,,,,,,,,,,,,,,,,,,,,,,,,,,,,,,,,,,,,,,,,,,,,,,,,,,,,,,,,,
0,30,30,54,1,,5f4139a5fb4ebc2ad33cb71d,62c538c1c1c9a7c5e0129e84,2022-07-06_09h30.13.263,Colour_Asymmetry_Pilot,2022.1.3,Win32,60.05645307,62c50e9c1127f2cd403a315f,,,,,,,,,,,,,,,,,,,,,,,,,,,,,,,,,,,,,,,,,,,,,,,,,,,,,,,,,,,,,,,,,,,,,,,,,,,,,,,,,,,,,,,,,,,,,,,,,,,,,,,,,,,,,,,,,,,,,,,,,,,,,,,,,,,,,,,,,,,,,,,,,,,,,,,,,,,,,,,,,,,
0,31,31,11,1,,5f4139a5fb4ebc2ad33cb71d,62c538c1c1c9a7c5e0129e84,2022-07-06_09h30.13.263,Colour_Asymmetry_Pilot,2022.1.3,Win32,60.05645307,62c50e9c1127f2cd403a315f,,,,,,,,,,,,,,,,,,,,,,,,,,,,,,,,,,,,,,,,,,,,,,,,,,,,,,,,,,,,,,,,,,,,,,,,,,,,,,,,,,,,,,,,,,,,,,,,,,,,,,,,,,,,,,,,,,,,,,,,,,,,,,,,,,,,,,,,,,,,,,,,,,,,,,,,,,,,,,,,,,,
0,32,32,91,1,,5f4139a5fb4ebc2ad33cb71d,62c538c1c1c9a7c5e0129e84,2022-07-06_09h30.13.263,Colour_Asymmetry_Pilot,2022.1.3,Win32,60.05645307,62c50e9c1127f2cd403a315f,,,,,,,,,,,,,,,,,,,,,,,,,,,,,,,,,,,,,,,,,,,,,,,,,,,,,,,,,,,,,,,,,,,,,,,,,,,,,,,,,,,,,,,,,,,,,,,,,,,,,,,,,,,,,,,,,,,,,,,,,,,,,,,,,,,,,,,,,,,,,,,,,,,,,,,,,,,,,,,,,,,
0,33,33,55,1,,5f4139a5fb4ebc2ad33cb71d,62c538c1c1c9a7c5e0129e84,2022-07-06_09h30.13.263,Colour_Asymmetry_Pilot,2022.1.3,Win32,60.05645307,62c50e9c1127f2cd403a315f,,,,,,,,,,,,,,,,,,,,,,,,,,,,,,,,,,,,,,,,,,,,,,,,,,,,,,,,,,,,,,,,,,,,,,,,,,,,,,,,,,,,,,,,,,,,,,,,,,,,,,,,,,,,,,,,,,,,,,,,,,,,,,,,,,,,,,,,,,,,,,,,,,,,,,,,,,,,,,,,,,,
0,34,34,0,1,,5f4139a5fb4ebc2ad33cb71d,62c538c1c1c9a7c5e0129e84,2022-07-06_09h30.13.263,Colour_Asymmetry_Pilot,2022.1.3,Win32,60.05645307,62c50e9c1127f2cd403a315f,,,,,,,,,,,,,,,,,,,,,,,,,,,,,,,,,,,,,,,,,,,,,,,,,,,,,,,,,,,,,,,,,,,,,,,,,,,,,,,,,,,,,,,,,,,,,,,,,,,,,,,,,,,,,,,,,,,,,,,,,,,,,,,,,,,,,,,,,,,,,,,,,,,,,,,,,,,,,,,,,,,
0,35,35,26,1,,5f4139a5fb4ebc2ad33cb71d,62c538c1c1c9a7c5e0129e84,2022-07-06_09h30.13.263,Colour_Asymmetry_Pilot,2022.1.3,Win32,60.05645307,62c50e9c1127f2cd403a315f,,,,,,,,,,,,,,,,,,,,,,,,,,,,,,,,,,,,,,,,,,,,,,,,,,,,,,,,,,,,,,,,,,,,,,,,,,,,,,,,,,,,,,,,,,,,,,,,,,,,,,,,,,,,,,,,,,,,,,,,,,,,,,,,,,,,,,,,,,,,,,,,,,,,,,,,,,,,,,,,,,,
0,36,36,87,1,,5f4139a5fb4ebc2ad33cb71d,62c538c1c1c9a7c5e0129e84,2022-07-06_09h30.13.263,Colour_Asymmetry_Pilot,2022.1.3,Win32,60.05645307,62c50e9c1127f2cd403a315f,,,,,,,,,,,,,,,,,,,,,,,,,,,,,,,,,,,,,,,,,,,,,,,,,,,,,,,,,,,,,,,,,,,,,,,,,,,,,,,,,,,,,,,,,,,,,,,,,,,,,,,,,,,,,,,,,,,,,,,,,,,,,,,,,,,,,,,,,,,,,,,,,,,,,,,,,,,,,,,,,,,
0,37,37,18,1,,5f4139a5fb4ebc2ad33cb71d,62c538c1c1c9a7c5e0129e84,2022-07-06_09h30.13.263,Colour_Asymmetry_Pilot,2022.1.3,Win32,60.05645307,62c50e9c1127f2cd403a315f,,,,,,,,,,,,,,,,,,,,,,,,,,,,,,,,,,,,,,,,,,,,,,,,,,,,,,,,,,,,,,,,,,,,,,,,,,,,,,,,,,,,,,,,,,,,,,,,,,,,,,,,,,,,,,,,,,,,,,,,,,,,,,,,,,,,,,,,,,,,,,,,,,,,,,,,,,,,,,,,,,,
0,38,38,9,1,,5f4139a5fb4ebc2ad33cb71d,62c538c1c1c9a7c5e0129e84,2022-07-06_09h30.13.263,Colour_Asymmetry_Pilot,2022.1.3,Win32,60.05645307,62c50e9c1127f2cd403a315f,,,,,,,,,,,,,,,,,,,,,,,,,,,,,,,,,,,,,,,,,,,,,,,,,,,,,,,,,,,,,,,,,,,,,,,,,,,,,,,,,,,,,,,,,,,,,,,,,,,,,,,,,,,,,,,,,,,,,,,,,,,,,,,,,,,,,,,,,,,,,,,,,,,,,,,,,,,,,,,,,,,
0,39,39,21,1,,5f4139a5fb4ebc2ad33cb71d,62c538c1c1c9a7c5e0129e84,2022-07-06_09h30.13.263,Colour_Asymmetry_Pilot,2022.1.3,Win32,60.05645307,62c50e9c1127f2cd403a315f,,,,,,,,,,,,,,,,,,,,,,,,,,,,,,,,,,,,,,,,,,,,,,,,,,,,,,,,,,,,,,,,,,,,,,,,,,,,,,,,,,,,,,,,,,,,,,,,,,,,,,,,,,,,,,,,,,,,,,,,,,,,,,,,,,,,,,,,,,,,,,,,,,,,,,,,,,,,,,,,,,,
0,40,40,12,1,,5f4139a5fb4ebc2ad33cb71d,62c538c1c1c9a7c5e0129e84,2022-07-06_09h30.13.263,Colour_Asymmetry_Pilot,2022.1.3,Win32,60.05645307,62c50e9c1127f2cd403a315f,,,,,,,,,,,,,,,,,,,,,,,,,,,,,,,,,,,,,,,,,,,,,,,,,,,,,,,,,,,,,,,,,,,,,,,,,,,,,,,,,,,,,,,,,,,,,,,,,,,,,,,,,,,,,,,,,,,,,,,,,,,,,,,,,,,,,,,,,,,,,,,,,,,,,,,,,,,,,,,,,,,
0,41,41,72,1,,5f4139a5fb4ebc2ad33cb71d,62c538c1c1c9a7c5e0129e84,2022-07-06_09h30.13.263,Colour_Asymmetry_Pilot,2022.1.3,Win32,60.05645307,62c50e9c1127f2cd403a315f,,,,,,,,,,,,,,,,,,,,,,,,,,,,,,,,,,,,,,,,,,,,,,,,,,,,,,,,,,,,,,,,,,,,,,,,,,,,,,,,,,,,,,,,,,,,,,,,,,,,,,,,,,,,,,,,,,,,,,,,,,,,,,,,,,,,,,,,,,,,,,,,,,,,,,,,,,,,,,,,,,,
0,42,42,56,1,,5f4139a5fb4ebc2ad33cb71d,62c538c1c1c9a7c5e0129e84,2022-07-06_09h30.13.263,Colour_Asymmetry_Pilot,2022.1.3,Win32,60.05645307,62c50e9c1127f2cd403a315f,,,,,,,,,,,,,,,,,,,,,,,,,,,,,,,,,,,,,,,,,,,,,,,,,,,,,,,,,,,,,,,,,,,,,,,,,,,,,,,,,,,,,,,,,,,,,,,,,,,,,,,,,,,,,,,,,,,,,,,,,,,,,,,,,,,,,,,,,,,,,,,,,,,,,,,,,,,,,,,,,,,
0,43,43,29,1,,5f4139a5fb4ebc2ad33cb71d,62c538c1c1c9a7c5e0129e84,2022-07-06_09h30.13.263,Colour_Asymmetry_Pilot,2022.1.3,Win32,60.05645307,62c50e9c1127f2cd403a315f,,,,,,,,,,,,,,,,,,,,,,,,,,,,,,,,,,,,,,,,,,,,,,,,,,,,,,,,,,,,,,,,,,,,,,,,,,,,,,,,,,,,,,,,,,,,,,,,,,,,,,,,,,,,,,,,,,,,,,,,,,,,,,,,,,,,,,,,,,,,,,,,,,,,,,,,,,,,,,,,,,,
0,44,44,34,1,,5f4139a5fb4ebc2ad33cb71d,62c538c1c1c9a7c5e0129e84,2022-07-06_09h30.13.263,Colour_Asymmetry_Pilot,2022.1.3,Win32,60.05645307,62c50e9c1127f2cd403a315f,,,,,,,,,,,,,,,,,,,,,,,,,,,,,,,,,,,,,,,,,,,,,,,,,,,,,,,,,,,,,,,,,,,,,,,,,,,,,,,,,,,,,,,,,,,,,,,,,,,,,,,,,,,,,,,,,,,,,,,,,,,,,,,,,,,,,,,,,,,,,,,,,,,,,,,,,,,,,,,,,,,
0,45,45,58,1,,5f4139a5fb4ebc2ad33cb71d,62c538c1c1c9a7c5e0129e84,2022-07-06_09h30.13.263,Colour_Asymmetry_Pilot,2022.1.3,Win32,60.05645307,62c50e9c1127f2cd403a315f,,,,,,,,,,,,,,,,,,,,,,,,,,,,,,,,,,,,,,,,,,,,,,,,,,,,,,,,,,,,,,,,,,,,,,,,,,,,,,,,,,,,,,,,,,,,,,,,,,,,,,,,,,,,,,,,,,,,,,,,,,,,,,,,,,,,,,,,,,,,,,,,,,,,,,,,,,,,,,,,,,,
0,46,46,92,1,,5f4139a5fb4ebc2ad33cb71d,62c538c1c1c9a7c5e0129e84,2022-07-06_09h30.13.263,Colour_Asymmetry_Pilot,2022.1.3,Win32,60.05645307,62c50e9c1127f2cd403a315f,,,,,,,,,,,,,,,,,,,,,,,,,,,,,,,,,,,,,,,,,,,,,,,,,,,,,,,,,,,,,,,,,,,,,,,,,,,,,,,,,,,,,,,,,,,,,,,,,,,,,,,,,,,,,,,,,,,,,,,,,,,,,,,,,,,,,,,,,,,,,,,,,,,,,,,,,,,,,,,,,,,
0,47,47,71,1,,5f4139a5fb4ebc2ad33cb71d,62c538c1c1c9a7c5e0129e84,2022-07-06_09h30.13.263,Colour_Asymmetry_Pilot,2022.1.3,Win32,60.05645307,62c50e9c1127f2cd403a315f,,,,,,,,,,,,,,,,,,,,,,,,,,,,,,,,,,,,,,,,,,,,,,,,,,,,,,,,,,,,,,,,,,,,,,,,,,,,,,,,,,,,,,,,,,,,,,,,,,,,,,,,,,,,,,,,,,,,,,,,,,,,,,,,,,,,,,,,,,,,,,,,,,,,,,,,,,,,,,,,,,,
0,48,48,64,1,,5f4139a5fb4ebc2ad33cb71d,62c538c1c1c9a7c5e0129e84,2022-07-06_09h30.13.263,Colour_Asymmetry_Pilot,2022.1.3,Win32,60.05645307,62c50e9c1127f2cd403a315f,,,,,,,,,,,,,,,,,,,,,,,,,,,,,,,,,,,,,,,,,,,,,,,,,,,,,,,,,,,,,,,,,,,,,,,,,,,,,,,,,,,,,,,,,,,,,,,,,,,,,,,,,,,,,,,,,,,,,,,,,,,,,,,,,,,,,,,,,,,,,,,,,,,,,,,,,,,,,,,,,,,
0,49,49,8,1,,5f4139a5fb4ebc2ad33cb71d,62c538c1c1c9a7c5e0129e84,2022-07-06_09h30.13.263,Colour_Asymmetry_Pilot,2022.1.3,Win32,60.05645307,62c50e9c1127f2cd403a315f,,,,,,,,,,,,,,,,,,,,,,,,,,,,,,,,,,,,,,,,,,,,,,,,,,,,,,,,,,,,,,,,,,,,,,,,,,,,,,,,,,,,,,,,,,,,,,,,,,,,,,,,,,,,,,,,,,,,,,,,,,,,,,,,,,,,,,,,,,,,,,,,,,,,,,,,,,,,,,,,,,,
0,50,50,86,1,,5f4139a5fb4ebc2ad33cb71d,62c538c1c1c9a7c5e0129e84,2022-07-06_09h30.13.263,Colour_Asymmetry_Pilot,2022.1.3,Win32,60.05645307,62c50e9c1127f2cd403a315f,,,,,,,,,,,,,,,,,,,,,,,,,,,,,,,,,,,,,,,,,,,,,,,,,,,,,,,,,,,,,,,,,,,,,,,,,,,,,,,,,,,,,,,,,,,,,,,,,,,,,,,,,,,,,,,,,,,,,,,,,,,,,,,,,,,,,,,,,,,,,,,,,,,,,,,,,,,,,,,,,,,
0,51,51,22,1,,5f4139a5fb4ebc2ad33cb71d,62c538c1c1c9a7c5e0129e84,2022-07-06_09h30.13.263,Colour_Asymmetry_Pilot,2022.1.3,Win32,60.05645307,62c50e9c1127f2cd403a315f,,,,,,,,,,,,,,,,,,,,,,,,,,,,,,,,,,,,,,,,,,,,,,,,,,,,,,,,,,,,,,,,,,,,,,,,,,,,,,,,,,,,,,,,,,,,,,,,,,,,,,,,,,,,,,,,,,,,,,,,,,,,,,,,,,,,,,,,,,,,,,,,,,,,,,,,,,,,,,,,,,,
0,52,52,90,1,,5f4139a5fb4ebc2ad33cb71d,62c538c1c1c9a7c5e0129e84,2022-07-06_09h30.13.263,Colour_Asymmetry_Pilot,2022.1.3,Win32,60.05645307,62c50e9c1127f2cd403a315f,,,,,,,,,,,,,,,,,,,,,,,,,,,,,,,,,,,,,,,,,,,,,,,,,,,,,,,,,,,,,,,,,,,,,,,,,,,,,,,,,,,,,,,,,,,,,,,,,,,,,,,,,,,,,,,,,,,,,,,,,,,,,,,,,,,,,,,,,,,,,,,,,,,,,,,,,,,,,,,,,,,
0,53,53,1,1,,5f4139a5fb4ebc2ad33cb71d,62c538c1c1c9a7c5e0129e84,2022-07-06_09h30.13.263,Colour_Asymmetry_Pilot,2022.1.3,Win32,60.05645307,62c50e9c1127f2cd403a315f,,,,,,,,,,,,,,,,,,,,,,,,,,,,,,,,,,,,,,,,,,,,,,,,,,,,,,,,,,,,,,,,,,,,,,,,,,,,,,,,,,,,,,,,,,,,,,,,,,,,,,,,,,,,,,,,,,,,,,,,,,,,,,,,,,,,,,,,,,,,,,,,,,,,,,,,,,,,,,,,,,,
0,54,54,50,1,,5f4139a5fb4ebc2ad33cb71d,62c538c1c1c9a7c5e0129e84,2022-07-06_09h30.13.263,Colour_Asymmetry_Pilot,2022.1.3,Win32,60.05645307,62c50e9c1127f2cd403a315f,,,,,,,,,,,,,,,,,,,,,,,,,,,,,,,,,,,,,,,,,,,,,,,,,,,,,,,,,,,,,,,,,,,,,,,,,,,,,,,,,,,,,,,,,,,,,,,,,,,,,,,,,,,,,,,,,,,,,,,,,,,,,,,,,,,,,,,,,,,,,,,,,,,,,,,,,,,,,,,,,,,
0,55,55,65,1,,5f4139a5fb4ebc2ad33cb71d,62c538c1c1c9a7c5e0129e84,2022-07-06_09h30.13.263,Colour_Asymmetry_Pilot,2022.1.3,Win32,60.05645307,62c50e9c1127f2cd403a315f,,,,,,,,,,,,,,,,,,,,,,,,,,,,,,,,,,,,,,,,,,,,,,,,,,,,,,,,,,,,,,,,,,,,,,,,,,,,,,,,,,,,,,,,,,,,,,,,,,,,,,,,,,,,,,,,,,,,,,,,,,,,,,,,,,,,,,,,,,,,,,,,,,,,,,,,,,,,,,,,,,,
0,56,56,2,1,,5f4139a5fb4ebc2ad33cb71d,62c538c1c1c9a7c5e0129e84,2022-07-06_09h30.13.263,Colour_Asymmetry_Pilot,2022.1.3,Win32,60.05645307,62c50e9c1127f2cd403a315f,,,,,,,,,,,,,,,,,,,,,,,,,,,,,,,,,,,,,,,,,,,,,,,,,,,,,,,,,,,,,,,,,,,,,,,,,,,,,,,,,,,,,,,,,,,,,,,,,,,,,,,,,,,,,,,,,,,,,,,,,,,,,,,,,,,,,,,,,,,,,,,,,,,,,,,,,,,,,,,,,,,
0,57,57,5,1,,5f4139a5fb4ebc2ad33cb71d,62c538c1c1c9a7c5e0129e84,2022-07-06_09h30.13.263,Colour_Asymmetry_Pilot,2022.1.3,Win32,60.05645307,62c50e9c1127f2cd403a315f,,,,,,,,,,,,,,,,,,,,,,,,,,,,,,,,,,,,,,,,,,,,,,,,,,,,,,,,,,,,,,,,,,,,,,,,,,,,,,,,,,,,,,,,,,,,,,,,,,,,,,,,,,,,,,,,,,,,,,,,,,,,,,,,,,,,,,,,,,,,,,,,,,,,,,,,,,,,,,,,,,,
0,58,58,85,1,,5f4139a5fb4ebc2ad33cb71d,62c538c1c1c9a7c5e0129e84,2022-07-06_09h30.13.263,Colour_Asymmetry_Pilot,2022.1.3,Win32,60.05645307,62c50e9c1127f2cd403a315f,,,,,,,,,,,,,,,,,,,,,,,,,,,,,,,,,,,,,,,,,,,,,,,,,,,,,,,,,,,,,,,,,,,,,,,,,,,,,,,,,,,,,,,,,,,,,,,,,,,,,,,,,,,,,,,,,,,,,,,,,,,,,,,,,,,,,,,,,,,,,,,,,,,,,,,,,,,,,,,,,,,
0,59,59,16,1,,5f4139a5fb4ebc2ad33cb71d,62c538c1c1c9a7c5e0129e84,2022-07-06_09h30.13.263,Colour_Asymmetry_Pilot,2022.1.3,Win32,60.05645307,62c50e9c1127f2cd403a315f,,,,,,,,,,,,,,,,,,,,,,,,,,,,,,,,,,,,,,,,,,,,,,,,,,,,,,,,,,,,,,,,,,,,,,,,,,,,,,,,,,,,,,,,,,,,,,,,,,,,,,,,,,,,,,,,,,,,,,,,,,,,,,,,,,,,,,,,,,,,,,,,,,,,,,,,,,,,,,,,,,,
0,60,60,82,1,,5f4139a5fb4ebc2ad33cb71d,62c538c1c1c9a7c5e0129e84,2022-07-06_09h30.13.263,Colour_Asymmetry_Pilot,2022.1.3,Win32,60.05645307,62c50e9c1127f2cd403a315f,,,,,,,,,,,,,,,,,,,,,,,,,,,,,,,,,,,,,,,,,,,,,,,,,,,,,,,,,,,,,,,,,,,,,,,,,,,,,,,,,,,,,,,,,,,,,,,,,,,,,,,,,,,,,,,,,,,,,,,,,,,,,,,,,,,,,,,,,,,,,,,,,,,,,,,,,,,,,,,,,,,
0,61,61,57,1,,5f4139a5fb4ebc2ad33cb71d,62c538c1c1c9a7c5e0129e84,2022-07-06_09h30.13.263,Colour_Asymmetry_Pilot,2022.1.3,Win32,60.05645307,62c50e9c1127f2cd403a315f,,,,,,,,,,,,,,,,,,,,,,,,,,,,,,,,,,,,,,,,,,,,,,,,,,,,,,,,,,,,,,,,,,,,,,,,,,,,,,,,,,,,,,,,,,,,,,,,,,,,,,,,,,,,,,,,,,,,,,,,,,,,,,,,,,,,,,,,,,,,,,,,,,,,,,,,,,,,,,,,,,,
0,62,62,25,1,,5f4139a5fb4ebc2ad33cb71d,62c538c1c1c9a7c5e0129e84,2022-07-06_09h30.13.263,Colour_Asymmetry_Pilot,2022.1.3,Win32,60.05645307,62c50e9c1127f2cd403a315f,,,,,,,,,,,,,,,,,,,,,,,,,,,,,,,,,,,,,,,,,,,,,,,,,,,,,,,,,,,,,,,,,,,,,,,,,,,,,,,,,,,,,,,,,,,,,,,,,,,,,,,,,,,,,,,,,,,,,,,,,,,,,,,,,,,,,,,,,,,,,,,,,,,,,,,,,,,,,,,,,,,
0,63,63,89,1,,5f4139a5fb4ebc2ad33cb71d,62c538c1c1c9a7c5e0129e84,2022-07-06_09h30.13.263,Colour_Asymmetry_Pilot,2022.1.3,Win32,60.05645307,62c50e9c1127f2cd403a315f,,,,,,,,,,,,,,,,,,,,,,,,,,,,,,,,,,,,,,,,,,,,,,,,,,,,,,,,,,,,,,,,,,,,,,,,,,,,,,,,,,,,,,,,,,,,,,,,,,,,,,,,,,,,,,,,,,,,,,,,,,,,,,,,,,,,,,,,,,,,,,,,,,,,,,,,,,,,,,,,,,,
0,64,64,46,1,,5f4139a5fb4ebc2ad33cb71d,62c538c1c1c9a7c5e0129e84,2022-07-06_09h30.13.263,Colour_Asymmetry_Pilot,2022.1.3,Win32,60.05645307,62c50e9c1127f2cd403a315f,,,,,,,,,,,,,,,,,,,,,,,,,,,,,,,,,,,,,,,,,,,,,,,,,,,,,,,,,,,,,,,,,,,,,,,,,,,,,,,,,,,,,,,,,,,,,,,,,,,,,,,,,,,,,,,,,,,,,,,,,,,,,,,,,,,,,,,,,,,,,,,,,,,,,,,,,,,,,,,,,,,
0,65,65,75,1,,5f4139a5fb4ebc2ad33cb71d,62c538c1c1c9a7c5e0129e84,2022-07-06_09h30.13.263,Colour_Asymmetry_Pilot,2022.1.3,Win32,60.05645307,62c50e9c1127f2cd403a315f,,,,,,,,,,,,,,,,,,,,,,,,,,,,,,,,,,,,,,,,,,,,,,,,,,,,,,,,,,,,,,,,,,,,,,,,,,,,,,,,,,,,,,,,,,,,,,,,,,,,,,,,,,,,,,,,,,,,,,,,,,,,,,,,,,,,,,,,,,,,,,,,,,,,,,,,,,,,,,,,,,,
0,66,66,24,1,,5f4139a5fb4ebc2ad33cb71d,62c538c1c1c9a7c5e0129e84,2022-07-06_09h30.13.263,Colour_Asymmetry_Pilot,2022.1.3,Win32,60.05645307,62c50e9c1127f2cd403a315f,,,,,,,,,,,,,,,,,,,,,,,,,,,,,,,,,,,,,,,,,,,,,,,,,,,,,,,,,,,,,,,,,,,,,,,,,,,,,,,,,,,,,,,,,,,,,,,,,,,,,,,,,,,,,,,,,,,,,,,,,,,,,,,,,,,,,,,,,,,,,,,,,,,,,,,,,,,,,,,,,,,
0,67,67,37,1,,5f4139a5fb4ebc2ad33cb71d,62c538c1c1c9a7c5e0129e84,2022-07-06_09h30.13.263,Colour_Asymmetry_Pilot,2022.1.3,Win32,60.05645307,62c50e9c1127f2cd403a315f,,,,,,,,,,,,,,,,,,,,,,,,,,,,,,,,,,,,,,,,,,,,,,,,,,,,,,,,,,,,,,,,,,,,,,,,,,,,,,,,,,,,,,,,,,,,,,,,,,,,,,,,,,,,,,,,,,,,,,,,,,,,,,,,,,,,,,,,,,,,,,,,,,,,,,,,,,,,,,,,,,,
0,68,68,7,1,,5f4139a5fb4ebc2ad33cb71d,62c538c1c1c9a7c5e0129e84,2022-07-06_09h30.13.263,Colour_Asymmetry_Pilot,2022.1.3,Win32,60.05645307,62c50e9c1127f2cd403a315f,,,,,,,,,,,,,,,,,,,,,,,,,,,,,,,,,,,,,,,,,,,,,,,,,,,,,,,,,,,,,,,,,,,,,,,,,,,,,,,,,,,,,,,,,,,,,,,,,,,,,,,,,,,,,,,,,,,,,,,,,,,,,,,,,,,,,,,,,,,,,,,,,,,,,,,,,,,,,,,,,,,
0,69,69,49,1,,5f4139a5fb4ebc2ad33cb71d,62c538c1c1c9a7c5e0129e84,2022-07-06_09h30.13.263,Colour_Asymmetry_Pilot,2022.1.3,Win32,60.05645307,62c50e9c1127f2cd403a315f,,,,,,,,,,,,,,,,,,,,,,,,,,,,,,,,,,,,,,,,,,,,,,,,,,,,,,,,,,,,,,,,,,,,,,,,,,,,,,,,,,,,,,,,,,,,,,,,,,,,,,,,,,,,,,,,,,,,,,,,,,,,,,,,,,,,,,,,,,,,,,,,,,,,,,,,,,,,,,,,,,,
0,70,70,41,1,,5f4139a5fb4ebc2ad33cb71d,62c538c1c1c9a7c5e0129e84,2022-07-06_09h30.13.263,Colour_Asymmetry_Pilot,2022.1.3,Win32,60.05645307,62c50e9c1127f2cd403a315f,,,,,,,,,,,,,,,,,,,,,,,,,,,,,,,,,,,,,,,,,,,,,,,,,,,,,,,,,,,,,,,,,,,,,,,,,,,,,,,,,,,,,,,,,,,,,,,,,,,,,,,,,,,,,,,,,,,,,,,,,,,,,,,,,,,,,,,,,,,,,,,,,,,,,,,,,,,,,,,,,,,
0,71,71,23,1,,5f4139a5fb4ebc2ad33cb71d,62c538c1c1c9a7c5e0129e84,2022-07-06_09h30.13.263,Colour_Asymmetry_Pilot,2022.1.3,Win32,60.05645307,62c50e9c1127f2cd403a315f,,,,,,,,,,,,,,,,,,,,,,,,,,,,,,,,,,,,,,,,,,,,,,,,,,,,,,,,,,,,,,,,,,,,,,,,,,,,,,,,,,,,,,,,,,,,,,,,,,,,,,,,,,,,,,,,,,,,,,,,,,,,,,,,,,,,,,,,,,,,,,,,,,,,,,,,,,,,,,,,,,,
0,72,72,73,1,,5f4139a5fb4ebc2ad33cb71d,62c538c1c1c9a7c5e0129e84,2022-07-06_09h30.13.263,Colour_Asymmetry_Pilot,2022.1.3,Win32,60.05645307,62c50e9c1127f2cd403a315f,,,,,,,,,,,,,,,,,,,,,,,,,,,,,,,,,,,,,,,,,,,,,,,,,,,,,,,,,,,,,,,,,,,,,,,,,,,,,,,,,,,,,,,,,,,,,,,,,,,,,,,,,,,,,,,,,,,,,,,,,,,,,,,,,,,,,,,,,,,,,,,,,,,,,,,,,,,,,,,,,,,
0,73,73,38,1,,5f4139a5fb4ebc2ad33cb71d,62c538c1c1c9a7c5e0129e84,2022-07-06_09h30.13.263,Colour_Asymmetry_Pilot,2022.1.3,Win32,60.05645307,62c50e9c1127f2cd403a315f,,,,,,,,,,,,,,,,,,,,,,,,,,,,,,,,,,,,,,,,,,,,,,,,,,,,,,,,,,,,,,,,,,,,,,,,,,,,,,,,,,,,,,,,,,,,,,,,,,,,,,,,,,,,,,,,,,,,,,,,,,,,,,,,,,,,,,,,,,,,,,,,,,,,,,,,,,,,,,,,,,,
0,74,74,39,1,,5f4139a5fb4ebc2ad33cb71d,62c538c1c1c9a7c5e0129e84,2022-07-06_09h30.13.263,Colour_Asymmetry_Pilot,2022.1.3,Win32,60.05645307,62c50e9c1127f2cd403a315f,,,,,,,,,,,,,,,,,,,,,,,,,,,,,,,,,,,,,,,,,,,,,,,,,,,,,,,,,,,,,,,,,,,,,,,,,,,,,,,,,,,,,,,,,,,,,,,,,,,,,,,,,,,,,,,,,,,,,,,,,,,,,,,,,,,,,,,,,,,,,,,,,,,,,,,,,,,,,,,,,,,
0,75,75,62,1,,5f4139a5fb4ebc2ad33cb71d,62c538c1c1c9a7c5e0129e84,2022-07-06_09h30.13.263,Colour_Asymmetry_Pilot,2022.1.3,Win32,60.05645307,62c50e9c1127f2cd403a315f,,,,,,,,,,,,,,,,,,,,,,,,,,,,,,,,,,,,,,,,,,,,,,,,,,,,,,,,,,,,,,,,,,,,,,,,,,,,,,,,,,,,,,,,,,,,,,,,,,,,,,,,,,,,,,,,,,,,,,,,,,,,,,,,,,,,,,,,,,,,,,,,,,,,,,,,,,,,,,,,,,,
0,76,76,61,1,,5f4139a5fb4ebc2ad33cb71d,62c538c1c1c9a7c5e0129e84,2022-07-06_09h30.13.263,Colour_Asymmetry_Pilot,2022.1.3,Win32,60.05645307,62c50e9c1127f2cd403a315f,,,,,,,,,,,,,,,,,,,,,,,,,,,,,,,,,,,,,,,,,,,,,,,,,,,,,,,,,,,,,,,,,,,,,,,,,,,,,,,,,,,,,,,,,,,,,,,,,,,,,,,,,,,,,,,,,,,,,,,,,,,,,,,,,,,,,,,,,,,,,,,,,,,,,,,,,,,,,,,,,,,
0,77,77,63,1,,5f4139a5fb4ebc2ad33cb71d,62c538c1c1c9a7c5e0129e84,2022-07-06_09h30.13.263,Colour_Asymmetry_Pilot,2022.1.3,Win32,60.05645307,62c50e9c1127f2cd403a315f,,,,,,,,,,,,,,,,,,,,,,,,,,,,,,,,,,,,,,,,,,,,,,,,,,,,,,,,,,,,,,,,,,,,,,,,,,,,,,,,,,,,,,,,,,,,,,,,,,,,,,,,,,,,,,,,,,,,,,,,,,,,,,,,,,,,,,,,,,,,,,,,,,,,,,,,,,,,,,,,,,,
0,78,78,31,1,,5f4139a5fb4ebc2ad33cb71d,62c538c1c1c9a7c5e0129e84,2022-07-06_09h30.13.263,Colour_Asymmetry_Pilot,2022.1.3,Win32,60.05645307,62c50e9c1127f2cd403a315f,,,,,,,,,,,,,,,,,,,,,,,,,,,,,,,,,,,,,,,,,,,,,,,,,,,,,,,,,,,,,,,,,,,,,,,,,,,,,,,,,,,,,,,,,,,,,,,,,,,,,,,,,,,,,,,,,,,,,,,,,,,,,,,,,,,,,,,,,,,,,,,,,,,,,,,,,,,,,,,,,,,
0,79,79,28,1,,5f4139a5fb4ebc2ad33cb71d,62c538c1c1c9a7c5e0129e84,2022-07-06_09h30.13.263,Colour_Asymmetry_Pilot,2022.1.3,Win32,60.05645307,62c50e9c1127f2cd403a315f,,,,,,,,,,,,,,,,,,,,,,,,,,,,,,,,,,,,,,,,,,,,,,,,,,,,,,,,,,,,,,,,,,,,,,,,,,,,,,,,,,,,,,,,,,,,,,,,,,,,,,,,,,,,,,,,,,,,,,,,,,,,,,,,,,,,,,,,,,,,,,,,,,,,,,,,,,,,,,,,,,,
0,80,80,45,1,,5f4139a5fb4ebc2ad33cb71d,62c538c1c1c9a7c5e0129e84,2022-07-06_09h30.13.263,Colour_Asymmetry_Pilot,2022.1.3,Win32,60.05645307,62c50e9c1127f2cd403a315f,,,,,,,,,,,,,,,,,,,,,,,,,,,,,,,,,,,,,,,,,,,,,,,,,,,,,,,,,,,,,,,,,,,,,,,,,,,,,,,,,,,,,,,,,,,,,,,,,,,,,,,,,,,,,,,,,,,,,,,,,,,,,,,,,,,,,,,,,,,,,,,,,,,,,,,,,,,,,,,,,,,
0,81,81,27,1,,5f4139a5fb4ebc2ad33cb71d,62c538c1c1c9a7c5e0129e84,2022-07-06_09h30.13.263,Colour_Asymmetry_Pilot,2022.1.3,Win32,60.05645307,62c50e9c1127f2cd403a315f,,,,,,,,,,,,,,,,,,,,,,,,,,,,,,,,,,,,,,,,,,,,,,,,,,,,,,,,,,,,,,,,,,,,,,,,,,,,,,,,,,,,,,,,,,,,,,,,,,,,,,,,,,,,,,,,,,,,,,,,,,,,,,,,,,,,,,,,,,,,,,,,,,,,,,,,,,,,,,,,,,,
0,82,82,33,1,,5f4139a5fb4ebc2ad33cb71d,62c538c1c1c9a7c5e0129e84,2022-07-06_09h30.13.263,Colour_Asymmetry_Pilot,2022.1.3,Win32,60.05645307,62c50e9c1127f2cd403a315f,,,,,,,,,,,,,,,,,,,,,,,,,,,,,,,,,,,,,,,,,,,,,,,,,,,,,,,,,,,,,,,,,,,,,,,,,,,,,,,,,,,,,,,,,,,,,,,,,,,,,,,,,,,,,,,,,,,,,,,,,,,,,,,,,,,,,,,,,,,,,,,,,,,,,,,,,,,,,,,,,,,
0,83,83,20,1,,5f4139a5fb4ebc2ad33cb71d,62c538c1c1c9a7c5e0129e84,2022-07-06_09h30.13.263,Colour_Asymmetry_Pilot,2022.1.3,Win32,60.05645307,62c50e9c1127f2cd403a315f,,,,,,,,,,,,,,,,,,,,,,,,,,,,,,,,,,,,,,,,,,,,,,,,,,,,,,,,,,,,,,,,,,,,,,,,,,,,,,,,,,,,,,,,,,,,,,,,,,,,,,,,,,,,,,,,,,,,,,,,,,,,,,,,,,,,,,,,,,,,,,,,,,,,,,,,,,,,,,,,,,,
0,84,84,13,1,,5f4139a5fb4ebc2ad33cb71d,62c538c1c1c9a7c5e0129e84,2022-07-06_09h30.13.263,Colour_Asymmetry_Pilot,2022.1.3,Win32,60.05645307,62c50e9c1127f2cd403a315f,,,,,,,,,,,,,,,,,,,,,,,,,,,,,,,,,,,,,,,,,,,,,,,,,,,,,,,,,,,,,,,,,,,,,,,,,,,,,,,,,,,,,,,,,,,,,,,,,,,,,,,,,,,,,,,,,,,,,,,,,,,,,,,,,,,,,,,,,,,,,,,,,,,,,,,,,,,,,,,,,,,
0,85,85,48,1,,5f4139a5fb4ebc2ad33cb71d,62c538c1c1c9a7c5e0129e84,2022-07-06_09h30.13.263,Colour_Asymmetry_Pilot,2022.1.3,Win32,60.05645307,62c50e9c1127f2cd403a315f,,,,,,,,,,,,,,,,,,,,,,,,,,,,,,,,,,,,,,,,,,,,,,,,,,,,,,,,,,,,,,,,,,,,,,,,,,,,,,,,,,,,,,,,,,,,,,,,,,,,,,,,,,,,,,,,,,,,,,,,,,,,,,,,,,,,,,,,,,,,,,,,,,,,,,,,,,,,,,,,,,,
0,86,86,78,1,,5f4139a5fb4ebc2ad33cb71d,62c538c1c1c9a7c5e0129e84,2022-07-06_09h30.13.263,Colour_Asymmetry_Pilot,2022.1.3,Win32,60.05645307,62c50e9c1127f2cd403a315f,,,,,,,,,,,,,,,,,,,,,,,,,,,,,,,,,,,,,,,,,,,,,,,,,,,,,,,,,,,,,,,,,,,,,,,,,,,,,,,,,,,,,,,,,,,,,,,,,,,,,,,,,,,,,,,,,,,,,,,,,,,,,,,,,,,,,,,,,,,,,,,,,,,,,,,,,,,,,,,,,,,
0,87,87,51,1,,5f4139a5fb4ebc2ad33cb71d,62c538c1c1c9a7c5e0129e84,2022-07-06_09h30.13.263,Colour_Asymmetry_Pilot,2022.1.3,Win32,60.05645307,62c50e9c1127f2cd403a315f,,,,,,,,,,,,,,,,,,,,,,,,,,,,,,,,,,,,,,,,,,,,,,,,,,,,,,,,,,,,,,,,,,,,,,,,,,,,,,,,,,,,,,,,,,,,,,,,,,,,,,,,,,,,,,,,,,,,,,,,,,,,,,,,,,,,,,,,,,,,,,,,,,,,,,,,,,,,,,,,,,,
0,88,88,67,1,,5f4139a5fb4ebc2ad33cb71d,62c538c1c1c9a7c5e0129e84,2022-07-06_09h30.13.263,Colour_Asymmetry_Pilot,2022.1.3,Win32,60.05645307,62c50e9c1127f2cd403a315f,,,,,,,,,,,,,,,,,,,,,,,,,,,,,,,,,,,,,,,,,,,,,,,,,,,,,,,,,,,,,,,,,,,,,,,,,,,,,,,,,,,,,,,,,,,,,,,,,,,,,,,,,,,,,,,,,,,,,,,,,,,,,,,,,,,,,,,,,,,,,,,,,,,,,,,,,,,,,,,,,,,
0,89,89,66,1,,5f4139a5fb4ebc2ad33cb71d,62c538c1c1c9a7c5e0129e84,2022-07-06_09h30.13.263,Colour_Asymmetry_Pilot,2022.1.3,Win32,60.05645307,62c50e9c1127f2cd403a315f,,,,,,,,,,,,,,,,,,,,,,,,,,,,,,,,,,,,,,,,,,,,,,,,,,,,,,,,,,,,,,,,,,,,,,,,,,,,,,,,,,,,,,,,,,,,,,,,,,,,,,,,,,,,,,,,,,,,,,,,,,,,,,,,,,,,,,,,,,,,,,,,,,,,,,,,,,,,,,,,,,,
0,90,90,43,1,,5f4139a5fb4ebc2ad33cb71d,62c538c1c1c9a7c5e0129e84,2022-07-06_09h30.13.263,Colour_Asymmetry_Pilot,2022.1.3,Win32,60.05645307,62c50e9c1127f2cd403a315f,,,,,,,,,,,,,,,,,,,,,,,,,,,,,,,,,,,,,,,,,,,,,,,,,,,,,,,,,,,,,,,,,,,,,,,,,,,,,,,,,,,,,,,,,,,,,,,,,,,,,,,,,,,,,,,,,,,,,,,,,,,,,,,,,,,,,,,,,,,,,,,,,,,,,,,,,,,,,,,,,,,
0,91,91,40,1,,5f4139a5fb4ebc2ad33cb71d,62c538c1c1c9a7c5e0129e84,2022-07-06_09h30.13.263,Colour_Asymmetry_Pilot,2022.1.3,Win32,60.05645307,62c50e9c1127f2cd403a315f,,,,,,,,,,,,,,,,,,,,,,,,,,,,,,,,,,,,,,,,,,,,,,,,,,,,,,,,,,,,,,,,,,,,,,,,,,,,,,,,,,,,,,,,,,,,,,,,,,,,,,,,,,,,,,,,,,,,,,,,,,,,,,,,,,,,,,,,,,,,,,,,,,,,,,,,,,,,,,,,,,,
0,92,92,84,1,,5f4139a5fb4ebc2ad33cb71d,62c538c1c1c9a7c5e0129e84,2022-07-06_09h30.13.263,Colour_Asymmetry_Pilot,2022.1.3,Win32,60.05645307,62c50e9c1127f2cd403a315f,,,,,,,,,,,,,,,,,,,,,,,,,,,,,,,,,,,,,,,,,,,,,,,,,,,,,,,,,,,,,,,,,,,,,,,,,,,,,,,,,,,,,,,,,,,,,,,,,,,,,,,,,,,,,,,,,,,,,,,,,,,,,,,,,,,,,,,,,,,,,,,,,,,,,,,,,,,,,,,,,,,
,,,,,,5f4139a5fb4ebc2ad33cb71d,62c538c1c1c9a7c5e0129e84,2022-07-06_09h30.13.263,Colour_Asymmetry_Pilot,2022.1.3,Win32,60.05645307,62c50e9c1127f2cd403a315f,0,0,0,2,1,twoone,,,,,,,,,,,,,,,,,,,,,,,,,,,,,,,,,,,,,,,,,,,,,,,,,,,,,,,,,,,,,,,,,,,,,,,,,,,,,,,,,,,,,,,,,,,,,,,,,,,,,,,,,,,,,,,,,,,,,,,,,,,,,,,,,,,,,,,,,,,,,,,,,,,,,,,,,,,,,
,,,,,,5f4139a5fb4ebc2ad33cb71d,62c538c1c1c9a7c5e0129e84,2022-07-06_09h30.13.263,Colour_Asymmetry_Pilot,2022.1.3,Win32,60.05645307,62c50e9c1127f2cd403a315f,0,1,1,73,1,onethree,,,,,,,,,,,,,,,,,,,,,,,,,,,,,,,,,,,,,,,,,,,,,,,,,,,,,,,,,,,,,,,,,,,,,,,,,,,,,,,,,,,,,,,,,,,,,,,,,,,,,,,,,,,,,,,,,,,,,,,,,,,,,,,,,,,,,,,,,,,,,,,,,,,,,,,,,,,,,
,,,,,,5f4139a5fb4ebc2ad33cb71d,62c538c1c1c9a7c5e0129e84,2022-07-06_09h30.13.263,Colour_Asymmetry_Pilot,2022.1.3,Win32,60.05645307,62c50e9c1127f2cd403a315f,0,2,2,50,1,twoone,,,,,,,,,,,,,,,,,,,,,,,,,,,,,,,,,,,,,,,,,,,,,,,,,,,,,,,,,,,,,,,,,,,,,,,,,,,,,,,,,,,,,,,,,,,,,,,,,,,,,,,,,,,,,,,,,,,,,,,,,,,,,,,,,,,,,,,,,,,,,,,,,,,,,,,,,,,,,
,,,,,,5f4139a5fb4ebc2ad33cb71d,62c538c1c1c9a7c5e0129e84,2022-07-06_09h30.13.263,Colour_Asymmetry_Pilot,2022.1.3,Win32,60.05645307,62c50e9c1127f2cd403a315f,0,3,3,105,1,onethree,,,,,,,,,,,,,,,,,,,,,,,,,,,,,,,,,,,,,,,,,,,,,,,,,,,,,,,,,,,,,,,,,,,,,,,,,,,,,,,,,,,,,,,,,,,,,,,,,,,,,,,,,,,,,,,,,,,,,,,,,,,,,,,,,,,,,,,,,,,,,,,,,,,,,,,,,,,,,
,,,,,,5f4139a5fb4ebc2ad33cb71d,62c538c1c1c9a7c5e0129e84,2022-07-06_09h30.13.263,Colour_Asymmetry_Pilot,2022.1.3,Win32,60.05645307,62c50e9c1127f2cd403a315f,0,4,4,56,1,onetwo,,,,,,,,,,,,,,,,,,,,,,,,,,,,,,,,,,,,,,,,,,,,,,,,,,,,,,,,,,,,,,,,,,,,,,,,,,,,,,,,,,,,,,,,,,,,,,,,,,,,,,,,,,,,,,,,,,,,,,,,,,,,,,,,,,,,,,,,,,,,,,,,,,,,,,,,,,,,,
,,,,,,5f4139a5fb4ebc2ad33cb71d,62c538c1c1c9a7c5e0129e84,2022-07-06_09h30.13.263,Colour_Asymmetry_Pilot,2022.1.3,Win32,60.05645307,62c50e9c1127f2cd403a315f,0,5,5,104,1,onetwo,,,,,,,,,,,,,,,,,,,,,,,,,,,,,,,,,,,,,,,,,,,,,,,,,,,,,,,,,,,,,,,,,,,,,,,,,,,,,,,,,,,,,,,,,,,,,,,,,,,,,,,,,,,,,,,,,,,,,,,,,,,,,,,,,,,,,,,,,,,,,,,,,,,,,,,,,,,,,
,,,,,,5f4139a5fb4ebc2ad33cb71d,62c538c1c1c9a7c5e0129e84,2022-07-06_09h30.13.263,Colour_Asymmetry_Pilot,2022.1.3,Win32,60.05645307,62c50e9c1127f2cd403a315f,0,6,6,107,1,twofour,,,,,,,,,,,,,,,,,,,,,,,,,,,,,,,,,,,,,,,,,,,,,,,,,,,,,,,,,,,,,,,,,,,,,,,,,,,,,,,,,,,,,,,,,,,,,,,,,,,,,,,,,,,,,,,,,,,,,,,,,,,,,,,,,,,,,,,,,,,,,,,,,,,,,,,,,,,,,
,,,,,,5f4139a5fb4ebc2ad33cb71d,62c538c1c1c9a7c5e0129e84,2022-07-06_09h30.13.263,Colour_Asymmetry_Pilot,2022.1.3,Win32,60.05645307,62c50e9c1127f2cd403a315f,0,7,7,17,1,onethree,,,,,,,,,,,,,,,,,,,,,,,,,,,,,,,,,,,,,,,,,,,,,,,,,,,,,,,,,,,,,,,,,,,,,,,,,,,,,,,,,,,,,,,,,,,,,,,,,,,,,,,,,,,,,,,,,,,,,,,,,,,,,,,,,,,,,,,,,,,,,,,,,,,,,,,,,,,,,
,,,,,,5f4139a5fb4ebc2ad33cb71d,62c538c1c1c9a7c5e0129e84,2022-07-06_09h30.13.263,Colour_Asymmetry_Pilot,2022.1.3,Win32,60.05645307,62c50e9c1127f2cd403a315f,0,8,8,35,1,twofour,,,,,,,,,,,,,,,,,,,,,,,,,,,,,,,,,,,,,,,,,,,,,,,,,,,,,,,,,,,,,,,,,,,,,,,,,,,,,,,,,,,,,,,,,,,,,,,,,,,,,,,,,,,,,,,,,,,,,,,,,,,,,,,,,,,,,,,,,,,,,,,,,,,,,,,,,,,,,
,,,,,,5f4139a5fb4ebc2ad33cb71d,62c538c1c1c9a7c5e0129e84,2022-07-06_09h30.13.263,Colour_Asymmetry_Pilot,2022.1.3,Win32,60.05645307,62c50e9c1127f2cd403a315f,0,9,9,93,1,threefour,,,,,,,,,,,,,,,,,,,,,,,,,,,,,,,,,,,,,,,,,,,,,,,,,,,,,,,,,,,,,,,,,,,,,,,,,,,,,,,,,,,,,,,,,,,,,,,,,,,,,,,,,,,,,,,,,,,,,,,,,,,,,,,,,,,,,,,,,,,,,,,,,,,,,,,,,,,,,
,,,,,,5f4139a5fb4ebc2ad33cb71d,62c538c1c1c9a7c5e0129e84,2022-07-06_09h30.13.263,Colour_Asymmetry_Pilot,2022.1.3,Win32,60.05645307,62c50e9c1127f2cd403a315f,0,10,10,18,1,twoone,,,,,,,,,,,,,,,,,,,,,,,,,,,,,,,,,,,,,,,,,,,,,,,,,,,,,,,,,,,,,,,,,,,,,,,,,,,,,,,,,,,,,,,,,,,,,,,,,,,,,,,,,,,,,,,,,,,,,,,,,,,,,,,,,,,,,,,,,,,,,,,,,,,,,,,,,,,,,
,,,,,,5f4139a5fb4ebc2ad33cb71d,62c538c1c1c9a7c5e0129e84,2022-07-06_09h30.13.263,Colour_Asymmetry_Pilot,2022.1.3,Win32,60.05645307,62c50e9c1127f2cd403a315f,0,11,11,57,1,onethree,,,,,,,,,,,,,,,,,,,,,,,,,,,,,,,,,,,,,,,,,,,,,,,,,,,,,,,,,,,,,,,,,,,,,,,,,,,,,,,,,,,,,,,,,,,,,,,,,,,,,,,,,,,,,,,,,,,,,,,,,,,,,,,,,,,,,,,,,,,,,,,,,,,,,,,,,,,,,
,,,,,,5f4139a5fb4ebc2ad33cb71d,62c538c1c1c9a7c5e0129e84,2022-07-06_09h30.13.263,Colour_Asymmetry_Pilot,2022.1.3,Win32,60.05645307,62c50e9c1127f2cd403a315f,0,12,12,114,1,twoone,,,,,,,,,,,,,,,,,,,,,,,,,,,,,,,,,,,,,,,,,,,,,,,,,,,,,,,,,,,,,,,,,,,,,,,,,,,,,,,,,,,,,,,,,,,,,,,,,,,,,,,,,,,,,,,,,,,,,,,,,,,,,,,,,,,,,,,,,,,,,,,,,,,,,,,,,,,,,
,,,,,,5f4139a5fb4ebc2ad33cb71d,62c538c1c1c9a7c5e0129e84,2022-07-06_09h30.13.263,Colour_Asymmetry_Pilot,2022.1.3,Win32,60.05645307,62c50e9c1127f2cd403a315f,0,13,13,25,1,onethree,,,,,,,,,,,,,,,,,,,,,,,,,,,,,,,,,,,,,,,,,,,,,,,,,,,,,,,,,,,,,,,,,,,,,,,,,,,,,,,,,,,,,,,,,,,,,,,,,,,,,,,,,,,,,,,,,,,,,,,,,,,,,,,,,,,,,,,,,,,,,,,,,,,,,,,,,,,,,
,,,,,,5f4139a5fb4ebc2ad33cb71d,62c538c1c1c9a7c5e0129e84,2022-07-06_09h30.13.263,Colour_Asymmetry_Pilot,2022.1.3,Win32,60.05645307,62c50e9c1127f2cd403a315f,0,14,14,87,1,fourthree,,,,,,,,,,,,,,,,,,,,,,,,,,,,,,,,,,,,,,,,,,,,,,,,,,,,,,,,,,,,,,,,,,,,,,,,,,,,,,,,,,,,,,,,,,,,,,,,,,,,,,,,,,,,,,,,,,,,,,,,,,,,,,,,,,,,,,,,,,,,,,,,,,,,,,,,,,,,,
,,,,,,5f4139a5fb4ebc2ad33cb71d,62c538c1c1c9a7c5e0129e84,2022-07-06_09h30.13.263,Colour_Asymmetry_Pilot,2022.1.3,Win32,60.05645307,62c50e9c1127f2cd403a315f,0,15,15,76,1,threeone,,,,,,,,,,,,,,,,,,,,,,,,,,,,,,,,,,,,,,,,,,,,,,,,,,,,,,,,,,,,,,,,,,,,,,,,,,,,,,,,,,,,,,,,,,,,,,,,,,,,,,,,,,,,,,,,,,,,,,,,,,,,,,,,,,,,,,,,,,,,,,,,,,,,,,,,,,,,,
,,,,,,5f4139a5fb4ebc2ad33cb71d,62c538c1c1c9a7c5e0129e84,2022-07-06_09h30.13.263,Colour_Asymmetry_Pilot,2022.1.3,Win32,60.05645307,62c50e9c1127f2cd403a315f,0,16,16,161,1,onethree,,,,,,,,,,,,,,,,,,,,,,,,,,,,,,,,,,,,,,,,,,,,,,,,,,,,,,,,,,,,,,,,,,,,,,,,,,,,,,,,,,,,,,,,,,,,,,,,,,,,,,,,,,,,,,,,,,,,,,,,,,,,,,,,,,,,,,,,,,,,,,,,,,,,,,,,,,,,,
,,,,,,5f4139a5fb4ebc2ad33cb71d,62c538c1c1c9a7c5e0129e84,2022-07-06_09h30.13.263,Colour_Asymmetry_Pilot,2022.1.3,Win32,60.05645307,62c50e9c1127f2cd403a315f,0,17,17,16,1,onetwo,,,,,,,,,,,,,,,,,,,,,,,,,,,,,,,,,,,,,,,,,,,,,,,,,,,,,,,,,,,,,,,,,,,,,,,,,,,,,,,,,,,,,,,,,,,,,,,,,,,,,,,,,,,,,,,,,,,,,,,,,,,,,,,,,,,,,,,,,,,,,,,,,,,,,,,,,,,,,
,,,,,,5f4139a5fb4ebc2ad33cb71d,62c538c1c1c9a7c5e0129e84,2022-07-06_09h30.13.263,Colour_Asymmetry_Pilot,2022.1.3,Win32,60.05645307,62c50e9c1127f2cd403a315f,0,18,18,36,1,threeone,,,,,,,,,,,,,,,,,,,,,,,,,,,,,,,,,,,,,,,,,,,,,,,,,,,,,,,,,,,,,,,,,,,,,,,,,,,,,,,,,,,,,,,,,,,,,,,,,,,,,,,,,,,,,,,,,,,,,,,,,,,,,,,,,,,,,,,,,,,,,,,,,,,,,,,,,,,,,
,,,,,,5f4139a5fb4ebc2ad33cb71d,62c538c1c1c9a7c5e0129e84,2022-07-06_09h30.13.263,Colour_Asymmetry_Pilot,2022.1.3,Win32,60.05645307,62c50e9c1127f2cd403a315f,0,19,19,49,1,onethree,,,,,,,,,,,,,,,,,,,,,,,,,,,,,,,,,,,,,,,,,,,,,,,,,,,,,,,,,,,,,,,,,,,,,,,,,,,,,,,,,,,,,,,,,,,,,,,,,,,,,,,,,,,,,,,,,,,,,,,,,,,,,,,,,,,,,,,,,,,,,,,,,,,,,,,,,,,,,
,,,,,,5f4139a5fb4ebc2ad33cb71d,62c538c1c1c9a7c5e0129e84,2022-07-06_09h30.13.263,Colour_Asymmetry_Pilot,2022.1.3,Win32,60.05645307,62c50e9c1127f2cd403a315f,0,20,20,88,1,onetwo,,,,,,,,,,,,,,,,,,,,,,,,,,,,,,,,,,,,,,,,,,,,,,,,,,,,,,,,,,,,,,,,,,,,,,,,,,,,,,,,,,,,,,,,,,,,,,,,,,,,,,,,,,,,,,,,,,,,,,,,,,,,,,,,,,,,,,,,,,,,,,,,,,,,,,,,,,,,,
,,,,,,5f4139a5fb4ebc2ad33cb71d,62c538c1c1c9a7c5e0129e84,2022-07-06_09h30.13.263,Colour_Asymmetry_Pilot,2022.1.3,Win32,60.05645307,62c50e9c1127f2cd403a315f,0,21,21,62,1,fourtwo,,,,,,,,,,,,,,,,,,,,,,,,,,,,,,,,,,,,,,,,,,,,,,,,,,,,,,,,,,,,,,,,,,,,,,,,,,,,,,,,,,,,,,,,,,,,,,,,,,,,,,,,,,,,,,,,,,,,,,,,,,,,,,,,,,,,,,,,,,,,,,,,,,,,,,,,,,,,,
,,,,,,5f4139a5fb4ebc2ad33cb71d,62c538c1c1c9a7c5e0129e84,2022-07-06_09h30.13.263,Colour_Asymmetry_Pilot,2022.1.3,Win32,60.05645307,62c50e9c1127f2cd403a315f,0,22,22,140,1,threeone,,,,,,,,,,,,,,,,,,,,,,,,,,,,,,,,,,,,,,,,,,,,,,,,,,,,,,,,,,,,,,,,,,,,,,,,,,,,,,,,,,,,,,,,,,,,,,,,,,,,,,,,,,,,,,,,,,,,,,,,,,,,,,,,,,,,,,,,,,,,,,,,,,,,,,,,,,,,,
,,,,,,5f4139a5fb4ebc2ad33cb71d,62c538c1c1c9a7c5e0129e84,2022-07-06_09h30.13.263,Colour_Asymmetry_Pilot,2022.1.3,Win32,60.05645307,62c50e9c1127f2cd403a315f,0,23,23,75,1,twofour,,,,,,,,,,,,,,,,,,,,,,,,,,,,,,,,,,,,,,,,,,,,,,,,,,,,,,,,,,,,,,,,,,,,,,,,,,,,,,,,,,,,,,,,,,,,,,,,,,,,,,,,,,,,,,,,,,,,,,,,,,,,,,,,,,,,,,,,,,,,,,,,,,,,,,,,,,,,,
,,,,,,5f4139a5fb4ebc2ad33cb71d,62c538c1c1c9a7c5e0129e84,2022-07-06_09h30.13.263,Colour_Asymmetry_Pilot,2022.1.3,Win32,60.05645307,62c50e9c1127f2cd403a315f,0,24,24,123,1,twofour,,,,,,,,,,,,,,,,,,,,,,,,,,,,,,,,,,,,,,,,,,,,,,,,,,,,,,,,,,,,,,,,,,,,,,,,,,,,,,,,,,,,,,,,,,,,,,,,,,,,,,,,,,,,,,,,,,,,,,,,,,,,,,,,,,,,,,,,,,,,,,,,,,,,,,,,,,,,,
,,,,,,5f4139a5fb4ebc2ad33cb71d,62c538c1c1c9a7c5e0129e84,2022-07-06_09h30.13.263,Colour_Asymmetry_Pilot,2022.1.3,Win32,60.05645307,62c50e9c1127f2cd403a315f,0,25,25,10,1,twoone,,,,,,,,,,,,,,,,,,,,,,,,,,,,,,,,,,,,,,,,,,,,,,,,,,,,,,,,,,,,,,,,,,,,,,,,,,,,,,,,,,,,,,,,,,,,,,,,,,,,,,,,,,,,,,,,,,,,,,,,,,,,,,,,,,,,,,,,,,,,,,,,,,,,,,,,,,,,,
,,,,,,5f4139a5fb4ebc2ad33cb71d,62c538c1c1c9a7c5e0129e84,2022-07-06_09h30.13.263,Colour_Asymmetry_Pilot,2022.1.3,Win32,60.05645307,62c50e9c1127f2cd403a315f,0,26,26,8,1,onetwo,,,,,,,,,,,,,,,,,,,,,,,,,,,,,,,,,,,,,,,,,,,,,,,,,,,,,,,,,,,,,,,,,,,,,,,,,,,,,,,,,,,,,,,,,,,,,,,,,,,,,,,,,,,,,,,,,,,,,,,,,,,,,,,,,,,,,,,,,,,,,,,,,,,,,,,,,,,,,
,,,,,,5f4139a5fb4ebc2ad33cb71d,62c538c1c1c9a7c5e0129e84,2022-07-06_09h30.13.263,Colour_Asymmetry_Pilot,2022.1.3,Win32,60.05645307,62c50e9c1127f2cd403a315f,0,27,27,139,1,twofour,,,,,,,,,,,,,,,,,,,,,,,,,,,,,,,,,,,,,,,,,,,,,,,,,,,,,,,,,,,,,,,,,,,,,,,,,,,,,,,,,,,,,,,,,,,,,,,,,,,,,,,,,,,,,,,,,,,,,,,,,,,,,,,,,,,,,,,,,,,,,,,,,,,,,,,,,,,,,
,,,,,,5f4139a5fb4ebc2ad33cb71d,62c538c1c1c9a7c5e0129e84,2022-07-06_09h30.13.263,Colour_Asymmetry_Pilot,2022.1.3,Win32,60.05645307,62c50e9c1127f2cd403a315f,0,28,28,126,1,fourtwo,,,,,,,,,,,,,,,,,,,,,,,,,,,,,,,,,,,,,,,,,,,,,,,,,,,,,,,,,,,,,,,,,,,,,,,,,,,,,,,,,,,,,,,,,,,,,,,,,,,,,,,,,,,,,,,,,,,,,,,,,,,,,,,,,,,,,,,,,,,,,,,,,,,,,,,,,,,,,
,,,,,,5f4139a5fb4ebc2ad33cb71d,62c538c1c1c9a7c5e0129e84,2022-07-06_09h30.13.263,Colour_Asymmetry_Pilot,2022.1.3,Win32,60.05645307,62c50e9c1127f2cd403a315f,0,29,29,33,1,onethree,,,,,,,,,,,,,,,,,,,,,,,,,,,,,,,,,,,,,,,,,,,,,,,,,,,,,,,,,,,,,,,,,,,,,,,,,,,,,,,,,,,,,,,,,,,,,,,,,,,,,,,,,,,,,,,,,,,,,,,,,,,,,,,,,,,,,,,,,,,,,,,,,,,,,,,,,,,,,
,,,,,,5f4139a5fb4ebc2ad33cb71d,62c538c1c1c9a7c5e0129e84,2022-07-06_09h30.13.263,Colour_Asymmetry_Pilot,2022.1.3,Win32,60.05645307,62c50e9c1127f2cd403a315f,0,30,30,37,1,threefour,,,,,,,,,,,,,,,,,,,,,,,,,,,,,,,,,,,,,,,,,,,,,,,,,,,,,,,,,,,,,,,,,,,,,,,,,,,,,,,,,,,,,,,,,,,,,,,,,,,,,,,,,,,,,,,,,,,,,,,,,,,,,,,,,,,,,,,,,,,,,,,,,,,,,,,,,,,,,
,,,,,,5f4139a5fb4ebc2ad33cb71d,62c538c1c1c9a7c5e0129e84,2022-07-06_09h30.13.263,Colour_Asymmetry_Pilot,2022.1.3,Win32,60.05645307,62c50e9c1127f2cd403a315f,0,31,31,118,1,fourtwo,,,,,,,,,,,,,,,,,,,,,,,,,,,,,,,,,,,,,,,,,,,,,,,,,,,,,,,,,,,,,,,,,,,,,,,,,,,,,,,,,,,,,,,,,,,,,,,,,,,,,,,,,,,,,,,,,,,,,,,,,,,,,,,,,,,,,,,,,,,,,,,,,,,,,,,,,,,,,
,,,,,,5f4139a5fb4ebc2ad33cb71d,62c538c1c1c9a7c5e0129e84,2022-07-06_09h30.13.263,Colour_Asymmetry_Pilot,2022.1.3,Win32,60.05645307,62c50e9c1127f2cd403a315f,0,32,32,89,1,onethree,,,,,,,,,,,,,,,,,,,,,,,,,,,,,,,,,,,,,,,,,,,,,,,,,,,,,,,,,,,,,,,,,,,,,,,,,,,,,,,,,,,,,,,,,,,,,,,,,,,,,,,,,,,,,,,,,,,,,,,,,,,,,,,,,,,,,,,,,,,,,,,,,,,,,,,,,,,,,
,,,,,,5f4139a5fb4ebc2ad33cb71d,62c538c1c1c9a7c5e0129e84,2022-07-06_09h30.13.263,Colour_Asymmetry_Pilot,2022.1.3,Win32,60.05645307,62c50e9c1127f2cd403a315f,0,33,33,68,1,threeone,,,,,,,,,,,,,,,,,,,,,,,,,,,,,,,,,,,,,,,,,,,,,,,,,,,,,,,,,,,,,,,,,,,,,,,,,,,,,,,,,,,,,,,,,,,,,,,,,,,,,,,,,,,,,,,,,,,,,,,,,,,,,,,,,,,,,,,,,,,,,,,,,,,,,,,,,,,,,
,,,,,,5f4139a5fb4ebc2ad33cb71d,62c538c1c1c9a7c5e0129e84,2022-07-06_09h30.13.263,Colour_Asymmetry_Pilot,2022.1.3,Win32,60.05645307,62c50e9c1127f2cd403a315f,0,34,34,156,1,threeone,,,,,,,,,,,,,,,,,,,,,,,,,,,,,,,,,,,,,,,,,,,,,,,,,,,,,,,,,,,,,,,,,,,,,,,,,,,,,,,,,,,,,,,,,,,,,,,,,,,,,,,,,,,,,,,,,,,,,,,,,,,,,,,,,,,,,,,,,,,,,,,,,,,,,,,,,,,,,
,,,,,,5f4139a5fb4ebc2ad33cb71d,62c538c1c1c9a7c5e0129e84,2022-07-06_09h30.13.263,Colour_Asymmetry_Pilot,2022.1.3,Win32,60.05645307,62c50e9c1127f2cd403a315f,0,35,35,52,1,threeone,,,,,,,,,,,,,,,,,,,,,,,,,,,,,,,,,,,,,,,,,,,,,,,,,,,,,,,,,,,,,,,,,,,,,,,,,,,,,,,,,,,,,,,,,,,,,,,,,,,,,,,,,,,,,,,,,,,,,,,,,,,,,,,,,,,,,,,,,,,,,,,,,,,,,,,,,,,,,
,,,,,,5f4139a5fb4ebc2ad33cb71d,62c538c1c1c9a7c5e0129e84,2022-07-06_09h30.13.263,Colour_Asymmetry_Pilot,2022.1.3,Win32,60.05645307,62c50e9c1127f2cd403a315f,0,36,36,5,1,threefour,,,,,,,,,,,,,,,,,,,,,,,,,,,,,,,,,,,,,,,,,,,,,,,,,,,,,,,,,,,,,,,,,,,,,,,,,,,,,,,,,,,,,,,,,,,,,,,,,,,,,,,,,,,,,,,,,,,,,,,,,,,,,,,,,,,,,,,,,,,,,,,,,,,,,,,,,,,,,
,,,,,,5f4139a5fb4ebc2ad33cb71d,62c538c1c1c9a7c5e0129e84,2022-07-06_09h30.13.263,Colour_Asymmetry_Pilot,2022.1.3,Win32,60.05645307,62c50e9c1127f2cd403a315f,0,37,37,113,1,onethree,,,,,,,,,,,,,,,,,,,,,,,,,,,,,,,,,,,,,,,,,,,,,,,,,,,,,,,,,,,,,,,,,,,,,,,,,,,,,,,,,,,,,,,,,,,,,,,,,,,,,,,,,,,,,,,,,,,,,,,,,,,,,,,,,,,,,,,,,,,,,,,,,,,,,,,,,,,,,
,,,,,,5f4139a5fb4ebc2ad33cb71d,62c538c1c1c9a7c5e0129e84,2022-07-06_09h30.13.263,Colour_Asymmetry_Pilot,2022.1.3,Win32,60.05645307,62c50e9c1127f2cd403a315f,0,38,38,157,1,threefour,,,,,,,,,,,,,,,,,,,,,,,,,,,,,,,,,,,,,,,,,,,,,,,,,,,,,,,,,,,,,,,,,,,,,,,,,,,,,,,,,,,,,,,,,,,,,,,,,,,,,,,,,,,,,,,,,,,,,,,,,,,,,,,,,,,,,,,,,,,,,,,,,,,,,,,,,,,,,
,,,,,,5f4139a5fb4ebc2ad33cb71d,62c538c1c1c9a7c5e0129e84,2022-07-06_09h30.13.263,Colour_Asymmetry_Pilot,2022.1.3,Win32,60.05645307,62c50e9c1127f2cd403a315f,0,39,39,4,1,threeone,,,,,,,,,,,,,,,,,,,,,,,,,,,,,,,,,,,,,,,,,,,,,,,,,,,,,,,,,,,,,,,,,,,,,,,,,,,,,,,,,,,,,,,,,,,,,,,,,,,,,,,,,,,,,,,,,,,,,,,,,,,,,,,,,,,,,,,,,,,,,,,,,,,,,,,,,,,,,
,,,,,,5f4139a5fb4ebc2ad33cb71d,62c538c1c1c9a7c5e0129e84,2022-07-06_09h30.13.263,Colour_Asymmetry_Pilot,2022.1.3,Win32,60.05645307,62c50e9c1127f2cd403a315f,0,40,40,160,1,onetwo,,,,,,,,,,,,,,,,,,,,,,,,,,,,,,,,,,,,,,,,,,,,,,,,,,,,,,,,,,,,,,,,,,,,,,,,,,,,,,,,,,,,,,,,,,,,,,,,,,,,,,,,,,,,,,,,,,,,,,,,,,,,,,,,,,,,,,,,,,,,,,,,,,,,,,,,,,,,,
,,,,,,5f4139a5fb4ebc2ad33cb71d,62c538c1c1c9a7c5e0129e84,2022-07-06_09h30.13.263,Colour_Asymmetry_Pilot,2022.1.3,Win32,60.05645307,62c50e9c1127f2cd403a315f,0,41,41,103,1,fourthree,,,,,,,,,,,,,,,,,,,,,,,,,,,,,,,,,,,,,,,,,,,,,,,,,,,,,,,,,,,,,,,,,,,,,,,,,,,,,,,,,,,,,,,,,,,,,,,,,,,,,,,,,,,,,,,,,,,,,,,,,,,,,,,,,,,,,,,,,,,,,,,,,,,,,,,,,,,,,
,,,,,,5f4139a5fb4ebc2ad33cb71d,62c538c1c1c9a7c5e0129e84,2022-07-06_09h30.13.263,Colour_Asymmetry_Pilot,2022.1.3,Win32,60.05645307,62c50e9c1127f2cd403a315f,0,42,42,40,1,onetwo,,,,,,,,,,,,,,,,,,,,,,,,,,,,,,,,,,,,,,,,,,,,,,,,,,,,,,,,,,,,,,,,,,,,,,,,,,,,,,,,,,,,,,,,,,,,,,,,,,,,,,,,,,,,,,,,,,,,,,,,,,,,,,,,,,,,,,,,,,,,,,,,,,,,,,,,,,,,,
,,,,,,5f4139a5fb4ebc2ad33cb71d,62c538c1c1c9a7c5e0129e84,2022-07-06_09h30.13.263,Colour_Asymmetry_Pilot,2022.1.3,Win32,60.05645307,62c50e9c1127f2cd403a315f,0,43,43,145,1,onethree,,,,,,,,,,,,,,,,,,,,,,,,,,,,,,,,,,,,,,,,,,,,,,,,,,,,,,,,,,,,,,,,,,,,,,,,,,,,,,,,,,,,,,,,,,,,,,,,,,,,,,,,,,,,,,,,,,,,,,,,,,,,,,,,,,,,,,,,,,,,,,,,,,,,,,,,,,,,,
,,,,,,5f4139a5fb4ebc2ad33cb71d,62c538c1c1c9a7c5e0129e84,2022-07-06_09h30.13.263,Colour_Asymmetry_Pilot,2022.1.3,Win32,60.05645307,62c50e9c1127f2cd403a315f,0,44,44,124,1,threeone,,,,,,,,,,,,,,,,,,,,,,,,,,,,,,,,,,,,,,,,,,,,,,,,,,,,,,,,,,,,,,,,,,,,,,,,,,,,,,,,,,,,,,,,,,,,,,,,,,,,,,,,,,,,,,,,,,,,,,,,,,,,,,,,,,,,,,,,,,,,,,,,,,,,,,,,,,,,,
,,,,,,5f4139a5fb4ebc2ad33cb71d,62c538c1c1c9a7c5e0129e84,2022-07-06_09h30.13.263,Colour_Asymmetry_Pilot,2022.1.3,Win32,60.05645307,62c50e9c1127f2cd403a315f,0,45,45,120,1,onetwo,,,,,,,,,,,,,,,,,,,,,,,,,,,,,,,,,,,,,,,,,,,,,,,,,,,,,,,,,,,,,,,,,,,,,,,,,,,,,,,,,,,,,,,,,,,,,,,,,,,,,,,,,,,,,,,,,,,,,,,,,,,,,,,,,,,,,,,,,,,,,,,,,,,,,,,,,,,,,
,,,,,,5f4139a5fb4ebc2ad33cb71d,62c538c1c1c9a7c5e0129e84,2022-07-06_09h30.13.263,Colour_Asymmetry_Pilot,2022.1.3,Win32,60.05645307,62c50e9c1127f2cd403a315f,0,46,46,84,1,threeone,,,,,,,,,,,,,,,,,,,,,,,,,,,,,,,,,,,,,,,,,,,,,,,,,,,,,,,,,,,,,,,,,,,,,,,,,,,,,,,,,,,,,,,,,,,,,,,,,,,,,,,,,,,,,,,,,,,,,,,,,,,,,,,,,,,,,,,,,,,,,,,,,,,,,,,,,,,,,
,,,,,,5f4139a5fb4ebc2ad33cb71d,62c538c1c1c9a7c5e0129e84,2022-07-06_09h30.13.263,Colour_Asymmetry_Pilot,2022.1.3,Win32,60.05645307,62c50e9c1127f2cd403a315f,0,47,47,133,1,threefour,,,,,,,,,,,,,,,,,,,,,,,,,,,,,,,,,,,,,,,,,,,,,,,,,,,,,,,,,,,,,,,,,,,,,,,,,,,,,,,,,,,,,,,,,,,,,,,,,,,,,,,,,,,,,,,,,,,,,,,,,,,,,,,,,,,,,,,,,,,,,,,,,,,,,,,,,,,,,
,,,,,,5f4139a5fb4ebc2ad33cb71d,62c538c1c1c9a7c5e0129e84,2022-07-06_09h30.13.263,Colour_Asymmetry_Pilot,2022.1.3,Win32,60.05645307,62c50e9c1127f2cd403a315f,0,48,48,69,1,threefour,,,,,,,,,,,,,,,,,,,,,,,,,,,,,,,,,,,,,,,,,,,,,,,,,,,,,,,,,,,,,,,,,,,,,,,,,,,,,,,,,,,,,,,,,,,,,,,,,,,,,,,,,,,,,,,,,,,,,,,,,,,,,,,,,,,,,,,,,,,,,,,,,,,,,,,,,,,,,
,,,,,,5f4139a5fb4ebc2ad33cb71d,62c538c1c1c9a7c5e0129e84,2022-07-06_09h30.13.263,Colour_Asymmetry_Pilot,2022.1.3,Win32,60.05645307,62c50e9c1127f2cd403a315f,0,49,49,134,1,fourtwo,,,,,,,,,,,,,,,,,,,,,,,,,,,,,,,,,,,,,,,,,,,,,,,,,,,,,,,,,,,,,,,,,,,,,,,,,,,,,,,,,,,,,,,,,,,,,,,,,,,,,,,,,,,,,,,,,,,,,,,,,,,,,,,,,,,,,,,,,,,,,,,,,,,,,,,,,,,,,
,,,,,,5f4139a5fb4ebc2ad33cb71d,62c538c1c1c9a7c5e0129e84,2022-07-06_09h30.13.263,Colour_Asymmetry_Pilot,2022.1.3,Win32,60.05645307,62c50e9c1127f2cd403a315f,0,50,50,19,1,twofour,,,,,,,,,,,,,,,,,,,,,,,,,,,,,,,,,,,,,,,,,,,,,,,,,,,,,,,,,,,,,,,,,,,,,,,,,,,,,,,,,,,,,,,,,,,,,,,,,,,,,,,,,,,,,,,,,,,,,,,,,,,,,,,,,,,,,,,,,,,,,,,,,,,,,,,,,,,,,
,,,,,,5f4139a5fb4ebc2ad33cb71d,62c538c1c1c9a7c5e0129e84,2022-07-06_09h30.13.263,Colour_Asymmetry_Pilot,2022.1.3,Win32,60.05645307,62c50e9c1127f2cd403a315f,0,51,51,80,1,onetwo,,,,,,,,,,,,,,,,,,,,,,,,,,,,,,,,,,,,,,,,,,,,,,,,,,,,,,,,,,,,,,,,,,,,,,,,,,,,,,,,,,,,,,,,,,,,,,,,,,,,,,,,,,,,,,,,,,,,,,,,,,,,,,,,,,,,,,,,,,,,,,,,,,,,,,,,,,,,,
,,,,,,5f4139a5fb4ebc2ad33cb71d,62c538c1c1c9a7c5e0129e84,2022-07-06_09h30.13.263,Colour_Asymmetry_Pilot,2022.1.3,Win32,60.05645307,62c50e9c1127f2cd403a315f,0,52,52,112,1,onetwo,,,,,,,,,,,,,,,,,,,,,,,,,,,,,,,,,,,,,,,,,,,,,,,,,,,,,,,,,,,,,,,,,,,,,,,,,,,,,,,,,,,,,,,,,,,,,,,,,,,,,,,,,,,,,,,,,,,,,,,,,,,,,,,,,,,,,,,,,,,,,,,,,,,,,,,,,,,,,
,,,,,,5f4139a5fb4ebc2ad33cb71d,62c538c1c1c9a7c5e0129e84,2022-07-06_09h30.13.263,Colour_Asymmetry_Pilot,2022.1.3,Win32,60.05645307,62c50e9c1127f2cd403a315f,0,53,53,28,1,threeone,,,,,,,,,,,,,,,,,,,,,,,,,,,,,,,,,,,,,,,,,,,,,,,,,,,,,,,,,,,,,,,,,,,,,,,,,,,,,,,,,,,,,,,,,,,,,,,,,,,,,,,,,,,,,,,,,,,,,,,,,,,,,,,,,,,,,,,,,,,,,,,,,,,,,,,,,,,,,
,,,,,,5f4139a5fb4ebc2ad33cb71d,62c538c1c1c9a7c5e0129e84,2022-07-06_09h30.13.263,Colour_Asymmetry_Pilot,2022.1.3,Win32,60.05645307,62c50e9c1127f2cd403a315f,0,54,54,42,1,twoone,,,,,,,,,,,,,,,,,,,,,,,,,,,,,,,,,,,,,,,,,,,,,,,,,,,,,,,,,,,,,,,,,,,,,,,,,,,,,,,,,,,,,,,,,,,,,,,,,,,,,,,,,,,,,,,,,,,,,,,,,,,,,,,,,,,,,,,,,,,,,,,,,,,,,,,,,,,,,
,,,,,,5f4139a5fb4ebc2ad33cb71d,62c538c1c1c9a7c5e0129e84,2022-07-06_09h30.13.263,Colour_Asymmetry_Pilot,2022.1.3,Win32,60.05645307,62c50e9c1127f2cd403a315f,0,55,55,128,1,onetwo,,,,,,,,,,,,,,,,,,,,,,,,,,,,,,,,,,,,,,,,,,,,,,,,,,,,,,,,,,,,,,,,,,,,,,,,,,,,,,,,,,,,,,,,,,,,,,,,,,,,,,,,,,,,,,,,,,,,,,,,,,,,,,,,,,,,,,,,,,,,,,,,,,,,,,,,,,,,,
,,,,,,5f4139a5fb4ebc2ad33cb71d,62c538c1c1c9a7c5e0129e84,2022-07-06_09h30.13.263,Colour_Asymmetry_Pilot,2022.1.3,Win32,60.05645307,62c50e9c1127f2cd403a315f,0,56,56,63,1,fourthree,,,,,,,,,,,,,,,,,,,,,,,,,,,,,,,,,,,,,,,,,,,,,,,,,,,,,,,,,,,,,,,,,,,,,,,,,,,,,,,,,,,,,,,,,,,,,,,,,,,,,,,,,,,,,,,,,,,,,,,,,,,,,,,,,,,,,,,,,,,,,,,,,,,,,,,,,,,,,
,,,,,,5f4139a5fb4ebc2ad33cb71d,62c538c1c1c9a7c5e0129e84,2022-07-06_09h30.13.263,Colour_Asymmetry_Pilot,2022.1.3,Win32,60.05645307,62c50e9c1127f2cd403a315f,0,57,57,101,1,threefour,,,,,,,,,,,,,,,,,,,,,,,,,,,,,,,,,,,,,,,,,,,,,,,,,,,,,,,,,,,,,,,,,,,,,,,,,,,,,,,,,,,,,,,,,,,,,,,,,,,,,,,,,,,,,,,,,,,,,,,,,,,,,,,,,,,,,,,,,,,,,,,,,,,,,,,,,,,,,
,,,,,,5f4139a5fb4ebc2ad33cb71d,62c538c1c1c9a7c5e0129e84,2022-07-06_09h30.13.263,Colour_Asymmetry_Pilot,2022.1.3,Win32,60.05645307,62c50e9c1127f2cd403a315f,0,58,58,30,1,fourtwo,,,,,,,,,,,,,,,,,,,,,,,,,,,,,,,,,,,,,,,,,,,,,,,,,,,,,,,,,,,,,,,,,,,,,,,,,,,,,,,,,,,,,,,,,,,,,,,,,,,,,,,,,,,,,,,,,,,,,,,,,,,,,,,,,,,,,,,,,,,,,,,,,,,,,,,,,,,,,
,,,,,,5f4139a5fb4ebc2ad33cb71d,62c538c1c1c9a7c5e0129e84,2022-07-06_09h30.13.263,Colour_Asymmetry_Pilot,2022.1.3,Win32,60.05645307,62c50e9c1127f2cd403a315f,0,59,59,131,1,twofour,,,,,,,,,,,,,,,,,,,,,,,,,,,,,,,,,,,,,,,,,,,,,,,,,,,,,,,,,,,,,,,,,,,,,,,,,,,,,,,,,,,,,,,,,,,,,,,,,,,,,,,,,,,,,,,,,,,,,,,,,,,,,,,,,,,,,,,,,,,,,,,,,,,,,,,,,,,,,
,,,,,,5f4139a5fb4ebc2ad33cb71d,62c538c1c1c9a7c5e0129e84,2022-07-06_09h30.13.263,Colour_Asymmetry_Pilot,2022.1.3,Win32,60.05645307,62c50e9c1127f2cd403a315f,0,60,60,27,1,twofour,,,,,,,,,,,,,,,,,,,,,,,,,,,,,,,,,,,,,,,,,,,,,,,,,,,,,,,,,,,,,,,,,,,,,,,,,,,,,,,,,,,,,,,,,,,,,,,,,,,,,,,,,,,,,,,,,,,,,,,,,,,,,,,,,,,,,,,,,,,,,,,,,,,,,,,,,,,,,
,,,,,,5f4139a5fb4ebc2ad33cb71d,62c538c1c1c9a7c5e0129e84,2022-07-06_09h30.13.263,Colour_Asymmetry_Pilot,2022.1.3,Win32,60.05645307,62c50e9c1127f2cd403a315f,0,61,61,65,1,onethree,,,,,,,,,,,,,,,,,,,,,,,,,,,,,,,,,,,,,,,,,,,,,,,,,,,,,,,,,,,,,,,,,,,,,,,,,,,,,,,,,,,,,,,,,,,,,,,,,,,,,,,,,,,,,,,,,,,,,,,,,,,,,,,,,,,,,,,,,,,,,,,,,,,,,,,,,,,,,
,,,,,,5f4139a5fb4ebc2ad33cb71d,62c538c1c1c9a7c5e0129e84,2022-07-06_09h30.13.263,Colour_Asymmetry_Pilot,2022.1.3,Win32,60.05645307,62c50e9c1127f2cd403a315f,0,62,62,11,1,twofour,,,,,,,,,,,,,,,,,,,,,,,,,,,,,,,,,,,,,,,,,,,,,,,,,,,,,,,,,,,,,,,,,,,,,,,,,,,,,,,,,,,,,,,,,,,,,,,,,,,,,,,,,,,,,,,,,,,,,,,,,,,,,,,,,,,,,,,,,,,,,,,,,,,,,,,,,,,,,
,,,,,,5f4139a5fb4ebc2ad33cb71d,62c538c1c1c9a7c5e0129e84,2022-07-06_09h30.13.263,Colour_Asymmetry_Pilot,2022.1.3,Win32,60.05645307,62c50e9c1127f2cd403a315f,0,63,63,92,1,threeone,,,,,,,,,,,,,,,,,,,,,,,,,,,,,,,,,,,,,,,,,,,,,,,,,,,,,,,,,,,,,,,,,,,,,,,,,,,,,,,,,,,,,,,,,,,,,,,,,,,,,,,,,,,,,,,,,,,,,,,,,,,,,,,,,,,,,,,,,,,,,,,,,,,,,,,,,,,,,
,,,,,,5f4139a5fb4ebc2ad33cb71d,62c538c1c1c9a7c5e0129e84,2022-07-06_09h30.13.263,Colour_Asymmetry_Pilot,2022.1.3,Win32,60.05645307,62c50e9c1127f2cd403a315f,0,64,64,77,1,threefour,,,,,,,,,,,,,,,,,,,,,,,,,,,,,,,,,,,,,,,,,,,,,,,,,,,,,,,,,,,,,,,,,,,,,,,,,,,,,,,,,,,,,,,,,,,,,,,,,,,,,,,,,,,,,,,,,,,,,,,,,,,,,,,,,,,,,,,,,,,,,,,,,,,,,,,,,,,,,
,,,,,,5f4139a5fb4ebc2ad33cb71d,62c538c1c1c9a7c5e0129e84,2022-07-06_09h30.13.263,Colour_Asymmetry_Pilot,2022.1.3,Win32,60.05645307,62c50e9c1127f2cd403a315f,0,65,65,70,1,fourtwo,,,,,,,,,,,,,,,,,,,,,,,,,,,,,,,,,,,,,,,,,,,,,,,,,,,,,,,,,,,,,,,,,,,,,,,,,,,,,,,,,,,,,,,,,,,,,,,,,,,,,,,,,,,,,,,,,,,,,,,,,,,,,,,,,,,,,,,,,,,,,,,,,,,,,,,,,,,,,
,,,,,,5f4139a5fb4ebc2ad33cb71d,62c538c1c1c9a7c5e0129e84,2022-07-06_09h30.13.263,Colour_Asymmetry_Pilot,2022.1.3,Win32,60.05645307,62c50e9c1127f2cd403a315f,0,66,66,46,1,fourtwo,,,,,,,,,,,,,,,,,,,,,,,,,,,,,,,,,,,,,,,,,,,,,,,,,,,,,,,,,,,,,,,,,,,,,,,,,,,,,,,,,,,,,,,,,,,,,,,,,,,,,,,,,,,,,,,,,,,,,,,,,,,,,,,,,,,,,,,,,,,,,,,,,,,,,,,,,,,,,
,,,,,,5f4139a5fb4ebc2ad33cb71d,62c538c1c1c9a7c5e0129e84,2022-07-06_09h30.13.263,Colour_Asymmetry_Pilot,2022.1.3,Win32,60.05645307,62c50e9c1127f2cd403a315f,0,67,67,20,1,threeone,,,,,,,,,,,,,,,,,,,,,,,,,,,,,,,,,,,,,,,,,,,,,,,,,,,,,,,,,,,,,,,,,,,,,,,,,,,,,,,,,,,,,,,,,,,,,,,,,,,,,,,,,,,,,,,,,,,,,,,,,,,,,,,,,,,,,,,,,,,,,,,,,,,,,,,,,,,,,
,,,,,,5f4139a5fb4ebc2ad33cb71d,62c538c1c1c9a7c5e0129e84,2022-07-06_09h30.13.263,Colour_Asymmetry_Pilot,2022.1.3,Win32,60.05645307,62c50e9c1127f2cd403a315f,0,68,68,83,1,twofour,,,,,,,,,,,,,,,,,,,,,,,,,,,,,,,,,,,,,,,,,,,,,,,,,,,,,,,,,,,,,,,,,,,,,,,,,,,,,,,,,,,,,,,,,,,,,,,,,,,,,,,,,,,,,,,,,,,,,,,,,,,,,,,,,,,,,,,,,,,,,,,,,,,,,,,,,,,,,
,,,,,,5f4139a5fb4ebc2ad33cb71d,62c538c1c1c9a7c5e0129e84,2022-07-06_09h30.13.263,Colour_Asymmetry_Pilot,2022.1.3,Win32,60.05645307,62c50e9c1127f2cd403a315f,0,69,69,137,1,onethree,,,,,,,,,,,,,,,,,,,,,,,,,,,,,,,,,,,,,,,,,,,,,,,,,,,,,,,,,,,,,,,,,,,,,,,,,,,,,,,,,,,,,,,,,,,,,,,,,,,,,,,,,,,,,,,,,,,,,,,,,,,,,,,,,,,,,,,,,,,,,,,,,,,,,,,,,,,,,
,,,,,,5f4139a5fb4ebc2ad33cb71d,62c538c1c1c9a7c5e0129e84,2022-07-06_09h30.13.263,Colour_Asymmetry_Pilot,2022.1.3,Win32,60.05645307,62c50e9c1127f2cd403a315f,0,70,70,102,1,fourtwo,,,,,,,,,,,,,,,,,,,,,,,,,,,,,,,,,,,,,,,,,,,,,,,,,,,,,,,,,,,,,,,,,,,,,,,,,,,,,,,,,,,,,,,,,,,,,,,,,,,,,,,,,,,,,,,,,,,,,,,,,,,,,,,,,,,,,,,,,,,,,,,,,,,,,,,,,,,,,
,,,,,,5f4139a5fb4ebc2ad33cb71d,62c538c1c1c9a7c5e0129e84,2022-07-06_09h30.13.263,Colour_Asymmetry_Pilot,2022.1.3,Win32,60.05645307,62c50e9c1127f2cd403a315f,0,71,71,109,1,threefour,,,,,,,,,,,,,,,,,,,,,,,,,,,,,,,,,,,,,,,,,,,,,,,,,,,,,,,,,,,,,,,,,,,,,,,,,,,,,,,,,,,,,,,,,,,,,,,,,,,,,,,,,,,,,,,,,,,,,,,,,,,,,,,,,,,,,,,,,,,,,,,,,,,,,,,,,,,,,
,,,,,,5f4139a5fb4ebc2ad33cb71d,62c538c1c1c9a7c5e0129e84,2022-07-06_09h30.13.263,Colour_Asymmetry_Pilot,2022.1.3,Win32,60.05645307,62c50e9c1127f2cd403a315f,0,72,72,91,1,twofour,,,,,,,,,,,,,,,,,,,,,,,,,,,,,,,,,,,,,,,,,,,,,,,,,,,,,,,,,,,,,,,,,,,,,,,,,,,,,,,,,,,,,,,,,,,,,,,,,,,,,,,,,,,,,,,,,,,,,,,,,,,,,,,,,,,,,,,,,,,,,,,,,,,,,,,,,,,,,
,,,,,,5f4139a5fb4ebc2ad33cb71d,62c538c1c1c9a7c5e0129e84,2022-07-06_09h30.13.263,Colour_Asymmetry_Pilot,2022.1.3,Win32,60.05645307,62c50e9c1127f2cd403a315f,0,73,73,94,1,fourtwo,,,,,,,,,,,,,,,,,,,,,,,,,,,,,,,,,,,,,,,,,,,,,,,,,,,,,,,,,,,,,,,,,,,,,,,,,,,,,,,,,,,,,,,,,,,,,,,,,,,,,,,,,,,,,,,,,,,,,,,,,,,,,,,,,,,,,,,,,,,,,,,,,,,,,,,,,,,,,
,,,,,,5f4139a5fb4ebc2ad33cb71d,62c538c1c1c9a7c5e0129e84,2022-07-06_09h30.13.263,Colour_Asymmetry_Pilot,2022.1.3,Win32,60.05645307,62c50e9c1127f2cd403a315f,0,74,74,82,1,twoone,,,,,,,,,,,,,,,,,,,,,,,,,,,,,,,,,,,,,,,,,,,,,,,,,,,,,,,,,,,,,,,,,,,,,,,,,,,,,,,,,,,,,,,,,,,,,,,,,,,,,,,,,,,,,,,,,,,,,,,,,,,,,,,,,,,,,,,,,,,,,,,,,,,,,,,,,,,,,
,,,,,,5f4139a5fb4ebc2ad33cb71d,62c538c1c1c9a7c5e0129e84,2022-07-06_09h30.13.263,Colour_Asymmetry_Pilot,2022.1.3,Win32,60.05645307,62c50e9c1127f2cd403a315f,0,75,75,151,1,fourthree,,,,,,,,,,,,,,,,,,,,,,,,,,,,,,,,,,,,,,,,,,,,,,,,,,,,,,,,,,,,,,,,,,,,,,,,,,,,,,,,,,,,,,,,,,,,,,,,,,,,,,,,,,,,,,,,,,,,,,,,,,,,,,,,,,,,,,,,,,,,,,,,,,,,,,,,,,,,,
,,,,,,5f4139a5fb4ebc2ad33cb71d,62c538c1c1c9a7c5e0129e84,2022-07-06_09h30.13.263,Colour_Asymmetry_Pilot,2022.1.3,Win32,60.05645307,62c50e9c1127f2cd403a315f,0,76,76,71,1,fourthree,,,,,,,,,,,,,,,,,,,,,,,,,,,,,,,,,,,,,,,,,,,,,,,,,,,,,,,,,,,,,,,,,,,,,,,,,,,,,,,,,,,,,,,,,,,,,,,,,,,,,,,,,,,,,,,,,,,,,,,,,,,,,,,,,,,,,,,,,,,,,,,,,,,,,,,,,,,,,
,,,,,,5f4139a5fb4ebc2ad33cb71d,62c538c1c1c9a7c5e0129e84,2022-07-06_09h30.13.263,Colour_Asymmetry_Pilot,2022.1.3,Win32,60.05645307,62c50e9c1127f2cd403a315f,0,77,77,110,1,fourtwo,,,,,,,,,,,,,,,,,,,,,,,,,,,,,,,,,,,,,,,,,,,,,,,,,,,,,,,,,,,,,,,,,,,,,,,,,,,,,,,,,,,,,,,,,,,,,,,,,,,,,,,,,,,,,,,,,,,,,,,,,,,,,,,,,,,,,,,,,,,,,,,,,,,,,,,,,,,,,
,,,,,,5f4139a5fb4ebc2ad33cb71d,62c538c1c1c9a7c5e0129e84,2022-07-06_09h30.13.263,Colour_Asymmetry_Pilot,2022.1.3,Win32,60.05645307,62c50e9c1127f2cd403a315f,0,78,78,31,1,fourthree,,,,,,,,,,,,,,,,,,,,,,,,,,,,,,,,,,,,,,,,,,,,,,,,,,,,,,,,,,,,,,,,,,,,,,,,,,,,,,,,,,,,,,,,,,,,,,,,,,,,,,,,,,,,,,,,,,,,,,,,,,,,,,,,,,,,,,,,,,,,,,,,,,,,,,,,,,,,,
,,,,,,5f4139a5fb4ebc2ad33cb71d,62c538c1c1c9a7c5e0129e84,2022-07-06_09h30.13.263,Colour_Asymmetry_Pilot,2022.1.3,Win32,60.05645307,62c50e9c1127f2cd403a315f,0,79,79,144,1,onetwo,,,,,,,,,,,,,,,,,,,,,,,,,,,,,,,,,,,,,,,,,,,,,,,,,,,,,,,,,,,,,,,,,,,,,,,,,,,,,,,,,,,,,,,,,,,,,,,,,,,,,,,,,,,,,,,,,,,,,,,,,,,,,,,,,,,,,,,,,,,,,,,,,,,,,,,,,,,,,
,,,,,,5f4139a5fb4ebc2ad33cb71d,62c538c1c1c9a7c5e0129e84,2022-07-06_09h30.13.263,Colour_Asymmetry_Pilot,2022.1.3,Win32,60.05645307,62c50e9c1127f2cd403a315f,0,80,80,100,1,threeone,,,,,,,,,,,,,,,,,,,,,,,,,,,,,,,,,,,,,,,,,,,,,,,,,,,,,,,,,,,,,,,,,,,,,,,,,,,,,,,,,,,,,,,,,,,,,,,,,,,,,,,,,,,,,,,,,,,,,,,,,,,,,,,,,,,,,,,,,,,,,,,,,,,,,,,,,,,,,
,,,,,,5f4139a5fb4ebc2ad33cb71d,62c538c1c1c9a7c5e0129e84,2022-07-06_09h30.13.263,Colour_Asymmetry_Pilot,2022.1.3,Win32,60.05645307,62c50e9c1127f2cd403a315f,0,81,81,146,1,twoone,,,,,,,,,,,,,,,,,,,,,,,,,,,,,,,,,,,,,,,,,,,,,,,,,,,,,,,,,,,,,,,,,,,,,,,,,,,,,,,,,,,,,,,,,,,,,,,,,,,,,,,,,,,,,,,,,,,,,,,,,,,,,,,,,,,,,,,,,,,,,,,,,,,,,,,,,,,,,
,,,,,,5f4139a5fb4ebc2ad33cb71d,62c538c1c1c9a7c5e0129e84,2022-07-06_09h30.13.263,Colour_Asymmetry_Pilot,2022.1.3,Win32,60.05645307,62c50e9c1127f2cd403a315f,0,82,82,96,1,onetwo,,,,,,,,,,,,,,,,,,,,,,,,,,,,,,,,,,,,,,,,,,,,,,,,,,,,,,,,,,,,,,,,,,,,,,,,,,,,,,,,,,,,,,,,,,,,,,,,,,,,,,,,,,,,,,,,,,,,,,,,,,,,,,,,,,,,,,,,,,,,,,,,,,,,,,,,,,,,,
,,,,,,5f4139a5fb4ebc2ad33cb71d,62c538c1c1c9a7c5e0129e84,2022-07-06_09h30.13.263,Colour_Asymmetry_Pilot,2022.1.3,Win32,60.05645307,62c50e9c1127f2cd403a315f,0,83,83,142,1,fourtwo,,,,,,,,,,,,,,,,,,,,,,,,,,,,,,,,,,,,,,,,,,,,,,,,,,,,,,,,,,,,,,,,,,,,,,,,,,,,,,,,,,,,,,,,,,,,,,,,,,,,,,,,,,,,,,,,,,,,,,,,,,,,,,,,,,,,,,,,,,,,,,,,,,,,,,,,,,,,,
,,,,,,5f4139a5fb4ebc2ad33cb71d,62c538c1c1c9a7c5e0129e84,2022-07-06_09h30.13.263,Colour_Asymmetry_Pilot,2022.1.3,Win32,60.05645307,62c50e9c1127f2cd403a315f,0,84,84,54,1,fourtwo,,,,,,,,,,,,,,,,,,,,,,,,,,,,,,,,,,,,,,,,,,,,,,,,,,,,,,,,,,,,,,,,,,,,,,,,,,,,,,,,,,,,,,,,,,,,,,,,,,,,,,,,,,,,,,,,,,,,,,,,,,,,,,,,,,,,,,,,,,,,,,,,,,,,,,,,,,,,,
,,,,,,5f4139a5fb4ebc2ad33cb71d,62c538c1c1c9a7c5e0129e84,2022-07-06_09h30.13.263,Colour_Asymmetry_Pilot,2022.1.3,Win32,60.05645307,62c50e9c1127f2cd403a315f,0,85,85,51,1,twofour,,,,,,,,,,,,,,,,,,,,,,,,,,,,,,,,,,,,,,,,,,,,,,,,,,,,,,,,,,,,,,,,,,,,,,,,,,,,,,,,,,,,,,,,,,,,,,,,,,,,,,,,,,,,,,,,,,,,,,,,,,,,,,,,,,,,,,,,,,,,,,,,,,,,,,,,,,,,,
,,,,,,5f4139a5fb4ebc2ad33cb71d,62c538c1c1c9a7c5e0129e84,2022-07-06_09h30.13.263,Colour_Asymmetry_Pilot,2022.1.3,Win32,60.05645307,62c50e9c1127f2cd403a315f,0,86,86,111,1,fourthree,,,,,,,,,,,,,,,,,,,,,,,,,,,,,,,,,,,,,,,,,,,,,,,,,,,,,,,,,,,,,,,,,,,,,,,,,,,,,,,,,,,,,,,,,,,,,,,,,,,,,,,,,,,,,,,,,,,,,,,,,,,,,,,,,,,,,,,,,,,,,,,,,,,,,,,,,,,,,
,,,,,,5f4139a5fb4ebc2ad33cb71d,62c538c1c1c9a7c5e0129e84,2022-07-06_09h30.13.263,Colour_Asymmetry_Pilot,2022.1.3,Win32,60.05645307,62c50e9c1127f2cd403a315f,0,87,87,152,1,onetwo,,,,,,,,,,,,,,,,,,,,,,,,,,,,,,,,,,,,,,,,,,,,,,,,,,,,,,,,,,,,,,,,,,,,,,,,,,,,,,,,,,,,,,,,,,,,,,,,,,,,,,,,,,,,,,,,,,,,,,,,,,,,,,,,,,,,,,,,,,,,,,,,,,,,,,,,,,,,,
,,,,,,5f4139a5fb4ebc2ad33cb71d,62c538c1c1c9a7c5e0129e84,2022-07-06_09h30.13.263,Colour_Asymmetry_Pilot,2022.1.3,Win32,60.05645307,62c50e9c1127f2cd403a315f,0,88,88,9,1,onethree,,,,,,,,,,,,,,,,,,,,,,,,,,,,,,,,,,,,,,,,,,,,,,,,,,,,,,,,,,,,,,,,,,,,,,,,,,,,,,,,,,,,,,,,,,,,,,,,,,,,,,,,,,,,,,,,,,,,,,,,,,,,,,,,,,,,,,,,,,,,,,,,,,,,,,,,,,,,,
,,,,,,5f4139a5fb4ebc2ad33cb71d,62c538c1c1c9a7c5e0129e84,2022-07-06_09h30.13.263,Colour_Asymmetry_Pilot,2022.1.3,Win32,60.05645307,62c50e9c1127f2cd403a315f,0,89,89,13,1,threefour,,,,,,,,,,,,,,,,,,,,,,,,,,,,,,,,,,,,,,,,,,,,,,,,,,,,,,,,,,,,,,,,,,,,,,,,,,,,,,,,,,,,,,,,,,,,,,,,,,,,,,,,,,,,,,,,,,,,,,,,,,,,,,,,,,,,,,,,,,,,,,,,,,,,,,,,,,,,,
,,,,,,5f4139a5fb4ebc2ad33cb71d,62c538c1c1c9a7c5e0129e84,2022-07-06_09h30.13.263,Colour_Asymmetry_Pilot,2022.1.3,Win32,60.05645307,62c50e9c1127f2cd403a315f,0,90,90,98,1,twoone,,,,,,,,,,,,,,,,,,,,,,,,,,,,,,,,,,,,,,,,,,,,,,,,,,,,,,,,,,,,,,,,,,,,,,,,,,,,,,,,,,,,,,,,,,,,,,,,,,,,,,,,,,,,,,,,,,,,,,,,,,,,,,,,,,,,,,,,,,,,,,,,,,,,,,,,,,,,,
,,,,,,5f4139a5fb4ebc2ad33cb71d,62c538c1c1c9a7c5e0129e84,2022-07-06_09h30.13.263,Colour_Asymmetry_Pilot,2022.1.3,Win32,60.05645307,62c50e9c1127f2cd403a315f,0,91,91,90,1,twoone,,,,,,,,,,,,,,,,,,,,,,,,,,,,,,,,,,,,,,,,,,,,,,,,,,,,,,,,,,,,,,,,,,,,,,,,,,,,,,,,,,,,,,,,,,,,,,,,,,,,,,,,,,,,,,,,,,,,,,,,,,,,,,,,,,,,,,,,,,,,,,,,,,,,,,,,,,,,,
,,,,,,5f4139a5fb4ebc2ad33cb71d,62c538c1c1c9a7c5e0129e84,2022-07-06_09h30.13.263,Colour_Asymmetry_Pilot,2022.1.3,Win32,60.05645307,62c50e9c1127f2cd403a315f,0,92,92,121,1,onethree,,,,,,,,,,,,,,,,,,,,,,,,,,,,,,,,,,,,,,,,,,,,,,,,,,,,,,,,,,,,,,,,,,,,,,,,,,,,,,,,,,,,,,,,,,,,,,,,,,,,,,,,,,,,,,,,,,,,,,,,,,,,,,,,,,,,,,,,,,,,,,,,,,,,,,,,,,,,,
,,,,,,5f4139a5fb4ebc2ad33cb71d,62c538c1c1c9a7c5e0129e84,2022-07-06_09h30.13.263,Colour_Asymmetry_Pilot,2022.1.3,Win32,60.05645307,62c50e9c1127f2cd403a315f,0,93,93,79,1,fourthree,,,,,,,,,,,,,,,,,,,,,,,,,,,,,,,,,,,,,,,,,,,,,,,,,,,,,,,,,,,,,,,,,,,,,,,,,,,,,,,,,,,,,,,,,,,,,,,,,,,,,,,,,,,,,,,,,,,,,,,,,,,,,,,,,,,,,,,,,,,,,,,,,,,,,,,,,,,,,
,,,,,,5f4139a5fb4ebc2ad33cb71d,62c538c1c1c9a7c5e0129e84,2022-07-06_09h30.13.263,Colour_Asymmetry_Pilot,2022.1.3,Win32,60.05645307,62c50e9c1127f2cd403a315f,0,94,94,59,1,twofour,,,,,,,,,,,,,,,,,,,,,,,,,,,,,,,,,,,,,,,,,,,,,,,,,,,,,,,,,,,,,,,,,,,,,,,,,,,,,,,,,,,,,,,,,,,,,,,,,,,,,,,,,,,,,,,,,,,,,,,,,,,,,,,,,,,,,,,,,,,,,,,,,,,,,,,,,,,,,
,,,,,,5f4139a5fb4ebc2ad33cb71d,62c538c1c1c9a7c5e0129e84,2022-07-06_09h30.13.263,Colour_Asymmetry_Pilot,2022.1.3,Win32,60.05645307,62c50e9c1127f2cd403a315f,0,95,95,122,1,twoone,,,,,,,,,,,,,,,,,,,,,,,,,,,,,,,,,,,,,,,,,,,,,,,,,,,,,,,,,,,,,,,,,,,,,,,,,,,,,,,,,,,,,,,,,,,,,,,,,,,,,,,,,,,,,,,,,,,,,,,,,,,,,,,,,,,,,,,,,,,,,,,,,,,,,,,,,,,,,
,,,,,,5f4139a5fb4ebc2ad33cb71d,62c538c1c1c9a7c5e0129e84,2022-07-06_09h30.13.263,Colour_Asymmetry_Pilot,2022.1.3,Win32,60.05645307,62c50e9c1127f2cd403a315f,0,96,96,108,1,threeone,,,,,,,,,,,,,,,,,,,,,,,,,,,,,,,,,,,,,,,,,,,,,,,,,,,,,,,,,,,,,,,,,,,,,,,,,,,,,,,,,,,,,,,,,,,,,,,,,,,,,,,,,,,,,,,,,,,,,,,,,,,,,,,,,,,,,,,,,,,,,,,,,,,,,,,,,,,,,
,,,,,,5f4139a5fb4ebc2ad33cb71d,62c538c1c1c9a7c5e0129e84,2022-07-06_09h30.13.263,Colour_Asymmetry_Pilot,2022.1.3,Win32,60.05645307,62c50e9c1127f2cd403a315f,0,97,97,158,1,fourtwo,,,,,,,,,,,,,,,,,,,,,,,,,,,,,,,,,,,,,,,,,,,,,,,,,,,,,,,,,,,,,,,,,,,,,,,,,,,,,,,,,,,,,,,,,,,,,,,,,,,,,,,,,,,,,,,,,,,,,,,,,,,,,,,,,,,,,,,,,,,,,,,,,,,,,,,,,,,,,
,,,,,,5f4139a5fb4ebc2ad33cb71d,62c538c1c1c9a7c5e0129e84,2022-07-06_09h30.13.263,Colour_Asymmetry_Pilot,2022.1.3,Win32,60.05645307,62c50e9c1127f2cd403a315f,0,98,98,119,1,fourthree,,,,,,,,,,,,,,,,,,,,,,,,,,,,,,,,,,,,,,,,,,,,,,,,,,,,,,,,,,,,,,,,,,,,,,,,,,,,,,,,,,,,,,,,,,,,,,,,,,,,,,,,,,,,,,,,,,,,,,,,,,,,,,,,,,,,,,,,,,,,,,,,,,,,,,,,,,,,,
,,,,,,5f4139a5fb4ebc2ad33cb71d,62c538c1c1c9a7c5e0129e84,2022-07-06_09h30.13.263,Colour_Asymmetry_Pilot,2022.1.3,Win32,60.05645307,62c50e9c1127f2cd403a315f,0,99,99,67,1,twofour,,,,,,,,,,,,,,,,,,,,,,,,,,,,,,,,,,,,,,,,,,,,,,,,,,,,,,,,,,,,,,,,,,,,,,,,,,,,,,,,,,,,,,,,,,,,,,,,,,,,,,,,,,,,,,,,,,,,,,,,,,,,,,,,,,,,,,,,,,,,,,,,,,,,,,,,,,,,,
,,,,,,5f4139a5fb4ebc2ad33cb71d,62c538c1c1c9a7c5e0129e84,2022-07-06_09h30.13.263,Colour_Asymmetry_Pilot,2022.1.3,Win32,60.05645307,62c50e9c1127f2cd403a315f,0,100,100,66,1,twoone,,,,,,,,,,,,,,,,,,,,,,,,,,,,,,,,,,,,,,,,,,,,,,,,,,,,,,,,,,,,,,,,,,,,,,,,,,,,,,,,,,,,,,,,,,,,,,,,,,,,,,,,,,,,,,,,,,,,,,,,,,,,,,,,,,,,,,,,,,,,,,,,,,,,,,,,,,,,,
,,,,,,5f4139a5fb4ebc2ad33cb71d,62c538c1c1c9a7c5e0129e84,2022-07-06_09h30.13.263,Colour_Asymmetry_Pilot,2022.1.3,Win32,60.05645307,62c50e9c1127f2cd403a315f,0,101,101,58,1,twoone,,,,,,,,,,,,,,,,,,,,,,,,,,,,,,,,,,,,,,,,,,,,,,,,,,,,,,,,,,,,,,,,,,,,,,,,,,,,,,,,,,,,,,,,,,,,,,,,,,,,,,,,,,,,,,,,,,,,,,,,,,,,,,,,,,,,,,,,,,,,,,,,,,,,,,,,,,,,,
,,,,,,5f4139a5fb4ebc2ad33cb71d,62c538c1c1c9a7c5e0129e84,2022-07-06_09h30.13.263,Colour_Asymmetry_Pilot,2022.1.3,Win32,60.05645307,62c50e9c1127f2cd403a315f,0,102,102,23,1,fourthree,,,,,,,,,,,,,,,,,,,,,,,,,,,,,,,,,,,,,,,,,,,,,,,,,,,,,,,,,,,,,,,,,,,,,,,,,,,,,,,,,,,,,,,,,,,,,,,,,,,,,,,,,,,,,,,,,,,,,,,,,,,,,,,,,,,,,,,,,,,,,,,,,,,,,,,,,,,,,
,,,,,,5f4139a5fb4ebc2ad33cb71d,62c538c1c1c9a7c5e0129e84,2022-07-06_09h30.13.263,Colour_Asymmetry_Pilot,2022.1.3,Win32,60.05645307,62c50e9c1127f2cd403a315f,0,103,103,149,1,threefour,,,,,,,,,,,,,,,,,,,,,,,,,,,,,,,,,,,,,,,,,,,,,,,,,,,,,,,,,,,,,,,,,,,,,,,,,,,,,,,,,,,,,,,,,,,,,,,,,,,,,,,,,,,,,,,,,,,,,,,,,,,,,,,,,,,,,,,,,,,,,,,,,,,,,,,,,,,,,
,,,,,,5f4139a5fb4ebc2ad33cb71d,62c538c1c1c9a7c5e0129e84,2022-07-06_09h30.13.263,Colour_Asymmetry_Pilot,2022.1.3,Win32,60.05645307,62c50e9c1127f2cd403a315f,0,104,104,45,1,threefour,,,,,,,,,,,,,,,,,,,,,,,,,,,,,,,,,,,,,,,,,,,,,,,,,,,,,,,,,,,,,,,,,,,,,,,,,,,,,,,,,,,,,,,,,,,,,,,,,,,,,,,,,,,,,,,,,,,,,,,,,,,,,,,,,,,,,,,,,,,,,,,,,,,,,,,,,,,,,
,,,,,,5f4139a5fb4ebc2ad33cb71d,62c538c1c1c9a7c5e0129e84,2022-07-06_09h30.13.263,Colour_Asymmetry_Pilot,2022.1.3,Win32,60.05645307,62c50e9c1127f2cd403a315f,0,105,105,21,1,threefour,,,,,,,,,,,,,,,,,,,,,,,,,,,,,,,,,,,,,,,,,,,,,,,,,,,,,,,,,,,,,,,,,,,,,,,,,,,,,,,,,,,,,,,,,,,,,,,,,,,,,,,,,,,,,,,,,,,,,,,,,,,,,,,,,,,,,,,,,,,,,,,,,,,,,,,,,,,,,
,,,,,,5f4139a5fb4ebc2ad33cb71d,62c538c1c1c9a7c5e0129e84,2022-07-06_09h30.13.263,Colour_Asymmetry_Pilot,2022.1.3,Win32,60.05645307,62c50e9c1127f2cd403a315f,0,106,106,53,1,threefour,,,,,,,,,,,,,,,,,,,,,,,,,,,,,,,,,,,,,,,,,,,,,,,,,,,,,,,,,,,,,,,,,,,,,,,,,,,,,,,,,,,,,,,,,,,,,,,,,,,,,,,,,,,,,,,,,,,,,,,,,,,,,,,,,,,,,,,,,,,,,,,,,,,,,,,,,,,,,
,,,,,,5f4139a5fb4ebc2ad33cb71d,62c538c1c1c9a7c5e0129e84,2022-07-06_09h30.13.263,Colour_Asymmetry_Pilot,2022.1.3,Win32,60.05645307,62c50e9c1127f2cd403a315f,0,107,107,38,1,fourtwo,,,,,,,,,,,,,,,,,,,,,,,,,,,,,,,,,,,,,,,,,,,,,,,,,,,,,,,,,,,,,,,,,,,,,,,,,,,,,,,,,,,,,,,,,,,,,,,,,,,,,,,,,,,,,,,,,,,,,,,,,,,,,,,,,,,,,,,,,,,,,,,,,,,,,,,,,,,,,
,,,,,,5f4139a5fb4ebc2ad33cb71d,62c538c1c1c9a7c5e0129e84,2022-07-06_09h30.13.263,Colour_Asymmetry_Pilot,2022.1.3,Win32,60.05645307,62c50e9c1127f2cd403a315f,0,108,108,127,1,fourthree,,,,,,,,,,,,,,,,,,,,,,,,,,,,,,,,,,,,,,,,,,,,,,,,,,,,,,,,,,,,,,,,,,,,,,,,,,,,,,,,,,,,,,,,,,,,,,,,,,,,,,,,,,,,,,,,,,,,,,,,,,,,,,,,,,,,,,,,,,,,,,,,,,,,,,,,,,,,,
,,,,,,5f4139a5fb4ebc2ad33cb71d,62c538c1c1c9a7c5e0129e84,2022-07-06_09h30.13.263,Colour_Asymmetry_Pilot,2022.1.3,Win32,60.05645307,62c50e9c1127f2cd403a315f,0,109,109,143,1,fourthree,,,,,,,,,,,,,,,,,,,,,,,,,,,,,,,,,,,,,,,,,,,,,,,,,,,,,,,,,,,,,,,,,,,,,,,,,,,,,,,,,,,,,,,,,,,,,,,,,,,,,,,,,,,,,,,,,,,,,,,,,,,,,,,,,,,,,,,,,,,,,,,,,,,,,,,,,,,,,
,,,,,,5f4139a5fb4ebc2ad33cb71d,62c538c1c1c9a7c5e0129e84,2022-07-06_09h30.13.263,Colour_Asymmetry_Pilot,2022.1.3,Win32,60.05645307,62c50e9c1127f2cd403a315f,0,110,110,47,1,fourthree,,,,,,,,,,,,,,,,,,,,,,,,,,,,,,,,,,,,,,,,,,,,,,,,,,,,,,,,,,,,,,,,,,,,,,,,,,,,,,,,,,,,,,,,,,,,,,,,,,,,,,,,,,,,,,,,,,,,,,,,,,,,,,,,,,,,,,,,,,,,,,,,,,,,,,,,,,,,,
,,,,,,5f4139a5fb4ebc2ad33cb71d,62c538c1c1c9a7c5e0129e84,2022-07-06_09h30.13.263,Colour_Asymmetry_Pilot,2022.1.3,Win32,60.05645307,62c50e9c1127f2cd403a315f,0,111,111,32,1,onetwo,,,,,,,,,,,,,,,,,,,,,,,,,,,,,,,,,,,,,,,,,,,,,,,,,,,,,,,,,,,,,,,,,,,,,,,,,,,,,,,,,,,,,,,,,,,,,,,,,,,,,,,,,,,,,,,,,,,,,,,,,,,,,,,,,,,,,,,,,,,,,,,,,,,,,,,,,,,,,
,,,,,,5f4139a5fb4ebc2ad33cb71d,62c538c1c1c9a7c5e0129e84,2022-07-06_09h30.13.263,Colour_Asymmetry_Pilot,2022.1.3,Win32,60.05645307,62c50e9c1127f2cd403a315f,0,112,112,64,1,onetwo,,,,,,,,,,,,,,,,,,,,,,,,,,,,,,,,,,,,,,,,,,,,,,,,,,,,,,,,,,,,,,,,,,,,,,,,,,,,,,,,,,,,,,,,,,,,,,,,,,,,,,,,,,,,,,,,,,,,,,,,,,,,,,,,,,,,,,,,,,,,,,,,,,,,,,,,,,,,,
,,,,,,5f4139a5fb4ebc2ad33cb71d,62c538c1c1c9a7c5e0129e84,2022-07-06_09h30.13.263,Colour_Asymmetry_Pilot,2022.1.3,Win32,60.05645307,62c50e9c1127f2cd403a315f,0,113,113,24,1,onetwo,,,,,,,,,,,,,,,,,,,,,,,,,,,,,,,,,,,,,,,,,,,,,,,,,,,,,,,,,,,,,,,,,,,,,,,,,,,,,,,,,,,,,,,,,,,,,,,,,,,,,,,,,,,,,,,,,,,,,,,,,,,,,,,,,,,,,,,,,,,,,,,,,,,,,,,,,,,,,
,,,,,,5f4139a5fb4ebc2ad33cb71d,62c538c1c1c9a7c5e0129e84,2022-07-06_09h30.13.263,Colour_Asymmetry_Pilot,2022.1.3,Win32,60.05645307,62c50e9c1127f2cd403a315f,0,114,114,115,1,twofour,,,,,,,,,,,,,,,,,,,,,,,,,,,,,,,,,,,,,,,,,,,,,,,,,,,,,,,,,,,,,,,,,,,,,,,,,,,,,,,,,,,,,,,,,,,,,,,,,,,,,,,,,,,,,,,,,,,,,,,,,,,,,,,,,,,,,,,,,,,,,,,,,,,,,,,,,,,,,
,,,,,,5f4139a5fb4ebc2ad33cb71d,62c538c1c1c9a7c5e0129e84,2022-07-06_09h30.13.263,Colour_Asymmetry_Pilot,2022.1.3,Win32,60.05645307,62c50e9c1127f2cd403a315f,0,115,115,81,1,onethree,,,,,,,,,,,,,,,,,,,,,,,,,,,,,,,,,,,,,,,,,,,,,,,,,,,,,,,,,,,,,,,,,,,,,,,,,,,,,,,,,,,,,,,,,,,,,,,,,,,,,,,,,,,,,,,,,,,,,,,,,,,,,,,,,,,,,,,,,,,,,,,,,,,,,,,,,,,,,
,,,,,,5f4139a5fb4ebc2ad33cb71d,62c538c1c1c9a7c5e0129e84,2022-07-06_09h30.13.263,Colour_Asymmetry_Pilot,2022.1.3,Win32,60.05645307,62c50e9c1127f2cd403a315f,0,116,116,136,1,onetwo,,,,,,,,,,,,,,,,,,,,,,,,,,,,,,,,,,,,,,,,,,,,,,,,,,,,,,,,,,,,,,,,,,,,,,,,,,,,,,,,,,,,,,,,,,,,,,,,,,,,,,,,,,,,,,,,,,,,,,,,,,,,,,,,,,,,,,,,,,,,,,,,,,,,,,,,,,,,,
,,,,,,5f4139a5fb4ebc2ad33cb71d,62c538c1c1c9a7c5e0129e84,2022-07-06_09h30.13.263,Colour_Asymmetry_Pilot,2022.1.3,Win32,60.05645307,62c50e9c1127f2cd403a315f,0,117,117,85,1,threefour,,,,,,,,,,,,,,,,,,,,,,,,,,,,,,,,,,,,,,,,,,,,,,,,,,,,,,,,,,,,,,,,,,,,,,,,,,,,,,,,,,,,,,,,,,,,,,,,,,,,,,,,,,,,,,,,,,,,,,,,,,,,,,,,,,,,,,,,,,,,,,,,,,,,,,,,,,,,,
,,,,,,5f4139a5fb4ebc2ad33cb71d,62c538c1c1c9a7c5e0129e84,2022-07-06_09h30.13.263,Colour_Asymmetry_Pilot,2022.1.3,Win32,60.05645307,62c50e9c1127f2cd403a315f,0,118,118,99,1,twofour,,,,,,,,,,,,,,,,,,,,,,,,,,,,,,,,,,,,,,,,,,,,,,,,,,,,,,,,,,,,,,,,,,,,,,,,,,,,,,,,,,,,,,,,,,,,,,,,,,,,,,,,,,,,,,,,,,,,,,,,,,,,,,,,,,,,,,,,,,,,,,,,,,,,,,,,,,,,,
,,,,,,5f4139a5fb4ebc2ad33cb71d,62c538c1c1c9a7c5e0129e84,2022-07-06_09h30.13.263,Colour_Asymmetry_Pilot,2022.1.3,Win32,60.05645307,62c50e9c1127f2cd403a315f,0,119,119,1,1,onethree,,,,,,,,,,,,,,,,,,,,,,,,,,,,,,,,,,,,,,,,,,,,,,,,,,,,,,,,,,,,,,,,,,,,,,,,,,,,,,,,,,,,,,,,,,,,,,,,,,,,,,,,,,,,,,,,,,,,,,,,,,,,,,,,,,,,,,,,,,,,,,,,,,,,,,,,,,,,,
,,,,,,5f4139a5fb4ebc2ad33cb71d,62c538c1c1c9a7c5e0129e84,2022-07-06_09h30.13.263,Colour_Asymmetry_Pilot,2022.1.3,Win32,60.05645307,62c50e9c1127f2cd403a315f,0,120,120,117,1,threefour,,,,,,,,,,,,,,,,,,,,,,,,,,,,,,,,,,,,,,,,,,,,,,,,,,,,,,,,,,,,,,,,,,,,,,,,,,,,,,,,,,,,,,,,,,,,,,,,,,,,,,,,,,,,,,,,,,,,,,,,,,,,,,,,,,,,,,,,,,,,,,,,,,,,,,,,,,,,,
,,,,,,5f4139a5fb4ebc2ad33cb71d,62c538c1c1c9a7c5e0129e84,2022-07-06_09h30.13.263,Colour_Asymmetry_Pilot,2022.1.3,Win32,60.05645307,62c50e9c1127f2cd403a315f,0,121,121,41,1,onethree,,,,,,,,,,,,,,,,,,,,,,,,,,,,,,,,,,,,,,,,,,,,,,,,,,,,,,,,,,,,,,,,,,,,,,,,,,,,,,,,,,,,,,,,,,,,,,,,,,,,,,,,,,,,,,,,,,,,,,,,,,,,,,,,,,,,,,,,,,,,,,,,,,,,,,,,,,,,,
,,,,,,5f4139a5fb4ebc2ad33cb71d,62c538c1c1c9a7c5e0129e84,2022-07-06_09h30.13.263,Colour_Asymmetry_Pilot,2022.1.3,Win32,60.05645307,62c50e9c1127f2cd403a315f,0,122,122,7,1,fourthree,,,,,,,,,,,,,,,,,,,,,,,,,,,,,,,,,,,,,,,,,,,,,,,,,,,,,,,,,,,,,,,,,,,,,,,,,,,,,,,,,,,,,,,,,,,,,,,,,,,,,,,,,,,,,,,,,,,,,,,,,,,,,,,,,,,,,,,,,,,,,,,,,,,,,,,,,,,,,
,,,,,,5f4139a5fb4ebc2ad33cb71d,62c538c1c1c9a7c5e0129e84,2022-07-06_09h30.13.263,Colour_Asymmetry_Pilot,2022.1.3,Win32,60.05645307,62c50e9c1127f2cd403a315f,0,123,123,0,1,onetwo,,,,,,,,,,,,,,,,,,,,,,,,,,,,,,,,,,,,,,,,,,,,,,,,,,,,,,,,,,,,,,,,,,,,,,,,,,,,,,,,,,,,,,,,,,,,,,,,,,,,,,,,,,,,,,,,,,,,,,,,,,,,,,,,,,,,,,,,,,,,,,,,,,,,,,,,,,,,,
,,,,,,5f4139a5fb4ebc2ad33cb71d,62c538c1c1c9a7c5e0129e84,2022-07-06_09h30.13.263,Colour_Asymmetry_Pilot,2022.1.3,Win32,60.05645307,62c50e9c1127f2cd403a315f,0,124,124,141,1,threefour,,,,,,,,,,,,,,,,,,,,,,,,,,,,,,,,,,,,,,,,,,,,,,,,,,,,,,,,,,,,,,,,,,,,,,,,,,,,,,,,,,,,,,,,,,,,,,,,,,,,,,,,,,,,,,,,,,,,,,,,,,,,,,,,,,,,,,,,,,,,,,,,,,,,,,,,,,,,,
,,,,,,5f4139a5fb4ebc2ad33cb71d,62c538c1c1c9a7c5e0129e84,2022-07-06_09h30.13.263,Colour_Asymmetry_Pilot,2022.1.3,Win32,60.05645307,62c50e9c1127f2cd403a315f,0,125,125,72,1,onetwo,,,,,,,,,,,,,,,,,,,,,,,,,,,,,,,,,,,,,,,,,,,,,,,,,,,,,,,,,,,,,,,,,,,,,,,,,,,,,,,,,,,,,,,,,,,,,,,,,,,,,,,,,,,,,,,,,,,,,,,,,,,,,,,,,,,,,,,,,,,,,,,,,,,,,,,,,,,,,
,,,,,,5f4139a5fb4ebc2ad33cb71d,62c538c1c1c9a7c5e0129e84,2022-07-06_09h30.13.263,Colour_Asymmetry_Pilot,2022.1.3,Win32,60.05645307,62c50e9c1127f2cd403a315f,0,126,126,135,1,fourthree,,,,,,,,,,,,,,,,,,,,,,,,,,,,,,,,,,,,,,,,,,,,,,,,,,,,,,,,,,,,,,,,,,,,,,,,,,,,,,,,,,,,,,,,,,,,,,,,,,,,,,,,,,,,,,,,,,,,,,,,,,,,,,,,,,,,,,,,,,,,,,,,,,,,,,,,,,,,,
,,,,,,5f4139a5fb4ebc2ad33cb71d,62c538c1c1c9a7c5e0129e84,2022-07-06_09h30.13.263,Colour_Asymmetry_Pilot,2022.1.3,Win32,60.05645307,62c50e9c1127f2cd403a315f,0,127,127,106,1,twoone,,,,,,,,,,,,,,,,,,,,,,,,,,,,,,,,,,,,,,,,,,,,,,,,,,,,,,,,,,,,,,,,,,,,,,,,,,,,,,,,,,,,,,,,,,,,,,,,,,,,,,,,,,,,,,,,,,,,,,,,,,,,,,,,,,,,,,,,,,,,,,,,,,,,,,,,,,,,,
,,,,,,5f4139a5fb4ebc2ad33cb71d,62c538c1c1c9a7c5e0129e84,2022-07-06_09h30.13.263,Colour_Asymmetry_Pilot,2022.1.3,Win32,60.05645307,62c50e9c1127f2cd403a315f,0,128,128,22,1,fourtwo,,,,,,,,,,,,,,,,,,,,,,,,,,,,,,,,,,,,,,,,,,,,,,,,,,,,,,,,,,,,,,,,,,,,,,,,,,,,,,,,,,,,,,,,,,,,,,,,,,,,,,,,,,,,,,,,,,,,,,,,,,,,,,,,,,,,,,,,,,,,,,,,,,,,,,,,,,,,,
,,,,,,5f4139a5fb4ebc2ad33cb71d,62c538c1c1c9a7c5e0129e84,2022-07-06_09h30.13.263,Colour_Asymmetry_Pilot,2022.1.3,Win32,60.05645307,62c50e9c1127f2cd403a315f,0,129,129,74,1,twoone,,,,,,,,,,,,,,,,,,,,,,,,,,,,,,,,,,,,,,,,,,,,,,,,,,,,,,,,,,,,,,,,,,,,,,,,,,,,,,,,,,,,,,,,,,,,,,,,,,,,,,,,,,,,,,,,,,,,,,,,,,,,,,,,,,,,,,,,,,,,,,,,,,,,,,,,,,,,,
,,,,,,5f4139a5fb4ebc2ad33cb71d,62c538c1c1c9a7c5e0129e84,2022-07-06_09h30.13.263,Colour_Asymmetry_Pilot,2022.1.3,Win32,60.05645307,62c50e9c1127f2cd403a315f,0,130,130,34,1,twoone,,,,,,,,,,,,,,,,,,,,,,,,,,,,,,,,,,,,,,,,,,,,,,,,,,,,,,,,,,,,,,,,,,,,,,,,,,,,,,,,,,,,,,,,,,,,,,,,,,,,,,,,,,,,,,,,,,,,,,,,,,,,,,,,,,,,,,,,,,,,,,,,,,,,,,,,,,,,,
,,,,,,5f4139a5fb4ebc2ad33cb71d,62c538c1c1c9a7c5e0129e84,2022-07-06_09h30.13.263,Colour_Asymmetry_Pilot,2022.1.3,Win32,60.05645307,62c50e9c1127f2cd403a315f,0,131,131,3,1,twofour,,,,,,,,,,,,,,,,,,,,,,,,,,,,,,,,,,,,,,,,,,,,,,,,,,,,,,,,,,,,,,,,,,,,,,,,,,,,,,,,,,,,,,,,,,,,,,,,,,,,,,,,,,,,,,,,,,,,,,,,,,,,,,,,,,,,,,,,,,,,,,,,,,,,,,,,,,,,,
,,,,,,5f4139a5fb4ebc2ad33cb71d,62c538c1c1c9a7c5e0129e84,2022-07-06_09h30.13.263,Colour_Asymmetry_Pilot,2022.1.3,Win32,60.05645307,62c50e9c1127f2cd403a315f,0,132,132,155,1,twofour,,,,,,,,,,,,,,,,,,,,,,,,,,,,,,,,,,,,,,,,,,,,,,,,,,,,,,,,,,,,,,,,,,,,,,,,,,,,,,,,,,,,,,,,,,,,,,,,,,,,,,,,,,,,,,,,,,,,,,,,,,,,,,,,,,,,,,,,,,,,,,,,,,,,,,,,,,,,,
,,,,,,5f4139a5fb4ebc2ad33cb71d,62c538c1c1c9a7c5e0129e84,2022-07-06_09h30.13.263,Colour_Asymmetry_Pilot,2022.1.3,Win32,60.05645307,62c50e9c1127f2cd403a315f,0,133,133,43,1,twofour,,,,,,,,,,,,,,,,,,,,,,,,,,,,,,,,,,,,,,,,,,,,,,,,,,,,,,,,,,,,,,,,,,,,,,,,,,,,,,,,,,,,,,,,,,,,,,,,,,,,,,,,,,,,,,,,,,,,,,,,,,,,,,,,,,,,,,,,,,,,,,,,,,,,,,,,,,,,,
,,,,,,5f4139a5fb4ebc2ad33cb71d,62c538c1c1c9a7c5e0129e84,2022-07-06_09h30.13.263,Colour_Asymmetry_Pilot,2022.1.3,Win32,60.05645307,62c50e9c1127f2cd403a315f,0,134,134,116,1,threeone,,,,,,,,,,,,,,,,,,,,,,,,,,,,,,,,,,,,,,,,,,,,,,,,,,,,,,,,,,,,,,,,,,,,,,,,,,,,,,,,,,,,,,,,,,,,,,,,,,,,,,,,,,,,,,,,,,,,,,,,,,,,,,,,,,,,,,,,,,,,,,,,,,,,,,,,,,,,,
,,,,,,5f4139a5fb4ebc2ad33cb71d,62c538c1c1c9a7c5e0129e84,2022-07-06_09h30.13.263,Colour_Asymmetry_Pilot,2022.1.3,Win32,60.05645307,62c50e9c1127f2cd403a315f,0,135,135,78,1,fourtwo,,,,,,,,,,,,,,,,,,,,,,,,,,,,,,,,,,,,,,,,,,,,,,,,,,,,,,,,,,,,,,,,,,,,,,,,,,,,,,,,,,,,,,,,,,,,,,,,,,,,,,,,,,,,,,,,,,,,,,,,,,,,,,,,,,,,,,,,,,,,,,,,,,,,,,,,,,,,,
,,,,,,5f4139a5fb4ebc2ad33cb71d,62c538c1c1c9a7c5e0129e84,2022-07-06_09h30.13.263,Colour_Asymmetry_Pilot,2022.1.3,Win32,60.05645307,62c50e9c1127f2cd403a315f,0,136,136,39,1,fourthree,,,,,,,,,,,,,,,,,,,,,,,,,,,,,,,,,,,,,,,,,,,,,,,,,,,,,,,,,,,,,,,,,,,,,,,,,,,,,,,,,,,,,,,,,,,,,,,,,,,,,,,,,,,,,,,,,,,,,,,,,,,,,,,,,,,,,,,,,,,,,,,,,,,,,,,,,,,,,
,,,,,,5f4139a5fb4ebc2ad33cb71d,62c538c1c1c9a7c5e0129e84,2022-07-06_09h30.13.263,Colour_Asymmetry_Pilot,2022.1.3,Win32,60.05645307,62c50e9c1127f2cd403a315f,0,137,137,61,1,threefour,,,,,,,,,,,,,,,,,,,,,,,,,,,,,,,,,,,,,,,,,,,,,,,,,,,,,,,,,,,,,,,,,,,,,,,,,,,,,,,,,,,,,,,,,,,,,,,,,,,,,,,,,,,,,,,,,,,,,,,,,,,,,,,,,,,,,,,,,,,,,,,,,,,,,,,,,,,,,
,,,,,,5f4139a5fb4ebc2ad33cb71d,62c538c1c1c9a7c5e0129e84,2022-07-06_09h30.13.263,Colour_Asymmetry_Pilot,2022.1.3,Win32,60.05645307,62c50e9c1127f2cd403a315f,0,138,138,86,1,fourtwo,,,,,,,,,,,,,,,,,,,,,,,,,,,,,,,,,,,,,,,,,,,,,,,,,,,,,,,,,,,,,,,,,,,,,,,,,,,,,,,,,,,,,,,,,,,,,,,,,,,,,,,,,,,,,,,,,,,,,,,,,,,,,,,,,,,,,,,,,,,,,,,,,,,,,,,,,,,,,
,,,,,,5f4139a5fb4ebc2ad33cb71d,62c538c1c1c9a7c5e0129e84,2022-07-06_09h30.13.263,Colour_Asymmetry_Pilot,2022.1.3,Win32,60.05645307,62c50e9c1127f2cd403a315f,0,139,139,153,1,onethree,,,,,,,,,,,,,,,,,,,,,,,,,,,,,,,,,,,,,,,,,,,,,,,,,,,,,,,,,,,,,,,,,,,,,,,,,,,,,,,,,,,,,,,,,,,,,,,,,,,,,,,,,,,,,,,,,,,,,,,,,,,,,,,,,,,,,,,,,,,,,,,,,,,,,,,,,,,,,
,,,,,,5f4139a5fb4ebc2ad33cb71d,62c538c1c1c9a7c5e0129e84,2022-07-06_09h30.13.263,Colour_Asymmetry_Pilot,2022.1.3,Win32,60.05645307,62c50e9c1127f2cd403a315f,0,140,140,138,1,twoone,,,,,,,,,,,,,,,,,,,,,,,,,,,,,,,,,,,,,,,,,,,,,,,,,,,,,,,,,,,,,,,,,,,,,,,,,,,,,,,,,,,,,,,,,,,,,,,,,,,,,,,,,,,,,,,,,,,,,,,,,,,,,,,,,,,,,,,,,,,,,,,,,,,,,,,,,,,,,
,,,,,,5f4139a5fb4ebc2ad33cb71d,62c538c1c1c9a7c5e0129e84,2022-07-06_09h30.13.263,Colour_Asymmetry_Pilot,2022.1.3,Win32,60.05645307,62c50e9c1127f2cd403a315f,0,141,141,159,1,fourthree,,,,,,,,,,,,,,,,,,,,,,,,,,,,,,,,,,,,,,,,,,,,,,,,,,,,,,,,,,,,,,,,,,,,,,,,,,,,,,,,,,,,,,,,,,,,,,,,,,,,,,,,,,,,,,,,,,,,,,,,,,,,,,,,,,,,,,,,,,,,,,,,,,,,,,,,,,,,,
,,,,,,5f4139a5fb4ebc2ad33cb71d,62c538c1c1c9a7c5e0129e84,2022-07-06_09h30.13.263,Colour_Asymmetry_Pilot,2022.1.3,Win32,60.05645307,62c50e9c1127f2cd403a315f,0,142,142,12,1,threeone,,,,,,,,,,,,,,,,,,,,,,,,,,,,,,,,,,,,,,,,,,,,,,,,,,,,,,,,,,,,,,,,,,,,,,,,,,,,,,,,,,,,,,,,,,,,,,,,,,,,,,,,,,,,,,,,,,,,,,,,,,,,,,,,,,,,,,,,,,,,,,,,,,,,,,,,,,,,,
,,,,,,5f4139a5fb4ebc2ad33cb71d,62c538c1c1c9a7c5e0129e84,2022-07-06_09h30.13.263,Colour_Asymmetry_Pilot,2022.1.3,Win32,60.05645307,62c50e9c1127f2cd403a315f,0,143,143,44,1,threeone,,,,,,,,,,,,,,,,,,,,,,,,,,,,,,,,,,,,,,,,,,,,,,,,,,,,,,,,,,,,,,,,,,,,,,,,,,,,,,,,,,,,,,,,,,,,,,,,,,,,,,,,,,,,,,,,,,,,,,,,,,,,,,,,,,,,,,,,,,,,,,,,,,,,,,,,,,,,,
,,,,,,5f4139a5fb4ebc2ad33cb71d,62c538c1c1c9a7c5e0129e84,2022-07-06_09h30.13.263,Colour_Asymmetry_Pilot,2022.1.3,Win32,60.05645307,62c50e9c1127f2cd403a315f,0,144,144,130,1,twoone,,,,,,,,,,,,,,,,,,,,,,,,,,,,,,,,,,,,,,,,,,,,,,,,,,,,,,,,,,,,,,,,,,,,,,,,,,,,,,,,,,,,,,,,,,,,,,,,,,,,,,,,,,,,,,,,,,,,,,,,,,,,,,,,,,,,,,,,,,,,,,,,,,,,,,,,,,,,,
,,,,,,5f4139a5fb4ebc2ad33cb71d,62c538c1c1c9a7c5e0129e84,2022-07-06_09h30.13.263,Colour_Asymmetry_Pilot,2022.1.3,Win32,60.05645307,62c50e9c1127f2cd403a315f,0,145,145,15,1,fourthree,,,,,,,,,,,,,,,,,,,,,,,,,,,,,,,,,,,,,,,,,,,,,,,,,,,,,,,,,,,,,,,,,,,,,,,,,,,,,,,,,,,,,,,,,,,,,,,,,,,,,,,,,,,,,,,,,,,,,,,,,,,,,,,,,,,,,,,,,,,,,,,,,,,,,,,,,,,,,
,,,,,,5f4139a5fb4ebc2ad33cb71d,62c538c1c1c9a7c5e0129e84,2022-07-06_09h30.13.263,Colour_Asymmetry_Pilot,2022.1.3,Win32,60.05645307,62c50e9c1127f2cd403a315f,0,146,146,125,1,threefour,,,,,,,,,,,,,,,,,,,,,,,,,,,,,,,,,,,,,,,,,,,,,,,,,,,,,,,,,,,,,,,,,,,,,,,,,,,,,,,,,,,,,,,,,,,,,,,,,,,,,,,,,,,,,,,,,,,,,,,,,,,,,,,,,,,,,,,,,,,,,,,,,,,,,,,,,,,,,
,,,,,,5f4139a5fb4ebc2ad33cb71d,62c538c1c1c9a7c5e0129e84,2022-07-06_09h30.13.263,Colour_Asymmetry_Pilot,2022.1.3,Win32,60.05645307,62c50e9c1127f2cd403a315f,0,147,147,95,1,fourthree,,,,,,,,,,,,,,,,,,,,,,,,,,,,,,,,,,,,,,,,,,,,,,,,,,,,,,,,,,,,,,,,,,,,,,,,,,,,,,,,,,,,,,,,,,,,,,,,,,,,,,,,,,,,,,,,,,,,,,,,,,,,,,,,,,,,,,,,,,,,,,,,,,,,,,,,,,,,,
,,,,,,5f4139a5fb4ebc2ad33cb71d,62c538c1c1c9a7c5e0129e84,2022-07-06_09h30.13.263,Colour_Asymmetry_Pilot,2022.1.3,Win32,60.05645307,62c50e9c1127f2cd403a315f,0,148,148,147,1,twofour,,,,,,,,,,,,,,,,,,,,,,,,,,,,,,,,,,,,,,,,,,,,,,,,,,,,,,,,,,,,,,,,,,,,,,,,,,,,,,,,,,,,,,,,,,,,,,,,,,,,,,,,,,,,,,,,,,,,,,,,,,,,,,,,,,,,,,,,,,,,,,,,,,,,,,,,,,,,,
,,,,,,5f4139a5fb4ebc2ad33cb71d,62c538c1c1c9a7c5e0129e84,2022-07-06_09h30.13.263,Colour_Asymmetry_Pilot,2022.1.3,Win32,60.05645307,62c50e9c1127f2cd403a315f,0,149,149,97,1,onethree,,,,,,,,,,,,,,,,,,,,,,,,,,,,,,,,,,,,,,,,,,,,,,,,,,,,,,,,,,,,,,,,,,,,,,,,,,,,,,,,,,,,,,,,,,,,,,,,,,,,,,,,,,,,,,,,,,,,,,,,,,,,,,,,,,,,,,,,,,,,,,,,,,,,,,,,,,,,,
,,,,,,5f4139a5fb4ebc2ad33cb71d,62c538c1c1c9a7c5e0129e84,2022-07-06_09h30.13.263,Colour_Asymmetry_Pilot,2022.1.3,Win32,60.05645307,62c50e9c1127f2cd403a315f,0,150,150,48,1,onetwo,,,,,,,,,,,,,,,,,,,,,,,,,,,,,,,,,,,,,,,,,,,,,,,,,,,,,,,,,,,,,,,,,,,,,,,,,,,,,,,,,,,,,,,,,,,,,,,,,,,,,,,,,,,,,,,,,,,,,,,,,,,,,,,,,,,,,,,,,,,,,,,,,,,,,,,,,,,,,
,,,,,,5f4139a5fb4ebc2ad33cb71d,62c538c1c1c9a7c5e0129e84,2022-07-06_09h30.13.263,Colour_Asymmetry_Pilot,2022.1.3,Win32,60.05645307,62c50e9c1127f2cd403a315f,0,151,151,14,1,fourtwo,,,,,,,,,,,,,,,,,,,,,,,,,,,,,,,,,,,,,,,,,,,,,,,,,,,,,,,,,,,,,,,,,,,,,,,,,,,,,,,,,,,,,,,,,,,,,,,,,,,,,,,,,,,,,,,,,,,,,,,,,,,,,,,,,,,,,,,,,,,,,,,,,,,,,,,,,,,,,
,,,,,,5f4139a5fb4ebc2ad33cb71d,62c538c1c1c9a7c5e0129e84,2022-07-06_09h30.13.263,Colour_Asymmetry_Pilot,2022.1.3,Win32,60.05645307,62c50e9c1127f2cd403a315f,0,152,152,154,1,twoone,,,,,,,,,,,,,,,,,,,,,,,,,,,,,,,,,,,,,,,,,,,,,,,,,,,,,,,,,,,,,,,,,,,,,,,,,,,,,,,,,,,,,,,,,,,,,,,,,,,,,,,,,,,,,,,,,,,,,,,,,,,,,,,,,,,,,,,,,,,,,,,,,,,,,,,,,,,,,
,,,,,,5f4139a5fb4ebc2ad33cb71d,62c538c1c1c9a7c5e0129e84,2022-07-06_09h30.13.263,Colour_Asymmetry_Pilot,2022.1.3,Win32,60.05645307,62c50e9c1127f2cd403a315f,0,153,153,150,1,fourtwo,,,,,,,,,,,,,,,,,,,,,,,,,,,,,,,,,,,,,,,,,,,,,,,,,,,,,,,,,,,,,,,,,,,,,,,,,,,,,,,,,,,,,,,,,,,,,,,,,,,,,,,,,,,,,,,,,,,,,,,,,,,,,,,,,,,,,,,,,,,,,,,,,,,,,,,,,,,,,
,,,,,,5f4139a5fb4ebc2ad33cb71d,62c538c1c1c9a7c5e0129e84,2022-07-06_09h30.13.263,Colour_Asymmetry_Pilot,2022.1.3,Win32,60.05645307,62c50e9c1127f2cd403a315f,0,154,154,55,1,fourthree,,,,,,,,,,,,,,,,,,,,,,,,,,,,,,,,,,,,,,,,,,,,,,,,,,,,,,,,,,,,,,,,,,,,,,,,,,,,,,,,,,,,,,,,,,,,,,,,,,,,,,,,,,,,,,,,,,,,,,,,,,,,,,,,,,,,,,,,,,,,,,,,,,,,,,,,,,,,,
,,,,,,5f4139a5fb4ebc2ad33cb71d,62c538c1c1c9a7c5e0129e84,2022-07-06_09h30.13.263,Colour_Asymmetry_Pilot,2022.1.3,Win32,60.05645307,62c50e9c1127f2cd403a315f,0,155,155,29,1,threefour,,,,,,,,,,,,,,,,,,,,,,,,,,,,,,,,,,,,,,,,,,,,,,,,,,,,,,,,,,,,,,,,,,,,,,,,,,,,,,,,,,,,,,,,,,,,,,,,,,,,,,,,,,,,,,,,,,,,,,,,,,,,,,,,,,,,,,,,,,,,,,,,,,,,,,,,,,,,,
,,,,,,5f4139a5fb4ebc2ad33cb71d,62c538c1c1c9a7c5e0129e84,2022-07-06_09h30.13.263,Colour_Asymmetry_Pilot,2022.1.3,Win32,60.05645307,62c50e9c1127f2cd403a315f,0,156,156,26,1,twoone,,,,,,,,,,,,,,,,,,,,,,,,,,,,,,,,,,,,,,,,,,,,,,,,,,,,,,,,,,,,,,,,,,,,,,,,,,,,,,,,,,,,,,,,,,,,,,,,,,,,,,,,,,,,,,,,,,,,,,,,,,,,,,,,,,,,,,,,,,,,,,,,,,,,,,,,,,,,,
,,,,,,5f4139a5fb4ebc2ad33cb71d,62c538c1c1c9a7c5e0129e84,2022-07-06_09h30.13.263,Colour_Asymmetry_Pilot,2022.1.3,Win32,60.05645307,62c50e9c1127f2cd403a315f,0,157,157,6,1,fourtwo,,,,,,,,,,,,,,,,,,,,,,,,,,,,,,,,,,,,,,,,,,,,,,,,,,,,,,,,,,,,,,,,,,,,,,,,,,,,,,,,,,,,,,,,,,,,,,,,,,,,,,,,,,,,,,,,,,,,,,,,,,,,,,,,,,,,,,,,,,,,,,,,,,,,,,,,,,,,,
,,,,,,5f4139a5fb4ebc2ad33cb71d,62c538c1c1c9a7c5e0129e84,2022-07-06_09h30.13.263,Colour_Asymmetry_Pilot,2022.1.3,Win32,60.05645307,62c50e9c1127f2cd403a315f,0,158,158,148,1,threeone,,,,,,,,,,,,,,,,,,,,,,,,,,,,,,,,,,,,,,,,,,,,,,,,,,,,,,,,,,,,,,,,,,,,,,,,,,,,,,,,,,,,,,,,,,,,,,,,,,,,,,,,,,,,,,,,,,,,,,,,,,,,,,,,,,,,,,,,,,,,,,,,,,,,,,,,,,,,,
,,,,,,5f4139a5fb4ebc2ad33cb71d,62c538c1c1c9a7c5e0129e84,2022-07-06_09h30.13.263,Colour_Asymmetry_Pilot,2022.1.3,Win32,60.05645307,62c50e9c1127f2cd403a315f,0,159,159,129,1,onethree,,,,,,,,,,,,,,,,,,,,,,,,,,,,,,,,,,,,,,,,,,,,,,,,,,,,,,,,,,,,,,,,,,,,,,,,,,,,,,,,,,,,,,,,,,,,,,,,,,,,,,,,,,,,,,,,,,,,,,,,,,,,,,,,,,,,,,,,,,,,,,,,,,,,,,,,,,,,,
,,,,,,5f4139a5fb4ebc2ad33cb71d,62c538c1c1c9a7c5e0129e84,2022-07-06_09h30.13.263,Colour_Asymmetry_Pilot,2022.1.3,Win32,60.05645307,62c50e9c1127f2cd403a315f,0,160,160,132,1,threeone,,,,,,,,,,,,,,,,,,,,,,,,,,,,,,,,,,,,,,,,,,,,,,,,,,,,,,,,,,,,,,,,,,,,,,,,,,,,,,,,,,,,,,,,,,,,,,,,,,,,,,,,,,,,,,,,,,,,,,,,,,,,,,,,,,,,,,,,,,,,,,,,,,,,,,,,,,,,,
,,,,,,5f4139a5fb4ebc2ad33cb71d,62c538c1c1c9a7c5e0129e84,2022-07-06_09h30.13.263,Colour_Asymmetry_Pilot,2022.1.3,Win32,60.05645307,62c50e9c1127f2cd403a315f,0,161,161,60,1,threeone,,,,,,,,,,,,,,,,,,,,,,,,,,,,,,,,,,,,,,,,,,,,,,,,,,,,,,,,,,,,,,,,,,,,,,,,,,,,,,,,,,,,,,,,,,,,,,,,,,,,,,,,,,,,,,,,,,,,,,,,,,,,,,,,,,,,,,,,,,,,,,,,,,,,,,,,,,,,,
,,,,,,5f4139a5fb4ebc2ad33cb71d,62c538c1c1c9a7c5e0129e84,2022-07-06_09h30.13.263,Colour_Asymmetry_Pilot,2022.1.3,Win32,60.05645307,62c50e9c1127f2cd403a315f,,,,,,,space,1.9881,space,21.8464,space,28.0195,space,7.4923,space,5.6344,space,3.1645,"[0.04299999999999993,0.16060000000000008,-0.6628000000000001]",onethree,"[0.7018,0.7802,-0.16079999999999994]",2,7.7336,110.4000244,-42.3999939,1,0,0,response3disk_5,-1.599975586,8,1,0,0,rectangle_8,-1.599975586,8,1,0,0,1,-1.599975586,8,1,0,0,0,0,0,0,1,,,,,,,,,,,,,,,,,,,,,,,,,,,,,,,,,,,,,,,,,,,,,,,,,,,,,,,,,,,,,,,,,,,,,,,,,,,,,,,,,,,,,,,,,,,,,,,,,,,,,,,,,,,,,,,,
,,,,,,5f4139a5fb4ebc2ad33cb71d,62c538c1c1c9a7c5e0129e84,2022-07-06_09h30.13.263,Colour_Asymmetry_Pilot,2022.1.3,Win32,60.05645307,62c50e9c1127f2cd403a315f,,,,,,,,,,,,,,,,,,,"[0.34099999999999997,0.5841999999999998,-0.9844]",twoone,"[-0.06680000000000008,-0.45100000000000007,-0.906]",-4,4.7828,-63.20001221,91.19998169,1,0,0,response7disk_5,-0.799987793,1.600006104,1,0,0,rectangle_8,-0.799987793,1.600006104,1,0,0,1,-0.799987793,1.600006104,1,0,0,1,0,1,0,1,,,,,,,,,,,,,,,,,,,,,,,,,,,,,,,,,,,,,,,,,,,,,,,,,,,,,,,,,,,,,,,,,,,,,,,,,,,,,,,,,,,,,,,,,,,,,,,,,,,,,,,,,,,,,,,,
,,,,,,5f4139a5fb4ebc2ad33cb71d,62c538c1c1c9a7c5e0129e84,2022-07-06_09h30.13.263,Colour_Asymmetry_Pilot,2022.1.3,Win32,60.05645307,62c50e9c1127f2cd403a315f,,,,,,,,,,,,,,,,,,,"[0.18419999999999992,-0.4276,-0.404]",onethree,"[-0.5688,-0.08239999999999992,-0.1844]",-4,1.0664,-60,111.1999817,1,0,0,response7disk_5,1.600036621,4.799987793,1,0,0,rectangle_8,1.600036621,4.799987793,1,0,0,1,1.600036621,4.799987793,1,0,0,2,0,2,0,1,,,,,,,,,,,,,,,,,,,,,,,,,,,,,,,,,,,,,,,,,,,,,,,,,,,,,,,,,,,,,,,,,,,,,,,,,,,,,,,,,,,,,,,,,,,,,,,,,,,,,,,,,,,,,,,,
,,,,,,5f4139a5fb4ebc2ad33cb71d,62c538c1c1c9a7c5e0129e84,2022-07-06_09h30.13.263,Colour_Asymmetry_Pilot,2022.1.3,Win32,60.05645307,62c50e9c1127f2cd403a315f,,,,,,,,,,,,,,,,,,,"[-0.38039999999999996,-0.4276,-0.1452]",onethree,"[0.3802000000000001,0.19199999999999995,-0.6394]",-4,1.0504,-52.79998779,105.6000061,1,0,0,response7disk_5,-14.39996338,-4.800018311,1,0,0,rectangle_8,60.79998779,-99.20001221,1,0,0,1,0.799987793,1.600006104,1,0,0,3,0,3,0,1,response3disk_7,4,rectangle_4,,,,,,,,,,,,,,,,,,,,,,,,,,,,,,,,,,,,,,,,,,,,,,,,,,,,,,,,,,,,,,,,,,,,,,,,,,,,,,,,,,,,,,,,,,,,,,,,,,,,,,,,,,,,,
,,,,,,5f4139a5fb4ebc2ad33cb71d,62c538c1c1c9a7c5e0129e84,2022-07-06_09h30.13.263,Colour_Asymmetry_Pilot,2022.1.3,Win32,60.05645307,62c50e9c1127f2cd403a315f,,,,,,,,,,,,,,,,,,,"[0.7646000000000002,0.07440000000000002,0.2704]",onethree,"[0.11359999999999992,0.6312,0.5213999999999999]",-4,0.9335,-36,103.1999817,1,0,0,response7disk_5,-4.799987793,-4,1,0,0,rectangle_8,-4.799987793,-4,1,0,0,1,-4.799987793,-4,1,0,0,4,0,4,0,1,,,,,,,,,,,,,,,,,,,,,,,,,,,,,,,,,,,,,,,,,,,,,,,,,,,,,,,,,,,,,,,,,,,,,,,,,,,,,,,,,,,,,,,,,,,,,,,,,,,,,,,,,,,,,,,,
,,,,,,5f4139a5fb4ebc2ad33cb71d,62c538c1c1c9a7c5e0129e84,2022-07-06_09h30.13.263,Colour_Asymmetry_Pilot,2022.1.3,Win32,60.05645307,62c50e9c1127f2cd403a315f,,,,,,,,,,,,,,,,,,,"[-0.2942,-0.24719999999999998,-0.357]",twofour,"[-0.6942,-0.7648,-0.12959999999999994]",-4,1.5172,-48,97.6000061,1,0,0,response7disk_5,-6.399963379,0,1,0,0,rectangle_8,48.79998779,-97.60003662,1,0,0,1,-5.599975586,-4.800018311,1,0,0,5,0,5,0,1,response3disk_7,4,rectangle_4,,,,,,,,,,,,,,,,,,,,,,,,,,,,,,,,,,,,,,,,,,,,,,,,,,,,,,,,,,,,,,,,,,,,,,,,,,,,,,,,,,,,,,,,,,,,,,,,,,,,,,,,,,,,,
,,,,,,5f4139a5fb4ebc2ad33cb71d,62c538c1c1c9a7c5e0129e84,2022-07-06_09h30.13.263,Colour_Asymmetry_Pilot,2022.1.3,Win32,60.05645307,62c50e9c1127f2cd403a315f,,,,,,,,,,,,,,,,,,,"[-0.6,0.16860000000000008,0.44300000000000006]",twoone,"[-0.0040000000000000036,0.02739999999999987,-0.08239999999999992]",-4,4.2882,-41.59997559,90.3999939,1,0,0,response7disk_5,-12.79998779,-0.800018311,1,0,0,rectangle_8,-12.79998779,-0.800018311,1,0,0,1,-12.79998779,-0.800018311,1,0,0,6,0,6,0,1,,,,,,,,,,,,,,,,,,,,,,,,,,,,,,,,,,,,,,,,,,,,,,,,,,,,,,,,,,,,,,,,,,,,,,,,,,,,,,,,,,,,,,,,,,,,,,,,,,,,,,,,,,,,,,,,
,,,,,,5f4139a5fb4ebc2ad33cb71d,62c538c1c1c9a7c5e0129e84,2022-07-06_09h30.13.263,Colour_Asymmetry_Pilot,2022.1.3,Win32,60.05645307,62c50e9c1127f2cd403a315f,,,,,,,,,,,,,,,,,,,,twoone,,-2,2.5176,,,,,,,,,,,,,,,,,,,,,,,,,,,,,,,,space,5.9805,"[0.3881999999999999,-0.23939999999999995,-0.05040000000000011]","[0.8115999999999999,-0.0040000000000000036,-0.09819999999999995]",-100.7999878,-49.6000061,1,0,0,response5disk,18.40002441,6.399993896,1,0,0,rectangle,18.40002441,6.399993896,1,0,0,,2,0.0047,0,18.40002441,6.399993896,1,0,0,0,0,0,113,1,32,second,,,,,,,,,,,,,,,,,,,,,,,,,,,,,,,,,,,,,,,,,,,,,,,,,,,,,,,,,,,,,,,,,,,,,,,,
,,,,,,5f4139a5fb4ebc2ad33cb71d,62c538c1c1c9a7c5e0129e84,2022-07-06_09h30.13.263,Colour_Asymmetry_Pilot,2022.1.3,Win32,60.05645307,62c50e9c1127f2cd403a315f,,,,,,,,,,,,,,,,,,,,onethree,,-4,0.7671,,,,,,,,,,,,,,,,,,,,,,,,,,,,,,,,,,"[0.7802,-0.23140000000000005,-0.20799999999999996]","[-0.6,0.16860000000000008,0.44300000000000006]",-36,79.19998169,1,0,0,response7disk,-4.799987793,1.600006104,1,0,0,rectangle,-4.799987793,1.600006104,1,0,0,,3,0.0039,0,-4.799987793,1.600006104,1,0,0,0,1,1,56,1,56,first,,,,,,,,,,,,,,,,,,,,,,,,,,,,,,,,,,,,,,,,,,,,,,,,,,,,,,,,,,,,,,,,,,,,,,,,
,,,,,,5f4139a5fb4ebc2ad33cb71d,62c538c1c1c9a7c5e0129e84,2022-07-06_09h30.13.263,Colour_Asymmetry_Pilot,2022.1.3,Win32,60.05645307,62c50e9c1127f2cd403a315f,,,,,,,,,,,,,,,,,,,,twoone,,-4,0.7665,,,,,,,,,,,,,,,,,,,,,,,,,,,,,,,,,,"[0.5528,0.7409999999999999,-0.71]","[0.9372,0.20779999999999998,0.2704]",-52.79998779,94.3999939,1,0,0,response7disk,-10.39996338,8,1,0,0,rectangle,-10.39996338,8,1,0,0,,3,0.0012,0,-10.39996338,8,1,0,0,0,2,2,142,1,61,second,,,,,,,,,,,,,,,,,,,,,,,,,,,,,,,,,,,,,,,,,,,,,,,,,,,,,,,,,,,,,,,,,,,,,,,,
,,,,,,5f4139a5fb4ebc2ad33cb71d,62c538c1c1c9a7c5e0129e84,2022-07-06_09h30.13.263,Colour_Asymmetry_Pilot,2022.1.3,Win32,60.05645307,62c50e9c1127f2cd403a315f,,,,,,,,,,,,,,,,,,,,onethree,,-4,0.6517,,,,,,,,,,,,,,,,,,,,,,,,,,,,,,,,,,"[0.7646000000000002,0.07440000000000002,0.2704]","[0.9763999999999999,0.8588,-0.05900000000000005]",-42.39996338,83.19998169,1,0,0,response7disk,-12.79998779,-1.600006104,1,0,0,rectangle,-12.79998779,-1.600006104,1,0,0,,1,0.0033,0,-12.79998779,-1.600006104,1,0,0,0,3,3,17,1,17,first,,,,,,,,,,,,,,,,,,,,,,,,,,,,,,,,,,,,,,,,,,,,,,,,,,,,,,,,,,,,,,,,,,,,,,,,
,,,,,,5f4139a5fb4ebc2ad33cb71d,62c538c1c1c9a7c5e0129e84,2022-07-06_09h30.13.263,Colour_Asymmetry_Pilot,2022.1.3,Win32,60.05645307,62c50e9c1127f2cd403a315f,,,,,,,,,,,,,,,,,,,,onetwo,,-2,1.7595,,,,,,,,,,,,,,,,,,,,,,,,,,,,,,,,,,"[-0.24719999999999998,0.5213999999999999,-0.12959999999999994]","[-0.30200000000000005,0.14500000000000002,0.2784]",-100,-56.80001831,1,0,0,response5disk,4,0,1,0,0,rectangle,4,0,1,0,0,,3,0.0033,0,4,0,1,0,0,0,4,4,143,1,62,second,,,,,,,,,,,,,,,,,,,,,,,,,,,,,,,,,,,,,,,,,,,,,,,,,,,,,,,,,,,,,,,,,,,,,,,,
,,,,,,5f4139a5fb4ebc2ad33cb71d,62c538c1c1c9a7c5e0129e84,2022-07-06_09h30.13.263,Colour_Asymmetry_Pilot,2022.1.3,Win32,60.05645307,62c50e9c1127f2cd403a315f,,,,,,,,,,,,,,,,,,,,onetwo,,-4,0.6008,,,,,,,,,,,,,,,,,,,,,,,,,,,,,,,,,,"[0.3568,-0.20799999999999996,-0.9844]","[-0.9766,-0.34920000000000007,0.2156]",-55.20001221,84,1,0,0,response7disk,-16,-2.399993896,1,0,0,rectangle,113.6000366,48.79998779,1,0,0,3,3,3.186,1,-11.20001221,-9.600006104,1,0,0,0,5,5,55,1,55,first,response1disk_3,rectangle,,,,,,,,,,,,,,,,,,,,,,,,,,,,,,,,,,,,,,,,,,,,,,,,,,,,,,,,,,,,,,,,,,,,,,
,,,,,,5f4139a5fb4ebc2ad33cb71d,62c538c1c1c9a7c5e0129e84,2022-07-06_09h30.13.263,Colour_Asymmetry_Pilot,2022.1.3,Win32,60.05645307,62c50e9c1127f2cd403a315f,,,,,,,,,,,,,,,,,,,,twofour,,-1,1.333,,,,,,,,,,,,,,,,,,,,,,,,,,,,,,,,,,"[0.6547999999999998,-0.043199999999999905,-0.011800000000000033]","[-0.06680000000000008,-0.45100000000000007,-0.906]",-42.39996338,-107.2000122,1,0,0,response5disk,8,-7.200012207,1,0,0,rectangle,8,-7.200012207,1,0,0,3,1,0.0035,0,8,-7.200012207,1,0,0,0,6,6,54,1,54,first,,,,,,,,,,,,,,,,,,,,,,,,,,,,,,,,,,,,,,,,,,,,,,,,,,,,,,,,,,,,,,,,,,,,,,,,
,,,,,,5f4139a5fb4ebc2ad33cb71d,62c538c1c1c9a7c5e0129e84,2022-07-06_09h30.13.263,Colour_Asymmetry_Pilot,2022.1.3,Win32,60.05645307,62c50e9c1127f2cd403a315f,,,,,,,,,,,,,,,,,,,,onethree,,-1,0.7335,,,,,,,,,,,,,,,,,,,,,,,,,,,,,,,,,,"[0.2784,-0.31000000000000005,-0.5452]","[-0.01980000000000004,-0.5138,-0.38039999999999996]",-49.59997559,-84.79998779,1,0,0,response5disk,-5.599975586,1.600006104,1,0,0,rectangle,-5.599975586,1.600006104,1,0,0,3,3,0.0044,0,-5.599975586,1.600006104,1,0,0,0,7,7,147,1,66,second,,,,,,,,,,,,,,,,,,,,,,,,,,,,,,,,,,,,,,,,,,,,,,,,,,,,,,,,,,,,,,,,,,,,,,,,
,,,,,,5f4139a5fb4ebc2ad33cb71d,62c538c1c1c9a7c5e0129e84,2022-07-06_09h30.13.263,Colour_Asymmetry_Pilot,2022.1.3,Win32,60.05645307,62c50e9c1127f2cd403a315f,,,,,,,,,,,,,,,,,,,,twofour,,-2,2.133,,,,,,,,,,,,,,,,,,,,,,,,,,,,,,,,,,"[0.6625999999999999,0.4980000000000002,-0.357]","[-0.06680000000000008,-0.45100000000000007,-0.906]",-84.79998779,-40,1,0,0,response5disk,10.40002441,12.79998779,1,0,0,rectangle,10.40002441,12.79998779,1,0,0,3,1,0.0043,0,10.40002441,12.79998779,1,0,0,0,8,8,106,1,25,second,,,,,,,,,,,,,,,,,,,,,,,,,,,,,,,,,,,,,,,,,,,,,,,,,,,,,,,,,,,,,,,,,,,,,,,,
,,,,,,5f4139a5fb4ebc2ad33cb71d,62c538c1c1c9a7c5e0129e84,2022-07-06_09h30.13.263,Colour_Asymmetry_Pilot,2022.1.3,Win32,60.05645307,62c50e9c1127f2cd403a315f,,,,,,,,,,,,,,,,,,,,threefour,,-2,3.7501,,,,,,,,,,,,,,,,,,,,,,,,,,,,,,,,,,"[-0.9216,-0.5529999999999999,-0.3962]","[0.11359999999999992,0.6312,0.5213999999999999]",-112,-44.80001831,1,0,0,response5disk,10.40002441,-4.800018311,1,0,0,rectangle,10.40002441,-4.800018311,1,0,0,3,3,0.0061,0,10.40002441,-4.800018311,1,0,0,0,9,9,120,1,39,second,,,,,,,,,,,,,,,,,,,,,,,,,,,,,,,,,,,,,,,,,,,,,,,,,,,,,,,,,,,,,,,,,,,,,,,,
,,,,,,5f4139a5fb4ebc2ad33cb71d,62c538c1c1c9a7c5e0129e84,2022-07-06_09h30.13.263,Colour_Asymmetry_Pilot,2022.1.3,Win32,60.05645307,62c50e9c1127f2cd403a315f,,,,,,,,,,,,,,,,,,,,twoone,,-1,1.0504,,,,,,,,,,,,,,,,,,,,,,,,,,,,,,,,,,"[-0.0040000000000000036,0.02739999999999987,-0.08239999999999992]","[-0.17659999999999998,-0.2864,-0.8354]",-64.79998779,-96.79998779,1,0,0,response5disk,0.799987793,-0.800018311,1,0,0,rectangle,0.799987793,-0.800018311,1,0,0,3,2,0.0034,0,0.799987793,-0.800018311,1,0,0,0,10,10,27,1,27,first,,,,,,,,,,,,,,,,,,,,,,,,,,,,,,,,,,,,,,,,,,,,,,,,,,,,,,,,,,,,,,,,,,,,,,,,
,,,,,,5f4139a5fb4ebc2ad33cb71d,62c538c1c1c9a7c5e0129e84,2022-07-06_09h30.13.263,Colour_Asymmetry_Pilot,2022.1.3,Win32,60.05645307,62c50e9c1127f2cd403a315f,,,,,,,,,,,,,,,,,,,,onethree,,-1,1.1341,,,,,,,,,,,,,,,,,,,,,,,,,,,,,,,,,,"[-0.011800000000000033,-0.906,-0.45100000000000007]","[-0.2942,-0.7648,-0.7492000000000001]",-36,-92,1,0,0,response5disk,8,3.199981689,1,0,0,rectangle,8,3.199981689,1,0,0,3,1,0.0034,0,8,3.199981689,1,0,0,0,11,11,33,1,33,first,,,,,,,,,,,,,,,,,,,,,,,,,,,,,,,,,,,,,,,,,,,,,,,,,,,,,,,,,,,,,,,,,,,,,,,,
,,,,,,5f4139a5fb4ebc2ad33cb71d,62c538c1c1c9a7c5e0129e84,2022-07-06_09h30.13.263,Colour_Asymmetry_Pilot,2022.1.3,Win32,60.05645307,62c50e9c1127f2cd403a315f,,,,,,,,,,,,,,,,,,,,twoone,,-3,1.1997,,,,,,,,,,,,,,,,,,,,,,,,,,,,,,,,,,"[-0.9688,-0.38039999999999996,-0.41979999999999995]","[-0.30200000000000005,0.14500000000000002,0.2784]",-74.39996338,24.79998779,1,0,0,response7disk,-8.799987793,5.600006104,1,0,0,rectangle,-8.799987793,5.600006104,1,0,0,3,3,0.0066,0,-8.799987793,5.600006104,1,0,0,0,12,12,12,1,12,first,,,,,,,,,,,,,,,,,,,,,,,,,,,,,,,,,,,,,,,,,,,,,,,,,,,,,,,,,,,,,,,,,,,,,,,,
,,,,,,5f4139a5fb4ebc2ad33cb71d,62c538c1c1c9a7c5e0129e84,2022-07-06_09h30.13.263,Colour_Asymmetry_Pilot,2022.1.3,Win32,60.05645307,62c50e9c1127f2cd403a315f,,,,,,,,,,,,,,,,,,,,onethree,,-3,1.1665,,,,,,,,,,,,,,,,,,,,,,,,,,,,,,,,,,"[0.9213999999999998,0.6391999999999998,-0.9922]","[0.2784,-0.31000000000000005,-0.5452]",-66.39996338,51.19998169,1,0,0,response7disk,-5.599975586,0,1,0,0,rectangle,-5.599975586,0,1,0,0,3,1,0.0029,0,-5.599975586,0,1,0,0,0,13,13,144,1,63,second,,,,,,,,,,,,,,,,,,,,,,,,,,,,,,,,,,,,,,,,,,,,,,,,,,,,,,,,,,,,,,,,,,,,,,,,
,,,,,,5f4139a5fb4ebc2ad33cb71d,62c538c1c1c9a7c5e0129e84,2022-07-06_09h30.13.263,Colour_Asymmetry_Pilot,2022.1.3,Win32,60.05645307,62c50e9c1127f2cd403a315f,,,,,,,,,,,,,,,,,,,,fourthree,,-3,0.6346,,,,,,,,,,,,,,,,,,,,,,,,,,,,,,,,,,"[-0.2942,-0.24719999999999998,-0.357]","[-0.2942,-0.7648,-0.7492000000000001]",-86.39996338,56,1,0,0,response7disk,-12.79998779,7.199981689,1,0,0,rectangle,-12.79998779,7.199981689,1,0,0,3,3,0.0034,0,-12.79998779,7.199981689,1,0,0,0,14,14,72,1,72,first,,,,,,,,,,,,,,,,,,,,,,,,,,,,,,,,,,,,,,,,,,,,,,,,,,,,,,,,,,,,,,,,,,,,,,,,
