trials.thisRepN,trials.thisTrialN,trials.thisN,trials.thisIndex,trials.ran,Colourcodes,participant,session,date,expName,psychopyVersion,OS,frameRate,study_id,trials_4.thisRepN,trials_4.thisTrialN,trials_4.thisN,trials_4.thisIndex,trials_4.ran,StimulusPos,key_resp.keys,key_resp.rt,key_resp_2.keys,key_resp_2.rt,key_resp_15.keys,key_resp_15.rt,key_resp_17.keys,key_resp_17.rt,key_resp_9.keys,key_resp_9.rt,key_resp_10.keys,key_resp_10.rt,Circle1_col,Ecc,Circle2_col,similarity,response_time,mouse_5.x,mouse_5.y,mouse_5.leftButton,mouse_5.midButton,mouse_5.rightButton,mouse_5.clicked_name,mouse_10.x,mouse_10.y,mouse_10.leftButton,mouse_10.midButton,mouse_10.rightButton,mouse_10.clicked_name,mouse_7.x,mouse_7.y,mouse_7.leftButton,mouse_7.midButton,mouse_7.rightButton,catchnumberprac,mouse_6.x,mouse_6.y,mouse_6.leftButton,mouse_6.midButton,mouse_6.rightButton,duringprac.thisRepN,duringprac.thisTrialN,duringprac.thisN,duringprac.thisIndex,duringprac.ran,mouse_7.clicked_name,catchprac,mouse_6.clicked_name,key_resp_22.keys,key_resp_22.rt,Circle1_colour,Circle2_colour,mouse.x,mouse.y,mouse.leftButton,mouse.midButton,mouse.rightButton,mouse.clicked_name,mouse_2.x,mouse_2.y,mouse_2.leftButton,mouse_2.midButton,mouse_2.rightButton,mouse_2.clicked_name,mouse_3.x,mouse_3.y,mouse_3.leftButton,mouse_3.midButton,mouse_3.rightButton,catchresponse,catchnumber,response_time_catch,Catch,mouse_11.x,mouse_11.y,mouse_11.leftButton,mouse_11.midButton,mouse_11.rightButton,trials_2.thisRepN,trials_2.thisTrialN,trials_2.thisN,trials_2.thisIndex,trials_2.ran,Colourpair,Temporder,mouse_3.clicked_name,mouse_11.clicked_name,trials_3.thisRepN,trials_3.thisTrialN,trials_3.thisN,trials_3.thisIndex,trials_3.ran,key_resp_instr_Ishi.keys,key_resp_instr_Ishi.rt,Ishi_trial_keyresp.keys,Ishi_textbox.text,Ishi_mouse.x,Ishi_mouse.y,Ishi_mouse.leftButton,Ishi_mouse.midButton,Ishi_mouse.rightButton,Ishi_mouse.clicked_name,Ishi_loop.thisRepN,Ishi_loop.thisTrialN,Ishi_loop.thisN,Ishi_loop.thisIndex,Ishi_loop.ran,imageaddress,textbox.text,mouse_4.x,mouse_4.y,mouse_4.leftButton,mouse_4.midButton,mouse_4.rightButton,mouse_4.clicked_name,textbox_2.text,mouse_8.x,mouse_8.y,mouse_8.leftButton,mouse_8.midButton,mouse_8.rightButton,mouse_8.clicked_name,textbox_3.text,mouse_9.x,mouse_9.y,mouse_9.leftButton,mouse_9.midButton,mouse_9.rightButton,mouse_9.clicked_name,textbox_4.text,mouse_12.x,mouse_12.y,mouse_12.leftButton,mouse_12.midButton,mouse_12.rightButton,mouse_12.clicked_name,textbox_5.text,mouse_13.x,mouse_13.y,mouse_13.leftButton,mouse_13.midButton,mouse_13.rightButton,mouse_13.clicked_name,textbox_6.text,mouse_14.x,mouse_14.y,mouse_14.leftButton,mouse_14.midButton,mouse_14.rightButton,mouse_14.clicked_name,textbox_7.text,mouse_15.x,mouse_15.y,mouse_15.leftButton,mouse_15.midButton,mouse_15.rightButton,mouse_15.clicked_name
0,0,0,68,1,,5f5fb8b24fa1c805957b037b,62c539fb536cb3d3e32aaec1,2022-07-06_09h30.32.556,Colour_Asymmetry_Pilot,2022.1.3,MacIntel,58.82352941,62c50e9c1127f2cd403a315f,,,,,,,,,,,,,,,,,,,,,,,,,,,,,,,,,,,,,,,,,,,,,,,,,,,,,,,,,,,,,,,,,,,,,,,,,,,,,,,,,,,,,,,,,,,,,,,,,,,,,,,,,,,,,,,,,,,,,,,,,,,,,,,,,,,,,,,,,,,,,,,,,,,,,,,,,,,,,,,,,,,
0,1,1,74,1,,5f5fb8b24fa1c805957b037b,62c539fb536cb3d3e32aaec1,2022-07-06_09h30.32.556,Colour_Asymmetry_Pilot,2022.1.3,MacIntel,58.82352941,62c50e9c1127f2cd403a315f,,,,,,,,,,,,,,,,,,,,,,,,,,,,,,,,,,,,,,,,,,,,,,,,,,,,,,,,,,,,,,,,,,,,,,,,,,,,,,,,,,,,,,,,,,,,,,,,,,,,,,,,,,,,,,,,,,,,,,,,,,,,,,,,,,,,,,,,,,,,,,,,,,,,,,,,,,,,,,,,,,,
0,2,2,69,1,,5f5fb8b24fa1c805957b037b,62c539fb536cb3d3e32aaec1,2022-07-06_09h30.32.556,Colour_Asymmetry_Pilot,2022.1.3,MacIntel,58.82352941,62c50e9c1127f2cd403a315f,,,,,,,,,,,,,,,,,,,,,,,,,,,,,,,,,,,,,,,,,,,,,,,,,,,,,,,,,,,,,,,,,,,,,,,,,,,,,,,,,,,,,,,,,,,,,,,,,,,,,,,,,,,,,,,,,,,,,,,,,,,,,,,,,,,,,,,,,,,,,,,,,,,,,,,,,,,,,,,,,,,
0,3,3,72,1,,5f5fb8b24fa1c805957b037b,62c539fb536cb3d3e32aaec1,2022-07-06_09h30.32.556,Colour_Asymmetry_Pilot,2022.1.3,MacIntel,58.82352941,62c50e9c1127f2cd403a315f,,,,,,,,,,,,,,,,,,,,,,,,,,,,,,,,,,,,,,,,,,,,,,,,,,,,,,,,,,,,,,,,,,,,,,,,,,,,,,,,,,,,,,,,,,,,,,,,,,,,,,,,,,,,,,,,,,,,,,,,,,,,,,,,,,,,,,,,,,,,,,,,,,,,,,,,,,,,,,,,,,,
0,4,4,33,1,,5f5fb8b24fa1c805957b037b,62c539fb536cb3d3e32aaec1,2022-07-06_09h30.32.556,Colour_Asymmetry_Pilot,2022.1.3,MacIntel,58.82352941,62c50e9c1127f2cd403a315f,,,,,,,,,,,,,,,,,,,,,,,,,,,,,,,,,,,,,,,,,,,,,,,,,,,,,,,,,,,,,,,,,,,,,,,,,,,,,,,,,,,,,,,,,,,,,,,,,,,,,,,,,,,,,,,,,,,,,,,,,,,,,,,,,,,,,,,,,,,,,,,,,,,,,,,,,,,,,,,,,,,
0,5,5,23,1,,5f5fb8b24fa1c805957b037b,62c539fb536cb3d3e32aaec1,2022-07-06_09h30.32.556,Colour_Asymmetry_Pilot,2022.1.3,MacIntel,58.82352941,62c50e9c1127f2cd403a315f,,,,,,,,,,,,,,,,,,,,,,,,,,,,,,,,,,,,,,,,,,,,,,,,,,,,,,,,,,,,,,,,,,,,,,,,,,,,,,,,,,,,,,,,,,,,,,,,,,,,,,,,,,,,,,,,,,,,,,,,,,,,,,,,,,,,,,,,,,,,,,,,,,,,,,,,,,,,,,,,,,,
0,6,6,26,1,,5f5fb8b24fa1c805957b037b,62c539fb536cb3d3e32aaec1,2022-07-06_09h30.32.556,Colour_Asymmetry_Pilot,2022.1.3,MacIntel,58.82352941,62c50e9c1127f2cd403a315f,,,,,,,,,,,,,,,,,,,,,,,,,,,,,,,,,,,,,,,,,,,,,,,,,,,,,,,,,,,,,,,,,,,,,,,,,,,,,,,,,,,,,,,,,,,,,,,,,,,,,,,,,,,,,,,,,,,,,,,,,,,,,,,,,,,,,,,,,,,,,,,,,,,,,,,,,,,,,,,,,,,
0,7,7,85,1,,5f5fb8b24fa1c805957b037b,62c539fb536cb3d3e32aaec1,2022-07-06_09h30.32.556,Colour_Asymmetry_Pilot,2022.1.3,MacIntel,58.82352941,62c50e9c1127f2cd403a315f,,,,,,,,,,,,,,,,,,,,,,,,,,,,,,,,,,,,,,,,,,,,,,,,,,,,,,,,,,,,,,,,,,,,,,,,,,,,,,,,,,,,,,,,,,,,,,,,,,,,,,,,,,,,,,,,,,,,,,,,,,,,,,,,,,,,,,,,,,,,,,,,,,,,,,,,,,,,,,,,,,,
0,8,8,31,1,,5f5fb8b24fa1c805957b037b,62c539fb536cb3d3e32aaec1,2022-07-06_09h30.32.556,Colour_Asymmetry_Pilot,2022.1.3,MacIntel,58.82352941,62c50e9c1127f2cd403a315f,,,,,,,,,,,,,,,,,,,,,,,,,,,,,,,,,,,,,,,,,,,,,,,,,,,,,,,,,,,,,,,,,,,,,,,,,,,,,,,,,,,,,,,,,,,,,,,,,,,,,,,,,,,,,,,,,,,,,,,,,,,,,,,,,,,,,,,,,,,,,,,,,,,,,,,,,,,,,,,,,,,
0,9,9,71,1,,5f5fb8b24fa1c805957b037b,62c539fb536cb3d3e32aaec1,2022-07-06_09h30.32.556,Colour_Asymmetry_Pilot,2022.1.3,MacIntel,58.82352941,62c50e9c1127f2cd403a315f,,,,,,,,,,,,,,,,,,,,,,,,,,,,,,,,,,,,,,,,,,,,,,,,,,,,,,,,,,,,,,,,,,,,,,,,,,,,,,,,,,,,,,,,,,,,,,,,,,,,,,,,,,,,,,,,,,,,,,,,,,,,,,,,,,,,,,,,,,,,,,,,,,,,,,,,,,,,,,,,,,,
0,10,10,22,1,,5f5fb8b24fa1c805957b037b,62c539fb536cb3d3e32aaec1,2022-07-06_09h30.32.556,Colour_Asymmetry_Pilot,2022.1.3,MacIntel,58.82352941,62c50e9c1127f2cd403a315f,,,,,,,,,,,,,,,,,,,,,,,,,,,,,,,,,,,,,,,,,,,,,,,,,,,,,,,,,,,,,,,,,,,,,,,,,,,,,,,,,,,,,,,,,,,,,,,,,,,,,,,,,,,,,,,,,,,,,,,,,,,,,,,,,,,,,,,,,,,,,,,,,,,,,,,,,,,,,,,,,,,
0,11,11,63,1,,5f5fb8b24fa1c805957b037b,62c539fb536cb3d3e32aaec1,2022-07-06_09h30.32.556,Colour_Asymmetry_Pilot,2022.1.3,MacIntel,58.82352941,62c50e9c1127f2cd403a315f,,,,,,,,,,,,,,,,,,,,,,,,,,,,,,,,,,,,,,,,,,,,,,,,,,,,,,,,,,,,,,,,,,,,,,,,,,,,,,,,,,,,,,,,,,,,,,,,,,,,,,,,,,,,,,,,,,,,,,,,,,,,,,,,,,,,,,,,,,,,,,,,,,,,,,,,,,,,,,,,,,,
0,12,12,88,1,,5f5fb8b24fa1c805957b037b,62c539fb536cb3d3e32aaec1,2022-07-06_09h30.32.556,Colour_Asymmetry_Pilot,2022.1.3,MacIntel,58.82352941,62c50e9c1127f2cd403a315f,,,,,,,,,,,,,,,,,,,,,,,,,,,,,,,,,,,,,,,,,,,,,,,,,,,,,,,,,,,,,,,,,,,,,,,,,,,,,,,,,,,,,,,,,,,,,,,,,,,,,,,,,,,,,,,,,,,,,,,,,,,,,,,,,,,,,,,,,,,,,,,,,,,,,,,,,,,,,,,,,,,
0,13,13,18,1,,5f5fb8b24fa1c805957b037b,62c539fb536cb3d3e32aaec1,2022-07-06_09h30.32.556,Colour_Asymmetry_Pilot,2022.1.3,MacIntel,58.82352941,62c50e9c1127f2cd403a315f,,,,,,,,,,,,,,,,,,,,,,,,,,,,,,,,,,,,,,,,,,,,,,,,,,,,,,,,,,,,,,,,,,,,,,,,,,,,,,,,,,,,,,,,,,,,,,,,,,,,,,,,,,,,,,,,,,,,,,,,,,,,,,,,,,,,,,,,,,,,,,,,,,,,,,,,,,,,,,,,,,,
0,14,14,14,1,,5f5fb8b24fa1c805957b037b,62c539fb536cb3d3e32aaec1,2022-07-06_09h30.32.556,Colour_Asymmetry_Pilot,2022.1.3,MacIntel,58.82352941,62c50e9c1127f2cd403a315f,,,,,,,,,,,,,,,,,,,,,,,,,,,,,,,,,,,,,,,,,,,,,,,,,,,,,,,,,,,,,,,,,,,,,,,,,,,,,,,,,,,,,,,,,,,,,,,,,,,,,,,,,,,,,,,,,,,,,,,,,,,,,,,,,,,,,,,,,,,,,,,,,,,,,,,,,,,,,,,,,,,
0,15,15,17,1,,5f5fb8b24fa1c805957b037b,62c539fb536cb3d3e32aaec1,2022-07-06_09h30.32.556,Colour_Asymmetry_Pilot,2022.1.3,MacIntel,58.82352941,62c50e9c1127f2cd403a315f,,,,,,,,,,,,,,,,,,,,,,,,,,,,,,,,,,,,,,,,,,,,,,,,,,,,,,,,,,,,,,,,,,,,,,,,,,,,,,,,,,,,,,,,,,,,,,,,,,,,,,,,,,,,,,,,,,,,,,,,,,,,,,,,,,,,,,,,,,,,,,,,,,,,,,,,,,,,,,,,,,,
0,16,16,40,1,,5f5fb8b24fa1c805957b037b,62c539fb536cb3d3e32aaec1,2022-07-06_09h30.32.556,Colour_Asymmetry_Pilot,2022.1.3,MacIntel,58.82352941,62c50e9c1127f2cd403a315f,,,,,,,,,,,,,,,,,,,,,,,,,,,,,,,,,,,,,,,,,,,,,,,,,,,,,,,,,,,,,,,,,,,,,,,,,,,,,,,,,,,,,,,,,,,,,,,,,,,,,,,,,,,,,,,,,,,,,,,,,,,,,,,,,,,,,,,,,,,,,,,,,,,,,,,,,,,,,,,,,,,
0,17,17,11,1,,5f5fb8b24fa1c805957b037b,62c539fb536cb3d3e32aaec1,2022-07-06_09h30.32.556,Colour_Asymmetry_Pilot,2022.1.3,MacIntel,58.82352941,62c50e9c1127f2cd403a315f,,,,,,,,,,,,,,,,,,,,,,,,,,,,,,,,,,,,,,,,,,,,,,,,,,,,,,,,,,,,,,,,,,,,,,,,,,,,,,,,,,,,,,,,,,,,,,,,,,,,,,,,,,,,,,,,,,,,,,,,,,,,,,,,,,,,,,,,,,,,,,,,,,,,,,,,,,,,,,,,,,,
0,18,18,56,1,,5f5fb8b24fa1c805957b037b,62c539fb536cb3d3e32aaec1,2022-07-06_09h30.32.556,Colour_Asymmetry_Pilot,2022.1.3,MacIntel,58.82352941,62c50e9c1127f2cd403a315f,,,,,,,,,,,,,,,,,,,,,,,,,,,,,,,,,,,,,,,,,,,,,,,,,,,,,,,,,,,,,,,,,,,,,,,,,,,,,,,,,,,,,,,,,,,,,,,,,,,,,,,,,,,,,,,,,,,,,,,,,,,,,,,,,,,,,,,,,,,,,,,,,,,,,,,,,,,,,,,,,,,
0,19,19,60,1,,5f5fb8b24fa1c805957b037b,62c539fb536cb3d3e32aaec1,2022-07-06_09h30.32.556,Colour_Asymmetry_Pilot,2022.1.3,MacIntel,58.82352941,62c50e9c1127f2cd403a315f,,,,,,,,,,,,,,,,,,,,,,,,,,,,,,,,,,,,,,,,,,,,,,,,,,,,,,,,,,,,,,,,,,,,,,,,,,,,,,,,,,,,,,,,,,,,,,,,,,,,,,,,,,,,,,,,,,,,,,,,,,,,,,,,,,,,,,,,,,,,,,,,,,,,,,,,,,,,,,,,,,,
0,20,20,55,1,,5f5fb8b24fa1c805957b037b,62c539fb536cb3d3e32aaec1,2022-07-06_09h30.32.556,Colour_Asymmetry_Pilot,2022.1.3,MacIntel,58.82352941,62c50e9c1127f2cd403a315f,,,,,,,,,,,,,,,,,,,,,,,,,,,,,,,,,,,,,,,,,,,,,,,,,,,,,,,,,,,,,,,,,,,,,,,,,,,,,,,,,,,,,,,,,,,,,,,,,,,,,,,,,,,,,,,,,,,,,,,,,,,,,,,,,,,,,,,,,,,,,,,,,,,,,,,,,,,,,,,,,,,
0,21,21,79,1,,5f5fb8b24fa1c805957b037b,62c539fb536cb3d3e32aaec1,2022-07-06_09h30.32.556,Colour_Asymmetry_Pilot,2022.1.3,MacIntel,58.82352941,62c50e9c1127f2cd403a315f,,,,,,,,,,,,,,,,,,,,,,,,,,,,,,,,,,,,,,,,,,,,,,,,,,,,,,,,,,,,,,,,,,,,,,,,,,,,,,,,,,,,,,,,,,,,,,,,,,,,,,,,,,,,,,,,,,,,,,,,,,,,,,,,,,,,,,,,,,,,,,,,,,,,,,,,,,,,,,,,,,,
0,22,22,20,1,,5f5fb8b24fa1c805957b037b,62c539fb536cb3d3e32aaec1,2022-07-06_09h30.32.556,Colour_Asymmetry_Pilot,2022.1.3,MacIntel,58.82352941,62c50e9c1127f2cd403a315f,,,,,,,,,,,,,,,,,,,,,,,,,,,,,,,,,,,,,,,,,,,,,,,,,,,,,,,,,,,,,,,,,,,,,,,,,,,,,,,,,,,,,,,,,,,,,,,,,,,,,,,,,,,,,,,,,,,,,,,,,,,,,,,,,,,,,,,,,,,,,,,,,,,,,,,,,,,,,,,,,,,
0,23,23,48,1,,5f5fb8b24fa1c805957b037b,62c539fb536cb3d3e32aaec1,2022-07-06_09h30.32.556,Colour_Asymmetry_Pilot,2022.1.3,MacIntel,58.82352941,62c50e9c1127f2cd403a315f,,,,,,,,,,,,,,,,,,,,,,,,,,,,,,,,,,,,,,,,,,,,,,,,,,,,,,,,,,,,,,,,,,,,,,,,,,,,,,,,,,,,,,,,,,,,,,,,,,,,,,,,,,,,,,,,,,,,,,,,,,,,,,,,,,,,,,,,,,,,,,,,,,,,,,,,,,,,,,,,,,,
0,24,24,77,1,,5f5fb8b24fa1c805957b037b,62c539fb536cb3d3e32aaec1,2022-07-06_09h30.32.556,Colour_Asymmetry_Pilot,2022.1.3,MacIntel,58.82352941,62c50e9c1127f2cd403a315f,,,,,,,,,,,,,,,,,,,,,,,,,,,,,,,,,,,,,,,,,,,,,,,,,,,,,,,,,,,,,,,,,,,,,,,,,,,,,,,,,,,,,,,,,,,,,,,,,,,,,,,,,,,,,,,,,,,,,,,,,,,,,,,,,,,,,,,,,,,,,,,,,,,,,,,,,,,,,,,,,,,
0,25,25,3,1,,5f5fb8b24fa1c805957b037b,62c539fb536cb3d3e32aaec1,2022-07-06_09h30.32.556,Colour_Asymmetry_Pilot,2022.1.3,MacIntel,58.82352941,62c50e9c1127f2cd403a315f,,,,,,,,,,,,,,,,,,,,,,,,,,,,,,,,,,,,,,,,,,,,,,,,,,,,,,,,,,,,,,,,,,,,,,,,,,,,,,,,,,,,,,,,,,,,,,,,,,,,,,,,,,,,,,,,,,,,,,,,,,,,,,,,,,,,,,,,,,,,,,,,,,,,,,,,,,,,,,,,,,,
0,26,26,83,1,,5f5fb8b24fa1c805957b037b,62c539fb536cb3d3e32aaec1,2022-07-06_09h30.32.556,Colour_Asymmetry_Pilot,2022.1.3,MacIntel,58.82352941,62c50e9c1127f2cd403a315f,,,,,,,,,,,,,,,,,,,,,,,,,,,,,,,,,,,,,,,,,,,,,,,,,,,,,,,,,,,,,,,,,,,,,,,,,,,,,,,,,,,,,,,,,,,,,,,,,,,,,,,,,,,,,,,,,,,,,,,,,,,,,,,,,,,,,,,,,,,,,,,,,,,,,,,,,,,,,,,,,,,
0,27,27,54,1,,5f5fb8b24fa1c805957b037b,62c539fb536cb3d3e32aaec1,2022-07-06_09h30.32.556,Colour_Asymmetry_Pilot,2022.1.3,MacIntel,58.82352941,62c50e9c1127f2cd403a315f,,,,,,,,,,,,,,,,,,,,,,,,,,,,,,,,,,,,,,,,,,,,,,,,,,,,,,,,,,,,,,,,,,,,,,,,,,,,,,,,,,,,,,,,,,,,,,,,,,,,,,,,,,,,,,,,,,,,,,,,,,,,,,,,,,,,,,,,,,,,,,,,,,,,,,,,,,,,,,,,,,,
0,28,28,1,1,,5f5fb8b24fa1c805957b037b,62c539fb536cb3d3e32aaec1,2022-07-06_09h30.32.556,Colour_Asymmetry_Pilot,2022.1.3,MacIntel,58.82352941,62c50e9c1127f2cd403a315f,,,,,,,,,,,,,,,,,,,,,,,,,,,,,,,,,,,,,,,,,,,,,,,,,,,,,,,,,,,,,,,,,,,,,,,,,,,,,,,,,,,,,,,,,,,,,,,,,,,,,,,,,,,,,,,,,,,,,,,,,,,,,,,,,,,,,,,,,,,,,,,,,,,,,,,,,,,,,,,,,,,
0,29,29,78,1,,5f5fb8b24fa1c805957b037b,62c539fb536cb3d3e32aaec1,2022-07-06_09h30.32.556,Colour_Asymmetry_Pilot,2022.1.3,MacIntel,58.82352941,62c50e9c1127f2cd403a315f,,,,,,,,,,,,,,,,,,,,,,,,,,,,,,,,,,,,,,,,,,,,,,,,,,,,,,,,,,,,,,,,,,,,,,,,,,,,,,,,,,,,,,,,,,,,,,,,,,,,,,,,,,,,,,,,,,,,,,,,,,,,,,,,,,,,,,,,,,,,,,,,,,,,,,,,,,,,,,,,,,,
0,30,30,2,1,,5f5fb8b24fa1c805957b037b,62c539fb536cb3d3e32aaec1,2022-07-06_09h30.32.556,Colour_Asymmetry_Pilot,2022.1.3,MacIntel,58.82352941,62c50e9c1127f2cd403a315f,,,,,,,,,,,,,,,,,,,,,,,,,,,,,,,,,,,,,,,,,,,,,,,,,,,,,,,,,,,,,,,,,,,,,,,,,,,,,,,,,,,,,,,,,,,,,,,,,,,,,,,,,,,,,,,,,,,,,,,,,,,,,,,,,,,,,,,,,,,,,,,,,,,,,,,,,,,,,,,,,,,
0,31,31,58,1,,5f5fb8b24fa1c805957b037b,62c539fb536cb3d3e32aaec1,2022-07-06_09h30.32.556,Colour_Asymmetry_Pilot,2022.1.3,MacIntel,58.82352941,62c50e9c1127f2cd403a315f,,,,,,,,,,,,,,,,,,,,,,,,,,,,,,,,,,,,,,,,,,,,,,,,,,,,,,,,,,,,,,,,,,,,,,,,,,,,,,,,,,,,,,,,,,,,,,,,,,,,,,,,,,,,,,,,,,,,,,,,,,,,,,,,,,,,,,,,,,,,,,,,,,,,,,,,,,,,,,,,,,,
0,32,32,91,1,,5f5fb8b24fa1c805957b037b,62c539fb536cb3d3e32aaec1,2022-07-06_09h30.32.556,Colour_Asymmetry_Pilot,2022.1.3,MacIntel,58.82352941,62c50e9c1127f2cd403a315f,,,,,,,,,,,,,,,,,,,,,,,,,,,,,,,,,,,,,,,,,,,,,,,,,,,,,,,,,,,,,,,,,,,,,,,,,,,,,,,,,,,,,,,,,,,,,,,,,,,,,,,,,,,,,,,,,,,,,,,,,,,,,,,,,,,,,,,,,,,,,,,,,,,,,,,,,,,,,,,,,,,
0,33,33,44,1,,5f5fb8b24fa1c805957b037b,62c539fb536cb3d3e32aaec1,2022-07-06_09h30.32.556,Colour_Asymmetry_Pilot,2022.1.3,MacIntel,58.82352941,62c50e9c1127f2cd403a315f,,,,,,,,,,,,,,,,,,,,,,,,,,,,,,,,,,,,,,,,,,,,,,,,,,,,,,,,,,,,,,,,,,,,,,,,,,,,,,,,,,,,,,,,,,,,,,,,,,,,,,,,,,,,,,,,,,,,,,,,,,,,,,,,,,,,,,,,,,,,,,,,,,,,,,,,,,,,,,,,,,,
0,34,34,66,1,,5f5fb8b24fa1c805957b037b,62c539fb536cb3d3e32aaec1,2022-07-06_09h30.32.556,Colour_Asymmetry_Pilot,2022.1.3,MacIntel,58.82352941,62c50e9c1127f2cd403a315f,,,,,,,,,,,,,,,,,,,,,,,,,,,,,,,,,,,,,,,,,,,,,,,,,,,,,,,,,,,,,,,,,,,,,,,,,,,,,,,,,,,,,,,,,,,,,,,,,,,,,,,,,,,,,,,,,,,,,,,,,,,,,,,,,,,,,,,,,,,,,,,,,,,,,,,,,,,,,,,,,,,
0,35,35,32,1,,5f5fb8b24fa1c805957b037b,62c539fb536cb3d3e32aaec1,2022-07-06_09h30.32.556,Colour_Asymmetry_Pilot,2022.1.3,MacIntel,58.82352941,62c50e9c1127f2cd403a315f,,,,,,,,,,,,,,,,,,,,,,,,,,,,,,,,,,,,,,,,,,,,,,,,,,,,,,,,,,,,,,,,,,,,,,,,,,,,,,,,,,,,,,,,,,,,,,,,,,,,,,,,,,,,,,,,,,,,,,,,,,,,,,,,,,,,,,,,,,,,,,,,,,,,,,,,,,,,,,,,,,,
0,36,36,25,1,,5f5fb8b24fa1c805957b037b,62c539fb536cb3d3e32aaec1,2022-07-06_09h30.32.556,Colour_Asymmetry_Pilot,2022.1.3,MacIntel,58.82352941,62c50e9c1127f2cd403a315f,,,,,,,,,,,,,,,,,,,,,,,,,,,,,,,,,,,,,,,,,,,,,,,,,,,,,,,,,,,,,,,,,,,,,,,,,,,,,,,,,,,,,,,,,,,,,,,,,,,,,,,,,,,,,,,,,,,,,,,,,,,,,,,,,,,,,,,,,,,,,,,,,,,,,,,,,,,,,,,,,,,
0,37,37,62,1,,5f5fb8b24fa1c805957b037b,62c539fb536cb3d3e32aaec1,2022-07-06_09h30.32.556,Colour_Asymmetry_Pilot,2022.1.3,MacIntel,58.82352941,62c50e9c1127f2cd403a315f,,,,,,,,,,,,,,,,,,,,,,,,,,,,,,,,,,,,,,,,,,,,,,,,,,,,,,,,,,,,,,,,,,,,,,,,,,,,,,,,,,,,,,,,,,,,,,,,,,,,,,,,,,,,,,,,,,,,,,,,,,,,,,,,,,,,,,,,,,,,,,,,,,,,,,,,,,,,,,,,,,,
0,38,38,41,1,,5f5fb8b24fa1c805957b037b,62c539fb536cb3d3e32aaec1,2022-07-06_09h30.32.556,Colour_Asymmetry_Pilot,2022.1.3,MacIntel,58.82352941,62c50e9c1127f2cd403a315f,,,,,,,,,,,,,,,,,,,,,,,,,,,,,,,,,,,,,,,,,,,,,,,,,,,,,,,,,,,,,,,,,,,,,,,,,,,,,,,,,,,,,,,,,,,,,,,,,,,,,,,,,,,,,,,,,,,,,,,,,,,,,,,,,,,,,,,,,,,,,,,,,,,,,,,,,,,,,,,,,,,
0,39,39,47,1,,5f5fb8b24fa1c805957b037b,62c539fb536cb3d3e32aaec1,2022-07-06_09h30.32.556,Colour_Asymmetry_Pilot,2022.1.3,MacIntel,58.82352941,62c50e9c1127f2cd403a315f,,,,,,,,,,,,,,,,,,,,,,,,,,,,,,,,,,,,,,,,,,,,,,,,,,,,,,,,,,,,,,,,,,,,,,,,,,,,,,,,,,,,,,,,,,,,,,,,,,,,,,,,,,,,,,,,,,,,,,,,,,,,,,,,,,,,,,,,,,,,,,,,,,,,,,,,,,,,,,,,,,,
0,40,40,30,1,,5f5fb8b24fa1c805957b037b,62c539fb536cb3d3e32aaec1,2022-07-06_09h30.32.556,Colour_Asymmetry_Pilot,2022.1.3,MacIntel,58.82352941,62c50e9c1127f2cd403a315f,,,,,,,,,,,,,,,,,,,,,,,,,,,,,,,,,,,,,,,,,,,,,,,,,,,,,,,,,,,,,,,,,,,,,,,,,,,,,,,,,,,,,,,,,,,,,,,,,,,,,,,,,,,,,,,,,,,,,,,,,,,,,,,,,,,,,,,,,,,,,,,,,,,,,,,,,,,,,,,,,,,
0,41,41,51,1,,5f5fb8b24fa1c805957b037b,62c539fb536cb3d3e32aaec1,2022-07-06_09h30.32.556,Colour_Asymmetry_Pilot,2022.1.3,MacIntel,58.82352941,62c50e9c1127f2cd403a315f,,,,,,,,,,,,,,,,,,,,,,,,,,,,,,,,,,,,,,,,,,,,,,,,,,,,,,,,,,,,,,,,,,,,,,,,,,,,,,,,,,,,,,,,,,,,,,,,,,,,,,,,,,,,,,,,,,,,,,,,,,,,,,,,,,,,,,,,,,,,,,,,,,,,,,,,,,,,,,,,,,,
0,42,42,64,1,,5f5fb8b24fa1c805957b037b,62c539fb536cb3d3e32aaec1,2022-07-06_09h30.32.556,Colour_Asymmetry_Pilot,2022.1.3,MacIntel,58.82352941,62c50e9c1127f2cd403a315f,,,,,,,,,,,,,,,,,,,,,,,,,,,,,,,,,,,,,,,,,,,,,,,,,,,,,,,,,,,,,,,,,,,,,,,,,,,,,,,,,,,,,,,,,,,,,,,,,,,,,,,,,,,,,,,,,,,,,,,,,,,,,,,,,,,,,,,,,,,,,,,,,,,,,,,,,,,,,,,,,,,
0,43,43,36,1,,5f5fb8b24fa1c805957b037b,62c539fb536cb3d3e32aaec1,2022-07-06_09h30.32.556,Colour_Asymmetry_Pilot,2022.1.3,MacIntel,58.82352941,62c50e9c1127f2cd403a315f,,,,,,,,,,,,,,,,,,,,,,,,,,,,,,,,,,,,,,,,,,,,,,,,,,,,,,,,,,,,,,,,,,,,,,,,,,,,,,,,,,,,,,,,,,,,,,,,,,,,,,,,,,,,,,,,,,,,,,,,,,,,,,,,,,,,,,,,,,,,,,,,,,,,,,,,,,,,,,,,,,,
0,44,44,34,1,,5f5fb8b24fa1c805957b037b,62c539fb536cb3d3e32aaec1,2022-07-06_09h30.32.556,Colour_Asymmetry_Pilot,2022.1.3,MacIntel,58.82352941,62c50e9c1127f2cd403a315f,,,,,,,,,,,,,,,,,,,,,,,,,,,,,,,,,,,,,,,,,,,,,,,,,,,,,,,,,,,,,,,,,,,,,,,,,,,,,,,,,,,,,,,,,,,,,,,,,,,,,,,,,,,,,,,,,,,,,,,,,,,,,,,,,,,,,,,,,,,,,,,,,,,,,,,,,,,,,,,,,,,
0,45,45,7,1,,5f5fb8b24fa1c805957b037b,62c539fb536cb3d3e32aaec1,2022-07-06_09h30.32.556,Colour_Asymmetry_Pilot,2022.1.3,MacIntel,58.82352941,62c50e9c1127f2cd403a315f,,,,,,,,,,,,,,,,,,,,,,,,,,,,,,,,,,,,,,,,,,,,,,,,,,,,,,,,,,,,,,,,,,,,,,,,,,,,,,,,,,,,,,,,,,,,,,,,,,,,,,,,,,,,,,,,,,,,,,,,,,,,,,,,,,,,,,,,,,,,,,,,,,,,,,,,,,,,,,,,,,,
0,46,46,84,1,,5f5fb8b24fa1c805957b037b,62c539fb536cb3d3e32aaec1,2022-07-06_09h30.32.556,Colour_Asymmetry_Pilot,2022.1.3,MacIntel,58.82352941,62c50e9c1127f2cd403a315f,,,,,,,,,,,,,,,,,,,,,,,,,,,,,,,,,,,,,,,,,,,,,,,,,,,,,,,,,,,,,,,,,,,,,,,,,,,,,,,,,,,,,,,,,,,,,,,,,,,,,,,,,,,,,,,,,,,,,,,,,,,,,,,,,,,,,,,,,,,,,,,,,,,,,,,,,,,,,,,,,,,
0,47,47,76,1,,5f5fb8b24fa1c805957b037b,62c539fb536cb3d3e32aaec1,2022-07-06_09h30.32.556,Colour_Asymmetry_Pilot,2022.1.3,MacIntel,58.82352941,62c50e9c1127f2cd403a315f,,,,,,,,,,,,,,,,,,,,,,,,,,,,,,,,,,,,,,,,,,,,,,,,,,,,,,,,,,,,,,,,,,,,,,,,,,,,,,,,,,,,,,,,,,,,,,,,,,,,,,,,,,,,,,,,,,,,,,,,,,,,,,,,,,,,,,,,,,,,,,,,,,,,,,,,,,,,,,,,,,,
0,48,48,24,1,,5f5fb8b24fa1c805957b037b,62c539fb536cb3d3e32aaec1,2022-07-06_09h30.32.556,Colour_Asymmetry_Pilot,2022.1.3,MacIntel,58.82352941,62c50e9c1127f2cd403a315f,,,,,,,,,,,,,,,,,,,,,,,,,,,,,,,,,,,,,,,,,,,,,,,,,,,,,,,,,,,,,,,,,,,,,,,,,,,,,,,,,,,,,,,,,,,,,,,,,,,,,,,,,,,,,,,,,,,,,,,,,,,,,,,,,,,,,,,,,,,,,,,,,,,,,,,,,,,,,,,,,,,
0,49,49,15,1,,5f5fb8b24fa1c805957b037b,62c539fb536cb3d3e32aaec1,2022-07-06_09h30.32.556,Colour_Asymmetry_Pilot,2022.1.3,MacIntel,58.82352941,62c50e9c1127f2cd403a315f,,,,,,,,,,,,,,,,,,,,,,,,,,,,,,,,,,,,,,,,,,,,,,,,,,,,,,,,,,,,,,,,,,,,,,,,,,,,,,,,,,,,,,,,,,,,,,,,,,,,,,,,,,,,,,,,,,,,,,,,,,,,,,,,,,,,,,,,,,,,,,,,,,,,,,,,,,,,,,,,,,,
0,50,50,81,1,,5f5fb8b24fa1c805957b037b,62c539fb536cb3d3e32aaec1,2022-07-06_09h30.32.556,Colour_Asymmetry_Pilot,2022.1.3,MacIntel,58.82352941,62c50e9c1127f2cd403a315f,,,,,,,,,,,,,,,,,,,,,,,,,,,,,,,,,,,,,,,,,,,,,,,,,,,,,,,,,,,,,,,,,,,,,,,,,,,,,,,,,,,,,,,,,,,,,,,,,,,,,,,,,,,,,,,,,,,,,,,,,,,,,,,,,,,,,,,,,,,,,,,,,,,,,,,,,,,,,,,,,,,
0,51,51,13,1,,5f5fb8b24fa1c805957b037b,62c539fb536cb3d3e32aaec1,2022-07-06_09h30.32.556,Colour_Asymmetry_Pilot,2022.1.3,MacIntel,58.82352941,62c50e9c1127f2cd403a315f,,,,,,,,,,,,,,,,,,,,,,,,,,,,,,,,,,,,,,,,,,,,,,,,,,,,,,,,,,,,,,,,,,,,,,,,,,,,,,,,,,,,,,,,,,,,,,,,,,,,,,,,,,,,,,,,,,,,,,,,,,,,,,,,,,,,,,,,,,,,,,,,,,,,,,,,,,,,,,,,,,,
0,52,52,28,1,,5f5fb8b24fa1c805957b037b,62c539fb536cb3d3e32aaec1,2022-07-06_09h30.32.556,Colour_Asymmetry_Pilot,2022.1.3,MacIntel,58.82352941,62c50e9c1127f2cd403a315f,,,,,,,,,,,,,,,,,,,,,,,,,,,,,,,,,,,,,,,,,,,,,,,,,,,,,,,,,,,,,,,,,,,,,,,,,,,,,,,,,,,,,,,,,,,,,,,,,,,,,,,,,,,,,,,,,,,,,,,,,,,,,,,,,,,,,,,,,,,,,,,,,,,,,,,,,,,,,,,,,,,
0,53,53,90,1,,5f5fb8b24fa1c805957b037b,62c539fb536cb3d3e32aaec1,2022-07-06_09h30.32.556,Colour_Asymmetry_Pilot,2022.1.3,MacIntel,58.82352941,62c50e9c1127f2cd403a315f,,,,,,,,,,,,,,,,,,,,,,,,,,,,,,,,,,,,,,,,,,,,,,,,,,,,,,,,,,,,,,,,,,,,,,,,,,,,,,,,,,,,,,,,,,,,,,,,,,,,,,,,,,,,,,,,,,,,,,,,,,,,,,,,,,,,,,,,,,,,,,,,,,,,,,,,,,,,,,,,,,,
0,54,54,29,1,,5f5fb8b24fa1c805957b037b,62c539fb536cb3d3e32aaec1,2022-07-06_09h30.32.556,Colour_Asymmetry_Pilot,2022.1.3,MacIntel,58.82352941,62c50e9c1127f2cd403a315f,,,,,,,,,,,,,,,,,,,,,,,,,,,,,,,,,,,,,,,,,,,,,,,,,,,,,,,,,,,,,,,,,,,,,,,,,,,,,,,,,,,,,,,,,,,,,,,,,,,,,,,,,,,,,,,,,,,,,,,,,,,,,,,,,,,,,,,,,,,,,,,,,,,,,,,,,,,,,,,,,,,
0,55,55,92,1,,5f5fb8b24fa1c805957b037b,62c539fb536cb3d3e32aaec1,2022-07-06_09h30.32.556,Colour_Asymmetry_Pilot,2022.1.3,MacIntel,58.82352941,62c50e9c1127f2cd403a315f,,,,,,,,,,,,,,,,,,,,,,,,,,,,,,,,,,,,,,,,,,,,,,,,,,,,,,,,,,,,,,,,,,,,,,,,,,,,,,,,,,,,,,,,,,,,,,,,,,,,,,,,,,,,,,,,,,,,,,,,,,,,,,,,,,,,,,,,,,,,,,,,,,,,,,,,,,,,,,,,,,,
0,56,56,0,1,,5f5fb8b24fa1c805957b037b,62c539fb536cb3d3e32aaec1,2022-07-06_09h30.32.556,Colour_Asymmetry_Pilot,2022.1.3,MacIntel,58.82352941,62c50e9c1127f2cd403a315f,,,,,,,,,,,,,,,,,,,,,,,,,,,,,,,,,,,,,,,,,,,,,,,,,,,,,,,,,,,,,,,,,,,,,,,,,,,,,,,,,,,,,,,,,,,,,,,,,,,,,,,,,,,,,,,,,,,,,,,,,,,,,,,,,,,,,,,,,,,,,,,,,,,,,,,,,,,,,,,,,,,
0,57,57,27,1,,5f5fb8b24fa1c805957b037b,62c539fb536cb3d3e32aaec1,2022-07-06_09h30.32.556,Colour_Asymmetry_Pilot,2022.1.3,MacIntel,58.82352941,62c50e9c1127f2cd403a315f,,,,,,,,,,,,,,,,,,,,,,,,,,,,,,,,,,,,,,,,,,,,,,,,,,,,,,,,,,,,,,,,,,,,,,,,,,,,,,,,,,,,,,,,,,,,,,,,,,,,,,,,,,,,,,,,,,,,,,,,,,,,,,,,,,,,,,,,,,,,,,,,,,,,,,,,,,,,,,,,,,,
0,58,58,8,1,,5f5fb8b24fa1c805957b037b,62c539fb536cb3d3e32aaec1,2022-07-06_09h30.32.556,Colour_Asymmetry_Pilot,2022.1.3,MacIntel,58.82352941,62c50e9c1127f2cd403a315f,,,,,,,,,,,,,,,,,,,,,,,,,,,,,,,,,,,,,,,,,,,,,,,,,,,,,,,,,,,,,,,,,,,,,,,,,,,,,,,,,,,,,,,,,,,,,,,,,,,,,,,,,,,,,,,,,,,,,,,,,,,,,,,,,,,,,,,,,,,,,,,,,,,,,,,,,,,,,,,,,,,
0,59,59,16,1,,5f5fb8b24fa1c805957b037b,62c539fb536cb3d3e32aaec1,2022-07-06_09h30.32.556,Colour_Asymmetry_Pilot,2022.1.3,MacIntel,58.82352941,62c50e9c1127f2cd403a315f,,,,,,,,,,,,,,,,,,,,,,,,,,,,,,,,,,,,,,,,,,,,,,,,,,,,,,,,,,,,,,,,,,,,,,,,,,,,,,,,,,,,,,,,,,,,,,,,,,,,,,,,,,,,,,,,,,,,,,,,,,,,,,,,,,,,,,,,,,,,,,,,,,,,,,,,,,,,,,,,,,,
0,60,60,75,1,,5f5fb8b24fa1c805957b037b,62c539fb536cb3d3e32aaec1,2022-07-06_09h30.32.556,Colour_Asymmetry_Pilot,2022.1.3,MacIntel,58.82352941,62c50e9c1127f2cd403a315f,,,,,,,,,,,,,,,,,,,,,,,,,,,,,,,,,,,,,,,,,,,,,,,,,,,,,,,,,,,,,,,,,,,,,,,,,,,,,,,,,,,,,,,,,,,,,,,,,,,,,,,,,,,,,,,,,,,,,,,,,,,,,,,,,,,,,,,,,,,,,,,,,,,,,,,,,,,,,,,,,,,
0,61,61,9,1,,5f5fb8b24fa1c805957b037b,62c539fb536cb3d3e32aaec1,2022-07-06_09h30.32.556,Colour_Asymmetry_Pilot,2022.1.3,MacIntel,58.82352941,62c50e9c1127f2cd403a315f,,,,,,,,,,,,,,,,,,,,,,,,,,,,,,,,,,,,,,,,,,,,,,,,,,,,,,,,,,,,,,,,,,,,,,,,,,,,,,,,,,,,,,,,,,,,,,,,,,,,,,,,,,,,,,,,,,,,,,,,,,,,,,,,,,,,,,,,,,,,,,,,,,,,,,,,,,,,,,,,,,,
0,62,62,89,1,,5f5fb8b24fa1c805957b037b,62c539fb536cb3d3e32aaec1,2022-07-06_09h30.32.556,Colour_Asymmetry_Pilot,2022.1.3,MacIntel,58.82352941,62c50e9c1127f2cd403a315f,,,,,,,,,,,,,,,,,,,,,,,,,,,,,,,,,,,,,,,,,,,,,,,,,,,,,,,,,,,,,,,,,,,,,,,,,,,,,,,,,,,,,,,,,,,,,,,,,,,,,,,,,,,,,,,,,,,,,,,,,,,,,,,,,,,,,,,,,,,,,,,,,,,,,,,,,,,,,,,,,,,
0,63,63,42,1,,5f5fb8b24fa1c805957b037b,62c539fb536cb3d3e32aaec1,2022-07-06_09h30.32.556,Colour_Asymmetry_Pilot,2022.1.3,MacIntel,58.82352941,62c50e9c1127f2cd403a315f,,,,,,,,,,,,,,,,,,,,,,,,,,,,,,,,,,,,,,,,,,,,,,,,,,,,,,,,,,,,,,,,,,,,,,,,,,,,,,,,,,,,,,,,,,,,,,,,,,,,,,,,,,,,,,,,,,,,,,,,,,,,,,,,,,,,,,,,,,,,,,,,,,,,,,,,,,,,,,,,,,,
0,64,64,6,1,,5f5fb8b24fa1c805957b037b,62c539fb536cb3d3e32aaec1,2022-07-06_09h30.32.556,Colour_Asymmetry_Pilot,2022.1.3,MacIntel,58.82352941,62c50e9c1127f2cd403a315f,,,,,,,,,,,,,,,,,,,,,,,,,,,,,,,,,,,,,,,,,,,,,,,,,,,,,,,,,,,,,,,,,,,,,,,,,,,,,,,,,,,,,,,,,,,,,,,,,,,,,,,,,,,,,,,,,,,,,,,,,,,,,,,,,,,,,,,,,,,,,,,,,,,,,,,,,,,,,,,,,,,
0,65,65,70,1,,5f5fb8b24fa1c805957b037b,62c539fb536cb3d3e32aaec1,2022-07-06_09h30.32.556,Colour_Asymmetry_Pilot,2022.1.3,MacIntel,58.82352941,62c50e9c1127f2cd403a315f,,,,,,,,,,,,,,,,,,,,,,,,,,,,,,,,,,,,,,,,,,,,,,,,,,,,,,,,,,,,,,,,,,,,,,,,,,,,,,,,,,,,,,,,,,,,,,,,,,,,,,,,,,,,,,,,,,,,,,,,,,,,,,,,,,,,,,,,,,,,,,,,,,,,,,,,,,,,,,,,,,,
0,66,66,80,1,,5f5fb8b24fa1c805957b037b,62c539fb536cb3d3e32aaec1,2022-07-06_09h30.32.556,Colour_Asymmetry_Pilot,2022.1.3,MacIntel,58.82352941,62c50e9c1127f2cd403a315f,,,,,,,,,,,,,,,,,,,,,,,,,,,,,,,,,,,,,,,,,,,,,,,,,,,,,,,,,,,,,,,,,,,,,,,,,,,,,,,,,,,,,,,,,,,,,,,,,,,,,,,,,,,,,,,,,,,,,,,,,,,,,,,,,,,,,,,,,,,,,,,,,,,,,,,,,,,,,,,,,,,
0,67,67,59,1,,5f5fb8b24fa1c805957b037b,62c539fb536cb3d3e32aaec1,2022-07-06_09h30.32.556,Colour_Asymmetry_Pilot,2022.1.3,MacIntel,58.82352941,62c50e9c1127f2cd403a315f,,,,,,,,,,,,,,,,,,,,,,,,,,,,,,,,,,,,,,,,,,,,,,,,,,,,,,,,,,,,,,,,,,,,,,,,,,,,,,,,,,,,,,,,,,,,,,,,,,,,,,,,,,,,,,,,,,,,,,,,,,,,,,,,,,,,,,,,,,,,,,,,,,,,,,,,,,,,,,,,,,,
0,68,68,45,1,,5f5fb8b24fa1c805957b037b,62c539fb536cb3d3e32aaec1,2022-07-06_09h30.32.556,Colour_Asymmetry_Pilot,2022.1.3,MacIntel,58.82352941,62c50e9c1127f2cd403a315f,,,,,,,,,,,,,,,,,,,,,,,,,,,,,,,,,,,,,,,,,,,,,,,,,,,,,,,,,,,,,,,,,,,,,,,,,,,,,,,,,,,,,,,,,,,,,,,,,,,,,,,,,,,,,,,,,,,,,,,,,,,,,,,,,,,,,,,,,,,,,,,,,,,,,,,,,,,,,,,,,,,
0,69,69,65,1,,5f5fb8b24fa1c805957b037b,62c539fb536cb3d3e32aaec1,2022-07-06_09h30.32.556,Colour_Asymmetry_Pilot,2022.1.3,MacIntel,58.82352941,62c50e9c1127f2cd403a315f,,,,,,,,,,,,,,,,,,,,,,,,,,,,,,,,,,,,,,,,,,,,,,,,,,,,,,,,,,,,,,,,,,,,,,,,,,,,,,,,,,,,,,,,,,,,,,,,,,,,,,,,,,,,,,,,,,,,,,,,,,,,,,,,,,,,,,,,,,,,,,,,,,,,,,,,,,,,,,,,,,,
0,70,70,35,1,,5f5fb8b24fa1c805957b037b,62c539fb536cb3d3e32aaec1,2022-07-06_09h30.32.556,Colour_Asymmetry_Pilot,2022.1.3,MacIntel,58.82352941,62c50e9c1127f2cd403a315f,,,,,,,,,,,,,,,,,,,,,,,,,,,,,,,,,,,,,,,,,,,,,,,,,,,,,,,,,,,,,,,,,,,,,,,,,,,,,,,,,,,,,,,,,,,,,,,,,,,,,,,,,,,,,,,,,,,,,,,,,,,,,,,,,,,,,,,,,,,,,,,,,,,,,,,,,,,,,,,,,,,
0,71,71,39,1,,5f5fb8b24fa1c805957b037b,62c539fb536cb3d3e32aaec1,2022-07-06_09h30.32.556,Colour_Asymmetry_Pilot,2022.1.3,MacIntel,58.82352941,62c50e9c1127f2cd403a315f,,,,,,,,,,,,,,,,,,,,,,,,,,,,,,,,,,,,,,,,,,,,,,,,,,,,,,,,,,,,,,,,,,,,,,,,,,,,,,,,,,,,,,,,,,,,,,,,,,,,,,,,,,,,,,,,,,,,,,,,,,,,,,,,,,,,,,,,,,,,,,,,,,,,,,,,,,,,,,,,,,,
0,72,72,87,1,,5f5fb8b24fa1c805957b037b,62c539fb536cb3d3e32aaec1,2022-07-06_09h30.32.556,Colour_Asymmetry_Pilot,2022.1.3,MacIntel,58.82352941,62c50e9c1127f2cd403a315f,,,,,,,,,,,,,,,,,,,,,,,,,,,,,,,,,,,,,,,,,,,,,,,,,,,,,,,,,,,,,,,,,,,,,,,,,,,,,,,,,,,,,,,,,,,,,,,,,,,,,,,,,,,,,,,,,,,,,,,,,,,,,,,,,,,,,,,,,,,,,,,,,,,,,,,,,,,,,,,,,,,
0,73,73,21,1,,5f5fb8b24fa1c805957b037b,62c539fb536cb3d3e32aaec1,2022-07-06_09h30.32.556,Colour_Asymmetry_Pilot,2022.1.3,MacIntel,58.82352941,62c50e9c1127f2cd403a315f,,,,,,,,,,,,,,,,,,,,,,,,,,,,,,,,,,,,,,,,,,,,,,,,,,,,,,,,,,,,,,,,,,,,,,,,,,,,,,,,,,,,,,,,,,,,,,,,,,,,,,,,,,,,,,,,,,,,,,,,,,,,,,,,,,,,,,,,,,,,,,,,,,,,,,,,,,,,,,,,,,,
0,74,74,43,1,,5f5fb8b24fa1c805957b037b,62c539fb536cb3d3e32aaec1,2022-07-06_09h30.32.556,Colour_Asymmetry_Pilot,2022.1.3,MacIntel,58.82352941,62c50e9c1127f2cd403a315f,,,,,,,,,,,,,,,,,,,,,,,,,,,,,,,,,,,,,,,,,,,,,,,,,,,,,,,,,,,,,,,,,,,,,,,,,,,,,,,,,,,,,,,,,,,,,,,,,,,,,,,,,,,,,,,,,,,,,,,,,,,,,,,,,,,,,,,,,,,,,,,,,,,,,,,,,,,,,,,,,,,
0,75,75,61,1,,5f5fb8b24fa1c805957b037b,62c539fb536cb3d3e32aaec1,2022-07-06_09h30.32.556,Colour_Asymmetry_Pilot,2022.1.3,MacIntel,58.82352941,62c50e9c1127f2cd403a315f,,,,,,,,,,,,,,,,,,,,,,,,,,,,,,,,,,,,,,,,,,,,,,,,,,,,,,,,,,,,,,,,,,,,,,,,,,,,,,,,,,,,,,,,,,,,,,,,,,,,,,,,,,,,,,,,,,,,,,,,,,,,,,,,,,,,,,,,,,,,,,,,,,,,,,,,,,,,,,,,,,,
0,76,76,67,1,,5f5fb8b24fa1c805957b037b,62c539fb536cb3d3e32aaec1,2022-07-06_09h30.32.556,Colour_Asymmetry_Pilot,2022.1.3,MacIntel,58.82352941,62c50e9c1127f2cd403a315f,,,,,,,,,,,,,,,,,,,,,,,,,,,,,,,,,,,,,,,,,,,,,,,,,,,,,,,,,,,,,,,,,,,,,,,,,,,,,,,,,,,,,,,,,,,,,,,,,,,,,,,,,,,,,,,,,,,,,,,,,,,,,,,,,,,,,,,,,,,,,,,,,,,,,,,,,,,,,,,,,,,
0,77,77,57,1,,5f5fb8b24fa1c805957b037b,62c539fb536cb3d3e32aaec1,2022-07-06_09h30.32.556,Colour_Asymmetry_Pilot,2022.1.3,MacIntel,58.82352941,62c50e9c1127f2cd403a315f,,,,,,,,,,,,,,,,,,,,,,,,,,,,,,,,,,,,,,,,,,,,,,,,,,,,,,,,,,,,,,,,,,,,,,,,,,,,,,,,,,,,,,,,,,,,,,,,,,,,,,,,,,,,,,,,,,,,,,,,,,,,,,,,,,,,,,,,,,,,,,,,,,,,,,,,,,,,,,,,,,,
0,78,78,73,1,,5f5fb8b24fa1c805957b037b,62c539fb536cb3d3e32aaec1,2022-07-06_09h30.32.556,Colour_Asymmetry_Pilot,2022.1.3,MacIntel,58.82352941,62c50e9c1127f2cd403a315f,,,,,,,,,,,,,,,,,,,,,,,,,,,,,,,,,,,,,,,,,,,,,,,,,,,,,,,,,,,,,,,,,,,,,,,,,,,,,,,,,,,,,,,,,,,,,,,,,,,,,,,,,,,,,,,,,,,,,,,,,,,,,,,,,,,,,,,,,,,,,,,,,,,,,,,,,,,,,,,,,,,
0,79,79,50,1,,5f5fb8b24fa1c805957b037b,62c539fb536cb3d3e32aaec1,2022-07-06_09h30.32.556,Colour_Asymmetry_Pilot,2022.1.3,MacIntel,58.82352941,62c50e9c1127f2cd403a315f,,,,,,,,,,,,,,,,,,,,,,,,,,,,,,,,,,,,,,,,,,,,,,,,,,,,,,,,,,,,,,,,,,,,,,,,,,,,,,,,,,,,,,,,,,,,,,,,,,,,,,,,,,,,,,,,,,,,,,,,,,,,,,,,,,,,,,,,,,,,,,,,,,,,,,,,,,,,,,,,,,,
0,80,80,53,1,,5f5fb8b24fa1c805957b037b,62c539fb536cb3d3e32aaec1,2022-07-06_09h30.32.556,Colour_Asymmetry_Pilot,2022.1.3,MacIntel,58.82352941,62c50e9c1127f2cd403a315f,,,,,,,,,,,,,,,,,,,,,,,,,,,,,,,,,,,,,,,,,,,,,,,,,,,,,,,,,,,,,,,,,,,,,,,,,,,,,,,,,,,,,,,,,,,,,,,,,,,,,,,,,,,,,,,,,,,,,,,,,,,,,,,,,,,,,,,,,,,,,,,,,,,,,,,,,,,,,,,,,,,
0,81,81,4,1,,5f5fb8b24fa1c805957b037b,62c539fb536cb3d3e32aaec1,2022-07-06_09h30.32.556,Colour_Asymmetry_Pilot,2022.1.3,MacIntel,58.82352941,62c50e9c1127f2cd403a315f,,,,,,,,,,,,,,,,,,,,,,,,,,,,,,,,,,,,,,,,,,,,,,,,,,,,,,,,,,,,,,,,,,,,,,,,,,,,,,,,,,,,,,,,,,,,,,,,,,,,,,,,,,,,,,,,,,,,,,,,,,,,,,,,,,,,,,,,,,,,,,,,,,,,,,,,,,,,,,,,,,,
0,82,82,86,1,,5f5fb8b24fa1c805957b037b,62c539fb536cb3d3e32aaec1,2022-07-06_09h30.32.556,Colour_Asymmetry_Pilot,2022.1.3,MacIntel,58.82352941,62c50e9c1127f2cd403a315f,,,,,,,,,,,,,,,,,,,,,,,,,,,,,,,,,,,,,,,,,,,,,,,,,,,,,,,,,,,,,,,,,,,,,,,,,,,,,,,,,,,,,,,,,,,,,,,,,,,,,,,,,,,,,,,,,,,,,,,,,,,,,,,,,,,,,,,,,,,,,,,,,,,,,,,,,,,,,,,,,,,
0,83,83,19,1,,5f5fb8b24fa1c805957b037b,62c539fb536cb3d3e32aaec1,2022-07-06_09h30.32.556,Colour_Asymmetry_Pilot,2022.1.3,MacIntel,58.82352941,62c50e9c1127f2cd403a315f,,,,,,,,,,,,,,,,,,,,,,,,,,,,,,,,,,,,,,,,,,,,,,,,,,,,,,,,,,,,,,,,,,,,,,,,,,,,,,,,,,,,,,,,,,,,,,,,,,,,,,,,,,,,,,,,,,,,,,,,,,,,,,,,,,,,,,,,,,,,,,,,,,,,,,,,,,,,,,,,,,,
0,84,84,49,1,,5f5fb8b24fa1c805957b037b,62c539fb536cb3d3e32aaec1,2022-07-06_09h30.32.556,Colour_Asymmetry_Pilot,2022.1.3,MacIntel,58.82352941,62c50e9c1127f2cd403a315f,,,,,,,,,,,,,,,,,,,,,,,,,,,,,,,,,,,,,,,,,,,,,,,,,,,,,,,,,,,,,,,,,,,,,,,,,,,,,,,,,,,,,,,,,,,,,,,,,,,,,,,,,,,,,,,,,,,,,,,,,,,,,,,,,,,,,,,,,,,,,,,,,,,,,,,,,,,,,,,,,,,
0,85,85,38,1,,5f5fb8b24fa1c805957b037b,62c539fb536cb3d3e32aaec1,2022-07-06_09h30.32.556,Colour_Asymmetry_Pilot,2022.1.3,MacIntel,58.82352941,62c50e9c1127f2cd403a315f,,,,,,,,,,,,,,,,,,,,,,,,,,,,,,,,,,,,,,,,,,,,,,,,,,,,,,,,,,,,,,,,,,,,,,,,,,,,,,,,,,,,,,,,,,,,,,,,,,,,,,,,,,,,,,,,,,,,,,,,,,,,,,,,,,,,,,,,,,,,,,,,,,,,,,,,,,,,,,,,,,,
0,86,86,37,1,,5f5fb8b24fa1c805957b037b,62c539fb536cb3d3e32aaec1,2022-07-06_09h30.32.556,Colour_Asymmetry_Pilot,2022.1.3,MacIntel,58.82352941,62c50e9c1127f2cd403a315f,,,,,,,,,,,,,,,,,,,,,,,,,,,,,,,,,,,,,,,,,,,,,,,,,,,,,,,,,,,,,,,,,,,,,,,,,,,,,,,,,,,,,,,,,,,,,,,,,,,,,,,,,,,,,,,,,,,,,,,,,,,,,,,,,,,,,,,,,,,,,,,,,,,,,,,,,,,,,,,,,,,
0,87,87,12,1,,5f5fb8b24fa1c805957b037b,62c539fb536cb3d3e32aaec1,2022-07-06_09h30.32.556,Colour_Asymmetry_Pilot,2022.1.3,MacIntel,58.82352941,62c50e9c1127f2cd403a315f,,,,,,,,,,,,,,,,,,,,,,,,,,,,,,,,,,,,,,,,,,,,,,,,,,,,,,,,,,,,,,,,,,,,,,,,,,,,,,,,,,,,,,,,,,,,,,,,,,,,,,,,,,,,,,,,,,,,,,,,,,,,,,,,,,,,,,,,,,,,,,,,,,,,,,,,,,,,,,,,,,,
0,88,88,52,1,,5f5fb8b24fa1c805957b037b,62c539fb536cb3d3e32aaec1,2022-07-06_09h30.32.556,Colour_Asymmetry_Pilot,2022.1.3,MacIntel,58.82352941,62c50e9c1127f2cd403a315f,,,,,,,,,,,,,,,,,,,,,,,,,,,,,,,,,,,,,,,,,,,,,,,,,,,,,,,,,,,,,,,,,,,,,,,,,,,,,,,,,,,,,,,,,,,,,,,,,,,,,,,,,,,,,,,,,,,,,,,,,,,,,,,,,,,,,,,,,,,,,,,,,,,,,,,,,,,,,,,,,,,
0,89,89,46,1,,5f5fb8b24fa1c805957b037b,62c539fb536cb3d3e32aaec1,2022-07-06_09h30.32.556,Colour_Asymmetry_Pilot,2022.1.3,MacIntel,58.82352941,62c50e9c1127f2cd403a315f,,,,,,,,,,,,,,,,,,,,,,,,,,,,,,,,,,,,,,,,,,,,,,,,,,,,,,,,,,,,,,,,,,,,,,,,,,,,,,,,,,,,,,,,,,,,,,,,,,,,,,,,,,,,,,,,,,,,,,,,,,,,,,,,,,,,,,,,,,,,,,,,,,,,,,,,,,,,,,,,,,,
0,90,90,10,1,,5f5fb8b24fa1c805957b037b,62c539fb536cb3d3e32aaec1,2022-07-06_09h30.32.556,Colour_Asymmetry_Pilot,2022.1.3,MacIntel,58.82352941,62c50e9c1127f2cd403a315f,,,,,,,,,,,,,,,,,,,,,,,,,,,,,,,,,,,,,,,,,,,,,,,,,,,,,,,,,,,,,,,,,,,,,,,,,,,,,,,,,,,,,,,,,,,,,,,,,,,,,,,,,,,,,,,,,,,,,,,,,,,,,,,,,,,,,,,,,,,,,,,,,,,,,,,,,,,,,,,,,,,
0,91,91,5,1,,5f5fb8b24fa1c805957b037b,62c539fb536cb3d3e32aaec1,2022-07-06_09h30.32.556,Colour_Asymmetry_Pilot,2022.1.3,MacIntel,58.82352941,62c50e9c1127f2cd403a315f,,,,,,,,,,,,,,,,,,,,,,,,,,,,,,,,,,,,,,,,,,,,,,,,,,,,,,,,,,,,,,,,,,,,,,,,,,,,,,,,,,,,,,,,,,,,,,,,,,,,,,,,,,,,,,,,,,,,,,,,,,,,,,,,,,,,,,,,,,,,,,,,,,,,,,,,,,,,,,,,,,,
0,92,92,82,1,,5f5fb8b24fa1c805957b037b,62c539fb536cb3d3e32aaec1,2022-07-06_09h30.32.556,Colour_Asymmetry_Pilot,2022.1.3,MacIntel,58.82352941,62c50e9c1127f2cd403a315f,,,,,,,,,,,,,,,,,,,,,,,,,,,,,,,,,,,,,,,,,,,,,,,,,,,,,,,,,,,,,,,,,,,,,,,,,,,,,,,,,,,,,,,,,,,,,,,,,,,,,,,,,,,,,,,,,,,,,,,,,,,,,,,,,,,,,,,,,,,,,,,,,,,,,,,,,,,,,,,,,,,
,,,,,,5f5fb8b24fa1c805957b037b,62c539fb536cb3d3e32aaec1,2022-07-06_09h30.32.556,Colour_Asymmetry_Pilot,2022.1.3,MacIntel,58.82352941,62c50e9c1127f2cd403a315f,0,0,0,117,1,threefour,,,,,,,,,,,,,,,,,,,,,,,,,,,,,,,,,,,,,,,,,,,,,,,,,,,,,,,,,,,,,,,,,,,,,,,,,,,,,,,,,,,,,,,,,,,,,,,,,,,,,,,,,,,,,,,,,,,,,,,,,,,,,,,,,,,,,,,,,,,,,,,,,,,,,,,,,,,,,
,,,,,,5f5fb8b24fa1c805957b037b,62c539fb536cb3d3e32aaec1,2022-07-06_09h30.32.556,Colour_Asymmetry_Pilot,2022.1.3,MacIntel,58.82352941,62c50e9c1127f2cd403a315f,0,1,1,20,1,threeone,,,,,,,,,,,,,,,,,,,,,,,,,,,,,,,,,,,,,,,,,,,,,,,,,,,,,,,,,,,,,,,,,,,,,,,,,,,,,,,,,,,,,,,,,,,,,,,,,,,,,,,,,,,,,,,,,,,,,,,,,,,,,,,,,,,,,,,,,,,,,,,,,,,,,,,,,,,,,
,,,,,,5f5fb8b24fa1c805957b037b,62c539fb536cb3d3e32aaec1,2022-07-06_09h30.32.556,Colour_Asymmetry_Pilot,2022.1.3,MacIntel,58.82352941,62c50e9c1127f2cd403a315f,0,2,2,60,1,threeone,,,,,,,,,,,,,,,,,,,,,,,,,,,,,,,,,,,,,,,,,,,,,,,,,,,,,,,,,,,,,,,,,,,,,,,,,,,,,,,,,,,,,,,,,,,,,,,,,,,,,,,,,,,,,,,,,,,,,,,,,,,,,,,,,,,,,,,,,,,,,,,,,,,,,,,,,,,,,
,,,,,,5f5fb8b24fa1c805957b037b,62c539fb536cb3d3e32aaec1,2022-07-06_09h30.32.556,Colour_Asymmetry_Pilot,2022.1.3,MacIntel,58.82352941,62c50e9c1127f2cd403a315f,0,3,3,70,1,fourtwo,,,,,,,,,,,,,,,,,,,,,,,,,,,,,,,,,,,,,,,,,,,,,,,,,,,,,,,,,,,,,,,,,,,,,,,,,,,,,,,,,,,,,,,,,,,,,,,,,,,,,,,,,,,,,,,,,,,,,,,,,,,,,,,,,,,,,,,,,,,,,,,,,,,,,,,,,,,,,
,,,,,,5f5fb8b24fa1c805957b037b,62c539fb536cb3d3e32aaec1,2022-07-06_09h30.32.556,Colour_Asymmetry_Pilot,2022.1.3,MacIntel,58.82352941,62c50e9c1127f2cd403a315f,0,4,4,64,1,onetwo,,,,,,,,,,,,,,,,,,,,,,,,,,,,,,,,,,,,,,,,,,,,,,,,,,,,,,,,,,,,,,,,,,,,,,,,,,,,,,,,,,,,,,,,,,,,,,,,,,,,,,,,,,,,,,,,,,,,,,,,,,,,,,,,,,,,,,,,,,,,,,,,,,,,,,,,,,,,,
,,,,,,5f5fb8b24fa1c805957b037b,62c539fb536cb3d3e32aaec1,2022-07-06_09h30.32.556,Colour_Asymmetry_Pilot,2022.1.3,MacIntel,58.82352941,62c50e9c1127f2cd403a315f,0,5,5,136,1,onetwo,,,,,,,,,,,,,,,,,,,,,,,,,,,,,,,,,,,,,,,,,,,,,,,,,,,,,,,,,,,,,,,,,,,,,,,,,,,,,,,,,,,,,,,,,,,,,,,,,,,,,,,,,,,,,,,,,,,,,,,,,,,,,,,,,,,,,,,,,,,,,,,,,,,,,,,,,,,,,
,,,,,,5f5fb8b24fa1c805957b037b,62c539fb536cb3d3e32aaec1,2022-07-06_09h30.32.556,Colour_Asymmetry_Pilot,2022.1.3,MacIntel,58.82352941,62c50e9c1127f2cd403a315f,0,6,6,42,1,twoone,,,,,,,,,,,,,,,,,,,,,,,,,,,,,,,,,,,,,,,,,,,,,,,,,,,,,,,,,,,,,,,,,,,,,,,,,,,,,,,,,,,,,,,,,,,,,,,,,,,,,,,,,,,,,,,,,,,,,,,,,,,,,,,,,,,,,,,,,,,,,,,,,,,,,,,,,,,,,
,,,,,,5f5fb8b24fa1c805957b037b,62c539fb536cb3d3e32aaec1,2022-07-06_09h30.32.556,Colour_Asymmetry_Pilot,2022.1.3,MacIntel,58.82352941,62c50e9c1127f2cd403a315f,0,7,7,89,1,onethree,,,,,,,,,,,,,,,,,,,,,,,,,,,,,,,,,,,,,,,,,,,,,,,,,,,,,,,,,,,,,,,,,,,,,,,,,,,,,,,,,,,,,,,,,,,,,,,,,,,,,,,,,,,,,,,,,,,,,,,,,,,,,,,,,,,,,,,,,,,,,,,,,,,,,,,,,,,,,
,,,,,,5f5fb8b24fa1c805957b037b,62c539fb536cb3d3e32aaec1,2022-07-06_09h30.32.556,Colour_Asymmetry_Pilot,2022.1.3,MacIntel,58.82352941,62c50e9c1127f2cd403a315f,0,8,8,12,1,threeone,,,,,,,,,,,,,,,,,,,,,,,,,,,,,,,,,,,,,,,,,,,,,,,,,,,,,,,,,,,,,,,,,,,,,,,,,,,,,,,,,,,,,,,,,,,,,,,,,,,,,,,,,,,,,,,,,,,,,,,,,,,,,,,,,,,,,,,,,,,,,,,,,,,,,,,,,,,,,
,,,,,,5f5fb8b24fa1c805957b037b,62c539fb536cb3d3e32aaec1,2022-07-06_09h30.32.556,Colour_Asymmetry_Pilot,2022.1.3,MacIntel,58.82352941,62c50e9c1127f2cd403a315f,0,9,9,138,1,twoone,,,,,,,,,,,,,,,,,,,,,,,,,,,,,,,,,,,,,,,,,,,,,,,,,,,,,,,,,,,,,,,,,,,,,,,,,,,,,,,,,,,,,,,,,,,,,,,,,,,,,,,,,,,,,,,,,,,,,,,,,,,,,,,,,,,,,,,,,,,,,,,,,,,,,,,,,,,,,
,,,,,,5f5fb8b24fa1c805957b037b,62c539fb536cb3d3e32aaec1,2022-07-06_09h30.32.556,Colour_Asymmetry_Pilot,2022.1.3,MacIntel,58.82352941,62c50e9c1127f2cd403a315f,0,10,10,140,1,threeone,,,,,,,,,,,,,,,,,,,,,,,,,,,,,,,,,,,,,,,,,,,,,,,,,,,,,,,,,,,,,,,,,,,,,,,,,,,,,,,,,,,,,,,,,,,,,,,,,,,,,,,,,,,,,,,,,,,,,,,,,,,,,,,,,,,,,,,,,,,,,,,,,,,,,,,,,,,,,
,,,,,,5f5fb8b24fa1c805957b037b,62c539fb536cb3d3e32aaec1,2022-07-06_09h30.32.556,Colour_Asymmetry_Pilot,2022.1.3,MacIntel,58.82352941,62c50e9c1127f2cd403a315f,0,11,11,15,1,fourthree,,,,,,,,,,,,,,,,,,,,,,,,,,,,,,,,,,,,,,,,,,,,,,,,,,,,,,,,,,,,,,,,,,,,,,,,,,,,,,,,,,,,,,,,,,,,,,,,,,,,,,,,,,,,,,,,,,,,,,,,,,,,,,,,,,,,,,,,,,,,,,,,,,,,,,,,,,,,,
,,,,,,5f5fb8b24fa1c805957b037b,62c539fb536cb3d3e32aaec1,2022-07-06_09h30.32.556,Colour_Asymmetry_Pilot,2022.1.3,MacIntel,58.82352941,62c50e9c1127f2cd403a315f,0,12,12,133,1,threefour,,,,,,,,,,,,,,,,,,,,,,,,,,,,,,,,,,,,,,,,,,,,,,,,,,,,,,,,,,,,,,,,,,,,,,,,,,,,,,,,,,,,,,,,,,,,,,,,,,,,,,,,,,,,,,,,,,,,,,,,,,,,,,,,,,,,,,,,,,,,,,,,,,,,,,,,,,,,,
,,,,,,5f5fb8b24fa1c805957b037b,62c539fb536cb3d3e32aaec1,2022-07-06_09h30.32.556,Colour_Asymmetry_Pilot,2022.1.3,MacIntel,58.82352941,62c50e9c1127f2cd403a315f,0,13,13,110,1,fourtwo,,,,,,,,,,,,,,,,,,,,,,,,,,,,,,,,,,,,,,,,,,,,,,,,,,,,,,,,,,,,,,,,,,,,,,,,,,,,,,,,,,,,,,,,,,,,,,,,,,,,,,,,,,,,,,,,,,,,,,,,,,,,,,,,,,,,,,,,,,,,,,,,,,,,,,,,,,,,,
,,,,,,5f5fb8b24fa1c805957b037b,62c539fb536cb3d3e32aaec1,2022-07-06_09h30.32.556,Colour_Asymmetry_Pilot,2022.1.3,MacIntel,58.82352941,62c50e9c1127f2cd403a315f,0,14,14,52,1,threeone,,,,,,,,,,,,,,,,,,,,,,,,,,,,,,,,,,,,,,,,,,,,,,,,,,,,,,,,,,,,,,,,,,,,,,,,,,,,,,,,,,,,,,,,,,,,,,,,,,,,,,,,,,,,,,,,,,,,,,,,,,,,,,,,,,,,,,,,,,,,,,,,,,,,,,,,,,,,,
,,,,,,5f5fb8b24fa1c805957b037b,62c539fb536cb3d3e32aaec1,2022-07-06_09h30.32.556,Colour_Asymmetry_Pilot,2022.1.3,MacIntel,58.82352941,62c50e9c1127f2cd403a315f,0,15,15,17,1,onethree,,,,,,,,,,,,,,,,,,,,,,,,,,,,,,,,,,,,,,,,,,,,,,,,,,,,,,,,,,,,,,,,,,,,,,,,,,,,,,,,,,,,,,,,,,,,,,,,,,,,,,,,,,,,,,,,,,,,,,,,,,,,,,,,,,,,,,,,,,,,,,,,,,,,,,,,,,,,,
,,,,,,5f5fb8b24fa1c805957b037b,62c539fb536cb3d3e32aaec1,2022-07-06_09h30.32.556,Colour_Asymmetry_Pilot,2022.1.3,MacIntel,58.82352941,62c50e9c1127f2cd403a315f,0,16,16,25,1,onethree,,,,,,,,,,,,,,,,,,,,,,,,,,,,,,,,,,,,,,,,,,,,,,,,,,,,,,,,,,,,,,,,,,,,,,,,,,,,,,,,,,,,,,,,,,,,,,,,,,,,,,,,,,,,,,,,,,,,,,,,,,,,,,,,,,,,,,,,,,,,,,,,,,,,,,,,,,,,,
,,,,,,5f5fb8b24fa1c805957b037b,62c539fb536cb3d3e32aaec1,2022-07-06_09h30.32.556,Colour_Asymmetry_Pilot,2022.1.3,MacIntel,58.82352941,62c50e9c1127f2cd403a315f,0,17,17,113,1,onethree,,,,,,,,,,,,,,,,,,,,,,,,,,,,,,,,,,,,,,,,,,,,,,,,,,,,,,,,,,,,,,,,,,,,,,,,,,,,,,,,,,,,,,,,,,,,,,,,,,,,,,,,,,,,,,,,,,,,,,,,,,,,,,,,,,,,,,,,,,,,,,,,,,,,,,,,,,,,,
,,,,,,5f5fb8b24fa1c805957b037b,62c539fb536cb3d3e32aaec1,2022-07-06_09h30.32.556,Colour_Asymmetry_Pilot,2022.1.3,MacIntel,58.82352941,62c50e9c1127f2cd403a315f,0,18,18,131,1,twofour,,,,,,,,,,,,,,,,,,,,,,,,,,,,,,,,,,,,,,,,,,,,,,,,,,,,,,,,,,,,,,,,,,,,,,,,,,,,,,,,,,,,,,,,,,,,,,,,,,,,,,,,,,,,,,,,,,,,,,,,,,,,,,,,,,,,,,,,,,,,,,,,,,,,,,,,,,,,,
,,,,,,5f5fb8b24fa1c805957b037b,62c539fb536cb3d3e32aaec1,2022-07-06_09h30.32.556,Colour_Asymmetry_Pilot,2022.1.3,MacIntel,58.82352941,62c50e9c1127f2cd403a315f,0,19,19,54,1,fourtwo,,,,,,,,,,,,,,,,,,,,,,,,,,,,,,,,,,,,,,,,,,,,,,,,,,,,,,,,,,,,,,,,,,,,,,,,,,,,,,,,,,,,,,,,,,,,,,,,,,,,,,,,,,,,,,,,,,,,,,,,,,,,,,,,,,,,,,,,,,,,,,,,,,,,,,,,,,,,,
,,,,,,5f5fb8b24fa1c805957b037b,62c539fb536cb3d3e32aaec1,2022-07-06_09h30.32.556,Colour_Asymmetry_Pilot,2022.1.3,MacIntel,58.82352941,62c50e9c1127f2cd403a315f,0,20,20,92,1,threeone,,,,,,,,,,,,,,,,,,,,,,,,,,,,,,,,,,,,,,,,,,,,,,,,,,,,,,,,,,,,,,,,,,,,,,,,,,,,,,,,,,,,,,,,,,,,,,,,,,,,,,,,,,,,,,,,,,,,,,,,,,,,,,,,,,,,,,,,,,,,,,,,,,,,,,,,,,,,,
,,,,,,5f5fb8b24fa1c805957b037b,62c539fb536cb3d3e32aaec1,2022-07-06_09h30.32.556,Colour_Asymmetry_Pilot,2022.1.3,MacIntel,58.82352941,62c50e9c1127f2cd403a315f,0,21,21,29,1,threefour,,,,,,,,,,,,,,,,,,,,,,,,,,,,,,,,,,,,,,,,,,,,,,,,,,,,,,,,,,,,,,,,,,,,,,,,,,,,,,,,,,,,,,,,,,,,,,,,,,,,,,,,,,,,,,,,,,,,,,,,,,,,,,,,,,,,,,,,,,,,,,,,,,,,,,,,,,,,,
,,,,,,5f5fb8b24fa1c805957b037b,62c539fb536cb3d3e32aaec1,2022-07-06_09h30.32.556,Colour_Asymmetry_Pilot,2022.1.3,MacIntel,58.82352941,62c50e9c1127f2cd403a315f,0,22,22,11,1,twofour,,,,,,,,,,,,,,,,,,,,,,,,,,,,,,,,,,,,,,,,,,,,,,,,,,,,,,,,,,,,,,,,,,,,,,,,,,,,,,,,,,,,,,,,,,,,,,,,,,,,,,,,,,,,,,,,,,,,,,,,,,,,,,,,,,,,,,,,,,,,,,,,,,,,,,,,,,,,,
,,,,,,5f5fb8b24fa1c805957b037b,62c539fb536cb3d3e32aaec1,2022-07-06_09h30.32.556,Colour_Asymmetry_Pilot,2022.1.3,MacIntel,58.82352941,62c50e9c1127f2cd403a315f,0,23,23,57,1,onethree,,,,,,,,,,,,,,,,,,,,,,,,,,,,,,,,,,,,,,,,,,,,,,,,,,,,,,,,,,,,,,,,,,,,,,,,,,,,,,,,,,,,,,,,,,,,,,,,,,,,,,,,,,,,,,,,,,,,,,,,,,,,,,,,,,,,,,,,,,,,,,,,,,,,,,,,,,,,,
,,,,,,5f5fb8b24fa1c805957b037b,62c539fb536cb3d3e32aaec1,2022-07-06_09h30.32.556,Colour_Asymmetry_Pilot,2022.1.3,MacIntel,58.82352941,62c50e9c1127f2cd403a315f,0,24,24,161,1,onethree,,,,,,,,,,,,,,,,,,,,,,,,,,,,,,,,,,,,,,,,,,,,,,,,,,,,,,,,,,,,,,,,,,,,,,,,,,,,,,,,,,,,,,,,,,,,,,,,,,,,,,,,,,,,,,,,,,,,,,,,,,,,,,,,,,,,,,,,,,,,,,,,,,,,,,,,,,,,,
,,,,,,5f5fb8b24fa1c805957b037b,62c539fb536cb3d3e32aaec1,2022-07-06_09h30.32.556,Colour_Asymmetry_Pilot,2022.1.3,MacIntel,58.82352941,62c50e9c1127f2cd403a315f,0,25,25,160,1,onetwo,,,,,,,,,,,,,,,,,,,,,,,,,,,,,,,,,,,,,,,,,,,,,,,,,,,,,,,,,,,,,,,,,,,,,,,,,,,,,,,,,,,,,,,,,,,,,,,,,,,,,,,,,,,,,,,,,,,,,,,,,,,,,,,,,,,,,,,,,,,,,,,,,,,,,,,,,,,,,
,,,,,,5f5fb8b24fa1c805957b037b,62c539fb536cb3d3e32aaec1,2022-07-06_09h30.32.556,Colour_Asymmetry_Pilot,2022.1.3,MacIntel,58.82352941,62c50e9c1127f2cd403a315f,0,26,26,132,1,threeone,,,,,,,,,,,,,,,,,,,,,,,,,,,,,,,,,,,,,,,,,,,,,,,,,,,,,,,,,,,,,,,,,,,,,,,,,,,,,,,,,,,,,,,,,,,,,,,,,,,,,,,,,,,,,,,,,,,,,,,,,,,,,,,,,,,,,,,,,,,,,,,,,,,,,,,,,,,,,
,,,,,,5f5fb8b24fa1c805957b037b,62c539fb536cb3d3e32aaec1,2022-07-06_09h30.32.556,Colour_Asymmetry_Pilot,2022.1.3,MacIntel,58.82352941,62c50e9c1127f2cd403a315f,0,27,27,0,1,onetwo,,,,,,,,,,,,,,,,,,,,,,,,,,,,,,,,,,,,,,,,,,,,,,,,,,,,,,,,,,,,,,,,,,,,,,,,,,,,,,,,,,,,,,,,,,,,,,,,,,,,,,,,,,,,,,,,,,,,,,,,,,,,,,,,,,,,,,,,,,,,,,,,,,,,,,,,,,,,,
,,,,,,5f5fb8b24fa1c805957b037b,62c539fb536cb3d3e32aaec1,2022-07-06_09h30.32.556,Colour_Asymmetry_Pilot,2022.1.3,MacIntel,58.82352941,62c50e9c1127f2cd403a315f,0,28,28,127,1,fourthree,,,,,,,,,,,,,,,,,,,,,,,,,,,,,,,,,,,,,,,,,,,,,,,,,,,,,,,,,,,,,,,,,,,,,,,,,,,,,,,,,,,,,,,,,,,,,,,,,,,,,,,,,,,,,,,,,,,,,,,,,,,,,,,,,,,,,,,,,,,,,,,,,,,,,,,,,,,,,
,,,,,,5f5fb8b24fa1c805957b037b,62c539fb536cb3d3e32aaec1,2022-07-06_09h30.32.556,Colour_Asymmetry_Pilot,2022.1.3,MacIntel,58.82352941,62c50e9c1127f2cd403a315f,0,29,29,1,1,onethree,,,,,,,,,,,,,,,,,,,,,,,,,,,,,,,,,,,,,,,,,,,,,,,,,,,,,,,,,,,,,,,,,,,,,,,,,,,,,,,,,,,,,,,,,,,,,,,,,,,,,,,,,,,,,,,,,,,,,,,,,,,,,,,,,,,,,,,,,,,,,,,,,,,,,,,,,,,,,
,,,,,,5f5fb8b24fa1c805957b037b,62c539fb536cb3d3e32aaec1,2022-07-06_09h30.32.556,Colour_Asymmetry_Pilot,2022.1.3,MacIntel,58.82352941,62c50e9c1127f2cd403a315f,0,30,30,58,1,twoone,,,,,,,,,,,,,,,,,,,,,,,,,,,,,,,,,,,,,,,,,,,,,,,,,,,,,,,,,,,,,,,,,,,,,,,,,,,,,,,,,,,,,,,,,,,,,,,,,,,,,,,,,,,,,,,,,,,,,,,,,,,,,,,,,,,,,,,,,,,,,,,,,,,,,,,,,,,,,
,,,,,,5f5fb8b24fa1c805957b037b,62c539fb536cb3d3e32aaec1,2022-07-06_09h30.32.556,Colour_Asymmetry_Pilot,2022.1.3,MacIntel,58.82352941,62c50e9c1127f2cd403a315f,0,31,31,27,1,twofour,,,,,,,,,,,,,,,,,,,,,,,,,,,,,,,,,,,,,,,,,,,,,,,,,,,,,,,,,,,,,,,,,,,,,,,,,,,,,,,,,,,,,,,,,,,,,,,,,,,,,,,,,,,,,,,,,,,,,,,,,,,,,,,,,,,,,,,,,,,,,,,,,,,,,,,,,,,,,
,,,,,,5f5fb8b24fa1c805957b037b,62c539fb536cb3d3e32aaec1,2022-07-06_09h30.32.556,Colour_Asymmetry_Pilot,2022.1.3,MacIntel,58.82352941,62c50e9c1127f2cd403a315f,0,32,32,148,1,threeone,,,,,,,,,,,,,,,,,,,,,,,,,,,,,,,,,,,,,,,,,,,,,,,,,,,,,,,,,,,,,,,,,,,,,,,,,,,,,,,,,,,,,,,,,,,,,,,,,,,,,,,,,,,,,,,,,,,,,,,,,,,,,,,,,,,,,,,,,,,,,,,,,,,,,,,,,,,,,
,,,,,,5f5fb8b24fa1c805957b037b,62c539fb536cb3d3e32aaec1,2022-07-06_09h30.32.556,Colour_Asymmetry_Pilot,2022.1.3,MacIntel,58.82352941,62c50e9c1127f2cd403a315f,0,33,33,143,1,fourthree,,,,,,,,,,,,,,,,,,,,,,,,,,,,,,,,,,,,,,,,,,,,,,,,,,,,,,,,,,,,,,,,,,,,,,,,,,,,,,,,,,,,,,,,,,,,,,,,,,,,,,,,,,,,,,,,,,,,,,,,,,,,,,,,,,,,,,,,,,,,,,,,,,,,,,,,,,,,,
,,,,,,5f5fb8b24fa1c805957b037b,62c539fb536cb3d3e32aaec1,2022-07-06_09h30.32.556,Colour_Asymmetry_Pilot,2022.1.3,MacIntel,58.82352941,62c50e9c1127f2cd403a315f,0,34,34,51,1,twofour,,,,,,,,,,,,,,,,,,,,,,,,,,,,,,,,,,,,,,,,,,,,,,,,,,,,,,,,,,,,,,,,,,,,,,,,,,,,,,,,,,,,,,,,,,,,,,,,,,,,,,,,,,,,,,,,,,,,,,,,,,,,,,,,,,,,,,,,,,,,,,,,,,,,,,,,,,,,,
,,,,,,5f5fb8b24fa1c805957b037b,62c539fb536cb3d3e32aaec1,2022-07-06_09h30.32.556,Colour_Asymmetry_Pilot,2022.1.3,MacIntel,58.82352941,62c50e9c1127f2cd403a315f,0,35,35,49,1,onethree,,,,,,,,,,,,,,,,,,,,,,,,,,,,,,,,,,,,,,,,,,,,,,,,,,,,,,,,,,,,,,,,,,,,,,,,,,,,,,,,,,,,,,,,,,,,,,,,,,,,,,,,,,,,,,,,,,,,,,,,,,,,,,,,,,,,,,,,,,,,,,,,,,,,,,,,,,,,,
,,,,,,5f5fb8b24fa1c805957b037b,62c539fb536cb3d3e32aaec1,2022-07-06_09h30.32.556,Colour_Asymmetry_Pilot,2022.1.3,MacIntel,58.82352941,62c50e9c1127f2cd403a315f,0,36,36,32,1,onetwo,,,,,,,,,,,,,,,,,,,,,,,,,,,,,,,,,,,,,,,,,,,,,,,,,,,,,,,,,,,,,,,,,,,,,,,,,,,,,,,,,,,,,,,,,,,,,,,,,,,,,,,,,,,,,,,,,,,,,,,,,,,,,,,,,,,,,,,,,,,,,,,,,,,,,,,,,,,,,
,,,,,,5f5fb8b24fa1c805957b037b,62c539fb536cb3d3e32aaec1,2022-07-06_09h30.32.556,Colour_Asymmetry_Pilot,2022.1.3,MacIntel,58.82352941,62c50e9c1127f2cd403a315f,0,37,37,120,1,onetwo,,,,,,,,,,,,,,,,,,,,,,,,,,,,,,,,,,,,,,,,,,,,,,,,,,,,,,,,,,,,,,,,,,,,,,,,,,,,,,,,,,,,,,,,,,,,,,,,,,,,,,,,,,,,,,,,,,,,,,,,,,,,,,,,,,,,,,,,,,,,,,,,,,,,,,,,,,,,,
,,,,,,5f5fb8b24fa1c805957b037b,62c539fb536cb3d3e32aaec1,2022-07-06_09h30.32.556,Colour_Asymmetry_Pilot,2022.1.3,MacIntel,58.82352941,62c50e9c1127f2cd403a315f,0,38,38,14,1,fourtwo,,,,,,,,,,,,,,,,,,,,,,,,,,,,,,,,,,,,,,,,,,,,,,,,,,,,,,,,,,,,,,,,,,,,,,,,,,,,,,,,,,,,,,,,,,,,,,,,,,,,,,,,,,,,,,,,,,,,,,,,,,,,,,,,,,,,,,,,,,,,,,,,,,,,,,,,,,,,,
,,,,,,5f5fb8b24fa1c805957b037b,62c539fb536cb3d3e32aaec1,2022-07-06_09h30.32.556,Colour_Asymmetry_Pilot,2022.1.3,MacIntel,58.82352941,62c50e9c1127f2cd403a315f,0,39,39,135,1,fourthree,,,,,,,,,,,,,,,,,,,,,,,,,,,,,,,,,,,,,,,,,,,,,,,,,,,,,,,,,,,,,,,,,,,,,,,,,,,,,,,,,,,,,,,,,,,,,,,,,,,,,,,,,,,,,,,,,,,,,,,,,,,,,,,,,,,,,,,,,,,,,,,,,,,,,,,,,,,,,
,,,,,,5f5fb8b24fa1c805957b037b,62c539fb536cb3d3e32aaec1,2022-07-06_09h30.32.556,Colour_Asymmetry_Pilot,2022.1.3,MacIntel,58.82352941,62c50e9c1127f2cd403a315f,0,40,40,105,1,onethree,,,,,,,,,,,,,,,,,,,,,,,,,,,,,,,,,,,,,,,,,,,,,,,,,,,,,,,,,,,,,,,,,,,,,,,,,,,,,,,,,,,,,,,,,,,,,,,,,,,,,,,,,,,,,,,,,,,,,,,,,,,,,,,,,,,,,,,,,,,,,,,,,,,,,,,,,,,,,
,,,,,,5f5fb8b24fa1c805957b037b,62c539fb536cb3d3e32aaec1,2022-07-06_09h30.32.556,Colour_Asymmetry_Pilot,2022.1.3,MacIntel,58.82352941,62c50e9c1127f2cd403a315f,0,41,41,7,1,fourthree,,,,,,,,,,,,,,,,,,,,,,,,,,,,,,,,,,,,,,,,,,,,,,,,,,,,,,,,,,,,,,,,,,,,,,,,,,,,,,,,,,,,,,,,,,,,,,,,,,,,,,,,,,,,,,,,,,,,,,,,,,,,,,,,,,,,,,,,,,,,,,,,,,,,,,,,,,,,,
,,,,,,5f5fb8b24fa1c805957b037b,62c539fb536cb3d3e32aaec1,2022-07-06_09h30.32.556,Colour_Asymmetry_Pilot,2022.1.3,MacIntel,58.82352941,62c50e9c1127f2cd403a315f,0,42,42,87,1,fourthree,,,,,,,,,,,,,,,,,,,,,,,,,,,,,,,,,,,,,,,,,,,,,,,,,,,,,,,,,,,,,,,,,,,,,,,,,,,,,,,,,,,,,,,,,,,,,,,,,,,,,,,,,,,,,,,,,,,,,,,,,,,,,,,,,,,,,,,,,,,,,,,,,,,,,,,,,,,,,
,,,,,,5f5fb8b24fa1c805957b037b,62c539fb536cb3d3e32aaec1,2022-07-06_09h30.32.556,Colour_Asymmetry_Pilot,2022.1.3,MacIntel,58.82352941,62c50e9c1127f2cd403a315f,0,43,43,156,1,threeone,,,,,,,,,,,,,,,,,,,,,,,,,,,,,,,,,,,,,,,,,,,,,,,,,,,,,,,,,,,,,,,,,,,,,,,,,,,,,,,,,,,,,,,,,,,,,,,,,,,,,,,,,,,,,,,,,,,,,,,,,,,,,,,,,,,,,,,,,,,,,,,,,,,,,,,,,,,,,
,,,,,,5f5fb8b24fa1c805957b037b,62c539fb536cb3d3e32aaec1,2022-07-06_09h30.32.556,Colour_Asymmetry_Pilot,2022.1.3,MacIntel,58.82352941,62c50e9c1127f2cd403a315f,0,44,44,123,1,twofour,,,,,,,,,,,,,,,,,,,,,,,,,,,,,,,,,,,,,,,,,,,,,,,,,,,,,,,,,,,,,,,,,,,,,,,,,,,,,,,,,,,,,,,,,,,,,,,,,,,,,,,,,,,,,,,,,,,,,,,,,,,,,,,,,,,,,,,,,,,,,,,,,,,,,,,,,,,,,
,,,,,,5f5fb8b24fa1c805957b037b,62c539fb536cb3d3e32aaec1,2022-07-06_09h30.32.556,Colour_Asymmetry_Pilot,2022.1.3,MacIntel,58.82352941,62c50e9c1127f2cd403a315f,0,45,45,116,1,threeone,,,,,,,,,,,,,,,,,,,,,,,,,,,,,,,,,,,,,,,,,,,,,,,,,,,,,,,,,,,,,,,,,,,,,,,,,,,,,,,,,,,,,,,,,,,,,,,,,,,,,,,,,,,,,,,,,,,,,,,,,,,,,,,,,,,,,,,,,,,,,,,,,,,,,,,,,,,,,
,,,,,,5f5fb8b24fa1c805957b037b,62c539fb536cb3d3e32aaec1,2022-07-06_09h30.32.556,Colour_Asymmetry_Pilot,2022.1.3,MacIntel,58.82352941,62c50e9c1127f2cd403a315f,0,46,46,18,1,twoone,,,,,,,,,,,,,,,,,,,,,,,,,,,,,,,,,,,,,,,,,,,,,,,,,,,,,,,,,,,,,,,,,,,,,,,,,,,,,,,,,,,,,,,,,,,,,,,,,,,,,,,,,,,,,,,,,,,,,,,,,,,,,,,,,,,,,,,,,,,,,,,,,,,,,,,,,,,,,
,,,,,,5f5fb8b24fa1c805957b037b,62c539fb536cb3d3e32aaec1,2022-07-06_09h30.32.556,Colour_Asymmetry_Pilot,2022.1.3,MacIntel,58.82352941,62c50e9c1127f2cd403a315f,0,47,47,114,1,twoone,,,,,,,,,,,,,,,,,,,,,,,,,,,,,,,,,,,,,,,,,,,,,,,,,,,,,,,,,,,,,,,,,,,,,,,,,,,,,,,,,,,,,,,,,,,,,,,,,,,,,,,,,,,,,,,,,,,,,,,,,,,,,,,,,,,,,,,,,,,,,,,,,,,,,,,,,,,,,
,,,,,,5f5fb8b24fa1c805957b037b,62c539fb536cb3d3e32aaec1,2022-07-06_09h30.32.556,Colour_Asymmetry_Pilot,2022.1.3,MacIntel,58.82352941,62c50e9c1127f2cd403a315f,0,48,48,90,1,twoone,,,,,,,,,,,,,,,,,,,,,,,,,,,,,,,,,,,,,,,,,,,,,,,,,,,,,,,,,,,,,,,,,,,,,,,,,,,,,,,,,,,,,,,,,,,,,,,,,,,,,,,,,,,,,,,,,,,,,,,,,,,,,,,,,,,,,,,,,,,,,,,,,,,,,,,,,,,,,
,,,,,,5f5fb8b24fa1c805957b037b,62c539fb536cb3d3e32aaec1,2022-07-06_09h30.32.556,Colour_Asymmetry_Pilot,2022.1.3,MacIntel,58.82352941,62c50e9c1127f2cd403a315f,0,49,49,44,1,threeone,,,,,,,,,,,,,,,,,,,,,,,,,,,,,,,,,,,,,,,,,,,,,,,,,,,,,,,,,,,,,,,,,,,,,,,,,,,,,,,,,,,,,,,,,,,,,,,,,,,,,,,,,,,,,,,,,,,,,,,,,,,,,,,,,,,,,,,,,,,,,,,,,,,,,,,,,,,,,
,,,,,,5f5fb8b24fa1c805957b037b,62c539fb536cb3d3e32aaec1,2022-07-06_09h30.32.556,Colour_Asymmetry_Pilot,2022.1.3,MacIntel,58.82352941,62c50e9c1127f2cd403a315f,0,50,50,147,1,twofour,,,,,,,,,,,,,,,,,,,,,,,,,,,,,,,,,,,,,,,,,,,,,,,,,,,,,,,,,,,,,,,,,,,,,,,,,,,,,,,,,,,,,,,,,,,,,,,,,,,,,,,,,,,,,,,,,,,,,,,,,,,,,,,,,,,,,,,,,,,,,,,,,,,,,,,,,,,,,
,,,,,,5f5fb8b24fa1c805957b037b,62c539fb536cb3d3e32aaec1,2022-07-06_09h30.32.556,Colour_Asymmetry_Pilot,2022.1.3,MacIntel,58.82352941,62c50e9c1127f2cd403a315f,0,51,51,41,1,onethree,,,,,,,,,,,,,,,,,,,,,,,,,,,,,,,,,,,,,,,,,,,,,,,,,,,,,,,,,,,,,,,,,,,,,,,,,,,,,,,,,,,,,,,,,,,,,,,,,,,,,,,,,,,,,,,,,,,,,,,,,,,,,,,,,,,,,,,,,,,,,,,,,,,,,,,,,,,,,
,,,,,,5f5fb8b24fa1c805957b037b,62c539fb536cb3d3e32aaec1,2022-07-06_09h30.32.556,Colour_Asymmetry_Pilot,2022.1.3,MacIntel,58.82352941,62c50e9c1127f2cd403a315f,0,52,52,24,1,onetwo,,,,,,,,,,,,,,,,,,,,,,,,,,,,,,,,,,,,,,,,,,,,,,,,,,,,,,,,,,,,,,,,,,,,,,,,,,,,,,,,,,,,,,,,,,,,,,,,,,,,,,,,,,,,,,,,,,,,,,,,,,,,,,,,,,,,,,,,,,,,,,,,,,,,,,,,,,,,,
,,,,,,5f5fb8b24fa1c805957b037b,62c539fb536cb3d3e32aaec1,2022-07-06_09h30.32.556,Colour_Asymmetry_Pilot,2022.1.3,MacIntel,58.82352941,62c50e9c1127f2cd403a315f,0,53,53,137,1,onethree,,,,,,,,,,,,,,,,,,,,,,,,,,,,,,,,,,,,,,,,,,,,,,,,,,,,,,,,,,,,,,,,,,,,,,,,,,,,,,,,,,,,,,,,,,,,,,,,,,,,,,,,,,,,,,,,,,,,,,,,,,,,,,,,,,,,,,,,,,,,,,,,,,,,,,,,,,,,,
,,,,,,5f5fb8b24fa1c805957b037b,62c539fb536cb3d3e32aaec1,2022-07-06_09h30.32.556,Colour_Asymmetry_Pilot,2022.1.3,MacIntel,58.82352941,62c50e9c1127f2cd403a315f,0,54,54,145,1,onethree,,,,,,,,,,,,,,,,,,,,,,,,,,,,,,,,,,,,,,,,,,,,,,,,,,,,,,,,,,,,,,,,,,,,,,,,,,,,,,,,,,,,,,,,,,,,,,,,,,,,,,,,,,,,,,,,,,,,,,,,,,,,,,,,,,,,,,,,,,,,,,,,,,,,,,,,,,,,,
,,,,,,5f5fb8b24fa1c805957b037b,62c539fb536cb3d3e32aaec1,2022-07-06_09h30.32.556,Colour_Asymmetry_Pilot,2022.1.3,MacIntel,58.82352941,62c50e9c1127f2cd403a315f,0,55,55,4,1,threeone,,,,,,,,,,,,,,,,,,,,,,,,,,,,,,,,,,,,,,,,,,,,,,,,,,,,,,,,,,,,,,,,,,,,,,,,,,,,,,,,,,,,,,,,,,,,,,,,,,,,,,,,,,,,,,,,,,,,,,,,,,,,,,,,,,,,,,,,,,,,,,,,,,,,,,,,,,,,,
,,,,,,5f5fb8b24fa1c805957b037b,62c539fb536cb3d3e32aaec1,2022-07-06_09h30.32.556,Colour_Asymmetry_Pilot,2022.1.3,MacIntel,58.82352941,62c50e9c1127f2cd403a315f,0,56,56,35,1,twofour,,,,,,,,,,,,,,,,,,,,,,,,,,,,,,,,,,,,,,,,,,,,,,,,,,,,,,,,,,,,,,,,,,,,,,,,,,,,,,,,,,,,,,,,,,,,,,,,,,,,,,,,,,,,,,,,,,,,,,,,,,,,,,,,,,,,,,,,,,,,,,,,,,,,,,,,,,,,,
,,,,,,5f5fb8b24fa1c805957b037b,62c539fb536cb3d3e32aaec1,2022-07-06_09h30.32.556,Colour_Asymmetry_Pilot,2022.1.3,MacIntel,58.82352941,62c50e9c1127f2cd403a315f,0,57,57,125,1,threefour,,,,,,,,,,,,,,,,,,,,,,,,,,,,,,,,,,,,,,,,,,,,,,,,,,,,,,,,,,,,,,,,,,,,,,,,,,,,,,,,,,,,,,,,,,,,,,,,,,,,,,,,,,,,,,,,,,,,,,,,,,,,,,,,,,,,,,,,,,,,,,,,,,,,,,,,,,,,,
,,,,,,5f5fb8b24fa1c805957b037b,62c539fb536cb3d3e32aaec1,2022-07-06_09h30.32.556,Colour_Asymmetry_Pilot,2022.1.3,MacIntel,58.82352941,62c50e9c1127f2cd403a315f,0,58,58,108,1,threeone,,,,,,,,,,,,,,,,,,,,,,,,,,,,,,,,,,,,,,,,,,,,,,,,,,,,,,,,,,,,,,,,,,,,,,,,,,,,,,,,,,,,,,,,,,,,,,,,,,,,,,,,,,,,,,,,,,,,,,,,,,,,,,,,,,,,,,,,,,,,,,,,,,,,,,,,,,,,,
,,,,,,5f5fb8b24fa1c805957b037b,62c539fb536cb3d3e32aaec1,2022-07-06_09h30.32.556,Colour_Asymmetry_Pilot,2022.1.3,MacIntel,58.82352941,62c50e9c1127f2cd403a315f,0,59,59,86,1,fourtwo,,,,,,,,,,,,,,,,,,,,,,,,,,,,,,,,,,,,,,,,,,,,,,,,,,,,,,,,,,,,,,,,,,,,,,,,,,,,,,,,,,,,,,,,,,,,,,,,,,,,,,,,,,,,,,,,,,,,,,,,,,,,,,,,,,,,,,,,,,,,,,,,,,,,,,,,,,,,,
,,,,,,5f5fb8b24fa1c805957b037b,62c539fb536cb3d3e32aaec1,2022-07-06_09h30.32.556,Colour_Asymmetry_Pilot,2022.1.3,MacIntel,58.82352941,62c50e9c1127f2cd403a315f,0,60,60,5,1,threefour,,,,,,,,,,,,,,,,,,,,,,,,,,,,,,,,,,,,,,,,,,,,,,,,,,,,,,,,,,,,,,,,,,,,,,,,,,,,,,,,,,,,,,,,,,,,,,,,,,,,,,,,,,,,,,,,,,,,,,,,,,,,,,,,,,,,,,,,,,,,,,,,,,,,,,,,,,,,,
,,,,,,5f5fb8b24fa1c805957b037b,62c539fb536cb3d3e32aaec1,2022-07-06_09h30.32.556,Colour_Asymmetry_Pilot,2022.1.3,MacIntel,58.82352941,62c50e9c1127f2cd403a315f,0,61,61,50,1,twoone,,,,,,,,,,,,,,,,,,,,,,,,,,,,,,,,,,,,,,,,,,,,,,,,,,,,,,,,,,,,,,,,,,,,,,,,,,,,,,,,,,,,,,,,,,,,,,,,,,,,,,,,,,,,,,,,,,,,,,,,,,,,,,,,,,,,,,,,,,,,,,,,,,,,,,,,,,,,,
,,,,,,5f5fb8b24fa1c805957b037b,62c539fb536cb3d3e32aaec1,2022-07-06_09h30.32.556,Colour_Asymmetry_Pilot,2022.1.3,MacIntel,58.82352941,62c50e9c1127f2cd403a315f,0,62,62,128,1,onetwo,,,,,,,,,,,,,,,,,,,,,,,,,,,,,,,,,,,,,,,,,,,,,,,,,,,,,,,,,,,,,,,,,,,,,,,,,,,,,,,,,,,,,,,,,,,,,,,,,,,,,,,,,,,,,,,,,,,,,,,,,,,,,,,,,,,,,,,,,,,,,,,,,,,,,,,,,,,,,
,,,,,,5f5fb8b24fa1c805957b037b,62c539fb536cb3d3e32aaec1,2022-07-06_09h30.32.556,Colour_Asymmetry_Pilot,2022.1.3,MacIntel,58.82352941,62c50e9c1127f2cd403a315f,0,63,63,3,1,twofour,,,,,,,,,,,,,,,,,,,,,,,,,,,,,,,,,,,,,,,,,,,,,,,,,,,,,,,,,,,,,,,,,,,,,,,,,,,,,,,,,,,,,,,,,,,,,,,,,,,,,,,,,,,,,,,,,,,,,,,,,,,,,,,,,,,,,,,,,,,,,,,,,,,,,,,,,,,,,
,,,,,,5f5fb8b24fa1c805957b037b,62c539fb536cb3d3e32aaec1,2022-07-06_09h30.32.556,Colour_Asymmetry_Pilot,2022.1.3,MacIntel,58.82352941,62c50e9c1127f2cd403a315f,0,64,64,6,1,fourtwo,,,,,,,,,,,,,,,,,,,,,,,,,,,,,,,,,,,,,,,,,,,,,,,,,,,,,,,,,,,,,,,,,,,,,,,,,,,,,,,,,,,,,,,,,,,,,,,,,,,,,,,,,,,,,,,,,,,,,,,,,,,,,,,,,,,,,,,,,,,,,,,,,,,,,,,,,,,,,
,,,,,,5f5fb8b24fa1c805957b037b,62c539fb536cb3d3e32aaec1,2022-07-06_09h30.32.556,Colour_Asymmetry_Pilot,2022.1.3,MacIntel,58.82352941,62c50e9c1127f2cd403a315f,0,65,65,59,1,twofour,,,,,,,,,,,,,,,,,,,,,,,,,,,,,,,,,,,,,,,,,,,,,,,,,,,,,,,,,,,,,,,,,,,,,,,,,,,,,,,,,,,,,,,,,,,,,,,,,,,,,,,,,,,,,,,,,,,,,,,,,,,,,,,,,,,,,,,,,,,,,,,,,,,,,,,,,,,,,
,,,,,,5f5fb8b24fa1c805957b037b,62c539fb536cb3d3e32aaec1,2022-07-06_09h30.32.556,Colour_Asymmetry_Pilot,2022.1.3,MacIntel,58.82352941,62c50e9c1127f2cd403a315f,0,66,66,19,1,twofour,,,,,,,,,,,,,,,,,,,,,,,,,,,,,,,,,,,,,,,,,,,,,,,,,,,,,,,,,,,,,,,,,,,,,,,,,,,,,,,,,,,,,,,,,,,,,,,,,,,,,,,,,,,,,,,,,,,,,,,,,,,,,,,,,,,,,,,,,,,,,,,,,,,,,,,,,,,,,
,,,,,,5f5fb8b24fa1c805957b037b,62c539fb536cb3d3e32aaec1,2022-07-06_09h30.32.556,Colour_Asymmetry_Pilot,2022.1.3,MacIntel,58.82352941,62c50e9c1127f2cd403a315f,0,67,67,106,1,twoone,,,,,,,,,,,,,,,,,,,,,,,,,,,,,,,,,,,,,,,,,,,,,,,,,,,,,,,,,,,,,,,,,,,,,,,,,,,,,,,,,,,,,,,,,,,,,,,,,,,,,,,,,,,,,,,,,,,,,,,,,,,,,,,,,,,,,,,,,,,,,,,,,,,,,,,,,,,,,
,,,,,,5f5fb8b24fa1c805957b037b,62c539fb536cb3d3e32aaec1,2022-07-06_09h30.32.556,Colour_Asymmetry_Pilot,2022.1.3,MacIntel,58.82352941,62c50e9c1127f2cd403a315f,0,68,68,67,1,twofour,,,,,,,,,,,,,,,,,,,,,,,,,,,,,,,,,,,,,,,,,,,,,,,,,,,,,,,,,,,,,,,,,,,,,,,,,,,,,,,,,,,,,,,,,,,,,,,,,,,,,,,,,,,,,,,,,,,,,,,,,,,,,,,,,,,,,,,,,,,,,,,,,,,,,,,,,,,,,
,,,,,,5f5fb8b24fa1c805957b037b,62c539fb536cb3d3e32aaec1,2022-07-06_09h30.32.556,Colour_Asymmetry_Pilot,2022.1.3,MacIntel,58.82352941,62c50e9c1127f2cd403a315f,0,69,69,159,1,fourthree,,,,,,,,,,,,,,,,,,,,,,,,,,,,,,,,,,,,,,,,,,,,,,,,,,,,,,,,,,,,,,,,,,,,,,,,,,,,,,,,,,,,,,,,,,,,,,,,,,,,,,,,,,,,,,,,,,,,,,,,,,,,,,,,,,,,,,,,,,,,,,,,,,,,,,,,,,,,,
,,,,,,5f5fb8b24fa1c805957b037b,62c539fb536cb3d3e32aaec1,2022-07-06_09h30.32.556,Colour_Asymmetry_Pilot,2022.1.3,MacIntel,58.82352941,62c50e9c1127f2cd403a315f,0,70,70,37,1,threefour,,,,,,,,,,,,,,,,,,,,,,,,,,,,,,,,,,,,,,,,,,,,,,,,,,,,,,,,,,,,,,,,,,,,,,,,,,,,,,,,,,,,,,,,,,,,,,,,,,,,,,,,,,,,,,,,,,,,,,,,,,,,,,,,,,,,,,,,,,,,,,,,,,,,,,,,,,,,,
,,,,,,5f5fb8b24fa1c805957b037b,62c539fb536cb3d3e32aaec1,2022-07-06_09h30.32.556,Colour_Asymmetry_Pilot,2022.1.3,MacIntel,58.82352941,62c50e9c1127f2cd403a315f,0,71,71,34,1,twoone,,,,,,,,,,,,,,,,,,,,,,,,,,,,,,,,,,,,,,,,,,,,,,,,,,,,,,,,,,,,,,,,,,,,,,,,,,,,,,,,,,,,,,,,,,,,,,,,,,,,,,,,,,,,,,,,,,,,,,,,,,,,,,,,,,,,,,,,,,,,,,,,,,,,,,,,,,,,,
,,,,,,5f5fb8b24fa1c805957b037b,62c539fb536cb3d3e32aaec1,2022-07-06_09h30.32.556,Colour_Asymmetry_Pilot,2022.1.3,MacIntel,58.82352941,62c50e9c1127f2cd403a315f,0,72,72,39,1,fourthree,,,,,,,,,,,,,,,,,,,,,,,,,,,,,,,,,,,,,,,,,,,,,,,,,,,,,,,,,,,,,,,,,,,,,,,,,,,,,,,,,,,,,,,,,,,,,,,,,,,,,,,,,,,,,,,,,,,,,,,,,,,,,,,,,,,,,,,,,,,,,,,,,,,,,,,,,,,,,
,,,,,,5f5fb8b24fa1c805957b037b,62c539fb536cb3d3e32aaec1,2022-07-06_09h30.32.556,Colour_Asymmetry_Pilot,2022.1.3,MacIntel,58.82352941,62c50e9c1127f2cd403a315f,0,73,73,68,1,threeone,,,,,,,,,,,,,,,,,,,,,,,,,,,,,,,,,,,,,,,,,,,,,,,,,,,,,,,,,,,,,,,,,,,,,,,,,,,,,,,,,,,,,,,,,,,,,,,,,,,,,,,,,,,,,,,,,,,,,,,,,,,,,,,,,,,,,,,,,,,,,,,,,,,,,,,,,,,,,
,,,,,,5f5fb8b24fa1c805957b037b,62c539fb536cb3d3e32aaec1,2022-07-06_09h30.32.556,Colour_Asymmetry_Pilot,2022.1.3,MacIntel,58.82352941,62c50e9c1127f2cd403a315f,0,74,74,112,1,onetwo,,,,,,,,,,,,,,,,,,,,,,,,,,,,,,,,,,,,,,,,,,,,,,,,,,,,,,,,,,,,,,,,,,,,,,,,,,,,,,,,,,,,,,,,,,,,,,,,,,,,,,,,,,,,,,,,,,,,,,,,,,,,,,,,,,,,,,,,,,,,,,,,,,,,,,,,,,,,,
,,,,,,5f5fb8b24fa1c805957b037b,62c539fb536cb3d3e32aaec1,2022-07-06_09h30.32.556,Colour_Asymmetry_Pilot,2022.1.3,MacIntel,58.82352941,62c50e9c1127f2cd403a315f,0,75,75,13,1,threefour,,,,,,,,,,,,,,,,,,,,,,,,,,,,,,,,,,,,,,,,,,,,,,,,,,,,,,,,,,,,,,,,,,,,,,,,,,,,,,,,,,,,,,,,,,,,,,,,,,,,,,,,,,,,,,,,,,,,,,,,,,,,,,,,,,,,,,,,,,,,,,,,,,,,,,,,,,,,,
,,,,,,5f5fb8b24fa1c805957b037b,62c539fb536cb3d3e32aaec1,2022-07-06_09h30.32.556,Colour_Asymmetry_Pilot,2022.1.3,MacIntel,58.82352941,62c50e9c1127f2cd403a315f,0,76,76,100,1,threeone,,,,,,,,,,,,,,,,,,,,,,,,,,,,,,,,,,,,,,,,,,,,,,,,,,,,,,,,,,,,,,,,,,,,,,,,,,,,,,,,,,,,,,,,,,,,,,,,,,,,,,,,,,,,,,,,,,,,,,,,,,,,,,,,,,,,,,,,,,,,,,,,,,,,,,,,,,,,,
,,,,,,5f5fb8b24fa1c805957b037b,62c539fb536cb3d3e32aaec1,2022-07-06_09h30.32.556,Colour_Asymmetry_Pilot,2022.1.3,MacIntel,58.82352941,62c50e9c1127f2cd403a315f,0,77,77,158,1,fourtwo,,,,,,,,,,,,,,,,,,,,,,,,,,,,,,,,,,,,,,,,,,,,,,,,,,,,,,,,,,,,,,,,,,,,,,,,,,,,,,,,,,,,,,,,,,,,,,,,,,,,,,,,,,,,,,,,,,,,,,,,,,,,,,,,,,,,,,,,,,,,,,,,,,,,,,,,,,,,,
,,,,,,5f5fb8b24fa1c805957b037b,62c539fb536cb3d3e32aaec1,2022-07-06_09h30.32.556,Colour_Asymmetry_Pilot,2022.1.3,MacIntel,58.82352941,62c50e9c1127f2cd403a315f,0,78,78,53,1,threefour,,,,,,,,,,,,,,,,,,,,,,,,,,,,,,,,,,,,,,,,,,,,,,,,,,,,,,,,,,,,,,,,,,,,,,,,,,,,,,,,,,,,,,,,,,,,,,,,,,,,,,,,,,,,,,,,,,,,,,,,,,,,,,,,,,,,,,,,,,,,,,,,,,,,,,,,,,,,,
,,,,,,5f5fb8b24fa1c805957b037b,62c539fb536cb3d3e32aaec1,2022-07-06_09h30.32.556,Colour_Asymmetry_Pilot,2022.1.3,MacIntel,58.82352941,62c50e9c1127f2cd403a315f,0,79,79,43,1,twofour,,,,,,,,,,,,,,,,,,,,,,,,,,,,,,,,,,,,,,,,,,,,,,,,,,,,,,,,,,,,,,,,,,,,,,,,,,,,,,,,,,,,,,,,,,,,,,,,,,,,,,,,,,,,,,,,,,,,,,,,,,,,,,,,,,,,,,,,,,,,,,,,,,,,,,,,,,,,,
,,,,,,5f5fb8b24fa1c805957b037b,62c539fb536cb3d3e32aaec1,2022-07-06_09h30.32.556,Colour_Asymmetry_Pilot,2022.1.3,MacIntel,58.82352941,62c50e9c1127f2cd403a315f,0,80,80,16,1,onetwo,,,,,,,,,,,,,,,,,,,,,,,,,,,,,,,,,,,,,,,,,,,,,,,,,,,,,,,,,,,,,,,,,,,,,,,,,,,,,,,,,,,,,,,,,,,,,,,,,,,,,,,,,,,,,,,,,,,,,,,,,,,,,,,,,,,,,,,,,,,,,,,,,,,,,,,,,,,,,
,,,,,,5f5fb8b24fa1c805957b037b,62c539fb536cb3d3e32aaec1,2022-07-06_09h30.32.556,Colour_Asymmetry_Pilot,2022.1.3,MacIntel,58.82352941,62c50e9c1127f2cd403a315f,0,81,81,48,1,onetwo,,,,,,,,,,,,,,,,,,,,,,,,,,,,,,,,,,,,,,,,,,,,,,,,,,,,,,,,,,,,,,,,,,,,,,,,,,,,,,,,,,,,,,,,,,,,,,,,,,,,,,,,,,,,,,,,,,,,,,,,,,,,,,,,,,,,,,,,,,,,,,,,,,,,,,,,,,,,,
,,,,,,5f5fb8b24fa1c805957b037b,62c539fb536cb3d3e32aaec1,2022-07-06_09h30.32.556,Colour_Asymmetry_Pilot,2022.1.3,MacIntel,58.82352941,62c50e9c1127f2cd403a315f,0,82,82,71,1,fourthree,,,,,,,,,,,,,,,,,,,,,,,,,,,,,,,,,,,,,,,,,,,,,,,,,,,,,,,,,,,,,,,,,,,,,,,,,,,,,,,,,,,,,,,,,,,,,,,,,,,,,,,,,,,,,,,,,,,,,,,,,,,,,,,,,,,,,,,,,,,,,,,,,,,,,,,,,,,,,
,,,,,,5f5fb8b24fa1c805957b037b,62c539fb536cb3d3e32aaec1,2022-07-06_09h30.32.556,Colour_Asymmetry_Pilot,2022.1.3,MacIntel,58.82352941,62c50e9c1127f2cd403a315f,0,83,83,134,1,fourtwo,,,,,,,,,,,,,,,,,,,,,,,,,,,,,,,,,,,,,,,,,,,,,,,,,,,,,,,,,,,,,,,,,,,,,,,,,,,,,,,,,,,,,,,,,,,,,,,,,,,,,,,,,,,,,,,,,,,,,,,,,,,,,,,,,,,,,,,,,,,,,,,,,,,,,,,,,,,,,
,,,,,,5f5fb8b24fa1c805957b037b,62c539fb536cb3d3e32aaec1,2022-07-06_09h30.32.556,Colour_Asymmetry_Pilot,2022.1.3,MacIntel,58.82352941,62c50e9c1127f2cd403a315f,0,84,84,75,1,twofour,,,,,,,,,,,,,,,,,,,,,,,,,,,,,,,,,,,,,,,,,,,,,,,,,,,,,,,,,,,,,,,,,,,,,,,,,,,,,,,,,,,,,,,,,,,,,,,,,,,,,,,,,,,,,,,,,,,,,,,,,,,,,,,,,,,,,,,,,,,,,,,,,,,,,,,,,,,,,
,,,,,,5f5fb8b24fa1c805957b037b,62c539fb536cb3d3e32aaec1,2022-07-06_09h30.32.556,Colour_Asymmetry_Pilot,2022.1.3,MacIntel,58.82352941,62c50e9c1127f2cd403a315f,0,85,85,122,1,twoone,,,,,,,,,,,,,,,,,,,,,,,,,,,,,,,,,,,,,,,,,,,,,,,,,,,,,,,,,,,,,,,,,,,,,,,,,,,,,,,,,,,,,,,,,,,,,,,,,,,,,,,,,,,,,,,,,,,,,,,,,,,,,,,,,,,,,,,,,,,,,,,,,,,,,,,,,,,,,
,,,,,,5f5fb8b24fa1c805957b037b,62c539fb536cb3d3e32aaec1,2022-07-06_09h30.32.556,Colour_Asymmetry_Pilot,2022.1.3,MacIntel,58.82352941,62c50e9c1127f2cd403a315f,0,86,86,83,1,twofour,,,,,,,,,,,,,,,,,,,,,,,,,,,,,,,,,,,,,,,,,,,,,,,,,,,,,,,,,,,,,,,,,,,,,,,,,,,,,,,,,,,,,,,,,,,,,,,,,,,,,,,,,,,,,,,,,,,,,,,,,,,,,,,,,,,,,,,,,,,,,,,,,,,,,,,,,,,,,
,,,,,,5f5fb8b24fa1c805957b037b,62c539fb536cb3d3e32aaec1,2022-07-06_09h30.32.556,Colour_Asymmetry_Pilot,2022.1.3,MacIntel,58.82352941,62c50e9c1127f2cd403a315f,0,87,87,129,1,onethree,,,,,,,,,,,,,,,,,,,,,,,,,,,,,,,,,,,,,,,,,,,,,,,,,,,,,,,,,,,,,,,,,,,,,,,,,,,,,,,,,,,,,,,,,,,,,,,,,,,,,,,,,,,,,,,,,,,,,,,,,,,,,,,,,,,,,,,,,,,,,,,,,,,,,,,,,,,,,
,,,,,,5f5fb8b24fa1c805957b037b,62c539fb536cb3d3e32aaec1,2022-07-06_09h30.32.556,Colour_Asymmetry_Pilot,2022.1.3,MacIntel,58.82352941,62c50e9c1127f2cd403a315f,0,88,88,130,1,twoone,,,,,,,,,,,,,,,,,,,,,,,,,,,,,,,,,,,,,,,,,,,,,,,,,,,,,,,,,,,,,,,,,,,,,,,,,,,,,,,,,,,,,,,,,,,,,,,,,,,,,,,,,,,,,,,,,,,,,,,,,,,,,,,,,,,,,,,,,,,,,,,,,,,,,,,,,,,,,
,,,,,,5f5fb8b24fa1c805957b037b,62c539fb536cb3d3e32aaec1,2022-07-06_09h30.32.556,Colour_Asymmetry_Pilot,2022.1.3,MacIntel,58.82352941,62c50e9c1127f2cd403a315f,0,89,89,155,1,twofour,,,,,,,,,,,,,,,,,,,,,,,,,,,,,,,,,,,,,,,,,,,,,,,,,,,,,,,,,,,,,,,,,,,,,,,,,,,,,,,,,,,,,,,,,,,,,,,,,,,,,,,,,,,,,,,,,,,,,,,,,,,,,,,,,,,,,,,,,,,,,,,,,,,,,,,,,,,,,
,,,,,,5f5fb8b24fa1c805957b037b,62c539fb536cb3d3e32aaec1,2022-07-06_09h30.32.556,Colour_Asymmetry_Pilot,2022.1.3,MacIntel,58.82352941,62c50e9c1127f2cd403a315f,0,90,90,46,1,fourtwo,,,,,,,,,,,,,,,,,,,,,,,,,,,,,,,,,,,,,,,,,,,,,,,,,,,,,,,,,,,,,,,,,,,,,,,,,,,,,,,,,,,,,,,,,,,,,,,,,,,,,,,,,,,,,,,,,,,,,,,,,,,,,,,,,,,,,,,,,,,,,,,,,,,,,,,,,,,,,
,,,,,,5f5fb8b24fa1c805957b037b,62c539fb536cb3d3e32aaec1,2022-07-06_09h30.32.556,Colour_Asymmetry_Pilot,2022.1.3,MacIntel,58.82352941,62c50e9c1127f2cd403a315f,0,91,91,78,1,fourtwo,,,,,,,,,,,,,,,,,,,,,,,,,,,,,,,,,,,,,,,,,,,,,,,,,,,,,,,,,,,,,,,,,,,,,,,,,,,,,,,,,,,,,,,,,,,,,,,,,,,,,,,,,,,,,,,,,,,,,,,,,,,,,,,,,,,,,,,,,,,,,,,,,,,,,,,,,,,,,
,,,,,,5f5fb8b24fa1c805957b037b,62c539fb536cb3d3e32aaec1,2022-07-06_09h30.32.556,Colour_Asymmetry_Pilot,2022.1.3,MacIntel,58.82352941,62c50e9c1127f2cd403a315f,0,92,92,23,1,fourthree,,,,,,,,,,,,,,,,,,,,,,,,,,,,,,,,,,,,,,,,,,,,,,,,,,,,,,,,,,,,,,,,,,,,,,,,,,,,,,,,,,,,,,,,,,,,,,,,,,,,,,,,,,,,,,,,,,,,,,,,,,,,,,,,,,,,,,,,,,,,,,,,,,,,,,,,,,,,,
,,,,,,5f5fb8b24fa1c805957b037b,62c539fb536cb3d3e32aaec1,2022-07-06_09h30.32.556,Colour_Asymmetry_Pilot,2022.1.3,MacIntel,58.82352941,62c50e9c1127f2cd403a315f,0,93,93,55,1,fourthree,,,,,,,,,,,,,,,,,,,,,,,,,,,,,,,,,,,,,,,,,,,,,,,,,,,,,,,,,,,,,,,,,,,,,,,,,,,,,,,,,,,,,,,,,,,,,,,,,,,,,,,,,,,,,,,,,,,,,,,,,,,,,,,,,,,,,,,,,,,,,,,,,,,,,,,,,,,,,
,,,,,,5f5fb8b24fa1c805957b037b,62c539fb536cb3d3e32aaec1,2022-07-06_09h30.32.556,Colour_Asymmetry_Pilot,2022.1.3,MacIntel,58.82352941,62c50e9c1127f2cd403a315f,0,94,94,149,1,threefour,,,,,,,,,,,,,,,,,,,,,,,,,,,,,,,,,,,,,,,,,,,,,,,,,,,,,,,,,,,,,,,,,,,,,,,,,,,,,,,,,,,,,,,,,,,,,,,,,,,,,,,,,,,,,,,,,,,,,,,,,,,,,,,,,,,,,,,,,,,,,,,,,,,,,,,,,,,,,
,,,,,,5f5fb8b24fa1c805957b037b,62c539fb536cb3d3e32aaec1,2022-07-06_09h30.32.556,Colour_Asymmetry_Pilot,2022.1.3,MacIntel,58.82352941,62c50e9c1127f2cd403a315f,0,95,95,111,1,fourthree,,,,,,,,,,,,,,,,,,,,,,,,,,,,,,,,,,,,,,,,,,,,,,,,,,,,,,,,,,,,,,,,,,,,,,,,,,,,,,,,,,,,,,,,,,,,,,,,,,,,,,,,,,,,,,,,,,,,,,,,,,,,,,,,,,,,,,,,,,,,,,,,,,,,,,,,,,,,,
,,,,,,5f5fb8b24fa1c805957b037b,62c539fb536cb3d3e32aaec1,2022-07-06_09h30.32.556,Colour_Asymmetry_Pilot,2022.1.3,MacIntel,58.82352941,62c50e9c1127f2cd403a315f,0,96,96,21,1,threefour,,,,,,,,,,,,,,,,,,,,,,,,,,,,,,,,,,,,,,,,,,,,,,,,,,,,,,,,,,,,,,,,,,,,,,,,,,,,,,,,,,,,,,,,,,,,,,,,,,,,,,,,,,,,,,,,,,,,,,,,,,,,,,,,,,,,,,,,,,,,,,,,,,,,,,,,,,,,,
,,,,,,5f5fb8b24fa1c805957b037b,62c539fb536cb3d3e32aaec1,2022-07-06_09h30.32.556,Colour_Asymmetry_Pilot,2022.1.3,MacIntel,58.82352941,62c50e9c1127f2cd403a315f,0,97,97,152,1,onetwo,,,,,,,,,,,,,,,,,,,,,,,,,,,,,,,,,,,,,,,,,,,,,,,,,,,,,,,,,,,,,,,,,,,,,,,,,,,,,,,,,,,,,,,,,,,,,,,,,,,,,,,,,,,,,,,,,,,,,,,,,,,,,,,,,,,,,,,,,,,,,,,,,,,,,,,,,,,,,
,,,,,,5f5fb8b24fa1c805957b037b,62c539fb536cb3d3e32aaec1,2022-07-06_09h30.32.556,Colour_Asymmetry_Pilot,2022.1.3,MacIntel,58.82352941,62c50e9c1127f2cd403a315f,0,98,98,154,1,twoone,,,,,,,,,,,,,,,,,,,,,,,,,,,,,,,,,,,,,,,,,,,,,,,,,,,,,,,,,,,,,,,,,,,,,,,,,,,,,,,,,,,,,,,,,,,,,,,,,,,,,,,,,,,,,,,,,,,,,,,,,,,,,,,,,,,,,,,,,,,,,,,,,,,,,,,,,,,,,
,,,,,,5f5fb8b24fa1c805957b037b,62c539fb536cb3d3e32aaec1,2022-07-06_09h30.32.556,Colour_Asymmetry_Pilot,2022.1.3,MacIntel,58.82352941,62c50e9c1127f2cd403a315f,0,99,99,76,1,threeone,,,,,,,,,,,,,,,,,,,,,,,,,,,,,,,,,,,,,,,,,,,,,,,,,,,,,,,,,,,,,,,,,,,,,,,,,,,,,,,,,,,,,,,,,,,,,,,,,,,,,,,,,,,,,,,,,,,,,,,,,,,,,,,,,,,,,,,,,,,,,,,,,,,,,,,,,,,,,
,,,,,,5f5fb8b24fa1c805957b037b,62c539fb536cb3d3e32aaec1,2022-07-06_09h30.32.556,Colour_Asymmetry_Pilot,2022.1.3,MacIntel,58.82352941,62c50e9c1127f2cd403a315f,0,100,100,66,1,twoone,,,,,,,,,,,,,,,,,,,,,,,,,,,,,,,,,,,,,,,,,,,,,,,,,,,,,,,,,,,,,,,,,,,,,,,,,,,,,,,,,,,,,,,,,,,,,,,,,,,,,,,,,,,,,,,,,,,,,,,,,,,,,,,,,,,,,,,,,,,,,,,,,,,,,,,,,,,,,
,,,,,,5f5fb8b24fa1c805957b037b,62c539fb536cb3d3e32aaec1,2022-07-06_09h30.32.556,Colour_Asymmetry_Pilot,2022.1.3,MacIntel,58.82352941,62c50e9c1127f2cd403a315f,0,101,101,26,1,twoone,,,,,,,,,,,,,,,,,,,,,,,,,,,,,,,,,,,,,,,,,,,,,,,,,,,,,,,,,,,,,,,,,,,,,,,,,,,,,,,,,,,,,,,,,,,,,,,,,,,,,,,,,,,,,,,,,,,,,,,,,,,,,,,,,,,,,,,,,,,,,,,,,,,,,,,,,,,,,
,,,,,,5f5fb8b24fa1c805957b037b,62c539fb536cb3d3e32aaec1,2022-07-06_09h30.32.556,Colour_Asymmetry_Pilot,2022.1.3,MacIntel,58.82352941,62c50e9c1127f2cd403a315f,0,102,102,109,1,threefour,,,,,,,,,,,,,,,,,,,,,,,,,,,,,,,,,,,,,,,,,,,,,,,,,,,,,,,,,,,,,,,,,,,,,,,,,,,,,,,,,,,,,,,,,,,,,,,,,,,,,,,,,,,,,,,,,,,,,,,,,,,,,,,,,,,,,,,,,,,,,,,,,,,,,,,,,,,,,
,,,,,,5f5fb8b24fa1c805957b037b,62c539fb536cb3d3e32aaec1,2022-07-06_09h30.32.556,Colour_Asymmetry_Pilot,2022.1.3,MacIntel,58.82352941,62c50e9c1127f2cd403a315f,0,103,103,124,1,threeone,,,,,,,,,,,,,,,,,,,,,,,,,,,,,,,,,,,,,,,,,,,,,,,,,,,,,,,,,,,,,,,,,,,,,,,,,,,,,,,,,,,,,,,,,,,,,,,,,,,,,,,,,,,,,,,,,,,,,,,,,,,,,,,,,,,,,,,,,,,,,,,,,,,,,,,,,,,,,
,,,,,,5f5fb8b24fa1c805957b037b,62c539fb536cb3d3e32aaec1,2022-07-06_09h30.32.556,Colour_Asymmetry_Pilot,2022.1.3,MacIntel,58.82352941,62c50e9c1127f2cd403a315f,0,104,104,8,1,onetwo,,,,,,,,,,,,,,,,,,,,,,,,,,,,,,,,,,,,,,,,,,,,,,,,,,,,,,,,,,,,,,,,,,,,,,,,,,,,,,,,,,,,,,,,,,,,,,,,,,,,,,,,,,,,,,,,,,,,,,,,,,,,,,,,,,,,,,,,,,,,,,,,,,,,,,,,,,,,,
,,,,,,5f5fb8b24fa1c805957b037b,62c539fb536cb3d3e32aaec1,2022-07-06_09h30.32.556,Colour_Asymmetry_Pilot,2022.1.3,MacIntel,58.82352941,62c50e9c1127f2cd403a315f,0,105,105,36,1,threeone,,,,,,,,,,,,,,,,,,,,,,,,,,,,,,,,,,,,,,,,,,,,,,,,,,,,,,,,,,,,,,,,,,,,,,,,,,,,,,,,,,,,,,,,,,,,,,,,,,,,,,,,,,,,,,,,,,,,,,,,,,,,,,,,,,,,,,,,,,,,,,,,,,,,,,,,,,,,,
,,,,,,5f5fb8b24fa1c805957b037b,62c539fb536cb3d3e32aaec1,2022-07-06_09h30.32.556,Colour_Asymmetry_Pilot,2022.1.3,MacIntel,58.82352941,62c50e9c1127f2cd403a315f,0,106,106,47,1,fourthree,,,,,,,,,,,,,,,,,,,,,,,,,,,,,,,,,,,,,,,,,,,,,,,,,,,,,,,,,,,,,,,,,,,,,,,,,,,,,,,,,,,,,,,,,,,,,,,,,,,,,,,,,,,,,,,,,,,,,,,,,,,,,,,,,,,,,,,,,,,,,,,,,,,,,,,,,,,,,
,,,,,,5f5fb8b24fa1c805957b037b,62c539fb536cb3d3e32aaec1,2022-07-06_09h30.32.556,Colour_Asymmetry_Pilot,2022.1.3,MacIntel,58.82352941,62c50e9c1127f2cd403a315f,0,107,107,95,1,fourthree,,,,,,,,,,,,,,,,,,,,,,,,,,,,,,,,,,,,,,,,,,,,,,,,,,,,,,,,,,,,,,,,,,,,,,,,,,,,,,,,,,,,,,,,,,,,,,,,,,,,,,,,,,,,,,,,,,,,,,,,,,,,,,,,,,,,,,,,,,,,,,,,,,,,,,,,,,,,,
,,,,,,5f5fb8b24fa1c805957b037b,62c539fb536cb3d3e32aaec1,2022-07-06_09h30.32.556,Colour_Asymmetry_Pilot,2022.1.3,MacIntel,58.82352941,62c50e9c1127f2cd403a315f,0,108,108,102,1,fourtwo,,,,,,,,,,,,,,,,,,,,,,,,,,,,,,,,,,,,,,,,,,,,,,,,,,,,,,,,,,,,,,,,,,,,,,,,,,,,,,,,,,,,,,,,,,,,,,,,,,,,,,,,,,,,,,,,,,,,,,,,,,,,,,,,,,,,,,,,,,,,,,,,,,,,,,,,,,,,,
,,,,,,5f5fb8b24fa1c805957b037b,62c539fb536cb3d3e32aaec1,2022-07-06_09h30.32.556,Colour_Asymmetry_Pilot,2022.1.3,MacIntel,58.82352941,62c50e9c1127f2cd403a315f,0,109,109,69,1,threefour,,,,,,,,,,,,,,,,,,,,,,,,,,,,,,,,,,,,,,,,,,,,,,,,,,,,,,,,,,,,,,,,,,,,,,,,,,,,,,,,,,,,,,,,,,,,,,,,,,,,,,,,,,,,,,,,,,,,,,,,,,,,,,,,,,,,,,,,,,,,,,,,,,,,,,,,,,,,,
,,,,,,5f5fb8b24fa1c805957b037b,62c539fb536cb3d3e32aaec1,2022-07-06_09h30.32.556,Colour_Asymmetry_Pilot,2022.1.3,MacIntel,58.82352941,62c50e9c1127f2cd403a315f,0,110,110,118,1,fourtwo,,,,,,,,,,,,,,,,,,,,,,,,,,,,,,,,,,,,,,,,,,,,,,,,,,,,,,,,,,,,,,,,,,,,,,,,,,,,,,,,,,,,,,,,,,,,,,,,,,,,,,,,,,,,,,,,,,,,,,,,,,,,,,,,,,,,,,,,,,,,,,,,,,,,,,,,,,,,,
,,,,,,5f5fb8b24fa1c805957b037b,62c539fb536cb3d3e32aaec1,2022-07-06_09h30.32.556,Colour_Asymmetry_Pilot,2022.1.3,MacIntel,58.82352941,62c50e9c1127f2cd403a315f,0,111,111,61,1,threefour,,,,,,,,,,,,,,,,,,,,,,,,,,,,,,,,,,,,,,,,,,,,,,,,,,,,,,,,,,,,,,,,,,,,,,,,,,,,,,,,,,,,,,,,,,,,,,,,,,,,,,,,,,,,,,,,,,,,,,,,,,,,,,,,,,,,,,,,,,,,,,,,,,,,,,,,,,,,,
,,,,,,5f5fb8b24fa1c805957b037b,62c539fb536cb3d3e32aaec1,2022-07-06_09h30.32.556,Colour_Asymmetry_Pilot,2022.1.3,MacIntel,58.82352941,62c50e9c1127f2cd403a315f,0,112,112,82,1,twoone,,,,,,,,,,,,,,,,,,,,,,,,,,,,,,,,,,,,,,,,,,,,,,,,,,,,,,,,,,,,,,,,,,,,,,,,,,,,,,,,,,,,,,,,,,,,,,,,,,,,,,,,,,,,,,,,,,,,,,,,,,,,,,,,,,,,,,,,,,,,,,,,,,,,,,,,,,,,,
,,,,,,5f5fb8b24fa1c805957b037b,62c539fb536cb3d3e32aaec1,2022-07-06_09h30.32.556,Colour_Asymmetry_Pilot,2022.1.3,MacIntel,58.82352941,62c50e9c1127f2cd403a315f,0,113,113,80,1,onetwo,,,,,,,,,,,,,,,,,,,,,,,,,,,,,,,,,,,,,,,,,,,,,,,,,,,,,,,,,,,,,,,,,,,,,,,,,,,,,,,,,,,,,,,,,,,,,,,,,,,,,,,,,,,,,,,,,,,,,,,,,,,,,,,,,,,,,,,,,,,,,,,,,,,,,,,,,,,,,
,,,,,,5f5fb8b24fa1c805957b037b,62c539fb536cb3d3e32aaec1,2022-07-06_09h30.32.556,Colour_Asymmetry_Pilot,2022.1.3,MacIntel,58.82352941,62c50e9c1127f2cd403a315f,0,114,114,45,1,threefour,,,,,,,,,,,,,,,,,,,,,,,,,,,,,,,,,,,,,,,,,,,,,,,,,,,,,,,,,,,,,,,,,,,,,,,,,,,,,,,,,,,,,,,,,,,,,,,,,,,,,,,,,,,,,,,,,,,,,,,,,,,,,,,,,,,,,,,,,,,,,,,,,,,,,,,,,,,,,
,,,,,,5f5fb8b24fa1c805957b037b,62c539fb536cb3d3e32aaec1,2022-07-06_09h30.32.556,Colour_Asymmetry_Pilot,2022.1.3,MacIntel,58.82352941,62c50e9c1127f2cd403a315f,0,115,115,153,1,onethree,,,,,,,,,,,,,,,,,,,,,,,,,,,,,,,,,,,,,,,,,,,,,,,,,,,,,,,,,,,,,,,,,,,,,,,,,,,,,,,,,,,,,,,,,,,,,,,,,,,,,,,,,,,,,,,,,,,,,,,,,,,,,,,,,,,,,,,,,,,,,,,,,,,,,,,,,,,,,
,,,,,,5f5fb8b24fa1c805957b037b,62c539fb536cb3d3e32aaec1,2022-07-06_09h30.32.556,Colour_Asymmetry_Pilot,2022.1.3,MacIntel,58.82352941,62c50e9c1127f2cd403a315f,0,116,116,97,1,onethree,,,,,,,,,,,,,,,,,,,,,,,,,,,,,,,,,,,,,,,,,,,,,,,,,,,,,,,,,,,,,,,,,,,,,,,,,,,,,,,,,,,,,,,,,,,,,,,,,,,,,,,,,,,,,,,,,,,,,,,,,,,,,,,,,,,,,,,,,,,,,,,,,,,,,,,,,,,,,
,,,,,,5f5fb8b24fa1c805957b037b,62c539fb536cb3d3e32aaec1,2022-07-06_09h30.32.556,Colour_Asymmetry_Pilot,2022.1.3,MacIntel,58.82352941,62c50e9c1127f2cd403a315f,0,117,117,40,1,onetwo,,,,,,,,,,,,,,,,,,,,,,,,,,,,,,,,,,,,,,,,,,,,,,,,,,,,,,,,,,,,,,,,,,,,,,,,,,,,,,,,,,,,,,,,,,,,,,,,,,,,,,,,,,,,,,,,,,,,,,,,,,,,,,,,,,,,,,,,,,,,,,,,,,,,,,,,,,,,,
,,,,,,5f5fb8b24fa1c805957b037b,62c539fb536cb3d3e32aaec1,2022-07-06_09h30.32.556,Colour_Asymmetry_Pilot,2022.1.3,MacIntel,58.82352941,62c50e9c1127f2cd403a315f,0,118,118,119,1,fourthree,,,,,,,,,,,,,,,,,,,,,,,,,,,,,,,,,,,,,,,,,,,,,,,,,,,,,,,,,,,,,,,,,,,,,,,,,,,,,,,,,,,,,,,,,,,,,,,,,,,,,,,,,,,,,,,,,,,,,,,,,,,,,,,,,,,,,,,,,,,,,,,,,,,,,,,,,,,,,
,,,,,,5f5fb8b24fa1c805957b037b,62c539fb536cb3d3e32aaec1,2022-07-06_09h30.32.556,Colour_Asymmetry_Pilot,2022.1.3,MacIntel,58.82352941,62c50e9c1127f2cd403a315f,0,119,119,63,1,fourthree,,,,,,,,,,,,,,,,,,,,,,,,,,,,,,,,,,,,,,,,,,,,,,,,,,,,,,,,,,,,,,,,,,,,,,,,,,,,,,,,,,,,,,,,,,,,,,,,,,,,,,,,,,,,,,,,,,,,,,,,,,,,,,,,,,,,,,,,,,,,,,,,,,,,,,,,,,,,,
,,,,,,5f5fb8b24fa1c805957b037b,62c539fb536cb3d3e32aaec1,2022-07-06_09h30.32.556,Colour_Asymmetry_Pilot,2022.1.3,MacIntel,58.82352941,62c50e9c1127f2cd403a315f,0,120,120,150,1,fourtwo,,,,,,,,,,,,,,,,,,,,,,,,,,,,,,,,,,,,,,,,,,,,,,,,,,,,,,,,,,,,,,,,,,,,,,,,,,,,,,,,,,,,,,,,,,,,,,,,,,,,,,,,,,,,,,,,,,,,,,,,,,,,,,,,,,,,,,,,,,,,,,,,,,,,,,,,,,,,,
,,,,,,5f5fb8b24fa1c805957b037b,62c539fb536cb3d3e32aaec1,2022-07-06_09h30.32.556,Colour_Asymmetry_Pilot,2022.1.3,MacIntel,58.82352941,62c50e9c1127f2cd403a315f,0,121,121,22,1,fourtwo,,,,,,,,,,,,,,,,,,,,,,,,,,,,,,,,,,,,,,,,,,,,,,,,,,,,,,,,,,,,,,,,,,,,,,,,,,,,,,,,,,,,,,,,,,,,,,,,,,,,,,,,,,,,,,,,,,,,,,,,,,,,,,,,,,,,,,,,,,,,,,,,,,,,,,,,,,,,,
,,,,,,5f5fb8b24fa1c805957b037b,62c539fb536cb3d3e32aaec1,2022-07-06_09h30.32.556,Colour_Asymmetry_Pilot,2022.1.3,MacIntel,58.82352941,62c50e9c1127f2cd403a315f,0,122,122,139,1,twofour,,,,,,,,,,,,,,,,,,,,,,,,,,,,,,,,,,,,,,,,,,,,,,,,,,,,,,,,,,,,,,,,,,,,,,,,,,,,,,,,,,,,,,,,,,,,,,,,,,,,,,,,,,,,,,,,,,,,,,,,,,,,,,,,,,,,,,,,,,,,,,,,,,,,,,,,,,,,,
,,,,,,5f5fb8b24fa1c805957b037b,62c539fb536cb3d3e32aaec1,2022-07-06_09h30.32.556,Colour_Asymmetry_Pilot,2022.1.3,MacIntel,58.82352941,62c50e9c1127f2cd403a315f,0,123,123,9,1,onethree,,,,,,,,,,,,,,,,,,,,,,,,,,,,,,,,,,,,,,,,,,,,,,,,,,,,,,,,,,,,,,,,,,,,,,,,,,,,,,,,,,,,,,,,,,,,,,,,,,,,,,,,,,,,,,,,,,,,,,,,,,,,,,,,,,,,,,,,,,,,,,,,,,,,,,,,,,,,,
,,,,,,5f5fb8b24fa1c805957b037b,62c539fb536cb3d3e32aaec1,2022-07-06_09h30.32.556,Colour_Asymmetry_Pilot,2022.1.3,MacIntel,58.82352941,62c50e9c1127f2cd403a315f,0,124,124,99,1,twofour,,,,,,,,,,,,,,,,,,,,,,,,,,,,,,,,,,,,,,,,,,,,,,,,,,,,,,,,,,,,,,,,,,,,,,,,,,,,,,,,,,,,,,,,,,,,,,,,,,,,,,,,,,,,,,,,,,,,,,,,,,,,,,,,,,,,,,,,,,,,,,,,,,,,,,,,,,,,,
,,,,,,5f5fb8b24fa1c805957b037b,62c539fb536cb3d3e32aaec1,2022-07-06_09h30.32.556,Colour_Asymmetry_Pilot,2022.1.3,MacIntel,58.82352941,62c50e9c1127f2cd403a315f,0,125,125,84,1,threeone,,,,,,,,,,,,,,,,,,,,,,,,,,,,,,,,,,,,,,,,,,,,,,,,,,,,,,,,,,,,,,,,,,,,,,,,,,,,,,,,,,,,,,,,,,,,,,,,,,,,,,,,,,,,,,,,,,,,,,,,,,,,,,,,,,,,,,,,,,,,,,,,,,,,,,,,,,,,,
,,,,,,5f5fb8b24fa1c805957b037b,62c539fb536cb3d3e32aaec1,2022-07-06_09h30.32.556,Colour_Asymmetry_Pilot,2022.1.3,MacIntel,58.82352941,62c50e9c1127f2cd403a315f,0,126,126,101,1,threefour,,,,,,,,,,,,,,,,,,,,,,,,,,,,,,,,,,,,,,,,,,,,,,,,,,,,,,,,,,,,,,,,,,,,,,,,,,,,,,,,,,,,,,,,,,,,,,,,,,,,,,,,,,,,,,,,,,,,,,,,,,,,,,,,,,,,,,,,,,,,,,,,,,,,,,,,,,,,,
,,,,,,5f5fb8b24fa1c805957b037b,62c539fb536cb3d3e32aaec1,2022-07-06_09h30.32.556,Colour_Asymmetry_Pilot,2022.1.3,MacIntel,58.82352941,62c50e9c1127f2cd403a315f,0,127,127,56,1,onetwo,,,,,,,,,,,,,,,,,,,,,,,,,,,,,,,,,,,,,,,,,,,,,,,,,,,,,,,,,,,,,,,,,,,,,,,,,,,,,,,,,,,,,,,,,,,,,,,,,,,,,,,,,,,,,,,,,,,,,,,,,,,,,,,,,,,,,,,,,,,,,,,,,,,,,,,,,,,,,
,,,,,,5f5fb8b24fa1c805957b037b,62c539fb536cb3d3e32aaec1,2022-07-06_09h30.32.556,Colour_Asymmetry_Pilot,2022.1.3,MacIntel,58.82352941,62c50e9c1127f2cd403a315f,0,128,128,88,1,onetwo,,,,,,,,,,,,,,,,,,,,,,,,,,,,,,,,,,,,,,,,,,,,,,,,,,,,,,,,,,,,,,,,,,,,,,,,,,,,,,,,,,,,,,,,,,,,,,,,,,,,,,,,,,,,,,,,,,,,,,,,,,,,,,,,,,,,,,,,,,,,,,,,,,,,,,,,,,,,,
,,,,,,5f5fb8b24fa1c805957b037b,62c539fb536cb3d3e32aaec1,2022-07-06_09h30.32.556,Colour_Asymmetry_Pilot,2022.1.3,MacIntel,58.82352941,62c50e9c1127f2cd403a315f,0,129,129,30,1,fourtwo,,,,,,,,,,,,,,,,,,,,,,,,,,,,,,,,,,,,,,,,,,,,,,,,,,,,,,,,,,,,,,,,,,,,,,,,,,,,,,,,,,,,,,,,,,,,,,,,,,,,,,,,,,,,,,,,,,,,,,,,,,,,,,,,,,,,,,,,,,,,,,,,,,,,,,,,,,,,,
,,,,,,5f5fb8b24fa1c805957b037b,62c539fb536cb3d3e32aaec1,2022-07-06_09h30.32.556,Colour_Asymmetry_Pilot,2022.1.3,MacIntel,58.82352941,62c50e9c1127f2cd403a315f,0,130,130,2,1,twoone,,,,,,,,,,,,,,,,,,,,,,,,,,,,,,,,,,,,,,,,,,,,,,,,,,,,,,,,,,,,,,,,,,,,,,,,,,,,,,,,,,,,,,,,,,,,,,,,,,,,,,,,,,,,,,,,,,,,,,,,,,,,,,,,,,,,,,,,,,,,,,,,,,,,,,,,,,,,,
,,,,,,5f5fb8b24fa1c805957b037b,62c539fb536cb3d3e32aaec1,2022-07-06_09h30.32.556,Colour_Asymmetry_Pilot,2022.1.3,MacIntel,58.82352941,62c50e9c1127f2cd403a315f,0,131,131,72,1,onetwo,,,,,,,,,,,,,,,,,,,,,,,,,,,,,,,,,,,,,,,,,,,,,,,,,,,,,,,,,,,,,,,,,,,,,,,,,,,,,,,,,,,,,,,,,,,,,,,,,,,,,,,,,,,,,,,,,,,,,,,,,,,,,,,,,,,,,,,,,,,,,,,,,,,,,,,,,,,,,
,,,,,,5f5fb8b24fa1c805957b037b,62c539fb536cb3d3e32aaec1,2022-07-06_09h30.32.556,Colour_Asymmetry_Pilot,2022.1.3,MacIntel,58.82352941,62c50e9c1127f2cd403a315f,0,132,132,121,1,onethree,,,,,,,,,,,,,,,,,,,,,,,,,,,,,,,,,,,,,,,,,,,,,,,,,,,,,,,,,,,,,,,,,,,,,,,,,,,,,,,,,,,,,,,,,,,,,,,,,,,,,,,,,,,,,,,,,,,,,,,,,,,,,,,,,,,,,,,,,,,,,,,,,,,,,,,,,,,,,
,,,,,,5f5fb8b24fa1c805957b037b,62c539fb536cb3d3e32aaec1,2022-07-06_09h30.32.556,Colour_Asymmetry_Pilot,2022.1.3,MacIntel,58.82352941,62c50e9c1127f2cd403a315f,0,133,133,103,1,fourthree,,,,,,,,,,,,,,,,,,,,,,,,,,,,,,,,,,,,,,,,,,,,,,,,,,,,,,,,,,,,,,,,,,,,,,,,,,,,,,,,,,,,,,,,,,,,,,,,,,,,,,,,,,,,,,,,,,,,,,,,,,,,,,,,,,,,,,,,,,,,,,,,,,,,,,,,,,,,,
,,,,,,5f5fb8b24fa1c805957b037b,62c539fb536cb3d3e32aaec1,2022-07-06_09h30.32.556,Colour_Asymmetry_Pilot,2022.1.3,MacIntel,58.82352941,62c50e9c1127f2cd403a315f,0,134,134,10,1,twoone,,,,,,,,,,,,,,,,,,,,,,,,,,,,,,,,,,,,,,,,,,,,,,,,,,,,,,,,,,,,,,,,,,,,,,,,,,,,,,,,,,,,,,,,,,,,,,,,,,,,,,,,,,,,,,,,,,,,,,,,,,,,,,,,,,,,,,,,,,,,,,,,,,,,,,,,,,,,,
,,,,,,5f5fb8b24fa1c805957b037b,62c539fb536cb3d3e32aaec1,2022-07-06_09h30.32.556,Colour_Asymmetry_Pilot,2022.1.3,MacIntel,58.82352941,62c50e9c1127f2cd403a315f,0,135,135,126,1,fourtwo,,,,,,,,,,,,,,,,,,,,,,,,,,,,,,,,,,,,,,,,,,,,,,,,,,,,,,,,,,,,,,,,,,,,,,,,,,,,,,,,,,,,,,,,,,,,,,,,,,,,,,,,,,,,,,,,,,,,,,,,,,,,,,,,,,,,,,,,,,,,,,,,,,,,,,,,,,,,,
,,,,,,5f5fb8b24fa1c805957b037b,62c539fb536cb3d3e32aaec1,2022-07-06_09h30.32.556,Colour_Asymmetry_Pilot,2022.1.3,MacIntel,58.82352941,62c50e9c1127f2cd403a315f,0,136,136,77,1,threefour,,,,,,,,,,,,,,,,,,,,,,,,,,,,,,,,,,,,,,,,,,,,,,,,,,,,,,,,,,,,,,,,,,,,,,,,,,,,,,,,,,,,,,,,,,,,,,,,,,,,,,,,,,,,,,,,,,,,,,,,,,,,,,,,,,,,,,,,,,,,,,,,,,,,,,,,,,,,,
,,,,,,5f5fb8b24fa1c805957b037b,62c539fb536cb3d3e32aaec1,2022-07-06_09h30.32.556,Colour_Asymmetry_Pilot,2022.1.3,MacIntel,58.82352941,62c50e9c1127f2cd403a315f,0,137,137,73,1,onethree,,,,,,,,,,,,,,,,,,,,,,,,,,,,,,,,,,,,,,,,,,,,,,,,,,,,,,,,,,,,,,,,,,,,,,,,,,,,,,,,,,,,,,,,,,,,,,,,,,,,,,,,,,,,,,,,,,,,,,,,,,,,,,,,,,,,,,,,,,,,,,,,,,,,,,,,,,,,,
,,,,,,5f5fb8b24fa1c805957b037b,62c539fb536cb3d3e32aaec1,2022-07-06_09h30.32.556,Colour_Asymmetry_Pilot,2022.1.3,MacIntel,58.82352941,62c50e9c1127f2cd403a315f,0,138,138,96,1,onetwo,,,,,,,,,,,,,,,,,,,,,,,,,,,,,,,,,,,,,,,,,,,,,,,,,,,,,,,,,,,,,,,,,,,,,,,,,,,,,,,,,,,,,,,,,,,,,,,,,,,,,,,,,,,,,,,,,,,,,,,,,,,,,,,,,,,,,,,,,,,,,,,,,,,,,,,,,,,,,
,,,,,,5f5fb8b24fa1c805957b037b,62c539fb536cb3d3e32aaec1,2022-07-06_09h30.32.556,Colour_Asymmetry_Pilot,2022.1.3,MacIntel,58.82352941,62c50e9c1127f2cd403a315f,0,139,139,62,1,fourtwo,,,,,,,,,,,,,,,,,,,,,,,,,,,,,,,,,,,,,,,,,,,,,,,,,,,,,,,,,,,,,,,,,,,,,,,,,,,,,,,,,,,,,,,,,,,,,,,,,,,,,,,,,,,,,,,,,,,,,,,,,,,,,,,,,,,,,,,,,,,,,,,,,,,,,,,,,,,,,
,,,,,,5f5fb8b24fa1c805957b037b,62c539fb536cb3d3e32aaec1,2022-07-06_09h30.32.556,Colour_Asymmetry_Pilot,2022.1.3,MacIntel,58.82352941,62c50e9c1127f2cd403a315f,0,140,140,98,1,twoone,,,,,,,,,,,,,,,,,,,,,,,,,,,,,,,,,,,,,,,,,,,,,,,,,,,,,,,,,,,,,,,,,,,,,,,,,,,,,,,,,,,,,,,,,,,,,,,,,,,,,,,,,,,,,,,,,,,,,,,,,,,,,,,,,,,,,,,,,,,,,,,,,,,,,,,,,,,,,
,,,,,,5f5fb8b24fa1c805957b037b,62c539fb536cb3d3e32aaec1,2022-07-06_09h30.32.556,Colour_Asymmetry_Pilot,2022.1.3,MacIntel,58.82352941,62c50e9c1127f2cd403a315f,0,141,141,65,1,onethree,,,,,,,,,,,,,,,,,,,,,,,,,,,,,,,,,,,,,,,,,,,,,,,,,,,,,,,,,,,,,,,,,,,,,,,,,,,,,,,,,,,,,,,,,,,,,,,,,,,,,,,,,,,,,,,,,,,,,,,,,,,,,,,,,,,,,,,,,,,,,,,,,,,,,,,,,,,,,
,,,,,,5f5fb8b24fa1c805957b037b,62c539fb536cb3d3e32aaec1,2022-07-06_09h30.32.556,Colour_Asymmetry_Pilot,2022.1.3,MacIntel,58.82352941,62c50e9c1127f2cd403a315f,0,142,142,142,1,fourtwo,,,,,,,,,,,,,,,,,,,,,,,,,,,,,,,,,,,,,,,,,,,,,,,,,,,,,,,,,,,,,,,,,,,,,,,,,,,,,,,,,,,,,,,,,,,,,,,,,,,,,,,,,,,,,,,,,,,,,,,,,,,,,,,,,,,,,,,,,,,,,,,,,,,,,,,,,,,,,
,,,,,,5f5fb8b24fa1c805957b037b,62c539fb536cb3d3e32aaec1,2022-07-06_09h30.32.556,Colour_Asymmetry_Pilot,2022.1.3,MacIntel,58.82352941,62c50e9c1127f2cd403a315f,0,143,143,81,1,onethree,,,,,,,,,,,,,,,,,,,,,,,,,,,,,,,,,,,,,,,,,,,,,,,,,,,,,,,,,,,,,,,,,,,,,,,,,,,,,,,,,,,,,,,,,,,,,,,,,,,,,,,,,,,,,,,,,,,,,,,,,,,,,,,,,,,,,,,,,,,,,,,,,,,,,,,,,,,,,
,,,,,,5f5fb8b24fa1c805957b037b,62c539fb536cb3d3e32aaec1,2022-07-06_09h30.32.556,Colour_Asymmetry_Pilot,2022.1.3,MacIntel,58.82352941,62c50e9c1127f2cd403a315f,0,144,144,144,1,onetwo,,,,,,,,,,,,,,,,,,,,,,,,,,,,,,,,,,,,,,,,,,,,,,,,,,,,,,,,,,,,,,,,,,,,,,,,,,,,,,,,,,,,,,,,,,,,,,,,,,,,,,,,,,,,,,,,,,,,,,,,,,,,,,,,,,,,,,,,,,,,,,,,,,,,,,,,,,,,,
,,,,,,5f5fb8b24fa1c805957b037b,62c539fb536cb3d3e32aaec1,2022-07-06_09h30.32.556,Colour_Asymmetry_Pilot,2022.1.3,MacIntel,58.82352941,62c50e9c1127f2cd403a315f,0,145,145,28,1,threeone,,,,,,,,,,,,,,,,,,,,,,,,,,,,,,,,,,,,,,,,,,,,,,,,,,,,,,,,,,,,,,,,,,,,,,,,,,,,,,,,,,,,,,,,,,,,,,,,,,,,,,,,,,,,,,,,,,,,,,,,,,,,,,,,,,,,,,,,,,,,,,,,,,,,,,,,,,,,,
,,,,,,5f5fb8b24fa1c805957b037b,62c539fb536cb3d3e32aaec1,2022-07-06_09h30.32.556,Colour_Asymmetry_Pilot,2022.1.3,MacIntel,58.82352941,62c50e9c1127f2cd403a315f,0,146,146,157,1,threefour,,,,,,,,,,,,,,,,,,,,,,,,,,,,,,,,,,,,,,,,,,,,,,,,,,,,,,,,,,,,,,,,,,,,,,,,,,,,,,,,,,,,,,,,,,,,,,,,,,,,,,,,,,,,,,,,,,,,,,,,,,,,,,,,,,,,,,,,,,,,,,,,,,,,,,,,,,,,,
,,,,,,5f5fb8b24fa1c805957b037b,62c539fb536cb3d3e32aaec1,2022-07-06_09h30.32.556,Colour_Asymmetry_Pilot,2022.1.3,MacIntel,58.82352941,62c50e9c1127f2cd403a315f,0,147,147,79,1,fourthree,,,,,,,,,,,,,,,,,,,,,,,,,,,,,,,,,,,,,,,,,,,,,,,,,,,,,,,,,,,,,,,,,,,,,,,,,,,,,,,,,,,,,,,,,,,,,,,,,,,,,,,,,,,,,,,,,,,,,,,,,,,,,,,,,,,,,,,,,,,,,,,,,,,,,,,,,,,,,
,,,,,,5f5fb8b24fa1c805957b037b,62c539fb536cb3d3e32aaec1,2022-07-06_09h30.32.556,Colour_Asymmetry_Pilot,2022.1.3,MacIntel,58.82352941,62c50e9c1127f2cd403a315f,0,148,148,104,1,onetwo,,,,,,,,,,,,,,,,,,,,,,,,,,,,,,,,,,,,,,,,,,,,,,,,,,,,,,,,,,,,,,,,,,,,,,,,,,,,,,,,,,,,,,,,,,,,,,,,,,,,,,,,,,,,,,,,,,,,,,,,,,,,,,,,,,,,,,,,,,,,,,,,,,,,,,,,,,,,,
,,,,,,5f5fb8b24fa1c805957b037b,62c539fb536cb3d3e32aaec1,2022-07-06_09h30.32.556,Colour_Asymmetry_Pilot,2022.1.3,MacIntel,58.82352941,62c50e9c1127f2cd403a315f,0,149,149,33,1,onethree,,,,,,,,,,,,,,,,,,,,,,,,,,,,,,,,,,,,,,,,,,,,,,,,,,,,,,,,,,,,,,,,,,,,,,,,,,,,,,,,,,,,,,,,,,,,,,,,,,,,,,,,,,,,,,,,,,,,,,,,,,,,,,,,,,,,,,,,,,,,,,,,,,,,,,,,,,,,,
,,,,,,5f5fb8b24fa1c805957b037b,62c539fb536cb3d3e32aaec1,2022-07-06_09h30.32.556,Colour_Asymmetry_Pilot,2022.1.3,MacIntel,58.82352941,62c50e9c1127f2cd403a315f,0,150,150,107,1,twofour,,,,,,,,,,,,,,,,,,,,,,,,,,,,,,,,,,,,,,,,,,,,,,,,,,,,,,,,,,,,,,,,,,,,,,,,,,,,,,,,,,,,,,,,,,,,,,,,,,,,,,,,,,,,,,,,,,,,,,,,,,,,,,,,,,,,,,,,,,,,,,,,,,,,,,,,,,,,,
,,,,,,5f5fb8b24fa1c805957b037b,62c539fb536cb3d3e32aaec1,2022-07-06_09h30.32.556,Colour_Asymmetry_Pilot,2022.1.3,MacIntel,58.82352941,62c50e9c1127f2cd403a315f,0,151,151,151,1,fourthree,,,,,,,,,,,,,,,,,,,,,,,,,,,,,,,,,,,,,,,,,,,,,,,,,,,,,,,,,,,,,,,,,,,,,,,,,,,,,,,,,,,,,,,,,,,,,,,,,,,,,,,,,,,,,,,,,,,,,,,,,,,,,,,,,,,,,,,,,,,,,,,,,,,,,,,,,,,,,
,,,,,,5f5fb8b24fa1c805957b037b,62c539fb536cb3d3e32aaec1,2022-07-06_09h30.32.556,Colour_Asymmetry_Pilot,2022.1.3,MacIntel,58.82352941,62c50e9c1127f2cd403a315f,0,152,152,141,1,threefour,,,,,,,,,,,,,,,,,,,,,,,,,,,,,,,,,,,,,,,,,,,,,,,,,,,,,,,,,,,,,,,,,,,,,,,,,,,,,,,,,,,,,,,,,,,,,,,,,,,,,,,,,,,,,,,,,,,,,,,,,,,,,,,,,,,,,,,,,,,,,,,,,,,,,,,,,,,,,
,,,,,,5f5fb8b24fa1c805957b037b,62c539fb536cb3d3e32aaec1,2022-07-06_09h30.32.556,Colour_Asymmetry_Pilot,2022.1.3,MacIntel,58.82352941,62c50e9c1127f2cd403a315f,0,153,153,93,1,threefour,,,,,,,,,,,,,,,,,,,,,,,,,,,,,,,,,,,,,,,,,,,,,,,,,,,,,,,,,,,,,,,,,,,,,,,,,,,,,,,,,,,,,,,,,,,,,,,,,,,,,,,,,,,,,,,,,,,,,,,,,,,,,,,,,,,,,,,,,,,,,,,,,,,,,,,,,,,,,
,,,,,,5f5fb8b24fa1c805957b037b,62c539fb536cb3d3e32aaec1,2022-07-06_09h30.32.556,Colour_Asymmetry_Pilot,2022.1.3,MacIntel,58.82352941,62c50e9c1127f2cd403a315f,0,154,154,74,1,twoone,,,,,,,,,,,,,,,,,,,,,,,,,,,,,,,,,,,,,,,,,,,,,,,,,,,,,,,,,,,,,,,,,,,,,,,,,,,,,,,,,,,,,,,,,,,,,,,,,,,,,,,,,,,,,,,,,,,,,,,,,,,,,,,,,,,,,,,,,,,,,,,,,,,,,,,,,,,,,
,,,,,,5f5fb8b24fa1c805957b037b,62c539fb536cb3d3e32aaec1,2022-07-06_09h30.32.556,Colour_Asymmetry_Pilot,2022.1.3,MacIntel,58.82352941,62c50e9c1127f2cd403a315f,0,155,155,91,1,twofour,,,,,,,,,,,,,,,,,,,,,,,,,,,,,,,,,,,,,,,,,,,,,,,,,,,,,,,,,,,,,,,,,,,,,,,,,,,,,,,,,,,,,,,,,,,,,,,,,,,,,,,,,,,,,,,,,,,,,,,,,,,,,,,,,,,,,,,,,,,,,,,,,,,,,,,,,,,,,
,,,,,,5f5fb8b24fa1c805957b037b,62c539fb536cb3d3e32aaec1,2022-07-06_09h30.32.556,Colour_Asymmetry_Pilot,2022.1.3,MacIntel,58.82352941,62c50e9c1127f2cd403a315f,0,156,156,146,1,twoone,,,,,,,,,,,,,,,,,,,,,,,,,,,,,,,,,,,,,,,,,,,,,,,,,,,,,,,,,,,,,,,,,,,,,,,,,,,,,,,,,,,,,,,,,,,,,,,,,,,,,,,,,,,,,,,,,,,,,,,,,,,,,,,,,,,,,,,,,,,,,,,,,,,,,,,,,,,,,
,,,,,,5f5fb8b24fa1c805957b037b,62c539fb536cb3d3e32aaec1,2022-07-06_09h30.32.556,Colour_Asymmetry_Pilot,2022.1.3,MacIntel,58.82352941,62c50e9c1127f2cd403a315f,0,157,157,115,1,twofour,,,,,,,,,,,,,,,,,,,,,,,,,,,,,,,,,,,,,,,,,,,,,,,,,,,,,,,,,,,,,,,,,,,,,,,,,,,,,,,,,,,,,,,,,,,,,,,,,,,,,,,,,,,,,,,,,,,,,,,,,,,,,,,,,,,,,,,,,,,,,,,,,,,,,,,,,,,,,
,,,,,,5f5fb8b24fa1c805957b037b,62c539fb536cb3d3e32aaec1,2022-07-06_09h30.32.556,Colour_Asymmetry_Pilot,2022.1.3,MacIntel,58.82352941,62c50e9c1127f2cd403a315f,0,158,158,94,1,fourtwo,,,,,,,,,,,,,,,,,,,,,,,,,,,,,,,,,,,,,,,,,,,,,,,,,,,,,,,,,,,,,,,,,,,,,,,,,,,,,,,,,,,,,,,,,,,,,,,,,,,,,,,,,,,,,,,,,,,,,,,,,,,,,,,,,,,,,,,,,,,,,,,,,,,,,,,,,,,,,
,,,,,,5f5fb8b24fa1c805957b037b,62c539fb536cb3d3e32aaec1,2022-07-06_09h30.32.556,Colour_Asymmetry_Pilot,2022.1.3,MacIntel,58.82352941,62c50e9c1127f2cd403a315f,0,159,159,85,1,threefour,,,,,,,,,,,,,,,,,,,,,,,,,,,,,,,,,,,,,,,,,,,,,,,,,,,,,,,,,,,,,,,,,,,,,,,,,,,,,,,,,,,,,,,,,,,,,,,,,,,,,,,,,,,,,,,,,,,,,,,,,,,,,,,,,,,,,,,,,,,,,,,,,,,,,,,,,,,,,
,,,,,,5f5fb8b24fa1c805957b037b,62c539fb536cb3d3e32aaec1,2022-07-06_09h30.32.556,Colour_Asymmetry_Pilot,2022.1.3,MacIntel,58.82352941,62c50e9c1127f2cd403a315f,0,160,160,38,1,fourtwo,,,,,,,,,,,,,,,,,,,,,,,,,,,,,,,,,,,,,,,,,,,,,,,,,,,,,,,,,,,,,,,,,,,,,,,,,,,,,,,,,,,,,,,,,,,,,,,,,,,,,,,,,,,,,,,,,,,,,,,,,,,,,,,,,,,,,,,,,,,,,,,,,,,,,,,,,,,,,
,,,,,,5f5fb8b24fa1c805957b037b,62c539fb536cb3d3e32aaec1,2022-07-06_09h30.32.556,Colour_Asymmetry_Pilot,2022.1.3,MacIntel,58.82352941,62c50e9c1127f2cd403a315f,0,161,161,31,1,fourthree,,,,,,,,,,,,,,,,,,,,,,,,,,,,,,,,,,,,,,,,,,,,,,,,,,,,,,,,,,,,,,,,,,,,,,,,,,,,,,,,,,,,,,,,,,,,,,,,,,,,,,,,,,,,,,,,,,,,,,,,,,,,,,,,,,,,,,,,,,,,,,,,,,,,,,,,,,,,,
,,,,,,5f5fb8b24fa1c805957b037b,62c539fb536cb3d3e32aaec1,2022-07-06_09h30.32.556,Colour_Asymmetry_Pilot,2022.1.3,MacIntel,58.82352941,62c50e9c1127f2cd403a315f,,,,,,,space,2.096,space,20.175,space,25.647,space,24.28,space,2.429,space,3.3,"[-0.2942,-0.24719999999999998,-0.357]",fourthree,"[0.37240000000000006,-0.050999999999999934,-0.5216]",2,11.05,70,-28,1,0,0,response3disk_5,5,3,1,0,0,rectangle_8,5,3,1,0,0,2,5,3,1,0,0,0,0,0,0,1,,,,,,,,,,,,,,,,,,,,,,,,,,,,,,,,,,,,,,,,,,,,,,,,,,,,,,,,,,,,,,,,,,,,,,,,,,,,,,,,,,,,,,,,,,,,,,,,,,,,,,,,,,,,,,,,
,,,,,,5f5fb8b24fa1c805957b037b,62c539fb536cb3d3e32aaec1,2022-07-06_09h30.32.556,Colour_Asymmetry_Pilot,2022.1.3,MacIntel,58.82352941,62c50e9c1127f2cd403a315f,,,,,,,,,,,,,,,,,,,"[0.3802000000000001,0.19199999999999995,-0.6394]",twofour,"[-0.07459999999999989,0.12139999999999995,-0.9922]",3,2.333,73,34,1,0,0,response1disk_5,12,5,1,0,0,rectangle_8,67,-46,1,0,0,2,9,-2,1,0,0,1,0,1,0,1,response3disk_7,5,rectangle_4,,,,,,,,,,,,,,,,,,,,,,,,,,,,,,,,,,,,,,,,,,,,,,,,,,,,,,,,,,,,,,,,,,,,,,,,,,,,,,,,,,,,,,,,,,,,,,,,,,,,,,,,,,,,,
,,,,,,5f5fb8b24fa1c805957b037b,62c539fb536cb3d3e32aaec1,2022-07-06_09h30.32.556,Colour_Asymmetry_Pilot,2022.1.3,MacIntel,58.82352941,62c50e9c1127f2cd403a315f,,,,,,,,,,,,,,,,,,,"[0.34099999999999997,0.5841999999999998,-0.9844]",fourthree,"[-0.30200000000000005,0.14500000000000002,0.2784]",-4,1.367,-45,81,1,0,0,response7disk_5,-8,8,1,0,0,rectangle_8,-8,8,1,0,0,2,-8,8,1,0,0,2,0,2,0,1,,,,,,,,,,,,,,,,,,,,,,,,,,,,,,,,,,,,,,,,,,,,,,,,,,,,,,,,,,,,,,,,,,,,,,,,,,,,,,,,,,,,,,,,,,,,,,,,,,,,,,,,,,,,,,,,
,,,,,,5f5fb8b24fa1c805957b037b,62c539fb536cb3d3e32aaec1,2022-07-06_09h30.32.556,Colour_Asymmetry_Pilot,2022.1.3,MacIntel,58.82352941,62c50e9c1127f2cd403a315f,,,,,,,,,,,,,,,,,,,"[-0.4668,-0.8746,-0.2942]",twofour,"[-0.20799999999999996,-0.655,-0.01980000000000004]",3,1.784,86,50,1,0,0,response1disk_5,0,5,1,0,0,rectangle_8,0,5,1,0,0,2,0,5,1,0,0,3,0,3,0,1,,,,,,,,,,,,,,,,,,,,,,,,,,,,,,,,,,,,,,,,,,,,,,,,,,,,,,,,,,,,,,,,,,,,,,,,,,,,,,,,,,,,,,,,,,,,,,,,,,,,,,,,,,,,,,,,
,,,,,,5f5fb8b24fa1c805957b037b,62c539fb536cb3d3e32aaec1,2022-07-06_09h30.32.556,Colour_Asymmetry_Pilot,2022.1.3,MacIntel,58.82352941,62c50e9c1127f2cd403a315f,,,,,,,,,,,,,,,,,,,"[-0.48240000000000005,0.3175999999999999,0.2156]",onethree,"[-0.20799999999999996,-0.655,-0.01980000000000004]",-4,1.2,-55,80,1,0,0,response7disk_5,16,4,1,0,0,rectangle_8,16,4,1,0,0,2,16,4,1,0,0,4,0,4,0,1,,,,,,,,,,,,,,,,,,,,,,,,,,,,,,,,,,,,,,,,,,,,,,,,,,,,,,,,,,,,,,,,,,,,,,,,,,,,,,,,,,,,,,,,,,,,,,,,,,,,,,,,,,,,,,,,
,,,,,,5f5fb8b24fa1c805957b037b,62c539fb536cb3d3e32aaec1,2022-07-06_09h30.32.556,Colour_Asymmetry_Pilot,2022.1.3,MacIntel,58.82352941,62c50e9c1127f2cd403a315f,,,,,,,,,,,,,,,,,,,"[-0.7412000000000001,-0.08239999999999992,-0.6864]",threeone,"[-0.6,0.16860000000000008,0.44300000000000006]",-4,0.783,-31,64,1,0,0,response7disk_5,13,-2,1,0,0,rectangle_8,13,-2,1,0,0,2,13,-2,1,0,0,5,0,5,0,1,,,,,,,,,,,,,,,,,,,,,,,,,,,,,,,,,,,,,,,,,,,,,,,,,,,,,,,,,,,,,,,,,,,,,,,,,,,,,,,,,,,,,,,,,,,,,,,,,,,,,,,,,,,,,,,,
,,,,,,5f5fb8b24fa1c805957b037b,62c539fb536cb3d3e32aaec1,2022-07-06_09h30.32.556,Colour_Asymmetry_Pilot,2022.1.3,MacIntel,58.82352941,62c50e9c1127f2cd403a315f,,,,,,,,,,,,,,,,,,,"[-0.9688,-0.4902000000000001,-0.12159999999999993]",onethree,"[-0.5688,-0.08239999999999992,-0.1844]",-1,1.367,-51,-70,1,0,0,response5disk_5,5,-8,1,0,0,rectangle_8,5,-8,1,0,0,2,5,-8,1,0,0,6,0,6,0,1,,,,,,,,,,,,,,,,,,,,,,,,,,,,,,,,,,,,,,,,,,,,,,,,,,,,,,,,,,,,,,,,,,,,,,,,,,,,,,,,,,,,,,,,,,,,,,,,,,,,,,,,,,,,,,,,
,,,,,,5f5fb8b24fa1c805957b037b,62c539fb536cb3d3e32aaec1,2022-07-06_09h30.32.556,Colour_Asymmetry_Pilot,2022.1.3,MacIntel,58.82352941,62c50e9c1127f2cd403a315f,,,,,,,,,,,,,,,,,,,,threefour,,-1,1.135,,,,,,,,,,,,,,,,,,,,,,,,,,,,,,,,space,68.479,"[1,0.12939999999999996,-1]","[0.2862,0.7802,0.3568]",-31,-89,1,0,0,response5disk,-3,-2,1,0,0,rectangle,-3,-2,1,0,0,,2,0.002,0,-3,-2,1,0,0,0,0,0,143,1,62,second,,,,,,,,,,,,,,,,,,,,,,,,,,,,,,,,,,,,,,,,,,,,,,,,,,,,,,,,,,,,,,,,,,,,,,,,
,,,,,,5f5fb8b24fa1c805957b037b,62c539fb536cb3d3e32aaec1,2022-07-06_09h30.32.556,Colour_Asymmetry_Pilot,2022.1.3,MacIntel,58.82352941,62c50e9c1127f2cd403a315f,,,,,,,,,,,,,,,,,,,,threeone,,1,0.867,,,,,,,,,,,,,,,,,,,,,,,,,,,,,,,,,,"[-0.4902000000000001,0.2704,-0.45899999999999996]","[0.4196,0.4665999999999999,0.3568]",55,-91,1,0,0,response3disk,3,-1,1,0,0,rectangle,3,-1,1,0,0,,3,0.003,0,3,-1,1,0,0,0,1,1,121,1,40,second,,,,,,,,,,,,,,,,,,,,,,,,,,,,,,,,,,,,,,,,,,,,,,,,,,,,,,,,,,,,,,,,,,,,,,,,
,,,,,,5f5fb8b24fa1c805957b037b,62c539fb536cb3d3e32aaec1,2022-07-06_09h30.32.556,Colour_Asymmetry_Pilot,2022.1.3,MacIntel,58.82352941,62c50e9c1127f2cd403a315f,,,,,,,,,,,,,,,,,,,,threeone,,-4,0.617,,,,,,,,,,,,,,,,,,,,,,,,,,,,,,,,,,"[-0.9296,-0.12959999999999994,-0.043199999999999905]","[0.7176,-0.906,-0.6864]",-47,82,1,0,0,response7disk,-2,11,1,0,0,rectangle,-2,11,1,0,0,,1,0.002,0,-2,11,1,0,0,0,2,2,3,1,3,first,,,,,,,,,,,,,,,,,,,,,,,,,,,,,,,,,,,,,,,,,,,,,,,,,,,,,,,,,,,,,,,,,,,,,,,,
,,,,,,5f5fb8b24fa1c805957b037b,62c539fb536cb3d3e32aaec1,2022-07-06_09h30.32.556,Colour_Asymmetry_Pilot,2022.1.3,MacIntel,58.82352941,62c50e9c1127f2cd403a315f,,,,,,,,,,,,,,,,,,,,fourtwo,,-2,0.784,,,,,,,,,,,,,,,,,,,,,,,,,,,,,,,,,,"[0.09799999999999986,-0.24719999999999998,0.15280000000000005]","[-0.9688,-0.38039999999999996,-0.41979999999999995]",-69,-42,1,0,0,response5disk,17,4,1,0,0,rectangle,17,4,1,0,0,,2,0.002,0,17,4,1,0,0,0,3,3,14,1,14,first,,,,,,,,,,,,,,,,,,,,,,,,,,,,,,,,,,,,,,,,,,,,,,,,,,,,,,,,,,,,,,,,,,,,,,,,
,,,,,,5f5fb8b24fa1c805957b037b,62c539fb536cb3d3e32aaec1,2022-07-06_09h30.32.556,Colour_Asymmetry_Pilot,2022.1.3,MacIntel,58.82352941,62c50e9c1127f2cd403a315f,,,,,,,,,,,,,,,,,,,,onetwo,,1,1.583,,,,,,,,,,,,,,,,,,,,,,,,,,,,,,,,,,"[-0.8118,-0.8198,-0.5452]","[-0.4668,-0.8746,-0.2942]",58,-80,1,0,0,response3disk,6,-10,1,0,0,rectangle,6,-10,1,0,0,,1,0.003,0,6,-10,1,0,0,0,4,4,101,1,20,second,,,,,,,,,,,,,,,,,,,,,,,,,,,,,,,,,,,,,,,,,,,,,,,,,,,,,,,,,,,,,,,,,,,,,,,,
,,,,,,5f5fb8b24fa1c805957b037b,62c539fb536cb3d3e32aaec1,2022-07-06_09h30.32.556,Colour_Asymmetry_Pilot,2022.1.3,MacIntel,58.82352941,62c50e9c1127f2cd403a315f,,,,,,,,,,,,,,,,,,,,onetwo,,-2,0.483,,,,,,,,,,,,,,,,,,,,,,,,,,,,,,,,,,"[-0.6942,-0.7648,-0.12959999999999994]","[-0.050999999999999934,-0.6706000000000001,-0.804]",-83,-44,1,0,0,response5disk,-8,4,1,0,0,rectangle,-8,4,1,0,0,,2,0.002,0,-8,4,1,0,0,0,5,5,141,1,60,second,,,,,,,,,,,,,,,,,,,,,,,,,,,,,,,,,,,,,,,,,,,,,,,,,,,,,,,,,,,,,,,,,,,,,,,,
,,,,,,5f5fb8b24fa1c805957b037b,62c539fb536cb3d3e32aaec1,2022-07-06_09h30.32.556,Colour_Asymmetry_Pilot,2022.1.3,MacIntel,58.82352941,62c50e9c1127f2cd403a315f,,,,,,,,,,,,,,,,,,,,twoone,,-1,0.616,,,,,,,,,,,,,,,,,,,,,,,,,,,,,,,,,,"[0.6625999999999999,0.4980000000000002,-0.357]","[-0.01980000000000004,-0.5138,-0.38039999999999996]",-35,-82,1,0,0,response5disk,20,7,1,0,0,rectangle,20,7,1,0,0,,3,0.002,0,20,7,1,0,0,0,6,6,144,1,63,second,,,,,,,,,,,,,,,,,,,,,,,,,,,,,,,,,,,,,,,,,,,,,,,,,,,,,,,,,,,,,,,,,,,,,,,,
,,,,,,5f5fb8b24fa1c805957b037b,62c539fb536cb3d3e32aaec1,2022-07-06_09h30.32.556,Colour_Asymmetry_Pilot,2022.1.3,MacIntel,58.82352941,62c50e9c1127f2cd403a315f,,,,,,,,,,,,,,,,,,,,onethree,,-4,0.467,,,,,,,,,,,,,,,,,,,,,,,,,,,,,,,,,,"[-0.5922000000000001,-0.7492000000000001,-0.5296000000000001]","[0.796,0.2156,-0.27859999999999996]",-31,51,1,0,0,response7disk,6,3,1,0,0,rectangle,6,3,1,0,0,,3,0,0,6,3,1,0,0,0,7,7,45,1,45,first,,,,,,,,,,,,,,,,,,,,,,,,,,,,,,,,,,,,,,,,,,,,,,,,,,,,,,,,,,,,,,,,,,,,,,,,
,,,,,,5f5fb8b24fa1c805957b037b,62c539fb536cb3d3e32aaec1,2022-07-06_09h30.32.556,Colour_Asymmetry_Pilot,2022.1.3,MacIntel,58.82352941,62c50e9c1127f2cd403a315f,,,,,,,,,,,,,,,,,,,,threeone,,-1,0.45,,,,,,,,,,,,,,,,,,,,,,,,,,,,,,,,,,"[0.4196,0.4665999999999999,0.3568]","[-0.09019999999999995,0.44300000000000006,0.5371999999999999]",-46,-80,1,0,0,response5disk,23,10,1,0,0,rectangle,23,10,1,0,0,,1,0.002,0,23,10,1,0,0,0,8,8,93,1,12,second,,,,,,,,,,,,,,,,,,,,,,,,,,,,,,,,,,,,,,,,,,,,,,,,,,,,,,,,,,,,,,,,,,,,,,,,
,,,,,,5f5fb8b24fa1c805957b037b,62c539fb536cb3d3e32aaec1,2022-07-06_09h30.32.556,Colour_Asymmetry_Pilot,2022.1.3,MacIntel,58.82352941,62c50e9c1127f2cd403a315f,,,,,,,,,,,,,,,,,,,,twoone,,-1,0.584,,,,,,,,,,,,,,,,,,,,,,,,,,,,,,,,,,"[0.3568,-0.20799999999999996,-0.9844]","[0.7646000000000002,0.07440000000000002,0.2704]",-23,-74,1,0,0,response5disk,14,5,1,0,0,rectangle,14,5,1,0,0,,2,0.003,0,14,5,1,0,0,0,9,9,157,1,76,second,,,,,,,,,,,,,,,,,,,,,,,,,,,,,,,,,,,,,,,,,,,,,,,,,,,,,,,,,,,,,,,,,,,,,,,,
,,,,,,5f5fb8b24fa1c805957b037b,62c539fb536cb3d3e32aaec1,2022-07-06_09h30.32.556,Colour_Asymmetry_Pilot,2022.1.3,MacIntel,58.82352941,62c50e9c1127f2cd403a315f,,,,,,,,,,,,,,,,,,,,threeone,,-1,0.516,,,,,,,,,,,,,,,,,,,,,,,,,,,,,,,,,,"[0.2784,-0.31000000000000005,-0.5452]","[-0.4982,-0.2942,-0.0354000000000001]",-44,-86,1,0,0,response5disk,11,5,1,0,0,rectangle,11,5,1,0,0,,2,0,0,11,5,1,0,0,0,10,10,56,1,56,first,,,,,,,,,,,,,,,,,,,,,,,,,,,,,,,,,,,,,,,,,,,,,,,,,,,,,,,,,,,,,,,,,,,,,,,,
,,,,,,5f5fb8b24fa1c805957b037b,62c539fb536cb3d3e32aaec1,2022-07-06_09h30.32.556,Colour_Asymmetry_Pilot,2022.1.3,MacIntel,58.82352941,62c50e9c1127f2cd403a315f,,,,,,,,,,,,,,,,,,,,fourthree,,-2,1.034,,,,,,,,,,,,,,,,,,,,,,,,,,,,,,,,,,"[0.7646000000000002,0.07440000000000002,0.2704]","[0.3568,-0.20799999999999996,-0.9844]",-89,-54,1,0,0,response5disk,-3,14,1,0,0,rectangle,86,42,1,0,0,3,3,2.215,1,-8,-8,1,0,0,0,11,11,76,1,76,first,response1disk_3,rectangle,,,,,,,,,,,,,,,,,,,,,,,,,,,,,,,,,,,,,,,,,,,,,,,,,,,,,,,,,,,,,,,,,,,,,,
,,,,,,5f5fb8b24fa1c805957b037b,62c539fb536cb3d3e32aaec1,2022-07-06_09h30.32.556,Colour_Asymmetry_Pilot,2022.1.3,MacIntel,58.82352941,62c50e9c1127f2cd403a315f,,,,,,,,,,,,,,,,,,,,threefour,,-2,1.05,,,,,,,,,,,,,,,,,,,,,,,,,,,,,,,,,,"[0.18419999999999992,-0.4276,-0.404]","[0.9213999999999998,0.6391999999999998,-0.9922]",-80,-54,1,0,0,response5disk,0,-1,1,0,0,rectangle,0,-1,1,0,0,3,3,0.001,0,0,-1,1,0,0,0,12,12,77,1,77,first,,,,,,,,,,,,,,,,,,,,,,,,,,,,,,,,,,,,,,,,,,,,,,,,,,,,,,,,,,,,,,,,,,,,,,,,
,,,,,,5f5fb8b24fa1c805957b037b,62c539fb536cb3d3e32aaec1,2022-07-06_09h30.32.556,Colour_Asymmetry_Pilot,2022.1.3,MacIntel,58.82352941,62c50e9c1127f2cd403a315f,,,,,,,,,,,,,,,,,,,,fourtwo,,-2,0.567,,,,,,,,,,,,,,,,,,,,,,,,,,,,,,,,,,"[-0.38039999999999996,-0.4276,-0.1452]","[1,0.12939999999999996,-1]",-82,-54,1,0,0,response5disk,8,6,1,0,0,rectangle,8,6,1,0,0,3,2,0.003,0,8,6,1,0,0,0,13,13,142,1,61,second,,,,,,,,,,,,,,,,,,,,,,,,,,,,,,,,,,,,,,,,,,,,,,,,,,,,,,,,,,,,,,,,,,,,,,,,
,,,,,,5f5fb8b24fa1c805957b037b,62c539fb536cb3d3e32aaec1,2022-07-06_09h30.32.556,Colour_Asymmetry_Pilot,2022.1.3,MacIntel,58.82352941,62c50e9c1127f2cd403a315f,,,,,,,,,,,,,,,,,,,,threeone,,1,1.067,,,,,,,,,,,,,,,,,,,,,,,,,,,,,,,,,,"[-0.17659999999999998,0.3253999999999999,0.19999999999999996]","[-0.9216,-0.5529999999999999,-0.3962]",49,-79,1,0,0,response3disk,0,12,1,0,0,rectangle,99,-40,1,0,0,2,2,1.65,1,8,-4,1,0,0,0,14,14,104,1,23,second,response3disk_3,rectangle,,,,,,,,,,,,,,,,,,,,,,,,,,,,,,,,,,,,,,,,,,,,,,,,,,,,,,,,,,,,,,,,,,,,,,
,,,,,,5f5fb8b24fa1c805957b037b,62c539fb536cb3d3e32aaec1,2022-07-06_09h30.32.556,Colour_Asymmetry_Pilot,2022.1.3,MacIntel,58.82352941,62c50e9c1127f2cd403a315f,,,,,,,,,,,,,,,,,,,,onethree,,-2,0.766,,,,,,,,,,,,,,,,,,,,,,,,,,,,,,,,,,"[0.2862,0.7802,0.3568]","[0.18419999999999992,-0.4276,-0.404]",-79,-62,1,0,0,response5disk,1,-2,1,0,0,rectangle,1,-2,1,0,0,2,3,0.003,0,1,-2,1,0,0,0,15,15,65,1,65,first,,,,,,,,,,,,,,,,,,,,,,,,,,,,,,,,,,,,,,,,,,,,,,,,,,,,,,,,,,,,,,,,,,,,,,,,
,,,,,,5f5fb8b24fa1c805957b037b,62c539fb536cb3d3e32aaec1,2022-07-06_09h30.32.556,Colour_Asymmetry_Pilot,2022.1.3,MacIntel,58.82352941,62c50e9c1127f2cd403a315f,,,,,,,,,,,,,,,,,,,,onethree,,-3,1.15,,,,,,,,,,,,,,,,,,,,,,,,,,,,,,,,,,"[-0.9296,-0.12959999999999994,-0.043199999999999905]","[0.3568,-0.20799999999999996,-0.9844]",-80,23,1,0,0,response7disk,10,-1,1,0,0,rectangle,10,-1,1,0,0,2,1,0.002,0,10,-1,1,0,0,0,16,16,82,1,1,second,,,,,,,,,,,,,,,,,,,,,,,,,,,,,,,,,,,,,,,,,,,,,,,,,,,,,,,,,,,,,,,,,,,,,,,,
