trials.thisRepN,trials.thisTrialN,trials.thisN,trials.thisIndex,trials.ran,Colourcodes,participant,session,date,expName,psychopyVersion,OS,frameRate,study_id,trials_4.thisRepN,trials_4.thisTrialN,trials_4.thisN,trials_4.thisIndex,trials_4.ran,StimulusPos,key_resp.keys,key_resp.rt,key_resp_2.keys,key_resp_2.rt,key_resp_15.keys,key_resp_15.rt,key_resp_17.keys,key_resp_17.rt,key_resp_9.keys,key_resp_9.rt,key_resp_10.keys,key_resp_10.rt,Circle1_col,Ecc,Circle2_col,similarity,response_time,mouse_5.x,mouse_5.y,mouse_5.leftButton,mouse_5.midButton,mouse_5.rightButton,mouse_5.clicked_name,mouse_10.x,mouse_10.y,mouse_10.leftButton,mouse_10.midButton,mouse_10.rightButton,mouse_10.clicked_name,mouse_7.x,mouse_7.y,mouse_7.leftButton,mouse_7.midButton,mouse_7.rightButton,catchnumberprac,mouse_6.x,mouse_6.y,mouse_6.leftButton,mouse_6.midButton,mouse_6.rightButton,duringprac.thisRepN,duringprac.thisTrialN,duringprac.thisN,duringprac.thisIndex,duringprac.ran,mouse_7.clicked_name,catchprac,mouse_6.clicked_name,key_resp_22.keys,key_resp_22.rt,Circle1_colour,Circle2_colour,mouse.x,mouse.y,mouse.leftButton,mouse.midButton,mouse.rightButton,mouse.clicked_name,mouse_2.x,mouse_2.y,mouse_2.leftButton,mouse_2.midButton,mouse_2.rightButton,mouse_2.clicked_name,mouse_3.x,mouse_3.y,mouse_3.leftButton,mouse_3.midButton,mouse_3.rightButton,catchresponse,catchnumber,response_time_catch,Catch,mouse_11.x,mouse_11.y,mouse_11.leftButton,mouse_11.midButton,mouse_11.rightButton,trials_2.thisRepN,trials_2.thisTrialN,trials_2.thisN,trials_2.thisIndex,trials_2.ran,Colourpair,Temporder,mouse_3.clicked_name,mouse_11.clicked_name,trials_3.thisRepN,trials_3.thisTrialN,trials_3.thisN,trials_3.thisIndex,trials_3.ran,key_resp_instr_Ishi.keys,key_resp_instr_Ishi.rt,Ishi_trial_keyresp.keys,Ishi_textbox.text,Ishi_mouse.x,Ishi_mouse.y,Ishi_mouse.leftButton,Ishi_mouse.midButton,Ishi_mouse.rightButton,Ishi_mouse.clicked_name,Ishi_loop.thisRepN,Ishi_loop.thisTrialN,Ishi_loop.thisN,Ishi_loop.thisIndex,Ishi_loop.ran,imageaddress,textbox.text,mouse_4.x,mouse_4.y,mouse_4.leftButton,mouse_4.midButton,mouse_4.rightButton,mouse_4.clicked_name,textbox_2.text,mouse_8.x,mouse_8.y,mouse_8.leftButton,mouse_8.midButton,mouse_8.rightButton,mouse_8.clicked_name,textbox_3.text,mouse_9.x,mouse_9.y,mouse_9.leftButton,mouse_9.midButton,mouse_9.rightButton,mouse_9.clicked_name,textbox_4.text,mouse_12.x,mouse_12.y,mouse_12.leftButton,mouse_12.midButton,mouse_12.rightButton,mouse_12.clicked_name,textbox_5.text,mouse_13.x,mouse_13.y,mouse_13.leftButton,mouse_13.midButton,mouse_13.rightButton,mouse_13.clicked_name,textbox_6.text,mouse_14.x,mouse_14.y,mouse_14.leftButton,mouse_14.midButton,mouse_14.rightButton,mouse_14.clicked_name,textbox_7.text,mouse_15.x,mouse_15.y,mouse_15.leftButton,mouse_15.midButton,mouse_15.rightButton,mouse_15.clicked_name
0,0,0,55,1,,609228e91a85cc5c8908fbd7,62c538ac3d012ff394c79225,2022-07-06_02h23.02.455,Colour_Asymmetry_Pilot,2022.1.3,Win32,59.42476824,62c50e9c1127f2cd403a315f,,,,,,,,,,,,,,,,,,,,,,,,,,,,,,,,,,,,,,,,,,,,,,,,,,,,,,,,,,,,,,,,,,,,,,,,,,,,,,,,,,,,,,,,,,,,,,,,,,,,,,,,,,,,,,,,,,,,,,,,,,,,,,,,,,,,,,,,,,,,,,,,,,,,,,,,,,,,,,,,,,,
0,1,1,7,1,,609228e91a85cc5c8908fbd7,62c538ac3d012ff394c79225,2022-07-06_02h23.02.455,Colour_Asymmetry_Pilot,2022.1.3,Win32,59.42476824,62c50e9c1127f2cd403a315f,,,,,,,,,,,,,,,,,,,,,,,,,,,,,,,,,,,,,,,,,,,,,,,,,,,,,,,,,,,,,,,,,,,,,,,,,,,,,,,,,,,,,,,,,,,,,,,,,,,,,,,,,,,,,,,,,,,,,,,,,,,,,,,,,,,,,,,,,,,,,,,,,,,,,,,,,,,,,,,,,,,
0,2,2,9,1,,609228e91a85cc5c8908fbd7,62c538ac3d012ff394c79225,2022-07-06_02h23.02.455,Colour_Asymmetry_Pilot,2022.1.3,Win32,59.42476824,62c50e9c1127f2cd403a315f,,,,,,,,,,,,,,,,,,,,,,,,,,,,,,,,,,,,,,,,,,,,,,,,,,,,,,,,,,,,,,,,,,,,,,,,,,,,,,,,,,,,,,,,,,,,,,,,,,,,,,,,,,,,,,,,,,,,,,,,,,,,,,,,,,,,,,,,,,,,,,,,,,,,,,,,,,,,,,,,,,,
0,3,3,75,1,,609228e91a85cc5c8908fbd7,62c538ac3d012ff394c79225,2022-07-06_02h23.02.455,Colour_Asymmetry_Pilot,2022.1.3,Win32,59.42476824,62c50e9c1127f2cd403a315f,,,,,,,,,,,,,,,,,,,,,,,,,,,,,,,,,,,,,,,,,,,,,,,,,,,,,,,,,,,,,,,,,,,,,,,,,,,,,,,,,,,,,,,,,,,,,,,,,,,,,,,,,,,,,,,,,,,,,,,,,,,,,,,,,,,,,,,,,,,,,,,,,,,,,,,,,,,,,,,,,,,
0,4,4,84,1,,609228e91a85cc5c8908fbd7,62c538ac3d012ff394c79225,2022-07-06_02h23.02.455,Colour_Asymmetry_Pilot,2022.1.3,Win32,59.42476824,62c50e9c1127f2cd403a315f,,,,,,,,,,,,,,,,,,,,,,,,,,,,,,,,,,,,,,,,,,,,,,,,,,,,,,,,,,,,,,,,,,,,,,,,,,,,,,,,,,,,,,,,,,,,,,,,,,,,,,,,,,,,,,,,,,,,,,,,,,,,,,,,,,,,,,,,,,,,,,,,,,,,,,,,,,,,,,,,,,,
0,5,5,16,1,,609228e91a85cc5c8908fbd7,62c538ac3d012ff394c79225,2022-07-06_02h23.02.455,Colour_Asymmetry_Pilot,2022.1.3,Win32,59.42476824,62c50e9c1127f2cd403a315f,,,,,,,,,,,,,,,,,,,,,,,,,,,,,,,,,,,,,,,,,,,,,,,,,,,,,,,,,,,,,,,,,,,,,,,,,,,,,,,,,,,,,,,,,,,,,,,,,,,,,,,,,,,,,,,,,,,,,,,,,,,,,,,,,,,,,,,,,,,,,,,,,,,,,,,,,,,,,,,,,,,
0,6,6,61,1,,609228e91a85cc5c8908fbd7,62c538ac3d012ff394c79225,2022-07-06_02h23.02.455,Colour_Asymmetry_Pilot,2022.1.3,Win32,59.42476824,62c50e9c1127f2cd403a315f,,,,,,,,,,,,,,,,,,,,,,,,,,,,,,,,,,,,,,,,,,,,,,,,,,,,,,,,,,,,,,,,,,,,,,,,,,,,,,,,,,,,,,,,,,,,,,,,,,,,,,,,,,,,,,,,,,,,,,,,,,,,,,,,,,,,,,,,,,,,,,,,,,,,,,,,,,,,,,,,,,,
0,7,7,19,1,,609228e91a85cc5c8908fbd7,62c538ac3d012ff394c79225,2022-07-06_02h23.02.455,Colour_Asymmetry_Pilot,2022.1.3,Win32,59.42476824,62c50e9c1127f2cd403a315f,,,,,,,,,,,,,,,,,,,,,,,,,,,,,,,,,,,,,,,,,,,,,,,,,,,,,,,,,,,,,,,,,,,,,,,,,,,,,,,,,,,,,,,,,,,,,,,,,,,,,,,,,,,,,,,,,,,,,,,,,,,,,,,,,,,,,,,,,,,,,,,,,,,,,,,,,,,,,,,,,,,
0,8,8,51,1,,609228e91a85cc5c8908fbd7,62c538ac3d012ff394c79225,2022-07-06_02h23.02.455,Colour_Asymmetry_Pilot,2022.1.3,Win32,59.42476824,62c50e9c1127f2cd403a315f,,,,,,,,,,,,,,,,,,,,,,,,,,,,,,,,,,,,,,,,,,,,,,,,,,,,,,,,,,,,,,,,,,,,,,,,,,,,,,,,,,,,,,,,,,,,,,,,,,,,,,,,,,,,,,,,,,,,,,,,,,,,,,,,,,,,,,,,,,,,,,,,,,,,,,,,,,,,,,,,,,,
0,9,9,83,1,,609228e91a85cc5c8908fbd7,62c538ac3d012ff394c79225,2022-07-06_02h23.02.455,Colour_Asymmetry_Pilot,2022.1.3,Win32,59.42476824,62c50e9c1127f2cd403a315f,,,,,,,,,,,,,,,,,,,,,,,,,,,,,,,,,,,,,,,,,,,,,,,,,,,,,,,,,,,,,,,,,,,,,,,,,,,,,,,,,,,,,,,,,,,,,,,,,,,,,,,,,,,,,,,,,,,,,,,,,,,,,,,,,,,,,,,,,,,,,,,,,,,,,,,,,,,,,,,,,,,
0,10,10,8,1,,609228e91a85cc5c8908fbd7,62c538ac3d012ff394c79225,2022-07-06_02h23.02.455,Colour_Asymmetry_Pilot,2022.1.3,Win32,59.42476824,62c50e9c1127f2cd403a315f,,,,,,,,,,,,,,,,,,,,,,,,,,,,,,,,,,,,,,,,,,,,,,,,,,,,,,,,,,,,,,,,,,,,,,,,,,,,,,,,,,,,,,,,,,,,,,,,,,,,,,,,,,,,,,,,,,,,,,,,,,,,,,,,,,,,,,,,,,,,,,,,,,,,,,,,,,,,,,,,,,,
0,11,11,23,1,,609228e91a85cc5c8908fbd7,62c538ac3d012ff394c79225,2022-07-06_02h23.02.455,Colour_Asymmetry_Pilot,2022.1.3,Win32,59.42476824,62c50e9c1127f2cd403a315f,,,,,,,,,,,,,,,,,,,,,,,,,,,,,,,,,,,,,,,,,,,,,,,,,,,,,,,,,,,,,,,,,,,,,,,,,,,,,,,,,,,,,,,,,,,,,,,,,,,,,,,,,,,,,,,,,,,,,,,,,,,,,,,,,,,,,,,,,,,,,,,,,,,,,,,,,,,,,,,,,,,
0,12,12,22,1,,609228e91a85cc5c8908fbd7,62c538ac3d012ff394c79225,2022-07-06_02h23.02.455,Colour_Asymmetry_Pilot,2022.1.3,Win32,59.42476824,62c50e9c1127f2cd403a315f,,,,,,,,,,,,,,,,,,,,,,,,,,,,,,,,,,,,,,,,,,,,,,,,,,,,,,,,,,,,,,,,,,,,,,,,,,,,,,,,,,,,,,,,,,,,,,,,,,,,,,,,,,,,,,,,,,,,,,,,,,,,,,,,,,,,,,,,,,,,,,,,,,,,,,,,,,,,,,,,,,,
0,13,13,30,1,,609228e91a85cc5c8908fbd7,62c538ac3d012ff394c79225,2022-07-06_02h23.02.455,Colour_Asymmetry_Pilot,2022.1.3,Win32,59.42476824,62c50e9c1127f2cd403a315f,,,,,,,,,,,,,,,,,,,,,,,,,,,,,,,,,,,,,,,,,,,,,,,,,,,,,,,,,,,,,,,,,,,,,,,,,,,,,,,,,,,,,,,,,,,,,,,,,,,,,,,,,,,,,,,,,,,,,,,,,,,,,,,,,,,,,,,,,,,,,,,,,,,,,,,,,,,,,,,,,,,
0,14,14,40,1,,609228e91a85cc5c8908fbd7,62c538ac3d012ff394c79225,2022-07-06_02h23.02.455,Colour_Asymmetry_Pilot,2022.1.3,Win32,59.42476824,62c50e9c1127f2cd403a315f,,,,,,,,,,,,,,,,,,,,,,,,,,,,,,,,,,,,,,,,,,,,,,,,,,,,,,,,,,,,,,,,,,,,,,,,,,,,,,,,,,,,,,,,,,,,,,,,,,,,,,,,,,,,,,,,,,,,,,,,,,,,,,,,,,,,,,,,,,,,,,,,,,,,,,,,,,,,,,,,,,,
0,15,15,69,1,,609228e91a85cc5c8908fbd7,62c538ac3d012ff394c79225,2022-07-06_02h23.02.455,Colour_Asymmetry_Pilot,2022.1.3,Win32,59.42476824,62c50e9c1127f2cd403a315f,,,,,,,,,,,,,,,,,,,,,,,,,,,,,,,,,,,,,,,,,,,,,,,,,,,,,,,,,,,,,,,,,,,,,,,,,,,,,,,,,,,,,,,,,,,,,,,,,,,,,,,,,,,,,,,,,,,,,,,,,,,,,,,,,,,,,,,,,,,,,,,,,,,,,,,,,,,,,,,,,,,
0,16,16,53,1,,609228e91a85cc5c8908fbd7,62c538ac3d012ff394c79225,2022-07-06_02h23.02.455,Colour_Asymmetry_Pilot,2022.1.3,Win32,59.42476824,62c50e9c1127f2cd403a315f,,,,,,,,,,,,,,,,,,,,,,,,,,,,,,,,,,,,,,,,,,,,,,,,,,,,,,,,,,,,,,,,,,,,,,,,,,,,,,,,,,,,,,,,,,,,,,,,,,,,,,,,,,,,,,,,,,,,,,,,,,,,,,,,,,,,,,,,,,,,,,,,,,,,,,,,,,,,,,,,,,,
0,17,17,18,1,,609228e91a85cc5c8908fbd7,62c538ac3d012ff394c79225,2022-07-06_02h23.02.455,Colour_Asymmetry_Pilot,2022.1.3,Win32,59.42476824,62c50e9c1127f2cd403a315f,,,,,,,,,,,,,,,,,,,,,,,,,,,,,,,,,,,,,,,,,,,,,,,,,,,,,,,,,,,,,,,,,,,,,,,,,,,,,,,,,,,,,,,,,,,,,,,,,,,,,,,,,,,,,,,,,,,,,,,,,,,,,,,,,,,,,,,,,,,,,,,,,,,,,,,,,,,,,,,,,,,
0,18,18,82,1,,609228e91a85cc5c8908fbd7,62c538ac3d012ff394c79225,2022-07-06_02h23.02.455,Colour_Asymmetry_Pilot,2022.1.3,Win32,59.42476824,62c50e9c1127f2cd403a315f,,,,,,,,,,,,,,,,,,,,,,,,,,,,,,,,,,,,,,,,,,,,,,,,,,,,,,,,,,,,,,,,,,,,,,,,,,,,,,,,,,,,,,,,,,,,,,,,,,,,,,,,,,,,,,,,,,,,,,,,,,,,,,,,,,,,,,,,,,,,,,,,,,,,,,,,,,,,,,,,,,,
0,19,19,31,1,,609228e91a85cc5c8908fbd7,62c538ac3d012ff394c79225,2022-07-06_02h23.02.455,Colour_Asymmetry_Pilot,2022.1.3,Win32,59.42476824,62c50e9c1127f2cd403a315f,,,,,,,,,,,,,,,,,,,,,,,,,,,,,,,,,,,,,,,,,,,,,,,,,,,,,,,,,,,,,,,,,,,,,,,,,,,,,,,,,,,,,,,,,,,,,,,,,,,,,,,,,,,,,,,,,,,,,,,,,,,,,,,,,,,,,,,,,,,,,,,,,,,,,,,,,,,,,,,,,,,
0,20,20,57,1,,609228e91a85cc5c8908fbd7,62c538ac3d012ff394c79225,2022-07-06_02h23.02.455,Colour_Asymmetry_Pilot,2022.1.3,Win32,59.42476824,62c50e9c1127f2cd403a315f,,,,,,,,,,,,,,,,,,,,,,,,,,,,,,,,,,,,,,,,,,,,,,,,,,,,,,,,,,,,,,,,,,,,,,,,,,,,,,,,,,,,,,,,,,,,,,,,,,,,,,,,,,,,,,,,,,,,,,,,,,,,,,,,,,,,,,,,,,,,,,,,,,,,,,,,,,,,,,,,,,,
0,21,21,10,1,,609228e91a85cc5c8908fbd7,62c538ac3d012ff394c79225,2022-07-06_02h23.02.455,Colour_Asymmetry_Pilot,2022.1.3,Win32,59.42476824,62c50e9c1127f2cd403a315f,,,,,,,,,,,,,,,,,,,,,,,,,,,,,,,,,,,,,,,,,,,,,,,,,,,,,,,,,,,,,,,,,,,,,,,,,,,,,,,,,,,,,,,,,,,,,,,,,,,,,,,,,,,,,,,,,,,,,,,,,,,,,,,,,,,,,,,,,,,,,,,,,,,,,,,,,,,,,,,,,,,
0,22,22,38,1,,609228e91a85cc5c8908fbd7,62c538ac3d012ff394c79225,2022-07-06_02h23.02.455,Colour_Asymmetry_Pilot,2022.1.3,Win32,59.42476824,62c50e9c1127f2cd403a315f,,,,,,,,,,,,,,,,,,,,,,,,,,,,,,,,,,,,,,,,,,,,,,,,,,,,,,,,,,,,,,,,,,,,,,,,,,,,,,,,,,,,,,,,,,,,,,,,,,,,,,,,,,,,,,,,,,,,,,,,,,,,,,,,,,,,,,,,,,,,,,,,,,,,,,,,,,,,,,,,,,,
0,23,23,48,1,,609228e91a85cc5c8908fbd7,62c538ac3d012ff394c79225,2022-07-06_02h23.02.455,Colour_Asymmetry_Pilot,2022.1.3,Win32,59.42476824,62c50e9c1127f2cd403a315f,,,,,,,,,,,,,,,,,,,,,,,,,,,,,,,,,,,,,,,,,,,,,,,,,,,,,,,,,,,,,,,,,,,,,,,,,,,,,,,,,,,,,,,,,,,,,,,,,,,,,,,,,,,,,,,,,,,,,,,,,,,,,,,,,,,,,,,,,,,,,,,,,,,,,,,,,,,,,,,,,,,
0,24,24,46,1,,609228e91a85cc5c8908fbd7,62c538ac3d012ff394c79225,2022-07-06_02h23.02.455,Colour_Asymmetry_Pilot,2022.1.3,Win32,59.42476824,62c50e9c1127f2cd403a315f,,,,,,,,,,,,,,,,,,,,,,,,,,,,,,,,,,,,,,,,,,,,,,,,,,,,,,,,,,,,,,,,,,,,,,,,,,,,,,,,,,,,,,,,,,,,,,,,,,,,,,,,,,,,,,,,,,,,,,,,,,,,,,,,,,,,,,,,,,,,,,,,,,,,,,,,,,,,,,,,,,,
0,25,25,33,1,,609228e91a85cc5c8908fbd7,62c538ac3d012ff394c79225,2022-07-06_02h23.02.455,Colour_Asymmetry_Pilot,2022.1.3,Win32,59.42476824,62c50e9c1127f2cd403a315f,,,,,,,,,,,,,,,,,,,,,,,,,,,,,,,,,,,,,,,,,,,,,,,,,,,,,,,,,,,,,,,,,,,,,,,,,,,,,,,,,,,,,,,,,,,,,,,,,,,,,,,,,,,,,,,,,,,,,,,,,,,,,,,,,,,,,,,,,,,,,,,,,,,,,,,,,,,,,,,,,,,
0,26,26,3,1,,609228e91a85cc5c8908fbd7,62c538ac3d012ff394c79225,2022-07-06_02h23.02.455,Colour_Asymmetry_Pilot,2022.1.3,Win32,59.42476824,62c50e9c1127f2cd403a315f,,,,,,,,,,,,,,,,,,,,,,,,,,,,,,,,,,,,,,,,,,,,,,,,,,,,,,,,,,,,,,,,,,,,,,,,,,,,,,,,,,,,,,,,,,,,,,,,,,,,,,,,,,,,,,,,,,,,,,,,,,,,,,,,,,,,,,,,,,,,,,,,,,,,,,,,,,,,,,,,,,,
0,27,27,92,1,,609228e91a85cc5c8908fbd7,62c538ac3d012ff394c79225,2022-07-06_02h23.02.455,Colour_Asymmetry_Pilot,2022.1.3,Win32,59.42476824,62c50e9c1127f2cd403a315f,,,,,,,,,,,,,,,,,,,,,,,,,,,,,,,,,,,,,,,,,,,,,,,,,,,,,,,,,,,,,,,,,,,,,,,,,,,,,,,,,,,,,,,,,,,,,,,,,,,,,,,,,,,,,,,,,,,,,,,,,,,,,,,,,,,,,,,,,,,,,,,,,,,,,,,,,,,,,,,,,,,
0,28,28,77,1,,609228e91a85cc5c8908fbd7,62c538ac3d012ff394c79225,2022-07-06_02h23.02.455,Colour_Asymmetry_Pilot,2022.1.3,Win32,59.42476824,62c50e9c1127f2cd403a315f,,,,,,,,,,,,,,,,,,,,,,,,,,,,,,,,,,,,,,,,,,,,,,,,,,,,,,,,,,,,,,,,,,,,,,,,,,,,,,,,,,,,,,,,,,,,,,,,,,,,,,,,,,,,,,,,,,,,,,,,,,,,,,,,,,,,,,,,,,,,,,,,,,,,,,,,,,,,,,,,,,,
0,29,29,58,1,,609228e91a85cc5c8908fbd7,62c538ac3d012ff394c79225,2022-07-06_02h23.02.455,Colour_Asymmetry_Pilot,2022.1.3,Win32,59.42476824,62c50e9c1127f2cd403a315f,,,,,,,,,,,,,,,,,,,,,,,,,,,,,,,,,,,,,,,,,,,,,,,,,,,,,,,,,,,,,,,,,,,,,,,,,,,,,,,,,,,,,,,,,,,,,,,,,,,,,,,,,,,,,,,,,,,,,,,,,,,,,,,,,,,,,,,,,,,,,,,,,,,,,,,,,,,,,,,,,,,
0,30,30,80,1,,609228e91a85cc5c8908fbd7,62c538ac3d012ff394c79225,2022-07-06_02h23.02.455,Colour_Asymmetry_Pilot,2022.1.3,Win32,59.42476824,62c50e9c1127f2cd403a315f,,,,,,,,,,,,,,,,,,,,,,,,,,,,,,,,,,,,,,,,,,,,,,,,,,,,,,,,,,,,,,,,,,,,,,,,,,,,,,,,,,,,,,,,,,,,,,,,,,,,,,,,,,,,,,,,,,,,,,,,,,,,,,,,,,,,,,,,,,,,,,,,,,,,,,,,,,,,,,,,,,,
0,31,31,42,1,,609228e91a85cc5c8908fbd7,62c538ac3d012ff394c79225,2022-07-06_02h23.02.455,Colour_Asymmetry_Pilot,2022.1.3,Win32,59.42476824,62c50e9c1127f2cd403a315f,,,,,,,,,,,,,,,,,,,,,,,,,,,,,,,,,,,,,,,,,,,,,,,,,,,,,,,,,,,,,,,,,,,,,,,,,,,,,,,,,,,,,,,,,,,,,,,,,,,,,,,,,,,,,,,,,,,,,,,,,,,,,,,,,,,,,,,,,,,,,,,,,,,,,,,,,,,,,,,,,,,
0,32,32,14,1,,609228e91a85cc5c8908fbd7,62c538ac3d012ff394c79225,2022-07-06_02h23.02.455,Colour_Asymmetry_Pilot,2022.1.3,Win32,59.42476824,62c50e9c1127f2cd403a315f,,,,,,,,,,,,,,,,,,,,,,,,,,,,,,,,,,,,,,,,,,,,,,,,,,,,,,,,,,,,,,,,,,,,,,,,,,,,,,,,,,,,,,,,,,,,,,,,,,,,,,,,,,,,,,,,,,,,,,,,,,,,,,,,,,,,,,,,,,,,,,,,,,,,,,,,,,,,,,,,,,,
0,33,33,6,1,,609228e91a85cc5c8908fbd7,62c538ac3d012ff394c79225,2022-07-06_02h23.02.455,Colour_Asymmetry_Pilot,2022.1.3,Win32,59.42476824,62c50e9c1127f2cd403a315f,,,,,,,,,,,,,,,,,,,,,,,,,,,,,,,,,,,,,,,,,,,,,,,,,,,,,,,,,,,,,,,,,,,,,,,,,,,,,,,,,,,,,,,,,,,,,,,,,,,,,,,,,,,,,,,,,,,,,,,,,,,,,,,,,,,,,,,,,,,,,,,,,,,,,,,,,,,,,,,,,,,
0,34,34,12,1,,609228e91a85cc5c8908fbd7,62c538ac3d012ff394c79225,2022-07-06_02h23.02.455,Colour_Asymmetry_Pilot,2022.1.3,Win32,59.42476824,62c50e9c1127f2cd403a315f,,,,,,,,,,,,,,,,,,,,,,,,,,,,,,,,,,,,,,,,,,,,,,,,,,,,,,,,,,,,,,,,,,,,,,,,,,,,,,,,,,,,,,,,,,,,,,,,,,,,,,,,,,,,,,,,,,,,,,,,,,,,,,,,,,,,,,,,,,,,,,,,,,,,,,,,,,,,,,,,,,,
0,35,35,5,1,,609228e91a85cc5c8908fbd7,62c538ac3d012ff394c79225,2022-07-06_02h23.02.455,Colour_Asymmetry_Pilot,2022.1.3,Win32,59.42476824,62c50e9c1127f2cd403a315f,,,,,,,,,,,,,,,,,,,,,,,,,,,,,,,,,,,,,,,,,,,,,,,,,,,,,,,,,,,,,,,,,,,,,,,,,,,,,,,,,,,,,,,,,,,,,,,,,,,,,,,,,,,,,,,,,,,,,,,,,,,,,,,,,,,,,,,,,,,,,,,,,,,,,,,,,,,,,,,,,,,
0,36,36,64,1,,609228e91a85cc5c8908fbd7,62c538ac3d012ff394c79225,2022-07-06_02h23.02.455,Colour_Asymmetry_Pilot,2022.1.3,Win32,59.42476824,62c50e9c1127f2cd403a315f,,,,,,,,,,,,,,,,,,,,,,,,,,,,,,,,,,,,,,,,,,,,,,,,,,,,,,,,,,,,,,,,,,,,,,,,,,,,,,,,,,,,,,,,,,,,,,,,,,,,,,,,,,,,,,,,,,,,,,,,,,,,,,,,,,,,,,,,,,,,,,,,,,,,,,,,,,,,,,,,,,,
0,37,37,4,1,,609228e91a85cc5c8908fbd7,62c538ac3d012ff394c79225,2022-07-06_02h23.02.455,Colour_Asymmetry_Pilot,2022.1.3,Win32,59.42476824,62c50e9c1127f2cd403a315f,,,,,,,,,,,,,,,,,,,,,,,,,,,,,,,,,,,,,,,,,,,,,,,,,,,,,,,,,,,,,,,,,,,,,,,,,,,,,,,,,,,,,,,,,,,,,,,,,,,,,,,,,,,,,,,,,,,,,,,,,,,,,,,,,,,,,,,,,,,,,,,,,,,,,,,,,,,,,,,,,,,
0,38,38,13,1,,609228e91a85cc5c8908fbd7,62c538ac3d012ff394c79225,2022-07-06_02h23.02.455,Colour_Asymmetry_Pilot,2022.1.3,Win32,59.42476824,62c50e9c1127f2cd403a315f,,,,,,,,,,,,,,,,,,,,,,,,,,,,,,,,,,,,,,,,,,,,,,,,,,,,,,,,,,,,,,,,,,,,,,,,,,,,,,,,,,,,,,,,,,,,,,,,,,,,,,,,,,,,,,,,,,,,,,,,,,,,,,,,,,,,,,,,,,,,,,,,,,,,,,,,,,,,,,,,,,,
0,39,39,88,1,,609228e91a85cc5c8908fbd7,62c538ac3d012ff394c79225,2022-07-06_02h23.02.455,Colour_Asymmetry_Pilot,2022.1.3,Win32,59.42476824,62c50e9c1127f2cd403a315f,,,,,,,,,,,,,,,,,,,,,,,,,,,,,,,,,,,,,,,,,,,,,,,,,,,,,,,,,,,,,,,,,,,,,,,,,,,,,,,,,,,,,,,,,,,,,,,,,,,,,,,,,,,,,,,,,,,,,,,,,,,,,,,,,,,,,,,,,,,,,,,,,,,,,,,,,,,,,,,,,,,
0,40,40,27,1,,609228e91a85cc5c8908fbd7,62c538ac3d012ff394c79225,2022-07-06_02h23.02.455,Colour_Asymmetry_Pilot,2022.1.3,Win32,59.42476824,62c50e9c1127f2cd403a315f,,,,,,,,,,,,,,,,,,,,,,,,,,,,,,,,,,,,,,,,,,,,,,,,,,,,,,,,,,,,,,,,,,,,,,,,,,,,,,,,,,,,,,,,,,,,,,,,,,,,,,,,,,,,,,,,,,,,,,,,,,,,,,,,,,,,,,,,,,,,,,,,,,,,,,,,,,,,,,,,,,,
0,41,41,78,1,,609228e91a85cc5c8908fbd7,62c538ac3d012ff394c79225,2022-07-06_02h23.02.455,Colour_Asymmetry_Pilot,2022.1.3,Win32,59.42476824,62c50e9c1127f2cd403a315f,,,,,,,,,,,,,,,,,,,,,,,,,,,,,,,,,,,,,,,,,,,,,,,,,,,,,,,,,,,,,,,,,,,,,,,,,,,,,,,,,,,,,,,,,,,,,,,,,,,,,,,,,,,,,,,,,,,,,,,,,,,,,,,,,,,,,,,,,,,,,,,,,,,,,,,,,,,,,,,,,,,
0,42,42,67,1,,609228e91a85cc5c8908fbd7,62c538ac3d012ff394c79225,2022-07-06_02h23.02.455,Colour_Asymmetry_Pilot,2022.1.3,Win32,59.42476824,62c50e9c1127f2cd403a315f,,,,,,,,,,,,,,,,,,,,,,,,,,,,,,,,,,,,,,,,,,,,,,,,,,,,,,,,,,,,,,,,,,,,,,,,,,,,,,,,,,,,,,,,,,,,,,,,,,,,,,,,,,,,,,,,,,,,,,,,,,,,,,,,,,,,,,,,,,,,,,,,,,,,,,,,,,,,,,,,,,,
0,43,43,62,1,,609228e91a85cc5c8908fbd7,62c538ac3d012ff394c79225,2022-07-06_02h23.02.455,Colour_Asymmetry_Pilot,2022.1.3,Win32,59.42476824,62c50e9c1127f2cd403a315f,,,,,,,,,,,,,,,,,,,,,,,,,,,,,,,,,,,,,,,,,,,,,,,,,,,,,,,,,,,,,,,,,,,,,,,,,,,,,,,,,,,,,,,,,,,,,,,,,,,,,,,,,,,,,,,,,,,,,,,,,,,,,,,,,,,,,,,,,,,,,,,,,,,,,,,,,,,,,,,,,,,
0,44,44,87,1,,609228e91a85cc5c8908fbd7,62c538ac3d012ff394c79225,2022-07-06_02h23.02.455,Colour_Asymmetry_Pilot,2022.1.3,Win32,59.42476824,62c50e9c1127f2cd403a315f,,,,,,,,,,,,,,,,,,,,,,,,,,,,,,,,,,,,,,,,,,,,,,,,,,,,,,,,,,,,,,,,,,,,,,,,,,,,,,,,,,,,,,,,,,,,,,,,,,,,,,,,,,,,,,,,,,,,,,,,,,,,,,,,,,,,,,,,,,,,,,,,,,,,,,,,,,,,,,,,,,,
0,45,45,65,1,,609228e91a85cc5c8908fbd7,62c538ac3d012ff394c79225,2022-07-06_02h23.02.455,Colour_Asymmetry_Pilot,2022.1.3,Win32,59.42476824,62c50e9c1127f2cd403a315f,,,,,,,,,,,,,,,,,,,,,,,,,,,,,,,,,,,,,,,,,,,,,,,,,,,,,,,,,,,,,,,,,,,,,,,,,,,,,,,,,,,,,,,,,,,,,,,,,,,,,,,,,,,,,,,,,,,,,,,,,,,,,,,,,,,,,,,,,,,,,,,,,,,,,,,,,,,,,,,,,,,
0,46,46,17,1,,609228e91a85cc5c8908fbd7,62c538ac3d012ff394c79225,2022-07-06_02h23.02.455,Colour_Asymmetry_Pilot,2022.1.3,Win32,59.42476824,62c50e9c1127f2cd403a315f,,,,,,,,,,,,,,,,,,,,,,,,,,,,,,,,,,,,,,,,,,,,,,,,,,,,,,,,,,,,,,,,,,,,,,,,,,,,,,,,,,,,,,,,,,,,,,,,,,,,,,,,,,,,,,,,,,,,,,,,,,,,,,,,,,,,,,,,,,,,,,,,,,,,,,,,,,,,,,,,,,,
0,47,47,21,1,,609228e91a85cc5c8908fbd7,62c538ac3d012ff394c79225,2022-07-06_02h23.02.455,Colour_Asymmetry_Pilot,2022.1.3,Win32,59.42476824,62c50e9c1127f2cd403a315f,,,,,,,,,,,,,,,,,,,,,,,,,,,,,,,,,,,,,,,,,,,,,,,,,,,,,,,,,,,,,,,,,,,,,,,,,,,,,,,,,,,,,,,,,,,,,,,,,,,,,,,,,,,,,,,,,,,,,,,,,,,,,,,,,,,,,,,,,,,,,,,,,,,,,,,,,,,,,,,,,,,
0,48,48,32,1,,609228e91a85cc5c8908fbd7,62c538ac3d012ff394c79225,2022-07-06_02h23.02.455,Colour_Asymmetry_Pilot,2022.1.3,Win32,59.42476824,62c50e9c1127f2cd403a315f,,,,,,,,,,,,,,,,,,,,,,,,,,,,,,,,,,,,,,,,,,,,,,,,,,,,,,,,,,,,,,,,,,,,,,,,,,,,,,,,,,,,,,,,,,,,,,,,,,,,,,,,,,,,,,,,,,,,,,,,,,,,,,,,,,,,,,,,,,,,,,,,,,,,,,,,,,,,,,,,,,,
0,49,49,81,1,,609228e91a85cc5c8908fbd7,62c538ac3d012ff394c79225,2022-07-06_02h23.02.455,Colour_Asymmetry_Pilot,2022.1.3,Win32,59.42476824,62c50e9c1127f2cd403a315f,,,,,,,,,,,,,,,,,,,,,,,,,,,,,,,,,,,,,,,,,,,,,,,,,,,,,,,,,,,,,,,,,,,,,,,,,,,,,,,,,,,,,,,,,,,,,,,,,,,,,,,,,,,,,,,,,,,,,,,,,,,,,,,,,,,,,,,,,,,,,,,,,,,,,,,,,,,,,,,,,,,
0,50,50,11,1,,609228e91a85cc5c8908fbd7,62c538ac3d012ff394c79225,2022-07-06_02h23.02.455,Colour_Asymmetry_Pilot,2022.1.3,Win32,59.42476824,62c50e9c1127f2cd403a315f,,,,,,,,,,,,,,,,,,,,,,,,,,,,,,,,,,,,,,,,,,,,,,,,,,,,,,,,,,,,,,,,,,,,,,,,,,,,,,,,,,,,,,,,,,,,,,,,,,,,,,,,,,,,,,,,,,,,,,,,,,,,,,,,,,,,,,,,,,,,,,,,,,,,,,,,,,,,,,,,,,,
0,51,51,15,1,,609228e91a85cc5c8908fbd7,62c538ac3d012ff394c79225,2022-07-06_02h23.02.455,Colour_Asymmetry_Pilot,2022.1.3,Win32,59.42476824,62c50e9c1127f2cd403a315f,,,,,,,,,,,,,,,,,,,,,,,,,,,,,,,,,,,,,,,,,,,,,,,,,,,,,,,,,,,,,,,,,,,,,,,,,,,,,,,,,,,,,,,,,,,,,,,,,,,,,,,,,,,,,,,,,,,,,,,,,,,,,,,,,,,,,,,,,,,,,,,,,,,,,,,,,,,,,,,,,,,
0,52,52,85,1,,609228e91a85cc5c8908fbd7,62c538ac3d012ff394c79225,2022-07-06_02h23.02.455,Colour_Asymmetry_Pilot,2022.1.3,Win32,59.42476824,62c50e9c1127f2cd403a315f,,,,,,,,,,,,,,,,,,,,,,,,,,,,,,,,,,,,,,,,,,,,,,,,,,,,,,,,,,,,,,,,,,,,,,,,,,,,,,,,,,,,,,,,,,,,,,,,,,,,,,,,,,,,,,,,,,,,,,,,,,,,,,,,,,,,,,,,,,,,,,,,,,,,,,,,,,,,,,,,,,,
0,53,53,34,1,,609228e91a85cc5c8908fbd7,62c538ac3d012ff394c79225,2022-07-06_02h23.02.455,Colour_Asymmetry_Pilot,2022.1.3,Win32,59.42476824,62c50e9c1127f2cd403a315f,,,,,,,,,,,,,,,,,,,,,,,,,,,,,,,,,,,,,,,,,,,,,,,,,,,,,,,,,,,,,,,,,,,,,,,,,,,,,,,,,,,,,,,,,,,,,,,,,,,,,,,,,,,,,,,,,,,,,,,,,,,,,,,,,,,,,,,,,,,,,,,,,,,,,,,,,,,,,,,,,,,
0,54,54,29,1,,609228e91a85cc5c8908fbd7,62c538ac3d012ff394c79225,2022-07-06_02h23.02.455,Colour_Asymmetry_Pilot,2022.1.3,Win32,59.42476824,62c50e9c1127f2cd403a315f,,,,,,,,,,,,,,,,,,,,,,,,,,,,,,,,,,,,,,,,,,,,,,,,,,,,,,,,,,,,,,,,,,,,,,,,,,,,,,,,,,,,,,,,,,,,,,,,,,,,,,,,,,,,,,,,,,,,,,,,,,,,,,,,,,,,,,,,,,,,,,,,,,,,,,,,,,,,,,,,,,,
0,55,55,66,1,,609228e91a85cc5c8908fbd7,62c538ac3d012ff394c79225,2022-07-06_02h23.02.455,Colour_Asymmetry_Pilot,2022.1.3,Win32,59.42476824,62c50e9c1127f2cd403a315f,,,,,,,,,,,,,,,,,,,,,,,,,,,,,,,,,,,,,,,,,,,,,,,,,,,,,,,,,,,,,,,,,,,,,,,,,,,,,,,,,,,,,,,,,,,,,,,,,,,,,,,,,,,,,,,,,,,,,,,,,,,,,,,,,,,,,,,,,,,,,,,,,,,,,,,,,,,,,,,,,,,
0,56,56,20,1,,609228e91a85cc5c8908fbd7,62c538ac3d012ff394c79225,2022-07-06_02h23.02.455,Colour_Asymmetry_Pilot,2022.1.3,Win32,59.42476824,62c50e9c1127f2cd403a315f,,,,,,,,,,,,,,,,,,,,,,,,,,,,,,,,,,,,,,,,,,,,,,,,,,,,,,,,,,,,,,,,,,,,,,,,,,,,,,,,,,,,,,,,,,,,,,,,,,,,,,,,,,,,,,,,,,,,,,,,,,,,,,,,,,,,,,,,,,,,,,,,,,,,,,,,,,,,,,,,,,,
0,57,57,37,1,,609228e91a85cc5c8908fbd7,62c538ac3d012ff394c79225,2022-07-06_02h23.02.455,Colour_Asymmetry_Pilot,2022.1.3,Win32,59.42476824,62c50e9c1127f2cd403a315f,,,,,,,,,,,,,,,,,,,,,,,,,,,,,,,,,,,,,,,,,,,,,,,,,,,,,,,,,,,,,,,,,,,,,,,,,,,,,,,,,,,,,,,,,,,,,,,,,,,,,,,,,,,,,,,,,,,,,,,,,,,,,,,,,,,,,,,,,,,,,,,,,,,,,,,,,,,,,,,,,,,
0,58,58,60,1,,609228e91a85cc5c8908fbd7,62c538ac3d012ff394c79225,2022-07-06_02h23.02.455,Colour_Asymmetry_Pilot,2022.1.3,Win32,59.42476824,62c50e9c1127f2cd403a315f,,,,,,,,,,,,,,,,,,,,,,,,,,,,,,,,,,,,,,,,,,,,,,,,,,,,,,,,,,,,,,,,,,,,,,,,,,,,,,,,,,,,,,,,,,,,,,,,,,,,,,,,,,,,,,,,,,,,,,,,,,,,,,,,,,,,,,,,,,,,,,,,,,,,,,,,,,,,,,,,,,,
0,59,59,79,1,,609228e91a85cc5c8908fbd7,62c538ac3d012ff394c79225,2022-07-06_02h23.02.455,Colour_Asymmetry_Pilot,2022.1.3,Win32,59.42476824,62c50e9c1127f2cd403a315f,,,,,,,,,,,,,,,,,,,,,,,,,,,,,,,,,,,,,,,,,,,,,,,,,,,,,,,,,,,,,,,,,,,,,,,,,,,,,,,,,,,,,,,,,,,,,,,,,,,,,,,,,,,,,,,,,,,,,,,,,,,,,,,,,,,,,,,,,,,,,,,,,,,,,,,,,,,,,,,,,,,
0,60,60,25,1,,609228e91a85cc5c8908fbd7,62c538ac3d012ff394c79225,2022-07-06_02h23.02.455,Colour_Asymmetry_Pilot,2022.1.3,Win32,59.42476824,62c50e9c1127f2cd403a315f,,,,,,,,,,,,,,,,,,,,,,,,,,,,,,,,,,,,,,,,,,,,,,,,,,,,,,,,,,,,,,,,,,,,,,,,,,,,,,,,,,,,,,,,,,,,,,,,,,,,,,,,,,,,,,,,,,,,,,,,,,,,,,,,,,,,,,,,,,,,,,,,,,,,,,,,,,,,,,,,,,,
0,61,61,47,1,,609228e91a85cc5c8908fbd7,62c538ac3d012ff394c79225,2022-07-06_02h23.02.455,Colour_Asymmetry_Pilot,2022.1.3,Win32,59.42476824,62c50e9c1127f2cd403a315f,,,,,,,,,,,,,,,,,,,,,,,,,,,,,,,,,,,,,,,,,,,,,,,,,,,,,,,,,,,,,,,,,,,,,,,,,,,,,,,,,,,,,,,,,,,,,,,,,,,,,,,,,,,,,,,,,,,,,,,,,,,,,,,,,,,,,,,,,,,,,,,,,,,,,,,,,,,,,,,,,,,
0,62,62,43,1,,609228e91a85cc5c8908fbd7,62c538ac3d012ff394c79225,2022-07-06_02h23.02.455,Colour_Asymmetry_Pilot,2022.1.3,Win32,59.42476824,62c50e9c1127f2cd403a315f,,,,,,,,,,,,,,,,,,,,,,,,,,,,,,,,,,,,,,,,,,,,,,,,,,,,,,,,,,,,,,,,,,,,,,,,,,,,,,,,,,,,,,,,,,,,,,,,,,,,,,,,,,,,,,,,,,,,,,,,,,,,,,,,,,,,,,,,,,,,,,,,,,,,,,,,,,,,,,,,,,,
0,63,63,56,1,,609228e91a85cc5c8908fbd7,62c538ac3d012ff394c79225,2022-07-06_02h23.02.455,Colour_Asymmetry_Pilot,2022.1.3,Win32,59.42476824,62c50e9c1127f2cd403a315f,,,,,,,,,,,,,,,,,,,,,,,,,,,,,,,,,,,,,,,,,,,,,,,,,,,,,,,,,,,,,,,,,,,,,,,,,,,,,,,,,,,,,,,,,,,,,,,,,,,,,,,,,,,,,,,,,,,,,,,,,,,,,,,,,,,,,,,,,,,,,,,,,,,,,,,,,,,,,,,,,,,
0,64,64,45,1,,609228e91a85cc5c8908fbd7,62c538ac3d012ff394c79225,2022-07-06_02h23.02.455,Colour_Asymmetry_Pilot,2022.1.3,Win32,59.42476824,62c50e9c1127f2cd403a315f,,,,,,,,,,,,,,,,,,,,,,,,,,,,,,,,,,,,,,,,,,,,,,,,,,,,,,,,,,,,,,,,,,,,,,,,,,,,,,,,,,,,,,,,,,,,,,,,,,,,,,,,,,,,,,,,,,,,,,,,,,,,,,,,,,,,,,,,,,,,,,,,,,,,,,,,,,,,,,,,,,,
0,65,65,63,1,,609228e91a85cc5c8908fbd7,62c538ac3d012ff394c79225,2022-07-06_02h23.02.455,Colour_Asymmetry_Pilot,2022.1.3,Win32,59.42476824,62c50e9c1127f2cd403a315f,,,,,,,,,,,,,,,,,,,,,,,,,,,,,,,,,,,,,,,,,,,,,,,,,,,,,,,,,,,,,,,,,,,,,,,,,,,,,,,,,,,,,,,,,,,,,,,,,,,,,,,,,,,,,,,,,,,,,,,,,,,,,,,,,,,,,,,,,,,,,,,,,,,,,,,,,,,,,,,,,,,
0,66,66,49,1,,609228e91a85cc5c8908fbd7,62c538ac3d012ff394c79225,2022-07-06_02h23.02.455,Colour_Asymmetry_Pilot,2022.1.3,Win32,59.42476824,62c50e9c1127f2cd403a315f,,,,,,,,,,,,,,,,,,,,,,,,,,,,,,,,,,,,,,,,,,,,,,,,,,,,,,,,,,,,,,,,,,,,,,,,,,,,,,,,,,,,,,,,,,,,,,,,,,,,,,,,,,,,,,,,,,,,,,,,,,,,,,,,,,,,,,,,,,,,,,,,,,,,,,,,,,,,,,,,,,,
0,67,67,1,1,,609228e91a85cc5c8908fbd7,62c538ac3d012ff394c79225,2022-07-06_02h23.02.455,Colour_Asymmetry_Pilot,2022.1.3,Win32,59.42476824,62c50e9c1127f2cd403a315f,,,,,,,,,,,,,,,,,,,,,,,,,,,,,,,,,,,,,,,,,,,,,,,,,,,,,,,,,,,,,,,,,,,,,,,,,,,,,,,,,,,,,,,,,,,,,,,,,,,,,,,,,,,,,,,,,,,,,,,,,,,,,,,,,,,,,,,,,,,,,,,,,,,,,,,,,,,,,,,,,,,
0,68,68,35,1,,609228e91a85cc5c8908fbd7,62c538ac3d012ff394c79225,2022-07-06_02h23.02.455,Colour_Asymmetry_Pilot,2022.1.3,Win32,59.42476824,62c50e9c1127f2cd403a315f,,,,,,,,,,,,,,,,,,,,,,,,,,,,,,,,,,,,,,,,,,,,,,,,,,,,,,,,,,,,,,,,,,,,,,,,,,,,,,,,,,,,,,,,,,,,,,,,,,,,,,,,,,,,,,,,,,,,,,,,,,,,,,,,,,,,,,,,,,,,,,,,,,,,,,,,,,,,,,,,,,,
0,69,69,26,1,,609228e91a85cc5c8908fbd7,62c538ac3d012ff394c79225,2022-07-06_02h23.02.455,Colour_Asymmetry_Pilot,2022.1.3,Win32,59.42476824,62c50e9c1127f2cd403a315f,,,,,,,,,,,,,,,,,,,,,,,,,,,,,,,,,,,,,,,,,,,,,,,,,,,,,,,,,,,,,,,,,,,,,,,,,,,,,,,,,,,,,,,,,,,,,,,,,,,,,,,,,,,,,,,,,,,,,,,,,,,,,,,,,,,,,,,,,,,,,,,,,,,,,,,,,,,,,,,,,,,
0,70,70,86,1,,609228e91a85cc5c8908fbd7,62c538ac3d012ff394c79225,2022-07-06_02h23.02.455,Colour_Asymmetry_Pilot,2022.1.3,Win32,59.42476824,62c50e9c1127f2cd403a315f,,,,,,,,,,,,,,,,,,,,,,,,,,,,,,,,,,,,,,,,,,,,,,,,,,,,,,,,,,,,,,,,,,,,,,,,,,,,,,,,,,,,,,,,,,,,,,,,,,,,,,,,,,,,,,,,,,,,,,,,,,,,,,,,,,,,,,,,,,,,,,,,,,,,,,,,,,,,,,,,,,,
0,71,71,71,1,,609228e91a85cc5c8908fbd7,62c538ac3d012ff394c79225,2022-07-06_02h23.02.455,Colour_Asymmetry_Pilot,2022.1.3,Win32,59.42476824,62c50e9c1127f2cd403a315f,,,,,,,,,,,,,,,,,,,,,,,,,,,,,,,,,,,,,,,,,,,,,,,,,,,,,,,,,,,,,,,,,,,,,,,,,,,,,,,,,,,,,,,,,,,,,,,,,,,,,,,,,,,,,,,,,,,,,,,,,,,,,,,,,,,,,,,,,,,,,,,,,,,,,,,,,,,,,,,,,,,
0,72,72,0,1,,609228e91a85cc5c8908fbd7,62c538ac3d012ff394c79225,2022-07-06_02h23.02.455,Colour_Asymmetry_Pilot,2022.1.3,Win32,59.42476824,62c50e9c1127f2cd403a315f,,,,,,,,,,,,,,,,,,,,,,,,,,,,,,,,,,,,,,,,,,,,,,,,,,,,,,,,,,,,,,,,,,,,,,,,,,,,,,,,,,,,,,,,,,,,,,,,,,,,,,,,,,,,,,,,,,,,,,,,,,,,,,,,,,,,,,,,,,,,,,,,,,,,,,,,,,,,,,,,,,,
0,73,73,91,1,,609228e91a85cc5c8908fbd7,62c538ac3d012ff394c79225,2022-07-06_02h23.02.455,Colour_Asymmetry_Pilot,2022.1.3,Win32,59.42476824,62c50e9c1127f2cd403a315f,,,,,,,,,,,,,,,,,,,,,,,,,,,,,,,,,,,,,,,,,,,,,,,,,,,,,,,,,,,,,,,,,,,,,,,,,,,,,,,,,,,,,,,,,,,,,,,,,,,,,,,,,,,,,,,,,,,,,,,,,,,,,,,,,,,,,,,,,,,,,,,,,,,,,,,,,,,,,,,,,,,
0,74,74,24,1,,609228e91a85cc5c8908fbd7,62c538ac3d012ff394c79225,2022-07-06_02h23.02.455,Colour_Asymmetry_Pilot,2022.1.3,Win32,59.42476824,62c50e9c1127f2cd403a315f,,,,,,,,,,,,,,,,,,,,,,,,,,,,,,,,,,,,,,,,,,,,,,,,,,,,,,,,,,,,,,,,,,,,,,,,,,,,,,,,,,,,,,,,,,,,,,,,,,,,,,,,,,,,,,,,,,,,,,,,,,,,,,,,,,,,,,,,,,,,,,,,,,,,,,,,,,,,,,,,,,,
0,75,75,28,1,,609228e91a85cc5c8908fbd7,62c538ac3d012ff394c79225,2022-07-06_02h23.02.455,Colour_Asymmetry_Pilot,2022.1.3,Win32,59.42476824,62c50e9c1127f2cd403a315f,,,,,,,,,,,,,,,,,,,,,,,,,,,,,,,,,,,,,,,,,,,,,,,,,,,,,,,,,,,,,,,,,,,,,,,,,,,,,,,,,,,,,,,,,,,,,,,,,,,,,,,,,,,,,,,,,,,,,,,,,,,,,,,,,,,,,,,,,,,,,,,,,,,,,,,,,,,,,,,,,,,
0,76,76,59,1,,609228e91a85cc5c8908fbd7,62c538ac3d012ff394c79225,2022-07-06_02h23.02.455,Colour_Asymmetry_Pilot,2022.1.3,Win32,59.42476824,62c50e9c1127f2cd403a315f,,,,,,,,,,,,,,,,,,,,,,,,,,,,,,,,,,,,,,,,,,,,,,,,,,,,,,,,,,,,,,,,,,,,,,,,,,,,,,,,,,,,,,,,,,,,,,,,,,,,,,,,,,,,,,,,,,,,,,,,,,,,,,,,,,,,,,,,,,,,,,,,,,,,,,,,,,,,,,,,,,,
0,77,77,2,1,,609228e91a85cc5c8908fbd7,62c538ac3d012ff394c79225,2022-07-06_02h23.02.455,Colour_Asymmetry_Pilot,2022.1.3,Win32,59.42476824,62c50e9c1127f2cd403a315f,,,,,,,,,,,,,,,,,,,,,,,,,,,,,,,,,,,,,,,,,,,,,,,,,,,,,,,,,,,,,,,,,,,,,,,,,,,,,,,,,,,,,,,,,,,,,,,,,,,,,,,,,,,,,,,,,,,,,,,,,,,,,,,,,,,,,,,,,,,,,,,,,,,,,,,,,,,,,,,,,,,
0,78,78,50,1,,609228e91a85cc5c8908fbd7,62c538ac3d012ff394c79225,2022-07-06_02h23.02.455,Colour_Asymmetry_Pilot,2022.1.3,Win32,59.42476824,62c50e9c1127f2cd403a315f,,,,,,,,,,,,,,,,,,,,,,,,,,,,,,,,,,,,,,,,,,,,,,,,,,,,,,,,,,,,,,,,,,,,,,,,,,,,,,,,,,,,,,,,,,,,,,,,,,,,,,,,,,,,,,,,,,,,,,,,,,,,,,,,,,,,,,,,,,,,,,,,,,,,,,,,,,,,,,,,,,,
0,79,79,68,1,,609228e91a85cc5c8908fbd7,62c538ac3d012ff394c79225,2022-07-06_02h23.02.455,Colour_Asymmetry_Pilot,2022.1.3,Win32,59.42476824,62c50e9c1127f2cd403a315f,,,,,,,,,,,,,,,,,,,,,,,,,,,,,,,,,,,,,,,,,,,,,,,,,,,,,,,,,,,,,,,,,,,,,,,,,,,,,,,,,,,,,,,,,,,,,,,,,,,,,,,,,,,,,,,,,,,,,,,,,,,,,,,,,,,,,,,,,,,,,,,,,,,,,,,,,,,,,,,,,,,
0,80,80,76,1,,609228e91a85cc5c8908fbd7,62c538ac3d012ff394c79225,2022-07-06_02h23.02.455,Colour_Asymmetry_Pilot,2022.1.3,Win32,59.42476824,62c50e9c1127f2cd403a315f,,,,,,,,,,,,,,,,,,,,,,,,,,,,,,,,,,,,,,,,,,,,,,,,,,,,,,,,,,,,,,,,,,,,,,,,,,,,,,,,,,,,,,,,,,,,,,,,,,,,,,,,,,,,,,,,,,,,,,,,,,,,,,,,,,,,,,,,,,,,,,,,,,,,,,,,,,,,,,,,,,,
0,81,81,89,1,,609228e91a85cc5c8908fbd7,62c538ac3d012ff394c79225,2022-07-06_02h23.02.455,Colour_Asymmetry_Pilot,2022.1.3,Win32,59.42476824,62c50e9c1127f2cd403a315f,,,,,,,,,,,,,,,,,,,,,,,,,,,,,,,,,,,,,,,,,,,,,,,,,,,,,,,,,,,,,,,,,,,,,,,,,,,,,,,,,,,,,,,,,,,,,,,,,,,,,,,,,,,,,,,,,,,,,,,,,,,,,,,,,,,,,,,,,,,,,,,,,,,,,,,,,,,,,,,,,,,
0,82,82,90,1,,609228e91a85cc5c8908fbd7,62c538ac3d012ff394c79225,2022-07-06_02h23.02.455,Colour_Asymmetry_Pilot,2022.1.3,Win32,59.42476824,62c50e9c1127f2cd403a315f,,,,,,,,,,,,,,,,,,,,,,,,,,,,,,,,,,,,,,,,,,,,,,,,,,,,,,,,,,,,,,,,,,,,,,,,,,,,,,,,,,,,,,,,,,,,,,,,,,,,,,,,,,,,,,,,,,,,,,,,,,,,,,,,,,,,,,,,,,,,,,,,,,,,,,,,,,,,,,,,,,,
0,83,83,70,1,,609228e91a85cc5c8908fbd7,62c538ac3d012ff394c79225,2022-07-06_02h23.02.455,Colour_Asymmetry_Pilot,2022.1.3,Win32,59.42476824,62c50e9c1127f2cd403a315f,,,,,,,,,,,,,,,,,,,,,,,,,,,,,,,,,,,,,,,,,,,,,,,,,,,,,,,,,,,,,,,,,,,,,,,,,,,,,,,,,,,,,,,,,,,,,,,,,,,,,,,,,,,,,,,,,,,,,,,,,,,,,,,,,,,,,,,,,,,,,,,,,,,,,,,,,,,,,,,,,,,
0,84,84,52,1,,609228e91a85cc5c8908fbd7,62c538ac3d012ff394c79225,2022-07-06_02h23.02.455,Colour_Asymmetry_Pilot,2022.1.3,Win32,59.42476824,62c50e9c1127f2cd403a315f,,,,,,,,,,,,,,,,,,,,,,,,,,,,,,,,,,,,,,,,,,,,,,,,,,,,,,,,,,,,,,,,,,,,,,,,,,,,,,,,,,,,,,,,,,,,,,,,,,,,,,,,,,,,,,,,,,,,,,,,,,,,,,,,,,,,,,,,,,,,,,,,,,,,,,,,,,,,,,,,,,,
0,85,85,39,1,,609228e91a85cc5c8908fbd7,62c538ac3d012ff394c79225,2022-07-06_02h23.02.455,Colour_Asymmetry_Pilot,2022.1.3,Win32,59.42476824,62c50e9c1127f2cd403a315f,,,,,,,,,,,,,,,,,,,,,,,,,,,,,,,,,,,,,,,,,,,,,,,,,,,,,,,,,,,,,,,,,,,,,,,,,,,,,,,,,,,,,,,,,,,,,,,,,,,,,,,,,,,,,,,,,,,,,,,,,,,,,,,,,,,,,,,,,,,,,,,,,,,,,,,,,,,,,,,,,,,
0,86,86,73,1,,609228e91a85cc5c8908fbd7,62c538ac3d012ff394c79225,2022-07-06_02h23.02.455,Colour_Asymmetry_Pilot,2022.1.3,Win32,59.42476824,62c50e9c1127f2cd403a315f,,,,,,,,,,,,,,,,,,,,,,,,,,,,,,,,,,,,,,,,,,,,,,,,,,,,,,,,,,,,,,,,,,,,,,,,,,,,,,,,,,,,,,,,,,,,,,,,,,,,,,,,,,,,,,,,,,,,,,,,,,,,,,,,,,,,,,,,,,,,,,,,,,,,,,,,,,,,,,,,,,,
0,87,87,54,1,,609228e91a85cc5c8908fbd7,62c538ac3d012ff394c79225,2022-07-06_02h23.02.455,Colour_Asymmetry_Pilot,2022.1.3,Win32,59.42476824,62c50e9c1127f2cd403a315f,,,,,,,,,,,,,,,,,,,,,,,,,,,,,,,,,,,,,,,,,,,,,,,,,,,,,,,,,,,,,,,,,,,,,,,,,,,,,,,,,,,,,,,,,,,,,,,,,,,,,,,,,,,,,,,,,,,,,,,,,,,,,,,,,,,,,,,,,,,,,,,,,,,,,,,,,,,,,,,,,,,
0,88,88,72,1,,609228e91a85cc5c8908fbd7,62c538ac3d012ff394c79225,2022-07-06_02h23.02.455,Colour_Asymmetry_Pilot,2022.1.3,Win32,59.42476824,62c50e9c1127f2cd403a315f,,,,,,,,,,,,,,,,,,,,,,,,,,,,,,,,,,,,,,,,,,,,,,,,,,,,,,,,,,,,,,,,,,,,,,,,,,,,,,,,,,,,,,,,,,,,,,,,,,,,,,,,,,,,,,,,,,,,,,,,,,,,,,,,,,,,,,,,,,,,,,,,,,,,,,,,,,,,,,,,,,,
0,89,89,74,1,,609228e91a85cc5c8908fbd7,62c538ac3d012ff394c79225,2022-07-06_02h23.02.455,Colour_Asymmetry_Pilot,2022.1.3,Win32,59.42476824,62c50e9c1127f2cd403a315f,,,,,,,,,,,,,,,,,,,,,,,,,,,,,,,,,,,,,,,,,,,,,,,,,,,,,,,,,,,,,,,,,,,,,,,,,,,,,,,,,,,,,,,,,,,,,,,,,,,,,,,,,,,,,,,,,,,,,,,,,,,,,,,,,,,,,,,,,,,,,,,,,,,,,,,,,,,,,,,,,,,
0,90,90,41,1,,609228e91a85cc5c8908fbd7,62c538ac3d012ff394c79225,2022-07-06_02h23.02.455,Colour_Asymmetry_Pilot,2022.1.3,Win32,59.42476824,62c50e9c1127f2cd403a315f,,,,,,,,,,,,,,,,,,,,,,,,,,,,,,,,,,,,,,,,,,,,,,,,,,,,,,,,,,,,,,,,,,,,,,,,,,,,,,,,,,,,,,,,,,,,,,,,,,,,,,,,,,,,,,,,,,,,,,,,,,,,,,,,,,,,,,,,,,,,,,,,,,,,,,,,,,,,,,,,,,,
0,91,91,44,1,,609228e91a85cc5c8908fbd7,62c538ac3d012ff394c79225,2022-07-06_02h23.02.455,Colour_Asymmetry_Pilot,2022.1.3,Win32,59.42476824,62c50e9c1127f2cd403a315f,,,,,,,,,,,,,,,,,,,,,,,,,,,,,,,,,,,,,,,,,,,,,,,,,,,,,,,,,,,,,,,,,,,,,,,,,,,,,,,,,,,,,,,,,,,,,,,,,,,,,,,,,,,,,,,,,,,,,,,,,,,,,,,,,,,,,,,,,,,,,,,,,,,,,,,,,,,,,,,,,,,
0,92,92,36,1,,609228e91a85cc5c8908fbd7,62c538ac3d012ff394c79225,2022-07-06_02h23.02.455,Colour_Asymmetry_Pilot,2022.1.3,Win32,59.42476824,62c50e9c1127f2cd403a315f,,,,,,,,,,,,,,,,,,,,,,,,,,,,,,,,,,,,,,,,,,,,,,,,,,,,,,,,,,,,,,,,,,,,,,,,,,,,,,,,,,,,,,,,,,,,,,,,,,,,,,,,,,,,,,,,,,,,,,,,,,,,,,,,,,,,,,,,,,,,,,,,,,,,,,,,,,,,,,,,,,,
,,,,,,609228e91a85cc5c8908fbd7,62c538ac3d012ff394c79225,2022-07-06_02h23.02.455,Colour_Asymmetry_Pilot,2022.1.3,Win32,59.42476824,62c50e9c1127f2cd403a315f,0,0,0,142,1,fourtwo,,,,,,,,,,,,,,,,,,,,,,,,,,,,,,,,,,,,,,,,,,,,,,,,,,,,,,,,,,,,,,,,,,,,,,,,,,,,,,,,,,,,,,,,,,,,,,,,,,,,,,,,,,,,,,,,,,,,,,,,,,,,,,,,,,,,,,,,,,,,,,,,,,,,,,,,,,,,,
,,,,,,609228e91a85cc5c8908fbd7,62c538ac3d012ff394c79225,2022-07-06_02h23.02.455,Colour_Asymmetry_Pilot,2022.1.3,Win32,59.42476824,62c50e9c1127f2cd403a315f,0,1,1,95,1,fourthree,,,,,,,,,,,,,,,,,,,,,,,,,,,,,,,,,,,,,,,,,,,,,,,,,,,,,,,,,,,,,,,,,,,,,,,,,,,,,,,,,,,,,,,,,,,,,,,,,,,,,,,,,,,,,,,,,,,,,,,,,,,,,,,,,,,,,,,,,,,,,,,,,,,,,,,,,,,,,
,,,,,,609228e91a85cc5c8908fbd7,62c538ac3d012ff394c79225,2022-07-06_02h23.02.455,Colour_Asymmetry_Pilot,2022.1.3,Win32,59.42476824,62c50e9c1127f2cd403a315f,0,2,2,133,1,threefour,,,,,,,,,,,,,,,,,,,,,,,,,,,,,,,,,,,,,,,,,,,,,,,,,,,,,,,,,,,,,,,,,,,,,,,,,,,,,,,,,,,,,,,,,,,,,,,,,,,,,,,,,,,,,,,,,,,,,,,,,,,,,,,,,,,,,,,,,,,,,,,,,,,,,,,,,,,,,
,,,,,,609228e91a85cc5c8908fbd7,62c538ac3d012ff394c79225,2022-07-06_02h23.02.455,Colour_Asymmetry_Pilot,2022.1.3,Win32,59.42476824,62c50e9c1127f2cd403a315f,0,3,3,51,1,twofour,,,,,,,,,,,,,,,,,,,,,,,,,,,,,,,,,,,,,,,,,,,,,,,,,,,,,,,,,,,,,,,,,,,,,,,,,,,,,,,,,,,,,,,,,,,,,,,,,,,,,,,,,,,,,,,,,,,,,,,,,,,,,,,,,,,,,,,,,,,,,,,,,,,,,,,,,,,,,
,,,,,,609228e91a85cc5c8908fbd7,62c538ac3d012ff394c79225,2022-07-06_02h23.02.455,Colour_Asymmetry_Pilot,2022.1.3,Win32,59.42476824,62c50e9c1127f2cd403a315f,0,4,4,52,1,threeone,,,,,,,,,,,,,,,,,,,,,,,,,,,,,,,,,,,,,,,,,,,,,,,,,,,,,,,,,,,,,,,,,,,,,,,,,,,,,,,,,,,,,,,,,,,,,,,,,,,,,,,,,,,,,,,,,,,,,,,,,,,,,,,,,,,,,,,,,,,,,,,,,,,,,,,,,,,,,
,,,,,,609228e91a85cc5c8908fbd7,62c538ac3d012ff394c79225,2022-07-06_02h23.02.455,Colour_Asymmetry_Pilot,2022.1.3,Win32,59.42476824,62c50e9c1127f2cd403a315f,0,5,5,124,1,threeone,,,,,,,,,,,,,,,,,,,,,,,,,,,,,,,,,,,,,,,,,,,,,,,,,,,,,,,,,,,,,,,,,,,,,,,,,,,,,,,,,,,,,,,,,,,,,,,,,,,,,,,,,,,,,,,,,,,,,,,,,,,,,,,,,,,,,,,,,,,,,,,,,,,,,,,,,,,,,
,,,,,,609228e91a85cc5c8908fbd7,62c538ac3d012ff394c79225,2022-07-06_02h23.02.455,Colour_Asymmetry_Pilot,2022.1.3,Win32,59.42476824,62c50e9c1127f2cd403a315f,0,6,6,43,1,twofour,,,,,,,,,,,,,,,,,,,,,,,,,,,,,,,,,,,,,,,,,,,,,,,,,,,,,,,,,,,,,,,,,,,,,,,,,,,,,,,,,,,,,,,,,,,,,,,,,,,,,,,,,,,,,,,,,,,,,,,,,,,,,,,,,,,,,,,,,,,,,,,,,,,,,,,,,,,,,
,,,,,,609228e91a85cc5c8908fbd7,62c538ac3d012ff394c79225,2022-07-06_02h23.02.455,Colour_Asymmetry_Pilot,2022.1.3,Win32,59.42476824,62c50e9c1127f2cd403a315f,0,7,7,117,1,threefour,,,,,,,,,,,,,,,,,,,,,,,,,,,,,,,,,,,,,,,,,,,,,,,,,,,,,,,,,,,,,,,,,,,,,,,,,,,,,,,,,,,,,,,,,,,,,,,,,,,,,,,,,,,,,,,,,,,,,,,,,,,,,,,,,,,,,,,,,,,,,,,,,,,,,,,,,,,,,
,,,,,,609228e91a85cc5c8908fbd7,62c538ac3d012ff394c79225,2022-07-06_02h23.02.455,Colour_Asymmetry_Pilot,2022.1.3,Win32,59.42476824,62c50e9c1127f2cd403a315f,0,8,8,91,1,twofour,,,,,,,,,,,,,,,,,,,,,,,,,,,,,,,,,,,,,,,,,,,,,,,,,,,,,,,,,,,,,,,,,,,,,,,,,,,,,,,,,,,,,,,,,,,,,,,,,,,,,,,,,,,,,,,,,,,,,,,,,,,,,,,,,,,,,,,,,,,,,,,,,,,,,,,,,,,,,
,,,,,,609228e91a85cc5c8908fbd7,62c538ac3d012ff394c79225,2022-07-06_02h23.02.455,Colour_Asymmetry_Pilot,2022.1.3,Win32,59.42476824,62c50e9c1127f2cd403a315f,0,9,9,121,1,onethree,,,,,,,,,,,,,,,,,,,,,,,,,,,,,,,,,,,,,,,,,,,,,,,,,,,,,,,,,,,,,,,,,,,,,,,,,,,,,,,,,,,,,,,,,,,,,,,,,,,,,,,,,,,,,,,,,,,,,,,,,,,,,,,,,,,,,,,,,,,,,,,,,,,,,,,,,,,,,
,,,,,,609228e91a85cc5c8908fbd7,62c538ac3d012ff394c79225,2022-07-06_02h23.02.455,Colour_Asymmetry_Pilot,2022.1.3,Win32,59.42476824,62c50e9c1127f2cd403a315f,0,10,10,87,1,fourthree,,,,,,,,,,,,,,,,,,,,,,,,,,,,,,,,,,,,,,,,,,,,,,,,,,,,,,,,,,,,,,,,,,,,,,,,,,,,,,,,,,,,,,,,,,,,,,,,,,,,,,,,,,,,,,,,,,,,,,,,,,,,,,,,,,,,,,,,,,,,,,,,,,,,,,,,,,,,,
,,,,,,609228e91a85cc5c8908fbd7,62c538ac3d012ff394c79225,2022-07-06_02h23.02.455,Colour_Asymmetry_Pilot,2022.1.3,Win32,59.42476824,62c50e9c1127f2cd403a315f,0,11,11,82,1,twoone,,,,,,,,,,,,,,,,,,,,,,,,,,,,,,,,,,,,,,,,,,,,,,,,,,,,,,,,,,,,,,,,,,,,,,,,,,,,,,,,,,,,,,,,,,,,,,,,,,,,,,,,,,,,,,,,,,,,,,,,,,,,,,,,,,,,,,,,,,,,,,,,,,,,,,,,,,,,,
,,,,,,609228e91a85cc5c8908fbd7,62c538ac3d012ff394c79225,2022-07-06_02h23.02.455,Colour_Asymmetry_Pilot,2022.1.3,Win32,59.42476824,62c50e9c1127f2cd403a315f,0,12,12,129,1,onethree,,,,,,,,,,,,,,,,,,,,,,,,,,,,,,,,,,,,,,,,,,,,,,,,,,,,,,,,,,,,,,,,,,,,,,,,,,,,,,,,,,,,,,,,,,,,,,,,,,,,,,,,,,,,,,,,,,,,,,,,,,,,,,,,,,,,,,,,,,,,,,,,,,,,,,,,,,,,,
,,,,,,609228e91a85cc5c8908fbd7,62c538ac3d012ff394c79225,2022-07-06_02h23.02.455,Colour_Asymmetry_Pilot,2022.1.3,Win32,59.42476824,62c50e9c1127f2cd403a315f,0,13,13,81,1,onethree,,,,,,,,,,,,,,,,,,,,,,,,,,,,,,,,,,,,,,,,,,,,,,,,,,,,,,,,,,,,,,,,,,,,,,,,,,,,,,,,,,,,,,,,,,,,,,,,,,,,,,,,,,,,,,,,,,,,,,,,,,,,,,,,,,,,,,,,,,,,,,,,,,,,,,,,,,,,,
,,,,,,609228e91a85cc5c8908fbd7,62c538ac3d012ff394c79225,2022-07-06_02h23.02.455,Colour_Asymmetry_Pilot,2022.1.3,Win32,59.42476824,62c50e9c1127f2cd403a315f,0,14,14,14,1,fourtwo,,,,,,,,,,,,,,,,,,,,,,,,,,,,,,,,,,,,,,,,,,,,,,,,,,,,,,,,,,,,,,,,,,,,,,,,,,,,,,,,,,,,,,,,,,,,,,,,,,,,,,,,,,,,,,,,,,,,,,,,,,,,,,,,,,,,,,,,,,,,,,,,,,,,,,,,,,,,,
,,,,,,609228e91a85cc5c8908fbd7,62c538ac3d012ff394c79225,2022-07-06_02h23.02.455,Colour_Asymmetry_Pilot,2022.1.3,Win32,59.42476824,62c50e9c1127f2cd403a315f,0,15,15,3,1,twofour,,,,,,,,,,,,,,,,,,,,,,,,,,,,,,,,,,,,,,,,,,,,,,,,,,,,,,,,,,,,,,,,,,,,,,,,,,,,,,,,,,,,,,,,,,,,,,,,,,,,,,,,,,,,,,,,,,,,,,,,,,,,,,,,,,,,,,,,,,,,,,,,,,,,,,,,,,,,,
,,,,,,609228e91a85cc5c8908fbd7,62c538ac3d012ff394c79225,2022-07-06_02h23.02.455,Colour_Asymmetry_Pilot,2022.1.3,Win32,59.42476824,62c50e9c1127f2cd403a315f,0,16,16,116,1,threeone,,,,,,,,,,,,,,,,,,,,,,,,,,,,,,,,,,,,,,,,,,,,,,,,,,,,,,,,,,,,,,,,,,,,,,,,,,,,,,,,,,,,,,,,,,,,,,,,,,,,,,,,,,,,,,,,,,,,,,,,,,,,,,,,,,,,,,,,,,,,,,,,,,,,,,,,,,,,,
,,,,,,609228e91a85cc5c8908fbd7,62c538ac3d012ff394c79225,2022-07-06_02h23.02.455,Colour_Asymmetry_Pilot,2022.1.3,Win32,59.42476824,62c50e9c1127f2cd403a315f,0,17,17,86,1,fourtwo,,,,,,,,,,,,,,,,,,,,,,,,,,,,,,,,,,,,,,,,,,,,,,,,,,,,,,,,,,,,,,,,,,,,,,,,,,,,,,,,,,,,,,,,,,,,,,,,,,,,,,,,,,,,,,,,,,,,,,,,,,,,,,,,,,,,,,,,,,,,,,,,,,,,,,,,,,,,,
,,,,,,609228e91a85cc5c8908fbd7,62c538ac3d012ff394c79225,2022-07-06_02h23.02.455,Colour_Asymmetry_Pilot,2022.1.3,Win32,59.42476824,62c50e9c1127f2cd403a315f,0,18,18,21,1,threefour,,,,,,,,,,,,,,,,,,,,,,,,,,,,,,,,,,,,,,,,,,,,,,,,,,,,,,,,,,,,,,,,,,,,,,,,,,,,,,,,,,,,,,,,,,,,,,,,,,,,,,,,,,,,,,,,,,,,,,,,,,,,,,,,,,,,,,,,,,,,,,,,,,,,,,,,,,,,,
,,,,,,609228e91a85cc5c8908fbd7,62c538ac3d012ff394c79225,2022-07-06_02h23.02.455,Colour_Asymmetry_Pilot,2022.1.3,Win32,59.42476824,62c50e9c1127f2cd403a315f,0,19,19,114,1,twoone,,,,,,,,,,,,,,,,,,,,,,,,,,,,,,,,,,,,,,,,,,,,,,,,,,,,,,,,,,,,,,,,,,,,,,,,,,,,,,,,,,,,,,,,,,,,,,,,,,,,,,,,,,,,,,,,,,,,,,,,,,,,,,,,,,,,,,,,,,,,,,,,,,,,,,,,,,,,,
,,,,,,609228e91a85cc5c8908fbd7,62c538ac3d012ff394c79225,2022-07-06_02h23.02.455,Colour_Asymmetry_Pilot,2022.1.3,Win32,59.42476824,62c50e9c1127f2cd403a315f,0,20,20,93,1,threefour,,,,,,,,,,,,,,,,,,,,,,,,,,,,,,,,,,,,,,,,,,,,,,,,,,,,,,,,,,,,,,,,,,,,,,,,,,,,,,,,,,,,,,,,,,,,,,,,,,,,,,,,,,,,,,,,,,,,,,,,,,,,,,,,,,,,,,,,,,,,,,,,,,,,,,,,,,,,,
,,,,,,609228e91a85cc5c8908fbd7,62c538ac3d012ff394c79225,2022-07-06_02h23.02.455,Colour_Asymmetry_Pilot,2022.1.3,Win32,59.42476824,62c50e9c1127f2cd403a315f,0,21,21,140,1,threeone,,,,,,,,,,,,,,,,,,,,,,,,,,,,,,,,,,,,,,,,,,,,,,,,,,,,,,,,,,,,,,,,,,,,,,,,,,,,,,,,,,,,,,,,,,,,,,,,,,,,,,,,,,,,,,,,,,,,,,,,,,,,,,,,,,,,,,,,,,,,,,,,,,,,,,,,,,,,,
,,,,,,609228e91a85cc5c8908fbd7,62c538ac3d012ff394c79225,2022-07-06_02h23.02.455,Colour_Asymmetry_Pilot,2022.1.3,Win32,59.42476824,62c50e9c1127f2cd403a315f,0,22,22,42,1,twoone,,,,,,,,,,,,,,,,,,,,,,,,,,,,,,,,,,,,,,,,,,,,,,,,,,,,,,,,,,,,,,,,,,,,,,,,,,,,,,,,,,,,,,,,,,,,,,,,,,,,,,,,,,,,,,,,,,,,,,,,,,,,,,,,,,,,,,,,,,,,,,,,,,,,,,,,,,,,,
,,,,,,609228e91a85cc5c8908fbd7,62c538ac3d012ff394c79225,2022-07-06_02h23.02.455,Colour_Asymmetry_Pilot,2022.1.3,Win32,59.42476824,62c50e9c1127f2cd403a315f,0,23,23,150,1,fourtwo,,,,,,,,,,,,,,,,,,,,,,,,,,,,,,,,,,,,,,,,,,,,,,,,,,,,,,,,,,,,,,,,,,,,,,,,,,,,,,,,,,,,,,,,,,,,,,,,,,,,,,,,,,,,,,,,,,,,,,,,,,,,,,,,,,,,,,,,,,,,,,,,,,,,,,,,,,,,,
,,,,,,609228e91a85cc5c8908fbd7,62c538ac3d012ff394c79225,2022-07-06_02h23.02.455,Colour_Asymmetry_Pilot,2022.1.3,Win32,59.42476824,62c50e9c1127f2cd403a315f,0,24,24,44,1,threeone,,,,,,,,,,,,,,,,,,,,,,,,,,,,,,,,,,,,,,,,,,,,,,,,,,,,,,,,,,,,,,,,,,,,,,,,,,,,,,,,,,,,,,,,,,,,,,,,,,,,,,,,,,,,,,,,,,,,,,,,,,,,,,,,,,,,,,,,,,,,,,,,,,,,,,,,,,,,,
,,,,,,609228e91a85cc5c8908fbd7,62c538ac3d012ff394c79225,2022-07-06_02h23.02.455,Colour_Asymmetry_Pilot,2022.1.3,Win32,59.42476824,62c50e9c1127f2cd403a315f,0,25,25,16,1,onetwo,,,,,,,,,,,,,,,,,,,,,,,,,,,,,,,,,,,,,,,,,,,,,,,,,,,,,,,,,,,,,,,,,,,,,,,,,,,,,,,,,,,,,,,,,,,,,,,,,,,,,,,,,,,,,,,,,,,,,,,,,,,,,,,,,,,,,,,,,,,,,,,,,,,,,,,,,,,,,
,,,,,,609228e91a85cc5c8908fbd7,62c538ac3d012ff394c79225,2022-07-06_02h23.02.455,Colour_Asymmetry_Pilot,2022.1.3,Win32,59.42476824,62c50e9c1127f2cd403a315f,0,26,26,59,1,twofour,,,,,,,,,,,,,,,,,,,,,,,,,,,,,,,,,,,,,,,,,,,,,,,,,,,,,,,,,,,,,,,,,,,,,,,,,,,,,,,,,,,,,,,,,,,,,,,,,,,,,,,,,,,,,,,,,,,,,,,,,,,,,,,,,,,,,,,,,,,,,,,,,,,,,,,,,,,,,
,,,,,,609228e91a85cc5c8908fbd7,62c538ac3d012ff394c79225,2022-07-06_02h23.02.455,Colour_Asymmetry_Pilot,2022.1.3,Win32,59.42476824,62c50e9c1127f2cd403a315f,0,27,27,107,1,twofour,,,,,,,,,,,,,,,,,,,,,,,,,,,,,,,,,,,,,,,,,,,,,,,,,,,,,,,,,,,,,,,,,,,,,,,,,,,,,,,,,,,,,,,,,,,,,,,,,,,,,,,,,,,,,,,,,,,,,,,,,,,,,,,,,,,,,,,,,,,,,,,,,,,,,,,,,,,,,
,,,,,,609228e91a85cc5c8908fbd7,62c538ac3d012ff394c79225,2022-07-06_02h23.02.455,Colour_Asymmetry_Pilot,2022.1.3,Win32,59.42476824,62c50e9c1127f2cd403a315f,0,28,28,76,1,threeone,,,,,,,,,,,,,,,,,,,,,,,,,,,,,,,,,,,,,,,,,,,,,,,,,,,,,,,,,,,,,,,,,,,,,,,,,,,,,,,,,,,,,,,,,,,,,,,,,,,,,,,,,,,,,,,,,,,,,,,,,,,,,,,,,,,,,,,,,,,,,,,,,,,,,,,,,,,,,
,,,,,,609228e91a85cc5c8908fbd7,62c538ac3d012ff394c79225,2022-07-06_02h23.02.455,Colour_Asymmetry_Pilot,2022.1.3,Win32,59.42476824,62c50e9c1127f2cd403a315f,0,29,29,103,1,fourthree,,,,,,,,,,,,,,,,,,,,,,,,,,,,,,,,,,,,,,,,,,,,,,,,,,,,,,,,,,,,,,,,,,,,,,,,,,,,,,,,,,,,,,,,,,,,,,,,,,,,,,,,,,,,,,,,,,,,,,,,,,,,,,,,,,,,,,,,,,,,,,,,,,,,,,,,,,,,,
,,,,,,609228e91a85cc5c8908fbd7,62c538ac3d012ff394c79225,2022-07-06_02h23.02.455,Colour_Asymmetry_Pilot,2022.1.3,Win32,59.42476824,62c50e9c1127f2cd403a315f,0,30,30,115,1,twofour,,,,,,,,,,,,,,,,,,,,,,,,,,,,,,,,,,,,,,,,,,,,,,,,,,,,,,,,,,,,,,,,,,,,,,,,,,,,,,,,,,,,,,,,,,,,,,,,,,,,,,,,,,,,,,,,,,,,,,,,,,,,,,,,,,,,,,,,,,,,,,,,,,,,,,,,,,,,,
,,,,,,609228e91a85cc5c8908fbd7,62c538ac3d012ff394c79225,2022-07-06_02h23.02.455,Colour_Asymmetry_Pilot,2022.1.3,Win32,59.42476824,62c50e9c1127f2cd403a315f,0,31,31,161,1,onethree,,,,,,,,,,,,,,,,,,,,,,,,,,,,,,,,,,,,,,,,,,,,,,,,,,,,,,,,,,,,,,,,,,,,,,,,,,,,,,,,,,,,,,,,,,,,,,,,,,,,,,,,,,,,,,,,,,,,,,,,,,,,,,,,,,,,,,,,,,,,,,,,,,,,,,,,,,,,,
,,,,,,609228e91a85cc5c8908fbd7,62c538ac3d012ff394c79225,2022-07-06_02h23.02.455,Colour_Asymmetry_Pilot,2022.1.3,Win32,59.42476824,62c50e9c1127f2cd403a315f,0,32,32,113,1,onethree,,,,,,,,,,,,,,,,,,,,,,,,,,,,,,,,,,,,,,,,,,,,,,,,,,,,,,,,,,,,,,,,,,,,,,,,,,,,,,,,,,,,,,,,,,,,,,,,,,,,,,,,,,,,,,,,,,,,,,,,,,,,,,,,,,,,,,,,,,,,,,,,,,,,,,,,,,,,,
,,,,,,609228e91a85cc5c8908fbd7,62c538ac3d012ff394c79225,2022-07-06_02h23.02.455,Colour_Asymmetry_Pilot,2022.1.3,Win32,59.42476824,62c50e9c1127f2cd403a315f,0,33,33,110,1,fourtwo,,,,,,,,,,,,,,,,,,,,,,,,,,,,,,,,,,,,,,,,,,,,,,,,,,,,,,,,,,,,,,,,,,,,,,,,,,,,,,,,,,,,,,,,,,,,,,,,,,,,,,,,,,,,,,,,,,,,,,,,,,,,,,,,,,,,,,,,,,,,,,,,,,,,,,,,,,,,,
,,,,,,609228e91a85cc5c8908fbd7,62c538ac3d012ff394c79225,2022-07-06_02h23.02.455,Colour_Asymmetry_Pilot,2022.1.3,Win32,59.42476824,62c50e9c1127f2cd403a315f,0,34,34,62,1,fourtwo,,,,,,,,,,,,,,,,,,,,,,,,,,,,,,,,,,,,,,,,,,,,,,,,,,,,,,,,,,,,,,,,,,,,,,,,,,,,,,,,,,,,,,,,,,,,,,,,,,,,,,,,,,,,,,,,,,,,,,,,,,,,,,,,,,,,,,,,,,,,,,,,,,,,,,,,,,,,,
,,,,,,609228e91a85cc5c8908fbd7,62c538ac3d012ff394c79225,2022-07-06_02h23.02.455,Colour_Asymmetry_Pilot,2022.1.3,Win32,59.42476824,62c50e9c1127f2cd403a315f,0,35,35,53,1,threefour,,,,,,,,,,,,,,,,,,,,,,,,,,,,,,,,,,,,,,,,,,,,,,,,,,,,,,,,,,,,,,,,,,,,,,,,,,,,,,,,,,,,,,,,,,,,,,,,,,,,,,,,,,,,,,,,,,,,,,,,,,,,,,,,,,,,,,,,,,,,,,,,,,,,,,,,,,,,,
,,,,,,609228e91a85cc5c8908fbd7,62c538ac3d012ff394c79225,2022-07-06_02h23.02.455,Colour_Asymmetry_Pilot,2022.1.3,Win32,59.42476824,62c50e9c1127f2cd403a315f,0,36,36,41,1,onethree,,,,,,,,,,,,,,,,,,,,,,,,,,,,,,,,,,,,,,,,,,,,,,,,,,,,,,,,,,,,,,,,,,,,,,,,,,,,,,,,,,,,,,,,,,,,,,,,,,,,,,,,,,,,,,,,,,,,,,,,,,,,,,,,,,,,,,,,,,,,,,,,,,,,,,,,,,,,,
,,,,,,609228e91a85cc5c8908fbd7,62c538ac3d012ff394c79225,2022-07-06_02h23.02.455,Colour_Asymmetry_Pilot,2022.1.3,Win32,59.42476824,62c50e9c1127f2cd403a315f,0,37,37,156,1,threeone,,,,,,,,,,,,,,,,,,,,,,,,,,,,,,,,,,,,,,,,,,,,,,,,,,,,,,,,,,,,,,,,,,,,,,,,,,,,,,,,,,,,,,,,,,,,,,,,,,,,,,,,,,,,,,,,,,,,,,,,,,,,,,,,,,,,,,,,,,,,,,,,,,,,,,,,,,,,,
,,,,,,609228e91a85cc5c8908fbd7,62c538ac3d012ff394c79225,2022-07-06_02h23.02.455,Colour_Asymmetry_Pilot,2022.1.3,Win32,59.42476824,62c50e9c1127f2cd403a315f,0,38,38,92,1,threeone,,,,,,,,,,,,,,,,,,,,,,,,,,,,,,,,,,,,,,,,,,,,,,,,,,,,,,,,,,,,,,,,,,,,,,,,,,,,,,,,,,,,,,,,,,,,,,,,,,,,,,,,,,,,,,,,,,,,,,,,,,,,,,,,,,,,,,,,,,,,,,,,,,,,,,,,,,,,,
,,,,,,609228e91a85cc5c8908fbd7,62c538ac3d012ff394c79225,2022-07-06_02h23.02.455,Colour_Asymmetry_Pilot,2022.1.3,Win32,59.42476824,62c50e9c1127f2cd403a315f,0,39,39,141,1,threefour,,,,,,,,,,,,,,,,,,,,,,,,,,,,,,,,,,,,,,,,,,,,,,,,,,,,,,,,,,,,,,,,,,,,,,,,,,,,,,,,,,,,,,,,,,,,,,,,,,,,,,,,,,,,,,,,,,,,,,,,,,,,,,,,,,,,,,,,,,,,,,,,,,,,,,,,,,,,,
,,,,,,609228e91a85cc5c8908fbd7,62c538ac3d012ff394c79225,2022-07-06_02h23.02.455,Colour_Asymmetry_Pilot,2022.1.3,Win32,59.42476824,62c50e9c1127f2cd403a315f,0,40,40,32,1,onetwo,,,,,,,,,,,,,,,,,,,,,,,,,,,,,,,,,,,,,,,,,,,,,,,,,,,,,,,,,,,,,,,,,,,,,,,,,,,,,,,,,,,,,,,,,,,,,,,,,,,,,,,,,,,,,,,,,,,,,,,,,,,,,,,,,,,,,,,,,,,,,,,,,,,,,,,,,,,,,
,,,,,,609228e91a85cc5c8908fbd7,62c538ac3d012ff394c79225,2022-07-06_02h23.02.455,Colour_Asymmetry_Pilot,2022.1.3,Win32,59.42476824,62c50e9c1127f2cd403a315f,0,41,41,99,1,twofour,,,,,,,,,,,,,,,,,,,,,,,,,,,,,,,,,,,,,,,,,,,,,,,,,,,,,,,,,,,,,,,,,,,,,,,,,,,,,,,,,,,,,,,,,,,,,,,,,,,,,,,,,,,,,,,,,,,,,,,,,,,,,,,,,,,,,,,,,,,,,,,,,,,,,,,,,,,,,
,,,,,,609228e91a85cc5c8908fbd7,62c538ac3d012ff394c79225,2022-07-06_02h23.02.455,Colour_Asymmetry_Pilot,2022.1.3,Win32,59.42476824,62c50e9c1127f2cd403a315f,0,42,42,75,1,twofour,,,,,,,,,,,,,,,,,,,,,,,,,,,,,,,,,,,,,,,,,,,,,,,,,,,,,,,,,,,,,,,,,,,,,,,,,,,,,,,,,,,,,,,,,,,,,,,,,,,,,,,,,,,,,,,,,,,,,,,,,,,,,,,,,,,,,,,,,,,,,,,,,,,,,,,,,,,,,
,,,,,,609228e91a85cc5c8908fbd7,62c538ac3d012ff394c79225,2022-07-06_02h23.02.455,Colour_Asymmetry_Pilot,2022.1.3,Win32,59.42476824,62c50e9c1127f2cd403a315f,0,43,43,65,1,onethree,,,,,,,,,,,,,,,,,,,,,,,,,,,,,,,,,,,,,,,,,,,,,,,,,,,,,,,,,,,,,,,,,,,,,,,,,,,,,,,,,,,,,,,,,,,,,,,,,,,,,,,,,,,,,,,,,,,,,,,,,,,,,,,,,,,,,,,,,,,,,,,,,,,,,,,,,,,,,
,,,,,,609228e91a85cc5c8908fbd7,62c538ac3d012ff394c79225,2022-07-06_02h23.02.455,Colour_Asymmetry_Pilot,2022.1.3,Win32,59.42476824,62c50e9c1127f2cd403a315f,0,44,44,64,1,onetwo,,,,,,,,,,,,,,,,,,,,,,,,,,,,,,,,,,,,,,,,,,,,,,,,,,,,,,,,,,,,,,,,,,,,,,,,,,,,,,,,,,,,,,,,,,,,,,,,,,,,,,,,,,,,,,,,,,,,,,,,,,,,,,,,,,,,,,,,,,,,,,,,,,,,,,,,,,,,,
,,,,,,609228e91a85cc5c8908fbd7,62c538ac3d012ff394c79225,2022-07-06_02h23.02.455,Colour_Asymmetry_Pilot,2022.1.3,Win32,59.42476824,62c50e9c1127f2cd403a315f,0,45,45,31,1,fourthree,,,,,,,,,,,,,,,,,,,,,,,,,,,,,,,,,,,,,,,,,,,,,,,,,,,,,,,,,,,,,,,,,,,,,,,,,,,,,,,,,,,,,,,,,,,,,,,,,,,,,,,,,,,,,,,,,,,,,,,,,,,,,,,,,,,,,,,,,,,,,,,,,,,,,,,,,,,,,
,,,,,,609228e91a85cc5c8908fbd7,62c538ac3d012ff394c79225,2022-07-06_02h23.02.455,Colour_Asymmetry_Pilot,2022.1.3,Win32,59.42476824,62c50e9c1127f2cd403a315f,0,46,46,85,1,threefour,,,,,,,,,,,,,,,,,,,,,,,,,,,,,,,,,,,,,,,,,,,,,,,,,,,,,,,,,,,,,,,,,,,,,,,,,,,,,,,,,,,,,,,,,,,,,,,,,,,,,,,,,,,,,,,,,,,,,,,,,,,,,,,,,,,,,,,,,,,,,,,,,,,,,,,,,,,,,
,,,,,,609228e91a85cc5c8908fbd7,62c538ac3d012ff394c79225,2022-07-06_02h23.02.455,Colour_Asymmetry_Pilot,2022.1.3,Win32,59.42476824,62c50e9c1127f2cd403a315f,0,47,47,10,1,twoone,,,,,,,,,,,,,,,,,,,,,,,,,,,,,,,,,,,,,,,,,,,,,,,,,,,,,,,,,,,,,,,,,,,,,,,,,,,,,,,,,,,,,,,,,,,,,,,,,,,,,,,,,,,,,,,,,,,,,,,,,,,,,,,,,,,,,,,,,,,,,,,,,,,,,,,,,,,,,
,,,,,,609228e91a85cc5c8908fbd7,62c538ac3d012ff394c79225,2022-07-06_02h23.02.455,Colour_Asymmetry_Pilot,2022.1.3,Win32,59.42476824,62c50e9c1127f2cd403a315f,0,48,48,147,1,twofour,,,,,,,,,,,,,,,,,,,,,,,,,,,,,,,,,,,,,,,,,,,,,,,,,,,,,,,,,,,,,,,,,,,,,,,,,,,,,,,,,,,,,,,,,,,,,,,,,,,,,,,,,,,,,,,,,,,,,,,,,,,,,,,,,,,,,,,,,,,,,,,,,,,,,,,,,,,,,
,,,,,,609228e91a85cc5c8908fbd7,62c538ac3d012ff394c79225,2022-07-06_02h23.02.455,Colour_Asymmetry_Pilot,2022.1.3,Win32,59.42476824,62c50e9c1127f2cd403a315f,0,49,49,60,1,threeone,,,,,,,,,,,,,,,,,,,,,,,,,,,,,,,,,,,,,,,,,,,,,,,,,,,,,,,,,,,,,,,,,,,,,,,,,,,,,,,,,,,,,,,,,,,,,,,,,,,,,,,,,,,,,,,,,,,,,,,,,,,,,,,,,,,,,,,,,,,,,,,,,,,,,,,,,,,,,
,,,,,,609228e91a85cc5c8908fbd7,62c538ac3d012ff394c79225,2022-07-06_02h23.02.455,Colour_Asymmetry_Pilot,2022.1.3,Win32,59.42476824,62c50e9c1127f2cd403a315f,0,50,50,48,1,onetwo,,,,,,,,,,,,,,,,,,,,,,,,,,,,,,,,,,,,,,,,,,,,,,,,,,,,,,,,,,,,,,,,,,,,,,,,,,,,,,,,,,,,,,,,,,,,,,,,,,,,,,,,,,,,,,,,,,,,,,,,,,,,,,,,,,,,,,,,,,,,,,,,,,,,,,,,,,,,,
,,,,,,609228e91a85cc5c8908fbd7,62c538ac3d012ff394c79225,2022-07-06_02h23.02.455,Colour_Asymmetry_Pilot,2022.1.3,Win32,59.42476824,62c50e9c1127f2cd403a315f,0,51,51,97,1,onethree,,,,,,,,,,,,,,,,,,,,,,,,,,,,,,,,,,,,,,,,,,,,,,,,,,,,,,,,,,,,,,,,,,,,,,,,,,,,,,,,,,,,,,,,,,,,,,,,,,,,,,,,,,,,,,,,,,,,,,,,,,,,,,,,,,,,,,,,,,,,,,,,,,,,,,,,,,,,,
,,,,,,609228e91a85cc5c8908fbd7,62c538ac3d012ff394c79225,2022-07-06_02h23.02.455,Colour_Asymmetry_Pilot,2022.1.3,Win32,59.42476824,62c50e9c1127f2cd403a315f,0,52,52,13,1,threefour,,,,,,,,,,,,,,,,,,,,,,,,,,,,,,,,,,,,,,,,,,,,,,,,,,,,,,,,,,,,,,,,,,,,,,,,,,,,,,,,,,,,,,,,,,,,,,,,,,,,,,,,,,,,,,,,,,,,,,,,,,,,,,,,,,,,,,,,,,,,,,,,,,,,,,,,,,,,,
,,,,,,609228e91a85cc5c8908fbd7,62c538ac3d012ff394c79225,2022-07-06_02h23.02.455,Colour_Asymmetry_Pilot,2022.1.3,Win32,59.42476824,62c50e9c1127f2cd403a315f,0,53,53,63,1,fourthree,,,,,,,,,,,,,,,,,,,,,,,,,,,,,,,,,,,,,,,,,,,,,,,,,,,,,,,,,,,,,,,,,,,,,,,,,,,,,,,,,,,,,,,,,,,,,,,,,,,,,,,,,,,,,,,,,,,,,,,,,,,,,,,,,,,,,,,,,,,,,,,,,,,,,,,,,,,,,
,,,,,,609228e91a85cc5c8908fbd7,62c538ac3d012ff394c79225,2022-07-06_02h23.02.455,Colour_Asymmetry_Pilot,2022.1.3,Win32,59.42476824,62c50e9c1127f2cd403a315f,0,54,54,78,1,fourtwo,,,,,,,,,,,,,,,,,,,,,,,,,,,,,,,,,,,,,,,,,,,,,,,,,,,,,,,,,,,,,,,,,,,,,,,,,,,,,,,,,,,,,,,,,,,,,,,,,,,,,,,,,,,,,,,,,,,,,,,,,,,,,,,,,,,,,,,,,,,,,,,,,,,,,,,,,,,,,
,,,,,,609228e91a85cc5c8908fbd7,62c538ac3d012ff394c79225,2022-07-06_02h23.02.455,Colour_Asymmetry_Pilot,2022.1.3,Win32,59.42476824,62c50e9c1127f2cd403a315f,0,55,55,45,1,threefour,,,,,,,,,,,,,,,,,,,,,,,,,,,,,,,,,,,,,,,,,,,,,,,,,,,,,,,,,,,,,,,,,,,,,,,,,,,,,,,,,,,,,,,,,,,,,,,,,,,,,,,,,,,,,,,,,,,,,,,,,,,,,,,,,,,,,,,,,,,,,,,,,,,,,,,,,,,,,
,,,,,,609228e91a85cc5c8908fbd7,62c538ac3d012ff394c79225,2022-07-06_02h23.02.455,Colour_Asymmetry_Pilot,2022.1.3,Win32,59.42476824,62c50e9c1127f2cd403a315f,0,56,56,135,1,fourthree,,,,,,,,,,,,,,,,,,,,,,,,,,,,,,,,,,,,,,,,,,,,,,,,,,,,,,,,,,,,,,,,,,,,,,,,,,,,,,,,,,,,,,,,,,,,,,,,,,,,,,,,,,,,,,,,,,,,,,,,,,,,,,,,,,,,,,,,,,,,,,,,,,,,,,,,,,,,,
,,,,,,609228e91a85cc5c8908fbd7,62c538ac3d012ff394c79225,2022-07-06_02h23.02.455,Colour_Asymmetry_Pilot,2022.1.3,Win32,59.42476824,62c50e9c1127f2cd403a315f,0,57,57,69,1,threefour,,,,,,,,,,,,,,,,,,,,,,,,,,,,,,,,,,,,,,,,,,,,,,,,,,,,,,,,,,,,,,,,,,,,,,,,,,,,,,,,,,,,,,,,,,,,,,,,,,,,,,,,,,,,,,,,,,,,,,,,,,,,,,,,,,,,,,,,,,,,,,,,,,,,,,,,,,,,,
,,,,,,609228e91a85cc5c8908fbd7,62c538ac3d012ff394c79225,2022-07-06_02h23.02.455,Colour_Asymmetry_Pilot,2022.1.3,Win32,59.42476824,62c50e9c1127f2cd403a315f,0,58,58,56,1,onetwo,,,,,,,,,,,,,,,,,,,,,,,,,,,,,,,,,,,,,,,,,,,,,,,,,,,,,,,,,,,,,,,,,,,,,,,,,,,,,,,,,,,,,,,,,,,,,,,,,,,,,,,,,,,,,,,,,,,,,,,,,,,,,,,,,,,,,,,,,,,,,,,,,,,,,,,,,,,,,
,,,,,,609228e91a85cc5c8908fbd7,62c538ac3d012ff394c79225,2022-07-06_02h23.02.455,Colour_Asymmetry_Pilot,2022.1.3,Win32,59.42476824,62c50e9c1127f2cd403a315f,0,59,59,0,1,onetwo,,,,,,,,,,,,,,,,,,,,,,,,,,,,,,,,,,,,,,,,,,,,,,,,,,,,,,,,,,,,,,,,,,,,,,,,,,,,,,,,,,,,,,,,,,,,,,,,,,,,,,,,,,,,,,,,,,,,,,,,,,,,,,,,,,,,,,,,,,,,,,,,,,,,,,,,,,,,,
,,,,,,609228e91a85cc5c8908fbd7,62c538ac3d012ff394c79225,2022-07-06_02h23.02.455,Colour_Asymmetry_Pilot,2022.1.3,Win32,59.42476824,62c50e9c1127f2cd403a315f,0,60,60,144,1,onetwo,,,,,,,,,,,,,,,,,,,,,,,,,,,,,,,,,,,,,,,,,,,,,,,,,,,,,,,,,,,,,,,,,,,,,,,,,,,,,,,,,,,,,,,,,,,,,,,,,,,,,,,,,,,,,,,,,,,,,,,,,,,,,,,,,,,,,,,,,,,,,,,,,,,,,,,,,,,,,
,,,,,,609228e91a85cc5c8908fbd7,62c538ac3d012ff394c79225,2022-07-06_02h23.02.455,Colour_Asymmetry_Pilot,2022.1.3,Win32,59.42476824,62c50e9c1127f2cd403a315f,0,61,61,54,1,fourtwo,,,,,,,,,,,,,,,,,,,,,,,,,,,,,,,,,,,,,,,,,,,,,,,,,,,,,,,,,,,,,,,,,,,,,,,,,,,,,,,,,,,,,,,,,,,,,,,,,,,,,,,,,,,,,,,,,,,,,,,,,,,,,,,,,,,,,,,,,,,,,,,,,,,,,,,,,,,,,
,,,,,,609228e91a85cc5c8908fbd7,62c538ac3d012ff394c79225,2022-07-06_02h23.02.455,Colour_Asymmetry_Pilot,2022.1.3,Win32,59.42476824,62c50e9c1127f2cd403a315f,0,62,62,18,1,twoone,,,,,,,,,,,,,,,,,,,,,,,,,,,,,,,,,,,,,,,,,,,,,,,,,,,,,,,,,,,,,,,,,,,,,,,,,,,,,,,,,,,,,,,,,,,,,,,,,,,,,,,,,,,,,,,,,,,,,,,,,,,,,,,,,,,,,,,,,,,,,,,,,,,,,,,,,,,,,
,,,,,,609228e91a85cc5c8908fbd7,62c538ac3d012ff394c79225,2022-07-06_02h23.02.455,Colour_Asymmetry_Pilot,2022.1.3,Win32,59.42476824,62c50e9c1127f2cd403a315f,0,63,63,67,1,twofour,,,,,,,,,,,,,,,,,,,,,,,,,,,,,,,,,,,,,,,,,,,,,,,,,,,,,,,,,,,,,,,,,,,,,,,,,,,,,,,,,,,,,,,,,,,,,,,,,,,,,,,,,,,,,,,,,,,,,,,,,,,,,,,,,,,,,,,,,,,,,,,,,,,,,,,,,,,,,
,,,,,,609228e91a85cc5c8908fbd7,62c538ac3d012ff394c79225,2022-07-06_02h23.02.455,Colour_Asymmetry_Pilot,2022.1.3,Win32,59.42476824,62c50e9c1127f2cd403a315f,0,64,64,143,1,fourthree,,,,,,,,,,,,,,,,,,,,,,,,,,,,,,,,,,,,,,,,,,,,,,,,,,,,,,,,,,,,,,,,,,,,,,,,,,,,,,,,,,,,,,,,,,,,,,,,,,,,,,,,,,,,,,,,,,,,,,,,,,,,,,,,,,,,,,,,,,,,,,,,,,,,,,,,,,,,,
,,,,,,609228e91a85cc5c8908fbd7,62c538ac3d012ff394c79225,2022-07-06_02h23.02.455,Colour_Asymmetry_Pilot,2022.1.3,Win32,59.42476824,62c50e9c1127f2cd403a315f,0,65,65,94,1,fourtwo,,,,,,,,,,,,,,,,,,,,,,,,,,,,,,,,,,,,,,,,,,,,,,,,,,,,,,,,,,,,,,,,,,,,,,,,,,,,,,,,,,,,,,,,,,,,,,,,,,,,,,,,,,,,,,,,,,,,,,,,,,,,,,,,,,,,,,,,,,,,,,,,,,,,,,,,,,,,,
,,,,,,609228e91a85cc5c8908fbd7,62c538ac3d012ff394c79225,2022-07-06_02h23.02.455,Colour_Asymmetry_Pilot,2022.1.3,Win32,59.42476824,62c50e9c1127f2cd403a315f,0,66,66,71,1,fourthree,,,,,,,,,,,,,,,,,,,,,,,,,,,,,,,,,,,,,,,,,,,,,,,,,,,,,,,,,,,,,,,,,,,,,,,,,,,,,,,,,,,,,,,,,,,,,,,,,,,,,,,,,,,,,,,,,,,,,,,,,,,,,,,,,,,,,,,,,,,,,,,,,,,,,,,,,,,,,
,,,,,,609228e91a85cc5c8908fbd7,62c538ac3d012ff394c79225,2022-07-06_02h23.02.455,Colour_Asymmetry_Pilot,2022.1.3,Win32,59.42476824,62c50e9c1127f2cd403a315f,0,67,67,146,1,twoone,,,,,,,,,,,,,,,,,,,,,,,,,,,,,,,,,,,,,,,,,,,,,,,,,,,,,,,,,,,,,,,,,,,,,,,,,,,,,,,,,,,,,,,,,,,,,,,,,,,,,,,,,,,,,,,,,,,,,,,,,,,,,,,,,,,,,,,,,,,,,,,,,,,,,,,,,,,,,
,,,,,,609228e91a85cc5c8908fbd7,62c538ac3d012ff394c79225,2022-07-06_02h23.02.455,Colour_Asymmetry_Pilot,2022.1.3,Win32,59.42476824,62c50e9c1127f2cd403a315f,0,68,68,61,1,threefour,,,,,,,,,,,,,,,,,,,,,,,,,,,,,,,,,,,,,,,,,,,,,,,,,,,,,,,,,,,,,,,,,,,,,,,,,,,,,,,,,,,,,,,,,,,,,,,,,,,,,,,,,,,,,,,,,,,,,,,,,,,,,,,,,,,,,,,,,,,,,,,,,,,,,,,,,,,,,
,,,,,,609228e91a85cc5c8908fbd7,62c538ac3d012ff394c79225,2022-07-06_02h23.02.455,Colour_Asymmetry_Pilot,2022.1.3,Win32,59.42476824,62c50e9c1127f2cd403a315f,0,69,69,137,1,onethree,,,,,,,,,,,,,,,,,,,,,,,,,,,,,,,,,,,,,,,,,,,,,,,,,,,,,,,,,,,,,,,,,,,,,,,,,,,,,,,,,,,,,,,,,,,,,,,,,,,,,,,,,,,,,,,,,,,,,,,,,,,,,,,,,,,,,,,,,,,,,,,,,,,,,,,,,,,,,
,,,,,,609228e91a85cc5c8908fbd7,62c538ac3d012ff394c79225,2022-07-06_02h23.02.455,Colour_Asymmetry_Pilot,2022.1.3,Win32,59.42476824,62c50e9c1127f2cd403a315f,0,70,70,77,1,threefour,,,,,,,,,,,,,,,,,,,,,,,,,,,,,,,,,,,,,,,,,,,,,,,,,,,,,,,,,,,,,,,,,,,,,,,,,,,,,,,,,,,,,,,,,,,,,,,,,,,,,,,,,,,,,,,,,,,,,,,,,,,,,,,,,,,,,,,,,,,,,,,,,,,,,,,,,,,,,
,,,,,,609228e91a85cc5c8908fbd7,62c538ac3d012ff394c79225,2022-07-06_02h23.02.455,Colour_Asymmetry_Pilot,2022.1.3,Win32,59.42476824,62c50e9c1127f2cd403a315f,0,71,71,8,1,onetwo,,,,,,,,,,,,,,,,,,,,,,,,,,,,,,,,,,,,,,,,,,,,,,,,,,,,,,,,,,,,,,,,,,,,,,,,,,,,,,,,,,,,,,,,,,,,,,,,,,,,,,,,,,,,,,,,,,,,,,,,,,,,,,,,,,,,,,,,,,,,,,,,,,,,,,,,,,,,,
,,,,,,609228e91a85cc5c8908fbd7,62c538ac3d012ff394c79225,2022-07-06_02h23.02.455,Colour_Asymmetry_Pilot,2022.1.3,Win32,59.42476824,62c50e9c1127f2cd403a315f,0,72,72,4,1,threeone,,,,,,,,,,,,,,,,,,,,,,,,,,,,,,,,,,,,,,,,,,,,,,,,,,,,,,,,,,,,,,,,,,,,,,,,,,,,,,,,,,,,,,,,,,,,,,,,,,,,,,,,,,,,,,,,,,,,,,,,,,,,,,,,,,,,,,,,,,,,,,,,,,,,,,,,,,,,,
,,,,,,609228e91a85cc5c8908fbd7,62c538ac3d012ff394c79225,2022-07-06_02h23.02.455,Colour_Asymmetry_Pilot,2022.1.3,Win32,59.42476824,62c50e9c1127f2cd403a315f,0,73,73,15,1,fourthree,,,,,,,,,,,,,,,,,,,,,,,,,,,,,,,,,,,,,,,,,,,,,,,,,,,,,,,,,,,,,,,,,,,,,,,,,,,,,,,,,,,,,,,,,,,,,,,,,,,,,,,,,,,,,,,,,,,,,,,,,,,,,,,,,,,,,,,,,,,,,,,,,,,,,,,,,,,,,
,,,,,,609228e91a85cc5c8908fbd7,62c538ac3d012ff394c79225,2022-07-06_02h23.02.455,Colour_Asymmetry_Pilot,2022.1.3,Win32,59.42476824,62c50e9c1127f2cd403a315f,0,74,74,109,1,threefour,,,,,,,,,,,,,,,,,,,,,,,,,,,,,,,,,,,,,,,,,,,,,,,,,,,,,,,,,,,,,,,,,,,,,,,,,,,,,,,,,,,,,,,,,,,,,,,,,,,,,,,,,,,,,,,,,,,,,,,,,,,,,,,,,,,,,,,,,,,,,,,,,,,,,,,,,,,,,
,,,,,,609228e91a85cc5c8908fbd7,62c538ac3d012ff394c79225,2022-07-06_02h23.02.455,Colour_Asymmetry_Pilot,2022.1.3,Win32,59.42476824,62c50e9c1127f2cd403a315f,0,75,75,46,1,fourtwo,,,,,,,,,,,,,,,,,,,,,,,,,,,,,,,,,,,,,,,,,,,,,,,,,,,,,,,,,,,,,,,,,,,,,,,,,,,,,,,,,,,,,,,,,,,,,,,,,,,,,,,,,,,,,,,,,,,,,,,,,,,,,,,,,,,,,,,,,,,,,,,,,,,,,,,,,,,,,
,,,,,,609228e91a85cc5c8908fbd7,62c538ac3d012ff394c79225,2022-07-06_02h23.02.455,Colour_Asymmetry_Pilot,2022.1.3,Win32,59.42476824,62c50e9c1127f2cd403a315f,0,76,76,98,1,twoone,,,,,,,,,,,,,,,,,,,,,,,,,,,,,,,,,,,,,,,,,,,,,,,,,,,,,,,,,,,,,,,,,,,,,,,,,,,,,,,,,,,,,,,,,,,,,,,,,,,,,,,,,,,,,,,,,,,,,,,,,,,,,,,,,,,,,,,,,,,,,,,,,,,,,,,,,,,,,
,,,,,,609228e91a85cc5c8908fbd7,62c538ac3d012ff394c79225,2022-07-06_02h23.02.455,Colour_Asymmetry_Pilot,2022.1.3,Win32,59.42476824,62c50e9c1127f2cd403a315f,0,77,77,96,1,onetwo,,,,,,,,,,,,,,,,,,,,,,,,,,,,,,,,,,,,,,,,,,,,,,,,,,,,,,,,,,,,,,,,,,,,,,,,,,,,,,,,,,,,,,,,,,,,,,,,,,,,,,,,,,,,,,,,,,,,,,,,,,,,,,,,,,,,,,,,,,,,,,,,,,,,,,,,,,,,,
,,,,,,609228e91a85cc5c8908fbd7,62c538ac3d012ff394c79225,2022-07-06_02h23.02.455,Colour_Asymmetry_Pilot,2022.1.3,Win32,59.42476824,62c50e9c1127f2cd403a315f,0,78,78,30,1,fourtwo,,,,,,,,,,,,,,,,,,,,,,,,,,,,,,,,,,,,,,,,,,,,,,,,,,,,,,,,,,,,,,,,,,,,,,,,,,,,,,,,,,,,,,,,,,,,,,,,,,,,,,,,,,,,,,,,,,,,,,,,,,,,,,,,,,,,,,,,,,,,,,,,,,,,,,,,,,,,,
,,,,,,609228e91a85cc5c8908fbd7,62c538ac3d012ff394c79225,2022-07-06_02h23.02.455,Colour_Asymmetry_Pilot,2022.1.3,Win32,59.42476824,62c50e9c1127f2cd403a315f,0,79,79,34,1,twoone,,,,,,,,,,,,,,,,,,,,,,,,,,,,,,,,,,,,,,,,,,,,,,,,,,,,,,,,,,,,,,,,,,,,,,,,,,,,,,,,,,,,,,,,,,,,,,,,,,,,,,,,,,,,,,,,,,,,,,,,,,,,,,,,,,,,,,,,,,,,,,,,,,,,,,,,,,,,,
,,,,,,609228e91a85cc5c8908fbd7,62c538ac3d012ff394c79225,2022-07-06_02h23.02.455,Colour_Asymmetry_Pilot,2022.1.3,Win32,59.42476824,62c50e9c1127f2cd403a315f,0,80,80,23,1,fourthree,,,,,,,,,,,,,,,,,,,,,,,,,,,,,,,,,,,,,,,,,,,,,,,,,,,,,,,,,,,,,,,,,,,,,,,,,,,,,,,,,,,,,,,,,,,,,,,,,,,,,,,,,,,,,,,,,,,,,,,,,,,,,,,,,,,,,,,,,,,,,,,,,,,,,,,,,,,,,
,,,,,,609228e91a85cc5c8908fbd7,62c538ac3d012ff394c79225,2022-07-06_02h23.02.455,Colour_Asymmetry_Pilot,2022.1.3,Win32,59.42476824,62c50e9c1127f2cd403a315f,0,81,81,80,1,onetwo,,,,,,,,,,,,,,,,,,,,,,,,,,,,,,,,,,,,,,,,,,,,,,,,,,,,,,,,,,,,,,,,,,,,,,,,,,,,,,,,,,,,,,,,,,,,,,,,,,,,,,,,,,,,,,,,,,,,,,,,,,,,,,,,,,,,,,,,,,,,,,,,,,,,,,,,,,,,,
,,,,,,609228e91a85cc5c8908fbd7,62c538ac3d012ff394c79225,2022-07-06_02h23.02.455,Colour_Asymmetry_Pilot,2022.1.3,Win32,59.42476824,62c50e9c1127f2cd403a315f,0,82,82,83,1,twofour,,,,,,,,,,,,,,,,,,,,,,,,,,,,,,,,,,,,,,,,,,,,,,,,,,,,,,,,,,,,,,,,,,,,,,,,,,,,,,,,,,,,,,,,,,,,,,,,,,,,,,,,,,,,,,,,,,,,,,,,,,,,,,,,,,,,,,,,,,,,,,,,,,,,,,,,,,,,,
,,,,,,609228e91a85cc5c8908fbd7,62c538ac3d012ff394c79225,2022-07-06_02h23.02.455,Colour_Asymmetry_Pilot,2022.1.3,Win32,59.42476824,62c50e9c1127f2cd403a315f,0,83,83,5,1,threefour,,,,,,,,,,,,,,,,,,,,,,,,,,,,,,,,,,,,,,,,,,,,,,,,,,,,,,,,,,,,,,,,,,,,,,,,,,,,,,,,,,,,,,,,,,,,,,,,,,,,,,,,,,,,,,,,,,,,,,,,,,,,,,,,,,,,,,,,,,,,,,,,,,,,,,,,,,,,,
,,,,,,609228e91a85cc5c8908fbd7,62c538ac3d012ff394c79225,2022-07-06_02h23.02.455,Colour_Asymmetry_Pilot,2022.1.3,Win32,59.42476824,62c50e9c1127f2cd403a315f,0,84,84,55,1,fourthree,,,,,,,,,,,,,,,,,,,,,,,,,,,,,,,,,,,,,,,,,,,,,,,,,,,,,,,,,,,,,,,,,,,,,,,,,,,,,,,,,,,,,,,,,,,,,,,,,,,,,,,,,,,,,,,,,,,,,,,,,,,,,,,,,,,,,,,,,,,,,,,,,,,,,,,,,,,,,
,,,,,,609228e91a85cc5c8908fbd7,62c538ac3d012ff394c79225,2022-07-06_02h23.02.455,Colour_Asymmetry_Pilot,2022.1.3,Win32,59.42476824,62c50e9c1127f2cd403a315f,0,85,85,157,1,threefour,,,,,,,,,,,,,,,,,,,,,,,,,,,,,,,,,,,,,,,,,,,,,,,,,,,,,,,,,,,,,,,,,,,,,,,,,,,,,,,,,,,,,,,,,,,,,,,,,,,,,,,,,,,,,,,,,,,,,,,,,,,,,,,,,,,,,,,,,,,,,,,,,,,,,,,,,,,,,
,,,,,,609228e91a85cc5c8908fbd7,62c538ac3d012ff394c79225,2022-07-06_02h23.02.455,Colour_Asymmetry_Pilot,2022.1.3,Win32,59.42476824,62c50e9c1127f2cd403a315f,0,86,86,131,1,twofour,,,,,,,,,,,,,,,,,,,,,,,,,,,,,,,,,,,,,,,,,,,,,,,,,,,,,,,,,,,,,,,,,,,,,,,,,,,,,,,,,,,,,,,,,,,,,,,,,,,,,,,,,,,,,,,,,,,,,,,,,,,,,,,,,,,,,,,,,,,,,,,,,,,,,,,,,,,,,
,,,,,,609228e91a85cc5c8908fbd7,62c538ac3d012ff394c79225,2022-07-06_02h23.02.455,Colour_Asymmetry_Pilot,2022.1.3,Win32,59.42476824,62c50e9c1127f2cd403a315f,0,87,87,154,1,twoone,,,,,,,,,,,,,,,,,,,,,,,,,,,,,,,,,,,,,,,,,,,,,,,,,,,,,,,,,,,,,,,,,,,,,,,,,,,,,,,,,,,,,,,,,,,,,,,,,,,,,,,,,,,,,,,,,,,,,,,,,,,,,,,,,,,,,,,,,,,,,,,,,,,,,,,,,,,,,
,,,,,,609228e91a85cc5c8908fbd7,62c538ac3d012ff394c79225,2022-07-06_02h23.02.455,Colour_Asymmetry_Pilot,2022.1.3,Win32,59.42476824,62c50e9c1127f2cd403a315f,0,88,88,119,1,fourthree,,,,,,,,,,,,,,,,,,,,,,,,,,,,,,,,,,,,,,,,,,,,,,,,,,,,,,,,,,,,,,,,,,,,,,,,,,,,,,,,,,,,,,,,,,,,,,,,,,,,,,,,,,,,,,,,,,,,,,,,,,,,,,,,,,,,,,,,,,,,,,,,,,,,,,,,,,,,,
,,,,,,609228e91a85cc5c8908fbd7,62c538ac3d012ff394c79225,2022-07-06_02h23.02.455,Colour_Asymmetry_Pilot,2022.1.3,Win32,59.42476824,62c50e9c1127f2cd403a315f,0,89,89,57,1,onethree,,,,,,,,,,,,,,,,,,,,,,,,,,,,,,,,,,,,,,,,,,,,,,,,,,,,,,,,,,,,,,,,,,,,,,,,,,,,,,,,,,,,,,,,,,,,,,,,,,,,,,,,,,,,,,,,,,,,,,,,,,,,,,,,,,,,,,,,,,,,,,,,,,,,,,,,,,,,,
,,,,,,609228e91a85cc5c8908fbd7,62c538ac3d012ff394c79225,2022-07-06_02h23.02.455,Colour_Asymmetry_Pilot,2022.1.3,Win32,59.42476824,62c50e9c1127f2cd403a315f,0,90,90,68,1,threeone,,,,,,,,,,,,,,,,,,,,,,,,,,,,,,,,,,,,,,,,,,,,,,,,,,,,,,,,,,,,,,,,,,,,,,,,,,,,,,,,,,,,,,,,,,,,,,,,,,,,,,,,,,,,,,,,,,,,,,,,,,,,,,,,,,,,,,,,,,,,,,,,,,,,,,,,,,,,,
,,,,,,609228e91a85cc5c8908fbd7,62c538ac3d012ff394c79225,2022-07-06_02h23.02.455,Colour_Asymmetry_Pilot,2022.1.3,Win32,59.42476824,62c50e9c1127f2cd403a315f,0,91,91,90,1,twoone,,,,,,,,,,,,,,,,,,,,,,,,,,,,,,,,,,,,,,,,,,,,,,,,,,,,,,,,,,,,,,,,,,,,,,,,,,,,,,,,,,,,,,,,,,,,,,,,,,,,,,,,,,,,,,,,,,,,,,,,,,,,,,,,,,,,,,,,,,,,,,,,,,,,,,,,,,,,,
,,,,,,609228e91a85cc5c8908fbd7,62c538ac3d012ff394c79225,2022-07-06_02h23.02.455,Colour_Asymmetry_Pilot,2022.1.3,Win32,59.42476824,62c50e9c1127f2cd403a315f,0,92,92,128,1,onetwo,,,,,,,,,,,,,,,,,,,,,,,,,,,,,,,,,,,,,,,,,,,,,,,,,,,,,,,,,,,,,,,,,,,,,,,,,,,,,,,,,,,,,,,,,,,,,,,,,,,,,,,,,,,,,,,,,,,,,,,,,,,,,,,,,,,,,,,,,,,,,,,,,,,,,,,,,,,,,
,,,,,,609228e91a85cc5c8908fbd7,62c538ac3d012ff394c79225,2022-07-06_02h23.02.455,Colour_Asymmetry_Pilot,2022.1.3,Win32,59.42476824,62c50e9c1127f2cd403a315f,0,93,93,58,1,twoone,,,,,,,,,,,,,,,,,,,,,,,,,,,,,,,,,,,,,,,,,,,,,,,,,,,,,,,,,,,,,,,,,,,,,,,,,,,,,,,,,,,,,,,,,,,,,,,,,,,,,,,,,,,,,,,,,,,,,,,,,,,,,,,,,,,,,,,,,,,,,,,,,,,,,,,,,,,,,
,,,,,,609228e91a85cc5c8908fbd7,62c538ac3d012ff394c79225,2022-07-06_02h23.02.455,Colour_Asymmetry_Pilot,2022.1.3,Win32,59.42476824,62c50e9c1127f2cd403a315f,0,94,94,66,1,twoone,,,,,,,,,,,,,,,,,,,,,,,,,,,,,,,,,,,,,,,,,,,,,,,,,,,,,,,,,,,,,,,,,,,,,,,,,,,,,,,,,,,,,,,,,,,,,,,,,,,,,,,,,,,,,,,,,,,,,,,,,,,,,,,,,,,,,,,,,,,,,,,,,,,,,,,,,,,,,
,,,,,,609228e91a85cc5c8908fbd7,62c538ac3d012ff394c79225,2022-07-06_02h23.02.455,Colour_Asymmetry_Pilot,2022.1.3,Win32,59.42476824,62c50e9c1127f2cd403a315f,0,95,95,12,1,threeone,,,,,,,,,,,,,,,,,,,,,,,,,,,,,,,,,,,,,,,,,,,,,,,,,,,,,,,,,,,,,,,,,,,,,,,,,,,,,,,,,,,,,,,,,,,,,,,,,,,,,,,,,,,,,,,,,,,,,,,,,,,,,,,,,,,,,,,,,,,,,,,,,,,,,,,,,,,,,
,,,,,,609228e91a85cc5c8908fbd7,62c538ac3d012ff394c79225,2022-07-06_02h23.02.455,Colour_Asymmetry_Pilot,2022.1.3,Win32,59.42476824,62c50e9c1127f2cd403a315f,0,96,96,37,1,threefour,,,,,,,,,,,,,,,,,,,,,,,,,,,,,,,,,,,,,,,,,,,,,,,,,,,,,,,,,,,,,,,,,,,,,,,,,,,,,,,,,,,,,,,,,,,,,,,,,,,,,,,,,,,,,,,,,,,,,,,,,,,,,,,,,,,,,,,,,,,,,,,,,,,,,,,,,,,,,
,,,,,,609228e91a85cc5c8908fbd7,62c538ac3d012ff394c79225,2022-07-06_02h23.02.455,Colour_Asymmetry_Pilot,2022.1.3,Win32,59.42476824,62c50e9c1127f2cd403a315f,0,97,97,7,1,fourthree,,,,,,,,,,,,,,,,,,,,,,,,,,,,,,,,,,,,,,,,,,,,,,,,,,,,,,,,,,,,,,,,,,,,,,,,,,,,,,,,,,,,,,,,,,,,,,,,,,,,,,,,,,,,,,,,,,,,,,,,,,,,,,,,,,,,,,,,,,,,,,,,,,,,,,,,,,,,,
,,,,,,609228e91a85cc5c8908fbd7,62c538ac3d012ff394c79225,2022-07-06_02h23.02.455,Colour_Asymmetry_Pilot,2022.1.3,Win32,59.42476824,62c50e9c1127f2cd403a315f,0,98,98,126,1,fourtwo,,,,,,,,,,,,,,,,,,,,,,,,,,,,,,,,,,,,,,,,,,,,,,,,,,,,,,,,,,,,,,,,,,,,,,,,,,,,,,,,,,,,,,,,,,,,,,,,,,,,,,,,,,,,,,,,,,,,,,,,,,,,,,,,,,,,,,,,,,,,,,,,,,,,,,,,,,,,,
,,,,,,609228e91a85cc5c8908fbd7,62c538ac3d012ff394c79225,2022-07-06_02h23.02.455,Colour_Asymmetry_Pilot,2022.1.3,Win32,59.42476824,62c50e9c1127f2cd403a315f,0,99,99,26,1,twoone,,,,,,,,,,,,,,,,,,,,,,,,,,,,,,,,,,,,,,,,,,,,,,,,,,,,,,,,,,,,,,,,,,,,,,,,,,,,,,,,,,,,,,,,,,,,,,,,,,,,,,,,,,,,,,,,,,,,,,,,,,,,,,,,,,,,,,,,,,,,,,,,,,,,,,,,,,,,,
,,,,,,609228e91a85cc5c8908fbd7,62c538ac3d012ff394c79225,2022-07-06_02h23.02.455,Colour_Asymmetry_Pilot,2022.1.3,Win32,59.42476824,62c50e9c1127f2cd403a315f,0,100,100,132,1,threeone,,,,,,,,,,,,,,,,,,,,,,,,,,,,,,,,,,,,,,,,,,,,,,,,,,,,,,,,,,,,,,,,,,,,,,,,,,,,,,,,,,,,,,,,,,,,,,,,,,,,,,,,,,,,,,,,,,,,,,,,,,,,,,,,,,,,,,,,,,,,,,,,,,,,,,,,,,,,,
,,,,,,609228e91a85cc5c8908fbd7,62c538ac3d012ff394c79225,2022-07-06_02h23.02.455,Colour_Asymmetry_Pilot,2022.1.3,Win32,59.42476824,62c50e9c1127f2cd403a315f,0,101,101,35,1,twofour,,,,,,,,,,,,,,,,,,,,,,,,,,,,,,,,,,,,,,,,,,,,,,,,,,,,,,,,,,,,,,,,,,,,,,,,,,,,,,,,,,,,,,,,,,,,,,,,,,,,,,,,,,,,,,,,,,,,,,,,,,,,,,,,,,,,,,,,,,,,,,,,,,,,,,,,,,,,,
,,,,,,609228e91a85cc5c8908fbd7,62c538ac3d012ff394c79225,2022-07-06_02h23.02.455,Colour_Asymmetry_Pilot,2022.1.3,Win32,59.42476824,62c50e9c1127f2cd403a315f,0,102,102,70,1,fourtwo,,,,,,,,,,,,,,,,,,,,,,,,,,,,,,,,,,,,,,,,,,,,,,,,,,,,,,,,,,,,,,,,,,,,,,,,,,,,,,,,,,,,,,,,,,,,,,,,,,,,,,,,,,,,,,,,,,,,,,,,,,,,,,,,,,,,,,,,,,,,,,,,,,,,,,,,,,,,,
,,,,,,609228e91a85cc5c8908fbd7,62c538ac3d012ff394c79225,2022-07-06_02h23.02.455,Colour_Asymmetry_Pilot,2022.1.3,Win32,59.42476824,62c50e9c1127f2cd403a315f,0,103,103,139,1,twofour,,,,,,,,,,,,,,,,,,,,,,,,,,,,,,,,,,,,,,,,,,,,,,,,,,,,,,,,,,,,,,,,,,,,,,,,,,,,,,,,,,,,,,,,,,,,,,,,,,,,,,,,,,,,,,,,,,,,,,,,,,,,,,,,,,,,,,,,,,,,,,,,,,,,,,,,,,,,,
,,,,,,609228e91a85cc5c8908fbd7,62c538ac3d012ff394c79225,2022-07-06_02h23.02.455,Colour_Asymmetry_Pilot,2022.1.3,Win32,59.42476824,62c50e9c1127f2cd403a315f,0,104,104,24,1,onetwo,,,,,,,,,,,,,,,,,,,,,,,,,,,,,,,,,,,,,,,,,,,,,,,,,,,,,,,,,,,,,,,,,,,,,,,,,,,,,,,,,,,,,,,,,,,,,,,,,,,,,,,,,,,,,,,,,,,,,,,,,,,,,,,,,,,,,,,,,,,,,,,,,,,,,,,,,,,,,
,,,,,,609228e91a85cc5c8908fbd7,62c538ac3d012ff394c79225,2022-07-06_02h23.02.455,Colour_Asymmetry_Pilot,2022.1.3,Win32,59.42476824,62c50e9c1127f2cd403a315f,0,105,105,38,1,fourtwo,,,,,,,,,,,,,,,,,,,,,,,,,,,,,,,,,,,,,,,,,,,,,,,,,,,,,,,,,,,,,,,,,,,,,,,,,,,,,,,,,,,,,,,,,,,,,,,,,,,,,,,,,,,,,,,,,,,,,,,,,,,,,,,,,,,,,,,,,,,,,,,,,,,,,,,,,,,,,
,,,,,,609228e91a85cc5c8908fbd7,62c538ac3d012ff394c79225,2022-07-06_02h23.02.455,Colour_Asymmetry_Pilot,2022.1.3,Win32,59.42476824,62c50e9c1127f2cd403a315f,0,106,106,50,1,twoone,,,,,,,,,,,,,,,,,,,,,,,,,,,,,,,,,,,,,,,,,,,,,,,,,,,,,,,,,,,,,,,,,,,,,,,,,,,,,,,,,,,,,,,,,,,,,,,,,,,,,,,,,,,,,,,,,,,,,,,,,,,,,,,,,,,,,,,,,,,,,,,,,,,,,,,,,,,,,
,,,,,,609228e91a85cc5c8908fbd7,62c538ac3d012ff394c79225,2022-07-06_02h23.02.455,Colour_Asymmetry_Pilot,2022.1.3,Win32,59.42476824,62c50e9c1127f2cd403a315f,0,107,107,20,1,threeone,,,,,,,,,,,,,,,,,,,,,,,,,,,,,,,,,,,,,,,,,,,,,,,,,,,,,,,,,,,,,,,,,,,,,,,,,,,,,,,,,,,,,,,,,,,,,,,,,,,,,,,,,,,,,,,,,,,,,,,,,,,,,,,,,,,,,,,,,,,,,,,,,,,,,,,,,,,,,
,,,,,,609228e91a85cc5c8908fbd7,62c538ac3d012ff394c79225,2022-07-06_02h23.02.455,Colour_Asymmetry_Pilot,2022.1.3,Win32,59.42476824,62c50e9c1127f2cd403a315f,0,108,108,130,1,twoone,,,,,,,,,,,,,,,,,,,,,,,,,,,,,,,,,,,,,,,,,,,,,,,,,,,,,,,,,,,,,,,,,,,,,,,,,,,,,,,,,,,,,,,,,,,,,,,,,,,,,,,,,,,,,,,,,,,,,,,,,,,,,,,,,,,,,,,,,,,,,,,,,,,,,,,,,,,,,
,,,,,,609228e91a85cc5c8908fbd7,62c538ac3d012ff394c79225,2022-07-06_02h23.02.455,Colour_Asymmetry_Pilot,2022.1.3,Win32,59.42476824,62c50e9c1127f2cd403a315f,0,109,109,33,1,onethree,,,,,,,,,,,,,,,,,,,,,,,,,,,,,,,,,,,,,,,,,,,,,,,,,,,,,,,,,,,,,,,,,,,,,,,,,,,,,,,,,,,,,,,,,,,,,,,,,,,,,,,,,,,,,,,,,,,,,,,,,,,,,,,,,,,,,,,,,,,,,,,,,,,,,,,,,,,,,
,,,,,,609228e91a85cc5c8908fbd7,62c538ac3d012ff394c79225,2022-07-06_02h23.02.455,Colour_Asymmetry_Pilot,2022.1.3,Win32,59.42476824,62c50e9c1127f2cd403a315f,0,110,110,88,1,onetwo,,,,,,,,,,,,,,,,,,,,,,,,,,,,,,,,,,,,,,,,,,,,,,,,,,,,,,,,,,,,,,,,,,,,,,,,,,,,,,,,,,,,,,,,,,,,,,,,,,,,,,,,,,,,,,,,,,,,,,,,,,,,,,,,,,,,,,,,,,,,,,,,,,,,,,,,,,,,,
,,,,,,609228e91a85cc5c8908fbd7,62c538ac3d012ff394c79225,2022-07-06_02h23.02.455,Colour_Asymmetry_Pilot,2022.1.3,Win32,59.42476824,62c50e9c1127f2cd403a315f,0,111,111,101,1,threefour,,,,,,,,,,,,,,,,,,,,,,,,,,,,,,,,,,,,,,,,,,,,,,,,,,,,,,,,,,,,,,,,,,,,,,,,,,,,,,,,,,,,,,,,,,,,,,,,,,,,,,,,,,,,,,,,,,,,,,,,,,,,,,,,,,,,,,,,,,,,,,,,,,,,,,,,,,,,,
,,,,,,609228e91a85cc5c8908fbd7,62c538ac3d012ff394c79225,2022-07-06_02h23.02.455,Colour_Asymmetry_Pilot,2022.1.3,Win32,59.42476824,62c50e9c1127f2cd403a315f,0,112,112,112,1,onetwo,,,,,,,,,,,,,,,,,,,,,,,,,,,,,,,,,,,,,,,,,,,,,,,,,,,,,,,,,,,,,,,,,,,,,,,,,,,,,,,,,,,,,,,,,,,,,,,,,,,,,,,,,,,,,,,,,,,,,,,,,,,,,,,,,,,,,,,,,,,,,,,,,,,,,,,,,,,,,
,,,,,,609228e91a85cc5c8908fbd7,62c538ac3d012ff394c79225,2022-07-06_02h23.02.455,Colour_Asymmetry_Pilot,2022.1.3,Win32,59.42476824,62c50e9c1127f2cd403a315f,0,113,113,155,1,twofour,,,,,,,,,,,,,,,,,,,,,,,,,,,,,,,,,,,,,,,,,,,,,,,,,,,,,,,,,,,,,,,,,,,,,,,,,,,,,,,,,,,,,,,,,,,,,,,,,,,,,,,,,,,,,,,,,,,,,,,,,,,,,,,,,,,,,,,,,,,,,,,,,,,,,,,,,,,,,
,,,,,,609228e91a85cc5c8908fbd7,62c538ac3d012ff394c79225,2022-07-06_02h23.02.455,Colour_Asymmetry_Pilot,2022.1.3,Win32,59.42476824,62c50e9c1127f2cd403a315f,0,114,114,158,1,fourtwo,,,,,,,,,,,,,,,,,,,,,,,,,,,,,,,,,,,,,,,,,,,,,,,,,,,,,,,,,,,,,,,,,,,,,,,,,,,,,,,,,,,,,,,,,,,,,,,,,,,,,,,,,,,,,,,,,,,,,,,,,,,,,,,,,,,,,,,,,,,,,,,,,,,,,,,,,,,,,
,,,,,,609228e91a85cc5c8908fbd7,62c538ac3d012ff394c79225,2022-07-06_02h23.02.455,Colour_Asymmetry_Pilot,2022.1.3,Win32,59.42476824,62c50e9c1127f2cd403a315f,0,115,115,149,1,threefour,,,,,,,,,,,,,,,,,,,,,,,,,,,,,,,,,,,,,,,,,,,,,,,,,,,,,,,,,,,,,,,,,,,,,,,,,,,,,,,,,,,,,,,,,,,,,,,,,,,,,,,,,,,,,,,,,,,,,,,,,,,,,,,,,,,,,,,,,,,,,,,,,,,,,,,,,,,,,
,,,,,,609228e91a85cc5c8908fbd7,62c538ac3d012ff394c79225,2022-07-06_02h23.02.455,Colour_Asymmetry_Pilot,2022.1.3,Win32,59.42476824,62c50e9c1127f2cd403a315f,0,116,116,148,1,threeone,,,,,,,,,,,,,,,,,,,,,,,,,,,,,,,,,,,,,,,,,,,,,,,,,,,,,,,,,,,,,,,,,,,,,,,,,,,,,,,,,,,,,,,,,,,,,,,,,,,,,,,,,,,,,,,,,,,,,,,,,,,,,,,,,,,,,,,,,,,,,,,,,,,,,,,,,,,,,
,,,,,,609228e91a85cc5c8908fbd7,62c538ac3d012ff394c79225,2022-07-06_02h23.02.455,Colour_Asymmetry_Pilot,2022.1.3,Win32,59.42476824,62c50e9c1127f2cd403a315f,0,117,117,36,1,threeone,,,,,,,,,,,,,,,,,,,,,,,,,,,,,,,,,,,,,,,,,,,,,,,,,,,,,,,,,,,,,,,,,,,,,,,,,,,,,,,,,,,,,,,,,,,,,,,,,,,,,,,,,,,,,,,,,,,,,,,,,,,,,,,,,,,,,,,,,,,,,,,,,,,,,,,,,,,,,
,,,,,,609228e91a85cc5c8908fbd7,62c538ac3d012ff394c79225,2022-07-06_02h23.02.455,Colour_Asymmetry_Pilot,2022.1.3,Win32,59.42476824,62c50e9c1127f2cd403a315f,0,118,118,104,1,onetwo,,,,,,,,,,,,,,,,,,,,,,,,,,,,,,,,,,,,,,,,,,,,,,,,,,,,,,,,,,,,,,,,,,,,,,,,,,,,,,,,,,,,,,,,,,,,,,,,,,,,,,,,,,,,,,,,,,,,,,,,,,,,,,,,,,,,,,,,,,,,,,,,,,,,,,,,,,,,,
,,,,,,609228e91a85cc5c8908fbd7,62c538ac3d012ff394c79225,2022-07-06_02h23.02.455,Colour_Asymmetry_Pilot,2022.1.3,Win32,59.42476824,62c50e9c1127f2cd403a315f,0,119,119,28,1,threeone,,,,,,,,,,,,,,,,,,,,,,,,,,,,,,,,,,,,,,,,,,,,,,,,,,,,,,,,,,,,,,,,,,,,,,,,,,,,,,,,,,,,,,,,,,,,,,,,,,,,,,,,,,,,,,,,,,,,,,,,,,,,,,,,,,,,,,,,,,,,,,,,,,,,,,,,,,,,,
,,,,,,609228e91a85cc5c8908fbd7,62c538ac3d012ff394c79225,2022-07-06_02h23.02.455,Colour_Asymmetry_Pilot,2022.1.3,Win32,59.42476824,62c50e9c1127f2cd403a315f,0,120,120,100,1,threeone,,,,,,,,,,,,,,,,,,,,,,,,,,,,,,,,,,,,,,,,,,,,,,,,,,,,,,,,,,,,,,,,,,,,,,,,,,,,,,,,,,,,,,,,,,,,,,,,,,,,,,,,,,,,,,,,,,,,,,,,,,,,,,,,,,,,,,,,,,,,,,,,,,,,,,,,,,,,,
,,,,,,609228e91a85cc5c8908fbd7,62c538ac3d012ff394c79225,2022-07-06_02h23.02.455,Colour_Asymmetry_Pilot,2022.1.3,Win32,59.42476824,62c50e9c1127f2cd403a315f,0,121,121,25,1,onethree,,,,,,,,,,,,,,,,,,,,,,,,,,,,,,,,,,,,,,,,,,,,,,,,,,,,,,,,,,,,,,,,,,,,,,,,,,,,,,,,,,,,,,,,,,,,,,,,,,,,,,,,,,,,,,,,,,,,,,,,,,,,,,,,,,,,,,,,,,,,,,,,,,,,,,,,,,,,,
,,,,,,609228e91a85cc5c8908fbd7,62c538ac3d012ff394c79225,2022-07-06_02h23.02.455,Colour_Asymmetry_Pilot,2022.1.3,Win32,59.42476824,62c50e9c1127f2cd403a315f,0,122,122,152,1,onetwo,,,,,,,,,,,,,,,,,,,,,,,,,,,,,,,,,,,,,,,,,,,,,,,,,,,,,,,,,,,,,,,,,,,,,,,,,,,,,,,,,,,,,,,,,,,,,,,,,,,,,,,,,,,,,,,,,,,,,,,,,,,,,,,,,,,,,,,,,,,,,,,,,,,,,,,,,,,,,
,,,,,,609228e91a85cc5c8908fbd7,62c538ac3d012ff394c79225,2022-07-06_02h23.02.455,Colour_Asymmetry_Pilot,2022.1.3,Win32,59.42476824,62c50e9c1127f2cd403a315f,0,123,123,22,1,fourtwo,,,,,,,,,,,,,,,,,,,,,,,,,,,,,,,,,,,,,,,,,,,,,,,,,,,,,,,,,,,,,,,,,,,,,,,,,,,,,,,,,,,,,,,,,,,,,,,,,,,,,,,,,,,,,,,,,,,,,,,,,,,,,,,,,,,,,,,,,,,,,,,,,,,,,,,,,,,,,
,,,,,,609228e91a85cc5c8908fbd7,62c538ac3d012ff394c79225,2022-07-06_02h23.02.455,Colour_Asymmetry_Pilot,2022.1.3,Win32,59.42476824,62c50e9c1127f2cd403a315f,0,124,124,1,1,onethree,,,,,,,,,,,,,,,,,,,,,,,,,,,,,,,,,,,,,,,,,,,,,,,,,,,,,,,,,,,,,,,,,,,,,,,,,,,,,,,,,,,,,,,,,,,,,,,,,,,,,,,,,,,,,,,,,,,,,,,,,,,,,,,,,,,,,,,,,,,,,,,,,,,,,,,,,,,,,
,,,,,,609228e91a85cc5c8908fbd7,62c538ac3d012ff394c79225,2022-07-06_02h23.02.455,Colour_Asymmetry_Pilot,2022.1.3,Win32,59.42476824,62c50e9c1127f2cd403a315f,0,125,125,17,1,onethree,,,,,,,,,,,,,,,,,,,,,,,,,,,,,,,,,,,,,,,,,,,,,,,,,,,,,,,,,,,,,,,,,,,,,,,,,,,,,,,,,,,,,,,,,,,,,,,,,,,,,,,,,,,,,,,,,,,,,,,,,,,,,,,,,,,,,,,,,,,,,,,,,,,,,,,,,,,,,
,,,,,,609228e91a85cc5c8908fbd7,62c538ac3d012ff394c79225,2022-07-06_02h23.02.455,Colour_Asymmetry_Pilot,2022.1.3,Win32,59.42476824,62c50e9c1127f2cd403a315f,0,126,126,160,1,onetwo,,,,,,,,,,,,,,,,,,,,,,,,,,,,,,,,,,,,,,,,,,,,,,,,,,,,,,,,,,,,,,,,,,,,,,,,,,,,,,,,,,,,,,,,,,,,,,,,,,,,,,,,,,,,,,,,,,,,,,,,,,,,,,,,,,,,,,,,,,,,,,,,,,,,,,,,,,,,,
,,,,,,609228e91a85cc5c8908fbd7,62c538ac3d012ff394c79225,2022-07-06_02h23.02.455,Colour_Asymmetry_Pilot,2022.1.3,Win32,59.42476824,62c50e9c1127f2cd403a315f,0,127,127,102,1,fourtwo,,,,,,,,,,,,,,,,,,,,,,,,,,,,,,,,,,,,,,,,,,,,,,,,,,,,,,,,,,,,,,,,,,,,,,,,,,,,,,,,,,,,,,,,,,,,,,,,,,,,,,,,,,,,,,,,,,,,,,,,,,,,,,,,,,,,,,,,,,,,,,,,,,,,,,,,,,,,,
,,,,,,609228e91a85cc5c8908fbd7,62c538ac3d012ff394c79225,2022-07-06_02h23.02.455,Colour_Asymmetry_Pilot,2022.1.3,Win32,59.42476824,62c50e9c1127f2cd403a315f,0,128,128,145,1,onethree,,,,,,,,,,,,,,,,,,,,,,,,,,,,,,,,,,,,,,,,,,,,,,,,,,,,,,,,,,,,,,,,,,,,,,,,,,,,,,,,,,,,,,,,,,,,,,,,,,,,,,,,,,,,,,,,,,,,,,,,,,,,,,,,,,,,,,,,,,,,,,,,,,,,,,,,,,,,,
,,,,,,609228e91a85cc5c8908fbd7,62c538ac3d012ff394c79225,2022-07-06_02h23.02.455,Colour_Asymmetry_Pilot,2022.1.3,Win32,59.42476824,62c50e9c1127f2cd403a315f,0,129,129,123,1,twofour,,,,,,,,,,,,,,,,,,,,,,,,,,,,,,,,,,,,,,,,,,,,,,,,,,,,,,,,,,,,,,,,,,,,,,,,,,,,,,,,,,,,,,,,,,,,,,,,,,,,,,,,,,,,,,,,,,,,,,,,,,,,,,,,,,,,,,,,,,,,,,,,,,,,,,,,,,,,,
,,,,,,609228e91a85cc5c8908fbd7,62c538ac3d012ff394c79225,2022-07-06_02h23.02.455,Colour_Asymmetry_Pilot,2022.1.3,Win32,59.42476824,62c50e9c1127f2cd403a315f,0,130,130,134,1,fourtwo,,,,,,,,,,,,,,,,,,,,,,,,,,,,,,,,,,,,,,,,,,,,,,,,,,,,,,,,,,,,,,,,,,,,,,,,,,,,,,,,,,,,,,,,,,,,,,,,,,,,,,,,,,,,,,,,,,,,,,,,,,,,,,,,,,,,,,,,,,,,,,,,,,,,,,,,,,,,,
,,,,,,609228e91a85cc5c8908fbd7,62c538ac3d012ff394c79225,2022-07-06_02h23.02.455,Colour_Asymmetry_Pilot,2022.1.3,Win32,59.42476824,62c50e9c1127f2cd403a315f,0,131,131,136,1,onetwo,,,,,,,,,,,,,,,,,,,,,,,,,,,,,,,,,,,,,,,,,,,,,,,,,,,,,,,,,,,,,,,,,,,,,,,,,,,,,,,,,,,,,,,,,,,,,,,,,,,,,,,,,,,,,,,,,,,,,,,,,,,,,,,,,,,,,,,,,,,,,,,,,,,,,,,,,,,,,
,,,,,,609228e91a85cc5c8908fbd7,62c538ac3d012ff394c79225,2022-07-06_02h23.02.455,Colour_Asymmetry_Pilot,2022.1.3,Win32,59.42476824,62c50e9c1127f2cd403a315f,0,132,132,111,1,fourthree,,,,,,,,,,,,,,,,,,,,,,,,,,,,,,,,,,,,,,,,,,,,,,,,,,,,,,,,,,,,,,,,,,,,,,,,,,,,,,,,,,,,,,,,,,,,,,,,,,,,,,,,,,,,,,,,,,,,,,,,,,,,,,,,,,,,,,,,,,,,,,,,,,,,,,,,,,,,,
,,,,,,609228e91a85cc5c8908fbd7,62c538ac3d012ff394c79225,2022-07-06_02h23.02.455,Colour_Asymmetry_Pilot,2022.1.3,Win32,59.42476824,62c50e9c1127f2cd403a315f,0,133,133,40,1,onetwo,,,,,,,,,,,,,,,,,,,,,,,,,,,,,,,,,,,,,,,,,,,,,,,,,,,,,,,,,,,,,,,,,,,,,,,,,,,,,,,,,,,,,,,,,,,,,,,,,,,,,,,,,,,,,,,,,,,,,,,,,,,,,,,,,,,,,,,,,,,,,,,,,,,,,,,,,,,,,
,,,,,,609228e91a85cc5c8908fbd7,62c538ac3d012ff394c79225,2022-07-06_02h23.02.455,Colour_Asymmetry_Pilot,2022.1.3,Win32,59.42476824,62c50e9c1127f2cd403a315f,0,134,134,79,1,fourthree,,,,,,,,,,,,,,,,,,,,,,,,,,,,,,,,,,,,,,,,,,,,,,,,,,,,,,,,,,,,,,,,,,,,,,,,,,,,,,,,,,,,,,,,,,,,,,,,,,,,,,,,,,,,,,,,,,,,,,,,,,,,,,,,,,,,,,,,,,,,,,,,,,,,,,,,,,,,,
,,,,,,609228e91a85cc5c8908fbd7,62c538ac3d012ff394c79225,2022-07-06_02h23.02.455,Colour_Asymmetry_Pilot,2022.1.3,Win32,59.42476824,62c50e9c1127f2cd403a315f,0,135,135,6,1,fourtwo,,,,,,,,,,,,,,,,,,,,,,,,,,,,,,,,,,,,,,,,,,,,,,,,,,,,,,,,,,,,,,,,,,,,,,,,,,,,,,,,,,,,,,,,,,,,,,,,,,,,,,,,,,,,,,,,,,,,,,,,,,,,,,,,,,,,,,,,,,,,,,,,,,,,,,,,,,,,,
,,,,,,609228e91a85cc5c8908fbd7,62c538ac3d012ff394c79225,2022-07-06_02h23.02.455,Colour_Asymmetry_Pilot,2022.1.3,Win32,59.42476824,62c50e9c1127f2cd403a315f,0,136,136,19,1,twofour,,,,,,,,,,,,,,,,,,,,,,,,,,,,,,,,,,,,,,,,,,,,,,,,,,,,,,,,,,,,,,,,,,,,,,,,,,,,,,,,,,,,,,,,,,,,,,,,,,,,,,,,,,,,,,,,,,,,,,,,,,,,,,,,,,,,,,,,,,,,,,,,,,,,,,,,,,,,,
,,,,,,609228e91a85cc5c8908fbd7,62c538ac3d012ff394c79225,2022-07-06_02h23.02.455,Colour_Asymmetry_Pilot,2022.1.3,Win32,59.42476824,62c50e9c1127f2cd403a315f,0,137,137,2,1,twoone,,,,,,,,,,,,,,,,,,,,,,,,,,,,,,,,,,,,,,,,,,,,,,,,,,,,,,,,,,,,,,,,,,,,,,,,,,,,,,,,,,,,,,,,,,,,,,,,,,,,,,,,,,,,,,,,,,,,,,,,,,,,,,,,,,,,,,,,,,,,,,,,,,,,,,,,,,,,,
,,,,,,609228e91a85cc5c8908fbd7,62c538ac3d012ff394c79225,2022-07-06_02h23.02.455,Colour_Asymmetry_Pilot,2022.1.3,Win32,59.42476824,62c50e9c1127f2cd403a315f,0,138,138,84,1,threeone,,,,,,,,,,,,,,,,,,,,,,,,,,,,,,,,,,,,,,,,,,,,,,,,,,,,,,,,,,,,,,,,,,,,,,,,,,,,,,,,,,,,,,,,,,,,,,,,,,,,,,,,,,,,,,,,,,,,,,,,,,,,,,,,,,,,,,,,,,,,,,,,,,,,,,,,,,,,,
,,,,,,609228e91a85cc5c8908fbd7,62c538ac3d012ff394c79225,2022-07-06_02h23.02.455,Colour_Asymmetry_Pilot,2022.1.3,Win32,59.42476824,62c50e9c1127f2cd403a315f,0,139,139,125,1,threefour,,,,,,,,,,,,,,,,,,,,,,,,,,,,,,,,,,,,,,,,,,,,,,,,,,,,,,,,,,,,,,,,,,,,,,,,,,,,,,,,,,,,,,,,,,,,,,,,,,,,,,,,,,,,,,,,,,,,,,,,,,,,,,,,,,,,,,,,,,,,,,,,,,,,,,,,,,,,,
,,,,,,609228e91a85cc5c8908fbd7,62c538ac3d012ff394c79225,2022-07-06_02h23.02.455,Colour_Asymmetry_Pilot,2022.1.3,Win32,59.42476824,62c50e9c1127f2cd403a315f,0,140,140,138,1,twoone,,,,,,,,,,,,,,,,,,,,,,,,,,,,,,,,,,,,,,,,,,,,,,,,,,,,,,,,,,,,,,,,,,,,,,,,,,,,,,,,,,,,,,,,,,,,,,,,,,,,,,,,,,,,,,,,,,,,,,,,,,,,,,,,,,,,,,,,,,,,,,,,,,,,,,,,,,,,,
,,,,,,609228e91a85cc5c8908fbd7,62c538ac3d012ff394c79225,2022-07-06_02h23.02.455,Colour_Asymmetry_Pilot,2022.1.3,Win32,59.42476824,62c50e9c1127f2cd403a315f,0,141,141,106,1,twoone,,,,,,,,,,,,,,,,,,,,,,,,,,,,,,,,,,,,,,,,,,,,,,,,,,,,,,,,,,,,,,,,,,,,,,,,,,,,,,,,,,,,,,,,,,,,,,,,,,,,,,,,,,,,,,,,,,,,,,,,,,,,,,,,,,,,,,,,,,,,,,,,,,,,,,,,,,,,,
,,,,,,609228e91a85cc5c8908fbd7,62c538ac3d012ff394c79225,2022-07-06_02h23.02.455,Colour_Asymmetry_Pilot,2022.1.3,Win32,59.42476824,62c50e9c1127f2cd403a315f,0,142,142,127,1,fourthree,,,,,,,,,,,,,,,,,,,,,,,,,,,,,,,,,,,,,,,,,,,,,,,,,,,,,,,,,,,,,,,,,,,,,,,,,,,,,,,,,,,,,,,,,,,,,,,,,,,,,,,,,,,,,,,,,,,,,,,,,,,,,,,,,,,,,,,,,,,,,,,,,,,,,,,,,,,,,
,,,,,,609228e91a85cc5c8908fbd7,62c538ac3d012ff394c79225,2022-07-06_02h23.02.455,Colour_Asymmetry_Pilot,2022.1.3,Win32,59.42476824,62c50e9c1127f2cd403a315f,0,143,143,27,1,twofour,,,,,,,,,,,,,,,,,,,,,,,,,,,,,,,,,,,,,,,,,,,,,,,,,,,,,,,,,,,,,,,,,,,,,,,,,,,,,,,,,,,,,,,,,,,,,,,,,,,,,,,,,,,,,,,,,,,,,,,,,,,,,,,,,,,,,,,,,,,,,,,,,,,,,,,,,,,,,
,,,,,,609228e91a85cc5c8908fbd7,62c538ac3d012ff394c79225,2022-07-06_02h23.02.455,Colour_Asymmetry_Pilot,2022.1.3,Win32,59.42476824,62c50e9c1127f2cd403a315f,0,144,144,11,1,twofour,,,,,,,,,,,,,,,,,,,,,,,,,,,,,,,,,,,,,,,,,,,,,,,,,,,,,,,,,,,,,,,,,,,,,,,,,,,,,,,,,,,,,,,,,,,,,,,,,,,,,,,,,,,,,,,,,,,,,,,,,,,,,,,,,,,,,,,,,,,,,,,,,,,,,,,,,,,,,
,,,,,,609228e91a85cc5c8908fbd7,62c538ac3d012ff394c79225,2022-07-06_02h23.02.455,Colour_Asymmetry_Pilot,2022.1.3,Win32,59.42476824,62c50e9c1127f2cd403a315f,0,145,145,73,1,onethree,,,,,,,,,,,,,,,,,,,,,,,,,,,,,,,,,,,,,,,,,,,,,,,,,,,,,,,,,,,,,,,,,,,,,,,,,,,,,,,,,,,,,,,,,,,,,,,,,,,,,,,,,,,,,,,,,,,,,,,,,,,,,,,,,,,,,,,,,,,,,,,,,,,,,,,,,,,,,
,,,,,,609228e91a85cc5c8908fbd7,62c538ac3d012ff394c79225,2022-07-06_02h23.02.455,Colour_Asymmetry_Pilot,2022.1.3,Win32,59.42476824,62c50e9c1127f2cd403a315f,0,146,146,47,1,fourthree,,,,,,,,,,,,,,,,,,,,,,,,,,,,,,,,,,,,,,,,,,,,,,,,,,,,,,,,,,,,,,,,,,,,,,,,,,,,,,,,,,,,,,,,,,,,,,,,,,,,,,,,,,,,,,,,,,,,,,,,,,,,,,,,,,,,,,,,,,,,,,,,,,,,,,,,,,,,,
,,,,,,609228e91a85cc5c8908fbd7,62c538ac3d012ff394c79225,2022-07-06_02h23.02.455,Colour_Asymmetry_Pilot,2022.1.3,Win32,59.42476824,62c50e9c1127f2cd403a315f,0,147,147,9,1,onethree,,,,,,,,,,,,,,,,,,,,,,,,,,,,,,,,,,,,,,,,,,,,,,,,,,,,,,,,,,,,,,,,,,,,,,,,,,,,,,,,,,,,,,,,,,,,,,,,,,,,,,,,,,,,,,,,,,,,,,,,,,,,,,,,,,,,,,,,,,,,,,,,,,,,,,,,,,,,,
,,,,,,609228e91a85cc5c8908fbd7,62c538ac3d012ff394c79225,2022-07-06_02h23.02.455,Colour_Asymmetry_Pilot,2022.1.3,Win32,59.42476824,62c50e9c1127f2cd403a315f,0,148,148,72,1,onetwo,,,,,,,,,,,,,,,,,,,,,,,,,,,,,,,,,,,,,,,,,,,,,,,,,,,,,,,,,,,,,,,,,,,,,,,,,,,,,,,,,,,,,,,,,,,,,,,,,,,,,,,,,,,,,,,,,,,,,,,,,,,,,,,,,,,,,,,,,,,,,,,,,,,,,,,,,,,,,
,,,,,,609228e91a85cc5c8908fbd7,62c538ac3d012ff394c79225,2022-07-06_02h23.02.455,Colour_Asymmetry_Pilot,2022.1.3,Win32,59.42476824,62c50e9c1127f2cd403a315f,0,149,149,74,1,twoone,,,,,,,,,,,,,,,,,,,,,,,,,,,,,,,,,,,,,,,,,,,,,,,,,,,,,,,,,,,,,,,,,,,,,,,,,,,,,,,,,,,,,,,,,,,,,,,,,,,,,,,,,,,,,,,,,,,,,,,,,,,,,,,,,,,,,,,,,,,,,,,,,,,,,,,,,,,,,
,,,,,,609228e91a85cc5c8908fbd7,62c538ac3d012ff394c79225,2022-07-06_02h23.02.455,Colour_Asymmetry_Pilot,2022.1.3,Win32,59.42476824,62c50e9c1127f2cd403a315f,0,150,150,120,1,onetwo,,,,,,,,,,,,,,,,,,,,,,,,,,,,,,,,,,,,,,,,,,,,,,,,,,,,,,,,,,,,,,,,,,,,,,,,,,,,,,,,,,,,,,,,,,,,,,,,,,,,,,,,,,,,,,,,,,,,,,,,,,,,,,,,,,,,,,,,,,,,,,,,,,,,,,,,,,,,,
,,,,,,609228e91a85cc5c8908fbd7,62c538ac3d012ff394c79225,2022-07-06_02h23.02.455,Colour_Asymmetry_Pilot,2022.1.3,Win32,59.42476824,62c50e9c1127f2cd403a315f,0,151,151,49,1,onethree,,,,,,,,,,,,,,,,,,,,,,,,,,,,,,,,,,,,,,,,,,,,,,,,,,,,,,,,,,,,,,,,,,,,,,,,,,,,,,,,,,,,,,,,,,,,,,,,,,,,,,,,,,,,,,,,,,,,,,,,,,,,,,,,,,,,,,,,,,,,,,,,,,,,,,,,,,,,,
,,,,,,609228e91a85cc5c8908fbd7,62c538ac3d012ff394c79225,2022-07-06_02h23.02.455,Colour_Asymmetry_Pilot,2022.1.3,Win32,59.42476824,62c50e9c1127f2cd403a315f,0,152,152,122,1,twoone,,,,,,,,,,,,,,,,,,,,,,,,,,,,,,,,,,,,,,,,,,,,,,,,,,,,,,,,,,,,,,,,,,,,,,,,,,,,,,,,,,,,,,,,,,,,,,,,,,,,,,,,,,,,,,,,,,,,,,,,,,,,,,,,,,,,,,,,,,,,,,,,,,,,,,,,,,,,,
,,,,,,609228e91a85cc5c8908fbd7,62c538ac3d012ff394c79225,2022-07-06_02h23.02.455,Colour_Asymmetry_Pilot,2022.1.3,Win32,59.42476824,62c50e9c1127f2cd403a315f,0,153,153,89,1,onethree,,,,,,,,,,,,,,,,,,,,,,,,,,,,,,,,,,,,,,,,,,,,,,,,,,,,,,,,,,,,,,,,,,,,,,,,,,,,,,,,,,,,,,,,,,,,,,,,,,,,,,,,,,,,,,,,,,,,,,,,,,,,,,,,,,,,,,,,,,,,,,,,,,,,,,,,,,,,,
,,,,,,609228e91a85cc5c8908fbd7,62c538ac3d012ff394c79225,2022-07-06_02h23.02.455,Colour_Asymmetry_Pilot,2022.1.3,Win32,59.42476824,62c50e9c1127f2cd403a315f,0,154,154,105,1,onethree,,,,,,,,,,,,,,,,,,,,,,,,,,,,,,,,,,,,,,,,,,,,,,,,,,,,,,,,,,,,,,,,,,,,,,,,,,,,,,,,,,,,,,,,,,,,,,,,,,,,,,,,,,,,,,,,,,,,,,,,,,,,,,,,,,,,,,,,,,,,,,,,,,,,,,,,,,,,,
,,,,,,609228e91a85cc5c8908fbd7,62c538ac3d012ff394c79225,2022-07-06_02h23.02.455,Colour_Asymmetry_Pilot,2022.1.3,Win32,59.42476824,62c50e9c1127f2cd403a315f,0,155,155,153,1,onethree,,,,,,,,,,,,,,,,,,,,,,,,,,,,,,,,,,,,,,,,,,,,,,,,,,,,,,,,,,,,,,,,,,,,,,,,,,,,,,,,,,,,,,,,,,,,,,,,,,,,,,,,,,,,,,,,,,,,,,,,,,,,,,,,,,,,,,,,,,,,,,,,,,,,,,,,,,,,,
,,,,,,609228e91a85cc5c8908fbd7,62c538ac3d012ff394c79225,2022-07-06_02h23.02.455,Colour_Asymmetry_Pilot,2022.1.3,Win32,59.42476824,62c50e9c1127f2cd403a315f,0,156,156,39,1,fourthree,,,,,,,,,,,,,,,,,,,,,,,,,,,,,,,,,,,,,,,,,,,,,,,,,,,,,,,,,,,,,,,,,,,,,,,,,,,,,,,,,,,,,,,,,,,,,,,,,,,,,,,,,,,,,,,,,,,,,,,,,,,,,,,,,,,,,,,,,,,,,,,,,,,,,,,,,,,,,
,,,,,,609228e91a85cc5c8908fbd7,62c538ac3d012ff394c79225,2022-07-06_02h23.02.455,Colour_Asymmetry_Pilot,2022.1.3,Win32,59.42476824,62c50e9c1127f2cd403a315f,0,157,157,108,1,threeone,,,,,,,,,,,,,,,,,,,,,,,,,,,,,,,,,,,,,,,,,,,,,,,,,,,,,,,,,,,,,,,,,,,,,,,,,,,,,,,,,,,,,,,,,,,,,,,,,,,,,,,,,,,,,,,,,,,,,,,,,,,,,,,,,,,,,,,,,,,,,,,,,,,,,,,,,,,,,
,,,,,,609228e91a85cc5c8908fbd7,62c538ac3d012ff394c79225,2022-07-06_02h23.02.455,Colour_Asymmetry_Pilot,2022.1.3,Win32,59.42476824,62c50e9c1127f2cd403a315f,0,158,158,159,1,fourthree,,,,,,,,,,,,,,,,,,,,,,,,,,,,,,,,,,,,,,,,,,,,,,,,,,,,,,,,,,,,,,,,,,,,,,,,,,,,,,,,,,,,,,,,,,,,,,,,,,,,,,,,,,,,,,,,,,,,,,,,,,,,,,,,,,,,,,,,,,,,,,,,,,,,,,,,,,,,,
,,,,,,609228e91a85cc5c8908fbd7,62c538ac3d012ff394c79225,2022-07-06_02h23.02.455,Colour_Asymmetry_Pilot,2022.1.3,Win32,59.42476824,62c50e9c1127f2cd403a315f,0,159,159,29,1,threefour,,,,,,,,,,,,,,,,,,,,,,,,,,,,,,,,,,,,,,,,,,,,,,,,,,,,,,,,,,,,,,,,,,,,,,,,,,,,,,,,,,,,,,,,,,,,,,,,,,,,,,,,,,,,,,,,,,,,,,,,,,,,,,,,,,,,,,,,,,,,,,,,,,,,,,,,,,,,,
,,,,,,609228e91a85cc5c8908fbd7,62c538ac3d012ff394c79225,2022-07-06_02h23.02.455,Colour_Asymmetry_Pilot,2022.1.3,Win32,59.42476824,62c50e9c1127f2cd403a315f,0,160,160,118,1,fourtwo,,,,,,,,,,,,,,,,,,,,,,,,,,,,,,,,,,,,,,,,,,,,,,,,,,,,,,,,,,,,,,,,,,,,,,,,,,,,,,,,,,,,,,,,,,,,,,,,,,,,,,,,,,,,,,,,,,,,,,,,,,,,,,,,,,,,,,,,,,,,,,,,,,,,,,,,,,,,,
,,,,,,609228e91a85cc5c8908fbd7,62c538ac3d012ff394c79225,2022-07-06_02h23.02.455,Colour_Asymmetry_Pilot,2022.1.3,Win32,59.42476824,62c50e9c1127f2cd403a315f,0,161,161,151,1,fourthree,,,,,,,,,,,,,,,,,,,,,,,,,,,,,,,,,,,,,,,,,,,,,,,,,,,,,,,,,,,,,,,,,,,,,,,,,,,,,,,,,,,,,,,,,,,,,,,,,,,,,,,,,,,,,,,,,,,,,,,,,,,,,,,,,,,,,,,,,,,,,,,,,,,,,,,,,,,,,
,,,,,,609228e91a85cc5c8908fbd7,62c538ac3d012ff394c79225,2022-07-06_02h23.02.455,Colour_Asymmetry_Pilot,2022.1.3,Win32,59.42476824,62c50e9c1127f2cd403a315f,,,,,,,space,3.3275,space,60.5093,space,34.0594,space,21.2109,space,19.5052,space,5.1206,"[-0.30200000000000005,0.14500000000000002,0.2784]",onetwo,"[0.6547999999999998,-0.043199999999999905,-0.011800000000000033]",-4,3.4171,-46.39996338,112,1,0,0,response7disk_5,1.600036621,6.399993896,1,0,0,rectangle_8,1.600036621,6.399993896,1,0,0,4,1.600036621,6.399993896,1,0,0,0,0,0,0,1,,,,,,,,,,,,,,,,,,,,,,,,,,,,,,,,,,,,,,,,,,,,,,,,,,,,,,,,,,,,,,,,,,,,,,,,,,,,,,,,,,,,,,,,,,,,,,,,,,,,,,,,,,,,,,,,
,,,,,,609228e91a85cc5c8908fbd7,62c538ac3d012ff394c79225,2022-07-06_02h23.02.455,Colour_Asymmetry_Pilot,2022.1.3,Win32,59.42476824,62c50e9c1127f2cd403a315f,,,,,,,,,,,,,,,,,,,"[0.22340000000000004,-0.9296,-0.7884]",fourthree,"[-0.2942,-0.24719999999999998,-0.357]",-4,4.8524,-51.20001221,105.6000061,1,0,0,response7disk_5,-8,0,1,0,0,rectangle_8,-8,0,1,0,0,4,-8,0,1,0,0,1,0,1,0,1,,,,,,,,,,,,,,,,,,,,,,,,,,,,,,,,,,,,,,,,,,,,,,,,,,,,,,,,,,,,,,,,,,,,,,,,,,,,,,,,,,,,,,,,,,,,,,,,,,,,,,,,,,,,,,,,
,,,,,,609228e91a85cc5c8908fbd7,62c538ac3d012ff394c79225,2022-07-06_02h23.02.455,Colour_Asymmetry_Pilot,2022.1.3,Win32,59.42476824,62c50e9c1127f2cd403a315f,,,,,,,,,,,,,,,,,,,"[0.12939999999999996,-0.2864,0.3253999999999999]",twofour,"[-0.6706000000000001,-0.6157999999999999,-0.6786]",-4,3.5014,-45.59997559,92,1,0,0,response7disk_5,0.799987793,-4,1,0,0,rectangle_8,0.799987793,-4,1,0,0,4,0.799987793,-4,1,0,0,2,0,2,0,1,,,,,,,,,,,,,,,,,,,,,,,,,,,,,,,,,,,,,,,,,,,,,,,,,,,,,,,,,,,,,,,,,,,,,,,,,,,,,,,,,,,,,,,,,,,,,,,,,,,,,,,,,,,,,,,,
,,,,,,609228e91a85cc5c8908fbd7,62c538ac3d012ff394c79225,2022-07-06_02h23.02.455,Colour_Asymmetry_Pilot,2022.1.3,Win32,59.42476824,62c50e9c1127f2cd403a315f,,,,,,,,,,,,,,,,,,,"[-0.8118,-0.8198,-0.5452]",fourtwo,"[-0.26280000000000003,-0.4746,-0.2158]",-3,4.6191,-97.59997559,46.3999939,1,0,0,response7disk_5,4,-0.800018311,1,0,0,rectangle_8,48,108.7999878,1,0,0,4,-4,0,1,0,0,3,0,3,0,1,response1disk_7,7,rectangle_4,,,,,,,,,,,,,,,,,,,,,,,,,,,,,,,,,,,,,,,,,,,,,,,,,,,,,,,,,,,,,,,,,,,,,,,,,,,,,,,,,,,,,,,,,,,,,,,,,,,,,,,,,,,,,
,,,,,,609228e91a85cc5c8908fbd7,62c538ac3d012ff394c79225,2022-07-06_02h23.02.455,Colour_Asymmetry_Pilot,2022.1.3,Win32,59.42476824,62c50e9c1127f2cd403a315f,,,,,,,,,,,,,,,,,,,"[0.4196,0.4665999999999999,0.3568]",onetwo,"[-0.17659999999999998,0.3253999999999999,0.19999999999999996]",-4,1.8674,-40.79998779,98.3999939,1,0,0,response7disk_5,-1.599975586,1.600006104,1,0,0,rectangle_8,-1.599975586,1.600006104,1,0,0,4,-1.599975586,1.600006104,1,0,0,4,0,4,0,1,,,,,,,,,,,,,,,,,,,,,,,,,,,,,,,,,,,,,,,,,,,,,,,,,,,,,,,,,,,,,,,,,,,,,,,,,,,,,,,,,,,,,,,,,,,,,,,,,,,,,,,,,,,,,,,,
,,,,,,609228e91a85cc5c8908fbd7,62c538ac3d012ff394c79225,2022-07-06_02h23.02.455,Colour_Asymmetry_Pilot,2022.1.3,Win32,59.42476824,62c50e9c1127f2cd403a315f,,,,,,,,,,,,,,,,,,,"[0.8115999999999999,-0.0040000000000000036,-0.09819999999999995]",threefour,"[0.5449999999999999,-0.31000000000000005,-0.0354000000000001]",-1,12.3543,-57.59997559,-103.2000122,1,0,0,response5disk_5,-2.399963379,-1.600006104,1,0,0,rectangle_8,-2.399963379,-1.600006104,1,0,0,4,-2.399963379,-1.600006104,1,0,0,5,0,5,0,1,,,,,,,,,,,,,,,,,,,,,,,,,,,,,,,,,,,,,,,,,,,,,,,,,,,,,,,,,,,,,,,,,,,,,,,,,,,,,,,,,,,,,,,,,,,,,,,,,,,,,,,,,,,,,,,,
,,,,,,609228e91a85cc5c8908fbd7,62c538ac3d012ff394c79225,2022-07-06_02h23.02.455,Colour_Asymmetry_Pilot,2022.1.3,Win32,59.42476824,62c50e9c1127f2cd403a315f,,,,,,,,,,,,,,,,,,,"[-0.07459999999999989,0.12139999999999995,-0.9922]",threeone,"[-0.8198,-0.5138,-0.7492000000000001]",-1,5.0859,-54.39996338,-99.20001221,1,0,0,response5disk_5,5.600036621,0,1,0,0,rectangle_8,5.600036621,0,1,0,0,4,5.600036621,0,1,0,0,6,0,6,0,1,,,,,,,,,,,,,,,,,,,,,,,,,,,,,,,,,,,,,,,,,,,,,,,,,,,,,,,,,,,,,,,,,,,,,,,,,,,,,,,,,,,,,,,,,,,,,,,,,,,,,,,,,,,,,,,,
,,,,,,609228e91a85cc5c8908fbd7,62c538ac3d012ff394c79225,2022-07-06_02h23.02.455,Colour_Asymmetry_Pilot,2022.1.3,Win32,59.42476824,62c50e9c1127f2cd403a315f,,,,,,,,,,,,,,,,,,,,fourtwo,,-4,2.1514,,,,,,,,,,,,,,,,,,,,,,,,,,,,,,,,space,211.6287,"[0.9686000000000001,0.5763999999999998,0.11359999999999992]","[-0.4902000000000001,0.2704,-0.45899999999999996]",-40.79998779,99.19998169,1,0,0,response7disk,4.799987793,-1.600006104,1,0,0,rectangle,4.799987793,-1.600006104,1,0,0,,1,0.0051,0,4.799987793,-1.600006104,1,0,0,0,0,0,89,1,8,second,,,,,,,,,,,,,,,,,,,,,,,,,,,,,,,,,,,,,,,,,,,,,,,,,,,,,,,,,,,,,,,,,,,,,,,,
,,,,,,609228e91a85cc5c8908fbd7,62c538ac3d012ff394c79225,2022-07-06_02h23.02.455,Colour_Asymmetry_Pilot,2022.1.3,Win32,59.42476824,62c50e9c1127f2cd403a315f,,,,,,,,,,,,,,,,,,,,fourthree,,1,3.8346,,,,,,,,,,,,,,,,,,,,,,,,,,,,,,,,,,"[0.2784,-0.31000000000000005,-0.5452]","[0.9763999999999999,0.8588,-0.05900000000000005]",36.79998779,-104.7999878,1,0,0,response3disk,-5.599975586,1.600006104,1,0,0,rectangle,-5.599975586,1.600006104,1,0,0,,3,0.0037,0,-5.599975586,1.600006104,1,0,0,0,1,1,108,1,27,second,,,,,,,,,,,,,,,,,,,,,,,,,,,,,,,,,,,,,,,,,,,,,,,,,,,,,,,,,,,,,,,,,,,,,,,,
,,,,,,609228e91a85cc5c8908fbd7,62c538ac3d012ff394c79225,2022-07-06_02h23.02.455,Colour_Asymmetry_Pilot,2022.1.3,Win32,59.42476824,62c50e9c1127f2cd403a315f,,,,,,,,,,,,,,,,,,,,threefour,,2,1.5504,,,,,,,,,,,,,,,,,,,,,,,,,,,,,,,,,,"[0.19199999999999995,0.18419999999999992,0.5136000000000001]","[-0.34920000000000007,-0.702,-0.5216]",106.4000244,-61.6000061,1,0,0,response3disk,4.799987793,0.799987793,1,0,0,rectangle,4.799987793,0.799987793,1,0,0,,1,0.0029,0,4.799987793,0.799987793,1,0,0,0,2,2,116,1,35,second,,,,,,,,,,,,,,,,,,,,,,,,,,,,,,,,,,,,,,,,,,,,,,,,,,,,,,,,,,,,,,,,,,,,,,,,
,,,,,,609228e91a85cc5c8908fbd7,62c538ac3d012ff394c79225,2022-07-06_02h23.02.455,Colour_Asymmetry_Pilot,2022.1.3,Win32,59.42476824,62c50e9c1127f2cd403a315f,,,,,,,,,,,,,,,,,,,,twofour,,-4,2.737,,,,,,,,,,,,,,,,,,,,,,,,,,,,,,,,,,"[-0.6942,-0.7648,-0.12959999999999994]","[0.796,0.2156,-0.27859999999999996]",-43.20001221,92.79998779,1,0,0,response7disk,-4,-3.200012207,1,0,0,rectangle,-4,-3.200012207,1,0,0,,2,0.0028,0,-4,-3.200012207,1,0,0,0,3,3,38,1,38,first,,,,,,,,,,,,,,,,,,,,,,,,,,,,,,,,,,,,,,,,,,,,,,,,,,,,,,,,,,,,,,,,,,,,,,,,
,,,,,,609228e91a85cc5c8908fbd7,62c538ac3d012ff394c79225,2022-07-06_02h23.02.455,Colour_Asymmetry_Pilot,2022.1.3,Win32,59.42476824,62c50e9c1127f2cd403a315f,,,,,,,,,,,,,,,,,,,,threeone,,3,1.4502,,,,,,,,,,,,,,,,,,,,,,,,,,,,,,,,,,"[-0.8198,-0.5138,-0.7492000000000001]","[-0.45899999999999996,-0.3256,-0.9374]",91.20001221,44.79998779,1,0,0,response1disk,9.600036621,-5.600006104,1,0,0,rectangle,9.600036621,-5.600006104,1,0,0,,2,0.0004,0,9.600036621,-5.600006104,1,0,0,0,4,4,148,1,67,second,,,,,,,,,,,,,,,,,,,,,,,,,,,,,,,,,,,,,,,,,,,,,,,,,,,,,,,,,,,,,,,,,,,,,,,,
,,,,,,609228e91a85cc5c8908fbd7,62c538ac3d012ff394c79225,2022-07-06_02h23.02.455,Colour_Asymmetry_Pilot,2022.1.3,Win32,59.42476824,62c50e9c1127f2cd403a315f,,,,,,,,,,,,,,,,,,,,threeone,,-1,6.9034,,,,,,,,,,,,,,,,,,,,,,,,,,,,,,,,,,"[0.30180000000000007,-0.7884,-0.9844]","[0.9763999999999999,0.30979999999999985,-0.6786]",-48.79998779,-108.7999878,1,0,0,response5disk,5.600036621,4,1,0,0,rectangle,5.600036621,4,1,0,0,,3,0.0032,0,5.600036621,4,1,0,0,0,5,5,10,1,10,first,,,,,,,,,,,,,,,,,,,,,,,,,,,,,,,,,,,,,,,,,,,,,,,,,,,,,,,,,,,,,,,,,,,,,,,,
,,,,,,609228e91a85cc5c8908fbd7,62c538ac3d012ff394c79225,2022-07-06_02h23.02.455,Colour_Asymmetry_Pilot,2022.1.3,Win32,59.42476824,62c50e9c1127f2cd403a315f,,,,,,,,,,,,,,,,,,,,twofour,,-4,2.2672,,,,,,,,,,,,,,,,,,,,,,,,,,,,,,,,,,"[-0.01980000000000004,-0.5138,-0.38039999999999996]","[-0.6942,-0.7648,-0.12959999999999994]",-41.59997559,78.3999939,1,0,0,response7disk,2.400024414,-8.800018311,1,0,0,rectangle,2.400024414,-8.800018311,1,0,0,,1,0.0076,0,2.400024414,-8.800018311,1,0,0,0,6,6,58,1,58,first,,,,,,,,,,,,,,,,,,,,,,,,,,,,,,,,,,,,,,,,,,,,,,,,,,,,,,,,,,,,,,,,,,,,,,,,
,,,,,,609228e91a85cc5c8908fbd7,62c538ac3d012ff394c79225,2022-07-06_02h23.02.455,Colour_Asymmetry_Pilot,2022.1.3,Win32,59.42476824,62c50e9c1127f2cd403a315f,,,,,,,,,,,,,,,,,,,,threefour,,4,2.9179,,,,,,,,,,,,,,,,,,,,,,,,,,,,,,,,,,"[-0.4902000000000001,0.2704,-0.45899999999999996]","[-0.4902000000000001,0.2704,-0.45899999999999996]",36,99.19998169,1,0,0,response1disk,-5.599975586,0,1,0,0,rectangle,-5.599975586,0,1,0,0,,2,0.0034,0,-5.599975586,0,1,0,0,0,7,7,41,1,41,first,,,,,,,,,,,,,,,,,,,,,,,,,,,,,,,,,,,,,,,,,,,,,,,,,,,,,,,,,,,,,,,,,,,,,,,,
,,,,,,609228e91a85cc5c8908fbd7,62c538ac3d012ff394c79225,2022-07-06_02h23.02.455,Colour_Asymmetry_Pilot,2022.1.3,Win32,59.42476824,62c50e9c1127f2cd403a315f,,,,,,,,,,,,,,,,,,,,twofour,,1,3.1013,,,,,,,,,,,,,,,,,,,,,,,,,,,,,,,,,,"[0.8274000000000001,-0.5844,-0.9452]","[-0.06680000000000008,-0.45100000000000007,-0.906]",52.79998779,-74.3999939,1,0,0,response3disk,-7.200012207,11.19998169,1,0,0,rectangle,-7.200012207,11.19998169,1,0,0,,2,0.0008,0,-7.200012207,11.19998169,1,0,0,0,8,8,77,1,77,first,,,,,,,,,,,,,,,,,,,,,,,,,,,,,,,,,,,,,,,,,,,,,,,,,,,,,,,,,,,,,,,,,,,,,,,,
,,,,,,609228e91a85cc5c8908fbd7,62c538ac3d012ff394c79225,2022-07-06_02h23.02.455,Colour_Asymmetry_Pilot,2022.1.3,Win32,59.42476824,62c50e9c1127f2cd403a315f,,,,,,,,,,,,,,,,,,,,onethree,,-4,0.9998,,,,,,,,,,,,,,,,,,,,,,,,,,,,,,,,,,"[-0.10599999999999998,-0.15300000000000002,0.15280000000000005]","[1,0.12939999999999996,-1]",-45.59997559,84,1,0,0,response7disk,-2.399963379,-5.600006104,1,0,0,rectangle,-2.399963379,-5.600006104,1,0,0,,3,0.004,0,-2.399963379,-5.600006104,1,0,0,0,9,9,69,1,69,first,,,,,,,,,,,,,,,,,,,,,,,,,,,,,,,,,,,,,,,,,,,,,,,,,,,,,,,,,,,,,,,,,,,,,,,,
,,,,,,609228e91a85cc5c8908fbd7,62c538ac3d012ff394c79225,2022-07-06_02h23.02.455,Colour_Asymmetry_Pilot,2022.1.3,Win32,59.42476824,62c50e9c1127f2cd403a315f,,,,,,,,,,,,,,,,,,,,fourthree,,-4,1.1677,,,,,,,,,,,,,,,,,,,,,,,,,,,,,,,,,,"[-0.4746,-0.0354000000000001,0.5449999999999999]","[0.04299999999999993,0.16060000000000008,-0.6628000000000001]",-45.59997559,77.6000061,1,0,0,response7disk,1.600036621,-9.600006104,1,0,0,rectangle,1.600036621,-9.600006104,1,0,0,,1,0.0031,0,1.600036621,-9.600006104,1,0,0,0,10,10,154,1,73,second,,,,,,,,,,,,,,,,,,,,,,,,,,,,,,,,,,,,,,,,,,,,,,,,,,,,,,,,,,,,,,,,,,,,,,,,
,,,,,,609228e91a85cc5c8908fbd7,62c538ac3d012ff394c79225,2022-07-06_02h23.02.455,Colour_Asymmetry_Pilot,2022.1.3,Win32,59.42476824,62c50e9c1127f2cd403a315f,,,,,,,,,,,,,,,,,,,,twoone,,-4,0.8335,,,,,,,,,,,,,,,,,,,,,,,,,,,,,,,,,,"[-0.26280000000000003,-0.2158,-0.3256]","[-0.9688,-0.4902000000000001,-0.12159999999999993]",-42.39996338,99.19998169,1,0,0,response7disk,-4,0.799987793,1,0,0,rectangle,-4,0.799987793,1,0,0,,1,0.0004,0,-4,0.799987793,1,0,0,0,11,11,22,1,22,first,,,,,,,,,,,,,,,,,,,,,,,,,,,,,,,,,,,,,,,,,,,,,,,,,,,,,,,,,,,,,,,,,,,,,,,,
,,,,,,609228e91a85cc5c8908fbd7,62c538ac3d012ff394c79225,2022-07-06_02h23.02.455,Colour_Asymmetry_Pilot,2022.1.3,Win32,59.42476824,62c50e9c1127f2cd403a315f,,,,,,,,,,,,,,,,,,,,onethree,,4,1.3833,,,,,,,,,,,,,,,,,,,,,,,,,,,,,,,,,,"[-0.4902000000000001,0.2704,-0.45899999999999996]","[-0.4902000000000001,0.2704,-0.45899999999999996]",45.60003662,99.19998169,1,0,0,response1disk,-8,-6.399993896,1,0,0,rectangle,-8,-6.399993896,1,0,0,,3,0.0032,0,-8,-6.399993896,1,0,0,0,12,12,122,1,41,second,,,,,,,,,,,,,,,,,,,,,,,,,,,,,,,,,,,,,,,,,,,,,,,,,,,,,,,,,,,,,,,,,,,,,,,,
,,,,,,609228e91a85cc5c8908fbd7,62c538ac3d012ff394c79225,2022-07-06_02h23.02.455,Colour_Asymmetry_Pilot,2022.1.3,Win32,59.42476824,62c50e9c1127f2cd403a315f,,,,,,,,,,,,,,,,,,,,onethree,,2,3.0351,,,,,,,,,,,,,,,,,,,,,,,,,,,,,,,,,,"[0.9372,0.20779999999999998,0.2704]","[-0.011800000000000033,-0.906,-0.45100000000000007]",80.79998779,-48.80001831,1,0,0,response3disk,2.400024414,2.399993896,1,0,0,rectangle,2.400024414,2.399993896,1,0,0,,2,0.0039,0,2.400024414,2.399993896,1,0,0,0,13,13,127,1,46,second,,,,,,,,,,,,,,,,,,,,,,,,,,,,,,,,,,,,,,,,,,,,,,,,,,,,,,,,,,,,,,,,,,,,,,,,
,,,,,,609228e91a85cc5c8908fbd7,62c538ac3d012ff394c79225,2022-07-06_02h23.02.455,Colour_Asymmetry_Pilot,2022.1.3,Win32,59.42476824,62c50e9c1127f2cd403a315f,,,,,,,,,,,,,,,,,,,,fourtwo,,-2,1.3341,,,,,,,,,,,,,,,,,,,,,,,,,,,,,,,,,,"[-0.011800000000000033,-0.906,-0.45100000000000007]","[-0.06680000000000008,-0.45100000000000007,-0.906]",-68,-44,1,0,0,response5disk,3.200012207,-4,1,0,0,rectangle,3.200012207,-4,1,0,0,,2,0.0009,0,3.200012207,-4,1,0,0,0,14,14,83,1,2,second,,,,,,,,,,,,,,,,,,,,,,,,,,,,,,,,,,,,,,,,,,,,,,,,,,,,,,,,,,,,,,,,,,,,,,,,
