trials.thisRepN,trials.thisTrialN,trials.thisN,trials.thisIndex,trials.ran,Colourcodes,participant,session,date,expName,psychopyVersion,OS,frameRate,study_id,trials_4.thisRepN,trials_4.thisTrialN,trials_4.thisN,trials_4.thisIndex,trials_4.ran,StimulusPos,key_resp.keys,key_resp.rt,key_resp_2.keys,key_resp_2.rt,key_resp_15.keys,key_resp_15.rt,key_resp_17.keys,key_resp_17.rt,key_resp_9.keys,key_resp_9.rt,key_resp_10.keys,key_resp_10.rt,Circle1_col,Ecc,Circle2_col,similarity,response_time,mouse_5.x,mouse_5.y,mouse_5.leftButton,mouse_5.midButton,mouse_5.rightButton,mouse_5.clicked_name,mouse_10.x,mouse_10.y,mouse_10.leftButton,mouse_10.midButton,mouse_10.rightButton,mouse_10.clicked_name,mouse_7.x,mouse_7.y,mouse_7.leftButton,mouse_7.midButton,mouse_7.rightButton,catchnumberprac,mouse_6.x,mouse_6.y,mouse_6.leftButton,mouse_6.midButton,mouse_6.rightButton,duringprac.thisRepN,duringprac.thisTrialN,duringprac.thisN,duringprac.thisIndex,duringprac.ran,mouse_7.clicked_name,catchprac,mouse_6.clicked_name,key_resp_22.keys,key_resp_22.rt,Circle1_colour,Circle2_colour,mouse.x,mouse.y,mouse.leftButton,mouse.midButton,mouse.rightButton,mouse.clicked_name,mouse_2.x,mouse_2.y,mouse_2.leftButton,mouse_2.midButton,mouse_2.rightButton,mouse_2.clicked_name,mouse_3.x,mouse_3.y,mouse_3.leftButton,mouse_3.midButton,mouse_3.rightButton,catchresponse,catchnumber,response_time_catch,Catch,mouse_11.x,mouse_11.y,mouse_11.leftButton,mouse_11.midButton,mouse_11.rightButton,trials_2.thisRepN,trials_2.thisTrialN,trials_2.thisN,trials_2.thisIndex,trials_2.ran,Colourpair,Temporder,mouse_3.clicked_name,mouse_11.clicked_name,trials_3.thisRepN,trials_3.thisTrialN,trials_3.thisN,trials_3.thisIndex,trials_3.ran,key_resp_instr_Ishi.keys,key_resp_instr_Ishi.rt,Ishi_trial_keyresp.keys,Ishi_textbox.text,Ishi_mouse.x,Ishi_mouse.y,Ishi_mouse.leftButton,Ishi_mouse.midButton,Ishi_mouse.rightButton,Ishi_mouse.clicked_name,Ishi_loop.thisRepN,Ishi_loop.thisTrialN,Ishi_loop.thisN,Ishi_loop.thisIndex,Ishi_loop.ran,imageaddress,textbox.text,mouse_4.x,mouse_4.y,mouse_4.leftButton,mouse_4.midButton,mouse_4.rightButton,mouse_4.clicked_name,textbox_2.text,mouse_8.x,mouse_8.y,mouse_8.leftButton,mouse_8.midButton,mouse_8.rightButton,mouse_8.clicked_name,textbox_3.text,mouse_9.x,mouse_9.y,mouse_9.leftButton,mouse_9.midButton,mouse_9.rightButton,mouse_9.clicked_name,textbox_4.text,mouse_12.x,mouse_12.y,mouse_12.leftButton,mouse_12.midButton,mouse_12.rightButton,mouse_12.clicked_name,textbox_5.text,mouse_13.x,mouse_13.y,mouse_13.leftButton,mouse_13.midButton,mouse_13.rightButton,mouse_13.clicked_name,textbox_6.text,mouse_14.x,mouse_14.y,mouse_14.leftButton,mouse_14.midButton,mouse_14.rightButton,mouse_14.clicked_name,textbox_7.text,mouse_15.x,mouse_15.y,mouse_15.leftButton,mouse_15.midButton,mouse_15.rightButton,mouse_15.clicked_name
0,0,0,36,1,,6099331dd68e8681d2c562ca,62c538d5cc76923a56d01cca,2022-07-06_08h25.53.909,Colour_Asymmetry_Pilot,2022.1.3,Win32,59.36127271,62c50e9c1127f2cd403a315f,,,,,,,,,,,,,,,,,,,,,,,,,,,,,,,,,,,,,,,,,,,,,,,,,,,,,,,,,,,,,,,,,,,,,,,,,,,,,,,,,,,,,,,,,,,,,,,,,,,,,,,,,,,,,,,,,,,,,,,,,,,,,,,,,,,,,,,,,,,,,,,,,,,,,,,,,,,,,,,,,,,
0,1,1,34,1,,6099331dd68e8681d2c562ca,62c538d5cc76923a56d01cca,2022-07-06_08h25.53.909,Colour_Asymmetry_Pilot,2022.1.3,Win32,59.36127271,62c50e9c1127f2cd403a315f,,,,,,,,,,,,,,,,,,,,,,,,,,,,,,,,,,,,,,,,,,,,,,,,,,,,,,,,,,,,,,,,,,,,,,,,,,,,,,,,,,,,,,,,,,,,,,,,,,,,,,,,,,,,,,,,,,,,,,,,,,,,,,,,,,,,,,,,,,,,,,,,,,,,,,,,,,,,,,,,,,,
0,2,2,5,1,,6099331dd68e8681d2c562ca,62c538d5cc76923a56d01cca,2022-07-06_08h25.53.909,Colour_Asymmetry_Pilot,2022.1.3,Win32,59.36127271,62c50e9c1127f2cd403a315f,,,,,,,,,,,,,,,,,,,,,,,,,,,,,,,,,,,,,,,,,,,,,,,,,,,,,,,,,,,,,,,,,,,,,,,,,,,,,,,,,,,,,,,,,,,,,,,,,,,,,,,,,,,,,,,,,,,,,,,,,,,,,,,,,,,,,,,,,,,,,,,,,,,,,,,,,,,,,,,,,,,
0,3,3,48,1,,6099331dd68e8681d2c562ca,62c538d5cc76923a56d01cca,2022-07-06_08h25.53.909,Colour_Asymmetry_Pilot,2022.1.3,Win32,59.36127271,62c50e9c1127f2cd403a315f,,,,,,,,,,,,,,,,,,,,,,,,,,,,,,,,,,,,,,,,,,,,,,,,,,,,,,,,,,,,,,,,,,,,,,,,,,,,,,,,,,,,,,,,,,,,,,,,,,,,,,,,,,,,,,,,,,,,,,,,,,,,,,,,,,,,,,,,,,,,,,,,,,,,,,,,,,,,,,,,,,,
0,4,4,83,1,,6099331dd68e8681d2c562ca,62c538d5cc76923a56d01cca,2022-07-06_08h25.53.909,Colour_Asymmetry_Pilot,2022.1.3,Win32,59.36127271,62c50e9c1127f2cd403a315f,,,,,,,,,,,,,,,,,,,,,,,,,,,,,,,,,,,,,,,,,,,,,,,,,,,,,,,,,,,,,,,,,,,,,,,,,,,,,,,,,,,,,,,,,,,,,,,,,,,,,,,,,,,,,,,,,,,,,,,,,,,,,,,,,,,,,,,,,,,,,,,,,,,,,,,,,,,,,,,,,,,
0,5,5,0,1,,6099331dd68e8681d2c562ca,62c538d5cc76923a56d01cca,2022-07-06_08h25.53.909,Colour_Asymmetry_Pilot,2022.1.3,Win32,59.36127271,62c50e9c1127f2cd403a315f,,,,,,,,,,,,,,,,,,,,,,,,,,,,,,,,,,,,,,,,,,,,,,,,,,,,,,,,,,,,,,,,,,,,,,,,,,,,,,,,,,,,,,,,,,,,,,,,,,,,,,,,,,,,,,,,,,,,,,,,,,,,,,,,,,,,,,,,,,,,,,,,,,,,,,,,,,,,,,,,,,,
0,6,6,75,1,,6099331dd68e8681d2c562ca,62c538d5cc76923a56d01cca,2022-07-06_08h25.53.909,Colour_Asymmetry_Pilot,2022.1.3,Win32,59.36127271,62c50e9c1127f2cd403a315f,,,,,,,,,,,,,,,,,,,,,,,,,,,,,,,,,,,,,,,,,,,,,,,,,,,,,,,,,,,,,,,,,,,,,,,,,,,,,,,,,,,,,,,,,,,,,,,,,,,,,,,,,,,,,,,,,,,,,,,,,,,,,,,,,,,,,,,,,,,,,,,,,,,,,,,,,,,,,,,,,,,
0,7,7,49,1,,6099331dd68e8681d2c562ca,62c538d5cc76923a56d01cca,2022-07-06_08h25.53.909,Colour_Asymmetry_Pilot,2022.1.3,Win32,59.36127271,62c50e9c1127f2cd403a315f,,,,,,,,,,,,,,,,,,,,,,,,,,,,,,,,,,,,,,,,,,,,,,,,,,,,,,,,,,,,,,,,,,,,,,,,,,,,,,,,,,,,,,,,,,,,,,,,,,,,,,,,,,,,,,,,,,,,,,,,,,,,,,,,,,,,,,,,,,,,,,,,,,,,,,,,,,,,,,,,,,,
0,8,8,41,1,,6099331dd68e8681d2c562ca,62c538d5cc76923a56d01cca,2022-07-06_08h25.53.909,Colour_Asymmetry_Pilot,2022.1.3,Win32,59.36127271,62c50e9c1127f2cd403a315f,,,,,,,,,,,,,,,,,,,,,,,,,,,,,,,,,,,,,,,,,,,,,,,,,,,,,,,,,,,,,,,,,,,,,,,,,,,,,,,,,,,,,,,,,,,,,,,,,,,,,,,,,,,,,,,,,,,,,,,,,,,,,,,,,,,,,,,,,,,,,,,,,,,,,,,,,,,,,,,,,,,
0,9,9,30,1,,6099331dd68e8681d2c562ca,62c538d5cc76923a56d01cca,2022-07-06_08h25.53.909,Colour_Asymmetry_Pilot,2022.1.3,Win32,59.36127271,62c50e9c1127f2cd403a315f,,,,,,,,,,,,,,,,,,,,,,,,,,,,,,,,,,,,,,,,,,,,,,,,,,,,,,,,,,,,,,,,,,,,,,,,,,,,,,,,,,,,,,,,,,,,,,,,,,,,,,,,,,,,,,,,,,,,,,,,,,,,,,,,,,,,,,,,,,,,,,,,,,,,,,,,,,,,,,,,,,,
0,10,10,72,1,,6099331dd68e8681d2c562ca,62c538d5cc76923a56d01cca,2022-07-06_08h25.53.909,Colour_Asymmetry_Pilot,2022.1.3,Win32,59.36127271,62c50e9c1127f2cd403a315f,,,,,,,,,,,,,,,,,,,,,,,,,,,,,,,,,,,,,,,,,,,,,,,,,,,,,,,,,,,,,,,,,,,,,,,,,,,,,,,,,,,,,,,,,,,,,,,,,,,,,,,,,,,,,,,,,,,,,,,,,,,,,,,,,,,,,,,,,,,,,,,,,,,,,,,,,,,,,,,,,,,
0,11,11,13,1,,6099331dd68e8681d2c562ca,62c538d5cc76923a56d01cca,2022-07-06_08h25.53.909,Colour_Asymmetry_Pilot,2022.1.3,Win32,59.36127271,62c50e9c1127f2cd403a315f,,,,,,,,,,,,,,,,,,,,,,,,,,,,,,,,,,,,,,,,,,,,,,,,,,,,,,,,,,,,,,,,,,,,,,,,,,,,,,,,,,,,,,,,,,,,,,,,,,,,,,,,,,,,,,,,,,,,,,,,,,,,,,,,,,,,,,,,,,,,,,,,,,,,,,,,,,,,,,,,,,,
0,12,12,8,1,,6099331dd68e8681d2c562ca,62c538d5cc76923a56d01cca,2022-07-06_08h25.53.909,Colour_Asymmetry_Pilot,2022.1.3,Win32,59.36127271,62c50e9c1127f2cd403a315f,,,,,,,,,,,,,,,,,,,,,,,,,,,,,,,,,,,,,,,,,,,,,,,,,,,,,,,,,,,,,,,,,,,,,,,,,,,,,,,,,,,,,,,,,,,,,,,,,,,,,,,,,,,,,,,,,,,,,,,,,,,,,,,,,,,,,,,,,,,,,,,,,,,,,,,,,,,,,,,,,,,
0,13,13,52,1,,6099331dd68e8681d2c562ca,62c538d5cc76923a56d01cca,2022-07-06_08h25.53.909,Colour_Asymmetry_Pilot,2022.1.3,Win32,59.36127271,62c50e9c1127f2cd403a315f,,,,,,,,,,,,,,,,,,,,,,,,,,,,,,,,,,,,,,,,,,,,,,,,,,,,,,,,,,,,,,,,,,,,,,,,,,,,,,,,,,,,,,,,,,,,,,,,,,,,,,,,,,,,,,,,,,,,,,,,,,,,,,,,,,,,,,,,,,,,,,,,,,,,,,,,,,,,,,,,,,,
0,14,14,86,1,,6099331dd68e8681d2c562ca,62c538d5cc76923a56d01cca,2022-07-06_08h25.53.909,Colour_Asymmetry_Pilot,2022.1.3,Win32,59.36127271,62c50e9c1127f2cd403a315f,,,,,,,,,,,,,,,,,,,,,,,,,,,,,,,,,,,,,,,,,,,,,,,,,,,,,,,,,,,,,,,,,,,,,,,,,,,,,,,,,,,,,,,,,,,,,,,,,,,,,,,,,,,,,,,,,,,,,,,,,,,,,,,,,,,,,,,,,,,,,,,,,,,,,,,,,,,,,,,,,,,
0,15,15,35,1,,6099331dd68e8681d2c562ca,62c538d5cc76923a56d01cca,2022-07-06_08h25.53.909,Colour_Asymmetry_Pilot,2022.1.3,Win32,59.36127271,62c50e9c1127f2cd403a315f,,,,,,,,,,,,,,,,,,,,,,,,,,,,,,,,,,,,,,,,,,,,,,,,,,,,,,,,,,,,,,,,,,,,,,,,,,,,,,,,,,,,,,,,,,,,,,,,,,,,,,,,,,,,,,,,,,,,,,,,,,,,,,,,,,,,,,,,,,,,,,,,,,,,,,,,,,,,,,,,,,,
0,16,16,33,1,,6099331dd68e8681d2c562ca,62c538d5cc76923a56d01cca,2022-07-06_08h25.53.909,Colour_Asymmetry_Pilot,2022.1.3,Win32,59.36127271,62c50e9c1127f2cd403a315f,,,,,,,,,,,,,,,,,,,,,,,,,,,,,,,,,,,,,,,,,,,,,,,,,,,,,,,,,,,,,,,,,,,,,,,,,,,,,,,,,,,,,,,,,,,,,,,,,,,,,,,,,,,,,,,,,,,,,,,,,,,,,,,,,,,,,,,,,,,,,,,,,,,,,,,,,,,,,,,,,,,
0,17,17,77,1,,6099331dd68e8681d2c562ca,62c538d5cc76923a56d01cca,2022-07-06_08h25.53.909,Colour_Asymmetry_Pilot,2022.1.3,Win32,59.36127271,62c50e9c1127f2cd403a315f,,,,,,,,,,,,,,,,,,,,,,,,,,,,,,,,,,,,,,,,,,,,,,,,,,,,,,,,,,,,,,,,,,,,,,,,,,,,,,,,,,,,,,,,,,,,,,,,,,,,,,,,,,,,,,,,,,,,,,,,,,,,,,,,,,,,,,,,,,,,,,,,,,,,,,,,,,,,,,,,,,,
0,18,18,31,1,,6099331dd68e8681d2c562ca,62c538d5cc76923a56d01cca,2022-07-06_08h25.53.909,Colour_Asymmetry_Pilot,2022.1.3,Win32,59.36127271,62c50e9c1127f2cd403a315f,,,,,,,,,,,,,,,,,,,,,,,,,,,,,,,,,,,,,,,,,,,,,,,,,,,,,,,,,,,,,,,,,,,,,,,,,,,,,,,,,,,,,,,,,,,,,,,,,,,,,,,,,,,,,,,,,,,,,,,,,,,,,,,,,,,,,,,,,,,,,,,,,,,,,,,,,,,,,,,,,,,
0,19,19,24,1,,6099331dd68e8681d2c562ca,62c538d5cc76923a56d01cca,2022-07-06_08h25.53.909,Colour_Asymmetry_Pilot,2022.1.3,Win32,59.36127271,62c50e9c1127f2cd403a315f,,,,,,,,,,,,,,,,,,,,,,,,,,,,,,,,,,,,,,,,,,,,,,,,,,,,,,,,,,,,,,,,,,,,,,,,,,,,,,,,,,,,,,,,,,,,,,,,,,,,,,,,,,,,,,,,,,,,,,,,,,,,,,,,,,,,,,,,,,,,,,,,,,,,,,,,,,,,,,,,,,,
0,20,20,73,1,,6099331dd68e8681d2c562ca,62c538d5cc76923a56d01cca,2022-07-06_08h25.53.909,Colour_Asymmetry_Pilot,2022.1.3,Win32,59.36127271,62c50e9c1127f2cd403a315f,,,,,,,,,,,,,,,,,,,,,,,,,,,,,,,,,,,,,,,,,,,,,,,,,,,,,,,,,,,,,,,,,,,,,,,,,,,,,,,,,,,,,,,,,,,,,,,,,,,,,,,,,,,,,,,,,,,,,,,,,,,,,,,,,,,,,,,,,,,,,,,,,,,,,,,,,,,,,,,,,,,
0,21,21,40,1,,6099331dd68e8681d2c562ca,62c538d5cc76923a56d01cca,2022-07-06_08h25.53.909,Colour_Asymmetry_Pilot,2022.1.3,Win32,59.36127271,62c50e9c1127f2cd403a315f,,,,,,,,,,,,,,,,,,,,,,,,,,,,,,,,,,,,,,,,,,,,,,,,,,,,,,,,,,,,,,,,,,,,,,,,,,,,,,,,,,,,,,,,,,,,,,,,,,,,,,,,,,,,,,,,,,,,,,,,,,,,,,,,,,,,,,,,,,,,,,,,,,,,,,,,,,,,,,,,,,,
0,22,22,26,1,,6099331dd68e8681d2c562ca,62c538d5cc76923a56d01cca,2022-07-06_08h25.53.909,Colour_Asymmetry_Pilot,2022.1.3,Win32,59.36127271,62c50e9c1127f2cd403a315f,,,,,,,,,,,,,,,,,,,,,,,,,,,,,,,,,,,,,,,,,,,,,,,,,,,,,,,,,,,,,,,,,,,,,,,,,,,,,,,,,,,,,,,,,,,,,,,,,,,,,,,,,,,,,,,,,,,,,,,,,,,,,,,,,,,,,,,,,,,,,,,,,,,,,,,,,,,,,,,,,,,
0,23,23,47,1,,6099331dd68e8681d2c562ca,62c538d5cc76923a56d01cca,2022-07-06_08h25.53.909,Colour_Asymmetry_Pilot,2022.1.3,Win32,59.36127271,62c50e9c1127f2cd403a315f,,,,,,,,,,,,,,,,,,,,,,,,,,,,,,,,,,,,,,,,,,,,,,,,,,,,,,,,,,,,,,,,,,,,,,,,,,,,,,,,,,,,,,,,,,,,,,,,,,,,,,,,,,,,,,,,,,,,,,,,,,,,,,,,,,,,,,,,,,,,,,,,,,,,,,,,,,,,,,,,,,,
0,24,24,25,1,,6099331dd68e8681d2c562ca,62c538d5cc76923a56d01cca,2022-07-06_08h25.53.909,Colour_Asymmetry_Pilot,2022.1.3,Win32,59.36127271,62c50e9c1127f2cd403a315f,,,,,,,,,,,,,,,,,,,,,,,,,,,,,,,,,,,,,,,,,,,,,,,,,,,,,,,,,,,,,,,,,,,,,,,,,,,,,,,,,,,,,,,,,,,,,,,,,,,,,,,,,,,,,,,,,,,,,,,,,,,,,,,,,,,,,,,,,,,,,,,,,,,,,,,,,,,,,,,,,,,
0,25,25,9,1,,6099331dd68e8681d2c562ca,62c538d5cc76923a56d01cca,2022-07-06_08h25.53.909,Colour_Asymmetry_Pilot,2022.1.3,Win32,59.36127271,62c50e9c1127f2cd403a315f,,,,,,,,,,,,,,,,,,,,,,,,,,,,,,,,,,,,,,,,,,,,,,,,,,,,,,,,,,,,,,,,,,,,,,,,,,,,,,,,,,,,,,,,,,,,,,,,,,,,,,,,,,,,,,,,,,,,,,,,,,,,,,,,,,,,,,,,,,,,,,,,,,,,,,,,,,,,,,,,,,,
0,26,26,1,1,,6099331dd68e8681d2c562ca,62c538d5cc76923a56d01cca,2022-07-06_08h25.53.909,Colour_Asymmetry_Pilot,2022.1.3,Win32,59.36127271,62c50e9c1127f2cd403a315f,,,,,,,,,,,,,,,,,,,,,,,,,,,,,,,,,,,,,,,,,,,,,,,,,,,,,,,,,,,,,,,,,,,,,,,,,,,,,,,,,,,,,,,,,,,,,,,,,,,,,,,,,,,,,,,,,,,,,,,,,,,,,,,,,,,,,,,,,,,,,,,,,,,,,,,,,,,,,,,,,,,
0,27,27,92,1,,6099331dd68e8681d2c562ca,62c538d5cc76923a56d01cca,2022-07-06_08h25.53.909,Colour_Asymmetry_Pilot,2022.1.3,Win32,59.36127271,62c50e9c1127f2cd403a315f,,,,,,,,,,,,,,,,,,,,,,,,,,,,,,,,,,,,,,,,,,,,,,,,,,,,,,,,,,,,,,,,,,,,,,,,,,,,,,,,,,,,,,,,,,,,,,,,,,,,,,,,,,,,,,,,,,,,,,,,,,,,,,,,,,,,,,,,,,,,,,,,,,,,,,,,,,,,,,,,,,,
0,28,28,84,1,,6099331dd68e8681d2c562ca,62c538d5cc76923a56d01cca,2022-07-06_08h25.53.909,Colour_Asymmetry_Pilot,2022.1.3,Win32,59.36127271,62c50e9c1127f2cd403a315f,,,,,,,,,,,,,,,,,,,,,,,,,,,,,,,,,,,,,,,,,,,,,,,,,,,,,,,,,,,,,,,,,,,,,,,,,,,,,,,,,,,,,,,,,,,,,,,,,,,,,,,,,,,,,,,,,,,,,,,,,,,,,,,,,,,,,,,,,,,,,,,,,,,,,,,,,,,,,,,,,,,
0,29,29,21,1,,6099331dd68e8681d2c562ca,62c538d5cc76923a56d01cca,2022-07-06_08h25.53.909,Colour_Asymmetry_Pilot,2022.1.3,Win32,59.36127271,62c50e9c1127f2cd403a315f,,,,,,,,,,,,,,,,,,,,,,,,,,,,,,,,,,,,,,,,,,,,,,,,,,,,,,,,,,,,,,,,,,,,,,,,,,,,,,,,,,,,,,,,,,,,,,,,,,,,,,,,,,,,,,,,,,,,,,,,,,,,,,,,,,,,,,,,,,,,,,,,,,,,,,,,,,,,,,,,,,,
0,30,30,10,1,,6099331dd68e8681d2c562ca,62c538d5cc76923a56d01cca,2022-07-06_08h25.53.909,Colour_Asymmetry_Pilot,2022.1.3,Win32,59.36127271,62c50e9c1127f2cd403a315f,,,,,,,,,,,,,,,,,,,,,,,,,,,,,,,,,,,,,,,,,,,,,,,,,,,,,,,,,,,,,,,,,,,,,,,,,,,,,,,,,,,,,,,,,,,,,,,,,,,,,,,,,,,,,,,,,,,,,,,,,,,,,,,,,,,,,,,,,,,,,,,,,,,,,,,,,,,,,,,,,,,
0,31,31,85,1,,6099331dd68e8681d2c562ca,62c538d5cc76923a56d01cca,2022-07-06_08h25.53.909,Colour_Asymmetry_Pilot,2022.1.3,Win32,59.36127271,62c50e9c1127f2cd403a315f,,,,,,,,,,,,,,,,,,,,,,,,,,,,,,,,,,,,,,,,,,,,,,,,,,,,,,,,,,,,,,,,,,,,,,,,,,,,,,,,,,,,,,,,,,,,,,,,,,,,,,,,,,,,,,,,,,,,,,,,,,,,,,,,,,,,,,,,,,,,,,,,,,,,,,,,,,,,,,,,,,,
0,32,32,76,1,,6099331dd68e8681d2c562ca,62c538d5cc76923a56d01cca,2022-07-06_08h25.53.909,Colour_Asymmetry_Pilot,2022.1.3,Win32,59.36127271,62c50e9c1127f2cd403a315f,,,,,,,,,,,,,,,,,,,,,,,,,,,,,,,,,,,,,,,,,,,,,,,,,,,,,,,,,,,,,,,,,,,,,,,,,,,,,,,,,,,,,,,,,,,,,,,,,,,,,,,,,,,,,,,,,,,,,,,,,,,,,,,,,,,,,,,,,,,,,,,,,,,,,,,,,,,,,,,,,,,
0,33,33,44,1,,6099331dd68e8681d2c562ca,62c538d5cc76923a56d01cca,2022-07-06_08h25.53.909,Colour_Asymmetry_Pilot,2022.1.3,Win32,59.36127271,62c50e9c1127f2cd403a315f,,,,,,,,,,,,,,,,,,,,,,,,,,,,,,,,,,,,,,,,,,,,,,,,,,,,,,,,,,,,,,,,,,,,,,,,,,,,,,,,,,,,,,,,,,,,,,,,,,,,,,,,,,,,,,,,,,,,,,,,,,,,,,,,,,,,,,,,,,,,,,,,,,,,,,,,,,,,,,,,,,,
0,34,34,71,1,,6099331dd68e8681d2c562ca,62c538d5cc76923a56d01cca,2022-07-06_08h25.53.909,Colour_Asymmetry_Pilot,2022.1.3,Win32,59.36127271,62c50e9c1127f2cd403a315f,,,,,,,,,,,,,,,,,,,,,,,,,,,,,,,,,,,,,,,,,,,,,,,,,,,,,,,,,,,,,,,,,,,,,,,,,,,,,,,,,,,,,,,,,,,,,,,,,,,,,,,,,,,,,,,,,,,,,,,,,,,,,,,,,,,,,,,,,,,,,,,,,,,,,,,,,,,,,,,,,,,
0,35,35,7,1,,6099331dd68e8681d2c562ca,62c538d5cc76923a56d01cca,2022-07-06_08h25.53.909,Colour_Asymmetry_Pilot,2022.1.3,Win32,59.36127271,62c50e9c1127f2cd403a315f,,,,,,,,,,,,,,,,,,,,,,,,,,,,,,,,,,,,,,,,,,,,,,,,,,,,,,,,,,,,,,,,,,,,,,,,,,,,,,,,,,,,,,,,,,,,,,,,,,,,,,,,,,,,,,,,,,,,,,,,,,,,,,,,,,,,,,,,,,,,,,,,,,,,,,,,,,,,,,,,,,,
0,36,36,87,1,,6099331dd68e8681d2c562ca,62c538d5cc76923a56d01cca,2022-07-06_08h25.53.909,Colour_Asymmetry_Pilot,2022.1.3,Win32,59.36127271,62c50e9c1127f2cd403a315f,,,,,,,,,,,,,,,,,,,,,,,,,,,,,,,,,,,,,,,,,,,,,,,,,,,,,,,,,,,,,,,,,,,,,,,,,,,,,,,,,,,,,,,,,,,,,,,,,,,,,,,,,,,,,,,,,,,,,,,,,,,,,,,,,,,,,,,,,,,,,,,,,,,,,,,,,,,,,,,,,,,
0,37,37,18,1,,6099331dd68e8681d2c562ca,62c538d5cc76923a56d01cca,2022-07-06_08h25.53.909,Colour_Asymmetry_Pilot,2022.1.3,Win32,59.36127271,62c50e9c1127f2cd403a315f,,,,,,,,,,,,,,,,,,,,,,,,,,,,,,,,,,,,,,,,,,,,,,,,,,,,,,,,,,,,,,,,,,,,,,,,,,,,,,,,,,,,,,,,,,,,,,,,,,,,,,,,,,,,,,,,,,,,,,,,,,,,,,,,,,,,,,,,,,,,,,,,,,,,,,,,,,,,,,,,,,,
0,38,38,14,1,,6099331dd68e8681d2c562ca,62c538d5cc76923a56d01cca,2022-07-06_08h25.53.909,Colour_Asymmetry_Pilot,2022.1.3,Win32,59.36127271,62c50e9c1127f2cd403a315f,,,,,,,,,,,,,,,,,,,,,,,,,,,,,,,,,,,,,,,,,,,,,,,,,,,,,,,,,,,,,,,,,,,,,,,,,,,,,,,,,,,,,,,,,,,,,,,,,,,,,,,,,,,,,,,,,,,,,,,,,,,,,,,,,,,,,,,,,,,,,,,,,,,,,,,,,,,,,,,,,,,
0,39,39,78,1,,6099331dd68e8681d2c562ca,62c538d5cc76923a56d01cca,2022-07-06_08h25.53.909,Colour_Asymmetry_Pilot,2022.1.3,Win32,59.36127271,62c50e9c1127f2cd403a315f,,,,,,,,,,,,,,,,,,,,,,,,,,,,,,,,,,,,,,,,,,,,,,,,,,,,,,,,,,,,,,,,,,,,,,,,,,,,,,,,,,,,,,,,,,,,,,,,,,,,,,,,,,,,,,,,,,,,,,,,,,,,,,,,,,,,,,,,,,,,,,,,,,,,,,,,,,,,,,,,,,,
0,40,40,64,1,,6099331dd68e8681d2c562ca,62c538d5cc76923a56d01cca,2022-07-06_08h25.53.909,Colour_Asymmetry_Pilot,2022.1.3,Win32,59.36127271,62c50e9c1127f2cd403a315f,,,,,,,,,,,,,,,,,,,,,,,,,,,,,,,,,,,,,,,,,,,,,,,,,,,,,,,,,,,,,,,,,,,,,,,,,,,,,,,,,,,,,,,,,,,,,,,,,,,,,,,,,,,,,,,,,,,,,,,,,,,,,,,,,,,,,,,,,,,,,,,,,,,,,,,,,,,,,,,,,,,
0,41,41,88,1,,6099331dd68e8681d2c562ca,62c538d5cc76923a56d01cca,2022-07-06_08h25.53.909,Colour_Asymmetry_Pilot,2022.1.3,Win32,59.36127271,62c50e9c1127f2cd403a315f,,,,,,,,,,,,,,,,,,,,,,,,,,,,,,,,,,,,,,,,,,,,,,,,,,,,,,,,,,,,,,,,,,,,,,,,,,,,,,,,,,,,,,,,,,,,,,,,,,,,,,,,,,,,,,,,,,,,,,,,,,,,,,,,,,,,,,,,,,,,,,,,,,,,,,,,,,,,,,,,,,,
0,42,42,19,1,,6099331dd68e8681d2c562ca,62c538d5cc76923a56d01cca,2022-07-06_08h25.53.909,Colour_Asymmetry_Pilot,2022.1.3,Win32,59.36127271,62c50e9c1127f2cd403a315f,,,,,,,,,,,,,,,,,,,,,,,,,,,,,,,,,,,,,,,,,,,,,,,,,,,,,,,,,,,,,,,,,,,,,,,,,,,,,,,,,,,,,,,,,,,,,,,,,,,,,,,,,,,,,,,,,,,,,,,,,,,,,,,,,,,,,,,,,,,,,,,,,,,,,,,,,,,,,,,,,,,
0,43,43,81,1,,6099331dd68e8681d2c562ca,62c538d5cc76923a56d01cca,2022-07-06_08h25.53.909,Colour_Asymmetry_Pilot,2022.1.3,Win32,59.36127271,62c50e9c1127f2cd403a315f,,,,,,,,,,,,,,,,,,,,,,,,,,,,,,,,,,,,,,,,,,,,,,,,,,,,,,,,,,,,,,,,,,,,,,,,,,,,,,,,,,,,,,,,,,,,,,,,,,,,,,,,,,,,,,,,,,,,,,,,,,,,,,,,,,,,,,,,,,,,,,,,,,,,,,,,,,,,,,,,,,,
0,44,44,58,1,,6099331dd68e8681d2c562ca,62c538d5cc76923a56d01cca,2022-07-06_08h25.53.909,Colour_Asymmetry_Pilot,2022.1.3,Win32,59.36127271,62c50e9c1127f2cd403a315f,,,,,,,,,,,,,,,,,,,,,,,,,,,,,,,,,,,,,,,,,,,,,,,,,,,,,,,,,,,,,,,,,,,,,,,,,,,,,,,,,,,,,,,,,,,,,,,,,,,,,,,,,,,,,,,,,,,,,,,,,,,,,,,,,,,,,,,,,,,,,,,,,,,,,,,,,,,,,,,,,,,
0,45,45,70,1,,6099331dd68e8681d2c562ca,62c538d5cc76923a56d01cca,2022-07-06_08h25.53.909,Colour_Asymmetry_Pilot,2022.1.3,Win32,59.36127271,62c50e9c1127f2cd403a315f,,,,,,,,,,,,,,,,,,,,,,,,,,,,,,,,,,,,,,,,,,,,,,,,,,,,,,,,,,,,,,,,,,,,,,,,,,,,,,,,,,,,,,,,,,,,,,,,,,,,,,,,,,,,,,,,,,,,,,,,,,,,,,,,,,,,,,,,,,,,,,,,,,,,,,,,,,,,,,,,,,,
0,46,46,65,1,,6099331dd68e8681d2c562ca,62c538d5cc76923a56d01cca,2022-07-06_08h25.53.909,Colour_Asymmetry_Pilot,2022.1.3,Win32,59.36127271,62c50e9c1127f2cd403a315f,,,,,,,,,,,,,,,,,,,,,,,,,,,,,,,,,,,,,,,,,,,,,,,,,,,,,,,,,,,,,,,,,,,,,,,,,,,,,,,,,,,,,,,,,,,,,,,,,,,,,,,,,,,,,,,,,,,,,,,,,,,,,,,,,,,,,,,,,,,,,,,,,,,,,,,,,,,,,,,,,,,
0,47,47,3,1,,6099331dd68e8681d2c562ca,62c538d5cc76923a56d01cca,2022-07-06_08h25.53.909,Colour_Asymmetry_Pilot,2022.1.3,Win32,59.36127271,62c50e9c1127f2cd403a315f,,,,,,,,,,,,,,,,,,,,,,,,,,,,,,,,,,,,,,,,,,,,,,,,,,,,,,,,,,,,,,,,,,,,,,,,,,,,,,,,,,,,,,,,,,,,,,,,,,,,,,,,,,,,,,,,,,,,,,,,,,,,,,,,,,,,,,,,,,,,,,,,,,,,,,,,,,,,,,,,,,,
0,48,48,28,1,,6099331dd68e8681d2c562ca,62c538d5cc76923a56d01cca,2022-07-06_08h25.53.909,Colour_Asymmetry_Pilot,2022.1.3,Win32,59.36127271,62c50e9c1127f2cd403a315f,,,,,,,,,,,,,,,,,,,,,,,,,,,,,,,,,,,,,,,,,,,,,,,,,,,,,,,,,,,,,,,,,,,,,,,,,,,,,,,,,,,,,,,,,,,,,,,,,,,,,,,,,,,,,,,,,,,,,,,,,,,,,,,,,,,,,,,,,,,,,,,,,,,,,,,,,,,,,,,,,,,
0,49,49,46,1,,6099331dd68e8681d2c562ca,62c538d5cc76923a56d01cca,2022-07-06_08h25.53.909,Colour_Asymmetry_Pilot,2022.1.3,Win32,59.36127271,62c50e9c1127f2cd403a315f,,,,,,,,,,,,,,,,,,,,,,,,,,,,,,,,,,,,,,,,,,,,,,,,,,,,,,,,,,,,,,,,,,,,,,,,,,,,,,,,,,,,,,,,,,,,,,,,,,,,,,,,,,,,,,,,,,,,,,,,,,,,,,,,,,,,,,,,,,,,,,,,,,,,,,,,,,,,,,,,,,,
0,50,50,15,1,,6099331dd68e8681d2c562ca,62c538d5cc76923a56d01cca,2022-07-06_08h25.53.909,Colour_Asymmetry_Pilot,2022.1.3,Win32,59.36127271,62c50e9c1127f2cd403a315f,,,,,,,,,,,,,,,,,,,,,,,,,,,,,,,,,,,,,,,,,,,,,,,,,,,,,,,,,,,,,,,,,,,,,,,,,,,,,,,,,,,,,,,,,,,,,,,,,,,,,,,,,,,,,,,,,,,,,,,,,,,,,,,,,,,,,,,,,,,,,,,,,,,,,,,,,,,,,,,,,,,
0,51,51,62,1,,6099331dd68e8681d2c562ca,62c538d5cc76923a56d01cca,2022-07-06_08h25.53.909,Colour_Asymmetry_Pilot,2022.1.3,Win32,59.36127271,62c50e9c1127f2cd403a315f,,,,,,,,,,,,,,,,,,,,,,,,,,,,,,,,,,,,,,,,,,,,,,,,,,,,,,,,,,,,,,,,,,,,,,,,,,,,,,,,,,,,,,,,,,,,,,,,,,,,,,,,,,,,,,,,,,,,,,,,,,,,,,,,,,,,,,,,,,,,,,,,,,,,,,,,,,,,,,,,,,,
0,52,52,29,1,,6099331dd68e8681d2c562ca,62c538d5cc76923a56d01cca,2022-07-06_08h25.53.909,Colour_Asymmetry_Pilot,2022.1.3,Win32,59.36127271,62c50e9c1127f2cd403a315f,,,,,,,,,,,,,,,,,,,,,,,,,,,,,,,,,,,,,,,,,,,,,,,,,,,,,,,,,,,,,,,,,,,,,,,,,,,,,,,,,,,,,,,,,,,,,,,,,,,,,,,,,,,,,,,,,,,,,,,,,,,,,,,,,,,,,,,,,,,,,,,,,,,,,,,,,,,,,,,,,,,
0,53,53,69,1,,6099331dd68e8681d2c562ca,62c538d5cc76923a56d01cca,2022-07-06_08h25.53.909,Colour_Asymmetry_Pilot,2022.1.3,Win32,59.36127271,62c50e9c1127f2cd403a315f,,,,,,,,,,,,,,,,,,,,,,,,,,,,,,,,,,,,,,,,,,,,,,,,,,,,,,,,,,,,,,,,,,,,,,,,,,,,,,,,,,,,,,,,,,,,,,,,,,,,,,,,,,,,,,,,,,,,,,,,,,,,,,,,,,,,,,,,,,,,,,,,,,,,,,,,,,,,,,,,,,,
0,54,54,2,1,,6099331dd68e8681d2c562ca,62c538d5cc76923a56d01cca,2022-07-06_08h25.53.909,Colour_Asymmetry_Pilot,2022.1.3,Win32,59.36127271,62c50e9c1127f2cd403a315f,,,,,,,,,,,,,,,,,,,,,,,,,,,,,,,,,,,,,,,,,,,,,,,,,,,,,,,,,,,,,,,,,,,,,,,,,,,,,,,,,,,,,,,,,,,,,,,,,,,,,,,,,,,,,,,,,,,,,,,,,,,,,,,,,,,,,,,,,,,,,,,,,,,,,,,,,,,,,,,,,,,
0,55,55,45,1,,6099331dd68e8681d2c562ca,62c538d5cc76923a56d01cca,2022-07-06_08h25.53.909,Colour_Asymmetry_Pilot,2022.1.3,Win32,59.36127271,62c50e9c1127f2cd403a315f,,,,,,,,,,,,,,,,,,,,,,,,,,,,,,,,,,,,,,,,,,,,,,,,,,,,,,,,,,,,,,,,,,,,,,,,,,,,,,,,,,,,,,,,,,,,,,,,,,,,,,,,,,,,,,,,,,,,,,,,,,,,,,,,,,,,,,,,,,,,,,,,,,,,,,,,,,,,,,,,,,,
0,56,56,16,1,,6099331dd68e8681d2c562ca,62c538d5cc76923a56d01cca,2022-07-06_08h25.53.909,Colour_Asymmetry_Pilot,2022.1.3,Win32,59.36127271,62c50e9c1127f2cd403a315f,,,,,,,,,,,,,,,,,,,,,,,,,,,,,,,,,,,,,,,,,,,,,,,,,,,,,,,,,,,,,,,,,,,,,,,,,,,,,,,,,,,,,,,,,,,,,,,,,,,,,,,,,,,,,,,,,,,,,,,,,,,,,,,,,,,,,,,,,,,,,,,,,,,,,,,,,,,,,,,,,,,
0,57,57,79,1,,6099331dd68e8681d2c562ca,62c538d5cc76923a56d01cca,2022-07-06_08h25.53.909,Colour_Asymmetry_Pilot,2022.1.3,Win32,59.36127271,62c50e9c1127f2cd403a315f,,,,,,,,,,,,,,,,,,,,,,,,,,,,,,,,,,,,,,,,,,,,,,,,,,,,,,,,,,,,,,,,,,,,,,,,,,,,,,,,,,,,,,,,,,,,,,,,,,,,,,,,,,,,,,,,,,,,,,,,,,,,,,,,,,,,,,,,,,,,,,,,,,,,,,,,,,,,,,,,,,,
0,58,58,74,1,,6099331dd68e8681d2c562ca,62c538d5cc76923a56d01cca,2022-07-06_08h25.53.909,Colour_Asymmetry_Pilot,2022.1.3,Win32,59.36127271,62c50e9c1127f2cd403a315f,,,,,,,,,,,,,,,,,,,,,,,,,,,,,,,,,,,,,,,,,,,,,,,,,,,,,,,,,,,,,,,,,,,,,,,,,,,,,,,,,,,,,,,,,,,,,,,,,,,,,,,,,,,,,,,,,,,,,,,,,,,,,,,,,,,,,,,,,,,,,,,,,,,,,,,,,,,,,,,,,,,
0,59,59,67,1,,6099331dd68e8681d2c562ca,62c538d5cc76923a56d01cca,2022-07-06_08h25.53.909,Colour_Asymmetry_Pilot,2022.1.3,Win32,59.36127271,62c50e9c1127f2cd403a315f,,,,,,,,,,,,,,,,,,,,,,,,,,,,,,,,,,,,,,,,,,,,,,,,,,,,,,,,,,,,,,,,,,,,,,,,,,,,,,,,,,,,,,,,,,,,,,,,,,,,,,,,,,,,,,,,,,,,,,,,,,,,,,,,,,,,,,,,,,,,,,,,,,,,,,,,,,,,,,,,,,,
0,60,60,22,1,,6099331dd68e8681d2c562ca,62c538d5cc76923a56d01cca,2022-07-06_08h25.53.909,Colour_Asymmetry_Pilot,2022.1.3,Win32,59.36127271,62c50e9c1127f2cd403a315f,,,,,,,,,,,,,,,,,,,,,,,,,,,,,,,,,,,,,,,,,,,,,,,,,,,,,,,,,,,,,,,,,,,,,,,,,,,,,,,,,,,,,,,,,,,,,,,,,,,,,,,,,,,,,,,,,,,,,,,,,,,,,,,,,,,,,,,,,,,,,,,,,,,,,,,,,,,,,,,,,,,
0,61,61,66,1,,6099331dd68e8681d2c562ca,62c538d5cc76923a56d01cca,2022-07-06_08h25.53.909,Colour_Asymmetry_Pilot,2022.1.3,Win32,59.36127271,62c50e9c1127f2cd403a315f,,,,,,,,,,,,,,,,,,,,,,,,,,,,,,,,,,,,,,,,,,,,,,,,,,,,,,,,,,,,,,,,,,,,,,,,,,,,,,,,,,,,,,,,,,,,,,,,,,,,,,,,,,,,,,,,,,,,,,,,,,,,,,,,,,,,,,,,,,,,,,,,,,,,,,,,,,,,,,,,,,,
0,62,62,82,1,,6099331dd68e8681d2c562ca,62c538d5cc76923a56d01cca,2022-07-06_08h25.53.909,Colour_Asymmetry_Pilot,2022.1.3,Win32,59.36127271,62c50e9c1127f2cd403a315f,,,,,,,,,,,,,,,,,,,,,,,,,,,,,,,,,,,,,,,,,,,,,,,,,,,,,,,,,,,,,,,,,,,,,,,,,,,,,,,,,,,,,,,,,,,,,,,,,,,,,,,,,,,,,,,,,,,,,,,,,,,,,,,,,,,,,,,,,,,,,,,,,,,,,,,,,,,,,,,,,,,
0,63,63,20,1,,6099331dd68e8681d2c562ca,62c538d5cc76923a56d01cca,2022-07-06_08h25.53.909,Colour_Asymmetry_Pilot,2022.1.3,Win32,59.36127271,62c50e9c1127f2cd403a315f,,,,,,,,,,,,,,,,,,,,,,,,,,,,,,,,,,,,,,,,,,,,,,,,,,,,,,,,,,,,,,,,,,,,,,,,,,,,,,,,,,,,,,,,,,,,,,,,,,,,,,,,,,,,,,,,,,,,,,,,,,,,,,,,,,,,,,,,,,,,,,,,,,,,,,,,,,,,,,,,,,,
0,64,64,27,1,,6099331dd68e8681d2c562ca,62c538d5cc76923a56d01cca,2022-07-06_08h25.53.909,Colour_Asymmetry_Pilot,2022.1.3,Win32,59.36127271,62c50e9c1127f2cd403a315f,,,,,,,,,,,,,,,,,,,,,,,,,,,,,,,,,,,,,,,,,,,,,,,,,,,,,,,,,,,,,,,,,,,,,,,,,,,,,,,,,,,,,,,,,,,,,,,,,,,,,,,,,,,,,,,,,,,,,,,,,,,,,,,,,,,,,,,,,,,,,,,,,,,,,,,,,,,,,,,,,,,
0,65,65,51,1,,6099331dd68e8681d2c562ca,62c538d5cc76923a56d01cca,2022-07-06_08h25.53.909,Colour_Asymmetry_Pilot,2022.1.3,Win32,59.36127271,62c50e9c1127f2cd403a315f,,,,,,,,,,,,,,,,,,,,,,,,,,,,,,,,,,,,,,,,,,,,,,,,,,,,,,,,,,,,,,,,,,,,,,,,,,,,,,,,,,,,,,,,,,,,,,,,,,,,,,,,,,,,,,,,,,,,,,,,,,,,,,,,,,,,,,,,,,,,,,,,,,,,,,,,,,,,,,,,,,,
0,66,66,53,1,,6099331dd68e8681d2c562ca,62c538d5cc76923a56d01cca,2022-07-06_08h25.53.909,Colour_Asymmetry_Pilot,2022.1.3,Win32,59.36127271,62c50e9c1127f2cd403a315f,,,,,,,,,,,,,,,,,,,,,,,,,,,,,,,,,,,,,,,,,,,,,,,,,,,,,,,,,,,,,,,,,,,,,,,,,,,,,,,,,,,,,,,,,,,,,,,,,,,,,,,,,,,,,,,,,,,,,,,,,,,,,,,,,,,,,,,,,,,,,,,,,,,,,,,,,,,,,,,,,,,
0,67,67,38,1,,6099331dd68e8681d2c562ca,62c538d5cc76923a56d01cca,2022-07-06_08h25.53.909,Colour_Asymmetry_Pilot,2022.1.3,Win32,59.36127271,62c50e9c1127f2cd403a315f,,,,,,,,,,,,,,,,,,,,,,,,,,,,,,,,,,,,,,,,,,,,,,,,,,,,,,,,,,,,,,,,,,,,,,,,,,,,,,,,,,,,,,,,,,,,,,,,,,,,,,,,,,,,,,,,,,,,,,,,,,,,,,,,,,,,,,,,,,,,,,,,,,,,,,,,,,,,,,,,,,,
0,68,68,80,1,,6099331dd68e8681d2c562ca,62c538d5cc76923a56d01cca,2022-07-06_08h25.53.909,Colour_Asymmetry_Pilot,2022.1.3,Win32,59.36127271,62c50e9c1127f2cd403a315f,,,,,,,,,,,,,,,,,,,,,,,,,,,,,,,,,,,,,,,,,,,,,,,,,,,,,,,,,,,,,,,,,,,,,,,,,,,,,,,,,,,,,,,,,,,,,,,,,,,,,,,,,,,,,,,,,,,,,,,,,,,,,,,,,,,,,,,,,,,,,,,,,,,,,,,,,,,,,,,,,,,
0,69,69,89,1,,6099331dd68e8681d2c562ca,62c538d5cc76923a56d01cca,2022-07-06_08h25.53.909,Colour_Asymmetry_Pilot,2022.1.3,Win32,59.36127271,62c50e9c1127f2cd403a315f,,,,,,,,,,,,,,,,,,,,,,,,,,,,,,,,,,,,,,,,,,,,,,,,,,,,,,,,,,,,,,,,,,,,,,,,,,,,,,,,,,,,,,,,,,,,,,,,,,,,,,,,,,,,,,,,,,,,,,,,,,,,,,,,,,,,,,,,,,,,,,,,,,,,,,,,,,,,,,,,,,,
0,70,70,42,1,,6099331dd68e8681d2c562ca,62c538d5cc76923a56d01cca,2022-07-06_08h25.53.909,Colour_Asymmetry_Pilot,2022.1.3,Win32,59.36127271,62c50e9c1127f2cd403a315f,,,,,,,,,,,,,,,,,,,,,,,,,,,,,,,,,,,,,,,,,,,,,,,,,,,,,,,,,,,,,,,,,,,,,,,,,,,,,,,,,,,,,,,,,,,,,,,,,,,,,,,,,,,,,,,,,,,,,,,,,,,,,,,,,,,,,,,,,,,,,,,,,,,,,,,,,,,,,,,,,,,
0,71,71,61,1,,6099331dd68e8681d2c562ca,62c538d5cc76923a56d01cca,2022-07-06_08h25.53.909,Colour_Asymmetry_Pilot,2022.1.3,Win32,59.36127271,62c50e9c1127f2cd403a315f,,,,,,,,,,,,,,,,,,,,,,,,,,,,,,,,,,,,,,,,,,,,,,,,,,,,,,,,,,,,,,,,,,,,,,,,,,,,,,,,,,,,,,,,,,,,,,,,,,,,,,,,,,,,,,,,,,,,,,,,,,,,,,,,,,,,,,,,,,,,,,,,,,,,,,,,,,,,,,,,,,,
0,72,72,90,1,,6099331dd68e8681d2c562ca,62c538d5cc76923a56d01cca,2022-07-06_08h25.53.909,Colour_Asymmetry_Pilot,2022.1.3,Win32,59.36127271,62c50e9c1127f2cd403a315f,,,,,,,,,,,,,,,,,,,,,,,,,,,,,,,,,,,,,,,,,,,,,,,,,,,,,,,,,,,,,,,,,,,,,,,,,,,,,,,,,,,,,,,,,,,,,,,,,,,,,,,,,,,,,,,,,,,,,,,,,,,,,,,,,,,,,,,,,,,,,,,,,,,,,,,,,,,,,,,,,,,
0,73,73,37,1,,6099331dd68e8681d2c562ca,62c538d5cc76923a56d01cca,2022-07-06_08h25.53.909,Colour_Asymmetry_Pilot,2022.1.3,Win32,59.36127271,62c50e9c1127f2cd403a315f,,,,,,,,,,,,,,,,,,,,,,,,,,,,,,,,,,,,,,,,,,,,,,,,,,,,,,,,,,,,,,,,,,,,,,,,,,,,,,,,,,,,,,,,,,,,,,,,,,,,,,,,,,,,,,,,,,,,,,,,,,,,,,,,,,,,,,,,,,,,,,,,,,,,,,,,,,,,,,,,,,,
0,74,74,56,1,,6099331dd68e8681d2c562ca,62c538d5cc76923a56d01cca,2022-07-06_08h25.53.909,Colour_Asymmetry_Pilot,2022.1.3,Win32,59.36127271,62c50e9c1127f2cd403a315f,,,,,,,,,,,,,,,,,,,,,,,,,,,,,,,,,,,,,,,,,,,,,,,,,,,,,,,,,,,,,,,,,,,,,,,,,,,,,,,,,,,,,,,,,,,,,,,,,,,,,,,,,,,,,,,,,,,,,,,,,,,,,,,,,,,,,,,,,,,,,,,,,,,,,,,,,,,,,,,,,,,
0,75,75,55,1,,6099331dd68e8681d2c562ca,62c538d5cc76923a56d01cca,2022-07-06_08h25.53.909,Colour_Asymmetry_Pilot,2022.1.3,Win32,59.36127271,62c50e9c1127f2cd403a315f,,,,,,,,,,,,,,,,,,,,,,,,,,,,,,,,,,,,,,,,,,,,,,,,,,,,,,,,,,,,,,,,,,,,,,,,,,,,,,,,,,,,,,,,,,,,,,,,,,,,,,,,,,,,,,,,,,,,,,,,,,,,,,,,,,,,,,,,,,,,,,,,,,,,,,,,,,,,,,,,,,,
0,76,76,39,1,,6099331dd68e8681d2c562ca,62c538d5cc76923a56d01cca,2022-07-06_08h25.53.909,Colour_Asymmetry_Pilot,2022.1.3,Win32,59.36127271,62c50e9c1127f2cd403a315f,,,,,,,,,,,,,,,,,,,,,,,,,,,,,,,,,,,,,,,,,,,,,,,,,,,,,,,,,,,,,,,,,,,,,,,,,,,,,,,,,,,,,,,,,,,,,,,,,,,,,,,,,,,,,,,,,,,,,,,,,,,,,,,,,,,,,,,,,,,,,,,,,,,,,,,,,,,,,,,,,,,
0,77,77,63,1,,6099331dd68e8681d2c562ca,62c538d5cc76923a56d01cca,2022-07-06_08h25.53.909,Colour_Asymmetry_Pilot,2022.1.3,Win32,59.36127271,62c50e9c1127f2cd403a315f,,,,,,,,,,,,,,,,,,,,,,,,,,,,,,,,,,,,,,,,,,,,,,,,,,,,,,,,,,,,,,,,,,,,,,,,,,,,,,,,,,,,,,,,,,,,,,,,,,,,,,,,,,,,,,,,,,,,,,,,,,,,,,,,,,,,,,,,,,,,,,,,,,,,,,,,,,,,,,,,,,,
0,78,78,68,1,,6099331dd68e8681d2c562ca,62c538d5cc76923a56d01cca,2022-07-06_08h25.53.909,Colour_Asymmetry_Pilot,2022.1.3,Win32,59.36127271,62c50e9c1127f2cd403a315f,,,,,,,,,,,,,,,,,,,,,,,,,,,,,,,,,,,,,,,,,,,,,,,,,,,,,,,,,,,,,,,,,,,,,,,,,,,,,,,,,,,,,,,,,,,,,,,,,,,,,,,,,,,,,,,,,,,,,,,,,,,,,,,,,,,,,,,,,,,,,,,,,,,,,,,,,,,,,,,,,,,
0,79,79,23,1,,6099331dd68e8681d2c562ca,62c538d5cc76923a56d01cca,2022-07-06_08h25.53.909,Colour_Asymmetry_Pilot,2022.1.3,Win32,59.36127271,62c50e9c1127f2cd403a315f,,,,,,,,,,,,,,,,,,,,,,,,,,,,,,,,,,,,,,,,,,,,,,,,,,,,,,,,,,,,,,,,,,,,,,,,,,,,,,,,,,,,,,,,,,,,,,,,,,,,,,,,,,,,,,,,,,,,,,,,,,,,,,,,,,,,,,,,,,,,,,,,,,,,,,,,,,,,,,,,,,,
0,80,80,59,1,,6099331dd68e8681d2c562ca,62c538d5cc76923a56d01cca,2022-07-06_08h25.53.909,Colour_Asymmetry_Pilot,2022.1.3,Win32,59.36127271,62c50e9c1127f2cd403a315f,,,,,,,,,,,,,,,,,,,,,,,,,,,,,,,,,,,,,,,,,,,,,,,,,,,,,,,,,,,,,,,,,,,,,,,,,,,,,,,,,,,,,,,,,,,,,,,,,,,,,,,,,,,,,,,,,,,,,,,,,,,,,,,,,,,,,,,,,,,,,,,,,,,,,,,,,,,,,,,,,,,
0,81,81,11,1,,6099331dd68e8681d2c562ca,62c538d5cc76923a56d01cca,2022-07-06_08h25.53.909,Colour_Asymmetry_Pilot,2022.1.3,Win32,59.36127271,62c50e9c1127f2cd403a315f,,,,,,,,,,,,,,,,,,,,,,,,,,,,,,,,,,,,,,,,,,,,,,,,,,,,,,,,,,,,,,,,,,,,,,,,,,,,,,,,,,,,,,,,,,,,,,,,,,,,,,,,,,,,,,,,,,,,,,,,,,,,,,,,,,,,,,,,,,,,,,,,,,,,,,,,,,,,,,,,,,,
0,82,82,57,1,,6099331dd68e8681d2c562ca,62c538d5cc76923a56d01cca,2022-07-06_08h25.53.909,Colour_Asymmetry_Pilot,2022.1.3,Win32,59.36127271,62c50e9c1127f2cd403a315f,,,,,,,,,,,,,,,,,,,,,,,,,,,,,,,,,,,,,,,,,,,,,,,,,,,,,,,,,,,,,,,,,,,,,,,,,,,,,,,,,,,,,,,,,,,,,,,,,,,,,,,,,,,,,,,,,,,,,,,,,,,,,,,,,,,,,,,,,,,,,,,,,,,,,,,,,,,,,,,,,,,
0,83,83,12,1,,6099331dd68e8681d2c562ca,62c538d5cc76923a56d01cca,2022-07-06_08h25.53.909,Colour_Asymmetry_Pilot,2022.1.3,Win32,59.36127271,62c50e9c1127f2cd403a315f,,,,,,,,,,,,,,,,,,,,,,,,,,,,,,,,,,,,,,,,,,,,,,,,,,,,,,,,,,,,,,,,,,,,,,,,,,,,,,,,,,,,,,,,,,,,,,,,,,,,,,,,,,,,,,,,,,,,,,,,,,,,,,,,,,,,,,,,,,,,,,,,,,,,,,,,,,,,,,,,,,,
0,84,84,4,1,,6099331dd68e8681d2c562ca,62c538d5cc76923a56d01cca,2022-07-06_08h25.53.909,Colour_Asymmetry_Pilot,2022.1.3,Win32,59.36127271,62c50e9c1127f2cd403a315f,,,,,,,,,,,,,,,,,,,,,,,,,,,,,,,,,,,,,,,,,,,,,,,,,,,,,,,,,,,,,,,,,,,,,,,,,,,,,,,,,,,,,,,,,,,,,,,,,,,,,,,,,,,,,,,,,,,,,,,,,,,,,,,,,,,,,,,,,,,,,,,,,,,,,,,,,,,,,,,,,,,
0,85,85,17,1,,6099331dd68e8681d2c562ca,62c538d5cc76923a56d01cca,2022-07-06_08h25.53.909,Colour_Asymmetry_Pilot,2022.1.3,Win32,59.36127271,62c50e9c1127f2cd403a315f,,,,,,,,,,,,,,,,,,,,,,,,,,,,,,,,,,,,,,,,,,,,,,,,,,,,,,,,,,,,,,,,,,,,,,,,,,,,,,,,,,,,,,,,,,,,,,,,,,,,,,,,,,,,,,,,,,,,,,,,,,,,,,,,,,,,,,,,,,,,,,,,,,,,,,,,,,,,,,,,,,,
0,86,86,54,1,,6099331dd68e8681d2c562ca,62c538d5cc76923a56d01cca,2022-07-06_08h25.53.909,Colour_Asymmetry_Pilot,2022.1.3,Win32,59.36127271,62c50e9c1127f2cd403a315f,,,,,,,,,,,,,,,,,,,,,,,,,,,,,,,,,,,,,,,,,,,,,,,,,,,,,,,,,,,,,,,,,,,,,,,,,,,,,,,,,,,,,,,,,,,,,,,,,,,,,,,,,,,,,,,,,,,,,,,,,,,,,,,,,,,,,,,,,,,,,,,,,,,,,,,,,,,,,,,,,,,
0,87,87,6,1,,6099331dd68e8681d2c562ca,62c538d5cc76923a56d01cca,2022-07-06_08h25.53.909,Colour_Asymmetry_Pilot,2022.1.3,Win32,59.36127271,62c50e9c1127f2cd403a315f,,,,,,,,,,,,,,,,,,,,,,,,,,,,,,,,,,,,,,,,,,,,,,,,,,,,,,,,,,,,,,,,,,,,,,,,,,,,,,,,,,,,,,,,,,,,,,,,,,,,,,,,,,,,,,,,,,,,,,,,,,,,,,,,,,,,,,,,,,,,,,,,,,,,,,,,,,,,,,,,,,,
0,88,88,60,1,,6099331dd68e8681d2c562ca,62c538d5cc76923a56d01cca,2022-07-06_08h25.53.909,Colour_Asymmetry_Pilot,2022.1.3,Win32,59.36127271,62c50e9c1127f2cd403a315f,,,,,,,,,,,,,,,,,,,,,,,,,,,,,,,,,,,,,,,,,,,,,,,,,,,,,,,,,,,,,,,,,,,,,,,,,,,,,,,,,,,,,,,,,,,,,,,,,,,,,,,,,,,,,,,,,,,,,,,,,,,,,,,,,,,,,,,,,,,,,,,,,,,,,,,,,,,,,,,,,,,
0,89,89,91,1,,6099331dd68e8681d2c562ca,62c538d5cc76923a56d01cca,2022-07-06_08h25.53.909,Colour_Asymmetry_Pilot,2022.1.3,Win32,59.36127271,62c50e9c1127f2cd403a315f,,,,,,,,,,,,,,,,,,,,,,,,,,,,,,,,,,,,,,,,,,,,,,,,,,,,,,,,,,,,,,,,,,,,,,,,,,,,,,,,,,,,,,,,,,,,,,,,,,,,,,,,,,,,,,,,,,,,,,,,,,,,,,,,,,,,,,,,,,,,,,,,,,,,,,,,,,,,,,,,,,,
0,90,90,50,1,,6099331dd68e8681d2c562ca,62c538d5cc76923a56d01cca,2022-07-06_08h25.53.909,Colour_Asymmetry_Pilot,2022.1.3,Win32,59.36127271,62c50e9c1127f2cd403a315f,,,,,,,,,,,,,,,,,,,,,,,,,,,,,,,,,,,,,,,,,,,,,,,,,,,,,,,,,,,,,,,,,,,,,,,,,,,,,,,,,,,,,,,,,,,,,,,,,,,,,,,,,,,,,,,,,,,,,,,,,,,,,,,,,,,,,,,,,,,,,,,,,,,,,,,,,,,,,,,,,,,
0,91,91,32,1,,6099331dd68e8681d2c562ca,62c538d5cc76923a56d01cca,2022-07-06_08h25.53.909,Colour_Asymmetry_Pilot,2022.1.3,Win32,59.36127271,62c50e9c1127f2cd403a315f,,,,,,,,,,,,,,,,,,,,,,,,,,,,,,,,,,,,,,,,,,,,,,,,,,,,,,,,,,,,,,,,,,,,,,,,,,,,,,,,,,,,,,,,,,,,,,,,,,,,,,,,,,,,,,,,,,,,,,,,,,,,,,,,,,,,,,,,,,,,,,,,,,,,,,,,,,,,,,,,,,,
0,92,92,43,1,,6099331dd68e8681d2c562ca,62c538d5cc76923a56d01cca,2022-07-06_08h25.53.909,Colour_Asymmetry_Pilot,2022.1.3,Win32,59.36127271,62c50e9c1127f2cd403a315f,,,,,,,,,,,,,,,,,,,,,,,,,,,,,,,,,,,,,,,,,,,,,,,,,,,,,,,,,,,,,,,,,,,,,,,,,,,,,,,,,,,,,,,,,,,,,,,,,,,,,,,,,,,,,,,,,,,,,,,,,,,,,,,,,,,,,,,,,,,,,,,,,,,,,,,,,,,,,,,,,,,
,,,,,,6099331dd68e8681d2c562ca,62c538d5cc76923a56d01cca,2022-07-06_08h25.53.909,Colour_Asymmetry_Pilot,2022.1.3,Win32,59.36127271,62c50e9c1127f2cd403a315f,0,0,0,67,1,twofour,,,,,,,,,,,,,,,,,,,,,,,,,,,,,,,,,,,,,,,,,,,,,,,,,,,,,,,,,,,,,,,,,,,,,,,,,,,,,,,,,,,,,,,,,,,,,,,,,,,,,,,,,,,,,,,,,,,,,,,,,,,,,,,,,,,,,,,,,,,,,,,,,,,,,,,,,,,,,
,,,,,,6099331dd68e8681d2c562ca,62c538d5cc76923a56d01cca,2022-07-06_08h25.53.909,Colour_Asymmetry_Pilot,2022.1.3,Win32,59.36127271,62c50e9c1127f2cd403a315f,0,1,1,26,1,twoone,,,,,,,,,,,,,,,,,,,,,,,,,,,,,,,,,,,,,,,,,,,,,,,,,,,,,,,,,,,,,,,,,,,,,,,,,,,,,,,,,,,,,,,,,,,,,,,,,,,,,,,,,,,,,,,,,,,,,,,,,,,,,,,,,,,,,,,,,,,,,,,,,,,,,,,,,,,,,
,,,,,,6099331dd68e8681d2c562ca,62c538d5cc76923a56d01cca,2022-07-06_08h25.53.909,Colour_Asymmetry_Pilot,2022.1.3,Win32,59.36127271,62c50e9c1127f2cd403a315f,0,2,2,65,1,onethree,,,,,,,,,,,,,,,,,,,,,,,,,,,,,,,,,,,,,,,,,,,,,,,,,,,,,,,,,,,,,,,,,,,,,,,,,,,,,,,,,,,,,,,,,,,,,,,,,,,,,,,,,,,,,,,,,,,,,,,,,,,,,,,,,,,,,,,,,,,,,,,,,,,,,,,,,,,,,
,,,,,,6099331dd68e8681d2c562ca,62c538d5cc76923a56d01cca,2022-07-06_08h25.53.909,Colour_Asymmetry_Pilot,2022.1.3,Win32,59.36127271,62c50e9c1127f2cd403a315f,0,3,3,2,1,twoone,,,,,,,,,,,,,,,,,,,,,,,,,,,,,,,,,,,,,,,,,,,,,,,,,,,,,,,,,,,,,,,,,,,,,,,,,,,,,,,,,,,,,,,,,,,,,,,,,,,,,,,,,,,,,,,,,,,,,,,,,,,,,,,,,,,,,,,,,,,,,,,,,,,,,,,,,,,,,
,,,,,,6099331dd68e8681d2c562ca,62c538d5cc76923a56d01cca,2022-07-06_08h25.53.909,Colour_Asymmetry_Pilot,2022.1.3,Win32,59.36127271,62c50e9c1127f2cd403a315f,0,4,4,136,1,onetwo,,,,,,,,,,,,,,,,,,,,,,,,,,,,,,,,,,,,,,,,,,,,,,,,,,,,,,,,,,,,,,,,,,,,,,,,,,,,,,,,,,,,,,,,,,,,,,,,,,,,,,,,,,,,,,,,,,,,,,,,,,,,,,,,,,,,,,,,,,,,,,,,,,,,,,,,,,,,,
,,,,,,6099331dd68e8681d2c562ca,62c538d5cc76923a56d01cca,2022-07-06_08h25.53.909,Colour_Asymmetry_Pilot,2022.1.3,Win32,59.36127271,62c50e9c1127f2cd403a315f,0,5,5,90,1,twoone,,,,,,,,,,,,,,,,,,,,,,,,,,,,,,,,,,,,,,,,,,,,,,,,,,,,,,,,,,,,,,,,,,,,,,,,,,,,,,,,,,,,,,,,,,,,,,,,,,,,,,,,,,,,,,,,,,,,,,,,,,,,,,,,,,,,,,,,,,,,,,,,,,,,,,,,,,,,,
,,,,,,6099331dd68e8681d2c562ca,62c538d5cc76923a56d01cca,2022-07-06_08h25.53.909,Colour_Asymmetry_Pilot,2022.1.3,Win32,59.36127271,62c50e9c1127f2cd403a315f,0,6,6,63,1,fourthree,,,,,,,,,,,,,,,,,,,,,,,,,,,,,,,,,,,,,,,,,,,,,,,,,,,,,,,,,,,,,,,,,,,,,,,,,,,,,,,,,,,,,,,,,,,,,,,,,,,,,,,,,,,,,,,,,,,,,,,,,,,,,,,,,,,,,,,,,,,,,,,,,,,,,,,,,,,,,
,,,,,,6099331dd68e8681d2c562ca,62c538d5cc76923a56d01cca,2022-07-06_08h25.53.909,Colour_Asymmetry_Pilot,2022.1.3,Win32,59.36127271,62c50e9c1127f2cd403a315f,0,7,7,82,1,twoone,,,,,,,,,,,,,,,,,,,,,,,,,,,,,,,,,,,,,,,,,,,,,,,,,,,,,,,,,,,,,,,,,,,,,,,,,,,,,,,,,,,,,,,,,,,,,,,,,,,,,,,,,,,,,,,,,,,,,,,,,,,,,,,,,,,,,,,,,,,,,,,,,,,,,,,,,,,,,
,,,,,,6099331dd68e8681d2c562ca,62c538d5cc76923a56d01cca,2022-07-06_08h25.53.909,Colour_Asymmetry_Pilot,2022.1.3,Win32,59.36127271,62c50e9c1127f2cd403a315f,0,8,8,78,1,fourtwo,,,,,,,,,,,,,,,,,,,,,,,,,,,,,,,,,,,,,,,,,,,,,,,,,,,,,,,,,,,,,,,,,,,,,,,,,,,,,,,,,,,,,,,,,,,,,,,,,,,,,,,,,,,,,,,,,,,,,,,,,,,,,,,,,,,,,,,,,,,,,,,,,,,,,,,,,,,,,
,,,,,,6099331dd68e8681d2c562ca,62c538d5cc76923a56d01cca,2022-07-06_08h25.53.909,Colour_Asymmetry_Pilot,2022.1.3,Win32,59.36127271,62c50e9c1127f2cd403a315f,0,9,9,110,1,fourtwo,,,,,,,,,,,,,,,,,,,,,,,,,,,,,,,,,,,,,,,,,,,,,,,,,,,,,,,,,,,,,,,,,,,,,,,,,,,,,,,,,,,,,,,,,,,,,,,,,,,,,,,,,,,,,,,,,,,,,,,,,,,,,,,,,,,,,,,,,,,,,,,,,,,,,,,,,,,,,
,,,,,,6099331dd68e8681d2c562ca,62c538d5cc76923a56d01cca,2022-07-06_08h25.53.909,Colour_Asymmetry_Pilot,2022.1.3,Win32,59.36127271,62c50e9c1127f2cd403a315f,0,10,10,35,1,twofour,,,,,,,,,,,,,,,,,,,,,,,,,,,,,,,,,,,,,,,,,,,,,,,,,,,,,,,,,,,,,,,,,,,,,,,,,,,,,,,,,,,,,,,,,,,,,,,,,,,,,,,,,,,,,,,,,,,,,,,,,,,,,,,,,,,,,,,,,,,,,,,,,,,,,,,,,,,,,
,,,,,,6099331dd68e8681d2c562ca,62c538d5cc76923a56d01cca,2022-07-06_08h25.53.909,Colour_Asymmetry_Pilot,2022.1.3,Win32,59.36127271,62c50e9c1127f2cd403a315f,0,11,11,21,1,threefour,,,,,,,,,,,,,,,,,,,,,,,,,,,,,,,,,,,,,,,,,,,,,,,,,,,,,,,,,,,,,,,,,,,,,,,,,,,,,,,,,,,,,,,,,,,,,,,,,,,,,,,,,,,,,,,,,,,,,,,,,,,,,,,,,,,,,,,,,,,,,,,,,,,,,,,,,,,,,
,,,,,,6099331dd68e8681d2c562ca,62c538d5cc76923a56d01cca,2022-07-06_08h25.53.909,Colour_Asymmetry_Pilot,2022.1.3,Win32,59.36127271,62c50e9c1127f2cd403a315f,0,12,12,100,1,threeone,,,,,,,,,,,,,,,,,,,,,,,,,,,,,,,,,,,,,,,,,,,,,,,,,,,,,,,,,,,,,,,,,,,,,,,,,,,,,,,,,,,,,,,,,,,,,,,,,,,,,,,,,,,,,,,,,,,,,,,,,,,,,,,,,,,,,,,,,,,,,,,,,,,,,,,,,,,,,
,,,,,,6099331dd68e8681d2c562ca,62c538d5cc76923a56d01cca,2022-07-06_08h25.53.909,Colour_Asymmetry_Pilot,2022.1.3,Win32,59.36127271,62c50e9c1127f2cd403a315f,0,13,13,114,1,twoone,,,,,,,,,,,,,,,,,,,,,,,,,,,,,,,,,,,,,,,,,,,,,,,,,,,,,,,,,,,,,,,,,,,,,,,,,,,,,,,,,,,,,,,,,,,,,,,,,,,,,,,,,,,,,,,,,,,,,,,,,,,,,,,,,,,,,,,,,,,,,,,,,,,,,,,,,,,,,
,,,,,,6099331dd68e8681d2c562ca,62c538d5cc76923a56d01cca,2022-07-06_08h25.53.909,Colour_Asymmetry_Pilot,2022.1.3,Win32,59.36127271,62c50e9c1127f2cd403a315f,0,14,14,156,1,threeone,,,,,,,,,,,,,,,,,,,,,,,,,,,,,,,,,,,,,,,,,,,,,,,,,,,,,,,,,,,,,,,,,,,,,,,,,,,,,,,,,,,,,,,,,,,,,,,,,,,,,,,,,,,,,,,,,,,,,,,,,,,,,,,,,,,,,,,,,,,,,,,,,,,,,,,,,,,,,
,,,,,,6099331dd68e8681d2c562ca,62c538d5cc76923a56d01cca,2022-07-06_08h25.53.909,Colour_Asymmetry_Pilot,2022.1.3,Win32,59.36127271,62c50e9c1127f2cd403a315f,0,15,15,12,1,threeone,,,,,,,,,,,,,,,,,,,,,,,,,,,,,,,,,,,,,,,,,,,,,,,,,,,,,,,,,,,,,,,,,,,,,,,,,,,,,,,,,,,,,,,,,,,,,,,,,,,,,,,,,,,,,,,,,,,,,,,,,,,,,,,,,,,,,,,,,,,,,,,,,,,,,,,,,,,,,
,,,,,,6099331dd68e8681d2c562ca,62c538d5cc76923a56d01cca,2022-07-06_08h25.53.909,Colour_Asymmetry_Pilot,2022.1.3,Win32,59.36127271,62c50e9c1127f2cd403a315f,0,16,16,142,1,fourtwo,,,,,,,,,,,,,,,,,,,,,,,,,,,,,,,,,,,,,,,,,,,,,,,,,,,,,,,,,,,,,,,,,,,,,,,,,,,,,,,,,,,,,,,,,,,,,,,,,,,,,,,,,,,,,,,,,,,,,,,,,,,,,,,,,,,,,,,,,,,,,,,,,,,,,,,,,,,,,
,,,,,,6099331dd68e8681d2c562ca,62c538d5cc76923a56d01cca,2022-07-06_08h25.53.909,Colour_Asymmetry_Pilot,2022.1.3,Win32,59.36127271,62c50e9c1127f2cd403a315f,0,17,17,52,1,threeone,,,,,,,,,,,,,,,,,,,,,,,,,,,,,,,,,,,,,,,,,,,,,,,,,,,,,,,,,,,,,,,,,,,,,,,,,,,,,,,,,,,,,,,,,,,,,,,,,,,,,,,,,,,,,,,,,,,,,,,,,,,,,,,,,,,,,,,,,,,,,,,,,,,,,,,,,,,,,
,,,,,,6099331dd68e8681d2c562ca,62c538d5cc76923a56d01cca,2022-07-06_08h25.53.909,Colour_Asymmetry_Pilot,2022.1.3,Win32,59.36127271,62c50e9c1127f2cd403a315f,0,18,18,148,1,threeone,,,,,,,,,,,,,,,,,,,,,,,,,,,,,,,,,,,,,,,,,,,,,,,,,,,,,,,,,,,,,,,,,,,,,,,,,,,,,,,,,,,,,,,,,,,,,,,,,,,,,,,,,,,,,,,,,,,,,,,,,,,,,,,,,,,,,,,,,,,,,,,,,,,,,,,,,,,,,
,,,,,,6099331dd68e8681d2c562ca,62c538d5cc76923a56d01cca,2022-07-06_08h25.53.909,Colour_Asymmetry_Pilot,2022.1.3,Win32,59.36127271,62c50e9c1127f2cd403a315f,0,19,19,134,1,fourtwo,,,,,,,,,,,,,,,,,,,,,,,,,,,,,,,,,,,,,,,,,,,,,,,,,,,,,,,,,,,,,,,,,,,,,,,,,,,,,,,,,,,,,,,,,,,,,,,,,,,,,,,,,,,,,,,,,,,,,,,,,,,,,,,,,,,,,,,,,,,,,,,,,,,,,,,,,,,,,
,,,,,,6099331dd68e8681d2c562ca,62c538d5cc76923a56d01cca,2022-07-06_08h25.53.909,Colour_Asymmetry_Pilot,2022.1.3,Win32,59.36127271,62c50e9c1127f2cd403a315f,0,20,20,22,1,fourtwo,,,,,,,,,,,,,,,,,,,,,,,,,,,,,,,,,,,,,,,,,,,,,,,,,,,,,,,,,,,,,,,,,,,,,,,,,,,,,,,,,,,,,,,,,,,,,,,,,,,,,,,,,,,,,,,,,,,,,,,,,,,,,,,,,,,,,,,,,,,,,,,,,,,,,,,,,,,,,
,,,,,,6099331dd68e8681d2c562ca,62c538d5cc76923a56d01cca,2022-07-06_08h25.53.909,Colour_Asymmetry_Pilot,2022.1.3,Win32,59.36127271,62c50e9c1127f2cd403a315f,0,21,21,47,1,fourthree,,,,,,,,,,,,,,,,,,,,,,,,,,,,,,,,,,,,,,,,,,,,,,,,,,,,,,,,,,,,,,,,,,,,,,,,,,,,,,,,,,,,,,,,,,,,,,,,,,,,,,,,,,,,,,,,,,,,,,,,,,,,,,,,,,,,,,,,,,,,,,,,,,,,,,,,,,,,,
,,,,,,6099331dd68e8681d2c562ca,62c538d5cc76923a56d01cca,2022-07-06_08h25.53.909,Colour_Asymmetry_Pilot,2022.1.3,Win32,59.36127271,62c50e9c1127f2cd403a315f,0,22,22,124,1,threeone,,,,,,,,,,,,,,,,,,,,,,,,,,,,,,,,,,,,,,,,,,,,,,,,,,,,,,,,,,,,,,,,,,,,,,,,,,,,,,,,,,,,,,,,,,,,,,,,,,,,,,,,,,,,,,,,,,,,,,,,,,,,,,,,,,,,,,,,,,,,,,,,,,,,,,,,,,,,,
,,,,,,6099331dd68e8681d2c562ca,62c538d5cc76923a56d01cca,2022-07-06_08h25.53.909,Colour_Asymmetry_Pilot,2022.1.3,Win32,59.36127271,62c50e9c1127f2cd403a315f,0,23,23,94,1,fourtwo,,,,,,,,,,,,,,,,,,,,,,,,,,,,,,,,,,,,,,,,,,,,,,,,,,,,,,,,,,,,,,,,,,,,,,,,,,,,,,,,,,,,,,,,,,,,,,,,,,,,,,,,,,,,,,,,,,,,,,,,,,,,,,,,,,,,,,,,,,,,,,,,,,,,,,,,,,,,,
,,,,,,6099331dd68e8681d2c562ca,62c538d5cc76923a56d01cca,2022-07-06_08h25.53.909,Colour_Asymmetry_Pilot,2022.1.3,Win32,59.36127271,62c50e9c1127f2cd403a315f,0,24,24,112,1,onetwo,,,,,,,,,,,,,,,,,,,,,,,,,,,,,,,,,,,,,,,,,,,,,,,,,,,,,,,,,,,,,,,,,,,,,,,,,,,,,,,,,,,,,,,,,,,,,,,,,,,,,,,,,,,,,,,,,,,,,,,,,,,,,,,,,,,,,,,,,,,,,,,,,,,,,,,,,,,,,
,,,,,,6099331dd68e8681d2c562ca,62c538d5cc76923a56d01cca,2022-07-06_08h25.53.909,Colour_Asymmetry_Pilot,2022.1.3,Win32,59.36127271,62c50e9c1127f2cd403a315f,0,25,25,80,1,onetwo,,,,,,,,,,,,,,,,,,,,,,,,,,,,,,,,,,,,,,,,,,,,,,,,,,,,,,,,,,,,,,,,,,,,,,,,,,,,,,,,,,,,,,,,,,,,,,,,,,,,,,,,,,,,,,,,,,,,,,,,,,,,,,,,,,,,,,,,,,,,,,,,,,,,,,,,,,,,,
,,,,,,6099331dd68e8681d2c562ca,62c538d5cc76923a56d01cca,2022-07-06_08h25.53.909,Colour_Asymmetry_Pilot,2022.1.3,Win32,59.36127271,62c50e9c1127f2cd403a315f,0,26,26,89,1,onethree,,,,,,,,,,,,,,,,,,,,,,,,,,,,,,,,,,,,,,,,,,,,,,,,,,,,,,,,,,,,,,,,,,,,,,,,,,,,,,,,,,,,,,,,,,,,,,,,,,,,,,,,,,,,,,,,,,,,,,,,,,,,,,,,,,,,,,,,,,,,,,,,,,,,,,,,,,,,,
,,,,,,6099331dd68e8681d2c562ca,62c538d5cc76923a56d01cca,2022-07-06_08h25.53.909,Colour_Asymmetry_Pilot,2022.1.3,Win32,59.36127271,62c50e9c1127f2cd403a315f,0,27,27,61,1,threefour,,,,,,,,,,,,,,,,,,,,,,,,,,,,,,,,,,,,,,,,,,,,,,,,,,,,,,,,,,,,,,,,,,,,,,,,,,,,,,,,,,,,,,,,,,,,,,,,,,,,,,,,,,,,,,,,,,,,,,,,,,,,,,,,,,,,,,,,,,,,,,,,,,,,,,,,,,,,,
,,,,,,6099331dd68e8681d2c562ca,62c538d5cc76923a56d01cca,2022-07-06_08h25.53.909,Colour_Asymmetry_Pilot,2022.1.3,Win32,59.36127271,62c50e9c1127f2cd403a315f,0,28,28,77,1,threefour,,,,,,,,,,,,,,,,,,,,,,,,,,,,,,,,,,,,,,,,,,,,,,,,,,,,,,,,,,,,,,,,,,,,,,,,,,,,,,,,,,,,,,,,,,,,,,,,,,,,,,,,,,,,,,,,,,,,,,,,,,,,,,,,,,,,,,,,,,,,,,,,,,,,,,,,,,,,,
,,,,,,6099331dd68e8681d2c562ca,62c538d5cc76923a56d01cca,2022-07-06_08h25.53.909,Colour_Asymmetry_Pilot,2022.1.3,Win32,59.36127271,62c50e9c1127f2cd403a315f,0,29,29,5,1,threefour,,,,,,,,,,,,,,,,,,,,,,,,,,,,,,,,,,,,,,,,,,,,,,,,,,,,,,,,,,,,,,,,,,,,,,,,,,,,,,,,,,,,,,,,,,,,,,,,,,,,,,,,,,,,,,,,,,,,,,,,,,,,,,,,,,,,,,,,,,,,,,,,,,,,,,,,,,,,,
,,,,,,6099331dd68e8681d2c562ca,62c538d5cc76923a56d01cca,2022-07-06_08h25.53.909,Colour_Asymmetry_Pilot,2022.1.3,Win32,59.36127271,62c50e9c1127f2cd403a315f,0,30,30,132,1,threeone,,,,,,,,,,,,,,,,,,,,,,,,,,,,,,,,,,,,,,,,,,,,,,,,,,,,,,,,,,,,,,,,,,,,,,,,,,,,,,,,,,,,,,,,,,,,,,,,,,,,,,,,,,,,,,,,,,,,,,,,,,,,,,,,,,,,,,,,,,,,,,,,,,,,,,,,,,,,,
,,,,,,6099331dd68e8681d2c562ca,62c538d5cc76923a56d01cca,2022-07-06_08h25.53.909,Colour_Asymmetry_Pilot,2022.1.3,Win32,59.36127271,62c50e9c1127f2cd403a315f,0,31,31,54,1,fourtwo,,,,,,,,,,,,,,,,,,,,,,,,,,,,,,,,,,,,,,,,,,,,,,,,,,,,,,,,,,,,,,,,,,,,,,,,,,,,,,,,,,,,,,,,,,,,,,,,,,,,,,,,,,,,,,,,,,,,,,,,,,,,,,,,,,,,,,,,,,,,,,,,,,,,,,,,,,,,,
,,,,,,6099331dd68e8681d2c562ca,62c538d5cc76923a56d01cca,2022-07-06_08h25.53.909,Colour_Asymmetry_Pilot,2022.1.3,Win32,59.36127271,62c50e9c1127f2cd403a315f,0,32,32,51,1,twofour,,,,,,,,,,,,,,,,,,,,,,,,,,,,,,,,,,,,,,,,,,,,,,,,,,,,,,,,,,,,,,,,,,,,,,,,,,,,,,,,,,,,,,,,,,,,,,,,,,,,,,,,,,,,,,,,,,,,,,,,,,,,,,,,,,,,,,,,,,,,,,,,,,,,,,,,,,,,,
,,,,,,6099331dd68e8681d2c562ca,62c538d5cc76923a56d01cca,2022-07-06_08h25.53.909,Colour_Asymmetry_Pilot,2022.1.3,Win32,59.36127271,62c50e9c1127f2cd403a315f,0,33,33,7,1,fourthree,,,,,,,,,,,,,,,,,,,,,,,,,,,,,,,,,,,,,,,,,,,,,,,,,,,,,,,,,,,,,,,,,,,,,,,,,,,,,,,,,,,,,,,,,,,,,,,,,,,,,,,,,,,,,,,,,,,,,,,,,,,,,,,,,,,,,,,,,,,,,,,,,,,,,,,,,,,,,
,,,,,,6099331dd68e8681d2c562ca,62c538d5cc76923a56d01cca,2022-07-06_08h25.53.909,Colour_Asymmetry_Pilot,2022.1.3,Win32,59.36127271,62c50e9c1127f2cd403a315f,0,34,34,69,1,threefour,,,,,,,,,,,,,,,,,,,,,,,,,,,,,,,,,,,,,,,,,,,,,,,,,,,,,,,,,,,,,,,,,,,,,,,,,,,,,,,,,,,,,,,,,,,,,,,,,,,,,,,,,,,,,,,,,,,,,,,,,,,,,,,,,,,,,,,,,,,,,,,,,,,,,,,,,,,,,
,,,,,,6099331dd68e8681d2c562ca,62c538d5cc76923a56d01cca,2022-07-06_08h25.53.909,Colour_Asymmetry_Pilot,2022.1.3,Win32,59.36127271,62c50e9c1127f2cd403a315f,0,35,35,150,1,fourtwo,,,,,,,,,,,,,,,,,,,,,,,,,,,,,,,,,,,,,,,,,,,,,,,,,,,,,,,,,,,,,,,,,,,,,,,,,,,,,,,,,,,,,,,,,,,,,,,,,,,,,,,,,,,,,,,,,,,,,,,,,,,,,,,,,,,,,,,,,,,,,,,,,,,,,,,,,,,,,
,,,,,,6099331dd68e8681d2c562ca,62c538d5cc76923a56d01cca,2022-07-06_08h25.53.909,Colour_Asymmetry_Pilot,2022.1.3,Win32,59.36127271,62c50e9c1127f2cd403a315f,0,36,36,34,1,twoone,,,,,,,,,,,,,,,,,,,,,,,,,,,,,,,,,,,,,,,,,,,,,,,,,,,,,,,,,,,,,,,,,,,,,,,,,,,,,,,,,,,,,,,,,,,,,,,,,,,,,,,,,,,,,,,,,,,,,,,,,,,,,,,,,,,,,,,,,,,,,,,,,,,,,,,,,,,,,
,,,,,,6099331dd68e8681d2c562ca,62c538d5cc76923a56d01cca,2022-07-06_08h25.53.909,Colour_Asymmetry_Pilot,2022.1.3,Win32,59.36127271,62c50e9c1127f2cd403a315f,0,37,37,154,1,twoone,,,,,,,,,,,,,,,,,,,,,,,,,,,,,,,,,,,,,,,,,,,,,,,,,,,,,,,,,,,,,,,,,,,,,,,,,,,,,,,,,,,,,,,,,,,,,,,,,,,,,,,,,,,,,,,,,,,,,,,,,,,,,,,,,,,,,,,,,,,,,,,,,,,,,,,,,,,,,
,,,,,,6099331dd68e8681d2c562ca,62c538d5cc76923a56d01cca,2022-07-06_08h25.53.909,Colour_Asymmetry_Pilot,2022.1.3,Win32,59.36127271,62c50e9c1127f2cd403a315f,0,38,38,115,1,twofour,,,,,,,,,,,,,,,,,,,,,,,,,,,,,,,,,,,,,,,,,,,,,,,,,,,,,,,,,,,,,,,,,,,,,,,,,,,,,,,,,,,,,,,,,,,,,,,,,,,,,,,,,,,,,,,,,,,,,,,,,,,,,,,,,,,,,,,,,,,,,,,,,,,,,,,,,,,,,
,,,,,,6099331dd68e8681d2c562ca,62c538d5cc76923a56d01cca,2022-07-06_08h25.53.909,Colour_Asymmetry_Pilot,2022.1.3,Win32,59.36127271,62c50e9c1127f2cd403a315f,0,39,39,6,1,fourtwo,,,,,,,,,,,,,,,,,,,,,,,,,,,,,,,,,,,,,,,,,,,,,,,,,,,,,,,,,,,,,,,,,,,,,,,,,,,,,,,,,,,,,,,,,,,,,,,,,,,,,,,,,,,,,,,,,,,,,,,,,,,,,,,,,,,,,,,,,,,,,,,,,,,,,,,,,,,,,
,,,,,,6099331dd68e8681d2c562ca,62c538d5cc76923a56d01cca,2022-07-06_08h25.53.909,Colour_Asymmetry_Pilot,2022.1.3,Win32,59.36127271,62c50e9c1127f2cd403a315f,0,40,40,97,1,onethree,,,,,,,,,,,,,,,,,,,,,,,,,,,,,,,,,,,,,,,,,,,,,,,,,,,,,,,,,,,,,,,,,,,,,,,,,,,,,,,,,,,,,,,,,,,,,,,,,,,,,,,,,,,,,,,,,,,,,,,,,,,,,,,,,,,,,,,,,,,,,,,,,,,,,,,,,,,,,
,,,,,,6099331dd68e8681d2c562ca,62c538d5cc76923a56d01cca,2022-07-06_08h25.53.909,Colour_Asymmetry_Pilot,2022.1.3,Win32,59.36127271,62c50e9c1127f2cd403a315f,0,41,41,14,1,fourtwo,,,,,,,,,,,,,,,,,,,,,,,,,,,,,,,,,,,,,,,,,,,,,,,,,,,,,,,,,,,,,,,,,,,,,,,,,,,,,,,,,,,,,,,,,,,,,,,,,,,,,,,,,,,,,,,,,,,,,,,,,,,,,,,,,,,,,,,,,,,,,,,,,,,,,,,,,,,,,
,,,,,,6099331dd68e8681d2c562ca,62c538d5cc76923a56d01cca,2022-07-06_08h25.53.909,Colour_Asymmetry_Pilot,2022.1.3,Win32,59.36127271,62c50e9c1127f2cd403a315f,0,42,42,103,1,fourthree,,,,,,,,,,,,,,,,,,,,,,,,,,,,,,,,,,,,,,,,,,,,,,,,,,,,,,,,,,,,,,,,,,,,,,,,,,,,,,,,,,,,,,,,,,,,,,,,,,,,,,,,,,,,,,,,,,,,,,,,,,,,,,,,,,,,,,,,,,,,,,,,,,,,,,,,,,,,,
,,,,,,6099331dd68e8681d2c562ca,62c538d5cc76923a56d01cca,2022-07-06_08h25.53.909,Colour_Asymmetry_Pilot,2022.1.3,Win32,59.36127271,62c50e9c1127f2cd403a315f,0,43,43,74,1,twoone,,,,,,,,,,,,,,,,,,,,,,,,,,,,,,,,,,,,,,,,,,,,,,,,,,,,,,,,,,,,,,,,,,,,,,,,,,,,,,,,,,,,,,,,,,,,,,,,,,,,,,,,,,,,,,,,,,,,,,,,,,,,,,,,,,,,,,,,,,,,,,,,,,,,,,,,,,,,,
,,,,,,6099331dd68e8681d2c562ca,62c538d5cc76923a56d01cca,2022-07-06_08h25.53.909,Colour_Asymmetry_Pilot,2022.1.3,Win32,59.36127271,62c50e9c1127f2cd403a315f,0,44,44,152,1,onetwo,,,,,,,,,,,,,,,,,,,,,,,,,,,,,,,,,,,,,,,,,,,,,,,,,,,,,,,,,,,,,,,,,,,,,,,,,,,,,,,,,,,,,,,,,,,,,,,,,,,,,,,,,,,,,,,,,,,,,,,,,,,,,,,,,,,,,,,,,,,,,,,,,,,,,,,,,,,,,
,,,,,,6099331dd68e8681d2c562ca,62c538d5cc76923a56d01cca,2022-07-06_08h25.53.909,Colour_Asymmetry_Pilot,2022.1.3,Win32,59.36127271,62c50e9c1127f2cd403a315f,0,45,45,38,1,fourtwo,,,,,,,,,,,,,,,,,,,,,,,,,,,,,,,,,,,,,,,,,,,,,,,,,,,,,,,,,,,,,,,,,,,,,,,,,,,,,,,,,,,,,,,,,,,,,,,,,,,,,,,,,,,,,,,,,,,,,,,,,,,,,,,,,,,,,,,,,,,,,,,,,,,,,,,,,,,,,
,,,,,,6099331dd68e8681d2c562ca,62c538d5cc76923a56d01cca,2022-07-06_08h25.53.909,Colour_Asymmetry_Pilot,2022.1.3,Win32,59.36127271,62c50e9c1127f2cd403a315f,0,46,46,68,1,threeone,,,,,,,,,,,,,,,,,,,,,,,,,,,,,,,,,,,,,,,,,,,,,,,,,,,,,,,,,,,,,,,,,,,,,,,,,,,,,,,,,,,,,,,,,,,,,,,,,,,,,,,,,,,,,,,,,,,,,,,,,,,,,,,,,,,,,,,,,,,,,,,,,,,,,,,,,,,,,
,,,,,,6099331dd68e8681d2c562ca,62c538d5cc76923a56d01cca,2022-07-06_08h25.53.909,Colour_Asymmetry_Pilot,2022.1.3,Win32,59.36127271,62c50e9c1127f2cd403a315f,0,47,47,85,1,threefour,,,,,,,,,,,,,,,,,,,,,,,,,,,,,,,,,,,,,,,,,,,,,,,,,,,,,,,,,,,,,,,,,,,,,,,,,,,,,,,,,,,,,,,,,,,,,,,,,,,,,,,,,,,,,,,,,,,,,,,,,,,,,,,,,,,,,,,,,,,,,,,,,,,,,,,,,,,,,
,,,,,,6099331dd68e8681d2c562ca,62c538d5cc76923a56d01cca,2022-07-06_08h25.53.909,Colour_Asymmetry_Pilot,2022.1.3,Win32,59.36127271,62c50e9c1127f2cd403a315f,0,48,48,20,1,threeone,,,,,,,,,,,,,,,,,,,,,,,,,,,,,,,,,,,,,,,,,,,,,,,,,,,,,,,,,,,,,,,,,,,,,,,,,,,,,,,,,,,,,,,,,,,,,,,,,,,,,,,,,,,,,,,,,,,,,,,,,,,,,,,,,,,,,,,,,,,,,,,,,,,,,,,,,,,,,
,,,,,,6099331dd68e8681d2c562ca,62c538d5cc76923a56d01cca,2022-07-06_08h25.53.909,Colour_Asymmetry_Pilot,2022.1.3,Win32,59.36127271,62c50e9c1127f2cd403a315f,0,49,49,79,1,fourthree,,,,,,,,,,,,,,,,,,,,,,,,,,,,,,,,,,,,,,,,,,,,,,,,,,,,,,,,,,,,,,,,,,,,,,,,,,,,,,,,,,,,,,,,,,,,,,,,,,,,,,,,,,,,,,,,,,,,,,,,,,,,,,,,,,,,,,,,,,,,,,,,,,,,,,,,,,,,,
,,,,,,6099331dd68e8681d2c562ca,62c538d5cc76923a56d01cca,2022-07-06_08h25.53.909,Colour_Asymmetry_Pilot,2022.1.3,Win32,59.36127271,62c50e9c1127f2cd403a315f,0,50,50,101,1,threefour,,,,,,,,,,,,,,,,,,,,,,,,,,,,,,,,,,,,,,,,,,,,,,,,,,,,,,,,,,,,,,,,,,,,,,,,,,,,,,,,,,,,,,,,,,,,,,,,,,,,,,,,,,,,,,,,,,,,,,,,,,,,,,,,,,,,,,,,,,,,,,,,,,,,,,,,,,,,,
,,,,,,6099331dd68e8681d2c562ca,62c538d5cc76923a56d01cca,2022-07-06_08h25.53.909,Colour_Asymmetry_Pilot,2022.1.3,Win32,59.36127271,62c50e9c1127f2cd403a315f,0,51,51,75,1,twofour,,,,,,,,,,,,,,,,,,,,,,,,,,,,,,,,,,,,,,,,,,,,,,,,,,,,,,,,,,,,,,,,,,,,,,,,,,,,,,,,,,,,,,,,,,,,,,,,,,,,,,,,,,,,,,,,,,,,,,,,,,,,,,,,,,,,,,,,,,,,,,,,,,,,,,,,,,,,,
,,,,,,6099331dd68e8681d2c562ca,62c538d5cc76923a56d01cca,2022-07-06_08h25.53.909,Colour_Asymmetry_Pilot,2022.1.3,Win32,59.36127271,62c50e9c1127f2cd403a315f,0,52,52,140,1,threeone,,,,,,,,,,,,,,,,,,,,,,,,,,,,,,,,,,,,,,,,,,,,,,,,,,,,,,,,,,,,,,,,,,,,,,,,,,,,,,,,,,,,,,,,,,,,,,,,,,,,,,,,,,,,,,,,,,,,,,,,,,,,,,,,,,,,,,,,,,,,,,,,,,,,,,,,,,,,,
,,,,,,6099331dd68e8681d2c562ca,62c538d5cc76923a56d01cca,2022-07-06_08h25.53.909,Colour_Asymmetry_Pilot,2022.1.3,Win32,59.36127271,62c50e9c1127f2cd403a315f,0,53,53,39,1,fourthree,,,,,,,,,,,,,,,,,,,,,,,,,,,,,,,,,,,,,,,,,,,,,,,,,,,,,,,,,,,,,,,,,,,,,,,,,,,,,,,,,,,,,,,,,,,,,,,,,,,,,,,,,,,,,,,,,,,,,,,,,,,,,,,,,,,,,,,,,,,,,,,,,,,,,,,,,,,,,
,,,,,,6099331dd68e8681d2c562ca,62c538d5cc76923a56d01cca,2022-07-06_08h25.53.909,Colour_Asymmetry_Pilot,2022.1.3,Win32,59.36127271,62c50e9c1127f2cd403a315f,0,54,54,119,1,fourthree,,,,,,,,,,,,,,,,,,,,,,,,,,,,,,,,,,,,,,,,,,,,,,,,,,,,,,,,,,,,,,,,,,,,,,,,,,,,,,,,,,,,,,,,,,,,,,,,,,,,,,,,,,,,,,,,,,,,,,,,,,,,,,,,,,,,,,,,,,,,,,,,,,,,,,,,,,,,,
,,,,,,6099331dd68e8681d2c562ca,62c538d5cc76923a56d01cca,2022-07-06_08h25.53.909,Colour_Asymmetry_Pilot,2022.1.3,Win32,59.36127271,62c50e9c1127f2cd403a315f,0,55,55,58,1,twoone,,,,,,,,,,,,,,,,,,,,,,,,,,,,,,,,,,,,,,,,,,,,,,,,,,,,,,,,,,,,,,,,,,,,,,,,,,,,,,,,,,,,,,,,,,,,,,,,,,,,,,,,,,,,,,,,,,,,,,,,,,,,,,,,,,,,,,,,,,,,,,,,,,,,,,,,,,,,,
,,,,,,6099331dd68e8681d2c562ca,62c538d5cc76923a56d01cca,2022-07-06_08h25.53.909,Colour_Asymmetry_Pilot,2022.1.3,Win32,59.36127271,62c50e9c1127f2cd403a315f,0,56,56,16,1,onetwo,,,,,,,,,,,,,,,,,,,,,,,,,,,,,,,,,,,,,,,,,,,,,,,,,,,,,,,,,,,,,,,,,,,,,,,,,,,,,,,,,,,,,,,,,,,,,,,,,,,,,,,,,,,,,,,,,,,,,,,,,,,,,,,,,,,,,,,,,,,,,,,,,,,,,,,,,,,,,
,,,,,,6099331dd68e8681d2c562ca,62c538d5cc76923a56d01cca,2022-07-06_08h25.53.909,Colour_Asymmetry_Pilot,2022.1.3,Win32,59.36127271,62c50e9c1127f2cd403a315f,0,57,57,105,1,onethree,,,,,,,,,,,,,,,,,,,,,,,,,,,,,,,,,,,,,,,,,,,,,,,,,,,,,,,,,,,,,,,,,,,,,,,,,,,,,,,,,,,,,,,,,,,,,,,,,,,,,,,,,,,,,,,,,,,,,,,,,,,,,,,,,,,,,,,,,,,,,,,,,,,,,,,,,,,,,
,,,,,,6099331dd68e8681d2c562ca,62c538d5cc76923a56d01cca,2022-07-06_08h25.53.909,Colour_Asymmetry_Pilot,2022.1.3,Win32,59.36127271,62c50e9c1127f2cd403a315f,0,58,58,128,1,onetwo,,,,,,,,,,,,,,,,,,,,,,,,,,,,,,,,,,,,,,,,,,,,,,,,,,,,,,,,,,,,,,,,,,,,,,,,,,,,,,,,,,,,,,,,,,,,,,,,,,,,,,,,,,,,,,,,,,,,,,,,,,,,,,,,,,,,,,,,,,,,,,,,,,,,,,,,,,,,,
,,,,,,6099331dd68e8681d2c562ca,62c538d5cc76923a56d01cca,2022-07-06_08h25.53.909,Colour_Asymmetry_Pilot,2022.1.3,Win32,59.36127271,62c50e9c1127f2cd403a315f,0,59,59,29,1,threefour,,,,,,,,,,,,,,,,,,,,,,,,,,,,,,,,,,,,,,,,,,,,,,,,,,,,,,,,,,,,,,,,,,,,,,,,,,,,,,,,,,,,,,,,,,,,,,,,,,,,,,,,,,,,,,,,,,,,,,,,,,,,,,,,,,,,,,,,,,,,,,,,,,,,,,,,,,,,,
,,,,,,6099331dd68e8681d2c562ca,62c538d5cc76923a56d01cca,2022-07-06_08h25.53.909,Colour_Asymmetry_Pilot,2022.1.3,Win32,59.36127271,62c50e9c1127f2cd403a315f,0,60,60,109,1,threefour,,,,,,,,,,,,,,,,,,,,,,,,,,,,,,,,,,,,,,,,,,,,,,,,,,,,,,,,,,,,,,,,,,,,,,,,,,,,,,,,,,,,,,,,,,,,,,,,,,,,,,,,,,,,,,,,,,,,,,,,,,,,,,,,,,,,,,,,,,,,,,,,,,,,,,,,,,,,,
,,,,,,6099331dd68e8681d2c562ca,62c538d5cc76923a56d01cca,2022-07-06_08h25.53.909,Colour_Asymmetry_Pilot,2022.1.3,Win32,59.36127271,62c50e9c1127f2cd403a315f,0,61,61,24,1,onetwo,,,,,,,,,,,,,,,,,,,,,,,,,,,,,,,,,,,,,,,,,,,,,,,,,,,,,,,,,,,,,,,,,,,,,,,,,,,,,,,,,,,,,,,,,,,,,,,,,,,,,,,,,,,,,,,,,,,,,,,,,,,,,,,,,,,,,,,,,,,,,,,,,,,,,,,,,,,,,
,,,,,,6099331dd68e8681d2c562ca,62c538d5cc76923a56d01cca,2022-07-06_08h25.53.909,Colour_Asymmetry_Pilot,2022.1.3,Win32,59.36127271,62c50e9c1127f2cd403a315f,0,62,62,50,1,twoone,,,,,,,,,,,,,,,,,,,,,,,,,,,,,,,,,,,,,,,,,,,,,,,,,,,,,,,,,,,,,,,,,,,,,,,,,,,,,,,,,,,,,,,,,,,,,,,,,,,,,,,,,,,,,,,,,,,,,,,,,,,,,,,,,,,,,,,,,,,,,,,,,,,,,,,,,,,,,
,,,,,,6099331dd68e8681d2c562ca,62c538d5cc76923a56d01cca,2022-07-06_08h25.53.909,Colour_Asymmetry_Pilot,2022.1.3,Win32,59.36127271,62c50e9c1127f2cd403a315f,0,63,63,138,1,twoone,,,,,,,,,,,,,,,,,,,,,,,,,,,,,,,,,,,,,,,,,,,,,,,,,,,,,,,,,,,,,,,,,,,,,,,,,,,,,,,,,,,,,,,,,,,,,,,,,,,,,,,,,,,,,,,,,,,,,,,,,,,,,,,,,,,,,,,,,,,,,,,,,,,,,,,,,,,,,
,,,,,,6099331dd68e8681d2c562ca,62c538d5cc76923a56d01cca,2022-07-06_08h25.53.909,Colour_Asymmetry_Pilot,2022.1.3,Win32,59.36127271,62c50e9c1127f2cd403a315f,0,64,64,157,1,threefour,,,,,,,,,,,,,,,,,,,,,,,,,,,,,,,,,,,,,,,,,,,,,,,,,,,,,,,,,,,,,,,,,,,,,,,,,,,,,,,,,,,,,,,,,,,,,,,,,,,,,,,,,,,,,,,,,,,,,,,,,,,,,,,,,,,,,,,,,,,,,,,,,,,,,,,,,,,,,
,,,,,,6099331dd68e8681d2c562ca,62c538d5cc76923a56d01cca,2022-07-06_08h25.53.909,Colour_Asymmetry_Pilot,2022.1.3,Win32,59.36127271,62c50e9c1127f2cd403a315f,0,65,65,11,1,twofour,,,,,,,,,,,,,,,,,,,,,,,,,,,,,,,,,,,,,,,,,,,,,,,,,,,,,,,,,,,,,,,,,,,,,,,,,,,,,,,,,,,,,,,,,,,,,,,,,,,,,,,,,,,,,,,,,,,,,,,,,,,,,,,,,,,,,,,,,,,,,,,,,,,,,,,,,,,,,
,,,,,,6099331dd68e8681d2c562ca,62c538d5cc76923a56d01cca,2022-07-06_08h25.53.909,Colour_Asymmetry_Pilot,2022.1.3,Win32,59.36127271,62c50e9c1127f2cd403a315f,0,66,66,125,1,threefour,,,,,,,,,,,,,,,,,,,,,,,,,,,,,,,,,,,,,,,,,,,,,,,,,,,,,,,,,,,,,,,,,,,,,,,,,,,,,,,,,,,,,,,,,,,,,,,,,,,,,,,,,,,,,,,,,,,,,,,,,,,,,,,,,,,,,,,,,,,,,,,,,,,,,,,,,,,,,
,,,,,,6099331dd68e8681d2c562ca,62c538d5cc76923a56d01cca,2022-07-06_08h25.53.909,Colour_Asymmetry_Pilot,2022.1.3,Win32,59.36127271,62c50e9c1127f2cd403a315f,0,67,67,95,1,fourthree,,,,,,,,,,,,,,,,,,,,,,,,,,,,,,,,,,,,,,,,,,,,,,,,,,,,,,,,,,,,,,,,,,,,,,,,,,,,,,,,,,,,,,,,,,,,,,,,,,,,,,,,,,,,,,,,,,,,,,,,,,,,,,,,,,,,,,,,,,,,,,,,,,,,,,,,,,,,,
,,,,,,6099331dd68e8681d2c562ca,62c538d5cc76923a56d01cca,2022-07-06_08h25.53.909,Colour_Asymmetry_Pilot,2022.1.3,Win32,59.36127271,62c50e9c1127f2cd403a315f,0,68,68,93,1,threefour,,,,,,,,,,,,,,,,,,,,,,,,,,,,,,,,,,,,,,,,,,,,,,,,,,,,,,,,,,,,,,,,,,,,,,,,,,,,,,,,,,,,,,,,,,,,,,,,,,,,,,,,,,,,,,,,,,,,,,,,,,,,,,,,,,,,,,,,,,,,,,,,,,,,,,,,,,,,,
,,,,,,6099331dd68e8681d2c562ca,62c538d5cc76923a56d01cca,2022-07-06_08h25.53.909,Colour_Asymmetry_Pilot,2022.1.3,Win32,59.36127271,62c50e9c1127f2cd403a315f,0,69,69,158,1,fourtwo,,,,,,,,,,,,,,,,,,,,,,,,,,,,,,,,,,,,,,,,,,,,,,,,,,,,,,,,,,,,,,,,,,,,,,,,,,,,,,,,,,,,,,,,,,,,,,,,,,,,,,,,,,,,,,,,,,,,,,,,,,,,,,,,,,,,,,,,,,,,,,,,,,,,,,,,,,,,,
,,,,,,6099331dd68e8681d2c562ca,62c538d5cc76923a56d01cca,2022-07-06_08h25.53.909,Colour_Asymmetry_Pilot,2022.1.3,Win32,59.36127271,62c50e9c1127f2cd403a315f,0,70,70,127,1,fourthree,,,,,,,,,,,,,,,,,,,,,,,,,,,,,,,,,,,,,,,,,,,,,,,,,,,,,,,,,,,,,,,,,,,,,,,,,,,,,,,,,,,,,,,,,,,,,,,,,,,,,,,,,,,,,,,,,,,,,,,,,,,,,,,,,,,,,,,,,,,,,,,,,,,,,,,,,,,,,
,,,,,,6099331dd68e8681d2c562ca,62c538d5cc76923a56d01cca,2022-07-06_08h25.53.909,Colour_Asymmetry_Pilot,2022.1.3,Win32,59.36127271,62c50e9c1127f2cd403a315f,0,71,71,143,1,fourthree,,,,,,,,,,,,,,,,,,,,,,,,,,,,,,,,,,,,,,,,,,,,,,,,,,,,,,,,,,,,,,,,,,,,,,,,,,,,,,,,,,,,,,,,,,,,,,,,,,,,,,,,,,,,,,,,,,,,,,,,,,,,,,,,,,,,,,,,,,,,,,,,,,,,,,,,,,,,,
,,,,,,6099331dd68e8681d2c562ca,62c538d5cc76923a56d01cca,2022-07-06_08h25.53.909,Colour_Asymmetry_Pilot,2022.1.3,Win32,59.36127271,62c50e9c1127f2cd403a315f,0,72,72,129,1,onethree,,,,,,,,,,,,,,,,,,,,,,,,,,,,,,,,,,,,,,,,,,,,,,,,,,,,,,,,,,,,,,,,,,,,,,,,,,,,,,,,,,,,,,,,,,,,,,,,,,,,,,,,,,,,,,,,,,,,,,,,,,,,,,,,,,,,,,,,,,,,,,,,,,,,,,,,,,,,,
,,,,,,6099331dd68e8681d2c562ca,62c538d5cc76923a56d01cca,2022-07-06_08h25.53.909,Colour_Asymmetry_Pilot,2022.1.3,Win32,59.36127271,62c50e9c1127f2cd403a315f,0,73,73,28,1,threeone,,,,,,,,,,,,,,,,,,,,,,,,,,,,,,,,,,,,,,,,,,,,,,,,,,,,,,,,,,,,,,,,,,,,,,,,,,,,,,,,,,,,,,,,,,,,,,,,,,,,,,,,,,,,,,,,,,,,,,,,,,,,,,,,,,,,,,,,,,,,,,,,,,,,,,,,,,,,,
,,,,,,6099331dd68e8681d2c562ca,62c538d5cc76923a56d01cca,2022-07-06_08h25.53.909,Colour_Asymmetry_Pilot,2022.1.3,Win32,59.36127271,62c50e9c1127f2cd403a315f,0,74,74,30,1,fourtwo,,,,,,,,,,,,,,,,,,,,,,,,,,,,,,,,,,,,,,,,,,,,,,,,,,,,,,,,,,,,,,,,,,,,,,,,,,,,,,,,,,,,,,,,,,,,,,,,,,,,,,,,,,,,,,,,,,,,,,,,,,,,,,,,,,,,,,,,,,,,,,,,,,,,,,,,,,,,,
,,,,,,6099331dd68e8681d2c562ca,62c538d5cc76923a56d01cca,2022-07-06_08h25.53.909,Colour_Asymmetry_Pilot,2022.1.3,Win32,59.36127271,62c50e9c1127f2cd403a315f,0,75,75,62,1,fourtwo,,,,,,,,,,,,,,,,,,,,,,,,,,,,,,,,,,,,,,,,,,,,,,,,,,,,,,,,,,,,,,,,,,,,,,,,,,,,,,,,,,,,,,,,,,,,,,,,,,,,,,,,,,,,,,,,,,,,,,,,,,,,,,,,,,,,,,,,,,,,,,,,,,,,,,,,,,,,,
,,,,,,6099331dd68e8681d2c562ca,62c538d5cc76923a56d01cca,2022-07-06_08h25.53.909,Colour_Asymmetry_Pilot,2022.1.3,Win32,59.36127271,62c50e9c1127f2cd403a315f,0,76,76,3,1,twofour,,,,,,,,,,,,,,,,,,,,,,,,,,,,,,,,,,,,,,,,,,,,,,,,,,,,,,,,,,,,,,,,,,,,,,,,,,,,,,,,,,,,,,,,,,,,,,,,,,,,,,,,,,,,,,,,,,,,,,,,,,,,,,,,,,,,,,,,,,,,,,,,,,,,,,,,,,,,,
,,,,,,6099331dd68e8681d2c562ca,62c538d5cc76923a56d01cca,2022-07-06_08h25.53.909,Colour_Asymmetry_Pilot,2022.1.3,Win32,59.36127271,62c50e9c1127f2cd403a315f,0,77,77,53,1,threefour,,,,,,,,,,,,,,,,,,,,,,,,,,,,,,,,,,,,,,,,,,,,,,,,,,,,,,,,,,,,,,,,,,,,,,,,,,,,,,,,,,,,,,,,,,,,,,,,,,,,,,,,,,,,,,,,,,,,,,,,,,,,,,,,,,,,,,,,,,,,,,,,,,,,,,,,,,,,,
,,,,,,6099331dd68e8681d2c562ca,62c538d5cc76923a56d01cca,2022-07-06_08h25.53.909,Colour_Asymmetry_Pilot,2022.1.3,Win32,59.36127271,62c50e9c1127f2cd403a315f,0,78,78,83,1,twofour,,,,,,,,,,,,,,,,,,,,,,,,,,,,,,,,,,,,,,,,,,,,,,,,,,,,,,,,,,,,,,,,,,,,,,,,,,,,,,,,,,,,,,,,,,,,,,,,,,,,,,,,,,,,,,,,,,,,,,,,,,,,,,,,,,,,,,,,,,,,,,,,,,,,,,,,,,,,,
,,,,,,6099331dd68e8681d2c562ca,62c538d5cc76923a56d01cca,2022-07-06_08h25.53.909,Colour_Asymmetry_Pilot,2022.1.3,Win32,59.36127271,62c50e9c1127f2cd403a315f,0,79,79,27,1,twofour,,,,,,,,,,,,,,,,,,,,,,,,,,,,,,,,,,,,,,,,,,,,,,,,,,,,,,,,,,,,,,,,,,,,,,,,,,,,,,,,,,,,,,,,,,,,,,,,,,,,,,,,,,,,,,,,,,,,,,,,,,,,,,,,,,,,,,,,,,,,,,,,,,,,,,,,,,,,,
,,,,,,6099331dd68e8681d2c562ca,62c538d5cc76923a56d01cca,2022-07-06_08h25.53.909,Colour_Asymmetry_Pilot,2022.1.3,Win32,59.36127271,62c50e9c1127f2cd403a315f,0,80,80,137,1,onethree,,,,,,,,,,,,,,,,,,,,,,,,,,,,,,,,,,,,,,,,,,,,,,,,,,,,,,,,,,,,,,,,,,,,,,,,,,,,,,,,,,,,,,,,,,,,,,,,,,,,,,,,,,,,,,,,,,,,,,,,,,,,,,,,,,,,,,,,,,,,,,,,,,,,,,,,,,,,,
,,,,,,6099331dd68e8681d2c562ca,62c538d5cc76923a56d01cca,2022-07-06_08h25.53.909,Colour_Asymmetry_Pilot,2022.1.3,Win32,59.36127271,62c50e9c1127f2cd403a315f,0,81,81,48,1,onetwo,,,,,,,,,,,,,,,,,,,,,,,,,,,,,,,,,,,,,,,,,,,,,,,,,,,,,,,,,,,,,,,,,,,,,,,,,,,,,,,,,,,,,,,,,,,,,,,,,,,,,,,,,,,,,,,,,,,,,,,,,,,,,,,,,,,,,,,,,,,,,,,,,,,,,,,,,,,,,
,,,,,,6099331dd68e8681d2c562ca,62c538d5cc76923a56d01cca,2022-07-06_08h25.53.909,Colour_Asymmetry_Pilot,2022.1.3,Win32,59.36127271,62c50e9c1127f2cd403a315f,0,82,82,135,1,fourthree,,,,,,,,,,,,,,,,,,,,,,,,,,,,,,,,,,,,,,,,,,,,,,,,,,,,,,,,,,,,,,,,,,,,,,,,,,,,,,,,,,,,,,,,,,,,,,,,,,,,,,,,,,,,,,,,,,,,,,,,,,,,,,,,,,,,,,,,,,,,,,,,,,,,,,,,,,,,,
,,,,,,6099331dd68e8681d2c562ca,62c538d5cc76923a56d01cca,2022-07-06_08h25.53.909,Colour_Asymmetry_Pilot,2022.1.3,Win32,59.36127271,62c50e9c1127f2cd403a315f,0,83,83,66,1,twoone,,,,,,,,,,,,,,,,,,,,,,,,,,,,,,,,,,,,,,,,,,,,,,,,,,,,,,,,,,,,,,,,,,,,,,,,,,,,,,,,,,,,,,,,,,,,,,,,,,,,,,,,,,,,,,,,,,,,,,,,,,,,,,,,,,,,,,,,,,,,,,,,,,,,,,,,,,,,,
,,,,,,6099331dd68e8681d2c562ca,62c538d5cc76923a56d01cca,2022-07-06_08h25.53.909,Colour_Asymmetry_Pilot,2022.1.3,Win32,59.36127271,62c50e9c1127f2cd403a315f,0,84,84,131,1,twofour,,,,,,,,,,,,,,,,,,,,,,,,,,,,,,,,,,,,,,,,,,,,,,,,,,,,,,,,,,,,,,,,,,,,,,,,,,,,,,,,,,,,,,,,,,,,,,,,,,,,,,,,,,,,,,,,,,,,,,,,,,,,,,,,,,,,,,,,,,,,,,,,,,,,,,,,,,,,,
,,,,,,6099331dd68e8681d2c562ca,62c538d5cc76923a56d01cca,2022-07-06_08h25.53.909,Colour_Asymmetry_Pilot,2022.1.3,Win32,59.36127271,62c50e9c1127f2cd403a315f,0,85,85,96,1,onetwo,,,,,,,,,,,,,,,,,,,,,,,,,,,,,,,,,,,,,,,,,,,,,,,,,,,,,,,,,,,,,,,,,,,,,,,,,,,,,,,,,,,,,,,,,,,,,,,,,,,,,,,,,,,,,,,,,,,,,,,,,,,,,,,,,,,,,,,,,,,,,,,,,,,,,,,,,,,,,
,,,,,,6099331dd68e8681d2c562ca,62c538d5cc76923a56d01cca,2022-07-06_08h25.53.909,Colour_Asymmetry_Pilot,2022.1.3,Win32,59.36127271,62c50e9c1127f2cd403a315f,0,86,86,55,1,fourthree,,,,,,,,,,,,,,,,,,,,,,,,,,,,,,,,,,,,,,,,,,,,,,,,,,,,,,,,,,,,,,,,,,,,,,,,,,,,,,,,,,,,,,,,,,,,,,,,,,,,,,,,,,,,,,,,,,,,,,,,,,,,,,,,,,,,,,,,,,,,,,,,,,,,,,,,,,,,,
,,,,,,6099331dd68e8681d2c562ca,62c538d5cc76923a56d01cca,2022-07-06_08h25.53.909,Colour_Asymmetry_Pilot,2022.1.3,Win32,59.36127271,62c50e9c1127f2cd403a315f,0,87,87,42,1,twoone,,,,,,,,,,,,,,,,,,,,,,,,,,,,,,,,,,,,,,,,,,,,,,,,,,,,,,,,,,,,,,,,,,,,,,,,,,,,,,,,,,,,,,,,,,,,,,,,,,,,,,,,,,,,,,,,,,,,,,,,,,,,,,,,,,,,,,,,,,,,,,,,,,,,,,,,,,,,,
,,,,,,6099331dd68e8681d2c562ca,62c538d5cc76923a56d01cca,2022-07-06_08h25.53.909,Colour_Asymmetry_Pilot,2022.1.3,Win32,59.36127271,62c50e9c1127f2cd403a315f,0,88,88,4,1,threeone,,,,,,,,,,,,,,,,,,,,,,,,,,,,,,,,,,,,,,,,,,,,,,,,,,,,,,,,,,,,,,,,,,,,,,,,,,,,,,,,,,,,,,,,,,,,,,,,,,,,,,,,,,,,,,,,,,,,,,,,,,,,,,,,,,,,,,,,,,,,,,,,,,,,,,,,,,,,,
,,,,,,6099331dd68e8681d2c562ca,62c538d5cc76923a56d01cca,2022-07-06_08h25.53.909,Colour_Asymmetry_Pilot,2022.1.3,Win32,59.36127271,62c50e9c1127f2cd403a315f,0,89,89,33,1,onethree,,,,,,,,,,,,,,,,,,,,,,,,,,,,,,,,,,,,,,,,,,,,,,,,,,,,,,,,,,,,,,,,,,,,,,,,,,,,,,,,,,,,,,,,,,,,,,,,,,,,,,,,,,,,,,,,,,,,,,,,,,,,,,,,,,,,,,,,,,,,,,,,,,,,,,,,,,,,,
,,,,,,6099331dd68e8681d2c562ca,62c538d5cc76923a56d01cca,2022-07-06_08h25.53.909,Colour_Asymmetry_Pilot,2022.1.3,Win32,59.36127271,62c50e9c1127f2cd403a315f,0,90,90,147,1,twofour,,,,,,,,,,,,,,,,,,,,,,,,,,,,,,,,,,,,,,,,,,,,,,,,,,,,,,,,,,,,,,,,,,,,,,,,,,,,,,,,,,,,,,,,,,,,,,,,,,,,,,,,,,,,,,,,,,,,,,,,,,,,,,,,,,,,,,,,,,,,,,,,,,,,,,,,,,,,,
,,,,,,6099331dd68e8681d2c562ca,62c538d5cc76923a56d01cca,2022-07-06_08h25.53.909,Colour_Asymmetry_Pilot,2022.1.3,Win32,59.36127271,62c50e9c1127f2cd403a315f,0,91,91,106,1,twoone,,,,,,,,,,,,,,,,,,,,,,,,,,,,,,,,,,,,,,,,,,,,,,,,,,,,,,,,,,,,,,,,,,,,,,,,,,,,,,,,,,,,,,,,,,,,,,,,,,,,,,,,,,,,,,,,,,,,,,,,,,,,,,,,,,,,,,,,,,,,,,,,,,,,,,,,,,,,,
,,,,,,6099331dd68e8681d2c562ca,62c538d5cc76923a56d01cca,2022-07-06_08h25.53.909,Colour_Asymmetry_Pilot,2022.1.3,Win32,59.36127271,62c50e9c1127f2cd403a315f,0,92,92,49,1,onethree,,,,,,,,,,,,,,,,,,,,,,,,,,,,,,,,,,,,,,,,,,,,,,,,,,,,,,,,,,,,,,,,,,,,,,,,,,,,,,,,,,,,,,,,,,,,,,,,,,,,,,,,,,,,,,,,,,,,,,,,,,,,,,,,,,,,,,,,,,,,,,,,,,,,,,,,,,,,,
,,,,,,6099331dd68e8681d2c562ca,62c538d5cc76923a56d01cca,2022-07-06_08h25.53.909,Colour_Asymmetry_Pilot,2022.1.3,Win32,59.36127271,62c50e9c1127f2cd403a315f,0,93,93,18,1,twoone,,,,,,,,,,,,,,,,,,,,,,,,,,,,,,,,,,,,,,,,,,,,,,,,,,,,,,,,,,,,,,,,,,,,,,,,,,,,,,,,,,,,,,,,,,,,,,,,,,,,,,,,,,,,,,,,,,,,,,,,,,,,,,,,,,,,,,,,,,,,,,,,,,,,,,,,,,,,,
,,,,,,6099331dd68e8681d2c562ca,62c538d5cc76923a56d01cca,2022-07-06_08h25.53.909,Colour_Asymmetry_Pilot,2022.1.3,Win32,59.36127271,62c50e9c1127f2cd403a315f,0,94,94,130,1,twoone,,,,,,,,,,,,,,,,,,,,,,,,,,,,,,,,,,,,,,,,,,,,,,,,,,,,,,,,,,,,,,,,,,,,,,,,,,,,,,,,,,,,,,,,,,,,,,,,,,,,,,,,,,,,,,,,,,,,,,,,,,,,,,,,,,,,,,,,,,,,,,,,,,,,,,,,,,,,,
,,,,,,6099331dd68e8681d2c562ca,62c538d5cc76923a56d01cca,2022-07-06_08h25.53.909,Colour_Asymmetry_Pilot,2022.1.3,Win32,59.36127271,62c50e9c1127f2cd403a315f,0,95,95,144,1,onetwo,,,,,,,,,,,,,,,,,,,,,,,,,,,,,,,,,,,,,,,,,,,,,,,,,,,,,,,,,,,,,,,,,,,,,,,,,,,,,,,,,,,,,,,,,,,,,,,,,,,,,,,,,,,,,,,,,,,,,,,,,,,,,,,,,,,,,,,,,,,,,,,,,,,,,,,,,,,,,
,,,,,,6099331dd68e8681d2c562ca,62c538d5cc76923a56d01cca,2022-07-06_08h25.53.909,Colour_Asymmetry_Pilot,2022.1.3,Win32,59.36127271,62c50e9c1127f2cd403a315f,0,96,96,108,1,threeone,,,,,,,,,,,,,,,,,,,,,,,,,,,,,,,,,,,,,,,,,,,,,,,,,,,,,,,,,,,,,,,,,,,,,,,,,,,,,,,,,,,,,,,,,,,,,,,,,,,,,,,,,,,,,,,,,,,,,,,,,,,,,,,,,,,,,,,,,,,,,,,,,,,,,,,,,,,,,
,,,,,,6099331dd68e8681d2c562ca,62c538d5cc76923a56d01cca,2022-07-06_08h25.53.909,Colour_Asymmetry_Pilot,2022.1.3,Win32,59.36127271,62c50e9c1127f2cd403a315f,0,97,97,64,1,onetwo,,,,,,,,,,,,,,,,,,,,,,,,,,,,,,,,,,,,,,,,,,,,,,,,,,,,,,,,,,,,,,,,,,,,,,,,,,,,,,,,,,,,,,,,,,,,,,,,,,,,,,,,,,,,,,,,,,,,,,,,,,,,,,,,,,,,,,,,,,,,,,,,,,,,,,,,,,,,,
,,,,,,6099331dd68e8681d2c562ca,62c538d5cc76923a56d01cca,2022-07-06_08h25.53.909,Colour_Asymmetry_Pilot,2022.1.3,Win32,59.36127271,62c50e9c1127f2cd403a315f,0,98,98,43,1,twofour,,,,,,,,,,,,,,,,,,,,,,,,,,,,,,,,,,,,,,,,,,,,,,,,,,,,,,,,,,,,,,,,,,,,,,,,,,,,,,,,,,,,,,,,,,,,,,,,,,,,,,,,,,,,,,,,,,,,,,,,,,,,,,,,,,,,,,,,,,,,,,,,,,,,,,,,,,,,,
,,,,,,6099331dd68e8681d2c562ca,62c538d5cc76923a56d01cca,2022-07-06_08h25.53.909,Colour_Asymmetry_Pilot,2022.1.3,Win32,59.36127271,62c50e9c1127f2cd403a315f,0,99,99,99,1,twofour,,,,,,,,,,,,,,,,,,,,,,,,,,,,,,,,,,,,,,,,,,,,,,,,,,,,,,,,,,,,,,,,,,,,,,,,,,,,,,,,,,,,,,,,,,,,,,,,,,,,,,,,,,,,,,,,,,,,,,,,,,,,,,,,,,,,,,,,,,,,,,,,,,,,,,,,,,,,,
,,,,,,6099331dd68e8681d2c562ca,62c538d5cc76923a56d01cca,2022-07-06_08h25.53.909,Colour_Asymmetry_Pilot,2022.1.3,Win32,59.36127271,62c50e9c1127f2cd403a315f,0,100,100,44,1,threeone,,,,,,,,,,,,,,,,,,,,,,,,,,,,,,,,,,,,,,,,,,,,,,,,,,,,,,,,,,,,,,,,,,,,,,,,,,,,,,,,,,,,,,,,,,,,,,,,,,,,,,,,,,,,,,,,,,,,,,,,,,,,,,,,,,,,,,,,,,,,,,,,,,,,,,,,,,,,,
,,,,,,6099331dd68e8681d2c562ca,62c538d5cc76923a56d01cca,2022-07-06_08h25.53.909,Colour_Asymmetry_Pilot,2022.1.3,Win32,59.36127271,62c50e9c1127f2cd403a315f,0,101,101,87,1,fourthree,,,,,,,,,,,,,,,,,,,,,,,,,,,,,,,,,,,,,,,,,,,,,,,,,,,,,,,,,,,,,,,,,,,,,,,,,,,,,,,,,,,,,,,,,,,,,,,,,,,,,,,,,,,,,,,,,,,,,,,,,,,,,,,,,,,,,,,,,,,,,,,,,,,,,,,,,,,,,
,,,,,,6099331dd68e8681d2c562ca,62c538d5cc76923a56d01cca,2022-07-06_08h25.53.909,Colour_Asymmetry_Pilot,2022.1.3,Win32,59.36127271,62c50e9c1127f2cd403a315f,0,102,102,160,1,onetwo,,,,,,,,,,,,,,,,,,,,,,,,,,,,,,,,,,,,,,,,,,,,,,,,,,,,,,,,,,,,,,,,,,,,,,,,,,,,,,,,,,,,,,,,,,,,,,,,,,,,,,,,,,,,,,,,,,,,,,,,,,,,,,,,,,,,,,,,,,,,,,,,,,,,,,,,,,,,,
,,,,,,6099331dd68e8681d2c562ca,62c538d5cc76923a56d01cca,2022-07-06_08h25.53.909,Colour_Asymmetry_Pilot,2022.1.3,Win32,59.36127271,62c50e9c1127f2cd403a315f,0,103,103,104,1,onetwo,,,,,,,,,,,,,,,,,,,,,,,,,,,,,,,,,,,,,,,,,,,,,,,,,,,,,,,,,,,,,,,,,,,,,,,,,,,,,,,,,,,,,,,,,,,,,,,,,,,,,,,,,,,,,,,,,,,,,,,,,,,,,,,,,,,,,,,,,,,,,,,,,,,,,,,,,,,,,
,,,,,,6099331dd68e8681d2c562ca,62c538d5cc76923a56d01cca,2022-07-06_08h25.53.909,Colour_Asymmetry_Pilot,2022.1.3,Win32,59.36127271,62c50e9c1127f2cd403a315f,0,104,104,139,1,twofour,,,,,,,,,,,,,,,,,,,,,,,,,,,,,,,,,,,,,,,,,,,,,,,,,,,,,,,,,,,,,,,,,,,,,,,,,,,,,,,,,,,,,,,,,,,,,,,,,,,,,,,,,,,,,,,,,,,,,,,,,,,,,,,,,,,,,,,,,,,,,,,,,,,,,,,,,,,,,
,,,,,,6099331dd68e8681d2c562ca,62c538d5cc76923a56d01cca,2022-07-06_08h25.53.909,Colour_Asymmetry_Pilot,2022.1.3,Win32,59.36127271,62c50e9c1127f2cd403a315f,0,105,105,155,1,twofour,,,,,,,,,,,,,,,,,,,,,,,,,,,,,,,,,,,,,,,,,,,,,,,,,,,,,,,,,,,,,,,,,,,,,,,,,,,,,,,,,,,,,,,,,,,,,,,,,,,,,,,,,,,,,,,,,,,,,,,,,,,,,,,,,,,,,,,,,,,,,,,,,,,,,,,,,,,,,
,,,,,,6099331dd68e8681d2c562ca,62c538d5cc76923a56d01cca,2022-07-06_08h25.53.909,Colour_Asymmetry_Pilot,2022.1.3,Win32,59.36127271,62c50e9c1127f2cd403a315f,0,106,106,121,1,onethree,,,,,,,,,,,,,,,,,,,,,,,,,,,,,,,,,,,,,,,,,,,,,,,,,,,,,,,,,,,,,,,,,,,,,,,,,,,,,,,,,,,,,,,,,,,,,,,,,,,,,,,,,,,,,,,,,,,,,,,,,,,,,,,,,,,,,,,,,,,,,,,,,,,,,,,,,,,,,
,,,,,,6099331dd68e8681d2c562ca,62c538d5cc76923a56d01cca,2022-07-06_08h25.53.909,Colour_Asymmetry_Pilot,2022.1.3,Win32,59.36127271,62c50e9c1127f2cd403a315f,0,107,107,17,1,onethree,,,,,,,,,,,,,,,,,,,,,,,,,,,,,,,,,,,,,,,,,,,,,,,,,,,,,,,,,,,,,,,,,,,,,,,,,,,,,,,,,,,,,,,,,,,,,,,,,,,,,,,,,,,,,,,,,,,,,,,,,,,,,,,,,,,,,,,,,,,,,,,,,,,,,,,,,,,,,
,,,,,,6099331dd68e8681d2c562ca,62c538d5cc76923a56d01cca,2022-07-06_08h25.53.909,Colour_Asymmetry_Pilot,2022.1.3,Win32,59.36127271,62c50e9c1127f2cd403a315f,0,108,108,88,1,onetwo,,,,,,,,,,,,,,,,,,,,,,,,,,,,,,,,,,,,,,,,,,,,,,,,,,,,,,,,,,,,,,,,,,,,,,,,,,,,,,,,,,,,,,,,,,,,,,,,,,,,,,,,,,,,,,,,,,,,,,,,,,,,,,,,,,,,,,,,,,,,,,,,,,,,,,,,,,,,,
,,,,,,6099331dd68e8681d2c562ca,62c538d5cc76923a56d01cca,2022-07-06_08h25.53.909,Colour_Asymmetry_Pilot,2022.1.3,Win32,59.36127271,62c50e9c1127f2cd403a315f,0,109,109,91,1,twofour,,,,,,,,,,,,,,,,,,,,,,,,,,,,,,,,,,,,,,,,,,,,,,,,,,,,,,,,,,,,,,,,,,,,,,,,,,,,,,,,,,,,,,,,,,,,,,,,,,,,,,,,,,,,,,,,,,,,,,,,,,,,,,,,,,,,,,,,,,,,,,,,,,,,,,,,,,,,,
,,,,,,6099331dd68e8681d2c562ca,62c538d5cc76923a56d01cca,2022-07-06_08h25.53.909,Colour_Asymmetry_Pilot,2022.1.3,Win32,59.36127271,62c50e9c1127f2cd403a315f,0,110,110,60,1,threeone,,,,,,,,,,,,,,,,,,,,,,,,,,,,,,,,,,,,,,,,,,,,,,,,,,,,,,,,,,,,,,,,,,,,,,,,,,,,,,,,,,,,,,,,,,,,,,,,,,,,,,,,,,,,,,,,,,,,,,,,,,,,,,,,,,,,,,,,,,,,,,,,,,,,,,,,,,,,,
,,,,,,6099331dd68e8681d2c562ca,62c538d5cc76923a56d01cca,2022-07-06_08h25.53.909,Colour_Asymmetry_Pilot,2022.1.3,Win32,59.36127271,62c50e9c1127f2cd403a315f,0,111,111,133,1,threefour,,,,,,,,,,,,,,,,,,,,,,,,,,,,,,,,,,,,,,,,,,,,,,,,,,,,,,,,,,,,,,,,,,,,,,,,,,,,,,,,,,,,,,,,,,,,,,,,,,,,,,,,,,,,,,,,,,,,,,,,,,,,,,,,,,,,,,,,,,,,,,,,,,,,,,,,,,,,,
,,,,,,6099331dd68e8681d2c562ca,62c538d5cc76923a56d01cca,2022-07-06_08h25.53.909,Colour_Asymmetry_Pilot,2022.1.3,Win32,59.36127271,62c50e9c1127f2cd403a315f,0,112,112,73,1,onethree,,,,,,,,,,,,,,,,,,,,,,,,,,,,,,,,,,,,,,,,,,,,,,,,,,,,,,,,,,,,,,,,,,,,,,,,,,,,,,,,,,,,,,,,,,,,,,,,,,,,,,,,,,,,,,,,,,,,,,,,,,,,,,,,,,,,,,,,,,,,,,,,,,,,,,,,,,,,,
,,,,,,6099331dd68e8681d2c562ca,62c538d5cc76923a56d01cca,2022-07-06_08h25.53.909,Colour_Asymmetry_Pilot,2022.1.3,Win32,59.36127271,62c50e9c1127f2cd403a315f,0,113,113,13,1,threefour,,,,,,,,,,,,,,,,,,,,,,,,,,,,,,,,,,,,,,,,,,,,,,,,,,,,,,,,,,,,,,,,,,,,,,,,,,,,,,,,,,,,,,,,,,,,,,,,,,,,,,,,,,,,,,,,,,,,,,,,,,,,,,,,,,,,,,,,,,,,,,,,,,,,,,,,,,,,,
,,,,,,6099331dd68e8681d2c562ca,62c538d5cc76923a56d01cca,2022-07-06_08h25.53.909,Colour_Asymmetry_Pilot,2022.1.3,Win32,59.36127271,62c50e9c1127f2cd403a315f,0,114,114,141,1,threefour,,,,,,,,,,,,,,,,,,,,,,,,,,,,,,,,,,,,,,,,,,,,,,,,,,,,,,,,,,,,,,,,,,,,,,,,,,,,,,,,,,,,,,,,,,,,,,,,,,,,,,,,,,,,,,,,,,,,,,,,,,,,,,,,,,,,,,,,,,,,,,,,,,,,,,,,,,,,,
,,,,,,6099331dd68e8681d2c562ca,62c538d5cc76923a56d01cca,2022-07-06_08h25.53.909,Colour_Asymmetry_Pilot,2022.1.3,Win32,59.36127271,62c50e9c1127f2cd403a315f,0,115,115,120,1,onetwo,,,,,,,,,,,,,,,,,,,,,,,,,,,,,,,,,,,,,,,,,,,,,,,,,,,,,,,,,,,,,,,,,,,,,,,,,,,,,,,,,,,,,,,,,,,,,,,,,,,,,,,,,,,,,,,,,,,,,,,,,,,,,,,,,,,,,,,,,,,,,,,,,,,,,,,,,,,,,
,,,,,,6099331dd68e8681d2c562ca,62c538d5cc76923a56d01cca,2022-07-06_08h25.53.909,Colour_Asymmetry_Pilot,2022.1.3,Win32,59.36127271,62c50e9c1127f2cd403a315f,0,116,116,15,1,fourthree,,,,,,,,,,,,,,,,,,,,,,,,,,,,,,,,,,,,,,,,,,,,,,,,,,,,,,,,,,,,,,,,,,,,,,,,,,,,,,,,,,,,,,,,,,,,,,,,,,,,,,,,,,,,,,,,,,,,,,,,,,,,,,,,,,,,,,,,,,,,,,,,,,,,,,,,,,,,,
,,,,,,6099331dd68e8681d2c562ca,62c538d5cc76923a56d01cca,2022-07-06_08h25.53.909,Colour_Asymmetry_Pilot,2022.1.3,Win32,59.36127271,62c50e9c1127f2cd403a315f,0,117,117,59,1,twofour,,,,,,,,,,,,,,,,,,,,,,,,,,,,,,,,,,,,,,,,,,,,,,,,,,,,,,,,,,,,,,,,,,,,,,,,,,,,,,,,,,,,,,,,,,,,,,,,,,,,,,,,,,,,,,,,,,,,,,,,,,,,,,,,,,,,,,,,,,,,,,,,,,,,,,,,,,,,,
,,,,,,6099331dd68e8681d2c562ca,62c538d5cc76923a56d01cca,2022-07-06_08h25.53.909,Colour_Asymmetry_Pilot,2022.1.3,Win32,59.36127271,62c50e9c1127f2cd403a315f,0,118,118,117,1,threefour,,,,,,,,,,,,,,,,,,,,,,,,,,,,,,,,,,,,,,,,,,,,,,,,,,,,,,,,,,,,,,,,,,,,,,,,,,,,,,,,,,,,,,,,,,,,,,,,,,,,,,,,,,,,,,,,,,,,,,,,,,,,,,,,,,,,,,,,,,,,,,,,,,,,,,,,,,,,,
,,,,,,6099331dd68e8681d2c562ca,62c538d5cc76923a56d01cca,2022-07-06_08h25.53.909,Colour_Asymmetry_Pilot,2022.1.3,Win32,59.36127271,62c50e9c1127f2cd403a315f,0,119,119,71,1,fourthree,,,,,,,,,,,,,,,,,,,,,,,,,,,,,,,,,,,,,,,,,,,,,,,,,,,,,,,,,,,,,,,,,,,,,,,,,,,,,,,,,,,,,,,,,,,,,,,,,,,,,,,,,,,,,,,,,,,,,,,,,,,,,,,,,,,,,,,,,,,,,,,,,,,,,,,,,,,,,
,,,,,,6099331dd68e8681d2c562ca,62c538d5cc76923a56d01cca,2022-07-06_08h25.53.909,Colour_Asymmetry_Pilot,2022.1.3,Win32,59.36127271,62c50e9c1127f2cd403a315f,0,120,120,111,1,fourthree,,,,,,,,,,,,,,,,,,,,,,,,,,,,,,,,,,,,,,,,,,,,,,,,,,,,,,,,,,,,,,,,,,,,,,,,,,,,,,,,,,,,,,,,,,,,,,,,,,,,,,,,,,,,,,,,,,,,,,,,,,,,,,,,,,,,,,,,,,,,,,,,,,,,,,,,,,,,,
,,,,,,6099331dd68e8681d2c562ca,62c538d5cc76923a56d01cca,2022-07-06_08h25.53.909,Colour_Asymmetry_Pilot,2022.1.3,Win32,59.36127271,62c50e9c1127f2cd403a315f,0,121,121,10,1,twoone,,,,,,,,,,,,,,,,,,,,,,,,,,,,,,,,,,,,,,,,,,,,,,,,,,,,,,,,,,,,,,,,,,,,,,,,,,,,,,,,,,,,,,,,,,,,,,,,,,,,,,,,,,,,,,,,,,,,,,,,,,,,,,,,,,,,,,,,,,,,,,,,,,,,,,,,,,,,,
,,,,,,6099331dd68e8681d2c562ca,62c538d5cc76923a56d01cca,2022-07-06_08h25.53.909,Colour_Asymmetry_Pilot,2022.1.3,Win32,59.36127271,62c50e9c1127f2cd403a315f,0,122,122,8,1,onetwo,,,,,,,,,,,,,,,,,,,,,,,,,,,,,,,,,,,,,,,,,,,,,,,,,,,,,,,,,,,,,,,,,,,,,,,,,,,,,,,,,,,,,,,,,,,,,,,,,,,,,,,,,,,,,,,,,,,,,,,,,,,,,,,,,,,,,,,,,,,,,,,,,,,,,,,,,,,,,
,,,,,,6099331dd68e8681d2c562ca,62c538d5cc76923a56d01cca,2022-07-06_08h25.53.909,Colour_Asymmetry_Pilot,2022.1.3,Win32,59.36127271,62c50e9c1127f2cd403a315f,0,123,123,31,1,fourthree,,,,,,,,,,,,,,,,,,,,,,,,,,,,,,,,,,,,,,,,,,,,,,,,,,,,,,,,,,,,,,,,,,,,,,,,,,,,,,,,,,,,,,,,,,,,,,,,,,,,,,,,,,,,,,,,,,,,,,,,,,,,,,,,,,,,,,,,,,,,,,,,,,,,,,,,,,,,,
,,,,,,6099331dd68e8681d2c562ca,62c538d5cc76923a56d01cca,2022-07-06_08h25.53.909,Colour_Asymmetry_Pilot,2022.1.3,Win32,59.36127271,62c50e9c1127f2cd403a315f,0,124,124,98,1,twoone,,,,,,,,,,,,,,,,,,,,,,,,,,,,,,,,,,,,,,,,,,,,,,,,,,,,,,,,,,,,,,,,,,,,,,,,,,,,,,,,,,,,,,,,,,,,,,,,,,,,,,,,,,,,,,,,,,,,,,,,,,,,,,,,,,,,,,,,,,,,,,,,,,,,,,,,,,,,,
,,,,,,6099331dd68e8681d2c562ca,62c538d5cc76923a56d01cca,2022-07-06_08h25.53.909,Colour_Asymmetry_Pilot,2022.1.3,Win32,59.36127271,62c50e9c1127f2cd403a315f,0,125,125,145,1,onethree,,,,,,,,,,,,,,,,,,,,,,,,,,,,,,,,,,,,,,,,,,,,,,,,,,,,,,,,,,,,,,,,,,,,,,,,,,,,,,,,,,,,,,,,,,,,,,,,,,,,,,,,,,,,,,,,,,,,,,,,,,,,,,,,,,,,,,,,,,,,,,,,,,,,,,,,,,,,,
,,,,,,6099331dd68e8681d2c562ca,62c538d5cc76923a56d01cca,2022-07-06_08h25.53.909,Colour_Asymmetry_Pilot,2022.1.3,Win32,59.36127271,62c50e9c1127f2cd403a315f,0,126,126,149,1,threefour,,,,,,,,,,,,,,,,,,,,,,,,,,,,,,,,,,,,,,,,,,,,,,,,,,,,,,,,,,,,,,,,,,,,,,,,,,,,,,,,,,,,,,,,,,,,,,,,,,,,,,,,,,,,,,,,,,,,,,,,,,,,,,,,,,,,,,,,,,,,,,,,,,,,,,,,,,,,,
,,,,,,6099331dd68e8681d2c562ca,62c538d5cc76923a56d01cca,2022-07-06_08h25.53.909,Colour_Asymmetry_Pilot,2022.1.3,Win32,59.36127271,62c50e9c1127f2cd403a315f,0,127,127,41,1,onethree,,,,,,,,,,,,,,,,,,,,,,,,,,,,,,,,,,,,,,,,,,,,,,,,,,,,,,,,,,,,,,,,,,,,,,,,,,,,,,,,,,,,,,,,,,,,,,,,,,,,,,,,,,,,,,,,,,,,,,,,,,,,,,,,,,,,,,,,,,,,,,,,,,,,,,,,,,,,,
,,,,,,6099331dd68e8681d2c562ca,62c538d5cc76923a56d01cca,2022-07-06_08h25.53.909,Colour_Asymmetry_Pilot,2022.1.3,Win32,59.36127271,62c50e9c1127f2cd403a315f,0,128,128,151,1,fourthree,,,,,,,,,,,,,,,,,,,,,,,,,,,,,,,,,,,,,,,,,,,,,,,,,,,,,,,,,,,,,,,,,,,,,,,,,,,,,,,,,,,,,,,,,,,,,,,,,,,,,,,,,,,,,,,,,,,,,,,,,,,,,,,,,,,,,,,,,,,,,,,,,,,,,,,,,,,,,
,,,,,,6099331dd68e8681d2c562ca,62c538d5cc76923a56d01cca,2022-07-06_08h25.53.909,Colour_Asymmetry_Pilot,2022.1.3,Win32,59.36127271,62c50e9c1127f2cd403a315f,0,129,129,45,1,threefour,,,,,,,,,,,,,,,,,,,,,,,,,,,,,,,,,,,,,,,,,,,,,,,,,,,,,,,,,,,,,,,,,,,,,,,,,,,,,,,,,,,,,,,,,,,,,,,,,,,,,,,,,,,,,,,,,,,,,,,,,,,,,,,,,,,,,,,,,,,,,,,,,,,,,,,,,,,,,
,,,,,,6099331dd68e8681d2c562ca,62c538d5cc76923a56d01cca,2022-07-06_08h25.53.909,Colour_Asymmetry_Pilot,2022.1.3,Win32,59.36127271,62c50e9c1127f2cd403a315f,0,130,130,72,1,onetwo,,,,,,,,,,,,,,,,,,,,,,,,,,,,,,,,,,,,,,,,,,,,,,,,,,,,,,,,,,,,,,,,,,,,,,,,,,,,,,,,,,,,,,,,,,,,,,,,,,,,,,,,,,,,,,,,,,,,,,,,,,,,,,,,,,,,,,,,,,,,,,,,,,,,,,,,,,,,,
,,,,,,6099331dd68e8681d2c562ca,62c538d5cc76923a56d01cca,2022-07-06_08h25.53.909,Colour_Asymmetry_Pilot,2022.1.3,Win32,59.36127271,62c50e9c1127f2cd403a315f,0,131,131,102,1,fourtwo,,,,,,,,,,,,,,,,,,,,,,,,,,,,,,,,,,,,,,,,,,,,,,,,,,,,,,,,,,,,,,,,,,,,,,,,,,,,,,,,,,,,,,,,,,,,,,,,,,,,,,,,,,,,,,,,,,,,,,,,,,,,,,,,,,,,,,,,,,,,,,,,,,,,,,,,,,,,,
,,,,,,6099331dd68e8681d2c562ca,62c538d5cc76923a56d01cca,2022-07-06_08h25.53.909,Colour_Asymmetry_Pilot,2022.1.3,Win32,59.36127271,62c50e9c1127f2cd403a315f,0,132,132,46,1,fourtwo,,,,,,,,,,,,,,,,,,,,,,,,,,,,,,,,,,,,,,,,,,,,,,,,,,,,,,,,,,,,,,,,,,,,,,,,,,,,,,,,,,,,,,,,,,,,,,,,,,,,,,,,,,,,,,,,,,,,,,,,,,,,,,,,,,,,,,,,,,,,,,,,,,,,,,,,,,,,,
,,,,,,6099331dd68e8681d2c562ca,62c538d5cc76923a56d01cca,2022-07-06_08h25.53.909,Colour_Asymmetry_Pilot,2022.1.3,Win32,59.36127271,62c50e9c1127f2cd403a315f,0,133,133,19,1,twofour,,,,,,,,,,,,,,,,,,,,,,,,,,,,,,,,,,,,,,,,,,,,,,,,,,,,,,,,,,,,,,,,,,,,,,,,,,,,,,,,,,,,,,,,,,,,,,,,,,,,,,,,,,,,,,,,,,,,,,,,,,,,,,,,,,,,,,,,,,,,,,,,,,,,,,,,,,,,,
,,,,,,6099331dd68e8681d2c562ca,62c538d5cc76923a56d01cca,2022-07-06_08h25.53.909,Colour_Asymmetry_Pilot,2022.1.3,Win32,59.36127271,62c50e9c1127f2cd403a315f,0,134,134,57,1,onethree,,,,,,,,,,,,,,,,,,,,,,,,,,,,,,,,,,,,,,,,,,,,,,,,,,,,,,,,,,,,,,,,,,,,,,,,,,,,,,,,,,,,,,,,,,,,,,,,,,,,,,,,,,,,,,,,,,,,,,,,,,,,,,,,,,,,,,,,,,,,,,,,,,,,,,,,,,,,,
,,,,,,6099331dd68e8681d2c562ca,62c538d5cc76923a56d01cca,2022-07-06_08h25.53.909,Colour_Asymmetry_Pilot,2022.1.3,Win32,59.36127271,62c50e9c1127f2cd403a315f,0,135,135,40,1,onetwo,,,,,,,,,,,,,,,,,,,,,,,,,,,,,,,,,,,,,,,,,,,,,,,,,,,,,,,,,,,,,,,,,,,,,,,,,,,,,,,,,,,,,,,,,,,,,,,,,,,,,,,,,,,,,,,,,,,,,,,,,,,,,,,,,,,,,,,,,,,,,,,,,,,,,,,,,,,,,
,,,,,,6099331dd68e8681d2c562ca,62c538d5cc76923a56d01cca,2022-07-06_08h25.53.909,Colour_Asymmetry_Pilot,2022.1.3,Win32,59.36127271,62c50e9c1127f2cd403a315f,0,136,136,81,1,onethree,,,,,,,,,,,,,,,,,,,,,,,,,,,,,,,,,,,,,,,,,,,,,,,,,,,,,,,,,,,,,,,,,,,,,,,,,,,,,,,,,,,,,,,,,,,,,,,,,,,,,,,,,,,,,,,,,,,,,,,,,,,,,,,,,,,,,,,,,,,,,,,,,,,,,,,,,,,,,
,,,,,,6099331dd68e8681d2c562ca,62c538d5cc76923a56d01cca,2022-07-06_08h25.53.909,Colour_Asymmetry_Pilot,2022.1.3,Win32,59.36127271,62c50e9c1127f2cd403a315f,0,137,137,107,1,twofour,,,,,,,,,,,,,,,,,,,,,,,,,,,,,,,,,,,,,,,,,,,,,,,,,,,,,,,,,,,,,,,,,,,,,,,,,,,,,,,,,,,,,,,,,,,,,,,,,,,,,,,,,,,,,,,,,,,,,,,,,,,,,,,,,,,,,,,,,,,,,,,,,,,,,,,,,,,,,
,,,,,,6099331dd68e8681d2c562ca,62c538d5cc76923a56d01cca,2022-07-06_08h25.53.909,Colour_Asymmetry_Pilot,2022.1.3,Win32,59.36127271,62c50e9c1127f2cd403a315f,0,138,138,0,1,onetwo,,,,,,,,,,,,,,,,,,,,,,,,,,,,,,,,,,,,,,,,,,,,,,,,,,,,,,,,,,,,,,,,,,,,,,,,,,,,,,,,,,,,,,,,,,,,,,,,,,,,,,,,,,,,,,,,,,,,,,,,,,,,,,,,,,,,,,,,,,,,,,,,,,,,,,,,,,,,,
,,,,,,6099331dd68e8681d2c562ca,62c538d5cc76923a56d01cca,2022-07-06_08h25.53.909,Colour_Asymmetry_Pilot,2022.1.3,Win32,59.36127271,62c50e9c1127f2cd403a315f,0,139,139,118,1,fourtwo,,,,,,,,,,,,,,,,,,,,,,,,,,,,,,,,,,,,,,,,,,,,,,,,,,,,,,,,,,,,,,,,,,,,,,,,,,,,,,,,,,,,,,,,,,,,,,,,,,,,,,,,,,,,,,,,,,,,,,,,,,,,,,,,,,,,,,,,,,,,,,,,,,,,,,,,,,,,,
,,,,,,6099331dd68e8681d2c562ca,62c538d5cc76923a56d01cca,2022-07-06_08h25.53.909,Colour_Asymmetry_Pilot,2022.1.3,Win32,59.36127271,62c50e9c1127f2cd403a315f,0,140,140,70,1,fourtwo,,,,,,,,,,,,,,,,,,,,,,,,,,,,,,,,,,,,,,,,,,,,,,,,,,,,,,,,,,,,,,,,,,,,,,,,,,,,,,,,,,,,,,,,,,,,,,,,,,,,,,,,,,,,,,,,,,,,,,,,,,,,,,,,,,,,,,,,,,,,,,,,,,,,,,,,,,,,,
,,,,,,6099331dd68e8681d2c562ca,62c538d5cc76923a56d01cca,2022-07-06_08h25.53.909,Colour_Asymmetry_Pilot,2022.1.3,Win32,59.36127271,62c50e9c1127f2cd403a315f,0,141,141,123,1,twofour,,,,,,,,,,,,,,,,,,,,,,,,,,,,,,,,,,,,,,,,,,,,,,,,,,,,,,,,,,,,,,,,,,,,,,,,,,,,,,,,,,,,,,,,,,,,,,,,,,,,,,,,,,,,,,,,,,,,,,,,,,,,,,,,,,,,,,,,,,,,,,,,,,,,,,,,,,,,,
,,,,,,6099331dd68e8681d2c562ca,62c538d5cc76923a56d01cca,2022-07-06_08h25.53.909,Colour_Asymmetry_Pilot,2022.1.3,Win32,59.36127271,62c50e9c1127f2cd403a315f,0,142,142,113,1,onethree,,,,,,,,,,,,,,,,,,,,,,,,,,,,,,,,,,,,,,,,,,,,,,,,,,,,,,,,,,,,,,,,,,,,,,,,,,,,,,,,,,,,,,,,,,,,,,,,,,,,,,,,,,,,,,,,,,,,,,,,,,,,,,,,,,,,,,,,,,,,,,,,,,,,,,,,,,,,,
,,,,,,6099331dd68e8681d2c562ca,62c538d5cc76923a56d01cca,2022-07-06_08h25.53.909,Colour_Asymmetry_Pilot,2022.1.3,Win32,59.36127271,62c50e9c1127f2cd403a315f,0,143,143,25,1,onethree,,,,,,,,,,,,,,,,,,,,,,,,,,,,,,,,,,,,,,,,,,,,,,,,,,,,,,,,,,,,,,,,,,,,,,,,,,,,,,,,,,,,,,,,,,,,,,,,,,,,,,,,,,,,,,,,,,,,,,,,,,,,,,,,,,,,,,,,,,,,,,,,,,,,,,,,,,,,,
,,,,,,6099331dd68e8681d2c562ca,62c538d5cc76923a56d01cca,2022-07-06_08h25.53.909,Colour_Asymmetry_Pilot,2022.1.3,Win32,59.36127271,62c50e9c1127f2cd403a315f,0,144,144,159,1,fourthree,,,,,,,,,,,,,,,,,,,,,,,,,,,,,,,,,,,,,,,,,,,,,,,,,,,,,,,,,,,,,,,,,,,,,,,,,,,,,,,,,,,,,,,,,,,,,,,,,,,,,,,,,,,,,,,,,,,,,,,,,,,,,,,,,,,,,,,,,,,,,,,,,,,,,,,,,,,,,
,,,,,,6099331dd68e8681d2c562ca,62c538d5cc76923a56d01cca,2022-07-06_08h25.53.909,Colour_Asymmetry_Pilot,2022.1.3,Win32,59.36127271,62c50e9c1127f2cd403a315f,0,145,145,1,1,onethree,,,,,,,,,,,,,,,,,,,,,,,,,,,,,,,,,,,,,,,,,,,,,,,,,,,,,,,,,,,,,,,,,,,,,,,,,,,,,,,,,,,,,,,,,,,,,,,,,,,,,,,,,,,,,,,,,,,,,,,,,,,,,,,,,,,,,,,,,,,,,,,,,,,,,,,,,,,,,
,,,,,,6099331dd68e8681d2c562ca,62c538d5cc76923a56d01cca,2022-07-06_08h25.53.909,Colour_Asymmetry_Pilot,2022.1.3,Win32,59.36127271,62c50e9c1127f2cd403a315f,0,146,146,37,1,threefour,,,,,,,,,,,,,,,,,,,,,,,,,,,,,,,,,,,,,,,,,,,,,,,,,,,,,,,,,,,,,,,,,,,,,,,,,,,,,,,,,,,,,,,,,,,,,,,,,,,,,,,,,,,,,,,,,,,,,,,,,,,,,,,,,,,,,,,,,,,,,,,,,,,,,,,,,,,,,
,,,,,,6099331dd68e8681d2c562ca,62c538d5cc76923a56d01cca,2022-07-06_08h25.53.909,Colour_Asymmetry_Pilot,2022.1.3,Win32,59.36127271,62c50e9c1127f2cd403a315f,0,147,147,146,1,twoone,,,,,,,,,,,,,,,,,,,,,,,,,,,,,,,,,,,,,,,,,,,,,,,,,,,,,,,,,,,,,,,,,,,,,,,,,,,,,,,,,,,,,,,,,,,,,,,,,,,,,,,,,,,,,,,,,,,,,,,,,,,,,,,,,,,,,,,,,,,,,,,,,,,,,,,,,,,,,
,,,,,,6099331dd68e8681d2c562ca,62c538d5cc76923a56d01cca,2022-07-06_08h25.53.909,Colour_Asymmetry_Pilot,2022.1.3,Win32,59.36127271,62c50e9c1127f2cd403a315f,0,148,148,126,1,fourtwo,,,,,,,,,,,,,,,,,,,,,,,,,,,,,,,,,,,,,,,,,,,,,,,,,,,,,,,,,,,,,,,,,,,,,,,,,,,,,,,,,,,,,,,,,,,,,,,,,,,,,,,,,,,,,,,,,,,,,,,,,,,,,,,,,,,,,,,,,,,,,,,,,,,,,,,,,,,,,
,,,,,,6099331dd68e8681d2c562ca,62c538d5cc76923a56d01cca,2022-07-06_08h25.53.909,Colour_Asymmetry_Pilot,2022.1.3,Win32,59.36127271,62c50e9c1127f2cd403a315f,0,149,149,84,1,threeone,,,,,,,,,,,,,,,,,,,,,,,,,,,,,,,,,,,,,,,,,,,,,,,,,,,,,,,,,,,,,,,,,,,,,,,,,,,,,,,,,,,,,,,,,,,,,,,,,,,,,,,,,,,,,,,,,,,,,,,,,,,,,,,,,,,,,,,,,,,,,,,,,,,,,,,,,,,,,
,,,,,,6099331dd68e8681d2c562ca,62c538d5cc76923a56d01cca,2022-07-06_08h25.53.909,Colour_Asymmetry_Pilot,2022.1.3,Win32,59.36127271,62c50e9c1127f2cd403a315f,0,150,150,76,1,threeone,,,,,,,,,,,,,,,,,,,,,,,,,,,,,,,,,,,,,,,,,,,,,,,,,,,,,,,,,,,,,,,,,,,,,,,,,,,,,,,,,,,,,,,,,,,,,,,,,,,,,,,,,,,,,,,,,,,,,,,,,,,,,,,,,,,,,,,,,,,,,,,,,,,,,,,,,,,,,
,,,,,,6099331dd68e8681d2c562ca,62c538d5cc76923a56d01cca,2022-07-06_08h25.53.909,Colour_Asymmetry_Pilot,2022.1.3,Win32,59.36127271,62c50e9c1127f2cd403a315f,0,151,151,23,1,fourthree,,,,,,,,,,,,,,,,,,,,,,,,,,,,,,,,,,,,,,,,,,,,,,,,,,,,,,,,,,,,,,,,,,,,,,,,,,,,,,,,,,,,,,,,,,,,,,,,,,,,,,,,,,,,,,,,,,,,,,,,,,,,,,,,,,,,,,,,,,,,,,,,,,,,,,,,,,,,,
,,,,,,6099331dd68e8681d2c562ca,62c538d5cc76923a56d01cca,2022-07-06_08h25.53.909,Colour_Asymmetry_Pilot,2022.1.3,Win32,59.36127271,62c50e9c1127f2cd403a315f,0,152,152,32,1,onetwo,,,,,,,,,,,,,,,,,,,,,,,,,,,,,,,,,,,,,,,,,,,,,,,,,,,,,,,,,,,,,,,,,,,,,,,,,,,,,,,,,,,,,,,,,,,,,,,,,,,,,,,,,,,,,,,,,,,,,,,,,,,,,,,,,,,,,,,,,,,,,,,,,,,,,,,,,,,,,
,,,,,,6099331dd68e8681d2c562ca,62c538d5cc76923a56d01cca,2022-07-06_08h25.53.909,Colour_Asymmetry_Pilot,2022.1.3,Win32,59.36127271,62c50e9c1127f2cd403a315f,0,153,153,116,1,threeone,,,,,,,,,,,,,,,,,,,,,,,,,,,,,,,,,,,,,,,,,,,,,,,,,,,,,,,,,,,,,,,,,,,,,,,,,,,,,,,,,,,,,,,,,,,,,,,,,,,,,,,,,,,,,,,,,,,,,,,,,,,,,,,,,,,,,,,,,,,,,,,,,,,,,,,,,,,,,
,,,,,,6099331dd68e8681d2c562ca,62c538d5cc76923a56d01cca,2022-07-06_08h25.53.909,Colour_Asymmetry_Pilot,2022.1.3,Win32,59.36127271,62c50e9c1127f2cd403a315f,0,154,154,56,1,onetwo,,,,,,,,,,,,,,,,,,,,,,,,,,,,,,,,,,,,,,,,,,,,,,,,,,,,,,,,,,,,,,,,,,,,,,,,,,,,,,,,,,,,,,,,,,,,,,,,,,,,,,,,,,,,,,,,,,,,,,,,,,,,,,,,,,,,,,,,,,,,,,,,,,,,,,,,,,,,,
,,,,,,6099331dd68e8681d2c562ca,62c538d5cc76923a56d01cca,2022-07-06_08h25.53.909,Colour_Asymmetry_Pilot,2022.1.3,Win32,59.36127271,62c50e9c1127f2cd403a315f,0,155,155,9,1,onethree,,,,,,,,,,,,,,,,,,,,,,,,,,,,,,,,,,,,,,,,,,,,,,,,,,,,,,,,,,,,,,,,,,,,,,,,,,,,,,,,,,,,,,,,,,,,,,,,,,,,,,,,,,,,,,,,,,,,,,,,,,,,,,,,,,,,,,,,,,,,,,,,,,,,,,,,,,,,,
,,,,,,6099331dd68e8681d2c562ca,62c538d5cc76923a56d01cca,2022-07-06_08h25.53.909,Colour_Asymmetry_Pilot,2022.1.3,Win32,59.36127271,62c50e9c1127f2cd403a315f,0,156,156,153,1,onethree,,,,,,,,,,,,,,,,,,,,,,,,,,,,,,,,,,,,,,,,,,,,,,,,,,,,,,,,,,,,,,,,,,,,,,,,,,,,,,,,,,,,,,,,,,,,,,,,,,,,,,,,,,,,,,,,,,,,,,,,,,,,,,,,,,,,,,,,,,,,,,,,,,,,,,,,,,,,,
,,,,,,6099331dd68e8681d2c562ca,62c538d5cc76923a56d01cca,2022-07-06_08h25.53.909,Colour_Asymmetry_Pilot,2022.1.3,Win32,59.36127271,62c50e9c1127f2cd403a315f,0,157,157,161,1,onethree,,,,,,,,,,,,,,,,,,,,,,,,,,,,,,,,,,,,,,,,,,,,,,,,,,,,,,,,,,,,,,,,,,,,,,,,,,,,,,,,,,,,,,,,,,,,,,,,,,,,,,,,,,,,,,,,,,,,,,,,,,,,,,,,,,,,,,,,,,,,,,,,,,,,,,,,,,,,,
,,,,,,6099331dd68e8681d2c562ca,62c538d5cc76923a56d01cca,2022-07-06_08h25.53.909,Colour_Asymmetry_Pilot,2022.1.3,Win32,59.36127271,62c50e9c1127f2cd403a315f,0,158,158,36,1,threeone,,,,,,,,,,,,,,,,,,,,,,,,,,,,,,,,,,,,,,,,,,,,,,,,,,,,,,,,,,,,,,,,,,,,,,,,,,,,,,,,,,,,,,,,,,,,,,,,,,,,,,,,,,,,,,,,,,,,,,,,,,,,,,,,,,,,,,,,,,,,,,,,,,,,,,,,,,,,,
,,,,,,6099331dd68e8681d2c562ca,62c538d5cc76923a56d01cca,2022-07-06_08h25.53.909,Colour_Asymmetry_Pilot,2022.1.3,Win32,59.36127271,62c50e9c1127f2cd403a315f,0,159,159,122,1,twoone,,,,,,,,,,,,,,,,,,,,,,,,,,,,,,,,,,,,,,,,,,,,,,,,,,,,,,,,,,,,,,,,,,,,,,,,,,,,,,,,,,,,,,,,,,,,,,,,,,,,,,,,,,,,,,,,,,,,,,,,,,,,,,,,,,,,,,,,,,,,,,,,,,,,,,,,,,,,,
,,,,,,6099331dd68e8681d2c562ca,62c538d5cc76923a56d01cca,2022-07-06_08h25.53.909,Colour_Asymmetry_Pilot,2022.1.3,Win32,59.36127271,62c50e9c1127f2cd403a315f,0,160,160,86,1,fourtwo,,,,,,,,,,,,,,,,,,,,,,,,,,,,,,,,,,,,,,,,,,,,,,,,,,,,,,,,,,,,,,,,,,,,,,,,,,,,,,,,,,,,,,,,,,,,,,,,,,,,,,,,,,,,,,,,,,,,,,,,,,,,,,,,,,,,,,,,,,,,,,,,,,,,,,,,,,,,,
,,,,,,6099331dd68e8681d2c562ca,62c538d5cc76923a56d01cca,2022-07-06_08h25.53.909,Colour_Asymmetry_Pilot,2022.1.3,Win32,59.36127271,62c50e9c1127f2cd403a315f,0,161,161,92,1,threeone,,,,,,,,,,,,,,,,,,,,,,,,,,,,,,,,,,,,,,,,,,,,,,,,,,,,,,,,,,,,,,,,,,,,,,,,,,,,,,,,,,,,,,,,,,,,,,,,,,,,,,,,,,,,,,,,,,,,,,,,,,,,,,,,,,,,,,,,,,,,,,,,,,,,,,,,,,,,,
,,,,,,6099331dd68e8681d2c562ca,62c538d5cc76923a56d01cca,2022-07-06_08h25.53.909,Colour_Asymmetry_Pilot,2022.1.3,Win32,59.36127271,62c50e9c1127f2cd403a315f,,,,,,,space,22.5947,space,29.3739,space,68.551,space,36.8212,space,59.4651,space,20.3927,"[0.7646000000000002,0.07440000000000002,0.2704]",fourtwo,"[0.9763999999999999,0.30979999999999985,-0.6786]",1,25.808,36.66668701,-74.66668701,1,0,0,response3disk_5,-6.666625977,-2,1,0,0,rectangle_8,-6.666625977,-2,1,0,0,2,-6.666625977,-2,1,0,0,0,0,0,0,1,,,,,,,,,,,,,,,,,,,,,,,,,,,,,,,,,,,,,,,,,,,,,,,,,,,,,,,,,,,,,,,,,,,,,,,,,,,,,,,,,,,,,,,,,,,,,,,,,,,,,,,,,,,,,,,,
,,,,,,6099331dd68e8681d2c562ca,62c538d5cc76923a56d01cca,2022-07-06_08h25.53.909,Colour_Asymmetry_Pilot,2022.1.3,Win32,59.36127271,62c50e9c1127f2cd403a315f,,,,,,,,,,,,,,,,,,,"[-0.06680000000000008,-0.45100000000000007,-0.906]",twofour,"[-0.8198,-0.5138,-0.7492000000000001]",-1,9.8316,-41.33331299,-92,1,0,0,response5disk_5,-3.333312988,0,1,0,0,rectangle_8,-3.333312988,0,1,0,0,2,-3.333312988,0,1,0,0,1,0,1,0,1,,,,,,,,,,,,,,,,,,,,,,,,,,,,,,,,,,,,,,,,,,,,,,,,,,,,,,,,,,,,,,,,,,,,,,,,,,,,,,,,,,,,,,,,,,,,,,,,,,,,,,,,,,,,,,,,
,,,,,,6099331dd68e8681d2c562ca,62c538d5cc76923a56d01cca,2022-07-06_08h25.53.909,Colour_Asymmetry_Pilot,2022.1.3,Win32,59.36127271,62c50e9c1127f2cd403a315f,,,,,,,,,,,,,,,,,,,"[-0.6706000000000001,-0.6157999999999999,-0.6786]",twofour,"[-0.34920000000000007,-0.702,-0.5216]",-1,6.3996,-31.33331299,-80.66668701,1,0,0,response5disk_5,-1.333312988,8,1,0,0,rectangle_8,71.33337402,-48,1,0,0,2,-6.666625977,8,1,0,0,2,0,2,0,1,response3disk_7,5,rectangle_4,,,,,,,,,,,,,,,,,,,,,,,,,,,,,,,,,,,,,,,,,,,,,,,,,,,,,,,,,,,,,,,,,,,,,,,,,,,,,,,,,,,,,,,,,,,,,,,,,,,,,,,,,,,,,
,,,,,,6099331dd68e8681d2c562ca,62c538d5cc76923a56d01cca,2022-07-06_08h25.53.909,Colour_Asymmetry_Pilot,2022.1.3,Win32,59.36127271,62c50e9c1127f2cd403a315f,,,,,,,,,,,,,,,,,,,"[-0.9296,-0.12959999999999994,-0.043199999999999905]",twofour,"[-0.9216,-0.5529999999999999,-0.3962]",3,5.1829,74.66668701,30,1,0,0,response1disk_5,-3.333312988,2,1,0,0,rectangle_8,-3.333312988,2,1,0,0,2,-3.333312988,2,1,0,0,3,0,3,0,1,,,,,,,,,,,,,,,,,,,,,,,,,,,,,,,,,,,,,,,,,,,,,,,,,,,,,,,,,,,,,,,,,,,,,,,,,,,,,,,,,,,,,,,,,,,,,,,,,,,,,,,,,,,,,,,,
,,,,,,6099331dd68e8681d2c562ca,62c538d5cc76923a56d01cca,2022-07-06_08h25.53.909,Colour_Asymmetry_Pilot,2022.1.3,Win32,59.36127271,62c50e9c1127f2cd403a315f,,,,,,,,,,,,,,,,,,,"[-0.45899999999999996,-0.3256,-0.9374]",fourthree,"[-0.5688,-0.08239999999999992,-0.1844]",2,3.8992,60.66668701,-42.66668701,1,0,0,response3disk_5,-3.333312988,0,1,0,0,rectangle_8,84,-50,1,0,0,2,-2.666625977,6,1,0,0,4,0,4,0,1,response3disk_7,5,rectangle_4,,,,,,,,,,,,,,,,,,,,,,,,,,,,,,,,,,,,,,,,,,,,,,,,,,,,,,,,,,,,,,,,,,,,,,,,,,,,,,,,,,,,,,,,,,,,,,,,,,,,,,,,,,,,,
,,,,,,6099331dd68e8681d2c562ca,62c538d5cc76923a56d01cca,2022-07-06_08h25.53.909,Colour_Asymmetry_Pilot,2022.1.3,Win32,59.36127271,62c50e9c1127f2cd403a315f,,,,,,,,,,,,,,,,,,,"[0.2784,-0.31000000000000005,-0.5452]",fourtwo,"[-0.6,0.16860000000000008,0.44300000000000006]",-2,4.0326,-58,-30,1,0,0,response5disk_5,4,-2.666687012,1,0,0,rectangle_8,4,-2.666687012,1,0,0,2,4,-2.666687012,1,0,0,5,0,5,0,1,,,,,,,,,,,,,,,,,,,,,,,,,,,,,,,,,,,,,,,,,,,,,,,,,,,,,,,,,,,,,,,,,,,,,,,,,,,,,,,,,,,,,,,,,,,,,,,,,,,,,,,,,,,,,,,,
,,,,,,6099331dd68e8681d2c562ca,62c538d5cc76923a56d01cca,2022-07-06_08h25.53.909,Colour_Asymmetry_Pilot,2022.1.3,Win32,59.36127271,62c50e9c1127f2cd403a315f,,,,,,,,,,,,,,,,,,,"[0.7646000000000002,0.07440000000000002,0.2704]",fourthree,"[0.40379999999999994,0.09000000000000008,0.44300000000000006]",3,2.1347,67.33337402,42,1,0,0,response1disk_5,-9.333312988,2,1,0,0,rectangle_8,-9.333312988,2,1,0,0,2,-9.333312988,2,1,0,0,6,0,6,0,1,,,,,,,,,,,,,,,,,,,,,,,,,,,,,,,,,,,,,,,,,,,,,,,,,,,,,,,,,,,,,,,,,,,,,,,,,,,,,,,,,,,,,,,,,,,,,,,,,,,,,,,,,,,,,,,,
,,,,,,6099331dd68e8681d2c562ca,62c538d5cc76923a56d01cca,2022-07-06_08h25.53.909,Colour_Asymmetry_Pilot,2022.1.3,Win32,59.36127271,62c50e9c1127f2cd403a315f,,,,,,,,,,,,,,,,,,,,twofour,,-2,3.8186,,,,,,,,,,,,,,,,,,,,,,,,,,,,,,,,space,14.2504,"[-0.2942,-0.24719999999999998,-0.357]","[0.30180000000000007,-0.7884,-0.9844]",-57.33331299,-39.33334351,1,0,0,response5disk,-3.333312988,0.666656494,1,0,0,rectangle,-3.333312988,0.666656494,1,0,0,,3,0.0037,0,-3.333312988,0.666656494,1,0,0,0,0,0,113,1,32,second,,,,,,,,,,,,,,,,,,,,,,,,,,,,,,,,,,,,,,,,,,,,,,,,,,,,,,,,,,,,,,,,,,,,,,,,
,,,,,,6099331dd68e8681d2c562ca,62c538d5cc76923a56d01cca,2022-07-06_08h25.53.909,Colour_Asymmetry_Pilot,2022.1.3,Win32,59.36127271,62c50e9c1127f2cd403a315f,,,,,,,,,,,,,,,,,,,,twoone,,-2,8.6488,,,,,,,,,,,,,,,,,,,,,,,,,,,,,,,,,,"[-0.5688,-0.08239999999999992,-0.1844]","[0.37240000000000006,-0.050999999999999934,-0.5216]",-57.33331299,-32,1,0,0,response5disk,9.333374023,0,1,0,0,rectangle,9.333374023,0,1,0,0,,1,0.0037,0,9.333374023,0,1,0,0,0,1,1,19,1,19,first,,,,,,,,,,,,,,,,,,,,,,,,,,,,,,,,,,,,,,,,,,,,,,,,,,,,,,,,,,,,,,,,,,,,,,,,
,,,,,,6099331dd68e8681d2c562ca,62c538d5cc76923a56d01cca,2022-07-06_08h25.53.909,Colour_Asymmetry_Pilot,2022.1.3,Win32,59.36127271,62c50e9c1127f2cd403a315f,,,,,,,,,,,,,,,,,,,,onethree,,-2,2.5162,,,,,,,,,,,,,,,,,,,,,,,,,,,,,,,,,,"[-0.4746,-0.0354000000000001,0.5449999999999999]","[-0.6706000000000001,-0.6157999999999999,-0.6786]",-46,-22.66668701,1,0,0,response5disk,-5.333312988,0,1,0,0,rectangle,-5.333312988,0,1,0,0,,1,0.0004,0,-5.333312988,0,1,0,0,0,2,2,112,1,31,second,,,,,,,,,,,,,,,,,,,,,,,,,,,,,,,,,,,,,,,,,,,,,,,,,,,,,,,,,,,,,,,,,,,,,,,,
,,,,,,6099331dd68e8681d2c562ca,62c538d5cc76923a56d01cca,2022-07-06_08h25.53.909,Colour_Asymmetry_Pilot,2022.1.3,Win32,59.36127271,62c50e9c1127f2cd403a315f,,,,,,,,,,,,,,,,,,,,twoone,,-3,1.6829,,,,,,,,,,,,,,,,,,,,,,,,,,,,,,,,,,"[0.8274000000000001,-0.5844,-0.9452]","[0.05879999999999996,0.2784,0.5841999999999998]",-59.33331299,30,1,0,0,response7disk,1.333374023,-5.333343506,1,0,0,rectangle,1.333374023,-5.333343506,1,0,0,,2,0.0031,0,1.333374023,-5.333343506,1,0,0,0,3,3,83,1,2,second,,,,,,,,,,,,,,,,,,,,,,,,,,,,,,,,,,,,,,,,,,,,,,,,,,,,,,,,,,,,,,,,,,,,,,,,
,,,,,,6099331dd68e8681d2c562ca,62c538d5cc76923a56d01cca,2022-07-06_08h25.53.909,Colour_Asymmetry_Pilot,2022.1.3,Win32,59.36127271,62c50e9c1127f2cd403a315f,,,,,,,,,,,,,,,,,,,,onetwo,,-3,1.1831,,,,,,,,,,,,,,,,,,,,,,,,,,,,,,,,,,"[-0.011800000000000033,-0.906,-0.45100000000000007]","[0.9763999999999999,0.30979999999999985,-0.6786]",-49.33331299,24.66665649,1,0,0,response7disk,-4,6,1,0,0,rectangle,-4,6,1,0,0,,1,0.0028,0,-4,6,1,0,0,0,4,4,118,1,37,second,,,,,,,,,,,,,,,,,,,,,,,,,,,,,,,,,,,,,,,,,,,,,,,,,,,,,,,,,,,,,,,,,,,,,,,,
,,,,,,6099331dd68e8681d2c562ca,62c538d5cc76923a56d01cca,2022-07-06_08h25.53.909,Colour_Asymmetry_Pilot,2022.1.3,Win32,59.36127271,62c50e9c1127f2cd403a315f,,,,,,,,,,,,,,,,,,,,twoone,,-3,1.7834,,,,,,,,,,,,,,,,,,,,,,,,,,,,,,,,,,"[0.34099999999999997,0.5841999999999998,-0.9844]","[0.9372,0.9450000000000001,0.8980000000000001]",-62,28.66665649,1,0,0,response7disk,-0.666625977,-2,1,0,0,rectangle,-0.666625977,-2,1,0,0,,2,0.0025,0,-0.666625977,-2,1,0,0,0,5,5,140,1,59,second,,,,,,,,,,,,,,,,,,,,,,,,,,,,,,,,,,,,,,,,,,,,,,,,,,,,,,,,,,,,,,,,,,,,,,,,
,,,,,,6099331dd68e8681d2c562ca,62c538d5cc76923a56d01cca,2022-07-06_08h25.53.909,Colour_Asymmetry_Pilot,2022.1.3,Win32,59.36127271,62c50e9c1127f2cd403a315f,,,,,,,,,,,,,,,,,,,,fourthree,,-3,2.333,,,,,,,,,,,,,,,,,,,,,,,,,,,,,,,,,,"[-0.10599999999999998,-0.15300000000000002,0.15280000000000005]","[0.7176,-0.906,-0.6864]",-73.33331299,22.66665649,1,0,0,response7disk,-6.666625977,0.666656494,1,0,0,rectangle,-6.666625977,0.666656494,1,0,0,,1,0.0031,0,-6.666625977,0.666656494,1,0,0,0,6,6,62,1,62,first,,,,,,,,,,,,,,,,,,,,,,,,,,,,,,,,,,,,,,,,,,,,,,,,,,,,,,,,,,,,,,,,,,,,,,,,
,,,,,,6099331dd68e8681d2c562ca,62c538d5cc76923a56d01cca,2022-07-06_08h25.53.909,Colour_Asymmetry_Pilot,2022.1.3,Win32,59.36127271,62c50e9c1127f2cd403a315f,,,,,,,,,,,,,,,,,,,,twoone,,-3,1.0164,,,,,,,,,,,,,,,,,,,,,,,,,,,,,,,,,,"[1,0.12939999999999996,-1]","[-0.17659999999999998,0.3253999999999999,0.19999999999999996]",-65.33331299,32,1,0,0,response7disk,1.333374023,1.333312988,1,0,0,rectangle,1.333374023,1.333312988,1,0,0,,2,0.0033,0,1.333374023,1.333312988,1,0,0,0,7,7,39,1,39,first,,,,,,,,,,,,,,,,,,,,,,,,,,,,,,,,,,,,,,,,,,,,,,,,,,,,,,,,,,,,,,,,,,,,,,,,
,,,,,,6099331dd68e8681d2c562ca,62c538d5cc76923a56d01cca,2022-07-06_08h25.53.909,Colour_Asymmetry_Pilot,2022.1.3,Win32,59.36127271,62c50e9c1127f2cd403a315f,,,,,,,,,,,,,,,,,,,,fourtwo,,-1,1.8998,,,,,,,,,,,,,,,,,,,,,,,,,,,,,,,,,,"[-0.24719999999999998,-0.0354000000000001,0.3175999999999999]","[-0.2942,-0.24719999999999998,-0.357]",-25.33331299,-52,1,0,0,response5disk,3.333374023,0,1,0,0,rectangle,3.333374023,0,1,0,0,,2,0.0006,0,3.333374023,0,1,0,0,0,8,8,129,1,48,second,,,,,,,,,,,,,,,,,,,,,,,,,,,,,,,,,,,,,,,,,,,,,,,,,,,,,,,,,,,,,,,,,,,,,,,,
,,,,,,6099331dd68e8681d2c562ca,62c538d5cc76923a56d01cca,2022-07-06_08h25.53.909,Colour_Asymmetry_Pilot,2022.1.3,Win32,59.36127271,62c50e9c1127f2cd403a315f,,,,,,,,,,,,,,,,,,,,fourtwo,,-2,1.3998,,,,,,,,,,,,,,,,,,,,,,,,,,,,,,,,,,"[-0.6706000000000001,-0.6157999999999999,-0.6786]","[0.8274000000000001,-0.5844,-0.9452]",-39.33331299,-18,1,0,0,response5disk,2.666687012,-3.333343506,1,0,0,rectangle,2.666687012,-3.333343506,1,0,0,,2,0.0005,0,2.666687012,-3.333343506,1,0,0,0,9,9,101,1,20,second,,,,,,,,,,,,,,,,,,,,,,,,,,,,,,,,,,,,,,,,,,,,,,,,,,,,,,,,,,,,,,,,,,,,,,,,
,,,,,,6099331dd68e8681d2c562ca,62c538d5cc76923a56d01cca,2022-07-06_08h25.53.909,Colour_Asymmetry_Pilot,2022.1.3,Win32,59.36127271,62c50e9c1127f2cd403a315f,,,,,,,,,,,,,,,,,,,,twofour,,-3,1.6494,,,,,,,,,,,,,,,,,,,,,,,,,,,,,,,,,,"[-0.4746,-0.0354000000000001,0.5449999999999999]","[0.9842,0.7409999999999999,-0.6628000000000001]",-61.33331299,24,1,0,0,response7disk,-11.33331299,3.333312988,1,0,0,rectangle,-11.33331299,3.333312988,1,0,0,,1,0.0033,0,-11.33331299,3.333312988,1,0,0,0,10,10,26,1,26,first,,,,,,,,,,,,,,,,,,,,,,,,,,,,,,,,,,,,,,,,,,,,,,,,,,,,,,,,,,,,,,,,,,,,,,,,
,,,,,,6099331dd68e8681d2c562ca,62c538d5cc76923a56d01cca,2022-07-06_08h25.53.909,Colour_Asymmetry_Pilot,2022.1.3,Win32,59.36127271,62c50e9c1127f2cd403a315f,,,,,,,,,,,,,,,,,,,,threefour,,2,2.1156,,,,,,,,,,,,,,,,,,,,,,,,,,,,,,,,,,"[-0.17659999999999998,0.3253999999999999,0.19999999999999996]","[-0.8118,-0.8198,-0.5452]",47.33337402,-42,1,0,0,response3disk,-9.333312988,0,1,0,0,rectangle,-9.333312988,0,1,0,0,,1,0.0005,0,-9.333312988,0,1,0,0,0,11,11,27,1,27,first,,,,,,,,,,,,,,,,,,,,,,,,,,,,,,,,,,,,,,,,,,,,,,,,,,,,,,,,,,,,,,,,,,,,,,,,
,,,,,,6099331dd68e8681d2c562ca,62c538d5cc76923a56d01cca,2022-07-06_08h25.53.909,Colour_Asymmetry_Pilot,2022.1.3,Win32,59.36127271,62c50e9c1127f2cd403a315f,,,,,,,,,,,,,,,,,,,,threeone,,1,1.5325,,,,,,,,,,,,,,,,,,,,,,,,,,,,,,,,,,"[-0.9138,-0.5296000000000001,-0.5529999999999999]","[-0.07459999999999989,0.12139999999999995,-0.9922]",30.66668701,-52.66668701,1,0,0,response3disk,0,-0.666687012,1,0,0,rectangle,0,-0.666687012,1,0,0,,1,0.0006,0,0,-0.666687012,1,0,0,0,12,12,125,1,44,second,,,,,,,,,,,,,,,,,,,,,,,,,,,,,,,,,,,,,,,,,,,,,,,,,,,,,,,,,,,,,,,,,,,,,,,,
,,,,,,6099331dd68e8681d2c562ca,62c538d5cc76923a56d01cca,2022-07-06_08h25.53.909,Colour_Asymmetry_Pilot,2022.1.3,Win32,59.36127271,62c50e9c1127f2cd403a315f,,,,,,,,,,,,,,,,,,,,twoone,,-2,0.9002,,,,,,,,,,,,,,,,,,,,,,,,,,,,,,,,,,"[-0.48240000000000005,0.3175999999999999,0.2156]","[0.9842,0.7409999999999999,-0.6628000000000001]",-33.33331299,-24,1,0,0,response5disk,-0.666625977,2.666656494,1,0,0,rectangle,-0.666625977,2.666656494,1,0,0,,1,0.0009,0,-0.666625977,2.666656494,1,0,0,0,13,13,91,1,10,second,,,,,,,,,,,,,,,,,,,,,,,,,,,,,,,,,,,,,,,,,,,,,,,,,,,,,,,,,,,,,,,,,,,,,,,,
,,,,,,6099331dd68e8681d2c562ca,62c538d5cc76923a56d01cca,2022-07-06_08h25.53.909,Colour_Asymmetry_Pilot,2022.1.3,Win32,59.36127271,62c50e9c1127f2cd403a315f,,,,,,,,,,,,,,,,,,,,threeone,,2,1.1334,,,,,,,,,,,,,,,,,,,,,,,,,,,,,,,,,,"[0.2862,0.7802,0.3568]","[-0.9688,-0.38039999999999996,-0.41979999999999995]",44.66668701,-23.33334351,1,0,0,response3disk,-1.333312988,1.333312988,1,0,0,rectangle,-1.333312988,1.333312988,1,0,0,,2,0.0037,0,-1.333312988,1.333312988,1,0,0,0,14,14,131,1,50,second,,,,,,,,,,,,,,,,,,,,,,,,,,,,,,,,,,,,,,,,,,,,,,,,,,,,,,,,,,,,,,,,,,,,,,,,
,,,,,,6099331dd68e8681d2c562ca,62c538d5cc76923a56d01cca,2022-07-06_08h25.53.909,Colour_Asymmetry_Pilot,2022.1.3,Win32,59.36127271,62c50e9c1127f2cd403a315f,,,,,,,,,,,,,,,,,,,,threeone,,-2,1.5661,,,,,,,,,,,,,,,,,,,,,,,,,,,,,,,,,,"[0.23920000000000008,0.2704,0.16060000000000008]","[-0.5452,-0.608,0.2470000000000001]",-36,-20,1,0,0,response5disk,-0.666625977,-2,1,0,0,rectangle,-0.666625977,-2,1,0,0,,2,0.0005,0,-0.666625977,-2,1,0,0,0,15,15,158,1,77,second,,,,,,,,,,,,,,,,,,,,,,,,,,,,,,,,,,,,,,,,,,,,,,,,,,,,,,,,,,,,,,,,,,,,,,,,
