trials.thisRepN,trials.thisTrialN,trials.thisN,trials.thisIndex,trials.ran,Colourcodes,participant,session,date,expName,psychopyVersion,OS,frameRate,study_id,trials_4.thisRepN,trials_4.thisTrialN,trials_4.thisN,trials_4.thisIndex,trials_4.ran,StimulusPos,key_resp.keys,key_resp.rt,key_resp_2.keys,key_resp_2.rt,key_resp_15.keys,key_resp_15.rt,key_resp_17.keys,key_resp_17.rt,key_resp_9.keys,key_resp_9.rt,key_resp_10.keys,key_resp_10.rt,Circle1_col,Ecc,Circle2_col,similarity,response_time,mouse_5.x,mouse_5.y,mouse_5.leftButton,mouse_5.midButton,mouse_5.rightButton,mouse_5.clicked_name,mouse_10.x,mouse_10.y,mouse_10.leftButton,mouse_10.midButton,mouse_10.rightButton,mouse_10.clicked_name,mouse_7.x,mouse_7.y,mouse_7.leftButton,mouse_7.midButton,mouse_7.rightButton,mouse_7.clicked_name,catchprac,catchnumberprac,mouse_6.x,mouse_6.y,mouse_6.leftButton,mouse_6.midButton,mouse_6.rightButton,mouse_6.clicked_name,duringprac.thisRepN,duringprac.thisTrialN,duringprac.thisN,duringprac.thisIndex,duringprac.ran,key_resp_22.keys,key_resp_22.rt,Circle1_colour,Circle2_colour,mouse.x,mouse.y,mouse.leftButton,mouse.midButton,mouse.rightButton,mouse.clicked_name,mouse_2.x,mouse_2.y,mouse_2.leftButton,mouse_2.midButton,mouse_2.rightButton,mouse_2.clicked_name,mouse_3.x,mouse_3.y,mouse_3.leftButton,mouse_3.midButton,mouse_3.rightButton,catchresponse,catchnumber,response_time_catch,Catch,mouse_11.x,mouse_11.y,mouse_11.leftButton,mouse_11.midButton,mouse_11.rightButton,trials_2.thisRepN,trials_2.thisTrialN,trials_2.thisN,trials_2.thisIndex,trials_2.ran,Colourpair,Temporder,mouse_3.clicked_name,mouse_11.clicked_name,trials_3.thisRepN,trials_3.thisTrialN,trials_3.thisN,trials_3.thisIndex,trials_3.ran,key_resp_instr_Ishi.keys,key_resp_instr_Ishi.rt,Ishi_trial_keyresp.keys,Ishi_textbox.text,Ishi_mouse.x,Ishi_mouse.y,Ishi_mouse.leftButton,Ishi_mouse.midButton,Ishi_mouse.rightButton,Ishi_mouse.clicked_name,Ishi_loop.thisRepN,Ishi_loop.thisTrialN,Ishi_loop.thisN,Ishi_loop.thisIndex,Ishi_loop.ran,imageaddress,textbox.text,mouse_4.x,mouse_4.y,mouse_4.leftButton,mouse_4.midButton,mouse_4.rightButton,mouse_4.clicked_name,textbox_2.text,mouse_8.x,mouse_8.y,mouse_8.leftButton,mouse_8.midButton,mouse_8.rightButton,mouse_8.clicked_name,textbox_3.text,mouse_9.x,mouse_9.y,mouse_9.leftButton,mouse_9.midButton,mouse_9.rightButton,mouse_9.clicked_name,textbox_4.text,mouse_12.x,mouse_12.y,mouse_12.leftButton,mouse_12.midButton,mouse_12.rightButton,mouse_12.clicked_name,textbox_5.text,mouse_13.x,mouse_13.y,mouse_13.leftButton,mouse_13.midButton,mouse_13.rightButton,mouse_13.clicked_name,textbox_6.text,mouse_14.x,mouse_14.y,mouse_14.leftButton,mouse_14.midButton,mouse_14.rightButton,textbox_7.text,mouse_15.x,mouse_15.y,mouse_15.leftButton,mouse_15.midButton,mouse_15.rightButton
0,0,0,21,1,,613af1d83ec1a51d557b4dd2,62c53a6513458ccbebe36d39,2022-07-06_02h32.03.405,Colour_Asymmetry_Pilot,2022.1.3,Win32,239.4636015,62c50e9c1127f2cd403a315f,,,,,,,,,,,,,,,,,,,,,,,,,,,,,,,,,,,,,,,,,,,,,,,,,,,,,,,,,,,,,,,,,,,,,,,,,,,,,,,,,,,,,,,,,,,,,,,,,,,,,,,,,,,,,,,,,,,,,,,,,,,,,,,,,,,,,,,,,,,,,,,,,,,,,,,,,,,,,,,,,
0,1,1,85,1,,613af1d83ec1a51d557b4dd2,62c53a6513458ccbebe36d39,2022-07-06_02h32.03.405,Colour_Asymmetry_Pilot,2022.1.3,Win32,239.4636015,62c50e9c1127f2cd403a315f,,,,,,,,,,,,,,,,,,,,,,,,,,,,,,,,,,,,,,,,,,,,,,,,,,,,,,,,,,,,,,,,,,,,,,,,,,,,,,,,,,,,,,,,,,,,,,,,,,,,,,,,,,,,,,,,,,,,,,,,,,,,,,,,,,,,,,,,,,,,,,,,,,,,,,,,,,,,,,,,,
0,2,2,18,1,,613af1d83ec1a51d557b4dd2,62c53a6513458ccbebe36d39,2022-07-06_02h32.03.405,Colour_Asymmetry_Pilot,2022.1.3,Win32,239.4636015,62c50e9c1127f2cd403a315f,,,,,,,,,,,,,,,,,,,,,,,,,,,,,,,,,,,,,,,,,,,,,,,,,,,,,,,,,,,,,,,,,,,,,,,,,,,,,,,,,,,,,,,,,,,,,,,,,,,,,,,,,,,,,,,,,,,,,,,,,,,,,,,,,,,,,,,,,,,,,,,,,,,,,,,,,,,,,,,,,
0,3,3,69,1,,613af1d83ec1a51d557b4dd2,62c53a6513458ccbebe36d39,2022-07-06_02h32.03.405,Colour_Asymmetry_Pilot,2022.1.3,Win32,239.4636015,62c50e9c1127f2cd403a315f,,,,,,,,,,,,,,,,,,,,,,,,,,,,,,,,,,,,,,,,,,,,,,,,,,,,,,,,,,,,,,,,,,,,,,,,,,,,,,,,,,,,,,,,,,,,,,,,,,,,,,,,,,,,,,,,,,,,,,,,,,,,,,,,,,,,,,,,,,,,,,,,,,,,,,,,,,,,,,,,,
0,4,4,80,1,,613af1d83ec1a51d557b4dd2,62c53a6513458ccbebe36d39,2022-07-06_02h32.03.405,Colour_Asymmetry_Pilot,2022.1.3,Win32,239.4636015,62c50e9c1127f2cd403a315f,,,,,,,,,,,,,,,,,,,,,,,,,,,,,,,,,,,,,,,,,,,,,,,,,,,,,,,,,,,,,,,,,,,,,,,,,,,,,,,,,,,,,,,,,,,,,,,,,,,,,,,,,,,,,,,,,,,,,,,,,,,,,,,,,,,,,,,,,,,,,,,,,,,,,,,,,,,,,,,,,
0,5,5,10,1,,613af1d83ec1a51d557b4dd2,62c53a6513458ccbebe36d39,2022-07-06_02h32.03.405,Colour_Asymmetry_Pilot,2022.1.3,Win32,239.4636015,62c50e9c1127f2cd403a315f,,,,,,,,,,,,,,,,,,,,,,,,,,,,,,,,,,,,,,,,,,,,,,,,,,,,,,,,,,,,,,,,,,,,,,,,,,,,,,,,,,,,,,,,,,,,,,,,,,,,,,,,,,,,,,,,,,,,,,,,,,,,,,,,,,,,,,,,,,,,,,,,,,,,,,,,,,,,,,,,,
0,6,6,35,1,,613af1d83ec1a51d557b4dd2,62c53a6513458ccbebe36d39,2022-07-06_02h32.03.405,Colour_Asymmetry_Pilot,2022.1.3,Win32,239.4636015,62c50e9c1127f2cd403a315f,,,,,,,,,,,,,,,,,,,,,,,,,,,,,,,,,,,,,,,,,,,,,,,,,,,,,,,,,,,,,,,,,,,,,,,,,,,,,,,,,,,,,,,,,,,,,,,,,,,,,,,,,,,,,,,,,,,,,,,,,,,,,,,,,,,,,,,,,,,,,,,,,,,,,,,,,,,,,,,,,
0,7,7,70,1,,613af1d83ec1a51d557b4dd2,62c53a6513458ccbebe36d39,2022-07-06_02h32.03.405,Colour_Asymmetry_Pilot,2022.1.3,Win32,239.4636015,62c50e9c1127f2cd403a315f,,,,,,,,,,,,,,,,,,,,,,,,,,,,,,,,,,,,,,,,,,,,,,,,,,,,,,,,,,,,,,,,,,,,,,,,,,,,,,,,,,,,,,,,,,,,,,,,,,,,,,,,,,,,,,,,,,,,,,,,,,,,,,,,,,,,,,,,,,,,,,,,,,,,,,,,,,,,,,,,,
0,8,8,12,1,,613af1d83ec1a51d557b4dd2,62c53a6513458ccbebe36d39,2022-07-06_02h32.03.405,Colour_Asymmetry_Pilot,2022.1.3,Win32,239.4636015,62c50e9c1127f2cd403a315f,,,,,,,,,,,,,,,,,,,,,,,,,,,,,,,,,,,,,,,,,,,,,,,,,,,,,,,,,,,,,,,,,,,,,,,,,,,,,,,,,,,,,,,,,,,,,,,,,,,,,,,,,,,,,,,,,,,,,,,,,,,,,,,,,,,,,,,,,,,,,,,,,,,,,,,,,,,,,,,,,
0,9,9,38,1,,613af1d83ec1a51d557b4dd2,62c53a6513458ccbebe36d39,2022-07-06_02h32.03.405,Colour_Asymmetry_Pilot,2022.1.3,Win32,239.4636015,62c50e9c1127f2cd403a315f,,,,,,,,,,,,,,,,,,,,,,,,,,,,,,,,,,,,,,,,,,,,,,,,,,,,,,,,,,,,,,,,,,,,,,,,,,,,,,,,,,,,,,,,,,,,,,,,,,,,,,,,,,,,,,,,,,,,,,,,,,,,,,,,,,,,,,,,,,,,,,,,,,,,,,,,,,,,,,,,,
0,10,10,88,1,,613af1d83ec1a51d557b4dd2,62c53a6513458ccbebe36d39,2022-07-06_02h32.03.405,Colour_Asymmetry_Pilot,2022.1.3,Win32,239.4636015,62c50e9c1127f2cd403a315f,,,,,,,,,,,,,,,,,,,,,,,,,,,,,,,,,,,,,,,,,,,,,,,,,,,,,,,,,,,,,,,,,,,,,,,,,,,,,,,,,,,,,,,,,,,,,,,,,,,,,,,,,,,,,,,,,,,,,,,,,,,,,,,,,,,,,,,,,,,,,,,,,,,,,,,,,,,,,,,,,
0,11,11,84,1,,613af1d83ec1a51d557b4dd2,62c53a6513458ccbebe36d39,2022-07-06_02h32.03.405,Colour_Asymmetry_Pilot,2022.1.3,Win32,239.4636015,62c50e9c1127f2cd403a315f,,,,,,,,,,,,,,,,,,,,,,,,,,,,,,,,,,,,,,,,,,,,,,,,,,,,,,,,,,,,,,,,,,,,,,,,,,,,,,,,,,,,,,,,,,,,,,,,,,,,,,,,,,,,,,,,,,,,,,,,,,,,,,,,,,,,,,,,,,,,,,,,,,,,,,,,,,,,,,,,,
0,12,12,47,1,,613af1d83ec1a51d557b4dd2,62c53a6513458ccbebe36d39,2022-07-06_02h32.03.405,Colour_Asymmetry_Pilot,2022.1.3,Win32,239.4636015,62c50e9c1127f2cd403a315f,,,,,,,,,,,,,,,,,,,,,,,,,,,,,,,,,,,,,,,,,,,,,,,,,,,,,,,,,,,,,,,,,,,,,,,,,,,,,,,,,,,,,,,,,,,,,,,,,,,,,,,,,,,,,,,,,,,,,,,,,,,,,,,,,,,,,,,,,,,,,,,,,,,,,,,,,,,,,,,,,
0,13,13,86,1,,613af1d83ec1a51d557b4dd2,62c53a6513458ccbebe36d39,2022-07-06_02h32.03.405,Colour_Asymmetry_Pilot,2022.1.3,Win32,239.4636015,62c50e9c1127f2cd403a315f,,,,,,,,,,,,,,,,,,,,,,,,,,,,,,,,,,,,,,,,,,,,,,,,,,,,,,,,,,,,,,,,,,,,,,,,,,,,,,,,,,,,,,,,,,,,,,,,,,,,,,,,,,,,,,,,,,,,,,,,,,,,,,,,,,,,,,,,,,,,,,,,,,,,,,,,,,,,,,,,,
0,14,14,50,1,,613af1d83ec1a51d557b4dd2,62c53a6513458ccbebe36d39,2022-07-06_02h32.03.405,Colour_Asymmetry_Pilot,2022.1.3,Win32,239.4636015,62c50e9c1127f2cd403a315f,,,,,,,,,,,,,,,,,,,,,,,,,,,,,,,,,,,,,,,,,,,,,,,,,,,,,,,,,,,,,,,,,,,,,,,,,,,,,,,,,,,,,,,,,,,,,,,,,,,,,,,,,,,,,,,,,,,,,,,,,,,,,,,,,,,,,,,,,,,,,,,,,,,,,,,,,,,,,,,,,
0,15,15,22,1,,613af1d83ec1a51d557b4dd2,62c53a6513458ccbebe36d39,2022-07-06_02h32.03.405,Colour_Asymmetry_Pilot,2022.1.3,Win32,239.4636015,62c50e9c1127f2cd403a315f,,,,,,,,,,,,,,,,,,,,,,,,,,,,,,,,,,,,,,,,,,,,,,,,,,,,,,,,,,,,,,,,,,,,,,,,,,,,,,,,,,,,,,,,,,,,,,,,,,,,,,,,,,,,,,,,,,,,,,,,,,,,,,,,,,,,,,,,,,,,,,,,,,,,,,,,,,,,,,,,,
0,16,16,24,1,,613af1d83ec1a51d557b4dd2,62c53a6513458ccbebe36d39,2022-07-06_02h32.03.405,Colour_Asymmetry_Pilot,2022.1.3,Win32,239.4636015,62c50e9c1127f2cd403a315f,,,,,,,,,,,,,,,,,,,,,,,,,,,,,,,,,,,,,,,,,,,,,,,,,,,,,,,,,,,,,,,,,,,,,,,,,,,,,,,,,,,,,,,,,,,,,,,,,,,,,,,,,,,,,,,,,,,,,,,,,,,,,,,,,,,,,,,,,,,,,,,,,,,,,,,,,,,,,,,,,
0,17,17,66,1,,613af1d83ec1a51d557b4dd2,62c53a6513458ccbebe36d39,2022-07-06_02h32.03.405,Colour_Asymmetry_Pilot,2022.1.3,Win32,239.4636015,62c50e9c1127f2cd403a315f,,,,,,,,,,,,,,,,,,,,,,,,,,,,,,,,,,,,,,,,,,,,,,,,,,,,,,,,,,,,,,,,,,,,,,,,,,,,,,,,,,,,,,,,,,,,,,,,,,,,,,,,,,,,,,,,,,,,,,,,,,,,,,,,,,,,,,,,,,,,,,,,,,,,,,,,,,,,,,,,,
0,18,18,52,1,,613af1d83ec1a51d557b4dd2,62c53a6513458ccbebe36d39,2022-07-06_02h32.03.405,Colour_Asymmetry_Pilot,2022.1.3,Win32,239.4636015,62c50e9c1127f2cd403a315f,,,,,,,,,,,,,,,,,,,,,,,,,,,,,,,,,,,,,,,,,,,,,,,,,,,,,,,,,,,,,,,,,,,,,,,,,,,,,,,,,,,,,,,,,,,,,,,,,,,,,,,,,,,,,,,,,,,,,,,,,,,,,,,,,,,,,,,,,,,,,,,,,,,,,,,,,,,,,,,,,
0,19,19,3,1,,613af1d83ec1a51d557b4dd2,62c53a6513458ccbebe36d39,2022-07-06_02h32.03.405,Colour_Asymmetry_Pilot,2022.1.3,Win32,239.4636015,62c50e9c1127f2cd403a315f,,,,,,,,,,,,,,,,,,,,,,,,,,,,,,,,,,,,,,,,,,,,,,,,,,,,,,,,,,,,,,,,,,,,,,,,,,,,,,,,,,,,,,,,,,,,,,,,,,,,,,,,,,,,,,,,,,,,,,,,,,,,,,,,,,,,,,,,,,,,,,,,,,,,,,,,,,,,,,,,,
0,20,20,37,1,,613af1d83ec1a51d557b4dd2,62c53a6513458ccbebe36d39,2022-07-06_02h32.03.405,Colour_Asymmetry_Pilot,2022.1.3,Win32,239.4636015,62c50e9c1127f2cd403a315f,,,,,,,,,,,,,,,,,,,,,,,,,,,,,,,,,,,,,,,,,,,,,,,,,,,,,,,,,,,,,,,,,,,,,,,,,,,,,,,,,,,,,,,,,,,,,,,,,,,,,,,,,,,,,,,,,,,,,,,,,,,,,,,,,,,,,,,,,,,,,,,,,,,,,,,,,,,,,,,,,
0,21,21,41,1,,613af1d83ec1a51d557b4dd2,62c53a6513458ccbebe36d39,2022-07-06_02h32.03.405,Colour_Asymmetry_Pilot,2022.1.3,Win32,239.4636015,62c50e9c1127f2cd403a315f,,,,,,,,,,,,,,,,,,,,,,,,,,,,,,,,,,,,,,,,,,,,,,,,,,,,,,,,,,,,,,,,,,,,,,,,,,,,,,,,,,,,,,,,,,,,,,,,,,,,,,,,,,,,,,,,,,,,,,,,,,,,,,,,,,,,,,,,,,,,,,,,,,,,,,,,,,,,,,,,,
0,22,22,26,1,,613af1d83ec1a51d557b4dd2,62c53a6513458ccbebe36d39,2022-07-06_02h32.03.405,Colour_Asymmetry_Pilot,2022.1.3,Win32,239.4636015,62c50e9c1127f2cd403a315f,,,,,,,,,,,,,,,,,,,,,,,,,,,,,,,,,,,,,,,,,,,,,,,,,,,,,,,,,,,,,,,,,,,,,,,,,,,,,,,,,,,,,,,,,,,,,,,,,,,,,,,,,,,,,,,,,,,,,,,,,,,,,,,,,,,,,,,,,,,,,,,,,,,,,,,,,,,,,,,,,
0,23,23,42,1,,613af1d83ec1a51d557b4dd2,62c53a6513458ccbebe36d39,2022-07-06_02h32.03.405,Colour_Asymmetry_Pilot,2022.1.3,Win32,239.4636015,62c50e9c1127f2cd403a315f,,,,,,,,,,,,,,,,,,,,,,,,,,,,,,,,,,,,,,,,,,,,,,,,,,,,,,,,,,,,,,,,,,,,,,,,,,,,,,,,,,,,,,,,,,,,,,,,,,,,,,,,,,,,,,,,,,,,,,,,,,,,,,,,,,,,,,,,,,,,,,,,,,,,,,,,,,,,,,,,,
0,24,24,45,1,,613af1d83ec1a51d557b4dd2,62c53a6513458ccbebe36d39,2022-07-06_02h32.03.405,Colour_Asymmetry_Pilot,2022.1.3,Win32,239.4636015,62c50e9c1127f2cd403a315f,,,,,,,,,,,,,,,,,,,,,,,,,,,,,,,,,,,,,,,,,,,,,,,,,,,,,,,,,,,,,,,,,,,,,,,,,,,,,,,,,,,,,,,,,,,,,,,,,,,,,,,,,,,,,,,,,,,,,,,,,,,,,,,,,,,,,,,,,,,,,,,,,,,,,,,,,,,,,,,,,
0,25,25,77,1,,613af1d83ec1a51d557b4dd2,62c53a6513458ccbebe36d39,2022-07-06_02h32.03.405,Colour_Asymmetry_Pilot,2022.1.3,Win32,239.4636015,62c50e9c1127f2cd403a315f,,,,,,,,,,,,,,,,,,,,,,,,,,,,,,,,,,,,,,,,,,,,,,,,,,,,,,,,,,,,,,,,,,,,,,,,,,,,,,,,,,,,,,,,,,,,,,,,,,,,,,,,,,,,,,,,,,,,,,,,,,,,,,,,,,,,,,,,,,,,,,,,,,,,,,,,,,,,,,,,,
0,26,26,73,1,,613af1d83ec1a51d557b4dd2,62c53a6513458ccbebe36d39,2022-07-06_02h32.03.405,Colour_Asymmetry_Pilot,2022.1.3,Win32,239.4636015,62c50e9c1127f2cd403a315f,,,,,,,,,,,,,,,,,,,,,,,,,,,,,,,,,,,,,,,,,,,,,,,,,,,,,,,,,,,,,,,,,,,,,,,,,,,,,,,,,,,,,,,,,,,,,,,,,,,,,,,,,,,,,,,,,,,,,,,,,,,,,,,,,,,,,,,,,,,,,,,,,,,,,,,,,,,,,,,,,
0,27,27,0,1,,613af1d83ec1a51d557b4dd2,62c53a6513458ccbebe36d39,2022-07-06_02h32.03.405,Colour_Asymmetry_Pilot,2022.1.3,Win32,239.4636015,62c50e9c1127f2cd403a315f,,,,,,,,,,,,,,,,,,,,,,,,,,,,,,,,,,,,,,,,,,,,,,,,,,,,,,,,,,,,,,,,,,,,,,,,,,,,,,,,,,,,,,,,,,,,,,,,,,,,,,,,,,,,,,,,,,,,,,,,,,,,,,,,,,,,,,,,,,,,,,,,,,,,,,,,,,,,,,,,,
0,28,28,67,1,,613af1d83ec1a51d557b4dd2,62c53a6513458ccbebe36d39,2022-07-06_02h32.03.405,Colour_Asymmetry_Pilot,2022.1.3,Win32,239.4636015,62c50e9c1127f2cd403a315f,,,,,,,,,,,,,,,,,,,,,,,,,,,,,,,,,,,,,,,,,,,,,,,,,,,,,,,,,,,,,,,,,,,,,,,,,,,,,,,,,,,,,,,,,,,,,,,,,,,,,,,,,,,,,,,,,,,,,,,,,,,,,,,,,,,,,,,,,,,,,,,,,,,,,,,,,,,,,,,,,
0,29,29,90,1,,613af1d83ec1a51d557b4dd2,62c53a6513458ccbebe36d39,2022-07-06_02h32.03.405,Colour_Asymmetry_Pilot,2022.1.3,Win32,239.4636015,62c50e9c1127f2cd403a315f,,,,,,,,,,,,,,,,,,,,,,,,,,,,,,,,,,,,,,,,,,,,,,,,,,,,,,,,,,,,,,,,,,,,,,,,,,,,,,,,,,,,,,,,,,,,,,,,,,,,,,,,,,,,,,,,,,,,,,,,,,,,,,,,,,,,,,,,,,,,,,,,,,,,,,,,,,,,,,,,,
0,30,30,49,1,,613af1d83ec1a51d557b4dd2,62c53a6513458ccbebe36d39,2022-07-06_02h32.03.405,Colour_Asymmetry_Pilot,2022.1.3,Win32,239.4636015,62c50e9c1127f2cd403a315f,,,,,,,,,,,,,,,,,,,,,,,,,,,,,,,,,,,,,,,,,,,,,,,,,,,,,,,,,,,,,,,,,,,,,,,,,,,,,,,,,,,,,,,,,,,,,,,,,,,,,,,,,,,,,,,,,,,,,,,,,,,,,,,,,,,,,,,,,,,,,,,,,,,,,,,,,,,,,,,,,
0,31,31,5,1,,613af1d83ec1a51d557b4dd2,62c53a6513458ccbebe36d39,2022-07-06_02h32.03.405,Colour_Asymmetry_Pilot,2022.1.3,Win32,239.4636015,62c50e9c1127f2cd403a315f,,,,,,,,,,,,,,,,,,,,,,,,,,,,,,,,,,,,,,,,,,,,,,,,,,,,,,,,,,,,,,,,,,,,,,,,,,,,,,,,,,,,,,,,,,,,,,,,,,,,,,,,,,,,,,,,,,,,,,,,,,,,,,,,,,,,,,,,,,,,,,,,,,,,,,,,,,,,,,,,,
0,32,32,19,1,,613af1d83ec1a51d557b4dd2,62c53a6513458ccbebe36d39,2022-07-06_02h32.03.405,Colour_Asymmetry_Pilot,2022.1.3,Win32,239.4636015,62c50e9c1127f2cd403a315f,,,,,,,,,,,,,,,,,,,,,,,,,,,,,,,,,,,,,,,,,,,,,,,,,,,,,,,,,,,,,,,,,,,,,,,,,,,,,,,,,,,,,,,,,,,,,,,,,,,,,,,,,,,,,,,,,,,,,,,,,,,,,,,,,,,,,,,,,,,,,,,,,,,,,,,,,,,,,,,,,
0,33,33,57,1,,613af1d83ec1a51d557b4dd2,62c53a6513458ccbebe36d39,2022-07-06_02h32.03.405,Colour_Asymmetry_Pilot,2022.1.3,Win32,239.4636015,62c50e9c1127f2cd403a315f,,,,,,,,,,,,,,,,,,,,,,,,,,,,,,,,,,,,,,,,,,,,,,,,,,,,,,,,,,,,,,,,,,,,,,,,,,,,,,,,,,,,,,,,,,,,,,,,,,,,,,,,,,,,,,,,,,,,,,,,,,,,,,,,,,,,,,,,,,,,,,,,,,,,,,,,,,,,,,,,,
0,34,34,33,1,,613af1d83ec1a51d557b4dd2,62c53a6513458ccbebe36d39,2022-07-06_02h32.03.405,Colour_Asymmetry_Pilot,2022.1.3,Win32,239.4636015,62c50e9c1127f2cd403a315f,,,,,,,,,,,,,,,,,,,,,,,,,,,,,,,,,,,,,,,,,,,,,,,,,,,,,,,,,,,,,,,,,,,,,,,,,,,,,,,,,,,,,,,,,,,,,,,,,,,,,,,,,,,,,,,,,,,,,,,,,,,,,,,,,,,,,,,,,,,,,,,,,,,,,,,,,,,,,,,,,
0,35,35,44,1,,613af1d83ec1a51d557b4dd2,62c53a6513458ccbebe36d39,2022-07-06_02h32.03.405,Colour_Asymmetry_Pilot,2022.1.3,Win32,239.4636015,62c50e9c1127f2cd403a315f,,,,,,,,,,,,,,,,,,,,,,,,,,,,,,,,,,,,,,,,,,,,,,,,,,,,,,,,,,,,,,,,,,,,,,,,,,,,,,,,,,,,,,,,,,,,,,,,,,,,,,,,,,,,,,,,,,,,,,,,,,,,,,,,,,,,,,,,,,,,,,,,,,,,,,,,,,,,,,,,,
0,36,36,30,1,,613af1d83ec1a51d557b4dd2,62c53a6513458ccbebe36d39,2022-07-06_02h32.03.405,Colour_Asymmetry_Pilot,2022.1.3,Win32,239.4636015,62c50e9c1127f2cd403a315f,,,,,,,,,,,,,,,,,,,,,,,,,,,,,,,,,,,,,,,,,,,,,,,,,,,,,,,,,,,,,,,,,,,,,,,,,,,,,,,,,,,,,,,,,,,,,,,,,,,,,,,,,,,,,,,,,,,,,,,,,,,,,,,,,,,,,,,,,,,,,,,,,,,,,,,,,,,,,,,,,
0,37,37,56,1,,613af1d83ec1a51d557b4dd2,62c53a6513458ccbebe36d39,2022-07-06_02h32.03.405,Colour_Asymmetry_Pilot,2022.1.3,Win32,239.4636015,62c50e9c1127f2cd403a315f,,,,,,,,,,,,,,,,,,,,,,,,,,,,,,,,,,,,,,,,,,,,,,,,,,,,,,,,,,,,,,,,,,,,,,,,,,,,,,,,,,,,,,,,,,,,,,,,,,,,,,,,,,,,,,,,,,,,,,,,,,,,,,,,,,,,,,,,,,,,,,,,,,,,,,,,,,,,,,,,,
0,38,38,83,1,,613af1d83ec1a51d557b4dd2,62c53a6513458ccbebe36d39,2022-07-06_02h32.03.405,Colour_Asymmetry_Pilot,2022.1.3,Win32,239.4636015,62c50e9c1127f2cd403a315f,,,,,,,,,,,,,,,,,,,,,,,,,,,,,,,,,,,,,,,,,,,,,,,,,,,,,,,,,,,,,,,,,,,,,,,,,,,,,,,,,,,,,,,,,,,,,,,,,,,,,,,,,,,,,,,,,,,,,,,,,,,,,,,,,,,,,,,,,,,,,,,,,,,,,,,,,,,,,,,,,
0,39,39,28,1,,613af1d83ec1a51d557b4dd2,62c53a6513458ccbebe36d39,2022-07-06_02h32.03.405,Colour_Asymmetry_Pilot,2022.1.3,Win32,239.4636015,62c50e9c1127f2cd403a315f,,,,,,,,,,,,,,,,,,,,,,,,,,,,,,,,,,,,,,,,,,,,,,,,,,,,,,,,,,,,,,,,,,,,,,,,,,,,,,,,,,,,,,,,,,,,,,,,,,,,,,,,,,,,,,,,,,,,,,,,,,,,,,,,,,,,,,,,,,,,,,,,,,,,,,,,,,,,,,,,,
0,40,40,61,1,,613af1d83ec1a51d557b4dd2,62c53a6513458ccbebe36d39,2022-07-06_02h32.03.405,Colour_Asymmetry_Pilot,2022.1.3,Win32,239.4636015,62c50e9c1127f2cd403a315f,,,,,,,,,,,,,,,,,,,,,,,,,,,,,,,,,,,,,,,,,,,,,,,,,,,,,,,,,,,,,,,,,,,,,,,,,,,,,,,,,,,,,,,,,,,,,,,,,,,,,,,,,,,,,,,,,,,,,,,,,,,,,,,,,,,,,,,,,,,,,,,,,,,,,,,,,,,,,,,,,
0,41,41,63,1,,613af1d83ec1a51d557b4dd2,62c53a6513458ccbebe36d39,2022-07-06_02h32.03.405,Colour_Asymmetry_Pilot,2022.1.3,Win32,239.4636015,62c50e9c1127f2cd403a315f,,,,,,,,,,,,,,,,,,,,,,,,,,,,,,,,,,,,,,,,,,,,,,,,,,,,,,,,,,,,,,,,,,,,,,,,,,,,,,,,,,,,,,,,,,,,,,,,,,,,,,,,,,,,,,,,,,,,,,,,,,,,,,,,,,,,,,,,,,,,,,,,,,,,,,,,,,,,,,,,,
0,42,42,65,1,,613af1d83ec1a51d557b4dd2,62c53a6513458ccbebe36d39,2022-07-06_02h32.03.405,Colour_Asymmetry_Pilot,2022.1.3,Win32,239.4636015,62c50e9c1127f2cd403a315f,,,,,,,,,,,,,,,,,,,,,,,,,,,,,,,,,,,,,,,,,,,,,,,,,,,,,,,,,,,,,,,,,,,,,,,,,,,,,,,,,,,,,,,,,,,,,,,,,,,,,,,,,,,,,,,,,,,,,,,,,,,,,,,,,,,,,,,,,,,,,,,,,,,,,,,,,,,,,,,,,
0,43,43,4,1,,613af1d83ec1a51d557b4dd2,62c53a6513458ccbebe36d39,2022-07-06_02h32.03.405,Colour_Asymmetry_Pilot,2022.1.3,Win32,239.4636015,62c50e9c1127f2cd403a315f,,,,,,,,,,,,,,,,,,,,,,,,,,,,,,,,,,,,,,,,,,,,,,,,,,,,,,,,,,,,,,,,,,,,,,,,,,,,,,,,,,,,,,,,,,,,,,,,,,,,,,,,,,,,,,,,,,,,,,,,,,,,,,,,,,,,,,,,,,,,,,,,,,,,,,,,,,,,,,,,,
0,44,44,46,1,,613af1d83ec1a51d557b4dd2,62c53a6513458ccbebe36d39,2022-07-06_02h32.03.405,Colour_Asymmetry_Pilot,2022.1.3,Win32,239.4636015,62c50e9c1127f2cd403a315f,,,,,,,,,,,,,,,,,,,,,,,,,,,,,,,,,,,,,,,,,,,,,,,,,,,,,,,,,,,,,,,,,,,,,,,,,,,,,,,,,,,,,,,,,,,,,,,,,,,,,,,,,,,,,,,,,,,,,,,,,,,,,,,,,,,,,,,,,,,,,,,,,,,,,,,,,,,,,,,,,
0,45,45,60,1,,613af1d83ec1a51d557b4dd2,62c53a6513458ccbebe36d39,2022-07-06_02h32.03.405,Colour_Asymmetry_Pilot,2022.1.3,Win32,239.4636015,62c50e9c1127f2cd403a315f,,,,,,,,,,,,,,,,,,,,,,,,,,,,,,,,,,,,,,,,,,,,,,,,,,,,,,,,,,,,,,,,,,,,,,,,,,,,,,,,,,,,,,,,,,,,,,,,,,,,,,,,,,,,,,,,,,,,,,,,,,,,,,,,,,,,,,,,,,,,,,,,,,,,,,,,,,,,,,,,,
0,46,46,39,1,,613af1d83ec1a51d557b4dd2,62c53a6513458ccbebe36d39,2022-07-06_02h32.03.405,Colour_Asymmetry_Pilot,2022.1.3,Win32,239.4636015,62c50e9c1127f2cd403a315f,,,,,,,,,,,,,,,,,,,,,,,,,,,,,,,,,,,,,,,,,,,,,,,,,,,,,,,,,,,,,,,,,,,,,,,,,,,,,,,,,,,,,,,,,,,,,,,,,,,,,,,,,,,,,,,,,,,,,,,,,,,,,,,,,,,,,,,,,,,,,,,,,,,,,,,,,,,,,,,,,
0,47,47,16,1,,613af1d83ec1a51d557b4dd2,62c53a6513458ccbebe36d39,2022-07-06_02h32.03.405,Colour_Asymmetry_Pilot,2022.1.3,Win32,239.4636015,62c50e9c1127f2cd403a315f,,,,,,,,,,,,,,,,,,,,,,,,,,,,,,,,,,,,,,,,,,,,,,,,,,,,,,,,,,,,,,,,,,,,,,,,,,,,,,,,,,,,,,,,,,,,,,,,,,,,,,,,,,,,,,,,,,,,,,,,,,,,,,,,,,,,,,,,,,,,,,,,,,,,,,,,,,,,,,,,,
0,48,48,31,1,,613af1d83ec1a51d557b4dd2,62c53a6513458ccbebe36d39,2022-07-06_02h32.03.405,Colour_Asymmetry_Pilot,2022.1.3,Win32,239.4636015,62c50e9c1127f2cd403a315f,,,,,,,,,,,,,,,,,,,,,,,,,,,,,,,,,,,,,,,,,,,,,,,,,,,,,,,,,,,,,,,,,,,,,,,,,,,,,,,,,,,,,,,,,,,,,,,,,,,,,,,,,,,,,,,,,,,,,,,,,,,,,,,,,,,,,,,,,,,,,,,,,,,,,,,,,,,,,,,,,
0,49,49,48,1,,613af1d83ec1a51d557b4dd2,62c53a6513458ccbebe36d39,2022-07-06_02h32.03.405,Colour_Asymmetry_Pilot,2022.1.3,Win32,239.4636015,62c50e9c1127f2cd403a315f,,,,,,,,,,,,,,,,,,,,,,,,,,,,,,,,,,,,,,,,,,,,,,,,,,,,,,,,,,,,,,,,,,,,,,,,,,,,,,,,,,,,,,,,,,,,,,,,,,,,,,,,,,,,,,,,,,,,,,,,,,,,,,,,,,,,,,,,,,,,,,,,,,,,,,,,,,,,,,,,,
0,50,50,36,1,,613af1d83ec1a51d557b4dd2,62c53a6513458ccbebe36d39,2022-07-06_02h32.03.405,Colour_Asymmetry_Pilot,2022.1.3,Win32,239.4636015,62c50e9c1127f2cd403a315f,,,,,,,,,,,,,,,,,,,,,,,,,,,,,,,,,,,,,,,,,,,,,,,,,,,,,,,,,,,,,,,,,,,,,,,,,,,,,,,,,,,,,,,,,,,,,,,,,,,,,,,,,,,,,,,,,,,,,,,,,,,,,,,,,,,,,,,,,,,,,,,,,,,,,,,,,,,,,,,,,
0,51,51,55,1,,613af1d83ec1a51d557b4dd2,62c53a6513458ccbebe36d39,2022-07-06_02h32.03.405,Colour_Asymmetry_Pilot,2022.1.3,Win32,239.4636015,62c50e9c1127f2cd403a315f,,,,,,,,,,,,,,,,,,,,,,,,,,,,,,,,,,,,,,,,,,,,,,,,,,,,,,,,,,,,,,,,,,,,,,,,,,,,,,,,,,,,,,,,,,,,,,,,,,,,,,,,,,,,,,,,,,,,,,,,,,,,,,,,,,,,,,,,,,,,,,,,,,,,,,,,,,,,,,,,,
0,52,52,72,1,,613af1d83ec1a51d557b4dd2,62c53a6513458ccbebe36d39,2022-07-06_02h32.03.405,Colour_Asymmetry_Pilot,2022.1.3,Win32,239.4636015,62c50e9c1127f2cd403a315f,,,,,,,,,,,,,,,,,,,,,,,,,,,,,,,,,,,,,,,,,,,,,,,,,,,,,,,,,,,,,,,,,,,,,,,,,,,,,,,,,,,,,,,,,,,,,,,,,,,,,,,,,,,,,,,,,,,,,,,,,,,,,,,,,,,,,,,,,,,,,,,,,,,,,,,,,,,,,,,,,
0,53,53,89,1,,613af1d83ec1a51d557b4dd2,62c53a6513458ccbebe36d39,2022-07-06_02h32.03.405,Colour_Asymmetry_Pilot,2022.1.3,Win32,239.4636015,62c50e9c1127f2cd403a315f,,,,,,,,,,,,,,,,,,,,,,,,,,,,,,,,,,,,,,,,,,,,,,,,,,,,,,,,,,,,,,,,,,,,,,,,,,,,,,,,,,,,,,,,,,,,,,,,,,,,,,,,,,,,,,,,,,,,,,,,,,,,,,,,,,,,,,,,,,,,,,,,,,,,,,,,,,,,,,,,,
0,54,54,75,1,,613af1d83ec1a51d557b4dd2,62c53a6513458ccbebe36d39,2022-07-06_02h32.03.405,Colour_Asymmetry_Pilot,2022.1.3,Win32,239.4636015,62c50e9c1127f2cd403a315f,,,,,,,,,,,,,,,,,,,,,,,,,,,,,,,,,,,,,,,,,,,,,,,,,,,,,,,,,,,,,,,,,,,,,,,,,,,,,,,,,,,,,,,,,,,,,,,,,,,,,,,,,,,,,,,,,,,,,,,,,,,,,,,,,,,,,,,,,,,,,,,,,,,,,,,,,,,,,,,,,
0,55,55,81,1,,613af1d83ec1a51d557b4dd2,62c53a6513458ccbebe36d39,2022-07-06_02h32.03.405,Colour_Asymmetry_Pilot,2022.1.3,Win32,239.4636015,62c50e9c1127f2cd403a315f,,,,,,,,,,,,,,,,,,,,,,,,,,,,,,,,,,,,,,,,,,,,,,,,,,,,,,,,,,,,,,,,,,,,,,,,,,,,,,,,,,,,,,,,,,,,,,,,,,,,,,,,,,,,,,,,,,,,,,,,,,,,,,,,,,,,,,,,,,,,,,,,,,,,,,,,,,,,,,,,,
0,56,56,9,1,,613af1d83ec1a51d557b4dd2,62c53a6513458ccbebe36d39,2022-07-06_02h32.03.405,Colour_Asymmetry_Pilot,2022.1.3,Win32,239.4636015,62c50e9c1127f2cd403a315f,,,,,,,,,,,,,,,,,,,,,,,,,,,,,,,,,,,,,,,,,,,,,,,,,,,,,,,,,,,,,,,,,,,,,,,,,,,,,,,,,,,,,,,,,,,,,,,,,,,,,,,,,,,,,,,,,,,,,,,,,,,,,,,,,,,,,,,,,,,,,,,,,,,,,,,,,,,,,,,,,
0,57,57,23,1,,613af1d83ec1a51d557b4dd2,62c53a6513458ccbebe36d39,2022-07-06_02h32.03.405,Colour_Asymmetry_Pilot,2022.1.3,Win32,239.4636015,62c50e9c1127f2cd403a315f,,,,,,,,,,,,,,,,,,,,,,,,,,,,,,,,,,,,,,,,,,,,,,,,,,,,,,,,,,,,,,,,,,,,,,,,,,,,,,,,,,,,,,,,,,,,,,,,,,,,,,,,,,,,,,,,,,,,,,,,,,,,,,,,,,,,,,,,,,,,,,,,,,,,,,,,,,,,,,,,,
0,58,58,1,1,,613af1d83ec1a51d557b4dd2,62c53a6513458ccbebe36d39,2022-07-06_02h32.03.405,Colour_Asymmetry_Pilot,2022.1.3,Win32,239.4636015,62c50e9c1127f2cd403a315f,,,,,,,,,,,,,,,,,,,,,,,,,,,,,,,,,,,,,,,,,,,,,,,,,,,,,,,,,,,,,,,,,,,,,,,,,,,,,,,,,,,,,,,,,,,,,,,,,,,,,,,,,,,,,,,,,,,,,,,,,,,,,,,,,,,,,,,,,,,,,,,,,,,,,,,,,,,,,,,,,
0,59,59,59,1,,613af1d83ec1a51d557b4dd2,62c53a6513458ccbebe36d39,2022-07-06_02h32.03.405,Colour_Asymmetry_Pilot,2022.1.3,Win32,239.4636015,62c50e9c1127f2cd403a315f,,,,,,,,,,,,,,,,,,,,,,,,,,,,,,,,,,,,,,,,,,,,,,,,,,,,,,,,,,,,,,,,,,,,,,,,,,,,,,,,,,,,,,,,,,,,,,,,,,,,,,,,,,,,,,,,,,,,,,,,,,,,,,,,,,,,,,,,,,,,,,,,,,,,,,,,,,,,,,,,,
0,60,60,71,1,,613af1d83ec1a51d557b4dd2,62c53a6513458ccbebe36d39,2022-07-06_02h32.03.405,Colour_Asymmetry_Pilot,2022.1.3,Win32,239.4636015,62c50e9c1127f2cd403a315f,,,,,,,,,,,,,,,,,,,,,,,,,,,,,,,,,,,,,,,,,,,,,,,,,,,,,,,,,,,,,,,,,,,,,,,,,,,,,,,,,,,,,,,,,,,,,,,,,,,,,,,,,,,,,,,,,,,,,,,,,,,,,,,,,,,,,,,,,,,,,,,,,,,,,,,,,,,,,,,,,
0,61,61,78,1,,613af1d83ec1a51d557b4dd2,62c53a6513458ccbebe36d39,2022-07-06_02h32.03.405,Colour_Asymmetry_Pilot,2022.1.3,Win32,239.4636015,62c50e9c1127f2cd403a315f,,,,,,,,,,,,,,,,,,,,,,,,,,,,,,,,,,,,,,,,,,,,,,,,,,,,,,,,,,,,,,,,,,,,,,,,,,,,,,,,,,,,,,,,,,,,,,,,,,,,,,,,,,,,,,,,,,,,,,,,,,,,,,,,,,,,,,,,,,,,,,,,,,,,,,,,,,,,,,,,,
0,62,62,51,1,,613af1d83ec1a51d557b4dd2,62c53a6513458ccbebe36d39,2022-07-06_02h32.03.405,Colour_Asymmetry_Pilot,2022.1.3,Win32,239.4636015,62c50e9c1127f2cd403a315f,,,,,,,,,,,,,,,,,,,,,,,,,,,,,,,,,,,,,,,,,,,,,,,,,,,,,,,,,,,,,,,,,,,,,,,,,,,,,,,,,,,,,,,,,,,,,,,,,,,,,,,,,,,,,,,,,,,,,,,,,,,,,,,,,,,,,,,,,,,,,,,,,,,,,,,,,,,,,,,,,
0,63,63,62,1,,613af1d83ec1a51d557b4dd2,62c53a6513458ccbebe36d39,2022-07-06_02h32.03.405,Colour_Asymmetry_Pilot,2022.1.3,Win32,239.4636015,62c50e9c1127f2cd403a315f,,,,,,,,,,,,,,,,,,,,,,,,,,,,,,,,,,,,,,,,,,,,,,,,,,,,,,,,,,,,,,,,,,,,,,,,,,,,,,,,,,,,,,,,,,,,,,,,,,,,,,,,,,,,,,,,,,,,,,,,,,,,,,,,,,,,,,,,,,,,,,,,,,,,,,,,,,,,,,,,,
0,64,64,17,1,,613af1d83ec1a51d557b4dd2,62c53a6513458ccbebe36d39,2022-07-06_02h32.03.405,Colour_Asymmetry_Pilot,2022.1.3,Win32,239.4636015,62c50e9c1127f2cd403a315f,,,,,,,,,,,,,,,,,,,,,,,,,,,,,,,,,,,,,,,,,,,,,,,,,,,,,,,,,,,,,,,,,,,,,,,,,,,,,,,,,,,,,,,,,,,,,,,,,,,,,,,,,,,,,,,,,,,,,,,,,,,,,,,,,,,,,,,,,,,,,,,,,,,,,,,,,,,,,,,,,
0,65,65,11,1,,613af1d83ec1a51d557b4dd2,62c53a6513458ccbebe36d39,2022-07-06_02h32.03.405,Colour_Asymmetry_Pilot,2022.1.3,Win32,239.4636015,62c50e9c1127f2cd403a315f,,,,,,,,,,,,,,,,,,,,,,,,,,,,,,,,,,,,,,,,,,,,,,,,,,,,,,,,,,,,,,,,,,,,,,,,,,,,,,,,,,,,,,,,,,,,,,,,,,,,,,,,,,,,,,,,,,,,,,,,,,,,,,,,,,,,,,,,,,,,,,,,,,,,,,,,,,,,,,,,,
0,66,66,34,1,,613af1d83ec1a51d557b4dd2,62c53a6513458ccbebe36d39,2022-07-06_02h32.03.405,Colour_Asymmetry_Pilot,2022.1.3,Win32,239.4636015,62c50e9c1127f2cd403a315f,,,,,,,,,,,,,,,,,,,,,,,,,,,,,,,,,,,,,,,,,,,,,,,,,,,,,,,,,,,,,,,,,,,,,,,,,,,,,,,,,,,,,,,,,,,,,,,,,,,,,,,,,,,,,,,,,,,,,,,,,,,,,,,,,,,,,,,,,,,,,,,,,,,,,,,,,,,,,,,,,
0,67,67,43,1,,613af1d83ec1a51d557b4dd2,62c53a6513458ccbebe36d39,2022-07-06_02h32.03.405,Colour_Asymmetry_Pilot,2022.1.3,Win32,239.4636015,62c50e9c1127f2cd403a315f,,,,,,,,,,,,,,,,,,,,,,,,,,,,,,,,,,,,,,,,,,,,,,,,,,,,,,,,,,,,,,,,,,,,,,,,,,,,,,,,,,,,,,,,,,,,,,,,,,,,,,,,,,,,,,,,,,,,,,,,,,,,,,,,,,,,,,,,,,,,,,,,,,,,,,,,,,,,,,,,,
0,68,68,64,1,,613af1d83ec1a51d557b4dd2,62c53a6513458ccbebe36d39,2022-07-06_02h32.03.405,Colour_Asymmetry_Pilot,2022.1.3,Win32,239.4636015,62c50e9c1127f2cd403a315f,,,,,,,,,,,,,,,,,,,,,,,,,,,,,,,,,,,,,,,,,,,,,,,,,,,,,,,,,,,,,,,,,,,,,,,,,,,,,,,,,,,,,,,,,,,,,,,,,,,,,,,,,,,,,,,,,,,,,,,,,,,,,,,,,,,,,,,,,,,,,,,,,,,,,,,,,,,,,,,,,
0,69,69,20,1,,613af1d83ec1a51d557b4dd2,62c53a6513458ccbebe36d39,2022-07-06_02h32.03.405,Colour_Asymmetry_Pilot,2022.1.3,Win32,239.4636015,62c50e9c1127f2cd403a315f,,,,,,,,,,,,,,,,,,,,,,,,,,,,,,,,,,,,,,,,,,,,,,,,,,,,,,,,,,,,,,,,,,,,,,,,,,,,,,,,,,,,,,,,,,,,,,,,,,,,,,,,,,,,,,,,,,,,,,,,,,,,,,,,,,,,,,,,,,,,,,,,,,,,,,,,,,,,,,,,,
0,70,70,25,1,,613af1d83ec1a51d557b4dd2,62c53a6513458ccbebe36d39,2022-07-06_02h32.03.405,Colour_Asymmetry_Pilot,2022.1.3,Win32,239.4636015,62c50e9c1127f2cd403a315f,,,,,,,,,,,,,,,,,,,,,,,,,,,,,,,,,,,,,,,,,,,,,,,,,,,,,,,,,,,,,,,,,,,,,,,,,,,,,,,,,,,,,,,,,,,,,,,,,,,,,,,,,,,,,,,,,,,,,,,,,,,,,,,,,,,,,,,,,,,,,,,,,,,,,,,,,,,,,,,,,
0,71,71,40,1,,613af1d83ec1a51d557b4dd2,62c53a6513458ccbebe36d39,2022-07-06_02h32.03.405,Colour_Asymmetry_Pilot,2022.1.3,Win32,239.4636015,62c50e9c1127f2cd403a315f,,,,,,,,,,,,,,,,,,,,,,,,,,,,,,,,,,,,,,,,,,,,,,,,,,,,,,,,,,,,,,,,,,,,,,,,,,,,,,,,,,,,,,,,,,,,,,,,,,,,,,,,,,,,,,,,,,,,,,,,,,,,,,,,,,,,,,,,,,,,,,,,,,,,,,,,,,,,,,,,,
0,72,72,14,1,,613af1d83ec1a51d557b4dd2,62c53a6513458ccbebe36d39,2022-07-06_02h32.03.405,Colour_Asymmetry_Pilot,2022.1.3,Win32,239.4636015,62c50e9c1127f2cd403a315f,,,,,,,,,,,,,,,,,,,,,,,,,,,,,,,,,,,,,,,,,,,,,,,,,,,,,,,,,,,,,,,,,,,,,,,,,,,,,,,,,,,,,,,,,,,,,,,,,,,,,,,,,,,,,,,,,,,,,,,,,,,,,,,,,,,,,,,,,,,,,,,,,,,,,,,,,,,,,,,,,
0,73,73,27,1,,613af1d83ec1a51d557b4dd2,62c53a6513458ccbebe36d39,2022-07-06_02h32.03.405,Colour_Asymmetry_Pilot,2022.1.3,Win32,239.4636015,62c50e9c1127f2cd403a315f,,,,,,,,,,,,,,,,,,,,,,,,,,,,,,,,,,,,,,,,,,,,,,,,,,,,,,,,,,,,,,,,,,,,,,,,,,,,,,,,,,,,,,,,,,,,,,,,,,,,,,,,,,,,,,,,,,,,,,,,,,,,,,,,,,,,,,,,,,,,,,,,,,,,,,,,,,,,,,,,,
0,74,74,87,1,,613af1d83ec1a51d557b4dd2,62c53a6513458ccbebe36d39,2022-07-06_02h32.03.405,Colour_Asymmetry_Pilot,2022.1.3,Win32,239.4636015,62c50e9c1127f2cd403a315f,,,,,,,,,,,,,,,,,,,,,,,,,,,,,,,,,,,,,,,,,,,,,,,,,,,,,,,,,,,,,,,,,,,,,,,,,,,,,,,,,,,,,,,,,,,,,,,,,,,,,,,,,,,,,,,,,,,,,,,,,,,,,,,,,,,,,,,,,,,,,,,,,,,,,,,,,,,,,,,,,
0,75,75,7,1,,613af1d83ec1a51d557b4dd2,62c53a6513458ccbebe36d39,2022-07-06_02h32.03.405,Colour_Asymmetry_Pilot,2022.1.3,Win32,239.4636015,62c50e9c1127f2cd403a315f,,,,,,,,,,,,,,,,,,,,,,,,,,,,,,,,,,,,,,,,,,,,,,,,,,,,,,,,,,,,,,,,,,,,,,,,,,,,,,,,,,,,,,,,,,,,,,,,,,,,,,,,,,,,,,,,,,,,,,,,,,,,,,,,,,,,,,,,,,,,,,,,,,,,,,,,,,,,,,,,,
0,76,76,15,1,,613af1d83ec1a51d557b4dd2,62c53a6513458ccbebe36d39,2022-07-06_02h32.03.405,Colour_Asymmetry_Pilot,2022.1.3,Win32,239.4636015,62c50e9c1127f2cd403a315f,,,,,,,,,,,,,,,,,,,,,,,,,,,,,,,,,,,,,,,,,,,,,,,,,,,,,,,,,,,,,,,,,,,,,,,,,,,,,,,,,,,,,,,,,,,,,,,,,,,,,,,,,,,,,,,,,,,,,,,,,,,,,,,,,,,,,,,,,,,,,,,,,,,,,,,,,,,,,,,,,
0,77,77,6,1,,613af1d83ec1a51d557b4dd2,62c53a6513458ccbebe36d39,2022-07-06_02h32.03.405,Colour_Asymmetry_Pilot,2022.1.3,Win32,239.4636015,62c50e9c1127f2cd403a315f,,,,,,,,,,,,,,,,,,,,,,,,,,,,,,,,,,,,,,,,,,,,,,,,,,,,,,,,,,,,,,,,,,,,,,,,,,,,,,,,,,,,,,,,,,,,,,,,,,,,,,,,,,,,,,,,,,,,,,,,,,,,,,,,,,,,,,,,,,,,,,,,,,,,,,,,,,,,,,,,,
0,78,78,82,1,,613af1d83ec1a51d557b4dd2,62c53a6513458ccbebe36d39,2022-07-06_02h32.03.405,Colour_Asymmetry_Pilot,2022.1.3,Win32,239.4636015,62c50e9c1127f2cd403a315f,,,,,,,,,,,,,,,,,,,,,,,,,,,,,,,,,,,,,,,,,,,,,,,,,,,,,,,,,,,,,,,,,,,,,,,,,,,,,,,,,,,,,,,,,,,,,,,,,,,,,,,,,,,,,,,,,,,,,,,,,,,,,,,,,,,,,,,,,,,,,,,,,,,,,,,,,,,,,,,,,
0,79,79,92,1,,613af1d83ec1a51d557b4dd2,62c53a6513458ccbebe36d39,2022-07-06_02h32.03.405,Colour_Asymmetry_Pilot,2022.1.3,Win32,239.4636015,62c50e9c1127f2cd403a315f,,,,,,,,,,,,,,,,,,,,,,,,,,,,,,,,,,,,,,,,,,,,,,,,,,,,,,,,,,,,,,,,,,,,,,,,,,,,,,,,,,,,,,,,,,,,,,,,,,,,,,,,,,,,,,,,,,,,,,,,,,,,,,,,,,,,,,,,,,,,,,,,,,,,,,,,,,,,,,,,,
0,80,80,58,1,,613af1d83ec1a51d557b4dd2,62c53a6513458ccbebe36d39,2022-07-06_02h32.03.405,Colour_Asymmetry_Pilot,2022.1.3,Win32,239.4636015,62c50e9c1127f2cd403a315f,,,,,,,,,,,,,,,,,,,,,,,,,,,,,,,,,,,,,,,,,,,,,,,,,,,,,,,,,,,,,,,,,,,,,,,,,,,,,,,,,,,,,,,,,,,,,,,,,,,,,,,,,,,,,,,,,,,,,,,,,,,,,,,,,,,,,,,,,,,,,,,,,,,,,,,,,,,,,,,,,
0,81,81,76,1,,613af1d83ec1a51d557b4dd2,62c53a6513458ccbebe36d39,2022-07-06_02h32.03.405,Colour_Asymmetry_Pilot,2022.1.3,Win32,239.4636015,62c50e9c1127f2cd403a315f,,,,,,,,,,,,,,,,,,,,,,,,,,,,,,,,,,,,,,,,,,,,,,,,,,,,,,,,,,,,,,,,,,,,,,,,,,,,,,,,,,,,,,,,,,,,,,,,,,,,,,,,,,,,,,,,,,,,,,,,,,,,,,,,,,,,,,,,,,,,,,,,,,,,,,,,,,,,,,,,,
0,82,82,74,1,,613af1d83ec1a51d557b4dd2,62c53a6513458ccbebe36d39,2022-07-06_02h32.03.405,Colour_Asymmetry_Pilot,2022.1.3,Win32,239.4636015,62c50e9c1127f2cd403a315f,,,,,,,,,,,,,,,,,,,,,,,,,,,,,,,,,,,,,,,,,,,,,,,,,,,,,,,,,,,,,,,,,,,,,,,,,,,,,,,,,,,,,,,,,,,,,,,,,,,,,,,,,,,,,,,,,,,,,,,,,,,,,,,,,,,,,,,,,,,,,,,,,,,,,,,,,,,,,,,,,
0,83,83,91,1,,613af1d83ec1a51d557b4dd2,62c53a6513458ccbebe36d39,2022-07-06_02h32.03.405,Colour_Asymmetry_Pilot,2022.1.3,Win32,239.4636015,62c50e9c1127f2cd403a315f,,,,,,,,,,,,,,,,,,,,,,,,,,,,,,,,,,,,,,,,,,,,,,,,,,,,,,,,,,,,,,,,,,,,,,,,,,,,,,,,,,,,,,,,,,,,,,,,,,,,,,,,,,,,,,,,,,,,,,,,,,,,,,,,,,,,,,,,,,,,,,,,,,,,,,,,,,,,,,,,,
0,84,84,54,1,,613af1d83ec1a51d557b4dd2,62c53a6513458ccbebe36d39,2022-07-06_02h32.03.405,Colour_Asymmetry_Pilot,2022.1.3,Win32,239.4636015,62c50e9c1127f2cd403a315f,,,,,,,,,,,,,,,,,,,,,,,,,,,,,,,,,,,,,,,,,,,,,,,,,,,,,,,,,,,,,,,,,,,,,,,,,,,,,,,,,,,,,,,,,,,,,,,,,,,,,,,,,,,,,,,,,,,,,,,,,,,,,,,,,,,,,,,,,,,,,,,,,,,,,,,,,,,,,,,,,
0,85,85,79,1,,613af1d83ec1a51d557b4dd2,62c53a6513458ccbebe36d39,2022-07-06_02h32.03.405,Colour_Asymmetry_Pilot,2022.1.3,Win32,239.4636015,62c50e9c1127f2cd403a315f,,,,,,,,,,,,,,,,,,,,,,,,,,,,,,,,,,,,,,,,,,,,,,,,,,,,,,,,,,,,,,,,,,,,,,,,,,,,,,,,,,,,,,,,,,,,,,,,,,,,,,,,,,,,,,,,,,,,,,,,,,,,,,,,,,,,,,,,,,,,,,,,,,,,,,,,,,,,,,,,,
0,86,86,68,1,,613af1d83ec1a51d557b4dd2,62c53a6513458ccbebe36d39,2022-07-06_02h32.03.405,Colour_Asymmetry_Pilot,2022.1.3,Win32,239.4636015,62c50e9c1127f2cd403a315f,,,,,,,,,,,,,,,,,,,,,,,,,,,,,,,,,,,,,,,,,,,,,,,,,,,,,,,,,,,,,,,,,,,,,,,,,,,,,,,,,,,,,,,,,,,,,,,,,,,,,,,,,,,,,,,,,,,,,,,,,,,,,,,,,,,,,,,,,,,,,,,,,,,,,,,,,,,,,,,,,
0,87,87,8,1,,613af1d83ec1a51d557b4dd2,62c53a6513458ccbebe36d39,2022-07-06_02h32.03.405,Colour_Asymmetry_Pilot,2022.1.3,Win32,239.4636015,62c50e9c1127f2cd403a315f,,,,,,,,,,,,,,,,,,,,,,,,,,,,,,,,,,,,,,,,,,,,,,,,,,,,,,,,,,,,,,,,,,,,,,,,,,,,,,,,,,,,,,,,,,,,,,,,,,,,,,,,,,,,,,,,,,,,,,,,,,,,,,,,,,,,,,,,,,,,,,,,,,,,,,,,,,,,,,,,,
0,88,88,32,1,,613af1d83ec1a51d557b4dd2,62c53a6513458ccbebe36d39,2022-07-06_02h32.03.405,Colour_Asymmetry_Pilot,2022.1.3,Win32,239.4636015,62c50e9c1127f2cd403a315f,,,,,,,,,,,,,,,,,,,,,,,,,,,,,,,,,,,,,,,,,,,,,,,,,,,,,,,,,,,,,,,,,,,,,,,,,,,,,,,,,,,,,,,,,,,,,,,,,,,,,,,,,,,,,,,,,,,,,,,,,,,,,,,,,,,,,,,,,,,,,,,,,,,,,,,,,,,,,,,,,
0,89,89,53,1,,613af1d83ec1a51d557b4dd2,62c53a6513458ccbebe36d39,2022-07-06_02h32.03.405,Colour_Asymmetry_Pilot,2022.1.3,Win32,239.4636015,62c50e9c1127f2cd403a315f,,,,,,,,,,,,,,,,,,,,,,,,,,,,,,,,,,,,,,,,,,,,,,,,,,,,,,,,,,,,,,,,,,,,,,,,,,,,,,,,,,,,,,,,,,,,,,,,,,,,,,,,,,,,,,,,,,,,,,,,,,,,,,,,,,,,,,,,,,,,,,,,,,,,,,,,,,,,,,,,,
0,90,90,29,1,,613af1d83ec1a51d557b4dd2,62c53a6513458ccbebe36d39,2022-07-06_02h32.03.405,Colour_Asymmetry_Pilot,2022.1.3,Win32,239.4636015,62c50e9c1127f2cd403a315f,,,,,,,,,,,,,,,,,,,,,,,,,,,,,,,,,,,,,,,,,,,,,,,,,,,,,,,,,,,,,,,,,,,,,,,,,,,,,,,,,,,,,,,,,,,,,,,,,,,,,,,,,,,,,,,,,,,,,,,,,,,,,,,,,,,,,,,,,,,,,,,,,,,,,,,,,,,,,,,,,
0,91,91,13,1,,613af1d83ec1a51d557b4dd2,62c53a6513458ccbebe36d39,2022-07-06_02h32.03.405,Colour_Asymmetry_Pilot,2022.1.3,Win32,239.4636015,62c50e9c1127f2cd403a315f,,,,,,,,,,,,,,,,,,,,,,,,,,,,,,,,,,,,,,,,,,,,,,,,,,,,,,,,,,,,,,,,,,,,,,,,,,,,,,,,,,,,,,,,,,,,,,,,,,,,,,,,,,,,,,,,,,,,,,,,,,,,,,,,,,,,,,,,,,,,,,,,,,,,,,,,,,,,,,,,,
0,92,92,2,1,,613af1d83ec1a51d557b4dd2,62c53a6513458ccbebe36d39,2022-07-06_02h32.03.405,Colour_Asymmetry_Pilot,2022.1.3,Win32,239.4636015,62c50e9c1127f2cd403a315f,,,,,,,,,,,,,,,,,,,,,,,,,,,,,,,,,,,,,,,,,,,,,,,,,,,,,,,,,,,,,,,,,,,,,,,,,,,,,,,,,,,,,,,,,,,,,,,,,,,,,,,,,,,,,,,,,,,,,,,,,,,,,,,,,,,,,,,,,,,,,,,,,,,,,,,,,,,,,,,,,
,,,,,,613af1d83ec1a51d557b4dd2,62c53a6513458ccbebe36d39,2022-07-06_02h32.03.405,Colour_Asymmetry_Pilot,2022.1.3,Win32,239.4636015,62c50e9c1127f2cd403a315f,0,0,0,160,1,onetwo,,,,,,,,,,,,,,,,,,,,,,,,,,,,,,,,,,,,,,,,,,,,,,,,,,,,,,,,,,,,,,,,,,,,,,,,,,,,,,,,,,,,,,,,,,,,,,,,,,,,,,,,,,,,,,,,,,,,,,,,,,,,,,,,,,,,,,,,,,,,,,,,,,,,,,,,,,,
,,,,,,613af1d83ec1a51d557b4dd2,62c53a6513458ccbebe36d39,2022-07-06_02h32.03.405,Colour_Asymmetry_Pilot,2022.1.3,Win32,239.4636015,62c50e9c1127f2cd403a315f,0,1,1,30,1,fourtwo,,,,,,,,,,,,,,,,,,,,,,,,,,,,,,,,,,,,,,,,,,,,,,,,,,,,,,,,,,,,,,,,,,,,,,,,,,,,,,,,,,,,,,,,,,,,,,,,,,,,,,,,,,,,,,,,,,,,,,,,,,,,,,,,,,,,,,,,,,,,,,,,,,,,,,,,,,,
,,,,,,613af1d83ec1a51d557b4dd2,62c53a6513458ccbebe36d39,2022-07-06_02h32.03.405,Colour_Asymmetry_Pilot,2022.1.3,Win32,239.4636015,62c50e9c1127f2cd403a315f,0,2,2,116,1,threeone,,,,,,,,,,,,,,,,,,,,,,,,,,,,,,,,,,,,,,,,,,,,,,,,,,,,,,,,,,,,,,,,,,,,,,,,,,,,,,,,,,,,,,,,,,,,,,,,,,,,,,,,,,,,,,,,,,,,,,,,,,,,,,,,,,,,,,,,,,,,,,,,,,,,,,,,,,,
,,,,,,613af1d83ec1a51d557b4dd2,62c53a6513458ccbebe36d39,2022-07-06_02h32.03.405,Colour_Asymmetry_Pilot,2022.1.3,Win32,239.4636015,62c50e9c1127f2cd403a315f,0,3,3,113,1,onethree,,,,,,,,,,,,,,,,,,,,,,,,,,,,,,,,,,,,,,,,,,,,,,,,,,,,,,,,,,,,,,,,,,,,,,,,,,,,,,,,,,,,,,,,,,,,,,,,,,,,,,,,,,,,,,,,,,,,,,,,,,,,,,,,,,,,,,,,,,,,,,,,,,,,,,,,,,,
,,,,,,613af1d83ec1a51d557b4dd2,62c53a6513458ccbebe36d39,2022-07-06_02h32.03.405,Colour_Asymmetry_Pilot,2022.1.3,Win32,239.4636015,62c50e9c1127f2cd403a315f,0,4,4,50,1,twoone,,,,,,,,,,,,,,,,,,,,,,,,,,,,,,,,,,,,,,,,,,,,,,,,,,,,,,,,,,,,,,,,,,,,,,,,,,,,,,,,,,,,,,,,,,,,,,,,,,,,,,,,,,,,,,,,,,,,,,,,,,,,,,,,,,,,,,,,,,,,,,,,,,,,,,,,,,,
,,,,,,613af1d83ec1a51d557b4dd2,62c53a6513458ccbebe36d39,2022-07-06_02h32.03.405,Colour_Asymmetry_Pilot,2022.1.3,Win32,239.4636015,62c50e9c1127f2cd403a315f,0,5,5,5,1,threefour,,,,,,,,,,,,,,,,,,,,,,,,,,,,,,,,,,,,,,,,,,,,,,,,,,,,,,,,,,,,,,,,,,,,,,,,,,,,,,,,,,,,,,,,,,,,,,,,,,,,,,,,,,,,,,,,,,,,,,,,,,,,,,,,,,,,,,,,,,,,,,,,,,,,,,,,,,,
,,,,,,613af1d83ec1a51d557b4dd2,62c53a6513458ccbebe36d39,2022-07-06_02h32.03.405,Colour_Asymmetry_Pilot,2022.1.3,Win32,239.4636015,62c50e9c1127f2cd403a315f,0,6,6,128,1,onetwo,,,,,,,,,,,,,,,,,,,,,,,,,,,,,,,,,,,,,,,,,,,,,,,,,,,,,,,,,,,,,,,,,,,,,,,,,,,,,,,,,,,,,,,,,,,,,,,,,,,,,,,,,,,,,,,,,,,,,,,,,,,,,,,,,,,,,,,,,,,,,,,,,,,,,,,,,,,
,,,,,,613af1d83ec1a51d557b4dd2,62c53a6513458ccbebe36d39,2022-07-06_02h32.03.405,Colour_Asymmetry_Pilot,2022.1.3,Win32,239.4636015,62c50e9c1127f2cd403a315f,0,7,7,131,1,twofour,,,,,,,,,,,,,,,,,,,,,,,,,,,,,,,,,,,,,,,,,,,,,,,,,,,,,,,,,,,,,,,,,,,,,,,,,,,,,,,,,,,,,,,,,,,,,,,,,,,,,,,,,,,,,,,,,,,,,,,,,,,,,,,,,,,,,,,,,,,,,,,,,,,,,,,,,,,
,,,,,,613af1d83ec1a51d557b4dd2,62c53a6513458ccbebe36d39,2022-07-06_02h32.03.405,Colour_Asymmetry_Pilot,2022.1.3,Win32,239.4636015,62c50e9c1127f2cd403a315f,0,8,8,85,1,threefour,,,,,,,,,,,,,,,,,,,,,,,,,,,,,,,,,,,,,,,,,,,,,,,,,,,,,,,,,,,,,,,,,,,,,,,,,,,,,,,,,,,,,,,,,,,,,,,,,,,,,,,,,,,,,,,,,,,,,,,,,,,,,,,,,,,,,,,,,,,,,,,,,,,,,,,,,,,
,,,,,,613af1d83ec1a51d557b4dd2,62c53a6513458ccbebe36d39,2022-07-06_02h32.03.405,Colour_Asymmetry_Pilot,2022.1.3,Win32,239.4636015,62c50e9c1127f2cd403a315f,0,9,9,129,1,onethree,,,,,,,,,,,,,,,,,,,,,,,,,,,,,,,,,,,,,,,,,,,,,,,,,,,,,,,,,,,,,,,,,,,,,,,,,,,,,,,,,,,,,,,,,,,,,,,,,,,,,,,,,,,,,,,,,,,,,,,,,,,,,,,,,,,,,,,,,,,,,,,,,,,,,,,,,,,
,,,,,,613af1d83ec1a51d557b4dd2,62c53a6513458ccbebe36d39,2022-07-06_02h32.03.405,Colour_Asymmetry_Pilot,2022.1.3,Win32,239.4636015,62c50e9c1127f2cd403a315f,0,10,10,106,1,twoone,,,,,,,,,,,,,,,,,,,,,,,,,,,,,,,,,,,,,,,,,,,,,,,,,,,,,,,,,,,,,,,,,,,,,,,,,,,,,,,,,,,,,,,,,,,,,,,,,,,,,,,,,,,,,,,,,,,,,,,,,,,,,,,,,,,,,,,,,,,,,,,,,,,,,,,,,,,
,,,,,,613af1d83ec1a51d557b4dd2,62c53a6513458ccbebe36d39,2022-07-06_02h32.03.405,Colour_Asymmetry_Pilot,2022.1.3,Win32,239.4636015,62c50e9c1127f2cd403a315f,0,11,11,151,1,fourthree,,,,,,,,,,,,,,,,,,,,,,,,,,,,,,,,,,,,,,,,,,,,,,,,,,,,,,,,,,,,,,,,,,,,,,,,,,,,,,,,,,,,,,,,,,,,,,,,,,,,,,,,,,,,,,,,,,,,,,,,,,,,,,,,,,,,,,,,,,,,,,,,,,,,,,,,,,,
,,,,,,613af1d83ec1a51d557b4dd2,62c53a6513458ccbebe36d39,2022-07-06_02h32.03.405,Colour_Asymmetry_Pilot,2022.1.3,Win32,239.4636015,62c50e9c1127f2cd403a315f,0,12,12,73,1,onethree,,,,,,,,,,,,,,,,,,,,,,,,,,,,,,,,,,,,,,,,,,,,,,,,,,,,,,,,,,,,,,,,,,,,,,,,,,,,,,,,,,,,,,,,,,,,,,,,,,,,,,,,,,,,,,,,,,,,,,,,,,,,,,,,,,,,,,,,,,,,,,,,,,,,,,,,,,,
,,,,,,613af1d83ec1a51d557b4dd2,62c53a6513458ccbebe36d39,2022-07-06_02h32.03.405,Colour_Asymmetry_Pilot,2022.1.3,Win32,239.4636015,62c50e9c1127f2cd403a315f,0,13,13,40,1,onetwo,,,,,,,,,,,,,,,,,,,,,,,,,,,,,,,,,,,,,,,,,,,,,,,,,,,,,,,,,,,,,,,,,,,,,,,,,,,,,,,,,,,,,,,,,,,,,,,,,,,,,,,,,,,,,,,,,,,,,,,,,,,,,,,,,,,,,,,,,,,,,,,,,,,,,,,,,,,
,,,,,,613af1d83ec1a51d557b4dd2,62c53a6513458ccbebe36d39,2022-07-06_02h32.03.405,Colour_Asymmetry_Pilot,2022.1.3,Win32,239.4636015,62c50e9c1127f2cd403a315f,0,14,14,126,1,fourtwo,,,,,,,,,,,,,,,,,,,,,,,,,,,,,,,,,,,,,,,,,,,,,,,,,,,,,,,,,,,,,,,,,,,,,,,,,,,,,,,,,,,,,,,,,,,,,,,,,,,,,,,,,,,,,,,,,,,,,,,,,,,,,,,,,,,,,,,,,,,,,,,,,,,,,,,,,,,
,,,,,,613af1d83ec1a51d557b4dd2,62c53a6513458ccbebe36d39,2022-07-06_02h32.03.405,Colour_Asymmetry_Pilot,2022.1.3,Win32,239.4636015,62c50e9c1127f2cd403a315f,0,15,15,21,1,threefour,,,,,,,,,,,,,,,,,,,,,,,,,,,,,,,,,,,,,,,,,,,,,,,,,,,,,,,,,,,,,,,,,,,,,,,,,,,,,,,,,,,,,,,,,,,,,,,,,,,,,,,,,,,,,,,,,,,,,,,,,,,,,,,,,,,,,,,,,,,,,,,,,,,,,,,,,,,
,,,,,,613af1d83ec1a51d557b4dd2,62c53a6513458ccbebe36d39,2022-07-06_02h32.03.405,Colour_Asymmetry_Pilot,2022.1.3,Win32,239.4636015,62c50e9c1127f2cd403a315f,0,16,16,92,1,threeone,,,,,,,,,,,,,,,,,,,,,,,,,,,,,,,,,,,,,,,,,,,,,,,,,,,,,,,,,,,,,,,,,,,,,,,,,,,,,,,,,,,,,,,,,,,,,,,,,,,,,,,,,,,,,,,,,,,,,,,,,,,,,,,,,,,,,,,,,,,,,,,,,,,,,,,,,,,
,,,,,,613af1d83ec1a51d557b4dd2,62c53a6513458ccbebe36d39,2022-07-06_02h32.03.405,Colour_Asymmetry_Pilot,2022.1.3,Win32,239.4636015,62c50e9c1127f2cd403a315f,0,17,17,157,1,threefour,,,,,,,,,,,,,,,,,,,,,,,,,,,,,,,,,,,,,,,,,,,,,,,,,,,,,,,,,,,,,,,,,,,,,,,,,,,,,,,,,,,,,,,,,,,,,,,,,,,,,,,,,,,,,,,,,,,,,,,,,,,,,,,,,,,,,,,,,,,,,,,,,,,,,,,,,,,
,,,,,,613af1d83ec1a51d557b4dd2,62c53a6513458ccbebe36d39,2022-07-06_02h32.03.405,Colour_Asymmetry_Pilot,2022.1.3,Win32,239.4636015,62c50e9c1127f2cd403a315f,0,18,18,115,1,twofour,,,,,,,,,,,,,,,,,,,,,,,,,,,,,,,,,,,,,,,,,,,,,,,,,,,,,,,,,,,,,,,,,,,,,,,,,,,,,,,,,,,,,,,,,,,,,,,,,,,,,,,,,,,,,,,,,,,,,,,,,,,,,,,,,,,,,,,,,,,,,,,,,,,,,,,,,,,
,,,,,,613af1d83ec1a51d557b4dd2,62c53a6513458ccbebe36d39,2022-07-06_02h32.03.405,Colour_Asymmetry_Pilot,2022.1.3,Win32,239.4636015,62c50e9c1127f2cd403a315f,0,19,19,141,1,threefour,,,,,,,,,,,,,,,,,,,,,,,,,,,,,,,,,,,,,,,,,,,,,,,,,,,,,,,,,,,,,,,,,,,,,,,,,,,,,,,,,,,,,,,,,,,,,,,,,,,,,,,,,,,,,,,,,,,,,,,,,,,,,,,,,,,,,,,,,,,,,,,,,,,,,,,,,,,
,,,,,,613af1d83ec1a51d557b4dd2,62c53a6513458ccbebe36d39,2022-07-06_02h32.03.405,Colour_Asymmetry_Pilot,2022.1.3,Win32,239.4636015,62c50e9c1127f2cd403a315f,0,20,20,14,1,fourtwo,,,,,,,,,,,,,,,,,,,,,,,,,,,,,,,,,,,,,,,,,,,,,,,,,,,,,,,,,,,,,,,,,,,,,,,,,,,,,,,,,,,,,,,,,,,,,,,,,,,,,,,,,,,,,,,,,,,,,,,,,,,,,,,,,,,,,,,,,,,,,,,,,,,,,,,,,,,
,,,,,,613af1d83ec1a51d557b4dd2,62c53a6513458ccbebe36d39,2022-07-06_02h32.03.405,Colour_Asymmetry_Pilot,2022.1.3,Win32,239.4636015,62c50e9c1127f2cd403a315f,0,21,21,90,1,twoone,,,,,,,,,,,,,,,,,,,,,,,,,,,,,,,,,,,,,,,,,,,,,,,,,,,,,,,,,,,,,,,,,,,,,,,,,,,,,,,,,,,,,,,,,,,,,,,,,,,,,,,,,,,,,,,,,,,,,,,,,,,,,,,,,,,,,,,,,,,,,,,,,,,,,,,,,,,
,,,,,,613af1d83ec1a51d557b4dd2,62c53a6513458ccbebe36d39,2022-07-06_02h32.03.405,Colour_Asymmetry_Pilot,2022.1.3,Win32,239.4636015,62c50e9c1127f2cd403a315f,0,22,22,3,1,twofour,,,,,,,,,,,,,,,,,,,,,,,,,,,,,,,,,,,,,,,,,,,,,,,,,,,,,,,,,,,,,,,,,,,,,,,,,,,,,,,,,,,,,,,,,,,,,,,,,,,,,,,,,,,,,,,,,,,,,,,,,,,,,,,,,,,,,,,,,,,,,,,,,,,,,,,,,,,
,,,,,,613af1d83ec1a51d557b4dd2,62c53a6513458ccbebe36d39,2022-07-06_02h32.03.405,Colour_Asymmetry_Pilot,2022.1.3,Win32,239.4636015,62c50e9c1127f2cd403a315f,0,23,23,86,1,fourtwo,,,,,,,,,,,,,,,,,,,,,,,,,,,,,,,,,,,,,,,,,,,,,,,,,,,,,,,,,,,,,,,,,,,,,,,,,,,,,,,,,,,,,,,,,,,,,,,,,,,,,,,,,,,,,,,,,,,,,,,,,,,,,,,,,,,,,,,,,,,,,,,,,,,,,,,,,,,
,,,,,,613af1d83ec1a51d557b4dd2,62c53a6513458ccbebe36d39,2022-07-06_02h32.03.405,Colour_Asymmetry_Pilot,2022.1.3,Win32,239.4636015,62c50e9c1127f2cd403a315f,0,24,24,7,1,fourthree,,,,,,,,,,,,,,,,,,,,,,,,,,,,,,,,,,,,,,,,,,,,,,,,,,,,,,,,,,,,,,,,,,,,,,,,,,,,,,,,,,,,,,,,,,,,,,,,,,,,,,,,,,,,,,,,,,,,,,,,,,,,,,,,,,,,,,,,,,,,,,,,,,,,,,,,,,,
,,,,,,613af1d83ec1a51d557b4dd2,62c53a6513458ccbebe36d39,2022-07-06_02h32.03.405,Colour_Asymmetry_Pilot,2022.1.3,Win32,239.4636015,62c50e9c1127f2cd403a315f,0,25,25,44,1,threeone,,,,,,,,,,,,,,,,,,,,,,,,,,,,,,,,,,,,,,,,,,,,,,,,,,,,,,,,,,,,,,,,,,,,,,,,,,,,,,,,,,,,,,,,,,,,,,,,,,,,,,,,,,,,,,,,,,,,,,,,,,,,,,,,,,,,,,,,,,,,,,,,,,,,,,,,,,,
,,,,,,613af1d83ec1a51d557b4dd2,62c53a6513458ccbebe36d39,2022-07-06_02h32.03.405,Colour_Asymmetry_Pilot,2022.1.3,Win32,239.4636015,62c50e9c1127f2cd403a315f,0,26,26,161,1,onethree,,,,,,,,,,,,,,,,,,,,,,,,,,,,,,,,,,,,,,,,,,,,,,,,,,,,,,,,,,,,,,,,,,,,,,,,,,,,,,,,,,,,,,,,,,,,,,,,,,,,,,,,,,,,,,,,,,,,,,,,,,,,,,,,,,,,,,,,,,,,,,,,,,,,,,,,,,,
,,,,,,613af1d83ec1a51d557b4dd2,62c53a6513458ccbebe36d39,2022-07-06_02h32.03.405,Colour_Asymmetry_Pilot,2022.1.3,Win32,239.4636015,62c50e9c1127f2cd403a315f,0,27,27,52,1,threeone,,,,,,,,,,,,,,,,,,,,,,,,,,,,,,,,,,,,,,,,,,,,,,,,,,,,,,,,,,,,,,,,,,,,,,,,,,,,,,,,,,,,,,,,,,,,,,,,,,,,,,,,,,,,,,,,,,,,,,,,,,,,,,,,,,,,,,,,,,,,,,,,,,,,,,,,,,,
,,,,,,613af1d83ec1a51d557b4dd2,62c53a6513458ccbebe36d39,2022-07-06_02h32.03.405,Colour_Asymmetry_Pilot,2022.1.3,Win32,239.4636015,62c50e9c1127f2cd403a315f,0,28,28,144,1,onetwo,,,,,,,,,,,,,,,,,,,,,,,,,,,,,,,,,,,,,,,,,,,,,,,,,,,,,,,,,,,,,,,,,,,,,,,,,,,,,,,,,,,,,,,,,,,,,,,,,,,,,,,,,,,,,,,,,,,,,,,,,,,,,,,,,,,,,,,,,,,,,,,,,,,,,,,,,,,
,,,,,,613af1d83ec1a51d557b4dd2,62c53a6513458ccbebe36d39,2022-07-06_02h32.03.405,Colour_Asymmetry_Pilot,2022.1.3,Win32,239.4636015,62c50e9c1127f2cd403a315f,0,29,29,4,1,threeone,,,,,,,,,,,,,,,,,,,,,,,,,,,,,,,,,,,,,,,,,,,,,,,,,,,,,,,,,,,,,,,,,,,,,,,,,,,,,,,,,,,,,,,,,,,,,,,,,,,,,,,,,,,,,,,,,,,,,,,,,,,,,,,,,,,,,,,,,,,,,,,,,,,,,,,,,,,
,,,,,,613af1d83ec1a51d557b4dd2,62c53a6513458ccbebe36d39,2022-07-06_02h32.03.405,Colour_Asymmetry_Pilot,2022.1.3,Win32,239.4636015,62c50e9c1127f2cd403a315f,0,30,30,41,1,onethree,,,,,,,,,,,,,,,,,,,,,,,,,,,,,,,,,,,,,,,,,,,,,,,,,,,,,,,,,,,,,,,,,,,,,,,,,,,,,,,,,,,,,,,,,,,,,,,,,,,,,,,,,,,,,,,,,,,,,,,,,,,,,,,,,,,,,,,,,,,,,,,,,,,,,,,,,,,
,,,,,,613af1d83ec1a51d557b4dd2,62c53a6513458ccbebe36d39,2022-07-06_02h32.03.405,Colour_Asymmetry_Pilot,2022.1.3,Win32,239.4636015,62c50e9c1127f2cd403a315f,0,31,31,135,1,fourthree,,,,,,,,,,,,,,,,,,,,,,,,,,,,,,,,,,,,,,,,,,,,,,,,,,,,,,,,,,,,,,,,,,,,,,,,,,,,,,,,,,,,,,,,,,,,,,,,,,,,,,,,,,,,,,,,,,,,,,,,,,,,,,,,,,,,,,,,,,,,,,,,,,,,,,,,,,,
,,,,,,613af1d83ec1a51d557b4dd2,62c53a6513458ccbebe36d39,2022-07-06_02h32.03.405,Colour_Asymmetry_Pilot,2022.1.3,Win32,239.4636015,62c50e9c1127f2cd403a315f,0,32,32,96,1,onetwo,,,,,,,,,,,,,,,,,,,,,,,,,,,,,,,,,,,,,,,,,,,,,,,,,,,,,,,,,,,,,,,,,,,,,,,,,,,,,,,,,,,,,,,,,,,,,,,,,,,,,,,,,,,,,,,,,,,,,,,,,,,,,,,,,,,,,,,,,,,,,,,,,,,,,,,,,,,
,,,,,,613af1d83ec1a51d557b4dd2,62c53a6513458ccbebe36d39,2022-07-06_02h32.03.405,Colour_Asymmetry_Pilot,2022.1.3,Win32,239.4636015,62c50e9c1127f2cd403a315f,0,33,33,39,1,fourthree,,,,,,,,,,,,,,,,,,,,,,,,,,,,,,,,,,,,,,,,,,,,,,,,,,,,,,,,,,,,,,,,,,,,,,,,,,,,,,,,,,,,,,,,,,,,,,,,,,,,,,,,,,,,,,,,,,,,,,,,,,,,,,,,,,,,,,,,,,,,,,,,,,,,,,,,,,,
,,,,,,613af1d83ec1a51d557b4dd2,62c53a6513458ccbebe36d39,2022-07-06_02h32.03.405,Colour_Asymmetry_Pilot,2022.1.3,Win32,239.4636015,62c50e9c1127f2cd403a315f,0,34,34,88,1,onetwo,,,,,,,,,,,,,,,,,,,,,,,,,,,,,,,,,,,,,,,,,,,,,,,,,,,,,,,,,,,,,,,,,,,,,,,,,,,,,,,,,,,,,,,,,,,,,,,,,,,,,,,,,,,,,,,,,,,,,,,,,,,,,,,,,,,,,,,,,,,,,,,,,,,,,,,,,,,
,,,,,,613af1d83ec1a51d557b4dd2,62c53a6513458ccbebe36d39,2022-07-06_02h32.03.405,Colour_Asymmetry_Pilot,2022.1.3,Win32,239.4636015,62c50e9c1127f2cd403a315f,0,35,35,2,1,twoone,,,,,,,,,,,,,,,,,,,,,,,,,,,,,,,,,,,,,,,,,,,,,,,,,,,,,,,,,,,,,,,,,,,,,,,,,,,,,,,,,,,,,,,,,,,,,,,,,,,,,,,,,,,,,,,,,,,,,,,,,,,,,,,,,,,,,,,,,,,,,,,,,,,,,,,,,,,
,,,,,,613af1d83ec1a51d557b4dd2,62c53a6513458ccbebe36d39,2022-07-06_02h32.03.405,Colour_Asymmetry_Pilot,2022.1.3,Win32,239.4636015,62c50e9c1127f2cd403a315f,0,36,36,132,1,threeone,,,,,,,,,,,,,,,,,,,,,,,,,,,,,,,,,,,,,,,,,,,,,,,,,,,,,,,,,,,,,,,,,,,,,,,,,,,,,,,,,,,,,,,,,,,,,,,,,,,,,,,,,,,,,,,,,,,,,,,,,,,,,,,,,,,,,,,,,,,,,,,,,,,,,,,,,,,
,,,,,,613af1d83ec1a51d557b4dd2,62c53a6513458ccbebe36d39,2022-07-06_02h32.03.405,Colour_Asymmetry_Pilot,2022.1.3,Win32,239.4636015,62c50e9c1127f2cd403a315f,0,37,37,125,1,threefour,,,,,,,,,,,,,,,,,,,,,,,,,,,,,,,,,,,,,,,,,,,,,,,,,,,,,,,,,,,,,,,,,,,,,,,,,,,,,,,,,,,,,,,,,,,,,,,,,,,,,,,,,,,,,,,,,,,,,,,,,,,,,,,,,,,,,,,,,,,,,,,,,,,,,,,,,,,
,,,,,,613af1d83ec1a51d557b4dd2,62c53a6513458ccbebe36d39,2022-07-06_02h32.03.405,Colour_Asymmetry_Pilot,2022.1.3,Win32,239.4636015,62c50e9c1127f2cd403a315f,0,38,38,66,1,twoone,,,,,,,,,,,,,,,,,,,,,,,,,,,,,,,,,,,,,,,,,,,,,,,,,,,,,,,,,,,,,,,,,,,,,,,,,,,,,,,,,,,,,,,,,,,,,,,,,,,,,,,,,,,,,,,,,,,,,,,,,,,,,,,,,,,,,,,,,,,,,,,,,,,,,,,,,,,
,,,,,,613af1d83ec1a51d557b4dd2,62c53a6513458ccbebe36d39,2022-07-06_02h32.03.405,Colour_Asymmetry_Pilot,2022.1.3,Win32,239.4636015,62c50e9c1127f2cd403a315f,0,39,39,45,1,threefour,,,,,,,,,,,,,,,,,,,,,,,,,,,,,,,,,,,,,,,,,,,,,,,,,,,,,,,,,,,,,,,,,,,,,,,,,,,,,,,,,,,,,,,,,,,,,,,,,,,,,,,,,,,,,,,,,,,,,,,,,,,,,,,,,,,,,,,,,,,,,,,,,,,,,,,,,,,
,,,,,,613af1d83ec1a51d557b4dd2,62c53a6513458ccbebe36d39,2022-07-06_02h32.03.405,Colour_Asymmetry_Pilot,2022.1.3,Win32,239.4636015,62c50e9c1127f2cd403a315f,0,40,40,105,1,onethree,,,,,,,,,,,,,,,,,,,,,,,,,,,,,,,,,,,,,,,,,,,,,,,,,,,,,,,,,,,,,,,,,,,,,,,,,,,,,,,,,,,,,,,,,,,,,,,,,,,,,,,,,,,,,,,,,,,,,,,,,,,,,,,,,,,,,,,,,,,,,,,,,,,,,,,,,,,
,,,,,,613af1d83ec1a51d557b4dd2,62c53a6513458ccbebe36d39,2022-07-06_02h32.03.405,Colour_Asymmetry_Pilot,2022.1.3,Win32,239.4636015,62c50e9c1127f2cd403a315f,0,41,41,35,1,twofour,,,,,,,,,,,,,,,,,,,,,,,,,,,,,,,,,,,,,,,,,,,,,,,,,,,,,,,,,,,,,,,,,,,,,,,,,,,,,,,,,,,,,,,,,,,,,,,,,,,,,,,,,,,,,,,,,,,,,,,,,,,,,,,,,,,,,,,,,,,,,,,,,,,,,,,,,,,
,,,,,,613af1d83ec1a51d557b4dd2,62c53a6513458ccbebe36d39,2022-07-06_02h32.03.405,Colour_Asymmetry_Pilot,2022.1.3,Win32,239.4636015,62c50e9c1127f2cd403a315f,0,42,42,46,1,fourtwo,,,,,,,,,,,,,,,,,,,,,,,,,,,,,,,,,,,,,,,,,,,,,,,,,,,,,,,,,,,,,,,,,,,,,,,,,,,,,,,,,,,,,,,,,,,,,,,,,,,,,,,,,,,,,,,,,,,,,,,,,,,,,,,,,,,,,,,,,,,,,,,,,,,,,,,,,,,
,,,,,,613af1d83ec1a51d557b4dd2,62c53a6513458ccbebe36d39,2022-07-06_02h32.03.405,Colour_Asymmetry_Pilot,2022.1.3,Win32,239.4636015,62c50e9c1127f2cd403a315f,0,43,43,154,1,twoone,,,,,,,,,,,,,,,,,,,,,,,,,,,,,,,,,,,,,,,,,,,,,,,,,,,,,,,,,,,,,,,,,,,,,,,,,,,,,,,,,,,,,,,,,,,,,,,,,,,,,,,,,,,,,,,,,,,,,,,,,,,,,,,,,,,,,,,,,,,,,,,,,,,,,,,,,,,
,,,,,,613af1d83ec1a51d557b4dd2,62c53a6513458ccbebe36d39,2022-07-06_02h32.03.405,Colour_Asymmetry_Pilot,2022.1.3,Win32,239.4636015,62c50e9c1127f2cd403a315f,0,44,44,84,1,threeone,,,,,,,,,,,,,,,,,,,,,,,,,,,,,,,,,,,,,,,,,,,,,,,,,,,,,,,,,,,,,,,,,,,,,,,,,,,,,,,,,,,,,,,,,,,,,,,,,,,,,,,,,,,,,,,,,,,,,,,,,,,,,,,,,,,,,,,,,,,,,,,,,,,,,,,,,,,
,,,,,,613af1d83ec1a51d557b4dd2,62c53a6513458ccbebe36d39,2022-07-06_02h32.03.405,Colour_Asymmetry_Pilot,2022.1.3,Win32,239.4636015,62c50e9c1127f2cd403a315f,0,45,45,107,1,twofour,,,,,,,,,,,,,,,,,,,,,,,,,,,,,,,,,,,,,,,,,,,,,,,,,,,,,,,,,,,,,,,,,,,,,,,,,,,,,,,,,,,,,,,,,,,,,,,,,,,,,,,,,,,,,,,,,,,,,,,,,,,,,,,,,,,,,,,,,,,,,,,,,,,,,,,,,,,
,,,,,,613af1d83ec1a51d557b4dd2,62c53a6513458ccbebe36d39,2022-07-06_02h32.03.405,Colour_Asymmetry_Pilot,2022.1.3,Win32,239.4636015,62c50e9c1127f2cd403a315f,0,46,46,159,1,fourthree,,,,,,,,,,,,,,,,,,,,,,,,,,,,,,,,,,,,,,,,,,,,,,,,,,,,,,,,,,,,,,,,,,,,,,,,,,,,,,,,,,,,,,,,,,,,,,,,,,,,,,,,,,,,,,,,,,,,,,,,,,,,,,,,,,,,,,,,,,,,,,,,,,,,,,,,,,,
,,,,,,613af1d83ec1a51d557b4dd2,62c53a6513458ccbebe36d39,2022-07-06_02h32.03.405,Colour_Asymmetry_Pilot,2022.1.3,Win32,239.4636015,62c50e9c1127f2cd403a315f,0,47,47,111,1,fourthree,,,,,,,,,,,,,,,,,,,,,,,,,,,,,,,,,,,,,,,,,,,,,,,,,,,,,,,,,,,,,,,,,,,,,,,,,,,,,,,,,,,,,,,,,,,,,,,,,,,,,,,,,,,,,,,,,,,,,,,,,,,,,,,,,,,,,,,,,,,,,,,,,,,,,,,,,,,
,,,,,,613af1d83ec1a51d557b4dd2,62c53a6513458ccbebe36d39,2022-07-06_02h32.03.405,Colour_Asymmetry_Pilot,2022.1.3,Win32,239.4636015,62c50e9c1127f2cd403a315f,0,48,48,25,1,onethree,,,,,,,,,,,,,,,,,,,,,,,,,,,,,,,,,,,,,,,,,,,,,,,,,,,,,,,,,,,,,,,,,,,,,,,,,,,,,,,,,,,,,,,,,,,,,,,,,,,,,,,,,,,,,,,,,,,,,,,,,,,,,,,,,,,,,,,,,,,,,,,,,,,,,,,,,,,
,,,,,,613af1d83ec1a51d557b4dd2,62c53a6513458ccbebe36d39,2022-07-06_02h32.03.405,Colour_Asymmetry_Pilot,2022.1.3,Win32,239.4636015,62c50e9c1127f2cd403a315f,0,49,49,28,1,threeone,,,,,,,,,,,,,,,,,,,,,,,,,,,,,,,,,,,,,,,,,,,,,,,,,,,,,,,,,,,,,,,,,,,,,,,,,,,,,,,,,,,,,,,,,,,,,,,,,,,,,,,,,,,,,,,,,,,,,,,,,,,,,,,,,,,,,,,,,,,,,,,,,,,,,,,,,,,
,,,,,,613af1d83ec1a51d557b4dd2,62c53a6513458ccbebe36d39,2022-07-06_02h32.03.405,Colour_Asymmetry_Pilot,2022.1.3,Win32,239.4636015,62c50e9c1127f2cd403a315f,0,50,50,58,1,twoone,,,,,,,,,,,,,,,,,,,,,,,,,,,,,,,,,,,,,,,,,,,,,,,,,,,,,,,,,,,,,,,,,,,,,,,,,,,,,,,,,,,,,,,,,,,,,,,,,,,,,,,,,,,,,,,,,,,,,,,,,,,,,,,,,,,,,,,,,,,,,,,,,,,,,,,,,,,
,,,,,,613af1d83ec1a51d557b4dd2,62c53a6513458ccbebe36d39,2022-07-06_02h32.03.405,Colour_Asymmetry_Pilot,2022.1.3,Win32,239.4636015,62c50e9c1127f2cd403a315f,0,51,51,9,1,onethree,,,,,,,,,,,,,,,,,,,,,,,,,,,,,,,,,,,,,,,,,,,,,,,,,,,,,,,,,,,,,,,,,,,,,,,,,,,,,,,,,,,,,,,,,,,,,,,,,,,,,,,,,,,,,,,,,,,,,,,,,,,,,,,,,,,,,,,,,,,,,,,,,,,,,,,,,,,
,,,,,,613af1d83ec1a51d557b4dd2,62c53a6513458ccbebe36d39,2022-07-06_02h32.03.405,Colour_Asymmetry_Pilot,2022.1.3,Win32,239.4636015,62c50e9c1127f2cd403a315f,0,52,52,148,1,threeone,,,,,,,,,,,,,,,,,,,,,,,,,,,,,,,,,,,,,,,,,,,,,,,,,,,,,,,,,,,,,,,,,,,,,,,,,,,,,,,,,,,,,,,,,,,,,,,,,,,,,,,,,,,,,,,,,,,,,,,,,,,,,,,,,,,,,,,,,,,,,,,,,,,,,,,,,,,
,,,,,,613af1d83ec1a51d557b4dd2,62c53a6513458ccbebe36d39,2022-07-06_02h32.03.405,Colour_Asymmetry_Pilot,2022.1.3,Win32,239.4636015,62c50e9c1127f2cd403a315f,0,53,53,75,1,twofour,,,,,,,,,,,,,,,,,,,,,,,,,,,,,,,,,,,,,,,,,,,,,,,,,,,,,,,,,,,,,,,,,,,,,,,,,,,,,,,,,,,,,,,,,,,,,,,,,,,,,,,,,,,,,,,,,,,,,,,,,,,,,,,,,,,,,,,,,,,,,,,,,,,,,,,,,,,
,,,,,,613af1d83ec1a51d557b4dd2,62c53a6513458ccbebe36d39,2022-07-06_02h32.03.405,Colour_Asymmetry_Pilot,2022.1.3,Win32,239.4636015,62c50e9c1127f2cd403a315f,0,54,54,72,1,onetwo,,,,,,,,,,,,,,,,,,,,,,,,,,,,,,,,,,,,,,,,,,,,,,,,,,,,,,,,,,,,,,,,,,,,,,,,,,,,,,,,,,,,,,,,,,,,,,,,,,,,,,,,,,,,,,,,,,,,,,,,,,,,,,,,,,,,,,,,,,,,,,,,,,,,,,,,,,,
,,,,,,613af1d83ec1a51d557b4dd2,62c53a6513458ccbebe36d39,2022-07-06_02h32.03.405,Colour_Asymmetry_Pilot,2022.1.3,Win32,239.4636015,62c50e9c1127f2cd403a315f,0,55,55,27,1,twofour,,,,,,,,,,,,,,,,,,,,,,,,,,,,,,,,,,,,,,,,,,,,,,,,,,,,,,,,,,,,,,,,,,,,,,,,,,,,,,,,,,,,,,,,,,,,,,,,,,,,,,,,,,,,,,,,,,,,,,,,,,,,,,,,,,,,,,,,,,,,,,,,,,,,,,,,,,,
,,,,,,613af1d83ec1a51d557b4dd2,62c53a6513458ccbebe36d39,2022-07-06_02h32.03.405,Colour_Asymmetry_Pilot,2022.1.3,Win32,239.4636015,62c50e9c1127f2cd403a315f,0,56,56,65,1,onethree,,,,,,,,,,,,,,,,,,,,,,,,,,,,,,,,,,,,,,,,,,,,,,,,,,,,,,,,,,,,,,,,,,,,,,,,,,,,,,,,,,,,,,,,,,,,,,,,,,,,,,,,,,,,,,,,,,,,,,,,,,,,,,,,,,,,,,,,,,,,,,,,,,,,,,,,,,,
,,,,,,613af1d83ec1a51d557b4dd2,62c53a6513458ccbebe36d39,2022-07-06_02h32.03.405,Colour_Asymmetry_Pilot,2022.1.3,Win32,239.4636015,62c50e9c1127f2cd403a315f,0,57,57,130,1,twoone,,,,,,,,,,,,,,,,,,,,,,,,,,,,,,,,,,,,,,,,,,,,,,,,,,,,,,,,,,,,,,,,,,,,,,,,,,,,,,,,,,,,,,,,,,,,,,,,,,,,,,,,,,,,,,,,,,,,,,,,,,,,,,,,,,,,,,,,,,,,,,,,,,,,,,,,,,,
,,,,,,613af1d83ec1a51d557b4dd2,62c53a6513458ccbebe36d39,2022-07-06_02h32.03.405,Colour_Asymmetry_Pilot,2022.1.3,Win32,239.4636015,62c50e9c1127f2cd403a315f,0,58,58,11,1,twofour,,,,,,,,,,,,,,,,,,,,,,,,,,,,,,,,,,,,,,,,,,,,,,,,,,,,,,,,,,,,,,,,,,,,,,,,,,,,,,,,,,,,,,,,,,,,,,,,,,,,,,,,,,,,,,,,,,,,,,,,,,,,,,,,,,,,,,,,,,,,,,,,,,,,,,,,,,,
,,,,,,613af1d83ec1a51d557b4dd2,62c53a6513458ccbebe36d39,2022-07-06_02h32.03.405,Colour_Asymmetry_Pilot,2022.1.3,Win32,239.4636015,62c50e9c1127f2cd403a315f,0,59,59,138,1,twoone,,,,,,,,,,,,,,,,,,,,,,,,,,,,,,,,,,,,,,,,,,,,,,,,,,,,,,,,,,,,,,,,,,,,,,,,,,,,,,,,,,,,,,,,,,,,,,,,,,,,,,,,,,,,,,,,,,,,,,,,,,,,,,,,,,,,,,,,,,,,,,,,,,,,,,,,,,,
,,,,,,613af1d83ec1a51d557b4dd2,62c53a6513458ccbebe36d39,2022-07-06_02h32.03.405,Colour_Asymmetry_Pilot,2022.1.3,Win32,239.4636015,62c50e9c1127f2cd403a315f,0,60,60,57,1,onethree,,,,,,,,,,,,,,,,,,,,,,,,,,,,,,,,,,,,,,,,,,,,,,,,,,,,,,,,,,,,,,,,,,,,,,,,,,,,,,,,,,,,,,,,,,,,,,,,,,,,,,,,,,,,,,,,,,,,,,,,,,,,,,,,,,,,,,,,,,,,,,,,,,,,,,,,,,,
,,,,,,613af1d83ec1a51d557b4dd2,62c53a6513458ccbebe36d39,2022-07-06_02h32.03.405,Colour_Asymmetry_Pilot,2022.1.3,Win32,239.4636015,62c50e9c1127f2cd403a315f,0,61,61,67,1,twofour,,,,,,,,,,,,,,,,,,,,,,,,,,,,,,,,,,,,,,,,,,,,,,,,,,,,,,,,,,,,,,,,,,,,,,,,,,,,,,,,,,,,,,,,,,,,,,,,,,,,,,,,,,,,,,,,,,,,,,,,,,,,,,,,,,,,,,,,,,,,,,,,,,,,,,,,,,,
,,,,,,613af1d83ec1a51d557b4dd2,62c53a6513458ccbebe36d39,2022-07-06_02h32.03.405,Colour_Asymmetry_Pilot,2022.1.3,Win32,239.4636015,62c50e9c1127f2cd403a315f,0,62,62,123,1,twofour,,,,,,,,,,,,,,,,,,,,,,,,,,,,,,,,,,,,,,,,,,,,,,,,,,,,,,,,,,,,,,,,,,,,,,,,,,,,,,,,,,,,,,,,,,,,,,,,,,,,,,,,,,,,,,,,,,,,,,,,,,,,,,,,,,,,,,,,,,,,,,,,,,,,,,,,,,,
,,,,,,613af1d83ec1a51d557b4dd2,62c53a6513458ccbebe36d39,2022-07-06_02h32.03.405,Colour_Asymmetry_Pilot,2022.1.3,Win32,239.4636015,62c50e9c1127f2cd403a315f,0,63,63,19,1,twofour,,,,,,,,,,,,,,,,,,,,,,,,,,,,,,,,,,,,,,,,,,,,,,,,,,,,,,,,,,,,,,,,,,,,,,,,,,,,,,,,,,,,,,,,,,,,,,,,,,,,,,,,,,,,,,,,,,,,,,,,,,,,,,,,,,,,,,,,,,,,,,,,,,,,,,,,,,,
,,,,,,613af1d83ec1a51d557b4dd2,62c53a6513458ccbebe36d39,2022-07-06_02h32.03.405,Colour_Asymmetry_Pilot,2022.1.3,Win32,239.4636015,62c50e9c1127f2cd403a315f,0,64,64,8,1,onetwo,,,,,,,,,,,,,,,,,,,,,,,,,,,,,,,,,,,,,,,,,,,,,,,,,,,,,,,,,,,,,,,,,,,,,,,,,,,,,,,,,,,,,,,,,,,,,,,,,,,,,,,,,,,,,,,,,,,,,,,,,,,,,,,,,,,,,,,,,,,,,,,,,,,,,,,,,,,
,,,,,,613af1d83ec1a51d557b4dd2,62c53a6513458ccbebe36d39,2022-07-06_02h32.03.405,Colour_Asymmetry_Pilot,2022.1.3,Win32,239.4636015,62c50e9c1127f2cd403a315f,0,65,65,36,1,threeone,,,,,,,,,,,,,,,,,,,,,,,,,,,,,,,,,,,,,,,,,,,,,,,,,,,,,,,,,,,,,,,,,,,,,,,,,,,,,,,,,,,,,,,,,,,,,,,,,,,,,,,,,,,,,,,,,,,,,,,,,,,,,,,,,,,,,,,,,,,,,,,,,,,,,,,,,,,
,,,,,,613af1d83ec1a51d557b4dd2,62c53a6513458ccbebe36d39,2022-07-06_02h32.03.405,Colour_Asymmetry_Pilot,2022.1.3,Win32,239.4636015,62c50e9c1127f2cd403a315f,0,66,66,26,1,twoone,,,,,,,,,,,,,,,,,,,,,,,,,,,,,,,,,,,,,,,,,,,,,,,,,,,,,,,,,,,,,,,,,,,,,,,,,,,,,,,,,,,,,,,,,,,,,,,,,,,,,,,,,,,,,,,,,,,,,,,,,,,,,,,,,,,,,,,,,,,,,,,,,,,,,,,,,,,
,,,,,,613af1d83ec1a51d557b4dd2,62c53a6513458ccbebe36d39,2022-07-06_02h32.03.405,Colour_Asymmetry_Pilot,2022.1.3,Win32,239.4636015,62c50e9c1127f2cd403a315f,0,67,67,43,1,twofour,,,,,,,,,,,,,,,,,,,,,,,,,,,,,,,,,,,,,,,,,,,,,,,,,,,,,,,,,,,,,,,,,,,,,,,,,,,,,,,,,,,,,,,,,,,,,,,,,,,,,,,,,,,,,,,,,,,,,,,,,,,,,,,,,,,,,,,,,,,,,,,,,,,,,,,,,,,
,,,,,,613af1d83ec1a51d557b4dd2,62c53a6513458ccbebe36d39,2022-07-06_02h32.03.405,Colour_Asymmetry_Pilot,2022.1.3,Win32,239.4636015,62c50e9c1127f2cd403a315f,0,68,68,59,1,twofour,,,,,,,,,,,,,,,,,,,,,,,,,,,,,,,,,,,,,,,,,,,,,,,,,,,,,,,,,,,,,,,,,,,,,,,,,,,,,,,,,,,,,,,,,,,,,,,,,,,,,,,,,,,,,,,,,,,,,,,,,,,,,,,,,,,,,,,,,,,,,,,,,,,,,,,,,,,
,,,,,,613af1d83ec1a51d557b4dd2,62c53a6513458ccbebe36d39,2022-07-06_02h32.03.405,Colour_Asymmetry_Pilot,2022.1.3,Win32,239.4636015,62c50e9c1127f2cd403a315f,0,69,69,119,1,fourthree,,,,,,,,,,,,,,,,,,,,,,,,,,,,,,,,,,,,,,,,,,,,,,,,,,,,,,,,,,,,,,,,,,,,,,,,,,,,,,,,,,,,,,,,,,,,,,,,,,,,,,,,,,,,,,,,,,,,,,,,,,,,,,,,,,,,,,,,,,,,,,,,,,,,,,,,,,,
,,,,,,613af1d83ec1a51d557b4dd2,62c53a6513458ccbebe36d39,2022-07-06_02h32.03.405,Colour_Asymmetry_Pilot,2022.1.3,Win32,239.4636015,62c50e9c1127f2cd403a315f,0,70,70,68,1,threeone,,,,,,,,,,,,,,,,,,,,,,,,,,,,,,,,,,,,,,,,,,,,,,,,,,,,,,,,,,,,,,,,,,,,,,,,,,,,,,,,,,,,,,,,,,,,,,,,,,,,,,,,,,,,,,,,,,,,,,,,,,,,,,,,,,,,,,,,,,,,,,,,,,,,,,,,,,,
,,,,,,613af1d83ec1a51d557b4dd2,62c53a6513458ccbebe36d39,2022-07-06_02h32.03.405,Colour_Asymmetry_Pilot,2022.1.3,Win32,239.4636015,62c50e9c1127f2cd403a315f,0,71,71,17,1,onethree,,,,,,,,,,,,,,,,,,,,,,,,,,,,,,,,,,,,,,,,,,,,,,,,,,,,,,,,,,,,,,,,,,,,,,,,,,,,,,,,,,,,,,,,,,,,,,,,,,,,,,,,,,,,,,,,,,,,,,,,,,,,,,,,,,,,,,,,,,,,,,,,,,,,,,,,,,,
,,,,,,613af1d83ec1a51d557b4dd2,62c53a6513458ccbebe36d39,2022-07-06_02h32.03.405,Colour_Asymmetry_Pilot,2022.1.3,Win32,239.4636015,62c50e9c1127f2cd403a315f,0,72,72,143,1,fourthree,,,,,,,,,,,,,,,,,,,,,,,,,,,,,,,,,,,,,,,,,,,,,,,,,,,,,,,,,,,,,,,,,,,,,,,,,,,,,,,,,,,,,,,,,,,,,,,,,,,,,,,,,,,,,,,,,,,,,,,,,,,,,,,,,,,,,,,,,,,,,,,,,,,,,,,,,,,
,,,,,,613af1d83ec1a51d557b4dd2,62c53a6513458ccbebe36d39,2022-07-06_02h32.03.405,Colour_Asymmetry_Pilot,2022.1.3,Win32,239.4636015,62c50e9c1127f2cd403a315f,0,73,73,89,1,onethree,,,,,,,,,,,,,,,,,,,,,,,,,,,,,,,,,,,,,,,,,,,,,,,,,,,,,,,,,,,,,,,,,,,,,,,,,,,,,,,,,,,,,,,,,,,,,,,,,,,,,,,,,,,,,,,,,,,,,,,,,,,,,,,,,,,,,,,,,,,,,,,,,,,,,,,,,,,
,,,,,,613af1d83ec1a51d557b4dd2,62c53a6513458ccbebe36d39,2022-07-06_02h32.03.405,Colour_Asymmetry_Pilot,2022.1.3,Win32,239.4636015,62c50e9c1127f2cd403a315f,0,74,74,23,1,fourthree,,,,,,,,,,,,,,,,,,,,,,,,,,,,,,,,,,,,,,,,,,,,,,,,,,,,,,,,,,,,,,,,,,,,,,,,,,,,,,,,,,,,,,,,,,,,,,,,,,,,,,,,,,,,,,,,,,,,,,,,,,,,,,,,,,,,,,,,,,,,,,,,,,,,,,,,,,,
,,,,,,613af1d83ec1a51d557b4dd2,62c53a6513458ccbebe36d39,2022-07-06_02h32.03.405,Colour_Asymmetry_Pilot,2022.1.3,Win32,239.4636015,62c50e9c1127f2cd403a315f,0,75,75,109,1,threefour,,,,,,,,,,,,,,,,,,,,,,,,,,,,,,,,,,,,,,,,,,,,,,,,,,,,,,,,,,,,,,,,,,,,,,,,,,,,,,,,,,,,,,,,,,,,,,,,,,,,,,,,,,,,,,,,,,,,,,,,,,,,,,,,,,,,,,,,,,,,,,,,,,,,,,,,,,,
,,,,,,613af1d83ec1a51d557b4dd2,62c53a6513458ccbebe36d39,2022-07-06_02h32.03.405,Colour_Asymmetry_Pilot,2022.1.3,Win32,239.4636015,62c50e9c1127f2cd403a315f,0,76,76,22,1,fourtwo,,,,,,,,,,,,,,,,,,,,,,,,,,,,,,,,,,,,,,,,,,,,,,,,,,,,,,,,,,,,,,,,,,,,,,,,,,,,,,,,,,,,,,,,,,,,,,,,,,,,,,,,,,,,,,,,,,,,,,,,,,,,,,,,,,,,,,,,,,,,,,,,,,,,,,,,,,,
,,,,,,613af1d83ec1a51d557b4dd2,62c53a6513458ccbebe36d39,2022-07-06_02h32.03.405,Colour_Asymmetry_Pilot,2022.1.3,Win32,239.4636015,62c50e9c1127f2cd403a315f,0,77,77,121,1,onethree,,,,,,,,,,,,,,,,,,,,,,,,,,,,,,,,,,,,,,,,,,,,,,,,,,,,,,,,,,,,,,,,,,,,,,,,,,,,,,,,,,,,,,,,,,,,,,,,,,,,,,,,,,,,,,,,,,,,,,,,,,,,,,,,,,,,,,,,,,,,,,,,,,,,,,,,,,,
,,,,,,613af1d83ec1a51d557b4dd2,62c53a6513458ccbebe36d39,2022-07-06_02h32.03.405,Colour_Asymmetry_Pilot,2022.1.3,Win32,239.4636015,62c50e9c1127f2cd403a315f,0,78,78,60,1,threeone,,,,,,,,,,,,,,,,,,,,,,,,,,,,,,,,,,,,,,,,,,,,,,,,,,,,,,,,,,,,,,,,,,,,,,,,,,,,,,,,,,,,,,,,,,,,,,,,,,,,,,,,,,,,,,,,,,,,,,,,,,,,,,,,,,,,,,,,,,,,,,,,,,,,,,,,,,,
,,,,,,613af1d83ec1a51d557b4dd2,62c53a6513458ccbebe36d39,2022-07-06_02h32.03.405,Colour_Asymmetry_Pilot,2022.1.3,Win32,239.4636015,62c50e9c1127f2cd403a315f,0,79,79,112,1,onetwo,,,,,,,,,,,,,,,,,,,,,,,,,,,,,,,,,,,,,,,,,,,,,,,,,,,,,,,,,,,,,,,,,,,,,,,,,,,,,,,,,,,,,,,,,,,,,,,,,,,,,,,,,,,,,,,,,,,,,,,,,,,,,,,,,,,,,,,,,,,,,,,,,,,,,,,,,,,
,,,,,,613af1d83ec1a51d557b4dd2,62c53a6513458ccbebe36d39,2022-07-06_02h32.03.405,Colour_Asymmetry_Pilot,2022.1.3,Win32,239.4636015,62c50e9c1127f2cd403a315f,0,80,80,145,1,onethree,,,,,,,,,,,,,,,,,,,,,,,,,,,,,,,,,,,,,,,,,,,,,,,,,,,,,,,,,,,,,,,,,,,,,,,,,,,,,,,,,,,,,,,,,,,,,,,,,,,,,,,,,,,,,,,,,,,,,,,,,,,,,,,,,,,,,,,,,,,,,,,,,,,,,,,,,,,
,,,,,,613af1d83ec1a51d557b4dd2,62c53a6513458ccbebe36d39,2022-07-06_02h32.03.405,Colour_Asymmetry_Pilot,2022.1.3,Win32,239.4636015,62c50e9c1127f2cd403a315f,0,81,81,101,1,threefour,,,,,,,,,,,,,,,,,,,,,,,,,,,,,,,,,,,,,,,,,,,,,,,,,,,,,,,,,,,,,,,,,,,,,,,,,,,,,,,,,,,,,,,,,,,,,,,,,,,,,,,,,,,,,,,,,,,,,,,,,,,,,,,,,,,,,,,,,,,,,,,,,,,,,,,,,,,
,,,,,,613af1d83ec1a51d557b4dd2,62c53a6513458ccbebe36d39,2022-07-06_02h32.03.405,Colour_Asymmetry_Pilot,2022.1.3,Win32,239.4636015,62c50e9c1127f2cd403a315f,0,82,82,16,1,onetwo,,,,,,,,,,,,,,,,,,,,,,,,,,,,,,,,,,,,,,,,,,,,,,,,,,,,,,,,,,,,,,,,,,,,,,,,,,,,,,,,,,,,,,,,,,,,,,,,,,,,,,,,,,,,,,,,,,,,,,,,,,,,,,,,,,,,,,,,,,,,,,,,,,,,,,,,,,,
,,,,,,613af1d83ec1a51d557b4dd2,62c53a6513458ccbebe36d39,2022-07-06_02h32.03.405,Colour_Asymmetry_Pilot,2022.1.3,Win32,239.4636015,62c50e9c1127f2cd403a315f,0,83,83,55,1,fourthree,,,,,,,,,,,,,,,,,,,,,,,,,,,,,,,,,,,,,,,,,,,,,,,,,,,,,,,,,,,,,,,,,,,,,,,,,,,,,,,,,,,,,,,,,,,,,,,,,,,,,,,,,,,,,,,,,,,,,,,,,,,,,,,,,,,,,,,,,,,,,,,,,,,,,,,,,,,
,,,,,,613af1d83ec1a51d557b4dd2,62c53a6513458ccbebe36d39,2022-07-06_02h32.03.405,Colour_Asymmetry_Pilot,2022.1.3,Win32,239.4636015,62c50e9c1127f2cd403a315f,0,84,84,156,1,threeone,,,,,,,,,,,,,,,,,,,,,,,,,,,,,,,,,,,,,,,,,,,,,,,,,,,,,,,,,,,,,,,,,,,,,,,,,,,,,,,,,,,,,,,,,,,,,,,,,,,,,,,,,,,,,,,,,,,,,,,,,,,,,,,,,,,,,,,,,,,,,,,,,,,,,,,,,,,
,,,,,,613af1d83ec1a51d557b4dd2,62c53a6513458ccbebe36d39,2022-07-06_02h32.03.405,Colour_Asymmetry_Pilot,2022.1.3,Win32,239.4636015,62c50e9c1127f2cd403a315f,0,85,85,158,1,fourtwo,,,,,,,,,,,,,,,,,,,,,,,,,,,,,,,,,,,,,,,,,,,,,,,,,,,,,,,,,,,,,,,,,,,,,,,,,,,,,,,,,,,,,,,,,,,,,,,,,,,,,,,,,,,,,,,,,,,,,,,,,,,,,,,,,,,,,,,,,,,,,,,,,,,,,,,,,,,
,,,,,,613af1d83ec1a51d557b4dd2,62c53a6513458ccbebe36d39,2022-07-06_02h32.03.405,Colour_Asymmetry_Pilot,2022.1.3,Win32,239.4636015,62c50e9c1127f2cd403a315f,0,86,86,51,1,twofour,,,,,,,,,,,,,,,,,,,,,,,,,,,,,,,,,,,,,,,,,,,,,,,,,,,,,,,,,,,,,,,,,,,,,,,,,,,,,,,,,,,,,,,,,,,,,,,,,,,,,,,,,,,,,,,,,,,,,,,,,,,,,,,,,,,,,,,,,,,,,,,,,,,,,,,,,,,
,,,,,,613af1d83ec1a51d557b4dd2,62c53a6513458ccbebe36d39,2022-07-06_02h32.03.405,Colour_Asymmetry_Pilot,2022.1.3,Win32,239.4636015,62c50e9c1127f2cd403a315f,0,87,87,134,1,fourtwo,,,,,,,,,,,,,,,,,,,,,,,,,,,,,,,,,,,,,,,,,,,,,,,,,,,,,,,,,,,,,,,,,,,,,,,,,,,,,,,,,,,,,,,,,,,,,,,,,,,,,,,,,,,,,,,,,,,,,,,,,,,,,,,,,,,,,,,,,,,,,,,,,,,,,,,,,,,
,,,,,,613af1d83ec1a51d557b4dd2,62c53a6513458ccbebe36d39,2022-07-06_02h32.03.405,Colour_Asymmetry_Pilot,2022.1.3,Win32,239.4636015,62c50e9c1127f2cd403a315f,0,88,88,56,1,onetwo,,,,,,,,,,,,,,,,,,,,,,,,,,,,,,,,,,,,,,,,,,,,,,,,,,,,,,,,,,,,,,,,,,,,,,,,,,,,,,,,,,,,,,,,,,,,,,,,,,,,,,,,,,,,,,,,,,,,,,,,,,,,,,,,,,,,,,,,,,,,,,,,,,,,,,,,,,,
,,,,,,613af1d83ec1a51d557b4dd2,62c53a6513458ccbebe36d39,2022-07-06_02h32.03.405,Colour_Asymmetry_Pilot,2022.1.3,Win32,239.4636015,62c50e9c1127f2cd403a315f,0,89,89,82,1,twoone,,,,,,,,,,,,,,,,,,,,,,,,,,,,,,,,,,,,,,,,,,,,,,,,,,,,,,,,,,,,,,,,,,,,,,,,,,,,,,,,,,,,,,,,,,,,,,,,,,,,,,,,,,,,,,,,,,,,,,,,,,,,,,,,,,,,,,,,,,,,,,,,,,,,,,,,,,,
,,,,,,613af1d83ec1a51d557b4dd2,62c53a6513458ccbebe36d39,2022-07-06_02h32.03.405,Colour_Asymmetry_Pilot,2022.1.3,Win32,239.4636015,62c50e9c1127f2cd403a315f,0,90,90,12,1,threeone,,,,,,,,,,,,,,,,,,,,,,,,,,,,,,,,,,,,,,,,,,,,,,,,,,,,,,,,,,,,,,,,,,,,,,,,,,,,,,,,,,,,,,,,,,,,,,,,,,,,,,,,,,,,,,,,,,,,,,,,,,,,,,,,,,,,,,,,,,,,,,,,,,,,,,,,,,,
,,,,,,613af1d83ec1a51d557b4dd2,62c53a6513458ccbebe36d39,2022-07-06_02h32.03.405,Colour_Asymmetry_Pilot,2022.1.3,Win32,239.4636015,62c50e9c1127f2cd403a315f,0,91,91,34,1,twoone,,,,,,,,,,,,,,,,,,,,,,,,,,,,,,,,,,,,,,,,,,,,,,,,,,,,,,,,,,,,,,,,,,,,,,,,,,,,,,,,,,,,,,,,,,,,,,,,,,,,,,,,,,,,,,,,,,,,,,,,,,,,,,,,,,,,,,,,,,,,,,,,,,,,,,,,,,,
,,,,,,613af1d83ec1a51d557b4dd2,62c53a6513458ccbebe36d39,2022-07-06_02h32.03.405,Colour_Asymmetry_Pilot,2022.1.3,Win32,239.4636015,62c50e9c1127f2cd403a315f,0,92,92,54,1,fourtwo,,,,,,,,,,,,,,,,,,,,,,,,,,,,,,,,,,,,,,,,,,,,,,,,,,,,,,,,,,,,,,,,,,,,,,,,,,,,,,,,,,,,,,,,,,,,,,,,,,,,,,,,,,,,,,,,,,,,,,,,,,,,,,,,,,,,,,,,,,,,,,,,,,,,,,,,,,,
,,,,,,613af1d83ec1a51d557b4dd2,62c53a6513458ccbebe36d39,2022-07-06_02h32.03.405,Colour_Asymmetry_Pilot,2022.1.3,Win32,239.4636015,62c50e9c1127f2cd403a315f,0,93,93,10,1,twoone,,,,,,,,,,,,,,,,,,,,,,,,,,,,,,,,,,,,,,,,,,,,,,,,,,,,,,,,,,,,,,,,,,,,,,,,,,,,,,,,,,,,,,,,,,,,,,,,,,,,,,,,,,,,,,,,,,,,,,,,,,,,,,,,,,,,,,,,,,,,,,,,,,,,,,,,,,,
,,,,,,613af1d83ec1a51d557b4dd2,62c53a6513458ccbebe36d39,2022-07-06_02h32.03.405,Colour_Asymmetry_Pilot,2022.1.3,Win32,239.4636015,62c50e9c1127f2cd403a315f,0,94,94,152,1,onetwo,,,,,,,,,,,,,,,,,,,,,,,,,,,,,,,,,,,,,,,,,,,,,,,,,,,,,,,,,,,,,,,,,,,,,,,,,,,,,,,,,,,,,,,,,,,,,,,,,,,,,,,,,,,,,,,,,,,,,,,,,,,,,,,,,,,,,,,,,,,,,,,,,,,,,,,,,,,
,,,,,,613af1d83ec1a51d557b4dd2,62c53a6513458ccbebe36d39,2022-07-06_02h32.03.405,Colour_Asymmetry_Pilot,2022.1.3,Win32,239.4636015,62c50e9c1127f2cd403a315f,0,95,95,133,1,threefour,,,,,,,,,,,,,,,,,,,,,,,,,,,,,,,,,,,,,,,,,,,,,,,,,,,,,,,,,,,,,,,,,,,,,,,,,,,,,,,,,,,,,,,,,,,,,,,,,,,,,,,,,,,,,,,,,,,,,,,,,,,,,,,,,,,,,,,,,,,,,,,,,,,,,,,,,,,
,,,,,,613af1d83ec1a51d557b4dd2,62c53a6513458ccbebe36d39,2022-07-06_02h32.03.405,Colour_Asymmetry_Pilot,2022.1.3,Win32,239.4636015,62c50e9c1127f2cd403a315f,0,96,96,42,1,twoone,,,,,,,,,,,,,,,,,,,,,,,,,,,,,,,,,,,,,,,,,,,,,,,,,,,,,,,,,,,,,,,,,,,,,,,,,,,,,,,,,,,,,,,,,,,,,,,,,,,,,,,,,,,,,,,,,,,,,,,,,,,,,,,,,,,,,,,,,,,,,,,,,,,,,,,,,,,
,,,,,,613af1d83ec1a51d557b4dd2,62c53a6513458ccbebe36d39,2022-07-06_02h32.03.405,Colour_Asymmetry_Pilot,2022.1.3,Win32,239.4636015,62c50e9c1127f2cd403a315f,0,97,97,61,1,threefour,,,,,,,,,,,,,,,,,,,,,,,,,,,,,,,,,,,,,,,,,,,,,,,,,,,,,,,,,,,,,,,,,,,,,,,,,,,,,,,,,,,,,,,,,,,,,,,,,,,,,,,,,,,,,,,,,,,,,,,,,,,,,,,,,,,,,,,,,,,,,,,,,,,,,,,,,,,
,,,,,,613af1d83ec1a51d557b4dd2,62c53a6513458ccbebe36d39,2022-07-06_02h32.03.405,Colour_Asymmetry_Pilot,2022.1.3,Win32,239.4636015,62c50e9c1127f2cd403a315f,0,98,98,24,1,onetwo,,,,,,,,,,,,,,,,,,,,,,,,,,,,,,,,,,,,,,,,,,,,,,,,,,,,,,,,,,,,,,,,,,,,,,,,,,,,,,,,,,,,,,,,,,,,,,,,,,,,,,,,,,,,,,,,,,,,,,,,,,,,,,,,,,,,,,,,,,,,,,,,,,,,,,,,,,,
,,,,,,613af1d83ec1a51d557b4dd2,62c53a6513458ccbebe36d39,2022-07-06_02h32.03.405,Colour_Asymmetry_Pilot,2022.1.3,Win32,239.4636015,62c50e9c1127f2cd403a315f,0,99,99,0,1,onetwo,,,,,,,,,,,,,,,,,,,,,,,,,,,,,,,,,,,,,,,,,,,,,,,,,,,,,,,,,,,,,,,,,,,,,,,,,,,,,,,,,,,,,,,,,,,,,,,,,,,,,,,,,,,,,,,,,,,,,,,,,,,,,,,,,,,,,,,,,,,,,,,,,,,,,,,,,,,
,,,,,,613af1d83ec1a51d557b4dd2,62c53a6513458ccbebe36d39,2022-07-06_02h32.03.405,Colour_Asymmetry_Pilot,2022.1.3,Win32,239.4636015,62c50e9c1127f2cd403a315f,0,100,100,1,1,onethree,,,,,,,,,,,,,,,,,,,,,,,,,,,,,,,,,,,,,,,,,,,,,,,,,,,,,,,,,,,,,,,,,,,,,,,,,,,,,,,,,,,,,,,,,,,,,,,,,,,,,,,,,,,,,,,,,,,,,,,,,,,,,,,,,,,,,,,,,,,,,,,,,,,,,,,,,,,
,,,,,,613af1d83ec1a51d557b4dd2,62c53a6513458ccbebe36d39,2022-07-06_02h32.03.405,Colour_Asymmetry_Pilot,2022.1.3,Win32,239.4636015,62c50e9c1127f2cd403a315f,0,101,101,108,1,threeone,,,,,,,,,,,,,,,,,,,,,,,,,,,,,,,,,,,,,,,,,,,,,,,,,,,,,,,,,,,,,,,,,,,,,,,,,,,,,,,,,,,,,,,,,,,,,,,,,,,,,,,,,,,,,,,,,,,,,,,,,,,,,,,,,,,,,,,,,,,,,,,,,,,,,,,,,,,
,,,,,,613af1d83ec1a51d557b4dd2,62c53a6513458ccbebe36d39,2022-07-06_02h32.03.405,Colour_Asymmetry_Pilot,2022.1.3,Win32,239.4636015,62c50e9c1127f2cd403a315f,0,102,102,33,1,onethree,,,,,,,,,,,,,,,,,,,,,,,,,,,,,,,,,,,,,,,,,,,,,,,,,,,,,,,,,,,,,,,,,,,,,,,,,,,,,,,,,,,,,,,,,,,,,,,,,,,,,,,,,,,,,,,,,,,,,,,,,,,,,,,,,,,,,,,,,,,,,,,,,,,,,,,,,,,
,,,,,,613af1d83ec1a51d557b4dd2,62c53a6513458ccbebe36d39,2022-07-06_02h32.03.405,Colour_Asymmetry_Pilot,2022.1.3,Win32,239.4636015,62c50e9c1127f2cd403a315f,0,103,103,81,1,onethree,,,,,,,,,,,,,,,,,,,,,,,,,,,,,,,,,,,,,,,,,,,,,,,,,,,,,,,,,,,,,,,,,,,,,,,,,,,,,,,,,,,,,,,,,,,,,,,,,,,,,,,,,,,,,,,,,,,,,,,,,,,,,,,,,,,,,,,,,,,,,,,,,,,,,,,,,,,
,,,,,,613af1d83ec1a51d557b4dd2,62c53a6513458ccbebe36d39,2022-07-06_02h32.03.405,Colour_Asymmetry_Pilot,2022.1.3,Win32,239.4636015,62c50e9c1127f2cd403a315f,0,104,104,146,1,twoone,,,,,,,,,,,,,,,,,,,,,,,,,,,,,,,,,,,,,,,,,,,,,,,,,,,,,,,,,,,,,,,,,,,,,,,,,,,,,,,,,,,,,,,,,,,,,,,,,,,,,,,,,,,,,,,,,,,,,,,,,,,,,,,,,,,,,,,,,,,,,,,,,,,,,,,,,,,
,,,,,,613af1d83ec1a51d557b4dd2,62c53a6513458ccbebe36d39,2022-07-06_02h32.03.405,Colour_Asymmetry_Pilot,2022.1.3,Win32,239.4636015,62c50e9c1127f2cd403a315f,0,105,105,91,1,twofour,,,,,,,,,,,,,,,,,,,,,,,,,,,,,,,,,,,,,,,,,,,,,,,,,,,,,,,,,,,,,,,,,,,,,,,,,,,,,,,,,,,,,,,,,,,,,,,,,,,,,,,,,,,,,,,,,,,,,,,,,,,,,,,,,,,,,,,,,,,,,,,,,,,,,,,,,,,
,,,,,,613af1d83ec1a51d557b4dd2,62c53a6513458ccbebe36d39,2022-07-06_02h32.03.405,Colour_Asymmetry_Pilot,2022.1.3,Win32,239.4636015,62c50e9c1127f2cd403a315f,0,106,106,140,1,threeone,,,,,,,,,,,,,,,,,,,,,,,,,,,,,,,,,,,,,,,,,,,,,,,,,,,,,,,,,,,,,,,,,,,,,,,,,,,,,,,,,,,,,,,,,,,,,,,,,,,,,,,,,,,,,,,,,,,,,,,,,,,,,,,,,,,,,,,,,,,,,,,,,,,,,,,,,,,
,,,,,,613af1d83ec1a51d557b4dd2,62c53a6513458ccbebe36d39,2022-07-06_02h32.03.405,Colour_Asymmetry_Pilot,2022.1.3,Win32,239.4636015,62c50e9c1127f2cd403a315f,0,107,107,77,1,threefour,,,,,,,,,,,,,,,,,,,,,,,,,,,,,,,,,,,,,,,,,,,,,,,,,,,,,,,,,,,,,,,,,,,,,,,,,,,,,,,,,,,,,,,,,,,,,,,,,,,,,,,,,,,,,,,,,,,,,,,,,,,,,,,,,,,,,,,,,,,,,,,,,,,,,,,,,,,
,,,,,,613af1d83ec1a51d557b4dd2,62c53a6513458ccbebe36d39,2022-07-06_02h32.03.405,Colour_Asymmetry_Pilot,2022.1.3,Win32,239.4636015,62c50e9c1127f2cd403a315f,0,108,108,29,1,threefour,,,,,,,,,,,,,,,,,,,,,,,,,,,,,,,,,,,,,,,,,,,,,,,,,,,,,,,,,,,,,,,,,,,,,,,,,,,,,,,,,,,,,,,,,,,,,,,,,,,,,,,,,,,,,,,,,,,,,,,,,,,,,,,,,,,,,,,,,,,,,,,,,,,,,,,,,,,
,,,,,,613af1d83ec1a51d557b4dd2,62c53a6513458ccbebe36d39,2022-07-06_02h32.03.405,Colour_Asymmetry_Pilot,2022.1.3,Win32,239.4636015,62c50e9c1127f2cd403a315f,0,109,109,53,1,threefour,,,,,,,,,,,,,,,,,,,,,,,,,,,,,,,,,,,,,,,,,,,,,,,,,,,,,,,,,,,,,,,,,,,,,,,,,,,,,,,,,,,,,,,,,,,,,,,,,,,,,,,,,,,,,,,,,,,,,,,,,,,,,,,,,,,,,,,,,,,,,,,,,,,,,,,,,,,
,,,,,,613af1d83ec1a51d557b4dd2,62c53a6513458ccbebe36d39,2022-07-06_02h32.03.405,Colour_Asymmetry_Pilot,2022.1.3,Win32,239.4636015,62c50e9c1127f2cd403a315f,0,110,110,93,1,threefour,,,,,,,,,,,,,,,,,,,,,,,,,,,,,,,,,,,,,,,,,,,,,,,,,,,,,,,,,,,,,,,,,,,,,,,,,,,,,,,,,,,,,,,,,,,,,,,,,,,,,,,,,,,,,,,,,,,,,,,,,,,,,,,,,,,,,,,,,,,,,,,,,,,,,,,,,,,
,,,,,,613af1d83ec1a51d557b4dd2,62c53a6513458ccbebe36d39,2022-07-06_02h32.03.405,Colour_Asymmetry_Pilot,2022.1.3,Win32,239.4636015,62c50e9c1127f2cd403a315f,0,111,111,47,1,fourthree,,,,,,,,,,,,,,,,,,,,,,,,,,,,,,,,,,,,,,,,,,,,,,,,,,,,,,,,,,,,,,,,,,,,,,,,,,,,,,,,,,,,,,,,,,,,,,,,,,,,,,,,,,,,,,,,,,,,,,,,,,,,,,,,,,,,,,,,,,,,,,,,,,,,,,,,,,,
,,,,,,613af1d83ec1a51d557b4dd2,62c53a6513458ccbebe36d39,2022-07-06_02h32.03.405,Colour_Asymmetry_Pilot,2022.1.3,Win32,239.4636015,62c50e9c1127f2cd403a315f,0,112,112,118,1,fourtwo,,,,,,,,,,,,,,,,,,,,,,,,,,,,,,,,,,,,,,,,,,,,,,,,,,,,,,,,,,,,,,,,,,,,,,,,,,,,,,,,,,,,,,,,,,,,,,,,,,,,,,,,,,,,,,,,,,,,,,,,,,,,,,,,,,,,,,,,,,,,,,,,,,,,,,,,,,,
,,,,,,613af1d83ec1a51d557b4dd2,62c53a6513458ccbebe36d39,2022-07-06_02h32.03.405,Colour_Asymmetry_Pilot,2022.1.3,Win32,239.4636015,62c50e9c1127f2cd403a315f,0,113,113,99,1,twofour,,,,,,,,,,,,,,,,,,,,,,,,,,,,,,,,,,,,,,,,,,,,,,,,,,,,,,,,,,,,,,,,,,,,,,,,,,,,,,,,,,,,,,,,,,,,,,,,,,,,,,,,,,,,,,,,,,,,,,,,,,,,,,,,,,,,,,,,,,,,,,,,,,,,,,,,,,,
,,,,,,613af1d83ec1a51d557b4dd2,62c53a6513458ccbebe36d39,2022-07-06_02h32.03.405,Colour_Asymmetry_Pilot,2022.1.3,Win32,239.4636015,62c50e9c1127f2cd403a315f,0,114,114,31,1,fourthree,,,,,,,,,,,,,,,,,,,,,,,,,,,,,,,,,,,,,,,,,,,,,,,,,,,,,,,,,,,,,,,,,,,,,,,,,,,,,,,,,,,,,,,,,,,,,,,,,,,,,,,,,,,,,,,,,,,,,,,,,,,,,,,,,,,,,,,,,,,,,,,,,,,,,,,,,,,
,,,,,,613af1d83ec1a51d557b4dd2,62c53a6513458ccbebe36d39,2022-07-06_02h32.03.405,Colour_Asymmetry_Pilot,2022.1.3,Win32,239.4636015,62c50e9c1127f2cd403a315f,0,115,115,110,1,fourtwo,,,,,,,,,,,,,,,,,,,,,,,,,,,,,,,,,,,,,,,,,,,,,,,,,,,,,,,,,,,,,,,,,,,,,,,,,,,,,,,,,,,,,,,,,,,,,,,,,,,,,,,,,,,,,,,,,,,,,,,,,,,,,,,,,,,,,,,,,,,,,,,,,,,,,,,,,,,
,,,,,,613af1d83ec1a51d557b4dd2,62c53a6513458ccbebe36d39,2022-07-06_02h32.03.405,Colour_Asymmetry_Pilot,2022.1.3,Win32,239.4636015,62c50e9c1127f2cd403a315f,0,116,116,142,1,fourtwo,,,,,,,,,,,,,,,,,,,,,,,,,,,,,,,,,,,,,,,,,,,,,,,,,,,,,,,,,,,,,,,,,,,,,,,,,,,,,,,,,,,,,,,,,,,,,,,,,,,,,,,,,,,,,,,,,,,,,,,,,,,,,,,,,,,,,,,,,,,,,,,,,,,,,,,,,,,
,,,,,,613af1d83ec1a51d557b4dd2,62c53a6513458ccbebe36d39,2022-07-06_02h32.03.405,Colour_Asymmetry_Pilot,2022.1.3,Win32,239.4636015,62c50e9c1127f2cd403a315f,0,117,117,147,1,twofour,,,,,,,,,,,,,,,,,,,,,,,,,,,,,,,,,,,,,,,,,,,,,,,,,,,,,,,,,,,,,,,,,,,,,,,,,,,,,,,,,,,,,,,,,,,,,,,,,,,,,,,,,,,,,,,,,,,,,,,,,,,,,,,,,,,,,,,,,,,,,,,,,,,,,,,,,,,
,,,,,,613af1d83ec1a51d557b4dd2,62c53a6513458ccbebe36d39,2022-07-06_02h32.03.405,Colour_Asymmetry_Pilot,2022.1.3,Win32,239.4636015,62c50e9c1127f2cd403a315f,0,118,118,71,1,fourthree,,,,,,,,,,,,,,,,,,,,,,,,,,,,,,,,,,,,,,,,,,,,,,,,,,,,,,,,,,,,,,,,,,,,,,,,,,,,,,,,,,,,,,,,,,,,,,,,,,,,,,,,,,,,,,,,,,,,,,,,,,,,,,,,,,,,,,,,,,,,,,,,,,,,,,,,,,,
,,,,,,613af1d83ec1a51d557b4dd2,62c53a6513458ccbebe36d39,2022-07-06_02h32.03.405,Colour_Asymmetry_Pilot,2022.1.3,Win32,239.4636015,62c50e9c1127f2cd403a315f,0,119,119,70,1,fourtwo,,,,,,,,,,,,,,,,,,,,,,,,,,,,,,,,,,,,,,,,,,,,,,,,,,,,,,,,,,,,,,,,,,,,,,,,,,,,,,,,,,,,,,,,,,,,,,,,,,,,,,,,,,,,,,,,,,,,,,,,,,,,,,,,,,,,,,,,,,,,,,,,,,,,,,,,,,,
,,,,,,613af1d83ec1a51d557b4dd2,62c53a6513458ccbebe36d39,2022-07-06_02h32.03.405,Colour_Asymmetry_Pilot,2022.1.3,Win32,239.4636015,62c50e9c1127f2cd403a315f,0,120,120,78,1,fourtwo,,,,,,,,,,,,,,,,,,,,,,,,,,,,,,,,,,,,,,,,,,,,,,,,,,,,,,,,,,,,,,,,,,,,,,,,,,,,,,,,,,,,,,,,,,,,,,,,,,,,,,,,,,,,,,,,,,,,,,,,,,,,,,,,,,,,,,,,,,,,,,,,,,,,,,,,,,,
,,,,,,613af1d83ec1a51d557b4dd2,62c53a6513458ccbebe36d39,2022-07-06_02h32.03.405,Colour_Asymmetry_Pilot,2022.1.3,Win32,239.4636015,62c50e9c1127f2cd403a315f,0,121,121,20,1,threeone,,,,,,,,,,,,,,,,,,,,,,,,,,,,,,,,,,,,,,,,,,,,,,,,,,,,,,,,,,,,,,,,,,,,,,,,,,,,,,,,,,,,,,,,,,,,,,,,,,,,,,,,,,,,,,,,,,,,,,,,,,,,,,,,,,,,,,,,,,,,,,,,,,,,,,,,,,,
,,,,,,613af1d83ec1a51d557b4dd2,62c53a6513458ccbebe36d39,2022-07-06_02h32.03.405,Colour_Asymmetry_Pilot,2022.1.3,Win32,239.4636015,62c50e9c1127f2cd403a315f,0,122,122,76,1,threeone,,,,,,,,,,,,,,,,,,,,,,,,,,,,,,,,,,,,,,,,,,,,,,,,,,,,,,,,,,,,,,,,,,,,,,,,,,,,,,,,,,,,,,,,,,,,,,,,,,,,,,,,,,,,,,,,,,,,,,,,,,,,,,,,,,,,,,,,,,,,,,,,,,,,,,,,,,,
,,,,,,613af1d83ec1a51d557b4dd2,62c53a6513458ccbebe36d39,2022-07-06_02h32.03.405,Colour_Asymmetry_Pilot,2022.1.3,Win32,239.4636015,62c50e9c1127f2cd403a315f,0,123,123,13,1,threefour,,,,,,,,,,,,,,,,,,,,,,,,,,,,,,,,,,,,,,,,,,,,,,,,,,,,,,,,,,,,,,,,,,,,,,,,,,,,,,,,,,,,,,,,,,,,,,,,,,,,,,,,,,,,,,,,,,,,,,,,,,,,,,,,,,,,,,,,,,,,,,,,,,,,,,,,,,,
,,,,,,613af1d83ec1a51d557b4dd2,62c53a6513458ccbebe36d39,2022-07-06_02h32.03.405,Colour_Asymmetry_Pilot,2022.1.3,Win32,239.4636015,62c50e9c1127f2cd403a315f,0,124,124,74,1,twoone,,,,,,,,,,,,,,,,,,,,,,,,,,,,,,,,,,,,,,,,,,,,,,,,,,,,,,,,,,,,,,,,,,,,,,,,,,,,,,,,,,,,,,,,,,,,,,,,,,,,,,,,,,,,,,,,,,,,,,,,,,,,,,,,,,,,,,,,,,,,,,,,,,,,,,,,,,,
,,,,,,613af1d83ec1a51d557b4dd2,62c53a6513458ccbebe36d39,2022-07-06_02h32.03.405,Colour_Asymmetry_Pilot,2022.1.3,Win32,239.4636015,62c50e9c1127f2cd403a315f,0,125,125,62,1,fourtwo,,,,,,,,,,,,,,,,,,,,,,,,,,,,,,,,,,,,,,,,,,,,,,,,,,,,,,,,,,,,,,,,,,,,,,,,,,,,,,,,,,,,,,,,,,,,,,,,,,,,,,,,,,,,,,,,,,,,,,,,,,,,,,,,,,,,,,,,,,,,,,,,,,,,,,,,,,,
,,,,,,613af1d83ec1a51d557b4dd2,62c53a6513458ccbebe36d39,2022-07-06_02h32.03.405,Colour_Asymmetry_Pilot,2022.1.3,Win32,239.4636015,62c50e9c1127f2cd403a315f,0,126,126,98,1,twoone,,,,,,,,,,,,,,,,,,,,,,,,,,,,,,,,,,,,,,,,,,,,,,,,,,,,,,,,,,,,,,,,,,,,,,,,,,,,,,,,,,,,,,,,,,,,,,,,,,,,,,,,,,,,,,,,,,,,,,,,,,,,,,,,,,,,,,,,,,,,,,,,,,,,,,,,,,,
,,,,,,613af1d83ec1a51d557b4dd2,62c53a6513458ccbebe36d39,2022-07-06_02h32.03.405,Colour_Asymmetry_Pilot,2022.1.3,Win32,239.4636015,62c50e9c1127f2cd403a315f,0,127,127,124,1,threeone,,,,,,,,,,,,,,,,,,,,,,,,,,,,,,,,,,,,,,,,,,,,,,,,,,,,,,,,,,,,,,,,,,,,,,,,,,,,,,,,,,,,,,,,,,,,,,,,,,,,,,,,,,,,,,,,,,,,,,,,,,,,,,,,,,,,,,,,,,,,,,,,,,,,,,,,,,,
,,,,,,613af1d83ec1a51d557b4dd2,62c53a6513458ccbebe36d39,2022-07-06_02h32.03.405,Colour_Asymmetry_Pilot,2022.1.3,Win32,239.4636015,62c50e9c1127f2cd403a315f,0,128,128,80,1,onetwo,,,,,,,,,,,,,,,,,,,,,,,,,,,,,,,,,,,,,,,,,,,,,,,,,,,,,,,,,,,,,,,,,,,,,,,,,,,,,,,,,,,,,,,,,,,,,,,,,,,,,,,,,,,,,,,,,,,,,,,,,,,,,,,,,,,,,,,,,,,,,,,,,,,,,,,,,,,
,,,,,,613af1d83ec1a51d557b4dd2,62c53a6513458ccbebe36d39,2022-07-06_02h32.03.405,Colour_Asymmetry_Pilot,2022.1.3,Win32,239.4636015,62c50e9c1127f2cd403a315f,0,129,129,69,1,threefour,,,,,,,,,,,,,,,,,,,,,,,,,,,,,,,,,,,,,,,,,,,,,,,,,,,,,,,,,,,,,,,,,,,,,,,,,,,,,,,,,,,,,,,,,,,,,,,,,,,,,,,,,,,,,,,,,,,,,,,,,,,,,,,,,,,,,,,,,,,,,,,,,,,,,,,,,,,
,,,,,,613af1d83ec1a51d557b4dd2,62c53a6513458ccbebe36d39,2022-07-06_02h32.03.405,Colour_Asymmetry_Pilot,2022.1.3,Win32,239.4636015,62c50e9c1127f2cd403a315f,0,130,130,18,1,twoone,,,,,,,,,,,,,,,,,,,,,,,,,,,,,,,,,,,,,,,,,,,,,,,,,,,,,,,,,,,,,,,,,,,,,,,,,,,,,,,,,,,,,,,,,,,,,,,,,,,,,,,,,,,,,,,,,,,,,,,,,,,,,,,,,,,,,,,,,,,,,,,,,,,,,,,,,,,
,,,,,,613af1d83ec1a51d557b4dd2,62c53a6513458ccbebe36d39,2022-07-06_02h32.03.405,Colour_Asymmetry_Pilot,2022.1.3,Win32,239.4636015,62c50e9c1127f2cd403a315f,0,131,131,120,1,onetwo,,,,,,,,,,,,,,,,,,,,,,,,,,,,,,,,,,,,,,,,,,,,,,,,,,,,,,,,,,,,,,,,,,,,,,,,,,,,,,,,,,,,,,,,,,,,,,,,,,,,,,,,,,,,,,,,,,,,,,,,,,,,,,,,,,,,,,,,,,,,,,,,,,,,,,,,,,,
,,,,,,613af1d83ec1a51d557b4dd2,62c53a6513458ccbebe36d39,2022-07-06_02h32.03.405,Colour_Asymmetry_Pilot,2022.1.3,Win32,239.4636015,62c50e9c1127f2cd403a315f,0,132,132,139,1,twofour,,,,,,,,,,,,,,,,,,,,,,,,,,,,,,,,,,,,,,,,,,,,,,,,,,,,,,,,,,,,,,,,,,,,,,,,,,,,,,,,,,,,,,,,,,,,,,,,,,,,,,,,,,,,,,,,,,,,,,,,,,,,,,,,,,,,,,,,,,,,,,,,,,,,,,,,,,,
,,,,,,613af1d83ec1a51d557b4dd2,62c53a6513458ccbebe36d39,2022-07-06_02h32.03.405,Colour_Asymmetry_Pilot,2022.1.3,Win32,239.4636015,62c50e9c1127f2cd403a315f,0,133,133,114,1,twoone,,,,,,,,,,,,,,,,,,,,,,,,,,,,,,,,,,,,,,,,,,,,,,,,,,,,,,,,,,,,,,,,,,,,,,,,,,,,,,,,,,,,,,,,,,,,,,,,,,,,,,,,,,,,,,,,,,,,,,,,,,,,,,,,,,,,,,,,,,,,,,,,,,,,,,,,,,,
,,,,,,613af1d83ec1a51d557b4dd2,62c53a6513458ccbebe36d39,2022-07-06_02h32.03.405,Colour_Asymmetry_Pilot,2022.1.3,Win32,239.4636015,62c50e9c1127f2cd403a315f,0,134,134,83,1,twofour,,,,,,,,,,,,,,,,,,,,,,,,,,,,,,,,,,,,,,,,,,,,,,,,,,,,,,,,,,,,,,,,,,,,,,,,,,,,,,,,,,,,,,,,,,,,,,,,,,,,,,,,,,,,,,,,,,,,,,,,,,,,,,,,,,,,,,,,,,,,,,,,,,,,,,,,,,,
,,,,,,613af1d83ec1a51d557b4dd2,62c53a6513458ccbebe36d39,2022-07-06_02h32.03.405,Colour_Asymmetry_Pilot,2022.1.3,Win32,239.4636015,62c50e9c1127f2cd403a315f,0,135,135,103,1,fourthree,,,,,,,,,,,,,,,,,,,,,,,,,,,,,,,,,,,,,,,,,,,,,,,,,,,,,,,,,,,,,,,,,,,,,,,,,,,,,,,,,,,,,,,,,,,,,,,,,,,,,,,,,,,,,,,,,,,,,,,,,,,,,,,,,,,,,,,,,,,,,,,,,,,,,,,,,,,
,,,,,,613af1d83ec1a51d557b4dd2,62c53a6513458ccbebe36d39,2022-07-06_02h32.03.405,Colour_Asymmetry_Pilot,2022.1.3,Win32,239.4636015,62c50e9c1127f2cd403a315f,0,136,136,63,1,fourthree,,,,,,,,,,,,,,,,,,,,,,,,,,,,,,,,,,,,,,,,,,,,,,,,,,,,,,,,,,,,,,,,,,,,,,,,,,,,,,,,,,,,,,,,,,,,,,,,,,,,,,,,,,,,,,,,,,,,,,,,,,,,,,,,,,,,,,,,,,,,,,,,,,,,,,,,,,,
,,,,,,613af1d83ec1a51d557b4dd2,62c53a6513458ccbebe36d39,2022-07-06_02h32.03.405,Colour_Asymmetry_Pilot,2022.1.3,Win32,239.4636015,62c50e9c1127f2cd403a315f,0,137,137,32,1,onetwo,,,,,,,,,,,,,,,,,,,,,,,,,,,,,,,,,,,,,,,,,,,,,,,,,,,,,,,,,,,,,,,,,,,,,,,,,,,,,,,,,,,,,,,,,,,,,,,,,,,,,,,,,,,,,,,,,,,,,,,,,,,,,,,,,,,,,,,,,,,,,,,,,,,,,,,,,,,
,,,,,,613af1d83ec1a51d557b4dd2,62c53a6513458ccbebe36d39,2022-07-06_02h32.03.405,Colour_Asymmetry_Pilot,2022.1.3,Win32,239.4636015,62c50e9c1127f2cd403a315f,0,138,138,149,1,threefour,,,,,,,,,,,,,,,,,,,,,,,,,,,,,,,,,,,,,,,,,,,,,,,,,,,,,,,,,,,,,,,,,,,,,,,,,,,,,,,,,,,,,,,,,,,,,,,,,,,,,,,,,,,,,,,,,,,,,,,,,,,,,,,,,,,,,,,,,,,,,,,,,,,,,,,,,,,
,,,,,,613af1d83ec1a51d557b4dd2,62c53a6513458ccbebe36d39,2022-07-06_02h32.03.405,Colour_Asymmetry_Pilot,2022.1.3,Win32,239.4636015,62c50e9c1127f2cd403a315f,0,139,139,49,1,onethree,,,,,,,,,,,,,,,,,,,,,,,,,,,,,,,,,,,,,,,,,,,,,,,,,,,,,,,,,,,,,,,,,,,,,,,,,,,,,,,,,,,,,,,,,,,,,,,,,,,,,,,,,,,,,,,,,,,,,,,,,,,,,,,,,,,,,,,,,,,,,,,,,,,,,,,,,,,
,,,,,,613af1d83ec1a51d557b4dd2,62c53a6513458ccbebe36d39,2022-07-06_02h32.03.405,Colour_Asymmetry_Pilot,2022.1.3,Win32,239.4636015,62c50e9c1127f2cd403a315f,0,140,140,15,1,fourthree,,,,,,,,,,,,,,,,,,,,,,,,,,,,,,,,,,,,,,,,,,,,,,,,,,,,,,,,,,,,,,,,,,,,,,,,,,,,,,,,,,,,,,,,,,,,,,,,,,,,,,,,,,,,,,,,,,,,,,,,,,,,,,,,,,,,,,,,,,,,,,,,,,,,,,,,,,,
,,,,,,613af1d83ec1a51d557b4dd2,62c53a6513458ccbebe36d39,2022-07-06_02h32.03.405,Colour_Asymmetry_Pilot,2022.1.3,Win32,239.4636015,62c50e9c1127f2cd403a315f,0,141,141,127,1,fourthree,,,,,,,,,,,,,,,,,,,,,,,,,,,,,,,,,,,,,,,,,,,,,,,,,,,,,,,,,,,,,,,,,,,,,,,,,,,,,,,,,,,,,,,,,,,,,,,,,,,,,,,,,,,,,,,,,,,,,,,,,,,,,,,,,,,,,,,,,,,,,,,,,,,,,,,,,,,
,,,,,,613af1d83ec1a51d557b4dd2,62c53a6513458ccbebe36d39,2022-07-06_02h32.03.405,Colour_Asymmetry_Pilot,2022.1.3,Win32,239.4636015,62c50e9c1127f2cd403a315f,0,142,142,104,1,onetwo,,,,,,,,,,,,,,,,,,,,,,,,,,,,,,,,,,,,,,,,,,,,,,,,,,,,,,,,,,,,,,,,,,,,,,,,,,,,,,,,,,,,,,,,,,,,,,,,,,,,,,,,,,,,,,,,,,,,,,,,,,,,,,,,,,,,,,,,,,,,,,,,,,,,,,,,,,,
,,,,,,613af1d83ec1a51d557b4dd2,62c53a6513458ccbebe36d39,2022-07-06_02h32.03.405,Colour_Asymmetry_Pilot,2022.1.3,Win32,239.4636015,62c50e9c1127f2cd403a315f,0,143,143,122,1,twoone,,,,,,,,,,,,,,,,,,,,,,,,,,,,,,,,,,,,,,,,,,,,,,,,,,,,,,,,,,,,,,,,,,,,,,,,,,,,,,,,,,,,,,,,,,,,,,,,,,,,,,,,,,,,,,,,,,,,,,,,,,,,,,,,,,,,,,,,,,,,,,,,,,,,,,,,,,,
,,,,,,613af1d83ec1a51d557b4dd2,62c53a6513458ccbebe36d39,2022-07-06_02h32.03.405,Colour_Asymmetry_Pilot,2022.1.3,Win32,239.4636015,62c50e9c1127f2cd403a315f,0,144,144,94,1,fourtwo,,,,,,,,,,,,,,,,,,,,,,,,,,,,,,,,,,,,,,,,,,,,,,,,,,,,,,,,,,,,,,,,,,,,,,,,,,,,,,,,,,,,,,,,,,,,,,,,,,,,,,,,,,,,,,,,,,,,,,,,,,,,,,,,,,,,,,,,,,,,,,,,,,,,,,,,,,,
,,,,,,613af1d83ec1a51d557b4dd2,62c53a6513458ccbebe36d39,2022-07-06_02h32.03.405,Colour_Asymmetry_Pilot,2022.1.3,Win32,239.4636015,62c50e9c1127f2cd403a315f,0,145,145,153,1,onethree,,,,,,,,,,,,,,,,,,,,,,,,,,,,,,,,,,,,,,,,,,,,,,,,,,,,,,,,,,,,,,,,,,,,,,,,,,,,,,,,,,,,,,,,,,,,,,,,,,,,,,,,,,,,,,,,,,,,,,,,,,,,,,,,,,,,,,,,,,,,,,,,,,,,,,,,,,,
,,,,,,613af1d83ec1a51d557b4dd2,62c53a6513458ccbebe36d39,2022-07-06_02h32.03.405,Colour_Asymmetry_Pilot,2022.1.3,Win32,239.4636015,62c50e9c1127f2cd403a315f,0,146,146,38,1,fourtwo,,,,,,,,,,,,,,,,,,,,,,,,,,,,,,,,,,,,,,,,,,,,,,,,,,,,,,,,,,,,,,,,,,,,,,,,,,,,,,,,,,,,,,,,,,,,,,,,,,,,,,,,,,,,,,,,,,,,,,,,,,,,,,,,,,,,,,,,,,,,,,,,,,,,,,,,,,,
,,,,,,613af1d83ec1a51d557b4dd2,62c53a6513458ccbebe36d39,2022-07-06_02h32.03.405,Colour_Asymmetry_Pilot,2022.1.3,Win32,239.4636015,62c50e9c1127f2cd403a315f,0,147,147,137,1,onethree,,,,,,,,,,,,,,,,,,,,,,,,,,,,,,,,,,,,,,,,,,,,,,,,,,,,,,,,,,,,,,,,,,,,,,,,,,,,,,,,,,,,,,,,,,,,,,,,,,,,,,,,,,,,,,,,,,,,,,,,,,,,,,,,,,,,,,,,,,,,,,,,,,,,,,,,,,,
,,,,,,613af1d83ec1a51d557b4dd2,62c53a6513458ccbebe36d39,2022-07-06_02h32.03.405,Colour_Asymmetry_Pilot,2022.1.3,Win32,239.4636015,62c50e9c1127f2cd403a315f,0,148,148,100,1,threeone,,,,,,,,,,,,,,,,,,,,,,,,,,,,,,,,,,,,,,,,,,,,,,,,,,,,,,,,,,,,,,,,,,,,,,,,,,,,,,,,,,,,,,,,,,,,,,,,,,,,,,,,,,,,,,,,,,,,,,,,,,,,,,,,,,,,,,,,,,,,,,,,,,,,,,,,,,,
,,,,,,613af1d83ec1a51d557b4dd2,62c53a6513458ccbebe36d39,2022-07-06_02h32.03.405,Colour_Asymmetry_Pilot,2022.1.3,Win32,239.4636015,62c50e9c1127f2cd403a315f,0,149,149,97,1,onethree,,,,,,,,,,,,,,,,,,,,,,,,,,,,,,,,,,,,,,,,,,,,,,,,,,,,,,,,,,,,,,,,,,,,,,,,,,,,,,,,,,,,,,,,,,,,,,,,,,,,,,,,,,,,,,,,,,,,,,,,,,,,,,,,,,,,,,,,,,,,,,,,,,,,,,,,,,,
,,,,,,613af1d83ec1a51d557b4dd2,62c53a6513458ccbebe36d39,2022-07-06_02h32.03.405,Colour_Asymmetry_Pilot,2022.1.3,Win32,239.4636015,62c50e9c1127f2cd403a315f,0,150,150,150,1,fourtwo,,,,,,,,,,,,,,,,,,,,,,,,,,,,,,,,,,,,,,,,,,,,,,,,,,,,,,,,,,,,,,,,,,,,,,,,,,,,,,,,,,,,,,,,,,,,,,,,,,,,,,,,,,,,,,,,,,,,,,,,,,,,,,,,,,,,,,,,,,,,,,,,,,,,,,,,,,,
,,,,,,613af1d83ec1a51d557b4dd2,62c53a6513458ccbebe36d39,2022-07-06_02h32.03.405,Colour_Asymmetry_Pilot,2022.1.3,Win32,239.4636015,62c50e9c1127f2cd403a315f,0,151,151,48,1,onetwo,,,,,,,,,,,,,,,,,,,,,,,,,,,,,,,,,,,,,,,,,,,,,,,,,,,,,,,,,,,,,,,,,,,,,,,,,,,,,,,,,,,,,,,,,,,,,,,,,,,,,,,,,,,,,,,,,,,,,,,,,,,,,,,,,,,,,,,,,,,,,,,,,,,,,,,,,,,
,,,,,,613af1d83ec1a51d557b4dd2,62c53a6513458ccbebe36d39,2022-07-06_02h32.03.405,Colour_Asymmetry_Pilot,2022.1.3,Win32,239.4636015,62c50e9c1127f2cd403a315f,0,152,152,37,1,threefour,,,,,,,,,,,,,,,,,,,,,,,,,,,,,,,,,,,,,,,,,,,,,,,,,,,,,,,,,,,,,,,,,,,,,,,,,,,,,,,,,,,,,,,,,,,,,,,,,,,,,,,,,,,,,,,,,,,,,,,,,,,,,,,,,,,,,,,,,,,,,,,,,,,,,,,,,,,
,,,,,,613af1d83ec1a51d557b4dd2,62c53a6513458ccbebe36d39,2022-07-06_02h32.03.405,Colour_Asymmetry_Pilot,2022.1.3,Win32,239.4636015,62c50e9c1127f2cd403a315f,0,153,153,136,1,onetwo,,,,,,,,,,,,,,,,,,,,,,,,,,,,,,,,,,,,,,,,,,,,,,,,,,,,,,,,,,,,,,,,,,,,,,,,,,,,,,,,,,,,,,,,,,,,,,,,,,,,,,,,,,,,,,,,,,,,,,,,,,,,,,,,,,,,,,,,,,,,,,,,,,,,,,,,,,,
,,,,,,613af1d83ec1a51d557b4dd2,62c53a6513458ccbebe36d39,2022-07-06_02h32.03.405,Colour_Asymmetry_Pilot,2022.1.3,Win32,239.4636015,62c50e9c1127f2cd403a315f,0,154,154,64,1,onetwo,,,,,,,,,,,,,,,,,,,,,,,,,,,,,,,,,,,,,,,,,,,,,,,,,,,,,,,,,,,,,,,,,,,,,,,,,,,,,,,,,,,,,,,,,,,,,,,,,,,,,,,,,,,,,,,,,,,,,,,,,,,,,,,,,,,,,,,,,,,,,,,,,,,,,,,,,,,
,,,,,,613af1d83ec1a51d557b4dd2,62c53a6513458ccbebe36d39,2022-07-06_02h32.03.405,Colour_Asymmetry_Pilot,2022.1.3,Win32,239.4636015,62c50e9c1127f2cd403a315f,0,155,155,95,1,fourthree,,,,,,,,,,,,,,,,,,,,,,,,,,,,,,,,,,,,,,,,,,,,,,,,,,,,,,,,,,,,,,,,,,,,,,,,,,,,,,,,,,,,,,,,,,,,,,,,,,,,,,,,,,,,,,,,,,,,,,,,,,,,,,,,,,,,,,,,,,,,,,,,,,,,,,,,,,,
,,,,,,613af1d83ec1a51d557b4dd2,62c53a6513458ccbebe36d39,2022-07-06_02h32.03.405,Colour_Asymmetry_Pilot,2022.1.3,Win32,239.4636015,62c50e9c1127f2cd403a315f,0,156,156,155,1,twofour,,,,,,,,,,,,,,,,,,,,,,,,,,,,,,,,,,,,,,,,,,,,,,,,,,,,,,,,,,,,,,,,,,,,,,,,,,,,,,,,,,,,,,,,,,,,,,,,,,,,,,,,,,,,,,,,,,,,,,,,,,,,,,,,,,,,,,,,,,,,,,,,,,,,,,,,,,,
,,,,,,613af1d83ec1a51d557b4dd2,62c53a6513458ccbebe36d39,2022-07-06_02h32.03.405,Colour_Asymmetry_Pilot,2022.1.3,Win32,239.4636015,62c50e9c1127f2cd403a315f,0,157,157,117,1,threefour,,,,,,,,,,,,,,,,,,,,,,,,,,,,,,,,,,,,,,,,,,,,,,,,,,,,,,,,,,,,,,,,,,,,,,,,,,,,,,,,,,,,,,,,,,,,,,,,,,,,,,,,,,,,,,,,,,,,,,,,,,,,,,,,,,,,,,,,,,,,,,,,,,,,,,,,,,,
,,,,,,613af1d83ec1a51d557b4dd2,62c53a6513458ccbebe36d39,2022-07-06_02h32.03.405,Colour_Asymmetry_Pilot,2022.1.3,Win32,239.4636015,62c50e9c1127f2cd403a315f,0,158,158,6,1,fourtwo,,,,,,,,,,,,,,,,,,,,,,,,,,,,,,,,,,,,,,,,,,,,,,,,,,,,,,,,,,,,,,,,,,,,,,,,,,,,,,,,,,,,,,,,,,,,,,,,,,,,,,,,,,,,,,,,,,,,,,,,,,,,,,,,,,,,,,,,,,,,,,,,,,,,,,,,,,,
,,,,,,613af1d83ec1a51d557b4dd2,62c53a6513458ccbebe36d39,2022-07-06_02h32.03.405,Colour_Asymmetry_Pilot,2022.1.3,Win32,239.4636015,62c50e9c1127f2cd403a315f,0,159,159,102,1,fourtwo,,,,,,,,,,,,,,,,,,,,,,,,,,,,,,,,,,,,,,,,,,,,,,,,,,,,,,,,,,,,,,,,,,,,,,,,,,,,,,,,,,,,,,,,,,,,,,,,,,,,,,,,,,,,,,,,,,,,,,,,,,,,,,,,,,,,,,,,,,,,,,,,,,,,,,,,,,,
,,,,,,613af1d83ec1a51d557b4dd2,62c53a6513458ccbebe36d39,2022-07-06_02h32.03.405,Colour_Asymmetry_Pilot,2022.1.3,Win32,239.4636015,62c50e9c1127f2cd403a315f,0,160,160,79,1,fourthree,,,,,,,,,,,,,,,,,,,,,,,,,,,,,,,,,,,,,,,,,,,,,,,,,,,,,,,,,,,,,,,,,,,,,,,,,,,,,,,,,,,,,,,,,,,,,,,,,,,,,,,,,,,,,,,,,,,,,,,,,,,,,,,,,,,,,,,,,,,,,,,,,,,,,,,,,,,
,,,,,,613af1d83ec1a51d557b4dd2,62c53a6513458ccbebe36d39,2022-07-06_02h32.03.405,Colour_Asymmetry_Pilot,2022.1.3,Win32,239.4636015,62c50e9c1127f2cd403a315f,0,161,161,87,1,fourthree,,,,,,,,,,,,,,,,,,,,,,,,,,,,,,,,,,,,,,,,,,,,,,,,,,,,,,,,,,,,,,,,,,,,,,,,,,,,,,,,,,,,,,,,,,,,,,,,,,,,,,,,,,,,,,,,,,,,,,,,,,,,,,,,,,,,,,,,,,,,,,,,,,,,,,,,,,,
,,,,,,613af1d83ec1a51d557b4dd2,62c53a6513458ccbebe36d39,2022-07-06_02h32.03.405,Colour_Asymmetry_Pilot,2022.1.3,Win32,239.4636015,62c50e9c1127f2cd403a315f,,,,,,,space,2.8544,space,12.863,space,9.5289,space,7.9138,space,2.7691,space,5.7437,"[-0.38039999999999996,-0.4276,-0.1452]",onetwo,"[0.9842,0.7409999999999999,-0.6628000000000001]",-4,10.9892,-48,111,1,0,0,response7disk_5,-3,-6,1,0,0,rectangle_8,62,-134,1,0,0,response3disk_7,4,1,19,-6,1,0,0,rectangle_4,0,0,0,0,1,,,,,,,,,,,,,,,,,,,,,,,,,,,,,,,,,,,,,,,,,,,,,,,,,,,,,,,,,,,,,,,,,,,,,,,,,,,,,,,,,,,,,,,,,,,,,,,,,,,,,,,,,,,
,,,,,,613af1d83ec1a51d557b4dd2,62c53a6513458ccbebe36d39,2022-07-06_02h32.03.405,Colour_Asymmetry_Pilot,2022.1.3,Win32,239.4636015,62c50e9c1127f2cd403a315f,,,,,,,,,,,,,,,,,,,"[0.11359999999999992,0.6312,0.5213999999999999]",onetwo,"[0.18419999999999992,-0.4276,-0.404]",-4,3.1298,-42,96,1,0,0,response7disk_5,3,5,1,0,0,rectangle_8,3,5,1,0,0,,,1,3,5,1,0,0,,1,0,1,0,1,,,,,,,,,,,,,,,,,,,,,,,,,,,,,,,,,,,,,,,,,,,,,,,,,,,,,,,,,,,,,,,,,,,,,,,,,,,,,,,,,,,,,,,,,,,,,,,,,,,,,,,,,,,
,,,,,,613af1d83ec1a51d557b4dd2,62c53a6513458ccbebe36d39,2022-07-06_02h32.03.405,Colour_Asymmetry_Pilot,2022.1.3,Win32,239.4636015,62c50e9c1127f2cd403a315f,,,,,,,,,,,,,,,,,,,"[0.37240000000000006,0.4980000000000002,-0.2864]",threeone,"[0.9842,0.7409999999999999,-0.6628000000000001]",-2,4.1196,-96,-54,1,0,0,response5disk_5,-5,-10,1,0,0,rectangle_8,-5,-10,1,0,0,,,1,-5,-10,1,0,0,,2,0,2,0,1,,,,,,,,,,,,,,,,,,,,,,,,,,,,,,,,,,,,,,,,,,,,,,,,,,,,,,,,,,,,,,,,,,,,,,,,,,,,,,,,,,,,,,,,,,,,,,,,,,,,,,,,,,,
,,,,,,613af1d83ec1a51d557b4dd2,62c53a6513458ccbebe36d39,2022-07-06_02h32.03.405,Colour_Asymmetry_Pilot,2022.1.3,Win32,239.4636015,62c50e9c1127f2cd403a315f,,,,,,,,,,,,,,,,,,,"[0.22340000000000004,-0.9296,-0.7884]",fourtwo,"[0.4196,0.4665999999999999,0.3568]",-4,1.2813,-52,86,1,0,0,response7disk_5,1,11,1,0,0,rectangle_8,1,11,1,0,0,,,1,1,11,1,0,0,,3,0,3,0,1,,,,,,,,,,,,,,,,,,,,,,,,,,,,,,,,,,,,,,,,,,,,,,,,,,,,,,,,,,,,,,,,,,,,,,,,,,,,,,,,,,,,,,,,,,,,,,,,,,,,,,,,,,,
,,,,,,613af1d83ec1a51d557b4dd2,62c53a6513458ccbebe36d39,2022-07-06_02h32.03.405,Colour_Asymmetry_Pilot,2022.1.3,Win32,239.4636015,62c50e9c1127f2cd403a315f,,,,,,,,,,,,,,,,,,,"[0.6547999999999998,-0.043199999999999905,-0.011800000000000033]",onethree,"[-0.45899999999999996,-0.3256,-0.9374]",-4,1.0311,-47,97,1,0,0,response7disk_5,-8,-3,1,0,0,rectangle_8,-8,-3,1,0,0,,,1,-8,-3,1,0,0,,4,0,4,0,1,,,,,,,,,,,,,,,,,,,,,,,,,,,,,,,,,,,,,,,,,,,,,,,,,,,,,,,,,,,,,,,,,,,,,,,,,,,,,,,,,,,,,,,,,,,,,,,,,,,,,,,,,,,
,,,,,,613af1d83ec1a51d557b4dd2,62c53a6513458ccbebe36d39,2022-07-06_02h32.03.405,Colour_Asymmetry_Pilot,2022.1.3,Win32,239.4636015,62c50e9c1127f2cd403a315f,,,,,,,,,,,,,,,,,,,"[0.7646000000000002,0.07440000000000002,0.2704]",twofour,"[-0.38039999999999996,-0.4276,-0.1452]",-4,1.8812,-64,106,1,0,0,response7disk_5,0,3,1,0,0,rectangle_8,46,-127,1,0,0,response3disk_7,4,1,4,0,1,0,0,rectangle_4,5,0,5,0,1,,,,,,,,,,,,,,,,,,,,,,,,,,,,,,,,,,,,,,,,,,,,,,,,,,,,,,,,,,,,,,,,,,,,,,,,,,,,,,,,,,,,,,,,,,,,,,,,,,,,,,,,,,,
,,,,,,613af1d83ec1a51d557b4dd2,62c53a6513458ccbebe36d39,2022-07-06_02h32.03.405,Colour_Asymmetry_Pilot,2022.1.3,Win32,239.4636015,62c50e9c1127f2cd403a315f,,,,,,,,,,,,,,,,,,,"[0.5449999999999999,-0.31000000000000005,-0.0354000000000001]",threeone,"[-0.9138,-0.5296000000000001,-0.5529999999999999]",-4,0.6232,-64,118,1,0,0,response7disk_5,0,1,1,0,0,rectangle_8,0,1,1,0,0,,,1,0,1,1,0,0,,6,0,6,0,1,,,,,,,,,,,,,,,,,,,,,,,,,,,,,,,,,,,,,,,,,,,,,,,,,,,,,,,,,,,,,,,,,,,,,,,,,,,,,,,,,,,,,,,,,,,,,,,,,,,,,,,,,,,
,,,,,,613af1d83ec1a51d557b4dd2,62c53a6513458ccbebe36d39,2022-07-06_02h32.03.405,Colour_Asymmetry_Pilot,2022.1.3,Win32,239.4636015,62c50e9c1127f2cd403a315f,,,,,,,,,,,,,,,,,,,,onetwo,,-4,1.3802,,,,,,,,,,,,,,,,,,,,,,,,,,,,,,,,space,4.4389,"[-0.30200000000000005,0.14500000000000002,0.2784]","[0.5449999999999999,-0.31000000000000005,-0.0354000000000001]",-49,75,1,0,0,response7disk,-11,-8,1,0,0,rectangle,-11,-8,1,0,0,,1,0.0009,0,-11,-8,1,0,0,0,0,0,134,1,53,second,,,,,,,,,,,,,,,,,,,,,,,,,,,,,,,,,,,,,,,,,,,,,,,,,,,,,,,,,,,,,,,,,,,,,,
,,,,,,613af1d83ec1a51d557b4dd2,62c53a6513458ccbebe36d39,2022-07-06_02h32.03.405,Colour_Asymmetry_Pilot,2022.1.3,Win32,239.4636015,62c50e9c1127f2cd403a315f,,,,,,,,,,,,,,,,,,,,fourtwo,,-3,1.9503,,,,,,,,,,,,,,,,,,,,,,,,,,,,,,,,,,"[0.18419999999999992,-0.4276,-0.404]","[0.9763999999999999,0.30979999999999985,-0.6786]",-106,49,1,0,0,response7disk,-9,-2,1,0,0,rectangle,-9,-2,1,0,0,,3,0.0004,0,-9,-2,1,0,0,0,1,1,132,1,51,second,,,,,,,,,,,,,,,,,,,,,,,,,,,,,,,,,,,,,,,,,,,,,,,,,,,,,,,,,,,,,,,,,,,,,,
,,,,,,613af1d83ec1a51d557b4dd2,62c53a6513458ccbebe36d39,2022-07-06_02h32.03.405,Colour_Asymmetry_Pilot,2022.1.3,Win32,239.4636015,62c50e9c1127f2cd403a315f,,,,,,,,,,,,,,,,,,,,threeone,,-2,1.3874,,,,,,,,,,,,,,,,,,,,,,,,,,,,,,,,,,"[0.3568,-0.20799999999999996,-0.9844]","[1,0.12939999999999996,-1]",-115,-72,1,0,0,response5disk,-5,-3,1,0,0,rectangle,-5,-3,1,0,0,,1,0.0005,0,-5,-3,1,0,0,0,2,2,143,1,62,second,,,,,,,,,,,,,,,,,,,,,,,,,,,,,,,,,,,,,,,,,,,,,,,,,,,,,,,,,,,,,,,,,,,,,,
,,,,,,613af1d83ec1a51d557b4dd2,62c53a6513458ccbebe36d39,2022-07-06_02h32.03.405,Colour_Asymmetry_Pilot,2022.1.3,Win32,239.4636015,62c50e9c1127f2cd403a315f,,,,,,,,,,,,,,,,,,,,onethree,,-3,1.3577,,,,,,,,,,,,,,,,,,,,,,,,,,,,,,,,,,"[-0.10599999999999998,-0.15300000000000002,0.15280000000000005]","[-0.09019999999999995,0.44300000000000006,0.5371999999999999]",-114,74,1,0,0,response7disk,-14,3,1,0,0,rectangle,-14,3,1,0,0,,2,0.0004,0,-14,3,1,0,0,0,3,3,7,1,7,first,,,,,,,,,,,,,,,,,,,,,,,,,,,,,,,,,,,,,,,,,,,,,,,,,,,,,,,,,,,,,,,,,,,,,,
,,,,,,613af1d83ec1a51d557b4dd2,62c53a6513458ccbebe36d39,2022-07-06_02h32.03.405,Colour_Asymmetry_Pilot,2022.1.3,Win32,239.4636015,62c50e9c1127f2cd403a315f,,,,,,,,,,,,,,,,,,,,twoone,,-3,2.0216,,,,,,,,,,,,,,,,,,,,,,,,,,,,,,,,,,"[0.7646000000000002,0.07440000000000002,0.2704]","[0.7176,-0.906,-0.6864]",-100,56,1,0,0,response7disk,-3,0,1,0,0,rectangle,-3,0,1,0,0,,1,0.0006,0,-3,0,1,0,0,0,4,4,79,1,79,first,,,,,,,,,,,,,,,,,,,,,,,,,,,,,,,,,,,,,,,,,,,,,,,,,,,,,,,,,,,,,,,,,,,,,,
,,,,,,613af1d83ec1a51d557b4dd2,62c53a6513458ccbebe36d39,2022-07-06_02h32.03.405,Colour_Asymmetry_Pilot,2022.1.3,Win32,239.4636015,62c50e9c1127f2cd403a315f,,,,,,,,,,,,,,,,,,,,threefour,,2,3.5184,,,,,,,,,,,,,,,,,,,,,,,,,,,,,,,,,,"[-0.5452,-0.608,0.2470000000000001]","[-0.5922000000000001,-0.7492000000000001,-0.5296000000000001]",104,-50,1,0,0,response3disk,4,-1,1,0,0,rectangle,4,-1,1,0,0,,1,0.0001,0,4,-1,1,0,0,0,5,5,14,1,14,first,,,,,,,,,,,,,,,,,,,,,,,,,,,,,,,,,,,,,,,,,,,,,,,,,,,,,,,,,,,,,,,,,,,,,,
,,,,,,613af1d83ec1a51d557b4dd2,62c53a6513458ccbebe36d39,2022-07-06_02h32.03.405,Colour_Asymmetry_Pilot,2022.1.3,Win32,239.4636015,62c50e9c1127f2cd403a315f,,,,,,,,,,,,,,,,,,,,onetwo,,-2,1.9172,,,,,,,,,,,,,,,,,,,,,,,,,,,,,,,,,,"[-0.30200000000000005,0.14500000000000002,0.2784]","[-0.07459999999999989,0.12139999999999995,-0.9922]",-78,-38,1,0,0,response5disk,-6,3,1,0,0,rectangle,-6,3,1,0,0,,2,0.0004,0,-6,3,1,0,0,0,6,6,157,1,76,second,,,,,,,,,,,,,,,,,,,,,,,,,,,,,,,,,,,,,,,,,,,,,,,,,,,,,,,,,,,,,,,,,,,,,,
,,,,,,613af1d83ec1a51d557b4dd2,62c53a6513458ccbebe36d39,2022-07-06_02h32.03.405,Colour_Asymmetry_Pilot,2022.1.3,Win32,239.4636015,62c50e9c1127f2cd403a315f,,,,,,,,,,,,,,,,,,,,twofour,,-4,0.684,,,,,,,,,,,,,,,,,,,,,,,,,,,,,,,,,,"[0.30180000000000007,-0.7884,-0.9844]","[-0.9138,-0.5296000000000001,-0.5529999999999999]",-47,107,1,0,0,response7disk,-6,-1,1,0,0,rectangle,-6,-1,1,0,0,,1,0.0005,0,-6,-1,1,0,0,0,7,7,56,1,56,first,,,,,,,,,,,,,,,,,,,,,,,,,,,,,,,,,,,,,,,,,,,,,,,,,,,,,,,,,,,,,,,,,,,,,,
,,,,,,613af1d83ec1a51d557b4dd2,62c53a6513458ccbebe36d39,2022-07-06_02h32.03.405,Colour_Asymmetry_Pilot,2022.1.3,Win32,239.4636015,62c50e9c1127f2cd403a315f,,,,,,,,,,,,,,,,,,,,threefour,,-4,0.7912,,,,,,,,,,,,,,,,,,,,,,,,,,,,,,,,,,"[-0.45899999999999996,-0.3256,-0.9374]","[0.7646000000000002,0.07440000000000002,0.2704]",-39,80,1,0,0,response7disk,-5,4,1,0,0,rectangle,-5,4,1,0,0,,1,1E-04,0,-5,4,1,0,0,0,8,8,151,1,70,second,,,,,,,,,,,,,,,,,,,,,,,,,,,,,,,,,,,,,,,,,,,,,,,,,,,,,,,,,,,,,,,,,,,,,,
,,,,,,613af1d83ec1a51d557b4dd2,62c53a6513458ccbebe36d39,2022-07-06_02h32.03.405,Colour_Asymmetry_Pilot,2022.1.3,Win32,239.4636015,62c50e9c1127f2cd403a315f,,,,,,,,,,,,,,,,,,,,onethree,,3,1.0339,,,,,,,,,,,,,,,,,,,,,,,,,,,,,,,,,,"[0.7018,0.7802,-0.16079999999999994]","[0.37240000000000006,0.4980000000000002,-0.2864]",121,48,1,0,0,response1disk,0,1,1,0,0,rectangle,0,1,1,0,0,,1,0.0002,0,0,1,1,0,0,0,9,9,40,1,40,first,,,,,,,,,,,,,,,,,,,,,,,,,,,,,,,,,,,,,,,,,,,,,,,,,,,,,,,,,,,,,,,,,,,,,,
,,,,,,613af1d83ec1a51d557b4dd2,62c53a6513458ccbebe36d39,2022-07-06_02h32.03.405,Colour_Asymmetry_Pilot,2022.1.3,Win32,239.4636015,62c50e9c1127f2cd403a315f,,,,,,,,,,,,,,,,,,,,twoone,,-4,0.2792,,,,,,,,,,,,,,,,,,,,,,,,,,,,,,,,,,"[0.5449999999999999,-0.31000000000000005,-0.0354000000000001]","[-0.30200000000000005,0.14500000000000002,0.2784]",-62,123,1,0,0,response7disk,-5,5,1,0,0,rectangle,-5,5,1,0,0,,2,0.0005,0,-5,5,1,0,0,0,10,10,53,1,53,first,,,,,,,,,,,,,,,,,,,,,,,,,,,,,,,,,,,,,,,,,,,,,,,,,,,,,,,,,,,,,,,,,,,,,,
,,,,,,613af1d83ec1a51d557b4dd2,62c53a6513458ccbebe36d39,2022-07-06_02h32.03.405,Colour_Asymmetry_Pilot,2022.1.3,Win32,239.4636015,62c50e9c1127f2cd403a315f,,,,,,,,,,,,,,,,,,,,fourthree,,-4,0.6645,,,,,,,,,,,,,,,,,,,,,,,,,,,,,,,,,,"[0.12939999999999996,-0.2864,0.3253999999999999]","[0.9372,0.9450000000000001,0.8980000000000001]",-49,95,1,0,0,response7disk,-1,8,1,0,0,rectangle,-1,8,1,0,0,,1,0.0004,0,-1,8,1,0,0,0,11,11,99,1,18,second,,,,,,,,,,,,,,,,,,,,,,,,,,,,,,,,,,,,,,,,,,,,,,,,,,,,,,,,,,,,,,,,,,,,,,
,,,,,,613af1d83ec1a51d557b4dd2,62c53a6513458ccbebe36d39,2022-07-06_02h32.03.405,Colour_Asymmetry_Pilot,2022.1.3,Win32,239.4636015,62c50e9c1127f2cd403a315f,,,,,,,,,,,,,,,,,,,,onethree,,-4,0.4139,,,,,,,,,,,,,,,,,,,,,,,,,,,,,,,,,,"[0.5528,0.7409999999999999,-0.71]","[-0.01980000000000004,-0.5138,-0.38039999999999996]",-50,110,1,0,0,response7disk,-5,-5,1,0,0,rectangle,-5,-5,1,0,0,,2,0.0005,0,-5,-5,1,0,0,0,12,12,63,1,63,first,,,,,,,,,,,,,,,,,,,,,,,,,,,,,,,,,,,,,,,,,,,,,,,,,,,,,,,,,,,,,,,,,,,,,,
,,,,,,613af1d83ec1a51d557b4dd2,62c53a6513458ccbebe36d39,2022-07-06_02h32.03.405,Colour_Asymmetry_Pilot,2022.1.3,Win32,239.4636015,62c50e9c1127f2cd403a315f,,,,,,,,,,,,,,,,,,,,onetwo,,-4,1.1912,,,,,,,,,,,,,,,,,,,,,,,,,,,,,,,,,,"[-0.2942,-0.7648,-0.7492000000000001]","[0.7646000000000002,0.07440000000000002,0.2704]",-55,77,1,0,0,response7disk,-5,2,1,0,0,rectangle,-5,2,1,0,0,,3,0.0003,0,-5,2,1,0,0,0,13,13,109,1,28,second,,,,,,,,,,,,,,,,,,,,,,,,,,,,,,,,,,,,,,,,,,,,,,,,,,,,,,,,,,,,,,,,,,,,,,
,,,,,,613af1d83ec1a51d557b4dd2,62c53a6513458ccbebe36d39,2022-07-06_02h32.03.405,Colour_Asymmetry_Pilot,2022.1.3,Win32,239.4636015,62c50e9c1127f2cd403a315f,,,,,,,,,,,,,,,,,,,,fourtwo,,-4,0.3221,,,,,,,,,,,,,,,,,,,,,,,,,,,,,,,,,,"[-0.30200000000000005,0.14500000000000002,0.2784]","[0.7802,-0.23140000000000005,-0.20799999999999996]",-49,104,1,0,0,response7disk,3,8,1,0,0,rectangle,3,8,1,0,0,,2,0.0005,0,3,8,1,0,0,0,14,14,125,1,44,second,,,,,,,,,,,,,,,,,,,,,,,,,,,,,,,,,,,,,,,,,,,,,,,,,,,,,,,,,,,,,,,,,,,,,,
,,,,,,613af1d83ec1a51d557b4dd2,62c53a6513458ccbebe36d39,2022-07-06_02h32.03.405,Colour_Asymmetry_Pilot,2022.1.3,Win32,239.4636015,62c50e9c1127f2cd403a315f,,,,,,,,,,,,,,,,,,,,threefour,,-4,0.4025,,,,,,,,,,,,,,,,,,,,,,,,,,,,,,,,,,"[0.9763999999999999,0.30979999999999985,-0.6786]","[-0.9216,-0.5529999999999999,-0.3962]",-42,103,1,0,0,response7disk,-6,-4,1,0,0,rectangle,-6,-4,1,0,0,,1,0.0002,0,-6,-4,1,0,0,0,15,15,42,1,42,first,,,,,,,,,,,,,,,,,,,,,,,,,,,,,,,,,,,,,,,,,,,,,,,,,,,,,,,,,,,,,,,,,,,,,,
,,,,,,613af1d83ec1a51d557b4dd2,62c53a6513458ccbebe36d39,2022-07-06_02h32.03.405,Colour_Asymmetry_Pilot,2022.1.3,Win32,239.4636015,62c50e9c1127f2cd403a315f,,,,,,,,,,,,,,,,,,,,threeone,,-4,0.4383,,,,,,,,,,,,,,,,,,,,,,,,,,,,,,,,,,"[-0.9216,-0.5529999999999999,-0.3962]","[0.23120000000000007,-0.7726,-0.34120000000000006]",-43,78,1,0,0,response7disk,-8,-4,1,0,0,rectangle,-8,-4,1,0,0,,3,0.0003,0,-8,-4,1,0,0,0,16,16,17,1,17,first,,,,,,,,,,,,,,,,,,,,,,,,,,,,,,,,,,,,,,,,,,,,,,,,,,,,,,,,,,,,,,,,,,,,,,
,,,,,,613af1d83ec1a51d557b4dd2,62c53a6513458ccbebe36d39,2022-07-06_02h32.03.405,Colour_Asymmetry_Pilot,2022.1.3,Win32,239.4636015,62c50e9c1127f2cd403a315f,,,,,,,,,,,,,,,,,,,,threefour,,2,2.39,,,,,,,,,,,,,,,,,,,,,,,,,,,,,,,,,,"[-0.6706000000000001,-0.6157999999999999,-0.6786]","[-0.9766,-0.34920000000000007,0.2156]",127,-38,1,0,0,response3disk,2,4,1,0,0,rectangle,2,4,1,0,0,,3,1E-04,0,2,4,1,0,0,0,17,17,110,1,29,second,,,,,,,,,,,,,,,,,,,,,,,,,,,,,,,,,,,,,,,,,,,,,,,,,,,,,,,,,,,,,,,,,,,,,,
,,,,,,613af1d83ec1a51d557b4dd2,62c53a6513458ccbebe36d39,2022-07-06_02h32.03.405,Colour_Asymmetry_Pilot,2022.1.3,Win32,239.4636015,62c50e9c1127f2cd403a315f,,,,,,,,,,,,,,,,,,,,twofour,,-2,2.9785,,,,,,,,,,,,,,,,,,,,,,,,,,,,,,,,,,"[-0.07459999999999989,0.12139999999999995,-0.9922]","[0.9213999999999998,0.6391999999999998,-0.9922]",-68,-40,1,0,0,response5disk,3,-1,1,0,0,rectangle,3,-1,1,0,0,,1,0.0002,0,3,-1,1,0,0,0,18,18,72,1,72,first,,,,,,,,,,,,,,,,,,,,,,,,,,,,,,,,,,,,,,,,,,,,,,,,,,,,,,,,,,,,,,,,,,,,,,
