trials.thisRepN,trials.thisTrialN,trials.thisN,trials.thisIndex,trials.ran,Colourcodes,participant,session,date,expName,psychopyVersion,OS,frameRate,study_id,trials_4.thisRepN,trials_4.thisTrialN,trials_4.thisN,trials_4.thisIndex,trials_4.ran,StimulusPos,key_resp.keys,key_resp.rt,key_resp_2.keys,key_resp_2.rt,key_resp_15.keys,key_resp_15.rt,key_resp_17.keys,key_resp_17.rt,key_resp_9.keys,key_resp_9.rt,key_resp_10.keys,key_resp_10.rt,Circle1_col,Ecc,Circle2_col,similarity,response_time,mouse_5.x,mouse_5.y,mouse_5.leftButton,mouse_5.midButton,mouse_5.rightButton,mouse_5.clicked_name,mouse_10.x,mouse_10.y,mouse_10.leftButton,mouse_10.midButton,mouse_10.rightButton,mouse_10.clicked_name,mouse_7.x,mouse_7.y,mouse_7.leftButton,mouse_7.midButton,mouse_7.rightButton,mouse_7.clicked_name,catchprac,catchnumberprac,mouse_6.x,mouse_6.y,mouse_6.leftButton,mouse_6.midButton,mouse_6.rightButton,mouse_6.clicked_name,duringprac.thisRepN,duringprac.thisTrialN,duringprac.thisN,duringprac.thisIndex,duringprac.ran,key_resp_22.keys,key_resp_22.rt,Circle1_colour,Circle2_colour,mouse.x,mouse.y,mouse.leftButton,mouse.midButton,mouse.rightButton,mouse.clicked_name,mouse_2.x,mouse_2.y,mouse_2.leftButton,mouse_2.midButton,mouse_2.rightButton,mouse_2.clicked_name,mouse_3.x,mouse_3.y,mouse_3.leftButton,mouse_3.midButton,mouse_3.rightButton,catchresponse,catchnumber,response_time_catch,Catch,mouse_11.x,mouse_11.y,mouse_11.leftButton,mouse_11.midButton,mouse_11.rightButton,trials_2.thisRepN,trials_2.thisTrialN,trials_2.thisN,trials_2.thisIndex,trials_2.ran,Colourpair,Temporder,mouse_3.clicked_name,mouse_11.clicked_name,trials_3.thisRepN,trials_3.thisTrialN,trials_3.thisN,trials_3.thisIndex,trials_3.ran,key_resp_instr_Ishi.keys,key_resp_instr_Ishi.rt,Ishi_trial_keyresp.keys,Ishi_textbox.text,Ishi_mouse.x,Ishi_mouse.y,Ishi_mouse.leftButton,Ishi_mouse.midButton,Ishi_mouse.rightButton,Ishi_mouse.clicked_name,Ishi_loop.thisRepN,Ishi_loop.thisTrialN,Ishi_loop.thisN,Ishi_loop.thisIndex,Ishi_loop.ran,imageaddress,textbox.text,mouse_4.x,mouse_4.y,mouse_4.leftButton,mouse_4.midButton,mouse_4.rightButton,mouse_4.clicked_name,textbox_2.text,mouse_8.x,mouse_8.y,mouse_8.leftButton,mouse_8.midButton,mouse_8.rightButton,mouse_8.clicked_name,textbox_3.text,mouse_9.x,mouse_9.y,mouse_9.leftButton,mouse_9.midButton,mouse_9.rightButton,mouse_9.clicked_name,textbox_4.text,mouse_12.x,mouse_12.y,mouse_12.leftButton,mouse_12.midButton,mouse_12.rightButton,mouse_12.clicked_name,textbox_5.text,mouse_13.x,mouse_13.y,mouse_13.leftButton,mouse_13.midButton,mouse_13.rightButton,mouse_13.clicked_name,textbox_6.text,mouse_14.x,mouse_14.y,mouse_14.leftButton,mouse_14.midButton,mouse_14.rightButton,mouse_14.clicked_name,textbox_7.text,mouse_15.x,mouse_15.y,mouse_15.leftButton,mouse_15.midButton,mouse_15.rightButton
0,0,0,64,1,,60c5ae1d153847577f543609,62c53a80270234594f182ae8,2022-07-06_09h33.00.951,Colour_Asymmetry_Pilot,2022.1.3,Win32,59.47778505,62c50e9c1127f2cd403a315f,,,,,,,,,,,,,,,,,,,,,,,,,,,,,,,,,,,,,,,,,,,,,,,,,,,,,,,,,,,,,,,,,,,,,,,,,,,,,,,,,,,,,,,,,,,,,,,,,,,,,,,,,,,,,,,,,,,,,,,,,,,,,,,,,,,,,,,,,,,,,,,,,,,,,,,,,,,,,,,,,,
0,1,1,52,1,,60c5ae1d153847577f543609,62c53a80270234594f182ae8,2022-07-06_09h33.00.951,Colour_Asymmetry_Pilot,2022.1.3,Win32,59.47778505,62c50e9c1127f2cd403a315f,,,,,,,,,,,,,,,,,,,,,,,,,,,,,,,,,,,,,,,,,,,,,,,,,,,,,,,,,,,,,,,,,,,,,,,,,,,,,,,,,,,,,,,,,,,,,,,,,,,,,,,,,,,,,,,,,,,,,,,,,,,,,,,,,,,,,,,,,,,,,,,,,,,,,,,,,,,,,,,,,,
0,2,2,20,1,,60c5ae1d153847577f543609,62c53a80270234594f182ae8,2022-07-06_09h33.00.951,Colour_Asymmetry_Pilot,2022.1.3,Win32,59.47778505,62c50e9c1127f2cd403a315f,,,,,,,,,,,,,,,,,,,,,,,,,,,,,,,,,,,,,,,,,,,,,,,,,,,,,,,,,,,,,,,,,,,,,,,,,,,,,,,,,,,,,,,,,,,,,,,,,,,,,,,,,,,,,,,,,,,,,,,,,,,,,,,,,,,,,,,,,,,,,,,,,,,,,,,,,,,,,,,,,,
0,3,3,47,1,,60c5ae1d153847577f543609,62c53a80270234594f182ae8,2022-07-06_09h33.00.951,Colour_Asymmetry_Pilot,2022.1.3,Win32,59.47778505,62c50e9c1127f2cd403a315f,,,,,,,,,,,,,,,,,,,,,,,,,,,,,,,,,,,,,,,,,,,,,,,,,,,,,,,,,,,,,,,,,,,,,,,,,,,,,,,,,,,,,,,,,,,,,,,,,,,,,,,,,,,,,,,,,,,,,,,,,,,,,,,,,,,,,,,,,,,,,,,,,,,,,,,,,,,,,,,,,,
0,4,4,54,1,,60c5ae1d153847577f543609,62c53a80270234594f182ae8,2022-07-06_09h33.00.951,Colour_Asymmetry_Pilot,2022.1.3,Win32,59.47778505,62c50e9c1127f2cd403a315f,,,,,,,,,,,,,,,,,,,,,,,,,,,,,,,,,,,,,,,,,,,,,,,,,,,,,,,,,,,,,,,,,,,,,,,,,,,,,,,,,,,,,,,,,,,,,,,,,,,,,,,,,,,,,,,,,,,,,,,,,,,,,,,,,,,,,,,,,,,,,,,,,,,,,,,,,,,,,,,,,,
0,5,5,30,1,,60c5ae1d153847577f543609,62c53a80270234594f182ae8,2022-07-06_09h33.00.951,Colour_Asymmetry_Pilot,2022.1.3,Win32,59.47778505,62c50e9c1127f2cd403a315f,,,,,,,,,,,,,,,,,,,,,,,,,,,,,,,,,,,,,,,,,,,,,,,,,,,,,,,,,,,,,,,,,,,,,,,,,,,,,,,,,,,,,,,,,,,,,,,,,,,,,,,,,,,,,,,,,,,,,,,,,,,,,,,,,,,,,,,,,,,,,,,,,,,,,,,,,,,,,,,,,,
0,6,6,33,1,,60c5ae1d153847577f543609,62c53a80270234594f182ae8,2022-07-06_09h33.00.951,Colour_Asymmetry_Pilot,2022.1.3,Win32,59.47778505,62c50e9c1127f2cd403a315f,,,,,,,,,,,,,,,,,,,,,,,,,,,,,,,,,,,,,,,,,,,,,,,,,,,,,,,,,,,,,,,,,,,,,,,,,,,,,,,,,,,,,,,,,,,,,,,,,,,,,,,,,,,,,,,,,,,,,,,,,,,,,,,,,,,,,,,,,,,,,,,,,,,,,,,,,,,,,,,,,,
0,7,7,74,1,,60c5ae1d153847577f543609,62c53a80270234594f182ae8,2022-07-06_09h33.00.951,Colour_Asymmetry_Pilot,2022.1.3,Win32,59.47778505,62c50e9c1127f2cd403a315f,,,,,,,,,,,,,,,,,,,,,,,,,,,,,,,,,,,,,,,,,,,,,,,,,,,,,,,,,,,,,,,,,,,,,,,,,,,,,,,,,,,,,,,,,,,,,,,,,,,,,,,,,,,,,,,,,,,,,,,,,,,,,,,,,,,,,,,,,,,,,,,,,,,,,,,,,,,,,,,,,,
0,8,8,78,1,,60c5ae1d153847577f543609,62c53a80270234594f182ae8,2022-07-06_09h33.00.951,Colour_Asymmetry_Pilot,2022.1.3,Win32,59.47778505,62c50e9c1127f2cd403a315f,,,,,,,,,,,,,,,,,,,,,,,,,,,,,,,,,,,,,,,,,,,,,,,,,,,,,,,,,,,,,,,,,,,,,,,,,,,,,,,,,,,,,,,,,,,,,,,,,,,,,,,,,,,,,,,,,,,,,,,,,,,,,,,,,,,,,,,,,,,,,,,,,,,,,,,,,,,,,,,,,,
0,9,9,5,1,,60c5ae1d153847577f543609,62c53a80270234594f182ae8,2022-07-06_09h33.00.951,Colour_Asymmetry_Pilot,2022.1.3,Win32,59.47778505,62c50e9c1127f2cd403a315f,,,,,,,,,,,,,,,,,,,,,,,,,,,,,,,,,,,,,,,,,,,,,,,,,,,,,,,,,,,,,,,,,,,,,,,,,,,,,,,,,,,,,,,,,,,,,,,,,,,,,,,,,,,,,,,,,,,,,,,,,,,,,,,,,,,,,,,,,,,,,,,,,,,,,,,,,,,,,,,,,,
0,10,10,34,1,,60c5ae1d153847577f543609,62c53a80270234594f182ae8,2022-07-06_09h33.00.951,Colour_Asymmetry_Pilot,2022.1.3,Win32,59.47778505,62c50e9c1127f2cd403a315f,,,,,,,,,,,,,,,,,,,,,,,,,,,,,,,,,,,,,,,,,,,,,,,,,,,,,,,,,,,,,,,,,,,,,,,,,,,,,,,,,,,,,,,,,,,,,,,,,,,,,,,,,,,,,,,,,,,,,,,,,,,,,,,,,,,,,,,,,,,,,,,,,,,,,,,,,,,,,,,,,,
0,11,11,39,1,,60c5ae1d153847577f543609,62c53a80270234594f182ae8,2022-07-06_09h33.00.951,Colour_Asymmetry_Pilot,2022.1.3,Win32,59.47778505,62c50e9c1127f2cd403a315f,,,,,,,,,,,,,,,,,,,,,,,,,,,,,,,,,,,,,,,,,,,,,,,,,,,,,,,,,,,,,,,,,,,,,,,,,,,,,,,,,,,,,,,,,,,,,,,,,,,,,,,,,,,,,,,,,,,,,,,,,,,,,,,,,,,,,,,,,,,,,,,,,,,,,,,,,,,,,,,,,,
0,12,12,9,1,,60c5ae1d153847577f543609,62c53a80270234594f182ae8,2022-07-06_09h33.00.951,Colour_Asymmetry_Pilot,2022.1.3,Win32,59.47778505,62c50e9c1127f2cd403a315f,,,,,,,,,,,,,,,,,,,,,,,,,,,,,,,,,,,,,,,,,,,,,,,,,,,,,,,,,,,,,,,,,,,,,,,,,,,,,,,,,,,,,,,,,,,,,,,,,,,,,,,,,,,,,,,,,,,,,,,,,,,,,,,,,,,,,,,,,,,,,,,,,,,,,,,,,,,,,,,,,,
0,13,13,2,1,,60c5ae1d153847577f543609,62c53a80270234594f182ae8,2022-07-06_09h33.00.951,Colour_Asymmetry_Pilot,2022.1.3,Win32,59.47778505,62c50e9c1127f2cd403a315f,,,,,,,,,,,,,,,,,,,,,,,,,,,,,,,,,,,,,,,,,,,,,,,,,,,,,,,,,,,,,,,,,,,,,,,,,,,,,,,,,,,,,,,,,,,,,,,,,,,,,,,,,,,,,,,,,,,,,,,,,,,,,,,,,,,,,,,,,,,,,,,,,,,,,,,,,,,,,,,,,,
0,14,14,15,1,,60c5ae1d153847577f543609,62c53a80270234594f182ae8,2022-07-06_09h33.00.951,Colour_Asymmetry_Pilot,2022.1.3,Win32,59.47778505,62c50e9c1127f2cd403a315f,,,,,,,,,,,,,,,,,,,,,,,,,,,,,,,,,,,,,,,,,,,,,,,,,,,,,,,,,,,,,,,,,,,,,,,,,,,,,,,,,,,,,,,,,,,,,,,,,,,,,,,,,,,,,,,,,,,,,,,,,,,,,,,,,,,,,,,,,,,,,,,,,,,,,,,,,,,,,,,,,,
0,15,15,58,1,,60c5ae1d153847577f543609,62c53a80270234594f182ae8,2022-07-06_09h33.00.951,Colour_Asymmetry_Pilot,2022.1.3,Win32,59.47778505,62c50e9c1127f2cd403a315f,,,,,,,,,,,,,,,,,,,,,,,,,,,,,,,,,,,,,,,,,,,,,,,,,,,,,,,,,,,,,,,,,,,,,,,,,,,,,,,,,,,,,,,,,,,,,,,,,,,,,,,,,,,,,,,,,,,,,,,,,,,,,,,,,,,,,,,,,,,,,,,,,,,,,,,,,,,,,,,,,,
0,16,16,88,1,,60c5ae1d153847577f543609,62c53a80270234594f182ae8,2022-07-06_09h33.00.951,Colour_Asymmetry_Pilot,2022.1.3,Win32,59.47778505,62c50e9c1127f2cd403a315f,,,,,,,,,,,,,,,,,,,,,,,,,,,,,,,,,,,,,,,,,,,,,,,,,,,,,,,,,,,,,,,,,,,,,,,,,,,,,,,,,,,,,,,,,,,,,,,,,,,,,,,,,,,,,,,,,,,,,,,,,,,,,,,,,,,,,,,,,,,,,,,,,,,,,,,,,,,,,,,,,,
0,17,17,17,1,,60c5ae1d153847577f543609,62c53a80270234594f182ae8,2022-07-06_09h33.00.951,Colour_Asymmetry_Pilot,2022.1.3,Win32,59.47778505,62c50e9c1127f2cd403a315f,,,,,,,,,,,,,,,,,,,,,,,,,,,,,,,,,,,,,,,,,,,,,,,,,,,,,,,,,,,,,,,,,,,,,,,,,,,,,,,,,,,,,,,,,,,,,,,,,,,,,,,,,,,,,,,,,,,,,,,,,,,,,,,,,,,,,,,,,,,,,,,,,,,,,,,,,,,,,,,,,,
0,18,18,50,1,,60c5ae1d153847577f543609,62c53a80270234594f182ae8,2022-07-06_09h33.00.951,Colour_Asymmetry_Pilot,2022.1.3,Win32,59.47778505,62c50e9c1127f2cd403a315f,,,,,,,,,,,,,,,,,,,,,,,,,,,,,,,,,,,,,,,,,,,,,,,,,,,,,,,,,,,,,,,,,,,,,,,,,,,,,,,,,,,,,,,,,,,,,,,,,,,,,,,,,,,,,,,,,,,,,,,,,,,,,,,,,,,,,,,,,,,,,,,,,,,,,,,,,,,,,,,,,,
0,19,19,23,1,,60c5ae1d153847577f543609,62c53a80270234594f182ae8,2022-07-06_09h33.00.951,Colour_Asymmetry_Pilot,2022.1.3,Win32,59.47778505,62c50e9c1127f2cd403a315f,,,,,,,,,,,,,,,,,,,,,,,,,,,,,,,,,,,,,,,,,,,,,,,,,,,,,,,,,,,,,,,,,,,,,,,,,,,,,,,,,,,,,,,,,,,,,,,,,,,,,,,,,,,,,,,,,,,,,,,,,,,,,,,,,,,,,,,,,,,,,,,,,,,,,,,,,,,,,,,,,,
0,20,20,24,1,,60c5ae1d153847577f543609,62c53a80270234594f182ae8,2022-07-06_09h33.00.951,Colour_Asymmetry_Pilot,2022.1.3,Win32,59.47778505,62c50e9c1127f2cd403a315f,,,,,,,,,,,,,,,,,,,,,,,,,,,,,,,,,,,,,,,,,,,,,,,,,,,,,,,,,,,,,,,,,,,,,,,,,,,,,,,,,,,,,,,,,,,,,,,,,,,,,,,,,,,,,,,,,,,,,,,,,,,,,,,,,,,,,,,,,,,,,,,,,,,,,,,,,,,,,,,,,,
0,21,21,29,1,,60c5ae1d153847577f543609,62c53a80270234594f182ae8,2022-07-06_09h33.00.951,Colour_Asymmetry_Pilot,2022.1.3,Win32,59.47778505,62c50e9c1127f2cd403a315f,,,,,,,,,,,,,,,,,,,,,,,,,,,,,,,,,,,,,,,,,,,,,,,,,,,,,,,,,,,,,,,,,,,,,,,,,,,,,,,,,,,,,,,,,,,,,,,,,,,,,,,,,,,,,,,,,,,,,,,,,,,,,,,,,,,,,,,,,,,,,,,,,,,,,,,,,,,,,,,,,,
0,22,22,60,1,,60c5ae1d153847577f543609,62c53a80270234594f182ae8,2022-07-06_09h33.00.951,Colour_Asymmetry_Pilot,2022.1.3,Win32,59.47778505,62c50e9c1127f2cd403a315f,,,,,,,,,,,,,,,,,,,,,,,,,,,,,,,,,,,,,,,,,,,,,,,,,,,,,,,,,,,,,,,,,,,,,,,,,,,,,,,,,,,,,,,,,,,,,,,,,,,,,,,,,,,,,,,,,,,,,,,,,,,,,,,,,,,,,,,,,,,,,,,,,,,,,,,,,,,,,,,,,,
0,23,23,43,1,,60c5ae1d153847577f543609,62c53a80270234594f182ae8,2022-07-06_09h33.00.951,Colour_Asymmetry_Pilot,2022.1.3,Win32,59.47778505,62c50e9c1127f2cd403a315f,,,,,,,,,,,,,,,,,,,,,,,,,,,,,,,,,,,,,,,,,,,,,,,,,,,,,,,,,,,,,,,,,,,,,,,,,,,,,,,,,,,,,,,,,,,,,,,,,,,,,,,,,,,,,,,,,,,,,,,,,,,,,,,,,,,,,,,,,,,,,,,,,,,,,,,,,,,,,,,,,,
0,24,24,16,1,,60c5ae1d153847577f543609,62c53a80270234594f182ae8,2022-07-06_09h33.00.951,Colour_Asymmetry_Pilot,2022.1.3,Win32,59.47778505,62c50e9c1127f2cd403a315f,,,,,,,,,,,,,,,,,,,,,,,,,,,,,,,,,,,,,,,,,,,,,,,,,,,,,,,,,,,,,,,,,,,,,,,,,,,,,,,,,,,,,,,,,,,,,,,,,,,,,,,,,,,,,,,,,,,,,,,,,,,,,,,,,,,,,,,,,,,,,,,,,,,,,,,,,,,,,,,,,,
0,25,25,4,1,,60c5ae1d153847577f543609,62c53a80270234594f182ae8,2022-07-06_09h33.00.951,Colour_Asymmetry_Pilot,2022.1.3,Win32,59.47778505,62c50e9c1127f2cd403a315f,,,,,,,,,,,,,,,,,,,,,,,,,,,,,,,,,,,,,,,,,,,,,,,,,,,,,,,,,,,,,,,,,,,,,,,,,,,,,,,,,,,,,,,,,,,,,,,,,,,,,,,,,,,,,,,,,,,,,,,,,,,,,,,,,,,,,,,,,,,,,,,,,,,,,,,,,,,,,,,,,,
0,26,26,75,1,,60c5ae1d153847577f543609,62c53a80270234594f182ae8,2022-07-06_09h33.00.951,Colour_Asymmetry_Pilot,2022.1.3,Win32,59.47778505,62c50e9c1127f2cd403a315f,,,,,,,,,,,,,,,,,,,,,,,,,,,,,,,,,,,,,,,,,,,,,,,,,,,,,,,,,,,,,,,,,,,,,,,,,,,,,,,,,,,,,,,,,,,,,,,,,,,,,,,,,,,,,,,,,,,,,,,,,,,,,,,,,,,,,,,,,,,,,,,,,,,,,,,,,,,,,,,,,,
0,27,27,77,1,,60c5ae1d153847577f543609,62c53a80270234594f182ae8,2022-07-06_09h33.00.951,Colour_Asymmetry_Pilot,2022.1.3,Win32,59.47778505,62c50e9c1127f2cd403a315f,,,,,,,,,,,,,,,,,,,,,,,,,,,,,,,,,,,,,,,,,,,,,,,,,,,,,,,,,,,,,,,,,,,,,,,,,,,,,,,,,,,,,,,,,,,,,,,,,,,,,,,,,,,,,,,,,,,,,,,,,,,,,,,,,,,,,,,,,,,,,,,,,,,,,,,,,,,,,,,,,,
0,28,28,0,1,,60c5ae1d153847577f543609,62c53a80270234594f182ae8,2022-07-06_09h33.00.951,Colour_Asymmetry_Pilot,2022.1.3,Win32,59.47778505,62c50e9c1127f2cd403a315f,,,,,,,,,,,,,,,,,,,,,,,,,,,,,,,,,,,,,,,,,,,,,,,,,,,,,,,,,,,,,,,,,,,,,,,,,,,,,,,,,,,,,,,,,,,,,,,,,,,,,,,,,,,,,,,,,,,,,,,,,,,,,,,,,,,,,,,,,,,,,,,,,,,,,,,,,,,,,,,,,,
0,29,29,73,1,,60c5ae1d153847577f543609,62c53a80270234594f182ae8,2022-07-06_09h33.00.951,Colour_Asymmetry_Pilot,2022.1.3,Win32,59.47778505,62c50e9c1127f2cd403a315f,,,,,,,,,,,,,,,,,,,,,,,,,,,,,,,,,,,,,,,,,,,,,,,,,,,,,,,,,,,,,,,,,,,,,,,,,,,,,,,,,,,,,,,,,,,,,,,,,,,,,,,,,,,,,,,,,,,,,,,,,,,,,,,,,,,,,,,,,,,,,,,,,,,,,,,,,,,,,,,,,,
0,30,30,37,1,,60c5ae1d153847577f543609,62c53a80270234594f182ae8,2022-07-06_09h33.00.951,Colour_Asymmetry_Pilot,2022.1.3,Win32,59.47778505,62c50e9c1127f2cd403a315f,,,,,,,,,,,,,,,,,,,,,,,,,,,,,,,,,,,,,,,,,,,,,,,,,,,,,,,,,,,,,,,,,,,,,,,,,,,,,,,,,,,,,,,,,,,,,,,,,,,,,,,,,,,,,,,,,,,,,,,,,,,,,,,,,,,,,,,,,,,,,,,,,,,,,,,,,,,,,,,,,,
0,31,31,12,1,,60c5ae1d153847577f543609,62c53a80270234594f182ae8,2022-07-06_09h33.00.951,Colour_Asymmetry_Pilot,2022.1.3,Win32,59.47778505,62c50e9c1127f2cd403a315f,,,,,,,,,,,,,,,,,,,,,,,,,,,,,,,,,,,,,,,,,,,,,,,,,,,,,,,,,,,,,,,,,,,,,,,,,,,,,,,,,,,,,,,,,,,,,,,,,,,,,,,,,,,,,,,,,,,,,,,,,,,,,,,,,,,,,,,,,,,,,,,,,,,,,,,,,,,,,,,,,,
0,32,32,70,1,,60c5ae1d153847577f543609,62c53a80270234594f182ae8,2022-07-06_09h33.00.951,Colour_Asymmetry_Pilot,2022.1.3,Win32,59.47778505,62c50e9c1127f2cd403a315f,,,,,,,,,,,,,,,,,,,,,,,,,,,,,,,,,,,,,,,,,,,,,,,,,,,,,,,,,,,,,,,,,,,,,,,,,,,,,,,,,,,,,,,,,,,,,,,,,,,,,,,,,,,,,,,,,,,,,,,,,,,,,,,,,,,,,,,,,,,,,,,,,,,,,,,,,,,,,,,,,,
0,33,33,31,1,,60c5ae1d153847577f543609,62c53a80270234594f182ae8,2022-07-06_09h33.00.951,Colour_Asymmetry_Pilot,2022.1.3,Win32,59.47778505,62c50e9c1127f2cd403a315f,,,,,,,,,,,,,,,,,,,,,,,,,,,,,,,,,,,,,,,,,,,,,,,,,,,,,,,,,,,,,,,,,,,,,,,,,,,,,,,,,,,,,,,,,,,,,,,,,,,,,,,,,,,,,,,,,,,,,,,,,,,,,,,,,,,,,,,,,,,,,,,,,,,,,,,,,,,,,,,,,,
0,34,34,56,1,,60c5ae1d153847577f543609,62c53a80270234594f182ae8,2022-07-06_09h33.00.951,Colour_Asymmetry_Pilot,2022.1.3,Win32,59.47778505,62c50e9c1127f2cd403a315f,,,,,,,,,,,,,,,,,,,,,,,,,,,,,,,,,,,,,,,,,,,,,,,,,,,,,,,,,,,,,,,,,,,,,,,,,,,,,,,,,,,,,,,,,,,,,,,,,,,,,,,,,,,,,,,,,,,,,,,,,,,,,,,,,,,,,,,,,,,,,,,,,,,,,,,,,,,,,,,,,,
0,35,35,21,1,,60c5ae1d153847577f543609,62c53a80270234594f182ae8,2022-07-06_09h33.00.951,Colour_Asymmetry_Pilot,2022.1.3,Win32,59.47778505,62c50e9c1127f2cd403a315f,,,,,,,,,,,,,,,,,,,,,,,,,,,,,,,,,,,,,,,,,,,,,,,,,,,,,,,,,,,,,,,,,,,,,,,,,,,,,,,,,,,,,,,,,,,,,,,,,,,,,,,,,,,,,,,,,,,,,,,,,,,,,,,,,,,,,,,,,,,,,,,,,,,,,,,,,,,,,,,,,,
0,36,36,44,1,,60c5ae1d153847577f543609,62c53a80270234594f182ae8,2022-07-06_09h33.00.951,Colour_Asymmetry_Pilot,2022.1.3,Win32,59.47778505,62c50e9c1127f2cd403a315f,,,,,,,,,,,,,,,,,,,,,,,,,,,,,,,,,,,,,,,,,,,,,,,,,,,,,,,,,,,,,,,,,,,,,,,,,,,,,,,,,,,,,,,,,,,,,,,,,,,,,,,,,,,,,,,,,,,,,,,,,,,,,,,,,,,,,,,,,,,,,,,,,,,,,,,,,,,,,,,,,,
0,37,37,7,1,,60c5ae1d153847577f543609,62c53a80270234594f182ae8,2022-07-06_09h33.00.951,Colour_Asymmetry_Pilot,2022.1.3,Win32,59.47778505,62c50e9c1127f2cd403a315f,,,,,,,,,,,,,,,,,,,,,,,,,,,,,,,,,,,,,,,,,,,,,,,,,,,,,,,,,,,,,,,,,,,,,,,,,,,,,,,,,,,,,,,,,,,,,,,,,,,,,,,,,,,,,,,,,,,,,,,,,,,,,,,,,,,,,,,,,,,,,,,,,,,,,,,,,,,,,,,,,,
0,38,38,45,1,,60c5ae1d153847577f543609,62c53a80270234594f182ae8,2022-07-06_09h33.00.951,Colour_Asymmetry_Pilot,2022.1.3,Win32,59.47778505,62c50e9c1127f2cd403a315f,,,,,,,,,,,,,,,,,,,,,,,,,,,,,,,,,,,,,,,,,,,,,,,,,,,,,,,,,,,,,,,,,,,,,,,,,,,,,,,,,,,,,,,,,,,,,,,,,,,,,,,,,,,,,,,,,,,,,,,,,,,,,,,,,,,,,,,,,,,,,,,,,,,,,,,,,,,,,,,,,,
0,39,39,35,1,,60c5ae1d153847577f543609,62c53a80270234594f182ae8,2022-07-06_09h33.00.951,Colour_Asymmetry_Pilot,2022.1.3,Win32,59.47778505,62c50e9c1127f2cd403a315f,,,,,,,,,,,,,,,,,,,,,,,,,,,,,,,,,,,,,,,,,,,,,,,,,,,,,,,,,,,,,,,,,,,,,,,,,,,,,,,,,,,,,,,,,,,,,,,,,,,,,,,,,,,,,,,,,,,,,,,,,,,,,,,,,,,,,,,,,,,,,,,,,,,,,,,,,,,,,,,,,,
0,40,40,61,1,,60c5ae1d153847577f543609,62c53a80270234594f182ae8,2022-07-06_09h33.00.951,Colour_Asymmetry_Pilot,2022.1.3,Win32,59.47778505,62c50e9c1127f2cd403a315f,,,,,,,,,,,,,,,,,,,,,,,,,,,,,,,,,,,,,,,,,,,,,,,,,,,,,,,,,,,,,,,,,,,,,,,,,,,,,,,,,,,,,,,,,,,,,,,,,,,,,,,,,,,,,,,,,,,,,,,,,,,,,,,,,,,,,,,,,,,,,,,,,,,,,,,,,,,,,,,,,,
0,41,41,27,1,,60c5ae1d153847577f543609,62c53a80270234594f182ae8,2022-07-06_09h33.00.951,Colour_Asymmetry_Pilot,2022.1.3,Win32,59.47778505,62c50e9c1127f2cd403a315f,,,,,,,,,,,,,,,,,,,,,,,,,,,,,,,,,,,,,,,,,,,,,,,,,,,,,,,,,,,,,,,,,,,,,,,,,,,,,,,,,,,,,,,,,,,,,,,,,,,,,,,,,,,,,,,,,,,,,,,,,,,,,,,,,,,,,,,,,,,,,,,,,,,,,,,,,,,,,,,,,,
0,42,42,67,1,,60c5ae1d153847577f543609,62c53a80270234594f182ae8,2022-07-06_09h33.00.951,Colour_Asymmetry_Pilot,2022.1.3,Win32,59.47778505,62c50e9c1127f2cd403a315f,,,,,,,,,,,,,,,,,,,,,,,,,,,,,,,,,,,,,,,,,,,,,,,,,,,,,,,,,,,,,,,,,,,,,,,,,,,,,,,,,,,,,,,,,,,,,,,,,,,,,,,,,,,,,,,,,,,,,,,,,,,,,,,,,,,,,,,,,,,,,,,,,,,,,,,,,,,,,,,,,,
0,43,43,79,1,,60c5ae1d153847577f543609,62c53a80270234594f182ae8,2022-07-06_09h33.00.951,Colour_Asymmetry_Pilot,2022.1.3,Win32,59.47778505,62c50e9c1127f2cd403a315f,,,,,,,,,,,,,,,,,,,,,,,,,,,,,,,,,,,,,,,,,,,,,,,,,,,,,,,,,,,,,,,,,,,,,,,,,,,,,,,,,,,,,,,,,,,,,,,,,,,,,,,,,,,,,,,,,,,,,,,,,,,,,,,,,,,,,,,,,,,,,,,,,,,,,,,,,,,,,,,,,,
0,44,44,90,1,,60c5ae1d153847577f543609,62c53a80270234594f182ae8,2022-07-06_09h33.00.951,Colour_Asymmetry_Pilot,2022.1.3,Win32,59.47778505,62c50e9c1127f2cd403a315f,,,,,,,,,,,,,,,,,,,,,,,,,,,,,,,,,,,,,,,,,,,,,,,,,,,,,,,,,,,,,,,,,,,,,,,,,,,,,,,,,,,,,,,,,,,,,,,,,,,,,,,,,,,,,,,,,,,,,,,,,,,,,,,,,,,,,,,,,,,,,,,,,,,,,,,,,,,,,,,,,,
0,45,45,68,1,,60c5ae1d153847577f543609,62c53a80270234594f182ae8,2022-07-06_09h33.00.951,Colour_Asymmetry_Pilot,2022.1.3,Win32,59.47778505,62c50e9c1127f2cd403a315f,,,,,,,,,,,,,,,,,,,,,,,,,,,,,,,,,,,,,,,,,,,,,,,,,,,,,,,,,,,,,,,,,,,,,,,,,,,,,,,,,,,,,,,,,,,,,,,,,,,,,,,,,,,,,,,,,,,,,,,,,,,,,,,,,,,,,,,,,,,,,,,,,,,,,,,,,,,,,,,,,,
0,46,46,22,1,,60c5ae1d153847577f543609,62c53a80270234594f182ae8,2022-07-06_09h33.00.951,Colour_Asymmetry_Pilot,2022.1.3,Win32,59.47778505,62c50e9c1127f2cd403a315f,,,,,,,,,,,,,,,,,,,,,,,,,,,,,,,,,,,,,,,,,,,,,,,,,,,,,,,,,,,,,,,,,,,,,,,,,,,,,,,,,,,,,,,,,,,,,,,,,,,,,,,,,,,,,,,,,,,,,,,,,,,,,,,,,,,,,,,,,,,,,,,,,,,,,,,,,,,,,,,,,,
0,47,47,87,1,,60c5ae1d153847577f543609,62c53a80270234594f182ae8,2022-07-06_09h33.00.951,Colour_Asymmetry_Pilot,2022.1.3,Win32,59.47778505,62c50e9c1127f2cd403a315f,,,,,,,,,,,,,,,,,,,,,,,,,,,,,,,,,,,,,,,,,,,,,,,,,,,,,,,,,,,,,,,,,,,,,,,,,,,,,,,,,,,,,,,,,,,,,,,,,,,,,,,,,,,,,,,,,,,,,,,,,,,,,,,,,,,,,,,,,,,,,,,,,,,,,,,,,,,,,,,,,,
0,48,48,71,1,,60c5ae1d153847577f543609,62c53a80270234594f182ae8,2022-07-06_09h33.00.951,Colour_Asymmetry_Pilot,2022.1.3,Win32,59.47778505,62c50e9c1127f2cd403a315f,,,,,,,,,,,,,,,,,,,,,,,,,,,,,,,,,,,,,,,,,,,,,,,,,,,,,,,,,,,,,,,,,,,,,,,,,,,,,,,,,,,,,,,,,,,,,,,,,,,,,,,,,,,,,,,,,,,,,,,,,,,,,,,,,,,,,,,,,,,,,,,,,,,,,,,,,,,,,,,,,,
0,49,49,81,1,,60c5ae1d153847577f543609,62c53a80270234594f182ae8,2022-07-06_09h33.00.951,Colour_Asymmetry_Pilot,2022.1.3,Win32,59.47778505,62c50e9c1127f2cd403a315f,,,,,,,,,,,,,,,,,,,,,,,,,,,,,,,,,,,,,,,,,,,,,,,,,,,,,,,,,,,,,,,,,,,,,,,,,,,,,,,,,,,,,,,,,,,,,,,,,,,,,,,,,,,,,,,,,,,,,,,,,,,,,,,,,,,,,,,,,,,,,,,,,,,,,,,,,,,,,,,,,,
0,50,50,49,1,,60c5ae1d153847577f543609,62c53a80270234594f182ae8,2022-07-06_09h33.00.951,Colour_Asymmetry_Pilot,2022.1.3,Win32,59.47778505,62c50e9c1127f2cd403a315f,,,,,,,,,,,,,,,,,,,,,,,,,,,,,,,,,,,,,,,,,,,,,,,,,,,,,,,,,,,,,,,,,,,,,,,,,,,,,,,,,,,,,,,,,,,,,,,,,,,,,,,,,,,,,,,,,,,,,,,,,,,,,,,,,,,,,,,,,,,,,,,,,,,,,,,,,,,,,,,,,,
0,51,51,85,1,,60c5ae1d153847577f543609,62c53a80270234594f182ae8,2022-07-06_09h33.00.951,Colour_Asymmetry_Pilot,2022.1.3,Win32,59.47778505,62c50e9c1127f2cd403a315f,,,,,,,,,,,,,,,,,,,,,,,,,,,,,,,,,,,,,,,,,,,,,,,,,,,,,,,,,,,,,,,,,,,,,,,,,,,,,,,,,,,,,,,,,,,,,,,,,,,,,,,,,,,,,,,,,,,,,,,,,,,,,,,,,,,,,,,,,,,,,,,,,,,,,,,,,,,,,,,,,,
0,52,52,80,1,,60c5ae1d153847577f543609,62c53a80270234594f182ae8,2022-07-06_09h33.00.951,Colour_Asymmetry_Pilot,2022.1.3,Win32,59.47778505,62c50e9c1127f2cd403a315f,,,,,,,,,,,,,,,,,,,,,,,,,,,,,,,,,,,,,,,,,,,,,,,,,,,,,,,,,,,,,,,,,,,,,,,,,,,,,,,,,,,,,,,,,,,,,,,,,,,,,,,,,,,,,,,,,,,,,,,,,,,,,,,,,,,,,,,,,,,,,,,,,,,,,,,,,,,,,,,,,,
0,53,53,82,1,,60c5ae1d153847577f543609,62c53a80270234594f182ae8,2022-07-06_09h33.00.951,Colour_Asymmetry_Pilot,2022.1.3,Win32,59.47778505,62c50e9c1127f2cd403a315f,,,,,,,,,,,,,,,,,,,,,,,,,,,,,,,,,,,,,,,,,,,,,,,,,,,,,,,,,,,,,,,,,,,,,,,,,,,,,,,,,,,,,,,,,,,,,,,,,,,,,,,,,,,,,,,,,,,,,,,,,,,,,,,,,,,,,,,,,,,,,,,,,,,,,,,,,,,,,,,,,,
0,54,54,32,1,,60c5ae1d153847577f543609,62c53a80270234594f182ae8,2022-07-06_09h33.00.951,Colour_Asymmetry_Pilot,2022.1.3,Win32,59.47778505,62c50e9c1127f2cd403a315f,,,,,,,,,,,,,,,,,,,,,,,,,,,,,,,,,,,,,,,,,,,,,,,,,,,,,,,,,,,,,,,,,,,,,,,,,,,,,,,,,,,,,,,,,,,,,,,,,,,,,,,,,,,,,,,,,,,,,,,,,,,,,,,,,,,,,,,,,,,,,,,,,,,,,,,,,,,,,,,,,,
0,55,55,91,1,,60c5ae1d153847577f543609,62c53a80270234594f182ae8,2022-07-06_09h33.00.951,Colour_Asymmetry_Pilot,2022.1.3,Win32,59.47778505,62c50e9c1127f2cd403a315f,,,,,,,,,,,,,,,,,,,,,,,,,,,,,,,,,,,,,,,,,,,,,,,,,,,,,,,,,,,,,,,,,,,,,,,,,,,,,,,,,,,,,,,,,,,,,,,,,,,,,,,,,,,,,,,,,,,,,,,,,,,,,,,,,,,,,,,,,,,,,,,,,,,,,,,,,,,,,,,,,,
0,56,56,86,1,,60c5ae1d153847577f543609,62c53a80270234594f182ae8,2022-07-06_09h33.00.951,Colour_Asymmetry_Pilot,2022.1.3,Win32,59.47778505,62c50e9c1127f2cd403a315f,,,,,,,,,,,,,,,,,,,,,,,,,,,,,,,,,,,,,,,,,,,,,,,,,,,,,,,,,,,,,,,,,,,,,,,,,,,,,,,,,,,,,,,,,,,,,,,,,,,,,,,,,,,,,,,,,,,,,,,,,,,,,,,,,,,,,,,,,,,,,,,,,,,,,,,,,,,,,,,,,,
0,57,57,28,1,,60c5ae1d153847577f543609,62c53a80270234594f182ae8,2022-07-06_09h33.00.951,Colour_Asymmetry_Pilot,2022.1.3,Win32,59.47778505,62c50e9c1127f2cd403a315f,,,,,,,,,,,,,,,,,,,,,,,,,,,,,,,,,,,,,,,,,,,,,,,,,,,,,,,,,,,,,,,,,,,,,,,,,,,,,,,,,,,,,,,,,,,,,,,,,,,,,,,,,,,,,,,,,,,,,,,,,,,,,,,,,,,,,,,,,,,,,,,,,,,,,,,,,,,,,,,,,,
0,58,58,55,1,,60c5ae1d153847577f543609,62c53a80270234594f182ae8,2022-07-06_09h33.00.951,Colour_Asymmetry_Pilot,2022.1.3,Win32,59.47778505,62c50e9c1127f2cd403a315f,,,,,,,,,,,,,,,,,,,,,,,,,,,,,,,,,,,,,,,,,,,,,,,,,,,,,,,,,,,,,,,,,,,,,,,,,,,,,,,,,,,,,,,,,,,,,,,,,,,,,,,,,,,,,,,,,,,,,,,,,,,,,,,,,,,,,,,,,,,,,,,,,,,,,,,,,,,,,,,,,,
0,59,59,40,1,,60c5ae1d153847577f543609,62c53a80270234594f182ae8,2022-07-06_09h33.00.951,Colour_Asymmetry_Pilot,2022.1.3,Win32,59.47778505,62c50e9c1127f2cd403a315f,,,,,,,,,,,,,,,,,,,,,,,,,,,,,,,,,,,,,,,,,,,,,,,,,,,,,,,,,,,,,,,,,,,,,,,,,,,,,,,,,,,,,,,,,,,,,,,,,,,,,,,,,,,,,,,,,,,,,,,,,,,,,,,,,,,,,,,,,,,,,,,,,,,,,,,,,,,,,,,,,,
0,60,60,8,1,,60c5ae1d153847577f543609,62c53a80270234594f182ae8,2022-07-06_09h33.00.951,Colour_Asymmetry_Pilot,2022.1.3,Win32,59.47778505,62c50e9c1127f2cd403a315f,,,,,,,,,,,,,,,,,,,,,,,,,,,,,,,,,,,,,,,,,,,,,,,,,,,,,,,,,,,,,,,,,,,,,,,,,,,,,,,,,,,,,,,,,,,,,,,,,,,,,,,,,,,,,,,,,,,,,,,,,,,,,,,,,,,,,,,,,,,,,,,,,,,,,,,,,,,,,,,,,,
0,61,61,63,1,,60c5ae1d153847577f543609,62c53a80270234594f182ae8,2022-07-06_09h33.00.951,Colour_Asymmetry_Pilot,2022.1.3,Win32,59.47778505,62c50e9c1127f2cd403a315f,,,,,,,,,,,,,,,,,,,,,,,,,,,,,,,,,,,,,,,,,,,,,,,,,,,,,,,,,,,,,,,,,,,,,,,,,,,,,,,,,,,,,,,,,,,,,,,,,,,,,,,,,,,,,,,,,,,,,,,,,,,,,,,,,,,,,,,,,,,,,,,,,,,,,,,,,,,,,,,,,,
0,62,62,25,1,,60c5ae1d153847577f543609,62c53a80270234594f182ae8,2022-07-06_09h33.00.951,Colour_Asymmetry_Pilot,2022.1.3,Win32,59.47778505,62c50e9c1127f2cd403a315f,,,,,,,,,,,,,,,,,,,,,,,,,,,,,,,,,,,,,,,,,,,,,,,,,,,,,,,,,,,,,,,,,,,,,,,,,,,,,,,,,,,,,,,,,,,,,,,,,,,,,,,,,,,,,,,,,,,,,,,,,,,,,,,,,,,,,,,,,,,,,,,,,,,,,,,,,,,,,,,,,,
0,63,63,19,1,,60c5ae1d153847577f543609,62c53a80270234594f182ae8,2022-07-06_09h33.00.951,Colour_Asymmetry_Pilot,2022.1.3,Win32,59.47778505,62c50e9c1127f2cd403a315f,,,,,,,,,,,,,,,,,,,,,,,,,,,,,,,,,,,,,,,,,,,,,,,,,,,,,,,,,,,,,,,,,,,,,,,,,,,,,,,,,,,,,,,,,,,,,,,,,,,,,,,,,,,,,,,,,,,,,,,,,,,,,,,,,,,,,,,,,,,,,,,,,,,,,,,,,,,,,,,,,,
0,64,64,13,1,,60c5ae1d153847577f543609,62c53a80270234594f182ae8,2022-07-06_09h33.00.951,Colour_Asymmetry_Pilot,2022.1.3,Win32,59.47778505,62c50e9c1127f2cd403a315f,,,,,,,,,,,,,,,,,,,,,,,,,,,,,,,,,,,,,,,,,,,,,,,,,,,,,,,,,,,,,,,,,,,,,,,,,,,,,,,,,,,,,,,,,,,,,,,,,,,,,,,,,,,,,,,,,,,,,,,,,,,,,,,,,,,,,,,,,,,,,,,,,,,,,,,,,,,,,,,,,,
0,65,65,72,1,,60c5ae1d153847577f543609,62c53a80270234594f182ae8,2022-07-06_09h33.00.951,Colour_Asymmetry_Pilot,2022.1.3,Win32,59.47778505,62c50e9c1127f2cd403a315f,,,,,,,,,,,,,,,,,,,,,,,,,,,,,,,,,,,,,,,,,,,,,,,,,,,,,,,,,,,,,,,,,,,,,,,,,,,,,,,,,,,,,,,,,,,,,,,,,,,,,,,,,,,,,,,,,,,,,,,,,,,,,,,,,,,,,,,,,,,,,,,,,,,,,,,,,,,,,,,,,,
0,66,66,62,1,,60c5ae1d153847577f543609,62c53a80270234594f182ae8,2022-07-06_09h33.00.951,Colour_Asymmetry_Pilot,2022.1.3,Win32,59.47778505,62c50e9c1127f2cd403a315f,,,,,,,,,,,,,,,,,,,,,,,,,,,,,,,,,,,,,,,,,,,,,,,,,,,,,,,,,,,,,,,,,,,,,,,,,,,,,,,,,,,,,,,,,,,,,,,,,,,,,,,,,,,,,,,,,,,,,,,,,,,,,,,,,,,,,,,,,,,,,,,,,,,,,,,,,,,,,,,,,,
0,67,67,59,1,,60c5ae1d153847577f543609,62c53a80270234594f182ae8,2022-07-06_09h33.00.951,Colour_Asymmetry_Pilot,2022.1.3,Win32,59.47778505,62c50e9c1127f2cd403a315f,,,,,,,,,,,,,,,,,,,,,,,,,,,,,,,,,,,,,,,,,,,,,,,,,,,,,,,,,,,,,,,,,,,,,,,,,,,,,,,,,,,,,,,,,,,,,,,,,,,,,,,,,,,,,,,,,,,,,,,,,,,,,,,,,,,,,,,,,,,,,,,,,,,,,,,,,,,,,,,,,,
0,68,68,53,1,,60c5ae1d153847577f543609,62c53a80270234594f182ae8,2022-07-06_09h33.00.951,Colour_Asymmetry_Pilot,2022.1.3,Win32,59.47778505,62c50e9c1127f2cd403a315f,,,,,,,,,,,,,,,,,,,,,,,,,,,,,,,,,,,,,,,,,,,,,,,,,,,,,,,,,,,,,,,,,,,,,,,,,,,,,,,,,,,,,,,,,,,,,,,,,,,,,,,,,,,,,,,,,,,,,,,,,,,,,,,,,,,,,,,,,,,,,,,,,,,,,,,,,,,,,,,,,,
0,69,69,89,1,,60c5ae1d153847577f543609,62c53a80270234594f182ae8,2022-07-06_09h33.00.951,Colour_Asymmetry_Pilot,2022.1.3,Win32,59.47778505,62c50e9c1127f2cd403a315f,,,,,,,,,,,,,,,,,,,,,,,,,,,,,,,,,,,,,,,,,,,,,,,,,,,,,,,,,,,,,,,,,,,,,,,,,,,,,,,,,,,,,,,,,,,,,,,,,,,,,,,,,,,,,,,,,,,,,,,,,,,,,,,,,,,,,,,,,,,,,,,,,,,,,,,,,,,,,,,,,,
0,70,70,46,1,,60c5ae1d153847577f543609,62c53a80270234594f182ae8,2022-07-06_09h33.00.951,Colour_Asymmetry_Pilot,2022.1.3,Win32,59.47778505,62c50e9c1127f2cd403a315f,,,,,,,,,,,,,,,,,,,,,,,,,,,,,,,,,,,,,,,,,,,,,,,,,,,,,,,,,,,,,,,,,,,,,,,,,,,,,,,,,,,,,,,,,,,,,,,,,,,,,,,,,,,,,,,,,,,,,,,,,,,,,,,,,,,,,,,,,,,,,,,,,,,,,,,,,,,,,,,,,,
0,71,71,10,1,,60c5ae1d153847577f543609,62c53a80270234594f182ae8,2022-07-06_09h33.00.951,Colour_Asymmetry_Pilot,2022.1.3,Win32,59.47778505,62c50e9c1127f2cd403a315f,,,,,,,,,,,,,,,,,,,,,,,,,,,,,,,,,,,,,,,,,,,,,,,,,,,,,,,,,,,,,,,,,,,,,,,,,,,,,,,,,,,,,,,,,,,,,,,,,,,,,,,,,,,,,,,,,,,,,,,,,,,,,,,,,,,,,,,,,,,,,,,,,,,,,,,,,,,,,,,,,,
0,72,72,76,1,,60c5ae1d153847577f543609,62c53a80270234594f182ae8,2022-07-06_09h33.00.951,Colour_Asymmetry_Pilot,2022.1.3,Win32,59.47778505,62c50e9c1127f2cd403a315f,,,,,,,,,,,,,,,,,,,,,,,,,,,,,,,,,,,,,,,,,,,,,,,,,,,,,,,,,,,,,,,,,,,,,,,,,,,,,,,,,,,,,,,,,,,,,,,,,,,,,,,,,,,,,,,,,,,,,,,,,,,,,,,,,,,,,,,,,,,,,,,,,,,,,,,,,,,,,,,,,,
0,73,73,14,1,,60c5ae1d153847577f543609,62c53a80270234594f182ae8,2022-07-06_09h33.00.951,Colour_Asymmetry_Pilot,2022.1.3,Win32,59.47778505,62c50e9c1127f2cd403a315f,,,,,,,,,,,,,,,,,,,,,,,,,,,,,,,,,,,,,,,,,,,,,,,,,,,,,,,,,,,,,,,,,,,,,,,,,,,,,,,,,,,,,,,,,,,,,,,,,,,,,,,,,,,,,,,,,,,,,,,,,,,,,,,,,,,,,,,,,,,,,,,,,,,,,,,,,,,,,,,,,,
0,74,74,26,1,,60c5ae1d153847577f543609,62c53a80270234594f182ae8,2022-07-06_09h33.00.951,Colour_Asymmetry_Pilot,2022.1.3,Win32,59.47778505,62c50e9c1127f2cd403a315f,,,,,,,,,,,,,,,,,,,,,,,,,,,,,,,,,,,,,,,,,,,,,,,,,,,,,,,,,,,,,,,,,,,,,,,,,,,,,,,,,,,,,,,,,,,,,,,,,,,,,,,,,,,,,,,,,,,,,,,,,,,,,,,,,,,,,,,,,,,,,,,,,,,,,,,,,,,,,,,,,,
0,75,75,1,1,,60c5ae1d153847577f543609,62c53a80270234594f182ae8,2022-07-06_09h33.00.951,Colour_Asymmetry_Pilot,2022.1.3,Win32,59.47778505,62c50e9c1127f2cd403a315f,,,,,,,,,,,,,,,,,,,,,,,,,,,,,,,,,,,,,,,,,,,,,,,,,,,,,,,,,,,,,,,,,,,,,,,,,,,,,,,,,,,,,,,,,,,,,,,,,,,,,,,,,,,,,,,,,,,,,,,,,,,,,,,,,,,,,,,,,,,,,,,,,,,,,,,,,,,,,,,,,,
0,76,76,3,1,,60c5ae1d153847577f543609,62c53a80270234594f182ae8,2022-07-06_09h33.00.951,Colour_Asymmetry_Pilot,2022.1.3,Win32,59.47778505,62c50e9c1127f2cd403a315f,,,,,,,,,,,,,,,,,,,,,,,,,,,,,,,,,,,,,,,,,,,,,,,,,,,,,,,,,,,,,,,,,,,,,,,,,,,,,,,,,,,,,,,,,,,,,,,,,,,,,,,,,,,,,,,,,,,,,,,,,,,,,,,,,,,,,,,,,,,,,,,,,,,,,,,,,,,,,,,,,,
0,77,77,38,1,,60c5ae1d153847577f543609,62c53a80270234594f182ae8,2022-07-06_09h33.00.951,Colour_Asymmetry_Pilot,2022.1.3,Win32,59.47778505,62c50e9c1127f2cd403a315f,,,,,,,,,,,,,,,,,,,,,,,,,,,,,,,,,,,,,,,,,,,,,,,,,,,,,,,,,,,,,,,,,,,,,,,,,,,,,,,,,,,,,,,,,,,,,,,,,,,,,,,,,,,,,,,,,,,,,,,,,,,,,,,,,,,,,,,,,,,,,,,,,,,,,,,,,,,,,,,,,,
0,78,78,69,1,,60c5ae1d153847577f543609,62c53a80270234594f182ae8,2022-07-06_09h33.00.951,Colour_Asymmetry_Pilot,2022.1.3,Win32,59.47778505,62c50e9c1127f2cd403a315f,,,,,,,,,,,,,,,,,,,,,,,,,,,,,,,,,,,,,,,,,,,,,,,,,,,,,,,,,,,,,,,,,,,,,,,,,,,,,,,,,,,,,,,,,,,,,,,,,,,,,,,,,,,,,,,,,,,,,,,,,,,,,,,,,,,,,,,,,,,,,,,,,,,,,,,,,,,,,,,,,,
0,79,79,11,1,,60c5ae1d153847577f543609,62c53a80270234594f182ae8,2022-07-06_09h33.00.951,Colour_Asymmetry_Pilot,2022.1.3,Win32,59.47778505,62c50e9c1127f2cd403a315f,,,,,,,,,,,,,,,,,,,,,,,,,,,,,,,,,,,,,,,,,,,,,,,,,,,,,,,,,,,,,,,,,,,,,,,,,,,,,,,,,,,,,,,,,,,,,,,,,,,,,,,,,,,,,,,,,,,,,,,,,,,,,,,,,,,,,,,,,,,,,,,,,,,,,,,,,,,,,,,,,,
0,80,80,83,1,,60c5ae1d153847577f543609,62c53a80270234594f182ae8,2022-07-06_09h33.00.951,Colour_Asymmetry_Pilot,2022.1.3,Win32,59.47778505,62c50e9c1127f2cd403a315f,,,,,,,,,,,,,,,,,,,,,,,,,,,,,,,,,,,,,,,,,,,,,,,,,,,,,,,,,,,,,,,,,,,,,,,,,,,,,,,,,,,,,,,,,,,,,,,,,,,,,,,,,,,,,,,,,,,,,,,,,,,,,,,,,,,,,,,,,,,,,,,,,,,,,,,,,,,,,,,,,,
0,81,81,84,1,,60c5ae1d153847577f543609,62c53a80270234594f182ae8,2022-07-06_09h33.00.951,Colour_Asymmetry_Pilot,2022.1.3,Win32,59.47778505,62c50e9c1127f2cd403a315f,,,,,,,,,,,,,,,,,,,,,,,,,,,,,,,,,,,,,,,,,,,,,,,,,,,,,,,,,,,,,,,,,,,,,,,,,,,,,,,,,,,,,,,,,,,,,,,,,,,,,,,,,,,,,,,,,,,,,,,,,,,,,,,,,,,,,,,,,,,,,,,,,,,,,,,,,,,,,,,,,,
0,82,82,65,1,,60c5ae1d153847577f543609,62c53a80270234594f182ae8,2022-07-06_09h33.00.951,Colour_Asymmetry_Pilot,2022.1.3,Win32,59.47778505,62c50e9c1127f2cd403a315f,,,,,,,,,,,,,,,,,,,,,,,,,,,,,,,,,,,,,,,,,,,,,,,,,,,,,,,,,,,,,,,,,,,,,,,,,,,,,,,,,,,,,,,,,,,,,,,,,,,,,,,,,,,,,,,,,,,,,,,,,,,,,,,,,,,,,,,,,,,,,,,,,,,,,,,,,,,,,,,,,,
0,83,83,6,1,,60c5ae1d153847577f543609,62c53a80270234594f182ae8,2022-07-06_09h33.00.951,Colour_Asymmetry_Pilot,2022.1.3,Win32,59.47778505,62c50e9c1127f2cd403a315f,,,,,,,,,,,,,,,,,,,,,,,,,,,,,,,,,,,,,,,,,,,,,,,,,,,,,,,,,,,,,,,,,,,,,,,,,,,,,,,,,,,,,,,,,,,,,,,,,,,,,,,,,,,,,,,,,,,,,,,,,,,,,,,,,,,,,,,,,,,,,,,,,,,,,,,,,,,,,,,,,,
0,84,84,51,1,,60c5ae1d153847577f543609,62c53a80270234594f182ae8,2022-07-06_09h33.00.951,Colour_Asymmetry_Pilot,2022.1.3,Win32,59.47778505,62c50e9c1127f2cd403a315f,,,,,,,,,,,,,,,,,,,,,,,,,,,,,,,,,,,,,,,,,,,,,,,,,,,,,,,,,,,,,,,,,,,,,,,,,,,,,,,,,,,,,,,,,,,,,,,,,,,,,,,,,,,,,,,,,,,,,,,,,,,,,,,,,,,,,,,,,,,,,,,,,,,,,,,,,,,,,,,,,,
0,85,85,42,1,,60c5ae1d153847577f543609,62c53a80270234594f182ae8,2022-07-06_09h33.00.951,Colour_Asymmetry_Pilot,2022.1.3,Win32,59.47778505,62c50e9c1127f2cd403a315f,,,,,,,,,,,,,,,,,,,,,,,,,,,,,,,,,,,,,,,,,,,,,,,,,,,,,,,,,,,,,,,,,,,,,,,,,,,,,,,,,,,,,,,,,,,,,,,,,,,,,,,,,,,,,,,,,,,,,,,,,,,,,,,,,,,,,,,,,,,,,,,,,,,,,,,,,,,,,,,,,,
0,86,86,18,1,,60c5ae1d153847577f543609,62c53a80270234594f182ae8,2022-07-06_09h33.00.951,Colour_Asymmetry_Pilot,2022.1.3,Win32,59.47778505,62c50e9c1127f2cd403a315f,,,,,,,,,,,,,,,,,,,,,,,,,,,,,,,,,,,,,,,,,,,,,,,,,,,,,,,,,,,,,,,,,,,,,,,,,,,,,,,,,,,,,,,,,,,,,,,,,,,,,,,,,,,,,,,,,,,,,,,,,,,,,,,,,,,,,,,,,,,,,,,,,,,,,,,,,,,,,,,,,,
0,87,87,57,1,,60c5ae1d153847577f543609,62c53a80270234594f182ae8,2022-07-06_09h33.00.951,Colour_Asymmetry_Pilot,2022.1.3,Win32,59.47778505,62c50e9c1127f2cd403a315f,,,,,,,,,,,,,,,,,,,,,,,,,,,,,,,,,,,,,,,,,,,,,,,,,,,,,,,,,,,,,,,,,,,,,,,,,,,,,,,,,,,,,,,,,,,,,,,,,,,,,,,,,,,,,,,,,,,,,,,,,,,,,,,,,,,,,,,,,,,,,,,,,,,,,,,,,,,,,,,,,,
0,88,88,48,1,,60c5ae1d153847577f543609,62c53a80270234594f182ae8,2022-07-06_09h33.00.951,Colour_Asymmetry_Pilot,2022.1.3,Win32,59.47778505,62c50e9c1127f2cd403a315f,,,,,,,,,,,,,,,,,,,,,,,,,,,,,,,,,,,,,,,,,,,,,,,,,,,,,,,,,,,,,,,,,,,,,,,,,,,,,,,,,,,,,,,,,,,,,,,,,,,,,,,,,,,,,,,,,,,,,,,,,,,,,,,,,,,,,,,,,,,,,,,,,,,,,,,,,,,,,,,,,,
0,89,89,66,1,,60c5ae1d153847577f543609,62c53a80270234594f182ae8,2022-07-06_09h33.00.951,Colour_Asymmetry_Pilot,2022.1.3,Win32,59.47778505,62c50e9c1127f2cd403a315f,,,,,,,,,,,,,,,,,,,,,,,,,,,,,,,,,,,,,,,,,,,,,,,,,,,,,,,,,,,,,,,,,,,,,,,,,,,,,,,,,,,,,,,,,,,,,,,,,,,,,,,,,,,,,,,,,,,,,,,,,,,,,,,,,,,,,,,,,,,,,,,,,,,,,,,,,,,,,,,,,,
0,90,90,41,1,,60c5ae1d153847577f543609,62c53a80270234594f182ae8,2022-07-06_09h33.00.951,Colour_Asymmetry_Pilot,2022.1.3,Win32,59.47778505,62c50e9c1127f2cd403a315f,,,,,,,,,,,,,,,,,,,,,,,,,,,,,,,,,,,,,,,,,,,,,,,,,,,,,,,,,,,,,,,,,,,,,,,,,,,,,,,,,,,,,,,,,,,,,,,,,,,,,,,,,,,,,,,,,,,,,,,,,,,,,,,,,,,,,,,,,,,,,,,,,,,,,,,,,,,,,,,,,,
0,91,91,36,1,,60c5ae1d153847577f543609,62c53a80270234594f182ae8,2022-07-06_09h33.00.951,Colour_Asymmetry_Pilot,2022.1.3,Win32,59.47778505,62c50e9c1127f2cd403a315f,,,,,,,,,,,,,,,,,,,,,,,,,,,,,,,,,,,,,,,,,,,,,,,,,,,,,,,,,,,,,,,,,,,,,,,,,,,,,,,,,,,,,,,,,,,,,,,,,,,,,,,,,,,,,,,,,,,,,,,,,,,,,,,,,,,,,,,,,,,,,,,,,,,,,,,,,,,,,,,,,,
0,92,92,92,1,,60c5ae1d153847577f543609,62c53a80270234594f182ae8,2022-07-06_09h33.00.951,Colour_Asymmetry_Pilot,2022.1.3,Win32,59.47778505,62c50e9c1127f2cd403a315f,,,,,,,,,,,,,,,,,,,,,,,,,,,,,,,,,,,,,,,,,,,,,,,,,,,,,,,,,,,,,,,,,,,,,,,,,,,,,,,,,,,,,,,,,,,,,,,,,,,,,,,,,,,,,,,,,,,,,,,,,,,,,,,,,,,,,,,,,,,,,,,,,,,,,,,,,,,,,,,,,,
,,,,,,60c5ae1d153847577f543609,62c53a80270234594f182ae8,2022-07-06_09h33.00.951,Colour_Asymmetry_Pilot,2022.1.3,Win32,59.47778505,62c50e9c1127f2cd403a315f,0,0,0,2,1,twoone,,,,,,,,,,,,,,,,,,,,,,,,,,,,,,,,,,,,,,,,,,,,,,,,,,,,,,,,,,,,,,,,,,,,,,,,,,,,,,,,,,,,,,,,,,,,,,,,,,,,,,,,,,,,,,,,,,,,,,,,,,,,,,,,,,,,,,,,,,,,,,,,,,,,,,,,,,,,
,,,,,,60c5ae1d153847577f543609,62c53a80270234594f182ae8,2022-07-06_09h33.00.951,Colour_Asymmetry_Pilot,2022.1.3,Win32,59.47778505,62c50e9c1127f2cd403a315f,0,1,1,51,1,twofour,,,,,,,,,,,,,,,,,,,,,,,,,,,,,,,,,,,,,,,,,,,,,,,,,,,,,,,,,,,,,,,,,,,,,,,,,,,,,,,,,,,,,,,,,,,,,,,,,,,,,,,,,,,,,,,,,,,,,,,,,,,,,,,,,,,,,,,,,,,,,,,,,,,,,,,,,,,,
,,,,,,60c5ae1d153847577f543609,62c53a80270234594f182ae8,2022-07-06_09h33.00.951,Colour_Asymmetry_Pilot,2022.1.3,Win32,59.47778505,62c50e9c1127f2cd403a315f,0,2,2,141,1,threefour,,,,,,,,,,,,,,,,,,,,,,,,,,,,,,,,,,,,,,,,,,,,,,,,,,,,,,,,,,,,,,,,,,,,,,,,,,,,,,,,,,,,,,,,,,,,,,,,,,,,,,,,,,,,,,,,,,,,,,,,,,,,,,,,,,,,,,,,,,,,,,,,,,,,,,,,,,,,
,,,,,,60c5ae1d153847577f543609,62c53a80270234594f182ae8,2022-07-06_09h33.00.951,Colour_Asymmetry_Pilot,2022.1.3,Win32,59.47778505,62c50e9c1127f2cd403a315f,0,3,3,27,1,twofour,,,,,,,,,,,,,,,,,,,,,,,,,,,,,,,,,,,,,,,,,,,,,,,,,,,,,,,,,,,,,,,,,,,,,,,,,,,,,,,,,,,,,,,,,,,,,,,,,,,,,,,,,,,,,,,,,,,,,,,,,,,,,,,,,,,,,,,,,,,,,,,,,,,,,,,,,,,,
,,,,,,60c5ae1d153847577f543609,62c53a80270234594f182ae8,2022-07-06_09h33.00.951,Colour_Asymmetry_Pilot,2022.1.3,Win32,59.47778505,62c50e9c1127f2cd403a315f,0,4,4,55,1,fourthree,,,,,,,,,,,,,,,,,,,,,,,,,,,,,,,,,,,,,,,,,,,,,,,,,,,,,,,,,,,,,,,,,,,,,,,,,,,,,,,,,,,,,,,,,,,,,,,,,,,,,,,,,,,,,,,,,,,,,,,,,,,,,,,,,,,,,,,,,,,,,,,,,,,,,,,,,,,,
,,,,,,60c5ae1d153847577f543609,62c53a80270234594f182ae8,2022-07-06_09h33.00.951,Colour_Asymmetry_Pilot,2022.1.3,Win32,59.47778505,62c50e9c1127f2cd403a315f,0,5,5,117,1,threefour,,,,,,,,,,,,,,,,,,,,,,,,,,,,,,,,,,,,,,,,,,,,,,,,,,,,,,,,,,,,,,,,,,,,,,,,,,,,,,,,,,,,,,,,,,,,,,,,,,,,,,,,,,,,,,,,,,,,,,,,,,,,,,,,,,,,,,,,,,,,,,,,,,,,,,,,,,,,
,,,,,,60c5ae1d153847577f543609,62c53a80270234594f182ae8,2022-07-06_09h33.00.951,Colour_Asymmetry_Pilot,2022.1.3,Win32,59.47778505,62c50e9c1127f2cd403a315f,0,6,6,54,1,fourtwo,,,,,,,,,,,,,,,,,,,,,,,,,,,,,,,,,,,,,,,,,,,,,,,,,,,,,,,,,,,,,,,,,,,,,,,,,,,,,,,,,,,,,,,,,,,,,,,,,,,,,,,,,,,,,,,,,,,,,,,,,,,,,,,,,,,,,,,,,,,,,,,,,,,,,,,,,,,,
,,,,,,60c5ae1d153847577f543609,62c53a80270234594f182ae8,2022-07-06_09h33.00.951,Colour_Asymmetry_Pilot,2022.1.3,Win32,59.47778505,62c50e9c1127f2cd403a315f,0,7,7,129,1,onethree,,,,,,,,,,,,,,,,,,,,,,,,,,,,,,,,,,,,,,,,,,,,,,,,,,,,,,,,,,,,,,,,,,,,,,,,,,,,,,,,,,,,,,,,,,,,,,,,,,,,,,,,,,,,,,,,,,,,,,,,,,,,,,,,,,,,,,,,,,,,,,,,,,,,,,,,,,,,
,,,,,,60c5ae1d153847577f543609,62c53a80270234594f182ae8,2022-07-06_09h33.00.951,Colour_Asymmetry_Pilot,2022.1.3,Win32,59.47778505,62c50e9c1127f2cd403a315f,0,8,8,135,1,fourthree,,,,,,,,,,,,,,,,,,,,,,,,,,,,,,,,,,,,,,,,,,,,,,,,,,,,,,,,,,,,,,,,,,,,,,,,,,,,,,,,,,,,,,,,,,,,,,,,,,,,,,,,,,,,,,,,,,,,,,,,,,,,,,,,,,,,,,,,,,,,,,,,,,,,,,,,,,,,
,,,,,,60c5ae1d153847577f543609,62c53a80270234594f182ae8,2022-07-06_09h33.00.951,Colour_Asymmetry_Pilot,2022.1.3,Win32,59.47778505,62c50e9c1127f2cd403a315f,0,9,9,153,1,onethree,,,,,,,,,,,,,,,,,,,,,,,,,,,,,,,,,,,,,,,,,,,,,,,,,,,,,,,,,,,,,,,,,,,,,,,,,,,,,,,,,,,,,,,,,,,,,,,,,,,,,,,,,,,,,,,,,,,,,,,,,,,,,,,,,,,,,,,,,,,,,,,,,,,,,,,,,,,,
,,,,,,60c5ae1d153847577f543609,62c53a80270234594f182ae8,2022-07-06_09h33.00.951,Colour_Asymmetry_Pilot,2022.1.3,Win32,59.47778505,62c50e9c1127f2cd403a315f,0,10,10,10,1,twoone,,,,,,,,,,,,,,,,,,,,,,,,,,,,,,,,,,,,,,,,,,,,,,,,,,,,,,,,,,,,,,,,,,,,,,,,,,,,,,,,,,,,,,,,,,,,,,,,,,,,,,,,,,,,,,,,,,,,,,,,,,,,,,,,,,,,,,,,,,,,,,,,,,,,,,,,,,,,
,,,,,,60c5ae1d153847577f543609,62c53a80270234594f182ae8,2022-07-06_09h33.00.951,Colour_Asymmetry_Pilot,2022.1.3,Win32,59.47778505,62c50e9c1127f2cd403a315f,0,11,11,92,1,threeone,,,,,,,,,,,,,,,,,,,,,,,,,,,,,,,,,,,,,,,,,,,,,,,,,,,,,,,,,,,,,,,,,,,,,,,,,,,,,,,,,,,,,,,,,,,,,,,,,,,,,,,,,,,,,,,,,,,,,,,,,,,,,,,,,,,,,,,,,,,,,,,,,,,,,,,,,,,,
,,,,,,60c5ae1d153847577f543609,62c53a80270234594f182ae8,2022-07-06_09h33.00.951,Colour_Asymmetry_Pilot,2022.1.3,Win32,59.47778505,62c50e9c1127f2cd403a315f,0,12,12,134,1,fourtwo,,,,,,,,,,,,,,,,,,,,,,,,,,,,,,,,,,,,,,,,,,,,,,,,,,,,,,,,,,,,,,,,,,,,,,,,,,,,,,,,,,,,,,,,,,,,,,,,,,,,,,,,,,,,,,,,,,,,,,,,,,,,,,,,,,,,,,,,,,,,,,,,,,,,,,,,,,,,
,,,,,,60c5ae1d153847577f543609,62c53a80270234594f182ae8,2022-07-06_09h33.00.951,Colour_Asymmetry_Pilot,2022.1.3,Win32,59.47778505,62c50e9c1127f2cd403a315f,0,13,13,128,1,onetwo,,,,,,,,,,,,,,,,,,,,,,,,,,,,,,,,,,,,,,,,,,,,,,,,,,,,,,,,,,,,,,,,,,,,,,,,,,,,,,,,,,,,,,,,,,,,,,,,,,,,,,,,,,,,,,,,,,,,,,,,,,,,,,,,,,,,,,,,,,,,,,,,,,,,,,,,,,,,
,,,,,,60c5ae1d153847577f543609,62c53a80270234594f182ae8,2022-07-06_09h33.00.951,Colour_Asymmetry_Pilot,2022.1.3,Win32,59.47778505,62c50e9c1127f2cd403a315f,0,14,14,113,1,onethree,,,,,,,,,,,,,,,,,,,,,,,,,,,,,,,,,,,,,,,,,,,,,,,,,,,,,,,,,,,,,,,,,,,,,,,,,,,,,,,,,,,,,,,,,,,,,,,,,,,,,,,,,,,,,,,,,,,,,,,,,,,,,,,,,,,,,,,,,,,,,,,,,,,,,,,,,,,,
,,,,,,60c5ae1d153847577f543609,62c53a80270234594f182ae8,2022-07-06_09h33.00.951,Colour_Asymmetry_Pilot,2022.1.3,Win32,59.47778505,62c50e9c1127f2cd403a315f,0,15,15,97,1,onethree,,,,,,,,,,,,,,,,,,,,,,,,,,,,,,,,,,,,,,,,,,,,,,,,,,,,,,,,,,,,,,,,,,,,,,,,,,,,,,,,,,,,,,,,,,,,,,,,,,,,,,,,,,,,,,,,,,,,,,,,,,,,,,,,,,,,,,,,,,,,,,,,,,,,,,,,,,,,
,,,,,,60c5ae1d153847577f543609,62c53a80270234594f182ae8,2022-07-06_09h33.00.951,Colour_Asymmetry_Pilot,2022.1.3,Win32,59.47778505,62c50e9c1127f2cd403a315f,0,16,16,53,1,threefour,,,,,,,,,,,,,,,,,,,,,,,,,,,,,,,,,,,,,,,,,,,,,,,,,,,,,,,,,,,,,,,,,,,,,,,,,,,,,,,,,,,,,,,,,,,,,,,,,,,,,,,,,,,,,,,,,,,,,,,,,,,,,,,,,,,,,,,,,,,,,,,,,,,,,,,,,,,,
,,,,,,60c5ae1d153847577f543609,62c53a80270234594f182ae8,2022-07-06_09h33.00.951,Colour_Asymmetry_Pilot,2022.1.3,Win32,59.47778505,62c50e9c1127f2cd403a315f,0,17,17,114,1,twoone,,,,,,,,,,,,,,,,,,,,,,,,,,,,,,,,,,,,,,,,,,,,,,,,,,,,,,,,,,,,,,,,,,,,,,,,,,,,,,,,,,,,,,,,,,,,,,,,,,,,,,,,,,,,,,,,,,,,,,,,,,,,,,,,,,,,,,,,,,,,,,,,,,,,,,,,,,,,
,,,,,,60c5ae1d153847577f543609,62c53a80270234594f182ae8,2022-07-06_09h33.00.951,Colour_Asymmetry_Pilot,2022.1.3,Win32,59.47778505,62c50e9c1127f2cd403a315f,0,18,18,121,1,onethree,,,,,,,,,,,,,,,,,,,,,,,,,,,,,,,,,,,,,,,,,,,,,,,,,,,,,,,,,,,,,,,,,,,,,,,,,,,,,,,,,,,,,,,,,,,,,,,,,,,,,,,,,,,,,,,,,,,,,,,,,,,,,,,,,,,,,,,,,,,,,,,,,,,,,,,,,,,,
,,,,,,60c5ae1d153847577f543609,62c53a80270234594f182ae8,2022-07-06_09h33.00.951,Colour_Asymmetry_Pilot,2022.1.3,Win32,59.47778505,62c50e9c1127f2cd403a315f,0,19,19,138,1,twoone,,,,,,,,,,,,,,,,,,,,,,,,,,,,,,,,,,,,,,,,,,,,,,,,,,,,,,,,,,,,,,,,,,,,,,,,,,,,,,,,,,,,,,,,,,,,,,,,,,,,,,,,,,,,,,,,,,,,,,,,,,,,,,,,,,,,,,,,,,,,,,,,,,,,,,,,,,,,
,,,,,,60c5ae1d153847577f543609,62c53a80270234594f182ae8,2022-07-06_09h33.00.951,Colour_Asymmetry_Pilot,2022.1.3,Win32,59.47778505,62c50e9c1127f2cd403a315f,0,20,20,19,1,twofour,,,,,,,,,,,,,,,,,,,,,,,,,,,,,,,,,,,,,,,,,,,,,,,,,,,,,,,,,,,,,,,,,,,,,,,,,,,,,,,,,,,,,,,,,,,,,,,,,,,,,,,,,,,,,,,,,,,,,,,,,,,,,,,,,,,,,,,,,,,,,,,,,,,,,,,,,,,,
,,,,,,60c5ae1d153847577f543609,62c53a80270234594f182ae8,2022-07-06_09h33.00.951,Colour_Asymmetry_Pilot,2022.1.3,Win32,59.47778505,62c50e9c1127f2cd403a315f,0,21,21,77,1,threefour,,,,,,,,,,,,,,,,,,,,,,,,,,,,,,,,,,,,,,,,,,,,,,,,,,,,,,,,,,,,,,,,,,,,,,,,,,,,,,,,,,,,,,,,,,,,,,,,,,,,,,,,,,,,,,,,,,,,,,,,,,,,,,,,,,,,,,,,,,,,,,,,,,,,,,,,,,,,
,,,,,,60c5ae1d153847577f543609,62c53a80270234594f182ae8,2022-07-06_09h33.00.951,Colour_Asymmetry_Pilot,2022.1.3,Win32,59.47778505,62c50e9c1127f2cd403a315f,0,22,22,23,1,fourthree,,,,,,,,,,,,,,,,,,,,,,,,,,,,,,,,,,,,,,,,,,,,,,,,,,,,,,,,,,,,,,,,,,,,,,,,,,,,,,,,,,,,,,,,,,,,,,,,,,,,,,,,,,,,,,,,,,,,,,,,,,,,,,,,,,,,,,,,,,,,,,,,,,,,,,,,,,,,
,,,,,,60c5ae1d153847577f543609,62c53a80270234594f182ae8,2022-07-06_09h33.00.951,Colour_Asymmetry_Pilot,2022.1.3,Win32,59.47778505,62c50e9c1127f2cd403a315f,0,23,23,103,1,fourthree,,,,,,,,,,,,,,,,,,,,,,,,,,,,,,,,,,,,,,,,,,,,,,,,,,,,,,,,,,,,,,,,,,,,,,,,,,,,,,,,,,,,,,,,,,,,,,,,,,,,,,,,,,,,,,,,,,,,,,,,,,,,,,,,,,,,,,,,,,,,,,,,,,,,,,,,,,,,
,,,,,,60c5ae1d153847577f543609,62c53a80270234594f182ae8,2022-07-06_09h33.00.951,Colour_Asymmetry_Pilot,2022.1.3,Win32,59.47778505,62c50e9c1127f2cd403a315f,0,24,24,89,1,onethree,,,,,,,,,,,,,,,,,,,,,,,,,,,,,,,,,,,,,,,,,,,,,,,,,,,,,,,,,,,,,,,,,,,,,,,,,,,,,,,,,,,,,,,,,,,,,,,,,,,,,,,,,,,,,,,,,,,,,,,,,,,,,,,,,,,,,,,,,,,,,,,,,,,,,,,,,,,,
,,,,,,60c5ae1d153847577f543609,62c53a80270234594f182ae8,2022-07-06_09h33.00.951,Colour_Asymmetry_Pilot,2022.1.3,Win32,59.47778505,62c50e9c1127f2cd403a315f,0,25,25,59,1,twofour,,,,,,,,,,,,,,,,,,,,,,,,,,,,,,,,,,,,,,,,,,,,,,,,,,,,,,,,,,,,,,,,,,,,,,,,,,,,,,,,,,,,,,,,,,,,,,,,,,,,,,,,,,,,,,,,,,,,,,,,,,,,,,,,,,,,,,,,,,,,,,,,,,,,,,,,,,,,
,,,,,,60c5ae1d153847577f543609,62c53a80270234594f182ae8,2022-07-06_09h33.00.951,Colour_Asymmetry_Pilot,2022.1.3,Win32,59.47778505,62c50e9c1127f2cd403a315f,0,26,26,46,1,fourtwo,,,,,,,,,,,,,,,,,,,,,,,,,,,,,,,,,,,,,,,,,,,,,,,,,,,,,,,,,,,,,,,,,,,,,,,,,,,,,,,,,,,,,,,,,,,,,,,,,,,,,,,,,,,,,,,,,,,,,,,,,,,,,,,,,,,,,,,,,,,,,,,,,,,,,,,,,,,,
,,,,,,60c5ae1d153847577f543609,62c53a80270234594f182ae8,2022-07-06_09h33.00.951,Colour_Asymmetry_Pilot,2022.1.3,Win32,59.47778505,62c50e9c1127f2cd403a315f,0,27,27,124,1,threeone,,,,,,,,,,,,,,,,,,,,,,,,,,,,,,,,,,,,,,,,,,,,,,,,,,,,,,,,,,,,,,,,,,,,,,,,,,,,,,,,,,,,,,,,,,,,,,,,,,,,,,,,,,,,,,,,,,,,,,,,,,,,,,,,,,,,,,,,,,,,,,,,,,,,,,,,,,,,
,,,,,,60c5ae1d153847577f543609,62c53a80270234594f182ae8,2022-07-06_09h33.00.951,Colour_Asymmetry_Pilot,2022.1.3,Win32,59.47778505,62c50e9c1127f2cd403a315f,0,28,28,70,1,fourtwo,,,,,,,,,,,,,,,,,,,,,,,,,,,,,,,,,,,,,,,,,,,,,,,,,,,,,,,,,,,,,,,,,,,,,,,,,,,,,,,,,,,,,,,,,,,,,,,,,,,,,,,,,,,,,,,,,,,,,,,,,,,,,,,,,,,,,,,,,,,,,,,,,,,,,,,,,,,,
,,,,,,60c5ae1d153847577f543609,62c53a80270234594f182ae8,2022-07-06_09h33.00.951,Colour_Asymmetry_Pilot,2022.1.3,Win32,59.47778505,62c50e9c1127f2cd403a315f,0,29,29,42,1,twoone,,,,,,,,,,,,,,,,,,,,,,,,,,,,,,,,,,,,,,,,,,,,,,,,,,,,,,,,,,,,,,,,,,,,,,,,,,,,,,,,,,,,,,,,,,,,,,,,,,,,,,,,,,,,,,,,,,,,,,,,,,,,,,,,,,,,,,,,,,,,,,,,,,,,,,,,,,,,
,,,,,,60c5ae1d153847577f543609,62c53a80270234594f182ae8,2022-07-06_09h33.00.951,Colour_Asymmetry_Pilot,2022.1.3,Win32,59.47778505,62c50e9c1127f2cd403a315f,0,30,30,149,1,threefour,,,,,,,,,,,,,,,,,,,,,,,,,,,,,,,,,,,,,,,,,,,,,,,,,,,,,,,,,,,,,,,,,,,,,,,,,,,,,,,,,,,,,,,,,,,,,,,,,,,,,,,,,,,,,,,,,,,,,,,,,,,,,,,,,,,,,,,,,,,,,,,,,,,,,,,,,,,,
,,,,,,60c5ae1d153847577f543609,62c53a80270234594f182ae8,2022-07-06_09h33.00.951,Colour_Asymmetry_Pilot,2022.1.3,Win32,59.47778505,62c50e9c1127f2cd403a315f,0,31,31,57,1,onethree,,,,,,,,,,,,,,,,,,,,,,,,,,,,,,,,,,,,,,,,,,,,,,,,,,,,,,,,,,,,,,,,,,,,,,,,,,,,,,,,,,,,,,,,,,,,,,,,,,,,,,,,,,,,,,,,,,,,,,,,,,,,,,,,,,,,,,,,,,,,,,,,,,,,,,,,,,,,
,,,,,,60c5ae1d153847577f543609,62c53a80270234594f182ae8,2022-07-06_09h33.00.951,Colour_Asymmetry_Pilot,2022.1.3,Win32,59.47778505,62c50e9c1127f2cd403a315f,0,32,32,105,1,onethree,,,,,,,,,,,,,,,,,,,,,,,,,,,,,,,,,,,,,,,,,,,,,,,,,,,,,,,,,,,,,,,,,,,,,,,,,,,,,,,,,,,,,,,,,,,,,,,,,,,,,,,,,,,,,,,,,,,,,,,,,,,,,,,,,,,,,,,,,,,,,,,,,,,,,,,,,,,,
,,,,,,60c5ae1d153847577f543609,62c53a80270234594f182ae8,2022-07-06_09h33.00.951,Colour_Asymmetry_Pilot,2022.1.3,Win32,59.47778505,62c50e9c1127f2cd403a315f,0,33,33,15,1,fourthree,,,,,,,,,,,,,,,,,,,,,,,,,,,,,,,,,,,,,,,,,,,,,,,,,,,,,,,,,,,,,,,,,,,,,,,,,,,,,,,,,,,,,,,,,,,,,,,,,,,,,,,,,,,,,,,,,,,,,,,,,,,,,,,,,,,,,,,,,,,,,,,,,,,,,,,,,,,,
,,,,,,60c5ae1d153847577f543609,62c53a80270234594f182ae8,2022-07-06_09h33.00.951,Colour_Asymmetry_Pilot,2022.1.3,Win32,59.47778505,62c50e9c1127f2cd403a315f,0,34,34,68,1,threeone,,,,,,,,,,,,,,,,,,,,,,,,,,,,,,,,,,,,,,,,,,,,,,,,,,,,,,,,,,,,,,,,,,,,,,,,,,,,,,,,,,,,,,,,,,,,,,,,,,,,,,,,,,,,,,,,,,,,,,,,,,,,,,,,,,,,,,,,,,,,,,,,,,,,,,,,,,,,
,,,,,,60c5ae1d153847577f543609,62c53a80270234594f182ae8,2022-07-06_09h33.00.951,Colour_Asymmetry_Pilot,2022.1.3,Win32,59.47778505,62c50e9c1127f2cd403a315f,0,35,35,43,1,twofour,,,,,,,,,,,,,,,,,,,,,,,,,,,,,,,,,,,,,,,,,,,,,,,,,,,,,,,,,,,,,,,,,,,,,,,,,,,,,,,,,,,,,,,,,,,,,,,,,,,,,,,,,,,,,,,,,,,,,,,,,,,,,,,,,,,,,,,,,,,,,,,,,,,,,,,,,,,,
,,,,,,60c5ae1d153847577f543609,62c53a80270234594f182ae8,2022-07-06_09h33.00.951,Colour_Asymmetry_Pilot,2022.1.3,Win32,59.47778505,62c50e9c1127f2cd403a315f,0,36,36,32,1,onetwo,,,,,,,,,,,,,,,,,,,,,,,,,,,,,,,,,,,,,,,,,,,,,,,,,,,,,,,,,,,,,,,,,,,,,,,,,,,,,,,,,,,,,,,,,,,,,,,,,,,,,,,,,,,,,,,,,,,,,,,,,,,,,,,,,,,,,,,,,,,,,,,,,,,,,,,,,,,,
,,,,,,60c5ae1d153847577f543609,62c53a80270234594f182ae8,2022-07-06_09h33.00.951,Colour_Asymmetry_Pilot,2022.1.3,Win32,59.47778505,62c50e9c1127f2cd403a315f,0,37,37,45,1,threefour,,,,,,,,,,,,,,,,,,,,,,,,,,,,,,,,,,,,,,,,,,,,,,,,,,,,,,,,,,,,,,,,,,,,,,,,,,,,,,,,,,,,,,,,,,,,,,,,,,,,,,,,,,,,,,,,,,,,,,,,,,,,,,,,,,,,,,,,,,,,,,,,,,,,,,,,,,,,
,,,,,,60c5ae1d153847577f543609,62c53a80270234594f182ae8,2022-07-06_09h33.00.951,Colour_Asymmetry_Pilot,2022.1.3,Win32,59.47778505,62c50e9c1127f2cd403a315f,0,38,38,8,1,onetwo,,,,,,,,,,,,,,,,,,,,,,,,,,,,,,,,,,,,,,,,,,,,,,,,,,,,,,,,,,,,,,,,,,,,,,,,,,,,,,,,,,,,,,,,,,,,,,,,,,,,,,,,,,,,,,,,,,,,,,,,,,,,,,,,,,,,,,,,,,,,,,,,,,,,,,,,,,,,
,,,,,,60c5ae1d153847577f543609,62c53a80270234594f182ae8,2022-07-06_09h33.00.951,Colour_Asymmetry_Pilot,2022.1.3,Win32,59.47778505,62c50e9c1127f2cd403a315f,0,39,39,36,1,threeone,,,,,,,,,,,,,,,,,,,,,,,,,,,,,,,,,,,,,,,,,,,,,,,,,,,,,,,,,,,,,,,,,,,,,,,,,,,,,,,,,,,,,,,,,,,,,,,,,,,,,,,,,,,,,,,,,,,,,,,,,,,,,,,,,,,,,,,,,,,,,,,,,,,,,,,,,,,,
,,,,,,60c5ae1d153847577f543609,62c53a80270234594f182ae8,2022-07-06_09h33.00.951,Colour_Asymmetry_Pilot,2022.1.3,Win32,59.47778505,62c50e9c1127f2cd403a315f,0,40,40,90,1,twoone,,,,,,,,,,,,,,,,,,,,,,,,,,,,,,,,,,,,,,,,,,,,,,,,,,,,,,,,,,,,,,,,,,,,,,,,,,,,,,,,,,,,,,,,,,,,,,,,,,,,,,,,,,,,,,,,,,,,,,,,,,,,,,,,,,,,,,,,,,,,,,,,,,,,,,,,,,,,
,,,,,,60c5ae1d153847577f543609,62c53a80270234594f182ae8,2022-07-06_09h33.00.951,Colour_Asymmetry_Pilot,2022.1.3,Win32,59.47778505,62c50e9c1127f2cd403a315f,0,41,41,145,1,onethree,,,,,,,,,,,,,,,,,,,,,,,,,,,,,,,,,,,,,,,,,,,,,,,,,,,,,,,,,,,,,,,,,,,,,,,,,,,,,,,,,,,,,,,,,,,,,,,,,,,,,,,,,,,,,,,,,,,,,,,,,,,,,,,,,,,,,,,,,,,,,,,,,,,,,,,,,,,,
,,,,,,60c5ae1d153847577f543609,62c53a80270234594f182ae8,2022-07-06_09h33.00.951,Colour_Asymmetry_Pilot,2022.1.3,Win32,59.47778505,62c50e9c1127f2cd403a315f,0,42,42,160,1,onetwo,,,,,,,,,,,,,,,,,,,,,,,,,,,,,,,,,,,,,,,,,,,,,,,,,,,,,,,,,,,,,,,,,,,,,,,,,,,,,,,,,,,,,,,,,,,,,,,,,,,,,,,,,,,,,,,,,,,,,,,,,,,,,,,,,,,,,,,,,,,,,,,,,,,,,,,,,,,,
,,,,,,60c5ae1d153847577f543609,62c53a80270234594f182ae8,2022-07-06_09h33.00.951,Colour_Asymmetry_Pilot,2022.1.3,Win32,59.47778505,62c50e9c1127f2cd403a315f,0,43,43,123,1,twofour,,,,,,,,,,,,,,,,,,,,,,,,,,,,,,,,,,,,,,,,,,,,,,,,,,,,,,,,,,,,,,,,,,,,,,,,,,,,,,,,,,,,,,,,,,,,,,,,,,,,,,,,,,,,,,,,,,,,,,,,,,,,,,,,,,,,,,,,,,,,,,,,,,,,,,,,,,,,
,,,,,,60c5ae1d153847577f543609,62c53a80270234594f182ae8,2022-07-06_09h33.00.951,Colour_Asymmetry_Pilot,2022.1.3,Win32,59.47778505,62c50e9c1127f2cd403a315f,0,44,44,48,1,onetwo,,,,,,,,,,,,,,,,,,,,,,,,,,,,,,,,,,,,,,,,,,,,,,,,,,,,,,,,,,,,,,,,,,,,,,,,,,,,,,,,,,,,,,,,,,,,,,,,,,,,,,,,,,,,,,,,,,,,,,,,,,,,,,,,,,,,,,,,,,,,,,,,,,,,,,,,,,,,
,,,,,,60c5ae1d153847577f543609,62c53a80270234594f182ae8,2022-07-06_09h33.00.951,Colour_Asymmetry_Pilot,2022.1.3,Win32,59.47778505,62c50e9c1127f2cd403a315f,0,45,45,104,1,onetwo,,,,,,,,,,,,,,,,,,,,,,,,,,,,,,,,,,,,,,,,,,,,,,,,,,,,,,,,,,,,,,,,,,,,,,,,,,,,,,,,,,,,,,,,,,,,,,,,,,,,,,,,,,,,,,,,,,,,,,,,,,,,,,,,,,,,,,,,,,,,,,,,,,,,,,,,,,,,
,,,,,,60c5ae1d153847577f543609,62c53a80270234594f182ae8,2022-07-06_09h33.00.951,Colour_Asymmetry_Pilot,2022.1.3,Win32,59.47778505,62c50e9c1127f2cd403a315f,0,46,46,60,1,threeone,,,,,,,,,,,,,,,,,,,,,,,,,,,,,,,,,,,,,,,,,,,,,,,,,,,,,,,,,,,,,,,,,,,,,,,,,,,,,,,,,,,,,,,,,,,,,,,,,,,,,,,,,,,,,,,,,,,,,,,,,,,,,,,,,,,,,,,,,,,,,,,,,,,,,,,,,,,,
,,,,,,60c5ae1d153847577f543609,62c53a80270234594f182ae8,2022-07-06_09h33.00.951,Colour_Asymmetry_Pilot,2022.1.3,Win32,59.47778505,62c50e9c1127f2cd403a315f,0,47,47,154,1,twoone,,,,,,,,,,,,,,,,,,,,,,,,,,,,,,,,,,,,,,,,,,,,,,,,,,,,,,,,,,,,,,,,,,,,,,,,,,,,,,,,,,,,,,,,,,,,,,,,,,,,,,,,,,,,,,,,,,,,,,,,,,,,,,,,,,,,,,,,,,,,,,,,,,,,,,,,,,,,
,,,,,,60c5ae1d153847577f543609,62c53a80270234594f182ae8,2022-07-06_09h33.00.951,Colour_Asymmetry_Pilot,2022.1.3,Win32,59.47778505,62c50e9c1127f2cd403a315f,0,48,48,91,1,twofour,,,,,,,,,,,,,,,,,,,,,,,,,,,,,,,,,,,,,,,,,,,,,,,,,,,,,,,,,,,,,,,,,,,,,,,,,,,,,,,,,,,,,,,,,,,,,,,,,,,,,,,,,,,,,,,,,,,,,,,,,,,,,,,,,,,,,,,,,,,,,,,,,,,,,,,,,,,,
,,,,,,60c5ae1d153847577f543609,62c53a80270234594f182ae8,2022-07-06_09h33.00.951,Colour_Asymmetry_Pilot,2022.1.3,Win32,59.47778505,62c50e9c1127f2cd403a315f,0,49,49,38,1,fourtwo,,,,,,,,,,,,,,,,,,,,,,,,,,,,,,,,,,,,,,,,,,,,,,,,,,,,,,,,,,,,,,,,,,,,,,,,,,,,,,,,,,,,,,,,,,,,,,,,,,,,,,,,,,,,,,,,,,,,,,,,,,,,,,,,,,,,,,,,,,,,,,,,,,,,,,,,,,,,
,,,,,,60c5ae1d153847577f543609,62c53a80270234594f182ae8,2022-07-06_09h33.00.951,Colour_Asymmetry_Pilot,2022.1.3,Win32,59.47778505,62c50e9c1127f2cd403a315f,0,50,50,144,1,onetwo,,,,,,,,,,,,,,,,,,,,,,,,,,,,,,,,,,,,,,,,,,,,,,,,,,,,,,,,,,,,,,,,,,,,,,,,,,,,,,,,,,,,,,,,,,,,,,,,,,,,,,,,,,,,,,,,,,,,,,,,,,,,,,,,,,,,,,,,,,,,,,,,,,,,,,,,,,,,
,,,,,,60c5ae1d153847577f543609,62c53a80270234594f182ae8,2022-07-06_09h33.00.951,Colour_Asymmetry_Pilot,2022.1.3,Win32,59.47778505,62c50e9c1127f2cd403a315f,0,51,51,100,1,threeone,,,,,,,,,,,,,,,,,,,,,,,,,,,,,,,,,,,,,,,,,,,,,,,,,,,,,,,,,,,,,,,,,,,,,,,,,,,,,,,,,,,,,,,,,,,,,,,,,,,,,,,,,,,,,,,,,,,,,,,,,,,,,,,,,,,,,,,,,,,,,,,,,,,,,,,,,,,,
,,,,,,60c5ae1d153847577f543609,62c53a80270234594f182ae8,2022-07-06_09h33.00.951,Colour_Asymmetry_Pilot,2022.1.3,Win32,59.47778505,62c50e9c1127f2cd403a315f,0,52,52,40,1,onetwo,,,,,,,,,,,,,,,,,,,,,,,,,,,,,,,,,,,,,,,,,,,,,,,,,,,,,,,,,,,,,,,,,,,,,,,,,,,,,,,,,,,,,,,,,,,,,,,,,,,,,,,,,,,,,,,,,,,,,,,,,,,,,,,,,,,,,,,,,,,,,,,,,,,,,,,,,,,,
,,,,,,60c5ae1d153847577f543609,62c53a80270234594f182ae8,2022-07-06_09h33.00.951,Colour_Asymmetry_Pilot,2022.1.3,Win32,59.47778505,62c50e9c1127f2cd403a315f,0,53,53,64,1,onetwo,,,,,,,,,,,,,,,,,,,,,,,,,,,,,,,,,,,,,,,,,,,,,,,,,,,,,,,,,,,,,,,,,,,,,,,,,,,,,,,,,,,,,,,,,,,,,,,,,,,,,,,,,,,,,,,,,,,,,,,,,,,,,,,,,,,,,,,,,,,,,,,,,,,,,,,,,,,,
,,,,,,60c5ae1d153847577f543609,62c53a80270234594f182ae8,2022-07-06_09h33.00.951,Colour_Asymmetry_Pilot,2022.1.3,Win32,59.47778505,62c50e9c1127f2cd403a315f,0,54,54,6,1,fourtwo,,,,,,,,,,,,,,,,,,,,,,,,,,,,,,,,,,,,,,,,,,,,,,,,,,,,,,,,,,,,,,,,,,,,,,,,,,,,,,,,,,,,,,,,,,,,,,,,,,,,,,,,,,,,,,,,,,,,,,,,,,,,,,,,,,,,,,,,,,,,,,,,,,,,,,,,,,,,
,,,,,,60c5ae1d153847577f543609,62c53a80270234594f182ae8,2022-07-06_09h33.00.951,Colour_Asymmetry_Pilot,2022.1.3,Win32,59.47778505,62c50e9c1127f2cd403a315f,0,55,55,116,1,threeone,,,,,,,,,,,,,,,,,,,,,,,,,,,,,,,,,,,,,,,,,,,,,,,,,,,,,,,,,,,,,,,,,,,,,,,,,,,,,,,,,,,,,,,,,,,,,,,,,,,,,,,,,,,,,,,,,,,,,,,,,,,,,,,,,,,,,,,,,,,,,,,,,,,,,,,,,,,,
,,,,,,60c5ae1d153847577f543609,62c53a80270234594f182ae8,2022-07-06_09h33.00.951,Colour_Asymmetry_Pilot,2022.1.3,Win32,59.47778505,62c50e9c1127f2cd403a315f,0,56,56,47,1,fourthree,,,,,,,,,,,,,,,,,,,,,,,,,,,,,,,,,,,,,,,,,,,,,,,,,,,,,,,,,,,,,,,,,,,,,,,,,,,,,,,,,,,,,,,,,,,,,,,,,,,,,,,,,,,,,,,,,,,,,,,,,,,,,,,,,,,,,,,,,,,,,,,,,,,,,,,,,,,,
,,,,,,60c5ae1d153847577f543609,62c53a80270234594f182ae8,2022-07-06_09h33.00.951,Colour_Asymmetry_Pilot,2022.1.3,Win32,59.47778505,62c50e9c1127f2cd403a315f,0,57,57,26,1,twoone,,,,,,,,,,,,,,,,,,,,,,,,,,,,,,,,,,,,,,,,,,,,,,,,,,,,,,,,,,,,,,,,,,,,,,,,,,,,,,,,,,,,,,,,,,,,,,,,,,,,,,,,,,,,,,,,,,,,,,,,,,,,,,,,,,,,,,,,,,,,,,,,,,,,,,,,,,,,
,,,,,,60c5ae1d153847577f543609,62c53a80270234594f182ae8,2022-07-06_09h33.00.951,Colour_Asymmetry_Pilot,2022.1.3,Win32,59.47778505,62c50e9c1127f2cd403a315f,0,58,58,22,1,fourtwo,,,,,,,,,,,,,,,,,,,,,,,,,,,,,,,,,,,,,,,,,,,,,,,,,,,,,,,,,,,,,,,,,,,,,,,,,,,,,,,,,,,,,,,,,,,,,,,,,,,,,,,,,,,,,,,,,,,,,,,,,,,,,,,,,,,,,,,,,,,,,,,,,,,,,,,,,,,,
,,,,,,60c5ae1d153847577f543609,62c53a80270234594f182ae8,2022-07-06_09h33.00.951,Colour_Asymmetry_Pilot,2022.1.3,Win32,59.47778505,62c50e9c1127f2cd403a315f,0,59,59,37,1,threefour,,,,,,,,,,,,,,,,,,,,,,,,,,,,,,,,,,,,,,,,,,,,,,,,,,,,,,,,,,,,,,,,,,,,,,,,,,,,,,,,,,,,,,,,,,,,,,,,,,,,,,,,,,,,,,,,,,,,,,,,,,,,,,,,,,,,,,,,,,,,,,,,,,,,,,,,,,,,
,,,,,,60c5ae1d153847577f543609,62c53a80270234594f182ae8,2022-07-06_09h33.00.951,Colour_Asymmetry_Pilot,2022.1.3,Win32,59.47778505,62c50e9c1127f2cd403a315f,0,60,60,130,1,twoone,,,,,,,,,,,,,,,,,,,,,,,,,,,,,,,,,,,,,,,,,,,,,,,,,,,,,,,,,,,,,,,,,,,,,,,,,,,,,,,,,,,,,,,,,,,,,,,,,,,,,,,,,,,,,,,,,,,,,,,,,,,,,,,,,,,,,,,,,,,,,,,,,,,,,,,,,,,,
,,,,,,60c5ae1d153847577f543609,62c53a80270234594f182ae8,2022-07-06_09h33.00.951,Colour_Asymmetry_Pilot,2022.1.3,Win32,59.47778505,62c50e9c1127f2cd403a315f,0,61,61,74,1,twoone,,,,,,,,,,,,,,,,,,,,,,,,,,,,,,,,,,,,,,,,,,,,,,,,,,,,,,,,,,,,,,,,,,,,,,,,,,,,,,,,,,,,,,,,,,,,,,,,,,,,,,,,,,,,,,,,,,,,,,,,,,,,,,,,,,,,,,,,,,,,,,,,,,,,,,,,,,,,
,,,,,,60c5ae1d153847577f543609,62c53a80270234594f182ae8,2022-07-06_09h33.00.951,Colour_Asymmetry_Pilot,2022.1.3,Win32,59.47778505,62c50e9c1127f2cd403a315f,0,62,62,157,1,threefour,,,,,,,,,,,,,,,,,,,,,,,,,,,,,,,,,,,,,,,,,,,,,,,,,,,,,,,,,,,,,,,,,,,,,,,,,,,,,,,,,,,,,,,,,,,,,,,,,,,,,,,,,,,,,,,,,,,,,,,,,,,,,,,,,,,,,,,,,,,,,,,,,,,,,,,,,,,,
,,,,,,60c5ae1d153847577f543609,62c53a80270234594f182ae8,2022-07-06_09h33.00.951,Colour_Asymmetry_Pilot,2022.1.3,Win32,59.47778505,62c50e9c1127f2cd403a315f,0,63,63,148,1,threeone,,,,,,,,,,,,,,,,,,,,,,,,,,,,,,,,,,,,,,,,,,,,,,,,,,,,,,,,,,,,,,,,,,,,,,,,,,,,,,,,,,,,,,,,,,,,,,,,,,,,,,,,,,,,,,,,,,,,,,,,,,,,,,,,,,,,,,,,,,,,,,,,,,,,,,,,,,,,
,,,,,,60c5ae1d153847577f543609,62c53a80270234594f182ae8,2022-07-06_09h33.00.951,Colour_Asymmetry_Pilot,2022.1.3,Win32,59.47778505,62c50e9c1127f2cd403a315f,0,64,64,33,1,onethree,,,,,,,,,,,,,,,,,,,,,,,,,,,,,,,,,,,,,,,,,,,,,,,,,,,,,,,,,,,,,,,,,,,,,,,,,,,,,,,,,,,,,,,,,,,,,,,,,,,,,,,,,,,,,,,,,,,,,,,,,,,,,,,,,,,,,,,,,,,,,,,,,,,,,,,,,,,,
,,,,,,60c5ae1d153847577f543609,62c53a80270234594f182ae8,2022-07-06_09h33.00.951,Colour_Asymmetry_Pilot,2022.1.3,Win32,59.47778505,62c50e9c1127f2cd403a315f,0,65,65,14,1,fourtwo,,,,,,,,,,,,,,,,,,,,,,,,,,,,,,,,,,,,,,,,,,,,,,,,,,,,,,,,,,,,,,,,,,,,,,,,,,,,,,,,,,,,,,,,,,,,,,,,,,,,,,,,,,,,,,,,,,,,,,,,,,,,,,,,,,,,,,,,,,,,,,,,,,,,,,,,,,,,
,,,,,,60c5ae1d153847577f543609,62c53a80270234594f182ae8,2022-07-06_09h33.00.951,Colour_Asymmetry_Pilot,2022.1.3,Win32,59.47778505,62c50e9c1127f2cd403a315f,0,66,66,82,1,twoone,,,,,,,,,,,,,,,,,,,,,,,,,,,,,,,,,,,,,,,,,,,,,,,,,,,,,,,,,,,,,,,,,,,,,,,,,,,,,,,,,,,,,,,,,,,,,,,,,,,,,,,,,,,,,,,,,,,,,,,,,,,,,,,,,,,,,,,,,,,,,,,,,,,,,,,,,,,,
,,,,,,60c5ae1d153847577f543609,62c53a80270234594f182ae8,2022-07-06_09h33.00.951,Colour_Asymmetry_Pilot,2022.1.3,Win32,59.47778505,62c50e9c1127f2cd403a315f,0,67,67,98,1,twoone,,,,,,,,,,,,,,,,,,,,,,,,,,,,,,,,,,,,,,,,,,,,,,,,,,,,,,,,,,,,,,,,,,,,,,,,,,,,,,,,,,,,,,,,,,,,,,,,,,,,,,,,,,,,,,,,,,,,,,,,,,,,,,,,,,,,,,,,,,,,,,,,,,,,,,,,,,,,
,,,,,,60c5ae1d153847577f543609,62c53a80270234594f182ae8,2022-07-06_09h33.00.951,Colour_Asymmetry_Pilot,2022.1.3,Win32,59.47778505,62c50e9c1127f2cd403a315f,0,68,68,93,1,threefour,,,,,,,,,,,,,,,,,,,,,,,,,,,,,,,,,,,,,,,,,,,,,,,,,,,,,,,,,,,,,,,,,,,,,,,,,,,,,,,,,,,,,,,,,,,,,,,,,,,,,,,,,,,,,,,,,,,,,,,,,,,,,,,,,,,,,,,,,,,,,,,,,,,,,,,,,,,,
,,,,,,60c5ae1d153847577f543609,62c53a80270234594f182ae8,2022-07-06_09h33.00.951,Colour_Asymmetry_Pilot,2022.1.3,Win32,59.47778505,62c50e9c1127f2cd403a315f,0,69,69,122,1,twoone,,,,,,,,,,,,,,,,,,,,,,,,,,,,,,,,,,,,,,,,,,,,,,,,,,,,,,,,,,,,,,,,,,,,,,,,,,,,,,,,,,,,,,,,,,,,,,,,,,,,,,,,,,,,,,,,,,,,,,,,,,,,,,,,,,,,,,,,,,,,,,,,,,,,,,,,,,,,
,,,,,,60c5ae1d153847577f543609,62c53a80270234594f182ae8,2022-07-06_09h33.00.951,Colour_Asymmetry_Pilot,2022.1.3,Win32,59.47778505,62c50e9c1127f2cd403a315f,0,70,70,9,1,onethree,,,,,,,,,,,,,,,,,,,,,,,,,,,,,,,,,,,,,,,,,,,,,,,,,,,,,,,,,,,,,,,,,,,,,,,,,,,,,,,,,,,,,,,,,,,,,,,,,,,,,,,,,,,,,,,,,,,,,,,,,,,,,,,,,,,,,,,,,,,,,,,,,,,,,,,,,,,,
,,,,,,60c5ae1d153847577f543609,62c53a80270234594f182ae8,2022-07-06_09h33.00.951,Colour_Asymmetry_Pilot,2022.1.3,Win32,59.47778505,62c50e9c1127f2cd403a315f,0,71,71,69,1,threefour,,,,,,,,,,,,,,,,,,,,,,,,,,,,,,,,,,,,,,,,,,,,,,,,,,,,,,,,,,,,,,,,,,,,,,,,,,,,,,,,,,,,,,,,,,,,,,,,,,,,,,,,,,,,,,,,,,,,,,,,,,,,,,,,,,,,,,,,,,,,,,,,,,,,,,,,,,,,
,,,,,,60c5ae1d153847577f543609,62c53a80270234594f182ae8,2022-07-06_09h33.00.951,Colour_Asymmetry_Pilot,2022.1.3,Win32,59.47778505,62c50e9c1127f2cd403a315f,0,72,72,87,1,fourthree,,,,,,,,,,,,,,,,,,,,,,,,,,,,,,,,,,,,,,,,,,,,,,,,,,,,,,,,,,,,,,,,,,,,,,,,,,,,,,,,,,,,,,,,,,,,,,,,,,,,,,,,,,,,,,,,,,,,,,,,,,,,,,,,,,,,,,,,,,,,,,,,,,,,,,,,,,,,
,,,,,,60c5ae1d153847577f543609,62c53a80270234594f182ae8,2022-07-06_09h33.00.951,Colour_Asymmetry_Pilot,2022.1.3,Win32,59.47778505,62c50e9c1127f2cd403a315f,0,73,73,79,1,fourthree,,,,,,,,,,,,,,,,,,,,,,,,,,,,,,,,,,,,,,,,,,,,,,,,,,,,,,,,,,,,,,,,,,,,,,,,,,,,,,,,,,,,,,,,,,,,,,,,,,,,,,,,,,,,,,,,,,,,,,,,,,,,,,,,,,,,,,,,,,,,,,,,,,,,,,,,,,,,
,,,,,,60c5ae1d153847577f543609,62c53a80270234594f182ae8,2022-07-06_09h33.00.951,Colour_Asymmetry_Pilot,2022.1.3,Win32,59.47778505,62c50e9c1127f2cd403a315f,0,74,74,7,1,fourthree,,,,,,,,,,,,,,,,,,,,,,,,,,,,,,,,,,,,,,,,,,,,,,,,,,,,,,,,,,,,,,,,,,,,,,,,,,,,,,,,,,,,,,,,,,,,,,,,,,,,,,,,,,,,,,,,,,,,,,,,,,,,,,,,,,,,,,,,,,,,,,,,,,,,,,,,,,,,
,,,,,,60c5ae1d153847577f543609,62c53a80270234594f182ae8,2022-07-06_09h33.00.951,Colour_Asymmetry_Pilot,2022.1.3,Win32,59.47778505,62c50e9c1127f2cd403a315f,0,75,75,150,1,fourtwo,,,,,,,,,,,,,,,,,,,,,,,,,,,,,,,,,,,,,,,,,,,,,,,,,,,,,,,,,,,,,,,,,,,,,,,,,,,,,,,,,,,,,,,,,,,,,,,,,,,,,,,,,,,,,,,,,,,,,,,,,,,,,,,,,,,,,,,,,,,,,,,,,,,,,,,,,,,,
,,,,,,60c5ae1d153847577f543609,62c53a80270234594f182ae8,2022-07-06_09h33.00.951,Colour_Asymmetry_Pilot,2022.1.3,Win32,59.47778505,62c50e9c1127f2cd403a315f,0,76,76,61,1,threefour,,,,,,,,,,,,,,,,,,,,,,,,,,,,,,,,,,,,,,,,,,,,,,,,,,,,,,,,,,,,,,,,,,,,,,,,,,,,,,,,,,,,,,,,,,,,,,,,,,,,,,,,,,,,,,,,,,,,,,,,,,,,,,,,,,,,,,,,,,,,,,,,,,,,,,,,,,,,
,,,,,,60c5ae1d153847577f543609,62c53a80270234594f182ae8,2022-07-06_09h33.00.951,Colour_Asymmetry_Pilot,2022.1.3,Win32,59.47778505,62c50e9c1127f2cd403a315f,0,77,77,85,1,threefour,,,,,,,,,,,,,,,,,,,,,,,,,,,,,,,,,,,,,,,,,,,,,,,,,,,,,,,,,,,,,,,,,,,,,,,,,,,,,,,,,,,,,,,,,,,,,,,,,,,,,,,,,,,,,,,,,,,,,,,,,,,,,,,,,,,,,,,,,,,,,,,,,,,,,,,,,,,,
,,,,,,60c5ae1d153847577f543609,62c53a80270234594f182ae8,2022-07-06_09h33.00.951,Colour_Asymmetry_Pilot,2022.1.3,Win32,59.47778505,62c50e9c1127f2cd403a315f,0,78,78,83,1,twofour,,,,,,,,,,,,,,,,,,,,,,,,,,,,,,,,,,,,,,,,,,,,,,,,,,,,,,,,,,,,,,,,,,,,,,,,,,,,,,,,,,,,,,,,,,,,,,,,,,,,,,,,,,,,,,,,,,,,,,,,,,,,,,,,,,,,,,,,,,,,,,,,,,,,,,,,,,,,
,,,,,,60c5ae1d153847577f543609,62c53a80270234594f182ae8,2022-07-06_09h33.00.951,Colour_Asymmetry_Pilot,2022.1.3,Win32,59.47778505,62c50e9c1127f2cd403a315f,0,79,79,71,1,fourthree,,,,,,,,,,,,,,,,,,,,,,,,,,,,,,,,,,,,,,,,,,,,,,,,,,,,,,,,,,,,,,,,,,,,,,,,,,,,,,,,,,,,,,,,,,,,,,,,,,,,,,,,,,,,,,,,,,,,,,,,,,,,,,,,,,,,,,,,,,,,,,,,,,,,,,,,,,,,
,,,,,,60c5ae1d153847577f543609,62c53a80270234594f182ae8,2022-07-06_09h33.00.951,Colour_Asymmetry_Pilot,2022.1.3,Win32,59.47778505,62c50e9c1127f2cd403a315f,0,80,80,24,1,onetwo,,,,,,,,,,,,,,,,,,,,,,,,,,,,,,,,,,,,,,,,,,,,,,,,,,,,,,,,,,,,,,,,,,,,,,,,,,,,,,,,,,,,,,,,,,,,,,,,,,,,,,,,,,,,,,,,,,,,,,,,,,,,,,,,,,,,,,,,,,,,,,,,,,,,,,,,,,,,
,,,,,,60c5ae1d153847577f543609,62c53a80270234594f182ae8,2022-07-06_09h33.00.951,Colour_Asymmetry_Pilot,2022.1.3,Win32,59.47778505,62c50e9c1127f2cd403a315f,0,81,81,86,1,fourtwo,,,,,,,,,,,,,,,,,,,,,,,,,,,,,,,,,,,,,,,,,,,,,,,,,,,,,,,,,,,,,,,,,,,,,,,,,,,,,,,,,,,,,,,,,,,,,,,,,,,,,,,,,,,,,,,,,,,,,,,,,,,,,,,,,,,,,,,,,,,,,,,,,,,,,,,,,,,,
,,,,,,60c5ae1d153847577f543609,62c53a80270234594f182ae8,2022-07-06_09h33.00.951,Colour_Asymmetry_Pilot,2022.1.3,Win32,59.47778505,62c50e9c1127f2cd403a315f,0,82,82,142,1,fourtwo,,,,,,,,,,,,,,,,,,,,,,,,,,,,,,,,,,,,,,,,,,,,,,,,,,,,,,,,,,,,,,,,,,,,,,,,,,,,,,,,,,,,,,,,,,,,,,,,,,,,,,,,,,,,,,,,,,,,,,,,,,,,,,,,,,,,,,,,,,,,,,,,,,,,,,,,,,,,
,,,,,,60c5ae1d153847577f543609,62c53a80270234594f182ae8,2022-07-06_09h33.00.951,Colour_Asymmetry_Pilot,2022.1.3,Win32,59.47778505,62c50e9c1127f2cd403a315f,0,83,83,30,1,fourtwo,,,,,,,,,,,,,,,,,,,,,,,,,,,,,,,,,,,,,,,,,,,,,,,,,,,,,,,,,,,,,,,,,,,,,,,,,,,,,,,,,,,,,,,,,,,,,,,,,,,,,,,,,,,,,,,,,,,,,,,,,,,,,,,,,,,,,,,,,,,,,,,,,,,,,,,,,,,,
,,,,,,60c5ae1d153847577f543609,62c53a80270234594f182ae8,2022-07-06_09h33.00.951,Colour_Asymmetry_Pilot,2022.1.3,Win32,59.47778505,62c50e9c1127f2cd403a315f,0,84,84,16,1,onetwo,,,,,,,,,,,,,,,,,,,,,,,,,,,,,,,,,,,,,,,,,,,,,,,,,,,,,,,,,,,,,,,,,,,,,,,,,,,,,,,,,,,,,,,,,,,,,,,,,,,,,,,,,,,,,,,,,,,,,,,,,,,,,,,,,,,,,,,,,,,,,,,,,,,,,,,,,,,,
,,,,,,60c5ae1d153847577f543609,62c53a80270234594f182ae8,2022-07-06_09h33.00.951,Colour_Asymmetry_Pilot,2022.1.3,Win32,59.47778505,62c50e9c1127f2cd403a315f,0,85,85,143,1,fourthree,,,,,,,,,,,,,,,,,,,,,,,,,,,,,,,,,,,,,,,,,,,,,,,,,,,,,,,,,,,,,,,,,,,,,,,,,,,,,,,,,,,,,,,,,,,,,,,,,,,,,,,,,,,,,,,,,,,,,,,,,,,,,,,,,,,,,,,,,,,,,,,,,,,,,,,,,,,,
,,,,,,60c5ae1d153847577f543609,62c53a80270234594f182ae8,2022-07-06_09h33.00.951,Colour_Asymmetry_Pilot,2022.1.3,Win32,59.47778505,62c50e9c1127f2cd403a315f,0,86,86,67,1,twofour,,,,,,,,,,,,,,,,,,,,,,,,,,,,,,,,,,,,,,,,,,,,,,,,,,,,,,,,,,,,,,,,,,,,,,,,,,,,,,,,,,,,,,,,,,,,,,,,,,,,,,,,,,,,,,,,,,,,,,,,,,,,,,,,,,,,,,,,,,,,,,,,,,,,,,,,,,,,
,,,,,,60c5ae1d153847577f543609,62c53a80270234594f182ae8,2022-07-06_09h33.00.951,Colour_Asymmetry_Pilot,2022.1.3,Win32,59.47778505,62c50e9c1127f2cd403a315f,0,87,87,58,1,twoone,,,,,,,,,,,,,,,,,,,,,,,,,,,,,,,,,,,,,,,,,,,,,,,,,,,,,,,,,,,,,,,,,,,,,,,,,,,,,,,,,,,,,,,,,,,,,,,,,,,,,,,,,,,,,,,,,,,,,,,,,,,,,,,,,,,,,,,,,,,,,,,,,,,,,,,,,,,,
,,,,,,60c5ae1d153847577f543609,62c53a80270234594f182ae8,2022-07-06_09h33.00.951,Colour_Asymmetry_Pilot,2022.1.3,Win32,59.47778505,62c50e9c1127f2cd403a315f,0,88,88,62,1,fourtwo,,,,,,,,,,,,,,,,,,,,,,,,,,,,,,,,,,,,,,,,,,,,,,,,,,,,,,,,,,,,,,,,,,,,,,,,,,,,,,,,,,,,,,,,,,,,,,,,,,,,,,,,,,,,,,,,,,,,,,,,,,,,,,,,,,,,,,,,,,,,,,,,,,,,,,,,,,,,
,,,,,,60c5ae1d153847577f543609,62c53a80270234594f182ae8,2022-07-06_09h33.00.951,Colour_Asymmetry_Pilot,2022.1.3,Win32,59.47778505,62c50e9c1127f2cd403a315f,0,89,89,159,1,fourthree,,,,,,,,,,,,,,,,,,,,,,,,,,,,,,,,,,,,,,,,,,,,,,,,,,,,,,,,,,,,,,,,,,,,,,,,,,,,,,,,,,,,,,,,,,,,,,,,,,,,,,,,,,,,,,,,,,,,,,,,,,,,,,,,,,,,,,,,,,,,,,,,,,,,,,,,,,,,
,,,,,,60c5ae1d153847577f543609,62c53a80270234594f182ae8,2022-07-06_09h33.00.951,Colour_Asymmetry_Pilot,2022.1.3,Win32,59.47778505,62c50e9c1127f2cd403a315f,0,90,90,152,1,onetwo,,,,,,,,,,,,,,,,,,,,,,,,,,,,,,,,,,,,,,,,,,,,,,,,,,,,,,,,,,,,,,,,,,,,,,,,,,,,,,,,,,,,,,,,,,,,,,,,,,,,,,,,,,,,,,,,,,,,,,,,,,,,,,,,,,,,,,,,,,,,,,,,,,,,,,,,,,,,
,,,,,,60c5ae1d153847577f543609,62c53a80270234594f182ae8,2022-07-06_09h33.00.951,Colour_Asymmetry_Pilot,2022.1.3,Win32,59.47778505,62c50e9c1127f2cd403a315f,0,91,91,126,1,fourtwo,,,,,,,,,,,,,,,,,,,,,,,,,,,,,,,,,,,,,,,,,,,,,,,,,,,,,,,,,,,,,,,,,,,,,,,,,,,,,,,,,,,,,,,,,,,,,,,,,,,,,,,,,,,,,,,,,,,,,,,,,,,,,,,,,,,,,,,,,,,,,,,,,,,,,,,,,,,,
,,,,,,60c5ae1d153847577f543609,62c53a80270234594f182ae8,2022-07-06_09h33.00.951,Colour_Asymmetry_Pilot,2022.1.3,Win32,59.47778505,62c50e9c1127f2cd403a315f,0,92,92,44,1,threeone,,,,,,,,,,,,,,,,,,,,,,,,,,,,,,,,,,,,,,,,,,,,,,,,,,,,,,,,,,,,,,,,,,,,,,,,,,,,,,,,,,,,,,,,,,,,,,,,,,,,,,,,,,,,,,,,,,,,,,,,,,,,,,,,,,,,,,,,,,,,,,,,,,,,,,,,,,,,
,,,,,,60c5ae1d153847577f543609,62c53a80270234594f182ae8,2022-07-06_09h33.00.951,Colour_Asymmetry_Pilot,2022.1.3,Win32,59.47778505,62c50e9c1127f2cd403a315f,0,93,93,94,1,fourtwo,,,,,,,,,,,,,,,,,,,,,,,,,,,,,,,,,,,,,,,,,,,,,,,,,,,,,,,,,,,,,,,,,,,,,,,,,,,,,,,,,,,,,,,,,,,,,,,,,,,,,,,,,,,,,,,,,,,,,,,,,,,,,,,,,,,,,,,,,,,,,,,,,,,,,,,,,,,,
,,,,,,60c5ae1d153847577f543609,62c53a80270234594f182ae8,2022-07-06_09h33.00.951,Colour_Asymmetry_Pilot,2022.1.3,Win32,59.47778505,62c50e9c1127f2cd403a315f,0,94,94,106,1,twoone,,,,,,,,,,,,,,,,,,,,,,,,,,,,,,,,,,,,,,,,,,,,,,,,,,,,,,,,,,,,,,,,,,,,,,,,,,,,,,,,,,,,,,,,,,,,,,,,,,,,,,,,,,,,,,,,,,,,,,,,,,,,,,,,,,,,,,,,,,,,,,,,,,,,,,,,,,,,
,,,,,,60c5ae1d153847577f543609,62c53a80270234594f182ae8,2022-07-06_09h33.00.951,Colour_Asymmetry_Pilot,2022.1.3,Win32,59.47778505,62c50e9c1127f2cd403a315f,0,95,95,108,1,threeone,,,,,,,,,,,,,,,,,,,,,,,,,,,,,,,,,,,,,,,,,,,,,,,,,,,,,,,,,,,,,,,,,,,,,,,,,,,,,,,,,,,,,,,,,,,,,,,,,,,,,,,,,,,,,,,,,,,,,,,,,,,,,,,,,,,,,,,,,,,,,,,,,,,,,,,,,,,,
,,,,,,60c5ae1d153847577f543609,62c53a80270234594f182ae8,2022-07-06_09h33.00.951,Colour_Asymmetry_Pilot,2022.1.3,Win32,59.47778505,62c50e9c1127f2cd403a315f,0,96,96,65,1,onethree,,,,,,,,,,,,,,,,,,,,,,,,,,,,,,,,,,,,,,,,,,,,,,,,,,,,,,,,,,,,,,,,,,,,,,,,,,,,,,,,,,,,,,,,,,,,,,,,,,,,,,,,,,,,,,,,,,,,,,,,,,,,,,,,,,,,,,,,,,,,,,,,,,,,,,,,,,,,
,,,,,,60c5ae1d153847577f543609,62c53a80270234594f182ae8,2022-07-06_09h33.00.951,Colour_Asymmetry_Pilot,2022.1.3,Win32,59.47778505,62c50e9c1127f2cd403a315f,0,97,97,109,1,threefour,,,,,,,,,,,,,,,,,,,,,,,,,,,,,,,,,,,,,,,,,,,,,,,,,,,,,,,,,,,,,,,,,,,,,,,,,,,,,,,,,,,,,,,,,,,,,,,,,,,,,,,,,,,,,,,,,,,,,,,,,,,,,,,,,,,,,,,,,,,,,,,,,,,,,,,,,,,,
,,,,,,60c5ae1d153847577f543609,62c53a80270234594f182ae8,2022-07-06_09h33.00.951,Colour_Asymmetry_Pilot,2022.1.3,Win32,59.47778505,62c50e9c1127f2cd403a315f,0,98,98,127,1,fourthree,,,,,,,,,,,,,,,,,,,,,,,,,,,,,,,,,,,,,,,,,,,,,,,,,,,,,,,,,,,,,,,,,,,,,,,,,,,,,,,,,,,,,,,,,,,,,,,,,,,,,,,,,,,,,,,,,,,,,,,,,,,,,,,,,,,,,,,,,,,,,,,,,,,,,,,,,,,,
,,,,,,60c5ae1d153847577f543609,62c53a80270234594f182ae8,2022-07-06_09h33.00.951,Colour_Asymmetry_Pilot,2022.1.3,Win32,59.47778505,62c50e9c1127f2cd403a315f,0,99,99,136,1,onetwo,,,,,,,,,,,,,,,,,,,,,,,,,,,,,,,,,,,,,,,,,,,,,,,,,,,,,,,,,,,,,,,,,,,,,,,,,,,,,,,,,,,,,,,,,,,,,,,,,,,,,,,,,,,,,,,,,,,,,,,,,,,,,,,,,,,,,,,,,,,,,,,,,,,,,,,,,,,,
,,,,,,60c5ae1d153847577f543609,62c53a80270234594f182ae8,2022-07-06_09h33.00.951,Colour_Asymmetry_Pilot,2022.1.3,Win32,59.47778505,62c50e9c1127f2cd403a315f,0,100,100,111,1,fourthree,,,,,,,,,,,,,,,,,,,,,,,,,,,,,,,,,,,,,,,,,,,,,,,,,,,,,,,,,,,,,,,,,,,,,,,,,,,,,,,,,,,,,,,,,,,,,,,,,,,,,,,,,,,,,,,,,,,,,,,,,,,,,,,,,,,,,,,,,,,,,,,,,,,,,,,,,,,,
,,,,,,60c5ae1d153847577f543609,62c53a80270234594f182ae8,2022-07-06_09h33.00.951,Colour_Asymmetry_Pilot,2022.1.3,Win32,59.47778505,62c50e9c1127f2cd403a315f,0,101,101,0,1,onetwo,,,,,,,,,,,,,,,,,,,,,,,,,,,,,,,,,,,,,,,,,,,,,,,,,,,,,,,,,,,,,,,,,,,,,,,,,,,,,,,,,,,,,,,,,,,,,,,,,,,,,,,,,,,,,,,,,,,,,,,,,,,,,,,,,,,,,,,,,,,,,,,,,,,,,,,,,,,,
,,,,,,60c5ae1d153847577f543609,62c53a80270234594f182ae8,2022-07-06_09h33.00.951,Colour_Asymmetry_Pilot,2022.1.3,Win32,59.47778505,62c50e9c1127f2cd403a315f,0,102,102,81,1,onethree,,,,,,,,,,,,,,,,,,,,,,,,,,,,,,,,,,,,,,,,,,,,,,,,,,,,,,,,,,,,,,,,,,,,,,,,,,,,,,,,,,,,,,,,,,,,,,,,,,,,,,,,,,,,,,,,,,,,,,,,,,,,,,,,,,,,,,,,,,,,,,,,,,,,,,,,,,,,
,,,,,,60c5ae1d153847577f543609,62c53a80270234594f182ae8,2022-07-06_09h33.00.951,Colour_Asymmetry_Pilot,2022.1.3,Win32,59.47778505,62c50e9c1127f2cd403a315f,0,103,103,39,1,fourthree,,,,,,,,,,,,,,,,,,,,,,,,,,,,,,,,,,,,,,,,,,,,,,,,,,,,,,,,,,,,,,,,,,,,,,,,,,,,,,,,,,,,,,,,,,,,,,,,,,,,,,,,,,,,,,,,,,,,,,,,,,,,,,,,,,,,,,,,,,,,,,,,,,,,,,,,,,,,
,,,,,,60c5ae1d153847577f543609,62c53a80270234594f182ae8,2022-07-06_09h33.00.951,Colour_Asymmetry_Pilot,2022.1.3,Win32,59.47778505,62c50e9c1127f2cd403a315f,0,104,104,18,1,twoone,,,,,,,,,,,,,,,,,,,,,,,,,,,,,,,,,,,,,,,,,,,,,,,,,,,,,,,,,,,,,,,,,,,,,,,,,,,,,,,,,,,,,,,,,,,,,,,,,,,,,,,,,,,,,,,,,,,,,,,,,,,,,,,,,,,,,,,,,,,,,,,,,,,,,,,,,,,,
,,,,,,60c5ae1d153847577f543609,62c53a80270234594f182ae8,2022-07-06_09h33.00.951,Colour_Asymmetry_Pilot,2022.1.3,Win32,59.47778505,62c50e9c1127f2cd403a315f,0,105,105,17,1,onethree,,,,,,,,,,,,,,,,,,,,,,,,,,,,,,,,,,,,,,,,,,,,,,,,,,,,,,,,,,,,,,,,,,,,,,,,,,,,,,,,,,,,,,,,,,,,,,,,,,,,,,,,,,,,,,,,,,,,,,,,,,,,,,,,,,,,,,,,,,,,,,,,,,,,,,,,,,,,
,,,,,,60c5ae1d153847577f543609,62c53a80270234594f182ae8,2022-07-06_09h33.00.951,Colour_Asymmetry_Pilot,2022.1.3,Win32,59.47778505,62c50e9c1127f2cd403a315f,0,106,106,25,1,onethree,,,,,,,,,,,,,,,,,,,,,,,,,,,,,,,,,,,,,,,,,,,,,,,,,,,,,,,,,,,,,,,,,,,,,,,,,,,,,,,,,,,,,,,,,,,,,,,,,,,,,,,,,,,,,,,,,,,,,,,,,,,,,,,,,,,,,,,,,,,,,,,,,,,,,,,,,,,,
,,,,,,60c5ae1d153847577f543609,62c53a80270234594f182ae8,2022-07-06_09h33.00.951,Colour_Asymmetry_Pilot,2022.1.3,Win32,59.47778505,62c50e9c1127f2cd403a315f,0,107,107,76,1,threeone,,,,,,,,,,,,,,,,,,,,,,,,,,,,,,,,,,,,,,,,,,,,,,,,,,,,,,,,,,,,,,,,,,,,,,,,,,,,,,,,,,,,,,,,,,,,,,,,,,,,,,,,,,,,,,,,,,,,,,,,,,,,,,,,,,,,,,,,,,,,,,,,,,,,,,,,,,,,
,,,,,,60c5ae1d153847577f543609,62c53a80270234594f182ae8,2022-07-06_09h33.00.951,Colour_Asymmetry_Pilot,2022.1.3,Win32,59.47778505,62c50e9c1127f2cd403a315f,0,108,108,29,1,threefour,,,,,,,,,,,,,,,,,,,,,,,,,,,,,,,,,,,,,,,,,,,,,,,,,,,,,,,,,,,,,,,,,,,,,,,,,,,,,,,,,,,,,,,,,,,,,,,,,,,,,,,,,,,,,,,,,,,,,,,,,,,,,,,,,,,,,,,,,,,,,,,,,,,,,,,,,,,,
,,,,,,60c5ae1d153847577f543609,62c53a80270234594f182ae8,2022-07-06_09h33.00.951,Colour_Asymmetry_Pilot,2022.1.3,Win32,59.47778505,62c50e9c1127f2cd403a315f,0,109,109,3,1,twofour,,,,,,,,,,,,,,,,,,,,,,,,,,,,,,,,,,,,,,,,,,,,,,,,,,,,,,,,,,,,,,,,,,,,,,,,,,,,,,,,,,,,,,,,,,,,,,,,,,,,,,,,,,,,,,,,,,,,,,,,,,,,,,,,,,,,,,,,,,,,,,,,,,,,,,,,,,,,
,,,,,,60c5ae1d153847577f543609,62c53a80270234594f182ae8,2022-07-06_09h33.00.951,Colour_Asymmetry_Pilot,2022.1.3,Win32,59.47778505,62c50e9c1127f2cd403a315f,0,110,110,146,1,twoone,,,,,,,,,,,,,,,,,,,,,,,,,,,,,,,,,,,,,,,,,,,,,,,,,,,,,,,,,,,,,,,,,,,,,,,,,,,,,,,,,,,,,,,,,,,,,,,,,,,,,,,,,,,,,,,,,,,,,,,,,,,,,,,,,,,,,,,,,,,,,,,,,,,,,,,,,,,,
,,,,,,60c5ae1d153847577f543609,62c53a80270234594f182ae8,2022-07-06_09h33.00.951,Colour_Asymmetry_Pilot,2022.1.3,Win32,59.47778505,62c50e9c1127f2cd403a315f,0,111,111,101,1,threefour,,,,,,,,,,,,,,,,,,,,,,,,,,,,,,,,,,,,,,,,,,,,,,,,,,,,,,,,,,,,,,,,,,,,,,,,,,,,,,,,,,,,,,,,,,,,,,,,,,,,,,,,,,,,,,,,,,,,,,,,,,,,,,,,,,,,,,,,,,,,,,,,,,,,,,,,,,,,
,,,,,,60c5ae1d153847577f543609,62c53a80270234594f182ae8,2022-07-06_09h33.00.951,Colour_Asymmetry_Pilot,2022.1.3,Win32,59.47778505,62c50e9c1127f2cd403a315f,0,112,112,96,1,onetwo,,,,,,,,,,,,,,,,,,,,,,,,,,,,,,,,,,,,,,,,,,,,,,,,,,,,,,,,,,,,,,,,,,,,,,,,,,,,,,,,,,,,,,,,,,,,,,,,,,,,,,,,,,,,,,,,,,,,,,,,,,,,,,,,,,,,,,,,,,,,,,,,,,,,,,,,,,,,
,,,,,,60c5ae1d153847577f543609,62c53a80270234594f182ae8,2022-07-06_09h33.00.951,Colour_Asymmetry_Pilot,2022.1.3,Win32,59.47778505,62c50e9c1127f2cd403a315f,0,113,113,155,1,twofour,,,,,,,,,,,,,,,,,,,,,,,,,,,,,,,,,,,,,,,,,,,,,,,,,,,,,,,,,,,,,,,,,,,,,,,,,,,,,,,,,,,,,,,,,,,,,,,,,,,,,,,,,,,,,,,,,,,,,,,,,,,,,,,,,,,,,,,,,,,,,,,,,,,,,,,,,,,,
,,,,,,60c5ae1d153847577f543609,62c53a80270234594f182ae8,2022-07-06_09h33.00.951,Colour_Asymmetry_Pilot,2022.1.3,Win32,59.47778505,62c50e9c1127f2cd403a315f,0,114,114,125,1,threefour,,,,,,,,,,,,,,,,,,,,,,,,,,,,,,,,,,,,,,,,,,,,,,,,,,,,,,,,,,,,,,,,,,,,,,,,,,,,,,,,,,,,,,,,,,,,,,,,,,,,,,,,,,,,,,,,,,,,,,,,,,,,,,,,,,,,,,,,,,,,,,,,,,,,,,,,,,,,
,,,,,,60c5ae1d153847577f543609,62c53a80270234594f182ae8,2022-07-06_09h33.00.951,Colour_Asymmetry_Pilot,2022.1.3,Win32,59.47778505,62c50e9c1127f2cd403a315f,0,115,115,1,1,onethree,,,,,,,,,,,,,,,,,,,,,,,,,,,,,,,,,,,,,,,,,,,,,,,,,,,,,,,,,,,,,,,,,,,,,,,,,,,,,,,,,,,,,,,,,,,,,,,,,,,,,,,,,,,,,,,,,,,,,,,,,,,,,,,,,,,,,,,,,,,,,,,,,,,,,,,,,,,,
,,,,,,60c5ae1d153847577f543609,62c53a80270234594f182ae8,2022-07-06_09h33.00.951,Colour_Asymmetry_Pilot,2022.1.3,Win32,59.47778505,62c50e9c1127f2cd403a315f,0,116,116,102,1,fourtwo,,,,,,,,,,,,,,,,,,,,,,,,,,,,,,,,,,,,,,,,,,,,,,,,,,,,,,,,,,,,,,,,,,,,,,,,,,,,,,,,,,,,,,,,,,,,,,,,,,,,,,,,,,,,,,,,,,,,,,,,,,,,,,,,,,,,,,,,,,,,,,,,,,,,,,,,,,,,
,,,,,,60c5ae1d153847577f543609,62c53a80270234594f182ae8,2022-07-06_09h33.00.951,Colour_Asymmetry_Pilot,2022.1.3,Win32,59.47778505,62c50e9c1127f2cd403a315f,0,117,117,84,1,threeone,,,,,,,,,,,,,,,,,,,,,,,,,,,,,,,,,,,,,,,,,,,,,,,,,,,,,,,,,,,,,,,,,,,,,,,,,,,,,,,,,,,,,,,,,,,,,,,,,,,,,,,,,,,,,,,,,,,,,,,,,,,,,,,,,,,,,,,,,,,,,,,,,,,,,,,,,,,,
,,,,,,60c5ae1d153847577f543609,62c53a80270234594f182ae8,2022-07-06_09h33.00.951,Colour_Asymmetry_Pilot,2022.1.3,Win32,59.47778505,62c50e9c1127f2cd403a315f,0,118,118,75,1,twofour,,,,,,,,,,,,,,,,,,,,,,,,,,,,,,,,,,,,,,,,,,,,,,,,,,,,,,,,,,,,,,,,,,,,,,,,,,,,,,,,,,,,,,,,,,,,,,,,,,,,,,,,,,,,,,,,,,,,,,,,,,,,,,,,,,,,,,,,,,,,,,,,,,,,,,,,,,,,
,,,,,,60c5ae1d153847577f543609,62c53a80270234594f182ae8,2022-07-06_09h33.00.951,Colour_Asymmetry_Pilot,2022.1.3,Win32,59.47778505,62c50e9c1127f2cd403a315f,0,119,119,34,1,twoone,,,,,,,,,,,,,,,,,,,,,,,,,,,,,,,,,,,,,,,,,,,,,,,,,,,,,,,,,,,,,,,,,,,,,,,,,,,,,,,,,,,,,,,,,,,,,,,,,,,,,,,,,,,,,,,,,,,,,,,,,,,,,,,,,,,,,,,,,,,,,,,,,,,,,,,,,,,,
,,,,,,60c5ae1d153847577f543609,62c53a80270234594f182ae8,2022-07-06_09h33.00.951,Colour_Asymmetry_Pilot,2022.1.3,Win32,59.47778505,62c50e9c1127f2cd403a315f,0,120,120,56,1,onetwo,,,,,,,,,,,,,,,,,,,,,,,,,,,,,,,,,,,,,,,,,,,,,,,,,,,,,,,,,,,,,,,,,,,,,,,,,,,,,,,,,,,,,,,,,,,,,,,,,,,,,,,,,,,,,,,,,,,,,,,,,,,,,,,,,,,,,,,,,,,,,,,,,,,,,,,,,,,,
,,,,,,60c5ae1d153847577f543609,62c53a80270234594f182ae8,2022-07-06_09h33.00.951,Colour_Asymmetry_Pilot,2022.1.3,Win32,59.47778505,62c50e9c1127f2cd403a315f,0,121,121,147,1,twofour,,,,,,,,,,,,,,,,,,,,,,,,,,,,,,,,,,,,,,,,,,,,,,,,,,,,,,,,,,,,,,,,,,,,,,,,,,,,,,,,,,,,,,,,,,,,,,,,,,,,,,,,,,,,,,,,,,,,,,,,,,,,,,,,,,,,,,,,,,,,,,,,,,,,,,,,,,,,
,,,,,,60c5ae1d153847577f543609,62c53a80270234594f182ae8,2022-07-06_09h33.00.951,Colour_Asymmetry_Pilot,2022.1.3,Win32,59.47778505,62c50e9c1127f2cd403a315f,0,122,122,49,1,onethree,,,,,,,,,,,,,,,,,,,,,,,,,,,,,,,,,,,,,,,,,,,,,,,,,,,,,,,,,,,,,,,,,,,,,,,,,,,,,,,,,,,,,,,,,,,,,,,,,,,,,,,,,,,,,,,,,,,,,,,,,,,,,,,,,,,,,,,,,,,,,,,,,,,,,,,,,,,,
,,,,,,60c5ae1d153847577f543609,62c53a80270234594f182ae8,2022-07-06_09h33.00.951,Colour_Asymmetry_Pilot,2022.1.3,Win32,59.47778505,62c50e9c1127f2cd403a315f,0,123,123,140,1,threeone,,,,,,,,,,,,,,,,,,,,,,,,,,,,,,,,,,,,,,,,,,,,,,,,,,,,,,,,,,,,,,,,,,,,,,,,,,,,,,,,,,,,,,,,,,,,,,,,,,,,,,,,,,,,,,,,,,,,,,,,,,,,,,,,,,,,,,,,,,,,,,,,,,,,,,,,,,,,
,,,,,,60c5ae1d153847577f543609,62c53a80270234594f182ae8,2022-07-06_09h33.00.951,Colour_Asymmetry_Pilot,2022.1.3,Win32,59.47778505,62c50e9c1127f2cd403a315f,0,124,124,88,1,onetwo,,,,,,,,,,,,,,,,,,,,,,,,,,,,,,,,,,,,,,,,,,,,,,,,,,,,,,,,,,,,,,,,,,,,,,,,,,,,,,,,,,,,,,,,,,,,,,,,,,,,,,,,,,,,,,,,,,,,,,,,,,,,,,,,,,,,,,,,,,,,,,,,,,,,,,,,,,,,
,,,,,,60c5ae1d153847577f543609,62c53a80270234594f182ae8,2022-07-06_09h33.00.951,Colour_Asymmetry_Pilot,2022.1.3,Win32,59.47778505,62c50e9c1127f2cd403a315f,0,125,125,41,1,onethree,,,,,,,,,,,,,,,,,,,,,,,,,,,,,,,,,,,,,,,,,,,,,,,,,,,,,,,,,,,,,,,,,,,,,,,,,,,,,,,,,,,,,,,,,,,,,,,,,,,,,,,,,,,,,,,,,,,,,,,,,,,,,,,,,,,,,,,,,,,,,,,,,,,,,,,,,,,,
,,,,,,60c5ae1d153847577f543609,62c53a80270234594f182ae8,2022-07-06_09h33.00.951,Colour_Asymmetry_Pilot,2022.1.3,Win32,59.47778505,62c50e9c1127f2cd403a315f,0,126,126,95,1,fourthree,,,,,,,,,,,,,,,,,,,,,,,,,,,,,,,,,,,,,,,,,,,,,,,,,,,,,,,,,,,,,,,,,,,,,,,,,,,,,,,,,,,,,,,,,,,,,,,,,,,,,,,,,,,,,,,,,,,,,,,,,,,,,,,,,,,,,,,,,,,,,,,,,,,,,,,,,,,,
,,,,,,60c5ae1d153847577f543609,62c53a80270234594f182ae8,2022-07-06_09h33.00.951,Colour_Asymmetry_Pilot,2022.1.3,Win32,59.47778505,62c50e9c1127f2cd403a315f,0,127,127,73,1,onethree,,,,,,,,,,,,,,,,,,,,,,,,,,,,,,,,,,,,,,,,,,,,,,,,,,,,,,,,,,,,,,,,,,,,,,,,,,,,,,,,,,,,,,,,,,,,,,,,,,,,,,,,,,,,,,,,,,,,,,,,,,,,,,,,,,,,,,,,,,,,,,,,,,,,,,,,,,,,
,,,,,,60c5ae1d153847577f543609,62c53a80270234594f182ae8,2022-07-06_09h33.00.951,Colour_Asymmetry_Pilot,2022.1.3,Win32,59.47778505,62c50e9c1127f2cd403a315f,0,128,128,151,1,fourthree,,,,,,,,,,,,,,,,,,,,,,,,,,,,,,,,,,,,,,,,,,,,,,,,,,,,,,,,,,,,,,,,,,,,,,,,,,,,,,,,,,,,,,,,,,,,,,,,,,,,,,,,,,,,,,,,,,,,,,,,,,,,,,,,,,,,,,,,,,,,,,,,,,,,,,,,,,,,
,,,,,,60c5ae1d153847577f543609,62c53a80270234594f182ae8,2022-07-06_09h33.00.951,Colour_Asymmetry_Pilot,2022.1.3,Win32,59.47778505,62c50e9c1127f2cd403a315f,0,129,129,35,1,twofour,,,,,,,,,,,,,,,,,,,,,,,,,,,,,,,,,,,,,,,,,,,,,,,,,,,,,,,,,,,,,,,,,,,,,,,,,,,,,,,,,,,,,,,,,,,,,,,,,,,,,,,,,,,,,,,,,,,,,,,,,,,,,,,,,,,,,,,,,,,,,,,,,,,,,,,,,,,,
,,,,,,60c5ae1d153847577f543609,62c53a80270234594f182ae8,2022-07-06_09h33.00.951,Colour_Asymmetry_Pilot,2022.1.3,Win32,59.47778505,62c50e9c1127f2cd403a315f,0,130,130,120,1,onetwo,,,,,,,,,,,,,,,,,,,,,,,,,,,,,,,,,,,,,,,,,,,,,,,,,,,,,,,,,,,,,,,,,,,,,,,,,,,,,,,,,,,,,,,,,,,,,,,,,,,,,,,,,,,,,,,,,,,,,,,,,,,,,,,,,,,,,,,,,,,,,,,,,,,,,,,,,,,,
,,,,,,60c5ae1d153847577f543609,62c53a80270234594f182ae8,2022-07-06_09h33.00.951,Colour_Asymmetry_Pilot,2022.1.3,Win32,59.47778505,62c50e9c1127f2cd403a315f,0,131,131,28,1,threeone,,,,,,,,,,,,,,,,,,,,,,,,,,,,,,,,,,,,,,,,,,,,,,,,,,,,,,,,,,,,,,,,,,,,,,,,,,,,,,,,,,,,,,,,,,,,,,,,,,,,,,,,,,,,,,,,,,,,,,,,,,,,,,,,,,,,,,,,,,,,,,,,,,,,,,,,,,,,
,,,,,,60c5ae1d153847577f543609,62c53a80270234594f182ae8,2022-07-06_09h33.00.951,Colour_Asymmetry_Pilot,2022.1.3,Win32,59.47778505,62c50e9c1127f2cd403a315f,0,132,132,118,1,fourtwo,,,,,,,,,,,,,,,,,,,,,,,,,,,,,,,,,,,,,,,,,,,,,,,,,,,,,,,,,,,,,,,,,,,,,,,,,,,,,,,,,,,,,,,,,,,,,,,,,,,,,,,,,,,,,,,,,,,,,,,,,,,,,,,,,,,,,,,,,,,,,,,,,,,,,,,,,,,,
,,,,,,60c5ae1d153847577f543609,62c53a80270234594f182ae8,2022-07-06_09h33.00.951,Colour_Asymmetry_Pilot,2022.1.3,Win32,59.47778505,62c50e9c1127f2cd403a315f,0,133,133,137,1,onethree,,,,,,,,,,,,,,,,,,,,,,,,,,,,,,,,,,,,,,,,,,,,,,,,,,,,,,,,,,,,,,,,,,,,,,,,,,,,,,,,,,,,,,,,,,,,,,,,,,,,,,,,,,,,,,,,,,,,,,,,,,,,,,,,,,,,,,,,,,,,,,,,,,,,,,,,,,,,
,,,,,,60c5ae1d153847577f543609,62c53a80270234594f182ae8,2022-07-06_09h33.00.951,Colour_Asymmetry_Pilot,2022.1.3,Win32,59.47778505,62c50e9c1127f2cd403a315f,0,134,134,112,1,onetwo,,,,,,,,,,,,,,,,,,,,,,,,,,,,,,,,,,,,,,,,,,,,,,,,,,,,,,,,,,,,,,,,,,,,,,,,,,,,,,,,,,,,,,,,,,,,,,,,,,,,,,,,,,,,,,,,,,,,,,,,,,,,,,,,,,,,,,,,,,,,,,,,,,,,,,,,,,,,
,,,,,,60c5ae1d153847577f543609,62c53a80270234594f182ae8,2022-07-06_09h33.00.951,Colour_Asymmetry_Pilot,2022.1.3,Win32,59.47778505,62c50e9c1127f2cd403a315f,0,135,135,4,1,threeone,,,,,,,,,,,,,,,,,,,,,,,,,,,,,,,,,,,,,,,,,,,,,,,,,,,,,,,,,,,,,,,,,,,,,,,,,,,,,,,,,,,,,,,,,,,,,,,,,,,,,,,,,,,,,,,,,,,,,,,,,,,,,,,,,,,,,,,,,,,,,,,,,,,,,,,,,,,,
,,,,,,60c5ae1d153847577f543609,62c53a80270234594f182ae8,2022-07-06_09h33.00.951,Colour_Asymmetry_Pilot,2022.1.3,Win32,59.47778505,62c50e9c1127f2cd403a315f,0,136,136,139,1,twofour,,,,,,,,,,,,,,,,,,,,,,,,,,,,,,,,,,,,,,,,,,,,,,,,,,,,,,,,,,,,,,,,,,,,,,,,,,,,,,,,,,,,,,,,,,,,,,,,,,,,,,,,,,,,,,,,,,,,,,,,,,,,,,,,,,,,,,,,,,,,,,,,,,,,,,,,,,,,
,,,,,,60c5ae1d153847577f543609,62c53a80270234594f182ae8,2022-07-06_09h33.00.951,Colour_Asymmetry_Pilot,2022.1.3,Win32,59.47778505,62c50e9c1127f2cd403a315f,0,137,137,11,1,twofour,,,,,,,,,,,,,,,,,,,,,,,,,,,,,,,,,,,,,,,,,,,,,,,,,,,,,,,,,,,,,,,,,,,,,,,,,,,,,,,,,,,,,,,,,,,,,,,,,,,,,,,,,,,,,,,,,,,,,,,,,,,,,,,,,,,,,,,,,,,,,,,,,,,,,,,,,,,,
,,,,,,60c5ae1d153847577f543609,62c53a80270234594f182ae8,2022-07-06_09h33.00.951,Colour_Asymmetry_Pilot,2022.1.3,Win32,59.47778505,62c50e9c1127f2cd403a315f,0,138,138,133,1,threefour,,,,,,,,,,,,,,,,,,,,,,,,,,,,,,,,,,,,,,,,,,,,,,,,,,,,,,,,,,,,,,,,,,,,,,,,,,,,,,,,,,,,,,,,,,,,,,,,,,,,,,,,,,,,,,,,,,,,,,,,,,,,,,,,,,,,,,,,,,,,,,,,,,,,,,,,,,,,
,,,,,,60c5ae1d153847577f543609,62c53a80270234594f182ae8,2022-07-06_09h33.00.951,Colour_Asymmetry_Pilot,2022.1.3,Win32,59.47778505,62c50e9c1127f2cd403a315f,0,139,139,161,1,onethree,,,,,,,,,,,,,,,,,,,,,,,,,,,,,,,,,,,,,,,,,,,,,,,,,,,,,,,,,,,,,,,,,,,,,,,,,,,,,,,,,,,,,,,,,,,,,,,,,,,,,,,,,,,,,,,,,,,,,,,,,,,,,,,,,,,,,,,,,,,,,,,,,,,,,,,,,,,,
,,,,,,60c5ae1d153847577f543609,62c53a80270234594f182ae8,2022-07-06_09h33.00.951,Colour_Asymmetry_Pilot,2022.1.3,Win32,59.47778505,62c50e9c1127f2cd403a315f,0,140,140,21,1,threefour,,,,,,,,,,,,,,,,,,,,,,,,,,,,,,,,,,,,,,,,,,,,,,,,,,,,,,,,,,,,,,,,,,,,,,,,,,,,,,,,,,,,,,,,,,,,,,,,,,,,,,,,,,,,,,,,,,,,,,,,,,,,,,,,,,,,,,,,,,,,,,,,,,,,,,,,,,,,
,,,,,,60c5ae1d153847577f543609,62c53a80270234594f182ae8,2022-07-06_09h33.00.951,Colour_Asymmetry_Pilot,2022.1.3,Win32,59.47778505,62c50e9c1127f2cd403a315f,0,141,141,31,1,fourthree,,,,,,,,,,,,,,,,,,,,,,,,,,,,,,,,,,,,,,,,,,,,,,,,,,,,,,,,,,,,,,,,,,,,,,,,,,,,,,,,,,,,,,,,,,,,,,,,,,,,,,,,,,,,,,,,,,,,,,,,,,,,,,,,,,,,,,,,,,,,,,,,,,,,,,,,,,,,
,,,,,,60c5ae1d153847577f543609,62c53a80270234594f182ae8,2022-07-06_09h33.00.951,Colour_Asymmetry_Pilot,2022.1.3,Win32,59.47778505,62c50e9c1127f2cd403a315f,0,142,142,156,1,threeone,,,,,,,,,,,,,,,,,,,,,,,,,,,,,,,,,,,,,,,,,,,,,,,,,,,,,,,,,,,,,,,,,,,,,,,,,,,,,,,,,,,,,,,,,,,,,,,,,,,,,,,,,,,,,,,,,,,,,,,,,,,,,,,,,,,,,,,,,,,,,,,,,,,,,,,,,,,,
,,,,,,60c5ae1d153847577f543609,62c53a80270234594f182ae8,2022-07-06_09h33.00.951,Colour_Asymmetry_Pilot,2022.1.3,Win32,59.47778505,62c50e9c1127f2cd403a315f,0,143,143,20,1,threeone,,,,,,,,,,,,,,,,,,,,,,,,,,,,,,,,,,,,,,,,,,,,,,,,,,,,,,,,,,,,,,,,,,,,,,,,,,,,,,,,,,,,,,,,,,,,,,,,,,,,,,,,,,,,,,,,,,,,,,,,,,,,,,,,,,,,,,,,,,,,,,,,,,,,,,,,,,,,
,,,,,,60c5ae1d153847577f543609,62c53a80270234594f182ae8,2022-07-06_09h33.00.951,Colour_Asymmetry_Pilot,2022.1.3,Win32,59.47778505,62c50e9c1127f2cd403a315f,0,144,144,99,1,twofour,,,,,,,,,,,,,,,,,,,,,,,,,,,,,,,,,,,,,,,,,,,,,,,,,,,,,,,,,,,,,,,,,,,,,,,,,,,,,,,,,,,,,,,,,,,,,,,,,,,,,,,,,,,,,,,,,,,,,,,,,,,,,,,,,,,,,,,,,,,,,,,,,,,,,,,,,,,,
,,,,,,60c5ae1d153847577f543609,62c53a80270234594f182ae8,2022-07-06_09h33.00.951,Colour_Asymmetry_Pilot,2022.1.3,Win32,59.47778505,62c50e9c1127f2cd403a315f,0,145,145,66,1,twoone,,,,,,,,,,,,,,,,,,,,,,,,,,,,,,,,,,,,,,,,,,,,,,,,,,,,,,,,,,,,,,,,,,,,,,,,,,,,,,,,,,,,,,,,,,,,,,,,,,,,,,,,,,,,,,,,,,,,,,,,,,,,,,,,,,,,,,,,,,,,,,,,,,,,,,,,,,,,
,,,,,,60c5ae1d153847577f543609,62c53a80270234594f182ae8,2022-07-06_09h33.00.951,Colour_Asymmetry_Pilot,2022.1.3,Win32,59.47778505,62c50e9c1127f2cd403a315f,0,146,146,158,1,fourtwo,,,,,,,,,,,,,,,,,,,,,,,,,,,,,,,,,,,,,,,,,,,,,,,,,,,,,,,,,,,,,,,,,,,,,,,,,,,,,,,,,,,,,,,,,,,,,,,,,,,,,,,,,,,,,,,,,,,,,,,,,,,,,,,,,,,,,,,,,,,,,,,,,,,,,,,,,,,,
,,,,,,60c5ae1d153847577f543609,62c53a80270234594f182ae8,2022-07-06_09h33.00.951,Colour_Asymmetry_Pilot,2022.1.3,Win32,59.47778505,62c50e9c1127f2cd403a315f,0,147,147,63,1,fourthree,,,,,,,,,,,,,,,,,,,,,,,,,,,,,,,,,,,,,,,,,,,,,,,,,,,,,,,,,,,,,,,,,,,,,,,,,,,,,,,,,,,,,,,,,,,,,,,,,,,,,,,,,,,,,,,,,,,,,,,,,,,,,,,,,,,,,,,,,,,,,,,,,,,,,,,,,,,,
,,,,,,60c5ae1d153847577f543609,62c53a80270234594f182ae8,2022-07-06_09h33.00.951,Colour_Asymmetry_Pilot,2022.1.3,Win32,59.47778505,62c50e9c1127f2cd403a315f,0,148,148,78,1,fourtwo,,,,,,,,,,,,,,,,,,,,,,,,,,,,,,,,,,,,,,,,,,,,,,,,,,,,,,,,,,,,,,,,,,,,,,,,,,,,,,,,,,,,,,,,,,,,,,,,,,,,,,,,,,,,,,,,,,,,,,,,,,,,,,,,,,,,,,,,,,,,,,,,,,,,,,,,,,,,
,,,,,,60c5ae1d153847577f543609,62c53a80270234594f182ae8,2022-07-06_09h33.00.951,Colour_Asymmetry_Pilot,2022.1.3,Win32,59.47778505,62c50e9c1127f2cd403a315f,0,149,149,12,1,threeone,,,,,,,,,,,,,,,,,,,,,,,,,,,,,,,,,,,,,,,,,,,,,,,,,,,,,,,,,,,,,,,,,,,,,,,,,,,,,,,,,,,,,,,,,,,,,,,,,,,,,,,,,,,,,,,,,,,,,,,,,,,,,,,,,,,,,,,,,,,,,,,,,,,,,,,,,,,,
,,,,,,60c5ae1d153847577f543609,62c53a80270234594f182ae8,2022-07-06_09h33.00.951,Colour_Asymmetry_Pilot,2022.1.3,Win32,59.47778505,62c50e9c1127f2cd403a315f,0,150,150,80,1,onetwo,,,,,,,,,,,,,,,,,,,,,,,,,,,,,,,,,,,,,,,,,,,,,,,,,,,,,,,,,,,,,,,,,,,,,,,,,,,,,,,,,,,,,,,,,,,,,,,,,,,,,,,,,,,,,,,,,,,,,,,,,,,,,,,,,,,,,,,,,,,,,,,,,,,,,,,,,,,,
,,,,,,60c5ae1d153847577f543609,62c53a80270234594f182ae8,2022-07-06_09h33.00.951,Colour_Asymmetry_Pilot,2022.1.3,Win32,59.47778505,62c50e9c1127f2cd403a315f,0,151,151,5,1,threefour,,,,,,,,,,,,,,,,,,,,,,,,,,,,,,,,,,,,,,,,,,,,,,,,,,,,,,,,,,,,,,,,,,,,,,,,,,,,,,,,,,,,,,,,,,,,,,,,,,,,,,,,,,,,,,,,,,,,,,,,,,,,,,,,,,,,,,,,,,,,,,,,,,,,,,,,,,,,
,,,,,,60c5ae1d153847577f543609,62c53a80270234594f182ae8,2022-07-06_09h33.00.951,Colour_Asymmetry_Pilot,2022.1.3,Win32,59.47778505,62c50e9c1127f2cd403a315f,0,152,152,119,1,fourthree,,,,,,,,,,,,,,,,,,,,,,,,,,,,,,,,,,,,,,,,,,,,,,,,,,,,,,,,,,,,,,,,,,,,,,,,,,,,,,,,,,,,,,,,,,,,,,,,,,,,,,,,,,,,,,,,,,,,,,,,,,,,,,,,,,,,,,,,,,,,,,,,,,,,,,,,,,,,
,,,,,,60c5ae1d153847577f543609,62c53a80270234594f182ae8,2022-07-06_09h33.00.951,Colour_Asymmetry_Pilot,2022.1.3,Win32,59.47778505,62c50e9c1127f2cd403a315f,0,153,153,132,1,threeone,,,,,,,,,,,,,,,,,,,,,,,,,,,,,,,,,,,,,,,,,,,,,,,,,,,,,,,,,,,,,,,,,,,,,,,,,,,,,,,,,,,,,,,,,,,,,,,,,,,,,,,,,,,,,,,,,,,,,,,,,,,,,,,,,,,,,,,,,,,,,,,,,,,,,,,,,,,,
,,,,,,60c5ae1d153847577f543609,62c53a80270234594f182ae8,2022-07-06_09h33.00.951,Colour_Asymmetry_Pilot,2022.1.3,Win32,59.47778505,62c50e9c1127f2cd403a315f,0,154,154,50,1,twoone,,,,,,,,,,,,,,,,,,,,,,,,,,,,,,,,,,,,,,,,,,,,,,,,,,,,,,,,,,,,,,,,,,,,,,,,,,,,,,,,,,,,,,,,,,,,,,,,,,,,,,,,,,,,,,,,,,,,,,,,,,,,,,,,,,,,,,,,,,,,,,,,,,,,,,,,,,,,
,,,,,,60c5ae1d153847577f543609,62c53a80270234594f182ae8,2022-07-06_09h33.00.951,Colour_Asymmetry_Pilot,2022.1.3,Win32,59.47778505,62c50e9c1127f2cd403a315f,0,155,155,13,1,threefour,,,,,,,,,,,,,,,,,,,,,,,,,,,,,,,,,,,,,,,,,,,,,,,,,,,,,,,,,,,,,,,,,,,,,,,,,,,,,,,,,,,,,,,,,,,,,,,,,,,,,,,,,,,,,,,,,,,,,,,,,,,,,,,,,,,,,,,,,,,,,,,,,,,,,,,,,,,,
,,,,,,60c5ae1d153847577f543609,62c53a80270234594f182ae8,2022-07-06_09h33.00.951,Colour_Asymmetry_Pilot,2022.1.3,Win32,59.47778505,62c50e9c1127f2cd403a315f,0,156,156,107,1,twofour,,,,,,,,,,,,,,,,,,,,,,,,,,,,,,,,,,,,,,,,,,,,,,,,,,,,,,,,,,,,,,,,,,,,,,,,,,,,,,,,,,,,,,,,,,,,,,,,,,,,,,,,,,,,,,,,,,,,,,,,,,,,,,,,,,,,,,,,,,,,,,,,,,,,,,,,,,,,
,,,,,,60c5ae1d153847577f543609,62c53a80270234594f182ae8,2022-07-06_09h33.00.951,Colour_Asymmetry_Pilot,2022.1.3,Win32,59.47778505,62c50e9c1127f2cd403a315f,0,157,157,52,1,threeone,,,,,,,,,,,,,,,,,,,,,,,,,,,,,,,,,,,,,,,,,,,,,,,,,,,,,,,,,,,,,,,,,,,,,,,,,,,,,,,,,,,,,,,,,,,,,,,,,,,,,,,,,,,,,,,,,,,,,,,,,,,,,,,,,,,,,,,,,,,,,,,,,,,,,,,,,,,,
,,,,,,60c5ae1d153847577f543609,62c53a80270234594f182ae8,2022-07-06_09h33.00.951,Colour_Asymmetry_Pilot,2022.1.3,Win32,59.47778505,62c50e9c1127f2cd403a315f,0,158,158,72,1,onetwo,,,,,,,,,,,,,,,,,,,,,,,,,,,,,,,,,,,,,,,,,,,,,,,,,,,,,,,,,,,,,,,,,,,,,,,,,,,,,,,,,,,,,,,,,,,,,,,,,,,,,,,,,,,,,,,,,,,,,,,,,,,,,,,,,,,,,,,,,,,,,,,,,,,,,,,,,,,,
,,,,,,60c5ae1d153847577f543609,62c53a80270234594f182ae8,2022-07-06_09h33.00.951,Colour_Asymmetry_Pilot,2022.1.3,Win32,59.47778505,62c50e9c1127f2cd403a315f,0,159,159,131,1,twofour,,,,,,,,,,,,,,,,,,,,,,,,,,,,,,,,,,,,,,,,,,,,,,,,,,,,,,,,,,,,,,,,,,,,,,,,,,,,,,,,,,,,,,,,,,,,,,,,,,,,,,,,,,,,,,,,,,,,,,,,,,,,,,,,,,,,,,,,,,,,,,,,,,,,,,,,,,,,
,,,,,,60c5ae1d153847577f543609,62c53a80270234594f182ae8,2022-07-06_09h33.00.951,Colour_Asymmetry_Pilot,2022.1.3,Win32,59.47778505,62c50e9c1127f2cd403a315f,0,160,160,110,1,fourtwo,,,,,,,,,,,,,,,,,,,,,,,,,,,,,,,,,,,,,,,,,,,,,,,,,,,,,,,,,,,,,,,,,,,,,,,,,,,,,,,,,,,,,,,,,,,,,,,,,,,,,,,,,,,,,,,,,,,,,,,,,,,,,,,,,,,,,,,,,,,,,,,,,,,,,,,,,,,,
,,,,,,60c5ae1d153847577f543609,62c53a80270234594f182ae8,2022-07-06_09h33.00.951,Colour_Asymmetry_Pilot,2022.1.3,Win32,59.47778505,62c50e9c1127f2cd403a315f,0,161,161,115,1,twofour,,,,,,,,,,,,,,,,,,,,,,,,,,,,,,,,,,,,,,,,,,,,,,,,,,,,,,,,,,,,,,,,,,,,,,,,,,,,,,,,,,,,,,,,,,,,,,,,,,,,,,,,,,,,,,,,,,,,,,,,,,,,,,,,,,,,,,,,,,,,,,,,,,,,,,,,,,,,
,,,,,,60c5ae1d153847577f543609,62c53a80270234594f182ae8,2022-07-06_09h33.00.951,Colour_Asymmetry_Pilot,2022.1.3,Win32,59.47778505,62c50e9c1127f2cd403a315f,,,,,,,space,3.7894,space,8.5051,space,30.169,space,6.967,space,1.8491,space,5.1982,"[-0.38039999999999996,-0.4276,-0.1452]",twoone,"[0.7646000000000002,0.07440000000000002,0.2704]",-4,1.6333,-75,136,1,0,0,response7disk_5,-17,11,1,0,0,rectangle_8,-51,99,1,0,0,response7disk_7,0,4,-22,21,1,0,0,rectangle_4,0,0,0,0,1,,,,,,,,,,,,,,,,,,,,,,,,,,,,,,,,,,,,,,,,,,,,,,,,,,,,,,,,,,,,,,,,,,,,,,,,,,,,,,,,,,,,,,,,,,,,,,,,,,,,,,,,,,,,
,,,,,,60c5ae1d153847577f543609,62c53a80270234594f182ae8,2022-07-06_09h33.00.951,Colour_Asymmetry_Pilot,2022.1.3,Win32,59.47778505,62c50e9c1127f2cd403a315f,,,,,,,,,,,,,,,,,,,"[-0.6942,-0.7648,-0.12959999999999994]",fourthree,"[-0.17659999999999998,-0.2864,-0.8354]",-4,0.9998,-69,116,1,0,0,response7disk_5,-25,13,1,0,0,rectangle_8,-25,13,1,0,0,,,4,-25,13,1,0,0,,1,0,1,0,1,,,,,,,,,,,,,,,,,,,,,,,,,,,,,,,,,,,,,,,,,,,,,,,,,,,,,,,,,,,,,,,,,,,,,,,,,,,,,,,,,,,,,,,,,,,,,,,,,,,,,,,,,,,,
,,,,,,60c5ae1d153847577f543609,62c53a80270234594f182ae8,2022-07-06_09h33.00.951,Colour_Asymmetry_Pilot,2022.1.3,Win32,59.47778505,62c50e9c1127f2cd403a315f,,,,,,,,,,,,,,,,,,,"[-0.0040000000000000036,0.02739999999999987,-0.08239999999999992]",fourtwo,"[-0.20799999999999996,-0.655,-0.01980000000000004]",4,4.5836,63,131,1,0,0,response1disk_5,5,16,1,0,0,rectangle_8,5,16,1,0,0,,,4,5,16,1,0,0,,2,0,2,0,1,,,,,,,,,,,,,,,,,,,,,,,,,,,,,,,,,,,,,,,,,,,,,,,,,,,,,,,,,,,,,,,,,,,,,,,,,,,,,,,,,,,,,,,,,,,,,,,,,,,,,,,,,,,,
,,,,,,60c5ae1d153847577f543609,62c53a80270234594f182ae8,2022-07-06_09h33.00.951,Colour_Asymmetry_Pilot,2022.1.3,Win32,59.47778505,62c50e9c1127f2cd403a315f,,,,,,,,,,,,,,,,,,,"[0.7802,-0.23140000000000005,-0.20799999999999996]",onetwo,"[0.9763999999999999,0.8588,-0.05900000000000005]",-4,0.7665,-57,119,1,0,0,response7disk_5,-5,-1,1,0,0,rectangle_8,-5,-1,1,0,0,,,4,-5,-1,1,0,0,,3,0,3,0,1,,,,,,,,,,,,,,,,,,,,,,,,,,,,,,,,,,,,,,,,,,,,,,,,,,,,,,,,,,,,,,,,,,,,,,,,,,,,,,,,,,,,,,,,,,,,,,,,,,,,,,,,,,,,
,,,,,,60c5ae1d153847577f543609,62c53a80270234594f182ae8,2022-07-06_09h33.00.951,Colour_Asymmetry_Pilot,2022.1.3,Win32,59.47778505,62c50e9c1127f2cd403a315f,,,,,,,,,,,,,,,,,,,"[-0.6942,-0.7648,-0.12959999999999994]",threefour,"[0.8274000000000001,-0.5844,-0.9452]",-4,0.8832,-51,122,1,0,0,response7disk_5,-12,1,1,0,0,rectangle_8,-12,1,1,0,0,,,4,-12,1,1,0,0,,4,0,4,0,1,,,,,,,,,,,,,,,,,,,,,,,,,,,,,,,,,,,,,,,,,,,,,,,,,,,,,,,,,,,,,,,,,,,,,,,,,,,,,,,,,,,,,,,,,,,,,,,,,,,,,,,,,,,,
,,,,,,60c5ae1d153847577f543609,62c53a80270234594f182ae8,2022-07-06_09h33.00.951,Colour_Asymmetry_Pilot,2022.1.3,Win32,59.47778505,62c50e9c1127f2cd403a315f,,,,,,,,,,,,,,,,,,,"[0.22340000000000004,-0.9296,-0.7884]",twofour,"[-0.24719999999999998,-0.0354000000000001,0.3175999999999999]",-4,0.7666,-71,136,1,0,0,response7disk_5,-19,19,1,0,0,rectangle_8,-19,19,1,0,0,,,4,-19,19,1,0,0,,5,0,5,0,1,,,,,,,,,,,,,,,,,,,,,,,,,,,,,,,,,,,,,,,,,,,,,,,,,,,,,,,,,,,,,,,,,,,,,,,,,,,,,,,,,,,,,,,,,,,,,,,,,,,,,,,,,,,,
,,,,,,60c5ae1d153847577f543609,62c53a80270234594f182ae8,2022-07-06_09h33.00.951,Colour_Asymmetry_Pilot,2022.1.3,Win32,59.47778505,62c50e9c1127f2cd403a315f,,,,,,,,,,,,,,,,,,,"[0.9842,0.7409999999999999,-0.6628000000000001]",fourthree,"[-0.9766,-0.34920000000000007,0.2156]",-4,0.6164,-53,134,1,0,0,response7disk_5,9,9,1,0,0,rectangle_8,9,9,1,0,0,,,4,9,9,1,0,0,,6,0,6,0,1,,,,,,,,,,,,,,,,,,,,,,,,,,,,,,,,,,,,,,,,,,,,,,,,,,,,,,,,,,,,,,,,,,,,,,,,,,,,,,,,,,,,,,,,,,,,,,,,,,,,,,,,,,,,
,,,,,,60c5ae1d153847577f543609,62c53a80270234594f182ae8,2022-07-06_09h33.00.951,Colour_Asymmetry_Pilot,2022.1.3,Win32,59.47778505,62c50e9c1127f2cd403a315f,,,,,,,,,,,,,,,,,,,,twoone,,4,1.0168,,,,,,,,,,,,,,,,,,,,,,,,,,,,,,,,space,4.0088,"[0.04299999999999993,0.16060000000000008,-0.6628000000000001]","[-0.07459999999999989,0.12139999999999995,-0.9922]",58,117,1,0,0,response1disk,-42,2,1,0,0,rectangle,-42,2,1,0,0,,2,0.0008,0,-42,2,1,0,0,0,0,0,156,1,75,second,,,,,,,,,,,,,,,,,,,,,,,,,,,,,,,,,,,,,,,,,,,,,,,,,,,,,,,,,,,,,,,,,,,,,,,
,,,,,,60c5ae1d153847577f543609,62c53a80270234594f182ae8,2022-07-06_09h33.00.951,Colour_Asymmetry_Pilot,2022.1.3,Win32,59.47778505,62c50e9c1127f2cd403a315f,,,,,,,,,,,,,,,,,,,,twofour,,-4,0.533,,,,,,,,,,,,,,,,,,,,,,,,,,,,,,,,,,"[-0.24719999999999998,0.5213999999999999,-0.12959999999999994]","[0.7018,0.7176,0.6155999999999999]",-79,127,1,0,0,response7disk,-4,-8,1,0,0,rectangle,-4,-8,1,0,0,,2,0.0001,0,-4,-8,1,0,0,0,1,1,121,1,40,second,,,,,,,,,,,,,,,,,,,,,,,,,,,,,,,,,,,,,,,,,,,,,,,,,,,,,,,,,,,,,,,,,,,,,,,
,,,,,,60c5ae1d153847577f543609,62c53a80270234594f182ae8,2022-07-06_09h33.00.951,Colour_Asymmetry_Pilot,2022.1.3,Win32,59.47778505,62c50e9c1127f2cd403a315f,,,,,,,,,,,,,,,,,,,,threefour,,-4,0.4832,,,,,,,,,,,,,,,,,,,,,,,,,,,,,,,,,,"[0.40379999999999994,0.09000000000000008,0.44300000000000006]","[-0.48240000000000005,0.3175999999999999,0.2156]",-86,129,1,0,0,response7disk,-33,-6,1,0,0,rectangle,-33,-6,1,0,0,,3,0.0005,0,-33,-6,1,0,0,0,2,2,27,1,27,first,,,,,,,,,,,,,,,,,,,,,,,,,,,,,,,,,,,,,,,,,,,,,,,,,,,,,,,,,,,,,,,,,,,,,,,
,,,,,,60c5ae1d153847577f543609,62c53a80270234594f182ae8,2022-07-06_09h33.00.951,Colour_Asymmetry_Pilot,2022.1.3,Win32,59.47778505,62c50e9c1127f2cd403a315f,,,,,,,,,,,,,,,,,,,,twofour,,4,0.4832,,,,,,,,,,,,,,,,,,,,,,,,,,,,,,,,,,"[0.11359999999999992,0.6312,0.5213999999999999]","[0.2862,0.7802,0.3568]",63,135,1,0,0,response1disk,-7,-15,1,0,0,rectangle,-7,-15,1,0,0,,3,0.0001,0,-7,-15,1,0,0,0,3,3,13,1,13,first,,,,,,,,,,,,,,,,,,,,,,,,,,,,,,,,,,,,,,,,,,,,,,,,,,,,,,,,,,,,,,,,,,,,,,,
,,,,,,60c5ae1d153847577f543609,62c53a80270234594f182ae8,2022-07-06_09h33.00.951,Colour_Asymmetry_Pilot,2022.1.3,Win32,59.47778505,62c50e9c1127f2cd403a315f,,,,,,,,,,,,,,,,,,,,fourthree,,4,0.7161,,,,,,,,,,,,,,,,,,,,,,,,,,,,,,,,,,"[0.0351999999999999,0.41159999999999997,0.0038000000000000256]","[-0.9138,-0.5296000000000001,-0.5529999999999999]",60,142,1,0,0,response1disk,-18,17,1,0,0,rectangle,-18,17,1,0,0,,3,0.0002,0,-18,17,1,0,0,0,4,4,4,1,4,first,,,,,,,,,,,,,,,,,,,,,,,,,,,,,,,,,,,,,,,,,,,,,,,,,,,,,,,,,,,,,,,,,,,,,,,
,,,,,,60c5ae1d153847577f543609,62c53a80270234594f182ae8,2022-07-06_09h33.00.951,Colour_Asymmetry_Pilot,2022.1.3,Win32,59.47778505,62c50e9c1127f2cd403a315f,,,,,,,,,,,,,,,,,,,,threefour,,-4,0.6498,,,,,,,,,,,,,,,,,,,,,,,,,,,,,,,,,,"[-0.26280000000000003,-0.2158,-0.3256]","[0.23120000000000007,-0.7726,-0.34120000000000006]",-53,122,1,0,0,response7disk,-2,-14,1,0,0,rectangle,-2,-14,1,0,0,,3,0.0001,0,-2,-14,1,0,0,0,5,5,25,1,25,first,,,,,,,,,,,,,,,,,,,,,,,,,,,,,,,,,,,,,,,,,,,,,,,,,,,,,,,,,,,,,,,,,,,,,,,
,,,,,,60c5ae1d153847577f543609,62c53a80270234594f182ae8,2022-07-06_09h33.00.951,Colour_Asymmetry_Pilot,2022.1.3,Win32,59.47778505,62c50e9c1127f2cd403a315f,,,,,,,,,,,,,,,,,,,,fourtwo,,-4,0.5665,,,,,,,,,,,,,,,,,,,,,,,,,,,,,,,,,,"[-0.06680000000000008,-0.45100000000000007,-0.906]","[0.11359999999999992,0.6312,0.5213999999999999]",-51,138,1,0,0,response7disk,-1,12,1,0,0,rectangle,-1,12,1,0,0,,3,0.0001,0,-1,12,1,0,0,0,6,6,78,1,78,first,,,,,,,,,,,,,,,,,,,,,,,,,,,,,,,,,,,,,,,,,,,,,,,,,,,,,,,,,,,,,,,,,,,,,,,
,,,,,,60c5ae1d153847577f543609,62c53a80270234594f182ae8,2022-07-06_09h33.00.951,Colour_Asymmetry_Pilot,2022.1.3,Win32,59.47778505,62c50e9c1127f2cd403a315f,,,,,,,,,,,,,,,,,,,,onethree,,-4,0.5166,,,,,,,,,,,,,,,,,,,,,,,,,,,,,,,,,,"[-0.9688,-0.38039999999999996,-0.41979999999999995]","[0.8274000000000001,-0.5844,-0.9452]",-60,119,1,0,0,response7disk,-3,6,1,0,0,rectangle,-3,6,1,0,0,,2,0.0007,0,-3,6,1,0,0,0,7,7,109,1,28,second,,,,,,,,,,,,,,,,,,,,,,,,,,,,,,,,,,,,,,,,,,,,,,,,,,,,,,,,,,,,,,,,,,,,,,,
,,,,,,60c5ae1d153847577f543609,62c53a80270234594f182ae8,2022-07-06_09h33.00.951,Colour_Asymmetry_Pilot,2022.1.3,Win32,59.47778505,62c50e9c1127f2cd403a315f,,,,,,,,,,,,,,,,,,,,fourthree,,-4,0.4998,,,,,,,,,,,,,,,,,,,,,,,,,,,,,,,,,,"[-0.8118,-0.8198,-0.5452]","[0.7176,-0.906,-0.6864]",-41,130,1,0,0,response7disk,14,8,1,0,0,rectangle,77,-56,1,0,0,2,2,5.9506,1,22,-6,1,0,0,0,8,8,97,1,16,second,response3disk_3,rectangle,,,,,,,,,,,,,,,,,,,,,,,,,,,,,,,,,,,,,,,,,,,,,,,,,,,,,,,,,,,,,,,,,,,,,
,,,,,,60c5ae1d153847577f543609,62c53a80270234594f182ae8,2022-07-06_09h33.00.951,Colour_Asymmetry_Pilot,2022.1.3,Win32,59.47778505,62c50e9c1127f2cd403a315f,,,,,,,,,,,,,,,,,,,,onethree,,-4,0.7499,,,,,,,,,,,,,,,,,,,,,,,,,,,,,,,,,,"[-0.5922000000000001,-0.7492000000000001,-0.5296000000000001]","[-0.09019999999999995,0.44300000000000006,0.5371999999999999]",-62,140,1,0,0,response7disk,-8,8,1,0,0,rectangle,-8,8,1,0,0,2,1,0.0007,0,-8,8,1,0,0,0,9,9,117,1,36,second,,,,,,,,,,,,,,,,,,,,,,,,,,,,,,,,,,,,,,,,,,,,,,,,,,,,,,,,,,,,,,,,,,,,,,,
,,,,,,60c5ae1d153847577f543609,62c53a80270234594f182ae8,2022-07-06_09h33.00.951,Colour_Asymmetry_Pilot,2022.1.3,Win32,59.47778505,62c50e9c1127f2cd403a315f,,,,,,,,,,,,,,,,,,,,twoone,,4,0.4666,,,,,,,,,,,,,,,,,,,,,,,,,,,,,,,,,,"[0.04299999999999993,0.16060000000000008,-0.6628000000000001]","[0.34099999999999997,0.5841999999999998,-0.9844]",66,145,1,0,0,response1disk,-18,11,1,0,0,rectangle,-18,11,1,0,0,2,1,0.0002,0,-18,11,1,0,0,0,10,10,79,1,79,first,,,,,,,,,,,,,,,,,,,,,,,,,,,,,,,,,,,,,,,,,,,,,,,,,,,,,,,,,,,,,,,,,,,,,,,
,,,,,,60c5ae1d153847577f543609,62c53a80270234594f182ae8,2022-07-06_09h33.00.951,Colour_Asymmetry_Pilot,2022.1.3,Win32,59.47778505,62c50e9c1127f2cd403a315f,,,,,,,,,,,,,,,,,,,,threeone,,-4,0.4333,,,,,,,,,,,,,,,,,,,,,,,,,,,,,,,,,,"[0.37240000000000006,-0.050999999999999934,-0.5216]","[-0.4982,-0.2942,-0.0354000000000001]",-58,127,1,0,0,response7disk,1,-11,1,0,0,rectangle,1,-11,1,0,0,2,1,1E-04,0,1,-11,1,0,0,0,11,11,125,1,44,second,,,,,,,,,,,,,,,,,,,,,,,,,,,,,,,,,,,,,,,,,,,,,,,,,,,,,,,,,,,,,,,,,,,,,,,
,,,,,,60c5ae1d153847577f543609,62c53a80270234594f182ae8,2022-07-06_09h33.00.951,Colour_Asymmetry_Pilot,2022.1.3,Win32,59.47778505,62c50e9c1127f2cd403a315f,,,,,,,,,,,,,,,,,,,,fourtwo,,4,0.6167,,,,,,,,,,,,,,,,,,,,,,,,,,,,,,,,,,"[0.2862,0.7802,0.3568]","[0.4196,0.4665999999999999,0.3568]",71,138,1,0,0,response1disk,7,13,1,0,0,rectangle,7,13,1,0,0,2,2,0.0005,0,7,13,1,0,0,0,12,12,141,1,60,second,,,,,,,,,,,,,,,,,,,,,,,,,,,,,,,,,,,,,,,,,,,,,,,,,,,,,,,,,,,,,,,,,,,,,,,
,,,,,,60c5ae1d153847577f543609,62c53a80270234594f182ae8,2022-07-06_09h33.00.951,Colour_Asymmetry_Pilot,2022.1.3,Win32,59.47778505,62c50e9c1127f2cd403a315f,,,,,,,,,,,,,,,,,,,,onetwo,,-4,0.4329,,,,,,,,,,,,,,,,,,,,,,,,,,,,,,,,,,"[0.0351999999999999,0.41159999999999997,0.0038000000000000256]","[-0.4746,-0.0354000000000001,0.5449999999999999]",-60,138,1,0,0,response7disk,-28,-6,1,0,0,rectangle,-28,-6,1,0,0,2,1,0.0007,0,-28,-6,1,0,0,0,13,13,69,1,69,first,,,,,,,,,,,,,,,,,,,,,,,,,,,,,,,,,,,,,,,,,,,,,,,,,,,,,,,,,,,,,,,,,,,,,,,
,,,,,,60c5ae1d153847577f543609,62c53a80270234594f182ae8,2022-07-06_09h33.00.951,Colour_Asymmetry_Pilot,2022.1.3,Win32,59.47778505,62c50e9c1127f2cd403a315f,,,,,,,,,,,,,,,,,,,,onethree,,-4,0.45,,,,,,,,,,,,,,,,,,,,,,,,,,,,,,,,,,"[-0.45899999999999996,-0.3256,-0.9374]","[-0.9296,-0.12959999999999994,-0.043199999999999905]",-62,129,1,0,0,response7disk,-9,11,1,0,0,rectangle,-9,11,1,0,0,2,1,0,0,-9,11,1,0,0,0,14,14,88,1,7,second,,,,,,,,,,,,,,,,,,,,,,,,,,,,,,,,,,,,,,,,,,,,,,,,,,,,,,,,,,,,,,,,,,,,,,,
,,,,,,60c5ae1d153847577f543609,62c53a80270234594f182ae8,2022-07-06_09h33.00.951,Colour_Asymmetry_Pilot,2022.1.3,Win32,59.47778505,62c50e9c1127f2cd403a315f,,,,,,,,,,,,,,,,,,,,onethree,,-4,0.4167,,,,,,,,,,,,,,,,,,,,,,,,,,,,,,,,,,"[0.7176,-0.906,-0.6864]","[-0.8118,-0.8198,-0.5452]",-46,132,1,0,0,response7disk,-12,9,1,0,0,rectangle,-12,9,1,0,0,2,2,0.0007,0,-12,9,1,0,0,0,15,15,19,1,19,first,,,,,,,,,,,,,,,,,,,,,,,,,,,,,,,,,,,,,,,,,,,,,,,,,,,,,,,,,,,,,,,,,,,,,,,
,,,,,,60c5ae1d153847577f543609,62c53a80270234594f182ae8,2022-07-06_09h33.00.951,Colour_Asymmetry_Pilot,2022.1.3,Win32,59.47778505,62c50e9c1127f2cd403a315f,,,,,,,,,,,,,,,,,,,,threefour,,-4,1.4003,,,,,,,,,,,,,,,,,,,,,,,,,,,,,,,,,,"[0.9686000000000001,0.3802000000000001,0.19999999999999996]","[0.3568,-0.20799999999999996,-0.9844]",-32,127,1,0,0,response7disk,-15,16,1,0,0,rectangle,-15,16,1,0,0,2,1,0.0006,0,-15,16,1,0,0,0,16,16,62,1,62,first,,,,,,,,,,,,,,,,,,,,,,,,,,,,,,,,,,,,,,,,,,,,,,,,,,,,,,,,,,,,,,,,,,,,,,,
,,,,,,60c5ae1d153847577f543609,62c53a80270234594f182ae8,2022-07-06_09h33.00.951,Colour_Asymmetry_Pilot,2022.1.3,Win32,59.47778505,62c50e9c1127f2cd403a315f,,,,,,,,,,,,,,,,,,,,twoone,,-4,0.3835,,,,,,,,,,,,,,,,,,,,,,,,,,,,,,,,,,"[-0.8198,-0.5138,-0.7492000000000001]","[0.23120000000000007,-0.7726,-0.34120000000000006]",-54,129,1,0,0,response7disk,-18,0,1,0,0,rectangle,-18,0,1,0,0,2,2,0.0007,0,-18,0,1,0,0,0,17,17,12,1,12,first,,,,,,,,,,,,,,,,,,,,,,,,,,,,,,,,,,,,,,,,,,,,,,,,,,,,,,,,,,,,,,,,,,,,,,,
