trials.thisRepN,trials.thisTrialN,trials.thisN,trials.thisIndex,trials.ran,Colourcodes,participant,session,date,expName,psychopyVersion,OS,frameRate,study_id,trials_4.thisRepN,trials_4.thisTrialN,trials_4.thisN,trials_4.thisIndex,trials_4.ran,StimulusPos,key_resp.keys,key_resp.rt,key_resp_2.keys,key_resp_2.rt,key_resp_15.keys,key_resp_15.rt,key_resp_17.keys,key_resp_17.rt,key_resp_9.keys,key_resp_9.rt,key_resp_10.keys,key_resp_10.rt,Circle1_col,Ecc,Circle2_col,similarity,response_time,mouse_5.x,mouse_5.y,mouse_5.leftButton,mouse_5.midButton,mouse_5.rightButton,mouse_5.clicked_name,mouse_10.x,mouse_10.y,mouse_10.leftButton,mouse_10.midButton,mouse_10.rightButton,mouse_10.clicked_name,mouse_7.x,mouse_7.y,mouse_7.leftButton,mouse_7.midButton,mouse_7.rightButton,catchnumberprac,mouse_6.x,mouse_6.y,mouse_6.leftButton,mouse_6.midButton,mouse_6.rightButton,duringprac.thisRepN,duringprac.thisTrialN,duringprac.thisN,duringprac.thisIndex,duringprac.ran,mouse_7.clicked_name,catchprac,mouse_6.clicked_name,key_resp_22.keys,key_resp_22.rt,Circle1_colour,Circle2_colour,mouse.x,mouse.y,mouse.leftButton,mouse.midButton,mouse.rightButton,mouse.clicked_name,mouse_2.x,mouse_2.y,mouse_2.leftButton,mouse_2.midButton,mouse_2.rightButton,mouse_2.clicked_name,mouse_3.x,mouse_3.y,mouse_3.leftButton,mouse_3.midButton,mouse_3.rightButton,catchresponse,catchnumber,response_time_catch,Catch,mouse_11.x,mouse_11.y,mouse_11.leftButton,mouse_11.midButton,mouse_11.rightButton,trials_2.thisRepN,trials_2.thisTrialN,trials_2.thisN,trials_2.thisIndex,trials_2.ran,Colourpair,Temporder,mouse_3.clicked_name,mouse_11.clicked_name,trials_3.thisRepN,trials_3.thisTrialN,trials_3.thisN,trials_3.thisIndex,trials_3.ran,key_resp_instr_Ishi.keys,key_resp_instr_Ishi.rt,Ishi_trial_keyresp.keys,Ishi_textbox.text,Ishi_mouse.x,Ishi_mouse.y,Ishi_mouse.leftButton,Ishi_mouse.midButton,Ishi_mouse.rightButton,Ishi_mouse.clicked_name,Ishi_loop.thisRepN,Ishi_loop.thisTrialN,Ishi_loop.thisN,Ishi_loop.thisIndex,Ishi_loop.ran,imageaddress,textbox.text,mouse_4.x,mouse_4.y,mouse_4.leftButton,mouse_4.midButton,mouse_4.rightButton,mouse_4.clicked_name,textbox_2.text,mouse_8.x,mouse_8.y,mouse_8.leftButton,mouse_8.midButton,mouse_8.rightButton,mouse_8.clicked_name,textbox_3.text,mouse_9.x,mouse_9.y,mouse_9.leftButton,mouse_9.midButton,mouse_9.rightButton,mouse_9.clicked_name,textbox_4.text,mouse_12.x,mouse_12.y,mouse_12.leftButton,mouse_12.midButton,mouse_12.rightButton,mouse_12.clicked_name,textbox_5.text,mouse_13.x,mouse_13.y,mouse_13.leftButton,mouse_13.midButton,mouse_13.rightButton,mouse_13.clicked_name,textbox_6.text,mouse_14.x,mouse_14.y,mouse_14.leftButton,mouse_14.midButton,mouse_14.rightButton,mouse_14.clicked_name,textbox_7.text,mouse_15.x,mouse_15.y,mouse_15.leftButton,mouse_15.midButton,mouse_15.rightButton,mouse_15.clicked_name
0,0,0,32,1,,5c8f70a02675ca0001daf60a,62c538fd7e955d92c6b91f27,2022-07-06_09h26.27.403,Colour_Asymmetry_Pilot,2022.1.3,Win32,59.94844434,62c50e9c1127f2cd403a315f,,,,,,,,,,,,,,,,,,,,,,,,,,,,,,,,,,,,,,,,,,,,,,,,,,,,,,,,,,,,,,,,,,,,,,,,,,,,,,,,,,,,,,,,,,,,,,,,,,,,,,,,,,,,,,,,,,,,,,,,,,,,,,,,,,,,,,,,,,,,,,,,,,,,,,,,,,,,,,,,,,,
0,1,1,41,1,,5c8f70a02675ca0001daf60a,62c538fd7e955d92c6b91f27,2022-07-06_09h26.27.403,Colour_Asymmetry_Pilot,2022.1.3,Win32,59.94844434,62c50e9c1127f2cd403a315f,,,,,,,,,,,,,,,,,,,,,,,,,,,,,,,,,,,,,,,,,,,,,,,,,,,,,,,,,,,,,,,,,,,,,,,,,,,,,,,,,,,,,,,,,,,,,,,,,,,,,,,,,,,,,,,,,,,,,,,,,,,,,,,,,,,,,,,,,,,,,,,,,,,,,,,,,,,,,,,,,,,
0,2,2,85,1,,5c8f70a02675ca0001daf60a,62c538fd7e955d92c6b91f27,2022-07-06_09h26.27.403,Colour_Asymmetry_Pilot,2022.1.3,Win32,59.94844434,62c50e9c1127f2cd403a315f,,,,,,,,,,,,,,,,,,,,,,,,,,,,,,,,,,,,,,,,,,,,,,,,,,,,,,,,,,,,,,,,,,,,,,,,,,,,,,,,,,,,,,,,,,,,,,,,,,,,,,,,,,,,,,,,,,,,,,,,,,,,,,,,,,,,,,,,,,,,,,,,,,,,,,,,,,,,,,,,,,,
0,3,3,8,1,,5c8f70a02675ca0001daf60a,62c538fd7e955d92c6b91f27,2022-07-06_09h26.27.403,Colour_Asymmetry_Pilot,2022.1.3,Win32,59.94844434,62c50e9c1127f2cd403a315f,,,,,,,,,,,,,,,,,,,,,,,,,,,,,,,,,,,,,,,,,,,,,,,,,,,,,,,,,,,,,,,,,,,,,,,,,,,,,,,,,,,,,,,,,,,,,,,,,,,,,,,,,,,,,,,,,,,,,,,,,,,,,,,,,,,,,,,,,,,,,,,,,,,,,,,,,,,,,,,,,,,
0,4,4,69,1,,5c8f70a02675ca0001daf60a,62c538fd7e955d92c6b91f27,2022-07-06_09h26.27.403,Colour_Asymmetry_Pilot,2022.1.3,Win32,59.94844434,62c50e9c1127f2cd403a315f,,,,,,,,,,,,,,,,,,,,,,,,,,,,,,,,,,,,,,,,,,,,,,,,,,,,,,,,,,,,,,,,,,,,,,,,,,,,,,,,,,,,,,,,,,,,,,,,,,,,,,,,,,,,,,,,,,,,,,,,,,,,,,,,,,,,,,,,,,,,,,,,,,,,,,,,,,,,,,,,,,,
0,5,5,92,1,,5c8f70a02675ca0001daf60a,62c538fd7e955d92c6b91f27,2022-07-06_09h26.27.403,Colour_Asymmetry_Pilot,2022.1.3,Win32,59.94844434,62c50e9c1127f2cd403a315f,,,,,,,,,,,,,,,,,,,,,,,,,,,,,,,,,,,,,,,,,,,,,,,,,,,,,,,,,,,,,,,,,,,,,,,,,,,,,,,,,,,,,,,,,,,,,,,,,,,,,,,,,,,,,,,,,,,,,,,,,,,,,,,,,,,,,,,,,,,,,,,,,,,,,,,,,,,,,,,,,,,
0,6,6,38,1,,5c8f70a02675ca0001daf60a,62c538fd7e955d92c6b91f27,2022-07-06_09h26.27.403,Colour_Asymmetry_Pilot,2022.1.3,Win32,59.94844434,62c50e9c1127f2cd403a315f,,,,,,,,,,,,,,,,,,,,,,,,,,,,,,,,,,,,,,,,,,,,,,,,,,,,,,,,,,,,,,,,,,,,,,,,,,,,,,,,,,,,,,,,,,,,,,,,,,,,,,,,,,,,,,,,,,,,,,,,,,,,,,,,,,,,,,,,,,,,,,,,,,,,,,,,,,,,,,,,,,,
0,7,7,26,1,,5c8f70a02675ca0001daf60a,62c538fd7e955d92c6b91f27,2022-07-06_09h26.27.403,Colour_Asymmetry_Pilot,2022.1.3,Win32,59.94844434,62c50e9c1127f2cd403a315f,,,,,,,,,,,,,,,,,,,,,,,,,,,,,,,,,,,,,,,,,,,,,,,,,,,,,,,,,,,,,,,,,,,,,,,,,,,,,,,,,,,,,,,,,,,,,,,,,,,,,,,,,,,,,,,,,,,,,,,,,,,,,,,,,,,,,,,,,,,,,,,,,,,,,,,,,,,,,,,,,,,
0,8,8,52,1,,5c8f70a02675ca0001daf60a,62c538fd7e955d92c6b91f27,2022-07-06_09h26.27.403,Colour_Asymmetry_Pilot,2022.1.3,Win32,59.94844434,62c50e9c1127f2cd403a315f,,,,,,,,,,,,,,,,,,,,,,,,,,,,,,,,,,,,,,,,,,,,,,,,,,,,,,,,,,,,,,,,,,,,,,,,,,,,,,,,,,,,,,,,,,,,,,,,,,,,,,,,,,,,,,,,,,,,,,,,,,,,,,,,,,,,,,,,,,,,,,,,,,,,,,,,,,,,,,,,,,,
0,9,9,28,1,,5c8f70a02675ca0001daf60a,62c538fd7e955d92c6b91f27,2022-07-06_09h26.27.403,Colour_Asymmetry_Pilot,2022.1.3,Win32,59.94844434,62c50e9c1127f2cd403a315f,,,,,,,,,,,,,,,,,,,,,,,,,,,,,,,,,,,,,,,,,,,,,,,,,,,,,,,,,,,,,,,,,,,,,,,,,,,,,,,,,,,,,,,,,,,,,,,,,,,,,,,,,,,,,,,,,,,,,,,,,,,,,,,,,,,,,,,,,,,,,,,,,,,,,,,,,,,,,,,,,,,
0,10,10,51,1,,5c8f70a02675ca0001daf60a,62c538fd7e955d92c6b91f27,2022-07-06_09h26.27.403,Colour_Asymmetry_Pilot,2022.1.3,Win32,59.94844434,62c50e9c1127f2cd403a315f,,,,,,,,,,,,,,,,,,,,,,,,,,,,,,,,,,,,,,,,,,,,,,,,,,,,,,,,,,,,,,,,,,,,,,,,,,,,,,,,,,,,,,,,,,,,,,,,,,,,,,,,,,,,,,,,,,,,,,,,,,,,,,,,,,,,,,,,,,,,,,,,,,,,,,,,,,,,,,,,,,,
0,11,11,54,1,,5c8f70a02675ca0001daf60a,62c538fd7e955d92c6b91f27,2022-07-06_09h26.27.403,Colour_Asymmetry_Pilot,2022.1.3,Win32,59.94844434,62c50e9c1127f2cd403a315f,,,,,,,,,,,,,,,,,,,,,,,,,,,,,,,,,,,,,,,,,,,,,,,,,,,,,,,,,,,,,,,,,,,,,,,,,,,,,,,,,,,,,,,,,,,,,,,,,,,,,,,,,,,,,,,,,,,,,,,,,,,,,,,,,,,,,,,,,,,,,,,,,,,,,,,,,,,,,,,,,,,
0,12,12,73,1,,5c8f70a02675ca0001daf60a,62c538fd7e955d92c6b91f27,2022-07-06_09h26.27.403,Colour_Asymmetry_Pilot,2022.1.3,Win32,59.94844434,62c50e9c1127f2cd403a315f,,,,,,,,,,,,,,,,,,,,,,,,,,,,,,,,,,,,,,,,,,,,,,,,,,,,,,,,,,,,,,,,,,,,,,,,,,,,,,,,,,,,,,,,,,,,,,,,,,,,,,,,,,,,,,,,,,,,,,,,,,,,,,,,,,,,,,,,,,,,,,,,,,,,,,,,,,,,,,,,,,,
0,13,13,79,1,,5c8f70a02675ca0001daf60a,62c538fd7e955d92c6b91f27,2022-07-06_09h26.27.403,Colour_Asymmetry_Pilot,2022.1.3,Win32,59.94844434,62c50e9c1127f2cd403a315f,,,,,,,,,,,,,,,,,,,,,,,,,,,,,,,,,,,,,,,,,,,,,,,,,,,,,,,,,,,,,,,,,,,,,,,,,,,,,,,,,,,,,,,,,,,,,,,,,,,,,,,,,,,,,,,,,,,,,,,,,,,,,,,,,,,,,,,,,,,,,,,,,,,,,,,,,,,,,,,,,,,
0,14,14,18,1,,5c8f70a02675ca0001daf60a,62c538fd7e955d92c6b91f27,2022-07-06_09h26.27.403,Colour_Asymmetry_Pilot,2022.1.3,Win32,59.94844434,62c50e9c1127f2cd403a315f,,,,,,,,,,,,,,,,,,,,,,,,,,,,,,,,,,,,,,,,,,,,,,,,,,,,,,,,,,,,,,,,,,,,,,,,,,,,,,,,,,,,,,,,,,,,,,,,,,,,,,,,,,,,,,,,,,,,,,,,,,,,,,,,,,,,,,,,,,,,,,,,,,,,,,,,,,,,,,,,,,,
0,15,15,82,1,,5c8f70a02675ca0001daf60a,62c538fd7e955d92c6b91f27,2022-07-06_09h26.27.403,Colour_Asymmetry_Pilot,2022.1.3,Win32,59.94844434,62c50e9c1127f2cd403a315f,,,,,,,,,,,,,,,,,,,,,,,,,,,,,,,,,,,,,,,,,,,,,,,,,,,,,,,,,,,,,,,,,,,,,,,,,,,,,,,,,,,,,,,,,,,,,,,,,,,,,,,,,,,,,,,,,,,,,,,,,,,,,,,,,,,,,,,,,,,,,,,,,,,,,,,,,,,,,,,,,,,
0,16,16,76,1,,5c8f70a02675ca0001daf60a,62c538fd7e955d92c6b91f27,2022-07-06_09h26.27.403,Colour_Asymmetry_Pilot,2022.1.3,Win32,59.94844434,62c50e9c1127f2cd403a315f,,,,,,,,,,,,,,,,,,,,,,,,,,,,,,,,,,,,,,,,,,,,,,,,,,,,,,,,,,,,,,,,,,,,,,,,,,,,,,,,,,,,,,,,,,,,,,,,,,,,,,,,,,,,,,,,,,,,,,,,,,,,,,,,,,,,,,,,,,,,,,,,,,,,,,,,,,,,,,,,,,,
0,17,17,5,1,,5c8f70a02675ca0001daf60a,62c538fd7e955d92c6b91f27,2022-07-06_09h26.27.403,Colour_Asymmetry_Pilot,2022.1.3,Win32,59.94844434,62c50e9c1127f2cd403a315f,,,,,,,,,,,,,,,,,,,,,,,,,,,,,,,,,,,,,,,,,,,,,,,,,,,,,,,,,,,,,,,,,,,,,,,,,,,,,,,,,,,,,,,,,,,,,,,,,,,,,,,,,,,,,,,,,,,,,,,,,,,,,,,,,,,,,,,,,,,,,,,,,,,,,,,,,,,,,,,,,,,
0,18,18,9,1,,5c8f70a02675ca0001daf60a,62c538fd7e955d92c6b91f27,2022-07-06_09h26.27.403,Colour_Asymmetry_Pilot,2022.1.3,Win32,59.94844434,62c50e9c1127f2cd403a315f,,,,,,,,,,,,,,,,,,,,,,,,,,,,,,,,,,,,,,,,,,,,,,,,,,,,,,,,,,,,,,,,,,,,,,,,,,,,,,,,,,,,,,,,,,,,,,,,,,,,,,,,,,,,,,,,,,,,,,,,,,,,,,,,,,,,,,,,,,,,,,,,,,,,,,,,,,,,,,,,,,,
0,19,19,7,1,,5c8f70a02675ca0001daf60a,62c538fd7e955d92c6b91f27,2022-07-06_09h26.27.403,Colour_Asymmetry_Pilot,2022.1.3,Win32,59.94844434,62c50e9c1127f2cd403a315f,,,,,,,,,,,,,,,,,,,,,,,,,,,,,,,,,,,,,,,,,,,,,,,,,,,,,,,,,,,,,,,,,,,,,,,,,,,,,,,,,,,,,,,,,,,,,,,,,,,,,,,,,,,,,,,,,,,,,,,,,,,,,,,,,,,,,,,,,,,,,,,,,,,,,,,,,,,,,,,,,,,
0,20,20,66,1,,5c8f70a02675ca0001daf60a,62c538fd7e955d92c6b91f27,2022-07-06_09h26.27.403,Colour_Asymmetry_Pilot,2022.1.3,Win32,59.94844434,62c50e9c1127f2cd403a315f,,,,,,,,,,,,,,,,,,,,,,,,,,,,,,,,,,,,,,,,,,,,,,,,,,,,,,,,,,,,,,,,,,,,,,,,,,,,,,,,,,,,,,,,,,,,,,,,,,,,,,,,,,,,,,,,,,,,,,,,,,,,,,,,,,,,,,,,,,,,,,,,,,,,,,,,,,,,,,,,,,,
0,21,21,13,1,,5c8f70a02675ca0001daf60a,62c538fd7e955d92c6b91f27,2022-07-06_09h26.27.403,Colour_Asymmetry_Pilot,2022.1.3,Win32,59.94844434,62c50e9c1127f2cd403a315f,,,,,,,,,,,,,,,,,,,,,,,,,,,,,,,,,,,,,,,,,,,,,,,,,,,,,,,,,,,,,,,,,,,,,,,,,,,,,,,,,,,,,,,,,,,,,,,,,,,,,,,,,,,,,,,,,,,,,,,,,,,,,,,,,,,,,,,,,,,,,,,,,,,,,,,,,,,,,,,,,,,
0,22,22,64,1,,5c8f70a02675ca0001daf60a,62c538fd7e955d92c6b91f27,2022-07-06_09h26.27.403,Colour_Asymmetry_Pilot,2022.1.3,Win32,59.94844434,62c50e9c1127f2cd403a315f,,,,,,,,,,,,,,,,,,,,,,,,,,,,,,,,,,,,,,,,,,,,,,,,,,,,,,,,,,,,,,,,,,,,,,,,,,,,,,,,,,,,,,,,,,,,,,,,,,,,,,,,,,,,,,,,,,,,,,,,,,,,,,,,,,,,,,,,,,,,,,,,,,,,,,,,,,,,,,,,,,,
0,23,23,65,1,,5c8f70a02675ca0001daf60a,62c538fd7e955d92c6b91f27,2022-07-06_09h26.27.403,Colour_Asymmetry_Pilot,2022.1.3,Win32,59.94844434,62c50e9c1127f2cd403a315f,,,,,,,,,,,,,,,,,,,,,,,,,,,,,,,,,,,,,,,,,,,,,,,,,,,,,,,,,,,,,,,,,,,,,,,,,,,,,,,,,,,,,,,,,,,,,,,,,,,,,,,,,,,,,,,,,,,,,,,,,,,,,,,,,,,,,,,,,,,,,,,,,,,,,,,,,,,,,,,,,,,
0,24,24,74,1,,5c8f70a02675ca0001daf60a,62c538fd7e955d92c6b91f27,2022-07-06_09h26.27.403,Colour_Asymmetry_Pilot,2022.1.3,Win32,59.94844434,62c50e9c1127f2cd403a315f,,,,,,,,,,,,,,,,,,,,,,,,,,,,,,,,,,,,,,,,,,,,,,,,,,,,,,,,,,,,,,,,,,,,,,,,,,,,,,,,,,,,,,,,,,,,,,,,,,,,,,,,,,,,,,,,,,,,,,,,,,,,,,,,,,,,,,,,,,,,,,,,,,,,,,,,,,,,,,,,,,,
0,25,25,34,1,,5c8f70a02675ca0001daf60a,62c538fd7e955d92c6b91f27,2022-07-06_09h26.27.403,Colour_Asymmetry_Pilot,2022.1.3,Win32,59.94844434,62c50e9c1127f2cd403a315f,,,,,,,,,,,,,,,,,,,,,,,,,,,,,,,,,,,,,,,,,,,,,,,,,,,,,,,,,,,,,,,,,,,,,,,,,,,,,,,,,,,,,,,,,,,,,,,,,,,,,,,,,,,,,,,,,,,,,,,,,,,,,,,,,,,,,,,,,,,,,,,,,,,,,,,,,,,,,,,,,,,
0,26,26,83,1,,5c8f70a02675ca0001daf60a,62c538fd7e955d92c6b91f27,2022-07-06_09h26.27.403,Colour_Asymmetry_Pilot,2022.1.3,Win32,59.94844434,62c50e9c1127f2cd403a315f,,,,,,,,,,,,,,,,,,,,,,,,,,,,,,,,,,,,,,,,,,,,,,,,,,,,,,,,,,,,,,,,,,,,,,,,,,,,,,,,,,,,,,,,,,,,,,,,,,,,,,,,,,,,,,,,,,,,,,,,,,,,,,,,,,,,,,,,,,,,,,,,,,,,,,,,,,,,,,,,,,,
0,27,27,48,1,,5c8f70a02675ca0001daf60a,62c538fd7e955d92c6b91f27,2022-07-06_09h26.27.403,Colour_Asymmetry_Pilot,2022.1.3,Win32,59.94844434,62c50e9c1127f2cd403a315f,,,,,,,,,,,,,,,,,,,,,,,,,,,,,,,,,,,,,,,,,,,,,,,,,,,,,,,,,,,,,,,,,,,,,,,,,,,,,,,,,,,,,,,,,,,,,,,,,,,,,,,,,,,,,,,,,,,,,,,,,,,,,,,,,,,,,,,,,,,,,,,,,,,,,,,,,,,,,,,,,,,
0,28,28,77,1,,5c8f70a02675ca0001daf60a,62c538fd7e955d92c6b91f27,2022-07-06_09h26.27.403,Colour_Asymmetry_Pilot,2022.1.3,Win32,59.94844434,62c50e9c1127f2cd403a315f,,,,,,,,,,,,,,,,,,,,,,,,,,,,,,,,,,,,,,,,,,,,,,,,,,,,,,,,,,,,,,,,,,,,,,,,,,,,,,,,,,,,,,,,,,,,,,,,,,,,,,,,,,,,,,,,,,,,,,,,,,,,,,,,,,,,,,,,,,,,,,,,,,,,,,,,,,,,,,,,,,,
0,29,29,0,1,,5c8f70a02675ca0001daf60a,62c538fd7e955d92c6b91f27,2022-07-06_09h26.27.403,Colour_Asymmetry_Pilot,2022.1.3,Win32,59.94844434,62c50e9c1127f2cd403a315f,,,,,,,,,,,,,,,,,,,,,,,,,,,,,,,,,,,,,,,,,,,,,,,,,,,,,,,,,,,,,,,,,,,,,,,,,,,,,,,,,,,,,,,,,,,,,,,,,,,,,,,,,,,,,,,,,,,,,,,,,,,,,,,,,,,,,,,,,,,,,,,,,,,,,,,,,,,,,,,,,,,
0,30,30,43,1,,5c8f70a02675ca0001daf60a,62c538fd7e955d92c6b91f27,2022-07-06_09h26.27.403,Colour_Asymmetry_Pilot,2022.1.3,Win32,59.94844434,62c50e9c1127f2cd403a315f,,,,,,,,,,,,,,,,,,,,,,,,,,,,,,,,,,,,,,,,,,,,,,,,,,,,,,,,,,,,,,,,,,,,,,,,,,,,,,,,,,,,,,,,,,,,,,,,,,,,,,,,,,,,,,,,,,,,,,,,,,,,,,,,,,,,,,,,,,,,,,,,,,,,,,,,,,,,,,,,,,,
0,31,31,53,1,,5c8f70a02675ca0001daf60a,62c538fd7e955d92c6b91f27,2022-07-06_09h26.27.403,Colour_Asymmetry_Pilot,2022.1.3,Win32,59.94844434,62c50e9c1127f2cd403a315f,,,,,,,,,,,,,,,,,,,,,,,,,,,,,,,,,,,,,,,,,,,,,,,,,,,,,,,,,,,,,,,,,,,,,,,,,,,,,,,,,,,,,,,,,,,,,,,,,,,,,,,,,,,,,,,,,,,,,,,,,,,,,,,,,,,,,,,,,,,,,,,,,,,,,,,,,,,,,,,,,,,
0,32,32,62,1,,5c8f70a02675ca0001daf60a,62c538fd7e955d92c6b91f27,2022-07-06_09h26.27.403,Colour_Asymmetry_Pilot,2022.1.3,Win32,59.94844434,62c50e9c1127f2cd403a315f,,,,,,,,,,,,,,,,,,,,,,,,,,,,,,,,,,,,,,,,,,,,,,,,,,,,,,,,,,,,,,,,,,,,,,,,,,,,,,,,,,,,,,,,,,,,,,,,,,,,,,,,,,,,,,,,,,,,,,,,,,,,,,,,,,,,,,,,,,,,,,,,,,,,,,,,,,,,,,,,,,,
0,33,33,30,1,,5c8f70a02675ca0001daf60a,62c538fd7e955d92c6b91f27,2022-07-06_09h26.27.403,Colour_Asymmetry_Pilot,2022.1.3,Win32,59.94844434,62c50e9c1127f2cd403a315f,,,,,,,,,,,,,,,,,,,,,,,,,,,,,,,,,,,,,,,,,,,,,,,,,,,,,,,,,,,,,,,,,,,,,,,,,,,,,,,,,,,,,,,,,,,,,,,,,,,,,,,,,,,,,,,,,,,,,,,,,,,,,,,,,,,,,,,,,,,,,,,,,,,,,,,,,,,,,,,,,,,
0,34,34,55,1,,5c8f70a02675ca0001daf60a,62c538fd7e955d92c6b91f27,2022-07-06_09h26.27.403,Colour_Asymmetry_Pilot,2022.1.3,Win32,59.94844434,62c50e9c1127f2cd403a315f,,,,,,,,,,,,,,,,,,,,,,,,,,,,,,,,,,,,,,,,,,,,,,,,,,,,,,,,,,,,,,,,,,,,,,,,,,,,,,,,,,,,,,,,,,,,,,,,,,,,,,,,,,,,,,,,,,,,,,,,,,,,,,,,,,,,,,,,,,,,,,,,,,,,,,,,,,,,,,,,,,,
0,35,35,11,1,,5c8f70a02675ca0001daf60a,62c538fd7e955d92c6b91f27,2022-07-06_09h26.27.403,Colour_Asymmetry_Pilot,2022.1.3,Win32,59.94844434,62c50e9c1127f2cd403a315f,,,,,,,,,,,,,,,,,,,,,,,,,,,,,,,,,,,,,,,,,,,,,,,,,,,,,,,,,,,,,,,,,,,,,,,,,,,,,,,,,,,,,,,,,,,,,,,,,,,,,,,,,,,,,,,,,,,,,,,,,,,,,,,,,,,,,,,,,,,,,,,,,,,,,,,,,,,,,,,,,,,
0,36,36,21,1,,5c8f70a02675ca0001daf60a,62c538fd7e955d92c6b91f27,2022-07-06_09h26.27.403,Colour_Asymmetry_Pilot,2022.1.3,Win32,59.94844434,62c50e9c1127f2cd403a315f,,,,,,,,,,,,,,,,,,,,,,,,,,,,,,,,,,,,,,,,,,,,,,,,,,,,,,,,,,,,,,,,,,,,,,,,,,,,,,,,,,,,,,,,,,,,,,,,,,,,,,,,,,,,,,,,,,,,,,,,,,,,,,,,,,,,,,,,,,,,,,,,,,,,,,,,,,,,,,,,,,,
0,37,37,49,1,,5c8f70a02675ca0001daf60a,62c538fd7e955d92c6b91f27,2022-07-06_09h26.27.403,Colour_Asymmetry_Pilot,2022.1.3,Win32,59.94844434,62c50e9c1127f2cd403a315f,,,,,,,,,,,,,,,,,,,,,,,,,,,,,,,,,,,,,,,,,,,,,,,,,,,,,,,,,,,,,,,,,,,,,,,,,,,,,,,,,,,,,,,,,,,,,,,,,,,,,,,,,,,,,,,,,,,,,,,,,,,,,,,,,,,,,,,,,,,,,,,,,,,,,,,,,,,,,,,,,,,
0,38,38,33,1,,5c8f70a02675ca0001daf60a,62c538fd7e955d92c6b91f27,2022-07-06_09h26.27.403,Colour_Asymmetry_Pilot,2022.1.3,Win32,59.94844434,62c50e9c1127f2cd403a315f,,,,,,,,,,,,,,,,,,,,,,,,,,,,,,,,,,,,,,,,,,,,,,,,,,,,,,,,,,,,,,,,,,,,,,,,,,,,,,,,,,,,,,,,,,,,,,,,,,,,,,,,,,,,,,,,,,,,,,,,,,,,,,,,,,,,,,,,,,,,,,,,,,,,,,,,,,,,,,,,,,,
0,39,39,12,1,,5c8f70a02675ca0001daf60a,62c538fd7e955d92c6b91f27,2022-07-06_09h26.27.403,Colour_Asymmetry_Pilot,2022.1.3,Win32,59.94844434,62c50e9c1127f2cd403a315f,,,,,,,,,,,,,,,,,,,,,,,,,,,,,,,,,,,,,,,,,,,,,,,,,,,,,,,,,,,,,,,,,,,,,,,,,,,,,,,,,,,,,,,,,,,,,,,,,,,,,,,,,,,,,,,,,,,,,,,,,,,,,,,,,,,,,,,,,,,,,,,,,,,,,,,,,,,,,,,,,,,
0,40,40,89,1,,5c8f70a02675ca0001daf60a,62c538fd7e955d92c6b91f27,2022-07-06_09h26.27.403,Colour_Asymmetry_Pilot,2022.1.3,Win32,59.94844434,62c50e9c1127f2cd403a315f,,,,,,,,,,,,,,,,,,,,,,,,,,,,,,,,,,,,,,,,,,,,,,,,,,,,,,,,,,,,,,,,,,,,,,,,,,,,,,,,,,,,,,,,,,,,,,,,,,,,,,,,,,,,,,,,,,,,,,,,,,,,,,,,,,,,,,,,,,,,,,,,,,,,,,,,,,,,,,,,,,,
0,41,41,60,1,,5c8f70a02675ca0001daf60a,62c538fd7e955d92c6b91f27,2022-07-06_09h26.27.403,Colour_Asymmetry_Pilot,2022.1.3,Win32,59.94844434,62c50e9c1127f2cd403a315f,,,,,,,,,,,,,,,,,,,,,,,,,,,,,,,,,,,,,,,,,,,,,,,,,,,,,,,,,,,,,,,,,,,,,,,,,,,,,,,,,,,,,,,,,,,,,,,,,,,,,,,,,,,,,,,,,,,,,,,,,,,,,,,,,,,,,,,,,,,,,,,,,,,,,,,,,,,,,,,,,,,
0,42,42,15,1,,5c8f70a02675ca0001daf60a,62c538fd7e955d92c6b91f27,2022-07-06_09h26.27.403,Colour_Asymmetry_Pilot,2022.1.3,Win32,59.94844434,62c50e9c1127f2cd403a315f,,,,,,,,,,,,,,,,,,,,,,,,,,,,,,,,,,,,,,,,,,,,,,,,,,,,,,,,,,,,,,,,,,,,,,,,,,,,,,,,,,,,,,,,,,,,,,,,,,,,,,,,,,,,,,,,,,,,,,,,,,,,,,,,,,,,,,,,,,,,,,,,,,,,,,,,,,,,,,,,,,,
0,43,43,91,1,,5c8f70a02675ca0001daf60a,62c538fd7e955d92c6b91f27,2022-07-06_09h26.27.403,Colour_Asymmetry_Pilot,2022.1.3,Win32,59.94844434,62c50e9c1127f2cd403a315f,,,,,,,,,,,,,,,,,,,,,,,,,,,,,,,,,,,,,,,,,,,,,,,,,,,,,,,,,,,,,,,,,,,,,,,,,,,,,,,,,,,,,,,,,,,,,,,,,,,,,,,,,,,,,,,,,,,,,,,,,,,,,,,,,,,,,,,,,,,,,,,,,,,,,,,,,,,,,,,,,,,
0,44,44,2,1,,5c8f70a02675ca0001daf60a,62c538fd7e955d92c6b91f27,2022-07-06_09h26.27.403,Colour_Asymmetry_Pilot,2022.1.3,Win32,59.94844434,62c50e9c1127f2cd403a315f,,,,,,,,,,,,,,,,,,,,,,,,,,,,,,,,,,,,,,,,,,,,,,,,,,,,,,,,,,,,,,,,,,,,,,,,,,,,,,,,,,,,,,,,,,,,,,,,,,,,,,,,,,,,,,,,,,,,,,,,,,,,,,,,,,,,,,,,,,,,,,,,,,,,,,,,,,,,,,,,,,,
0,45,45,86,1,,5c8f70a02675ca0001daf60a,62c538fd7e955d92c6b91f27,2022-07-06_09h26.27.403,Colour_Asymmetry_Pilot,2022.1.3,Win32,59.94844434,62c50e9c1127f2cd403a315f,,,,,,,,,,,,,,,,,,,,,,,,,,,,,,,,,,,,,,,,,,,,,,,,,,,,,,,,,,,,,,,,,,,,,,,,,,,,,,,,,,,,,,,,,,,,,,,,,,,,,,,,,,,,,,,,,,,,,,,,,,,,,,,,,,,,,,,,,,,,,,,,,,,,,,,,,,,,,,,,,,,
0,46,46,56,1,,5c8f70a02675ca0001daf60a,62c538fd7e955d92c6b91f27,2022-07-06_09h26.27.403,Colour_Asymmetry_Pilot,2022.1.3,Win32,59.94844434,62c50e9c1127f2cd403a315f,,,,,,,,,,,,,,,,,,,,,,,,,,,,,,,,,,,,,,,,,,,,,,,,,,,,,,,,,,,,,,,,,,,,,,,,,,,,,,,,,,,,,,,,,,,,,,,,,,,,,,,,,,,,,,,,,,,,,,,,,,,,,,,,,,,,,,,,,,,,,,,,,,,,,,,,,,,,,,,,,,,
0,47,47,81,1,,5c8f70a02675ca0001daf60a,62c538fd7e955d92c6b91f27,2022-07-06_09h26.27.403,Colour_Asymmetry_Pilot,2022.1.3,Win32,59.94844434,62c50e9c1127f2cd403a315f,,,,,,,,,,,,,,,,,,,,,,,,,,,,,,,,,,,,,,,,,,,,,,,,,,,,,,,,,,,,,,,,,,,,,,,,,,,,,,,,,,,,,,,,,,,,,,,,,,,,,,,,,,,,,,,,,,,,,,,,,,,,,,,,,,,,,,,,,,,,,,,,,,,,,,,,,,,,,,,,,,,
0,48,48,27,1,,5c8f70a02675ca0001daf60a,62c538fd7e955d92c6b91f27,2022-07-06_09h26.27.403,Colour_Asymmetry_Pilot,2022.1.3,Win32,59.94844434,62c50e9c1127f2cd403a315f,,,,,,,,,,,,,,,,,,,,,,,,,,,,,,,,,,,,,,,,,,,,,,,,,,,,,,,,,,,,,,,,,,,,,,,,,,,,,,,,,,,,,,,,,,,,,,,,,,,,,,,,,,,,,,,,,,,,,,,,,,,,,,,,,,,,,,,,,,,,,,,,,,,,,,,,,,,,,,,,,,,
0,49,49,24,1,,5c8f70a02675ca0001daf60a,62c538fd7e955d92c6b91f27,2022-07-06_09h26.27.403,Colour_Asymmetry_Pilot,2022.1.3,Win32,59.94844434,62c50e9c1127f2cd403a315f,,,,,,,,,,,,,,,,,,,,,,,,,,,,,,,,,,,,,,,,,,,,,,,,,,,,,,,,,,,,,,,,,,,,,,,,,,,,,,,,,,,,,,,,,,,,,,,,,,,,,,,,,,,,,,,,,,,,,,,,,,,,,,,,,,,,,,,,,,,,,,,,,,,,,,,,,,,,,,,,,,,
0,50,50,58,1,,5c8f70a02675ca0001daf60a,62c538fd7e955d92c6b91f27,2022-07-06_09h26.27.403,Colour_Asymmetry_Pilot,2022.1.3,Win32,59.94844434,62c50e9c1127f2cd403a315f,,,,,,,,,,,,,,,,,,,,,,,,,,,,,,,,,,,,,,,,,,,,,,,,,,,,,,,,,,,,,,,,,,,,,,,,,,,,,,,,,,,,,,,,,,,,,,,,,,,,,,,,,,,,,,,,,,,,,,,,,,,,,,,,,,,,,,,,,,,,,,,,,,,,,,,,,,,,,,,,,,,
0,51,51,63,1,,5c8f70a02675ca0001daf60a,62c538fd7e955d92c6b91f27,2022-07-06_09h26.27.403,Colour_Asymmetry_Pilot,2022.1.3,Win32,59.94844434,62c50e9c1127f2cd403a315f,,,,,,,,,,,,,,,,,,,,,,,,,,,,,,,,,,,,,,,,,,,,,,,,,,,,,,,,,,,,,,,,,,,,,,,,,,,,,,,,,,,,,,,,,,,,,,,,,,,,,,,,,,,,,,,,,,,,,,,,,,,,,,,,,,,,,,,,,,,,,,,,,,,,,,,,,,,,,,,,,,,
0,52,52,1,1,,5c8f70a02675ca0001daf60a,62c538fd7e955d92c6b91f27,2022-07-06_09h26.27.403,Colour_Asymmetry_Pilot,2022.1.3,Win32,59.94844434,62c50e9c1127f2cd403a315f,,,,,,,,,,,,,,,,,,,,,,,,,,,,,,,,,,,,,,,,,,,,,,,,,,,,,,,,,,,,,,,,,,,,,,,,,,,,,,,,,,,,,,,,,,,,,,,,,,,,,,,,,,,,,,,,,,,,,,,,,,,,,,,,,,,,,,,,,,,,,,,,,,,,,,,,,,,,,,,,,,,
0,53,53,31,1,,5c8f70a02675ca0001daf60a,62c538fd7e955d92c6b91f27,2022-07-06_09h26.27.403,Colour_Asymmetry_Pilot,2022.1.3,Win32,59.94844434,62c50e9c1127f2cd403a315f,,,,,,,,,,,,,,,,,,,,,,,,,,,,,,,,,,,,,,,,,,,,,,,,,,,,,,,,,,,,,,,,,,,,,,,,,,,,,,,,,,,,,,,,,,,,,,,,,,,,,,,,,,,,,,,,,,,,,,,,,,,,,,,,,,,,,,,,,,,,,,,,,,,,,,,,,,,,,,,,,,,
0,54,54,84,1,,5c8f70a02675ca0001daf60a,62c538fd7e955d92c6b91f27,2022-07-06_09h26.27.403,Colour_Asymmetry_Pilot,2022.1.3,Win32,59.94844434,62c50e9c1127f2cd403a315f,,,,,,,,,,,,,,,,,,,,,,,,,,,,,,,,,,,,,,,,,,,,,,,,,,,,,,,,,,,,,,,,,,,,,,,,,,,,,,,,,,,,,,,,,,,,,,,,,,,,,,,,,,,,,,,,,,,,,,,,,,,,,,,,,,,,,,,,,,,,,,,,,,,,,,,,,,,,,,,,,,,
0,55,55,61,1,,5c8f70a02675ca0001daf60a,62c538fd7e955d92c6b91f27,2022-07-06_09h26.27.403,Colour_Asymmetry_Pilot,2022.1.3,Win32,59.94844434,62c50e9c1127f2cd403a315f,,,,,,,,,,,,,,,,,,,,,,,,,,,,,,,,,,,,,,,,,,,,,,,,,,,,,,,,,,,,,,,,,,,,,,,,,,,,,,,,,,,,,,,,,,,,,,,,,,,,,,,,,,,,,,,,,,,,,,,,,,,,,,,,,,,,,,,,,,,,,,,,,,,,,,,,,,,,,,,,,,,
0,56,56,87,1,,5c8f70a02675ca0001daf60a,62c538fd7e955d92c6b91f27,2022-07-06_09h26.27.403,Colour_Asymmetry_Pilot,2022.1.3,Win32,59.94844434,62c50e9c1127f2cd403a315f,,,,,,,,,,,,,,,,,,,,,,,,,,,,,,,,,,,,,,,,,,,,,,,,,,,,,,,,,,,,,,,,,,,,,,,,,,,,,,,,,,,,,,,,,,,,,,,,,,,,,,,,,,,,,,,,,,,,,,,,,,,,,,,,,,,,,,,,,,,,,,,,,,,,,,,,,,,,,,,,,,,
0,57,57,35,1,,5c8f70a02675ca0001daf60a,62c538fd7e955d92c6b91f27,2022-07-06_09h26.27.403,Colour_Asymmetry_Pilot,2022.1.3,Win32,59.94844434,62c50e9c1127f2cd403a315f,,,,,,,,,,,,,,,,,,,,,,,,,,,,,,,,,,,,,,,,,,,,,,,,,,,,,,,,,,,,,,,,,,,,,,,,,,,,,,,,,,,,,,,,,,,,,,,,,,,,,,,,,,,,,,,,,,,,,,,,,,,,,,,,,,,,,,,,,,,,,,,,,,,,,,,,,,,,,,,,,,,
0,58,58,10,1,,5c8f70a02675ca0001daf60a,62c538fd7e955d92c6b91f27,2022-07-06_09h26.27.403,Colour_Asymmetry_Pilot,2022.1.3,Win32,59.94844434,62c50e9c1127f2cd403a315f,,,,,,,,,,,,,,,,,,,,,,,,,,,,,,,,,,,,,,,,,,,,,,,,,,,,,,,,,,,,,,,,,,,,,,,,,,,,,,,,,,,,,,,,,,,,,,,,,,,,,,,,,,,,,,,,,,,,,,,,,,,,,,,,,,,,,,,,,,,,,,,,,,,,,,,,,,,,,,,,,,,
0,59,59,6,1,,5c8f70a02675ca0001daf60a,62c538fd7e955d92c6b91f27,2022-07-06_09h26.27.403,Colour_Asymmetry_Pilot,2022.1.3,Win32,59.94844434,62c50e9c1127f2cd403a315f,,,,,,,,,,,,,,,,,,,,,,,,,,,,,,,,,,,,,,,,,,,,,,,,,,,,,,,,,,,,,,,,,,,,,,,,,,,,,,,,,,,,,,,,,,,,,,,,,,,,,,,,,,,,,,,,,,,,,,,,,,,,,,,,,,,,,,,,,,,,,,,,,,,,,,,,,,,,,,,,,,,
0,60,60,29,1,,5c8f70a02675ca0001daf60a,62c538fd7e955d92c6b91f27,2022-07-06_09h26.27.403,Colour_Asymmetry_Pilot,2022.1.3,Win32,59.94844434,62c50e9c1127f2cd403a315f,,,,,,,,,,,,,,,,,,,,,,,,,,,,,,,,,,,,,,,,,,,,,,,,,,,,,,,,,,,,,,,,,,,,,,,,,,,,,,,,,,,,,,,,,,,,,,,,,,,,,,,,,,,,,,,,,,,,,,,,,,,,,,,,,,,,,,,,,,,,,,,,,,,,,,,,,,,,,,,,,,,
0,61,61,3,1,,5c8f70a02675ca0001daf60a,62c538fd7e955d92c6b91f27,2022-07-06_09h26.27.403,Colour_Asymmetry_Pilot,2022.1.3,Win32,59.94844434,62c50e9c1127f2cd403a315f,,,,,,,,,,,,,,,,,,,,,,,,,,,,,,,,,,,,,,,,,,,,,,,,,,,,,,,,,,,,,,,,,,,,,,,,,,,,,,,,,,,,,,,,,,,,,,,,,,,,,,,,,,,,,,,,,,,,,,,,,,,,,,,,,,,,,,,,,,,,,,,,,,,,,,,,,,,,,,,,,,,
0,62,62,45,1,,5c8f70a02675ca0001daf60a,62c538fd7e955d92c6b91f27,2022-07-06_09h26.27.403,Colour_Asymmetry_Pilot,2022.1.3,Win32,59.94844434,62c50e9c1127f2cd403a315f,,,,,,,,,,,,,,,,,,,,,,,,,,,,,,,,,,,,,,,,,,,,,,,,,,,,,,,,,,,,,,,,,,,,,,,,,,,,,,,,,,,,,,,,,,,,,,,,,,,,,,,,,,,,,,,,,,,,,,,,,,,,,,,,,,,,,,,,,,,,,,,,,,,,,,,,,,,,,,,,,,,
0,63,63,17,1,,5c8f70a02675ca0001daf60a,62c538fd7e955d92c6b91f27,2022-07-06_09h26.27.403,Colour_Asymmetry_Pilot,2022.1.3,Win32,59.94844434,62c50e9c1127f2cd403a315f,,,,,,,,,,,,,,,,,,,,,,,,,,,,,,,,,,,,,,,,,,,,,,,,,,,,,,,,,,,,,,,,,,,,,,,,,,,,,,,,,,,,,,,,,,,,,,,,,,,,,,,,,,,,,,,,,,,,,,,,,,,,,,,,,,,,,,,,,,,,,,,,,,,,,,,,,,,,,,,,,,,
0,64,64,23,1,,5c8f70a02675ca0001daf60a,62c538fd7e955d92c6b91f27,2022-07-06_09h26.27.403,Colour_Asymmetry_Pilot,2022.1.3,Win32,59.94844434,62c50e9c1127f2cd403a315f,,,,,,,,,,,,,,,,,,,,,,,,,,,,,,,,,,,,,,,,,,,,,,,,,,,,,,,,,,,,,,,,,,,,,,,,,,,,,,,,,,,,,,,,,,,,,,,,,,,,,,,,,,,,,,,,,,,,,,,,,,,,,,,,,,,,,,,,,,,,,,,,,,,,,,,,,,,,,,,,,,,
0,65,65,70,1,,5c8f70a02675ca0001daf60a,62c538fd7e955d92c6b91f27,2022-07-06_09h26.27.403,Colour_Asymmetry_Pilot,2022.1.3,Win32,59.94844434,62c50e9c1127f2cd403a315f,,,,,,,,,,,,,,,,,,,,,,,,,,,,,,,,,,,,,,,,,,,,,,,,,,,,,,,,,,,,,,,,,,,,,,,,,,,,,,,,,,,,,,,,,,,,,,,,,,,,,,,,,,,,,,,,,,,,,,,,,,,,,,,,,,,,,,,,,,,,,,,,,,,,,,,,,,,,,,,,,,,
0,66,66,67,1,,5c8f70a02675ca0001daf60a,62c538fd7e955d92c6b91f27,2022-07-06_09h26.27.403,Colour_Asymmetry_Pilot,2022.1.3,Win32,59.94844434,62c50e9c1127f2cd403a315f,,,,,,,,,,,,,,,,,,,,,,,,,,,,,,,,,,,,,,,,,,,,,,,,,,,,,,,,,,,,,,,,,,,,,,,,,,,,,,,,,,,,,,,,,,,,,,,,,,,,,,,,,,,,,,,,,,,,,,,,,,,,,,,,,,,,,,,,,,,,,,,,,,,,,,,,,,,,,,,,,,,
0,67,67,90,1,,5c8f70a02675ca0001daf60a,62c538fd7e955d92c6b91f27,2022-07-06_09h26.27.403,Colour_Asymmetry_Pilot,2022.1.3,Win32,59.94844434,62c50e9c1127f2cd403a315f,,,,,,,,,,,,,,,,,,,,,,,,,,,,,,,,,,,,,,,,,,,,,,,,,,,,,,,,,,,,,,,,,,,,,,,,,,,,,,,,,,,,,,,,,,,,,,,,,,,,,,,,,,,,,,,,,,,,,,,,,,,,,,,,,,,,,,,,,,,,,,,,,,,,,,,,,,,,,,,,,,,
0,68,68,22,1,,5c8f70a02675ca0001daf60a,62c538fd7e955d92c6b91f27,2022-07-06_09h26.27.403,Colour_Asymmetry_Pilot,2022.1.3,Win32,59.94844434,62c50e9c1127f2cd403a315f,,,,,,,,,,,,,,,,,,,,,,,,,,,,,,,,,,,,,,,,,,,,,,,,,,,,,,,,,,,,,,,,,,,,,,,,,,,,,,,,,,,,,,,,,,,,,,,,,,,,,,,,,,,,,,,,,,,,,,,,,,,,,,,,,,,,,,,,,,,,,,,,,,,,,,,,,,,,,,,,,,,
0,69,69,80,1,,5c8f70a02675ca0001daf60a,62c538fd7e955d92c6b91f27,2022-07-06_09h26.27.403,Colour_Asymmetry_Pilot,2022.1.3,Win32,59.94844434,62c50e9c1127f2cd403a315f,,,,,,,,,,,,,,,,,,,,,,,,,,,,,,,,,,,,,,,,,,,,,,,,,,,,,,,,,,,,,,,,,,,,,,,,,,,,,,,,,,,,,,,,,,,,,,,,,,,,,,,,,,,,,,,,,,,,,,,,,,,,,,,,,,,,,,,,,,,,,,,,,,,,,,,,,,,,,,,,,,,
0,70,70,19,1,,5c8f70a02675ca0001daf60a,62c538fd7e955d92c6b91f27,2022-07-06_09h26.27.403,Colour_Asymmetry_Pilot,2022.1.3,Win32,59.94844434,62c50e9c1127f2cd403a315f,,,,,,,,,,,,,,,,,,,,,,,,,,,,,,,,,,,,,,,,,,,,,,,,,,,,,,,,,,,,,,,,,,,,,,,,,,,,,,,,,,,,,,,,,,,,,,,,,,,,,,,,,,,,,,,,,,,,,,,,,,,,,,,,,,,,,,,,,,,,,,,,,,,,,,,,,,,,,,,,,,,
0,71,71,72,1,,5c8f70a02675ca0001daf60a,62c538fd7e955d92c6b91f27,2022-07-06_09h26.27.403,Colour_Asymmetry_Pilot,2022.1.3,Win32,59.94844434,62c50e9c1127f2cd403a315f,,,,,,,,,,,,,,,,,,,,,,,,,,,,,,,,,,,,,,,,,,,,,,,,,,,,,,,,,,,,,,,,,,,,,,,,,,,,,,,,,,,,,,,,,,,,,,,,,,,,,,,,,,,,,,,,,,,,,,,,,,,,,,,,,,,,,,,,,,,,,,,,,,,,,,,,,,,,,,,,,,,
0,72,72,78,1,,5c8f70a02675ca0001daf60a,62c538fd7e955d92c6b91f27,2022-07-06_09h26.27.403,Colour_Asymmetry_Pilot,2022.1.3,Win32,59.94844434,62c50e9c1127f2cd403a315f,,,,,,,,,,,,,,,,,,,,,,,,,,,,,,,,,,,,,,,,,,,,,,,,,,,,,,,,,,,,,,,,,,,,,,,,,,,,,,,,,,,,,,,,,,,,,,,,,,,,,,,,,,,,,,,,,,,,,,,,,,,,,,,,,,,,,,,,,,,,,,,,,,,,,,,,,,,,,,,,,,,
0,73,73,37,1,,5c8f70a02675ca0001daf60a,62c538fd7e955d92c6b91f27,2022-07-06_09h26.27.403,Colour_Asymmetry_Pilot,2022.1.3,Win32,59.94844434,62c50e9c1127f2cd403a315f,,,,,,,,,,,,,,,,,,,,,,,,,,,,,,,,,,,,,,,,,,,,,,,,,,,,,,,,,,,,,,,,,,,,,,,,,,,,,,,,,,,,,,,,,,,,,,,,,,,,,,,,,,,,,,,,,,,,,,,,,,,,,,,,,,,,,,,,,,,,,,,,,,,,,,,,,,,,,,,,,,,
0,74,74,36,1,,5c8f70a02675ca0001daf60a,62c538fd7e955d92c6b91f27,2022-07-06_09h26.27.403,Colour_Asymmetry_Pilot,2022.1.3,Win32,59.94844434,62c50e9c1127f2cd403a315f,,,,,,,,,,,,,,,,,,,,,,,,,,,,,,,,,,,,,,,,,,,,,,,,,,,,,,,,,,,,,,,,,,,,,,,,,,,,,,,,,,,,,,,,,,,,,,,,,,,,,,,,,,,,,,,,,,,,,,,,,,,,,,,,,,,,,,,,,,,,,,,,,,,,,,,,,,,,,,,,,,,
0,75,75,39,1,,5c8f70a02675ca0001daf60a,62c538fd7e955d92c6b91f27,2022-07-06_09h26.27.403,Colour_Asymmetry_Pilot,2022.1.3,Win32,59.94844434,62c50e9c1127f2cd403a315f,,,,,,,,,,,,,,,,,,,,,,,,,,,,,,,,,,,,,,,,,,,,,,,,,,,,,,,,,,,,,,,,,,,,,,,,,,,,,,,,,,,,,,,,,,,,,,,,,,,,,,,,,,,,,,,,,,,,,,,,,,,,,,,,,,,,,,,,,,,,,,,,,,,,,,,,,,,,,,,,,,,
0,76,76,68,1,,5c8f70a02675ca0001daf60a,62c538fd7e955d92c6b91f27,2022-07-06_09h26.27.403,Colour_Asymmetry_Pilot,2022.1.3,Win32,59.94844434,62c50e9c1127f2cd403a315f,,,,,,,,,,,,,,,,,,,,,,,,,,,,,,,,,,,,,,,,,,,,,,,,,,,,,,,,,,,,,,,,,,,,,,,,,,,,,,,,,,,,,,,,,,,,,,,,,,,,,,,,,,,,,,,,,,,,,,,,,,,,,,,,,,,,,,,,,,,,,,,,,,,,,,,,,,,,,,,,,,,
0,77,77,59,1,,5c8f70a02675ca0001daf60a,62c538fd7e955d92c6b91f27,2022-07-06_09h26.27.403,Colour_Asymmetry_Pilot,2022.1.3,Win32,59.94844434,62c50e9c1127f2cd403a315f,,,,,,,,,,,,,,,,,,,,,,,,,,,,,,,,,,,,,,,,,,,,,,,,,,,,,,,,,,,,,,,,,,,,,,,,,,,,,,,,,,,,,,,,,,,,,,,,,,,,,,,,,,,,,,,,,,,,,,,,,,,,,,,,,,,,,,,,,,,,,,,,,,,,,,,,,,,,,,,,,,,
0,78,78,4,1,,5c8f70a02675ca0001daf60a,62c538fd7e955d92c6b91f27,2022-07-06_09h26.27.403,Colour_Asymmetry_Pilot,2022.1.3,Win32,59.94844434,62c50e9c1127f2cd403a315f,,,,,,,,,,,,,,,,,,,,,,,,,,,,,,,,,,,,,,,,,,,,,,,,,,,,,,,,,,,,,,,,,,,,,,,,,,,,,,,,,,,,,,,,,,,,,,,,,,,,,,,,,,,,,,,,,,,,,,,,,,,,,,,,,,,,,,,,,,,,,,,,,,,,,,,,,,,,,,,,,,,
0,79,79,47,1,,5c8f70a02675ca0001daf60a,62c538fd7e955d92c6b91f27,2022-07-06_09h26.27.403,Colour_Asymmetry_Pilot,2022.1.3,Win32,59.94844434,62c50e9c1127f2cd403a315f,,,,,,,,,,,,,,,,,,,,,,,,,,,,,,,,,,,,,,,,,,,,,,,,,,,,,,,,,,,,,,,,,,,,,,,,,,,,,,,,,,,,,,,,,,,,,,,,,,,,,,,,,,,,,,,,,,,,,,,,,,,,,,,,,,,,,,,,,,,,,,,,,,,,,,,,,,,,,,,,,,,
0,80,80,46,1,,5c8f70a02675ca0001daf60a,62c538fd7e955d92c6b91f27,2022-07-06_09h26.27.403,Colour_Asymmetry_Pilot,2022.1.3,Win32,59.94844434,62c50e9c1127f2cd403a315f,,,,,,,,,,,,,,,,,,,,,,,,,,,,,,,,,,,,,,,,,,,,,,,,,,,,,,,,,,,,,,,,,,,,,,,,,,,,,,,,,,,,,,,,,,,,,,,,,,,,,,,,,,,,,,,,,,,,,,,,,,,,,,,,,,,,,,,,,,,,,,,,,,,,,,,,,,,,,,,,,,,
0,81,81,20,1,,5c8f70a02675ca0001daf60a,62c538fd7e955d92c6b91f27,2022-07-06_09h26.27.403,Colour_Asymmetry_Pilot,2022.1.3,Win32,59.94844434,62c50e9c1127f2cd403a315f,,,,,,,,,,,,,,,,,,,,,,,,,,,,,,,,,,,,,,,,,,,,,,,,,,,,,,,,,,,,,,,,,,,,,,,,,,,,,,,,,,,,,,,,,,,,,,,,,,,,,,,,,,,,,,,,,,,,,,,,,,,,,,,,,,,,,,,,,,,,,,,,,,,,,,,,,,,,,,,,,,,
0,82,82,44,1,,5c8f70a02675ca0001daf60a,62c538fd7e955d92c6b91f27,2022-07-06_09h26.27.403,Colour_Asymmetry_Pilot,2022.1.3,Win32,59.94844434,62c50e9c1127f2cd403a315f,,,,,,,,,,,,,,,,,,,,,,,,,,,,,,,,,,,,,,,,,,,,,,,,,,,,,,,,,,,,,,,,,,,,,,,,,,,,,,,,,,,,,,,,,,,,,,,,,,,,,,,,,,,,,,,,,,,,,,,,,,,,,,,,,,,,,,,,,,,,,,,,,,,,,,,,,,,,,,,,,,,
0,83,83,57,1,,5c8f70a02675ca0001daf60a,62c538fd7e955d92c6b91f27,2022-07-06_09h26.27.403,Colour_Asymmetry_Pilot,2022.1.3,Win32,59.94844434,62c50e9c1127f2cd403a315f,,,,,,,,,,,,,,,,,,,,,,,,,,,,,,,,,,,,,,,,,,,,,,,,,,,,,,,,,,,,,,,,,,,,,,,,,,,,,,,,,,,,,,,,,,,,,,,,,,,,,,,,,,,,,,,,,,,,,,,,,,,,,,,,,,,,,,,,,,,,,,,,,,,,,,,,,,,,,,,,,,,
0,84,84,75,1,,5c8f70a02675ca0001daf60a,62c538fd7e955d92c6b91f27,2022-07-06_09h26.27.403,Colour_Asymmetry_Pilot,2022.1.3,Win32,59.94844434,62c50e9c1127f2cd403a315f,,,,,,,,,,,,,,,,,,,,,,,,,,,,,,,,,,,,,,,,,,,,,,,,,,,,,,,,,,,,,,,,,,,,,,,,,,,,,,,,,,,,,,,,,,,,,,,,,,,,,,,,,,,,,,,,,,,,,,,,,,,,,,,,,,,,,,,,,,,,,,,,,,,,,,,,,,,,,,,,,,,
0,85,85,42,1,,5c8f70a02675ca0001daf60a,62c538fd7e955d92c6b91f27,2022-07-06_09h26.27.403,Colour_Asymmetry_Pilot,2022.1.3,Win32,59.94844434,62c50e9c1127f2cd403a315f,,,,,,,,,,,,,,,,,,,,,,,,,,,,,,,,,,,,,,,,,,,,,,,,,,,,,,,,,,,,,,,,,,,,,,,,,,,,,,,,,,,,,,,,,,,,,,,,,,,,,,,,,,,,,,,,,,,,,,,,,,,,,,,,,,,,,,,,,,,,,,,,,,,,,,,,,,,,,,,,,,,
0,86,86,88,1,,5c8f70a02675ca0001daf60a,62c538fd7e955d92c6b91f27,2022-07-06_09h26.27.403,Colour_Asymmetry_Pilot,2022.1.3,Win32,59.94844434,62c50e9c1127f2cd403a315f,,,,,,,,,,,,,,,,,,,,,,,,,,,,,,,,,,,,,,,,,,,,,,,,,,,,,,,,,,,,,,,,,,,,,,,,,,,,,,,,,,,,,,,,,,,,,,,,,,,,,,,,,,,,,,,,,,,,,,,,,,,,,,,,,,,,,,,,,,,,,,,,,,,,,,,,,,,,,,,,,,,
0,87,87,25,1,,5c8f70a02675ca0001daf60a,62c538fd7e955d92c6b91f27,2022-07-06_09h26.27.403,Colour_Asymmetry_Pilot,2022.1.3,Win32,59.94844434,62c50e9c1127f2cd403a315f,,,,,,,,,,,,,,,,,,,,,,,,,,,,,,,,,,,,,,,,,,,,,,,,,,,,,,,,,,,,,,,,,,,,,,,,,,,,,,,,,,,,,,,,,,,,,,,,,,,,,,,,,,,,,,,,,,,,,,,,,,,,,,,,,,,,,,,,,,,,,,,,,,,,,,,,,,,,,,,,,,,
0,88,88,40,1,,5c8f70a02675ca0001daf60a,62c538fd7e955d92c6b91f27,2022-07-06_09h26.27.403,Colour_Asymmetry_Pilot,2022.1.3,Win32,59.94844434,62c50e9c1127f2cd403a315f,,,,,,,,,,,,,,,,,,,,,,,,,,,,,,,,,,,,,,,,,,,,,,,,,,,,,,,,,,,,,,,,,,,,,,,,,,,,,,,,,,,,,,,,,,,,,,,,,,,,,,,,,,,,,,,,,,,,,,,,,,,,,,,,,,,,,,,,,,,,,,,,,,,,,,,,,,,,,,,,,,,
0,89,89,16,1,,5c8f70a02675ca0001daf60a,62c538fd7e955d92c6b91f27,2022-07-06_09h26.27.403,Colour_Asymmetry_Pilot,2022.1.3,Win32,59.94844434,62c50e9c1127f2cd403a315f,,,,,,,,,,,,,,,,,,,,,,,,,,,,,,,,,,,,,,,,,,,,,,,,,,,,,,,,,,,,,,,,,,,,,,,,,,,,,,,,,,,,,,,,,,,,,,,,,,,,,,,,,,,,,,,,,,,,,,,,,,,,,,,,,,,,,,,,,,,,,,,,,,,,,,,,,,,,,,,,,,,
0,90,90,71,1,,5c8f70a02675ca0001daf60a,62c538fd7e955d92c6b91f27,2022-07-06_09h26.27.403,Colour_Asymmetry_Pilot,2022.1.3,Win32,59.94844434,62c50e9c1127f2cd403a315f,,,,,,,,,,,,,,,,,,,,,,,,,,,,,,,,,,,,,,,,,,,,,,,,,,,,,,,,,,,,,,,,,,,,,,,,,,,,,,,,,,,,,,,,,,,,,,,,,,,,,,,,,,,,,,,,,,,,,,,,,,,,,,,,,,,,,,,,,,,,,,,,,,,,,,,,,,,,,,,,,,,
0,91,91,14,1,,5c8f70a02675ca0001daf60a,62c538fd7e955d92c6b91f27,2022-07-06_09h26.27.403,Colour_Asymmetry_Pilot,2022.1.3,Win32,59.94844434,62c50e9c1127f2cd403a315f,,,,,,,,,,,,,,,,,,,,,,,,,,,,,,,,,,,,,,,,,,,,,,,,,,,,,,,,,,,,,,,,,,,,,,,,,,,,,,,,,,,,,,,,,,,,,,,,,,,,,,,,,,,,,,,,,,,,,,,,,,,,,,,,,,,,,,,,,,,,,,,,,,,,,,,,,,,,,,,,,,,
0,92,92,50,1,,5c8f70a02675ca0001daf60a,62c538fd7e955d92c6b91f27,2022-07-06_09h26.27.403,Colour_Asymmetry_Pilot,2022.1.3,Win32,59.94844434,62c50e9c1127f2cd403a315f,,,,,,,,,,,,,,,,,,,,,,,,,,,,,,,,,,,,,,,,,,,,,,,,,,,,,,,,,,,,,,,,,,,,,,,,,,,,,,,,,,,,,,,,,,,,,,,,,,,,,,,,,,,,,,,,,,,,,,,,,,,,,,,,,,,,,,,,,,,,,,,,,,,,,,,,,,,,,,,,,,,
,,,,,,5c8f70a02675ca0001daf60a,62c538fd7e955d92c6b91f27,2022-07-06_09h26.27.403,Colour_Asymmetry_Pilot,2022.1.3,Win32,59.94844434,62c50e9c1127f2cd403a315f,0,0,0,66,1,twoone,,,,,,,,,,,,,,,,,,,,,,,,,,,,,,,,,,,,,,,,,,,,,,,,,,,,,,,,,,,,,,,,,,,,,,,,,,,,,,,,,,,,,,,,,,,,,,,,,,,,,,,,,,,,,,,,,,,,,,,,,,,,,,,,,,,,,,,,,,,,,,,,,,,,,,,,,,,,,
,,,,,,5c8f70a02675ca0001daf60a,62c538fd7e955d92c6b91f27,2022-07-06_09h26.27.403,Colour_Asymmetry_Pilot,2022.1.3,Win32,59.94844434,62c50e9c1127f2cd403a315f,0,1,1,89,1,onethree,,,,,,,,,,,,,,,,,,,,,,,,,,,,,,,,,,,,,,,,,,,,,,,,,,,,,,,,,,,,,,,,,,,,,,,,,,,,,,,,,,,,,,,,,,,,,,,,,,,,,,,,,,,,,,,,,,,,,,,,,,,,,,,,,,,,,,,,,,,,,,,,,,,,,,,,,,,,,
,,,,,,5c8f70a02675ca0001daf60a,62c538fd7e955d92c6b91f27,2022-07-06_09h26.27.403,Colour_Asymmetry_Pilot,2022.1.3,Win32,59.94844434,62c50e9c1127f2cd403a315f,0,2,2,62,1,fourtwo,,,,,,,,,,,,,,,,,,,,,,,,,,,,,,,,,,,,,,,,,,,,,,,,,,,,,,,,,,,,,,,,,,,,,,,,,,,,,,,,,,,,,,,,,,,,,,,,,,,,,,,,,,,,,,,,,,,,,,,,,,,,,,,,,,,,,,,,,,,,,,,,,,,,,,,,,,,,,
,,,,,,5c8f70a02675ca0001daf60a,62c538fd7e955d92c6b91f27,2022-07-06_09h26.27.403,Colour_Asymmetry_Pilot,2022.1.3,Win32,59.94844434,62c50e9c1127f2cd403a315f,0,3,3,2,1,twoone,,,,,,,,,,,,,,,,,,,,,,,,,,,,,,,,,,,,,,,,,,,,,,,,,,,,,,,,,,,,,,,,,,,,,,,,,,,,,,,,,,,,,,,,,,,,,,,,,,,,,,,,,,,,,,,,,,,,,,,,,,,,,,,,,,,,,,,,,,,,,,,,,,,,,,,,,,,,,
,,,,,,5c8f70a02675ca0001daf60a,62c538fd7e955d92c6b91f27,2022-07-06_09h26.27.403,Colour_Asymmetry_Pilot,2022.1.3,Win32,59.94844434,62c50e9c1127f2cd403a315f,0,4,4,115,1,twofour,,,,,,,,,,,,,,,,,,,,,,,,,,,,,,,,,,,,,,,,,,,,,,,,,,,,,,,,,,,,,,,,,,,,,,,,,,,,,,,,,,,,,,,,,,,,,,,,,,,,,,,,,,,,,,,,,,,,,,,,,,,,,,,,,,,,,,,,,,,,,,,,,,,,,,,,,,,,,
,,,,,,5c8f70a02675ca0001daf60a,62c538fd7e955d92c6b91f27,2022-07-06_09h26.27.403,Colour_Asymmetry_Pilot,2022.1.3,Win32,59.94844434,62c50e9c1127f2cd403a315f,0,5,5,47,1,fourthree,,,,,,,,,,,,,,,,,,,,,,,,,,,,,,,,,,,,,,,,,,,,,,,,,,,,,,,,,,,,,,,,,,,,,,,,,,,,,,,,,,,,,,,,,,,,,,,,,,,,,,,,,,,,,,,,,,,,,,,,,,,,,,,,,,,,,,,,,,,,,,,,,,,,,,,,,,,,,
,,,,,,5c8f70a02675ca0001daf60a,62c538fd7e955d92c6b91f27,2022-07-06_09h26.27.403,Colour_Asymmetry_Pilot,2022.1.3,Win32,59.94844434,62c50e9c1127f2cd403a315f,0,6,6,25,1,onethree,,,,,,,,,,,,,,,,,,,,,,,,,,,,,,,,,,,,,,,,,,,,,,,,,,,,,,,,,,,,,,,,,,,,,,,,,,,,,,,,,,,,,,,,,,,,,,,,,,,,,,,,,,,,,,,,,,,,,,,,,,,,,,,,,,,,,,,,,,,,,,,,,,,,,,,,,,,,,
,,,,,,5c8f70a02675ca0001daf60a,62c538fd7e955d92c6b91f27,2022-07-06_09h26.27.403,Colour_Asymmetry_Pilot,2022.1.3,Win32,59.94844434,62c50e9c1127f2cd403a315f,0,7,7,113,1,onethree,,,,,,,,,,,,,,,,,,,,,,,,,,,,,,,,,,,,,,,,,,,,,,,,,,,,,,,,,,,,,,,,,,,,,,,,,,,,,,,,,,,,,,,,,,,,,,,,,,,,,,,,,,,,,,,,,,,,,,,,,,,,,,,,,,,,,,,,,,,,,,,,,,,,,,,,,,,,,
,,,,,,5c8f70a02675ca0001daf60a,62c538fd7e955d92c6b91f27,2022-07-06_09h26.27.403,Colour_Asymmetry_Pilot,2022.1.3,Win32,59.94844434,62c50e9c1127f2cd403a315f,0,8,8,94,1,fourtwo,,,,,,,,,,,,,,,,,,,,,,,,,,,,,,,,,,,,,,,,,,,,,,,,,,,,,,,,,,,,,,,,,,,,,,,,,,,,,,,,,,,,,,,,,,,,,,,,,,,,,,,,,,,,,,,,,,,,,,,,,,,,,,,,,,,,,,,,,,,,,,,,,,,,,,,,,,,,,
,,,,,,5c8f70a02675ca0001daf60a,62c538fd7e955d92c6b91f27,2022-07-06_09h26.27.403,Colour_Asymmetry_Pilot,2022.1.3,Win32,59.94844434,62c50e9c1127f2cd403a315f,0,9,9,159,1,fourthree,,,,,,,,,,,,,,,,,,,,,,,,,,,,,,,,,,,,,,,,,,,,,,,,,,,,,,,,,,,,,,,,,,,,,,,,,,,,,,,,,,,,,,,,,,,,,,,,,,,,,,,,,,,,,,,,,,,,,,,,,,,,,,,,,,,,,,,,,,,,,,,,,,,,,,,,,,,,,
,,,,,,5c8f70a02675ca0001daf60a,62c538fd7e955d92c6b91f27,2022-07-06_09h26.27.403,Colour_Asymmetry_Pilot,2022.1.3,Win32,59.94844434,62c50e9c1127f2cd403a315f,0,10,10,53,1,threefour,,,,,,,,,,,,,,,,,,,,,,,,,,,,,,,,,,,,,,,,,,,,,,,,,,,,,,,,,,,,,,,,,,,,,,,,,,,,,,,,,,,,,,,,,,,,,,,,,,,,,,,,,,,,,,,,,,,,,,,,,,,,,,,,,,,,,,,,,,,,,,,,,,,,,,,,,,,,,
,,,,,,5c8f70a02675ca0001daf60a,62c538fd7e955d92c6b91f27,2022-07-06_09h26.27.403,Colour_Asymmetry_Pilot,2022.1.3,Win32,59.94844434,62c50e9c1127f2cd403a315f,0,11,11,121,1,onethree,,,,,,,,,,,,,,,,,,,,,,,,,,,,,,,,,,,,,,,,,,,,,,,,,,,,,,,,,,,,,,,,,,,,,,,,,,,,,,,,,,,,,,,,,,,,,,,,,,,,,,,,,,,,,,,,,,,,,,,,,,,,,,,,,,,,,,,,,,,,,,,,,,,,,,,,,,,,,
,,,,,,5c8f70a02675ca0001daf60a,62c538fd7e955d92c6b91f27,2022-07-06_09h26.27.403,Colour_Asymmetry_Pilot,2022.1.3,Win32,59.94844434,62c50e9c1127f2cd403a315f,0,12,12,98,1,twoone,,,,,,,,,,,,,,,,,,,,,,,,,,,,,,,,,,,,,,,,,,,,,,,,,,,,,,,,,,,,,,,,,,,,,,,,,,,,,,,,,,,,,,,,,,,,,,,,,,,,,,,,,,,,,,,,,,,,,,,,,,,,,,,,,,,,,,,,,,,,,,,,,,,,,,,,,,,,,
,,,,,,5c8f70a02675ca0001daf60a,62c538fd7e955d92c6b91f27,2022-07-06_09h26.27.403,Colour_Asymmetry_Pilot,2022.1.3,Win32,59.94844434,62c50e9c1127f2cd403a315f,0,13,13,78,1,fourtwo,,,,,,,,,,,,,,,,,,,,,,,,,,,,,,,,,,,,,,,,,,,,,,,,,,,,,,,,,,,,,,,,,,,,,,,,,,,,,,,,,,,,,,,,,,,,,,,,,,,,,,,,,,,,,,,,,,,,,,,,,,,,,,,,,,,,,,,,,,,,,,,,,,,,,,,,,,,,,
,,,,,,5c8f70a02675ca0001daf60a,62c538fd7e955d92c6b91f27,2022-07-06_09h26.27.403,Colour_Asymmetry_Pilot,2022.1.3,Win32,59.94844434,62c50e9c1127f2cd403a315f,0,14,14,9,1,onethree,,,,,,,,,,,,,,,,,,,,,,,,,,,,,,,,,,,,,,,,,,,,,,,,,,,,,,,,,,,,,,,,,,,,,,,,,,,,,,,,,,,,,,,,,,,,,,,,,,,,,,,,,,,,,,,,,,,,,,,,,,,,,,,,,,,,,,,,,,,,,,,,,,,,,,,,,,,,,
,,,,,,5c8f70a02675ca0001daf60a,62c538fd7e955d92c6b91f27,2022-07-06_09h26.27.403,Colour_Asymmetry_Pilot,2022.1.3,Win32,59.94844434,62c50e9c1127f2cd403a315f,0,15,15,151,1,fourthree,,,,,,,,,,,,,,,,,,,,,,,,,,,,,,,,,,,,,,,,,,,,,,,,,,,,,,,,,,,,,,,,,,,,,,,,,,,,,,,,,,,,,,,,,,,,,,,,,,,,,,,,,,,,,,,,,,,,,,,,,,,,,,,,,,,,,,,,,,,,,,,,,,,,,,,,,,,,,
,,,,,,5c8f70a02675ca0001daf60a,62c538fd7e955d92c6b91f27,2022-07-06_09h26.27.403,Colour_Asymmetry_Pilot,2022.1.3,Win32,59.94844434,62c50e9c1127f2cd403a315f,0,16,16,111,1,fourthree,,,,,,,,,,,,,,,,,,,,,,,,,,,,,,,,,,,,,,,,,,,,,,,,,,,,,,,,,,,,,,,,,,,,,,,,,,,,,,,,,,,,,,,,,,,,,,,,,,,,,,,,,,,,,,,,,,,,,,,,,,,,,,,,,,,,,,,,,,,,,,,,,,,,,,,,,,,,,
,,,,,,5c8f70a02675ca0001daf60a,62c538fd7e955d92c6b91f27,2022-07-06_09h26.27.403,Colour_Asymmetry_Pilot,2022.1.3,Win32,59.94844434,62c50e9c1127f2cd403a315f,0,17,17,27,1,twofour,,,,,,,,,,,,,,,,,,,,,,,,,,,,,,,,,,,,,,,,,,,,,,,,,,,,,,,,,,,,,,,,,,,,,,,,,,,,,,,,,,,,,,,,,,,,,,,,,,,,,,,,,,,,,,,,,,,,,,,,,,,,,,,,,,,,,,,,,,,,,,,,,,,,,,,,,,,,,
,,,,,,5c8f70a02675ca0001daf60a,62c538fd7e955d92c6b91f27,2022-07-06_09h26.27.403,Colour_Asymmetry_Pilot,2022.1.3,Win32,59.94844434,62c50e9c1127f2cd403a315f,0,18,18,145,1,onethree,,,,,,,,,,,,,,,,,,,,,,,,,,,,,,,,,,,,,,,,,,,,,,,,,,,,,,,,,,,,,,,,,,,,,,,,,,,,,,,,,,,,,,,,,,,,,,,,,,,,,,,,,,,,,,,,,,,,,,,,,,,,,,,,,,,,,,,,,,,,,,,,,,,,,,,,,,,,,
,,,,,,5c8f70a02675ca0001daf60a,62c538fd7e955d92c6b91f27,2022-07-06_09h26.27.403,Colour_Asymmetry_Pilot,2022.1.3,Win32,59.94844434,62c50e9c1127f2cd403a315f,0,19,19,152,1,onetwo,,,,,,,,,,,,,,,,,,,,,,,,,,,,,,,,,,,,,,,,,,,,,,,,,,,,,,,,,,,,,,,,,,,,,,,,,,,,,,,,,,,,,,,,,,,,,,,,,,,,,,,,,,,,,,,,,,,,,,,,,,,,,,,,,,,,,,,,,,,,,,,,,,,,,,,,,,,,,
,,,,,,5c8f70a02675ca0001daf60a,62c538fd7e955d92c6b91f27,2022-07-06_09h26.27.403,Colour_Asymmetry_Pilot,2022.1.3,Win32,59.94844434,62c50e9c1127f2cd403a315f,0,20,20,33,1,onethree,,,,,,,,,,,,,,,,,,,,,,,,,,,,,,,,,,,,,,,,,,,,,,,,,,,,,,,,,,,,,,,,,,,,,,,,,,,,,,,,,,,,,,,,,,,,,,,,,,,,,,,,,,,,,,,,,,,,,,,,,,,,,,,,,,,,,,,,,,,,,,,,,,,,,,,,,,,,,
,,,,,,5c8f70a02675ca0001daf60a,62c538fd7e955d92c6b91f27,2022-07-06_09h26.27.403,Colour_Asymmetry_Pilot,2022.1.3,Win32,59.94844434,62c50e9c1127f2cd403a315f,0,21,21,21,1,threefour,,,,,,,,,,,,,,,,,,,,,,,,,,,,,,,,,,,,,,,,,,,,,,,,,,,,,,,,,,,,,,,,,,,,,,,,,,,,,,,,,,,,,,,,,,,,,,,,,,,,,,,,,,,,,,,,,,,,,,,,,,,,,,,,,,,,,,,,,,,,,,,,,,,,,,,,,,,,,
,,,,,,5c8f70a02675ca0001daf60a,62c538fd7e955d92c6b91f27,2022-07-06_09h26.27.403,Colour_Asymmetry_Pilot,2022.1.3,Win32,59.94844434,62c50e9c1127f2cd403a315f,0,22,22,36,1,threeone,,,,,,,,,,,,,,,,,,,,,,,,,,,,,,,,,,,,,,,,,,,,,,,,,,,,,,,,,,,,,,,,,,,,,,,,,,,,,,,,,,,,,,,,,,,,,,,,,,,,,,,,,,,,,,,,,,,,,,,,,,,,,,,,,,,,,,,,,,,,,,,,,,,,,,,,,,,,,
,,,,,,5c8f70a02675ca0001daf60a,62c538fd7e955d92c6b91f27,2022-07-06_09h26.27.403,Colour_Asymmetry_Pilot,2022.1.3,Win32,59.94844434,62c50e9c1127f2cd403a315f,0,23,23,65,1,onethree,,,,,,,,,,,,,,,,,,,,,,,,,,,,,,,,,,,,,,,,,,,,,,,,,,,,,,,,,,,,,,,,,,,,,,,,,,,,,,,,,,,,,,,,,,,,,,,,,,,,,,,,,,,,,,,,,,,,,,,,,,,,,,,,,,,,,,,,,,,,,,,,,,,,,,,,,,,,,
,,,,,,5c8f70a02675ca0001daf60a,62c538fd7e955d92c6b91f27,2022-07-06_09h26.27.403,Colour_Asymmetry_Pilot,2022.1.3,Win32,59.94844434,62c50e9c1127f2cd403a315f,0,24,24,4,1,threeone,,,,,,,,,,,,,,,,,,,,,,,,,,,,,,,,,,,,,,,,,,,,,,,,,,,,,,,,,,,,,,,,,,,,,,,,,,,,,,,,,,,,,,,,,,,,,,,,,,,,,,,,,,,,,,,,,,,,,,,,,,,,,,,,,,,,,,,,,,,,,,,,,,,,,,,,,,,,,
,,,,,,5c8f70a02675ca0001daf60a,62c538fd7e955d92c6b91f27,2022-07-06_09h26.27.403,Colour_Asymmetry_Pilot,2022.1.3,Win32,59.94844434,62c50e9c1127f2cd403a315f,0,25,25,124,1,threeone,,,,,,,,,,,,,,,,,,,,,,,,,,,,,,,,,,,,,,,,,,,,,,,,,,,,,,,,,,,,,,,,,,,,,,,,,,,,,,,,,,,,,,,,,,,,,,,,,,,,,,,,,,,,,,,,,,,,,,,,,,,,,,,,,,,,,,,,,,,,,,,,,,,,,,,,,,,,,
,,,,,,5c8f70a02675ca0001daf60a,62c538fd7e955d92c6b91f27,2022-07-06_09h26.27.403,Colour_Asymmetry_Pilot,2022.1.3,Win32,59.94844434,62c50e9c1127f2cd403a315f,0,26,26,156,1,threeone,,,,,,,,,,,,,,,,,,,,,,,,,,,,,,,,,,,,,,,,,,,,,,,,,,,,,,,,,,,,,,,,,,,,,,,,,,,,,,,,,,,,,,,,,,,,,,,,,,,,,,,,,,,,,,,,,,,,,,,,,,,,,,,,,,,,,,,,,,,,,,,,,,,,,,,,,,,,,
,,,,,,5c8f70a02675ca0001daf60a,62c538fd7e955d92c6b91f27,2022-07-06_09h26.27.403,Colour_Asymmetry_Pilot,2022.1.3,Win32,59.94844434,62c50e9c1127f2cd403a315f,0,27,27,6,1,fourtwo,,,,,,,,,,,,,,,,,,,,,,,,,,,,,,,,,,,,,,,,,,,,,,,,,,,,,,,,,,,,,,,,,,,,,,,,,,,,,,,,,,,,,,,,,,,,,,,,,,,,,,,,,,,,,,,,,,,,,,,,,,,,,,,,,,,,,,,,,,,,,,,,,,,,,,,,,,,,,
,,,,,,5c8f70a02675ca0001daf60a,62c538fd7e955d92c6b91f27,2022-07-06_09h26.27.403,Colour_Asymmetry_Pilot,2022.1.3,Win32,59.94844434,62c50e9c1127f2cd403a315f,0,28,28,13,1,threefour,,,,,,,,,,,,,,,,,,,,,,,,,,,,,,,,,,,,,,,,,,,,,,,,,,,,,,,,,,,,,,,,,,,,,,,,,,,,,,,,,,,,,,,,,,,,,,,,,,,,,,,,,,,,,,,,,,,,,,,,,,,,,,,,,,,,,,,,,,,,,,,,,,,,,,,,,,,,,
,,,,,,5c8f70a02675ca0001daf60a,62c538fd7e955d92c6b91f27,2022-07-06_09h26.27.403,Colour_Asymmetry_Pilot,2022.1.3,Win32,59.94844434,62c50e9c1127f2cd403a315f,0,29,29,109,1,threefour,,,,,,,,,,,,,,,,,,,,,,,,,,,,,,,,,,,,,,,,,,,,,,,,,,,,,,,,,,,,,,,,,,,,,,,,,,,,,,,,,,,,,,,,,,,,,,,,,,,,,,,,,,,,,,,,,,,,,,,,,,,,,,,,,,,,,,,,,,,,,,,,,,,,,,,,,,,,,
,,,,,,5c8f70a02675ca0001daf60a,62c538fd7e955d92c6b91f27,2022-07-06_09h26.27.403,Colour_Asymmetry_Pilot,2022.1.3,Win32,59.94844434,62c50e9c1127f2cd403a315f,0,30,30,35,1,twofour,,,,,,,,,,,,,,,,,,,,,,,,,,,,,,,,,,,,,,,,,,,,,,,,,,,,,,,,,,,,,,,,,,,,,,,,,,,,,,,,,,,,,,,,,,,,,,,,,,,,,,,,,,,,,,,,,,,,,,,,,,,,,,,,,,,,,,,,,,,,,,,,,,,,,,,,,,,,,
,,,,,,5c8f70a02675ca0001daf60a,62c538fd7e955d92c6b91f27,2022-07-06_09h26.27.403,Colour_Asymmetry_Pilot,2022.1.3,Win32,59.94844434,62c50e9c1127f2cd403a315f,0,31,31,96,1,onetwo,,,,,,,,,,,,,,,,,,,,,,,,,,,,,,,,,,,,,,,,,,,,,,,,,,,,,,,,,,,,,,,,,,,,,,,,,,,,,,,,,,,,,,,,,,,,,,,,,,,,,,,,,,,,,,,,,,,,,,,,,,,,,,,,,,,,,,,,,,,,,,,,,,,,,,,,,,,,,
,,,,,,5c8f70a02675ca0001daf60a,62c538fd7e955d92c6b91f27,2022-07-06_09h26.27.403,Colour_Asymmetry_Pilot,2022.1.3,Win32,59.94844434,62c50e9c1127f2cd403a315f,0,32,32,90,1,twoone,,,,,,,,,,,,,,,,,,,,,,,,,,,,,,,,,,,,,,,,,,,,,,,,,,,,,,,,,,,,,,,,,,,,,,,,,,,,,,,,,,,,,,,,,,,,,,,,,,,,,,,,,,,,,,,,,,,,,,,,,,,,,,,,,,,,,,,,,,,,,,,,,,,,,,,,,,,,,
,,,,,,5c8f70a02675ca0001daf60a,62c538fd7e955d92c6b91f27,2022-07-06_09h26.27.403,Colour_Asymmetry_Pilot,2022.1.3,Win32,59.94844434,62c50e9c1127f2cd403a315f,0,33,33,69,1,threefour,,,,,,,,,,,,,,,,,,,,,,,,,,,,,,,,,,,,,,,,,,,,,,,,,,,,,,,,,,,,,,,,,,,,,,,,,,,,,,,,,,,,,,,,,,,,,,,,,,,,,,,,,,,,,,,,,,,,,,,,,,,,,,,,,,,,,,,,,,,,,,,,,,,,,,,,,,,,,
,,,,,,5c8f70a02675ca0001daf60a,62c538fd7e955d92c6b91f27,2022-07-06_09h26.27.403,Colour_Asymmetry_Pilot,2022.1.3,Win32,59.94844434,62c50e9c1127f2cd403a315f,0,34,34,30,1,fourtwo,,,,,,,,,,,,,,,,,,,,,,,,,,,,,,,,,,,,,,,,,,,,,,,,,,,,,,,,,,,,,,,,,,,,,,,,,,,,,,,,,,,,,,,,,,,,,,,,,,,,,,,,,,,,,,,,,,,,,,,,,,,,,,,,,,,,,,,,,,,,,,,,,,,,,,,,,,,,,
,,,,,,5c8f70a02675ca0001daf60a,62c538fd7e955d92c6b91f27,2022-07-06_09h26.27.403,Colour_Asymmetry_Pilot,2022.1.3,Win32,59.94844434,62c50e9c1127f2cd403a315f,0,35,35,11,1,twofour,,,,,,,,,,,,,,,,,,,,,,,,,,,,,,,,,,,,,,,,,,,,,,,,,,,,,,,,,,,,,,,,,,,,,,,,,,,,,,,,,,,,,,,,,,,,,,,,,,,,,,,,,,,,,,,,,,,,,,,,,,,,,,,,,,,,,,,,,,,,,,,,,,,,,,,,,,,,,
,,,,,,5c8f70a02675ca0001daf60a,62c538fd7e955d92c6b91f27,2022-07-06_09h26.27.403,Colour_Asymmetry_Pilot,2022.1.3,Win32,59.94844434,62c50e9c1127f2cd403a315f,0,36,36,1,1,onethree,,,,,,,,,,,,,,,,,,,,,,,,,,,,,,,,,,,,,,,,,,,,,,,,,,,,,,,,,,,,,,,,,,,,,,,,,,,,,,,,,,,,,,,,,,,,,,,,,,,,,,,,,,,,,,,,,,,,,,,,,,,,,,,,,,,,,,,,,,,,,,,,,,,,,,,,,,,,,
,,,,,,5c8f70a02675ca0001daf60a,62c538fd7e955d92c6b91f27,2022-07-06_09h26.27.403,Colour_Asymmetry_Pilot,2022.1.3,Win32,59.94844434,62c50e9c1127f2cd403a315f,0,37,37,137,1,onethree,,,,,,,,,,,,,,,,,,,,,,,,,,,,,,,,,,,,,,,,,,,,,,,,,,,,,,,,,,,,,,,,,,,,,,,,,,,,,,,,,,,,,,,,,,,,,,,,,,,,,,,,,,,,,,,,,,,,,,,,,,,,,,,,,,,,,,,,,,,,,,,,,,,,,,,,,,,,,
,,,,,,5c8f70a02675ca0001daf60a,62c538fd7e955d92c6b91f27,2022-07-06_09h26.27.403,Colour_Asymmetry_Pilot,2022.1.3,Win32,59.94844434,62c50e9c1127f2cd403a315f,0,38,38,108,1,threeone,,,,,,,,,,,,,,,,,,,,,,,,,,,,,,,,,,,,,,,,,,,,,,,,,,,,,,,,,,,,,,,,,,,,,,,,,,,,,,,,,,,,,,,,,,,,,,,,,,,,,,,,,,,,,,,,,,,,,,,,,,,,,,,,,,,,,,,,,,,,,,,,,,,,,,,,,,,,,
,,,,,,5c8f70a02675ca0001daf60a,62c538fd7e955d92c6b91f27,2022-07-06_09h26.27.403,Colour_Asymmetry_Pilot,2022.1.3,Win32,59.94844434,62c50e9c1127f2cd403a315f,0,39,39,48,1,onetwo,,,,,,,,,,,,,,,,,,,,,,,,,,,,,,,,,,,,,,,,,,,,,,,,,,,,,,,,,,,,,,,,,,,,,,,,,,,,,,,,,,,,,,,,,,,,,,,,,,,,,,,,,,,,,,,,,,,,,,,,,,,,,,,,,,,,,,,,,,,,,,,,,,,,,,,,,,,,,
,,,,,,5c8f70a02675ca0001daf60a,62c538fd7e955d92c6b91f27,2022-07-06_09h26.27.403,Colour_Asymmetry_Pilot,2022.1.3,Win32,59.94844434,62c50e9c1127f2cd403a315f,0,40,40,107,1,twofour,,,,,,,,,,,,,,,,,,,,,,,,,,,,,,,,,,,,,,,,,,,,,,,,,,,,,,,,,,,,,,,,,,,,,,,,,,,,,,,,,,,,,,,,,,,,,,,,,,,,,,,,,,,,,,,,,,,,,,,,,,,,,,,,,,,,,,,,,,,,,,,,,,,,,,,,,,,,,
,,,,,,5c8f70a02675ca0001daf60a,62c538fd7e955d92c6b91f27,2022-07-06_09h26.27.403,Colour_Asymmetry_Pilot,2022.1.3,Win32,59.94844434,62c50e9c1127f2cd403a315f,0,41,41,155,1,twofour,,,,,,,,,,,,,,,,,,,,,,,,,,,,,,,,,,,,,,,,,,,,,,,,,,,,,,,,,,,,,,,,,,,,,,,,,,,,,,,,,,,,,,,,,,,,,,,,,,,,,,,,,,,,,,,,,,,,,,,,,,,,,,,,,,,,,,,,,,,,,,,,,,,,,,,,,,,,,
,,,,,,5c8f70a02675ca0001daf60a,62c538fd7e955d92c6b91f27,2022-07-06_09h26.27.403,Colour_Asymmetry_Pilot,2022.1.3,Win32,59.94844434,62c50e9c1127f2cd403a315f,0,42,42,63,1,fourthree,,,,,,,,,,,,,,,,,,,,,,,,,,,,,,,,,,,,,,,,,,,,,,,,,,,,,,,,,,,,,,,,,,,,,,,,,,,,,,,,,,,,,,,,,,,,,,,,,,,,,,,,,,,,,,,,,,,,,,,,,,,,,,,,,,,,,,,,,,,,,,,,,,,,,,,,,,,,,
,,,,,,5c8f70a02675ca0001daf60a,62c538fd7e955d92c6b91f27,2022-07-06_09h26.27.403,Colour_Asymmetry_Pilot,2022.1.3,Win32,59.94844434,62c50e9c1127f2cd403a315f,0,43,43,49,1,onethree,,,,,,,,,,,,,,,,,,,,,,,,,,,,,,,,,,,,,,,,,,,,,,,,,,,,,,,,,,,,,,,,,,,,,,,,,,,,,,,,,,,,,,,,,,,,,,,,,,,,,,,,,,,,,,,,,,,,,,,,,,,,,,,,,,,,,,,,,,,,,,,,,,,,,,,,,,,,,
,,,,,,5c8f70a02675ca0001daf60a,62c538fd7e955d92c6b91f27,2022-07-06_09h26.27.403,Colour_Asymmetry_Pilot,2022.1.3,Win32,59.94844434,62c50e9c1127f2cd403a315f,0,44,44,12,1,threeone,,,,,,,,,,,,,,,,,,,,,,,,,,,,,,,,,,,,,,,,,,,,,,,,,,,,,,,,,,,,,,,,,,,,,,,,,,,,,,,,,,,,,,,,,,,,,,,,,,,,,,,,,,,,,,,,,,,,,,,,,,,,,,,,,,,,,,,,,,,,,,,,,,,,,,,,,,,,,
,,,,,,5c8f70a02675ca0001daf60a,62c538fd7e955d92c6b91f27,2022-07-06_09h26.27.403,Colour_Asymmetry_Pilot,2022.1.3,Win32,59.94844434,62c50e9c1127f2cd403a315f,0,45,45,112,1,onetwo,,,,,,,,,,,,,,,,,,,,,,,,,,,,,,,,,,,,,,,,,,,,,,,,,,,,,,,,,,,,,,,,,,,,,,,,,,,,,,,,,,,,,,,,,,,,,,,,,,,,,,,,,,,,,,,,,,,,,,,,,,,,,,,,,,,,,,,,,,,,,,,,,,,,,,,,,,,,,
,,,,,,5c8f70a02675ca0001daf60a,62c538fd7e955d92c6b91f27,2022-07-06_09h26.27.403,Colour_Asymmetry_Pilot,2022.1.3,Win32,59.94844434,62c50e9c1127f2cd403a315f,0,46,46,103,1,fourthree,,,,,,,,,,,,,,,,,,,,,,,,,,,,,,,,,,,,,,,,,,,,,,,,,,,,,,,,,,,,,,,,,,,,,,,,,,,,,,,,,,,,,,,,,,,,,,,,,,,,,,,,,,,,,,,,,,,,,,,,,,,,,,,,,,,,,,,,,,,,,,,,,,,,,,,,,,,,,
,,,,,,5c8f70a02675ca0001daf60a,62c538fd7e955d92c6b91f27,2022-07-06_09h26.27.403,Colour_Asymmetry_Pilot,2022.1.3,Win32,59.94844434,62c50e9c1127f2cd403a315f,0,47,47,116,1,threeone,,,,,,,,,,,,,,,,,,,,,,,,,,,,,,,,,,,,,,,,,,,,,,,,,,,,,,,,,,,,,,,,,,,,,,,,,,,,,,,,,,,,,,,,,,,,,,,,,,,,,,,,,,,,,,,,,,,,,,,,,,,,,,,,,,,,,,,,,,,,,,,,,,,,,,,,,,,,,
,,,,,,5c8f70a02675ca0001daf60a,62c538fd7e955d92c6b91f27,2022-07-06_09h26.27.403,Colour_Asymmetry_Pilot,2022.1.3,Win32,59.94844434,62c50e9c1127f2cd403a315f,0,48,48,149,1,threefour,,,,,,,,,,,,,,,,,,,,,,,,,,,,,,,,,,,,,,,,,,,,,,,,,,,,,,,,,,,,,,,,,,,,,,,,,,,,,,,,,,,,,,,,,,,,,,,,,,,,,,,,,,,,,,,,,,,,,,,,,,,,,,,,,,,,,,,,,,,,,,,,,,,,,,,,,,,,,
,,,,,,5c8f70a02675ca0001daf60a,62c538fd7e955d92c6b91f27,2022-07-06_09h26.27.403,Colour_Asymmetry_Pilot,2022.1.3,Win32,59.94844434,62c50e9c1127f2cd403a315f,0,49,49,100,1,threeone,,,,,,,,,,,,,,,,,,,,,,,,,,,,,,,,,,,,,,,,,,,,,,,,,,,,,,,,,,,,,,,,,,,,,,,,,,,,,,,,,,,,,,,,,,,,,,,,,,,,,,,,,,,,,,,,,,,,,,,,,,,,,,,,,,,,,,,,,,,,,,,,,,,,,,,,,,,,,
,,,,,,5c8f70a02675ca0001daf60a,62c538fd7e955d92c6b91f27,2022-07-06_09h26.27.403,Colour_Asymmetry_Pilot,2022.1.3,Win32,59.94844434,62c50e9c1127f2cd403a315f,0,50,50,20,1,threeone,,,,,,,,,,,,,,,,,,,,,,,,,,,,,,,,,,,,,,,,,,,,,,,,,,,,,,,,,,,,,,,,,,,,,,,,,,,,,,,,,,,,,,,,,,,,,,,,,,,,,,,,,,,,,,,,,,,,,,,,,,,,,,,,,,,,,,,,,,,,,,,,,,,,,,,,,,,,,
,,,,,,5c8f70a02675ca0001daf60a,62c538fd7e955d92c6b91f27,2022-07-06_09h26.27.403,Colour_Asymmetry_Pilot,2022.1.3,Win32,59.94844434,62c50e9c1127f2cd403a315f,0,51,51,153,1,onethree,,,,,,,,,,,,,,,,,,,,,,,,,,,,,,,,,,,,,,,,,,,,,,,,,,,,,,,,,,,,,,,,,,,,,,,,,,,,,,,,,,,,,,,,,,,,,,,,,,,,,,,,,,,,,,,,,,,,,,,,,,,,,,,,,,,,,,,,,,,,,,,,,,,,,,,,,,,,,
,,,,,,5c8f70a02675ca0001daf60a,62c538fd7e955d92c6b91f27,2022-07-06_09h26.27.403,Colour_Asymmetry_Pilot,2022.1.3,Win32,59.94844434,62c50e9c1127f2cd403a315f,0,52,52,93,1,threefour,,,,,,,,,,,,,,,,,,,,,,,,,,,,,,,,,,,,,,,,,,,,,,,,,,,,,,,,,,,,,,,,,,,,,,,,,,,,,,,,,,,,,,,,,,,,,,,,,,,,,,,,,,,,,,,,,,,,,,,,,,,,,,,,,,,,,,,,,,,,,,,,,,,,,,,,,,,,,
,,,,,,5c8f70a02675ca0001daf60a,62c538fd7e955d92c6b91f27,2022-07-06_09h26.27.403,Colour_Asymmetry_Pilot,2022.1.3,Win32,59.94844434,62c50e9c1127f2cd403a315f,0,53,53,72,1,onetwo,,,,,,,,,,,,,,,,,,,,,,,,,,,,,,,,,,,,,,,,,,,,,,,,,,,,,,,,,,,,,,,,,,,,,,,,,,,,,,,,,,,,,,,,,,,,,,,,,,,,,,,,,,,,,,,,,,,,,,,,,,,,,,,,,,,,,,,,,,,,,,,,,,,,,,,,,,,,,
,,,,,,5c8f70a02675ca0001daf60a,62c538fd7e955d92c6b91f27,2022-07-06_09h26.27.403,Colour_Asymmetry_Pilot,2022.1.3,Win32,59.94844434,62c50e9c1127f2cd403a315f,0,54,54,10,1,twoone,,,,,,,,,,,,,,,,,,,,,,,,,,,,,,,,,,,,,,,,,,,,,,,,,,,,,,,,,,,,,,,,,,,,,,,,,,,,,,,,,,,,,,,,,,,,,,,,,,,,,,,,,,,,,,,,,,,,,,,,,,,,,,,,,,,,,,,,,,,,,,,,,,,,,,,,,,,,,
,,,,,,5c8f70a02675ca0001daf60a,62c538fd7e955d92c6b91f27,2022-07-06_09h26.27.403,Colour_Asymmetry_Pilot,2022.1.3,Win32,59.94844434,62c50e9c1127f2cd403a315f,0,55,55,87,1,fourthree,,,,,,,,,,,,,,,,,,,,,,,,,,,,,,,,,,,,,,,,,,,,,,,,,,,,,,,,,,,,,,,,,,,,,,,,,,,,,,,,,,,,,,,,,,,,,,,,,,,,,,,,,,,,,,,,,,,,,,,,,,,,,,,,,,,,,,,,,,,,,,,,,,,,,,,,,,,,,
,,,,,,5c8f70a02675ca0001daf60a,62c538fd7e955d92c6b91f27,2022-07-06_09h26.27.403,Colour_Asymmetry_Pilot,2022.1.3,Win32,59.94844434,62c50e9c1127f2cd403a315f,0,56,56,56,1,onetwo,,,,,,,,,,,,,,,,,,,,,,,,,,,,,,,,,,,,,,,,,,,,,,,,,,,,,,,,,,,,,,,,,,,,,,,,,,,,,,,,,,,,,,,,,,,,,,,,,,,,,,,,,,,,,,,,,,,,,,,,,,,,,,,,,,,,,,,,,,,,,,,,,,,,,,,,,,,,,
,,,,,,5c8f70a02675ca0001daf60a,62c538fd7e955d92c6b91f27,2022-07-06_09h26.27.403,Colour_Asymmetry_Pilot,2022.1.3,Win32,59.94844434,62c50e9c1127f2cd403a315f,0,57,57,134,1,fourtwo,,,,,,,,,,,,,,,,,,,,,,,,,,,,,,,,,,,,,,,,,,,,,,,,,,,,,,,,,,,,,,,,,,,,,,,,,,,,,,,,,,,,,,,,,,,,,,,,,,,,,,,,,,,,,,,,,,,,,,,,,,,,,,,,,,,,,,,,,,,,,,,,,,,,,,,,,,,,,
,,,,,,5c8f70a02675ca0001daf60a,62c538fd7e955d92c6b91f27,2022-07-06_09h26.27.403,Colour_Asymmetry_Pilot,2022.1.3,Win32,59.94844434,62c50e9c1127f2cd403a315f,0,58,58,16,1,onetwo,,,,,,,,,,,,,,,,,,,,,,,,,,,,,,,,,,,,,,,,,,,,,,,,,,,,,,,,,,,,,,,,,,,,,,,,,,,,,,,,,,,,,,,,,,,,,,,,,,,,,,,,,,,,,,,,,,,,,,,,,,,,,,,,,,,,,,,,,,,,,,,,,,,,,,,,,,,,,
,,,,,,5c8f70a02675ca0001daf60a,62c538fd7e955d92c6b91f27,2022-07-06_09h26.27.403,Colour_Asymmetry_Pilot,2022.1.3,Win32,59.94844434,62c50e9c1127f2cd403a315f,0,59,59,85,1,threefour,,,,,,,,,,,,,,,,,,,,,,,,,,,,,,,,,,,,,,,,,,,,,,,,,,,,,,,,,,,,,,,,,,,,,,,,,,,,,,,,,,,,,,,,,,,,,,,,,,,,,,,,,,,,,,,,,,,,,,,,,,,,,,,,,,,,,,,,,,,,,,,,,,,,,,,,,,,,,
,,,,,,5c8f70a02675ca0001daf60a,62c538fd7e955d92c6b91f27,2022-07-06_09h26.27.403,Colour_Asymmetry_Pilot,2022.1.3,Win32,59.94844434,62c50e9c1127f2cd403a315f,0,60,60,59,1,twofour,,,,,,,,,,,,,,,,,,,,,,,,,,,,,,,,,,,,,,,,,,,,,,,,,,,,,,,,,,,,,,,,,,,,,,,,,,,,,,,,,,,,,,,,,,,,,,,,,,,,,,,,,,,,,,,,,,,,,,,,,,,,,,,,,,,,,,,,,,,,,,,,,,,,,,,,,,,,,
,,,,,,5c8f70a02675ca0001daf60a,62c538fd7e955d92c6b91f27,2022-07-06_09h26.27.403,Colour_Asymmetry_Pilot,2022.1.3,Win32,59.94844434,62c50e9c1127f2cd403a315f,0,61,61,46,1,fourtwo,,,,,,,,,,,,,,,,,,,,,,,,,,,,,,,,,,,,,,,,,,,,,,,,,,,,,,,,,,,,,,,,,,,,,,,,,,,,,,,,,,,,,,,,,,,,,,,,,,,,,,,,,,,,,,,,,,,,,,,,,,,,,,,,,,,,,,,,,,,,,,,,,,,,,,,,,,,,,
,,,,,,5c8f70a02675ca0001daf60a,62c538fd7e955d92c6b91f27,2022-07-06_09h26.27.403,Colour_Asymmetry_Pilot,2022.1.3,Win32,59.94844434,62c50e9c1127f2cd403a315f,0,62,62,140,1,threeone,,,,,,,,,,,,,,,,,,,,,,,,,,,,,,,,,,,,,,,,,,,,,,,,,,,,,,,,,,,,,,,,,,,,,,,,,,,,,,,,,,,,,,,,,,,,,,,,,,,,,,,,,,,,,,,,,,,,,,,,,,,,,,,,,,,,,,,,,,,,,,,,,,,,,,,,,,,,,
,,,,,,5c8f70a02675ca0001daf60a,62c538fd7e955d92c6b91f27,2022-07-06_09h26.27.403,Colour_Asymmetry_Pilot,2022.1.3,Win32,59.94844434,62c50e9c1127f2cd403a315f,0,63,63,43,1,twofour,,,,,,,,,,,,,,,,,,,,,,,,,,,,,,,,,,,,,,,,,,,,,,,,,,,,,,,,,,,,,,,,,,,,,,,,,,,,,,,,,,,,,,,,,,,,,,,,,,,,,,,,,,,,,,,,,,,,,,,,,,,,,,,,,,,,,,,,,,,,,,,,,,,,,,,,,,,,,
,,,,,,5c8f70a02675ca0001daf60a,62c538fd7e955d92c6b91f27,2022-07-06_09h26.27.403,Colour_Asymmetry_Pilot,2022.1.3,Win32,59.94844434,62c50e9c1127f2cd403a315f,0,64,64,32,1,onetwo,,,,,,,,,,,,,,,,,,,,,,,,,,,,,,,,,,,,,,,,,,,,,,,,,,,,,,,,,,,,,,,,,,,,,,,,,,,,,,,,,,,,,,,,,,,,,,,,,,,,,,,,,,,,,,,,,,,,,,,,,,,,,,,,,,,,,,,,,,,,,,,,,,,,,,,,,,,,,
,,,,,,5c8f70a02675ca0001daf60a,62c538fd7e955d92c6b91f27,2022-07-06_09h26.27.403,Colour_Asymmetry_Pilot,2022.1.3,Win32,59.94844434,62c50e9c1127f2cd403a315f,0,65,65,133,1,threefour,,,,,,,,,,,,,,,,,,,,,,,,,,,,,,,,,,,,,,,,,,,,,,,,,,,,,,,,,,,,,,,,,,,,,,,,,,,,,,,,,,,,,,,,,,,,,,,,,,,,,,,,,,,,,,,,,,,,,,,,,,,,,,,,,,,,,,,,,,,,,,,,,,,,,,,,,,,,,
,,,,,,5c8f70a02675ca0001daf60a,62c538fd7e955d92c6b91f27,2022-07-06_09h26.27.403,Colour_Asymmetry_Pilot,2022.1.3,Win32,59.94844434,62c50e9c1127f2cd403a315f,0,66,66,128,1,onetwo,,,,,,,,,,,,,,,,,,,,,,,,,,,,,,,,,,,,,,,,,,,,,,,,,,,,,,,,,,,,,,,,,,,,,,,,,,,,,,,,,,,,,,,,,,,,,,,,,,,,,,,,,,,,,,,,,,,,,,,,,,,,,,,,,,,,,,,,,,,,,,,,,,,,,,,,,,,,,
,,,,,,5c8f70a02675ca0001daf60a,62c538fd7e955d92c6b91f27,2022-07-06_09h26.27.403,Colour_Asymmetry_Pilot,2022.1.3,Win32,59.94844434,62c50e9c1127f2cd403a315f,0,67,67,18,1,twoone,,,,,,,,,,,,,,,,,,,,,,,,,,,,,,,,,,,,,,,,,,,,,,,,,,,,,,,,,,,,,,,,,,,,,,,,,,,,,,,,,,,,,,,,,,,,,,,,,,,,,,,,,,,,,,,,,,,,,,,,,,,,,,,,,,,,,,,,,,,,,,,,,,,,,,,,,,,,,
,,,,,,5c8f70a02675ca0001daf60a,62c538fd7e955d92c6b91f27,2022-07-06_09h26.27.403,Colour_Asymmetry_Pilot,2022.1.3,Win32,59.94844434,62c50e9c1127f2cd403a315f,0,68,68,79,1,fourthree,,,,,,,,,,,,,,,,,,,,,,,,,,,,,,,,,,,,,,,,,,,,,,,,,,,,,,,,,,,,,,,,,,,,,,,,,,,,,,,,,,,,,,,,,,,,,,,,,,,,,,,,,,,,,,,,,,,,,,,,,,,,,,,,,,,,,,,,,,,,,,,,,,,,,,,,,,,,,
,,,,,,5c8f70a02675ca0001daf60a,62c538fd7e955d92c6b91f27,2022-07-06_09h26.27.403,Colour_Asymmetry_Pilot,2022.1.3,Win32,59.94844434,62c50e9c1127f2cd403a315f,0,69,69,14,1,fourtwo,,,,,,,,,,,,,,,,,,,,,,,,,,,,,,,,,,,,,,,,,,,,,,,,,,,,,,,,,,,,,,,,,,,,,,,,,,,,,,,,,,,,,,,,,,,,,,,,,,,,,,,,,,,,,,,,,,,,,,,,,,,,,,,,,,,,,,,,,,,,,,,,,,,,,,,,,,,,,
,,,,,,5c8f70a02675ca0001daf60a,62c538fd7e955d92c6b91f27,2022-07-06_09h26.27.403,Colour_Asymmetry_Pilot,2022.1.3,Win32,59.94844434,62c50e9c1127f2cd403a315f,0,70,70,22,1,fourtwo,,,,,,,,,,,,,,,,,,,,,,,,,,,,,,,,,,,,,,,,,,,,,,,,,,,,,,,,,,,,,,,,,,,,,,,,,,,,,,,,,,,,,,,,,,,,,,,,,,,,,,,,,,,,,,,,,,,,,,,,,,,,,,,,,,,,,,,,,,,,,,,,,,,,,,,,,,,,,
,,,,,,5c8f70a02675ca0001daf60a,62c538fd7e955d92c6b91f27,2022-07-06_09h26.27.403,Colour_Asymmetry_Pilot,2022.1.3,Win32,59.94844434,62c50e9c1127f2cd403a315f,0,71,71,147,1,twofour,,,,,,,,,,,,,,,,,,,,,,,,,,,,,,,,,,,,,,,,,,,,,,,,,,,,,,,,,,,,,,,,,,,,,,,,,,,,,,,,,,,,,,,,,,,,,,,,,,,,,,,,,,,,,,,,,,,,,,,,,,,,,,,,,,,,,,,,,,,,,,,,,,,,,,,,,,,,,
,,,,,,5c8f70a02675ca0001daf60a,62c538fd7e955d92c6b91f27,2022-07-06_09h26.27.403,Colour_Asymmetry_Pilot,2022.1.3,Win32,59.94844434,62c50e9c1127f2cd403a315f,0,72,72,8,1,onetwo,,,,,,,,,,,,,,,,,,,,,,,,,,,,,,,,,,,,,,,,,,,,,,,,,,,,,,,,,,,,,,,,,,,,,,,,,,,,,,,,,,,,,,,,,,,,,,,,,,,,,,,,,,,,,,,,,,,,,,,,,,,,,,,,,,,,,,,,,,,,,,,,,,,,,,,,,,,,,
,,,,,,5c8f70a02675ca0001daf60a,62c538fd7e955d92c6b91f27,2022-07-06_09h26.27.403,Colour_Asymmetry_Pilot,2022.1.3,Win32,59.94844434,62c50e9c1127f2cd403a315f,0,73,73,104,1,onetwo,,,,,,,,,,,,,,,,,,,,,,,,,,,,,,,,,,,,,,,,,,,,,,,,,,,,,,,,,,,,,,,,,,,,,,,,,,,,,,,,,,,,,,,,,,,,,,,,,,,,,,,,,,,,,,,,,,,,,,,,,,,,,,,,,,,,,,,,,,,,,,,,,,,,,,,,,,,,,
,,,,,,5c8f70a02675ca0001daf60a,62c538fd7e955d92c6b91f27,2022-07-06_09h26.27.403,Colour_Asymmetry_Pilot,2022.1.3,Win32,59.94844434,62c50e9c1127f2cd403a315f,0,74,74,31,1,fourthree,,,,,,,,,,,,,,,,,,,,,,,,,,,,,,,,,,,,,,,,,,,,,,,,,,,,,,,,,,,,,,,,,,,,,,,,,,,,,,,,,,,,,,,,,,,,,,,,,,,,,,,,,,,,,,,,,,,,,,,,,,,,,,,,,,,,,,,,,,,,,,,,,,,,,,,,,,,,,
,,,,,,5c8f70a02675ca0001daf60a,62c538fd7e955d92c6b91f27,2022-07-06_09h26.27.403,Colour_Asymmetry_Pilot,2022.1.3,Win32,59.94844434,62c50e9c1127f2cd403a315f,0,75,75,142,1,fourtwo,,,,,,,,,,,,,,,,,,,,,,,,,,,,,,,,,,,,,,,,,,,,,,,,,,,,,,,,,,,,,,,,,,,,,,,,,,,,,,,,,,,,,,,,,,,,,,,,,,,,,,,,,,,,,,,,,,,,,,,,,,,,,,,,,,,,,,,,,,,,,,,,,,,,,,,,,,,,,
,,,,,,5c8f70a02675ca0001daf60a,62c538fd7e955d92c6b91f27,2022-07-06_09h26.27.403,Colour_Asymmetry_Pilot,2022.1.3,Win32,59.94844434,62c50e9c1127f2cd403a315f,0,76,76,3,1,twofour,,,,,,,,,,,,,,,,,,,,,,,,,,,,,,,,,,,,,,,,,,,,,,,,,,,,,,,,,,,,,,,,,,,,,,,,,,,,,,,,,,,,,,,,,,,,,,,,,,,,,,,,,,,,,,,,,,,,,,,,,,,,,,,,,,,,,,,,,,,,,,,,,,,,,,,,,,,,,
,,,,,,5c8f70a02675ca0001daf60a,62c538fd7e955d92c6b91f27,2022-07-06_09h26.27.403,Colour_Asymmetry_Pilot,2022.1.3,Win32,59.94844434,62c50e9c1127f2cd403a315f,0,77,77,44,1,threeone,,,,,,,,,,,,,,,,,,,,,,,,,,,,,,,,,,,,,,,,,,,,,,,,,,,,,,,,,,,,,,,,,,,,,,,,,,,,,,,,,,,,,,,,,,,,,,,,,,,,,,,,,,,,,,,,,,,,,,,,,,,,,,,,,,,,,,,,,,,,,,,,,,,,,,,,,,,,,
,,,,,,5c8f70a02675ca0001daf60a,62c538fd7e955d92c6b91f27,2022-07-06_09h26.27.403,Colour_Asymmetry_Pilot,2022.1.3,Win32,59.94844434,62c50e9c1127f2cd403a315f,0,78,78,92,1,threeone,,,,,,,,,,,,,,,,,,,,,,,,,,,,,,,,,,,,,,,,,,,,,,,,,,,,,,,,,,,,,,,,,,,,,,,,,,,,,,,,,,,,,,,,,,,,,,,,,,,,,,,,,,,,,,,,,,,,,,,,,,,,,,,,,,,,,,,,,,,,,,,,,,,,,,,,,,,,,
,,,,,,5c8f70a02675ca0001daf60a,62c538fd7e955d92c6b91f27,2022-07-06_09h26.27.403,Colour_Asymmetry_Pilot,2022.1.3,Win32,59.94844434,62c50e9c1127f2cd403a315f,0,79,79,135,1,fourthree,,,,,,,,,,,,,,,,,,,,,,,,,,,,,,,,,,,,,,,,,,,,,,,,,,,,,,,,,,,,,,,,,,,,,,,,,,,,,,,,,,,,,,,,,,,,,,,,,,,,,,,,,,,,,,,,,,,,,,,,,,,,,,,,,,,,,,,,,,,,,,,,,,,,,,,,,,,,,
,,,,,,5c8f70a02675ca0001daf60a,62c538fd7e955d92c6b91f27,2022-07-06_09h26.27.403,Colour_Asymmetry_Pilot,2022.1.3,Win32,59.94844434,62c50e9c1127f2cd403a315f,0,80,80,110,1,fourtwo,,,,,,,,,,,,,,,,,,,,,,,,,,,,,,,,,,,,,,,,,,,,,,,,,,,,,,,,,,,,,,,,,,,,,,,,,,,,,,,,,,,,,,,,,,,,,,,,,,,,,,,,,,,,,,,,,,,,,,,,,,,,,,,,,,,,,,,,,,,,,,,,,,,,,,,,,,,,,
,,,,,,5c8f70a02675ca0001daf60a,62c538fd7e955d92c6b91f27,2022-07-06_09h26.27.403,Colour_Asymmetry_Pilot,2022.1.3,Win32,59.94844434,62c50e9c1127f2cd403a315f,0,81,81,68,1,threeone,,,,,,,,,,,,,,,,,,,,,,,,,,,,,,,,,,,,,,,,,,,,,,,,,,,,,,,,,,,,,,,,,,,,,,,,,,,,,,,,,,,,,,,,,,,,,,,,,,,,,,,,,,,,,,,,,,,,,,,,,,,,,,,,,,,,,,,,,,,,,,,,,,,,,,,,,,,,,
,,,,,,5c8f70a02675ca0001daf60a,62c538fd7e955d92c6b91f27,2022-07-06_09h26.27.403,Colour_Asymmetry_Pilot,2022.1.3,Win32,59.94844434,62c50e9c1127f2cd403a315f,0,82,82,148,1,threeone,,,,,,,,,,,,,,,,,,,,,,,,,,,,,,,,,,,,,,,,,,,,,,,,,,,,,,,,,,,,,,,,,,,,,,,,,,,,,,,,,,,,,,,,,,,,,,,,,,,,,,,,,,,,,,,,,,,,,,,,,,,,,,,,,,,,,,,,,,,,,,,,,,,,,,,,,,,,,
,,,,,,5c8f70a02675ca0001daf60a,62c538fd7e955d92c6b91f27,2022-07-06_09h26.27.403,Colour_Asymmetry_Pilot,2022.1.3,Win32,59.94844434,62c50e9c1127f2cd403a315f,0,83,83,19,1,twofour,,,,,,,,,,,,,,,,,,,,,,,,,,,,,,,,,,,,,,,,,,,,,,,,,,,,,,,,,,,,,,,,,,,,,,,,,,,,,,,,,,,,,,,,,,,,,,,,,,,,,,,,,,,,,,,,,,,,,,,,,,,,,,,,,,,,,,,,,,,,,,,,,,,,,,,,,,,,,
,,,,,,5c8f70a02675ca0001daf60a,62c538fd7e955d92c6b91f27,2022-07-06_09h26.27.403,Colour_Asymmetry_Pilot,2022.1.3,Win32,59.94844434,62c50e9c1127f2cd403a315f,0,84,84,77,1,threefour,,,,,,,,,,,,,,,,,,,,,,,,,,,,,,,,,,,,,,,,,,,,,,,,,,,,,,,,,,,,,,,,,,,,,,,,,,,,,,,,,,,,,,,,,,,,,,,,,,,,,,,,,,,,,,,,,,,,,,,,,,,,,,,,,,,,,,,,,,,,,,,,,,,,,,,,,,,,,
,,,,,,5c8f70a02675ca0001daf60a,62c538fd7e955d92c6b91f27,2022-07-06_09h26.27.403,Colour_Asymmetry_Pilot,2022.1.3,Win32,59.94844434,62c50e9c1127f2cd403a315f,0,85,85,161,1,onethree,,,,,,,,,,,,,,,,,,,,,,,,,,,,,,,,,,,,,,,,,,,,,,,,,,,,,,,,,,,,,,,,,,,,,,,,,,,,,,,,,,,,,,,,,,,,,,,,,,,,,,,,,,,,,,,,,,,,,,,,,,,,,,,,,,,,,,,,,,,,,,,,,,,,,,,,,,,,,
,,,,,,5c8f70a02675ca0001daf60a,62c538fd7e955d92c6b91f27,2022-07-06_09h26.27.403,Colour_Asymmetry_Pilot,2022.1.3,Win32,59.94844434,62c50e9c1127f2cd403a315f,0,86,86,50,1,twoone,,,,,,,,,,,,,,,,,,,,,,,,,,,,,,,,,,,,,,,,,,,,,,,,,,,,,,,,,,,,,,,,,,,,,,,,,,,,,,,,,,,,,,,,,,,,,,,,,,,,,,,,,,,,,,,,,,,,,,,,,,,,,,,,,,,,,,,,,,,,,,,,,,,,,,,,,,,,,
,,,,,,5c8f70a02675ca0001daf60a,62c538fd7e955d92c6b91f27,2022-07-06_09h26.27.403,Colour_Asymmetry_Pilot,2022.1.3,Win32,59.94844434,62c50e9c1127f2cd403a315f,0,87,87,81,1,onethree,,,,,,,,,,,,,,,,,,,,,,,,,,,,,,,,,,,,,,,,,,,,,,,,,,,,,,,,,,,,,,,,,,,,,,,,,,,,,,,,,,,,,,,,,,,,,,,,,,,,,,,,,,,,,,,,,,,,,,,,,,,,,,,,,,,,,,,,,,,,,,,,,,,,,,,,,,,,,
,,,,,,5c8f70a02675ca0001daf60a,62c538fd7e955d92c6b91f27,2022-07-06_09h26.27.403,Colour_Asymmetry_Pilot,2022.1.3,Win32,59.94844434,62c50e9c1127f2cd403a315f,0,88,88,157,1,threefour,,,,,,,,,,,,,,,,,,,,,,,,,,,,,,,,,,,,,,,,,,,,,,,,,,,,,,,,,,,,,,,,,,,,,,,,,,,,,,,,,,,,,,,,,,,,,,,,,,,,,,,,,,,,,,,,,,,,,,,,,,,,,,,,,,,,,,,,,,,,,,,,,,,,,,,,,,,,,
,,,,,,5c8f70a02675ca0001daf60a,62c538fd7e955d92c6b91f27,2022-07-06_09h26.27.403,Colour_Asymmetry_Pilot,2022.1.3,Win32,59.94844434,62c50e9c1127f2cd403a315f,0,89,89,132,1,threeone,,,,,,,,,,,,,,,,,,,,,,,,,,,,,,,,,,,,,,,,,,,,,,,,,,,,,,,,,,,,,,,,,,,,,,,,,,,,,,,,,,,,,,,,,,,,,,,,,,,,,,,,,,,,,,,,,,,,,,,,,,,,,,,,,,,,,,,,,,,,,,,,,,,,,,,,,,,,,
,,,,,,5c8f70a02675ca0001daf60a,62c538fd7e955d92c6b91f27,2022-07-06_09h26.27.403,Colour_Asymmetry_Pilot,2022.1.3,Win32,59.94844434,62c50e9c1127f2cd403a315f,0,90,90,0,1,onetwo,,,,,,,,,,,,,,,,,,,,,,,,,,,,,,,,,,,,,,,,,,,,,,,,,,,,,,,,,,,,,,,,,,,,,,,,,,,,,,,,,,,,,,,,,,,,,,,,,,,,,,,,,,,,,,,,,,,,,,,,,,,,,,,,,,,,,,,,,,,,,,,,,,,,,,,,,,,,,
,,,,,,5c8f70a02675ca0001daf60a,62c538fd7e955d92c6b91f27,2022-07-06_09h26.27.403,Colour_Asymmetry_Pilot,2022.1.3,Win32,59.94844434,62c50e9c1127f2cd403a315f,0,91,91,91,1,twofour,,,,,,,,,,,,,,,,,,,,,,,,,,,,,,,,,,,,,,,,,,,,,,,,,,,,,,,,,,,,,,,,,,,,,,,,,,,,,,,,,,,,,,,,,,,,,,,,,,,,,,,,,,,,,,,,,,,,,,,,,,,,,,,,,,,,,,,,,,,,,,,,,,,,,,,,,,,,,
,,,,,,5c8f70a02675ca0001daf60a,62c538fd7e955d92c6b91f27,2022-07-06_09h26.27.403,Colour_Asymmetry_Pilot,2022.1.3,Win32,59.94844434,62c50e9c1127f2cd403a315f,0,92,92,71,1,fourthree,,,,,,,,,,,,,,,,,,,,,,,,,,,,,,,,,,,,,,,,,,,,,,,,,,,,,,,,,,,,,,,,,,,,,,,,,,,,,,,,,,,,,,,,,,,,,,,,,,,,,,,,,,,,,,,,,,,,,,,,,,,,,,,,,,,,,,,,,,,,,,,,,,,,,,,,,,,,,
,,,,,,5c8f70a02675ca0001daf60a,62c538fd7e955d92c6b91f27,2022-07-06_09h26.27.403,Colour_Asymmetry_Pilot,2022.1.3,Win32,59.94844434,62c50e9c1127f2cd403a315f,0,93,93,117,1,threefour,,,,,,,,,,,,,,,,,,,,,,,,,,,,,,,,,,,,,,,,,,,,,,,,,,,,,,,,,,,,,,,,,,,,,,,,,,,,,,,,,,,,,,,,,,,,,,,,,,,,,,,,,,,,,,,,,,,,,,,,,,,,,,,,,,,,,,,,,,,,,,,,,,,,,,,,,,,,,
,,,,,,5c8f70a02675ca0001daf60a,62c538fd7e955d92c6b91f27,2022-07-06_09h26.27.403,Colour_Asymmetry_Pilot,2022.1.3,Win32,59.94844434,62c50e9c1127f2cd403a315f,0,94,94,29,1,threefour,,,,,,,,,,,,,,,,,,,,,,,,,,,,,,,,,,,,,,,,,,,,,,,,,,,,,,,,,,,,,,,,,,,,,,,,,,,,,,,,,,,,,,,,,,,,,,,,,,,,,,,,,,,,,,,,,,,,,,,,,,,,,,,,,,,,,,,,,,,,,,,,,,,,,,,,,,,,,
,,,,,,5c8f70a02675ca0001daf60a,62c538fd7e955d92c6b91f27,2022-07-06_09h26.27.403,Colour_Asymmetry_Pilot,2022.1.3,Win32,59.94844434,62c50e9c1127f2cd403a315f,0,95,95,158,1,fourtwo,,,,,,,,,,,,,,,,,,,,,,,,,,,,,,,,,,,,,,,,,,,,,,,,,,,,,,,,,,,,,,,,,,,,,,,,,,,,,,,,,,,,,,,,,,,,,,,,,,,,,,,,,,,,,,,,,,,,,,,,,,,,,,,,,,,,,,,,,,,,,,,,,,,,,,,,,,,,,
,,,,,,5c8f70a02675ca0001daf60a,62c538fd7e955d92c6b91f27,2022-07-06_09h26.27.403,Colour_Asymmetry_Pilot,2022.1.3,Win32,59.94844434,62c50e9c1127f2cd403a315f,0,96,96,129,1,onethree,,,,,,,,,,,,,,,,,,,,,,,,,,,,,,,,,,,,,,,,,,,,,,,,,,,,,,,,,,,,,,,,,,,,,,,,,,,,,,,,,,,,,,,,,,,,,,,,,,,,,,,,,,,,,,,,,,,,,,,,,,,,,,,,,,,,,,,,,,,,,,,,,,,,,,,,,,,,,
,,,,,,5c8f70a02675ca0001daf60a,62c538fd7e955d92c6b91f27,2022-07-06_09h26.27.403,Colour_Asymmetry_Pilot,2022.1.3,Win32,59.94844434,62c50e9c1127f2cd403a315f,0,97,97,154,1,twoone,,,,,,,,,,,,,,,,,,,,,,,,,,,,,,,,,,,,,,,,,,,,,,,,,,,,,,,,,,,,,,,,,,,,,,,,,,,,,,,,,,,,,,,,,,,,,,,,,,,,,,,,,,,,,,,,,,,,,,,,,,,,,,,,,,,,,,,,,,,,,,,,,,,,,,,,,,,,,
,,,,,,5c8f70a02675ca0001daf60a,62c538fd7e955d92c6b91f27,2022-07-06_09h26.27.403,Colour_Asymmetry_Pilot,2022.1.3,Win32,59.94844434,62c50e9c1127f2cd403a315f,0,98,98,83,1,twofour,,,,,,,,,,,,,,,,,,,,,,,,,,,,,,,,,,,,,,,,,,,,,,,,,,,,,,,,,,,,,,,,,,,,,,,,,,,,,,,,,,,,,,,,,,,,,,,,,,,,,,,,,,,,,,,,,,,,,,,,,,,,,,,,,,,,,,,,,,,,,,,,,,,,,,,,,,,,,
,,,,,,5c8f70a02675ca0001daf60a,62c538fd7e955d92c6b91f27,2022-07-06_09h26.27.403,Colour_Asymmetry_Pilot,2022.1.3,Win32,59.94844434,62c50e9c1127f2cd403a315f,0,99,99,120,1,onetwo,,,,,,,,,,,,,,,,,,,,,,,,,,,,,,,,,,,,,,,,,,,,,,,,,,,,,,,,,,,,,,,,,,,,,,,,,,,,,,,,,,,,,,,,,,,,,,,,,,,,,,,,,,,,,,,,,,,,,,,,,,,,,,,,,,,,,,,,,,,,,,,,,,,,,,,,,,,,,
,,,,,,5c8f70a02675ca0001daf60a,62c538fd7e955d92c6b91f27,2022-07-06_09h26.27.403,Colour_Asymmetry_Pilot,2022.1.3,Win32,59.94844434,62c50e9c1127f2cd403a315f,0,100,100,75,1,twofour,,,,,,,,,,,,,,,,,,,,,,,,,,,,,,,,,,,,,,,,,,,,,,,,,,,,,,,,,,,,,,,,,,,,,,,,,,,,,,,,,,,,,,,,,,,,,,,,,,,,,,,,,,,,,,,,,,,,,,,,,,,,,,,,,,,,,,,,,,,,,,,,,,,,,,,,,,,,,
,,,,,,5c8f70a02675ca0001daf60a,62c538fd7e955d92c6b91f27,2022-07-06_09h26.27.403,Colour_Asymmetry_Pilot,2022.1.3,Win32,59.94844434,62c50e9c1127f2cd403a315f,0,101,101,5,1,threefour,,,,,,,,,,,,,,,,,,,,,,,,,,,,,,,,,,,,,,,,,,,,,,,,,,,,,,,,,,,,,,,,,,,,,,,,,,,,,,,,,,,,,,,,,,,,,,,,,,,,,,,,,,,,,,,,,,,,,,,,,,,,,,,,,,,,,,,,,,,,,,,,,,,,,,,,,,,,,
,,,,,,5c8f70a02675ca0001daf60a,62c538fd7e955d92c6b91f27,2022-07-06_09h26.27.403,Colour_Asymmetry_Pilot,2022.1.3,Win32,59.94844434,62c50e9c1127f2cd403a315f,0,102,102,136,1,onetwo,,,,,,,,,,,,,,,,,,,,,,,,,,,,,,,,,,,,,,,,,,,,,,,,,,,,,,,,,,,,,,,,,,,,,,,,,,,,,,,,,,,,,,,,,,,,,,,,,,,,,,,,,,,,,,,,,,,,,,,,,,,,,,,,,,,,,,,,,,,,,,,,,,,,,,,,,,,,,
,,,,,,5c8f70a02675ca0001daf60a,62c538fd7e955d92c6b91f27,2022-07-06_09h26.27.403,Colour_Asymmetry_Pilot,2022.1.3,Win32,59.94844434,62c50e9c1127f2cd403a315f,0,103,103,126,1,fourtwo,,,,,,,,,,,,,,,,,,,,,,,,,,,,,,,,,,,,,,,,,,,,,,,,,,,,,,,,,,,,,,,,,,,,,,,,,,,,,,,,,,,,,,,,,,,,,,,,,,,,,,,,,,,,,,,,,,,,,,,,,,,,,,,,,,,,,,,,,,,,,,,,,,,,,,,,,,,,,
,,,,,,5c8f70a02675ca0001daf60a,62c538fd7e955d92c6b91f27,2022-07-06_09h26.27.403,Colour_Asymmetry_Pilot,2022.1.3,Win32,59.94844434,62c50e9c1127f2cd403a315f,0,104,104,114,1,twoone,,,,,,,,,,,,,,,,,,,,,,,,,,,,,,,,,,,,,,,,,,,,,,,,,,,,,,,,,,,,,,,,,,,,,,,,,,,,,,,,,,,,,,,,,,,,,,,,,,,,,,,,,,,,,,,,,,,,,,,,,,,,,,,,,,,,,,,,,,,,,,,,,,,,,,,,,,,,,
,,,,,,5c8f70a02675ca0001daf60a,62c538fd7e955d92c6b91f27,2022-07-06_09h26.27.403,Colour_Asymmetry_Pilot,2022.1.3,Win32,59.94844434,62c50e9c1127f2cd403a315f,0,105,105,80,1,onetwo,,,,,,,,,,,,,,,,,,,,,,,,,,,,,,,,,,,,,,,,,,,,,,,,,,,,,,,,,,,,,,,,,,,,,,,,,,,,,,,,,,,,,,,,,,,,,,,,,,,,,,,,,,,,,,,,,,,,,,,,,,,,,,,,,,,,,,,,,,,,,,,,,,,,,,,,,,,,,
,,,,,,5c8f70a02675ca0001daf60a,62c538fd7e955d92c6b91f27,2022-07-06_09h26.27.403,Colour_Asymmetry_Pilot,2022.1.3,Win32,59.94844434,62c50e9c1127f2cd403a315f,0,106,106,37,1,threefour,,,,,,,,,,,,,,,,,,,,,,,,,,,,,,,,,,,,,,,,,,,,,,,,,,,,,,,,,,,,,,,,,,,,,,,,,,,,,,,,,,,,,,,,,,,,,,,,,,,,,,,,,,,,,,,,,,,,,,,,,,,,,,,,,,,,,,,,,,,,,,,,,,,,,,,,,,,,,
,,,,,,5c8f70a02675ca0001daf60a,62c538fd7e955d92c6b91f27,2022-07-06_09h26.27.403,Colour_Asymmetry_Pilot,2022.1.3,Win32,59.94844434,62c50e9c1127f2cd403a315f,0,107,107,70,1,fourtwo,,,,,,,,,,,,,,,,,,,,,,,,,,,,,,,,,,,,,,,,,,,,,,,,,,,,,,,,,,,,,,,,,,,,,,,,,,,,,,,,,,,,,,,,,,,,,,,,,,,,,,,,,,,,,,,,,,,,,,,,,,,,,,,,,,,,,,,,,,,,,,,,,,,,,,,,,,,,,
,,,,,,5c8f70a02675ca0001daf60a,62c538fd7e955d92c6b91f27,2022-07-06_09h26.27.403,Colour_Asymmetry_Pilot,2022.1.3,Win32,59.94844434,62c50e9c1127f2cd403a315f,0,108,108,141,1,threefour,,,,,,,,,,,,,,,,,,,,,,,,,,,,,,,,,,,,,,,,,,,,,,,,,,,,,,,,,,,,,,,,,,,,,,,,,,,,,,,,,,,,,,,,,,,,,,,,,,,,,,,,,,,,,,,,,,,,,,,,,,,,,,,,,,,,,,,,,,,,,,,,,,,,,,,,,,,,,
,,,,,,5c8f70a02675ca0001daf60a,62c538fd7e955d92c6b91f27,2022-07-06_09h26.27.403,Colour_Asymmetry_Pilot,2022.1.3,Win32,59.94844434,62c50e9c1127f2cd403a315f,0,109,109,138,1,twoone,,,,,,,,,,,,,,,,,,,,,,,,,,,,,,,,,,,,,,,,,,,,,,,,,,,,,,,,,,,,,,,,,,,,,,,,,,,,,,,,,,,,,,,,,,,,,,,,,,,,,,,,,,,,,,,,,,,,,,,,,,,,,,,,,,,,,,,,,,,,,,,,,,,,,,,,,,,,,
,,,,,,5c8f70a02675ca0001daf60a,62c538fd7e955d92c6b91f27,2022-07-06_09h26.27.403,Colour_Asymmetry_Pilot,2022.1.3,Win32,59.94844434,62c50e9c1127f2cd403a315f,0,110,110,130,1,twoone,,,,,,,,,,,,,,,,,,,,,,,,,,,,,,,,,,,,,,,,,,,,,,,,,,,,,,,,,,,,,,,,,,,,,,,,,,,,,,,,,,,,,,,,,,,,,,,,,,,,,,,,,,,,,,,,,,,,,,,,,,,,,,,,,,,,,,,,,,,,,,,,,,,,,,,,,,,,,
,,,,,,5c8f70a02675ca0001daf60a,62c538fd7e955d92c6b91f27,2022-07-06_09h26.27.403,Colour_Asymmetry_Pilot,2022.1.3,Win32,59.94844434,62c50e9c1127f2cd403a315f,0,111,111,97,1,onethree,,,,,,,,,,,,,,,,,,,,,,,,,,,,,,,,,,,,,,,,,,,,,,,,,,,,,,,,,,,,,,,,,,,,,,,,,,,,,,,,,,,,,,,,,,,,,,,,,,,,,,,,,,,,,,,,,,,,,,,,,,,,,,,,,,,,,,,,,,,,,,,,,,,,,,,,,,,,,
,,,,,,5c8f70a02675ca0001daf60a,62c538fd7e955d92c6b91f27,2022-07-06_09h26.27.403,Colour_Asymmetry_Pilot,2022.1.3,Win32,59.94844434,62c50e9c1127f2cd403a315f,0,112,112,102,1,fourtwo,,,,,,,,,,,,,,,,,,,,,,,,,,,,,,,,,,,,,,,,,,,,,,,,,,,,,,,,,,,,,,,,,,,,,,,,,,,,,,,,,,,,,,,,,,,,,,,,,,,,,,,,,,,,,,,,,,,,,,,,,,,,,,,,,,,,,,,,,,,,,,,,,,,,,,,,,,,,,
,,,,,,5c8f70a02675ca0001daf60a,62c538fd7e955d92c6b91f27,2022-07-06_09h26.27.403,Colour_Asymmetry_Pilot,2022.1.3,Win32,59.94844434,62c50e9c1127f2cd403a315f,0,113,113,160,1,onetwo,,,,,,,,,,,,,,,,,,,,,,,,,,,,,,,,,,,,,,,,,,,,,,,,,,,,,,,,,,,,,,,,,,,,,,,,,,,,,,,,,,,,,,,,,,,,,,,,,,,,,,,,,,,,,,,,,,,,,,,,,,,,,,,,,,,,,,,,,,,,,,,,,,,,,,,,,,,,,
,,,,,,5c8f70a02675ca0001daf60a,62c538fd7e955d92c6b91f27,2022-07-06_09h26.27.403,Colour_Asymmetry_Pilot,2022.1.3,Win32,59.94844434,62c50e9c1127f2cd403a315f,0,114,114,52,1,threeone,,,,,,,,,,,,,,,,,,,,,,,,,,,,,,,,,,,,,,,,,,,,,,,,,,,,,,,,,,,,,,,,,,,,,,,,,,,,,,,,,,,,,,,,,,,,,,,,,,,,,,,,,,,,,,,,,,,,,,,,,,,,,,,,,,,,,,,,,,,,,,,,,,,,,,,,,,,,,
,,,,,,5c8f70a02675ca0001daf60a,62c538fd7e955d92c6b91f27,2022-07-06_09h26.27.403,Colour_Asymmetry_Pilot,2022.1.3,Win32,59.94844434,62c50e9c1127f2cd403a315f,0,115,115,61,1,threefour,,,,,,,,,,,,,,,,,,,,,,,,,,,,,,,,,,,,,,,,,,,,,,,,,,,,,,,,,,,,,,,,,,,,,,,,,,,,,,,,,,,,,,,,,,,,,,,,,,,,,,,,,,,,,,,,,,,,,,,,,,,,,,,,,,,,,,,,,,,,,,,,,,,,,,,,,,,,,
,,,,,,5c8f70a02675ca0001daf60a,62c538fd7e955d92c6b91f27,2022-07-06_09h26.27.403,Colour_Asymmetry_Pilot,2022.1.3,Win32,59.94844434,62c50e9c1127f2cd403a315f,0,116,116,7,1,fourthree,,,,,,,,,,,,,,,,,,,,,,,,,,,,,,,,,,,,,,,,,,,,,,,,,,,,,,,,,,,,,,,,,,,,,,,,,,,,,,,,,,,,,,,,,,,,,,,,,,,,,,,,,,,,,,,,,,,,,,,,,,,,,,,,,,,,,,,,,,,,,,,,,,,,,,,,,,,,,
,,,,,,5c8f70a02675ca0001daf60a,62c538fd7e955d92c6b91f27,2022-07-06_09h26.27.403,Colour_Asymmetry_Pilot,2022.1.3,Win32,59.94844434,62c50e9c1127f2cd403a315f,0,117,117,143,1,fourthree,,,,,,,,,,,,,,,,,,,,,,,,,,,,,,,,,,,,,,,,,,,,,,,,,,,,,,,,,,,,,,,,,,,,,,,,,,,,,,,,,,,,,,,,,,,,,,,,,,,,,,,,,,,,,,,,,,,,,,,,,,,,,,,,,,,,,,,,,,,,,,,,,,,,,,,,,,,,,
,,,,,,5c8f70a02675ca0001daf60a,62c538fd7e955d92c6b91f27,2022-07-06_09h26.27.403,Colour_Asymmetry_Pilot,2022.1.3,Win32,59.94844434,62c50e9c1127f2cd403a315f,0,118,118,84,1,threeone,,,,,,,,,,,,,,,,,,,,,,,,,,,,,,,,,,,,,,,,,,,,,,,,,,,,,,,,,,,,,,,,,,,,,,,,,,,,,,,,,,,,,,,,,,,,,,,,,,,,,,,,,,,,,,,,,,,,,,,,,,,,,,,,,,,,,,,,,,,,,,,,,,,,,,,,,,,,,
,,,,,,5c8f70a02675ca0001daf60a,62c538fd7e955d92c6b91f27,2022-07-06_09h26.27.403,Colour_Asymmetry_Pilot,2022.1.3,Win32,59.94844434,62c50e9c1127f2cd403a315f,0,119,119,105,1,onethree,,,,,,,,,,,,,,,,,,,,,,,,,,,,,,,,,,,,,,,,,,,,,,,,,,,,,,,,,,,,,,,,,,,,,,,,,,,,,,,,,,,,,,,,,,,,,,,,,,,,,,,,,,,,,,,,,,,,,,,,,,,,,,,,,,,,,,,,,,,,,,,,,,,,,,,,,,,,,
,,,,,,5c8f70a02675ca0001daf60a,62c538fd7e955d92c6b91f27,2022-07-06_09h26.27.403,Colour_Asymmetry_Pilot,2022.1.3,Win32,59.94844434,62c50e9c1127f2cd403a315f,0,120,120,17,1,onethree,,,,,,,,,,,,,,,,,,,,,,,,,,,,,,,,,,,,,,,,,,,,,,,,,,,,,,,,,,,,,,,,,,,,,,,,,,,,,,,,,,,,,,,,,,,,,,,,,,,,,,,,,,,,,,,,,,,,,,,,,,,,,,,,,,,,,,,,,,,,,,,,,,,,,,,,,,,,,
,,,,,,5c8f70a02675ca0001daf60a,62c538fd7e955d92c6b91f27,2022-07-06_09h26.27.403,Colour_Asymmetry_Pilot,2022.1.3,Win32,59.94844434,62c50e9c1127f2cd403a315f,0,121,121,118,1,fourtwo,,,,,,,,,,,,,,,,,,,,,,,,,,,,,,,,,,,,,,,,,,,,,,,,,,,,,,,,,,,,,,,,,,,,,,,,,,,,,,,,,,,,,,,,,,,,,,,,,,,,,,,,,,,,,,,,,,,,,,,,,,,,,,,,,,,,,,,,,,,,,,,,,,,,,,,,,,,,,
,,,,,,5c8f70a02675ca0001daf60a,62c538fd7e955d92c6b91f27,2022-07-06_09h26.27.403,Colour_Asymmetry_Pilot,2022.1.3,Win32,59.94844434,62c50e9c1127f2cd403a315f,0,122,122,86,1,fourtwo,,,,,,,,,,,,,,,,,,,,,,,,,,,,,,,,,,,,,,,,,,,,,,,,,,,,,,,,,,,,,,,,,,,,,,,,,,,,,,,,,,,,,,,,,,,,,,,,,,,,,,,,,,,,,,,,,,,,,,,,,,,,,,,,,,,,,,,,,,,,,,,,,,,,,,,,,,,,,
,,,,,,5c8f70a02675ca0001daf60a,62c538fd7e955d92c6b91f27,2022-07-06_09h26.27.403,Colour_Asymmetry_Pilot,2022.1.3,Win32,59.94844434,62c50e9c1127f2cd403a315f,0,123,123,123,1,twofour,,,,,,,,,,,,,,,,,,,,,,,,,,,,,,,,,,,,,,,,,,,,,,,,,,,,,,,,,,,,,,,,,,,,,,,,,,,,,,,,,,,,,,,,,,,,,,,,,,,,,,,,,,,,,,,,,,,,,,,,,,,,,,,,,,,,,,,,,,,,,,,,,,,,,,,,,,,,,
,,,,,,5c8f70a02675ca0001daf60a,62c538fd7e955d92c6b91f27,2022-07-06_09h26.27.403,Colour_Asymmetry_Pilot,2022.1.3,Win32,59.94844434,62c50e9c1127f2cd403a315f,0,124,124,139,1,twofour,,,,,,,,,,,,,,,,,,,,,,,,,,,,,,,,,,,,,,,,,,,,,,,,,,,,,,,,,,,,,,,,,,,,,,,,,,,,,,,,,,,,,,,,,,,,,,,,,,,,,,,,,,,,,,,,,,,,,,,,,,,,,,,,,,,,,,,,,,,,,,,,,,,,,,,,,,,,,
,,,,,,5c8f70a02675ca0001daf60a,62c538fd7e955d92c6b91f27,2022-07-06_09h26.27.403,Colour_Asymmetry_Pilot,2022.1.3,Win32,59.94844434,62c50e9c1127f2cd403a315f,0,125,125,45,1,threefour,,,,,,,,,,,,,,,,,,,,,,,,,,,,,,,,,,,,,,,,,,,,,,,,,,,,,,,,,,,,,,,,,,,,,,,,,,,,,,,,,,,,,,,,,,,,,,,,,,,,,,,,,,,,,,,,,,,,,,,,,,,,,,,,,,,,,,,,,,,,,,,,,,,,,,,,,,,,,
,,,,,,5c8f70a02675ca0001daf60a,62c538fd7e955d92c6b91f27,2022-07-06_09h26.27.403,Colour_Asymmetry_Pilot,2022.1.3,Win32,59.94844434,62c50e9c1127f2cd403a315f,0,126,126,34,1,twoone,,,,,,,,,,,,,,,,,,,,,,,,,,,,,,,,,,,,,,,,,,,,,,,,,,,,,,,,,,,,,,,,,,,,,,,,,,,,,,,,,,,,,,,,,,,,,,,,,,,,,,,,,,,,,,,,,,,,,,,,,,,,,,,,,,,,,,,,,,,,,,,,,,,,,,,,,,,,,
,,,,,,5c8f70a02675ca0001daf60a,62c538fd7e955d92c6b91f27,2022-07-06_09h26.27.403,Colour_Asymmetry_Pilot,2022.1.3,Win32,59.94844434,62c50e9c1127f2cd403a315f,0,127,127,39,1,fourthree,,,,,,,,,,,,,,,,,,,,,,,,,,,,,,,,,,,,,,,,,,,,,,,,,,,,,,,,,,,,,,,,,,,,,,,,,,,,,,,,,,,,,,,,,,,,,,,,,,,,,,,,,,,,,,,,,,,,,,,,,,,,,,,,,,,,,,,,,,,,,,,,,,,,,,,,,,,,,
,,,,,,5c8f70a02675ca0001daf60a,62c538fd7e955d92c6b91f27,2022-07-06_09h26.27.403,Colour_Asymmetry_Pilot,2022.1.3,Win32,59.94844434,62c50e9c1127f2cd403a315f,0,128,128,64,1,onetwo,,,,,,,,,,,,,,,,,,,,,,,,,,,,,,,,,,,,,,,,,,,,,,,,,,,,,,,,,,,,,,,,,,,,,,,,,,,,,,,,,,,,,,,,,,,,,,,,,,,,,,,,,,,,,,,,,,,,,,,,,,,,,,,,,,,,,,,,,,,,,,,,,,,,,,,,,,,,,
,,,,,,5c8f70a02675ca0001daf60a,62c538fd7e955d92c6b91f27,2022-07-06_09h26.27.403,Colour_Asymmetry_Pilot,2022.1.3,Win32,59.94844434,62c50e9c1127f2cd403a315f,0,129,129,60,1,threeone,,,,,,,,,,,,,,,,,,,,,,,,,,,,,,,,,,,,,,,,,,,,,,,,,,,,,,,,,,,,,,,,,,,,,,,,,,,,,,,,,,,,,,,,,,,,,,,,,,,,,,,,,,,,,,,,,,,,,,,,,,,,,,,,,,,,,,,,,,,,,,,,,,,,,,,,,,,,,
,,,,,,5c8f70a02675ca0001daf60a,62c538fd7e955d92c6b91f27,2022-07-06_09h26.27.403,Colour_Asymmetry_Pilot,2022.1.3,Win32,59.94844434,62c50e9c1127f2cd403a315f,0,130,130,26,1,twoone,,,,,,,,,,,,,,,,,,,,,,,,,,,,,,,,,,,,,,,,,,,,,,,,,,,,,,,,,,,,,,,,,,,,,,,,,,,,,,,,,,,,,,,,,,,,,,,,,,,,,,,,,,,,,,,,,,,,,,,,,,,,,,,,,,,,,,,,,,,,,,,,,,,,,,,,,,,,,
,,,,,,5c8f70a02675ca0001daf60a,62c538fd7e955d92c6b91f27,2022-07-06_09h26.27.403,Colour_Asymmetry_Pilot,2022.1.3,Win32,59.94844434,62c50e9c1127f2cd403a315f,0,131,131,55,1,fourthree,,,,,,,,,,,,,,,,,,,,,,,,,,,,,,,,,,,,,,,,,,,,,,,,,,,,,,,,,,,,,,,,,,,,,,,,,,,,,,,,,,,,,,,,,,,,,,,,,,,,,,,,,,,,,,,,,,,,,,,,,,,,,,,,,,,,,,,,,,,,,,,,,,,,,,,,,,,,,
,,,,,,5c8f70a02675ca0001daf60a,62c538fd7e955d92c6b91f27,2022-07-06_09h26.27.403,Colour_Asymmetry_Pilot,2022.1.3,Win32,59.94844434,62c50e9c1127f2cd403a315f,0,132,132,106,1,twoone,,,,,,,,,,,,,,,,,,,,,,,,,,,,,,,,,,,,,,,,,,,,,,,,,,,,,,,,,,,,,,,,,,,,,,,,,,,,,,,,,,,,,,,,,,,,,,,,,,,,,,,,,,,,,,,,,,,,,,,,,,,,,,,,,,,,,,,,,,,,,,,,,,,,,,,,,,,,,
,,,,,,5c8f70a02675ca0001daf60a,62c538fd7e955d92c6b91f27,2022-07-06_09h26.27.403,Colour_Asymmetry_Pilot,2022.1.3,Win32,59.94844434,62c50e9c1127f2cd403a315f,0,133,133,119,1,fourthree,,,,,,,,,,,,,,,,,,,,,,,,,,,,,,,,,,,,,,,,,,,,,,,,,,,,,,,,,,,,,,,,,,,,,,,,,,,,,,,,,,,,,,,,,,,,,,,,,,,,,,,,,,,,,,,,,,,,,,,,,,,,,,,,,,,,,,,,,,,,,,,,,,,,,,,,,,,,,
,,,,,,5c8f70a02675ca0001daf60a,62c538fd7e955d92c6b91f27,2022-07-06_09h26.27.403,Colour_Asymmetry_Pilot,2022.1.3,Win32,59.94844434,62c50e9c1127f2cd403a315f,0,134,134,67,1,twofour,,,,,,,,,,,,,,,,,,,,,,,,,,,,,,,,,,,,,,,,,,,,,,,,,,,,,,,,,,,,,,,,,,,,,,,,,,,,,,,,,,,,,,,,,,,,,,,,,,,,,,,,,,,,,,,,,,,,,,,,,,,,,,,,,,,,,,,,,,,,,,,,,,,,,,,,,,,,,
,,,,,,5c8f70a02675ca0001daf60a,62c538fd7e955d92c6b91f27,2022-07-06_09h26.27.403,Colour_Asymmetry_Pilot,2022.1.3,Win32,59.94844434,62c50e9c1127f2cd403a315f,0,135,135,95,1,fourthree,,,,,,,,,,,,,,,,,,,,,,,,,,,,,,,,,,,,,,,,,,,,,,,,,,,,,,,,,,,,,,,,,,,,,,,,,,,,,,,,,,,,,,,,,,,,,,,,,,,,,,,,,,,,,,,,,,,,,,,,,,,,,,,,,,,,,,,,,,,,,,,,,,,,,,,,,,,,,
,,,,,,5c8f70a02675ca0001daf60a,62c538fd7e955d92c6b91f27,2022-07-06_09h26.27.403,Colour_Asymmetry_Pilot,2022.1.3,Win32,59.94844434,62c50e9c1127f2cd403a315f,0,136,136,88,1,onetwo,,,,,,,,,,,,,,,,,,,,,,,,,,,,,,,,,,,,,,,,,,,,,,,,,,,,,,,,,,,,,,,,,,,,,,,,,,,,,,,,,,,,,,,,,,,,,,,,,,,,,,,,,,,,,,,,,,,,,,,,,,,,,,,,,,,,,,,,,,,,,,,,,,,,,,,,,,,,,
,,,,,,5c8f70a02675ca0001daf60a,62c538fd7e955d92c6b91f27,2022-07-06_09h26.27.403,Colour_Asymmetry_Pilot,2022.1.3,Win32,59.94844434,62c50e9c1127f2cd403a315f,0,137,137,51,1,twofour,,,,,,,,,,,,,,,,,,,,,,,,,,,,,,,,,,,,,,,,,,,,,,,,,,,,,,,,,,,,,,,,,,,,,,,,,,,,,,,,,,,,,,,,,,,,,,,,,,,,,,,,,,,,,,,,,,,,,,,,,,,,,,,,,,,,,,,,,,,,,,,,,,,,,,,,,,,,,
,,,,,,5c8f70a02675ca0001daf60a,62c538fd7e955d92c6b91f27,2022-07-06_09h26.27.403,Colour_Asymmetry_Pilot,2022.1.3,Win32,59.94844434,62c50e9c1127f2cd403a315f,0,138,138,127,1,fourthree,,,,,,,,,,,,,,,,,,,,,,,,,,,,,,,,,,,,,,,,,,,,,,,,,,,,,,,,,,,,,,,,,,,,,,,,,,,,,,,,,,,,,,,,,,,,,,,,,,,,,,,,,,,,,,,,,,,,,,,,,,,,,,,,,,,,,,,,,,,,,,,,,,,,,,,,,,,,,
,,,,,,5c8f70a02675ca0001daf60a,62c538fd7e955d92c6b91f27,2022-07-06_09h26.27.403,Colour_Asymmetry_Pilot,2022.1.3,Win32,59.94844434,62c50e9c1127f2cd403a315f,0,139,139,73,1,onethree,,,,,,,,,,,,,,,,,,,,,,,,,,,,,,,,,,,,,,,,,,,,,,,,,,,,,,,,,,,,,,,,,,,,,,,,,,,,,,,,,,,,,,,,,,,,,,,,,,,,,,,,,,,,,,,,,,,,,,,,,,,,,,,,,,,,,,,,,,,,,,,,,,,,,,,,,,,,,
,,,,,,5c8f70a02675ca0001daf60a,62c538fd7e955d92c6b91f27,2022-07-06_09h26.27.403,Colour_Asymmetry_Pilot,2022.1.3,Win32,59.94844434,62c50e9c1127f2cd403a315f,0,140,140,99,1,twofour,,,,,,,,,,,,,,,,,,,,,,,,,,,,,,,,,,,,,,,,,,,,,,,,,,,,,,,,,,,,,,,,,,,,,,,,,,,,,,,,,,,,,,,,,,,,,,,,,,,,,,,,,,,,,,,,,,,,,,,,,,,,,,,,,,,,,,,,,,,,,,,,,,,,,,,,,,,,,
,,,,,,5c8f70a02675ca0001daf60a,62c538fd7e955d92c6b91f27,2022-07-06_09h26.27.403,Colour_Asymmetry_Pilot,2022.1.3,Win32,59.94844434,62c50e9c1127f2cd403a315f,0,141,141,58,1,twoone,,,,,,,,,,,,,,,,,,,,,,,,,,,,,,,,,,,,,,,,,,,,,,,,,,,,,,,,,,,,,,,,,,,,,,,,,,,,,,,,,,,,,,,,,,,,,,,,,,,,,,,,,,,,,,,,,,,,,,,,,,,,,,,,,,,,,,,,,,,,,,,,,,,,,,,,,,,,,
,,,,,,5c8f70a02675ca0001daf60a,62c538fd7e955d92c6b91f27,2022-07-06_09h26.27.403,Colour_Asymmetry_Pilot,2022.1.3,Win32,59.94844434,62c50e9c1127f2cd403a315f,0,142,142,23,1,fourthree,,,,,,,,,,,,,,,,,,,,,,,,,,,,,,,,,,,,,,,,,,,,,,,,,,,,,,,,,,,,,,,,,,,,,,,,,,,,,,,,,,,,,,,,,,,,,,,,,,,,,,,,,,,,,,,,,,,,,,,,,,,,,,,,,,,,,,,,,,,,,,,,,,,,,,,,,,,,,
,,,,,,5c8f70a02675ca0001daf60a,62c538fd7e955d92c6b91f27,2022-07-06_09h26.27.403,Colour_Asymmetry_Pilot,2022.1.3,Win32,59.94844434,62c50e9c1127f2cd403a315f,0,143,143,122,1,twoone,,,,,,,,,,,,,,,,,,,,,,,,,,,,,,,,,,,,,,,,,,,,,,,,,,,,,,,,,,,,,,,,,,,,,,,,,,,,,,,,,,,,,,,,,,,,,,,,,,,,,,,,,,,,,,,,,,,,,,,,,,,,,,,,,,,,,,,,,,,,,,,,,,,,,,,,,,,,,
,,,,,,5c8f70a02675ca0001daf60a,62c538fd7e955d92c6b91f27,2022-07-06_09h26.27.403,Colour_Asymmetry_Pilot,2022.1.3,Win32,59.94844434,62c50e9c1127f2cd403a315f,0,144,144,131,1,twofour,,,,,,,,,,,,,,,,,,,,,,,,,,,,,,,,,,,,,,,,,,,,,,,,,,,,,,,,,,,,,,,,,,,,,,,,,,,,,,,,,,,,,,,,,,,,,,,,,,,,,,,,,,,,,,,,,,,,,,,,,,,,,,,,,,,,,,,,,,,,,,,,,,,,,,,,,,,,,
,,,,,,5c8f70a02675ca0001daf60a,62c538fd7e955d92c6b91f27,2022-07-06_09h26.27.403,Colour_Asymmetry_Pilot,2022.1.3,Win32,59.94844434,62c50e9c1127f2cd403a315f,0,145,145,41,1,onethree,,,,,,,,,,,,,,,,,,,,,,,,,,,,,,,,,,,,,,,,,,,,,,,,,,,,,,,,,,,,,,,,,,,,,,,,,,,,,,,,,,,,,,,,,,,,,,,,,,,,,,,,,,,,,,,,,,,,,,,,,,,,,,,,,,,,,,,,,,,,,,,,,,,,,,,,,,,,,
,,,,,,5c8f70a02675ca0001daf60a,62c538fd7e955d92c6b91f27,2022-07-06_09h26.27.403,Colour_Asymmetry_Pilot,2022.1.3,Win32,59.94844434,62c50e9c1127f2cd403a315f,0,146,146,144,1,onetwo,,,,,,,,,,,,,,,,,,,,,,,,,,,,,,,,,,,,,,,,,,,,,,,,,,,,,,,,,,,,,,,,,,,,,,,,,,,,,,,,,,,,,,,,,,,,,,,,,,,,,,,,,,,,,,,,,,,,,,,,,,,,,,,,,,,,,,,,,,,,,,,,,,,,,,,,,,,,,
,,,,,,5c8f70a02675ca0001daf60a,62c538fd7e955d92c6b91f27,2022-07-06_09h26.27.403,Colour_Asymmetry_Pilot,2022.1.3,Win32,59.94844434,62c50e9c1127f2cd403a315f,0,147,147,42,1,twoone,,,,,,,,,,,,,,,,,,,,,,,,,,,,,,,,,,,,,,,,,,,,,,,,,,,,,,,,,,,,,,,,,,,,,,,,,,,,,,,,,,,,,,,,,,,,,,,,,,,,,,,,,,,,,,,,,,,,,,,,,,,,,,,,,,,,,,,,,,,,,,,,,,,,,,,,,,,,,
,,,,,,5c8f70a02675ca0001daf60a,62c538fd7e955d92c6b91f27,2022-07-06_09h26.27.403,Colour_Asymmetry_Pilot,2022.1.3,Win32,59.94844434,62c50e9c1127f2cd403a315f,0,148,148,38,1,fourtwo,,,,,,,,,,,,,,,,,,,,,,,,,,,,,,,,,,,,,,,,,,,,,,,,,,,,,,,,,,,,,,,,,,,,,,,,,,,,,,,,,,,,,,,,,,,,,,,,,,,,,,,,,,,,,,,,,,,,,,,,,,,,,,,,,,,,,,,,,,,,,,,,,,,,,,,,,,,,,
,,,,,,5c8f70a02675ca0001daf60a,62c538fd7e955d92c6b91f27,2022-07-06_09h26.27.403,Colour_Asymmetry_Pilot,2022.1.3,Win32,59.94844434,62c50e9c1127f2cd403a315f,0,149,149,101,1,threefour,,,,,,,,,,,,,,,,,,,,,,,,,,,,,,,,,,,,,,,,,,,,,,,,,,,,,,,,,,,,,,,,,,,,,,,,,,,,,,,,,,,,,,,,,,,,,,,,,,,,,,,,,,,,,,,,,,,,,,,,,,,,,,,,,,,,,,,,,,,,,,,,,,,,,,,,,,,,,
,,,,,,5c8f70a02675ca0001daf60a,62c538fd7e955d92c6b91f27,2022-07-06_09h26.27.403,Colour_Asymmetry_Pilot,2022.1.3,Win32,59.94844434,62c50e9c1127f2cd403a315f,0,150,150,76,1,threeone,,,,,,,,,,,,,,,,,,,,,,,,,,,,,,,,,,,,,,,,,,,,,,,,,,,,,,,,,,,,,,,,,,,,,,,,,,,,,,,,,,,,,,,,,,,,,,,,,,,,,,,,,,,,,,,,,,,,,,,,,,,,,,,,,,,,,,,,,,,,,,,,,,,,,,,,,,,,,
,,,,,,5c8f70a02675ca0001daf60a,62c538fd7e955d92c6b91f27,2022-07-06_09h26.27.403,Colour_Asymmetry_Pilot,2022.1.3,Win32,59.94844434,62c50e9c1127f2cd403a315f,0,151,151,82,1,twoone,,,,,,,,,,,,,,,,,,,,,,,,,,,,,,,,,,,,,,,,,,,,,,,,,,,,,,,,,,,,,,,,,,,,,,,,,,,,,,,,,,,,,,,,,,,,,,,,,,,,,,,,,,,,,,,,,,,,,,,,,,,,,,,,,,,,,,,,,,,,,,,,,,,,,,,,,,,,,
,,,,,,5c8f70a02675ca0001daf60a,62c538fd7e955d92c6b91f27,2022-07-06_09h26.27.403,Colour_Asymmetry_Pilot,2022.1.3,Win32,59.94844434,62c50e9c1127f2cd403a315f,0,152,152,125,1,threefour,,,,,,,,,,,,,,,,,,,,,,,,,,,,,,,,,,,,,,,,,,,,,,,,,,,,,,,,,,,,,,,,,,,,,,,,,,,,,,,,,,,,,,,,,,,,,,,,,,,,,,,,,,,,,,,,,,,,,,,,,,,,,,,,,,,,,,,,,,,,,,,,,,,,,,,,,,,,,
,,,,,,5c8f70a02675ca0001daf60a,62c538fd7e955d92c6b91f27,2022-07-06_09h26.27.403,Colour_Asymmetry_Pilot,2022.1.3,Win32,59.94844434,62c50e9c1127f2cd403a315f,0,153,153,57,1,onethree,,,,,,,,,,,,,,,,,,,,,,,,,,,,,,,,,,,,,,,,,,,,,,,,,,,,,,,,,,,,,,,,,,,,,,,,,,,,,,,,,,,,,,,,,,,,,,,,,,,,,,,,,,,,,,,,,,,,,,,,,,,,,,,,,,,,,,,,,,,,,,,,,,,,,,,,,,,,,
,,,,,,5c8f70a02675ca0001daf60a,62c538fd7e955d92c6b91f27,2022-07-06_09h26.27.403,Colour_Asymmetry_Pilot,2022.1.3,Win32,59.94844434,62c50e9c1127f2cd403a315f,0,154,154,74,1,twoone,,,,,,,,,,,,,,,,,,,,,,,,,,,,,,,,,,,,,,,,,,,,,,,,,,,,,,,,,,,,,,,,,,,,,,,,,,,,,,,,,,,,,,,,,,,,,,,,,,,,,,,,,,,,,,,,,,,,,,,,,,,,,,,,,,,,,,,,,,,,,,,,,,,,,,,,,,,,,
,,,,,,5c8f70a02675ca0001daf60a,62c538fd7e955d92c6b91f27,2022-07-06_09h26.27.403,Colour_Asymmetry_Pilot,2022.1.3,Win32,59.94844434,62c50e9c1127f2cd403a315f,0,155,155,146,1,twoone,,,,,,,,,,,,,,,,,,,,,,,,,,,,,,,,,,,,,,,,,,,,,,,,,,,,,,,,,,,,,,,,,,,,,,,,,,,,,,,,,,,,,,,,,,,,,,,,,,,,,,,,,,,,,,,,,,,,,,,,,,,,,,,,,,,,,,,,,,,,,,,,,,,,,,,,,,,,,
,,,,,,5c8f70a02675ca0001daf60a,62c538fd7e955d92c6b91f27,2022-07-06_09h26.27.403,Colour_Asymmetry_Pilot,2022.1.3,Win32,59.94844434,62c50e9c1127f2cd403a315f,0,156,156,28,1,threeone,,,,,,,,,,,,,,,,,,,,,,,,,,,,,,,,,,,,,,,,,,,,,,,,,,,,,,,,,,,,,,,,,,,,,,,,,,,,,,,,,,,,,,,,,,,,,,,,,,,,,,,,,,,,,,,,,,,,,,,,,,,,,,,,,,,,,,,,,,,,,,,,,,,,,,,,,,,,,
,,,,,,5c8f70a02675ca0001daf60a,62c538fd7e955d92c6b91f27,2022-07-06_09h26.27.403,Colour_Asymmetry_Pilot,2022.1.3,Win32,59.94844434,62c50e9c1127f2cd403a315f,0,157,157,40,1,onetwo,,,,,,,,,,,,,,,,,,,,,,,,,,,,,,,,,,,,,,,,,,,,,,,,,,,,,,,,,,,,,,,,,,,,,,,,,,,,,,,,,,,,,,,,,,,,,,,,,,,,,,,,,,,,,,,,,,,,,,,,,,,,,,,,,,,,,,,,,,,,,,,,,,,,,,,,,,,,,
,,,,,,5c8f70a02675ca0001daf60a,62c538fd7e955d92c6b91f27,2022-07-06_09h26.27.403,Colour_Asymmetry_Pilot,2022.1.3,Win32,59.94844434,62c50e9c1127f2cd403a315f,0,158,158,24,1,onetwo,,,,,,,,,,,,,,,,,,,,,,,,,,,,,,,,,,,,,,,,,,,,,,,,,,,,,,,,,,,,,,,,,,,,,,,,,,,,,,,,,,,,,,,,,,,,,,,,,,,,,,,,,,,,,,,,,,,,,,,,,,,,,,,,,,,,,,,,,,,,,,,,,,,,,,,,,,,,,
,,,,,,5c8f70a02675ca0001daf60a,62c538fd7e955d92c6b91f27,2022-07-06_09h26.27.403,Colour_Asymmetry_Pilot,2022.1.3,Win32,59.94844434,62c50e9c1127f2cd403a315f,0,159,159,150,1,fourtwo,,,,,,,,,,,,,,,,,,,,,,,,,,,,,,,,,,,,,,,,,,,,,,,,,,,,,,,,,,,,,,,,,,,,,,,,,,,,,,,,,,,,,,,,,,,,,,,,,,,,,,,,,,,,,,,,,,,,,,,,,,,,,,,,,,,,,,,,,,,,,,,,,,,,,,,,,,,,,
,,,,,,5c8f70a02675ca0001daf60a,62c538fd7e955d92c6b91f27,2022-07-06_09h26.27.403,Colour_Asymmetry_Pilot,2022.1.3,Win32,59.94844434,62c50e9c1127f2cd403a315f,0,160,160,54,1,fourtwo,,,,,,,,,,,,,,,,,,,,,,,,,,,,,,,,,,,,,,,,,,,,,,,,,,,,,,,,,,,,,,,,,,,,,,,,,,,,,,,,,,,,,,,,,,,,,,,,,,,,,,,,,,,,,,,,,,,,,,,,,,,,,,,,,,,,,,,,,,,,,,,,,,,,,,,,,,,,,
,,,,,,5c8f70a02675ca0001daf60a,62c538fd7e955d92c6b91f27,2022-07-06_09h26.27.403,Colour_Asymmetry_Pilot,2022.1.3,Win32,59.94844434,62c50e9c1127f2cd403a315f,0,161,161,15,1,fourthree,,,,,,,,,,,,,,,,,,,,,,,,,,,,,,,,,,,,,,,,,,,,,,,,,,,,,,,,,,,,,,,,,,,,,,,,,,,,,,,,,,,,,,,,,,,,,,,,,,,,,,,,,,,,,,,,,,,,,,,,,,,,,,,,,,,,,,,,,,,,,,,,,,,,,,,,,,,,,
,,,,,,5c8f70a02675ca0001daf60a,62c538fd7e955d92c6b91f27,2022-07-06_09h26.27.403,Colour_Asymmetry_Pilot,2022.1.3,Win32,59.94844434,62c50e9c1127f2cd403a315f,,,,,,,space,1.8276,space,11.2923,space,41.1993,space,118.6094,space,4.8778,space,4.2431,"[0.23120000000000007,-0.7726,-0.34120000000000006]",onetwo,"[-0.09019999999999995,0.44300000000000006,0.5371999999999999]",-4,3.9542,-45.59997559,113.6000061,1,0,0,response7disk_5,-7.200012207,-2.399993896,1,0,0,rectangle_8,-7.200012207,-2.399993896,1,0,0,4,-7.200012207,-2.399993896,1,0,0,0,0,0,0,1,,,,,,,,,,,,,,,,,,,,,,,,,,,,,,,,,,,,,,,,,,,,,,,,,,,,,,,,,,,,,,,,,,,,,,,,,,,,,,,,,,,,,,,,,,,,,,,,,,,,,,,,,,,,,,,,
,,,,,,5c8f70a02675ca0001daf60a,62c538fd7e955d92c6b91f27,2022-07-06_09h26.27.403,Colour_Asymmetry_Pilot,2022.1.3,Win32,59.94844434,62c50e9c1127f2cd403a315f,,,,,,,,,,,,,,,,,,,"[0.7018,0.7802,-0.16079999999999994]",onetwo,"[-0.45899999999999996,-0.3256,-0.9374]",-3,4.7859,-114.3999634,57.6000061,1,0,0,response7disk_5,-3.200012207,5.600006104,1,0,0,rectangle_8,40.79998779,92,1,0,0,4,-24,-3.200012207,1,0,0,1,0,1,0,1,response1disk_7,7,rectangle_4,,,,,,,,,,,,,,,,,,,,,,,,,,,,,,,,,,,,,,,,,,,,,,,,,,,,,,,,,,,,,,,,,,,,,,,,,,,,,,,,,,,,,,,,,,,,,,,,,,,,,,,,,,,,,
,,,,,,5c8f70a02675ca0001daf60a,62c538fd7e955d92c6b91f27,2022-07-06_09h26.27.403,Colour_Asymmetry_Pilot,2022.1.3,Win32,59.94844434,62c50e9c1127f2cd403a315f,,,,,,,,,,,,,,,,,,,"[0.04299999999999993,0.16060000000000008,-0.6628000000000001]",fourtwo,"[0.18419999999999992,-0.4276,-0.404]",4,4.9834,98.40002441,105.6000061,1,0,0,response1disk_5,-8.799987793,6.399993896,1,0,0,rectangle_8,59.20001221,110.3999939,1,0,0,4,0,3.199981689,1,0,0,2,0,2,0,1,response1disk_7,7,rectangle_4,,,,,,,,,,,,,,,,,,,,,,,,,,,,,,,,,,,,,,,,,,,,,,,,,,,,,,,,,,,,,,,,,,,,,,,,,,,,,,,,,,,,,,,,,,,,,,,,,,,,,,,,,,,,,
,,,,,,5c8f70a02675ca0001daf60a,62c538fd7e955d92c6b91f27,2022-07-06_09h26.27.403,Colour_Asymmetry_Pilot,2022.1.3,Win32,59.94844434,62c50e9c1127f2cd403a315f,,,,,,,,,,,,,,,,,,,"[-0.38039999999999996,-0.4276,-0.1452]",threefour,"[0.0351999999999999,0.41159999999999997,0.0038000000000000256]",-3,4.6018,-95.20001221,70.3999939,1,0,0,response7disk_5,-1.599975586,9.600006104,1,0,0,rectangle_8,-1.599975586,9.600006104,1,0,0,4,-1.599975586,9.600006104,1,0,0,3,0,3,0,1,,,,,,,,,,,,,,,,,,,,,,,,,,,,,,,,,,,,,,,,,,,,,,,,,,,,,,,,,,,,,,,,,,,,,,,,,,,,,,,,,,,,,,,,,,,,,,,,,,,,,,,,,,,,,,,,
,,,,,,5c8f70a02675ca0001daf60a,62c538fd7e955d92c6b91f27,2022-07-06_09h26.27.403,Colour_Asymmetry_Pilot,2022.1.3,Win32,59.94844434,62c50e9c1127f2cd403a315f,,,,,,,,,,,,,,,,,,,"[-0.011800000000000033,-0.906,-0.45100000000000007]",onetwo,"[-0.9688,-0.38039999999999996,-0.41979999999999995]",-4,2.8525,-65.59997559,96.79998779,1,0,0,response7disk_5,1.600036621,8.799987793,1,0,0,rectangle_8,1.600036621,8.799987793,1,0,0,4,1.600036621,8.799987793,1,0,0,4,0,4,0,1,,,,,,,,,,,,,,,,,,,,,,,,,,,,,,,,,,,,,,,,,,,,,,,,,,,,,,,,,,,,,,,,,,,,,,,,,,,,,,,,,,,,,,,,,,,,,,,,,,,,,,,,,,,,,,,,
,,,,,,5c8f70a02675ca0001daf60a,62c538fd7e955d92c6b91f27,2022-07-06_09h26.27.403,Colour_Asymmetry_Pilot,2022.1.3,Win32,59.94844434,62c50e9c1127f2cd403a315f,,,,,,,,,,,,,,,,,,,"[0.37240000000000006,-0.050999999999999934,-0.5216]",fourthree,"[0.8115999999999999,-0.0040000000000000036,-0.09819999999999995]",2,2.8069,82.40002441,-38.3999939,1,0,0,response3disk_5,-33.59997559,10.3999939,1,0,0,rectangle_8,-33.59997559,10.3999939,1,0,0,4,-33.59997559,10.3999939,1,0,0,5,0,5,0,1,,,,,,,,,,,,,,,,,,,,,,,,,,,,,,,,,,,,,,,,,,,,,,,,,,,,,,,,,,,,,,,,,,,,,,,,,,,,,,,,,,,,,,,,,,,,,,,,,,,,,,,,,,,,,,,,
,,,,,,5c8f70a02675ca0001daf60a,62c538fd7e955d92c6b91f27,2022-07-06_09h26.27.403,Colour_Asymmetry_Pilot,2022.1.3,Win32,59.94844434,62c50e9c1127f2cd403a315f,,,,,,,,,,,,,,,,,,,"[0.3881999999999999,-0.23939999999999995,-0.05040000000000011]",onethree,"[-0.10599999999999998,-0.10599999999999998,0.5841999999999998]",-3,1.4015,-56.79998779,37.6000061,1,0,0,response7disk_5,-1.599975586,-4.800018311,1,0,0,rectangle_8,-1.599975586,-4.800018311,1,0,0,4,-1.599975586,-4.800018311,1,0,0,6,0,6,0,1,,,,,,,,,,,,,,,,,,,,,,,,,,,,,,,,,,,,,,,,,,,,,,,,,,,,,,,,,,,,,,,,,,,,,,,,,,,,,,,,,,,,,,,,,,,,,,,,,,,,,,,,,,,,,,,,
,,,,,,5c8f70a02675ca0001daf60a,62c538fd7e955d92c6b91f27,2022-07-06_09h26.27.403,Colour_Asymmetry_Pilot,2022.1.3,Win32,59.94844434,62c50e9c1127f2cd403a315f,,,,,,,,,,,,,,,,,,,,twoone,,-3,3.2824,,,,,,,,,,,,,,,,,,,,,,,,,,,,,,,,space,161.0071,"[0.7176,-0.906,-0.6864]","[0.6625999999999999,0.4980000000000002,-0.357]",-63.20001221,28,1,0,0,response7disk,0,2.399993896,1,0,0,rectangle,0,2.399993896,1,0,0,,3,0.0077,0,0,2.399993896,1,0,0,0,0,0,46,1,46,first,,,,,,,,,,,,,,,,,,,,,,,,,,,,,,,,,,,,,,,,,,,,,,,,,,,,,,,,,,,,,,,,,,,,,,,,
,,,,,,5c8f70a02675ca0001daf60a,62c538fd7e955d92c6b91f27,2022-07-06_09h26.27.403,Colour_Asymmetry_Pilot,2022.1.3,Win32,59.94844434,62c50e9c1127f2cd403a315f,,,,,,,,,,,,,,,,,,,,onethree,,-3,1.2948,,,,,,,,,,,,,,,,,,,,,,,,,,,,,,,,,,"[-0.2942,-0.24719999999999998,-0.357]","[-0.5452,-0.608,0.2470000000000001]",-100.7999878,52.79998779,1,0,0,response7disk,-7.200012207,-7.200012207,1,0,0,rectangle,-7.200012207,-7.200012207,1,0,0,,2,0.0064,0,-7.200012207,-7.200012207,1,0,0,0,1,1,43,1,43,first,,,,,,,,,,,,,,,,,,,,,,,,,,,,,,,,,,,,,,,,,,,,,,,,,,,,,,,,,,,,,,,,,,,,,,,,
,,,,,,5c8f70a02675ca0001daf60a,62c538fd7e955d92c6b91f27,2022-07-06_09h26.27.403,Colour_Asymmetry_Pilot,2022.1.3,Win32,59.94844434,62c50e9c1127f2cd403a315f,,,,,,,,,,,,,,,,,,,,fourtwo,,-4,0.948,,,,,,,,,,,,,,,,,,,,,,,,,,,,,,,,,,"[0.9763999999999999,0.8588,-0.05900000000000005]","[-0.9688,-0.4902000000000001,-0.12159999999999993]",-57.59997559,95.19998169,1,0,0,response7disk,-0.799987793,1.600006104,1,0,0,rectangle,-0.799987793,1.600006104,1,0,0,,2,0.0005,0,-0.799987793,1.600006104,1,0,0,0,2,2,33,1,33,first,,,,,,,,,,,,,,,,,,,,,,,,,,,,,,,,,,,,,,,,,,,,,,,,,,,,,,,,,,,,,,,,,,,,,,,,
,,,,,,5c8f70a02675ca0001daf60a,62c538fd7e955d92c6b91f27,2022-07-06_09h26.27.403,Colour_Asymmetry_Pilot,2022.1.3,Win32,59.94844434,62c50e9c1127f2cd403a315f,,,,,,,,,,,,,,,,,,,,twoone,,-3,1.1693,,,,,,,,,,,,,,,,,,,,,,,,,,,,,,,,,,"[-0.2942,-0.7648,-0.7492000000000001]","[-0.9138,-0.5296000000000001,-0.5529999999999999]",-75.20001221,33.6000061,1,0,0,response7disk,-4.799987793,-4.800018311,1,0,0,rectangle,-4.799987793,-4.800018311,1,0,0,,1,0.004,0,-4.799987793,-4.800018311,1,0,0,0,3,3,133,1,52,second,,,,,,,,,,,,,,,,,,,,,,,,,,,,,,,,,,,,,,,,,,,,,,,,,,,,,,,,,,,,,,,,,,,,,,,,
,,,,,,5c8f70a02675ca0001daf60a,62c538fd7e955d92c6b91f27,2022-07-06_09h26.27.403,Colour_Asymmetry_Pilot,2022.1.3,Win32,59.94844434,62c50e9c1127f2cd403a315f,,,,,,,,,,,,,,,,,,,,twofour,,-3,1.1824,,,,,,,,,,,,,,,,,,,,,,,,,,,,,,,,,,"[0.3881999999999999,-0.23939999999999995,-0.05040000000000011]","[1,0.12939999999999996,-1]",-65.59997559,39.19998169,1,0,0,response7disk,2.400024414,-4,1,0,0,rectangle,2.400024414,-4,1,0,0,,3,0.0046,0,2.400024414,-4,1,0,0,0,4,4,74,1,74,first,,,,,,,,,,,,,,,,,,,,,,,,,,,,,,,,,,,,,,,,,,,,,,,,,,,,,,,,,,,,,,,,,,,,,,,,
,,,,,,5c8f70a02675ca0001daf60a,62c538fd7e955d92c6b91f27,2022-07-06_09h26.27.403,Colour_Asymmetry_Pilot,2022.1.3,Win32,59.94844434,62c50e9c1127f2cd403a315f,,,,,,,,,,,,,,,,,,,,fourthree,,-4,0.8871,,,,,,,,,,,,,,,,,,,,,,,,,,,,,,,,,,"[0.9372,0.9450000000000001,0.8980000000000001]","[0.40379999999999994,0.09000000000000008,0.44300000000000006]",-49.59997559,76,1,0,0,response7disk,-16.79998779,5.600006104,1,0,0,rectangle,-16.79998779,5.600006104,1,0,0,,1,0.0038,0,-16.79998779,5.600006104,1,0,0,0,5,5,130,1,49,second,,,,,,,,,,,,,,,,,,,,,,,,,,,,,,,,,,,,,,,,,,,,,,,,,,,,,,,,,,,,,,,,,,,,,,,,
,,,,,,5c8f70a02675ca0001daf60a,62c538fd7e955d92c6b91f27,2022-07-06_09h26.27.403,Colour_Asymmetry_Pilot,2022.1.3,Win32,59.94844434,62c50e9c1127f2cd403a315f,,,,,,,,,,,,,,,,,,,,onethree,,-4,1.3669,,,,,,,,,,,,,,,,,,,,,,,,,,,,,,,,,,"[-0.10599999999999998,-0.15300000000000002,0.15280000000000005]","[-0.011800000000000033,-0.906,-0.45100000000000007]",-51.20001221,119.1999817,1,0,0,response7disk,10.40002441,-4,1,0,0,rectangle,10.40002441,-4,1,0,0,,2,0.0064,0,10.40002441,-4,1,0,0,0,6,6,19,1,19,first,,,,,,,,,,,,,,,,,,,,,,,,,,,,,,,,,,,,,,,,,,,,,,,,,,,,,,,,,,,,,,,,,,,,,,,,
,,,,,,5c8f70a02675ca0001daf60a,62c538fd7e955d92c6b91f27,2022-07-06_09h26.27.403,Colour_Asymmetry_Pilot,2022.1.3,Win32,59.94844434,62c50e9c1127f2cd403a315f,,,,,,,,,,,,,,,,,,,,onethree,,-4,0.6663,,,,,,,,,,,,,,,,,,,,,,,,,,,,,,,,,,"[-0.9688,-0.38039999999999996,-0.41979999999999995]","[0.37240000000000006,-0.050999999999999934,-0.5216]",-69.59997559,112,1,0,0,response7disk,-14.39996338,4.799987793,1,0,0,rectangle,-14.39996338,4.799987793,1,0,0,,1,0.004,0,-14.39996338,4.799987793,1,0,0,0,7,7,95,1,14,second,,,,,,,,,,,,,,,,,,,,,,,,,,,,,,,,,,,,,,,,,,,,,,,,,,,,,,,,,,,,,,,,,,,,,,,,
,,,,,,5c8f70a02675ca0001daf60a,62c538fd7e955d92c6b91f27,2022-07-06_09h26.27.403,Colour_Asymmetry_Pilot,2022.1.3,Win32,59.94844434,62c50e9c1127f2cd403a315f,,,,,,,,,,,,,,,,,,,,fourtwo,,-4,0.5027,,,,,,,,,,,,,,,,,,,,,,,,,,,,,,,,,,"[0.23120000000000007,-0.7726,-0.34120000000000006]","[0.2862,0.7802,0.3568]",-32.79998779,92,1,0,0,response7disk,-15.20001221,-0.800018311,1,0,0,rectangle,-15.20001221,-0.800018311,1,0,0,,2,0.0036,0,-15.20001221,-0.800018311,1,0,0,0,8,8,117,1,36,second,,,,,,,,,,,,,,,,,,,,,,,,,,,,,,,,,,,,,,,,,,,,,,,,,,,,,,,,,,,,,,,,,,,,,,,,
,,,,,,5c8f70a02675ca0001daf60a,62c538fd7e955d92c6b91f27,2022-07-06_09h26.27.403,Colour_Asymmetry_Pilot,2022.1.3,Win32,59.94844434,62c50e9c1127f2cd403a315f,,,,,,,,,,,,,,,,,,,,fourthree,,3,2.9346,,,,,,,,,,,,,,,,,,,,,,,,,,,,,,,,,,"[0.37240000000000006,0.4980000000000002,-0.2864]","[0.0351999999999999,0.41159999999999997,0.0038000000000000256]",69.60003662,55.19998169,1,0,0,response1disk,-5.599975586,-3.200012207,1,0,0,rectangle,-5.599975586,-3.200012207,1,0,0,,3,0.0036,0,-5.599975586,-3.200012207,1,0,0,0,9,9,92,1,11,second,,,,,,,,,,,,,,,,,,,,,,,,,,,,,,,,,,,,,,,,,,,,,,,,,,,,,,,,,,,,,,,,,,,,,,,,
,,,,,,5c8f70a02675ca0001daf60a,62c538fd7e955d92c6b91f27,2022-07-06_09h26.27.403,Colour_Asymmetry_Pilot,2022.1.3,Win32,59.94844434,62c50e9c1127f2cd403a315f,,,,,,,,,,,,,,,,,,,,threefour,,-3,1.7839,,,,,,,,,,,,,,,,,,,,,,,,,,,,,,,,,,"[-0.2942,-0.24719999999999998,-0.357]","[-0.4746,-0.0354000000000001,0.5449999999999999]",-101.5999756,41.6000061,1,0,0,response7disk,-27.20001221,4,1,0,0,rectangle,-27.20001221,4,1,0,0,,2,0.007,0,-27.20001221,4,1,0,0,0,10,10,12,1,12,first,,,,,,,,,,,,,,,,,,,,,,,,,,,,,,,,,,,,,,,,,,,,,,,,,,,,,,,,,,,,,,,,,,,,,,,,
,,,,,,5c8f70a02675ca0001daf60a,62c538fd7e955d92c6b91f27,2022-07-06_09h26.27.403,Colour_Asymmetry_Pilot,2022.1.3,Win32,59.94844434,62c50e9c1127f2cd403a315f,,,,,,,,,,,,,,,,,,,,onethree,,-4,1.6753,,,,,,,,,,,,,,,,,,,,,,,,,,,,,,,,,,"[-0.20799999999999996,-0.655,-0.01980000000000004]","[0.9372,0.20779999999999998,0.2704]",-66.39996338,125.6000061,1,0,0,response7disk,9.600036621,5.600006104,1,0,0,rectangle,9.600036621,5.600006104,1,0,0,,3,0.0036,0,9.600036621,5.600006104,1,0,0,0,11,11,39,1,39,first,,,,,,,,,,,,,,,,,,,,,,,,,,,,,,,,,,,,,,,,,,,,,,,,,,,,,,,,,,,,,,,,,,,,,,,,
,,,,,,5c8f70a02675ca0001daf60a,62c538fd7e955d92c6b91f27,2022-07-06_09h26.27.403,Colour_Asymmetry_Pilot,2022.1.3,Win32,59.94844434,62c50e9c1127f2cd403a315f,,,,,,,,,,,,,,,,,,,,twoone,,-4,0.3994,,,,,,,,,,,,,,,,,,,,,,,,,,,,,,,,,,"[0.09799999999999986,-0.24719999999999998,0.15280000000000005]","[0.6625999999999999,0.4980000000000002,-0.357]",-65.59997559,110.3999939,1,0,0,response7disk,-16,-3.200012207,1,0,0,rectangle,-16,-3.200012207,1,0,0,,3,0.0015,0,-16,-3.200012207,1,0,0,0,12,12,113,1,32,second,,,,,,,,,,,,,,,,,,,,,,,,,,,,,,,,,,,,,,,,,,,,,,,,,,,,,,,,,,,,,,,,,,,,,,,,
,,,,,,5c8f70a02675ca0001daf60a,62c538fd7e955d92c6b91f27,2022-07-06_09h26.27.403,Colour_Asymmetry_Pilot,2022.1.3,Win32,59.94844434,62c50e9c1127f2cd403a315f,,,,,,,,,,,,,,,,,,,,fourtwo,,1,1.4376,,,,,,,,,,,,,,,,,,,,,,,,,,,,,,,,,,"[0.37240000000000006,0.4980000000000002,-0.2864]","[0.796,0.2156,-0.27859999999999996]",76.79998779,-100,1,0,0,response3disk,-5.599975586,-1.600006104,1,0,0,rectangle,-5.599975586,-1.600006104,1,0,0,,2,0.0026,0,-5.599975586,-1.600006104,1,0,0,0,13,13,41,1,41,first,,,,,,,,,,,,,,,,,,,,,,,,,,,,,,,,,,,,,,,,,,,,,,,,,,,,,,,,,,,,,,,,,,,,,,,,
,,,,,,5c8f70a02675ca0001daf60a,62c538fd7e955d92c6b91f27,2022-07-06_09h26.27.403,Colour_Asymmetry_Pilot,2022.1.3,Win32,59.94844434,62c50e9c1127f2cd403a315f,,,,,,,,,,,,,,,,,,,,onethree,,-1,2.6002,,,,,,,,,,,,,,,,,,,,,,,,,,,,,,,,,,"[-0.30200000000000005,0.14500000000000002,0.2784]","[-0.9688,-0.38039999999999996,-0.41979999999999995]",-42.39996338,-99.20001221,1,0,0,response5disk,-11.20001221,4.799987793,1,0,0,rectangle,-11.20001221,4.799987793,1,0,0,,3,0.0033,0,-11.20001221,4.799987793,1,0,0,0,14,14,126,1,45,second,,,,,,,,,,,,,,,,,,,,,,,,,,,,,,,,,,,,,,,,,,,,,,,,,,,,,,,,,,,,,,,,,,,,,,,,
