trials.thisRepN,trials.thisTrialN,trials.thisN,trials.thisIndex,trials.ran,Colourcodes,participant,session,date,expName,psychopyVersion,OS,frameRate,study_id,trials_4.thisRepN,trials_4.thisTrialN,trials_4.thisN,trials_4.thisIndex,trials_4.ran,StimulusPos,key_resp.keys,key_resp.rt,key_resp_2.keys,key_resp_2.rt,key_resp_15.keys,key_resp_15.rt,key_resp_17.keys,key_resp_17.rt,key_resp_9.keys,key_resp_9.rt,key_resp_10.keys,key_resp_10.rt,Circle1_col,Ecc,Circle2_col,similarity,response_time,mouse_5.x,mouse_5.y,mouse_5.leftButton,mouse_5.midButton,mouse_5.rightButton,mouse_5.clicked_name,mouse_10.x,mouse_10.y,mouse_10.leftButton,mouse_10.midButton,mouse_10.rightButton,mouse_10.clicked_name,mouse_7.x,mouse_7.y,mouse_7.leftButton,mouse_7.midButton,mouse_7.rightButton,catchnumberprac,mouse_6.x,mouse_6.y,mouse_6.leftButton,mouse_6.midButton,mouse_6.rightButton,duringprac.thisRepN,duringprac.thisTrialN,duringprac.thisN,duringprac.thisIndex,duringprac.ran,mouse_7.clicked_name,catchprac,mouse_6.clicked_name,key_resp_22.keys,key_resp_22.rt,Circle1_colour,Circle2_colour,mouse.x,mouse.y,mouse.leftButton,mouse.midButton,mouse.rightButton,mouse.clicked_name,mouse_2.x,mouse_2.y,mouse_2.leftButton,mouse_2.midButton,mouse_2.rightButton,mouse_2.clicked_name,mouse_3.x,mouse_3.y,mouse_3.leftButton,mouse_3.midButton,mouse_3.rightButton,catchresponse,catchnumber,response_time_catch,Catch,mouse_11.x,mouse_11.y,mouse_11.leftButton,mouse_11.midButton,mouse_11.rightButton,trials_2.thisRepN,trials_2.thisTrialN,trials_2.thisN,trials_2.thisIndex,trials_2.ran,Colourpair,Temporder,mouse_3.clicked_name,mouse_11.clicked_name,trials_3.thisRepN,trials_3.thisTrialN,trials_3.thisN,trials_3.thisIndex,trials_3.ran,key_resp_instr_Ishi.keys,key_resp_instr_Ishi.rt,Ishi_trial_keyresp.keys,Ishi_trial_keyresp.rt,Ishi_textbox.text,Ishi_mouse.x,Ishi_mouse.y,Ishi_mouse.leftButton,Ishi_mouse.midButton,Ishi_mouse.rightButton,Ishi_loop.thisRepN,Ishi_loop.thisTrialN,Ishi_loop.thisN,Ishi_loop.thisIndex,Ishi_loop.ran,imageaddress,textbox.text,mouse_4.x,mouse_4.y,mouse_4.leftButton,mouse_4.midButton,mouse_4.rightButton,mouse_4.clicked_name,textbox_2.text,mouse_8.x,mouse_8.y,mouse_8.leftButton,mouse_8.midButton,mouse_8.rightButton,mouse_8.clicked_name,textbox_3.text,mouse_9.x,mouse_9.y,mouse_9.leftButton,mouse_9.midButton,mouse_9.rightButton,mouse_9.clicked_name,textbox_4.text,mouse_12.x,mouse_12.y,mouse_12.leftButton,mouse_12.midButton,mouse_12.rightButton,mouse_12.clicked_name,textbox_5.text,mouse_13.x,mouse_13.y,mouse_13.leftButton,mouse_13.midButton,mouse_13.rightButton,mouse_13.clicked_name,textbox_6.text,mouse_14.x,mouse_14.y,mouse_14.leftButton,mouse_14.midButton,mouse_14.rightButton,mouse_14.clicked_name,textbox_7.text,mouse_15.x,mouse_15.y,mouse_15.leftButton,mouse_15.midButton,mouse_15.rightButton,mouse_15.clicked_name
0,0,0,74,1,,600d559d03355c51465a7004,62c5396bcbc302299560b846,2022-07-06_09h28.22.702,Colour_Asymmetry_Pilot,2022.1.3,Win32,60.14675809,62c50e9c1127f2cd403a315f,,,,,,,,,,,,,,,,,,,,,,,,,,,,,,,,,,,,,,,,,,,,,,,,,,,,,,,,,,,,,,,,,,,,,,,,,,,,,,,,,,,,,,,,,,,,,,,,,,,,,,,,,,,,,,,,,,,,,,,,,,,,,,,,,,,,,,,,,,,,,,,,,,,,,,,,,,,,,,,,,,,
0,1,1,31,1,,600d559d03355c51465a7004,62c5396bcbc302299560b846,2022-07-06_09h28.22.702,Colour_Asymmetry_Pilot,2022.1.3,Win32,60.14675809,62c50e9c1127f2cd403a315f,,,,,,,,,,,,,,,,,,,,,,,,,,,,,,,,,,,,,,,,,,,,,,,,,,,,,,,,,,,,,,,,,,,,,,,,,,,,,,,,,,,,,,,,,,,,,,,,,,,,,,,,,,,,,,,,,,,,,,,,,,,,,,,,,,,,,,,,,,,,,,,,,,,,,,,,,,,,,,,,,,,
0,2,2,59,1,,600d559d03355c51465a7004,62c5396bcbc302299560b846,2022-07-06_09h28.22.702,Colour_Asymmetry_Pilot,2022.1.3,Win32,60.14675809,62c50e9c1127f2cd403a315f,,,,,,,,,,,,,,,,,,,,,,,,,,,,,,,,,,,,,,,,,,,,,,,,,,,,,,,,,,,,,,,,,,,,,,,,,,,,,,,,,,,,,,,,,,,,,,,,,,,,,,,,,,,,,,,,,,,,,,,,,,,,,,,,,,,,,,,,,,,,,,,,,,,,,,,,,,,,,,,,,,,
0,3,3,0,1,,600d559d03355c51465a7004,62c5396bcbc302299560b846,2022-07-06_09h28.22.702,Colour_Asymmetry_Pilot,2022.1.3,Win32,60.14675809,62c50e9c1127f2cd403a315f,,,,,,,,,,,,,,,,,,,,,,,,,,,,,,,,,,,,,,,,,,,,,,,,,,,,,,,,,,,,,,,,,,,,,,,,,,,,,,,,,,,,,,,,,,,,,,,,,,,,,,,,,,,,,,,,,,,,,,,,,,,,,,,,,,,,,,,,,,,,,,,,,,,,,,,,,,,,,,,,,,,
0,4,4,55,1,,600d559d03355c51465a7004,62c5396bcbc302299560b846,2022-07-06_09h28.22.702,Colour_Asymmetry_Pilot,2022.1.3,Win32,60.14675809,62c50e9c1127f2cd403a315f,,,,,,,,,,,,,,,,,,,,,,,,,,,,,,,,,,,,,,,,,,,,,,,,,,,,,,,,,,,,,,,,,,,,,,,,,,,,,,,,,,,,,,,,,,,,,,,,,,,,,,,,,,,,,,,,,,,,,,,,,,,,,,,,,,,,,,,,,,,,,,,,,,,,,,,,,,,,,,,,,,,
0,5,5,29,1,,600d559d03355c51465a7004,62c5396bcbc302299560b846,2022-07-06_09h28.22.702,Colour_Asymmetry_Pilot,2022.1.3,Win32,60.14675809,62c50e9c1127f2cd403a315f,,,,,,,,,,,,,,,,,,,,,,,,,,,,,,,,,,,,,,,,,,,,,,,,,,,,,,,,,,,,,,,,,,,,,,,,,,,,,,,,,,,,,,,,,,,,,,,,,,,,,,,,,,,,,,,,,,,,,,,,,,,,,,,,,,,,,,,,,,,,,,,,,,,,,,,,,,,,,,,,,,,
0,6,6,22,1,,600d559d03355c51465a7004,62c5396bcbc302299560b846,2022-07-06_09h28.22.702,Colour_Asymmetry_Pilot,2022.1.3,Win32,60.14675809,62c50e9c1127f2cd403a315f,,,,,,,,,,,,,,,,,,,,,,,,,,,,,,,,,,,,,,,,,,,,,,,,,,,,,,,,,,,,,,,,,,,,,,,,,,,,,,,,,,,,,,,,,,,,,,,,,,,,,,,,,,,,,,,,,,,,,,,,,,,,,,,,,,,,,,,,,,,,,,,,,,,,,,,,,,,,,,,,,,,
0,7,7,49,1,,600d559d03355c51465a7004,62c5396bcbc302299560b846,2022-07-06_09h28.22.702,Colour_Asymmetry_Pilot,2022.1.3,Win32,60.14675809,62c50e9c1127f2cd403a315f,,,,,,,,,,,,,,,,,,,,,,,,,,,,,,,,,,,,,,,,,,,,,,,,,,,,,,,,,,,,,,,,,,,,,,,,,,,,,,,,,,,,,,,,,,,,,,,,,,,,,,,,,,,,,,,,,,,,,,,,,,,,,,,,,,,,,,,,,,,,,,,,,,,,,,,,,,,,,,,,,,,
0,8,8,32,1,,600d559d03355c51465a7004,62c5396bcbc302299560b846,2022-07-06_09h28.22.702,Colour_Asymmetry_Pilot,2022.1.3,Win32,60.14675809,62c50e9c1127f2cd403a315f,,,,,,,,,,,,,,,,,,,,,,,,,,,,,,,,,,,,,,,,,,,,,,,,,,,,,,,,,,,,,,,,,,,,,,,,,,,,,,,,,,,,,,,,,,,,,,,,,,,,,,,,,,,,,,,,,,,,,,,,,,,,,,,,,,,,,,,,,,,,,,,,,,,,,,,,,,,,,,,,,,,
0,9,9,78,1,,600d559d03355c51465a7004,62c5396bcbc302299560b846,2022-07-06_09h28.22.702,Colour_Asymmetry_Pilot,2022.1.3,Win32,60.14675809,62c50e9c1127f2cd403a315f,,,,,,,,,,,,,,,,,,,,,,,,,,,,,,,,,,,,,,,,,,,,,,,,,,,,,,,,,,,,,,,,,,,,,,,,,,,,,,,,,,,,,,,,,,,,,,,,,,,,,,,,,,,,,,,,,,,,,,,,,,,,,,,,,,,,,,,,,,,,,,,,,,,,,,,,,,,,,,,,,,,
0,10,10,9,1,,600d559d03355c51465a7004,62c5396bcbc302299560b846,2022-07-06_09h28.22.702,Colour_Asymmetry_Pilot,2022.1.3,Win32,60.14675809,62c50e9c1127f2cd403a315f,,,,,,,,,,,,,,,,,,,,,,,,,,,,,,,,,,,,,,,,,,,,,,,,,,,,,,,,,,,,,,,,,,,,,,,,,,,,,,,,,,,,,,,,,,,,,,,,,,,,,,,,,,,,,,,,,,,,,,,,,,,,,,,,,,,,,,,,,,,,,,,,,,,,,,,,,,,,,,,,,,,
0,11,11,64,1,,600d559d03355c51465a7004,62c5396bcbc302299560b846,2022-07-06_09h28.22.702,Colour_Asymmetry_Pilot,2022.1.3,Win32,60.14675809,62c50e9c1127f2cd403a315f,,,,,,,,,,,,,,,,,,,,,,,,,,,,,,,,,,,,,,,,,,,,,,,,,,,,,,,,,,,,,,,,,,,,,,,,,,,,,,,,,,,,,,,,,,,,,,,,,,,,,,,,,,,,,,,,,,,,,,,,,,,,,,,,,,,,,,,,,,,,,,,,,,,,,,,,,,,,,,,,,,,
0,12,12,91,1,,600d559d03355c51465a7004,62c5396bcbc302299560b846,2022-07-06_09h28.22.702,Colour_Asymmetry_Pilot,2022.1.3,Win32,60.14675809,62c50e9c1127f2cd403a315f,,,,,,,,,,,,,,,,,,,,,,,,,,,,,,,,,,,,,,,,,,,,,,,,,,,,,,,,,,,,,,,,,,,,,,,,,,,,,,,,,,,,,,,,,,,,,,,,,,,,,,,,,,,,,,,,,,,,,,,,,,,,,,,,,,,,,,,,,,,,,,,,,,,,,,,,,,,,,,,,,,,
0,13,13,13,1,,600d559d03355c51465a7004,62c5396bcbc302299560b846,2022-07-06_09h28.22.702,Colour_Asymmetry_Pilot,2022.1.3,Win32,60.14675809,62c50e9c1127f2cd403a315f,,,,,,,,,,,,,,,,,,,,,,,,,,,,,,,,,,,,,,,,,,,,,,,,,,,,,,,,,,,,,,,,,,,,,,,,,,,,,,,,,,,,,,,,,,,,,,,,,,,,,,,,,,,,,,,,,,,,,,,,,,,,,,,,,,,,,,,,,,,,,,,,,,,,,,,,,,,,,,,,,,,
0,14,14,34,1,,600d559d03355c51465a7004,62c5396bcbc302299560b846,2022-07-06_09h28.22.702,Colour_Asymmetry_Pilot,2022.1.3,Win32,60.14675809,62c50e9c1127f2cd403a315f,,,,,,,,,,,,,,,,,,,,,,,,,,,,,,,,,,,,,,,,,,,,,,,,,,,,,,,,,,,,,,,,,,,,,,,,,,,,,,,,,,,,,,,,,,,,,,,,,,,,,,,,,,,,,,,,,,,,,,,,,,,,,,,,,,,,,,,,,,,,,,,,,,,,,,,,,,,,,,,,,,,
0,15,15,41,1,,600d559d03355c51465a7004,62c5396bcbc302299560b846,2022-07-06_09h28.22.702,Colour_Asymmetry_Pilot,2022.1.3,Win32,60.14675809,62c50e9c1127f2cd403a315f,,,,,,,,,,,,,,,,,,,,,,,,,,,,,,,,,,,,,,,,,,,,,,,,,,,,,,,,,,,,,,,,,,,,,,,,,,,,,,,,,,,,,,,,,,,,,,,,,,,,,,,,,,,,,,,,,,,,,,,,,,,,,,,,,,,,,,,,,,,,,,,,,,,,,,,,,,,,,,,,,,,
0,16,16,20,1,,600d559d03355c51465a7004,62c5396bcbc302299560b846,2022-07-06_09h28.22.702,Colour_Asymmetry_Pilot,2022.1.3,Win32,60.14675809,62c50e9c1127f2cd403a315f,,,,,,,,,,,,,,,,,,,,,,,,,,,,,,,,,,,,,,,,,,,,,,,,,,,,,,,,,,,,,,,,,,,,,,,,,,,,,,,,,,,,,,,,,,,,,,,,,,,,,,,,,,,,,,,,,,,,,,,,,,,,,,,,,,,,,,,,,,,,,,,,,,,,,,,,,,,,,,,,,,,
0,17,17,16,1,,600d559d03355c51465a7004,62c5396bcbc302299560b846,2022-07-06_09h28.22.702,Colour_Asymmetry_Pilot,2022.1.3,Win32,60.14675809,62c50e9c1127f2cd403a315f,,,,,,,,,,,,,,,,,,,,,,,,,,,,,,,,,,,,,,,,,,,,,,,,,,,,,,,,,,,,,,,,,,,,,,,,,,,,,,,,,,,,,,,,,,,,,,,,,,,,,,,,,,,,,,,,,,,,,,,,,,,,,,,,,,,,,,,,,,,,,,,,,,,,,,,,,,,,,,,,,,,
0,18,18,86,1,,600d559d03355c51465a7004,62c5396bcbc302299560b846,2022-07-06_09h28.22.702,Colour_Asymmetry_Pilot,2022.1.3,Win32,60.14675809,62c50e9c1127f2cd403a315f,,,,,,,,,,,,,,,,,,,,,,,,,,,,,,,,,,,,,,,,,,,,,,,,,,,,,,,,,,,,,,,,,,,,,,,,,,,,,,,,,,,,,,,,,,,,,,,,,,,,,,,,,,,,,,,,,,,,,,,,,,,,,,,,,,,,,,,,,,,,,,,,,,,,,,,,,,,,,,,,,,,
0,19,19,61,1,,600d559d03355c51465a7004,62c5396bcbc302299560b846,2022-07-06_09h28.22.702,Colour_Asymmetry_Pilot,2022.1.3,Win32,60.14675809,62c50e9c1127f2cd403a315f,,,,,,,,,,,,,,,,,,,,,,,,,,,,,,,,,,,,,,,,,,,,,,,,,,,,,,,,,,,,,,,,,,,,,,,,,,,,,,,,,,,,,,,,,,,,,,,,,,,,,,,,,,,,,,,,,,,,,,,,,,,,,,,,,,,,,,,,,,,,,,,,,,,,,,,,,,,,,,,,,,,
0,20,20,60,1,,600d559d03355c51465a7004,62c5396bcbc302299560b846,2022-07-06_09h28.22.702,Colour_Asymmetry_Pilot,2022.1.3,Win32,60.14675809,62c50e9c1127f2cd403a315f,,,,,,,,,,,,,,,,,,,,,,,,,,,,,,,,,,,,,,,,,,,,,,,,,,,,,,,,,,,,,,,,,,,,,,,,,,,,,,,,,,,,,,,,,,,,,,,,,,,,,,,,,,,,,,,,,,,,,,,,,,,,,,,,,,,,,,,,,,,,,,,,,,,,,,,,,,,,,,,,,,,
0,21,21,21,1,,600d559d03355c51465a7004,62c5396bcbc302299560b846,2022-07-06_09h28.22.702,Colour_Asymmetry_Pilot,2022.1.3,Win32,60.14675809,62c50e9c1127f2cd403a315f,,,,,,,,,,,,,,,,,,,,,,,,,,,,,,,,,,,,,,,,,,,,,,,,,,,,,,,,,,,,,,,,,,,,,,,,,,,,,,,,,,,,,,,,,,,,,,,,,,,,,,,,,,,,,,,,,,,,,,,,,,,,,,,,,,,,,,,,,,,,,,,,,,,,,,,,,,,,,,,,,,,
0,22,22,48,1,,600d559d03355c51465a7004,62c5396bcbc302299560b846,2022-07-06_09h28.22.702,Colour_Asymmetry_Pilot,2022.1.3,Win32,60.14675809,62c50e9c1127f2cd403a315f,,,,,,,,,,,,,,,,,,,,,,,,,,,,,,,,,,,,,,,,,,,,,,,,,,,,,,,,,,,,,,,,,,,,,,,,,,,,,,,,,,,,,,,,,,,,,,,,,,,,,,,,,,,,,,,,,,,,,,,,,,,,,,,,,,,,,,,,,,,,,,,,,,,,,,,,,,,,,,,,,,,
0,23,23,84,1,,600d559d03355c51465a7004,62c5396bcbc302299560b846,2022-07-06_09h28.22.702,Colour_Asymmetry_Pilot,2022.1.3,Win32,60.14675809,62c50e9c1127f2cd403a315f,,,,,,,,,,,,,,,,,,,,,,,,,,,,,,,,,,,,,,,,,,,,,,,,,,,,,,,,,,,,,,,,,,,,,,,,,,,,,,,,,,,,,,,,,,,,,,,,,,,,,,,,,,,,,,,,,,,,,,,,,,,,,,,,,,,,,,,,,,,,,,,,,,,,,,,,,,,,,,,,,,,
0,24,24,14,1,,600d559d03355c51465a7004,62c5396bcbc302299560b846,2022-07-06_09h28.22.702,Colour_Asymmetry_Pilot,2022.1.3,Win32,60.14675809,62c50e9c1127f2cd403a315f,,,,,,,,,,,,,,,,,,,,,,,,,,,,,,,,,,,,,,,,,,,,,,,,,,,,,,,,,,,,,,,,,,,,,,,,,,,,,,,,,,,,,,,,,,,,,,,,,,,,,,,,,,,,,,,,,,,,,,,,,,,,,,,,,,,,,,,,,,,,,,,,,,,,,,,,,,,,,,,,,,,
0,25,25,39,1,,600d559d03355c51465a7004,62c5396bcbc302299560b846,2022-07-06_09h28.22.702,Colour_Asymmetry_Pilot,2022.1.3,Win32,60.14675809,62c50e9c1127f2cd403a315f,,,,,,,,,,,,,,,,,,,,,,,,,,,,,,,,,,,,,,,,,,,,,,,,,,,,,,,,,,,,,,,,,,,,,,,,,,,,,,,,,,,,,,,,,,,,,,,,,,,,,,,,,,,,,,,,,,,,,,,,,,,,,,,,,,,,,,,,,,,,,,,,,,,,,,,,,,,,,,,,,,,
0,26,26,90,1,,600d559d03355c51465a7004,62c5396bcbc302299560b846,2022-07-06_09h28.22.702,Colour_Asymmetry_Pilot,2022.1.3,Win32,60.14675809,62c50e9c1127f2cd403a315f,,,,,,,,,,,,,,,,,,,,,,,,,,,,,,,,,,,,,,,,,,,,,,,,,,,,,,,,,,,,,,,,,,,,,,,,,,,,,,,,,,,,,,,,,,,,,,,,,,,,,,,,,,,,,,,,,,,,,,,,,,,,,,,,,,,,,,,,,,,,,,,,,,,,,,,,,,,,,,,,,,,
0,27,27,69,1,,600d559d03355c51465a7004,62c5396bcbc302299560b846,2022-07-06_09h28.22.702,Colour_Asymmetry_Pilot,2022.1.3,Win32,60.14675809,62c50e9c1127f2cd403a315f,,,,,,,,,,,,,,,,,,,,,,,,,,,,,,,,,,,,,,,,,,,,,,,,,,,,,,,,,,,,,,,,,,,,,,,,,,,,,,,,,,,,,,,,,,,,,,,,,,,,,,,,,,,,,,,,,,,,,,,,,,,,,,,,,,,,,,,,,,,,,,,,,,,,,,,,,,,,,,,,,,,
0,28,28,10,1,,600d559d03355c51465a7004,62c5396bcbc302299560b846,2022-07-06_09h28.22.702,Colour_Asymmetry_Pilot,2022.1.3,Win32,60.14675809,62c50e9c1127f2cd403a315f,,,,,,,,,,,,,,,,,,,,,,,,,,,,,,,,,,,,,,,,,,,,,,,,,,,,,,,,,,,,,,,,,,,,,,,,,,,,,,,,,,,,,,,,,,,,,,,,,,,,,,,,,,,,,,,,,,,,,,,,,,,,,,,,,,,,,,,,,,,,,,,,,,,,,,,,,,,,,,,,,,,
0,29,29,88,1,,600d559d03355c51465a7004,62c5396bcbc302299560b846,2022-07-06_09h28.22.702,Colour_Asymmetry_Pilot,2022.1.3,Win32,60.14675809,62c50e9c1127f2cd403a315f,,,,,,,,,,,,,,,,,,,,,,,,,,,,,,,,,,,,,,,,,,,,,,,,,,,,,,,,,,,,,,,,,,,,,,,,,,,,,,,,,,,,,,,,,,,,,,,,,,,,,,,,,,,,,,,,,,,,,,,,,,,,,,,,,,,,,,,,,,,,,,,,,,,,,,,,,,,,,,,,,,,
0,30,30,76,1,,600d559d03355c51465a7004,62c5396bcbc302299560b846,2022-07-06_09h28.22.702,Colour_Asymmetry_Pilot,2022.1.3,Win32,60.14675809,62c50e9c1127f2cd403a315f,,,,,,,,,,,,,,,,,,,,,,,,,,,,,,,,,,,,,,,,,,,,,,,,,,,,,,,,,,,,,,,,,,,,,,,,,,,,,,,,,,,,,,,,,,,,,,,,,,,,,,,,,,,,,,,,,,,,,,,,,,,,,,,,,,,,,,,,,,,,,,,,,,,,,,,,,,,,,,,,,,,
0,31,31,4,1,,600d559d03355c51465a7004,62c5396bcbc302299560b846,2022-07-06_09h28.22.702,Colour_Asymmetry_Pilot,2022.1.3,Win32,60.14675809,62c50e9c1127f2cd403a315f,,,,,,,,,,,,,,,,,,,,,,,,,,,,,,,,,,,,,,,,,,,,,,,,,,,,,,,,,,,,,,,,,,,,,,,,,,,,,,,,,,,,,,,,,,,,,,,,,,,,,,,,,,,,,,,,,,,,,,,,,,,,,,,,,,,,,,,,,,,,,,,,,,,,,,,,,,,,,,,,,,,
0,32,32,80,1,,600d559d03355c51465a7004,62c5396bcbc302299560b846,2022-07-06_09h28.22.702,Colour_Asymmetry_Pilot,2022.1.3,Win32,60.14675809,62c50e9c1127f2cd403a315f,,,,,,,,,,,,,,,,,,,,,,,,,,,,,,,,,,,,,,,,,,,,,,,,,,,,,,,,,,,,,,,,,,,,,,,,,,,,,,,,,,,,,,,,,,,,,,,,,,,,,,,,,,,,,,,,,,,,,,,,,,,,,,,,,,,,,,,,,,,,,,,,,,,,,,,,,,,,,,,,,,,
0,33,33,65,1,,600d559d03355c51465a7004,62c5396bcbc302299560b846,2022-07-06_09h28.22.702,Colour_Asymmetry_Pilot,2022.1.3,Win32,60.14675809,62c50e9c1127f2cd403a315f,,,,,,,,,,,,,,,,,,,,,,,,,,,,,,,,,,,,,,,,,,,,,,,,,,,,,,,,,,,,,,,,,,,,,,,,,,,,,,,,,,,,,,,,,,,,,,,,,,,,,,,,,,,,,,,,,,,,,,,,,,,,,,,,,,,,,,,,,,,,,,,,,,,,,,,,,,,,,,,,,,,
0,34,34,27,1,,600d559d03355c51465a7004,62c5396bcbc302299560b846,2022-07-06_09h28.22.702,Colour_Asymmetry_Pilot,2022.1.3,Win32,60.14675809,62c50e9c1127f2cd403a315f,,,,,,,,,,,,,,,,,,,,,,,,,,,,,,,,,,,,,,,,,,,,,,,,,,,,,,,,,,,,,,,,,,,,,,,,,,,,,,,,,,,,,,,,,,,,,,,,,,,,,,,,,,,,,,,,,,,,,,,,,,,,,,,,,,,,,,,,,,,,,,,,,,,,,,,,,,,,,,,,,,,
0,35,35,51,1,,600d559d03355c51465a7004,62c5396bcbc302299560b846,2022-07-06_09h28.22.702,Colour_Asymmetry_Pilot,2022.1.3,Win32,60.14675809,62c50e9c1127f2cd403a315f,,,,,,,,,,,,,,,,,,,,,,,,,,,,,,,,,,,,,,,,,,,,,,,,,,,,,,,,,,,,,,,,,,,,,,,,,,,,,,,,,,,,,,,,,,,,,,,,,,,,,,,,,,,,,,,,,,,,,,,,,,,,,,,,,,,,,,,,,,,,,,,,,,,,,,,,,,,,,,,,,,,
0,36,36,1,1,,600d559d03355c51465a7004,62c5396bcbc302299560b846,2022-07-06_09h28.22.702,Colour_Asymmetry_Pilot,2022.1.3,Win32,60.14675809,62c50e9c1127f2cd403a315f,,,,,,,,,,,,,,,,,,,,,,,,,,,,,,,,,,,,,,,,,,,,,,,,,,,,,,,,,,,,,,,,,,,,,,,,,,,,,,,,,,,,,,,,,,,,,,,,,,,,,,,,,,,,,,,,,,,,,,,,,,,,,,,,,,,,,,,,,,,,,,,,,,,,,,,,,,,,,,,,,,,
0,37,37,15,1,,600d559d03355c51465a7004,62c5396bcbc302299560b846,2022-07-06_09h28.22.702,Colour_Asymmetry_Pilot,2022.1.3,Win32,60.14675809,62c50e9c1127f2cd403a315f,,,,,,,,,,,,,,,,,,,,,,,,,,,,,,,,,,,,,,,,,,,,,,,,,,,,,,,,,,,,,,,,,,,,,,,,,,,,,,,,,,,,,,,,,,,,,,,,,,,,,,,,,,,,,,,,,,,,,,,,,,,,,,,,,,,,,,,,,,,,,,,,,,,,,,,,,,,,,,,,,,,
0,38,38,81,1,,600d559d03355c51465a7004,62c5396bcbc302299560b846,2022-07-06_09h28.22.702,Colour_Asymmetry_Pilot,2022.1.3,Win32,60.14675809,62c50e9c1127f2cd403a315f,,,,,,,,,,,,,,,,,,,,,,,,,,,,,,,,,,,,,,,,,,,,,,,,,,,,,,,,,,,,,,,,,,,,,,,,,,,,,,,,,,,,,,,,,,,,,,,,,,,,,,,,,,,,,,,,,,,,,,,,,,,,,,,,,,,,,,,,,,,,,,,,,,,,,,,,,,,,,,,,,,,
0,39,39,45,1,,600d559d03355c51465a7004,62c5396bcbc302299560b846,2022-07-06_09h28.22.702,Colour_Asymmetry_Pilot,2022.1.3,Win32,60.14675809,62c50e9c1127f2cd403a315f,,,,,,,,,,,,,,,,,,,,,,,,,,,,,,,,,,,,,,,,,,,,,,,,,,,,,,,,,,,,,,,,,,,,,,,,,,,,,,,,,,,,,,,,,,,,,,,,,,,,,,,,,,,,,,,,,,,,,,,,,,,,,,,,,,,,,,,,,,,,,,,,,,,,,,,,,,,,,,,,,,,
0,40,40,75,1,,600d559d03355c51465a7004,62c5396bcbc302299560b846,2022-07-06_09h28.22.702,Colour_Asymmetry_Pilot,2022.1.3,Win32,60.14675809,62c50e9c1127f2cd403a315f,,,,,,,,,,,,,,,,,,,,,,,,,,,,,,,,,,,,,,,,,,,,,,,,,,,,,,,,,,,,,,,,,,,,,,,,,,,,,,,,,,,,,,,,,,,,,,,,,,,,,,,,,,,,,,,,,,,,,,,,,,,,,,,,,,,,,,,,,,,,,,,,,,,,,,,,,,,,,,,,,,,
0,41,41,82,1,,600d559d03355c51465a7004,62c5396bcbc302299560b846,2022-07-06_09h28.22.702,Colour_Asymmetry_Pilot,2022.1.3,Win32,60.14675809,62c50e9c1127f2cd403a315f,,,,,,,,,,,,,,,,,,,,,,,,,,,,,,,,,,,,,,,,,,,,,,,,,,,,,,,,,,,,,,,,,,,,,,,,,,,,,,,,,,,,,,,,,,,,,,,,,,,,,,,,,,,,,,,,,,,,,,,,,,,,,,,,,,,,,,,,,,,,,,,,,,,,,,,,,,,,,,,,,,,
0,42,42,18,1,,600d559d03355c51465a7004,62c5396bcbc302299560b846,2022-07-06_09h28.22.702,Colour_Asymmetry_Pilot,2022.1.3,Win32,60.14675809,62c50e9c1127f2cd403a315f,,,,,,,,,,,,,,,,,,,,,,,,,,,,,,,,,,,,,,,,,,,,,,,,,,,,,,,,,,,,,,,,,,,,,,,,,,,,,,,,,,,,,,,,,,,,,,,,,,,,,,,,,,,,,,,,,,,,,,,,,,,,,,,,,,,,,,,,,,,,,,,,,,,,,,,,,,,,,,,,,,,
0,43,43,72,1,,600d559d03355c51465a7004,62c5396bcbc302299560b846,2022-07-06_09h28.22.702,Colour_Asymmetry_Pilot,2022.1.3,Win32,60.14675809,62c50e9c1127f2cd403a315f,,,,,,,,,,,,,,,,,,,,,,,,,,,,,,,,,,,,,,,,,,,,,,,,,,,,,,,,,,,,,,,,,,,,,,,,,,,,,,,,,,,,,,,,,,,,,,,,,,,,,,,,,,,,,,,,,,,,,,,,,,,,,,,,,,,,,,,,,,,,,,,,,,,,,,,,,,,,,,,,,,,
0,44,44,38,1,,600d559d03355c51465a7004,62c5396bcbc302299560b846,2022-07-06_09h28.22.702,Colour_Asymmetry_Pilot,2022.1.3,Win32,60.14675809,62c50e9c1127f2cd403a315f,,,,,,,,,,,,,,,,,,,,,,,,,,,,,,,,,,,,,,,,,,,,,,,,,,,,,,,,,,,,,,,,,,,,,,,,,,,,,,,,,,,,,,,,,,,,,,,,,,,,,,,,,,,,,,,,,,,,,,,,,,,,,,,,,,,,,,,,,,,,,,,,,,,,,,,,,,,,,,,,,,,
0,45,45,83,1,,600d559d03355c51465a7004,62c5396bcbc302299560b846,2022-07-06_09h28.22.702,Colour_Asymmetry_Pilot,2022.1.3,Win32,60.14675809,62c50e9c1127f2cd403a315f,,,,,,,,,,,,,,,,,,,,,,,,,,,,,,,,,,,,,,,,,,,,,,,,,,,,,,,,,,,,,,,,,,,,,,,,,,,,,,,,,,,,,,,,,,,,,,,,,,,,,,,,,,,,,,,,,,,,,,,,,,,,,,,,,,,,,,,,,,,,,,,,,,,,,,,,,,,,,,,,,,,
0,46,46,23,1,,600d559d03355c51465a7004,62c5396bcbc302299560b846,2022-07-06_09h28.22.702,Colour_Asymmetry_Pilot,2022.1.3,Win32,60.14675809,62c50e9c1127f2cd403a315f,,,,,,,,,,,,,,,,,,,,,,,,,,,,,,,,,,,,,,,,,,,,,,,,,,,,,,,,,,,,,,,,,,,,,,,,,,,,,,,,,,,,,,,,,,,,,,,,,,,,,,,,,,,,,,,,,,,,,,,,,,,,,,,,,,,,,,,,,,,,,,,,,,,,,,,,,,,,,,,,,,,
0,47,47,5,1,,600d559d03355c51465a7004,62c5396bcbc302299560b846,2022-07-06_09h28.22.702,Colour_Asymmetry_Pilot,2022.1.3,Win32,60.14675809,62c50e9c1127f2cd403a315f,,,,,,,,,,,,,,,,,,,,,,,,,,,,,,,,,,,,,,,,,,,,,,,,,,,,,,,,,,,,,,,,,,,,,,,,,,,,,,,,,,,,,,,,,,,,,,,,,,,,,,,,,,,,,,,,,,,,,,,,,,,,,,,,,,,,,,,,,,,,,,,,,,,,,,,,,,,,,,,,,,,
0,48,48,19,1,,600d559d03355c51465a7004,62c5396bcbc302299560b846,2022-07-06_09h28.22.702,Colour_Asymmetry_Pilot,2022.1.3,Win32,60.14675809,62c50e9c1127f2cd403a315f,,,,,,,,,,,,,,,,,,,,,,,,,,,,,,,,,,,,,,,,,,,,,,,,,,,,,,,,,,,,,,,,,,,,,,,,,,,,,,,,,,,,,,,,,,,,,,,,,,,,,,,,,,,,,,,,,,,,,,,,,,,,,,,,,,,,,,,,,,,,,,,,,,,,,,,,,,,,,,,,,,,
0,49,49,11,1,,600d559d03355c51465a7004,62c5396bcbc302299560b846,2022-07-06_09h28.22.702,Colour_Asymmetry_Pilot,2022.1.3,Win32,60.14675809,62c50e9c1127f2cd403a315f,,,,,,,,,,,,,,,,,,,,,,,,,,,,,,,,,,,,,,,,,,,,,,,,,,,,,,,,,,,,,,,,,,,,,,,,,,,,,,,,,,,,,,,,,,,,,,,,,,,,,,,,,,,,,,,,,,,,,,,,,,,,,,,,,,,,,,,,,,,,,,,,,,,,,,,,,,,,,,,,,,,
0,50,50,53,1,,600d559d03355c51465a7004,62c5396bcbc302299560b846,2022-07-06_09h28.22.702,Colour_Asymmetry_Pilot,2022.1.3,Win32,60.14675809,62c50e9c1127f2cd403a315f,,,,,,,,,,,,,,,,,,,,,,,,,,,,,,,,,,,,,,,,,,,,,,,,,,,,,,,,,,,,,,,,,,,,,,,,,,,,,,,,,,,,,,,,,,,,,,,,,,,,,,,,,,,,,,,,,,,,,,,,,,,,,,,,,,,,,,,,,,,,,,,,,,,,,,,,,,,,,,,,,,,
0,51,51,58,1,,600d559d03355c51465a7004,62c5396bcbc302299560b846,2022-07-06_09h28.22.702,Colour_Asymmetry_Pilot,2022.1.3,Win32,60.14675809,62c50e9c1127f2cd403a315f,,,,,,,,,,,,,,,,,,,,,,,,,,,,,,,,,,,,,,,,,,,,,,,,,,,,,,,,,,,,,,,,,,,,,,,,,,,,,,,,,,,,,,,,,,,,,,,,,,,,,,,,,,,,,,,,,,,,,,,,,,,,,,,,,,,,,,,,,,,,,,,,,,,,,,,,,,,,,,,,,,,
0,52,52,8,1,,600d559d03355c51465a7004,62c5396bcbc302299560b846,2022-07-06_09h28.22.702,Colour_Asymmetry_Pilot,2022.1.3,Win32,60.14675809,62c50e9c1127f2cd403a315f,,,,,,,,,,,,,,,,,,,,,,,,,,,,,,,,,,,,,,,,,,,,,,,,,,,,,,,,,,,,,,,,,,,,,,,,,,,,,,,,,,,,,,,,,,,,,,,,,,,,,,,,,,,,,,,,,,,,,,,,,,,,,,,,,,,,,,,,,,,,,,,,,,,,,,,,,,,,,,,,,,,
0,53,53,77,1,,600d559d03355c51465a7004,62c5396bcbc302299560b846,2022-07-06_09h28.22.702,Colour_Asymmetry_Pilot,2022.1.3,Win32,60.14675809,62c50e9c1127f2cd403a315f,,,,,,,,,,,,,,,,,,,,,,,,,,,,,,,,,,,,,,,,,,,,,,,,,,,,,,,,,,,,,,,,,,,,,,,,,,,,,,,,,,,,,,,,,,,,,,,,,,,,,,,,,,,,,,,,,,,,,,,,,,,,,,,,,,,,,,,,,,,,,,,,,,,,,,,,,,,,,,,,,,,
0,54,54,85,1,,600d559d03355c51465a7004,62c5396bcbc302299560b846,2022-07-06_09h28.22.702,Colour_Asymmetry_Pilot,2022.1.3,Win32,60.14675809,62c50e9c1127f2cd403a315f,,,,,,,,,,,,,,,,,,,,,,,,,,,,,,,,,,,,,,,,,,,,,,,,,,,,,,,,,,,,,,,,,,,,,,,,,,,,,,,,,,,,,,,,,,,,,,,,,,,,,,,,,,,,,,,,,,,,,,,,,,,,,,,,,,,,,,,,,,,,,,,,,,,,,,,,,,,,,,,,,,,
0,55,55,36,1,,600d559d03355c51465a7004,62c5396bcbc302299560b846,2022-07-06_09h28.22.702,Colour_Asymmetry_Pilot,2022.1.3,Win32,60.14675809,62c50e9c1127f2cd403a315f,,,,,,,,,,,,,,,,,,,,,,,,,,,,,,,,,,,,,,,,,,,,,,,,,,,,,,,,,,,,,,,,,,,,,,,,,,,,,,,,,,,,,,,,,,,,,,,,,,,,,,,,,,,,,,,,,,,,,,,,,,,,,,,,,,,,,,,,,,,,,,,,,,,,,,,,,,,,,,,,,,,
0,56,56,43,1,,600d559d03355c51465a7004,62c5396bcbc302299560b846,2022-07-06_09h28.22.702,Colour_Asymmetry_Pilot,2022.1.3,Win32,60.14675809,62c50e9c1127f2cd403a315f,,,,,,,,,,,,,,,,,,,,,,,,,,,,,,,,,,,,,,,,,,,,,,,,,,,,,,,,,,,,,,,,,,,,,,,,,,,,,,,,,,,,,,,,,,,,,,,,,,,,,,,,,,,,,,,,,,,,,,,,,,,,,,,,,,,,,,,,,,,,,,,,,,,,,,,,,,,,,,,,,,,
0,57,57,52,1,,600d559d03355c51465a7004,62c5396bcbc302299560b846,2022-07-06_09h28.22.702,Colour_Asymmetry_Pilot,2022.1.3,Win32,60.14675809,62c50e9c1127f2cd403a315f,,,,,,,,,,,,,,,,,,,,,,,,,,,,,,,,,,,,,,,,,,,,,,,,,,,,,,,,,,,,,,,,,,,,,,,,,,,,,,,,,,,,,,,,,,,,,,,,,,,,,,,,,,,,,,,,,,,,,,,,,,,,,,,,,,,,,,,,,,,,,,,,,,,,,,,,,,,,,,,,,,,
0,58,58,66,1,,600d559d03355c51465a7004,62c5396bcbc302299560b846,2022-07-06_09h28.22.702,Colour_Asymmetry_Pilot,2022.1.3,Win32,60.14675809,62c50e9c1127f2cd403a315f,,,,,,,,,,,,,,,,,,,,,,,,,,,,,,,,,,,,,,,,,,,,,,,,,,,,,,,,,,,,,,,,,,,,,,,,,,,,,,,,,,,,,,,,,,,,,,,,,,,,,,,,,,,,,,,,,,,,,,,,,,,,,,,,,,,,,,,,,,,,,,,,,,,,,,,,,,,,,,,,,,,
0,59,59,37,1,,600d559d03355c51465a7004,62c5396bcbc302299560b846,2022-07-06_09h28.22.702,Colour_Asymmetry_Pilot,2022.1.3,Win32,60.14675809,62c50e9c1127f2cd403a315f,,,,,,,,,,,,,,,,,,,,,,,,,,,,,,,,,,,,,,,,,,,,,,,,,,,,,,,,,,,,,,,,,,,,,,,,,,,,,,,,,,,,,,,,,,,,,,,,,,,,,,,,,,,,,,,,,,,,,,,,,,,,,,,,,,,,,,,,,,,,,,,,,,,,,,,,,,,,,,,,,,,
0,60,60,63,1,,600d559d03355c51465a7004,62c5396bcbc302299560b846,2022-07-06_09h28.22.702,Colour_Asymmetry_Pilot,2022.1.3,Win32,60.14675809,62c50e9c1127f2cd403a315f,,,,,,,,,,,,,,,,,,,,,,,,,,,,,,,,,,,,,,,,,,,,,,,,,,,,,,,,,,,,,,,,,,,,,,,,,,,,,,,,,,,,,,,,,,,,,,,,,,,,,,,,,,,,,,,,,,,,,,,,,,,,,,,,,,,,,,,,,,,,,,,,,,,,,,,,,,,,,,,,,,,
0,61,61,79,1,,600d559d03355c51465a7004,62c5396bcbc302299560b846,2022-07-06_09h28.22.702,Colour_Asymmetry_Pilot,2022.1.3,Win32,60.14675809,62c50e9c1127f2cd403a315f,,,,,,,,,,,,,,,,,,,,,,,,,,,,,,,,,,,,,,,,,,,,,,,,,,,,,,,,,,,,,,,,,,,,,,,,,,,,,,,,,,,,,,,,,,,,,,,,,,,,,,,,,,,,,,,,,,,,,,,,,,,,,,,,,,,,,,,,,,,,,,,,,,,,,,,,,,,,,,,,,,,
0,62,62,68,1,,600d559d03355c51465a7004,62c5396bcbc302299560b846,2022-07-06_09h28.22.702,Colour_Asymmetry_Pilot,2022.1.3,Win32,60.14675809,62c50e9c1127f2cd403a315f,,,,,,,,,,,,,,,,,,,,,,,,,,,,,,,,,,,,,,,,,,,,,,,,,,,,,,,,,,,,,,,,,,,,,,,,,,,,,,,,,,,,,,,,,,,,,,,,,,,,,,,,,,,,,,,,,,,,,,,,,,,,,,,,,,,,,,,,,,,,,,,,,,,,,,,,,,,,,,,,,,,
0,63,63,17,1,,600d559d03355c51465a7004,62c5396bcbc302299560b846,2022-07-06_09h28.22.702,Colour_Asymmetry_Pilot,2022.1.3,Win32,60.14675809,62c50e9c1127f2cd403a315f,,,,,,,,,,,,,,,,,,,,,,,,,,,,,,,,,,,,,,,,,,,,,,,,,,,,,,,,,,,,,,,,,,,,,,,,,,,,,,,,,,,,,,,,,,,,,,,,,,,,,,,,,,,,,,,,,,,,,,,,,,,,,,,,,,,,,,,,,,,,,,,,,,,,,,,,,,,,,,,,,,,
0,64,64,46,1,,600d559d03355c51465a7004,62c5396bcbc302299560b846,2022-07-06_09h28.22.702,Colour_Asymmetry_Pilot,2022.1.3,Win32,60.14675809,62c50e9c1127f2cd403a315f,,,,,,,,,,,,,,,,,,,,,,,,,,,,,,,,,,,,,,,,,,,,,,,,,,,,,,,,,,,,,,,,,,,,,,,,,,,,,,,,,,,,,,,,,,,,,,,,,,,,,,,,,,,,,,,,,,,,,,,,,,,,,,,,,,,,,,,,,,,,,,,,,,,,,,,,,,,,,,,,,,,
0,65,65,2,1,,600d559d03355c51465a7004,62c5396bcbc302299560b846,2022-07-06_09h28.22.702,Colour_Asymmetry_Pilot,2022.1.3,Win32,60.14675809,62c50e9c1127f2cd403a315f,,,,,,,,,,,,,,,,,,,,,,,,,,,,,,,,,,,,,,,,,,,,,,,,,,,,,,,,,,,,,,,,,,,,,,,,,,,,,,,,,,,,,,,,,,,,,,,,,,,,,,,,,,,,,,,,,,,,,,,,,,,,,,,,,,,,,,,,,,,,,,,,,,,,,,,,,,,,,,,,,,,
0,66,66,92,1,,600d559d03355c51465a7004,62c5396bcbc302299560b846,2022-07-06_09h28.22.702,Colour_Asymmetry_Pilot,2022.1.3,Win32,60.14675809,62c50e9c1127f2cd403a315f,,,,,,,,,,,,,,,,,,,,,,,,,,,,,,,,,,,,,,,,,,,,,,,,,,,,,,,,,,,,,,,,,,,,,,,,,,,,,,,,,,,,,,,,,,,,,,,,,,,,,,,,,,,,,,,,,,,,,,,,,,,,,,,,,,,,,,,,,,,,,,,,,,,,,,,,,,,,,,,,,,,
0,67,67,28,1,,600d559d03355c51465a7004,62c5396bcbc302299560b846,2022-07-06_09h28.22.702,Colour_Asymmetry_Pilot,2022.1.3,Win32,60.14675809,62c50e9c1127f2cd403a315f,,,,,,,,,,,,,,,,,,,,,,,,,,,,,,,,,,,,,,,,,,,,,,,,,,,,,,,,,,,,,,,,,,,,,,,,,,,,,,,,,,,,,,,,,,,,,,,,,,,,,,,,,,,,,,,,,,,,,,,,,,,,,,,,,,,,,,,,,,,,,,,,,,,,,,,,,,,,,,,,,,,
0,68,68,35,1,,600d559d03355c51465a7004,62c5396bcbc302299560b846,2022-07-06_09h28.22.702,Colour_Asymmetry_Pilot,2022.1.3,Win32,60.14675809,62c50e9c1127f2cd403a315f,,,,,,,,,,,,,,,,,,,,,,,,,,,,,,,,,,,,,,,,,,,,,,,,,,,,,,,,,,,,,,,,,,,,,,,,,,,,,,,,,,,,,,,,,,,,,,,,,,,,,,,,,,,,,,,,,,,,,,,,,,,,,,,,,,,,,,,,,,,,,,,,,,,,,,,,,,,,,,,,,,,
0,69,69,50,1,,600d559d03355c51465a7004,62c5396bcbc302299560b846,2022-07-06_09h28.22.702,Colour_Asymmetry_Pilot,2022.1.3,Win32,60.14675809,62c50e9c1127f2cd403a315f,,,,,,,,,,,,,,,,,,,,,,,,,,,,,,,,,,,,,,,,,,,,,,,,,,,,,,,,,,,,,,,,,,,,,,,,,,,,,,,,,,,,,,,,,,,,,,,,,,,,,,,,,,,,,,,,,,,,,,,,,,,,,,,,,,,,,,,,,,,,,,,,,,,,,,,,,,,,,,,,,,,
0,70,70,26,1,,600d559d03355c51465a7004,62c5396bcbc302299560b846,2022-07-06_09h28.22.702,Colour_Asymmetry_Pilot,2022.1.3,Win32,60.14675809,62c50e9c1127f2cd403a315f,,,,,,,,,,,,,,,,,,,,,,,,,,,,,,,,,,,,,,,,,,,,,,,,,,,,,,,,,,,,,,,,,,,,,,,,,,,,,,,,,,,,,,,,,,,,,,,,,,,,,,,,,,,,,,,,,,,,,,,,,,,,,,,,,,,,,,,,,,,,,,,,,,,,,,,,,,,,,,,,,,,
0,71,71,33,1,,600d559d03355c51465a7004,62c5396bcbc302299560b846,2022-07-06_09h28.22.702,Colour_Asymmetry_Pilot,2022.1.3,Win32,60.14675809,62c50e9c1127f2cd403a315f,,,,,,,,,,,,,,,,,,,,,,,,,,,,,,,,,,,,,,,,,,,,,,,,,,,,,,,,,,,,,,,,,,,,,,,,,,,,,,,,,,,,,,,,,,,,,,,,,,,,,,,,,,,,,,,,,,,,,,,,,,,,,,,,,,,,,,,,,,,,,,,,,,,,,,,,,,,,,,,,,,,
0,72,72,3,1,,600d559d03355c51465a7004,62c5396bcbc302299560b846,2022-07-06_09h28.22.702,Colour_Asymmetry_Pilot,2022.1.3,Win32,60.14675809,62c50e9c1127f2cd403a315f,,,,,,,,,,,,,,,,,,,,,,,,,,,,,,,,,,,,,,,,,,,,,,,,,,,,,,,,,,,,,,,,,,,,,,,,,,,,,,,,,,,,,,,,,,,,,,,,,,,,,,,,,,,,,,,,,,,,,,,,,,,,,,,,,,,,,,,,,,,,,,,,,,,,,,,,,,,,,,,,,,,
0,73,73,57,1,,600d559d03355c51465a7004,62c5396bcbc302299560b846,2022-07-06_09h28.22.702,Colour_Asymmetry_Pilot,2022.1.3,Win32,60.14675809,62c50e9c1127f2cd403a315f,,,,,,,,,,,,,,,,,,,,,,,,,,,,,,,,,,,,,,,,,,,,,,,,,,,,,,,,,,,,,,,,,,,,,,,,,,,,,,,,,,,,,,,,,,,,,,,,,,,,,,,,,,,,,,,,,,,,,,,,,,,,,,,,,,,,,,,,,,,,,,,,,,,,,,,,,,,,,,,,,,,
0,74,74,7,1,,600d559d03355c51465a7004,62c5396bcbc302299560b846,2022-07-06_09h28.22.702,Colour_Asymmetry_Pilot,2022.1.3,Win32,60.14675809,62c50e9c1127f2cd403a315f,,,,,,,,,,,,,,,,,,,,,,,,,,,,,,,,,,,,,,,,,,,,,,,,,,,,,,,,,,,,,,,,,,,,,,,,,,,,,,,,,,,,,,,,,,,,,,,,,,,,,,,,,,,,,,,,,,,,,,,,,,,,,,,,,,,,,,,,,,,,,,,,,,,,,,,,,,,,,,,,,,,
0,75,75,87,1,,600d559d03355c51465a7004,62c5396bcbc302299560b846,2022-07-06_09h28.22.702,Colour_Asymmetry_Pilot,2022.1.3,Win32,60.14675809,62c50e9c1127f2cd403a315f,,,,,,,,,,,,,,,,,,,,,,,,,,,,,,,,,,,,,,,,,,,,,,,,,,,,,,,,,,,,,,,,,,,,,,,,,,,,,,,,,,,,,,,,,,,,,,,,,,,,,,,,,,,,,,,,,,,,,,,,,,,,,,,,,,,,,,,,,,,,,,,,,,,,,,,,,,,,,,,,,,,
0,76,76,44,1,,600d559d03355c51465a7004,62c5396bcbc302299560b846,2022-07-06_09h28.22.702,Colour_Asymmetry_Pilot,2022.1.3,Win32,60.14675809,62c50e9c1127f2cd403a315f,,,,,,,,,,,,,,,,,,,,,,,,,,,,,,,,,,,,,,,,,,,,,,,,,,,,,,,,,,,,,,,,,,,,,,,,,,,,,,,,,,,,,,,,,,,,,,,,,,,,,,,,,,,,,,,,,,,,,,,,,,,,,,,,,,,,,,,,,,,,,,,,,,,,,,,,,,,,,,,,,,,
0,77,77,67,1,,600d559d03355c51465a7004,62c5396bcbc302299560b846,2022-07-06_09h28.22.702,Colour_Asymmetry_Pilot,2022.1.3,Win32,60.14675809,62c50e9c1127f2cd403a315f,,,,,,,,,,,,,,,,,,,,,,,,,,,,,,,,,,,,,,,,,,,,,,,,,,,,,,,,,,,,,,,,,,,,,,,,,,,,,,,,,,,,,,,,,,,,,,,,,,,,,,,,,,,,,,,,,,,,,,,,,,,,,,,,,,,,,,,,,,,,,,,,,,,,,,,,,,,,,,,,,,,
0,78,78,73,1,,600d559d03355c51465a7004,62c5396bcbc302299560b846,2022-07-06_09h28.22.702,Colour_Asymmetry_Pilot,2022.1.3,Win32,60.14675809,62c50e9c1127f2cd403a315f,,,,,,,,,,,,,,,,,,,,,,,,,,,,,,,,,,,,,,,,,,,,,,,,,,,,,,,,,,,,,,,,,,,,,,,,,,,,,,,,,,,,,,,,,,,,,,,,,,,,,,,,,,,,,,,,,,,,,,,,,,,,,,,,,,,,,,,,,,,,,,,,,,,,,,,,,,,,,,,,,,,
0,79,79,89,1,,600d559d03355c51465a7004,62c5396bcbc302299560b846,2022-07-06_09h28.22.702,Colour_Asymmetry_Pilot,2022.1.3,Win32,60.14675809,62c50e9c1127f2cd403a315f,,,,,,,,,,,,,,,,,,,,,,,,,,,,,,,,,,,,,,,,,,,,,,,,,,,,,,,,,,,,,,,,,,,,,,,,,,,,,,,,,,,,,,,,,,,,,,,,,,,,,,,,,,,,,,,,,,,,,,,,,,,,,,,,,,,,,,,,,,,,,,,,,,,,,,,,,,,,,,,,,,,
0,80,80,30,1,,600d559d03355c51465a7004,62c5396bcbc302299560b846,2022-07-06_09h28.22.702,Colour_Asymmetry_Pilot,2022.1.3,Win32,60.14675809,62c50e9c1127f2cd403a315f,,,,,,,,,,,,,,,,,,,,,,,,,,,,,,,,,,,,,,,,,,,,,,,,,,,,,,,,,,,,,,,,,,,,,,,,,,,,,,,,,,,,,,,,,,,,,,,,,,,,,,,,,,,,,,,,,,,,,,,,,,,,,,,,,,,,,,,,,,,,,,,,,,,,,,,,,,,,,,,,,,,
0,81,81,40,1,,600d559d03355c51465a7004,62c5396bcbc302299560b846,2022-07-06_09h28.22.702,Colour_Asymmetry_Pilot,2022.1.3,Win32,60.14675809,62c50e9c1127f2cd403a315f,,,,,,,,,,,,,,,,,,,,,,,,,,,,,,,,,,,,,,,,,,,,,,,,,,,,,,,,,,,,,,,,,,,,,,,,,,,,,,,,,,,,,,,,,,,,,,,,,,,,,,,,,,,,,,,,,,,,,,,,,,,,,,,,,,,,,,,,,,,,,,,,,,,,,,,,,,,,,,,,,,,
0,82,82,62,1,,600d559d03355c51465a7004,62c5396bcbc302299560b846,2022-07-06_09h28.22.702,Colour_Asymmetry_Pilot,2022.1.3,Win32,60.14675809,62c50e9c1127f2cd403a315f,,,,,,,,,,,,,,,,,,,,,,,,,,,,,,,,,,,,,,,,,,,,,,,,,,,,,,,,,,,,,,,,,,,,,,,,,,,,,,,,,,,,,,,,,,,,,,,,,,,,,,,,,,,,,,,,,,,,,,,,,,,,,,,,,,,,,,,,,,,,,,,,,,,,,,,,,,,,,,,,,,,
0,83,83,6,1,,600d559d03355c51465a7004,62c5396bcbc302299560b846,2022-07-06_09h28.22.702,Colour_Asymmetry_Pilot,2022.1.3,Win32,60.14675809,62c50e9c1127f2cd403a315f,,,,,,,,,,,,,,,,,,,,,,,,,,,,,,,,,,,,,,,,,,,,,,,,,,,,,,,,,,,,,,,,,,,,,,,,,,,,,,,,,,,,,,,,,,,,,,,,,,,,,,,,,,,,,,,,,,,,,,,,,,,,,,,,,,,,,,,,,,,,,,,,,,,,,,,,,,,,,,,,,,,
0,84,84,70,1,,600d559d03355c51465a7004,62c5396bcbc302299560b846,2022-07-06_09h28.22.702,Colour_Asymmetry_Pilot,2022.1.3,Win32,60.14675809,62c50e9c1127f2cd403a315f,,,,,,,,,,,,,,,,,,,,,,,,,,,,,,,,,,,,,,,,,,,,,,,,,,,,,,,,,,,,,,,,,,,,,,,,,,,,,,,,,,,,,,,,,,,,,,,,,,,,,,,,,,,,,,,,,,,,,,,,,,,,,,,,,,,,,,,,,,,,,,,,,,,,,,,,,,,,,,,,,,,
0,85,85,42,1,,600d559d03355c51465a7004,62c5396bcbc302299560b846,2022-07-06_09h28.22.702,Colour_Asymmetry_Pilot,2022.1.3,Win32,60.14675809,62c50e9c1127f2cd403a315f,,,,,,,,,,,,,,,,,,,,,,,,,,,,,,,,,,,,,,,,,,,,,,,,,,,,,,,,,,,,,,,,,,,,,,,,,,,,,,,,,,,,,,,,,,,,,,,,,,,,,,,,,,,,,,,,,,,,,,,,,,,,,,,,,,,,,,,,,,,,,,,,,,,,,,,,,,,,,,,,,,,
0,86,86,12,1,,600d559d03355c51465a7004,62c5396bcbc302299560b846,2022-07-06_09h28.22.702,Colour_Asymmetry_Pilot,2022.1.3,Win32,60.14675809,62c50e9c1127f2cd403a315f,,,,,,,,,,,,,,,,,,,,,,,,,,,,,,,,,,,,,,,,,,,,,,,,,,,,,,,,,,,,,,,,,,,,,,,,,,,,,,,,,,,,,,,,,,,,,,,,,,,,,,,,,,,,,,,,,,,,,,,,,,,,,,,,,,,,,,,,,,,,,,,,,,,,,,,,,,,,,,,,,,,
0,87,87,25,1,,600d559d03355c51465a7004,62c5396bcbc302299560b846,2022-07-06_09h28.22.702,Colour_Asymmetry_Pilot,2022.1.3,Win32,60.14675809,62c50e9c1127f2cd403a315f,,,,,,,,,,,,,,,,,,,,,,,,,,,,,,,,,,,,,,,,,,,,,,,,,,,,,,,,,,,,,,,,,,,,,,,,,,,,,,,,,,,,,,,,,,,,,,,,,,,,,,,,,,,,,,,,,,,,,,,,,,,,,,,,,,,,,,,,,,,,,,,,,,,,,,,,,,,,,,,,,,,
0,88,88,71,1,,600d559d03355c51465a7004,62c5396bcbc302299560b846,2022-07-06_09h28.22.702,Colour_Asymmetry_Pilot,2022.1.3,Win32,60.14675809,62c50e9c1127f2cd403a315f,,,,,,,,,,,,,,,,,,,,,,,,,,,,,,,,,,,,,,,,,,,,,,,,,,,,,,,,,,,,,,,,,,,,,,,,,,,,,,,,,,,,,,,,,,,,,,,,,,,,,,,,,,,,,,,,,,,,,,,,,,,,,,,,,,,,,,,,,,,,,,,,,,,,,,,,,,,,,,,,,,,
0,89,89,47,1,,600d559d03355c51465a7004,62c5396bcbc302299560b846,2022-07-06_09h28.22.702,Colour_Asymmetry_Pilot,2022.1.3,Win32,60.14675809,62c50e9c1127f2cd403a315f,,,,,,,,,,,,,,,,,,,,,,,,,,,,,,,,,,,,,,,,,,,,,,,,,,,,,,,,,,,,,,,,,,,,,,,,,,,,,,,,,,,,,,,,,,,,,,,,,,,,,,,,,,,,,,,,,,,,,,,,,,,,,,,,,,,,,,,,,,,,,,,,,,,,,,,,,,,,,,,,,,,
0,90,90,56,1,,600d559d03355c51465a7004,62c5396bcbc302299560b846,2022-07-06_09h28.22.702,Colour_Asymmetry_Pilot,2022.1.3,Win32,60.14675809,62c50e9c1127f2cd403a315f,,,,,,,,,,,,,,,,,,,,,,,,,,,,,,,,,,,,,,,,,,,,,,,,,,,,,,,,,,,,,,,,,,,,,,,,,,,,,,,,,,,,,,,,,,,,,,,,,,,,,,,,,,,,,,,,,,,,,,,,,,,,,,,,,,,,,,,,,,,,,,,,,,,,,,,,,,,,,,,,,,,
0,91,91,54,1,,600d559d03355c51465a7004,62c5396bcbc302299560b846,2022-07-06_09h28.22.702,Colour_Asymmetry_Pilot,2022.1.3,Win32,60.14675809,62c50e9c1127f2cd403a315f,,,,,,,,,,,,,,,,,,,,,,,,,,,,,,,,,,,,,,,,,,,,,,,,,,,,,,,,,,,,,,,,,,,,,,,,,,,,,,,,,,,,,,,,,,,,,,,,,,,,,,,,,,,,,,,,,,,,,,,,,,,,,,,,,,,,,,,,,,,,,,,,,,,,,,,,,,,,,,,,,,,
0,92,92,24,1,,600d559d03355c51465a7004,62c5396bcbc302299560b846,2022-07-06_09h28.22.702,Colour_Asymmetry_Pilot,2022.1.3,Win32,60.14675809,62c50e9c1127f2cd403a315f,,,,,,,,,,,,,,,,,,,,,,,,,,,,,,,,,,,,,,,,,,,,,,,,,,,,,,,,,,,,,,,,,,,,,,,,,,,,,,,,,,,,,,,,,,,,,,,,,,,,,,,,,,,,,,,,,,,,,,,,,,,,,,,,,,,,,,,,,,,,,,,,,,,,,,,,,,,,,,,,,,,
,,,,,,600d559d03355c51465a7004,62c5396bcbc302299560b846,2022-07-06_09h28.22.702,Colour_Asymmetry_Pilot,2022.1.3,Win32,60.14675809,62c50e9c1127f2cd403a315f,0,0,0,156,1,threeone,,,,,,,,,,,,,,,,,,,,,,,,,,,,,,,,,,,,,,,,,,,,,,,,,,,,,,,,,,,,,,,,,,,,,,,,,,,,,,,,,,,,,,,,,,,,,,,,,,,,,,,,,,,,,,,,,,,,,,,,,,,,,,,,,,,,,,,,,,,,,,,,,,,,,,,,,,,,,
,,,,,,600d559d03355c51465a7004,62c5396bcbc302299560b846,2022-07-06_09h28.22.702,Colour_Asymmetry_Pilot,2022.1.3,Win32,60.14675809,62c50e9c1127f2cd403a315f,0,1,1,105,1,onethree,,,,,,,,,,,,,,,,,,,,,,,,,,,,,,,,,,,,,,,,,,,,,,,,,,,,,,,,,,,,,,,,,,,,,,,,,,,,,,,,,,,,,,,,,,,,,,,,,,,,,,,,,,,,,,,,,,,,,,,,,,,,,,,,,,,,,,,,,,,,,,,,,,,,,,,,,,,,,
,,,,,,600d559d03355c51465a7004,62c5396bcbc302299560b846,2022-07-06_09h28.22.702,Colour_Asymmetry_Pilot,2022.1.3,Win32,60.14675809,62c50e9c1127f2cd403a315f,0,2,2,95,1,fourthree,,,,,,,,,,,,,,,,,,,,,,,,,,,,,,,,,,,,,,,,,,,,,,,,,,,,,,,,,,,,,,,,,,,,,,,,,,,,,,,,,,,,,,,,,,,,,,,,,,,,,,,,,,,,,,,,,,,,,,,,,,,,,,,,,,,,,,,,,,,,,,,,,,,,,,,,,,,,,
,,,,,,600d559d03355c51465a7004,62c5396bcbc302299560b846,2022-07-06_09h28.22.702,Colour_Asymmetry_Pilot,2022.1.3,Win32,60.14675809,62c50e9c1127f2cd403a315f,0,3,3,7,1,fourthree,,,,,,,,,,,,,,,,,,,,,,,,,,,,,,,,,,,,,,,,,,,,,,,,,,,,,,,,,,,,,,,,,,,,,,,,,,,,,,,,,,,,,,,,,,,,,,,,,,,,,,,,,,,,,,,,,,,,,,,,,,,,,,,,,,,,,,,,,,,,,,,,,,,,,,,,,,,,,
,,,,,,600d559d03355c51465a7004,62c5396bcbc302299560b846,2022-07-06_09h28.22.702,Colour_Asymmetry_Pilot,2022.1.3,Win32,60.14675809,62c50e9c1127f2cd403a315f,0,4,4,36,1,threeone,,,,,,,,,,,,,,,,,,,,,,,,,,,,,,,,,,,,,,,,,,,,,,,,,,,,,,,,,,,,,,,,,,,,,,,,,,,,,,,,,,,,,,,,,,,,,,,,,,,,,,,,,,,,,,,,,,,,,,,,,,,,,,,,,,,,,,,,,,,,,,,,,,,,,,,,,,,,,
,,,,,,600d559d03355c51465a7004,62c5396bcbc302299560b846,2022-07-06_09h28.22.702,Colour_Asymmetry_Pilot,2022.1.3,Win32,60.14675809,62c50e9c1127f2cd403a315f,0,5,5,50,1,twoone,,,,,,,,,,,,,,,,,,,,,,,,,,,,,,,,,,,,,,,,,,,,,,,,,,,,,,,,,,,,,,,,,,,,,,,,,,,,,,,,,,,,,,,,,,,,,,,,,,,,,,,,,,,,,,,,,,,,,,,,,,,,,,,,,,,,,,,,,,,,,,,,,,,,,,,,,,,,,
,,,,,,600d559d03355c51465a7004,62c5396bcbc302299560b846,2022-07-06_09h28.22.702,Colour_Asymmetry_Pilot,2022.1.3,Win32,60.14675809,62c50e9c1127f2cd403a315f,0,6,6,118,1,fourtwo,,,,,,,,,,,,,,,,,,,,,,,,,,,,,,,,,,,,,,,,,,,,,,,,,,,,,,,,,,,,,,,,,,,,,,,,,,,,,,,,,,,,,,,,,,,,,,,,,,,,,,,,,,,,,,,,,,,,,,,,,,,,,,,,,,,,,,,,,,,,,,,,,,,,,,,,,,,,,
,,,,,,600d559d03355c51465a7004,62c5396bcbc302299560b846,2022-07-06_09h28.22.702,Colour_Asymmetry_Pilot,2022.1.3,Win32,60.14675809,62c50e9c1127f2cd403a315f,0,7,7,0,1,onetwo,,,,,,,,,,,,,,,,,,,,,,,,,,,,,,,,,,,,,,,,,,,,,,,,,,,,,,,,,,,,,,,,,,,,,,,,,,,,,,,,,,,,,,,,,,,,,,,,,,,,,,,,,,,,,,,,,,,,,,,,,,,,,,,,,,,,,,,,,,,,,,,,,,,,,,,,,,,,,
,,,,,,600d559d03355c51465a7004,62c5396bcbc302299560b846,2022-07-06_09h28.22.702,Colour_Asymmetry_Pilot,2022.1.3,Win32,60.14675809,62c50e9c1127f2cd403a315f,0,8,8,127,1,fourthree,,,,,,,,,,,,,,,,,,,,,,,,,,,,,,,,,,,,,,,,,,,,,,,,,,,,,,,,,,,,,,,,,,,,,,,,,,,,,,,,,,,,,,,,,,,,,,,,,,,,,,,,,,,,,,,,,,,,,,,,,,,,,,,,,,,,,,,,,,,,,,,,,,,,,,,,,,,,,
,,,,,,600d559d03355c51465a7004,62c5396bcbc302299560b846,2022-07-06_09h28.22.702,Colour_Asymmetry_Pilot,2022.1.3,Win32,60.14675809,62c50e9c1127f2cd403a315f,0,9,9,97,1,onethree,,,,,,,,,,,,,,,,,,,,,,,,,,,,,,,,,,,,,,,,,,,,,,,,,,,,,,,,,,,,,,,,,,,,,,,,,,,,,,,,,,,,,,,,,,,,,,,,,,,,,,,,,,,,,,,,,,,,,,,,,,,,,,,,,,,,,,,,,,,,,,,,,,,,,,,,,,,,,
,,,,,,600d559d03355c51465a7004,62c5396bcbc302299560b846,2022-07-06_09h28.22.702,Colour_Asymmetry_Pilot,2022.1.3,Win32,60.14675809,62c50e9c1127f2cd403a315f,0,10,10,46,1,fourtwo,,,,,,,,,,,,,,,,,,,,,,,,,,,,,,,,,,,,,,,,,,,,,,,,,,,,,,,,,,,,,,,,,,,,,,,,,,,,,,,,,,,,,,,,,,,,,,,,,,,,,,,,,,,,,,,,,,,,,,,,,,,,,,,,,,,,,,,,,,,,,,,,,,,,,,,,,,,,,
,,,,,,600d559d03355c51465a7004,62c5396bcbc302299560b846,2022-07-06_09h28.22.702,Colour_Asymmetry_Pilot,2022.1.3,Win32,60.14675809,62c50e9c1127f2cd403a315f,0,11,11,138,1,twoone,,,,,,,,,,,,,,,,,,,,,,,,,,,,,,,,,,,,,,,,,,,,,,,,,,,,,,,,,,,,,,,,,,,,,,,,,,,,,,,,,,,,,,,,,,,,,,,,,,,,,,,,,,,,,,,,,,,,,,,,,,,,,,,,,,,,,,,,,,,,,,,,,,,,,,,,,,,,,
,,,,,,600d559d03355c51465a7004,62c5396bcbc302299560b846,2022-07-06_09h28.22.702,Colour_Asymmetry_Pilot,2022.1.3,Win32,60.14675809,62c50e9c1127f2cd403a315f,0,12,12,26,1,twoone,,,,,,,,,,,,,,,,,,,,,,,,,,,,,,,,,,,,,,,,,,,,,,,,,,,,,,,,,,,,,,,,,,,,,,,,,,,,,,,,,,,,,,,,,,,,,,,,,,,,,,,,,,,,,,,,,,,,,,,,,,,,,,,,,,,,,,,,,,,,,,,,,,,,,,,,,,,,,
,,,,,,600d559d03355c51465a7004,62c5396bcbc302299560b846,2022-07-06_09h28.22.702,Colour_Asymmetry_Pilot,2022.1.3,Win32,60.14675809,62c50e9c1127f2cd403a315f,0,13,13,1,1,onethree,,,,,,,,,,,,,,,,,,,,,,,,,,,,,,,,,,,,,,,,,,,,,,,,,,,,,,,,,,,,,,,,,,,,,,,,,,,,,,,,,,,,,,,,,,,,,,,,,,,,,,,,,,,,,,,,,,,,,,,,,,,,,,,,,,,,,,,,,,,,,,,,,,,,,,,,,,,,,
,,,,,,600d559d03355c51465a7004,62c5396bcbc302299560b846,2022-07-06_09h28.22.702,Colour_Asymmetry_Pilot,2022.1.3,Win32,60.14675809,62c50e9c1127f2cd403a315f,0,14,14,71,1,fourthree,,,,,,,,,,,,,,,,,,,,,,,,,,,,,,,,,,,,,,,,,,,,,,,,,,,,,,,,,,,,,,,,,,,,,,,,,,,,,,,,,,,,,,,,,,,,,,,,,,,,,,,,,,,,,,,,,,,,,,,,,,,,,,,,,,,,,,,,,,,,,,,,,,,,,,,,,,,,,
,,,,,,600d559d03355c51465a7004,62c5396bcbc302299560b846,2022-07-06_09h28.22.702,Colour_Asymmetry_Pilot,2022.1.3,Win32,60.14675809,62c50e9c1127f2cd403a315f,0,15,15,48,1,onetwo,,,,,,,,,,,,,,,,,,,,,,,,,,,,,,,,,,,,,,,,,,,,,,,,,,,,,,,,,,,,,,,,,,,,,,,,,,,,,,,,,,,,,,,,,,,,,,,,,,,,,,,,,,,,,,,,,,,,,,,,,,,,,,,,,,,,,,,,,,,,,,,,,,,,,,,,,,,,,
,,,,,,600d559d03355c51465a7004,62c5396bcbc302299560b846,2022-07-06_09h28.22.702,Colour_Asymmetry_Pilot,2022.1.3,Win32,60.14675809,62c50e9c1127f2cd403a315f,0,16,16,42,1,twoone,,,,,,,,,,,,,,,,,,,,,,,,,,,,,,,,,,,,,,,,,,,,,,,,,,,,,,,,,,,,,,,,,,,,,,,,,,,,,,,,,,,,,,,,,,,,,,,,,,,,,,,,,,,,,,,,,,,,,,,,,,,,,,,,,,,,,,,,,,,,,,,,,,,,,,,,,,,,,
,,,,,,600d559d03355c51465a7004,62c5396bcbc302299560b846,2022-07-06_09h28.22.702,Colour_Asymmetry_Pilot,2022.1.3,Win32,60.14675809,62c50e9c1127f2cd403a315f,0,17,17,129,1,onethree,,,,,,,,,,,,,,,,,,,,,,,,,,,,,,,,,,,,,,,,,,,,,,,,,,,,,,,,,,,,,,,,,,,,,,,,,,,,,,,,,,,,,,,,,,,,,,,,,,,,,,,,,,,,,,,,,,,,,,,,,,,,,,,,,,,,,,,,,,,,,,,,,,,,,,,,,,,,,
,,,,,,600d559d03355c51465a7004,62c5396bcbc302299560b846,2022-07-06_09h28.22.702,Colour_Asymmetry_Pilot,2022.1.3,Win32,60.14675809,62c50e9c1127f2cd403a315f,0,18,18,38,1,fourtwo,,,,,,,,,,,,,,,,,,,,,,,,,,,,,,,,,,,,,,,,,,,,,,,,,,,,,,,,,,,,,,,,,,,,,,,,,,,,,,,,,,,,,,,,,,,,,,,,,,,,,,,,,,,,,,,,,,,,,,,,,,,,,,,,,,,,,,,,,,,,,,,,,,,,,,,,,,,,,
,,,,,,600d559d03355c51465a7004,62c5396bcbc302299560b846,2022-07-06_09h28.22.702,Colour_Asymmetry_Pilot,2022.1.3,Win32,60.14675809,62c50e9c1127f2cd403a315f,0,19,19,125,1,threefour,,,,,,,,,,,,,,,,,,,,,,,,,,,,,,,,,,,,,,,,,,,,,,,,,,,,,,,,,,,,,,,,,,,,,,,,,,,,,,,,,,,,,,,,,,,,,,,,,,,,,,,,,,,,,,,,,,,,,,,,,,,,,,,,,,,,,,,,,,,,,,,,,,,,,,,,,,,,,
,,,,,,600d559d03355c51465a7004,62c5396bcbc302299560b846,2022-07-06_09h28.22.702,Colour_Asymmetry_Pilot,2022.1.3,Win32,60.14675809,62c50e9c1127f2cd403a315f,0,20,20,3,1,twofour,,,,,,,,,,,,,,,,,,,,,,,,,,,,,,,,,,,,,,,,,,,,,,,,,,,,,,,,,,,,,,,,,,,,,,,,,,,,,,,,,,,,,,,,,,,,,,,,,,,,,,,,,,,,,,,,,,,,,,,,,,,,,,,,,,,,,,,,,,,,,,,,,,,,,,,,,,,,,
,,,,,,600d559d03355c51465a7004,62c5396bcbc302299560b846,2022-07-06_09h28.22.702,Colour_Asymmetry_Pilot,2022.1.3,Win32,60.14675809,62c50e9c1127f2cd403a315f,0,21,21,137,1,onethree,,,,,,,,,,,,,,,,,,,,,,,,,,,,,,,,,,,,,,,,,,,,,,,,,,,,,,,,,,,,,,,,,,,,,,,,,,,,,,,,,,,,,,,,,,,,,,,,,,,,,,,,,,,,,,,,,,,,,,,,,,,,,,,,,,,,,,,,,,,,,,,,,,,,,,,,,,,,,
,,,,,,600d559d03355c51465a7004,62c5396bcbc302299560b846,2022-07-06_09h28.22.702,Colour_Asymmetry_Pilot,2022.1.3,Win32,60.14675809,62c50e9c1127f2cd403a315f,0,22,22,128,1,onetwo,,,,,,,,,,,,,,,,,,,,,,,,,,,,,,,,,,,,,,,,,,,,,,,,,,,,,,,,,,,,,,,,,,,,,,,,,,,,,,,,,,,,,,,,,,,,,,,,,,,,,,,,,,,,,,,,,,,,,,,,,,,,,,,,,,,,,,,,,,,,,,,,,,,,,,,,,,,,,
,,,,,,600d559d03355c51465a7004,62c5396bcbc302299560b846,2022-07-06_09h28.22.702,Colour_Asymmetry_Pilot,2022.1.3,Win32,60.14675809,62c50e9c1127f2cd403a315f,0,23,23,139,1,twofour,,,,,,,,,,,,,,,,,,,,,,,,,,,,,,,,,,,,,,,,,,,,,,,,,,,,,,,,,,,,,,,,,,,,,,,,,,,,,,,,,,,,,,,,,,,,,,,,,,,,,,,,,,,,,,,,,,,,,,,,,,,,,,,,,,,,,,,,,,,,,,,,,,,,,,,,,,,,,
,,,,,,600d559d03355c51465a7004,62c5396bcbc302299560b846,2022-07-06_09h28.22.702,Colour_Asymmetry_Pilot,2022.1.3,Win32,60.14675809,62c50e9c1127f2cd403a315f,0,24,24,44,1,threeone,,,,,,,,,,,,,,,,,,,,,,,,,,,,,,,,,,,,,,,,,,,,,,,,,,,,,,,,,,,,,,,,,,,,,,,,,,,,,,,,,,,,,,,,,,,,,,,,,,,,,,,,,,,,,,,,,,,,,,,,,,,,,,,,,,,,,,,,,,,,,,,,,,,,,,,,,,,,,
,,,,,,600d559d03355c51465a7004,62c5396bcbc302299560b846,2022-07-06_09h28.22.702,Colour_Asymmetry_Pilot,2022.1.3,Win32,60.14675809,62c50e9c1127f2cd403a315f,0,25,25,22,1,fourtwo,,,,,,,,,,,,,,,,,,,,,,,,,,,,,,,,,,,,,,,,,,,,,,,,,,,,,,,,,,,,,,,,,,,,,,,,,,,,,,,,,,,,,,,,,,,,,,,,,,,,,,,,,,,,,,,,,,,,,,,,,,,,,,,,,,,,,,,,,,,,,,,,,,,,,,,,,,,,,
,,,,,,600d559d03355c51465a7004,62c5396bcbc302299560b846,2022-07-06_09h28.22.702,Colour_Asymmetry_Pilot,2022.1.3,Win32,60.14675809,62c50e9c1127f2cd403a315f,0,26,26,124,1,threeone,,,,,,,,,,,,,,,,,,,,,,,,,,,,,,,,,,,,,,,,,,,,,,,,,,,,,,,,,,,,,,,,,,,,,,,,,,,,,,,,,,,,,,,,,,,,,,,,,,,,,,,,,,,,,,,,,,,,,,,,,,,,,,,,,,,,,,,,,,,,,,,,,,,,,,,,,,,,,
,,,,,,600d559d03355c51465a7004,62c5396bcbc302299560b846,2022-07-06_09h28.22.702,Colour_Asymmetry_Pilot,2022.1.3,Win32,60.14675809,62c50e9c1127f2cd403a315f,0,27,27,114,1,twoone,,,,,,,,,,,,,,,,,,,,,,,,,,,,,,,,,,,,,,,,,,,,,,,,,,,,,,,,,,,,,,,,,,,,,,,,,,,,,,,,,,,,,,,,,,,,,,,,,,,,,,,,,,,,,,,,,,,,,,,,,,,,,,,,,,,,,,,,,,,,,,,,,,,,,,,,,,,,,
,,,,,,600d559d03355c51465a7004,62c5396bcbc302299560b846,2022-07-06_09h28.22.702,Colour_Asymmetry_Pilot,2022.1.3,Win32,60.14675809,62c50e9c1127f2cd403a315f,0,28,28,19,1,twofour,,,,,,,,,,,,,,,,,,,,,,,,,,,,,,,,,,,,,,,,,,,,,,,,,,,,,,,,,,,,,,,,,,,,,,,,,,,,,,,,,,,,,,,,,,,,,,,,,,,,,,,,,,,,,,,,,,,,,,,,,,,,,,,,,,,,,,,,,,,,,,,,,,,,,,,,,,,,,
,,,,,,600d559d03355c51465a7004,62c5396bcbc302299560b846,2022-07-06_09h28.22.702,Colour_Asymmetry_Pilot,2022.1.3,Win32,60.14675809,62c50e9c1127f2cd403a315f,0,29,29,87,1,fourthree,,,,,,,,,,,,,,,,,,,,,,,,,,,,,,,,,,,,,,,,,,,,,,,,,,,,,,,,,,,,,,,,,,,,,,,,,,,,,,,,,,,,,,,,,,,,,,,,,,,,,,,,,,,,,,,,,,,,,,,,,,,,,,,,,,,,,,,,,,,,,,,,,,,,,,,,,,,,,
,,,,,,600d559d03355c51465a7004,62c5396bcbc302299560b846,2022-07-06_09h28.22.702,Colour_Asymmetry_Pilot,2022.1.3,Win32,60.14675809,62c50e9c1127f2cd403a315f,0,30,30,43,1,twofour,,,,,,,,,,,,,,,,,,,,,,,,,,,,,,,,,,,,,,,,,,,,,,,,,,,,,,,,,,,,,,,,,,,,,,,,,,,,,,,,,,,,,,,,,,,,,,,,,,,,,,,,,,,,,,,,,,,,,,,,,,,,,,,,,,,,,,,,,,,,,,,,,,,,,,,,,,,,,
,,,,,,600d559d03355c51465a7004,62c5396bcbc302299560b846,2022-07-06_09h28.22.702,Colour_Asymmetry_Pilot,2022.1.3,Win32,60.14675809,62c50e9c1127f2cd403a315f,0,31,31,157,1,threefour,,,,,,,,,,,,,,,,,,,,,,,,,,,,,,,,,,,,,,,,,,,,,,,,,,,,,,,,,,,,,,,,,,,,,,,,,,,,,,,,,,,,,,,,,,,,,,,,,,,,,,,,,,,,,,,,,,,,,,,,,,,,,,,,,,,,,,,,,,,,,,,,,,,,,,,,,,,,,
,,,,,,600d559d03355c51465a7004,62c5396bcbc302299560b846,2022-07-06_09h28.22.702,Colour_Asymmetry_Pilot,2022.1.3,Win32,60.14675809,62c50e9c1127f2cd403a315f,0,32,32,21,1,threefour,,,,,,,,,,,,,,,,,,,,,,,,,,,,,,,,,,,,,,,,,,,,,,,,,,,,,,,,,,,,,,,,,,,,,,,,,,,,,,,,,,,,,,,,,,,,,,,,,,,,,,,,,,,,,,,,,,,,,,,,,,,,,,,,,,,,,,,,,,,,,,,,,,,,,,,,,,,,,
,,,,,,600d559d03355c51465a7004,62c5396bcbc302299560b846,2022-07-06_09h28.22.702,Colour_Asymmetry_Pilot,2022.1.3,Win32,60.14675809,62c50e9c1127f2cd403a315f,0,33,33,82,1,twoone,,,,,,,,,,,,,,,,,,,,,,,,,,,,,,,,,,,,,,,,,,,,,,,,,,,,,,,,,,,,,,,,,,,,,,,,,,,,,,,,,,,,,,,,,,,,,,,,,,,,,,,,,,,,,,,,,,,,,,,,,,,,,,,,,,,,,,,,,,,,,,,,,,,,,,,,,,,,,
,,,,,,600d559d03355c51465a7004,62c5396bcbc302299560b846,2022-07-06_09h28.22.702,Colour_Asymmetry_Pilot,2022.1.3,Win32,60.14675809,62c50e9c1127f2cd403a315f,0,34,34,109,1,threefour,,,,,,,,,,,,,,,,,,,,,,,,,,,,,,,,,,,,,,,,,,,,,,,,,,,,,,,,,,,,,,,,,,,,,,,,,,,,,,,,,,,,,,,,,,,,,,,,,,,,,,,,,,,,,,,,,,,,,,,,,,,,,,,,,,,,,,,,,,,,,,,,,,,,,,,,,,,,,
,,,,,,600d559d03355c51465a7004,62c5396bcbc302299560b846,2022-07-06_09h28.22.702,Colour_Asymmetry_Pilot,2022.1.3,Win32,60.14675809,62c50e9c1127f2cd403a315f,0,35,35,149,1,threefour,,,,,,,,,,,,,,,,,,,,,,,,,,,,,,,,,,,,,,,,,,,,,,,,,,,,,,,,,,,,,,,,,,,,,,,,,,,,,,,,,,,,,,,,,,,,,,,,,,,,,,,,,,,,,,,,,,,,,,,,,,,,,,,,,,,,,,,,,,,,,,,,,,,,,,,,,,,,,
,,,,,,600d559d03355c51465a7004,62c5396bcbc302299560b846,2022-07-06_09h28.22.702,Colour_Asymmetry_Pilot,2022.1.3,Win32,60.14675809,62c50e9c1127f2cd403a315f,0,36,36,135,1,fourthree,,,,,,,,,,,,,,,,,,,,,,,,,,,,,,,,,,,,,,,,,,,,,,,,,,,,,,,,,,,,,,,,,,,,,,,,,,,,,,,,,,,,,,,,,,,,,,,,,,,,,,,,,,,,,,,,,,,,,,,,,,,,,,,,,,,,,,,,,,,,,,,,,,,,,,,,,,,,,
,,,,,,600d559d03355c51465a7004,62c5396bcbc302299560b846,2022-07-06_09h28.22.702,Colour_Asymmetry_Pilot,2022.1.3,Win32,60.14675809,62c50e9c1127f2cd403a315f,0,37,37,90,1,twoone,,,,,,,,,,,,,,,,,,,,,,,,,,,,,,,,,,,,,,,,,,,,,,,,,,,,,,,,,,,,,,,,,,,,,,,,,,,,,,,,,,,,,,,,,,,,,,,,,,,,,,,,,,,,,,,,,,,,,,,,,,,,,,,,,,,,,,,,,,,,,,,,,,,,,,,,,,,,,
,,,,,,600d559d03355c51465a7004,62c5396bcbc302299560b846,2022-07-06_09h28.22.702,Colour_Asymmetry_Pilot,2022.1.3,Win32,60.14675809,62c50e9c1127f2cd403a315f,0,38,38,32,1,onetwo,,,,,,,,,,,,,,,,,,,,,,,,,,,,,,,,,,,,,,,,,,,,,,,,,,,,,,,,,,,,,,,,,,,,,,,,,,,,,,,,,,,,,,,,,,,,,,,,,,,,,,,,,,,,,,,,,,,,,,,,,,,,,,,,,,,,,,,,,,,,,,,,,,,,,,,,,,,,,
,,,,,,600d559d03355c51465a7004,62c5396bcbc302299560b846,2022-07-06_09h28.22.702,Colour_Asymmetry_Pilot,2022.1.3,Win32,60.14675809,62c50e9c1127f2cd403a315f,0,39,39,77,1,threefour,,,,,,,,,,,,,,,,,,,,,,,,,,,,,,,,,,,,,,,,,,,,,,,,,,,,,,,,,,,,,,,,,,,,,,,,,,,,,,,,,,,,,,,,,,,,,,,,,,,,,,,,,,,,,,,,,,,,,,,,,,,,,,,,,,,,,,,,,,,,,,,,,,,,,,,,,,,,,
,,,,,,600d559d03355c51465a7004,62c5396bcbc302299560b846,2022-07-06_09h28.22.702,Colour_Asymmetry_Pilot,2022.1.3,Win32,60.14675809,62c50e9c1127f2cd403a315f,0,40,40,131,1,twofour,,,,,,,,,,,,,,,,,,,,,,,,,,,,,,,,,,,,,,,,,,,,,,,,,,,,,,,,,,,,,,,,,,,,,,,,,,,,,,,,,,,,,,,,,,,,,,,,,,,,,,,,,,,,,,,,,,,,,,,,,,,,,,,,,,,,,,,,,,,,,,,,,,,,,,,,,,,,,
,,,,,,600d559d03355c51465a7004,62c5396bcbc302299560b846,2022-07-06_09h28.22.702,Colour_Asymmetry_Pilot,2022.1.3,Win32,60.14675809,62c50e9c1127f2cd403a315f,0,41,41,4,1,threeone,,,,,,,,,,,,,,,,,,,,,,,,,,,,,,,,,,,,,,,,,,,,,,,,,,,,,,,,,,,,,,,,,,,,,,,,,,,,,,,,,,,,,,,,,,,,,,,,,,,,,,,,,,,,,,,,,,,,,,,,,,,,,,,,,,,,,,,,,,,,,,,,,,,,,,,,,,,,,
,,,,,,600d559d03355c51465a7004,62c5396bcbc302299560b846,2022-07-06_09h28.22.702,Colour_Asymmetry_Pilot,2022.1.3,Win32,60.14675809,62c50e9c1127f2cd403a315f,0,42,42,140,1,threeone,,,,,,,,,,,,,,,,,,,,,,,,,,,,,,,,,,,,,,,,,,,,,,,,,,,,,,,,,,,,,,,,,,,,,,,,,,,,,,,,,,,,,,,,,,,,,,,,,,,,,,,,,,,,,,,,,,,,,,,,,,,,,,,,,,,,,,,,,,,,,,,,,,,,,,,,,,,,,
,,,,,,600d559d03355c51465a7004,62c5396bcbc302299560b846,2022-07-06_09h28.22.702,Colour_Asymmetry_Pilot,2022.1.3,Win32,60.14675809,62c50e9c1127f2cd403a315f,0,43,43,17,1,onethree,,,,,,,,,,,,,,,,,,,,,,,,,,,,,,,,,,,,,,,,,,,,,,,,,,,,,,,,,,,,,,,,,,,,,,,,,,,,,,,,,,,,,,,,,,,,,,,,,,,,,,,,,,,,,,,,,,,,,,,,,,,,,,,,,,,,,,,,,,,,,,,,,,,,,,,,,,,,,
,,,,,,600d559d03355c51465a7004,62c5396bcbc302299560b846,2022-07-06_09h28.22.702,Colour_Asymmetry_Pilot,2022.1.3,Win32,60.14675809,62c50e9c1127f2cd403a315f,0,44,44,62,1,fourtwo,,,,,,,,,,,,,,,,,,,,,,,,,,,,,,,,,,,,,,,,,,,,,,,,,,,,,,,,,,,,,,,,,,,,,,,,,,,,,,,,,,,,,,,,,,,,,,,,,,,,,,,,,,,,,,,,,,,,,,,,,,,,,,,,,,,,,,,,,,,,,,,,,,,,,,,,,,,,,
,,,,,,600d559d03355c51465a7004,62c5396bcbc302299560b846,2022-07-06_09h28.22.702,Colour_Asymmetry_Pilot,2022.1.3,Win32,60.14675809,62c50e9c1127f2cd403a315f,0,45,45,147,1,twofour,,,,,,,,,,,,,,,,,,,,,,,,,,,,,,,,,,,,,,,,,,,,,,,,,,,,,,,,,,,,,,,,,,,,,,,,,,,,,,,,,,,,,,,,,,,,,,,,,,,,,,,,,,,,,,,,,,,,,,,,,,,,,,,,,,,,,,,,,,,,,,,,,,,,,,,,,,,,,
,,,,,,600d559d03355c51465a7004,62c5396bcbc302299560b846,2022-07-06_09h28.22.702,Colour_Asymmetry_Pilot,2022.1.3,Win32,60.14675809,62c50e9c1127f2cd403a315f,0,46,46,34,1,twoone,,,,,,,,,,,,,,,,,,,,,,,,,,,,,,,,,,,,,,,,,,,,,,,,,,,,,,,,,,,,,,,,,,,,,,,,,,,,,,,,,,,,,,,,,,,,,,,,,,,,,,,,,,,,,,,,,,,,,,,,,,,,,,,,,,,,,,,,,,,,,,,,,,,,,,,,,,,,,
,,,,,,600d559d03355c51465a7004,62c5396bcbc302299560b846,2022-07-06_09h28.22.702,Colour_Asymmetry_Pilot,2022.1.3,Win32,60.14675809,62c50e9c1127f2cd403a315f,0,47,47,100,1,threeone,,,,,,,,,,,,,,,,,,,,,,,,,,,,,,,,,,,,,,,,,,,,,,,,,,,,,,,,,,,,,,,,,,,,,,,,,,,,,,,,,,,,,,,,,,,,,,,,,,,,,,,,,,,,,,,,,,,,,,,,,,,,,,,,,,,,,,,,,,,,,,,,,,,,,,,,,,,,,
,,,,,,600d559d03355c51465a7004,62c5396bcbc302299560b846,2022-07-06_09h28.22.702,Colour_Asymmetry_Pilot,2022.1.3,Win32,60.14675809,62c50e9c1127f2cd403a315f,0,48,48,57,1,onethree,,,,,,,,,,,,,,,,,,,,,,,,,,,,,,,,,,,,,,,,,,,,,,,,,,,,,,,,,,,,,,,,,,,,,,,,,,,,,,,,,,,,,,,,,,,,,,,,,,,,,,,,,,,,,,,,,,,,,,,,,,,,,,,,,,,,,,,,,,,,,,,,,,,,,,,,,,,,,
,,,,,,600d559d03355c51465a7004,62c5396bcbc302299560b846,2022-07-06_09h28.22.702,Colour_Asymmetry_Pilot,2022.1.3,Win32,60.14675809,62c50e9c1127f2cd403a315f,0,49,49,16,1,onetwo,,,,,,,,,,,,,,,,,,,,,,,,,,,,,,,,,,,,,,,,,,,,,,,,,,,,,,,,,,,,,,,,,,,,,,,,,,,,,,,,,,,,,,,,,,,,,,,,,,,,,,,,,,,,,,,,,,,,,,,,,,,,,,,,,,,,,,,,,,,,,,,,,,,,,,,,,,,,,
,,,,,,600d559d03355c51465a7004,62c5396bcbc302299560b846,2022-07-06_09h28.22.702,Colour_Asymmetry_Pilot,2022.1.3,Win32,60.14675809,62c50e9c1127f2cd403a315f,0,50,50,86,1,fourtwo,,,,,,,,,,,,,,,,,,,,,,,,,,,,,,,,,,,,,,,,,,,,,,,,,,,,,,,,,,,,,,,,,,,,,,,,,,,,,,,,,,,,,,,,,,,,,,,,,,,,,,,,,,,,,,,,,,,,,,,,,,,,,,,,,,,,,,,,,,,,,,,,,,,,,,,,,,,,,
,,,,,,600d559d03355c51465a7004,62c5396bcbc302299560b846,2022-07-06_09h28.22.702,Colour_Asymmetry_Pilot,2022.1.3,Win32,60.14675809,62c50e9c1127f2cd403a315f,0,51,51,108,1,threeone,,,,,,,,,,,,,,,,,,,,,,,,,,,,,,,,,,,,,,,,,,,,,,,,,,,,,,,,,,,,,,,,,,,,,,,,,,,,,,,,,,,,,,,,,,,,,,,,,,,,,,,,,,,,,,,,,,,,,,,,,,,,,,,,,,,,,,,,,,,,,,,,,,,,,,,,,,,,,
,,,,,,600d559d03355c51465a7004,62c5396bcbc302299560b846,2022-07-06_09h28.22.702,Colour_Asymmetry_Pilot,2022.1.3,Win32,60.14675809,62c50e9c1127f2cd403a315f,0,52,52,68,1,threeone,,,,,,,,,,,,,,,,,,,,,,,,,,,,,,,,,,,,,,,,,,,,,,,,,,,,,,,,,,,,,,,,,,,,,,,,,,,,,,,,,,,,,,,,,,,,,,,,,,,,,,,,,,,,,,,,,,,,,,,,,,,,,,,,,,,,,,,,,,,,,,,,,,,,,,,,,,,,,
,,,,,,600d559d03355c51465a7004,62c5396bcbc302299560b846,2022-07-06_09h28.22.702,Colour_Asymmetry_Pilot,2022.1.3,Win32,60.14675809,62c50e9c1127f2cd403a315f,0,53,53,106,1,twoone,,,,,,,,,,,,,,,,,,,,,,,,,,,,,,,,,,,,,,,,,,,,,,,,,,,,,,,,,,,,,,,,,,,,,,,,,,,,,,,,,,,,,,,,,,,,,,,,,,,,,,,,,,,,,,,,,,,,,,,,,,,,,,,,,,,,,,,,,,,,,,,,,,,,,,,,,,,,,
,,,,,,600d559d03355c51465a7004,62c5396bcbc302299560b846,2022-07-06_09h28.22.702,Colour_Asymmetry_Pilot,2022.1.3,Win32,60.14675809,62c50e9c1127f2cd403a315f,0,54,54,78,1,fourtwo,,,,,,,,,,,,,,,,,,,,,,,,,,,,,,,,,,,,,,,,,,,,,,,,,,,,,,,,,,,,,,,,,,,,,,,,,,,,,,,,,,,,,,,,,,,,,,,,,,,,,,,,,,,,,,,,,,,,,,,,,,,,,,,,,,,,,,,,,,,,,,,,,,,,,,,,,,,,,
,,,,,,600d559d03355c51465a7004,62c5396bcbc302299560b846,2022-07-06_09h28.22.702,Colour_Asymmetry_Pilot,2022.1.3,Win32,60.14675809,62c50e9c1127f2cd403a315f,0,55,55,81,1,onethree,,,,,,,,,,,,,,,,,,,,,,,,,,,,,,,,,,,,,,,,,,,,,,,,,,,,,,,,,,,,,,,,,,,,,,,,,,,,,,,,,,,,,,,,,,,,,,,,,,,,,,,,,,,,,,,,,,,,,,,,,,,,,,,,,,,,,,,,,,,,,,,,,,,,,,,,,,,,,
,,,,,,600d559d03355c51465a7004,62c5396bcbc302299560b846,2022-07-06_09h28.22.702,Colour_Asymmetry_Pilot,2022.1.3,Win32,60.14675809,62c50e9c1127f2cd403a315f,0,56,56,51,1,twofour,,,,,,,,,,,,,,,,,,,,,,,,,,,,,,,,,,,,,,,,,,,,,,,,,,,,,,,,,,,,,,,,,,,,,,,,,,,,,,,,,,,,,,,,,,,,,,,,,,,,,,,,,,,,,,,,,,,,,,,,,,,,,,,,,,,,,,,,,,,,,,,,,,,,,,,,,,,,,
,,,,,,600d559d03355c51465a7004,62c5396bcbc302299560b846,2022-07-06_09h28.22.702,Colour_Asymmetry_Pilot,2022.1.3,Win32,60.14675809,62c50e9c1127f2cd403a315f,0,57,57,59,1,twofour,,,,,,,,,,,,,,,,,,,,,,,,,,,,,,,,,,,,,,,,,,,,,,,,,,,,,,,,,,,,,,,,,,,,,,,,,,,,,,,,,,,,,,,,,,,,,,,,,,,,,,,,,,,,,,,,,,,,,,,,,,,,,,,,,,,,,,,,,,,,,,,,,,,,,,,,,,,,,
,,,,,,600d559d03355c51465a7004,62c5396bcbc302299560b846,2022-07-06_09h28.22.702,Colour_Asymmetry_Pilot,2022.1.3,Win32,60.14675809,62c50e9c1127f2cd403a315f,0,58,58,102,1,fourtwo,,,,,,,,,,,,,,,,,,,,,,,,,,,,,,,,,,,,,,,,,,,,,,,,,,,,,,,,,,,,,,,,,,,,,,,,,,,,,,,,,,,,,,,,,,,,,,,,,,,,,,,,,,,,,,,,,,,,,,,,,,,,,,,,,,,,,,,,,,,,,,,,,,,,,,,,,,,,,
,,,,,,600d559d03355c51465a7004,62c5396bcbc302299560b846,2022-07-06_09h28.22.702,Colour_Asymmetry_Pilot,2022.1.3,Win32,60.14675809,62c50e9c1127f2cd403a315f,0,59,59,101,1,threefour,,,,,,,,,,,,,,,,,,,,,,,,,,,,,,,,,,,,,,,,,,,,,,,,,,,,,,,,,,,,,,,,,,,,,,,,,,,,,,,,,,,,,,,,,,,,,,,,,,,,,,,,,,,,,,,,,,,,,,,,,,,,,,,,,,,,,,,,,,,,,,,,,,,,,,,,,,,,,
,,,,,,600d559d03355c51465a7004,62c5396bcbc302299560b846,2022-07-06_09h28.22.702,Colour_Asymmetry_Pilot,2022.1.3,Win32,60.14675809,62c50e9c1127f2cd403a315f,0,60,60,117,1,threefour,,,,,,,,,,,,,,,,,,,,,,,,,,,,,,,,,,,,,,,,,,,,,,,,,,,,,,,,,,,,,,,,,,,,,,,,,,,,,,,,,,,,,,,,,,,,,,,,,,,,,,,,,,,,,,,,,,,,,,,,,,,,,,,,,,,,,,,,,,,,,,,,,,,,,,,,,,,,,
,,,,,,600d559d03355c51465a7004,62c5396bcbc302299560b846,2022-07-06_09h28.22.702,Colour_Asymmetry_Pilot,2022.1.3,Win32,60.14675809,62c50e9c1127f2cd403a315f,0,61,61,123,1,twofour,,,,,,,,,,,,,,,,,,,,,,,,,,,,,,,,,,,,,,,,,,,,,,,,,,,,,,,,,,,,,,,,,,,,,,,,,,,,,,,,,,,,,,,,,,,,,,,,,,,,,,,,,,,,,,,,,,,,,,,,,,,,,,,,,,,,,,,,,,,,,,,,,,,,,,,,,,,,,
,,,,,,600d559d03355c51465a7004,62c5396bcbc302299560b846,2022-07-06_09h28.22.702,Colour_Asymmetry_Pilot,2022.1.3,Win32,60.14675809,62c50e9c1127f2cd403a315f,0,62,62,67,1,twofour,,,,,,,,,,,,,,,,,,,,,,,,,,,,,,,,,,,,,,,,,,,,,,,,,,,,,,,,,,,,,,,,,,,,,,,,,,,,,,,,,,,,,,,,,,,,,,,,,,,,,,,,,,,,,,,,,,,,,,,,,,,,,,,,,,,,,,,,,,,,,,,,,,,,,,,,,,,,,
,,,,,,600d559d03355c51465a7004,62c5396bcbc302299560b846,2022-07-06_09h28.22.702,Colour_Asymmetry_Pilot,2022.1.3,Win32,60.14675809,62c50e9c1127f2cd403a315f,0,63,63,23,1,fourthree,,,,,,,,,,,,,,,,,,,,,,,,,,,,,,,,,,,,,,,,,,,,,,,,,,,,,,,,,,,,,,,,,,,,,,,,,,,,,,,,,,,,,,,,,,,,,,,,,,,,,,,,,,,,,,,,,,,,,,,,,,,,,,,,,,,,,,,,,,,,,,,,,,,,,,,,,,,,,
,,,,,,600d559d03355c51465a7004,62c5396bcbc302299560b846,2022-07-06_09h28.22.702,Colour_Asymmetry_Pilot,2022.1.3,Win32,60.14675809,62c50e9c1127f2cd403a315f,0,64,64,116,1,threeone,,,,,,,,,,,,,,,,,,,,,,,,,,,,,,,,,,,,,,,,,,,,,,,,,,,,,,,,,,,,,,,,,,,,,,,,,,,,,,,,,,,,,,,,,,,,,,,,,,,,,,,,,,,,,,,,,,,,,,,,,,,,,,,,,,,,,,,,,,,,,,,,,,,,,,,,,,,,,
,,,,,,600d559d03355c51465a7004,62c5396bcbc302299560b846,2022-07-06_09h28.22.702,Colour_Asymmetry_Pilot,2022.1.3,Win32,60.14675809,62c50e9c1127f2cd403a315f,0,65,65,33,1,onethree,,,,,,,,,,,,,,,,,,,,,,,,,,,,,,,,,,,,,,,,,,,,,,,,,,,,,,,,,,,,,,,,,,,,,,,,,,,,,,,,,,,,,,,,,,,,,,,,,,,,,,,,,,,,,,,,,,,,,,,,,,,,,,,,,,,,,,,,,,,,,,,,,,,,,,,,,,,,,
,,,,,,600d559d03355c51465a7004,62c5396bcbc302299560b846,2022-07-06_09h28.22.702,Colour_Asymmetry_Pilot,2022.1.3,Win32,60.14675809,62c50e9c1127f2cd403a315f,0,66,66,76,1,threeone,,,,,,,,,,,,,,,,,,,,,,,,,,,,,,,,,,,,,,,,,,,,,,,,,,,,,,,,,,,,,,,,,,,,,,,,,,,,,,,,,,,,,,,,,,,,,,,,,,,,,,,,,,,,,,,,,,,,,,,,,,,,,,,,,,,,,,,,,,,,,,,,,,,,,,,,,,,,,
,,,,,,600d559d03355c51465a7004,62c5396bcbc302299560b846,2022-07-06_09h28.22.702,Colour_Asymmetry_Pilot,2022.1.3,Win32,60.14675809,62c50e9c1127f2cd403a315f,0,67,67,126,1,fourtwo,,,,,,,,,,,,,,,,,,,,,,,,,,,,,,,,,,,,,,,,,,,,,,,,,,,,,,,,,,,,,,,,,,,,,,,,,,,,,,,,,,,,,,,,,,,,,,,,,,,,,,,,,,,,,,,,,,,,,,,,,,,,,,,,,,,,,,,,,,,,,,,,,,,,,,,,,,,,,
,,,,,,600d559d03355c51465a7004,62c5396bcbc302299560b846,2022-07-06_09h28.22.702,Colour_Asymmetry_Pilot,2022.1.3,Win32,60.14675809,62c50e9c1127f2cd403a315f,0,68,68,29,1,threefour,,,,,,,,,,,,,,,,,,,,,,,,,,,,,,,,,,,,,,,,,,,,,,,,,,,,,,,,,,,,,,,,,,,,,,,,,,,,,,,,,,,,,,,,,,,,,,,,,,,,,,,,,,,,,,,,,,,,,,,,,,,,,,,,,,,,,,,,,,,,,,,,,,,,,,,,,,,,,
,,,,,,600d559d03355c51465a7004,62c5396bcbc302299560b846,2022-07-06_09h28.22.702,Colour_Asymmetry_Pilot,2022.1.3,Win32,60.14675809,62c50e9c1127f2cd403a315f,0,69,69,111,1,fourthree,,,,,,,,,,,,,,,,,,,,,,,,,,,,,,,,,,,,,,,,,,,,,,,,,,,,,,,,,,,,,,,,,,,,,,,,,,,,,,,,,,,,,,,,,,,,,,,,,,,,,,,,,,,,,,,,,,,,,,,,,,,,,,,,,,,,,,,,,,,,,,,,,,,,,,,,,,,,,
,,,,,,600d559d03355c51465a7004,62c5396bcbc302299560b846,2022-07-06_09h28.22.702,Colour_Asymmetry_Pilot,2022.1.3,Win32,60.14675809,62c50e9c1127f2cd403a315f,0,70,70,65,1,onethree,,,,,,,,,,,,,,,,,,,,,,,,,,,,,,,,,,,,,,,,,,,,,,,,,,,,,,,,,,,,,,,,,,,,,,,,,,,,,,,,,,,,,,,,,,,,,,,,,,,,,,,,,,,,,,,,,,,,,,,,,,,,,,,,,,,,,,,,,,,,,,,,,,,,,,,,,,,,,
,,,,,,600d559d03355c51465a7004,62c5396bcbc302299560b846,2022-07-06_09h28.22.702,Colour_Asymmetry_Pilot,2022.1.3,Win32,60.14675809,62c50e9c1127f2cd403a315f,0,71,71,13,1,threefour,,,,,,,,,,,,,,,,,,,,,,,,,,,,,,,,,,,,,,,,,,,,,,,,,,,,,,,,,,,,,,,,,,,,,,,,,,,,,,,,,,,,,,,,,,,,,,,,,,,,,,,,,,,,,,,,,,,,,,,,,,,,,,,,,,,,,,,,,,,,,,,,,,,,,,,,,,,,,
,,,,,,600d559d03355c51465a7004,62c5396bcbc302299560b846,2022-07-06_09h28.22.702,Colour_Asymmetry_Pilot,2022.1.3,Win32,60.14675809,62c50e9c1127f2cd403a315f,0,72,72,89,1,onethree,,,,,,,,,,,,,,,,,,,,,,,,,,,,,,,,,,,,,,,,,,,,,,,,,,,,,,,,,,,,,,,,,,,,,,,,,,,,,,,,,,,,,,,,,,,,,,,,,,,,,,,,,,,,,,,,,,,,,,,,,,,,,,,,,,,,,,,,,,,,,,,,,,,,,,,,,,,,,
,,,,,,600d559d03355c51465a7004,62c5396bcbc302299560b846,2022-07-06_09h28.22.702,Colour_Asymmetry_Pilot,2022.1.3,Win32,60.14675809,62c50e9c1127f2cd403a315f,0,73,73,49,1,onethree,,,,,,,,,,,,,,,,,,,,,,,,,,,,,,,,,,,,,,,,,,,,,,,,,,,,,,,,,,,,,,,,,,,,,,,,,,,,,,,,,,,,,,,,,,,,,,,,,,,,,,,,,,,,,,,,,,,,,,,,,,,,,,,,,,,,,,,,,,,,,,,,,,,,,,,,,,,,,
,,,,,,600d559d03355c51465a7004,62c5396bcbc302299560b846,2022-07-06_09h28.22.702,Colour_Asymmetry_Pilot,2022.1.3,Win32,60.14675809,62c50e9c1127f2cd403a315f,0,74,74,39,1,fourthree,,,,,,,,,,,,,,,,,,,,,,,,,,,,,,,,,,,,,,,,,,,,,,,,,,,,,,,,,,,,,,,,,,,,,,,,,,,,,,,,,,,,,,,,,,,,,,,,,,,,,,,,,,,,,,,,,,,,,,,,,,,,,,,,,,,,,,,,,,,,,,,,,,,,,,,,,,,,,
,,,,,,600d559d03355c51465a7004,62c5396bcbc302299560b846,2022-07-06_09h28.22.702,Colour_Asymmetry_Pilot,2022.1.3,Win32,60.14675809,62c50e9c1127f2cd403a315f,0,75,75,130,1,twoone,,,,,,,,,,,,,,,,,,,,,,,,,,,,,,,,,,,,,,,,,,,,,,,,,,,,,,,,,,,,,,,,,,,,,,,,,,,,,,,,,,,,,,,,,,,,,,,,,,,,,,,,,,,,,,,,,,,,,,,,,,,,,,,,,,,,,,,,,,,,,,,,,,,,,,,,,,,,,
,,,,,,600d559d03355c51465a7004,62c5396bcbc302299560b846,2022-07-06_09h28.22.702,Colour_Asymmetry_Pilot,2022.1.3,Win32,60.14675809,62c50e9c1127f2cd403a315f,0,76,76,9,1,onethree,,,,,,,,,,,,,,,,,,,,,,,,,,,,,,,,,,,,,,,,,,,,,,,,,,,,,,,,,,,,,,,,,,,,,,,,,,,,,,,,,,,,,,,,,,,,,,,,,,,,,,,,,,,,,,,,,,,,,,,,,,,,,,,,,,,,,,,,,,,,,,,,,,,,,,,,,,,,,
,,,,,,600d559d03355c51465a7004,62c5396bcbc302299560b846,2022-07-06_09h28.22.702,Colour_Asymmetry_Pilot,2022.1.3,Win32,60.14675809,62c50e9c1127f2cd403a315f,0,77,77,153,1,onethree,,,,,,,,,,,,,,,,,,,,,,,,,,,,,,,,,,,,,,,,,,,,,,,,,,,,,,,,,,,,,,,,,,,,,,,,,,,,,,,,,,,,,,,,,,,,,,,,,,,,,,,,,,,,,,,,,,,,,,,,,,,,,,,,,,,,,,,,,,,,,,,,,,,,,,,,,,,,,
,,,,,,600d559d03355c51465a7004,62c5396bcbc302299560b846,2022-07-06_09h28.22.702,Colour_Asymmetry_Pilot,2022.1.3,Win32,60.14675809,62c50e9c1127f2cd403a315f,0,78,78,136,1,onetwo,,,,,,,,,,,,,,,,,,,,,,,,,,,,,,,,,,,,,,,,,,,,,,,,,,,,,,,,,,,,,,,,,,,,,,,,,,,,,,,,,,,,,,,,,,,,,,,,,,,,,,,,,,,,,,,,,,,,,,,,,,,,,,,,,,,,,,,,,,,,,,,,,,,,,,,,,,,,,
,,,,,,600d559d03355c51465a7004,62c5396bcbc302299560b846,2022-07-06_09h28.22.702,Colour_Asymmetry_Pilot,2022.1.3,Win32,60.14675809,62c50e9c1127f2cd403a315f,0,79,79,52,1,threeone,,,,,,,,,,,,,,,,,,,,,,,,,,,,,,,,,,,,,,,,,,,,,,,,,,,,,,,,,,,,,,,,,,,,,,,,,,,,,,,,,,,,,,,,,,,,,,,,,,,,,,,,,,,,,,,,,,,,,,,,,,,,,,,,,,,,,,,,,,,,,,,,,,,,,,,,,,,,,
,,,,,,600d559d03355c51465a7004,62c5396bcbc302299560b846,2022-07-06_09h28.22.702,Colour_Asymmetry_Pilot,2022.1.3,Win32,60.14675809,62c50e9c1127f2cd403a315f,0,80,80,30,1,fourtwo,,,,,,,,,,,,,,,,,,,,,,,,,,,,,,,,,,,,,,,,,,,,,,,,,,,,,,,,,,,,,,,,,,,,,,,,,,,,,,,,,,,,,,,,,,,,,,,,,,,,,,,,,,,,,,,,,,,,,,,,,,,,,,,,,,,,,,,,,,,,,,,,,,,,,,,,,,,,,
,,,,,,600d559d03355c51465a7004,62c5396bcbc302299560b846,2022-07-06_09h28.22.702,Colour_Asymmetry_Pilot,2022.1.3,Win32,60.14675809,62c50e9c1127f2cd403a315f,0,81,81,103,1,fourthree,,,,,,,,,,,,,,,,,,,,,,,,,,,,,,,,,,,,,,,,,,,,,,,,,,,,,,,,,,,,,,,,,,,,,,,,,,,,,,,,,,,,,,,,,,,,,,,,,,,,,,,,,,,,,,,,,,,,,,,,,,,,,,,,,,,,,,,,,,,,,,,,,,,,,,,,,,,,,
,,,,,,600d559d03355c51465a7004,62c5396bcbc302299560b846,2022-07-06_09h28.22.702,Colour_Asymmetry_Pilot,2022.1.3,Win32,60.14675809,62c50e9c1127f2cd403a315f,0,82,82,73,1,onethree,,,,,,,,,,,,,,,,,,,,,,,,,,,,,,,,,,,,,,,,,,,,,,,,,,,,,,,,,,,,,,,,,,,,,,,,,,,,,,,,,,,,,,,,,,,,,,,,,,,,,,,,,,,,,,,,,,,,,,,,,,,,,,,,,,,,,,,,,,,,,,,,,,,,,,,,,,,,,
,,,,,,600d559d03355c51465a7004,62c5396bcbc302299560b846,2022-07-06_09h28.22.702,Colour_Asymmetry_Pilot,2022.1.3,Win32,60.14675809,62c50e9c1127f2cd403a315f,0,83,83,155,1,twofour,,,,,,,,,,,,,,,,,,,,,,,,,,,,,,,,,,,,,,,,,,,,,,,,,,,,,,,,,,,,,,,,,,,,,,,,,,,,,,,,,,,,,,,,,,,,,,,,,,,,,,,,,,,,,,,,,,,,,,,,,,,,,,,,,,,,,,,,,,,,,,,,,,,,,,,,,,,,,
,,,,,,600d559d03355c51465a7004,62c5396bcbc302299560b846,2022-07-06_09h28.22.702,Colour_Asymmetry_Pilot,2022.1.3,Win32,60.14675809,62c50e9c1127f2cd403a315f,0,84,84,79,1,fourthree,,,,,,,,,,,,,,,,,,,,,,,,,,,,,,,,,,,,,,,,,,,,,,,,,,,,,,,,,,,,,,,,,,,,,,,,,,,,,,,,,,,,,,,,,,,,,,,,,,,,,,,,,,,,,,,,,,,,,,,,,,,,,,,,,,,,,,,,,,,,,,,,,,,,,,,,,,,,,
,,,,,,600d559d03355c51465a7004,62c5396bcbc302299560b846,2022-07-06_09h28.22.702,Colour_Asymmetry_Pilot,2022.1.3,Win32,60.14675809,62c50e9c1127f2cd403a315f,0,85,85,83,1,twofour,,,,,,,,,,,,,,,,,,,,,,,,,,,,,,,,,,,,,,,,,,,,,,,,,,,,,,,,,,,,,,,,,,,,,,,,,,,,,,,,,,,,,,,,,,,,,,,,,,,,,,,,,,,,,,,,,,,,,,,,,,,,,,,,,,,,,,,,,,,,,,,,,,,,,,,,,,,,,
,,,,,,600d559d03355c51465a7004,62c5396bcbc302299560b846,2022-07-06_09h28.22.702,Colour_Asymmetry_Pilot,2022.1.3,Win32,60.14675809,62c50e9c1127f2cd403a315f,0,86,86,160,1,onetwo,,,,,,,,,,,,,,,,,,,,,,,,,,,,,,,,,,,,,,,,,,,,,,,,,,,,,,,,,,,,,,,,,,,,,,,,,,,,,,,,,,,,,,,,,,,,,,,,,,,,,,,,,,,,,,,,,,,,,,,,,,,,,,,,,,,,,,,,,,,,,,,,,,,,,,,,,,,,,
,,,,,,600d559d03355c51465a7004,62c5396bcbc302299560b846,2022-07-06_09h28.22.702,Colour_Asymmetry_Pilot,2022.1.3,Win32,60.14675809,62c50e9c1127f2cd403a315f,0,87,87,60,1,threeone,,,,,,,,,,,,,,,,,,,,,,,,,,,,,,,,,,,,,,,,,,,,,,,,,,,,,,,,,,,,,,,,,,,,,,,,,,,,,,,,,,,,,,,,,,,,,,,,,,,,,,,,,,,,,,,,,,,,,,,,,,,,,,,,,,,,,,,,,,,,,,,,,,,,,,,,,,,,,
,,,,,,600d559d03355c51465a7004,62c5396bcbc302299560b846,2022-07-06_09h28.22.702,Colour_Asymmetry_Pilot,2022.1.3,Win32,60.14675809,62c50e9c1127f2cd403a315f,0,88,88,142,1,fourtwo,,,,,,,,,,,,,,,,,,,,,,,,,,,,,,,,,,,,,,,,,,,,,,,,,,,,,,,,,,,,,,,,,,,,,,,,,,,,,,,,,,,,,,,,,,,,,,,,,,,,,,,,,,,,,,,,,,,,,,,,,,,,,,,,,,,,,,,,,,,,,,,,,,,,,,,,,,,,,
,,,,,,600d559d03355c51465a7004,62c5396bcbc302299560b846,2022-07-06_09h28.22.702,Colour_Asymmetry_Pilot,2022.1.3,Win32,60.14675809,62c50e9c1127f2cd403a315f,0,89,89,18,1,twoone,,,,,,,,,,,,,,,,,,,,,,,,,,,,,,,,,,,,,,,,,,,,,,,,,,,,,,,,,,,,,,,,,,,,,,,,,,,,,,,,,,,,,,,,,,,,,,,,,,,,,,,,,,,,,,,,,,,,,,,,,,,,,,,,,,,,,,,,,,,,,,,,,,,,,,,,,,,,,
,,,,,,600d559d03355c51465a7004,62c5396bcbc302299560b846,2022-07-06_09h28.22.702,Colour_Asymmetry_Pilot,2022.1.3,Win32,60.14675809,62c50e9c1127f2cd403a315f,0,90,90,70,1,fourtwo,,,,,,,,,,,,,,,,,,,,,,,,,,,,,,,,,,,,,,,,,,,,,,,,,,,,,,,,,,,,,,,,,,,,,,,,,,,,,,,,,,,,,,,,,,,,,,,,,,,,,,,,,,,,,,,,,,,,,,,,,,,,,,,,,,,,,,,,,,,,,,,,,,,,,,,,,,,,,
,,,,,,600d559d03355c51465a7004,62c5396bcbc302299560b846,2022-07-06_09h28.22.702,Colour_Asymmetry_Pilot,2022.1.3,Win32,60.14675809,62c50e9c1127f2cd403a315f,0,91,91,54,1,fourtwo,,,,,,,,,,,,,,,,,,,,,,,,,,,,,,,,,,,,,,,,,,,,,,,,,,,,,,,,,,,,,,,,,,,,,,,,,,,,,,,,,,,,,,,,,,,,,,,,,,,,,,,,,,,,,,,,,,,,,,,,,,,,,,,,,,,,,,,,,,,,,,,,,,,,,,,,,,,,,
,,,,,,600d559d03355c51465a7004,62c5396bcbc302299560b846,2022-07-06_09h28.22.702,Colour_Asymmetry_Pilot,2022.1.3,Win32,60.14675809,62c50e9c1127f2cd403a315f,0,92,92,84,1,threeone,,,,,,,,,,,,,,,,,,,,,,,,,,,,,,,,,,,,,,,,,,,,,,,,,,,,,,,,,,,,,,,,,,,,,,,,,,,,,,,,,,,,,,,,,,,,,,,,,,,,,,,,,,,,,,,,,,,,,,,,,,,,,,,,,,,,,,,,,,,,,,,,,,,,,,,,,,,,,
,,,,,,600d559d03355c51465a7004,62c5396bcbc302299560b846,2022-07-06_09h28.22.702,Colour_Asymmetry_Pilot,2022.1.3,Win32,60.14675809,62c50e9c1127f2cd403a315f,0,93,93,8,1,onetwo,,,,,,,,,,,,,,,,,,,,,,,,,,,,,,,,,,,,,,,,,,,,,,,,,,,,,,,,,,,,,,,,,,,,,,,,,,,,,,,,,,,,,,,,,,,,,,,,,,,,,,,,,,,,,,,,,,,,,,,,,,,,,,,,,,,,,,,,,,,,,,,,,,,,,,,,,,,,,
,,,,,,600d559d03355c51465a7004,62c5396bcbc302299560b846,2022-07-06_09h28.22.702,Colour_Asymmetry_Pilot,2022.1.3,Win32,60.14675809,62c50e9c1127f2cd403a315f,0,94,94,154,1,twoone,,,,,,,,,,,,,,,,,,,,,,,,,,,,,,,,,,,,,,,,,,,,,,,,,,,,,,,,,,,,,,,,,,,,,,,,,,,,,,,,,,,,,,,,,,,,,,,,,,,,,,,,,,,,,,,,,,,,,,,,,,,,,,,,,,,,,,,,,,,,,,,,,,,,,,,,,,,,,
,,,,,,600d559d03355c51465a7004,62c5396bcbc302299560b846,2022-07-06_09h28.22.702,Colour_Asymmetry_Pilot,2022.1.3,Win32,60.14675809,62c50e9c1127f2cd403a315f,0,95,95,58,1,twoone,,,,,,,,,,,,,,,,,,,,,,,,,,,,,,,,,,,,,,,,,,,,,,,,,,,,,,,,,,,,,,,,,,,,,,,,,,,,,,,,,,,,,,,,,,,,,,,,,,,,,,,,,,,,,,,,,,,,,,,,,,,,,,,,,,,,,,,,,,,,,,,,,,,,,,,,,,,,,
,,,,,,600d559d03355c51465a7004,62c5396bcbc302299560b846,2022-07-06_09h28.22.702,Colour_Asymmetry_Pilot,2022.1.3,Win32,60.14675809,62c50e9c1127f2cd403a315f,0,96,96,143,1,fourthree,,,,,,,,,,,,,,,,,,,,,,,,,,,,,,,,,,,,,,,,,,,,,,,,,,,,,,,,,,,,,,,,,,,,,,,,,,,,,,,,,,,,,,,,,,,,,,,,,,,,,,,,,,,,,,,,,,,,,,,,,,,,,,,,,,,,,,,,,,,,,,,,,,,,,,,,,,,,,
,,,,,,600d559d03355c51465a7004,62c5396bcbc302299560b846,2022-07-06_09h28.22.702,Colour_Asymmetry_Pilot,2022.1.3,Win32,60.14675809,62c50e9c1127f2cd403a315f,0,97,97,121,1,onethree,,,,,,,,,,,,,,,,,,,,,,,,,,,,,,,,,,,,,,,,,,,,,,,,,,,,,,,,,,,,,,,,,,,,,,,,,,,,,,,,,,,,,,,,,,,,,,,,,,,,,,,,,,,,,,,,,,,,,,,,,,,,,,,,,,,,,,,,,,,,,,,,,,,,,,,,,,,,,
,,,,,,600d559d03355c51465a7004,62c5396bcbc302299560b846,2022-07-06_09h28.22.702,Colour_Asymmetry_Pilot,2022.1.3,Win32,60.14675809,62c50e9c1127f2cd403a315f,0,98,98,14,1,fourtwo,,,,,,,,,,,,,,,,,,,,,,,,,,,,,,,,,,,,,,,,,,,,,,,,,,,,,,,,,,,,,,,,,,,,,,,,,,,,,,,,,,,,,,,,,,,,,,,,,,,,,,,,,,,,,,,,,,,,,,,,,,,,,,,,,,,,,,,,,,,,,,,,,,,,,,,,,,,,,
,,,,,,600d559d03355c51465a7004,62c5396bcbc302299560b846,2022-07-06_09h28.22.702,Colour_Asymmetry_Pilot,2022.1.3,Win32,60.14675809,62c50e9c1127f2cd403a315f,0,99,99,150,1,fourtwo,,,,,,,,,,,,,,,,,,,,,,,,,,,,,,,,,,,,,,,,,,,,,,,,,,,,,,,,,,,,,,,,,,,,,,,,,,,,,,,,,,,,,,,,,,,,,,,,,,,,,,,,,,,,,,,,,,,,,,,,,,,,,,,,,,,,,,,,,,,,,,,,,,,,,,,,,,,,,
,,,,,,600d559d03355c51465a7004,62c5396bcbc302299560b846,2022-07-06_09h28.22.702,Colour_Asymmetry_Pilot,2022.1.3,Win32,60.14675809,62c50e9c1127f2cd403a315f,0,100,100,31,1,fourthree,,,,,,,,,,,,,,,,,,,,,,,,,,,,,,,,,,,,,,,,,,,,,,,,,,,,,,,,,,,,,,,,,,,,,,,,,,,,,,,,,,,,,,,,,,,,,,,,,,,,,,,,,,,,,,,,,,,,,,,,,,,,,,,,,,,,,,,,,,,,,,,,,,,,,,,,,,,,,
,,,,,,600d559d03355c51465a7004,62c5396bcbc302299560b846,2022-07-06_09h28.22.702,Colour_Asymmetry_Pilot,2022.1.3,Win32,60.14675809,62c50e9c1127f2cd403a315f,0,101,101,74,1,twoone,,,,,,,,,,,,,,,,,,,,,,,,,,,,,,,,,,,,,,,,,,,,,,,,,,,,,,,,,,,,,,,,,,,,,,,,,,,,,,,,,,,,,,,,,,,,,,,,,,,,,,,,,,,,,,,,,,,,,,,,,,,,,,,,,,,,,,,,,,,,,,,,,,,,,,,,,,,,,
,,,,,,600d559d03355c51465a7004,62c5396bcbc302299560b846,2022-07-06_09h28.22.702,Colour_Asymmetry_Pilot,2022.1.3,Win32,60.14675809,62c50e9c1127f2cd403a315f,0,102,102,94,1,fourtwo,,,,,,,,,,,,,,,,,,,,,,,,,,,,,,,,,,,,,,,,,,,,,,,,,,,,,,,,,,,,,,,,,,,,,,,,,,,,,,,,,,,,,,,,,,,,,,,,,,,,,,,,,,,,,,,,,,,,,,,,,,,,,,,,,,,,,,,,,,,,,,,,,,,,,,,,,,,,,
,,,,,,600d559d03355c51465a7004,62c5396bcbc302299560b846,2022-07-06_09h28.22.702,Colour_Asymmetry_Pilot,2022.1.3,Win32,60.14675809,62c50e9c1127f2cd403a315f,0,103,103,104,1,onetwo,,,,,,,,,,,,,,,,,,,,,,,,,,,,,,,,,,,,,,,,,,,,,,,,,,,,,,,,,,,,,,,,,,,,,,,,,,,,,,,,,,,,,,,,,,,,,,,,,,,,,,,,,,,,,,,,,,,,,,,,,,,,,,,,,,,,,,,,,,,,,,,,,,,,,,,,,,,,,
,,,,,,600d559d03355c51465a7004,62c5396bcbc302299560b846,2022-07-06_09h28.22.702,Colour_Asymmetry_Pilot,2022.1.3,Win32,60.14675809,62c50e9c1127f2cd403a315f,0,104,104,20,1,threeone,,,,,,,,,,,,,,,,,,,,,,,,,,,,,,,,,,,,,,,,,,,,,,,,,,,,,,,,,,,,,,,,,,,,,,,,,,,,,,,,,,,,,,,,,,,,,,,,,,,,,,,,,,,,,,,,,,,,,,,,,,,,,,,,,,,,,,,,,,,,,,,,,,,,,,,,,,,,,
,,,,,,600d559d03355c51465a7004,62c5396bcbc302299560b846,2022-07-06_09h28.22.702,Colour_Asymmetry_Pilot,2022.1.3,Win32,60.14675809,62c50e9c1127f2cd403a315f,0,105,105,144,1,onetwo,,,,,,,,,,,,,,,,,,,,,,,,,,,,,,,,,,,,,,,,,,,,,,,,,,,,,,,,,,,,,,,,,,,,,,,,,,,,,,,,,,,,,,,,,,,,,,,,,,,,,,,,,,,,,,,,,,,,,,,,,,,,,,,,,,,,,,,,,,,,,,,,,,,,,,,,,,,,,
,,,,,,600d559d03355c51465a7004,62c5396bcbc302299560b846,2022-07-06_09h28.22.702,Colour_Asymmetry_Pilot,2022.1.3,Win32,60.14675809,62c50e9c1127f2cd403a315f,0,106,106,120,1,onetwo,,,,,,,,,,,,,,,,,,,,,,,,,,,,,,,,,,,,,,,,,,,,,,,,,,,,,,,,,,,,,,,,,,,,,,,,,,,,,,,,,,,,,,,,,,,,,,,,,,,,,,,,,,,,,,,,,,,,,,,,,,,,,,,,,,,,,,,,,,,,,,,,,,,,,,,,,,,,,
,,,,,,600d559d03355c51465a7004,62c5396bcbc302299560b846,2022-07-06_09h28.22.702,Colour_Asymmetry_Pilot,2022.1.3,Win32,60.14675809,62c50e9c1127f2cd403a315f,0,107,107,2,1,twoone,,,,,,,,,,,,,,,,,,,,,,,,,,,,,,,,,,,,,,,,,,,,,,,,,,,,,,,,,,,,,,,,,,,,,,,,,,,,,,,,,,,,,,,,,,,,,,,,,,,,,,,,,,,,,,,,,,,,,,,,,,,,,,,,,,,,,,,,,,,,,,,,,,,,,,,,,,,,,
,,,,,,600d559d03355c51465a7004,62c5396bcbc302299560b846,2022-07-06_09h28.22.702,Colour_Asymmetry_Pilot,2022.1.3,Win32,60.14675809,62c50e9c1127f2cd403a315f,0,108,108,91,1,twofour,,,,,,,,,,,,,,,,,,,,,,,,,,,,,,,,,,,,,,,,,,,,,,,,,,,,,,,,,,,,,,,,,,,,,,,,,,,,,,,,,,,,,,,,,,,,,,,,,,,,,,,,,,,,,,,,,,,,,,,,,,,,,,,,,,,,,,,,,,,,,,,,,,,,,,,,,,,,,
,,,,,,600d559d03355c51465a7004,62c5396bcbc302299560b846,2022-07-06_09h28.22.702,Colour_Asymmetry_Pilot,2022.1.3,Win32,60.14675809,62c50e9c1127f2cd403a315f,0,109,109,41,1,onethree,,,,,,,,,,,,,,,,,,,,,,,,,,,,,,,,,,,,,,,,,,,,,,,,,,,,,,,,,,,,,,,,,,,,,,,,,,,,,,,,,,,,,,,,,,,,,,,,,,,,,,,,,,,,,,,,,,,,,,,,,,,,,,,,,,,,,,,,,,,,,,,,,,,,,,,,,,,,,
,,,,,,600d559d03355c51465a7004,62c5396bcbc302299560b846,2022-07-06_09h28.22.702,Colour_Asymmetry_Pilot,2022.1.3,Win32,60.14675809,62c50e9c1127f2cd403a315f,0,110,110,66,1,twoone,,,,,,,,,,,,,,,,,,,,,,,,,,,,,,,,,,,,,,,,,,,,,,,,,,,,,,,,,,,,,,,,,,,,,,,,,,,,,,,,,,,,,,,,,,,,,,,,,,,,,,,,,,,,,,,,,,,,,,,,,,,,,,,,,,,,,,,,,,,,,,,,,,,,,,,,,,,,,
,,,,,,600d559d03355c51465a7004,62c5396bcbc302299560b846,2022-07-06_09h28.22.702,Colour_Asymmetry_Pilot,2022.1.3,Win32,60.14675809,62c50e9c1127f2cd403a315f,0,111,111,93,1,threefour,,,,,,,,,,,,,,,,,,,,,,,,,,,,,,,,,,,,,,,,,,,,,,,,,,,,,,,,,,,,,,,,,,,,,,,,,,,,,,,,,,,,,,,,,,,,,,,,,,,,,,,,,,,,,,,,,,,,,,,,,,,,,,,,,,,,,,,,,,,,,,,,,,,,,,,,,,,,,
,,,,,,600d559d03355c51465a7004,62c5396bcbc302299560b846,2022-07-06_09h28.22.702,Colour_Asymmetry_Pilot,2022.1.3,Win32,60.14675809,62c50e9c1127f2cd403a315f,0,112,112,158,1,fourtwo,,,,,,,,,,,,,,,,,,,,,,,,,,,,,,,,,,,,,,,,,,,,,,,,,,,,,,,,,,,,,,,,,,,,,,,,,,,,,,,,,,,,,,,,,,,,,,,,,,,,,,,,,,,,,,,,,,,,,,,,,,,,,,,,,,,,,,,,,,,,,,,,,,,,,,,,,,,,,
,,,,,,600d559d03355c51465a7004,62c5396bcbc302299560b846,2022-07-06_09h28.22.702,Colour_Asymmetry_Pilot,2022.1.3,Win32,60.14675809,62c50e9c1127f2cd403a315f,0,113,113,146,1,twoone,,,,,,,,,,,,,,,,,,,,,,,,,,,,,,,,,,,,,,,,,,,,,,,,,,,,,,,,,,,,,,,,,,,,,,,,,,,,,,,,,,,,,,,,,,,,,,,,,,,,,,,,,,,,,,,,,,,,,,,,,,,,,,,,,,,,,,,,,,,,,,,,,,,,,,,,,,,,,
,,,,,,600d559d03355c51465a7004,62c5396bcbc302299560b846,2022-07-06_09h28.22.702,Colour_Asymmetry_Pilot,2022.1.3,Win32,60.14675809,62c50e9c1127f2cd403a315f,0,114,114,92,1,threeone,,,,,,,,,,,,,,,,,,,,,,,,,,,,,,,,,,,,,,,,,,,,,,,,,,,,,,,,,,,,,,,,,,,,,,,,,,,,,,,,,,,,,,,,,,,,,,,,,,,,,,,,,,,,,,,,,,,,,,,,,,,,,,,,,,,,,,,,,,,,,,,,,,,,,,,,,,,,,
,,,,,,600d559d03355c51465a7004,62c5396bcbc302299560b846,2022-07-06_09h28.22.702,Colour_Asymmetry_Pilot,2022.1.3,Win32,60.14675809,62c50e9c1127f2cd403a315f,0,115,115,37,1,threefour,,,,,,,,,,,,,,,,,,,,,,,,,,,,,,,,,,,,,,,,,,,,,,,,,,,,,,,,,,,,,,,,,,,,,,,,,,,,,,,,,,,,,,,,,,,,,,,,,,,,,,,,,,,,,,,,,,,,,,,,,,,,,,,,,,,,,,,,,,,,,,,,,,,,,,,,,,,,,
,,,,,,600d559d03355c51465a7004,62c5396bcbc302299560b846,2022-07-06_09h28.22.702,Colour_Asymmetry_Pilot,2022.1.3,Win32,60.14675809,62c50e9c1127f2cd403a315f,0,116,116,113,1,onethree,,,,,,,,,,,,,,,,,,,,,,,,,,,,,,,,,,,,,,,,,,,,,,,,,,,,,,,,,,,,,,,,,,,,,,,,,,,,,,,,,,,,,,,,,,,,,,,,,,,,,,,,,,,,,,,,,,,,,,,,,,,,,,,,,,,,,,,,,,,,,,,,,,,,,,,,,,,,,
,,,,,,600d559d03355c51465a7004,62c5396bcbc302299560b846,2022-07-06_09h28.22.702,Colour_Asymmetry_Pilot,2022.1.3,Win32,60.14675809,62c50e9c1127f2cd403a315f,0,117,117,12,1,threeone,,,,,,,,,,,,,,,,,,,,,,,,,,,,,,,,,,,,,,,,,,,,,,,,,,,,,,,,,,,,,,,,,,,,,,,,,,,,,,,,,,,,,,,,,,,,,,,,,,,,,,,,,,,,,,,,,,,,,,,,,,,,,,,,,,,,,,,,,,,,,,,,,,,,,,,,,,,,,
,,,,,,600d559d03355c51465a7004,62c5396bcbc302299560b846,2022-07-06_09h28.22.702,Colour_Asymmetry_Pilot,2022.1.3,Win32,60.14675809,62c50e9c1127f2cd403a315f,0,118,118,69,1,threefour,,,,,,,,,,,,,,,,,,,,,,,,,,,,,,,,,,,,,,,,,,,,,,,,,,,,,,,,,,,,,,,,,,,,,,,,,,,,,,,,,,,,,,,,,,,,,,,,,,,,,,,,,,,,,,,,,,,,,,,,,,,,,,,,,,,,,,,,,,,,,,,,,,,,,,,,,,,,,
,,,,,,600d559d03355c51465a7004,62c5396bcbc302299560b846,2022-07-06_09h28.22.702,Colour_Asymmetry_Pilot,2022.1.3,Win32,60.14675809,62c50e9c1127f2cd403a315f,0,119,119,132,1,threeone,,,,,,,,,,,,,,,,,,,,,,,,,,,,,,,,,,,,,,,,,,,,,,,,,,,,,,,,,,,,,,,,,,,,,,,,,,,,,,,,,,,,,,,,,,,,,,,,,,,,,,,,,,,,,,,,,,,,,,,,,,,,,,,,,,,,,,,,,,,,,,,,,,,,,,,,,,,,,
,,,,,,600d559d03355c51465a7004,62c5396bcbc302299560b846,2022-07-06_09h28.22.702,Colour_Asymmetry_Pilot,2022.1.3,Win32,60.14675809,62c50e9c1127f2cd403a315f,0,120,120,64,1,onetwo,,,,,,,,,,,,,,,,,,,,,,,,,,,,,,,,,,,,,,,,,,,,,,,,,,,,,,,,,,,,,,,,,,,,,,,,,,,,,,,,,,,,,,,,,,,,,,,,,,,,,,,,,,,,,,,,,,,,,,,,,,,,,,,,,,,,,,,,,,,,,,,,,,,,,,,,,,,,,
,,,,,,600d559d03355c51465a7004,62c5396bcbc302299560b846,2022-07-06_09h28.22.702,Colour_Asymmetry_Pilot,2022.1.3,Win32,60.14675809,62c50e9c1127f2cd403a315f,0,121,121,47,1,fourthree,,,,,,,,,,,,,,,,,,,,,,,,,,,,,,,,,,,,,,,,,,,,,,,,,,,,,,,,,,,,,,,,,,,,,,,,,,,,,,,,,,,,,,,,,,,,,,,,,,,,,,,,,,,,,,,,,,,,,,,,,,,,,,,,,,,,,,,,,,,,,,,,,,,,,,,,,,,,,
,,,,,,600d559d03355c51465a7004,62c5396bcbc302299560b846,2022-07-06_09h28.22.702,Colour_Asymmetry_Pilot,2022.1.3,Win32,60.14675809,62c50e9c1127f2cd403a315f,0,122,122,56,1,onetwo,,,,,,,,,,,,,,,,,,,,,,,,,,,,,,,,,,,,,,,,,,,,,,,,,,,,,,,,,,,,,,,,,,,,,,,,,,,,,,,,,,,,,,,,,,,,,,,,,,,,,,,,,,,,,,,,,,,,,,,,,,,,,,,,,,,,,,,,,,,,,,,,,,,,,,,,,,,,,
,,,,,,600d559d03355c51465a7004,62c5396bcbc302299560b846,2022-07-06_09h28.22.702,Colour_Asymmetry_Pilot,2022.1.3,Win32,60.14675809,62c50e9c1127f2cd403a315f,0,123,123,72,1,onetwo,,,,,,,,,,,,,,,,,,,,,,,,,,,,,,,,,,,,,,,,,,,,,,,,,,,,,,,,,,,,,,,,,,,,,,,,,,,,,,,,,,,,,,,,,,,,,,,,,,,,,,,,,,,,,,,,,,,,,,,,,,,,,,,,,,,,,,,,,,,,,,,,,,,,,,,,,,,,,
,,,,,,600d559d03355c51465a7004,62c5396bcbc302299560b846,2022-07-06_09h28.22.702,Colour_Asymmetry_Pilot,2022.1.3,Win32,60.14675809,62c50e9c1127f2cd403a315f,0,124,124,53,1,threefour,,,,,,,,,,,,,,,,,,,,,,,,,,,,,,,,,,,,,,,,,,,,,,,,,,,,,,,,,,,,,,,,,,,,,,,,,,,,,,,,,,,,,,,,,,,,,,,,,,,,,,,,,,,,,,,,,,,,,,,,,,,,,,,,,,,,,,,,,,,,,,,,,,,,,,,,,,,,,
,,,,,,600d559d03355c51465a7004,62c5396bcbc302299560b846,2022-07-06_09h28.22.702,Colour_Asymmetry_Pilot,2022.1.3,Win32,60.14675809,62c50e9c1127f2cd403a315f,0,125,125,27,1,twofour,,,,,,,,,,,,,,,,,,,,,,,,,,,,,,,,,,,,,,,,,,,,,,,,,,,,,,,,,,,,,,,,,,,,,,,,,,,,,,,,,,,,,,,,,,,,,,,,,,,,,,,,,,,,,,,,,,,,,,,,,,,,,,,,,,,,,,,,,,,,,,,,,,,,,,,,,,,,,
,,,,,,600d559d03355c51465a7004,62c5396bcbc302299560b846,2022-07-06_09h28.22.702,Colour_Asymmetry_Pilot,2022.1.3,Win32,60.14675809,62c50e9c1127f2cd403a315f,0,126,126,45,1,threefour,,,,,,,,,,,,,,,,,,,,,,,,,,,,,,,,,,,,,,,,,,,,,,,,,,,,,,,,,,,,,,,,,,,,,,,,,,,,,,,,,,,,,,,,,,,,,,,,,,,,,,,,,,,,,,,,,,,,,,,,,,,,,,,,,,,,,,,,,,,,,,,,,,,,,,,,,,,,,
,,,,,,600d559d03355c51465a7004,62c5396bcbc302299560b846,2022-07-06_09h28.22.702,Colour_Asymmetry_Pilot,2022.1.3,Win32,60.14675809,62c50e9c1127f2cd403a315f,0,127,127,133,1,threefour,,,,,,,,,,,,,,,,,,,,,,,,,,,,,,,,,,,,,,,,,,,,,,,,,,,,,,,,,,,,,,,,,,,,,,,,,,,,,,,,,,,,,,,,,,,,,,,,,,,,,,,,,,,,,,,,,,,,,,,,,,,,,,,,,,,,,,,,,,,,,,,,,,,,,,,,,,,,,
,,,,,,600d559d03355c51465a7004,62c5396bcbc302299560b846,2022-07-06_09h28.22.702,Colour_Asymmetry_Pilot,2022.1.3,Win32,60.14675809,62c50e9c1127f2cd403a315f,0,128,128,151,1,fourthree,,,,,,,,,,,,,,,,,,,,,,,,,,,,,,,,,,,,,,,,,,,,,,,,,,,,,,,,,,,,,,,,,,,,,,,,,,,,,,,,,,,,,,,,,,,,,,,,,,,,,,,,,,,,,,,,,,,,,,,,,,,,,,,,,,,,,,,,,,,,,,,,,,,,,,,,,,,,,
,,,,,,600d559d03355c51465a7004,62c5396bcbc302299560b846,2022-07-06_09h28.22.702,Colour_Asymmetry_Pilot,2022.1.3,Win32,60.14675809,62c50e9c1127f2cd403a315f,0,129,129,88,1,onetwo,,,,,,,,,,,,,,,,,,,,,,,,,,,,,,,,,,,,,,,,,,,,,,,,,,,,,,,,,,,,,,,,,,,,,,,,,,,,,,,,,,,,,,,,,,,,,,,,,,,,,,,,,,,,,,,,,,,,,,,,,,,,,,,,,,,,,,,,,,,,,,,,,,,,,,,,,,,,,
,,,,,,600d559d03355c51465a7004,62c5396bcbc302299560b846,2022-07-06_09h28.22.702,Colour_Asymmetry_Pilot,2022.1.3,Win32,60.14675809,62c50e9c1127f2cd403a315f,0,130,130,115,1,twofour,,,,,,,,,,,,,,,,,,,,,,,,,,,,,,,,,,,,,,,,,,,,,,,,,,,,,,,,,,,,,,,,,,,,,,,,,,,,,,,,,,,,,,,,,,,,,,,,,,,,,,,,,,,,,,,,,,,,,,,,,,,,,,,,,,,,,,,,,,,,,,,,,,,,,,,,,,,,,
,,,,,,600d559d03355c51465a7004,62c5396bcbc302299560b846,2022-07-06_09h28.22.702,Colour_Asymmetry_Pilot,2022.1.3,Win32,60.14675809,62c50e9c1127f2cd403a315f,0,131,131,152,1,onetwo,,,,,,,,,,,,,,,,,,,,,,,,,,,,,,,,,,,,,,,,,,,,,,,,,,,,,,,,,,,,,,,,,,,,,,,,,,,,,,,,,,,,,,,,,,,,,,,,,,,,,,,,,,,,,,,,,,,,,,,,,,,,,,,,,,,,,,,,,,,,,,,,,,,,,,,,,,,,,
,,,,,,600d559d03355c51465a7004,62c5396bcbc302299560b846,2022-07-06_09h28.22.702,Colour_Asymmetry_Pilot,2022.1.3,Win32,60.14675809,62c50e9c1127f2cd403a315f,0,132,132,148,1,threeone,,,,,,,,,,,,,,,,,,,,,,,,,,,,,,,,,,,,,,,,,,,,,,,,,,,,,,,,,,,,,,,,,,,,,,,,,,,,,,,,,,,,,,,,,,,,,,,,,,,,,,,,,,,,,,,,,,,,,,,,,,,,,,,,,,,,,,,,,,,,,,,,,,,,,,,,,,,,,
,,,,,,600d559d03355c51465a7004,62c5396bcbc302299560b846,2022-07-06_09h28.22.702,Colour_Asymmetry_Pilot,2022.1.3,Win32,60.14675809,62c50e9c1127f2cd403a315f,0,133,133,15,1,fourthree,,,,,,,,,,,,,,,,,,,,,,,,,,,,,,,,,,,,,,,,,,,,,,,,,,,,,,,,,,,,,,,,,,,,,,,,,,,,,,,,,,,,,,,,,,,,,,,,,,,,,,,,,,,,,,,,,,,,,,,,,,,,,,,,,,,,,,,,,,,,,,,,,,,,,,,,,,,,,
,,,,,,600d559d03355c51465a7004,62c5396bcbc302299560b846,2022-07-06_09h28.22.702,Colour_Asymmetry_Pilot,2022.1.3,Win32,60.14675809,62c50e9c1127f2cd403a315f,0,134,134,80,1,onetwo,,,,,,,,,,,,,,,,,,,,,,,,,,,,,,,,,,,,,,,,,,,,,,,,,,,,,,,,,,,,,,,,,,,,,,,,,,,,,,,,,,,,,,,,,,,,,,,,,,,,,,,,,,,,,,,,,,,,,,,,,,,,,,,,,,,,,,,,,,,,,,,,,,,,,,,,,,,,,
,,,,,,600d559d03355c51465a7004,62c5396bcbc302299560b846,2022-07-06_09h28.22.702,Colour_Asymmetry_Pilot,2022.1.3,Win32,60.14675809,62c50e9c1127f2cd403a315f,0,135,135,40,1,onetwo,,,,,,,,,,,,,,,,,,,,,,,,,,,,,,,,,,,,,,,,,,,,,,,,,,,,,,,,,,,,,,,,,,,,,,,,,,,,,,,,,,,,,,,,,,,,,,,,,,,,,,,,,,,,,,,,,,,,,,,,,,,,,,,,,,,,,,,,,,,,,,,,,,,,,,,,,,,,,
,,,,,,600d559d03355c51465a7004,62c5396bcbc302299560b846,2022-07-06_09h28.22.702,Colour_Asymmetry_Pilot,2022.1.3,Win32,60.14675809,62c50e9c1127f2cd403a315f,0,136,136,75,1,twofour,,,,,,,,,,,,,,,,,,,,,,,,,,,,,,,,,,,,,,,,,,,,,,,,,,,,,,,,,,,,,,,,,,,,,,,,,,,,,,,,,,,,,,,,,,,,,,,,,,,,,,,,,,,,,,,,,,,,,,,,,,,,,,,,,,,,,,,,,,,,,,,,,,,,,,,,,,,,,
,,,,,,600d559d03355c51465a7004,62c5396bcbc302299560b846,2022-07-06_09h28.22.702,Colour_Asymmetry_Pilot,2022.1.3,Win32,60.14675809,62c50e9c1127f2cd403a315f,0,137,137,141,1,threefour,,,,,,,,,,,,,,,,,,,,,,,,,,,,,,,,,,,,,,,,,,,,,,,,,,,,,,,,,,,,,,,,,,,,,,,,,,,,,,,,,,,,,,,,,,,,,,,,,,,,,,,,,,,,,,,,,,,,,,,,,,,,,,,,,,,,,,,,,,,,,,,,,,,,,,,,,,,,,
,,,,,,600d559d03355c51465a7004,62c5396bcbc302299560b846,2022-07-06_09h28.22.702,Colour_Asymmetry_Pilot,2022.1.3,Win32,60.14675809,62c50e9c1127f2cd403a315f,0,138,138,134,1,fourtwo,,,,,,,,,,,,,,,,,,,,,,,,,,,,,,,,,,,,,,,,,,,,,,,,,,,,,,,,,,,,,,,,,,,,,,,,,,,,,,,,,,,,,,,,,,,,,,,,,,,,,,,,,,,,,,,,,,,,,,,,,,,,,,,,,,,,,,,,,,,,,,,,,,,,,,,,,,,,,
,,,,,,600d559d03355c51465a7004,62c5396bcbc302299560b846,2022-07-06_09h28.22.702,Colour_Asymmetry_Pilot,2022.1.3,Win32,60.14675809,62c50e9c1127f2cd403a315f,0,139,139,55,1,fourthree,,,,,,,,,,,,,,,,,,,,,,,,,,,,,,,,,,,,,,,,,,,,,,,,,,,,,,,,,,,,,,,,,,,,,,,,,,,,,,,,,,,,,,,,,,,,,,,,,,,,,,,,,,,,,,,,,,,,,,,,,,,,,,,,,,,,,,,,,,,,,,,,,,,,,,,,,,,,,
,,,,,,600d559d03355c51465a7004,62c5396bcbc302299560b846,2022-07-06_09h28.22.702,Colour_Asymmetry_Pilot,2022.1.3,Win32,60.14675809,62c50e9c1127f2cd403a315f,0,140,140,96,1,onetwo,,,,,,,,,,,,,,,,,,,,,,,,,,,,,,,,,,,,,,,,,,,,,,,,,,,,,,,,,,,,,,,,,,,,,,,,,,,,,,,,,,,,,,,,,,,,,,,,,,,,,,,,,,,,,,,,,,,,,,,,,,,,,,,,,,,,,,,,,,,,,,,,,,,,,,,,,,,,,
,,,,,,600d559d03355c51465a7004,62c5396bcbc302299560b846,2022-07-06_09h28.22.702,Colour_Asymmetry_Pilot,2022.1.3,Win32,60.14675809,62c50e9c1127f2cd403a315f,0,141,141,161,1,onethree,,,,,,,,,,,,,,,,,,,,,,,,,,,,,,,,,,,,,,,,,,,,,,,,,,,,,,,,,,,,,,,,,,,,,,,,,,,,,,,,,,,,,,,,,,,,,,,,,,,,,,,,,,,,,,,,,,,,,,,,,,,,,,,,,,,,,,,,,,,,,,,,,,,,,,,,,,,,,
,,,,,,600d559d03355c51465a7004,62c5396bcbc302299560b846,2022-07-06_09h28.22.702,Colour_Asymmetry_Pilot,2022.1.3,Win32,60.14675809,62c50e9c1127f2cd403a315f,0,142,142,6,1,fourtwo,,,,,,,,,,,,,,,,,,,,,,,,,,,,,,,,,,,,,,,,,,,,,,,,,,,,,,,,,,,,,,,,,,,,,,,,,,,,,,,,,,,,,,,,,,,,,,,,,,,,,,,,,,,,,,,,,,,,,,,,,,,,,,,,,,,,,,,,,,,,,,,,,,,,,,,,,,,,,
,,,,,,600d559d03355c51465a7004,62c5396bcbc302299560b846,2022-07-06_09h28.22.702,Colour_Asymmetry_Pilot,2022.1.3,Win32,60.14675809,62c50e9c1127f2cd403a315f,0,143,143,5,1,threefour,,,,,,,,,,,,,,,,,,,,,,,,,,,,,,,,,,,,,,,,,,,,,,,,,,,,,,,,,,,,,,,,,,,,,,,,,,,,,,,,,,,,,,,,,,,,,,,,,,,,,,,,,,,,,,,,,,,,,,,,,,,,,,,,,,,,,,,,,,,,,,,,,,,,,,,,,,,,,
,,,,,,600d559d03355c51465a7004,62c5396bcbc302299560b846,2022-07-06_09h28.22.702,Colour_Asymmetry_Pilot,2022.1.3,Win32,60.14675809,62c50e9c1127f2cd403a315f,0,144,144,10,1,twoone,,,,,,,,,,,,,,,,,,,,,,,,,,,,,,,,,,,,,,,,,,,,,,,,,,,,,,,,,,,,,,,,,,,,,,,,,,,,,,,,,,,,,,,,,,,,,,,,,,,,,,,,,,,,,,,,,,,,,,,,,,,,,,,,,,,,,,,,,,,,,,,,,,,,,,,,,,,,,
,,,,,,600d559d03355c51465a7004,62c5396bcbc302299560b846,2022-07-06_09h28.22.702,Colour_Asymmetry_Pilot,2022.1.3,Win32,60.14675809,62c50e9c1127f2cd403a315f,0,145,145,112,1,onetwo,,,,,,,,,,,,,,,,,,,,,,,,,,,,,,,,,,,,,,,,,,,,,,,,,,,,,,,,,,,,,,,,,,,,,,,,,,,,,,,,,,,,,,,,,,,,,,,,,,,,,,,,,,,,,,,,,,,,,,,,,,,,,,,,,,,,,,,,,,,,,,,,,,,,,,,,,,,,,
,,,,,,600d559d03355c51465a7004,62c5396bcbc302299560b846,2022-07-06_09h28.22.702,Colour_Asymmetry_Pilot,2022.1.3,Win32,60.14675809,62c50e9c1127f2cd403a315f,0,146,146,35,1,twofour,,,,,,,,,,,,,,,,,,,,,,,,,,,,,,,,,,,,,,,,,,,,,,,,,,,,,,,,,,,,,,,,,,,,,,,,,,,,,,,,,,,,,,,,,,,,,,,,,,,,,,,,,,,,,,,,,,,,,,,,,,,,,,,,,,,,,,,,,,,,,,,,,,,,,,,,,,,,,
,,,,,,600d559d03355c51465a7004,62c5396bcbc302299560b846,2022-07-06_09h28.22.702,Colour_Asymmetry_Pilot,2022.1.3,Win32,60.14675809,62c50e9c1127f2cd403a315f,0,147,147,28,1,threeone,,,,,,,,,,,,,,,,,,,,,,,,,,,,,,,,,,,,,,,,,,,,,,,,,,,,,,,,,,,,,,,,,,,,,,,,,,,,,,,,,,,,,,,,,,,,,,,,,,,,,,,,,,,,,,,,,,,,,,,,,,,,,,,,,,,,,,,,,,,,,,,,,,,,,,,,,,,,,
,,,,,,600d559d03355c51465a7004,62c5396bcbc302299560b846,2022-07-06_09h28.22.702,Colour_Asymmetry_Pilot,2022.1.3,Win32,60.14675809,62c50e9c1127f2cd403a315f,0,148,148,107,1,twofour,,,,,,,,,,,,,,,,,,,,,,,,,,,,,,,,,,,,,,,,,,,,,,,,,,,,,,,,,,,,,,,,,,,,,,,,,,,,,,,,,,,,,,,,,,,,,,,,,,,,,,,,,,,,,,,,,,,,,,,,,,,,,,,,,,,,,,,,,,,,,,,,,,,,,,,,,,,,,
,,,,,,600d559d03355c51465a7004,62c5396bcbc302299560b846,2022-07-06_09h28.22.702,Colour_Asymmetry_Pilot,2022.1.3,Win32,60.14675809,62c50e9c1127f2cd403a315f,0,149,149,119,1,fourthree,,,,,,,,,,,,,,,,,,,,,,,,,,,,,,,,,,,,,,,,,,,,,,,,,,,,,,,,,,,,,,,,,,,,,,,,,,,,,,,,,,,,,,,,,,,,,,,,,,,,,,,,,,,,,,,,,,,,,,,,,,,,,,,,,,,,,,,,,,,,,,,,,,,,,,,,,,,,,
,,,,,,600d559d03355c51465a7004,62c5396bcbc302299560b846,2022-07-06_09h28.22.702,Colour_Asymmetry_Pilot,2022.1.3,Win32,60.14675809,62c50e9c1127f2cd403a315f,0,150,150,110,1,fourtwo,,,,,,,,,,,,,,,,,,,,,,,,,,,,,,,,,,,,,,,,,,,,,,,,,,,,,,,,,,,,,,,,,,,,,,,,,,,,,,,,,,,,,,,,,,,,,,,,,,,,,,,,,,,,,,,,,,,,,,,,,,,,,,,,,,,,,,,,,,,,,,,,,,,,,,,,,,,,,
,,,,,,600d559d03355c51465a7004,62c5396bcbc302299560b846,2022-07-06_09h28.22.702,Colour_Asymmetry_Pilot,2022.1.3,Win32,60.14675809,62c50e9c1127f2cd403a315f,0,151,151,25,1,onethree,,,,,,,,,,,,,,,,,,,,,,,,,,,,,,,,,,,,,,,,,,,,,,,,,,,,,,,,,,,,,,,,,,,,,,,,,,,,,,,,,,,,,,,,,,,,,,,,,,,,,,,,,,,,,,,,,,,,,,,,,,,,,,,,,,,,,,,,,,,,,,,,,,,,,,,,,,,,,
,,,,,,600d559d03355c51465a7004,62c5396bcbc302299560b846,2022-07-06_09h28.22.702,Colour_Asymmetry_Pilot,2022.1.3,Win32,60.14675809,62c50e9c1127f2cd403a315f,0,152,152,85,1,threefour,,,,,,,,,,,,,,,,,,,,,,,,,,,,,,,,,,,,,,,,,,,,,,,,,,,,,,,,,,,,,,,,,,,,,,,,,,,,,,,,,,,,,,,,,,,,,,,,,,,,,,,,,,,,,,,,,,,,,,,,,,,,,,,,,,,,,,,,,,,,,,,,,,,,,,,,,,,,,
,,,,,,600d559d03355c51465a7004,62c5396bcbc302299560b846,2022-07-06_09h28.22.702,Colour_Asymmetry_Pilot,2022.1.3,Win32,60.14675809,62c50e9c1127f2cd403a315f,0,153,153,98,1,twoone,,,,,,,,,,,,,,,,,,,,,,,,,,,,,,,,,,,,,,,,,,,,,,,,,,,,,,,,,,,,,,,,,,,,,,,,,,,,,,,,,,,,,,,,,,,,,,,,,,,,,,,,,,,,,,,,,,,,,,,,,,,,,,,,,,,,,,,,,,,,,,,,,,,,,,,,,,,,,
,,,,,,600d559d03355c51465a7004,62c5396bcbc302299560b846,2022-07-06_09h28.22.702,Colour_Asymmetry_Pilot,2022.1.3,Win32,60.14675809,62c50e9c1127f2cd403a315f,0,154,154,145,1,onethree,,,,,,,,,,,,,,,,,,,,,,,,,,,,,,,,,,,,,,,,,,,,,,,,,,,,,,,,,,,,,,,,,,,,,,,,,,,,,,,,,,,,,,,,,,,,,,,,,,,,,,,,,,,,,,,,,,,,,,,,,,,,,,,,,,,,,,,,,,,,,,,,,,,,,,,,,,,,,
,,,,,,600d559d03355c51465a7004,62c5396bcbc302299560b846,2022-07-06_09h28.22.702,Colour_Asymmetry_Pilot,2022.1.3,Win32,60.14675809,62c50e9c1127f2cd403a315f,0,155,155,24,1,onetwo,,,,,,,,,,,,,,,,,,,,,,,,,,,,,,,,,,,,,,,,,,,,,,,,,,,,,,,,,,,,,,,,,,,,,,,,,,,,,,,,,,,,,,,,,,,,,,,,,,,,,,,,,,,,,,,,,,,,,,,,,,,,,,,,,,,,,,,,,,,,,,,,,,,,,,,,,,,,,
,,,,,,600d559d03355c51465a7004,62c5396bcbc302299560b846,2022-07-06_09h28.22.702,Colour_Asymmetry_Pilot,2022.1.3,Win32,60.14675809,62c50e9c1127f2cd403a315f,0,156,156,61,1,threefour,,,,,,,,,,,,,,,,,,,,,,,,,,,,,,,,,,,,,,,,,,,,,,,,,,,,,,,,,,,,,,,,,,,,,,,,,,,,,,,,,,,,,,,,,,,,,,,,,,,,,,,,,,,,,,,,,,,,,,,,,,,,,,,,,,,,,,,,,,,,,,,,,,,,,,,,,,,,,
,,,,,,600d559d03355c51465a7004,62c5396bcbc302299560b846,2022-07-06_09h28.22.702,Colour_Asymmetry_Pilot,2022.1.3,Win32,60.14675809,62c50e9c1127f2cd403a315f,0,157,157,99,1,twofour,,,,,,,,,,,,,,,,,,,,,,,,,,,,,,,,,,,,,,,,,,,,,,,,,,,,,,,,,,,,,,,,,,,,,,,,,,,,,,,,,,,,,,,,,,,,,,,,,,,,,,,,,,,,,,,,,,,,,,,,,,,,,,,,,,,,,,,,,,,,,,,,,,,,,,,,,,,,,
,,,,,,600d559d03355c51465a7004,62c5396bcbc302299560b846,2022-07-06_09h28.22.702,Colour_Asymmetry_Pilot,2022.1.3,Win32,60.14675809,62c50e9c1127f2cd403a315f,0,158,158,63,1,fourthree,,,,,,,,,,,,,,,,,,,,,,,,,,,,,,,,,,,,,,,,,,,,,,,,,,,,,,,,,,,,,,,,,,,,,,,,,,,,,,,,,,,,,,,,,,,,,,,,,,,,,,,,,,,,,,,,,,,,,,,,,,,,,,,,,,,,,,,,,,,,,,,,,,,,,,,,,,,,,
,,,,,,600d559d03355c51465a7004,62c5396bcbc302299560b846,2022-07-06_09h28.22.702,Colour_Asymmetry_Pilot,2022.1.3,Win32,60.14675809,62c50e9c1127f2cd403a315f,0,159,159,11,1,twofour,,,,,,,,,,,,,,,,,,,,,,,,,,,,,,,,,,,,,,,,,,,,,,,,,,,,,,,,,,,,,,,,,,,,,,,,,,,,,,,,,,,,,,,,,,,,,,,,,,,,,,,,,,,,,,,,,,,,,,,,,,,,,,,,,,,,,,,,,,,,,,,,,,,,,,,,,,,,,
,,,,,,600d559d03355c51465a7004,62c5396bcbc302299560b846,2022-07-06_09h28.22.702,Colour_Asymmetry_Pilot,2022.1.3,Win32,60.14675809,62c50e9c1127f2cd403a315f,0,160,160,159,1,fourthree,,,,,,,,,,,,,,,,,,,,,,,,,,,,,,,,,,,,,,,,,,,,,,,,,,,,,,,,,,,,,,,,,,,,,,,,,,,,,,,,,,,,,,,,,,,,,,,,,,,,,,,,,,,,,,,,,,,,,,,,,,,,,,,,,,,,,,,,,,,,,,,,,,,,,,,,,,,,,
,,,,,,600d559d03355c51465a7004,62c5396bcbc302299560b846,2022-07-06_09h28.22.702,Colour_Asymmetry_Pilot,2022.1.3,Win32,60.14675809,62c50e9c1127f2cd403a315f,0,161,161,122,1,twoone,,,,,,,,,,,,,,,,,,,,,,,,,,,,,,,,,,,,,,,,,,,,,,,,,,,,,,,,,,,,,,,,,,,,,,,,,,,,,,,,,,,,,,,,,,,,,,,,,,,,,,,,,,,,,,,,,,,,,,,,,,,,,,,,,,,,,,,,,,,,,,,,,,,,,,,,,,,,,
,,,,,,600d559d03355c51465a7004,62c5396bcbc302299560b846,2022-07-06_09h28.22.702,Colour_Asymmetry_Pilot,2022.1.3,Win32,60.14675809,62c50e9c1127f2cd403a315f,,,,,,,space,4.5557,space,24.3148,space,33.7432,space,50.5495,space,3.4111,space,6.1394,"[-0.4902000000000001,0.2704,-0.45899999999999996]",onethree,"[0.6625999999999999,0.4980000000000002,-0.357]",-4,16.7487,-67,120,1,0,0,response7disk_5,14,8,1,0,0,rectangle_8,14,8,1,0,0,2,14,8,1,0,0,0,0,0,0,1,,,,,,,,,,,,,,,,,,,,,,,,,,,,,,,,,,,,,,,,,,,,,,,,,,,,,,,,,,,,,,,,,,,,,,,,,,,,,,,,,,,,,,,,,,,,,,,,,,,,,,,,,,,,,,,,
,,,,,,600d559d03355c51465a7004,62c5396bcbc302299560b846,2022-07-06_09h28.22.702,Colour_Asymmetry_Pilot,2022.1.3,Win32,60.14675809,62c50e9c1127f2cd403a315f,,,,,,,,,,,,,,,,,,,"[0.18419999999999992,-0.4276,-0.404]",twofour,"[0.8115999999999999,-0.0040000000000000036,-0.09819999999999995]",4,6.4202,87,120,1,0,0,response1disk_5,-16,11,1,0,0,rectangle_8,-16,11,1,0,0,2,-16,11,1,0,0,1,0,1,0,1,,,,,,,,,,,,,,,,,,,,,,,,,,,,,,,,,,,,,,,,,,,,,,,,,,,,,,,,,,,,,,,,,,,,,,,,,,,,,,,,,,,,,,,,,,,,,,,,,,,,,,,,,,,,,,,,
,,,,,,600d559d03355c51465a7004,62c5396bcbc302299560b846,2022-07-06_09h28.22.702,Colour_Asymmetry_Pilot,2022.1.3,Win32,60.14675809,62c50e9c1127f2cd403a315f,,,,,,,,,,,,,,,,,,,"[-0.4668,-0.8746,-0.2942]",threeone,"[-0.8198,-0.5138,-0.7492000000000001]",-4,6.6891,-66,125,1,0,0,response7disk_5,9,-3,1,0,0,rectangle_8,-111,-59,1,0,0,2,-2,-3,1,0,0,2,0,2,0,1,response5disk_7,2,rectangle_4,,,,,,,,,,,,,,,,,,,,,,,,,,,,,,,,,,,,,,,,,,,,,,,,,,,,,,,,,,,,,,,,,,,,,,,,,,,,,,,,,,,,,,,,,,,,,,,,,,,,,,,,,,,,,
,,,,,,600d559d03355c51465a7004,62c5396bcbc302299560b846,2022-07-06_09h28.22.702,Colour_Asymmetry_Pilot,2022.1.3,Win32,60.14675809,62c50e9c1127f2cd403a315f,,,,,,,,,,,,,,,,,,,"[0.5528,0.7409999999999999,-0.71]",twofour,"[-0.30200000000000005,0.14500000000000002,0.2784]",2,9.0973,124,-49,1,0,0,response3disk_5,-9,7,1,0,0,rectangle_8,-9,7,1,0,0,2,-9,7,1,0,0,3,0,3,0,1,,,,,,,,,,,,,,,,,,,,,,,,,,,,,,,,,,,,,,,,,,,,,,,,,,,,,,,,,,,,,,,,,,,,,,,,,,,,,,,,,,,,,,,,,,,,,,,,,,,,,,,,,,,,,,,,
,,,,,,600d559d03355c51465a7004,62c5396bcbc302299560b846,2022-07-06_09h28.22.702,Colour_Asymmetry_Pilot,2022.1.3,Win32,60.14675809,62c50e9c1127f2cd403a315f,,,,,,,,,,,,,,,,,,,"[-0.050999999999999934,-0.6706000000000001,-0.804]",twofour,"[-0.30200000000000005,0.14500000000000002,0.2784]",-2,3.1271,-78,-47,1,0,0,response5disk_5,-18,10,1,0,0,rectangle_8,-18,10,1,0,0,2,-18,10,1,0,0,4,0,4,0,1,,,,,,,,,,,,,,,,,,,,,,,,,,,,,,,,,,,,,,,,,,,,,,,,,,,,,,,,,,,,,,,,,,,,,,,,,,,,,,,,,,,,,,,,,,,,,,,,,,,,,,,,,,,,,,,,
,,,,,,600d559d03355c51465a7004,62c5396bcbc302299560b846,2022-07-06_09h28.22.702,Colour_Asymmetry_Pilot,2022.1.3,Win32,60.14675809,62c50e9c1127f2cd403a315f,,,,,,,,,,,,,,,,,,,"[-0.7412000000000001,-0.08239999999999992,-0.6864]",twoone,"[-0.4746,-0.0354000000000001,0.5449999999999999]",4,1.7057,48,134,1,0,0,response1disk_5,-2,2,1,0,0,rectangle_8,123,-73,1,0,0,2,14,4,1,0,0,5,0,5,0,1,response3disk_7,5,rectangle_4,,,,,,,,,,,,,,,,,,,,,,,,,,,,,,,,,,,,,,,,,,,,,,,,,,,,,,,,,,,,,,,,,,,,,,,,,,,,,,,,,,,,,,,,,,,,,,,,,,,,,,,,,,,,,
,,,,,,600d559d03355c51465a7004,62c5396bcbc302299560b846,2022-07-06_09h28.22.702,Colour_Asymmetry_Pilot,2022.1.3,Win32,60.14675809,62c50e9c1127f2cd403a315f,,,,,,,,,,,,,,,,,,,"[0.7018,0.7802,-0.16079999999999994]",twofour,"[-0.0040000000000000036,0.02739999999999987,-0.08239999999999992]",4,2.3231,53,114,1,0,0,response1disk_5,-2,-4,1,0,0,rectangle_8,-2,-4,1,0,0,2,-2,-4,1,0,0,6,0,6,0,1,,,,,,,,,,,,,,,,,,,,,,,,,,,,,,,,,,,,,,,,,,,,,,,,,,,,,,,,,,,,,,,,,,,,,,,,,,,,,,,,,,,,,,,,,,,,,,,,,,,,,,,,,,,,,,,,
,,,,,,600d559d03355c51465a7004,62c5396bcbc302299560b846,2022-07-06_09h28.22.702,Colour_Asymmetry_Pilot,2022.1.3,Win32,60.14675809,62c50e9c1127f2cd403a315f,,,,,,,,,,,,,,,,,,,,threeone,,-3,3.1968,,,,,,,,,,,,,,,,,,,,,,,,,,,,,,,,space,4.4084,"[-0.5688,-0.08239999999999992,-0.1844]","[0.9763999999999999,0.8588,-0.05900000000000005]",-97,63,1,0,0,response7disk,13,8,1,0,0,rectangle,13,8,1,0,0,,3,0.0047,0,13,8,1,0,0,0,0,0,69,1,69,first,,,,,,,,,,,,,,,,,,,,,,,,,,,,,,,,,,,,,,,,,,,,,,,,,,,,,,,,,,,,,,,,,,,,,,,,
,,,,,,600d559d03355c51465a7004,62c5396bcbc302299560b846,2022-07-06_09h28.22.702,Colour_Asymmetry_Pilot,2022.1.3,Win32,60.14675809,62c50e9c1127f2cd403a315f,,,,,,,,,,,,,,,,,,,,onethree,,4,1.8229,,,,,,,,,,,,,,,,,,,,,,,,,,,,,,,,,,"[-0.5688,-0.08239999999999992,-0.1844]","[0.0351999999999999,0.41159999999999997,0.0038000000000000256]",60,159,1,0,0,response1disk,4,-6,1,0,0,rectangle,4,-6,1,0,0,,1,0.0021,0,4,-6,1,0,0,0,1,1,75,1,75,first,,,,,,,,,,,,,,,,,,,,,,,,,,,,,,,,,,,,,,,,,,,,,,,,,,,,,,,,,,,,,,,,,,,,,,,,
,,,,,,600d559d03355c51465a7004,62c5396bcbc302299560b846,2022-07-06_09h28.22.702,Colour_Asymmetry_Pilot,2022.1.3,Win32,60.14675809,62c50e9c1127f2cd403a315f,,,,,,,,,,,,,,,,,,,,fourthree,,-4,1.9408,,,,,,,,,,,,,,,,,,,,,,,,,,,,,,,,,,"[0.19199999999999995,0.18419999999999992,0.5136000000000001]","[0.22340000000000004,-0.9296,-0.7884]",-51,135,1,0,0,response7disk,2,8,1,0,0,rectangle,2,8,1,0,0,,3,0.0009,0,2,8,1,0,0,0,2,2,20,1,20,first,,,,,,,,,,,,,,,,,,,,,,,,,,,,,,,,,,,,,,,,,,,,,,,,,,,,,,,,,,,,,,,,,,,,,,,,
,,,,,,600d559d03355c51465a7004,62c5396bcbc302299560b846,2022-07-06_09h28.22.702,Colour_Asymmetry_Pilot,2022.1.3,Win32,60.14675809,62c50e9c1127f2cd403a315f,,,,,,,,,,,,,,,,,,,,fourthree,,4,1.5203,,,,,,,,,,,,,,,,,,,,,,,,,,,,,,,,,,"[1,0.12939999999999996,-1]","[0.9842,0.7409999999999999,-0.6628000000000001]",59,124,1,0,0,response1disk,11,4,1,0,0,rectangle,103,-75,1,0,0,2,2,2.7588,1,2,7,1,0,0,0,3,3,104,1,23,second,response3disk_3,rectangle,,,,,,,,,,,,,,,,,,,,,,,,,,,,,,,,,,,,,,,,,,,,,,,,,,,,,,,,,,,,,,,,,,,,,,
,,,,,,600d559d03355c51465a7004,62c5396bcbc302299560b846,2022-07-06_09h28.22.702,Colour_Asymmetry_Pilot,2022.1.3,Win32,60.14675809,62c50e9c1127f2cd403a315f,,,,,,,,,,,,,,,,,,,,threeone,,-4,2.1074,,,,,,,,,,,,,,,,,,,,,,,,,,,,,,,,,,"[-0.17659999999999998,-0.2864,-0.8354]","[-0.34920000000000007,-0.702,-0.5216]",-41,108,1,0,0,response7disk,-8,-13,1,0,0,rectangle,-8,-13,1,0,0,2,2,0.0005,0,-8,-13,1,0,0,0,4,4,37,1,37,first,,,,,,,,,,,,,,,,,,,,,,,,,,,,,,,,,,,,,,,,,,,,,,,,,,,,,,,,,,,,,,,,,,,,,,,,
,,,,,,600d559d03355c51465a7004,62c5396bcbc302299560b846,2022-07-06_09h28.22.702,Colour_Asymmetry_Pilot,2022.1.3,Win32,60.14675809,62c50e9c1127f2cd403a315f,,,,,,,,,,,,,,,,,,,,twoone,,-4,5.4177,,,,,,,,,,,,,,,,,,,,,,,,,,,,,,,,,,"[-0.6,0.16860000000000008,0.44300000000000006]","[-0.9688,-0.4902000000000001,-0.12159999999999993]",-55,123,1,0,0,response7disk,-1,-4,1,0,0,rectangle,-1,-4,1,0,0,2,3,0.0024,0,-1,-4,1,0,0,0,5,5,137,1,56,second,,,,,,,,,,,,,,,,,,,,,,,,,,,,,,,,,,,,,,,,,,,,,,,,,,,,,,,,,,,,,,,,,,,,,,,,
,,,,,,600d559d03355c51465a7004,62c5396bcbc302299560b846,2022-07-06_09h28.22.702,Colour_Asymmetry_Pilot,2022.1.3,Win32,60.14675809,62c50e9c1127f2cd403a315f,,,,,,,,,,,,,,,,,,,,fourtwo,,4,1.3883,,,,,,,,,,,,,,,,,,,,,,,,,,,,,,,,,,"[-0.4276,0.0038000000000000256,-0.3256]","[-0.10599999999999998,-0.10599999999999998,0.5841999999999998]",72,122,1,0,0,response1disk,6,-3,1,0,0,rectangle,6,-3,1,0,0,2,3,0.0009,0,6,-3,1,0,0,0,6,6,38,1,38,first,,,,,,,,,,,,,,,,,,,,,,,,,,,,,,,,,,,,,,,,,,,,,,,,,,,,,,,,,,,,,,,,,,,,,,,,
,,,,,,600d559d03355c51465a7004,62c5396bcbc302299560b846,2022-07-06_09h28.22.702,Colour_Asymmetry_Pilot,2022.1.3,Win32,60.14675809,62c50e9c1127f2cd403a315f,,,,,,,,,,,,,,,,,,,,onetwo,,-3,1.8571,,,,,,,,,,,,,,,,,,,,,,,,,,,,,,,,,,"[-0.10599999999999998,-0.15300000000000002,0.15280000000000005]","[-0.06680000000000008,-0.45100000000000007,-0.906]",-95,60,1,0,0,response7disk,23,-11,1,0,0,rectangle,55,-120,1,0,0,1,1,2.5587,1,-11,-1,1,0,0,0,7,7,97,1,16,second,response3disk_3,rectangle,,,,,,,,,,,,,,,,,,,,,,,,,,,,,,,,,,,,,,,,,,,,,,,,,,,,,,,,,,,,,,,,,,,,,,
,,,,,,600d559d03355c51465a7004,62c5396bcbc302299560b846,2022-07-06_09h28.22.702,Colour_Asymmetry_Pilot,2022.1.3,Win32,60.14675809,62c50e9c1127f2cd403a315f,,,,,,,,,,,,,,,,,,,,fourthree,,-2,2.1412,,,,,,,,,,,,,,,,,,,,,,,,,,,,,,,,,,"[0.7802,-0.23140000000000005,-0.20799999999999996]","[-0.9766,-0.34920000000000007,0.2156]",-111,-38,1,0,0,response5disk,-7,-4,1,0,0,rectangle,-7,-4,1,0,0,1,1,0.0004,0,-7,-4,1,0,0,0,8,8,60,1,60,first,,,,,,,,,,,,,,,,,,,,,,,,,,,,,,,,,,,,,,,,,,,,,,,,,,,,,,,,,,,,,,,,,,,,,,,,
,,,,,,600d559d03355c51465a7004,62c5396bcbc302299560b846,2022-07-06_09h28.22.702,Colour_Asymmetry_Pilot,2022.1.3,Win32,60.14675809,62c50e9c1127f2cd403a315f,,,,,,,,,,,,,,,,,,,,onethree,,-4,2.6921,,,,,,,,,,,,,,,,,,,,,,,,,,,,,,,,,,"[-0.7412000000000001,-0.08239999999999992,-0.6864]","[0.7018,0.7176,0.6155999999999999]",-46,120,1,0,0,response7disk,-3,16,1,0,0,rectangle,-3,16,1,0,0,1,2,0.0022,0,-3,16,1,0,0,0,9,9,10,1,10,first,,,,,,,,,,,,,,,,,,,,,,,,,,,,,,,,,,,,,,,,,,,,,,,,,,,,,,,,,,,,,,,,,,,,,,,,
,,,,,,600d559d03355c51465a7004,62c5396bcbc302299560b846,2022-07-06_09h28.22.702,Colour_Asymmetry_Pilot,2022.1.3,Win32,60.14675809,62c50e9c1127f2cd403a315f,,,,,,,,,,,,,,,,,,,,fourtwo,,4,1.288,,,,,,,,,,,,,,,,,,,,,,,,,,,,,,,,,,"[0.18419999999999992,-0.4276,-0.404]","[0.8274000000000001,-0.5844,-0.9452]",99,127,1,0,0,response1disk,20,0,1,0,0,rectangle,20,0,1,0,0,1,2,0.0003,0,20,0,1,0,0,0,10,10,24,1,24,first,,,,,,,,,,,,,,,,,,,,,,,,,,,,,,,,,,,,,,,,,,,,,,,,,,,,,,,,,,,,,,,,,,,,,,,,
,,,,,,600d559d03355c51465a7004,62c5396bcbc302299560b846,2022-07-06_09h28.22.702,Colour_Asymmetry_Pilot,2022.1.3,Win32,60.14675809,62c50e9c1127f2cd403a315f,,,,,,,,,,,,,,,,,,,,twoone,,-4,3.8291,,,,,,,,,,,,,,,,,,,,,,,,,,,,,,,,,,"[-0.10599999999999998,-0.15300000000000002,0.15280000000000005]","[0.19199999999999995,0.18419999999999992,0.5136000000000001]",-31,109,1,0,0,response7disk,13,14,1,0,0,rectangle,13,14,1,0,0,1,3,0.0019,0,13,14,1,0,0,0,11,11,93,1,12,second,,,,,,,,,,,,,,,,,,,,,,,,,,,,,,,,,,,,,,,,,,,,,,,,,,,,,,,,,,,,,,,,,,,,,,,,
,,,,,,600d559d03355c51465a7004,62c5396bcbc302299560b846,2022-07-06_09h28.22.702,Colour_Asymmetry_Pilot,2022.1.3,Win32,60.14675809,62c50e9c1127f2cd403a315f,,,,,,,,,,,,,,,,,,,,twoone,,3,1.5219,,,,,,,,,,,,,,,,,,,,,,,,,,,,,,,,,,"[-0.5922000000000001,-0.7492000000000001,-0.5296000000000001]","[-0.8118,-0.8198,-0.5452]",126,71,1,0,0,response1disk,-40,6,1,0,0,rectangle,-40,6,1,0,0,1,2,0.0021,0,-40,6,1,0,0,0,12,12,139,1,58,second,,,,,,,,,,,,,,,,,,,,,,,,,,,,,,,,,,,,,,,,,,,,,,,,,,,,,,,,,,,,,,,,,,,,,,,,
,,,,,,600d559d03355c51465a7004,62c5396bcbc302299560b846,2022-07-06_09h28.22.702,Colour_Asymmetry_Pilot,2022.1.3,Win32,60.14675809,62c50e9c1127f2cd403a315f,,,,,,,,,,,,,,,,,,,,onethree,,-3,1.8396,,,,,,,,,,,,,,,,,,,,,,,,,,,,,,,,,,"[-0.26280000000000003,-0.2158,-0.3256]","[0.09799999999999986,-0.24719999999999998,0.15280000000000005]",-105,54,1,0,0,response7disk,8,16,1,0,0,rectangle,8,16,1,0,0,1,3,0.002,0,8,16,1,0,0,0,13,13,115,1,34,second,,,,,,,,,,,,,,,,,,,,,,,,,,,,,,,,,,,,,,,,,,,,,,,,,,,,,,,,,,,,,,,,,,,,,,,,
,,,,,,600d559d03355c51465a7004,62c5396bcbc302299560b846,2022-07-06_09h28.22.702,Colour_Asymmetry_Pilot,2022.1.3,Win32,60.14675809,62c50e9c1127f2cd403a315f,,,,,,,,,,,,,,,,,,,,fourthree,,-3,1.572,,,,,,,,,,,,,,,,,,,,,,,,,,,,,,,,,,"[-0.5922000000000001,-0.7492000000000001,-0.5296000000000001]","[0.6625999999999999,0.4980000000000002,-0.357]",-112,47,1,0,0,response7disk,22,19,1,0,0,rectangle,115,51,1,0,0,3,3,2.2251,1,-12,8,1,0,0,0,14,14,161,1,80,second,response1disk_3,rectangle,,,,,,,,,,,,,,,,,,,,,,,,,,,,,,,,,,,,,,,,,,,,,,,,,,,,,,,,,,,,,,,,,,,,,,
,,,,,,600d559d03355c51465a7004,62c5396bcbc302299560b846,2022-07-06_09h28.22.702,Colour_Asymmetry_Pilot,2022.1.3,Win32,60.14675809,62c50e9c1127f2cd403a315f,,,,,,,,,,,,,,,,,,,,onetwo,,4,0.8859,,,,,,,,,,,,,,,,,,,,,,,,,,,,,,,,,,"[0.8274000000000001,-0.5844,-0.9452]","[0.18419999999999992,-0.4276,-0.404]",55,120,1,0,0,response1disk,-12,-7,1,0,0,rectangle,-12,-7,1,0,0,3,3,0.0004,0,-12,-7,1,0,0,0,15,15,105,1,24,second,,,,,,,,,,,,,,,,,,,,,,,,,,,,,,,,,,,,,,,,,,,,,,,,,,,,,,,,,,,,,,,,,,,,,,,,
,,,,,,600d559d03355c51465a7004,62c5396bcbc302299560b846,2022-07-06_09h28.22.702,Colour_Asymmetry_Pilot,2022.1.3,Win32,60.14675809,62c50e9c1127f2cd403a315f,,,,,,,,,,,,,,,,,,,,twoone,,-2,2.4908,,,,,,,,,,,,,,,,,,,,,,,,,,,,,,,,,,"[-0.24719999999999998,-0.0354000000000001,0.3175999999999999]","[0.5528,0.7409999999999999,-0.71]",-106,-49,1,0,0,response5disk,-9,11,1,0,0,rectangle,-9,11,1,0,0,3,2,0.002,0,-9,11,1,0,0,0,16,16,99,1,18,second,,,,,,,,,,,,,,,,,,,,,,,,,,,,,,,,,,,,,,,,,,,,,,,,,,,,,,,,,,,,,,,,,,,,,,,,
,,,,,,600d559d03355c51465a7004,62c5396bcbc302299560b846,2022-07-06_09h28.22.702,Colour_Asymmetry_Pilot,2022.1.3,Win32,60.14675809,62c50e9c1127f2cd403a315f,,,,,,,,,,,,,,,,,,,,onethree,,2,1.3053,,,,,,,,,,,,,,,,,,,,,,,,,,,,,,,,,,"[-0.8118,-0.8198,-0.5452]","[-0.5922000000000001,-0.7492000000000001,-0.5296000000000001]",133,-64,1,0,0,response3disk,-23,0,1,0,0,rectangle,-23,0,1,0,0,3,3,0.0019,0,-23,0,1,0,0,0,17,17,58,1,58,first,,,,,,,,,,,,,,,,,,,,,,,,,,,,,,,,,,,,,,,,,,,,,,,,,,,,,,,,,,,,,,,,,,,,,,,,
