trials.thisRepN,trials.thisTrialN,trials.thisN,trials.thisIndex,trials.ran,Colourcodes,participant,session,date,expName,psychopyVersion,OS,frameRate,study_id,trials_4.thisRepN,trials_4.thisTrialN,trials_4.thisN,trials_4.thisIndex,trials_4.ran,StimulusPos,key_resp.keys,key_resp.rt,key_resp_2.keys,key_resp_2.rt,key_resp_15.keys,key_resp_15.rt,key_resp_17.keys,key_resp_17.rt,key_resp_9.keys,key_resp_9.rt,key_resp_10.keys,key_resp_10.rt,Circle1_col,Ecc,Circle2_col,similarity,response_time,mouse_5.x,mouse_5.y,mouse_5.leftButton,mouse_5.midButton,mouse_5.rightButton,mouse_5.clicked_name,mouse_10.x,mouse_10.y,mouse_10.leftButton,mouse_10.midButton,mouse_10.rightButton,mouse_10.clicked_name,mouse_7.x,mouse_7.y,mouse_7.leftButton,mouse_7.midButton,mouse_7.rightButton,mouse_7.clicked_name,catchprac,catchnumberprac,mouse_6.x,mouse_6.y,mouse_6.leftButton,mouse_6.midButton,mouse_6.rightButton,mouse_6.clicked_name,duringprac.thisRepN,duringprac.thisTrialN,duringprac.thisN,duringprac.thisIndex,duringprac.ran,key_resp_22.keys,key_resp_22.rt,Circle1_colour,Circle2_colour,mouse.x,mouse.y,mouse.leftButton,mouse.midButton,mouse.rightButton,mouse.clicked_name,mouse_2.x,mouse_2.y,mouse_2.leftButton,mouse_2.midButton,mouse_2.rightButton,mouse_2.clicked_name,mouse_3.x,mouse_3.y,mouse_3.leftButton,mouse_3.midButton,mouse_3.rightButton,catchresponse,catchnumber,response_time_catch,Catch,mouse_11.x,mouse_11.y,mouse_11.leftButton,mouse_11.midButton,mouse_11.rightButton,trials_2.thisRepN,trials_2.thisTrialN,trials_2.thisN,trials_2.thisIndex,trials_2.ran,Colourpair,Temporder,mouse_3.clicked_name,mouse_11.clicked_name,trials_3.thisRepN,trials_3.thisTrialN,trials_3.thisN,trials_3.thisIndex,trials_3.ran,key_resp_instr_Ishi.keys,key_resp_instr_Ishi.rt,Ishi_trial_keyresp.keys,Ishi_textbox.text,Ishi_mouse.x,Ishi_mouse.y,Ishi_mouse.leftButton,Ishi_mouse.midButton,Ishi_mouse.rightButton,Ishi_mouse.clicked_name,Ishi_loop.thisRepN,Ishi_loop.thisTrialN,Ishi_loop.thisN,Ishi_loop.thisIndex,Ishi_loop.ran,imageaddress,Ishi_trial_keyresp.rt,textbox.text,mouse_4.x,mouse_4.y,mouse_4.leftButton,mouse_4.midButton,mouse_4.rightButton,mouse_4.clicked_name,textbox_2.text,mouse_8.x,mouse_8.y,mouse_8.leftButton,mouse_8.midButton,mouse_8.rightButton,mouse_8.clicked_name,textbox_3.text,mouse_9.x,mouse_9.y,mouse_9.leftButton,mouse_9.midButton,mouse_9.rightButton,mouse_9.clicked_name,textbox_4.text,mouse_12.x,mouse_12.y,mouse_12.leftButton,mouse_12.midButton,mouse_12.rightButton,mouse_12.clicked_name,textbox_5.text,mouse_13.x,mouse_13.y,mouse_13.leftButton,mouse_13.midButton,mouse_13.rightButton,mouse_13.clicked_name,textbox_6.text,mouse_14.x,mouse_14.y,mouse_14.leftButton,mouse_14.midButton,mouse_14.rightButton,mouse_14.clicked_name,textbox_7.text,mouse_15.x,mouse_15.y,mouse_15.leftButton,mouse_15.midButton,mouse_15.rightButton,mouse_15.clicked_name
0,0,0,8,1,,60be4bf0987ab1493e8a7899,62c53a971e2430229b129e64,2022-07-06_09h33.01.577,Colour_Asymmetry_Pilot,2022.1.3,Win32,57.88041905,62c50e9c1127f2cd403a315f,,,,,,,,,,,,,,,,,,,,,,,,,,,,,,,,,,,,,,,,,,,,,,,,,,,,,,,,,,,,,,,,,,,,,,,,,,,,,,,,,,,,,,,,,,,,,,,,,,,,,,,,,,,,,,,,,,,,,,,,,,,,,,,,,,,,,,,,,,,,,,,,,,,,,,,,,,,,,,,,,,,,
0,1,1,47,1,,60be4bf0987ab1493e8a7899,62c53a971e2430229b129e64,2022-07-06_09h33.01.577,Colour_Asymmetry_Pilot,2022.1.3,Win32,57.88041905,62c50e9c1127f2cd403a315f,,,,,,,,,,,,,,,,,,,,,,,,,,,,,,,,,,,,,,,,,,,,,,,,,,,,,,,,,,,,,,,,,,,,,,,,,,,,,,,,,,,,,,,,,,,,,,,,,,,,,,,,,,,,,,,,,,,,,,,,,,,,,,,,,,,,,,,,,,,,,,,,,,,,,,,,,,,,,,,,,,,,
0,2,2,88,1,,60be4bf0987ab1493e8a7899,62c53a971e2430229b129e64,2022-07-06_09h33.01.577,Colour_Asymmetry_Pilot,2022.1.3,Win32,57.88041905,62c50e9c1127f2cd403a315f,,,,,,,,,,,,,,,,,,,,,,,,,,,,,,,,,,,,,,,,,,,,,,,,,,,,,,,,,,,,,,,,,,,,,,,,,,,,,,,,,,,,,,,,,,,,,,,,,,,,,,,,,,,,,,,,,,,,,,,,,,,,,,,,,,,,,,,,,,,,,,,,,,,,,,,,,,,,,,,,,,,,
0,3,3,57,1,,60be4bf0987ab1493e8a7899,62c53a971e2430229b129e64,2022-07-06_09h33.01.577,Colour_Asymmetry_Pilot,2022.1.3,Win32,57.88041905,62c50e9c1127f2cd403a315f,,,,,,,,,,,,,,,,,,,,,,,,,,,,,,,,,,,,,,,,,,,,,,,,,,,,,,,,,,,,,,,,,,,,,,,,,,,,,,,,,,,,,,,,,,,,,,,,,,,,,,,,,,,,,,,,,,,,,,,,,,,,,,,,,,,,,,,,,,,,,,,,,,,,,,,,,,,,,,,,,,,,
0,4,4,59,1,,60be4bf0987ab1493e8a7899,62c53a971e2430229b129e64,2022-07-06_09h33.01.577,Colour_Asymmetry_Pilot,2022.1.3,Win32,57.88041905,62c50e9c1127f2cd403a315f,,,,,,,,,,,,,,,,,,,,,,,,,,,,,,,,,,,,,,,,,,,,,,,,,,,,,,,,,,,,,,,,,,,,,,,,,,,,,,,,,,,,,,,,,,,,,,,,,,,,,,,,,,,,,,,,,,,,,,,,,,,,,,,,,,,,,,,,,,,,,,,,,,,,,,,,,,,,,,,,,,,,
0,5,5,53,1,,60be4bf0987ab1493e8a7899,62c53a971e2430229b129e64,2022-07-06_09h33.01.577,Colour_Asymmetry_Pilot,2022.1.3,Win32,57.88041905,62c50e9c1127f2cd403a315f,,,,,,,,,,,,,,,,,,,,,,,,,,,,,,,,,,,,,,,,,,,,,,,,,,,,,,,,,,,,,,,,,,,,,,,,,,,,,,,,,,,,,,,,,,,,,,,,,,,,,,,,,,,,,,,,,,,,,,,,,,,,,,,,,,,,,,,,,,,,,,,,,,,,,,,,,,,,,,,,,,,,
0,6,6,22,1,,60be4bf0987ab1493e8a7899,62c53a971e2430229b129e64,2022-07-06_09h33.01.577,Colour_Asymmetry_Pilot,2022.1.3,Win32,57.88041905,62c50e9c1127f2cd403a315f,,,,,,,,,,,,,,,,,,,,,,,,,,,,,,,,,,,,,,,,,,,,,,,,,,,,,,,,,,,,,,,,,,,,,,,,,,,,,,,,,,,,,,,,,,,,,,,,,,,,,,,,,,,,,,,,,,,,,,,,,,,,,,,,,,,,,,,,,,,,,,,,,,,,,,,,,,,,,,,,,,,,
0,7,7,42,1,,60be4bf0987ab1493e8a7899,62c53a971e2430229b129e64,2022-07-06_09h33.01.577,Colour_Asymmetry_Pilot,2022.1.3,Win32,57.88041905,62c50e9c1127f2cd403a315f,,,,,,,,,,,,,,,,,,,,,,,,,,,,,,,,,,,,,,,,,,,,,,,,,,,,,,,,,,,,,,,,,,,,,,,,,,,,,,,,,,,,,,,,,,,,,,,,,,,,,,,,,,,,,,,,,,,,,,,,,,,,,,,,,,,,,,,,,,,,,,,,,,,,,,,,,,,,,,,,,,,,
0,8,8,41,1,,60be4bf0987ab1493e8a7899,62c53a971e2430229b129e64,2022-07-06_09h33.01.577,Colour_Asymmetry_Pilot,2022.1.3,Win32,57.88041905,62c50e9c1127f2cd403a315f,,,,,,,,,,,,,,,,,,,,,,,,,,,,,,,,,,,,,,,,,,,,,,,,,,,,,,,,,,,,,,,,,,,,,,,,,,,,,,,,,,,,,,,,,,,,,,,,,,,,,,,,,,,,,,,,,,,,,,,,,,,,,,,,,,,,,,,,,,,,,,,,,,,,,,,,,,,,,,,,,,,,
0,9,9,24,1,,60be4bf0987ab1493e8a7899,62c53a971e2430229b129e64,2022-07-06_09h33.01.577,Colour_Asymmetry_Pilot,2022.1.3,Win32,57.88041905,62c50e9c1127f2cd403a315f,,,,,,,,,,,,,,,,,,,,,,,,,,,,,,,,,,,,,,,,,,,,,,,,,,,,,,,,,,,,,,,,,,,,,,,,,,,,,,,,,,,,,,,,,,,,,,,,,,,,,,,,,,,,,,,,,,,,,,,,,,,,,,,,,,,,,,,,,,,,,,,,,,,,,,,,,,,,,,,,,,,,
0,10,10,58,1,,60be4bf0987ab1493e8a7899,62c53a971e2430229b129e64,2022-07-06_09h33.01.577,Colour_Asymmetry_Pilot,2022.1.3,Win32,57.88041905,62c50e9c1127f2cd403a315f,,,,,,,,,,,,,,,,,,,,,,,,,,,,,,,,,,,,,,,,,,,,,,,,,,,,,,,,,,,,,,,,,,,,,,,,,,,,,,,,,,,,,,,,,,,,,,,,,,,,,,,,,,,,,,,,,,,,,,,,,,,,,,,,,,,,,,,,,,,,,,,,,,,,,,,,,,,,,,,,,,,,
0,11,11,46,1,,60be4bf0987ab1493e8a7899,62c53a971e2430229b129e64,2022-07-06_09h33.01.577,Colour_Asymmetry_Pilot,2022.1.3,Win32,57.88041905,62c50e9c1127f2cd403a315f,,,,,,,,,,,,,,,,,,,,,,,,,,,,,,,,,,,,,,,,,,,,,,,,,,,,,,,,,,,,,,,,,,,,,,,,,,,,,,,,,,,,,,,,,,,,,,,,,,,,,,,,,,,,,,,,,,,,,,,,,,,,,,,,,,,,,,,,,,,,,,,,,,,,,,,,,,,,,,,,,,,,
0,12,12,37,1,,60be4bf0987ab1493e8a7899,62c53a971e2430229b129e64,2022-07-06_09h33.01.577,Colour_Asymmetry_Pilot,2022.1.3,Win32,57.88041905,62c50e9c1127f2cd403a315f,,,,,,,,,,,,,,,,,,,,,,,,,,,,,,,,,,,,,,,,,,,,,,,,,,,,,,,,,,,,,,,,,,,,,,,,,,,,,,,,,,,,,,,,,,,,,,,,,,,,,,,,,,,,,,,,,,,,,,,,,,,,,,,,,,,,,,,,,,,,,,,,,,,,,,,,,,,,,,,,,,,,
0,13,13,45,1,,60be4bf0987ab1493e8a7899,62c53a971e2430229b129e64,2022-07-06_09h33.01.577,Colour_Asymmetry_Pilot,2022.1.3,Win32,57.88041905,62c50e9c1127f2cd403a315f,,,,,,,,,,,,,,,,,,,,,,,,,,,,,,,,,,,,,,,,,,,,,,,,,,,,,,,,,,,,,,,,,,,,,,,,,,,,,,,,,,,,,,,,,,,,,,,,,,,,,,,,,,,,,,,,,,,,,,,,,,,,,,,,,,,,,,,,,,,,,,,,,,,,,,,,,,,,,,,,,,,,
0,14,14,79,1,,60be4bf0987ab1493e8a7899,62c53a971e2430229b129e64,2022-07-06_09h33.01.577,Colour_Asymmetry_Pilot,2022.1.3,Win32,57.88041905,62c50e9c1127f2cd403a315f,,,,,,,,,,,,,,,,,,,,,,,,,,,,,,,,,,,,,,,,,,,,,,,,,,,,,,,,,,,,,,,,,,,,,,,,,,,,,,,,,,,,,,,,,,,,,,,,,,,,,,,,,,,,,,,,,,,,,,,,,,,,,,,,,,,,,,,,,,,,,,,,,,,,,,,,,,,,,,,,,,,,
0,15,15,43,1,,60be4bf0987ab1493e8a7899,62c53a971e2430229b129e64,2022-07-06_09h33.01.577,Colour_Asymmetry_Pilot,2022.1.3,Win32,57.88041905,62c50e9c1127f2cd403a315f,,,,,,,,,,,,,,,,,,,,,,,,,,,,,,,,,,,,,,,,,,,,,,,,,,,,,,,,,,,,,,,,,,,,,,,,,,,,,,,,,,,,,,,,,,,,,,,,,,,,,,,,,,,,,,,,,,,,,,,,,,,,,,,,,,,,,,,,,,,,,,,,,,,,,,,,,,,,,,,,,,,,
0,16,16,90,1,,60be4bf0987ab1493e8a7899,62c53a971e2430229b129e64,2022-07-06_09h33.01.577,Colour_Asymmetry_Pilot,2022.1.3,Win32,57.88041905,62c50e9c1127f2cd403a315f,,,,,,,,,,,,,,,,,,,,,,,,,,,,,,,,,,,,,,,,,,,,,,,,,,,,,,,,,,,,,,,,,,,,,,,,,,,,,,,,,,,,,,,,,,,,,,,,,,,,,,,,,,,,,,,,,,,,,,,,,,,,,,,,,,,,,,,,,,,,,,,,,,,,,,,,,,,,,,,,,,,,
0,17,17,14,1,,60be4bf0987ab1493e8a7899,62c53a971e2430229b129e64,2022-07-06_09h33.01.577,Colour_Asymmetry_Pilot,2022.1.3,Win32,57.88041905,62c50e9c1127f2cd403a315f,,,,,,,,,,,,,,,,,,,,,,,,,,,,,,,,,,,,,,,,,,,,,,,,,,,,,,,,,,,,,,,,,,,,,,,,,,,,,,,,,,,,,,,,,,,,,,,,,,,,,,,,,,,,,,,,,,,,,,,,,,,,,,,,,,,,,,,,,,,,,,,,,,,,,,,,,,,,,,,,,,,,
0,18,18,0,1,,60be4bf0987ab1493e8a7899,62c53a971e2430229b129e64,2022-07-06_09h33.01.577,Colour_Asymmetry_Pilot,2022.1.3,Win32,57.88041905,62c50e9c1127f2cd403a315f,,,,,,,,,,,,,,,,,,,,,,,,,,,,,,,,,,,,,,,,,,,,,,,,,,,,,,,,,,,,,,,,,,,,,,,,,,,,,,,,,,,,,,,,,,,,,,,,,,,,,,,,,,,,,,,,,,,,,,,,,,,,,,,,,,,,,,,,,,,,,,,,,,,,,,,,,,,,,,,,,,,,
0,19,19,15,1,,60be4bf0987ab1493e8a7899,62c53a971e2430229b129e64,2022-07-06_09h33.01.577,Colour_Asymmetry_Pilot,2022.1.3,Win32,57.88041905,62c50e9c1127f2cd403a315f,,,,,,,,,,,,,,,,,,,,,,,,,,,,,,,,,,,,,,,,,,,,,,,,,,,,,,,,,,,,,,,,,,,,,,,,,,,,,,,,,,,,,,,,,,,,,,,,,,,,,,,,,,,,,,,,,,,,,,,,,,,,,,,,,,,,,,,,,,,,,,,,,,,,,,,,,,,,,,,,,,,,
0,20,20,3,1,,60be4bf0987ab1493e8a7899,62c53a971e2430229b129e64,2022-07-06_09h33.01.577,Colour_Asymmetry_Pilot,2022.1.3,Win32,57.88041905,62c50e9c1127f2cd403a315f,,,,,,,,,,,,,,,,,,,,,,,,,,,,,,,,,,,,,,,,,,,,,,,,,,,,,,,,,,,,,,,,,,,,,,,,,,,,,,,,,,,,,,,,,,,,,,,,,,,,,,,,,,,,,,,,,,,,,,,,,,,,,,,,,,,,,,,,,,,,,,,,,,,,,,,,,,,,,,,,,,,,
0,21,21,50,1,,60be4bf0987ab1493e8a7899,62c53a971e2430229b129e64,2022-07-06_09h33.01.577,Colour_Asymmetry_Pilot,2022.1.3,Win32,57.88041905,62c50e9c1127f2cd403a315f,,,,,,,,,,,,,,,,,,,,,,,,,,,,,,,,,,,,,,,,,,,,,,,,,,,,,,,,,,,,,,,,,,,,,,,,,,,,,,,,,,,,,,,,,,,,,,,,,,,,,,,,,,,,,,,,,,,,,,,,,,,,,,,,,,,,,,,,,,,,,,,,,,,,,,,,,,,,,,,,,,,,
0,22,22,49,1,,60be4bf0987ab1493e8a7899,62c53a971e2430229b129e64,2022-07-06_09h33.01.577,Colour_Asymmetry_Pilot,2022.1.3,Win32,57.88041905,62c50e9c1127f2cd403a315f,,,,,,,,,,,,,,,,,,,,,,,,,,,,,,,,,,,,,,,,,,,,,,,,,,,,,,,,,,,,,,,,,,,,,,,,,,,,,,,,,,,,,,,,,,,,,,,,,,,,,,,,,,,,,,,,,,,,,,,,,,,,,,,,,,,,,,,,,,,,,,,,,,,,,,,,,,,,,,,,,,,,
0,23,23,30,1,,60be4bf0987ab1493e8a7899,62c53a971e2430229b129e64,2022-07-06_09h33.01.577,Colour_Asymmetry_Pilot,2022.1.3,Win32,57.88041905,62c50e9c1127f2cd403a315f,,,,,,,,,,,,,,,,,,,,,,,,,,,,,,,,,,,,,,,,,,,,,,,,,,,,,,,,,,,,,,,,,,,,,,,,,,,,,,,,,,,,,,,,,,,,,,,,,,,,,,,,,,,,,,,,,,,,,,,,,,,,,,,,,,,,,,,,,,,,,,,,,,,,,,,,,,,,,,,,,,,,
0,24,24,10,1,,60be4bf0987ab1493e8a7899,62c53a971e2430229b129e64,2022-07-06_09h33.01.577,Colour_Asymmetry_Pilot,2022.1.3,Win32,57.88041905,62c50e9c1127f2cd403a315f,,,,,,,,,,,,,,,,,,,,,,,,,,,,,,,,,,,,,,,,,,,,,,,,,,,,,,,,,,,,,,,,,,,,,,,,,,,,,,,,,,,,,,,,,,,,,,,,,,,,,,,,,,,,,,,,,,,,,,,,,,,,,,,,,,,,,,,,,,,,,,,,,,,,,,,,,,,,,,,,,,,,
0,25,25,11,1,,60be4bf0987ab1493e8a7899,62c53a971e2430229b129e64,2022-07-06_09h33.01.577,Colour_Asymmetry_Pilot,2022.1.3,Win32,57.88041905,62c50e9c1127f2cd403a315f,,,,,,,,,,,,,,,,,,,,,,,,,,,,,,,,,,,,,,,,,,,,,,,,,,,,,,,,,,,,,,,,,,,,,,,,,,,,,,,,,,,,,,,,,,,,,,,,,,,,,,,,,,,,,,,,,,,,,,,,,,,,,,,,,,,,,,,,,,,,,,,,,,,,,,,,,,,,,,,,,,,,
0,26,26,16,1,,60be4bf0987ab1493e8a7899,62c53a971e2430229b129e64,2022-07-06_09h33.01.577,Colour_Asymmetry_Pilot,2022.1.3,Win32,57.88041905,62c50e9c1127f2cd403a315f,,,,,,,,,,,,,,,,,,,,,,,,,,,,,,,,,,,,,,,,,,,,,,,,,,,,,,,,,,,,,,,,,,,,,,,,,,,,,,,,,,,,,,,,,,,,,,,,,,,,,,,,,,,,,,,,,,,,,,,,,,,,,,,,,,,,,,,,,,,,,,,,,,,,,,,,,,,,,,,,,,,,
0,27,27,71,1,,60be4bf0987ab1493e8a7899,62c53a971e2430229b129e64,2022-07-06_09h33.01.577,Colour_Asymmetry_Pilot,2022.1.3,Win32,57.88041905,62c50e9c1127f2cd403a315f,,,,,,,,,,,,,,,,,,,,,,,,,,,,,,,,,,,,,,,,,,,,,,,,,,,,,,,,,,,,,,,,,,,,,,,,,,,,,,,,,,,,,,,,,,,,,,,,,,,,,,,,,,,,,,,,,,,,,,,,,,,,,,,,,,,,,,,,,,,,,,,,,,,,,,,,,,,,,,,,,,,,
0,28,28,76,1,,60be4bf0987ab1493e8a7899,62c53a971e2430229b129e64,2022-07-06_09h33.01.577,Colour_Asymmetry_Pilot,2022.1.3,Win32,57.88041905,62c50e9c1127f2cd403a315f,,,,,,,,,,,,,,,,,,,,,,,,,,,,,,,,,,,,,,,,,,,,,,,,,,,,,,,,,,,,,,,,,,,,,,,,,,,,,,,,,,,,,,,,,,,,,,,,,,,,,,,,,,,,,,,,,,,,,,,,,,,,,,,,,,,,,,,,,,,,,,,,,,,,,,,,,,,,,,,,,,,,
0,29,29,52,1,,60be4bf0987ab1493e8a7899,62c53a971e2430229b129e64,2022-07-06_09h33.01.577,Colour_Asymmetry_Pilot,2022.1.3,Win32,57.88041905,62c50e9c1127f2cd403a315f,,,,,,,,,,,,,,,,,,,,,,,,,,,,,,,,,,,,,,,,,,,,,,,,,,,,,,,,,,,,,,,,,,,,,,,,,,,,,,,,,,,,,,,,,,,,,,,,,,,,,,,,,,,,,,,,,,,,,,,,,,,,,,,,,,,,,,,,,,,,,,,,,,,,,,,,,,,,,,,,,,,,
0,30,30,38,1,,60be4bf0987ab1493e8a7899,62c53a971e2430229b129e64,2022-07-06_09h33.01.577,Colour_Asymmetry_Pilot,2022.1.3,Win32,57.88041905,62c50e9c1127f2cd403a315f,,,,,,,,,,,,,,,,,,,,,,,,,,,,,,,,,,,,,,,,,,,,,,,,,,,,,,,,,,,,,,,,,,,,,,,,,,,,,,,,,,,,,,,,,,,,,,,,,,,,,,,,,,,,,,,,,,,,,,,,,,,,,,,,,,,,,,,,,,,,,,,,,,,,,,,,,,,,,,,,,,,,
0,31,31,7,1,,60be4bf0987ab1493e8a7899,62c53a971e2430229b129e64,2022-07-06_09h33.01.577,Colour_Asymmetry_Pilot,2022.1.3,Win32,57.88041905,62c50e9c1127f2cd403a315f,,,,,,,,,,,,,,,,,,,,,,,,,,,,,,,,,,,,,,,,,,,,,,,,,,,,,,,,,,,,,,,,,,,,,,,,,,,,,,,,,,,,,,,,,,,,,,,,,,,,,,,,,,,,,,,,,,,,,,,,,,,,,,,,,,,,,,,,,,,,,,,,,,,,,,,,,,,,,,,,,,,,
0,32,32,9,1,,60be4bf0987ab1493e8a7899,62c53a971e2430229b129e64,2022-07-06_09h33.01.577,Colour_Asymmetry_Pilot,2022.1.3,Win32,57.88041905,62c50e9c1127f2cd403a315f,,,,,,,,,,,,,,,,,,,,,,,,,,,,,,,,,,,,,,,,,,,,,,,,,,,,,,,,,,,,,,,,,,,,,,,,,,,,,,,,,,,,,,,,,,,,,,,,,,,,,,,,,,,,,,,,,,,,,,,,,,,,,,,,,,,,,,,,,,,,,,,,,,,,,,,,,,,,,,,,,,,,
0,33,33,62,1,,60be4bf0987ab1493e8a7899,62c53a971e2430229b129e64,2022-07-06_09h33.01.577,Colour_Asymmetry_Pilot,2022.1.3,Win32,57.88041905,62c50e9c1127f2cd403a315f,,,,,,,,,,,,,,,,,,,,,,,,,,,,,,,,,,,,,,,,,,,,,,,,,,,,,,,,,,,,,,,,,,,,,,,,,,,,,,,,,,,,,,,,,,,,,,,,,,,,,,,,,,,,,,,,,,,,,,,,,,,,,,,,,,,,,,,,,,,,,,,,,,,,,,,,,,,,,,,,,,,,
0,34,34,77,1,,60be4bf0987ab1493e8a7899,62c53a971e2430229b129e64,2022-07-06_09h33.01.577,Colour_Asymmetry_Pilot,2022.1.3,Win32,57.88041905,62c50e9c1127f2cd403a315f,,,,,,,,,,,,,,,,,,,,,,,,,,,,,,,,,,,,,,,,,,,,,,,,,,,,,,,,,,,,,,,,,,,,,,,,,,,,,,,,,,,,,,,,,,,,,,,,,,,,,,,,,,,,,,,,,,,,,,,,,,,,,,,,,,,,,,,,,,,,,,,,,,,,,,,,,,,,,,,,,,,,
0,35,35,70,1,,60be4bf0987ab1493e8a7899,62c53a971e2430229b129e64,2022-07-06_09h33.01.577,Colour_Asymmetry_Pilot,2022.1.3,Win32,57.88041905,62c50e9c1127f2cd403a315f,,,,,,,,,,,,,,,,,,,,,,,,,,,,,,,,,,,,,,,,,,,,,,,,,,,,,,,,,,,,,,,,,,,,,,,,,,,,,,,,,,,,,,,,,,,,,,,,,,,,,,,,,,,,,,,,,,,,,,,,,,,,,,,,,,,,,,,,,,,,,,,,,,,,,,,,,,,,,,,,,,,,
0,36,36,32,1,,60be4bf0987ab1493e8a7899,62c53a971e2430229b129e64,2022-07-06_09h33.01.577,Colour_Asymmetry_Pilot,2022.1.3,Win32,57.88041905,62c50e9c1127f2cd403a315f,,,,,,,,,,,,,,,,,,,,,,,,,,,,,,,,,,,,,,,,,,,,,,,,,,,,,,,,,,,,,,,,,,,,,,,,,,,,,,,,,,,,,,,,,,,,,,,,,,,,,,,,,,,,,,,,,,,,,,,,,,,,,,,,,,,,,,,,,,,,,,,,,,,,,,,,,,,,,,,,,,,,
0,37,37,85,1,,60be4bf0987ab1493e8a7899,62c53a971e2430229b129e64,2022-07-06_09h33.01.577,Colour_Asymmetry_Pilot,2022.1.3,Win32,57.88041905,62c50e9c1127f2cd403a315f,,,,,,,,,,,,,,,,,,,,,,,,,,,,,,,,,,,,,,,,,,,,,,,,,,,,,,,,,,,,,,,,,,,,,,,,,,,,,,,,,,,,,,,,,,,,,,,,,,,,,,,,,,,,,,,,,,,,,,,,,,,,,,,,,,,,,,,,,,,,,,,,,,,,,,,,,,,,,,,,,,,,
0,38,38,44,1,,60be4bf0987ab1493e8a7899,62c53a971e2430229b129e64,2022-07-06_09h33.01.577,Colour_Asymmetry_Pilot,2022.1.3,Win32,57.88041905,62c50e9c1127f2cd403a315f,,,,,,,,,,,,,,,,,,,,,,,,,,,,,,,,,,,,,,,,,,,,,,,,,,,,,,,,,,,,,,,,,,,,,,,,,,,,,,,,,,,,,,,,,,,,,,,,,,,,,,,,,,,,,,,,,,,,,,,,,,,,,,,,,,,,,,,,,,,,,,,,,,,,,,,,,,,,,,,,,,,,
0,39,39,2,1,,60be4bf0987ab1493e8a7899,62c53a971e2430229b129e64,2022-07-06_09h33.01.577,Colour_Asymmetry_Pilot,2022.1.3,Win32,57.88041905,62c50e9c1127f2cd403a315f,,,,,,,,,,,,,,,,,,,,,,,,,,,,,,,,,,,,,,,,,,,,,,,,,,,,,,,,,,,,,,,,,,,,,,,,,,,,,,,,,,,,,,,,,,,,,,,,,,,,,,,,,,,,,,,,,,,,,,,,,,,,,,,,,,,,,,,,,,,,,,,,,,,,,,,,,,,,,,,,,,,,
0,40,40,33,1,,60be4bf0987ab1493e8a7899,62c53a971e2430229b129e64,2022-07-06_09h33.01.577,Colour_Asymmetry_Pilot,2022.1.3,Win32,57.88041905,62c50e9c1127f2cd403a315f,,,,,,,,,,,,,,,,,,,,,,,,,,,,,,,,,,,,,,,,,,,,,,,,,,,,,,,,,,,,,,,,,,,,,,,,,,,,,,,,,,,,,,,,,,,,,,,,,,,,,,,,,,,,,,,,,,,,,,,,,,,,,,,,,,,,,,,,,,,,,,,,,,,,,,,,,,,,,,,,,,,,
0,41,41,81,1,,60be4bf0987ab1493e8a7899,62c53a971e2430229b129e64,2022-07-06_09h33.01.577,Colour_Asymmetry_Pilot,2022.1.3,Win32,57.88041905,62c50e9c1127f2cd403a315f,,,,,,,,,,,,,,,,,,,,,,,,,,,,,,,,,,,,,,,,,,,,,,,,,,,,,,,,,,,,,,,,,,,,,,,,,,,,,,,,,,,,,,,,,,,,,,,,,,,,,,,,,,,,,,,,,,,,,,,,,,,,,,,,,,,,,,,,,,,,,,,,,,,,,,,,,,,,,,,,,,,,
0,42,42,80,1,,60be4bf0987ab1493e8a7899,62c53a971e2430229b129e64,2022-07-06_09h33.01.577,Colour_Asymmetry_Pilot,2022.1.3,Win32,57.88041905,62c50e9c1127f2cd403a315f,,,,,,,,,,,,,,,,,,,,,,,,,,,,,,,,,,,,,,,,,,,,,,,,,,,,,,,,,,,,,,,,,,,,,,,,,,,,,,,,,,,,,,,,,,,,,,,,,,,,,,,,,,,,,,,,,,,,,,,,,,,,,,,,,,,,,,,,,,,,,,,,,,,,,,,,,,,,,,,,,,,,
0,43,43,75,1,,60be4bf0987ab1493e8a7899,62c53a971e2430229b129e64,2022-07-06_09h33.01.577,Colour_Asymmetry_Pilot,2022.1.3,Win32,57.88041905,62c50e9c1127f2cd403a315f,,,,,,,,,,,,,,,,,,,,,,,,,,,,,,,,,,,,,,,,,,,,,,,,,,,,,,,,,,,,,,,,,,,,,,,,,,,,,,,,,,,,,,,,,,,,,,,,,,,,,,,,,,,,,,,,,,,,,,,,,,,,,,,,,,,,,,,,,,,,,,,,,,,,,,,,,,,,,,,,,,,,
0,44,44,86,1,,60be4bf0987ab1493e8a7899,62c53a971e2430229b129e64,2022-07-06_09h33.01.577,Colour_Asymmetry_Pilot,2022.1.3,Win32,57.88041905,62c50e9c1127f2cd403a315f,,,,,,,,,,,,,,,,,,,,,,,,,,,,,,,,,,,,,,,,,,,,,,,,,,,,,,,,,,,,,,,,,,,,,,,,,,,,,,,,,,,,,,,,,,,,,,,,,,,,,,,,,,,,,,,,,,,,,,,,,,,,,,,,,,,,,,,,,,,,,,,,,,,,,,,,,,,,,,,,,,,,
0,45,45,84,1,,60be4bf0987ab1493e8a7899,62c53a971e2430229b129e64,2022-07-06_09h33.01.577,Colour_Asymmetry_Pilot,2022.1.3,Win32,57.88041905,62c50e9c1127f2cd403a315f,,,,,,,,,,,,,,,,,,,,,,,,,,,,,,,,,,,,,,,,,,,,,,,,,,,,,,,,,,,,,,,,,,,,,,,,,,,,,,,,,,,,,,,,,,,,,,,,,,,,,,,,,,,,,,,,,,,,,,,,,,,,,,,,,,,,,,,,,,,,,,,,,,,,,,,,,,,,,,,,,,,,
0,46,46,73,1,,60be4bf0987ab1493e8a7899,62c53a971e2430229b129e64,2022-07-06_09h33.01.577,Colour_Asymmetry_Pilot,2022.1.3,Win32,57.88041905,62c50e9c1127f2cd403a315f,,,,,,,,,,,,,,,,,,,,,,,,,,,,,,,,,,,,,,,,,,,,,,,,,,,,,,,,,,,,,,,,,,,,,,,,,,,,,,,,,,,,,,,,,,,,,,,,,,,,,,,,,,,,,,,,,,,,,,,,,,,,,,,,,,,,,,,,,,,,,,,,,,,,,,,,,,,,,,,,,,,,
0,47,47,12,1,,60be4bf0987ab1493e8a7899,62c53a971e2430229b129e64,2022-07-06_09h33.01.577,Colour_Asymmetry_Pilot,2022.1.3,Win32,57.88041905,62c50e9c1127f2cd403a315f,,,,,,,,,,,,,,,,,,,,,,,,,,,,,,,,,,,,,,,,,,,,,,,,,,,,,,,,,,,,,,,,,,,,,,,,,,,,,,,,,,,,,,,,,,,,,,,,,,,,,,,,,,,,,,,,,,,,,,,,,,,,,,,,,,,,,,,,,,,,,,,,,,,,,,,,,,,,,,,,,,,,
0,48,48,68,1,,60be4bf0987ab1493e8a7899,62c53a971e2430229b129e64,2022-07-06_09h33.01.577,Colour_Asymmetry_Pilot,2022.1.3,Win32,57.88041905,62c50e9c1127f2cd403a315f,,,,,,,,,,,,,,,,,,,,,,,,,,,,,,,,,,,,,,,,,,,,,,,,,,,,,,,,,,,,,,,,,,,,,,,,,,,,,,,,,,,,,,,,,,,,,,,,,,,,,,,,,,,,,,,,,,,,,,,,,,,,,,,,,,,,,,,,,,,,,,,,,,,,,,,,,,,,,,,,,,,,
0,49,49,18,1,,60be4bf0987ab1493e8a7899,62c53a971e2430229b129e64,2022-07-06_09h33.01.577,Colour_Asymmetry_Pilot,2022.1.3,Win32,57.88041905,62c50e9c1127f2cd403a315f,,,,,,,,,,,,,,,,,,,,,,,,,,,,,,,,,,,,,,,,,,,,,,,,,,,,,,,,,,,,,,,,,,,,,,,,,,,,,,,,,,,,,,,,,,,,,,,,,,,,,,,,,,,,,,,,,,,,,,,,,,,,,,,,,,,,,,,,,,,,,,,,,,,,,,,,,,,,,,,,,,,,
0,50,50,92,1,,60be4bf0987ab1493e8a7899,62c53a971e2430229b129e64,2022-07-06_09h33.01.577,Colour_Asymmetry_Pilot,2022.1.3,Win32,57.88041905,62c50e9c1127f2cd403a315f,,,,,,,,,,,,,,,,,,,,,,,,,,,,,,,,,,,,,,,,,,,,,,,,,,,,,,,,,,,,,,,,,,,,,,,,,,,,,,,,,,,,,,,,,,,,,,,,,,,,,,,,,,,,,,,,,,,,,,,,,,,,,,,,,,,,,,,,,,,,,,,,,,,,,,,,,,,,,,,,,,,,
0,51,51,69,1,,60be4bf0987ab1493e8a7899,62c53a971e2430229b129e64,2022-07-06_09h33.01.577,Colour_Asymmetry_Pilot,2022.1.3,Win32,57.88041905,62c50e9c1127f2cd403a315f,,,,,,,,,,,,,,,,,,,,,,,,,,,,,,,,,,,,,,,,,,,,,,,,,,,,,,,,,,,,,,,,,,,,,,,,,,,,,,,,,,,,,,,,,,,,,,,,,,,,,,,,,,,,,,,,,,,,,,,,,,,,,,,,,,,,,,,,,,,,,,,,,,,,,,,,,,,,,,,,,,,,
0,52,52,35,1,,60be4bf0987ab1493e8a7899,62c53a971e2430229b129e64,2022-07-06_09h33.01.577,Colour_Asymmetry_Pilot,2022.1.3,Win32,57.88041905,62c50e9c1127f2cd403a315f,,,,,,,,,,,,,,,,,,,,,,,,,,,,,,,,,,,,,,,,,,,,,,,,,,,,,,,,,,,,,,,,,,,,,,,,,,,,,,,,,,,,,,,,,,,,,,,,,,,,,,,,,,,,,,,,,,,,,,,,,,,,,,,,,,,,,,,,,,,,,,,,,,,,,,,,,,,,,,,,,,,,
0,53,53,25,1,,60be4bf0987ab1493e8a7899,62c53a971e2430229b129e64,2022-07-06_09h33.01.577,Colour_Asymmetry_Pilot,2022.1.3,Win32,57.88041905,62c50e9c1127f2cd403a315f,,,,,,,,,,,,,,,,,,,,,,,,,,,,,,,,,,,,,,,,,,,,,,,,,,,,,,,,,,,,,,,,,,,,,,,,,,,,,,,,,,,,,,,,,,,,,,,,,,,,,,,,,,,,,,,,,,,,,,,,,,,,,,,,,,,,,,,,,,,,,,,,,,,,,,,,,,,,,,,,,,,,
0,54,54,56,1,,60be4bf0987ab1493e8a7899,62c53a971e2430229b129e64,2022-07-06_09h33.01.577,Colour_Asymmetry_Pilot,2022.1.3,Win32,57.88041905,62c50e9c1127f2cd403a315f,,,,,,,,,,,,,,,,,,,,,,,,,,,,,,,,,,,,,,,,,,,,,,,,,,,,,,,,,,,,,,,,,,,,,,,,,,,,,,,,,,,,,,,,,,,,,,,,,,,,,,,,,,,,,,,,,,,,,,,,,,,,,,,,,,,,,,,,,,,,,,,,,,,,,,,,,,,,,,,,,,,,
0,55,55,66,1,,60be4bf0987ab1493e8a7899,62c53a971e2430229b129e64,2022-07-06_09h33.01.577,Colour_Asymmetry_Pilot,2022.1.3,Win32,57.88041905,62c50e9c1127f2cd403a315f,,,,,,,,,,,,,,,,,,,,,,,,,,,,,,,,,,,,,,,,,,,,,,,,,,,,,,,,,,,,,,,,,,,,,,,,,,,,,,,,,,,,,,,,,,,,,,,,,,,,,,,,,,,,,,,,,,,,,,,,,,,,,,,,,,,,,,,,,,,,,,,,,,,,,,,,,,,,,,,,,,,,
0,56,56,29,1,,60be4bf0987ab1493e8a7899,62c53a971e2430229b129e64,2022-07-06_09h33.01.577,Colour_Asymmetry_Pilot,2022.1.3,Win32,57.88041905,62c50e9c1127f2cd403a315f,,,,,,,,,,,,,,,,,,,,,,,,,,,,,,,,,,,,,,,,,,,,,,,,,,,,,,,,,,,,,,,,,,,,,,,,,,,,,,,,,,,,,,,,,,,,,,,,,,,,,,,,,,,,,,,,,,,,,,,,,,,,,,,,,,,,,,,,,,,,,,,,,,,,,,,,,,,,,,,,,,,,
0,57,57,36,1,,60be4bf0987ab1493e8a7899,62c53a971e2430229b129e64,2022-07-06_09h33.01.577,Colour_Asymmetry_Pilot,2022.1.3,Win32,57.88041905,62c50e9c1127f2cd403a315f,,,,,,,,,,,,,,,,,,,,,,,,,,,,,,,,,,,,,,,,,,,,,,,,,,,,,,,,,,,,,,,,,,,,,,,,,,,,,,,,,,,,,,,,,,,,,,,,,,,,,,,,,,,,,,,,,,,,,,,,,,,,,,,,,,,,,,,,,,,,,,,,,,,,,,,,,,,,,,,,,,,,
0,58,58,91,1,,60be4bf0987ab1493e8a7899,62c53a971e2430229b129e64,2022-07-06_09h33.01.577,Colour_Asymmetry_Pilot,2022.1.3,Win32,57.88041905,62c50e9c1127f2cd403a315f,,,,,,,,,,,,,,,,,,,,,,,,,,,,,,,,,,,,,,,,,,,,,,,,,,,,,,,,,,,,,,,,,,,,,,,,,,,,,,,,,,,,,,,,,,,,,,,,,,,,,,,,,,,,,,,,,,,,,,,,,,,,,,,,,,,,,,,,,,,,,,,,,,,,,,,,,,,,,,,,,,,,
0,59,59,60,1,,60be4bf0987ab1493e8a7899,62c53a971e2430229b129e64,2022-07-06_09h33.01.577,Colour_Asymmetry_Pilot,2022.1.3,Win32,57.88041905,62c50e9c1127f2cd403a315f,,,,,,,,,,,,,,,,,,,,,,,,,,,,,,,,,,,,,,,,,,,,,,,,,,,,,,,,,,,,,,,,,,,,,,,,,,,,,,,,,,,,,,,,,,,,,,,,,,,,,,,,,,,,,,,,,,,,,,,,,,,,,,,,,,,,,,,,,,,,,,,,,,,,,,,,,,,,,,,,,,,,
0,60,60,19,1,,60be4bf0987ab1493e8a7899,62c53a971e2430229b129e64,2022-07-06_09h33.01.577,Colour_Asymmetry_Pilot,2022.1.3,Win32,57.88041905,62c50e9c1127f2cd403a315f,,,,,,,,,,,,,,,,,,,,,,,,,,,,,,,,,,,,,,,,,,,,,,,,,,,,,,,,,,,,,,,,,,,,,,,,,,,,,,,,,,,,,,,,,,,,,,,,,,,,,,,,,,,,,,,,,,,,,,,,,,,,,,,,,,,,,,,,,,,,,,,,,,,,,,,,,,,,,,,,,,,,
0,61,61,87,1,,60be4bf0987ab1493e8a7899,62c53a971e2430229b129e64,2022-07-06_09h33.01.577,Colour_Asymmetry_Pilot,2022.1.3,Win32,57.88041905,62c50e9c1127f2cd403a315f,,,,,,,,,,,,,,,,,,,,,,,,,,,,,,,,,,,,,,,,,,,,,,,,,,,,,,,,,,,,,,,,,,,,,,,,,,,,,,,,,,,,,,,,,,,,,,,,,,,,,,,,,,,,,,,,,,,,,,,,,,,,,,,,,,,,,,,,,,,,,,,,,,,,,,,,,,,,,,,,,,,,
0,62,62,82,1,,60be4bf0987ab1493e8a7899,62c53a971e2430229b129e64,2022-07-06_09h33.01.577,Colour_Asymmetry_Pilot,2022.1.3,Win32,57.88041905,62c50e9c1127f2cd403a315f,,,,,,,,,,,,,,,,,,,,,,,,,,,,,,,,,,,,,,,,,,,,,,,,,,,,,,,,,,,,,,,,,,,,,,,,,,,,,,,,,,,,,,,,,,,,,,,,,,,,,,,,,,,,,,,,,,,,,,,,,,,,,,,,,,,,,,,,,,,,,,,,,,,,,,,,,,,,,,,,,,,,
0,63,63,17,1,,60be4bf0987ab1493e8a7899,62c53a971e2430229b129e64,2022-07-06_09h33.01.577,Colour_Asymmetry_Pilot,2022.1.3,Win32,57.88041905,62c50e9c1127f2cd403a315f,,,,,,,,,,,,,,,,,,,,,,,,,,,,,,,,,,,,,,,,,,,,,,,,,,,,,,,,,,,,,,,,,,,,,,,,,,,,,,,,,,,,,,,,,,,,,,,,,,,,,,,,,,,,,,,,,,,,,,,,,,,,,,,,,,,,,,,,,,,,,,,,,,,,,,,,,,,,,,,,,,,,
0,64,64,6,1,,60be4bf0987ab1493e8a7899,62c53a971e2430229b129e64,2022-07-06_09h33.01.577,Colour_Asymmetry_Pilot,2022.1.3,Win32,57.88041905,62c50e9c1127f2cd403a315f,,,,,,,,,,,,,,,,,,,,,,,,,,,,,,,,,,,,,,,,,,,,,,,,,,,,,,,,,,,,,,,,,,,,,,,,,,,,,,,,,,,,,,,,,,,,,,,,,,,,,,,,,,,,,,,,,,,,,,,,,,,,,,,,,,,,,,,,,,,,,,,,,,,,,,,,,,,,,,,,,,,,
0,65,65,34,1,,60be4bf0987ab1493e8a7899,62c53a971e2430229b129e64,2022-07-06_09h33.01.577,Colour_Asymmetry_Pilot,2022.1.3,Win32,57.88041905,62c50e9c1127f2cd403a315f,,,,,,,,,,,,,,,,,,,,,,,,,,,,,,,,,,,,,,,,,,,,,,,,,,,,,,,,,,,,,,,,,,,,,,,,,,,,,,,,,,,,,,,,,,,,,,,,,,,,,,,,,,,,,,,,,,,,,,,,,,,,,,,,,,,,,,,,,,,,,,,,,,,,,,,,,,,,,,,,,,,,
0,66,66,4,1,,60be4bf0987ab1493e8a7899,62c53a971e2430229b129e64,2022-07-06_09h33.01.577,Colour_Asymmetry_Pilot,2022.1.3,Win32,57.88041905,62c50e9c1127f2cd403a315f,,,,,,,,,,,,,,,,,,,,,,,,,,,,,,,,,,,,,,,,,,,,,,,,,,,,,,,,,,,,,,,,,,,,,,,,,,,,,,,,,,,,,,,,,,,,,,,,,,,,,,,,,,,,,,,,,,,,,,,,,,,,,,,,,,,,,,,,,,,,,,,,,,,,,,,,,,,,,,,,,,,,
0,67,67,13,1,,60be4bf0987ab1493e8a7899,62c53a971e2430229b129e64,2022-07-06_09h33.01.577,Colour_Asymmetry_Pilot,2022.1.3,Win32,57.88041905,62c50e9c1127f2cd403a315f,,,,,,,,,,,,,,,,,,,,,,,,,,,,,,,,,,,,,,,,,,,,,,,,,,,,,,,,,,,,,,,,,,,,,,,,,,,,,,,,,,,,,,,,,,,,,,,,,,,,,,,,,,,,,,,,,,,,,,,,,,,,,,,,,,,,,,,,,,,,,,,,,,,,,,,,,,,,,,,,,,,,
0,68,68,61,1,,60be4bf0987ab1493e8a7899,62c53a971e2430229b129e64,2022-07-06_09h33.01.577,Colour_Asymmetry_Pilot,2022.1.3,Win32,57.88041905,62c50e9c1127f2cd403a315f,,,,,,,,,,,,,,,,,,,,,,,,,,,,,,,,,,,,,,,,,,,,,,,,,,,,,,,,,,,,,,,,,,,,,,,,,,,,,,,,,,,,,,,,,,,,,,,,,,,,,,,,,,,,,,,,,,,,,,,,,,,,,,,,,,,,,,,,,,,,,,,,,,,,,,,,,,,,,,,,,,,,
0,69,69,78,1,,60be4bf0987ab1493e8a7899,62c53a971e2430229b129e64,2022-07-06_09h33.01.577,Colour_Asymmetry_Pilot,2022.1.3,Win32,57.88041905,62c50e9c1127f2cd403a315f,,,,,,,,,,,,,,,,,,,,,,,,,,,,,,,,,,,,,,,,,,,,,,,,,,,,,,,,,,,,,,,,,,,,,,,,,,,,,,,,,,,,,,,,,,,,,,,,,,,,,,,,,,,,,,,,,,,,,,,,,,,,,,,,,,,,,,,,,,,,,,,,,,,,,,,,,,,,,,,,,,,,
0,70,70,54,1,,60be4bf0987ab1493e8a7899,62c53a971e2430229b129e64,2022-07-06_09h33.01.577,Colour_Asymmetry_Pilot,2022.1.3,Win32,57.88041905,62c50e9c1127f2cd403a315f,,,,,,,,,,,,,,,,,,,,,,,,,,,,,,,,,,,,,,,,,,,,,,,,,,,,,,,,,,,,,,,,,,,,,,,,,,,,,,,,,,,,,,,,,,,,,,,,,,,,,,,,,,,,,,,,,,,,,,,,,,,,,,,,,,,,,,,,,,,,,,,,,,,,,,,,,,,,,,,,,,,,
0,71,71,23,1,,60be4bf0987ab1493e8a7899,62c53a971e2430229b129e64,2022-07-06_09h33.01.577,Colour_Asymmetry_Pilot,2022.1.3,Win32,57.88041905,62c50e9c1127f2cd403a315f,,,,,,,,,,,,,,,,,,,,,,,,,,,,,,,,,,,,,,,,,,,,,,,,,,,,,,,,,,,,,,,,,,,,,,,,,,,,,,,,,,,,,,,,,,,,,,,,,,,,,,,,,,,,,,,,,,,,,,,,,,,,,,,,,,,,,,,,,,,,,,,,,,,,,,,,,,,,,,,,,,,,
0,72,72,55,1,,60be4bf0987ab1493e8a7899,62c53a971e2430229b129e64,2022-07-06_09h33.01.577,Colour_Asymmetry_Pilot,2022.1.3,Win32,57.88041905,62c50e9c1127f2cd403a315f,,,,,,,,,,,,,,,,,,,,,,,,,,,,,,,,,,,,,,,,,,,,,,,,,,,,,,,,,,,,,,,,,,,,,,,,,,,,,,,,,,,,,,,,,,,,,,,,,,,,,,,,,,,,,,,,,,,,,,,,,,,,,,,,,,,,,,,,,,,,,,,,,,,,,,,,,,,,,,,,,,,,
0,73,73,83,1,,60be4bf0987ab1493e8a7899,62c53a971e2430229b129e64,2022-07-06_09h33.01.577,Colour_Asymmetry_Pilot,2022.1.3,Win32,57.88041905,62c50e9c1127f2cd403a315f,,,,,,,,,,,,,,,,,,,,,,,,,,,,,,,,,,,,,,,,,,,,,,,,,,,,,,,,,,,,,,,,,,,,,,,,,,,,,,,,,,,,,,,,,,,,,,,,,,,,,,,,,,,,,,,,,,,,,,,,,,,,,,,,,,,,,,,,,,,,,,,,,,,,,,,,,,,,,,,,,,,,
0,74,74,64,1,,60be4bf0987ab1493e8a7899,62c53a971e2430229b129e64,2022-07-06_09h33.01.577,Colour_Asymmetry_Pilot,2022.1.3,Win32,57.88041905,62c50e9c1127f2cd403a315f,,,,,,,,,,,,,,,,,,,,,,,,,,,,,,,,,,,,,,,,,,,,,,,,,,,,,,,,,,,,,,,,,,,,,,,,,,,,,,,,,,,,,,,,,,,,,,,,,,,,,,,,,,,,,,,,,,,,,,,,,,,,,,,,,,,,,,,,,,,,,,,,,,,,,,,,,,,,,,,,,,,,
0,75,75,74,1,,60be4bf0987ab1493e8a7899,62c53a971e2430229b129e64,2022-07-06_09h33.01.577,Colour_Asymmetry_Pilot,2022.1.3,Win32,57.88041905,62c50e9c1127f2cd403a315f,,,,,,,,,,,,,,,,,,,,,,,,,,,,,,,,,,,,,,,,,,,,,,,,,,,,,,,,,,,,,,,,,,,,,,,,,,,,,,,,,,,,,,,,,,,,,,,,,,,,,,,,,,,,,,,,,,,,,,,,,,,,,,,,,,,,,,,,,,,,,,,,,,,,,,,,,,,,,,,,,,,,
0,76,76,67,1,,60be4bf0987ab1493e8a7899,62c53a971e2430229b129e64,2022-07-06_09h33.01.577,Colour_Asymmetry_Pilot,2022.1.3,Win32,57.88041905,62c50e9c1127f2cd403a315f,,,,,,,,,,,,,,,,,,,,,,,,,,,,,,,,,,,,,,,,,,,,,,,,,,,,,,,,,,,,,,,,,,,,,,,,,,,,,,,,,,,,,,,,,,,,,,,,,,,,,,,,,,,,,,,,,,,,,,,,,,,,,,,,,,,,,,,,,,,,,,,,,,,,,,,,,,,,,,,,,,,,
0,77,77,72,1,,60be4bf0987ab1493e8a7899,62c53a971e2430229b129e64,2022-07-06_09h33.01.577,Colour_Asymmetry_Pilot,2022.1.3,Win32,57.88041905,62c50e9c1127f2cd403a315f,,,,,,,,,,,,,,,,,,,,,,,,,,,,,,,,,,,,,,,,,,,,,,,,,,,,,,,,,,,,,,,,,,,,,,,,,,,,,,,,,,,,,,,,,,,,,,,,,,,,,,,,,,,,,,,,,,,,,,,,,,,,,,,,,,,,,,,,,,,,,,,,,,,,,,,,,,,,,,,,,,,,
0,78,78,40,1,,60be4bf0987ab1493e8a7899,62c53a971e2430229b129e64,2022-07-06_09h33.01.577,Colour_Asymmetry_Pilot,2022.1.3,Win32,57.88041905,62c50e9c1127f2cd403a315f,,,,,,,,,,,,,,,,,,,,,,,,,,,,,,,,,,,,,,,,,,,,,,,,,,,,,,,,,,,,,,,,,,,,,,,,,,,,,,,,,,,,,,,,,,,,,,,,,,,,,,,,,,,,,,,,,,,,,,,,,,,,,,,,,,,,,,,,,,,,,,,,,,,,,,,,,,,,,,,,,,,,
0,79,79,65,1,,60be4bf0987ab1493e8a7899,62c53a971e2430229b129e64,2022-07-06_09h33.01.577,Colour_Asymmetry_Pilot,2022.1.3,Win32,57.88041905,62c50e9c1127f2cd403a315f,,,,,,,,,,,,,,,,,,,,,,,,,,,,,,,,,,,,,,,,,,,,,,,,,,,,,,,,,,,,,,,,,,,,,,,,,,,,,,,,,,,,,,,,,,,,,,,,,,,,,,,,,,,,,,,,,,,,,,,,,,,,,,,,,,,,,,,,,,,,,,,,,,,,,,,,,,,,,,,,,,,,
0,80,80,31,1,,60be4bf0987ab1493e8a7899,62c53a971e2430229b129e64,2022-07-06_09h33.01.577,Colour_Asymmetry_Pilot,2022.1.3,Win32,57.88041905,62c50e9c1127f2cd403a315f,,,,,,,,,,,,,,,,,,,,,,,,,,,,,,,,,,,,,,,,,,,,,,,,,,,,,,,,,,,,,,,,,,,,,,,,,,,,,,,,,,,,,,,,,,,,,,,,,,,,,,,,,,,,,,,,,,,,,,,,,,,,,,,,,,,,,,,,,,,,,,,,,,,,,,,,,,,,,,,,,,,,
0,81,81,28,1,,60be4bf0987ab1493e8a7899,62c53a971e2430229b129e64,2022-07-06_09h33.01.577,Colour_Asymmetry_Pilot,2022.1.3,Win32,57.88041905,62c50e9c1127f2cd403a315f,,,,,,,,,,,,,,,,,,,,,,,,,,,,,,,,,,,,,,,,,,,,,,,,,,,,,,,,,,,,,,,,,,,,,,,,,,,,,,,,,,,,,,,,,,,,,,,,,,,,,,,,,,,,,,,,,,,,,,,,,,,,,,,,,,,,,,,,,,,,,,,,,,,,,,,,,,,,,,,,,,,,
0,82,82,63,1,,60be4bf0987ab1493e8a7899,62c53a971e2430229b129e64,2022-07-06_09h33.01.577,Colour_Asymmetry_Pilot,2022.1.3,Win32,57.88041905,62c50e9c1127f2cd403a315f,,,,,,,,,,,,,,,,,,,,,,,,,,,,,,,,,,,,,,,,,,,,,,,,,,,,,,,,,,,,,,,,,,,,,,,,,,,,,,,,,,,,,,,,,,,,,,,,,,,,,,,,,,,,,,,,,,,,,,,,,,,,,,,,,,,,,,,,,,,,,,,,,,,,,,,,,,,,,,,,,,,,
0,83,83,27,1,,60be4bf0987ab1493e8a7899,62c53a971e2430229b129e64,2022-07-06_09h33.01.577,Colour_Asymmetry_Pilot,2022.1.3,Win32,57.88041905,62c50e9c1127f2cd403a315f,,,,,,,,,,,,,,,,,,,,,,,,,,,,,,,,,,,,,,,,,,,,,,,,,,,,,,,,,,,,,,,,,,,,,,,,,,,,,,,,,,,,,,,,,,,,,,,,,,,,,,,,,,,,,,,,,,,,,,,,,,,,,,,,,,,,,,,,,,,,,,,,,,,,,,,,,,,,,,,,,,,,
0,84,84,48,1,,60be4bf0987ab1493e8a7899,62c53a971e2430229b129e64,2022-07-06_09h33.01.577,Colour_Asymmetry_Pilot,2022.1.3,Win32,57.88041905,62c50e9c1127f2cd403a315f,,,,,,,,,,,,,,,,,,,,,,,,,,,,,,,,,,,,,,,,,,,,,,,,,,,,,,,,,,,,,,,,,,,,,,,,,,,,,,,,,,,,,,,,,,,,,,,,,,,,,,,,,,,,,,,,,,,,,,,,,,,,,,,,,,,,,,,,,,,,,,,,,,,,,,,,,,,,,,,,,,,,
0,85,85,89,1,,60be4bf0987ab1493e8a7899,62c53a971e2430229b129e64,2022-07-06_09h33.01.577,Colour_Asymmetry_Pilot,2022.1.3,Win32,57.88041905,62c50e9c1127f2cd403a315f,,,,,,,,,,,,,,,,,,,,,,,,,,,,,,,,,,,,,,,,,,,,,,,,,,,,,,,,,,,,,,,,,,,,,,,,,,,,,,,,,,,,,,,,,,,,,,,,,,,,,,,,,,,,,,,,,,,,,,,,,,,,,,,,,,,,,,,,,,,,,,,,,,,,,,,,,,,,,,,,,,,,
0,86,86,1,1,,60be4bf0987ab1493e8a7899,62c53a971e2430229b129e64,2022-07-06_09h33.01.577,Colour_Asymmetry_Pilot,2022.1.3,Win32,57.88041905,62c50e9c1127f2cd403a315f,,,,,,,,,,,,,,,,,,,,,,,,,,,,,,,,,,,,,,,,,,,,,,,,,,,,,,,,,,,,,,,,,,,,,,,,,,,,,,,,,,,,,,,,,,,,,,,,,,,,,,,,,,,,,,,,,,,,,,,,,,,,,,,,,,,,,,,,,,,,,,,,,,,,,,,,,,,,,,,,,,,,
0,87,87,39,1,,60be4bf0987ab1493e8a7899,62c53a971e2430229b129e64,2022-07-06_09h33.01.577,Colour_Asymmetry_Pilot,2022.1.3,Win32,57.88041905,62c50e9c1127f2cd403a315f,,,,,,,,,,,,,,,,,,,,,,,,,,,,,,,,,,,,,,,,,,,,,,,,,,,,,,,,,,,,,,,,,,,,,,,,,,,,,,,,,,,,,,,,,,,,,,,,,,,,,,,,,,,,,,,,,,,,,,,,,,,,,,,,,,,,,,,,,,,,,,,,,,,,,,,,,,,,,,,,,,,,
0,88,88,5,1,,60be4bf0987ab1493e8a7899,62c53a971e2430229b129e64,2022-07-06_09h33.01.577,Colour_Asymmetry_Pilot,2022.1.3,Win32,57.88041905,62c50e9c1127f2cd403a315f,,,,,,,,,,,,,,,,,,,,,,,,,,,,,,,,,,,,,,,,,,,,,,,,,,,,,,,,,,,,,,,,,,,,,,,,,,,,,,,,,,,,,,,,,,,,,,,,,,,,,,,,,,,,,,,,,,,,,,,,,,,,,,,,,,,,,,,,,,,,,,,,,,,,,,,,,,,,,,,,,,,,
0,89,89,26,1,,60be4bf0987ab1493e8a7899,62c53a971e2430229b129e64,2022-07-06_09h33.01.577,Colour_Asymmetry_Pilot,2022.1.3,Win32,57.88041905,62c50e9c1127f2cd403a315f,,,,,,,,,,,,,,,,,,,,,,,,,,,,,,,,,,,,,,,,,,,,,,,,,,,,,,,,,,,,,,,,,,,,,,,,,,,,,,,,,,,,,,,,,,,,,,,,,,,,,,,,,,,,,,,,,,,,,,,,,,,,,,,,,,,,,,,,,,,,,,,,,,,,,,,,,,,,,,,,,,,,
0,90,90,51,1,,60be4bf0987ab1493e8a7899,62c53a971e2430229b129e64,2022-07-06_09h33.01.577,Colour_Asymmetry_Pilot,2022.1.3,Win32,57.88041905,62c50e9c1127f2cd403a315f,,,,,,,,,,,,,,,,,,,,,,,,,,,,,,,,,,,,,,,,,,,,,,,,,,,,,,,,,,,,,,,,,,,,,,,,,,,,,,,,,,,,,,,,,,,,,,,,,,,,,,,,,,,,,,,,,,,,,,,,,,,,,,,,,,,,,,,,,,,,,,,,,,,,,,,,,,,,,,,,,,,,
0,91,91,20,1,,60be4bf0987ab1493e8a7899,62c53a971e2430229b129e64,2022-07-06_09h33.01.577,Colour_Asymmetry_Pilot,2022.1.3,Win32,57.88041905,62c50e9c1127f2cd403a315f,,,,,,,,,,,,,,,,,,,,,,,,,,,,,,,,,,,,,,,,,,,,,,,,,,,,,,,,,,,,,,,,,,,,,,,,,,,,,,,,,,,,,,,,,,,,,,,,,,,,,,,,,,,,,,,,,,,,,,,,,,,,,,,,,,,,,,,,,,,,,,,,,,,,,,,,,,,,,,,,,,,,
0,92,92,21,1,,60be4bf0987ab1493e8a7899,62c53a971e2430229b129e64,2022-07-06_09h33.01.577,Colour_Asymmetry_Pilot,2022.1.3,Win32,57.88041905,62c50e9c1127f2cd403a315f,,,,,,,,,,,,,,,,,,,,,,,,,,,,,,,,,,,,,,,,,,,,,,,,,,,,,,,,,,,,,,,,,,,,,,,,,,,,,,,,,,,,,,,,,,,,,,,,,,,,,,,,,,,,,,,,,,,,,,,,,,,,,,,,,,,,,,,,,,,,,,,,,,,,,,,,,,,,,,,,,,,,
,,,,,,60be4bf0987ab1493e8a7899,62c53a971e2430229b129e64,2022-07-06_09h33.01.577,Colour_Asymmetry_Pilot,2022.1.3,Win32,57.88041905,62c50e9c1127f2cd403a315f,0,0,0,31,1,fourthree,,,,,,,,,,,,,,,,,,,,,,,,,,,,,,,,,,,,,,,,,,,,,,,,,,,,,,,,,,,,,,,,,,,,,,,,,,,,,,,,,,,,,,,,,,,,,,,,,,,,,,,,,,,,,,,,,,,,,,,,,,,,,,,,,,,,,,,,,,,,,,,,,,,,,,,,,,,,,,
,,,,,,60be4bf0987ab1493e8a7899,62c53a971e2430229b129e64,2022-07-06_09h33.01.577,Colour_Asymmetry_Pilot,2022.1.3,Win32,57.88041905,62c50e9c1127f2cd403a315f,0,1,1,82,1,twoone,,,,,,,,,,,,,,,,,,,,,,,,,,,,,,,,,,,,,,,,,,,,,,,,,,,,,,,,,,,,,,,,,,,,,,,,,,,,,,,,,,,,,,,,,,,,,,,,,,,,,,,,,,,,,,,,,,,,,,,,,,,,,,,,,,,,,,,,,,,,,,,,,,,,,,,,,,,,,,
,,,,,,60be4bf0987ab1493e8a7899,62c53a971e2430229b129e64,2022-07-06_09h33.01.577,Colour_Asymmetry_Pilot,2022.1.3,Win32,57.88041905,62c50e9c1127f2cd403a315f,0,2,2,138,1,twoone,,,,,,,,,,,,,,,,,,,,,,,,,,,,,,,,,,,,,,,,,,,,,,,,,,,,,,,,,,,,,,,,,,,,,,,,,,,,,,,,,,,,,,,,,,,,,,,,,,,,,,,,,,,,,,,,,,,,,,,,,,,,,,,,,,,,,,,,,,,,,,,,,,,,,,,,,,,,,,
,,,,,,60be4bf0987ab1493e8a7899,62c53a971e2430229b129e64,2022-07-06_09h33.01.577,Colour_Asymmetry_Pilot,2022.1.3,Win32,57.88041905,62c50e9c1127f2cd403a315f,0,3,3,0,1,onetwo,,,,,,,,,,,,,,,,,,,,,,,,,,,,,,,,,,,,,,,,,,,,,,,,,,,,,,,,,,,,,,,,,,,,,,,,,,,,,,,,,,,,,,,,,,,,,,,,,,,,,,,,,,,,,,,,,,,,,,,,,,,,,,,,,,,,,,,,,,,,,,,,,,,,,,,,,,,,,,
,,,,,,60be4bf0987ab1493e8a7899,62c53a971e2430229b129e64,2022-07-06_09h33.01.577,Colour_Asymmetry_Pilot,2022.1.3,Win32,57.88041905,62c50e9c1127f2cd403a315f,0,4,4,41,1,onethree,,,,,,,,,,,,,,,,,,,,,,,,,,,,,,,,,,,,,,,,,,,,,,,,,,,,,,,,,,,,,,,,,,,,,,,,,,,,,,,,,,,,,,,,,,,,,,,,,,,,,,,,,,,,,,,,,,,,,,,,,,,,,,,,,,,,,,,,,,,,,,,,,,,,,,,,,,,,,,
,,,,,,60be4bf0987ab1493e8a7899,62c53a971e2430229b129e64,2022-07-06_09h33.01.577,Colour_Asymmetry_Pilot,2022.1.3,Win32,57.88041905,62c50e9c1127f2cd403a315f,0,5,5,142,1,fourtwo,,,,,,,,,,,,,,,,,,,,,,,,,,,,,,,,,,,,,,,,,,,,,,,,,,,,,,,,,,,,,,,,,,,,,,,,,,,,,,,,,,,,,,,,,,,,,,,,,,,,,,,,,,,,,,,,,,,,,,,,,,,,,,,,,,,,,,,,,,,,,,,,,,,,,,,,,,,,,,
,,,,,,60be4bf0987ab1493e8a7899,62c53a971e2430229b129e64,2022-07-06_09h33.01.577,Colour_Asymmetry_Pilot,2022.1.3,Win32,57.88041905,62c50e9c1127f2cd403a315f,0,6,6,137,1,onethree,,,,,,,,,,,,,,,,,,,,,,,,,,,,,,,,,,,,,,,,,,,,,,,,,,,,,,,,,,,,,,,,,,,,,,,,,,,,,,,,,,,,,,,,,,,,,,,,,,,,,,,,,,,,,,,,,,,,,,,,,,,,,,,,,,,,,,,,,,,,,,,,,,,,,,,,,,,,,,
,,,,,,60be4bf0987ab1493e8a7899,62c53a971e2430229b129e64,2022-07-06_09h33.01.577,Colour_Asymmetry_Pilot,2022.1.3,Win32,57.88041905,62c50e9c1127f2cd403a315f,0,7,7,54,1,fourtwo,,,,,,,,,,,,,,,,,,,,,,,,,,,,,,,,,,,,,,,,,,,,,,,,,,,,,,,,,,,,,,,,,,,,,,,,,,,,,,,,,,,,,,,,,,,,,,,,,,,,,,,,,,,,,,,,,,,,,,,,,,,,,,,,,,,,,,,,,,,,,,,,,,,,,,,,,,,,,,
,,,,,,60be4bf0987ab1493e8a7899,62c53a971e2430229b129e64,2022-07-06_09h33.01.577,Colour_Asymmetry_Pilot,2022.1.3,Win32,57.88041905,62c50e9c1127f2cd403a315f,0,8,8,123,1,twofour,,,,,,,,,,,,,,,,,,,,,,,,,,,,,,,,,,,,,,,,,,,,,,,,,,,,,,,,,,,,,,,,,,,,,,,,,,,,,,,,,,,,,,,,,,,,,,,,,,,,,,,,,,,,,,,,,,,,,,,,,,,,,,,,,,,,,,,,,,,,,,,,,,,,,,,,,,,,,,
,,,,,,60be4bf0987ab1493e8a7899,62c53a971e2430229b129e64,2022-07-06_09h33.01.577,Colour_Asymmetry_Pilot,2022.1.3,Win32,57.88041905,62c50e9c1127f2cd403a315f,0,9,9,34,1,twoone,,,,,,,,,,,,,,,,,,,,,,,,,,,,,,,,,,,,,,,,,,,,,,,,,,,,,,,,,,,,,,,,,,,,,,,,,,,,,,,,,,,,,,,,,,,,,,,,,,,,,,,,,,,,,,,,,,,,,,,,,,,,,,,,,,,,,,,,,,,,,,,,,,,,,,,,,,,,,,
,,,,,,60be4bf0987ab1493e8a7899,62c53a971e2430229b129e64,2022-07-06_09h33.01.577,Colour_Asymmetry_Pilot,2022.1.3,Win32,57.88041905,62c50e9c1127f2cd403a315f,0,10,10,78,1,fourtwo,,,,,,,,,,,,,,,,,,,,,,,,,,,,,,,,,,,,,,,,,,,,,,,,,,,,,,,,,,,,,,,,,,,,,,,,,,,,,,,,,,,,,,,,,,,,,,,,,,,,,,,,,,,,,,,,,,,,,,,,,,,,,,,,,,,,,,,,,,,,,,,,,,,,,,,,,,,,,,
,,,,,,60be4bf0987ab1493e8a7899,62c53a971e2430229b129e64,2022-07-06_09h33.01.577,Colour_Asymmetry_Pilot,2022.1.3,Win32,57.88041905,62c50e9c1127f2cd403a315f,0,11,11,80,1,onetwo,,,,,,,,,,,,,,,,,,,,,,,,,,,,,,,,,,,,,,,,,,,,,,,,,,,,,,,,,,,,,,,,,,,,,,,,,,,,,,,,,,,,,,,,,,,,,,,,,,,,,,,,,,,,,,,,,,,,,,,,,,,,,,,,,,,,,,,,,,,,,,,,,,,,,,,,,,,,,,
,,,,,,60be4bf0987ab1493e8a7899,62c53a971e2430229b129e64,2022-07-06_09h33.01.577,Colour_Asymmetry_Pilot,2022.1.3,Win32,57.88041905,62c50e9c1127f2cd403a315f,0,12,12,57,1,onethree,,,,,,,,,,,,,,,,,,,,,,,,,,,,,,,,,,,,,,,,,,,,,,,,,,,,,,,,,,,,,,,,,,,,,,,,,,,,,,,,,,,,,,,,,,,,,,,,,,,,,,,,,,,,,,,,,,,,,,,,,,,,,,,,,,,,,,,,,,,,,,,,,,,,,,,,,,,,,,
,,,,,,60be4bf0987ab1493e8a7899,62c53a971e2430229b129e64,2022-07-06_09h33.01.577,Colour_Asymmetry_Pilot,2022.1.3,Win32,57.88041905,62c50e9c1127f2cd403a315f,0,13,13,105,1,onethree,,,,,,,,,,,,,,,,,,,,,,,,,,,,,,,,,,,,,,,,,,,,,,,,,,,,,,,,,,,,,,,,,,,,,,,,,,,,,,,,,,,,,,,,,,,,,,,,,,,,,,,,,,,,,,,,,,,,,,,,,,,,,,,,,,,,,,,,,,,,,,,,,,,,,,,,,,,,,,
,,,,,,60be4bf0987ab1493e8a7899,62c53a971e2430229b129e64,2022-07-06_09h33.01.577,Colour_Asymmetry_Pilot,2022.1.3,Win32,57.88041905,62c50e9c1127f2cd403a315f,0,14,14,117,1,threefour,,,,,,,,,,,,,,,,,,,,,,,,,,,,,,,,,,,,,,,,,,,,,,,,,,,,,,,,,,,,,,,,,,,,,,,,,,,,,,,,,,,,,,,,,,,,,,,,,,,,,,,,,,,,,,,,,,,,,,,,,,,,,,,,,,,,,,,,,,,,,,,,,,,,,,,,,,,,,,
,,,,,,60be4bf0987ab1493e8a7899,62c53a971e2430229b129e64,2022-07-06_09h33.01.577,Colour_Asymmetry_Pilot,2022.1.3,Win32,57.88041905,62c50e9c1127f2cd403a315f,0,15,15,7,1,fourthree,,,,,,,,,,,,,,,,,,,,,,,,,,,,,,,,,,,,,,,,,,,,,,,,,,,,,,,,,,,,,,,,,,,,,,,,,,,,,,,,,,,,,,,,,,,,,,,,,,,,,,,,,,,,,,,,,,,,,,,,,,,,,,,,,,,,,,,,,,,,,,,,,,,,,,,,,,,,,,
,,,,,,60be4bf0987ab1493e8a7899,62c53a971e2430229b129e64,2022-07-06_09h33.01.577,Colour_Asymmetry_Pilot,2022.1.3,Win32,57.88041905,62c50e9c1127f2cd403a315f,0,16,16,40,1,onetwo,,,,,,,,,,,,,,,,,,,,,,,,,,,,,,,,,,,,,,,,,,,,,,,,,,,,,,,,,,,,,,,,,,,,,,,,,,,,,,,,,,,,,,,,,,,,,,,,,,,,,,,,,,,,,,,,,,,,,,,,,,,,,,,,,,,,,,,,,,,,,,,,,,,,,,,,,,,,,,
,,,,,,60be4bf0987ab1493e8a7899,62c53a971e2430229b129e64,2022-07-06_09h33.01.577,Colour_Asymmetry_Pilot,2022.1.3,Win32,57.88041905,62c50e9c1127f2cd403a315f,0,17,17,26,1,twoone,,,,,,,,,,,,,,,,,,,,,,,,,,,,,,,,,,,,,,,,,,,,,,,,,,,,,,,,,,,,,,,,,,,,,,,,,,,,,,,,,,,,,,,,,,,,,,,,,,,,,,,,,,,,,,,,,,,,,,,,,,,,,,,,,,,,,,,,,,,,,,,,,,,,,,,,,,,,,,
,,,,,,60be4bf0987ab1493e8a7899,62c53a971e2430229b129e64,2022-07-06_09h33.01.577,Colour_Asymmetry_Pilot,2022.1.3,Win32,57.88041905,62c50e9c1127f2cd403a315f,0,18,18,121,1,onethree,,,,,,,,,,,,,,,,,,,,,,,,,,,,,,,,,,,,,,,,,,,,,,,,,,,,,,,,,,,,,,,,,,,,,,,,,,,,,,,,,,,,,,,,,,,,,,,,,,,,,,,,,,,,,,,,,,,,,,,,,,,,,,,,,,,,,,,,,,,,,,,,,,,,,,,,,,,,,,
,,,,,,60be4bf0987ab1493e8a7899,62c53a971e2430229b129e64,2022-07-06_09h33.01.577,Colour_Asymmetry_Pilot,2022.1.3,Win32,57.88041905,62c50e9c1127f2cd403a315f,0,19,19,20,1,threeone,,,,,,,,,,,,,,,,,,,,,,,,,,,,,,,,,,,,,,,,,,,,,,,,,,,,,,,,,,,,,,,,,,,,,,,,,,,,,,,,,,,,,,,,,,,,,,,,,,,,,,,,,,,,,,,,,,,,,,,,,,,,,,,,,,,,,,,,,,,,,,,,,,,,,,,,,,,,,,
,,,,,,60be4bf0987ab1493e8a7899,62c53a971e2430229b129e64,2022-07-06_09h33.01.577,Colour_Asymmetry_Pilot,2022.1.3,Win32,57.88041905,62c50e9c1127f2cd403a315f,0,20,20,126,1,fourtwo,,,,,,,,,,,,,,,,,,,,,,,,,,,,,,,,,,,,,,,,,,,,,,,,,,,,,,,,,,,,,,,,,,,,,,,,,,,,,,,,,,,,,,,,,,,,,,,,,,,,,,,,,,,,,,,,,,,,,,,,,,,,,,,,,,,,,,,,,,,,,,,,,,,,,,,,,,,,,,
,,,,,,60be4bf0987ab1493e8a7899,62c53a971e2430229b129e64,2022-07-06_09h33.01.577,Colour_Asymmetry_Pilot,2022.1.3,Win32,57.88041905,62c50e9c1127f2cd403a315f,0,21,21,28,1,threeone,,,,,,,,,,,,,,,,,,,,,,,,,,,,,,,,,,,,,,,,,,,,,,,,,,,,,,,,,,,,,,,,,,,,,,,,,,,,,,,,,,,,,,,,,,,,,,,,,,,,,,,,,,,,,,,,,,,,,,,,,,,,,,,,,,,,,,,,,,,,,,,,,,,,,,,,,,,,,,
,,,,,,60be4bf0987ab1493e8a7899,62c53a971e2430229b129e64,2022-07-06_09h33.01.577,Colour_Asymmetry_Pilot,2022.1.3,Win32,57.88041905,62c50e9c1127f2cd403a315f,0,22,22,130,1,twoone,,,,,,,,,,,,,,,,,,,,,,,,,,,,,,,,,,,,,,,,,,,,,,,,,,,,,,,,,,,,,,,,,,,,,,,,,,,,,,,,,,,,,,,,,,,,,,,,,,,,,,,,,,,,,,,,,,,,,,,,,,,,,,,,,,,,,,,,,,,,,,,,,,,,,,,,,,,,,,
,,,,,,60be4bf0987ab1493e8a7899,62c53a971e2430229b129e64,2022-07-06_09h33.01.577,Colour_Asymmetry_Pilot,2022.1.3,Win32,57.88041905,62c50e9c1127f2cd403a315f,0,23,23,110,1,fourtwo,,,,,,,,,,,,,,,,,,,,,,,,,,,,,,,,,,,,,,,,,,,,,,,,,,,,,,,,,,,,,,,,,,,,,,,,,,,,,,,,,,,,,,,,,,,,,,,,,,,,,,,,,,,,,,,,,,,,,,,,,,,,,,,,,,,,,,,,,,,,,,,,,,,,,,,,,,,,,,
,,,,,,60be4bf0987ab1493e8a7899,62c53a971e2430229b129e64,2022-07-06_09h33.01.577,Colour_Asymmetry_Pilot,2022.1.3,Win32,57.88041905,62c50e9c1127f2cd403a315f,0,24,24,125,1,threefour,,,,,,,,,,,,,,,,,,,,,,,,,,,,,,,,,,,,,,,,,,,,,,,,,,,,,,,,,,,,,,,,,,,,,,,,,,,,,,,,,,,,,,,,,,,,,,,,,,,,,,,,,,,,,,,,,,,,,,,,,,,,,,,,,,,,,,,,,,,,,,,,,,,,,,,,,,,,,,
,,,,,,60be4bf0987ab1493e8a7899,62c53a971e2430229b129e64,2022-07-06_09h33.01.577,Colour_Asymmetry_Pilot,2022.1.3,Win32,57.88041905,62c50e9c1127f2cd403a315f,0,25,25,71,1,fourthree,,,,,,,,,,,,,,,,,,,,,,,,,,,,,,,,,,,,,,,,,,,,,,,,,,,,,,,,,,,,,,,,,,,,,,,,,,,,,,,,,,,,,,,,,,,,,,,,,,,,,,,,,,,,,,,,,,,,,,,,,,,,,,,,,,,,,,,,,,,,,,,,,,,,,,,,,,,,,,
,,,,,,60be4bf0987ab1493e8a7899,62c53a971e2430229b129e64,2022-07-06_09h33.01.577,Colour_Asymmetry_Pilot,2022.1.3,Win32,57.88041905,62c50e9c1127f2cd403a315f,0,26,26,132,1,threeone,,,,,,,,,,,,,,,,,,,,,,,,,,,,,,,,,,,,,,,,,,,,,,,,,,,,,,,,,,,,,,,,,,,,,,,,,,,,,,,,,,,,,,,,,,,,,,,,,,,,,,,,,,,,,,,,,,,,,,,,,,,,,,,,,,,,,,,,,,,,,,,,,,,,,,,,,,,,,,
,,,,,,60be4bf0987ab1493e8a7899,62c53a971e2430229b129e64,2022-07-06_09h33.01.577,Colour_Asymmetry_Pilot,2022.1.3,Win32,57.88041905,62c50e9c1127f2cd403a315f,0,27,27,157,1,threefour,,,,,,,,,,,,,,,,,,,,,,,,,,,,,,,,,,,,,,,,,,,,,,,,,,,,,,,,,,,,,,,,,,,,,,,,,,,,,,,,,,,,,,,,,,,,,,,,,,,,,,,,,,,,,,,,,,,,,,,,,,,,,,,,,,,,,,,,,,,,,,,,,,,,,,,,,,,,,,
,,,,,,60be4bf0987ab1493e8a7899,62c53a971e2430229b129e64,2022-07-06_09h33.01.577,Colour_Asymmetry_Pilot,2022.1.3,Win32,57.88041905,62c50e9c1127f2cd403a315f,0,28,28,120,1,onetwo,,,,,,,,,,,,,,,,,,,,,,,,,,,,,,,,,,,,,,,,,,,,,,,,,,,,,,,,,,,,,,,,,,,,,,,,,,,,,,,,,,,,,,,,,,,,,,,,,,,,,,,,,,,,,,,,,,,,,,,,,,,,,,,,,,,,,,,,,,,,,,,,,,,,,,,,,,,,,,
,,,,,,60be4bf0987ab1493e8a7899,62c53a971e2430229b129e64,2022-07-06_09h33.01.577,Colour_Asymmetry_Pilot,2022.1.3,Win32,57.88041905,62c50e9c1127f2cd403a315f,0,29,29,8,1,onetwo,,,,,,,,,,,,,,,,,,,,,,,,,,,,,,,,,,,,,,,,,,,,,,,,,,,,,,,,,,,,,,,,,,,,,,,,,,,,,,,,,,,,,,,,,,,,,,,,,,,,,,,,,,,,,,,,,,,,,,,,,,,,,,,,,,,,,,,,,,,,,,,,,,,,,,,,,,,,,,
,,,,,,60be4bf0987ab1493e8a7899,62c53a971e2430229b129e64,2022-07-06_09h33.01.577,Colour_Asymmetry_Pilot,2022.1.3,Win32,57.88041905,62c50e9c1127f2cd403a315f,0,30,30,92,1,threeone,,,,,,,,,,,,,,,,,,,,,,,,,,,,,,,,,,,,,,,,,,,,,,,,,,,,,,,,,,,,,,,,,,,,,,,,,,,,,,,,,,,,,,,,,,,,,,,,,,,,,,,,,,,,,,,,,,,,,,,,,,,,,,,,,,,,,,,,,,,,,,,,,,,,,,,,,,,,,,
,,,,,,60be4bf0987ab1493e8a7899,62c53a971e2430229b129e64,2022-07-06_09h33.01.577,Colour_Asymmetry_Pilot,2022.1.3,Win32,57.88041905,62c50e9c1127f2cd403a315f,0,31,31,143,1,fourthree,,,,,,,,,,,,,,,,,,,,,,,,,,,,,,,,,,,,,,,,,,,,,,,,,,,,,,,,,,,,,,,,,,,,,,,,,,,,,,,,,,,,,,,,,,,,,,,,,,,,,,,,,,,,,,,,,,,,,,,,,,,,,,,,,,,,,,,,,,,,,,,,,,,,,,,,,,,,,,
,,,,,,60be4bf0987ab1493e8a7899,62c53a971e2430229b129e64,2022-07-06_09h33.01.577,Colour_Asymmetry_Pilot,2022.1.3,Win32,57.88041905,62c50e9c1127f2cd403a315f,0,32,32,89,1,onethree,,,,,,,,,,,,,,,,,,,,,,,,,,,,,,,,,,,,,,,,,,,,,,,,,,,,,,,,,,,,,,,,,,,,,,,,,,,,,,,,,,,,,,,,,,,,,,,,,,,,,,,,,,,,,,,,,,,,,,,,,,,,,,,,,,,,,,,,,,,,,,,,,,,,,,,,,,,,,,
,,,,,,60be4bf0987ab1493e8a7899,62c53a971e2430229b129e64,2022-07-06_09h33.01.577,Colour_Asymmetry_Pilot,2022.1.3,Win32,57.88041905,62c50e9c1127f2cd403a315f,0,33,33,84,1,threeone,,,,,,,,,,,,,,,,,,,,,,,,,,,,,,,,,,,,,,,,,,,,,,,,,,,,,,,,,,,,,,,,,,,,,,,,,,,,,,,,,,,,,,,,,,,,,,,,,,,,,,,,,,,,,,,,,,,,,,,,,,,,,,,,,,,,,,,,,,,,,,,,,,,,,,,,,,,,,,
,,,,,,60be4bf0987ab1493e8a7899,62c53a971e2430229b129e64,2022-07-06_09h33.01.577,Colour_Asymmetry_Pilot,2022.1.3,Win32,57.88041905,62c50e9c1127f2cd403a315f,0,34,34,66,1,twoone,,,,,,,,,,,,,,,,,,,,,,,,,,,,,,,,,,,,,,,,,,,,,,,,,,,,,,,,,,,,,,,,,,,,,,,,,,,,,,,,,,,,,,,,,,,,,,,,,,,,,,,,,,,,,,,,,,,,,,,,,,,,,,,,,,,,,,,,,,,,,,,,,,,,,,,,,,,,,,
,,,,,,60be4bf0987ab1493e8a7899,62c53a971e2430229b129e64,2022-07-06_09h33.01.577,Colour_Asymmetry_Pilot,2022.1.3,Win32,57.88041905,62c50e9c1127f2cd403a315f,0,35,35,47,1,fourthree,,,,,,,,,,,,,,,,,,,,,,,,,,,,,,,,,,,,,,,,,,,,,,,,,,,,,,,,,,,,,,,,,,,,,,,,,,,,,,,,,,,,,,,,,,,,,,,,,,,,,,,,,,,,,,,,,,,,,,,,,,,,,,,,,,,,,,,,,,,,,,,,,,,,,,,,,,,,,,
,,,,,,60be4bf0987ab1493e8a7899,62c53a971e2430229b129e64,2022-07-06_09h33.01.577,Colour_Asymmetry_Pilot,2022.1.3,Win32,57.88041905,62c50e9c1127f2cd403a315f,0,36,36,5,1,threefour,,,,,,,,,,,,,,,,,,,,,,,,,,,,,,,,,,,,,,,,,,,,,,,,,,,,,,,,,,,,,,,,,,,,,,,,,,,,,,,,,,,,,,,,,,,,,,,,,,,,,,,,,,,,,,,,,,,,,,,,,,,,,,,,,,,,,,,,,,,,,,,,,,,,,,,,,,,,,,
,,,,,,60be4bf0987ab1493e8a7899,62c53a971e2430229b129e64,2022-07-06_09h33.01.577,Colour_Asymmetry_Pilot,2022.1.3,Win32,57.88041905,62c50e9c1127f2cd403a315f,0,37,37,16,1,onetwo,,,,,,,,,,,,,,,,,,,,,,,,,,,,,,,,,,,,,,,,,,,,,,,,,,,,,,,,,,,,,,,,,,,,,,,,,,,,,,,,,,,,,,,,,,,,,,,,,,,,,,,,,,,,,,,,,,,,,,,,,,,,,,,,,,,,,,,,,,,,,,,,,,,,,,,,,,,,,,
,,,,,,60be4bf0987ab1493e8a7899,62c53a971e2430229b129e64,2022-07-06_09h33.01.577,Colour_Asymmetry_Pilot,2022.1.3,Win32,57.88041905,62c50e9c1127f2cd403a315f,0,38,38,58,1,twoone,,,,,,,,,,,,,,,,,,,,,,,,,,,,,,,,,,,,,,,,,,,,,,,,,,,,,,,,,,,,,,,,,,,,,,,,,,,,,,,,,,,,,,,,,,,,,,,,,,,,,,,,,,,,,,,,,,,,,,,,,,,,,,,,,,,,,,,,,,,,,,,,,,,,,,,,,,,,,,
,,,,,,60be4bf0987ab1493e8a7899,62c53a971e2430229b129e64,2022-07-06_09h33.01.577,Colour_Asymmetry_Pilot,2022.1.3,Win32,57.88041905,62c50e9c1127f2cd403a315f,0,39,39,129,1,onethree,,,,,,,,,,,,,,,,,,,,,,,,,,,,,,,,,,,,,,,,,,,,,,,,,,,,,,,,,,,,,,,,,,,,,,,,,,,,,,,,,,,,,,,,,,,,,,,,,,,,,,,,,,,,,,,,,,,,,,,,,,,,,,,,,,,,,,,,,,,,,,,,,,,,,,,,,,,,,,
,,,,,,60be4bf0987ab1493e8a7899,62c53a971e2430229b129e64,2022-07-06_09h33.01.577,Colour_Asymmetry_Pilot,2022.1.3,Win32,57.88041905,62c50e9c1127f2cd403a315f,0,40,40,91,1,twofour,,,,,,,,,,,,,,,,,,,,,,,,,,,,,,,,,,,,,,,,,,,,,,,,,,,,,,,,,,,,,,,,,,,,,,,,,,,,,,,,,,,,,,,,,,,,,,,,,,,,,,,,,,,,,,,,,,,,,,,,,,,,,,,,,,,,,,,,,,,,,,,,,,,,,,,,,,,,,,
,,,,,,60be4bf0987ab1493e8a7899,62c53a971e2430229b129e64,2022-07-06_09h33.01.577,Colour_Asymmetry_Pilot,2022.1.3,Win32,57.88041905,62c50e9c1127f2cd403a315f,0,41,41,116,1,threeone,,,,,,,,,,,,,,,,,,,,,,,,,,,,,,,,,,,,,,,,,,,,,,,,,,,,,,,,,,,,,,,,,,,,,,,,,,,,,,,,,,,,,,,,,,,,,,,,,,,,,,,,,,,,,,,,,,,,,,,,,,,,,,,,,,,,,,,,,,,,,,,,,,,,,,,,,,,,,,
,,,,,,60be4bf0987ab1493e8a7899,62c53a971e2430229b129e64,2022-07-06_09h33.01.577,Colour_Asymmetry_Pilot,2022.1.3,Win32,57.88041905,62c50e9c1127f2cd403a315f,0,42,42,133,1,threefour,,,,,,,,,,,,,,,,,,,,,,,,,,,,,,,,,,,,,,,,,,,,,,,,,,,,,,,,,,,,,,,,,,,,,,,,,,,,,,,,,,,,,,,,,,,,,,,,,,,,,,,,,,,,,,,,,,,,,,,,,,,,,,,,,,,,,,,,,,,,,,,,,,,,,,,,,,,,,,
,,,,,,60be4bf0987ab1493e8a7899,62c53a971e2430229b129e64,2022-07-06_09h33.01.577,Colour_Asymmetry_Pilot,2022.1.3,Win32,57.88041905,62c50e9c1127f2cd403a315f,0,43,43,104,1,onetwo,,,,,,,,,,,,,,,,,,,,,,,,,,,,,,,,,,,,,,,,,,,,,,,,,,,,,,,,,,,,,,,,,,,,,,,,,,,,,,,,,,,,,,,,,,,,,,,,,,,,,,,,,,,,,,,,,,,,,,,,,,,,,,,,,,,,,,,,,,,,,,,,,,,,,,,,,,,,,,
,,,,,,60be4bf0987ab1493e8a7899,62c53a971e2430229b129e64,2022-07-06_09h33.01.577,Colour_Asymmetry_Pilot,2022.1.3,Win32,57.88041905,62c50e9c1127f2cd403a315f,0,44,44,124,1,threeone,,,,,,,,,,,,,,,,,,,,,,,,,,,,,,,,,,,,,,,,,,,,,,,,,,,,,,,,,,,,,,,,,,,,,,,,,,,,,,,,,,,,,,,,,,,,,,,,,,,,,,,,,,,,,,,,,,,,,,,,,,,,,,,,,,,,,,,,,,,,,,,,,,,,,,,,,,,,,,
,,,,,,60be4bf0987ab1493e8a7899,62c53a971e2430229b129e64,2022-07-06_09h33.01.577,Colour_Asymmetry_Pilot,2022.1.3,Win32,57.88041905,62c50e9c1127f2cd403a315f,0,45,45,96,1,onetwo,,,,,,,,,,,,,,,,,,,,,,,,,,,,,,,,,,,,,,,,,,,,,,,,,,,,,,,,,,,,,,,,,,,,,,,,,,,,,,,,,,,,,,,,,,,,,,,,,,,,,,,,,,,,,,,,,,,,,,,,,,,,,,,,,,,,,,,,,,,,,,,,,,,,,,,,,,,,,,
,,,,,,60be4bf0987ab1493e8a7899,62c53a971e2430229b129e64,2022-07-06_09h33.01.577,Colour_Asymmetry_Pilot,2022.1.3,Win32,57.88041905,62c50e9c1127f2cd403a315f,0,46,46,88,1,onetwo,,,,,,,,,,,,,,,,,,,,,,,,,,,,,,,,,,,,,,,,,,,,,,,,,,,,,,,,,,,,,,,,,,,,,,,,,,,,,,,,,,,,,,,,,,,,,,,,,,,,,,,,,,,,,,,,,,,,,,,,,,,,,,,,,,,,,,,,,,,,,,,,,,,,,,,,,,,,,,
,,,,,,60be4bf0987ab1493e8a7899,62c53a971e2430229b129e64,2022-07-06_09h33.01.577,Colour_Asymmetry_Pilot,2022.1.3,Win32,57.88041905,62c50e9c1127f2cd403a315f,0,47,47,51,1,twofour,,,,,,,,,,,,,,,,,,,,,,,,,,,,,,,,,,,,,,,,,,,,,,,,,,,,,,,,,,,,,,,,,,,,,,,,,,,,,,,,,,,,,,,,,,,,,,,,,,,,,,,,,,,,,,,,,,,,,,,,,,,,,,,,,,,,,,,,,,,,,,,,,,,,,,,,,,,,,,
,,,,,,60be4bf0987ab1493e8a7899,62c53a971e2430229b129e64,2022-07-06_09h33.01.577,Colour_Asymmetry_Pilot,2022.1.3,Win32,57.88041905,62c50e9c1127f2cd403a315f,0,48,48,59,1,twofour,,,,,,,,,,,,,,,,,,,,,,,,,,,,,,,,,,,,,,,,,,,,,,,,,,,,,,,,,,,,,,,,,,,,,,,,,,,,,,,,,,,,,,,,,,,,,,,,,,,,,,,,,,,,,,,,,,,,,,,,,,,,,,,,,,,,,,,,,,,,,,,,,,,,,,,,,,,,,,
,,,,,,60be4bf0987ab1493e8a7899,62c53a971e2430229b129e64,2022-07-06_09h33.01.577,Colour_Asymmetry_Pilot,2022.1.3,Win32,57.88041905,62c50e9c1127f2cd403a315f,0,49,49,42,1,twoone,,,,,,,,,,,,,,,,,,,,,,,,,,,,,,,,,,,,,,,,,,,,,,,,,,,,,,,,,,,,,,,,,,,,,,,,,,,,,,,,,,,,,,,,,,,,,,,,,,,,,,,,,,,,,,,,,,,,,,,,,,,,,,,,,,,,,,,,,,,,,,,,,,,,,,,,,,,,,,
,,,,,,60be4bf0987ab1493e8a7899,62c53a971e2430229b129e64,2022-07-06_09h33.01.577,Colour_Asymmetry_Pilot,2022.1.3,Win32,57.88041905,62c50e9c1127f2cd403a315f,0,50,50,155,1,twofour,,,,,,,,,,,,,,,,,,,,,,,,,,,,,,,,,,,,,,,,,,,,,,,,,,,,,,,,,,,,,,,,,,,,,,,,,,,,,,,,,,,,,,,,,,,,,,,,,,,,,,,,,,,,,,,,,,,,,,,,,,,,,,,,,,,,,,,,,,,,,,,,,,,,,,,,,,,,,,
,,,,,,60be4bf0987ab1493e8a7899,62c53a971e2430229b129e64,2022-07-06_09h33.01.577,Colour_Asymmetry_Pilot,2022.1.3,Win32,57.88041905,62c50e9c1127f2cd403a315f,0,51,51,109,1,threefour,,,,,,,,,,,,,,,,,,,,,,,,,,,,,,,,,,,,,,,,,,,,,,,,,,,,,,,,,,,,,,,,,,,,,,,,,,,,,,,,,,,,,,,,,,,,,,,,,,,,,,,,,,,,,,,,,,,,,,,,,,,,,,,,,,,,,,,,,,,,,,,,,,,,,,,,,,,,,,
,,,,,,60be4bf0987ab1493e8a7899,62c53a971e2430229b129e64,2022-07-06_09h33.01.577,Colour_Asymmetry_Pilot,2022.1.3,Win32,57.88041905,62c50e9c1127f2cd403a315f,0,52,52,67,1,twofour,,,,,,,,,,,,,,,,,,,,,,,,,,,,,,,,,,,,,,,,,,,,,,,,,,,,,,,,,,,,,,,,,,,,,,,,,,,,,,,,,,,,,,,,,,,,,,,,,,,,,,,,,,,,,,,,,,,,,,,,,,,,,,,,,,,,,,,,,,,,,,,,,,,,,,,,,,,,,,
,,,,,,60be4bf0987ab1493e8a7899,62c53a971e2430229b129e64,2022-07-06_09h33.01.577,Colour_Asymmetry_Pilot,2022.1.3,Win32,57.88041905,62c50e9c1127f2cd403a315f,0,53,53,62,1,fourtwo,,,,,,,,,,,,,,,,,,,,,,,,,,,,,,,,,,,,,,,,,,,,,,,,,,,,,,,,,,,,,,,,,,,,,,,,,,,,,,,,,,,,,,,,,,,,,,,,,,,,,,,,,,,,,,,,,,,,,,,,,,,,,,,,,,,,,,,,,,,,,,,,,,,,,,,,,,,,,,
,,,,,,60be4bf0987ab1493e8a7899,62c53a971e2430229b129e64,2022-07-06_09h33.01.577,Colour_Asymmetry_Pilot,2022.1.3,Win32,57.88041905,62c50e9c1127f2cd403a315f,0,54,54,74,1,twoone,,,,,,,,,,,,,,,,,,,,,,,,,,,,,,,,,,,,,,,,,,,,,,,,,,,,,,,,,,,,,,,,,,,,,,,,,,,,,,,,,,,,,,,,,,,,,,,,,,,,,,,,,,,,,,,,,,,,,,,,,,,,,,,,,,,,,,,,,,,,,,,,,,,,,,,,,,,,,,
,,,,,,60be4bf0987ab1493e8a7899,62c53a971e2430229b129e64,2022-07-06_09h33.01.577,Colour_Asymmetry_Pilot,2022.1.3,Win32,57.88041905,62c50e9c1127f2cd403a315f,0,55,55,4,1,threeone,,,,,,,,,,,,,,,,,,,,,,,,,,,,,,,,,,,,,,,,,,,,,,,,,,,,,,,,,,,,,,,,,,,,,,,,,,,,,,,,,,,,,,,,,,,,,,,,,,,,,,,,,,,,,,,,,,,,,,,,,,,,,,,,,,,,,,,,,,,,,,,,,,,,,,,,,,,,,,
,,,,,,60be4bf0987ab1493e8a7899,62c53a971e2430229b129e64,2022-07-06_09h33.01.577,Colour_Asymmetry_Pilot,2022.1.3,Win32,57.88041905,62c50e9c1127f2cd403a315f,0,56,56,106,1,twoone,,,,,,,,,,,,,,,,,,,,,,,,,,,,,,,,,,,,,,,,,,,,,,,,,,,,,,,,,,,,,,,,,,,,,,,,,,,,,,,,,,,,,,,,,,,,,,,,,,,,,,,,,,,,,,,,,,,,,,,,,,,,,,,,,,,,,,,,,,,,,,,,,,,,,,,,,,,,,,
,,,,,,60be4bf0987ab1493e8a7899,62c53a971e2430229b129e64,2022-07-06_09h33.01.577,Colour_Asymmetry_Pilot,2022.1.3,Win32,57.88041905,62c50e9c1127f2cd403a315f,0,57,57,136,1,onetwo,,,,,,,,,,,,,,,,,,,,,,,,,,,,,,,,,,,,,,,,,,,,,,,,,,,,,,,,,,,,,,,,,,,,,,,,,,,,,,,,,,,,,,,,,,,,,,,,,,,,,,,,,,,,,,,,,,,,,,,,,,,,,,,,,,,,,,,,,,,,,,,,,,,,,,,,,,,,,,
,,,,,,60be4bf0987ab1493e8a7899,62c53a971e2430229b129e64,2022-07-06_09h33.01.577,Colour_Asymmetry_Pilot,2022.1.3,Win32,57.88041905,62c50e9c1127f2cd403a315f,0,58,58,93,1,threefour,,,,,,,,,,,,,,,,,,,,,,,,,,,,,,,,,,,,,,,,,,,,,,,,,,,,,,,,,,,,,,,,,,,,,,,,,,,,,,,,,,,,,,,,,,,,,,,,,,,,,,,,,,,,,,,,,,,,,,,,,,,,,,,,,,,,,,,,,,,,,,,,,,,,,,,,,,,,,,
,,,,,,60be4bf0987ab1493e8a7899,62c53a971e2430229b129e64,2022-07-06_09h33.01.577,Colour_Asymmetry_Pilot,2022.1.3,Win32,57.88041905,62c50e9c1127f2cd403a315f,0,59,59,99,1,twofour,,,,,,,,,,,,,,,,,,,,,,,,,,,,,,,,,,,,,,,,,,,,,,,,,,,,,,,,,,,,,,,,,,,,,,,,,,,,,,,,,,,,,,,,,,,,,,,,,,,,,,,,,,,,,,,,,,,,,,,,,,,,,,,,,,,,,,,,,,,,,,,,,,,,,,,,,,,,,,
,,,,,,60be4bf0987ab1493e8a7899,62c53a971e2430229b129e64,2022-07-06_09h33.01.577,Colour_Asymmetry_Pilot,2022.1.3,Win32,57.88041905,62c50e9c1127f2cd403a315f,0,60,60,3,1,twofour,,,,,,,,,,,,,,,,,,,,,,,,,,,,,,,,,,,,,,,,,,,,,,,,,,,,,,,,,,,,,,,,,,,,,,,,,,,,,,,,,,,,,,,,,,,,,,,,,,,,,,,,,,,,,,,,,,,,,,,,,,,,,,,,,,,,,,,,,,,,,,,,,,,,,,,,,,,,,,
,,,,,,60be4bf0987ab1493e8a7899,62c53a971e2430229b129e64,2022-07-06_09h33.01.577,Colour_Asymmetry_Pilot,2022.1.3,Win32,57.88041905,62c50e9c1127f2cd403a315f,0,61,61,6,1,fourtwo,,,,,,,,,,,,,,,,,,,,,,,,,,,,,,,,,,,,,,,,,,,,,,,,,,,,,,,,,,,,,,,,,,,,,,,,,,,,,,,,,,,,,,,,,,,,,,,,,,,,,,,,,,,,,,,,,,,,,,,,,,,,,,,,,,,,,,,,,,,,,,,,,,,,,,,,,,,,,,
,,,,,,60be4bf0987ab1493e8a7899,62c53a971e2430229b129e64,2022-07-06_09h33.01.577,Colour_Asymmetry_Pilot,2022.1.3,Win32,57.88041905,62c50e9c1127f2cd403a315f,0,62,62,134,1,fourtwo,,,,,,,,,,,,,,,,,,,,,,,,,,,,,,,,,,,,,,,,,,,,,,,,,,,,,,,,,,,,,,,,,,,,,,,,,,,,,,,,,,,,,,,,,,,,,,,,,,,,,,,,,,,,,,,,,,,,,,,,,,,,,,,,,,,,,,,,,,,,,,,,,,,,,,,,,,,,,,
,,,,,,60be4bf0987ab1493e8a7899,62c53a971e2430229b129e64,2022-07-06_09h33.01.577,Colour_Asymmetry_Pilot,2022.1.3,Win32,57.88041905,62c50e9c1127f2cd403a315f,0,63,63,32,1,onetwo,,,,,,,,,,,,,,,,,,,,,,,,,,,,,,,,,,,,,,,,,,,,,,,,,,,,,,,,,,,,,,,,,,,,,,,,,,,,,,,,,,,,,,,,,,,,,,,,,,,,,,,,,,,,,,,,,,,,,,,,,,,,,,,,,,,,,,,,,,,,,,,,,,,,,,,,,,,,,,
,,,,,,60be4bf0987ab1493e8a7899,62c53a971e2430229b129e64,2022-07-06_09h33.01.577,Colour_Asymmetry_Pilot,2022.1.3,Win32,57.88041905,62c50e9c1127f2cd403a315f,0,64,64,102,1,fourtwo,,,,,,,,,,,,,,,,,,,,,,,,,,,,,,,,,,,,,,,,,,,,,,,,,,,,,,,,,,,,,,,,,,,,,,,,,,,,,,,,,,,,,,,,,,,,,,,,,,,,,,,,,,,,,,,,,,,,,,,,,,,,,,,,,,,,,,,,,,,,,,,,,,,,,,,,,,,,,,
,,,,,,60be4bf0987ab1493e8a7899,62c53a971e2430229b129e64,2022-07-06_09h33.01.577,Colour_Asymmetry_Pilot,2022.1.3,Win32,57.88041905,62c50e9c1127f2cd403a315f,0,65,65,161,1,onethree,,,,,,,,,,,,,,,,,,,,,,,,,,,,,,,,,,,,,,,,,,,,,,,,,,,,,,,,,,,,,,,,,,,,,,,,,,,,,,,,,,,,,,,,,,,,,,,,,,,,,,,,,,,,,,,,,,,,,,,,,,,,,,,,,,,,,,,,,,,,,,,,,,,,,,,,,,,,,,
,,,,,,60be4bf0987ab1493e8a7899,62c53a971e2430229b129e64,2022-07-06_09h33.01.577,Colour_Asymmetry_Pilot,2022.1.3,Win32,57.88041905,62c50e9c1127f2cd403a315f,0,66,66,97,1,onethree,,,,,,,,,,,,,,,,,,,,,,,,,,,,,,,,,,,,,,,,,,,,,,,,,,,,,,,,,,,,,,,,,,,,,,,,,,,,,,,,,,,,,,,,,,,,,,,,,,,,,,,,,,,,,,,,,,,,,,,,,,,,,,,,,,,,,,,,,,,,,,,,,,,,,,,,,,,,,,
,,,,,,60be4bf0987ab1493e8a7899,62c53a971e2430229b129e64,2022-07-06_09h33.01.577,Colour_Asymmetry_Pilot,2022.1.3,Win32,57.88041905,62c50e9c1127f2cd403a315f,0,67,67,48,1,onetwo,,,,,,,,,,,,,,,,,,,,,,,,,,,,,,,,,,,,,,,,,,,,,,,,,,,,,,,,,,,,,,,,,,,,,,,,,,,,,,,,,,,,,,,,,,,,,,,,,,,,,,,,,,,,,,,,,,,,,,,,,,,,,,,,,,,,,,,,,,,,,,,,,,,,,,,,,,,,,,
,,,,,,60be4bf0987ab1493e8a7899,62c53a971e2430229b129e64,2022-07-06_09h33.01.577,Colour_Asymmetry_Pilot,2022.1.3,Win32,57.88041905,62c50e9c1127f2cd403a315f,0,68,68,17,1,onethree,,,,,,,,,,,,,,,,,,,,,,,,,,,,,,,,,,,,,,,,,,,,,,,,,,,,,,,,,,,,,,,,,,,,,,,,,,,,,,,,,,,,,,,,,,,,,,,,,,,,,,,,,,,,,,,,,,,,,,,,,,,,,,,,,,,,,,,,,,,,,,,,,,,,,,,,,,,,,,
,,,,,,60be4bf0987ab1493e8a7899,62c53a971e2430229b129e64,2022-07-06_09h33.01.577,Colour_Asymmetry_Pilot,2022.1.3,Win32,57.88041905,62c50e9c1127f2cd403a315f,0,69,69,19,1,twofour,,,,,,,,,,,,,,,,,,,,,,,,,,,,,,,,,,,,,,,,,,,,,,,,,,,,,,,,,,,,,,,,,,,,,,,,,,,,,,,,,,,,,,,,,,,,,,,,,,,,,,,,,,,,,,,,,,,,,,,,,,,,,,,,,,,,,,,,,,,,,,,,,,,,,,,,,,,,,,
,,,,,,60be4bf0987ab1493e8a7899,62c53a971e2430229b129e64,2022-07-06_09h33.01.577,Colour_Asymmetry_Pilot,2022.1.3,Win32,57.88041905,62c50e9c1127f2cd403a315f,0,70,70,43,1,twofour,,,,,,,,,,,,,,,,,,,,,,,,,,,,,,,,,,,,,,,,,,,,,,,,,,,,,,,,,,,,,,,,,,,,,,,,,,,,,,,,,,,,,,,,,,,,,,,,,,,,,,,,,,,,,,,,,,,,,,,,,,,,,,,,,,,,,,,,,,,,,,,,,,,,,,,,,,,,,,
,,,,,,60be4bf0987ab1493e8a7899,62c53a971e2430229b129e64,2022-07-06_09h33.01.577,Colour_Asymmetry_Pilot,2022.1.3,Win32,57.88041905,62c50e9c1127f2cd403a315f,0,71,71,81,1,onethree,,,,,,,,,,,,,,,,,,,,,,,,,,,,,,,,,,,,,,,,,,,,,,,,,,,,,,,,,,,,,,,,,,,,,,,,,,,,,,,,,,,,,,,,,,,,,,,,,,,,,,,,,,,,,,,,,,,,,,,,,,,,,,,,,,,,,,,,,,,,,,,,,,,,,,,,,,,,,,
,,,,,,60be4bf0987ab1493e8a7899,62c53a971e2430229b129e64,2022-07-06_09h33.01.577,Colour_Asymmetry_Pilot,2022.1.3,Win32,57.88041905,62c50e9c1127f2cd403a315f,0,72,72,12,1,threeone,,,,,,,,,,,,,,,,,,,,,,,,,,,,,,,,,,,,,,,,,,,,,,,,,,,,,,,,,,,,,,,,,,,,,,,,,,,,,,,,,,,,,,,,,,,,,,,,,,,,,,,,,,,,,,,,,,,,,,,,,,,,,,,,,,,,,,,,,,,,,,,,,,,,,,,,,,,,,,
,,,,,,60be4bf0987ab1493e8a7899,62c53a971e2430229b129e64,2022-07-06_09h33.01.577,Colour_Asymmetry_Pilot,2022.1.3,Win32,57.88041905,62c50e9c1127f2cd403a315f,0,73,73,53,1,threefour,,,,,,,,,,,,,,,,,,,,,,,,,,,,,,,,,,,,,,,,,,,,,,,,,,,,,,,,,,,,,,,,,,,,,,,,,,,,,,,,,,,,,,,,,,,,,,,,,,,,,,,,,,,,,,,,,,,,,,,,,,,,,,,,,,,,,,,,,,,,,,,,,,,,,,,,,,,,,,
,,,,,,60be4bf0987ab1493e8a7899,62c53a971e2430229b129e64,2022-07-06_09h33.01.577,Colour_Asymmetry_Pilot,2022.1.3,Win32,57.88041905,62c50e9c1127f2cd403a315f,0,74,74,24,1,onetwo,,,,,,,,,,,,,,,,,,,,,,,,,,,,,,,,,,,,,,,,,,,,,,,,,,,,,,,,,,,,,,,,,,,,,,,,,,,,,,,,,,,,,,,,,,,,,,,,,,,,,,,,,,,,,,,,,,,,,,,,,,,,,,,,,,,,,,,,,,,,,,,,,,,,,,,,,,,,,,
,,,,,,60be4bf0987ab1493e8a7899,62c53a971e2430229b129e64,2022-07-06_09h33.01.577,Colour_Asymmetry_Pilot,2022.1.3,Win32,57.88041905,62c50e9c1127f2cd403a315f,0,75,75,156,1,threeone,,,,,,,,,,,,,,,,,,,,,,,,,,,,,,,,,,,,,,,,,,,,,,,,,,,,,,,,,,,,,,,,,,,,,,,,,,,,,,,,,,,,,,,,,,,,,,,,,,,,,,,,,,,,,,,,,,,,,,,,,,,,,,,,,,,,,,,,,,,,,,,,,,,,,,,,,,,,,,
,,,,,,60be4bf0987ab1493e8a7899,62c53a971e2430229b129e64,2022-07-06_09h33.01.577,Colour_Asymmetry_Pilot,2022.1.3,Win32,57.88041905,62c50e9c1127f2cd403a315f,0,76,76,39,1,fourthree,,,,,,,,,,,,,,,,,,,,,,,,,,,,,,,,,,,,,,,,,,,,,,,,,,,,,,,,,,,,,,,,,,,,,,,,,,,,,,,,,,,,,,,,,,,,,,,,,,,,,,,,,,,,,,,,,,,,,,,,,,,,,,,,,,,,,,,,,,,,,,,,,,,,,,,,,,,,,,
,,,,,,60be4bf0987ab1493e8a7899,62c53a971e2430229b129e64,2022-07-06_09h33.01.577,Colour_Asymmetry_Pilot,2022.1.3,Win32,57.88041905,62c50e9c1127f2cd403a315f,0,77,77,122,1,twoone,,,,,,,,,,,,,,,,,,,,,,,,,,,,,,,,,,,,,,,,,,,,,,,,,,,,,,,,,,,,,,,,,,,,,,,,,,,,,,,,,,,,,,,,,,,,,,,,,,,,,,,,,,,,,,,,,,,,,,,,,,,,,,,,,,,,,,,,,,,,,,,,,,,,,,,,,,,,,,
,,,,,,60be4bf0987ab1493e8a7899,62c53a971e2430229b129e64,2022-07-06_09h33.01.577,Colour_Asymmetry_Pilot,2022.1.3,Win32,57.88041905,62c50e9c1127f2cd403a315f,0,78,78,44,1,threeone,,,,,,,,,,,,,,,,,,,,,,,,,,,,,,,,,,,,,,,,,,,,,,,,,,,,,,,,,,,,,,,,,,,,,,,,,,,,,,,,,,,,,,,,,,,,,,,,,,,,,,,,,,,,,,,,,,,,,,,,,,,,,,,,,,,,,,,,,,,,,,,,,,,,,,,,,,,,,,
,,,,,,60be4bf0987ab1493e8a7899,62c53a971e2430229b129e64,2022-07-06_09h33.01.577,Colour_Asymmetry_Pilot,2022.1.3,Win32,57.88041905,62c50e9c1127f2cd403a315f,0,79,79,128,1,onetwo,,,,,,,,,,,,,,,,,,,,,,,,,,,,,,,,,,,,,,,,,,,,,,,,,,,,,,,,,,,,,,,,,,,,,,,,,,,,,,,,,,,,,,,,,,,,,,,,,,,,,,,,,,,,,,,,,,,,,,,,,,,,,,,,,,,,,,,,,,,,,,,,,,,,,,,,,,,,,,
,,,,,,60be4bf0987ab1493e8a7899,62c53a971e2430229b129e64,2022-07-06_09h33.01.577,Colour_Asymmetry_Pilot,2022.1.3,Win32,57.88041905,62c50e9c1127f2cd403a315f,0,80,80,94,1,fourtwo,,,,,,,,,,,,,,,,,,,,,,,,,,,,,,,,,,,,,,,,,,,,,,,,,,,,,,,,,,,,,,,,,,,,,,,,,,,,,,,,,,,,,,,,,,,,,,,,,,,,,,,,,,,,,,,,,,,,,,,,,,,,,,,,,,,,,,,,,,,,,,,,,,,,,,,,,,,,,,
,,,,,,60be4bf0987ab1493e8a7899,62c53a971e2430229b129e64,2022-07-06_09h33.01.577,Colour_Asymmetry_Pilot,2022.1.3,Win32,57.88041905,62c50e9c1127f2cd403a315f,0,81,81,55,1,fourthree,,,,,,,,,,,,,,,,,,,,,,,,,,,,,,,,,,,,,,,,,,,,,,,,,,,,,,,,,,,,,,,,,,,,,,,,,,,,,,,,,,,,,,,,,,,,,,,,,,,,,,,,,,,,,,,,,,,,,,,,,,,,,,,,,,,,,,,,,,,,,,,,,,,,,,,,,,,,,,
,,,,,,60be4bf0987ab1493e8a7899,62c53a971e2430229b129e64,2022-07-06_09h33.01.577,Colour_Asymmetry_Pilot,2022.1.3,Win32,57.88041905,62c50e9c1127f2cd403a315f,0,82,82,79,1,fourthree,,,,,,,,,,,,,,,,,,,,,,,,,,,,,,,,,,,,,,,,,,,,,,,,,,,,,,,,,,,,,,,,,,,,,,,,,,,,,,,,,,,,,,,,,,,,,,,,,,,,,,,,,,,,,,,,,,,,,,,,,,,,,,,,,,,,,,,,,,,,,,,,,,,,,,,,,,,,,,
,,,,,,60be4bf0987ab1493e8a7899,62c53a971e2430229b129e64,2022-07-06_09h33.01.577,Colour_Asymmetry_Pilot,2022.1.3,Win32,57.88041905,62c50e9c1127f2cd403a315f,0,83,83,52,1,threeone,,,,,,,,,,,,,,,,,,,,,,,,,,,,,,,,,,,,,,,,,,,,,,,,,,,,,,,,,,,,,,,,,,,,,,,,,,,,,,,,,,,,,,,,,,,,,,,,,,,,,,,,,,,,,,,,,,,,,,,,,,,,,,,,,,,,,,,,,,,,,,,,,,,,,,,,,,,,,,
,,,,,,60be4bf0987ab1493e8a7899,62c53a971e2430229b129e64,2022-07-06_09h33.01.577,Colour_Asymmetry_Pilot,2022.1.3,Win32,57.88041905,62c50e9c1127f2cd403a315f,0,84,84,145,1,onethree,,,,,,,,,,,,,,,,,,,,,,,,,,,,,,,,,,,,,,,,,,,,,,,,,,,,,,,,,,,,,,,,,,,,,,,,,,,,,,,,,,,,,,,,,,,,,,,,,,,,,,,,,,,,,,,,,,,,,,,,,,,,,,,,,,,,,,,,,,,,,,,,,,,,,,,,,,,,,,
,,,,,,60be4bf0987ab1493e8a7899,62c53a971e2430229b129e64,2022-07-06_09h33.01.577,Colour_Asymmetry_Pilot,2022.1.3,Win32,57.88041905,62c50e9c1127f2cd403a315f,0,85,85,25,1,onethree,,,,,,,,,,,,,,,,,,,,,,,,,,,,,,,,,,,,,,,,,,,,,,,,,,,,,,,,,,,,,,,,,,,,,,,,,,,,,,,,,,,,,,,,,,,,,,,,,,,,,,,,,,,,,,,,,,,,,,,,,,,,,,,,,,,,,,,,,,,,,,,,,,,,,,,,,,,,,,
,,,,,,60be4bf0987ab1493e8a7899,62c53a971e2430229b129e64,2022-07-06_09h33.01.577,Colour_Asymmetry_Pilot,2022.1.3,Win32,57.88041905,62c50e9c1127f2cd403a315f,0,86,86,144,1,onetwo,,,,,,,,,,,,,,,,,,,,,,,,,,,,,,,,,,,,,,,,,,,,,,,,,,,,,,,,,,,,,,,,,,,,,,,,,,,,,,,,,,,,,,,,,,,,,,,,,,,,,,,,,,,,,,,,,,,,,,,,,,,,,,,,,,,,,,,,,,,,,,,,,,,,,,,,,,,,,,
,,,,,,60be4bf0987ab1493e8a7899,62c53a971e2430229b129e64,2022-07-06_09h33.01.577,Colour_Asymmetry_Pilot,2022.1.3,Win32,57.88041905,62c50e9c1127f2cd403a315f,0,87,87,154,1,twoone,,,,,,,,,,,,,,,,,,,,,,,,,,,,,,,,,,,,,,,,,,,,,,,,,,,,,,,,,,,,,,,,,,,,,,,,,,,,,,,,,,,,,,,,,,,,,,,,,,,,,,,,,,,,,,,,,,,,,,,,,,,,,,,,,,,,,,,,,,,,,,,,,,,,,,,,,,,,,,
,,,,,,60be4bf0987ab1493e8a7899,62c53a971e2430229b129e64,2022-07-06_09h33.01.577,Colour_Asymmetry_Pilot,2022.1.3,Win32,57.88041905,62c50e9c1127f2cd403a315f,0,88,88,160,1,onetwo,,,,,,,,,,,,,,,,,,,,,,,,,,,,,,,,,,,,,,,,,,,,,,,,,,,,,,,,,,,,,,,,,,,,,,,,,,,,,,,,,,,,,,,,,,,,,,,,,,,,,,,,,,,,,,,,,,,,,,,,,,,,,,,,,,,,,,,,,,,,,,,,,,,,,,,,,,,,,,
,,,,,,60be4bf0987ab1493e8a7899,62c53a971e2430229b129e64,2022-07-06_09h33.01.577,Colour_Asymmetry_Pilot,2022.1.3,Win32,57.88041905,62c50e9c1127f2cd403a315f,0,89,89,14,1,fourtwo,,,,,,,,,,,,,,,,,,,,,,,,,,,,,,,,,,,,,,,,,,,,,,,,,,,,,,,,,,,,,,,,,,,,,,,,,,,,,,,,,,,,,,,,,,,,,,,,,,,,,,,,,,,,,,,,,,,,,,,,,,,,,,,,,,,,,,,,,,,,,,,,,,,,,,,,,,,,,,
,,,,,,60be4bf0987ab1493e8a7899,62c53a971e2430229b129e64,2022-07-06_09h33.01.577,Colour_Asymmetry_Pilot,2022.1.3,Win32,57.88041905,62c50e9c1127f2cd403a315f,0,90,90,2,1,twoone,,,,,,,,,,,,,,,,,,,,,,,,,,,,,,,,,,,,,,,,,,,,,,,,,,,,,,,,,,,,,,,,,,,,,,,,,,,,,,,,,,,,,,,,,,,,,,,,,,,,,,,,,,,,,,,,,,,,,,,,,,,,,,,,,,,,,,,,,,,,,,,,,,,,,,,,,,,,,,
,,,,,,60be4bf0987ab1493e8a7899,62c53a971e2430229b129e64,2022-07-06_09h33.01.577,Colour_Asymmetry_Pilot,2022.1.3,Win32,57.88041905,62c50e9c1127f2cd403a315f,0,91,91,127,1,fourthree,,,,,,,,,,,,,,,,,,,,,,,,,,,,,,,,,,,,,,,,,,,,,,,,,,,,,,,,,,,,,,,,,,,,,,,,,,,,,,,,,,,,,,,,,,,,,,,,,,,,,,,,,,,,,,,,,,,,,,,,,,,,,,,,,,,,,,,,,,,,,,,,,,,,,,,,,,,,,,
,,,,,,60be4bf0987ab1493e8a7899,62c53a971e2430229b129e64,2022-07-06_09h33.01.577,Colour_Asymmetry_Pilot,2022.1.3,Win32,57.88041905,62c50e9c1127f2cd403a315f,0,92,92,23,1,fourthree,,,,,,,,,,,,,,,,,,,,,,,,,,,,,,,,,,,,,,,,,,,,,,,,,,,,,,,,,,,,,,,,,,,,,,,,,,,,,,,,,,,,,,,,,,,,,,,,,,,,,,,,,,,,,,,,,,,,,,,,,,,,,,,,,,,,,,,,,,,,,,,,,,,,,,,,,,,,,,
,,,,,,60be4bf0987ab1493e8a7899,62c53a971e2430229b129e64,2022-07-06_09h33.01.577,Colour_Asymmetry_Pilot,2022.1.3,Win32,57.88041905,62c50e9c1127f2cd403a315f,0,93,93,86,1,fourtwo,,,,,,,,,,,,,,,,,,,,,,,,,,,,,,,,,,,,,,,,,,,,,,,,,,,,,,,,,,,,,,,,,,,,,,,,,,,,,,,,,,,,,,,,,,,,,,,,,,,,,,,,,,,,,,,,,,,,,,,,,,,,,,,,,,,,,,,,,,,,,,,,,,,,,,,,,,,,,,
,,,,,,60be4bf0987ab1493e8a7899,62c53a971e2430229b129e64,2022-07-06_09h33.01.577,Colour_Asymmetry_Pilot,2022.1.3,Win32,57.88041905,62c50e9c1127f2cd403a315f,0,94,94,11,1,twofour,,,,,,,,,,,,,,,,,,,,,,,,,,,,,,,,,,,,,,,,,,,,,,,,,,,,,,,,,,,,,,,,,,,,,,,,,,,,,,,,,,,,,,,,,,,,,,,,,,,,,,,,,,,,,,,,,,,,,,,,,,,,,,,,,,,,,,,,,,,,,,,,,,,,,,,,,,,,,,
,,,,,,60be4bf0987ab1493e8a7899,62c53a971e2430229b129e64,2022-07-06_09h33.01.577,Colour_Asymmetry_Pilot,2022.1.3,Win32,57.88041905,62c50e9c1127f2cd403a315f,0,95,95,158,1,fourtwo,,,,,,,,,,,,,,,,,,,,,,,,,,,,,,,,,,,,,,,,,,,,,,,,,,,,,,,,,,,,,,,,,,,,,,,,,,,,,,,,,,,,,,,,,,,,,,,,,,,,,,,,,,,,,,,,,,,,,,,,,,,,,,,,,,,,,,,,,,,,,,,,,,,,,,,,,,,,,,
,,,,,,60be4bf0987ab1493e8a7899,62c53a971e2430229b129e64,2022-07-06_09h33.01.577,Colour_Asymmetry_Pilot,2022.1.3,Win32,57.88041905,62c50e9c1127f2cd403a315f,0,96,96,115,1,twofour,,,,,,,,,,,,,,,,,,,,,,,,,,,,,,,,,,,,,,,,,,,,,,,,,,,,,,,,,,,,,,,,,,,,,,,,,,,,,,,,,,,,,,,,,,,,,,,,,,,,,,,,,,,,,,,,,,,,,,,,,,,,,,,,,,,,,,,,,,,,,,,,,,,,,,,,,,,,,,
,,,,,,60be4bf0987ab1493e8a7899,62c53a971e2430229b129e64,2022-07-06_09h33.01.577,Colour_Asymmetry_Pilot,2022.1.3,Win32,57.88041905,62c50e9c1127f2cd403a315f,0,97,97,72,1,onetwo,,,,,,,,,,,,,,,,,,,,,,,,,,,,,,,,,,,,,,,,,,,,,,,,,,,,,,,,,,,,,,,,,,,,,,,,,,,,,,,,,,,,,,,,,,,,,,,,,,,,,,,,,,,,,,,,,,,,,,,,,,,,,,,,,,,,,,,,,,,,,,,,,,,,,,,,,,,,,,
,,,,,,60be4bf0987ab1493e8a7899,62c53a971e2430229b129e64,2022-07-06_09h33.01.577,Colour_Asymmetry_Pilot,2022.1.3,Win32,57.88041905,62c50e9c1127f2cd403a315f,0,98,98,139,1,twofour,,,,,,,,,,,,,,,,,,,,,,,,,,,,,,,,,,,,,,,,,,,,,,,,,,,,,,,,,,,,,,,,,,,,,,,,,,,,,,,,,,,,,,,,,,,,,,,,,,,,,,,,,,,,,,,,,,,,,,,,,,,,,,,,,,,,,,,,,,,,,,,,,,,,,,,,,,,,,,
,,,,,,60be4bf0987ab1493e8a7899,62c53a971e2430229b129e64,2022-07-06_09h33.01.577,Colour_Asymmetry_Pilot,2022.1.3,Win32,57.88041905,62c50e9c1127f2cd403a315f,0,99,99,65,1,onethree,,,,,,,,,,,,,,,,,,,,,,,,,,,,,,,,,,,,,,,,,,,,,,,,,,,,,,,,,,,,,,,,,,,,,,,,,,,,,,,,,,,,,,,,,,,,,,,,,,,,,,,,,,,,,,,,,,,,,,,,,,,,,,,,,,,,,,,,,,,,,,,,,,,,,,,,,,,,,,
,,,,,,60be4bf0987ab1493e8a7899,62c53a971e2430229b129e64,2022-07-06_09h33.01.577,Colour_Asymmetry_Pilot,2022.1.3,Win32,57.88041905,62c50e9c1127f2cd403a315f,0,100,100,69,1,threefour,,,,,,,,,,,,,,,,,,,,,,,,,,,,,,,,,,,,,,,,,,,,,,,,,,,,,,,,,,,,,,,,,,,,,,,,,,,,,,,,,,,,,,,,,,,,,,,,,,,,,,,,,,,,,,,,,,,,,,,,,,,,,,,,,,,,,,,,,,,,,,,,,,,,,,,,,,,,,,
,,,,,,60be4bf0987ab1493e8a7899,62c53a971e2430229b129e64,2022-07-06_09h33.01.577,Colour_Asymmetry_Pilot,2022.1.3,Win32,57.88041905,62c50e9c1127f2cd403a315f,0,101,101,77,1,threefour,,,,,,,,,,,,,,,,,,,,,,,,,,,,,,,,,,,,,,,,,,,,,,,,,,,,,,,,,,,,,,,,,,,,,,,,,,,,,,,,,,,,,,,,,,,,,,,,,,,,,,,,,,,,,,,,,,,,,,,,,,,,,,,,,,,,,,,,,,,,,,,,,,,,,,,,,,,,,,
,,,,,,60be4bf0987ab1493e8a7899,62c53a971e2430229b129e64,2022-07-06_09h33.01.577,Colour_Asymmetry_Pilot,2022.1.3,Win32,57.88041905,62c50e9c1127f2cd403a315f,0,102,102,37,1,threefour,,,,,,,,,,,,,,,,,,,,,,,,,,,,,,,,,,,,,,,,,,,,,,,,,,,,,,,,,,,,,,,,,,,,,,,,,,,,,,,,,,,,,,,,,,,,,,,,,,,,,,,,,,,,,,,,,,,,,,,,,,,,,,,,,,,,,,,,,,,,,,,,,,,,,,,,,,,,,,
,,,,,,60be4bf0987ab1493e8a7899,62c53a971e2430229b129e64,2022-07-06_09h33.01.577,Colour_Asymmetry_Pilot,2022.1.3,Win32,57.88041905,62c50e9c1127f2cd403a315f,0,103,103,60,1,threeone,,,,,,,,,,,,,,,,,,,,,,,,,,,,,,,,,,,,,,,,,,,,,,,,,,,,,,,,,,,,,,,,,,,,,,,,,,,,,,,,,,,,,,,,,,,,,,,,,,,,,,,,,,,,,,,,,,,,,,,,,,,,,,,,,,,,,,,,,,,,,,,,,,,,,,,,,,,,,,
,,,,,,60be4bf0987ab1493e8a7899,62c53a971e2430229b129e64,2022-07-06_09h33.01.577,Colour_Asymmetry_Pilot,2022.1.3,Win32,57.88041905,62c50e9c1127f2cd403a315f,0,104,104,36,1,threeone,,,,,,,,,,,,,,,,,,,,,,,,,,,,,,,,,,,,,,,,,,,,,,,,,,,,,,,,,,,,,,,,,,,,,,,,,,,,,,,,,,,,,,,,,,,,,,,,,,,,,,,,,,,,,,,,,,,,,,,,,,,,,,,,,,,,,,,,,,,,,,,,,,,,,,,,,,,,,,
,,,,,,60be4bf0987ab1493e8a7899,62c53a971e2430229b129e64,2022-07-06_09h33.01.577,Colour_Asymmetry_Pilot,2022.1.3,Win32,57.88041905,62c50e9c1127f2cd403a315f,0,105,105,147,1,twofour,,,,,,,,,,,,,,,,,,,,,,,,,,,,,,,,,,,,,,,,,,,,,,,,,,,,,,,,,,,,,,,,,,,,,,,,,,,,,,,,,,,,,,,,,,,,,,,,,,,,,,,,,,,,,,,,,,,,,,,,,,,,,,,,,,,,,,,,,,,,,,,,,,,,,,,,,,,,,,
,,,,,,60be4bf0987ab1493e8a7899,62c53a971e2430229b129e64,2022-07-06_09h33.01.577,Colour_Asymmetry_Pilot,2022.1.3,Win32,57.88041905,62c50e9c1127f2cd403a315f,0,106,106,21,1,threefour,,,,,,,,,,,,,,,,,,,,,,,,,,,,,,,,,,,,,,,,,,,,,,,,,,,,,,,,,,,,,,,,,,,,,,,,,,,,,,,,,,,,,,,,,,,,,,,,,,,,,,,,,,,,,,,,,,,,,,,,,,,,,,,,,,,,,,,,,,,,,,,,,,,,,,,,,,,,,,
,,,,,,60be4bf0987ab1493e8a7899,62c53a971e2430229b129e64,2022-07-06_09h33.01.577,Colour_Asymmetry_Pilot,2022.1.3,Win32,57.88041905,62c50e9c1127f2cd403a315f,0,107,107,87,1,fourthree,,,,,,,,,,,,,,,,,,,,,,,,,,,,,,,,,,,,,,,,,,,,,,,,,,,,,,,,,,,,,,,,,,,,,,,,,,,,,,,,,,,,,,,,,,,,,,,,,,,,,,,,,,,,,,,,,,,,,,,,,,,,,,,,,,,,,,,,,,,,,,,,,,,,,,,,,,,,,,
,,,,,,60be4bf0987ab1493e8a7899,62c53a971e2430229b129e64,2022-07-06_09h33.01.577,Colour_Asymmetry_Pilot,2022.1.3,Win32,57.88041905,62c50e9c1127f2cd403a315f,0,108,108,148,1,threeone,,,,,,,,,,,,,,,,,,,,,,,,,,,,,,,,,,,,,,,,,,,,,,,,,,,,,,,,,,,,,,,,,,,,,,,,,,,,,,,,,,,,,,,,,,,,,,,,,,,,,,,,,,,,,,,,,,,,,,,,,,,,,,,,,,,,,,,,,,,,,,,,,,,,,,,,,,,,,,
,,,,,,60be4bf0987ab1493e8a7899,62c53a971e2430229b129e64,2022-07-06_09h33.01.577,Colour_Asymmetry_Pilot,2022.1.3,Win32,57.88041905,62c50e9c1127f2cd403a315f,0,109,109,73,1,onethree,,,,,,,,,,,,,,,,,,,,,,,,,,,,,,,,,,,,,,,,,,,,,,,,,,,,,,,,,,,,,,,,,,,,,,,,,,,,,,,,,,,,,,,,,,,,,,,,,,,,,,,,,,,,,,,,,,,,,,,,,,,,,,,,,,,,,,,,,,,,,,,,,,,,,,,,,,,,,,
,,,,,,60be4bf0987ab1493e8a7899,62c53a971e2430229b129e64,2022-07-06_09h33.01.577,Colour_Asymmetry_Pilot,2022.1.3,Win32,57.88041905,62c50e9c1127f2cd403a315f,0,110,110,10,1,twoone,,,,,,,,,,,,,,,,,,,,,,,,,,,,,,,,,,,,,,,,,,,,,,,,,,,,,,,,,,,,,,,,,,,,,,,,,,,,,,,,,,,,,,,,,,,,,,,,,,,,,,,,,,,,,,,,,,,,,,,,,,,,,,,,,,,,,,,,,,,,,,,,,,,,,,,,,,,,,,
,,,,,,60be4bf0987ab1493e8a7899,62c53a971e2430229b129e64,2022-07-06_09h33.01.577,Colour_Asymmetry_Pilot,2022.1.3,Win32,57.88041905,62c50e9c1127f2cd403a315f,0,111,111,85,1,threefour,,,,,,,,,,,,,,,,,,,,,,,,,,,,,,,,,,,,,,,,,,,,,,,,,,,,,,,,,,,,,,,,,,,,,,,,,,,,,,,,,,,,,,,,,,,,,,,,,,,,,,,,,,,,,,,,,,,,,,,,,,,,,,,,,,,,,,,,,,,,,,,,,,,,,,,,,,,,,,
,,,,,,60be4bf0987ab1493e8a7899,62c53a971e2430229b129e64,2022-07-06_09h33.01.577,Colour_Asymmetry_Pilot,2022.1.3,Win32,57.88041905,62c50e9c1127f2cd403a315f,0,112,112,70,1,fourtwo,,,,,,,,,,,,,,,,,,,,,,,,,,,,,,,,,,,,,,,,,,,,,,,,,,,,,,,,,,,,,,,,,,,,,,,,,,,,,,,,,,,,,,,,,,,,,,,,,,,,,,,,,,,,,,,,,,,,,,,,,,,,,,,,,,,,,,,,,,,,,,,,,,,,,,,,,,,,,,
,,,,,,60be4bf0987ab1493e8a7899,62c53a971e2430229b129e64,2022-07-06_09h33.01.577,Colour_Asymmetry_Pilot,2022.1.3,Win32,57.88041905,62c50e9c1127f2cd403a315f,0,113,113,159,1,fourthree,,,,,,,,,,,,,,,,,,,,,,,,,,,,,,,,,,,,,,,,,,,,,,,,,,,,,,,,,,,,,,,,,,,,,,,,,,,,,,,,,,,,,,,,,,,,,,,,,,,,,,,,,,,,,,,,,,,,,,,,,,,,,,,,,,,,,,,,,,,,,,,,,,,,,,,,,,,,,,
,,,,,,60be4bf0987ab1493e8a7899,62c53a971e2430229b129e64,2022-07-06_09h33.01.577,Colour_Asymmetry_Pilot,2022.1.3,Win32,57.88041905,62c50e9c1127f2cd403a315f,0,114,114,46,1,fourtwo,,,,,,,,,,,,,,,,,,,,,,,,,,,,,,,,,,,,,,,,,,,,,,,,,,,,,,,,,,,,,,,,,,,,,,,,,,,,,,,,,,,,,,,,,,,,,,,,,,,,,,,,,,,,,,,,,,,,,,,,,,,,,,,,,,,,,,,,,,,,,,,,,,,,,,,,,,,,,,
,,,,,,60be4bf0987ab1493e8a7899,62c53a971e2430229b129e64,2022-07-06_09h33.01.577,Colour_Asymmetry_Pilot,2022.1.3,Win32,57.88041905,62c50e9c1127f2cd403a315f,0,115,115,30,1,fourtwo,,,,,,,,,,,,,,,,,,,,,,,,,,,,,,,,,,,,,,,,,,,,,,,,,,,,,,,,,,,,,,,,,,,,,,,,,,,,,,,,,,,,,,,,,,,,,,,,,,,,,,,,,,,,,,,,,,,,,,,,,,,,,,,,,,,,,,,,,,,,,,,,,,,,,,,,,,,,,,
,,,,,,60be4bf0987ab1493e8a7899,62c53a971e2430229b129e64,2022-07-06_09h33.01.577,Colour_Asymmetry_Pilot,2022.1.3,Win32,57.88041905,62c50e9c1127f2cd403a315f,0,116,116,103,1,fourthree,,,,,,,,,,,,,,,,,,,,,,,,,,,,,,,,,,,,,,,,,,,,,,,,,,,,,,,,,,,,,,,,,,,,,,,,,,,,,,,,,,,,,,,,,,,,,,,,,,,,,,,,,,,,,,,,,,,,,,,,,,,,,,,,,,,,,,,,,,,,,,,,,,,,,,,,,,,,,,
,,,,,,60be4bf0987ab1493e8a7899,62c53a971e2430229b129e64,2022-07-06_09h33.01.577,Colour_Asymmetry_Pilot,2022.1.3,Win32,57.88041905,62c50e9c1127f2cd403a315f,0,117,117,118,1,fourtwo,,,,,,,,,,,,,,,,,,,,,,,,,,,,,,,,,,,,,,,,,,,,,,,,,,,,,,,,,,,,,,,,,,,,,,,,,,,,,,,,,,,,,,,,,,,,,,,,,,,,,,,,,,,,,,,,,,,,,,,,,,,,,,,,,,,,,,,,,,,,,,,,,,,,,,,,,,,,,,
,,,,,,60be4bf0987ab1493e8a7899,62c53a971e2430229b129e64,2022-07-06_09h33.01.577,Colour_Asymmetry_Pilot,2022.1.3,Win32,57.88041905,62c50e9c1127f2cd403a315f,0,118,118,98,1,twoone,,,,,,,,,,,,,,,,,,,,,,,,,,,,,,,,,,,,,,,,,,,,,,,,,,,,,,,,,,,,,,,,,,,,,,,,,,,,,,,,,,,,,,,,,,,,,,,,,,,,,,,,,,,,,,,,,,,,,,,,,,,,,,,,,,,,,,,,,,,,,,,,,,,,,,,,,,,,,,
,,,,,,60be4bf0987ab1493e8a7899,62c53a971e2430229b129e64,2022-07-06_09h33.01.577,Colour_Asymmetry_Pilot,2022.1.3,Win32,57.88041905,62c50e9c1127f2cd403a315f,0,119,119,18,1,twoone,,,,,,,,,,,,,,,,,,,,,,,,,,,,,,,,,,,,,,,,,,,,,,,,,,,,,,,,,,,,,,,,,,,,,,,,,,,,,,,,,,,,,,,,,,,,,,,,,,,,,,,,,,,,,,,,,,,,,,,,,,,,,,,,,,,,,,,,,,,,,,,,,,,,,,,,,,,,,,
,,,,,,60be4bf0987ab1493e8a7899,62c53a971e2430229b129e64,2022-07-06_09h33.01.577,Colour_Asymmetry_Pilot,2022.1.3,Win32,57.88041905,62c50e9c1127f2cd403a315f,0,120,120,29,1,threefour,,,,,,,,,,,,,,,,,,,,,,,,,,,,,,,,,,,,,,,,,,,,,,,,,,,,,,,,,,,,,,,,,,,,,,,,,,,,,,,,,,,,,,,,,,,,,,,,,,,,,,,,,,,,,,,,,,,,,,,,,,,,,,,,,,,,,,,,,,,,,,,,,,,,,,,,,,,,,,
,,,,,,60be4bf0987ab1493e8a7899,62c53a971e2430229b129e64,2022-07-06_09h33.01.577,Colour_Asymmetry_Pilot,2022.1.3,Win32,57.88041905,62c50e9c1127f2cd403a315f,0,121,121,27,1,twofour,,,,,,,,,,,,,,,,,,,,,,,,,,,,,,,,,,,,,,,,,,,,,,,,,,,,,,,,,,,,,,,,,,,,,,,,,,,,,,,,,,,,,,,,,,,,,,,,,,,,,,,,,,,,,,,,,,,,,,,,,,,,,,,,,,,,,,,,,,,,,,,,,,,,,,,,,,,,,,
,,,,,,60be4bf0987ab1493e8a7899,62c53a971e2430229b129e64,2022-07-06_09h33.01.577,Colour_Asymmetry_Pilot,2022.1.3,Win32,57.88041905,62c50e9c1127f2cd403a315f,0,122,122,15,1,fourthree,,,,,,,,,,,,,,,,,,,,,,,,,,,,,,,,,,,,,,,,,,,,,,,,,,,,,,,,,,,,,,,,,,,,,,,,,,,,,,,,,,,,,,,,,,,,,,,,,,,,,,,,,,,,,,,,,,,,,,,,,,,,,,,,,,,,,,,,,,,,,,,,,,,,,,,,,,,,,,
,,,,,,60be4bf0987ab1493e8a7899,62c53a971e2430229b129e64,2022-07-06_09h33.01.577,Colour_Asymmetry_Pilot,2022.1.3,Win32,57.88041905,62c50e9c1127f2cd403a315f,0,123,123,63,1,fourthree,,,,,,,,,,,,,,,,,,,,,,,,,,,,,,,,,,,,,,,,,,,,,,,,,,,,,,,,,,,,,,,,,,,,,,,,,,,,,,,,,,,,,,,,,,,,,,,,,,,,,,,,,,,,,,,,,,,,,,,,,,,,,,,,,,,,,,,,,,,,,,,,,,,,,,,,,,,,,,
,,,,,,60be4bf0987ab1493e8a7899,62c53a971e2430229b129e64,2022-07-06_09h33.01.577,Colour_Asymmetry_Pilot,2022.1.3,Win32,57.88041905,62c50e9c1127f2cd403a315f,0,124,124,38,1,fourtwo,,,,,,,,,,,,,,,,,,,,,,,,,,,,,,,,,,,,,,,,,,,,,,,,,,,,,,,,,,,,,,,,,,,,,,,,,,,,,,,,,,,,,,,,,,,,,,,,,,,,,,,,,,,,,,,,,,,,,,,,,,,,,,,,,,,,,,,,,,,,,,,,,,,,,,,,,,,,,,
,,,,,,60be4bf0987ab1493e8a7899,62c53a971e2430229b129e64,2022-07-06_09h33.01.577,Colour_Asymmetry_Pilot,2022.1.3,Win32,57.88041905,62c50e9c1127f2cd403a315f,0,125,125,153,1,onethree,,,,,,,,,,,,,,,,,,,,,,,,,,,,,,,,,,,,,,,,,,,,,,,,,,,,,,,,,,,,,,,,,,,,,,,,,,,,,,,,,,,,,,,,,,,,,,,,,,,,,,,,,,,,,,,,,,,,,,,,,,,,,,,,,,,,,,,,,,,,,,,,,,,,,,,,,,,,,,
,,,,,,60be4bf0987ab1493e8a7899,62c53a971e2430229b129e64,2022-07-06_09h33.01.577,Colour_Asymmetry_Pilot,2022.1.3,Win32,57.88041905,62c50e9c1127f2cd403a315f,0,126,126,45,1,threefour,,,,,,,,,,,,,,,,,,,,,,,,,,,,,,,,,,,,,,,,,,,,,,,,,,,,,,,,,,,,,,,,,,,,,,,,,,,,,,,,,,,,,,,,,,,,,,,,,,,,,,,,,,,,,,,,,,,,,,,,,,,,,,,,,,,,,,,,,,,,,,,,,,,,,,,,,,,,,,
,,,,,,60be4bf0987ab1493e8a7899,62c53a971e2430229b129e64,2022-07-06_09h33.01.577,Colour_Asymmetry_Pilot,2022.1.3,Win32,57.88041905,62c50e9c1127f2cd403a315f,0,127,127,68,1,threeone,,,,,,,,,,,,,,,,,,,,,,,,,,,,,,,,,,,,,,,,,,,,,,,,,,,,,,,,,,,,,,,,,,,,,,,,,,,,,,,,,,,,,,,,,,,,,,,,,,,,,,,,,,,,,,,,,,,,,,,,,,,,,,,,,,,,,,,,,,,,,,,,,,,,,,,,,,,,,,
,,,,,,60be4bf0987ab1493e8a7899,62c53a971e2430229b129e64,2022-07-06_09h33.01.577,Colour_Asymmetry_Pilot,2022.1.3,Win32,57.88041905,62c50e9c1127f2cd403a315f,0,128,128,149,1,threefour,,,,,,,,,,,,,,,,,,,,,,,,,,,,,,,,,,,,,,,,,,,,,,,,,,,,,,,,,,,,,,,,,,,,,,,,,,,,,,,,,,,,,,,,,,,,,,,,,,,,,,,,,,,,,,,,,,,,,,,,,,,,,,,,,,,,,,,,,,,,,,,,,,,,,,,,,,,,,,
,,,,,,60be4bf0987ab1493e8a7899,62c53a971e2430229b129e64,2022-07-06_09h33.01.577,Colour_Asymmetry_Pilot,2022.1.3,Win32,57.88041905,62c50e9c1127f2cd403a315f,0,129,129,135,1,fourthree,,,,,,,,,,,,,,,,,,,,,,,,,,,,,,,,,,,,,,,,,,,,,,,,,,,,,,,,,,,,,,,,,,,,,,,,,,,,,,,,,,,,,,,,,,,,,,,,,,,,,,,,,,,,,,,,,,,,,,,,,,,,,,,,,,,,,,,,,,,,,,,,,,,,,,,,,,,,,,
,,,,,,60be4bf0987ab1493e8a7899,62c53a971e2430229b129e64,2022-07-06_09h33.01.577,Colour_Asymmetry_Pilot,2022.1.3,Win32,57.88041905,62c50e9c1127f2cd403a315f,0,130,130,101,1,threefour,,,,,,,,,,,,,,,,,,,,,,,,,,,,,,,,,,,,,,,,,,,,,,,,,,,,,,,,,,,,,,,,,,,,,,,,,,,,,,,,,,,,,,,,,,,,,,,,,,,,,,,,,,,,,,,,,,,,,,,,,,,,,,,,,,,,,,,,,,,,,,,,,,,,,,,,,,,,,,
,,,,,,60be4bf0987ab1493e8a7899,62c53a971e2430229b129e64,2022-07-06_09h33.01.577,Colour_Asymmetry_Pilot,2022.1.3,Win32,57.88041905,62c50e9c1127f2cd403a315f,0,131,131,83,1,twofour,,,,,,,,,,,,,,,,,,,,,,,,,,,,,,,,,,,,,,,,,,,,,,,,,,,,,,,,,,,,,,,,,,,,,,,,,,,,,,,,,,,,,,,,,,,,,,,,,,,,,,,,,,,,,,,,,,,,,,,,,,,,,,,,,,,,,,,,,,,,,,,,,,,,,,,,,,,,,,
,,,,,,60be4bf0987ab1493e8a7899,62c53a971e2430229b129e64,2022-07-06_09h33.01.577,Colour_Asymmetry_Pilot,2022.1.3,Win32,57.88041905,62c50e9c1127f2cd403a315f,0,132,132,33,1,onethree,,,,,,,,,,,,,,,,,,,,,,,,,,,,,,,,,,,,,,,,,,,,,,,,,,,,,,,,,,,,,,,,,,,,,,,,,,,,,,,,,,,,,,,,,,,,,,,,,,,,,,,,,,,,,,,,,,,,,,,,,,,,,,,,,,,,,,,,,,,,,,,,,,,,,,,,,,,,,,
,,,,,,60be4bf0987ab1493e8a7899,62c53a971e2430229b129e64,2022-07-06_09h33.01.577,Colour_Asymmetry_Pilot,2022.1.3,Win32,57.88041905,62c50e9c1127f2cd403a315f,0,133,133,113,1,onethree,,,,,,,,,,,,,,,,,,,,,,,,,,,,,,,,,,,,,,,,,,,,,,,,,,,,,,,,,,,,,,,,,,,,,,,,,,,,,,,,,,,,,,,,,,,,,,,,,,,,,,,,,,,,,,,,,,,,,,,,,,,,,,,,,,,,,,,,,,,,,,,,,,,,,,,,,,,,,,
,,,,,,60be4bf0987ab1493e8a7899,62c53a971e2430229b129e64,2022-07-06_09h33.01.577,Colour_Asymmetry_Pilot,2022.1.3,Win32,57.88041905,62c50e9c1127f2cd403a315f,0,134,134,76,1,threeone,,,,,,,,,,,,,,,,,,,,,,,,,,,,,,,,,,,,,,,,,,,,,,,,,,,,,,,,,,,,,,,,,,,,,,,,,,,,,,,,,,,,,,,,,,,,,,,,,,,,,,,,,,,,,,,,,,,,,,,,,,,,,,,,,,,,,,,,,,,,,,,,,,,,,,,,,,,,,,
,,,,,,60be4bf0987ab1493e8a7899,62c53a971e2430229b129e64,2022-07-06_09h33.01.577,Colour_Asymmetry_Pilot,2022.1.3,Win32,57.88041905,62c50e9c1127f2cd403a315f,0,135,135,90,1,twoone,,,,,,,,,,,,,,,,,,,,,,,,,,,,,,,,,,,,,,,,,,,,,,,,,,,,,,,,,,,,,,,,,,,,,,,,,,,,,,,,,,,,,,,,,,,,,,,,,,,,,,,,,,,,,,,,,,,,,,,,,,,,,,,,,,,,,,,,,,,,,,,,,,,,,,,,,,,,,,
,,,,,,60be4bf0987ab1493e8a7899,62c53a971e2430229b129e64,2022-07-06_09h33.01.577,Colour_Asymmetry_Pilot,2022.1.3,Win32,57.88041905,62c50e9c1127f2cd403a315f,0,136,136,13,1,threefour,,,,,,,,,,,,,,,,,,,,,,,,,,,,,,,,,,,,,,,,,,,,,,,,,,,,,,,,,,,,,,,,,,,,,,,,,,,,,,,,,,,,,,,,,,,,,,,,,,,,,,,,,,,,,,,,,,,,,,,,,,,,,,,,,,,,,,,,,,,,,,,,,,,,,,,,,,,,,,
,,,,,,60be4bf0987ab1493e8a7899,62c53a971e2430229b129e64,2022-07-06_09h33.01.577,Colour_Asymmetry_Pilot,2022.1.3,Win32,57.88041905,62c50e9c1127f2cd403a315f,0,137,137,152,1,onetwo,,,,,,,,,,,,,,,,,,,,,,,,,,,,,,,,,,,,,,,,,,,,,,,,,,,,,,,,,,,,,,,,,,,,,,,,,,,,,,,,,,,,,,,,,,,,,,,,,,,,,,,,,,,,,,,,,,,,,,,,,,,,,,,,,,,,,,,,,,,,,,,,,,,,,,,,,,,,,,
,,,,,,60be4bf0987ab1493e8a7899,62c53a971e2430229b129e64,2022-07-06_09h33.01.577,Colour_Asymmetry_Pilot,2022.1.3,Win32,57.88041905,62c50e9c1127f2cd403a315f,0,138,138,108,1,threeone,,,,,,,,,,,,,,,,,,,,,,,,,,,,,,,,,,,,,,,,,,,,,,,,,,,,,,,,,,,,,,,,,,,,,,,,,,,,,,,,,,,,,,,,,,,,,,,,,,,,,,,,,,,,,,,,,,,,,,,,,,,,,,,,,,,,,,,,,,,,,,,,,,,,,,,,,,,,,,
,,,,,,60be4bf0987ab1493e8a7899,62c53a971e2430229b129e64,2022-07-06_09h33.01.577,Colour_Asymmetry_Pilot,2022.1.3,Win32,57.88041905,62c50e9c1127f2cd403a315f,0,139,139,151,1,fourthree,,,,,,,,,,,,,,,,,,,,,,,,,,,,,,,,,,,,,,,,,,,,,,,,,,,,,,,,,,,,,,,,,,,,,,,,,,,,,,,,,,,,,,,,,,,,,,,,,,,,,,,,,,,,,,,,,,,,,,,,,,,,,,,,,,,,,,,,,,,,,,,,,,,,,,,,,,,,,,
,,,,,,60be4bf0987ab1493e8a7899,62c53a971e2430229b129e64,2022-07-06_09h33.01.577,Colour_Asymmetry_Pilot,2022.1.3,Win32,57.88041905,62c50e9c1127f2cd403a315f,0,140,140,75,1,twofour,,,,,,,,,,,,,,,,,,,,,,,,,,,,,,,,,,,,,,,,,,,,,,,,,,,,,,,,,,,,,,,,,,,,,,,,,,,,,,,,,,,,,,,,,,,,,,,,,,,,,,,,,,,,,,,,,,,,,,,,,,,,,,,,,,,,,,,,,,,,,,,,,,,,,,,,,,,,,,
,,,,,,60be4bf0987ab1493e8a7899,62c53a971e2430229b129e64,2022-07-06_09h33.01.577,Colour_Asymmetry_Pilot,2022.1.3,Win32,57.88041905,62c50e9c1127f2cd403a315f,0,141,141,9,1,onethree,,,,,,,,,,,,,,,,,,,,,,,,,,,,,,,,,,,,,,,,,,,,,,,,,,,,,,,,,,,,,,,,,,,,,,,,,,,,,,,,,,,,,,,,,,,,,,,,,,,,,,,,,,,,,,,,,,,,,,,,,,,,,,,,,,,,,,,,,,,,,,,,,,,,,,,,,,,,,,
,,,,,,60be4bf0987ab1493e8a7899,62c53a971e2430229b129e64,2022-07-06_09h33.01.577,Colour_Asymmetry_Pilot,2022.1.3,Win32,57.88041905,62c50e9c1127f2cd403a315f,0,142,142,1,1,onethree,,,,,,,,,,,,,,,,,,,,,,,,,,,,,,,,,,,,,,,,,,,,,,,,,,,,,,,,,,,,,,,,,,,,,,,,,,,,,,,,,,,,,,,,,,,,,,,,,,,,,,,,,,,,,,,,,,,,,,,,,,,,,,,,,,,,,,,,,,,,,,,,,,,,,,,,,,,,,,
,,,,,,60be4bf0987ab1493e8a7899,62c53a971e2430229b129e64,2022-07-06_09h33.01.577,Colour_Asymmetry_Pilot,2022.1.3,Win32,57.88041905,62c50e9c1127f2cd403a315f,0,143,143,49,1,onethree,,,,,,,,,,,,,,,,,,,,,,,,,,,,,,,,,,,,,,,,,,,,,,,,,,,,,,,,,,,,,,,,,,,,,,,,,,,,,,,,,,,,,,,,,,,,,,,,,,,,,,,,,,,,,,,,,,,,,,,,,,,,,,,,,,,,,,,,,,,,,,,,,,,,,,,,,,,,,,
,,,,,,60be4bf0987ab1493e8a7899,62c53a971e2430229b129e64,2022-07-06_09h33.01.577,Colour_Asymmetry_Pilot,2022.1.3,Win32,57.88041905,62c50e9c1127f2cd403a315f,0,144,144,35,1,twofour,,,,,,,,,,,,,,,,,,,,,,,,,,,,,,,,,,,,,,,,,,,,,,,,,,,,,,,,,,,,,,,,,,,,,,,,,,,,,,,,,,,,,,,,,,,,,,,,,,,,,,,,,,,,,,,,,,,,,,,,,,,,,,,,,,,,,,,,,,,,,,,,,,,,,,,,,,,,,,
,,,,,,60be4bf0987ab1493e8a7899,62c53a971e2430229b129e64,2022-07-06_09h33.01.577,Colour_Asymmetry_Pilot,2022.1.3,Win32,57.88041905,62c50e9c1127f2cd403a315f,0,145,145,111,1,fourthree,,,,,,,,,,,,,,,,,,,,,,,,,,,,,,,,,,,,,,,,,,,,,,,,,,,,,,,,,,,,,,,,,,,,,,,,,,,,,,,,,,,,,,,,,,,,,,,,,,,,,,,,,,,,,,,,,,,,,,,,,,,,,,,,,,,,,,,,,,,,,,,,,,,,,,,,,,,,,,
,,,,,,60be4bf0987ab1493e8a7899,62c53a971e2430229b129e64,2022-07-06_09h33.01.577,Colour_Asymmetry_Pilot,2022.1.3,Win32,57.88041905,62c50e9c1127f2cd403a315f,0,146,146,119,1,fourthree,,,,,,,,,,,,,,,,,,,,,,,,,,,,,,,,,,,,,,,,,,,,,,,,,,,,,,,,,,,,,,,,,,,,,,,,,,,,,,,,,,,,,,,,,,,,,,,,,,,,,,,,,,,,,,,,,,,,,,,,,,,,,,,,,,,,,,,,,,,,,,,,,,,,,,,,,,,,,,
,,,,,,60be4bf0987ab1493e8a7899,62c53a971e2430229b129e64,2022-07-06_09h33.01.577,Colour_Asymmetry_Pilot,2022.1.3,Win32,57.88041905,62c50e9c1127f2cd403a315f,0,147,147,22,1,fourtwo,,,,,,,,,,,,,,,,,,,,,,,,,,,,,,,,,,,,,,,,,,,,,,,,,,,,,,,,,,,,,,,,,,,,,,,,,,,,,,,,,,,,,,,,,,,,,,,,,,,,,,,,,,,,,,,,,,,,,,,,,,,,,,,,,,,,,,,,,,,,,,,,,,,,,,,,,,,,,,
,,,,,,60be4bf0987ab1493e8a7899,62c53a971e2430229b129e64,2022-07-06_09h33.01.577,Colour_Asymmetry_Pilot,2022.1.3,Win32,57.88041905,62c50e9c1127f2cd403a315f,0,148,148,140,1,threeone,,,,,,,,,,,,,,,,,,,,,,,,,,,,,,,,,,,,,,,,,,,,,,,,,,,,,,,,,,,,,,,,,,,,,,,,,,,,,,,,,,,,,,,,,,,,,,,,,,,,,,,,,,,,,,,,,,,,,,,,,,,,,,,,,,,,,,,,,,,,,,,,,,,,,,,,,,,,,,
,,,,,,60be4bf0987ab1493e8a7899,62c53a971e2430229b129e64,2022-07-06_09h33.01.577,Colour_Asymmetry_Pilot,2022.1.3,Win32,57.88041905,62c50e9c1127f2cd403a315f,0,149,149,61,1,threefour,,,,,,,,,,,,,,,,,,,,,,,,,,,,,,,,,,,,,,,,,,,,,,,,,,,,,,,,,,,,,,,,,,,,,,,,,,,,,,,,,,,,,,,,,,,,,,,,,,,,,,,,,,,,,,,,,,,,,,,,,,,,,,,,,,,,,,,,,,,,,,,,,,,,,,,,,,,,,,
,,,,,,60be4bf0987ab1493e8a7899,62c53a971e2430229b129e64,2022-07-06_09h33.01.577,Colour_Asymmetry_Pilot,2022.1.3,Win32,57.88041905,62c50e9c1127f2cd403a315f,0,150,150,50,1,twoone,,,,,,,,,,,,,,,,,,,,,,,,,,,,,,,,,,,,,,,,,,,,,,,,,,,,,,,,,,,,,,,,,,,,,,,,,,,,,,,,,,,,,,,,,,,,,,,,,,,,,,,,,,,,,,,,,,,,,,,,,,,,,,,,,,,,,,,,,,,,,,,,,,,,,,,,,,,,,,
,,,,,,60be4bf0987ab1493e8a7899,62c53a971e2430229b129e64,2022-07-06_09h33.01.577,Colour_Asymmetry_Pilot,2022.1.3,Win32,57.88041905,62c50e9c1127f2cd403a315f,0,151,151,141,1,threefour,,,,,,,,,,,,,,,,,,,,,,,,,,,,,,,,,,,,,,,,,,,,,,,,,,,,,,,,,,,,,,,,,,,,,,,,,,,,,,,,,,,,,,,,,,,,,,,,,,,,,,,,,,,,,,,,,,,,,,,,,,,,,,,,,,,,,,,,,,,,,,,,,,,,,,,,,,,,,,
,,,,,,60be4bf0987ab1493e8a7899,62c53a971e2430229b129e64,2022-07-06_09h33.01.577,Colour_Asymmetry_Pilot,2022.1.3,Win32,57.88041905,62c50e9c1127f2cd403a315f,0,152,152,64,1,onetwo,,,,,,,,,,,,,,,,,,,,,,,,,,,,,,,,,,,,,,,,,,,,,,,,,,,,,,,,,,,,,,,,,,,,,,,,,,,,,,,,,,,,,,,,,,,,,,,,,,,,,,,,,,,,,,,,,,,,,,,,,,,,,,,,,,,,,,,,,,,,,,,,,,,,,,,,,,,,,,
,,,,,,60be4bf0987ab1493e8a7899,62c53a971e2430229b129e64,2022-07-06_09h33.01.577,Colour_Asymmetry_Pilot,2022.1.3,Win32,57.88041905,62c50e9c1127f2cd403a315f,0,153,153,56,1,onetwo,,,,,,,,,,,,,,,,,,,,,,,,,,,,,,,,,,,,,,,,,,,,,,,,,,,,,,,,,,,,,,,,,,,,,,,,,,,,,,,,,,,,,,,,,,,,,,,,,,,,,,,,,,,,,,,,,,,,,,,,,,,,,,,,,,,,,,,,,,,,,,,,,,,,,,,,,,,,,,
,,,,,,60be4bf0987ab1493e8a7899,62c53a971e2430229b129e64,2022-07-06_09h33.01.577,Colour_Asymmetry_Pilot,2022.1.3,Win32,57.88041905,62c50e9c1127f2cd403a315f,0,154,154,100,1,threeone,,,,,,,,,,,,,,,,,,,,,,,,,,,,,,,,,,,,,,,,,,,,,,,,,,,,,,,,,,,,,,,,,,,,,,,,,,,,,,,,,,,,,,,,,,,,,,,,,,,,,,,,,,,,,,,,,,,,,,,,,,,,,,,,,,,,,,,,,,,,,,,,,,,,,,,,,,,,,,
,,,,,,60be4bf0987ab1493e8a7899,62c53a971e2430229b129e64,2022-07-06_09h33.01.577,Colour_Asymmetry_Pilot,2022.1.3,Win32,57.88041905,62c50e9c1127f2cd403a315f,0,155,155,114,1,twoone,,,,,,,,,,,,,,,,,,,,,,,,,,,,,,,,,,,,,,,,,,,,,,,,,,,,,,,,,,,,,,,,,,,,,,,,,,,,,,,,,,,,,,,,,,,,,,,,,,,,,,,,,,,,,,,,,,,,,,,,,,,,,,,,,,,,,,,,,,,,,,,,,,,,,,,,,,,,,,
,,,,,,60be4bf0987ab1493e8a7899,62c53a971e2430229b129e64,2022-07-06_09h33.01.577,Colour_Asymmetry_Pilot,2022.1.3,Win32,57.88041905,62c50e9c1127f2cd403a315f,0,156,156,107,1,twofour,,,,,,,,,,,,,,,,,,,,,,,,,,,,,,,,,,,,,,,,,,,,,,,,,,,,,,,,,,,,,,,,,,,,,,,,,,,,,,,,,,,,,,,,,,,,,,,,,,,,,,,,,,,,,,,,,,,,,,,,,,,,,,,,,,,,,,,,,,,,,,,,,,,,,,,,,,,,,,
,,,,,,60be4bf0987ab1493e8a7899,62c53a971e2430229b129e64,2022-07-06_09h33.01.577,Colour_Asymmetry_Pilot,2022.1.3,Win32,57.88041905,62c50e9c1127f2cd403a315f,0,157,157,146,1,twoone,,,,,,,,,,,,,,,,,,,,,,,,,,,,,,,,,,,,,,,,,,,,,,,,,,,,,,,,,,,,,,,,,,,,,,,,,,,,,,,,,,,,,,,,,,,,,,,,,,,,,,,,,,,,,,,,,,,,,,,,,,,,,,,,,,,,,,,,,,,,,,,,,,,,,,,,,,,,,,
,,,,,,60be4bf0987ab1493e8a7899,62c53a971e2430229b129e64,2022-07-06_09h33.01.577,Colour_Asymmetry_Pilot,2022.1.3,Win32,57.88041905,62c50e9c1127f2cd403a315f,0,158,158,95,1,fourthree,,,,,,,,,,,,,,,,,,,,,,,,,,,,,,,,,,,,,,,,,,,,,,,,,,,,,,,,,,,,,,,,,,,,,,,,,,,,,,,,,,,,,,,,,,,,,,,,,,,,,,,,,,,,,,,,,,,,,,,,,,,,,,,,,,,,,,,,,,,,,,,,,,,,,,,,,,,,,,
,,,,,,60be4bf0987ab1493e8a7899,62c53a971e2430229b129e64,2022-07-06_09h33.01.577,Colour_Asymmetry_Pilot,2022.1.3,Win32,57.88041905,62c50e9c1127f2cd403a315f,0,159,159,112,1,onetwo,,,,,,,,,,,,,,,,,,,,,,,,,,,,,,,,,,,,,,,,,,,,,,,,,,,,,,,,,,,,,,,,,,,,,,,,,,,,,,,,,,,,,,,,,,,,,,,,,,,,,,,,,,,,,,,,,,,,,,,,,,,,,,,,,,,,,,,,,,,,,,,,,,,,,,,,,,,,,,
,,,,,,60be4bf0987ab1493e8a7899,62c53a971e2430229b129e64,2022-07-06_09h33.01.577,Colour_Asymmetry_Pilot,2022.1.3,Win32,57.88041905,62c50e9c1127f2cd403a315f,0,160,160,131,1,twofour,,,,,,,,,,,,,,,,,,,,,,,,,,,,,,,,,,,,,,,,,,,,,,,,,,,,,,,,,,,,,,,,,,,,,,,,,,,,,,,,,,,,,,,,,,,,,,,,,,,,,,,,,,,,,,,,,,,,,,,,,,,,,,,,,,,,,,,,,,,,,,,,,,,,,,,,,,,,,,
,,,,,,60be4bf0987ab1493e8a7899,62c53a971e2430229b129e64,2022-07-06_09h33.01.577,Colour_Asymmetry_Pilot,2022.1.3,Win32,57.88041905,62c50e9c1127f2cd403a315f,0,161,161,150,1,fourtwo,,,,,,,,,,,,,,,,,,,,,,,,,,,,,,,,,,,,,,,,,,,,,,,,,,,,,,,,,,,,,,,,,,,,,,,,,,,,,,,,,,,,,,,,,,,,,,,,,,,,,,,,,,,,,,,,,,,,,,,,,,,,,,,,,,,,,,,,,,,,,,,,,,,,,,,,,,,,,,
,,,,,,60be4bf0987ab1493e8a7899,62c53a971e2430229b129e64,2022-07-06_09h33.01.577,Colour_Asymmetry_Pilot,2022.1.3,Win32,57.88041905,62c50e9c1127f2cd403a315f,,,,,,,space,18.6037,space,4.8116,space,23.1341,space,8.8848,space,0.1376,space,2.7663,"[0.3881999999999999,-0.23939999999999995,-0.05040000000000011]",fourtwo,"[-0.050999999999999934,-0.6706000000000001,-0.804]",-2,6.9724,-82.66662598,-55.83337402,1,0,0,response5disk_5,17.33337402,4.166656494,1,0,0,rectangle_8,60,93.5,1,0,0,response1disk_7,7,4,20.66668701,-2.5,1,0,0,rectangle_4,0,0,0,0,1,,,,,,,,,,,,,,,,,,,,,,,,,,,,,,,,,,,,,,,,,,,,,,,,,,,,,,,,,,,,,,,,,,,,,,,,,,,,,,,,,,,,,,,,,,,,,,,,,,,,,,,,,,,,,,
,,,,,,60be4bf0987ab1493e8a7899,62c53a971e2430229b129e64,2022-07-06_09h33.01.577,Colour_Asymmetry_Pilot,2022.1.3,Win32,57.88041905,62c50e9c1127f2cd403a315f,,,,,,,,,,,,,,,,,,,"[0.11359999999999992,0.6312,0.5213999999999999]",onetwo,"[-0.6942,-0.7648,-0.12959999999999994]",2,2.0342,106.666687,-47.16668701,1,0,0,response3disk_5,8,10.83331299,1,0,0,rectangle_8,8,10.83331299,1,0,0,,,4,8,10.83331299,1,0,0,,1,0,1,0,1,,,,,,,,,,,,,,,,,,,,,,,,,,,,,,,,,,,,,,,,,,,,,,,,,,,,,,,,,,,,,,,,,,,,,,,,,,,,,,,,,,,,,,,,,,,,,,,,,,,,,,,,,,,,,,
,,,,,,60be4bf0987ab1493e8a7899,62c53a971e2430229b129e64,2022-07-06_09h33.01.577,Colour_Asymmetry_Pilot,2022.1.3,Win32,57.88041905,62c50e9c1127f2cd403a315f,,,,,,,,,,,,,,,,,,,"[-0.07459999999999989,0.12139999999999995,-0.9922]",threeone,"[-0.20799999999999996,-0.655,-0.01980000000000004]",-3,1.6333,-71.33331299,39.5,1,0,0,response7disk_5,-14,8.166656494,1,0,0,rectangle_8,36,98.83331299,1,0,0,response1disk_7,7,4,-2.666625977,9.5,1,0,0,rectangle_4,2,0,2,0,1,,,,,,,,,,,,,,,,,,,,,,,,,,,,,,,,,,,,,,,,,,,,,,,,,,,,,,,,,,,,,,,,,,,,,,,,,,,,,,,,,,,,,,,,,,,,,,,,,,,,,,,,,,,,,,
,,,,,,60be4bf0987ab1493e8a7899,62c53a971e2430229b129e64,2022-07-06_09h33.01.577,Colour_Asymmetry_Pilot,2022.1.3,Win32,57.88041905,62c50e9c1127f2cd403a315f,,,,,,,,,,,,,,,,,,,"[-0.4902000000000001,0.2704,-0.45899999999999996]",onethree,"[-0.6706000000000001,-0.6157999999999999,-0.6786]",3,1.6166,113.333374,54.16665649,1,0,0,response1disk_5,2.666687012,-2.5,1,0,0,rectangle_8,2.666687012,-2.5,1,0,0,,,4,2.666687012,-2.5,1,0,0,,3,0,3,0,1,,,,,,,,,,,,,,,,,,,,,,,,,,,,,,,,,,,,,,,,,,,,,,,,,,,,,,,,,,,,,,,,,,,,,,,,,,,,,,,,,,,,,,,,,,,,,,,,,,,,,,,,,,,,,,
,,,,,,60be4bf0987ab1493e8a7899,62c53a971e2430229b129e64,2022-07-06_09h33.01.577,Colour_Asymmetry_Pilot,2022.1.3,Win32,57.88041905,62c50e9c1127f2cd403a315f,,,,,,,,,,,,,,,,,,,"[0.37240000000000006,-0.050999999999999934,-0.5216]",fourtwo,"[-0.5922000000000001,-0.7492000000000001,-0.5296000000000001]",-4,1.6003,-31.33331299,62.16665649,1,0,0,response7disk_5,26.66668701,-1.166687012,1,0,0,rectangle_8,26.66668701,-1.166687012,1,0,0,,,4,26.66668701,-1.166687012,1,0,0,,4,0,4,0,1,,,,,,,,,,,,,,,,,,,,,,,,,,,,,,,,,,,,,,,,,,,,,,,,,,,,,,,,,,,,,,,,,,,,,,,,,,,,,,,,,,,,,,,,,,,,,,,,,,,,,,,,,,,,,,
,,,,,,60be4bf0987ab1493e8a7899,62c53a971e2430229b129e64,2022-07-06_09h33.01.577,Colour_Asymmetry_Pilot,2022.1.3,Win32,57.88041905,62c50e9c1127f2cd403a315f,,,,,,,,,,,,,,,,,,,"[-0.01980000000000004,-0.5138,-0.38039999999999996]",twofour,"[0.18419999999999992,-0.4276,-0.404]",3,1.167,90,64.83331299,1,0,0,response1disk_5,-6.666625977,3.5,1,0,0,rectangle_8,-6.666625977,3.5,1,0,0,,,4,-6.666625977,3.5,1,0,0,,5,0,5,0,1,,,,,,,,,,,,,,,,,,,,,,,,,,,,,,,,,,,,,,,,,,,,,,,,,,,,,,,,,,,,,,,,,,,,,,,,,,,,,,,,,,,,,,,,,,,,,,,,,,,,,,,,,,,,,,
,,,,,,60be4bf0987ab1493e8a7899,62c53a971e2430229b129e64,2022-07-06_09h33.01.577,Colour_Asymmetry_Pilot,2022.1.3,Win32,57.88041905,62c50e9c1127f2cd403a315f,,,,,,,,,,,,,,,,,,,"[0.7802,-0.23140000000000005,-0.20799999999999996]",twoone,"[-0.07459999999999989,0.12139999999999995,-0.9922]",-4,3.3835,-25.33331299,81.5,1,0,0,response7disk_5,12,8.166656494,1,0,0,rectangle_8,12,8.166656494,1,0,0,,,4,12,8.166656494,1,0,0,,6,0,6,0,1,,,,,,,,,,,,,,,,,,,,,,,,,,,,,,,,,,,,,,,,,,,,,,,,,,,,,,,,,,,,,,,,,,,,,,,,,,,,,,,,,,,,,,,,,,,,,,,,,,,,,,,,,,,,,,
,,,,,,60be4bf0987ab1493e8a7899,62c53a971e2430229b129e64,2022-07-06_09h33.01.577,Colour_Asymmetry_Pilot,2022.1.3,Win32,57.88041905,62c50e9c1127f2cd403a315f,,,,,,,,,,,,,,,,,,,,fourthree,,2,0.6837,,,,,,,,,,,,,,,,,,,,,,,,,,,,,,,,space,6.1189,"[0.23120000000000007,-0.7726,-0.34120000000000006]","[0.9372,0.20779999999999998,0.2704]",111.333374,-56.5,1,0,0,response3disk,3.333374023,-11.16668701,1,0,0,rectangle,3.333374023,-11.16668701,1,0,0,,3,0.0021,0,3.333374023,-11.16668701,1,0,0,0,0,0,56,1,56,first,,,,,,,,,,,,,,,,,,,,,,,,,,,,,,,,,,,,,,,,,,,,,,,,,,,,,,,,,,,,,,,,,,,,,,,,,
,,,,,,60be4bf0987ab1493e8a7899,62c53a971e2430229b129e64,2022-07-06_09h33.01.577,Colour_Asymmetry_Pilot,2022.1.3,Win32,57.88041905,62c50e9c1127f2cd403a315f,,,,,,,,,,,,,,,,,,,,twoone,,2,1.2163,,,,,,,,,,,,,,,,,,,,,,,,,,,,,,,,,,"[-0.9688,-0.4902000000000001,-0.12159999999999993]","[0.11359999999999992,0.6312,0.5213999999999999]",96.66668701,-40.5,1,0,0,response3disk,10,2.166656494,1,0,0,rectangle,10,2.166656494,1,0,0,,2,0.001,0,10,2.166656494,1,0,0,0,1,1,150,1,69,second,,,,,,,,,,,,,,,,,,,,,,,,,,,,,,,,,,,,,,,,,,,,,,,,,,,,,,,,,,,,,,,,,,,,,,,,,
,,,,,,60be4bf0987ab1493e8a7899,62c53a971e2430229b129e64,2022-07-06_09h33.01.577,Colour_Asymmetry_Pilot,2022.1.3,Win32,57.88041905,62c50e9c1127f2cd403a315f,,,,,,,,,,,,,,,,,,,,twoone,,-3,1.2674,,,,,,,,,,,,,,,,,,,,,,,,,,,,,,,,,,"[-0.5922000000000001,-0.7492000000000001,-0.5296000000000001]","[0.9686000000000001,0.3802000000000001,0.19999999999999996]",-76,49.5,1,0,0,response7disk,2,-0.5,1,0,0,rectangle,2,-0.5,1,0,0,,2,1E-04,0,2,-0.5,1,0,0,0,2,2,94,1,13,second,,,,,,,,,,,,,,,,,,,,,,,,,,,,,,,,,,,,,,,,,,,,,,,,,,,,,,,,,,,,,,,,,,,,,,,,,
,,,,,,60be4bf0987ab1493e8a7899,62c53a971e2430229b129e64,2022-07-06_09h33.01.577,Colour_Asymmetry_Pilot,2022.1.3,Win32,57.88041905,62c50e9c1127f2cd403a315f,,,,,,,,,,,,,,,,,,,,onetwo,,4,1.9834,,,,,,,,,,,,,,,,,,,,,,,,,,,,,,,,,,"[-0.4982,-0.2942,-0.0354000000000001]","[-0.6942,-0.7648,-0.12959999999999994]",50.66668701,83.5,1,0,0,response1disk,7.333374023,-5.166687012,1,0,0,rectangle,7.333374023,-5.166687012,1,0,0,,3,0.0007,0,7.333374023,-5.166687012,1,0,0,0,3,3,95,1,14,second,,,,,,,,,,,,,,,,,,,,,,,,,,,,,,,,,,,,,,,,,,,,,,,,,,,,,,,,,,,,,,,,,,,,,,,,,
,,,,,,60be4bf0987ab1493e8a7899,62c53a971e2430229b129e64,2022-07-06_09h33.01.577,Colour_Asymmetry_Pilot,2022.1.3,Win32,57.88041905,62c50e9c1127f2cd403a315f,,,,,,,,,,,,,,,,,,,,onethree,,1,4.3328,,,,,,,,,,,,,,,,,,,,,,,,,,,,,,,,,,"[-0.6706000000000001,-0.6157999999999999,-0.6786]","[0.23920000000000008,0.2704,0.16060000000000008]",62.66668701,-85.16668701,1,0,0,response3disk,10,-2.5,1,0,0,rectangle,10,-2.5,1,0,0,,2,0.0008,0,10,-2.5,1,0,0,0,4,4,158,1,77,second,,,,,,,,,,,,,,,,,,,,,,,,,,,,,,,,,,,,,,,,,,,,,,,,,,,,,,,,,,,,,,,,,,,,,,,,,
,,,,,,60be4bf0987ab1493e8a7899,62c53a971e2430229b129e64,2022-07-06_09h33.01.577,Colour_Asymmetry_Pilot,2022.1.3,Win32,57.88041905,62c50e9c1127f2cd403a315f,,,,,,,,,,,,,,,,,,,,fourtwo,,-4,0.9501,,,,,,,,,,,,,,,,,,,,,,,,,,,,,,,,,,"[-0.8982,-0.37259999999999993,0.2784]","[0.37240000000000006,-0.050999999999999934,-0.5216]",-43.33331299,101.5,1,0,0,response7disk,6.666687012,-15.16668701,1,0,0,rectangle,6.666687012,-15.16668701,1,0,0,,3,0.0009,0,6.666687012,-15.16668701,1,0,0,0,5,5,5,1,5,first,,,,,,,,,,,,,,,,,,,,,,,,,,,,,,,,,,,,,,,,,,,,,,,,,,,,,,,,,,,,,,,,,,,,,,,,,
,,,,,,60be4bf0987ab1493e8a7899,62c53a971e2430229b129e64,2022-07-06_09h33.01.577,Colour_Asymmetry_Pilot,2022.1.3,Win32,57.88041905,62c50e9c1127f2cd403a315f,,,,,,,,,,,,,,,,,,,,onethree,,-4,0.9166,,,,,,,,,,,,,,,,,,,,,,,,,,,,,,,,,,"[-0.17659999999999998,0.3253999999999999,0.19999999999999996]","[0.5449999999999999,-0.31000000000000005,-0.0354000000000001]",-46,102.833313,1,0,0,response7disk,33.33337402,-11.83337402,1,0,0,rectangle,33.33337402,-11.83337402,1,0,0,,1,0.001,0,33.33337402,-11.83337402,1,0,0,0,6,6,110,1,29,second,,,,,,,,,,,,,,,,,,,,,,,,,,,,,,,,,,,,,,,,,,,,,,,,,,,,,,,,,,,,,,,,,,,,,,,,,
,,,,,,60be4bf0987ab1493e8a7899,62c53a971e2430229b129e64,2022-07-06_09h33.01.577,Colour_Asymmetry_Pilot,2022.1.3,Win32,57.88041905,62c50e9c1127f2cd403a315f,,,,,,,,,,,,,,,,,,,,fourtwo,,-4,0.7668,,,,,,,,,,,,,,,,,,,,,,,,,,,,,,,,,,"[-0.17659999999999998,0.3253999999999999,0.19999999999999996]","[0.9686000000000001,0.3802000000000001,0.19999999999999996]",-44,80.83331299,1,0,0,response7disk,-4,4.833312988,1,0,0,rectangle,-4,4.833312988,1,0,0,,2,0.0007,0,-4,4.833312988,1,0,0,0,7,7,61,1,61,first,,,,,,,,,,,,,,,,,,,,,,,,,,,,,,,,,,,,,,,,,,,,,,,,,,,,,,,,,,,,,,,,,,,,,,,,,
,,,,,,60be4bf0987ab1493e8a7899,62c53a971e2430229b129e64,2022-07-06_09h33.01.577,Colour_Asymmetry_Pilot,2022.1.3,Win32,57.88041905,62c50e9c1127f2cd403a315f,,,,,,,,,,,,,,,,,,,,twofour,,-3,0.783,,,,,,,,,,,,,,,,,,,,,,,,,,,,,,,,,,"[0.3802000000000001,0.19199999999999995,-0.6394]","[0.9686000000000001,0.3802000000000001,0.19999999999999996]",-56.66662598,26.16665649,1,0,0,response7disk,2.666687012,1.5,1,0,0,rectangle,2.666687012,1.5,1,0,0,,3,0.0008,0,2.666687012,1.5,1,0,0,0,8,8,100,1,19,second,,,,,,,,,,,,,,,,,,,,,,,,,,,,,,,,,,,,,,,,,,,,,,,,,,,,,,,,,,,,,,,,,,,,,,,,,
,,,,,,60be4bf0987ab1493e8a7899,62c53a971e2430229b129e64,2022-07-06_09h33.01.577,Colour_Asymmetry_Pilot,2022.1.3,Win32,57.88041905,62c50e9c1127f2cd403a315f,,,,,,,,,,,,,,,,,,,,twoone,,1,1.4006,,,,,,,,,,,,,,,,,,,,,,,,,,,,,,,,,,"[0.7018,0.7802,-0.16079999999999994]","[0.7018,0.7176,0.6155999999999999]",31.33337402,-79.16668701,1,0,0,response3disk,-1.333312988,-13.83337402,1,0,0,rectangle,-1.333312988,-13.83337402,1,0,0,,1,0.0008,0,-1.333312988,-13.83337402,1,0,0,0,9,9,25,1,25,first,,,,,,,,,,,,,,,,,,,,,,,,,,,,,,,,,,,,,,,,,,,,,,,,,,,,,,,,,,,,,,,,,,,,,,,,,
,,,,,,60be4bf0987ab1493e8a7899,62c53a971e2430229b129e64,2022-07-06_09h33.01.577,Colour_Asymmetry_Pilot,2022.1.3,Win32,57.88041905,62c50e9c1127f2cd403a315f,,,,,,,,,,,,,,,,,,,,fourtwo,,1,0.7506,,,,,,,,,,,,,,,,,,,,,,,,,,,,,,,,,,"[-0.6942,-0.7648,-0.12959999999999994]","[-0.5688,-0.08239999999999992,-0.1844]",49.33337402,-82.5,1,0,0,response3disk,14.66668701,-9.833343506,1,0,0,rectangle,14.66668701,-9.833343506,1,0,0,,1,0.0003,0,14.66668701,-9.833343506,1,0,0,0,10,10,57,1,57,first,,,,,,,,,,,,,,,,,,,,,,,,,,,,,,,,,,,,,,,,,,,,,,,,,,,,,,,,,,,,,,,,,,,,,,,,,
,,,,,,60be4bf0987ab1493e8a7899,62c53a971e2430229b129e64,2022-07-06_09h33.01.577,Colour_Asymmetry_Pilot,2022.1.3,Win32,57.88041905,62c50e9c1127f2cd403a315f,,,,,,,,,,,,,,,,,,,,onetwo,,-4,0.584,,,,,,,,,,,,,,,,,,,,,,,,,,,,,,,,,,"[0.37240000000000006,-0.050999999999999934,-0.5216]","[-0.8982,-0.37259999999999993,0.2784]",-36,88.16665649,1,0,0,response7disk,8,6.166656494,1,0,0,rectangle,8,6.166656494,1,0,0,,1,1E-04,0,8,6.166656494,1,0,0,0,11,11,86,1,5,second,,,,,,,,,,,,,,,,,,,,,,,,,,,,,,,,,,,,,,,,,,,,,,,,,,,,,,,,,,,,,,,,,,,,,,,,,
,,,,,,60be4bf0987ab1493e8a7899,62c53a971e2430229b129e64,2022-07-06_09h33.01.577,Colour_Asymmetry_Pilot,2022.1.3,Win32,57.88041905,62c50e9c1127f2cd403a315f,,,,,,,,,,,,,,,,,,,,onethree,,1,0.6166,,,,,,,,,,,,,,,,,,,,,,,,,,,,,,,,,,"[0.22340000000000004,-0.9296,-0.7884]","[0.34099999999999997,0.12939999999999996,-0.9766]",49.33337402,-85.16668701,1,0,0,response3disk,6.666687012,-9.166687012,1,0,0,rectangle,6.666687012,-9.166687012,1,0,0,,1,1E-04,0,6.666687012,-9.166687012,1,0,0,0,12,12,53,1,53,first,,,,,,,,,,,,,,,,,,,,,,,,,,,,,,,,,,,,,,,,,,,,,,,,,,,,,,,,,,,,,,,,,,,,,,,,,
,,,,,,60be4bf0987ab1493e8a7899,62c53a971e2430229b129e64,2022-07-06_09h33.01.577,Colour_Asymmetry_Pilot,2022.1.3,Win32,57.88041905,62c50e9c1127f2cd403a315f,,,,,,,,,,,,,,,,,,,,onethree,,3,0.5172,,,,,,,,,,,,,,,,,,,,,,,,,,,,,,,,,,"[1,0.12939999999999996,-1]","[0.7018,0.7802,-0.16079999999999994]",104,34.16665649,1,0,0,response1disk,16.66668701,4.833312988,1,0,0,rectangle,16.66668701,4.833312988,1,0,0,,2,0.0009,0,16.66668701,4.833312988,1,0,0,0,13,13,80,1,80,first,,,,,,,,,,,,,,,,,,,,,,,,,,,,,,,,,,,,,,,,,,,,,,,,,,,,,,,,,,,,,,,,,,,,,,,,,
,,,,,,60be4bf0987ab1493e8a7899,62c53a971e2430229b129e64,2022-07-06_09h33.01.577,Colour_Asymmetry_Pilot,2022.1.3,Win32,57.88041905,62c50e9c1127f2cd403a315f,,,,,,,,,,,,,,,,,,,,threefour,,-4,0.4338,,,,,,,,,,,,,,,,,,,,,,,,,,,,,,,,,,"[0.3881999999999999,-0.23939999999999995,-0.05040000000000011]","[-0.9766,-0.6472,0.07440000000000002]",-45.33331299,93.5,1,0,0,response7disk,16.66668701,1.5,1,0,0,rectangle,16.66668701,1.5,1,0,0,,1,0.0009,0,16.66668701,1.5,1,0,0,0,14,14,9,1,9,first,,,,,,,,,,,,,,,,,,,,,,,,,,,,,,,,,,,,,,,,,,,,,,,,,,,,,,,,,,,,,,,,,,,,,,,,,
