trials.thisRepN,trials.thisTrialN,trials.thisN,trials.thisIndex,trials.ran,Colourcodes,participant,session,date,expName,psychopyVersion,OS,frameRate,study_id,trials_4.thisRepN,trials_4.thisTrialN,trials_4.thisN,trials_4.thisIndex,trials_4.ran,StimulusPos,key_resp.keys,key_resp.rt,key_resp_2.keys,key_resp_2.rt,key_resp_15.keys,key_resp_15.rt,key_resp_17.keys,key_resp_17.rt,key_resp_9.keys,key_resp_9.rt,key_resp_10.keys,key_resp_10.rt,Circle1_col,Ecc,Circle2_col,similarity,response_time,mouse_5.x,mouse_5.y,mouse_5.leftButton,mouse_5.midButton,mouse_5.rightButton,mouse_5.clicked_name,mouse_10.x,mouse_10.y,mouse_10.leftButton,mouse_10.midButton,mouse_10.rightButton,mouse_10.clicked_name,mouse_7.x,mouse_7.y,mouse_7.leftButton,mouse_7.midButton,mouse_7.rightButton,catchnumberprac,mouse_6.x,mouse_6.y,mouse_6.leftButton,mouse_6.midButton,mouse_6.rightButton,duringprac.thisRepN,duringprac.thisTrialN,duringprac.thisN,duringprac.thisIndex,duringprac.ran,mouse_7.clicked_name,catchprac,mouse_6.clicked_name,key_resp_22.keys,key_resp_22.rt,Circle1_colour,Circle2_colour,mouse.x,mouse.y,mouse.leftButton,mouse.midButton,mouse.rightButton,mouse.clicked_name,mouse_2.x,mouse_2.y,mouse_2.leftButton,mouse_2.midButton,mouse_2.rightButton,mouse_2.clicked_name,mouse_3.x,mouse_3.y,mouse_3.leftButton,mouse_3.midButton,mouse_3.rightButton,catchresponse,catchnumber,response_time_catch,Catch,mouse_11.x,mouse_11.y,mouse_11.leftButton,mouse_11.midButton,mouse_11.rightButton,trials_2.thisRepN,trials_2.thisTrialN,trials_2.thisN,trials_2.thisIndex,trials_2.ran,Colourpair,Temporder,mouse_3.clicked_name,mouse_11.clicked_name,trials_3.thisRepN,trials_3.thisTrialN,trials_3.thisN,trials_3.thisIndex,trials_3.ran,key_resp_instr_Ishi.keys,key_resp_instr_Ishi.rt,Ishi_trial_keyresp.keys,Ishi_textbox.text,Ishi_mouse.x,Ishi_mouse.y,Ishi_mouse.leftButton,Ishi_mouse.midButton,Ishi_mouse.rightButton,Ishi_mouse.clicked_name,Ishi_loop.thisRepN,Ishi_loop.thisTrialN,Ishi_loop.thisN,Ishi_loop.thisIndex,Ishi_loop.ran,imageaddress,textbox.text,mouse_4.x,mouse_4.y,mouse_4.leftButton,mouse_4.midButton,mouse_4.rightButton,mouse_4.clicked_name,textbox_2.text,mouse_8.x,mouse_8.y,mouse_8.leftButton,mouse_8.midButton,mouse_8.rightButton,mouse_8.clicked_name,textbox_3.text,mouse_9.x,mouse_9.y,mouse_9.leftButton,mouse_9.midButton,mouse_9.rightButton,mouse_9.clicked_name,textbox_4.text,mouse_12.x,mouse_12.y,mouse_12.leftButton,mouse_12.midButton,mouse_12.rightButton,mouse_12.clicked_name,textbox_5.text,mouse_13.x,mouse_13.y,mouse_13.leftButton,mouse_13.midButton,mouse_13.rightButton,mouse_13.clicked_name,textbox_6.text,mouse_14.x,mouse_14.y,mouse_14.leftButton,mouse_14.midButton,mouse_14.rightButton,mouse_14.clicked_name,textbox_7.text,mouse_15.x,mouse_15.y,mouse_15.leftButton,mouse_15.midButton,mouse_15.rightButton,mouse_15.clicked_name
0,0,0,55,1,,5d34ab54c374970001e8b76b,62c539134fe15b429b53c7bc,2022-07-06_09h26.28.596,Colour_Asymmetry_Pilot,2022.1.3,Win32,143.5132032,62c50e9c1127f2cd403a315f,,,,,,,,,,,,,,,,,,,,,,,,,,,,,,,,,,,,,,,,,,,,,,,,,,,,,,,,,,,,,,,,,,,,,,,,,,,,,,,,,,,,,,,,,,,,,,,,,,,,,,,,,,,,,,,,,,,,,,,,,,,,,,,,,,,,,,,,,,,,,,,,,,,,,,,,,,,,,,,,,,,
0,1,1,5,1,,5d34ab54c374970001e8b76b,62c539134fe15b429b53c7bc,2022-07-06_09h26.28.596,Colour_Asymmetry_Pilot,2022.1.3,Win32,143.5132032,62c50e9c1127f2cd403a315f,,,,,,,,,,,,,,,,,,,,,,,,,,,,,,,,,,,,,,,,,,,,,,,,,,,,,,,,,,,,,,,,,,,,,,,,,,,,,,,,,,,,,,,,,,,,,,,,,,,,,,,,,,,,,,,,,,,,,,,,,,,,,,,,,,,,,,,,,,,,,,,,,,,,,,,,,,,,,,,,,,,
0,2,2,60,1,,5d34ab54c374970001e8b76b,62c539134fe15b429b53c7bc,2022-07-06_09h26.28.596,Colour_Asymmetry_Pilot,2022.1.3,Win32,143.5132032,62c50e9c1127f2cd403a315f,,,,,,,,,,,,,,,,,,,,,,,,,,,,,,,,,,,,,,,,,,,,,,,,,,,,,,,,,,,,,,,,,,,,,,,,,,,,,,,,,,,,,,,,,,,,,,,,,,,,,,,,,,,,,,,,,,,,,,,,,,,,,,,,,,,,,,,,,,,,,,,,,,,,,,,,,,,,,,,,,,,
0,3,3,84,1,,5d34ab54c374970001e8b76b,62c539134fe15b429b53c7bc,2022-07-06_09h26.28.596,Colour_Asymmetry_Pilot,2022.1.3,Win32,143.5132032,62c50e9c1127f2cd403a315f,,,,,,,,,,,,,,,,,,,,,,,,,,,,,,,,,,,,,,,,,,,,,,,,,,,,,,,,,,,,,,,,,,,,,,,,,,,,,,,,,,,,,,,,,,,,,,,,,,,,,,,,,,,,,,,,,,,,,,,,,,,,,,,,,,,,,,,,,,,,,,,,,,,,,,,,,,,,,,,,,,,
0,4,4,25,1,,5d34ab54c374970001e8b76b,62c539134fe15b429b53c7bc,2022-07-06_09h26.28.596,Colour_Asymmetry_Pilot,2022.1.3,Win32,143.5132032,62c50e9c1127f2cd403a315f,,,,,,,,,,,,,,,,,,,,,,,,,,,,,,,,,,,,,,,,,,,,,,,,,,,,,,,,,,,,,,,,,,,,,,,,,,,,,,,,,,,,,,,,,,,,,,,,,,,,,,,,,,,,,,,,,,,,,,,,,,,,,,,,,,,,,,,,,,,,,,,,,,,,,,,,,,,,,,,,,,,
0,5,5,6,1,,5d34ab54c374970001e8b76b,62c539134fe15b429b53c7bc,2022-07-06_09h26.28.596,Colour_Asymmetry_Pilot,2022.1.3,Win32,143.5132032,62c50e9c1127f2cd403a315f,,,,,,,,,,,,,,,,,,,,,,,,,,,,,,,,,,,,,,,,,,,,,,,,,,,,,,,,,,,,,,,,,,,,,,,,,,,,,,,,,,,,,,,,,,,,,,,,,,,,,,,,,,,,,,,,,,,,,,,,,,,,,,,,,,,,,,,,,,,,,,,,,,,,,,,,,,,,,,,,,,,
0,6,6,19,1,,5d34ab54c374970001e8b76b,62c539134fe15b429b53c7bc,2022-07-06_09h26.28.596,Colour_Asymmetry_Pilot,2022.1.3,Win32,143.5132032,62c50e9c1127f2cd403a315f,,,,,,,,,,,,,,,,,,,,,,,,,,,,,,,,,,,,,,,,,,,,,,,,,,,,,,,,,,,,,,,,,,,,,,,,,,,,,,,,,,,,,,,,,,,,,,,,,,,,,,,,,,,,,,,,,,,,,,,,,,,,,,,,,,,,,,,,,,,,,,,,,,,,,,,,,,,,,,,,,,,
0,7,7,43,1,,5d34ab54c374970001e8b76b,62c539134fe15b429b53c7bc,2022-07-06_09h26.28.596,Colour_Asymmetry_Pilot,2022.1.3,Win32,143.5132032,62c50e9c1127f2cd403a315f,,,,,,,,,,,,,,,,,,,,,,,,,,,,,,,,,,,,,,,,,,,,,,,,,,,,,,,,,,,,,,,,,,,,,,,,,,,,,,,,,,,,,,,,,,,,,,,,,,,,,,,,,,,,,,,,,,,,,,,,,,,,,,,,,,,,,,,,,,,,,,,,,,,,,,,,,,,,,,,,,,,
0,8,8,39,1,,5d34ab54c374970001e8b76b,62c539134fe15b429b53c7bc,2022-07-06_09h26.28.596,Colour_Asymmetry_Pilot,2022.1.3,Win32,143.5132032,62c50e9c1127f2cd403a315f,,,,,,,,,,,,,,,,,,,,,,,,,,,,,,,,,,,,,,,,,,,,,,,,,,,,,,,,,,,,,,,,,,,,,,,,,,,,,,,,,,,,,,,,,,,,,,,,,,,,,,,,,,,,,,,,,,,,,,,,,,,,,,,,,,,,,,,,,,,,,,,,,,,,,,,,,,,,,,,,,,,
0,9,9,59,1,,5d34ab54c374970001e8b76b,62c539134fe15b429b53c7bc,2022-07-06_09h26.28.596,Colour_Asymmetry_Pilot,2022.1.3,Win32,143.5132032,62c50e9c1127f2cd403a315f,,,,,,,,,,,,,,,,,,,,,,,,,,,,,,,,,,,,,,,,,,,,,,,,,,,,,,,,,,,,,,,,,,,,,,,,,,,,,,,,,,,,,,,,,,,,,,,,,,,,,,,,,,,,,,,,,,,,,,,,,,,,,,,,,,,,,,,,,,,,,,,,,,,,,,,,,,,,,,,,,,,
0,10,10,41,1,,5d34ab54c374970001e8b76b,62c539134fe15b429b53c7bc,2022-07-06_09h26.28.596,Colour_Asymmetry_Pilot,2022.1.3,Win32,143.5132032,62c50e9c1127f2cd403a315f,,,,,,,,,,,,,,,,,,,,,,,,,,,,,,,,,,,,,,,,,,,,,,,,,,,,,,,,,,,,,,,,,,,,,,,,,,,,,,,,,,,,,,,,,,,,,,,,,,,,,,,,,,,,,,,,,,,,,,,,,,,,,,,,,,,,,,,,,,,,,,,,,,,,,,,,,,,,,,,,,,,
0,11,11,56,1,,5d34ab54c374970001e8b76b,62c539134fe15b429b53c7bc,2022-07-06_09h26.28.596,Colour_Asymmetry_Pilot,2022.1.3,Win32,143.5132032,62c50e9c1127f2cd403a315f,,,,,,,,,,,,,,,,,,,,,,,,,,,,,,,,,,,,,,,,,,,,,,,,,,,,,,,,,,,,,,,,,,,,,,,,,,,,,,,,,,,,,,,,,,,,,,,,,,,,,,,,,,,,,,,,,,,,,,,,,,,,,,,,,,,,,,,,,,,,,,,,,,,,,,,,,,,,,,,,,,,
0,12,12,50,1,,5d34ab54c374970001e8b76b,62c539134fe15b429b53c7bc,2022-07-06_09h26.28.596,Colour_Asymmetry_Pilot,2022.1.3,Win32,143.5132032,62c50e9c1127f2cd403a315f,,,,,,,,,,,,,,,,,,,,,,,,,,,,,,,,,,,,,,,,,,,,,,,,,,,,,,,,,,,,,,,,,,,,,,,,,,,,,,,,,,,,,,,,,,,,,,,,,,,,,,,,,,,,,,,,,,,,,,,,,,,,,,,,,,,,,,,,,,,,,,,,,,,,,,,,,,,,,,,,,,,
0,13,13,52,1,,5d34ab54c374970001e8b76b,62c539134fe15b429b53c7bc,2022-07-06_09h26.28.596,Colour_Asymmetry_Pilot,2022.1.3,Win32,143.5132032,62c50e9c1127f2cd403a315f,,,,,,,,,,,,,,,,,,,,,,,,,,,,,,,,,,,,,,,,,,,,,,,,,,,,,,,,,,,,,,,,,,,,,,,,,,,,,,,,,,,,,,,,,,,,,,,,,,,,,,,,,,,,,,,,,,,,,,,,,,,,,,,,,,,,,,,,,,,,,,,,,,,,,,,,,,,,,,,,,,,
0,14,14,83,1,,5d34ab54c374970001e8b76b,62c539134fe15b429b53c7bc,2022-07-06_09h26.28.596,Colour_Asymmetry_Pilot,2022.1.3,Win32,143.5132032,62c50e9c1127f2cd403a315f,,,,,,,,,,,,,,,,,,,,,,,,,,,,,,,,,,,,,,,,,,,,,,,,,,,,,,,,,,,,,,,,,,,,,,,,,,,,,,,,,,,,,,,,,,,,,,,,,,,,,,,,,,,,,,,,,,,,,,,,,,,,,,,,,,,,,,,,,,,,,,,,,,,,,,,,,,,,,,,,,,,
0,15,15,2,1,,5d34ab54c374970001e8b76b,62c539134fe15b429b53c7bc,2022-07-06_09h26.28.596,Colour_Asymmetry_Pilot,2022.1.3,Win32,143.5132032,62c50e9c1127f2cd403a315f,,,,,,,,,,,,,,,,,,,,,,,,,,,,,,,,,,,,,,,,,,,,,,,,,,,,,,,,,,,,,,,,,,,,,,,,,,,,,,,,,,,,,,,,,,,,,,,,,,,,,,,,,,,,,,,,,,,,,,,,,,,,,,,,,,,,,,,,,,,,,,,,,,,,,,,,,,,,,,,,,,,
0,16,16,70,1,,5d34ab54c374970001e8b76b,62c539134fe15b429b53c7bc,2022-07-06_09h26.28.596,Colour_Asymmetry_Pilot,2022.1.3,Win32,143.5132032,62c50e9c1127f2cd403a315f,,,,,,,,,,,,,,,,,,,,,,,,,,,,,,,,,,,,,,,,,,,,,,,,,,,,,,,,,,,,,,,,,,,,,,,,,,,,,,,,,,,,,,,,,,,,,,,,,,,,,,,,,,,,,,,,,,,,,,,,,,,,,,,,,,,,,,,,,,,,,,,,,,,,,,,,,,,,,,,,,,,
0,17,17,66,1,,5d34ab54c374970001e8b76b,62c539134fe15b429b53c7bc,2022-07-06_09h26.28.596,Colour_Asymmetry_Pilot,2022.1.3,Win32,143.5132032,62c50e9c1127f2cd403a315f,,,,,,,,,,,,,,,,,,,,,,,,,,,,,,,,,,,,,,,,,,,,,,,,,,,,,,,,,,,,,,,,,,,,,,,,,,,,,,,,,,,,,,,,,,,,,,,,,,,,,,,,,,,,,,,,,,,,,,,,,,,,,,,,,,,,,,,,,,,,,,,,,,,,,,,,,,,,,,,,,,,
0,18,18,64,1,,5d34ab54c374970001e8b76b,62c539134fe15b429b53c7bc,2022-07-06_09h26.28.596,Colour_Asymmetry_Pilot,2022.1.3,Win32,143.5132032,62c50e9c1127f2cd403a315f,,,,,,,,,,,,,,,,,,,,,,,,,,,,,,,,,,,,,,,,,,,,,,,,,,,,,,,,,,,,,,,,,,,,,,,,,,,,,,,,,,,,,,,,,,,,,,,,,,,,,,,,,,,,,,,,,,,,,,,,,,,,,,,,,,,,,,,,,,,,,,,,,,,,,,,,,,,,,,,,,,,
0,19,19,46,1,,5d34ab54c374970001e8b76b,62c539134fe15b429b53c7bc,2022-07-06_09h26.28.596,Colour_Asymmetry_Pilot,2022.1.3,Win32,143.5132032,62c50e9c1127f2cd403a315f,,,,,,,,,,,,,,,,,,,,,,,,,,,,,,,,,,,,,,,,,,,,,,,,,,,,,,,,,,,,,,,,,,,,,,,,,,,,,,,,,,,,,,,,,,,,,,,,,,,,,,,,,,,,,,,,,,,,,,,,,,,,,,,,,,,,,,,,,,,,,,,,,,,,,,,,,,,,,,,,,,,
0,20,20,42,1,,5d34ab54c374970001e8b76b,62c539134fe15b429b53c7bc,2022-07-06_09h26.28.596,Colour_Asymmetry_Pilot,2022.1.3,Win32,143.5132032,62c50e9c1127f2cd403a315f,,,,,,,,,,,,,,,,,,,,,,,,,,,,,,,,,,,,,,,,,,,,,,,,,,,,,,,,,,,,,,,,,,,,,,,,,,,,,,,,,,,,,,,,,,,,,,,,,,,,,,,,,,,,,,,,,,,,,,,,,,,,,,,,,,,,,,,,,,,,,,,,,,,,,,,,,,,,,,,,,,,
0,21,21,8,1,,5d34ab54c374970001e8b76b,62c539134fe15b429b53c7bc,2022-07-06_09h26.28.596,Colour_Asymmetry_Pilot,2022.1.3,Win32,143.5132032,62c50e9c1127f2cd403a315f,,,,,,,,,,,,,,,,,,,,,,,,,,,,,,,,,,,,,,,,,,,,,,,,,,,,,,,,,,,,,,,,,,,,,,,,,,,,,,,,,,,,,,,,,,,,,,,,,,,,,,,,,,,,,,,,,,,,,,,,,,,,,,,,,,,,,,,,,,,,,,,,,,,,,,,,,,,,,,,,,,,
0,22,22,20,1,,5d34ab54c374970001e8b76b,62c539134fe15b429b53c7bc,2022-07-06_09h26.28.596,Colour_Asymmetry_Pilot,2022.1.3,Win32,143.5132032,62c50e9c1127f2cd403a315f,,,,,,,,,,,,,,,,,,,,,,,,,,,,,,,,,,,,,,,,,,,,,,,,,,,,,,,,,,,,,,,,,,,,,,,,,,,,,,,,,,,,,,,,,,,,,,,,,,,,,,,,,,,,,,,,,,,,,,,,,,,,,,,,,,,,,,,,,,,,,,,,,,,,,,,,,,,,,,,,,,,
0,23,23,49,1,,5d34ab54c374970001e8b76b,62c539134fe15b429b53c7bc,2022-07-06_09h26.28.596,Colour_Asymmetry_Pilot,2022.1.3,Win32,143.5132032,62c50e9c1127f2cd403a315f,,,,,,,,,,,,,,,,,,,,,,,,,,,,,,,,,,,,,,,,,,,,,,,,,,,,,,,,,,,,,,,,,,,,,,,,,,,,,,,,,,,,,,,,,,,,,,,,,,,,,,,,,,,,,,,,,,,,,,,,,,,,,,,,,,,,,,,,,,,,,,,,,,,,,,,,,,,,,,,,,,,
0,24,24,15,1,,5d34ab54c374970001e8b76b,62c539134fe15b429b53c7bc,2022-07-06_09h26.28.596,Colour_Asymmetry_Pilot,2022.1.3,Win32,143.5132032,62c50e9c1127f2cd403a315f,,,,,,,,,,,,,,,,,,,,,,,,,,,,,,,,,,,,,,,,,,,,,,,,,,,,,,,,,,,,,,,,,,,,,,,,,,,,,,,,,,,,,,,,,,,,,,,,,,,,,,,,,,,,,,,,,,,,,,,,,,,,,,,,,,,,,,,,,,,,,,,,,,,,,,,,,,,,,,,,,,,
0,25,25,86,1,,5d34ab54c374970001e8b76b,62c539134fe15b429b53c7bc,2022-07-06_09h26.28.596,Colour_Asymmetry_Pilot,2022.1.3,Win32,143.5132032,62c50e9c1127f2cd403a315f,,,,,,,,,,,,,,,,,,,,,,,,,,,,,,,,,,,,,,,,,,,,,,,,,,,,,,,,,,,,,,,,,,,,,,,,,,,,,,,,,,,,,,,,,,,,,,,,,,,,,,,,,,,,,,,,,,,,,,,,,,,,,,,,,,,,,,,,,,,,,,,,,,,,,,,,,,,,,,,,,,,
0,26,26,67,1,,5d34ab54c374970001e8b76b,62c539134fe15b429b53c7bc,2022-07-06_09h26.28.596,Colour_Asymmetry_Pilot,2022.1.3,Win32,143.5132032,62c50e9c1127f2cd403a315f,,,,,,,,,,,,,,,,,,,,,,,,,,,,,,,,,,,,,,,,,,,,,,,,,,,,,,,,,,,,,,,,,,,,,,,,,,,,,,,,,,,,,,,,,,,,,,,,,,,,,,,,,,,,,,,,,,,,,,,,,,,,,,,,,,,,,,,,,,,,,,,,,,,,,,,,,,,,,,,,,,,
0,27,27,44,1,,5d34ab54c374970001e8b76b,62c539134fe15b429b53c7bc,2022-07-06_09h26.28.596,Colour_Asymmetry_Pilot,2022.1.3,Win32,143.5132032,62c50e9c1127f2cd403a315f,,,,,,,,,,,,,,,,,,,,,,,,,,,,,,,,,,,,,,,,,,,,,,,,,,,,,,,,,,,,,,,,,,,,,,,,,,,,,,,,,,,,,,,,,,,,,,,,,,,,,,,,,,,,,,,,,,,,,,,,,,,,,,,,,,,,,,,,,,,,,,,,,,,,,,,,,,,,,,,,,,,
0,28,28,23,1,,5d34ab54c374970001e8b76b,62c539134fe15b429b53c7bc,2022-07-06_09h26.28.596,Colour_Asymmetry_Pilot,2022.1.3,Win32,143.5132032,62c50e9c1127f2cd403a315f,,,,,,,,,,,,,,,,,,,,,,,,,,,,,,,,,,,,,,,,,,,,,,,,,,,,,,,,,,,,,,,,,,,,,,,,,,,,,,,,,,,,,,,,,,,,,,,,,,,,,,,,,,,,,,,,,,,,,,,,,,,,,,,,,,,,,,,,,,,,,,,,,,,,,,,,,,,,,,,,,,,
0,29,29,27,1,,5d34ab54c374970001e8b76b,62c539134fe15b429b53c7bc,2022-07-06_09h26.28.596,Colour_Asymmetry_Pilot,2022.1.3,Win32,143.5132032,62c50e9c1127f2cd403a315f,,,,,,,,,,,,,,,,,,,,,,,,,,,,,,,,,,,,,,,,,,,,,,,,,,,,,,,,,,,,,,,,,,,,,,,,,,,,,,,,,,,,,,,,,,,,,,,,,,,,,,,,,,,,,,,,,,,,,,,,,,,,,,,,,,,,,,,,,,,,,,,,,,,,,,,,,,,,,,,,,,,
0,30,30,62,1,,5d34ab54c374970001e8b76b,62c539134fe15b429b53c7bc,2022-07-06_09h26.28.596,Colour_Asymmetry_Pilot,2022.1.3,Win32,143.5132032,62c50e9c1127f2cd403a315f,,,,,,,,,,,,,,,,,,,,,,,,,,,,,,,,,,,,,,,,,,,,,,,,,,,,,,,,,,,,,,,,,,,,,,,,,,,,,,,,,,,,,,,,,,,,,,,,,,,,,,,,,,,,,,,,,,,,,,,,,,,,,,,,,,,,,,,,,,,,,,,,,,,,,,,,,,,,,,,,,,,
0,31,31,38,1,,5d34ab54c374970001e8b76b,62c539134fe15b429b53c7bc,2022-07-06_09h26.28.596,Colour_Asymmetry_Pilot,2022.1.3,Win32,143.5132032,62c50e9c1127f2cd403a315f,,,,,,,,,,,,,,,,,,,,,,,,,,,,,,,,,,,,,,,,,,,,,,,,,,,,,,,,,,,,,,,,,,,,,,,,,,,,,,,,,,,,,,,,,,,,,,,,,,,,,,,,,,,,,,,,,,,,,,,,,,,,,,,,,,,,,,,,,,,,,,,,,,,,,,,,,,,,,,,,,,,
0,32,32,91,1,,5d34ab54c374970001e8b76b,62c539134fe15b429b53c7bc,2022-07-06_09h26.28.596,Colour_Asymmetry_Pilot,2022.1.3,Win32,143.5132032,62c50e9c1127f2cd403a315f,,,,,,,,,,,,,,,,,,,,,,,,,,,,,,,,,,,,,,,,,,,,,,,,,,,,,,,,,,,,,,,,,,,,,,,,,,,,,,,,,,,,,,,,,,,,,,,,,,,,,,,,,,,,,,,,,,,,,,,,,,,,,,,,,,,,,,,,,,,,,,,,,,,,,,,,,,,,,,,,,,,
0,33,33,14,1,,5d34ab54c374970001e8b76b,62c539134fe15b429b53c7bc,2022-07-06_09h26.28.596,Colour_Asymmetry_Pilot,2022.1.3,Win32,143.5132032,62c50e9c1127f2cd403a315f,,,,,,,,,,,,,,,,,,,,,,,,,,,,,,,,,,,,,,,,,,,,,,,,,,,,,,,,,,,,,,,,,,,,,,,,,,,,,,,,,,,,,,,,,,,,,,,,,,,,,,,,,,,,,,,,,,,,,,,,,,,,,,,,,,,,,,,,,,,,,,,,,,,,,,,,,,,,,,,,,,,
0,34,34,58,1,,5d34ab54c374970001e8b76b,62c539134fe15b429b53c7bc,2022-07-06_09h26.28.596,Colour_Asymmetry_Pilot,2022.1.3,Win32,143.5132032,62c50e9c1127f2cd403a315f,,,,,,,,,,,,,,,,,,,,,,,,,,,,,,,,,,,,,,,,,,,,,,,,,,,,,,,,,,,,,,,,,,,,,,,,,,,,,,,,,,,,,,,,,,,,,,,,,,,,,,,,,,,,,,,,,,,,,,,,,,,,,,,,,,,,,,,,,,,,,,,,,,,,,,,,,,,,,,,,,,,
0,35,35,17,1,,5d34ab54c374970001e8b76b,62c539134fe15b429b53c7bc,2022-07-06_09h26.28.596,Colour_Asymmetry_Pilot,2022.1.3,Win32,143.5132032,62c50e9c1127f2cd403a315f,,,,,,,,,,,,,,,,,,,,,,,,,,,,,,,,,,,,,,,,,,,,,,,,,,,,,,,,,,,,,,,,,,,,,,,,,,,,,,,,,,,,,,,,,,,,,,,,,,,,,,,,,,,,,,,,,,,,,,,,,,,,,,,,,,,,,,,,,,,,,,,,,,,,,,,,,,,,,,,,,,,
0,36,36,63,1,,5d34ab54c374970001e8b76b,62c539134fe15b429b53c7bc,2022-07-06_09h26.28.596,Colour_Asymmetry_Pilot,2022.1.3,Win32,143.5132032,62c50e9c1127f2cd403a315f,,,,,,,,,,,,,,,,,,,,,,,,,,,,,,,,,,,,,,,,,,,,,,,,,,,,,,,,,,,,,,,,,,,,,,,,,,,,,,,,,,,,,,,,,,,,,,,,,,,,,,,,,,,,,,,,,,,,,,,,,,,,,,,,,,,,,,,,,,,,,,,,,,,,,,,,,,,,,,,,,,,
0,37,37,21,1,,5d34ab54c374970001e8b76b,62c539134fe15b429b53c7bc,2022-07-06_09h26.28.596,Colour_Asymmetry_Pilot,2022.1.3,Win32,143.5132032,62c50e9c1127f2cd403a315f,,,,,,,,,,,,,,,,,,,,,,,,,,,,,,,,,,,,,,,,,,,,,,,,,,,,,,,,,,,,,,,,,,,,,,,,,,,,,,,,,,,,,,,,,,,,,,,,,,,,,,,,,,,,,,,,,,,,,,,,,,,,,,,,,,,,,,,,,,,,,,,,,,,,,,,,,,,,,,,,,,,
0,38,38,11,1,,5d34ab54c374970001e8b76b,62c539134fe15b429b53c7bc,2022-07-06_09h26.28.596,Colour_Asymmetry_Pilot,2022.1.3,Win32,143.5132032,62c50e9c1127f2cd403a315f,,,,,,,,,,,,,,,,,,,,,,,,,,,,,,,,,,,,,,,,,,,,,,,,,,,,,,,,,,,,,,,,,,,,,,,,,,,,,,,,,,,,,,,,,,,,,,,,,,,,,,,,,,,,,,,,,,,,,,,,,,,,,,,,,,,,,,,,,,,,,,,,,,,,,,,,,,,,,,,,,,,
0,39,39,3,1,,5d34ab54c374970001e8b76b,62c539134fe15b429b53c7bc,2022-07-06_09h26.28.596,Colour_Asymmetry_Pilot,2022.1.3,Win32,143.5132032,62c50e9c1127f2cd403a315f,,,,,,,,,,,,,,,,,,,,,,,,,,,,,,,,,,,,,,,,,,,,,,,,,,,,,,,,,,,,,,,,,,,,,,,,,,,,,,,,,,,,,,,,,,,,,,,,,,,,,,,,,,,,,,,,,,,,,,,,,,,,,,,,,,,,,,,,,,,,,,,,,,,,,,,,,,,,,,,,,,,
0,40,40,65,1,,5d34ab54c374970001e8b76b,62c539134fe15b429b53c7bc,2022-07-06_09h26.28.596,Colour_Asymmetry_Pilot,2022.1.3,Win32,143.5132032,62c50e9c1127f2cd403a315f,,,,,,,,,,,,,,,,,,,,,,,,,,,,,,,,,,,,,,,,,,,,,,,,,,,,,,,,,,,,,,,,,,,,,,,,,,,,,,,,,,,,,,,,,,,,,,,,,,,,,,,,,,,,,,,,,,,,,,,,,,,,,,,,,,,,,,,,,,,,,,,,,,,,,,,,,,,,,,,,,,,
0,41,41,90,1,,5d34ab54c374970001e8b76b,62c539134fe15b429b53c7bc,2022-07-06_09h26.28.596,Colour_Asymmetry_Pilot,2022.1.3,Win32,143.5132032,62c50e9c1127f2cd403a315f,,,,,,,,,,,,,,,,,,,,,,,,,,,,,,,,,,,,,,,,,,,,,,,,,,,,,,,,,,,,,,,,,,,,,,,,,,,,,,,,,,,,,,,,,,,,,,,,,,,,,,,,,,,,,,,,,,,,,,,,,,,,,,,,,,,,,,,,,,,,,,,,,,,,,,,,,,,,,,,,,,,
0,42,42,24,1,,5d34ab54c374970001e8b76b,62c539134fe15b429b53c7bc,2022-07-06_09h26.28.596,Colour_Asymmetry_Pilot,2022.1.3,Win32,143.5132032,62c50e9c1127f2cd403a315f,,,,,,,,,,,,,,,,,,,,,,,,,,,,,,,,,,,,,,,,,,,,,,,,,,,,,,,,,,,,,,,,,,,,,,,,,,,,,,,,,,,,,,,,,,,,,,,,,,,,,,,,,,,,,,,,,,,,,,,,,,,,,,,,,,,,,,,,,,,,,,,,,,,,,,,,,,,,,,,,,,,
0,43,43,28,1,,5d34ab54c374970001e8b76b,62c539134fe15b429b53c7bc,2022-07-06_09h26.28.596,Colour_Asymmetry_Pilot,2022.1.3,Win32,143.5132032,62c50e9c1127f2cd403a315f,,,,,,,,,,,,,,,,,,,,,,,,,,,,,,,,,,,,,,,,,,,,,,,,,,,,,,,,,,,,,,,,,,,,,,,,,,,,,,,,,,,,,,,,,,,,,,,,,,,,,,,,,,,,,,,,,,,,,,,,,,,,,,,,,,,,,,,,,,,,,,,,,,,,,,,,,,,,,,,,,,,
0,44,44,71,1,,5d34ab54c374970001e8b76b,62c539134fe15b429b53c7bc,2022-07-06_09h26.28.596,Colour_Asymmetry_Pilot,2022.1.3,Win32,143.5132032,62c50e9c1127f2cd403a315f,,,,,,,,,,,,,,,,,,,,,,,,,,,,,,,,,,,,,,,,,,,,,,,,,,,,,,,,,,,,,,,,,,,,,,,,,,,,,,,,,,,,,,,,,,,,,,,,,,,,,,,,,,,,,,,,,,,,,,,,,,,,,,,,,,,,,,,,,,,,,,,,,,,,,,,,,,,,,,,,,,,
0,45,45,26,1,,5d34ab54c374970001e8b76b,62c539134fe15b429b53c7bc,2022-07-06_09h26.28.596,Colour_Asymmetry_Pilot,2022.1.3,Win32,143.5132032,62c50e9c1127f2cd403a315f,,,,,,,,,,,,,,,,,,,,,,,,,,,,,,,,,,,,,,,,,,,,,,,,,,,,,,,,,,,,,,,,,,,,,,,,,,,,,,,,,,,,,,,,,,,,,,,,,,,,,,,,,,,,,,,,,,,,,,,,,,,,,,,,,,,,,,,,,,,,,,,,,,,,,,,,,,,,,,,,,,,
0,46,46,69,1,,5d34ab54c374970001e8b76b,62c539134fe15b429b53c7bc,2022-07-06_09h26.28.596,Colour_Asymmetry_Pilot,2022.1.3,Win32,143.5132032,62c50e9c1127f2cd403a315f,,,,,,,,,,,,,,,,,,,,,,,,,,,,,,,,,,,,,,,,,,,,,,,,,,,,,,,,,,,,,,,,,,,,,,,,,,,,,,,,,,,,,,,,,,,,,,,,,,,,,,,,,,,,,,,,,,,,,,,,,,,,,,,,,,,,,,,,,,,,,,,,,,,,,,,,,,,,,,,,,,,
0,47,47,54,1,,5d34ab54c374970001e8b76b,62c539134fe15b429b53c7bc,2022-07-06_09h26.28.596,Colour_Asymmetry_Pilot,2022.1.3,Win32,143.5132032,62c50e9c1127f2cd403a315f,,,,,,,,,,,,,,,,,,,,,,,,,,,,,,,,,,,,,,,,,,,,,,,,,,,,,,,,,,,,,,,,,,,,,,,,,,,,,,,,,,,,,,,,,,,,,,,,,,,,,,,,,,,,,,,,,,,,,,,,,,,,,,,,,,,,,,,,,,,,,,,,,,,,,,,,,,,,,,,,,,,
0,48,48,78,1,,5d34ab54c374970001e8b76b,62c539134fe15b429b53c7bc,2022-07-06_09h26.28.596,Colour_Asymmetry_Pilot,2022.1.3,Win32,143.5132032,62c50e9c1127f2cd403a315f,,,,,,,,,,,,,,,,,,,,,,,,,,,,,,,,,,,,,,,,,,,,,,,,,,,,,,,,,,,,,,,,,,,,,,,,,,,,,,,,,,,,,,,,,,,,,,,,,,,,,,,,,,,,,,,,,,,,,,,,,,,,,,,,,,,,,,,,,,,,,,,,,,,,,,,,,,,,,,,,,,,
0,49,49,74,1,,5d34ab54c374970001e8b76b,62c539134fe15b429b53c7bc,2022-07-06_09h26.28.596,Colour_Asymmetry_Pilot,2022.1.3,Win32,143.5132032,62c50e9c1127f2cd403a315f,,,,,,,,,,,,,,,,,,,,,,,,,,,,,,,,,,,,,,,,,,,,,,,,,,,,,,,,,,,,,,,,,,,,,,,,,,,,,,,,,,,,,,,,,,,,,,,,,,,,,,,,,,,,,,,,,,,,,,,,,,,,,,,,,,,,,,,,,,,,,,,,,,,,,,,,,,,,,,,,,,,
0,50,50,36,1,,5d34ab54c374970001e8b76b,62c539134fe15b429b53c7bc,2022-07-06_09h26.28.596,Colour_Asymmetry_Pilot,2022.1.3,Win32,143.5132032,62c50e9c1127f2cd403a315f,,,,,,,,,,,,,,,,,,,,,,,,,,,,,,,,,,,,,,,,,,,,,,,,,,,,,,,,,,,,,,,,,,,,,,,,,,,,,,,,,,,,,,,,,,,,,,,,,,,,,,,,,,,,,,,,,,,,,,,,,,,,,,,,,,,,,,,,,,,,,,,,,,,,,,,,,,,,,,,,,,,
0,51,51,22,1,,5d34ab54c374970001e8b76b,62c539134fe15b429b53c7bc,2022-07-06_09h26.28.596,Colour_Asymmetry_Pilot,2022.1.3,Win32,143.5132032,62c50e9c1127f2cd403a315f,,,,,,,,,,,,,,,,,,,,,,,,,,,,,,,,,,,,,,,,,,,,,,,,,,,,,,,,,,,,,,,,,,,,,,,,,,,,,,,,,,,,,,,,,,,,,,,,,,,,,,,,,,,,,,,,,,,,,,,,,,,,,,,,,,,,,,,,,,,,,,,,,,,,,,,,,,,,,,,,,,,
0,52,52,7,1,,5d34ab54c374970001e8b76b,62c539134fe15b429b53c7bc,2022-07-06_09h26.28.596,Colour_Asymmetry_Pilot,2022.1.3,Win32,143.5132032,62c50e9c1127f2cd403a315f,,,,,,,,,,,,,,,,,,,,,,,,,,,,,,,,,,,,,,,,,,,,,,,,,,,,,,,,,,,,,,,,,,,,,,,,,,,,,,,,,,,,,,,,,,,,,,,,,,,,,,,,,,,,,,,,,,,,,,,,,,,,,,,,,,,,,,,,,,,,,,,,,,,,,,,,,,,,,,,,,,,
0,53,53,81,1,,5d34ab54c374970001e8b76b,62c539134fe15b429b53c7bc,2022-07-06_09h26.28.596,Colour_Asymmetry_Pilot,2022.1.3,Win32,143.5132032,62c50e9c1127f2cd403a315f,,,,,,,,,,,,,,,,,,,,,,,,,,,,,,,,,,,,,,,,,,,,,,,,,,,,,,,,,,,,,,,,,,,,,,,,,,,,,,,,,,,,,,,,,,,,,,,,,,,,,,,,,,,,,,,,,,,,,,,,,,,,,,,,,,,,,,,,,,,,,,,,,,,,,,,,,,,,,,,,,,,
0,54,54,77,1,,5d34ab54c374970001e8b76b,62c539134fe15b429b53c7bc,2022-07-06_09h26.28.596,Colour_Asymmetry_Pilot,2022.1.3,Win32,143.5132032,62c50e9c1127f2cd403a315f,,,,,,,,,,,,,,,,,,,,,,,,,,,,,,,,,,,,,,,,,,,,,,,,,,,,,,,,,,,,,,,,,,,,,,,,,,,,,,,,,,,,,,,,,,,,,,,,,,,,,,,,,,,,,,,,,,,,,,,,,,,,,,,,,,,,,,,,,,,,,,,,,,,,,,,,,,,,,,,,,,,
0,55,55,35,1,,5d34ab54c374970001e8b76b,62c539134fe15b429b53c7bc,2022-07-06_09h26.28.596,Colour_Asymmetry_Pilot,2022.1.3,Win32,143.5132032,62c50e9c1127f2cd403a315f,,,,,,,,,,,,,,,,,,,,,,,,,,,,,,,,,,,,,,,,,,,,,,,,,,,,,,,,,,,,,,,,,,,,,,,,,,,,,,,,,,,,,,,,,,,,,,,,,,,,,,,,,,,,,,,,,,,,,,,,,,,,,,,,,,,,,,,,,,,,,,,,,,,,,,,,,,,,,,,,,,,
0,56,56,48,1,,5d34ab54c374970001e8b76b,62c539134fe15b429b53c7bc,2022-07-06_09h26.28.596,Colour_Asymmetry_Pilot,2022.1.3,Win32,143.5132032,62c50e9c1127f2cd403a315f,,,,,,,,,,,,,,,,,,,,,,,,,,,,,,,,,,,,,,,,,,,,,,,,,,,,,,,,,,,,,,,,,,,,,,,,,,,,,,,,,,,,,,,,,,,,,,,,,,,,,,,,,,,,,,,,,,,,,,,,,,,,,,,,,,,,,,,,,,,,,,,,,,,,,,,,,,,,,,,,,,,
0,57,57,31,1,,5d34ab54c374970001e8b76b,62c539134fe15b429b53c7bc,2022-07-06_09h26.28.596,Colour_Asymmetry_Pilot,2022.1.3,Win32,143.5132032,62c50e9c1127f2cd403a315f,,,,,,,,,,,,,,,,,,,,,,,,,,,,,,,,,,,,,,,,,,,,,,,,,,,,,,,,,,,,,,,,,,,,,,,,,,,,,,,,,,,,,,,,,,,,,,,,,,,,,,,,,,,,,,,,,,,,,,,,,,,,,,,,,,,,,,,,,,,,,,,,,,,,,,,,,,,,,,,,,,,
0,58,58,4,1,,5d34ab54c374970001e8b76b,62c539134fe15b429b53c7bc,2022-07-06_09h26.28.596,Colour_Asymmetry_Pilot,2022.1.3,Win32,143.5132032,62c50e9c1127f2cd403a315f,,,,,,,,,,,,,,,,,,,,,,,,,,,,,,,,,,,,,,,,,,,,,,,,,,,,,,,,,,,,,,,,,,,,,,,,,,,,,,,,,,,,,,,,,,,,,,,,,,,,,,,,,,,,,,,,,,,,,,,,,,,,,,,,,,,,,,,,,,,,,,,,,,,,,,,,,,,,,,,,,,,
0,59,59,32,1,,5d34ab54c374970001e8b76b,62c539134fe15b429b53c7bc,2022-07-06_09h26.28.596,Colour_Asymmetry_Pilot,2022.1.3,Win32,143.5132032,62c50e9c1127f2cd403a315f,,,,,,,,,,,,,,,,,,,,,,,,,,,,,,,,,,,,,,,,,,,,,,,,,,,,,,,,,,,,,,,,,,,,,,,,,,,,,,,,,,,,,,,,,,,,,,,,,,,,,,,,,,,,,,,,,,,,,,,,,,,,,,,,,,,,,,,,,,,,,,,,,,,,,,,,,,,,,,,,,,,
0,60,60,87,1,,5d34ab54c374970001e8b76b,62c539134fe15b429b53c7bc,2022-07-06_09h26.28.596,Colour_Asymmetry_Pilot,2022.1.3,Win32,143.5132032,62c50e9c1127f2cd403a315f,,,,,,,,,,,,,,,,,,,,,,,,,,,,,,,,,,,,,,,,,,,,,,,,,,,,,,,,,,,,,,,,,,,,,,,,,,,,,,,,,,,,,,,,,,,,,,,,,,,,,,,,,,,,,,,,,,,,,,,,,,,,,,,,,,,,,,,,,,,,,,,,,,,,,,,,,,,,,,,,,,,
0,61,61,13,1,,5d34ab54c374970001e8b76b,62c539134fe15b429b53c7bc,2022-07-06_09h26.28.596,Colour_Asymmetry_Pilot,2022.1.3,Win32,143.5132032,62c50e9c1127f2cd403a315f,,,,,,,,,,,,,,,,,,,,,,,,,,,,,,,,,,,,,,,,,,,,,,,,,,,,,,,,,,,,,,,,,,,,,,,,,,,,,,,,,,,,,,,,,,,,,,,,,,,,,,,,,,,,,,,,,,,,,,,,,,,,,,,,,,,,,,,,,,,,,,,,,,,,,,,,,,,,,,,,,,,
0,62,62,18,1,,5d34ab54c374970001e8b76b,62c539134fe15b429b53c7bc,2022-07-06_09h26.28.596,Colour_Asymmetry_Pilot,2022.1.3,Win32,143.5132032,62c50e9c1127f2cd403a315f,,,,,,,,,,,,,,,,,,,,,,,,,,,,,,,,,,,,,,,,,,,,,,,,,,,,,,,,,,,,,,,,,,,,,,,,,,,,,,,,,,,,,,,,,,,,,,,,,,,,,,,,,,,,,,,,,,,,,,,,,,,,,,,,,,,,,,,,,,,,,,,,,,,,,,,,,,,,,,,,,,,
0,63,63,75,1,,5d34ab54c374970001e8b76b,62c539134fe15b429b53c7bc,2022-07-06_09h26.28.596,Colour_Asymmetry_Pilot,2022.1.3,Win32,143.5132032,62c50e9c1127f2cd403a315f,,,,,,,,,,,,,,,,,,,,,,,,,,,,,,,,,,,,,,,,,,,,,,,,,,,,,,,,,,,,,,,,,,,,,,,,,,,,,,,,,,,,,,,,,,,,,,,,,,,,,,,,,,,,,,,,,,,,,,,,,,,,,,,,,,,,,,,,,,,,,,,,,,,,,,,,,,,,,,,,,,,
0,64,64,30,1,,5d34ab54c374970001e8b76b,62c539134fe15b429b53c7bc,2022-07-06_09h26.28.596,Colour_Asymmetry_Pilot,2022.1.3,Win32,143.5132032,62c50e9c1127f2cd403a315f,,,,,,,,,,,,,,,,,,,,,,,,,,,,,,,,,,,,,,,,,,,,,,,,,,,,,,,,,,,,,,,,,,,,,,,,,,,,,,,,,,,,,,,,,,,,,,,,,,,,,,,,,,,,,,,,,,,,,,,,,,,,,,,,,,,,,,,,,,,,,,,,,,,,,,,,,,,,,,,,,,,
0,65,65,29,1,,5d34ab54c374970001e8b76b,62c539134fe15b429b53c7bc,2022-07-06_09h26.28.596,Colour_Asymmetry_Pilot,2022.1.3,Win32,143.5132032,62c50e9c1127f2cd403a315f,,,,,,,,,,,,,,,,,,,,,,,,,,,,,,,,,,,,,,,,,,,,,,,,,,,,,,,,,,,,,,,,,,,,,,,,,,,,,,,,,,,,,,,,,,,,,,,,,,,,,,,,,,,,,,,,,,,,,,,,,,,,,,,,,,,,,,,,,,,,,,,,,,,,,,,,,,,,,,,,,,,
0,66,66,82,1,,5d34ab54c374970001e8b76b,62c539134fe15b429b53c7bc,2022-07-06_09h26.28.596,Colour_Asymmetry_Pilot,2022.1.3,Win32,143.5132032,62c50e9c1127f2cd403a315f,,,,,,,,,,,,,,,,,,,,,,,,,,,,,,,,,,,,,,,,,,,,,,,,,,,,,,,,,,,,,,,,,,,,,,,,,,,,,,,,,,,,,,,,,,,,,,,,,,,,,,,,,,,,,,,,,,,,,,,,,,,,,,,,,,,,,,,,,,,,,,,,,,,,,,,,,,,,,,,,,,,
0,67,67,80,1,,5d34ab54c374970001e8b76b,62c539134fe15b429b53c7bc,2022-07-06_09h26.28.596,Colour_Asymmetry_Pilot,2022.1.3,Win32,143.5132032,62c50e9c1127f2cd403a315f,,,,,,,,,,,,,,,,,,,,,,,,,,,,,,,,,,,,,,,,,,,,,,,,,,,,,,,,,,,,,,,,,,,,,,,,,,,,,,,,,,,,,,,,,,,,,,,,,,,,,,,,,,,,,,,,,,,,,,,,,,,,,,,,,,,,,,,,,,,,,,,,,,,,,,,,,,,,,,,,,,,
0,68,68,12,1,,5d34ab54c374970001e8b76b,62c539134fe15b429b53c7bc,2022-07-06_09h26.28.596,Colour_Asymmetry_Pilot,2022.1.3,Win32,143.5132032,62c50e9c1127f2cd403a315f,,,,,,,,,,,,,,,,,,,,,,,,,,,,,,,,,,,,,,,,,,,,,,,,,,,,,,,,,,,,,,,,,,,,,,,,,,,,,,,,,,,,,,,,,,,,,,,,,,,,,,,,,,,,,,,,,,,,,,,,,,,,,,,,,,,,,,,,,,,,,,,,,,,,,,,,,,,,,,,,,,,
0,69,69,9,1,,5d34ab54c374970001e8b76b,62c539134fe15b429b53c7bc,2022-07-06_09h26.28.596,Colour_Asymmetry_Pilot,2022.1.3,Win32,143.5132032,62c50e9c1127f2cd403a315f,,,,,,,,,,,,,,,,,,,,,,,,,,,,,,,,,,,,,,,,,,,,,,,,,,,,,,,,,,,,,,,,,,,,,,,,,,,,,,,,,,,,,,,,,,,,,,,,,,,,,,,,,,,,,,,,,,,,,,,,,,,,,,,,,,,,,,,,,,,,,,,,,,,,,,,,,,,,,,,,,,,
0,70,70,72,1,,5d34ab54c374970001e8b76b,62c539134fe15b429b53c7bc,2022-07-06_09h26.28.596,Colour_Asymmetry_Pilot,2022.1.3,Win32,143.5132032,62c50e9c1127f2cd403a315f,,,,,,,,,,,,,,,,,,,,,,,,,,,,,,,,,,,,,,,,,,,,,,,,,,,,,,,,,,,,,,,,,,,,,,,,,,,,,,,,,,,,,,,,,,,,,,,,,,,,,,,,,,,,,,,,,,,,,,,,,,,,,,,,,,,,,,,,,,,,,,,,,,,,,,,,,,,,,,,,,,,
0,71,71,79,1,,5d34ab54c374970001e8b76b,62c539134fe15b429b53c7bc,2022-07-06_09h26.28.596,Colour_Asymmetry_Pilot,2022.1.3,Win32,143.5132032,62c50e9c1127f2cd403a315f,,,,,,,,,,,,,,,,,,,,,,,,,,,,,,,,,,,,,,,,,,,,,,,,,,,,,,,,,,,,,,,,,,,,,,,,,,,,,,,,,,,,,,,,,,,,,,,,,,,,,,,,,,,,,,,,,,,,,,,,,,,,,,,,,,,,,,,,,,,,,,,,,,,,,,,,,,,,,,,,,,,
0,72,72,10,1,,5d34ab54c374970001e8b76b,62c539134fe15b429b53c7bc,2022-07-06_09h26.28.596,Colour_Asymmetry_Pilot,2022.1.3,Win32,143.5132032,62c50e9c1127f2cd403a315f,,,,,,,,,,,,,,,,,,,,,,,,,,,,,,,,,,,,,,,,,,,,,,,,,,,,,,,,,,,,,,,,,,,,,,,,,,,,,,,,,,,,,,,,,,,,,,,,,,,,,,,,,,,,,,,,,,,,,,,,,,,,,,,,,,,,,,,,,,,,,,,,,,,,,,,,,,,,,,,,,,,
0,73,73,68,1,,5d34ab54c374970001e8b76b,62c539134fe15b429b53c7bc,2022-07-06_09h26.28.596,Colour_Asymmetry_Pilot,2022.1.3,Win32,143.5132032,62c50e9c1127f2cd403a315f,,,,,,,,,,,,,,,,,,,,,,,,,,,,,,,,,,,,,,,,,,,,,,,,,,,,,,,,,,,,,,,,,,,,,,,,,,,,,,,,,,,,,,,,,,,,,,,,,,,,,,,,,,,,,,,,,,,,,,,,,,,,,,,,,,,,,,,,,,,,,,,,,,,,,,,,,,,,,,,,,,,
0,74,74,37,1,,5d34ab54c374970001e8b76b,62c539134fe15b429b53c7bc,2022-07-06_09h26.28.596,Colour_Asymmetry_Pilot,2022.1.3,Win32,143.5132032,62c50e9c1127f2cd403a315f,,,,,,,,,,,,,,,,,,,,,,,,,,,,,,,,,,,,,,,,,,,,,,,,,,,,,,,,,,,,,,,,,,,,,,,,,,,,,,,,,,,,,,,,,,,,,,,,,,,,,,,,,,,,,,,,,,,,,,,,,,,,,,,,,,,,,,,,,,,,,,,,,,,,,,,,,,,,,,,,,,,
0,75,75,76,1,,5d34ab54c374970001e8b76b,62c539134fe15b429b53c7bc,2022-07-06_09h26.28.596,Colour_Asymmetry_Pilot,2022.1.3,Win32,143.5132032,62c50e9c1127f2cd403a315f,,,,,,,,,,,,,,,,,,,,,,,,,,,,,,,,,,,,,,,,,,,,,,,,,,,,,,,,,,,,,,,,,,,,,,,,,,,,,,,,,,,,,,,,,,,,,,,,,,,,,,,,,,,,,,,,,,,,,,,,,,,,,,,,,,,,,,,,,,,,,,,,,,,,,,,,,,,,,,,,,,,
0,76,76,53,1,,5d34ab54c374970001e8b76b,62c539134fe15b429b53c7bc,2022-07-06_09h26.28.596,Colour_Asymmetry_Pilot,2022.1.3,Win32,143.5132032,62c50e9c1127f2cd403a315f,,,,,,,,,,,,,,,,,,,,,,,,,,,,,,,,,,,,,,,,,,,,,,,,,,,,,,,,,,,,,,,,,,,,,,,,,,,,,,,,,,,,,,,,,,,,,,,,,,,,,,,,,,,,,,,,,,,,,,,,,,,,,,,,,,,,,,,,,,,,,,,,,,,,,,,,,,,,,,,,,,,
0,77,77,61,1,,5d34ab54c374970001e8b76b,62c539134fe15b429b53c7bc,2022-07-06_09h26.28.596,Colour_Asymmetry_Pilot,2022.1.3,Win32,143.5132032,62c50e9c1127f2cd403a315f,,,,,,,,,,,,,,,,,,,,,,,,,,,,,,,,,,,,,,,,,,,,,,,,,,,,,,,,,,,,,,,,,,,,,,,,,,,,,,,,,,,,,,,,,,,,,,,,,,,,,,,,,,,,,,,,,,,,,,,,,,,,,,,,,,,,,,,,,,,,,,,,,,,,,,,,,,,,,,,,,,,
0,78,78,89,1,,5d34ab54c374970001e8b76b,62c539134fe15b429b53c7bc,2022-07-06_09h26.28.596,Colour_Asymmetry_Pilot,2022.1.3,Win32,143.5132032,62c50e9c1127f2cd403a315f,,,,,,,,,,,,,,,,,,,,,,,,,,,,,,,,,,,,,,,,,,,,,,,,,,,,,,,,,,,,,,,,,,,,,,,,,,,,,,,,,,,,,,,,,,,,,,,,,,,,,,,,,,,,,,,,,,,,,,,,,,,,,,,,,,,,,,,,,,,,,,,,,,,,,,,,,,,,,,,,,,,
0,79,79,33,1,,5d34ab54c374970001e8b76b,62c539134fe15b429b53c7bc,2022-07-06_09h26.28.596,Colour_Asymmetry_Pilot,2022.1.3,Win32,143.5132032,62c50e9c1127f2cd403a315f,,,,,,,,,,,,,,,,,,,,,,,,,,,,,,,,,,,,,,,,,,,,,,,,,,,,,,,,,,,,,,,,,,,,,,,,,,,,,,,,,,,,,,,,,,,,,,,,,,,,,,,,,,,,,,,,,,,,,,,,,,,,,,,,,,,,,,,,,,,,,,,,,,,,,,,,,,,,,,,,,,,
0,80,80,57,1,,5d34ab54c374970001e8b76b,62c539134fe15b429b53c7bc,2022-07-06_09h26.28.596,Colour_Asymmetry_Pilot,2022.1.3,Win32,143.5132032,62c50e9c1127f2cd403a315f,,,,,,,,,,,,,,,,,,,,,,,,,,,,,,,,,,,,,,,,,,,,,,,,,,,,,,,,,,,,,,,,,,,,,,,,,,,,,,,,,,,,,,,,,,,,,,,,,,,,,,,,,,,,,,,,,,,,,,,,,,,,,,,,,,,,,,,,,,,,,,,,,,,,,,,,,,,,,,,,,,,
0,81,81,85,1,,5d34ab54c374970001e8b76b,62c539134fe15b429b53c7bc,2022-07-06_09h26.28.596,Colour_Asymmetry_Pilot,2022.1.3,Win32,143.5132032,62c50e9c1127f2cd403a315f,,,,,,,,,,,,,,,,,,,,,,,,,,,,,,,,,,,,,,,,,,,,,,,,,,,,,,,,,,,,,,,,,,,,,,,,,,,,,,,,,,,,,,,,,,,,,,,,,,,,,,,,,,,,,,,,,,,,,,,,,,,,,,,,,,,,,,,,,,,,,,,,,,,,,,,,,,,,,,,,,,,
0,82,82,92,1,,5d34ab54c374970001e8b76b,62c539134fe15b429b53c7bc,2022-07-06_09h26.28.596,Colour_Asymmetry_Pilot,2022.1.3,Win32,143.5132032,62c50e9c1127f2cd403a315f,,,,,,,,,,,,,,,,,,,,,,,,,,,,,,,,,,,,,,,,,,,,,,,,,,,,,,,,,,,,,,,,,,,,,,,,,,,,,,,,,,,,,,,,,,,,,,,,,,,,,,,,,,,,,,,,,,,,,,,,,,,,,,,,,,,,,,,,,,,,,,,,,,,,,,,,,,,,,,,,,,,
0,83,83,47,1,,5d34ab54c374970001e8b76b,62c539134fe15b429b53c7bc,2022-07-06_09h26.28.596,Colour_Asymmetry_Pilot,2022.1.3,Win32,143.5132032,62c50e9c1127f2cd403a315f,,,,,,,,,,,,,,,,,,,,,,,,,,,,,,,,,,,,,,,,,,,,,,,,,,,,,,,,,,,,,,,,,,,,,,,,,,,,,,,,,,,,,,,,,,,,,,,,,,,,,,,,,,,,,,,,,,,,,,,,,,,,,,,,,,,,,,,,,,,,,,,,,,,,,,,,,,,,,,,,,,,
0,84,84,1,1,,5d34ab54c374970001e8b76b,62c539134fe15b429b53c7bc,2022-07-06_09h26.28.596,Colour_Asymmetry_Pilot,2022.1.3,Win32,143.5132032,62c50e9c1127f2cd403a315f,,,,,,,,,,,,,,,,,,,,,,,,,,,,,,,,,,,,,,,,,,,,,,,,,,,,,,,,,,,,,,,,,,,,,,,,,,,,,,,,,,,,,,,,,,,,,,,,,,,,,,,,,,,,,,,,,,,,,,,,,,,,,,,,,,,,,,,,,,,,,,,,,,,,,,,,,,,,,,,,,,,
0,85,85,34,1,,5d34ab54c374970001e8b76b,62c539134fe15b429b53c7bc,2022-07-06_09h26.28.596,Colour_Asymmetry_Pilot,2022.1.3,Win32,143.5132032,62c50e9c1127f2cd403a315f,,,,,,,,,,,,,,,,,,,,,,,,,,,,,,,,,,,,,,,,,,,,,,,,,,,,,,,,,,,,,,,,,,,,,,,,,,,,,,,,,,,,,,,,,,,,,,,,,,,,,,,,,,,,,,,,,,,,,,,,,,,,,,,,,,,,,,,,,,,,,,,,,,,,,,,,,,,,,,,,,,,
0,86,86,0,1,,5d34ab54c374970001e8b76b,62c539134fe15b429b53c7bc,2022-07-06_09h26.28.596,Colour_Asymmetry_Pilot,2022.1.3,Win32,143.5132032,62c50e9c1127f2cd403a315f,,,,,,,,,,,,,,,,,,,,,,,,,,,,,,,,,,,,,,,,,,,,,,,,,,,,,,,,,,,,,,,,,,,,,,,,,,,,,,,,,,,,,,,,,,,,,,,,,,,,,,,,,,,,,,,,,,,,,,,,,,,,,,,,,,,,,,,,,,,,,,,,,,,,,,,,,,,,,,,,,,,
0,87,87,40,1,,5d34ab54c374970001e8b76b,62c539134fe15b429b53c7bc,2022-07-06_09h26.28.596,Colour_Asymmetry_Pilot,2022.1.3,Win32,143.5132032,62c50e9c1127f2cd403a315f,,,,,,,,,,,,,,,,,,,,,,,,,,,,,,,,,,,,,,,,,,,,,,,,,,,,,,,,,,,,,,,,,,,,,,,,,,,,,,,,,,,,,,,,,,,,,,,,,,,,,,,,,,,,,,,,,,,,,,,,,,,,,,,,,,,,,,,,,,,,,,,,,,,,,,,,,,,,,,,,,,,
0,88,88,51,1,,5d34ab54c374970001e8b76b,62c539134fe15b429b53c7bc,2022-07-06_09h26.28.596,Colour_Asymmetry_Pilot,2022.1.3,Win32,143.5132032,62c50e9c1127f2cd403a315f,,,,,,,,,,,,,,,,,,,,,,,,,,,,,,,,,,,,,,,,,,,,,,,,,,,,,,,,,,,,,,,,,,,,,,,,,,,,,,,,,,,,,,,,,,,,,,,,,,,,,,,,,,,,,,,,,,,,,,,,,,,,,,,,,,,,,,,,,,,,,,,,,,,,,,,,,,,,,,,,,,,
0,89,89,16,1,,5d34ab54c374970001e8b76b,62c539134fe15b429b53c7bc,2022-07-06_09h26.28.596,Colour_Asymmetry_Pilot,2022.1.3,Win32,143.5132032,62c50e9c1127f2cd403a315f,,,,,,,,,,,,,,,,,,,,,,,,,,,,,,,,,,,,,,,,,,,,,,,,,,,,,,,,,,,,,,,,,,,,,,,,,,,,,,,,,,,,,,,,,,,,,,,,,,,,,,,,,,,,,,,,,,,,,,,,,,,,,,,,,,,,,,,,,,,,,,,,,,,,,,,,,,,,,,,,,,,
0,90,90,45,1,,5d34ab54c374970001e8b76b,62c539134fe15b429b53c7bc,2022-07-06_09h26.28.596,Colour_Asymmetry_Pilot,2022.1.3,Win32,143.5132032,62c50e9c1127f2cd403a315f,,,,,,,,,,,,,,,,,,,,,,,,,,,,,,,,,,,,,,,,,,,,,,,,,,,,,,,,,,,,,,,,,,,,,,,,,,,,,,,,,,,,,,,,,,,,,,,,,,,,,,,,,,,,,,,,,,,,,,,,,,,,,,,,,,,,,,,,,,,,,,,,,,,,,,,,,,,,,,,,,,,
0,91,91,73,1,,5d34ab54c374970001e8b76b,62c539134fe15b429b53c7bc,2022-07-06_09h26.28.596,Colour_Asymmetry_Pilot,2022.1.3,Win32,143.5132032,62c50e9c1127f2cd403a315f,,,,,,,,,,,,,,,,,,,,,,,,,,,,,,,,,,,,,,,,,,,,,,,,,,,,,,,,,,,,,,,,,,,,,,,,,,,,,,,,,,,,,,,,,,,,,,,,,,,,,,,,,,,,,,,,,,,,,,,,,,,,,,,,,,,,,,,,,,,,,,,,,,,,,,,,,,,,,,,,,,,
0,92,92,88,1,,5d34ab54c374970001e8b76b,62c539134fe15b429b53c7bc,2022-07-06_09h26.28.596,Colour_Asymmetry_Pilot,2022.1.3,Win32,143.5132032,62c50e9c1127f2cd403a315f,,,,,,,,,,,,,,,,,,,,,,,,,,,,,,,,,,,,,,,,,,,,,,,,,,,,,,,,,,,,,,,,,,,,,,,,,,,,,,,,,,,,,,,,,,,,,,,,,,,,,,,,,,,,,,,,,,,,,,,,,,,,,,,,,,,,,,,,,,,,,,,,,,,,,,,,,,,,,,,,,,,
,,,,,,5d34ab54c374970001e8b76b,62c539134fe15b429b53c7bc,2022-07-06_09h26.28.596,Colour_Asymmetry_Pilot,2022.1.3,Win32,143.5132032,62c50e9c1127f2cd403a315f,0,0,0,116,1,threeone,,,,,,,,,,,,,,,,,,,,,,,,,,,,,,,,,,,,,,,,,,,,,,,,,,,,,,,,,,,,,,,,,,,,,,,,,,,,,,,,,,,,,,,,,,,,,,,,,,,,,,,,,,,,,,,,,,,,,,,,,,,,,,,,,,,,,,,,,,,,,,,,,,,,,,,,,,,,,
,,,,,,5d34ab54c374970001e8b76b,62c539134fe15b429b53c7bc,2022-07-06_09h26.28.596,Colour_Asymmetry_Pilot,2022.1.3,Win32,143.5132032,62c50e9c1127f2cd403a315f,0,1,1,117,1,threefour,,,,,,,,,,,,,,,,,,,,,,,,,,,,,,,,,,,,,,,,,,,,,,,,,,,,,,,,,,,,,,,,,,,,,,,,,,,,,,,,,,,,,,,,,,,,,,,,,,,,,,,,,,,,,,,,,,,,,,,,,,,,,,,,,,,,,,,,,,,,,,,,,,,,,,,,,,,,,
,,,,,,5d34ab54c374970001e8b76b,62c539134fe15b429b53c7bc,2022-07-06_09h26.28.596,Colour_Asymmetry_Pilot,2022.1.3,Win32,143.5132032,62c50e9c1127f2cd403a315f,0,2,2,24,1,onetwo,,,,,,,,,,,,,,,,,,,,,,,,,,,,,,,,,,,,,,,,,,,,,,,,,,,,,,,,,,,,,,,,,,,,,,,,,,,,,,,,,,,,,,,,,,,,,,,,,,,,,,,,,,,,,,,,,,,,,,,,,,,,,,,,,,,,,,,,,,,,,,,,,,,,,,,,,,,,,
,,,,,,5d34ab54c374970001e8b76b,62c539134fe15b429b53c7bc,2022-07-06_09h26.28.596,Colour_Asymmetry_Pilot,2022.1.3,Win32,143.5132032,62c50e9c1127f2cd403a315f,0,3,3,53,1,threefour,,,,,,,,,,,,,,,,,,,,,,,,,,,,,,,,,,,,,,,,,,,,,,,,,,,,,,,,,,,,,,,,,,,,,,,,,,,,,,,,,,,,,,,,,,,,,,,,,,,,,,,,,,,,,,,,,,,,,,,,,,,,,,,,,,,,,,,,,,,,,,,,,,,,,,,,,,,,,
,,,,,,5d34ab54c374970001e8b76b,62c539134fe15b429b53c7bc,2022-07-06_09h26.28.596,Colour_Asymmetry_Pilot,2022.1.3,Win32,143.5132032,62c50e9c1127f2cd403a315f,0,4,4,151,1,fourthree,,,,,,,,,,,,,,,,,,,,,,,,,,,,,,,,,,,,,,,,,,,,,,,,,,,,,,,,,,,,,,,,,,,,,,,,,,,,,,,,,,,,,,,,,,,,,,,,,,,,,,,,,,,,,,,,,,,,,,,,,,,,,,,,,,,,,,,,,,,,,,,,,,,,,,,,,,,,,
,,,,,,5d34ab54c374970001e8b76b,62c539134fe15b429b53c7bc,2022-07-06_09h26.28.596,Colour_Asymmetry_Pilot,2022.1.3,Win32,143.5132032,62c50e9c1127f2cd403a315f,0,5,5,126,1,fourtwo,,,,,,,,,,,,,,,,,,,,,,,,,,,,,,,,,,,,,,,,,,,,,,,,,,,,,,,,,,,,,,,,,,,,,,,,,,,,,,,,,,,,,,,,,,,,,,,,,,,,,,,,,,,,,,,,,,,,,,,,,,,,,,,,,,,,,,,,,,,,,,,,,,,,,,,,,,,,,
,,,,,,5d34ab54c374970001e8b76b,62c539134fe15b429b53c7bc,2022-07-06_09h26.28.596,Colour_Asymmetry_Pilot,2022.1.3,Win32,143.5132032,62c50e9c1127f2cd403a315f,0,6,6,102,1,fourtwo,,,,,,,,,,,,,,,,,,,,,,,,,,,,,,,,,,,,,,,,,,,,,,,,,,,,,,,,,,,,,,,,,,,,,,,,,,,,,,,,,,,,,,,,,,,,,,,,,,,,,,,,,,,,,,,,,,,,,,,,,,,,,,,,,,,,,,,,,,,,,,,,,,,,,,,,,,,,,
,,,,,,5d34ab54c374970001e8b76b,62c539134fe15b429b53c7bc,2022-07-06_09h26.28.596,Colour_Asymmetry_Pilot,2022.1.3,Win32,143.5132032,62c50e9c1127f2cd403a315f,0,7,7,68,1,threeone,,,,,,,,,,,,,,,,,,,,,,,,,,,,,,,,,,,,,,,,,,,,,,,,,,,,,,,,,,,,,,,,,,,,,,,,,,,,,,,,,,,,,,,,,,,,,,,,,,,,,,,,,,,,,,,,,,,,,,,,,,,,,,,,,,,,,,,,,,,,,,,,,,,,,,,,,,,,,
,,,,,,5d34ab54c374970001e8b76b,62c539134fe15b429b53c7bc,2022-07-06_09h26.28.596,Colour_Asymmetry_Pilot,2022.1.3,Win32,143.5132032,62c50e9c1127f2cd403a315f,0,8,8,105,1,onethree,,,,,,,,,,,,,,,,,,,,,,,,,,,,,,,,,,,,,,,,,,,,,,,,,,,,,,,,,,,,,,,,,,,,,,,,,,,,,,,,,,,,,,,,,,,,,,,,,,,,,,,,,,,,,,,,,,,,,,,,,,,,,,,,,,,,,,,,,,,,,,,,,,,,,,,,,,,,,
,,,,,,5d34ab54c374970001e8b76b,62c539134fe15b429b53c7bc,2022-07-06_09h26.28.596,Colour_Asymmetry_Pilot,2022.1.3,Win32,143.5132032,62c50e9c1127f2cd403a315f,0,9,9,18,1,twoone,,,,,,,,,,,,,,,,,,,,,,,,,,,,,,,,,,,,,,,,,,,,,,,,,,,,,,,,,,,,,,,,,,,,,,,,,,,,,,,,,,,,,,,,,,,,,,,,,,,,,,,,,,,,,,,,,,,,,,,,,,,,,,,,,,,,,,,,,,,,,,,,,,,,,,,,,,,,,
,,,,,,5d34ab54c374970001e8b76b,62c539134fe15b429b53c7bc,2022-07-06_09h26.28.596,Colour_Asymmetry_Pilot,2022.1.3,Win32,143.5132032,62c50e9c1127f2cd403a315f,0,10,10,89,1,onethree,,,,,,,,,,,,,,,,,,,,,,,,,,,,,,,,,,,,,,,,,,,,,,,,,,,,,,,,,,,,,,,,,,,,,,,,,,,,,,,,,,,,,,,,,,,,,,,,,,,,,,,,,,,,,,,,,,,,,,,,,,,,,,,,,,,,,,,,,,,,,,,,,,,,,,,,,,,,,
,,,,,,5d34ab54c374970001e8b76b,62c539134fe15b429b53c7bc,2022-07-06_09h26.28.596,Colour_Asymmetry_Pilot,2022.1.3,Win32,143.5132032,62c50e9c1127f2cd403a315f,0,11,11,66,1,twoone,,,,,,,,,,,,,,,,,,,,,,,,,,,,,,,,,,,,,,,,,,,,,,,,,,,,,,,,,,,,,,,,,,,,,,,,,,,,,,,,,,,,,,,,,,,,,,,,,,,,,,,,,,,,,,,,,,,,,,,,,,,,,,,,,,,,,,,,,,,,,,,,,,,,,,,,,,,,,
,,,,,,5d34ab54c374970001e8b76b,62c539134fe15b429b53c7bc,2022-07-06_09h26.28.596,Colour_Asymmetry_Pilot,2022.1.3,Win32,143.5132032,62c50e9c1127f2cd403a315f,0,12,12,2,1,twoone,,,,,,,,,,,,,,,,,,,,,,,,,,,,,,,,,,,,,,,,,,,,,,,,,,,,,,,,,,,,,,,,,,,,,,,,,,,,,,,,,,,,,,,,,,,,,,,,,,,,,,,,,,,,,,,,,,,,,,,,,,,,,,,,,,,,,,,,,,,,,,,,,,,,,,,,,,,,,
,,,,,,5d34ab54c374970001e8b76b,62c539134fe15b429b53c7bc,2022-07-06_09h26.28.596,Colour_Asymmetry_Pilot,2022.1.3,Win32,143.5132032,62c50e9c1127f2cd403a315f,0,13,13,37,1,threefour,,,,,,,,,,,,,,,,,,,,,,,,,,,,,,,,,,,,,,,,,,,,,,,,,,,,,,,,,,,,,,,,,,,,,,,,,,,,,,,,,,,,,,,,,,,,,,,,,,,,,,,,,,,,,,,,,,,,,,,,,,,,,,,,,,,,,,,,,,,,,,,,,,,,,,,,,,,,,
,,,,,,5d34ab54c374970001e8b76b,62c539134fe15b429b53c7bc,2022-07-06_09h26.28.596,Colour_Asymmetry_Pilot,2022.1.3,Win32,143.5132032,62c50e9c1127f2cd403a315f,0,14,14,57,1,onethree,,,,,,,,,,,,,,,,,,,,,,,,,,,,,,,,,,,,,,,,,,,,,,,,,,,,,,,,,,,,,,,,,,,,,,,,,,,,,,,,,,,,,,,,,,,,,,,,,,,,,,,,,,,,,,,,,,,,,,,,,,,,,,,,,,,,,,,,,,,,,,,,,,,,,,,,,,,,,
,,,,,,5d34ab54c374970001e8b76b,62c539134fe15b429b53c7bc,2022-07-06_09h26.28.596,Colour_Asymmetry_Pilot,2022.1.3,Win32,143.5132032,62c50e9c1127f2cd403a315f,0,15,15,30,1,fourtwo,,,,,,,,,,,,,,,,,,,,,,,,,,,,,,,,,,,,,,,,,,,,,,,,,,,,,,,,,,,,,,,,,,,,,,,,,,,,,,,,,,,,,,,,,,,,,,,,,,,,,,,,,,,,,,,,,,,,,,,,,,,,,,,,,,,,,,,,,,,,,,,,,,,,,,,,,,,,,
,,,,,,5d34ab54c374970001e8b76b,62c539134fe15b429b53c7bc,2022-07-06_09h26.28.596,Colour_Asymmetry_Pilot,2022.1.3,Win32,143.5132032,62c50e9c1127f2cd403a315f,0,16,16,36,1,threeone,,,,,,,,,,,,,,,,,,,,,,,,,,,,,,,,,,,,,,,,,,,,,,,,,,,,,,,,,,,,,,,,,,,,,,,,,,,,,,,,,,,,,,,,,,,,,,,,,,,,,,,,,,,,,,,,,,,,,,,,,,,,,,,,,,,,,,,,,,,,,,,,,,,,,,,,,,,,,
,,,,,,5d34ab54c374970001e8b76b,62c539134fe15b429b53c7bc,2022-07-06_09h26.28.596,Colour_Asymmetry_Pilot,2022.1.3,Win32,143.5132032,62c50e9c1127f2cd403a315f,0,17,17,99,1,twofour,,,,,,,,,,,,,,,,,,,,,,,,,,,,,,,,,,,,,,,,,,,,,,,,,,,,,,,,,,,,,,,,,,,,,,,,,,,,,,,,,,,,,,,,,,,,,,,,,,,,,,,,,,,,,,,,,,,,,,,,,,,,,,,,,,,,,,,,,,,,,,,,,,,,,,,,,,,,,
,,,,,,5d34ab54c374970001e8b76b,62c539134fe15b429b53c7bc,2022-07-06_09h26.28.596,Colour_Asymmetry_Pilot,2022.1.3,Win32,143.5132032,62c50e9c1127f2cd403a315f,0,18,18,33,1,onethree,,,,,,,,,,,,,,,,,,,,,,,,,,,,,,,,,,,,,,,,,,,,,,,,,,,,,,,,,,,,,,,,,,,,,,,,,,,,,,,,,,,,,,,,,,,,,,,,,,,,,,,,,,,,,,,,,,,,,,,,,,,,,,,,,,,,,,,,,,,,,,,,,,,,,,,,,,,,,
,,,,,,5d34ab54c374970001e8b76b,62c539134fe15b429b53c7bc,2022-07-06_09h26.28.596,Colour_Asymmetry_Pilot,2022.1.3,Win32,143.5132032,62c50e9c1127f2cd403a315f,0,19,19,94,1,fourtwo,,,,,,,,,,,,,,,,,,,,,,,,,,,,,,,,,,,,,,,,,,,,,,,,,,,,,,,,,,,,,,,,,,,,,,,,,,,,,,,,,,,,,,,,,,,,,,,,,,,,,,,,,,,,,,,,,,,,,,,,,,,,,,,,,,,,,,,,,,,,,,,,,,,,,,,,,,,,,
,,,,,,5d34ab54c374970001e8b76b,62c539134fe15b429b53c7bc,2022-07-06_09h26.28.596,Colour_Asymmetry_Pilot,2022.1.3,Win32,143.5132032,62c50e9c1127f2cd403a315f,0,20,20,11,1,twofour,,,,,,,,,,,,,,,,,,,,,,,,,,,,,,,,,,,,,,,,,,,,,,,,,,,,,,,,,,,,,,,,,,,,,,,,,,,,,,,,,,,,,,,,,,,,,,,,,,,,,,,,,,,,,,,,,,,,,,,,,,,,,,,,,,,,,,,,,,,,,,,,,,,,,,,,,,,,,
,,,,,,5d34ab54c374970001e8b76b,62c539134fe15b429b53c7bc,2022-07-06_09h26.28.596,Colour_Asymmetry_Pilot,2022.1.3,Win32,143.5132032,62c50e9c1127f2cd403a315f,0,21,21,155,1,twofour,,,,,,,,,,,,,,,,,,,,,,,,,,,,,,,,,,,,,,,,,,,,,,,,,,,,,,,,,,,,,,,,,,,,,,,,,,,,,,,,,,,,,,,,,,,,,,,,,,,,,,,,,,,,,,,,,,,,,,,,,,,,,,,,,,,,,,,,,,,,,,,,,,,,,,,,,,,,,
,,,,,,5d34ab54c374970001e8b76b,62c539134fe15b429b53c7bc,2022-07-06_09h26.28.596,Colour_Asymmetry_Pilot,2022.1.3,Win32,143.5132032,62c50e9c1127f2cd403a315f,0,22,22,152,1,onetwo,,,,,,,,,,,,,,,,,,,,,,,,,,,,,,,,,,,,,,,,,,,,,,,,,,,,,,,,,,,,,,,,,,,,,,,,,,,,,,,,,,,,,,,,,,,,,,,,,,,,,,,,,,,,,,,,,,,,,,,,,,,,,,,,,,,,,,,,,,,,,,,,,,,,,,,,,,,,,
,,,,,,5d34ab54c374970001e8b76b,62c539134fe15b429b53c7bc,2022-07-06_09h26.28.596,Colour_Asymmetry_Pilot,2022.1.3,Win32,143.5132032,62c50e9c1127f2cd403a315f,0,23,23,52,1,threeone,,,,,,,,,,,,,,,,,,,,,,,,,,,,,,,,,,,,,,,,,,,,,,,,,,,,,,,,,,,,,,,,,,,,,,,,,,,,,,,,,,,,,,,,,,,,,,,,,,,,,,,,,,,,,,,,,,,,,,,,,,,,,,,,,,,,,,,,,,,,,,,,,,,,,,,,,,,,,
,,,,,,5d34ab54c374970001e8b76b,62c539134fe15b429b53c7bc,2022-07-06_09h26.28.596,Colour_Asymmetry_Pilot,2022.1.3,Win32,143.5132032,62c50e9c1127f2cd403a315f,0,24,24,154,1,twoone,,,,,,,,,,,,,,,,,,,,,,,,,,,,,,,,,,,,,,,,,,,,,,,,,,,,,,,,,,,,,,,,,,,,,,,,,,,,,,,,,,,,,,,,,,,,,,,,,,,,,,,,,,,,,,,,,,,,,,,,,,,,,,,,,,,,,,,,,,,,,,,,,,,,,,,,,,,,,
,,,,,,5d34ab54c374970001e8b76b,62c539134fe15b429b53c7bc,2022-07-06_09h26.28.596,Colour_Asymmetry_Pilot,2022.1.3,Win32,143.5132032,62c50e9c1127f2cd403a315f,0,25,25,38,1,fourtwo,,,,,,,,,,,,,,,,,,,,,,,,,,,,,,,,,,,,,,,,,,,,,,,,,,,,,,,,,,,,,,,,,,,,,,,,,,,,,,,,,,,,,,,,,,,,,,,,,,,,,,,,,,,,,,,,,,,,,,,,,,,,,,,,,,,,,,,,,,,,,,,,,,,,,,,,,,,,,
,,,,,,5d34ab54c374970001e8b76b,62c539134fe15b429b53c7bc,2022-07-06_09h26.28.596,Colour_Asymmetry_Pilot,2022.1.3,Win32,143.5132032,62c50e9c1127f2cd403a315f,0,26,26,14,1,fourtwo,,,,,,,,,,,,,,,,,,,,,,,,,,,,,,,,,,,,,,,,,,,,,,,,,,,,,,,,,,,,,,,,,,,,,,,,,,,,,,,,,,,,,,,,,,,,,,,,,,,,,,,,,,,,,,,,,,,,,,,,,,,,,,,,,,,,,,,,,,,,,,,,,,,,,,,,,,,,,
,,,,,,5d34ab54c374970001e8b76b,62c539134fe15b429b53c7bc,2022-07-06_09h26.28.596,Colour_Asymmetry_Pilot,2022.1.3,Win32,143.5132032,62c50e9c1127f2cd403a315f,0,27,27,82,1,twoone,,,,,,,,,,,,,,,,,,,,,,,,,,,,,,,,,,,,,,,,,,,,,,,,,,,,,,,,,,,,,,,,,,,,,,,,,,,,,,,,,,,,,,,,,,,,,,,,,,,,,,,,,,,,,,,,,,,,,,,,,,,,,,,,,,,,,,,,,,,,,,,,,,,,,,,,,,,,,
,,,,,,5d34ab54c374970001e8b76b,62c539134fe15b429b53c7bc,2022-07-06_09h26.28.596,Colour_Asymmetry_Pilot,2022.1.3,Win32,143.5132032,62c50e9c1127f2cd403a315f,0,28,28,23,1,fourthree,,,,,,,,,,,,,,,,,,,,,,,,,,,,,,,,,,,,,,,,,,,,,,,,,,,,,,,,,,,,,,,,,,,,,,,,,,,,,,,,,,,,,,,,,,,,,,,,,,,,,,,,,,,,,,,,,,,,,,,,,,,,,,,,,,,,,,,,,,,,,,,,,,,,,,,,,,,,,
,,,,,,5d34ab54c374970001e8b76b,62c539134fe15b429b53c7bc,2022-07-06_09h26.28.596,Colour_Asymmetry_Pilot,2022.1.3,Win32,143.5132032,62c50e9c1127f2cd403a315f,0,29,29,10,1,twoone,,,,,,,,,,,,,,,,,,,,,,,,,,,,,,,,,,,,,,,,,,,,,,,,,,,,,,,,,,,,,,,,,,,,,,,,,,,,,,,,,,,,,,,,,,,,,,,,,,,,,,,,,,,,,,,,,,,,,,,,,,,,,,,,,,,,,,,,,,,,,,,,,,,,,,,,,,,,,
,,,,,,5d34ab54c374970001e8b76b,62c539134fe15b429b53c7bc,2022-07-06_09h26.28.596,Colour_Asymmetry_Pilot,2022.1.3,Win32,143.5132032,62c50e9c1127f2cd403a315f,0,30,30,9,1,onethree,,,,,,,,,,,,,,,,,,,,,,,,,,,,,,,,,,,,,,,,,,,,,,,,,,,,,,,,,,,,,,,,,,,,,,,,,,,,,,,,,,,,,,,,,,,,,,,,,,,,,,,,,,,,,,,,,,,,,,,,,,,,,,,,,,,,,,,,,,,,,,,,,,,,,,,,,,,,,
,,,,,,5d34ab54c374970001e8b76b,62c539134fe15b429b53c7bc,2022-07-06_09h26.28.596,Colour_Asymmetry_Pilot,2022.1.3,Win32,143.5132032,62c50e9c1127f2cd403a315f,0,31,31,40,1,onetwo,,,,,,,,,,,,,,,,,,,,,,,,,,,,,,,,,,,,,,,,,,,,,,,,,,,,,,,,,,,,,,,,,,,,,,,,,,,,,,,,,,,,,,,,,,,,,,,,,,,,,,,,,,,,,,,,,,,,,,,,,,,,,,,,,,,,,,,,,,,,,,,,,,,,,,,,,,,,,
,,,,,,5d34ab54c374970001e8b76b,62c539134fe15b429b53c7bc,2022-07-06_09h26.28.596,Colour_Asymmetry_Pilot,2022.1.3,Win32,143.5132032,62c50e9c1127f2cd403a315f,0,32,32,65,1,onethree,,,,,,,,,,,,,,,,,,,,,,,,,,,,,,,,,,,,,,,,,,,,,,,,,,,,,,,,,,,,,,,,,,,,,,,,,,,,,,,,,,,,,,,,,,,,,,,,,,,,,,,,,,,,,,,,,,,,,,,,,,,,,,,,,,,,,,,,,,,,,,,,,,,,,,,,,,,,,
,,,,,,5d34ab54c374970001e8b76b,62c539134fe15b429b53c7bc,2022-07-06_09h26.28.596,Colour_Asymmetry_Pilot,2022.1.3,Win32,143.5132032,62c50e9c1127f2cd403a315f,0,33,33,46,1,fourtwo,,,,,,,,,,,,,,,,,,,,,,,,,,,,,,,,,,,,,,,,,,,,,,,,,,,,,,,,,,,,,,,,,,,,,,,,,,,,,,,,,,,,,,,,,,,,,,,,,,,,,,,,,,,,,,,,,,,,,,,,,,,,,,,,,,,,,,,,,,,,,,,,,,,,,,,,,,,,,
,,,,,,5d34ab54c374970001e8b76b,62c539134fe15b429b53c7bc,2022-07-06_09h26.28.596,Colour_Asymmetry_Pilot,2022.1.3,Win32,143.5132032,62c50e9c1127f2cd403a315f,0,34,34,110,1,fourtwo,,,,,,,,,,,,,,,,,,,,,,,,,,,,,,,,,,,,,,,,,,,,,,,,,,,,,,,,,,,,,,,,,,,,,,,,,,,,,,,,,,,,,,,,,,,,,,,,,,,,,,,,,,,,,,,,,,,,,,,,,,,,,,,,,,,,,,,,,,,,,,,,,,,,,,,,,,,,,
,,,,,,5d34ab54c374970001e8b76b,62c539134fe15b429b53c7bc,2022-07-06_09h26.28.596,Colour_Asymmetry_Pilot,2022.1.3,Win32,143.5132032,62c50e9c1127f2cd403a315f,0,35,35,158,1,fourtwo,,,,,,,,,,,,,,,,,,,,,,,,,,,,,,,,,,,,,,,,,,,,,,,,,,,,,,,,,,,,,,,,,,,,,,,,,,,,,,,,,,,,,,,,,,,,,,,,,,,,,,,,,,,,,,,,,,,,,,,,,,,,,,,,,,,,,,,,,,,,,,,,,,,,,,,,,,,,,
,,,,,,5d34ab54c374970001e8b76b,62c539134fe15b429b53c7bc,2022-07-06_09h26.28.596,Colour_Asymmetry_Pilot,2022.1.3,Win32,143.5132032,62c50e9c1127f2cd403a315f,0,36,36,85,1,threefour,,,,,,,,,,,,,,,,,,,,,,,,,,,,,,,,,,,,,,,,,,,,,,,,,,,,,,,,,,,,,,,,,,,,,,,,,,,,,,,,,,,,,,,,,,,,,,,,,,,,,,,,,,,,,,,,,,,,,,,,,,,,,,,,,,,,,,,,,,,,,,,,,,,,,,,,,,,,,
,,,,,,5d34ab54c374970001e8b76b,62c539134fe15b429b53c7bc,2022-07-06_09h26.28.596,Colour_Asymmetry_Pilot,2022.1.3,Win32,143.5132032,62c50e9c1127f2cd403a315f,0,37,37,70,1,fourtwo,,,,,,,,,,,,,,,,,,,,,,,,,,,,,,,,,,,,,,,,,,,,,,,,,,,,,,,,,,,,,,,,,,,,,,,,,,,,,,,,,,,,,,,,,,,,,,,,,,,,,,,,,,,,,,,,,,,,,,,,,,,,,,,,,,,,,,,,,,,,,,,,,,,,,,,,,,,,,
,,,,,,5d34ab54c374970001e8b76b,62c539134fe15b429b53c7bc,2022-07-06_09h26.28.596,Colour_Asymmetry_Pilot,2022.1.3,Win32,143.5132032,62c50e9c1127f2cd403a315f,0,38,38,83,1,twofour,,,,,,,,,,,,,,,,,,,,,,,,,,,,,,,,,,,,,,,,,,,,,,,,,,,,,,,,,,,,,,,,,,,,,,,,,,,,,,,,,,,,,,,,,,,,,,,,,,,,,,,,,,,,,,,,,,,,,,,,,,,,,,,,,,,,,,,,,,,,,,,,,,,,,,,,,,,,,
,,,,,,5d34ab54c374970001e8b76b,62c539134fe15b429b53c7bc,2022-07-06_09h26.28.596,Colour_Asymmetry_Pilot,2022.1.3,Win32,143.5132032,62c50e9c1127f2cd403a315f,0,39,39,139,1,twofour,,,,,,,,,,,,,,,,,,,,,,,,,,,,,,,,,,,,,,,,,,,,,,,,,,,,,,,,,,,,,,,,,,,,,,,,,,,,,,,,,,,,,,,,,,,,,,,,,,,,,,,,,,,,,,,,,,,,,,,,,,,,,,,,,,,,,,,,,,,,,,,,,,,,,,,,,,,,,
,,,,,,5d34ab54c374970001e8b76b,62c539134fe15b429b53c7bc,2022-07-06_09h26.28.596,Colour_Asymmetry_Pilot,2022.1.3,Win32,143.5132032,62c50e9c1127f2cd403a315f,0,40,40,138,1,twoone,,,,,,,,,,,,,,,,,,,,,,,,,,,,,,,,,,,,,,,,,,,,,,,,,,,,,,,,,,,,,,,,,,,,,,,,,,,,,,,,,,,,,,,,,,,,,,,,,,,,,,,,,,,,,,,,,,,,,,,,,,,,,,,,,,,,,,,,,,,,,,,,,,,,,,,,,,,,,
,,,,,,5d34ab54c374970001e8b76b,62c539134fe15b429b53c7bc,2022-07-06_09h26.28.596,Colour_Asymmetry_Pilot,2022.1.3,Win32,143.5132032,62c50e9c1127f2cd403a315f,0,41,41,142,1,fourtwo,,,,,,,,,,,,,,,,,,,,,,,,,,,,,,,,,,,,,,,,,,,,,,,,,,,,,,,,,,,,,,,,,,,,,,,,,,,,,,,,,,,,,,,,,,,,,,,,,,,,,,,,,,,,,,,,,,,,,,,,,,,,,,,,,,,,,,,,,,,,,,,,,,,,,,,,,,,,,
,,,,,,5d34ab54c374970001e8b76b,62c539134fe15b429b53c7bc,2022-07-06_09h26.28.596,Colour_Asymmetry_Pilot,2022.1.3,Win32,143.5132032,62c50e9c1127f2cd403a315f,0,42,42,133,1,threefour,,,,,,,,,,,,,,,,,,,,,,,,,,,,,,,,,,,,,,,,,,,,,,,,,,,,,,,,,,,,,,,,,,,,,,,,,,,,,,,,,,,,,,,,,,,,,,,,,,,,,,,,,,,,,,,,,,,,,,,,,,,,,,,,,,,,,,,,,,,,,,,,,,,,,,,,,,,,,
,,,,,,5d34ab54c374970001e8b76b,62c539134fe15b429b53c7bc,2022-07-06_09h26.28.596,Colour_Asymmetry_Pilot,2022.1.3,Win32,143.5132032,62c50e9c1127f2cd403a315f,0,43,43,73,1,onethree,,,,,,,,,,,,,,,,,,,,,,,,,,,,,,,,,,,,,,,,,,,,,,,,,,,,,,,,,,,,,,,,,,,,,,,,,,,,,,,,,,,,,,,,,,,,,,,,,,,,,,,,,,,,,,,,,,,,,,,,,,,,,,,,,,,,,,,,,,,,,,,,,,,,,,,,,,,,,
,,,,,,5d34ab54c374970001e8b76b,62c539134fe15b429b53c7bc,2022-07-06_09h26.28.596,Colour_Asymmetry_Pilot,2022.1.3,Win32,143.5132032,62c50e9c1127f2cd403a315f,0,44,44,130,1,twoone,,,,,,,,,,,,,,,,,,,,,,,,,,,,,,,,,,,,,,,,,,,,,,,,,,,,,,,,,,,,,,,,,,,,,,,,,,,,,,,,,,,,,,,,,,,,,,,,,,,,,,,,,,,,,,,,,,,,,,,,,,,,,,,,,,,,,,,,,,,,,,,,,,,,,,,,,,,,,
,,,,,,5d34ab54c374970001e8b76b,62c539134fe15b429b53c7bc,2022-07-06_09h26.28.596,Colour_Asymmetry_Pilot,2022.1.3,Win32,143.5132032,62c50e9c1127f2cd403a315f,0,45,45,56,1,onetwo,,,,,,,,,,,,,,,,,,,,,,,,,,,,,,,,,,,,,,,,,,,,,,,,,,,,,,,,,,,,,,,,,,,,,,,,,,,,,,,,,,,,,,,,,,,,,,,,,,,,,,,,,,,,,,,,,,,,,,,,,,,,,,,,,,,,,,,,,,,,,,,,,,,,,,,,,,,,,
,,,,,,5d34ab54c374970001e8b76b,62c539134fe15b429b53c7bc,2022-07-06_09h26.28.596,Colour_Asymmetry_Pilot,2022.1.3,Win32,143.5132032,62c50e9c1127f2cd403a315f,0,46,46,148,1,threeone,,,,,,,,,,,,,,,,,,,,,,,,,,,,,,,,,,,,,,,,,,,,,,,,,,,,,,,,,,,,,,,,,,,,,,,,,,,,,,,,,,,,,,,,,,,,,,,,,,,,,,,,,,,,,,,,,,,,,,,,,,,,,,,,,,,,,,,,,,,,,,,,,,,,,,,,,,,,,
,,,,,,5d34ab54c374970001e8b76b,62c539134fe15b429b53c7bc,2022-07-06_09h26.28.596,Colour_Asymmetry_Pilot,2022.1.3,Win32,143.5132032,62c50e9c1127f2cd403a315f,0,47,47,63,1,fourthree,,,,,,,,,,,,,,,,,,,,,,,,,,,,,,,,,,,,,,,,,,,,,,,,,,,,,,,,,,,,,,,,,,,,,,,,,,,,,,,,,,,,,,,,,,,,,,,,,,,,,,,,,,,,,,,,,,,,,,,,,,,,,,,,,,,,,,,,,,,,,,,,,,,,,,,,,,,,,
,,,,,,5d34ab54c374970001e8b76b,62c539134fe15b429b53c7bc,2022-07-06_09h26.28.596,Colour_Asymmetry_Pilot,2022.1.3,Win32,143.5132032,62c50e9c1127f2cd403a315f,0,48,48,0,1,onetwo,,,,,,,,,,,,,,,,,,,,,,,,,,,,,,,,,,,,,,,,,,,,,,,,,,,,,,,,,,,,,,,,,,,,,,,,,,,,,,,,,,,,,,,,,,,,,,,,,,,,,,,,,,,,,,,,,,,,,,,,,,,,,,,,,,,,,,,,,,,,,,,,,,,,,,,,,,,,,
,,,,,,5d34ab54c374970001e8b76b,62c539134fe15b429b53c7bc,2022-07-06_09h26.28.596,Colour_Asymmetry_Pilot,2022.1.3,Win32,143.5132032,62c50e9c1127f2cd403a315f,0,49,49,5,1,threefour,,,,,,,,,,,,,,,,,,,,,,,,,,,,,,,,,,,,,,,,,,,,,,,,,,,,,,,,,,,,,,,,,,,,,,,,,,,,,,,,,,,,,,,,,,,,,,,,,,,,,,,,,,,,,,,,,,,,,,,,,,,,,,,,,,,,,,,,,,,,,,,,,,,,,,,,,,,,,
,,,,,,5d34ab54c374970001e8b76b,62c539134fe15b429b53c7bc,2022-07-06_09h26.28.596,Colour_Asymmetry_Pilot,2022.1.3,Win32,143.5132032,62c50e9c1127f2cd403a315f,0,50,50,31,1,fourthree,,,,,,,,,,,,,,,,,,,,,,,,,,,,,,,,,,,,,,,,,,,,,,,,,,,,,,,,,,,,,,,,,,,,,,,,,,,,,,,,,,,,,,,,,,,,,,,,,,,,,,,,,,,,,,,,,,,,,,,,,,,,,,,,,,,,,,,,,,,,,,,,,,,,,,,,,,,,,
,,,,,,5d34ab54c374970001e8b76b,62c539134fe15b429b53c7bc,2022-07-06_09h26.28.596,Colour_Asymmetry_Pilot,2022.1.3,Win32,143.5132032,62c50e9c1127f2cd403a315f,0,51,51,26,1,twoone,,,,,,,,,,,,,,,,,,,,,,,,,,,,,,,,,,,,,,,,,,,,,,,,,,,,,,,,,,,,,,,,,,,,,,,,,,,,,,,,,,,,,,,,,,,,,,,,,,,,,,,,,,,,,,,,,,,,,,,,,,,,,,,,,,,,,,,,,,,,,,,,,,,,,,,,,,,,,
,,,,,,5d34ab54c374970001e8b76b,62c539134fe15b429b53c7bc,2022-07-06_09h26.28.596,Colour_Asymmetry_Pilot,2022.1.3,Win32,143.5132032,62c50e9c1127f2cd403a315f,0,52,52,62,1,fourtwo,,,,,,,,,,,,,,,,,,,,,,,,,,,,,,,,,,,,,,,,,,,,,,,,,,,,,,,,,,,,,,,,,,,,,,,,,,,,,,,,,,,,,,,,,,,,,,,,,,,,,,,,,,,,,,,,,,,,,,,,,,,,,,,,,,,,,,,,,,,,,,,,,,,,,,,,,,,,,
,,,,,,5d34ab54c374970001e8b76b,62c539134fe15b429b53c7bc,2022-07-06_09h26.28.596,Colour_Asymmetry_Pilot,2022.1.3,Win32,143.5132032,62c50e9c1127f2cd403a315f,0,53,53,64,1,onetwo,,,,,,,,,,,,,,,,,,,,,,,,,,,,,,,,,,,,,,,,,,,,,,,,,,,,,,,,,,,,,,,,,,,,,,,,,,,,,,,,,,,,,,,,,,,,,,,,,,,,,,,,,,,,,,,,,,,,,,,,,,,,,,,,,,,,,,,,,,,,,,,,,,,,,,,,,,,,,
,,,,,,5d34ab54c374970001e8b76b,62c539134fe15b429b53c7bc,2022-07-06_09h26.28.596,Colour_Asymmetry_Pilot,2022.1.3,Win32,143.5132032,62c50e9c1127f2cd403a315f,0,54,54,45,1,threefour,,,,,,,,,,,,,,,,,,,,,,,,,,,,,,,,,,,,,,,,,,,,,,,,,,,,,,,,,,,,,,,,,,,,,,,,,,,,,,,,,,,,,,,,,,,,,,,,,,,,,,,,,,,,,,,,,,,,,,,,,,,,,,,,,,,,,,,,,,,,,,,,,,,,,,,,,,,,,
,,,,,,5d34ab54c374970001e8b76b,62c539134fe15b429b53c7bc,2022-07-06_09h26.28.596,Colour_Asymmetry_Pilot,2022.1.3,Win32,143.5132032,62c50e9c1127f2cd403a315f,0,55,55,124,1,threeone,,,,,,,,,,,,,,,,,,,,,,,,,,,,,,,,,,,,,,,,,,,,,,,,,,,,,,,,,,,,,,,,,,,,,,,,,,,,,,,,,,,,,,,,,,,,,,,,,,,,,,,,,,,,,,,,,,,,,,,,,,,,,,,,,,,,,,,,,,,,,,,,,,,,,,,,,,,,,
,,,,,,5d34ab54c374970001e8b76b,62c539134fe15b429b53c7bc,2022-07-06_09h26.28.596,Colour_Asymmetry_Pilot,2022.1.3,Win32,143.5132032,62c50e9c1127f2cd403a315f,0,56,56,103,1,fourthree,,,,,,,,,,,,,,,,,,,,,,,,,,,,,,,,,,,,,,,,,,,,,,,,,,,,,,,,,,,,,,,,,,,,,,,,,,,,,,,,,,,,,,,,,,,,,,,,,,,,,,,,,,,,,,,,,,,,,,,,,,,,,,,,,,,,,,,,,,,,,,,,,,,,,,,,,,,,,
,,,,,,5d34ab54c374970001e8b76b,62c539134fe15b429b53c7bc,2022-07-06_09h26.28.596,Colour_Asymmetry_Pilot,2022.1.3,Win32,143.5132032,62c50e9c1127f2cd403a315f,0,57,57,101,1,threefour,,,,,,,,,,,,,,,,,,,,,,,,,,,,,,,,,,,,,,,,,,,,,,,,,,,,,,,,,,,,,,,,,,,,,,,,,,,,,,,,,,,,,,,,,,,,,,,,,,,,,,,,,,,,,,,,,,,,,,,,,,,,,,,,,,,,,,,,,,,,,,,,,,,,,,,,,,,,,
,,,,,,5d34ab54c374970001e8b76b,62c539134fe15b429b53c7bc,2022-07-06_09h26.28.596,Colour_Asymmetry_Pilot,2022.1.3,Win32,143.5132032,62c50e9c1127f2cd403a315f,0,58,58,125,1,threefour,,,,,,,,,,,,,,,,,,,,,,,,,,,,,,,,,,,,,,,,,,,,,,,,,,,,,,,,,,,,,,,,,,,,,,,,,,,,,,,,,,,,,,,,,,,,,,,,,,,,,,,,,,,,,,,,,,,,,,,,,,,,,,,,,,,,,,,,,,,,,,,,,,,,,,,,,,,,,
,,,,,,5d34ab54c374970001e8b76b,62c539134fe15b429b53c7bc,2022-07-06_09h26.28.596,Colour_Asymmetry_Pilot,2022.1.3,Win32,143.5132032,62c50e9c1127f2cd403a315f,0,59,59,74,1,twoone,,,,,,,,,,,,,,,,,,,,,,,,,,,,,,,,,,,,,,,,,,,,,,,,,,,,,,,,,,,,,,,,,,,,,,,,,,,,,,,,,,,,,,,,,,,,,,,,,,,,,,,,,,,,,,,,,,,,,,,,,,,,,,,,,,,,,,,,,,,,,,,,,,,,,,,,,,,,,
,,,,,,5d34ab54c374970001e8b76b,62c539134fe15b429b53c7bc,2022-07-06_09h26.28.596,Colour_Asymmetry_Pilot,2022.1.3,Win32,143.5132032,62c50e9c1127f2cd403a315f,0,60,60,16,1,onetwo,,,,,,,,,,,,,,,,,,,,,,,,,,,,,,,,,,,,,,,,,,,,,,,,,,,,,,,,,,,,,,,,,,,,,,,,,,,,,,,,,,,,,,,,,,,,,,,,,,,,,,,,,,,,,,,,,,,,,,,,,,,,,,,,,,,,,,,,,,,,,,,,,,,,,,,,,,,,,
,,,,,,5d34ab54c374970001e8b76b,62c539134fe15b429b53c7bc,2022-07-06_09h26.28.596,Colour_Asymmetry_Pilot,2022.1.3,Win32,143.5132032,62c50e9c1127f2cd403a315f,0,61,61,4,1,threeone,,,,,,,,,,,,,,,,,,,,,,,,,,,,,,,,,,,,,,,,,,,,,,,,,,,,,,,,,,,,,,,,,,,,,,,,,,,,,,,,,,,,,,,,,,,,,,,,,,,,,,,,,,,,,,,,,,,,,,,,,,,,,,,,,,,,,,,,,,,,,,,,,,,,,,,,,,,,,
,,,,,,5d34ab54c374970001e8b76b,62c539134fe15b429b53c7bc,2022-07-06_09h26.28.596,Colour_Asymmetry_Pilot,2022.1.3,Win32,143.5132032,62c50e9c1127f2cd403a315f,0,62,62,153,1,onethree,,,,,,,,,,,,,,,,,,,,,,,,,,,,,,,,,,,,,,,,,,,,,,,,,,,,,,,,,,,,,,,,,,,,,,,,,,,,,,,,,,,,,,,,,,,,,,,,,,,,,,,,,,,,,,,,,,,,,,,,,,,,,,,,,,,,,,,,,,,,,,,,,,,,,,,,,,,,,
,,,,,,5d34ab54c374970001e8b76b,62c539134fe15b429b53c7bc,2022-07-06_09h26.28.596,Colour_Asymmetry_Pilot,2022.1.3,Win32,143.5132032,62c50e9c1127f2cd403a315f,0,63,63,123,1,twofour,,,,,,,,,,,,,,,,,,,,,,,,,,,,,,,,,,,,,,,,,,,,,,,,,,,,,,,,,,,,,,,,,,,,,,,,,,,,,,,,,,,,,,,,,,,,,,,,,,,,,,,,,,,,,,,,,,,,,,,,,,,,,,,,,,,,,,,,,,,,,,,,,,,,,,,,,,,,,
,,,,,,5d34ab54c374970001e8b76b,62c539134fe15b429b53c7bc,2022-07-06_09h26.28.596,Colour_Asymmetry_Pilot,2022.1.3,Win32,143.5132032,62c50e9c1127f2cd403a315f,0,64,64,28,1,threeone,,,,,,,,,,,,,,,,,,,,,,,,,,,,,,,,,,,,,,,,,,,,,,,,,,,,,,,,,,,,,,,,,,,,,,,,,,,,,,,,,,,,,,,,,,,,,,,,,,,,,,,,,,,,,,,,,,,,,,,,,,,,,,,,,,,,,,,,,,,,,,,,,,,,,,,,,,,,,
,,,,,,5d34ab54c374970001e8b76b,62c539134fe15b429b53c7bc,2022-07-06_09h26.28.596,Colour_Asymmetry_Pilot,2022.1.3,Win32,143.5132032,62c50e9c1127f2cd403a315f,0,65,65,69,1,threefour,,,,,,,,,,,,,,,,,,,,,,,,,,,,,,,,,,,,,,,,,,,,,,,,,,,,,,,,,,,,,,,,,,,,,,,,,,,,,,,,,,,,,,,,,,,,,,,,,,,,,,,,,,,,,,,,,,,,,,,,,,,,,,,,,,,,,,,,,,,,,,,,,,,,,,,,,,,,,
,,,,,,5d34ab54c374970001e8b76b,62c539134fe15b429b53c7bc,2022-07-06_09h26.28.596,Colour_Asymmetry_Pilot,2022.1.3,Win32,143.5132032,62c50e9c1127f2cd403a315f,0,66,66,51,1,twofour,,,,,,,,,,,,,,,,,,,,,,,,,,,,,,,,,,,,,,,,,,,,,,,,,,,,,,,,,,,,,,,,,,,,,,,,,,,,,,,,,,,,,,,,,,,,,,,,,,,,,,,,,,,,,,,,,,,,,,,,,,,,,,,,,,,,,,,,,,,,,,,,,,,,,,,,,,,,,
,,,,,,5d34ab54c374970001e8b76b,62c539134fe15b429b53c7bc,2022-07-06_09h26.28.596,Colour_Asymmetry_Pilot,2022.1.3,Win32,143.5132032,62c50e9c1127f2cd403a315f,0,67,67,97,1,onethree,,,,,,,,,,,,,,,,,,,,,,,,,,,,,,,,,,,,,,,,,,,,,,,,,,,,,,,,,,,,,,,,,,,,,,,,,,,,,,,,,,,,,,,,,,,,,,,,,,,,,,,,,,,,,,,,,,,,,,,,,,,,,,,,,,,,,,,,,,,,,,,,,,,,,,,,,,,,,
,,,,,,5d34ab54c374970001e8b76b,62c539134fe15b429b53c7bc,2022-07-06_09h26.28.596,Colour_Asymmetry_Pilot,2022.1.3,Win32,143.5132032,62c50e9c1127f2cd403a315f,0,68,68,12,1,threeone,,,,,,,,,,,,,,,,,,,,,,,,,,,,,,,,,,,,,,,,,,,,,,,,,,,,,,,,,,,,,,,,,,,,,,,,,,,,,,,,,,,,,,,,,,,,,,,,,,,,,,,,,,,,,,,,,,,,,,,,,,,,,,,,,,,,,,,,,,,,,,,,,,,,,,,,,,,,,
,,,,,,5d34ab54c374970001e8b76b,62c539134fe15b429b53c7bc,2022-07-06_09h26.28.596,Colour_Asymmetry_Pilot,2022.1.3,Win32,143.5132032,62c50e9c1127f2cd403a315f,0,69,69,55,1,fourthree,,,,,,,,,,,,,,,,,,,,,,,,,,,,,,,,,,,,,,,,,,,,,,,,,,,,,,,,,,,,,,,,,,,,,,,,,,,,,,,,,,,,,,,,,,,,,,,,,,,,,,,,,,,,,,,,,,,,,,,,,,,,,,,,,,,,,,,,,,,,,,,,,,,,,,,,,,,,,
,,,,,,5d34ab54c374970001e8b76b,62c539134fe15b429b53c7bc,2022-07-06_09h26.28.596,Colour_Asymmetry_Pilot,2022.1.3,Win32,143.5132032,62c50e9c1127f2cd403a315f,0,70,70,92,1,threeone,,,,,,,,,,,,,,,,,,,,,,,,,,,,,,,,,,,,,,,,,,,,,,,,,,,,,,,,,,,,,,,,,,,,,,,,,,,,,,,,,,,,,,,,,,,,,,,,,,,,,,,,,,,,,,,,,,,,,,,,,,,,,,,,,,,,,,,,,,,,,,,,,,,,,,,,,,,,,
,,,,,,5d34ab54c374970001e8b76b,62c539134fe15b429b53c7bc,2022-07-06_09h26.28.596,Colour_Asymmetry_Pilot,2022.1.3,Win32,143.5132032,62c50e9c1127f2cd403a315f,0,71,71,128,1,onetwo,,,,,,,,,,,,,,,,,,,,,,,,,,,,,,,,,,,,,,,,,,,,,,,,,,,,,,,,,,,,,,,,,,,,,,,,,,,,,,,,,,,,,,,,,,,,,,,,,,,,,,,,,,,,,,,,,,,,,,,,,,,,,,,,,,,,,,,,,,,,,,,,,,,,,,,,,,,,,
,,,,,,5d34ab54c374970001e8b76b,62c539134fe15b429b53c7bc,2022-07-06_09h26.28.596,Colour_Asymmetry_Pilot,2022.1.3,Win32,143.5132032,62c50e9c1127f2cd403a315f,0,72,72,135,1,fourthree,,,,,,,,,,,,,,,,,,,,,,,,,,,,,,,,,,,,,,,,,,,,,,,,,,,,,,,,,,,,,,,,,,,,,,,,,,,,,,,,,,,,,,,,,,,,,,,,,,,,,,,,,,,,,,,,,,,,,,,,,,,,,,,,,,,,,,,,,,,,,,,,,,,,,,,,,,,,,
,,,,,,5d34ab54c374970001e8b76b,62c539134fe15b429b53c7bc,2022-07-06_09h26.28.596,Colour_Asymmetry_Pilot,2022.1.3,Win32,143.5132032,62c50e9c1127f2cd403a315f,0,73,73,146,1,twoone,,,,,,,,,,,,,,,,,,,,,,,,,,,,,,,,,,,,,,,,,,,,,,,,,,,,,,,,,,,,,,,,,,,,,,,,,,,,,,,,,,,,,,,,,,,,,,,,,,,,,,,,,,,,,,,,,,,,,,,,,,,,,,,,,,,,,,,,,,,,,,,,,,,,,,,,,,,,,
,,,,,,5d34ab54c374970001e8b76b,62c539134fe15b429b53c7bc,2022-07-06_09h26.28.596,Colour_Asymmetry_Pilot,2022.1.3,Win32,143.5132032,62c50e9c1127f2cd403a315f,0,74,74,127,1,fourthree,,,,,,,,,,,,,,,,,,,,,,,,,,,,,,,,,,,,,,,,,,,,,,,,,,,,,,,,,,,,,,,,,,,,,,,,,,,,,,,,,,,,,,,,,,,,,,,,,,,,,,,,,,,,,,,,,,,,,,,,,,,,,,,,,,,,,,,,,,,,,,,,,,,,,,,,,,,,,
,,,,,,5d34ab54c374970001e8b76b,62c539134fe15b429b53c7bc,2022-07-06_09h26.28.596,Colour_Asymmetry_Pilot,2022.1.3,Win32,143.5132032,62c50e9c1127f2cd403a315f,0,75,75,78,1,fourtwo,,,,,,,,,,,,,,,,,,,,,,,,,,,,,,,,,,,,,,,,,,,,,,,,,,,,,,,,,,,,,,,,,,,,,,,,,,,,,,,,,,,,,,,,,,,,,,,,,,,,,,,,,,,,,,,,,,,,,,,,,,,,,,,,,,,,,,,,,,,,,,,,,,,,,,,,,,,,,
,,,,,,5d34ab54c374970001e8b76b,62c539134fe15b429b53c7bc,2022-07-06_09h26.28.596,Colour_Asymmetry_Pilot,2022.1.3,Win32,143.5132032,62c50e9c1127f2cd403a315f,0,76,76,75,1,twofour,,,,,,,,,,,,,,,,,,,,,,,,,,,,,,,,,,,,,,,,,,,,,,,,,,,,,,,,,,,,,,,,,,,,,,,,,,,,,,,,,,,,,,,,,,,,,,,,,,,,,,,,,,,,,,,,,,,,,,,,,,,,,,,,,,,,,,,,,,,,,,,,,,,,,,,,,,,,,
,,,,,,5d34ab54c374970001e8b76b,62c539134fe15b429b53c7bc,2022-07-06_09h26.28.596,Colour_Asymmetry_Pilot,2022.1.3,Win32,143.5132032,62c50e9c1127f2cd403a315f,0,77,77,58,1,twoone,,,,,,,,,,,,,,,,,,,,,,,,,,,,,,,,,,,,,,,,,,,,,,,,,,,,,,,,,,,,,,,,,,,,,,,,,,,,,,,,,,,,,,,,,,,,,,,,,,,,,,,,,,,,,,,,,,,,,,,,,,,,,,,,,,,,,,,,,,,,,,,,,,,,,,,,,,,,,
,,,,,,5d34ab54c374970001e8b76b,62c539134fe15b429b53c7bc,2022-07-06_09h26.28.596,Colour_Asymmetry_Pilot,2022.1.3,Win32,143.5132032,62c50e9c1127f2cd403a315f,0,78,78,48,1,onetwo,,,,,,,,,,,,,,,,,,,,,,,,,,,,,,,,,,,,,,,,,,,,,,,,,,,,,,,,,,,,,,,,,,,,,,,,,,,,,,,,,,,,,,,,,,,,,,,,,,,,,,,,,,,,,,,,,,,,,,,,,,,,,,,,,,,,,,,,,,,,,,,,,,,,,,,,,,,,,
,,,,,,5d34ab54c374970001e8b76b,62c539134fe15b429b53c7bc,2022-07-06_09h26.28.596,Colour_Asymmetry_Pilot,2022.1.3,Win32,143.5132032,62c50e9c1127f2cd403a315f,0,79,79,147,1,twofour,,,,,,,,,,,,,,,,,,,,,,,,,,,,,,,,,,,,,,,,,,,,,,,,,,,,,,,,,,,,,,,,,,,,,,,,,,,,,,,,,,,,,,,,,,,,,,,,,,,,,,,,,,,,,,,,,,,,,,,,,,,,,,,,,,,,,,,,,,,,,,,,,,,,,,,,,,,,,
,,,,,,5d34ab54c374970001e8b76b,62c539134fe15b429b53c7bc,2022-07-06_09h26.28.596,Colour_Asymmetry_Pilot,2022.1.3,Win32,143.5132032,62c50e9c1127f2cd403a315f,0,80,80,15,1,fourthree,,,,,,,,,,,,,,,,,,,,,,,,,,,,,,,,,,,,,,,,,,,,,,,,,,,,,,,,,,,,,,,,,,,,,,,,,,,,,,,,,,,,,,,,,,,,,,,,,,,,,,,,,,,,,,,,,,,,,,,,,,,,,,,,,,,,,,,,,,,,,,,,,,,,,,,,,,,,,
,,,,,,5d34ab54c374970001e8b76b,62c539134fe15b429b53c7bc,2022-07-06_09h26.28.596,Colour_Asymmetry_Pilot,2022.1.3,Win32,143.5132032,62c50e9c1127f2cd403a315f,0,81,81,22,1,fourtwo,,,,,,,,,,,,,,,,,,,,,,,,,,,,,,,,,,,,,,,,,,,,,,,,,,,,,,,,,,,,,,,,,,,,,,,,,,,,,,,,,,,,,,,,,,,,,,,,,,,,,,,,,,,,,,,,,,,,,,,,,,,,,,,,,,,,,,,,,,,,,,,,,,,,,,,,,,,,,
,,,,,,5d34ab54c374970001e8b76b,62c539134fe15b429b53c7bc,2022-07-06_09h26.28.596,Colour_Asymmetry_Pilot,2022.1.3,Win32,143.5132032,62c50e9c1127f2cd403a315f,0,82,82,140,1,threeone,,,,,,,,,,,,,,,,,,,,,,,,,,,,,,,,,,,,,,,,,,,,,,,,,,,,,,,,,,,,,,,,,,,,,,,,,,,,,,,,,,,,,,,,,,,,,,,,,,,,,,,,,,,,,,,,,,,,,,,,,,,,,,,,,,,,,,,,,,,,,,,,,,,,,,,,,,,,,
,,,,,,5d34ab54c374970001e8b76b,62c539134fe15b429b53c7bc,2022-07-06_09h26.28.596,Colour_Asymmetry_Pilot,2022.1.3,Win32,143.5132032,62c50e9c1127f2cd403a315f,0,83,83,3,1,twofour,,,,,,,,,,,,,,,,,,,,,,,,,,,,,,,,,,,,,,,,,,,,,,,,,,,,,,,,,,,,,,,,,,,,,,,,,,,,,,,,,,,,,,,,,,,,,,,,,,,,,,,,,,,,,,,,,,,,,,,,,,,,,,,,,,,,,,,,,,,,,,,,,,,,,,,,,,,,,
,,,,,,5d34ab54c374970001e8b76b,62c539134fe15b429b53c7bc,2022-07-06_09h26.28.596,Colour_Asymmetry_Pilot,2022.1.3,Win32,143.5132032,62c50e9c1127f2cd403a315f,0,84,84,137,1,onethree,,,,,,,,,,,,,,,,,,,,,,,,,,,,,,,,,,,,,,,,,,,,,,,,,,,,,,,,,,,,,,,,,,,,,,,,,,,,,,,,,,,,,,,,,,,,,,,,,,,,,,,,,,,,,,,,,,,,,,,,,,,,,,,,,,,,,,,,,,,,,,,,,,,,,,,,,,,,,
,,,,,,5d34ab54c374970001e8b76b,62c539134fe15b429b53c7bc,2022-07-06_09h26.28.596,Colour_Asymmetry_Pilot,2022.1.3,Win32,143.5132032,62c50e9c1127f2cd403a315f,0,85,85,93,1,threefour,,,,,,,,,,,,,,,,,,,,,,,,,,,,,,,,,,,,,,,,,,,,,,,,,,,,,,,,,,,,,,,,,,,,,,,,,,,,,,,,,,,,,,,,,,,,,,,,,,,,,,,,,,,,,,,,,,,,,,,,,,,,,,,,,,,,,,,,,,,,,,,,,,,,,,,,,,,,,
,,,,,,5d34ab54c374970001e8b76b,62c539134fe15b429b53c7bc,2022-07-06_09h26.28.596,Colour_Asymmetry_Pilot,2022.1.3,Win32,143.5132032,62c50e9c1127f2cd403a315f,0,86,86,27,1,twofour,,,,,,,,,,,,,,,,,,,,,,,,,,,,,,,,,,,,,,,,,,,,,,,,,,,,,,,,,,,,,,,,,,,,,,,,,,,,,,,,,,,,,,,,,,,,,,,,,,,,,,,,,,,,,,,,,,,,,,,,,,,,,,,,,,,,,,,,,,,,,,,,,,,,,,,,,,,,,
,,,,,,5d34ab54c374970001e8b76b,62c539134fe15b429b53c7bc,2022-07-06_09h26.28.596,Colour_Asymmetry_Pilot,2022.1.3,Win32,143.5132032,62c50e9c1127f2cd403a315f,0,87,87,132,1,threeone,,,,,,,,,,,,,,,,,,,,,,,,,,,,,,,,,,,,,,,,,,,,,,,,,,,,,,,,,,,,,,,,,,,,,,,,,,,,,,,,,,,,,,,,,,,,,,,,,,,,,,,,,,,,,,,,,,,,,,,,,,,,,,,,,,,,,,,,,,,,,,,,,,,,,,,,,,,,,
,,,,,,5d34ab54c374970001e8b76b,62c539134fe15b429b53c7bc,2022-07-06_09h26.28.596,Colour_Asymmetry_Pilot,2022.1.3,Win32,143.5132032,62c50e9c1127f2cd403a315f,0,88,88,159,1,fourthree,,,,,,,,,,,,,,,,,,,,,,,,,,,,,,,,,,,,,,,,,,,,,,,,,,,,,,,,,,,,,,,,,,,,,,,,,,,,,,,,,,,,,,,,,,,,,,,,,,,,,,,,,,,,,,,,,,,,,,,,,,,,,,,,,,,,,,,,,,,,,,,,,,,,,,,,,,,,,
,,,,,,5d34ab54c374970001e8b76b,62c539134fe15b429b53c7bc,2022-07-06_09h26.28.596,Colour_Asymmetry_Pilot,2022.1.3,Win32,143.5132032,62c50e9c1127f2cd403a315f,0,89,89,39,1,fourthree,,,,,,,,,,,,,,,,,,,,,,,,,,,,,,,,,,,,,,,,,,,,,,,,,,,,,,,,,,,,,,,,,,,,,,,,,,,,,,,,,,,,,,,,,,,,,,,,,,,,,,,,,,,,,,,,,,,,,,,,,,,,,,,,,,,,,,,,,,,,,,,,,,,,,,,,,,,,,
,,,,,,5d34ab54c374970001e8b76b,62c539134fe15b429b53c7bc,2022-07-06_09h26.28.596,Colour_Asymmetry_Pilot,2022.1.3,Win32,143.5132032,62c50e9c1127f2cd403a315f,0,90,90,50,1,twoone,,,,,,,,,,,,,,,,,,,,,,,,,,,,,,,,,,,,,,,,,,,,,,,,,,,,,,,,,,,,,,,,,,,,,,,,,,,,,,,,,,,,,,,,,,,,,,,,,,,,,,,,,,,,,,,,,,,,,,,,,,,,,,,,,,,,,,,,,,,,,,,,,,,,,,,,,,,,,
,,,,,,5d34ab54c374970001e8b76b,62c539134fe15b429b53c7bc,2022-07-06_09h26.28.596,Colour_Asymmetry_Pilot,2022.1.3,Win32,143.5132032,62c50e9c1127f2cd403a315f,0,91,91,8,1,onetwo,,,,,,,,,,,,,,,,,,,,,,,,,,,,,,,,,,,,,,,,,,,,,,,,,,,,,,,,,,,,,,,,,,,,,,,,,,,,,,,,,,,,,,,,,,,,,,,,,,,,,,,,,,,,,,,,,,,,,,,,,,,,,,,,,,,,,,,,,,,,,,,,,,,,,,,,,,,,,
,,,,,,5d34ab54c374970001e8b76b,62c539134fe15b429b53c7bc,2022-07-06_09h26.28.596,Colour_Asymmetry_Pilot,2022.1.3,Win32,143.5132032,62c50e9c1127f2cd403a315f,0,92,92,21,1,threefour,,,,,,,,,,,,,,,,,,,,,,,,,,,,,,,,,,,,,,,,,,,,,,,,,,,,,,,,,,,,,,,,,,,,,,,,,,,,,,,,,,,,,,,,,,,,,,,,,,,,,,,,,,,,,,,,,,,,,,,,,,,,,,,,,,,,,,,,,,,,,,,,,,,,,,,,,,,,,
,,,,,,5d34ab54c374970001e8b76b,62c539134fe15b429b53c7bc,2022-07-06_09h26.28.596,Colour_Asymmetry_Pilot,2022.1.3,Win32,143.5132032,62c50e9c1127f2cd403a315f,0,93,93,119,1,fourthree,,,,,,,,,,,,,,,,,,,,,,,,,,,,,,,,,,,,,,,,,,,,,,,,,,,,,,,,,,,,,,,,,,,,,,,,,,,,,,,,,,,,,,,,,,,,,,,,,,,,,,,,,,,,,,,,,,,,,,,,,,,,,,,,,,,,,,,,,,,,,,,,,,,,,,,,,,,,,
,,,,,,5d34ab54c374970001e8b76b,62c539134fe15b429b53c7bc,2022-07-06_09h26.28.596,Colour_Asymmetry_Pilot,2022.1.3,Win32,143.5132032,62c50e9c1127f2cd403a315f,0,94,94,32,1,onetwo,,,,,,,,,,,,,,,,,,,,,,,,,,,,,,,,,,,,,,,,,,,,,,,,,,,,,,,,,,,,,,,,,,,,,,,,,,,,,,,,,,,,,,,,,,,,,,,,,,,,,,,,,,,,,,,,,,,,,,,,,,,,,,,,,,,,,,,,,,,,,,,,,,,,,,,,,,,,,
,,,,,,5d34ab54c374970001e8b76b,62c539134fe15b429b53c7bc,2022-07-06_09h26.28.596,Colour_Asymmetry_Pilot,2022.1.3,Win32,143.5132032,62c50e9c1127f2cd403a315f,0,95,95,43,1,twofour,,,,,,,,,,,,,,,,,,,,,,,,,,,,,,,,,,,,,,,,,,,,,,,,,,,,,,,,,,,,,,,,,,,,,,,,,,,,,,,,,,,,,,,,,,,,,,,,,,,,,,,,,,,,,,,,,,,,,,,,,,,,,,,,,,,,,,,,,,,,,,,,,,,,,,,,,,,,,
,,,,,,5d34ab54c374970001e8b76b,62c539134fe15b429b53c7bc,2022-07-06_09h26.28.596,Colour_Asymmetry_Pilot,2022.1.3,Win32,143.5132032,62c50e9c1127f2cd403a315f,0,96,96,131,1,twofour,,,,,,,,,,,,,,,,,,,,,,,,,,,,,,,,,,,,,,,,,,,,,,,,,,,,,,,,,,,,,,,,,,,,,,,,,,,,,,,,,,,,,,,,,,,,,,,,,,,,,,,,,,,,,,,,,,,,,,,,,,,,,,,,,,,,,,,,,,,,,,,,,,,,,,,,,,,,,
,,,,,,5d34ab54c374970001e8b76b,62c539134fe15b429b53c7bc,2022-07-06_09h26.28.596,Colour_Asymmetry_Pilot,2022.1.3,Win32,143.5132032,62c50e9c1127f2cd403a315f,0,97,97,157,1,threefour,,,,,,,,,,,,,,,,,,,,,,,,,,,,,,,,,,,,,,,,,,,,,,,,,,,,,,,,,,,,,,,,,,,,,,,,,,,,,,,,,,,,,,,,,,,,,,,,,,,,,,,,,,,,,,,,,,,,,,,,,,,,,,,,,,,,,,,,,,,,,,,,,,,,,,,,,,,,,
,,,,,,5d34ab54c374970001e8b76b,62c539134fe15b429b53c7bc,2022-07-06_09h26.28.596,Colour_Asymmetry_Pilot,2022.1.3,Win32,143.5132032,62c50e9c1127f2cd403a315f,0,98,98,47,1,fourthree,,,,,,,,,,,,,,,,,,,,,,,,,,,,,,,,,,,,,,,,,,,,,,,,,,,,,,,,,,,,,,,,,,,,,,,,,,,,,,,,,,,,,,,,,,,,,,,,,,,,,,,,,,,,,,,,,,,,,,,,,,,,,,,,,,,,,,,,,,,,,,,,,,,,,,,,,,,,,
,,,,,,5d34ab54c374970001e8b76b,62c539134fe15b429b53c7bc,2022-07-06_09h26.28.596,Colour_Asymmetry_Pilot,2022.1.3,Win32,143.5132032,62c50e9c1127f2cd403a315f,0,99,99,49,1,onethree,,,,,,,,,,,,,,,,,,,,,,,,,,,,,,,,,,,,,,,,,,,,,,,,,,,,,,,,,,,,,,,,,,,,,,,,,,,,,,,,,,,,,,,,,,,,,,,,,,,,,,,,,,,,,,,,,,,,,,,,,,,,,,,,,,,,,,,,,,,,,,,,,,,,,,,,,,,,,
,,,,,,5d34ab54c374970001e8b76b,62c539134fe15b429b53c7bc,2022-07-06_09h26.28.596,Colour_Asymmetry_Pilot,2022.1.3,Win32,143.5132032,62c50e9c1127f2cd403a315f,0,100,100,91,1,twofour,,,,,,,,,,,,,,,,,,,,,,,,,,,,,,,,,,,,,,,,,,,,,,,,,,,,,,,,,,,,,,,,,,,,,,,,,,,,,,,,,,,,,,,,,,,,,,,,,,,,,,,,,,,,,,,,,,,,,,,,,,,,,,,,,,,,,,,,,,,,,,,,,,,,,,,,,,,,,
,,,,,,5d34ab54c374970001e8b76b,62c539134fe15b429b53c7bc,2022-07-06_09h26.28.596,Colour_Asymmetry_Pilot,2022.1.3,Win32,143.5132032,62c50e9c1127f2cd403a315f,0,101,101,109,1,threefour,,,,,,,,,,,,,,,,,,,,,,,,,,,,,,,,,,,,,,,,,,,,,,,,,,,,,,,,,,,,,,,,,,,,,,,,,,,,,,,,,,,,,,,,,,,,,,,,,,,,,,,,,,,,,,,,,,,,,,,,,,,,,,,,,,,,,,,,,,,,,,,,,,,,,,,,,,,,,
,,,,,,5d34ab54c374970001e8b76b,62c539134fe15b429b53c7bc,2022-07-06_09h26.28.596,Colour_Asymmetry_Pilot,2022.1.3,Win32,143.5132032,62c50e9c1127f2cd403a315f,0,102,102,76,1,threeone,,,,,,,,,,,,,,,,,,,,,,,,,,,,,,,,,,,,,,,,,,,,,,,,,,,,,,,,,,,,,,,,,,,,,,,,,,,,,,,,,,,,,,,,,,,,,,,,,,,,,,,,,,,,,,,,,,,,,,,,,,,,,,,,,,,,,,,,,,,,,,,,,,,,,,,,,,,,,
,,,,,,5d34ab54c374970001e8b76b,62c539134fe15b429b53c7bc,2022-07-06_09h26.28.596,Colour_Asymmetry_Pilot,2022.1.3,Win32,143.5132032,62c50e9c1127f2cd403a315f,0,103,103,35,1,twofour,,,,,,,,,,,,,,,,,,,,,,,,,,,,,,,,,,,,,,,,,,,,,,,,,,,,,,,,,,,,,,,,,,,,,,,,,,,,,,,,,,,,,,,,,,,,,,,,,,,,,,,,,,,,,,,,,,,,,,,,,,,,,,,,,,,,,,,,,,,,,,,,,,,,,,,,,,,,,
,,,,,,5d34ab54c374970001e8b76b,62c539134fe15b429b53c7bc,2022-07-06_09h26.28.596,Colour_Asymmetry_Pilot,2022.1.3,Win32,143.5132032,62c50e9c1127f2cd403a315f,0,104,104,80,1,onetwo,,,,,,,,,,,,,,,,,,,,,,,,,,,,,,,,,,,,,,,,,,,,,,,,,,,,,,,,,,,,,,,,,,,,,,,,,,,,,,,,,,,,,,,,,,,,,,,,,,,,,,,,,,,,,,,,,,,,,,,,,,,,,,,,,,,,,,,,,,,,,,,,,,,,,,,,,,,,,
,,,,,,5d34ab54c374970001e8b76b,62c539134fe15b429b53c7bc,2022-07-06_09h26.28.596,Colour_Asymmetry_Pilot,2022.1.3,Win32,143.5132032,62c50e9c1127f2cd403a315f,0,105,105,67,1,twofour,,,,,,,,,,,,,,,,,,,,,,,,,,,,,,,,,,,,,,,,,,,,,,,,,,,,,,,,,,,,,,,,,,,,,,,,,,,,,,,,,,,,,,,,,,,,,,,,,,,,,,,,,,,,,,,,,,,,,,,,,,,,,,,,,,,,,,,,,,,,,,,,,,,,,,,,,,,,,
,,,,,,5d34ab54c374970001e8b76b,62c539134fe15b429b53c7bc,2022-07-06_09h26.28.596,Colour_Asymmetry_Pilot,2022.1.3,Win32,143.5132032,62c50e9c1127f2cd403a315f,0,106,106,120,1,onetwo,,,,,,,,,,,,,,,,,,,,,,,,,,,,,,,,,,,,,,,,,,,,,,,,,,,,,,,,,,,,,,,,,,,,,,,,,,,,,,,,,,,,,,,,,,,,,,,,,,,,,,,,,,,,,,,,,,,,,,,,,,,,,,,,,,,,,,,,,,,,,,,,,,,,,,,,,,,,,
,,,,,,5d34ab54c374970001e8b76b,62c539134fe15b429b53c7bc,2022-07-06_09h26.28.596,Colour_Asymmetry_Pilot,2022.1.3,Win32,143.5132032,62c50e9c1127f2cd403a315f,0,107,107,7,1,fourthree,,,,,,,,,,,,,,,,,,,,,,,,,,,,,,,,,,,,,,,,,,,,,,,,,,,,,,,,,,,,,,,,,,,,,,,,,,,,,,,,,,,,,,,,,,,,,,,,,,,,,,,,,,,,,,,,,,,,,,,,,,,,,,,,,,,,,,,,,,,,,,,,,,,,,,,,,,,,,
,,,,,,5d34ab54c374970001e8b76b,62c539134fe15b429b53c7bc,2022-07-06_09h26.28.596,Colour_Asymmetry_Pilot,2022.1.3,Win32,143.5132032,62c50e9c1127f2cd403a315f,0,108,108,72,1,onetwo,,,,,,,,,,,,,,,,,,,,,,,,,,,,,,,,,,,,,,,,,,,,,,,,,,,,,,,,,,,,,,,,,,,,,,,,,,,,,,,,,,,,,,,,,,,,,,,,,,,,,,,,,,,,,,,,,,,,,,,,,,,,,,,,,,,,,,,,,,,,,,,,,,,,,,,,,,,,,
,,,,,,5d34ab54c374970001e8b76b,62c539134fe15b429b53c7bc,2022-07-06_09h26.28.596,Colour_Asymmetry_Pilot,2022.1.3,Win32,143.5132032,62c50e9c1127f2cd403a315f,0,109,109,42,1,twoone,,,,,,,,,,,,,,,,,,,,,,,,,,,,,,,,,,,,,,,,,,,,,,,,,,,,,,,,,,,,,,,,,,,,,,,,,,,,,,,,,,,,,,,,,,,,,,,,,,,,,,,,,,,,,,,,,,,,,,,,,,,,,,,,,,,,,,,,,,,,,,,,,,,,,,,,,,,,,
,,,,,,5d34ab54c374970001e8b76b,62c539134fe15b429b53c7bc,2022-07-06_09h26.28.596,Colour_Asymmetry_Pilot,2022.1.3,Win32,143.5132032,62c50e9c1127f2cd403a315f,0,110,110,114,1,twoone,,,,,,,,,,,,,,,,,,,,,,,,,,,,,,,,,,,,,,,,,,,,,,,,,,,,,,,,,,,,,,,,,,,,,,,,,,,,,,,,,,,,,,,,,,,,,,,,,,,,,,,,,,,,,,,,,,,,,,,,,,,,,,,,,,,,,,,,,,,,,,,,,,,,,,,,,,,,,
,,,,,,5d34ab54c374970001e8b76b,62c539134fe15b429b53c7bc,2022-07-06_09h26.28.596,Colour_Asymmetry_Pilot,2022.1.3,Win32,143.5132032,62c50e9c1127f2cd403a315f,0,111,111,6,1,fourtwo,,,,,,,,,,,,,,,,,,,,,,,,,,,,,,,,,,,,,,,,,,,,,,,,,,,,,,,,,,,,,,,,,,,,,,,,,,,,,,,,,,,,,,,,,,,,,,,,,,,,,,,,,,,,,,,,,,,,,,,,,,,,,,,,,,,,,,,,,,,,,,,,,,,,,,,,,,,,,
,,,,,,5d34ab54c374970001e8b76b,62c539134fe15b429b53c7bc,2022-07-06_09h26.28.596,Colour_Asymmetry_Pilot,2022.1.3,Win32,143.5132032,62c50e9c1127f2cd403a315f,0,112,112,1,1,onethree,,,,,,,,,,,,,,,,,,,,,,,,,,,,,,,,,,,,,,,,,,,,,,,,,,,,,,,,,,,,,,,,,,,,,,,,,,,,,,,,,,,,,,,,,,,,,,,,,,,,,,,,,,,,,,,,,,,,,,,,,,,,,,,,,,,,,,,,,,,,,,,,,,,,,,,,,,,,,
,,,,,,5d34ab54c374970001e8b76b,62c539134fe15b429b53c7bc,2022-07-06_09h26.28.596,Colour_Asymmetry_Pilot,2022.1.3,Win32,143.5132032,62c50e9c1127f2cd403a315f,0,113,113,112,1,onetwo,,,,,,,,,,,,,,,,,,,,,,,,,,,,,,,,,,,,,,,,,,,,,,,,,,,,,,,,,,,,,,,,,,,,,,,,,,,,,,,,,,,,,,,,,,,,,,,,,,,,,,,,,,,,,,,,,,,,,,,,,,,,,,,,,,,,,,,,,,,,,,,,,,,,,,,,,,,,,
,,,,,,5d34ab54c374970001e8b76b,62c539134fe15b429b53c7bc,2022-07-06_09h26.28.596,Colour_Asymmetry_Pilot,2022.1.3,Win32,143.5132032,62c50e9c1127f2cd403a315f,0,114,114,156,1,threeone,,,,,,,,,,,,,,,,,,,,,,,,,,,,,,,,,,,,,,,,,,,,,,,,,,,,,,,,,,,,,,,,,,,,,,,,,,,,,,,,,,,,,,,,,,,,,,,,,,,,,,,,,,,,,,,,,,,,,,,,,,,,,,,,,,,,,,,,,,,,,,,,,,,,,,,,,,,,,
,,,,,,5d34ab54c374970001e8b76b,62c539134fe15b429b53c7bc,2022-07-06_09h26.28.596,Colour_Asymmetry_Pilot,2022.1.3,Win32,143.5132032,62c50e9c1127f2cd403a315f,0,115,115,54,1,fourtwo,,,,,,,,,,,,,,,,,,,,,,,,,,,,,,,,,,,,,,,,,,,,,,,,,,,,,,,,,,,,,,,,,,,,,,,,,,,,,,,,,,,,,,,,,,,,,,,,,,,,,,,,,,,,,,,,,,,,,,,,,,,,,,,,,,,,,,,,,,,,,,,,,,,,,,,,,,,,,
,,,,,,5d34ab54c374970001e8b76b,62c539134fe15b429b53c7bc,2022-07-06_09h26.28.596,Colour_Asymmetry_Pilot,2022.1.3,Win32,143.5132032,62c50e9c1127f2cd403a315f,0,116,116,79,1,fourthree,,,,,,,,,,,,,,,,,,,,,,,,,,,,,,,,,,,,,,,,,,,,,,,,,,,,,,,,,,,,,,,,,,,,,,,,,,,,,,,,,,,,,,,,,,,,,,,,,,,,,,,,,,,,,,,,,,,,,,,,,,,,,,,,,,,,,,,,,,,,,,,,,,,,,,,,,,,,,
,,,,,,5d34ab54c374970001e8b76b,62c539134fe15b429b53c7bc,2022-07-06_09h26.28.596,Colour_Asymmetry_Pilot,2022.1.3,Win32,143.5132032,62c50e9c1127f2cd403a315f,0,117,117,122,1,twoone,,,,,,,,,,,,,,,,,,,,,,,,,,,,,,,,,,,,,,,,,,,,,,,,,,,,,,,,,,,,,,,,,,,,,,,,,,,,,,,,,,,,,,,,,,,,,,,,,,,,,,,,,,,,,,,,,,,,,,,,,,,,,,,,,,,,,,,,,,,,,,,,,,,,,,,,,,,,,
,,,,,,5d34ab54c374970001e8b76b,62c539134fe15b429b53c7bc,2022-07-06_09h26.28.596,Colour_Asymmetry_Pilot,2022.1.3,Win32,143.5132032,62c50e9c1127f2cd403a315f,0,118,118,29,1,threefour,,,,,,,,,,,,,,,,,,,,,,,,,,,,,,,,,,,,,,,,,,,,,,,,,,,,,,,,,,,,,,,,,,,,,,,,,,,,,,,,,,,,,,,,,,,,,,,,,,,,,,,,,,,,,,,,,,,,,,,,,,,,,,,,,,,,,,,,,,,,,,,,,,,,,,,,,,,,,
,,,,,,5d34ab54c374970001e8b76b,62c539134fe15b429b53c7bc,2022-07-06_09h26.28.596,Colour_Asymmetry_Pilot,2022.1.3,Win32,143.5132032,62c50e9c1127f2cd403a315f,0,119,119,150,1,fourtwo,,,,,,,,,,,,,,,,,,,,,,,,,,,,,,,,,,,,,,,,,,,,,,,,,,,,,,,,,,,,,,,,,,,,,,,,,,,,,,,,,,,,,,,,,,,,,,,,,,,,,,,,,,,,,,,,,,,,,,,,,,,,,,,,,,,,,,,,,,,,,,,,,,,,,,,,,,,,,
,,,,,,5d34ab54c374970001e8b76b,62c539134fe15b429b53c7bc,2022-07-06_09h26.28.596,Colour_Asymmetry_Pilot,2022.1.3,Win32,143.5132032,62c50e9c1127f2cd403a315f,0,120,120,100,1,threeone,,,,,,,,,,,,,,,,,,,,,,,,,,,,,,,,,,,,,,,,,,,,,,,,,,,,,,,,,,,,,,,,,,,,,,,,,,,,,,,,,,,,,,,,,,,,,,,,,,,,,,,,,,,,,,,,,,,,,,,,,,,,,,,,,,,,,,,,,,,,,,,,,,,,,,,,,,,,,
,,,,,,5d34ab54c374970001e8b76b,62c539134fe15b429b53c7bc,2022-07-06_09h26.28.596,Colour_Asymmetry_Pilot,2022.1.3,Win32,143.5132032,62c50e9c1127f2cd403a315f,0,121,121,44,1,threeone,,,,,,,,,,,,,,,,,,,,,,,,,,,,,,,,,,,,,,,,,,,,,,,,,,,,,,,,,,,,,,,,,,,,,,,,,,,,,,,,,,,,,,,,,,,,,,,,,,,,,,,,,,,,,,,,,,,,,,,,,,,,,,,,,,,,,,,,,,,,,,,,,,,,,,,,,,,,,
,,,,,,5d34ab54c374970001e8b76b,62c539134fe15b429b53c7bc,2022-07-06_09h26.28.596,Colour_Asymmetry_Pilot,2022.1.3,Win32,143.5132032,62c50e9c1127f2cd403a315f,0,122,122,141,1,threefour,,,,,,,,,,,,,,,,,,,,,,,,,,,,,,,,,,,,,,,,,,,,,,,,,,,,,,,,,,,,,,,,,,,,,,,,,,,,,,,,,,,,,,,,,,,,,,,,,,,,,,,,,,,,,,,,,,,,,,,,,,,,,,,,,,,,,,,,,,,,,,,,,,,,,,,,,,,,,
,,,,,,5d34ab54c374970001e8b76b,62c539134fe15b429b53c7bc,2022-07-06_09h26.28.596,Colour_Asymmetry_Pilot,2022.1.3,Win32,143.5132032,62c50e9c1127f2cd403a315f,0,123,123,95,1,fourthree,,,,,,,,,,,,,,,,,,,,,,,,,,,,,,,,,,,,,,,,,,,,,,,,,,,,,,,,,,,,,,,,,,,,,,,,,,,,,,,,,,,,,,,,,,,,,,,,,,,,,,,,,,,,,,,,,,,,,,,,,,,,,,,,,,,,,,,,,,,,,,,,,,,,,,,,,,,,,
,,,,,,5d34ab54c374970001e8b76b,62c539134fe15b429b53c7bc,2022-07-06_09h26.28.596,Colour_Asymmetry_Pilot,2022.1.3,Win32,143.5132032,62c50e9c1127f2cd403a315f,0,124,124,98,1,twoone,,,,,,,,,,,,,,,,,,,,,,,,,,,,,,,,,,,,,,,,,,,,,,,,,,,,,,,,,,,,,,,,,,,,,,,,,,,,,,,,,,,,,,,,,,,,,,,,,,,,,,,,,,,,,,,,,,,,,,,,,,,,,,,,,,,,,,,,,,,,,,,,,,,,,,,,,,,,,
,,,,,,5d34ab54c374970001e8b76b,62c539134fe15b429b53c7bc,2022-07-06_09h26.28.596,Colour_Asymmetry_Pilot,2022.1.3,Win32,143.5132032,62c50e9c1127f2cd403a315f,0,125,125,19,1,twofour,,,,,,,,,,,,,,,,,,,,,,,,,,,,,,,,,,,,,,,,,,,,,,,,,,,,,,,,,,,,,,,,,,,,,,,,,,,,,,,,,,,,,,,,,,,,,,,,,,,,,,,,,,,,,,,,,,,,,,,,,,,,,,,,,,,,,,,,,,,,,,,,,,,,,,,,,,,,,
,,,,,,5d34ab54c374970001e8b76b,62c539134fe15b429b53c7bc,2022-07-06_09h26.28.596,Colour_Asymmetry_Pilot,2022.1.3,Win32,143.5132032,62c50e9c1127f2cd403a315f,0,126,126,161,1,onethree,,,,,,,,,,,,,,,,,,,,,,,,,,,,,,,,,,,,,,,,,,,,,,,,,,,,,,,,,,,,,,,,,,,,,,,,,,,,,,,,,,,,,,,,,,,,,,,,,,,,,,,,,,,,,,,,,,,,,,,,,,,,,,,,,,,,,,,,,,,,,,,,,,,,,,,,,,,,,
,,,,,,5d34ab54c374970001e8b76b,62c539134fe15b429b53c7bc,2022-07-06_09h26.28.596,Colour_Asymmetry_Pilot,2022.1.3,Win32,143.5132032,62c50e9c1127f2cd403a315f,0,127,127,121,1,onethree,,,,,,,,,,,,,,,,,,,,,,,,,,,,,,,,,,,,,,,,,,,,,,,,,,,,,,,,,,,,,,,,,,,,,,,,,,,,,,,,,,,,,,,,,,,,,,,,,,,,,,,,,,,,,,,,,,,,,,,,,,,,,,,,,,,,,,,,,,,,,,,,,,,,,,,,,,,,,
,,,,,,5d34ab54c374970001e8b76b,62c539134fe15b429b53c7bc,2022-07-06_09h26.28.596,Colour_Asymmetry_Pilot,2022.1.3,Win32,143.5132032,62c50e9c1127f2cd403a315f,0,128,128,71,1,fourthree,,,,,,,,,,,,,,,,,,,,,,,,,,,,,,,,,,,,,,,,,,,,,,,,,,,,,,,,,,,,,,,,,,,,,,,,,,,,,,,,,,,,,,,,,,,,,,,,,,,,,,,,,,,,,,,,,,,,,,,,,,,,,,,,,,,,,,,,,,,,,,,,,,,,,,,,,,,,,
,,,,,,5d34ab54c374970001e8b76b,62c539134fe15b429b53c7bc,2022-07-06_09h26.28.596,Colour_Asymmetry_Pilot,2022.1.3,Win32,143.5132032,62c50e9c1127f2cd403a315f,0,129,129,144,1,onetwo,,,,,,,,,,,,,,,,,,,,,,,,,,,,,,,,,,,,,,,,,,,,,,,,,,,,,,,,,,,,,,,,,,,,,,,,,,,,,,,,,,,,,,,,,,,,,,,,,,,,,,,,,,,,,,,,,,,,,,,,,,,,,,,,,,,,,,,,,,,,,,,,,,,,,,,,,,,,,
,,,,,,5d34ab54c374970001e8b76b,62c539134fe15b429b53c7bc,2022-07-06_09h26.28.596,Colour_Asymmetry_Pilot,2022.1.3,Win32,143.5132032,62c50e9c1127f2cd403a315f,0,130,130,143,1,fourthree,,,,,,,,,,,,,,,,,,,,,,,,,,,,,,,,,,,,,,,,,,,,,,,,,,,,,,,,,,,,,,,,,,,,,,,,,,,,,,,,,,,,,,,,,,,,,,,,,,,,,,,,,,,,,,,,,,,,,,,,,,,,,,,,,,,,,,,,,,,,,,,,,,,,,,,,,,,,,
,,,,,,5d34ab54c374970001e8b76b,62c539134fe15b429b53c7bc,2022-07-06_09h26.28.596,Colour_Asymmetry_Pilot,2022.1.3,Win32,143.5132032,62c50e9c1127f2cd403a315f,0,131,131,59,1,twofour,,,,,,,,,,,,,,,,,,,,,,,,,,,,,,,,,,,,,,,,,,,,,,,,,,,,,,,,,,,,,,,,,,,,,,,,,,,,,,,,,,,,,,,,,,,,,,,,,,,,,,,,,,,,,,,,,,,,,,,,,,,,,,,,,,,,,,,,,,,,,,,,,,,,,,,,,,,,,
,,,,,,5d34ab54c374970001e8b76b,62c539134fe15b429b53c7bc,2022-07-06_09h26.28.596,Colour_Asymmetry_Pilot,2022.1.3,Win32,143.5132032,62c50e9c1127f2cd403a315f,0,132,132,20,1,threeone,,,,,,,,,,,,,,,,,,,,,,,,,,,,,,,,,,,,,,,,,,,,,,,,,,,,,,,,,,,,,,,,,,,,,,,,,,,,,,,,,,,,,,,,,,,,,,,,,,,,,,,,,,,,,,,,,,,,,,,,,,,,,,,,,,,,,,,,,,,,,,,,,,,,,,,,,,,,,
,,,,,,5d34ab54c374970001e8b76b,62c539134fe15b429b53c7bc,2022-07-06_09h26.28.596,Colour_Asymmetry_Pilot,2022.1.3,Win32,143.5132032,62c50e9c1127f2cd403a315f,0,133,133,86,1,fourtwo,,,,,,,,,,,,,,,,,,,,,,,,,,,,,,,,,,,,,,,,,,,,,,,,,,,,,,,,,,,,,,,,,,,,,,,,,,,,,,,,,,,,,,,,,,,,,,,,,,,,,,,,,,,,,,,,,,,,,,,,,,,,,,,,,,,,,,,,,,,,,,,,,,,,,,,,,,,,,
,,,,,,5d34ab54c374970001e8b76b,62c539134fe15b429b53c7bc,2022-07-06_09h26.28.596,Colour_Asymmetry_Pilot,2022.1.3,Win32,143.5132032,62c50e9c1127f2cd403a315f,0,134,134,41,1,onethree,,,,,,,,,,,,,,,,,,,,,,,,,,,,,,,,,,,,,,,,,,,,,,,,,,,,,,,,,,,,,,,,,,,,,,,,,,,,,,,,,,,,,,,,,,,,,,,,,,,,,,,,,,,,,,,,,,,,,,,,,,,,,,,,,,,,,,,,,,,,,,,,,,,,,,,,,,,,,
,,,,,,5d34ab54c374970001e8b76b,62c539134fe15b429b53c7bc,2022-07-06_09h26.28.596,Colour_Asymmetry_Pilot,2022.1.3,Win32,143.5132032,62c50e9c1127f2cd403a315f,0,135,135,34,1,twoone,,,,,,,,,,,,,,,,,,,,,,,,,,,,,,,,,,,,,,,,,,,,,,,,,,,,,,,,,,,,,,,,,,,,,,,,,,,,,,,,,,,,,,,,,,,,,,,,,,,,,,,,,,,,,,,,,,,,,,,,,,,,,,,,,,,,,,,,,,,,,,,,,,,,,,,,,,,,,
,,,,,,5d34ab54c374970001e8b76b,62c539134fe15b429b53c7bc,2022-07-06_09h26.28.596,Colour_Asymmetry_Pilot,2022.1.3,Win32,143.5132032,62c50e9c1127f2cd403a315f,0,136,136,149,1,threefour,,,,,,,,,,,,,,,,,,,,,,,,,,,,,,,,,,,,,,,,,,,,,,,,,,,,,,,,,,,,,,,,,,,,,,,,,,,,,,,,,,,,,,,,,,,,,,,,,,,,,,,,,,,,,,,,,,,,,,,,,,,,,,,,,,,,,,,,,,,,,,,,,,,,,,,,,,,,,
,,,,,,5d34ab54c374970001e8b76b,62c539134fe15b429b53c7bc,2022-07-06_09h26.28.596,Colour_Asymmetry_Pilot,2022.1.3,Win32,143.5132032,62c50e9c1127f2cd403a315f,0,137,137,107,1,twofour,,,,,,,,,,,,,,,,,,,,,,,,,,,,,,,,,,,,,,,,,,,,,,,,,,,,,,,,,,,,,,,,,,,,,,,,,,,,,,,,,,,,,,,,,,,,,,,,,,,,,,,,,,,,,,,,,,,,,,,,,,,,,,,,,,,,,,,,,,,,,,,,,,,,,,,,,,,,,
,,,,,,5d34ab54c374970001e8b76b,62c539134fe15b429b53c7bc,2022-07-06_09h26.28.596,Colour_Asymmetry_Pilot,2022.1.3,Win32,143.5132032,62c50e9c1127f2cd403a315f,0,138,138,81,1,onethree,,,,,,,,,,,,,,,,,,,,,,,,,,,,,,,,,,,,,,,,,,,,,,,,,,,,,,,,,,,,,,,,,,,,,,,,,,,,,,,,,,,,,,,,,,,,,,,,,,,,,,,,,,,,,,,,,,,,,,,,,,,,,,,,,,,,,,,,,,,,,,,,,,,,,,,,,,,,,
,,,,,,5d34ab54c374970001e8b76b,62c539134fe15b429b53c7bc,2022-07-06_09h26.28.596,Colour_Asymmetry_Pilot,2022.1.3,Win32,143.5132032,62c50e9c1127f2cd403a315f,0,139,139,106,1,twoone,,,,,,,,,,,,,,,,,,,,,,,,,,,,,,,,,,,,,,,,,,,,,,,,,,,,,,,,,,,,,,,,,,,,,,,,,,,,,,,,,,,,,,,,,,,,,,,,,,,,,,,,,,,,,,,,,,,,,,,,,,,,,,,,,,,,,,,,,,,,,,,,,,,,,,,,,,,,,
,,,,,,5d34ab54c374970001e8b76b,62c539134fe15b429b53c7bc,2022-07-06_09h26.28.596,Colour_Asymmetry_Pilot,2022.1.3,Win32,143.5132032,62c50e9c1127f2cd403a315f,0,140,140,84,1,threeone,,,,,,,,,,,,,,,,,,,,,,,,,,,,,,,,,,,,,,,,,,,,,,,,,,,,,,,,,,,,,,,,,,,,,,,,,,,,,,,,,,,,,,,,,,,,,,,,,,,,,,,,,,,,,,,,,,,,,,,,,,,,,,,,,,,,,,,,,,,,,,,,,,,,,,,,,,,,,
,,,,,,5d34ab54c374970001e8b76b,62c539134fe15b429b53c7bc,2022-07-06_09h26.28.596,Colour_Asymmetry_Pilot,2022.1.3,Win32,143.5132032,62c50e9c1127f2cd403a315f,0,141,141,134,1,fourtwo,,,,,,,,,,,,,,,,,,,,,,,,,,,,,,,,,,,,,,,,,,,,,,,,,,,,,,,,,,,,,,,,,,,,,,,,,,,,,,,,,,,,,,,,,,,,,,,,,,,,,,,,,,,,,,,,,,,,,,,,,,,,,,,,,,,,,,,,,,,,,,,,,,,,,,,,,,,,,
,,,,,,5d34ab54c374970001e8b76b,62c539134fe15b429b53c7bc,2022-07-06_09h26.28.596,Colour_Asymmetry_Pilot,2022.1.3,Win32,143.5132032,62c50e9c1127f2cd403a315f,0,142,142,25,1,onethree,,,,,,,,,,,,,,,,,,,,,,,,,,,,,,,,,,,,,,,,,,,,,,,,,,,,,,,,,,,,,,,,,,,,,,,,,,,,,,,,,,,,,,,,,,,,,,,,,,,,,,,,,,,,,,,,,,,,,,,,,,,,,,,,,,,,,,,,,,,,,,,,,,,,,,,,,,,,,
,,,,,,5d34ab54c374970001e8b76b,62c539134fe15b429b53c7bc,2022-07-06_09h26.28.596,Colour_Asymmetry_Pilot,2022.1.3,Win32,143.5132032,62c50e9c1127f2cd403a315f,0,143,143,113,1,onethree,,,,,,,,,,,,,,,,,,,,,,,,,,,,,,,,,,,,,,,,,,,,,,,,,,,,,,,,,,,,,,,,,,,,,,,,,,,,,,,,,,,,,,,,,,,,,,,,,,,,,,,,,,,,,,,,,,,,,,,,,,,,,,,,,,,,,,,,,,,,,,,,,,,,,,,,,,,,,
,,,,,,5d34ab54c374970001e8b76b,62c539134fe15b429b53c7bc,2022-07-06_09h26.28.596,Colour_Asymmetry_Pilot,2022.1.3,Win32,143.5132032,62c50e9c1127f2cd403a315f,0,144,144,61,1,threefour,,,,,,,,,,,,,,,,,,,,,,,,,,,,,,,,,,,,,,,,,,,,,,,,,,,,,,,,,,,,,,,,,,,,,,,,,,,,,,,,,,,,,,,,,,,,,,,,,,,,,,,,,,,,,,,,,,,,,,,,,,,,,,,,,,,,,,,,,,,,,,,,,,,,,,,,,,,,,
,,,,,,5d34ab54c374970001e8b76b,62c539134fe15b429b53c7bc,2022-07-06_09h26.28.596,Colour_Asymmetry_Pilot,2022.1.3,Win32,143.5132032,62c50e9c1127f2cd403a315f,0,145,145,96,1,onetwo,,,,,,,,,,,,,,,,,,,,,,,,,,,,,,,,,,,,,,,,,,,,,,,,,,,,,,,,,,,,,,,,,,,,,,,,,,,,,,,,,,,,,,,,,,,,,,,,,,,,,,,,,,,,,,,,,,,,,,,,,,,,,,,,,,,,,,,,,,,,,,,,,,,,,,,,,,,,,
,,,,,,5d34ab54c374970001e8b76b,62c539134fe15b429b53c7bc,2022-07-06_09h26.28.596,Colour_Asymmetry_Pilot,2022.1.3,Win32,143.5132032,62c50e9c1127f2cd403a315f,0,146,146,145,1,onethree,,,,,,,,,,,,,,,,,,,,,,,,,,,,,,,,,,,,,,,,,,,,,,,,,,,,,,,,,,,,,,,,,,,,,,,,,,,,,,,,,,,,,,,,,,,,,,,,,,,,,,,,,,,,,,,,,,,,,,,,,,,,,,,,,,,,,,,,,,,,,,,,,,,,,,,,,,,,,
,,,,,,5d34ab54c374970001e8b76b,62c539134fe15b429b53c7bc,2022-07-06_09h26.28.596,Colour_Asymmetry_Pilot,2022.1.3,Win32,143.5132032,62c50e9c1127f2cd403a315f,0,147,147,88,1,onetwo,,,,,,,,,,,,,,,,,,,,,,,,,,,,,,,,,,,,,,,,,,,,,,,,,,,,,,,,,,,,,,,,,,,,,,,,,,,,,,,,,,,,,,,,,,,,,,,,,,,,,,,,,,,,,,,,,,,,,,,,,,,,,,,,,,,,,,,,,,,,,,,,,,,,,,,,,,,,,
,,,,,,5d34ab54c374970001e8b76b,62c539134fe15b429b53c7bc,2022-07-06_09h26.28.596,Colour_Asymmetry_Pilot,2022.1.3,Win32,143.5132032,62c50e9c1127f2cd403a315f,0,148,148,60,1,threeone,,,,,,,,,,,,,,,,,,,,,,,,,,,,,,,,,,,,,,,,,,,,,,,,,,,,,,,,,,,,,,,,,,,,,,,,,,,,,,,,,,,,,,,,,,,,,,,,,,,,,,,,,,,,,,,,,,,,,,,,,,,,,,,,,,,,,,,,,,,,,,,,,,,,,,,,,,,,,
,,,,,,5d34ab54c374970001e8b76b,62c539134fe15b429b53c7bc,2022-07-06_09h26.28.596,Colour_Asymmetry_Pilot,2022.1.3,Win32,143.5132032,62c50e9c1127f2cd403a315f,0,149,149,111,1,fourthree,,,,,,,,,,,,,,,,,,,,,,,,,,,,,,,,,,,,,,,,,,,,,,,,,,,,,,,,,,,,,,,,,,,,,,,,,,,,,,,,,,,,,,,,,,,,,,,,,,,,,,,,,,,,,,,,,,,,,,,,,,,,,,,,,,,,,,,,,,,,,,,,,,,,,,,,,,,,,
,,,,,,5d34ab54c374970001e8b76b,62c539134fe15b429b53c7bc,2022-07-06_09h26.28.596,Colour_Asymmetry_Pilot,2022.1.3,Win32,143.5132032,62c50e9c1127f2cd403a315f,0,150,150,136,1,onetwo,,,,,,,,,,,,,,,,,,,,,,,,,,,,,,,,,,,,,,,,,,,,,,,,,,,,,,,,,,,,,,,,,,,,,,,,,,,,,,,,,,,,,,,,,,,,,,,,,,,,,,,,,,,,,,,,,,,,,,,,,,,,,,,,,,,,,,,,,,,,,,,,,,,,,,,,,,,,,
,,,,,,5d34ab54c374970001e8b76b,62c539134fe15b429b53c7bc,2022-07-06_09h26.28.596,Colour_Asymmetry_Pilot,2022.1.3,Win32,143.5132032,62c50e9c1127f2cd403a315f,0,151,151,17,1,onethree,,,,,,,,,,,,,,,,,,,,,,,,,,,,,,,,,,,,,,,,,,,,,,,,,,,,,,,,,,,,,,,,,,,,,,,,,,,,,,,,,,,,,,,,,,,,,,,,,,,,,,,,,,,,,,,,,,,,,,,,,,,,,,,,,,,,,,,,,,,,,,,,,,,,,,,,,,,,,
,,,,,,5d34ab54c374970001e8b76b,62c539134fe15b429b53c7bc,2022-07-06_09h26.28.596,Colour_Asymmetry_Pilot,2022.1.3,Win32,143.5132032,62c50e9c1127f2cd403a315f,0,152,152,13,1,threefour,,,,,,,,,,,,,,,,,,,,,,,,,,,,,,,,,,,,,,,,,,,,,,,,,,,,,,,,,,,,,,,,,,,,,,,,,,,,,,,,,,,,,,,,,,,,,,,,,,,,,,,,,,,,,,,,,,,,,,,,,,,,,,,,,,,,,,,,,,,,,,,,,,,,,,,,,,,,,
,,,,,,5d34ab54c374970001e8b76b,62c539134fe15b429b53c7bc,2022-07-06_09h26.28.596,Colour_Asymmetry_Pilot,2022.1.3,Win32,143.5132032,62c50e9c1127f2cd403a315f,0,153,153,77,1,threefour,,,,,,,,,,,,,,,,,,,,,,,,,,,,,,,,,,,,,,,,,,,,,,,,,,,,,,,,,,,,,,,,,,,,,,,,,,,,,,,,,,,,,,,,,,,,,,,,,,,,,,,,,,,,,,,,,,,,,,,,,,,,,,,,,,,,,,,,,,,,,,,,,,,,,,,,,,,,,
,,,,,,5d34ab54c374970001e8b76b,62c539134fe15b429b53c7bc,2022-07-06_09h26.28.596,Colour_Asymmetry_Pilot,2022.1.3,Win32,143.5132032,62c50e9c1127f2cd403a315f,0,154,154,160,1,onetwo,,,,,,,,,,,,,,,,,,,,,,,,,,,,,,,,,,,,,,,,,,,,,,,,,,,,,,,,,,,,,,,,,,,,,,,,,,,,,,,,,,,,,,,,,,,,,,,,,,,,,,,,,,,,,,,,,,,,,,,,,,,,,,,,,,,,,,,,,,,,,,,,,,,,,,,,,,,,,
,,,,,,5d34ab54c374970001e8b76b,62c539134fe15b429b53c7bc,2022-07-06_09h26.28.596,Colour_Asymmetry_Pilot,2022.1.3,Win32,143.5132032,62c50e9c1127f2cd403a315f,0,155,155,118,1,fourtwo,,,,,,,,,,,,,,,,,,,,,,,,,,,,,,,,,,,,,,,,,,,,,,,,,,,,,,,,,,,,,,,,,,,,,,,,,,,,,,,,,,,,,,,,,,,,,,,,,,,,,,,,,,,,,,,,,,,,,,,,,,,,,,,,,,,,,,,,,,,,,,,,,,,,,,,,,,,,,
,,,,,,5d34ab54c374970001e8b76b,62c539134fe15b429b53c7bc,2022-07-06_09h26.28.596,Colour_Asymmetry_Pilot,2022.1.3,Win32,143.5132032,62c50e9c1127f2cd403a315f,0,156,156,87,1,fourthree,,,,,,,,,,,,,,,,,,,,,,,,,,,,,,,,,,,,,,,,,,,,,,,,,,,,,,,,,,,,,,,,,,,,,,,,,,,,,,,,,,,,,,,,,,,,,,,,,,,,,,,,,,,,,,,,,,,,,,,,,,,,,,,,,,,,,,,,,,,,,,,,,,,,,,,,,,,,,
,,,,,,5d34ab54c374970001e8b76b,62c539134fe15b429b53c7bc,2022-07-06_09h26.28.596,Colour_Asymmetry_Pilot,2022.1.3,Win32,143.5132032,62c50e9c1127f2cd403a315f,0,157,157,115,1,twofour,,,,,,,,,,,,,,,,,,,,,,,,,,,,,,,,,,,,,,,,,,,,,,,,,,,,,,,,,,,,,,,,,,,,,,,,,,,,,,,,,,,,,,,,,,,,,,,,,,,,,,,,,,,,,,,,,,,,,,,,,,,,,,,,,,,,,,,,,,,,,,,,,,,,,,,,,,,,,
,,,,,,5d34ab54c374970001e8b76b,62c539134fe15b429b53c7bc,2022-07-06_09h26.28.596,Colour_Asymmetry_Pilot,2022.1.3,Win32,143.5132032,62c50e9c1127f2cd403a315f,0,158,158,104,1,onetwo,,,,,,,,,,,,,,,,,,,,,,,,,,,,,,,,,,,,,,,,,,,,,,,,,,,,,,,,,,,,,,,,,,,,,,,,,,,,,,,,,,,,,,,,,,,,,,,,,,,,,,,,,,,,,,,,,,,,,,,,,,,,,,,,,,,,,,,,,,,,,,,,,,,,,,,,,,,,,
,,,,,,5d34ab54c374970001e8b76b,62c539134fe15b429b53c7bc,2022-07-06_09h26.28.596,Colour_Asymmetry_Pilot,2022.1.3,Win32,143.5132032,62c50e9c1127f2cd403a315f,0,159,159,129,1,onethree,,,,,,,,,,,,,,,,,,,,,,,,,,,,,,,,,,,,,,,,,,,,,,,,,,,,,,,,,,,,,,,,,,,,,,,,,,,,,,,,,,,,,,,,,,,,,,,,,,,,,,,,,,,,,,,,,,,,,,,,,,,,,,,,,,,,,,,,,,,,,,,,,,,,,,,,,,,,,
,,,,,,5d34ab54c374970001e8b76b,62c539134fe15b429b53c7bc,2022-07-06_09h26.28.596,Colour_Asymmetry_Pilot,2022.1.3,Win32,143.5132032,62c50e9c1127f2cd403a315f,0,160,160,108,1,threeone,,,,,,,,,,,,,,,,,,,,,,,,,,,,,,,,,,,,,,,,,,,,,,,,,,,,,,,,,,,,,,,,,,,,,,,,,,,,,,,,,,,,,,,,,,,,,,,,,,,,,,,,,,,,,,,,,,,,,,,,,,,,,,,,,,,,,,,,,,,,,,,,,,,,,,,,,,,,,
,,,,,,5d34ab54c374970001e8b76b,62c539134fe15b429b53c7bc,2022-07-06_09h26.28.596,Colour_Asymmetry_Pilot,2022.1.3,Win32,143.5132032,62c50e9c1127f2cd403a315f,0,161,161,90,1,twoone,,,,,,,,,,,,,,,,,,,,,,,,,,,,,,,,,,,,,,,,,,,,,,,,,,,,,,,,,,,,,,,,,,,,,,,,,,,,,,,,,,,,,,,,,,,,,,,,,,,,,,,,,,,,,,,,,,,,,,,,,,,,,,,,,,,,,,,,,,,,,,,,,,,,,,,,,,,,,
,,,,,,5d34ab54c374970001e8b76b,62c539134fe15b429b53c7bc,2022-07-06_09h26.28.596,Colour_Asymmetry_Pilot,2022.1.3,Win32,143.5132032,62c50e9c1127f2cd403a315f,,,,,,,space,0.8657,space,7.7613,space,18.6728,space,6.682,space,1.4918,space,3.4753,"[-0.9688,-0.4902000000000001,-0.12159999999999993]",twoone,"[-0.6,0.16860000000000008,0.44300000000000006]",2,6.1804,118,-61,1,0,0,response3disk_5,-11,-3,1,0,0,rectangle_8,-11,-3,1,0,0,3,-11,-3,1,0,0,0,0,0,0,1,,,,,,,,,,,,,,,,,,,,,,,,,,,,,,,,,,,,,,,,,,,,,,,,,,,,,,,,,,,,,,,,,,,,,,,,,,,,,,,,,,,,,,,,,,,,,,,,,,,,,,,,,,,,,,,,
,,,,,,5d34ab54c374970001e8b76b,62c539134fe15b429b53c7bc,2022-07-06_09h26.28.596,Colour_Asymmetry_Pilot,2022.1.3,Win32,143.5132032,62c50e9c1127f2cd403a315f,,,,,,,,,,,,,,,,,,,"[0.34099999999999997,0.5841999999999998,-0.9844]",onethree,"[0.7018,0.7176,0.6155999999999999]",-3,2.056,-116,51,1,0,0,response7disk_5,-12,-6,1,0,0,rectangle_8,131,52,1,0,0,3,9,-4,1,0,0,1,0,1,0,1,response1disk_7,6,rectangle_4,,,,,,,,,,,,,,,,,,,,,,,,,,,,,,,,,,,,,,,,,,,,,,,,,,,,,,,,,,,,,,,,,,,,,,,,,,,,,,,,,,,,,,,,,,,,,,,,,,,,,,,,,,,,,
,,,,,,5d34ab54c374970001e8b76b,62c539134fe15b429b53c7bc,2022-07-06_09h26.28.596,Colour_Asymmetry_Pilot,2022.1.3,Win32,143.5132032,62c50e9c1127f2cd403a315f,,,,,,,,,,,,,,,,,,,"[0.4196,0.4665999999999999,0.3568]",threeone,"[-0.07459999999999989,0.12139999999999995,-0.9922]",1,1.4941,47,-123,1,0,0,response3disk_5,6,-3,1,0,0,rectangle_8,6,-3,1,0,0,3,6,-3,1,0,0,2,0,2,0,1,,,,,,,,,,,,,,,,,,,,,,,,,,,,,,,,,,,,,,,,,,,,,,,,,,,,,,,,,,,,,,,,,,,,,,,,,,,,,,,,,,,,,,,,,,,,,,,,,,,,,,,,,,,,,,,,
,,,,,,5d34ab54c374970001e8b76b,62c539134fe15b429b53c7bc,2022-07-06_09h26.28.596,Colour_Asymmetry_Pilot,2022.1.3,Win32,143.5132032,62c50e9c1127f2cd403a315f,,,,,,,,,,,,,,,,,,,"[0.34099999999999997,0.12939999999999996,-0.9766]",fourthree,"[0.7018,0.7802,-0.16079999999999994]",1,1.4377,51,-119,1,0,0,response3disk_5,-18,-1,1,0,0,rectangle_8,-18,-1,1,0,0,3,-18,-1,1,0,0,3,0,3,0,1,,,,,,,,,,,,,,,,,,,,,,,,,,,,,,,,,,,,,,,,,,,,,,,,,,,,,,,,,,,,,,,,,,,,,,,,,,,,,,,,,,,,,,,,,,,,,,,,,,,,,,,,,,,,,,,,
,,,,,,5d34ab54c374970001e8b76b,62c539134fe15b429b53c7bc,2022-07-06_09h26.28.596,Colour_Asymmetry_Pilot,2022.1.3,Win32,143.5132032,62c50e9c1127f2cd403a315f,,,,,,,,,,,,,,,,,,,"[-0.9688,-0.7412000000000001,-0.4902000000000001]",threefour,"[-0.24719999999999998,0.5213999999999999,-0.12959999999999994]",-3,2.549,-90,32,1,0,0,response7disk_5,-6,-7,1,0,0,rectangle_8,-6,-7,1,0,0,3,-6,-7,1,0,0,4,0,4,0,1,,,,,,,,,,,,,,,,,,,,,,,,,,,,,,,,,,,,,,,,,,,,,,,,,,,,,,,,,,,,,,,,,,,,,,,,,,,,,,,,,,,,,,,,,,,,,,,,,,,,,,,,,,,,,,,,
,,,,,,5d34ab54c374970001e8b76b,62c539134fe15b429b53c7bc,2022-07-06_09h26.28.596,Colour_Asymmetry_Pilot,2022.1.3,Win32,143.5132032,62c50e9c1127f2cd403a315f,,,,,,,,,,,,,,,,,,,"[0.0351999999999999,0.41159999999999997,0.0038000000000000256]",threeone,"[-0.48240000000000005,0.3175999999999999,0.2156]",1,1.1667,53,-136,1,0,0,response3disk_5,-33,2,1,0,0,rectangle_8,120,49,1,0,0,3,-5,-7,1,0,0,5,0,5,0,1,response1disk_7,6,rectangle_4,,,,,,,,,,,,,,,,,,,,,,,,,,,,,,,,,,,,,,,,,,,,,,,,,,,,,,,,,,,,,,,,,,,,,,,,,,,,,,,,,,,,,,,,,,,,,,,,,,,,,,,,,,,,,
,,,,,,5d34ab54c374970001e8b76b,62c539134fe15b429b53c7bc,2022-07-06_09h26.28.596,Colour_Asymmetry_Pilot,2022.1.3,Win32,143.5132032,62c50e9c1127f2cd403a315f,,,,,,,,,,,,,,,,,,,"[-0.4276,0.0038000000000000256,-0.3256]",twoone,"[-0.17659999999999998,0.3253999999999999,0.19999999999999996]",1,2.7369,36,-120,1,0,0,response3disk_5,-27,-10,1,0,0,rectangle_8,-27,-10,1,0,0,3,-27,-10,1,0,0,6,0,6,0,1,,,,,,,,,,,,,,,,,,,,,,,,,,,,,,,,,,,,,,,,,,,,,,,,,,,,,,,,,,,,,,,,,,,,,,,,,,,,,,,,,,,,,,,,,,,,,,,,,,,,,,,,,,,,,,,,
,,,,,,5d34ab54c374970001e8b76b,62c539134fe15b429b53c7bc,2022-07-06_09h26.28.596,Colour_Asymmetry_Pilot,2022.1.3,Win32,143.5132032,62c50e9c1127f2cd403a315f,,,,,,,,,,,,,,,,,,,,threeone,,-1,1.1598,,,,,,,,,,,,,,,,,,,,,,,,,,,,,,,,space,4.3808,"[0.19199999999999995,0.18419999999999992,0.5136000000000001]","[0.0351999999999999,0.41159999999999997,0.0038000000000000256]",-52,-116,1,0,0,response5disk,-6,4,1,0,0,rectangle,-6,4,1,0,0,,2,0.0008,0,-6,4,1,0,0,0,0,0,109,1,28,second,,,,,,,,,,,,,,,,,,,,,,,,,,,,,,,,,,,,,,,,,,,,,,,,,,,,,,,,,,,,,,,,,,,,,,,,
,,,,,,5d34ab54c374970001e8b76b,62c539134fe15b429b53c7bc,2022-07-06_09h26.28.596,Colour_Asymmetry_Pilot,2022.1.3,Win32,143.5132032,62c50e9c1127f2cd403a315f,,,,,,,,,,,,,,,,,,,,threefour,,-3,1.0142,,,,,,,,,,,,,,,,,,,,,,,,,,,,,,,,,,"[0.5528,0.7409999999999999,-0.71]","[0.18419999999999992,-0.4276,-0.404]",-119,34,1,0,0,response7disk,-22,-21,1,0,0,rectangle,-22,-21,1,0,0,-2,2,0,0,-22,-21,1,0,0,0,1,1,89,1,8,second,,,,,,,,,,,,,,,,,,,,,,,,,,,,,,,,,,,,,,,,,,,,,,,,,,,,,,,,,,,,,,,,,,,,,,,,
,,,,,,5d34ab54c374970001e8b76b,62c539134fe15b429b53c7bc,2022-07-06_09h26.28.596,Colour_Asymmetry_Pilot,2022.1.3,Win32,143.5132032,62c50e9c1127f2cd403a315f,,,,,,,,,,,,,,,,,,,,onetwo,,-1,1.174,,,,,,,,,,,,,,,,,,,,,,,,,,,,,,,,,,"[0.18419999999999992,-0.4276,-0.404]","[0.5528,0.7409999999999999,-0.71]",-46,-111,1,0,0,response5disk,-26,-5,1,0,0,rectangle,-26,-5,1,0,0,-2,2,0.0001,0,-26,-5,1,0,0,0,2,2,8,1,8,first,,,,,,,,,,,,,,,,,,,,,,,,,,,,,,,,,,,,,,,,,,,,,,,,,,,,,,,,,,,,,,,,,,,,,,,,
,,,,,,5d34ab54c374970001e8b76b,62c539134fe15b429b53c7bc,2022-07-06_09h26.28.596,Colour_Asymmetry_Pilot,2022.1.3,Win32,143.5132032,62c50e9c1127f2cd403a315f,,,,,,,,,,,,,,,,,,,,threefour,,-2,0.6945,,,,,,,,,,,,,,,,,,,,,,,,,,,,,,,,,,"[-0.9138,-0.5296000000000001,-0.5529999999999999]","[0.37240000000000006,-0.050999999999999934,-0.5216]",-85,-34,1,0,0,response5disk,-20,2,1,0,0,rectangle,-20,2,1,0,0,-2,1,0.0004,0,-20,2,1,0,0,0,3,3,39,1,39,first,,,,,,,,,,,,,,,,,,,,,,,,,,,,,,,,,,,,,,,,,,,,,,,,,,,,,,,,,,,,,,,,,,,,,,,,
,,,,,,5d34ab54c374970001e8b76b,62c539134fe15b429b53c7bc,2022-07-06_09h26.28.596,Colour_Asymmetry_Pilot,2022.1.3,Win32,143.5132032,62c50e9c1127f2cd403a315f,,,,,,,,,,,,,,,,,,,,fourthree,,-3,0.5903,,,,,,,,,,,,,,,,,,,,,,,,,,,,,,,,,,"[0.05879999999999996,0.2784,0.5841999999999998]","[-0.4668,-0.8746,-0.2942]",-66,33,1,0,0,response7disk,-25,-10,1,0,0,rectangle,-25,-10,1,0,0,-2,2,0.0006,0,-25,-10,1,0,0,0,4,4,99,1,18,second,,,,,,,,,,,,,,,,,,,,,,,,,,,,,,,,,,,,,,,,,,,,,,,,,,,,,,,,,,,,,,,,,,,,,,,,
,,,,,,5d34ab54c374970001e8b76b,62c539134fe15b429b53c7bc,2022-07-06_09h26.28.596,Colour_Asymmetry_Pilot,2022.1.3,Win32,143.5132032,62c50e9c1127f2cd403a315f,,,,,,,,,,,,,,,,,,,,fourtwo,,1,0.6459,,,,,,,,,,,,,,,,,,,,,,,,,,,,,,,,,,"[0.23120000000000007,-0.7726,-0.34120000000000006]","[0.8115999999999999,-0.0040000000000000036,-0.09819999999999995]",50,-99,1,0,0,response3disk,11,-11,1,0,0,rectangle,11,-11,1,0,0,-2,2,0.0002,0,11,-11,1,0,0,0,5,5,98,1,17,second,,,,,,,,,,,,,,,,,,,,,,,,,,,,,,,,,,,,,,,,,,,,,,,,,,,,,,,,,,,,,,,,,,,,,,,,
,,,,,,5d34ab54c374970001e8b76b,62c539134fe15b429b53c7bc,2022-07-06_09h26.28.596,Colour_Asymmetry_Pilot,2022.1.3,Win32,143.5132032,62c50e9c1127f2cd403a315f,,,,,,,,,,,,,,,,,,,,fourtwo,,1,0.4445,,,,,,,,,,,,,,,,,,,,,,,,,,,,,,,,,,"[-0.10599999999999998,-0.10599999999999998,0.5841999999999998]","[-0.5922000000000001,-0.7492000000000001,-0.5296000000000001]",48,-119,1,0,0,response3disk,-7,1,1,0,0,rectangle,-7,1,1,0,0,-2,1,0.0005,0,-7,1,1,0,0,0,6,6,82,1,1,second,,,,,,,,,,,,,,,,,,,,,,,,,,,,,,,,,,,,,,,,,,,,,,,,,,,,,,,,,,,,,,,,,,,,,,,,
,,,,,,5d34ab54c374970001e8b76b,62c539134fe15b429b53c7bc,2022-07-06_09h26.28.596,Colour_Asymmetry_Pilot,2022.1.3,Win32,143.5132032,62c50e9c1127f2cd403a315f,,,,,,,,,,,,,,,,,,,,threeone,,-1,0.4793,,,,,,,,,,,,,,,,,,,,,,,,,,,,,,,,,,"[0.7646000000000002,0.07440000000000002,0.2704]","[0.7802,-0.23140000000000005,-0.20799999999999996]",-43,-104,1,0,0,response5disk,-10,1,1,0,0,rectangle,-10,1,1,0,0,-2,2,0.0004,0,-10,1,1,0,0,0,7,7,108,1,27,second,,,,,,,,,,,,,,,,,,,,,,,,,,,,,,,,,,,,,,,,,,,,,,,,,,,,,,,,,,,,,,,,,,,,,,,,
,,,,,,5d34ab54c374970001e8b76b,62c539134fe15b429b53c7bc,2022-07-06_09h26.28.596,Colour_Asymmetry_Pilot,2022.1.3,Win32,143.5132032,62c50e9c1127f2cd403a315f,,,,,,,,,,,,,,,,,,,,onethree,,-3,0.5969,,,,,,,,,,,,,,,,,,,,,,,,,,,,,,,,,,"[-0.34920000000000007,-0.702,-0.5216]","[0.04299999999999993,0.16060000000000008,-0.6628000000000001]",-105,30,1,0,0,response7disk,-35,-9,1,0,0,rectangle,-35,-9,1,0,0,-2,1,0.0005,0,-35,-9,1,0,0,0,8,8,155,1,74,second,,,,,,,,,,,,,,,,,,,,,,,,,,,,,,,,,,,,,,,,,,,,,,,,,,,,,,,,,,,,,,,,,,,,,,,,
,,,,,,5d34ab54c374970001e8b76b,62c539134fe15b429b53c7bc,2022-07-06_09h26.28.596,Colour_Asymmetry_Pilot,2022.1.3,Win32,143.5132032,62c50e9c1127f2cd403a315f,,,,,,,,,,,,,,,,,,,,twoone,,-1,1.3822,,,,,,,,,,,,,,,,,,,,,,,,,,,,,,,,,,"[0.8115999999999999,-0.0040000000000000036,-0.09819999999999995]","[-0.01980000000000004,-0.5138,-0.38039999999999996]",-26,-117,1,0,0,response5disk,-6,-14,1,0,0,rectangle,-6,-14,1,0,0,-2,3,0.0005,0,-6,-14,1,0,0,0,9,9,125,1,44,second,,,,,,,,,,,,,,,,,,,,,,,,,,,,,,,,,,,,,,,,,,,,,,,,,,,,,,,,,,,,,,,,,,,,,,,,
,,,,,,5d34ab54c374970001e8b76b,62c539134fe15b429b53c7bc,2022-07-06_09h26.28.596,Colour_Asymmetry_Pilot,2022.1.3,Win32,143.5132032,62c50e9c1127f2cd403a315f,,,,,,,,,,,,,,,,,,,,onethree,,-4,1.1044,,,,,,,,,,,,,,,,,,,,,,,,,,,,,,,,,,"[-0.5922000000000001,-0.7492000000000001,-0.5296000000000001]","[-0.9844,-0.9688,-0.9922]",-39,141,1,0,0,response7disk,-3,-19,1,0,0,rectangle,-3,-19,1,0,0,-2,3,0.0001,0,-3,-19,1,0,0,0,10,10,145,1,64,second,,,,,,,,,,,,,,,,,,,,,,,,,,,,,,,,,,,,,,,,,,,,,,,,,,,,,,,,,,,,,,,,,,,,,,,,
,,,,,,5d34ab54c374970001e8b76b,62c539134fe15b429b53c7bc,2022-07-06_09h26.28.596,Colour_Asymmetry_Pilot,2022.1.3,Win32,143.5132032,62c50e9c1127f2cd403a315f,,,,,,,,,,,,,,,,,,,,twoone,,1,0.8333,,,,,,,,,,,,,,,,,,,,,,,,,,,,,,,,,,"[-0.011800000000000033,-0.906,-0.45100000000000007]","[-0.38039999999999996,-0.4276,-0.1452]",62,-99,1,0,0,response3disk,24,-14,1,0,0,rectangle,24,-14,1,0,0,-2,1,0.0004,0,24,-14,1,0,0,0,11,11,31,1,31,first,,,,,,,,,,,,,,,,,,,,,,,,,,,,,,,,,,,,,,,,,,,,,,,,,,,,,,,,,,,,,,,,,,,,,,,,
,,,,,,5d34ab54c374970001e8b76b,62c539134fe15b429b53c7bc,2022-07-06_09h26.28.596,Colour_Asymmetry_Pilot,2022.1.3,Win32,143.5132032,62c50e9c1127f2cd403a315f,,,,,,,,,,,,,,,,,,,,twoone,,-4,0.5417,,,,,,,,,,,,,,,,,,,,,,,,,,,,,,,,,,"[0.11359999999999992,0.6312,0.5213999999999999]","[-0.06680000000000008,-0.45100000000000007,-0.906]",-40,116,1,0,0,response7disk,-13,-2,1,0,0,rectangle,-13,-2,1,0,0,-2,2,0.0004,0,-13,-2,1,0,0,0,12,12,84,1,3,second,,,,,,,,,,,,,,,,,,,,,,,,,,,,,,,,,,,,,,,,,,,,,,,,,,,,,,,,,,,,,,,,,,,,,,,,
,,,,,,5d34ab54c374970001e8b76b,62c539134fe15b429b53c7bc,2022-07-06_09h26.28.596,Colour_Asymmetry_Pilot,2022.1.3,Win32,143.5132032,62c50e9c1127f2cd403a315f,,,,,,,,,,,,,,,,,,,,threefour,,-4,0.4028,,,,,,,,,,,,,,,,,,,,,,,,,,,,,,,,,,"[-0.8118,-0.8198,-0.5452]","[0.9213999999999998,0.6391999999999998,-0.9922]",-44,112,1,0,0,response7disk,-19,-14,1,0,0,rectangle,-19,-14,1,0,0,-2,1,0.0006,0,-19,-14,1,0,0,0,13,13,133,1,52,second,,,,,,,,,,,,,,,,,,,,,,,,,,,,,,,,,,,,,,,,,,,,,,,,,,,,,,,,,,,,,,,,,,,,,,,,
,,,,,,5d34ab54c374970001e8b76b,62c539134fe15b429b53c7bc,2022-07-06_09h26.28.596,Colour_Asymmetry_Pilot,2022.1.3,Win32,143.5132032,62c50e9c1127f2cd403a315f,,,,,,,,,,,,,,,,,,,,onethree,,-2,1.3614,,,,,,,,,,,,,,,,,,,,,,,,,,,,,,,,,,"[0.3802000000000001,0.19199999999999995,-0.6394]","[-0.26280000000000003,-0.2158,-0.3256]",-57,-39,1,0,0,response5disk,-15,-14,1,0,0,rectangle,-15,-14,1,0,0,-2,3,0.0006,0,-15,-14,1,0,0,0,14,14,30,1,30,first,,,,,,,,,,,,,,,,,,,,,,,,,,,,,,,,,,,,,,,,,,,,,,,,,,,,,,,,,,,,,,,,,,,,,,,,
,,,,,,5d34ab54c374970001e8b76b,62c539134fe15b429b53c7bc,2022-07-06_09h26.28.596,Colour_Asymmetry_Pilot,2022.1.3,Win32,143.5132032,62c50e9c1127f2cd403a315f,,,,,,,,,,,,,,,,,,,,fourtwo,,-2,0.4589,,,,,,,,,,,,,,,,,,,,,,,,,,,,,,,,,,"[-0.34920000000000007,-0.702,-0.5216]","[-0.01980000000000004,-0.5138,-0.38039999999999996]",-92,-38,1,0,0,response5disk,-40,-10,1,0,0,rectangle,108,-54,1,0,0,2,2,5.1395,1,-9,-3,1,0,0,0,15,15,76,1,76,first,response3disk_3,rectangle,,,,,,,,,,,,,,,,,,,,,,,,,,,,,,,,,,,,,,,,,,,,,,,,,,,,,,,,,,,,,,,,,,,,,,
,,,,,,5d34ab54c374970001e8b76b,62c539134fe15b429b53c7bc,2022-07-06_09h26.28.596,Colour_Asymmetry_Pilot,2022.1.3,Win32,143.5132032,62c50e9c1127f2cd403a315f,,,,,,,,,,,,,,,,,,,,threeone,,2,3.0631,,,,,,,,,,,,,,,,,,,,,,,,,,,,,,,,,,"[-0.26280000000000003,-0.4746,-0.2158]","[-0.9138,-0.5296000000000001,-0.5529999999999999]",90,-51,1,0,0,response3disk,21,-4,1,0,0,rectangle,21,-4,1,0,0,2,2,0.0001,0,21,-4,1,0,0,0,16,16,37,1,37,first,,,,,,,,,,,,,,,,,,,,,,,,,,,,,,,,,,,,,,,,,,,,,,,,,,,,,,,,,,,,,,,,,,,,,,,,
