trials.thisRepN,trials.thisTrialN,trials.thisN,trials.thisIndex,trials.ran,Colourcodes,participant,session,date,expName,psychopyVersion,OS,frameRate,study_id,trials_4.thisRepN,trials_4.thisTrialN,trials_4.thisN,trials_4.thisIndex,trials_4.ran,StimulusPos,key_resp.keys,key_resp.rt,key_resp_2.keys,key_resp_2.rt,key_resp_15.keys,key_resp_15.rt,key_resp_17.keys,key_resp_17.rt,key_resp_9.keys,key_resp_9.rt,key_resp_10.keys,key_resp_10.rt,Circle1_col,Ecc,Circle2_col,similarity,response_time,mouse_5.x,mouse_5.y,mouse_5.leftButton,mouse_5.midButton,mouse_5.rightButton,mouse_5.clicked_name,mouse_10.x,mouse_10.y,mouse_10.leftButton,mouse_10.midButton,mouse_10.rightButton,mouse_10.clicked_name,mouse_7.x,mouse_7.y,mouse_7.leftButton,mouse_7.midButton,mouse_7.rightButton,catchnumberprac,mouse_6.x,mouse_6.y,mouse_6.leftButton,mouse_6.midButton,mouse_6.rightButton,duringprac.thisRepN,duringprac.thisTrialN,duringprac.thisN,duringprac.thisIndex,duringprac.ran,mouse_7.clicked_name,catchprac,mouse_6.clicked_name,key_resp_22.keys,key_resp_22.rt,Circle1_colour,Circle2_colour,mouse.x,mouse.y,mouse.leftButton,mouse.midButton,mouse.rightButton,mouse.clicked_name,mouse_2.x,mouse_2.y,mouse_2.leftButton,mouse_2.midButton,mouse_2.rightButton,mouse_2.clicked_name,mouse_3.x,mouse_3.y,mouse_3.leftButton,mouse_3.midButton,mouse_3.rightButton,catchresponse,catchnumber,response_time_catch,Catch,mouse_11.x,mouse_11.y,mouse_11.leftButton,mouse_11.midButton,mouse_11.rightButton,trials_2.thisRepN,trials_2.thisTrialN,trials_2.thisN,trials_2.thisIndex,trials_2.ran,Colourpair,Temporder,mouse_3.clicked_name,mouse_11.clicked_name,trials_3.thisRepN,trials_3.thisTrialN,trials_3.thisN,trials_3.thisIndex,trials_3.ran,key_resp_instr_Ishi.keys,key_resp_instr_Ishi.rt,Ishi_trial_keyresp.keys,Ishi_textbox.text,Ishi_mouse.x,Ishi_mouse.y,Ishi_mouse.leftButton,Ishi_mouse.midButton,Ishi_mouse.rightButton,Ishi_mouse.clicked_name,Ishi_loop.thisRepN,Ishi_loop.thisTrialN,Ishi_loop.thisN,Ishi_loop.thisIndex,Ishi_loop.ran,imageaddress,textbox.text,mouse_4.x,mouse_4.y,mouse_4.leftButton,mouse_4.midButton,mouse_4.rightButton,mouse_4.clicked_name,textbox_2.text,mouse_8.x,mouse_8.y,mouse_8.leftButton,mouse_8.midButton,mouse_8.rightButton,mouse_8.clicked_name,textbox_3.text,mouse_9.x,mouse_9.y,mouse_9.leftButton,mouse_9.midButton,mouse_9.rightButton,mouse_9.clicked_name,textbox_4.text,mouse_12.x,mouse_12.y,mouse_12.leftButton,mouse_12.midButton,mouse_12.rightButton,mouse_12.clicked_name,textbox_5.text,mouse_13.x,mouse_13.y,mouse_13.leftButton,mouse_13.midButton,mouse_13.rightButton,mouse_13.clicked_name,textbox_6.text,mouse_14.x,mouse_14.y,mouse_14.leftButton,mouse_14.midButton,mouse_14.rightButton,mouse_14.clicked_name,textbox_7.text,mouse_15.x,mouse_15.y,mouse_15.leftButton,mouse_15.midButton,mouse_15.rightButton,mouse_15.clicked_name
0,0,0,40,1,,60c8f96ddb749ea0361c1ae8,62c53a0a5a620c2b376daf8b,2022-07-06_09h31.25.539,Colour_Asymmetry_Pilot,2022.1.3,Win32,60.09254252,62c50e9c1127f2cd403a315f,,,,,,,,,,,,,,,,,,,,,,,,,,,,,,,,,,,,,,,,,,,,,,,,,,,,,,,,,,,,,,,,,,,,,,,,,,,,,,,,,,,,,,,,,,,,,,,,,,,,,,,,,,,,,,,,,,,,,,,,,,,,,,,,,,,,,,,,,,,,,,,,,,,,,,,,,,,,,,,,,,,
0,1,1,14,1,,60c8f96ddb749ea0361c1ae8,62c53a0a5a620c2b376daf8b,2022-07-06_09h31.25.539,Colour_Asymmetry_Pilot,2022.1.3,Win32,60.09254252,62c50e9c1127f2cd403a315f,,,,,,,,,,,,,,,,,,,,,,,,,,,,,,,,,,,,,,,,,,,,,,,,,,,,,,,,,,,,,,,,,,,,,,,,,,,,,,,,,,,,,,,,,,,,,,,,,,,,,,,,,,,,,,,,,,,,,,,,,,,,,,,,,,,,,,,,,,,,,,,,,,,,,,,,,,,,,,,,,,,
0,2,2,42,1,,60c8f96ddb749ea0361c1ae8,62c53a0a5a620c2b376daf8b,2022-07-06_09h31.25.539,Colour_Asymmetry_Pilot,2022.1.3,Win32,60.09254252,62c50e9c1127f2cd403a315f,,,,,,,,,,,,,,,,,,,,,,,,,,,,,,,,,,,,,,,,,,,,,,,,,,,,,,,,,,,,,,,,,,,,,,,,,,,,,,,,,,,,,,,,,,,,,,,,,,,,,,,,,,,,,,,,,,,,,,,,,,,,,,,,,,,,,,,,,,,,,,,,,,,,,,,,,,,,,,,,,,,
0,3,3,51,1,,60c8f96ddb749ea0361c1ae8,62c53a0a5a620c2b376daf8b,2022-07-06_09h31.25.539,Colour_Asymmetry_Pilot,2022.1.3,Win32,60.09254252,62c50e9c1127f2cd403a315f,,,,,,,,,,,,,,,,,,,,,,,,,,,,,,,,,,,,,,,,,,,,,,,,,,,,,,,,,,,,,,,,,,,,,,,,,,,,,,,,,,,,,,,,,,,,,,,,,,,,,,,,,,,,,,,,,,,,,,,,,,,,,,,,,,,,,,,,,,,,,,,,,,,,,,,,,,,,,,,,,,,
0,4,4,79,1,,60c8f96ddb749ea0361c1ae8,62c53a0a5a620c2b376daf8b,2022-07-06_09h31.25.539,Colour_Asymmetry_Pilot,2022.1.3,Win32,60.09254252,62c50e9c1127f2cd403a315f,,,,,,,,,,,,,,,,,,,,,,,,,,,,,,,,,,,,,,,,,,,,,,,,,,,,,,,,,,,,,,,,,,,,,,,,,,,,,,,,,,,,,,,,,,,,,,,,,,,,,,,,,,,,,,,,,,,,,,,,,,,,,,,,,,,,,,,,,,,,,,,,,,,,,,,,,,,,,,,,,,,
0,5,5,67,1,,60c8f96ddb749ea0361c1ae8,62c53a0a5a620c2b376daf8b,2022-07-06_09h31.25.539,Colour_Asymmetry_Pilot,2022.1.3,Win32,60.09254252,62c50e9c1127f2cd403a315f,,,,,,,,,,,,,,,,,,,,,,,,,,,,,,,,,,,,,,,,,,,,,,,,,,,,,,,,,,,,,,,,,,,,,,,,,,,,,,,,,,,,,,,,,,,,,,,,,,,,,,,,,,,,,,,,,,,,,,,,,,,,,,,,,,,,,,,,,,,,,,,,,,,,,,,,,,,,,,,,,,,
0,6,6,44,1,,60c8f96ddb749ea0361c1ae8,62c53a0a5a620c2b376daf8b,2022-07-06_09h31.25.539,Colour_Asymmetry_Pilot,2022.1.3,Win32,60.09254252,62c50e9c1127f2cd403a315f,,,,,,,,,,,,,,,,,,,,,,,,,,,,,,,,,,,,,,,,,,,,,,,,,,,,,,,,,,,,,,,,,,,,,,,,,,,,,,,,,,,,,,,,,,,,,,,,,,,,,,,,,,,,,,,,,,,,,,,,,,,,,,,,,,,,,,,,,,,,,,,,,,,,,,,,,,,,,,,,,,,
0,7,7,71,1,,60c8f96ddb749ea0361c1ae8,62c53a0a5a620c2b376daf8b,2022-07-06_09h31.25.539,Colour_Asymmetry_Pilot,2022.1.3,Win32,60.09254252,62c50e9c1127f2cd403a315f,,,,,,,,,,,,,,,,,,,,,,,,,,,,,,,,,,,,,,,,,,,,,,,,,,,,,,,,,,,,,,,,,,,,,,,,,,,,,,,,,,,,,,,,,,,,,,,,,,,,,,,,,,,,,,,,,,,,,,,,,,,,,,,,,,,,,,,,,,,,,,,,,,,,,,,,,,,,,,,,,,,
0,8,8,63,1,,60c8f96ddb749ea0361c1ae8,62c53a0a5a620c2b376daf8b,2022-07-06_09h31.25.539,Colour_Asymmetry_Pilot,2022.1.3,Win32,60.09254252,62c50e9c1127f2cd403a315f,,,,,,,,,,,,,,,,,,,,,,,,,,,,,,,,,,,,,,,,,,,,,,,,,,,,,,,,,,,,,,,,,,,,,,,,,,,,,,,,,,,,,,,,,,,,,,,,,,,,,,,,,,,,,,,,,,,,,,,,,,,,,,,,,,,,,,,,,,,,,,,,,,,,,,,,,,,,,,,,,,,
0,9,9,70,1,,60c8f96ddb749ea0361c1ae8,62c53a0a5a620c2b376daf8b,2022-07-06_09h31.25.539,Colour_Asymmetry_Pilot,2022.1.3,Win32,60.09254252,62c50e9c1127f2cd403a315f,,,,,,,,,,,,,,,,,,,,,,,,,,,,,,,,,,,,,,,,,,,,,,,,,,,,,,,,,,,,,,,,,,,,,,,,,,,,,,,,,,,,,,,,,,,,,,,,,,,,,,,,,,,,,,,,,,,,,,,,,,,,,,,,,,,,,,,,,,,,,,,,,,,,,,,,,,,,,,,,,,,
0,10,10,28,1,,60c8f96ddb749ea0361c1ae8,62c53a0a5a620c2b376daf8b,2022-07-06_09h31.25.539,Colour_Asymmetry_Pilot,2022.1.3,Win32,60.09254252,62c50e9c1127f2cd403a315f,,,,,,,,,,,,,,,,,,,,,,,,,,,,,,,,,,,,,,,,,,,,,,,,,,,,,,,,,,,,,,,,,,,,,,,,,,,,,,,,,,,,,,,,,,,,,,,,,,,,,,,,,,,,,,,,,,,,,,,,,,,,,,,,,,,,,,,,,,,,,,,,,,,,,,,,,,,,,,,,,,,
0,11,11,31,1,,60c8f96ddb749ea0361c1ae8,62c53a0a5a620c2b376daf8b,2022-07-06_09h31.25.539,Colour_Asymmetry_Pilot,2022.1.3,Win32,60.09254252,62c50e9c1127f2cd403a315f,,,,,,,,,,,,,,,,,,,,,,,,,,,,,,,,,,,,,,,,,,,,,,,,,,,,,,,,,,,,,,,,,,,,,,,,,,,,,,,,,,,,,,,,,,,,,,,,,,,,,,,,,,,,,,,,,,,,,,,,,,,,,,,,,,,,,,,,,,,,,,,,,,,,,,,,,,,,,,,,,,,
0,12,12,90,1,,60c8f96ddb749ea0361c1ae8,62c53a0a5a620c2b376daf8b,2022-07-06_09h31.25.539,Colour_Asymmetry_Pilot,2022.1.3,Win32,60.09254252,62c50e9c1127f2cd403a315f,,,,,,,,,,,,,,,,,,,,,,,,,,,,,,,,,,,,,,,,,,,,,,,,,,,,,,,,,,,,,,,,,,,,,,,,,,,,,,,,,,,,,,,,,,,,,,,,,,,,,,,,,,,,,,,,,,,,,,,,,,,,,,,,,,,,,,,,,,,,,,,,,,,,,,,,,,,,,,,,,,,
0,13,13,58,1,,60c8f96ddb749ea0361c1ae8,62c53a0a5a620c2b376daf8b,2022-07-06_09h31.25.539,Colour_Asymmetry_Pilot,2022.1.3,Win32,60.09254252,62c50e9c1127f2cd403a315f,,,,,,,,,,,,,,,,,,,,,,,,,,,,,,,,,,,,,,,,,,,,,,,,,,,,,,,,,,,,,,,,,,,,,,,,,,,,,,,,,,,,,,,,,,,,,,,,,,,,,,,,,,,,,,,,,,,,,,,,,,,,,,,,,,,,,,,,,,,,,,,,,,,,,,,,,,,,,,,,,,,
0,14,14,47,1,,60c8f96ddb749ea0361c1ae8,62c53a0a5a620c2b376daf8b,2022-07-06_09h31.25.539,Colour_Asymmetry_Pilot,2022.1.3,Win32,60.09254252,62c50e9c1127f2cd403a315f,,,,,,,,,,,,,,,,,,,,,,,,,,,,,,,,,,,,,,,,,,,,,,,,,,,,,,,,,,,,,,,,,,,,,,,,,,,,,,,,,,,,,,,,,,,,,,,,,,,,,,,,,,,,,,,,,,,,,,,,,,,,,,,,,,,,,,,,,,,,,,,,,,,,,,,,,,,,,,,,,,,
0,15,15,1,1,,60c8f96ddb749ea0361c1ae8,62c53a0a5a620c2b376daf8b,2022-07-06_09h31.25.539,Colour_Asymmetry_Pilot,2022.1.3,Win32,60.09254252,62c50e9c1127f2cd403a315f,,,,,,,,,,,,,,,,,,,,,,,,,,,,,,,,,,,,,,,,,,,,,,,,,,,,,,,,,,,,,,,,,,,,,,,,,,,,,,,,,,,,,,,,,,,,,,,,,,,,,,,,,,,,,,,,,,,,,,,,,,,,,,,,,,,,,,,,,,,,,,,,,,,,,,,,,,,,,,,,,,,
0,16,16,61,1,,60c8f96ddb749ea0361c1ae8,62c53a0a5a620c2b376daf8b,2022-07-06_09h31.25.539,Colour_Asymmetry_Pilot,2022.1.3,Win32,60.09254252,62c50e9c1127f2cd403a315f,,,,,,,,,,,,,,,,,,,,,,,,,,,,,,,,,,,,,,,,,,,,,,,,,,,,,,,,,,,,,,,,,,,,,,,,,,,,,,,,,,,,,,,,,,,,,,,,,,,,,,,,,,,,,,,,,,,,,,,,,,,,,,,,,,,,,,,,,,,,,,,,,,,,,,,,,,,,,,,,,,,
0,17,17,86,1,,60c8f96ddb749ea0361c1ae8,62c53a0a5a620c2b376daf8b,2022-07-06_09h31.25.539,Colour_Asymmetry_Pilot,2022.1.3,Win32,60.09254252,62c50e9c1127f2cd403a315f,,,,,,,,,,,,,,,,,,,,,,,,,,,,,,,,,,,,,,,,,,,,,,,,,,,,,,,,,,,,,,,,,,,,,,,,,,,,,,,,,,,,,,,,,,,,,,,,,,,,,,,,,,,,,,,,,,,,,,,,,,,,,,,,,,,,,,,,,,,,,,,,,,,,,,,,,,,,,,,,,,,
0,18,18,41,1,,60c8f96ddb749ea0361c1ae8,62c53a0a5a620c2b376daf8b,2022-07-06_09h31.25.539,Colour_Asymmetry_Pilot,2022.1.3,Win32,60.09254252,62c50e9c1127f2cd403a315f,,,,,,,,,,,,,,,,,,,,,,,,,,,,,,,,,,,,,,,,,,,,,,,,,,,,,,,,,,,,,,,,,,,,,,,,,,,,,,,,,,,,,,,,,,,,,,,,,,,,,,,,,,,,,,,,,,,,,,,,,,,,,,,,,,,,,,,,,,,,,,,,,,,,,,,,,,,,,,,,,,,
0,19,19,62,1,,60c8f96ddb749ea0361c1ae8,62c53a0a5a620c2b376daf8b,2022-07-06_09h31.25.539,Colour_Asymmetry_Pilot,2022.1.3,Win32,60.09254252,62c50e9c1127f2cd403a315f,,,,,,,,,,,,,,,,,,,,,,,,,,,,,,,,,,,,,,,,,,,,,,,,,,,,,,,,,,,,,,,,,,,,,,,,,,,,,,,,,,,,,,,,,,,,,,,,,,,,,,,,,,,,,,,,,,,,,,,,,,,,,,,,,,,,,,,,,,,,,,,,,,,,,,,,,,,,,,,,,,,
0,20,20,80,1,,60c8f96ddb749ea0361c1ae8,62c53a0a5a620c2b376daf8b,2022-07-06_09h31.25.539,Colour_Asymmetry_Pilot,2022.1.3,Win32,60.09254252,62c50e9c1127f2cd403a315f,,,,,,,,,,,,,,,,,,,,,,,,,,,,,,,,,,,,,,,,,,,,,,,,,,,,,,,,,,,,,,,,,,,,,,,,,,,,,,,,,,,,,,,,,,,,,,,,,,,,,,,,,,,,,,,,,,,,,,,,,,,,,,,,,,,,,,,,,,,,,,,,,,,,,,,,,,,,,,,,,,,
0,21,21,81,1,,60c8f96ddb749ea0361c1ae8,62c53a0a5a620c2b376daf8b,2022-07-06_09h31.25.539,Colour_Asymmetry_Pilot,2022.1.3,Win32,60.09254252,62c50e9c1127f2cd403a315f,,,,,,,,,,,,,,,,,,,,,,,,,,,,,,,,,,,,,,,,,,,,,,,,,,,,,,,,,,,,,,,,,,,,,,,,,,,,,,,,,,,,,,,,,,,,,,,,,,,,,,,,,,,,,,,,,,,,,,,,,,,,,,,,,,,,,,,,,,,,,,,,,,,,,,,,,,,,,,,,,,,
0,22,22,74,1,,60c8f96ddb749ea0361c1ae8,62c53a0a5a620c2b376daf8b,2022-07-06_09h31.25.539,Colour_Asymmetry_Pilot,2022.1.3,Win32,60.09254252,62c50e9c1127f2cd403a315f,,,,,,,,,,,,,,,,,,,,,,,,,,,,,,,,,,,,,,,,,,,,,,,,,,,,,,,,,,,,,,,,,,,,,,,,,,,,,,,,,,,,,,,,,,,,,,,,,,,,,,,,,,,,,,,,,,,,,,,,,,,,,,,,,,,,,,,,,,,,,,,,,,,,,,,,,,,,,,,,,,,
0,23,23,84,1,,60c8f96ddb749ea0361c1ae8,62c53a0a5a620c2b376daf8b,2022-07-06_09h31.25.539,Colour_Asymmetry_Pilot,2022.1.3,Win32,60.09254252,62c50e9c1127f2cd403a315f,,,,,,,,,,,,,,,,,,,,,,,,,,,,,,,,,,,,,,,,,,,,,,,,,,,,,,,,,,,,,,,,,,,,,,,,,,,,,,,,,,,,,,,,,,,,,,,,,,,,,,,,,,,,,,,,,,,,,,,,,,,,,,,,,,,,,,,,,,,,,,,,,,,,,,,,,,,,,,,,,,,
0,24,24,37,1,,60c8f96ddb749ea0361c1ae8,62c53a0a5a620c2b376daf8b,2022-07-06_09h31.25.539,Colour_Asymmetry_Pilot,2022.1.3,Win32,60.09254252,62c50e9c1127f2cd403a315f,,,,,,,,,,,,,,,,,,,,,,,,,,,,,,,,,,,,,,,,,,,,,,,,,,,,,,,,,,,,,,,,,,,,,,,,,,,,,,,,,,,,,,,,,,,,,,,,,,,,,,,,,,,,,,,,,,,,,,,,,,,,,,,,,,,,,,,,,,,,,,,,,,,,,,,,,,,,,,,,,,,
0,25,25,20,1,,60c8f96ddb749ea0361c1ae8,62c53a0a5a620c2b376daf8b,2022-07-06_09h31.25.539,Colour_Asymmetry_Pilot,2022.1.3,Win32,60.09254252,62c50e9c1127f2cd403a315f,,,,,,,,,,,,,,,,,,,,,,,,,,,,,,,,,,,,,,,,,,,,,,,,,,,,,,,,,,,,,,,,,,,,,,,,,,,,,,,,,,,,,,,,,,,,,,,,,,,,,,,,,,,,,,,,,,,,,,,,,,,,,,,,,,,,,,,,,,,,,,,,,,,,,,,,,,,,,,,,,,,
0,26,26,50,1,,60c8f96ddb749ea0361c1ae8,62c53a0a5a620c2b376daf8b,2022-07-06_09h31.25.539,Colour_Asymmetry_Pilot,2022.1.3,Win32,60.09254252,62c50e9c1127f2cd403a315f,,,,,,,,,,,,,,,,,,,,,,,,,,,,,,,,,,,,,,,,,,,,,,,,,,,,,,,,,,,,,,,,,,,,,,,,,,,,,,,,,,,,,,,,,,,,,,,,,,,,,,,,,,,,,,,,,,,,,,,,,,,,,,,,,,,,,,,,,,,,,,,,,,,,,,,,,,,,,,,,,,,
0,27,27,92,1,,60c8f96ddb749ea0361c1ae8,62c53a0a5a620c2b376daf8b,2022-07-06_09h31.25.539,Colour_Asymmetry_Pilot,2022.1.3,Win32,60.09254252,62c50e9c1127f2cd403a315f,,,,,,,,,,,,,,,,,,,,,,,,,,,,,,,,,,,,,,,,,,,,,,,,,,,,,,,,,,,,,,,,,,,,,,,,,,,,,,,,,,,,,,,,,,,,,,,,,,,,,,,,,,,,,,,,,,,,,,,,,,,,,,,,,,,,,,,,,,,,,,,,,,,,,,,,,,,,,,,,,,,
0,28,28,12,1,,60c8f96ddb749ea0361c1ae8,62c53a0a5a620c2b376daf8b,2022-07-06_09h31.25.539,Colour_Asymmetry_Pilot,2022.1.3,Win32,60.09254252,62c50e9c1127f2cd403a315f,,,,,,,,,,,,,,,,,,,,,,,,,,,,,,,,,,,,,,,,,,,,,,,,,,,,,,,,,,,,,,,,,,,,,,,,,,,,,,,,,,,,,,,,,,,,,,,,,,,,,,,,,,,,,,,,,,,,,,,,,,,,,,,,,,,,,,,,,,,,,,,,,,,,,,,,,,,,,,,,,,,
0,29,29,83,1,,60c8f96ddb749ea0361c1ae8,62c53a0a5a620c2b376daf8b,2022-07-06_09h31.25.539,Colour_Asymmetry_Pilot,2022.1.3,Win32,60.09254252,62c50e9c1127f2cd403a315f,,,,,,,,,,,,,,,,,,,,,,,,,,,,,,,,,,,,,,,,,,,,,,,,,,,,,,,,,,,,,,,,,,,,,,,,,,,,,,,,,,,,,,,,,,,,,,,,,,,,,,,,,,,,,,,,,,,,,,,,,,,,,,,,,,,,,,,,,,,,,,,,,,,,,,,,,,,,,,,,,,,
0,30,30,24,1,,60c8f96ddb749ea0361c1ae8,62c53a0a5a620c2b376daf8b,2022-07-06_09h31.25.539,Colour_Asymmetry_Pilot,2022.1.3,Win32,60.09254252,62c50e9c1127f2cd403a315f,,,,,,,,,,,,,,,,,,,,,,,,,,,,,,,,,,,,,,,,,,,,,,,,,,,,,,,,,,,,,,,,,,,,,,,,,,,,,,,,,,,,,,,,,,,,,,,,,,,,,,,,,,,,,,,,,,,,,,,,,,,,,,,,,,,,,,,,,,,,,,,,,,,,,,,,,,,,,,,,,,,
0,31,31,4,1,,60c8f96ddb749ea0361c1ae8,62c53a0a5a620c2b376daf8b,2022-07-06_09h31.25.539,Colour_Asymmetry_Pilot,2022.1.3,Win32,60.09254252,62c50e9c1127f2cd403a315f,,,,,,,,,,,,,,,,,,,,,,,,,,,,,,,,,,,,,,,,,,,,,,,,,,,,,,,,,,,,,,,,,,,,,,,,,,,,,,,,,,,,,,,,,,,,,,,,,,,,,,,,,,,,,,,,,,,,,,,,,,,,,,,,,,,,,,,,,,,,,,,,,,,,,,,,,,,,,,,,,,,
0,32,32,59,1,,60c8f96ddb749ea0361c1ae8,62c53a0a5a620c2b376daf8b,2022-07-06_09h31.25.539,Colour_Asymmetry_Pilot,2022.1.3,Win32,60.09254252,62c50e9c1127f2cd403a315f,,,,,,,,,,,,,,,,,,,,,,,,,,,,,,,,,,,,,,,,,,,,,,,,,,,,,,,,,,,,,,,,,,,,,,,,,,,,,,,,,,,,,,,,,,,,,,,,,,,,,,,,,,,,,,,,,,,,,,,,,,,,,,,,,,,,,,,,,,,,,,,,,,,,,,,,,,,,,,,,,,,
0,33,33,23,1,,60c8f96ddb749ea0361c1ae8,62c53a0a5a620c2b376daf8b,2022-07-06_09h31.25.539,Colour_Asymmetry_Pilot,2022.1.3,Win32,60.09254252,62c50e9c1127f2cd403a315f,,,,,,,,,,,,,,,,,,,,,,,,,,,,,,,,,,,,,,,,,,,,,,,,,,,,,,,,,,,,,,,,,,,,,,,,,,,,,,,,,,,,,,,,,,,,,,,,,,,,,,,,,,,,,,,,,,,,,,,,,,,,,,,,,,,,,,,,,,,,,,,,,,,,,,,,,,,,,,,,,,,
0,34,34,2,1,,60c8f96ddb749ea0361c1ae8,62c53a0a5a620c2b376daf8b,2022-07-06_09h31.25.539,Colour_Asymmetry_Pilot,2022.1.3,Win32,60.09254252,62c50e9c1127f2cd403a315f,,,,,,,,,,,,,,,,,,,,,,,,,,,,,,,,,,,,,,,,,,,,,,,,,,,,,,,,,,,,,,,,,,,,,,,,,,,,,,,,,,,,,,,,,,,,,,,,,,,,,,,,,,,,,,,,,,,,,,,,,,,,,,,,,,,,,,,,,,,,,,,,,,,,,,,,,,,,,,,,,,,
0,35,35,15,1,,60c8f96ddb749ea0361c1ae8,62c53a0a5a620c2b376daf8b,2022-07-06_09h31.25.539,Colour_Asymmetry_Pilot,2022.1.3,Win32,60.09254252,62c50e9c1127f2cd403a315f,,,,,,,,,,,,,,,,,,,,,,,,,,,,,,,,,,,,,,,,,,,,,,,,,,,,,,,,,,,,,,,,,,,,,,,,,,,,,,,,,,,,,,,,,,,,,,,,,,,,,,,,,,,,,,,,,,,,,,,,,,,,,,,,,,,,,,,,,,,,,,,,,,,,,,,,,,,,,,,,,,,
0,36,36,60,1,,60c8f96ddb749ea0361c1ae8,62c53a0a5a620c2b376daf8b,2022-07-06_09h31.25.539,Colour_Asymmetry_Pilot,2022.1.3,Win32,60.09254252,62c50e9c1127f2cd403a315f,,,,,,,,,,,,,,,,,,,,,,,,,,,,,,,,,,,,,,,,,,,,,,,,,,,,,,,,,,,,,,,,,,,,,,,,,,,,,,,,,,,,,,,,,,,,,,,,,,,,,,,,,,,,,,,,,,,,,,,,,,,,,,,,,,,,,,,,,,,,,,,,,,,,,,,,,,,,,,,,,,,
0,37,37,64,1,,60c8f96ddb749ea0361c1ae8,62c53a0a5a620c2b376daf8b,2022-07-06_09h31.25.539,Colour_Asymmetry_Pilot,2022.1.3,Win32,60.09254252,62c50e9c1127f2cd403a315f,,,,,,,,,,,,,,,,,,,,,,,,,,,,,,,,,,,,,,,,,,,,,,,,,,,,,,,,,,,,,,,,,,,,,,,,,,,,,,,,,,,,,,,,,,,,,,,,,,,,,,,,,,,,,,,,,,,,,,,,,,,,,,,,,,,,,,,,,,,,,,,,,,,,,,,,,,,,,,,,,,,
0,38,38,9,1,,60c8f96ddb749ea0361c1ae8,62c53a0a5a620c2b376daf8b,2022-07-06_09h31.25.539,Colour_Asymmetry_Pilot,2022.1.3,Win32,60.09254252,62c50e9c1127f2cd403a315f,,,,,,,,,,,,,,,,,,,,,,,,,,,,,,,,,,,,,,,,,,,,,,,,,,,,,,,,,,,,,,,,,,,,,,,,,,,,,,,,,,,,,,,,,,,,,,,,,,,,,,,,,,,,,,,,,,,,,,,,,,,,,,,,,,,,,,,,,,,,,,,,,,,,,,,,,,,,,,,,,,,
0,39,39,56,1,,60c8f96ddb749ea0361c1ae8,62c53a0a5a620c2b376daf8b,2022-07-06_09h31.25.539,Colour_Asymmetry_Pilot,2022.1.3,Win32,60.09254252,62c50e9c1127f2cd403a315f,,,,,,,,,,,,,,,,,,,,,,,,,,,,,,,,,,,,,,,,,,,,,,,,,,,,,,,,,,,,,,,,,,,,,,,,,,,,,,,,,,,,,,,,,,,,,,,,,,,,,,,,,,,,,,,,,,,,,,,,,,,,,,,,,,,,,,,,,,,,,,,,,,,,,,,,,,,,,,,,,,,
0,40,40,29,1,,60c8f96ddb749ea0361c1ae8,62c53a0a5a620c2b376daf8b,2022-07-06_09h31.25.539,Colour_Asymmetry_Pilot,2022.1.3,Win32,60.09254252,62c50e9c1127f2cd403a315f,,,,,,,,,,,,,,,,,,,,,,,,,,,,,,,,,,,,,,,,,,,,,,,,,,,,,,,,,,,,,,,,,,,,,,,,,,,,,,,,,,,,,,,,,,,,,,,,,,,,,,,,,,,,,,,,,,,,,,,,,,,,,,,,,,,,,,,,,,,,,,,,,,,,,,,,,,,,,,,,,,,
0,41,41,33,1,,60c8f96ddb749ea0361c1ae8,62c53a0a5a620c2b376daf8b,2022-07-06_09h31.25.539,Colour_Asymmetry_Pilot,2022.1.3,Win32,60.09254252,62c50e9c1127f2cd403a315f,,,,,,,,,,,,,,,,,,,,,,,,,,,,,,,,,,,,,,,,,,,,,,,,,,,,,,,,,,,,,,,,,,,,,,,,,,,,,,,,,,,,,,,,,,,,,,,,,,,,,,,,,,,,,,,,,,,,,,,,,,,,,,,,,,,,,,,,,,,,,,,,,,,,,,,,,,,,,,,,,,,
0,42,42,48,1,,60c8f96ddb749ea0361c1ae8,62c53a0a5a620c2b376daf8b,2022-07-06_09h31.25.539,Colour_Asymmetry_Pilot,2022.1.3,Win32,60.09254252,62c50e9c1127f2cd403a315f,,,,,,,,,,,,,,,,,,,,,,,,,,,,,,,,,,,,,,,,,,,,,,,,,,,,,,,,,,,,,,,,,,,,,,,,,,,,,,,,,,,,,,,,,,,,,,,,,,,,,,,,,,,,,,,,,,,,,,,,,,,,,,,,,,,,,,,,,,,,,,,,,,,,,,,,,,,,,,,,,,,
0,43,43,78,1,,60c8f96ddb749ea0361c1ae8,62c53a0a5a620c2b376daf8b,2022-07-06_09h31.25.539,Colour_Asymmetry_Pilot,2022.1.3,Win32,60.09254252,62c50e9c1127f2cd403a315f,,,,,,,,,,,,,,,,,,,,,,,,,,,,,,,,,,,,,,,,,,,,,,,,,,,,,,,,,,,,,,,,,,,,,,,,,,,,,,,,,,,,,,,,,,,,,,,,,,,,,,,,,,,,,,,,,,,,,,,,,,,,,,,,,,,,,,,,,,,,,,,,,,,,,,,,,,,,,,,,,,,
0,44,44,11,1,,60c8f96ddb749ea0361c1ae8,62c53a0a5a620c2b376daf8b,2022-07-06_09h31.25.539,Colour_Asymmetry_Pilot,2022.1.3,Win32,60.09254252,62c50e9c1127f2cd403a315f,,,,,,,,,,,,,,,,,,,,,,,,,,,,,,,,,,,,,,,,,,,,,,,,,,,,,,,,,,,,,,,,,,,,,,,,,,,,,,,,,,,,,,,,,,,,,,,,,,,,,,,,,,,,,,,,,,,,,,,,,,,,,,,,,,,,,,,,,,,,,,,,,,,,,,,,,,,,,,,,,,,
0,45,45,82,1,,60c8f96ddb749ea0361c1ae8,62c53a0a5a620c2b376daf8b,2022-07-06_09h31.25.539,Colour_Asymmetry_Pilot,2022.1.3,Win32,60.09254252,62c50e9c1127f2cd403a315f,,,,,,,,,,,,,,,,,,,,,,,,,,,,,,,,,,,,,,,,,,,,,,,,,,,,,,,,,,,,,,,,,,,,,,,,,,,,,,,,,,,,,,,,,,,,,,,,,,,,,,,,,,,,,,,,,,,,,,,,,,,,,,,,,,,,,,,,,,,,,,,,,,,,,,,,,,,,,,,,,,,
0,46,46,45,1,,60c8f96ddb749ea0361c1ae8,62c53a0a5a620c2b376daf8b,2022-07-06_09h31.25.539,Colour_Asymmetry_Pilot,2022.1.3,Win32,60.09254252,62c50e9c1127f2cd403a315f,,,,,,,,,,,,,,,,,,,,,,,,,,,,,,,,,,,,,,,,,,,,,,,,,,,,,,,,,,,,,,,,,,,,,,,,,,,,,,,,,,,,,,,,,,,,,,,,,,,,,,,,,,,,,,,,,,,,,,,,,,,,,,,,,,,,,,,,,,,,,,,,,,,,,,,,,,,,,,,,,,,
0,47,47,85,1,,60c8f96ddb749ea0361c1ae8,62c53a0a5a620c2b376daf8b,2022-07-06_09h31.25.539,Colour_Asymmetry_Pilot,2022.1.3,Win32,60.09254252,62c50e9c1127f2cd403a315f,,,,,,,,,,,,,,,,,,,,,,,,,,,,,,,,,,,,,,,,,,,,,,,,,,,,,,,,,,,,,,,,,,,,,,,,,,,,,,,,,,,,,,,,,,,,,,,,,,,,,,,,,,,,,,,,,,,,,,,,,,,,,,,,,,,,,,,,,,,,,,,,,,,,,,,,,,,,,,,,,,,
0,48,48,22,1,,60c8f96ddb749ea0361c1ae8,62c53a0a5a620c2b376daf8b,2022-07-06_09h31.25.539,Colour_Asymmetry_Pilot,2022.1.3,Win32,60.09254252,62c50e9c1127f2cd403a315f,,,,,,,,,,,,,,,,,,,,,,,,,,,,,,,,,,,,,,,,,,,,,,,,,,,,,,,,,,,,,,,,,,,,,,,,,,,,,,,,,,,,,,,,,,,,,,,,,,,,,,,,,,,,,,,,,,,,,,,,,,,,,,,,,,,,,,,,,,,,,,,,,,,,,,,,,,,,,,,,,,,
0,49,49,73,1,,60c8f96ddb749ea0361c1ae8,62c53a0a5a620c2b376daf8b,2022-07-06_09h31.25.539,Colour_Asymmetry_Pilot,2022.1.3,Win32,60.09254252,62c50e9c1127f2cd403a315f,,,,,,,,,,,,,,,,,,,,,,,,,,,,,,,,,,,,,,,,,,,,,,,,,,,,,,,,,,,,,,,,,,,,,,,,,,,,,,,,,,,,,,,,,,,,,,,,,,,,,,,,,,,,,,,,,,,,,,,,,,,,,,,,,,,,,,,,,,,,,,,,,,,,,,,,,,,,,,,,,,,
0,50,50,52,1,,60c8f96ddb749ea0361c1ae8,62c53a0a5a620c2b376daf8b,2022-07-06_09h31.25.539,Colour_Asymmetry_Pilot,2022.1.3,Win32,60.09254252,62c50e9c1127f2cd403a315f,,,,,,,,,,,,,,,,,,,,,,,,,,,,,,,,,,,,,,,,,,,,,,,,,,,,,,,,,,,,,,,,,,,,,,,,,,,,,,,,,,,,,,,,,,,,,,,,,,,,,,,,,,,,,,,,,,,,,,,,,,,,,,,,,,,,,,,,,,,,,,,,,,,,,,,,,,,,,,,,,,,
0,51,51,21,1,,60c8f96ddb749ea0361c1ae8,62c53a0a5a620c2b376daf8b,2022-07-06_09h31.25.539,Colour_Asymmetry_Pilot,2022.1.3,Win32,60.09254252,62c50e9c1127f2cd403a315f,,,,,,,,,,,,,,,,,,,,,,,,,,,,,,,,,,,,,,,,,,,,,,,,,,,,,,,,,,,,,,,,,,,,,,,,,,,,,,,,,,,,,,,,,,,,,,,,,,,,,,,,,,,,,,,,,,,,,,,,,,,,,,,,,,,,,,,,,,,,,,,,,,,,,,,,,,,,,,,,,,,
0,52,52,0,1,,60c8f96ddb749ea0361c1ae8,62c53a0a5a620c2b376daf8b,2022-07-06_09h31.25.539,Colour_Asymmetry_Pilot,2022.1.3,Win32,60.09254252,62c50e9c1127f2cd403a315f,,,,,,,,,,,,,,,,,,,,,,,,,,,,,,,,,,,,,,,,,,,,,,,,,,,,,,,,,,,,,,,,,,,,,,,,,,,,,,,,,,,,,,,,,,,,,,,,,,,,,,,,,,,,,,,,,,,,,,,,,,,,,,,,,,,,,,,,,,,,,,,,,,,,,,,,,,,,,,,,,,,
0,53,53,72,1,,60c8f96ddb749ea0361c1ae8,62c53a0a5a620c2b376daf8b,2022-07-06_09h31.25.539,Colour_Asymmetry_Pilot,2022.1.3,Win32,60.09254252,62c50e9c1127f2cd403a315f,,,,,,,,,,,,,,,,,,,,,,,,,,,,,,,,,,,,,,,,,,,,,,,,,,,,,,,,,,,,,,,,,,,,,,,,,,,,,,,,,,,,,,,,,,,,,,,,,,,,,,,,,,,,,,,,,,,,,,,,,,,,,,,,,,,,,,,,,,,,,,,,,,,,,,,,,,,,,,,,,,,
0,54,54,49,1,,60c8f96ddb749ea0361c1ae8,62c53a0a5a620c2b376daf8b,2022-07-06_09h31.25.539,Colour_Asymmetry_Pilot,2022.1.3,Win32,60.09254252,62c50e9c1127f2cd403a315f,,,,,,,,,,,,,,,,,,,,,,,,,,,,,,,,,,,,,,,,,,,,,,,,,,,,,,,,,,,,,,,,,,,,,,,,,,,,,,,,,,,,,,,,,,,,,,,,,,,,,,,,,,,,,,,,,,,,,,,,,,,,,,,,,,,,,,,,,,,,,,,,,,,,,,,,,,,,,,,,,,,
0,55,55,32,1,,60c8f96ddb749ea0361c1ae8,62c53a0a5a620c2b376daf8b,2022-07-06_09h31.25.539,Colour_Asymmetry_Pilot,2022.1.3,Win32,60.09254252,62c50e9c1127f2cd403a315f,,,,,,,,,,,,,,,,,,,,,,,,,,,,,,,,,,,,,,,,,,,,,,,,,,,,,,,,,,,,,,,,,,,,,,,,,,,,,,,,,,,,,,,,,,,,,,,,,,,,,,,,,,,,,,,,,,,,,,,,,,,,,,,,,,,,,,,,,,,,,,,,,,,,,,,,,,,,,,,,,,,
0,56,56,16,1,,60c8f96ddb749ea0361c1ae8,62c53a0a5a620c2b376daf8b,2022-07-06_09h31.25.539,Colour_Asymmetry_Pilot,2022.1.3,Win32,60.09254252,62c50e9c1127f2cd403a315f,,,,,,,,,,,,,,,,,,,,,,,,,,,,,,,,,,,,,,,,,,,,,,,,,,,,,,,,,,,,,,,,,,,,,,,,,,,,,,,,,,,,,,,,,,,,,,,,,,,,,,,,,,,,,,,,,,,,,,,,,,,,,,,,,,,,,,,,,,,,,,,,,,,,,,,,,,,,,,,,,,,
0,57,57,65,1,,60c8f96ddb749ea0361c1ae8,62c53a0a5a620c2b376daf8b,2022-07-06_09h31.25.539,Colour_Asymmetry_Pilot,2022.1.3,Win32,60.09254252,62c50e9c1127f2cd403a315f,,,,,,,,,,,,,,,,,,,,,,,,,,,,,,,,,,,,,,,,,,,,,,,,,,,,,,,,,,,,,,,,,,,,,,,,,,,,,,,,,,,,,,,,,,,,,,,,,,,,,,,,,,,,,,,,,,,,,,,,,,,,,,,,,,,,,,,,,,,,,,,,,,,,,,,,,,,,,,,,,,,
0,58,58,13,1,,60c8f96ddb749ea0361c1ae8,62c53a0a5a620c2b376daf8b,2022-07-06_09h31.25.539,Colour_Asymmetry_Pilot,2022.1.3,Win32,60.09254252,62c50e9c1127f2cd403a315f,,,,,,,,,,,,,,,,,,,,,,,,,,,,,,,,,,,,,,,,,,,,,,,,,,,,,,,,,,,,,,,,,,,,,,,,,,,,,,,,,,,,,,,,,,,,,,,,,,,,,,,,,,,,,,,,,,,,,,,,,,,,,,,,,,,,,,,,,,,,,,,,,,,,,,,,,,,,,,,,,,,
0,59,59,6,1,,60c8f96ddb749ea0361c1ae8,62c53a0a5a620c2b376daf8b,2022-07-06_09h31.25.539,Colour_Asymmetry_Pilot,2022.1.3,Win32,60.09254252,62c50e9c1127f2cd403a315f,,,,,,,,,,,,,,,,,,,,,,,,,,,,,,,,,,,,,,,,,,,,,,,,,,,,,,,,,,,,,,,,,,,,,,,,,,,,,,,,,,,,,,,,,,,,,,,,,,,,,,,,,,,,,,,,,,,,,,,,,,,,,,,,,,,,,,,,,,,,,,,,,,,,,,,,,,,,,,,,,,,
0,60,60,46,1,,60c8f96ddb749ea0361c1ae8,62c53a0a5a620c2b376daf8b,2022-07-06_09h31.25.539,Colour_Asymmetry_Pilot,2022.1.3,Win32,60.09254252,62c50e9c1127f2cd403a315f,,,,,,,,,,,,,,,,,,,,,,,,,,,,,,,,,,,,,,,,,,,,,,,,,,,,,,,,,,,,,,,,,,,,,,,,,,,,,,,,,,,,,,,,,,,,,,,,,,,,,,,,,,,,,,,,,,,,,,,,,,,,,,,,,,,,,,,,,,,,,,,,,,,,,,,,,,,,,,,,,,,
0,61,61,54,1,,60c8f96ddb749ea0361c1ae8,62c53a0a5a620c2b376daf8b,2022-07-06_09h31.25.539,Colour_Asymmetry_Pilot,2022.1.3,Win32,60.09254252,62c50e9c1127f2cd403a315f,,,,,,,,,,,,,,,,,,,,,,,,,,,,,,,,,,,,,,,,,,,,,,,,,,,,,,,,,,,,,,,,,,,,,,,,,,,,,,,,,,,,,,,,,,,,,,,,,,,,,,,,,,,,,,,,,,,,,,,,,,,,,,,,,,,,,,,,,,,,,,,,,,,,,,,,,,,,,,,,,,,
0,62,62,27,1,,60c8f96ddb749ea0361c1ae8,62c53a0a5a620c2b376daf8b,2022-07-06_09h31.25.539,Colour_Asymmetry_Pilot,2022.1.3,Win32,60.09254252,62c50e9c1127f2cd403a315f,,,,,,,,,,,,,,,,,,,,,,,,,,,,,,,,,,,,,,,,,,,,,,,,,,,,,,,,,,,,,,,,,,,,,,,,,,,,,,,,,,,,,,,,,,,,,,,,,,,,,,,,,,,,,,,,,,,,,,,,,,,,,,,,,,,,,,,,,,,,,,,,,,,,,,,,,,,,,,,,,,,
0,63,63,75,1,,60c8f96ddb749ea0361c1ae8,62c53a0a5a620c2b376daf8b,2022-07-06_09h31.25.539,Colour_Asymmetry_Pilot,2022.1.3,Win32,60.09254252,62c50e9c1127f2cd403a315f,,,,,,,,,,,,,,,,,,,,,,,,,,,,,,,,,,,,,,,,,,,,,,,,,,,,,,,,,,,,,,,,,,,,,,,,,,,,,,,,,,,,,,,,,,,,,,,,,,,,,,,,,,,,,,,,,,,,,,,,,,,,,,,,,,,,,,,,,,,,,,,,,,,,,,,,,,,,,,,,,,,
0,64,64,69,1,,60c8f96ddb749ea0361c1ae8,62c53a0a5a620c2b376daf8b,2022-07-06_09h31.25.539,Colour_Asymmetry_Pilot,2022.1.3,Win32,60.09254252,62c50e9c1127f2cd403a315f,,,,,,,,,,,,,,,,,,,,,,,,,,,,,,,,,,,,,,,,,,,,,,,,,,,,,,,,,,,,,,,,,,,,,,,,,,,,,,,,,,,,,,,,,,,,,,,,,,,,,,,,,,,,,,,,,,,,,,,,,,,,,,,,,,,,,,,,,,,,,,,,,,,,,,,,,,,,,,,,,,,
0,65,65,5,1,,60c8f96ddb749ea0361c1ae8,62c53a0a5a620c2b376daf8b,2022-07-06_09h31.25.539,Colour_Asymmetry_Pilot,2022.1.3,Win32,60.09254252,62c50e9c1127f2cd403a315f,,,,,,,,,,,,,,,,,,,,,,,,,,,,,,,,,,,,,,,,,,,,,,,,,,,,,,,,,,,,,,,,,,,,,,,,,,,,,,,,,,,,,,,,,,,,,,,,,,,,,,,,,,,,,,,,,,,,,,,,,,,,,,,,,,,,,,,,,,,,,,,,,,,,,,,,,,,,,,,,,,,
0,66,66,87,1,,60c8f96ddb749ea0361c1ae8,62c53a0a5a620c2b376daf8b,2022-07-06_09h31.25.539,Colour_Asymmetry_Pilot,2022.1.3,Win32,60.09254252,62c50e9c1127f2cd403a315f,,,,,,,,,,,,,,,,,,,,,,,,,,,,,,,,,,,,,,,,,,,,,,,,,,,,,,,,,,,,,,,,,,,,,,,,,,,,,,,,,,,,,,,,,,,,,,,,,,,,,,,,,,,,,,,,,,,,,,,,,,,,,,,,,,,,,,,,,,,,,,,,,,,,,,,,,,,,,,,,,,,
0,67,67,25,1,,60c8f96ddb749ea0361c1ae8,62c53a0a5a620c2b376daf8b,2022-07-06_09h31.25.539,Colour_Asymmetry_Pilot,2022.1.3,Win32,60.09254252,62c50e9c1127f2cd403a315f,,,,,,,,,,,,,,,,,,,,,,,,,,,,,,,,,,,,,,,,,,,,,,,,,,,,,,,,,,,,,,,,,,,,,,,,,,,,,,,,,,,,,,,,,,,,,,,,,,,,,,,,,,,,,,,,,,,,,,,,,,,,,,,,,,,,,,,,,,,,,,,,,,,,,,,,,,,,,,,,,,,
0,68,68,7,1,,60c8f96ddb749ea0361c1ae8,62c53a0a5a620c2b376daf8b,2022-07-06_09h31.25.539,Colour_Asymmetry_Pilot,2022.1.3,Win32,60.09254252,62c50e9c1127f2cd403a315f,,,,,,,,,,,,,,,,,,,,,,,,,,,,,,,,,,,,,,,,,,,,,,,,,,,,,,,,,,,,,,,,,,,,,,,,,,,,,,,,,,,,,,,,,,,,,,,,,,,,,,,,,,,,,,,,,,,,,,,,,,,,,,,,,,,,,,,,,,,,,,,,,,,,,,,,,,,,,,,,,,,
0,69,69,55,1,,60c8f96ddb749ea0361c1ae8,62c53a0a5a620c2b376daf8b,2022-07-06_09h31.25.539,Colour_Asymmetry_Pilot,2022.1.3,Win32,60.09254252,62c50e9c1127f2cd403a315f,,,,,,,,,,,,,,,,,,,,,,,,,,,,,,,,,,,,,,,,,,,,,,,,,,,,,,,,,,,,,,,,,,,,,,,,,,,,,,,,,,,,,,,,,,,,,,,,,,,,,,,,,,,,,,,,,,,,,,,,,,,,,,,,,,,,,,,,,,,,,,,,,,,,,,,,,,,,,,,,,,,
0,70,70,76,1,,60c8f96ddb749ea0361c1ae8,62c53a0a5a620c2b376daf8b,2022-07-06_09h31.25.539,Colour_Asymmetry_Pilot,2022.1.3,Win32,60.09254252,62c50e9c1127f2cd403a315f,,,,,,,,,,,,,,,,,,,,,,,,,,,,,,,,,,,,,,,,,,,,,,,,,,,,,,,,,,,,,,,,,,,,,,,,,,,,,,,,,,,,,,,,,,,,,,,,,,,,,,,,,,,,,,,,,,,,,,,,,,,,,,,,,,,,,,,,,,,,,,,,,,,,,,,,,,,,,,,,,,,
0,71,71,35,1,,60c8f96ddb749ea0361c1ae8,62c53a0a5a620c2b376daf8b,2022-07-06_09h31.25.539,Colour_Asymmetry_Pilot,2022.1.3,Win32,60.09254252,62c50e9c1127f2cd403a315f,,,,,,,,,,,,,,,,,,,,,,,,,,,,,,,,,,,,,,,,,,,,,,,,,,,,,,,,,,,,,,,,,,,,,,,,,,,,,,,,,,,,,,,,,,,,,,,,,,,,,,,,,,,,,,,,,,,,,,,,,,,,,,,,,,,,,,,,,,,,,,,,,,,,,,,,,,,,,,,,,,,
0,72,72,88,1,,60c8f96ddb749ea0361c1ae8,62c53a0a5a620c2b376daf8b,2022-07-06_09h31.25.539,Colour_Asymmetry_Pilot,2022.1.3,Win32,60.09254252,62c50e9c1127f2cd403a315f,,,,,,,,,,,,,,,,,,,,,,,,,,,,,,,,,,,,,,,,,,,,,,,,,,,,,,,,,,,,,,,,,,,,,,,,,,,,,,,,,,,,,,,,,,,,,,,,,,,,,,,,,,,,,,,,,,,,,,,,,,,,,,,,,,,,,,,,,,,,,,,,,,,,,,,,,,,,,,,,,,,
0,73,73,19,1,,60c8f96ddb749ea0361c1ae8,62c53a0a5a620c2b376daf8b,2022-07-06_09h31.25.539,Colour_Asymmetry_Pilot,2022.1.3,Win32,60.09254252,62c50e9c1127f2cd403a315f,,,,,,,,,,,,,,,,,,,,,,,,,,,,,,,,,,,,,,,,,,,,,,,,,,,,,,,,,,,,,,,,,,,,,,,,,,,,,,,,,,,,,,,,,,,,,,,,,,,,,,,,,,,,,,,,,,,,,,,,,,,,,,,,,,,,,,,,,,,,,,,,,,,,,,,,,,,,,,,,,,,
0,74,74,91,1,,60c8f96ddb749ea0361c1ae8,62c53a0a5a620c2b376daf8b,2022-07-06_09h31.25.539,Colour_Asymmetry_Pilot,2022.1.3,Win32,60.09254252,62c50e9c1127f2cd403a315f,,,,,,,,,,,,,,,,,,,,,,,,,,,,,,,,,,,,,,,,,,,,,,,,,,,,,,,,,,,,,,,,,,,,,,,,,,,,,,,,,,,,,,,,,,,,,,,,,,,,,,,,,,,,,,,,,,,,,,,,,,,,,,,,,,,,,,,,,,,,,,,,,,,,,,,,,,,,,,,,,,,
0,75,75,68,1,,60c8f96ddb749ea0361c1ae8,62c53a0a5a620c2b376daf8b,2022-07-06_09h31.25.539,Colour_Asymmetry_Pilot,2022.1.3,Win32,60.09254252,62c50e9c1127f2cd403a315f,,,,,,,,,,,,,,,,,,,,,,,,,,,,,,,,,,,,,,,,,,,,,,,,,,,,,,,,,,,,,,,,,,,,,,,,,,,,,,,,,,,,,,,,,,,,,,,,,,,,,,,,,,,,,,,,,,,,,,,,,,,,,,,,,,,,,,,,,,,,,,,,,,,,,,,,,,,,,,,,,,,
0,76,76,77,1,,60c8f96ddb749ea0361c1ae8,62c53a0a5a620c2b376daf8b,2022-07-06_09h31.25.539,Colour_Asymmetry_Pilot,2022.1.3,Win32,60.09254252,62c50e9c1127f2cd403a315f,,,,,,,,,,,,,,,,,,,,,,,,,,,,,,,,,,,,,,,,,,,,,,,,,,,,,,,,,,,,,,,,,,,,,,,,,,,,,,,,,,,,,,,,,,,,,,,,,,,,,,,,,,,,,,,,,,,,,,,,,,,,,,,,,,,,,,,,,,,,,,,,,,,,,,,,,,,,,,,,,,,
0,77,77,8,1,,60c8f96ddb749ea0361c1ae8,62c53a0a5a620c2b376daf8b,2022-07-06_09h31.25.539,Colour_Asymmetry_Pilot,2022.1.3,Win32,60.09254252,62c50e9c1127f2cd403a315f,,,,,,,,,,,,,,,,,,,,,,,,,,,,,,,,,,,,,,,,,,,,,,,,,,,,,,,,,,,,,,,,,,,,,,,,,,,,,,,,,,,,,,,,,,,,,,,,,,,,,,,,,,,,,,,,,,,,,,,,,,,,,,,,,,,,,,,,,,,,,,,,,,,,,,,,,,,,,,,,,,,
0,78,78,17,1,,60c8f96ddb749ea0361c1ae8,62c53a0a5a620c2b376daf8b,2022-07-06_09h31.25.539,Colour_Asymmetry_Pilot,2022.1.3,Win32,60.09254252,62c50e9c1127f2cd403a315f,,,,,,,,,,,,,,,,,,,,,,,,,,,,,,,,,,,,,,,,,,,,,,,,,,,,,,,,,,,,,,,,,,,,,,,,,,,,,,,,,,,,,,,,,,,,,,,,,,,,,,,,,,,,,,,,,,,,,,,,,,,,,,,,,,,,,,,,,,,,,,,,,,,,,,,,,,,,,,,,,,,
0,79,79,30,1,,60c8f96ddb749ea0361c1ae8,62c53a0a5a620c2b376daf8b,2022-07-06_09h31.25.539,Colour_Asymmetry_Pilot,2022.1.3,Win32,60.09254252,62c50e9c1127f2cd403a315f,,,,,,,,,,,,,,,,,,,,,,,,,,,,,,,,,,,,,,,,,,,,,,,,,,,,,,,,,,,,,,,,,,,,,,,,,,,,,,,,,,,,,,,,,,,,,,,,,,,,,,,,,,,,,,,,,,,,,,,,,,,,,,,,,,,,,,,,,,,,,,,,,,,,,,,,,,,,,,,,,,,
0,80,80,89,1,,60c8f96ddb749ea0361c1ae8,62c53a0a5a620c2b376daf8b,2022-07-06_09h31.25.539,Colour_Asymmetry_Pilot,2022.1.3,Win32,60.09254252,62c50e9c1127f2cd403a315f,,,,,,,,,,,,,,,,,,,,,,,,,,,,,,,,,,,,,,,,,,,,,,,,,,,,,,,,,,,,,,,,,,,,,,,,,,,,,,,,,,,,,,,,,,,,,,,,,,,,,,,,,,,,,,,,,,,,,,,,,,,,,,,,,,,,,,,,,,,,,,,,,,,,,,,,,,,,,,,,,,,
0,81,81,39,1,,60c8f96ddb749ea0361c1ae8,62c53a0a5a620c2b376daf8b,2022-07-06_09h31.25.539,Colour_Asymmetry_Pilot,2022.1.3,Win32,60.09254252,62c50e9c1127f2cd403a315f,,,,,,,,,,,,,,,,,,,,,,,,,,,,,,,,,,,,,,,,,,,,,,,,,,,,,,,,,,,,,,,,,,,,,,,,,,,,,,,,,,,,,,,,,,,,,,,,,,,,,,,,,,,,,,,,,,,,,,,,,,,,,,,,,,,,,,,,,,,,,,,,,,,,,,,,,,,,,,,,,,,
0,82,82,34,1,,60c8f96ddb749ea0361c1ae8,62c53a0a5a620c2b376daf8b,2022-07-06_09h31.25.539,Colour_Asymmetry_Pilot,2022.1.3,Win32,60.09254252,62c50e9c1127f2cd403a315f,,,,,,,,,,,,,,,,,,,,,,,,,,,,,,,,,,,,,,,,,,,,,,,,,,,,,,,,,,,,,,,,,,,,,,,,,,,,,,,,,,,,,,,,,,,,,,,,,,,,,,,,,,,,,,,,,,,,,,,,,,,,,,,,,,,,,,,,,,,,,,,,,,,,,,,,,,,,,,,,,,,
0,83,83,53,1,,60c8f96ddb749ea0361c1ae8,62c53a0a5a620c2b376daf8b,2022-07-06_09h31.25.539,Colour_Asymmetry_Pilot,2022.1.3,Win32,60.09254252,62c50e9c1127f2cd403a315f,,,,,,,,,,,,,,,,,,,,,,,,,,,,,,,,,,,,,,,,,,,,,,,,,,,,,,,,,,,,,,,,,,,,,,,,,,,,,,,,,,,,,,,,,,,,,,,,,,,,,,,,,,,,,,,,,,,,,,,,,,,,,,,,,,,,,,,,,,,,,,,,,,,,,,,,,,,,,,,,,,,
0,84,84,38,1,,60c8f96ddb749ea0361c1ae8,62c53a0a5a620c2b376daf8b,2022-07-06_09h31.25.539,Colour_Asymmetry_Pilot,2022.1.3,Win32,60.09254252,62c50e9c1127f2cd403a315f,,,,,,,,,,,,,,,,,,,,,,,,,,,,,,,,,,,,,,,,,,,,,,,,,,,,,,,,,,,,,,,,,,,,,,,,,,,,,,,,,,,,,,,,,,,,,,,,,,,,,,,,,,,,,,,,,,,,,,,,,,,,,,,,,,,,,,,,,,,,,,,,,,,,,,,,,,,,,,,,,,,
0,85,85,18,1,,60c8f96ddb749ea0361c1ae8,62c53a0a5a620c2b376daf8b,2022-07-06_09h31.25.539,Colour_Asymmetry_Pilot,2022.1.3,Win32,60.09254252,62c50e9c1127f2cd403a315f,,,,,,,,,,,,,,,,,,,,,,,,,,,,,,,,,,,,,,,,,,,,,,,,,,,,,,,,,,,,,,,,,,,,,,,,,,,,,,,,,,,,,,,,,,,,,,,,,,,,,,,,,,,,,,,,,,,,,,,,,,,,,,,,,,,,,,,,,,,,,,,,,,,,,,,,,,,,,,,,,,,
0,86,86,36,1,,60c8f96ddb749ea0361c1ae8,62c53a0a5a620c2b376daf8b,2022-07-06_09h31.25.539,Colour_Asymmetry_Pilot,2022.1.3,Win32,60.09254252,62c50e9c1127f2cd403a315f,,,,,,,,,,,,,,,,,,,,,,,,,,,,,,,,,,,,,,,,,,,,,,,,,,,,,,,,,,,,,,,,,,,,,,,,,,,,,,,,,,,,,,,,,,,,,,,,,,,,,,,,,,,,,,,,,,,,,,,,,,,,,,,,,,,,,,,,,,,,,,,,,,,,,,,,,,,,,,,,,,,
0,87,87,3,1,,60c8f96ddb749ea0361c1ae8,62c53a0a5a620c2b376daf8b,2022-07-06_09h31.25.539,Colour_Asymmetry_Pilot,2022.1.3,Win32,60.09254252,62c50e9c1127f2cd403a315f,,,,,,,,,,,,,,,,,,,,,,,,,,,,,,,,,,,,,,,,,,,,,,,,,,,,,,,,,,,,,,,,,,,,,,,,,,,,,,,,,,,,,,,,,,,,,,,,,,,,,,,,,,,,,,,,,,,,,,,,,,,,,,,,,,,,,,,,,,,,,,,,,,,,,,,,,,,,,,,,,,,
0,88,88,57,1,,60c8f96ddb749ea0361c1ae8,62c53a0a5a620c2b376daf8b,2022-07-06_09h31.25.539,Colour_Asymmetry_Pilot,2022.1.3,Win32,60.09254252,62c50e9c1127f2cd403a315f,,,,,,,,,,,,,,,,,,,,,,,,,,,,,,,,,,,,,,,,,,,,,,,,,,,,,,,,,,,,,,,,,,,,,,,,,,,,,,,,,,,,,,,,,,,,,,,,,,,,,,,,,,,,,,,,,,,,,,,,,,,,,,,,,,,,,,,,,,,,,,,,,,,,,,,,,,,,,,,,,,,
0,89,89,66,1,,60c8f96ddb749ea0361c1ae8,62c53a0a5a620c2b376daf8b,2022-07-06_09h31.25.539,Colour_Asymmetry_Pilot,2022.1.3,Win32,60.09254252,62c50e9c1127f2cd403a315f,,,,,,,,,,,,,,,,,,,,,,,,,,,,,,,,,,,,,,,,,,,,,,,,,,,,,,,,,,,,,,,,,,,,,,,,,,,,,,,,,,,,,,,,,,,,,,,,,,,,,,,,,,,,,,,,,,,,,,,,,,,,,,,,,,,,,,,,,,,,,,,,,,,,,,,,,,,,,,,,,,,
0,90,90,43,1,,60c8f96ddb749ea0361c1ae8,62c53a0a5a620c2b376daf8b,2022-07-06_09h31.25.539,Colour_Asymmetry_Pilot,2022.1.3,Win32,60.09254252,62c50e9c1127f2cd403a315f,,,,,,,,,,,,,,,,,,,,,,,,,,,,,,,,,,,,,,,,,,,,,,,,,,,,,,,,,,,,,,,,,,,,,,,,,,,,,,,,,,,,,,,,,,,,,,,,,,,,,,,,,,,,,,,,,,,,,,,,,,,,,,,,,,,,,,,,,,,,,,,,,,,,,,,,,,,,,,,,,,,
0,91,91,26,1,,60c8f96ddb749ea0361c1ae8,62c53a0a5a620c2b376daf8b,2022-07-06_09h31.25.539,Colour_Asymmetry_Pilot,2022.1.3,Win32,60.09254252,62c50e9c1127f2cd403a315f,,,,,,,,,,,,,,,,,,,,,,,,,,,,,,,,,,,,,,,,,,,,,,,,,,,,,,,,,,,,,,,,,,,,,,,,,,,,,,,,,,,,,,,,,,,,,,,,,,,,,,,,,,,,,,,,,,,,,,,,,,,,,,,,,,,,,,,,,,,,,,,,,,,,,,,,,,,,,,,,,,,
0,92,92,10,1,,60c8f96ddb749ea0361c1ae8,62c53a0a5a620c2b376daf8b,2022-07-06_09h31.25.539,Colour_Asymmetry_Pilot,2022.1.3,Win32,60.09254252,62c50e9c1127f2cd403a315f,,,,,,,,,,,,,,,,,,,,,,,,,,,,,,,,,,,,,,,,,,,,,,,,,,,,,,,,,,,,,,,,,,,,,,,,,,,,,,,,,,,,,,,,,,,,,,,,,,,,,,,,,,,,,,,,,,,,,,,,,,,,,,,,,,,,,,,,,,,,,,,,,,,,,,,,,,,,,,,,,,,
,,,,,,60c8f96ddb749ea0361c1ae8,62c53a0a5a620c2b376daf8b,2022-07-06_09h31.25.539,Colour_Asymmetry_Pilot,2022.1.3,Win32,60.09254252,62c50e9c1127f2cd403a315f,0,0,0,79,1,fourthree,,,,,,,,,,,,,,,,,,,,,,,,,,,,,,,,,,,,,,,,,,,,,,,,,,,,,,,,,,,,,,,,,,,,,,,,,,,,,,,,,,,,,,,,,,,,,,,,,,,,,,,,,,,,,,,,,,,,,,,,,,,,,,,,,,,,,,,,,,,,,,,,,,,,,,,,,,,,,
,,,,,,60c8f96ddb749ea0361c1ae8,62c53a0a5a620c2b376daf8b,2022-07-06_09h31.25.539,Colour_Asymmetry_Pilot,2022.1.3,Win32,60.09254252,62c50e9c1127f2cd403a315f,0,1,1,45,1,threefour,,,,,,,,,,,,,,,,,,,,,,,,,,,,,,,,,,,,,,,,,,,,,,,,,,,,,,,,,,,,,,,,,,,,,,,,,,,,,,,,,,,,,,,,,,,,,,,,,,,,,,,,,,,,,,,,,,,,,,,,,,,,,,,,,,,,,,,,,,,,,,,,,,,,,,,,,,,,,
,,,,,,60c8f96ddb749ea0361c1ae8,62c53a0a5a620c2b376daf8b,2022-07-06_09h31.25.539,Colour_Asymmetry_Pilot,2022.1.3,Win32,60.09254252,62c50e9c1127f2cd403a315f,0,2,2,77,1,threefour,,,,,,,,,,,,,,,,,,,,,,,,,,,,,,,,,,,,,,,,,,,,,,,,,,,,,,,,,,,,,,,,,,,,,,,,,,,,,,,,,,,,,,,,,,,,,,,,,,,,,,,,,,,,,,,,,,,,,,,,,,,,,,,,,,,,,,,,,,,,,,,,,,,,,,,,,,,,,
,,,,,,60c8f96ddb749ea0361c1ae8,62c53a0a5a620c2b376daf8b,2022-07-06_09h31.25.539,Colour_Asymmetry_Pilot,2022.1.3,Win32,60.09254252,62c50e9c1127f2cd403a315f,0,3,3,48,1,onetwo,,,,,,,,,,,,,,,,,,,,,,,,,,,,,,,,,,,,,,,,,,,,,,,,,,,,,,,,,,,,,,,,,,,,,,,,,,,,,,,,,,,,,,,,,,,,,,,,,,,,,,,,,,,,,,,,,,,,,,,,,,,,,,,,,,,,,,,,,,,,,,,,,,,,,,,,,,,,,
,,,,,,60c8f96ddb749ea0361c1ae8,62c53a0a5a620c2b376daf8b,2022-07-06_09h31.25.539,Colour_Asymmetry_Pilot,2022.1.3,Win32,60.09254252,62c50e9c1127f2cd403a315f,0,4,4,78,1,fourtwo,,,,,,,,,,,,,,,,,,,,,,,,,,,,,,,,,,,,,,,,,,,,,,,,,,,,,,,,,,,,,,,,,,,,,,,,,,,,,,,,,,,,,,,,,,,,,,,,,,,,,,,,,,,,,,,,,,,,,,,,,,,,,,,,,,,,,,,,,,,,,,,,,,,,,,,,,,,,,
,,,,,,60c8f96ddb749ea0361c1ae8,62c53a0a5a620c2b376daf8b,2022-07-06_09h31.25.539,Colour_Asymmetry_Pilot,2022.1.3,Win32,60.09254252,62c50e9c1127f2cd403a315f,0,5,5,159,1,fourthree,,,,,,,,,,,,,,,,,,,,,,,,,,,,,,,,,,,,,,,,,,,,,,,,,,,,,,,,,,,,,,,,,,,,,,,,,,,,,,,,,,,,,,,,,,,,,,,,,,,,,,,,,,,,,,,,,,,,,,,,,,,,,,,,,,,,,,,,,,,,,,,,,,,,,,,,,,,,,
,,,,,,60c8f96ddb749ea0361c1ae8,62c53a0a5a620c2b376daf8b,2022-07-06_09h31.25.539,Colour_Asymmetry_Pilot,2022.1.3,Win32,60.09254252,62c50e9c1127f2cd403a315f,0,6,6,53,1,threefour,,,,,,,,,,,,,,,,,,,,,,,,,,,,,,,,,,,,,,,,,,,,,,,,,,,,,,,,,,,,,,,,,,,,,,,,,,,,,,,,,,,,,,,,,,,,,,,,,,,,,,,,,,,,,,,,,,,,,,,,,,,,,,,,,,,,,,,,,,,,,,,,,,,,,,,,,,,,,
,,,,,,60c8f96ddb749ea0361c1ae8,62c53a0a5a620c2b376daf8b,2022-07-06_09h31.25.539,Colour_Asymmetry_Pilot,2022.1.3,Win32,60.09254252,62c50e9c1127f2cd403a315f,0,7,7,106,1,twoone,,,,,,,,,,,,,,,,,,,,,,,,,,,,,,,,,,,,,,,,,,,,,,,,,,,,,,,,,,,,,,,,,,,,,,,,,,,,,,,,,,,,,,,,,,,,,,,,,,,,,,,,,,,,,,,,,,,,,,,,,,,,,,,,,,,,,,,,,,,,,,,,,,,,,,,,,,,,,
,,,,,,60c8f96ddb749ea0361c1ae8,62c53a0a5a620c2b376daf8b,2022-07-06_09h31.25.539,Colour_Asymmetry_Pilot,2022.1.3,Win32,60.09254252,62c50e9c1127f2cd403a315f,0,8,8,46,1,fourtwo,,,,,,,,,,,,,,,,,,,,,,,,,,,,,,,,,,,,,,,,,,,,,,,,,,,,,,,,,,,,,,,,,,,,,,,,,,,,,,,,,,,,,,,,,,,,,,,,,,,,,,,,,,,,,,,,,,,,,,,,,,,,,,,,,,,,,,,,,,,,,,,,,,,,,,,,,,,,,
,,,,,,60c8f96ddb749ea0361c1ae8,62c53a0a5a620c2b376daf8b,2022-07-06_09h31.25.539,Colour_Asymmetry_Pilot,2022.1.3,Win32,60.09254252,62c50e9c1127f2cd403a315f,0,9,9,82,1,twoone,,,,,,,,,,,,,,,,,,,,,,,,,,,,,,,,,,,,,,,,,,,,,,,,,,,,,,,,,,,,,,,,,,,,,,,,,,,,,,,,,,,,,,,,,,,,,,,,,,,,,,,,,,,,,,,,,,,,,,,,,,,,,,,,,,,,,,,,,,,,,,,,,,,,,,,,,,,,,
,,,,,,60c8f96ddb749ea0361c1ae8,62c53a0a5a620c2b376daf8b,2022-07-06_09h31.25.539,Colour_Asymmetry_Pilot,2022.1.3,Win32,60.09254252,62c50e9c1127f2cd403a315f,0,10,10,142,1,fourtwo,,,,,,,,,,,,,,,,,,,,,,,,,,,,,,,,,,,,,,,,,,,,,,,,,,,,,,,,,,,,,,,,,,,,,,,,,,,,,,,,,,,,,,,,,,,,,,,,,,,,,,,,,,,,,,,,,,,,,,,,,,,,,,,,,,,,,,,,,,,,,,,,,,,,,,,,,,,,,
,,,,,,60c8f96ddb749ea0361c1ae8,62c53a0a5a620c2b376daf8b,2022-07-06_09h31.25.539,Colour_Asymmetry_Pilot,2022.1.3,Win32,60.09254252,62c50e9c1127f2cd403a315f,0,11,11,95,1,fourthree,,,,,,,,,,,,,,,,,,,,,,,,,,,,,,,,,,,,,,,,,,,,,,,,,,,,,,,,,,,,,,,,,,,,,,,,,,,,,,,,,,,,,,,,,,,,,,,,,,,,,,,,,,,,,,,,,,,,,,,,,,,,,,,,,,,,,,,,,,,,,,,,,,,,,,,,,,,,,
,,,,,,60c8f96ddb749ea0361c1ae8,62c53a0a5a620c2b376daf8b,2022-07-06_09h31.25.539,Colour_Asymmetry_Pilot,2022.1.3,Win32,60.09254252,62c50e9c1127f2cd403a315f,0,12,12,129,1,onethree,,,,,,,,,,,,,,,,,,,,,,,,,,,,,,,,,,,,,,,,,,,,,,,,,,,,,,,,,,,,,,,,,,,,,,,,,,,,,,,,,,,,,,,,,,,,,,,,,,,,,,,,,,,,,,,,,,,,,,,,,,,,,,,,,,,,,,,,,,,,,,,,,,,,,,,,,,,,,
,,,,,,60c8f96ddb749ea0361c1ae8,62c53a0a5a620c2b376daf8b,2022-07-06_09h31.25.539,Colour_Asymmetry_Pilot,2022.1.3,Win32,60.09254252,62c50e9c1127f2cd403a315f,0,13,13,30,1,fourtwo,,,,,,,,,,,,,,,,,,,,,,,,,,,,,,,,,,,,,,,,,,,,,,,,,,,,,,,,,,,,,,,,,,,,,,,,,,,,,,,,,,,,,,,,,,,,,,,,,,,,,,,,,,,,,,,,,,,,,,,,,,,,,,,,,,,,,,,,,,,,,,,,,,,,,,,,,,,,,
,,,,,,60c8f96ddb749ea0361c1ae8,62c53a0a5a620c2b376daf8b,2022-07-06_09h31.25.539,Colour_Asymmetry_Pilot,2022.1.3,Win32,60.09254252,62c50e9c1127f2cd403a315f,0,14,14,91,1,twofour,,,,,,,,,,,,,,,,,,,,,,,,,,,,,,,,,,,,,,,,,,,,,,,,,,,,,,,,,,,,,,,,,,,,,,,,,,,,,,,,,,,,,,,,,,,,,,,,,,,,,,,,,,,,,,,,,,,,,,,,,,,,,,,,,,,,,,,,,,,,,,,,,,,,,,,,,,,,,
,,,,,,60c8f96ddb749ea0361c1ae8,62c53a0a5a620c2b376daf8b,2022-07-06_09h31.25.539,Colour_Asymmetry_Pilot,2022.1.3,Win32,60.09254252,62c50e9c1127f2cd403a315f,0,15,15,128,1,onetwo,,,,,,,,,,,,,,,,,,,,,,,,,,,,,,,,,,,,,,,,,,,,,,,,,,,,,,,,,,,,,,,,,,,,,,,,,,,,,,,,,,,,,,,,,,,,,,,,,,,,,,,,,,,,,,,,,,,,,,,,,,,,,,,,,,,,,,,,,,,,,,,,,,,,,,,,,,,,,
,,,,,,60c8f96ddb749ea0361c1ae8,62c53a0a5a620c2b376daf8b,2022-07-06_09h31.25.539,Colour_Asymmetry_Pilot,2022.1.3,Win32,60.09254252,62c50e9c1127f2cd403a315f,0,16,16,157,1,threefour,,,,,,,,,,,,,,,,,,,,,,,,,,,,,,,,,,,,,,,,,,,,,,,,,,,,,,,,,,,,,,,,,,,,,,,,,,,,,,,,,,,,,,,,,,,,,,,,,,,,,,,,,,,,,,,,,,,,,,,,,,,,,,,,,,,,,,,,,,,,,,,,,,,,,,,,,,,,,
,,,,,,60c8f96ddb749ea0361c1ae8,62c53a0a5a620c2b376daf8b,2022-07-06_09h31.25.539,Colour_Asymmetry_Pilot,2022.1.3,Win32,60.09254252,62c50e9c1127f2cd403a315f,0,17,17,119,1,fourthree,,,,,,,,,,,,,,,,,,,,,,,,,,,,,,,,,,,,,,,,,,,,,,,,,,,,,,,,,,,,,,,,,,,,,,,,,,,,,,,,,,,,,,,,,,,,,,,,,,,,,,,,,,,,,,,,,,,,,,,,,,,,,,,,,,,,,,,,,,,,,,,,,,,,,,,,,,,,,
,,,,,,60c8f96ddb749ea0361c1ae8,62c53a0a5a620c2b376daf8b,2022-07-06_09h31.25.539,Colour_Asymmetry_Pilot,2022.1.3,Win32,60.09254252,62c50e9c1127f2cd403a315f,0,18,18,152,1,onetwo,,,,,,,,,,,,,,,,,,,,,,,,,,,,,,,,,,,,,,,,,,,,,,,,,,,,,,,,,,,,,,,,,,,,,,,,,,,,,,,,,,,,,,,,,,,,,,,,,,,,,,,,,,,,,,,,,,,,,,,,,,,,,,,,,,,,,,,,,,,,,,,,,,,,,,,,,,,,,
,,,,,,60c8f96ddb749ea0361c1ae8,62c53a0a5a620c2b376daf8b,2022-07-06_09h31.25.539,Colour_Asymmetry_Pilot,2022.1.3,Win32,60.09254252,62c50e9c1127f2cd403a315f,0,19,19,90,1,twoone,,,,,,,,,,,,,,,,,,,,,,,,,,,,,,,,,,,,,,,,,,,,,,,,,,,,,,,,,,,,,,,,,,,,,,,,,,,,,,,,,,,,,,,,,,,,,,,,,,,,,,,,,,,,,,,,,,,,,,,,,,,,,,,,,,,,,,,,,,,,,,,,,,,,,,,,,,,,,
,,,,,,60c8f96ddb749ea0361c1ae8,62c53a0a5a620c2b376daf8b,2022-07-06_09h31.25.539,Colour_Asymmetry_Pilot,2022.1.3,Win32,60.09254252,62c50e9c1127f2cd403a315f,0,20,20,94,1,fourtwo,,,,,,,,,,,,,,,,,,,,,,,,,,,,,,,,,,,,,,,,,,,,,,,,,,,,,,,,,,,,,,,,,,,,,,,,,,,,,,,,,,,,,,,,,,,,,,,,,,,,,,,,,,,,,,,,,,,,,,,,,,,,,,,,,,,,,,,,,,,,,,,,,,,,,,,,,,,,,
,,,,,,60c8f96ddb749ea0361c1ae8,62c53a0a5a620c2b376daf8b,2022-07-06_09h31.25.539,Colour_Asymmetry_Pilot,2022.1.3,Win32,60.09254252,62c50e9c1127f2cd403a315f,0,21,21,122,1,twoone,,,,,,,,,,,,,,,,,,,,,,,,,,,,,,,,,,,,,,,,,,,,,,,,,,,,,,,,,,,,,,,,,,,,,,,,,,,,,,,,,,,,,,,,,,,,,,,,,,,,,,,,,,,,,,,,,,,,,,,,,,,,,,,,,,,,,,,,,,,,,,,,,,,,,,,,,,,,,
,,,,,,60c8f96ddb749ea0361c1ae8,62c53a0a5a620c2b376daf8b,2022-07-06_09h31.25.539,Colour_Asymmetry_Pilot,2022.1.3,Win32,60.09254252,62c50e9c1127f2cd403a315f,0,22,22,51,1,twofour,,,,,,,,,,,,,,,,,,,,,,,,,,,,,,,,,,,,,,,,,,,,,,,,,,,,,,,,,,,,,,,,,,,,,,,,,,,,,,,,,,,,,,,,,,,,,,,,,,,,,,,,,,,,,,,,,,,,,,,,,,,,,,,,,,,,,,,,,,,,,,,,,,,,,,,,,,,,,
,,,,,,60c8f96ddb749ea0361c1ae8,62c53a0a5a620c2b376daf8b,2022-07-06_09h31.25.539,Colour_Asymmetry_Pilot,2022.1.3,Win32,60.09254252,62c50e9c1127f2cd403a315f,0,23,23,107,1,twofour,,,,,,,,,,,,,,,,,,,,,,,,,,,,,,,,,,,,,,,,,,,,,,,,,,,,,,,,,,,,,,,,,,,,,,,,,,,,,,,,,,,,,,,,,,,,,,,,,,,,,,,,,,,,,,,,,,,,,,,,,,,,,,,,,,,,,,,,,,,,,,,,,,,,,,,,,,,,,
,,,,,,60c8f96ddb749ea0361c1ae8,62c53a0a5a620c2b376daf8b,2022-07-06_09h31.25.539,Colour_Asymmetry_Pilot,2022.1.3,Win32,60.09254252,62c50e9c1127f2cd403a315f,0,24,24,70,1,fourtwo,,,,,,,,,,,,,,,,,,,,,,,,,,,,,,,,,,,,,,,,,,,,,,,,,,,,,,,,,,,,,,,,,,,,,,,,,,,,,,,,,,,,,,,,,,,,,,,,,,,,,,,,,,,,,,,,,,,,,,,,,,,,,,,,,,,,,,,,,,,,,,,,,,,,,,,,,,,,,
,,,,,,60c8f96ddb749ea0361c1ae8,62c53a0a5a620c2b376daf8b,2022-07-06_09h31.25.539,Colour_Asymmetry_Pilot,2022.1.3,Win32,60.09254252,62c50e9c1127f2cd403a315f,0,25,25,118,1,fourtwo,,,,,,,,,,,,,,,,,,,,,,,,,,,,,,,,,,,,,,,,,,,,,,,,,,,,,,,,,,,,,,,,,,,,,,,,,,,,,,,,,,,,,,,,,,,,,,,,,,,,,,,,,,,,,,,,,,,,,,,,,,,,,,,,,,,,,,,,,,,,,,,,,,,,,,,,,,,,,
,,,,,,60c8f96ddb749ea0361c1ae8,62c53a0a5a620c2b376daf8b,2022-07-06_09h31.25.539,Colour_Asymmetry_Pilot,2022.1.3,Win32,60.09254252,62c50e9c1127f2cd403a315f,0,26,26,44,1,threeone,,,,,,,,,,,,,,,,,,,,,,,,,,,,,,,,,,,,,,,,,,,,,,,,,,,,,,,,,,,,,,,,,,,,,,,,,,,,,,,,,,,,,,,,,,,,,,,,,,,,,,,,,,,,,,,,,,,,,,,,,,,,,,,,,,,,,,,,,,,,,,,,,,,,,,,,,,,,,
,,,,,,60c8f96ddb749ea0361c1ae8,62c53a0a5a620c2b376daf8b,2022-07-06_09h31.25.539,Colour_Asymmetry_Pilot,2022.1.3,Win32,60.09254252,62c50e9c1127f2cd403a315f,0,27,27,26,1,twoone,,,,,,,,,,,,,,,,,,,,,,,,,,,,,,,,,,,,,,,,,,,,,,,,,,,,,,,,,,,,,,,,,,,,,,,,,,,,,,,,,,,,,,,,,,,,,,,,,,,,,,,,,,,,,,,,,,,,,,,,,,,,,,,,,,,,,,,,,,,,,,,,,,,,,,,,,,,,,
,,,,,,60c8f96ddb749ea0361c1ae8,62c53a0a5a620c2b376daf8b,2022-07-06_09h31.25.539,Colour_Asymmetry_Pilot,2022.1.3,Win32,60.09254252,62c50e9c1127f2cd403a315f,0,28,28,56,1,onetwo,,,,,,,,,,,,,,,,,,,,,,,,,,,,,,,,,,,,,,,,,,,,,,,,,,,,,,,,,,,,,,,,,,,,,,,,,,,,,,,,,,,,,,,,,,,,,,,,,,,,,,,,,,,,,,,,,,,,,,,,,,,,,,,,,,,,,,,,,,,,,,,,,,,,,,,,,,,,,
,,,,,,60c8f96ddb749ea0361c1ae8,62c53a0a5a620c2b376daf8b,2022-07-06_09h31.25.539,Colour_Asymmetry_Pilot,2022.1.3,Win32,60.09254252,62c50e9c1127f2cd403a315f,0,29,29,105,1,onethree,,,,,,,,,,,,,,,,,,,,,,,,,,,,,,,,,,,,,,,,,,,,,,,,,,,,,,,,,,,,,,,,,,,,,,,,,,,,,,,,,,,,,,,,,,,,,,,,,,,,,,,,,,,,,,,,,,,,,,,,,,,,,,,,,,,,,,,,,,,,,,,,,,,,,,,,,,,,,
,,,,,,60c8f96ddb749ea0361c1ae8,62c53a0a5a620c2b376daf8b,2022-07-06_09h31.25.539,Colour_Asymmetry_Pilot,2022.1.3,Win32,60.09254252,62c50e9c1127f2cd403a315f,0,30,30,38,1,fourtwo,,,,,,,,,,,,,,,,,,,,,,,,,,,,,,,,,,,,,,,,,,,,,,,,,,,,,,,,,,,,,,,,,,,,,,,,,,,,,,,,,,,,,,,,,,,,,,,,,,,,,,,,,,,,,,,,,,,,,,,,,,,,,,,,,,,,,,,,,,,,,,,,,,,,,,,,,,,,,
,,,,,,60c8f96ddb749ea0361c1ae8,62c53a0a5a620c2b376daf8b,2022-07-06_09h31.25.539,Colour_Asymmetry_Pilot,2022.1.3,Win32,60.09254252,62c50e9c1127f2cd403a315f,0,31,31,50,1,twoone,,,,,,,,,,,,,,,,,,,,,,,,,,,,,,,,,,,,,,,,,,,,,,,,,,,,,,,,,,,,,,,,,,,,,,,,,,,,,,,,,,,,,,,,,,,,,,,,,,,,,,,,,,,,,,,,,,,,,,,,,,,,,,,,,,,,,,,,,,,,,,,,,,,,,,,,,,,,,
,,,,,,60c8f96ddb749ea0361c1ae8,62c53a0a5a620c2b376daf8b,2022-07-06_09h31.25.539,Colour_Asymmetry_Pilot,2022.1.3,Win32,60.09254252,62c50e9c1127f2cd403a315f,0,32,32,155,1,twofour,,,,,,,,,,,,,,,,,,,,,,,,,,,,,,,,,,,,,,,,,,,,,,,,,,,,,,,,,,,,,,,,,,,,,,,,,,,,,,,,,,,,,,,,,,,,,,,,,,,,,,,,,,,,,,,,,,,,,,,,,,,,,,,,,,,,,,,,,,,,,,,,,,,,,,,,,,,,,
,,,,,,60c8f96ddb749ea0361c1ae8,62c53a0a5a620c2b376daf8b,2022-07-06_09h31.25.539,Colour_Asymmetry_Pilot,2022.1.3,Win32,60.09254252,62c50e9c1127f2cd403a315f,0,33,33,130,1,twoone,,,,,,,,,,,,,,,,,,,,,,,,,,,,,,,,,,,,,,,,,,,,,,,,,,,,,,,,,,,,,,,,,,,,,,,,,,,,,,,,,,,,,,,,,,,,,,,,,,,,,,,,,,,,,,,,,,,,,,,,,,,,,,,,,,,,,,,,,,,,,,,,,,,,,,,,,,,,,
,,,,,,60c8f96ddb749ea0361c1ae8,62c53a0a5a620c2b376daf8b,2022-07-06_09h31.25.539,Colour_Asymmetry_Pilot,2022.1.3,Win32,60.09254252,62c50e9c1127f2cd403a315f,0,34,34,113,1,onethree,,,,,,,,,,,,,,,,,,,,,,,,,,,,,,,,,,,,,,,,,,,,,,,,,,,,,,,,,,,,,,,,,,,,,,,,,,,,,,,,,,,,,,,,,,,,,,,,,,,,,,,,,,,,,,,,,,,,,,,,,,,,,,,,,,,,,,,,,,,,,,,,,,,,,,,,,,,,,
,,,,,,60c8f96ddb749ea0361c1ae8,62c53a0a5a620c2b376daf8b,2022-07-06_09h31.25.539,Colour_Asymmetry_Pilot,2022.1.3,Win32,60.09254252,62c50e9c1127f2cd403a315f,0,35,35,148,1,threeone,,,,,,,,,,,,,,,,,,,,,,,,,,,,,,,,,,,,,,,,,,,,,,,,,,,,,,,,,,,,,,,,,,,,,,,,,,,,,,,,,,,,,,,,,,,,,,,,,,,,,,,,,,,,,,,,,,,,,,,,,,,,,,,,,,,,,,,,,,,,,,,,,,,,,,,,,,,,,
,,,,,,60c8f96ddb749ea0361c1ae8,62c53a0a5a620c2b376daf8b,2022-07-06_09h31.25.539,Colour_Asymmetry_Pilot,2022.1.3,Win32,60.09254252,62c50e9c1127f2cd403a315f,0,36,36,137,1,onethree,,,,,,,,,,,,,,,,,,,,,,,,,,,,,,,,,,,,,,,,,,,,,,,,,,,,,,,,,,,,,,,,,,,,,,,,,,,,,,,,,,,,,,,,,,,,,,,,,,,,,,,,,,,,,,,,,,,,,,,,,,,,,,,,,,,,,,,,,,,,,,,,,,,,,,,,,,,,,
,,,,,,60c8f96ddb749ea0361c1ae8,62c53a0a5a620c2b376daf8b,2022-07-06_09h31.25.539,Colour_Asymmetry_Pilot,2022.1.3,Win32,60.09254252,62c50e9c1127f2cd403a315f,0,37,37,1,1,onethree,,,,,,,,,,,,,,,,,,,,,,,,,,,,,,,,,,,,,,,,,,,,,,,,,,,,,,,,,,,,,,,,,,,,,,,,,,,,,,,,,,,,,,,,,,,,,,,,,,,,,,,,,,,,,,,,,,,,,,,,,,,,,,,,,,,,,,,,,,,,,,,,,,,,,,,,,,,,,
,,,,,,60c8f96ddb749ea0361c1ae8,62c53a0a5a620c2b376daf8b,2022-07-06_09h31.25.539,Colour_Asymmetry_Pilot,2022.1.3,Win32,60.09254252,62c50e9c1127f2cd403a315f,0,38,38,76,1,threeone,,,,,,,,,,,,,,,,,,,,,,,,,,,,,,,,,,,,,,,,,,,,,,,,,,,,,,,,,,,,,,,,,,,,,,,,,,,,,,,,,,,,,,,,,,,,,,,,,,,,,,,,,,,,,,,,,,,,,,,,,,,,,,,,,,,,,,,,,,,,,,,,,,,,,,,,,,,,,
,,,,,,60c8f96ddb749ea0361c1ae8,62c53a0a5a620c2b376daf8b,2022-07-06_09h31.25.539,Colour_Asymmetry_Pilot,2022.1.3,Win32,60.09254252,62c50e9c1127f2cd403a315f,0,39,39,18,1,twoone,,,,,,,,,,,,,,,,,,,,,,,,,,,,,,,,,,,,,,,,,,,,,,,,,,,,,,,,,,,,,,,,,,,,,,,,,,,,,,,,,,,,,,,,,,,,,,,,,,,,,,,,,,,,,,,,,,,,,,,,,,,,,,,,,,,,,,,,,,,,,,,,,,,,,,,,,,,,,
,,,,,,60c8f96ddb749ea0361c1ae8,62c53a0a5a620c2b376daf8b,2022-07-06_09h31.25.539,Colour_Asymmetry_Pilot,2022.1.3,Win32,60.09254252,62c50e9c1127f2cd403a315f,0,40,40,31,1,fourthree,,,,,,,,,,,,,,,,,,,,,,,,,,,,,,,,,,,,,,,,,,,,,,,,,,,,,,,,,,,,,,,,,,,,,,,,,,,,,,,,,,,,,,,,,,,,,,,,,,,,,,,,,,,,,,,,,,,,,,,,,,,,,,,,,,,,,,,,,,,,,,,,,,,,,,,,,,,,,
,,,,,,60c8f96ddb749ea0361c1ae8,62c53a0a5a620c2b376daf8b,2022-07-06_09h31.25.539,Colour_Asymmetry_Pilot,2022.1.3,Win32,60.09254252,62c50e9c1127f2cd403a315f,0,41,41,62,1,fourtwo,,,,,,,,,,,,,,,,,,,,,,,,,,,,,,,,,,,,,,,,,,,,,,,,,,,,,,,,,,,,,,,,,,,,,,,,,,,,,,,,,,,,,,,,,,,,,,,,,,,,,,,,,,,,,,,,,,,,,,,,,,,,,,,,,,,,,,,,,,,,,,,,,,,,,,,,,,,,,
,,,,,,60c8f96ddb749ea0361c1ae8,62c53a0a5a620c2b376daf8b,2022-07-06_09h31.25.539,Colour_Asymmetry_Pilot,2022.1.3,Win32,60.09254252,62c50e9c1127f2cd403a315f,0,42,42,97,1,onethree,,,,,,,,,,,,,,,,,,,,,,,,,,,,,,,,,,,,,,,,,,,,,,,,,,,,,,,,,,,,,,,,,,,,,,,,,,,,,,,,,,,,,,,,,,,,,,,,,,,,,,,,,,,,,,,,,,,,,,,,,,,,,,,,,,,,,,,,,,,,,,,,,,,,,,,,,,,,,
,,,,,,60c8f96ddb749ea0361c1ae8,62c53a0a5a620c2b376daf8b,2022-07-06_09h31.25.539,Colour_Asymmetry_Pilot,2022.1.3,Win32,60.09254252,62c50e9c1127f2cd403a315f,0,43,43,52,1,threeone,,,,,,,,,,,,,,,,,,,,,,,,,,,,,,,,,,,,,,,,,,,,,,,,,,,,,,,,,,,,,,,,,,,,,,,,,,,,,,,,,,,,,,,,,,,,,,,,,,,,,,,,,,,,,,,,,,,,,,,,,,,,,,,,,,,,,,,,,,,,,,,,,,,,,,,,,,,,,
,,,,,,60c8f96ddb749ea0361c1ae8,62c53a0a5a620c2b376daf8b,2022-07-06_09h31.25.539,Colour_Asymmetry_Pilot,2022.1.3,Win32,60.09254252,62c50e9c1127f2cd403a315f,0,44,44,123,1,twofour,,,,,,,,,,,,,,,,,,,,,,,,,,,,,,,,,,,,,,,,,,,,,,,,,,,,,,,,,,,,,,,,,,,,,,,,,,,,,,,,,,,,,,,,,,,,,,,,,,,,,,,,,,,,,,,,,,,,,,,,,,,,,,,,,,,,,,,,,,,,,,,,,,,,,,,,,,,,,
,,,,,,60c8f96ddb749ea0361c1ae8,62c53a0a5a620c2b376daf8b,2022-07-06_09h31.25.539,Colour_Asymmetry_Pilot,2022.1.3,Win32,60.09254252,62c50e9c1127f2cd403a315f,0,45,45,99,1,twofour,,,,,,,,,,,,,,,,,,,,,,,,,,,,,,,,,,,,,,,,,,,,,,,,,,,,,,,,,,,,,,,,,,,,,,,,,,,,,,,,,,,,,,,,,,,,,,,,,,,,,,,,,,,,,,,,,,,,,,,,,,,,,,,,,,,,,,,,,,,,,,,,,,,,,,,,,,,,,
,,,,,,60c8f96ddb749ea0361c1ae8,62c53a0a5a620c2b376daf8b,2022-07-06_09h31.25.539,Colour_Asymmetry_Pilot,2022.1.3,Win32,60.09254252,62c50e9c1127f2cd403a315f,0,46,46,4,1,threeone,,,,,,,,,,,,,,,,,,,,,,,,,,,,,,,,,,,,,,,,,,,,,,,,,,,,,,,,,,,,,,,,,,,,,,,,,,,,,,,,,,,,,,,,,,,,,,,,,,,,,,,,,,,,,,,,,,,,,,,,,,,,,,,,,,,,,,,,,,,,,,,,,,,,,,,,,,,,,
,,,,,,60c8f96ddb749ea0361c1ae8,62c53a0a5a620c2b376daf8b,2022-07-06_09h31.25.539,Colour_Asymmetry_Pilot,2022.1.3,Win32,60.09254252,62c50e9c1127f2cd403a315f,0,47,47,27,1,twofour,,,,,,,,,,,,,,,,,,,,,,,,,,,,,,,,,,,,,,,,,,,,,,,,,,,,,,,,,,,,,,,,,,,,,,,,,,,,,,,,,,,,,,,,,,,,,,,,,,,,,,,,,,,,,,,,,,,,,,,,,,,,,,,,,,,,,,,,,,,,,,,,,,,,,,,,,,,,,
,,,,,,60c8f96ddb749ea0361c1ae8,62c53a0a5a620c2b376daf8b,2022-07-06_09h31.25.539,Colour_Asymmetry_Pilot,2022.1.3,Win32,60.09254252,62c50e9c1127f2cd403a315f,0,48,48,114,1,twoone,,,,,,,,,,,,,,,,,,,,,,,,,,,,,,,,,,,,,,,,,,,,,,,,,,,,,,,,,,,,,,,,,,,,,,,,,,,,,,,,,,,,,,,,,,,,,,,,,,,,,,,,,,,,,,,,,,,,,,,,,,,,,,,,,,,,,,,,,,,,,,,,,,,,,,,,,,,,,
,,,,,,60c8f96ddb749ea0361c1ae8,62c53a0a5a620c2b376daf8b,2022-07-06_09h31.25.539,Colour_Asymmetry_Pilot,2022.1.3,Win32,60.09254252,62c50e9c1127f2cd403a315f,0,49,49,10,1,twoone,,,,,,,,,,,,,,,,,,,,,,,,,,,,,,,,,,,,,,,,,,,,,,,,,,,,,,,,,,,,,,,,,,,,,,,,,,,,,,,,,,,,,,,,,,,,,,,,,,,,,,,,,,,,,,,,,,,,,,,,,,,,,,,,,,,,,,,,,,,,,,,,,,,,,,,,,,,,,
,,,,,,60c8f96ddb749ea0361c1ae8,62c53a0a5a620c2b376daf8b,2022-07-06_09h31.25.539,Colour_Asymmetry_Pilot,2022.1.3,Win32,60.09254252,62c50e9c1127f2cd403a315f,0,50,50,104,1,onetwo,,,,,,,,,,,,,,,,,,,,,,,,,,,,,,,,,,,,,,,,,,,,,,,,,,,,,,,,,,,,,,,,,,,,,,,,,,,,,,,,,,,,,,,,,,,,,,,,,,,,,,,,,,,,,,,,,,,,,,,,,,,,,,,,,,,,,,,,,,,,,,,,,,,,,,,,,,,,,
,,,,,,60c8f96ddb749ea0361c1ae8,62c53a0a5a620c2b376daf8b,2022-07-06_09h31.25.539,Colour_Asymmetry_Pilot,2022.1.3,Win32,60.09254252,62c50e9c1127f2cd403a315f,0,51,51,49,1,onethree,,,,,,,,,,,,,,,,,,,,,,,,,,,,,,,,,,,,,,,,,,,,,,,,,,,,,,,,,,,,,,,,,,,,,,,,,,,,,,,,,,,,,,,,,,,,,,,,,,,,,,,,,,,,,,,,,,,,,,,,,,,,,,,,,,,,,,,,,,,,,,,,,,,,,,,,,,,,,
,,,,,,60c8f96ddb749ea0361c1ae8,62c53a0a5a620c2b376daf8b,2022-07-06_09h31.25.539,Colour_Asymmetry_Pilot,2022.1.3,Win32,60.09254252,62c50e9c1127f2cd403a315f,0,52,52,75,1,twofour,,,,,,,,,,,,,,,,,,,,,,,,,,,,,,,,,,,,,,,,,,,,,,,,,,,,,,,,,,,,,,,,,,,,,,,,,,,,,,,,,,,,,,,,,,,,,,,,,,,,,,,,,,,,,,,,,,,,,,,,,,,,,,,,,,,,,,,,,,,,,,,,,,,,,,,,,,,,,
,,,,,,60c8f96ddb749ea0361c1ae8,62c53a0a5a620c2b376daf8b,2022-07-06_09h31.25.539,Colour_Asymmetry_Pilot,2022.1.3,Win32,60.09254252,62c50e9c1127f2cd403a315f,0,53,53,124,1,threeone,,,,,,,,,,,,,,,,,,,,,,,,,,,,,,,,,,,,,,,,,,,,,,,,,,,,,,,,,,,,,,,,,,,,,,,,,,,,,,,,,,,,,,,,,,,,,,,,,,,,,,,,,,,,,,,,,,,,,,,,,,,,,,,,,,,,,,,,,,,,,,,,,,,,,,,,,,,,,
,,,,,,60c8f96ddb749ea0361c1ae8,62c53a0a5a620c2b376daf8b,2022-07-06_09h31.25.539,Colour_Asymmetry_Pilot,2022.1.3,Win32,60.09254252,62c50e9c1127f2cd403a315f,0,54,54,28,1,threeone,,,,,,,,,,,,,,,,,,,,,,,,,,,,,,,,,,,,,,,,,,,,,,,,,,,,,,,,,,,,,,,,,,,,,,,,,,,,,,,,,,,,,,,,,,,,,,,,,,,,,,,,,,,,,,,,,,,,,,,,,,,,,,,,,,,,,,,,,,,,,,,,,,,,,,,,,,,,,
,,,,,,60c8f96ddb749ea0361c1ae8,62c53a0a5a620c2b376daf8b,2022-07-06_09h31.25.539,Colour_Asymmetry_Pilot,2022.1.3,Win32,60.09254252,62c50e9c1127f2cd403a315f,0,55,55,0,1,onetwo,,,,,,,,,,,,,,,,,,,,,,,,,,,,,,,,,,,,,,,,,,,,,,,,,,,,,,,,,,,,,,,,,,,,,,,,,,,,,,,,,,,,,,,,,,,,,,,,,,,,,,,,,,,,,,,,,,,,,,,,,,,,,,,,,,,,,,,,,,,,,,,,,,,,,,,,,,,,,
,,,,,,60c8f96ddb749ea0361c1ae8,62c53a0a5a620c2b376daf8b,2022-07-06_09h31.25.539,Colour_Asymmetry_Pilot,2022.1.3,Win32,60.09254252,62c50e9c1127f2cd403a315f,0,56,56,143,1,fourthree,,,,,,,,,,,,,,,,,,,,,,,,,,,,,,,,,,,,,,,,,,,,,,,,,,,,,,,,,,,,,,,,,,,,,,,,,,,,,,,,,,,,,,,,,,,,,,,,,,,,,,,,,,,,,,,,,,,,,,,,,,,,,,,,,,,,,,,,,,,,,,,,,,,,,,,,,,,,,
,,,,,,60c8f96ddb749ea0361c1ae8,62c53a0a5a620c2b376daf8b,2022-07-06_09h31.25.539,Colour_Asymmetry_Pilot,2022.1.3,Win32,60.09254252,62c50e9c1127f2cd403a315f,0,57,57,136,1,onetwo,,,,,,,,,,,,,,,,,,,,,,,,,,,,,,,,,,,,,,,,,,,,,,,,,,,,,,,,,,,,,,,,,,,,,,,,,,,,,,,,,,,,,,,,,,,,,,,,,,,,,,,,,,,,,,,,,,,,,,,,,,,,,,,,,,,,,,,,,,,,,,,,,,,,,,,,,,,,,
,,,,,,60c8f96ddb749ea0361c1ae8,62c53a0a5a620c2b376daf8b,2022-07-06_09h31.25.539,Colour_Asymmetry_Pilot,2022.1.3,Win32,60.09254252,62c50e9c1127f2cd403a315f,0,58,58,132,1,threeone,,,,,,,,,,,,,,,,,,,,,,,,,,,,,,,,,,,,,,,,,,,,,,,,,,,,,,,,,,,,,,,,,,,,,,,,,,,,,,,,,,,,,,,,,,,,,,,,,,,,,,,,,,,,,,,,,,,,,,,,,,,,,,,,,,,,,,,,,,,,,,,,,,,,,,,,,,,,,
,,,,,,60c8f96ddb749ea0361c1ae8,62c53a0a5a620c2b376daf8b,2022-07-06_09h31.25.539,Colour_Asymmetry_Pilot,2022.1.3,Win32,60.09254252,62c50e9c1127f2cd403a315f,0,59,59,29,1,threefour,,,,,,,,,,,,,,,,,,,,,,,,,,,,,,,,,,,,,,,,,,,,,,,,,,,,,,,,,,,,,,,,,,,,,,,,,,,,,,,,,,,,,,,,,,,,,,,,,,,,,,,,,,,,,,,,,,,,,,,,,,,,,,,,,,,,,,,,,,,,,,,,,,,,,,,,,,,,,
,,,,,,60c8f96ddb749ea0361c1ae8,62c53a0a5a620c2b376daf8b,2022-07-06_09h31.25.539,Colour_Asymmetry_Pilot,2022.1.3,Win32,60.09254252,62c50e9c1127f2cd403a315f,0,60,60,87,1,fourthree,,,,,,,,,,,,,,,,,,,,,,,,,,,,,,,,,,,,,,,,,,,,,,,,,,,,,,,,,,,,,,,,,,,,,,,,,,,,,,,,,,,,,,,,,,,,,,,,,,,,,,,,,,,,,,,,,,,,,,,,,,,,,,,,,,,,,,,,,,,,,,,,,,,,,,,,,,,,,
,,,,,,60c8f96ddb749ea0361c1ae8,62c53a0a5a620c2b376daf8b,2022-07-06_09h31.25.539,Colour_Asymmetry_Pilot,2022.1.3,Win32,60.09254252,62c50e9c1127f2cd403a315f,0,61,61,64,1,onetwo,,,,,,,,,,,,,,,,,,,,,,,,,,,,,,,,,,,,,,,,,,,,,,,,,,,,,,,,,,,,,,,,,,,,,,,,,,,,,,,,,,,,,,,,,,,,,,,,,,,,,,,,,,,,,,,,,,,,,,,,,,,,,,,,,,,,,,,,,,,,,,,,,,,,,,,,,,,,,
,,,,,,60c8f96ddb749ea0361c1ae8,62c53a0a5a620c2b376daf8b,2022-07-06_09h31.25.539,Colour_Asymmetry_Pilot,2022.1.3,Win32,60.09254252,62c50e9c1127f2cd403a315f,0,62,62,135,1,fourthree,,,,,,,,,,,,,,,,,,,,,,,,,,,,,,,,,,,,,,,,,,,,,,,,,,,,,,,,,,,,,,,,,,,,,,,,,,,,,,,,,,,,,,,,,,,,,,,,,,,,,,,,,,,,,,,,,,,,,,,,,,,,,,,,,,,,,,,,,,,,,,,,,,,,,,,,,,,,,
,,,,,,60c8f96ddb749ea0361c1ae8,62c53a0a5a620c2b376daf8b,2022-07-06_09h31.25.539,Colour_Asymmetry_Pilot,2022.1.3,Win32,60.09254252,62c50e9c1127f2cd403a315f,0,63,63,110,1,fourtwo,,,,,,,,,,,,,,,,,,,,,,,,,,,,,,,,,,,,,,,,,,,,,,,,,,,,,,,,,,,,,,,,,,,,,,,,,,,,,,,,,,,,,,,,,,,,,,,,,,,,,,,,,,,,,,,,,,,,,,,,,,,,,,,,,,,,,,,,,,,,,,,,,,,,,,,,,,,,,
,,,,,,60c8f96ddb749ea0361c1ae8,62c53a0a5a620c2b376daf8b,2022-07-06_09h31.25.539,Colour_Asymmetry_Pilot,2022.1.3,Win32,60.09254252,62c50e9c1127f2cd403a315f,0,64,64,103,1,fourthree,,,,,,,,,,,,,,,,,,,,,,,,,,,,,,,,,,,,,,,,,,,,,,,,,,,,,,,,,,,,,,,,,,,,,,,,,,,,,,,,,,,,,,,,,,,,,,,,,,,,,,,,,,,,,,,,,,,,,,,,,,,,,,,,,,,,,,,,,,,,,,,,,,,,,,,,,,,,,
,,,,,,60c8f96ddb749ea0361c1ae8,62c53a0a5a620c2b376daf8b,2022-07-06_09h31.25.539,Colour_Asymmetry_Pilot,2022.1.3,Win32,60.09254252,62c50e9c1127f2cd403a315f,0,65,65,16,1,onetwo,,,,,,,,,,,,,,,,,,,,,,,,,,,,,,,,,,,,,,,,,,,,,,,,,,,,,,,,,,,,,,,,,,,,,,,,,,,,,,,,,,,,,,,,,,,,,,,,,,,,,,,,,,,,,,,,,,,,,,,,,,,,,,,,,,,,,,,,,,,,,,,,,,,,,,,,,,,,,
,,,,,,60c8f96ddb749ea0361c1ae8,62c53a0a5a620c2b376daf8b,2022-07-06_09h31.25.539,Colour_Asymmetry_Pilot,2022.1.3,Win32,60.09254252,62c50e9c1127f2cd403a315f,0,66,66,23,1,fourthree,,,,,,,,,,,,,,,,,,,,,,,,,,,,,,,,,,,,,,,,,,,,,,,,,,,,,,,,,,,,,,,,,,,,,,,,,,,,,,,,,,,,,,,,,,,,,,,,,,,,,,,,,,,,,,,,,,,,,,,,,,,,,,,,,,,,,,,,,,,,,,,,,,,,,,,,,,,,,
,,,,,,60c8f96ddb749ea0361c1ae8,62c53a0a5a620c2b376daf8b,2022-07-06_09h31.25.539,Colour_Asymmetry_Pilot,2022.1.3,Win32,60.09254252,62c50e9c1127f2cd403a315f,0,67,67,57,1,onethree,,,,,,,,,,,,,,,,,,,,,,,,,,,,,,,,,,,,,,,,,,,,,,,,,,,,,,,,,,,,,,,,,,,,,,,,,,,,,,,,,,,,,,,,,,,,,,,,,,,,,,,,,,,,,,,,,,,,,,,,,,,,,,,,,,,,,,,,,,,,,,,,,,,,,,,,,,,,,
,,,,,,60c8f96ddb749ea0361c1ae8,62c53a0a5a620c2b376daf8b,2022-07-06_09h31.25.539,Colour_Asymmetry_Pilot,2022.1.3,Win32,60.09254252,62c50e9c1127f2cd403a315f,0,68,68,58,1,twoone,,,,,,,,,,,,,,,,,,,,,,,,,,,,,,,,,,,,,,,,,,,,,,,,,,,,,,,,,,,,,,,,,,,,,,,,,,,,,,,,,,,,,,,,,,,,,,,,,,,,,,,,,,,,,,,,,,,,,,,,,,,,,,,,,,,,,,,,,,,,,,,,,,,,,,,,,,,,,
,,,,,,60c8f96ddb749ea0361c1ae8,62c53a0a5a620c2b376daf8b,2022-07-06_09h31.25.539,Colour_Asymmetry_Pilot,2022.1.3,Win32,60.09254252,62c50e9c1127f2cd403a315f,0,69,69,60,1,threeone,,,,,,,,,,,,,,,,,,,,,,,,,,,,,,,,,,,,,,,,,,,,,,,,,,,,,,,,,,,,,,,,,,,,,,,,,,,,,,,,,,,,,,,,,,,,,,,,,,,,,,,,,,,,,,,,,,,,,,,,,,,,,,,,,,,,,,,,,,,,,,,,,,,,,,,,,,,,,
,,,,,,60c8f96ddb749ea0361c1ae8,62c53a0a5a620c2b376daf8b,2022-07-06_09h31.25.539,Colour_Asymmetry_Pilot,2022.1.3,Win32,60.09254252,62c50e9c1127f2cd403a315f,0,70,70,158,1,fourtwo,,,,,,,,,,,,,,,,,,,,,,,,,,,,,,,,,,,,,,,,,,,,,,,,,,,,,,,,,,,,,,,,,,,,,,,,,,,,,,,,,,,,,,,,,,,,,,,,,,,,,,,,,,,,,,,,,,,,,,,,,,,,,,,,,,,,,,,,,,,,,,,,,,,,,,,,,,,,,
,,,,,,60c8f96ddb749ea0361c1ae8,62c53a0a5a620c2b376daf8b,2022-07-06_09h31.25.539,Colour_Asymmetry_Pilot,2022.1.3,Win32,60.09254252,62c50e9c1127f2cd403a315f,0,71,71,19,1,twofour,,,,,,,,,,,,,,,,,,,,,,,,,,,,,,,,,,,,,,,,,,,,,,,,,,,,,,,,,,,,,,,,,,,,,,,,,,,,,,,,,,,,,,,,,,,,,,,,,,,,,,,,,,,,,,,,,,,,,,,,,,,,,,,,,,,,,,,,,,,,,,,,,,,,,,,,,,,,,
,,,,,,60c8f96ddb749ea0361c1ae8,62c53a0a5a620c2b376daf8b,2022-07-06_09h31.25.539,Colour_Asymmetry_Pilot,2022.1.3,Win32,60.09254252,62c50e9c1127f2cd403a315f,0,72,72,63,1,fourthree,,,,,,,,,,,,,,,,,,,,,,,,,,,,,,,,,,,,,,,,,,,,,,,,,,,,,,,,,,,,,,,,,,,,,,,,,,,,,,,,,,,,,,,,,,,,,,,,,,,,,,,,,,,,,,,,,,,,,,,,,,,,,,,,,,,,,,,,,,,,,,,,,,,,,,,,,,,,,
,,,,,,60c8f96ddb749ea0361c1ae8,62c53a0a5a620c2b376daf8b,2022-07-06_09h31.25.539,Colour_Asymmetry_Pilot,2022.1.3,Win32,60.09254252,62c50e9c1127f2cd403a315f,0,73,73,131,1,twofour,,,,,,,,,,,,,,,,,,,,,,,,,,,,,,,,,,,,,,,,,,,,,,,,,,,,,,,,,,,,,,,,,,,,,,,,,,,,,,,,,,,,,,,,,,,,,,,,,,,,,,,,,,,,,,,,,,,,,,,,,,,,,,,,,,,,,,,,,,,,,,,,,,,,,,,,,,,,,
,,,,,,60c8f96ddb749ea0361c1ae8,62c53a0a5a620c2b376daf8b,2022-07-06_09h31.25.539,Colour_Asymmetry_Pilot,2022.1.3,Win32,60.09254252,62c50e9c1127f2cd403a315f,0,74,74,153,1,onethree,,,,,,,,,,,,,,,,,,,,,,,,,,,,,,,,,,,,,,,,,,,,,,,,,,,,,,,,,,,,,,,,,,,,,,,,,,,,,,,,,,,,,,,,,,,,,,,,,,,,,,,,,,,,,,,,,,,,,,,,,,,,,,,,,,,,,,,,,,,,,,,,,,,,,,,,,,,,,
,,,,,,60c8f96ddb749ea0361c1ae8,62c53a0a5a620c2b376daf8b,2022-07-06_09h31.25.539,Colour_Asymmetry_Pilot,2022.1.3,Win32,60.09254252,62c50e9c1127f2cd403a315f,0,75,75,7,1,fourthree,,,,,,,,,,,,,,,,,,,,,,,,,,,,,,,,,,,,,,,,,,,,,,,,,,,,,,,,,,,,,,,,,,,,,,,,,,,,,,,,,,,,,,,,,,,,,,,,,,,,,,,,,,,,,,,,,,,,,,,,,,,,,,,,,,,,,,,,,,,,,,,,,,,,,,,,,,,,,
,,,,,,60c8f96ddb749ea0361c1ae8,62c53a0a5a620c2b376daf8b,2022-07-06_09h31.25.539,Colour_Asymmetry_Pilot,2022.1.3,Win32,60.09254252,62c50e9c1127f2cd403a315f,0,76,76,33,1,onethree,,,,,,,,,,,,,,,,,,,,,,,,,,,,,,,,,,,,,,,,,,,,,,,,,,,,,,,,,,,,,,,,,,,,,,,,,,,,,,,,,,,,,,,,,,,,,,,,,,,,,,,,,,,,,,,,,,,,,,,,,,,,,,,,,,,,,,,,,,,,,,,,,,,,,,,,,,,,,
,,,,,,60c8f96ddb749ea0361c1ae8,62c53a0a5a620c2b376daf8b,2022-07-06_09h31.25.539,Colour_Asymmetry_Pilot,2022.1.3,Win32,60.09254252,62c50e9c1127f2cd403a315f,0,77,77,161,1,onethree,,,,,,,,,,,,,,,,,,,,,,,,,,,,,,,,,,,,,,,,,,,,,,,,,,,,,,,,,,,,,,,,,,,,,,,,,,,,,,,,,,,,,,,,,,,,,,,,,,,,,,,,,,,,,,,,,,,,,,,,,,,,,,,,,,,,,,,,,,,,,,,,,,,,,,,,,,,,,
,,,,,,60c8f96ddb749ea0361c1ae8,62c53a0a5a620c2b376daf8b,2022-07-06_09h31.25.539,Colour_Asymmetry_Pilot,2022.1.3,Win32,60.09254252,62c50e9c1127f2cd403a315f,0,78,78,72,1,onetwo,,,,,,,,,,,,,,,,,,,,,,,,,,,,,,,,,,,,,,,,,,,,,,,,,,,,,,,,,,,,,,,,,,,,,,,,,,,,,,,,,,,,,,,,,,,,,,,,,,,,,,,,,,,,,,,,,,,,,,,,,,,,,,,,,,,,,,,,,,,,,,,,,,,,,,,,,,,,,
,,,,,,60c8f96ddb749ea0361c1ae8,62c53a0a5a620c2b376daf8b,2022-07-06_09h31.25.539,Colour_Asymmetry_Pilot,2022.1.3,Win32,60.09254252,62c50e9c1127f2cd403a315f,0,79,79,3,1,twofour,,,,,,,,,,,,,,,,,,,,,,,,,,,,,,,,,,,,,,,,,,,,,,,,,,,,,,,,,,,,,,,,,,,,,,,,,,,,,,,,,,,,,,,,,,,,,,,,,,,,,,,,,,,,,,,,,,,,,,,,,,,,,,,,,,,,,,,,,,,,,,,,,,,,,,,,,,,,,
,,,,,,60c8f96ddb749ea0361c1ae8,62c53a0a5a620c2b376daf8b,2022-07-06_09h31.25.539,Colour_Asymmetry_Pilot,2022.1.3,Win32,60.09254252,62c50e9c1127f2cd403a315f,0,80,80,32,1,onetwo,,,,,,,,,,,,,,,,,,,,,,,,,,,,,,,,,,,,,,,,,,,,,,,,,,,,,,,,,,,,,,,,,,,,,,,,,,,,,,,,,,,,,,,,,,,,,,,,,,,,,,,,,,,,,,,,,,,,,,,,,,,,,,,,,,,,,,,,,,,,,,,,,,,,,,,,,,,,,
,,,,,,60c8f96ddb749ea0361c1ae8,62c53a0a5a620c2b376daf8b,2022-07-06_09h31.25.539,Colour_Asymmetry_Pilot,2022.1.3,Win32,60.09254252,62c50e9c1127f2cd403a315f,0,81,81,144,1,onetwo,,,,,,,,,,,,,,,,,,,,,,,,,,,,,,,,,,,,,,,,,,,,,,,,,,,,,,,,,,,,,,,,,,,,,,,,,,,,,,,,,,,,,,,,,,,,,,,,,,,,,,,,,,,,,,,,,,,,,,,,,,,,,,,,,,,,,,,,,,,,,,,,,,,,,,,,,,,,,
,,,,,,60c8f96ddb749ea0361c1ae8,62c53a0a5a620c2b376daf8b,2022-07-06_09h31.25.539,Colour_Asymmetry_Pilot,2022.1.3,Win32,60.09254252,62c50e9c1127f2cd403a315f,0,82,82,120,1,onetwo,,,,,,,,,,,,,,,,,,,,,,,,,,,,,,,,,,,,,,,,,,,,,,,,,,,,,,,,,,,,,,,,,,,,,,,,,,,,,,,,,,,,,,,,,,,,,,,,,,,,,,,,,,,,,,,,,,,,,,,,,,,,,,,,,,,,,,,,,,,,,,,,,,,,,,,,,,,,,
,,,,,,60c8f96ddb749ea0361c1ae8,62c53a0a5a620c2b376daf8b,2022-07-06_09h31.25.539,Colour_Asymmetry_Pilot,2022.1.3,Win32,60.09254252,62c50e9c1127f2cd403a315f,0,83,83,6,1,fourtwo,,,,,,,,,,,,,,,,,,,,,,,,,,,,,,,,,,,,,,,,,,,,,,,,,,,,,,,,,,,,,,,,,,,,,,,,,,,,,,,,,,,,,,,,,,,,,,,,,,,,,,,,,,,,,,,,,,,,,,,,,,,,,,,,,,,,,,,,,,,,,,,,,,,,,,,,,,,,,
,,,,,,60c8f96ddb749ea0361c1ae8,62c53a0a5a620c2b376daf8b,2022-07-06_09h31.25.539,Colour_Asymmetry_Pilot,2022.1.3,Win32,60.09254252,62c50e9c1127f2cd403a315f,0,84,84,21,1,threefour,,,,,,,,,,,,,,,,,,,,,,,,,,,,,,,,,,,,,,,,,,,,,,,,,,,,,,,,,,,,,,,,,,,,,,,,,,,,,,,,,,,,,,,,,,,,,,,,,,,,,,,,,,,,,,,,,,,,,,,,,,,,,,,,,,,,,,,,,,,,,,,,,,,,,,,,,,,,,
,,,,,,60c8f96ddb749ea0361c1ae8,62c53a0a5a620c2b376daf8b,2022-07-06_09h31.25.539,Colour_Asymmetry_Pilot,2022.1.3,Win32,60.09254252,62c50e9c1127f2cd403a315f,0,85,85,89,1,onethree,,,,,,,,,,,,,,,,,,,,,,,,,,,,,,,,,,,,,,,,,,,,,,,,,,,,,,,,,,,,,,,,,,,,,,,,,,,,,,,,,,,,,,,,,,,,,,,,,,,,,,,,,,,,,,,,,,,,,,,,,,,,,,,,,,,,,,,,,,,,,,,,,,,,,,,,,,,,,
,,,,,,60c8f96ddb749ea0361c1ae8,62c53a0a5a620c2b376daf8b,2022-07-06_09h31.25.539,Colour_Asymmetry_Pilot,2022.1.3,Win32,60.09254252,62c50e9c1127f2cd403a315f,0,86,86,81,1,onethree,,,,,,,,,,,,,,,,,,,,,,,,,,,,,,,,,,,,,,,,,,,,,,,,,,,,,,,,,,,,,,,,,,,,,,,,,,,,,,,,,,,,,,,,,,,,,,,,,,,,,,,,,,,,,,,,,,,,,,,,,,,,,,,,,,,,,,,,,,,,,,,,,,,,,,,,,,,,,
,,,,,,60c8f96ddb749ea0361c1ae8,62c53a0a5a620c2b376daf8b,2022-07-06_09h31.25.539,Colour_Asymmetry_Pilot,2022.1.3,Win32,60.09254252,62c50e9c1127f2cd403a315f,0,87,87,145,1,onethree,,,,,,,,,,,,,,,,,,,,,,,,,,,,,,,,,,,,,,,,,,,,,,,,,,,,,,,,,,,,,,,,,,,,,,,,,,,,,,,,,,,,,,,,,,,,,,,,,,,,,,,,,,,,,,,,,,,,,,,,,,,,,,,,,,,,,,,,,,,,,,,,,,,,,,,,,,,,,
,,,,,,60c8f96ddb749ea0361c1ae8,62c53a0a5a620c2b376daf8b,2022-07-06_09h31.25.539,Colour_Asymmetry_Pilot,2022.1.3,Win32,60.09254252,62c50e9c1127f2cd403a315f,0,88,88,150,1,fourtwo,,,,,,,,,,,,,,,,,,,,,,,,,,,,,,,,,,,,,,,,,,,,,,,,,,,,,,,,,,,,,,,,,,,,,,,,,,,,,,,,,,,,,,,,,,,,,,,,,,,,,,,,,,,,,,,,,,,,,,,,,,,,,,,,,,,,,,,,,,,,,,,,,,,,,,,,,,,,,
,,,,,,60c8f96ddb749ea0361c1ae8,62c53a0a5a620c2b376daf8b,2022-07-06_09h31.25.539,Colour_Asymmetry_Pilot,2022.1.3,Win32,60.09254252,62c50e9c1127f2cd403a315f,0,89,89,126,1,fourtwo,,,,,,,,,,,,,,,,,,,,,,,,,,,,,,,,,,,,,,,,,,,,,,,,,,,,,,,,,,,,,,,,,,,,,,,,,,,,,,,,,,,,,,,,,,,,,,,,,,,,,,,,,,,,,,,,,,,,,,,,,,,,,,,,,,,,,,,,,,,,,,,,,,,,,,,,,,,,,
,,,,,,60c8f96ddb749ea0361c1ae8,62c53a0a5a620c2b376daf8b,2022-07-06_09h31.25.539,Colour_Asymmetry_Pilot,2022.1.3,Win32,60.09254252,62c50e9c1127f2cd403a315f,0,90,90,67,1,twofour,,,,,,,,,,,,,,,,,,,,,,,,,,,,,,,,,,,,,,,,,,,,,,,,,,,,,,,,,,,,,,,,,,,,,,,,,,,,,,,,,,,,,,,,,,,,,,,,,,,,,,,,,,,,,,,,,,,,,,,,,,,,,,,,,,,,,,,,,,,,,,,,,,,,,,,,,,,,,
,,,,,,60c8f96ddb749ea0361c1ae8,62c53a0a5a620c2b376daf8b,2022-07-06_09h31.25.539,Colour_Asymmetry_Pilot,2022.1.3,Win32,60.09254252,62c50e9c1127f2cd403a315f,0,91,91,108,1,threeone,,,,,,,,,,,,,,,,,,,,,,,,,,,,,,,,,,,,,,,,,,,,,,,,,,,,,,,,,,,,,,,,,,,,,,,,,,,,,,,,,,,,,,,,,,,,,,,,,,,,,,,,,,,,,,,,,,,,,,,,,,,,,,,,,,,,,,,,,,,,,,,,,,,,,,,,,,,,,
,,,,,,60c8f96ddb749ea0361c1ae8,62c53a0a5a620c2b376daf8b,2022-07-06_09h31.25.539,Colour_Asymmetry_Pilot,2022.1.3,Win32,60.09254252,62c50e9c1127f2cd403a315f,0,92,92,39,1,fourthree,,,,,,,,,,,,,,,,,,,,,,,,,,,,,,,,,,,,,,,,,,,,,,,,,,,,,,,,,,,,,,,,,,,,,,,,,,,,,,,,,,,,,,,,,,,,,,,,,,,,,,,,,,,,,,,,,,,,,,,,,,,,,,,,,,,,,,,,,,,,,,,,,,,,,,,,,,,,,
,,,,,,60c8f96ddb749ea0361c1ae8,62c53a0a5a620c2b376daf8b,2022-07-06_09h31.25.539,Colour_Asymmetry_Pilot,2022.1.3,Win32,60.09254252,62c50e9c1127f2cd403a315f,0,93,93,134,1,fourtwo,,,,,,,,,,,,,,,,,,,,,,,,,,,,,,,,,,,,,,,,,,,,,,,,,,,,,,,,,,,,,,,,,,,,,,,,,,,,,,,,,,,,,,,,,,,,,,,,,,,,,,,,,,,,,,,,,,,,,,,,,,,,,,,,,,,,,,,,,,,,,,,,,,,,,,,,,,,,,
,,,,,,60c8f96ddb749ea0361c1ae8,62c53a0a5a620c2b376daf8b,2022-07-06_09h31.25.539,Colour_Asymmetry_Pilot,2022.1.3,Win32,60.09254252,62c50e9c1127f2cd403a315f,0,94,94,84,1,threeone,,,,,,,,,,,,,,,,,,,,,,,,,,,,,,,,,,,,,,,,,,,,,,,,,,,,,,,,,,,,,,,,,,,,,,,,,,,,,,,,,,,,,,,,,,,,,,,,,,,,,,,,,,,,,,,,,,,,,,,,,,,,,,,,,,,,,,,,,,,,,,,,,,,,,,,,,,,,,
,,,,,,60c8f96ddb749ea0361c1ae8,62c53a0a5a620c2b376daf8b,2022-07-06_09h31.25.539,Colour_Asymmetry_Pilot,2022.1.3,Win32,60.09254252,62c50e9c1127f2cd403a315f,0,95,95,92,1,threeone,,,,,,,,,,,,,,,,,,,,,,,,,,,,,,,,,,,,,,,,,,,,,,,,,,,,,,,,,,,,,,,,,,,,,,,,,,,,,,,,,,,,,,,,,,,,,,,,,,,,,,,,,,,,,,,,,,,,,,,,,,,,,,,,,,,,,,,,,,,,,,,,,,,,,,,,,,,,,
,,,,,,60c8f96ddb749ea0361c1ae8,62c53a0a5a620c2b376daf8b,2022-07-06_09h31.25.539,Colour_Asymmetry_Pilot,2022.1.3,Win32,60.09254252,62c50e9c1127f2cd403a315f,0,96,96,40,1,onetwo,,,,,,,,,,,,,,,,,,,,,,,,,,,,,,,,,,,,,,,,,,,,,,,,,,,,,,,,,,,,,,,,,,,,,,,,,,,,,,,,,,,,,,,,,,,,,,,,,,,,,,,,,,,,,,,,,,,,,,,,,,,,,,,,,,,,,,,,,,,,,,,,,,,,,,,,,,,,,
,,,,,,60c8f96ddb749ea0361c1ae8,62c53a0a5a620c2b376daf8b,2022-07-06_09h31.25.539,Colour_Asymmetry_Pilot,2022.1.3,Win32,60.09254252,62c50e9c1127f2cd403a315f,0,97,97,71,1,fourthree,,,,,,,,,,,,,,,,,,,,,,,,,,,,,,,,,,,,,,,,,,,,,,,,,,,,,,,,,,,,,,,,,,,,,,,,,,,,,,,,,,,,,,,,,,,,,,,,,,,,,,,,,,,,,,,,,,,,,,,,,,,,,,,,,,,,,,,,,,,,,,,,,,,,,,,,,,,,,
,,,,,,60c8f96ddb749ea0361c1ae8,62c53a0a5a620c2b376daf8b,2022-07-06_09h31.25.539,Colour_Asymmetry_Pilot,2022.1.3,Win32,60.09254252,62c50e9c1127f2cd403a315f,0,98,98,121,1,onethree,,,,,,,,,,,,,,,,,,,,,,,,,,,,,,,,,,,,,,,,,,,,,,,,,,,,,,,,,,,,,,,,,,,,,,,,,,,,,,,,,,,,,,,,,,,,,,,,,,,,,,,,,,,,,,,,,,,,,,,,,,,,,,,,,,,,,,,,,,,,,,,,,,,,,,,,,,,,,
,,,,,,60c8f96ddb749ea0361c1ae8,62c53a0a5a620c2b376daf8b,2022-07-06_09h31.25.539,Colour_Asymmetry_Pilot,2022.1.3,Win32,60.09254252,62c50e9c1127f2cd403a315f,0,99,99,141,1,threefour,,,,,,,,,,,,,,,,,,,,,,,,,,,,,,,,,,,,,,,,,,,,,,,,,,,,,,,,,,,,,,,,,,,,,,,,,,,,,,,,,,,,,,,,,,,,,,,,,,,,,,,,,,,,,,,,,,,,,,,,,,,,,,,,,,,,,,,,,,,,,,,,,,,,,,,,,,,,,
,,,,,,60c8f96ddb749ea0361c1ae8,62c53a0a5a620c2b376daf8b,2022-07-06_09h31.25.539,Colour_Asymmetry_Pilot,2022.1.3,Win32,60.09254252,62c50e9c1127f2cd403a315f,0,100,100,17,1,onethree,,,,,,,,,,,,,,,,,,,,,,,,,,,,,,,,,,,,,,,,,,,,,,,,,,,,,,,,,,,,,,,,,,,,,,,,,,,,,,,,,,,,,,,,,,,,,,,,,,,,,,,,,,,,,,,,,,,,,,,,,,,,,,,,,,,,,,,,,,,,,,,,,,,,,,,,,,,,,
,,,,,,60c8f96ddb749ea0361c1ae8,62c53a0a5a620c2b376daf8b,2022-07-06_09h31.25.539,Colour_Asymmetry_Pilot,2022.1.3,Win32,60.09254252,62c50e9c1127f2cd403a315f,0,101,101,116,1,threeone,,,,,,,,,,,,,,,,,,,,,,,,,,,,,,,,,,,,,,,,,,,,,,,,,,,,,,,,,,,,,,,,,,,,,,,,,,,,,,,,,,,,,,,,,,,,,,,,,,,,,,,,,,,,,,,,,,,,,,,,,,,,,,,,,,,,,,,,,,,,,,,,,,,,,,,,,,,,,
,,,,,,60c8f96ddb749ea0361c1ae8,62c53a0a5a620c2b376daf8b,2022-07-06_09h31.25.539,Colour_Asymmetry_Pilot,2022.1.3,Win32,60.09254252,62c50e9c1127f2cd403a315f,0,102,102,111,1,fourthree,,,,,,,,,,,,,,,,,,,,,,,,,,,,,,,,,,,,,,,,,,,,,,,,,,,,,,,,,,,,,,,,,,,,,,,,,,,,,,,,,,,,,,,,,,,,,,,,,,,,,,,,,,,,,,,,,,,,,,,,,,,,,,,,,,,,,,,,,,,,,,,,,,,,,,,,,,,,,
,,,,,,60c8f96ddb749ea0361c1ae8,62c53a0a5a620c2b376daf8b,2022-07-06_09h31.25.539,Colour_Asymmetry_Pilot,2022.1.3,Win32,60.09254252,62c50e9c1127f2cd403a315f,0,103,103,22,1,fourtwo,,,,,,,,,,,,,,,,,,,,,,,,,,,,,,,,,,,,,,,,,,,,,,,,,,,,,,,,,,,,,,,,,,,,,,,,,,,,,,,,,,,,,,,,,,,,,,,,,,,,,,,,,,,,,,,,,,,,,,,,,,,,,,,,,,,,,,,,,,,,,,,,,,,,,,,,,,,,,
,,,,,,60c8f96ddb749ea0361c1ae8,62c53a0a5a620c2b376daf8b,2022-07-06_09h31.25.539,Colour_Asymmetry_Pilot,2022.1.3,Win32,60.09254252,62c50e9c1127f2cd403a315f,0,104,104,93,1,threefour,,,,,,,,,,,,,,,,,,,,,,,,,,,,,,,,,,,,,,,,,,,,,,,,,,,,,,,,,,,,,,,,,,,,,,,,,,,,,,,,,,,,,,,,,,,,,,,,,,,,,,,,,,,,,,,,,,,,,,,,,,,,,,,,,,,,,,,,,,,,,,,,,,,,,,,,,,,,,
,,,,,,60c8f96ddb749ea0361c1ae8,62c53a0a5a620c2b376daf8b,2022-07-06_09h31.25.539,Colour_Asymmetry_Pilot,2022.1.3,Win32,60.09254252,62c50e9c1127f2cd403a315f,0,105,105,61,1,threefour,,,,,,,,,,,,,,,,,,,,,,,,,,,,,,,,,,,,,,,,,,,,,,,,,,,,,,,,,,,,,,,,,,,,,,,,,,,,,,,,,,,,,,,,,,,,,,,,,,,,,,,,,,,,,,,,,,,,,,,,,,,,,,,,,,,,,,,,,,,,,,,,,,,,,,,,,,,,,
,,,,,,60c8f96ddb749ea0361c1ae8,62c53a0a5a620c2b376daf8b,2022-07-06_09h31.25.539,Colour_Asymmetry_Pilot,2022.1.3,Win32,60.09254252,62c50e9c1127f2cd403a315f,0,106,106,15,1,fourthree,,,,,,,,,,,,,,,,,,,,,,,,,,,,,,,,,,,,,,,,,,,,,,,,,,,,,,,,,,,,,,,,,,,,,,,,,,,,,,,,,,,,,,,,,,,,,,,,,,,,,,,,,,,,,,,,,,,,,,,,,,,,,,,,,,,,,,,,,,,,,,,,,,,,,,,,,,,,,
,,,,,,60c8f96ddb749ea0361c1ae8,62c53a0a5a620c2b376daf8b,2022-07-06_09h31.25.539,Colour_Asymmetry_Pilot,2022.1.3,Win32,60.09254252,62c50e9c1127f2cd403a315f,0,107,107,88,1,onetwo,,,,,,,,,,,,,,,,,,,,,,,,,,,,,,,,,,,,,,,,,,,,,,,,,,,,,,,,,,,,,,,,,,,,,,,,,,,,,,,,,,,,,,,,,,,,,,,,,,,,,,,,,,,,,,,,,,,,,,,,,,,,,,,,,,,,,,,,,,,,,,,,,,,,,,,,,,,,,
,,,,,,60c8f96ddb749ea0361c1ae8,62c53a0a5a620c2b376daf8b,2022-07-06_09h31.25.539,Colour_Asymmetry_Pilot,2022.1.3,Win32,60.09254252,62c50e9c1127f2cd403a315f,0,108,108,101,1,threefour,,,,,,,,,,,,,,,,,,,,,,,,,,,,,,,,,,,,,,,,,,,,,,,,,,,,,,,,,,,,,,,,,,,,,,,,,,,,,,,,,,,,,,,,,,,,,,,,,,,,,,,,,,,,,,,,,,,,,,,,,,,,,,,,,,,,,,,,,,,,,,,,,,,,,,,,,,,,,
,,,,,,60c8f96ddb749ea0361c1ae8,62c53a0a5a620c2b376daf8b,2022-07-06_09h31.25.539,Colour_Asymmetry_Pilot,2022.1.3,Win32,60.09254252,62c50e9c1127f2cd403a315f,0,109,109,112,1,onetwo,,,,,,,,,,,,,,,,,,,,,,,,,,,,,,,,,,,,,,,,,,,,,,,,,,,,,,,,,,,,,,,,,,,,,,,,,,,,,,,,,,,,,,,,,,,,,,,,,,,,,,,,,,,,,,,,,,,,,,,,,,,,,,,,,,,,,,,,,,,,,,,,,,,,,,,,,,,,,
,,,,,,60c8f96ddb749ea0361c1ae8,62c53a0a5a620c2b376daf8b,2022-07-06_09h31.25.539,Colour_Asymmetry_Pilot,2022.1.3,Win32,60.09254252,62c50e9c1127f2cd403a315f,0,110,110,139,1,twofour,,,,,,,,,,,,,,,,,,,,,,,,,,,,,,,,,,,,,,,,,,,,,,,,,,,,,,,,,,,,,,,,,,,,,,,,,,,,,,,,,,,,,,,,,,,,,,,,,,,,,,,,,,,,,,,,,,,,,,,,,,,,,,,,,,,,,,,,,,,,,,,,,,,,,,,,,,,,,
,,,,,,60c8f96ddb749ea0361c1ae8,62c53a0a5a620c2b376daf8b,2022-07-06_09h31.25.539,Colour_Asymmetry_Pilot,2022.1.3,Win32,60.09254252,62c50e9c1127f2cd403a315f,0,111,111,86,1,fourtwo,,,,,,,,,,,,,,,,,,,,,,,,,,,,,,,,,,,,,,,,,,,,,,,,,,,,,,,,,,,,,,,,,,,,,,,,,,,,,,,,,,,,,,,,,,,,,,,,,,,,,,,,,,,,,,,,,,,,,,,,,,,,,,,,,,,,,,,,,,,,,,,,,,,,,,,,,,,,,
,,,,,,60c8f96ddb749ea0361c1ae8,62c53a0a5a620c2b376daf8b,2022-07-06_09h31.25.539,Colour_Asymmetry_Pilot,2022.1.3,Win32,60.09254252,62c50e9c1127f2cd403a315f,0,112,112,98,1,twoone,,,,,,,,,,,,,,,,,,,,,,,,,,,,,,,,,,,,,,,,,,,,,,,,,,,,,,,,,,,,,,,,,,,,,,,,,,,,,,,,,,,,,,,,,,,,,,,,,,,,,,,,,,,,,,,,,,,,,,,,,,,,,,,,,,,,,,,,,,,,,,,,,,,,,,,,,,,,,
,,,,,,60c8f96ddb749ea0361c1ae8,62c53a0a5a620c2b376daf8b,2022-07-06_09h31.25.539,Colour_Asymmetry_Pilot,2022.1.3,Win32,60.09254252,62c50e9c1127f2cd403a315f,0,113,113,73,1,onethree,,,,,,,,,,,,,,,,,,,,,,,,,,,,,,,,,,,,,,,,,,,,,,,,,,,,,,,,,,,,,,,,,,,,,,,,,,,,,,,,,,,,,,,,,,,,,,,,,,,,,,,,,,,,,,,,,,,,,,,,,,,,,,,,,,,,,,,,,,,,,,,,,,,,,,,,,,,,,
,,,,,,60c8f96ddb749ea0361c1ae8,62c53a0a5a620c2b376daf8b,2022-07-06_09h31.25.539,Colour_Asymmetry_Pilot,2022.1.3,Win32,60.09254252,62c50e9c1127f2cd403a315f,0,114,114,125,1,threefour,,,,,,,,,,,,,,,,,,,,,,,,,,,,,,,,,,,,,,,,,,,,,,,,,,,,,,,,,,,,,,,,,,,,,,,,,,,,,,,,,,,,,,,,,,,,,,,,,,,,,,,,,,,,,,,,,,,,,,,,,,,,,,,,,,,,,,,,,,,,,,,,,,,,,,,,,,,,,
,,,,,,60c8f96ddb749ea0361c1ae8,62c53a0a5a620c2b376daf8b,2022-07-06_09h31.25.539,Colour_Asymmetry_Pilot,2022.1.3,Win32,60.09254252,62c50e9c1127f2cd403a315f,0,115,115,43,1,twofour,,,,,,,,,,,,,,,,,,,,,,,,,,,,,,,,,,,,,,,,,,,,,,,,,,,,,,,,,,,,,,,,,,,,,,,,,,,,,,,,,,,,,,,,,,,,,,,,,,,,,,,,,,,,,,,,,,,,,,,,,,,,,,,,,,,,,,,,,,,,,,,,,,,,,,,,,,,,,
,,,,,,60c8f96ddb749ea0361c1ae8,62c53a0a5a620c2b376daf8b,2022-07-06_09h31.25.539,Colour_Asymmetry_Pilot,2022.1.3,Win32,60.09254252,62c50e9c1127f2cd403a315f,0,116,116,127,1,fourthree,,,,,,,,,,,,,,,,,,,,,,,,,,,,,,,,,,,,,,,,,,,,,,,,,,,,,,,,,,,,,,,,,,,,,,,,,,,,,,,,,,,,,,,,,,,,,,,,,,,,,,,,,,,,,,,,,,,,,,,,,,,,,,,,,,,,,,,,,,,,,,,,,,,,,,,,,,,,,
,,,,,,60c8f96ddb749ea0361c1ae8,62c53a0a5a620c2b376daf8b,2022-07-06_09h31.25.539,Colour_Asymmetry_Pilot,2022.1.3,Win32,60.09254252,62c50e9c1127f2cd403a315f,0,117,117,138,1,twoone,,,,,,,,,,,,,,,,,,,,,,,,,,,,,,,,,,,,,,,,,,,,,,,,,,,,,,,,,,,,,,,,,,,,,,,,,,,,,,,,,,,,,,,,,,,,,,,,,,,,,,,,,,,,,,,,,,,,,,,,,,,,,,,,,,,,,,,,,,,,,,,,,,,,,,,,,,,,,
,,,,,,60c8f96ddb749ea0361c1ae8,62c53a0a5a620c2b376daf8b,2022-07-06_09h31.25.539,Colour_Asymmetry_Pilot,2022.1.3,Win32,60.09254252,62c50e9c1127f2cd403a315f,0,118,118,37,1,threefour,,,,,,,,,,,,,,,,,,,,,,,,,,,,,,,,,,,,,,,,,,,,,,,,,,,,,,,,,,,,,,,,,,,,,,,,,,,,,,,,,,,,,,,,,,,,,,,,,,,,,,,,,,,,,,,,,,,,,,,,,,,,,,,,,,,,,,,,,,,,,,,,,,,,,,,,,,,,,
,,,,,,60c8f96ddb749ea0361c1ae8,62c53a0a5a620c2b376daf8b,2022-07-06_09h31.25.539,Colour_Asymmetry_Pilot,2022.1.3,Win32,60.09254252,62c50e9c1127f2cd403a315f,0,119,119,85,1,threefour,,,,,,,,,,,,,,,,,,,,,,,,,,,,,,,,,,,,,,,,,,,,,,,,,,,,,,,,,,,,,,,,,,,,,,,,,,,,,,,,,,,,,,,,,,,,,,,,,,,,,,,,,,,,,,,,,,,,,,,,,,,,,,,,,,,,,,,,,,,,,,,,,,,,,,,,,,,,,
,,,,,,60c8f96ddb749ea0361c1ae8,62c53a0a5a620c2b376daf8b,2022-07-06_09h31.25.539,Colour_Asymmetry_Pilot,2022.1.3,Win32,60.09254252,62c50e9c1127f2cd403a315f,0,120,120,5,1,threefour,,,,,,,,,,,,,,,,,,,,,,,,,,,,,,,,,,,,,,,,,,,,,,,,,,,,,,,,,,,,,,,,,,,,,,,,,,,,,,,,,,,,,,,,,,,,,,,,,,,,,,,,,,,,,,,,,,,,,,,,,,,,,,,,,,,,,,,,,,,,,,,,,,,,,,,,,,,,,
,,,,,,60c8f96ddb749ea0361c1ae8,62c53a0a5a620c2b376daf8b,2022-07-06_09h31.25.539,Colour_Asymmetry_Pilot,2022.1.3,Win32,60.09254252,62c50e9c1127f2cd403a315f,0,121,121,149,1,threefour,,,,,,,,,,,,,,,,,,,,,,,,,,,,,,,,,,,,,,,,,,,,,,,,,,,,,,,,,,,,,,,,,,,,,,,,,,,,,,,,,,,,,,,,,,,,,,,,,,,,,,,,,,,,,,,,,,,,,,,,,,,,,,,,,,,,,,,,,,,,,,,,,,,,,,,,,,,,,
,,,,,,60c8f96ddb749ea0361c1ae8,62c53a0a5a620c2b376daf8b,2022-07-06_09h31.25.539,Colour_Asymmetry_Pilot,2022.1.3,Win32,60.09254252,62c50e9c1127f2cd403a315f,0,122,122,146,1,twoone,,,,,,,,,,,,,,,,,,,,,,,,,,,,,,,,,,,,,,,,,,,,,,,,,,,,,,,,,,,,,,,,,,,,,,,,,,,,,,,,,,,,,,,,,,,,,,,,,,,,,,,,,,,,,,,,,,,,,,,,,,,,,,,,,,,,,,,,,,,,,,,,,,,,,,,,,,,,,
,,,,,,60c8f96ddb749ea0361c1ae8,62c53a0a5a620c2b376daf8b,2022-07-06_09h31.25.539,Colour_Asymmetry_Pilot,2022.1.3,Win32,60.09254252,62c50e9c1127f2cd403a315f,0,123,123,2,1,twoone,,,,,,,,,,,,,,,,,,,,,,,,,,,,,,,,,,,,,,,,,,,,,,,,,,,,,,,,,,,,,,,,,,,,,,,,,,,,,,,,,,,,,,,,,,,,,,,,,,,,,,,,,,,,,,,,,,,,,,,,,,,,,,,,,,,,,,,,,,,,,,,,,,,,,,,,,,,,,
,,,,,,60c8f96ddb749ea0361c1ae8,62c53a0a5a620c2b376daf8b,2022-07-06_09h31.25.539,Colour_Asymmetry_Pilot,2022.1.3,Win32,60.09254252,62c50e9c1127f2cd403a315f,0,124,124,42,1,twoone,,,,,,,,,,,,,,,,,,,,,,,,,,,,,,,,,,,,,,,,,,,,,,,,,,,,,,,,,,,,,,,,,,,,,,,,,,,,,,,,,,,,,,,,,,,,,,,,,,,,,,,,,,,,,,,,,,,,,,,,,,,,,,,,,,,,,,,,,,,,,,,,,,,,,,,,,,,,,
,,,,,,60c8f96ddb749ea0361c1ae8,62c53a0a5a620c2b376daf8b,2022-07-06_09h31.25.539,Colour_Asymmetry_Pilot,2022.1.3,Win32,60.09254252,62c50e9c1127f2cd403a315f,0,125,125,55,1,fourthree,,,,,,,,,,,,,,,,,,,,,,,,,,,,,,,,,,,,,,,,,,,,,,,,,,,,,,,,,,,,,,,,,,,,,,,,,,,,,,,,,,,,,,,,,,,,,,,,,,,,,,,,,,,,,,,,,,,,,,,,,,,,,,,,,,,,,,,,,,,,,,,,,,,,,,,,,,,,,
,,,,,,60c8f96ddb749ea0361c1ae8,62c53a0a5a620c2b376daf8b,2022-07-06_09h31.25.539,Colour_Asymmetry_Pilot,2022.1.3,Win32,60.09254252,62c50e9c1127f2cd403a315f,0,126,126,68,1,threeone,,,,,,,,,,,,,,,,,,,,,,,,,,,,,,,,,,,,,,,,,,,,,,,,,,,,,,,,,,,,,,,,,,,,,,,,,,,,,,,,,,,,,,,,,,,,,,,,,,,,,,,,,,,,,,,,,,,,,,,,,,,,,,,,,,,,,,,,,,,,,,,,,,,,,,,,,,,,,
,,,,,,60c8f96ddb749ea0361c1ae8,62c53a0a5a620c2b376daf8b,2022-07-06_09h31.25.539,Colour_Asymmetry_Pilot,2022.1.3,Win32,60.09254252,62c50e9c1127f2cd403a315f,0,127,127,147,1,twofour,,,,,,,,,,,,,,,,,,,,,,,,,,,,,,,,,,,,,,,,,,,,,,,,,,,,,,,,,,,,,,,,,,,,,,,,,,,,,,,,,,,,,,,,,,,,,,,,,,,,,,,,,,,,,,,,,,,,,,,,,,,,,,,,,,,,,,,,,,,,,,,,,,,,,,,,,,,,,
,,,,,,60c8f96ddb749ea0361c1ae8,62c53a0a5a620c2b376daf8b,2022-07-06_09h31.25.539,Colour_Asymmetry_Pilot,2022.1.3,Win32,60.09254252,62c50e9c1127f2cd403a315f,0,128,128,100,1,threeone,,,,,,,,,,,,,,,,,,,,,,,,,,,,,,,,,,,,,,,,,,,,,,,,,,,,,,,,,,,,,,,,,,,,,,,,,,,,,,,,,,,,,,,,,,,,,,,,,,,,,,,,,,,,,,,,,,,,,,,,,,,,,,,,,,,,,,,,,,,,,,,,,,,,,,,,,,,,,
,,,,,,60c8f96ddb749ea0361c1ae8,62c53a0a5a620c2b376daf8b,2022-07-06_09h31.25.539,Colour_Asymmetry_Pilot,2022.1.3,Win32,60.09254252,62c50e9c1127f2cd403a315f,0,129,129,154,1,twoone,,,,,,,,,,,,,,,,,,,,,,,,,,,,,,,,,,,,,,,,,,,,,,,,,,,,,,,,,,,,,,,,,,,,,,,,,,,,,,,,,,,,,,,,,,,,,,,,,,,,,,,,,,,,,,,,,,,,,,,,,,,,,,,,,,,,,,,,,,,,,,,,,,,,,,,,,,,,,
,,,,,,60c8f96ddb749ea0361c1ae8,62c53a0a5a620c2b376daf8b,2022-07-06_09h31.25.539,Colour_Asymmetry_Pilot,2022.1.3,Win32,60.09254252,62c50e9c1127f2cd403a315f,0,130,130,115,1,twofour,,,,,,,,,,,,,,,,,,,,,,,,,,,,,,,,,,,,,,,,,,,,,,,,,,,,,,,,,,,,,,,,,,,,,,,,,,,,,,,,,,,,,,,,,,,,,,,,,,,,,,,,,,,,,,,,,,,,,,,,,,,,,,,,,,,,,,,,,,,,,,,,,,,,,,,,,,,,,
,,,,,,60c8f96ddb749ea0361c1ae8,62c53a0a5a620c2b376daf8b,2022-07-06_09h31.25.539,Colour_Asymmetry_Pilot,2022.1.3,Win32,60.09254252,62c50e9c1127f2cd403a315f,0,131,131,35,1,twofour,,,,,,,,,,,,,,,,,,,,,,,,,,,,,,,,,,,,,,,,,,,,,,,,,,,,,,,,,,,,,,,,,,,,,,,,,,,,,,,,,,,,,,,,,,,,,,,,,,,,,,,,,,,,,,,,,,,,,,,,,,,,,,,,,,,,,,,,,,,,,,,,,,,,,,,,,,,,,
,,,,,,60c8f96ddb749ea0361c1ae8,62c53a0a5a620c2b376daf8b,2022-07-06_09h31.25.539,Colour_Asymmetry_Pilot,2022.1.3,Win32,60.09254252,62c50e9c1127f2cd403a315f,0,132,132,74,1,twoone,,,,,,,,,,,,,,,,,,,,,,,,,,,,,,,,,,,,,,,,,,,,,,,,,,,,,,,,,,,,,,,,,,,,,,,,,,,,,,,,,,,,,,,,,,,,,,,,,,,,,,,,,,,,,,,,,,,,,,,,,,,,,,,,,,,,,,,,,,,,,,,,,,,,,,,,,,,,,
,,,,,,60c8f96ddb749ea0361c1ae8,62c53a0a5a620c2b376daf8b,2022-07-06_09h31.25.539,Colour_Asymmetry_Pilot,2022.1.3,Win32,60.09254252,62c50e9c1127f2cd403a315f,0,133,133,41,1,onethree,,,,,,,,,,,,,,,,,,,,,,,,,,,,,,,,,,,,,,,,,,,,,,,,,,,,,,,,,,,,,,,,,,,,,,,,,,,,,,,,,,,,,,,,,,,,,,,,,,,,,,,,,,,,,,,,,,,,,,,,,,,,,,,,,,,,,,,,,,,,,,,,,,,,,,,,,,,,,
,,,,,,60c8f96ddb749ea0361c1ae8,62c53a0a5a620c2b376daf8b,2022-07-06_09h31.25.539,Colour_Asymmetry_Pilot,2022.1.3,Win32,60.09254252,62c50e9c1127f2cd403a315f,0,134,134,151,1,fourthree,,,,,,,,,,,,,,,,,,,,,,,,,,,,,,,,,,,,,,,,,,,,,,,,,,,,,,,,,,,,,,,,,,,,,,,,,,,,,,,,,,,,,,,,,,,,,,,,,,,,,,,,,,,,,,,,,,,,,,,,,,,,,,,,,,,,,,,,,,,,,,,,,,,,,,,,,,,,,
,,,,,,60c8f96ddb749ea0361c1ae8,62c53a0a5a620c2b376daf8b,2022-07-06_09h31.25.539,Colour_Asymmetry_Pilot,2022.1.3,Win32,60.09254252,62c50e9c1127f2cd403a315f,0,135,135,47,1,fourthree,,,,,,,,,,,,,,,,,,,,,,,,,,,,,,,,,,,,,,,,,,,,,,,,,,,,,,,,,,,,,,,,,,,,,,,,,,,,,,,,,,,,,,,,,,,,,,,,,,,,,,,,,,,,,,,,,,,,,,,,,,,,,,,,,,,,,,,,,,,,,,,,,,,,,,,,,,,,,
,,,,,,60c8f96ddb749ea0361c1ae8,62c53a0a5a620c2b376daf8b,2022-07-06_09h31.25.539,Colour_Asymmetry_Pilot,2022.1.3,Win32,60.09254252,62c50e9c1127f2cd403a315f,0,136,136,24,1,onetwo,,,,,,,,,,,,,,,,,,,,,,,,,,,,,,,,,,,,,,,,,,,,,,,,,,,,,,,,,,,,,,,,,,,,,,,,,,,,,,,,,,,,,,,,,,,,,,,,,,,,,,,,,,,,,,,,,,,,,,,,,,,,,,,,,,,,,,,,,,,,,,,,,,,,,,,,,,,,,
,,,,,,60c8f96ddb749ea0361c1ae8,62c53a0a5a620c2b376daf8b,2022-07-06_09h31.25.539,Colour_Asymmetry_Pilot,2022.1.3,Win32,60.09254252,62c50e9c1127f2cd403a315f,0,137,137,25,1,onethree,,,,,,,,,,,,,,,,,,,,,,,,,,,,,,,,,,,,,,,,,,,,,,,,,,,,,,,,,,,,,,,,,,,,,,,,,,,,,,,,,,,,,,,,,,,,,,,,,,,,,,,,,,,,,,,,,,,,,,,,,,,,,,,,,,,,,,,,,,,,,,,,,,,,,,,,,,,,,
,,,,,,60c8f96ddb749ea0361c1ae8,62c53a0a5a620c2b376daf8b,2022-07-06_09h31.25.539,Colour_Asymmetry_Pilot,2022.1.3,Win32,60.09254252,62c50e9c1127f2cd403a315f,0,138,138,9,1,onethree,,,,,,,,,,,,,,,,,,,,,,,,,,,,,,,,,,,,,,,,,,,,,,,,,,,,,,,,,,,,,,,,,,,,,,,,,,,,,,,,,,,,,,,,,,,,,,,,,,,,,,,,,,,,,,,,,,,,,,,,,,,,,,,,,,,,,,,,,,,,,,,,,,,,,,,,,,,,,
,,,,,,60c8f96ddb749ea0361c1ae8,62c53a0a5a620c2b376daf8b,2022-07-06_09h31.25.539,Colour_Asymmetry_Pilot,2022.1.3,Win32,60.09254252,62c50e9c1127f2cd403a315f,0,139,139,133,1,threefour,,,,,,,,,,,,,,,,,,,,,,,,,,,,,,,,,,,,,,,,,,,,,,,,,,,,,,,,,,,,,,,,,,,,,,,,,,,,,,,,,,,,,,,,,,,,,,,,,,,,,,,,,,,,,,,,,,,,,,,,,,,,,,,,,,,,,,,,,,,,,,,,,,,,,,,,,,,,,
,,,,,,60c8f96ddb749ea0361c1ae8,62c53a0a5a620c2b376daf8b,2022-07-06_09h31.25.539,Colour_Asymmetry_Pilot,2022.1.3,Win32,60.09254252,62c50e9c1127f2cd403a315f,0,140,140,20,1,threeone,,,,,,,,,,,,,,,,,,,,,,,,,,,,,,,,,,,,,,,,,,,,,,,,,,,,,,,,,,,,,,,,,,,,,,,,,,,,,,,,,,,,,,,,,,,,,,,,,,,,,,,,,,,,,,,,,,,,,,,,,,,,,,,,,,,,,,,,,,,,,,,,,,,,,,,,,,,,,
,,,,,,60c8f96ddb749ea0361c1ae8,62c53a0a5a620c2b376daf8b,2022-07-06_09h31.25.539,Colour_Asymmetry_Pilot,2022.1.3,Win32,60.09254252,62c50e9c1127f2cd403a315f,0,141,141,117,1,threefour,,,,,,,,,,,,,,,,,,,,,,,,,,,,,,,,,,,,,,,,,,,,,,,,,,,,,,,,,,,,,,,,,,,,,,,,,,,,,,,,,,,,,,,,,,,,,,,,,,,,,,,,,,,,,,,,,,,,,,,,,,,,,,,,,,,,,,,,,,,,,,,,,,,,,,,,,,,,,
,,,,,,60c8f96ddb749ea0361c1ae8,62c53a0a5a620c2b376daf8b,2022-07-06_09h31.25.539,Colour_Asymmetry_Pilot,2022.1.3,Win32,60.09254252,62c50e9c1127f2cd403a315f,0,142,142,13,1,threefour,,,,,,,,,,,,,,,,,,,,,,,,,,,,,,,,,,,,,,,,,,,,,,,,,,,,,,,,,,,,,,,,,,,,,,,,,,,,,,,,,,,,,,,,,,,,,,,,,,,,,,,,,,,,,,,,,,,,,,,,,,,,,,,,,,,,,,,,,,,,,,,,,,,,,,,,,,,,,
,,,,,,60c8f96ddb749ea0361c1ae8,62c53a0a5a620c2b376daf8b,2022-07-06_09h31.25.539,Colour_Asymmetry_Pilot,2022.1.3,Win32,60.09254252,62c50e9c1127f2cd403a315f,0,143,143,8,1,onetwo,,,,,,,,,,,,,,,,,,,,,,,,,,,,,,,,,,,,,,,,,,,,,,,,,,,,,,,,,,,,,,,,,,,,,,,,,,,,,,,,,,,,,,,,,,,,,,,,,,,,,,,,,,,,,,,,,,,,,,,,,,,,,,,,,,,,,,,,,,,,,,,,,,,,,,,,,,,,,
,,,,,,60c8f96ddb749ea0361c1ae8,62c53a0a5a620c2b376daf8b,2022-07-06_09h31.25.539,Colour_Asymmetry_Pilot,2022.1.3,Win32,60.09254252,62c50e9c1127f2cd403a315f,0,144,144,160,1,onetwo,,,,,,,,,,,,,,,,,,,,,,,,,,,,,,,,,,,,,,,,,,,,,,,,,,,,,,,,,,,,,,,,,,,,,,,,,,,,,,,,,,,,,,,,,,,,,,,,,,,,,,,,,,,,,,,,,,,,,,,,,,,,,,,,,,,,,,,,,,,,,,,,,,,,,,,,,,,,,
,,,,,,60c8f96ddb749ea0361c1ae8,62c53a0a5a620c2b376daf8b,2022-07-06_09h31.25.539,Colour_Asymmetry_Pilot,2022.1.3,Win32,60.09254252,62c50e9c1127f2cd403a315f,0,145,145,36,1,threeone,,,,,,,,,,,,,,,,,,,,,,,,,,,,,,,,,,,,,,,,,,,,,,,,,,,,,,,,,,,,,,,,,,,,,,,,,,,,,,,,,,,,,,,,,,,,,,,,,,,,,,,,,,,,,,,,,,,,,,,,,,,,,,,,,,,,,,,,,,,,,,,,,,,,,,,,,,,,,
,,,,,,60c8f96ddb749ea0361c1ae8,62c53a0a5a620c2b376daf8b,2022-07-06_09h31.25.539,Colour_Asymmetry_Pilot,2022.1.3,Win32,60.09254252,62c50e9c1127f2cd403a315f,0,146,146,109,1,threefour,,,,,,,,,,,,,,,,,,,,,,,,,,,,,,,,,,,,,,,,,,,,,,,,,,,,,,,,,,,,,,,,,,,,,,,,,,,,,,,,,,,,,,,,,,,,,,,,,,,,,,,,,,,,,,,,,,,,,,,,,,,,,,,,,,,,,,,,,,,,,,,,,,,,,,,,,,,,,
,,,,,,60c8f96ddb749ea0361c1ae8,62c53a0a5a620c2b376daf8b,2022-07-06_09h31.25.539,Colour_Asymmetry_Pilot,2022.1.3,Win32,60.09254252,62c50e9c1127f2cd403a315f,0,147,147,96,1,onetwo,,,,,,,,,,,,,,,,,,,,,,,,,,,,,,,,,,,,,,,,,,,,,,,,,,,,,,,,,,,,,,,,,,,,,,,,,,,,,,,,,,,,,,,,,,,,,,,,,,,,,,,,,,,,,,,,,,,,,,,,,,,,,,,,,,,,,,,,,,,,,,,,,,,,,,,,,,,,,
,,,,,,60c8f96ddb749ea0361c1ae8,62c53a0a5a620c2b376daf8b,2022-07-06_09h31.25.539,Colour_Asymmetry_Pilot,2022.1.3,Win32,60.09254252,62c50e9c1127f2cd403a315f,0,148,148,59,1,twofour,,,,,,,,,,,,,,,,,,,,,,,,,,,,,,,,,,,,,,,,,,,,,,,,,,,,,,,,,,,,,,,,,,,,,,,,,,,,,,,,,,,,,,,,,,,,,,,,,,,,,,,,,,,,,,,,,,,,,,,,,,,,,,,,,,,,,,,,,,,,,,,,,,,,,,,,,,,,,
,,,,,,60c8f96ddb749ea0361c1ae8,62c53a0a5a620c2b376daf8b,2022-07-06_09h31.25.539,Colour_Asymmetry_Pilot,2022.1.3,Win32,60.09254252,62c50e9c1127f2cd403a315f,0,149,149,14,1,fourtwo,,,,,,,,,,,,,,,,,,,,,,,,,,,,,,,,,,,,,,,,,,,,,,,,,,,,,,,,,,,,,,,,,,,,,,,,,,,,,,,,,,,,,,,,,,,,,,,,,,,,,,,,,,,,,,,,,,,,,,,,,,,,,,,,,,,,,,,,,,,,,,,,,,,,,,,,,,,,,
,,,,,,60c8f96ddb749ea0361c1ae8,62c53a0a5a620c2b376daf8b,2022-07-06_09h31.25.539,Colour_Asymmetry_Pilot,2022.1.3,Win32,60.09254252,62c50e9c1127f2cd403a315f,0,150,150,54,1,fourtwo,,,,,,,,,,,,,,,,,,,,,,,,,,,,,,,,,,,,,,,,,,,,,,,,,,,,,,,,,,,,,,,,,,,,,,,,,,,,,,,,,,,,,,,,,,,,,,,,,,,,,,,,,,,,,,,,,,,,,,,,,,,,,,,,,,,,,,,,,,,,,,,,,,,,,,,,,,,,,
,,,,,,60c8f96ddb749ea0361c1ae8,62c53a0a5a620c2b376daf8b,2022-07-06_09h31.25.539,Colour_Asymmetry_Pilot,2022.1.3,Win32,60.09254252,62c50e9c1127f2cd403a315f,0,151,151,83,1,twofour,,,,,,,,,,,,,,,,,,,,,,,,,,,,,,,,,,,,,,,,,,,,,,,,,,,,,,,,,,,,,,,,,,,,,,,,,,,,,,,,,,,,,,,,,,,,,,,,,,,,,,,,,,,,,,,,,,,,,,,,,,,,,,,,,,,,,,,,,,,,,,,,,,,,,,,,,,,,,
,,,,,,60c8f96ddb749ea0361c1ae8,62c53a0a5a620c2b376daf8b,2022-07-06_09h31.25.539,Colour_Asymmetry_Pilot,2022.1.3,Win32,60.09254252,62c50e9c1127f2cd403a315f,0,152,152,102,1,fourtwo,,,,,,,,,,,,,,,,,,,,,,,,,,,,,,,,,,,,,,,,,,,,,,,,,,,,,,,,,,,,,,,,,,,,,,,,,,,,,,,,,,,,,,,,,,,,,,,,,,,,,,,,,,,,,,,,,,,,,,,,,,,,,,,,,,,,,,,,,,,,,,,,,,,,,,,,,,,,,
,,,,,,60c8f96ddb749ea0361c1ae8,62c53a0a5a620c2b376daf8b,2022-07-06_09h31.25.539,Colour_Asymmetry_Pilot,2022.1.3,Win32,60.09254252,62c50e9c1127f2cd403a315f,0,153,153,156,1,threeone,,,,,,,,,,,,,,,,,,,,,,,,,,,,,,,,,,,,,,,,,,,,,,,,,,,,,,,,,,,,,,,,,,,,,,,,,,,,,,,,,,,,,,,,,,,,,,,,,,,,,,,,,,,,,,,,,,,,,,,,,,,,,,,,,,,,,,,,,,,,,,,,,,,,,,,,,,,,,
,,,,,,60c8f96ddb749ea0361c1ae8,62c53a0a5a620c2b376daf8b,2022-07-06_09h31.25.539,Colour_Asymmetry_Pilot,2022.1.3,Win32,60.09254252,62c50e9c1127f2cd403a315f,0,154,154,80,1,onetwo,,,,,,,,,,,,,,,,,,,,,,,,,,,,,,,,,,,,,,,,,,,,,,,,,,,,,,,,,,,,,,,,,,,,,,,,,,,,,,,,,,,,,,,,,,,,,,,,,,,,,,,,,,,,,,,,,,,,,,,,,,,,,,,,,,,,,,,,,,,,,,,,,,,,,,,,,,,,,
,,,,,,60c8f96ddb749ea0361c1ae8,62c53a0a5a620c2b376daf8b,2022-07-06_09h31.25.539,Colour_Asymmetry_Pilot,2022.1.3,Win32,60.09254252,62c50e9c1127f2cd403a315f,0,155,155,66,1,twoone,,,,,,,,,,,,,,,,,,,,,,,,,,,,,,,,,,,,,,,,,,,,,,,,,,,,,,,,,,,,,,,,,,,,,,,,,,,,,,,,,,,,,,,,,,,,,,,,,,,,,,,,,,,,,,,,,,,,,,,,,,,,,,,,,,,,,,,,,,,,,,,,,,,,,,,,,,,,,
,,,,,,60c8f96ddb749ea0361c1ae8,62c53a0a5a620c2b376daf8b,2022-07-06_09h31.25.539,Colour_Asymmetry_Pilot,2022.1.3,Win32,60.09254252,62c50e9c1127f2cd403a315f,0,156,156,12,1,threeone,,,,,,,,,,,,,,,,,,,,,,,,,,,,,,,,,,,,,,,,,,,,,,,,,,,,,,,,,,,,,,,,,,,,,,,,,,,,,,,,,,,,,,,,,,,,,,,,,,,,,,,,,,,,,,,,,,,,,,,,,,,,,,,,,,,,,,,,,,,,,,,,,,,,,,,,,,,,,
,,,,,,60c8f96ddb749ea0361c1ae8,62c53a0a5a620c2b376daf8b,2022-07-06_09h31.25.539,Colour_Asymmetry_Pilot,2022.1.3,Win32,60.09254252,62c50e9c1127f2cd403a315f,0,157,157,69,1,threefour,,,,,,,,,,,,,,,,,,,,,,,,,,,,,,,,,,,,,,,,,,,,,,,,,,,,,,,,,,,,,,,,,,,,,,,,,,,,,,,,,,,,,,,,,,,,,,,,,,,,,,,,,,,,,,,,,,,,,,,,,,,,,,,,,,,,,,,,,,,,,,,,,,,,,,,,,,,,,
,,,,,,60c8f96ddb749ea0361c1ae8,62c53a0a5a620c2b376daf8b,2022-07-06_09h31.25.539,Colour_Asymmetry_Pilot,2022.1.3,Win32,60.09254252,62c50e9c1127f2cd403a315f,0,158,158,11,1,twofour,,,,,,,,,,,,,,,,,,,,,,,,,,,,,,,,,,,,,,,,,,,,,,,,,,,,,,,,,,,,,,,,,,,,,,,,,,,,,,,,,,,,,,,,,,,,,,,,,,,,,,,,,,,,,,,,,,,,,,,,,,,,,,,,,,,,,,,,,,,,,,,,,,,,,,,,,,,,,
,,,,,,60c8f96ddb749ea0361c1ae8,62c53a0a5a620c2b376daf8b,2022-07-06_09h31.25.539,Colour_Asymmetry_Pilot,2022.1.3,Win32,60.09254252,62c50e9c1127f2cd403a315f,0,159,159,140,1,threeone,,,,,,,,,,,,,,,,,,,,,,,,,,,,,,,,,,,,,,,,,,,,,,,,,,,,,,,,,,,,,,,,,,,,,,,,,,,,,,,,,,,,,,,,,,,,,,,,,,,,,,,,,,,,,,,,,,,,,,,,,,,,,,,,,,,,,,,,,,,,,,,,,,,,,,,,,,,,,
,,,,,,60c8f96ddb749ea0361c1ae8,62c53a0a5a620c2b376daf8b,2022-07-06_09h31.25.539,Colour_Asymmetry_Pilot,2022.1.3,Win32,60.09254252,62c50e9c1127f2cd403a315f,0,160,160,65,1,onethree,,,,,,,,,,,,,,,,,,,,,,,,,,,,,,,,,,,,,,,,,,,,,,,,,,,,,,,,,,,,,,,,,,,,,,,,,,,,,,,,,,,,,,,,,,,,,,,,,,,,,,,,,,,,,,,,,,,,,,,,,,,,,,,,,,,,,,,,,,,,,,,,,,,,,,,,,,,,,
,,,,,,60c8f96ddb749ea0361c1ae8,62c53a0a5a620c2b376daf8b,2022-07-06_09h31.25.539,Colour_Asymmetry_Pilot,2022.1.3,Win32,60.09254252,62c50e9c1127f2cd403a315f,0,161,161,34,1,twoone,,,,,,,,,,,,,,,,,,,,,,,,,,,,,,,,,,,,,,,,,,,,,,,,,,,,,,,,,,,,,,,,,,,,,,,,,,,,,,,,,,,,,,,,,,,,,,,,,,,,,,,,,,,,,,,,,,,,,,,,,,,,,,,,,,,,,,,,,,,,,,,,,,,,,,,,,,,,,
,,,,,,60c8f96ddb749ea0361c1ae8,62c53a0a5a620c2b376daf8b,2022-07-06_09h31.25.539,Colour_Asymmetry_Pilot,2022.1.3,Win32,60.09254252,62c50e9c1127f2cd403a315f,,,,,,,space,34.4368,space,26.5695,space,79.9119,space,12.3188,space,2.1344,space,7.3797,"[0.9372,0.9450000000000001,0.8980000000000001]",fourtwo,"[0.34099999999999997,0.5841999999999998,-0.9844]",-3,17.5454,-71,52,1,0,0,response7disk_5,2,5,1,0,0,rectangle_8,2,5,1,0,0,3,2,5,1,0,0,0,0,0,0,1,,,,,,,,,,,,,,,,,,,,,,,,,,,,,,,,,,,,,,,,,,,,,,,,,,,,,,,,,,,,,,,,,,,,,,,,,,,,,,,,,,,,,,,,,,,,,,,,,,,,,,,,,,,,,,,,
,,,,,,60c8f96ddb749ea0361c1ae8,62c53a0a5a620c2b376daf8b,2022-07-06_09h31.25.539,Colour_Asymmetry_Pilot,2022.1.3,Win32,60.09254252,62c50e9c1127f2cd403a315f,,,,,,,,,,,,,,,,,,,"[0.37240000000000006,0.4980000000000002,-0.2864]",onethree,"[-0.0040000000000000036,0.02739999999999987,-0.08239999999999992]",2,14.0783,81,-38,1,0,0,response3disk_5,1,6,1,0,0,rectangle_8,1,6,1,0,0,3,1,6,1,0,0,1,0,1,0,1,,,,,,,,,,,,,,,,,,,,,,,,,,,,,,,,,,,,,,,,,,,,,,,,,,,,,,,,,,,,,,,,,,,,,,,,,,,,,,,,,,,,,,,,,,,,,,,,,,,,,,,,,,,,,,,,
,,,,,,60c8f96ddb749ea0361c1ae8,62c53a0a5a620c2b376daf8b,2022-07-06_09h31.25.539,Colour_Asymmetry_Pilot,2022.1.3,Win32,60.09254252,62c50e9c1127f2cd403a315f,,,,,,,,,,,,,,,,,,,"[0.09799999999999986,-0.24719999999999998,0.15280000000000005]",fourthree,"[-0.01980000000000004,-0.5138,-0.38039999999999996]",1,4.8818,44,-82,1,0,0,response3disk_5,3,2,1,0,0,rectangle_8,3,2,1,0,0,3,3,2,1,0,0,2,0,2,0,1,,,,,,,,,,,,,,,,,,,,,,,,,,,,,,,,,,,,,,,,,,,,,,,,,,,,,,,,,,,,,,,,,,,,,,,,,,,,,,,,,,,,,,,,,,,,,,,,,,,,,,,,,,,,,,,,
,,,,,,60c8f96ddb749ea0361c1ae8,62c53a0a5a620c2b376daf8b,2022-07-06_09h31.25.539,Colour_Asymmetry_Pilot,2022.1.3,Win32,60.09254252,62c50e9c1127f2cd403a315f,,,,,,,,,,,,,,,,,,,"[0.9213999999999998,0.6391999999999998,-0.9922]",fourtwo,"[-0.4276,0.0038000000000000256,-0.3256]",-3,3.6822,-68,27,1,0,0,response7disk_5,1,-2,1,0,0,rectangle_8,1,-2,1,0,0,3,1,-2,1,0,0,3,0,3,0,1,,,,,,,,,,,,,,,,,,,,,,,,,,,,,,,,,,,,,,,,,,,,,,,,,,,,,,,,,,,,,,,,,,,,,,,,,,,,,,,,,,,,,,,,,,,,,,,,,,,,,,,,,,,,,,,,
,,,,,,60c8f96ddb749ea0361c1ae8,62c53a0a5a620c2b376daf8b,2022-07-06_09h31.25.539,Colour_Asymmetry_Pilot,2022.1.3,Win32,60.09254252,62c50e9c1127f2cd403a315f,,,,,,,,,,,,,,,,,,,"[0.9372,0.9450000000000001,0.8980000000000001]",fourtwo,"[0.8115999999999999,-0.0040000000000000036,-0.09819999999999995]",-4,3.0157,-33,91,1,0,0,response7disk_5,-14,-10,1,0,0,rectangle_8,100,31,1,0,0,3,4,-2,1,0,0,4,0,4,0,1,response1disk_7,6,rectangle_4,,,,,,,,,,,,,,,,,,,,,,,,,,,,,,,,,,,,,,,,,,,,,,,,,,,,,,,,,,,,,,,,,,,,,,,,,,,,,,,,,,,,,,,,,,,,,,,,,,,,,,,,,,,,,
,,,,,,60c8f96ddb749ea0361c1ae8,62c53a0a5a620c2b376daf8b,2022-07-06_09h31.25.539,Colour_Asymmetry_Pilot,2022.1.3,Win32,60.09254252,62c50e9c1127f2cd403a315f,,,,,,,,,,,,,,,,,,,"[-0.9766,-0.34920000000000007,0.2156]",twofour,"[-0.30200000000000005,0.14500000000000002,0.2784]",2,4.132,90,-31,1,0,0,response3disk_5,9,-1,1,0,0,rectangle_8,9,-1,1,0,0,3,9,-1,1,0,0,5,0,5,0,1,,,,,,,,,,,,,,,,,,,,,,,,,,,,,,,,,,,,,,,,,,,,,,,,,,,,,,,,,,,,,,,,,,,,,,,,,,,,,,,,,,,,,,,,,,,,,,,,,,,,,,,,,,,,,,,,
,,,,,,60c8f96ddb749ea0361c1ae8,62c53a0a5a620c2b376daf8b,2022-07-06_09h31.25.539,Colour_Asymmetry_Pilot,2022.1.3,Win32,60.09254252,62c50e9c1127f2cd403a315f,,,,,,,,,,,,,,,,,,,"[-0.011800000000000033,-0.906,-0.45100000000000007]",fourtwo,"[0.4196,0.4665999999999999,0.3568]",-4,1.3328,-38,76,1,0,0,response7disk_5,8,13,1,0,0,rectangle_8,8,13,1,0,0,3,8,13,1,0,0,6,0,6,0,1,,,,,,,,,,,,,,,,,,,,,,,,,,,,,,,,,,,,,,,,,,,,,,,,,,,,,,,,,,,,,,,,,,,,,,,,,,,,,,,,,,,,,,,,,,,,,,,,,,,,,,,,,,,,,,,,
,,,,,,60c8f96ddb749ea0361c1ae8,62c53a0a5a620c2b376daf8b,2022-07-06_09h31.25.539,Colour_Asymmetry_Pilot,2022.1.3,Win32,60.09254252,62c50e9c1127f2cd403a315f,,,,,,,,,,,,,,,,,,,,fourthree,,-3,1.8332,,,,,,,,,,,,,,,,,,,,,,,,,,,,,,,,space,7.639,"[-0.30200000000000005,0.14500000000000002,0.2784]","[1,0.12939999999999996,-1]",-69,27,1,0,0,response7disk,5,-4,1,0,0,rectangle,5,-4,1,0,0,,1,0.0015,0,5,-4,1,0,0,0,0,0,151,1,70,second,,,,,,,,,,,,,,,,,,,,,,,,,,,,,,,,,,,,,,,,,,,,,,,,,,,,,,,,,,,,,,,,,,,,,,,,
,,,,,,60c8f96ddb749ea0361c1ae8,62c53a0a5a620c2b376daf8b,2022-07-06_09h31.25.539,Colour_Asymmetry_Pilot,2022.1.3,Win32,60.09254252,62c50e9c1127f2cd403a315f,,,,,,,,,,,,,,,,,,,,threefour,,1,1.3995,,,,,,,,,,,,,,,,,,,,,,,,,,,,,,,,,,"[0.9763999999999999,0.30979999999999985,-0.6786]","[0.04299999999999993,0.16060000000000008,-0.6628000000000001]",41,-86,1,0,0,response3disk,5,9,1,0,0,rectangle,5,9,1,0,0,,2,0.0008,0,5,9,1,0,0,0,1,1,60,1,60,first,,,,,,,,,,,,,,,,,,,,,,,,,,,,,,,,,,,,,,,,,,,,,,,,,,,,,,,,,,,,,,,,,,,,,,,,
,,,,,,60c8f96ddb749ea0361c1ae8,62c53a0a5a620c2b376daf8b,2022-07-06_09h31.25.539,Colour_Asymmetry_Pilot,2022.1.3,Win32,60.09254252,62c50e9c1127f2cd403a315f,,,,,,,,,,,,,,,,,,,,threefour,,-3,3.1321,,,,,,,,,,,,,,,,,,,,,,,,,,,,,,,,,,"[0.7802,-0.23140000000000005,-0.20799999999999996]","[-0.9766,-0.34920000000000007,0.2156]",-69,54,1,0,0,response7disk,-3,-4,1,0,0,rectangle,-3,-4,1,0,0,,2,0.0001,0,-3,-4,1,0,0,0,2,2,77,1,77,first,,,,,,,,,,,,,,,,,,,,,,,,,,,,,,,,,,,,,,,,,,,,,,,,,,,,,,,,,,,,,,,,,,,,,,,,
,,,,,,60c8f96ddb749ea0361c1ae8,62c53a0a5a620c2b376daf8b,2022-07-06_09h31.25.539,Colour_Asymmetry_Pilot,2022.1.3,Win32,60.09254252,62c50e9c1127f2cd403a315f,,,,,,,,,,,,,,,,,,,,onetwo,,-4,0.7497,,,,,,,,,,,,,,,,,,,,,,,,,,,,,,,,,,"[0.5528,0.7409999999999999,-0.71]","[0.23120000000000007,-0.7726,-0.34120000000000006]",-41,82,1,0,0,response7disk,-12,-10,1,0,0,rectangle,-60,-32,1,0,0,-2,2,8.2476,1,1,-4,1,0,0,0,3,3,76,1,76,first,response5disk_3,rectangle,,,,,,,,,,,,,,,,,,,,,,,,,,,,,,,,,,,,,,,,,,,,,,,,,,,,,,,,,,,,,,,,,,,,,,
,,,,,,60c8f96ddb749ea0361c1ae8,62c53a0a5a620c2b376daf8b,2022-07-06_09h31.25.539,Colour_Asymmetry_Pilot,2022.1.3,Win32,60.09254252,62c50e9c1127f2cd403a315f,,,,,,,,,,,,,,,,,,,,fourtwo,,-4,0.7664,,,,,,,,,,,,,,,,,,,,,,,,,,,,,,,,,,"[0.9372,0.9450000000000001,0.8980000000000001]","[0.30180000000000007,-0.7884,-0.9844]",-26,78,1,0,0,response7disk,5,-8,1,0,0,rectangle,5,-8,1,0,0,-2,2,0.0001,0,5,-8,1,0,0,0,4,4,100,1,19,second,,,,,,,,,,,,,,,,,,,,,,,,,,,,,,,,,,,,,,,,,,,,,,,,,,,,,,,,,,,,,,,,,,,,,,,,
,,,,,,60c8f96ddb749ea0361c1ae8,62c53a0a5a620c2b376daf8b,2022-07-06_09h31.25.539,Colour_Asymmetry_Pilot,2022.1.3,Win32,60.09254252,62c50e9c1127f2cd403a315f,,,,,,,,,,,,,,,,,,,,fourthree,,3,1.3163,,,,,,,,,,,,,,,,,,,,,,,,,,,,,,,,,,"[-0.4746,-0.0354000000000001,0.5449999999999999]","[-0.6942,-0.7648,-0.12959999999999994]",85,27,1,0,0,response1disk,-5,-6,1,0,0,rectangle,-5,-6,1,0,0,-2,2,0.0002,0,-5,-6,1,0,0,0,5,5,20,1,20,first,,,,,,,,,,,,,,,,,,,,,,,,,,,,,,,,,,,,,,,,,,,,,,,,,,,,,,,,,,,,,,,,,,,,,,,,
,,,,,,60c8f96ddb749ea0361c1ae8,62c53a0a5a620c2b376daf8b,2022-07-06_09h31.25.539,Colour_Asymmetry_Pilot,2022.1.3,Win32,60.09254252,62c50e9c1127f2cd403a315f,,,,,,,,,,,,,,,,,,,,threefour,,-1,3.5322,,,,,,,,,,,,,,,,,,,,,,,,,,,,,,,,,,"[0.12939999999999996,-0.2864,0.3253999999999999]","[-0.9766,-0.6472,0.07440000000000002]",-34,-80,1,0,0,response5disk,4,0,1,0,0,rectangle,4,0,1,0,0,-2,2,0.0002,0,4,0,1,0,0,0,6,6,6,1,6,first,,,,,,,,,,,,,,,,,,,,,,,,,,,,,,,,,,,,,,,,,,,,,,,,,,,,,,,,,,,,,,,,,,,,,,,,
,,,,,,60c8f96ddb749ea0361c1ae8,62c53a0a5a620c2b376daf8b,2022-07-06_09h31.25.539,Colour_Asymmetry_Pilot,2022.1.3,Win32,60.09254252,62c50e9c1127f2cd403a315f,,,,,,,,,,,,,,,,,,,,twoone,,-3,2.0991,,,,,,,,,,,,,,,,,,,,,,,,,,,,,,,,,,"[0.9842,0.7409999999999999,-0.6628000000000001]","[-0.20799999999999996,-0.655,-0.01980000000000004]",-80,30,1,0,0,response7disk,18,5,1,0,0,rectangle,18,5,1,0,0,-2,3,0.0007,0,18,5,1,0,0,0,7,7,155,1,74,second,,,,,,,,,,,,,,,,,,,,,,,,,,,,,,,,,,,,,,,,,,,,,,,,,,,,,,,,,,,,,,,,,,,,,,,,
,,,,,,60c8f96ddb749ea0361c1ae8,62c53a0a5a620c2b376daf8b,2022-07-06_09h31.25.539,Colour_Asymmetry_Pilot,2022.1.3,Win32,60.09254252,62c50e9c1127f2cd403a315f,,,,,,,,,,,,,,,,,,,,fourtwo,,-3,2.2326,,,,,,,,,,,,,,,,,,,,,,,,,,,,,,,,,,"[0.6547999999999998,-0.043199999999999905,-0.011800000000000033]","[-0.4902000000000001,0.2704,-0.45899999999999996]",-41,29,1,0,0,response7disk,4,8,1,0,0,rectangle,4,8,1,0,0,-2,3,0.0001,0,4,8,1,0,0,0,8,8,110,1,29,second,,,,,,,,,,,,,,,,,,,,,,,,,,,,,,,,,,,,,,,,,,,,,,,,,,,,,,,,,,,,,,,,,,,,,,,,
,,,,,,60c8f96ddb749ea0361c1ae8,62c53a0a5a620c2b376daf8b,2022-07-06_09h31.25.539,Colour_Asymmetry_Pilot,2022.1.3,Win32,60.09254252,62c50e9c1127f2cd403a315f,,,,,,,,,,,,,,,,,,,,twoone,,-4,1.0831,,,,,,,,,,,,,,,,,,,,,,,,,,,,,,,,,,"[0.0351999999999999,0.41159999999999997,0.0038000000000000256]","[-0.9844,-0.9688,-0.9922]",-51,71,1,0,0,response7disk,4,-1,1,0,0,rectangle,4,-1,1,0,0,-2,2,0.0009,0,4,-1,1,0,0,0,9,9,14,1,14,first,,,,,,,,,,,,,,,,,,,,,,,,,,,,,,,,,,,,,,,,,,,,,,,,,,,,,,,,,,,,,,,,,,,,,,,,
,,,,,,60c8f96ddb749ea0361c1ae8,62c53a0a5a620c2b376daf8b,2022-07-06_09h31.25.539,Colour_Asymmetry_Pilot,2022.1.3,Win32,60.09254252,62c50e9c1127f2cd403a315f,,,,,,,,,,,,,,,,,,,,fourtwo,,3,0.933,,,,,,,,,,,,,,,,,,,,,,,,,,,,,,,,,,"[0.9686000000000001,0.3802000000000001,0.19999999999999996]","[0.8115999999999999,-0.0040000000000000036,-0.09819999999999995]",72,38,1,0,0,response1disk,-11,5,1,0,0,rectangle,-11,5,1,0,0,-2,3,0.0007,0,-11,5,1,0,0,0,10,10,41,1,41,first,,,,,,,,,,,,,,,,,,,,,,,,,,,,,,,,,,,,,,,,,,,,,,,,,,,,,,,,,,,,,,,,,,,,,,,,
,,,,,,60c8f96ddb749ea0361c1ae8,62c53a0a5a620c2b376daf8b,2022-07-06_09h31.25.539,Colour_Asymmetry_Pilot,2022.1.3,Win32,60.09254252,62c50e9c1127f2cd403a315f,,,,,,,,,,,,,,,,,,,,fourthree,,1,1.6162,,,,,,,,,,,,,,,,,,,,,,,,,,,,,,,,,,"[-0.5452,-0.608,0.2470000000000001]","[0.12939999999999996,-0.2864,0.3253999999999999]",39,-84,1,0,0,response3disk,-18,3,1,0,0,rectangle,-18,3,1,0,0,-2,3,0.0001,0,-18,3,1,0,0,0,11,11,93,1,12,second,,,,,,,,,,,,,,,,,,,,,,,,,,,,,,,,,,,,,,,,,,,,,,,,,,,,,,,,,,,,,,,,,,,,,,,,
,,,,,,60c8f96ddb749ea0361c1ae8,62c53a0a5a620c2b376daf8b,2022-07-06_09h31.25.539,Colour_Asymmetry_Pilot,2022.1.3,Win32,60.09254252,62c50e9c1127f2cd403a315f,,,,,,,,,,,,,,,,,,,,onethree,,-2,1.0831,,,,,,,,,,,,,,,,,,,,,,,,,,,,,,,,,,"[0.9763999999999999,0.8588,-0.05900000000000005]","[-0.4276,0.0038000000000000256,-0.3256]",-61,-32,1,0,0,response5disk,-11,6,1,0,0,rectangle,-11,6,1,0,0,-2,1,0.0008,0,-11,6,1,0,0,0,12,12,96,1,15,second,,,,,,,,,,,,,,,,,,,,,,,,,,,,,,,,,,,,,,,,,,,,,,,,,,,,,,,,,,,,,,,,,,,,,,,,
,,,,,,60c8f96ddb749ea0361c1ae8,62c53a0a5a620c2b376daf8b,2022-07-06_09h31.25.539,Colour_Asymmetry_Pilot,2022.1.3,Win32,60.09254252,62c50e9c1127f2cd403a315f,,,,,,,,,,,,,,,,,,,,fourtwo,,1,2.7823,,,,,,,,,,,,,,,,,,,,,,,,,,,,,,,,,,"[-0.30200000000000005,0.14500000000000002,0.2784]","[-0.8982,-0.37259999999999993,0.2784]",44,-78,1,0,0,response3disk,-3,4,1,0,0,rectangle,-3,4,1,0,0,-2,2,0.0008,0,-3,4,1,0,0,0,13,13,0,1,0,first,,,,,,,,,,,,,,,,,,,,,,,,,,,,,,,,,,,,,,,,,,,,,,,,,,,,,,,,,,,,,,,,,,,,,,,,
,,,,,,60c8f96ddb749ea0361c1ae8,62c53a0a5a620c2b376daf8b,2022-07-06_09h31.25.539,Colour_Asymmetry_Pilot,2022.1.3,Win32,60.09254252,62c50e9c1127f2cd403a315f,,,,,,,,,,,,,,,,,,,,twofour,,4,1.2664,,,,,,,,,,,,,,,,,,,,,,,,,,,,,,,,,,"[1,0.12939999999999996,-1]","[1,0.12939999999999996,-1]",62,75,1,0,0,response1disk,-15,-10,1,0,0,rectangle,-15,-10,1,0,0,-2,3,0.0009,0,-15,-10,1,0,0,0,14,14,98,1,17,second,,,,,,,,,,,,,,,,,,,,,,,,,,,,,,,,,,,,,,,,,,,,,,,,,,,,,,,,,,,,,,,,,,,,,,,,
,,,,,,60c8f96ddb749ea0361c1ae8,62c53a0a5a620c2b376daf8b,2022-07-06_09h31.25.539,Colour_Asymmetry_Pilot,2022.1.3,Win32,60.09254252,62c50e9c1127f2cd403a315f,,,,,,,,,,,,,,,,,,,,onetwo,,1,0.8497,,,,,,,,,,,,,,,,,,,,,,,,,,,,,,,,,,"[0.18419999999999992,-0.4276,-0.404]","[0.7646000000000002,0.07440000000000002,0.2704]",47,-81,1,0,0,response3disk,9,2,1,0,0,rectangle,9,2,1,0,0,-2,1,0.001,0,9,2,1,0,0,0,15,15,65,1,65,first,,,,,,,,,,,,,,,,,,,,,,,,,,,,,,,,,,,,,,,,,,,,,,,,,,,,,,,,,,,,,,,,,,,,,,,,
,,,,,,60c8f96ddb749ea0361c1ae8,62c53a0a5a620c2b376daf8b,2022-07-06_09h31.25.539,Colour_Asymmetry_Pilot,2022.1.3,Win32,60.09254252,62c50e9c1127f2cd403a315f,,,,,,,,,,,,,,,,,,,,threefour,,-2,1.8159,,,,,,,,,,,,,,,,,,,,,,,,,,,,,,,,,,"[-0.5688,-0.08239999999999992,-0.1844]","[0.8274000000000001,-0.5844,-0.9452]",-71,-36,1,0,0,response5disk,5,5,1,0,0,rectangle,5,5,1,0,0,-2,3,0.0008,0,5,5,1,0,0,0,16,16,10,1,10,first,,,,,,,,,,,,,,,,,,,,,,,,,,,,,,,,,,,,,,,,,,,,,,,,,,,,,,,,,,,,,,,,,,,,,,,,
,,,,,,60c8f96ddb749ea0361c1ae8,62c53a0a5a620c2b376daf8b,2022-07-06_09h31.25.539,Colour_Asymmetry_Pilot,2022.1.3,Win32,60.09254252,62c50e9c1127f2cd403a315f,,,,,,,,,,,,,,,,,,,,fourthree,,-3,0.6833,,,,,,,,,,,,,,,,,,,,,,,,,,,,,,,,,,"[0.8274000000000001,-0.5844,-0.9452]","[-0.8198,-0.5138,-0.7492000000000001]",-72,30,1,0,0,response7disk,0,5,1,0,0,rectangle,0,5,1,0,0,-2,3,0.0001,0,0,5,1,0,0,0,17,17,27,1,27,first,,,,,,,,,,,,,,,,,,,,,,,,,,,,,,,,,,,,,,,,,,,,,,,,,,,,,,,,,,,,,,,,,,,,,,,,
