trials.thisRepN,trials.thisTrialN,trials.thisN,trials.thisIndex,trials.ran,Colourcodes,participant,session,date,expName,psychopyVersion,OS,frameRate,study_id,trials_4.thisRepN,trials_4.thisTrialN,trials_4.thisN,trials_4.thisIndex,trials_4.ran,StimulusPos,key_resp.keys,key_resp.rt,key_resp_2.keys,key_resp_2.rt,key_resp_15.keys,key_resp_15.rt,key_resp_17.keys,key_resp_17.rt,key_resp_9.keys,key_resp_9.rt,key_resp_10.keys,key_resp_10.rt,Circle1_col,Ecc,Circle2_col,similarity,response_time,mouse_5.x,mouse_5.y,mouse_5.leftButton,mouse_5.midButton,mouse_5.rightButton,mouse_5.clicked_name,mouse_10.x,mouse_10.y,mouse_10.leftButton,mouse_10.midButton,mouse_10.rightButton,mouse_10.clicked_name,mouse_7.x,mouse_7.y,mouse_7.leftButton,mouse_7.midButton,mouse_7.rightButton,catchnumberprac,mouse_6.x,mouse_6.y,mouse_6.leftButton,mouse_6.midButton,mouse_6.rightButton,duringprac.thisRepN,duringprac.thisTrialN,duringprac.thisN,duringprac.thisIndex,duringprac.ran,mouse_7.clicked_name,catchprac,mouse_6.clicked_name,key_resp_22.keys,key_resp_22.rt,Circle1_colour,Circle2_colour,mouse.x,mouse.y,mouse.leftButton,mouse.midButton,mouse.rightButton,mouse.clicked_name,mouse_2.x,mouse_2.y,mouse_2.leftButton,mouse_2.midButton,mouse_2.rightButton,mouse_2.clicked_name,mouse_3.x,mouse_3.y,mouse_3.leftButton,mouse_3.midButton,mouse_3.rightButton,catchresponse,catchnumber,response_time_catch,Catch,mouse_11.x,mouse_11.y,mouse_11.leftButton,mouse_11.midButton,mouse_11.rightButton,trials_2.thisRepN,trials_2.thisTrialN,trials_2.thisN,trials_2.thisIndex,trials_2.ran,Colourpair,Temporder,mouse_3.clicked_name,mouse_11.clicked_name,trials_3.thisRepN,trials_3.thisTrialN,trials_3.thisN,trials_3.thisIndex,trials_3.ran,key_resp_instr_Ishi.keys,key_resp_instr_Ishi.rt,Ishi_trial_keyresp.keys,Ishi_textbox.text,Ishi_mouse.x,Ishi_mouse.y,Ishi_mouse.leftButton,Ishi_mouse.midButton,Ishi_mouse.rightButton,Ishi_mouse.clicked_name,Ishi_loop.thisRepN,Ishi_loop.thisTrialN,Ishi_loop.thisN,Ishi_loop.thisIndex,Ishi_loop.ran,imageaddress,textbox.text,mouse_4.x,mouse_4.y,mouse_4.leftButton,mouse_4.midButton,mouse_4.rightButton,mouse_4.clicked_name,textbox_2.text,mouse_8.x,mouse_8.y,mouse_8.leftButton,mouse_8.midButton,mouse_8.rightButton,mouse_8.clicked_name,textbox_3.text,mouse_9.x,mouse_9.y,mouse_9.leftButton,mouse_9.midButton,mouse_9.rightButton,mouse_9.clicked_name,textbox_4.text,mouse_12.x,mouse_12.y,mouse_12.leftButton,mouse_12.midButton,mouse_12.rightButton,mouse_12.clicked_name,textbox_5.text,mouse_13.x,mouse_13.y,mouse_13.leftButton,mouse_13.midButton,mouse_13.rightButton,mouse_13.clicked_name,textbox_6.text,mouse_14.x,mouse_14.y,mouse_14.leftButton,mouse_14.midButton,mouse_14.rightButton,mouse_14.clicked_name,textbox_7.text,mouse_15.x,mouse_15.y,mouse_15.leftButton,mouse_15.midButton,mouse_15.rightButton,mouse_15.clicked_name
0,0,0,64,1,,6033fdc84080ea000c633420,62c53a4e92a902606b3a3162,2022-07-06_09h31.41.432,Colour_Asymmetry_Pilot,2022.1.3,Win32,59.80145916,62c50e9c1127f2cd403a315f,,,,,,,,,,,,,,,,,,,,,,,,,,,,,,,,,,,,,,,,,,,,,,,,,,,,,,,,,,,,,,,,,,,,,,,,,,,,,,,,,,,,,,,,,,,,,,,,,,,,,,,,,,,,,,,,,,,,,,,,,,,,,,,,,,,,,,,,,,,,,,,,,,,,,,,,,,,,,,,,,,,
0,1,1,32,1,,6033fdc84080ea000c633420,62c53a4e92a902606b3a3162,2022-07-06_09h31.41.432,Colour_Asymmetry_Pilot,2022.1.3,Win32,59.80145916,62c50e9c1127f2cd403a315f,,,,,,,,,,,,,,,,,,,,,,,,,,,,,,,,,,,,,,,,,,,,,,,,,,,,,,,,,,,,,,,,,,,,,,,,,,,,,,,,,,,,,,,,,,,,,,,,,,,,,,,,,,,,,,,,,,,,,,,,,,,,,,,,,,,,,,,,,,,,,,,,,,,,,,,,,,,,,,,,,,,
0,2,2,68,1,,6033fdc84080ea000c633420,62c53a4e92a902606b3a3162,2022-07-06_09h31.41.432,Colour_Asymmetry_Pilot,2022.1.3,Win32,59.80145916,62c50e9c1127f2cd403a315f,,,,,,,,,,,,,,,,,,,,,,,,,,,,,,,,,,,,,,,,,,,,,,,,,,,,,,,,,,,,,,,,,,,,,,,,,,,,,,,,,,,,,,,,,,,,,,,,,,,,,,,,,,,,,,,,,,,,,,,,,,,,,,,,,,,,,,,,,,,,,,,,,,,,,,,,,,,,,,,,,,,
0,3,3,49,1,,6033fdc84080ea000c633420,62c53a4e92a902606b3a3162,2022-07-06_09h31.41.432,Colour_Asymmetry_Pilot,2022.1.3,Win32,59.80145916,62c50e9c1127f2cd403a315f,,,,,,,,,,,,,,,,,,,,,,,,,,,,,,,,,,,,,,,,,,,,,,,,,,,,,,,,,,,,,,,,,,,,,,,,,,,,,,,,,,,,,,,,,,,,,,,,,,,,,,,,,,,,,,,,,,,,,,,,,,,,,,,,,,,,,,,,,,,,,,,,,,,,,,,,,,,,,,,,,,,
0,4,4,42,1,,6033fdc84080ea000c633420,62c53a4e92a902606b3a3162,2022-07-06_09h31.41.432,Colour_Asymmetry_Pilot,2022.1.3,Win32,59.80145916,62c50e9c1127f2cd403a315f,,,,,,,,,,,,,,,,,,,,,,,,,,,,,,,,,,,,,,,,,,,,,,,,,,,,,,,,,,,,,,,,,,,,,,,,,,,,,,,,,,,,,,,,,,,,,,,,,,,,,,,,,,,,,,,,,,,,,,,,,,,,,,,,,,,,,,,,,,,,,,,,,,,,,,,,,,,,,,,,,,,
0,5,5,60,1,,6033fdc84080ea000c633420,62c53a4e92a902606b3a3162,2022-07-06_09h31.41.432,Colour_Asymmetry_Pilot,2022.1.3,Win32,59.80145916,62c50e9c1127f2cd403a315f,,,,,,,,,,,,,,,,,,,,,,,,,,,,,,,,,,,,,,,,,,,,,,,,,,,,,,,,,,,,,,,,,,,,,,,,,,,,,,,,,,,,,,,,,,,,,,,,,,,,,,,,,,,,,,,,,,,,,,,,,,,,,,,,,,,,,,,,,,,,,,,,,,,,,,,,,,,,,,,,,,,
0,6,6,53,1,,6033fdc84080ea000c633420,62c53a4e92a902606b3a3162,2022-07-06_09h31.41.432,Colour_Asymmetry_Pilot,2022.1.3,Win32,59.80145916,62c50e9c1127f2cd403a315f,,,,,,,,,,,,,,,,,,,,,,,,,,,,,,,,,,,,,,,,,,,,,,,,,,,,,,,,,,,,,,,,,,,,,,,,,,,,,,,,,,,,,,,,,,,,,,,,,,,,,,,,,,,,,,,,,,,,,,,,,,,,,,,,,,,,,,,,,,,,,,,,,,,,,,,,,,,,,,,,,,,
0,7,7,23,1,,6033fdc84080ea000c633420,62c53a4e92a902606b3a3162,2022-07-06_09h31.41.432,Colour_Asymmetry_Pilot,2022.1.3,Win32,59.80145916,62c50e9c1127f2cd403a315f,,,,,,,,,,,,,,,,,,,,,,,,,,,,,,,,,,,,,,,,,,,,,,,,,,,,,,,,,,,,,,,,,,,,,,,,,,,,,,,,,,,,,,,,,,,,,,,,,,,,,,,,,,,,,,,,,,,,,,,,,,,,,,,,,,,,,,,,,,,,,,,,,,,,,,,,,,,,,,,,,,,
0,8,8,38,1,,6033fdc84080ea000c633420,62c53a4e92a902606b3a3162,2022-07-06_09h31.41.432,Colour_Asymmetry_Pilot,2022.1.3,Win32,59.80145916,62c50e9c1127f2cd403a315f,,,,,,,,,,,,,,,,,,,,,,,,,,,,,,,,,,,,,,,,,,,,,,,,,,,,,,,,,,,,,,,,,,,,,,,,,,,,,,,,,,,,,,,,,,,,,,,,,,,,,,,,,,,,,,,,,,,,,,,,,,,,,,,,,,,,,,,,,,,,,,,,,,,,,,,,,,,,,,,,,,,
0,9,9,8,1,,6033fdc84080ea000c633420,62c53a4e92a902606b3a3162,2022-07-06_09h31.41.432,Colour_Asymmetry_Pilot,2022.1.3,Win32,59.80145916,62c50e9c1127f2cd403a315f,,,,,,,,,,,,,,,,,,,,,,,,,,,,,,,,,,,,,,,,,,,,,,,,,,,,,,,,,,,,,,,,,,,,,,,,,,,,,,,,,,,,,,,,,,,,,,,,,,,,,,,,,,,,,,,,,,,,,,,,,,,,,,,,,,,,,,,,,,,,,,,,,,,,,,,,,,,,,,,,,,,
0,10,10,76,1,,6033fdc84080ea000c633420,62c53a4e92a902606b3a3162,2022-07-06_09h31.41.432,Colour_Asymmetry_Pilot,2022.1.3,Win32,59.80145916,62c50e9c1127f2cd403a315f,,,,,,,,,,,,,,,,,,,,,,,,,,,,,,,,,,,,,,,,,,,,,,,,,,,,,,,,,,,,,,,,,,,,,,,,,,,,,,,,,,,,,,,,,,,,,,,,,,,,,,,,,,,,,,,,,,,,,,,,,,,,,,,,,,,,,,,,,,,,,,,,,,,,,,,,,,,,,,,,,,,
0,11,11,70,1,,6033fdc84080ea000c633420,62c53a4e92a902606b3a3162,2022-07-06_09h31.41.432,Colour_Asymmetry_Pilot,2022.1.3,Win32,59.80145916,62c50e9c1127f2cd403a315f,,,,,,,,,,,,,,,,,,,,,,,,,,,,,,,,,,,,,,,,,,,,,,,,,,,,,,,,,,,,,,,,,,,,,,,,,,,,,,,,,,,,,,,,,,,,,,,,,,,,,,,,,,,,,,,,,,,,,,,,,,,,,,,,,,,,,,,,,,,,,,,,,,,,,,,,,,,,,,,,,,,
0,12,12,57,1,,6033fdc84080ea000c633420,62c53a4e92a902606b3a3162,2022-07-06_09h31.41.432,Colour_Asymmetry_Pilot,2022.1.3,Win32,59.80145916,62c50e9c1127f2cd403a315f,,,,,,,,,,,,,,,,,,,,,,,,,,,,,,,,,,,,,,,,,,,,,,,,,,,,,,,,,,,,,,,,,,,,,,,,,,,,,,,,,,,,,,,,,,,,,,,,,,,,,,,,,,,,,,,,,,,,,,,,,,,,,,,,,,,,,,,,,,,,,,,,,,,,,,,,,,,,,,,,,,,
0,13,13,66,1,,6033fdc84080ea000c633420,62c53a4e92a902606b3a3162,2022-07-06_09h31.41.432,Colour_Asymmetry_Pilot,2022.1.3,Win32,59.80145916,62c50e9c1127f2cd403a315f,,,,,,,,,,,,,,,,,,,,,,,,,,,,,,,,,,,,,,,,,,,,,,,,,,,,,,,,,,,,,,,,,,,,,,,,,,,,,,,,,,,,,,,,,,,,,,,,,,,,,,,,,,,,,,,,,,,,,,,,,,,,,,,,,,,,,,,,,,,,,,,,,,,,,,,,,,,,,,,,,,,
0,14,14,43,1,,6033fdc84080ea000c633420,62c53a4e92a902606b3a3162,2022-07-06_09h31.41.432,Colour_Asymmetry_Pilot,2022.1.3,Win32,59.80145916,62c50e9c1127f2cd403a315f,,,,,,,,,,,,,,,,,,,,,,,,,,,,,,,,,,,,,,,,,,,,,,,,,,,,,,,,,,,,,,,,,,,,,,,,,,,,,,,,,,,,,,,,,,,,,,,,,,,,,,,,,,,,,,,,,,,,,,,,,,,,,,,,,,,,,,,,,,,,,,,,,,,,,,,,,,,,,,,,,,,
0,15,15,25,1,,6033fdc84080ea000c633420,62c53a4e92a902606b3a3162,2022-07-06_09h31.41.432,Colour_Asymmetry_Pilot,2022.1.3,Win32,59.80145916,62c50e9c1127f2cd403a315f,,,,,,,,,,,,,,,,,,,,,,,,,,,,,,,,,,,,,,,,,,,,,,,,,,,,,,,,,,,,,,,,,,,,,,,,,,,,,,,,,,,,,,,,,,,,,,,,,,,,,,,,,,,,,,,,,,,,,,,,,,,,,,,,,,,,,,,,,,,,,,,,,,,,,,,,,,,,,,,,,,,
0,16,16,15,1,,6033fdc84080ea000c633420,62c53a4e92a902606b3a3162,2022-07-06_09h31.41.432,Colour_Asymmetry_Pilot,2022.1.3,Win32,59.80145916,62c50e9c1127f2cd403a315f,,,,,,,,,,,,,,,,,,,,,,,,,,,,,,,,,,,,,,,,,,,,,,,,,,,,,,,,,,,,,,,,,,,,,,,,,,,,,,,,,,,,,,,,,,,,,,,,,,,,,,,,,,,,,,,,,,,,,,,,,,,,,,,,,,,,,,,,,,,,,,,,,,,,,,,,,,,,,,,,,,,
0,17,17,27,1,,6033fdc84080ea000c633420,62c53a4e92a902606b3a3162,2022-07-06_09h31.41.432,Colour_Asymmetry_Pilot,2022.1.3,Win32,59.80145916,62c50e9c1127f2cd403a315f,,,,,,,,,,,,,,,,,,,,,,,,,,,,,,,,,,,,,,,,,,,,,,,,,,,,,,,,,,,,,,,,,,,,,,,,,,,,,,,,,,,,,,,,,,,,,,,,,,,,,,,,,,,,,,,,,,,,,,,,,,,,,,,,,,,,,,,,,,,,,,,,,,,,,,,,,,,,,,,,,,,
0,18,18,90,1,,6033fdc84080ea000c633420,62c53a4e92a902606b3a3162,2022-07-06_09h31.41.432,Colour_Asymmetry_Pilot,2022.1.3,Win32,59.80145916,62c50e9c1127f2cd403a315f,,,,,,,,,,,,,,,,,,,,,,,,,,,,,,,,,,,,,,,,,,,,,,,,,,,,,,,,,,,,,,,,,,,,,,,,,,,,,,,,,,,,,,,,,,,,,,,,,,,,,,,,,,,,,,,,,,,,,,,,,,,,,,,,,,,,,,,,,,,,,,,,,,,,,,,,,,,,,,,,,,,
0,19,19,33,1,,6033fdc84080ea000c633420,62c53a4e92a902606b3a3162,2022-07-06_09h31.41.432,Colour_Asymmetry_Pilot,2022.1.3,Win32,59.80145916,62c50e9c1127f2cd403a315f,,,,,,,,,,,,,,,,,,,,,,,,,,,,,,,,,,,,,,,,,,,,,,,,,,,,,,,,,,,,,,,,,,,,,,,,,,,,,,,,,,,,,,,,,,,,,,,,,,,,,,,,,,,,,,,,,,,,,,,,,,,,,,,,,,,,,,,,,,,,,,,,,,,,,,,,,,,,,,,,,,,
0,20,20,81,1,,6033fdc84080ea000c633420,62c53a4e92a902606b3a3162,2022-07-06_09h31.41.432,Colour_Asymmetry_Pilot,2022.1.3,Win32,59.80145916,62c50e9c1127f2cd403a315f,,,,,,,,,,,,,,,,,,,,,,,,,,,,,,,,,,,,,,,,,,,,,,,,,,,,,,,,,,,,,,,,,,,,,,,,,,,,,,,,,,,,,,,,,,,,,,,,,,,,,,,,,,,,,,,,,,,,,,,,,,,,,,,,,,,,,,,,,,,,,,,,,,,,,,,,,,,,,,,,,,,
0,21,21,36,1,,6033fdc84080ea000c633420,62c53a4e92a902606b3a3162,2022-07-06_09h31.41.432,Colour_Asymmetry_Pilot,2022.1.3,Win32,59.80145916,62c50e9c1127f2cd403a315f,,,,,,,,,,,,,,,,,,,,,,,,,,,,,,,,,,,,,,,,,,,,,,,,,,,,,,,,,,,,,,,,,,,,,,,,,,,,,,,,,,,,,,,,,,,,,,,,,,,,,,,,,,,,,,,,,,,,,,,,,,,,,,,,,,,,,,,,,,,,,,,,,,,,,,,,,,,,,,,,,,,
0,22,22,39,1,,6033fdc84080ea000c633420,62c53a4e92a902606b3a3162,2022-07-06_09h31.41.432,Colour_Asymmetry_Pilot,2022.1.3,Win32,59.80145916,62c50e9c1127f2cd403a315f,,,,,,,,,,,,,,,,,,,,,,,,,,,,,,,,,,,,,,,,,,,,,,,,,,,,,,,,,,,,,,,,,,,,,,,,,,,,,,,,,,,,,,,,,,,,,,,,,,,,,,,,,,,,,,,,,,,,,,,,,,,,,,,,,,,,,,,,,,,,,,,,,,,,,,,,,,,,,,,,,,,
0,23,23,10,1,,6033fdc84080ea000c633420,62c53a4e92a902606b3a3162,2022-07-06_09h31.41.432,Colour_Asymmetry_Pilot,2022.1.3,Win32,59.80145916,62c50e9c1127f2cd403a315f,,,,,,,,,,,,,,,,,,,,,,,,,,,,,,,,,,,,,,,,,,,,,,,,,,,,,,,,,,,,,,,,,,,,,,,,,,,,,,,,,,,,,,,,,,,,,,,,,,,,,,,,,,,,,,,,,,,,,,,,,,,,,,,,,,,,,,,,,,,,,,,,,,,,,,,,,,,,,,,,,,,
0,24,24,52,1,,6033fdc84080ea000c633420,62c53a4e92a902606b3a3162,2022-07-06_09h31.41.432,Colour_Asymmetry_Pilot,2022.1.3,Win32,59.80145916,62c50e9c1127f2cd403a315f,,,,,,,,,,,,,,,,,,,,,,,,,,,,,,,,,,,,,,,,,,,,,,,,,,,,,,,,,,,,,,,,,,,,,,,,,,,,,,,,,,,,,,,,,,,,,,,,,,,,,,,,,,,,,,,,,,,,,,,,,,,,,,,,,,,,,,,,,,,,,,,,,,,,,,,,,,,,,,,,,,,
0,25,25,5,1,,6033fdc84080ea000c633420,62c53a4e92a902606b3a3162,2022-07-06_09h31.41.432,Colour_Asymmetry_Pilot,2022.1.3,Win32,59.80145916,62c50e9c1127f2cd403a315f,,,,,,,,,,,,,,,,,,,,,,,,,,,,,,,,,,,,,,,,,,,,,,,,,,,,,,,,,,,,,,,,,,,,,,,,,,,,,,,,,,,,,,,,,,,,,,,,,,,,,,,,,,,,,,,,,,,,,,,,,,,,,,,,,,,,,,,,,,,,,,,,,,,,,,,,,,,,,,,,,,,
0,26,26,88,1,,6033fdc84080ea000c633420,62c53a4e92a902606b3a3162,2022-07-06_09h31.41.432,Colour_Asymmetry_Pilot,2022.1.3,Win32,59.80145916,62c50e9c1127f2cd403a315f,,,,,,,,,,,,,,,,,,,,,,,,,,,,,,,,,,,,,,,,,,,,,,,,,,,,,,,,,,,,,,,,,,,,,,,,,,,,,,,,,,,,,,,,,,,,,,,,,,,,,,,,,,,,,,,,,,,,,,,,,,,,,,,,,,,,,,,,,,,,,,,,,,,,,,,,,,,,,,,,,,,
0,27,27,18,1,,6033fdc84080ea000c633420,62c53a4e92a902606b3a3162,2022-07-06_09h31.41.432,Colour_Asymmetry_Pilot,2022.1.3,Win32,59.80145916,62c50e9c1127f2cd403a315f,,,,,,,,,,,,,,,,,,,,,,,,,,,,,,,,,,,,,,,,,,,,,,,,,,,,,,,,,,,,,,,,,,,,,,,,,,,,,,,,,,,,,,,,,,,,,,,,,,,,,,,,,,,,,,,,,,,,,,,,,,,,,,,,,,,,,,,,,,,,,,,,,,,,,,,,,,,,,,,,,,,
0,28,28,92,1,,6033fdc84080ea000c633420,62c53a4e92a902606b3a3162,2022-07-06_09h31.41.432,Colour_Asymmetry_Pilot,2022.1.3,Win32,59.80145916,62c50e9c1127f2cd403a315f,,,,,,,,,,,,,,,,,,,,,,,,,,,,,,,,,,,,,,,,,,,,,,,,,,,,,,,,,,,,,,,,,,,,,,,,,,,,,,,,,,,,,,,,,,,,,,,,,,,,,,,,,,,,,,,,,,,,,,,,,,,,,,,,,,,,,,,,,,,,,,,,,,,,,,,,,,,,,,,,,,,
0,29,29,51,1,,6033fdc84080ea000c633420,62c53a4e92a902606b3a3162,2022-07-06_09h31.41.432,Colour_Asymmetry_Pilot,2022.1.3,Win32,59.80145916,62c50e9c1127f2cd403a315f,,,,,,,,,,,,,,,,,,,,,,,,,,,,,,,,,,,,,,,,,,,,,,,,,,,,,,,,,,,,,,,,,,,,,,,,,,,,,,,,,,,,,,,,,,,,,,,,,,,,,,,,,,,,,,,,,,,,,,,,,,,,,,,,,,,,,,,,,,,,,,,,,,,,,,,,,,,,,,,,,,,
0,30,30,86,1,,6033fdc84080ea000c633420,62c53a4e92a902606b3a3162,2022-07-06_09h31.41.432,Colour_Asymmetry_Pilot,2022.1.3,Win32,59.80145916,62c50e9c1127f2cd403a315f,,,,,,,,,,,,,,,,,,,,,,,,,,,,,,,,,,,,,,,,,,,,,,,,,,,,,,,,,,,,,,,,,,,,,,,,,,,,,,,,,,,,,,,,,,,,,,,,,,,,,,,,,,,,,,,,,,,,,,,,,,,,,,,,,,,,,,,,,,,,,,,,,,,,,,,,,,,,,,,,,,,
0,31,31,19,1,,6033fdc84080ea000c633420,62c53a4e92a902606b3a3162,2022-07-06_09h31.41.432,Colour_Asymmetry_Pilot,2022.1.3,Win32,59.80145916,62c50e9c1127f2cd403a315f,,,,,,,,,,,,,,,,,,,,,,,,,,,,,,,,,,,,,,,,,,,,,,,,,,,,,,,,,,,,,,,,,,,,,,,,,,,,,,,,,,,,,,,,,,,,,,,,,,,,,,,,,,,,,,,,,,,,,,,,,,,,,,,,,,,,,,,,,,,,,,,,,,,,,,,,,,,,,,,,,,,
0,32,32,29,1,,6033fdc84080ea000c633420,62c53a4e92a902606b3a3162,2022-07-06_09h31.41.432,Colour_Asymmetry_Pilot,2022.1.3,Win32,59.80145916,62c50e9c1127f2cd403a315f,,,,,,,,,,,,,,,,,,,,,,,,,,,,,,,,,,,,,,,,,,,,,,,,,,,,,,,,,,,,,,,,,,,,,,,,,,,,,,,,,,,,,,,,,,,,,,,,,,,,,,,,,,,,,,,,,,,,,,,,,,,,,,,,,,,,,,,,,,,,,,,,,,,,,,,,,,,,,,,,,,,
0,33,33,37,1,,6033fdc84080ea000c633420,62c53a4e92a902606b3a3162,2022-07-06_09h31.41.432,Colour_Asymmetry_Pilot,2022.1.3,Win32,59.80145916,62c50e9c1127f2cd403a315f,,,,,,,,,,,,,,,,,,,,,,,,,,,,,,,,,,,,,,,,,,,,,,,,,,,,,,,,,,,,,,,,,,,,,,,,,,,,,,,,,,,,,,,,,,,,,,,,,,,,,,,,,,,,,,,,,,,,,,,,,,,,,,,,,,,,,,,,,,,,,,,,,,,,,,,,,,,,,,,,,,,
0,34,34,3,1,,6033fdc84080ea000c633420,62c53a4e92a902606b3a3162,2022-07-06_09h31.41.432,Colour_Asymmetry_Pilot,2022.1.3,Win32,59.80145916,62c50e9c1127f2cd403a315f,,,,,,,,,,,,,,,,,,,,,,,,,,,,,,,,,,,,,,,,,,,,,,,,,,,,,,,,,,,,,,,,,,,,,,,,,,,,,,,,,,,,,,,,,,,,,,,,,,,,,,,,,,,,,,,,,,,,,,,,,,,,,,,,,,,,,,,,,,,,,,,,,,,,,,,,,,,,,,,,,,,
0,35,35,12,1,,6033fdc84080ea000c633420,62c53a4e92a902606b3a3162,2022-07-06_09h31.41.432,Colour_Asymmetry_Pilot,2022.1.3,Win32,59.80145916,62c50e9c1127f2cd403a315f,,,,,,,,,,,,,,,,,,,,,,,,,,,,,,,,,,,,,,,,,,,,,,,,,,,,,,,,,,,,,,,,,,,,,,,,,,,,,,,,,,,,,,,,,,,,,,,,,,,,,,,,,,,,,,,,,,,,,,,,,,,,,,,,,,,,,,,,,,,,,,,,,,,,,,,,,,,,,,,,,,,
0,36,36,87,1,,6033fdc84080ea000c633420,62c53a4e92a902606b3a3162,2022-07-06_09h31.41.432,Colour_Asymmetry_Pilot,2022.1.3,Win32,59.80145916,62c50e9c1127f2cd403a315f,,,,,,,,,,,,,,,,,,,,,,,,,,,,,,,,,,,,,,,,,,,,,,,,,,,,,,,,,,,,,,,,,,,,,,,,,,,,,,,,,,,,,,,,,,,,,,,,,,,,,,,,,,,,,,,,,,,,,,,,,,,,,,,,,,,,,,,,,,,,,,,,,,,,,,,,,,,,,,,,,,,
0,37,37,55,1,,6033fdc84080ea000c633420,62c53a4e92a902606b3a3162,2022-07-06_09h31.41.432,Colour_Asymmetry_Pilot,2022.1.3,Win32,59.80145916,62c50e9c1127f2cd403a315f,,,,,,,,,,,,,,,,,,,,,,,,,,,,,,,,,,,,,,,,,,,,,,,,,,,,,,,,,,,,,,,,,,,,,,,,,,,,,,,,,,,,,,,,,,,,,,,,,,,,,,,,,,,,,,,,,,,,,,,,,,,,,,,,,,,,,,,,,,,,,,,,,,,,,,,,,,,,,,,,,,,
0,38,38,79,1,,6033fdc84080ea000c633420,62c53a4e92a902606b3a3162,2022-07-06_09h31.41.432,Colour_Asymmetry_Pilot,2022.1.3,Win32,59.80145916,62c50e9c1127f2cd403a315f,,,,,,,,,,,,,,,,,,,,,,,,,,,,,,,,,,,,,,,,,,,,,,,,,,,,,,,,,,,,,,,,,,,,,,,,,,,,,,,,,,,,,,,,,,,,,,,,,,,,,,,,,,,,,,,,,,,,,,,,,,,,,,,,,,,,,,,,,,,,,,,,,,,,,,,,,,,,,,,,,,,
0,39,39,11,1,,6033fdc84080ea000c633420,62c53a4e92a902606b3a3162,2022-07-06_09h31.41.432,Colour_Asymmetry_Pilot,2022.1.3,Win32,59.80145916,62c50e9c1127f2cd403a315f,,,,,,,,,,,,,,,,,,,,,,,,,,,,,,,,,,,,,,,,,,,,,,,,,,,,,,,,,,,,,,,,,,,,,,,,,,,,,,,,,,,,,,,,,,,,,,,,,,,,,,,,,,,,,,,,,,,,,,,,,,,,,,,,,,,,,,,,,,,,,,,,,,,,,,,,,,,,,,,,,,,
0,40,40,17,1,,6033fdc84080ea000c633420,62c53a4e92a902606b3a3162,2022-07-06_09h31.41.432,Colour_Asymmetry_Pilot,2022.1.3,Win32,59.80145916,62c50e9c1127f2cd403a315f,,,,,,,,,,,,,,,,,,,,,,,,,,,,,,,,,,,,,,,,,,,,,,,,,,,,,,,,,,,,,,,,,,,,,,,,,,,,,,,,,,,,,,,,,,,,,,,,,,,,,,,,,,,,,,,,,,,,,,,,,,,,,,,,,,,,,,,,,,,,,,,,,,,,,,,,,,,,,,,,,,,
0,41,41,31,1,,6033fdc84080ea000c633420,62c53a4e92a902606b3a3162,2022-07-06_09h31.41.432,Colour_Asymmetry_Pilot,2022.1.3,Win32,59.80145916,62c50e9c1127f2cd403a315f,,,,,,,,,,,,,,,,,,,,,,,,,,,,,,,,,,,,,,,,,,,,,,,,,,,,,,,,,,,,,,,,,,,,,,,,,,,,,,,,,,,,,,,,,,,,,,,,,,,,,,,,,,,,,,,,,,,,,,,,,,,,,,,,,,,,,,,,,,,,,,,,,,,,,,,,,,,,,,,,,,,
0,42,42,4,1,,6033fdc84080ea000c633420,62c53a4e92a902606b3a3162,2022-07-06_09h31.41.432,Colour_Asymmetry_Pilot,2022.1.3,Win32,59.80145916,62c50e9c1127f2cd403a315f,,,,,,,,,,,,,,,,,,,,,,,,,,,,,,,,,,,,,,,,,,,,,,,,,,,,,,,,,,,,,,,,,,,,,,,,,,,,,,,,,,,,,,,,,,,,,,,,,,,,,,,,,,,,,,,,,,,,,,,,,,,,,,,,,,,,,,,,,,,,,,,,,,,,,,,,,,,,,,,,,,,
0,43,43,91,1,,6033fdc84080ea000c633420,62c53a4e92a902606b3a3162,2022-07-06_09h31.41.432,Colour_Asymmetry_Pilot,2022.1.3,Win32,59.80145916,62c50e9c1127f2cd403a315f,,,,,,,,,,,,,,,,,,,,,,,,,,,,,,,,,,,,,,,,,,,,,,,,,,,,,,,,,,,,,,,,,,,,,,,,,,,,,,,,,,,,,,,,,,,,,,,,,,,,,,,,,,,,,,,,,,,,,,,,,,,,,,,,,,,,,,,,,,,,,,,,,,,,,,,,,,,,,,,,,,,
0,44,44,14,1,,6033fdc84080ea000c633420,62c53a4e92a902606b3a3162,2022-07-06_09h31.41.432,Colour_Asymmetry_Pilot,2022.1.3,Win32,59.80145916,62c50e9c1127f2cd403a315f,,,,,,,,,,,,,,,,,,,,,,,,,,,,,,,,,,,,,,,,,,,,,,,,,,,,,,,,,,,,,,,,,,,,,,,,,,,,,,,,,,,,,,,,,,,,,,,,,,,,,,,,,,,,,,,,,,,,,,,,,,,,,,,,,,,,,,,,,,,,,,,,,,,,,,,,,,,,,,,,,,,
0,45,45,46,1,,6033fdc84080ea000c633420,62c53a4e92a902606b3a3162,2022-07-06_09h31.41.432,Colour_Asymmetry_Pilot,2022.1.3,Win32,59.80145916,62c50e9c1127f2cd403a315f,,,,,,,,,,,,,,,,,,,,,,,,,,,,,,,,,,,,,,,,,,,,,,,,,,,,,,,,,,,,,,,,,,,,,,,,,,,,,,,,,,,,,,,,,,,,,,,,,,,,,,,,,,,,,,,,,,,,,,,,,,,,,,,,,,,,,,,,,,,,,,,,,,,,,,,,,,,,,,,,,,,
0,46,46,1,1,,6033fdc84080ea000c633420,62c53a4e92a902606b3a3162,2022-07-06_09h31.41.432,Colour_Asymmetry_Pilot,2022.1.3,Win32,59.80145916,62c50e9c1127f2cd403a315f,,,,,,,,,,,,,,,,,,,,,,,,,,,,,,,,,,,,,,,,,,,,,,,,,,,,,,,,,,,,,,,,,,,,,,,,,,,,,,,,,,,,,,,,,,,,,,,,,,,,,,,,,,,,,,,,,,,,,,,,,,,,,,,,,,,,,,,,,,,,,,,,,,,,,,,,,,,,,,,,,,,
0,47,47,89,1,,6033fdc84080ea000c633420,62c53a4e92a902606b3a3162,2022-07-06_09h31.41.432,Colour_Asymmetry_Pilot,2022.1.3,Win32,59.80145916,62c50e9c1127f2cd403a315f,,,,,,,,,,,,,,,,,,,,,,,,,,,,,,,,,,,,,,,,,,,,,,,,,,,,,,,,,,,,,,,,,,,,,,,,,,,,,,,,,,,,,,,,,,,,,,,,,,,,,,,,,,,,,,,,,,,,,,,,,,,,,,,,,,,,,,,,,,,,,,,,,,,,,,,,,,,,,,,,,,,
0,48,48,13,1,,6033fdc84080ea000c633420,62c53a4e92a902606b3a3162,2022-07-06_09h31.41.432,Colour_Asymmetry_Pilot,2022.1.3,Win32,59.80145916,62c50e9c1127f2cd403a315f,,,,,,,,,,,,,,,,,,,,,,,,,,,,,,,,,,,,,,,,,,,,,,,,,,,,,,,,,,,,,,,,,,,,,,,,,,,,,,,,,,,,,,,,,,,,,,,,,,,,,,,,,,,,,,,,,,,,,,,,,,,,,,,,,,,,,,,,,,,,,,,,,,,,,,,,,,,,,,,,,,,
0,49,49,2,1,,6033fdc84080ea000c633420,62c53a4e92a902606b3a3162,2022-07-06_09h31.41.432,Colour_Asymmetry_Pilot,2022.1.3,Win32,59.80145916,62c50e9c1127f2cd403a315f,,,,,,,,,,,,,,,,,,,,,,,,,,,,,,,,,,,,,,,,,,,,,,,,,,,,,,,,,,,,,,,,,,,,,,,,,,,,,,,,,,,,,,,,,,,,,,,,,,,,,,,,,,,,,,,,,,,,,,,,,,,,,,,,,,,,,,,,,,,,,,,,,,,,,,,,,,,,,,,,,,,
0,50,50,28,1,,6033fdc84080ea000c633420,62c53a4e92a902606b3a3162,2022-07-06_09h31.41.432,Colour_Asymmetry_Pilot,2022.1.3,Win32,59.80145916,62c50e9c1127f2cd403a315f,,,,,,,,,,,,,,,,,,,,,,,,,,,,,,,,,,,,,,,,,,,,,,,,,,,,,,,,,,,,,,,,,,,,,,,,,,,,,,,,,,,,,,,,,,,,,,,,,,,,,,,,,,,,,,,,,,,,,,,,,,,,,,,,,,,,,,,,,,,,,,,,,,,,,,,,,,,,,,,,,,,
0,51,51,69,1,,6033fdc84080ea000c633420,62c53a4e92a902606b3a3162,2022-07-06_09h31.41.432,Colour_Asymmetry_Pilot,2022.1.3,Win32,59.80145916,62c50e9c1127f2cd403a315f,,,,,,,,,,,,,,,,,,,,,,,,,,,,,,,,,,,,,,,,,,,,,,,,,,,,,,,,,,,,,,,,,,,,,,,,,,,,,,,,,,,,,,,,,,,,,,,,,,,,,,,,,,,,,,,,,,,,,,,,,,,,,,,,,,,,,,,,,,,,,,,,,,,,,,,,,,,,,,,,,,,
0,52,52,22,1,,6033fdc84080ea000c633420,62c53a4e92a902606b3a3162,2022-07-06_09h31.41.432,Colour_Asymmetry_Pilot,2022.1.3,Win32,59.80145916,62c50e9c1127f2cd403a315f,,,,,,,,,,,,,,,,,,,,,,,,,,,,,,,,,,,,,,,,,,,,,,,,,,,,,,,,,,,,,,,,,,,,,,,,,,,,,,,,,,,,,,,,,,,,,,,,,,,,,,,,,,,,,,,,,,,,,,,,,,,,,,,,,,,,,,,,,,,,,,,,,,,,,,,,,,,,,,,,,,,
0,53,53,41,1,,6033fdc84080ea000c633420,62c53a4e92a902606b3a3162,2022-07-06_09h31.41.432,Colour_Asymmetry_Pilot,2022.1.3,Win32,59.80145916,62c50e9c1127f2cd403a315f,,,,,,,,,,,,,,,,,,,,,,,,,,,,,,,,,,,,,,,,,,,,,,,,,,,,,,,,,,,,,,,,,,,,,,,,,,,,,,,,,,,,,,,,,,,,,,,,,,,,,,,,,,,,,,,,,,,,,,,,,,,,,,,,,,,,,,,,,,,,,,,,,,,,,,,,,,,,,,,,,,,
0,54,54,58,1,,6033fdc84080ea000c633420,62c53a4e92a902606b3a3162,2022-07-06_09h31.41.432,Colour_Asymmetry_Pilot,2022.1.3,Win32,59.80145916,62c50e9c1127f2cd403a315f,,,,,,,,,,,,,,,,,,,,,,,,,,,,,,,,,,,,,,,,,,,,,,,,,,,,,,,,,,,,,,,,,,,,,,,,,,,,,,,,,,,,,,,,,,,,,,,,,,,,,,,,,,,,,,,,,,,,,,,,,,,,,,,,,,,,,,,,,,,,,,,,,,,,,,,,,,,,,,,,,,,
0,55,55,54,1,,6033fdc84080ea000c633420,62c53a4e92a902606b3a3162,2022-07-06_09h31.41.432,Colour_Asymmetry_Pilot,2022.1.3,Win32,59.80145916,62c50e9c1127f2cd403a315f,,,,,,,,,,,,,,,,,,,,,,,,,,,,,,,,,,,,,,,,,,,,,,,,,,,,,,,,,,,,,,,,,,,,,,,,,,,,,,,,,,,,,,,,,,,,,,,,,,,,,,,,,,,,,,,,,,,,,,,,,,,,,,,,,,,,,,,,,,,,,,,,,,,,,,,,,,,,,,,,,,,
0,56,56,71,1,,6033fdc84080ea000c633420,62c53a4e92a902606b3a3162,2022-07-06_09h31.41.432,Colour_Asymmetry_Pilot,2022.1.3,Win32,59.80145916,62c50e9c1127f2cd403a315f,,,,,,,,,,,,,,,,,,,,,,,,,,,,,,,,,,,,,,,,,,,,,,,,,,,,,,,,,,,,,,,,,,,,,,,,,,,,,,,,,,,,,,,,,,,,,,,,,,,,,,,,,,,,,,,,,,,,,,,,,,,,,,,,,,,,,,,,,,,,,,,,,,,,,,,,,,,,,,,,,,,
0,57,57,61,1,,6033fdc84080ea000c633420,62c53a4e92a902606b3a3162,2022-07-06_09h31.41.432,Colour_Asymmetry_Pilot,2022.1.3,Win32,59.80145916,62c50e9c1127f2cd403a315f,,,,,,,,,,,,,,,,,,,,,,,,,,,,,,,,,,,,,,,,,,,,,,,,,,,,,,,,,,,,,,,,,,,,,,,,,,,,,,,,,,,,,,,,,,,,,,,,,,,,,,,,,,,,,,,,,,,,,,,,,,,,,,,,,,,,,,,,,,,,,,,,,,,,,,,,,,,,,,,,,,,
0,58,58,84,1,,6033fdc84080ea000c633420,62c53a4e92a902606b3a3162,2022-07-06_09h31.41.432,Colour_Asymmetry_Pilot,2022.1.3,Win32,59.80145916,62c50e9c1127f2cd403a315f,,,,,,,,,,,,,,,,,,,,,,,,,,,,,,,,,,,,,,,,,,,,,,,,,,,,,,,,,,,,,,,,,,,,,,,,,,,,,,,,,,,,,,,,,,,,,,,,,,,,,,,,,,,,,,,,,,,,,,,,,,,,,,,,,,,,,,,,,,,,,,,,,,,,,,,,,,,,,,,,,,,
0,59,59,75,1,,6033fdc84080ea000c633420,62c53a4e92a902606b3a3162,2022-07-06_09h31.41.432,Colour_Asymmetry_Pilot,2022.1.3,Win32,59.80145916,62c50e9c1127f2cd403a315f,,,,,,,,,,,,,,,,,,,,,,,,,,,,,,,,,,,,,,,,,,,,,,,,,,,,,,,,,,,,,,,,,,,,,,,,,,,,,,,,,,,,,,,,,,,,,,,,,,,,,,,,,,,,,,,,,,,,,,,,,,,,,,,,,,,,,,,,,,,,,,,,,,,,,,,,,,,,,,,,,,,
0,60,60,83,1,,6033fdc84080ea000c633420,62c53a4e92a902606b3a3162,2022-07-06_09h31.41.432,Colour_Asymmetry_Pilot,2022.1.3,Win32,59.80145916,62c50e9c1127f2cd403a315f,,,,,,,,,,,,,,,,,,,,,,,,,,,,,,,,,,,,,,,,,,,,,,,,,,,,,,,,,,,,,,,,,,,,,,,,,,,,,,,,,,,,,,,,,,,,,,,,,,,,,,,,,,,,,,,,,,,,,,,,,,,,,,,,,,,,,,,,,,,,,,,,,,,,,,,,,,,,,,,,,,,
0,61,61,45,1,,6033fdc84080ea000c633420,62c53a4e92a902606b3a3162,2022-07-06_09h31.41.432,Colour_Asymmetry_Pilot,2022.1.3,Win32,59.80145916,62c50e9c1127f2cd403a315f,,,,,,,,,,,,,,,,,,,,,,,,,,,,,,,,,,,,,,,,,,,,,,,,,,,,,,,,,,,,,,,,,,,,,,,,,,,,,,,,,,,,,,,,,,,,,,,,,,,,,,,,,,,,,,,,,,,,,,,,,,,,,,,,,,,,,,,,,,,,,,,,,,,,,,,,,,,,,,,,,,,
0,62,62,34,1,,6033fdc84080ea000c633420,62c53a4e92a902606b3a3162,2022-07-06_09h31.41.432,Colour_Asymmetry_Pilot,2022.1.3,Win32,59.80145916,62c50e9c1127f2cd403a315f,,,,,,,,,,,,,,,,,,,,,,,,,,,,,,,,,,,,,,,,,,,,,,,,,,,,,,,,,,,,,,,,,,,,,,,,,,,,,,,,,,,,,,,,,,,,,,,,,,,,,,,,,,,,,,,,,,,,,,,,,,,,,,,,,,,,,,,,,,,,,,,,,,,,,,,,,,,,,,,,,,,
0,63,63,80,1,,6033fdc84080ea000c633420,62c53a4e92a902606b3a3162,2022-07-06_09h31.41.432,Colour_Asymmetry_Pilot,2022.1.3,Win32,59.80145916,62c50e9c1127f2cd403a315f,,,,,,,,,,,,,,,,,,,,,,,,,,,,,,,,,,,,,,,,,,,,,,,,,,,,,,,,,,,,,,,,,,,,,,,,,,,,,,,,,,,,,,,,,,,,,,,,,,,,,,,,,,,,,,,,,,,,,,,,,,,,,,,,,,,,,,,,,,,,,,,,,,,,,,,,,,,,,,,,,,,
0,64,64,85,1,,6033fdc84080ea000c633420,62c53a4e92a902606b3a3162,2022-07-06_09h31.41.432,Colour_Asymmetry_Pilot,2022.1.3,Win32,59.80145916,62c50e9c1127f2cd403a315f,,,,,,,,,,,,,,,,,,,,,,,,,,,,,,,,,,,,,,,,,,,,,,,,,,,,,,,,,,,,,,,,,,,,,,,,,,,,,,,,,,,,,,,,,,,,,,,,,,,,,,,,,,,,,,,,,,,,,,,,,,,,,,,,,,,,,,,,,,,,,,,,,,,,,,,,,,,,,,,,,,,
0,65,65,44,1,,6033fdc84080ea000c633420,62c53a4e92a902606b3a3162,2022-07-06_09h31.41.432,Colour_Asymmetry_Pilot,2022.1.3,Win32,59.80145916,62c50e9c1127f2cd403a315f,,,,,,,,,,,,,,,,,,,,,,,,,,,,,,,,,,,,,,,,,,,,,,,,,,,,,,,,,,,,,,,,,,,,,,,,,,,,,,,,,,,,,,,,,,,,,,,,,,,,,,,,,,,,,,,,,,,,,,,,,,,,,,,,,,,,,,,,,,,,,,,,,,,,,,,,,,,,,,,,,,,
0,66,66,6,1,,6033fdc84080ea000c633420,62c53a4e92a902606b3a3162,2022-07-06_09h31.41.432,Colour_Asymmetry_Pilot,2022.1.3,Win32,59.80145916,62c50e9c1127f2cd403a315f,,,,,,,,,,,,,,,,,,,,,,,,,,,,,,,,,,,,,,,,,,,,,,,,,,,,,,,,,,,,,,,,,,,,,,,,,,,,,,,,,,,,,,,,,,,,,,,,,,,,,,,,,,,,,,,,,,,,,,,,,,,,,,,,,,,,,,,,,,,,,,,,,,,,,,,,,,,,,,,,,,,
0,67,67,62,1,,6033fdc84080ea000c633420,62c53a4e92a902606b3a3162,2022-07-06_09h31.41.432,Colour_Asymmetry_Pilot,2022.1.3,Win32,59.80145916,62c50e9c1127f2cd403a315f,,,,,,,,,,,,,,,,,,,,,,,,,,,,,,,,,,,,,,,,,,,,,,,,,,,,,,,,,,,,,,,,,,,,,,,,,,,,,,,,,,,,,,,,,,,,,,,,,,,,,,,,,,,,,,,,,,,,,,,,,,,,,,,,,,,,,,,,,,,,,,,,,,,,,,,,,,,,,,,,,,,
0,68,68,56,1,,6033fdc84080ea000c633420,62c53a4e92a902606b3a3162,2022-07-06_09h31.41.432,Colour_Asymmetry_Pilot,2022.1.3,Win32,59.80145916,62c50e9c1127f2cd403a315f,,,,,,,,,,,,,,,,,,,,,,,,,,,,,,,,,,,,,,,,,,,,,,,,,,,,,,,,,,,,,,,,,,,,,,,,,,,,,,,,,,,,,,,,,,,,,,,,,,,,,,,,,,,,,,,,,,,,,,,,,,,,,,,,,,,,,,,,,,,,,,,,,,,,,,,,,,,,,,,,,,,
0,69,69,77,1,,6033fdc84080ea000c633420,62c53a4e92a902606b3a3162,2022-07-06_09h31.41.432,Colour_Asymmetry_Pilot,2022.1.3,Win32,59.80145916,62c50e9c1127f2cd403a315f,,,,,,,,,,,,,,,,,,,,,,,,,,,,,,,,,,,,,,,,,,,,,,,,,,,,,,,,,,,,,,,,,,,,,,,,,,,,,,,,,,,,,,,,,,,,,,,,,,,,,,,,,,,,,,,,,,,,,,,,,,,,,,,,,,,,,,,,,,,,,,,,,,,,,,,,,,,,,,,,,,,
0,70,70,30,1,,6033fdc84080ea000c633420,62c53a4e92a902606b3a3162,2022-07-06_09h31.41.432,Colour_Asymmetry_Pilot,2022.1.3,Win32,59.80145916,62c50e9c1127f2cd403a315f,,,,,,,,,,,,,,,,,,,,,,,,,,,,,,,,,,,,,,,,,,,,,,,,,,,,,,,,,,,,,,,,,,,,,,,,,,,,,,,,,,,,,,,,,,,,,,,,,,,,,,,,,,,,,,,,,,,,,,,,,,,,,,,,,,,,,,,,,,,,,,,,,,,,,,,,,,,,,,,,,,,
0,71,71,21,1,,6033fdc84080ea000c633420,62c53a4e92a902606b3a3162,2022-07-06_09h31.41.432,Colour_Asymmetry_Pilot,2022.1.3,Win32,59.80145916,62c50e9c1127f2cd403a315f,,,,,,,,,,,,,,,,,,,,,,,,,,,,,,,,,,,,,,,,,,,,,,,,,,,,,,,,,,,,,,,,,,,,,,,,,,,,,,,,,,,,,,,,,,,,,,,,,,,,,,,,,,,,,,,,,,,,,,,,,,,,,,,,,,,,,,,,,,,,,,,,,,,,,,,,,,,,,,,,,,,
0,72,72,16,1,,6033fdc84080ea000c633420,62c53a4e92a902606b3a3162,2022-07-06_09h31.41.432,Colour_Asymmetry_Pilot,2022.1.3,Win32,59.80145916,62c50e9c1127f2cd403a315f,,,,,,,,,,,,,,,,,,,,,,,,,,,,,,,,,,,,,,,,,,,,,,,,,,,,,,,,,,,,,,,,,,,,,,,,,,,,,,,,,,,,,,,,,,,,,,,,,,,,,,,,,,,,,,,,,,,,,,,,,,,,,,,,,,,,,,,,,,,,,,,,,,,,,,,,,,,,,,,,,,,
0,73,73,7,1,,6033fdc84080ea000c633420,62c53a4e92a902606b3a3162,2022-07-06_09h31.41.432,Colour_Asymmetry_Pilot,2022.1.3,Win32,59.80145916,62c50e9c1127f2cd403a315f,,,,,,,,,,,,,,,,,,,,,,,,,,,,,,,,,,,,,,,,,,,,,,,,,,,,,,,,,,,,,,,,,,,,,,,,,,,,,,,,,,,,,,,,,,,,,,,,,,,,,,,,,,,,,,,,,,,,,,,,,,,,,,,,,,,,,,,,,,,,,,,,,,,,,,,,,,,,,,,,,,,
0,74,74,63,1,,6033fdc84080ea000c633420,62c53a4e92a902606b3a3162,2022-07-06_09h31.41.432,Colour_Asymmetry_Pilot,2022.1.3,Win32,59.80145916,62c50e9c1127f2cd403a315f,,,,,,,,,,,,,,,,,,,,,,,,,,,,,,,,,,,,,,,,,,,,,,,,,,,,,,,,,,,,,,,,,,,,,,,,,,,,,,,,,,,,,,,,,,,,,,,,,,,,,,,,,,,,,,,,,,,,,,,,,,,,,,,,,,,,,,,,,,,,,,,,,,,,,,,,,,,,,,,,,,,
0,75,75,24,1,,6033fdc84080ea000c633420,62c53a4e92a902606b3a3162,2022-07-06_09h31.41.432,Colour_Asymmetry_Pilot,2022.1.3,Win32,59.80145916,62c50e9c1127f2cd403a315f,,,,,,,,,,,,,,,,,,,,,,,,,,,,,,,,,,,,,,,,,,,,,,,,,,,,,,,,,,,,,,,,,,,,,,,,,,,,,,,,,,,,,,,,,,,,,,,,,,,,,,,,,,,,,,,,,,,,,,,,,,,,,,,,,,,,,,,,,,,,,,,,,,,,,,,,,,,,,,,,,,,
0,76,76,0,1,,6033fdc84080ea000c633420,62c53a4e92a902606b3a3162,2022-07-06_09h31.41.432,Colour_Asymmetry_Pilot,2022.1.3,Win32,59.80145916,62c50e9c1127f2cd403a315f,,,,,,,,,,,,,,,,,,,,,,,,,,,,,,,,,,,,,,,,,,,,,,,,,,,,,,,,,,,,,,,,,,,,,,,,,,,,,,,,,,,,,,,,,,,,,,,,,,,,,,,,,,,,,,,,,,,,,,,,,,,,,,,,,,,,,,,,,,,,,,,,,,,,,,,,,,,,,,,,,,,
0,77,77,50,1,,6033fdc84080ea000c633420,62c53a4e92a902606b3a3162,2022-07-06_09h31.41.432,Colour_Asymmetry_Pilot,2022.1.3,Win32,59.80145916,62c50e9c1127f2cd403a315f,,,,,,,,,,,,,,,,,,,,,,,,,,,,,,,,,,,,,,,,,,,,,,,,,,,,,,,,,,,,,,,,,,,,,,,,,,,,,,,,,,,,,,,,,,,,,,,,,,,,,,,,,,,,,,,,,,,,,,,,,,,,,,,,,,,,,,,,,,,,,,,,,,,,,,,,,,,,,,,,,,,
0,78,78,72,1,,6033fdc84080ea000c633420,62c53a4e92a902606b3a3162,2022-07-06_09h31.41.432,Colour_Asymmetry_Pilot,2022.1.3,Win32,59.80145916,62c50e9c1127f2cd403a315f,,,,,,,,,,,,,,,,,,,,,,,,,,,,,,,,,,,,,,,,,,,,,,,,,,,,,,,,,,,,,,,,,,,,,,,,,,,,,,,,,,,,,,,,,,,,,,,,,,,,,,,,,,,,,,,,,,,,,,,,,,,,,,,,,,,,,,,,,,,,,,,,,,,,,,,,,,,,,,,,,,,
0,79,79,82,1,,6033fdc84080ea000c633420,62c53a4e92a902606b3a3162,2022-07-06_09h31.41.432,Colour_Asymmetry_Pilot,2022.1.3,Win32,59.80145916,62c50e9c1127f2cd403a315f,,,,,,,,,,,,,,,,,,,,,,,,,,,,,,,,,,,,,,,,,,,,,,,,,,,,,,,,,,,,,,,,,,,,,,,,,,,,,,,,,,,,,,,,,,,,,,,,,,,,,,,,,,,,,,,,,,,,,,,,,,,,,,,,,,,,,,,,,,,,,,,,,,,,,,,,,,,,,,,,,,,
0,80,80,78,1,,6033fdc84080ea000c633420,62c53a4e92a902606b3a3162,2022-07-06_09h31.41.432,Colour_Asymmetry_Pilot,2022.1.3,Win32,59.80145916,62c50e9c1127f2cd403a315f,,,,,,,,,,,,,,,,,,,,,,,,,,,,,,,,,,,,,,,,,,,,,,,,,,,,,,,,,,,,,,,,,,,,,,,,,,,,,,,,,,,,,,,,,,,,,,,,,,,,,,,,,,,,,,,,,,,,,,,,,,,,,,,,,,,,,,,,,,,,,,,,,,,,,,,,,,,,,,,,,,,
0,81,81,35,1,,6033fdc84080ea000c633420,62c53a4e92a902606b3a3162,2022-07-06_09h31.41.432,Colour_Asymmetry_Pilot,2022.1.3,Win32,59.80145916,62c50e9c1127f2cd403a315f,,,,,,,,,,,,,,,,,,,,,,,,,,,,,,,,,,,,,,,,,,,,,,,,,,,,,,,,,,,,,,,,,,,,,,,,,,,,,,,,,,,,,,,,,,,,,,,,,,,,,,,,,,,,,,,,,,,,,,,,,,,,,,,,,,,,,,,,,,,,,,,,,,,,,,,,,,,,,,,,,,,
0,82,82,73,1,,6033fdc84080ea000c633420,62c53a4e92a902606b3a3162,2022-07-06_09h31.41.432,Colour_Asymmetry_Pilot,2022.1.3,Win32,59.80145916,62c50e9c1127f2cd403a315f,,,,,,,,,,,,,,,,,,,,,,,,,,,,,,,,,,,,,,,,,,,,,,,,,,,,,,,,,,,,,,,,,,,,,,,,,,,,,,,,,,,,,,,,,,,,,,,,,,,,,,,,,,,,,,,,,,,,,,,,,,,,,,,,,,,,,,,,,,,,,,,,,,,,,,,,,,,,,,,,,,,
0,83,83,47,1,,6033fdc84080ea000c633420,62c53a4e92a902606b3a3162,2022-07-06_09h31.41.432,Colour_Asymmetry_Pilot,2022.1.3,Win32,59.80145916,62c50e9c1127f2cd403a315f,,,,,,,,,,,,,,,,,,,,,,,,,,,,,,,,,,,,,,,,,,,,,,,,,,,,,,,,,,,,,,,,,,,,,,,,,,,,,,,,,,,,,,,,,,,,,,,,,,,,,,,,,,,,,,,,,,,,,,,,,,,,,,,,,,,,,,,,,,,,,,,,,,,,,,,,,,,,,,,,,,,
0,84,84,9,1,,6033fdc84080ea000c633420,62c53a4e92a902606b3a3162,2022-07-06_09h31.41.432,Colour_Asymmetry_Pilot,2022.1.3,Win32,59.80145916,62c50e9c1127f2cd403a315f,,,,,,,,,,,,,,,,,,,,,,,,,,,,,,,,,,,,,,,,,,,,,,,,,,,,,,,,,,,,,,,,,,,,,,,,,,,,,,,,,,,,,,,,,,,,,,,,,,,,,,,,,,,,,,,,,,,,,,,,,,,,,,,,,,,,,,,,,,,,,,,,,,,,,,,,,,,,,,,,,,,
0,85,85,20,1,,6033fdc84080ea000c633420,62c53a4e92a902606b3a3162,2022-07-06_09h31.41.432,Colour_Asymmetry_Pilot,2022.1.3,Win32,59.80145916,62c50e9c1127f2cd403a315f,,,,,,,,,,,,,,,,,,,,,,,,,,,,,,,,,,,,,,,,,,,,,,,,,,,,,,,,,,,,,,,,,,,,,,,,,,,,,,,,,,,,,,,,,,,,,,,,,,,,,,,,,,,,,,,,,,,,,,,,,,,,,,,,,,,,,,,,,,,,,,,,,,,,,,,,,,,,,,,,,,,
0,86,86,65,1,,6033fdc84080ea000c633420,62c53a4e92a902606b3a3162,2022-07-06_09h31.41.432,Colour_Asymmetry_Pilot,2022.1.3,Win32,59.80145916,62c50e9c1127f2cd403a315f,,,,,,,,,,,,,,,,,,,,,,,,,,,,,,,,,,,,,,,,,,,,,,,,,,,,,,,,,,,,,,,,,,,,,,,,,,,,,,,,,,,,,,,,,,,,,,,,,,,,,,,,,,,,,,,,,,,,,,,,,,,,,,,,,,,,,,,,,,,,,,,,,,,,,,,,,,,,,,,,,,,
0,87,87,59,1,,6033fdc84080ea000c633420,62c53a4e92a902606b3a3162,2022-07-06_09h31.41.432,Colour_Asymmetry_Pilot,2022.1.3,Win32,59.80145916,62c50e9c1127f2cd403a315f,,,,,,,,,,,,,,,,,,,,,,,,,,,,,,,,,,,,,,,,,,,,,,,,,,,,,,,,,,,,,,,,,,,,,,,,,,,,,,,,,,,,,,,,,,,,,,,,,,,,,,,,,,,,,,,,,,,,,,,,,,,,,,,,,,,,,,,,,,,,,,,,,,,,,,,,,,,,,,,,,,,
0,88,88,67,1,,6033fdc84080ea000c633420,62c53a4e92a902606b3a3162,2022-07-06_09h31.41.432,Colour_Asymmetry_Pilot,2022.1.3,Win32,59.80145916,62c50e9c1127f2cd403a315f,,,,,,,,,,,,,,,,,,,,,,,,,,,,,,,,,,,,,,,,,,,,,,,,,,,,,,,,,,,,,,,,,,,,,,,,,,,,,,,,,,,,,,,,,,,,,,,,,,,,,,,,,,,,,,,,,,,,,,,,,,,,,,,,,,,,,,,,,,,,,,,,,,,,,,,,,,,,,,,,,,,
0,89,89,48,1,,6033fdc84080ea000c633420,62c53a4e92a902606b3a3162,2022-07-06_09h31.41.432,Colour_Asymmetry_Pilot,2022.1.3,Win32,59.80145916,62c50e9c1127f2cd403a315f,,,,,,,,,,,,,,,,,,,,,,,,,,,,,,,,,,,,,,,,,,,,,,,,,,,,,,,,,,,,,,,,,,,,,,,,,,,,,,,,,,,,,,,,,,,,,,,,,,,,,,,,,,,,,,,,,,,,,,,,,,,,,,,,,,,,,,,,,,,,,,,,,,,,,,,,,,,,,,,,,,,
0,90,90,26,1,,6033fdc84080ea000c633420,62c53a4e92a902606b3a3162,2022-07-06_09h31.41.432,Colour_Asymmetry_Pilot,2022.1.3,Win32,59.80145916,62c50e9c1127f2cd403a315f,,,,,,,,,,,,,,,,,,,,,,,,,,,,,,,,,,,,,,,,,,,,,,,,,,,,,,,,,,,,,,,,,,,,,,,,,,,,,,,,,,,,,,,,,,,,,,,,,,,,,,,,,,,,,,,,,,,,,,,,,,,,,,,,,,,,,,,,,,,,,,,,,,,,,,,,,,,,,,,,,,,
0,91,91,40,1,,6033fdc84080ea000c633420,62c53a4e92a902606b3a3162,2022-07-06_09h31.41.432,Colour_Asymmetry_Pilot,2022.1.3,Win32,59.80145916,62c50e9c1127f2cd403a315f,,,,,,,,,,,,,,,,,,,,,,,,,,,,,,,,,,,,,,,,,,,,,,,,,,,,,,,,,,,,,,,,,,,,,,,,,,,,,,,,,,,,,,,,,,,,,,,,,,,,,,,,,,,,,,,,,,,,,,,,,,,,,,,,,,,,,,,,,,,,,,,,,,,,,,,,,,,,,,,,,,,
0,92,92,74,1,,6033fdc84080ea000c633420,62c53a4e92a902606b3a3162,2022-07-06_09h31.41.432,Colour_Asymmetry_Pilot,2022.1.3,Win32,59.80145916,62c50e9c1127f2cd403a315f,,,,,,,,,,,,,,,,,,,,,,,,,,,,,,,,,,,,,,,,,,,,,,,,,,,,,,,,,,,,,,,,,,,,,,,,,,,,,,,,,,,,,,,,,,,,,,,,,,,,,,,,,,,,,,,,,,,,,,,,,,,,,,,,,,,,,,,,,,,,,,,,,,,,,,,,,,,,,,,,,,,
,,,,,,6033fdc84080ea000c633420,62c53a4e92a902606b3a3162,2022-07-06_09h31.41.432,Colour_Asymmetry_Pilot,2022.1.3,Win32,59.80145916,62c50e9c1127f2cd403a315f,0,0,0,58,1,twoone,,,,,,,,,,,,,,,,,,,,,,,,,,,,,,,,,,,,,,,,,,,,,,,,,,,,,,,,,,,,,,,,,,,,,,,,,,,,,,,,,,,,,,,,,,,,,,,,,,,,,,,,,,,,,,,,,,,,,,,,,,,,,,,,,,,,,,,,,,,,,,,,,,,,,,,,,,,,,
,,,,,,6033fdc84080ea000c633420,62c53a4e92a902606b3a3162,2022-07-06_09h31.41.432,Colour_Asymmetry_Pilot,2022.1.3,Win32,59.80145916,62c50e9c1127f2cd403a315f,0,1,1,143,1,fourthree,,,,,,,,,,,,,,,,,,,,,,,,,,,,,,,,,,,,,,,,,,,,,,,,,,,,,,,,,,,,,,,,,,,,,,,,,,,,,,,,,,,,,,,,,,,,,,,,,,,,,,,,,,,,,,,,,,,,,,,,,,,,,,,,,,,,,,,,,,,,,,,,,,,,,,,,,,,,,
,,,,,,6033fdc84080ea000c633420,62c53a4e92a902606b3a3162,2022-07-06_09h31.41.432,Colour_Asymmetry_Pilot,2022.1.3,Win32,59.80145916,62c50e9c1127f2cd403a315f,0,2,2,43,1,twofour,,,,,,,,,,,,,,,,,,,,,,,,,,,,,,,,,,,,,,,,,,,,,,,,,,,,,,,,,,,,,,,,,,,,,,,,,,,,,,,,,,,,,,,,,,,,,,,,,,,,,,,,,,,,,,,,,,,,,,,,,,,,,,,,,,,,,,,,,,,,,,,,,,,,,,,,,,,,,
,,,,,,6033fdc84080ea000c633420,62c53a4e92a902606b3a3162,2022-07-06_09h31.41.432,Colour_Asymmetry_Pilot,2022.1.3,Win32,59.80145916,62c50e9c1127f2cd403a315f,0,3,3,10,1,twoone,,,,,,,,,,,,,,,,,,,,,,,,,,,,,,,,,,,,,,,,,,,,,,,,,,,,,,,,,,,,,,,,,,,,,,,,,,,,,,,,,,,,,,,,,,,,,,,,,,,,,,,,,,,,,,,,,,,,,,,,,,,,,,,,,,,,,,,,,,,,,,,,,,,,,,,,,,,,,
,,,,,,6033fdc84080ea000c633420,62c53a4e92a902606b3a3162,2022-07-06_09h31.41.432,Colour_Asymmetry_Pilot,2022.1.3,Win32,59.80145916,62c50e9c1127f2cd403a315f,0,4,4,47,1,fourthree,,,,,,,,,,,,,,,,,,,,,,,,,,,,,,,,,,,,,,,,,,,,,,,,,,,,,,,,,,,,,,,,,,,,,,,,,,,,,,,,,,,,,,,,,,,,,,,,,,,,,,,,,,,,,,,,,,,,,,,,,,,,,,,,,,,,,,,,,,,,,,,,,,,,,,,,,,,,,
,,,,,,6033fdc84080ea000c633420,62c53a4e92a902606b3a3162,2022-07-06_09h31.41.432,Colour_Asymmetry_Pilot,2022.1.3,Win32,59.80145916,62c50e9c1127f2cd403a315f,0,5,5,51,1,twofour,,,,,,,,,,,,,,,,,,,,,,,,,,,,,,,,,,,,,,,,,,,,,,,,,,,,,,,,,,,,,,,,,,,,,,,,,,,,,,,,,,,,,,,,,,,,,,,,,,,,,,,,,,,,,,,,,,,,,,,,,,,,,,,,,,,,,,,,,,,,,,,,,,,,,,,,,,,,,
,,,,,,6033fdc84080ea000c633420,62c53a4e92a902606b3a3162,2022-07-06_09h31.41.432,Colour_Asymmetry_Pilot,2022.1.3,Win32,59.80145916,62c50e9c1127f2cd403a315f,0,6,6,146,1,twoone,,,,,,,,,,,,,,,,,,,,,,,,,,,,,,,,,,,,,,,,,,,,,,,,,,,,,,,,,,,,,,,,,,,,,,,,,,,,,,,,,,,,,,,,,,,,,,,,,,,,,,,,,,,,,,,,,,,,,,,,,,,,,,,,,,,,,,,,,,,,,,,,,,,,,,,,,,,,,
,,,,,,6033fdc84080ea000c633420,62c53a4e92a902606b3a3162,2022-07-06_09h31.41.432,Colour_Asymmetry_Pilot,2022.1.3,Win32,59.80145916,62c50e9c1127f2cd403a315f,0,7,7,75,1,twofour,,,,,,,,,,,,,,,,,,,,,,,,,,,,,,,,,,,,,,,,,,,,,,,,,,,,,,,,,,,,,,,,,,,,,,,,,,,,,,,,,,,,,,,,,,,,,,,,,,,,,,,,,,,,,,,,,,,,,,,,,,,,,,,,,,,,,,,,,,,,,,,,,,,,,,,,,,,,,
,,,,,,6033fdc84080ea000c633420,62c53a4e92a902606b3a3162,2022-07-06_09h31.41.432,Colour_Asymmetry_Pilot,2022.1.3,Win32,59.80145916,62c50e9c1127f2cd403a315f,0,8,8,49,1,onethree,,,,,,,,,,,,,,,,,,,,,,,,,,,,,,,,,,,,,,,,,,,,,,,,,,,,,,,,,,,,,,,,,,,,,,,,,,,,,,,,,,,,,,,,,,,,,,,,,,,,,,,,,,,,,,,,,,,,,,,,,,,,,,,,,,,,,,,,,,,,,,,,,,,,,,,,,,,,,
,,,,,,6033fdc84080ea000c633420,62c53a4e92a902606b3a3162,2022-07-06_09h31.41.432,Colour_Asymmetry_Pilot,2022.1.3,Win32,59.80145916,62c50e9c1127f2cd403a315f,0,9,9,12,1,threeone,,,,,,,,,,,,,,,,,,,,,,,,,,,,,,,,,,,,,,,,,,,,,,,,,,,,,,,,,,,,,,,,,,,,,,,,,,,,,,,,,,,,,,,,,,,,,,,,,,,,,,,,,,,,,,,,,,,,,,,,,,,,,,,,,,,,,,,,,,,,,,,,,,,,,,,,,,,,,
,,,,,,6033fdc84080ea000c633420,62c53a4e92a902606b3a3162,2022-07-06_09h31.41.432,Colour_Asymmetry_Pilot,2022.1.3,Win32,59.80145916,62c50e9c1127f2cd403a315f,0,10,10,20,1,threeone,,,,,,,,,,,,,,,,,,,,,,,,,,,,,,,,,,,,,,,,,,,,,,,,,,,,,,,,,,,,,,,,,,,,,,,,,,,,,,,,,,,,,,,,,,,,,,,,,,,,,,,,,,,,,,,,,,,,,,,,,,,,,,,,,,,,,,,,,,,,,,,,,,,,,,,,,,,,,
,,,,,,6033fdc84080ea000c633420,62c53a4e92a902606b3a3162,2022-07-06_09h31.41.432,Colour_Asymmetry_Pilot,2022.1.3,Win32,59.80145916,62c50e9c1127f2cd403a315f,0,11,11,17,1,onethree,,,,,,,,,,,,,,,,,,,,,,,,,,,,,,,,,,,,,,,,,,,,,,,,,,,,,,,,,,,,,,,,,,,,,,,,,,,,,,,,,,,,,,,,,,,,,,,,,,,,,,,,,,,,,,,,,,,,,,,,,,,,,,,,,,,,,,,,,,,,,,,,,,,,,,,,,,,,,
,,,,,,6033fdc84080ea000c633420,62c53a4e92a902606b3a3162,2022-07-06_09h31.41.432,Colour_Asymmetry_Pilot,2022.1.3,Win32,59.80145916,62c50e9c1127f2cd403a315f,0,12,12,153,1,onethree,,,,,,,,,,,,,,,,,,,,,,,,,,,,,,,,,,,,,,,,,,,,,,,,,,,,,,,,,,,,,,,,,,,,,,,,,,,,,,,,,,,,,,,,,,,,,,,,,,,,,,,,,,,,,,,,,,,,,,,,,,,,,,,,,,,,,,,,,,,,,,,,,,,,,,,,,,,,,
,,,,,,6033fdc84080ea000c633420,62c53a4e92a902606b3a3162,2022-07-06_09h31.41.432,Colour_Asymmetry_Pilot,2022.1.3,Win32,59.80145916,62c50e9c1127f2cd403a315f,0,13,13,91,1,twofour,,,,,,,,,,,,,,,,,,,,,,,,,,,,,,,,,,,,,,,,,,,,,,,,,,,,,,,,,,,,,,,,,,,,,,,,,,,,,,,,,,,,,,,,,,,,,,,,,,,,,,,,,,,,,,,,,,,,,,,,,,,,,,,,,,,,,,,,,,,,,,,,,,,,,,,,,,,,,
,,,,,,6033fdc84080ea000c633420,62c53a4e92a902606b3a3162,2022-07-06_09h31.41.432,Colour_Asymmetry_Pilot,2022.1.3,Win32,59.80145916,62c50e9c1127f2cd403a315f,0,14,14,149,1,threefour,,,,,,,,,,,,,,,,,,,,,,,,,,,,,,,,,,,,,,,,,,,,,,,,,,,,,,,,,,,,,,,,,,,,,,,,,,,,,,,,,,,,,,,,,,,,,,,,,,,,,,,,,,,,,,,,,,,,,,,,,,,,,,,,,,,,,,,,,,,,,,,,,,,,,,,,,,,,,
,,,,,,6033fdc84080ea000c633420,62c53a4e92a902606b3a3162,2022-07-06_09h31.41.432,Colour_Asymmetry_Pilot,2022.1.3,Win32,59.80145916,62c50e9c1127f2cd403a315f,0,15,15,74,1,twoone,,,,,,,,,,,,,,,,,,,,,,,,,,,,,,,,,,,,,,,,,,,,,,,,,,,,,,,,,,,,,,,,,,,,,,,,,,,,,,,,,,,,,,,,,,,,,,,,,,,,,,,,,,,,,,,,,,,,,,,,,,,,,,,,,,,,,,,,,,,,,,,,,,,,,,,,,,,,,
,,,,,,6033fdc84080ea000c633420,62c53a4e92a902606b3a3162,2022-07-06_09h31.41.432,Colour_Asymmetry_Pilot,2022.1.3,Win32,59.80145916,62c50e9c1127f2cd403a315f,0,16,16,117,1,threefour,,,,,,,,,,,,,,,,,,,,,,,,,,,,,,,,,,,,,,,,,,,,,,,,,,,,,,,,,,,,,,,,,,,,,,,,,,,,,,,,,,,,,,,,,,,,,,,,,,,,,,,,,,,,,,,,,,,,,,,,,,,,,,,,,,,,,,,,,,,,,,,,,,,,,,,,,,,,,
,,,,,,6033fdc84080ea000c633420,62c53a4e92a902606b3a3162,2022-07-06_09h31.41.432,Colour_Asymmetry_Pilot,2022.1.3,Win32,59.80145916,62c50e9c1127f2cd403a315f,0,17,17,126,1,fourtwo,,,,,,,,,,,,,,,,,,,,,,,,,,,,,,,,,,,,,,,,,,,,,,,,,,,,,,,,,,,,,,,,,,,,,,,,,,,,,,,,,,,,,,,,,,,,,,,,,,,,,,,,,,,,,,,,,,,,,,,,,,,,,,,,,,,,,,,,,,,,,,,,,,,,,,,,,,,,,
,,,,,,6033fdc84080ea000c633420,62c53a4e92a902606b3a3162,2022-07-06_09h31.41.432,Colour_Asymmetry_Pilot,2022.1.3,Win32,59.80145916,62c50e9c1127f2cd403a315f,0,18,18,116,1,threeone,,,,,,,,,,,,,,,,,,,,,,,,,,,,,,,,,,,,,,,,,,,,,,,,,,,,,,,,,,,,,,,,,,,,,,,,,,,,,,,,,,,,,,,,,,,,,,,,,,,,,,,,,,,,,,,,,,,,,,,,,,,,,,,,,,,,,,,,,,,,,,,,,,,,,,,,,,,,,
,,,,,,6033fdc84080ea000c633420,62c53a4e92a902606b3a3162,2022-07-06_09h31.41.432,Colour_Asymmetry_Pilot,2022.1.3,Win32,59.80145916,62c50e9c1127f2cd403a315f,0,19,19,59,1,twofour,,,,,,,,,,,,,,,,,,,,,,,,,,,,,,,,,,,,,,,,,,,,,,,,,,,,,,,,,,,,,,,,,,,,,,,,,,,,,,,,,,,,,,,,,,,,,,,,,,,,,,,,,,,,,,,,,,,,,,,,,,,,,,,,,,,,,,,,,,,,,,,,,,,,,,,,,,,,,
,,,,,,6033fdc84080ea000c633420,62c53a4e92a902606b3a3162,2022-07-06_09h31.41.432,Colour_Asymmetry_Pilot,2022.1.3,Win32,59.80145916,62c50e9c1127f2cd403a315f,0,20,20,112,1,onetwo,,,,,,,,,,,,,,,,,,,,,,,,,,,,,,,,,,,,,,,,,,,,,,,,,,,,,,,,,,,,,,,,,,,,,,,,,,,,,,,,,,,,,,,,,,,,,,,,,,,,,,,,,,,,,,,,,,,,,,,,,,,,,,,,,,,,,,,,,,,,,,,,,,,,,,,,,,,,,
,,,,,,6033fdc84080ea000c633420,62c53a4e92a902606b3a3162,2022-07-06_09h31.41.432,Colour_Asymmetry_Pilot,2022.1.3,Win32,59.80145916,62c50e9c1127f2cd403a315f,0,21,21,159,1,fourthree,,,,,,,,,,,,,,,,,,,,,,,,,,,,,,,,,,,,,,,,,,,,,,,,,,,,,,,,,,,,,,,,,,,,,,,,,,,,,,,,,,,,,,,,,,,,,,,,,,,,,,,,,,,,,,,,,,,,,,,,,,,,,,,,,,,,,,,,,,,,,,,,,,,,,,,,,,,,,
,,,,,,6033fdc84080ea000c633420,62c53a4e92a902606b3a3162,2022-07-06_09h31.41.432,Colour_Asymmetry_Pilot,2022.1.3,Win32,59.80145916,62c50e9c1127f2cd403a315f,0,22,22,99,1,twofour,,,,,,,,,,,,,,,,,,,,,,,,,,,,,,,,,,,,,,,,,,,,,,,,,,,,,,,,,,,,,,,,,,,,,,,,,,,,,,,,,,,,,,,,,,,,,,,,,,,,,,,,,,,,,,,,,,,,,,,,,,,,,,,,,,,,,,,,,,,,,,,,,,,,,,,,,,,,,
,,,,,,6033fdc84080ea000c633420,62c53a4e92a902606b3a3162,2022-07-06_09h31.41.432,Colour_Asymmetry_Pilot,2022.1.3,Win32,59.80145916,62c50e9c1127f2cd403a315f,0,23,23,70,1,fourtwo,,,,,,,,,,,,,,,,,,,,,,,,,,,,,,,,,,,,,,,,,,,,,,,,,,,,,,,,,,,,,,,,,,,,,,,,,,,,,,,,,,,,,,,,,,,,,,,,,,,,,,,,,,,,,,,,,,,,,,,,,,,,,,,,,,,,,,,,,,,,,,,,,,,,,,,,,,,,,
,,,,,,6033fdc84080ea000c633420,62c53a4e92a902606b3a3162,2022-07-06_09h31.41.432,Colour_Asymmetry_Pilot,2022.1.3,Win32,59.80145916,62c50e9c1127f2cd403a315f,0,24,24,40,1,onetwo,,,,,,,,,,,,,,,,,,,,,,,,,,,,,,,,,,,,,,,,,,,,,,,,,,,,,,,,,,,,,,,,,,,,,,,,,,,,,,,,,,,,,,,,,,,,,,,,,,,,,,,,,,,,,,,,,,,,,,,,,,,,,,,,,,,,,,,,,,,,,,,,,,,,,,,,,,,,,
,,,,,,6033fdc84080ea000c633420,62c53a4e92a902606b3a3162,2022-07-06_09h31.41.432,Colour_Asymmetry_Pilot,2022.1.3,Win32,59.80145916,62c50e9c1127f2cd403a315f,0,25,25,85,1,threefour,,,,,,,,,,,,,,,,,,,,,,,,,,,,,,,,,,,,,,,,,,,,,,,,,,,,,,,,,,,,,,,,,,,,,,,,,,,,,,,,,,,,,,,,,,,,,,,,,,,,,,,,,,,,,,,,,,,,,,,,,,,,,,,,,,,,,,,,,,,,,,,,,,,,,,,,,,,,,
,,,,,,6033fdc84080ea000c633420,62c53a4e92a902606b3a3162,2022-07-06_09h31.41.432,Colour_Asymmetry_Pilot,2022.1.3,Win32,59.80145916,62c50e9c1127f2cd403a315f,0,26,26,87,1,fourthree,,,,,,,,,,,,,,,,,,,,,,,,,,,,,,,,,,,,,,,,,,,,,,,,,,,,,,,,,,,,,,,,,,,,,,,,,,,,,,,,,,,,,,,,,,,,,,,,,,,,,,,,,,,,,,,,,,,,,,,,,,,,,,,,,,,,,,,,,,,,,,,,,,,,,,,,,,,,,
,,,,,,6033fdc84080ea000c633420,62c53a4e92a902606b3a3162,2022-07-06_09h31.41.432,Colour_Asymmetry_Pilot,2022.1.3,Win32,59.80145916,62c50e9c1127f2cd403a315f,0,27,27,78,1,fourtwo,,,,,,,,,,,,,,,,,,,,,,,,,,,,,,,,,,,,,,,,,,,,,,,,,,,,,,,,,,,,,,,,,,,,,,,,,,,,,,,,,,,,,,,,,,,,,,,,,,,,,,,,,,,,,,,,,,,,,,,,,,,,,,,,,,,,,,,,,,,,,,,,,,,,,,,,,,,,,
,,,,,,6033fdc84080ea000c633420,62c53a4e92a902606b3a3162,2022-07-06_09h31.41.432,Colour_Asymmetry_Pilot,2022.1.3,Win32,59.80145916,62c50e9c1127f2cd403a315f,0,28,28,114,1,twoone,,,,,,,,,,,,,,,,,,,,,,,,,,,,,,,,,,,,,,,,,,,,,,,,,,,,,,,,,,,,,,,,,,,,,,,,,,,,,,,,,,,,,,,,,,,,,,,,,,,,,,,,,,,,,,,,,,,,,,,,,,,,,,,,,,,,,,,,,,,,,,,,,,,,,,,,,,,,,
,,,,,,6033fdc84080ea000c633420,62c53a4e92a902606b3a3162,2022-07-06_09h31.41.432,Colour_Asymmetry_Pilot,2022.1.3,Win32,59.80145916,62c50e9c1127f2cd403a315f,0,29,29,44,1,threeone,,,,,,,,,,,,,,,,,,,,,,,,,,,,,,,,,,,,,,,,,,,,,,,,,,,,,,,,,,,,,,,,,,,,,,,,,,,,,,,,,,,,,,,,,,,,,,,,,,,,,,,,,,,,,,,,,,,,,,,,,,,,,,,,,,,,,,,,,,,,,,,,,,,,,,,,,,,,,
,,,,,,6033fdc84080ea000c633420,62c53a4e92a902606b3a3162,2022-07-06_09h31.41.432,Colour_Asymmetry_Pilot,2022.1.3,Win32,59.80145916,62c50e9c1127f2cd403a315f,0,30,30,36,1,threeone,,,,,,,,,,,,,,,,,,,,,,,,,,,,,,,,,,,,,,,,,,,,,,,,,,,,,,,,,,,,,,,,,,,,,,,,,,,,,,,,,,,,,,,,,,,,,,,,,,,,,,,,,,,,,,,,,,,,,,,,,,,,,,,,,,,,,,,,,,,,,,,,,,,,,,,,,,,,,
,,,,,,6033fdc84080ea000c633420,62c53a4e92a902606b3a3162,2022-07-06_09h31.41.432,Colour_Asymmetry_Pilot,2022.1.3,Win32,59.80145916,62c50e9c1127f2cd403a315f,0,31,31,134,1,fourtwo,,,,,,,,,,,,,,,,,,,,,,,,,,,,,,,,,,,,,,,,,,,,,,,,,,,,,,,,,,,,,,,,,,,,,,,,,,,,,,,,,,,,,,,,,,,,,,,,,,,,,,,,,,,,,,,,,,,,,,,,,,,,,,,,,,,,,,,,,,,,,,,,,,,,,,,,,,,,,
,,,,,,6033fdc84080ea000c633420,62c53a4e92a902606b3a3162,2022-07-06_09h31.41.432,Colour_Asymmetry_Pilot,2022.1.3,Win32,59.80145916,62c50e9c1127f2cd403a315f,0,32,32,118,1,fourtwo,,,,,,,,,,,,,,,,,,,,,,,,,,,,,,,,,,,,,,,,,,,,,,,,,,,,,,,,,,,,,,,,,,,,,,,,,,,,,,,,,,,,,,,,,,,,,,,,,,,,,,,,,,,,,,,,,,,,,,,,,,,,,,,,,,,,,,,,,,,,,,,,,,,,,,,,,,,,,
,,,,,,6033fdc84080ea000c633420,62c53a4e92a902606b3a3162,2022-07-06_09h31.41.432,Colour_Asymmetry_Pilot,2022.1.3,Win32,59.80145916,62c50e9c1127f2cd403a315f,0,33,33,141,1,threefour,,,,,,,,,,,,,,,,,,,,,,,,,,,,,,,,,,,,,,,,,,,,,,,,,,,,,,,,,,,,,,,,,,,,,,,,,,,,,,,,,,,,,,,,,,,,,,,,,,,,,,,,,,,,,,,,,,,,,,,,,,,,,,,,,,,,,,,,,,,,,,,,,,,,,,,,,,,,,
,,,,,,6033fdc84080ea000c633420,62c53a4e92a902606b3a3162,2022-07-06_09h31.41.432,Colour_Asymmetry_Pilot,2022.1.3,Win32,59.80145916,62c50e9c1127f2cd403a315f,0,34,34,3,1,twofour,,,,,,,,,,,,,,,,,,,,,,,,,,,,,,,,,,,,,,,,,,,,,,,,,,,,,,,,,,,,,,,,,,,,,,,,,,,,,,,,,,,,,,,,,,,,,,,,,,,,,,,,,,,,,,,,,,,,,,,,,,,,,,,,,,,,,,,,,,,,,,,,,,,,,,,,,,,,,
,,,,,,6033fdc84080ea000c633420,62c53a4e92a902606b3a3162,2022-07-06_09h31.41.432,Colour_Asymmetry_Pilot,2022.1.3,Win32,59.80145916,62c50e9c1127f2cd403a315f,0,35,35,81,1,onethree,,,,,,,,,,,,,,,,,,,,,,,,,,,,,,,,,,,,,,,,,,,,,,,,,,,,,,,,,,,,,,,,,,,,,,,,,,,,,,,,,,,,,,,,,,,,,,,,,,,,,,,,,,,,,,,,,,,,,,,,,,,,,,,,,,,,,,,,,,,,,,,,,,,,,,,,,,,,,
,,,,,,6033fdc84080ea000c633420,62c53a4e92a902606b3a3162,2022-07-06_09h31.41.432,Colour_Asymmetry_Pilot,2022.1.3,Win32,59.80145916,62c50e9c1127f2cd403a315f,0,36,36,161,1,onethree,,,,,,,,,,,,,,,,,,,,,,,,,,,,,,,,,,,,,,,,,,,,,,,,,,,,,,,,,,,,,,,,,,,,,,,,,,,,,,,,,,,,,,,,,,,,,,,,,,,,,,,,,,,,,,,,,,,,,,,,,,,,,,,,,,,,,,,,,,,,,,,,,,,,,,,,,,,,,
,,,,,,6033fdc84080ea000c633420,62c53a4e92a902606b3a3162,2022-07-06_09h31.41.432,Colour_Asymmetry_Pilot,2022.1.3,Win32,59.80145916,62c50e9c1127f2cd403a315f,0,37,37,46,1,fourtwo,,,,,,,,,,,,,,,,,,,,,,,,,,,,,,,,,,,,,,,,,,,,,,,,,,,,,,,,,,,,,,,,,,,,,,,,,,,,,,,,,,,,,,,,,,,,,,,,,,,,,,,,,,,,,,,,,,,,,,,,,,,,,,,,,,,,,,,,,,,,,,,,,,,,,,,,,,,,,
,,,,,,6033fdc84080ea000c633420,62c53a4e92a902606b3a3162,2022-07-06_09h31.41.432,Colour_Asymmetry_Pilot,2022.1.3,Win32,59.80145916,62c50e9c1127f2cd403a315f,0,38,38,122,1,twoone,,,,,,,,,,,,,,,,,,,,,,,,,,,,,,,,,,,,,,,,,,,,,,,,,,,,,,,,,,,,,,,,,,,,,,,,,,,,,,,,,,,,,,,,,,,,,,,,,,,,,,,,,,,,,,,,,,,,,,,,,,,,,,,,,,,,,,,,,,,,,,,,,,,,,,,,,,,,,
,,,,,,6033fdc84080ea000c633420,62c53a4e92a902606b3a3162,2022-07-06_09h31.41.432,Colour_Asymmetry_Pilot,2022.1.3,Win32,59.80145916,62c50e9c1127f2cd403a315f,0,39,39,22,1,fourtwo,,,,,,,,,,,,,,,,,,,,,,,,,,,,,,,,,,,,,,,,,,,,,,,,,,,,,,,,,,,,,,,,,,,,,,,,,,,,,,,,,,,,,,,,,,,,,,,,,,,,,,,,,,,,,,,,,,,,,,,,,,,,,,,,,,,,,,,,,,,,,,,,,,,,,,,,,,,,,
,,,,,,6033fdc84080ea000c633420,62c53a4e92a902606b3a3162,2022-07-06_09h31.41.432,Colour_Asymmetry_Pilot,2022.1.3,Win32,59.80145916,62c50e9c1127f2cd403a315f,0,40,40,151,1,fourthree,,,,,,,,,,,,,,,,,,,,,,,,,,,,,,,,,,,,,,,,,,,,,,,,,,,,,,,,,,,,,,,,,,,,,,,,,,,,,,,,,,,,,,,,,,,,,,,,,,,,,,,,,,,,,,,,,,,,,,,,,,,,,,,,,,,,,,,,,,,,,,,,,,,,,,,,,,,,,
,,,,,,6033fdc84080ea000c633420,62c53a4e92a902606b3a3162,2022-07-06_09h31.41.432,Colour_Asymmetry_Pilot,2022.1.3,Win32,59.80145916,62c50e9c1127f2cd403a315f,0,41,41,5,1,threefour,,,,,,,,,,,,,,,,,,,,,,,,,,,,,,,,,,,,,,,,,,,,,,,,,,,,,,,,,,,,,,,,,,,,,,,,,,,,,,,,,,,,,,,,,,,,,,,,,,,,,,,,,,,,,,,,,,,,,,,,,,,,,,,,,,,,,,,,,,,,,,,,,,,,,,,,,,,,,
,,,,,,6033fdc84080ea000c633420,62c53a4e92a902606b3a3162,2022-07-06_09h31.41.432,Colour_Asymmetry_Pilot,2022.1.3,Win32,59.80145916,62c50e9c1127f2cd403a315f,0,42,42,65,1,onethree,,,,,,,,,,,,,,,,,,,,,,,,,,,,,,,,,,,,,,,,,,,,,,,,,,,,,,,,,,,,,,,,,,,,,,,,,,,,,,,,,,,,,,,,,,,,,,,,,,,,,,,,,,,,,,,,,,,,,,,,,,,,,,,,,,,,,,,,,,,,,,,,,,,,,,,,,,,,,
,,,,,,6033fdc84080ea000c633420,62c53a4e92a902606b3a3162,2022-07-06_09h31.41.432,Colour_Asymmetry_Pilot,2022.1.3,Win32,59.80145916,62c50e9c1127f2cd403a315f,0,43,43,84,1,threeone,,,,,,,,,,,,,,,,,,,,,,,,,,,,,,,,,,,,,,,,,,,,,,,,,,,,,,,,,,,,,,,,,,,,,,,,,,,,,,,,,,,,,,,,,,,,,,,,,,,,,,,,,,,,,,,,,,,,,,,,,,,,,,,,,,,,,,,,,,,,,,,,,,,,,,,,,,,,,
,,,,,,6033fdc84080ea000c633420,62c53a4e92a902606b3a3162,2022-07-06_09h31.41.432,Colour_Asymmetry_Pilot,2022.1.3,Win32,59.80145916,62c50e9c1127f2cd403a315f,0,44,44,90,1,twoone,,,,,,,,,,,,,,,,,,,,,,,,,,,,,,,,,,,,,,,,,,,,,,,,,,,,,,,,,,,,,,,,,,,,,,,,,,,,,,,,,,,,,,,,,,,,,,,,,,,,,,,,,,,,,,,,,,,,,,,,,,,,,,,,,,,,,,,,,,,,,,,,,,,,,,,,,,,,,
,,,,,,6033fdc84080ea000c633420,62c53a4e92a902606b3a3162,2022-07-06_09h31.41.432,Colour_Asymmetry_Pilot,2022.1.3,Win32,59.80145916,62c50e9c1127f2cd403a315f,0,45,45,158,1,fourtwo,,,,,,,,,,,,,,,,,,,,,,,,,,,,,,,,,,,,,,,,,,,,,,,,,,,,,,,,,,,,,,,,,,,,,,,,,,,,,,,,,,,,,,,,,,,,,,,,,,,,,,,,,,,,,,,,,,,,,,,,,,,,,,,,,,,,,,,,,,,,,,,,,,,,,,,,,,,,,
,,,,,,6033fdc84080ea000c633420,62c53a4e92a902606b3a3162,2022-07-06_09h31.41.432,Colour_Asymmetry_Pilot,2022.1.3,Win32,59.80145916,62c50e9c1127f2cd403a315f,0,46,46,111,1,fourthree,,,,,,,,,,,,,,,,,,,,,,,,,,,,,,,,,,,,,,,,,,,,,,,,,,,,,,,,,,,,,,,,,,,,,,,,,,,,,,,,,,,,,,,,,,,,,,,,,,,,,,,,,,,,,,,,,,,,,,,,,,,,,,,,,,,,,,,,,,,,,,,,,,,,,,,,,,,,,
,,,,,,6033fdc84080ea000c633420,62c53a4e92a902606b3a3162,2022-07-06_09h31.41.432,Colour_Asymmetry_Pilot,2022.1.3,Win32,59.80145916,62c50e9c1127f2cd403a315f,0,47,47,119,1,fourthree,,,,,,,,,,,,,,,,,,,,,,,,,,,,,,,,,,,,,,,,,,,,,,,,,,,,,,,,,,,,,,,,,,,,,,,,,,,,,,,,,,,,,,,,,,,,,,,,,,,,,,,,,,,,,,,,,,,,,,,,,,,,,,,,,,,,,,,,,,,,,,,,,,,,,,,,,,,,,
,,,,,,6033fdc84080ea000c633420,62c53a4e92a902606b3a3162,2022-07-06_09h31.41.432,Colour_Asymmetry_Pilot,2022.1.3,Win32,59.80145916,62c50e9c1127f2cd403a315f,0,48,48,86,1,fourtwo,,,,,,,,,,,,,,,,,,,,,,,,,,,,,,,,,,,,,,,,,,,,,,,,,,,,,,,,,,,,,,,,,,,,,,,,,,,,,,,,,,,,,,,,,,,,,,,,,,,,,,,,,,,,,,,,,,,,,,,,,,,,,,,,,,,,,,,,,,,,,,,,,,,,,,,,,,,,,
,,,,,,6033fdc84080ea000c633420,62c53a4e92a902606b3a3162,2022-07-06_09h31.41.432,Colour_Asymmetry_Pilot,2022.1.3,Win32,59.80145916,62c50e9c1127f2cd403a315f,0,49,49,2,1,twoone,,,,,,,,,,,,,,,,,,,,,,,,,,,,,,,,,,,,,,,,,,,,,,,,,,,,,,,,,,,,,,,,,,,,,,,,,,,,,,,,,,,,,,,,,,,,,,,,,,,,,,,,,,,,,,,,,,,,,,,,,,,,,,,,,,,,,,,,,,,,,,,,,,,,,,,,,,,,,
,,,,,,6033fdc84080ea000c633420,62c53a4e92a902606b3a3162,2022-07-06_09h31.41.432,Colour_Asymmetry_Pilot,2022.1.3,Win32,59.80145916,62c50e9c1127f2cd403a315f,0,50,50,142,1,fourtwo,,,,,,,,,,,,,,,,,,,,,,,,,,,,,,,,,,,,,,,,,,,,,,,,,,,,,,,,,,,,,,,,,,,,,,,,,,,,,,,,,,,,,,,,,,,,,,,,,,,,,,,,,,,,,,,,,,,,,,,,,,,,,,,,,,,,,,,,,,,,,,,,,,,,,,,,,,,,,
,,,,,,6033fdc84080ea000c633420,62c53a4e92a902606b3a3162,2022-07-06_09h31.41.432,Colour_Asymmetry_Pilot,2022.1.3,Win32,59.80145916,62c50e9c1127f2cd403a315f,0,51,51,131,1,twofour,,,,,,,,,,,,,,,,,,,,,,,,,,,,,,,,,,,,,,,,,,,,,,,,,,,,,,,,,,,,,,,,,,,,,,,,,,,,,,,,,,,,,,,,,,,,,,,,,,,,,,,,,,,,,,,,,,,,,,,,,,,,,,,,,,,,,,,,,,,,,,,,,,,,,,,,,,,,,
,,,,,,6033fdc84080ea000c633420,62c53a4e92a902606b3a3162,2022-07-06_09h31.41.432,Colour_Asymmetry_Pilot,2022.1.3,Win32,59.80145916,62c50e9c1127f2cd403a315f,0,52,52,68,1,threeone,,,,,,,,,,,,,,,,,,,,,,,,,,,,,,,,,,,,,,,,,,,,,,,,,,,,,,,,,,,,,,,,,,,,,,,,,,,,,,,,,,,,,,,,,,,,,,,,,,,,,,,,,,,,,,,,,,,,,,,,,,,,,,,,,,,,,,,,,,,,,,,,,,,,,,,,,,,,,
,,,,,,6033fdc84080ea000c633420,62c53a4e92a902606b3a3162,2022-07-06_09h31.41.432,Colour_Asymmetry_Pilot,2022.1.3,Win32,59.80145916,62c50e9c1127f2cd403a315f,0,53,53,72,1,onetwo,,,,,,,,,,,,,,,,,,,,,,,,,,,,,,,,,,,,,,,,,,,,,,,,,,,,,,,,,,,,,,,,,,,,,,,,,,,,,,,,,,,,,,,,,,,,,,,,,,,,,,,,,,,,,,,,,,,,,,,,,,,,,,,,,,,,,,,,,,,,,,,,,,,,,,,,,,,,,
,,,,,,6033fdc84080ea000c633420,62c53a4e92a902606b3a3162,2022-07-06_09h31.41.432,Colour_Asymmetry_Pilot,2022.1.3,Win32,59.80145916,62c50e9c1127f2cd403a315f,0,54,54,120,1,onetwo,,,,,,,,,,,,,,,,,,,,,,,,,,,,,,,,,,,,,,,,,,,,,,,,,,,,,,,,,,,,,,,,,,,,,,,,,,,,,,,,,,,,,,,,,,,,,,,,,,,,,,,,,,,,,,,,,,,,,,,,,,,,,,,,,,,,,,,,,,,,,,,,,,,,,,,,,,,,,
,,,,,,6033fdc84080ea000c633420,62c53a4e92a902606b3a3162,2022-07-06_09h31.41.432,Colour_Asymmetry_Pilot,2022.1.3,Win32,59.80145916,62c50e9c1127f2cd403a315f,0,55,55,154,1,twoone,,,,,,,,,,,,,,,,,,,,,,,,,,,,,,,,,,,,,,,,,,,,,,,,,,,,,,,,,,,,,,,,,,,,,,,,,,,,,,,,,,,,,,,,,,,,,,,,,,,,,,,,,,,,,,,,,,,,,,,,,,,,,,,,,,,,,,,,,,,,,,,,,,,,,,,,,,,,,
,,,,,,6033fdc84080ea000c633420,62c53a4e92a902606b3a3162,2022-07-06_09h31.41.432,Colour_Asymmetry_Pilot,2022.1.3,Win32,59.80145916,62c50e9c1127f2cd403a315f,0,56,56,133,1,threefour,,,,,,,,,,,,,,,,,,,,,,,,,,,,,,,,,,,,,,,,,,,,,,,,,,,,,,,,,,,,,,,,,,,,,,,,,,,,,,,,,,,,,,,,,,,,,,,,,,,,,,,,,,,,,,,,,,,,,,,,,,,,,,,,,,,,,,,,,,,,,,,,,,,,,,,,,,,,,
,,,,,,6033fdc84080ea000c633420,62c53a4e92a902606b3a3162,2022-07-06_09h31.41.432,Colour_Asymmetry_Pilot,2022.1.3,Win32,59.80145916,62c50e9c1127f2cd403a315f,0,57,57,77,1,threefour,,,,,,,,,,,,,,,,,,,,,,,,,,,,,,,,,,,,,,,,,,,,,,,,,,,,,,,,,,,,,,,,,,,,,,,,,,,,,,,,,,,,,,,,,,,,,,,,,,,,,,,,,,,,,,,,,,,,,,,,,,,,,,,,,,,,,,,,,,,,,,,,,,,,,,,,,,,,,
,,,,,,6033fdc84080ea000c633420,62c53a4e92a902606b3a3162,2022-07-06_09h31.41.432,Colour_Asymmetry_Pilot,2022.1.3,Win32,59.80145916,62c50e9c1127f2cd403a315f,0,58,58,34,1,twoone,,,,,,,,,,,,,,,,,,,,,,,,,,,,,,,,,,,,,,,,,,,,,,,,,,,,,,,,,,,,,,,,,,,,,,,,,,,,,,,,,,,,,,,,,,,,,,,,,,,,,,,,,,,,,,,,,,,,,,,,,,,,,,,,,,,,,,,,,,,,,,,,,,,,,,,,,,,,,
,,,,,,6033fdc84080ea000c633420,62c53a4e92a902606b3a3162,2022-07-06_09h31.41.432,Colour_Asymmetry_Pilot,2022.1.3,Win32,59.80145916,62c50e9c1127f2cd403a315f,0,59,59,62,1,fourtwo,,,,,,,,,,,,,,,,,,,,,,,,,,,,,,,,,,,,,,,,,,,,,,,,,,,,,,,,,,,,,,,,,,,,,,,,,,,,,,,,,,,,,,,,,,,,,,,,,,,,,,,,,,,,,,,,,,,,,,,,,,,,,,,,,,,,,,,,,,,,,,,,,,,,,,,,,,,,,
,,,,,,6033fdc84080ea000c633420,62c53a4e92a902606b3a3162,2022-07-06_09h31.41.432,Colour_Asymmetry_Pilot,2022.1.3,Win32,59.80145916,62c50e9c1127f2cd403a315f,0,60,60,53,1,threefour,,,,,,,,,,,,,,,,,,,,,,,,,,,,,,,,,,,,,,,,,,,,,,,,,,,,,,,,,,,,,,,,,,,,,,,,,,,,,,,,,,,,,,,,,,,,,,,,,,,,,,,,,,,,,,,,,,,,,,,,,,,,,,,,,,,,,,,,,,,,,,,,,,,,,,,,,,,,,
,,,,,,6033fdc84080ea000c633420,62c53a4e92a902606b3a3162,2022-07-06_09h31.41.432,Colour_Asymmetry_Pilot,2022.1.3,Win32,59.80145916,62c50e9c1127f2cd403a315f,0,61,61,9,1,onethree,,,,,,,,,,,,,,,,,,,,,,,,,,,,,,,,,,,,,,,,,,,,,,,,,,,,,,,,,,,,,,,,,,,,,,,,,,,,,,,,,,,,,,,,,,,,,,,,,,,,,,,,,,,,,,,,,,,,,,,,,,,,,,,,,,,,,,,,,,,,,,,,,,,,,,,,,,,,,
,,,,,,6033fdc84080ea000c633420,62c53a4e92a902606b3a3162,2022-07-06_09h31.41.432,Colour_Asymmetry_Pilot,2022.1.3,Win32,59.80145916,62c50e9c1127f2cd403a315f,0,62,62,101,1,threefour,,,,,,,,,,,,,,,,,,,,,,,,,,,,,,,,,,,,,,,,,,,,,,,,,,,,,,,,,,,,,,,,,,,,,,,,,,,,,,,,,,,,,,,,,,,,,,,,,,,,,,,,,,,,,,,,,,,,,,,,,,,,,,,,,,,,,,,,,,,,,,,,,,,,,,,,,,,,,
,,,,,,6033fdc84080ea000c633420,62c53a4e92a902606b3a3162,2022-07-06_09h31.41.432,Colour_Asymmetry_Pilot,2022.1.3,Win32,59.80145916,62c50e9c1127f2cd403a315f,0,63,63,66,1,twoone,,,,,,,,,,,,,,,,,,,,,,,,,,,,,,,,,,,,,,,,,,,,,,,,,,,,,,,,,,,,,,,,,,,,,,,,,,,,,,,,,,,,,,,,,,,,,,,,,,,,,,,,,,,,,,,,,,,,,,,,,,,,,,,,,,,,,,,,,,,,,,,,,,,,,,,,,,,,,
,,,,,,6033fdc84080ea000c633420,62c53a4e92a902606b3a3162,2022-07-06_09h31.41.432,Colour_Asymmetry_Pilot,2022.1.3,Win32,59.80145916,62c50e9c1127f2cd403a315f,0,64,64,138,1,twoone,,,,,,,,,,,,,,,,,,,,,,,,,,,,,,,,,,,,,,,,,,,,,,,,,,,,,,,,,,,,,,,,,,,,,,,,,,,,,,,,,,,,,,,,,,,,,,,,,,,,,,,,,,,,,,,,,,,,,,,,,,,,,,,,,,,,,,,,,,,,,,,,,,,,,,,,,,,,,
,,,,,,6033fdc84080ea000c633420,62c53a4e92a902606b3a3162,2022-07-06_09h31.41.432,Colour_Asymmetry_Pilot,2022.1.3,Win32,59.80145916,62c50e9c1127f2cd403a315f,0,65,65,25,1,onethree,,,,,,,,,,,,,,,,,,,,,,,,,,,,,,,,,,,,,,,,,,,,,,,,,,,,,,,,,,,,,,,,,,,,,,,,,,,,,,,,,,,,,,,,,,,,,,,,,,,,,,,,,,,,,,,,,,,,,,,,,,,,,,,,,,,,,,,,,,,,,,,,,,,,,,,,,,,,,
,,,,,,6033fdc84080ea000c633420,62c53a4e92a902606b3a3162,2022-07-06_09h31.41.432,Colour_Asymmetry_Pilot,2022.1.3,Win32,59.80145916,62c50e9c1127f2cd403a315f,0,66,66,32,1,onetwo,,,,,,,,,,,,,,,,,,,,,,,,,,,,,,,,,,,,,,,,,,,,,,,,,,,,,,,,,,,,,,,,,,,,,,,,,,,,,,,,,,,,,,,,,,,,,,,,,,,,,,,,,,,,,,,,,,,,,,,,,,,,,,,,,,,,,,,,,,,,,,,,,,,,,,,,,,,,,
,,,,,,6033fdc84080ea000c633420,62c53a4e92a902606b3a3162,2022-07-06_09h31.41.432,Colour_Asymmetry_Pilot,2022.1.3,Win32,59.80145916,62c50e9c1127f2cd403a315f,0,67,67,30,1,fourtwo,,,,,,,,,,,,,,,,,,,,,,,,,,,,,,,,,,,,,,,,,,,,,,,,,,,,,,,,,,,,,,,,,,,,,,,,,,,,,,,,,,,,,,,,,,,,,,,,,,,,,,,,,,,,,,,,,,,,,,,,,,,,,,,,,,,,,,,,,,,,,,,,,,,,,,,,,,,,,
,,,,,,6033fdc84080ea000c633420,62c53a4e92a902606b3a3162,2022-07-06_09h31.41.432,Colour_Asymmetry_Pilot,2022.1.3,Win32,59.80145916,62c50e9c1127f2cd403a315f,0,68,68,107,1,twofour,,,,,,,,,,,,,,,,,,,,,,,,,,,,,,,,,,,,,,,,,,,,,,,,,,,,,,,,,,,,,,,,,,,,,,,,,,,,,,,,,,,,,,,,,,,,,,,,,,,,,,,,,,,,,,,,,,,,,,,,,,,,,,,,,,,,,,,,,,,,,,,,,,,,,,,,,,,,,
,,,,,,6033fdc84080ea000c633420,62c53a4e92a902606b3a3162,2022-07-06_09h31.41.432,Colour_Asymmetry_Pilot,2022.1.3,Win32,59.80145916,62c50e9c1127f2cd403a315f,0,69,69,61,1,threefour,,,,,,,,,,,,,,,,,,,,,,,,,,,,,,,,,,,,,,,,,,,,,,,,,,,,,,,,,,,,,,,,,,,,,,,,,,,,,,,,,,,,,,,,,,,,,,,,,,,,,,,,,,,,,,,,,,,,,,,,,,,,,,,,,,,,,,,,,,,,,,,,,,,,,,,,,,,,,
,,,,,,6033fdc84080ea000c633420,62c53a4e92a902606b3a3162,2022-07-06_09h31.41.432,Colour_Asymmetry_Pilot,2022.1.3,Win32,59.80145916,62c50e9c1127f2cd403a315f,0,70,70,83,1,twofour,,,,,,,,,,,,,,,,,,,,,,,,,,,,,,,,,,,,,,,,,,,,,,,,,,,,,,,,,,,,,,,,,,,,,,,,,,,,,,,,,,,,,,,,,,,,,,,,,,,,,,,,,,,,,,,,,,,,,,,,,,,,,,,,,,,,,,,,,,,,,,,,,,,,,,,,,,,,,
,,,,,,6033fdc84080ea000c633420,62c53a4e92a902606b3a3162,2022-07-06_09h31.41.432,Colour_Asymmetry_Pilot,2022.1.3,Win32,59.80145916,62c50e9c1127f2cd403a315f,0,71,71,69,1,threefour,,,,,,,,,,,,,,,,,,,,,,,,,,,,,,,,,,,,,,,,,,,,,,,,,,,,,,,,,,,,,,,,,,,,,,,,,,,,,,,,,,,,,,,,,,,,,,,,,,,,,,,,,,,,,,,,,,,,,,,,,,,,,,,,,,,,,,,,,,,,,,,,,,,,,,,,,,,,,
,,,,,,6033fdc84080ea000c633420,62c53a4e92a902606b3a3162,2022-07-06_09h31.41.432,Colour_Asymmetry_Pilot,2022.1.3,Win32,59.80145916,62c50e9c1127f2cd403a315f,0,72,72,103,1,fourthree,,,,,,,,,,,,,,,,,,,,,,,,,,,,,,,,,,,,,,,,,,,,,,,,,,,,,,,,,,,,,,,,,,,,,,,,,,,,,,,,,,,,,,,,,,,,,,,,,,,,,,,,,,,,,,,,,,,,,,,,,,,,,,,,,,,,,,,,,,,,,,,,,,,,,,,,,,,,,
,,,,,,6033fdc84080ea000c633420,62c53a4e92a902606b3a3162,2022-07-06_09h31.41.432,Colour_Asymmetry_Pilot,2022.1.3,Win32,59.80145916,62c50e9c1127f2cd403a315f,0,73,73,125,1,threefour,,,,,,,,,,,,,,,,,,,,,,,,,,,,,,,,,,,,,,,,,,,,,,,,,,,,,,,,,,,,,,,,,,,,,,,,,,,,,,,,,,,,,,,,,,,,,,,,,,,,,,,,,,,,,,,,,,,,,,,,,,,,,,,,,,,,,,,,,,,,,,,,,,,,,,,,,,,,,
,,,,,,6033fdc84080ea000c633420,62c53a4e92a902606b3a3162,2022-07-06_09h31.41.432,Colour_Asymmetry_Pilot,2022.1.3,Win32,59.80145916,62c50e9c1127f2cd403a315f,0,74,74,57,1,onethree,,,,,,,,,,,,,,,,,,,,,,,,,,,,,,,,,,,,,,,,,,,,,,,,,,,,,,,,,,,,,,,,,,,,,,,,,,,,,,,,,,,,,,,,,,,,,,,,,,,,,,,,,,,,,,,,,,,,,,,,,,,,,,,,,,,,,,,,,,,,,,,,,,,,,,,,,,,,,
,,,,,,6033fdc84080ea000c633420,62c53a4e92a902606b3a3162,2022-07-06_09h31.41.432,Colour_Asymmetry_Pilot,2022.1.3,Win32,59.80145916,62c50e9c1127f2cd403a315f,0,75,75,132,1,threeone,,,,,,,,,,,,,,,,,,,,,,,,,,,,,,,,,,,,,,,,,,,,,,,,,,,,,,,,,,,,,,,,,,,,,,,,,,,,,,,,,,,,,,,,,,,,,,,,,,,,,,,,,,,,,,,,,,,,,,,,,,,,,,,,,,,,,,,,,,,,,,,,,,,,,,,,,,,,,
,,,,,,6033fdc84080ea000c633420,62c53a4e92a902606b3a3162,2022-07-06_09h31.41.432,Colour_Asymmetry_Pilot,2022.1.3,Win32,59.80145916,62c50e9c1127f2cd403a315f,0,76,76,1,1,onethree,,,,,,,,,,,,,,,,,,,,,,,,,,,,,,,,,,,,,,,,,,,,,,,,,,,,,,,,,,,,,,,,,,,,,,,,,,,,,,,,,,,,,,,,,,,,,,,,,,,,,,,,,,,,,,,,,,,,,,,,,,,,,,,,,,,,,,,,,,,,,,,,,,,,,,,,,,,,,
,,,,,,6033fdc84080ea000c633420,62c53a4e92a902606b3a3162,2022-07-06_09h31.41.432,Colour_Asymmetry_Pilot,2022.1.3,Win32,59.80145916,62c50e9c1127f2cd403a315f,0,77,77,155,1,twofour,,,,,,,,,,,,,,,,,,,,,,,,,,,,,,,,,,,,,,,,,,,,,,,,,,,,,,,,,,,,,,,,,,,,,,,,,,,,,,,,,,,,,,,,,,,,,,,,,,,,,,,,,,,,,,,,,,,,,,,,,,,,,,,,,,,,,,,,,,,,,,,,,,,,,,,,,,,,,
,,,,,,6033fdc84080ea000c633420,62c53a4e92a902606b3a3162,2022-07-06_09h31.41.432,Colour_Asymmetry_Pilot,2022.1.3,Win32,59.80145916,62c50e9c1127f2cd403a315f,0,78,78,15,1,fourthree,,,,,,,,,,,,,,,,,,,,,,,,,,,,,,,,,,,,,,,,,,,,,,,,,,,,,,,,,,,,,,,,,,,,,,,,,,,,,,,,,,,,,,,,,,,,,,,,,,,,,,,,,,,,,,,,,,,,,,,,,,,,,,,,,,,,,,,,,,,,,,,,,,,,,,,,,,,,,
,,,,,,6033fdc84080ea000c633420,62c53a4e92a902606b3a3162,2022-07-06_09h31.41.432,Colour_Asymmetry_Pilot,2022.1.3,Win32,59.80145916,62c50e9c1127f2cd403a315f,0,79,79,145,1,onethree,,,,,,,,,,,,,,,,,,,,,,,,,,,,,,,,,,,,,,,,,,,,,,,,,,,,,,,,,,,,,,,,,,,,,,,,,,,,,,,,,,,,,,,,,,,,,,,,,,,,,,,,,,,,,,,,,,,,,,,,,,,,,,,,,,,,,,,,,,,,,,,,,,,,,,,,,,,,,
,,,,,,6033fdc84080ea000c633420,62c53a4e92a902606b3a3162,2022-07-06_09h31.41.432,Colour_Asymmetry_Pilot,2022.1.3,Win32,59.80145916,62c50e9c1127f2cd403a315f,0,80,80,35,1,twofour,,,,,,,,,,,,,,,,,,,,,,,,,,,,,,,,,,,,,,,,,,,,,,,,,,,,,,,,,,,,,,,,,,,,,,,,,,,,,,,,,,,,,,,,,,,,,,,,,,,,,,,,,,,,,,,,,,,,,,,,,,,,,,,,,,,,,,,,,,,,,,,,,,,,,,,,,,,,,
,,,,,,6033fdc84080ea000c633420,62c53a4e92a902606b3a3162,2022-07-06_09h31.41.432,Colour_Asymmetry_Pilot,2022.1.3,Win32,59.80145916,62c50e9c1127f2cd403a315f,0,81,81,63,1,fourthree,,,,,,,,,,,,,,,,,,,,,,,,,,,,,,,,,,,,,,,,,,,,,,,,,,,,,,,,,,,,,,,,,,,,,,,,,,,,,,,,,,,,,,,,,,,,,,,,,,,,,,,,,,,,,,,,,,,,,,,,,,,,,,,,,,,,,,,,,,,,,,,,,,,,,,,,,,,,,
,,,,,,6033fdc84080ea000c633420,62c53a4e92a902606b3a3162,2022-07-06_09h31.41.432,Colour_Asymmetry_Pilot,2022.1.3,Win32,59.80145916,62c50e9c1127f2cd403a315f,0,82,82,29,1,threefour,,,,,,,,,,,,,,,,,,,,,,,,,,,,,,,,,,,,,,,,,,,,,,,,,,,,,,,,,,,,,,,,,,,,,,,,,,,,,,,,,,,,,,,,,,,,,,,,,,,,,,,,,,,,,,,,,,,,,,,,,,,,,,,,,,,,,,,,,,,,,,,,,,,,,,,,,,,,,
,,,,,,6033fdc84080ea000c633420,62c53a4e92a902606b3a3162,2022-07-06_09h31.41.432,Colour_Asymmetry_Pilot,2022.1.3,Win32,59.80145916,62c50e9c1127f2cd403a315f,0,83,83,39,1,fourthree,,,,,,,,,,,,,,,,,,,,,,,,,,,,,,,,,,,,,,,,,,,,,,,,,,,,,,,,,,,,,,,,,,,,,,,,,,,,,,,,,,,,,,,,,,,,,,,,,,,,,,,,,,,,,,,,,,,,,,,,,,,,,,,,,,,,,,,,,,,,,,,,,,,,,,,,,,,,,
,,,,,,6033fdc84080ea000c633420,62c53a4e92a902606b3a3162,2022-07-06_09h31.41.432,Colour_Asymmetry_Pilot,2022.1.3,Win32,59.80145916,62c50e9c1127f2cd403a315f,0,84,84,102,1,fourtwo,,,,,,,,,,,,,,,,,,,,,,,,,,,,,,,,,,,,,,,,,,,,,,,,,,,,,,,,,,,,,,,,,,,,,,,,,,,,,,,,,,,,,,,,,,,,,,,,,,,,,,,,,,,,,,,,,,,,,,,,,,,,,,,,,,,,,,,,,,,,,,,,,,,,,,,,,,,,,
,,,,,,6033fdc84080ea000c633420,62c53a4e92a902606b3a3162,2022-07-06_09h31.41.432,Colour_Asymmetry_Pilot,2022.1.3,Win32,59.80145916,62c50e9c1127f2cd403a315f,0,85,85,137,1,onethree,,,,,,,,,,,,,,,,,,,,,,,,,,,,,,,,,,,,,,,,,,,,,,,,,,,,,,,,,,,,,,,,,,,,,,,,,,,,,,,,,,,,,,,,,,,,,,,,,,,,,,,,,,,,,,,,,,,,,,,,,,,,,,,,,,,,,,,,,,,,,,,,,,,,,,,,,,,,,
,,,,,,6033fdc84080ea000c633420,62c53a4e92a902606b3a3162,2022-07-06_09h31.41.432,Colour_Asymmetry_Pilot,2022.1.3,Win32,59.80145916,62c50e9c1127f2cd403a315f,0,86,86,135,1,fourthree,,,,,,,,,,,,,,,,,,,,,,,,,,,,,,,,,,,,,,,,,,,,,,,,,,,,,,,,,,,,,,,,,,,,,,,,,,,,,,,,,,,,,,,,,,,,,,,,,,,,,,,,,,,,,,,,,,,,,,,,,,,,,,,,,,,,,,,,,,,,,,,,,,,,,,,,,,,,,
,,,,,,6033fdc84080ea000c633420,62c53a4e92a902606b3a3162,2022-07-06_09h31.41.432,Colour_Asymmetry_Pilot,2022.1.3,Win32,59.80145916,62c50e9c1127f2cd403a315f,0,87,87,115,1,twofour,,,,,,,,,,,,,,,,,,,,,,,,,,,,,,,,,,,,,,,,,,,,,,,,,,,,,,,,,,,,,,,,,,,,,,,,,,,,,,,,,,,,,,,,,,,,,,,,,,,,,,,,,,,,,,,,,,,,,,,,,,,,,,,,,,,,,,,,,,,,,,,,,,,,,,,,,,,,,
,,,,,,6033fdc84080ea000c633420,62c53a4e92a902606b3a3162,2022-07-06_09h31.41.432,Colour_Asymmetry_Pilot,2022.1.3,Win32,59.80145916,62c50e9c1127f2cd403a315f,0,88,88,150,1,fourtwo,,,,,,,,,,,,,,,,,,,,,,,,,,,,,,,,,,,,,,,,,,,,,,,,,,,,,,,,,,,,,,,,,,,,,,,,,,,,,,,,,,,,,,,,,,,,,,,,,,,,,,,,,,,,,,,,,,,,,,,,,,,,,,,,,,,,,,,,,,,,,,,,,,,,,,,,,,,,,
,,,,,,6033fdc84080ea000c633420,62c53a4e92a902606b3a3162,2022-07-06_09h31.41.432,Colour_Asymmetry_Pilot,2022.1.3,Win32,59.80145916,62c50e9c1127f2cd403a315f,0,89,89,71,1,fourthree,,,,,,,,,,,,,,,,,,,,,,,,,,,,,,,,,,,,,,,,,,,,,,,,,,,,,,,,,,,,,,,,,,,,,,,,,,,,,,,,,,,,,,,,,,,,,,,,,,,,,,,,,,,,,,,,,,,,,,,,,,,,,,,,,,,,,,,,,,,,,,,,,,,,,,,,,,,,,
,,,,,,6033fdc84080ea000c633420,62c53a4e92a902606b3a3162,2022-07-06_09h31.41.432,Colour_Asymmetry_Pilot,2022.1.3,Win32,59.80145916,62c50e9c1127f2cd403a315f,0,90,90,127,1,fourthree,,,,,,,,,,,,,,,,,,,,,,,,,,,,,,,,,,,,,,,,,,,,,,,,,,,,,,,,,,,,,,,,,,,,,,,,,,,,,,,,,,,,,,,,,,,,,,,,,,,,,,,,,,,,,,,,,,,,,,,,,,,,,,,,,,,,,,,,,,,,,,,,,,,,,,,,,,,,,
,,,,,,6033fdc84080ea000c633420,62c53a4e92a902606b3a3162,2022-07-06_09h31.41.432,Colour_Asymmetry_Pilot,2022.1.3,Win32,59.80145916,62c50e9c1127f2cd403a315f,0,91,91,136,1,onetwo,,,,,,,,,,,,,,,,,,,,,,,,,,,,,,,,,,,,,,,,,,,,,,,,,,,,,,,,,,,,,,,,,,,,,,,,,,,,,,,,,,,,,,,,,,,,,,,,,,,,,,,,,,,,,,,,,,,,,,,,,,,,,,,,,,,,,,,,,,,,,,,,,,,,,,,,,,,,,
,,,,,,6033fdc84080ea000c633420,62c53a4e92a902606b3a3162,2022-07-06_09h31.41.432,Colour_Asymmetry_Pilot,2022.1.3,Win32,59.80145916,62c50e9c1127f2cd403a315f,0,92,92,37,1,threefour,,,,,,,,,,,,,,,,,,,,,,,,,,,,,,,,,,,,,,,,,,,,,,,,,,,,,,,,,,,,,,,,,,,,,,,,,,,,,,,,,,,,,,,,,,,,,,,,,,,,,,,,,,,,,,,,,,,,,,,,,,,,,,,,,,,,,,,,,,,,,,,,,,,,,,,,,,,,,
,,,,,,6033fdc84080ea000c633420,62c53a4e92a902606b3a3162,2022-07-06_09h31.41.432,Colour_Asymmetry_Pilot,2022.1.3,Win32,59.80145916,62c50e9c1127f2cd403a315f,0,93,93,124,1,threeone,,,,,,,,,,,,,,,,,,,,,,,,,,,,,,,,,,,,,,,,,,,,,,,,,,,,,,,,,,,,,,,,,,,,,,,,,,,,,,,,,,,,,,,,,,,,,,,,,,,,,,,,,,,,,,,,,,,,,,,,,,,,,,,,,,,,,,,,,,,,,,,,,,,,,,,,,,,,,
,,,,,,6033fdc84080ea000c633420,62c53a4e92a902606b3a3162,2022-07-06_09h31.41.432,Colour_Asymmetry_Pilot,2022.1.3,Win32,59.80145916,62c50e9c1127f2cd403a315f,0,94,94,88,1,onetwo,,,,,,,,,,,,,,,,,,,,,,,,,,,,,,,,,,,,,,,,,,,,,,,,,,,,,,,,,,,,,,,,,,,,,,,,,,,,,,,,,,,,,,,,,,,,,,,,,,,,,,,,,,,,,,,,,,,,,,,,,,,,,,,,,,,,,,,,,,,,,,,,,,,,,,,,,,,,,
,,,,,,6033fdc84080ea000c633420,62c53a4e92a902606b3a3162,2022-07-06_09h31.41.432,Colour_Asymmetry_Pilot,2022.1.3,Win32,59.80145916,62c50e9c1127f2cd403a315f,0,95,95,157,1,threefour,,,,,,,,,,,,,,,,,,,,,,,,,,,,,,,,,,,,,,,,,,,,,,,,,,,,,,,,,,,,,,,,,,,,,,,,,,,,,,,,,,,,,,,,,,,,,,,,,,,,,,,,,,,,,,,,,,,,,,,,,,,,,,,,,,,,,,,,,,,,,,,,,,,,,,,,,,,,,
,,,,,,6033fdc84080ea000c633420,62c53a4e92a902606b3a3162,2022-07-06_09h31.41.432,Colour_Asymmetry_Pilot,2022.1.3,Win32,59.80145916,62c50e9c1127f2cd403a315f,0,96,96,23,1,fourthree,,,,,,,,,,,,,,,,,,,,,,,,,,,,,,,,,,,,,,,,,,,,,,,,,,,,,,,,,,,,,,,,,,,,,,,,,,,,,,,,,,,,,,,,,,,,,,,,,,,,,,,,,,,,,,,,,,,,,,,,,,,,,,,,,,,,,,,,,,,,,,,,,,,,,,,,,,,,,
,,,,,,6033fdc84080ea000c633420,62c53a4e92a902606b3a3162,2022-07-06_09h31.41.432,Colour_Asymmetry_Pilot,2022.1.3,Win32,59.80145916,62c50e9c1127f2cd403a315f,0,97,97,156,1,threeone,,,,,,,,,,,,,,,,,,,,,,,,,,,,,,,,,,,,,,,,,,,,,,,,,,,,,,,,,,,,,,,,,,,,,,,,,,,,,,,,,,,,,,,,,,,,,,,,,,,,,,,,,,,,,,,,,,,,,,,,,,,,,,,,,,,,,,,,,,,,,,,,,,,,,,,,,,,,,
,,,,,,6033fdc84080ea000c633420,62c53a4e92a902606b3a3162,2022-07-06_09h31.41.432,Colour_Asymmetry_Pilot,2022.1.3,Win32,59.80145916,62c50e9c1127f2cd403a315f,0,98,98,144,1,onetwo,,,,,,,,,,,,,,,,,,,,,,,,,,,,,,,,,,,,,,,,,,,,,,,,,,,,,,,,,,,,,,,,,,,,,,,,,,,,,,,,,,,,,,,,,,,,,,,,,,,,,,,,,,,,,,,,,,,,,,,,,,,,,,,,,,,,,,,,,,,,,,,,,,,,,,,,,,,,,
,,,,,,6033fdc84080ea000c633420,62c53a4e92a902606b3a3162,2022-07-06_09h31.41.432,Colour_Asymmetry_Pilot,2022.1.3,Win32,59.80145916,62c50e9c1127f2cd403a315f,0,99,99,106,1,twoone,,,,,,,,,,,,,,,,,,,,,,,,,,,,,,,,,,,,,,,,,,,,,,,,,,,,,,,,,,,,,,,,,,,,,,,,,,,,,,,,,,,,,,,,,,,,,,,,,,,,,,,,,,,,,,,,,,,,,,,,,,,,,,,,,,,,,,,,,,,,,,,,,,,,,,,,,,,,,
,,,,,,6033fdc84080ea000c633420,62c53a4e92a902606b3a3162,2022-07-06_09h31.41.432,Colour_Asymmetry_Pilot,2022.1.3,Win32,59.80145916,62c50e9c1127f2cd403a315f,0,100,100,128,1,onetwo,,,,,,,,,,,,,,,,,,,,,,,,,,,,,,,,,,,,,,,,,,,,,,,,,,,,,,,,,,,,,,,,,,,,,,,,,,,,,,,,,,,,,,,,,,,,,,,,,,,,,,,,,,,,,,,,,,,,,,,,,,,,,,,,,,,,,,,,,,,,,,,,,,,,,,,,,,,,,
,,,,,,6033fdc84080ea000c633420,62c53a4e92a902606b3a3162,2022-07-06_09h31.41.432,Colour_Asymmetry_Pilot,2022.1.3,Win32,59.80145916,62c50e9c1127f2cd403a315f,0,101,101,0,1,onetwo,,,,,,,,,,,,,,,,,,,,,,,,,,,,,,,,,,,,,,,,,,,,,,,,,,,,,,,,,,,,,,,,,,,,,,,,,,,,,,,,,,,,,,,,,,,,,,,,,,,,,,,,,,,,,,,,,,,,,,,,,,,,,,,,,,,,,,,,,,,,,,,,,,,,,,,,,,,,,
,,,,,,6033fdc84080ea000c633420,62c53a4e92a902606b3a3162,2022-07-06_09h31.41.432,Colour_Asymmetry_Pilot,2022.1.3,Win32,59.80145916,62c50e9c1127f2cd403a315f,0,102,102,123,1,twofour,,,,,,,,,,,,,,,,,,,,,,,,,,,,,,,,,,,,,,,,,,,,,,,,,,,,,,,,,,,,,,,,,,,,,,,,,,,,,,,,,,,,,,,,,,,,,,,,,,,,,,,,,,,,,,,,,,,,,,,,,,,,,,,,,,,,,,,,,,,,,,,,,,,,,,,,,,,,,
,,,,,,6033fdc84080ea000c633420,62c53a4e92a902606b3a3162,2022-07-06_09h31.41.432,Colour_Asymmetry_Pilot,2022.1.3,Win32,59.80145916,62c50e9c1127f2cd403a315f,0,103,103,105,1,onethree,,,,,,,,,,,,,,,,,,,,,,,,,,,,,,,,,,,,,,,,,,,,,,,,,,,,,,,,,,,,,,,,,,,,,,,,,,,,,,,,,,,,,,,,,,,,,,,,,,,,,,,,,,,,,,,,,,,,,,,,,,,,,,,,,,,,,,,,,,,,,,,,,,,,,,,,,,,,,
,,,,,,6033fdc84080ea000c633420,62c53a4e92a902606b3a3162,2022-07-06_09h31.41.432,Colour_Asymmetry_Pilot,2022.1.3,Win32,59.80145916,62c50e9c1127f2cd403a315f,0,104,104,4,1,threeone,,,,,,,,,,,,,,,,,,,,,,,,,,,,,,,,,,,,,,,,,,,,,,,,,,,,,,,,,,,,,,,,,,,,,,,,,,,,,,,,,,,,,,,,,,,,,,,,,,,,,,,,,,,,,,,,,,,,,,,,,,,,,,,,,,,,,,,,,,,,,,,,,,,,,,,,,,,,,
,,,,,,6033fdc84080ea000c633420,62c53a4e92a902606b3a3162,2022-07-06_09h31.41.432,Colour_Asymmetry_Pilot,2022.1.3,Win32,59.80145916,62c50e9c1127f2cd403a315f,0,105,105,54,1,fourtwo,,,,,,,,,,,,,,,,,,,,,,,,,,,,,,,,,,,,,,,,,,,,,,,,,,,,,,,,,,,,,,,,,,,,,,,,,,,,,,,,,,,,,,,,,,,,,,,,,,,,,,,,,,,,,,,,,,,,,,,,,,,,,,,,,,,,,,,,,,,,,,,,,,,,,,,,,,,,,
,,,,,,6033fdc84080ea000c633420,62c53a4e92a902606b3a3162,2022-07-06_09h31.41.432,Colour_Asymmetry_Pilot,2022.1.3,Win32,59.80145916,62c50e9c1127f2cd403a315f,0,106,106,73,1,onethree,,,,,,,,,,,,,,,,,,,,,,,,,,,,,,,,,,,,,,,,,,,,,,,,,,,,,,,,,,,,,,,,,,,,,,,,,,,,,,,,,,,,,,,,,,,,,,,,,,,,,,,,,,,,,,,,,,,,,,,,,,,,,,,,,,,,,,,,,,,,,,,,,,,,,,,,,,,,,
,,,,,,6033fdc84080ea000c633420,62c53a4e92a902606b3a3162,2022-07-06_09h31.41.432,Colour_Asymmetry_Pilot,2022.1.3,Win32,59.80145916,62c50e9c1127f2cd403a315f,0,107,107,31,1,fourthree,,,,,,,,,,,,,,,,,,,,,,,,,,,,,,,,,,,,,,,,,,,,,,,,,,,,,,,,,,,,,,,,,,,,,,,,,,,,,,,,,,,,,,,,,,,,,,,,,,,,,,,,,,,,,,,,,,,,,,,,,,,,,,,,,,,,,,,,,,,,,,,,,,,,,,,,,,,,,
,,,,,,6033fdc84080ea000c633420,62c53a4e92a902606b3a3162,2022-07-06_09h31.41.432,Colour_Asymmetry_Pilot,2022.1.3,Win32,59.80145916,62c50e9c1127f2cd403a315f,0,108,108,148,1,threeone,,,,,,,,,,,,,,,,,,,,,,,,,,,,,,,,,,,,,,,,,,,,,,,,,,,,,,,,,,,,,,,,,,,,,,,,,,,,,,,,,,,,,,,,,,,,,,,,,,,,,,,,,,,,,,,,,,,,,,,,,,,,,,,,,,,,,,,,,,,,,,,,,,,,,,,,,,,,,
,,,,,,6033fdc84080ea000c633420,62c53a4e92a902606b3a3162,2022-07-06_09h31.41.432,Colour_Asymmetry_Pilot,2022.1.3,Win32,59.80145916,62c50e9c1127f2cd403a315f,0,109,109,42,1,twoone,,,,,,,,,,,,,,,,,,,,,,,,,,,,,,,,,,,,,,,,,,,,,,,,,,,,,,,,,,,,,,,,,,,,,,,,,,,,,,,,,,,,,,,,,,,,,,,,,,,,,,,,,,,,,,,,,,,,,,,,,,,,,,,,,,,,,,,,,,,,,,,,,,,,,,,,,,,,,
,,,,,,6033fdc84080ea000c633420,62c53a4e92a902606b3a3162,2022-07-06_09h31.41.432,Colour_Asymmetry_Pilot,2022.1.3,Win32,59.80145916,62c50e9c1127f2cd403a315f,0,110,110,104,1,onetwo,,,,,,,,,,,,,,,,,,,,,,,,,,,,,,,,,,,,,,,,,,,,,,,,,,,,,,,,,,,,,,,,,,,,,,,,,,,,,,,,,,,,,,,,,,,,,,,,,,,,,,,,,,,,,,,,,,,,,,,,,,,,,,,,,,,,,,,,,,,,,,,,,,,,,,,,,,,,,
,,,,,,6033fdc84080ea000c633420,62c53a4e92a902606b3a3162,2022-07-06_09h31.41.432,Colour_Asymmetry_Pilot,2022.1.3,Win32,59.80145916,62c50e9c1127f2cd403a315f,0,111,111,94,1,fourtwo,,,,,,,,,,,,,,,,,,,,,,,,,,,,,,,,,,,,,,,,,,,,,,,,,,,,,,,,,,,,,,,,,,,,,,,,,,,,,,,,,,,,,,,,,,,,,,,,,,,,,,,,,,,,,,,,,,,,,,,,,,,,,,,,,,,,,,,,,,,,,,,,,,,,,,,,,,,,,
,,,,,,6033fdc84080ea000c633420,62c53a4e92a902606b3a3162,2022-07-06_09h31.41.432,Colour_Asymmetry_Pilot,2022.1.3,Win32,59.80145916,62c50e9c1127f2cd403a315f,0,112,112,110,1,fourtwo,,,,,,,,,,,,,,,,,,,,,,,,,,,,,,,,,,,,,,,,,,,,,,,,,,,,,,,,,,,,,,,,,,,,,,,,,,,,,,,,,,,,,,,,,,,,,,,,,,,,,,,,,,,,,,,,,,,,,,,,,,,,,,,,,,,,,,,,,,,,,,,,,,,,,,,,,,,,,
,,,,,,6033fdc84080ea000c633420,62c53a4e92a902606b3a3162,2022-07-06_09h31.41.432,Colour_Asymmetry_Pilot,2022.1.3,Win32,59.80145916,62c50e9c1127f2cd403a315f,0,113,113,97,1,onethree,,,,,,,,,,,,,,,,,,,,,,,,,,,,,,,,,,,,,,,,,,,,,,,,,,,,,,,,,,,,,,,,,,,,,,,,,,,,,,,,,,,,,,,,,,,,,,,,,,,,,,,,,,,,,,,,,,,,,,,,,,,,,,,,,,,,,,,,,,,,,,,,,,,,,,,,,,,,,
,,,,,,6033fdc84080ea000c633420,62c53a4e92a902606b3a3162,2022-07-06_09h31.41.432,Colour_Asymmetry_Pilot,2022.1.3,Win32,59.80145916,62c50e9c1127f2cd403a315f,0,114,114,11,1,twofour,,,,,,,,,,,,,,,,,,,,,,,,,,,,,,,,,,,,,,,,,,,,,,,,,,,,,,,,,,,,,,,,,,,,,,,,,,,,,,,,,,,,,,,,,,,,,,,,,,,,,,,,,,,,,,,,,,,,,,,,,,,,,,,,,,,,,,,,,,,,,,,,,,,,,,,,,,,,,
,,,,,,6033fdc84080ea000c633420,62c53a4e92a902606b3a3162,2022-07-06_09h31.41.432,Colour_Asymmetry_Pilot,2022.1.3,Win32,59.80145916,62c50e9c1127f2cd403a315f,0,115,115,27,1,twofour,,,,,,,,,,,,,,,,,,,,,,,,,,,,,,,,,,,,,,,,,,,,,,,,,,,,,,,,,,,,,,,,,,,,,,,,,,,,,,,,,,,,,,,,,,,,,,,,,,,,,,,,,,,,,,,,,,,,,,,,,,,,,,,,,,,,,,,,,,,,,,,,,,,,,,,,,,,,,
,,,,,,6033fdc84080ea000c633420,62c53a4e92a902606b3a3162,2022-07-06_09h31.41.432,Colour_Asymmetry_Pilot,2022.1.3,Win32,59.80145916,62c50e9c1127f2cd403a315f,0,116,116,109,1,threefour,,,,,,,,,,,,,,,,,,,,,,,,,,,,,,,,,,,,,,,,,,,,,,,,,,,,,,,,,,,,,,,,,,,,,,,,,,,,,,,,,,,,,,,,,,,,,,,,,,,,,,,,,,,,,,,,,,,,,,,,,,,,,,,,,,,,,,,,,,,,,,,,,,,,,,,,,,,,,
,,,,,,6033fdc84080ea000c633420,62c53a4e92a902606b3a3162,2022-07-06_09h31.41.432,Colour_Asymmetry_Pilot,2022.1.3,Win32,59.80145916,62c50e9c1127f2cd403a315f,0,117,117,67,1,twofour,,,,,,,,,,,,,,,,,,,,,,,,,,,,,,,,,,,,,,,,,,,,,,,,,,,,,,,,,,,,,,,,,,,,,,,,,,,,,,,,,,,,,,,,,,,,,,,,,,,,,,,,,,,,,,,,,,,,,,,,,,,,,,,,,,,,,,,,,,,,,,,,,,,,,,,,,,,,,
,,,,,,6033fdc84080ea000c633420,62c53a4e92a902606b3a3162,2022-07-06_09h31.41.432,Colour_Asymmetry_Pilot,2022.1.3,Win32,59.80145916,62c50e9c1127f2cd403a315f,0,118,118,8,1,onetwo,,,,,,,,,,,,,,,,,,,,,,,,,,,,,,,,,,,,,,,,,,,,,,,,,,,,,,,,,,,,,,,,,,,,,,,,,,,,,,,,,,,,,,,,,,,,,,,,,,,,,,,,,,,,,,,,,,,,,,,,,,,,,,,,,,,,,,,,,,,,,,,,,,,,,,,,,,,,,
,,,,,,6033fdc84080ea000c633420,62c53a4e92a902606b3a3162,2022-07-06_09h31.41.432,Colour_Asymmetry_Pilot,2022.1.3,Win32,59.80145916,62c50e9c1127f2cd403a315f,0,119,119,13,1,threefour,,,,,,,,,,,,,,,,,,,,,,,,,,,,,,,,,,,,,,,,,,,,,,,,,,,,,,,,,,,,,,,,,,,,,,,,,,,,,,,,,,,,,,,,,,,,,,,,,,,,,,,,,,,,,,,,,,,,,,,,,,,,,,,,,,,,,,,,,,,,,,,,,,,,,,,,,,,,,
,,,,,,6033fdc84080ea000c633420,62c53a4e92a902606b3a3162,2022-07-06_09h31.41.432,Colour_Asymmetry_Pilot,2022.1.3,Win32,59.80145916,62c50e9c1127f2cd403a315f,0,120,120,96,1,onetwo,,,,,,,,,,,,,,,,,,,,,,,,,,,,,,,,,,,,,,,,,,,,,,,,,,,,,,,,,,,,,,,,,,,,,,,,,,,,,,,,,,,,,,,,,,,,,,,,,,,,,,,,,,,,,,,,,,,,,,,,,,,,,,,,,,,,,,,,,,,,,,,,,,,,,,,,,,,,,
,,,,,,6033fdc84080ea000c633420,62c53a4e92a902606b3a3162,2022-07-06_09h31.41.432,Colour_Asymmetry_Pilot,2022.1.3,Win32,59.80145916,62c50e9c1127f2cd403a315f,0,121,121,160,1,onetwo,,,,,,,,,,,,,,,,,,,,,,,,,,,,,,,,,,,,,,,,,,,,,,,,,,,,,,,,,,,,,,,,,,,,,,,,,,,,,,,,,,,,,,,,,,,,,,,,,,,,,,,,,,,,,,,,,,,,,,,,,,,,,,,,,,,,,,,,,,,,,,,,,,,,,,,,,,,,,
,,,,,,6033fdc84080ea000c633420,62c53a4e92a902606b3a3162,2022-07-06_09h31.41.432,Colour_Asymmetry_Pilot,2022.1.3,Win32,59.80145916,62c50e9c1127f2cd403a315f,0,122,122,38,1,fourtwo,,,,,,,,,,,,,,,,,,,,,,,,,,,,,,,,,,,,,,,,,,,,,,,,,,,,,,,,,,,,,,,,,,,,,,,,,,,,,,,,,,,,,,,,,,,,,,,,,,,,,,,,,,,,,,,,,,,,,,,,,,,,,,,,,,,,,,,,,,,,,,,,,,,,,,,,,,,,,
,,,,,,6033fdc84080ea000c633420,62c53a4e92a902606b3a3162,2022-07-06_09h31.41.432,Colour_Asymmetry_Pilot,2022.1.3,Win32,59.80145916,62c50e9c1127f2cd403a315f,0,123,123,152,1,onetwo,,,,,,,,,,,,,,,,,,,,,,,,,,,,,,,,,,,,,,,,,,,,,,,,,,,,,,,,,,,,,,,,,,,,,,,,,,,,,,,,,,,,,,,,,,,,,,,,,,,,,,,,,,,,,,,,,,,,,,,,,,,,,,,,,,,,,,,,,,,,,,,,,,,,,,,,,,,,,
,,,,,,6033fdc84080ea000c633420,62c53a4e92a902606b3a3162,2022-07-06_09h31.41.432,Colour_Asymmetry_Pilot,2022.1.3,Win32,59.80145916,62c50e9c1127f2cd403a315f,0,124,124,45,1,threefour,,,,,,,,,,,,,,,,,,,,,,,,,,,,,,,,,,,,,,,,,,,,,,,,,,,,,,,,,,,,,,,,,,,,,,,,,,,,,,,,,,,,,,,,,,,,,,,,,,,,,,,,,,,,,,,,,,,,,,,,,,,,,,,,,,,,,,,,,,,,,,,,,,,,,,,,,,,,,
,,,,,,6033fdc84080ea000c633420,62c53a4e92a902606b3a3162,2022-07-06_09h31.41.432,Colour_Asymmetry_Pilot,2022.1.3,Win32,59.80145916,62c50e9c1127f2cd403a315f,0,125,125,24,1,onetwo,,,,,,,,,,,,,,,,,,,,,,,,,,,,,,,,,,,,,,,,,,,,,,,,,,,,,,,,,,,,,,,,,,,,,,,,,,,,,,,,,,,,,,,,,,,,,,,,,,,,,,,,,,,,,,,,,,,,,,,,,,,,,,,,,,,,,,,,,,,,,,,,,,,,,,,,,,,,,
,,,,,,6033fdc84080ea000c633420,62c53a4e92a902606b3a3162,2022-07-06_09h31.41.432,Colour_Asymmetry_Pilot,2022.1.3,Win32,59.80145916,62c50e9c1127f2cd403a315f,0,126,126,129,1,onethree,,,,,,,,,,,,,,,,,,,,,,,,,,,,,,,,,,,,,,,,,,,,,,,,,,,,,,,,,,,,,,,,,,,,,,,,,,,,,,,,,,,,,,,,,,,,,,,,,,,,,,,,,,,,,,,,,,,,,,,,,,,,,,,,,,,,,,,,,,,,,,,,,,,,,,,,,,,,,
,,,,,,6033fdc84080ea000c633420,62c53a4e92a902606b3a3162,2022-07-06_09h31.41.432,Colour_Asymmetry_Pilot,2022.1.3,Win32,59.80145916,62c50e9c1127f2cd403a315f,0,127,127,64,1,onetwo,,,,,,,,,,,,,,,,,,,,,,,,,,,,,,,,,,,,,,,,,,,,,,,,,,,,,,,,,,,,,,,,,,,,,,,,,,,,,,,,,,,,,,,,,,,,,,,,,,,,,,,,,,,,,,,,,,,,,,,,,,,,,,,,,,,,,,,,,,,,,,,,,,,,,,,,,,,,,
,,,,,,6033fdc84080ea000c633420,62c53a4e92a902606b3a3162,2022-07-06_09h31.41.432,Colour_Asymmetry_Pilot,2022.1.3,Win32,59.80145916,62c50e9c1127f2cd403a315f,0,128,128,33,1,onethree,,,,,,,,,,,,,,,,,,,,,,,,,,,,,,,,,,,,,,,,,,,,,,,,,,,,,,,,,,,,,,,,,,,,,,,,,,,,,,,,,,,,,,,,,,,,,,,,,,,,,,,,,,,,,,,,,,,,,,,,,,,,,,,,,,,,,,,,,,,,,,,,,,,,,,,,,,,,,
,,,,,,6033fdc84080ea000c633420,62c53a4e92a902606b3a3162,2022-07-06_09h31.41.432,Colour_Asymmetry_Pilot,2022.1.3,Win32,59.80145916,62c50e9c1127f2cd403a315f,0,129,129,121,1,onethree,,,,,,,,,,,,,,,,,,,,,,,,,,,,,,,,,,,,,,,,,,,,,,,,,,,,,,,,,,,,,,,,,,,,,,,,,,,,,,,,,,,,,,,,,,,,,,,,,,,,,,,,,,,,,,,,,,,,,,,,,,,,,,,,,,,,,,,,,,,,,,,,,,,,,,,,,,,,,
,,,,,,6033fdc84080ea000c633420,62c53a4e92a902606b3a3162,2022-07-06_09h31.41.432,Colour_Asymmetry_Pilot,2022.1.3,Win32,59.80145916,62c50e9c1127f2cd403a315f,0,130,130,52,1,threeone,,,,,,,,,,,,,,,,,,,,,,,,,,,,,,,,,,,,,,,,,,,,,,,,,,,,,,,,,,,,,,,,,,,,,,,,,,,,,,,,,,,,,,,,,,,,,,,,,,,,,,,,,,,,,,,,,,,,,,,,,,,,,,,,,,,,,,,,,,,,,,,,,,,,,,,,,,,,,
,,,,,,6033fdc84080ea000c633420,62c53a4e92a902606b3a3162,2022-07-06_09h31.41.432,Colour_Asymmetry_Pilot,2022.1.3,Win32,59.80145916,62c50e9c1127f2cd403a315f,0,131,131,48,1,onetwo,,,,,,,,,,,,,,,,,,,,,,,,,,,,,,,,,,,,,,,,,,,,,,,,,,,,,,,,,,,,,,,,,,,,,,,,,,,,,,,,,,,,,,,,,,,,,,,,,,,,,,,,,,,,,,,,,,,,,,,,,,,,,,,,,,,,,,,,,,,,,,,,,,,,,,,,,,,,,
,,,,,,6033fdc84080ea000c633420,62c53a4e92a902606b3a3162,2022-07-06_09h31.41.432,Colour_Asymmetry_Pilot,2022.1.3,Win32,59.80145916,62c50e9c1127f2cd403a315f,0,132,132,89,1,onethree,,,,,,,,,,,,,,,,,,,,,,,,,,,,,,,,,,,,,,,,,,,,,,,,,,,,,,,,,,,,,,,,,,,,,,,,,,,,,,,,,,,,,,,,,,,,,,,,,,,,,,,,,,,,,,,,,,,,,,,,,,,,,,,,,,,,,,,,,,,,,,,,,,,,,,,,,,,,,
,,,,,,6033fdc84080ea000c633420,62c53a4e92a902606b3a3162,2022-07-06_09h31.41.432,Colour_Asymmetry_Pilot,2022.1.3,Win32,59.80145916,62c50e9c1127f2cd403a315f,0,133,133,139,1,twofour,,,,,,,,,,,,,,,,,,,,,,,,,,,,,,,,,,,,,,,,,,,,,,,,,,,,,,,,,,,,,,,,,,,,,,,,,,,,,,,,,,,,,,,,,,,,,,,,,,,,,,,,,,,,,,,,,,,,,,,,,,,,,,,,,,,,,,,,,,,,,,,,,,,,,,,,,,,,,
,,,,,,6033fdc84080ea000c633420,62c53a4e92a902606b3a3162,2022-07-06_09h31.41.432,Colour_Asymmetry_Pilot,2022.1.3,Win32,59.80145916,62c50e9c1127f2cd403a315f,0,134,134,93,1,threefour,,,,,,,,,,,,,,,,,,,,,,,,,,,,,,,,,,,,,,,,,,,,,,,,,,,,,,,,,,,,,,,,,,,,,,,,,,,,,,,,,,,,,,,,,,,,,,,,,,,,,,,,,,,,,,,,,,,,,,,,,,,,,,,,,,,,,,,,,,,,,,,,,,,,,,,,,,,,,
,,,,,,6033fdc84080ea000c633420,62c53a4e92a902606b3a3162,2022-07-06_09h31.41.432,Colour_Asymmetry_Pilot,2022.1.3,Win32,59.80145916,62c50e9c1127f2cd403a315f,0,135,135,82,1,twoone,,,,,,,,,,,,,,,,,,,,,,,,,,,,,,,,,,,,,,,,,,,,,,,,,,,,,,,,,,,,,,,,,,,,,,,,,,,,,,,,,,,,,,,,,,,,,,,,,,,,,,,,,,,,,,,,,,,,,,,,,,,,,,,,,,,,,,,,,,,,,,,,,,,,,,,,,,,,,
,,,,,,6033fdc84080ea000c633420,62c53a4e92a902606b3a3162,2022-07-06_09h31.41.432,Colour_Asymmetry_Pilot,2022.1.3,Win32,59.80145916,62c50e9c1127f2cd403a315f,0,136,136,98,1,twoone,,,,,,,,,,,,,,,,,,,,,,,,,,,,,,,,,,,,,,,,,,,,,,,,,,,,,,,,,,,,,,,,,,,,,,,,,,,,,,,,,,,,,,,,,,,,,,,,,,,,,,,,,,,,,,,,,,,,,,,,,,,,,,,,,,,,,,,,,,,,,,,,,,,,,,,,,,,,,
,,,,,,6033fdc84080ea000c633420,62c53a4e92a902606b3a3162,2022-07-06_09h31.41.432,Colour_Asymmetry_Pilot,2022.1.3,Win32,59.80145916,62c50e9c1127f2cd403a315f,0,137,137,95,1,fourthree,,,,,,,,,,,,,,,,,,,,,,,,,,,,,,,,,,,,,,,,,,,,,,,,,,,,,,,,,,,,,,,,,,,,,,,,,,,,,,,,,,,,,,,,,,,,,,,,,,,,,,,,,,,,,,,,,,,,,,,,,,,,,,,,,,,,,,,,,,,,,,,,,,,,,,,,,,,,,
,,,,,,6033fdc84080ea000c633420,62c53a4e92a902606b3a3162,2022-07-06_09h31.41.432,Colour_Asymmetry_Pilot,2022.1.3,Win32,59.80145916,62c50e9c1127f2cd403a315f,0,138,138,92,1,threeone,,,,,,,,,,,,,,,,,,,,,,,,,,,,,,,,,,,,,,,,,,,,,,,,,,,,,,,,,,,,,,,,,,,,,,,,,,,,,,,,,,,,,,,,,,,,,,,,,,,,,,,,,,,,,,,,,,,,,,,,,,,,,,,,,,,,,,,,,,,,,,,,,,,,,,,,,,,,,
,,,,,,6033fdc84080ea000c633420,62c53a4e92a902606b3a3162,2022-07-06_09h31.41.432,Colour_Asymmetry_Pilot,2022.1.3,Win32,59.80145916,62c50e9c1127f2cd403a315f,0,139,139,18,1,twoone,,,,,,,,,,,,,,,,,,,,,,,,,,,,,,,,,,,,,,,,,,,,,,,,,,,,,,,,,,,,,,,,,,,,,,,,,,,,,,,,,,,,,,,,,,,,,,,,,,,,,,,,,,,,,,,,,,,,,,,,,,,,,,,,,,,,,,,,,,,,,,,,,,,,,,,,,,,,,
,,,,,,6033fdc84080ea000c633420,62c53a4e92a902606b3a3162,2022-07-06_09h31.41.432,Colour_Asymmetry_Pilot,2022.1.3,Win32,59.80145916,62c50e9c1127f2cd403a315f,0,140,140,14,1,fourtwo,,,,,,,,,,,,,,,,,,,,,,,,,,,,,,,,,,,,,,,,,,,,,,,,,,,,,,,,,,,,,,,,,,,,,,,,,,,,,,,,,,,,,,,,,,,,,,,,,,,,,,,,,,,,,,,,,,,,,,,,,,,,,,,,,,,,,,,,,,,,,,,,,,,,,,,,,,,,,
,,,,,,6033fdc84080ea000c633420,62c53a4e92a902606b3a3162,2022-07-06_09h31.41.432,Colour_Asymmetry_Pilot,2022.1.3,Win32,59.80145916,62c50e9c1127f2cd403a315f,0,141,141,50,1,twoone,,,,,,,,,,,,,,,,,,,,,,,,,,,,,,,,,,,,,,,,,,,,,,,,,,,,,,,,,,,,,,,,,,,,,,,,,,,,,,,,,,,,,,,,,,,,,,,,,,,,,,,,,,,,,,,,,,,,,,,,,,,,,,,,,,,,,,,,,,,,,,,,,,,,,,,,,,,,,
,,,,,,6033fdc84080ea000c633420,62c53a4e92a902606b3a3162,2022-07-06_09h31.41.432,Colour_Asymmetry_Pilot,2022.1.3,Win32,59.80145916,62c50e9c1127f2cd403a315f,0,142,142,76,1,threeone,,,,,,,,,,,,,,,,,,,,,,,,,,,,,,,,,,,,,,,,,,,,,,,,,,,,,,,,,,,,,,,,,,,,,,,,,,,,,,,,,,,,,,,,,,,,,,,,,,,,,,,,,,,,,,,,,,,,,,,,,,,,,,,,,,,,,,,,,,,,,,,,,,,,,,,,,,,,,
,,,,,,6033fdc84080ea000c633420,62c53a4e92a902606b3a3162,2022-07-06_09h31.41.432,Colour_Asymmetry_Pilot,2022.1.3,Win32,59.80145916,62c50e9c1127f2cd403a315f,0,143,143,140,1,threeone,,,,,,,,,,,,,,,,,,,,,,,,,,,,,,,,,,,,,,,,,,,,,,,,,,,,,,,,,,,,,,,,,,,,,,,,,,,,,,,,,,,,,,,,,,,,,,,,,,,,,,,,,,,,,,,,,,,,,,,,,,,,,,,,,,,,,,,,,,,,,,,,,,,,,,,,,,,,,
,,,,,,6033fdc84080ea000c633420,62c53a4e92a902606b3a3162,2022-07-06_09h31.41.432,Colour_Asymmetry_Pilot,2022.1.3,Win32,59.80145916,62c50e9c1127f2cd403a315f,0,144,144,55,1,fourthree,,,,,,,,,,,,,,,,,,,,,,,,,,,,,,,,,,,,,,,,,,,,,,,,,,,,,,,,,,,,,,,,,,,,,,,,,,,,,,,,,,,,,,,,,,,,,,,,,,,,,,,,,,,,,,,,,,,,,,,,,,,,,,,,,,,,,,,,,,,,,,,,,,,,,,,,,,,,,
,,,,,,6033fdc84080ea000c633420,62c53a4e92a902606b3a3162,2022-07-06_09h31.41.432,Colour_Asymmetry_Pilot,2022.1.3,Win32,59.80145916,62c50e9c1127f2cd403a315f,0,145,145,26,1,twoone,,,,,,,,,,,,,,,,,,,,,,,,,,,,,,,,,,,,,,,,,,,,,,,,,,,,,,,,,,,,,,,,,,,,,,,,,,,,,,,,,,,,,,,,,,,,,,,,,,,,,,,,,,,,,,,,,,,,,,,,,,,,,,,,,,,,,,,,,,,,,,,,,,,,,,,,,,,,,
,,,,,,6033fdc84080ea000c633420,62c53a4e92a902606b3a3162,2022-07-06_09h31.41.432,Colour_Asymmetry_Pilot,2022.1.3,Win32,59.80145916,62c50e9c1127f2cd403a315f,0,146,146,21,1,threefour,,,,,,,,,,,,,,,,,,,,,,,,,,,,,,,,,,,,,,,,,,,,,,,,,,,,,,,,,,,,,,,,,,,,,,,,,,,,,,,,,,,,,,,,,,,,,,,,,,,,,,,,,,,,,,,,,,,,,,,,,,,,,,,,,,,,,,,,,,,,,,,,,,,,,,,,,,,,,
,,,,,,6033fdc84080ea000c633420,62c53a4e92a902606b3a3162,2022-07-06_09h31.41.432,Colour_Asymmetry_Pilot,2022.1.3,Win32,59.80145916,62c50e9c1127f2cd403a315f,0,147,147,7,1,fourthree,,,,,,,,,,,,,,,,,,,,,,,,,,,,,,,,,,,,,,,,,,,,,,,,,,,,,,,,,,,,,,,,,,,,,,,,,,,,,,,,,,,,,,,,,,,,,,,,,,,,,,,,,,,,,,,,,,,,,,,,,,,,,,,,,,,,,,,,,,,,,,,,,,,,,,,,,,,,,
,,,,,,6033fdc84080ea000c633420,62c53a4e92a902606b3a3162,2022-07-06_09h31.41.432,Colour_Asymmetry_Pilot,2022.1.3,Win32,59.80145916,62c50e9c1127f2cd403a315f,0,148,148,41,1,onethree,,,,,,,,,,,,,,,,,,,,,,,,,,,,,,,,,,,,,,,,,,,,,,,,,,,,,,,,,,,,,,,,,,,,,,,,,,,,,,,,,,,,,,,,,,,,,,,,,,,,,,,,,,,,,,,,,,,,,,,,,,,,,,,,,,,,,,,,,,,,,,,,,,,,,,,,,,,,,
,,,,,,6033fdc84080ea000c633420,62c53a4e92a902606b3a3162,2022-07-06_09h31.41.432,Colour_Asymmetry_Pilot,2022.1.3,Win32,59.80145916,62c50e9c1127f2cd403a315f,0,149,149,16,1,onetwo,,,,,,,,,,,,,,,,,,,,,,,,,,,,,,,,,,,,,,,,,,,,,,,,,,,,,,,,,,,,,,,,,,,,,,,,,,,,,,,,,,,,,,,,,,,,,,,,,,,,,,,,,,,,,,,,,,,,,,,,,,,,,,,,,,,,,,,,,,,,,,,,,,,,,,,,,,,,,
,,,,,,6033fdc84080ea000c633420,62c53a4e92a902606b3a3162,2022-07-06_09h31.41.432,Colour_Asymmetry_Pilot,2022.1.3,Win32,59.80145916,62c50e9c1127f2cd403a315f,0,150,150,60,1,threeone,,,,,,,,,,,,,,,,,,,,,,,,,,,,,,,,,,,,,,,,,,,,,,,,,,,,,,,,,,,,,,,,,,,,,,,,,,,,,,,,,,,,,,,,,,,,,,,,,,,,,,,,,,,,,,,,,,,,,,,,,,,,,,,,,,,,,,,,,,,,,,,,,,,,,,,,,,,,,
,,,,,,6033fdc84080ea000c633420,62c53a4e92a902606b3a3162,2022-07-06_09h31.41.432,Colour_Asymmetry_Pilot,2022.1.3,Win32,59.80145916,62c50e9c1127f2cd403a315f,0,151,151,6,1,fourtwo,,,,,,,,,,,,,,,,,,,,,,,,,,,,,,,,,,,,,,,,,,,,,,,,,,,,,,,,,,,,,,,,,,,,,,,,,,,,,,,,,,,,,,,,,,,,,,,,,,,,,,,,,,,,,,,,,,,,,,,,,,,,,,,,,,,,,,,,,,,,,,,,,,,,,,,,,,,,,
,,,,,,6033fdc84080ea000c633420,62c53a4e92a902606b3a3162,2022-07-06_09h31.41.432,Colour_Asymmetry_Pilot,2022.1.3,Win32,59.80145916,62c50e9c1127f2cd403a315f,0,152,152,56,1,onetwo,,,,,,,,,,,,,,,,,,,,,,,,,,,,,,,,,,,,,,,,,,,,,,,,,,,,,,,,,,,,,,,,,,,,,,,,,,,,,,,,,,,,,,,,,,,,,,,,,,,,,,,,,,,,,,,,,,,,,,,,,,,,,,,,,,,,,,,,,,,,,,,,,,,,,,,,,,,,,
,,,,,,6033fdc84080ea000c633420,62c53a4e92a902606b3a3162,2022-07-06_09h31.41.432,Colour_Asymmetry_Pilot,2022.1.3,Win32,59.80145916,62c50e9c1127f2cd403a315f,0,153,153,80,1,onetwo,,,,,,,,,,,,,,,,,,,,,,,,,,,,,,,,,,,,,,,,,,,,,,,,,,,,,,,,,,,,,,,,,,,,,,,,,,,,,,,,,,,,,,,,,,,,,,,,,,,,,,,,,,,,,,,,,,,,,,,,,,,,,,,,,,,,,,,,,,,,,,,,,,,,,,,,,,,,,
,,,,,,6033fdc84080ea000c633420,62c53a4e92a902606b3a3162,2022-07-06_09h31.41.432,Colour_Asymmetry_Pilot,2022.1.3,Win32,59.80145916,62c50e9c1127f2cd403a315f,0,154,154,108,1,threeone,,,,,,,,,,,,,,,,,,,,,,,,,,,,,,,,,,,,,,,,,,,,,,,,,,,,,,,,,,,,,,,,,,,,,,,,,,,,,,,,,,,,,,,,,,,,,,,,,,,,,,,,,,,,,,,,,,,,,,,,,,,,,,,,,,,,,,,,,,,,,,,,,,,,,,,,,,,,,
,,,,,,6033fdc84080ea000c633420,62c53a4e92a902606b3a3162,2022-07-06_09h31.41.432,Colour_Asymmetry_Pilot,2022.1.3,Win32,59.80145916,62c50e9c1127f2cd403a315f,0,155,155,100,1,threeone,,,,,,,,,,,,,,,,,,,,,,,,,,,,,,,,,,,,,,,,,,,,,,,,,,,,,,,,,,,,,,,,,,,,,,,,,,,,,,,,,,,,,,,,,,,,,,,,,,,,,,,,,,,,,,,,,,,,,,,,,,,,,,,,,,,,,,,,,,,,,,,,,,,,,,,,,,,,,
,,,,,,6033fdc84080ea000c633420,62c53a4e92a902606b3a3162,2022-07-06_09h31.41.432,Colour_Asymmetry_Pilot,2022.1.3,Win32,59.80145916,62c50e9c1127f2cd403a315f,0,156,156,130,1,twoone,,,,,,,,,,,,,,,,,,,,,,,,,,,,,,,,,,,,,,,,,,,,,,,,,,,,,,,,,,,,,,,,,,,,,,,,,,,,,,,,,,,,,,,,,,,,,,,,,,,,,,,,,,,,,,,,,,,,,,,,,,,,,,,,,,,,,,,,,,,,,,,,,,,,,,,,,,,,,
,,,,,,6033fdc84080ea000c633420,62c53a4e92a902606b3a3162,2022-07-06_09h31.41.432,Colour_Asymmetry_Pilot,2022.1.3,Win32,59.80145916,62c50e9c1127f2cd403a315f,0,157,157,147,1,twofour,,,,,,,,,,,,,,,,,,,,,,,,,,,,,,,,,,,,,,,,,,,,,,,,,,,,,,,,,,,,,,,,,,,,,,,,,,,,,,,,,,,,,,,,,,,,,,,,,,,,,,,,,,,,,,,,,,,,,,,,,,,,,,,,,,,,,,,,,,,,,,,,,,,,,,,,,,,,,
,,,,,,6033fdc84080ea000c633420,62c53a4e92a902606b3a3162,2022-07-06_09h31.41.432,Colour_Asymmetry_Pilot,2022.1.3,Win32,59.80145916,62c50e9c1127f2cd403a315f,0,158,158,79,1,fourthree,,,,,,,,,,,,,,,,,,,,,,,,,,,,,,,,,,,,,,,,,,,,,,,,,,,,,,,,,,,,,,,,,,,,,,,,,,,,,,,,,,,,,,,,,,,,,,,,,,,,,,,,,,,,,,,,,,,,,,,,,,,,,,,,,,,,,,,,,,,,,,,,,,,,,,,,,,,,,
,,,,,,6033fdc84080ea000c633420,62c53a4e92a902606b3a3162,2022-07-06_09h31.41.432,Colour_Asymmetry_Pilot,2022.1.3,Win32,59.80145916,62c50e9c1127f2cd403a315f,0,159,159,19,1,twofour,,,,,,,,,,,,,,,,,,,,,,,,,,,,,,,,,,,,,,,,,,,,,,,,,,,,,,,,,,,,,,,,,,,,,,,,,,,,,,,,,,,,,,,,,,,,,,,,,,,,,,,,,,,,,,,,,,,,,,,,,,,,,,,,,,,,,,,,,,,,,,,,,,,,,,,,,,,,,
,,,,,,6033fdc84080ea000c633420,62c53a4e92a902606b3a3162,2022-07-06_09h31.41.432,Colour_Asymmetry_Pilot,2022.1.3,Win32,59.80145916,62c50e9c1127f2cd403a315f,0,160,160,113,1,onethree,,,,,,,,,,,,,,,,,,,,,,,,,,,,,,,,,,,,,,,,,,,,,,,,,,,,,,,,,,,,,,,,,,,,,,,,,,,,,,,,,,,,,,,,,,,,,,,,,,,,,,,,,,,,,,,,,,,,,,,,,,,,,,,,,,,,,,,,,,,,,,,,,,,,,,,,,,,,,
,,,,,,6033fdc84080ea000c633420,62c53a4e92a902606b3a3162,2022-07-06_09h31.41.432,Colour_Asymmetry_Pilot,2022.1.3,Win32,59.80145916,62c50e9c1127f2cd403a315f,0,161,161,28,1,threeone,,,,,,,,,,,,,,,,,,,,,,,,,,,,,,,,,,,,,,,,,,,,,,,,,,,,,,,,,,,,,,,,,,,,,,,,,,,,,,,,,,,,,,,,,,,,,,,,,,,,,,,,,,,,,,,,,,,,,,,,,,,,,,,,,,,,,,,,,,,,,,,,,,,,,,,,,,,,,
,,,,,,6033fdc84080ea000c633420,62c53a4e92a902606b3a3162,2022-07-06_09h31.41.432,Colour_Asymmetry_Pilot,2022.1.3,Win32,59.80145916,62c50e9c1127f2cd403a315f,,,,,,,space,2.7624,space,29.3086,space,42.533,space,18.0087,space,45.4333,space,3.1353,"[0.23920000000000008,0.2704,0.16060000000000008]",fourtwo,"[0.9763999999999999,-0.1137999999999999,-0.6314]",-3,35.2106,-108.7999878,48.79998779,1,0,0,response7disk_5,-7.200012207,7.199981689,1,0,0,rectangle_8,-7.200012207,7.199981689,1,0,0,1,-7.200012207,7.199981689,1,0,0,0,0,0,0,1,,,,,,,,,,,,,,,,,,,,,,,,,,,,,,,,,,,,,,,,,,,,,,,,,,,,,,,,,,,,,,,,,,,,,,,,,,,,,,,,,,,,,,,,,,,,,,,,,,,,,,,,,,,,,,,,
,,,,,,6033fdc84080ea000c633420,62c53a4e92a902606b3a3162,2022-07-06_09h31.41.432,Colour_Asymmetry_Pilot,2022.1.3,Win32,59.80145916,62c50e9c1127f2cd403a315f,,,,,,,,,,,,,,,,,,,"[-0.050999999999999934,-0.6706000000000001,-0.804]",onethree,"[0.4196,0.4665999999999999,0.3568]",-2,7.3032,-93.59997559,-40.80001831,1,0,0,response5disk_5,8.799987793,0,1,0,0,rectangle_8,8.799987793,0,1,0,0,1,8.799987793,0,1,0,0,1,0,1,0,1,,,,,,,,,,,,,,,,,,,,,,,,,,,,,,,,,,,,,,,,,,,,,,,,,,,,,,,,,,,,,,,,,,,,,,,,,,,,,,,,,,,,,,,,,,,,,,,,,,,,,,,,,,,,,,,,
,,,,,,6033fdc84080ea000c633420,62c53a4e92a902606b3a3162,2022-07-06_09h31.41.432,Colour_Asymmetry_Pilot,2022.1.3,Win32,59.80145916,62c50e9c1127f2cd403a315f,,,,,,,,,,,,,,,,,,,"[0.8115999999999999,-0.0040000000000000036,-0.09819999999999995]",onethree,"[-0.8118,-0.8198,-0.5452]",-2,3.0527,-93.59997559,-40.80001831,1,0,0,response5disk_5,0.799987793,0,1,0,0,rectangle_8,0.799987793,0,1,0,0,1,0.799987793,0,1,0,0,2,0,2,0,1,,,,,,,,,,,,,,,,,,,,,,,,,,,,,,,,,,,,,,,,,,,,,,,,,,,,,,,,,,,,,,,,,,,,,,,,,,,,,,,,,,,,,,,,,,,,,,,,,,,,,,,,,,,,,,,,
,,,,,,6033fdc84080ea000c633420,62c53a4e92a902606b3a3162,2022-07-06_09h31.41.432,Colour_Asymmetry_Pilot,2022.1.3,Win32,59.80145916,62c50e9c1127f2cd403a315f,,,,,,,,,,,,,,,,,,,"[0.5449999999999999,-0.31000000000000005,-0.0354000000000001]",fourtwo,"[0.9763999999999999,0.30979999999999985,-0.6786]",-1,1.763,-36.79998779,-100,1,0,0,response5disk_5,-7.200012207,5.600006104,1,0,0,rectangle_8,-40,-115.2000122,1,0,0,1,-0.799987793,-0.800018311,1,0,0,3,0,3,0,1,response5disk_7,3,rectangle_4,,,,,,,,,,,,,,,,,,,,,,,,,,,,,,,,,,,,,,,,,,,,,,,,,,,,,,,,,,,,,,,,,,,,,,,,,,,,,,,,,,,,,,,,,,,,,,,,,,,,,,,,,,,,,
,,,,,,6033fdc84080ea000c633420,62c53a4e92a902606b3a3162,2022-07-06_09h31.41.432,Colour_Asymmetry_Pilot,2022.1.3,Win32,59.80145916,62c50e9c1127f2cd403a315f,,,,,,,,,,,,,,,,,,,"[-0.9844,-0.9688,-0.9922]",twoone,"[-0.24719999999999998,-0.0354000000000001,0.3175999999999999]",-1,2.6192,-51.20001221,-88,1,0,0,response5disk_5,-0.799987793,0,1,0,0,rectangle_8,-0.799987793,0,1,0,0,1,-0.799987793,0,1,0,0,4,0,4,0,1,,,,,,,,,,,,,,,,,,,,,,,,,,,,,,,,,,,,,,,,,,,,,,,,,,,,,,,,,,,,,,,,,,,,,,,,,,,,,,,,,,,,,,,,,,,,,,,,,,,,,,,,,,,,,,,,
,,,,,,6033fdc84080ea000c633420,62c53a4e92a902606b3a3162,2022-07-06_09h31.41.432,Colour_Asymmetry_Pilot,2022.1.3,Win32,59.80145916,62c50e9c1127f2cd403a315f,,,,,,,,,,,,,,,,,,,"[0.0351999999999999,0.41159999999999997,0.0038000000000000256]",onethree,"[0.7646000000000002,0.07440000000000002,0.2704]",-3,3.596,-86.39996338,56,1,0,0,response7disk_5,-0.799987793,7.199981689,1,0,0,rectangle_8,-0.799987793,7.199981689,1,0,0,1,-0.799987793,7.199981689,1,0,0,5,0,5,0,1,,,,,,,,,,,,,,,,,,,,,,,,,,,,,,,,,,,,,,,,,,,,,,,,,,,,,,,,,,,,,,,,,,,,,,,,,,,,,,,,,,,,,,,,,,,,,,,,,,,,,,,,,,,,,,,,
,,,,,,6033fdc84080ea000c633420,62c53a4e92a902606b3a3162,2022-07-06_09h31.41.432,Colour_Asymmetry_Pilot,2022.1.3,Win32,59.80145916,62c50e9c1127f2cd403a315f,,,,,,,,,,,,,,,,,,,"[0.4196,0.4665999999999999,0.3568]",onethree,"[0.5528,0.7409999999999999,-0.71]",2,20.1358,81.60003662,-52,1,0,0,response3disk_5,-7.200012207,-0.800018311,1,0,0,rectangle_8,-7.200012207,-0.800018311,1,0,0,1,-7.200012207,-0.800018311,1,0,0,6,0,6,0,1,,,,,,,,,,,,,,,,,,,,,,,,,,,,,,,,,,,,,,,,,,,,,,,,,,,,,,,,,,,,,,,,,,,,,,,,,,,,,,,,,,,,,,,,,,,,,,,,,,,,,,,,,,,,,,,,
,,,,,,6033fdc84080ea000c633420,62c53a4e92a902606b3a3162,2022-07-06_09h31.41.432,Colour_Asymmetry_Pilot,2022.1.3,Win32,59.80145916,62c50e9c1127f2cd403a315f,,,,,,,,,,,,,,,,,,,,twoone,,-3,5.0697,,,,,,,,,,,,,,,,,,,,,,,,,,,,,,,,space,3.9741,"[-0.5688,-0.08239999999999992,-0.1844]","[0.9763999999999999,0.8588,-0.05900000000000005]",-70.39996338,37.6000061,1,0,0,response7disk,4.799987793,4,1,0,0,rectangle,4.799987793,4,1,0,0,,1,0.0025,0,4.799987793,4,1,0,0,0,0,0,75,1,75,first,,,,,,,,,,,,,,,,,,,,,,,,,,,,,,,,,,,,,,,,,,,,,,,,,,,,,,,,,,,,,,,,,,,,,,,,
,,,,,,6033fdc84080ea000c633420,62c53a4e92a902606b3a3162,2022-07-06_09h31.41.432,Colour_Asymmetry_Pilot,2022.1.3,Win32,59.80145916,62c50e9c1127f2cd403a315f,,,,,,,,,,,,,,,,,,,,fourthree,,-4,1.4288,,,,,,,,,,,,,,,,,,,,,,,,,,,,,,,,,,"[0.9763999999999999,0.8588,-0.05900000000000005]","[-0.6942,-0.7648,-0.12959999999999994]",-33.59997559,85.6000061,1,0,0,response7disk,0,5.600006104,1,0,0,rectangle,0,5.600006104,1,0,0,,3,0.0015,0,0,5.600006104,1,0,0,0,1,1,115,1,34,second,,,,,,,,,,,,,,,,,,,,,,,,,,,,,,,,,,,,,,,,,,,,,,,,,,,,,,,,,,,,,,,,,,,,,,,,
,,,,,,6033fdc84080ea000c633420,62c53a4e92a902606b3a3162,2022-07-06_09h31.41.432,Colour_Asymmetry_Pilot,2022.1.3,Win32,59.80145916,62c50e9c1127f2cd403a315f,,,,,,,,,,,,,,,,,,,,twofour,,2,3.2183,,,,,,,,,,,,,,,,,,,,,,,,,,,,,,,,,,"[0.7802,-0.23140000000000005,-0.20799999999999996]","[-0.011800000000000033,-0.906,-0.45100000000000007]",84,-55.20001221,1,0,0,response3disk,-5.599975586,-2.399993896,1,0,0,rectangle,-5.599975586,-2.399993896,1,0,0,,3,0.0003,0,-5.599975586,-2.399993896,1,0,0,0,2,2,47,1,47,first,,,,,,,,,,,,,,,,,,,,,,,,,,,,,,,,,,,,,,,,,,,,,,,,,,,,,,,,,,,,,,,,,,,,,,,,
,,,,,,6033fdc84080ea000c633420,62c53a4e92a902606b3a3162,2022-07-06_09h31.41.432,Colour_Asymmetry_Pilot,2022.1.3,Win32,59.80145916,62c50e9c1127f2cd403a315f,,,,,,,,,,,,,,,,,,,,twoone,,-2,2.2011,,,,,,,,,,,,,,,,,,,,,,,,,,,,,,,,,,"[-0.5452,-0.608,0.2470000000000001]","[0.34099999999999997,0.5841999999999998,-0.9844]",-89.59997559,-34.3999939,1,0,0,response5disk,8,3.199981689,1,0,0,rectangle,8,3.199981689,1,0,0,,1,0.0013,0,8,3.199981689,1,0,0,0,3,3,85,1,4,second,,,,,,,,,,,,,,,,,,,,,,,,,,,,,,,,,,,,,,,,,,,,,,,,,,,,,,,,,,,,,,,,,,,,,,,,
,,,,,,6033fdc84080ea000c633420,62c53a4e92a902606b3a3162,2022-07-06_09h31.41.432,Colour_Asymmetry_Pilot,2022.1.3,Win32,59.80145916,62c50e9c1127f2cd403a315f,,,,,,,,,,,,,,,,,,,,fourthree,,2,5.5686,,,,,,,,,,,,,,,,,,,,,,,,,,,,,,,,,,"[-0.09019999999999995,0.44300000000000006,0.5371999999999999]","[-0.0040000000000000036,0.02739999999999987,-0.08239999999999992]",79.20001221,-34.3999939,1,0,0,response3disk,-8,4,1,0,0,rectangle,-8,4,1,0,0,,2,0.0014,0,-8,4,1,0,0,0,4,4,67,1,67,first,,,,,,,,,,,,,,,,,,,,,,,,,,,,,,,,,,,,,,,,,,,,,,,,,,,,,,,,,,,,,,,,,,,,,,,,
,,,,,,6033fdc84080ea000c633420,62c53a4e92a902606b3a3162,2022-07-06_09h31.41.432,Colour_Asymmetry_Pilot,2022.1.3,Win32,59.80145916,62c50e9c1127f2cd403a315f,,,,,,,,,,,,,,,,,,,,twofour,,-3,1.7175,,,,,,,,,,,,,,,,,,,,,,,,,,,,,,,,,,"[0.04299999999999993,0.16060000000000008,-0.6628000000000001]","[-0.9844,-0.9688,-0.9922]",-94.39996338,56.79998779,1,0,0,response7disk,-6.399963379,-1.600006104,1,0,0,rectangle,-6.399963379,-1.600006104,1,0,0,,1,0.0014,0,-6.399963379,-1.600006104,1,0,0,0,5,5,114,1,33,second,,,,,,,,,,,,,,,,,,,,,,,,,,,,,,,,,,,,,,,,,,,,,,,,,,,,,,,,,,,,,,,,,,,,,,,,
,,,,,,6033fdc84080ea000c633420,62c53a4e92a902606b3a3162,2022-07-06_09h31.41.432,Colour_Asymmetry_Pilot,2022.1.3,Win32,59.80145916,62c50e9c1127f2cd403a315f,,,,,,,,,,,,,,,,,,,,twoone,,3,2.1677,,,,,,,,,,,,,,,,,,,,,,,,,,,,,,,,,,"[-0.011800000000000033,-0.906,-0.45100000000000007]","[0.7802,-0.23140000000000005,-0.20799999999999996]",106.4000244,68,1,0,0,response1disk,1.600036621,8.799987793,1,0,0,rectangle,1.600036621,8.799987793,1,0,0,,1,0.0003,0,1.600036621,8.799987793,1,0,0,0,6,6,128,1,47,second,,,,,,,,,,,,,,,,,,,,,,,,,,,,,,,,,,,,,,,,,,,,,,,,,,,,,,,,,,,,,,,,,,,,,,,,
,,,,,,6033fdc84080ea000c633420,62c53a4e92a902606b3a3162,2022-07-06_09h31.41.432,Colour_Asymmetry_Pilot,2022.1.3,Win32,59.80145916,62c50e9c1127f2cd403a315f,,,,,,,,,,,,,,,,,,,,twofour,,2,1.0182,,,,,,,,,,,,,,,,,,,,,,,,,,,,,,,,,,"[0.0351999999999999,0.41159999999999997,0.0038000000000000256]","[0.9763999999999999,0.8588,-0.05900000000000005]",87.20001221,-39.20001221,1,0,0,response3disk,-5.599975586,12.79998779,1,0,0,rectangle,-5.599975586,12.79998779,1,0,0,,1,0.0004,0,-5.599975586,12.79998779,1,0,0,0,7,7,119,1,38,second,,,,,,,,,,,,,,,,,,,,,,,,,,,,,,,,,,,,,,,,,,,,,,,,,,,,,,,,,,,,,,,,,,,,,,,,
,,,,,,6033fdc84080ea000c633420,62c53a4e92a902606b3a3162,2022-07-06_09h31.41.432,Colour_Asymmetry_Pilot,2022.1.3,Win32,59.80145916,62c50e9c1127f2cd403a315f,,,,,,,,,,,,,,,,,,,,onethree,,2,1.4113,,,,,,,,,,,,,,,,,,,,,,,,,,,,,,,,,,"[0.23920000000000008,0.2704,0.16060000000000008]","[-0.4276,0.0038000000000000256,-0.3256]",88,-40,1,0,0,response3disk,-8.799987793,7.199981689,1,0,0,rectangle,-8.799987793,7.199981689,1,0,0,,3,0.0012,0,-8.799987793,7.199981689,1,0,0,0,8,8,27,1,27,first,,,,,,,,,,,,,,,,,,,,,,,,,,,,,,,,,,,,,,,,,,,,,,,,,,,,,,,,,,,,,,,,,,,,,,,,
,,,,,,6033fdc84080ea000c633420,62c53a4e92a902606b3a3162,2022-07-06_09h31.41.432,Colour_Asymmetry_Pilot,2022.1.3,Win32,59.80145916,62c50e9c1127f2cd403a315f,,,,,,,,,,,,,,,,,,,,threeone,,-1,2.0513,,,,,,,,,,,,,,,,,,,,,,,,,,,,,,,,,,"[0.22340000000000004,-0.9296,-0.7884]","[-0.9844,-0.9688,-0.9922]",-44,-84.79998779,1,0,0,response5disk,8,-1.600006104,1,0,0,rectangle,8,-1.600006104,1,0,0,,1,0.0025,0,8,-1.600006104,1,0,0,0,9,9,35,1,35,first,,,,,,,,,,,,,,,,,,,,,,,,,,,,,,,,,,,,,,,,,,,,,,,,,,,,,,,,,,,,,,,,,,,,,,,,
,,,,,,6033fdc84080ea000c633420,62c53a4e92a902606b3a3162,2022-07-06_09h31.41.432,Colour_Asymmetry_Pilot,2022.1.3,Win32,59.80145916,62c50e9c1127f2cd403a315f,,,,,,,,,,,,,,,,,,,,threeone,,-3,0.8845,,,,,,,,,,,,,,,,,,,,,,,,,,,,,,,,,,"[-0.9296,-0.12959999999999994,-0.043199999999999905]","[0.37240000000000006,0.4980000000000002,-0.2864]",-69.59997559,35.19998169,1,0,0,response7disk,3.200012207,-5.600006104,1,0,0,rectangle,3.200012207,-5.600006104,1,0,0,,3,0.0012,0,3.200012207,-5.600006104,1,0,0,0,10,10,68,1,68,first,,,,,,,,,,,,,,,,,,,,,,,,,,,,,,,,,,,,,,,,,,,,,,,,,,,,,,,,,,,,,,,,,,,,,,,,
,,,,,,6033fdc84080ea000c633420,62c53a4e92a902606b3a3162,2022-07-06_09h31.41.432,Colour_Asymmetry_Pilot,2022.1.3,Win32,59.80145916,62c50e9c1127f2cd403a315f,,,,,,,,,,,,,,,,,,,,onethree,,3,1.4839,,,,,,,,,,,,,,,,,,,,,,,,,,,,,,,,,,"[-0.4902000000000001,0.2704,-0.45899999999999996]","[0.23920000000000008,0.2704,0.16060000000000008]",113.6000366,41.6000061,1,0,0,response1disk,8.799987793,6.399993896,1,0,0,rectangle,8.799987793,6.399993896,1,0,0,,2,0.0012,0,8.799987793,6.399993896,1,0,0,0,11,11,87,1,6,second,,,,,,,,,,,,,,,,,,,,,,,,,,,,,,,,,,,,,,,,,,,,,,,,,,,,,,,,,,,,,,,,,,,,,,,,
,,,,,,6033fdc84080ea000c633420,62c53a4e92a902606b3a3162,2022-07-06_09h31.41.432,Colour_Asymmetry_Pilot,2022.1.3,Win32,59.80145916,62c50e9c1127f2cd403a315f,,,,,,,,,,,,,,,,,,,,onethree,,3,1.9626,,,,,,,,,,,,,,,,,,,,,,,,,,,,,,,,,,"[-0.9138,-0.5296000000000001,-0.5529999999999999]","[0.04299999999999993,0.16060000000000008,-0.6628000000000001]",106.4000244,46.3999939,1,0,0,response1disk,-6.399963379,4.799987793,1,0,0,rectangle,-6.399963379,4.799987793,1,0,0,,1,0.0012,0,-6.399963379,4.799987793,1,0,0,0,12,12,95,1,14,second,,,,,,,,,,,,,,,,,,,,,,,,,,,,,,,,,,,,,,,,,,,,,,,,,,,,,,,,,,,,,,,,,,,,,,,,
,,,,,,6033fdc84080ea000c633420,62c53a4e92a902606b3a3162,2022-07-06_09h31.41.432,Colour_Asymmetry_Pilot,2022.1.3,Win32,59.80145916,62c50e9c1127f2cd403a315f,,,,,,,,,,,,,,,,,,,,twofour,,3,1.267,,,,,,,,,,,,,,,,,,,,,,,,,,,,,,,,,,"[0.23920000000000008,0.2704,0.16060000000000008]","[-0.4902000000000001,0.2704,-0.45899999999999996]",102.4000244,36.79998779,1,0,0,response1disk,-20.79998779,7.199981689,1,0,0,rectangle,-20.79998779,7.199981689,1,0,0,,3,0.0023,0,-20.79998779,7.199981689,1,0,0,0,13,13,6,1,6,first,,,,,,,,,,,,,,,,,,,,,,,,,,,,,,,,,,,,,,,,,,,,,,,,,,,,,,,,,,,,,,,,,,,,,,,,
,,,,,,6033fdc84080ea000c633420,62c53a4e92a902606b3a3162,2022-07-06_09h31.41.432,Colour_Asymmetry_Pilot,2022.1.3,Win32,59.80145916,62c50e9c1127f2cd403a315f,,,,,,,,,,,,,,,,,,,,threefour,,-4,0.9671,,,,,,,,,,,,,,,,,,,,,,,,,,,,,,,,,,"[-0.9766,-0.34920000000000007,0.2156]","[0.23120000000000007,-0.7726,-0.34120000000000006]",-48,96.79998779,1,0,0,response7disk,12,10.3999939,1,0,0,rectangle,12,10.3999939,1,0,0,,3,0.0003,0,12,10.3999939,1,0,0,0,14,14,58,1,58,first,,,,,,,,,,,,,,,,,,,,,,,,,,,,,,,,,,,,,,,,,,,,,,,,,,,,,,,,,,,,,,,,,,,,,,,,
