trials.thisRepN,trials.thisTrialN,trials.thisN,trials.thisIndex,trials.ran,Colourcodes,participant,session,date,expName,psychopyVersion,OS,frameRate,study_id,trials_4.thisRepN,trials_4.thisTrialN,trials_4.thisN,trials_4.thisIndex,trials_4.ran,StimulusPos,key_resp.keys,key_resp.rt,key_resp_2.keys,key_resp_2.rt,key_resp_15.keys,key_resp_15.rt,key_resp_17.keys,key_resp_17.rt,key_resp_9.keys,key_resp_9.rt,key_resp_10.keys,key_resp_10.rt,Circle1_col,Ecc,Circle2_col,similarity,response_time,mouse_5.x,mouse_5.y,mouse_5.leftButton,mouse_5.midButton,mouse_5.rightButton,mouse_5.clicked_name,mouse_10.x,mouse_10.y,mouse_10.leftButton,mouse_10.midButton,mouse_10.rightButton,mouse_10.clicked_name,mouse_7.x,mouse_7.y,mouse_7.leftButton,mouse_7.midButton,mouse_7.rightButton,mouse_7.clicked_name,catchprac,catchnumberprac,mouse_6.x,mouse_6.y,mouse_6.leftButton,mouse_6.midButton,mouse_6.rightButton,mouse_6.clicked_name,duringprac.thisRepN,duringprac.thisTrialN,duringprac.thisN,duringprac.thisIndex,duringprac.ran,key_resp_22.keys,key_resp_22.rt,Circle1_colour,Circle2_colour,mouse.x,mouse.y,mouse.leftButton,mouse.midButton,mouse.rightButton,mouse.clicked_name,mouse_2.x,mouse_2.y,mouse_2.leftButton,mouse_2.midButton,mouse_2.rightButton,mouse_2.clicked_name,mouse_3.x,mouse_3.y,mouse_3.leftButton,mouse_3.midButton,mouse_3.rightButton,catchresponse,catchnumber,response_time_catch,Catch,mouse_11.x,mouse_11.y,mouse_11.leftButton,mouse_11.midButton,mouse_11.rightButton,trials_2.thisRepN,trials_2.thisTrialN,trials_2.thisN,trials_2.thisIndex,trials_2.ran,Colourpair,Temporder,mouse_3.clicked_name,mouse_11.clicked_name,trials_3.thisRepN,trials_3.thisTrialN,trials_3.thisN,trials_3.thisIndex,trials_3.ran,key_resp_instr_Ishi.keys,key_resp_instr_Ishi.rt,Ishi_trial_keyresp.keys,Ishi_textbox.text,Ishi_mouse.x,Ishi_mouse.y,Ishi_mouse.leftButton,Ishi_mouse.midButton,Ishi_mouse.rightButton,Ishi_mouse.clicked_name,Ishi_loop.thisRepN,Ishi_loop.thisTrialN,Ishi_loop.thisN,Ishi_loop.thisIndex,Ishi_loop.ran,imageaddress,textbox.text,mouse_4.x,mouse_4.y,mouse_4.leftButton,mouse_4.midButton,mouse_4.rightButton,mouse_4.clicked_name,textbox_2.text,mouse_8.x,mouse_8.y,mouse_8.leftButton,mouse_8.midButton,mouse_8.rightButton,mouse_8.clicked_name,textbox_3.text,mouse_9.x,mouse_9.y,mouse_9.leftButton,mouse_9.midButton,mouse_9.rightButton,mouse_9.clicked_name,textbox_4.text,mouse_12.x,mouse_12.y,mouse_12.leftButton,mouse_12.midButton,mouse_12.rightButton,mouse_12.clicked_name,textbox_5.text,mouse_13.x,mouse_13.y,mouse_13.leftButton,mouse_13.midButton,mouse_13.rightButton,mouse_13.clicked_name,textbox_6.text,mouse_14.x,mouse_14.y,mouse_14.leftButton,mouse_14.midButton,mouse_14.rightButton,mouse_14.clicked_name,textbox_7.text,mouse_15.x,mouse_15.y,mouse_15.leftButton,mouse_15.midButton,mouse_15.rightButton,mouse_15.clicked_name
0,0,0,18,1,,60e00818b935a41dcfb1cccd,62c539a7ae27c2a639f10ef1,2022-07-06_09h29.42.117,Colour_Asymmetry_Pilot,2022.1.3,Win32,59.1891092,62c50e9c1127f2cd403a315f,,,,,,,,,,,,,,,,,,,,,,,,,,,,,,,,,,,,,,,,,,,,,,,,,,,,,,,,,,,,,,,,,,,,,,,,,,,,,,,,,,,,,,,,,,,,,,,,,,,,,,,,,,,,,,,,,,,,,,,,,,,,,,,,,,,,,,,,,,,,,,,,,,,,,,,,,,,,,,,,,,,
0,1,1,57,1,,60e00818b935a41dcfb1cccd,62c539a7ae27c2a639f10ef1,2022-07-06_09h29.42.117,Colour_Asymmetry_Pilot,2022.1.3,Win32,59.1891092,62c50e9c1127f2cd403a315f,,,,,,,,,,,,,,,,,,,,,,,,,,,,,,,,,,,,,,,,,,,,,,,,,,,,,,,,,,,,,,,,,,,,,,,,,,,,,,,,,,,,,,,,,,,,,,,,,,,,,,,,,,,,,,,,,,,,,,,,,,,,,,,,,,,,,,,,,,,,,,,,,,,,,,,,,,,,,,,,,,,
0,2,2,29,1,,60e00818b935a41dcfb1cccd,62c539a7ae27c2a639f10ef1,2022-07-06_09h29.42.117,Colour_Asymmetry_Pilot,2022.1.3,Win32,59.1891092,62c50e9c1127f2cd403a315f,,,,,,,,,,,,,,,,,,,,,,,,,,,,,,,,,,,,,,,,,,,,,,,,,,,,,,,,,,,,,,,,,,,,,,,,,,,,,,,,,,,,,,,,,,,,,,,,,,,,,,,,,,,,,,,,,,,,,,,,,,,,,,,,,,,,,,,,,,,,,,,,,,,,,,,,,,,,,,,,,,,
0,3,3,62,1,,60e00818b935a41dcfb1cccd,62c539a7ae27c2a639f10ef1,2022-07-06_09h29.42.117,Colour_Asymmetry_Pilot,2022.1.3,Win32,59.1891092,62c50e9c1127f2cd403a315f,,,,,,,,,,,,,,,,,,,,,,,,,,,,,,,,,,,,,,,,,,,,,,,,,,,,,,,,,,,,,,,,,,,,,,,,,,,,,,,,,,,,,,,,,,,,,,,,,,,,,,,,,,,,,,,,,,,,,,,,,,,,,,,,,,,,,,,,,,,,,,,,,,,,,,,,,,,,,,,,,,,
0,4,4,8,1,,60e00818b935a41dcfb1cccd,62c539a7ae27c2a639f10ef1,2022-07-06_09h29.42.117,Colour_Asymmetry_Pilot,2022.1.3,Win32,59.1891092,62c50e9c1127f2cd403a315f,,,,,,,,,,,,,,,,,,,,,,,,,,,,,,,,,,,,,,,,,,,,,,,,,,,,,,,,,,,,,,,,,,,,,,,,,,,,,,,,,,,,,,,,,,,,,,,,,,,,,,,,,,,,,,,,,,,,,,,,,,,,,,,,,,,,,,,,,,,,,,,,,,,,,,,,,,,,,,,,,,,
0,5,5,74,1,,60e00818b935a41dcfb1cccd,62c539a7ae27c2a639f10ef1,2022-07-06_09h29.42.117,Colour_Asymmetry_Pilot,2022.1.3,Win32,59.1891092,62c50e9c1127f2cd403a315f,,,,,,,,,,,,,,,,,,,,,,,,,,,,,,,,,,,,,,,,,,,,,,,,,,,,,,,,,,,,,,,,,,,,,,,,,,,,,,,,,,,,,,,,,,,,,,,,,,,,,,,,,,,,,,,,,,,,,,,,,,,,,,,,,,,,,,,,,,,,,,,,,,,,,,,,,,,,,,,,,,,
0,6,6,60,1,,60e00818b935a41dcfb1cccd,62c539a7ae27c2a639f10ef1,2022-07-06_09h29.42.117,Colour_Asymmetry_Pilot,2022.1.3,Win32,59.1891092,62c50e9c1127f2cd403a315f,,,,,,,,,,,,,,,,,,,,,,,,,,,,,,,,,,,,,,,,,,,,,,,,,,,,,,,,,,,,,,,,,,,,,,,,,,,,,,,,,,,,,,,,,,,,,,,,,,,,,,,,,,,,,,,,,,,,,,,,,,,,,,,,,,,,,,,,,,,,,,,,,,,,,,,,,,,,,,,,,,,
0,7,7,26,1,,60e00818b935a41dcfb1cccd,62c539a7ae27c2a639f10ef1,2022-07-06_09h29.42.117,Colour_Asymmetry_Pilot,2022.1.3,Win32,59.1891092,62c50e9c1127f2cd403a315f,,,,,,,,,,,,,,,,,,,,,,,,,,,,,,,,,,,,,,,,,,,,,,,,,,,,,,,,,,,,,,,,,,,,,,,,,,,,,,,,,,,,,,,,,,,,,,,,,,,,,,,,,,,,,,,,,,,,,,,,,,,,,,,,,,,,,,,,,,,,,,,,,,,,,,,,,,,,,,,,,,,
0,8,8,37,1,,60e00818b935a41dcfb1cccd,62c539a7ae27c2a639f10ef1,2022-07-06_09h29.42.117,Colour_Asymmetry_Pilot,2022.1.3,Win32,59.1891092,62c50e9c1127f2cd403a315f,,,,,,,,,,,,,,,,,,,,,,,,,,,,,,,,,,,,,,,,,,,,,,,,,,,,,,,,,,,,,,,,,,,,,,,,,,,,,,,,,,,,,,,,,,,,,,,,,,,,,,,,,,,,,,,,,,,,,,,,,,,,,,,,,,,,,,,,,,,,,,,,,,,,,,,,,,,,,,,,,,,
0,9,9,53,1,,60e00818b935a41dcfb1cccd,62c539a7ae27c2a639f10ef1,2022-07-06_09h29.42.117,Colour_Asymmetry_Pilot,2022.1.3,Win32,59.1891092,62c50e9c1127f2cd403a315f,,,,,,,,,,,,,,,,,,,,,,,,,,,,,,,,,,,,,,,,,,,,,,,,,,,,,,,,,,,,,,,,,,,,,,,,,,,,,,,,,,,,,,,,,,,,,,,,,,,,,,,,,,,,,,,,,,,,,,,,,,,,,,,,,,,,,,,,,,,,,,,,,,,,,,,,,,,,,,,,,,,
0,10,10,12,1,,60e00818b935a41dcfb1cccd,62c539a7ae27c2a639f10ef1,2022-07-06_09h29.42.117,Colour_Asymmetry_Pilot,2022.1.3,Win32,59.1891092,62c50e9c1127f2cd403a315f,,,,,,,,,,,,,,,,,,,,,,,,,,,,,,,,,,,,,,,,,,,,,,,,,,,,,,,,,,,,,,,,,,,,,,,,,,,,,,,,,,,,,,,,,,,,,,,,,,,,,,,,,,,,,,,,,,,,,,,,,,,,,,,,,,,,,,,,,,,,,,,,,,,,,,,,,,,,,,,,,,,
0,11,11,92,1,,60e00818b935a41dcfb1cccd,62c539a7ae27c2a639f10ef1,2022-07-06_09h29.42.117,Colour_Asymmetry_Pilot,2022.1.3,Win32,59.1891092,62c50e9c1127f2cd403a315f,,,,,,,,,,,,,,,,,,,,,,,,,,,,,,,,,,,,,,,,,,,,,,,,,,,,,,,,,,,,,,,,,,,,,,,,,,,,,,,,,,,,,,,,,,,,,,,,,,,,,,,,,,,,,,,,,,,,,,,,,,,,,,,,,,,,,,,,,,,,,,,,,,,,,,,,,,,,,,,,,,,
0,12,12,1,1,,60e00818b935a41dcfb1cccd,62c539a7ae27c2a639f10ef1,2022-07-06_09h29.42.117,Colour_Asymmetry_Pilot,2022.1.3,Win32,59.1891092,62c50e9c1127f2cd403a315f,,,,,,,,,,,,,,,,,,,,,,,,,,,,,,,,,,,,,,,,,,,,,,,,,,,,,,,,,,,,,,,,,,,,,,,,,,,,,,,,,,,,,,,,,,,,,,,,,,,,,,,,,,,,,,,,,,,,,,,,,,,,,,,,,,,,,,,,,,,,,,,,,,,,,,,,,,,,,,,,,,,
0,13,13,33,1,,60e00818b935a41dcfb1cccd,62c539a7ae27c2a639f10ef1,2022-07-06_09h29.42.117,Colour_Asymmetry_Pilot,2022.1.3,Win32,59.1891092,62c50e9c1127f2cd403a315f,,,,,,,,,,,,,,,,,,,,,,,,,,,,,,,,,,,,,,,,,,,,,,,,,,,,,,,,,,,,,,,,,,,,,,,,,,,,,,,,,,,,,,,,,,,,,,,,,,,,,,,,,,,,,,,,,,,,,,,,,,,,,,,,,,,,,,,,,,,,,,,,,,,,,,,,,,,,,,,,,,,
0,14,14,64,1,,60e00818b935a41dcfb1cccd,62c539a7ae27c2a639f10ef1,2022-07-06_09h29.42.117,Colour_Asymmetry_Pilot,2022.1.3,Win32,59.1891092,62c50e9c1127f2cd403a315f,,,,,,,,,,,,,,,,,,,,,,,,,,,,,,,,,,,,,,,,,,,,,,,,,,,,,,,,,,,,,,,,,,,,,,,,,,,,,,,,,,,,,,,,,,,,,,,,,,,,,,,,,,,,,,,,,,,,,,,,,,,,,,,,,,,,,,,,,,,,,,,,,,,,,,,,,,,,,,,,,,,
0,15,15,42,1,,60e00818b935a41dcfb1cccd,62c539a7ae27c2a639f10ef1,2022-07-06_09h29.42.117,Colour_Asymmetry_Pilot,2022.1.3,Win32,59.1891092,62c50e9c1127f2cd403a315f,,,,,,,,,,,,,,,,,,,,,,,,,,,,,,,,,,,,,,,,,,,,,,,,,,,,,,,,,,,,,,,,,,,,,,,,,,,,,,,,,,,,,,,,,,,,,,,,,,,,,,,,,,,,,,,,,,,,,,,,,,,,,,,,,,,,,,,,,,,,,,,,,,,,,,,,,,,,,,,,,,,
0,16,16,0,1,,60e00818b935a41dcfb1cccd,62c539a7ae27c2a639f10ef1,2022-07-06_09h29.42.117,Colour_Asymmetry_Pilot,2022.1.3,Win32,59.1891092,62c50e9c1127f2cd403a315f,,,,,,,,,,,,,,,,,,,,,,,,,,,,,,,,,,,,,,,,,,,,,,,,,,,,,,,,,,,,,,,,,,,,,,,,,,,,,,,,,,,,,,,,,,,,,,,,,,,,,,,,,,,,,,,,,,,,,,,,,,,,,,,,,,,,,,,,,,,,,,,,,,,,,,,,,,,,,,,,,,,
0,17,17,28,1,,60e00818b935a41dcfb1cccd,62c539a7ae27c2a639f10ef1,2022-07-06_09h29.42.117,Colour_Asymmetry_Pilot,2022.1.3,Win32,59.1891092,62c50e9c1127f2cd403a315f,,,,,,,,,,,,,,,,,,,,,,,,,,,,,,,,,,,,,,,,,,,,,,,,,,,,,,,,,,,,,,,,,,,,,,,,,,,,,,,,,,,,,,,,,,,,,,,,,,,,,,,,,,,,,,,,,,,,,,,,,,,,,,,,,,,,,,,,,,,,,,,,,,,,,,,,,,,,,,,,,,,
0,18,18,66,1,,60e00818b935a41dcfb1cccd,62c539a7ae27c2a639f10ef1,2022-07-06_09h29.42.117,Colour_Asymmetry_Pilot,2022.1.3,Win32,59.1891092,62c50e9c1127f2cd403a315f,,,,,,,,,,,,,,,,,,,,,,,,,,,,,,,,,,,,,,,,,,,,,,,,,,,,,,,,,,,,,,,,,,,,,,,,,,,,,,,,,,,,,,,,,,,,,,,,,,,,,,,,,,,,,,,,,,,,,,,,,,,,,,,,,,,,,,,,,,,,,,,,,,,,,,,,,,,,,,,,,,,
0,19,19,56,1,,60e00818b935a41dcfb1cccd,62c539a7ae27c2a639f10ef1,2022-07-06_09h29.42.117,Colour_Asymmetry_Pilot,2022.1.3,Win32,59.1891092,62c50e9c1127f2cd403a315f,,,,,,,,,,,,,,,,,,,,,,,,,,,,,,,,,,,,,,,,,,,,,,,,,,,,,,,,,,,,,,,,,,,,,,,,,,,,,,,,,,,,,,,,,,,,,,,,,,,,,,,,,,,,,,,,,,,,,,,,,,,,,,,,,,,,,,,,,,,,,,,,,,,,,,,,,,,,,,,,,,,
0,20,20,4,1,,60e00818b935a41dcfb1cccd,62c539a7ae27c2a639f10ef1,2022-07-06_09h29.42.117,Colour_Asymmetry_Pilot,2022.1.3,Win32,59.1891092,62c50e9c1127f2cd403a315f,,,,,,,,,,,,,,,,,,,,,,,,,,,,,,,,,,,,,,,,,,,,,,,,,,,,,,,,,,,,,,,,,,,,,,,,,,,,,,,,,,,,,,,,,,,,,,,,,,,,,,,,,,,,,,,,,,,,,,,,,,,,,,,,,,,,,,,,,,,,,,,,,,,,,,,,,,,,,,,,,,,
0,21,21,50,1,,60e00818b935a41dcfb1cccd,62c539a7ae27c2a639f10ef1,2022-07-06_09h29.42.117,Colour_Asymmetry_Pilot,2022.1.3,Win32,59.1891092,62c50e9c1127f2cd403a315f,,,,,,,,,,,,,,,,,,,,,,,,,,,,,,,,,,,,,,,,,,,,,,,,,,,,,,,,,,,,,,,,,,,,,,,,,,,,,,,,,,,,,,,,,,,,,,,,,,,,,,,,,,,,,,,,,,,,,,,,,,,,,,,,,,,,,,,,,,,,,,,,,,,,,,,,,,,,,,,,,,,
0,22,22,3,1,,60e00818b935a41dcfb1cccd,62c539a7ae27c2a639f10ef1,2022-07-06_09h29.42.117,Colour_Asymmetry_Pilot,2022.1.3,Win32,59.1891092,62c50e9c1127f2cd403a315f,,,,,,,,,,,,,,,,,,,,,,,,,,,,,,,,,,,,,,,,,,,,,,,,,,,,,,,,,,,,,,,,,,,,,,,,,,,,,,,,,,,,,,,,,,,,,,,,,,,,,,,,,,,,,,,,,,,,,,,,,,,,,,,,,,,,,,,,,,,,,,,,,,,,,,,,,,,,,,,,,,,
0,23,23,10,1,,60e00818b935a41dcfb1cccd,62c539a7ae27c2a639f10ef1,2022-07-06_09h29.42.117,Colour_Asymmetry_Pilot,2022.1.3,Win32,59.1891092,62c50e9c1127f2cd403a315f,,,,,,,,,,,,,,,,,,,,,,,,,,,,,,,,,,,,,,,,,,,,,,,,,,,,,,,,,,,,,,,,,,,,,,,,,,,,,,,,,,,,,,,,,,,,,,,,,,,,,,,,,,,,,,,,,,,,,,,,,,,,,,,,,,,,,,,,,,,,,,,,,,,,,,,,,,,,,,,,,,,
0,24,24,32,1,,60e00818b935a41dcfb1cccd,62c539a7ae27c2a639f10ef1,2022-07-06_09h29.42.117,Colour_Asymmetry_Pilot,2022.1.3,Win32,59.1891092,62c50e9c1127f2cd403a315f,,,,,,,,,,,,,,,,,,,,,,,,,,,,,,,,,,,,,,,,,,,,,,,,,,,,,,,,,,,,,,,,,,,,,,,,,,,,,,,,,,,,,,,,,,,,,,,,,,,,,,,,,,,,,,,,,,,,,,,,,,,,,,,,,,,,,,,,,,,,,,,,,,,,,,,,,,,,,,,,,,,
0,25,25,79,1,,60e00818b935a41dcfb1cccd,62c539a7ae27c2a639f10ef1,2022-07-06_09h29.42.117,Colour_Asymmetry_Pilot,2022.1.3,Win32,59.1891092,62c50e9c1127f2cd403a315f,,,,,,,,,,,,,,,,,,,,,,,,,,,,,,,,,,,,,,,,,,,,,,,,,,,,,,,,,,,,,,,,,,,,,,,,,,,,,,,,,,,,,,,,,,,,,,,,,,,,,,,,,,,,,,,,,,,,,,,,,,,,,,,,,,,,,,,,,,,,,,,,,,,,,,,,,,,,,,,,,,,
0,26,26,9,1,,60e00818b935a41dcfb1cccd,62c539a7ae27c2a639f10ef1,2022-07-06_09h29.42.117,Colour_Asymmetry_Pilot,2022.1.3,Win32,59.1891092,62c50e9c1127f2cd403a315f,,,,,,,,,,,,,,,,,,,,,,,,,,,,,,,,,,,,,,,,,,,,,,,,,,,,,,,,,,,,,,,,,,,,,,,,,,,,,,,,,,,,,,,,,,,,,,,,,,,,,,,,,,,,,,,,,,,,,,,,,,,,,,,,,,,,,,,,,,,,,,,,,,,,,,,,,,,,,,,,,,,
0,27,27,36,1,,60e00818b935a41dcfb1cccd,62c539a7ae27c2a639f10ef1,2022-07-06_09h29.42.117,Colour_Asymmetry_Pilot,2022.1.3,Win32,59.1891092,62c50e9c1127f2cd403a315f,,,,,,,,,,,,,,,,,,,,,,,,,,,,,,,,,,,,,,,,,,,,,,,,,,,,,,,,,,,,,,,,,,,,,,,,,,,,,,,,,,,,,,,,,,,,,,,,,,,,,,,,,,,,,,,,,,,,,,,,,,,,,,,,,,,,,,,,,,,,,,,,,,,,,,,,,,,,,,,,,,,
0,28,28,80,1,,60e00818b935a41dcfb1cccd,62c539a7ae27c2a639f10ef1,2022-07-06_09h29.42.117,Colour_Asymmetry_Pilot,2022.1.3,Win32,59.1891092,62c50e9c1127f2cd403a315f,,,,,,,,,,,,,,,,,,,,,,,,,,,,,,,,,,,,,,,,,,,,,,,,,,,,,,,,,,,,,,,,,,,,,,,,,,,,,,,,,,,,,,,,,,,,,,,,,,,,,,,,,,,,,,,,,,,,,,,,,,,,,,,,,,,,,,,,,,,,,,,,,,,,,,,,,,,,,,,,,,,
0,29,29,13,1,,60e00818b935a41dcfb1cccd,62c539a7ae27c2a639f10ef1,2022-07-06_09h29.42.117,Colour_Asymmetry_Pilot,2022.1.3,Win32,59.1891092,62c50e9c1127f2cd403a315f,,,,,,,,,,,,,,,,,,,,,,,,,,,,,,,,,,,,,,,,,,,,,,,,,,,,,,,,,,,,,,,,,,,,,,,,,,,,,,,,,,,,,,,,,,,,,,,,,,,,,,,,,,,,,,,,,,,,,,,,,,,,,,,,,,,,,,,,,,,,,,,,,,,,,,,,,,,,,,,,,,,
0,30,30,47,1,,60e00818b935a41dcfb1cccd,62c539a7ae27c2a639f10ef1,2022-07-06_09h29.42.117,Colour_Asymmetry_Pilot,2022.1.3,Win32,59.1891092,62c50e9c1127f2cd403a315f,,,,,,,,,,,,,,,,,,,,,,,,,,,,,,,,,,,,,,,,,,,,,,,,,,,,,,,,,,,,,,,,,,,,,,,,,,,,,,,,,,,,,,,,,,,,,,,,,,,,,,,,,,,,,,,,,,,,,,,,,,,,,,,,,,,,,,,,,,,,,,,,,,,,,,,,,,,,,,,,,,,
0,31,31,76,1,,60e00818b935a41dcfb1cccd,62c539a7ae27c2a639f10ef1,2022-07-06_09h29.42.117,Colour_Asymmetry_Pilot,2022.1.3,Win32,59.1891092,62c50e9c1127f2cd403a315f,,,,,,,,,,,,,,,,,,,,,,,,,,,,,,,,,,,,,,,,,,,,,,,,,,,,,,,,,,,,,,,,,,,,,,,,,,,,,,,,,,,,,,,,,,,,,,,,,,,,,,,,,,,,,,,,,,,,,,,,,,,,,,,,,,,,,,,,,,,,,,,,,,,,,,,,,,,,,,,,,,,
0,32,32,38,1,,60e00818b935a41dcfb1cccd,62c539a7ae27c2a639f10ef1,2022-07-06_09h29.42.117,Colour_Asymmetry_Pilot,2022.1.3,Win32,59.1891092,62c50e9c1127f2cd403a315f,,,,,,,,,,,,,,,,,,,,,,,,,,,,,,,,,,,,,,,,,,,,,,,,,,,,,,,,,,,,,,,,,,,,,,,,,,,,,,,,,,,,,,,,,,,,,,,,,,,,,,,,,,,,,,,,,,,,,,,,,,,,,,,,,,,,,,,,,,,,,,,,,,,,,,,,,,,,,,,,,,,
0,33,33,54,1,,60e00818b935a41dcfb1cccd,62c539a7ae27c2a639f10ef1,2022-07-06_09h29.42.117,Colour_Asymmetry_Pilot,2022.1.3,Win32,59.1891092,62c50e9c1127f2cd403a315f,,,,,,,,,,,,,,,,,,,,,,,,,,,,,,,,,,,,,,,,,,,,,,,,,,,,,,,,,,,,,,,,,,,,,,,,,,,,,,,,,,,,,,,,,,,,,,,,,,,,,,,,,,,,,,,,,,,,,,,,,,,,,,,,,,,,,,,,,,,,,,,,,,,,,,,,,,,,,,,,,,,
0,34,34,11,1,,60e00818b935a41dcfb1cccd,62c539a7ae27c2a639f10ef1,2022-07-06_09h29.42.117,Colour_Asymmetry_Pilot,2022.1.3,Win32,59.1891092,62c50e9c1127f2cd403a315f,,,,,,,,,,,,,,,,,,,,,,,,,,,,,,,,,,,,,,,,,,,,,,,,,,,,,,,,,,,,,,,,,,,,,,,,,,,,,,,,,,,,,,,,,,,,,,,,,,,,,,,,,,,,,,,,,,,,,,,,,,,,,,,,,,,,,,,,,,,,,,,,,,,,,,,,,,,,,,,,,,,
0,35,35,81,1,,60e00818b935a41dcfb1cccd,62c539a7ae27c2a639f10ef1,2022-07-06_09h29.42.117,Colour_Asymmetry_Pilot,2022.1.3,Win32,59.1891092,62c50e9c1127f2cd403a315f,,,,,,,,,,,,,,,,,,,,,,,,,,,,,,,,,,,,,,,,,,,,,,,,,,,,,,,,,,,,,,,,,,,,,,,,,,,,,,,,,,,,,,,,,,,,,,,,,,,,,,,,,,,,,,,,,,,,,,,,,,,,,,,,,,,,,,,,,,,,,,,,,,,,,,,,,,,,,,,,,,,
0,36,36,65,1,,60e00818b935a41dcfb1cccd,62c539a7ae27c2a639f10ef1,2022-07-06_09h29.42.117,Colour_Asymmetry_Pilot,2022.1.3,Win32,59.1891092,62c50e9c1127f2cd403a315f,,,,,,,,,,,,,,,,,,,,,,,,,,,,,,,,,,,,,,,,,,,,,,,,,,,,,,,,,,,,,,,,,,,,,,,,,,,,,,,,,,,,,,,,,,,,,,,,,,,,,,,,,,,,,,,,,,,,,,,,,,,,,,,,,,,,,,,,,,,,,,,,,,,,,,,,,,,,,,,,,,,
0,37,37,21,1,,60e00818b935a41dcfb1cccd,62c539a7ae27c2a639f10ef1,2022-07-06_09h29.42.117,Colour_Asymmetry_Pilot,2022.1.3,Win32,59.1891092,62c50e9c1127f2cd403a315f,,,,,,,,,,,,,,,,,,,,,,,,,,,,,,,,,,,,,,,,,,,,,,,,,,,,,,,,,,,,,,,,,,,,,,,,,,,,,,,,,,,,,,,,,,,,,,,,,,,,,,,,,,,,,,,,,,,,,,,,,,,,,,,,,,,,,,,,,,,,,,,,,,,,,,,,,,,,,,,,,,,
0,38,38,5,1,,60e00818b935a41dcfb1cccd,62c539a7ae27c2a639f10ef1,2022-07-06_09h29.42.117,Colour_Asymmetry_Pilot,2022.1.3,Win32,59.1891092,62c50e9c1127f2cd403a315f,,,,,,,,,,,,,,,,,,,,,,,,,,,,,,,,,,,,,,,,,,,,,,,,,,,,,,,,,,,,,,,,,,,,,,,,,,,,,,,,,,,,,,,,,,,,,,,,,,,,,,,,,,,,,,,,,,,,,,,,,,,,,,,,,,,,,,,,,,,,,,,,,,,,,,,,,,,,,,,,,,,
0,39,39,61,1,,60e00818b935a41dcfb1cccd,62c539a7ae27c2a639f10ef1,2022-07-06_09h29.42.117,Colour_Asymmetry_Pilot,2022.1.3,Win32,59.1891092,62c50e9c1127f2cd403a315f,,,,,,,,,,,,,,,,,,,,,,,,,,,,,,,,,,,,,,,,,,,,,,,,,,,,,,,,,,,,,,,,,,,,,,,,,,,,,,,,,,,,,,,,,,,,,,,,,,,,,,,,,,,,,,,,,,,,,,,,,,,,,,,,,,,,,,,,,,,,,,,,,,,,,,,,,,,,,,,,,,,
0,40,40,22,1,,60e00818b935a41dcfb1cccd,62c539a7ae27c2a639f10ef1,2022-07-06_09h29.42.117,Colour_Asymmetry_Pilot,2022.1.3,Win32,59.1891092,62c50e9c1127f2cd403a315f,,,,,,,,,,,,,,,,,,,,,,,,,,,,,,,,,,,,,,,,,,,,,,,,,,,,,,,,,,,,,,,,,,,,,,,,,,,,,,,,,,,,,,,,,,,,,,,,,,,,,,,,,,,,,,,,,,,,,,,,,,,,,,,,,,,,,,,,,,,,,,,,,,,,,,,,,,,,,,,,,,,
0,41,41,58,1,,60e00818b935a41dcfb1cccd,62c539a7ae27c2a639f10ef1,2022-07-06_09h29.42.117,Colour_Asymmetry_Pilot,2022.1.3,Win32,59.1891092,62c50e9c1127f2cd403a315f,,,,,,,,,,,,,,,,,,,,,,,,,,,,,,,,,,,,,,,,,,,,,,,,,,,,,,,,,,,,,,,,,,,,,,,,,,,,,,,,,,,,,,,,,,,,,,,,,,,,,,,,,,,,,,,,,,,,,,,,,,,,,,,,,,,,,,,,,,,,,,,,,,,,,,,,,,,,,,,,,,,
0,42,42,30,1,,60e00818b935a41dcfb1cccd,62c539a7ae27c2a639f10ef1,2022-07-06_09h29.42.117,Colour_Asymmetry_Pilot,2022.1.3,Win32,59.1891092,62c50e9c1127f2cd403a315f,,,,,,,,,,,,,,,,,,,,,,,,,,,,,,,,,,,,,,,,,,,,,,,,,,,,,,,,,,,,,,,,,,,,,,,,,,,,,,,,,,,,,,,,,,,,,,,,,,,,,,,,,,,,,,,,,,,,,,,,,,,,,,,,,,,,,,,,,,,,,,,,,,,,,,,,,,,,,,,,,,,
0,43,43,48,1,,60e00818b935a41dcfb1cccd,62c539a7ae27c2a639f10ef1,2022-07-06_09h29.42.117,Colour_Asymmetry_Pilot,2022.1.3,Win32,59.1891092,62c50e9c1127f2cd403a315f,,,,,,,,,,,,,,,,,,,,,,,,,,,,,,,,,,,,,,,,,,,,,,,,,,,,,,,,,,,,,,,,,,,,,,,,,,,,,,,,,,,,,,,,,,,,,,,,,,,,,,,,,,,,,,,,,,,,,,,,,,,,,,,,,,,,,,,,,,,,,,,,,,,,,,,,,,,,,,,,,,,
0,44,44,15,1,,60e00818b935a41dcfb1cccd,62c539a7ae27c2a639f10ef1,2022-07-06_09h29.42.117,Colour_Asymmetry_Pilot,2022.1.3,Win32,59.1891092,62c50e9c1127f2cd403a315f,,,,,,,,,,,,,,,,,,,,,,,,,,,,,,,,,,,,,,,,,,,,,,,,,,,,,,,,,,,,,,,,,,,,,,,,,,,,,,,,,,,,,,,,,,,,,,,,,,,,,,,,,,,,,,,,,,,,,,,,,,,,,,,,,,,,,,,,,,,,,,,,,,,,,,,,,,,,,,,,,,,
0,45,45,6,1,,60e00818b935a41dcfb1cccd,62c539a7ae27c2a639f10ef1,2022-07-06_09h29.42.117,Colour_Asymmetry_Pilot,2022.1.3,Win32,59.1891092,62c50e9c1127f2cd403a315f,,,,,,,,,,,,,,,,,,,,,,,,,,,,,,,,,,,,,,,,,,,,,,,,,,,,,,,,,,,,,,,,,,,,,,,,,,,,,,,,,,,,,,,,,,,,,,,,,,,,,,,,,,,,,,,,,,,,,,,,,,,,,,,,,,,,,,,,,,,,,,,,,,,,,,,,,,,,,,,,,,,
0,46,46,43,1,,60e00818b935a41dcfb1cccd,62c539a7ae27c2a639f10ef1,2022-07-06_09h29.42.117,Colour_Asymmetry_Pilot,2022.1.3,Win32,59.1891092,62c50e9c1127f2cd403a315f,,,,,,,,,,,,,,,,,,,,,,,,,,,,,,,,,,,,,,,,,,,,,,,,,,,,,,,,,,,,,,,,,,,,,,,,,,,,,,,,,,,,,,,,,,,,,,,,,,,,,,,,,,,,,,,,,,,,,,,,,,,,,,,,,,,,,,,,,,,,,,,,,,,,,,,,,,,,,,,,,,,
0,47,47,7,1,,60e00818b935a41dcfb1cccd,62c539a7ae27c2a639f10ef1,2022-07-06_09h29.42.117,Colour_Asymmetry_Pilot,2022.1.3,Win32,59.1891092,62c50e9c1127f2cd403a315f,,,,,,,,,,,,,,,,,,,,,,,,,,,,,,,,,,,,,,,,,,,,,,,,,,,,,,,,,,,,,,,,,,,,,,,,,,,,,,,,,,,,,,,,,,,,,,,,,,,,,,,,,,,,,,,,,,,,,,,,,,,,,,,,,,,,,,,,,,,,,,,,,,,,,,,,,,,,,,,,,,,
0,48,48,41,1,,60e00818b935a41dcfb1cccd,62c539a7ae27c2a639f10ef1,2022-07-06_09h29.42.117,Colour_Asymmetry_Pilot,2022.1.3,Win32,59.1891092,62c50e9c1127f2cd403a315f,,,,,,,,,,,,,,,,,,,,,,,,,,,,,,,,,,,,,,,,,,,,,,,,,,,,,,,,,,,,,,,,,,,,,,,,,,,,,,,,,,,,,,,,,,,,,,,,,,,,,,,,,,,,,,,,,,,,,,,,,,,,,,,,,,,,,,,,,,,,,,,,,,,,,,,,,,,,,,,,,,,
0,49,49,75,1,,60e00818b935a41dcfb1cccd,62c539a7ae27c2a639f10ef1,2022-07-06_09h29.42.117,Colour_Asymmetry_Pilot,2022.1.3,Win32,59.1891092,62c50e9c1127f2cd403a315f,,,,,,,,,,,,,,,,,,,,,,,,,,,,,,,,,,,,,,,,,,,,,,,,,,,,,,,,,,,,,,,,,,,,,,,,,,,,,,,,,,,,,,,,,,,,,,,,,,,,,,,,,,,,,,,,,,,,,,,,,,,,,,,,,,,,,,,,,,,,,,,,,,,,,,,,,,,,,,,,,,,
0,50,50,14,1,,60e00818b935a41dcfb1cccd,62c539a7ae27c2a639f10ef1,2022-07-06_09h29.42.117,Colour_Asymmetry_Pilot,2022.1.3,Win32,59.1891092,62c50e9c1127f2cd403a315f,,,,,,,,,,,,,,,,,,,,,,,,,,,,,,,,,,,,,,,,,,,,,,,,,,,,,,,,,,,,,,,,,,,,,,,,,,,,,,,,,,,,,,,,,,,,,,,,,,,,,,,,,,,,,,,,,,,,,,,,,,,,,,,,,,,,,,,,,,,,,,,,,,,,,,,,,,,,,,,,,,,
0,51,51,89,1,,60e00818b935a41dcfb1cccd,62c539a7ae27c2a639f10ef1,2022-07-06_09h29.42.117,Colour_Asymmetry_Pilot,2022.1.3,Win32,59.1891092,62c50e9c1127f2cd403a315f,,,,,,,,,,,,,,,,,,,,,,,,,,,,,,,,,,,,,,,,,,,,,,,,,,,,,,,,,,,,,,,,,,,,,,,,,,,,,,,,,,,,,,,,,,,,,,,,,,,,,,,,,,,,,,,,,,,,,,,,,,,,,,,,,,,,,,,,,,,,,,,,,,,,,,,,,,,,,,,,,,,
0,52,52,49,1,,60e00818b935a41dcfb1cccd,62c539a7ae27c2a639f10ef1,2022-07-06_09h29.42.117,Colour_Asymmetry_Pilot,2022.1.3,Win32,59.1891092,62c50e9c1127f2cd403a315f,,,,,,,,,,,,,,,,,,,,,,,,,,,,,,,,,,,,,,,,,,,,,,,,,,,,,,,,,,,,,,,,,,,,,,,,,,,,,,,,,,,,,,,,,,,,,,,,,,,,,,,,,,,,,,,,,,,,,,,,,,,,,,,,,,,,,,,,,,,,,,,,,,,,,,,,,,,,,,,,,,,
0,53,53,19,1,,60e00818b935a41dcfb1cccd,62c539a7ae27c2a639f10ef1,2022-07-06_09h29.42.117,Colour_Asymmetry_Pilot,2022.1.3,Win32,59.1891092,62c50e9c1127f2cd403a315f,,,,,,,,,,,,,,,,,,,,,,,,,,,,,,,,,,,,,,,,,,,,,,,,,,,,,,,,,,,,,,,,,,,,,,,,,,,,,,,,,,,,,,,,,,,,,,,,,,,,,,,,,,,,,,,,,,,,,,,,,,,,,,,,,,,,,,,,,,,,,,,,,,,,,,,,,,,,,,,,,,,
0,54,54,88,1,,60e00818b935a41dcfb1cccd,62c539a7ae27c2a639f10ef1,2022-07-06_09h29.42.117,Colour_Asymmetry_Pilot,2022.1.3,Win32,59.1891092,62c50e9c1127f2cd403a315f,,,,,,,,,,,,,,,,,,,,,,,,,,,,,,,,,,,,,,,,,,,,,,,,,,,,,,,,,,,,,,,,,,,,,,,,,,,,,,,,,,,,,,,,,,,,,,,,,,,,,,,,,,,,,,,,,,,,,,,,,,,,,,,,,,,,,,,,,,,,,,,,,,,,,,,,,,,,,,,,,,,
0,55,55,67,1,,60e00818b935a41dcfb1cccd,62c539a7ae27c2a639f10ef1,2022-07-06_09h29.42.117,Colour_Asymmetry_Pilot,2022.1.3,Win32,59.1891092,62c50e9c1127f2cd403a315f,,,,,,,,,,,,,,,,,,,,,,,,,,,,,,,,,,,,,,,,,,,,,,,,,,,,,,,,,,,,,,,,,,,,,,,,,,,,,,,,,,,,,,,,,,,,,,,,,,,,,,,,,,,,,,,,,,,,,,,,,,,,,,,,,,,,,,,,,,,,,,,,,,,,,,,,,,,,,,,,,,,
0,56,56,68,1,,60e00818b935a41dcfb1cccd,62c539a7ae27c2a639f10ef1,2022-07-06_09h29.42.117,Colour_Asymmetry_Pilot,2022.1.3,Win32,59.1891092,62c50e9c1127f2cd403a315f,,,,,,,,,,,,,,,,,,,,,,,,,,,,,,,,,,,,,,,,,,,,,,,,,,,,,,,,,,,,,,,,,,,,,,,,,,,,,,,,,,,,,,,,,,,,,,,,,,,,,,,,,,,,,,,,,,,,,,,,,,,,,,,,,,,,,,,,,,,,,,,,,,,,,,,,,,,,,,,,,,,
0,57,57,84,1,,60e00818b935a41dcfb1cccd,62c539a7ae27c2a639f10ef1,2022-07-06_09h29.42.117,Colour_Asymmetry_Pilot,2022.1.3,Win32,59.1891092,62c50e9c1127f2cd403a315f,,,,,,,,,,,,,,,,,,,,,,,,,,,,,,,,,,,,,,,,,,,,,,,,,,,,,,,,,,,,,,,,,,,,,,,,,,,,,,,,,,,,,,,,,,,,,,,,,,,,,,,,,,,,,,,,,,,,,,,,,,,,,,,,,,,,,,,,,,,,,,,,,,,,,,,,,,,,,,,,,,,
0,58,58,83,1,,60e00818b935a41dcfb1cccd,62c539a7ae27c2a639f10ef1,2022-07-06_09h29.42.117,Colour_Asymmetry_Pilot,2022.1.3,Win32,59.1891092,62c50e9c1127f2cd403a315f,,,,,,,,,,,,,,,,,,,,,,,,,,,,,,,,,,,,,,,,,,,,,,,,,,,,,,,,,,,,,,,,,,,,,,,,,,,,,,,,,,,,,,,,,,,,,,,,,,,,,,,,,,,,,,,,,,,,,,,,,,,,,,,,,,,,,,,,,,,,,,,,,,,,,,,,,,,,,,,,,,,
0,59,59,69,1,,60e00818b935a41dcfb1cccd,62c539a7ae27c2a639f10ef1,2022-07-06_09h29.42.117,Colour_Asymmetry_Pilot,2022.1.3,Win32,59.1891092,62c50e9c1127f2cd403a315f,,,,,,,,,,,,,,,,,,,,,,,,,,,,,,,,,,,,,,,,,,,,,,,,,,,,,,,,,,,,,,,,,,,,,,,,,,,,,,,,,,,,,,,,,,,,,,,,,,,,,,,,,,,,,,,,,,,,,,,,,,,,,,,,,,,,,,,,,,,,,,,,,,,,,,,,,,,,,,,,,,,
0,60,60,63,1,,60e00818b935a41dcfb1cccd,62c539a7ae27c2a639f10ef1,2022-07-06_09h29.42.117,Colour_Asymmetry_Pilot,2022.1.3,Win32,59.1891092,62c50e9c1127f2cd403a315f,,,,,,,,,,,,,,,,,,,,,,,,,,,,,,,,,,,,,,,,,,,,,,,,,,,,,,,,,,,,,,,,,,,,,,,,,,,,,,,,,,,,,,,,,,,,,,,,,,,,,,,,,,,,,,,,,,,,,,,,,,,,,,,,,,,,,,,,,,,,,,,,,,,,,,,,,,,,,,,,,,,
0,61,61,25,1,,60e00818b935a41dcfb1cccd,62c539a7ae27c2a639f10ef1,2022-07-06_09h29.42.117,Colour_Asymmetry_Pilot,2022.1.3,Win32,59.1891092,62c50e9c1127f2cd403a315f,,,,,,,,,,,,,,,,,,,,,,,,,,,,,,,,,,,,,,,,,,,,,,,,,,,,,,,,,,,,,,,,,,,,,,,,,,,,,,,,,,,,,,,,,,,,,,,,,,,,,,,,,,,,,,,,,,,,,,,,,,,,,,,,,,,,,,,,,,,,,,,,,,,,,,,,,,,,,,,,,,,
0,62,62,70,1,,60e00818b935a41dcfb1cccd,62c539a7ae27c2a639f10ef1,2022-07-06_09h29.42.117,Colour_Asymmetry_Pilot,2022.1.3,Win32,59.1891092,62c50e9c1127f2cd403a315f,,,,,,,,,,,,,,,,,,,,,,,,,,,,,,,,,,,,,,,,,,,,,,,,,,,,,,,,,,,,,,,,,,,,,,,,,,,,,,,,,,,,,,,,,,,,,,,,,,,,,,,,,,,,,,,,,,,,,,,,,,,,,,,,,,,,,,,,,,,,,,,,,,,,,,,,,,,,,,,,,,,
0,63,63,31,1,,60e00818b935a41dcfb1cccd,62c539a7ae27c2a639f10ef1,2022-07-06_09h29.42.117,Colour_Asymmetry_Pilot,2022.1.3,Win32,59.1891092,62c50e9c1127f2cd403a315f,,,,,,,,,,,,,,,,,,,,,,,,,,,,,,,,,,,,,,,,,,,,,,,,,,,,,,,,,,,,,,,,,,,,,,,,,,,,,,,,,,,,,,,,,,,,,,,,,,,,,,,,,,,,,,,,,,,,,,,,,,,,,,,,,,,,,,,,,,,,,,,,,,,,,,,,,,,,,,,,,,,
0,64,64,2,1,,60e00818b935a41dcfb1cccd,62c539a7ae27c2a639f10ef1,2022-07-06_09h29.42.117,Colour_Asymmetry_Pilot,2022.1.3,Win32,59.1891092,62c50e9c1127f2cd403a315f,,,,,,,,,,,,,,,,,,,,,,,,,,,,,,,,,,,,,,,,,,,,,,,,,,,,,,,,,,,,,,,,,,,,,,,,,,,,,,,,,,,,,,,,,,,,,,,,,,,,,,,,,,,,,,,,,,,,,,,,,,,,,,,,,,,,,,,,,,,,,,,,,,,,,,,,,,,,,,,,,,,
0,65,65,24,1,,60e00818b935a41dcfb1cccd,62c539a7ae27c2a639f10ef1,2022-07-06_09h29.42.117,Colour_Asymmetry_Pilot,2022.1.3,Win32,59.1891092,62c50e9c1127f2cd403a315f,,,,,,,,,,,,,,,,,,,,,,,,,,,,,,,,,,,,,,,,,,,,,,,,,,,,,,,,,,,,,,,,,,,,,,,,,,,,,,,,,,,,,,,,,,,,,,,,,,,,,,,,,,,,,,,,,,,,,,,,,,,,,,,,,,,,,,,,,,,,,,,,,,,,,,,,,,,,,,,,,,,
0,66,66,73,1,,60e00818b935a41dcfb1cccd,62c539a7ae27c2a639f10ef1,2022-07-06_09h29.42.117,Colour_Asymmetry_Pilot,2022.1.3,Win32,59.1891092,62c50e9c1127f2cd403a315f,,,,,,,,,,,,,,,,,,,,,,,,,,,,,,,,,,,,,,,,,,,,,,,,,,,,,,,,,,,,,,,,,,,,,,,,,,,,,,,,,,,,,,,,,,,,,,,,,,,,,,,,,,,,,,,,,,,,,,,,,,,,,,,,,,,,,,,,,,,,,,,,,,,,,,,,,,,,,,,,,,,
0,67,67,51,1,,60e00818b935a41dcfb1cccd,62c539a7ae27c2a639f10ef1,2022-07-06_09h29.42.117,Colour_Asymmetry_Pilot,2022.1.3,Win32,59.1891092,62c50e9c1127f2cd403a315f,,,,,,,,,,,,,,,,,,,,,,,,,,,,,,,,,,,,,,,,,,,,,,,,,,,,,,,,,,,,,,,,,,,,,,,,,,,,,,,,,,,,,,,,,,,,,,,,,,,,,,,,,,,,,,,,,,,,,,,,,,,,,,,,,,,,,,,,,,,,,,,,,,,,,,,,,,,,,,,,,,,
0,68,68,23,1,,60e00818b935a41dcfb1cccd,62c539a7ae27c2a639f10ef1,2022-07-06_09h29.42.117,Colour_Asymmetry_Pilot,2022.1.3,Win32,59.1891092,62c50e9c1127f2cd403a315f,,,,,,,,,,,,,,,,,,,,,,,,,,,,,,,,,,,,,,,,,,,,,,,,,,,,,,,,,,,,,,,,,,,,,,,,,,,,,,,,,,,,,,,,,,,,,,,,,,,,,,,,,,,,,,,,,,,,,,,,,,,,,,,,,,,,,,,,,,,,,,,,,,,,,,,,,,,,,,,,,,,
0,69,69,40,1,,60e00818b935a41dcfb1cccd,62c539a7ae27c2a639f10ef1,2022-07-06_09h29.42.117,Colour_Asymmetry_Pilot,2022.1.3,Win32,59.1891092,62c50e9c1127f2cd403a315f,,,,,,,,,,,,,,,,,,,,,,,,,,,,,,,,,,,,,,,,,,,,,,,,,,,,,,,,,,,,,,,,,,,,,,,,,,,,,,,,,,,,,,,,,,,,,,,,,,,,,,,,,,,,,,,,,,,,,,,,,,,,,,,,,,,,,,,,,,,,,,,,,,,,,,,,,,,,,,,,,,,
0,70,70,52,1,,60e00818b935a41dcfb1cccd,62c539a7ae27c2a639f10ef1,2022-07-06_09h29.42.117,Colour_Asymmetry_Pilot,2022.1.3,Win32,59.1891092,62c50e9c1127f2cd403a315f,,,,,,,,,,,,,,,,,,,,,,,,,,,,,,,,,,,,,,,,,,,,,,,,,,,,,,,,,,,,,,,,,,,,,,,,,,,,,,,,,,,,,,,,,,,,,,,,,,,,,,,,,,,,,,,,,,,,,,,,,,,,,,,,,,,,,,,,,,,,,,,,,,,,,,,,,,,,,,,,,,,
0,71,71,46,1,,60e00818b935a41dcfb1cccd,62c539a7ae27c2a639f10ef1,2022-07-06_09h29.42.117,Colour_Asymmetry_Pilot,2022.1.3,Win32,59.1891092,62c50e9c1127f2cd403a315f,,,,,,,,,,,,,,,,,,,,,,,,,,,,,,,,,,,,,,,,,,,,,,,,,,,,,,,,,,,,,,,,,,,,,,,,,,,,,,,,,,,,,,,,,,,,,,,,,,,,,,,,,,,,,,,,,,,,,,,,,,,,,,,,,,,,,,,,,,,,,,,,,,,,,,,,,,,,,,,,,,,
0,72,72,59,1,,60e00818b935a41dcfb1cccd,62c539a7ae27c2a639f10ef1,2022-07-06_09h29.42.117,Colour_Asymmetry_Pilot,2022.1.3,Win32,59.1891092,62c50e9c1127f2cd403a315f,,,,,,,,,,,,,,,,,,,,,,,,,,,,,,,,,,,,,,,,,,,,,,,,,,,,,,,,,,,,,,,,,,,,,,,,,,,,,,,,,,,,,,,,,,,,,,,,,,,,,,,,,,,,,,,,,,,,,,,,,,,,,,,,,,,,,,,,,,,,,,,,,,,,,,,,,,,,,,,,,,,
0,73,73,17,1,,60e00818b935a41dcfb1cccd,62c539a7ae27c2a639f10ef1,2022-07-06_09h29.42.117,Colour_Asymmetry_Pilot,2022.1.3,Win32,59.1891092,62c50e9c1127f2cd403a315f,,,,,,,,,,,,,,,,,,,,,,,,,,,,,,,,,,,,,,,,,,,,,,,,,,,,,,,,,,,,,,,,,,,,,,,,,,,,,,,,,,,,,,,,,,,,,,,,,,,,,,,,,,,,,,,,,,,,,,,,,,,,,,,,,,,,,,,,,,,,,,,,,,,,,,,,,,,,,,,,,,,
0,74,74,87,1,,60e00818b935a41dcfb1cccd,62c539a7ae27c2a639f10ef1,2022-07-06_09h29.42.117,Colour_Asymmetry_Pilot,2022.1.3,Win32,59.1891092,62c50e9c1127f2cd403a315f,,,,,,,,,,,,,,,,,,,,,,,,,,,,,,,,,,,,,,,,,,,,,,,,,,,,,,,,,,,,,,,,,,,,,,,,,,,,,,,,,,,,,,,,,,,,,,,,,,,,,,,,,,,,,,,,,,,,,,,,,,,,,,,,,,,,,,,,,,,,,,,,,,,,,,,,,,,,,,,,,,,
0,75,75,39,1,,60e00818b935a41dcfb1cccd,62c539a7ae27c2a639f10ef1,2022-07-06_09h29.42.117,Colour_Asymmetry_Pilot,2022.1.3,Win32,59.1891092,62c50e9c1127f2cd403a315f,,,,,,,,,,,,,,,,,,,,,,,,,,,,,,,,,,,,,,,,,,,,,,,,,,,,,,,,,,,,,,,,,,,,,,,,,,,,,,,,,,,,,,,,,,,,,,,,,,,,,,,,,,,,,,,,,,,,,,,,,,,,,,,,,,,,,,,,,,,,,,,,,,,,,,,,,,,,,,,,,,,
0,76,76,27,1,,60e00818b935a41dcfb1cccd,62c539a7ae27c2a639f10ef1,2022-07-06_09h29.42.117,Colour_Asymmetry_Pilot,2022.1.3,Win32,59.1891092,62c50e9c1127f2cd403a315f,,,,,,,,,,,,,,,,,,,,,,,,,,,,,,,,,,,,,,,,,,,,,,,,,,,,,,,,,,,,,,,,,,,,,,,,,,,,,,,,,,,,,,,,,,,,,,,,,,,,,,,,,,,,,,,,,,,,,,,,,,,,,,,,,,,,,,,,,,,,,,,,,,,,,,,,,,,,,,,,,,,
0,77,77,78,1,,60e00818b935a41dcfb1cccd,62c539a7ae27c2a639f10ef1,2022-07-06_09h29.42.117,Colour_Asymmetry_Pilot,2022.1.3,Win32,59.1891092,62c50e9c1127f2cd403a315f,,,,,,,,,,,,,,,,,,,,,,,,,,,,,,,,,,,,,,,,,,,,,,,,,,,,,,,,,,,,,,,,,,,,,,,,,,,,,,,,,,,,,,,,,,,,,,,,,,,,,,,,,,,,,,,,,,,,,,,,,,,,,,,,,,,,,,,,,,,,,,,,,,,,,,,,,,,,,,,,,,,
0,78,78,77,1,,60e00818b935a41dcfb1cccd,62c539a7ae27c2a639f10ef1,2022-07-06_09h29.42.117,Colour_Asymmetry_Pilot,2022.1.3,Win32,59.1891092,62c50e9c1127f2cd403a315f,,,,,,,,,,,,,,,,,,,,,,,,,,,,,,,,,,,,,,,,,,,,,,,,,,,,,,,,,,,,,,,,,,,,,,,,,,,,,,,,,,,,,,,,,,,,,,,,,,,,,,,,,,,,,,,,,,,,,,,,,,,,,,,,,,,,,,,,,,,,,,,,,,,,,,,,,,,,,,,,,,,
0,79,79,44,1,,60e00818b935a41dcfb1cccd,62c539a7ae27c2a639f10ef1,2022-07-06_09h29.42.117,Colour_Asymmetry_Pilot,2022.1.3,Win32,59.1891092,62c50e9c1127f2cd403a315f,,,,,,,,,,,,,,,,,,,,,,,,,,,,,,,,,,,,,,,,,,,,,,,,,,,,,,,,,,,,,,,,,,,,,,,,,,,,,,,,,,,,,,,,,,,,,,,,,,,,,,,,,,,,,,,,,,,,,,,,,,,,,,,,,,,,,,,,,,,,,,,,,,,,,,,,,,,,,,,,,,,
0,80,80,82,1,,60e00818b935a41dcfb1cccd,62c539a7ae27c2a639f10ef1,2022-07-06_09h29.42.117,Colour_Asymmetry_Pilot,2022.1.3,Win32,59.1891092,62c50e9c1127f2cd403a315f,,,,,,,,,,,,,,,,,,,,,,,,,,,,,,,,,,,,,,,,,,,,,,,,,,,,,,,,,,,,,,,,,,,,,,,,,,,,,,,,,,,,,,,,,,,,,,,,,,,,,,,,,,,,,,,,,,,,,,,,,,,,,,,,,,,,,,,,,,,,,,,,,,,,,,,,,,,,,,,,,,,
0,81,81,20,1,,60e00818b935a41dcfb1cccd,62c539a7ae27c2a639f10ef1,2022-07-06_09h29.42.117,Colour_Asymmetry_Pilot,2022.1.3,Win32,59.1891092,62c50e9c1127f2cd403a315f,,,,,,,,,,,,,,,,,,,,,,,,,,,,,,,,,,,,,,,,,,,,,,,,,,,,,,,,,,,,,,,,,,,,,,,,,,,,,,,,,,,,,,,,,,,,,,,,,,,,,,,,,,,,,,,,,,,,,,,,,,,,,,,,,,,,,,,,,,,,,,,,,,,,,,,,,,,,,,,,,,,
0,82,82,16,1,,60e00818b935a41dcfb1cccd,62c539a7ae27c2a639f10ef1,2022-07-06_09h29.42.117,Colour_Asymmetry_Pilot,2022.1.3,Win32,59.1891092,62c50e9c1127f2cd403a315f,,,,,,,,,,,,,,,,,,,,,,,,,,,,,,,,,,,,,,,,,,,,,,,,,,,,,,,,,,,,,,,,,,,,,,,,,,,,,,,,,,,,,,,,,,,,,,,,,,,,,,,,,,,,,,,,,,,,,,,,,,,,,,,,,,,,,,,,,,,,,,,,,,,,,,,,,,,,,,,,,,,
0,83,83,86,1,,60e00818b935a41dcfb1cccd,62c539a7ae27c2a639f10ef1,2022-07-06_09h29.42.117,Colour_Asymmetry_Pilot,2022.1.3,Win32,59.1891092,62c50e9c1127f2cd403a315f,,,,,,,,,,,,,,,,,,,,,,,,,,,,,,,,,,,,,,,,,,,,,,,,,,,,,,,,,,,,,,,,,,,,,,,,,,,,,,,,,,,,,,,,,,,,,,,,,,,,,,,,,,,,,,,,,,,,,,,,,,,,,,,,,,,,,,,,,,,,,,,,,,,,,,,,,,,,,,,,,,,
0,84,84,71,1,,60e00818b935a41dcfb1cccd,62c539a7ae27c2a639f10ef1,2022-07-06_09h29.42.117,Colour_Asymmetry_Pilot,2022.1.3,Win32,59.1891092,62c50e9c1127f2cd403a315f,,,,,,,,,,,,,,,,,,,,,,,,,,,,,,,,,,,,,,,,,,,,,,,,,,,,,,,,,,,,,,,,,,,,,,,,,,,,,,,,,,,,,,,,,,,,,,,,,,,,,,,,,,,,,,,,,,,,,,,,,,,,,,,,,,,,,,,,,,,,,,,,,,,,,,,,,,,,,,,,,,,
0,85,85,35,1,,60e00818b935a41dcfb1cccd,62c539a7ae27c2a639f10ef1,2022-07-06_09h29.42.117,Colour_Asymmetry_Pilot,2022.1.3,Win32,59.1891092,62c50e9c1127f2cd403a315f,,,,,,,,,,,,,,,,,,,,,,,,,,,,,,,,,,,,,,,,,,,,,,,,,,,,,,,,,,,,,,,,,,,,,,,,,,,,,,,,,,,,,,,,,,,,,,,,,,,,,,,,,,,,,,,,,,,,,,,,,,,,,,,,,,,,,,,,,,,,,,,,,,,,,,,,,,,,,,,,,,,
0,86,86,55,1,,60e00818b935a41dcfb1cccd,62c539a7ae27c2a639f10ef1,2022-07-06_09h29.42.117,Colour_Asymmetry_Pilot,2022.1.3,Win32,59.1891092,62c50e9c1127f2cd403a315f,,,,,,,,,,,,,,,,,,,,,,,,,,,,,,,,,,,,,,,,,,,,,,,,,,,,,,,,,,,,,,,,,,,,,,,,,,,,,,,,,,,,,,,,,,,,,,,,,,,,,,,,,,,,,,,,,,,,,,,,,,,,,,,,,,,,,,,,,,,,,,,,,,,,,,,,,,,,,,,,,,,
0,87,87,91,1,,60e00818b935a41dcfb1cccd,62c539a7ae27c2a639f10ef1,2022-07-06_09h29.42.117,Colour_Asymmetry_Pilot,2022.1.3,Win32,59.1891092,62c50e9c1127f2cd403a315f,,,,,,,,,,,,,,,,,,,,,,,,,,,,,,,,,,,,,,,,,,,,,,,,,,,,,,,,,,,,,,,,,,,,,,,,,,,,,,,,,,,,,,,,,,,,,,,,,,,,,,,,,,,,,,,,,,,,,,,,,,,,,,,,,,,,,,,,,,,,,,,,,,,,,,,,,,,,,,,,,,,
0,88,88,34,1,,60e00818b935a41dcfb1cccd,62c539a7ae27c2a639f10ef1,2022-07-06_09h29.42.117,Colour_Asymmetry_Pilot,2022.1.3,Win32,59.1891092,62c50e9c1127f2cd403a315f,,,,,,,,,,,,,,,,,,,,,,,,,,,,,,,,,,,,,,,,,,,,,,,,,,,,,,,,,,,,,,,,,,,,,,,,,,,,,,,,,,,,,,,,,,,,,,,,,,,,,,,,,,,,,,,,,,,,,,,,,,,,,,,,,,,,,,,,,,,,,,,,,,,,,,,,,,,,,,,,,,,
0,89,89,90,1,,60e00818b935a41dcfb1cccd,62c539a7ae27c2a639f10ef1,2022-07-06_09h29.42.117,Colour_Asymmetry_Pilot,2022.1.3,Win32,59.1891092,62c50e9c1127f2cd403a315f,,,,,,,,,,,,,,,,,,,,,,,,,,,,,,,,,,,,,,,,,,,,,,,,,,,,,,,,,,,,,,,,,,,,,,,,,,,,,,,,,,,,,,,,,,,,,,,,,,,,,,,,,,,,,,,,,,,,,,,,,,,,,,,,,,,,,,,,,,,,,,,,,,,,,,,,,,,,,,,,,,,
0,90,90,45,1,,60e00818b935a41dcfb1cccd,62c539a7ae27c2a639f10ef1,2022-07-06_09h29.42.117,Colour_Asymmetry_Pilot,2022.1.3,Win32,59.1891092,62c50e9c1127f2cd403a315f,,,,,,,,,,,,,,,,,,,,,,,,,,,,,,,,,,,,,,,,,,,,,,,,,,,,,,,,,,,,,,,,,,,,,,,,,,,,,,,,,,,,,,,,,,,,,,,,,,,,,,,,,,,,,,,,,,,,,,,,,,,,,,,,,,,,,,,,,,,,,,,,,,,,,,,,,,,,,,,,,,,
0,91,91,72,1,,60e00818b935a41dcfb1cccd,62c539a7ae27c2a639f10ef1,2022-07-06_09h29.42.117,Colour_Asymmetry_Pilot,2022.1.3,Win32,59.1891092,62c50e9c1127f2cd403a315f,,,,,,,,,,,,,,,,,,,,,,,,,,,,,,,,,,,,,,,,,,,,,,,,,,,,,,,,,,,,,,,,,,,,,,,,,,,,,,,,,,,,,,,,,,,,,,,,,,,,,,,,,,,,,,,,,,,,,,,,,,,,,,,,,,,,,,,,,,,,,,,,,,,,,,,,,,,,,,,,,,,
0,92,92,85,1,,60e00818b935a41dcfb1cccd,62c539a7ae27c2a639f10ef1,2022-07-06_09h29.42.117,Colour_Asymmetry_Pilot,2022.1.3,Win32,59.1891092,62c50e9c1127f2cd403a315f,,,,,,,,,,,,,,,,,,,,,,,,,,,,,,,,,,,,,,,,,,,,,,,,,,,,,,,,,,,,,,,,,,,,,,,,,,,,,,,,,,,,,,,,,,,,,,,,,,,,,,,,,,,,,,,,,,,,,,,,,,,,,,,,,,,,,,,,,,,,,,,,,,,,,,,,,,,,,,,,,,,
,,,,,,60e00818b935a41dcfb1cccd,62c539a7ae27c2a639f10ef1,2022-07-06_09h29.42.117,Colour_Asymmetry_Pilot,2022.1.3,Win32,59.1891092,62c50e9c1127f2cd403a315f,0,0,0,110,1,fourtwo,,,,,,,,,,,,,,,,,,,,,,,,,,,,,,,,,,,,,,,,,,,,,,,,,,,,,,,,,,,,,,,,,,,,,,,,,,,,,,,,,,,,,,,,,,,,,,,,,,,,,,,,,,,,,,,,,,,,,,,,,,,,,,,,,,,,,,,,,,,,,,,,,,,,,,,,,,,,,
,,,,,,60e00818b935a41dcfb1cccd,62c539a7ae27c2a639f10ef1,2022-07-06_09h29.42.117,Colour_Asymmetry_Pilot,2022.1.3,Win32,59.1891092,62c50e9c1127f2cd403a315f,0,1,1,58,1,twoone,,,,,,,,,,,,,,,,,,,,,,,,,,,,,,,,,,,,,,,,,,,,,,,,,,,,,,,,,,,,,,,,,,,,,,,,,,,,,,,,,,,,,,,,,,,,,,,,,,,,,,,,,,,,,,,,,,,,,,,,,,,,,,,,,,,,,,,,,,,,,,,,,,,,,,,,,,,,,
,,,,,,60e00818b935a41dcfb1cccd,62c539a7ae27c2a639f10ef1,2022-07-06_09h29.42.117,Colour_Asymmetry_Pilot,2022.1.3,Win32,59.1891092,62c50e9c1127f2cd403a315f,0,2,2,129,1,onethree,,,,,,,,,,,,,,,,,,,,,,,,,,,,,,,,,,,,,,,,,,,,,,,,,,,,,,,,,,,,,,,,,,,,,,,,,,,,,,,,,,,,,,,,,,,,,,,,,,,,,,,,,,,,,,,,,,,,,,,,,,,,,,,,,,,,,,,,,,,,,,,,,,,,,,,,,,,,,
,,,,,,60e00818b935a41dcfb1cccd,62c539a7ae27c2a639f10ef1,2022-07-06_09h29.42.117,Colour_Asymmetry_Pilot,2022.1.3,Win32,59.1891092,62c50e9c1127f2cd403a315f,0,3,3,85,1,threefour,,,,,,,,,,,,,,,,,,,,,,,,,,,,,,,,,,,,,,,,,,,,,,,,,,,,,,,,,,,,,,,,,,,,,,,,,,,,,,,,,,,,,,,,,,,,,,,,,,,,,,,,,,,,,,,,,,,,,,,,,,,,,,,,,,,,,,,,,,,,,,,,,,,,,,,,,,,,,
,,,,,,60e00818b935a41dcfb1cccd,62c539a7ae27c2a639f10ef1,2022-07-06_09h29.42.117,Colour_Asymmetry_Pilot,2022.1.3,Win32,59.1891092,62c50e9c1127f2cd403a315f,0,4,4,94,1,fourtwo,,,,,,,,,,,,,,,,,,,,,,,,,,,,,,,,,,,,,,,,,,,,,,,,,,,,,,,,,,,,,,,,,,,,,,,,,,,,,,,,,,,,,,,,,,,,,,,,,,,,,,,,,,,,,,,,,,,,,,,,,,,,,,,,,,,,,,,,,,,,,,,,,,,,,,,,,,,,,
,,,,,,60e00818b935a41dcfb1cccd,62c539a7ae27c2a639f10ef1,2022-07-06_09h29.42.117,Colour_Asymmetry_Pilot,2022.1.3,Win32,59.1891092,62c50e9c1127f2cd403a315f,0,5,5,67,1,twofour,,,,,,,,,,,,,,,,,,,,,,,,,,,,,,,,,,,,,,,,,,,,,,,,,,,,,,,,,,,,,,,,,,,,,,,,,,,,,,,,,,,,,,,,,,,,,,,,,,,,,,,,,,,,,,,,,,,,,,,,,,,,,,,,,,,,,,,,,,,,,,,,,,,,,,,,,,,,,
,,,,,,60e00818b935a41dcfb1cccd,62c539a7ae27c2a639f10ef1,2022-07-06_09h29.42.117,Colour_Asymmetry_Pilot,2022.1.3,Win32,59.1891092,62c50e9c1127f2cd403a315f,0,6,6,17,1,onethree,,,,,,,,,,,,,,,,,,,,,,,,,,,,,,,,,,,,,,,,,,,,,,,,,,,,,,,,,,,,,,,,,,,,,,,,,,,,,,,,,,,,,,,,,,,,,,,,,,,,,,,,,,,,,,,,,,,,,,,,,,,,,,,,,,,,,,,,,,,,,,,,,,,,,,,,,,,,,
,,,,,,60e00818b935a41dcfb1cccd,62c539a7ae27c2a639f10ef1,2022-07-06_09h29.42.117,Colour_Asymmetry_Pilot,2022.1.3,Win32,59.1891092,62c50e9c1127f2cd403a315f,0,7,7,90,1,twoone,,,,,,,,,,,,,,,,,,,,,,,,,,,,,,,,,,,,,,,,,,,,,,,,,,,,,,,,,,,,,,,,,,,,,,,,,,,,,,,,,,,,,,,,,,,,,,,,,,,,,,,,,,,,,,,,,,,,,,,,,,,,,,,,,,,,,,,,,,,,,,,,,,,,,,,,,,,,,
,,,,,,60e00818b935a41dcfb1cccd,62c539a7ae27c2a639f10ef1,2022-07-06_09h29.42.117,Colour_Asymmetry_Pilot,2022.1.3,Win32,59.1891092,62c50e9c1127f2cd403a315f,0,8,8,38,1,fourtwo,,,,,,,,,,,,,,,,,,,,,,,,,,,,,,,,,,,,,,,,,,,,,,,,,,,,,,,,,,,,,,,,,,,,,,,,,,,,,,,,,,,,,,,,,,,,,,,,,,,,,,,,,,,,,,,,,,,,,,,,,,,,,,,,,,,,,,,,,,,,,,,,,,,,,,,,,,,,,
,,,,,,60e00818b935a41dcfb1cccd,62c539a7ae27c2a639f10ef1,2022-07-06_09h29.42.117,Colour_Asymmetry_Pilot,2022.1.3,Win32,59.1891092,62c50e9c1127f2cd403a315f,0,9,9,21,1,threefour,,,,,,,,,,,,,,,,,,,,,,,,,,,,,,,,,,,,,,,,,,,,,,,,,,,,,,,,,,,,,,,,,,,,,,,,,,,,,,,,,,,,,,,,,,,,,,,,,,,,,,,,,,,,,,,,,,,,,,,,,,,,,,,,,,,,,,,,,,,,,,,,,,,,,,,,,,,,,
,,,,,,60e00818b935a41dcfb1cccd,62c539a7ae27c2a639f10ef1,2022-07-06_09h29.42.117,Colour_Asymmetry_Pilot,2022.1.3,Win32,59.1891092,62c50e9c1127f2cd403a315f,0,10,10,119,1,fourthree,,,,,,,,,,,,,,,,,,,,,,,,,,,,,,,,,,,,,,,,,,,,,,,,,,,,,,,,,,,,,,,,,,,,,,,,,,,,,,,,,,,,,,,,,,,,,,,,,,,,,,,,,,,,,,,,,,,,,,,,,,,,,,,,,,,,,,,,,,,,,,,,,,,,,,,,,,,,,
,,,,,,60e00818b935a41dcfb1cccd,62c539a7ae27c2a639f10ef1,2022-07-06_09h29.42.117,Colour_Asymmetry_Pilot,2022.1.3,Win32,59.1891092,62c50e9c1127f2cd403a315f,0,11,11,123,1,twofour,,,,,,,,,,,,,,,,,,,,,,,,,,,,,,,,,,,,,,,,,,,,,,,,,,,,,,,,,,,,,,,,,,,,,,,,,,,,,,,,,,,,,,,,,,,,,,,,,,,,,,,,,,,,,,,,,,,,,,,,,,,,,,,,,,,,,,,,,,,,,,,,,,,,,,,,,,,,,
,,,,,,60e00818b935a41dcfb1cccd,62c539a7ae27c2a639f10ef1,2022-07-06_09h29.42.117,Colour_Asymmetry_Pilot,2022.1.3,Win32,59.1891092,62c50e9c1127f2cd403a315f,0,12,12,51,1,twofour,,,,,,,,,,,,,,,,,,,,,,,,,,,,,,,,,,,,,,,,,,,,,,,,,,,,,,,,,,,,,,,,,,,,,,,,,,,,,,,,,,,,,,,,,,,,,,,,,,,,,,,,,,,,,,,,,,,,,,,,,,,,,,,,,,,,,,,,,,,,,,,,,,,,,,,,,,,,,
,,,,,,60e00818b935a41dcfb1cccd,62c539a7ae27c2a639f10ef1,2022-07-06_09h29.42.117,Colour_Asymmetry_Pilot,2022.1.3,Win32,59.1891092,62c50e9c1127f2cd403a315f,0,13,13,2,1,twoone,,,,,,,,,,,,,,,,,,,,,,,,,,,,,,,,,,,,,,,,,,,,,,,,,,,,,,,,,,,,,,,,,,,,,,,,,,,,,,,,,,,,,,,,,,,,,,,,,,,,,,,,,,,,,,,,,,,,,,,,,,,,,,,,,,,,,,,,,,,,,,,,,,,,,,,,,,,,,
,,,,,,60e00818b935a41dcfb1cccd,62c539a7ae27c2a639f10ef1,2022-07-06_09h29.42.117,Colour_Asymmetry_Pilot,2022.1.3,Win32,59.1891092,62c50e9c1127f2cd403a315f,0,14,14,97,1,onethree,,,,,,,,,,,,,,,,,,,,,,,,,,,,,,,,,,,,,,,,,,,,,,,,,,,,,,,,,,,,,,,,,,,,,,,,,,,,,,,,,,,,,,,,,,,,,,,,,,,,,,,,,,,,,,,,,,,,,,,,,,,,,,,,,,,,,,,,,,,,,,,,,,,,,,,,,,,,,
,,,,,,60e00818b935a41dcfb1cccd,62c539a7ae27c2a639f10ef1,2022-07-06_09h29.42.117,Colour_Asymmetry_Pilot,2022.1.3,Win32,59.1891092,62c50e9c1127f2cd403a315f,0,15,15,69,1,threefour,,,,,,,,,,,,,,,,,,,,,,,,,,,,,,,,,,,,,,,,,,,,,,,,,,,,,,,,,,,,,,,,,,,,,,,,,,,,,,,,,,,,,,,,,,,,,,,,,,,,,,,,,,,,,,,,,,,,,,,,,,,,,,,,,,,,,,,,,,,,,,,,,,,,,,,,,,,,,
,,,,,,60e00818b935a41dcfb1cccd,62c539a7ae27c2a639f10ef1,2022-07-06_09h29.42.117,Colour_Asymmetry_Pilot,2022.1.3,Win32,59.1891092,62c50e9c1127f2cd403a315f,0,16,16,148,1,threeone,,,,,,,,,,,,,,,,,,,,,,,,,,,,,,,,,,,,,,,,,,,,,,,,,,,,,,,,,,,,,,,,,,,,,,,,,,,,,,,,,,,,,,,,,,,,,,,,,,,,,,,,,,,,,,,,,,,,,,,,,,,,,,,,,,,,,,,,,,,,,,,,,,,,,,,,,,,,,
,,,,,,60e00818b935a41dcfb1cccd,62c539a7ae27c2a639f10ef1,2022-07-06_09h29.42.117,Colour_Asymmetry_Pilot,2022.1.3,Win32,59.1891092,62c50e9c1127f2cd403a315f,0,17,17,87,1,fourthree,,,,,,,,,,,,,,,,,,,,,,,,,,,,,,,,,,,,,,,,,,,,,,,,,,,,,,,,,,,,,,,,,,,,,,,,,,,,,,,,,,,,,,,,,,,,,,,,,,,,,,,,,,,,,,,,,,,,,,,,,,,,,,,,,,,,,,,,,,,,,,,,,,,,,,,,,,,,,
,,,,,,60e00818b935a41dcfb1cccd,62c539a7ae27c2a639f10ef1,2022-07-06_09h29.42.117,Colour_Asymmetry_Pilot,2022.1.3,Win32,59.1891092,62c50e9c1127f2cd403a315f,0,18,18,26,1,twoone,,,,,,,,,,,,,,,,,,,,,,,,,,,,,,,,,,,,,,,,,,,,,,,,,,,,,,,,,,,,,,,,,,,,,,,,,,,,,,,,,,,,,,,,,,,,,,,,,,,,,,,,,,,,,,,,,,,,,,,,,,,,,,,,,,,,,,,,,,,,,,,,,,,,,,,,,,,,,
,,,,,,60e00818b935a41dcfb1cccd,62c539a7ae27c2a639f10ef1,2022-07-06_09h29.42.117,Colour_Asymmetry_Pilot,2022.1.3,Win32,59.1891092,62c50e9c1127f2cd403a315f,0,19,19,95,1,fourthree,,,,,,,,,,,,,,,,,,,,,,,,,,,,,,,,,,,,,,,,,,,,,,,,,,,,,,,,,,,,,,,,,,,,,,,,,,,,,,,,,,,,,,,,,,,,,,,,,,,,,,,,,,,,,,,,,,,,,,,,,,,,,,,,,,,,,,,,,,,,,,,,,,,,,,,,,,,,,
,,,,,,60e00818b935a41dcfb1cccd,62c539a7ae27c2a639f10ef1,2022-07-06_09h29.42.117,Colour_Asymmetry_Pilot,2022.1.3,Win32,59.1891092,62c50e9c1127f2cd403a315f,0,20,20,6,1,fourtwo,,,,,,,,,,,,,,,,,,,,,,,,,,,,,,,,,,,,,,,,,,,,,,,,,,,,,,,,,,,,,,,,,,,,,,,,,,,,,,,,,,,,,,,,,,,,,,,,,,,,,,,,,,,,,,,,,,,,,,,,,,,,,,,,,,,,,,,,,,,,,,,,,,,,,,,,,,,,,
,,,,,,60e00818b935a41dcfb1cccd,62c539a7ae27c2a639f10ef1,2022-07-06_09h29.42.117,Colour_Asymmetry_Pilot,2022.1.3,Win32,59.1891092,62c50e9c1127f2cd403a315f,0,21,21,98,1,twoone,,,,,,,,,,,,,,,,,,,,,,,,,,,,,,,,,,,,,,,,,,,,,,,,,,,,,,,,,,,,,,,,,,,,,,,,,,,,,,,,,,,,,,,,,,,,,,,,,,,,,,,,,,,,,,,,,,,,,,,,,,,,,,,,,,,,,,,,,,,,,,,,,,,,,,,,,,,,,
,,,,,,60e00818b935a41dcfb1cccd,62c539a7ae27c2a639f10ef1,2022-07-06_09h29.42.117,Colour_Asymmetry_Pilot,2022.1.3,Win32,59.1891092,62c50e9c1127f2cd403a315f,0,22,22,36,1,threeone,,,,,,,,,,,,,,,,,,,,,,,,,,,,,,,,,,,,,,,,,,,,,,,,,,,,,,,,,,,,,,,,,,,,,,,,,,,,,,,,,,,,,,,,,,,,,,,,,,,,,,,,,,,,,,,,,,,,,,,,,,,,,,,,,,,,,,,,,,,,,,,,,,,,,,,,,,,,,
,,,,,,60e00818b935a41dcfb1cccd,62c539a7ae27c2a639f10ef1,2022-07-06_09h29.42.117,Colour_Asymmetry_Pilot,2022.1.3,Win32,59.1891092,62c50e9c1127f2cd403a315f,0,23,23,92,1,threeone,,,,,,,,,,,,,,,,,,,,,,,,,,,,,,,,,,,,,,,,,,,,,,,,,,,,,,,,,,,,,,,,,,,,,,,,,,,,,,,,,,,,,,,,,,,,,,,,,,,,,,,,,,,,,,,,,,,,,,,,,,,,,,,,,,,,,,,,,,,,,,,,,,,,,,,,,,,,,
,,,,,,60e00818b935a41dcfb1cccd,62c539a7ae27c2a639f10ef1,2022-07-06_09h29.42.117,Colour_Asymmetry_Pilot,2022.1.3,Win32,59.1891092,62c50e9c1127f2cd403a315f,0,24,24,65,1,onethree,,,,,,,,,,,,,,,,,,,,,,,,,,,,,,,,,,,,,,,,,,,,,,,,,,,,,,,,,,,,,,,,,,,,,,,,,,,,,,,,,,,,,,,,,,,,,,,,,,,,,,,,,,,,,,,,,,,,,,,,,,,,,,,,,,,,,,,,,,,,,,,,,,,,,,,,,,,,,
,,,,,,60e00818b935a41dcfb1cccd,62c539a7ae27c2a639f10ef1,2022-07-06_09h29.42.117,Colour_Asymmetry_Pilot,2022.1.3,Win32,59.1891092,62c50e9c1127f2cd403a315f,0,25,25,41,1,onethree,,,,,,,,,,,,,,,,,,,,,,,,,,,,,,,,,,,,,,,,,,,,,,,,,,,,,,,,,,,,,,,,,,,,,,,,,,,,,,,,,,,,,,,,,,,,,,,,,,,,,,,,,,,,,,,,,,,,,,,,,,,,,,,,,,,,,,,,,,,,,,,,,,,,,,,,,,,,,
,,,,,,60e00818b935a41dcfb1cccd,62c539a7ae27c2a639f10ef1,2022-07-06_09h29.42.117,Colour_Asymmetry_Pilot,2022.1.3,Win32,59.1891092,62c50e9c1127f2cd403a315f,0,26,26,43,1,twofour,,,,,,,,,,,,,,,,,,,,,,,,,,,,,,,,,,,,,,,,,,,,,,,,,,,,,,,,,,,,,,,,,,,,,,,,,,,,,,,,,,,,,,,,,,,,,,,,,,,,,,,,,,,,,,,,,,,,,,,,,,,,,,,,,,,,,,,,,,,,,,,,,,,,,,,,,,,,,
,,,,,,60e00818b935a41dcfb1cccd,62c539a7ae27c2a639f10ef1,2022-07-06_09h29.42.117,Colour_Asymmetry_Pilot,2022.1.3,Win32,59.1891092,62c50e9c1127f2cd403a315f,0,27,27,52,1,threeone,,,,,,,,,,,,,,,,,,,,,,,,,,,,,,,,,,,,,,,,,,,,,,,,,,,,,,,,,,,,,,,,,,,,,,,,,,,,,,,,,,,,,,,,,,,,,,,,,,,,,,,,,,,,,,,,,,,,,,,,,,,,,,,,,,,,,,,,,,,,,,,,,,,,,,,,,,,,,
,,,,,,60e00818b935a41dcfb1cccd,62c539a7ae27c2a639f10ef1,2022-07-06_09h29.42.117,Colour_Asymmetry_Pilot,2022.1.3,Win32,59.1891092,62c50e9c1127f2cd403a315f,0,28,28,63,1,fourthree,,,,,,,,,,,,,,,,,,,,,,,,,,,,,,,,,,,,,,,,,,,,,,,,,,,,,,,,,,,,,,,,,,,,,,,,,,,,,,,,,,,,,,,,,,,,,,,,,,,,,,,,,,,,,,,,,,,,,,,,,,,,,,,,,,,,,,,,,,,,,,,,,,,,,,,,,,,,,
,,,,,,60e00818b935a41dcfb1cccd,62c539a7ae27c2a639f10ef1,2022-07-06_09h29.42.117,Colour_Asymmetry_Pilot,2022.1.3,Win32,59.1891092,62c50e9c1127f2cd403a315f,0,29,29,111,1,fourthree,,,,,,,,,,,,,,,,,,,,,,,,,,,,,,,,,,,,,,,,,,,,,,,,,,,,,,,,,,,,,,,,,,,,,,,,,,,,,,,,,,,,,,,,,,,,,,,,,,,,,,,,,,,,,,,,,,,,,,,,,,,,,,,,,,,,,,,,,,,,,,,,,,,,,,,,,,,,,
,,,,,,60e00818b935a41dcfb1cccd,62c539a7ae27c2a639f10ef1,2022-07-06_09h29.42.117,Colour_Asymmetry_Pilot,2022.1.3,Win32,59.1891092,62c50e9c1127f2cd403a315f,0,30,30,130,1,twoone,,,,,,,,,,,,,,,,,,,,,,,,,,,,,,,,,,,,,,,,,,,,,,,,,,,,,,,,,,,,,,,,,,,,,,,,,,,,,,,,,,,,,,,,,,,,,,,,,,,,,,,,,,,,,,,,,,,,,,,,,,,,,,,,,,,,,,,,,,,,,,,,,,,,,,,,,,,,,
,,,,,,60e00818b935a41dcfb1cccd,62c539a7ae27c2a639f10ef1,2022-07-06_09h29.42.117,Colour_Asymmetry_Pilot,2022.1.3,Win32,59.1891092,62c50e9c1127f2cd403a315f,0,31,31,139,1,twofour,,,,,,,,,,,,,,,,,,,,,,,,,,,,,,,,,,,,,,,,,,,,,,,,,,,,,,,,,,,,,,,,,,,,,,,,,,,,,,,,,,,,,,,,,,,,,,,,,,,,,,,,,,,,,,,,,,,,,,,,,,,,,,,,,,,,,,,,,,,,,,,,,,,,,,,,,,,,,
,,,,,,60e00818b935a41dcfb1cccd,62c539a7ae27c2a639f10ef1,2022-07-06_09h29.42.117,Colour_Asymmetry_Pilot,2022.1.3,Win32,59.1891092,62c50e9c1127f2cd403a315f,0,32,32,138,1,twoone,,,,,,,,,,,,,,,,,,,,,,,,,,,,,,,,,,,,,,,,,,,,,,,,,,,,,,,,,,,,,,,,,,,,,,,,,,,,,,,,,,,,,,,,,,,,,,,,,,,,,,,,,,,,,,,,,,,,,,,,,,,,,,,,,,,,,,,,,,,,,,,,,,,,,,,,,,,,,
,,,,,,60e00818b935a41dcfb1cccd,62c539a7ae27c2a639f10ef1,2022-07-06_09h29.42.117,Colour_Asymmetry_Pilot,2022.1.3,Win32,59.1891092,62c50e9c1127f2cd403a315f,0,33,33,75,1,twofour,,,,,,,,,,,,,,,,,,,,,,,,,,,,,,,,,,,,,,,,,,,,,,,,,,,,,,,,,,,,,,,,,,,,,,,,,,,,,,,,,,,,,,,,,,,,,,,,,,,,,,,,,,,,,,,,,,,,,,,,,,,,,,,,,,,,,,,,,,,,,,,,,,,,,,,,,,,,,
,,,,,,60e00818b935a41dcfb1cccd,62c539a7ae27c2a639f10ef1,2022-07-06_09h29.42.117,Colour_Asymmetry_Pilot,2022.1.3,Win32,59.1891092,62c50e9c1127f2cd403a315f,0,34,34,102,1,fourtwo,,,,,,,,,,,,,,,,,,,,,,,,,,,,,,,,,,,,,,,,,,,,,,,,,,,,,,,,,,,,,,,,,,,,,,,,,,,,,,,,,,,,,,,,,,,,,,,,,,,,,,,,,,,,,,,,,,,,,,,,,,,,,,,,,,,,,,,,,,,,,,,,,,,,,,,,,,,,,
,,,,,,60e00818b935a41dcfb1cccd,62c539a7ae27c2a639f10ef1,2022-07-06_09h29.42.117,Colour_Asymmetry_Pilot,2022.1.3,Win32,59.1891092,62c50e9c1127f2cd403a315f,0,35,35,150,1,fourtwo,,,,,,,,,,,,,,,,,,,,,,,,,,,,,,,,,,,,,,,,,,,,,,,,,,,,,,,,,,,,,,,,,,,,,,,,,,,,,,,,,,,,,,,,,,,,,,,,,,,,,,,,,,,,,,,,,,,,,,,,,,,,,,,,,,,,,,,,,,,,,,,,,,,,,,,,,,,,,
,,,,,,60e00818b935a41dcfb1cccd,62c539a7ae27c2a639f10ef1,2022-07-06_09h29.42.117,Colour_Asymmetry_Pilot,2022.1.3,Win32,59.1891092,62c50e9c1127f2cd403a315f,0,36,36,0,1,onetwo,,,,,,,,,,,,,,,,,,,,,,,,,,,,,,,,,,,,,,,,,,,,,,,,,,,,,,,,,,,,,,,,,,,,,,,,,,,,,,,,,,,,,,,,,,,,,,,,,,,,,,,,,,,,,,,,,,,,,,,,,,,,,,,,,,,,,,,,,,,,,,,,,,,,,,,,,,,,,
,,,,,,60e00818b935a41dcfb1cccd,62c539a7ae27c2a639f10ef1,2022-07-06_09h29.42.117,Colour_Asymmetry_Pilot,2022.1.3,Win32,59.1891092,62c50e9c1127f2cd403a315f,0,37,37,135,1,fourthree,,,,,,,,,,,,,,,,,,,,,,,,,,,,,,,,,,,,,,,,,,,,,,,,,,,,,,,,,,,,,,,,,,,,,,,,,,,,,,,,,,,,,,,,,,,,,,,,,,,,,,,,,,,,,,,,,,,,,,,,,,,,,,,,,,,,,,,,,,,,,,,,,,,,,,,,,,,,,
,,,,,,60e00818b935a41dcfb1cccd,62c539a7ae27c2a639f10ef1,2022-07-06_09h29.42.117,Colour_Asymmetry_Pilot,2022.1.3,Win32,59.1891092,62c50e9c1127f2cd403a315f,0,38,38,156,1,threeone,,,,,,,,,,,,,,,,,,,,,,,,,,,,,,,,,,,,,,,,,,,,,,,,,,,,,,,,,,,,,,,,,,,,,,,,,,,,,,,,,,,,,,,,,,,,,,,,,,,,,,,,,,,,,,,,,,,,,,,,,,,,,,,,,,,,,,,,,,,,,,,,,,,,,,,,,,,,,
,,,,,,60e00818b935a41dcfb1cccd,62c539a7ae27c2a639f10ef1,2022-07-06_09h29.42.117,Colour_Asymmetry_Pilot,2022.1.3,Win32,59.1891092,62c50e9c1127f2cd403a315f,0,39,39,13,1,threefour,,,,,,,,,,,,,,,,,,,,,,,,,,,,,,,,,,,,,,,,,,,,,,,,,,,,,,,,,,,,,,,,,,,,,,,,,,,,,,,,,,,,,,,,,,,,,,,,,,,,,,,,,,,,,,,,,,,,,,,,,,,,,,,,,,,,,,,,,,,,,,,,,,,,,,,,,,,,,
,,,,,,60e00818b935a41dcfb1cccd,62c539a7ae27c2a639f10ef1,2022-07-06_09h29.42.117,Colour_Asymmetry_Pilot,2022.1.3,Win32,59.1891092,62c50e9c1127f2cd403a315f,0,40,40,158,1,fourtwo,,,,,,,,,,,,,,,,,,,,,,,,,,,,,,,,,,,,,,,,,,,,,,,,,,,,,,,,,,,,,,,,,,,,,,,,,,,,,,,,,,,,,,,,,,,,,,,,,,,,,,,,,,,,,,,,,,,,,,,,,,,,,,,,,,,,,,,,,,,,,,,,,,,,,,,,,,,,,
,,,,,,60e00818b935a41dcfb1cccd,62c539a7ae27c2a639f10ef1,2022-07-06_09h29.42.117,Colour_Asymmetry_Pilot,2022.1.3,Win32,59.1891092,62c50e9c1127f2cd403a315f,0,41,41,64,1,onetwo,,,,,,,,,,,,,,,,,,,,,,,,,,,,,,,,,,,,,,,,,,,,,,,,,,,,,,,,,,,,,,,,,,,,,,,,,,,,,,,,,,,,,,,,,,,,,,,,,,,,,,,,,,,,,,,,,,,,,,,,,,,,,,,,,,,,,,,,,,,,,,,,,,,,,,,,,,,,,
,,,,,,60e00818b935a41dcfb1cccd,62c539a7ae27c2a639f10ef1,2022-07-06_09h29.42.117,Colour_Asymmetry_Pilot,2022.1.3,Win32,59.1891092,62c50e9c1127f2cd403a315f,0,42,42,91,1,twofour,,,,,,,,,,,,,,,,,,,,,,,,,,,,,,,,,,,,,,,,,,,,,,,,,,,,,,,,,,,,,,,,,,,,,,,,,,,,,,,,,,,,,,,,,,,,,,,,,,,,,,,,,,,,,,,,,,,,,,,,,,,,,,,,,,,,,,,,,,,,,,,,,,,,,,,,,,,,,
,,,,,,60e00818b935a41dcfb1cccd,62c539a7ae27c2a639f10ef1,2022-07-06_09h29.42.117,Colour_Asymmetry_Pilot,2022.1.3,Win32,59.1891092,62c50e9c1127f2cd403a315f,0,43,43,33,1,onethree,,,,,,,,,,,,,,,,,,,,,,,,,,,,,,,,,,,,,,,,,,,,,,,,,,,,,,,,,,,,,,,,,,,,,,,,,,,,,,,,,,,,,,,,,,,,,,,,,,,,,,,,,,,,,,,,,,,,,,,,,,,,,,,,,,,,,,,,,,,,,,,,,,,,,,,,,,,,,
,,,,,,60e00818b935a41dcfb1cccd,62c539a7ae27c2a639f10ef1,2022-07-06_09h29.42.117,Colour_Asymmetry_Pilot,2022.1.3,Win32,59.1891092,62c50e9c1127f2cd403a315f,0,44,44,152,1,onetwo,,,,,,,,,,,,,,,,,,,,,,,,,,,,,,,,,,,,,,,,,,,,,,,,,,,,,,,,,,,,,,,,,,,,,,,,,,,,,,,,,,,,,,,,,,,,,,,,,,,,,,,,,,,,,,,,,,,,,,,,,,,,,,,,,,,,,,,,,,,,,,,,,,,,,,,,,,,,,
,,,,,,60e00818b935a41dcfb1cccd,62c539a7ae27c2a639f10ef1,2022-07-06_09h29.42.117,Colour_Asymmetry_Pilot,2022.1.3,Win32,59.1891092,62c50e9c1127f2cd403a315f,0,45,45,66,1,twoone,,,,,,,,,,,,,,,,,,,,,,,,,,,,,,,,,,,,,,,,,,,,,,,,,,,,,,,,,,,,,,,,,,,,,,,,,,,,,,,,,,,,,,,,,,,,,,,,,,,,,,,,,,,,,,,,,,,,,,,,,,,,,,,,,,,,,,,,,,,,,,,,,,,,,,,,,,,,,
,,,,,,60e00818b935a41dcfb1cccd,62c539a7ae27c2a639f10ef1,2022-07-06_09h29.42.117,Colour_Asymmetry_Pilot,2022.1.3,Win32,59.1891092,62c50e9c1127f2cd403a315f,0,46,46,106,1,twoone,,,,,,,,,,,,,,,,,,,,,,,,,,,,,,,,,,,,,,,,,,,,,,,,,,,,,,,,,,,,,,,,,,,,,,,,,,,,,,,,,,,,,,,,,,,,,,,,,,,,,,,,,,,,,,,,,,,,,,,,,,,,,,,,,,,,,,,,,,,,,,,,,,,,,,,,,,,,,
,,,,,,60e00818b935a41dcfb1cccd,62c539a7ae27c2a639f10ef1,2022-07-06_09h29.42.117,Colour_Asymmetry_Pilot,2022.1.3,Win32,59.1891092,62c50e9c1127f2cd403a315f,0,47,47,133,1,threefour,,,,,,,,,,,,,,,,,,,,,,,,,,,,,,,,,,,,,,,,,,,,,,,,,,,,,,,,,,,,,,,,,,,,,,,,,,,,,,,,,,,,,,,,,,,,,,,,,,,,,,,,,,,,,,,,,,,,,,,,,,,,,,,,,,,,,,,,,,,,,,,,,,,,,,,,,,,,,
,,,,,,60e00818b935a41dcfb1cccd,62c539a7ae27c2a639f10ef1,2022-07-06_09h29.42.117,Colour_Asymmetry_Pilot,2022.1.3,Win32,59.1891092,62c50e9c1127f2cd403a315f,0,48,48,5,1,threefour,,,,,,,,,,,,,,,,,,,,,,,,,,,,,,,,,,,,,,,,,,,,,,,,,,,,,,,,,,,,,,,,,,,,,,,,,,,,,,,,,,,,,,,,,,,,,,,,,,,,,,,,,,,,,,,,,,,,,,,,,,,,,,,,,,,,,,,,,,,,,,,,,,,,,,,,,,,,,
,,,,,,60e00818b935a41dcfb1cccd,62c539a7ae27c2a639f10ef1,2022-07-06_09h29.42.117,Colour_Asymmetry_Pilot,2022.1.3,Win32,59.1891092,62c50e9c1127f2cd403a315f,0,49,49,61,1,threefour,,,,,,,,,,,,,,,,,,,,,,,,,,,,,,,,,,,,,,,,,,,,,,,,,,,,,,,,,,,,,,,,,,,,,,,,,,,,,,,,,,,,,,,,,,,,,,,,,,,,,,,,,,,,,,,,,,,,,,,,,,,,,,,,,,,,,,,,,,,,,,,,,,,,,,,,,,,,,
,,,,,,60e00818b935a41dcfb1cccd,62c539a7ae27c2a639f10ef1,2022-07-06_09h29.42.117,Colour_Asymmetry_Pilot,2022.1.3,Win32,59.1891092,62c50e9c1127f2cd403a315f,0,50,50,60,1,threeone,,,,,,,,,,,,,,,,,,,,,,,,,,,,,,,,,,,,,,,,,,,,,,,,,,,,,,,,,,,,,,,,,,,,,,,,,,,,,,,,,,,,,,,,,,,,,,,,,,,,,,,,,,,,,,,,,,,,,,,,,,,,,,,,,,,,,,,,,,,,,,,,,,,,,,,,,,,,,
,,,,,,60e00818b935a41dcfb1cccd,62c539a7ae27c2a639f10ef1,2022-07-06_09h29.42.117,Colour_Asymmetry_Pilot,2022.1.3,Win32,59.1891092,62c50e9c1127f2cd403a315f,0,51,51,74,1,twoone,,,,,,,,,,,,,,,,,,,,,,,,,,,,,,,,,,,,,,,,,,,,,,,,,,,,,,,,,,,,,,,,,,,,,,,,,,,,,,,,,,,,,,,,,,,,,,,,,,,,,,,,,,,,,,,,,,,,,,,,,,,,,,,,,,,,,,,,,,,,,,,,,,,,,,,,,,,,,
,,,,,,60e00818b935a41dcfb1cccd,62c539a7ae27c2a639f10ef1,2022-07-06_09h29.42.117,Colour_Asymmetry_Pilot,2022.1.3,Win32,59.1891092,62c50e9c1127f2cd403a315f,0,52,52,27,1,twofour,,,,,,,,,,,,,,,,,,,,,,,,,,,,,,,,,,,,,,,,,,,,,,,,,,,,,,,,,,,,,,,,,,,,,,,,,,,,,,,,,,,,,,,,,,,,,,,,,,,,,,,,,,,,,,,,,,,,,,,,,,,,,,,,,,,,,,,,,,,,,,,,,,,,,,,,,,,,,
,,,,,,60e00818b935a41dcfb1cccd,62c539a7ae27c2a639f10ef1,2022-07-06_09h29.42.117,Colour_Asymmetry_Pilot,2022.1.3,Win32,59.1891092,62c50e9c1127f2cd403a315f,0,53,53,31,1,fourthree,,,,,,,,,,,,,,,,,,,,,,,,,,,,,,,,,,,,,,,,,,,,,,,,,,,,,,,,,,,,,,,,,,,,,,,,,,,,,,,,,,,,,,,,,,,,,,,,,,,,,,,,,,,,,,,,,,,,,,,,,,,,,,,,,,,,,,,,,,,,,,,,,,,,,,,,,,,,,
,,,,,,60e00818b935a41dcfb1cccd,62c539a7ae27c2a639f10ef1,2022-07-06_09h29.42.117,Colour_Asymmetry_Pilot,2022.1.3,Win32,59.1891092,62c50e9c1127f2cd403a315f,0,54,54,53,1,threefour,,,,,,,,,,,,,,,,,,,,,,,,,,,,,,,,,,,,,,,,,,,,,,,,,,,,,,,,,,,,,,,,,,,,,,,,,,,,,,,,,,,,,,,,,,,,,,,,,,,,,,,,,,,,,,,,,,,,,,,,,,,,,,,,,,,,,,,,,,,,,,,,,,,,,,,,,,,,,
,,,,,,60e00818b935a41dcfb1cccd,62c539a7ae27c2a639f10ef1,2022-07-06_09h29.42.117,Colour_Asymmetry_Pilot,2022.1.3,Win32,59.1891092,62c50e9c1127f2cd403a315f,0,55,55,100,1,threeone,,,,,,,,,,,,,,,,,,,,,,,,,,,,,,,,,,,,,,,,,,,,,,,,,,,,,,,,,,,,,,,,,,,,,,,,,,,,,,,,,,,,,,,,,,,,,,,,,,,,,,,,,,,,,,,,,,,,,,,,,,,,,,,,,,,,,,,,,,,,,,,,,,,,,,,,,,,,,
,,,,,,60e00818b935a41dcfb1cccd,62c539a7ae27c2a639f10ef1,2022-07-06_09h29.42.117,Colour_Asymmetry_Pilot,2022.1.3,Win32,59.1891092,62c50e9c1127f2cd403a315f,0,56,56,154,1,twoone,,,,,,,,,,,,,,,,,,,,,,,,,,,,,,,,,,,,,,,,,,,,,,,,,,,,,,,,,,,,,,,,,,,,,,,,,,,,,,,,,,,,,,,,,,,,,,,,,,,,,,,,,,,,,,,,,,,,,,,,,,,,,,,,,,,,,,,,,,,,,,,,,,,,,,,,,,,,,
,,,,,,60e00818b935a41dcfb1cccd,62c539a7ae27c2a639f10ef1,2022-07-06_09h29.42.117,Colour_Asymmetry_Pilot,2022.1.3,Win32,59.1891092,62c50e9c1127f2cd403a315f,0,57,57,144,1,onetwo,,,,,,,,,,,,,,,,,,,,,,,,,,,,,,,,,,,,,,,,,,,,,,,,,,,,,,,,,,,,,,,,,,,,,,,,,,,,,,,,,,,,,,,,,,,,,,,,,,,,,,,,,,,,,,,,,,,,,,,,,,,,,,,,,,,,,,,,,,,,,,,,,,,,,,,,,,,,,
,,,,,,60e00818b935a41dcfb1cccd,62c539a7ae27c2a639f10ef1,2022-07-06_09h29.42.117,Colour_Asymmetry_Pilot,2022.1.3,Win32,59.1891092,62c50e9c1127f2cd403a315f,0,58,58,120,1,onetwo,,,,,,,,,,,,,,,,,,,,,,,,,,,,,,,,,,,,,,,,,,,,,,,,,,,,,,,,,,,,,,,,,,,,,,,,,,,,,,,,,,,,,,,,,,,,,,,,,,,,,,,,,,,,,,,,,,,,,,,,,,,,,,,,,,,,,,,,,,,,,,,,,,,,,,,,,,,,,
,,,,,,60e00818b935a41dcfb1cccd,62c539a7ae27c2a639f10ef1,2022-07-06_09h29.42.117,Colour_Asymmetry_Pilot,2022.1.3,Win32,59.1891092,62c50e9c1127f2cd403a315f,0,59,59,79,1,fourthree,,,,,,,,,,,,,,,,,,,,,,,,,,,,,,,,,,,,,,,,,,,,,,,,,,,,,,,,,,,,,,,,,,,,,,,,,,,,,,,,,,,,,,,,,,,,,,,,,,,,,,,,,,,,,,,,,,,,,,,,,,,,,,,,,,,,,,,,,,,,,,,,,,,,,,,,,,,,,
,,,,,,60e00818b935a41dcfb1cccd,62c539a7ae27c2a639f10ef1,2022-07-06_09h29.42.117,Colour_Asymmetry_Pilot,2022.1.3,Win32,59.1891092,62c50e9c1127f2cd403a315f,0,60,60,126,1,fourtwo,,,,,,,,,,,,,,,,,,,,,,,,,,,,,,,,,,,,,,,,,,,,,,,,,,,,,,,,,,,,,,,,,,,,,,,,,,,,,,,,,,,,,,,,,,,,,,,,,,,,,,,,,,,,,,,,,,,,,,,,,,,,,,,,,,,,,,,,,,,,,,,,,,,,,,,,,,,,,
,,,,,,60e00818b935a41dcfb1cccd,62c539a7ae27c2a639f10ef1,2022-07-06_09h29.42.117,Colour_Asymmetry_Pilot,2022.1.3,Win32,59.1891092,62c50e9c1127f2cd403a315f,0,61,61,157,1,threefour,,,,,,,,,,,,,,,,,,,,,,,,,,,,,,,,,,,,,,,,,,,,,,,,,,,,,,,,,,,,,,,,,,,,,,,,,,,,,,,,,,,,,,,,,,,,,,,,,,,,,,,,,,,,,,,,,,,,,,,,,,,,,,,,,,,,,,,,,,,,,,,,,,,,,,,,,,,,,
,,,,,,60e00818b935a41dcfb1cccd,62c539a7ae27c2a639f10ef1,2022-07-06_09h29.42.117,Colour_Asymmetry_Pilot,2022.1.3,Win32,59.1891092,62c50e9c1127f2cd403a315f,0,62,62,101,1,threefour,,,,,,,,,,,,,,,,,,,,,,,,,,,,,,,,,,,,,,,,,,,,,,,,,,,,,,,,,,,,,,,,,,,,,,,,,,,,,,,,,,,,,,,,,,,,,,,,,,,,,,,,,,,,,,,,,,,,,,,,,,,,,,,,,,,,,,,,,,,,,,,,,,,,,,,,,,,,,
,,,,,,60e00818b935a41dcfb1cccd,62c539a7ae27c2a639f10ef1,2022-07-06_09h29.42.117,Colour_Asymmetry_Pilot,2022.1.3,Win32,59.1891092,62c50e9c1127f2cd403a315f,0,63,63,146,1,twoone,,,,,,,,,,,,,,,,,,,,,,,,,,,,,,,,,,,,,,,,,,,,,,,,,,,,,,,,,,,,,,,,,,,,,,,,,,,,,,,,,,,,,,,,,,,,,,,,,,,,,,,,,,,,,,,,,,,,,,,,,,,,,,,,,,,,,,,,,,,,,,,,,,,,,,,,,,,,,
,,,,,,60e00818b935a41dcfb1cccd,62c539a7ae27c2a639f10ef1,2022-07-06_09h29.42.117,Colour_Asymmetry_Pilot,2022.1.3,Win32,59.1891092,62c50e9c1127f2cd403a315f,0,64,64,80,1,onetwo,,,,,,,,,,,,,,,,,,,,,,,,,,,,,,,,,,,,,,,,,,,,,,,,,,,,,,,,,,,,,,,,,,,,,,,,,,,,,,,,,,,,,,,,,,,,,,,,,,,,,,,,,,,,,,,,,,,,,,,,,,,,,,,,,,,,,,,,,,,,,,,,,,,,,,,,,,,,,
,,,,,,60e00818b935a41dcfb1cccd,62c539a7ae27c2a639f10ef1,2022-07-06_09h29.42.117,Colour_Asymmetry_Pilot,2022.1.3,Win32,59.1891092,62c50e9c1127f2cd403a315f,0,65,65,122,1,twoone,,,,,,,,,,,,,,,,,,,,,,,,,,,,,,,,,,,,,,,,,,,,,,,,,,,,,,,,,,,,,,,,,,,,,,,,,,,,,,,,,,,,,,,,,,,,,,,,,,,,,,,,,,,,,,,,,,,,,,,,,,,,,,,,,,,,,,,,,,,,,,,,,,,,,,,,,,,,,
,,,,,,60e00818b935a41dcfb1cccd,62c539a7ae27c2a639f10ef1,2022-07-06_09h29.42.117,Colour_Asymmetry_Pilot,2022.1.3,Win32,59.1891092,62c50e9c1127f2cd403a315f,0,66,66,18,1,twoone,,,,,,,,,,,,,,,,,,,,,,,,,,,,,,,,,,,,,,,,,,,,,,,,,,,,,,,,,,,,,,,,,,,,,,,,,,,,,,,,,,,,,,,,,,,,,,,,,,,,,,,,,,,,,,,,,,,,,,,,,,,,,,,,,,,,,,,,,,,,,,,,,,,,,,,,,,,,,
,,,,,,60e00818b935a41dcfb1cccd,62c539a7ae27c2a639f10ef1,2022-07-06_09h29.42.117,Colour_Asymmetry_Pilot,2022.1.3,Win32,59.1891092,62c50e9c1127f2cd403a315f,0,67,67,11,1,twofour,,,,,,,,,,,,,,,,,,,,,,,,,,,,,,,,,,,,,,,,,,,,,,,,,,,,,,,,,,,,,,,,,,,,,,,,,,,,,,,,,,,,,,,,,,,,,,,,,,,,,,,,,,,,,,,,,,,,,,,,,,,,,,,,,,,,,,,,,,,,,,,,,,,,,,,,,,,,,
,,,,,,60e00818b935a41dcfb1cccd,62c539a7ae27c2a639f10ef1,2022-07-06_09h29.42.117,Colour_Asymmetry_Pilot,2022.1.3,Win32,59.1891092,62c50e9c1127f2cd403a315f,0,68,68,45,1,threefour,,,,,,,,,,,,,,,,,,,,,,,,,,,,,,,,,,,,,,,,,,,,,,,,,,,,,,,,,,,,,,,,,,,,,,,,,,,,,,,,,,,,,,,,,,,,,,,,,,,,,,,,,,,,,,,,,,,,,,,,,,,,,,,,,,,,,,,,,,,,,,,,,,,,,,,,,,,,,
,,,,,,60e00818b935a41dcfb1cccd,62c539a7ae27c2a639f10ef1,2022-07-06_09h29.42.117,Colour_Asymmetry_Pilot,2022.1.3,Win32,59.1891092,62c50e9c1127f2cd403a315f,0,69,69,56,1,onetwo,,,,,,,,,,,,,,,,,,,,,,,,,,,,,,,,,,,,,,,,,,,,,,,,,,,,,,,,,,,,,,,,,,,,,,,,,,,,,,,,,,,,,,,,,,,,,,,,,,,,,,,,,,,,,,,,,,,,,,,,,,,,,,,,,,,,,,,,,,,,,,,,,,,,,,,,,,,,,
,,,,,,60e00818b935a41dcfb1cccd,62c539a7ae27c2a639f10ef1,2022-07-06_09h29.42.117,Colour_Asymmetry_Pilot,2022.1.3,Win32,59.1891092,62c50e9c1127f2cd403a315f,0,70,70,93,1,threefour,,,,,,,,,,,,,,,,,,,,,,,,,,,,,,,,,,,,,,,,,,,,,,,,,,,,,,,,,,,,,,,,,,,,,,,,,,,,,,,,,,,,,,,,,,,,,,,,,,,,,,,,,,,,,,,,,,,,,,,,,,,,,,,,,,,,,,,,,,,,,,,,,,,,,,,,,,,,,
,,,,,,60e00818b935a41dcfb1cccd,62c539a7ae27c2a639f10ef1,2022-07-06_09h29.42.117,Colour_Asymmetry_Pilot,2022.1.3,Win32,59.1891092,62c50e9c1127f2cd403a315f,0,71,71,37,1,threefour,,,,,,,,,,,,,,,,,,,,,,,,,,,,,,,,,,,,,,,,,,,,,,,,,,,,,,,,,,,,,,,,,,,,,,,,,,,,,,,,,,,,,,,,,,,,,,,,,,,,,,,,,,,,,,,,,,,,,,,,,,,,,,,,,,,,,,,,,,,,,,,,,,,,,,,,,,,,,
,,,,,,60e00818b935a41dcfb1cccd,62c539a7ae27c2a639f10ef1,2022-07-06_09h29.42.117,Colour_Asymmetry_Pilot,2022.1.3,Win32,59.1891092,62c50e9c1127f2cd403a315f,0,72,72,7,1,fourthree,,,,,,,,,,,,,,,,,,,,,,,,,,,,,,,,,,,,,,,,,,,,,,,,,,,,,,,,,,,,,,,,,,,,,,,,,,,,,,,,,,,,,,,,,,,,,,,,,,,,,,,,,,,,,,,,,,,,,,,,,,,,,,,,,,,,,,,,,,,,,,,,,,,,,,,,,,,,,
,,,,,,60e00818b935a41dcfb1cccd,62c539a7ae27c2a639f10ef1,2022-07-06_09h29.42.117,Colour_Asymmetry_Pilot,2022.1.3,Win32,59.1891092,62c50e9c1127f2cd403a315f,0,73,73,88,1,onetwo,,,,,,,,,,,,,,,,,,,,,,,,,,,,,,,,,,,,,,,,,,,,,,,,,,,,,,,,,,,,,,,,,,,,,,,,,,,,,,,,,,,,,,,,,,,,,,,,,,,,,,,,,,,,,,,,,,,,,,,,,,,,,,,,,,,,,,,,,,,,,,,,,,,,,,,,,,,,,
,,,,,,60e00818b935a41dcfb1cccd,62c539a7ae27c2a639f10ef1,2022-07-06_09h29.42.117,Colour_Asymmetry_Pilot,2022.1.3,Win32,59.1891092,62c50e9c1127f2cd403a315f,0,74,74,23,1,fourthree,,,,,,,,,,,,,,,,,,,,,,,,,,,,,,,,,,,,,,,,,,,,,,,,,,,,,,,,,,,,,,,,,,,,,,,,,,,,,,,,,,,,,,,,,,,,,,,,,,,,,,,,,,,,,,,,,,,,,,,,,,,,,,,,,,,,,,,,,,,,,,,,,,,,,,,,,,,,,
,,,,,,60e00818b935a41dcfb1cccd,62c539a7ae27c2a639f10ef1,2022-07-06_09h29.42.117,Colour_Asymmetry_Pilot,2022.1.3,Win32,59.1891092,62c50e9c1127f2cd403a315f,0,75,75,50,1,twoone,,,,,,,,,,,,,,,,,,,,,,,,,,,,,,,,,,,,,,,,,,,,,,,,,,,,,,,,,,,,,,,,,,,,,,,,,,,,,,,,,,,,,,,,,,,,,,,,,,,,,,,,,,,,,,,,,,,,,,,,,,,,,,,,,,,,,,,,,,,,,,,,,,,,,,,,,,,,,
,,,,,,60e00818b935a41dcfb1cccd,62c539a7ae27c2a639f10ef1,2022-07-06_09h29.42.117,Colour_Asymmetry_Pilot,2022.1.3,Win32,59.1891092,62c50e9c1127f2cd403a315f,0,76,76,22,1,fourtwo,,,,,,,,,,,,,,,,,,,,,,,,,,,,,,,,,,,,,,,,,,,,,,,,,,,,,,,,,,,,,,,,,,,,,,,,,,,,,,,,,,,,,,,,,,,,,,,,,,,,,,,,,,,,,,,,,,,,,,,,,,,,,,,,,,,,,,,,,,,,,,,,,,,,,,,,,,,,,
,,,,,,60e00818b935a41dcfb1cccd,62c539a7ae27c2a639f10ef1,2022-07-06_09h29.42.117,Colour_Asymmetry_Pilot,2022.1.3,Win32,59.1891092,62c50e9c1127f2cd403a315f,0,77,77,40,1,onetwo,,,,,,,,,,,,,,,,,,,,,,,,,,,,,,,,,,,,,,,,,,,,,,,,,,,,,,,,,,,,,,,,,,,,,,,,,,,,,,,,,,,,,,,,,,,,,,,,,,,,,,,,,,,,,,,,,,,,,,,,,,,,,,,,,,,,,,,,,,,,,,,,,,,,,,,,,,,,,
,,,,,,60e00818b935a41dcfb1cccd,62c539a7ae27c2a639f10ef1,2022-07-06_09h29.42.117,Colour_Asymmetry_Pilot,2022.1.3,Win32,59.1891092,62c50e9c1127f2cd403a315f,0,78,78,121,1,onethree,,,,,,,,,,,,,,,,,,,,,,,,,,,,,,,,,,,,,,,,,,,,,,,,,,,,,,,,,,,,,,,,,,,,,,,,,,,,,,,,,,,,,,,,,,,,,,,,,,,,,,,,,,,,,,,,,,,,,,,,,,,,,,,,,,,,,,,,,,,,,,,,,,,,,,,,,,,,,
,,,,,,60e00818b935a41dcfb1cccd,62c539a7ae27c2a639f10ef1,2022-07-06_09h29.42.117,Colour_Asymmetry_Pilot,2022.1.3,Win32,59.1891092,62c50e9c1127f2cd403a315f,0,79,79,99,1,twofour,,,,,,,,,,,,,,,,,,,,,,,,,,,,,,,,,,,,,,,,,,,,,,,,,,,,,,,,,,,,,,,,,,,,,,,,,,,,,,,,,,,,,,,,,,,,,,,,,,,,,,,,,,,,,,,,,,,,,,,,,,,,,,,,,,,,,,,,,,,,,,,,,,,,,,,,,,,,,
,,,,,,60e00818b935a41dcfb1cccd,62c539a7ae27c2a639f10ef1,2022-07-06_09h29.42.117,Colour_Asymmetry_Pilot,2022.1.3,Win32,59.1891092,62c50e9c1127f2cd403a315f,0,80,80,4,1,threeone,,,,,,,,,,,,,,,,,,,,,,,,,,,,,,,,,,,,,,,,,,,,,,,,,,,,,,,,,,,,,,,,,,,,,,,,,,,,,,,,,,,,,,,,,,,,,,,,,,,,,,,,,,,,,,,,,,,,,,,,,,,,,,,,,,,,,,,,,,,,,,,,,,,,,,,,,,,,,
,,,,,,60e00818b935a41dcfb1cccd,62c539a7ae27c2a639f10ef1,2022-07-06_09h29.42.117,Colour_Asymmetry_Pilot,2022.1.3,Win32,59.1891092,62c50e9c1127f2cd403a315f,0,81,81,151,1,fourthree,,,,,,,,,,,,,,,,,,,,,,,,,,,,,,,,,,,,,,,,,,,,,,,,,,,,,,,,,,,,,,,,,,,,,,,,,,,,,,,,,,,,,,,,,,,,,,,,,,,,,,,,,,,,,,,,,,,,,,,,,,,,,,,,,,,,,,,,,,,,,,,,,,,,,,,,,,,,,
,,,,,,60e00818b935a41dcfb1cccd,62c539a7ae27c2a639f10ef1,2022-07-06_09h29.42.117,Colour_Asymmetry_Pilot,2022.1.3,Win32,59.1891092,62c50e9c1127f2cd403a315f,0,82,82,143,1,fourthree,,,,,,,,,,,,,,,,,,,,,,,,,,,,,,,,,,,,,,,,,,,,,,,,,,,,,,,,,,,,,,,,,,,,,,,,,,,,,,,,,,,,,,,,,,,,,,,,,,,,,,,,,,,,,,,,,,,,,,,,,,,,,,,,,,,,,,,,,,,,,,,,,,,,,,,,,,,,,
,,,,,,60e00818b935a41dcfb1cccd,62c539a7ae27c2a639f10ef1,2022-07-06_09h29.42.117,Colour_Asymmetry_Pilot,2022.1.3,Win32,59.1891092,62c50e9c1127f2cd403a315f,0,83,83,20,1,threeone,,,,,,,,,,,,,,,,,,,,,,,,,,,,,,,,,,,,,,,,,,,,,,,,,,,,,,,,,,,,,,,,,,,,,,,,,,,,,,,,,,,,,,,,,,,,,,,,,,,,,,,,,,,,,,,,,,,,,,,,,,,,,,,,,,,,,,,,,,,,,,,,,,,,,,,,,,,,,
,,,,,,60e00818b935a41dcfb1cccd,62c539a7ae27c2a639f10ef1,2022-07-06_09h29.42.117,Colour_Asymmetry_Pilot,2022.1.3,Win32,59.1891092,62c50e9c1127f2cd403a315f,0,84,84,59,1,twofour,,,,,,,,,,,,,,,,,,,,,,,,,,,,,,,,,,,,,,,,,,,,,,,,,,,,,,,,,,,,,,,,,,,,,,,,,,,,,,,,,,,,,,,,,,,,,,,,,,,,,,,,,,,,,,,,,,,,,,,,,,,,,,,,,,,,,,,,,,,,,,,,,,,,,,,,,,,,,
,,,,,,60e00818b935a41dcfb1cccd,62c539a7ae27c2a639f10ef1,2022-07-06_09h29.42.117,Colour_Asymmetry_Pilot,2022.1.3,Win32,59.1891092,62c50e9c1127f2cd403a315f,0,85,85,24,1,onetwo,,,,,,,,,,,,,,,,,,,,,,,,,,,,,,,,,,,,,,,,,,,,,,,,,,,,,,,,,,,,,,,,,,,,,,,,,,,,,,,,,,,,,,,,,,,,,,,,,,,,,,,,,,,,,,,,,,,,,,,,,,,,,,,,,,,,,,,,,,,,,,,,,,,,,,,,,,,,,
,,,,,,60e00818b935a41dcfb1cccd,62c539a7ae27c2a639f10ef1,2022-07-06_09h29.42.117,Colour_Asymmetry_Pilot,2022.1.3,Win32,59.1891092,62c50e9c1127f2cd403a315f,0,86,86,47,1,fourthree,,,,,,,,,,,,,,,,,,,,,,,,,,,,,,,,,,,,,,,,,,,,,,,,,,,,,,,,,,,,,,,,,,,,,,,,,,,,,,,,,,,,,,,,,,,,,,,,,,,,,,,,,,,,,,,,,,,,,,,,,,,,,,,,,,,,,,,,,,,,,,,,,,,,,,,,,,,,,
,,,,,,60e00818b935a41dcfb1cccd,62c539a7ae27c2a639f10ef1,2022-07-06_09h29.42.117,Colour_Asymmetry_Pilot,2022.1.3,Win32,59.1891092,62c50e9c1127f2cd403a315f,0,87,87,84,1,threeone,,,,,,,,,,,,,,,,,,,,,,,,,,,,,,,,,,,,,,,,,,,,,,,,,,,,,,,,,,,,,,,,,,,,,,,,,,,,,,,,,,,,,,,,,,,,,,,,,,,,,,,,,,,,,,,,,,,,,,,,,,,,,,,,,,,,,,,,,,,,,,,,,,,,,,,,,,,,,
,,,,,,60e00818b935a41dcfb1cccd,62c539a7ae27c2a639f10ef1,2022-07-06_09h29.42.117,Colour_Asymmetry_Pilot,2022.1.3,Win32,59.1891092,62c50e9c1127f2cd403a315f,0,88,88,153,1,onethree,,,,,,,,,,,,,,,,,,,,,,,,,,,,,,,,,,,,,,,,,,,,,,,,,,,,,,,,,,,,,,,,,,,,,,,,,,,,,,,,,,,,,,,,,,,,,,,,,,,,,,,,,,,,,,,,,,,,,,,,,,,,,,,,,,,,,,,,,,,,,,,,,,,,,,,,,,,,,
,,,,,,60e00818b935a41dcfb1cccd,62c539a7ae27c2a639f10ef1,2022-07-06_09h29.42.117,Colour_Asymmetry_Pilot,2022.1.3,Win32,59.1891092,62c50e9c1127f2cd403a315f,0,89,89,82,1,twoone,,,,,,,,,,,,,,,,,,,,,,,,,,,,,,,,,,,,,,,,,,,,,,,,,,,,,,,,,,,,,,,,,,,,,,,,,,,,,,,,,,,,,,,,,,,,,,,,,,,,,,,,,,,,,,,,,,,,,,,,,,,,,,,,,,,,,,,,,,,,,,,,,,,,,,,,,,,,,
,,,,,,60e00818b935a41dcfb1cccd,62c539a7ae27c2a639f10ef1,2022-07-06_09h29.42.117,Colour_Asymmetry_Pilot,2022.1.3,Win32,59.1891092,62c50e9c1127f2cd403a315f,0,90,90,12,1,threeone,,,,,,,,,,,,,,,,,,,,,,,,,,,,,,,,,,,,,,,,,,,,,,,,,,,,,,,,,,,,,,,,,,,,,,,,,,,,,,,,,,,,,,,,,,,,,,,,,,,,,,,,,,,,,,,,,,,,,,,,,,,,,,,,,,,,,,,,,,,,,,,,,,,,,,,,,,,,,
,,,,,,60e00818b935a41dcfb1cccd,62c539a7ae27c2a639f10ef1,2022-07-06_09h29.42.117,Colour_Asymmetry_Pilot,2022.1.3,Win32,59.1891092,62c50e9c1127f2cd403a315f,0,91,91,161,1,onethree,,,,,,,,,,,,,,,,,,,,,,,,,,,,,,,,,,,,,,,,,,,,,,,,,,,,,,,,,,,,,,,,,,,,,,,,,,,,,,,,,,,,,,,,,,,,,,,,,,,,,,,,,,,,,,,,,,,,,,,,,,,,,,,,,,,,,,,,,,,,,,,,,,,,,,,,,,,,,
,,,,,,60e00818b935a41dcfb1cccd,62c539a7ae27c2a639f10ef1,2022-07-06_09h29.42.117,Colour_Asymmetry_Pilot,2022.1.3,Win32,59.1891092,62c50e9c1127f2cd403a315f,0,92,92,28,1,threeone,,,,,,,,,,,,,,,,,,,,,,,,,,,,,,,,,,,,,,,,,,,,,,,,,,,,,,,,,,,,,,,,,,,,,,,,,,,,,,,,,,,,,,,,,,,,,,,,,,,,,,,,,,,,,,,,,,,,,,,,,,,,,,,,,,,,,,,,,,,,,,,,,,,,,,,,,,,,,
,,,,,,60e00818b935a41dcfb1cccd,62c539a7ae27c2a639f10ef1,2022-07-06_09h29.42.117,Colour_Asymmetry_Pilot,2022.1.3,Win32,59.1891092,62c50e9c1127f2cd403a315f,0,93,93,35,1,twofour,,,,,,,,,,,,,,,,,,,,,,,,,,,,,,,,,,,,,,,,,,,,,,,,,,,,,,,,,,,,,,,,,,,,,,,,,,,,,,,,,,,,,,,,,,,,,,,,,,,,,,,,,,,,,,,,,,,,,,,,,,,,,,,,,,,,,,,,,,,,,,,,,,,,,,,,,,,,,
,,,,,,60e00818b935a41dcfb1cccd,62c539a7ae27c2a639f10ef1,2022-07-06_09h29.42.117,Colour_Asymmetry_Pilot,2022.1.3,Win32,59.1891092,62c50e9c1127f2cd403a315f,0,94,94,3,1,twofour,,,,,,,,,,,,,,,,,,,,,,,,,,,,,,,,,,,,,,,,,,,,,,,,,,,,,,,,,,,,,,,,,,,,,,,,,,,,,,,,,,,,,,,,,,,,,,,,,,,,,,,,,,,,,,,,,,,,,,,,,,,,,,,,,,,,,,,,,,,,,,,,,,,,,,,,,,,,,
,,,,,,60e00818b935a41dcfb1cccd,62c539a7ae27c2a639f10ef1,2022-07-06_09h29.42.117,Colour_Asymmetry_Pilot,2022.1.3,Win32,59.1891092,62c50e9c1127f2cd403a315f,0,95,95,77,1,threefour,,,,,,,,,,,,,,,,,,,,,,,,,,,,,,,,,,,,,,,,,,,,,,,,,,,,,,,,,,,,,,,,,,,,,,,,,,,,,,,,,,,,,,,,,,,,,,,,,,,,,,,,,,,,,,,,,,,,,,,,,,,,,,,,,,,,,,,,,,,,,,,,,,,,,,,,,,,,,
,,,,,,60e00818b935a41dcfb1cccd,62c539a7ae27c2a639f10ef1,2022-07-06_09h29.42.117,Colour_Asymmetry_Pilot,2022.1.3,Win32,59.1891092,62c50e9c1127f2cd403a315f,0,96,96,118,1,fourtwo,,,,,,,,,,,,,,,,,,,,,,,,,,,,,,,,,,,,,,,,,,,,,,,,,,,,,,,,,,,,,,,,,,,,,,,,,,,,,,,,,,,,,,,,,,,,,,,,,,,,,,,,,,,,,,,,,,,,,,,,,,,,,,,,,,,,,,,,,,,,,,,,,,,,,,,,,,,,,
,,,,,,60e00818b935a41dcfb1cccd,62c539a7ae27c2a639f10ef1,2022-07-06_09h29.42.117,Colour_Asymmetry_Pilot,2022.1.3,Win32,59.1891092,62c50e9c1127f2cd403a315f,0,97,97,25,1,onethree,,,,,,,,,,,,,,,,,,,,,,,,,,,,,,,,,,,,,,,,,,,,,,,,,,,,,,,,,,,,,,,,,,,,,,,,,,,,,,,,,,,,,,,,,,,,,,,,,,,,,,,,,,,,,,,,,,,,,,,,,,,,,,,,,,,,,,,,,,,,,,,,,,,,,,,,,,,,,
,,,,,,60e00818b935a41dcfb1cccd,62c539a7ae27c2a639f10ef1,2022-07-06_09h29.42.117,Colour_Asymmetry_Pilot,2022.1.3,Win32,59.1891092,62c50e9c1127f2cd403a315f,0,98,98,73,1,onethree,,,,,,,,,,,,,,,,,,,,,,,,,,,,,,,,,,,,,,,,,,,,,,,,,,,,,,,,,,,,,,,,,,,,,,,,,,,,,,,,,,,,,,,,,,,,,,,,,,,,,,,,,,,,,,,,,,,,,,,,,,,,,,,,,,,,,,,,,,,,,,,,,,,,,,,,,,,,,
,,,,,,60e00818b935a41dcfb1cccd,62c539a7ae27c2a639f10ef1,2022-07-06_09h29.42.117,Colour_Asymmetry_Pilot,2022.1.3,Win32,59.1891092,62c50e9c1127f2cd403a315f,0,99,99,46,1,fourtwo,,,,,,,,,,,,,,,,,,,,,,,,,,,,,,,,,,,,,,,,,,,,,,,,,,,,,,,,,,,,,,,,,,,,,,,,,,,,,,,,,,,,,,,,,,,,,,,,,,,,,,,,,,,,,,,,,,,,,,,,,,,,,,,,,,,,,,,,,,,,,,,,,,,,,,,,,,,,,
,,,,,,60e00818b935a41dcfb1cccd,62c539a7ae27c2a639f10ef1,2022-07-06_09h29.42.117,Colour_Asymmetry_Pilot,2022.1.3,Win32,59.1891092,62c50e9c1127f2cd403a315f,0,100,100,39,1,fourthree,,,,,,,,,,,,,,,,,,,,,,,,,,,,,,,,,,,,,,,,,,,,,,,,,,,,,,,,,,,,,,,,,,,,,,,,,,,,,,,,,,,,,,,,,,,,,,,,,,,,,,,,,,,,,,,,,,,,,,,,,,,,,,,,,,,,,,,,,,,,,,,,,,,,,,,,,,,,,
,,,,,,60e00818b935a41dcfb1cccd,62c539a7ae27c2a639f10ef1,2022-07-06_09h29.42.117,Colour_Asymmetry_Pilot,2022.1.3,Win32,59.1891092,62c50e9c1127f2cd403a315f,0,101,101,108,1,threeone,,,,,,,,,,,,,,,,,,,,,,,,,,,,,,,,,,,,,,,,,,,,,,,,,,,,,,,,,,,,,,,,,,,,,,,,,,,,,,,,,,,,,,,,,,,,,,,,,,,,,,,,,,,,,,,,,,,,,,,,,,,,,,,,,,,,,,,,,,,,,,,,,,,,,,,,,,,,,
,,,,,,60e00818b935a41dcfb1cccd,62c539a7ae27c2a639f10ef1,2022-07-06_09h29.42.117,Colour_Asymmetry_Pilot,2022.1.3,Win32,59.1891092,62c50e9c1127f2cd403a315f,0,102,102,8,1,onetwo,,,,,,,,,,,,,,,,,,,,,,,,,,,,,,,,,,,,,,,,,,,,,,,,,,,,,,,,,,,,,,,,,,,,,,,,,,,,,,,,,,,,,,,,,,,,,,,,,,,,,,,,,,,,,,,,,,,,,,,,,,,,,,,,,,,,,,,,,,,,,,,,,,,,,,,,,,,,,
,,,,,,60e00818b935a41dcfb1cccd,62c539a7ae27c2a639f10ef1,2022-07-06_09h29.42.117,Colour_Asymmetry_Pilot,2022.1.3,Win32,59.1891092,62c50e9c1127f2cd403a315f,0,103,103,48,1,onetwo,,,,,,,,,,,,,,,,,,,,,,,,,,,,,,,,,,,,,,,,,,,,,,,,,,,,,,,,,,,,,,,,,,,,,,,,,,,,,,,,,,,,,,,,,,,,,,,,,,,,,,,,,,,,,,,,,,,,,,,,,,,,,,,,,,,,,,,,,,,,,,,,,,,,,,,,,,,,,
,,,,,,60e00818b935a41dcfb1cccd,62c539a7ae27c2a639f10ef1,2022-07-06_09h29.42.117,Colour_Asymmetry_Pilot,2022.1.3,Win32,59.1891092,62c50e9c1127f2cd403a315f,0,104,104,137,1,onethree,,,,,,,,,,,,,,,,,,,,,,,,,,,,,,,,,,,,,,,,,,,,,,,,,,,,,,,,,,,,,,,,,,,,,,,,,,,,,,,,,,,,,,,,,,,,,,,,,,,,,,,,,,,,,,,,,,,,,,,,,,,,,,,,,,,,,,,,,,,,,,,,,,,,,,,,,,,,,
,,,,,,60e00818b935a41dcfb1cccd,62c539a7ae27c2a639f10ef1,2022-07-06_09h29.42.117,Colour_Asymmetry_Pilot,2022.1.3,Win32,59.1891092,62c50e9c1127f2cd403a315f,0,105,105,147,1,twofour,,,,,,,,,,,,,,,,,,,,,,,,,,,,,,,,,,,,,,,,,,,,,,,,,,,,,,,,,,,,,,,,,,,,,,,,,,,,,,,,,,,,,,,,,,,,,,,,,,,,,,,,,,,,,,,,,,,,,,,,,,,,,,,,,,,,,,,,,,,,,,,,,,,,,,,,,,,,,
,,,,,,60e00818b935a41dcfb1cccd,62c539a7ae27c2a639f10ef1,2022-07-06_09h29.42.117,Colour_Asymmetry_Pilot,2022.1.3,Win32,59.1891092,62c50e9c1127f2cd403a315f,0,106,106,149,1,threefour,,,,,,,,,,,,,,,,,,,,,,,,,,,,,,,,,,,,,,,,,,,,,,,,,,,,,,,,,,,,,,,,,,,,,,,,,,,,,,,,,,,,,,,,,,,,,,,,,,,,,,,,,,,,,,,,,,,,,,,,,,,,,,,,,,,,,,,,,,,,,,,,,,,,,,,,,,,,,
,,,,,,60e00818b935a41dcfb1cccd,62c539a7ae27c2a639f10ef1,2022-07-06_09h29.42.117,Colour_Asymmetry_Pilot,2022.1.3,Win32,59.1891092,62c50e9c1127f2cd403a315f,0,107,107,9,1,onethree,,,,,,,,,,,,,,,,,,,,,,,,,,,,,,,,,,,,,,,,,,,,,,,,,,,,,,,,,,,,,,,,,,,,,,,,,,,,,,,,,,,,,,,,,,,,,,,,,,,,,,,,,,,,,,,,,,,,,,,,,,,,,,,,,,,,,,,,,,,,,,,,,,,,,,,,,,,,,
,,,,,,60e00818b935a41dcfb1cccd,62c539a7ae27c2a639f10ef1,2022-07-06_09h29.42.117,Colour_Asymmetry_Pilot,2022.1.3,Win32,59.1891092,62c50e9c1127f2cd403a315f,0,108,108,114,1,twoone,,,,,,,,,,,,,,,,,,,,,,,,,,,,,,,,,,,,,,,,,,,,,,,,,,,,,,,,,,,,,,,,,,,,,,,,,,,,,,,,,,,,,,,,,,,,,,,,,,,,,,,,,,,,,,,,,,,,,,,,,,,,,,,,,,,,,,,,,,,,,,,,,,,,,,,,,,,,,
,,,,,,60e00818b935a41dcfb1cccd,62c539a7ae27c2a639f10ef1,2022-07-06_09h29.42.117,Colour_Asymmetry_Pilot,2022.1.3,Win32,59.1891092,62c50e9c1127f2cd403a315f,0,109,109,127,1,fourthree,,,,,,,,,,,,,,,,,,,,,,,,,,,,,,,,,,,,,,,,,,,,,,,,,,,,,,,,,,,,,,,,,,,,,,,,,,,,,,,,,,,,,,,,,,,,,,,,,,,,,,,,,,,,,,,,,,,,,,,,,,,,,,,,,,,,,,,,,,,,,,,,,,,,,,,,,,,,,
,,,,,,60e00818b935a41dcfb1cccd,62c539a7ae27c2a639f10ef1,2022-07-06_09h29.42.117,Colour_Asymmetry_Pilot,2022.1.3,Win32,59.1891092,62c50e9c1127f2cd403a315f,0,110,110,107,1,twofour,,,,,,,,,,,,,,,,,,,,,,,,,,,,,,,,,,,,,,,,,,,,,,,,,,,,,,,,,,,,,,,,,,,,,,,,,,,,,,,,,,,,,,,,,,,,,,,,,,,,,,,,,,,,,,,,,,,,,,,,,,,,,,,,,,,,,,,,,,,,,,,,,,,,,,,,,,,,,
,,,,,,60e00818b935a41dcfb1cccd,62c539a7ae27c2a639f10ef1,2022-07-06_09h29.42.117,Colour_Asymmetry_Pilot,2022.1.3,Win32,59.1891092,62c50e9c1127f2cd403a315f,0,111,111,109,1,threefour,,,,,,,,,,,,,,,,,,,,,,,,,,,,,,,,,,,,,,,,,,,,,,,,,,,,,,,,,,,,,,,,,,,,,,,,,,,,,,,,,,,,,,,,,,,,,,,,,,,,,,,,,,,,,,,,,,,,,,,,,,,,,,,,,,,,,,,,,,,,,,,,,,,,,,,,,,,,,
,,,,,,60e00818b935a41dcfb1cccd,62c539a7ae27c2a639f10ef1,2022-07-06_09h29.42.117,Colour_Asymmetry_Pilot,2022.1.3,Win32,59.1891092,62c50e9c1127f2cd403a315f,0,112,112,128,1,onetwo,,,,,,,,,,,,,,,,,,,,,,,,,,,,,,,,,,,,,,,,,,,,,,,,,,,,,,,,,,,,,,,,,,,,,,,,,,,,,,,,,,,,,,,,,,,,,,,,,,,,,,,,,,,,,,,,,,,,,,,,,,,,,,,,,,,,,,,,,,,,,,,,,,,,,,,,,,,,,
,,,,,,60e00818b935a41dcfb1cccd,62c539a7ae27c2a639f10ef1,2022-07-06_09h29.42.117,Colour_Asymmetry_Pilot,2022.1.3,Win32,59.1891092,62c50e9c1127f2cd403a315f,0,113,113,89,1,onethree,,,,,,,,,,,,,,,,,,,,,,,,,,,,,,,,,,,,,,,,,,,,,,,,,,,,,,,,,,,,,,,,,,,,,,,,,,,,,,,,,,,,,,,,,,,,,,,,,,,,,,,,,,,,,,,,,,,,,,,,,,,,,,,,,,,,,,,,,,,,,,,,,,,,,,,,,,,,,
,,,,,,60e00818b935a41dcfb1cccd,62c539a7ae27c2a639f10ef1,2022-07-06_09h29.42.117,Colour_Asymmetry_Pilot,2022.1.3,Win32,59.1891092,62c50e9c1127f2cd403a315f,0,114,114,116,1,threeone,,,,,,,,,,,,,,,,,,,,,,,,,,,,,,,,,,,,,,,,,,,,,,,,,,,,,,,,,,,,,,,,,,,,,,,,,,,,,,,,,,,,,,,,,,,,,,,,,,,,,,,,,,,,,,,,,,,,,,,,,,,,,,,,,,,,,,,,,,,,,,,,,,,,,,,,,,,,,
,,,,,,60e00818b935a41dcfb1cccd,62c539a7ae27c2a639f10ef1,2022-07-06_09h29.42.117,Colour_Asymmetry_Pilot,2022.1.3,Win32,59.1891092,62c50e9c1127f2cd403a315f,0,115,115,141,1,threefour,,,,,,,,,,,,,,,,,,,,,,,,,,,,,,,,,,,,,,,,,,,,,,,,,,,,,,,,,,,,,,,,,,,,,,,,,,,,,,,,,,,,,,,,,,,,,,,,,,,,,,,,,,,,,,,,,,,,,,,,,,,,,,,,,,,,,,,,,,,,,,,,,,,,,,,,,,,,,
,,,,,,60e00818b935a41dcfb1cccd,62c539a7ae27c2a639f10ef1,2022-07-06_09h29.42.117,Colour_Asymmetry_Pilot,2022.1.3,Win32,59.1891092,62c50e9c1127f2cd403a315f,0,116,116,96,1,onetwo,,,,,,,,,,,,,,,,,,,,,,,,,,,,,,,,,,,,,,,,,,,,,,,,,,,,,,,,,,,,,,,,,,,,,,,,,,,,,,,,,,,,,,,,,,,,,,,,,,,,,,,,,,,,,,,,,,,,,,,,,,,,,,,,,,,,,,,,,,,,,,,,,,,,,,,,,,,,,
,,,,,,60e00818b935a41dcfb1cccd,62c539a7ae27c2a639f10ef1,2022-07-06_09h29.42.117,Colour_Asymmetry_Pilot,2022.1.3,Win32,59.1891092,62c50e9c1127f2cd403a315f,0,117,117,83,1,twofour,,,,,,,,,,,,,,,,,,,,,,,,,,,,,,,,,,,,,,,,,,,,,,,,,,,,,,,,,,,,,,,,,,,,,,,,,,,,,,,,,,,,,,,,,,,,,,,,,,,,,,,,,,,,,,,,,,,,,,,,,,,,,,,,,,,,,,,,,,,,,,,,,,,,,,,,,,,,,
,,,,,,60e00818b935a41dcfb1cccd,62c539a7ae27c2a639f10ef1,2022-07-06_09h29.42.117,Colour_Asymmetry_Pilot,2022.1.3,Win32,59.1891092,62c50e9c1127f2cd403a315f,0,118,118,57,1,onethree,,,,,,,,,,,,,,,,,,,,,,,,,,,,,,,,,,,,,,,,,,,,,,,,,,,,,,,,,,,,,,,,,,,,,,,,,,,,,,,,,,,,,,,,,,,,,,,,,,,,,,,,,,,,,,,,,,,,,,,,,,,,,,,,,,,,,,,,,,,,,,,,,,,,,,,,,,,,,
,,,,,,60e00818b935a41dcfb1cccd,62c539a7ae27c2a639f10ef1,2022-07-06_09h29.42.117,Colour_Asymmetry_Pilot,2022.1.3,Win32,59.1891092,62c50e9c1127f2cd403a315f,0,119,119,105,1,onethree,,,,,,,,,,,,,,,,,,,,,,,,,,,,,,,,,,,,,,,,,,,,,,,,,,,,,,,,,,,,,,,,,,,,,,,,,,,,,,,,,,,,,,,,,,,,,,,,,,,,,,,,,,,,,,,,,,,,,,,,,,,,,,,,,,,,,,,,,,,,,,,,,,,,,,,,,,,,,
,,,,,,60e00818b935a41dcfb1cccd,62c539a7ae27c2a639f10ef1,2022-07-06_09h29.42.117,Colour_Asymmetry_Pilot,2022.1.3,Win32,59.1891092,62c50e9c1127f2cd403a315f,0,120,120,159,1,fourthree,,,,,,,,,,,,,,,,,,,,,,,,,,,,,,,,,,,,,,,,,,,,,,,,,,,,,,,,,,,,,,,,,,,,,,,,,,,,,,,,,,,,,,,,,,,,,,,,,,,,,,,,,,,,,,,,,,,,,,,,,,,,,,,,,,,,,,,,,,,,,,,,,,,,,,,,,,,,,
,,,,,,60e00818b935a41dcfb1cccd,62c539a7ae27c2a639f10ef1,2022-07-06_09h29.42.117,Colour_Asymmetry_Pilot,2022.1.3,Win32,59.1891092,62c50e9c1127f2cd403a315f,0,121,121,71,1,fourthree,,,,,,,,,,,,,,,,,,,,,,,,,,,,,,,,,,,,,,,,,,,,,,,,,,,,,,,,,,,,,,,,,,,,,,,,,,,,,,,,,,,,,,,,,,,,,,,,,,,,,,,,,,,,,,,,,,,,,,,,,,,,,,,,,,,,,,,,,,,,,,,,,,,,,,,,,,,,,
,,,,,,60e00818b935a41dcfb1cccd,62c539a7ae27c2a639f10ef1,2022-07-06_09h29.42.117,Colour_Asymmetry_Pilot,2022.1.3,Win32,59.1891092,62c50e9c1127f2cd403a315f,0,122,122,86,1,fourtwo,,,,,,,,,,,,,,,,,,,,,,,,,,,,,,,,,,,,,,,,,,,,,,,,,,,,,,,,,,,,,,,,,,,,,,,,,,,,,,,,,,,,,,,,,,,,,,,,,,,,,,,,,,,,,,,,,,,,,,,,,,,,,,,,,,,,,,,,,,,,,,,,,,,,,,,,,,,,,
,,,,,,60e00818b935a41dcfb1cccd,62c539a7ae27c2a639f10ef1,2022-07-06_09h29.42.117,Colour_Asymmetry_Pilot,2022.1.3,Win32,59.1891092,62c50e9c1127f2cd403a315f,0,123,123,70,1,fourtwo,,,,,,,,,,,,,,,,,,,,,,,,,,,,,,,,,,,,,,,,,,,,,,,,,,,,,,,,,,,,,,,,,,,,,,,,,,,,,,,,,,,,,,,,,,,,,,,,,,,,,,,,,,,,,,,,,,,,,,,,,,,,,,,,,,,,,,,,,,,,,,,,,,,,,,,,,,,,,
,,,,,,60e00818b935a41dcfb1cccd,62c539a7ae27c2a639f10ef1,2022-07-06_09h29.42.117,Colour_Asymmetry_Pilot,2022.1.3,Win32,59.1891092,62c50e9c1127f2cd403a315f,0,124,124,81,1,onethree,,,,,,,,,,,,,,,,,,,,,,,,,,,,,,,,,,,,,,,,,,,,,,,,,,,,,,,,,,,,,,,,,,,,,,,,,,,,,,,,,,,,,,,,,,,,,,,,,,,,,,,,,,,,,,,,,,,,,,,,,,,,,,,,,,,,,,,,,,,,,,,,,,,,,,,,,,,,,
,,,,,,60e00818b935a41dcfb1cccd,62c539a7ae27c2a639f10ef1,2022-07-06_09h29.42.117,Colour_Asymmetry_Pilot,2022.1.3,Win32,59.1891092,62c50e9c1127f2cd403a315f,0,125,125,117,1,threefour,,,,,,,,,,,,,,,,,,,,,,,,,,,,,,,,,,,,,,,,,,,,,,,,,,,,,,,,,,,,,,,,,,,,,,,,,,,,,,,,,,,,,,,,,,,,,,,,,,,,,,,,,,,,,,,,,,,,,,,,,,,,,,,,,,,,,,,,,,,,,,,,,,,,,,,,,,,,,
,,,,,,60e00818b935a41dcfb1cccd,62c539a7ae27c2a639f10ef1,2022-07-06_09h29.42.117,Colour_Asymmetry_Pilot,2022.1.3,Win32,59.1891092,62c50e9c1127f2cd403a315f,0,126,126,136,1,onetwo,,,,,,,,,,,,,,,,,,,,,,,,,,,,,,,,,,,,,,,,,,,,,,,,,,,,,,,,,,,,,,,,,,,,,,,,,,,,,,,,,,,,,,,,,,,,,,,,,,,,,,,,,,,,,,,,,,,,,,,,,,,,,,,,,,,,,,,,,,,,,,,,,,,,,,,,,,,,,
,,,,,,60e00818b935a41dcfb1cccd,62c539a7ae27c2a639f10ef1,2022-07-06_09h29.42.117,Colour_Asymmetry_Pilot,2022.1.3,Win32,59.1891092,62c50e9c1127f2cd403a315f,0,127,127,42,1,twoone,,,,,,,,,,,,,,,,,,,,,,,,,,,,,,,,,,,,,,,,,,,,,,,,,,,,,,,,,,,,,,,,,,,,,,,,,,,,,,,,,,,,,,,,,,,,,,,,,,,,,,,,,,,,,,,,,,,,,,,,,,,,,,,,,,,,,,,,,,,,,,,,,,,,,,,,,,,,,
,,,,,,60e00818b935a41dcfb1cccd,62c539a7ae27c2a639f10ef1,2022-07-06_09h29.42.117,Colour_Asymmetry_Pilot,2022.1.3,Win32,59.1891092,62c50e9c1127f2cd403a315f,0,128,128,78,1,fourtwo,,,,,,,,,,,,,,,,,,,,,,,,,,,,,,,,,,,,,,,,,,,,,,,,,,,,,,,,,,,,,,,,,,,,,,,,,,,,,,,,,,,,,,,,,,,,,,,,,,,,,,,,,,,,,,,,,,,,,,,,,,,,,,,,,,,,,,,,,,,,,,,,,,,,,,,,,,,,,
,,,,,,60e00818b935a41dcfb1cccd,62c539a7ae27c2a639f10ef1,2022-07-06_09h29.42.117,Colour_Asymmetry_Pilot,2022.1.3,Win32,59.1891092,62c50e9c1127f2cd403a315f,0,129,129,72,1,onetwo,,,,,,,,,,,,,,,,,,,,,,,,,,,,,,,,,,,,,,,,,,,,,,,,,,,,,,,,,,,,,,,,,,,,,,,,,,,,,,,,,,,,,,,,,,,,,,,,,,,,,,,,,,,,,,,,,,,,,,,,,,,,,,,,,,,,,,,,,,,,,,,,,,,,,,,,,,,,,
,,,,,,60e00818b935a41dcfb1cccd,62c539a7ae27c2a639f10ef1,2022-07-06_09h29.42.117,Colour_Asymmetry_Pilot,2022.1.3,Win32,59.1891092,62c50e9c1127f2cd403a315f,0,130,130,160,1,onetwo,,,,,,,,,,,,,,,,,,,,,,,,,,,,,,,,,,,,,,,,,,,,,,,,,,,,,,,,,,,,,,,,,,,,,,,,,,,,,,,,,,,,,,,,,,,,,,,,,,,,,,,,,,,,,,,,,,,,,,,,,,,,,,,,,,,,,,,,,,,,,,,,,,,,,,,,,,,,,
,,,,,,60e00818b935a41dcfb1cccd,62c539a7ae27c2a639f10ef1,2022-07-06_09h29.42.117,Colour_Asymmetry_Pilot,2022.1.3,Win32,59.1891092,62c50e9c1127f2cd403a315f,0,131,131,10,1,twoone,,,,,,,,,,,,,,,,,,,,,,,,,,,,,,,,,,,,,,,,,,,,,,,,,,,,,,,,,,,,,,,,,,,,,,,,,,,,,,,,,,,,,,,,,,,,,,,,,,,,,,,,,,,,,,,,,,,,,,,,,,,,,,,,,,,,,,,,,,,,,,,,,,,,,,,,,,,,,
,,,,,,60e00818b935a41dcfb1cccd,62c539a7ae27c2a639f10ef1,2022-07-06_09h29.42.117,Colour_Asymmetry_Pilot,2022.1.3,Win32,59.1891092,62c50e9c1127f2cd403a315f,0,132,132,15,1,fourthree,,,,,,,,,,,,,,,,,,,,,,,,,,,,,,,,,,,,,,,,,,,,,,,,,,,,,,,,,,,,,,,,,,,,,,,,,,,,,,,,,,,,,,,,,,,,,,,,,,,,,,,,,,,,,,,,,,,,,,,,,,,,,,,,,,,,,,,,,,,,,,,,,,,,,,,,,,,,,
,,,,,,60e00818b935a41dcfb1cccd,62c539a7ae27c2a639f10ef1,2022-07-06_09h29.42.117,Colour_Asymmetry_Pilot,2022.1.3,Win32,59.1891092,62c50e9c1127f2cd403a315f,0,133,133,32,1,onetwo,,,,,,,,,,,,,,,,,,,,,,,,,,,,,,,,,,,,,,,,,,,,,,,,,,,,,,,,,,,,,,,,,,,,,,,,,,,,,,,,,,,,,,,,,,,,,,,,,,,,,,,,,,,,,,,,,,,,,,,,,,,,,,,,,,,,,,,,,,,,,,,,,,,,,,,,,,,,,
,,,,,,60e00818b935a41dcfb1cccd,62c539a7ae27c2a639f10ef1,2022-07-06_09h29.42.117,Colour_Asymmetry_Pilot,2022.1.3,Win32,59.1891092,62c50e9c1127f2cd403a315f,0,134,134,68,1,threeone,,,,,,,,,,,,,,,,,,,,,,,,,,,,,,,,,,,,,,,,,,,,,,,,,,,,,,,,,,,,,,,,,,,,,,,,,,,,,,,,,,,,,,,,,,,,,,,,,,,,,,,,,,,,,,,,,,,,,,,,,,,,,,,,,,,,,,,,,,,,,,,,,,,,,,,,,,,,,
,,,,,,60e00818b935a41dcfb1cccd,62c539a7ae27c2a639f10ef1,2022-07-06_09h29.42.117,Colour_Asymmetry_Pilot,2022.1.3,Win32,59.1891092,62c50e9c1127f2cd403a315f,0,135,135,30,1,fourtwo,,,,,,,,,,,,,,,,,,,,,,,,,,,,,,,,,,,,,,,,,,,,,,,,,,,,,,,,,,,,,,,,,,,,,,,,,,,,,,,,,,,,,,,,,,,,,,,,,,,,,,,,,,,,,,,,,,,,,,,,,,,,,,,,,,,,,,,,,,,,,,,,,,,,,,,,,,,,,
,,,,,,60e00818b935a41dcfb1cccd,62c539a7ae27c2a639f10ef1,2022-07-06_09h29.42.117,Colour_Asymmetry_Pilot,2022.1.3,Win32,59.1891092,62c50e9c1127f2cd403a315f,0,136,136,131,1,twofour,,,,,,,,,,,,,,,,,,,,,,,,,,,,,,,,,,,,,,,,,,,,,,,,,,,,,,,,,,,,,,,,,,,,,,,,,,,,,,,,,,,,,,,,,,,,,,,,,,,,,,,,,,,,,,,,,,,,,,,,,,,,,,,,,,,,,,,,,,,,,,,,,,,,,,,,,,,,,
,,,,,,60e00818b935a41dcfb1cccd,62c539a7ae27c2a639f10ef1,2022-07-06_09h29.42.117,Colour_Asymmetry_Pilot,2022.1.3,Win32,59.1891092,62c50e9c1127f2cd403a315f,0,137,137,19,1,twofour,,,,,,,,,,,,,,,,,,,,,,,,,,,,,,,,,,,,,,,,,,,,,,,,,,,,,,,,,,,,,,,,,,,,,,,,,,,,,,,,,,,,,,,,,,,,,,,,,,,,,,,,,,,,,,,,,,,,,,,,,,,,,,,,,,,,,,,,,,,,,,,,,,,,,,,,,,,,,
,,,,,,60e00818b935a41dcfb1cccd,62c539a7ae27c2a639f10ef1,2022-07-06_09h29.42.117,Colour_Asymmetry_Pilot,2022.1.3,Win32,59.1891092,62c50e9c1127f2cd403a315f,0,138,138,14,1,fourtwo,,,,,,,,,,,,,,,,,,,,,,,,,,,,,,,,,,,,,,,,,,,,,,,,,,,,,,,,,,,,,,,,,,,,,,,,,,,,,,,,,,,,,,,,,,,,,,,,,,,,,,,,,,,,,,,,,,,,,,,,,,,,,,,,,,,,,,,,,,,,,,,,,,,,,,,,,,,,,
,,,,,,60e00818b935a41dcfb1cccd,62c539a7ae27c2a639f10ef1,2022-07-06_09h29.42.117,Colour_Asymmetry_Pilot,2022.1.3,Win32,59.1891092,62c50e9c1127f2cd403a315f,0,139,139,113,1,onethree,,,,,,,,,,,,,,,,,,,,,,,,,,,,,,,,,,,,,,,,,,,,,,,,,,,,,,,,,,,,,,,,,,,,,,,,,,,,,,,,,,,,,,,,,,,,,,,,,,,,,,,,,,,,,,,,,,,,,,,,,,,,,,,,,,,,,,,,,,,,,,,,,,,,,,,,,,,,,
,,,,,,60e00818b935a41dcfb1cccd,62c539a7ae27c2a639f10ef1,2022-07-06_09h29.42.117,Colour_Asymmetry_Pilot,2022.1.3,Win32,59.1891092,62c50e9c1127f2cd403a315f,0,140,140,134,1,fourtwo,,,,,,,,,,,,,,,,,,,,,,,,,,,,,,,,,,,,,,,,,,,,,,,,,,,,,,,,,,,,,,,,,,,,,,,,,,,,,,,,,,,,,,,,,,,,,,,,,,,,,,,,,,,,,,,,,,,,,,,,,,,,,,,,,,,,,,,,,,,,,,,,,,,,,,,,,,,,,
,,,,,,60e00818b935a41dcfb1cccd,62c539a7ae27c2a639f10ef1,2022-07-06_09h29.42.117,Colour_Asymmetry_Pilot,2022.1.3,Win32,59.1891092,62c50e9c1127f2cd403a315f,0,141,141,145,1,onethree,,,,,,,,,,,,,,,,,,,,,,,,,,,,,,,,,,,,,,,,,,,,,,,,,,,,,,,,,,,,,,,,,,,,,,,,,,,,,,,,,,,,,,,,,,,,,,,,,,,,,,,,,,,,,,,,,,,,,,,,,,,,,,,,,,,,,,,,,,,,,,,,,,,,,,,,,,,,,
,,,,,,60e00818b935a41dcfb1cccd,62c539a7ae27c2a639f10ef1,2022-07-06_09h29.42.117,Colour_Asymmetry_Pilot,2022.1.3,Win32,59.1891092,62c50e9c1127f2cd403a315f,0,142,142,34,1,twoone,,,,,,,,,,,,,,,,,,,,,,,,,,,,,,,,,,,,,,,,,,,,,,,,,,,,,,,,,,,,,,,,,,,,,,,,,,,,,,,,,,,,,,,,,,,,,,,,,,,,,,,,,,,,,,,,,,,,,,,,,,,,,,,,,,,,,,,,,,,,,,,,,,,,,,,,,,,,,
,,,,,,60e00818b935a41dcfb1cccd,62c539a7ae27c2a639f10ef1,2022-07-06_09h29.42.117,Colour_Asymmetry_Pilot,2022.1.3,Win32,59.1891092,62c50e9c1127f2cd403a315f,0,143,143,16,1,onetwo,,,,,,,,,,,,,,,,,,,,,,,,,,,,,,,,,,,,,,,,,,,,,,,,,,,,,,,,,,,,,,,,,,,,,,,,,,,,,,,,,,,,,,,,,,,,,,,,,,,,,,,,,,,,,,,,,,,,,,,,,,,,,,,,,,,,,,,,,,,,,,,,,,,,,,,,,,,,,
,,,,,,60e00818b935a41dcfb1cccd,62c539a7ae27c2a639f10ef1,2022-07-06_09h29.42.117,Colour_Asymmetry_Pilot,2022.1.3,Win32,59.1891092,62c50e9c1127f2cd403a315f,0,144,144,112,1,onetwo,,,,,,,,,,,,,,,,,,,,,,,,,,,,,,,,,,,,,,,,,,,,,,,,,,,,,,,,,,,,,,,,,,,,,,,,,,,,,,,,,,,,,,,,,,,,,,,,,,,,,,,,,,,,,,,,,,,,,,,,,,,,,,,,,,,,,,,,,,,,,,,,,,,,,,,,,,,,,
,,,,,,60e00818b935a41dcfb1cccd,62c539a7ae27c2a639f10ef1,2022-07-06_09h29.42.117,Colour_Asymmetry_Pilot,2022.1.3,Win32,59.1891092,62c50e9c1127f2cd403a315f,0,145,145,55,1,fourthree,,,,,,,,,,,,,,,,,,,,,,,,,,,,,,,,,,,,,,,,,,,,,,,,,,,,,,,,,,,,,,,,,,,,,,,,,,,,,,,,,,,,,,,,,,,,,,,,,,,,,,,,,,,,,,,,,,,,,,,,,,,,,,,,,,,,,,,,,,,,,,,,,,,,,,,,,,,,,
,,,,,,60e00818b935a41dcfb1cccd,62c539a7ae27c2a639f10ef1,2022-07-06_09h29.42.117,Colour_Asymmetry_Pilot,2022.1.3,Win32,59.1891092,62c50e9c1127f2cd403a315f,0,146,146,115,1,twofour,,,,,,,,,,,,,,,,,,,,,,,,,,,,,,,,,,,,,,,,,,,,,,,,,,,,,,,,,,,,,,,,,,,,,,,,,,,,,,,,,,,,,,,,,,,,,,,,,,,,,,,,,,,,,,,,,,,,,,,,,,,,,,,,,,,,,,,,,,,,,,,,,,,,,,,,,,,,,
,,,,,,60e00818b935a41dcfb1cccd,62c539a7ae27c2a639f10ef1,2022-07-06_09h29.42.117,Colour_Asymmetry_Pilot,2022.1.3,Win32,59.1891092,62c50e9c1127f2cd403a315f,0,147,147,29,1,threefour,,,,,,,,,,,,,,,,,,,,,,,,,,,,,,,,,,,,,,,,,,,,,,,,,,,,,,,,,,,,,,,,,,,,,,,,,,,,,,,,,,,,,,,,,,,,,,,,,,,,,,,,,,,,,,,,,,,,,,,,,,,,,,,,,,,,,,,,,,,,,,,,,,,,,,,,,,,,,
,,,,,,60e00818b935a41dcfb1cccd,62c539a7ae27c2a639f10ef1,2022-07-06_09h29.42.117,Colour_Asymmetry_Pilot,2022.1.3,Win32,59.1891092,62c50e9c1127f2cd403a315f,0,148,148,104,1,onetwo,,,,,,,,,,,,,,,,,,,,,,,,,,,,,,,,,,,,,,,,,,,,,,,,,,,,,,,,,,,,,,,,,,,,,,,,,,,,,,,,,,,,,,,,,,,,,,,,,,,,,,,,,,,,,,,,,,,,,,,,,,,,,,,,,,,,,,,,,,,,,,,,,,,,,,,,,,,,,
,,,,,,60e00818b935a41dcfb1cccd,62c539a7ae27c2a639f10ef1,2022-07-06_09h29.42.117,Colour_Asymmetry_Pilot,2022.1.3,Win32,59.1891092,62c50e9c1127f2cd403a315f,0,149,149,62,1,fourtwo,,,,,,,,,,,,,,,,,,,,,,,,,,,,,,,,,,,,,,,,,,,,,,,,,,,,,,,,,,,,,,,,,,,,,,,,,,,,,,,,,,,,,,,,,,,,,,,,,,,,,,,,,,,,,,,,,,,,,,,,,,,,,,,,,,,,,,,,,,,,,,,,,,,,,,,,,,,,,
,,,,,,60e00818b935a41dcfb1cccd,62c539a7ae27c2a639f10ef1,2022-07-06_09h29.42.117,Colour_Asymmetry_Pilot,2022.1.3,Win32,59.1891092,62c50e9c1127f2cd403a315f,0,150,150,140,1,threeone,,,,,,,,,,,,,,,,,,,,,,,,,,,,,,,,,,,,,,,,,,,,,,,,,,,,,,,,,,,,,,,,,,,,,,,,,,,,,,,,,,,,,,,,,,,,,,,,,,,,,,,,,,,,,,,,,,,,,,,,,,,,,,,,,,,,,,,,,,,,,,,,,,,,,,,,,,,,,
,,,,,,60e00818b935a41dcfb1cccd,62c539a7ae27c2a639f10ef1,2022-07-06_09h29.42.117,Colour_Asymmetry_Pilot,2022.1.3,Win32,59.1891092,62c50e9c1127f2cd403a315f,0,151,151,76,1,threeone,,,,,,,,,,,,,,,,,,,,,,,,,,,,,,,,,,,,,,,,,,,,,,,,,,,,,,,,,,,,,,,,,,,,,,,,,,,,,,,,,,,,,,,,,,,,,,,,,,,,,,,,,,,,,,,,,,,,,,,,,,,,,,,,,,,,,,,,,,,,,,,,,,,,,,,,,,,,,
,,,,,,60e00818b935a41dcfb1cccd,62c539a7ae27c2a639f10ef1,2022-07-06_09h29.42.117,Colour_Asymmetry_Pilot,2022.1.3,Win32,59.1891092,62c50e9c1127f2cd403a315f,0,152,152,44,1,threeone,,,,,,,,,,,,,,,,,,,,,,,,,,,,,,,,,,,,,,,,,,,,,,,,,,,,,,,,,,,,,,,,,,,,,,,,,,,,,,,,,,,,,,,,,,,,,,,,,,,,,,,,,,,,,,,,,,,,,,,,,,,,,,,,,,,,,,,,,,,,,,,,,,,,,,,,,,,,,
,,,,,,60e00818b935a41dcfb1cccd,62c539a7ae27c2a639f10ef1,2022-07-06_09h29.42.117,Colour_Asymmetry_Pilot,2022.1.3,Win32,59.1891092,62c50e9c1127f2cd403a315f,0,153,153,125,1,threefour,,,,,,,,,,,,,,,,,,,,,,,,,,,,,,,,,,,,,,,,,,,,,,,,,,,,,,,,,,,,,,,,,,,,,,,,,,,,,,,,,,,,,,,,,,,,,,,,,,,,,,,,,,,,,,,,,,,,,,,,,,,,,,,,,,,,,,,,,,,,,,,,,,,,,,,,,,,,,
,,,,,,60e00818b935a41dcfb1cccd,62c539a7ae27c2a639f10ef1,2022-07-06_09h29.42.117,Colour_Asymmetry_Pilot,2022.1.3,Win32,59.1891092,62c50e9c1127f2cd403a315f,0,154,154,1,1,onethree,,,,,,,,,,,,,,,,,,,,,,,,,,,,,,,,,,,,,,,,,,,,,,,,,,,,,,,,,,,,,,,,,,,,,,,,,,,,,,,,,,,,,,,,,,,,,,,,,,,,,,,,,,,,,,,,,,,,,,,,,,,,,,,,,,,,,,,,,,,,,,,,,,,,,,,,,,,,,
,,,,,,60e00818b935a41dcfb1cccd,62c539a7ae27c2a639f10ef1,2022-07-06_09h29.42.117,Colour_Asymmetry_Pilot,2022.1.3,Win32,59.1891092,62c50e9c1127f2cd403a315f,0,155,155,124,1,threeone,,,,,,,,,,,,,,,,,,,,,,,,,,,,,,,,,,,,,,,,,,,,,,,,,,,,,,,,,,,,,,,,,,,,,,,,,,,,,,,,,,,,,,,,,,,,,,,,,,,,,,,,,,,,,,,,,,,,,,,,,,,,,,,,,,,,,,,,,,,,,,,,,,,,,,,,,,,,,
,,,,,,60e00818b935a41dcfb1cccd,62c539a7ae27c2a639f10ef1,2022-07-06_09h29.42.117,Colour_Asymmetry_Pilot,2022.1.3,Win32,59.1891092,62c50e9c1127f2cd403a315f,0,156,156,132,1,threeone,,,,,,,,,,,,,,,,,,,,,,,,,,,,,,,,,,,,,,,,,,,,,,,,,,,,,,,,,,,,,,,,,,,,,,,,,,,,,,,,,,,,,,,,,,,,,,,,,,,,,,,,,,,,,,,,,,,,,,,,,,,,,,,,,,,,,,,,,,,,,,,,,,,,,,,,,,,,,
,,,,,,60e00818b935a41dcfb1cccd,62c539a7ae27c2a639f10ef1,2022-07-06_09h29.42.117,Colour_Asymmetry_Pilot,2022.1.3,Win32,59.1891092,62c50e9c1127f2cd403a315f,0,157,157,103,1,fourthree,,,,,,,,,,,,,,,,,,,,,,,,,,,,,,,,,,,,,,,,,,,,,,,,,,,,,,,,,,,,,,,,,,,,,,,,,,,,,,,,,,,,,,,,,,,,,,,,,,,,,,,,,,,,,,,,,,,,,,,,,,,,,,,,,,,,,,,,,,,,,,,,,,,,,,,,,,,,,
,,,,,,60e00818b935a41dcfb1cccd,62c539a7ae27c2a639f10ef1,2022-07-06_09h29.42.117,Colour_Asymmetry_Pilot,2022.1.3,Win32,59.1891092,62c50e9c1127f2cd403a315f,0,158,158,49,1,onethree,,,,,,,,,,,,,,,,,,,,,,,,,,,,,,,,,,,,,,,,,,,,,,,,,,,,,,,,,,,,,,,,,,,,,,,,,,,,,,,,,,,,,,,,,,,,,,,,,,,,,,,,,,,,,,,,,,,,,,,,,,,,,,,,,,,,,,,,,,,,,,,,,,,,,,,,,,,,,
,,,,,,60e00818b935a41dcfb1cccd,62c539a7ae27c2a639f10ef1,2022-07-06_09h29.42.117,Colour_Asymmetry_Pilot,2022.1.3,Win32,59.1891092,62c50e9c1127f2cd403a315f,0,159,159,54,1,fourtwo,,,,,,,,,,,,,,,,,,,,,,,,,,,,,,,,,,,,,,,,,,,,,,,,,,,,,,,,,,,,,,,,,,,,,,,,,,,,,,,,,,,,,,,,,,,,,,,,,,,,,,,,,,,,,,,,,,,,,,,,,,,,,,,,,,,,,,,,,,,,,,,,,,,,,,,,,,,,,
,,,,,,60e00818b935a41dcfb1cccd,62c539a7ae27c2a639f10ef1,2022-07-06_09h29.42.117,Colour_Asymmetry_Pilot,2022.1.3,Win32,59.1891092,62c50e9c1127f2cd403a315f,0,160,160,155,1,twofour,,,,,,,,,,,,,,,,,,,,,,,,,,,,,,,,,,,,,,,,,,,,,,,,,,,,,,,,,,,,,,,,,,,,,,,,,,,,,,,,,,,,,,,,,,,,,,,,,,,,,,,,,,,,,,,,,,,,,,,,,,,,,,,,,,,,,,,,,,,,,,,,,,,,,,,,,,,,,
,,,,,,60e00818b935a41dcfb1cccd,62c539a7ae27c2a639f10ef1,2022-07-06_09h29.42.117,Colour_Asymmetry_Pilot,2022.1.3,Win32,59.1891092,62c50e9c1127f2cd403a315f,0,161,161,142,1,fourtwo,,,,,,,,,,,,,,,,,,,,,,,,,,,,,,,,,,,,,,,,,,,,,,,,,,,,,,,,,,,,,,,,,,,,,,,,,,,,,,,,,,,,,,,,,,,,,,,,,,,,,,,,,,,,,,,,,,,,,,,,,,,,,,,,,,,,,,,,,,,,,,,,,,,,,,,,,,,,,
,,,,,,60e00818b935a41dcfb1cccd,62c539a7ae27c2a639f10ef1,2022-07-06_09h29.42.117,Colour_Asymmetry_Pilot,2022.1.3,Win32,59.1891092,62c50e9c1127f2cd403a315f,,,,,,,space,895.6318,space,11.0361,space,32.9846,space,34.0718,space,5.2021,space,6.5309,"[0.11359999999999992,0.6312,0.5213999999999999]",fourtwo,"[0.9372,0.9450000000000001,0.8980000000000001]",3,18.8224,82.33337402,30.88092041,1,0,0,response1disk_5,-3.38092041,2.309509277,1,0,0,rectangle_8,-60.52374268,72.78565979,1,0,0,response7disk_7,0,1,-10.04760742,-0.547698975,1,0,0,rectangle_4,0,0,0,0,1,,,,,,,,,,,,,,,,,,,,,,,,,,,,,,,,,,,,,,,,,,,,,,,,,,,,,,,,,,,,,,,,,,,,,,,,,,,,,,,,,,,,,,,,,,,,,,,,,,,,,,,,,,,,,
,,,,,,60e00818b935a41dcfb1cccd,62c539a7ae27c2a639f10ef1,2022-07-06_09h29.42.117,Colour_Asymmetry_Pilot,2022.1.3,Win32,59.1891092,62c50e9c1127f2cd403a315f,,,,,,,,,,,,,,,,,,,"[0.05879999999999996,0.2784,0.5841999999999998]",threefour,"[-0.4982,-0.2942,-0.0354000000000001]",-1,13.1219,-60.52374268,-65.30953979,1,0,0,response5disk_5,-7.190429688,-4.357177734,1,0,0,rectangle_8,-7.190429688,-4.357177734,1,0,0,,,1,-7.190429688,-4.357177734,1,0,0,,1,0,1,0,1,,,,,,,,,,,,,,,,,,,,,,,,,,,,,,,,,,,,,,,,,,,,,,,,,,,,,,,,,,,,,,,,,,,,,,,,,,,,,,,,,,,,,,,,,,,,,,,,,,,,,,,,,,,,,
,,,,,,60e00818b935a41dcfb1cccd,62c539a7ae27c2a639f10ef1,2022-07-06_09h29.42.117,Colour_Asymmetry_Pilot,2022.1.3,Win32,59.1891092,62c50e9c1127f2cd403a315f,,,,,,,,,,,,,,,,,,,"[0.3568,-0.20799999999999996,-0.9844]",twofour,"[0.7176,-0.906,-0.6864]",2,1.8687,73.76196289,-72.92858887,1,0,0,response3disk_5,-10.04760742,-0.547698975,1,0,0,rectangle_8,-10.04760742,-0.547698975,1,0,0,,,1,-10.04760742,-0.547698975,1,0,0,,2,0,2,0,1,,,,,,,,,,,,,,,,,,,,,,,,,,,,,,,,,,,,,,,,,,,,,,,,,,,,,,,,,,,,,,,,,,,,,,,,,,,,,,,,,,,,,,,,,,,,,,,,,,,,,,,,,,,,,
,,,,,,60e00818b935a41dcfb1cccd,62c539a7ae27c2a639f10ef1,2022-07-06_09h29.42.117,Colour_Asymmetry_Pilot,2022.1.3,Win32,59.1891092,62c50e9c1127f2cd403a315f,,,,,,,,,,,,,,,,,,,"[-0.9766,-0.6472,0.07440000000000002]",twofour,"[-0.45899999999999996,-0.3256,-0.9374]",-4,3.0799,-45.28564453,58.49998474,1,0,0,response7disk_5,-11.95233154,-2.452392578,1,0,0,rectangle_8,-11.95233154,-2.452392578,1,0,0,,,1,-11.95233154,-2.452392578,1,0,0,,3,0,3,0,1,,,,,,,,,,,,,,,,,,,,,,,,,,,,,,,,,,,,,,,,,,,,,,,,,,,,,,,,,,,,,,,,,,,,,,,,,,,,,,,,,,,,,,,,,,,,,,,,,,,,,,,,,,,,,
,,,,,,60e00818b935a41dcfb1cccd,62c539a7ae27c2a639f10ef1,2022-07-06_09h29.42.117,Colour_Asymmetry_Pilot,2022.1.3,Win32,59.1891092,62c50e9c1127f2cd403a315f,,,,,,,,,,,,,,,,,,,"[-0.34920000000000007,-0.702,-0.5216]",threefour,"[-0.050999999999999934,-0.6706000000000001,-0.804]",-1,2.0777,-76.7142334,-108.166687,1,0,0,response5disk_5,1.380981445,-0.547698975,1,0,0,rectangle_8,1.380981445,-0.547698975,1,0,0,,,1,1.380981445,-0.547698975,1,0,0,,4,0,4,0,1,,,,,,,,,,,,,,,,,,,,,,,,,,,,,,,,,,,,,,,,,,,,,,,,,,,,,,,,,,,,,,,,,,,,,,,,,,,,,,,,,,,,,,,,,,,,,,,,,,,,,,,,,,,,,
,,,,,,60e00818b935a41dcfb1cccd,62c539a7ae27c2a639f10ef1,2022-07-06_09h29.42.117,Colour_Asymmetry_Pilot,2022.1.3,Win32,59.1891092,62c50e9c1127f2cd403a315f,,,,,,,,,,,,,,,,,,,"[-0.45899999999999996,-0.3256,-0.9374]",onethree,"[-0.6942,-0.7648,-0.12959999999999994]",-2,3.3205,-101.4760132,-61.50003052,1,0,0,response5disk_5,-3.38092041,-6.261932373,1,0,0,rectangle_8,42.33337402,-82.4524231,1,0,0,response3disk_7,4,1,-2.428527832,2.309509277,1,0,0,rectangle_4,5,0,5,0,1,,,,,,,,,,,,,,,,,,,,,,,,,,,,,,,,,,,,,,,,,,,,,,,,,,,,,,,,,,,,,,,,,,,,,,,,,,,,,,,,,,,,,,,,,,,,,,,,,,,,,,,,,,,,,
,,,,,,60e00818b935a41dcfb1cccd,62c539a7ae27c2a639f10ef1,2022-07-06_09h29.42.117,Colour_Asymmetry_Pilot,2022.1.3,Win32,59.1891092,62c50e9c1127f2cd403a315f,,,,,,,,,,,,,,,,,,,"[-0.6942,-0.7648,-0.12959999999999994]",onethree,"[-0.26280000000000003,-0.2158,-0.3256]",-2,3.2835,-69.09521484,-41.50003052,1,0,0,response5disk_5,-10.04760742,2.309509277,1,0,0,rectangle_8,-10.04760742,2.309509277,1,0,0,,,1,-10.04760742,2.309509277,1,0,0,,6,0,6,0,1,,,,,,,,,,,,,,,,,,,,,,,,,,,,,,,,,,,,,,,,,,,,,,,,,,,,,,,,,,,,,,,,,,,,,,,,,,,,,,,,,,,,,,,,,,,,,,,,,,,,,,,,,,,,,
,,,,,,60e00818b935a41dcfb1cccd,62c539a7ae27c2a639f10ef1,2022-07-06_09h29.42.117,Colour_Asymmetry_Pilot,2022.1.3,Win32,59.1891092,62c50e9c1127f2cd403a315f,,,,,,,,,,,,,,,,,,,,fourtwo,,2,2.6036,,,,,,,,,,,,,,,,,,,,,,,,,,,,,,,,space,4.5981,"[0.9763999999999999,0.30979999999999985,-0.6786]","[0.30180000000000007,-0.7884,-0.9844]",83.2857666,-49.11907959,1,0,0,response3disk,-8.142822266,2.309509277,1,0,0,rectangle,-8.142822266,2.309509277,1,0,0,,3,0.0094,0,-8.142822266,2.309509277,1,0,0,0,0,0,113,1,32,second,,,,,,,,,,,,,,,,,,,,,,,,,,,,,,,,,,,,,,,,,,,,,,,,,,,,,,,,,,,,,,,,,,,,,,,,
,,,,,,60e00818b935a41dcfb1cccd,62c539a7ae27c2a639f10ef1,2022-07-06_09h29.42.117,Colour_Asymmetry_Pilot,2022.1.3,Win32,59.1891092,62c50e9c1127f2cd403a315f,,,,,,,,,,,,,,,,,,,,twoone,,-2,1.4443,,,,,,,,,,,,,,,,,,,,,,,,,,,,,,,,,,"[-0.8198,-0.5138,-0.7492000000000001]","[0.9686000000000001,0.5763999999999998,0.11359999999999992]",-91.95233154,-34.83337402,1,0,0,response5disk,-6.238037109,-0.547698975,1,0,0,rectangle,-6.238037109,-0.547698975,1,0,0,,1,0.0037,0,-6.238037109,-0.547698975,1,0,0,0,1,1,126,1,45,second,,,,,,,,,,,,,,,,,,,,,,,,,,,,,,,,,,,,,,,,,,,,,,,,,,,,,,,,,,,,,,,,,,,,,,,,
,,,,,,60e00818b935a41dcfb1cccd,62c539a7ae27c2a639f10ef1,2022-07-06_09h29.42.117,Colour_Asymmetry_Pilot,2022.1.3,Win32,59.1891092,62c50e9c1127f2cd403a315f,,,,,,,,,,,,,,,,,,,,onethree,,-2,2.9671,,,,,,,,,,,,,,,,,,,,,,,,,,,,,,,,,,"[0.23920000000000008,0.2704,0.16060000000000008]","[0.9372,0.20779999999999998,0.2704]",-95.76177979,-29.11907959,1,0,0,response5disk,-10.04760742,2.309509277,1,0,0,rectangle,-10.04760742,2.309509277,1,0,0,,2,0.0058,0,-10.04760742,2.309509277,1,0,0,0,2,2,144,1,63,second,,,,,,,,,,,,,,,,,,,,,,,,,,,,,,,,,,,,,,,,,,,,,,,,,,,,,,,,,,,,,,,,,,,,,,,,
,,,,,,60e00818b935a41dcfb1cccd,62c539a7ae27c2a639f10ef1,2022-07-06_09h29.42.117,Colour_Asymmetry_Pilot,2022.1.3,Win32,59.1891092,62c50e9c1127f2cd403a315f,,,,,,,,,,,,,,,,,,,,threefour,,-2,1.4796,,,,,,,,,,,,,,,,,,,,,,,,,,,,,,,,,,"[-0.6,0.16860000000000008,0.44300000000000006]","[-0.050999999999999934,-0.6706000000000001,-0.804]",-91.95233154,-49.11907959,1,0,0,response5disk,-19.57141113,-2.452392578,1,0,0,rectangle,-19.57141113,-2.452392578,1,0,0,,3,0.0019,0,-19.57141113,-2.452392578,1,0,0,0,3,3,44,1,44,first,,,,,,,,,,,,,,,,,,,,,,,,,,,,,,,,,,,,,,,,,,,,,,,,,,,,,,,,,,,,,,,,,,,,,,,,
,,,,,,60e00818b935a41dcfb1cccd,62c539a7ae27c2a639f10ef1,2022-07-06_09h29.42.117,Colour_Asymmetry_Pilot,2022.1.3,Win32,59.1891092,62c50e9c1127f2cd403a315f,,,,,,,,,,,,,,,,,,,,fourtwo,,2,2.557,,,,,,,,,,,,,,,,,,,,,,,,,,,,,,,,,,"[-0.06680000000000008,-0.45100000000000007,-0.906]","[-0.34920000000000007,-0.702,-0.5216]",80.42858887,-51.97622681,1,0,0,response3disk,0.428588867,5.166656494,1,0,0,rectangle,0.428588867,5.166656494,1,0,0,,1,0.0022,0,0.428588867,5.166656494,1,0,0,0,4,4,22,1,22,first,,,,,,,,,,,,,,,,,,,,,,,,,,,,,,,,,,,,,,,,,,,,,,,,,,,,,,,,,,,,,,,,,,,,,,,,
,,,,,,60e00818b935a41dcfb1cccd,62c539a7ae27c2a639f10ef1,2022-07-06_09h29.42.117,Colour_Asymmetry_Pilot,2022.1.3,Win32,59.1891092,62c50e9c1127f2cd403a315f,,,,,,,,,,,,,,,,,,,,twofour,,2,1.3171,,,,,,,,,,,,,,,,,,,,,,,,,,,,,,,,,,"[0.9763999999999999,0.8588,-0.05900000000000005]","[0.9763999999999999,0.30979999999999985,-0.6786]",67.09527588,-43.40484619,1,0,0,response3disk,1.380981445,3.261871338,1,0,0,rectangle,1.380981445,3.261871338,1,0,0,,3,0.0012,0,1.380981445,3.261871338,1,0,0,0,5,5,92,1,11,second,,,,,,,,,,,,,,,,,,,,,,,,,,,,,,,,,,,,,,,,,,,,,,,,,,,,,,,,,,,,,,,,,,,,,,,,
,,,,,,60e00818b935a41dcfb1cccd,62c539a7ae27c2a639f10ef1,2022-07-06_09h29.42.117,Colour_Asymmetry_Pilot,2022.1.3,Win32,59.1891092,62c50e9c1127f2cd403a315f,,,,,,,,,,,,,,,,,,,,onethree,,-2,2.3246,,,,,,,,,,,,,,,,,,,,,,,,,,,,,,,,,,"[0.7802,-0.23140000000000005,-0.20799999999999996]","[0.9763999999999999,-0.1137999999999999,-0.6314]",-89.09521484,-33.88098145,1,0,0,response5disk,-0.523620605,-1.500030518,1,0,0,rectangle,-0.523620605,-1.500030518,1,0,0,,1,0.0016,0,-0.523620605,-1.500030518,1,0,0,0,6,6,9,1,9,first,,,,,,,,,,,,,,,,,,,,,,,,,,,,,,,,,,,,,,,,,,,,,,,,,,,,,,,,,,,,,,,,,,,,,,,,
,,,,,,60e00818b935a41dcfb1cccd,62c539a7ae27c2a639f10ef1,2022-07-06_09h29.42.117,Colour_Asymmetry_Pilot,2022.1.3,Win32,59.1891092,62c50e9c1127f2cd403a315f,,,,,,,,,,,,,,,,,,,,twoone,,2,0.721,,,,,,,,,,,,,,,,,,,,,,,,,,,,,,,,,,"[0.796,0.2156,-0.27859999999999996]","[1,0.12939999999999996,-1]",80.42858887,-31.02386475,1,0,0,response3disk,-14.80950928,1.357116699,1,0,0,rectangle,-14.80950928,1.357116699,1,0,0,,1,0.0005,0,-14.80950928,1.357116699,1,0,0,0,7,7,54,1,54,first,,,,,,,,,,,,,,,,,,,,,,,,,,,,,,,,,,,,,,,,,,,,,,,,,,,,,,,,,,,,,,,,,,,,,,,,
,,,,,,60e00818b935a41dcfb1cccd,62c539a7ae27c2a639f10ef1,2022-07-06_09h29.42.117,Colour_Asymmetry_Pilot,2022.1.3,Win32,59.1891092,62c50e9c1127f2cd403a315f,,,,,,,,,,,,,,,,,,,,fourtwo,,2,0.6127,,,,,,,,,,,,,,,,,,,,,,,,,,,,,,,,,,"[0.09799999999999986,-0.24719999999999998,0.15280000000000005]","[-0.26280000000000003,-0.4746,-0.2158]",51.85717773,-35.78579712,1,0,0,response3disk,-13.8571167,2.309509277,1,0,0,rectangle,-13.8571167,2.309509277,1,0,0,,1,0.0005,0,-13.8571167,2.309509277,1,0,0,0,8,8,28,1,28,first,,,,,,,,,,,,,,,,,,,,,,,,,,,,,,,,,,,,,,,,,,,,,,,,,,,,,,,,,,,,,,,,,,,,,,,,
,,,,,,60e00818b935a41dcfb1cccd,62c539a7ae27c2a639f10ef1,2022-07-06_09h29.42.117,Colour_Asymmetry_Pilot,2022.1.3,Win32,59.1891092,62c50e9c1127f2cd403a315f,,,,,,,,,,,,,,,,,,,,threefour,,-2,0.9883,,,,,,,,,,,,,,,,,,,,,,,,,,,,,,,,,,"[0.5528,0.7409999999999999,-0.71]","[-0.4668,-0.8746,-0.2942]",-64.33331299,-24.35717773,1,0,0,response5disk,1.380981445,-1.500030518,1,0,0,rectangle,1.380981445,-1.500030518,1,0,0,,1,0.0008,0,1.380981445,-1.500030518,1,0,0,0,9,9,137,1,56,second,,,,,,,,,,,,,,,,,,,,,,,,,,,,,,,,,,,,,,,,,,,,,,,,,,,,,,,,,,,,,,,,,,,,,,,,
,,,,,,60e00818b935a41dcfb1cccd,62c539a7ae27c2a639f10ef1,2022-07-06_09h29.42.117,Colour_Asymmetry_Pilot,2022.1.3,Win32,59.1891092,62c50e9c1127f2cd403a315f,,,,,,,,,,,,,,,,,,,,fourthree,,2,0.6548,,,,,,,,,,,,,,,,,,,,,,,,,,,,,,,,,,"[0.9763999999999999,0.30979999999999985,-0.6786]","[0.796,0.2156,-0.27859999999999996]",73.76196289,-27.21432495,1,0,0,response3disk,11.85717773,-3.404815674,1,0,0,rectangle,11.85717773,-3.404815674,1,0,0,,2,0.0026,0,11.85717773,-3.404815674,1,0,0,0,10,10,8,1,8,first,,,,,,,,,,,,,,,,,,,,,,,,,,,,,,,,,,,,,,,,,,,,,,,,,,,,,,,,,,,,,,,,,,,,,,,,
,,,,,,60e00818b935a41dcfb1cccd,62c539a7ae27c2a639f10ef1,2022-07-06_09h29.42.117,Colour_Asymmetry_Pilot,2022.1.3,Win32,59.1891092,62c50e9c1127f2cd403a315f,,,,,,,,,,,,,,,,,,,,twofour,,-2,1.0892,,,,,,,,,,,,,,,,,,,,,,,,,,,,,,,,,,"[0.9686000000000001,0.5763999999999998,0.11359999999999992]","[-0.8198,-0.5138,-0.7492000000000001]",-91.95233154,-27.21432495,1,0,0,response5disk,-6.238037109,-1.500030518,1,0,0,rectangle,-6.238037109,-1.500030518,1,0,0,,2,0.0006,0,-6.238037109,-1.500030518,1,0,0,0,11,11,45,1,45,first,,,,,,,,,,,,,,,,,,,,,,,,,,,,,,,,,,,,,,,,,,,,,,,,,,,,,,,,,,,,,,,,,,,,,,,,
,,,,,,60e00818b935a41dcfb1cccd,62c539a7ae27c2a639f10ef1,2022-07-06_09h29.42.117,Colour_Asymmetry_Pilot,2022.1.3,Win32,59.1891092,62c50e9c1127f2cd403a315f,,,,,,,,,,,,,,,,,,,,twofour,,-2,0.6217,,,,,,,,,,,,,,,,,,,,,,,,,,,,,,,,,,"[-0.6942,-0.7648,-0.12959999999999994]","[-0.45899999999999996,-0.3256,-0.9374]",-82.42852783,-39.59527588,1,0,0,response5disk,8.047668457,5.166656494,1,0,0,rectangle,8.047668457,5.166656494,1,0,0,,3,0.0049,0,8.047668457,5.166656494,1,0,0,0,12,12,27,1,27,first,,,,,,,,,,,,,,,,,,,,,,,,,,,,,,,,,,,,,,,,,,,,,,,,,,,,,,,,,,,,,,,,,,,,,,,,
,,,,,,60e00818b935a41dcfb1cccd,62c539a7ae27c2a639f10ef1,2022-07-06_09h29.42.117,Colour_Asymmetry_Pilot,2022.1.3,Win32,59.1891092,62c50e9c1127f2cd403a315f,,,,,,,,,,,,,,,,,,,,twoone,,-2,0.5362,,,,,,,,,,,,,,,,,,,,,,,,,,,,,,,,,,"[0.7802,-0.23140000000000005,-0.20799999999999996]","[-0.5922000000000001,-0.7492000000000001,-0.5296000000000001]",-80.52374268,-32.92858887,1,0,0,response5disk,-5.285583496,5.166656494,1,0,0,rectangle,-5.285583496,5.166656494,1,0,0,,2,0.0089,0,-5.285583496,5.166656494,1,0,0,0,13,13,59,1,59,first,,,,,,,,,,,,,,,,,,,,,,,,,,,,,,,,,,,,,,,,,,,,,,,,,,,,,,,,,,,,,,,,,,,,,,,,
,,,,,,60e00818b935a41dcfb1cccd,62c539a7ae27c2a639f10ef1,2022-07-06_09h29.42.117,Colour_Asymmetry_Pilot,2022.1.3,Win32,59.1891092,62c50e9c1127f2cd403a315f,,,,,,,,,,,,,,,,,,,,onethree,,2,0.7999,,,,,,,,,,,,,,,,,,,,,,,,,,,,,,,,,,"[-0.10599999999999998,-0.10599999999999998,0.5841999999999998]","[-0.24719999999999998,-0.0354000000000001,0.3175999999999999]",84.23828125,-29.11907959,1,0,0,response3disk,4.23828125,2.309509277,1,0,0,rectangle,4.23828125,2.309509277,1,0,0,,3,0.0013,0,4.23828125,2.309509277,1,0,0,0,14,14,65,1,65,first,,,,,,,,,,,,,,,,,,,,,,,,,,,,,,,,,,,,,,,,,,,,,,,,,,,,,,,,,,,,,,,,,,,,,,,,
