trials.thisRepN,trials.thisTrialN,trials.thisN,trials.thisIndex,trials.ran,Colourcodes,participant,session,date,expName,psychopyVersion,OS,frameRate,study_id,trials_4.thisRepN,trials_4.thisTrialN,trials_4.thisN,trials_4.thisIndex,trials_4.ran,StimulusPos,key_resp.keys,key_resp.rt,key_resp_2.keys,key_resp_2.rt,key_resp_15.keys,key_resp_15.rt,key_resp_17.keys,key_resp_17.rt,key_resp_9.keys,key_resp_9.rt,key_resp_10.keys,key_resp_10.rt,Circle1_col,Ecc,Circle2_col,similarity,response_time,mouse_5.x,mouse_5.y,mouse_5.leftButton,mouse_5.midButton,mouse_5.rightButton,mouse_5.clicked_name,mouse_10.x,mouse_10.y,mouse_10.leftButton,mouse_10.midButton,mouse_10.rightButton,mouse_10.clicked_name,mouse_7.x,mouse_7.y,mouse_7.leftButton,mouse_7.midButton,mouse_7.rightButton,catchnumberprac,mouse_6.x,mouse_6.y,mouse_6.leftButton,mouse_6.midButton,mouse_6.rightButton,duringprac.thisRepN,duringprac.thisTrialN,duringprac.thisN,duringprac.thisIndex,duringprac.ran,mouse_7.clicked_name,catchprac,mouse_6.clicked_name,key_resp_22.keys,key_resp_22.rt,Circle1_colour,Circle2_colour,mouse.x,mouse.y,mouse.leftButton,mouse.midButton,mouse.rightButton,mouse.clicked_name,mouse_2.x,mouse_2.y,mouse_2.leftButton,mouse_2.midButton,mouse_2.rightButton,mouse_2.clicked_name,mouse_3.x,mouse_3.y,mouse_3.leftButton,mouse_3.midButton,mouse_3.rightButton,catchresponse,catchnumber,response_time_catch,Catch,mouse_11.x,mouse_11.y,mouse_11.leftButton,mouse_11.midButton,mouse_11.rightButton,trials_2.thisRepN,trials_2.thisTrialN,trials_2.thisN,trials_2.thisIndex,trials_2.ran,Colourpair,Temporder,mouse_3.clicked_name,mouse_11.clicked_name,trials_3.thisRepN,trials_3.thisTrialN,trials_3.thisN,trials_3.thisIndex,trials_3.ran,key_resp_instr_Ishi.keys,key_resp_instr_Ishi.rt,Ishi_trial_keyresp.keys,Ishi_textbox.text,Ishi_mouse.x,Ishi_mouse.y,Ishi_mouse.leftButton,Ishi_mouse.midButton,Ishi_mouse.rightButton,Ishi_mouse.clicked_name,Ishi_loop.thisRepN,Ishi_loop.thisTrialN,Ishi_loop.thisN,Ishi_loop.thisIndex,Ishi_loop.ran,imageaddress,textbox.text,mouse_4.x,mouse_4.y,mouse_4.leftButton,mouse_4.midButton,mouse_4.rightButton,mouse_4.clicked_name,textbox_2.text,mouse_8.x,mouse_8.y,mouse_8.leftButton,mouse_8.midButton,mouse_8.rightButton,mouse_8.clicked_name,textbox_3.text,mouse_9.x,mouse_9.y,mouse_9.leftButton,mouse_9.midButton,mouse_9.rightButton,mouse_9.clicked_name,textbox_4.text,mouse_12.x,mouse_12.y,mouse_12.leftButton,mouse_12.midButton,mouse_12.rightButton,mouse_12.clicked_name,textbox_5.text,mouse_13.x,mouse_13.y,mouse_13.leftButton,mouse_13.midButton,mouse_13.rightButton,mouse_13.clicked_name,textbox_6.text,mouse_14.x,mouse_14.y,mouse_14.leftButton,mouse_14.midButton,mouse_14.rightButton,mouse_14.clicked_name,textbox_7.text,mouse_15.x,mouse_15.y,mouse_15.leftButton,mouse_15.midButton,mouse_15.rightButton,mouse_15.clicked_name
0,0,0,31,1,,5fc781689771f106330abf6a,62c53897aa2bc9b5bcef82dc,2022-07-06_09h24.20.758,Colour_Asymmetry_Pilot,2022.1.3,Win32,60.59137179,62c50e9c1127f2cd403a315f,,,,,,,,,,,,,,,,,,,,,,,,,,,,,,,,,,,,,,,,,,,,,,,,,,,,,,,,,,,,,,,,,,,,,,,,,,,,,,,,,,,,,,,,,,,,,,,,,,,,,,,,,,,,,,,,,,,,,,,,,,,,,,,,,,,,,,,,,,,,,,,,,,,,,,,,,,,,,,,,,,,
0,1,1,28,1,,5fc781689771f106330abf6a,62c53897aa2bc9b5bcef82dc,2022-07-06_09h24.20.758,Colour_Asymmetry_Pilot,2022.1.3,Win32,60.59137179,62c50e9c1127f2cd403a315f,,,,,,,,,,,,,,,,,,,,,,,,,,,,,,,,,,,,,,,,,,,,,,,,,,,,,,,,,,,,,,,,,,,,,,,,,,,,,,,,,,,,,,,,,,,,,,,,,,,,,,,,,,,,,,,,,,,,,,,,,,,,,,,,,,,,,,,,,,,,,,,,,,,,,,,,,,,,,,,,,,,
0,2,2,12,1,,5fc781689771f106330abf6a,62c53897aa2bc9b5bcef82dc,2022-07-06_09h24.20.758,Colour_Asymmetry_Pilot,2022.1.3,Win32,60.59137179,62c50e9c1127f2cd403a315f,,,,,,,,,,,,,,,,,,,,,,,,,,,,,,,,,,,,,,,,,,,,,,,,,,,,,,,,,,,,,,,,,,,,,,,,,,,,,,,,,,,,,,,,,,,,,,,,,,,,,,,,,,,,,,,,,,,,,,,,,,,,,,,,,,,,,,,,,,,,,,,,,,,,,,,,,,,,,,,,,,,
0,3,3,64,1,,5fc781689771f106330abf6a,62c53897aa2bc9b5bcef82dc,2022-07-06_09h24.20.758,Colour_Asymmetry_Pilot,2022.1.3,Win32,60.59137179,62c50e9c1127f2cd403a315f,,,,,,,,,,,,,,,,,,,,,,,,,,,,,,,,,,,,,,,,,,,,,,,,,,,,,,,,,,,,,,,,,,,,,,,,,,,,,,,,,,,,,,,,,,,,,,,,,,,,,,,,,,,,,,,,,,,,,,,,,,,,,,,,,,,,,,,,,,,,,,,,,,,,,,,,,,,,,,,,,,,
0,4,4,19,1,,5fc781689771f106330abf6a,62c53897aa2bc9b5bcef82dc,2022-07-06_09h24.20.758,Colour_Asymmetry_Pilot,2022.1.3,Win32,60.59137179,62c50e9c1127f2cd403a315f,,,,,,,,,,,,,,,,,,,,,,,,,,,,,,,,,,,,,,,,,,,,,,,,,,,,,,,,,,,,,,,,,,,,,,,,,,,,,,,,,,,,,,,,,,,,,,,,,,,,,,,,,,,,,,,,,,,,,,,,,,,,,,,,,,,,,,,,,,,,,,,,,,,,,,,,,,,,,,,,,,,
0,5,5,52,1,,5fc781689771f106330abf6a,62c53897aa2bc9b5bcef82dc,2022-07-06_09h24.20.758,Colour_Asymmetry_Pilot,2022.1.3,Win32,60.59137179,62c50e9c1127f2cd403a315f,,,,,,,,,,,,,,,,,,,,,,,,,,,,,,,,,,,,,,,,,,,,,,,,,,,,,,,,,,,,,,,,,,,,,,,,,,,,,,,,,,,,,,,,,,,,,,,,,,,,,,,,,,,,,,,,,,,,,,,,,,,,,,,,,,,,,,,,,,,,,,,,,,,,,,,,,,,,,,,,,,,
0,6,6,10,1,,5fc781689771f106330abf6a,62c53897aa2bc9b5bcef82dc,2022-07-06_09h24.20.758,Colour_Asymmetry_Pilot,2022.1.3,Win32,60.59137179,62c50e9c1127f2cd403a315f,,,,,,,,,,,,,,,,,,,,,,,,,,,,,,,,,,,,,,,,,,,,,,,,,,,,,,,,,,,,,,,,,,,,,,,,,,,,,,,,,,,,,,,,,,,,,,,,,,,,,,,,,,,,,,,,,,,,,,,,,,,,,,,,,,,,,,,,,,,,,,,,,,,,,,,,,,,,,,,,,,,
0,7,7,39,1,,5fc781689771f106330abf6a,62c53897aa2bc9b5bcef82dc,2022-07-06_09h24.20.758,Colour_Asymmetry_Pilot,2022.1.3,Win32,60.59137179,62c50e9c1127f2cd403a315f,,,,,,,,,,,,,,,,,,,,,,,,,,,,,,,,,,,,,,,,,,,,,,,,,,,,,,,,,,,,,,,,,,,,,,,,,,,,,,,,,,,,,,,,,,,,,,,,,,,,,,,,,,,,,,,,,,,,,,,,,,,,,,,,,,,,,,,,,,,,,,,,,,,,,,,,,,,,,,,,,,,
0,8,8,55,1,,5fc781689771f106330abf6a,62c53897aa2bc9b5bcef82dc,2022-07-06_09h24.20.758,Colour_Asymmetry_Pilot,2022.1.3,Win32,60.59137179,62c50e9c1127f2cd403a315f,,,,,,,,,,,,,,,,,,,,,,,,,,,,,,,,,,,,,,,,,,,,,,,,,,,,,,,,,,,,,,,,,,,,,,,,,,,,,,,,,,,,,,,,,,,,,,,,,,,,,,,,,,,,,,,,,,,,,,,,,,,,,,,,,,,,,,,,,,,,,,,,,,,,,,,,,,,,,,,,,,,
0,9,9,46,1,,5fc781689771f106330abf6a,62c53897aa2bc9b5bcef82dc,2022-07-06_09h24.20.758,Colour_Asymmetry_Pilot,2022.1.3,Win32,60.59137179,62c50e9c1127f2cd403a315f,,,,,,,,,,,,,,,,,,,,,,,,,,,,,,,,,,,,,,,,,,,,,,,,,,,,,,,,,,,,,,,,,,,,,,,,,,,,,,,,,,,,,,,,,,,,,,,,,,,,,,,,,,,,,,,,,,,,,,,,,,,,,,,,,,,,,,,,,,,,,,,,,,,,,,,,,,,,,,,,,,,
0,10,10,65,1,,5fc781689771f106330abf6a,62c53897aa2bc9b5bcef82dc,2022-07-06_09h24.20.758,Colour_Asymmetry_Pilot,2022.1.3,Win32,60.59137179,62c50e9c1127f2cd403a315f,,,,,,,,,,,,,,,,,,,,,,,,,,,,,,,,,,,,,,,,,,,,,,,,,,,,,,,,,,,,,,,,,,,,,,,,,,,,,,,,,,,,,,,,,,,,,,,,,,,,,,,,,,,,,,,,,,,,,,,,,,,,,,,,,,,,,,,,,,,,,,,,,,,,,,,,,,,,,,,,,,,
0,11,11,5,1,,5fc781689771f106330abf6a,62c53897aa2bc9b5bcef82dc,2022-07-06_09h24.20.758,Colour_Asymmetry_Pilot,2022.1.3,Win32,60.59137179,62c50e9c1127f2cd403a315f,,,,,,,,,,,,,,,,,,,,,,,,,,,,,,,,,,,,,,,,,,,,,,,,,,,,,,,,,,,,,,,,,,,,,,,,,,,,,,,,,,,,,,,,,,,,,,,,,,,,,,,,,,,,,,,,,,,,,,,,,,,,,,,,,,,,,,,,,,,,,,,,,,,,,,,,,,,,,,,,,,,
0,12,12,73,1,,5fc781689771f106330abf6a,62c53897aa2bc9b5bcef82dc,2022-07-06_09h24.20.758,Colour_Asymmetry_Pilot,2022.1.3,Win32,60.59137179,62c50e9c1127f2cd403a315f,,,,,,,,,,,,,,,,,,,,,,,,,,,,,,,,,,,,,,,,,,,,,,,,,,,,,,,,,,,,,,,,,,,,,,,,,,,,,,,,,,,,,,,,,,,,,,,,,,,,,,,,,,,,,,,,,,,,,,,,,,,,,,,,,,,,,,,,,,,,,,,,,,,,,,,,,,,,,,,,,,,
0,13,13,76,1,,5fc781689771f106330abf6a,62c53897aa2bc9b5bcef82dc,2022-07-06_09h24.20.758,Colour_Asymmetry_Pilot,2022.1.3,Win32,60.59137179,62c50e9c1127f2cd403a315f,,,,,,,,,,,,,,,,,,,,,,,,,,,,,,,,,,,,,,,,,,,,,,,,,,,,,,,,,,,,,,,,,,,,,,,,,,,,,,,,,,,,,,,,,,,,,,,,,,,,,,,,,,,,,,,,,,,,,,,,,,,,,,,,,,,,,,,,,,,,,,,,,,,,,,,,,,,,,,,,,,,
0,14,14,71,1,,5fc781689771f106330abf6a,62c53897aa2bc9b5bcef82dc,2022-07-06_09h24.20.758,Colour_Asymmetry_Pilot,2022.1.3,Win32,60.59137179,62c50e9c1127f2cd403a315f,,,,,,,,,,,,,,,,,,,,,,,,,,,,,,,,,,,,,,,,,,,,,,,,,,,,,,,,,,,,,,,,,,,,,,,,,,,,,,,,,,,,,,,,,,,,,,,,,,,,,,,,,,,,,,,,,,,,,,,,,,,,,,,,,,,,,,,,,,,,,,,,,,,,,,,,,,,,,,,,,,,
0,15,15,43,1,,5fc781689771f106330abf6a,62c53897aa2bc9b5bcef82dc,2022-07-06_09h24.20.758,Colour_Asymmetry_Pilot,2022.1.3,Win32,60.59137179,62c50e9c1127f2cd403a315f,,,,,,,,,,,,,,,,,,,,,,,,,,,,,,,,,,,,,,,,,,,,,,,,,,,,,,,,,,,,,,,,,,,,,,,,,,,,,,,,,,,,,,,,,,,,,,,,,,,,,,,,,,,,,,,,,,,,,,,,,,,,,,,,,,,,,,,,,,,,,,,,,,,,,,,,,,,,,,,,,,,
0,16,16,78,1,,5fc781689771f106330abf6a,62c53897aa2bc9b5bcef82dc,2022-07-06_09h24.20.758,Colour_Asymmetry_Pilot,2022.1.3,Win32,60.59137179,62c50e9c1127f2cd403a315f,,,,,,,,,,,,,,,,,,,,,,,,,,,,,,,,,,,,,,,,,,,,,,,,,,,,,,,,,,,,,,,,,,,,,,,,,,,,,,,,,,,,,,,,,,,,,,,,,,,,,,,,,,,,,,,,,,,,,,,,,,,,,,,,,,,,,,,,,,,,,,,,,,,,,,,,,,,,,,,,,,,
0,17,17,26,1,,5fc781689771f106330abf6a,62c53897aa2bc9b5bcef82dc,2022-07-06_09h24.20.758,Colour_Asymmetry_Pilot,2022.1.3,Win32,60.59137179,62c50e9c1127f2cd403a315f,,,,,,,,,,,,,,,,,,,,,,,,,,,,,,,,,,,,,,,,,,,,,,,,,,,,,,,,,,,,,,,,,,,,,,,,,,,,,,,,,,,,,,,,,,,,,,,,,,,,,,,,,,,,,,,,,,,,,,,,,,,,,,,,,,,,,,,,,,,,,,,,,,,,,,,,,,,,,,,,,,,
0,18,18,66,1,,5fc781689771f106330abf6a,62c53897aa2bc9b5bcef82dc,2022-07-06_09h24.20.758,Colour_Asymmetry_Pilot,2022.1.3,Win32,60.59137179,62c50e9c1127f2cd403a315f,,,,,,,,,,,,,,,,,,,,,,,,,,,,,,,,,,,,,,,,,,,,,,,,,,,,,,,,,,,,,,,,,,,,,,,,,,,,,,,,,,,,,,,,,,,,,,,,,,,,,,,,,,,,,,,,,,,,,,,,,,,,,,,,,,,,,,,,,,,,,,,,,,,,,,,,,,,,,,,,,,,
0,19,19,53,1,,5fc781689771f106330abf6a,62c53897aa2bc9b5bcef82dc,2022-07-06_09h24.20.758,Colour_Asymmetry_Pilot,2022.1.3,Win32,60.59137179,62c50e9c1127f2cd403a315f,,,,,,,,,,,,,,,,,,,,,,,,,,,,,,,,,,,,,,,,,,,,,,,,,,,,,,,,,,,,,,,,,,,,,,,,,,,,,,,,,,,,,,,,,,,,,,,,,,,,,,,,,,,,,,,,,,,,,,,,,,,,,,,,,,,,,,,,,,,,,,,,,,,,,,,,,,,,,,,,,,,
0,20,20,18,1,,5fc781689771f106330abf6a,62c53897aa2bc9b5bcef82dc,2022-07-06_09h24.20.758,Colour_Asymmetry_Pilot,2022.1.3,Win32,60.59137179,62c50e9c1127f2cd403a315f,,,,,,,,,,,,,,,,,,,,,,,,,,,,,,,,,,,,,,,,,,,,,,,,,,,,,,,,,,,,,,,,,,,,,,,,,,,,,,,,,,,,,,,,,,,,,,,,,,,,,,,,,,,,,,,,,,,,,,,,,,,,,,,,,,,,,,,,,,,,,,,,,,,,,,,,,,,,,,,,,,,
0,21,21,83,1,,5fc781689771f106330abf6a,62c53897aa2bc9b5bcef82dc,2022-07-06_09h24.20.758,Colour_Asymmetry_Pilot,2022.1.3,Win32,60.59137179,62c50e9c1127f2cd403a315f,,,,,,,,,,,,,,,,,,,,,,,,,,,,,,,,,,,,,,,,,,,,,,,,,,,,,,,,,,,,,,,,,,,,,,,,,,,,,,,,,,,,,,,,,,,,,,,,,,,,,,,,,,,,,,,,,,,,,,,,,,,,,,,,,,,,,,,,,,,,,,,,,,,,,,,,,,,,,,,,,,,
0,22,22,79,1,,5fc781689771f106330abf6a,62c53897aa2bc9b5bcef82dc,2022-07-06_09h24.20.758,Colour_Asymmetry_Pilot,2022.1.3,Win32,60.59137179,62c50e9c1127f2cd403a315f,,,,,,,,,,,,,,,,,,,,,,,,,,,,,,,,,,,,,,,,,,,,,,,,,,,,,,,,,,,,,,,,,,,,,,,,,,,,,,,,,,,,,,,,,,,,,,,,,,,,,,,,,,,,,,,,,,,,,,,,,,,,,,,,,,,,,,,,,,,,,,,,,,,,,,,,,,,,,,,,,,,
0,23,23,1,1,,5fc781689771f106330abf6a,62c53897aa2bc9b5bcef82dc,2022-07-06_09h24.20.758,Colour_Asymmetry_Pilot,2022.1.3,Win32,60.59137179,62c50e9c1127f2cd403a315f,,,,,,,,,,,,,,,,,,,,,,,,,,,,,,,,,,,,,,,,,,,,,,,,,,,,,,,,,,,,,,,,,,,,,,,,,,,,,,,,,,,,,,,,,,,,,,,,,,,,,,,,,,,,,,,,,,,,,,,,,,,,,,,,,,,,,,,,,,,,,,,,,,,,,,,,,,,,,,,,,,,
0,24,24,47,1,,5fc781689771f106330abf6a,62c53897aa2bc9b5bcef82dc,2022-07-06_09h24.20.758,Colour_Asymmetry_Pilot,2022.1.3,Win32,60.59137179,62c50e9c1127f2cd403a315f,,,,,,,,,,,,,,,,,,,,,,,,,,,,,,,,,,,,,,,,,,,,,,,,,,,,,,,,,,,,,,,,,,,,,,,,,,,,,,,,,,,,,,,,,,,,,,,,,,,,,,,,,,,,,,,,,,,,,,,,,,,,,,,,,,,,,,,,,,,,,,,,,,,,,,,,,,,,,,,,,,,
0,25,25,51,1,,5fc781689771f106330abf6a,62c53897aa2bc9b5bcef82dc,2022-07-06_09h24.20.758,Colour_Asymmetry_Pilot,2022.1.3,Win32,60.59137179,62c50e9c1127f2cd403a315f,,,,,,,,,,,,,,,,,,,,,,,,,,,,,,,,,,,,,,,,,,,,,,,,,,,,,,,,,,,,,,,,,,,,,,,,,,,,,,,,,,,,,,,,,,,,,,,,,,,,,,,,,,,,,,,,,,,,,,,,,,,,,,,,,,,,,,,,,,,,,,,,,,,,,,,,,,,,,,,,,,,
0,26,26,87,1,,5fc781689771f106330abf6a,62c53897aa2bc9b5bcef82dc,2022-07-06_09h24.20.758,Colour_Asymmetry_Pilot,2022.1.3,Win32,60.59137179,62c50e9c1127f2cd403a315f,,,,,,,,,,,,,,,,,,,,,,,,,,,,,,,,,,,,,,,,,,,,,,,,,,,,,,,,,,,,,,,,,,,,,,,,,,,,,,,,,,,,,,,,,,,,,,,,,,,,,,,,,,,,,,,,,,,,,,,,,,,,,,,,,,,,,,,,,,,,,,,,,,,,,,,,,,,,,,,,,,,
0,27,27,13,1,,5fc781689771f106330abf6a,62c53897aa2bc9b5bcef82dc,2022-07-06_09h24.20.758,Colour_Asymmetry_Pilot,2022.1.3,Win32,60.59137179,62c50e9c1127f2cd403a315f,,,,,,,,,,,,,,,,,,,,,,,,,,,,,,,,,,,,,,,,,,,,,,,,,,,,,,,,,,,,,,,,,,,,,,,,,,,,,,,,,,,,,,,,,,,,,,,,,,,,,,,,,,,,,,,,,,,,,,,,,,,,,,,,,,,,,,,,,,,,,,,,,,,,,,,,,,,,,,,,,,,
0,28,28,72,1,,5fc781689771f106330abf6a,62c53897aa2bc9b5bcef82dc,2022-07-06_09h24.20.758,Colour_Asymmetry_Pilot,2022.1.3,Win32,60.59137179,62c50e9c1127f2cd403a315f,,,,,,,,,,,,,,,,,,,,,,,,,,,,,,,,,,,,,,,,,,,,,,,,,,,,,,,,,,,,,,,,,,,,,,,,,,,,,,,,,,,,,,,,,,,,,,,,,,,,,,,,,,,,,,,,,,,,,,,,,,,,,,,,,,,,,,,,,,,,,,,,,,,,,,,,,,,,,,,,,,,
0,29,29,92,1,,5fc781689771f106330abf6a,62c53897aa2bc9b5bcef82dc,2022-07-06_09h24.20.758,Colour_Asymmetry_Pilot,2022.1.3,Win32,60.59137179,62c50e9c1127f2cd403a315f,,,,,,,,,,,,,,,,,,,,,,,,,,,,,,,,,,,,,,,,,,,,,,,,,,,,,,,,,,,,,,,,,,,,,,,,,,,,,,,,,,,,,,,,,,,,,,,,,,,,,,,,,,,,,,,,,,,,,,,,,,,,,,,,,,,,,,,,,,,,,,,,,,,,,,,,,,,,,,,,,,,
0,30,30,69,1,,5fc781689771f106330abf6a,62c53897aa2bc9b5bcef82dc,2022-07-06_09h24.20.758,Colour_Asymmetry_Pilot,2022.1.3,Win32,60.59137179,62c50e9c1127f2cd403a315f,,,,,,,,,,,,,,,,,,,,,,,,,,,,,,,,,,,,,,,,,,,,,,,,,,,,,,,,,,,,,,,,,,,,,,,,,,,,,,,,,,,,,,,,,,,,,,,,,,,,,,,,,,,,,,,,,,,,,,,,,,,,,,,,,,,,,,,,,,,,,,,,,,,,,,,,,,,,,,,,,,,
0,31,31,9,1,,5fc781689771f106330abf6a,62c53897aa2bc9b5bcef82dc,2022-07-06_09h24.20.758,Colour_Asymmetry_Pilot,2022.1.3,Win32,60.59137179,62c50e9c1127f2cd403a315f,,,,,,,,,,,,,,,,,,,,,,,,,,,,,,,,,,,,,,,,,,,,,,,,,,,,,,,,,,,,,,,,,,,,,,,,,,,,,,,,,,,,,,,,,,,,,,,,,,,,,,,,,,,,,,,,,,,,,,,,,,,,,,,,,,,,,,,,,,,,,,,,,,,,,,,,,,,,,,,,,,,
0,32,32,54,1,,5fc781689771f106330abf6a,62c53897aa2bc9b5bcef82dc,2022-07-06_09h24.20.758,Colour_Asymmetry_Pilot,2022.1.3,Win32,60.59137179,62c50e9c1127f2cd403a315f,,,,,,,,,,,,,,,,,,,,,,,,,,,,,,,,,,,,,,,,,,,,,,,,,,,,,,,,,,,,,,,,,,,,,,,,,,,,,,,,,,,,,,,,,,,,,,,,,,,,,,,,,,,,,,,,,,,,,,,,,,,,,,,,,,,,,,,,,,,,,,,,,,,,,,,,,,,,,,,,,,,
0,33,33,34,1,,5fc781689771f106330abf6a,62c53897aa2bc9b5bcef82dc,2022-07-06_09h24.20.758,Colour_Asymmetry_Pilot,2022.1.3,Win32,60.59137179,62c50e9c1127f2cd403a315f,,,,,,,,,,,,,,,,,,,,,,,,,,,,,,,,,,,,,,,,,,,,,,,,,,,,,,,,,,,,,,,,,,,,,,,,,,,,,,,,,,,,,,,,,,,,,,,,,,,,,,,,,,,,,,,,,,,,,,,,,,,,,,,,,,,,,,,,,,,,,,,,,,,,,,,,,,,,,,,,,,,
0,34,34,37,1,,5fc781689771f106330abf6a,62c53897aa2bc9b5bcef82dc,2022-07-06_09h24.20.758,Colour_Asymmetry_Pilot,2022.1.3,Win32,60.59137179,62c50e9c1127f2cd403a315f,,,,,,,,,,,,,,,,,,,,,,,,,,,,,,,,,,,,,,,,,,,,,,,,,,,,,,,,,,,,,,,,,,,,,,,,,,,,,,,,,,,,,,,,,,,,,,,,,,,,,,,,,,,,,,,,,,,,,,,,,,,,,,,,,,,,,,,,,,,,,,,,,,,,,,,,,,,,,,,,,,,
0,35,35,36,1,,5fc781689771f106330abf6a,62c53897aa2bc9b5bcef82dc,2022-07-06_09h24.20.758,Colour_Asymmetry_Pilot,2022.1.3,Win32,60.59137179,62c50e9c1127f2cd403a315f,,,,,,,,,,,,,,,,,,,,,,,,,,,,,,,,,,,,,,,,,,,,,,,,,,,,,,,,,,,,,,,,,,,,,,,,,,,,,,,,,,,,,,,,,,,,,,,,,,,,,,,,,,,,,,,,,,,,,,,,,,,,,,,,,,,,,,,,,,,,,,,,,,,,,,,,,,,,,,,,,,,
0,36,36,68,1,,5fc781689771f106330abf6a,62c53897aa2bc9b5bcef82dc,2022-07-06_09h24.20.758,Colour_Asymmetry_Pilot,2022.1.3,Win32,60.59137179,62c50e9c1127f2cd403a315f,,,,,,,,,,,,,,,,,,,,,,,,,,,,,,,,,,,,,,,,,,,,,,,,,,,,,,,,,,,,,,,,,,,,,,,,,,,,,,,,,,,,,,,,,,,,,,,,,,,,,,,,,,,,,,,,,,,,,,,,,,,,,,,,,,,,,,,,,,,,,,,,,,,,,,,,,,,,,,,,,,,
0,37,37,62,1,,5fc781689771f106330abf6a,62c53897aa2bc9b5bcef82dc,2022-07-06_09h24.20.758,Colour_Asymmetry_Pilot,2022.1.3,Win32,60.59137179,62c50e9c1127f2cd403a315f,,,,,,,,,,,,,,,,,,,,,,,,,,,,,,,,,,,,,,,,,,,,,,,,,,,,,,,,,,,,,,,,,,,,,,,,,,,,,,,,,,,,,,,,,,,,,,,,,,,,,,,,,,,,,,,,,,,,,,,,,,,,,,,,,,,,,,,,,,,,,,,,,,,,,,,,,,,,,,,,,,,
0,38,38,11,1,,5fc781689771f106330abf6a,62c53897aa2bc9b5bcef82dc,2022-07-06_09h24.20.758,Colour_Asymmetry_Pilot,2022.1.3,Win32,60.59137179,62c50e9c1127f2cd403a315f,,,,,,,,,,,,,,,,,,,,,,,,,,,,,,,,,,,,,,,,,,,,,,,,,,,,,,,,,,,,,,,,,,,,,,,,,,,,,,,,,,,,,,,,,,,,,,,,,,,,,,,,,,,,,,,,,,,,,,,,,,,,,,,,,,,,,,,,,,,,,,,,,,,,,,,,,,,,,,,,,,,
0,39,39,42,1,,5fc781689771f106330abf6a,62c53897aa2bc9b5bcef82dc,2022-07-06_09h24.20.758,Colour_Asymmetry_Pilot,2022.1.3,Win32,60.59137179,62c50e9c1127f2cd403a315f,,,,,,,,,,,,,,,,,,,,,,,,,,,,,,,,,,,,,,,,,,,,,,,,,,,,,,,,,,,,,,,,,,,,,,,,,,,,,,,,,,,,,,,,,,,,,,,,,,,,,,,,,,,,,,,,,,,,,,,,,,,,,,,,,,,,,,,,,,,,,,,,,,,,,,,,,,,,,,,,,,,
0,40,40,15,1,,5fc781689771f106330abf6a,62c53897aa2bc9b5bcef82dc,2022-07-06_09h24.20.758,Colour_Asymmetry_Pilot,2022.1.3,Win32,60.59137179,62c50e9c1127f2cd403a315f,,,,,,,,,,,,,,,,,,,,,,,,,,,,,,,,,,,,,,,,,,,,,,,,,,,,,,,,,,,,,,,,,,,,,,,,,,,,,,,,,,,,,,,,,,,,,,,,,,,,,,,,,,,,,,,,,,,,,,,,,,,,,,,,,,,,,,,,,,,,,,,,,,,,,,,,,,,,,,,,,,,
0,41,41,40,1,,5fc781689771f106330abf6a,62c53897aa2bc9b5bcef82dc,2022-07-06_09h24.20.758,Colour_Asymmetry_Pilot,2022.1.3,Win32,60.59137179,62c50e9c1127f2cd403a315f,,,,,,,,,,,,,,,,,,,,,,,,,,,,,,,,,,,,,,,,,,,,,,,,,,,,,,,,,,,,,,,,,,,,,,,,,,,,,,,,,,,,,,,,,,,,,,,,,,,,,,,,,,,,,,,,,,,,,,,,,,,,,,,,,,,,,,,,,,,,,,,,,,,,,,,,,,,,,,,,,,,
0,42,42,14,1,,5fc781689771f106330abf6a,62c53897aa2bc9b5bcef82dc,2022-07-06_09h24.20.758,Colour_Asymmetry_Pilot,2022.1.3,Win32,60.59137179,62c50e9c1127f2cd403a315f,,,,,,,,,,,,,,,,,,,,,,,,,,,,,,,,,,,,,,,,,,,,,,,,,,,,,,,,,,,,,,,,,,,,,,,,,,,,,,,,,,,,,,,,,,,,,,,,,,,,,,,,,,,,,,,,,,,,,,,,,,,,,,,,,,,,,,,,,,,,,,,,,,,,,,,,,,,,,,,,,,,
0,43,43,30,1,,5fc781689771f106330abf6a,62c53897aa2bc9b5bcef82dc,2022-07-06_09h24.20.758,Colour_Asymmetry_Pilot,2022.1.3,Win32,60.59137179,62c50e9c1127f2cd403a315f,,,,,,,,,,,,,,,,,,,,,,,,,,,,,,,,,,,,,,,,,,,,,,,,,,,,,,,,,,,,,,,,,,,,,,,,,,,,,,,,,,,,,,,,,,,,,,,,,,,,,,,,,,,,,,,,,,,,,,,,,,,,,,,,,,,,,,,,,,,,,,,,,,,,,,,,,,,,,,,,,,,
0,44,44,24,1,,5fc781689771f106330abf6a,62c53897aa2bc9b5bcef82dc,2022-07-06_09h24.20.758,Colour_Asymmetry_Pilot,2022.1.3,Win32,60.59137179,62c50e9c1127f2cd403a315f,,,,,,,,,,,,,,,,,,,,,,,,,,,,,,,,,,,,,,,,,,,,,,,,,,,,,,,,,,,,,,,,,,,,,,,,,,,,,,,,,,,,,,,,,,,,,,,,,,,,,,,,,,,,,,,,,,,,,,,,,,,,,,,,,,,,,,,,,,,,,,,,,,,,,,,,,,,,,,,,,,,
0,45,45,60,1,,5fc781689771f106330abf6a,62c53897aa2bc9b5bcef82dc,2022-07-06_09h24.20.758,Colour_Asymmetry_Pilot,2022.1.3,Win32,60.59137179,62c50e9c1127f2cd403a315f,,,,,,,,,,,,,,,,,,,,,,,,,,,,,,,,,,,,,,,,,,,,,,,,,,,,,,,,,,,,,,,,,,,,,,,,,,,,,,,,,,,,,,,,,,,,,,,,,,,,,,,,,,,,,,,,,,,,,,,,,,,,,,,,,,,,,,,,,,,,,,,,,,,,,,,,,,,,,,,,,,,
0,46,46,80,1,,5fc781689771f106330abf6a,62c53897aa2bc9b5bcef82dc,2022-07-06_09h24.20.758,Colour_Asymmetry_Pilot,2022.1.3,Win32,60.59137179,62c50e9c1127f2cd403a315f,,,,,,,,,,,,,,,,,,,,,,,,,,,,,,,,,,,,,,,,,,,,,,,,,,,,,,,,,,,,,,,,,,,,,,,,,,,,,,,,,,,,,,,,,,,,,,,,,,,,,,,,,,,,,,,,,,,,,,,,,,,,,,,,,,,,,,,,,,,,,,,,,,,,,,,,,,,,,,,,,,,
0,47,47,3,1,,5fc781689771f106330abf6a,62c53897aa2bc9b5bcef82dc,2022-07-06_09h24.20.758,Colour_Asymmetry_Pilot,2022.1.3,Win32,60.59137179,62c50e9c1127f2cd403a315f,,,,,,,,,,,,,,,,,,,,,,,,,,,,,,,,,,,,,,,,,,,,,,,,,,,,,,,,,,,,,,,,,,,,,,,,,,,,,,,,,,,,,,,,,,,,,,,,,,,,,,,,,,,,,,,,,,,,,,,,,,,,,,,,,,,,,,,,,,,,,,,,,,,,,,,,,,,,,,,,,,,
0,48,48,8,1,,5fc781689771f106330abf6a,62c53897aa2bc9b5bcef82dc,2022-07-06_09h24.20.758,Colour_Asymmetry_Pilot,2022.1.3,Win32,60.59137179,62c50e9c1127f2cd403a315f,,,,,,,,,,,,,,,,,,,,,,,,,,,,,,,,,,,,,,,,,,,,,,,,,,,,,,,,,,,,,,,,,,,,,,,,,,,,,,,,,,,,,,,,,,,,,,,,,,,,,,,,,,,,,,,,,,,,,,,,,,,,,,,,,,,,,,,,,,,,,,,,,,,,,,,,,,,,,,,,,,,
0,49,49,67,1,,5fc781689771f106330abf6a,62c53897aa2bc9b5bcef82dc,2022-07-06_09h24.20.758,Colour_Asymmetry_Pilot,2022.1.3,Win32,60.59137179,62c50e9c1127f2cd403a315f,,,,,,,,,,,,,,,,,,,,,,,,,,,,,,,,,,,,,,,,,,,,,,,,,,,,,,,,,,,,,,,,,,,,,,,,,,,,,,,,,,,,,,,,,,,,,,,,,,,,,,,,,,,,,,,,,,,,,,,,,,,,,,,,,,,,,,,,,,,,,,,,,,,,,,,,,,,,,,,,,,,
0,50,50,49,1,,5fc781689771f106330abf6a,62c53897aa2bc9b5bcef82dc,2022-07-06_09h24.20.758,Colour_Asymmetry_Pilot,2022.1.3,Win32,60.59137179,62c50e9c1127f2cd403a315f,,,,,,,,,,,,,,,,,,,,,,,,,,,,,,,,,,,,,,,,,,,,,,,,,,,,,,,,,,,,,,,,,,,,,,,,,,,,,,,,,,,,,,,,,,,,,,,,,,,,,,,,,,,,,,,,,,,,,,,,,,,,,,,,,,,,,,,,,,,,,,,,,,,,,,,,,,,,,,,,,,,
0,51,51,16,1,,5fc781689771f106330abf6a,62c53897aa2bc9b5bcef82dc,2022-07-06_09h24.20.758,Colour_Asymmetry_Pilot,2022.1.3,Win32,60.59137179,62c50e9c1127f2cd403a315f,,,,,,,,,,,,,,,,,,,,,,,,,,,,,,,,,,,,,,,,,,,,,,,,,,,,,,,,,,,,,,,,,,,,,,,,,,,,,,,,,,,,,,,,,,,,,,,,,,,,,,,,,,,,,,,,,,,,,,,,,,,,,,,,,,,,,,,,,,,,,,,,,,,,,,,,,,,,,,,,,,,
0,52,52,32,1,,5fc781689771f106330abf6a,62c53897aa2bc9b5bcef82dc,2022-07-06_09h24.20.758,Colour_Asymmetry_Pilot,2022.1.3,Win32,60.59137179,62c50e9c1127f2cd403a315f,,,,,,,,,,,,,,,,,,,,,,,,,,,,,,,,,,,,,,,,,,,,,,,,,,,,,,,,,,,,,,,,,,,,,,,,,,,,,,,,,,,,,,,,,,,,,,,,,,,,,,,,,,,,,,,,,,,,,,,,,,,,,,,,,,,,,,,,,,,,,,,,,,,,,,,,,,,,,,,,,,,
0,53,53,91,1,,5fc781689771f106330abf6a,62c53897aa2bc9b5bcef82dc,2022-07-06_09h24.20.758,Colour_Asymmetry_Pilot,2022.1.3,Win32,60.59137179,62c50e9c1127f2cd403a315f,,,,,,,,,,,,,,,,,,,,,,,,,,,,,,,,,,,,,,,,,,,,,,,,,,,,,,,,,,,,,,,,,,,,,,,,,,,,,,,,,,,,,,,,,,,,,,,,,,,,,,,,,,,,,,,,,,,,,,,,,,,,,,,,,,,,,,,,,,,,,,,,,,,,,,,,,,,,,,,,,,,
0,54,54,81,1,,5fc781689771f106330abf6a,62c53897aa2bc9b5bcef82dc,2022-07-06_09h24.20.758,Colour_Asymmetry_Pilot,2022.1.3,Win32,60.59137179,62c50e9c1127f2cd403a315f,,,,,,,,,,,,,,,,,,,,,,,,,,,,,,,,,,,,,,,,,,,,,,,,,,,,,,,,,,,,,,,,,,,,,,,,,,,,,,,,,,,,,,,,,,,,,,,,,,,,,,,,,,,,,,,,,,,,,,,,,,,,,,,,,,,,,,,,,,,,,,,,,,,,,,,,,,,,,,,,,,,
0,55,55,58,1,,5fc781689771f106330abf6a,62c53897aa2bc9b5bcef82dc,2022-07-06_09h24.20.758,Colour_Asymmetry_Pilot,2022.1.3,Win32,60.59137179,62c50e9c1127f2cd403a315f,,,,,,,,,,,,,,,,,,,,,,,,,,,,,,,,,,,,,,,,,,,,,,,,,,,,,,,,,,,,,,,,,,,,,,,,,,,,,,,,,,,,,,,,,,,,,,,,,,,,,,,,,,,,,,,,,,,,,,,,,,,,,,,,,,,,,,,,,,,,,,,,,,,,,,,,,,,,,,,,,,,
0,56,56,88,1,,5fc781689771f106330abf6a,62c53897aa2bc9b5bcef82dc,2022-07-06_09h24.20.758,Colour_Asymmetry_Pilot,2022.1.3,Win32,60.59137179,62c50e9c1127f2cd403a315f,,,,,,,,,,,,,,,,,,,,,,,,,,,,,,,,,,,,,,,,,,,,,,,,,,,,,,,,,,,,,,,,,,,,,,,,,,,,,,,,,,,,,,,,,,,,,,,,,,,,,,,,,,,,,,,,,,,,,,,,,,,,,,,,,,,,,,,,,,,,,,,,,,,,,,,,,,,,,,,,,,,
0,57,57,70,1,,5fc781689771f106330abf6a,62c53897aa2bc9b5bcef82dc,2022-07-06_09h24.20.758,Colour_Asymmetry_Pilot,2022.1.3,Win32,60.59137179,62c50e9c1127f2cd403a315f,,,,,,,,,,,,,,,,,,,,,,,,,,,,,,,,,,,,,,,,,,,,,,,,,,,,,,,,,,,,,,,,,,,,,,,,,,,,,,,,,,,,,,,,,,,,,,,,,,,,,,,,,,,,,,,,,,,,,,,,,,,,,,,,,,,,,,,,,,,,,,,,,,,,,,,,,,,,,,,,,,,
0,58,58,6,1,,5fc781689771f106330abf6a,62c53897aa2bc9b5bcef82dc,2022-07-06_09h24.20.758,Colour_Asymmetry_Pilot,2022.1.3,Win32,60.59137179,62c50e9c1127f2cd403a315f,,,,,,,,,,,,,,,,,,,,,,,,,,,,,,,,,,,,,,,,,,,,,,,,,,,,,,,,,,,,,,,,,,,,,,,,,,,,,,,,,,,,,,,,,,,,,,,,,,,,,,,,,,,,,,,,,,,,,,,,,,,,,,,,,,,,,,,,,,,,,,,,,,,,,,,,,,,,,,,,,,,
0,59,59,29,1,,5fc781689771f106330abf6a,62c53897aa2bc9b5bcef82dc,2022-07-06_09h24.20.758,Colour_Asymmetry_Pilot,2022.1.3,Win32,60.59137179,62c50e9c1127f2cd403a315f,,,,,,,,,,,,,,,,,,,,,,,,,,,,,,,,,,,,,,,,,,,,,,,,,,,,,,,,,,,,,,,,,,,,,,,,,,,,,,,,,,,,,,,,,,,,,,,,,,,,,,,,,,,,,,,,,,,,,,,,,,,,,,,,,,,,,,,,,,,,,,,,,,,,,,,,,,,,,,,,,,,
0,60,60,22,1,,5fc781689771f106330abf6a,62c53897aa2bc9b5bcef82dc,2022-07-06_09h24.20.758,Colour_Asymmetry_Pilot,2022.1.3,Win32,60.59137179,62c50e9c1127f2cd403a315f,,,,,,,,,,,,,,,,,,,,,,,,,,,,,,,,,,,,,,,,,,,,,,,,,,,,,,,,,,,,,,,,,,,,,,,,,,,,,,,,,,,,,,,,,,,,,,,,,,,,,,,,,,,,,,,,,,,,,,,,,,,,,,,,,,,,,,,,,,,,,,,,,,,,,,,,,,,,,,,,,,,
0,61,61,35,1,,5fc781689771f106330abf6a,62c53897aa2bc9b5bcef82dc,2022-07-06_09h24.20.758,Colour_Asymmetry_Pilot,2022.1.3,Win32,60.59137179,62c50e9c1127f2cd403a315f,,,,,,,,,,,,,,,,,,,,,,,,,,,,,,,,,,,,,,,,,,,,,,,,,,,,,,,,,,,,,,,,,,,,,,,,,,,,,,,,,,,,,,,,,,,,,,,,,,,,,,,,,,,,,,,,,,,,,,,,,,,,,,,,,,,,,,,,,,,,,,,,,,,,,,,,,,,,,,,,,,,
0,62,62,90,1,,5fc781689771f106330abf6a,62c53897aa2bc9b5bcef82dc,2022-07-06_09h24.20.758,Colour_Asymmetry_Pilot,2022.1.3,Win32,60.59137179,62c50e9c1127f2cd403a315f,,,,,,,,,,,,,,,,,,,,,,,,,,,,,,,,,,,,,,,,,,,,,,,,,,,,,,,,,,,,,,,,,,,,,,,,,,,,,,,,,,,,,,,,,,,,,,,,,,,,,,,,,,,,,,,,,,,,,,,,,,,,,,,,,,,,,,,,,,,,,,,,,,,,,,,,,,,,,,,,,,,
0,63,63,4,1,,5fc781689771f106330abf6a,62c53897aa2bc9b5bcef82dc,2022-07-06_09h24.20.758,Colour_Asymmetry_Pilot,2022.1.3,Win32,60.59137179,62c50e9c1127f2cd403a315f,,,,,,,,,,,,,,,,,,,,,,,,,,,,,,,,,,,,,,,,,,,,,,,,,,,,,,,,,,,,,,,,,,,,,,,,,,,,,,,,,,,,,,,,,,,,,,,,,,,,,,,,,,,,,,,,,,,,,,,,,,,,,,,,,,,,,,,,,,,,,,,,,,,,,,,,,,,,,,,,,,,
0,64,64,82,1,,5fc781689771f106330abf6a,62c53897aa2bc9b5bcef82dc,2022-07-06_09h24.20.758,Colour_Asymmetry_Pilot,2022.1.3,Win32,60.59137179,62c50e9c1127f2cd403a315f,,,,,,,,,,,,,,,,,,,,,,,,,,,,,,,,,,,,,,,,,,,,,,,,,,,,,,,,,,,,,,,,,,,,,,,,,,,,,,,,,,,,,,,,,,,,,,,,,,,,,,,,,,,,,,,,,,,,,,,,,,,,,,,,,,,,,,,,,,,,,,,,,,,,,,,,,,,,,,,,,,,
0,65,65,44,1,,5fc781689771f106330abf6a,62c53897aa2bc9b5bcef82dc,2022-07-06_09h24.20.758,Colour_Asymmetry_Pilot,2022.1.3,Win32,60.59137179,62c50e9c1127f2cd403a315f,,,,,,,,,,,,,,,,,,,,,,,,,,,,,,,,,,,,,,,,,,,,,,,,,,,,,,,,,,,,,,,,,,,,,,,,,,,,,,,,,,,,,,,,,,,,,,,,,,,,,,,,,,,,,,,,,,,,,,,,,,,,,,,,,,,,,,,,,,,,,,,,,,,,,,,,,,,,,,,,,,,
0,66,66,0,1,,5fc781689771f106330abf6a,62c53897aa2bc9b5bcef82dc,2022-07-06_09h24.20.758,Colour_Asymmetry_Pilot,2022.1.3,Win32,60.59137179,62c50e9c1127f2cd403a315f,,,,,,,,,,,,,,,,,,,,,,,,,,,,,,,,,,,,,,,,,,,,,,,,,,,,,,,,,,,,,,,,,,,,,,,,,,,,,,,,,,,,,,,,,,,,,,,,,,,,,,,,,,,,,,,,,,,,,,,,,,,,,,,,,,,,,,,,,,,,,,,,,,,,,,,,,,,,,,,,,,,
0,67,67,45,1,,5fc781689771f106330abf6a,62c53897aa2bc9b5bcef82dc,2022-07-06_09h24.20.758,Colour_Asymmetry_Pilot,2022.1.3,Win32,60.59137179,62c50e9c1127f2cd403a315f,,,,,,,,,,,,,,,,,,,,,,,,,,,,,,,,,,,,,,,,,,,,,,,,,,,,,,,,,,,,,,,,,,,,,,,,,,,,,,,,,,,,,,,,,,,,,,,,,,,,,,,,,,,,,,,,,,,,,,,,,,,,,,,,,,,,,,,,,,,,,,,,,,,,,,,,,,,,,,,,,,,
0,68,68,41,1,,5fc781689771f106330abf6a,62c53897aa2bc9b5bcef82dc,2022-07-06_09h24.20.758,Colour_Asymmetry_Pilot,2022.1.3,Win32,60.59137179,62c50e9c1127f2cd403a315f,,,,,,,,,,,,,,,,,,,,,,,,,,,,,,,,,,,,,,,,,,,,,,,,,,,,,,,,,,,,,,,,,,,,,,,,,,,,,,,,,,,,,,,,,,,,,,,,,,,,,,,,,,,,,,,,,,,,,,,,,,,,,,,,,,,,,,,,,,,,,,,,,,,,,,,,,,,,,,,,,,,
0,69,69,59,1,,5fc781689771f106330abf6a,62c53897aa2bc9b5bcef82dc,2022-07-06_09h24.20.758,Colour_Asymmetry_Pilot,2022.1.3,Win32,60.59137179,62c50e9c1127f2cd403a315f,,,,,,,,,,,,,,,,,,,,,,,,,,,,,,,,,,,,,,,,,,,,,,,,,,,,,,,,,,,,,,,,,,,,,,,,,,,,,,,,,,,,,,,,,,,,,,,,,,,,,,,,,,,,,,,,,,,,,,,,,,,,,,,,,,,,,,,,,,,,,,,,,,,,,,,,,,,,,,,,,,,
0,70,70,23,1,,5fc781689771f106330abf6a,62c53897aa2bc9b5bcef82dc,2022-07-06_09h24.20.758,Colour_Asymmetry_Pilot,2022.1.3,Win32,60.59137179,62c50e9c1127f2cd403a315f,,,,,,,,,,,,,,,,,,,,,,,,,,,,,,,,,,,,,,,,,,,,,,,,,,,,,,,,,,,,,,,,,,,,,,,,,,,,,,,,,,,,,,,,,,,,,,,,,,,,,,,,,,,,,,,,,,,,,,,,,,,,,,,,,,,,,,,,,,,,,,,,,,,,,,,,,,,,,,,,,,,
0,71,71,38,1,,5fc781689771f106330abf6a,62c53897aa2bc9b5bcef82dc,2022-07-06_09h24.20.758,Colour_Asymmetry_Pilot,2022.1.3,Win32,60.59137179,62c50e9c1127f2cd403a315f,,,,,,,,,,,,,,,,,,,,,,,,,,,,,,,,,,,,,,,,,,,,,,,,,,,,,,,,,,,,,,,,,,,,,,,,,,,,,,,,,,,,,,,,,,,,,,,,,,,,,,,,,,,,,,,,,,,,,,,,,,,,,,,,,,,,,,,,,,,,,,,,,,,,,,,,,,,,,,,,,,,
0,72,72,21,1,,5fc781689771f106330abf6a,62c53897aa2bc9b5bcef82dc,2022-07-06_09h24.20.758,Colour_Asymmetry_Pilot,2022.1.3,Win32,60.59137179,62c50e9c1127f2cd403a315f,,,,,,,,,,,,,,,,,,,,,,,,,,,,,,,,,,,,,,,,,,,,,,,,,,,,,,,,,,,,,,,,,,,,,,,,,,,,,,,,,,,,,,,,,,,,,,,,,,,,,,,,,,,,,,,,,,,,,,,,,,,,,,,,,,,,,,,,,,,,,,,,,,,,,,,,,,,,,,,,,,,
0,73,73,74,1,,5fc781689771f106330abf6a,62c53897aa2bc9b5bcef82dc,2022-07-06_09h24.20.758,Colour_Asymmetry_Pilot,2022.1.3,Win32,60.59137179,62c50e9c1127f2cd403a315f,,,,,,,,,,,,,,,,,,,,,,,,,,,,,,,,,,,,,,,,,,,,,,,,,,,,,,,,,,,,,,,,,,,,,,,,,,,,,,,,,,,,,,,,,,,,,,,,,,,,,,,,,,,,,,,,,,,,,,,,,,,,,,,,,,,,,,,,,,,,,,,,,,,,,,,,,,,,,,,,,,,
0,74,74,56,1,,5fc781689771f106330abf6a,62c53897aa2bc9b5bcef82dc,2022-07-06_09h24.20.758,Colour_Asymmetry_Pilot,2022.1.3,Win32,60.59137179,62c50e9c1127f2cd403a315f,,,,,,,,,,,,,,,,,,,,,,,,,,,,,,,,,,,,,,,,,,,,,,,,,,,,,,,,,,,,,,,,,,,,,,,,,,,,,,,,,,,,,,,,,,,,,,,,,,,,,,,,,,,,,,,,,,,,,,,,,,,,,,,,,,,,,,,,,,,,,,,,,,,,,,,,,,,,,,,,,,,
0,75,75,33,1,,5fc781689771f106330abf6a,62c53897aa2bc9b5bcef82dc,2022-07-06_09h24.20.758,Colour_Asymmetry_Pilot,2022.1.3,Win32,60.59137179,62c50e9c1127f2cd403a315f,,,,,,,,,,,,,,,,,,,,,,,,,,,,,,,,,,,,,,,,,,,,,,,,,,,,,,,,,,,,,,,,,,,,,,,,,,,,,,,,,,,,,,,,,,,,,,,,,,,,,,,,,,,,,,,,,,,,,,,,,,,,,,,,,,,,,,,,,,,,,,,,,,,,,,,,,,,,,,,,,,,
0,76,76,57,1,,5fc781689771f106330abf6a,62c53897aa2bc9b5bcef82dc,2022-07-06_09h24.20.758,Colour_Asymmetry_Pilot,2022.1.3,Win32,60.59137179,62c50e9c1127f2cd403a315f,,,,,,,,,,,,,,,,,,,,,,,,,,,,,,,,,,,,,,,,,,,,,,,,,,,,,,,,,,,,,,,,,,,,,,,,,,,,,,,,,,,,,,,,,,,,,,,,,,,,,,,,,,,,,,,,,,,,,,,,,,,,,,,,,,,,,,,,,,,,,,,,,,,,,,,,,,,,,,,,,,,
0,77,77,85,1,,5fc781689771f106330abf6a,62c53897aa2bc9b5bcef82dc,2022-07-06_09h24.20.758,Colour_Asymmetry_Pilot,2022.1.3,Win32,60.59137179,62c50e9c1127f2cd403a315f,,,,,,,,,,,,,,,,,,,,,,,,,,,,,,,,,,,,,,,,,,,,,,,,,,,,,,,,,,,,,,,,,,,,,,,,,,,,,,,,,,,,,,,,,,,,,,,,,,,,,,,,,,,,,,,,,,,,,,,,,,,,,,,,,,,,,,,,,,,,,,,,,,,,,,,,,,,,,,,,,,,
0,78,78,86,1,,5fc781689771f106330abf6a,62c53897aa2bc9b5bcef82dc,2022-07-06_09h24.20.758,Colour_Asymmetry_Pilot,2022.1.3,Win32,60.59137179,62c50e9c1127f2cd403a315f,,,,,,,,,,,,,,,,,,,,,,,,,,,,,,,,,,,,,,,,,,,,,,,,,,,,,,,,,,,,,,,,,,,,,,,,,,,,,,,,,,,,,,,,,,,,,,,,,,,,,,,,,,,,,,,,,,,,,,,,,,,,,,,,,,,,,,,,,,,,,,,,,,,,,,,,,,,,,,,,,,,
0,79,79,7,1,,5fc781689771f106330abf6a,62c53897aa2bc9b5bcef82dc,2022-07-06_09h24.20.758,Colour_Asymmetry_Pilot,2022.1.3,Win32,60.59137179,62c50e9c1127f2cd403a315f,,,,,,,,,,,,,,,,,,,,,,,,,,,,,,,,,,,,,,,,,,,,,,,,,,,,,,,,,,,,,,,,,,,,,,,,,,,,,,,,,,,,,,,,,,,,,,,,,,,,,,,,,,,,,,,,,,,,,,,,,,,,,,,,,,,,,,,,,,,,,,,,,,,,,,,,,,,,,,,,,,,
0,80,80,27,1,,5fc781689771f106330abf6a,62c53897aa2bc9b5bcef82dc,2022-07-06_09h24.20.758,Colour_Asymmetry_Pilot,2022.1.3,Win32,60.59137179,62c50e9c1127f2cd403a315f,,,,,,,,,,,,,,,,,,,,,,,,,,,,,,,,,,,,,,,,,,,,,,,,,,,,,,,,,,,,,,,,,,,,,,,,,,,,,,,,,,,,,,,,,,,,,,,,,,,,,,,,,,,,,,,,,,,,,,,,,,,,,,,,,,,,,,,,,,,,,,,,,,,,,,,,,,,,,,,,,,,
0,81,81,89,1,,5fc781689771f106330abf6a,62c53897aa2bc9b5bcef82dc,2022-07-06_09h24.20.758,Colour_Asymmetry_Pilot,2022.1.3,Win32,60.59137179,62c50e9c1127f2cd403a315f,,,,,,,,,,,,,,,,,,,,,,,,,,,,,,,,,,,,,,,,,,,,,,,,,,,,,,,,,,,,,,,,,,,,,,,,,,,,,,,,,,,,,,,,,,,,,,,,,,,,,,,,,,,,,,,,,,,,,,,,,,,,,,,,,,,,,,,,,,,,,,,,,,,,,,,,,,,,,,,,,,,
0,82,82,25,1,,5fc781689771f106330abf6a,62c53897aa2bc9b5bcef82dc,2022-07-06_09h24.20.758,Colour_Asymmetry_Pilot,2022.1.3,Win32,60.59137179,62c50e9c1127f2cd403a315f,,,,,,,,,,,,,,,,,,,,,,,,,,,,,,,,,,,,,,,,,,,,,,,,,,,,,,,,,,,,,,,,,,,,,,,,,,,,,,,,,,,,,,,,,,,,,,,,,,,,,,,,,,,,,,,,,,,,,,,,,,,,,,,,,,,,,,,,,,,,,,,,,,,,,,,,,,,,,,,,,,,
0,83,83,75,1,,5fc781689771f106330abf6a,62c53897aa2bc9b5bcef82dc,2022-07-06_09h24.20.758,Colour_Asymmetry_Pilot,2022.1.3,Win32,60.59137179,62c50e9c1127f2cd403a315f,,,,,,,,,,,,,,,,,,,,,,,,,,,,,,,,,,,,,,,,,,,,,,,,,,,,,,,,,,,,,,,,,,,,,,,,,,,,,,,,,,,,,,,,,,,,,,,,,,,,,,,,,,,,,,,,,,,,,,,,,,,,,,,,,,,,,,,,,,,,,,,,,,,,,,,,,,,,,,,,,,,
0,84,84,84,1,,5fc781689771f106330abf6a,62c53897aa2bc9b5bcef82dc,2022-07-06_09h24.20.758,Colour_Asymmetry_Pilot,2022.1.3,Win32,60.59137179,62c50e9c1127f2cd403a315f,,,,,,,,,,,,,,,,,,,,,,,,,,,,,,,,,,,,,,,,,,,,,,,,,,,,,,,,,,,,,,,,,,,,,,,,,,,,,,,,,,,,,,,,,,,,,,,,,,,,,,,,,,,,,,,,,,,,,,,,,,,,,,,,,,,,,,,,,,,,,,,,,,,,,,,,,,,,,,,,,,,
0,85,85,61,1,,5fc781689771f106330abf6a,62c53897aa2bc9b5bcef82dc,2022-07-06_09h24.20.758,Colour_Asymmetry_Pilot,2022.1.3,Win32,60.59137179,62c50e9c1127f2cd403a315f,,,,,,,,,,,,,,,,,,,,,,,,,,,,,,,,,,,,,,,,,,,,,,,,,,,,,,,,,,,,,,,,,,,,,,,,,,,,,,,,,,,,,,,,,,,,,,,,,,,,,,,,,,,,,,,,,,,,,,,,,,,,,,,,,,,,,,,,,,,,,,,,,,,,,,,,,,,,,,,,,,,
0,86,86,48,1,,5fc781689771f106330abf6a,62c53897aa2bc9b5bcef82dc,2022-07-06_09h24.20.758,Colour_Asymmetry_Pilot,2022.1.3,Win32,60.59137179,62c50e9c1127f2cd403a315f,,,,,,,,,,,,,,,,,,,,,,,,,,,,,,,,,,,,,,,,,,,,,,,,,,,,,,,,,,,,,,,,,,,,,,,,,,,,,,,,,,,,,,,,,,,,,,,,,,,,,,,,,,,,,,,,,,,,,,,,,,,,,,,,,,,,,,,,,,,,,,,,,,,,,,,,,,,,,,,,,,,
0,87,87,63,1,,5fc781689771f106330abf6a,62c53897aa2bc9b5bcef82dc,2022-07-06_09h24.20.758,Colour_Asymmetry_Pilot,2022.1.3,Win32,60.59137179,62c50e9c1127f2cd403a315f,,,,,,,,,,,,,,,,,,,,,,,,,,,,,,,,,,,,,,,,,,,,,,,,,,,,,,,,,,,,,,,,,,,,,,,,,,,,,,,,,,,,,,,,,,,,,,,,,,,,,,,,,,,,,,,,,,,,,,,,,,,,,,,,,,,,,,,,,,,,,,,,,,,,,,,,,,,,,,,,,,,
0,88,88,2,1,,5fc781689771f106330abf6a,62c53897aa2bc9b5bcef82dc,2022-07-06_09h24.20.758,Colour_Asymmetry_Pilot,2022.1.3,Win32,60.59137179,62c50e9c1127f2cd403a315f,,,,,,,,,,,,,,,,,,,,,,,,,,,,,,,,,,,,,,,,,,,,,,,,,,,,,,,,,,,,,,,,,,,,,,,,,,,,,,,,,,,,,,,,,,,,,,,,,,,,,,,,,,,,,,,,,,,,,,,,,,,,,,,,,,,,,,,,,,,,,,,,,,,,,,,,,,,,,,,,,,,
0,89,89,20,1,,5fc781689771f106330abf6a,62c53897aa2bc9b5bcef82dc,2022-07-06_09h24.20.758,Colour_Asymmetry_Pilot,2022.1.3,Win32,60.59137179,62c50e9c1127f2cd403a315f,,,,,,,,,,,,,,,,,,,,,,,,,,,,,,,,,,,,,,,,,,,,,,,,,,,,,,,,,,,,,,,,,,,,,,,,,,,,,,,,,,,,,,,,,,,,,,,,,,,,,,,,,,,,,,,,,,,,,,,,,,,,,,,,,,,,,,,,,,,,,,,,,,,,,,,,,,,,,,,,,,,
0,90,90,17,1,,5fc781689771f106330abf6a,62c53897aa2bc9b5bcef82dc,2022-07-06_09h24.20.758,Colour_Asymmetry_Pilot,2022.1.3,Win32,60.59137179,62c50e9c1127f2cd403a315f,,,,,,,,,,,,,,,,,,,,,,,,,,,,,,,,,,,,,,,,,,,,,,,,,,,,,,,,,,,,,,,,,,,,,,,,,,,,,,,,,,,,,,,,,,,,,,,,,,,,,,,,,,,,,,,,,,,,,,,,,,,,,,,,,,,,,,,,,,,,,,,,,,,,,,,,,,,,,,,,,,,
0,91,91,50,1,,5fc781689771f106330abf6a,62c53897aa2bc9b5bcef82dc,2022-07-06_09h24.20.758,Colour_Asymmetry_Pilot,2022.1.3,Win32,60.59137179,62c50e9c1127f2cd403a315f,,,,,,,,,,,,,,,,,,,,,,,,,,,,,,,,,,,,,,,,,,,,,,,,,,,,,,,,,,,,,,,,,,,,,,,,,,,,,,,,,,,,,,,,,,,,,,,,,,,,,,,,,,,,,,,,,,,,,,,,,,,,,,,,,,,,,,,,,,,,,,,,,,,,,,,,,,,,,,,,,,,
0,92,92,77,1,,5fc781689771f106330abf6a,62c53897aa2bc9b5bcef82dc,2022-07-06_09h24.20.758,Colour_Asymmetry_Pilot,2022.1.3,Win32,60.59137179,62c50e9c1127f2cd403a315f,,,,,,,,,,,,,,,,,,,,,,,,,,,,,,,,,,,,,,,,,,,,,,,,,,,,,,,,,,,,,,,,,,,,,,,,,,,,,,,,,,,,,,,,,,,,,,,,,,,,,,,,,,,,,,,,,,,,,,,,,,,,,,,,,,,,,,,,,,,,,,,,,,,,,,,,,,,,,,,,,,,
,,,,,,5fc781689771f106330abf6a,62c53897aa2bc9b5bcef82dc,2022-07-06_09h24.20.758,Colour_Asymmetry_Pilot,2022.1.3,Win32,60.59137179,62c50e9c1127f2cd403a315f,0,0,0,154,1,twoone,,,,,,,,,,,,,,,,,,,,,,,,,,,,,,,,,,,,,,,,,,,,,,,,,,,,,,,,,,,,,,,,,,,,,,,,,,,,,,,,,,,,,,,,,,,,,,,,,,,,,,,,,,,,,,,,,,,,,,,,,,,,,,,,,,,,,,,,,,,,,,,,,,,,,,,,,,,,,
,,,,,,5fc781689771f106330abf6a,62c53897aa2bc9b5bcef82dc,2022-07-06_09h24.20.758,Colour_Asymmetry_Pilot,2022.1.3,Win32,60.59137179,62c50e9c1127f2cd403a315f,0,1,1,43,1,twofour,,,,,,,,,,,,,,,,,,,,,,,,,,,,,,,,,,,,,,,,,,,,,,,,,,,,,,,,,,,,,,,,,,,,,,,,,,,,,,,,,,,,,,,,,,,,,,,,,,,,,,,,,,,,,,,,,,,,,,,,,,,,,,,,,,,,,,,,,,,,,,,,,,,,,,,,,,,,,
,,,,,,5fc781689771f106330abf6a,62c53897aa2bc9b5bcef82dc,2022-07-06_09h24.20.758,Colour_Asymmetry_Pilot,2022.1.3,Win32,60.59137179,62c50e9c1127f2cd403a315f,0,2,2,142,1,fourtwo,,,,,,,,,,,,,,,,,,,,,,,,,,,,,,,,,,,,,,,,,,,,,,,,,,,,,,,,,,,,,,,,,,,,,,,,,,,,,,,,,,,,,,,,,,,,,,,,,,,,,,,,,,,,,,,,,,,,,,,,,,,,,,,,,,,,,,,,,,,,,,,,,,,,,,,,,,,,,
,,,,,,5fc781689771f106330abf6a,62c53897aa2bc9b5bcef82dc,2022-07-06_09h24.20.758,Colour_Asymmetry_Pilot,2022.1.3,Win32,60.59137179,62c50e9c1127f2cd403a315f,0,3,3,73,1,onethree,,,,,,,,,,,,,,,,,,,,,,,,,,,,,,,,,,,,,,,,,,,,,,,,,,,,,,,,,,,,,,,,,,,,,,,,,,,,,,,,,,,,,,,,,,,,,,,,,,,,,,,,,,,,,,,,,,,,,,,,,,,,,,,,,,,,,,,,,,,,,,,,,,,,,,,,,,,,,
,,,,,,5fc781689771f106330abf6a,62c53897aa2bc9b5bcef82dc,2022-07-06_09h24.20.758,Colour_Asymmetry_Pilot,2022.1.3,Win32,60.59137179,62c50e9c1127f2cd403a315f,0,4,4,140,1,threeone,,,,,,,,,,,,,,,,,,,,,,,,,,,,,,,,,,,,,,,,,,,,,,,,,,,,,,,,,,,,,,,,,,,,,,,,,,,,,,,,,,,,,,,,,,,,,,,,,,,,,,,,,,,,,,,,,,,,,,,,,,,,,,,,,,,,,,,,,,,,,,,,,,,,,,,,,,,,,
,,,,,,5fc781689771f106330abf6a,62c53897aa2bc9b5bcef82dc,2022-07-06_09h24.20.758,Colour_Asymmetry_Pilot,2022.1.3,Win32,60.59137179,62c50e9c1127f2cd403a315f,0,5,5,85,1,threefour,,,,,,,,,,,,,,,,,,,,,,,,,,,,,,,,,,,,,,,,,,,,,,,,,,,,,,,,,,,,,,,,,,,,,,,,,,,,,,,,,,,,,,,,,,,,,,,,,,,,,,,,,,,,,,,,,,,,,,,,,,,,,,,,,,,,,,,,,,,,,,,,,,,,,,,,,,,,,
,,,,,,5fc781689771f106330abf6a,62c53897aa2bc9b5bcef82dc,2022-07-06_09h24.20.758,Colour_Asymmetry_Pilot,2022.1.3,Win32,60.59137179,62c50e9c1127f2cd403a315f,0,6,6,114,1,twoone,,,,,,,,,,,,,,,,,,,,,,,,,,,,,,,,,,,,,,,,,,,,,,,,,,,,,,,,,,,,,,,,,,,,,,,,,,,,,,,,,,,,,,,,,,,,,,,,,,,,,,,,,,,,,,,,,,,,,,,,,,,,,,,,,,,,,,,,,,,,,,,,,,,,,,,,,,,,,
,,,,,,5fc781689771f106330abf6a,62c53897aa2bc9b5bcef82dc,2022-07-06_09h24.20.758,Colour_Asymmetry_Pilot,2022.1.3,Win32,60.59137179,62c50e9c1127f2cd403a315f,0,7,7,33,1,onethree,,,,,,,,,,,,,,,,,,,,,,,,,,,,,,,,,,,,,,,,,,,,,,,,,,,,,,,,,,,,,,,,,,,,,,,,,,,,,,,,,,,,,,,,,,,,,,,,,,,,,,,,,,,,,,,,,,,,,,,,,,,,,,,,,,,,,,,,,,,,,,,,,,,,,,,,,,,,,
,,,,,,5fc781689771f106330abf6a,62c53897aa2bc9b5bcef82dc,2022-07-06_09h24.20.758,Colour_Asymmetry_Pilot,2022.1.3,Win32,60.59137179,62c50e9c1127f2cd403a315f,0,8,8,133,1,threefour,,,,,,,,,,,,,,,,,,,,,,,,,,,,,,,,,,,,,,,,,,,,,,,,,,,,,,,,,,,,,,,,,,,,,,,,,,,,,,,,,,,,,,,,,,,,,,,,,,,,,,,,,,,,,,,,,,,,,,,,,,,,,,,,,,,,,,,,,,,,,,,,,,,,,,,,,,,,,
,,,,,,5fc781689771f106330abf6a,62c53897aa2bc9b5bcef82dc,2022-07-06_09h24.20.758,Colour_Asymmetry_Pilot,2022.1.3,Win32,60.59137179,62c50e9c1127f2cd403a315f,0,9,9,87,1,fourthree,,,,,,,,,,,,,,,,,,,,,,,,,,,,,,,,,,,,,,,,,,,,,,,,,,,,,,,,,,,,,,,,,,,,,,,,,,,,,,,,,,,,,,,,,,,,,,,,,,,,,,,,,,,,,,,,,,,,,,,,,,,,,,,,,,,,,,,,,,,,,,,,,,,,,,,,,,,,,
,,,,,,5fc781689771f106330abf6a,62c53897aa2bc9b5bcef82dc,2022-07-06_09h24.20.758,Colour_Asymmetry_Pilot,2022.1.3,Win32,60.59137179,62c50e9c1127f2cd403a315f,0,10,10,54,1,fourtwo,,,,,,,,,,,,,,,,,,,,,,,,,,,,,,,,,,,,,,,,,,,,,,,,,,,,,,,,,,,,,,,,,,,,,,,,,,,,,,,,,,,,,,,,,,,,,,,,,,,,,,,,,,,,,,,,,,,,,,,,,,,,,,,,,,,,,,,,,,,,,,,,,,,,,,,,,,,,,
,,,,,,5fc781689771f106330abf6a,62c53897aa2bc9b5bcef82dc,2022-07-06_09h24.20.758,Colour_Asymmetry_Pilot,2022.1.3,Win32,60.59137179,62c50e9c1127f2cd403a315f,0,11,11,153,1,onethree,,,,,,,,,,,,,,,,,,,,,,,,,,,,,,,,,,,,,,,,,,,,,,,,,,,,,,,,,,,,,,,,,,,,,,,,,,,,,,,,,,,,,,,,,,,,,,,,,,,,,,,,,,,,,,,,,,,,,,,,,,,,,,,,,,,,,,,,,,,,,,,,,,,,,,,,,,,,,
,,,,,,5fc781689771f106330abf6a,62c53897aa2bc9b5bcef82dc,2022-07-06_09h24.20.758,Colour_Asymmetry_Pilot,2022.1.3,Win32,60.59137179,62c50e9c1127f2cd403a315f,0,12,12,60,1,threeone,,,,,,,,,,,,,,,,,,,,,,,,,,,,,,,,,,,,,,,,,,,,,,,,,,,,,,,,,,,,,,,,,,,,,,,,,,,,,,,,,,,,,,,,,,,,,,,,,,,,,,,,,,,,,,,,,,,,,,,,,,,,,,,,,,,,,,,,,,,,,,,,,,,,,,,,,,,,,
,,,,,,5fc781689771f106330abf6a,62c53897aa2bc9b5bcef82dc,2022-07-06_09h24.20.758,Colour_Asymmetry_Pilot,2022.1.3,Win32,60.59137179,62c50e9c1127f2cd403a315f,0,13,13,92,1,threeone,,,,,,,,,,,,,,,,,,,,,,,,,,,,,,,,,,,,,,,,,,,,,,,,,,,,,,,,,,,,,,,,,,,,,,,,,,,,,,,,,,,,,,,,,,,,,,,,,,,,,,,,,,,,,,,,,,,,,,,,,,,,,,,,,,,,,,,,,,,,,,,,,,,,,,,,,,,,,
,,,,,,5fc781689771f106330abf6a,62c53897aa2bc9b5bcef82dc,2022-07-06_09h24.20.758,Colour_Asymmetry_Pilot,2022.1.3,Win32,60.59137179,62c50e9c1127f2cd403a315f,0,14,14,147,1,twofour,,,,,,,,,,,,,,,,,,,,,,,,,,,,,,,,,,,,,,,,,,,,,,,,,,,,,,,,,,,,,,,,,,,,,,,,,,,,,,,,,,,,,,,,,,,,,,,,,,,,,,,,,,,,,,,,,,,,,,,,,,,,,,,,,,,,,,,,,,,,,,,,,,,,,,,,,,,,,
,,,,,,5fc781689771f106330abf6a,62c53897aa2bc9b5bcef82dc,2022-07-06_09h24.20.758,Colour_Asymmetry_Pilot,2022.1.3,Win32,60.59137179,62c50e9c1127f2cd403a315f,0,15,15,52,1,threeone,,,,,,,,,,,,,,,,,,,,,,,,,,,,,,,,,,,,,,,,,,,,,,,,,,,,,,,,,,,,,,,,,,,,,,,,,,,,,,,,,,,,,,,,,,,,,,,,,,,,,,,,,,,,,,,,,,,,,,,,,,,,,,,,,,,,,,,,,,,,,,,,,,,,,,,,,,,,,
,,,,,,5fc781689771f106330abf6a,62c53897aa2bc9b5bcef82dc,2022-07-06_09h24.20.758,Colour_Asymmetry_Pilot,2022.1.3,Win32,60.59137179,62c50e9c1127f2cd403a315f,0,16,16,146,1,twoone,,,,,,,,,,,,,,,,,,,,,,,,,,,,,,,,,,,,,,,,,,,,,,,,,,,,,,,,,,,,,,,,,,,,,,,,,,,,,,,,,,,,,,,,,,,,,,,,,,,,,,,,,,,,,,,,,,,,,,,,,,,,,,,,,,,,,,,,,,,,,,,,,,,,,,,,,,,,,
,,,,,,5fc781689771f106330abf6a,62c53897aa2bc9b5bcef82dc,2022-07-06_09h24.20.758,Colour_Asymmetry_Pilot,2022.1.3,Win32,60.59137179,62c50e9c1127f2cd403a315f,0,17,17,157,1,threefour,,,,,,,,,,,,,,,,,,,,,,,,,,,,,,,,,,,,,,,,,,,,,,,,,,,,,,,,,,,,,,,,,,,,,,,,,,,,,,,,,,,,,,,,,,,,,,,,,,,,,,,,,,,,,,,,,,,,,,,,,,,,,,,,,,,,,,,,,,,,,,,,,,,,,,,,,,,,,
,,,,,,5fc781689771f106330abf6a,62c53897aa2bc9b5bcef82dc,2022-07-06_09h24.20.758,Colour_Asymmetry_Pilot,2022.1.3,Win32,60.59137179,62c50e9c1127f2cd403a315f,0,18,18,139,1,twofour,,,,,,,,,,,,,,,,,,,,,,,,,,,,,,,,,,,,,,,,,,,,,,,,,,,,,,,,,,,,,,,,,,,,,,,,,,,,,,,,,,,,,,,,,,,,,,,,,,,,,,,,,,,,,,,,,,,,,,,,,,,,,,,,,,,,,,,,,,,,,,,,,,,,,,,,,,,,,
,,,,,,5fc781689771f106330abf6a,62c53897aa2bc9b5bcef82dc,2022-07-06_09h24.20.758,Colour_Asymmetry_Pilot,2022.1.3,Win32,60.59137179,62c50e9c1127f2cd403a315f,0,19,19,44,1,threeone,,,,,,,,,,,,,,,,,,,,,,,,,,,,,,,,,,,,,,,,,,,,,,,,,,,,,,,,,,,,,,,,,,,,,,,,,,,,,,,,,,,,,,,,,,,,,,,,,,,,,,,,,,,,,,,,,,,,,,,,,,,,,,,,,,,,,,,,,,,,,,,,,,,,,,,,,,,,,
,,,,,,5fc781689771f106330abf6a,62c53897aa2bc9b5bcef82dc,2022-07-06_09h24.20.758,Colour_Asymmetry_Pilot,2022.1.3,Win32,60.59137179,62c50e9c1127f2cd403a315f,0,20,20,116,1,threeone,,,,,,,,,,,,,,,,,,,,,,,,,,,,,,,,,,,,,,,,,,,,,,,,,,,,,,,,,,,,,,,,,,,,,,,,,,,,,,,,,,,,,,,,,,,,,,,,,,,,,,,,,,,,,,,,,,,,,,,,,,,,,,,,,,,,,,,,,,,,,,,,,,,,,,,,,,,,,
,,,,,,5fc781689771f106330abf6a,62c53897aa2bc9b5bcef82dc,2022-07-06_09h24.20.758,Colour_Asymmetry_Pilot,2022.1.3,Win32,60.59137179,62c50e9c1127f2cd403a315f,0,21,21,82,1,twoone,,,,,,,,,,,,,,,,,,,,,,,,,,,,,,,,,,,,,,,,,,,,,,,,,,,,,,,,,,,,,,,,,,,,,,,,,,,,,,,,,,,,,,,,,,,,,,,,,,,,,,,,,,,,,,,,,,,,,,,,,,,,,,,,,,,,,,,,,,,,,,,,,,,,,,,,,,,,,
,,,,,,5fc781689771f106330abf6a,62c53897aa2bc9b5bcef82dc,2022-07-06_09h24.20.758,Colour_Asymmetry_Pilot,2022.1.3,Win32,60.59137179,62c50e9c1127f2cd403a315f,0,22,22,107,1,twofour,,,,,,,,,,,,,,,,,,,,,,,,,,,,,,,,,,,,,,,,,,,,,,,,,,,,,,,,,,,,,,,,,,,,,,,,,,,,,,,,,,,,,,,,,,,,,,,,,,,,,,,,,,,,,,,,,,,,,,,,,,,,,,,,,,,,,,,,,,,,,,,,,,,,,,,,,,,,,
,,,,,,5fc781689771f106330abf6a,62c53897aa2bc9b5bcef82dc,2022-07-06_09h24.20.758,Colour_Asymmetry_Pilot,2022.1.3,Win32,60.59137179,62c50e9c1127f2cd403a315f,0,23,23,5,1,threefour,,,,,,,,,,,,,,,,,,,,,,,,,,,,,,,,,,,,,,,,,,,,,,,,,,,,,,,,,,,,,,,,,,,,,,,,,,,,,,,,,,,,,,,,,,,,,,,,,,,,,,,,,,,,,,,,,,,,,,,,,,,,,,,,,,,,,,,,,,,,,,,,,,,,,,,,,,,,,
,,,,,,5fc781689771f106330abf6a,62c53897aa2bc9b5bcef82dc,2022-07-06_09h24.20.758,Colour_Asymmetry_Pilot,2022.1.3,Win32,60.59137179,62c50e9c1127f2cd403a315f,0,24,24,119,1,fourthree,,,,,,,,,,,,,,,,,,,,,,,,,,,,,,,,,,,,,,,,,,,,,,,,,,,,,,,,,,,,,,,,,,,,,,,,,,,,,,,,,,,,,,,,,,,,,,,,,,,,,,,,,,,,,,,,,,,,,,,,,,,,,,,,,,,,,,,,,,,,,,,,,,,,,,,,,,,,,
,,,,,,5fc781689771f106330abf6a,62c53897aa2bc9b5bcef82dc,2022-07-06_09h24.20.758,Colour_Asymmetry_Pilot,2022.1.3,Win32,60.59137179,62c50e9c1127f2cd403a315f,0,25,25,37,1,threefour,,,,,,,,,,,,,,,,,,,,,,,,,,,,,,,,,,,,,,,,,,,,,,,,,,,,,,,,,,,,,,,,,,,,,,,,,,,,,,,,,,,,,,,,,,,,,,,,,,,,,,,,,,,,,,,,,,,,,,,,,,,,,,,,,,,,,,,,,,,,,,,,,,,,,,,,,,,,,
,,,,,,5fc781689771f106330abf6a,62c53897aa2bc9b5bcef82dc,2022-07-06_09h24.20.758,Colour_Asymmetry_Pilot,2022.1.3,Win32,60.59137179,62c50e9c1127f2cd403a315f,0,26,26,130,1,twoone,,,,,,,,,,,,,,,,,,,,,,,,,,,,,,,,,,,,,,,,,,,,,,,,,,,,,,,,,,,,,,,,,,,,,,,,,,,,,,,,,,,,,,,,,,,,,,,,,,,,,,,,,,,,,,,,,,,,,,,,,,,,,,,,,,,,,,,,,,,,,,,,,,,,,,,,,,,,,
,,,,,,5fc781689771f106330abf6a,62c53897aa2bc9b5bcef82dc,2022-07-06_09h24.20.758,Colour_Asymmetry_Pilot,2022.1.3,Win32,60.59137179,62c50e9c1127f2cd403a315f,0,27,27,4,1,threeone,,,,,,,,,,,,,,,,,,,,,,,,,,,,,,,,,,,,,,,,,,,,,,,,,,,,,,,,,,,,,,,,,,,,,,,,,,,,,,,,,,,,,,,,,,,,,,,,,,,,,,,,,,,,,,,,,,,,,,,,,,,,,,,,,,,,,,,,,,,,,,,,,,,,,,,,,,,,,
,,,,,,5fc781689771f106330abf6a,62c53897aa2bc9b5bcef82dc,2022-07-06_09h24.20.758,Colour_Asymmetry_Pilot,2022.1.3,Win32,60.59137179,62c50e9c1127f2cd403a315f,0,28,28,149,1,threefour,,,,,,,,,,,,,,,,,,,,,,,,,,,,,,,,,,,,,,,,,,,,,,,,,,,,,,,,,,,,,,,,,,,,,,,,,,,,,,,,,,,,,,,,,,,,,,,,,,,,,,,,,,,,,,,,,,,,,,,,,,,,,,,,,,,,,,,,,,,,,,,,,,,,,,,,,,,,,
,,,,,,5fc781689771f106330abf6a,62c53897aa2bc9b5bcef82dc,2022-07-06_09h24.20.758,Colour_Asymmetry_Pilot,2022.1.3,Win32,60.59137179,62c50e9c1127f2cd403a315f,0,29,29,55,1,fourthree,,,,,,,,,,,,,,,,,,,,,,,,,,,,,,,,,,,,,,,,,,,,,,,,,,,,,,,,,,,,,,,,,,,,,,,,,,,,,,,,,,,,,,,,,,,,,,,,,,,,,,,,,,,,,,,,,,,,,,,,,,,,,,,,,,,,,,,,,,,,,,,,,,,,,,,,,,,,,
,,,,,,5fc781689771f106330abf6a,62c53897aa2bc9b5bcef82dc,2022-07-06_09h24.20.758,Colour_Asymmetry_Pilot,2022.1.3,Win32,60.59137179,62c50e9c1127f2cd403a315f,0,30,30,136,1,onetwo,,,,,,,,,,,,,,,,,,,,,,,,,,,,,,,,,,,,,,,,,,,,,,,,,,,,,,,,,,,,,,,,,,,,,,,,,,,,,,,,,,,,,,,,,,,,,,,,,,,,,,,,,,,,,,,,,,,,,,,,,,,,,,,,,,,,,,,,,,,,,,,,,,,,,,,,,,,,,
,,,,,,5fc781689771f106330abf6a,62c53897aa2bc9b5bcef82dc,2022-07-06_09h24.20.758,Colour_Asymmetry_Pilot,2022.1.3,Win32,60.59137179,62c50e9c1127f2cd403a315f,0,31,31,128,1,onetwo,,,,,,,,,,,,,,,,,,,,,,,,,,,,,,,,,,,,,,,,,,,,,,,,,,,,,,,,,,,,,,,,,,,,,,,,,,,,,,,,,,,,,,,,,,,,,,,,,,,,,,,,,,,,,,,,,,,,,,,,,,,,,,,,,,,,,,,,,,,,,,,,,,,,,,,,,,,,,
,,,,,,5fc781689771f106330abf6a,62c53897aa2bc9b5bcef82dc,2022-07-06_09h24.20.758,Colour_Asymmetry_Pilot,2022.1.3,Win32,60.59137179,62c50e9c1127f2cd403a315f,0,32,32,75,1,twofour,,,,,,,,,,,,,,,,,,,,,,,,,,,,,,,,,,,,,,,,,,,,,,,,,,,,,,,,,,,,,,,,,,,,,,,,,,,,,,,,,,,,,,,,,,,,,,,,,,,,,,,,,,,,,,,,,,,,,,,,,,,,,,,,,,,,,,,,,,,,,,,,,,,,,,,,,,,,,
,,,,,,5fc781689771f106330abf6a,62c53897aa2bc9b5bcef82dc,2022-07-06_09h24.20.758,Colour_Asymmetry_Pilot,2022.1.3,Win32,60.59137179,62c50e9c1127f2cd403a315f,0,33,33,24,1,onetwo,,,,,,,,,,,,,,,,,,,,,,,,,,,,,,,,,,,,,,,,,,,,,,,,,,,,,,,,,,,,,,,,,,,,,,,,,,,,,,,,,,,,,,,,,,,,,,,,,,,,,,,,,,,,,,,,,,,,,,,,,,,,,,,,,,,,,,,,,,,,,,,,,,,,,,,,,,,,,
,,,,,,5fc781689771f106330abf6a,62c53897aa2bc9b5bcef82dc,2022-07-06_09h24.20.758,Colour_Asymmetry_Pilot,2022.1.3,Win32,60.59137179,62c50e9c1127f2cd403a315f,0,34,34,111,1,fourthree,,,,,,,,,,,,,,,,,,,,,,,,,,,,,,,,,,,,,,,,,,,,,,,,,,,,,,,,,,,,,,,,,,,,,,,,,,,,,,,,,,,,,,,,,,,,,,,,,,,,,,,,,,,,,,,,,,,,,,,,,,,,,,,,,,,,,,,,,,,,,,,,,,,,,,,,,,,,,
,,,,,,5fc781689771f106330abf6a,62c53897aa2bc9b5bcef82dc,2022-07-06_09h24.20.758,Colour_Asymmetry_Pilot,2022.1.3,Win32,60.59137179,62c50e9c1127f2cd403a315f,0,35,35,71,1,fourthree,,,,,,,,,,,,,,,,,,,,,,,,,,,,,,,,,,,,,,,,,,,,,,,,,,,,,,,,,,,,,,,,,,,,,,,,,,,,,,,,,,,,,,,,,,,,,,,,,,,,,,,,,,,,,,,,,,,,,,,,,,,,,,,,,,,,,,,,,,,,,,,,,,,,,,,,,,,,,
,,,,,,5fc781689771f106330abf6a,62c53897aa2bc9b5bcef82dc,2022-07-06_09h24.20.758,Colour_Asymmetry_Pilot,2022.1.3,Win32,60.59137179,62c50e9c1127f2cd403a315f,0,36,36,26,1,twoone,,,,,,,,,,,,,,,,,,,,,,,,,,,,,,,,,,,,,,,,,,,,,,,,,,,,,,,,,,,,,,,,,,,,,,,,,,,,,,,,,,,,,,,,,,,,,,,,,,,,,,,,,,,,,,,,,,,,,,,,,,,,,,,,,,,,,,,,,,,,,,,,,,,,,,,,,,,,,
,,,,,,5fc781689771f106330abf6a,62c53897aa2bc9b5bcef82dc,2022-07-06_09h24.20.758,Colour_Asymmetry_Pilot,2022.1.3,Win32,60.59137179,62c50e9c1127f2cd403a315f,0,37,37,77,1,threefour,,,,,,,,,,,,,,,,,,,,,,,,,,,,,,,,,,,,,,,,,,,,,,,,,,,,,,,,,,,,,,,,,,,,,,,,,,,,,,,,,,,,,,,,,,,,,,,,,,,,,,,,,,,,,,,,,,,,,,,,,,,,,,,,,,,,,,,,,,,,,,,,,,,,,,,,,,,,,
,,,,,,5fc781689771f106330abf6a,62c53897aa2bc9b5bcef82dc,2022-07-06_09h24.20.758,Colour_Asymmetry_Pilot,2022.1.3,Win32,60.59137179,62c50e9c1127f2cd403a315f,0,38,38,16,1,onetwo,,,,,,,,,,,,,,,,,,,,,,,,,,,,,,,,,,,,,,,,,,,,,,,,,,,,,,,,,,,,,,,,,,,,,,,,,,,,,,,,,,,,,,,,,,,,,,,,,,,,,,,,,,,,,,,,,,,,,,,,,,,,,,,,,,,,,,,,,,,,,,,,,,,,,,,,,,,,,
,,,,,,5fc781689771f106330abf6a,62c53897aa2bc9b5bcef82dc,2022-07-06_09h24.20.758,Colour_Asymmetry_Pilot,2022.1.3,Win32,60.59137179,62c50e9c1127f2cd403a315f,0,39,39,48,1,onetwo,,,,,,,,,,,,,,,,,,,,,,,,,,,,,,,,,,,,,,,,,,,,,,,,,,,,,,,,,,,,,,,,,,,,,,,,,,,,,,,,,,,,,,,,,,,,,,,,,,,,,,,,,,,,,,,,,,,,,,,,,,,,,,,,,,,,,,,,,,,,,,,,,,,,,,,,,,,,,
,,,,,,5fc781689771f106330abf6a,62c53897aa2bc9b5bcef82dc,2022-07-06_09h24.20.758,Colour_Asymmetry_Pilot,2022.1.3,Win32,60.59137179,62c50e9c1127f2cd403a315f,0,40,40,113,1,onethree,,,,,,,,,,,,,,,,,,,,,,,,,,,,,,,,,,,,,,,,,,,,,,,,,,,,,,,,,,,,,,,,,,,,,,,,,,,,,,,,,,,,,,,,,,,,,,,,,,,,,,,,,,,,,,,,,,,,,,,,,,,,,,,,,,,,,,,,,,,,,,,,,,,,,,,,,,,,,
,,,,,,5fc781689771f106330abf6a,62c53897aa2bc9b5bcef82dc,2022-07-06_09h24.20.758,Colour_Asymmetry_Pilot,2022.1.3,Win32,60.59137179,62c50e9c1127f2cd403a315f,0,41,41,0,1,onetwo,,,,,,,,,,,,,,,,,,,,,,,,,,,,,,,,,,,,,,,,,,,,,,,,,,,,,,,,,,,,,,,,,,,,,,,,,,,,,,,,,,,,,,,,,,,,,,,,,,,,,,,,,,,,,,,,,,,,,,,,,,,,,,,,,,,,,,,,,,,,,,,,,,,,,,,,,,,,,
,,,,,,5fc781689771f106330abf6a,62c53897aa2bc9b5bcef82dc,2022-07-06_09h24.20.758,Colour_Asymmetry_Pilot,2022.1.3,Win32,60.59137179,62c50e9c1127f2cd403a315f,0,42,42,102,1,fourtwo,,,,,,,,,,,,,,,,,,,,,,,,,,,,,,,,,,,,,,,,,,,,,,,,,,,,,,,,,,,,,,,,,,,,,,,,,,,,,,,,,,,,,,,,,,,,,,,,,,,,,,,,,,,,,,,,,,,,,,,,,,,,,,,,,,,,,,,,,,,,,,,,,,,,,,,,,,,,,
,,,,,,5fc781689771f106330abf6a,62c53897aa2bc9b5bcef82dc,2022-07-06_09h24.20.758,Colour_Asymmetry_Pilot,2022.1.3,Win32,60.59137179,62c50e9c1127f2cd403a315f,0,43,43,25,1,onethree,,,,,,,,,,,,,,,,,,,,,,,,,,,,,,,,,,,,,,,,,,,,,,,,,,,,,,,,,,,,,,,,,,,,,,,,,,,,,,,,,,,,,,,,,,,,,,,,,,,,,,,,,,,,,,,,,,,,,,,,,,,,,,,,,,,,,,,,,,,,,,,,,,,,,,,,,,,,,
,,,,,,5fc781689771f106330abf6a,62c53897aa2bc9b5bcef82dc,2022-07-06_09h24.20.758,Colour_Asymmetry_Pilot,2022.1.3,Win32,60.59137179,62c50e9c1127f2cd403a315f,0,44,44,89,1,onethree,,,,,,,,,,,,,,,,,,,,,,,,,,,,,,,,,,,,,,,,,,,,,,,,,,,,,,,,,,,,,,,,,,,,,,,,,,,,,,,,,,,,,,,,,,,,,,,,,,,,,,,,,,,,,,,,,,,,,,,,,,,,,,,,,,,,,,,,,,,,,,,,,,,,,,,,,,,,,
,,,,,,5fc781689771f106330abf6a,62c53897aa2bc9b5bcef82dc,2022-07-06_09h24.20.758,Colour_Asymmetry_Pilot,2022.1.3,Win32,60.59137179,62c50e9c1127f2cd403a315f,0,45,45,148,1,threeone,,,,,,,,,,,,,,,,,,,,,,,,,,,,,,,,,,,,,,,,,,,,,,,,,,,,,,,,,,,,,,,,,,,,,,,,,,,,,,,,,,,,,,,,,,,,,,,,,,,,,,,,,,,,,,,,,,,,,,,,,,,,,,,,,,,,,,,,,,,,,,,,,,,,,,,,,,,,,
,,,,,,5fc781689771f106330abf6a,62c53897aa2bc9b5bcef82dc,2022-07-06_09h24.20.758,Colour_Asymmetry_Pilot,2022.1.3,Win32,60.59137179,62c50e9c1127f2cd403a315f,0,46,46,40,1,onetwo,,,,,,,,,,,,,,,,,,,,,,,,,,,,,,,,,,,,,,,,,,,,,,,,,,,,,,,,,,,,,,,,,,,,,,,,,,,,,,,,,,,,,,,,,,,,,,,,,,,,,,,,,,,,,,,,,,,,,,,,,,,,,,,,,,,,,,,,,,,,,,,,,,,,,,,,,,,,,
,,,,,,5fc781689771f106330abf6a,62c53897aa2bc9b5bcef82dc,2022-07-06_09h24.20.758,Colour_Asymmetry_Pilot,2022.1.3,Win32,60.59137179,62c50e9c1127f2cd403a315f,0,47,47,72,1,onetwo,,,,,,,,,,,,,,,,,,,,,,,,,,,,,,,,,,,,,,,,,,,,,,,,,,,,,,,,,,,,,,,,,,,,,,,,,,,,,,,,,,,,,,,,,,,,,,,,,,,,,,,,,,,,,,,,,,,,,,,,,,,,,,,,,,,,,,,,,,,,,,,,,,,,,,,,,,,,,
,,,,,,5fc781689771f106330abf6a,62c53897aa2bc9b5bcef82dc,2022-07-06_09h24.20.758,Colour_Asymmetry_Pilot,2022.1.3,Win32,60.59137179,62c50e9c1127f2cd403a315f,0,48,48,131,1,twofour,,,,,,,,,,,,,,,,,,,,,,,,,,,,,,,,,,,,,,,,,,,,,,,,,,,,,,,,,,,,,,,,,,,,,,,,,,,,,,,,,,,,,,,,,,,,,,,,,,,,,,,,,,,,,,,,,,,,,,,,,,,,,,,,,,,,,,,,,,,,,,,,,,,,,,,,,,,,,
,,,,,,5fc781689771f106330abf6a,62c53897aa2bc9b5bcef82dc,2022-07-06_09h24.20.758,Colour_Asymmetry_Pilot,2022.1.3,Win32,60.59137179,62c50e9c1127f2cd403a315f,0,49,49,27,1,twofour,,,,,,,,,,,,,,,,,,,,,,,,,,,,,,,,,,,,,,,,,,,,,,,,,,,,,,,,,,,,,,,,,,,,,,,,,,,,,,,,,,,,,,,,,,,,,,,,,,,,,,,,,,,,,,,,,,,,,,,,,,,,,,,,,,,,,,,,,,,,,,,,,,,,,,,,,,,,,
,,,,,,5fc781689771f106330abf6a,62c53897aa2bc9b5bcef82dc,2022-07-06_09h24.20.758,Colour_Asymmetry_Pilot,2022.1.3,Win32,60.59137179,62c50e9c1127f2cd403a315f,0,50,50,97,1,onethree,,,,,,,,,,,,,,,,,,,,,,,,,,,,,,,,,,,,,,,,,,,,,,,,,,,,,,,,,,,,,,,,,,,,,,,,,,,,,,,,,,,,,,,,,,,,,,,,,,,,,,,,,,,,,,,,,,,,,,,,,,,,,,,,,,,,,,,,,,,,,,,,,,,,,,,,,,,,,
,,,,,,5fc781689771f106330abf6a,62c53897aa2bc9b5bcef82dc,2022-07-06_09h24.20.758,Colour_Asymmetry_Pilot,2022.1.3,Win32,60.59137179,62c50e9c1127f2cd403a315f,0,51,51,91,1,twofour,,,,,,,,,,,,,,,,,,,,,,,,,,,,,,,,,,,,,,,,,,,,,,,,,,,,,,,,,,,,,,,,,,,,,,,,,,,,,,,,,,,,,,,,,,,,,,,,,,,,,,,,,,,,,,,,,,,,,,,,,,,,,,,,,,,,,,,,,,,,,,,,,,,,,,,,,,,,,
,,,,,,5fc781689771f106330abf6a,62c53897aa2bc9b5bcef82dc,2022-07-06_09h24.20.758,Colour_Asymmetry_Pilot,2022.1.3,Win32,60.59137179,62c50e9c1127f2cd403a315f,0,52,52,1,1,onethree,,,,,,,,,,,,,,,,,,,,,,,,,,,,,,,,,,,,,,,,,,,,,,,,,,,,,,,,,,,,,,,,,,,,,,,,,,,,,,,,,,,,,,,,,,,,,,,,,,,,,,,,,,,,,,,,,,,,,,,,,,,,,,,,,,,,,,,,,,,,,,,,,,,,,,,,,,,,,
,,,,,,5fc781689771f106330abf6a,62c53897aa2bc9b5bcef82dc,2022-07-06_09h24.20.758,Colour_Asymmetry_Pilot,2022.1.3,Win32,60.59137179,62c50e9c1127f2cd403a315f,0,53,53,76,1,threeone,,,,,,,,,,,,,,,,,,,,,,,,,,,,,,,,,,,,,,,,,,,,,,,,,,,,,,,,,,,,,,,,,,,,,,,,,,,,,,,,,,,,,,,,,,,,,,,,,,,,,,,,,,,,,,,,,,,,,,,,,,,,,,,,,,,,,,,,,,,,,,,,,,,,,,,,,,,,,
,,,,,,5fc781689771f106330abf6a,62c53897aa2bc9b5bcef82dc,2022-07-06_09h24.20.758,Colour_Asymmetry_Pilot,2022.1.3,Win32,60.59137179,62c50e9c1127f2cd403a315f,0,54,54,99,1,twofour,,,,,,,,,,,,,,,,,,,,,,,,,,,,,,,,,,,,,,,,,,,,,,,,,,,,,,,,,,,,,,,,,,,,,,,,,,,,,,,,,,,,,,,,,,,,,,,,,,,,,,,,,,,,,,,,,,,,,,,,,,,,,,,,,,,,,,,,,,,,,,,,,,,,,,,,,,,,,
,,,,,,5fc781689771f106330abf6a,62c53897aa2bc9b5bcef82dc,2022-07-06_09h24.20.758,Colour_Asymmetry_Pilot,2022.1.3,Win32,60.59137179,62c50e9c1127f2cd403a315f,0,55,55,120,1,onetwo,,,,,,,,,,,,,,,,,,,,,,,,,,,,,,,,,,,,,,,,,,,,,,,,,,,,,,,,,,,,,,,,,,,,,,,,,,,,,,,,,,,,,,,,,,,,,,,,,,,,,,,,,,,,,,,,,,,,,,,,,,,,,,,,,,,,,,,,,,,,,,,,,,,,,,,,,,,,,
,,,,,,5fc781689771f106330abf6a,62c53897aa2bc9b5bcef82dc,2022-07-06_09h24.20.758,Colour_Asymmetry_Pilot,2022.1.3,Win32,60.59137179,62c50e9c1127f2cd403a315f,0,56,56,88,1,onetwo,,,,,,,,,,,,,,,,,,,,,,,,,,,,,,,,,,,,,,,,,,,,,,,,,,,,,,,,,,,,,,,,,,,,,,,,,,,,,,,,,,,,,,,,,,,,,,,,,,,,,,,,,,,,,,,,,,,,,,,,,,,,,,,,,,,,,,,,,,,,,,,,,,,,,,,,,,,,,
,,,,,,5fc781689771f106330abf6a,62c53897aa2bc9b5bcef82dc,2022-07-06_09h24.20.758,Colour_Asymmetry_Pilot,2022.1.3,Win32,60.59137179,62c50e9c1127f2cd403a315f,0,57,57,32,1,onetwo,,,,,,,,,,,,,,,,,,,,,,,,,,,,,,,,,,,,,,,,,,,,,,,,,,,,,,,,,,,,,,,,,,,,,,,,,,,,,,,,,,,,,,,,,,,,,,,,,,,,,,,,,,,,,,,,,,,,,,,,,,,,,,,,,,,,,,,,,,,,,,,,,,,,,,,,,,,,,
,,,,,,5fc781689771f106330abf6a,62c53897aa2bc9b5bcef82dc,2022-07-06_09h24.20.758,Colour_Asymmetry_Pilot,2022.1.3,Win32,60.59137179,62c50e9c1127f2cd403a315f,0,58,58,160,1,onetwo,,,,,,,,,,,,,,,,,,,,,,,,,,,,,,,,,,,,,,,,,,,,,,,,,,,,,,,,,,,,,,,,,,,,,,,,,,,,,,,,,,,,,,,,,,,,,,,,,,,,,,,,,,,,,,,,,,,,,,,,,,,,,,,,,,,,,,,,,,,,,,,,,,,,,,,,,,,,,
,,,,,,5fc781689771f106330abf6a,62c53897aa2bc9b5bcef82dc,2022-07-06_09h24.20.758,Colour_Asymmetry_Pilot,2022.1.3,Win32,60.59137179,62c50e9c1127f2cd403a315f,0,59,59,121,1,onethree,,,,,,,,,,,,,,,,,,,,,,,,,,,,,,,,,,,,,,,,,,,,,,,,,,,,,,,,,,,,,,,,,,,,,,,,,,,,,,,,,,,,,,,,,,,,,,,,,,,,,,,,,,,,,,,,,,,,,,,,,,,,,,,,,,,,,,,,,,,,,,,,,,,,,,,,,,,,,
,,,,,,5fc781689771f106330abf6a,62c53897aa2bc9b5bcef82dc,2022-07-06_09h24.20.758,Colour_Asymmetry_Pilot,2022.1.3,Win32,60.59137179,62c50e9c1127f2cd403a315f,0,60,60,59,1,twofour,,,,,,,,,,,,,,,,,,,,,,,,,,,,,,,,,,,,,,,,,,,,,,,,,,,,,,,,,,,,,,,,,,,,,,,,,,,,,,,,,,,,,,,,,,,,,,,,,,,,,,,,,,,,,,,,,,,,,,,,,,,,,,,,,,,,,,,,,,,,,,,,,,,,,,,,,,,,,
,,,,,,5fc781689771f106330abf6a,62c53897aa2bc9b5bcef82dc,2022-07-06_09h24.20.758,Colour_Asymmetry_Pilot,2022.1.3,Win32,60.59137179,62c50e9c1127f2cd403a315f,0,61,61,12,1,threeone,,,,,,,,,,,,,,,,,,,,,,,,,,,,,,,,,,,,,,,,,,,,,,,,,,,,,,,,,,,,,,,,,,,,,,,,,,,,,,,,,,,,,,,,,,,,,,,,,,,,,,,,,,,,,,,,,,,,,,,,,,,,,,,,,,,,,,,,,,,,,,,,,,,,,,,,,,,,,
,,,,,,5fc781689771f106330abf6a,62c53897aa2bc9b5bcef82dc,2022-07-06_09h24.20.758,Colour_Asymmetry_Pilot,2022.1.3,Win32,60.59137179,62c50e9c1127f2cd403a315f,0,62,62,34,1,twoone,,,,,,,,,,,,,,,,,,,,,,,,,,,,,,,,,,,,,,,,,,,,,,,,,,,,,,,,,,,,,,,,,,,,,,,,,,,,,,,,,,,,,,,,,,,,,,,,,,,,,,,,,,,,,,,,,,,,,,,,,,,,,,,,,,,,,,,,,,,,,,,,,,,,,,,,,,,,,
,,,,,,5fc781689771f106330abf6a,62c53897aa2bc9b5bcef82dc,2022-07-06_09h24.20.758,Colour_Asymmetry_Pilot,2022.1.3,Win32,60.59137179,62c50e9c1127f2cd403a315f,0,63,63,74,1,twoone,,,,,,,,,,,,,,,,,,,,,,,,,,,,,,,,,,,,,,,,,,,,,,,,,,,,,,,,,,,,,,,,,,,,,,,,,,,,,,,,,,,,,,,,,,,,,,,,,,,,,,,,,,,,,,,,,,,,,,,,,,,,,,,,,,,,,,,,,,,,,,,,,,,,,,,,,,,,,
,,,,,,5fc781689771f106330abf6a,62c53897aa2bc9b5bcef82dc,2022-07-06_09h24.20.758,Colour_Asymmetry_Pilot,2022.1.3,Win32,60.59137179,62c50e9c1127f2cd403a315f,0,64,64,30,1,fourtwo,,,,,,,,,,,,,,,,,,,,,,,,,,,,,,,,,,,,,,,,,,,,,,,,,,,,,,,,,,,,,,,,,,,,,,,,,,,,,,,,,,,,,,,,,,,,,,,,,,,,,,,,,,,,,,,,,,,,,,,,,,,,,,,,,,,,,,,,,,,,,,,,,,,,,,,,,,,,,
,,,,,,5fc781689771f106330abf6a,62c53897aa2bc9b5bcef82dc,2022-07-06_09h24.20.758,Colour_Asymmetry_Pilot,2022.1.3,Win32,60.59137179,62c50e9c1127f2cd403a315f,0,65,65,138,1,twoone,,,,,,,,,,,,,,,,,,,,,,,,,,,,,,,,,,,,,,,,,,,,,,,,,,,,,,,,,,,,,,,,,,,,,,,,,,,,,,,,,,,,,,,,,,,,,,,,,,,,,,,,,,,,,,,,,,,,,,,,,,,,,,,,,,,,,,,,,,,,,,,,,,,,,,,,,,,,,
,,,,,,5fc781689771f106330abf6a,62c53897aa2bc9b5bcef82dc,2022-07-06_09h24.20.758,Colour_Asymmetry_Pilot,2022.1.3,Win32,60.59137179,62c50e9c1127f2cd403a315f,0,66,66,66,1,twoone,,,,,,,,,,,,,,,,,,,,,,,,,,,,,,,,,,,,,,,,,,,,,,,,,,,,,,,,,,,,,,,,,,,,,,,,,,,,,,,,,,,,,,,,,,,,,,,,,,,,,,,,,,,,,,,,,,,,,,,,,,,,,,,,,,,,,,,,,,,,,,,,,,,,,,,,,,,,,
,,,,,,5fc781689771f106330abf6a,62c53897aa2bc9b5bcef82dc,2022-07-06_09h24.20.758,Colour_Asymmetry_Pilot,2022.1.3,Win32,60.59137179,62c50e9c1127f2cd403a315f,0,67,67,94,1,fourtwo,,,,,,,,,,,,,,,,,,,,,,,,,,,,,,,,,,,,,,,,,,,,,,,,,,,,,,,,,,,,,,,,,,,,,,,,,,,,,,,,,,,,,,,,,,,,,,,,,,,,,,,,,,,,,,,,,,,,,,,,,,,,,,,,,,,,,,,,,,,,,,,,,,,,,,,,,,,,,
,,,,,,5fc781689771f106330abf6a,62c53897aa2bc9b5bcef82dc,2022-07-06_09h24.20.758,Colour_Asymmetry_Pilot,2022.1.3,Win32,60.59137179,62c50e9c1127f2cd403a315f,0,68,68,13,1,threefour,,,,,,,,,,,,,,,,,,,,,,,,,,,,,,,,,,,,,,,,,,,,,,,,,,,,,,,,,,,,,,,,,,,,,,,,,,,,,,,,,,,,,,,,,,,,,,,,,,,,,,,,,,,,,,,,,,,,,,,,,,,,,,,,,,,,,,,,,,,,,,,,,,,,,,,,,,,,,
,,,,,,5fc781689771f106330abf6a,62c53897aa2bc9b5bcef82dc,2022-07-06_09h24.20.758,Colour_Asymmetry_Pilot,2022.1.3,Win32,60.59137179,62c50e9c1127f2cd403a315f,0,69,69,123,1,twofour,,,,,,,,,,,,,,,,,,,,,,,,,,,,,,,,,,,,,,,,,,,,,,,,,,,,,,,,,,,,,,,,,,,,,,,,,,,,,,,,,,,,,,,,,,,,,,,,,,,,,,,,,,,,,,,,,,,,,,,,,,,,,,,,,,,,,,,,,,,,,,,,,,,,,,,,,,,,,
,,,,,,5fc781689771f106330abf6a,62c53897aa2bc9b5bcef82dc,2022-07-06_09h24.20.758,Colour_Asymmetry_Pilot,2022.1.3,Win32,60.59137179,62c50e9c1127f2cd403a315f,0,70,70,67,1,twofour,,,,,,,,,,,,,,,,,,,,,,,,,,,,,,,,,,,,,,,,,,,,,,,,,,,,,,,,,,,,,,,,,,,,,,,,,,,,,,,,,,,,,,,,,,,,,,,,,,,,,,,,,,,,,,,,,,,,,,,,,,,,,,,,,,,,,,,,,,,,,,,,,,,,,,,,,,,,,
,,,,,,5fc781689771f106330abf6a,62c53897aa2bc9b5bcef82dc,2022-07-06_09h24.20.758,Colour_Asymmetry_Pilot,2022.1.3,Win32,60.59137179,62c50e9c1127f2cd403a315f,0,71,71,81,1,onethree,,,,,,,,,,,,,,,,,,,,,,,,,,,,,,,,,,,,,,,,,,,,,,,,,,,,,,,,,,,,,,,,,,,,,,,,,,,,,,,,,,,,,,,,,,,,,,,,,,,,,,,,,,,,,,,,,,,,,,,,,,,,,,,,,,,,,,,,,,,,,,,,,,,,,,,,,,,,,
,,,,,,5fc781689771f106330abf6a,62c53897aa2bc9b5bcef82dc,2022-07-06_09h24.20.758,Colour_Asymmetry_Pilot,2022.1.3,Win32,60.59137179,62c50e9c1127f2cd403a315f,0,72,72,150,1,fourtwo,,,,,,,,,,,,,,,,,,,,,,,,,,,,,,,,,,,,,,,,,,,,,,,,,,,,,,,,,,,,,,,,,,,,,,,,,,,,,,,,,,,,,,,,,,,,,,,,,,,,,,,,,,,,,,,,,,,,,,,,,,,,,,,,,,,,,,,,,,,,,,,,,,,,,,,,,,,,,
,,,,,,5fc781689771f106330abf6a,62c53897aa2bc9b5bcef82dc,2022-07-06_09h24.20.758,Colour_Asymmetry_Pilot,2022.1.3,Win32,60.59137179,62c50e9c1127f2cd403a315f,0,73,73,135,1,fourthree,,,,,,,,,,,,,,,,,,,,,,,,,,,,,,,,,,,,,,,,,,,,,,,,,,,,,,,,,,,,,,,,,,,,,,,,,,,,,,,,,,,,,,,,,,,,,,,,,,,,,,,,,,,,,,,,,,,,,,,,,,,,,,,,,,,,,,,,,,,,,,,,,,,,,,,,,,,,,
,,,,,,5fc781689771f106330abf6a,62c53897aa2bc9b5bcef82dc,2022-07-06_09h24.20.758,Colour_Asymmetry_Pilot,2022.1.3,Win32,60.59137179,62c50e9c1127f2cd403a315f,0,74,74,22,1,fourtwo,,,,,,,,,,,,,,,,,,,,,,,,,,,,,,,,,,,,,,,,,,,,,,,,,,,,,,,,,,,,,,,,,,,,,,,,,,,,,,,,,,,,,,,,,,,,,,,,,,,,,,,,,,,,,,,,,,,,,,,,,,,,,,,,,,,,,,,,,,,,,,,,,,,,,,,,,,,,,
,,,,,,5fc781689771f106330abf6a,62c53897aa2bc9b5bcef82dc,2022-07-06_09h24.20.758,Colour_Asymmetry_Pilot,2022.1.3,Win32,60.59137179,62c50e9c1127f2cd403a315f,0,75,75,108,1,threeone,,,,,,,,,,,,,,,,,,,,,,,,,,,,,,,,,,,,,,,,,,,,,,,,,,,,,,,,,,,,,,,,,,,,,,,,,,,,,,,,,,,,,,,,,,,,,,,,,,,,,,,,,,,,,,,,,,,,,,,,,,,,,,,,,,,,,,,,,,,,,,,,,,,,,,,,,,,,,
,,,,,,5fc781689771f106330abf6a,62c53897aa2bc9b5bcef82dc,2022-07-06_09h24.20.758,Colour_Asymmetry_Pilot,2022.1.3,Win32,60.59137179,62c50e9c1127f2cd403a315f,0,76,76,6,1,fourtwo,,,,,,,,,,,,,,,,,,,,,,,,,,,,,,,,,,,,,,,,,,,,,,,,,,,,,,,,,,,,,,,,,,,,,,,,,,,,,,,,,,,,,,,,,,,,,,,,,,,,,,,,,,,,,,,,,,,,,,,,,,,,,,,,,,,,,,,,,,,,,,,,,,,,,,,,,,,,,
,,,,,,5fc781689771f106330abf6a,62c53897aa2bc9b5bcef82dc,2022-07-06_09h24.20.758,Colour_Asymmetry_Pilot,2022.1.3,Win32,60.59137179,62c50e9c1127f2cd403a315f,0,77,77,10,1,twoone,,,,,,,,,,,,,,,,,,,,,,,,,,,,,,,,,,,,,,,,,,,,,,,,,,,,,,,,,,,,,,,,,,,,,,,,,,,,,,,,,,,,,,,,,,,,,,,,,,,,,,,,,,,,,,,,,,,,,,,,,,,,,,,,,,,,,,,,,,,,,,,,,,,,,,,,,,,,,
,,,,,,5fc781689771f106330abf6a,62c53897aa2bc9b5bcef82dc,2022-07-06_09h24.20.758,Colour_Asymmetry_Pilot,2022.1.3,Win32,60.59137179,62c50e9c1127f2cd403a315f,0,78,78,155,1,twofour,,,,,,,,,,,,,,,,,,,,,,,,,,,,,,,,,,,,,,,,,,,,,,,,,,,,,,,,,,,,,,,,,,,,,,,,,,,,,,,,,,,,,,,,,,,,,,,,,,,,,,,,,,,,,,,,,,,,,,,,,,,,,,,,,,,,,,,,,,,,,,,,,,,,,,,,,,,,,
,,,,,,5fc781689771f106330abf6a,62c53897aa2bc9b5bcef82dc,2022-07-06_09h24.20.758,Colour_Asymmetry_Pilot,2022.1.3,Win32,60.59137179,62c50e9c1127f2cd403a315f,0,79,79,11,1,twofour,,,,,,,,,,,,,,,,,,,,,,,,,,,,,,,,,,,,,,,,,,,,,,,,,,,,,,,,,,,,,,,,,,,,,,,,,,,,,,,,,,,,,,,,,,,,,,,,,,,,,,,,,,,,,,,,,,,,,,,,,,,,,,,,,,,,,,,,,,,,,,,,,,,,,,,,,,,,,
,,,,,,5fc781689771f106330abf6a,62c53897aa2bc9b5bcef82dc,2022-07-06_09h24.20.758,Colour_Asymmetry_Pilot,2022.1.3,Win32,60.59137179,62c50e9c1127f2cd403a315f,0,80,80,28,1,threeone,,,,,,,,,,,,,,,,,,,,,,,,,,,,,,,,,,,,,,,,,,,,,,,,,,,,,,,,,,,,,,,,,,,,,,,,,,,,,,,,,,,,,,,,,,,,,,,,,,,,,,,,,,,,,,,,,,,,,,,,,,,,,,,,,,,,,,,,,,,,,,,,,,,,,,,,,,,,,
,,,,,,5fc781689771f106330abf6a,62c53897aa2bc9b5bcef82dc,2022-07-06_09h24.20.758,Colour_Asymmetry_Pilot,2022.1.3,Win32,60.59137179,62c50e9c1127f2cd403a315f,0,81,81,18,1,twoone,,,,,,,,,,,,,,,,,,,,,,,,,,,,,,,,,,,,,,,,,,,,,,,,,,,,,,,,,,,,,,,,,,,,,,,,,,,,,,,,,,,,,,,,,,,,,,,,,,,,,,,,,,,,,,,,,,,,,,,,,,,,,,,,,,,,,,,,,,,,,,,,,,,,,,,,,,,,,
,,,,,,5fc781689771f106330abf6a,62c53897aa2bc9b5bcef82dc,2022-07-06_09h24.20.758,Colour_Asymmetry_Pilot,2022.1.3,Win32,60.59137179,62c50e9c1127f2cd403a315f,0,82,82,79,1,fourthree,,,,,,,,,,,,,,,,,,,,,,,,,,,,,,,,,,,,,,,,,,,,,,,,,,,,,,,,,,,,,,,,,,,,,,,,,,,,,,,,,,,,,,,,,,,,,,,,,,,,,,,,,,,,,,,,,,,,,,,,,,,,,,,,,,,,,,,,,,,,,,,,,,,,,,,,,,,,,
,,,,,,5fc781689771f106330abf6a,62c53897aa2bc9b5bcef82dc,2022-07-06_09h24.20.758,Colour_Asymmetry_Pilot,2022.1.3,Win32,60.59137179,62c50e9c1127f2cd403a315f,0,83,83,96,1,onetwo,,,,,,,,,,,,,,,,,,,,,,,,,,,,,,,,,,,,,,,,,,,,,,,,,,,,,,,,,,,,,,,,,,,,,,,,,,,,,,,,,,,,,,,,,,,,,,,,,,,,,,,,,,,,,,,,,,,,,,,,,,,,,,,,,,,,,,,,,,,,,,,,,,,,,,,,,,,,,
,,,,,,5fc781689771f106330abf6a,62c53897aa2bc9b5bcef82dc,2022-07-06_09h24.20.758,Colour_Asymmetry_Pilot,2022.1.3,Win32,60.59137179,62c50e9c1127f2cd403a315f,0,84,84,151,1,fourthree,,,,,,,,,,,,,,,,,,,,,,,,,,,,,,,,,,,,,,,,,,,,,,,,,,,,,,,,,,,,,,,,,,,,,,,,,,,,,,,,,,,,,,,,,,,,,,,,,,,,,,,,,,,,,,,,,,,,,,,,,,,,,,,,,,,,,,,,,,,,,,,,,,,,,,,,,,,,,
,,,,,,5fc781689771f106330abf6a,62c53897aa2bc9b5bcef82dc,2022-07-06_09h24.20.758,Colour_Asymmetry_Pilot,2022.1.3,Win32,60.59137179,62c50e9c1127f2cd403a315f,0,85,85,156,1,threeone,,,,,,,,,,,,,,,,,,,,,,,,,,,,,,,,,,,,,,,,,,,,,,,,,,,,,,,,,,,,,,,,,,,,,,,,,,,,,,,,,,,,,,,,,,,,,,,,,,,,,,,,,,,,,,,,,,,,,,,,,,,,,,,,,,,,,,,,,,,,,,,,,,,,,,,,,,,,,
,,,,,,5fc781689771f106330abf6a,62c53897aa2bc9b5bcef82dc,2022-07-06_09h24.20.758,Colour_Asymmetry_Pilot,2022.1.3,Win32,60.59137179,62c50e9c1127f2cd403a315f,0,86,86,86,1,fourtwo,,,,,,,,,,,,,,,,,,,,,,,,,,,,,,,,,,,,,,,,,,,,,,,,,,,,,,,,,,,,,,,,,,,,,,,,,,,,,,,,,,,,,,,,,,,,,,,,,,,,,,,,,,,,,,,,,,,,,,,,,,,,,,,,,,,,,,,,,,,,,,,,,,,,,,,,,,,,,
,,,,,,5fc781689771f106330abf6a,62c53897aa2bc9b5bcef82dc,2022-07-06_09h24.20.758,Colour_Asymmetry_Pilot,2022.1.3,Win32,60.59137179,62c50e9c1127f2cd403a315f,0,87,87,62,1,fourtwo,,,,,,,,,,,,,,,,,,,,,,,,,,,,,,,,,,,,,,,,,,,,,,,,,,,,,,,,,,,,,,,,,,,,,,,,,,,,,,,,,,,,,,,,,,,,,,,,,,,,,,,,,,,,,,,,,,,,,,,,,,,,,,,,,,,,,,,,,,,,,,,,,,,,,,,,,,,,,
,,,,,,5fc781689771f106330abf6a,62c53897aa2bc9b5bcef82dc,2022-07-06_09h24.20.758,Colour_Asymmetry_Pilot,2022.1.3,Win32,60.59137179,62c50e9c1127f2cd403a315f,0,88,88,159,1,fourthree,,,,,,,,,,,,,,,,,,,,,,,,,,,,,,,,,,,,,,,,,,,,,,,,,,,,,,,,,,,,,,,,,,,,,,,,,,,,,,,,,,,,,,,,,,,,,,,,,,,,,,,,,,,,,,,,,,,,,,,,,,,,,,,,,,,,,,,,,,,,,,,,,,,,,,,,,,,,,
,,,,,,5fc781689771f106330abf6a,62c53897aa2bc9b5bcef82dc,2022-07-06_09h24.20.758,Colour_Asymmetry_Pilot,2022.1.3,Win32,60.59137179,62c50e9c1127f2cd403a315f,0,89,89,161,1,onethree,,,,,,,,,,,,,,,,,,,,,,,,,,,,,,,,,,,,,,,,,,,,,,,,,,,,,,,,,,,,,,,,,,,,,,,,,,,,,,,,,,,,,,,,,,,,,,,,,,,,,,,,,,,,,,,,,,,,,,,,,,,,,,,,,,,,,,,,,,,,,,,,,,,,,,,,,,,,,
,,,,,,5fc781689771f106330abf6a,62c53897aa2bc9b5bcef82dc,2022-07-06_09h24.20.758,Colour_Asymmetry_Pilot,2022.1.3,Win32,60.59137179,62c50e9c1127f2cd403a315f,0,90,90,122,1,twoone,,,,,,,,,,,,,,,,,,,,,,,,,,,,,,,,,,,,,,,,,,,,,,,,,,,,,,,,,,,,,,,,,,,,,,,,,,,,,,,,,,,,,,,,,,,,,,,,,,,,,,,,,,,,,,,,,,,,,,,,,,,,,,,,,,,,,,,,,,,,,,,,,,,,,,,,,,,,,
,,,,,,5fc781689771f106330abf6a,62c53897aa2bc9b5bcef82dc,2022-07-06_09h24.20.758,Colour_Asymmetry_Pilot,2022.1.3,Win32,60.59137179,62c50e9c1127f2cd403a315f,0,91,91,158,1,fourtwo,,,,,,,,,,,,,,,,,,,,,,,,,,,,,,,,,,,,,,,,,,,,,,,,,,,,,,,,,,,,,,,,,,,,,,,,,,,,,,,,,,,,,,,,,,,,,,,,,,,,,,,,,,,,,,,,,,,,,,,,,,,,,,,,,,,,,,,,,,,,,,,,,,,,,,,,,,,,,
,,,,,,5fc781689771f106330abf6a,62c53897aa2bc9b5bcef82dc,2022-07-06_09h24.20.758,Colour_Asymmetry_Pilot,2022.1.3,Win32,60.59137179,62c50e9c1127f2cd403a315f,0,92,92,46,1,fourtwo,,,,,,,,,,,,,,,,,,,,,,,,,,,,,,,,,,,,,,,,,,,,,,,,,,,,,,,,,,,,,,,,,,,,,,,,,,,,,,,,,,,,,,,,,,,,,,,,,,,,,,,,,,,,,,,,,,,,,,,,,,,,,,,,,,,,,,,,,,,,,,,,,,,,,,,,,,,,,
,,,,,,5fc781689771f106330abf6a,62c53897aa2bc9b5bcef82dc,2022-07-06_09h24.20.758,Colour_Asymmetry_Pilot,2022.1.3,Win32,60.59137179,62c50e9c1127f2cd403a315f,0,93,93,7,1,fourthree,,,,,,,,,,,,,,,,,,,,,,,,,,,,,,,,,,,,,,,,,,,,,,,,,,,,,,,,,,,,,,,,,,,,,,,,,,,,,,,,,,,,,,,,,,,,,,,,,,,,,,,,,,,,,,,,,,,,,,,,,,,,,,,,,,,,,,,,,,,,,,,,,,,,,,,,,,,,,
,,,,,,5fc781689771f106330abf6a,62c53897aa2bc9b5bcef82dc,2022-07-06_09h24.20.758,Colour_Asymmetry_Pilot,2022.1.3,Win32,60.59137179,62c50e9c1127f2cd403a315f,0,94,94,2,1,twoone,,,,,,,,,,,,,,,,,,,,,,,,,,,,,,,,,,,,,,,,,,,,,,,,,,,,,,,,,,,,,,,,,,,,,,,,,,,,,,,,,,,,,,,,,,,,,,,,,,,,,,,,,,,,,,,,,,,,,,,,,,,,,,,,,,,,,,,,,,,,,,,,,,,,,,,,,,,,,
,,,,,,5fc781689771f106330abf6a,62c53897aa2bc9b5bcef82dc,2022-07-06_09h24.20.758,Colour_Asymmetry_Pilot,2022.1.3,Win32,60.59137179,62c50e9c1127f2cd403a315f,0,95,95,20,1,threeone,,,,,,,,,,,,,,,,,,,,,,,,,,,,,,,,,,,,,,,,,,,,,,,,,,,,,,,,,,,,,,,,,,,,,,,,,,,,,,,,,,,,,,,,,,,,,,,,,,,,,,,,,,,,,,,,,,,,,,,,,,,,,,,,,,,,,,,,,,,,,,,,,,,,,,,,,,,,,
,,,,,,5fc781689771f106330abf6a,62c53897aa2bc9b5bcef82dc,2022-07-06_09h24.20.758,Colour_Asymmetry_Pilot,2022.1.3,Win32,60.59137179,62c50e9c1127f2cd403a315f,0,96,96,3,1,twofour,,,,,,,,,,,,,,,,,,,,,,,,,,,,,,,,,,,,,,,,,,,,,,,,,,,,,,,,,,,,,,,,,,,,,,,,,,,,,,,,,,,,,,,,,,,,,,,,,,,,,,,,,,,,,,,,,,,,,,,,,,,,,,,,,,,,,,,,,,,,,,,,,,,,,,,,,,,,,
,,,,,,5fc781689771f106330abf6a,62c53897aa2bc9b5bcef82dc,2022-07-06_09h24.20.758,Colour_Asymmetry_Pilot,2022.1.3,Win32,60.59137179,62c50e9c1127f2cd403a315f,0,97,97,144,1,onetwo,,,,,,,,,,,,,,,,,,,,,,,,,,,,,,,,,,,,,,,,,,,,,,,,,,,,,,,,,,,,,,,,,,,,,,,,,,,,,,,,,,,,,,,,,,,,,,,,,,,,,,,,,,,,,,,,,,,,,,,,,,,,,,,,,,,,,,,,,,,,,,,,,,,,,,,,,,,,,
,,,,,,5fc781689771f106330abf6a,62c53897aa2bc9b5bcef82dc,2022-07-06_09h24.20.758,Colour_Asymmetry_Pilot,2022.1.3,Win32,60.59137179,62c50e9c1127f2cd403a315f,0,98,98,78,1,fourtwo,,,,,,,,,,,,,,,,,,,,,,,,,,,,,,,,,,,,,,,,,,,,,,,,,,,,,,,,,,,,,,,,,,,,,,,,,,,,,,,,,,,,,,,,,,,,,,,,,,,,,,,,,,,,,,,,,,,,,,,,,,,,,,,,,,,,,,,,,,,,,,,,,,,,,,,,,,,,,
,,,,,,5fc781689771f106330abf6a,62c53897aa2bc9b5bcef82dc,2022-07-06_09h24.20.758,Colour_Asymmetry_Pilot,2022.1.3,Win32,60.59137179,62c50e9c1127f2cd403a315f,0,99,99,126,1,fourtwo,,,,,,,,,,,,,,,,,,,,,,,,,,,,,,,,,,,,,,,,,,,,,,,,,,,,,,,,,,,,,,,,,,,,,,,,,,,,,,,,,,,,,,,,,,,,,,,,,,,,,,,,,,,,,,,,,,,,,,,,,,,,,,,,,,,,,,,,,,,,,,,,,,,,,,,,,,,,,
,,,,,,5fc781689771f106330abf6a,62c53897aa2bc9b5bcef82dc,2022-07-06_09h24.20.758,Colour_Asymmetry_Pilot,2022.1.3,Win32,60.59137179,62c50e9c1127f2cd403a315f,0,100,100,109,1,threefour,,,,,,,,,,,,,,,,,,,,,,,,,,,,,,,,,,,,,,,,,,,,,,,,,,,,,,,,,,,,,,,,,,,,,,,,,,,,,,,,,,,,,,,,,,,,,,,,,,,,,,,,,,,,,,,,,,,,,,,,,,,,,,,,,,,,,,,,,,,,,,,,,,,,,,,,,,,,,
,,,,,,5fc781689771f106330abf6a,62c53897aa2bc9b5bcef82dc,2022-07-06_09h24.20.758,Colour_Asymmetry_Pilot,2022.1.3,Win32,60.59137179,62c50e9c1127f2cd403a315f,0,101,101,17,1,onethree,,,,,,,,,,,,,,,,,,,,,,,,,,,,,,,,,,,,,,,,,,,,,,,,,,,,,,,,,,,,,,,,,,,,,,,,,,,,,,,,,,,,,,,,,,,,,,,,,,,,,,,,,,,,,,,,,,,,,,,,,,,,,,,,,,,,,,,,,,,,,,,,,,,,,,,,,,,,,
,,,,,,5fc781689771f106330abf6a,62c53897aa2bc9b5bcef82dc,2022-07-06_09h24.20.758,Colour_Asymmetry_Pilot,2022.1.3,Win32,60.59137179,62c50e9c1127f2cd403a315f,0,102,102,56,1,onetwo,,,,,,,,,,,,,,,,,,,,,,,,,,,,,,,,,,,,,,,,,,,,,,,,,,,,,,,,,,,,,,,,,,,,,,,,,,,,,,,,,,,,,,,,,,,,,,,,,,,,,,,,,,,,,,,,,,,,,,,,,,,,,,,,,,,,,,,,,,,,,,,,,,,,,,,,,,,,,
,,,,,,5fc781689771f106330abf6a,62c53897aa2bc9b5bcef82dc,2022-07-06_09h24.20.758,Colour_Asymmetry_Pilot,2022.1.3,Win32,60.59137179,62c50e9c1127f2cd403a315f,0,103,103,61,1,threefour,,,,,,,,,,,,,,,,,,,,,,,,,,,,,,,,,,,,,,,,,,,,,,,,,,,,,,,,,,,,,,,,,,,,,,,,,,,,,,,,,,,,,,,,,,,,,,,,,,,,,,,,,,,,,,,,,,,,,,,,,,,,,,,,,,,,,,,,,,,,,,,,,,,,,,,,,,,,,
,,,,,,5fc781689771f106330abf6a,62c53897aa2bc9b5bcef82dc,2022-07-06_09h24.20.758,Colour_Asymmetry_Pilot,2022.1.3,Win32,60.59137179,62c50e9c1127f2cd403a315f,0,104,104,68,1,threeone,,,,,,,,,,,,,,,,,,,,,,,,,,,,,,,,,,,,,,,,,,,,,,,,,,,,,,,,,,,,,,,,,,,,,,,,,,,,,,,,,,,,,,,,,,,,,,,,,,,,,,,,,,,,,,,,,,,,,,,,,,,,,,,,,,,,,,,,,,,,,,,,,,,,,,,,,,,,,
,,,,,,5fc781689771f106330abf6a,62c53897aa2bc9b5bcef82dc,2022-07-06_09h24.20.758,Colour_Asymmetry_Pilot,2022.1.3,Win32,60.59137179,62c50e9c1127f2cd403a315f,0,105,105,83,1,twofour,,,,,,,,,,,,,,,,,,,,,,,,,,,,,,,,,,,,,,,,,,,,,,,,,,,,,,,,,,,,,,,,,,,,,,,,,,,,,,,,,,,,,,,,,,,,,,,,,,,,,,,,,,,,,,,,,,,,,,,,,,,,,,,,,,,,,,,,,,,,,,,,,,,,,,,,,,,,,
,,,,,,5fc781689771f106330abf6a,62c53897aa2bc9b5bcef82dc,2022-07-06_09h24.20.758,Colour_Asymmetry_Pilot,2022.1.3,Win32,60.59137179,62c50e9c1127f2cd403a315f,0,106,106,69,1,threefour,,,,,,,,,,,,,,,,,,,,,,,,,,,,,,,,,,,,,,,,,,,,,,,,,,,,,,,,,,,,,,,,,,,,,,,,,,,,,,,,,,,,,,,,,,,,,,,,,,,,,,,,,,,,,,,,,,,,,,,,,,,,,,,,,,,,,,,,,,,,,,,,,,,,,,,,,,,,,
,,,,,,5fc781689771f106330abf6a,62c53897aa2bc9b5bcef82dc,2022-07-06_09h24.20.758,Colour_Asymmetry_Pilot,2022.1.3,Win32,60.59137179,62c50e9c1127f2cd403a315f,0,107,107,21,1,threefour,,,,,,,,,,,,,,,,,,,,,,,,,,,,,,,,,,,,,,,,,,,,,,,,,,,,,,,,,,,,,,,,,,,,,,,,,,,,,,,,,,,,,,,,,,,,,,,,,,,,,,,,,,,,,,,,,,,,,,,,,,,,,,,,,,,,,,,,,,,,,,,,,,,,,,,,,,,,,
,,,,,,5fc781689771f106330abf6a,62c53897aa2bc9b5bcef82dc,2022-07-06_09h24.20.758,Colour_Asymmetry_Pilot,2022.1.3,Win32,60.59137179,62c50e9c1127f2cd403a315f,0,108,108,38,1,fourtwo,,,,,,,,,,,,,,,,,,,,,,,,,,,,,,,,,,,,,,,,,,,,,,,,,,,,,,,,,,,,,,,,,,,,,,,,,,,,,,,,,,,,,,,,,,,,,,,,,,,,,,,,,,,,,,,,,,,,,,,,,,,,,,,,,,,,,,,,,,,,,,,,,,,,,,,,,,,,,
,,,,,,5fc781689771f106330abf6a,62c53897aa2bc9b5bcef82dc,2022-07-06_09h24.20.758,Colour_Asymmetry_Pilot,2022.1.3,Win32,60.59137179,62c50e9c1127f2cd403a315f,0,109,109,14,1,fourtwo,,,,,,,,,,,,,,,,,,,,,,,,,,,,,,,,,,,,,,,,,,,,,,,,,,,,,,,,,,,,,,,,,,,,,,,,,,,,,,,,,,,,,,,,,,,,,,,,,,,,,,,,,,,,,,,,,,,,,,,,,,,,,,,,,,,,,,,,,,,,,,,,,,,,,,,,,,,,,
,,,,,,5fc781689771f106330abf6a,62c53897aa2bc9b5bcef82dc,2022-07-06_09h24.20.758,Colour_Asymmetry_Pilot,2022.1.3,Win32,60.59137179,62c50e9c1127f2cd403a315f,0,110,110,36,1,threeone,,,,,,,,,,,,,,,,,,,,,,,,,,,,,,,,,,,,,,,,,,,,,,,,,,,,,,,,,,,,,,,,,,,,,,,,,,,,,,,,,,,,,,,,,,,,,,,,,,,,,,,,,,,,,,,,,,,,,,,,,,,,,,,,,,,,,,,,,,,,,,,,,,,,,,,,,,,,,
,,,,,,5fc781689771f106330abf6a,62c53897aa2bc9b5bcef82dc,2022-07-06_09h24.20.758,Colour_Asymmetry_Pilot,2022.1.3,Win32,60.59137179,62c50e9c1127f2cd403a315f,0,111,111,84,1,threeone,,,,,,,,,,,,,,,,,,,,,,,,,,,,,,,,,,,,,,,,,,,,,,,,,,,,,,,,,,,,,,,,,,,,,,,,,,,,,,,,,,,,,,,,,,,,,,,,,,,,,,,,,,,,,,,,,,,,,,,,,,,,,,,,,,,,,,,,,,,,,,,,,,,,,,,,,,,,,
,,,,,,5fc781689771f106330abf6a,62c53897aa2bc9b5bcef82dc,2022-07-06_09h24.20.758,Colour_Asymmetry_Pilot,2022.1.3,Win32,60.59137179,62c50e9c1127f2cd403a315f,0,112,112,45,1,threefour,,,,,,,,,,,,,,,,,,,,,,,,,,,,,,,,,,,,,,,,,,,,,,,,,,,,,,,,,,,,,,,,,,,,,,,,,,,,,,,,,,,,,,,,,,,,,,,,,,,,,,,,,,,,,,,,,,,,,,,,,,,,,,,,,,,,,,,,,,,,,,,,,,,,,,,,,,,,,
,,,,,,5fc781689771f106330abf6a,62c53897aa2bc9b5bcef82dc,2022-07-06_09h24.20.758,Colour_Asymmetry_Pilot,2022.1.3,Win32,60.59137179,62c50e9c1127f2cd403a315f,0,113,113,29,1,threefour,,,,,,,,,,,,,,,,,,,,,,,,,,,,,,,,,,,,,,,,,,,,,,,,,,,,,,,,,,,,,,,,,,,,,,,,,,,,,,,,,,,,,,,,,,,,,,,,,,,,,,,,,,,,,,,,,,,,,,,,,,,,,,,,,,,,,,,,,,,,,,,,,,,,,,,,,,,,,
,,,,,,5fc781689771f106330abf6a,62c53897aa2bc9b5bcef82dc,2022-07-06_09h24.20.758,Colour_Asymmetry_Pilot,2022.1.3,Win32,60.59137179,62c50e9c1127f2cd403a315f,0,114,114,50,1,twoone,,,,,,,,,,,,,,,,,,,,,,,,,,,,,,,,,,,,,,,,,,,,,,,,,,,,,,,,,,,,,,,,,,,,,,,,,,,,,,,,,,,,,,,,,,,,,,,,,,,,,,,,,,,,,,,,,,,,,,,,,,,,,,,,,,,,,,,,,,,,,,,,,,,,,,,,,,,,,
,,,,,,5fc781689771f106330abf6a,62c53897aa2bc9b5bcef82dc,2022-07-06_09h24.20.758,Colour_Asymmetry_Pilot,2022.1.3,Win32,60.59137179,62c50e9c1127f2cd403a315f,0,115,115,35,1,twofour,,,,,,,,,,,,,,,,,,,,,,,,,,,,,,,,,,,,,,,,,,,,,,,,,,,,,,,,,,,,,,,,,,,,,,,,,,,,,,,,,,,,,,,,,,,,,,,,,,,,,,,,,,,,,,,,,,,,,,,,,,,,,,,,,,,,,,,,,,,,,,,,,,,,,,,,,,,,,
,,,,,,5fc781689771f106330abf6a,62c53897aa2bc9b5bcef82dc,2022-07-06_09h24.20.758,Colour_Asymmetry_Pilot,2022.1.3,Win32,60.59137179,62c50e9c1127f2cd403a315f,0,116,116,51,1,twofour,,,,,,,,,,,,,,,,,,,,,,,,,,,,,,,,,,,,,,,,,,,,,,,,,,,,,,,,,,,,,,,,,,,,,,,,,,,,,,,,,,,,,,,,,,,,,,,,,,,,,,,,,,,,,,,,,,,,,,,,,,,,,,,,,,,,,,,,,,,,,,,,,,,,,,,,,,,,,
,,,,,,5fc781689771f106330abf6a,62c53897aa2bc9b5bcef82dc,2022-07-06_09h24.20.758,Colour_Asymmetry_Pilot,2022.1.3,Win32,60.59137179,62c50e9c1127f2cd403a315f,0,117,117,58,1,twoone,,,,,,,,,,,,,,,,,,,,,,,,,,,,,,,,,,,,,,,,,,,,,,,,,,,,,,,,,,,,,,,,,,,,,,,,,,,,,,,,,,,,,,,,,,,,,,,,,,,,,,,,,,,,,,,,,,,,,,,,,,,,,,,,,,,,,,,,,,,,,,,,,,,,,,,,,,,,,
,,,,,,5fc781689771f106330abf6a,62c53897aa2bc9b5bcef82dc,2022-07-06_09h24.20.758,Colour_Asymmetry_Pilot,2022.1.3,Win32,60.59137179,62c50e9c1127f2cd403a315f,0,118,118,110,1,fourtwo,,,,,,,,,,,,,,,,,,,,,,,,,,,,,,,,,,,,,,,,,,,,,,,,,,,,,,,,,,,,,,,,,,,,,,,,,,,,,,,,,,,,,,,,,,,,,,,,,,,,,,,,,,,,,,,,,,,,,,,,,,,,,,,,,,,,,,,,,,,,,,,,,,,,,,,,,,,,,
,,,,,,5fc781689771f106330abf6a,62c53897aa2bc9b5bcef82dc,2022-07-06_09h24.20.758,Colour_Asymmetry_Pilot,2022.1.3,Win32,60.59137179,62c50e9c1127f2cd403a315f,0,119,119,104,1,onetwo,,,,,,,,,,,,,,,,,,,,,,,,,,,,,,,,,,,,,,,,,,,,,,,,,,,,,,,,,,,,,,,,,,,,,,,,,,,,,,,,,,,,,,,,,,,,,,,,,,,,,,,,,,,,,,,,,,,,,,,,,,,,,,,,,,,,,,,,,,,,,,,,,,,,,,,,,,,,,
,,,,,,5fc781689771f106330abf6a,62c53897aa2bc9b5bcef82dc,2022-07-06_09h24.20.758,Colour_Asymmetry_Pilot,2022.1.3,Win32,60.59137179,62c50e9c1127f2cd403a315f,0,120,120,101,1,threefour,,,,,,,,,,,,,,,,,,,,,,,,,,,,,,,,,,,,,,,,,,,,,,,,,,,,,,,,,,,,,,,,,,,,,,,,,,,,,,,,,,,,,,,,,,,,,,,,,,,,,,,,,,,,,,,,,,,,,,,,,,,,,,,,,,,,,,,,,,,,,,,,,,,,,,,,,,,,,
,,,,,,5fc781689771f106330abf6a,62c53897aa2bc9b5bcef82dc,2022-07-06_09h24.20.758,Colour_Asymmetry_Pilot,2022.1.3,Win32,60.59137179,62c50e9c1127f2cd403a315f,0,121,121,125,1,threefour,,,,,,,,,,,,,,,,,,,,,,,,,,,,,,,,,,,,,,,,,,,,,,,,,,,,,,,,,,,,,,,,,,,,,,,,,,,,,,,,,,,,,,,,,,,,,,,,,,,,,,,,,,,,,,,,,,,,,,,,,,,,,,,,,,,,,,,,,,,,,,,,,,,,,,,,,,,,,
,,,,,,5fc781689771f106330abf6a,62c53897aa2bc9b5bcef82dc,2022-07-06_09h24.20.758,Colour_Asymmetry_Pilot,2022.1.3,Win32,60.59137179,62c50e9c1127f2cd403a315f,0,122,122,132,1,threeone,,,,,,,,,,,,,,,,,,,,,,,,,,,,,,,,,,,,,,,,,,,,,,,,,,,,,,,,,,,,,,,,,,,,,,,,,,,,,,,,,,,,,,,,,,,,,,,,,,,,,,,,,,,,,,,,,,,,,,,,,,,,,,,,,,,,,,,,,,,,,,,,,,,,,,,,,,,,,
,,,,,,5fc781689771f106330abf6a,62c53897aa2bc9b5bcef82dc,2022-07-06_09h24.20.758,Colour_Asymmetry_Pilot,2022.1.3,Win32,60.59137179,62c50e9c1127f2cd403a315f,0,123,123,106,1,twoone,,,,,,,,,,,,,,,,,,,,,,,,,,,,,,,,,,,,,,,,,,,,,,,,,,,,,,,,,,,,,,,,,,,,,,,,,,,,,,,,,,,,,,,,,,,,,,,,,,,,,,,,,,,,,,,,,,,,,,,,,,,,,,,,,,,,,,,,,,,,,,,,,,,,,,,,,,,,,
,,,,,,5fc781689771f106330abf6a,62c53897aa2bc9b5bcef82dc,2022-07-06_09h24.20.758,Colour_Asymmetry_Pilot,2022.1.3,Win32,60.59137179,62c50e9c1127f2cd403a315f,0,124,124,98,1,twoone,,,,,,,,,,,,,,,,,,,,,,,,,,,,,,,,,,,,,,,,,,,,,,,,,,,,,,,,,,,,,,,,,,,,,,,,,,,,,,,,,,,,,,,,,,,,,,,,,,,,,,,,,,,,,,,,,,,,,,,,,,,,,,,,,,,,,,,,,,,,,,,,,,,,,,,,,,,,,
,,,,,,5fc781689771f106330abf6a,62c53897aa2bc9b5bcef82dc,2022-07-06_09h24.20.758,Colour_Asymmetry_Pilot,2022.1.3,Win32,60.59137179,62c50e9c1127f2cd403a315f,0,125,125,93,1,threefour,,,,,,,,,,,,,,,,,,,,,,,,,,,,,,,,,,,,,,,,,,,,,,,,,,,,,,,,,,,,,,,,,,,,,,,,,,,,,,,,,,,,,,,,,,,,,,,,,,,,,,,,,,,,,,,,,,,,,,,,,,,,,,,,,,,,,,,,,,,,,,,,,,,,,,,,,,,,,
,,,,,,5fc781689771f106330abf6a,62c53897aa2bc9b5bcef82dc,2022-07-06_09h24.20.758,Colour_Asymmetry_Pilot,2022.1.3,Win32,60.59137179,62c50e9c1127f2cd403a315f,0,126,126,141,1,threefour,,,,,,,,,,,,,,,,,,,,,,,,,,,,,,,,,,,,,,,,,,,,,,,,,,,,,,,,,,,,,,,,,,,,,,,,,,,,,,,,,,,,,,,,,,,,,,,,,,,,,,,,,,,,,,,,,,,,,,,,,,,,,,,,,,,,,,,,,,,,,,,,,,,,,,,,,,,,,
,,,,,,5fc781689771f106330abf6a,62c53897aa2bc9b5bcef82dc,2022-07-06_09h24.20.758,Colour_Asymmetry_Pilot,2022.1.3,Win32,60.59137179,62c50e9c1127f2cd403a315f,0,127,127,80,1,onetwo,,,,,,,,,,,,,,,,,,,,,,,,,,,,,,,,,,,,,,,,,,,,,,,,,,,,,,,,,,,,,,,,,,,,,,,,,,,,,,,,,,,,,,,,,,,,,,,,,,,,,,,,,,,,,,,,,,,,,,,,,,,,,,,,,,,,,,,,,,,,,,,,,,,,,,,,,,,,,
,,,,,,5fc781689771f106330abf6a,62c53897aa2bc9b5bcef82dc,2022-07-06_09h24.20.758,Colour_Asymmetry_Pilot,2022.1.3,Win32,60.59137179,62c50e9c1127f2cd403a315f,0,128,128,63,1,fourthree,,,,,,,,,,,,,,,,,,,,,,,,,,,,,,,,,,,,,,,,,,,,,,,,,,,,,,,,,,,,,,,,,,,,,,,,,,,,,,,,,,,,,,,,,,,,,,,,,,,,,,,,,,,,,,,,,,,,,,,,,,,,,,,,,,,,,,,,,,,,,,,,,,,,,,,,,,,,,
,,,,,,5fc781689771f106330abf6a,62c53897aa2bc9b5bcef82dc,2022-07-06_09h24.20.758,Colour_Asymmetry_Pilot,2022.1.3,Win32,60.59137179,62c50e9c1127f2cd403a315f,0,129,129,19,1,twofour,,,,,,,,,,,,,,,,,,,,,,,,,,,,,,,,,,,,,,,,,,,,,,,,,,,,,,,,,,,,,,,,,,,,,,,,,,,,,,,,,,,,,,,,,,,,,,,,,,,,,,,,,,,,,,,,,,,,,,,,,,,,,,,,,,,,,,,,,,,,,,,,,,,,,,,,,,,,,
,,,,,,5fc781689771f106330abf6a,62c53897aa2bc9b5bcef82dc,2022-07-06_09h24.20.758,Colour_Asymmetry_Pilot,2022.1.3,Win32,60.59137179,62c50e9c1127f2cd403a315f,0,130,130,53,1,threefour,,,,,,,,,,,,,,,,,,,,,,,,,,,,,,,,,,,,,,,,,,,,,,,,,,,,,,,,,,,,,,,,,,,,,,,,,,,,,,,,,,,,,,,,,,,,,,,,,,,,,,,,,,,,,,,,,,,,,,,,,,,,,,,,,,,,,,,,,,,,,,,,,,,,,,,,,,,,,
,,,,,,5fc781689771f106330abf6a,62c53897aa2bc9b5bcef82dc,2022-07-06_09h24.20.758,Colour_Asymmetry_Pilot,2022.1.3,Win32,60.59137179,62c50e9c1127f2cd403a315f,0,131,131,65,1,onethree,,,,,,,,,,,,,,,,,,,,,,,,,,,,,,,,,,,,,,,,,,,,,,,,,,,,,,,,,,,,,,,,,,,,,,,,,,,,,,,,,,,,,,,,,,,,,,,,,,,,,,,,,,,,,,,,,,,,,,,,,,,,,,,,,,,,,,,,,,,,,,,,,,,,,,,,,,,,,
,,,,,,5fc781689771f106330abf6a,62c53897aa2bc9b5bcef82dc,2022-07-06_09h24.20.758,Colour_Asymmetry_Pilot,2022.1.3,Win32,60.59137179,62c50e9c1127f2cd403a315f,0,132,132,42,1,twoone,,,,,,,,,,,,,,,,,,,,,,,,,,,,,,,,,,,,,,,,,,,,,,,,,,,,,,,,,,,,,,,,,,,,,,,,,,,,,,,,,,,,,,,,,,,,,,,,,,,,,,,,,,,,,,,,,,,,,,,,,,,,,,,,,,,,,,,,,,,,,,,,,,,,,,,,,,,,,
,,,,,,5fc781689771f106330abf6a,62c53897aa2bc9b5bcef82dc,2022-07-06_09h24.20.758,Colour_Asymmetry_Pilot,2022.1.3,Win32,60.59137179,62c50e9c1127f2cd403a315f,0,133,133,105,1,onethree,,,,,,,,,,,,,,,,,,,,,,,,,,,,,,,,,,,,,,,,,,,,,,,,,,,,,,,,,,,,,,,,,,,,,,,,,,,,,,,,,,,,,,,,,,,,,,,,,,,,,,,,,,,,,,,,,,,,,,,,,,,,,,,,,,,,,,,,,,,,,,,,,,,,,,,,,,,,,
,,,,,,5fc781689771f106330abf6a,62c53897aa2bc9b5bcef82dc,2022-07-06_09h24.20.758,Colour_Asymmetry_Pilot,2022.1.3,Win32,60.59137179,62c50e9c1127f2cd403a315f,0,134,134,152,1,onetwo,,,,,,,,,,,,,,,,,,,,,,,,,,,,,,,,,,,,,,,,,,,,,,,,,,,,,,,,,,,,,,,,,,,,,,,,,,,,,,,,,,,,,,,,,,,,,,,,,,,,,,,,,,,,,,,,,,,,,,,,,,,,,,,,,,,,,,,,,,,,,,,,,,,,,,,,,,,,,
,,,,,,5fc781689771f106330abf6a,62c53897aa2bc9b5bcef82dc,2022-07-06_09h24.20.758,Colour_Asymmetry_Pilot,2022.1.3,Win32,60.59137179,62c50e9c1127f2cd403a315f,0,135,135,57,1,onethree,,,,,,,,,,,,,,,,,,,,,,,,,,,,,,,,,,,,,,,,,,,,,,,,,,,,,,,,,,,,,,,,,,,,,,,,,,,,,,,,,,,,,,,,,,,,,,,,,,,,,,,,,,,,,,,,,,,,,,,,,,,,,,,,,,,,,,,,,,,,,,,,,,,,,,,,,,,,,
,,,,,,5fc781689771f106330abf6a,62c53897aa2bc9b5bcef82dc,2022-07-06_09h24.20.758,Colour_Asymmetry_Pilot,2022.1.3,Win32,60.59137179,62c50e9c1127f2cd403a315f,0,136,136,124,1,threeone,,,,,,,,,,,,,,,,,,,,,,,,,,,,,,,,,,,,,,,,,,,,,,,,,,,,,,,,,,,,,,,,,,,,,,,,,,,,,,,,,,,,,,,,,,,,,,,,,,,,,,,,,,,,,,,,,,,,,,,,,,,,,,,,,,,,,,,,,,,,,,,,,,,,,,,,,,,,,
,,,,,,5fc781689771f106330abf6a,62c53897aa2bc9b5bcef82dc,2022-07-06_09h24.20.758,Colour_Asymmetry_Pilot,2022.1.3,Win32,60.59137179,62c50e9c1127f2cd403a315f,0,137,137,47,1,fourthree,,,,,,,,,,,,,,,,,,,,,,,,,,,,,,,,,,,,,,,,,,,,,,,,,,,,,,,,,,,,,,,,,,,,,,,,,,,,,,,,,,,,,,,,,,,,,,,,,,,,,,,,,,,,,,,,,,,,,,,,,,,,,,,,,,,,,,,,,,,,,,,,,,,,,,,,,,,,,
,,,,,,5fc781689771f106330abf6a,62c53897aa2bc9b5bcef82dc,2022-07-06_09h24.20.758,Colour_Asymmetry_Pilot,2022.1.3,Win32,60.59137179,62c50e9c1127f2cd403a315f,0,138,138,117,1,threefour,,,,,,,,,,,,,,,,,,,,,,,,,,,,,,,,,,,,,,,,,,,,,,,,,,,,,,,,,,,,,,,,,,,,,,,,,,,,,,,,,,,,,,,,,,,,,,,,,,,,,,,,,,,,,,,,,,,,,,,,,,,,,,,,,,,,,,,,,,,,,,,,,,,,,,,,,,,,,
,,,,,,5fc781689771f106330abf6a,62c53897aa2bc9b5bcef82dc,2022-07-06_09h24.20.758,Colour_Asymmetry_Pilot,2022.1.3,Win32,60.59137179,62c50e9c1127f2cd403a315f,0,139,139,115,1,twofour,,,,,,,,,,,,,,,,,,,,,,,,,,,,,,,,,,,,,,,,,,,,,,,,,,,,,,,,,,,,,,,,,,,,,,,,,,,,,,,,,,,,,,,,,,,,,,,,,,,,,,,,,,,,,,,,,,,,,,,,,,,,,,,,,,,,,,,,,,,,,,,,,,,,,,,,,,,,,
,,,,,,5fc781689771f106330abf6a,62c53897aa2bc9b5bcef82dc,2022-07-06_09h24.20.758,Colour_Asymmetry_Pilot,2022.1.3,Win32,60.59137179,62c50e9c1127f2cd403a315f,0,140,140,103,1,fourthree,,,,,,,,,,,,,,,,,,,,,,,,,,,,,,,,,,,,,,,,,,,,,,,,,,,,,,,,,,,,,,,,,,,,,,,,,,,,,,,,,,,,,,,,,,,,,,,,,,,,,,,,,,,,,,,,,,,,,,,,,,,,,,,,,,,,,,,,,,,,,,,,,,,,,,,,,,,,,
,,,,,,5fc781689771f106330abf6a,62c53897aa2bc9b5bcef82dc,2022-07-06_09h24.20.758,Colour_Asymmetry_Pilot,2022.1.3,Win32,60.59137179,62c50e9c1127f2cd403a315f,0,141,141,112,1,onetwo,,,,,,,,,,,,,,,,,,,,,,,,,,,,,,,,,,,,,,,,,,,,,,,,,,,,,,,,,,,,,,,,,,,,,,,,,,,,,,,,,,,,,,,,,,,,,,,,,,,,,,,,,,,,,,,,,,,,,,,,,,,,,,,,,,,,,,,,,,,,,,,,,,,,,,,,,,,,,
,,,,,,5fc781689771f106330abf6a,62c53897aa2bc9b5bcef82dc,2022-07-06_09h24.20.758,Colour_Asymmetry_Pilot,2022.1.3,Win32,60.59137179,62c50e9c1127f2cd403a315f,0,142,142,23,1,fourthree,,,,,,,,,,,,,,,,,,,,,,,,,,,,,,,,,,,,,,,,,,,,,,,,,,,,,,,,,,,,,,,,,,,,,,,,,,,,,,,,,,,,,,,,,,,,,,,,,,,,,,,,,,,,,,,,,,,,,,,,,,,,,,,,,,,,,,,,,,,,,,,,,,,,,,,,,,,,,
,,,,,,5fc781689771f106330abf6a,62c53897aa2bc9b5bcef82dc,2022-07-06_09h24.20.758,Colour_Asymmetry_Pilot,2022.1.3,Win32,60.59137179,62c50e9c1127f2cd403a315f,0,143,143,49,1,onethree,,,,,,,,,,,,,,,,,,,,,,,,,,,,,,,,,,,,,,,,,,,,,,,,,,,,,,,,,,,,,,,,,,,,,,,,,,,,,,,,,,,,,,,,,,,,,,,,,,,,,,,,,,,,,,,,,,,,,,,,,,,,,,,,,,,,,,,,,,,,,,,,,,,,,,,,,,,,,
,,,,,,5fc781689771f106330abf6a,62c53897aa2bc9b5bcef82dc,2022-07-06_09h24.20.758,Colour_Asymmetry_Pilot,2022.1.3,Win32,60.59137179,62c50e9c1127f2cd403a315f,0,144,144,90,1,twoone,,,,,,,,,,,,,,,,,,,,,,,,,,,,,,,,,,,,,,,,,,,,,,,,,,,,,,,,,,,,,,,,,,,,,,,,,,,,,,,,,,,,,,,,,,,,,,,,,,,,,,,,,,,,,,,,,,,,,,,,,,,,,,,,,,,,,,,,,,,,,,,,,,,,,,,,,,,,,
,,,,,,5fc781689771f106330abf6a,62c53897aa2bc9b5bcef82dc,2022-07-06_09h24.20.758,Colour_Asymmetry_Pilot,2022.1.3,Win32,60.59137179,62c50e9c1127f2cd403a315f,0,145,145,31,1,fourthree,,,,,,,,,,,,,,,,,,,,,,,,,,,,,,,,,,,,,,,,,,,,,,,,,,,,,,,,,,,,,,,,,,,,,,,,,,,,,,,,,,,,,,,,,,,,,,,,,,,,,,,,,,,,,,,,,,,,,,,,,,,,,,,,,,,,,,,,,,,,,,,,,,,,,,,,,,,,,
,,,,,,5fc781689771f106330abf6a,62c53897aa2bc9b5bcef82dc,2022-07-06_09h24.20.758,Colour_Asymmetry_Pilot,2022.1.3,Win32,60.59137179,62c50e9c1127f2cd403a315f,0,146,146,145,1,onethree,,,,,,,,,,,,,,,,,,,,,,,,,,,,,,,,,,,,,,,,,,,,,,,,,,,,,,,,,,,,,,,,,,,,,,,,,,,,,,,,,,,,,,,,,,,,,,,,,,,,,,,,,,,,,,,,,,,,,,,,,,,,,,,,,,,,,,,,,,,,,,,,,,,,,,,,,,,,,
,,,,,,5fc781689771f106330abf6a,62c53897aa2bc9b5bcef82dc,2022-07-06_09h24.20.758,Colour_Asymmetry_Pilot,2022.1.3,Win32,60.59137179,62c50e9c1127f2cd403a315f,0,147,147,137,1,onethree,,,,,,,,,,,,,,,,,,,,,,,,,,,,,,,,,,,,,,,,,,,,,,,,,,,,,,,,,,,,,,,,,,,,,,,,,,,,,,,,,,,,,,,,,,,,,,,,,,,,,,,,,,,,,,,,,,,,,,,,,,,,,,,,,,,,,,,,,,,,,,,,,,,,,,,,,,,,,
,,,,,,5fc781689771f106330abf6a,62c53897aa2bc9b5bcef82dc,2022-07-06_09h24.20.758,Colour_Asymmetry_Pilot,2022.1.3,Win32,60.59137179,62c50e9c1127f2cd403a315f,0,148,148,129,1,onethree,,,,,,,,,,,,,,,,,,,,,,,,,,,,,,,,,,,,,,,,,,,,,,,,,,,,,,,,,,,,,,,,,,,,,,,,,,,,,,,,,,,,,,,,,,,,,,,,,,,,,,,,,,,,,,,,,,,,,,,,,,,,,,,,,,,,,,,,,,,,,,,,,,,,,,,,,,,,,
,,,,,,5fc781689771f106330abf6a,62c53897aa2bc9b5bcef82dc,2022-07-06_09h24.20.758,Colour_Asymmetry_Pilot,2022.1.3,Win32,60.59137179,62c50e9c1127f2cd403a315f,0,149,149,8,1,onetwo,,,,,,,,,,,,,,,,,,,,,,,,,,,,,,,,,,,,,,,,,,,,,,,,,,,,,,,,,,,,,,,,,,,,,,,,,,,,,,,,,,,,,,,,,,,,,,,,,,,,,,,,,,,,,,,,,,,,,,,,,,,,,,,,,,,,,,,,,,,,,,,,,,,,,,,,,,,,,
,,,,,,5fc781689771f106330abf6a,62c53897aa2bc9b5bcef82dc,2022-07-06_09h24.20.758,Colour_Asymmetry_Pilot,2022.1.3,Win32,60.59137179,62c50e9c1127f2cd403a315f,0,150,150,118,1,fourtwo,,,,,,,,,,,,,,,,,,,,,,,,,,,,,,,,,,,,,,,,,,,,,,,,,,,,,,,,,,,,,,,,,,,,,,,,,,,,,,,,,,,,,,,,,,,,,,,,,,,,,,,,,,,,,,,,,,,,,,,,,,,,,,,,,,,,,,,,,,,,,,,,,,,,,,,,,,,,,
,,,,,,5fc781689771f106330abf6a,62c53897aa2bc9b5bcef82dc,2022-07-06_09h24.20.758,Colour_Asymmetry_Pilot,2022.1.3,Win32,60.59137179,62c50e9c1127f2cd403a315f,0,151,151,15,1,fourthree,,,,,,,,,,,,,,,,,,,,,,,,,,,,,,,,,,,,,,,,,,,,,,,,,,,,,,,,,,,,,,,,,,,,,,,,,,,,,,,,,,,,,,,,,,,,,,,,,,,,,,,,,,,,,,,,,,,,,,,,,,,,,,,,,,,,,,,,,,,,,,,,,,,,,,,,,,,,,
,,,,,,5fc781689771f106330abf6a,62c53897aa2bc9b5bcef82dc,2022-07-06_09h24.20.758,Colour_Asymmetry_Pilot,2022.1.3,Win32,60.59137179,62c50e9c1127f2cd403a315f,0,152,152,9,1,onethree,,,,,,,,,,,,,,,,,,,,,,,,,,,,,,,,,,,,,,,,,,,,,,,,,,,,,,,,,,,,,,,,,,,,,,,,,,,,,,,,,,,,,,,,,,,,,,,,,,,,,,,,,,,,,,,,,,,,,,,,,,,,,,,,,,,,,,,,,,,,,,,,,,,,,,,,,,,,,
,,,,,,5fc781689771f106330abf6a,62c53897aa2bc9b5bcef82dc,2022-07-06_09h24.20.758,Colour_Asymmetry_Pilot,2022.1.3,Win32,60.59137179,62c50e9c1127f2cd403a315f,0,153,153,64,1,onetwo,,,,,,,,,,,,,,,,,,,,,,,,,,,,,,,,,,,,,,,,,,,,,,,,,,,,,,,,,,,,,,,,,,,,,,,,,,,,,,,,,,,,,,,,,,,,,,,,,,,,,,,,,,,,,,,,,,,,,,,,,,,,,,,,,,,,,,,,,,,,,,,,,,,,,,,,,,,,,
,,,,,,5fc781689771f106330abf6a,62c53897aa2bc9b5bcef82dc,2022-07-06_09h24.20.758,Colour_Asymmetry_Pilot,2022.1.3,Win32,60.59137179,62c50e9c1127f2cd403a315f,0,154,154,95,1,fourthree,,,,,,,,,,,,,,,,,,,,,,,,,,,,,,,,,,,,,,,,,,,,,,,,,,,,,,,,,,,,,,,,,,,,,,,,,,,,,,,,,,,,,,,,,,,,,,,,,,,,,,,,,,,,,,,,,,,,,,,,,,,,,,,,,,,,,,,,,,,,,,,,,,,,,,,,,,,,,
,,,,,,5fc781689771f106330abf6a,62c53897aa2bc9b5bcef82dc,2022-07-06_09h24.20.758,Colour_Asymmetry_Pilot,2022.1.3,Win32,60.59137179,62c50e9c1127f2cd403a315f,0,155,155,70,1,fourtwo,,,,,,,,,,,,,,,,,,,,,,,,,,,,,,,,,,,,,,,,,,,,,,,,,,,,,,,,,,,,,,,,,,,,,,,,,,,,,,,,,,,,,,,,,,,,,,,,,,,,,,,,,,,,,,,,,,,,,,,,,,,,,,,,,,,,,,,,,,,,,,,,,,,,,,,,,,,,,
,,,,,,5fc781689771f106330abf6a,62c53897aa2bc9b5bcef82dc,2022-07-06_09h24.20.758,Colour_Asymmetry_Pilot,2022.1.3,Win32,60.59137179,62c50e9c1127f2cd403a315f,0,156,156,39,1,fourthree,,,,,,,,,,,,,,,,,,,,,,,,,,,,,,,,,,,,,,,,,,,,,,,,,,,,,,,,,,,,,,,,,,,,,,,,,,,,,,,,,,,,,,,,,,,,,,,,,,,,,,,,,,,,,,,,,,,,,,,,,,,,,,,,,,,,,,,,,,,,,,,,,,,,,,,,,,,,,
,,,,,,5fc781689771f106330abf6a,62c53897aa2bc9b5bcef82dc,2022-07-06_09h24.20.758,Colour_Asymmetry_Pilot,2022.1.3,Win32,60.59137179,62c50e9c1127f2cd403a315f,0,157,157,143,1,fourthree,,,,,,,,,,,,,,,,,,,,,,,,,,,,,,,,,,,,,,,,,,,,,,,,,,,,,,,,,,,,,,,,,,,,,,,,,,,,,,,,,,,,,,,,,,,,,,,,,,,,,,,,,,,,,,,,,,,,,,,,,,,,,,,,,,,,,,,,,,,,,,,,,,,,,,,,,,,,,
,,,,,,5fc781689771f106330abf6a,62c53897aa2bc9b5bcef82dc,2022-07-06_09h24.20.758,Colour_Asymmetry_Pilot,2022.1.3,Win32,60.59137179,62c50e9c1127f2cd403a315f,0,158,158,127,1,fourthree,,,,,,,,,,,,,,,,,,,,,,,,,,,,,,,,,,,,,,,,,,,,,,,,,,,,,,,,,,,,,,,,,,,,,,,,,,,,,,,,,,,,,,,,,,,,,,,,,,,,,,,,,,,,,,,,,,,,,,,,,,,,,,,,,,,,,,,,,,,,,,,,,,,,,,,,,,,,,
,,,,,,5fc781689771f106330abf6a,62c53897aa2bc9b5bcef82dc,2022-07-06_09h24.20.758,Colour_Asymmetry_Pilot,2022.1.3,Win32,60.59137179,62c50e9c1127f2cd403a315f,0,159,159,100,1,threeone,,,,,,,,,,,,,,,,,,,,,,,,,,,,,,,,,,,,,,,,,,,,,,,,,,,,,,,,,,,,,,,,,,,,,,,,,,,,,,,,,,,,,,,,,,,,,,,,,,,,,,,,,,,,,,,,,,,,,,,,,,,,,,,,,,,,,,,,,,,,,,,,,,,,,,,,,,,,,
,,,,,,5fc781689771f106330abf6a,62c53897aa2bc9b5bcef82dc,2022-07-06_09h24.20.758,Colour_Asymmetry_Pilot,2022.1.3,Win32,60.59137179,62c50e9c1127f2cd403a315f,0,160,160,134,1,fourtwo,,,,,,,,,,,,,,,,,,,,,,,,,,,,,,,,,,,,,,,,,,,,,,,,,,,,,,,,,,,,,,,,,,,,,,,,,,,,,,,,,,,,,,,,,,,,,,,,,,,,,,,,,,,,,,,,,,,,,,,,,,,,,,,,,,,,,,,,,,,,,,,,,,,,,,,,,,,,,
,,,,,,5fc781689771f106330abf6a,62c53897aa2bc9b5bcef82dc,2022-07-06_09h24.20.758,Colour_Asymmetry_Pilot,2022.1.3,Win32,60.59137179,62c50e9c1127f2cd403a315f,0,161,161,41,1,onethree,,,,,,,,,,,,,,,,,,,,,,,,,,,,,,,,,,,,,,,,,,,,,,,,,,,,,,,,,,,,,,,,,,,,,,,,,,,,,,,,,,,,,,,,,,,,,,,,,,,,,,,,,,,,,,,,,,,,,,,,,,,,,,,,,,,,,,,,,,,,,,,,,,,,,,,,,,,,,
,,,,,,5fc781689771f106330abf6a,62c53897aa2bc9b5bcef82dc,2022-07-06_09h24.20.758,Colour_Asymmetry_Pilot,2022.1.3,Win32,60.59137179,62c50e9c1127f2cd403a315f,,,,,,,space,1.6405,space,1.9106,space,10.78,space,1.013,space,3.3497,space,1.6835,"[-0.26280000000000003,-0.4746,-0.2158]",twofour,"[-0.09019999999999995,0.44300000000000006,0.5371999999999999]",-3,5.3835,-76,53.6000061,1,0,0,response7disk_5,-5.599975586,3.199981689,1,0,0,rectangle_8,-5.599975586,3.199981689,1,0,0,4,-5.599975586,3.199981689,1,0,0,0,0,0,0,1,,,,,,,,,,,,,,,,,,,,,,,,,,,,,,,,,,,,,,,,,,,,,,,,,,,,,,,,,,,,,,,,,,,,,,,,,,,,,,,,,,,,,,,,,,,,,,,,,,,,,,,,,,,,,,,,
,,,,,,5fc781689771f106330abf6a,62c53897aa2bc9b5bcef82dc,2022-07-06_09h24.20.758,Colour_Asymmetry_Pilot,2022.1.3,Win32,60.59137179,62c50e9c1127f2cd403a315f,,,,,,,,,,,,,,,,,,,"[0.7176,-0.906,-0.6864]",threefour,"[0.2862,0.7802,0.3568]",-4,1.2337,-41.59997559,69.6000061,1,0,0,response7disk_5,7.200012207,0.799987793,1,0,0,rectangle_8,7.200012207,0.799987793,1,0,0,4,7.200012207,0.799987793,1,0,0,1,0,1,0,1,,,,,,,,,,,,,,,,,,,,,,,,,,,,,,,,,,,,,,,,,,,,,,,,,,,,,,,,,,,,,,,,,,,,,,,,,,,,,,,,,,,,,,,,,,,,,,,,,,,,,,,,,,,,,,,,
,,,,,,5fc781689771f106330abf6a,62c53897aa2bc9b5bcef82dc,2022-07-06_09h24.20.758,Colour_Asymmetry_Pilot,2022.1.3,Win32,60.59137179,62c50e9c1127f2cd403a315f,,,,,,,,,,,,,,,,,,,"[0.7802,-0.23140000000000005,-0.20799999999999996]",threefour,"[0.7802,-0.23140000000000005,-0.20799999999999996]",1,3.9495,39.20001221,-109.6000366,1,0,0,response3disk_5,-4.799987793,0,1,0,0,rectangle_8,67.20001221,125.6000061,1,0,0,4,14.40002441,-4.800018311,1,0,0,2,0,2,0,1,response1disk_7,7,rectangle_4,,,,,,,,,,,,,,,,,,,,,,,,,,,,,,,,,,,,,,,,,,,,,,,,,,,,,,,,,,,,,,,,,,,,,,,,,,,,,,,,,,,,,,,,,,,,,,,,,,,,,,,,,,,,,
,,,,,,5fc781689771f106330abf6a,62c53897aa2bc9b5bcef82dc,2022-07-06_09h24.20.758,Colour_Asymmetry_Pilot,2022.1.3,Win32,60.59137179,62c50e9c1127f2cd403a315f,,,,,,,,,,,,,,,,,,,"[0.30180000000000007,-0.7884,-0.9844]",twofour,"[0.9763999999999999,0.30979999999999985,-0.6786]",-2,1.4984,-112,-56,1,0,0,response5disk_5,-4,0.799987793,1,0,0,rectangle_8,-4,0.799987793,1,0,0,4,-4,0.799987793,1,0,0,3,0,3,0,1,,,,,,,,,,,,,,,,,,,,,,,,,,,,,,,,,,,,,,,,,,,,,,,,,,,,,,,,,,,,,,,,,,,,,,,,,,,,,,,,,,,,,,,,,,,,,,,,,,,,,,,,,,,,,,,,
,,,,,,5fc781689771f106330abf6a,62c53897aa2bc9b5bcef82dc,2022-07-06_09h24.20.758,Colour_Asymmetry_Pilot,2022.1.3,Win32,60.59137179,62c50e9c1127f2cd403a315f,,,,,,,,,,,,,,,,,,,"[0.11359999999999992,0.6312,0.5213999999999999]",fourthree,"[-0.6942,-0.7648,-0.12959999999999994]",-2,1.6508,-100,-49.6000061,1,0,0,response5disk_5,24.79998779,-4,1,0,0,rectangle_8,48.79998779,82.3999939,1,0,0,4,-2.399963379,-8.800018311,1,0,0,4,0,4,0,1,response1disk_7,7,rectangle_4,,,,,,,,,,,,,,,,,,,,,,,,,,,,,,,,,,,,,,,,,,,,,,,,,,,,,,,,,,,,,,,,,,,,,,,,,,,,,,,,,,,,,,,,,,,,,,,,,,,,,,,,,,,,,
,,,,,,5fc781689771f106330abf6a,62c53897aa2bc9b5bcef82dc,2022-07-06_09h24.20.758,Colour_Asymmetry_Pilot,2022.1.3,Win32,60.59137179,62c50e9c1127f2cd403a315f,,,,,,,,,,,,,,,,,,,"[-0.5688,-0.08239999999999992,-0.1844]",onetwo,"[-0.011800000000000033,-0.906,-0.45100000000000007]",-2,1.9828,-96,-56,1,0,0,response5disk_5,-16,-2.399993896,1,0,0,rectangle_8,-16,-2.399993896,1,0,0,4,-16,-2.399993896,1,0,0,5,0,5,0,1,,,,,,,,,,,,,,,,,,,,,,,,,,,,,,,,,,,,,,,,,,,,,,,,,,,,,,,,,,,,,,,,,,,,,,,,,,,,,,,,,,,,,,,,,,,,,,,,,,,,,,,,,,,,,,,,
,,,,,,5fc781689771f106330abf6a,62c53897aa2bc9b5bcef82dc,2022-07-06_09h24.20.758,Colour_Asymmetry_Pilot,2022.1.3,Win32,60.59137179,62c50e9c1127f2cd403a315f,,,,,,,,,,,,,,,,,,,"[-0.10599999999999998,-0.15300000000000002,0.15280000000000005]",onetwo,"[1,0.12939999999999996,-1]",-4,0.9924,-22.39996338,64,1,0,0,response7disk_5,-6.399963379,7.199981689,1,0,0,rectangle_8,-6.399963379,7.199981689,1,0,0,4,-6.399963379,7.199981689,1,0,0,6,0,6,0,1,,,,,,,,,,,,,,,,,,,,,,,,,,,,,,,,,,,,,,,,,,,,,,,,,,,,,,,,,,,,,,,,,,,,,,,,,,,,,,,,,,,,,,,,,,,,,,,,,,,,,,,,,,,,,,,,
,,,,,,5fc781689771f106330abf6a,62c53897aa2bc9b5bcef82dc,2022-07-06_09h24.20.758,Colour_Asymmetry_Pilot,2022.1.3,Win32,60.59137179,62c50e9c1127f2cd403a315f,,,,,,,,,,,,,,,,,,,,twoone,,2,2.0987,,,,,,,,,,,,,,,,,,,,,,,,,,,,,,,,space,2.8643,"[-0.7412000000000001,-0.08239999999999992,-0.6864]","[-0.26280000000000003,-0.2158,-0.3256]",92.79998779,-42.3999939,1,0,0,response3disk,9.600036621,0.799987793,1,0,0,rectangle,9.600036621,0.799987793,1,0,0,,2,0.0045,0,9.600036621,0.799987793,1,0,0,0,0,0,143,1,62,second,,,,,,,,,,,,,,,,,,,,,,,,,,,,,,,,,,,,,,,,,,,,,,,,,,,,,,,,,,,,,,,,,,,,,,,,
,,,,,,5fc781689771f106330abf6a,62c53897aa2bc9b5bcef82dc,2022-07-06_09h24.20.758,Colour_Asymmetry_Pilot,2022.1.3,Win32,60.59137179,62c50e9c1127f2cd403a315f,,,,,,,,,,,,,,,,,,,,twofour,,2,0.45,,,,,,,,,,,,,,,,,,,,,,,,,,,,,,,,,,"[-0.011800000000000033,-0.906,-0.45100000000000007]","[-0.5922000000000001,-0.7492000000000001,-0.5296000000000001]",115.2000122,-36.80001831,1,0,0,response3disk,1.600036621,1.600006104,1,0,0,rectangle,1.600036621,1.600006104,1,0,0,,3,0.004,0,1.600036621,1.600006104,1,0,0,0,1,1,121,1,40,second,,,,,,,,,,,,,,,,,,,,,,,,,,,,,,,,,,,,,,,,,,,,,,,,,,,,,,,,,,,,,,,,,,,,,,,,
,,,,,,5fc781689771f106330abf6a,62c53897aa2bc9b5bcef82dc,2022-07-06_09h24.20.758,Colour_Asymmetry_Pilot,2022.1.3,Win32,60.59137179,62c50e9c1127f2cd403a315f,,,,,,,,,,,,,,,,,,,,fourtwo,,2,0.4677,,,,,,,,,,,,,,,,,,,,,,,,,,,,,,,,,,"[0.37240000000000006,-0.050999999999999934,-0.5216]","[0.9686000000000001,0.5763999999999998,0.11359999999999992]",101.6000366,-29.6000061,1,0,0,response3disk,1.600036621,-7.200012207,1,0,0,rectangle,1.600036621,-7.200012207,1,0,0,,2,0.0033,0,1.600036621,-7.200012207,1,0,0,0,2,2,3,1,3,first,,,,,,,,,,,,,,,,,,,,,,,,,,,,,,,,,,,,,,,,,,,,,,,,,,,,,,,,,,,,,,,,,,,,,,,,
,,,,,,5fc781689771f106330abf6a,62c53897aa2bc9b5bcef82dc,2022-07-06_09h24.20.758,Colour_Asymmetry_Pilot,2022.1.3,Win32,60.59137179,62c50e9c1127f2cd403a315f,,,,,,,,,,,,,,,,,,,,onethree,,-4,0.7004,,,,,,,,,,,,,,,,,,,,,,,,,,,,,,,,,,"[-0.9844,-0.9688,-0.9922]","[0.9686000000000001,0.3802000000000001,0.19999999999999996]",-50.39996338,86.3999939,1,0,0,response7disk,-12.79998779,4,1,0,0,rectangle,-12.79998779,4,1,0,0,,3,0.0048,0,-12.79998779,4,1,0,0,0,3,3,14,1,14,first,,,,,,,,,,,,,,,,,,,,,,,,,,,,,,,,,,,,,,,,,,,,,,,,,,,,,,,,,,,,,,,,,,,,,,,,
,,,,,,5fc781689771f106330abf6a,62c53897aa2bc9b5bcef82dc,2022-07-06_09h24.20.758,Colour_Asymmetry_Pilot,2022.1.3,Win32,60.59137179,62c50e9c1127f2cd403a315f,,,,,,,,,,,,,,,,,,,,threeone,,-4,0.6002,,,,,,,,,,,,,,,,,,,,,,,,,,,,,,,,,,"[-0.07459999999999989,0.12139999999999995,-0.9922]","[-0.20799999999999996,-0.655,-0.01980000000000004]",-44.79998779,69.6000061,1,0,0,response7disk,-2.399963379,-8.800018311,1,0,0,rectangle,-2.399963379,-8.800018311,1,0,0,,2,0.0025,0,-2.399963379,-8.800018311,1,0,0,0,4,4,101,1,20,second,,,,,,,,,,,,,,,,,,,,,,,,,,,,,,,,,,,,,,,,,,,,,,,,,,,,,,,,,,,,,,,,,,,,,,,,
,,,,,,5fc781689771f106330abf6a,62c53897aa2bc9b5bcef82dc,2022-07-06_09h24.20.758,Colour_Asymmetry_Pilot,2022.1.3,Win32,60.59137179,62c50e9c1127f2cd403a315f,,,,,,,,,,,,,,,,,,,,threefour,,-4,0.2996,,,,,,,,,,,,,,,,,,,,,,,,,,,,,,,,,,"[0.9372,0.20779999999999998,0.2704]","[-0.9844,-0.9688,-0.9922]",-44.79998779,84.79998779,1,0,0,response7disk,16,-9.600006104,1,0,0,rectangle,16,-9.600006104,1,0,0,,3,0.003,0,16,-9.600006104,1,0,0,0,5,5,141,1,60,second,,,,,,,,,,,,,,,,,,,,,,,,,,,,,,,,,,,,,,,,,,,,,,,,,,,,,,,,,,,,,,,,,,,,,,,,
,,,,,,5fc781689771f106330abf6a,62c53897aa2bc9b5bcef82dc,2022-07-06_09h24.20.758,Colour_Asymmetry_Pilot,2022.1.3,Win32,60.59137179,62c50e9c1127f2cd403a315f,,,,,,,,,,,,,,,,,,,,twoone,,1,1.0841,,,,,,,,,,,,,,,,,,,,,,,,,,,,,,,,,,"[-0.09019999999999995,0.44300000000000006,0.5371999999999999]","[0.09799999999999986,-0.24719999999999998,0.15280000000000005]",46.40002441,-86.40002441,1,0,0,response3disk,-6.399963379,3.199981689,1,0,0,rectangle,-6.399963379,3.199981689,1,0,0,,1,0.0031,0,-6.399963379,3.199981689,1,0,0,0,6,6,144,1,63,second,,,,,,,,,,,,,,,,,,,,,,,,,,,,,,,,,,,,,,,,,,,,,,,,,,,,,,,,,,,,,,,,,,,,,,,,
,,,,,,5fc781689771f106330abf6a,62c53897aa2bc9b5bcef82dc,2022-07-06_09h24.20.758,Colour_Asymmetry_Pilot,2022.1.3,Win32,60.59137179,62c50e9c1127f2cd403a315f,,,,,,,,,,,,,,,,,,,,onethree,,-3,0.8347,,,,,,,,,,,,,,,,,,,,,,,,,,,,,,,,,,"[-0.4668,-0.8746,-0.2942]","[0.04299999999999993,0.16060000000000008,-0.6628000000000001]",-86.39996338,38.3999939,1,0,0,response7disk,-19.20001221,-8,1,0,0,rectangle,-19.20001221,-8,1,0,0,,3,0.0043,0,-19.20001221,-8,1,0,0,0,7,7,45,1,45,first,,,,,,,,,,,,,,,,,,,,,,,,,,,,,,,,,,,,,,,,,,,,,,,,,,,,,,,,,,,,,,,,,,,,,,,,
,,,,,,5fc781689771f106330abf6a,62c53897aa2bc9b5bcef82dc,2022-07-06_09h24.20.758,Colour_Asymmetry_Pilot,2022.1.3,Win32,60.59137179,62c50e9c1127f2cd403a315f,,,,,,,,,,,,,,,,,,,,threefour,,4,0.6988,,,,,,,,,,,,,,,,,,,,,,,,,,,,,,,,,,"[-0.9766,-0.6472,0.07440000000000002]","[-0.5452,-0.608,0.2470000000000001]",65.60003662,104.7999878,1,0,0,response1disk,15.20001221,8,1,0,0,rectangle,15.20001221,8,1,0,0,,3,0.0003,0,15.20001221,8,1,0,0,0,8,8,93,1,12,second,,,,,,,,,,,,,,,,,,,,,,,,,,,,,,,,,,,,,,,,,,,,,,,,,,,,,,,,,,,,,,,,,,,,,,,,
,,,,,,5fc781689771f106330abf6a,62c53897aa2bc9b5bcef82dc,2022-07-06_09h24.20.758,Colour_Asymmetry_Pilot,2022.1.3,Win32,60.59137179,62c50e9c1127f2cd403a315f,,,,,,,,,,,,,,,,,,,,fourthree,,3,0.4667,,,,,,,,,,,,,,,,,,,,,,,,,,,,,,,,,,"[-0.9688,-0.4902000000000001,-0.12159999999999993]","[-0.48240000000000005,0.3175999999999999,0.2156]",114.4000244,64,1,0,0,response1disk,28,4,1,0,0,rectangle,28,4,1,0,0,,2,0.0035,0,28,4,1,0,0,0,9,9,157,1,76,second,,,,,,,,,,,,,,,,,,,,,,,,,,,,,,,,,,,,,,,,,,,,,,,,,,,,,,,,,,,,,,,,,,,,,,,,
,,,,,,5fc781689771f106330abf6a,62c53897aa2bc9b5bcef82dc,2022-07-06_09h24.20.758,Colour_Asymmetry_Pilot,2022.1.3,Win32,60.59137179,62c50e9c1127f2cd403a315f,,,,,,,,,,,,,,,,,,,,fourtwo,,4,0.5662,,,,,,,,,,,,,,,,,,,,,,,,,,,,,,,,,,"[-0.4902000000000001,0.2704,-0.45899999999999996]","[-0.17659999999999998,0.3253999999999999,0.19999999999999996]",73.60003662,83.19998169,1,0,0,response1disk,28.79998779,3.199981689,1,0,0,rectangle,28.79998779,3.199981689,1,0,0,,2,0.0002,0,28.79998779,3.199981689,1,0,0,0,10,10,56,1,56,first,,,,,,,,,,,,,,,,,,,,,,,,,,,,,,,,,,,,,,,,,,,,,,,,,,,,,,,,,,,,,,,,,,,,,,,,
,,,,,,5fc781689771f106330abf6a,62c53897aa2bc9b5bcef82dc,2022-07-06_09h24.20.758,Colour_Asymmetry_Pilot,2022.1.3,Win32,60.59137179,62c50e9c1127f2cd403a315f,,,,,,,,,,,,,,,,,,,,onethree,,3,0.4493,,,,,,,,,,,,,,,,,,,,,,,,,,,,,,,,,,"[-0.48240000000000005,0.3175999999999999,0.2156]","[-0.9688,-0.4902000000000001,-0.12159999999999993]",92,50.3999939,1,0,0,response1disk,-13.59997559,-2.399993896,1,0,0,rectangle,88.79998779,-32.80001831,1,0,0,2,2,3.7361,1,8,-1.600006104,1,0,0,0,11,11,76,1,76,first,response3disk_3,rectangle,,,,,,,,,,,,,,,,,,,,,,,,,,,,,,,,,,,,,,,,,,,,,,,,,,,,,,,,,,,,,,,,,,,,,,
,,,,,,5fc781689771f106330abf6a,62c53897aa2bc9b5bcef82dc,2022-07-06_09h24.20.758,Colour_Asymmetry_Pilot,2022.1.3,Win32,60.59137179,62c50e9c1127f2cd403a315f,,,,,,,,,,,,,,,,,,,,threeone,,1,0.783,,,,,,,,,,,,,,,,,,,,,,,,,,,,,,,,,,"[-0.10599999999999998,-0.15300000000000002,0.15280000000000005]","[-0.24719999999999998,-0.0354000000000001,0.3175999999999999]",62.40002441,-86.40002441,1,0,0,response3disk,0,-0.800018311,1,0,0,rectangle,0,-0.800018311,1,0,0,2,1,0.0037,0,0,-0.800018311,1,0,0,0,12,12,77,1,77,first,,,,,,,,,,,,,,,,,,,,,,,,,,,,,,,,,,,,,,,,,,,,,,,,,,,,,,,,,,,,,,,,,,,,,,,,
,,,,,,5fc781689771f106330abf6a,62c53897aa2bc9b5bcef82dc,2022-07-06_09h24.20.758,Colour_Asymmetry_Pilot,2022.1.3,Win32,60.59137179,62c50e9c1127f2cd403a315f,,,,,,,,,,,,,,,,,,,,threeone,,-2,0.4327,,,,,,,,,,,,,,,,,,,,,,,,,,,,,,,,,,"[-0.6235999999999999,-0.6786,-0.08239999999999992]","[-0.24719999999999998,0.5213999999999999,-0.12959999999999994]",-96.79998779,-46.3999939,1,0,0,response5disk,-12.79998779,-16,1,0,0,rectangle,-12.79998779,-16,1,0,0,2,3,0.0029,0,-12.79998779,-16,1,0,0,0,13,13,142,1,61,second,,,,,,,,,,,,,,,,,,,,,,,,,,,,,,,,,,,,,,,,,,,,,,,,,,,,,,,,,,,,,,,,,,,,,,,,
,,,,,,5fc781689771f106330abf6a,62c53897aa2bc9b5bcef82dc,2022-07-06_09h24.20.758,Colour_Asymmetry_Pilot,2022.1.3,Win32,60.59137179,62c50e9c1127f2cd403a315f,,,,,,,,,,,,,,,,,,,,twofour,,1,1.7162,,,,,,,,,,,,,,,,,,,,,,,,,,,,,,,,,,"[0.2784,-0.31000000000000005,-0.5452]","[-0.17659999999999998,-0.2864,-0.8354]",43.20001221,-112,1,0,0,response3disk,4.799987793,0.799987793,1,0,0,rectangle,63.20001221,-100,1,0,0,1,1,1.6141,1,-6.399963379,-4.800018311,1,0,0,0,14,14,104,1,23,second,response3disk_3,rectangle,,,,,,,,,,,,,,,,,,,,,,,,,,,,,,,,,,,,,,,,,,,,,,,,,,,,,,,,,,,,,,,,,,,,,,
