trials.thisRepN,trials.thisTrialN,trials.thisN,trials.thisIndex,trials.ran,Colourcodes,participant,session,date,expName,psychopyVersion,OS,frameRate,study_id,trials_4.thisRepN,trials_4.thisTrialN,trials_4.thisN,trials_4.thisIndex,trials_4.ran,StimulusPos,key_resp.keys,key_resp.rt,key_resp_2.keys,key_resp_2.rt,key_resp_15.keys,key_resp_15.rt,key_resp_17.keys,key_resp_17.rt,key_resp_9.keys,key_resp_9.rt,key_resp_10.keys,key_resp_10.rt,Circle1_col,Ecc,Circle2_col,similarity,response_time,mouse_5.x,mouse_5.y,mouse_5.leftButton,mouse_5.midButton,mouse_5.rightButton,mouse_5.clicked_name,mouse_10.x,mouse_10.y,mouse_10.leftButton,mouse_10.midButton,mouse_10.rightButton,mouse_10.clicked_name,mouse_7.x,mouse_7.y,mouse_7.leftButton,mouse_7.midButton,mouse_7.rightButton,catchnumberprac,mouse_6.x,mouse_6.y,mouse_6.leftButton,mouse_6.midButton,mouse_6.rightButton,duringprac.thisRepN,duringprac.thisTrialN,duringprac.thisN,duringprac.thisIndex,duringprac.ran,mouse_7.clicked_name,catchprac,mouse_6.clicked_name,key_resp_22.keys,key_resp_22.rt,Circle1_colour,Circle2_colour,mouse.x,mouse.y,mouse.leftButton,mouse.midButton,mouse.rightButton,mouse.clicked_name,mouse_2.x,mouse_2.y,mouse_2.leftButton,mouse_2.midButton,mouse_2.rightButton,mouse_2.clicked_name,mouse_3.x,mouse_3.y,mouse_3.leftButton,mouse_3.midButton,mouse_3.rightButton,catchresponse,catchnumber,response_time_catch,Catch,mouse_11.x,mouse_11.y,mouse_11.leftButton,mouse_11.midButton,mouse_11.rightButton,trials_2.thisRepN,trials_2.thisTrialN,trials_2.thisN,trials_2.thisIndex,trials_2.ran,Colourpair,Temporder,mouse_3.clicked_name,mouse_11.clicked_name,trials_3.thisRepN,trials_3.thisTrialN,trials_3.thisN,trials_3.thisIndex,trials_3.ran,key_resp_instr_Ishi.keys,key_resp_instr_Ishi.rt,Ishi_trial_keyresp.keys,Ishi_textbox.text,Ishi_mouse.x,Ishi_mouse.y,Ishi_mouse.leftButton,Ishi_mouse.midButton,Ishi_mouse.rightButton,Ishi_mouse.clicked_name,Ishi_loop.thisRepN,Ishi_loop.thisTrialN,Ishi_loop.thisN,Ishi_loop.thisIndex,Ishi_loop.ran,imageaddress,textbox.text,mouse_4.x,mouse_4.y,mouse_4.leftButton,mouse_4.midButton,mouse_4.rightButton,mouse_4.clicked_name,textbox_2.text,mouse_8.x,mouse_8.y,mouse_8.leftButton,mouse_8.midButton,mouse_8.rightButton,mouse_8.clicked_name,textbox_3.text,mouse_9.x,mouse_9.y,mouse_9.leftButton,mouse_9.midButton,mouse_9.rightButton,mouse_9.clicked_name,textbox_4.text,mouse_12.x,mouse_12.y,mouse_12.leftButton,mouse_12.midButton,mouse_12.rightButton,mouse_12.clicked_name,textbox_5.text,mouse_13.x,mouse_13.y,mouse_13.leftButton,mouse_13.midButton,mouse_13.rightButton,mouse_13.clicked_name,textbox_6.text,mouse_14.x,mouse_14.y,mouse_14.leftButton,mouse_14.midButton,mouse_14.rightButton,mouse_14.clicked_name,textbox_7.text,mouse_15.x,mouse_15.y,mouse_15.leftButton,mouse_15.midButton,mouse_15.rightButton,mouse_15.clicked_name
0,0,0,35,1,,60f4ac44348aacd594c61bb5,62c539b8bee84d668969a53b,2022-07-06_09h54.50.283,Colour_Asymmetry_Pilot,2022.1.3,Win32,59.99160118,62c50e9c1127f2cd403a315f,,,,,,,,,,,,,,,,,,,,,,,,,,,,,,,,,,,,,,,,,,,,,,,,,,,,,,,,,,,,,,,,,,,,,,,,,,,,,,,,,,,,,,,,,,,,,,,,,,,,,,,,,,,,,,,,,,,,,,,,,,,,,,,,,,,,,,,,,,,,,,,,,,,,,,,,,,,,,,,,,,,
0,1,1,34,1,,60f4ac44348aacd594c61bb5,62c539b8bee84d668969a53b,2022-07-06_09h54.50.283,Colour_Asymmetry_Pilot,2022.1.3,Win32,59.99160118,62c50e9c1127f2cd403a315f,,,,,,,,,,,,,,,,,,,,,,,,,,,,,,,,,,,,,,,,,,,,,,,,,,,,,,,,,,,,,,,,,,,,,,,,,,,,,,,,,,,,,,,,,,,,,,,,,,,,,,,,,,,,,,,,,,,,,,,,,,,,,,,,,,,,,,,,,,,,,,,,,,,,,,,,,,,,,,,,,,,
0,2,2,73,1,,60f4ac44348aacd594c61bb5,62c539b8bee84d668969a53b,2022-07-06_09h54.50.283,Colour_Asymmetry_Pilot,2022.1.3,Win32,59.99160118,62c50e9c1127f2cd403a315f,,,,,,,,,,,,,,,,,,,,,,,,,,,,,,,,,,,,,,,,,,,,,,,,,,,,,,,,,,,,,,,,,,,,,,,,,,,,,,,,,,,,,,,,,,,,,,,,,,,,,,,,,,,,,,,,,,,,,,,,,,,,,,,,,,,,,,,,,,,,,,,,,,,,,,,,,,,,,,,,,,,
0,3,3,43,1,,60f4ac44348aacd594c61bb5,62c539b8bee84d668969a53b,2022-07-06_09h54.50.283,Colour_Asymmetry_Pilot,2022.1.3,Win32,59.99160118,62c50e9c1127f2cd403a315f,,,,,,,,,,,,,,,,,,,,,,,,,,,,,,,,,,,,,,,,,,,,,,,,,,,,,,,,,,,,,,,,,,,,,,,,,,,,,,,,,,,,,,,,,,,,,,,,,,,,,,,,,,,,,,,,,,,,,,,,,,,,,,,,,,,,,,,,,,,,,,,,,,,,,,,,,,,,,,,,,,,
0,4,4,16,1,,60f4ac44348aacd594c61bb5,62c539b8bee84d668969a53b,2022-07-06_09h54.50.283,Colour_Asymmetry_Pilot,2022.1.3,Win32,59.99160118,62c50e9c1127f2cd403a315f,,,,,,,,,,,,,,,,,,,,,,,,,,,,,,,,,,,,,,,,,,,,,,,,,,,,,,,,,,,,,,,,,,,,,,,,,,,,,,,,,,,,,,,,,,,,,,,,,,,,,,,,,,,,,,,,,,,,,,,,,,,,,,,,,,,,,,,,,,,,,,,,,,,,,,,,,,,,,,,,,,,
0,5,5,63,1,,60f4ac44348aacd594c61bb5,62c539b8bee84d668969a53b,2022-07-06_09h54.50.283,Colour_Asymmetry_Pilot,2022.1.3,Win32,59.99160118,62c50e9c1127f2cd403a315f,,,,,,,,,,,,,,,,,,,,,,,,,,,,,,,,,,,,,,,,,,,,,,,,,,,,,,,,,,,,,,,,,,,,,,,,,,,,,,,,,,,,,,,,,,,,,,,,,,,,,,,,,,,,,,,,,,,,,,,,,,,,,,,,,,,,,,,,,,,,,,,,,,,,,,,,,,,,,,,,,,,
0,6,6,18,1,,60f4ac44348aacd594c61bb5,62c539b8bee84d668969a53b,2022-07-06_09h54.50.283,Colour_Asymmetry_Pilot,2022.1.3,Win32,59.99160118,62c50e9c1127f2cd403a315f,,,,,,,,,,,,,,,,,,,,,,,,,,,,,,,,,,,,,,,,,,,,,,,,,,,,,,,,,,,,,,,,,,,,,,,,,,,,,,,,,,,,,,,,,,,,,,,,,,,,,,,,,,,,,,,,,,,,,,,,,,,,,,,,,,,,,,,,,,,,,,,,,,,,,,,,,,,,,,,,,,,
0,7,7,29,1,,60f4ac44348aacd594c61bb5,62c539b8bee84d668969a53b,2022-07-06_09h54.50.283,Colour_Asymmetry_Pilot,2022.1.3,Win32,59.99160118,62c50e9c1127f2cd403a315f,,,,,,,,,,,,,,,,,,,,,,,,,,,,,,,,,,,,,,,,,,,,,,,,,,,,,,,,,,,,,,,,,,,,,,,,,,,,,,,,,,,,,,,,,,,,,,,,,,,,,,,,,,,,,,,,,,,,,,,,,,,,,,,,,,,,,,,,,,,,,,,,,,,,,,,,,,,,,,,,,,,
0,8,8,92,1,,60f4ac44348aacd594c61bb5,62c539b8bee84d668969a53b,2022-07-06_09h54.50.283,Colour_Asymmetry_Pilot,2022.1.3,Win32,59.99160118,62c50e9c1127f2cd403a315f,,,,,,,,,,,,,,,,,,,,,,,,,,,,,,,,,,,,,,,,,,,,,,,,,,,,,,,,,,,,,,,,,,,,,,,,,,,,,,,,,,,,,,,,,,,,,,,,,,,,,,,,,,,,,,,,,,,,,,,,,,,,,,,,,,,,,,,,,,,,,,,,,,,,,,,,,,,,,,,,,,,
0,9,9,67,1,,60f4ac44348aacd594c61bb5,62c539b8bee84d668969a53b,2022-07-06_09h54.50.283,Colour_Asymmetry_Pilot,2022.1.3,Win32,59.99160118,62c50e9c1127f2cd403a315f,,,,,,,,,,,,,,,,,,,,,,,,,,,,,,,,,,,,,,,,,,,,,,,,,,,,,,,,,,,,,,,,,,,,,,,,,,,,,,,,,,,,,,,,,,,,,,,,,,,,,,,,,,,,,,,,,,,,,,,,,,,,,,,,,,,,,,,,,,,,,,,,,,,,,,,,,,,,,,,,,,,
0,10,10,55,1,,60f4ac44348aacd594c61bb5,62c539b8bee84d668969a53b,2022-07-06_09h54.50.283,Colour_Asymmetry_Pilot,2022.1.3,Win32,59.99160118,62c50e9c1127f2cd403a315f,,,,,,,,,,,,,,,,,,,,,,,,,,,,,,,,,,,,,,,,,,,,,,,,,,,,,,,,,,,,,,,,,,,,,,,,,,,,,,,,,,,,,,,,,,,,,,,,,,,,,,,,,,,,,,,,,,,,,,,,,,,,,,,,,,,,,,,,,,,,,,,,,,,,,,,,,,,,,,,,,,,
0,11,11,88,1,,60f4ac44348aacd594c61bb5,62c539b8bee84d668969a53b,2022-07-06_09h54.50.283,Colour_Asymmetry_Pilot,2022.1.3,Win32,59.99160118,62c50e9c1127f2cd403a315f,,,,,,,,,,,,,,,,,,,,,,,,,,,,,,,,,,,,,,,,,,,,,,,,,,,,,,,,,,,,,,,,,,,,,,,,,,,,,,,,,,,,,,,,,,,,,,,,,,,,,,,,,,,,,,,,,,,,,,,,,,,,,,,,,,,,,,,,,,,,,,,,,,,,,,,,,,,,,,,,,,,
0,12,12,52,1,,60f4ac44348aacd594c61bb5,62c539b8bee84d668969a53b,2022-07-06_09h54.50.283,Colour_Asymmetry_Pilot,2022.1.3,Win32,59.99160118,62c50e9c1127f2cd403a315f,,,,,,,,,,,,,,,,,,,,,,,,,,,,,,,,,,,,,,,,,,,,,,,,,,,,,,,,,,,,,,,,,,,,,,,,,,,,,,,,,,,,,,,,,,,,,,,,,,,,,,,,,,,,,,,,,,,,,,,,,,,,,,,,,,,,,,,,,,,,,,,,,,,,,,,,,,,,,,,,,,,
0,13,13,62,1,,60f4ac44348aacd594c61bb5,62c539b8bee84d668969a53b,2022-07-06_09h54.50.283,Colour_Asymmetry_Pilot,2022.1.3,Win32,59.99160118,62c50e9c1127f2cd403a315f,,,,,,,,,,,,,,,,,,,,,,,,,,,,,,,,,,,,,,,,,,,,,,,,,,,,,,,,,,,,,,,,,,,,,,,,,,,,,,,,,,,,,,,,,,,,,,,,,,,,,,,,,,,,,,,,,,,,,,,,,,,,,,,,,,,,,,,,,,,,,,,,,,,,,,,,,,,,,,,,,,,
0,14,14,3,1,,60f4ac44348aacd594c61bb5,62c539b8bee84d668969a53b,2022-07-06_09h54.50.283,Colour_Asymmetry_Pilot,2022.1.3,Win32,59.99160118,62c50e9c1127f2cd403a315f,,,,,,,,,,,,,,,,,,,,,,,,,,,,,,,,,,,,,,,,,,,,,,,,,,,,,,,,,,,,,,,,,,,,,,,,,,,,,,,,,,,,,,,,,,,,,,,,,,,,,,,,,,,,,,,,,,,,,,,,,,,,,,,,,,,,,,,,,,,,,,,,,,,,,,,,,,,,,,,,,,,
0,15,15,71,1,,60f4ac44348aacd594c61bb5,62c539b8bee84d668969a53b,2022-07-06_09h54.50.283,Colour_Asymmetry_Pilot,2022.1.3,Win32,59.99160118,62c50e9c1127f2cd403a315f,,,,,,,,,,,,,,,,,,,,,,,,,,,,,,,,,,,,,,,,,,,,,,,,,,,,,,,,,,,,,,,,,,,,,,,,,,,,,,,,,,,,,,,,,,,,,,,,,,,,,,,,,,,,,,,,,,,,,,,,,,,,,,,,,,,,,,,,,,,,,,,,,,,,,,,,,,,,,,,,,,,
0,16,16,66,1,,60f4ac44348aacd594c61bb5,62c539b8bee84d668969a53b,2022-07-06_09h54.50.283,Colour_Asymmetry_Pilot,2022.1.3,Win32,59.99160118,62c50e9c1127f2cd403a315f,,,,,,,,,,,,,,,,,,,,,,,,,,,,,,,,,,,,,,,,,,,,,,,,,,,,,,,,,,,,,,,,,,,,,,,,,,,,,,,,,,,,,,,,,,,,,,,,,,,,,,,,,,,,,,,,,,,,,,,,,,,,,,,,,,,,,,,,,,,,,,,,,,,,,,,,,,,,,,,,,,,
0,17,17,23,1,,60f4ac44348aacd594c61bb5,62c539b8bee84d668969a53b,2022-07-06_09h54.50.283,Colour_Asymmetry_Pilot,2022.1.3,Win32,59.99160118,62c50e9c1127f2cd403a315f,,,,,,,,,,,,,,,,,,,,,,,,,,,,,,,,,,,,,,,,,,,,,,,,,,,,,,,,,,,,,,,,,,,,,,,,,,,,,,,,,,,,,,,,,,,,,,,,,,,,,,,,,,,,,,,,,,,,,,,,,,,,,,,,,,,,,,,,,,,,,,,,,,,,,,,,,,,,,,,,,,,
0,18,18,61,1,,60f4ac44348aacd594c61bb5,62c539b8bee84d668969a53b,2022-07-06_09h54.50.283,Colour_Asymmetry_Pilot,2022.1.3,Win32,59.99160118,62c50e9c1127f2cd403a315f,,,,,,,,,,,,,,,,,,,,,,,,,,,,,,,,,,,,,,,,,,,,,,,,,,,,,,,,,,,,,,,,,,,,,,,,,,,,,,,,,,,,,,,,,,,,,,,,,,,,,,,,,,,,,,,,,,,,,,,,,,,,,,,,,,,,,,,,,,,,,,,,,,,,,,,,,,,,,,,,,,,
0,19,19,82,1,,60f4ac44348aacd594c61bb5,62c539b8bee84d668969a53b,2022-07-06_09h54.50.283,Colour_Asymmetry_Pilot,2022.1.3,Win32,59.99160118,62c50e9c1127f2cd403a315f,,,,,,,,,,,,,,,,,,,,,,,,,,,,,,,,,,,,,,,,,,,,,,,,,,,,,,,,,,,,,,,,,,,,,,,,,,,,,,,,,,,,,,,,,,,,,,,,,,,,,,,,,,,,,,,,,,,,,,,,,,,,,,,,,,,,,,,,,,,,,,,,,,,,,,,,,,,,,,,,,,,
0,20,20,50,1,,60f4ac44348aacd594c61bb5,62c539b8bee84d668969a53b,2022-07-06_09h54.50.283,Colour_Asymmetry_Pilot,2022.1.3,Win32,59.99160118,62c50e9c1127f2cd403a315f,,,,,,,,,,,,,,,,,,,,,,,,,,,,,,,,,,,,,,,,,,,,,,,,,,,,,,,,,,,,,,,,,,,,,,,,,,,,,,,,,,,,,,,,,,,,,,,,,,,,,,,,,,,,,,,,,,,,,,,,,,,,,,,,,,,,,,,,,,,,,,,,,,,,,,,,,,,,,,,,,,,
0,21,21,20,1,,60f4ac44348aacd594c61bb5,62c539b8bee84d668969a53b,2022-07-06_09h54.50.283,Colour_Asymmetry_Pilot,2022.1.3,Win32,59.99160118,62c50e9c1127f2cd403a315f,,,,,,,,,,,,,,,,,,,,,,,,,,,,,,,,,,,,,,,,,,,,,,,,,,,,,,,,,,,,,,,,,,,,,,,,,,,,,,,,,,,,,,,,,,,,,,,,,,,,,,,,,,,,,,,,,,,,,,,,,,,,,,,,,,,,,,,,,,,,,,,,,,,,,,,,,,,,,,,,,,,
0,22,22,48,1,,60f4ac44348aacd594c61bb5,62c539b8bee84d668969a53b,2022-07-06_09h54.50.283,Colour_Asymmetry_Pilot,2022.1.3,Win32,59.99160118,62c50e9c1127f2cd403a315f,,,,,,,,,,,,,,,,,,,,,,,,,,,,,,,,,,,,,,,,,,,,,,,,,,,,,,,,,,,,,,,,,,,,,,,,,,,,,,,,,,,,,,,,,,,,,,,,,,,,,,,,,,,,,,,,,,,,,,,,,,,,,,,,,,,,,,,,,,,,,,,,,,,,,,,,,,,,,,,,,,,
0,23,23,54,1,,60f4ac44348aacd594c61bb5,62c539b8bee84d668969a53b,2022-07-06_09h54.50.283,Colour_Asymmetry_Pilot,2022.1.3,Win32,59.99160118,62c50e9c1127f2cd403a315f,,,,,,,,,,,,,,,,,,,,,,,,,,,,,,,,,,,,,,,,,,,,,,,,,,,,,,,,,,,,,,,,,,,,,,,,,,,,,,,,,,,,,,,,,,,,,,,,,,,,,,,,,,,,,,,,,,,,,,,,,,,,,,,,,,,,,,,,,,,,,,,,,,,,,,,,,,,,,,,,,,,
0,24,24,42,1,,60f4ac44348aacd594c61bb5,62c539b8bee84d668969a53b,2022-07-06_09h54.50.283,Colour_Asymmetry_Pilot,2022.1.3,Win32,59.99160118,62c50e9c1127f2cd403a315f,,,,,,,,,,,,,,,,,,,,,,,,,,,,,,,,,,,,,,,,,,,,,,,,,,,,,,,,,,,,,,,,,,,,,,,,,,,,,,,,,,,,,,,,,,,,,,,,,,,,,,,,,,,,,,,,,,,,,,,,,,,,,,,,,,,,,,,,,,,,,,,,,,,,,,,,,,,,,,,,,,,
0,25,25,89,1,,60f4ac44348aacd594c61bb5,62c539b8bee84d668969a53b,2022-07-06_09h54.50.283,Colour_Asymmetry_Pilot,2022.1.3,Win32,59.99160118,62c50e9c1127f2cd403a315f,,,,,,,,,,,,,,,,,,,,,,,,,,,,,,,,,,,,,,,,,,,,,,,,,,,,,,,,,,,,,,,,,,,,,,,,,,,,,,,,,,,,,,,,,,,,,,,,,,,,,,,,,,,,,,,,,,,,,,,,,,,,,,,,,,,,,,,,,,,,,,,,,,,,,,,,,,,,,,,,,,,
0,26,26,25,1,,60f4ac44348aacd594c61bb5,62c539b8bee84d668969a53b,2022-07-06_09h54.50.283,Colour_Asymmetry_Pilot,2022.1.3,Win32,59.99160118,62c50e9c1127f2cd403a315f,,,,,,,,,,,,,,,,,,,,,,,,,,,,,,,,,,,,,,,,,,,,,,,,,,,,,,,,,,,,,,,,,,,,,,,,,,,,,,,,,,,,,,,,,,,,,,,,,,,,,,,,,,,,,,,,,,,,,,,,,,,,,,,,,,,,,,,,,,,,,,,,,,,,,,,,,,,,,,,,,,,
0,27,27,87,1,,60f4ac44348aacd594c61bb5,62c539b8bee84d668969a53b,2022-07-06_09h54.50.283,Colour_Asymmetry_Pilot,2022.1.3,Win32,59.99160118,62c50e9c1127f2cd403a315f,,,,,,,,,,,,,,,,,,,,,,,,,,,,,,,,,,,,,,,,,,,,,,,,,,,,,,,,,,,,,,,,,,,,,,,,,,,,,,,,,,,,,,,,,,,,,,,,,,,,,,,,,,,,,,,,,,,,,,,,,,,,,,,,,,,,,,,,,,,,,,,,,,,,,,,,,,,,,,,,,,,
0,28,28,80,1,,60f4ac44348aacd594c61bb5,62c539b8bee84d668969a53b,2022-07-06_09h54.50.283,Colour_Asymmetry_Pilot,2022.1.3,Win32,59.99160118,62c50e9c1127f2cd403a315f,,,,,,,,,,,,,,,,,,,,,,,,,,,,,,,,,,,,,,,,,,,,,,,,,,,,,,,,,,,,,,,,,,,,,,,,,,,,,,,,,,,,,,,,,,,,,,,,,,,,,,,,,,,,,,,,,,,,,,,,,,,,,,,,,,,,,,,,,,,,,,,,,,,,,,,,,,,,,,,,,,,
0,29,29,74,1,,60f4ac44348aacd594c61bb5,62c539b8bee84d668969a53b,2022-07-06_09h54.50.283,Colour_Asymmetry_Pilot,2022.1.3,Win32,59.99160118,62c50e9c1127f2cd403a315f,,,,,,,,,,,,,,,,,,,,,,,,,,,,,,,,,,,,,,,,,,,,,,,,,,,,,,,,,,,,,,,,,,,,,,,,,,,,,,,,,,,,,,,,,,,,,,,,,,,,,,,,,,,,,,,,,,,,,,,,,,,,,,,,,,,,,,,,,,,,,,,,,,,,,,,,,,,,,,,,,,,
0,30,30,22,1,,60f4ac44348aacd594c61bb5,62c539b8bee84d668969a53b,2022-07-06_09h54.50.283,Colour_Asymmetry_Pilot,2022.1.3,Win32,59.99160118,62c50e9c1127f2cd403a315f,,,,,,,,,,,,,,,,,,,,,,,,,,,,,,,,,,,,,,,,,,,,,,,,,,,,,,,,,,,,,,,,,,,,,,,,,,,,,,,,,,,,,,,,,,,,,,,,,,,,,,,,,,,,,,,,,,,,,,,,,,,,,,,,,,,,,,,,,,,,,,,,,,,,,,,,,,,,,,,,,,,
0,31,31,65,1,,60f4ac44348aacd594c61bb5,62c539b8bee84d668969a53b,2022-07-06_09h54.50.283,Colour_Asymmetry_Pilot,2022.1.3,Win32,59.99160118,62c50e9c1127f2cd403a315f,,,,,,,,,,,,,,,,,,,,,,,,,,,,,,,,,,,,,,,,,,,,,,,,,,,,,,,,,,,,,,,,,,,,,,,,,,,,,,,,,,,,,,,,,,,,,,,,,,,,,,,,,,,,,,,,,,,,,,,,,,,,,,,,,,,,,,,,,,,,,,,,,,,,,,,,,,,,,,,,,,,
0,32,32,72,1,,60f4ac44348aacd594c61bb5,62c539b8bee84d668969a53b,2022-07-06_09h54.50.283,Colour_Asymmetry_Pilot,2022.1.3,Win32,59.99160118,62c50e9c1127f2cd403a315f,,,,,,,,,,,,,,,,,,,,,,,,,,,,,,,,,,,,,,,,,,,,,,,,,,,,,,,,,,,,,,,,,,,,,,,,,,,,,,,,,,,,,,,,,,,,,,,,,,,,,,,,,,,,,,,,,,,,,,,,,,,,,,,,,,,,,,,,,,,,,,,,,,,,,,,,,,,,,,,,,,,
0,33,33,77,1,,60f4ac44348aacd594c61bb5,62c539b8bee84d668969a53b,2022-07-06_09h54.50.283,Colour_Asymmetry_Pilot,2022.1.3,Win32,59.99160118,62c50e9c1127f2cd403a315f,,,,,,,,,,,,,,,,,,,,,,,,,,,,,,,,,,,,,,,,,,,,,,,,,,,,,,,,,,,,,,,,,,,,,,,,,,,,,,,,,,,,,,,,,,,,,,,,,,,,,,,,,,,,,,,,,,,,,,,,,,,,,,,,,,,,,,,,,,,,,,,,,,,,,,,,,,,,,,,,,,,
0,34,34,0,1,,60f4ac44348aacd594c61bb5,62c539b8bee84d668969a53b,2022-07-06_09h54.50.283,Colour_Asymmetry_Pilot,2022.1.3,Win32,59.99160118,62c50e9c1127f2cd403a315f,,,,,,,,,,,,,,,,,,,,,,,,,,,,,,,,,,,,,,,,,,,,,,,,,,,,,,,,,,,,,,,,,,,,,,,,,,,,,,,,,,,,,,,,,,,,,,,,,,,,,,,,,,,,,,,,,,,,,,,,,,,,,,,,,,,,,,,,,,,,,,,,,,,,,,,,,,,,,,,,,,,
0,35,35,44,1,,60f4ac44348aacd594c61bb5,62c539b8bee84d668969a53b,2022-07-06_09h54.50.283,Colour_Asymmetry_Pilot,2022.1.3,Win32,59.99160118,62c50e9c1127f2cd403a315f,,,,,,,,,,,,,,,,,,,,,,,,,,,,,,,,,,,,,,,,,,,,,,,,,,,,,,,,,,,,,,,,,,,,,,,,,,,,,,,,,,,,,,,,,,,,,,,,,,,,,,,,,,,,,,,,,,,,,,,,,,,,,,,,,,,,,,,,,,,,,,,,,,,,,,,,,,,,,,,,,,,
0,36,36,6,1,,60f4ac44348aacd594c61bb5,62c539b8bee84d668969a53b,2022-07-06_09h54.50.283,Colour_Asymmetry_Pilot,2022.1.3,Win32,59.99160118,62c50e9c1127f2cd403a315f,,,,,,,,,,,,,,,,,,,,,,,,,,,,,,,,,,,,,,,,,,,,,,,,,,,,,,,,,,,,,,,,,,,,,,,,,,,,,,,,,,,,,,,,,,,,,,,,,,,,,,,,,,,,,,,,,,,,,,,,,,,,,,,,,,,,,,,,,,,,,,,,,,,,,,,,,,,,,,,,,,,
0,37,37,45,1,,60f4ac44348aacd594c61bb5,62c539b8bee84d668969a53b,2022-07-06_09h54.50.283,Colour_Asymmetry_Pilot,2022.1.3,Win32,59.99160118,62c50e9c1127f2cd403a315f,,,,,,,,,,,,,,,,,,,,,,,,,,,,,,,,,,,,,,,,,,,,,,,,,,,,,,,,,,,,,,,,,,,,,,,,,,,,,,,,,,,,,,,,,,,,,,,,,,,,,,,,,,,,,,,,,,,,,,,,,,,,,,,,,,,,,,,,,,,,,,,,,,,,,,,,,,,,,,,,,,,
0,38,38,19,1,,60f4ac44348aacd594c61bb5,62c539b8bee84d668969a53b,2022-07-06_09h54.50.283,Colour_Asymmetry_Pilot,2022.1.3,Win32,59.99160118,62c50e9c1127f2cd403a315f,,,,,,,,,,,,,,,,,,,,,,,,,,,,,,,,,,,,,,,,,,,,,,,,,,,,,,,,,,,,,,,,,,,,,,,,,,,,,,,,,,,,,,,,,,,,,,,,,,,,,,,,,,,,,,,,,,,,,,,,,,,,,,,,,,,,,,,,,,,,,,,,,,,,,,,,,,,,,,,,,,,
0,39,39,41,1,,60f4ac44348aacd594c61bb5,62c539b8bee84d668969a53b,2022-07-06_09h54.50.283,Colour_Asymmetry_Pilot,2022.1.3,Win32,59.99160118,62c50e9c1127f2cd403a315f,,,,,,,,,,,,,,,,,,,,,,,,,,,,,,,,,,,,,,,,,,,,,,,,,,,,,,,,,,,,,,,,,,,,,,,,,,,,,,,,,,,,,,,,,,,,,,,,,,,,,,,,,,,,,,,,,,,,,,,,,,,,,,,,,,,,,,,,,,,,,,,,,,,,,,,,,,,,,,,,,,,
0,40,40,27,1,,60f4ac44348aacd594c61bb5,62c539b8bee84d668969a53b,2022-07-06_09h54.50.283,Colour_Asymmetry_Pilot,2022.1.3,Win32,59.99160118,62c50e9c1127f2cd403a315f,,,,,,,,,,,,,,,,,,,,,,,,,,,,,,,,,,,,,,,,,,,,,,,,,,,,,,,,,,,,,,,,,,,,,,,,,,,,,,,,,,,,,,,,,,,,,,,,,,,,,,,,,,,,,,,,,,,,,,,,,,,,,,,,,,,,,,,,,,,,,,,,,,,,,,,,,,,,,,,,,,,
0,41,41,13,1,,60f4ac44348aacd594c61bb5,62c539b8bee84d668969a53b,2022-07-06_09h54.50.283,Colour_Asymmetry_Pilot,2022.1.3,Win32,59.99160118,62c50e9c1127f2cd403a315f,,,,,,,,,,,,,,,,,,,,,,,,,,,,,,,,,,,,,,,,,,,,,,,,,,,,,,,,,,,,,,,,,,,,,,,,,,,,,,,,,,,,,,,,,,,,,,,,,,,,,,,,,,,,,,,,,,,,,,,,,,,,,,,,,,,,,,,,,,,,,,,,,,,,,,,,,,,,,,,,,,,
0,42,42,91,1,,60f4ac44348aacd594c61bb5,62c539b8bee84d668969a53b,2022-07-06_09h54.50.283,Colour_Asymmetry_Pilot,2022.1.3,Win32,59.99160118,62c50e9c1127f2cd403a315f,,,,,,,,,,,,,,,,,,,,,,,,,,,,,,,,,,,,,,,,,,,,,,,,,,,,,,,,,,,,,,,,,,,,,,,,,,,,,,,,,,,,,,,,,,,,,,,,,,,,,,,,,,,,,,,,,,,,,,,,,,,,,,,,,,,,,,,,,,,,,,,,,,,,,,,,,,,,,,,,,,,
0,43,43,7,1,,60f4ac44348aacd594c61bb5,62c539b8bee84d668969a53b,2022-07-06_09h54.50.283,Colour_Asymmetry_Pilot,2022.1.3,Win32,59.99160118,62c50e9c1127f2cd403a315f,,,,,,,,,,,,,,,,,,,,,,,,,,,,,,,,,,,,,,,,,,,,,,,,,,,,,,,,,,,,,,,,,,,,,,,,,,,,,,,,,,,,,,,,,,,,,,,,,,,,,,,,,,,,,,,,,,,,,,,,,,,,,,,,,,,,,,,,,,,,,,,,,,,,,,,,,,,,,,,,,,,
0,44,44,69,1,,60f4ac44348aacd594c61bb5,62c539b8bee84d668969a53b,2022-07-06_09h54.50.283,Colour_Asymmetry_Pilot,2022.1.3,Win32,59.99160118,62c50e9c1127f2cd403a315f,,,,,,,,,,,,,,,,,,,,,,,,,,,,,,,,,,,,,,,,,,,,,,,,,,,,,,,,,,,,,,,,,,,,,,,,,,,,,,,,,,,,,,,,,,,,,,,,,,,,,,,,,,,,,,,,,,,,,,,,,,,,,,,,,,,,,,,,,,,,,,,,,,,,,,,,,,,,,,,,,,,
0,45,45,70,1,,60f4ac44348aacd594c61bb5,62c539b8bee84d668969a53b,2022-07-06_09h54.50.283,Colour_Asymmetry_Pilot,2022.1.3,Win32,59.99160118,62c50e9c1127f2cd403a315f,,,,,,,,,,,,,,,,,,,,,,,,,,,,,,,,,,,,,,,,,,,,,,,,,,,,,,,,,,,,,,,,,,,,,,,,,,,,,,,,,,,,,,,,,,,,,,,,,,,,,,,,,,,,,,,,,,,,,,,,,,,,,,,,,,,,,,,,,,,,,,,,,,,,,,,,,,,,,,,,,,,
0,46,46,24,1,,60f4ac44348aacd594c61bb5,62c539b8bee84d668969a53b,2022-07-06_09h54.50.283,Colour_Asymmetry_Pilot,2022.1.3,Win32,59.99160118,62c50e9c1127f2cd403a315f,,,,,,,,,,,,,,,,,,,,,,,,,,,,,,,,,,,,,,,,,,,,,,,,,,,,,,,,,,,,,,,,,,,,,,,,,,,,,,,,,,,,,,,,,,,,,,,,,,,,,,,,,,,,,,,,,,,,,,,,,,,,,,,,,,,,,,,,,,,,,,,,,,,,,,,,,,,,,,,,,,,
0,47,47,78,1,,60f4ac44348aacd594c61bb5,62c539b8bee84d668969a53b,2022-07-06_09h54.50.283,Colour_Asymmetry_Pilot,2022.1.3,Win32,59.99160118,62c50e9c1127f2cd403a315f,,,,,,,,,,,,,,,,,,,,,,,,,,,,,,,,,,,,,,,,,,,,,,,,,,,,,,,,,,,,,,,,,,,,,,,,,,,,,,,,,,,,,,,,,,,,,,,,,,,,,,,,,,,,,,,,,,,,,,,,,,,,,,,,,,,,,,,,,,,,,,,,,,,,,,,,,,,,,,,,,,,
0,48,48,31,1,,60f4ac44348aacd594c61bb5,62c539b8bee84d668969a53b,2022-07-06_09h54.50.283,Colour_Asymmetry_Pilot,2022.1.3,Win32,59.99160118,62c50e9c1127f2cd403a315f,,,,,,,,,,,,,,,,,,,,,,,,,,,,,,,,,,,,,,,,,,,,,,,,,,,,,,,,,,,,,,,,,,,,,,,,,,,,,,,,,,,,,,,,,,,,,,,,,,,,,,,,,,,,,,,,,,,,,,,,,,,,,,,,,,,,,,,,,,,,,,,,,,,,,,,,,,,,,,,,,,,
0,49,49,83,1,,60f4ac44348aacd594c61bb5,62c539b8bee84d668969a53b,2022-07-06_09h54.50.283,Colour_Asymmetry_Pilot,2022.1.3,Win32,59.99160118,62c50e9c1127f2cd403a315f,,,,,,,,,,,,,,,,,,,,,,,,,,,,,,,,,,,,,,,,,,,,,,,,,,,,,,,,,,,,,,,,,,,,,,,,,,,,,,,,,,,,,,,,,,,,,,,,,,,,,,,,,,,,,,,,,,,,,,,,,,,,,,,,,,,,,,,,,,,,,,,,,,,,,,,,,,,,,,,,,,,
0,50,50,39,1,,60f4ac44348aacd594c61bb5,62c539b8bee84d668969a53b,2022-07-06_09h54.50.283,Colour_Asymmetry_Pilot,2022.1.3,Win32,59.99160118,62c50e9c1127f2cd403a315f,,,,,,,,,,,,,,,,,,,,,,,,,,,,,,,,,,,,,,,,,,,,,,,,,,,,,,,,,,,,,,,,,,,,,,,,,,,,,,,,,,,,,,,,,,,,,,,,,,,,,,,,,,,,,,,,,,,,,,,,,,,,,,,,,,,,,,,,,,,,,,,,,,,,,,,,,,,,,,,,,,,
0,51,51,15,1,,60f4ac44348aacd594c61bb5,62c539b8bee84d668969a53b,2022-07-06_09h54.50.283,Colour_Asymmetry_Pilot,2022.1.3,Win32,59.99160118,62c50e9c1127f2cd403a315f,,,,,,,,,,,,,,,,,,,,,,,,,,,,,,,,,,,,,,,,,,,,,,,,,,,,,,,,,,,,,,,,,,,,,,,,,,,,,,,,,,,,,,,,,,,,,,,,,,,,,,,,,,,,,,,,,,,,,,,,,,,,,,,,,,,,,,,,,,,,,,,,,,,,,,,,,,,,,,,,,,,
0,52,52,47,1,,60f4ac44348aacd594c61bb5,62c539b8bee84d668969a53b,2022-07-06_09h54.50.283,Colour_Asymmetry_Pilot,2022.1.3,Win32,59.99160118,62c50e9c1127f2cd403a315f,,,,,,,,,,,,,,,,,,,,,,,,,,,,,,,,,,,,,,,,,,,,,,,,,,,,,,,,,,,,,,,,,,,,,,,,,,,,,,,,,,,,,,,,,,,,,,,,,,,,,,,,,,,,,,,,,,,,,,,,,,,,,,,,,,,,,,,,,,,,,,,,,,,,,,,,,,,,,,,,,,,
0,53,53,86,1,,60f4ac44348aacd594c61bb5,62c539b8bee84d668969a53b,2022-07-06_09h54.50.283,Colour_Asymmetry_Pilot,2022.1.3,Win32,59.99160118,62c50e9c1127f2cd403a315f,,,,,,,,,,,,,,,,,,,,,,,,,,,,,,,,,,,,,,,,,,,,,,,,,,,,,,,,,,,,,,,,,,,,,,,,,,,,,,,,,,,,,,,,,,,,,,,,,,,,,,,,,,,,,,,,,,,,,,,,,,,,,,,,,,,,,,,,,,,,,,,,,,,,,,,,,,,,,,,,,,,
0,54,54,21,1,,60f4ac44348aacd594c61bb5,62c539b8bee84d668969a53b,2022-07-06_09h54.50.283,Colour_Asymmetry_Pilot,2022.1.3,Win32,59.99160118,62c50e9c1127f2cd403a315f,,,,,,,,,,,,,,,,,,,,,,,,,,,,,,,,,,,,,,,,,,,,,,,,,,,,,,,,,,,,,,,,,,,,,,,,,,,,,,,,,,,,,,,,,,,,,,,,,,,,,,,,,,,,,,,,,,,,,,,,,,,,,,,,,,,,,,,,,,,,,,,,,,,,,,,,,,,,,,,,,,,
0,55,55,5,1,,60f4ac44348aacd594c61bb5,62c539b8bee84d668969a53b,2022-07-06_09h54.50.283,Colour_Asymmetry_Pilot,2022.1.3,Win32,59.99160118,62c50e9c1127f2cd403a315f,,,,,,,,,,,,,,,,,,,,,,,,,,,,,,,,,,,,,,,,,,,,,,,,,,,,,,,,,,,,,,,,,,,,,,,,,,,,,,,,,,,,,,,,,,,,,,,,,,,,,,,,,,,,,,,,,,,,,,,,,,,,,,,,,,,,,,,,,,,,,,,,,,,,,,,,,,,,,,,,,,,
0,56,56,51,1,,60f4ac44348aacd594c61bb5,62c539b8bee84d668969a53b,2022-07-06_09h54.50.283,Colour_Asymmetry_Pilot,2022.1.3,Win32,59.99160118,62c50e9c1127f2cd403a315f,,,,,,,,,,,,,,,,,,,,,,,,,,,,,,,,,,,,,,,,,,,,,,,,,,,,,,,,,,,,,,,,,,,,,,,,,,,,,,,,,,,,,,,,,,,,,,,,,,,,,,,,,,,,,,,,,,,,,,,,,,,,,,,,,,,,,,,,,,,,,,,,,,,,,,,,,,,,,,,,,,,
0,57,57,76,1,,60f4ac44348aacd594c61bb5,62c539b8bee84d668969a53b,2022-07-06_09h54.50.283,Colour_Asymmetry_Pilot,2022.1.3,Win32,59.99160118,62c50e9c1127f2cd403a315f,,,,,,,,,,,,,,,,,,,,,,,,,,,,,,,,,,,,,,,,,,,,,,,,,,,,,,,,,,,,,,,,,,,,,,,,,,,,,,,,,,,,,,,,,,,,,,,,,,,,,,,,,,,,,,,,,,,,,,,,,,,,,,,,,,,,,,,,,,,,,,,,,,,,,,,,,,,,,,,,,,,
0,58,58,38,1,,60f4ac44348aacd594c61bb5,62c539b8bee84d668969a53b,2022-07-06_09h54.50.283,Colour_Asymmetry_Pilot,2022.1.3,Win32,59.99160118,62c50e9c1127f2cd403a315f,,,,,,,,,,,,,,,,,,,,,,,,,,,,,,,,,,,,,,,,,,,,,,,,,,,,,,,,,,,,,,,,,,,,,,,,,,,,,,,,,,,,,,,,,,,,,,,,,,,,,,,,,,,,,,,,,,,,,,,,,,,,,,,,,,,,,,,,,,,,,,,,,,,,,,,,,,,,,,,,,,,
0,59,59,11,1,,60f4ac44348aacd594c61bb5,62c539b8bee84d668969a53b,2022-07-06_09h54.50.283,Colour_Asymmetry_Pilot,2022.1.3,Win32,59.99160118,62c50e9c1127f2cd403a315f,,,,,,,,,,,,,,,,,,,,,,,,,,,,,,,,,,,,,,,,,,,,,,,,,,,,,,,,,,,,,,,,,,,,,,,,,,,,,,,,,,,,,,,,,,,,,,,,,,,,,,,,,,,,,,,,,,,,,,,,,,,,,,,,,,,,,,,,,,,,,,,,,,,,,,,,,,,,,,,,,,,
0,60,60,12,1,,60f4ac44348aacd594c61bb5,62c539b8bee84d668969a53b,2022-07-06_09h54.50.283,Colour_Asymmetry_Pilot,2022.1.3,Win32,59.99160118,62c50e9c1127f2cd403a315f,,,,,,,,,,,,,,,,,,,,,,,,,,,,,,,,,,,,,,,,,,,,,,,,,,,,,,,,,,,,,,,,,,,,,,,,,,,,,,,,,,,,,,,,,,,,,,,,,,,,,,,,,,,,,,,,,,,,,,,,,,,,,,,,,,,,,,,,,,,,,,,,,,,,,,,,,,,,,,,,,,,
0,61,61,79,1,,60f4ac44348aacd594c61bb5,62c539b8bee84d668969a53b,2022-07-06_09h54.50.283,Colour_Asymmetry_Pilot,2022.1.3,Win32,59.99160118,62c50e9c1127f2cd403a315f,,,,,,,,,,,,,,,,,,,,,,,,,,,,,,,,,,,,,,,,,,,,,,,,,,,,,,,,,,,,,,,,,,,,,,,,,,,,,,,,,,,,,,,,,,,,,,,,,,,,,,,,,,,,,,,,,,,,,,,,,,,,,,,,,,,,,,,,,,,,,,,,,,,,,,,,,,,,,,,,,,,
0,62,62,10,1,,60f4ac44348aacd594c61bb5,62c539b8bee84d668969a53b,2022-07-06_09h54.50.283,Colour_Asymmetry_Pilot,2022.1.3,Win32,59.99160118,62c50e9c1127f2cd403a315f,,,,,,,,,,,,,,,,,,,,,,,,,,,,,,,,,,,,,,,,,,,,,,,,,,,,,,,,,,,,,,,,,,,,,,,,,,,,,,,,,,,,,,,,,,,,,,,,,,,,,,,,,,,,,,,,,,,,,,,,,,,,,,,,,,,,,,,,,,,,,,,,,,,,,,,,,,,,,,,,,,,
0,63,63,84,1,,60f4ac44348aacd594c61bb5,62c539b8bee84d668969a53b,2022-07-06_09h54.50.283,Colour_Asymmetry_Pilot,2022.1.3,Win32,59.99160118,62c50e9c1127f2cd403a315f,,,,,,,,,,,,,,,,,,,,,,,,,,,,,,,,,,,,,,,,,,,,,,,,,,,,,,,,,,,,,,,,,,,,,,,,,,,,,,,,,,,,,,,,,,,,,,,,,,,,,,,,,,,,,,,,,,,,,,,,,,,,,,,,,,,,,,,,,,,,,,,,,,,,,,,,,,,,,,,,,,,
0,64,64,8,1,,60f4ac44348aacd594c61bb5,62c539b8bee84d668969a53b,2022-07-06_09h54.50.283,Colour_Asymmetry_Pilot,2022.1.3,Win32,59.99160118,62c50e9c1127f2cd403a315f,,,,,,,,,,,,,,,,,,,,,,,,,,,,,,,,,,,,,,,,,,,,,,,,,,,,,,,,,,,,,,,,,,,,,,,,,,,,,,,,,,,,,,,,,,,,,,,,,,,,,,,,,,,,,,,,,,,,,,,,,,,,,,,,,,,,,,,,,,,,,,,,,,,,,,,,,,,,,,,,,,,
0,65,65,68,1,,60f4ac44348aacd594c61bb5,62c539b8bee84d668969a53b,2022-07-06_09h54.50.283,Colour_Asymmetry_Pilot,2022.1.3,Win32,59.99160118,62c50e9c1127f2cd403a315f,,,,,,,,,,,,,,,,,,,,,,,,,,,,,,,,,,,,,,,,,,,,,,,,,,,,,,,,,,,,,,,,,,,,,,,,,,,,,,,,,,,,,,,,,,,,,,,,,,,,,,,,,,,,,,,,,,,,,,,,,,,,,,,,,,,,,,,,,,,,,,,,,,,,,,,,,,,,,,,,,,,
0,66,66,56,1,,60f4ac44348aacd594c61bb5,62c539b8bee84d668969a53b,2022-07-06_09h54.50.283,Colour_Asymmetry_Pilot,2022.1.3,Win32,59.99160118,62c50e9c1127f2cd403a315f,,,,,,,,,,,,,,,,,,,,,,,,,,,,,,,,,,,,,,,,,,,,,,,,,,,,,,,,,,,,,,,,,,,,,,,,,,,,,,,,,,,,,,,,,,,,,,,,,,,,,,,,,,,,,,,,,,,,,,,,,,,,,,,,,,,,,,,,,,,,,,,,,,,,,,,,,,,,,,,,,,,
0,67,67,9,1,,60f4ac44348aacd594c61bb5,62c539b8bee84d668969a53b,2022-07-06_09h54.50.283,Colour_Asymmetry_Pilot,2022.1.3,Win32,59.99160118,62c50e9c1127f2cd403a315f,,,,,,,,,,,,,,,,,,,,,,,,,,,,,,,,,,,,,,,,,,,,,,,,,,,,,,,,,,,,,,,,,,,,,,,,,,,,,,,,,,,,,,,,,,,,,,,,,,,,,,,,,,,,,,,,,,,,,,,,,,,,,,,,,,,,,,,,,,,,,,,,,,,,,,,,,,,,,,,,,,,
0,68,68,85,1,,60f4ac44348aacd594c61bb5,62c539b8bee84d668969a53b,2022-07-06_09h54.50.283,Colour_Asymmetry_Pilot,2022.1.3,Win32,59.99160118,62c50e9c1127f2cd403a315f,,,,,,,,,,,,,,,,,,,,,,,,,,,,,,,,,,,,,,,,,,,,,,,,,,,,,,,,,,,,,,,,,,,,,,,,,,,,,,,,,,,,,,,,,,,,,,,,,,,,,,,,,,,,,,,,,,,,,,,,,,,,,,,,,,,,,,,,,,,,,,,,,,,,,,,,,,,,,,,,,,,
0,69,69,40,1,,60f4ac44348aacd594c61bb5,62c539b8bee84d668969a53b,2022-07-06_09h54.50.283,Colour_Asymmetry_Pilot,2022.1.3,Win32,59.99160118,62c50e9c1127f2cd403a315f,,,,,,,,,,,,,,,,,,,,,,,,,,,,,,,,,,,,,,,,,,,,,,,,,,,,,,,,,,,,,,,,,,,,,,,,,,,,,,,,,,,,,,,,,,,,,,,,,,,,,,,,,,,,,,,,,,,,,,,,,,,,,,,,,,,,,,,,,,,,,,,,,,,,,,,,,,,,,,,,,,,
0,70,70,32,1,,60f4ac44348aacd594c61bb5,62c539b8bee84d668969a53b,2022-07-06_09h54.50.283,Colour_Asymmetry_Pilot,2022.1.3,Win32,59.99160118,62c50e9c1127f2cd403a315f,,,,,,,,,,,,,,,,,,,,,,,,,,,,,,,,,,,,,,,,,,,,,,,,,,,,,,,,,,,,,,,,,,,,,,,,,,,,,,,,,,,,,,,,,,,,,,,,,,,,,,,,,,,,,,,,,,,,,,,,,,,,,,,,,,,,,,,,,,,,,,,,,,,,,,,,,,,,,,,,,,,
0,71,71,49,1,,60f4ac44348aacd594c61bb5,62c539b8bee84d668969a53b,2022-07-06_09h54.50.283,Colour_Asymmetry_Pilot,2022.1.3,Win32,59.99160118,62c50e9c1127f2cd403a315f,,,,,,,,,,,,,,,,,,,,,,,,,,,,,,,,,,,,,,,,,,,,,,,,,,,,,,,,,,,,,,,,,,,,,,,,,,,,,,,,,,,,,,,,,,,,,,,,,,,,,,,,,,,,,,,,,,,,,,,,,,,,,,,,,,,,,,,,,,,,,,,,,,,,,,,,,,,,,,,,,,,
0,72,72,57,1,,60f4ac44348aacd594c61bb5,62c539b8bee84d668969a53b,2022-07-06_09h54.50.283,Colour_Asymmetry_Pilot,2022.1.3,Win32,59.99160118,62c50e9c1127f2cd403a315f,,,,,,,,,,,,,,,,,,,,,,,,,,,,,,,,,,,,,,,,,,,,,,,,,,,,,,,,,,,,,,,,,,,,,,,,,,,,,,,,,,,,,,,,,,,,,,,,,,,,,,,,,,,,,,,,,,,,,,,,,,,,,,,,,,,,,,,,,,,,,,,,,,,,,,,,,,,,,,,,,,,
0,73,73,53,1,,60f4ac44348aacd594c61bb5,62c539b8bee84d668969a53b,2022-07-06_09h54.50.283,Colour_Asymmetry_Pilot,2022.1.3,Win32,59.99160118,62c50e9c1127f2cd403a315f,,,,,,,,,,,,,,,,,,,,,,,,,,,,,,,,,,,,,,,,,,,,,,,,,,,,,,,,,,,,,,,,,,,,,,,,,,,,,,,,,,,,,,,,,,,,,,,,,,,,,,,,,,,,,,,,,,,,,,,,,,,,,,,,,,,,,,,,,,,,,,,,,,,,,,,,,,,,,,,,,,,
0,74,74,75,1,,60f4ac44348aacd594c61bb5,62c539b8bee84d668969a53b,2022-07-06_09h54.50.283,Colour_Asymmetry_Pilot,2022.1.3,Win32,59.99160118,62c50e9c1127f2cd403a315f,,,,,,,,,,,,,,,,,,,,,,,,,,,,,,,,,,,,,,,,,,,,,,,,,,,,,,,,,,,,,,,,,,,,,,,,,,,,,,,,,,,,,,,,,,,,,,,,,,,,,,,,,,,,,,,,,,,,,,,,,,,,,,,,,,,,,,,,,,,,,,,,,,,,,,,,,,,,,,,,,,,
0,75,75,58,1,,60f4ac44348aacd594c61bb5,62c539b8bee84d668969a53b,2022-07-06_09h54.50.283,Colour_Asymmetry_Pilot,2022.1.3,Win32,59.99160118,62c50e9c1127f2cd403a315f,,,,,,,,,,,,,,,,,,,,,,,,,,,,,,,,,,,,,,,,,,,,,,,,,,,,,,,,,,,,,,,,,,,,,,,,,,,,,,,,,,,,,,,,,,,,,,,,,,,,,,,,,,,,,,,,,,,,,,,,,,,,,,,,,,,,,,,,,,,,,,,,,,,,,,,,,,,,,,,,,,,
0,76,76,90,1,,60f4ac44348aacd594c61bb5,62c539b8bee84d668969a53b,2022-07-06_09h54.50.283,Colour_Asymmetry_Pilot,2022.1.3,Win32,59.99160118,62c50e9c1127f2cd403a315f,,,,,,,,,,,,,,,,,,,,,,,,,,,,,,,,,,,,,,,,,,,,,,,,,,,,,,,,,,,,,,,,,,,,,,,,,,,,,,,,,,,,,,,,,,,,,,,,,,,,,,,,,,,,,,,,,,,,,,,,,,,,,,,,,,,,,,,,,,,,,,,,,,,,,,,,,,,,,,,,,,,
0,77,77,59,1,,60f4ac44348aacd594c61bb5,62c539b8bee84d668969a53b,2022-07-06_09h54.50.283,Colour_Asymmetry_Pilot,2022.1.3,Win32,59.99160118,62c50e9c1127f2cd403a315f,,,,,,,,,,,,,,,,,,,,,,,,,,,,,,,,,,,,,,,,,,,,,,,,,,,,,,,,,,,,,,,,,,,,,,,,,,,,,,,,,,,,,,,,,,,,,,,,,,,,,,,,,,,,,,,,,,,,,,,,,,,,,,,,,,,,,,,,,,,,,,,,,,,,,,,,,,,,,,,,,,,
0,78,78,81,1,,60f4ac44348aacd594c61bb5,62c539b8bee84d668969a53b,2022-07-06_09h54.50.283,Colour_Asymmetry_Pilot,2022.1.3,Win32,59.99160118,62c50e9c1127f2cd403a315f,,,,,,,,,,,,,,,,,,,,,,,,,,,,,,,,,,,,,,,,,,,,,,,,,,,,,,,,,,,,,,,,,,,,,,,,,,,,,,,,,,,,,,,,,,,,,,,,,,,,,,,,,,,,,,,,,,,,,,,,,,,,,,,,,,,,,,,,,,,,,,,,,,,,,,,,,,,,,,,,,,,
0,79,79,46,1,,60f4ac44348aacd594c61bb5,62c539b8bee84d668969a53b,2022-07-06_09h54.50.283,Colour_Asymmetry_Pilot,2022.1.3,Win32,59.99160118,62c50e9c1127f2cd403a315f,,,,,,,,,,,,,,,,,,,,,,,,,,,,,,,,,,,,,,,,,,,,,,,,,,,,,,,,,,,,,,,,,,,,,,,,,,,,,,,,,,,,,,,,,,,,,,,,,,,,,,,,,,,,,,,,,,,,,,,,,,,,,,,,,,,,,,,,,,,,,,,,,,,,,,,,,,,,,,,,,,,
0,80,80,36,1,,60f4ac44348aacd594c61bb5,62c539b8bee84d668969a53b,2022-07-06_09h54.50.283,Colour_Asymmetry_Pilot,2022.1.3,Win32,59.99160118,62c50e9c1127f2cd403a315f,,,,,,,,,,,,,,,,,,,,,,,,,,,,,,,,,,,,,,,,,,,,,,,,,,,,,,,,,,,,,,,,,,,,,,,,,,,,,,,,,,,,,,,,,,,,,,,,,,,,,,,,,,,,,,,,,,,,,,,,,,,,,,,,,,,,,,,,,,,,,,,,,,,,,,,,,,,,,,,,,,,
0,81,81,33,1,,60f4ac44348aacd594c61bb5,62c539b8bee84d668969a53b,2022-07-06_09h54.50.283,Colour_Asymmetry_Pilot,2022.1.3,Win32,59.99160118,62c50e9c1127f2cd403a315f,,,,,,,,,,,,,,,,,,,,,,,,,,,,,,,,,,,,,,,,,,,,,,,,,,,,,,,,,,,,,,,,,,,,,,,,,,,,,,,,,,,,,,,,,,,,,,,,,,,,,,,,,,,,,,,,,,,,,,,,,,,,,,,,,,,,,,,,,,,,,,,,,,,,,,,,,,,,,,,,,,,
0,82,82,14,1,,60f4ac44348aacd594c61bb5,62c539b8bee84d668969a53b,2022-07-06_09h54.50.283,Colour_Asymmetry_Pilot,2022.1.3,Win32,59.99160118,62c50e9c1127f2cd403a315f,,,,,,,,,,,,,,,,,,,,,,,,,,,,,,,,,,,,,,,,,,,,,,,,,,,,,,,,,,,,,,,,,,,,,,,,,,,,,,,,,,,,,,,,,,,,,,,,,,,,,,,,,,,,,,,,,,,,,,,,,,,,,,,,,,,,,,,,,,,,,,,,,,,,,,,,,,,,,,,,,,,
0,83,83,28,1,,60f4ac44348aacd594c61bb5,62c539b8bee84d668969a53b,2022-07-06_09h54.50.283,Colour_Asymmetry_Pilot,2022.1.3,Win32,59.99160118,62c50e9c1127f2cd403a315f,,,,,,,,,,,,,,,,,,,,,,,,,,,,,,,,,,,,,,,,,,,,,,,,,,,,,,,,,,,,,,,,,,,,,,,,,,,,,,,,,,,,,,,,,,,,,,,,,,,,,,,,,,,,,,,,,,,,,,,,,,,,,,,,,,,,,,,,,,,,,,,,,,,,,,,,,,,,,,,,,,,
0,84,84,2,1,,60f4ac44348aacd594c61bb5,62c539b8bee84d668969a53b,2022-07-06_09h54.50.283,Colour_Asymmetry_Pilot,2022.1.3,Win32,59.99160118,62c50e9c1127f2cd403a315f,,,,,,,,,,,,,,,,,,,,,,,,,,,,,,,,,,,,,,,,,,,,,,,,,,,,,,,,,,,,,,,,,,,,,,,,,,,,,,,,,,,,,,,,,,,,,,,,,,,,,,,,,,,,,,,,,,,,,,,,,,,,,,,,,,,,,,,,,,,,,,,,,,,,,,,,,,,,,,,,,,,
0,85,85,37,1,,60f4ac44348aacd594c61bb5,62c539b8bee84d668969a53b,2022-07-06_09h54.50.283,Colour_Asymmetry_Pilot,2022.1.3,Win32,59.99160118,62c50e9c1127f2cd403a315f,,,,,,,,,,,,,,,,,,,,,,,,,,,,,,,,,,,,,,,,,,,,,,,,,,,,,,,,,,,,,,,,,,,,,,,,,,,,,,,,,,,,,,,,,,,,,,,,,,,,,,,,,,,,,,,,,,,,,,,,,,,,,,,,,,,,,,,,,,,,,,,,,,,,,,,,,,,,,,,,,,,
0,86,86,60,1,,60f4ac44348aacd594c61bb5,62c539b8bee84d668969a53b,2022-07-06_09h54.50.283,Colour_Asymmetry_Pilot,2022.1.3,Win32,59.99160118,62c50e9c1127f2cd403a315f,,,,,,,,,,,,,,,,,,,,,,,,,,,,,,,,,,,,,,,,,,,,,,,,,,,,,,,,,,,,,,,,,,,,,,,,,,,,,,,,,,,,,,,,,,,,,,,,,,,,,,,,,,,,,,,,,,,,,,,,,,,,,,,,,,,,,,,,,,,,,,,,,,,,,,,,,,,,,,,,,,,
0,87,87,4,1,,60f4ac44348aacd594c61bb5,62c539b8bee84d668969a53b,2022-07-06_09h54.50.283,Colour_Asymmetry_Pilot,2022.1.3,Win32,59.99160118,62c50e9c1127f2cd403a315f,,,,,,,,,,,,,,,,,,,,,,,,,,,,,,,,,,,,,,,,,,,,,,,,,,,,,,,,,,,,,,,,,,,,,,,,,,,,,,,,,,,,,,,,,,,,,,,,,,,,,,,,,,,,,,,,,,,,,,,,,,,,,,,,,,,,,,,,,,,,,,,,,,,,,,,,,,,,,,,,,,,
0,88,88,1,1,,60f4ac44348aacd594c61bb5,62c539b8bee84d668969a53b,2022-07-06_09h54.50.283,Colour_Asymmetry_Pilot,2022.1.3,Win32,59.99160118,62c50e9c1127f2cd403a315f,,,,,,,,,,,,,,,,,,,,,,,,,,,,,,,,,,,,,,,,,,,,,,,,,,,,,,,,,,,,,,,,,,,,,,,,,,,,,,,,,,,,,,,,,,,,,,,,,,,,,,,,,,,,,,,,,,,,,,,,,,,,,,,,,,,,,,,,,,,,,,,,,,,,,,,,,,,,,,,,,,,
0,89,89,64,1,,60f4ac44348aacd594c61bb5,62c539b8bee84d668969a53b,2022-07-06_09h54.50.283,Colour_Asymmetry_Pilot,2022.1.3,Win32,59.99160118,62c50e9c1127f2cd403a315f,,,,,,,,,,,,,,,,,,,,,,,,,,,,,,,,,,,,,,,,,,,,,,,,,,,,,,,,,,,,,,,,,,,,,,,,,,,,,,,,,,,,,,,,,,,,,,,,,,,,,,,,,,,,,,,,,,,,,,,,,,,,,,,,,,,,,,,,,,,,,,,,,,,,,,,,,,,,,,,,,,,
0,90,90,17,1,,60f4ac44348aacd594c61bb5,62c539b8bee84d668969a53b,2022-07-06_09h54.50.283,Colour_Asymmetry_Pilot,2022.1.3,Win32,59.99160118,62c50e9c1127f2cd403a315f,,,,,,,,,,,,,,,,,,,,,,,,,,,,,,,,,,,,,,,,,,,,,,,,,,,,,,,,,,,,,,,,,,,,,,,,,,,,,,,,,,,,,,,,,,,,,,,,,,,,,,,,,,,,,,,,,,,,,,,,,,,,,,,,,,,,,,,,,,,,,,,,,,,,,,,,,,,,,,,,,,,
0,91,91,26,1,,60f4ac44348aacd594c61bb5,62c539b8bee84d668969a53b,2022-07-06_09h54.50.283,Colour_Asymmetry_Pilot,2022.1.3,Win32,59.99160118,62c50e9c1127f2cd403a315f,,,,,,,,,,,,,,,,,,,,,,,,,,,,,,,,,,,,,,,,,,,,,,,,,,,,,,,,,,,,,,,,,,,,,,,,,,,,,,,,,,,,,,,,,,,,,,,,,,,,,,,,,,,,,,,,,,,,,,,,,,,,,,,,,,,,,,,,,,,,,,,,,,,,,,,,,,,,,,,,,,,
0,92,92,30,1,,60f4ac44348aacd594c61bb5,62c539b8bee84d668969a53b,2022-07-06_09h54.50.283,Colour_Asymmetry_Pilot,2022.1.3,Win32,59.99160118,62c50e9c1127f2cd403a315f,,,,,,,,,,,,,,,,,,,,,,,,,,,,,,,,,,,,,,,,,,,,,,,,,,,,,,,,,,,,,,,,,,,,,,,,,,,,,,,,,,,,,,,,,,,,,,,,,,,,,,,,,,,,,,,,,,,,,,,,,,,,,,,,,,,,,,,,,,,,,,,,,,,,,,,,,,,,,,,,,,,
,,,,,,60f4ac44348aacd594c61bb5,62c539b8bee84d668969a53b,2022-07-06_09h54.50.283,Colour_Asymmetry_Pilot,2022.1.3,Win32,59.99160118,62c50e9c1127f2cd403a315f,0,0,0,53,1,threefour,,,,,,,,,,,,,,,,,,,,,,,,,,,,,,,,,,,,,,,,,,,,,,,,,,,,,,,,,,,,,,,,,,,,,,,,,,,,,,,,,,,,,,,,,,,,,,,,,,,,,,,,,,,,,,,,,,,,,,,,,,,,,,,,,,,,,,,,,,,,,,,,,,,,,,,,,,,,,
,,,,,,60f4ac44348aacd594c61bb5,62c539b8bee84d668969a53b,2022-07-06_09h54.50.283,Colour_Asymmetry_Pilot,2022.1.3,Win32,59.99160118,62c50e9c1127f2cd403a315f,0,1,1,99,1,twofour,,,,,,,,,,,,,,,,,,,,,,,,,,,,,,,,,,,,,,,,,,,,,,,,,,,,,,,,,,,,,,,,,,,,,,,,,,,,,,,,,,,,,,,,,,,,,,,,,,,,,,,,,,,,,,,,,,,,,,,,,,,,,,,,,,,,,,,,,,,,,,,,,,,,,,,,,,,,,
,,,,,,60f4ac44348aacd594c61bb5,62c539b8bee84d668969a53b,2022-07-06_09h54.50.283,Colour_Asymmetry_Pilot,2022.1.3,Win32,59.99160118,62c50e9c1127f2cd403a315f,0,2,2,156,1,threeone,,,,,,,,,,,,,,,,,,,,,,,,,,,,,,,,,,,,,,,,,,,,,,,,,,,,,,,,,,,,,,,,,,,,,,,,,,,,,,,,,,,,,,,,,,,,,,,,,,,,,,,,,,,,,,,,,,,,,,,,,,,,,,,,,,,,,,,,,,,,,,,,,,,,,,,,,,,,,
,,,,,,60f4ac44348aacd594c61bb5,62c539b8bee84d668969a53b,2022-07-06_09h54.50.283,Colour_Asymmetry_Pilot,2022.1.3,Win32,59.99160118,62c50e9c1127f2cd403a315f,0,3,3,64,1,onetwo,,,,,,,,,,,,,,,,,,,,,,,,,,,,,,,,,,,,,,,,,,,,,,,,,,,,,,,,,,,,,,,,,,,,,,,,,,,,,,,,,,,,,,,,,,,,,,,,,,,,,,,,,,,,,,,,,,,,,,,,,,,,,,,,,,,,,,,,,,,,,,,,,,,,,,,,,,,,,
,,,,,,60f4ac44348aacd594c61bb5,62c539b8bee84d668969a53b,2022-07-06_09h54.50.283,Colour_Asymmetry_Pilot,2022.1.3,Win32,59.99160118,62c50e9c1127f2cd403a315f,0,4,4,94,1,fourtwo,,,,,,,,,,,,,,,,,,,,,,,,,,,,,,,,,,,,,,,,,,,,,,,,,,,,,,,,,,,,,,,,,,,,,,,,,,,,,,,,,,,,,,,,,,,,,,,,,,,,,,,,,,,,,,,,,,,,,,,,,,,,,,,,,,,,,,,,,,,,,,,,,,,,,,,,,,,,,
,,,,,,60f4ac44348aacd594c61bb5,62c539b8bee84d668969a53b,2022-07-06_09h54.50.283,Colour_Asymmetry_Pilot,2022.1.3,Win32,59.99160118,62c50e9c1127f2cd403a315f,0,5,5,84,1,threeone,,,,,,,,,,,,,,,,,,,,,,,,,,,,,,,,,,,,,,,,,,,,,,,,,,,,,,,,,,,,,,,,,,,,,,,,,,,,,,,,,,,,,,,,,,,,,,,,,,,,,,,,,,,,,,,,,,,,,,,,,,,,,,,,,,,,,,,,,,,,,,,,,,,,,,,,,,,,,
,,,,,,60f4ac44348aacd594c61bb5,62c539b8bee84d668969a53b,2022-07-06_09h54.50.283,Colour_Asymmetry_Pilot,2022.1.3,Win32,59.99160118,62c50e9c1127f2cd403a315f,0,6,6,132,1,threeone,,,,,,,,,,,,,,,,,,,,,,,,,,,,,,,,,,,,,,,,,,,,,,,,,,,,,,,,,,,,,,,,,,,,,,,,,,,,,,,,,,,,,,,,,,,,,,,,,,,,,,,,,,,,,,,,,,,,,,,,,,,,,,,,,,,,,,,,,,,,,,,,,,,,,,,,,,,,,
,,,,,,60f4ac44348aacd594c61bb5,62c539b8bee84d668969a53b,2022-07-06_09h54.50.283,Colour_Asymmetry_Pilot,2022.1.3,Win32,59.99160118,62c50e9c1127f2cd403a315f,0,7,7,52,1,threeone,,,,,,,,,,,,,,,,,,,,,,,,,,,,,,,,,,,,,,,,,,,,,,,,,,,,,,,,,,,,,,,,,,,,,,,,,,,,,,,,,,,,,,,,,,,,,,,,,,,,,,,,,,,,,,,,,,,,,,,,,,,,,,,,,,,,,,,,,,,,,,,,,,,,,,,,,,,,,
,,,,,,60f4ac44348aacd594c61bb5,62c539b8bee84d668969a53b,2022-07-06_09h54.50.283,Colour_Asymmetry_Pilot,2022.1.3,Win32,59.99160118,62c50e9c1127f2cd403a315f,0,8,8,138,1,twoone,,,,,,,,,,,,,,,,,,,,,,,,,,,,,,,,,,,,,,,,,,,,,,,,,,,,,,,,,,,,,,,,,,,,,,,,,,,,,,,,,,,,,,,,,,,,,,,,,,,,,,,,,,,,,,,,,,,,,,,,,,,,,,,,,,,,,,,,,,,,,,,,,,,,,,,,,,,,,
,,,,,,60f4ac44348aacd594c61bb5,62c539b8bee84d668969a53b,2022-07-06_09h54.50.283,Colour_Asymmetry_Pilot,2022.1.3,Win32,59.99160118,62c50e9c1127f2cd403a315f,0,9,9,117,1,threefour,,,,,,,,,,,,,,,,,,,,,,,,,,,,,,,,,,,,,,,,,,,,,,,,,,,,,,,,,,,,,,,,,,,,,,,,,,,,,,,,,,,,,,,,,,,,,,,,,,,,,,,,,,,,,,,,,,,,,,,,,,,,,,,,,,,,,,,,,,,,,,,,,,,,,,,,,,,,,
,,,,,,60f4ac44348aacd594c61bb5,62c539b8bee84d668969a53b,2022-07-06_09h54.50.283,Colour_Asymmetry_Pilot,2022.1.3,Win32,59.99160118,62c50e9c1127f2cd403a315f,0,10,10,108,1,threeone,,,,,,,,,,,,,,,,,,,,,,,,,,,,,,,,,,,,,,,,,,,,,,,,,,,,,,,,,,,,,,,,,,,,,,,,,,,,,,,,,,,,,,,,,,,,,,,,,,,,,,,,,,,,,,,,,,,,,,,,,,,,,,,,,,,,,,,,,,,,,,,,,,,,,,,,,,,,,
,,,,,,60f4ac44348aacd594c61bb5,62c539b8bee84d668969a53b,2022-07-06_09h54.50.283,Colour_Asymmetry_Pilot,2022.1.3,Win32,59.99160118,62c50e9c1127f2cd403a315f,0,11,11,149,1,threefour,,,,,,,,,,,,,,,,,,,,,,,,,,,,,,,,,,,,,,,,,,,,,,,,,,,,,,,,,,,,,,,,,,,,,,,,,,,,,,,,,,,,,,,,,,,,,,,,,,,,,,,,,,,,,,,,,,,,,,,,,,,,,,,,,,,,,,,,,,,,,,,,,,,,,,,,,,,,,
,,,,,,60f4ac44348aacd594c61bb5,62c539b8bee84d668969a53b,2022-07-06_09h54.50.283,Colour_Asymmetry_Pilot,2022.1.3,Win32,59.99160118,62c50e9c1127f2cd403a315f,0,12,12,119,1,fourthree,,,,,,,,,,,,,,,,,,,,,,,,,,,,,,,,,,,,,,,,,,,,,,,,,,,,,,,,,,,,,,,,,,,,,,,,,,,,,,,,,,,,,,,,,,,,,,,,,,,,,,,,,,,,,,,,,,,,,,,,,,,,,,,,,,,,,,,,,,,,,,,,,,,,,,,,,,,,,
,,,,,,60f4ac44348aacd594c61bb5,62c539b8bee84d668969a53b,2022-07-06_09h54.50.283,Colour_Asymmetry_Pilot,2022.1.3,Win32,59.99160118,62c50e9c1127f2cd403a315f,0,13,13,124,1,threeone,,,,,,,,,,,,,,,,,,,,,,,,,,,,,,,,,,,,,,,,,,,,,,,,,,,,,,,,,,,,,,,,,,,,,,,,,,,,,,,,,,,,,,,,,,,,,,,,,,,,,,,,,,,,,,,,,,,,,,,,,,,,,,,,,,,,,,,,,,,,,,,,,,,,,,,,,,,,,
,,,,,,60f4ac44348aacd594c61bb5,62c539b8bee84d668969a53b,2022-07-06_09h54.50.283,Colour_Asymmetry_Pilot,2022.1.3,Win32,59.99160118,62c50e9c1127f2cd403a315f,0,14,14,25,1,onethree,,,,,,,,,,,,,,,,,,,,,,,,,,,,,,,,,,,,,,,,,,,,,,,,,,,,,,,,,,,,,,,,,,,,,,,,,,,,,,,,,,,,,,,,,,,,,,,,,,,,,,,,,,,,,,,,,,,,,,,,,,,,,,,,,,,,,,,,,,,,,,,,,,,,,,,,,,,,,
,,,,,,60f4ac44348aacd594c61bb5,62c539b8bee84d668969a53b,2022-07-06_09h54.50.283,Colour_Asymmetry_Pilot,2022.1.3,Win32,59.99160118,62c50e9c1127f2cd403a315f,0,15,15,35,1,twofour,,,,,,,,,,,,,,,,,,,,,,,,,,,,,,,,,,,,,,,,,,,,,,,,,,,,,,,,,,,,,,,,,,,,,,,,,,,,,,,,,,,,,,,,,,,,,,,,,,,,,,,,,,,,,,,,,,,,,,,,,,,,,,,,,,,,,,,,,,,,,,,,,,,,,,,,,,,,,
,,,,,,60f4ac44348aacd594c61bb5,62c539b8bee84d668969a53b,2022-07-06_09h54.50.283,Colour_Asymmetry_Pilot,2022.1.3,Win32,59.99160118,62c50e9c1127f2cd403a315f,0,16,16,58,1,twoone,,,,,,,,,,,,,,,,,,,,,,,,,,,,,,,,,,,,,,,,,,,,,,,,,,,,,,,,,,,,,,,,,,,,,,,,,,,,,,,,,,,,,,,,,,,,,,,,,,,,,,,,,,,,,,,,,,,,,,,,,,,,,,,,,,,,,,,,,,,,,,,,,,,,,,,,,,,,,
,,,,,,60f4ac44348aacd594c61bb5,62c539b8bee84d668969a53b,2022-07-06_09h54.50.283,Colour_Asymmetry_Pilot,2022.1.3,Win32,59.99160118,62c50e9c1127f2cd403a315f,0,17,17,150,1,fourtwo,,,,,,,,,,,,,,,,,,,,,,,,,,,,,,,,,,,,,,,,,,,,,,,,,,,,,,,,,,,,,,,,,,,,,,,,,,,,,,,,,,,,,,,,,,,,,,,,,,,,,,,,,,,,,,,,,,,,,,,,,,,,,,,,,,,,,,,,,,,,,,,,,,,,,,,,,,,,,
,,,,,,60f4ac44348aacd594c61bb5,62c539b8bee84d668969a53b,2022-07-06_09h54.50.283,Colour_Asymmetry_Pilot,2022.1.3,Win32,59.99160118,62c50e9c1127f2cd403a315f,0,18,18,133,1,threefour,,,,,,,,,,,,,,,,,,,,,,,,,,,,,,,,,,,,,,,,,,,,,,,,,,,,,,,,,,,,,,,,,,,,,,,,,,,,,,,,,,,,,,,,,,,,,,,,,,,,,,,,,,,,,,,,,,,,,,,,,,,,,,,,,,,,,,,,,,,,,,,,,,,,,,,,,,,,,
,,,,,,60f4ac44348aacd594c61bb5,62c539b8bee84d668969a53b,2022-07-06_09h54.50.283,Colour_Asymmetry_Pilot,2022.1.3,Win32,59.99160118,62c50e9c1127f2cd403a315f,0,19,19,28,1,threeone,,,,,,,,,,,,,,,,,,,,,,,,,,,,,,,,,,,,,,,,,,,,,,,,,,,,,,,,,,,,,,,,,,,,,,,,,,,,,,,,,,,,,,,,,,,,,,,,,,,,,,,,,,,,,,,,,,,,,,,,,,,,,,,,,,,,,,,,,,,,,,,,,,,,,,,,,,,,,
,,,,,,60f4ac44348aacd594c61bb5,62c539b8bee84d668969a53b,2022-07-06_09h54.50.283,Colour_Asymmetry_Pilot,2022.1.3,Win32,59.99160118,62c50e9c1127f2cd403a315f,0,20,20,112,1,onetwo,,,,,,,,,,,,,,,,,,,,,,,,,,,,,,,,,,,,,,,,,,,,,,,,,,,,,,,,,,,,,,,,,,,,,,,,,,,,,,,,,,,,,,,,,,,,,,,,,,,,,,,,,,,,,,,,,,,,,,,,,,,,,,,,,,,,,,,,,,,,,,,,,,,,,,,,,,,,,
,,,,,,60f4ac44348aacd594c61bb5,62c539b8bee84d668969a53b,2022-07-06_09h54.50.283,Colour_Asymmetry_Pilot,2022.1.3,Win32,59.99160118,62c50e9c1127f2cd403a315f,0,21,21,3,1,twofour,,,,,,,,,,,,,,,,,,,,,,,,,,,,,,,,,,,,,,,,,,,,,,,,,,,,,,,,,,,,,,,,,,,,,,,,,,,,,,,,,,,,,,,,,,,,,,,,,,,,,,,,,,,,,,,,,,,,,,,,,,,,,,,,,,,,,,,,,,,,,,,,,,,,,,,,,,,,,
,,,,,,60f4ac44348aacd594c61bb5,62c539b8bee84d668969a53b,2022-07-06_09h54.50.283,Colour_Asymmetry_Pilot,2022.1.3,Win32,59.99160118,62c50e9c1127f2cd403a315f,0,22,22,87,1,fourthree,,,,,,,,,,,,,,,,,,,,,,,,,,,,,,,,,,,,,,,,,,,,,,,,,,,,,,,,,,,,,,,,,,,,,,,,,,,,,,,,,,,,,,,,,,,,,,,,,,,,,,,,,,,,,,,,,,,,,,,,,,,,,,,,,,,,,,,,,,,,,,,,,,,,,,,,,,,,,
,,,,,,60f4ac44348aacd594c61bb5,62c539b8bee84d668969a53b,2022-07-06_09h54.50.283,Colour_Asymmetry_Pilot,2022.1.3,Win32,59.99160118,62c50e9c1127f2cd403a315f,0,23,23,155,1,twofour,,,,,,,,,,,,,,,,,,,,,,,,,,,,,,,,,,,,,,,,,,,,,,,,,,,,,,,,,,,,,,,,,,,,,,,,,,,,,,,,,,,,,,,,,,,,,,,,,,,,,,,,,,,,,,,,,,,,,,,,,,,,,,,,,,,,,,,,,,,,,,,,,,,,,,,,,,,,,
,,,,,,60f4ac44348aacd594c61bb5,62c539b8bee84d668969a53b,2022-07-06_09h54.50.283,Colour_Asymmetry_Pilot,2022.1.3,Win32,59.99160118,62c50e9c1127f2cd403a315f,0,24,24,151,1,fourthree,,,,,,,,,,,,,,,,,,,,,,,,,,,,,,,,,,,,,,,,,,,,,,,,,,,,,,,,,,,,,,,,,,,,,,,,,,,,,,,,,,,,,,,,,,,,,,,,,,,,,,,,,,,,,,,,,,,,,,,,,,,,,,,,,,,,,,,,,,,,,,,,,,,,,,,,,,,,,
,,,,,,60f4ac44348aacd594c61bb5,62c539b8bee84d668969a53b,2022-07-06_09h54.50.283,Colour_Asymmetry_Pilot,2022.1.3,Win32,59.99160118,62c50e9c1127f2cd403a315f,0,25,25,9,1,onethree,,,,,,,,,,,,,,,,,,,,,,,,,,,,,,,,,,,,,,,,,,,,,,,,,,,,,,,,,,,,,,,,,,,,,,,,,,,,,,,,,,,,,,,,,,,,,,,,,,,,,,,,,,,,,,,,,,,,,,,,,,,,,,,,,,,,,,,,,,,,,,,,,,,,,,,,,,,,,
,,,,,,60f4ac44348aacd594c61bb5,62c539b8bee84d668969a53b,2022-07-06_09h54.50.283,Colour_Asymmetry_Pilot,2022.1.3,Win32,59.99160118,62c50e9c1127f2cd403a315f,0,26,26,153,1,onethree,,,,,,,,,,,,,,,,,,,,,,,,,,,,,,,,,,,,,,,,,,,,,,,,,,,,,,,,,,,,,,,,,,,,,,,,,,,,,,,,,,,,,,,,,,,,,,,,,,,,,,,,,,,,,,,,,,,,,,,,,,,,,,,,,,,,,,,,,,,,,,,,,,,,,,,,,,,,,
,,,,,,60f4ac44348aacd594c61bb5,62c539b8bee84d668969a53b,2022-07-06_09h54.50.283,Colour_Asymmetry_Pilot,2022.1.3,Win32,59.99160118,62c50e9c1127f2cd403a315f,0,27,27,100,1,threeone,,,,,,,,,,,,,,,,,,,,,,,,,,,,,,,,,,,,,,,,,,,,,,,,,,,,,,,,,,,,,,,,,,,,,,,,,,,,,,,,,,,,,,,,,,,,,,,,,,,,,,,,,,,,,,,,,,,,,,,,,,,,,,,,,,,,,,,,,,,,,,,,,,,,,,,,,,,,,
,,,,,,60f4ac44348aacd594c61bb5,62c539b8bee84d668969a53b,2022-07-06_09h54.50.283,Colour_Asymmetry_Pilot,2022.1.3,Win32,59.99160118,62c50e9c1127f2cd403a315f,0,28,28,146,1,twoone,,,,,,,,,,,,,,,,,,,,,,,,,,,,,,,,,,,,,,,,,,,,,,,,,,,,,,,,,,,,,,,,,,,,,,,,,,,,,,,,,,,,,,,,,,,,,,,,,,,,,,,,,,,,,,,,,,,,,,,,,,,,,,,,,,,,,,,,,,,,,,,,,,,,,,,,,,,,,
,,,,,,60f4ac44348aacd594c61bb5,62c539b8bee84d668969a53b,2022-07-06_09h54.50.283,Colour_Asymmetry_Pilot,2022.1.3,Win32,59.99160118,62c50e9c1127f2cd403a315f,0,29,29,20,1,threeone,,,,,,,,,,,,,,,,,,,,,,,,,,,,,,,,,,,,,,,,,,,,,,,,,,,,,,,,,,,,,,,,,,,,,,,,,,,,,,,,,,,,,,,,,,,,,,,,,,,,,,,,,,,,,,,,,,,,,,,,,,,,,,,,,,,,,,,,,,,,,,,,,,,,,,,,,,,,,
,,,,,,60f4ac44348aacd594c61bb5,62c539b8bee84d668969a53b,2022-07-06_09h54.50.283,Colour_Asymmetry_Pilot,2022.1.3,Win32,59.99160118,62c50e9c1127f2cd403a315f,0,30,30,152,1,onetwo,,,,,,,,,,,,,,,,,,,,,,,,,,,,,,,,,,,,,,,,,,,,,,,,,,,,,,,,,,,,,,,,,,,,,,,,,,,,,,,,,,,,,,,,,,,,,,,,,,,,,,,,,,,,,,,,,,,,,,,,,,,,,,,,,,,,,,,,,,,,,,,,,,,,,,,,,,,,,
,,,,,,60f4ac44348aacd594c61bb5,62c539b8bee84d668969a53b,2022-07-06_09h54.50.283,Colour_Asymmetry_Pilot,2022.1.3,Win32,59.99160118,62c50e9c1127f2cd403a315f,0,31,31,46,1,fourtwo,,,,,,,,,,,,,,,,,,,,,,,,,,,,,,,,,,,,,,,,,,,,,,,,,,,,,,,,,,,,,,,,,,,,,,,,,,,,,,,,,,,,,,,,,,,,,,,,,,,,,,,,,,,,,,,,,,,,,,,,,,,,,,,,,,,,,,,,,,,,,,,,,,,,,,,,,,,,,
,,,,,,60f4ac44348aacd594c61bb5,62c539b8bee84d668969a53b,2022-07-06_09h54.50.283,Colour_Asymmetry_Pilot,2022.1.3,Win32,59.99160118,62c50e9c1127f2cd403a315f,0,32,32,17,1,onethree,,,,,,,,,,,,,,,,,,,,,,,,,,,,,,,,,,,,,,,,,,,,,,,,,,,,,,,,,,,,,,,,,,,,,,,,,,,,,,,,,,,,,,,,,,,,,,,,,,,,,,,,,,,,,,,,,,,,,,,,,,,,,,,,,,,,,,,,,,,,,,,,,,,,,,,,,,,,,
,,,,,,60f4ac44348aacd594c61bb5,62c539b8bee84d668969a53b,2022-07-06_09h54.50.283,Colour_Asymmetry_Pilot,2022.1.3,Win32,59.99160118,62c50e9c1127f2cd403a315f,0,33,33,56,1,onetwo,,,,,,,,,,,,,,,,,,,,,,,,,,,,,,,,,,,,,,,,,,,,,,,,,,,,,,,,,,,,,,,,,,,,,,,,,,,,,,,,,,,,,,,,,,,,,,,,,,,,,,,,,,,,,,,,,,,,,,,,,,,,,,,,,,,,,,,,,,,,,,,,,,,,,,,,,,,,,
,,,,,,60f4ac44348aacd594c61bb5,62c539b8bee84d668969a53b,2022-07-06_09h54.50.283,Colour_Asymmetry_Pilot,2022.1.3,Win32,59.99160118,62c50e9c1127f2cd403a315f,0,34,34,103,1,fourthree,,,,,,,,,,,,,,,,,,,,,,,,,,,,,,,,,,,,,,,,,,,,,,,,,,,,,,,,,,,,,,,,,,,,,,,,,,,,,,,,,,,,,,,,,,,,,,,,,,,,,,,,,,,,,,,,,,,,,,,,,,,,,,,,,,,,,,,,,,,,,,,,,,,,,,,,,,,,,
,,,,,,60f4ac44348aacd594c61bb5,62c539b8bee84d668969a53b,2022-07-06_09h54.50.283,Colour_Asymmetry_Pilot,2022.1.3,Win32,59.99160118,62c50e9c1127f2cd403a315f,0,35,35,23,1,fourthree,,,,,,,,,,,,,,,,,,,,,,,,,,,,,,,,,,,,,,,,,,,,,,,,,,,,,,,,,,,,,,,,,,,,,,,,,,,,,,,,,,,,,,,,,,,,,,,,,,,,,,,,,,,,,,,,,,,,,,,,,,,,,,,,,,,,,,,,,,,,,,,,,,,,,,,,,,,,,
,,,,,,60f4ac44348aacd594c61bb5,62c539b8bee84d668969a53b,2022-07-06_09h54.50.283,Colour_Asymmetry_Pilot,2022.1.3,Win32,59.99160118,62c50e9c1127f2cd403a315f,0,36,36,101,1,threefour,,,,,,,,,,,,,,,,,,,,,,,,,,,,,,,,,,,,,,,,,,,,,,,,,,,,,,,,,,,,,,,,,,,,,,,,,,,,,,,,,,,,,,,,,,,,,,,,,,,,,,,,,,,,,,,,,,,,,,,,,,,,,,,,,,,,,,,,,,,,,,,,,,,,,,,,,,,,,
,,,,,,60f4ac44348aacd594c61bb5,62c539b8bee84d668969a53b,2022-07-06_09h54.50.283,Colour_Asymmetry_Pilot,2022.1.3,Win32,59.99160118,62c50e9c1127f2cd403a315f,0,37,37,75,1,twofour,,,,,,,,,,,,,,,,,,,,,,,,,,,,,,,,,,,,,,,,,,,,,,,,,,,,,,,,,,,,,,,,,,,,,,,,,,,,,,,,,,,,,,,,,,,,,,,,,,,,,,,,,,,,,,,,,,,,,,,,,,,,,,,,,,,,,,,,,,,,,,,,,,,,,,,,,,,,,
,,,,,,60f4ac44348aacd594c61bb5,62c539b8bee84d668969a53b,2022-07-06_09h54.50.283,Colour_Asymmetry_Pilot,2022.1.3,Win32,59.99160118,62c50e9c1127f2cd403a315f,0,38,38,59,1,twofour,,,,,,,,,,,,,,,,,,,,,,,,,,,,,,,,,,,,,,,,,,,,,,,,,,,,,,,,,,,,,,,,,,,,,,,,,,,,,,,,,,,,,,,,,,,,,,,,,,,,,,,,,,,,,,,,,,,,,,,,,,,,,,,,,,,,,,,,,,,,,,,,,,,,,,,,,,,,,
,,,,,,60f4ac44348aacd594c61bb5,62c539b8bee84d668969a53b,2022-07-06_09h54.50.283,Colour_Asymmetry_Pilot,2022.1.3,Win32,59.99160118,62c50e9c1127f2cd403a315f,0,39,39,24,1,onetwo,,,,,,,,,,,,,,,,,,,,,,,,,,,,,,,,,,,,,,,,,,,,,,,,,,,,,,,,,,,,,,,,,,,,,,,,,,,,,,,,,,,,,,,,,,,,,,,,,,,,,,,,,,,,,,,,,,,,,,,,,,,,,,,,,,,,,,,,,,,,,,,,,,,,,,,,,,,,,
,,,,,,60f4ac44348aacd594c61bb5,62c539b8bee84d668969a53b,2022-07-06_09h54.50.283,Colour_Asymmetry_Pilot,2022.1.3,Win32,59.99160118,62c50e9c1127f2cd403a315f,0,40,40,42,1,twoone,,,,,,,,,,,,,,,,,,,,,,,,,,,,,,,,,,,,,,,,,,,,,,,,,,,,,,,,,,,,,,,,,,,,,,,,,,,,,,,,,,,,,,,,,,,,,,,,,,,,,,,,,,,,,,,,,,,,,,,,,,,,,,,,,,,,,,,,,,,,,,,,,,,,,,,,,,,,,
,,,,,,60f4ac44348aacd594c61bb5,62c539b8bee84d668969a53b,2022-07-06_09h54.50.283,Colour_Asymmetry_Pilot,2022.1.3,Win32,59.99160118,62c50e9c1127f2cd403a315f,0,41,41,85,1,threefour,,,,,,,,,,,,,,,,,,,,,,,,,,,,,,,,,,,,,,,,,,,,,,,,,,,,,,,,,,,,,,,,,,,,,,,,,,,,,,,,,,,,,,,,,,,,,,,,,,,,,,,,,,,,,,,,,,,,,,,,,,,,,,,,,,,,,,,,,,,,,,,,,,,,,,,,,,,,,
,,,,,,60f4ac44348aacd594c61bb5,62c539b8bee84d668969a53b,2022-07-06_09h54.50.283,Colour_Asymmetry_Pilot,2022.1.3,Win32,59.99160118,62c50e9c1127f2cd403a315f,0,42,42,67,1,twofour,,,,,,,,,,,,,,,,,,,,,,,,,,,,,,,,,,,,,,,,,,,,,,,,,,,,,,,,,,,,,,,,,,,,,,,,,,,,,,,,,,,,,,,,,,,,,,,,,,,,,,,,,,,,,,,,,,,,,,,,,,,,,,,,,,,,,,,,,,,,,,,,,,,,,,,,,,,,,
,,,,,,60f4ac44348aacd594c61bb5,62c539b8bee84d668969a53b,2022-07-06_09h54.50.283,Colour_Asymmetry_Pilot,2022.1.3,Win32,59.99160118,62c50e9c1127f2cd403a315f,0,43,43,61,1,threefour,,,,,,,,,,,,,,,,,,,,,,,,,,,,,,,,,,,,,,,,,,,,,,,,,,,,,,,,,,,,,,,,,,,,,,,,,,,,,,,,,,,,,,,,,,,,,,,,,,,,,,,,,,,,,,,,,,,,,,,,,,,,,,,,,,,,,,,,,,,,,,,,,,,,,,,,,,,,,
,,,,,,60f4ac44348aacd594c61bb5,62c539b8bee84d668969a53b,2022-07-06_09h54.50.283,Colour_Asymmetry_Pilot,2022.1.3,Win32,59.99160118,62c50e9c1127f2cd403a315f,0,44,44,10,1,twoone,,,,,,,,,,,,,,,,,,,,,,,,,,,,,,,,,,,,,,,,,,,,,,,,,,,,,,,,,,,,,,,,,,,,,,,,,,,,,,,,,,,,,,,,,,,,,,,,,,,,,,,,,,,,,,,,,,,,,,,,,,,,,,,,,,,,,,,,,,,,,,,,,,,,,,,,,,,,,
,,,,,,60f4ac44348aacd594c61bb5,62c539b8bee84d668969a53b,2022-07-06_09h54.50.283,Colour_Asymmetry_Pilot,2022.1.3,Win32,59.99160118,62c50e9c1127f2cd403a315f,0,45,45,71,1,fourthree,,,,,,,,,,,,,,,,,,,,,,,,,,,,,,,,,,,,,,,,,,,,,,,,,,,,,,,,,,,,,,,,,,,,,,,,,,,,,,,,,,,,,,,,,,,,,,,,,,,,,,,,,,,,,,,,,,,,,,,,,,,,,,,,,,,,,,,,,,,,,,,,,,,,,,,,,,,,,
,,,,,,60f4ac44348aacd594c61bb5,62c539b8bee84d668969a53b,2022-07-06_09h54.50.283,Colour_Asymmetry_Pilot,2022.1.3,Win32,59.99160118,62c50e9c1127f2cd403a315f,0,46,46,115,1,twofour,,,,,,,,,,,,,,,,,,,,,,,,,,,,,,,,,,,,,,,,,,,,,,,,,,,,,,,,,,,,,,,,,,,,,,,,,,,,,,,,,,,,,,,,,,,,,,,,,,,,,,,,,,,,,,,,,,,,,,,,,,,,,,,,,,,,,,,,,,,,,,,,,,,,,,,,,,,,,
,,,,,,60f4ac44348aacd594c61bb5,62c539b8bee84d668969a53b,2022-07-06_09h54.50.283,Colour_Asymmetry_Pilot,2022.1.3,Win32,59.99160118,62c50e9c1127f2cd403a315f,0,47,47,79,1,fourthree,,,,,,,,,,,,,,,,,,,,,,,,,,,,,,,,,,,,,,,,,,,,,,,,,,,,,,,,,,,,,,,,,,,,,,,,,,,,,,,,,,,,,,,,,,,,,,,,,,,,,,,,,,,,,,,,,,,,,,,,,,,,,,,,,,,,,,,,,,,,,,,,,,,,,,,,,,,,,
,,,,,,60f4ac44348aacd594c61bb5,62c539b8bee84d668969a53b,2022-07-06_09h54.50.283,Colour_Asymmetry_Pilot,2022.1.3,Win32,59.99160118,62c50e9c1127f2cd403a315f,0,48,48,114,1,twoone,,,,,,,,,,,,,,,,,,,,,,,,,,,,,,,,,,,,,,,,,,,,,,,,,,,,,,,,,,,,,,,,,,,,,,,,,,,,,,,,,,,,,,,,,,,,,,,,,,,,,,,,,,,,,,,,,,,,,,,,,,,,,,,,,,,,,,,,,,,,,,,,,,,,,,,,,,,,,
,,,,,,60f4ac44348aacd594c61bb5,62c539b8bee84d668969a53b,2022-07-06_09h54.50.283,Colour_Asymmetry_Pilot,2022.1.3,Win32,59.99160118,62c50e9c1127f2cd403a315f,0,49,49,27,1,twofour,,,,,,,,,,,,,,,,,,,,,,,,,,,,,,,,,,,,,,,,,,,,,,,,,,,,,,,,,,,,,,,,,,,,,,,,,,,,,,,,,,,,,,,,,,,,,,,,,,,,,,,,,,,,,,,,,,,,,,,,,,,,,,,,,,,,,,,,,,,,,,,,,,,,,,,,,,,,,
,,,,,,60f4ac44348aacd594c61bb5,62c539b8bee84d668969a53b,2022-07-06_09h54.50.283,Colour_Asymmetry_Pilot,2022.1.3,Win32,59.99160118,62c50e9c1127f2cd403a315f,0,50,50,15,1,fourthree,,,,,,,,,,,,,,,,,,,,,,,,,,,,,,,,,,,,,,,,,,,,,,,,,,,,,,,,,,,,,,,,,,,,,,,,,,,,,,,,,,,,,,,,,,,,,,,,,,,,,,,,,,,,,,,,,,,,,,,,,,,,,,,,,,,,,,,,,,,,,,,,,,,,,,,,,,,,,
,,,,,,60f4ac44348aacd594c61bb5,62c539b8bee84d668969a53b,2022-07-06_09h54.50.283,Colour_Asymmetry_Pilot,2022.1.3,Win32,59.99160118,62c50e9c1127f2cd403a315f,0,51,51,44,1,threeone,,,,,,,,,,,,,,,,,,,,,,,,,,,,,,,,,,,,,,,,,,,,,,,,,,,,,,,,,,,,,,,,,,,,,,,,,,,,,,,,,,,,,,,,,,,,,,,,,,,,,,,,,,,,,,,,,,,,,,,,,,,,,,,,,,,,,,,,,,,,,,,,,,,,,,,,,,,,,
,,,,,,60f4ac44348aacd594c61bb5,62c539b8bee84d668969a53b,2022-07-06_09h54.50.283,Colour_Asymmetry_Pilot,2022.1.3,Win32,59.99160118,62c50e9c1127f2cd403a315f,0,52,52,37,1,threefour,,,,,,,,,,,,,,,,,,,,,,,,,,,,,,,,,,,,,,,,,,,,,,,,,,,,,,,,,,,,,,,,,,,,,,,,,,,,,,,,,,,,,,,,,,,,,,,,,,,,,,,,,,,,,,,,,,,,,,,,,,,,,,,,,,,,,,,,,,,,,,,,,,,,,,,,,,,,,
,,,,,,60f4ac44348aacd594c61bb5,62c539b8bee84d668969a53b,2022-07-06_09h54.50.283,Colour_Asymmetry_Pilot,2022.1.3,Win32,59.99160118,62c50e9c1127f2cd403a315f,0,53,53,134,1,fourtwo,,,,,,,,,,,,,,,,,,,,,,,,,,,,,,,,,,,,,,,,,,,,,,,,,,,,,,,,,,,,,,,,,,,,,,,,,,,,,,,,,,,,,,,,,,,,,,,,,,,,,,,,,,,,,,,,,,,,,,,,,,,,,,,,,,,,,,,,,,,,,,,,,,,,,,,,,,,,,
,,,,,,60f4ac44348aacd594c61bb5,62c539b8bee84d668969a53b,2022-07-06_09h54.50.283,Colour_Asymmetry_Pilot,2022.1.3,Win32,59.99160118,62c50e9c1127f2cd403a315f,0,54,54,62,1,fourtwo,,,,,,,,,,,,,,,,,,,,,,,,,,,,,,,,,,,,,,,,,,,,,,,,,,,,,,,,,,,,,,,,,,,,,,,,,,,,,,,,,,,,,,,,,,,,,,,,,,,,,,,,,,,,,,,,,,,,,,,,,,,,,,,,,,,,,,,,,,,,,,,,,,,,,,,,,,,,,
,,,,,,60f4ac44348aacd594c61bb5,62c539b8bee84d668969a53b,2022-07-06_09h54.50.283,Colour_Asymmetry_Pilot,2022.1.3,Win32,59.99160118,62c50e9c1127f2cd403a315f,0,55,55,139,1,twofour,,,,,,,,,,,,,,,,,,,,,,,,,,,,,,,,,,,,,,,,,,,,,,,,,,,,,,,,,,,,,,,,,,,,,,,,,,,,,,,,,,,,,,,,,,,,,,,,,,,,,,,,,,,,,,,,,,,,,,,,,,,,,,,,,,,,,,,,,,,,,,,,,,,,,,,,,,,,,
,,,,,,60f4ac44348aacd594c61bb5,62c539b8bee84d668969a53b,2022-07-06_09h54.50.283,Colour_Asymmetry_Pilot,2022.1.3,Win32,59.99160118,62c50e9c1127f2cd403a315f,0,56,56,34,1,twoone,,,,,,,,,,,,,,,,,,,,,,,,,,,,,,,,,,,,,,,,,,,,,,,,,,,,,,,,,,,,,,,,,,,,,,,,,,,,,,,,,,,,,,,,,,,,,,,,,,,,,,,,,,,,,,,,,,,,,,,,,,,,,,,,,,,,,,,,,,,,,,,,,,,,,,,,,,,,,
,,,,,,60f4ac44348aacd594c61bb5,62c539b8bee84d668969a53b,2022-07-06_09h54.50.283,Colour_Asymmetry_Pilot,2022.1.3,Win32,59.99160118,62c50e9c1127f2cd403a315f,0,57,57,38,1,fourtwo,,,,,,,,,,,,,,,,,,,,,,,,,,,,,,,,,,,,,,,,,,,,,,,,,,,,,,,,,,,,,,,,,,,,,,,,,,,,,,,,,,,,,,,,,,,,,,,,,,,,,,,,,,,,,,,,,,,,,,,,,,,,,,,,,,,,,,,,,,,,,,,,,,,,,,,,,,,,,
,,,,,,60f4ac44348aacd594c61bb5,62c539b8bee84d668969a53b,2022-07-06_09h54.50.283,Colour_Asymmetry_Pilot,2022.1.3,Win32,59.99160118,62c50e9c1127f2cd403a315f,0,58,58,55,1,fourthree,,,,,,,,,,,,,,,,,,,,,,,,,,,,,,,,,,,,,,,,,,,,,,,,,,,,,,,,,,,,,,,,,,,,,,,,,,,,,,,,,,,,,,,,,,,,,,,,,,,,,,,,,,,,,,,,,,,,,,,,,,,,,,,,,,,,,,,,,,,,,,,,,,,,,,,,,,,,,
,,,,,,60f4ac44348aacd594c61bb5,62c539b8bee84d668969a53b,2022-07-06_09h54.50.283,Colour_Asymmetry_Pilot,2022.1.3,Win32,59.99160118,62c50e9c1127f2cd403a315f,0,59,59,11,1,twofour,,,,,,,,,,,,,,,,,,,,,,,,,,,,,,,,,,,,,,,,,,,,,,,,,,,,,,,,,,,,,,,,,,,,,,,,,,,,,,,,,,,,,,,,,,,,,,,,,,,,,,,,,,,,,,,,,,,,,,,,,,,,,,,,,,,,,,,,,,,,,,,,,,,,,,,,,,,,,
,,,,,,60f4ac44348aacd594c61bb5,62c539b8bee84d668969a53b,2022-07-06_09h54.50.283,Colour_Asymmetry_Pilot,2022.1.3,Win32,59.99160118,62c50e9c1127f2cd403a315f,0,60,60,96,1,onetwo,,,,,,,,,,,,,,,,,,,,,,,,,,,,,,,,,,,,,,,,,,,,,,,,,,,,,,,,,,,,,,,,,,,,,,,,,,,,,,,,,,,,,,,,,,,,,,,,,,,,,,,,,,,,,,,,,,,,,,,,,,,,,,,,,,,,,,,,,,,,,,,,,,,,,,,,,,,,,
,,,,,,60f4ac44348aacd594c61bb5,62c539b8bee84d668969a53b,2022-07-06_09h54.50.283,Colour_Asymmetry_Pilot,2022.1.3,Win32,59.99160118,62c50e9c1127f2cd403a315f,0,61,61,135,1,fourthree,,,,,,,,,,,,,,,,,,,,,,,,,,,,,,,,,,,,,,,,,,,,,,,,,,,,,,,,,,,,,,,,,,,,,,,,,,,,,,,,,,,,,,,,,,,,,,,,,,,,,,,,,,,,,,,,,,,,,,,,,,,,,,,,,,,,,,,,,,,,,,,,,,,,,,,,,,,,,
,,,,,,60f4ac44348aacd594c61bb5,62c539b8bee84d668969a53b,2022-07-06_09h54.50.283,Colour_Asymmetry_Pilot,2022.1.3,Win32,59.99160118,62c50e9c1127f2cd403a315f,0,62,62,65,1,onethree,,,,,,,,,,,,,,,,,,,,,,,,,,,,,,,,,,,,,,,,,,,,,,,,,,,,,,,,,,,,,,,,,,,,,,,,,,,,,,,,,,,,,,,,,,,,,,,,,,,,,,,,,,,,,,,,,,,,,,,,,,,,,,,,,,,,,,,,,,,,,,,,,,,,,,,,,,,,,
,,,,,,60f4ac44348aacd594c61bb5,62c539b8bee84d668969a53b,2022-07-06_09h54.50.283,Colour_Asymmetry_Pilot,2022.1.3,Win32,59.99160118,62c50e9c1127f2cd403a315f,0,63,63,97,1,onethree,,,,,,,,,,,,,,,,,,,,,,,,,,,,,,,,,,,,,,,,,,,,,,,,,,,,,,,,,,,,,,,,,,,,,,,,,,,,,,,,,,,,,,,,,,,,,,,,,,,,,,,,,,,,,,,,,,,,,,,,,,,,,,,,,,,,,,,,,,,,,,,,,,,,,,,,,,,,,
,,,,,,60f4ac44348aacd594c61bb5,62c539b8bee84d668969a53b,2022-07-06_09h54.50.283,Colour_Asymmetry_Pilot,2022.1.3,Win32,59.99160118,62c50e9c1127f2cd403a315f,0,64,64,36,1,threeone,,,,,,,,,,,,,,,,,,,,,,,,,,,,,,,,,,,,,,,,,,,,,,,,,,,,,,,,,,,,,,,,,,,,,,,,,,,,,,,,,,,,,,,,,,,,,,,,,,,,,,,,,,,,,,,,,,,,,,,,,,,,,,,,,,,,,,,,,,,,,,,,,,,,,,,,,,,,,
,,,,,,60f4ac44348aacd594c61bb5,62c539b8bee84d668969a53b,2022-07-06_09h54.50.283,Colour_Asymmetry_Pilot,2022.1.3,Win32,59.99160118,62c50e9c1127f2cd403a315f,0,65,65,116,1,threeone,,,,,,,,,,,,,,,,,,,,,,,,,,,,,,,,,,,,,,,,,,,,,,,,,,,,,,,,,,,,,,,,,,,,,,,,,,,,,,,,,,,,,,,,,,,,,,,,,,,,,,,,,,,,,,,,,,,,,,,,,,,,,,,,,,,,,,,,,,,,,,,,,,,,,,,,,,,,,
,,,,,,60f4ac44348aacd594c61bb5,62c539b8bee84d668969a53b,2022-07-06_09h54.50.283,Colour_Asymmetry_Pilot,2022.1.3,Win32,59.99160118,62c50e9c1127f2cd403a315f,0,66,66,123,1,twofour,,,,,,,,,,,,,,,,,,,,,,,,,,,,,,,,,,,,,,,,,,,,,,,,,,,,,,,,,,,,,,,,,,,,,,,,,,,,,,,,,,,,,,,,,,,,,,,,,,,,,,,,,,,,,,,,,,,,,,,,,,,,,,,,,,,,,,,,,,,,,,,,,,,,,,,,,,,,,
,,,,,,60f4ac44348aacd594c61bb5,62c539b8bee84d668969a53b,2022-07-06_09h54.50.283,Colour_Asymmetry_Pilot,2022.1.3,Win32,59.99160118,62c50e9c1127f2cd403a315f,0,67,67,78,1,fourtwo,,,,,,,,,,,,,,,,,,,,,,,,,,,,,,,,,,,,,,,,,,,,,,,,,,,,,,,,,,,,,,,,,,,,,,,,,,,,,,,,,,,,,,,,,,,,,,,,,,,,,,,,,,,,,,,,,,,,,,,,,,,,,,,,,,,,,,,,,,,,,,,,,,,,,,,,,,,,,
,,,,,,60f4ac44348aacd594c61bb5,62c539b8bee84d668969a53b,2022-07-06_09h54.50.283,Colour_Asymmetry_Pilot,2022.1.3,Win32,59.99160118,62c50e9c1127f2cd403a315f,0,68,68,142,1,fourtwo,,,,,,,,,,,,,,,,,,,,,,,,,,,,,,,,,,,,,,,,,,,,,,,,,,,,,,,,,,,,,,,,,,,,,,,,,,,,,,,,,,,,,,,,,,,,,,,,,,,,,,,,,,,,,,,,,,,,,,,,,,,,,,,,,,,,,,,,,,,,,,,,,,,,,,,,,,,,,
,,,,,,60f4ac44348aacd594c61bb5,62c539b8bee84d668969a53b,2022-07-06_09h54.50.283,Colour_Asymmetry_Pilot,2022.1.3,Win32,59.99160118,62c50e9c1127f2cd403a315f,0,69,69,7,1,fourthree,,,,,,,,,,,,,,,,,,,,,,,,,,,,,,,,,,,,,,,,,,,,,,,,,,,,,,,,,,,,,,,,,,,,,,,,,,,,,,,,,,,,,,,,,,,,,,,,,,,,,,,,,,,,,,,,,,,,,,,,,,,,,,,,,,,,,,,,,,,,,,,,,,,,,,,,,,,,,
,,,,,,60f4ac44348aacd594c61bb5,62c539b8bee84d668969a53b,2022-07-06_09h54.50.283,Colour_Asymmetry_Pilot,2022.1.3,Win32,59.99160118,62c50e9c1127f2cd403a315f,0,70,70,32,1,onetwo,,,,,,,,,,,,,,,,,,,,,,,,,,,,,,,,,,,,,,,,,,,,,,,,,,,,,,,,,,,,,,,,,,,,,,,,,,,,,,,,,,,,,,,,,,,,,,,,,,,,,,,,,,,,,,,,,,,,,,,,,,,,,,,,,,,,,,,,,,,,,,,,,,,,,,,,,,,,,
,,,,,,60f4ac44348aacd594c61bb5,62c539b8bee84d668969a53b,2022-07-06_09h54.50.283,Colour_Asymmetry_Pilot,2022.1.3,Win32,59.99160118,62c50e9c1127f2cd403a315f,0,71,71,160,1,onetwo,,,,,,,,,,,,,,,,,,,,,,,,,,,,,,,,,,,,,,,,,,,,,,,,,,,,,,,,,,,,,,,,,,,,,,,,,,,,,,,,,,,,,,,,,,,,,,,,,,,,,,,,,,,,,,,,,,,,,,,,,,,,,,,,,,,,,,,,,,,,,,,,,,,,,,,,,,,,,
,,,,,,60f4ac44348aacd594c61bb5,62c539b8bee84d668969a53b,2022-07-06_09h54.50.283,Colour_Asymmetry_Pilot,2022.1.3,Win32,59.99160118,62c50e9c1127f2cd403a315f,0,72,72,47,1,fourthree,,,,,,,,,,,,,,,,,,,,,,,,,,,,,,,,,,,,,,,,,,,,,,,,,,,,,,,,,,,,,,,,,,,,,,,,,,,,,,,,,,,,,,,,,,,,,,,,,,,,,,,,,,,,,,,,,,,,,,,,,,,,,,,,,,,,,,,,,,,,,,,,,,,,,,,,,,,,,
,,,,,,60f4ac44348aacd594c61bb5,62c539b8bee84d668969a53b,2022-07-06_09h54.50.283,Colour_Asymmetry_Pilot,2022.1.3,Win32,59.99160118,62c50e9c1127f2cd403a315f,0,73,73,66,1,twoone,,,,,,,,,,,,,,,,,,,,,,,,,,,,,,,,,,,,,,,,,,,,,,,,,,,,,,,,,,,,,,,,,,,,,,,,,,,,,,,,,,,,,,,,,,,,,,,,,,,,,,,,,,,,,,,,,,,,,,,,,,,,,,,,,,,,,,,,,,,,,,,,,,,,,,,,,,,,,
,,,,,,60f4ac44348aacd594c61bb5,62c539b8bee84d668969a53b,2022-07-06_09h54.50.283,Colour_Asymmetry_Pilot,2022.1.3,Win32,59.99160118,62c50e9c1127f2cd403a315f,0,74,74,141,1,threefour,,,,,,,,,,,,,,,,,,,,,,,,,,,,,,,,,,,,,,,,,,,,,,,,,,,,,,,,,,,,,,,,,,,,,,,,,,,,,,,,,,,,,,,,,,,,,,,,,,,,,,,,,,,,,,,,,,,,,,,,,,,,,,,,,,,,,,,,,,,,,,,,,,,,,,,,,,,,,
,,,,,,60f4ac44348aacd594c61bb5,62c539b8bee84d668969a53b,2022-07-06_09h54.50.283,Colour_Asymmetry_Pilot,2022.1.3,Win32,59.99160118,62c50e9c1127f2cd403a315f,0,75,75,16,1,onetwo,,,,,,,,,,,,,,,,,,,,,,,,,,,,,,,,,,,,,,,,,,,,,,,,,,,,,,,,,,,,,,,,,,,,,,,,,,,,,,,,,,,,,,,,,,,,,,,,,,,,,,,,,,,,,,,,,,,,,,,,,,,,,,,,,,,,,,,,,,,,,,,,,,,,,,,,,,,,,
,,,,,,60f4ac44348aacd594c61bb5,62c539b8bee84d668969a53b,2022-07-06_09h54.50.283,Colour_Asymmetry_Pilot,2022.1.3,Win32,59.99160118,62c50e9c1127f2cd403a315f,0,76,76,76,1,threeone,,,,,,,,,,,,,,,,,,,,,,,,,,,,,,,,,,,,,,,,,,,,,,,,,,,,,,,,,,,,,,,,,,,,,,,,,,,,,,,,,,,,,,,,,,,,,,,,,,,,,,,,,,,,,,,,,,,,,,,,,,,,,,,,,,,,,,,,,,,,,,,,,,,,,,,,,,,,,
,,,,,,60f4ac44348aacd594c61bb5,62c539b8bee84d668969a53b,2022-07-06_09h54.50.283,Colour_Asymmetry_Pilot,2022.1.3,Win32,59.99160118,62c50e9c1127f2cd403a315f,0,77,77,8,1,onetwo,,,,,,,,,,,,,,,,,,,,,,,,,,,,,,,,,,,,,,,,,,,,,,,,,,,,,,,,,,,,,,,,,,,,,,,,,,,,,,,,,,,,,,,,,,,,,,,,,,,,,,,,,,,,,,,,,,,,,,,,,,,,,,,,,,,,,,,,,,,,,,,,,,,,,,,,,,,,,
,,,,,,60f4ac44348aacd594c61bb5,62c539b8bee84d668969a53b,2022-07-06_09h54.50.283,Colour_Asymmetry_Pilot,2022.1.3,Win32,59.99160118,62c50e9c1127f2cd403a315f,0,78,78,83,1,twofour,,,,,,,,,,,,,,,,,,,,,,,,,,,,,,,,,,,,,,,,,,,,,,,,,,,,,,,,,,,,,,,,,,,,,,,,,,,,,,,,,,,,,,,,,,,,,,,,,,,,,,,,,,,,,,,,,,,,,,,,,,,,,,,,,,,,,,,,,,,,,,,,,,,,,,,,,,,,,
,,,,,,60f4ac44348aacd594c61bb5,62c539b8bee84d668969a53b,2022-07-06_09h54.50.283,Colour_Asymmetry_Pilot,2022.1.3,Win32,59.99160118,62c50e9c1127f2cd403a315f,0,79,79,41,1,onethree,,,,,,,,,,,,,,,,,,,,,,,,,,,,,,,,,,,,,,,,,,,,,,,,,,,,,,,,,,,,,,,,,,,,,,,,,,,,,,,,,,,,,,,,,,,,,,,,,,,,,,,,,,,,,,,,,,,,,,,,,,,,,,,,,,,,,,,,,,,,,,,,,,,,,,,,,,,,,
,,,,,,60f4ac44348aacd594c61bb5,62c539b8bee84d668969a53b,2022-07-06_09h54.50.283,Colour_Asymmetry_Pilot,2022.1.3,Win32,59.99160118,62c50e9c1127f2cd403a315f,0,80,80,158,1,fourtwo,,,,,,,,,,,,,,,,,,,,,,,,,,,,,,,,,,,,,,,,,,,,,,,,,,,,,,,,,,,,,,,,,,,,,,,,,,,,,,,,,,,,,,,,,,,,,,,,,,,,,,,,,,,,,,,,,,,,,,,,,,,,,,,,,,,,,,,,,,,,,,,,,,,,,,,,,,,,,
,,,,,,60f4ac44348aacd594c61bb5,62c539b8bee84d668969a53b,2022-07-06_09h54.50.283,Colour_Asymmetry_Pilot,2022.1.3,Win32,59.99160118,62c50e9c1127f2cd403a315f,0,81,81,45,1,threefour,,,,,,,,,,,,,,,,,,,,,,,,,,,,,,,,,,,,,,,,,,,,,,,,,,,,,,,,,,,,,,,,,,,,,,,,,,,,,,,,,,,,,,,,,,,,,,,,,,,,,,,,,,,,,,,,,,,,,,,,,,,,,,,,,,,,,,,,,,,,,,,,,,,,,,,,,,,,,
,,,,,,60f4ac44348aacd594c61bb5,62c539b8bee84d668969a53b,2022-07-06_09h54.50.283,Colour_Asymmetry_Pilot,2022.1.3,Win32,59.99160118,62c50e9c1127f2cd403a315f,0,82,82,60,1,threeone,,,,,,,,,,,,,,,,,,,,,,,,,,,,,,,,,,,,,,,,,,,,,,,,,,,,,,,,,,,,,,,,,,,,,,,,,,,,,,,,,,,,,,,,,,,,,,,,,,,,,,,,,,,,,,,,,,,,,,,,,,,,,,,,,,,,,,,,,,,,,,,,,,,,,,,,,,,,,
,,,,,,60f4ac44348aacd594c61bb5,62c539b8bee84d668969a53b,2022-07-06_09h54.50.283,Colour_Asymmetry_Pilot,2022.1.3,Win32,59.99160118,62c50e9c1127f2cd403a315f,0,83,83,161,1,onethree,,,,,,,,,,,,,,,,,,,,,,,,,,,,,,,,,,,,,,,,,,,,,,,,,,,,,,,,,,,,,,,,,,,,,,,,,,,,,,,,,,,,,,,,,,,,,,,,,,,,,,,,,,,,,,,,,,,,,,,,,,,,,,,,,,,,,,,,,,,,,,,,,,,,,,,,,,,,,
,,,,,,60f4ac44348aacd594c61bb5,62c539b8bee84d668969a53b,2022-07-06_09h54.50.283,Colour_Asymmetry_Pilot,2022.1.3,Win32,59.99160118,62c50e9c1127f2cd403a315f,0,84,84,110,1,fourtwo,,,,,,,,,,,,,,,,,,,,,,,,,,,,,,,,,,,,,,,,,,,,,,,,,,,,,,,,,,,,,,,,,,,,,,,,,,,,,,,,,,,,,,,,,,,,,,,,,,,,,,,,,,,,,,,,,,,,,,,,,,,,,,,,,,,,,,,,,,,,,,,,,,,,,,,,,,,,,
,,,,,,60f4ac44348aacd594c61bb5,62c539b8bee84d668969a53b,2022-07-06_09h54.50.283,Colour_Asymmetry_Pilot,2022.1.3,Win32,59.99160118,62c50e9c1127f2cd403a315f,0,85,85,2,1,twoone,,,,,,,,,,,,,,,,,,,,,,,,,,,,,,,,,,,,,,,,,,,,,,,,,,,,,,,,,,,,,,,,,,,,,,,,,,,,,,,,,,,,,,,,,,,,,,,,,,,,,,,,,,,,,,,,,,,,,,,,,,,,,,,,,,,,,,,,,,,,,,,,,,,,,,,,,,,,,
,,,,,,60f4ac44348aacd594c61bb5,62c539b8bee84d668969a53b,2022-07-06_09h54.50.283,Colour_Asymmetry_Pilot,2022.1.3,Win32,59.99160118,62c50e9c1127f2cd403a315f,0,86,86,43,1,twofour,,,,,,,,,,,,,,,,,,,,,,,,,,,,,,,,,,,,,,,,,,,,,,,,,,,,,,,,,,,,,,,,,,,,,,,,,,,,,,,,,,,,,,,,,,,,,,,,,,,,,,,,,,,,,,,,,,,,,,,,,,,,,,,,,,,,,,,,,,,,,,,,,,,,,,,,,,,,,
,,,,,,60f4ac44348aacd594c61bb5,62c539b8bee84d668969a53b,2022-07-06_09h54.50.283,Colour_Asymmetry_Pilot,2022.1.3,Win32,59.99160118,62c50e9c1127f2cd403a315f,0,87,87,128,1,onetwo,,,,,,,,,,,,,,,,,,,,,,,,,,,,,,,,,,,,,,,,,,,,,,,,,,,,,,,,,,,,,,,,,,,,,,,,,,,,,,,,,,,,,,,,,,,,,,,,,,,,,,,,,,,,,,,,,,,,,,,,,,,,,,,,,,,,,,,,,,,,,,,,,,,,,,,,,,,,,
,,,,,,60f4ac44348aacd594c61bb5,62c539b8bee84d668969a53b,2022-07-06_09h54.50.283,Colour_Asymmetry_Pilot,2022.1.3,Win32,59.99160118,62c50e9c1127f2cd403a315f,0,88,88,74,1,twoone,,,,,,,,,,,,,,,,,,,,,,,,,,,,,,,,,,,,,,,,,,,,,,,,,,,,,,,,,,,,,,,,,,,,,,,,,,,,,,,,,,,,,,,,,,,,,,,,,,,,,,,,,,,,,,,,,,,,,,,,,,,,,,,,,,,,,,,,,,,,,,,,,,,,,,,,,,,,,
,,,,,,60f4ac44348aacd594c61bb5,62c539b8bee84d668969a53b,2022-07-06_09h54.50.283,Colour_Asymmetry_Pilot,2022.1.3,Win32,59.99160118,62c50e9c1127f2cd403a315f,0,89,89,4,1,threeone,,,,,,,,,,,,,,,,,,,,,,,,,,,,,,,,,,,,,,,,,,,,,,,,,,,,,,,,,,,,,,,,,,,,,,,,,,,,,,,,,,,,,,,,,,,,,,,,,,,,,,,,,,,,,,,,,,,,,,,,,,,,,,,,,,,,,,,,,,,,,,,,,,,,,,,,,,,,,
,,,,,,60f4ac44348aacd594c61bb5,62c539b8bee84d668969a53b,2022-07-06_09h54.50.283,Colour_Asymmetry_Pilot,2022.1.3,Win32,59.99160118,62c50e9c1127f2cd403a315f,0,90,90,89,1,onethree,,,,,,,,,,,,,,,,,,,,,,,,,,,,,,,,,,,,,,,,,,,,,,,,,,,,,,,,,,,,,,,,,,,,,,,,,,,,,,,,,,,,,,,,,,,,,,,,,,,,,,,,,,,,,,,,,,,,,,,,,,,,,,,,,,,,,,,,,,,,,,,,,,,,,,,,,,,,,
,,,,,,60f4ac44348aacd594c61bb5,62c539b8bee84d668969a53b,2022-07-06_09h54.50.283,Colour_Asymmetry_Pilot,2022.1.3,Win32,59.99160118,62c50e9c1127f2cd403a315f,0,91,91,69,1,threefour,,,,,,,,,,,,,,,,,,,,,,,,,,,,,,,,,,,,,,,,,,,,,,,,,,,,,,,,,,,,,,,,,,,,,,,,,,,,,,,,,,,,,,,,,,,,,,,,,,,,,,,,,,,,,,,,,,,,,,,,,,,,,,,,,,,,,,,,,,,,,,,,,,,,,,,,,,,,,
,,,,,,60f4ac44348aacd594c61bb5,62c539b8bee84d668969a53b,2022-07-06_09h54.50.283,Colour_Asymmetry_Pilot,2022.1.3,Win32,59.99160118,62c50e9c1127f2cd403a315f,0,92,92,88,1,onetwo,,,,,,,,,,,,,,,,,,,,,,,,,,,,,,,,,,,,,,,,,,,,,,,,,,,,,,,,,,,,,,,,,,,,,,,,,,,,,,,,,,,,,,,,,,,,,,,,,,,,,,,,,,,,,,,,,,,,,,,,,,,,,,,,,,,,,,,,,,,,,,,,,,,,,,,,,,,,,
,,,,,,60f4ac44348aacd594c61bb5,62c539b8bee84d668969a53b,2022-07-06_09h54.50.283,Colour_Asymmetry_Pilot,2022.1.3,Win32,59.99160118,62c50e9c1127f2cd403a315f,0,93,93,157,1,threefour,,,,,,,,,,,,,,,,,,,,,,,,,,,,,,,,,,,,,,,,,,,,,,,,,,,,,,,,,,,,,,,,,,,,,,,,,,,,,,,,,,,,,,,,,,,,,,,,,,,,,,,,,,,,,,,,,,,,,,,,,,,,,,,,,,,,,,,,,,,,,,,,,,,,,,,,,,,,,
,,,,,,60f4ac44348aacd594c61bb5,62c539b8bee84d668969a53b,2022-07-06_09h54.50.283,Colour_Asymmetry_Pilot,2022.1.3,Win32,59.99160118,62c50e9c1127f2cd403a315f,0,94,94,90,1,twoone,,,,,,,,,,,,,,,,,,,,,,,,,,,,,,,,,,,,,,,,,,,,,,,,,,,,,,,,,,,,,,,,,,,,,,,,,,,,,,,,,,,,,,,,,,,,,,,,,,,,,,,,,,,,,,,,,,,,,,,,,,,,,,,,,,,,,,,,,,,,,,,,,,,,,,,,,,,,,
,,,,,,60f4ac44348aacd594c61bb5,62c539b8bee84d668969a53b,2022-07-06_09h54.50.283,Colour_Asymmetry_Pilot,2022.1.3,Win32,59.99160118,62c50e9c1127f2cd403a315f,0,95,95,145,1,onethree,,,,,,,,,,,,,,,,,,,,,,,,,,,,,,,,,,,,,,,,,,,,,,,,,,,,,,,,,,,,,,,,,,,,,,,,,,,,,,,,,,,,,,,,,,,,,,,,,,,,,,,,,,,,,,,,,,,,,,,,,,,,,,,,,,,,,,,,,,,,,,,,,,,,,,,,,,,,,
,,,,,,60f4ac44348aacd594c61bb5,62c539b8bee84d668969a53b,2022-07-06_09h54.50.283,Colour_Asymmetry_Pilot,2022.1.3,Win32,59.99160118,62c50e9c1127f2cd403a315f,0,96,96,12,1,threeone,,,,,,,,,,,,,,,,,,,,,,,,,,,,,,,,,,,,,,,,,,,,,,,,,,,,,,,,,,,,,,,,,,,,,,,,,,,,,,,,,,,,,,,,,,,,,,,,,,,,,,,,,,,,,,,,,,,,,,,,,,,,,,,,,,,,,,,,,,,,,,,,,,,,,,,,,,,,,
,,,,,,60f4ac44348aacd594c61bb5,62c539b8bee84d668969a53b,2022-07-06_09h54.50.283,Colour_Asymmetry_Pilot,2022.1.3,Win32,59.99160118,62c50e9c1127f2cd403a315f,0,97,97,102,1,fourtwo,,,,,,,,,,,,,,,,,,,,,,,,,,,,,,,,,,,,,,,,,,,,,,,,,,,,,,,,,,,,,,,,,,,,,,,,,,,,,,,,,,,,,,,,,,,,,,,,,,,,,,,,,,,,,,,,,,,,,,,,,,,,,,,,,,,,,,,,,,,,,,,,,,,,,,,,,,,,,
,,,,,,60f4ac44348aacd594c61bb5,62c539b8bee84d668969a53b,2022-07-06_09h54.50.283,Colour_Asymmetry_Pilot,2022.1.3,Win32,59.99160118,62c50e9c1127f2cd403a315f,0,98,98,122,1,twoone,,,,,,,,,,,,,,,,,,,,,,,,,,,,,,,,,,,,,,,,,,,,,,,,,,,,,,,,,,,,,,,,,,,,,,,,,,,,,,,,,,,,,,,,,,,,,,,,,,,,,,,,,,,,,,,,,,,,,,,,,,,,,,,,,,,,,,,,,,,,,,,,,,,,,,,,,,,,,
,,,,,,60f4ac44348aacd594c61bb5,62c539b8bee84d668969a53b,2022-07-06_09h54.50.283,Colour_Asymmetry_Pilot,2022.1.3,Win32,59.99160118,62c50e9c1127f2cd403a315f,0,99,99,105,1,onethree,,,,,,,,,,,,,,,,,,,,,,,,,,,,,,,,,,,,,,,,,,,,,,,,,,,,,,,,,,,,,,,,,,,,,,,,,,,,,,,,,,,,,,,,,,,,,,,,,,,,,,,,,,,,,,,,,,,,,,,,,,,,,,,,,,,,,,,,,,,,,,,,,,,,,,,,,,,,,
,,,,,,60f4ac44348aacd594c61bb5,62c539b8bee84d668969a53b,2022-07-06_09h54.50.283,Colour_Asymmetry_Pilot,2022.1.3,Win32,59.99160118,62c50e9c1127f2cd403a315f,0,100,100,109,1,threefour,,,,,,,,,,,,,,,,,,,,,,,,,,,,,,,,,,,,,,,,,,,,,,,,,,,,,,,,,,,,,,,,,,,,,,,,,,,,,,,,,,,,,,,,,,,,,,,,,,,,,,,,,,,,,,,,,,,,,,,,,,,,,,,,,,,,,,,,,,,,,,,,,,,,,,,,,,,,,
,,,,,,60f4ac44348aacd594c61bb5,62c539b8bee84d668969a53b,2022-07-06_09h54.50.283,Colour_Asymmetry_Pilot,2022.1.3,Win32,59.99160118,62c50e9c1127f2cd403a315f,0,101,101,148,1,threeone,,,,,,,,,,,,,,,,,,,,,,,,,,,,,,,,,,,,,,,,,,,,,,,,,,,,,,,,,,,,,,,,,,,,,,,,,,,,,,,,,,,,,,,,,,,,,,,,,,,,,,,,,,,,,,,,,,,,,,,,,,,,,,,,,,,,,,,,,,,,,,,,,,,,,,,,,,,,,
,,,,,,60f4ac44348aacd594c61bb5,62c539b8bee84d668969a53b,2022-07-06_09h54.50.283,Colour_Asymmetry_Pilot,2022.1.3,Win32,59.99160118,62c50e9c1127f2cd403a315f,0,102,102,22,1,fourtwo,,,,,,,,,,,,,,,,,,,,,,,,,,,,,,,,,,,,,,,,,,,,,,,,,,,,,,,,,,,,,,,,,,,,,,,,,,,,,,,,,,,,,,,,,,,,,,,,,,,,,,,,,,,,,,,,,,,,,,,,,,,,,,,,,,,,,,,,,,,,,,,,,,,,,,,,,,,,,
,,,,,,60f4ac44348aacd594c61bb5,62c539b8bee84d668969a53b,2022-07-06_09h54.50.283,Colour_Asymmetry_Pilot,2022.1.3,Win32,59.99160118,62c50e9c1127f2cd403a315f,0,103,103,21,1,threefour,,,,,,,,,,,,,,,,,,,,,,,,,,,,,,,,,,,,,,,,,,,,,,,,,,,,,,,,,,,,,,,,,,,,,,,,,,,,,,,,,,,,,,,,,,,,,,,,,,,,,,,,,,,,,,,,,,,,,,,,,,,,,,,,,,,,,,,,,,,,,,,,,,,,,,,,,,,,,
,,,,,,60f4ac44348aacd594c61bb5,62c539b8bee84d668969a53b,2022-07-06_09h54.50.283,Colour_Asymmetry_Pilot,2022.1.3,Win32,59.99160118,62c50e9c1127f2cd403a315f,0,104,104,120,1,onetwo,,,,,,,,,,,,,,,,,,,,,,,,,,,,,,,,,,,,,,,,,,,,,,,,,,,,,,,,,,,,,,,,,,,,,,,,,,,,,,,,,,,,,,,,,,,,,,,,,,,,,,,,,,,,,,,,,,,,,,,,,,,,,,,,,,,,,,,,,,,,,,,,,,,,,,,,,,,,,
,,,,,,60f4ac44348aacd594c61bb5,62c539b8bee84d668969a53b,2022-07-06_09h54.50.283,Colour_Asymmetry_Pilot,2022.1.3,Win32,59.99160118,62c50e9c1127f2cd403a315f,0,105,105,39,1,fourthree,,,,,,,,,,,,,,,,,,,,,,,,,,,,,,,,,,,,,,,,,,,,,,,,,,,,,,,,,,,,,,,,,,,,,,,,,,,,,,,,,,,,,,,,,,,,,,,,,,,,,,,,,,,,,,,,,,,,,,,,,,,,,,,,,,,,,,,,,,,,,,,,,,,,,,,,,,,,,
,,,,,,60f4ac44348aacd594c61bb5,62c539b8bee84d668969a53b,2022-07-06_09h54.50.283,Colour_Asymmetry_Pilot,2022.1.3,Win32,59.99160118,62c50e9c1127f2cd403a315f,0,106,106,49,1,onethree,,,,,,,,,,,,,,,,,,,,,,,,,,,,,,,,,,,,,,,,,,,,,,,,,,,,,,,,,,,,,,,,,,,,,,,,,,,,,,,,,,,,,,,,,,,,,,,,,,,,,,,,,,,,,,,,,,,,,,,,,,,,,,,,,,,,,,,,,,,,,,,,,,,,,,,,,,,,,
,,,,,,60f4ac44348aacd594c61bb5,62c539b8bee84d668969a53b,2022-07-06_09h54.50.283,Colour_Asymmetry_Pilot,2022.1.3,Win32,59.99160118,62c50e9c1127f2cd403a315f,0,107,107,18,1,twoone,,,,,,,,,,,,,,,,,,,,,,,,,,,,,,,,,,,,,,,,,,,,,,,,,,,,,,,,,,,,,,,,,,,,,,,,,,,,,,,,,,,,,,,,,,,,,,,,,,,,,,,,,,,,,,,,,,,,,,,,,,,,,,,,,,,,,,,,,,,,,,,,,,,,,,,,,,,,,
,,,,,,60f4ac44348aacd594c61bb5,62c539b8bee84d668969a53b,2022-07-06_09h54.50.283,Colour_Asymmetry_Pilot,2022.1.3,Win32,59.99160118,62c50e9c1127f2cd403a315f,0,108,108,0,1,onetwo,,,,,,,,,,,,,,,,,,,,,,,,,,,,,,,,,,,,,,,,,,,,,,,,,,,,,,,,,,,,,,,,,,,,,,,,,,,,,,,,,,,,,,,,,,,,,,,,,,,,,,,,,,,,,,,,,,,,,,,,,,,,,,,,,,,,,,,,,,,,,,,,,,,,,,,,,,,,,
,,,,,,60f4ac44348aacd594c61bb5,62c539b8bee84d668969a53b,2022-07-06_09h54.50.283,Colour_Asymmetry_Pilot,2022.1.3,Win32,59.99160118,62c50e9c1127f2cd403a315f,0,109,109,72,1,onetwo,,,,,,,,,,,,,,,,,,,,,,,,,,,,,,,,,,,,,,,,,,,,,,,,,,,,,,,,,,,,,,,,,,,,,,,,,,,,,,,,,,,,,,,,,,,,,,,,,,,,,,,,,,,,,,,,,,,,,,,,,,,,,,,,,,,,,,,,,,,,,,,,,,,,,,,,,,,,,
,,,,,,60f4ac44348aacd594c61bb5,62c539b8bee84d668969a53b,2022-07-06_09h54.50.283,Colour_Asymmetry_Pilot,2022.1.3,Win32,59.99160118,62c50e9c1127f2cd403a315f,0,110,110,5,1,threefour,,,,,,,,,,,,,,,,,,,,,,,,,,,,,,,,,,,,,,,,,,,,,,,,,,,,,,,,,,,,,,,,,,,,,,,,,,,,,,,,,,,,,,,,,,,,,,,,,,,,,,,,,,,,,,,,,,,,,,,,,,,,,,,,,,,,,,,,,,,,,,,,,,,,,,,,,,,,,
,,,,,,60f4ac44348aacd594c61bb5,62c539b8bee84d668969a53b,2022-07-06_09h54.50.283,Colour_Asymmetry_Pilot,2022.1.3,Win32,59.99160118,62c50e9c1127f2cd403a315f,0,111,111,31,1,fourthree,,,,,,,,,,,,,,,,,,,,,,,,,,,,,,,,,,,,,,,,,,,,,,,,,,,,,,,,,,,,,,,,,,,,,,,,,,,,,,,,,,,,,,,,,,,,,,,,,,,,,,,,,,,,,,,,,,,,,,,,,,,,,,,,,,,,,,,,,,,,,,,,,,,,,,,,,,,,,
,,,,,,60f4ac44348aacd594c61bb5,62c539b8bee84d668969a53b,2022-07-06_09h54.50.283,Colour_Asymmetry_Pilot,2022.1.3,Win32,59.99160118,62c50e9c1127f2cd403a315f,0,112,112,68,1,threeone,,,,,,,,,,,,,,,,,,,,,,,,,,,,,,,,,,,,,,,,,,,,,,,,,,,,,,,,,,,,,,,,,,,,,,,,,,,,,,,,,,,,,,,,,,,,,,,,,,,,,,,,,,,,,,,,,,,,,,,,,,,,,,,,,,,,,,,,,,,,,,,,,,,,,,,,,,,,,
,,,,,,60f4ac44348aacd594c61bb5,62c539b8bee84d668969a53b,2022-07-06_09h54.50.283,Colour_Asymmetry_Pilot,2022.1.3,Win32,59.99160118,62c50e9c1127f2cd403a315f,0,113,113,113,1,onethree,,,,,,,,,,,,,,,,,,,,,,,,,,,,,,,,,,,,,,,,,,,,,,,,,,,,,,,,,,,,,,,,,,,,,,,,,,,,,,,,,,,,,,,,,,,,,,,,,,,,,,,,,,,,,,,,,,,,,,,,,,,,,,,,,,,,,,,,,,,,,,,,,,,,,,,,,,,,,
,,,,,,60f4ac44348aacd594c61bb5,62c539b8bee84d668969a53b,2022-07-06_09h54.50.283,Colour_Asymmetry_Pilot,2022.1.3,Win32,59.99160118,62c50e9c1127f2cd403a315f,0,114,114,19,1,twofour,,,,,,,,,,,,,,,,,,,,,,,,,,,,,,,,,,,,,,,,,,,,,,,,,,,,,,,,,,,,,,,,,,,,,,,,,,,,,,,,,,,,,,,,,,,,,,,,,,,,,,,,,,,,,,,,,,,,,,,,,,,,,,,,,,,,,,,,,,,,,,,,,,,,,,,,,,,,,
,,,,,,60f4ac44348aacd594c61bb5,62c539b8bee84d668969a53b,2022-07-06_09h54.50.283,Colour_Asymmetry_Pilot,2022.1.3,Win32,59.99160118,62c50e9c1127f2cd403a315f,0,115,115,104,1,onetwo,,,,,,,,,,,,,,,,,,,,,,,,,,,,,,,,,,,,,,,,,,,,,,,,,,,,,,,,,,,,,,,,,,,,,,,,,,,,,,,,,,,,,,,,,,,,,,,,,,,,,,,,,,,,,,,,,,,,,,,,,,,,,,,,,,,,,,,,,,,,,,,,,,,,,,,,,,,,,
,,,,,,60f4ac44348aacd594c61bb5,62c539b8bee84d668969a53b,2022-07-06_09h54.50.283,Colour_Asymmetry_Pilot,2022.1.3,Win32,59.99160118,62c50e9c1127f2cd403a315f,0,116,116,63,1,fourthree,,,,,,,,,,,,,,,,,,,,,,,,,,,,,,,,,,,,,,,,,,,,,,,,,,,,,,,,,,,,,,,,,,,,,,,,,,,,,,,,,,,,,,,,,,,,,,,,,,,,,,,,,,,,,,,,,,,,,,,,,,,,,,,,,,,,,,,,,,,,,,,,,,,,,,,,,,,,,
,,,,,,60f4ac44348aacd594c61bb5,62c539b8bee84d668969a53b,2022-07-06_09h54.50.283,Colour_Asymmetry_Pilot,2022.1.3,Win32,59.99160118,62c50e9c1127f2cd403a315f,0,117,117,40,1,onetwo,,,,,,,,,,,,,,,,,,,,,,,,,,,,,,,,,,,,,,,,,,,,,,,,,,,,,,,,,,,,,,,,,,,,,,,,,,,,,,,,,,,,,,,,,,,,,,,,,,,,,,,,,,,,,,,,,,,,,,,,,,,,,,,,,,,,,,,,,,,,,,,,,,,,,,,,,,,,,
,,,,,,60f4ac44348aacd594c61bb5,62c539b8bee84d668969a53b,2022-07-06_09h54.50.283,Colour_Asymmetry_Pilot,2022.1.3,Win32,59.99160118,62c50e9c1127f2cd403a315f,0,118,118,33,1,onethree,,,,,,,,,,,,,,,,,,,,,,,,,,,,,,,,,,,,,,,,,,,,,,,,,,,,,,,,,,,,,,,,,,,,,,,,,,,,,,,,,,,,,,,,,,,,,,,,,,,,,,,,,,,,,,,,,,,,,,,,,,,,,,,,,,,,,,,,,,,,,,,,,,,,,,,,,,,,,
,,,,,,60f4ac44348aacd594c61bb5,62c539b8bee84d668969a53b,2022-07-06_09h54.50.283,Colour_Asymmetry_Pilot,2022.1.3,Win32,59.99160118,62c50e9c1127f2cd403a315f,0,119,119,92,1,threeone,,,,,,,,,,,,,,,,,,,,,,,,,,,,,,,,,,,,,,,,,,,,,,,,,,,,,,,,,,,,,,,,,,,,,,,,,,,,,,,,,,,,,,,,,,,,,,,,,,,,,,,,,,,,,,,,,,,,,,,,,,,,,,,,,,,,,,,,,,,,,,,,,,,,,,,,,,,,,
,,,,,,60f4ac44348aacd594c61bb5,62c539b8bee84d668969a53b,2022-07-06_09h54.50.283,Colour_Asymmetry_Pilot,2022.1.3,Win32,59.99160118,62c50e9c1127f2cd403a315f,0,120,120,107,1,twofour,,,,,,,,,,,,,,,,,,,,,,,,,,,,,,,,,,,,,,,,,,,,,,,,,,,,,,,,,,,,,,,,,,,,,,,,,,,,,,,,,,,,,,,,,,,,,,,,,,,,,,,,,,,,,,,,,,,,,,,,,,,,,,,,,,,,,,,,,,,,,,,,,,,,,,,,,,,,,
,,,,,,60f4ac44348aacd594c61bb5,62c539b8bee84d668969a53b,2022-07-06_09h54.50.283,Colour_Asymmetry_Pilot,2022.1.3,Win32,59.99160118,62c50e9c1127f2cd403a315f,0,121,121,91,1,twofour,,,,,,,,,,,,,,,,,,,,,,,,,,,,,,,,,,,,,,,,,,,,,,,,,,,,,,,,,,,,,,,,,,,,,,,,,,,,,,,,,,,,,,,,,,,,,,,,,,,,,,,,,,,,,,,,,,,,,,,,,,,,,,,,,,,,,,,,,,,,,,,,,,,,,,,,,,,,,
,,,,,,60f4ac44348aacd594c61bb5,62c539b8bee84d668969a53b,2022-07-06_09h54.50.283,Colour_Asymmetry_Pilot,2022.1.3,Win32,59.99160118,62c50e9c1127f2cd403a315f,0,122,122,129,1,onethree,,,,,,,,,,,,,,,,,,,,,,,,,,,,,,,,,,,,,,,,,,,,,,,,,,,,,,,,,,,,,,,,,,,,,,,,,,,,,,,,,,,,,,,,,,,,,,,,,,,,,,,,,,,,,,,,,,,,,,,,,,,,,,,,,,,,,,,,,,,,,,,,,,,,,,,,,,,,,
,,,,,,60f4ac44348aacd594c61bb5,62c539b8bee84d668969a53b,2022-07-06_09h54.50.283,Colour_Asymmetry_Pilot,2022.1.3,Win32,59.99160118,62c50e9c1127f2cd403a315f,0,123,123,131,1,twofour,,,,,,,,,,,,,,,,,,,,,,,,,,,,,,,,,,,,,,,,,,,,,,,,,,,,,,,,,,,,,,,,,,,,,,,,,,,,,,,,,,,,,,,,,,,,,,,,,,,,,,,,,,,,,,,,,,,,,,,,,,,,,,,,,,,,,,,,,,,,,,,,,,,,,,,,,,,,,
,,,,,,60f4ac44348aacd594c61bb5,62c539b8bee84d668969a53b,2022-07-06_09h54.50.283,Colour_Asymmetry_Pilot,2022.1.3,Win32,59.99160118,62c50e9c1127f2cd403a315f,0,124,124,77,1,threefour,,,,,,,,,,,,,,,,,,,,,,,,,,,,,,,,,,,,,,,,,,,,,,,,,,,,,,,,,,,,,,,,,,,,,,,,,,,,,,,,,,,,,,,,,,,,,,,,,,,,,,,,,,,,,,,,,,,,,,,,,,,,,,,,,,,,,,,,,,,,,,,,,,,,,,,,,,,,,
,,,,,,60f4ac44348aacd594c61bb5,62c539b8bee84d668969a53b,2022-07-06_09h54.50.283,Colour_Asymmetry_Pilot,2022.1.3,Win32,59.99160118,62c50e9c1127f2cd403a315f,0,125,125,144,1,onetwo,,,,,,,,,,,,,,,,,,,,,,,,,,,,,,,,,,,,,,,,,,,,,,,,,,,,,,,,,,,,,,,,,,,,,,,,,,,,,,,,,,,,,,,,,,,,,,,,,,,,,,,,,,,,,,,,,,,,,,,,,,,,,,,,,,,,,,,,,,,,,,,,,,,,,,,,,,,,,
,,,,,,60f4ac44348aacd594c61bb5,62c539b8bee84d668969a53b,2022-07-06_09h54.50.283,Colour_Asymmetry_Pilot,2022.1.3,Win32,59.99160118,62c50e9c1127f2cd403a315f,0,126,126,6,1,fourtwo,,,,,,,,,,,,,,,,,,,,,,,,,,,,,,,,,,,,,,,,,,,,,,,,,,,,,,,,,,,,,,,,,,,,,,,,,,,,,,,,,,,,,,,,,,,,,,,,,,,,,,,,,,,,,,,,,,,,,,,,,,,,,,,,,,,,,,,,,,,,,,,,,,,,,,,,,,,,,
,,,,,,60f4ac44348aacd594c61bb5,62c539b8bee84d668969a53b,2022-07-06_09h54.50.283,Colour_Asymmetry_Pilot,2022.1.3,Win32,59.99160118,62c50e9c1127f2cd403a315f,0,127,127,80,1,onetwo,,,,,,,,,,,,,,,,,,,,,,,,,,,,,,,,,,,,,,,,,,,,,,,,,,,,,,,,,,,,,,,,,,,,,,,,,,,,,,,,,,,,,,,,,,,,,,,,,,,,,,,,,,,,,,,,,,,,,,,,,,,,,,,,,,,,,,,,,,,,,,,,,,,,,,,,,,,,,
,,,,,,60f4ac44348aacd594c61bb5,62c539b8bee84d668969a53b,2022-07-06_09h54.50.283,Colour_Asymmetry_Pilot,2022.1.3,Win32,59.99160118,62c50e9c1127f2cd403a315f,0,128,128,95,1,fourthree,,,,,,,,,,,,,,,,,,,,,,,,,,,,,,,,,,,,,,,,,,,,,,,,,,,,,,,,,,,,,,,,,,,,,,,,,,,,,,,,,,,,,,,,,,,,,,,,,,,,,,,,,,,,,,,,,,,,,,,,,,,,,,,,,,,,,,,,,,,,,,,,,,,,,,,,,,,,,
,,,,,,60f4ac44348aacd594c61bb5,62c539b8bee84d668969a53b,2022-07-06_09h54.50.283,Colour_Asymmetry_Pilot,2022.1.3,Win32,59.99160118,62c50e9c1127f2cd403a315f,0,129,129,137,1,onethree,,,,,,,,,,,,,,,,,,,,,,,,,,,,,,,,,,,,,,,,,,,,,,,,,,,,,,,,,,,,,,,,,,,,,,,,,,,,,,,,,,,,,,,,,,,,,,,,,,,,,,,,,,,,,,,,,,,,,,,,,,,,,,,,,,,,,,,,,,,,,,,,,,,,,,,,,,,,,
,,,,,,60f4ac44348aacd594c61bb5,62c539b8bee84d668969a53b,2022-07-06_09h54.50.283,Colour_Asymmetry_Pilot,2022.1.3,Win32,59.99160118,62c50e9c1127f2cd403a315f,0,130,130,14,1,fourtwo,,,,,,,,,,,,,,,,,,,,,,,,,,,,,,,,,,,,,,,,,,,,,,,,,,,,,,,,,,,,,,,,,,,,,,,,,,,,,,,,,,,,,,,,,,,,,,,,,,,,,,,,,,,,,,,,,,,,,,,,,,,,,,,,,,,,,,,,,,,,,,,,,,,,,,,,,,,,,
,,,,,,60f4ac44348aacd594c61bb5,62c539b8bee84d668969a53b,2022-07-06_09h54.50.283,Colour_Asymmetry_Pilot,2022.1.3,Win32,59.99160118,62c50e9c1127f2cd403a315f,0,131,131,50,1,twoone,,,,,,,,,,,,,,,,,,,,,,,,,,,,,,,,,,,,,,,,,,,,,,,,,,,,,,,,,,,,,,,,,,,,,,,,,,,,,,,,,,,,,,,,,,,,,,,,,,,,,,,,,,,,,,,,,,,,,,,,,,,,,,,,,,,,,,,,,,,,,,,,,,,,,,,,,,,,,
,,,,,,60f4ac44348aacd594c61bb5,62c539b8bee84d668969a53b,2022-07-06_09h54.50.283,Colour_Asymmetry_Pilot,2022.1.3,Win32,59.99160118,62c50e9c1127f2cd403a315f,0,132,132,159,1,fourthree,,,,,,,,,,,,,,,,,,,,,,,,,,,,,,,,,,,,,,,,,,,,,,,,,,,,,,,,,,,,,,,,,,,,,,,,,,,,,,,,,,,,,,,,,,,,,,,,,,,,,,,,,,,,,,,,,,,,,,,,,,,,,,,,,,,,,,,,,,,,,,,,,,,,,,,,,,,,,
,,,,,,60f4ac44348aacd594c61bb5,62c539b8bee84d668969a53b,2022-07-06_09h54.50.283,Colour_Asymmetry_Pilot,2022.1.3,Win32,59.99160118,62c50e9c1127f2cd403a315f,0,133,133,126,1,fourtwo,,,,,,,,,,,,,,,,,,,,,,,,,,,,,,,,,,,,,,,,,,,,,,,,,,,,,,,,,,,,,,,,,,,,,,,,,,,,,,,,,,,,,,,,,,,,,,,,,,,,,,,,,,,,,,,,,,,,,,,,,,,,,,,,,,,,,,,,,,,,,,,,,,,,,,,,,,,,,
,,,,,,60f4ac44348aacd594c61bb5,62c539b8bee84d668969a53b,2022-07-06_09h54.50.283,Colour_Asymmetry_Pilot,2022.1.3,Win32,59.99160118,62c50e9c1127f2cd403a315f,0,134,134,13,1,threefour,,,,,,,,,,,,,,,,,,,,,,,,,,,,,,,,,,,,,,,,,,,,,,,,,,,,,,,,,,,,,,,,,,,,,,,,,,,,,,,,,,,,,,,,,,,,,,,,,,,,,,,,,,,,,,,,,,,,,,,,,,,,,,,,,,,,,,,,,,,,,,,,,,,,,,,,,,,,,
,,,,,,60f4ac44348aacd594c61bb5,62c539b8bee84d668969a53b,2022-07-06_09h54.50.283,Colour_Asymmetry_Pilot,2022.1.3,Win32,59.99160118,62c50e9c1127f2cd403a315f,0,135,135,125,1,threefour,,,,,,,,,,,,,,,,,,,,,,,,,,,,,,,,,,,,,,,,,,,,,,,,,,,,,,,,,,,,,,,,,,,,,,,,,,,,,,,,,,,,,,,,,,,,,,,,,,,,,,,,,,,,,,,,,,,,,,,,,,,,,,,,,,,,,,,,,,,,,,,,,,,,,,,,,,,,,
,,,,,,60f4ac44348aacd594c61bb5,62c539b8bee84d668969a53b,2022-07-06_09h54.50.283,Colour_Asymmetry_Pilot,2022.1.3,Win32,59.99160118,62c50e9c1127f2cd403a315f,0,136,136,118,1,fourtwo,,,,,,,,,,,,,,,,,,,,,,,,,,,,,,,,,,,,,,,,,,,,,,,,,,,,,,,,,,,,,,,,,,,,,,,,,,,,,,,,,,,,,,,,,,,,,,,,,,,,,,,,,,,,,,,,,,,,,,,,,,,,,,,,,,,,,,,,,,,,,,,,,,,,,,,,,,,,,
,,,,,,60f4ac44348aacd594c61bb5,62c539b8bee84d668969a53b,2022-07-06_09h54.50.283,Colour_Asymmetry_Pilot,2022.1.3,Win32,59.99160118,62c50e9c1127f2cd403a315f,0,137,137,48,1,onetwo,,,,,,,,,,,,,,,,,,,,,,,,,,,,,,,,,,,,,,,,,,,,,,,,,,,,,,,,,,,,,,,,,,,,,,,,,,,,,,,,,,,,,,,,,,,,,,,,,,,,,,,,,,,,,,,,,,,,,,,,,,,,,,,,,,,,,,,,,,,,,,,,,,,,,,,,,,,,,
,,,,,,60f4ac44348aacd594c61bb5,62c539b8bee84d668969a53b,2022-07-06_09h54.50.283,Colour_Asymmetry_Pilot,2022.1.3,Win32,59.99160118,62c50e9c1127f2cd403a315f,0,138,138,1,1,onethree,,,,,,,,,,,,,,,,,,,,,,,,,,,,,,,,,,,,,,,,,,,,,,,,,,,,,,,,,,,,,,,,,,,,,,,,,,,,,,,,,,,,,,,,,,,,,,,,,,,,,,,,,,,,,,,,,,,,,,,,,,,,,,,,,,,,,,,,,,,,,,,,,,,,,,,,,,,,,
,,,,,,60f4ac44348aacd594c61bb5,62c539b8bee84d668969a53b,2022-07-06_09h54.50.283,Colour_Asymmetry_Pilot,2022.1.3,Win32,59.99160118,62c50e9c1127f2cd403a315f,0,139,139,154,1,twoone,,,,,,,,,,,,,,,,,,,,,,,,,,,,,,,,,,,,,,,,,,,,,,,,,,,,,,,,,,,,,,,,,,,,,,,,,,,,,,,,,,,,,,,,,,,,,,,,,,,,,,,,,,,,,,,,,,,,,,,,,,,,,,,,,,,,,,,,,,,,,,,,,,,,,,,,,,,,,
,,,,,,60f4ac44348aacd594c61bb5,62c539b8bee84d668969a53b,2022-07-06_09h54.50.283,Colour_Asymmetry_Pilot,2022.1.3,Win32,59.99160118,62c50e9c1127f2cd403a315f,0,140,140,81,1,onethree,,,,,,,,,,,,,,,,,,,,,,,,,,,,,,,,,,,,,,,,,,,,,,,,,,,,,,,,,,,,,,,,,,,,,,,,,,,,,,,,,,,,,,,,,,,,,,,,,,,,,,,,,,,,,,,,,,,,,,,,,,,,,,,,,,,,,,,,,,,,,,,,,,,,,,,,,,,,,
,,,,,,60f4ac44348aacd594c61bb5,62c539b8bee84d668969a53b,2022-07-06_09h54.50.283,Colour_Asymmetry_Pilot,2022.1.3,Win32,59.99160118,62c50e9c1127f2cd403a315f,0,141,141,106,1,twoone,,,,,,,,,,,,,,,,,,,,,,,,,,,,,,,,,,,,,,,,,,,,,,,,,,,,,,,,,,,,,,,,,,,,,,,,,,,,,,,,,,,,,,,,,,,,,,,,,,,,,,,,,,,,,,,,,,,,,,,,,,,,,,,,,,,,,,,,,,,,,,,,,,,,,,,,,,,,,
,,,,,,60f4ac44348aacd594c61bb5,62c539b8bee84d668969a53b,2022-07-06_09h54.50.283,Colour_Asymmetry_Pilot,2022.1.3,Win32,59.99160118,62c50e9c1127f2cd403a315f,0,142,142,143,1,fourthree,,,,,,,,,,,,,,,,,,,,,,,,,,,,,,,,,,,,,,,,,,,,,,,,,,,,,,,,,,,,,,,,,,,,,,,,,,,,,,,,,,,,,,,,,,,,,,,,,,,,,,,,,,,,,,,,,,,,,,,,,,,,,,,,,,,,,,,,,,,,,,,,,,,,,,,,,,,,,
,,,,,,60f4ac44348aacd594c61bb5,62c539b8bee84d668969a53b,2022-07-06_09h54.50.283,Colour_Asymmetry_Pilot,2022.1.3,Win32,59.99160118,62c50e9c1127f2cd403a315f,0,143,143,82,1,twoone,,,,,,,,,,,,,,,,,,,,,,,,,,,,,,,,,,,,,,,,,,,,,,,,,,,,,,,,,,,,,,,,,,,,,,,,,,,,,,,,,,,,,,,,,,,,,,,,,,,,,,,,,,,,,,,,,,,,,,,,,,,,,,,,,,,,,,,,,,,,,,,,,,,,,,,,,,,,,
,,,,,,60f4ac44348aacd594c61bb5,62c539b8bee84d668969a53b,2022-07-06_09h54.50.283,Colour_Asymmetry_Pilot,2022.1.3,Win32,59.99160118,62c50e9c1127f2cd403a315f,0,144,144,127,1,fourthree,,,,,,,,,,,,,,,,,,,,,,,,,,,,,,,,,,,,,,,,,,,,,,,,,,,,,,,,,,,,,,,,,,,,,,,,,,,,,,,,,,,,,,,,,,,,,,,,,,,,,,,,,,,,,,,,,,,,,,,,,,,,,,,,,,,,,,,,,,,,,,,,,,,,,,,,,,,,,
,,,,,,60f4ac44348aacd594c61bb5,62c539b8bee84d668969a53b,2022-07-06_09h54.50.283,Colour_Asymmetry_Pilot,2022.1.3,Win32,59.99160118,62c50e9c1127f2cd403a315f,0,145,145,54,1,fourtwo,,,,,,,,,,,,,,,,,,,,,,,,,,,,,,,,,,,,,,,,,,,,,,,,,,,,,,,,,,,,,,,,,,,,,,,,,,,,,,,,,,,,,,,,,,,,,,,,,,,,,,,,,,,,,,,,,,,,,,,,,,,,,,,,,,,,,,,,,,,,,,,,,,,,,,,,,,,,,
,,,,,,60f4ac44348aacd594c61bb5,62c539b8bee84d668969a53b,2022-07-06_09h54.50.283,Colour_Asymmetry_Pilot,2022.1.3,Win32,59.99160118,62c50e9c1127f2cd403a315f,0,146,146,147,1,twofour,,,,,,,,,,,,,,,,,,,,,,,,,,,,,,,,,,,,,,,,,,,,,,,,,,,,,,,,,,,,,,,,,,,,,,,,,,,,,,,,,,,,,,,,,,,,,,,,,,,,,,,,,,,,,,,,,,,,,,,,,,,,,,,,,,,,,,,,,,,,,,,,,,,,,,,,,,,,,
,,,,,,60f4ac44348aacd594c61bb5,62c539b8bee84d668969a53b,2022-07-06_09h54.50.283,Colour_Asymmetry_Pilot,2022.1.3,Win32,59.99160118,62c50e9c1127f2cd403a315f,0,147,147,86,1,fourtwo,,,,,,,,,,,,,,,,,,,,,,,,,,,,,,,,,,,,,,,,,,,,,,,,,,,,,,,,,,,,,,,,,,,,,,,,,,,,,,,,,,,,,,,,,,,,,,,,,,,,,,,,,,,,,,,,,,,,,,,,,,,,,,,,,,,,,,,,,,,,,,,,,,,,,,,,,,,,,
,,,,,,60f4ac44348aacd594c61bb5,62c539b8bee84d668969a53b,2022-07-06_09h54.50.283,Colour_Asymmetry_Pilot,2022.1.3,Win32,59.99160118,62c50e9c1127f2cd403a315f,0,148,148,70,1,fourtwo,,,,,,,,,,,,,,,,,,,,,,,,,,,,,,,,,,,,,,,,,,,,,,,,,,,,,,,,,,,,,,,,,,,,,,,,,,,,,,,,,,,,,,,,,,,,,,,,,,,,,,,,,,,,,,,,,,,,,,,,,,,,,,,,,,,,,,,,,,,,,,,,,,,,,,,,,,,,,
,,,,,,60f4ac44348aacd594c61bb5,62c539b8bee84d668969a53b,2022-07-06_09h54.50.283,Colour_Asymmetry_Pilot,2022.1.3,Win32,59.99160118,62c50e9c1127f2cd403a315f,0,149,149,26,1,twoone,,,,,,,,,,,,,,,,,,,,,,,,,,,,,,,,,,,,,,,,,,,,,,,,,,,,,,,,,,,,,,,,,,,,,,,,,,,,,,,,,,,,,,,,,,,,,,,,,,,,,,,,,,,,,,,,,,,,,,,,,,,,,,,,,,,,,,,,,,,,,,,,,,,,,,,,,,,,,
,,,,,,60f4ac44348aacd594c61bb5,62c539b8bee84d668969a53b,2022-07-06_09h54.50.283,Colour_Asymmetry_Pilot,2022.1.3,Win32,59.99160118,62c50e9c1127f2cd403a315f,0,150,150,93,1,threefour,,,,,,,,,,,,,,,,,,,,,,,,,,,,,,,,,,,,,,,,,,,,,,,,,,,,,,,,,,,,,,,,,,,,,,,,,,,,,,,,,,,,,,,,,,,,,,,,,,,,,,,,,,,,,,,,,,,,,,,,,,,,,,,,,,,,,,,,,,,,,,,,,,,,,,,,,,,,,
,,,,,,60f4ac44348aacd594c61bb5,62c539b8bee84d668969a53b,2022-07-06_09h54.50.283,Colour_Asymmetry_Pilot,2022.1.3,Win32,59.99160118,62c50e9c1127f2cd403a315f,0,151,151,121,1,onethree,,,,,,,,,,,,,,,,,,,,,,,,,,,,,,,,,,,,,,,,,,,,,,,,,,,,,,,,,,,,,,,,,,,,,,,,,,,,,,,,,,,,,,,,,,,,,,,,,,,,,,,,,,,,,,,,,,,,,,,,,,,,,,,,,,,,,,,,,,,,,,,,,,,,,,,,,,,,,
,,,,,,60f4ac44348aacd594c61bb5,62c539b8bee84d668969a53b,2022-07-06_09h54.50.283,Colour_Asymmetry_Pilot,2022.1.3,Win32,59.99160118,62c50e9c1127f2cd403a315f,0,152,152,51,1,twofour,,,,,,,,,,,,,,,,,,,,,,,,,,,,,,,,,,,,,,,,,,,,,,,,,,,,,,,,,,,,,,,,,,,,,,,,,,,,,,,,,,,,,,,,,,,,,,,,,,,,,,,,,,,,,,,,,,,,,,,,,,,,,,,,,,,,,,,,,,,,,,,,,,,,,,,,,,,,,
,,,,,,60f4ac44348aacd594c61bb5,62c539b8bee84d668969a53b,2022-07-06_09h54.50.283,Colour_Asymmetry_Pilot,2022.1.3,Win32,59.99160118,62c50e9c1127f2cd403a315f,0,153,153,57,1,onethree,,,,,,,,,,,,,,,,,,,,,,,,,,,,,,,,,,,,,,,,,,,,,,,,,,,,,,,,,,,,,,,,,,,,,,,,,,,,,,,,,,,,,,,,,,,,,,,,,,,,,,,,,,,,,,,,,,,,,,,,,,,,,,,,,,,,,,,,,,,,,,,,,,,,,,,,,,,,,
,,,,,,60f4ac44348aacd594c61bb5,62c539b8bee84d668969a53b,2022-07-06_09h54.50.283,Colour_Asymmetry_Pilot,2022.1.3,Win32,59.99160118,62c50e9c1127f2cd403a315f,0,154,154,30,1,fourtwo,,,,,,,,,,,,,,,,,,,,,,,,,,,,,,,,,,,,,,,,,,,,,,,,,,,,,,,,,,,,,,,,,,,,,,,,,,,,,,,,,,,,,,,,,,,,,,,,,,,,,,,,,,,,,,,,,,,,,,,,,,,,,,,,,,,,,,,,,,,,,,,,,,,,,,,,,,,,,
,,,,,,60f4ac44348aacd594c61bb5,62c539b8bee84d668969a53b,2022-07-06_09h54.50.283,Colour_Asymmetry_Pilot,2022.1.3,Win32,59.99160118,62c50e9c1127f2cd403a315f,0,155,155,98,1,twoone,,,,,,,,,,,,,,,,,,,,,,,,,,,,,,,,,,,,,,,,,,,,,,,,,,,,,,,,,,,,,,,,,,,,,,,,,,,,,,,,,,,,,,,,,,,,,,,,,,,,,,,,,,,,,,,,,,,,,,,,,,,,,,,,,,,,,,,,,,,,,,,,,,,,,,,,,,,,,
,,,,,,60f4ac44348aacd594c61bb5,62c539b8bee84d668969a53b,2022-07-06_09h54.50.283,Colour_Asymmetry_Pilot,2022.1.3,Win32,59.99160118,62c50e9c1127f2cd403a315f,0,156,156,136,1,onetwo,,,,,,,,,,,,,,,,,,,,,,,,,,,,,,,,,,,,,,,,,,,,,,,,,,,,,,,,,,,,,,,,,,,,,,,,,,,,,,,,,,,,,,,,,,,,,,,,,,,,,,,,,,,,,,,,,,,,,,,,,,,,,,,,,,,,,,,,,,,,,,,,,,,,,,,,,,,,,
,,,,,,60f4ac44348aacd594c61bb5,62c539b8bee84d668969a53b,2022-07-06_09h54.50.283,Colour_Asymmetry_Pilot,2022.1.3,Win32,59.99160118,62c50e9c1127f2cd403a315f,0,157,157,130,1,twoone,,,,,,,,,,,,,,,,,,,,,,,,,,,,,,,,,,,,,,,,,,,,,,,,,,,,,,,,,,,,,,,,,,,,,,,,,,,,,,,,,,,,,,,,,,,,,,,,,,,,,,,,,,,,,,,,,,,,,,,,,,,,,,,,,,,,,,,,,,,,,,,,,,,,,,,,,,,,,
,,,,,,60f4ac44348aacd594c61bb5,62c539b8bee84d668969a53b,2022-07-06_09h54.50.283,Colour_Asymmetry_Pilot,2022.1.3,Win32,59.99160118,62c50e9c1127f2cd403a315f,0,158,158,140,1,threeone,,,,,,,,,,,,,,,,,,,,,,,,,,,,,,,,,,,,,,,,,,,,,,,,,,,,,,,,,,,,,,,,,,,,,,,,,,,,,,,,,,,,,,,,,,,,,,,,,,,,,,,,,,,,,,,,,,,,,,,,,,,,,,,,,,,,,,,,,,,,,,,,,,,,,,,,,,,,,
,,,,,,60f4ac44348aacd594c61bb5,62c539b8bee84d668969a53b,2022-07-06_09h54.50.283,Colour_Asymmetry_Pilot,2022.1.3,Win32,59.99160118,62c50e9c1127f2cd403a315f,0,159,159,73,1,onethree,,,,,,,,,,,,,,,,,,,,,,,,,,,,,,,,,,,,,,,,,,,,,,,,,,,,,,,,,,,,,,,,,,,,,,,,,,,,,,,,,,,,,,,,,,,,,,,,,,,,,,,,,,,,,,,,,,,,,,,,,,,,,,,,,,,,,,,,,,,,,,,,,,,,,,,,,,,,,
,,,,,,60f4ac44348aacd594c61bb5,62c539b8bee84d668969a53b,2022-07-06_09h54.50.283,Colour_Asymmetry_Pilot,2022.1.3,Win32,59.99160118,62c50e9c1127f2cd403a315f,0,160,160,111,1,fourthree,,,,,,,,,,,,,,,,,,,,,,,,,,,,,,,,,,,,,,,,,,,,,,,,,,,,,,,,,,,,,,,,,,,,,,,,,,,,,,,,,,,,,,,,,,,,,,,,,,,,,,,,,,,,,,,,,,,,,,,,,,,,,,,,,,,,,,,,,,,,,,,,,,,,,,,,,,,,,
,,,,,,60f4ac44348aacd594c61bb5,62c539b8bee84d668969a53b,2022-07-06_09h54.50.283,Colour_Asymmetry_Pilot,2022.1.3,Win32,59.99160118,62c50e9c1127f2cd403a315f,0,161,161,29,1,threefour,,,,,,,,,,,,,,,,,,,,,,,,,,,,,,,,,,,,,,,,,,,,,,,,,,,,,,,,,,,,,,,,,,,,,,,,,,,,,,,,,,,,,,,,,,,,,,,,,,,,,,,,,,,,,,,,,,,,,,,,,,,,,,,,,,,,,,,,,,,,,,,,,,,,,,,,,,,,,
,,,,,,60f4ac44348aacd594c61bb5,62c539b8bee84d668969a53b,2022-07-06_09h54.50.283,Colour_Asymmetry_Pilot,2022.1.3,Win32,59.99160118,62c50e9c1127f2cd403a315f,,,,,,,space,14.7217,space,16.6206,space,38.927,space,17.4247,space,4.3471,space,4.9053,"[-0.17659999999999998,-0.2864,-0.8354]",twofour,"[0.37240000000000006,0.4980000000000002,-0.2864]",-3,15.6583,-92,72,1,0,0,response7disk_5,-6,3,1,0,0,rectangle_8,-6,3,1,0,0,1,-6,3,1,0,0,0,0,0,0,1,,,,,,,,,,,,,,,,,,,,,,,,,,,,,,,,,,,,,,,,,,,,,,,,,,,,,,,,,,,,,,,,,,,,,,,,,,,,,,,,,,,,,,,,,,,,,,,,,,,,,,,,,,,,,,,,
,,,,,,60f4ac44348aacd594c61bb5,62c539b8bee84d668969a53b,2022-07-06_09h54.50.283,Colour_Asymmetry_Pilot,2022.1.3,Win32,59.99160118,62c50e9c1127f2cd403a315f,,,,,,,,,,,,,,,,,,,"[0.4196,0.4665999999999999,0.3568]",twoone,"[0.9372,0.20779999999999998,0.2704]",-3,10.2993,-71,59,1,0,0,response7disk_5,0,4,1,0,0,rectangle_8,0,4,1,0,0,1,0,4,1,0,0,1,0,1,0,1,,,,,,,,,,,,,,,,,,,,,,,,,,,,,,,,,,,,,,,,,,,,,,,,,,,,,,,,,,,,,,,,,,,,,,,,,,,,,,,,,,,,,,,,,,,,,,,,,,,,,,,,,,,,,,,,
,,,,,,60f4ac44348aacd594c61bb5,62c539b8bee84d668969a53b,2022-07-06_09h54.50.283,Colour_Asymmetry_Pilot,2022.1.3,Win32,59.99160118,62c50e9c1127f2cd403a315f,,,,,,,,,,,,,,,,,,,"[0.8274000000000001,-0.5844,-0.9452]",fourthree,"[0.34099999999999997,0.5841999999999998,-0.9844]",4,6.7482,58,62,1,0,0,response1disk_5,0,-2,1,0,0,rectangle_8,0,-2,1,0,0,1,0,-2,1,0,0,2,0,2,0,1,,,,,,,,,,,,,,,,,,,,,,,,,,,,,,,,,,,,,,,,,,,,,,,,,,,,,,,,,,,,,,,,,,,,,,,,,,,,,,,,,,,,,,,,,,,,,,,,,,,,,,,,,,,,,,,,
,,,,,,60f4ac44348aacd594c61bb5,62c539b8bee84d668969a53b,2022-07-06_09h54.50.283,Colour_Asymmetry_Pilot,2022.1.3,Win32,59.99160118,62c50e9c1127f2cd403a315f,,,,,,,,,,,,,,,,,,,"[-0.24719999999999998,0.5213999999999999,-0.12959999999999994]",fourthree,"[0.12939999999999996,-0.2864,0.3253999999999999]",-4,3.4669,-49,80,1,0,0,response7disk_5,-4,1,1,0,0,rectangle_8,46,-99,1,0,0,1,3,3,1,0,0,3,0,3,0,1,response3disk_7,4,rectangle_4,,,,,,,,,,,,,,,,,,,,,,,,,,,,,,,,,,,,,,,,,,,,,,,,,,,,,,,,,,,,,,,,,,,,,,,,,,,,,,,,,,,,,,,,,,,,,,,,,,,,,,,,,,,,,
,,,,,,60f4ac44348aacd594c61bb5,62c539b8bee84d668969a53b,2022-07-06_09h54.50.283,Colour_Asymmetry_Pilot,2022.1.3,Win32,59.99160118,62c50e9c1127f2cd403a315f,,,,,,,,,,,,,,,,,,,"[0.3568,-0.20799999999999996,-0.9844]",threefour,"[-0.17659999999999998,0.3253999999999999,0.19999999999999996]",-4,8.115,-50,97,1,0,0,response7disk_5,-3,1,1,0,0,rectangle_8,44,-93,1,0,0,1,-7,0,1,0,0,4,0,4,0,1,response3disk_7,4,rectangle_4,,,,,,,,,,,,,,,,,,,,,,,,,,,,,,,,,,,,,,,,,,,,,,,,,,,,,,,,,,,,,,,,,,,,,,,,,,,,,,,,,,,,,,,,,,,,,,,,,,,,,,,,,,,,,
,,,,,,60f4ac44348aacd594c61bb5,62c539b8bee84d668969a53b,2022-07-06_09h54.50.283,Colour_Asymmetry_Pilot,2022.1.3,Win32,59.99160118,62c50e9c1127f2cd403a315f,,,,,,,,,,,,,,,,,,,"[-0.10599999999999998,-0.10599999999999998,0.5841999999999998]",twofour,"[-0.17659999999999998,-0.2864,-0.8354]",-3,2.3833,-87,40,1,0,0,response7disk_5,14,4,1,0,0,rectangle_8,14,4,1,0,0,1,14,4,1,0,0,5,0,5,0,1,,,,,,,,,,,,,,,,,,,,,,,,,,,,,,,,,,,,,,,,,,,,,,,,,,,,,,,,,,,,,,,,,,,,,,,,,,,,,,,,,,,,,,,,,,,,,,,,,,,,,,,,,,,,,,,,
,,,,,,60f4ac44348aacd594c61bb5,62c539b8bee84d668969a53b,2022-07-06_09h54.50.283,Colour_Asymmetry_Pilot,2022.1.3,Win32,59.99160118,62c50e9c1127f2cd403a315f,,,,,,,,,,,,,,,,,,,"[-0.5922000000000001,-0.7492000000000001,-0.5296000000000001]",threefour,"[-0.01980000000000004,-0.5138,-0.38039999999999996]",-2,2.7843,-86,-62,1,0,0,response5disk_5,3,2,1,0,0,rectangle_8,3,2,1,0,0,1,3,2,1,0,0,6,0,6,0,1,,,,,,,,,,,,,,,,,,,,,,,,,,,,,,,,,,,,,,,,,,,,,,,,,,,,,,,,,,,,,,,,,,,,,,,,,,,,,,,,,,,,,,,,,,,,,,,,,,,,,,,,,,,,,,,,
,,,,,,60f4ac44348aacd594c61bb5,62c539b8bee84d668969a53b,2022-07-06_09h54.50.283,Colour_Asymmetry_Pilot,2022.1.3,Win32,59.99160118,62c50e9c1127f2cd403a315f,,,,,,,,,,,,,,,,,,,,threefour,,-1,1.2518,,,,,,,,,,,,,,,,,,,,,,,,,,,,,,,,space,3.4246,"[0.2784,-0.31000000000000005,-0.5452]","[-0.09019999999999995,0.44300000000000006,0.5371999999999999]",-38,-89,1,0,0,response5disk,1,2,1,0,0,rectangle,1,2,1,0,0,,3,0.0047,0,1,2,1,0,0,0,0,0,69,1,69,first,,,,,,,,,,,,,,,,,,,,,,,,,,,,,,,,,,,,,,,,,,,,,,,,,,,,,,,,,,,,,,,,,,,,,,,,
,,,,,,60f4ac44348aacd594c61bb5,62c539b8bee84d668969a53b,2022-07-06_09h54.50.283,Colour_Asymmetry_Pilot,2022.1.3,Win32,59.99160118,62c50e9c1127f2cd403a315f,,,,,,,,,,,,,,,,,,,,twofour,,-3,1.1058,,,,,,,,,,,,,,,,,,,,,,,,,,,,,,,,,,"[-0.09019999999999995,0.44300000000000006,0.5371999999999999]","[-0.20799999999999996,-0.655,-0.01980000000000004]",-72,32,1,0,0,response7disk,1,9,1,0,0,rectangle,1,9,1,0,0,,1,0.0022,0,1,9,1,0,0,0,1,1,110,1,29,second,,,,,,,,,,,,,,,,,,,,,,,,,,,,,,,,,,,,,,,,,,,,,,,,,,,,,,,,,,,,,,,,,,,,,,,,
,,,,,,60f4ac44348aacd594c61bb5,62c539b8bee84d668969a53b,2022-07-06_09h54.50.283,Colour_Asymmetry_Pilot,2022.1.3,Win32,59.99160118,62c50e9c1127f2cd403a315f,,,,,,,,,,,,,,,,,,,,threeone,,-3,0.7716,,,,,,,,,,,,,,,,,,,,,,,,,,,,,,,,,,"[-0.20799999999999996,-0.655,-0.01980000000000004]","[-0.9688,-0.38039999999999996,-0.41979999999999995]",-90,27,1,0,0,response7disk,1,3,1,0,0,rectangle,1,3,1,0,0,,1,0.0013,0,1,3,1,0,0,0,2,2,113,1,32,second,,,,,,,,,,,,,,,,,,,,,,,,,,,,,,,,,,,,,,,,,,,,,,,,,,,,,,,,,,,,,,,,,,,,,,,,
,,,,,,60f4ac44348aacd594c61bb5,62c539b8bee84d668969a53b,2022-07-06_09h54.50.283,Colour_Asymmetry_Pilot,2022.1.3,Win32,59.99160118,62c50e9c1127f2cd403a315f,,,,,,,,,,,,,,,,,,,,onetwo,,-2,1.8632,,,,,,,,,,,,,,,,,,,,,,,,,,,,,,,,,,"[-0.7412000000000001,-0.08239999999999992,-0.6864]","[0.9686000000000001,0.5763999999999998,0.11359999999999992]",-99,-35,1,0,0,response5disk,4,2,1,0,0,rectangle,4,2,1,0,0,,1,0.0005,0,4,2,1,0,0,0,3,3,143,1,62,second,,,,,,,,,,,,,,,,,,,,,,,,,,,,,,,,,,,,,,,,,,,,,,,,,,,,,,,,,,,,,,,,,,,,,,,,
,,,,,,60f4ac44348aacd594c61bb5,62c539b8bee84d668969a53b,2022-07-06_09h54.50.283,Colour_Asymmetry_Pilot,2022.1.3,Win32,59.99160118,62c50e9c1127f2cd403a315f,,,,,,,,,,,,,,,,,,,,fourtwo,,-4,1.2963,,,,,,,,,,,,,,,,,,,,,,,,,,,,,,,,,,"[-0.38039999999999996,-0.4276,-0.1452]","[0.9686000000000001,0.3802000000000001,0.19999999999999996]",-34,104,1,0,0,response7disk,3,-6,1,0,0,rectangle,3,-6,1,0,0,,3,0.0022,0,3,-6,1,0,0,0,4,4,115,1,34,second,,,,,,,,,,,,,,,,,,,,,,,,,,,,,,,,,,,,,,,,,,,,,,,,,,,,,,,,,,,,,,,,,,,,,,,,
,,,,,,60f4ac44348aacd594c61bb5,62c539b8bee84d668969a53b,2022-07-06_09h54.50.283,Colour_Asymmetry_Pilot,2022.1.3,Win32,59.99160118,62c50e9c1127f2cd403a315f,,,,,,,,,,,,,,,,,,,,threeone,,-4,0.8046,,,,,,,,,,,,,,,,,,,,,,,,,,,,,,,,,,"[-0.6235999999999999,-0.6786,-0.08239999999999992]","[-0.24719999999999998,0.5213999999999999,-0.12959999999999994]",-36,91,1,0,0,response7disk,1,3,1,0,0,rectangle,1,3,1,0,0,,3,0.0006,0,1,3,1,0,0,0,5,5,127,1,46,second,,,,,,,,,,,,,,,,,,,,,,,,,,,,,,,,,,,,,,,,,,,,,,,,,,,,,,,,,,,,,,,,,,,,,,,,
,,,,,,60f4ac44348aacd594c61bb5,62c539b8bee84d668969a53b,2022-07-06_09h54.50.283,Colour_Asymmetry_Pilot,2022.1.3,Win32,59.99160118,62c50e9c1127f2cd403a315f,,,,,,,,,,,,,,,,,,,,threeone,,2,1.5335,,,,,,,,,,,,,,,,,,,,,,,,,,,,,,,,,,"[-0.2942,-0.24719999999999998,-0.357]","[-0.09019999999999995,0.44300000000000006,0.5371999999999999]",78,-42,1,0,0,response3disk,-7,9,1,0,0,rectangle,-7,9,1,0,0,,3,0.0004,0,-7,9,1,0,0,0,6,6,6,1,6,first,,,,,,,,,,,,,,,,,,,,,,,,,,,,,,,,,,,,,,,,,,,,,,,,,,,,,,,,,,,,,,,,,,,,,,,,
,,,,,,60f4ac44348aacd594c61bb5,62c539b8bee84d668969a53b,2022-07-06_09h54.50.283,Colour_Asymmetry_Pilot,2022.1.3,Win32,59.99160118,62c50e9c1127f2cd403a315f,,,,,,,,,,,,,,,,,,,,threeone,,-4,0.7347,,,,,,,,,,,,,,,,,,,,,,,,,,,,,,,,,,"[-0.10599999999999998,-0.10599999999999998,0.5841999999999998]","[0.9213999999999998,0.6391999999999998,-0.9922]",-47,90,1,0,0,response7disk,0,-2,1,0,0,rectangle,0,-2,1,0,0,,1,0.0016,0,0,-2,1,0,0,0,7,7,101,1,20,second,,,,,,,,,,,,,,,,,,,,,,,,,,,,,,,,,,,,,,,,,,,,,,,,,,,,,,,,,,,,,,,,,,,,,,,,
,,,,,,60f4ac44348aacd594c61bb5,62c539b8bee84d668969a53b,2022-07-06_09h54.50.283,Colour_Asymmetry_Pilot,2022.1.3,Win32,59.99160118,62c50e9c1127f2cd403a315f,,,,,,,,,,,,,,,,,,,,twoone,,-3,1.8507,,,,,,,,,,,,,,,,,,,,,,,,,,,,,,,,,,"[0.6625999999999999,0.4980000000000002,-0.357]","[0.19199999999999995,0.18419999999999992,0.5136000000000001]",-66,40,1,0,0,response7disk,2,-4,1,0,0,rectangle,2,-4,1,0,0,,2,0.0022,0,2,-4,1,0,0,0,8,8,154,1,73,second,,,,,,,,,,,,,,,,,,,,,,,,,,,,,,,,,,,,,,,,,,,,,,,,,,,,,,,,,,,,,,,,,,,,,,,,
,,,,,,60f4ac44348aacd594c61bb5,62c539b8bee84d668969a53b,2022-07-06_09h54.50.283,Colour_Asymmetry_Pilot,2022.1.3,Win32,59.99160118,62c50e9c1127f2cd403a315f,,,,,,,,,,,,,,,,,,,,threefour,,-3,0.65,,,,,,,,,,,,,,,,,,,,,,,,,,,,,,,,,,"[-0.9766,-0.34920000000000007,0.2156]","[-0.011800000000000033,-0.906,-0.45100000000000007]",-84,32,1,0,0,response7disk,18,6,1,0,0,rectangle,18,6,1,0,0,,1,0.0022,0,18,6,1,0,0,0,9,9,135,1,54,second,,,,,,,,,,,,,,,,,,,,,,,,,,,,,,,,,,,,,,,,,,,,,,,,,,,,,,,,,,,,,,,,,,,,,,,,
,,,,,,60f4ac44348aacd594c61bb5,62c539b8bee84d668969a53b,2022-07-06_09h54.50.283,Colour_Asymmetry_Pilot,2022.1.3,Win32,59.99160118,62c50e9c1127f2cd403a315f,,,,,,,,,,,,,,,,,,,,threeone,,2,2.1033,,,,,,,,,,,,,,,,,,,,,,,,,,,,,,,,,,"[0.2862,0.7802,0.3568]","[-0.4276,0.0038000000000000256,-0.3256]",88,-46,1,0,0,response3disk,-5,-3,1,0,0,rectangle,-5,-3,1,0,0,,1,0.0002,0,-5,-3,1,0,0,0,10,10,70,1,70,first,,,,,,,,,,,,,,,,,,,,,,,,,,,,,,,,,,,,,,,,,,,,,,,,,,,,,,,,,,,,,,,,,,,,,,,,
,,,,,,60f4ac44348aacd594c61bb5,62c539b8bee84d668969a53b,2022-07-06_09h54.50.283,Colour_Asymmetry_Pilot,2022.1.3,Win32,59.99160118,62c50e9c1127f2cd403a315f,,,,,,,,,,,,,,,,,,,,threefour,,2,0.9467,,,,,,,,,,,,,,,,,,,,,,,,,,,,,,,,,,"[-0.34920000000000007,-0.702,-0.5216]","[-0.8118,-0.8198,-0.5452]",79,-42,1,0,0,response3disk,3,-5,1,0,0,rectangle,3,-5,1,0,0,,2,0.0022,0,3,-5,1,0,0,0,11,11,77,1,77,first,,,,,,,,,,,,,,,,,,,,,,,,,,,,,,,,,,,,,,,,,,,,,,,,,,,,,,,,,,,,,,,,,,,,,,,,
,,,,,,60f4ac44348aacd594c61bb5,62c539b8bee84d668969a53b,2022-07-06_09h54.50.283,Colour_Asymmetry_Pilot,2022.1.3,Win32,59.99160118,62c50e9c1127f2cd403a315f,,,,,,,,,,,,,,,,,,,,fourthree,,-1,0.9813,,,,,,,,,,,,,,,,,,,,,,,,,,,,,,,,,,"[-0.050999999999999934,-0.6706000000000001,-0.804]","[0.6625999999999999,0.4980000000000002,-0.357]",-29,-75,1,0,0,response5disk,5,2,1,0,0,rectangle,5,2,1,0,0,,3,0.0021,0,5,2,1,0,0,0,12,12,92,1,11,second,,,,,,,,,,,,,,,,,,,,,,,,,,,,,,,,,,,,,,,,,,,,,,,,,,,,,,,,,,,,,,,,,,,,,,,,
,,,,,,60f4ac44348aacd594c61bb5,62c539b8bee84d668969a53b,2022-07-06_09h54.50.283,Colour_Asymmetry_Pilot,2022.1.3,Win32,59.99160118,62c50e9c1127f2cd403a315f,,,,,,,,,,,,,,,,,,,,threeone,,-3,0.7303,,,,,,,,,,,,,,,,,,,,,,,,,,,,,,,,,,"[0.6547999999999998,-0.043199999999999905,-0.011800000000000033]","[-0.8118,-0.8198,-0.5452]",-74,37,1,0,0,response7disk,2,5,1,0,0,rectangle,2,5,1,0,0,,2,0.0029,0,2,5,1,0,0,0,13,13,16,1,16,first,,,,,,,,,,,,,,,,,,,,,,,,,,,,,,,,,,,,,,,,,,,,,,,,,,,,,,,,,,,,,,,,,,,,,,,,
,,,,,,60f4ac44348aacd594c61bb5,62c539b8bee84d668969a53b,2022-07-06_09h54.50.283,Colour_Asymmetry_Pilot,2022.1.3,Win32,59.99160118,62c50e9c1127f2cd403a315f,,,,,,,,,,,,,,,,,,,,onethree,,-4,0.9011,,,,,,,,,,,,,,,,,,,,,,,,,,,,,,,,,,"[0.3802000000000001,0.19199999999999995,-0.6394]","[-0.10599999999999998,-0.15300000000000002,0.15280000000000005]",-51,104,1,0,0,response7disk,11,-6,1,0,0,rectangle,11,-6,1,0,0,,2,0.0007,0,11,-6,1,0,0,0,14,14,21,1,21,first,,,,,,,,,,,,,,,,,,,,,,,,,,,,,,,,,,,,,,,,,,,,,,,,,,,,,,,,,,,,,,,,,,,,,,,,
,,,,,,60f4ac44348aacd594c61bb5,62c539b8bee84d668969a53b,2022-07-06_09h54.50.283,Colour_Asymmetry_Pilot,2022.1.3,Win32,59.99160118,62c50e9c1127f2cd403a315f,,,,,,,,,,,,,,,,,,,,twofour,,-4,0.7496,,,,,,,,,,,,,,,,,,,,,,,,,,,,,,,,,,"[-0.8118,-0.8198,-0.5452]","[-0.4276,0.0038000000000000256,-0.3256]",-54,83,1,0,0,response7disk,5,5,1,0,0,rectangle,5,5,1,0,0,,2,0.0006,0,5,5,1,0,0,0,15,15,94,1,13,second,,,,,,,,,,,,,,,,,,,,,,,,,,,,,,,,,,,,,,,,,,,,,,,,,,,,,,,,,,,,,,,,,,,,,,,,
,,,,,,60f4ac44348aacd594c61bb5,62c539b8bee84d668969a53b,2022-07-06_09h54.50.283,Colour_Asymmetry_Pilot,2022.1.3,Win32,59.99160118,62c50e9c1127f2cd403a315f,,,,,,,,,,,,,,,,,,,,twoone,,-4,0.5828,,,,,,,,,,,,,,,,,,,,,,,,,,,,,,,,,,"[-0.7412000000000001,-0.08239999999999992,-0.6864]","[1,0.12939999999999996,-1]",-36,71,1,0,0,response7disk,18,-8,1,0,0,rectangle,18,-8,1,0,0,,1,0.0022,0,18,-8,1,0,0,0,16,16,156,1,75,second,,,,,,,,,,,,,,,,,,,,,,,,,,,,,,,,,,,,,,,,,,,,,,,,,,,,,,,,,,,,,,,,,,,,,,,,
,,,,,,60f4ac44348aacd594c61bb5,62c539b8bee84d668969a53b,2022-07-06_09h54.50.283,Colour_Asymmetry_Pilot,2022.1.3,Win32,59.99160118,62c50e9c1127f2cd403a315f,,,,,,,,,,,,,,,,,,,,fourtwo,,-4,0.4657,,,,,,,,,,,,,,,,,,,,,,,,,,,,,,,,,,"[-0.10599999999999998,-0.10599999999999998,0.5841999999999998]","[0.8274000000000001,-0.5844,-0.9452]",-38,76,1,0,0,response7disk,10,0,1,0,0,rectangle,10,0,1,0,0,,1,0.0008,0,10,0,1,0,0,0,17,17,88,1,7,second,,,,,,,,,,,,,,,,,,,,,,,,,,,,,,,,,,,,,,,,,,,,,,,,,,,,,,,,,,,,,,,,,,,,,,,,
