trials.thisRepN,trials.thisTrialN,trials.thisN,trials.thisIndex,trials.ran,Colourcodes,participant,session,date,expName,psychopyVersion,OS,frameRate,study_id,trials_4.thisRepN,trials_4.thisTrialN,trials_4.thisN,trials_4.thisIndex,trials_4.ran,StimulusPos,key_resp.keys,key_resp.rt,key_resp_2.keys,key_resp_2.rt,key_resp_15.keys,key_resp_15.rt,key_resp_17.keys,key_resp_17.rt,key_resp_9.keys,key_resp_9.rt,key_resp_10.keys,key_resp_10.rt,Circle1_col,Ecc,Circle2_col,similarity,response_time,mouse_5.x,mouse_5.y,mouse_5.leftButton,mouse_5.midButton,mouse_5.rightButton,mouse_5.clicked_name,mouse_10.x,mouse_10.y,mouse_10.leftButton,mouse_10.midButton,mouse_10.rightButton,mouse_10.clicked_name,mouse_7.x,mouse_7.y,mouse_7.leftButton,mouse_7.midButton,mouse_7.rightButton,catchnumberprac,mouse_6.x,mouse_6.y,mouse_6.leftButton,mouse_6.midButton,mouse_6.rightButton,duringprac.thisRepN,duringprac.thisTrialN,duringprac.thisN,duringprac.thisIndex,duringprac.ran,mouse_7.clicked_name,catchprac,mouse_6.clicked_name,key_resp_22.keys,key_resp_22.rt,Circle1_colour,Circle2_colour,mouse.x,mouse.y,mouse.leftButton,mouse.midButton,mouse.rightButton,mouse.clicked_name,mouse_2.x,mouse_2.y,mouse_2.leftButton,mouse_2.midButton,mouse_2.rightButton,mouse_2.clicked_name,mouse_3.x,mouse_3.y,mouse_3.leftButton,mouse_3.midButton,mouse_3.rightButton,catchresponse,catchnumber,response_time_catch,Catch,mouse_11.x,mouse_11.y,mouse_11.leftButton,mouse_11.midButton,mouse_11.rightButton,trials_2.thisRepN,trials_2.thisTrialN,trials_2.thisN,trials_2.thisIndex,trials_2.ran,Colourpair,Temporder,mouse_3.clicked_name,mouse_11.clicked_name,trials_3.thisRepN,trials_3.thisTrialN,trials_3.thisN,trials_3.thisIndex,trials_3.ran,key_resp_instr_Ishi.keys,key_resp_instr_Ishi.rt,Ishi_trial_keyresp.keys,Ishi_textbox.text,Ishi_mouse.x,Ishi_mouse.y,Ishi_mouse.leftButton,Ishi_mouse.midButton,Ishi_mouse.rightButton,Ishi_mouse.clicked_name,Ishi_loop.thisRepN,Ishi_loop.thisTrialN,Ishi_loop.thisN,Ishi_loop.thisIndex,Ishi_loop.ran,imageaddress,textbox.text,mouse_4.x,mouse_4.y,mouse_4.leftButton,mouse_4.midButton,mouse_4.rightButton,mouse_4.clicked_name,textbox_2.text,mouse_8.x,mouse_8.y,mouse_8.leftButton,mouse_8.midButton,mouse_8.rightButton,mouse_8.clicked_name,textbox_3.text,mouse_9.x,mouse_9.y,mouse_9.leftButton,mouse_9.midButton,mouse_9.rightButton,mouse_9.clicked_name,textbox_4.text,mouse_12.x,mouse_12.y,mouse_12.leftButton,mouse_12.midButton,mouse_12.rightButton,mouse_12.clicked_name,textbox_5.text,mouse_13.x,mouse_13.y,mouse_13.leftButton,mouse_13.midButton,mouse_13.rightButton,mouse_13.clicked_name,textbox_6.text,mouse_14.x,mouse_14.y,mouse_14.leftButton,mouse_14.midButton,mouse_14.rightButton,mouse_14.clicked_name,textbox_7.text,mouse_15.x,mouse_15.y,mouse_15.leftButton,mouse_15.midButton,mouse_15.rightButton,mouse_15.clicked_name
0,0,0,76,1,,60dc1397b91eb34c1687d694,62c539e5a9e5fb366c1df9a7,2022-07-06_09h27.34.532,Colour_Asymmetry_Pilot,2022.1.3,Win32,59.73002031,62c50e9c1127f2cd403a315f,,,,,,,,,,,,,,,,,,,,,,,,,,,,,,,,,,,,,,,,,,,,,,,,,,,,,,,,,,,,,,,,,,,,,,,,,,,,,,,,,,,,,,,,,,,,,,,,,,,,,,,,,,,,,,,,,,,,,,,,,,,,,,,,,,,,,,,,,,,,,,,,,,,,,,,,,,,,,,,,,,,
0,1,1,28,1,,60dc1397b91eb34c1687d694,62c539e5a9e5fb366c1df9a7,2022-07-06_09h27.34.532,Colour_Asymmetry_Pilot,2022.1.3,Win32,59.73002031,62c50e9c1127f2cd403a315f,,,,,,,,,,,,,,,,,,,,,,,,,,,,,,,,,,,,,,,,,,,,,,,,,,,,,,,,,,,,,,,,,,,,,,,,,,,,,,,,,,,,,,,,,,,,,,,,,,,,,,,,,,,,,,,,,,,,,,,,,,,,,,,,,,,,,,,,,,,,,,,,,,,,,,,,,,,,,,,,,,,
0,2,2,17,1,,60dc1397b91eb34c1687d694,62c539e5a9e5fb366c1df9a7,2022-07-06_09h27.34.532,Colour_Asymmetry_Pilot,2022.1.3,Win32,59.73002031,62c50e9c1127f2cd403a315f,,,,,,,,,,,,,,,,,,,,,,,,,,,,,,,,,,,,,,,,,,,,,,,,,,,,,,,,,,,,,,,,,,,,,,,,,,,,,,,,,,,,,,,,,,,,,,,,,,,,,,,,,,,,,,,,,,,,,,,,,,,,,,,,,,,,,,,,,,,,,,,,,,,,,,,,,,,,,,,,,,,
0,3,3,81,1,,60dc1397b91eb34c1687d694,62c539e5a9e5fb366c1df9a7,2022-07-06_09h27.34.532,Colour_Asymmetry_Pilot,2022.1.3,Win32,59.73002031,62c50e9c1127f2cd403a315f,,,,,,,,,,,,,,,,,,,,,,,,,,,,,,,,,,,,,,,,,,,,,,,,,,,,,,,,,,,,,,,,,,,,,,,,,,,,,,,,,,,,,,,,,,,,,,,,,,,,,,,,,,,,,,,,,,,,,,,,,,,,,,,,,,,,,,,,,,,,,,,,,,,,,,,,,,,,,,,,,,,
0,4,4,7,1,,60dc1397b91eb34c1687d694,62c539e5a9e5fb366c1df9a7,2022-07-06_09h27.34.532,Colour_Asymmetry_Pilot,2022.1.3,Win32,59.73002031,62c50e9c1127f2cd403a315f,,,,,,,,,,,,,,,,,,,,,,,,,,,,,,,,,,,,,,,,,,,,,,,,,,,,,,,,,,,,,,,,,,,,,,,,,,,,,,,,,,,,,,,,,,,,,,,,,,,,,,,,,,,,,,,,,,,,,,,,,,,,,,,,,,,,,,,,,,,,,,,,,,,,,,,,,,,,,,,,,,,
0,5,5,20,1,,60dc1397b91eb34c1687d694,62c539e5a9e5fb366c1df9a7,2022-07-06_09h27.34.532,Colour_Asymmetry_Pilot,2022.1.3,Win32,59.73002031,62c50e9c1127f2cd403a315f,,,,,,,,,,,,,,,,,,,,,,,,,,,,,,,,,,,,,,,,,,,,,,,,,,,,,,,,,,,,,,,,,,,,,,,,,,,,,,,,,,,,,,,,,,,,,,,,,,,,,,,,,,,,,,,,,,,,,,,,,,,,,,,,,,,,,,,,,,,,,,,,,,,,,,,,,,,,,,,,,,,
0,6,6,82,1,,60dc1397b91eb34c1687d694,62c539e5a9e5fb366c1df9a7,2022-07-06_09h27.34.532,Colour_Asymmetry_Pilot,2022.1.3,Win32,59.73002031,62c50e9c1127f2cd403a315f,,,,,,,,,,,,,,,,,,,,,,,,,,,,,,,,,,,,,,,,,,,,,,,,,,,,,,,,,,,,,,,,,,,,,,,,,,,,,,,,,,,,,,,,,,,,,,,,,,,,,,,,,,,,,,,,,,,,,,,,,,,,,,,,,,,,,,,,,,,,,,,,,,,,,,,,,,,,,,,,,,,
0,7,7,55,1,,60dc1397b91eb34c1687d694,62c539e5a9e5fb366c1df9a7,2022-07-06_09h27.34.532,Colour_Asymmetry_Pilot,2022.1.3,Win32,59.73002031,62c50e9c1127f2cd403a315f,,,,,,,,,,,,,,,,,,,,,,,,,,,,,,,,,,,,,,,,,,,,,,,,,,,,,,,,,,,,,,,,,,,,,,,,,,,,,,,,,,,,,,,,,,,,,,,,,,,,,,,,,,,,,,,,,,,,,,,,,,,,,,,,,,,,,,,,,,,,,,,,,,,,,,,,,,,,,,,,,,,
0,8,8,87,1,,60dc1397b91eb34c1687d694,62c539e5a9e5fb366c1df9a7,2022-07-06_09h27.34.532,Colour_Asymmetry_Pilot,2022.1.3,Win32,59.73002031,62c50e9c1127f2cd403a315f,,,,,,,,,,,,,,,,,,,,,,,,,,,,,,,,,,,,,,,,,,,,,,,,,,,,,,,,,,,,,,,,,,,,,,,,,,,,,,,,,,,,,,,,,,,,,,,,,,,,,,,,,,,,,,,,,,,,,,,,,,,,,,,,,,,,,,,,,,,,,,,,,,,,,,,,,,,,,,,,,,,
0,9,9,66,1,,60dc1397b91eb34c1687d694,62c539e5a9e5fb366c1df9a7,2022-07-06_09h27.34.532,Colour_Asymmetry_Pilot,2022.1.3,Win32,59.73002031,62c50e9c1127f2cd403a315f,,,,,,,,,,,,,,,,,,,,,,,,,,,,,,,,,,,,,,,,,,,,,,,,,,,,,,,,,,,,,,,,,,,,,,,,,,,,,,,,,,,,,,,,,,,,,,,,,,,,,,,,,,,,,,,,,,,,,,,,,,,,,,,,,,,,,,,,,,,,,,,,,,,,,,,,,,,,,,,,,,,
0,10,10,25,1,,60dc1397b91eb34c1687d694,62c539e5a9e5fb366c1df9a7,2022-07-06_09h27.34.532,Colour_Asymmetry_Pilot,2022.1.3,Win32,59.73002031,62c50e9c1127f2cd403a315f,,,,,,,,,,,,,,,,,,,,,,,,,,,,,,,,,,,,,,,,,,,,,,,,,,,,,,,,,,,,,,,,,,,,,,,,,,,,,,,,,,,,,,,,,,,,,,,,,,,,,,,,,,,,,,,,,,,,,,,,,,,,,,,,,,,,,,,,,,,,,,,,,,,,,,,,,,,,,,,,,,,
0,11,11,13,1,,60dc1397b91eb34c1687d694,62c539e5a9e5fb366c1df9a7,2022-07-06_09h27.34.532,Colour_Asymmetry_Pilot,2022.1.3,Win32,59.73002031,62c50e9c1127f2cd403a315f,,,,,,,,,,,,,,,,,,,,,,,,,,,,,,,,,,,,,,,,,,,,,,,,,,,,,,,,,,,,,,,,,,,,,,,,,,,,,,,,,,,,,,,,,,,,,,,,,,,,,,,,,,,,,,,,,,,,,,,,,,,,,,,,,,,,,,,,,,,,,,,,,,,,,,,,,,,,,,,,,,,
0,12,12,64,1,,60dc1397b91eb34c1687d694,62c539e5a9e5fb366c1df9a7,2022-07-06_09h27.34.532,Colour_Asymmetry_Pilot,2022.1.3,Win32,59.73002031,62c50e9c1127f2cd403a315f,,,,,,,,,,,,,,,,,,,,,,,,,,,,,,,,,,,,,,,,,,,,,,,,,,,,,,,,,,,,,,,,,,,,,,,,,,,,,,,,,,,,,,,,,,,,,,,,,,,,,,,,,,,,,,,,,,,,,,,,,,,,,,,,,,,,,,,,,,,,,,,,,,,,,,,,,,,,,,,,,,,
0,13,13,56,1,,60dc1397b91eb34c1687d694,62c539e5a9e5fb366c1df9a7,2022-07-06_09h27.34.532,Colour_Asymmetry_Pilot,2022.1.3,Win32,59.73002031,62c50e9c1127f2cd403a315f,,,,,,,,,,,,,,,,,,,,,,,,,,,,,,,,,,,,,,,,,,,,,,,,,,,,,,,,,,,,,,,,,,,,,,,,,,,,,,,,,,,,,,,,,,,,,,,,,,,,,,,,,,,,,,,,,,,,,,,,,,,,,,,,,,,,,,,,,,,,,,,,,,,,,,,,,,,,,,,,,,,
0,14,14,30,1,,60dc1397b91eb34c1687d694,62c539e5a9e5fb366c1df9a7,2022-07-06_09h27.34.532,Colour_Asymmetry_Pilot,2022.1.3,Win32,59.73002031,62c50e9c1127f2cd403a315f,,,,,,,,,,,,,,,,,,,,,,,,,,,,,,,,,,,,,,,,,,,,,,,,,,,,,,,,,,,,,,,,,,,,,,,,,,,,,,,,,,,,,,,,,,,,,,,,,,,,,,,,,,,,,,,,,,,,,,,,,,,,,,,,,,,,,,,,,,,,,,,,,,,,,,,,,,,,,,,,,,,
0,15,15,27,1,,60dc1397b91eb34c1687d694,62c539e5a9e5fb366c1df9a7,2022-07-06_09h27.34.532,Colour_Asymmetry_Pilot,2022.1.3,Win32,59.73002031,62c50e9c1127f2cd403a315f,,,,,,,,,,,,,,,,,,,,,,,,,,,,,,,,,,,,,,,,,,,,,,,,,,,,,,,,,,,,,,,,,,,,,,,,,,,,,,,,,,,,,,,,,,,,,,,,,,,,,,,,,,,,,,,,,,,,,,,,,,,,,,,,,,,,,,,,,,,,,,,,,,,,,,,,,,,,,,,,,,,
0,16,16,43,1,,60dc1397b91eb34c1687d694,62c539e5a9e5fb366c1df9a7,2022-07-06_09h27.34.532,Colour_Asymmetry_Pilot,2022.1.3,Win32,59.73002031,62c50e9c1127f2cd403a315f,,,,,,,,,,,,,,,,,,,,,,,,,,,,,,,,,,,,,,,,,,,,,,,,,,,,,,,,,,,,,,,,,,,,,,,,,,,,,,,,,,,,,,,,,,,,,,,,,,,,,,,,,,,,,,,,,,,,,,,,,,,,,,,,,,,,,,,,,,,,,,,,,,,,,,,,,,,,,,,,,,,
0,17,17,79,1,,60dc1397b91eb34c1687d694,62c539e5a9e5fb366c1df9a7,2022-07-06_09h27.34.532,Colour_Asymmetry_Pilot,2022.1.3,Win32,59.73002031,62c50e9c1127f2cd403a315f,,,,,,,,,,,,,,,,,,,,,,,,,,,,,,,,,,,,,,,,,,,,,,,,,,,,,,,,,,,,,,,,,,,,,,,,,,,,,,,,,,,,,,,,,,,,,,,,,,,,,,,,,,,,,,,,,,,,,,,,,,,,,,,,,,,,,,,,,,,,,,,,,,,,,,,,,,,,,,,,,,,
0,18,18,91,1,,60dc1397b91eb34c1687d694,62c539e5a9e5fb366c1df9a7,2022-07-06_09h27.34.532,Colour_Asymmetry_Pilot,2022.1.3,Win32,59.73002031,62c50e9c1127f2cd403a315f,,,,,,,,,,,,,,,,,,,,,,,,,,,,,,,,,,,,,,,,,,,,,,,,,,,,,,,,,,,,,,,,,,,,,,,,,,,,,,,,,,,,,,,,,,,,,,,,,,,,,,,,,,,,,,,,,,,,,,,,,,,,,,,,,,,,,,,,,,,,,,,,,,,,,,,,,,,,,,,,,,,
0,19,19,65,1,,60dc1397b91eb34c1687d694,62c539e5a9e5fb366c1df9a7,2022-07-06_09h27.34.532,Colour_Asymmetry_Pilot,2022.1.3,Win32,59.73002031,62c50e9c1127f2cd403a315f,,,,,,,,,,,,,,,,,,,,,,,,,,,,,,,,,,,,,,,,,,,,,,,,,,,,,,,,,,,,,,,,,,,,,,,,,,,,,,,,,,,,,,,,,,,,,,,,,,,,,,,,,,,,,,,,,,,,,,,,,,,,,,,,,,,,,,,,,,,,,,,,,,,,,,,,,,,,,,,,,,,
0,20,20,11,1,,60dc1397b91eb34c1687d694,62c539e5a9e5fb366c1df9a7,2022-07-06_09h27.34.532,Colour_Asymmetry_Pilot,2022.1.3,Win32,59.73002031,62c50e9c1127f2cd403a315f,,,,,,,,,,,,,,,,,,,,,,,,,,,,,,,,,,,,,,,,,,,,,,,,,,,,,,,,,,,,,,,,,,,,,,,,,,,,,,,,,,,,,,,,,,,,,,,,,,,,,,,,,,,,,,,,,,,,,,,,,,,,,,,,,,,,,,,,,,,,,,,,,,,,,,,,,,,,,,,,,,,
0,21,21,72,1,,60dc1397b91eb34c1687d694,62c539e5a9e5fb366c1df9a7,2022-07-06_09h27.34.532,Colour_Asymmetry_Pilot,2022.1.3,Win32,59.73002031,62c50e9c1127f2cd403a315f,,,,,,,,,,,,,,,,,,,,,,,,,,,,,,,,,,,,,,,,,,,,,,,,,,,,,,,,,,,,,,,,,,,,,,,,,,,,,,,,,,,,,,,,,,,,,,,,,,,,,,,,,,,,,,,,,,,,,,,,,,,,,,,,,,,,,,,,,,,,,,,,,,,,,,,,,,,,,,,,,,,
0,22,22,53,1,,60dc1397b91eb34c1687d694,62c539e5a9e5fb366c1df9a7,2022-07-06_09h27.34.532,Colour_Asymmetry_Pilot,2022.1.3,Win32,59.73002031,62c50e9c1127f2cd403a315f,,,,,,,,,,,,,,,,,,,,,,,,,,,,,,,,,,,,,,,,,,,,,,,,,,,,,,,,,,,,,,,,,,,,,,,,,,,,,,,,,,,,,,,,,,,,,,,,,,,,,,,,,,,,,,,,,,,,,,,,,,,,,,,,,,,,,,,,,,,,,,,,,,,,,,,,,,,,,,,,,,,
0,23,23,51,1,,60dc1397b91eb34c1687d694,62c539e5a9e5fb366c1df9a7,2022-07-06_09h27.34.532,Colour_Asymmetry_Pilot,2022.1.3,Win32,59.73002031,62c50e9c1127f2cd403a315f,,,,,,,,,,,,,,,,,,,,,,,,,,,,,,,,,,,,,,,,,,,,,,,,,,,,,,,,,,,,,,,,,,,,,,,,,,,,,,,,,,,,,,,,,,,,,,,,,,,,,,,,,,,,,,,,,,,,,,,,,,,,,,,,,,,,,,,,,,,,,,,,,,,,,,,,,,,,,,,,,,,
0,24,24,85,1,,60dc1397b91eb34c1687d694,62c539e5a9e5fb366c1df9a7,2022-07-06_09h27.34.532,Colour_Asymmetry_Pilot,2022.1.3,Win32,59.73002031,62c50e9c1127f2cd403a315f,,,,,,,,,,,,,,,,,,,,,,,,,,,,,,,,,,,,,,,,,,,,,,,,,,,,,,,,,,,,,,,,,,,,,,,,,,,,,,,,,,,,,,,,,,,,,,,,,,,,,,,,,,,,,,,,,,,,,,,,,,,,,,,,,,,,,,,,,,,,,,,,,,,,,,,,,,,,,,,,,,,
0,25,25,75,1,,60dc1397b91eb34c1687d694,62c539e5a9e5fb366c1df9a7,2022-07-06_09h27.34.532,Colour_Asymmetry_Pilot,2022.1.3,Win32,59.73002031,62c50e9c1127f2cd403a315f,,,,,,,,,,,,,,,,,,,,,,,,,,,,,,,,,,,,,,,,,,,,,,,,,,,,,,,,,,,,,,,,,,,,,,,,,,,,,,,,,,,,,,,,,,,,,,,,,,,,,,,,,,,,,,,,,,,,,,,,,,,,,,,,,,,,,,,,,,,,,,,,,,,,,,,,,,,,,,,,,,,
0,26,26,50,1,,60dc1397b91eb34c1687d694,62c539e5a9e5fb366c1df9a7,2022-07-06_09h27.34.532,Colour_Asymmetry_Pilot,2022.1.3,Win32,59.73002031,62c50e9c1127f2cd403a315f,,,,,,,,,,,,,,,,,,,,,,,,,,,,,,,,,,,,,,,,,,,,,,,,,,,,,,,,,,,,,,,,,,,,,,,,,,,,,,,,,,,,,,,,,,,,,,,,,,,,,,,,,,,,,,,,,,,,,,,,,,,,,,,,,,,,,,,,,,,,,,,,,,,,,,,,,,,,,,,,,,,
0,27,27,34,1,,60dc1397b91eb34c1687d694,62c539e5a9e5fb366c1df9a7,2022-07-06_09h27.34.532,Colour_Asymmetry_Pilot,2022.1.3,Win32,59.73002031,62c50e9c1127f2cd403a315f,,,,,,,,,,,,,,,,,,,,,,,,,,,,,,,,,,,,,,,,,,,,,,,,,,,,,,,,,,,,,,,,,,,,,,,,,,,,,,,,,,,,,,,,,,,,,,,,,,,,,,,,,,,,,,,,,,,,,,,,,,,,,,,,,,,,,,,,,,,,,,,,,,,,,,,,,,,,,,,,,,,
0,28,28,89,1,,60dc1397b91eb34c1687d694,62c539e5a9e5fb366c1df9a7,2022-07-06_09h27.34.532,Colour_Asymmetry_Pilot,2022.1.3,Win32,59.73002031,62c50e9c1127f2cd403a315f,,,,,,,,,,,,,,,,,,,,,,,,,,,,,,,,,,,,,,,,,,,,,,,,,,,,,,,,,,,,,,,,,,,,,,,,,,,,,,,,,,,,,,,,,,,,,,,,,,,,,,,,,,,,,,,,,,,,,,,,,,,,,,,,,,,,,,,,,,,,,,,,,,,,,,,,,,,,,,,,,,,
0,29,29,12,1,,60dc1397b91eb34c1687d694,62c539e5a9e5fb366c1df9a7,2022-07-06_09h27.34.532,Colour_Asymmetry_Pilot,2022.1.3,Win32,59.73002031,62c50e9c1127f2cd403a315f,,,,,,,,,,,,,,,,,,,,,,,,,,,,,,,,,,,,,,,,,,,,,,,,,,,,,,,,,,,,,,,,,,,,,,,,,,,,,,,,,,,,,,,,,,,,,,,,,,,,,,,,,,,,,,,,,,,,,,,,,,,,,,,,,,,,,,,,,,,,,,,,,,,,,,,,,,,,,,,,,,,
0,30,30,68,1,,60dc1397b91eb34c1687d694,62c539e5a9e5fb366c1df9a7,2022-07-06_09h27.34.532,Colour_Asymmetry_Pilot,2022.1.3,Win32,59.73002031,62c50e9c1127f2cd403a315f,,,,,,,,,,,,,,,,,,,,,,,,,,,,,,,,,,,,,,,,,,,,,,,,,,,,,,,,,,,,,,,,,,,,,,,,,,,,,,,,,,,,,,,,,,,,,,,,,,,,,,,,,,,,,,,,,,,,,,,,,,,,,,,,,,,,,,,,,,,,,,,,,,,,,,,,,,,,,,,,,,,
0,31,31,5,1,,60dc1397b91eb34c1687d694,62c539e5a9e5fb366c1df9a7,2022-07-06_09h27.34.532,Colour_Asymmetry_Pilot,2022.1.3,Win32,59.73002031,62c50e9c1127f2cd403a315f,,,,,,,,,,,,,,,,,,,,,,,,,,,,,,,,,,,,,,,,,,,,,,,,,,,,,,,,,,,,,,,,,,,,,,,,,,,,,,,,,,,,,,,,,,,,,,,,,,,,,,,,,,,,,,,,,,,,,,,,,,,,,,,,,,,,,,,,,,,,,,,,,,,,,,,,,,,,,,,,,,,
0,32,32,32,1,,60dc1397b91eb34c1687d694,62c539e5a9e5fb366c1df9a7,2022-07-06_09h27.34.532,Colour_Asymmetry_Pilot,2022.1.3,Win32,59.73002031,62c50e9c1127f2cd403a315f,,,,,,,,,,,,,,,,,,,,,,,,,,,,,,,,,,,,,,,,,,,,,,,,,,,,,,,,,,,,,,,,,,,,,,,,,,,,,,,,,,,,,,,,,,,,,,,,,,,,,,,,,,,,,,,,,,,,,,,,,,,,,,,,,,,,,,,,,,,,,,,,,,,,,,,,,,,,,,,,,,,
0,33,33,21,1,,60dc1397b91eb34c1687d694,62c539e5a9e5fb366c1df9a7,2022-07-06_09h27.34.532,Colour_Asymmetry_Pilot,2022.1.3,Win32,59.73002031,62c50e9c1127f2cd403a315f,,,,,,,,,,,,,,,,,,,,,,,,,,,,,,,,,,,,,,,,,,,,,,,,,,,,,,,,,,,,,,,,,,,,,,,,,,,,,,,,,,,,,,,,,,,,,,,,,,,,,,,,,,,,,,,,,,,,,,,,,,,,,,,,,,,,,,,,,,,,,,,,,,,,,,,,,,,,,,,,,,,
0,34,34,9,1,,60dc1397b91eb34c1687d694,62c539e5a9e5fb366c1df9a7,2022-07-06_09h27.34.532,Colour_Asymmetry_Pilot,2022.1.3,Win32,59.73002031,62c50e9c1127f2cd403a315f,,,,,,,,,,,,,,,,,,,,,,,,,,,,,,,,,,,,,,,,,,,,,,,,,,,,,,,,,,,,,,,,,,,,,,,,,,,,,,,,,,,,,,,,,,,,,,,,,,,,,,,,,,,,,,,,,,,,,,,,,,,,,,,,,,,,,,,,,,,,,,,,,,,,,,,,,,,,,,,,,,,
0,35,35,29,1,,60dc1397b91eb34c1687d694,62c539e5a9e5fb366c1df9a7,2022-07-06_09h27.34.532,Colour_Asymmetry_Pilot,2022.1.3,Win32,59.73002031,62c50e9c1127f2cd403a315f,,,,,,,,,,,,,,,,,,,,,,,,,,,,,,,,,,,,,,,,,,,,,,,,,,,,,,,,,,,,,,,,,,,,,,,,,,,,,,,,,,,,,,,,,,,,,,,,,,,,,,,,,,,,,,,,,,,,,,,,,,,,,,,,,,,,,,,,,,,,,,,,,,,,,,,,,,,,,,,,,,,
0,36,36,62,1,,60dc1397b91eb34c1687d694,62c539e5a9e5fb366c1df9a7,2022-07-06_09h27.34.532,Colour_Asymmetry_Pilot,2022.1.3,Win32,59.73002031,62c50e9c1127f2cd403a315f,,,,,,,,,,,,,,,,,,,,,,,,,,,,,,,,,,,,,,,,,,,,,,,,,,,,,,,,,,,,,,,,,,,,,,,,,,,,,,,,,,,,,,,,,,,,,,,,,,,,,,,,,,,,,,,,,,,,,,,,,,,,,,,,,,,,,,,,,,,,,,,,,,,,,,,,,,,,,,,,,,,
0,37,37,63,1,,60dc1397b91eb34c1687d694,62c539e5a9e5fb366c1df9a7,2022-07-06_09h27.34.532,Colour_Asymmetry_Pilot,2022.1.3,Win32,59.73002031,62c50e9c1127f2cd403a315f,,,,,,,,,,,,,,,,,,,,,,,,,,,,,,,,,,,,,,,,,,,,,,,,,,,,,,,,,,,,,,,,,,,,,,,,,,,,,,,,,,,,,,,,,,,,,,,,,,,,,,,,,,,,,,,,,,,,,,,,,,,,,,,,,,,,,,,,,,,,,,,,,,,,,,,,,,,,,,,,,,,
0,38,38,54,1,,60dc1397b91eb34c1687d694,62c539e5a9e5fb366c1df9a7,2022-07-06_09h27.34.532,Colour_Asymmetry_Pilot,2022.1.3,Win32,59.73002031,62c50e9c1127f2cd403a315f,,,,,,,,,,,,,,,,,,,,,,,,,,,,,,,,,,,,,,,,,,,,,,,,,,,,,,,,,,,,,,,,,,,,,,,,,,,,,,,,,,,,,,,,,,,,,,,,,,,,,,,,,,,,,,,,,,,,,,,,,,,,,,,,,,,,,,,,,,,,,,,,,,,,,,,,,,,,,,,,,,,
0,39,39,57,1,,60dc1397b91eb34c1687d694,62c539e5a9e5fb366c1df9a7,2022-07-06_09h27.34.532,Colour_Asymmetry_Pilot,2022.1.3,Win32,59.73002031,62c50e9c1127f2cd403a315f,,,,,,,,,,,,,,,,,,,,,,,,,,,,,,,,,,,,,,,,,,,,,,,,,,,,,,,,,,,,,,,,,,,,,,,,,,,,,,,,,,,,,,,,,,,,,,,,,,,,,,,,,,,,,,,,,,,,,,,,,,,,,,,,,,,,,,,,,,,,,,,,,,,,,,,,,,,,,,,,,,,
0,40,40,74,1,,60dc1397b91eb34c1687d694,62c539e5a9e5fb366c1df9a7,2022-07-06_09h27.34.532,Colour_Asymmetry_Pilot,2022.1.3,Win32,59.73002031,62c50e9c1127f2cd403a315f,,,,,,,,,,,,,,,,,,,,,,,,,,,,,,,,,,,,,,,,,,,,,,,,,,,,,,,,,,,,,,,,,,,,,,,,,,,,,,,,,,,,,,,,,,,,,,,,,,,,,,,,,,,,,,,,,,,,,,,,,,,,,,,,,,,,,,,,,,,,,,,,,,,,,,,,,,,,,,,,,,,
0,41,41,80,1,,60dc1397b91eb34c1687d694,62c539e5a9e5fb366c1df9a7,2022-07-06_09h27.34.532,Colour_Asymmetry_Pilot,2022.1.3,Win32,59.73002031,62c50e9c1127f2cd403a315f,,,,,,,,,,,,,,,,,,,,,,,,,,,,,,,,,,,,,,,,,,,,,,,,,,,,,,,,,,,,,,,,,,,,,,,,,,,,,,,,,,,,,,,,,,,,,,,,,,,,,,,,,,,,,,,,,,,,,,,,,,,,,,,,,,,,,,,,,,,,,,,,,,,,,,,,,,,,,,,,,,,
0,42,42,38,1,,60dc1397b91eb34c1687d694,62c539e5a9e5fb366c1df9a7,2022-07-06_09h27.34.532,Colour_Asymmetry_Pilot,2022.1.3,Win32,59.73002031,62c50e9c1127f2cd403a315f,,,,,,,,,,,,,,,,,,,,,,,,,,,,,,,,,,,,,,,,,,,,,,,,,,,,,,,,,,,,,,,,,,,,,,,,,,,,,,,,,,,,,,,,,,,,,,,,,,,,,,,,,,,,,,,,,,,,,,,,,,,,,,,,,,,,,,,,,,,,,,,,,,,,,,,,,,,,,,,,,,,
0,43,43,39,1,,60dc1397b91eb34c1687d694,62c539e5a9e5fb366c1df9a7,2022-07-06_09h27.34.532,Colour_Asymmetry_Pilot,2022.1.3,Win32,59.73002031,62c50e9c1127f2cd403a315f,,,,,,,,,,,,,,,,,,,,,,,,,,,,,,,,,,,,,,,,,,,,,,,,,,,,,,,,,,,,,,,,,,,,,,,,,,,,,,,,,,,,,,,,,,,,,,,,,,,,,,,,,,,,,,,,,,,,,,,,,,,,,,,,,,,,,,,,,,,,,,,,,,,,,,,,,,,,,,,,,,,
0,44,44,61,1,,60dc1397b91eb34c1687d694,62c539e5a9e5fb366c1df9a7,2022-07-06_09h27.34.532,Colour_Asymmetry_Pilot,2022.1.3,Win32,59.73002031,62c50e9c1127f2cd403a315f,,,,,,,,,,,,,,,,,,,,,,,,,,,,,,,,,,,,,,,,,,,,,,,,,,,,,,,,,,,,,,,,,,,,,,,,,,,,,,,,,,,,,,,,,,,,,,,,,,,,,,,,,,,,,,,,,,,,,,,,,,,,,,,,,,,,,,,,,,,,,,,,,,,,,,,,,,,,,,,,,,,
0,45,45,6,1,,60dc1397b91eb34c1687d694,62c539e5a9e5fb366c1df9a7,2022-07-06_09h27.34.532,Colour_Asymmetry_Pilot,2022.1.3,Win32,59.73002031,62c50e9c1127f2cd403a315f,,,,,,,,,,,,,,,,,,,,,,,,,,,,,,,,,,,,,,,,,,,,,,,,,,,,,,,,,,,,,,,,,,,,,,,,,,,,,,,,,,,,,,,,,,,,,,,,,,,,,,,,,,,,,,,,,,,,,,,,,,,,,,,,,,,,,,,,,,,,,,,,,,,,,,,,,,,,,,,,,,,
0,46,46,58,1,,60dc1397b91eb34c1687d694,62c539e5a9e5fb366c1df9a7,2022-07-06_09h27.34.532,Colour_Asymmetry_Pilot,2022.1.3,Win32,59.73002031,62c50e9c1127f2cd403a315f,,,,,,,,,,,,,,,,,,,,,,,,,,,,,,,,,,,,,,,,,,,,,,,,,,,,,,,,,,,,,,,,,,,,,,,,,,,,,,,,,,,,,,,,,,,,,,,,,,,,,,,,,,,,,,,,,,,,,,,,,,,,,,,,,,,,,,,,,,,,,,,,,,,,,,,,,,,,,,,,,,,
0,47,47,4,1,,60dc1397b91eb34c1687d694,62c539e5a9e5fb366c1df9a7,2022-07-06_09h27.34.532,Colour_Asymmetry_Pilot,2022.1.3,Win32,59.73002031,62c50e9c1127f2cd403a315f,,,,,,,,,,,,,,,,,,,,,,,,,,,,,,,,,,,,,,,,,,,,,,,,,,,,,,,,,,,,,,,,,,,,,,,,,,,,,,,,,,,,,,,,,,,,,,,,,,,,,,,,,,,,,,,,,,,,,,,,,,,,,,,,,,,,,,,,,,,,,,,,,,,,,,,,,,,,,,,,,,,
0,48,48,45,1,,60dc1397b91eb34c1687d694,62c539e5a9e5fb366c1df9a7,2022-07-06_09h27.34.532,Colour_Asymmetry_Pilot,2022.1.3,Win32,59.73002031,62c50e9c1127f2cd403a315f,,,,,,,,,,,,,,,,,,,,,,,,,,,,,,,,,,,,,,,,,,,,,,,,,,,,,,,,,,,,,,,,,,,,,,,,,,,,,,,,,,,,,,,,,,,,,,,,,,,,,,,,,,,,,,,,,,,,,,,,,,,,,,,,,,,,,,,,,,,,,,,,,,,,,,,,,,,,,,,,,,,
0,49,49,44,1,,60dc1397b91eb34c1687d694,62c539e5a9e5fb366c1df9a7,2022-07-06_09h27.34.532,Colour_Asymmetry_Pilot,2022.1.3,Win32,59.73002031,62c50e9c1127f2cd403a315f,,,,,,,,,,,,,,,,,,,,,,,,,,,,,,,,,,,,,,,,,,,,,,,,,,,,,,,,,,,,,,,,,,,,,,,,,,,,,,,,,,,,,,,,,,,,,,,,,,,,,,,,,,,,,,,,,,,,,,,,,,,,,,,,,,,,,,,,,,,,,,,,,,,,,,,,,,,,,,,,,,,
0,50,50,71,1,,60dc1397b91eb34c1687d694,62c539e5a9e5fb366c1df9a7,2022-07-06_09h27.34.532,Colour_Asymmetry_Pilot,2022.1.3,Win32,59.73002031,62c50e9c1127f2cd403a315f,,,,,,,,,,,,,,,,,,,,,,,,,,,,,,,,,,,,,,,,,,,,,,,,,,,,,,,,,,,,,,,,,,,,,,,,,,,,,,,,,,,,,,,,,,,,,,,,,,,,,,,,,,,,,,,,,,,,,,,,,,,,,,,,,,,,,,,,,,,,,,,,,,,,,,,,,,,,,,,,,,,
0,51,51,86,1,,60dc1397b91eb34c1687d694,62c539e5a9e5fb366c1df9a7,2022-07-06_09h27.34.532,Colour_Asymmetry_Pilot,2022.1.3,Win32,59.73002031,62c50e9c1127f2cd403a315f,,,,,,,,,,,,,,,,,,,,,,,,,,,,,,,,,,,,,,,,,,,,,,,,,,,,,,,,,,,,,,,,,,,,,,,,,,,,,,,,,,,,,,,,,,,,,,,,,,,,,,,,,,,,,,,,,,,,,,,,,,,,,,,,,,,,,,,,,,,,,,,,,,,,,,,,,,,,,,,,,,,
0,52,52,42,1,,60dc1397b91eb34c1687d694,62c539e5a9e5fb366c1df9a7,2022-07-06_09h27.34.532,Colour_Asymmetry_Pilot,2022.1.3,Win32,59.73002031,62c50e9c1127f2cd403a315f,,,,,,,,,,,,,,,,,,,,,,,,,,,,,,,,,,,,,,,,,,,,,,,,,,,,,,,,,,,,,,,,,,,,,,,,,,,,,,,,,,,,,,,,,,,,,,,,,,,,,,,,,,,,,,,,,,,,,,,,,,,,,,,,,,,,,,,,,,,,,,,,,,,,,,,,,,,,,,,,,,,
0,53,53,67,1,,60dc1397b91eb34c1687d694,62c539e5a9e5fb366c1df9a7,2022-07-06_09h27.34.532,Colour_Asymmetry_Pilot,2022.1.3,Win32,59.73002031,62c50e9c1127f2cd403a315f,,,,,,,,,,,,,,,,,,,,,,,,,,,,,,,,,,,,,,,,,,,,,,,,,,,,,,,,,,,,,,,,,,,,,,,,,,,,,,,,,,,,,,,,,,,,,,,,,,,,,,,,,,,,,,,,,,,,,,,,,,,,,,,,,,,,,,,,,,,,,,,,,,,,,,,,,,,,,,,,,,,
0,54,54,8,1,,60dc1397b91eb34c1687d694,62c539e5a9e5fb366c1df9a7,2022-07-06_09h27.34.532,Colour_Asymmetry_Pilot,2022.1.3,Win32,59.73002031,62c50e9c1127f2cd403a315f,,,,,,,,,,,,,,,,,,,,,,,,,,,,,,,,,,,,,,,,,,,,,,,,,,,,,,,,,,,,,,,,,,,,,,,,,,,,,,,,,,,,,,,,,,,,,,,,,,,,,,,,,,,,,,,,,,,,,,,,,,,,,,,,,,,,,,,,,,,,,,,,,,,,,,,,,,,,,,,,,,,
0,55,55,83,1,,60dc1397b91eb34c1687d694,62c539e5a9e5fb366c1df9a7,2022-07-06_09h27.34.532,Colour_Asymmetry_Pilot,2022.1.3,Win32,59.73002031,62c50e9c1127f2cd403a315f,,,,,,,,,,,,,,,,,,,,,,,,,,,,,,,,,,,,,,,,,,,,,,,,,,,,,,,,,,,,,,,,,,,,,,,,,,,,,,,,,,,,,,,,,,,,,,,,,,,,,,,,,,,,,,,,,,,,,,,,,,,,,,,,,,,,,,,,,,,,,,,,,,,,,,,,,,,,,,,,,,,
0,56,56,16,1,,60dc1397b91eb34c1687d694,62c539e5a9e5fb366c1df9a7,2022-07-06_09h27.34.532,Colour_Asymmetry_Pilot,2022.1.3,Win32,59.73002031,62c50e9c1127f2cd403a315f,,,,,,,,,,,,,,,,,,,,,,,,,,,,,,,,,,,,,,,,,,,,,,,,,,,,,,,,,,,,,,,,,,,,,,,,,,,,,,,,,,,,,,,,,,,,,,,,,,,,,,,,,,,,,,,,,,,,,,,,,,,,,,,,,,,,,,,,,,,,,,,,,,,,,,,,,,,,,,,,,,,
0,57,57,40,1,,60dc1397b91eb34c1687d694,62c539e5a9e5fb366c1df9a7,2022-07-06_09h27.34.532,Colour_Asymmetry_Pilot,2022.1.3,Win32,59.73002031,62c50e9c1127f2cd403a315f,,,,,,,,,,,,,,,,,,,,,,,,,,,,,,,,,,,,,,,,,,,,,,,,,,,,,,,,,,,,,,,,,,,,,,,,,,,,,,,,,,,,,,,,,,,,,,,,,,,,,,,,,,,,,,,,,,,,,,,,,,,,,,,,,,,,,,,,,,,,,,,,,,,,,,,,,,,,,,,,,,,
0,58,58,0,1,,60dc1397b91eb34c1687d694,62c539e5a9e5fb366c1df9a7,2022-07-06_09h27.34.532,Colour_Asymmetry_Pilot,2022.1.3,Win32,59.73002031,62c50e9c1127f2cd403a315f,,,,,,,,,,,,,,,,,,,,,,,,,,,,,,,,,,,,,,,,,,,,,,,,,,,,,,,,,,,,,,,,,,,,,,,,,,,,,,,,,,,,,,,,,,,,,,,,,,,,,,,,,,,,,,,,,,,,,,,,,,,,,,,,,,,,,,,,,,,,,,,,,,,,,,,,,,,,,,,,,,,
0,59,59,47,1,,60dc1397b91eb34c1687d694,62c539e5a9e5fb366c1df9a7,2022-07-06_09h27.34.532,Colour_Asymmetry_Pilot,2022.1.3,Win32,59.73002031,62c50e9c1127f2cd403a315f,,,,,,,,,,,,,,,,,,,,,,,,,,,,,,,,,,,,,,,,,,,,,,,,,,,,,,,,,,,,,,,,,,,,,,,,,,,,,,,,,,,,,,,,,,,,,,,,,,,,,,,,,,,,,,,,,,,,,,,,,,,,,,,,,,,,,,,,,,,,,,,,,,,,,,,,,,,,,,,,,,,
0,60,60,41,1,,60dc1397b91eb34c1687d694,62c539e5a9e5fb366c1df9a7,2022-07-06_09h27.34.532,Colour_Asymmetry_Pilot,2022.1.3,Win32,59.73002031,62c50e9c1127f2cd403a315f,,,,,,,,,,,,,,,,,,,,,,,,,,,,,,,,,,,,,,,,,,,,,,,,,,,,,,,,,,,,,,,,,,,,,,,,,,,,,,,,,,,,,,,,,,,,,,,,,,,,,,,,,,,,,,,,,,,,,,,,,,,,,,,,,,,,,,,,,,,,,,,,,,,,,,,,,,,,,,,,,,,
0,61,61,92,1,,60dc1397b91eb34c1687d694,62c539e5a9e5fb366c1df9a7,2022-07-06_09h27.34.532,Colour_Asymmetry_Pilot,2022.1.3,Win32,59.73002031,62c50e9c1127f2cd403a315f,,,,,,,,,,,,,,,,,,,,,,,,,,,,,,,,,,,,,,,,,,,,,,,,,,,,,,,,,,,,,,,,,,,,,,,,,,,,,,,,,,,,,,,,,,,,,,,,,,,,,,,,,,,,,,,,,,,,,,,,,,,,,,,,,,,,,,,,,,,,,,,,,,,,,,,,,,,,,,,,,,,
0,62,62,37,1,,60dc1397b91eb34c1687d694,62c539e5a9e5fb366c1df9a7,2022-07-06_09h27.34.532,Colour_Asymmetry_Pilot,2022.1.3,Win32,59.73002031,62c50e9c1127f2cd403a315f,,,,,,,,,,,,,,,,,,,,,,,,,,,,,,,,,,,,,,,,,,,,,,,,,,,,,,,,,,,,,,,,,,,,,,,,,,,,,,,,,,,,,,,,,,,,,,,,,,,,,,,,,,,,,,,,,,,,,,,,,,,,,,,,,,,,,,,,,,,,,,,,,,,,,,,,,,,,,,,,,,,
0,63,63,26,1,,60dc1397b91eb34c1687d694,62c539e5a9e5fb366c1df9a7,2022-07-06_09h27.34.532,Colour_Asymmetry_Pilot,2022.1.3,Win32,59.73002031,62c50e9c1127f2cd403a315f,,,,,,,,,,,,,,,,,,,,,,,,,,,,,,,,,,,,,,,,,,,,,,,,,,,,,,,,,,,,,,,,,,,,,,,,,,,,,,,,,,,,,,,,,,,,,,,,,,,,,,,,,,,,,,,,,,,,,,,,,,,,,,,,,,,,,,,,,,,,,,,,,,,,,,,,,,,,,,,,,,,
0,64,64,18,1,,60dc1397b91eb34c1687d694,62c539e5a9e5fb366c1df9a7,2022-07-06_09h27.34.532,Colour_Asymmetry_Pilot,2022.1.3,Win32,59.73002031,62c50e9c1127f2cd403a315f,,,,,,,,,,,,,,,,,,,,,,,,,,,,,,,,,,,,,,,,,,,,,,,,,,,,,,,,,,,,,,,,,,,,,,,,,,,,,,,,,,,,,,,,,,,,,,,,,,,,,,,,,,,,,,,,,,,,,,,,,,,,,,,,,,,,,,,,,,,,,,,,,,,,,,,,,,,,,,,,,,,
0,65,65,90,1,,60dc1397b91eb34c1687d694,62c539e5a9e5fb366c1df9a7,2022-07-06_09h27.34.532,Colour_Asymmetry_Pilot,2022.1.3,Win32,59.73002031,62c50e9c1127f2cd403a315f,,,,,,,,,,,,,,,,,,,,,,,,,,,,,,,,,,,,,,,,,,,,,,,,,,,,,,,,,,,,,,,,,,,,,,,,,,,,,,,,,,,,,,,,,,,,,,,,,,,,,,,,,,,,,,,,,,,,,,,,,,,,,,,,,,,,,,,,,,,,,,,,,,,,,,,,,,,,,,,,,,,
0,66,66,70,1,,60dc1397b91eb34c1687d694,62c539e5a9e5fb366c1df9a7,2022-07-06_09h27.34.532,Colour_Asymmetry_Pilot,2022.1.3,Win32,59.73002031,62c50e9c1127f2cd403a315f,,,,,,,,,,,,,,,,,,,,,,,,,,,,,,,,,,,,,,,,,,,,,,,,,,,,,,,,,,,,,,,,,,,,,,,,,,,,,,,,,,,,,,,,,,,,,,,,,,,,,,,,,,,,,,,,,,,,,,,,,,,,,,,,,,,,,,,,,,,,,,,,,,,,,,,,,,,,,,,,,,,
0,67,67,24,1,,60dc1397b91eb34c1687d694,62c539e5a9e5fb366c1df9a7,2022-07-06_09h27.34.532,Colour_Asymmetry_Pilot,2022.1.3,Win32,59.73002031,62c50e9c1127f2cd403a315f,,,,,,,,,,,,,,,,,,,,,,,,,,,,,,,,,,,,,,,,,,,,,,,,,,,,,,,,,,,,,,,,,,,,,,,,,,,,,,,,,,,,,,,,,,,,,,,,,,,,,,,,,,,,,,,,,,,,,,,,,,,,,,,,,,,,,,,,,,,,,,,,,,,,,,,,,,,,,,,,,,,
0,68,68,10,1,,60dc1397b91eb34c1687d694,62c539e5a9e5fb366c1df9a7,2022-07-06_09h27.34.532,Colour_Asymmetry_Pilot,2022.1.3,Win32,59.73002031,62c50e9c1127f2cd403a315f,,,,,,,,,,,,,,,,,,,,,,,,,,,,,,,,,,,,,,,,,,,,,,,,,,,,,,,,,,,,,,,,,,,,,,,,,,,,,,,,,,,,,,,,,,,,,,,,,,,,,,,,,,,,,,,,,,,,,,,,,,,,,,,,,,,,,,,,,,,,,,,,,,,,,,,,,,,,,,,,,,,
0,69,69,14,1,,60dc1397b91eb34c1687d694,62c539e5a9e5fb366c1df9a7,2022-07-06_09h27.34.532,Colour_Asymmetry_Pilot,2022.1.3,Win32,59.73002031,62c50e9c1127f2cd403a315f,,,,,,,,,,,,,,,,,,,,,,,,,,,,,,,,,,,,,,,,,,,,,,,,,,,,,,,,,,,,,,,,,,,,,,,,,,,,,,,,,,,,,,,,,,,,,,,,,,,,,,,,,,,,,,,,,,,,,,,,,,,,,,,,,,,,,,,,,,,,,,,,,,,,,,,,,,,,,,,,,,,
0,70,70,84,1,,60dc1397b91eb34c1687d694,62c539e5a9e5fb366c1df9a7,2022-07-06_09h27.34.532,Colour_Asymmetry_Pilot,2022.1.3,Win32,59.73002031,62c50e9c1127f2cd403a315f,,,,,,,,,,,,,,,,,,,,,,,,,,,,,,,,,,,,,,,,,,,,,,,,,,,,,,,,,,,,,,,,,,,,,,,,,,,,,,,,,,,,,,,,,,,,,,,,,,,,,,,,,,,,,,,,,,,,,,,,,,,,,,,,,,,,,,,,,,,,,,,,,,,,,,,,,,,,,,,,,,,
0,71,71,2,1,,60dc1397b91eb34c1687d694,62c539e5a9e5fb366c1df9a7,2022-07-06_09h27.34.532,Colour_Asymmetry_Pilot,2022.1.3,Win32,59.73002031,62c50e9c1127f2cd403a315f,,,,,,,,,,,,,,,,,,,,,,,,,,,,,,,,,,,,,,,,,,,,,,,,,,,,,,,,,,,,,,,,,,,,,,,,,,,,,,,,,,,,,,,,,,,,,,,,,,,,,,,,,,,,,,,,,,,,,,,,,,,,,,,,,,,,,,,,,,,,,,,,,,,,,,,,,,,,,,,,,,,
0,72,72,52,1,,60dc1397b91eb34c1687d694,62c539e5a9e5fb366c1df9a7,2022-07-06_09h27.34.532,Colour_Asymmetry_Pilot,2022.1.3,Win32,59.73002031,62c50e9c1127f2cd403a315f,,,,,,,,,,,,,,,,,,,,,,,,,,,,,,,,,,,,,,,,,,,,,,,,,,,,,,,,,,,,,,,,,,,,,,,,,,,,,,,,,,,,,,,,,,,,,,,,,,,,,,,,,,,,,,,,,,,,,,,,,,,,,,,,,,,,,,,,,,,,,,,,,,,,,,,,,,,,,,,,,,,
0,73,73,60,1,,60dc1397b91eb34c1687d694,62c539e5a9e5fb366c1df9a7,2022-07-06_09h27.34.532,Colour_Asymmetry_Pilot,2022.1.3,Win32,59.73002031,62c50e9c1127f2cd403a315f,,,,,,,,,,,,,,,,,,,,,,,,,,,,,,,,,,,,,,,,,,,,,,,,,,,,,,,,,,,,,,,,,,,,,,,,,,,,,,,,,,,,,,,,,,,,,,,,,,,,,,,,,,,,,,,,,,,,,,,,,,,,,,,,,,,,,,,,,,,,,,,,,,,,,,,,,,,,,,,,,,,
0,74,74,33,1,,60dc1397b91eb34c1687d694,62c539e5a9e5fb366c1df9a7,2022-07-06_09h27.34.532,Colour_Asymmetry_Pilot,2022.1.3,Win32,59.73002031,62c50e9c1127f2cd403a315f,,,,,,,,,,,,,,,,,,,,,,,,,,,,,,,,,,,,,,,,,,,,,,,,,,,,,,,,,,,,,,,,,,,,,,,,,,,,,,,,,,,,,,,,,,,,,,,,,,,,,,,,,,,,,,,,,,,,,,,,,,,,,,,,,,,,,,,,,,,,,,,,,,,,,,,,,,,,,,,,,,,
0,75,75,69,1,,60dc1397b91eb34c1687d694,62c539e5a9e5fb366c1df9a7,2022-07-06_09h27.34.532,Colour_Asymmetry_Pilot,2022.1.3,Win32,59.73002031,62c50e9c1127f2cd403a315f,,,,,,,,,,,,,,,,,,,,,,,,,,,,,,,,,,,,,,,,,,,,,,,,,,,,,,,,,,,,,,,,,,,,,,,,,,,,,,,,,,,,,,,,,,,,,,,,,,,,,,,,,,,,,,,,,,,,,,,,,,,,,,,,,,,,,,,,,,,,,,,,,,,,,,,,,,,,,,,,,,,
0,76,76,35,1,,60dc1397b91eb34c1687d694,62c539e5a9e5fb366c1df9a7,2022-07-06_09h27.34.532,Colour_Asymmetry_Pilot,2022.1.3,Win32,59.73002031,62c50e9c1127f2cd403a315f,,,,,,,,,,,,,,,,,,,,,,,,,,,,,,,,,,,,,,,,,,,,,,,,,,,,,,,,,,,,,,,,,,,,,,,,,,,,,,,,,,,,,,,,,,,,,,,,,,,,,,,,,,,,,,,,,,,,,,,,,,,,,,,,,,,,,,,,,,,,,,,,,,,,,,,,,,,,,,,,,,,
0,77,77,22,1,,60dc1397b91eb34c1687d694,62c539e5a9e5fb366c1df9a7,2022-07-06_09h27.34.532,Colour_Asymmetry_Pilot,2022.1.3,Win32,59.73002031,62c50e9c1127f2cd403a315f,,,,,,,,,,,,,,,,,,,,,,,,,,,,,,,,,,,,,,,,,,,,,,,,,,,,,,,,,,,,,,,,,,,,,,,,,,,,,,,,,,,,,,,,,,,,,,,,,,,,,,,,,,,,,,,,,,,,,,,,,,,,,,,,,,,,,,,,,,,,,,,,,,,,,,,,,,,,,,,,,,,
0,78,78,49,1,,60dc1397b91eb34c1687d694,62c539e5a9e5fb366c1df9a7,2022-07-06_09h27.34.532,Colour_Asymmetry_Pilot,2022.1.3,Win32,59.73002031,62c50e9c1127f2cd403a315f,,,,,,,,,,,,,,,,,,,,,,,,,,,,,,,,,,,,,,,,,,,,,,,,,,,,,,,,,,,,,,,,,,,,,,,,,,,,,,,,,,,,,,,,,,,,,,,,,,,,,,,,,,,,,,,,,,,,,,,,,,,,,,,,,,,,,,,,,,,,,,,,,,,,,,,,,,,,,,,,,,,
0,79,79,46,1,,60dc1397b91eb34c1687d694,62c539e5a9e5fb366c1df9a7,2022-07-06_09h27.34.532,Colour_Asymmetry_Pilot,2022.1.3,Win32,59.73002031,62c50e9c1127f2cd403a315f,,,,,,,,,,,,,,,,,,,,,,,,,,,,,,,,,,,,,,,,,,,,,,,,,,,,,,,,,,,,,,,,,,,,,,,,,,,,,,,,,,,,,,,,,,,,,,,,,,,,,,,,,,,,,,,,,,,,,,,,,,,,,,,,,,,,,,,,,,,,,,,,,,,,,,,,,,,,,,,,,,,
0,80,80,59,1,,60dc1397b91eb34c1687d694,62c539e5a9e5fb366c1df9a7,2022-07-06_09h27.34.532,Colour_Asymmetry_Pilot,2022.1.3,Win32,59.73002031,62c50e9c1127f2cd403a315f,,,,,,,,,,,,,,,,,,,,,,,,,,,,,,,,,,,,,,,,,,,,,,,,,,,,,,,,,,,,,,,,,,,,,,,,,,,,,,,,,,,,,,,,,,,,,,,,,,,,,,,,,,,,,,,,,,,,,,,,,,,,,,,,,,,,,,,,,,,,,,,,,,,,,,,,,,,,,,,,,,,
0,81,81,31,1,,60dc1397b91eb34c1687d694,62c539e5a9e5fb366c1df9a7,2022-07-06_09h27.34.532,Colour_Asymmetry_Pilot,2022.1.3,Win32,59.73002031,62c50e9c1127f2cd403a315f,,,,,,,,,,,,,,,,,,,,,,,,,,,,,,,,,,,,,,,,,,,,,,,,,,,,,,,,,,,,,,,,,,,,,,,,,,,,,,,,,,,,,,,,,,,,,,,,,,,,,,,,,,,,,,,,,,,,,,,,,,,,,,,,,,,,,,,,,,,,,,,,,,,,,,,,,,,,,,,,,,,
0,82,82,36,1,,60dc1397b91eb34c1687d694,62c539e5a9e5fb366c1df9a7,2022-07-06_09h27.34.532,Colour_Asymmetry_Pilot,2022.1.3,Win32,59.73002031,62c50e9c1127f2cd403a315f,,,,,,,,,,,,,,,,,,,,,,,,,,,,,,,,,,,,,,,,,,,,,,,,,,,,,,,,,,,,,,,,,,,,,,,,,,,,,,,,,,,,,,,,,,,,,,,,,,,,,,,,,,,,,,,,,,,,,,,,,,,,,,,,,,,,,,,,,,,,,,,,,,,,,,,,,,,,,,,,,,,
0,83,83,78,1,,60dc1397b91eb34c1687d694,62c539e5a9e5fb366c1df9a7,2022-07-06_09h27.34.532,Colour_Asymmetry_Pilot,2022.1.3,Win32,59.73002031,62c50e9c1127f2cd403a315f,,,,,,,,,,,,,,,,,,,,,,,,,,,,,,,,,,,,,,,,,,,,,,,,,,,,,,,,,,,,,,,,,,,,,,,,,,,,,,,,,,,,,,,,,,,,,,,,,,,,,,,,,,,,,,,,,,,,,,,,,,,,,,,,,,,,,,,,,,,,,,,,,,,,,,,,,,,,,,,,,,,
0,84,84,15,1,,60dc1397b91eb34c1687d694,62c539e5a9e5fb366c1df9a7,2022-07-06_09h27.34.532,Colour_Asymmetry_Pilot,2022.1.3,Win32,59.73002031,62c50e9c1127f2cd403a315f,,,,,,,,,,,,,,,,,,,,,,,,,,,,,,,,,,,,,,,,,,,,,,,,,,,,,,,,,,,,,,,,,,,,,,,,,,,,,,,,,,,,,,,,,,,,,,,,,,,,,,,,,,,,,,,,,,,,,,,,,,,,,,,,,,,,,,,,,,,,,,,,,,,,,,,,,,,,,,,,,,,
0,85,85,73,1,,60dc1397b91eb34c1687d694,62c539e5a9e5fb366c1df9a7,2022-07-06_09h27.34.532,Colour_Asymmetry_Pilot,2022.1.3,Win32,59.73002031,62c50e9c1127f2cd403a315f,,,,,,,,,,,,,,,,,,,,,,,,,,,,,,,,,,,,,,,,,,,,,,,,,,,,,,,,,,,,,,,,,,,,,,,,,,,,,,,,,,,,,,,,,,,,,,,,,,,,,,,,,,,,,,,,,,,,,,,,,,,,,,,,,,,,,,,,,,,,,,,,,,,,,,,,,,,,,,,,,,,
0,86,86,23,1,,60dc1397b91eb34c1687d694,62c539e5a9e5fb366c1df9a7,2022-07-06_09h27.34.532,Colour_Asymmetry_Pilot,2022.1.3,Win32,59.73002031,62c50e9c1127f2cd403a315f,,,,,,,,,,,,,,,,,,,,,,,,,,,,,,,,,,,,,,,,,,,,,,,,,,,,,,,,,,,,,,,,,,,,,,,,,,,,,,,,,,,,,,,,,,,,,,,,,,,,,,,,,,,,,,,,,,,,,,,,,,,,,,,,,,,,,,,,,,,,,,,,,,,,,,,,,,,,,,,,,,,
0,87,87,1,1,,60dc1397b91eb34c1687d694,62c539e5a9e5fb366c1df9a7,2022-07-06_09h27.34.532,Colour_Asymmetry_Pilot,2022.1.3,Win32,59.73002031,62c50e9c1127f2cd403a315f,,,,,,,,,,,,,,,,,,,,,,,,,,,,,,,,,,,,,,,,,,,,,,,,,,,,,,,,,,,,,,,,,,,,,,,,,,,,,,,,,,,,,,,,,,,,,,,,,,,,,,,,,,,,,,,,,,,,,,,,,,,,,,,,,,,,,,,,,,,,,,,,,,,,,,,,,,,,,,,,,,,
0,88,88,77,1,,60dc1397b91eb34c1687d694,62c539e5a9e5fb366c1df9a7,2022-07-06_09h27.34.532,Colour_Asymmetry_Pilot,2022.1.3,Win32,59.73002031,62c50e9c1127f2cd403a315f,,,,,,,,,,,,,,,,,,,,,,,,,,,,,,,,,,,,,,,,,,,,,,,,,,,,,,,,,,,,,,,,,,,,,,,,,,,,,,,,,,,,,,,,,,,,,,,,,,,,,,,,,,,,,,,,,,,,,,,,,,,,,,,,,,,,,,,,,,,,,,,,,,,,,,,,,,,,,,,,,,,
0,89,89,19,1,,60dc1397b91eb34c1687d694,62c539e5a9e5fb366c1df9a7,2022-07-06_09h27.34.532,Colour_Asymmetry_Pilot,2022.1.3,Win32,59.73002031,62c50e9c1127f2cd403a315f,,,,,,,,,,,,,,,,,,,,,,,,,,,,,,,,,,,,,,,,,,,,,,,,,,,,,,,,,,,,,,,,,,,,,,,,,,,,,,,,,,,,,,,,,,,,,,,,,,,,,,,,,,,,,,,,,,,,,,,,,,,,,,,,,,,,,,,,,,,,,,,,,,,,,,,,,,,,,,,,,,,
0,90,90,48,1,,60dc1397b91eb34c1687d694,62c539e5a9e5fb366c1df9a7,2022-07-06_09h27.34.532,Colour_Asymmetry_Pilot,2022.1.3,Win32,59.73002031,62c50e9c1127f2cd403a315f,,,,,,,,,,,,,,,,,,,,,,,,,,,,,,,,,,,,,,,,,,,,,,,,,,,,,,,,,,,,,,,,,,,,,,,,,,,,,,,,,,,,,,,,,,,,,,,,,,,,,,,,,,,,,,,,,,,,,,,,,,,,,,,,,,,,,,,,,,,,,,,,,,,,,,,,,,,,,,,,,,,
0,91,91,3,1,,60dc1397b91eb34c1687d694,62c539e5a9e5fb366c1df9a7,2022-07-06_09h27.34.532,Colour_Asymmetry_Pilot,2022.1.3,Win32,59.73002031,62c50e9c1127f2cd403a315f,,,,,,,,,,,,,,,,,,,,,,,,,,,,,,,,,,,,,,,,,,,,,,,,,,,,,,,,,,,,,,,,,,,,,,,,,,,,,,,,,,,,,,,,,,,,,,,,,,,,,,,,,,,,,,,,,,,,,,,,,,,,,,,,,,,,,,,,,,,,,,,,,,,,,,,,,,,,,,,,,,,
0,92,92,88,1,,60dc1397b91eb34c1687d694,62c539e5a9e5fb366c1df9a7,2022-07-06_09h27.34.532,Colour_Asymmetry_Pilot,2022.1.3,Win32,59.73002031,62c50e9c1127f2cd403a315f,,,,,,,,,,,,,,,,,,,,,,,,,,,,,,,,,,,,,,,,,,,,,,,,,,,,,,,,,,,,,,,,,,,,,,,,,,,,,,,,,,,,,,,,,,,,,,,,,,,,,,,,,,,,,,,,,,,,,,,,,,,,,,,,,,,,,,,,,,,,,,,,,,,,,,,,,,,,,,,,,,,
,,,,,,60dc1397b91eb34c1687d694,62c539e5a9e5fb366c1df9a7,2022-07-06_09h27.34.532,Colour_Asymmetry_Pilot,2022.1.3,Win32,59.73002031,62c50e9c1127f2cd403a315f,0,0,0,98,1,twoone,,,,,,,,,,,,,,,,,,,,,,,,,,,,,,,,,,,,,,,,,,,,,,,,,,,,,,,,,,,,,,,,,,,,,,,,,,,,,,,,,,,,,,,,,,,,,,,,,,,,,,,,,,,,,,,,,,,,,,,,,,,,,,,,,,,,,,,,,,,,,,,,,,,,,,,,,,,,,
,,,,,,60dc1397b91eb34c1687d694,62c539e5a9e5fb366c1df9a7,2022-07-06_09h27.34.532,Colour_Asymmetry_Pilot,2022.1.3,Win32,59.73002031,62c50e9c1127f2cd403a315f,0,1,1,160,1,onetwo,,,,,,,,,,,,,,,,,,,,,,,,,,,,,,,,,,,,,,,,,,,,,,,,,,,,,,,,,,,,,,,,,,,,,,,,,,,,,,,,,,,,,,,,,,,,,,,,,,,,,,,,,,,,,,,,,,,,,,,,,,,,,,,,,,,,,,,,,,,,,,,,,,,,,,,,,,,,,
,,,,,,60dc1397b91eb34c1687d694,62c539e5a9e5fb366c1df9a7,2022-07-06_09h27.34.532,Colour_Asymmetry_Pilot,2022.1.3,Win32,59.73002031,62c50e9c1127f2cd403a315f,0,2,2,83,1,twofour,,,,,,,,,,,,,,,,,,,,,,,,,,,,,,,,,,,,,,,,,,,,,,,,,,,,,,,,,,,,,,,,,,,,,,,,,,,,,,,,,,,,,,,,,,,,,,,,,,,,,,,,,,,,,,,,,,,,,,,,,,,,,,,,,,,,,,,,,,,,,,,,,,,,,,,,,,,,,
,,,,,,60dc1397b91eb34c1687d694,62c539e5a9e5fb366c1df9a7,2022-07-06_09h27.34.532,Colour_Asymmetry_Pilot,2022.1.3,Win32,59.73002031,62c50e9c1127f2cd403a315f,0,3,3,104,1,onetwo,,,,,,,,,,,,,,,,,,,,,,,,,,,,,,,,,,,,,,,,,,,,,,,,,,,,,,,,,,,,,,,,,,,,,,,,,,,,,,,,,,,,,,,,,,,,,,,,,,,,,,,,,,,,,,,,,,,,,,,,,,,,,,,,,,,,,,,,,,,,,,,,,,,,,,,,,,,,,
,,,,,,60dc1397b91eb34c1687d694,62c539e5a9e5fb366c1df9a7,2022-07-06_09h27.34.532,Colour_Asymmetry_Pilot,2022.1.3,Win32,59.73002031,62c50e9c1127f2cd403a315f,0,4,4,56,1,onetwo,,,,,,,,,,,,,,,,,,,,,,,,,,,,,,,,,,,,,,,,,,,,,,,,,,,,,,,,,,,,,,,,,,,,,,,,,,,,,,,,,,,,,,,,,,,,,,,,,,,,,,,,,,,,,,,,,,,,,,,,,,,,,,,,,,,,,,,,,,,,,,,,,,,,,,,,,,,,,
,,,,,,60dc1397b91eb34c1687d694,62c539e5a9e5fb366c1df9a7,2022-07-06_09h27.34.532,Colour_Asymmetry_Pilot,2022.1.3,Win32,59.73002031,62c50e9c1127f2cd403a315f,0,5,5,12,1,threeone,,,,,,,,,,,,,,,,,,,,,,,,,,,,,,,,,,,,,,,,,,,,,,,,,,,,,,,,,,,,,,,,,,,,,,,,,,,,,,,,,,,,,,,,,,,,,,,,,,,,,,,,,,,,,,,,,,,,,,,,,,,,,,,,,,,,,,,,,,,,,,,,,,,,,,,,,,,,,
,,,,,,60dc1397b91eb34c1687d694,62c539e5a9e5fb366c1df9a7,2022-07-06_09h27.34.532,Colour_Asymmetry_Pilot,2022.1.3,Win32,59.73002031,62c50e9c1127f2cd403a315f,0,6,6,129,1,onethree,,,,,,,,,,,,,,,,,,,,,,,,,,,,,,,,,,,,,,,,,,,,,,,,,,,,,,,,,,,,,,,,,,,,,,,,,,,,,,,,,,,,,,,,,,,,,,,,,,,,,,,,,,,,,,,,,,,,,,,,,,,,,,,,,,,,,,,,,,,,,,,,,,,,,,,,,,,,,
,,,,,,60dc1397b91eb34c1687d694,62c539e5a9e5fb366c1df9a7,2022-07-06_09h27.34.532,Colour_Asymmetry_Pilot,2022.1.3,Win32,59.73002031,62c50e9c1127f2cd403a315f,0,7,7,101,1,threefour,,,,,,,,,,,,,,,,,,,,,,,,,,,,,,,,,,,,,,,,,,,,,,,,,,,,,,,,,,,,,,,,,,,,,,,,,,,,,,,,,,,,,,,,,,,,,,,,,,,,,,,,,,,,,,,,,,,,,,,,,,,,,,,,,,,,,,,,,,,,,,,,,,,,,,,,,,,,,
,,,,,,60dc1397b91eb34c1687d694,62c539e5a9e5fb366c1df9a7,2022-07-06_09h27.34.532,Colour_Asymmetry_Pilot,2022.1.3,Win32,59.73002031,62c50e9c1127f2cd403a315f,0,8,8,78,1,fourtwo,,,,,,,,,,,,,,,,,,,,,,,,,,,,,,,,,,,,,,,,,,,,,,,,,,,,,,,,,,,,,,,,,,,,,,,,,,,,,,,,,,,,,,,,,,,,,,,,,,,,,,,,,,,,,,,,,,,,,,,,,,,,,,,,,,,,,,,,,,,,,,,,,,,,,,,,,,,,,
,,,,,,60dc1397b91eb34c1687d694,62c539e5a9e5fb366c1df9a7,2022-07-06_09h27.34.532,Colour_Asymmetry_Pilot,2022.1.3,Win32,59.73002031,62c50e9c1127f2cd403a315f,0,9,9,27,1,twofour,,,,,,,,,,,,,,,,,,,,,,,,,,,,,,,,,,,,,,,,,,,,,,,,,,,,,,,,,,,,,,,,,,,,,,,,,,,,,,,,,,,,,,,,,,,,,,,,,,,,,,,,,,,,,,,,,,,,,,,,,,,,,,,,,,,,,,,,,,,,,,,,,,,,,,,,,,,,,
,,,,,,60dc1397b91eb34c1687d694,62c539e5a9e5fb366c1df9a7,2022-07-06_09h27.34.532,Colour_Asymmetry_Pilot,2022.1.3,Win32,59.73002031,62c50e9c1127f2cd403a315f,0,10,10,107,1,twofour,,,,,,,,,,,,,,,,,,,,,,,,,,,,,,,,,,,,,,,,,,,,,,,,,,,,,,,,,,,,,,,,,,,,,,,,,,,,,,,,,,,,,,,,,,,,,,,,,,,,,,,,,,,,,,,,,,,,,,,,,,,,,,,,,,,,,,,,,,,,,,,,,,,,,,,,,,,,,
,,,,,,60dc1397b91eb34c1687d694,62c539e5a9e5fb366c1df9a7,2022-07-06_09h27.34.532,Colour_Asymmetry_Pilot,2022.1.3,Win32,59.73002031,62c50e9c1127f2cd403a315f,0,11,11,90,1,twoone,,,,,,,,,,,,,,,,,,,,,,,,,,,,,,,,,,,,,,,,,,,,,,,,,,,,,,,,,,,,,,,,,,,,,,,,,,,,,,,,,,,,,,,,,,,,,,,,,,,,,,,,,,,,,,,,,,,,,,,,,,,,,,,,,,,,,,,,,,,,,,,,,,,,,,,,,,,,,
,,,,,,60dc1397b91eb34c1687d694,62c539e5a9e5fb366c1df9a7,2022-07-06_09h27.34.532,Colour_Asymmetry_Pilot,2022.1.3,Win32,59.73002031,62c50e9c1127f2cd403a315f,0,12,12,43,1,twofour,,,,,,,,,,,,,,,,,,,,,,,,,,,,,,,,,,,,,,,,,,,,,,,,,,,,,,,,,,,,,,,,,,,,,,,,,,,,,,,,,,,,,,,,,,,,,,,,,,,,,,,,,,,,,,,,,,,,,,,,,,,,,,,,,,,,,,,,,,,,,,,,,,,,,,,,,,,,,
,,,,,,60dc1397b91eb34c1687d694,62c539e5a9e5fb366c1df9a7,2022-07-06_09h27.34.532,Colour_Asymmetry_Pilot,2022.1.3,Win32,59.73002031,62c50e9c1127f2cd403a315f,0,13,13,68,1,threeone,,,,,,,,,,,,,,,,,,,,,,,,,,,,,,,,,,,,,,,,,,,,,,,,,,,,,,,,,,,,,,,,,,,,,,,,,,,,,,,,,,,,,,,,,,,,,,,,,,,,,,,,,,,,,,,,,,,,,,,,,,,,,,,,,,,,,,,,,,,,,,,,,,,,,,,,,,,,,
,,,,,,60dc1397b91eb34c1687d694,62c539e5a9e5fb366c1df9a7,2022-07-06_09h27.34.532,Colour_Asymmetry_Pilot,2022.1.3,Win32,59.73002031,62c50e9c1127f2cd403a315f,0,14,14,0,1,onetwo,,,,,,,,,,,,,,,,,,,,,,,,,,,,,,,,,,,,,,,,,,,,,,,,,,,,,,,,,,,,,,,,,,,,,,,,,,,,,,,,,,,,,,,,,,,,,,,,,,,,,,,,,,,,,,,,,,,,,,,,,,,,,,,,,,,,,,,,,,,,,,,,,,,,,,,,,,,,,
,,,,,,60dc1397b91eb34c1687d694,62c539e5a9e5fb366c1df9a7,2022-07-06_09h27.34.532,Colour_Asymmetry_Pilot,2022.1.3,Win32,59.73002031,62c50e9c1127f2cd403a315f,0,15,15,161,1,onethree,,,,,,,,,,,,,,,,,,,,,,,,,,,,,,,,,,,,,,,,,,,,,,,,,,,,,,,,,,,,,,,,,,,,,,,,,,,,,,,,,,,,,,,,,,,,,,,,,,,,,,,,,,,,,,,,,,,,,,,,,,,,,,,,,,,,,,,,,,,,,,,,,,,,,,,,,,,,,
,,,,,,60dc1397b91eb34c1687d694,62c539e5a9e5fb366c1df9a7,2022-07-06_09h27.34.532,Colour_Asymmetry_Pilot,2022.1.3,Win32,59.73002031,62c50e9c1127f2cd403a315f,0,16,16,44,1,threeone,,,,,,,,,,,,,,,,,,,,,,,,,,,,,,,,,,,,,,,,,,,,,,,,,,,,,,,,,,,,,,,,,,,,,,,,,,,,,,,,,,,,,,,,,,,,,,,,,,,,,,,,,,,,,,,,,,,,,,,,,,,,,,,,,,,,,,,,,,,,,,,,,,,,,,,,,,,,,
,,,,,,60dc1397b91eb34c1687d694,62c539e5a9e5fb366c1df9a7,2022-07-06_09h27.34.532,Colour_Asymmetry_Pilot,2022.1.3,Win32,59.73002031,62c50e9c1127f2cd403a315f,0,17,17,67,1,twofour,,,,,,,,,,,,,,,,,,,,,,,,,,,,,,,,,,,,,,,,,,,,,,,,,,,,,,,,,,,,,,,,,,,,,,,,,,,,,,,,,,,,,,,,,,,,,,,,,,,,,,,,,,,,,,,,,,,,,,,,,,,,,,,,,,,,,,,,,,,,,,,,,,,,,,,,,,,,,
,,,,,,60dc1397b91eb34c1687d694,62c539e5a9e5fb366c1df9a7,2022-07-06_09h27.34.532,Colour_Asymmetry_Pilot,2022.1.3,Win32,59.73002031,62c50e9c1127f2cd403a315f,0,18,18,76,1,threeone,,,,,,,,,,,,,,,,,,,,,,,,,,,,,,,,,,,,,,,,,,,,,,,,,,,,,,,,,,,,,,,,,,,,,,,,,,,,,,,,,,,,,,,,,,,,,,,,,,,,,,,,,,,,,,,,,,,,,,,,,,,,,,,,,,,,,,,,,,,,,,,,,,,,,,,,,,,,,
,,,,,,60dc1397b91eb34c1687d694,62c539e5a9e5fb366c1df9a7,2022-07-06_09h27.34.532,Colour_Asymmetry_Pilot,2022.1.3,Win32,59.73002031,62c50e9c1127f2cd403a315f,0,19,19,127,1,fourthree,,,,,,,,,,,,,,,,,,,,,,,,,,,,,,,,,,,,,,,,,,,,,,,,,,,,,,,,,,,,,,,,,,,,,,,,,,,,,,,,,,,,,,,,,,,,,,,,,,,,,,,,,,,,,,,,,,,,,,,,,,,,,,,,,,,,,,,,,,,,,,,,,,,,,,,,,,,,,
,,,,,,60dc1397b91eb34c1687d694,62c539e5a9e5fb366c1df9a7,2022-07-06_09h27.34.532,Colour_Asymmetry_Pilot,2022.1.3,Win32,59.73002031,62c50e9c1127f2cd403a315f,0,20,20,29,1,threefour,,,,,,,,,,,,,,,,,,,,,,,,,,,,,,,,,,,,,,,,,,,,,,,,,,,,,,,,,,,,,,,,,,,,,,,,,,,,,,,,,,,,,,,,,,,,,,,,,,,,,,,,,,,,,,,,,,,,,,,,,,,,,,,,,,,,,,,,,,,,,,,,,,,,,,,,,,,,,
,,,,,,60dc1397b91eb34c1687d694,62c539e5a9e5fb366c1df9a7,2022-07-06_09h27.34.532,Colour_Asymmetry_Pilot,2022.1.3,Win32,59.73002031,62c50e9c1127f2cd403a315f,0,21,21,75,1,twofour,,,,,,,,,,,,,,,,,,,,,,,,,,,,,,,,,,,,,,,,,,,,,,,,,,,,,,,,,,,,,,,,,,,,,,,,,,,,,,,,,,,,,,,,,,,,,,,,,,,,,,,,,,,,,,,,,,,,,,,,,,,,,,,,,,,,,,,,,,,,,,,,,,,,,,,,,,,,,
,,,,,,60dc1397b91eb34c1687d694,62c539e5a9e5fb366c1df9a7,2022-07-06_09h27.34.532,Colour_Asymmetry_Pilot,2022.1.3,Win32,59.73002031,62c50e9c1127f2cd403a315f,0,22,22,119,1,fourthree,,,,,,,,,,,,,,,,,,,,,,,,,,,,,,,,,,,,,,,,,,,,,,,,,,,,,,,,,,,,,,,,,,,,,,,,,,,,,,,,,,,,,,,,,,,,,,,,,,,,,,,,,,,,,,,,,,,,,,,,,,,,,,,,,,,,,,,,,,,,,,,,,,,,,,,,,,,,,
,,,,,,60dc1397b91eb34c1687d694,62c539e5a9e5fb366c1df9a7,2022-07-06_09h27.34.532,Colour_Asymmetry_Pilot,2022.1.3,Win32,59.73002031,62c50e9c1127f2cd403a315f,0,23,23,89,1,onethree,,,,,,,,,,,,,,,,,,,,,,,,,,,,,,,,,,,,,,,,,,,,,,,,,,,,,,,,,,,,,,,,,,,,,,,,,,,,,,,,,,,,,,,,,,,,,,,,,,,,,,,,,,,,,,,,,,,,,,,,,,,,,,,,,,,,,,,,,,,,,,,,,,,,,,,,,,,,,
,,,,,,60dc1397b91eb34c1687d694,62c539e5a9e5fb366c1df9a7,2022-07-06_09h27.34.532,Colour_Asymmetry_Pilot,2022.1.3,Win32,59.73002031,62c50e9c1127f2cd403a315f,0,24,24,122,1,twoone,,,,,,,,,,,,,,,,,,,,,,,,,,,,,,,,,,,,,,,,,,,,,,,,,,,,,,,,,,,,,,,,,,,,,,,,,,,,,,,,,,,,,,,,,,,,,,,,,,,,,,,,,,,,,,,,,,,,,,,,,,,,,,,,,,,,,,,,,,,,,,,,,,,,,,,,,,,,,
,,,,,,60dc1397b91eb34c1687d694,62c539e5a9e5fb366c1df9a7,2022-07-06_09h27.34.532,Colour_Asymmetry_Pilot,2022.1.3,Win32,59.73002031,62c50e9c1127f2cd403a315f,0,25,25,159,1,fourthree,,,,,,,,,,,,,,,,,,,,,,,,,,,,,,,,,,,,,,,,,,,,,,,,,,,,,,,,,,,,,,,,,,,,,,,,,,,,,,,,,,,,,,,,,,,,,,,,,,,,,,,,,,,,,,,,,,,,,,,,,,,,,,,,,,,,,,,,,,,,,,,,,,,,,,,,,,,,,
,,,,,,60dc1397b91eb34c1687d694,62c539e5a9e5fb366c1df9a7,2022-07-06_09h27.34.532,Colour_Asymmetry_Pilot,2022.1.3,Win32,59.73002031,62c50e9c1127f2cd403a315f,0,26,26,52,1,threeone,,,,,,,,,,,,,,,,,,,,,,,,,,,,,,,,,,,,,,,,,,,,,,,,,,,,,,,,,,,,,,,,,,,,,,,,,,,,,,,,,,,,,,,,,,,,,,,,,,,,,,,,,,,,,,,,,,,,,,,,,,,,,,,,,,,,,,,,,,,,,,,,,,,,,,,,,,,,,
,,,,,,60dc1397b91eb34c1687d694,62c539e5a9e5fb366c1df9a7,2022-07-06_09h27.34.532,Colour_Asymmetry_Pilot,2022.1.3,Win32,59.73002031,62c50e9c1127f2cd403a315f,0,27,27,42,1,twoone,,,,,,,,,,,,,,,,,,,,,,,,,,,,,,,,,,,,,,,,,,,,,,,,,,,,,,,,,,,,,,,,,,,,,,,,,,,,,,,,,,,,,,,,,,,,,,,,,,,,,,,,,,,,,,,,,,,,,,,,,,,,,,,,,,,,,,,,,,,,,,,,,,,,,,,,,,,,,
,,,,,,60dc1397b91eb34c1687d694,62c539e5a9e5fb366c1df9a7,2022-07-06_09h27.34.532,Colour_Asymmetry_Pilot,2022.1.3,Win32,59.73002031,62c50e9c1127f2cd403a315f,0,28,28,96,1,onetwo,,,,,,,,,,,,,,,,,,,,,,,,,,,,,,,,,,,,,,,,,,,,,,,,,,,,,,,,,,,,,,,,,,,,,,,,,,,,,,,,,,,,,,,,,,,,,,,,,,,,,,,,,,,,,,,,,,,,,,,,,,,,,,,,,,,,,,,,,,,,,,,,,,,,,,,,,,,,,
,,,,,,60dc1397b91eb34c1687d694,62c539e5a9e5fb366c1df9a7,2022-07-06_09h27.34.532,Colour_Asymmetry_Pilot,2022.1.3,Win32,59.73002031,62c50e9c1127f2cd403a315f,0,29,29,121,1,onethree,,,,,,,,,,,,,,,,,,,,,,,,,,,,,,,,,,,,,,,,,,,,,,,,,,,,,,,,,,,,,,,,,,,,,,,,,,,,,,,,,,,,,,,,,,,,,,,,,,,,,,,,,,,,,,,,,,,,,,,,,,,,,,,,,,,,,,,,,,,,,,,,,,,,,,,,,,,,,
,,,,,,60dc1397b91eb34c1687d694,62c539e5a9e5fb366c1df9a7,2022-07-06_09h27.34.532,Colour_Asymmetry_Pilot,2022.1.3,Win32,59.73002031,62c50e9c1127f2cd403a315f,0,30,30,137,1,onethree,,,,,,,,,,,,,,,,,,,,,,,,,,,,,,,,,,,,,,,,,,,,,,,,,,,,,,,,,,,,,,,,,,,,,,,,,,,,,,,,,,,,,,,,,,,,,,,,,,,,,,,,,,,,,,,,,,,,,,,,,,,,,,,,,,,,,,,,,,,,,,,,,,,,,,,,,,,,,
,,,,,,60dc1397b91eb34c1687d694,62c539e5a9e5fb366c1df9a7,2022-07-06_09h27.34.532,Colour_Asymmetry_Pilot,2022.1.3,Win32,59.73002031,62c50e9c1127f2cd403a315f,0,31,31,113,1,onethree,,,,,,,,,,,,,,,,,,,,,,,,,,,,,,,,,,,,,,,,,,,,,,,,,,,,,,,,,,,,,,,,,,,,,,,,,,,,,,,,,,,,,,,,,,,,,,,,,,,,,,,,,,,,,,,,,,,,,,,,,,,,,,,,,,,,,,,,,,,,,,,,,,,,,,,,,,,,,
,,,,,,60dc1397b91eb34c1687d694,62c539e5a9e5fb366c1df9a7,2022-07-06_09h27.34.532,Colour_Asymmetry_Pilot,2022.1.3,Win32,59.73002031,62c50e9c1127f2cd403a315f,0,32,32,81,1,onethree,,,,,,,,,,,,,,,,,,,,,,,,,,,,,,,,,,,,,,,,,,,,,,,,,,,,,,,,,,,,,,,,,,,,,,,,,,,,,,,,,,,,,,,,,,,,,,,,,,,,,,,,,,,,,,,,,,,,,,,,,,,,,,,,,,,,,,,,,,,,,,,,,,,,,,,,,,,,,
,,,,,,60dc1397b91eb34c1687d694,62c539e5a9e5fb366c1df9a7,2022-07-06_09h27.34.532,Colour_Asymmetry_Pilot,2022.1.3,Win32,59.73002031,62c50e9c1127f2cd403a315f,0,33,33,84,1,threeone,,,,,,,,,,,,,,,,,,,,,,,,,,,,,,,,,,,,,,,,,,,,,,,,,,,,,,,,,,,,,,,,,,,,,,,,,,,,,,,,,,,,,,,,,,,,,,,,,,,,,,,,,,,,,,,,,,,,,,,,,,,,,,,,,,,,,,,,,,,,,,,,,,,,,,,,,,,,,
,,,,,,60dc1397b91eb34c1687d694,62c539e5a9e5fb366c1df9a7,2022-07-06_09h27.34.532,Colour_Asymmetry_Pilot,2022.1.3,Win32,59.73002031,62c50e9c1127f2cd403a315f,0,34,34,49,1,onethree,,,,,,,,,,,,,,,,,,,,,,,,,,,,,,,,,,,,,,,,,,,,,,,,,,,,,,,,,,,,,,,,,,,,,,,,,,,,,,,,,,,,,,,,,,,,,,,,,,,,,,,,,,,,,,,,,,,,,,,,,,,,,,,,,,,,,,,,,,,,,,,,,,,,,,,,,,,,,
,,,,,,60dc1397b91eb34c1687d694,62c539e5a9e5fb366c1df9a7,2022-07-06_09h27.34.532,Colour_Asymmetry_Pilot,2022.1.3,Win32,59.73002031,62c50e9c1127f2cd403a315f,0,35,35,117,1,threefour,,,,,,,,,,,,,,,,,,,,,,,,,,,,,,,,,,,,,,,,,,,,,,,,,,,,,,,,,,,,,,,,,,,,,,,,,,,,,,,,,,,,,,,,,,,,,,,,,,,,,,,,,,,,,,,,,,,,,,,,,,,,,,,,,,,,,,,,,,,,,,,,,,,,,,,,,,,,,
,,,,,,60dc1397b91eb34c1687d694,62c539e5a9e5fb366c1df9a7,2022-07-06_09h27.34.532,Colour_Asymmetry_Pilot,2022.1.3,Win32,59.73002031,62c50e9c1127f2cd403a315f,0,36,36,94,1,fourtwo,,,,,,,,,,,,,,,,,,,,,,,,,,,,,,,,,,,,,,,,,,,,,,,,,,,,,,,,,,,,,,,,,,,,,,,,,,,,,,,,,,,,,,,,,,,,,,,,,,,,,,,,,,,,,,,,,,,,,,,,,,,,,,,,,,,,,,,,,,,,,,,,,,,,,,,,,,,,,
,,,,,,60dc1397b91eb34c1687d694,62c539e5a9e5fb366c1df9a7,2022-07-06_09h27.34.532,Colour_Asymmetry_Pilot,2022.1.3,Win32,59.73002031,62c50e9c1127f2cd403a315f,0,37,37,51,1,twofour,,,,,,,,,,,,,,,,,,,,,,,,,,,,,,,,,,,,,,,,,,,,,,,,,,,,,,,,,,,,,,,,,,,,,,,,,,,,,,,,,,,,,,,,,,,,,,,,,,,,,,,,,,,,,,,,,,,,,,,,,,,,,,,,,,,,,,,,,,,,,,,,,,,,,,,,,,,,,
,,,,,,60dc1397b91eb34c1687d694,62c539e5a9e5fb366c1df9a7,2022-07-06_09h27.34.532,Colour_Asymmetry_Pilot,2022.1.3,Win32,59.73002031,62c50e9c1127f2cd403a315f,0,38,38,5,1,threefour,,,,,,,,,,,,,,,,,,,,,,,,,,,,,,,,,,,,,,,,,,,,,,,,,,,,,,,,,,,,,,,,,,,,,,,,,,,,,,,,,,,,,,,,,,,,,,,,,,,,,,,,,,,,,,,,,,,,,,,,,,,,,,,,,,,,,,,,,,,,,,,,,,,,,,,,,,,,,
,,,,,,60dc1397b91eb34c1687d694,62c539e5a9e5fb366c1df9a7,2022-07-06_09h27.34.532,Colour_Asymmetry_Pilot,2022.1.3,Win32,59.73002031,62c50e9c1127f2cd403a315f,0,39,39,28,1,threeone,,,,,,,,,,,,,,,,,,,,,,,,,,,,,,,,,,,,,,,,,,,,,,,,,,,,,,,,,,,,,,,,,,,,,,,,,,,,,,,,,,,,,,,,,,,,,,,,,,,,,,,,,,,,,,,,,,,,,,,,,,,,,,,,,,,,,,,,,,,,,,,,,,,,,,,,,,,,,
,,,,,,60dc1397b91eb34c1687d694,62c539e5a9e5fb366c1df9a7,2022-07-06_09h27.34.532,Colour_Asymmetry_Pilot,2022.1.3,Win32,59.73002031,62c50e9c1127f2cd403a315f,0,40,40,1,1,onethree,,,,,,,,,,,,,,,,,,,,,,,,,,,,,,,,,,,,,,,,,,,,,,,,,,,,,,,,,,,,,,,,,,,,,,,,,,,,,,,,,,,,,,,,,,,,,,,,,,,,,,,,,,,,,,,,,,,,,,,,,,,,,,,,,,,,,,,,,,,,,,,,,,,,,,,,,,,,,
,,,,,,60dc1397b91eb34c1687d694,62c539e5a9e5fb366c1df9a7,2022-07-06_09h27.34.532,Colour_Asymmetry_Pilot,2022.1.3,Win32,59.73002031,62c50e9c1127f2cd403a315f,0,41,41,18,1,twoone,,,,,,,,,,,,,,,,,,,,,,,,,,,,,,,,,,,,,,,,,,,,,,,,,,,,,,,,,,,,,,,,,,,,,,,,,,,,,,,,,,,,,,,,,,,,,,,,,,,,,,,,,,,,,,,,,,,,,,,,,,,,,,,,,,,,,,,,,,,,,,,,,,,,,,,,,,,,,
,,,,,,60dc1397b91eb34c1687d694,62c539e5a9e5fb366c1df9a7,2022-07-06_09h27.34.532,Colour_Asymmetry_Pilot,2022.1.3,Win32,59.73002031,62c50e9c1127f2cd403a315f,0,42,42,118,1,fourtwo,,,,,,,,,,,,,,,,,,,,,,,,,,,,,,,,,,,,,,,,,,,,,,,,,,,,,,,,,,,,,,,,,,,,,,,,,,,,,,,,,,,,,,,,,,,,,,,,,,,,,,,,,,,,,,,,,,,,,,,,,,,,,,,,,,,,,,,,,,,,,,,,,,,,,,,,,,,,,
,,,,,,60dc1397b91eb34c1687d694,62c539e5a9e5fb366c1df9a7,2022-07-06_09h27.34.532,Colour_Asymmetry_Pilot,2022.1.3,Win32,59.73002031,62c50e9c1127f2cd403a315f,0,43,43,61,1,threefour,,,,,,,,,,,,,,,,,,,,,,,,,,,,,,,,,,,,,,,,,,,,,,,,,,,,,,,,,,,,,,,,,,,,,,,,,,,,,,,,,,,,,,,,,,,,,,,,,,,,,,,,,,,,,,,,,,,,,,,,,,,,,,,,,,,,,,,,,,,,,,,,,,,,,,,,,,,,,
,,,,,,60dc1397b91eb34c1687d694,62c539e5a9e5fb366c1df9a7,2022-07-06_09h27.34.532,Colour_Asymmetry_Pilot,2022.1.3,Win32,59.73002031,62c50e9c1127f2cd403a315f,0,44,44,123,1,twofour,,,,,,,,,,,,,,,,,,,,,,,,,,,,,,,,,,,,,,,,,,,,,,,,,,,,,,,,,,,,,,,,,,,,,,,,,,,,,,,,,,,,,,,,,,,,,,,,,,,,,,,,,,,,,,,,,,,,,,,,,,,,,,,,,,,,,,,,,,,,,,,,,,,,,,,,,,,,,
,,,,,,60dc1397b91eb34c1687d694,62c539e5a9e5fb366c1df9a7,2022-07-06_09h27.34.532,Colour_Asymmetry_Pilot,2022.1.3,Win32,59.73002031,62c50e9c1127f2cd403a315f,0,45,45,97,1,onethree,,,,,,,,,,,,,,,,,,,,,,,,,,,,,,,,,,,,,,,,,,,,,,,,,,,,,,,,,,,,,,,,,,,,,,,,,,,,,,,,,,,,,,,,,,,,,,,,,,,,,,,,,,,,,,,,,,,,,,,,,,,,,,,,,,,,,,,,,,,,,,,,,,,,,,,,,,,,,
,,,,,,60dc1397b91eb34c1687d694,62c539e5a9e5fb366c1df9a7,2022-07-06_09h27.34.532,Colour_Asymmetry_Pilot,2022.1.3,Win32,59.73002031,62c50e9c1127f2cd403a315f,0,46,46,19,1,twofour,,,,,,,,,,,,,,,,,,,,,,,,,,,,,,,,,,,,,,,,,,,,,,,,,,,,,,,,,,,,,,,,,,,,,,,,,,,,,,,,,,,,,,,,,,,,,,,,,,,,,,,,,,,,,,,,,,,,,,,,,,,,,,,,,,,,,,,,,,,,,,,,,,,,,,,,,,,,,
,,,,,,60dc1397b91eb34c1687d694,62c539e5a9e5fb366c1df9a7,2022-07-06_09h27.34.532,Colour_Asymmetry_Pilot,2022.1.3,Win32,59.73002031,62c50e9c1127f2cd403a315f,0,47,47,100,1,threeone,,,,,,,,,,,,,,,,,,,,,,,,,,,,,,,,,,,,,,,,,,,,,,,,,,,,,,,,,,,,,,,,,,,,,,,,,,,,,,,,,,,,,,,,,,,,,,,,,,,,,,,,,,,,,,,,,,,,,,,,,,,,,,,,,,,,,,,,,,,,,,,,,,,,,,,,,,,,,
,,,,,,60dc1397b91eb34c1687d694,62c539e5a9e5fb366c1df9a7,2022-07-06_09h27.34.532,Colour_Asymmetry_Pilot,2022.1.3,Win32,59.73002031,62c50e9c1127f2cd403a315f,0,48,48,79,1,fourthree,,,,,,,,,,,,,,,,,,,,,,,,,,,,,,,,,,,,,,,,,,,,,,,,,,,,,,,,,,,,,,,,,,,,,,,,,,,,,,,,,,,,,,,,,,,,,,,,,,,,,,,,,,,,,,,,,,,,,,,,,,,,,,,,,,,,,,,,,,,,,,,,,,,,,,,,,,,,,
,,,,,,60dc1397b91eb34c1687d694,62c539e5a9e5fb366c1df9a7,2022-07-06_09h27.34.532,Colour_Asymmetry_Pilot,2022.1.3,Win32,59.73002031,62c50e9c1127f2cd403a315f,0,49,49,17,1,onethree,,,,,,,,,,,,,,,,,,,,,,,,,,,,,,,,,,,,,,,,,,,,,,,,,,,,,,,,,,,,,,,,,,,,,,,,,,,,,,,,,,,,,,,,,,,,,,,,,,,,,,,,,,,,,,,,,,,,,,,,,,,,,,,,,,,,,,,,,,,,,,,,,,,,,,,,,,,,,
,,,,,,60dc1397b91eb34c1687d694,62c539e5a9e5fb366c1df9a7,2022-07-06_09h27.34.532,Colour_Asymmetry_Pilot,2022.1.3,Win32,59.73002031,62c50e9c1127f2cd403a315f,0,50,50,53,1,threefour,,,,,,,,,,,,,,,,,,,,,,,,,,,,,,,,,,,,,,,,,,,,,,,,,,,,,,,,,,,,,,,,,,,,,,,,,,,,,,,,,,,,,,,,,,,,,,,,,,,,,,,,,,,,,,,,,,,,,,,,,,,,,,,,,,,,,,,,,,,,,,,,,,,,,,,,,,,,,
,,,,,,60dc1397b91eb34c1687d694,62c539e5a9e5fb366c1df9a7,2022-07-06_09h27.34.532,Colour_Asymmetry_Pilot,2022.1.3,Win32,59.73002031,62c50e9c1127f2cd403a315f,0,51,51,133,1,threefour,,,,,,,,,,,,,,,,,,,,,,,,,,,,,,,,,,,,,,,,,,,,,,,,,,,,,,,,,,,,,,,,,,,,,,,,,,,,,,,,,,,,,,,,,,,,,,,,,,,,,,,,,,,,,,,,,,,,,,,,,,,,,,,,,,,,,,,,,,,,,,,,,,,,,,,,,,,,,
,,,,,,60dc1397b91eb34c1687d694,62c539e5a9e5fb366c1df9a7,2022-07-06_09h27.34.532,Colour_Asymmetry_Pilot,2022.1.3,Win32,59.73002031,62c50e9c1127f2cd403a315f,0,52,52,148,1,threeone,,,,,,,,,,,,,,,,,,,,,,,,,,,,,,,,,,,,,,,,,,,,,,,,,,,,,,,,,,,,,,,,,,,,,,,,,,,,,,,,,,,,,,,,,,,,,,,,,,,,,,,,,,,,,,,,,,,,,,,,,,,,,,,,,,,,,,,,,,,,,,,,,,,,,,,,,,,,,
,,,,,,60dc1397b91eb34c1687d694,62c539e5a9e5fb366c1df9a7,2022-07-06_09h27.34.532,Colour_Asymmetry_Pilot,2022.1.3,Win32,59.73002031,62c50e9c1127f2cd403a315f,0,53,53,26,1,twoone,,,,,,,,,,,,,,,,,,,,,,,,,,,,,,,,,,,,,,,,,,,,,,,,,,,,,,,,,,,,,,,,,,,,,,,,,,,,,,,,,,,,,,,,,,,,,,,,,,,,,,,,,,,,,,,,,,,,,,,,,,,,,,,,,,,,,,,,,,,,,,,,,,,,,,,,,,,,,
,,,,,,60dc1397b91eb34c1687d694,62c539e5a9e5fb366c1df9a7,2022-07-06_09h27.34.532,Colour_Asymmetry_Pilot,2022.1.3,Win32,59.73002031,62c50e9c1127f2cd403a315f,0,54,54,149,1,threefour,,,,,,,,,,,,,,,,,,,,,,,,,,,,,,,,,,,,,,,,,,,,,,,,,,,,,,,,,,,,,,,,,,,,,,,,,,,,,,,,,,,,,,,,,,,,,,,,,,,,,,,,,,,,,,,,,,,,,,,,,,,,,,,,,,,,,,,,,,,,,,,,,,,,,,,,,,,,,
,,,,,,60dc1397b91eb34c1687d694,62c539e5a9e5fb366c1df9a7,2022-07-06_09h27.34.532,Colour_Asymmetry_Pilot,2022.1.3,Win32,59.73002031,62c50e9c1127f2cd403a315f,0,55,55,82,1,twoone,,,,,,,,,,,,,,,,,,,,,,,,,,,,,,,,,,,,,,,,,,,,,,,,,,,,,,,,,,,,,,,,,,,,,,,,,,,,,,,,,,,,,,,,,,,,,,,,,,,,,,,,,,,,,,,,,,,,,,,,,,,,,,,,,,,,,,,,,,,,,,,,,,,,,,,,,,,,,
,,,,,,60dc1397b91eb34c1687d694,62c539e5a9e5fb366c1df9a7,2022-07-06_09h27.34.532,Colour_Asymmetry_Pilot,2022.1.3,Win32,59.73002031,62c50e9c1127f2cd403a315f,0,56,56,7,1,fourthree,,,,,,,,,,,,,,,,,,,,,,,,,,,,,,,,,,,,,,,,,,,,,,,,,,,,,,,,,,,,,,,,,,,,,,,,,,,,,,,,,,,,,,,,,,,,,,,,,,,,,,,,,,,,,,,,,,,,,,,,,,,,,,,,,,,,,,,,,,,,,,,,,,,,,,,,,,,,,
,,,,,,60dc1397b91eb34c1687d694,62c539e5a9e5fb366c1df9a7,2022-07-06_09h27.34.532,Colour_Asymmetry_Pilot,2022.1.3,Win32,59.73002031,62c50e9c1127f2cd403a315f,0,57,57,57,1,onethree,,,,,,,,,,,,,,,,,,,,,,,,,,,,,,,,,,,,,,,,,,,,,,,,,,,,,,,,,,,,,,,,,,,,,,,,,,,,,,,,,,,,,,,,,,,,,,,,,,,,,,,,,,,,,,,,,,,,,,,,,,,,,,,,,,,,,,,,,,,,,,,,,,,,,,,,,,,,,
,,,,,,60dc1397b91eb34c1687d694,62c539e5a9e5fb366c1df9a7,2022-07-06_09h27.34.532,Colour_Asymmetry_Pilot,2022.1.3,Win32,59.73002031,62c50e9c1127f2cd403a315f,0,58,58,95,1,fourthree,,,,,,,,,,,,,,,,,,,,,,,,,,,,,,,,,,,,,,,,,,,,,,,,,,,,,,,,,,,,,,,,,,,,,,,,,,,,,,,,,,,,,,,,,,,,,,,,,,,,,,,,,,,,,,,,,,,,,,,,,,,,,,,,,,,,,,,,,,,,,,,,,,,,,,,,,,,,,
,,,,,,60dc1397b91eb34c1687d694,62c539e5a9e5fb366c1df9a7,2022-07-06_09h27.34.532,Colour_Asymmetry_Pilot,2022.1.3,Win32,59.73002031,62c50e9c1127f2cd403a315f,0,59,59,74,1,twoone,,,,,,,,,,,,,,,,,,,,,,,,,,,,,,,,,,,,,,,,,,,,,,,,,,,,,,,,,,,,,,,,,,,,,,,,,,,,,,,,,,,,,,,,,,,,,,,,,,,,,,,,,,,,,,,,,,,,,,,,,,,,,,,,,,,,,,,,,,,,,,,,,,,,,,,,,,,,,
,,,,,,60dc1397b91eb34c1687d694,62c539e5a9e5fb366c1df9a7,2022-07-06_09h27.34.532,Colour_Asymmetry_Pilot,2022.1.3,Win32,59.73002031,62c50e9c1127f2cd403a315f,0,60,60,47,1,fourthree,,,,,,,,,,,,,,,,,,,,,,,,,,,,,,,,,,,,,,,,,,,,,,,,,,,,,,,,,,,,,,,,,,,,,,,,,,,,,,,,,,,,,,,,,,,,,,,,,,,,,,,,,,,,,,,,,,,,,,,,,,,,,,,,,,,,,,,,,,,,,,,,,,,,,,,,,,,,,
,,,,,,60dc1397b91eb34c1687d694,62c539e5a9e5fb366c1df9a7,2022-07-06_09h27.34.532,Colour_Asymmetry_Pilot,2022.1.3,Win32,59.73002031,62c50e9c1127f2cd403a315f,0,61,61,15,1,fourthree,,,,,,,,,,,,,,,,,,,,,,,,,,,,,,,,,,,,,,,,,,,,,,,,,,,,,,,,,,,,,,,,,,,,,,,,,,,,,,,,,,,,,,,,,,,,,,,,,,,,,,,,,,,,,,,,,,,,,,,,,,,,,,,,,,,,,,,,,,,,,,,,,,,,,,,,,,,,,
,,,,,,60dc1397b91eb34c1687d694,62c539e5a9e5fb366c1df9a7,2022-07-06_09h27.34.532,Colour_Asymmetry_Pilot,2022.1.3,Win32,59.73002031,62c50e9c1127f2cd403a315f,0,62,62,131,1,twofour,,,,,,,,,,,,,,,,,,,,,,,,,,,,,,,,,,,,,,,,,,,,,,,,,,,,,,,,,,,,,,,,,,,,,,,,,,,,,,,,,,,,,,,,,,,,,,,,,,,,,,,,,,,,,,,,,,,,,,,,,,,,,,,,,,,,,,,,,,,,,,,,,,,,,,,,,,,,,
,,,,,,60dc1397b91eb34c1687d694,62c539e5a9e5fb366c1df9a7,2022-07-06_09h27.34.532,Colour_Asymmetry_Pilot,2022.1.3,Win32,59.73002031,62c50e9c1127f2cd403a315f,0,63,63,146,1,twoone,,,,,,,,,,,,,,,,,,,,,,,,,,,,,,,,,,,,,,,,,,,,,,,,,,,,,,,,,,,,,,,,,,,,,,,,,,,,,,,,,,,,,,,,,,,,,,,,,,,,,,,,,,,,,,,,,,,,,,,,,,,,,,,,,,,,,,,,,,,,,,,,,,,,,,,,,,,,,
,,,,,,60dc1397b91eb34c1687d694,62c539e5a9e5fb366c1df9a7,2022-07-06_09h27.34.532,Colour_Asymmetry_Pilot,2022.1.3,Win32,59.73002031,62c50e9c1127f2cd403a315f,0,64,64,142,1,fourtwo,,,,,,,,,,,,,,,,,,,,,,,,,,,,,,,,,,,,,,,,,,,,,,,,,,,,,,,,,,,,,,,,,,,,,,,,,,,,,,,,,,,,,,,,,,,,,,,,,,,,,,,,,,,,,,,,,,,,,,,,,,,,,,,,,,,,,,,,,,,,,,,,,,,,,,,,,,,,,
,,,,,,60dc1397b91eb34c1687d694,62c539e5a9e5fb366c1df9a7,2022-07-06_09h27.34.532,Colour_Asymmetry_Pilot,2022.1.3,Win32,59.73002031,62c50e9c1127f2cd403a315f,0,65,65,10,1,twoone,,,,,,,,,,,,,,,,,,,,,,,,,,,,,,,,,,,,,,,,,,,,,,,,,,,,,,,,,,,,,,,,,,,,,,,,,,,,,,,,,,,,,,,,,,,,,,,,,,,,,,,,,,,,,,,,,,,,,,,,,,,,,,,,,,,,,,,,,,,,,,,,,,,,,,,,,,,,,
,,,,,,60dc1397b91eb34c1687d694,62c539e5a9e5fb366c1df9a7,2022-07-06_09h27.34.532,Colour_Asymmetry_Pilot,2022.1.3,Win32,59.73002031,62c50e9c1127f2cd403a315f,0,66,66,54,1,fourtwo,,,,,,,,,,,,,,,,,,,,,,,,,,,,,,,,,,,,,,,,,,,,,,,,,,,,,,,,,,,,,,,,,,,,,,,,,,,,,,,,,,,,,,,,,,,,,,,,,,,,,,,,,,,,,,,,,,,,,,,,,,,,,,,,,,,,,,,,,,,,,,,,,,,,,,,,,,,,,
,,,,,,60dc1397b91eb34c1687d694,62c539e5a9e5fb366c1df9a7,2022-07-06_09h27.34.532,Colour_Asymmetry_Pilot,2022.1.3,Win32,59.73002031,62c50e9c1127f2cd403a315f,0,67,67,6,1,fourtwo,,,,,,,,,,,,,,,,,,,,,,,,,,,,,,,,,,,,,,,,,,,,,,,,,,,,,,,,,,,,,,,,,,,,,,,,,,,,,,,,,,,,,,,,,,,,,,,,,,,,,,,,,,,,,,,,,,,,,,,,,,,,,,,,,,,,,,,,,,,,,,,,,,,,,,,,,,,,,
,,,,,,60dc1397b91eb34c1687d694,62c539e5a9e5fb366c1df9a7,2022-07-06_09h27.34.532,Colour_Asymmetry_Pilot,2022.1.3,Win32,59.73002031,62c50e9c1127f2cd403a315f,0,68,68,58,1,twoone,,,,,,,,,,,,,,,,,,,,,,,,,,,,,,,,,,,,,,,,,,,,,,,,,,,,,,,,,,,,,,,,,,,,,,,,,,,,,,,,,,,,,,,,,,,,,,,,,,,,,,,,,,,,,,,,,,,,,,,,,,,,,,,,,,,,,,,,,,,,,,,,,,,,,,,,,,,,,
,,,,,,60dc1397b91eb34c1687d694,62c539e5a9e5fb366c1df9a7,2022-07-06_09h27.34.532,Colour_Asymmetry_Pilot,2022.1.3,Win32,59.73002031,62c50e9c1127f2cd403a315f,0,69,69,136,1,onetwo,,,,,,,,,,,,,,,,,,,,,,,,,,,,,,,,,,,,,,,,,,,,,,,,,,,,,,,,,,,,,,,,,,,,,,,,,,,,,,,,,,,,,,,,,,,,,,,,,,,,,,,,,,,,,,,,,,,,,,,,,,,,,,,,,,,,,,,,,,,,,,,,,,,,,,,,,,,,,
,,,,,,60dc1397b91eb34c1687d694,62c539e5a9e5fb366c1df9a7,2022-07-06_09h27.34.532,Colour_Asymmetry_Pilot,2022.1.3,Win32,59.73002031,62c50e9c1127f2cd403a315f,0,70,70,139,1,twofour,,,,,,,,,,,,,,,,,,,,,,,,,,,,,,,,,,,,,,,,,,,,,,,,,,,,,,,,,,,,,,,,,,,,,,,,,,,,,,,,,,,,,,,,,,,,,,,,,,,,,,,,,,,,,,,,,,,,,,,,,,,,,,,,,,,,,,,,,,,,,,,,,,,,,,,,,,,,,
,,,,,,60dc1397b91eb34c1687d694,62c539e5a9e5fb366c1df9a7,2022-07-06_09h27.34.532,Colour_Asymmetry_Pilot,2022.1.3,Win32,59.73002031,62c50e9c1127f2cd403a315f,0,71,71,116,1,threeone,,,,,,,,,,,,,,,,,,,,,,,,,,,,,,,,,,,,,,,,,,,,,,,,,,,,,,,,,,,,,,,,,,,,,,,,,,,,,,,,,,,,,,,,,,,,,,,,,,,,,,,,,,,,,,,,,,,,,,,,,,,,,,,,,,,,,,,,,,,,,,,,,,,,,,,,,,,,,
,,,,,,60dc1397b91eb34c1687d694,62c539e5a9e5fb366c1df9a7,2022-07-06_09h27.34.532,Colour_Asymmetry_Pilot,2022.1.3,Win32,59.73002031,62c50e9c1127f2cd403a315f,0,72,72,8,1,onetwo,,,,,,,,,,,,,,,,,,,,,,,,,,,,,,,,,,,,,,,,,,,,,,,,,,,,,,,,,,,,,,,,,,,,,,,,,,,,,,,,,,,,,,,,,,,,,,,,,,,,,,,,,,,,,,,,,,,,,,,,,,,,,,,,,,,,,,,,,,,,,,,,,,,,,,,,,,,,,
,,,,,,60dc1397b91eb34c1687d694,62c539e5a9e5fb366c1df9a7,2022-07-06_09h27.34.532,Colour_Asymmetry_Pilot,2022.1.3,Win32,59.73002031,62c50e9c1127f2cd403a315f,0,73,73,2,1,twoone,,,,,,,,,,,,,,,,,,,,,,,,,,,,,,,,,,,,,,,,,,,,,,,,,,,,,,,,,,,,,,,,,,,,,,,,,,,,,,,,,,,,,,,,,,,,,,,,,,,,,,,,,,,,,,,,,,,,,,,,,,,,,,,,,,,,,,,,,,,,,,,,,,,,,,,,,,,,,
,,,,,,60dc1397b91eb34c1687d694,62c539e5a9e5fb366c1df9a7,2022-07-06_09h27.34.532,Colour_Asymmetry_Pilot,2022.1.3,Win32,59.73002031,62c50e9c1127f2cd403a315f,0,74,74,110,1,fourtwo,,,,,,,,,,,,,,,,,,,,,,,,,,,,,,,,,,,,,,,,,,,,,,,,,,,,,,,,,,,,,,,,,,,,,,,,,,,,,,,,,,,,,,,,,,,,,,,,,,,,,,,,,,,,,,,,,,,,,,,,,,,,,,,,,,,,,,,,,,,,,,,,,,,,,,,,,,,,,
,,,,,,60dc1397b91eb34c1687d694,62c539e5a9e5fb366c1df9a7,2022-07-06_09h27.34.532,Colour_Asymmetry_Pilot,2022.1.3,Win32,59.73002031,62c50e9c1127f2cd403a315f,0,75,75,85,1,threefour,,,,,,,,,,,,,,,,,,,,,,,,,,,,,,,,,,,,,,,,,,,,,,,,,,,,,,,,,,,,,,,,,,,,,,,,,,,,,,,,,,,,,,,,,,,,,,,,,,,,,,,,,,,,,,,,,,,,,,,,,,,,,,,,,,,,,,,,,,,,,,,,,,,,,,,,,,,,,
,,,,,,60dc1397b91eb34c1687d694,62c539e5a9e5fb366c1df9a7,2022-07-06_09h27.34.532,Colour_Asymmetry_Pilot,2022.1.3,Win32,59.73002031,62c50e9c1127f2cd403a315f,0,76,76,114,1,twoone,,,,,,,,,,,,,,,,,,,,,,,,,,,,,,,,,,,,,,,,,,,,,,,,,,,,,,,,,,,,,,,,,,,,,,,,,,,,,,,,,,,,,,,,,,,,,,,,,,,,,,,,,,,,,,,,,,,,,,,,,,,,,,,,,,,,,,,,,,,,,,,,,,,,,,,,,,,,,
,,,,,,60dc1397b91eb34c1687d694,62c539e5a9e5fb366c1df9a7,2022-07-06_09h27.34.532,Colour_Asymmetry_Pilot,2022.1.3,Win32,59.73002031,62c50e9c1127f2cd403a315f,0,77,77,134,1,fourtwo,,,,,,,,,,,,,,,,,,,,,,,,,,,,,,,,,,,,,,,,,,,,,,,,,,,,,,,,,,,,,,,,,,,,,,,,,,,,,,,,,,,,,,,,,,,,,,,,,,,,,,,,,,,,,,,,,,,,,,,,,,,,,,,,,,,,,,,,,,,,,,,,,,,,,,,,,,,,,
,,,,,,60dc1397b91eb34c1687d694,62c539e5a9e5fb366c1df9a7,2022-07-06_09h27.34.532,Colour_Asymmetry_Pilot,2022.1.3,Win32,59.73002031,62c50e9c1127f2cd403a315f,0,78,78,34,1,twoone,,,,,,,,,,,,,,,,,,,,,,,,,,,,,,,,,,,,,,,,,,,,,,,,,,,,,,,,,,,,,,,,,,,,,,,,,,,,,,,,,,,,,,,,,,,,,,,,,,,,,,,,,,,,,,,,,,,,,,,,,,,,,,,,,,,,,,,,,,,,,,,,,,,,,,,,,,,,,
,,,,,,60dc1397b91eb34c1687d694,62c539e5a9e5fb366c1df9a7,2022-07-06_09h27.34.532,Colour_Asymmetry_Pilot,2022.1.3,Win32,59.73002031,62c50e9c1127f2cd403a315f,0,79,79,71,1,fourthree,,,,,,,,,,,,,,,,,,,,,,,,,,,,,,,,,,,,,,,,,,,,,,,,,,,,,,,,,,,,,,,,,,,,,,,,,,,,,,,,,,,,,,,,,,,,,,,,,,,,,,,,,,,,,,,,,,,,,,,,,,,,,,,,,,,,,,,,,,,,,,,,,,,,,,,,,,,,,
,,,,,,60dc1397b91eb34c1687d694,62c539e5a9e5fb366c1df9a7,2022-07-06_09h27.34.532,Colour_Asymmetry_Pilot,2022.1.3,Win32,59.73002031,62c50e9c1127f2cd403a315f,0,80,80,23,1,fourthree,,,,,,,,,,,,,,,,,,,,,,,,,,,,,,,,,,,,,,,,,,,,,,,,,,,,,,,,,,,,,,,,,,,,,,,,,,,,,,,,,,,,,,,,,,,,,,,,,,,,,,,,,,,,,,,,,,,,,,,,,,,,,,,,,,,,,,,,,,,,,,,,,,,,,,,,,,,,,
,,,,,,60dc1397b91eb34c1687d694,62c539e5a9e5fb366c1df9a7,2022-07-06_09h27.34.532,Colour_Asymmetry_Pilot,2022.1.3,Win32,59.73002031,62c50e9c1127f2cd403a315f,0,81,81,87,1,fourthree,,,,,,,,,,,,,,,,,,,,,,,,,,,,,,,,,,,,,,,,,,,,,,,,,,,,,,,,,,,,,,,,,,,,,,,,,,,,,,,,,,,,,,,,,,,,,,,,,,,,,,,,,,,,,,,,,,,,,,,,,,,,,,,,,,,,,,,,,,,,,,,,,,,,,,,,,,,,,
,,,,,,60dc1397b91eb34c1687d694,62c539e5a9e5fb366c1df9a7,2022-07-06_09h27.34.532,Colour_Asymmetry_Pilot,2022.1.3,Win32,59.73002031,62c50e9c1127f2cd403a315f,0,82,82,32,1,onetwo,,,,,,,,,,,,,,,,,,,,,,,,,,,,,,,,,,,,,,,,,,,,,,,,,,,,,,,,,,,,,,,,,,,,,,,,,,,,,,,,,,,,,,,,,,,,,,,,,,,,,,,,,,,,,,,,,,,,,,,,,,,,,,,,,,,,,,,,,,,,,,,,,,,,,,,,,,,,,
,,,,,,60dc1397b91eb34c1687d694,62c539e5a9e5fb366c1df9a7,2022-07-06_09h27.34.532,Colour_Asymmetry_Pilot,2022.1.3,Win32,59.73002031,62c50e9c1127f2cd403a315f,0,83,83,38,1,fourtwo,,,,,,,,,,,,,,,,,,,,,,,,,,,,,,,,,,,,,,,,,,,,,,,,,,,,,,,,,,,,,,,,,,,,,,,,,,,,,,,,,,,,,,,,,,,,,,,,,,,,,,,,,,,,,,,,,,,,,,,,,,,,,,,,,,,,,,,,,,,,,,,,,,,,,,,,,,,,,
,,,,,,60dc1397b91eb34c1687d694,62c539e5a9e5fb366c1df9a7,2022-07-06_09h27.34.532,Colour_Asymmetry_Pilot,2022.1.3,Win32,59.73002031,62c50e9c1127f2cd403a315f,0,84,84,37,1,threefour,,,,,,,,,,,,,,,,,,,,,,,,,,,,,,,,,,,,,,,,,,,,,,,,,,,,,,,,,,,,,,,,,,,,,,,,,,,,,,,,,,,,,,,,,,,,,,,,,,,,,,,,,,,,,,,,,,,,,,,,,,,,,,,,,,,,,,,,,,,,,,,,,,,,,,,,,,,,,
,,,,,,60dc1397b91eb34c1687d694,62c539e5a9e5fb366c1df9a7,2022-07-06_09h27.34.532,Colour_Asymmetry_Pilot,2022.1.3,Win32,59.73002031,62c50e9c1127f2cd403a315f,0,85,85,145,1,onethree,,,,,,,,,,,,,,,,,,,,,,,,,,,,,,,,,,,,,,,,,,,,,,,,,,,,,,,,,,,,,,,,,,,,,,,,,,,,,,,,,,,,,,,,,,,,,,,,,,,,,,,,,,,,,,,,,,,,,,,,,,,,,,,,,,,,,,,,,,,,,,,,,,,,,,,,,,,,,
,,,,,,60dc1397b91eb34c1687d694,62c539e5a9e5fb366c1df9a7,2022-07-06_09h27.34.532,Colour_Asymmetry_Pilot,2022.1.3,Win32,59.73002031,62c50e9c1127f2cd403a315f,0,86,86,102,1,fourtwo,,,,,,,,,,,,,,,,,,,,,,,,,,,,,,,,,,,,,,,,,,,,,,,,,,,,,,,,,,,,,,,,,,,,,,,,,,,,,,,,,,,,,,,,,,,,,,,,,,,,,,,,,,,,,,,,,,,,,,,,,,,,,,,,,,,,,,,,,,,,,,,,,,,,,,,,,,,,,
,,,,,,60dc1397b91eb34c1687d694,62c539e5a9e5fb366c1df9a7,2022-07-06_09h27.34.532,Colour_Asymmetry_Pilot,2022.1.3,Win32,59.73002031,62c50e9c1127f2cd403a315f,0,87,87,99,1,twofour,,,,,,,,,,,,,,,,,,,,,,,,,,,,,,,,,,,,,,,,,,,,,,,,,,,,,,,,,,,,,,,,,,,,,,,,,,,,,,,,,,,,,,,,,,,,,,,,,,,,,,,,,,,,,,,,,,,,,,,,,,,,,,,,,,,,,,,,,,,,,,,,,,,,,,,,,,,,,
,,,,,,60dc1397b91eb34c1687d694,62c539e5a9e5fb366c1df9a7,2022-07-06_09h27.34.532,Colour_Asymmetry_Pilot,2022.1.3,Win32,59.73002031,62c50e9c1127f2cd403a315f,0,88,88,141,1,threefour,,,,,,,,,,,,,,,,,,,,,,,,,,,,,,,,,,,,,,,,,,,,,,,,,,,,,,,,,,,,,,,,,,,,,,,,,,,,,,,,,,,,,,,,,,,,,,,,,,,,,,,,,,,,,,,,,,,,,,,,,,,,,,,,,,,,,,,,,,,,,,,,,,,,,,,,,,,,,
,,,,,,60dc1397b91eb34c1687d694,62c539e5a9e5fb366c1df9a7,2022-07-06_09h27.34.532,Colour_Asymmetry_Pilot,2022.1.3,Win32,59.73002031,62c50e9c1127f2cd403a315f,0,89,89,92,1,threeone,,,,,,,,,,,,,,,,,,,,,,,,,,,,,,,,,,,,,,,,,,,,,,,,,,,,,,,,,,,,,,,,,,,,,,,,,,,,,,,,,,,,,,,,,,,,,,,,,,,,,,,,,,,,,,,,,,,,,,,,,,,,,,,,,,,,,,,,,,,,,,,,,,,,,,,,,,,,,
,,,,,,60dc1397b91eb34c1687d694,62c539e5a9e5fb366c1df9a7,2022-07-06_09h27.34.532,Colour_Asymmetry_Pilot,2022.1.3,Win32,59.73002031,62c50e9c1127f2cd403a315f,0,90,90,30,1,fourtwo,,,,,,,,,,,,,,,,,,,,,,,,,,,,,,,,,,,,,,,,,,,,,,,,,,,,,,,,,,,,,,,,,,,,,,,,,,,,,,,,,,,,,,,,,,,,,,,,,,,,,,,,,,,,,,,,,,,,,,,,,,,,,,,,,,,,,,,,,,,,,,,,,,,,,,,,,,,,,
,,,,,,60dc1397b91eb34c1687d694,62c539e5a9e5fb366c1df9a7,2022-07-06_09h27.34.532,Colour_Asymmetry_Pilot,2022.1.3,Win32,59.73002031,62c50e9c1127f2cd403a315f,0,91,91,70,1,fourtwo,,,,,,,,,,,,,,,,,,,,,,,,,,,,,,,,,,,,,,,,,,,,,,,,,,,,,,,,,,,,,,,,,,,,,,,,,,,,,,,,,,,,,,,,,,,,,,,,,,,,,,,,,,,,,,,,,,,,,,,,,,,,,,,,,,,,,,,,,,,,,,,,,,,,,,,,,,,,,
,,,,,,60dc1397b91eb34c1687d694,62c539e5a9e5fb366c1df9a7,2022-07-06_09h27.34.532,Colour_Asymmetry_Pilot,2022.1.3,Win32,59.73002031,62c50e9c1127f2cd403a315f,0,92,92,144,1,onetwo,,,,,,,,,,,,,,,,,,,,,,,,,,,,,,,,,,,,,,,,,,,,,,,,,,,,,,,,,,,,,,,,,,,,,,,,,,,,,,,,,,,,,,,,,,,,,,,,,,,,,,,,,,,,,,,,,,,,,,,,,,,,,,,,,,,,,,,,,,,,,,,,,,,,,,,,,,,,,
,,,,,,60dc1397b91eb34c1687d694,62c539e5a9e5fb366c1df9a7,2022-07-06_09h27.34.532,Colour_Asymmetry_Pilot,2022.1.3,Win32,59.73002031,62c50e9c1127f2cd403a315f,0,93,93,66,1,twoone,,,,,,,,,,,,,,,,,,,,,,,,,,,,,,,,,,,,,,,,,,,,,,,,,,,,,,,,,,,,,,,,,,,,,,,,,,,,,,,,,,,,,,,,,,,,,,,,,,,,,,,,,,,,,,,,,,,,,,,,,,,,,,,,,,,,,,,,,,,,,,,,,,,,,,,,,,,,,
,,,,,,60dc1397b91eb34c1687d694,62c539e5a9e5fb366c1df9a7,2022-07-06_09h27.34.532,Colour_Asymmetry_Pilot,2022.1.3,Win32,59.73002031,62c50e9c1127f2cd403a315f,0,94,94,157,1,threefour,,,,,,,,,,,,,,,,,,,,,,,,,,,,,,,,,,,,,,,,,,,,,,,,,,,,,,,,,,,,,,,,,,,,,,,,,,,,,,,,,,,,,,,,,,,,,,,,,,,,,,,,,,,,,,,,,,,,,,,,,,,,,,,,,,,,,,,,,,,,,,,,,,,,,,,,,,,,,
,,,,,,60dc1397b91eb34c1687d694,62c539e5a9e5fb366c1df9a7,2022-07-06_09h27.34.532,Colour_Asymmetry_Pilot,2022.1.3,Win32,59.73002031,62c50e9c1127f2cd403a315f,0,95,95,106,1,twoone,,,,,,,,,,,,,,,,,,,,,,,,,,,,,,,,,,,,,,,,,,,,,,,,,,,,,,,,,,,,,,,,,,,,,,,,,,,,,,,,,,,,,,,,,,,,,,,,,,,,,,,,,,,,,,,,,,,,,,,,,,,,,,,,,,,,,,,,,,,,,,,,,,,,,,,,,,,,,
,,,,,,60dc1397b91eb34c1687d694,62c539e5a9e5fb366c1df9a7,2022-07-06_09h27.34.532,Colour_Asymmetry_Pilot,2022.1.3,Win32,59.73002031,62c50e9c1127f2cd403a315f,0,96,96,130,1,twoone,,,,,,,,,,,,,,,,,,,,,,,,,,,,,,,,,,,,,,,,,,,,,,,,,,,,,,,,,,,,,,,,,,,,,,,,,,,,,,,,,,,,,,,,,,,,,,,,,,,,,,,,,,,,,,,,,,,,,,,,,,,,,,,,,,,,,,,,,,,,,,,,,,,,,,,,,,,,,
,,,,,,60dc1397b91eb34c1687d694,62c539e5a9e5fb366c1df9a7,2022-07-06_09h27.34.532,Colour_Asymmetry_Pilot,2022.1.3,Win32,59.73002031,62c50e9c1127f2cd403a315f,0,97,97,135,1,fourthree,,,,,,,,,,,,,,,,,,,,,,,,,,,,,,,,,,,,,,,,,,,,,,,,,,,,,,,,,,,,,,,,,,,,,,,,,,,,,,,,,,,,,,,,,,,,,,,,,,,,,,,,,,,,,,,,,,,,,,,,,,,,,,,,,,,,,,,,,,,,,,,,,,,,,,,,,,,,,
,,,,,,60dc1397b91eb34c1687d694,62c539e5a9e5fb366c1df9a7,2022-07-06_09h27.34.532,Colour_Asymmetry_Pilot,2022.1.3,Win32,59.73002031,62c50e9c1127f2cd403a315f,0,98,98,62,1,fourtwo,,,,,,,,,,,,,,,,,,,,,,,,,,,,,,,,,,,,,,,,,,,,,,,,,,,,,,,,,,,,,,,,,,,,,,,,,,,,,,,,,,,,,,,,,,,,,,,,,,,,,,,,,,,,,,,,,,,,,,,,,,,,,,,,,,,,,,,,,,,,,,,,,,,,,,,,,,,,,
,,,,,,60dc1397b91eb34c1687d694,62c539e5a9e5fb366c1df9a7,2022-07-06_09h27.34.532,Colour_Asymmetry_Pilot,2022.1.3,Win32,59.73002031,62c50e9c1127f2cd403a315f,0,99,99,13,1,threefour,,,,,,,,,,,,,,,,,,,,,,,,,,,,,,,,,,,,,,,,,,,,,,,,,,,,,,,,,,,,,,,,,,,,,,,,,,,,,,,,,,,,,,,,,,,,,,,,,,,,,,,,,,,,,,,,,,,,,,,,,,,,,,,,,,,,,,,,,,,,,,,,,,,,,,,,,,,,,
,,,,,,60dc1397b91eb34c1687d694,62c539e5a9e5fb366c1df9a7,2022-07-06_09h27.34.532,Colour_Asymmetry_Pilot,2022.1.3,Win32,59.73002031,62c50e9c1127f2cd403a315f,0,100,100,105,1,onethree,,,,,,,,,,,,,,,,,,,,,,,,,,,,,,,,,,,,,,,,,,,,,,,,,,,,,,,,,,,,,,,,,,,,,,,,,,,,,,,,,,,,,,,,,,,,,,,,,,,,,,,,,,,,,,,,,,,,,,,,,,,,,,,,,,,,,,,,,,,,,,,,,,,,,,,,,,,,,
,,,,,,60dc1397b91eb34c1687d694,62c539e5a9e5fb366c1df9a7,2022-07-06_09h27.34.532,Colour_Asymmetry_Pilot,2022.1.3,Win32,59.73002031,62c50e9c1127f2cd403a315f,0,101,101,153,1,onethree,,,,,,,,,,,,,,,,,,,,,,,,,,,,,,,,,,,,,,,,,,,,,,,,,,,,,,,,,,,,,,,,,,,,,,,,,,,,,,,,,,,,,,,,,,,,,,,,,,,,,,,,,,,,,,,,,,,,,,,,,,,,,,,,,,,,,,,,,,,,,,,,,,,,,,,,,,,,,
,,,,,,60dc1397b91eb34c1687d694,62c539e5a9e5fb366c1df9a7,2022-07-06_09h27.34.532,Colour_Asymmetry_Pilot,2022.1.3,Win32,59.73002031,62c50e9c1127f2cd403a315f,0,102,102,3,1,twofour,,,,,,,,,,,,,,,,,,,,,,,,,,,,,,,,,,,,,,,,,,,,,,,,,,,,,,,,,,,,,,,,,,,,,,,,,,,,,,,,,,,,,,,,,,,,,,,,,,,,,,,,,,,,,,,,,,,,,,,,,,,,,,,,,,,,,,,,,,,,,,,,,,,,,,,,,,,,,
,,,,,,60dc1397b91eb34c1687d694,62c539e5a9e5fb366c1df9a7,2022-07-06_09h27.34.532,Colour_Asymmetry_Pilot,2022.1.3,Win32,59.73002031,62c50e9c1127f2cd403a315f,0,103,103,124,1,threeone,,,,,,,,,,,,,,,,,,,,,,,,,,,,,,,,,,,,,,,,,,,,,,,,,,,,,,,,,,,,,,,,,,,,,,,,,,,,,,,,,,,,,,,,,,,,,,,,,,,,,,,,,,,,,,,,,,,,,,,,,,,,,,,,,,,,,,,,,,,,,,,,,,,,,,,,,,,,,
,,,,,,60dc1397b91eb34c1687d694,62c539e5a9e5fb366c1df9a7,2022-07-06_09h27.34.532,Colour_Asymmetry_Pilot,2022.1.3,Win32,59.73002031,62c50e9c1127f2cd403a315f,0,104,104,25,1,onethree,,,,,,,,,,,,,,,,,,,,,,,,,,,,,,,,,,,,,,,,,,,,,,,,,,,,,,,,,,,,,,,,,,,,,,,,,,,,,,,,,,,,,,,,,,,,,,,,,,,,,,,,,,,,,,,,,,,,,,,,,,,,,,,,,,,,,,,,,,,,,,,,,,,,,,,,,,,,,
,,,,,,60dc1397b91eb34c1687d694,62c539e5a9e5fb366c1df9a7,2022-07-06_09h27.34.532,Colour_Asymmetry_Pilot,2022.1.3,Win32,59.73002031,62c50e9c1127f2cd403a315f,0,105,105,126,1,fourtwo,,,,,,,,,,,,,,,,,,,,,,,,,,,,,,,,,,,,,,,,,,,,,,,,,,,,,,,,,,,,,,,,,,,,,,,,,,,,,,,,,,,,,,,,,,,,,,,,,,,,,,,,,,,,,,,,,,,,,,,,,,,,,,,,,,,,,,,,,,,,,,,,,,,,,,,,,,,,,
,,,,,,60dc1397b91eb34c1687d694,62c539e5a9e5fb366c1df9a7,2022-07-06_09h27.34.532,Colour_Asymmetry_Pilot,2022.1.3,Win32,59.73002031,62c50e9c1127f2cd403a315f,0,106,106,48,1,onetwo,,,,,,,,,,,,,,,,,,,,,,,,,,,,,,,,,,,,,,,,,,,,,,,,,,,,,,,,,,,,,,,,,,,,,,,,,,,,,,,,,,,,,,,,,,,,,,,,,,,,,,,,,,,,,,,,,,,,,,,,,,,,,,,,,,,,,,,,,,,,,,,,,,,,,,,,,,,,,
,,,,,,60dc1397b91eb34c1687d694,62c539e5a9e5fb366c1df9a7,2022-07-06_09h27.34.532,Colour_Asymmetry_Pilot,2022.1.3,Win32,59.73002031,62c50e9c1127f2cd403a315f,0,107,107,108,1,threeone,,,,,,,,,,,,,,,,,,,,,,,,,,,,,,,,,,,,,,,,,,,,,,,,,,,,,,,,,,,,,,,,,,,,,,,,,,,,,,,,,,,,,,,,,,,,,,,,,,,,,,,,,,,,,,,,,,,,,,,,,,,,,,,,,,,,,,,,,,,,,,,,,,,,,,,,,,,,,
,,,,,,60dc1397b91eb34c1687d694,62c539e5a9e5fb366c1df9a7,2022-07-06_09h27.34.532,Colour_Asymmetry_Pilot,2022.1.3,Win32,59.73002031,62c50e9c1127f2cd403a315f,0,108,108,88,1,onetwo,,,,,,,,,,,,,,,,,,,,,,,,,,,,,,,,,,,,,,,,,,,,,,,,,,,,,,,,,,,,,,,,,,,,,,,,,,,,,,,,,,,,,,,,,,,,,,,,,,,,,,,,,,,,,,,,,,,,,,,,,,,,,,,,,,,,,,,,,,,,,,,,,,,,,,,,,,,,,
,,,,,,60dc1397b91eb34c1687d694,62c539e5a9e5fb366c1df9a7,2022-07-06_09h27.34.532,Colour_Asymmetry_Pilot,2022.1.3,Win32,59.73002031,62c50e9c1127f2cd403a315f,0,109,109,31,1,fourthree,,,,,,,,,,,,,,,,,,,,,,,,,,,,,,,,,,,,,,,,,,,,,,,,,,,,,,,,,,,,,,,,,,,,,,,,,,,,,,,,,,,,,,,,,,,,,,,,,,,,,,,,,,,,,,,,,,,,,,,,,,,,,,,,,,,,,,,,,,,,,,,,,,,,,,,,,,,,,
,,,,,,60dc1397b91eb34c1687d694,62c539e5a9e5fb366c1df9a7,2022-07-06_09h27.34.532,Colour_Asymmetry_Pilot,2022.1.3,Win32,59.73002031,62c50e9c1127f2cd403a315f,0,110,110,16,1,onetwo,,,,,,,,,,,,,,,,,,,,,,,,,,,,,,,,,,,,,,,,,,,,,,,,,,,,,,,,,,,,,,,,,,,,,,,,,,,,,,,,,,,,,,,,,,,,,,,,,,,,,,,,,,,,,,,,,,,,,,,,,,,,,,,,,,,,,,,,,,,,,,,,,,,,,,,,,,,,,
,,,,,,60dc1397b91eb34c1687d694,62c539e5a9e5fb366c1df9a7,2022-07-06_09h27.34.532,Colour_Asymmetry_Pilot,2022.1.3,Win32,59.73002031,62c50e9c1127f2cd403a315f,0,111,111,35,1,twofour,,,,,,,,,,,,,,,,,,,,,,,,,,,,,,,,,,,,,,,,,,,,,,,,,,,,,,,,,,,,,,,,,,,,,,,,,,,,,,,,,,,,,,,,,,,,,,,,,,,,,,,,,,,,,,,,,,,,,,,,,,,,,,,,,,,,,,,,,,,,,,,,,,,,,,,,,,,,,
,,,,,,60dc1397b91eb34c1687d694,62c539e5a9e5fb366c1df9a7,2022-07-06_09h27.34.532,Colour_Asymmetry_Pilot,2022.1.3,Win32,59.73002031,62c50e9c1127f2cd403a315f,0,112,112,154,1,twoone,,,,,,,,,,,,,,,,,,,,,,,,,,,,,,,,,,,,,,,,,,,,,,,,,,,,,,,,,,,,,,,,,,,,,,,,,,,,,,,,,,,,,,,,,,,,,,,,,,,,,,,,,,,,,,,,,,,,,,,,,,,,,,,,,,,,,,,,,,,,,,,,,,,,,,,,,,,,,
,,,,,,60dc1397b91eb34c1687d694,62c539e5a9e5fb366c1df9a7,2022-07-06_09h27.34.532,Colour_Asymmetry_Pilot,2022.1.3,Win32,59.73002031,62c50e9c1127f2cd403a315f,0,113,113,65,1,onethree,,,,,,,,,,,,,,,,,,,,,,,,,,,,,,,,,,,,,,,,,,,,,,,,,,,,,,,,,,,,,,,,,,,,,,,,,,,,,,,,,,,,,,,,,,,,,,,,,,,,,,,,,,,,,,,,,,,,,,,,,,,,,,,,,,,,,,,,,,,,,,,,,,,,,,,,,,,,,
,,,,,,60dc1397b91eb34c1687d694,62c539e5a9e5fb366c1df9a7,2022-07-06_09h27.34.532,Colour_Asymmetry_Pilot,2022.1.3,Win32,59.73002031,62c50e9c1127f2cd403a315f,0,114,114,50,1,twoone,,,,,,,,,,,,,,,,,,,,,,,,,,,,,,,,,,,,,,,,,,,,,,,,,,,,,,,,,,,,,,,,,,,,,,,,,,,,,,,,,,,,,,,,,,,,,,,,,,,,,,,,,,,,,,,,,,,,,,,,,,,,,,,,,,,,,,,,,,,,,,,,,,,,,,,,,,,,,
,,,,,,60dc1397b91eb34c1687d694,62c539e5a9e5fb366c1df9a7,2022-07-06_09h27.34.532,Colour_Asymmetry_Pilot,2022.1.3,Win32,59.73002031,62c50e9c1127f2cd403a315f,0,115,115,150,1,fourtwo,,,,,,,,,,,,,,,,,,,,,,,,,,,,,,,,,,,,,,,,,,,,,,,,,,,,,,,,,,,,,,,,,,,,,,,,,,,,,,,,,,,,,,,,,,,,,,,,,,,,,,,,,,,,,,,,,,,,,,,,,,,,,,,,,,,,,,,,,,,,,,,,,,,,,,,,,,,,,
,,,,,,60dc1397b91eb34c1687d694,62c539e5a9e5fb366c1df9a7,2022-07-06_09h27.34.532,Colour_Asymmetry_Pilot,2022.1.3,Win32,59.73002031,62c50e9c1127f2cd403a315f,0,116,116,14,1,fourtwo,,,,,,,,,,,,,,,,,,,,,,,,,,,,,,,,,,,,,,,,,,,,,,,,,,,,,,,,,,,,,,,,,,,,,,,,,,,,,,,,,,,,,,,,,,,,,,,,,,,,,,,,,,,,,,,,,,,,,,,,,,,,,,,,,,,,,,,,,,,,,,,,,,,,,,,,,,,,,
,,,,,,60dc1397b91eb34c1687d694,62c539e5a9e5fb366c1df9a7,2022-07-06_09h27.34.532,Colour_Asymmetry_Pilot,2022.1.3,Win32,59.73002031,62c50e9c1127f2cd403a315f,0,117,117,143,1,fourthree,,,,,,,,,,,,,,,,,,,,,,,,,,,,,,,,,,,,,,,,,,,,,,,,,,,,,,,,,,,,,,,,,,,,,,,,,,,,,,,,,,,,,,,,,,,,,,,,,,,,,,,,,,,,,,,,,,,,,,,,,,,,,,,,,,,,,,,,,,,,,,,,,,,,,,,,,,,,,
,,,,,,60dc1397b91eb34c1687d694,62c539e5a9e5fb366c1df9a7,2022-07-06_09h27.34.532,Colour_Asymmetry_Pilot,2022.1.3,Win32,59.73002031,62c50e9c1127f2cd403a315f,0,118,118,45,1,threefour,,,,,,,,,,,,,,,,,,,,,,,,,,,,,,,,,,,,,,,,,,,,,,,,,,,,,,,,,,,,,,,,,,,,,,,,,,,,,,,,,,,,,,,,,,,,,,,,,,,,,,,,,,,,,,,,,,,,,,,,,,,,,,,,,,,,,,,,,,,,,,,,,,,,,,,,,,,,,
,,,,,,60dc1397b91eb34c1687d694,62c539e5a9e5fb366c1df9a7,2022-07-06_09h27.34.532,Colour_Asymmetry_Pilot,2022.1.3,Win32,59.73002031,62c50e9c1127f2cd403a315f,0,119,119,4,1,threeone,,,,,,,,,,,,,,,,,,,,,,,,,,,,,,,,,,,,,,,,,,,,,,,,,,,,,,,,,,,,,,,,,,,,,,,,,,,,,,,,,,,,,,,,,,,,,,,,,,,,,,,,,,,,,,,,,,,,,,,,,,,,,,,,,,,,,,,,,,,,,,,,,,,,,,,,,,,,,
,,,,,,60dc1397b91eb34c1687d694,62c539e5a9e5fb366c1df9a7,2022-07-06_09h27.34.532,Colour_Asymmetry_Pilot,2022.1.3,Win32,59.73002031,62c50e9c1127f2cd403a315f,0,120,120,64,1,onetwo,,,,,,,,,,,,,,,,,,,,,,,,,,,,,,,,,,,,,,,,,,,,,,,,,,,,,,,,,,,,,,,,,,,,,,,,,,,,,,,,,,,,,,,,,,,,,,,,,,,,,,,,,,,,,,,,,,,,,,,,,,,,,,,,,,,,,,,,,,,,,,,,,,,,,,,,,,,,,
,,,,,,60dc1397b91eb34c1687d694,62c539e5a9e5fb366c1df9a7,2022-07-06_09h27.34.532,Colour_Asymmetry_Pilot,2022.1.3,Win32,59.73002031,62c50e9c1127f2cd403a315f,0,121,121,22,1,fourtwo,,,,,,,,,,,,,,,,,,,,,,,,,,,,,,,,,,,,,,,,,,,,,,,,,,,,,,,,,,,,,,,,,,,,,,,,,,,,,,,,,,,,,,,,,,,,,,,,,,,,,,,,,,,,,,,,,,,,,,,,,,,,,,,,,,,,,,,,,,,,,,,,,,,,,,,,,,,,,
,,,,,,60dc1397b91eb34c1687d694,62c539e5a9e5fb366c1df9a7,2022-07-06_09h27.34.532,Colour_Asymmetry_Pilot,2022.1.3,Win32,59.73002031,62c50e9c1127f2cd403a315f,0,122,122,21,1,threefour,,,,,,,,,,,,,,,,,,,,,,,,,,,,,,,,,,,,,,,,,,,,,,,,,,,,,,,,,,,,,,,,,,,,,,,,,,,,,,,,,,,,,,,,,,,,,,,,,,,,,,,,,,,,,,,,,,,,,,,,,,,,,,,,,,,,,,,,,,,,,,,,,,,,,,,,,,,,,
,,,,,,60dc1397b91eb34c1687d694,62c539e5a9e5fb366c1df9a7,2022-07-06_09h27.34.532,Colour_Asymmetry_Pilot,2022.1.3,Win32,59.73002031,62c50e9c1127f2cd403a315f,0,123,123,132,1,threeone,,,,,,,,,,,,,,,,,,,,,,,,,,,,,,,,,,,,,,,,,,,,,,,,,,,,,,,,,,,,,,,,,,,,,,,,,,,,,,,,,,,,,,,,,,,,,,,,,,,,,,,,,,,,,,,,,,,,,,,,,,,,,,,,,,,,,,,,,,,,,,,,,,,,,,,,,,,,,
,,,,,,60dc1397b91eb34c1687d694,62c539e5a9e5fb366c1df9a7,2022-07-06_09h27.34.532,Colour_Asymmetry_Pilot,2022.1.3,Win32,59.73002031,62c50e9c1127f2cd403a315f,0,124,124,39,1,fourthree,,,,,,,,,,,,,,,,,,,,,,,,,,,,,,,,,,,,,,,,,,,,,,,,,,,,,,,,,,,,,,,,,,,,,,,,,,,,,,,,,,,,,,,,,,,,,,,,,,,,,,,,,,,,,,,,,,,,,,,,,,,,,,,,,,,,,,,,,,,,,,,,,,,,,,,,,,,,,
,,,,,,60dc1397b91eb34c1687d694,62c539e5a9e5fb366c1df9a7,2022-07-06_09h27.34.532,Colour_Asymmetry_Pilot,2022.1.3,Win32,59.73002031,62c50e9c1127f2cd403a315f,0,125,125,158,1,fourtwo,,,,,,,,,,,,,,,,,,,,,,,,,,,,,,,,,,,,,,,,,,,,,,,,,,,,,,,,,,,,,,,,,,,,,,,,,,,,,,,,,,,,,,,,,,,,,,,,,,,,,,,,,,,,,,,,,,,,,,,,,,,,,,,,,,,,,,,,,,,,,,,,,,,,,,,,,,,,,
,,,,,,60dc1397b91eb34c1687d694,62c539e5a9e5fb366c1df9a7,2022-07-06_09h27.34.532,Colour_Asymmetry_Pilot,2022.1.3,Win32,59.73002031,62c50e9c1127f2cd403a315f,0,126,126,86,1,fourtwo,,,,,,,,,,,,,,,,,,,,,,,,,,,,,,,,,,,,,,,,,,,,,,,,,,,,,,,,,,,,,,,,,,,,,,,,,,,,,,,,,,,,,,,,,,,,,,,,,,,,,,,,,,,,,,,,,,,,,,,,,,,,,,,,,,,,,,,,,,,,,,,,,,,,,,,,,,,,,
,,,,,,60dc1397b91eb34c1687d694,62c539e5a9e5fb366c1df9a7,2022-07-06_09h27.34.532,Colour_Asymmetry_Pilot,2022.1.3,Win32,59.73002031,62c50e9c1127f2cd403a315f,0,127,127,156,1,threeone,,,,,,,,,,,,,,,,,,,,,,,,,,,,,,,,,,,,,,,,,,,,,,,,,,,,,,,,,,,,,,,,,,,,,,,,,,,,,,,,,,,,,,,,,,,,,,,,,,,,,,,,,,,,,,,,,,,,,,,,,,,,,,,,,,,,,,,,,,,,,,,,,,,,,,,,,,,,,
,,,,,,60dc1397b91eb34c1687d694,62c539e5a9e5fb366c1df9a7,2022-07-06_09h27.34.532,Colour_Asymmetry_Pilot,2022.1.3,Win32,59.73002031,62c50e9c1127f2cd403a315f,0,128,128,125,1,threefour,,,,,,,,,,,,,,,,,,,,,,,,,,,,,,,,,,,,,,,,,,,,,,,,,,,,,,,,,,,,,,,,,,,,,,,,,,,,,,,,,,,,,,,,,,,,,,,,,,,,,,,,,,,,,,,,,,,,,,,,,,,,,,,,,,,,,,,,,,,,,,,,,,,,,,,,,,,,,
,,,,,,60dc1397b91eb34c1687d694,62c539e5a9e5fb366c1df9a7,2022-07-06_09h27.34.532,Colour_Asymmetry_Pilot,2022.1.3,Win32,59.73002031,62c50e9c1127f2cd403a315f,0,129,129,138,1,twoone,,,,,,,,,,,,,,,,,,,,,,,,,,,,,,,,,,,,,,,,,,,,,,,,,,,,,,,,,,,,,,,,,,,,,,,,,,,,,,,,,,,,,,,,,,,,,,,,,,,,,,,,,,,,,,,,,,,,,,,,,,,,,,,,,,,,,,,,,,,,,,,,,,,,,,,,,,,,,
,,,,,,60dc1397b91eb34c1687d694,62c539e5a9e5fb366c1df9a7,2022-07-06_09h27.34.532,Colour_Asymmetry_Pilot,2022.1.3,Win32,59.73002031,62c50e9c1127f2cd403a315f,0,130,130,80,1,onetwo,,,,,,,,,,,,,,,,,,,,,,,,,,,,,,,,,,,,,,,,,,,,,,,,,,,,,,,,,,,,,,,,,,,,,,,,,,,,,,,,,,,,,,,,,,,,,,,,,,,,,,,,,,,,,,,,,,,,,,,,,,,,,,,,,,,,,,,,,,,,,,,,,,,,,,,,,,,,,
,,,,,,60dc1397b91eb34c1687d694,62c539e5a9e5fb366c1df9a7,2022-07-06_09h27.34.532,Colour_Asymmetry_Pilot,2022.1.3,Win32,59.73002031,62c50e9c1127f2cd403a315f,0,131,131,69,1,threefour,,,,,,,,,,,,,,,,,,,,,,,,,,,,,,,,,,,,,,,,,,,,,,,,,,,,,,,,,,,,,,,,,,,,,,,,,,,,,,,,,,,,,,,,,,,,,,,,,,,,,,,,,,,,,,,,,,,,,,,,,,,,,,,,,,,,,,,,,,,,,,,,,,,,,,,,,,,,,
,,,,,,60dc1397b91eb34c1687d694,62c539e5a9e5fb366c1df9a7,2022-07-06_09h27.34.532,Colour_Asymmetry_Pilot,2022.1.3,Win32,59.73002031,62c50e9c1127f2cd403a315f,0,132,132,152,1,onetwo,,,,,,,,,,,,,,,,,,,,,,,,,,,,,,,,,,,,,,,,,,,,,,,,,,,,,,,,,,,,,,,,,,,,,,,,,,,,,,,,,,,,,,,,,,,,,,,,,,,,,,,,,,,,,,,,,,,,,,,,,,,,,,,,,,,,,,,,,,,,,,,,,,,,,,,,,,,,,
,,,,,,60dc1397b91eb34c1687d694,62c539e5a9e5fb366c1df9a7,2022-07-06_09h27.34.532,Colour_Asymmetry_Pilot,2022.1.3,Win32,59.73002031,62c50e9c1127f2cd403a315f,0,133,133,77,1,threefour,,,,,,,,,,,,,,,,,,,,,,,,,,,,,,,,,,,,,,,,,,,,,,,,,,,,,,,,,,,,,,,,,,,,,,,,,,,,,,,,,,,,,,,,,,,,,,,,,,,,,,,,,,,,,,,,,,,,,,,,,,,,,,,,,,,,,,,,,,,,,,,,,,,,,,,,,,,,,
,,,,,,60dc1397b91eb34c1687d694,62c539e5a9e5fb366c1df9a7,2022-07-06_09h27.34.532,Colour_Asymmetry_Pilot,2022.1.3,Win32,59.73002031,62c50e9c1127f2cd403a315f,0,134,134,93,1,threefour,,,,,,,,,,,,,,,,,,,,,,,,,,,,,,,,,,,,,,,,,,,,,,,,,,,,,,,,,,,,,,,,,,,,,,,,,,,,,,,,,,,,,,,,,,,,,,,,,,,,,,,,,,,,,,,,,,,,,,,,,,,,,,,,,,,,,,,,,,,,,,,,,,,,,,,,,,,,,
,,,,,,60dc1397b91eb34c1687d694,62c539e5a9e5fb366c1df9a7,2022-07-06_09h27.34.532,Colour_Asymmetry_Pilot,2022.1.3,Win32,59.73002031,62c50e9c1127f2cd403a315f,0,135,135,151,1,fourthree,,,,,,,,,,,,,,,,,,,,,,,,,,,,,,,,,,,,,,,,,,,,,,,,,,,,,,,,,,,,,,,,,,,,,,,,,,,,,,,,,,,,,,,,,,,,,,,,,,,,,,,,,,,,,,,,,,,,,,,,,,,,,,,,,,,,,,,,,,,,,,,,,,,,,,,,,,,,,
,,,,,,60dc1397b91eb34c1687d694,62c539e5a9e5fb366c1df9a7,2022-07-06_09h27.34.532,Colour_Asymmetry_Pilot,2022.1.3,Win32,59.73002031,62c50e9c1127f2cd403a315f,0,136,136,72,1,onetwo,,,,,,,,,,,,,,,,,,,,,,,,,,,,,,,,,,,,,,,,,,,,,,,,,,,,,,,,,,,,,,,,,,,,,,,,,,,,,,,,,,,,,,,,,,,,,,,,,,,,,,,,,,,,,,,,,,,,,,,,,,,,,,,,,,,,,,,,,,,,,,,,,,,,,,,,,,,,,
,,,,,,60dc1397b91eb34c1687d694,62c539e5a9e5fb366c1df9a7,2022-07-06_09h27.34.532,Colour_Asymmetry_Pilot,2022.1.3,Win32,59.73002031,62c50e9c1127f2cd403a315f,0,137,137,46,1,fourtwo,,,,,,,,,,,,,,,,,,,,,,,,,,,,,,,,,,,,,,,,,,,,,,,,,,,,,,,,,,,,,,,,,,,,,,,,,,,,,,,,,,,,,,,,,,,,,,,,,,,,,,,,,,,,,,,,,,,,,,,,,,,,,,,,,,,,,,,,,,,,,,,,,,,,,,,,,,,,,
,,,,,,60dc1397b91eb34c1687d694,62c539e5a9e5fb366c1df9a7,2022-07-06_09h27.34.532,Colour_Asymmetry_Pilot,2022.1.3,Win32,59.73002031,62c50e9c1127f2cd403a315f,0,138,138,41,1,onethree,,,,,,,,,,,,,,,,,,,,,,,,,,,,,,,,,,,,,,,,,,,,,,,,,,,,,,,,,,,,,,,,,,,,,,,,,,,,,,,,,,,,,,,,,,,,,,,,,,,,,,,,,,,,,,,,,,,,,,,,,,,,,,,,,,,,,,,,,,,,,,,,,,,,,,,,,,,,,
,,,,,,60dc1397b91eb34c1687d694,62c539e5a9e5fb366c1df9a7,2022-07-06_09h27.34.532,Colour_Asymmetry_Pilot,2022.1.3,Win32,59.73002031,62c50e9c1127f2cd403a315f,0,139,139,103,1,fourthree,,,,,,,,,,,,,,,,,,,,,,,,,,,,,,,,,,,,,,,,,,,,,,,,,,,,,,,,,,,,,,,,,,,,,,,,,,,,,,,,,,,,,,,,,,,,,,,,,,,,,,,,,,,,,,,,,,,,,,,,,,,,,,,,,,,,,,,,,,,,,,,,,,,,,,,,,,,,,
,,,,,,60dc1397b91eb34c1687d694,62c539e5a9e5fb366c1df9a7,2022-07-06_09h27.34.532,Colour_Asymmetry_Pilot,2022.1.3,Win32,59.73002031,62c50e9c1127f2cd403a315f,0,140,140,20,1,threeone,,,,,,,,,,,,,,,,,,,,,,,,,,,,,,,,,,,,,,,,,,,,,,,,,,,,,,,,,,,,,,,,,,,,,,,,,,,,,,,,,,,,,,,,,,,,,,,,,,,,,,,,,,,,,,,,,,,,,,,,,,,,,,,,,,,,,,,,,,,,,,,,,,,,,,,,,,,,,
,,,,,,60dc1397b91eb34c1687d694,62c539e5a9e5fb366c1df9a7,2022-07-06_09h27.34.532,Colour_Asymmetry_Pilot,2022.1.3,Win32,59.73002031,62c50e9c1127f2cd403a315f,0,141,141,33,1,onethree,,,,,,,,,,,,,,,,,,,,,,,,,,,,,,,,,,,,,,,,,,,,,,,,,,,,,,,,,,,,,,,,,,,,,,,,,,,,,,,,,,,,,,,,,,,,,,,,,,,,,,,,,,,,,,,,,,,,,,,,,,,,,,,,,,,,,,,,,,,,,,,,,,,,,,,,,,,,,
,,,,,,60dc1397b91eb34c1687d694,62c539e5a9e5fb366c1df9a7,2022-07-06_09h27.34.532,Colour_Asymmetry_Pilot,2022.1.3,Win32,59.73002031,62c50e9c1127f2cd403a315f,0,142,142,24,1,onetwo,,,,,,,,,,,,,,,,,,,,,,,,,,,,,,,,,,,,,,,,,,,,,,,,,,,,,,,,,,,,,,,,,,,,,,,,,,,,,,,,,,,,,,,,,,,,,,,,,,,,,,,,,,,,,,,,,,,,,,,,,,,,,,,,,,,,,,,,,,,,,,,,,,,,,,,,,,,,,
,,,,,,60dc1397b91eb34c1687d694,62c539e5a9e5fb366c1df9a7,2022-07-06_09h27.34.532,Colour_Asymmetry_Pilot,2022.1.3,Win32,59.73002031,62c50e9c1127f2cd403a315f,0,143,143,109,1,threefour,,,,,,,,,,,,,,,,,,,,,,,,,,,,,,,,,,,,,,,,,,,,,,,,,,,,,,,,,,,,,,,,,,,,,,,,,,,,,,,,,,,,,,,,,,,,,,,,,,,,,,,,,,,,,,,,,,,,,,,,,,,,,,,,,,,,,,,,,,,,,,,,,,,,,,,,,,,,,
,,,,,,60dc1397b91eb34c1687d694,62c539e5a9e5fb366c1df9a7,2022-07-06_09h27.34.532,Colour_Asymmetry_Pilot,2022.1.3,Win32,59.73002031,62c50e9c1127f2cd403a315f,0,144,144,112,1,onetwo,,,,,,,,,,,,,,,,,,,,,,,,,,,,,,,,,,,,,,,,,,,,,,,,,,,,,,,,,,,,,,,,,,,,,,,,,,,,,,,,,,,,,,,,,,,,,,,,,,,,,,,,,,,,,,,,,,,,,,,,,,,,,,,,,,,,,,,,,,,,,,,,,,,,,,,,,,,,,
,,,,,,60dc1397b91eb34c1687d694,62c539e5a9e5fb366c1df9a7,2022-07-06_09h27.34.532,Colour_Asymmetry_Pilot,2022.1.3,Win32,59.73002031,62c50e9c1127f2cd403a315f,0,145,145,59,1,twofour,,,,,,,,,,,,,,,,,,,,,,,,,,,,,,,,,,,,,,,,,,,,,,,,,,,,,,,,,,,,,,,,,,,,,,,,,,,,,,,,,,,,,,,,,,,,,,,,,,,,,,,,,,,,,,,,,,,,,,,,,,,,,,,,,,,,,,,,,,,,,,,,,,,,,,,,,,,,,
,,,,,,60dc1397b91eb34c1687d694,62c539e5a9e5fb366c1df9a7,2022-07-06_09h27.34.532,Colour_Asymmetry_Pilot,2022.1.3,Win32,59.73002031,62c50e9c1127f2cd403a315f,0,146,146,147,1,twofour,,,,,,,,,,,,,,,,,,,,,,,,,,,,,,,,,,,,,,,,,,,,,,,,,,,,,,,,,,,,,,,,,,,,,,,,,,,,,,,,,,,,,,,,,,,,,,,,,,,,,,,,,,,,,,,,,,,,,,,,,,,,,,,,,,,,,,,,,,,,,,,,,,,,,,,,,,,,,
,,,,,,60dc1397b91eb34c1687d694,62c539e5a9e5fb366c1df9a7,2022-07-06_09h27.34.532,Colour_Asymmetry_Pilot,2022.1.3,Win32,59.73002031,62c50e9c1127f2cd403a315f,0,147,147,40,1,onetwo,,,,,,,,,,,,,,,,,,,,,,,,,,,,,,,,,,,,,,,,,,,,,,,,,,,,,,,,,,,,,,,,,,,,,,,,,,,,,,,,,,,,,,,,,,,,,,,,,,,,,,,,,,,,,,,,,,,,,,,,,,,,,,,,,,,,,,,,,,,,,,,,,,,,,,,,,,,,,
,,,,,,60dc1397b91eb34c1687d694,62c539e5a9e5fb366c1df9a7,2022-07-06_09h27.34.532,Colour_Asymmetry_Pilot,2022.1.3,Win32,59.73002031,62c50e9c1127f2cd403a315f,0,148,148,60,1,threeone,,,,,,,,,,,,,,,,,,,,,,,,,,,,,,,,,,,,,,,,,,,,,,,,,,,,,,,,,,,,,,,,,,,,,,,,,,,,,,,,,,,,,,,,,,,,,,,,,,,,,,,,,,,,,,,,,,,,,,,,,,,,,,,,,,,,,,,,,,,,,,,,,,,,,,,,,,,,,
,,,,,,60dc1397b91eb34c1687d694,62c539e5a9e5fb366c1df9a7,2022-07-06_09h27.34.532,Colour_Asymmetry_Pilot,2022.1.3,Win32,59.73002031,62c50e9c1127f2cd403a315f,0,149,149,11,1,twofour,,,,,,,,,,,,,,,,,,,,,,,,,,,,,,,,,,,,,,,,,,,,,,,,,,,,,,,,,,,,,,,,,,,,,,,,,,,,,,,,,,,,,,,,,,,,,,,,,,,,,,,,,,,,,,,,,,,,,,,,,,,,,,,,,,,,,,,,,,,,,,,,,,,,,,,,,,,,,
,,,,,,60dc1397b91eb34c1687d694,62c539e5a9e5fb366c1df9a7,2022-07-06_09h27.34.532,Colour_Asymmetry_Pilot,2022.1.3,Win32,59.73002031,62c50e9c1127f2cd403a315f,0,150,150,120,1,onetwo,,,,,,,,,,,,,,,,,,,,,,,,,,,,,,,,,,,,,,,,,,,,,,,,,,,,,,,,,,,,,,,,,,,,,,,,,,,,,,,,,,,,,,,,,,,,,,,,,,,,,,,,,,,,,,,,,,,,,,,,,,,,,,,,,,,,,,,,,,,,,,,,,,,,,,,,,,,,,
,,,,,,60dc1397b91eb34c1687d694,62c539e5a9e5fb366c1df9a7,2022-07-06_09h27.34.532,Colour_Asymmetry_Pilot,2022.1.3,Win32,59.73002031,62c50e9c1127f2cd403a315f,0,151,151,128,1,onetwo,,,,,,,,,,,,,,,,,,,,,,,,,,,,,,,,,,,,,,,,,,,,,,,,,,,,,,,,,,,,,,,,,,,,,,,,,,,,,,,,,,,,,,,,,,,,,,,,,,,,,,,,,,,,,,,,,,,,,,,,,,,,,,,,,,,,,,,,,,,,,,,,,,,,,,,,,,,,,
,,,,,,60dc1397b91eb34c1687d694,62c539e5a9e5fb366c1df9a7,2022-07-06_09h27.34.532,Colour_Asymmetry_Pilot,2022.1.3,Win32,59.73002031,62c50e9c1127f2cd403a315f,0,152,152,55,1,fourthree,,,,,,,,,,,,,,,,,,,,,,,,,,,,,,,,,,,,,,,,,,,,,,,,,,,,,,,,,,,,,,,,,,,,,,,,,,,,,,,,,,,,,,,,,,,,,,,,,,,,,,,,,,,,,,,,,,,,,,,,,,,,,,,,,,,,,,,,,,,,,,,,,,,,,,,,,,,,,
,,,,,,60dc1397b91eb34c1687d694,62c539e5a9e5fb366c1df9a7,2022-07-06_09h27.34.532,Colour_Asymmetry_Pilot,2022.1.3,Win32,59.73002031,62c50e9c1127f2cd403a315f,0,153,153,9,1,onethree,,,,,,,,,,,,,,,,,,,,,,,,,,,,,,,,,,,,,,,,,,,,,,,,,,,,,,,,,,,,,,,,,,,,,,,,,,,,,,,,,,,,,,,,,,,,,,,,,,,,,,,,,,,,,,,,,,,,,,,,,,,,,,,,,,,,,,,,,,,,,,,,,,,,,,,,,,,,,
,,,,,,60dc1397b91eb34c1687d694,62c539e5a9e5fb366c1df9a7,2022-07-06_09h27.34.532,Colour_Asymmetry_Pilot,2022.1.3,Win32,59.73002031,62c50e9c1127f2cd403a315f,0,154,154,73,1,onethree,,,,,,,,,,,,,,,,,,,,,,,,,,,,,,,,,,,,,,,,,,,,,,,,,,,,,,,,,,,,,,,,,,,,,,,,,,,,,,,,,,,,,,,,,,,,,,,,,,,,,,,,,,,,,,,,,,,,,,,,,,,,,,,,,,,,,,,,,,,,,,,,,,,,,,,,,,,,,
,,,,,,60dc1397b91eb34c1687d694,62c539e5a9e5fb366c1df9a7,2022-07-06_09h27.34.532,Colour_Asymmetry_Pilot,2022.1.3,Win32,59.73002031,62c50e9c1127f2cd403a315f,0,155,155,111,1,fourthree,,,,,,,,,,,,,,,,,,,,,,,,,,,,,,,,,,,,,,,,,,,,,,,,,,,,,,,,,,,,,,,,,,,,,,,,,,,,,,,,,,,,,,,,,,,,,,,,,,,,,,,,,,,,,,,,,,,,,,,,,,,,,,,,,,,,,,,,,,,,,,,,,,,,,,,,,,,,,
,,,,,,60dc1397b91eb34c1687d694,62c539e5a9e5fb366c1df9a7,2022-07-06_09h27.34.532,Colour_Asymmetry_Pilot,2022.1.3,Win32,59.73002031,62c50e9c1127f2cd403a315f,0,156,156,140,1,threeone,,,,,,,,,,,,,,,,,,,,,,,,,,,,,,,,,,,,,,,,,,,,,,,,,,,,,,,,,,,,,,,,,,,,,,,,,,,,,,,,,,,,,,,,,,,,,,,,,,,,,,,,,,,,,,,,,,,,,,,,,,,,,,,,,,,,,,,,,,,,,,,,,,,,,,,,,,,,,
,,,,,,60dc1397b91eb34c1687d694,62c539e5a9e5fb366c1df9a7,2022-07-06_09h27.34.532,Colour_Asymmetry_Pilot,2022.1.3,Win32,59.73002031,62c50e9c1127f2cd403a315f,0,157,157,36,1,threeone,,,,,,,,,,,,,,,,,,,,,,,,,,,,,,,,,,,,,,,,,,,,,,,,,,,,,,,,,,,,,,,,,,,,,,,,,,,,,,,,,,,,,,,,,,,,,,,,,,,,,,,,,,,,,,,,,,,,,,,,,,,,,,,,,,,,,,,,,,,,,,,,,,,,,,,,,,,,,
,,,,,,60dc1397b91eb34c1687d694,62c539e5a9e5fb366c1df9a7,2022-07-06_09h27.34.532,Colour_Asymmetry_Pilot,2022.1.3,Win32,59.73002031,62c50e9c1127f2cd403a315f,0,158,158,115,1,twofour,,,,,,,,,,,,,,,,,,,,,,,,,,,,,,,,,,,,,,,,,,,,,,,,,,,,,,,,,,,,,,,,,,,,,,,,,,,,,,,,,,,,,,,,,,,,,,,,,,,,,,,,,,,,,,,,,,,,,,,,,,,,,,,,,,,,,,,,,,,,,,,,,,,,,,,,,,,,,
,,,,,,60dc1397b91eb34c1687d694,62c539e5a9e5fb366c1df9a7,2022-07-06_09h27.34.532,Colour_Asymmetry_Pilot,2022.1.3,Win32,59.73002031,62c50e9c1127f2cd403a315f,0,159,159,63,1,fourthree,,,,,,,,,,,,,,,,,,,,,,,,,,,,,,,,,,,,,,,,,,,,,,,,,,,,,,,,,,,,,,,,,,,,,,,,,,,,,,,,,,,,,,,,,,,,,,,,,,,,,,,,,,,,,,,,,,,,,,,,,,,,,,,,,,,,,,,,,,,,,,,,,,,,,,,,,,,,,
,,,,,,60dc1397b91eb34c1687d694,62c539e5a9e5fb366c1df9a7,2022-07-06_09h27.34.532,Colour_Asymmetry_Pilot,2022.1.3,Win32,59.73002031,62c50e9c1127f2cd403a315f,0,160,160,91,1,twofour,,,,,,,,,,,,,,,,,,,,,,,,,,,,,,,,,,,,,,,,,,,,,,,,,,,,,,,,,,,,,,,,,,,,,,,,,,,,,,,,,,,,,,,,,,,,,,,,,,,,,,,,,,,,,,,,,,,,,,,,,,,,,,,,,,,,,,,,,,,,,,,,,,,,,,,,,,,,,
,,,,,,60dc1397b91eb34c1687d694,62c539e5a9e5fb366c1df9a7,2022-07-06_09h27.34.532,Colour_Asymmetry_Pilot,2022.1.3,Win32,59.73002031,62c50e9c1127f2cd403a315f,0,161,161,155,1,twofour,,,,,,,,,,,,,,,,,,,,,,,,,,,,,,,,,,,,,,,,,,,,,,,,,,,,,,,,,,,,,,,,,,,,,,,,,,,,,,,,,,,,,,,,,,,,,,,,,,,,,,,,,,,,,,,,,,,,,,,,,,,,,,,,,,,,,,,,,,,,,,,,,,,,,,,,,,,,,
,,,,,,60dc1397b91eb34c1687d694,62c539e5a9e5fb366c1df9a7,2022-07-06_09h27.34.532,Colour_Asymmetry_Pilot,2022.1.3,Win32,59.73002031,62c50e9c1127f2cd403a315f,,,,,,,space,2.6154,space,37.1085,space,34.6483,space,28.7825,space,26.0826,space,6.4892,"[0.12939999999999996,-0.2864,0.3253999999999999]",threeone,"[-0.9766,-0.34920000000000007,0.2156]",4,3.2754,33,83,1,0,0,response1disk_5,-3,1,1,0,0,rectangle_8,-3,1,1,0,0,1,-3,1,1,0,0,0,0,0,0,1,,,,,,,,,,,,,,,,,,,,,,,,,,,,,,,,,,,,,,,,,,,,,,,,,,,,,,,,,,,,,,,,,,,,,,,,,,,,,,,,,,,,,,,,,,,,,,,,,,,,,,,,,,,,,,,,
,,,,,,60dc1397b91eb34c1687d694,62c539e5a9e5fb366c1df9a7,2022-07-06_09h27.34.532,Colour_Asymmetry_Pilot,2022.1.3,Win32,59.73002031,62c50e9c1127f2cd403a315f,,,,,,,,,,,,,,,,,,,"[0.3881999999999999,-0.23939999999999995,-0.05040000000000011]",fourtwo,"[-0.01980000000000004,-0.5138,-0.38039999999999996]",4,2.2662,32,72,1,0,0,response1disk_5,-1,-5,1,0,0,rectangle_8,-1,-5,1,0,0,1,-1,-5,1,0,0,1,0,1,0,1,,,,,,,,,,,,,,,,,,,,,,,,,,,,,,,,,,,,,,,,,,,,,,,,,,,,,,,,,,,,,,,,,,,,,,,,,,,,,,,,,,,,,,,,,,,,,,,,,,,,,,,,,,,,,,,,
,,,,,,60dc1397b91eb34c1687d694,62c539e5a9e5fb366c1df9a7,2022-07-06_09h27.34.532,Colour_Asymmetry_Pilot,2022.1.3,Win32,59.73002031,62c50e9c1127f2cd403a315f,,,,,,,,,,,,,,,,,,,"[0.40379999999999994,0.09000000000000008,0.44300000000000006]",fourthree,"[-0.9688,-0.4902000000000001,-0.12159999999999993]",-2,3.1022,-84,-44,1,0,0,response5disk_5,-11,-10,1,0,0,rectangle_8,-50,-30,1,0,0,1,5,-5,1,0,0,2,0,2,0,1,response5disk_7,2,rectangle_4,,,,,,,,,,,,,,,,,,,,,,,,,,,,,,,,,,,,,,,,,,,,,,,,,,,,,,,,,,,,,,,,,,,,,,,,,,,,,,,,,,,,,,,,,,,,,,,,,,,,,,,,,,,,,
,,,,,,60dc1397b91eb34c1687d694,62c539e5a9e5fb366c1df9a7,2022-07-06_09h27.34.532,Colour_Asymmetry_Pilot,2022.1.3,Win32,59.73002031,62c50e9c1127f2cd403a315f,,,,,,,,,,,,,,,,,,,"[-0.7412000000000001,-0.08239999999999992,-0.6864]",fourthree,"[0.5449999999999999,-0.31000000000000005,-0.0354000000000001]",-4,136.0102,-36,91.5,1,0,0,response7disk_5,-1,1.5,1,0,0,rectangle_8,-69,-45.5,1,0,0,1,-3,6.5,1,0,0,3,0,3,0,1,response5disk_7,2,rectangle_4,,,,,,,,,,,,,,,,,,,,,,,,,,,,,,,,,,,,,,,,,,,,,,,,,,,,,,,,,,,,,,,,,,,,,,,,,,,,,,,,,,,,,,,,,,,,,,,,,,,,,,,,,,,,,
,,,,,,60dc1397b91eb34c1687d694,62c539e5a9e5fb366c1df9a7,2022-07-06_09h27.34.532,Colour_Asymmetry_Pilot,2022.1.3,Win32,59.73002031,62c50e9c1127f2cd403a315f,,,,,,,,,,,,,,,,,,,"[-0.9844,-0.9688,-0.9922]",onetwo,"[0.5449999999999999,-0.31000000000000005,-0.0354000000000001]",-2,1.6691,-78,-47.5,1,0,0,response5disk_5,-11,-5.5,1,0,0,rectangle_8,-11,-5.5,1,0,0,1,-11,-5.5,1,0,0,4,0,4,0,1,,,,,,,,,,,,,,,,,,,,,,,,,,,,,,,,,,,,,,,,,,,,,,,,,,,,,,,,,,,,,,,,,,,,,,,,,,,,,,,,,,,,,,,,,,,,,,,,,,,,,,,,,,,,,,,,
,,,,,,60dc1397b91eb34c1687d694,62c539e5a9e5fb366c1df9a7,2022-07-06_09h27.34.532,Colour_Asymmetry_Pilot,2022.1.3,Win32,59.73002031,62c50e9c1127f2cd403a315f,,,,,,,,,,,,,,,,,,,"[0.3568,-0.20799999999999996,-0.9844]",twofour,"[-0.5688,-0.08239999999999992,-0.1844]",-2,1.1832,-90,-53.5,1,0,0,response5disk_5,-8,-2.5,1,0,0,rectangle_8,-8,-2.5,1,0,0,1,-8,-2.5,1,0,0,5,0,5,0,1,,,,,,,,,,,,,,,,,,,,,,,,,,,,,,,,,,,,,,,,,,,,,,,,,,,,,,,,,,,,,,,,,,,,,,,,,,,,,,,,,,,,,,,,,,,,,,,,,,,,,,,,,,,,,,,,
,,,,,,60dc1397b91eb34c1687d694,62c539e5a9e5fb366c1df9a7,2022-07-06_09h27.34.532,Colour_Asymmetry_Pilot,2022.1.3,Win32,59.73002031,62c50e9c1127f2cd403a315f,,,,,,,,,,,,,,,,,,,"[0.3802000000000001,0.19199999999999995,-0.6394]",onetwo,"[0.04299999999999993,0.16060000000000008,-0.6628000000000001]",-2,1.4328,-62,-30.5,1,0,0,response5disk_5,6,2.5,1,0,0,rectangle_8,6,2.5,1,0,0,1,6,2.5,1,0,0,6,0,6,0,1,,,,,,,,,,,,,,,,,,,,,,,,,,,,,,,,,,,,,,,,,,,,,,,,,,,,,,,,,,,,,,,,,,,,,,,,,,,,,,,,,,,,,,,,,,,,,,,,,,,,,,,,,,,,,,,,
,,,,,,60dc1397b91eb34c1687d694,62c539e5a9e5fb366c1df9a7,2022-07-06_09h27.34.532,Colour_Asymmetry_Pilot,2022.1.3,Win32,59.73002031,62c50e9c1127f2cd403a315f,,,,,,,,,,,,,,,,,,,,twoone,,-2,1.7652,,,,,,,,,,,,,,,,,,,,,,,,,,,,,,,,space,2.8565,"[0.22340000000000004,-0.9296,-0.7884]","[0.7802,-0.23140000000000005,-0.20799999999999996]",-100,-43.5,1,0,0,response5disk,-5,11.5,1,0,0,rectangle,-5,11.5,1,0,0,,1,0.0014,0,-5,11.5,1,0,0,0,0,0,113,1,32,second,,,,,,,,,,,,,,,,,,,,,,,,,,,,,,,,,,,,,,,,,,,,,,,,,,,,,,,,,,,,,,,,,,,,,,,,
,,,,,,60dc1397b91eb34c1687d694,62c539e5a9e5fb366c1df9a7,2022-07-06_09h27.34.532,Colour_Asymmetry_Pilot,2022.1.3,Win32,59.73002031,62c50e9c1127f2cd403a315f,,,,,,,,,,,,,,,,,,,,onetwo,,2,1.5501,,,,,,,,,,,,,,,,,,,,,,,,,,,,,,,,,,"[-0.4746,-0.0354000000000001,0.5449999999999999]","[-0.8982,-0.37259999999999993,0.2784]",77,-61.5,1,0,0,response3disk,18,-2.5,1,0,0,rectangle,18,-2.5,1,0,0,,2,0.001,0,18,-2.5,1,0,0,0,1,1,60,1,60,first,,,,,,,,,,,,,,,,,,,,,,,,,,,,,,,,,,,,,,,,,,,,,,,,,,,,,,,,,,,,,,,,,,,,,,,,
,,,,,,60dc1397b91eb34c1687d694,62c539e5a9e5fb366c1df9a7,2022-07-06_09h27.34.532,Colour_Asymmetry_Pilot,2022.1.3,Win32,59.73002031,62c50e9c1127f2cd403a315f,,,,,,,,,,,,,,,,,,,,twofour,,-2,0.8516,,,,,,,,,,,,,,,,,,,,,,,,,,,,,,,,,,"[-0.8982,-0.37259999999999993,0.2784]","[0.22340000000000004,-0.9296,-0.7884]",-69,-29.5,1,0,0,response5disk,-12,-0.5,1,0,0,rectangle,-12,-0.5,1,0,0,,3,0.0007,0,-12,-0.5,1,0,0,0,2,2,7,1,7,first,,,,,,,,,,,,,,,,,,,,,,,,,,,,,,,,,,,,,,,,,,,,,,,,,,,,,,,,,,,,,,,,,,,,,,,,
,,,,,,60dc1397b91eb34c1687d694,62c539e5a9e5fb366c1df9a7,2022-07-06_09h27.34.532,Colour_Asymmetry_Pilot,2022.1.3,Win32,59.73002031,62c50e9c1127f2cd403a315f,,,,,,,,,,,,,,,,,,,,onetwo,,-2,1.0168,,,,,,,,,,,,,,,,,,,,,,,,,,,,,,,,,,"[-0.20799999999999996,-0.655,-0.01980000000000004]","[-0.8118,-0.8198,-0.5452]",-65,-35.5,1,0,0,response5disk,9,-1.5,1,0,0,rectangle,9,-1.5,1,0,0,,3,1E-04,0,9,-1.5,1,0,0,0,3,3,56,1,56,first,,,,,,,,,,,,,,,,,,,,,,,,,,,,,,,,,,,,,,,,,,,,,,,,,,,,,,,,,,,,,,,,,,,,,,,,
,,,,,,60dc1397b91eb34c1687d694,62c539e5a9e5fb366c1df9a7,2022-07-06_09h27.34.532,Colour_Asymmetry_Pilot,2022.1.3,Win32,59.73002031,62c50e9c1127f2cd403a315f,,,,,,,,,,,,,,,,,,,,onetwo,,-2,0.7992,,,,,,,,,,,,,,,,,,,,,,,,,,,,,,,,,,"[-0.17659999999999998,0.3253999999999999,0.19999999999999996]","[0.3881999999999999,-0.23939999999999995,-0.05040000000000011]",-85,-35.5,1,0,0,response5disk,-6,-2.5,1,0,0,rectangle,-6,-2.5,1,0,0,,2,0.0008,0,-6,-2.5,1,0,0,0,4,4,2,1,2,first,,,,,,,,,,,,,,,,,,,,,,,,,,,,,,,,,,,,,,,,,,,,,,,,,,,,,,,,,,,,,,,,,,,,,,,,
,,,,,,60dc1397b91eb34c1687d694,62c539e5a9e5fb366c1df9a7,2022-07-06_09h27.34.532,Colour_Asymmetry_Pilot,2022.1.3,Win32,59.73002031,62c50e9c1127f2cd403a315f,,,,,,,,,,,,,,,,,,,,threeone,,-2,0.6976,,,,,,,,,,,,,,,,,,,,,,,,,,,,,,,,,,"[-0.011800000000000033,-0.906,-0.45100000000000007]","[-0.8982,-0.37259999999999993,0.2784]",-70,-32.5,1,0,0,response5disk,12,9.5,1,0,0,rectangle,12,9.5,1,0,0,,1,0.0005,0,12,9.5,1,0,0,0,5,5,68,1,68,first,,,,,,,,,,,,,,,,,,,,,,,,,,,,,,,,,,,,,,,,,,,,,,,,,,,,,,,,,,,,,,,,,,,,,,,,
,,,,,,60dc1397b91eb34c1687d694,62c539e5a9e5fb366c1df9a7,2022-07-06_09h27.34.532,Colour_Asymmetry_Pilot,2022.1.3,Win32,59.73002031,62c50e9c1127f2cd403a315f,,,,,,,,,,,,,,,,,,,,onethree,,-2,0.5998,,,,,,,,,,,,,,,,,,,,,,,,,,,,,,,,,,"[-0.26280000000000003,-0.2158,-0.3256]","[-0.48240000000000005,0.3175999999999999,0.2156]",-83,-34.5,1,0,0,response5disk,2,-6.5,1,0,0,rectangle,2,-6.5,1,0,0,,3,0.0005,0,2,-6.5,1,0,0,0,6,6,92,1,11,second,,,,,,,,,,,,,,,,,,,,,,,,,,,,,,,,,,,,,,,,,,,,,,,,,,,,,,,,,,,,,,,,,,,,,,,,
,,,,,,60dc1397b91eb34c1687d694,62c539e5a9e5fb366c1df9a7,2022-07-06_09h27.34.532,Colour_Asymmetry_Pilot,2022.1.3,Win32,59.73002031,62c50e9c1127f2cd403a315f,,,,,,,,,,,,,,,,,,,,threefour,,-4,2.5995,,,,,,,,,,,,,,,,,,,,,,,,,,,,,,,,,,"[-0.9844,-0.9688,-0.9922]","[-0.30200000000000005,0.14500000000000002,0.2784]",-32,91.5,1,0,0,response7disk,-2,1.5,1,0,0,rectangle,-2,1.5,1,0,0,,2,0.0005,0,-2,1.5,1,0,0,0,7,7,148,1,67,second,,,,,,,,,,,,,,,,,,,,,,,,,,,,,,,,,,,,,,,,,,,,,,,,,,,,,,,,,,,,,,,,,,,,,,,,
,,,,,,60dc1397b91eb34c1687d694,62c539e5a9e5fb366c1df9a7,2022-07-06_09h27.34.532,Colour_Asymmetry_Pilot,2022.1.3,Win32,59.73002031,62c50e9c1127f2cd403a315f,,,,,,,,,,,,,,,,,,,,fourtwo,,-4,2.6329,,,,,,,,,,,,,,,,,,,,,,,,,,,,,,,,,,"[-0.5688,-0.08239999999999992,-0.1844]","[-0.050999999999999934,-0.6706000000000001,-0.804]",-47,84.5,1,0,0,response7disk,13,-4.5,1,0,0,rectangle,13,-4.5,1,0,0,,1,0.0015,0,13,-4.5,1,0,0,0,8,8,48,1,48,first,,,,,,,,,,,,,,,,,,,,,,,,,,,,,,,,,,,,,,,,,,,,,,,,,,,,,,,,,,,,,,,,,,,,,,,,
,,,,,,60dc1397b91eb34c1687d694,62c539e5a9e5fb366c1df9a7,2022-07-06_09h27.34.532,Colour_Asymmetry_Pilot,2022.1.3,Win32,59.73002031,62c50e9c1127f2cd403a315f,,,,,,,,,,,,,,,,,,,,twofour,,-4,3.918,,,,,,,,,,,,,,,,,,,,,,,,,,,,,,,,,,"[0.5528,0.7409999999999999,-0.71]","[0.23120000000000007,-0.7726,-0.34120000000000006]",-45,94.5,1,0,0,response7disk,-4,7.5,1,0,0,rectangle,-4,7.5,1,0,0,,2,0.0008,0,-4,7.5,1,0,0,0,9,9,5,1,5,first,,,,,,,,,,,,,,,,,,,,,,,,,,,,,,,,,,,,,,,,,,,,,,,,,,,,,,,,,,,,,,,,,,,,,,,,
,,,,,,60dc1397b91eb34c1687d694,62c539e5a9e5fb366c1df9a7,2022-07-06_09h27.34.532,Colour_Asymmetry_Pilot,2022.1.3,Win32,59.73002031,62c50e9c1127f2cd403a315f,,,,,,,,,,,,,,,,,,,,twofour,,-4,2.0329,,,,,,,,,,,,,,,,,,,,,,,,,,,,,,,,,,"[0.3802000000000001,0.19199999999999995,-0.6394]","[0.2784,-0.31000000000000005,-0.5452]",-35,60.5,1,0,0,response7disk,-3,1.5,1,0,0,rectangle,-3,1.5,1,0,0,,3,0.0009,0,-3,1.5,1,0,0,0,10,10,70,1,70,first,,,,,,,,,,,,,,,,,,,,,,,,,,,,,,,,,,,,,,,,,,,,,,,,,,,,,,,,,,,,,,,,,,,,,,,,
,,,,,,60dc1397b91eb34c1687d694,62c539e5a9e5fb366c1df9a7,2022-07-06_09h27.34.532,Colour_Asymmetry_Pilot,2022.1.3,Win32,59.73002031,62c50e9c1127f2cd403a315f,,,,,,,,,,,,,,,,,,,,twoone,,-4,0.7992,,,,,,,,,,,,,,,,,,,,,,,,,,,,,,,,,,"[-0.9688,-0.4902000000000001,-0.12159999999999993]","[0.09799999999999986,-0.24719999999999998,0.15280000000000005]",-45,90.5,1,0,0,response7disk,-6,-1.5,1,0,0,rectangle,-6,-1.5,1,0,0,,3,1E-04,0,-6,-1.5,1,0,0,0,11,11,45,1,45,first,,,,,,,,,,,,,,,,,,,,,,,,,,,,,,,,,,,,,,,,,,,,,,,,,,,,,,,,,,,,,,,,,,,,,,,,
,,,,,,60dc1397b91eb34c1687d694,62c539e5a9e5fb366c1df9a7,2022-07-06_09h27.34.532,Colour_Asymmetry_Pilot,2022.1.3,Win32,59.73002031,62c50e9c1127f2cd403a315f,,,,,,,,,,,,,,,,,,,,twofour,,-4,0.6853,,,,,,,,,,,,,,,,,,,,,,,,,,,,,,,,,,"[0.2784,-0.31000000000000005,-0.5452]","[0.3802000000000001,0.19199999999999995,-0.6394]",-36,73.5,1,0,0,response7disk,10,-3.5,1,0,0,rectangle,10,-3.5,1,0,0,,2,0.0025,0,10,-3.5,1,0,0,0,12,12,151,1,70,second,,,,,,,,,,,,,,,,,,,,,,,,,,,,,,,,,,,,,,,,,,,,,,,,,,,,,,,,,,,,,,,,,,,,,,,,
,,,,,,60dc1397b91eb34c1687d694,62c539e5a9e5fb366c1df9a7,2022-07-06_09h27.34.532,Colour_Asymmetry_Pilot,2022.1.3,Win32,59.73002031,62c50e9c1127f2cd403a315f,,,,,,,,,,,,,,,,,,,,threeone,,-4,0.8027,,,,,,,,,,,,,,,,,,,,,,,,,,,,,,,,,,"[0.796,0.2156,-0.27859999999999996]","[-0.10599999999999998,-0.10599999999999998,0.5841999999999998]",-45,73.5,1,0,0,response7disk,2,-3.5,1,0,0,rectangle,2,-3.5,1,0,0,,1,0.0009,0,2,-3.5,1,0,0,0,13,13,108,1,27,second,,,,,,,,,,,,,,,,,,,,,,,,,,,,,,,,,,,,,,,,,,,,,,,,,,,,,,,,,,,,,,,,,,,,,,,,
,,,,,,60dc1397b91eb34c1687d694,62c539e5a9e5fb366c1df9a7,2022-07-06_09h27.34.532,Colour_Asymmetry_Pilot,2022.1.3,Win32,59.73002031,62c50e9c1127f2cd403a315f,,,,,,,,,,,,,,,,,,,,onetwo,,-4,1,,,,,,,,,,,,,,,,,,,,,,,,,,,,,,,,,,"[-0.26280000000000003,-0.4746,-0.2158]","[-0.24719999999999998,0.5213999999999999,-0.12959999999999994]",-56,85.5,1,0,0,response7disk,3,-4.5,1,0,0,rectangle,3,-4.5,1,0,0,,2,0.0009,0,3,-4.5,1,0,0,0,14,14,132,1,51,second,,,,,,,,,,,,,,,,,,,,,,,,,,,,,,,,,,,,,,,,,,,,,,,,,,,,,,,,,,,,,,,,,,,,,,,,
,,,,,,60dc1397b91eb34c1687d694,62c539e5a9e5fb366c1df9a7,2022-07-06_09h27.34.532,Colour_Asymmetry_Pilot,2022.1.3,Win32,59.73002031,62c50e9c1127f2cd403a315f,,,,,,,,,,,,,,,,,,,,onethree,,-4,0.7188,,,,,,,,,,,,,,,,,,,,,,,,,,,,,,,,,,"[-0.4668,-0.8746,-0.2942]","[0.3881999999999999,-0.23939999999999995,-0.05040000000000011]",-49,85.5,1,0,0,response7disk,19,-3.5,1,0,0,rectangle,19,-3.5,1,0,0,,1,0.0006,0,19,-3.5,1,0,0,0,15,15,93,1,12,second,,,,,,,,,,,,,,,,,,,,,,,,,,,,,,,,,,,,,,,,,,,,,,,,,,,,,,,,,,,,,,,,,,,,,,,,
,,,,,,60dc1397b91eb34c1687d694,62c539e5a9e5fb366c1df9a7,2022-07-06_09h27.34.532,Colour_Asymmetry_Pilot,2022.1.3,Win32,59.73002031,62c50e9c1127f2cd403a315f,,,,,,,,,,,,,,,,,,,,threeone,,4,2.3998,,,,,,,,,,,,,,,,,,,,,,,,,,,,,,,,,,"[-0.9216,-0.5529999999999999,-0.3962]","[-0.5688,-0.08239999999999992,-0.1844]",27,85.5,1,0,0,response1disk,1,-3.5,1,0,0,rectangle,1,-3.5,1,0,0,,1,1E-04,0,1,-3.5,1,0,0,0,16,16,135,1,54,second,,,,,,,,,,,,,,,,,,,,,,,,,,,,,,,,,,,,,,,,,,,,,,,,,,,,,,,,,,,,,,,,,,,,,,,,
