trials.thisRepN,trials.thisTrialN,trials.thisN,trials.thisIndex,trials.ran,Colourcodes,participant,session,date,expName,psychopyVersion,OS,frameRate,study_id,trials_4.thisRepN,trials_4.thisTrialN,trials_4.thisN,trials_4.thisIndex,trials_4.ran,StimulusPos,key_resp.keys,key_resp.rt,key_resp_2.keys,key_resp_2.rt,key_resp_15.keys,key_resp_15.rt,key_resp_17.keys,key_resp_17.rt,key_resp_9.keys,key_resp_9.rt,key_resp_10.keys,key_resp_10.rt,Circle1_col,Ecc,Circle2_col,similarity,response_time,mouse_5.x,mouse_5.y,mouse_5.leftButton,mouse_5.midButton,mouse_5.rightButton,mouse_5.clicked_name,mouse_10.x,mouse_10.y,mouse_10.leftButton,mouse_10.midButton,mouse_10.rightButton,mouse_10.clicked_name,mouse_7.x,mouse_7.y,mouse_7.leftButton,mouse_7.midButton,mouse_7.rightButton,mouse_7.clicked_name,catchprac,catchnumberprac,mouse_6.x,mouse_6.y,mouse_6.leftButton,mouse_6.midButton,mouse_6.rightButton,mouse_6.clicked_name,duringprac.thisRepN,duringprac.thisTrialN,duringprac.thisN,duringprac.thisIndex,duringprac.ran,key_resp_22.keys,key_resp_22.rt,Circle1_colour,Circle2_colour,mouse.x,mouse.y,mouse.leftButton,mouse.midButton,mouse.rightButton,mouse.clicked_name,mouse_2.x,mouse_2.y,mouse_2.leftButton,mouse_2.midButton,mouse_2.rightButton,mouse_2.clicked_name,mouse_3.x,mouse_3.y,mouse_3.leftButton,mouse_3.midButton,mouse_3.rightButton,catchresponse,catchnumber,response_time_catch,Catch,mouse_11.x,mouse_11.y,mouse_11.leftButton,mouse_11.midButton,mouse_11.rightButton,trials_2.thisRepN,trials_2.thisTrialN,trials_2.thisN,trials_2.thisIndex,trials_2.ran,Colourpair,Temporder,mouse_3.clicked_name,mouse_11.clicked_name,trials_3.thisRepN,trials_3.thisTrialN,trials_3.thisN,trials_3.thisIndex,trials_3.ran,key_resp_instr_Ishi.keys,key_resp_instr_Ishi.rt,Ishi_trial_keyresp.keys,Ishi_trial_keyresp.rt,Ishi_textbox.text,Ishi_mouse.x,Ishi_mouse.y,Ishi_mouse.leftButton,Ishi_mouse.midButton,Ishi_mouse.rightButton,Ishi_loop.thisRepN,Ishi_loop.thisTrialN,Ishi_loop.thisN,Ishi_loop.thisIndex,Ishi_loop.ran,imageaddress,textbox.text,mouse_4.x,mouse_4.y,mouse_4.leftButton,mouse_4.midButton,mouse_4.rightButton,mouse_4.clicked_name,textbox_2.text,mouse_8.x,mouse_8.y,mouse_8.leftButton,mouse_8.midButton,mouse_8.rightButton,mouse_8.clicked_name,textbox_3.text,mouse_9.x,mouse_9.y,mouse_9.leftButton,mouse_9.midButton,mouse_9.rightButton,mouse_9.clicked_name,textbox_4.text,mouse_12.x,mouse_12.y,mouse_12.leftButton,mouse_12.midButton,mouse_12.rightButton,mouse_12.clicked_name,textbox_5.text,mouse_13.x,mouse_13.y,mouse_13.leftButton,mouse_13.midButton,mouse_13.rightButton,mouse_13.clicked_name,textbox_6.text,mouse_14.x,mouse_14.y,mouse_14.leftButton,mouse_14.midButton,mouse_14.rightButton,textbox_7.text,mouse_15.x,mouse_15.y,mouse_15.leftButton,mouse_15.midButton,mouse_15.rightButton
0,0,0,84,1,,5f2289c3248c55000cd85a11,62c53a5516a30c0af6b0f10b,2022-07-06_09h31.45.762,Colour_Asymmetry_Pilot,2022.1.3,Win32,59.90534955,62c50e9c1127f2cd403a315f,,,,,,,,,,,,,,,,,,,,,,,,,,,,,,,,,,,,,,,,,,,,,,,,,,,,,,,,,,,,,,,,,,,,,,,,,,,,,,,,,,,,,,,,,,,,,,,,,,,,,,,,,,,,,,,,,,,,,,,,,,,,,,,,,,,,,,,,,,,,,,,,,,,,,,,,,,,,,,,,,
0,1,1,85,1,,5f2289c3248c55000cd85a11,62c53a5516a30c0af6b0f10b,2022-07-06_09h31.45.762,Colour_Asymmetry_Pilot,2022.1.3,Win32,59.90534955,62c50e9c1127f2cd403a315f,,,,,,,,,,,,,,,,,,,,,,,,,,,,,,,,,,,,,,,,,,,,,,,,,,,,,,,,,,,,,,,,,,,,,,,,,,,,,,,,,,,,,,,,,,,,,,,,,,,,,,,,,,,,,,,,,,,,,,,,,,,,,,,,,,,,,,,,,,,,,,,,,,,,,,,,,,,,,,,,,
0,2,2,59,1,,5f2289c3248c55000cd85a11,62c53a5516a30c0af6b0f10b,2022-07-06_09h31.45.762,Colour_Asymmetry_Pilot,2022.1.3,Win32,59.90534955,62c50e9c1127f2cd403a315f,,,,,,,,,,,,,,,,,,,,,,,,,,,,,,,,,,,,,,,,,,,,,,,,,,,,,,,,,,,,,,,,,,,,,,,,,,,,,,,,,,,,,,,,,,,,,,,,,,,,,,,,,,,,,,,,,,,,,,,,,,,,,,,,,,,,,,,,,,,,,,,,,,,,,,,,,,,,,,,,,
0,3,3,71,1,,5f2289c3248c55000cd85a11,62c53a5516a30c0af6b0f10b,2022-07-06_09h31.45.762,Colour_Asymmetry_Pilot,2022.1.3,Win32,59.90534955,62c50e9c1127f2cd403a315f,,,,,,,,,,,,,,,,,,,,,,,,,,,,,,,,,,,,,,,,,,,,,,,,,,,,,,,,,,,,,,,,,,,,,,,,,,,,,,,,,,,,,,,,,,,,,,,,,,,,,,,,,,,,,,,,,,,,,,,,,,,,,,,,,,,,,,,,,,,,,,,,,,,,,,,,,,,,,,,,,
0,4,4,73,1,,5f2289c3248c55000cd85a11,62c53a5516a30c0af6b0f10b,2022-07-06_09h31.45.762,Colour_Asymmetry_Pilot,2022.1.3,Win32,59.90534955,62c50e9c1127f2cd403a315f,,,,,,,,,,,,,,,,,,,,,,,,,,,,,,,,,,,,,,,,,,,,,,,,,,,,,,,,,,,,,,,,,,,,,,,,,,,,,,,,,,,,,,,,,,,,,,,,,,,,,,,,,,,,,,,,,,,,,,,,,,,,,,,,,,,,,,,,,,,,,,,,,,,,,,,,,,,,,,,,,
0,5,5,78,1,,5f2289c3248c55000cd85a11,62c53a5516a30c0af6b0f10b,2022-07-06_09h31.45.762,Colour_Asymmetry_Pilot,2022.1.3,Win32,59.90534955,62c50e9c1127f2cd403a315f,,,,,,,,,,,,,,,,,,,,,,,,,,,,,,,,,,,,,,,,,,,,,,,,,,,,,,,,,,,,,,,,,,,,,,,,,,,,,,,,,,,,,,,,,,,,,,,,,,,,,,,,,,,,,,,,,,,,,,,,,,,,,,,,,,,,,,,,,,,,,,,,,,,,,,,,,,,,,,,,,
0,6,6,80,1,,5f2289c3248c55000cd85a11,62c53a5516a30c0af6b0f10b,2022-07-06_09h31.45.762,Colour_Asymmetry_Pilot,2022.1.3,Win32,59.90534955,62c50e9c1127f2cd403a315f,,,,,,,,,,,,,,,,,,,,,,,,,,,,,,,,,,,,,,,,,,,,,,,,,,,,,,,,,,,,,,,,,,,,,,,,,,,,,,,,,,,,,,,,,,,,,,,,,,,,,,,,,,,,,,,,,,,,,,,,,,,,,,,,,,,,,,,,,,,,,,,,,,,,,,,,,,,,,,,,,
0,7,7,74,1,,5f2289c3248c55000cd85a11,62c53a5516a30c0af6b0f10b,2022-07-06_09h31.45.762,Colour_Asymmetry_Pilot,2022.1.3,Win32,59.90534955,62c50e9c1127f2cd403a315f,,,,,,,,,,,,,,,,,,,,,,,,,,,,,,,,,,,,,,,,,,,,,,,,,,,,,,,,,,,,,,,,,,,,,,,,,,,,,,,,,,,,,,,,,,,,,,,,,,,,,,,,,,,,,,,,,,,,,,,,,,,,,,,,,,,,,,,,,,,,,,,,,,,,,,,,,,,,,,,,,
0,8,8,51,1,,5f2289c3248c55000cd85a11,62c53a5516a30c0af6b0f10b,2022-07-06_09h31.45.762,Colour_Asymmetry_Pilot,2022.1.3,Win32,59.90534955,62c50e9c1127f2cd403a315f,,,,,,,,,,,,,,,,,,,,,,,,,,,,,,,,,,,,,,,,,,,,,,,,,,,,,,,,,,,,,,,,,,,,,,,,,,,,,,,,,,,,,,,,,,,,,,,,,,,,,,,,,,,,,,,,,,,,,,,,,,,,,,,,,,,,,,,,,,,,,,,,,,,,,,,,,,,,,,,,,
0,9,9,25,1,,5f2289c3248c55000cd85a11,62c53a5516a30c0af6b0f10b,2022-07-06_09h31.45.762,Colour_Asymmetry_Pilot,2022.1.3,Win32,59.90534955,62c50e9c1127f2cd403a315f,,,,,,,,,,,,,,,,,,,,,,,,,,,,,,,,,,,,,,,,,,,,,,,,,,,,,,,,,,,,,,,,,,,,,,,,,,,,,,,,,,,,,,,,,,,,,,,,,,,,,,,,,,,,,,,,,,,,,,,,,,,,,,,,,,,,,,,,,,,,,,,,,,,,,,,,,,,,,,,,,
0,10,10,16,1,,5f2289c3248c55000cd85a11,62c53a5516a30c0af6b0f10b,2022-07-06_09h31.45.762,Colour_Asymmetry_Pilot,2022.1.3,Win32,59.90534955,62c50e9c1127f2cd403a315f,,,,,,,,,,,,,,,,,,,,,,,,,,,,,,,,,,,,,,,,,,,,,,,,,,,,,,,,,,,,,,,,,,,,,,,,,,,,,,,,,,,,,,,,,,,,,,,,,,,,,,,,,,,,,,,,,,,,,,,,,,,,,,,,,,,,,,,,,,,,,,,,,,,,,,,,,,,,,,,,,
0,11,11,87,1,,5f2289c3248c55000cd85a11,62c53a5516a30c0af6b0f10b,2022-07-06_09h31.45.762,Colour_Asymmetry_Pilot,2022.1.3,Win32,59.90534955,62c50e9c1127f2cd403a315f,,,,,,,,,,,,,,,,,,,,,,,,,,,,,,,,,,,,,,,,,,,,,,,,,,,,,,,,,,,,,,,,,,,,,,,,,,,,,,,,,,,,,,,,,,,,,,,,,,,,,,,,,,,,,,,,,,,,,,,,,,,,,,,,,,,,,,,,,,,,,,,,,,,,,,,,,,,,,,,,,
0,12,12,62,1,,5f2289c3248c55000cd85a11,62c53a5516a30c0af6b0f10b,2022-07-06_09h31.45.762,Colour_Asymmetry_Pilot,2022.1.3,Win32,59.90534955,62c50e9c1127f2cd403a315f,,,,,,,,,,,,,,,,,,,,,,,,,,,,,,,,,,,,,,,,,,,,,,,,,,,,,,,,,,,,,,,,,,,,,,,,,,,,,,,,,,,,,,,,,,,,,,,,,,,,,,,,,,,,,,,,,,,,,,,,,,,,,,,,,,,,,,,,,,,,,,,,,,,,,,,,,,,,,,,,,
0,13,13,23,1,,5f2289c3248c55000cd85a11,62c53a5516a30c0af6b0f10b,2022-07-06_09h31.45.762,Colour_Asymmetry_Pilot,2022.1.3,Win32,59.90534955,62c50e9c1127f2cd403a315f,,,,,,,,,,,,,,,,,,,,,,,,,,,,,,,,,,,,,,,,,,,,,,,,,,,,,,,,,,,,,,,,,,,,,,,,,,,,,,,,,,,,,,,,,,,,,,,,,,,,,,,,,,,,,,,,,,,,,,,,,,,,,,,,,,,,,,,,,,,,,,,,,,,,,,,,,,,,,,,,,
0,14,14,68,1,,5f2289c3248c55000cd85a11,62c53a5516a30c0af6b0f10b,2022-07-06_09h31.45.762,Colour_Asymmetry_Pilot,2022.1.3,Win32,59.90534955,62c50e9c1127f2cd403a315f,,,,,,,,,,,,,,,,,,,,,,,,,,,,,,,,,,,,,,,,,,,,,,,,,,,,,,,,,,,,,,,,,,,,,,,,,,,,,,,,,,,,,,,,,,,,,,,,,,,,,,,,,,,,,,,,,,,,,,,,,,,,,,,,,,,,,,,,,,,,,,,,,,,,,,,,,,,,,,,,,
0,15,15,83,1,,5f2289c3248c55000cd85a11,62c53a5516a30c0af6b0f10b,2022-07-06_09h31.45.762,Colour_Asymmetry_Pilot,2022.1.3,Win32,59.90534955,62c50e9c1127f2cd403a315f,,,,,,,,,,,,,,,,,,,,,,,,,,,,,,,,,,,,,,,,,,,,,,,,,,,,,,,,,,,,,,,,,,,,,,,,,,,,,,,,,,,,,,,,,,,,,,,,,,,,,,,,,,,,,,,,,,,,,,,,,,,,,,,,,,,,,,,,,,,,,,,,,,,,,,,,,,,,,,,,,
0,16,16,82,1,,5f2289c3248c55000cd85a11,62c53a5516a30c0af6b0f10b,2022-07-06_09h31.45.762,Colour_Asymmetry_Pilot,2022.1.3,Win32,59.90534955,62c50e9c1127f2cd403a315f,,,,,,,,,,,,,,,,,,,,,,,,,,,,,,,,,,,,,,,,,,,,,,,,,,,,,,,,,,,,,,,,,,,,,,,,,,,,,,,,,,,,,,,,,,,,,,,,,,,,,,,,,,,,,,,,,,,,,,,,,,,,,,,,,,,,,,,,,,,,,,,,,,,,,,,,,,,,,,,,,
0,17,17,5,1,,5f2289c3248c55000cd85a11,62c53a5516a30c0af6b0f10b,2022-07-06_09h31.45.762,Colour_Asymmetry_Pilot,2022.1.3,Win32,59.90534955,62c50e9c1127f2cd403a315f,,,,,,,,,,,,,,,,,,,,,,,,,,,,,,,,,,,,,,,,,,,,,,,,,,,,,,,,,,,,,,,,,,,,,,,,,,,,,,,,,,,,,,,,,,,,,,,,,,,,,,,,,,,,,,,,,,,,,,,,,,,,,,,,,,,,,,,,,,,,,,,,,,,,,,,,,,,,,,,,,
0,18,18,15,1,,5f2289c3248c55000cd85a11,62c53a5516a30c0af6b0f10b,2022-07-06_09h31.45.762,Colour_Asymmetry_Pilot,2022.1.3,Win32,59.90534955,62c50e9c1127f2cd403a315f,,,,,,,,,,,,,,,,,,,,,,,,,,,,,,,,,,,,,,,,,,,,,,,,,,,,,,,,,,,,,,,,,,,,,,,,,,,,,,,,,,,,,,,,,,,,,,,,,,,,,,,,,,,,,,,,,,,,,,,,,,,,,,,,,,,,,,,,,,,,,,,,,,,,,,,,,,,,,,,,,
0,19,19,31,1,,5f2289c3248c55000cd85a11,62c53a5516a30c0af6b0f10b,2022-07-06_09h31.45.762,Colour_Asymmetry_Pilot,2022.1.3,Win32,59.90534955,62c50e9c1127f2cd403a315f,,,,,,,,,,,,,,,,,,,,,,,,,,,,,,,,,,,,,,,,,,,,,,,,,,,,,,,,,,,,,,,,,,,,,,,,,,,,,,,,,,,,,,,,,,,,,,,,,,,,,,,,,,,,,,,,,,,,,,,,,,,,,,,,,,,,,,,,,,,,,,,,,,,,,,,,,,,,,,,,,
0,20,20,19,1,,5f2289c3248c55000cd85a11,62c53a5516a30c0af6b0f10b,2022-07-06_09h31.45.762,Colour_Asymmetry_Pilot,2022.1.3,Win32,59.90534955,62c50e9c1127f2cd403a315f,,,,,,,,,,,,,,,,,,,,,,,,,,,,,,,,,,,,,,,,,,,,,,,,,,,,,,,,,,,,,,,,,,,,,,,,,,,,,,,,,,,,,,,,,,,,,,,,,,,,,,,,,,,,,,,,,,,,,,,,,,,,,,,,,,,,,,,,,,,,,,,,,,,,,,,,,,,,,,,,,
0,21,21,53,1,,5f2289c3248c55000cd85a11,62c53a5516a30c0af6b0f10b,2022-07-06_09h31.45.762,Colour_Asymmetry_Pilot,2022.1.3,Win32,59.90534955,62c50e9c1127f2cd403a315f,,,,,,,,,,,,,,,,,,,,,,,,,,,,,,,,,,,,,,,,,,,,,,,,,,,,,,,,,,,,,,,,,,,,,,,,,,,,,,,,,,,,,,,,,,,,,,,,,,,,,,,,,,,,,,,,,,,,,,,,,,,,,,,,,,,,,,,,,,,,,,,,,,,,,,,,,,,,,,,,,
0,22,22,60,1,,5f2289c3248c55000cd85a11,62c53a5516a30c0af6b0f10b,2022-07-06_09h31.45.762,Colour_Asymmetry_Pilot,2022.1.3,Win32,59.90534955,62c50e9c1127f2cd403a315f,,,,,,,,,,,,,,,,,,,,,,,,,,,,,,,,,,,,,,,,,,,,,,,,,,,,,,,,,,,,,,,,,,,,,,,,,,,,,,,,,,,,,,,,,,,,,,,,,,,,,,,,,,,,,,,,,,,,,,,,,,,,,,,,,,,,,,,,,,,,,,,,,,,,,,,,,,,,,,,,,
0,23,23,72,1,,5f2289c3248c55000cd85a11,62c53a5516a30c0af6b0f10b,2022-07-06_09h31.45.762,Colour_Asymmetry_Pilot,2022.1.3,Win32,59.90534955,62c50e9c1127f2cd403a315f,,,,,,,,,,,,,,,,,,,,,,,,,,,,,,,,,,,,,,,,,,,,,,,,,,,,,,,,,,,,,,,,,,,,,,,,,,,,,,,,,,,,,,,,,,,,,,,,,,,,,,,,,,,,,,,,,,,,,,,,,,,,,,,,,,,,,,,,,,,,,,,,,,,,,,,,,,,,,,,,,
0,24,24,61,1,,5f2289c3248c55000cd85a11,62c53a5516a30c0af6b0f10b,2022-07-06_09h31.45.762,Colour_Asymmetry_Pilot,2022.1.3,Win32,59.90534955,62c50e9c1127f2cd403a315f,,,,,,,,,,,,,,,,,,,,,,,,,,,,,,,,,,,,,,,,,,,,,,,,,,,,,,,,,,,,,,,,,,,,,,,,,,,,,,,,,,,,,,,,,,,,,,,,,,,,,,,,,,,,,,,,,,,,,,,,,,,,,,,,,,,,,,,,,,,,,,,,,,,,,,,,,,,,,,,,,
0,25,25,45,1,,5f2289c3248c55000cd85a11,62c53a5516a30c0af6b0f10b,2022-07-06_09h31.45.762,Colour_Asymmetry_Pilot,2022.1.3,Win32,59.90534955,62c50e9c1127f2cd403a315f,,,,,,,,,,,,,,,,,,,,,,,,,,,,,,,,,,,,,,,,,,,,,,,,,,,,,,,,,,,,,,,,,,,,,,,,,,,,,,,,,,,,,,,,,,,,,,,,,,,,,,,,,,,,,,,,,,,,,,,,,,,,,,,,,,,,,,,,,,,,,,,,,,,,,,,,,,,,,,,,,
0,26,26,8,1,,5f2289c3248c55000cd85a11,62c53a5516a30c0af6b0f10b,2022-07-06_09h31.45.762,Colour_Asymmetry_Pilot,2022.1.3,Win32,59.90534955,62c50e9c1127f2cd403a315f,,,,,,,,,,,,,,,,,,,,,,,,,,,,,,,,,,,,,,,,,,,,,,,,,,,,,,,,,,,,,,,,,,,,,,,,,,,,,,,,,,,,,,,,,,,,,,,,,,,,,,,,,,,,,,,,,,,,,,,,,,,,,,,,,,,,,,,,,,,,,,,,,,,,,,,,,,,,,,,,,
0,27,27,52,1,,5f2289c3248c55000cd85a11,62c53a5516a30c0af6b0f10b,2022-07-06_09h31.45.762,Colour_Asymmetry_Pilot,2022.1.3,Win32,59.90534955,62c50e9c1127f2cd403a315f,,,,,,,,,,,,,,,,,,,,,,,,,,,,,,,,,,,,,,,,,,,,,,,,,,,,,,,,,,,,,,,,,,,,,,,,,,,,,,,,,,,,,,,,,,,,,,,,,,,,,,,,,,,,,,,,,,,,,,,,,,,,,,,,,,,,,,,,,,,,,,,,,,,,,,,,,,,,,,,,,
0,28,28,90,1,,5f2289c3248c55000cd85a11,62c53a5516a30c0af6b0f10b,2022-07-06_09h31.45.762,Colour_Asymmetry_Pilot,2022.1.3,Win32,59.90534955,62c50e9c1127f2cd403a315f,,,,,,,,,,,,,,,,,,,,,,,,,,,,,,,,,,,,,,,,,,,,,,,,,,,,,,,,,,,,,,,,,,,,,,,,,,,,,,,,,,,,,,,,,,,,,,,,,,,,,,,,,,,,,,,,,,,,,,,,,,,,,,,,,,,,,,,,,,,,,,,,,,,,,,,,,,,,,,,,,
0,29,29,64,1,,5f2289c3248c55000cd85a11,62c53a5516a30c0af6b0f10b,2022-07-06_09h31.45.762,Colour_Asymmetry_Pilot,2022.1.3,Win32,59.90534955,62c50e9c1127f2cd403a315f,,,,,,,,,,,,,,,,,,,,,,,,,,,,,,,,,,,,,,,,,,,,,,,,,,,,,,,,,,,,,,,,,,,,,,,,,,,,,,,,,,,,,,,,,,,,,,,,,,,,,,,,,,,,,,,,,,,,,,,,,,,,,,,,,,,,,,,,,,,,,,,,,,,,,,,,,,,,,,,,,
0,30,30,13,1,,5f2289c3248c55000cd85a11,62c53a5516a30c0af6b0f10b,2022-07-06_09h31.45.762,Colour_Asymmetry_Pilot,2022.1.3,Win32,59.90534955,62c50e9c1127f2cd403a315f,,,,,,,,,,,,,,,,,,,,,,,,,,,,,,,,,,,,,,,,,,,,,,,,,,,,,,,,,,,,,,,,,,,,,,,,,,,,,,,,,,,,,,,,,,,,,,,,,,,,,,,,,,,,,,,,,,,,,,,,,,,,,,,,,,,,,,,,,,,,,,,,,,,,,,,,,,,,,,,,,
0,31,31,35,1,,5f2289c3248c55000cd85a11,62c53a5516a30c0af6b0f10b,2022-07-06_09h31.45.762,Colour_Asymmetry_Pilot,2022.1.3,Win32,59.90534955,62c50e9c1127f2cd403a315f,,,,,,,,,,,,,,,,,,,,,,,,,,,,,,,,,,,,,,,,,,,,,,,,,,,,,,,,,,,,,,,,,,,,,,,,,,,,,,,,,,,,,,,,,,,,,,,,,,,,,,,,,,,,,,,,,,,,,,,,,,,,,,,,,,,,,,,,,,,,,,,,,,,,,,,,,,,,,,,,,
0,32,32,47,1,,5f2289c3248c55000cd85a11,62c53a5516a30c0af6b0f10b,2022-07-06_09h31.45.762,Colour_Asymmetry_Pilot,2022.1.3,Win32,59.90534955,62c50e9c1127f2cd403a315f,,,,,,,,,,,,,,,,,,,,,,,,,,,,,,,,,,,,,,,,,,,,,,,,,,,,,,,,,,,,,,,,,,,,,,,,,,,,,,,,,,,,,,,,,,,,,,,,,,,,,,,,,,,,,,,,,,,,,,,,,,,,,,,,,,,,,,,,,,,,,,,,,,,,,,,,,,,,,,,,,
0,33,33,41,1,,5f2289c3248c55000cd85a11,62c53a5516a30c0af6b0f10b,2022-07-06_09h31.45.762,Colour_Asymmetry_Pilot,2022.1.3,Win32,59.90534955,62c50e9c1127f2cd403a315f,,,,,,,,,,,,,,,,,,,,,,,,,,,,,,,,,,,,,,,,,,,,,,,,,,,,,,,,,,,,,,,,,,,,,,,,,,,,,,,,,,,,,,,,,,,,,,,,,,,,,,,,,,,,,,,,,,,,,,,,,,,,,,,,,,,,,,,,,,,,,,,,,,,,,,,,,,,,,,,,,
0,34,34,22,1,,5f2289c3248c55000cd85a11,62c53a5516a30c0af6b0f10b,2022-07-06_09h31.45.762,Colour_Asymmetry_Pilot,2022.1.3,Win32,59.90534955,62c50e9c1127f2cd403a315f,,,,,,,,,,,,,,,,,,,,,,,,,,,,,,,,,,,,,,,,,,,,,,,,,,,,,,,,,,,,,,,,,,,,,,,,,,,,,,,,,,,,,,,,,,,,,,,,,,,,,,,,,,,,,,,,,,,,,,,,,,,,,,,,,,,,,,,,,,,,,,,,,,,,,,,,,,,,,,,,,
0,35,35,79,1,,5f2289c3248c55000cd85a11,62c53a5516a30c0af6b0f10b,2022-07-06_09h31.45.762,Colour_Asymmetry_Pilot,2022.1.3,Win32,59.90534955,62c50e9c1127f2cd403a315f,,,,,,,,,,,,,,,,,,,,,,,,,,,,,,,,,,,,,,,,,,,,,,,,,,,,,,,,,,,,,,,,,,,,,,,,,,,,,,,,,,,,,,,,,,,,,,,,,,,,,,,,,,,,,,,,,,,,,,,,,,,,,,,,,,,,,,,,,,,,,,,,,,,,,,,,,,,,,,,,,
0,36,36,81,1,,5f2289c3248c55000cd85a11,62c53a5516a30c0af6b0f10b,2022-07-06_09h31.45.762,Colour_Asymmetry_Pilot,2022.1.3,Win32,59.90534955,62c50e9c1127f2cd403a315f,,,,,,,,,,,,,,,,,,,,,,,,,,,,,,,,,,,,,,,,,,,,,,,,,,,,,,,,,,,,,,,,,,,,,,,,,,,,,,,,,,,,,,,,,,,,,,,,,,,,,,,,,,,,,,,,,,,,,,,,,,,,,,,,,,,,,,,,,,,,,,,,,,,,,,,,,,,,,,,,,
0,37,37,3,1,,5f2289c3248c55000cd85a11,62c53a5516a30c0af6b0f10b,2022-07-06_09h31.45.762,Colour_Asymmetry_Pilot,2022.1.3,Win32,59.90534955,62c50e9c1127f2cd403a315f,,,,,,,,,,,,,,,,,,,,,,,,,,,,,,,,,,,,,,,,,,,,,,,,,,,,,,,,,,,,,,,,,,,,,,,,,,,,,,,,,,,,,,,,,,,,,,,,,,,,,,,,,,,,,,,,,,,,,,,,,,,,,,,,,,,,,,,,,,,,,,,,,,,,,,,,,,,,,,,,,
0,38,38,9,1,,5f2289c3248c55000cd85a11,62c53a5516a30c0af6b0f10b,2022-07-06_09h31.45.762,Colour_Asymmetry_Pilot,2022.1.3,Win32,59.90534955,62c50e9c1127f2cd403a315f,,,,,,,,,,,,,,,,,,,,,,,,,,,,,,,,,,,,,,,,,,,,,,,,,,,,,,,,,,,,,,,,,,,,,,,,,,,,,,,,,,,,,,,,,,,,,,,,,,,,,,,,,,,,,,,,,,,,,,,,,,,,,,,,,,,,,,,,,,,,,,,,,,,,,,,,,,,,,,,,,
0,39,39,43,1,,5f2289c3248c55000cd85a11,62c53a5516a30c0af6b0f10b,2022-07-06_09h31.45.762,Colour_Asymmetry_Pilot,2022.1.3,Win32,59.90534955,62c50e9c1127f2cd403a315f,,,,,,,,,,,,,,,,,,,,,,,,,,,,,,,,,,,,,,,,,,,,,,,,,,,,,,,,,,,,,,,,,,,,,,,,,,,,,,,,,,,,,,,,,,,,,,,,,,,,,,,,,,,,,,,,,,,,,,,,,,,,,,,,,,,,,,,,,,,,,,,,,,,,,,,,,,,,,,,,,
0,40,40,28,1,,5f2289c3248c55000cd85a11,62c53a5516a30c0af6b0f10b,2022-07-06_09h31.45.762,Colour_Asymmetry_Pilot,2022.1.3,Win32,59.90534955,62c50e9c1127f2cd403a315f,,,,,,,,,,,,,,,,,,,,,,,,,,,,,,,,,,,,,,,,,,,,,,,,,,,,,,,,,,,,,,,,,,,,,,,,,,,,,,,,,,,,,,,,,,,,,,,,,,,,,,,,,,,,,,,,,,,,,,,,,,,,,,,,,,,,,,,,,,,,,,,,,,,,,,,,,,,,,,,,,
0,41,41,63,1,,5f2289c3248c55000cd85a11,62c53a5516a30c0af6b0f10b,2022-07-06_09h31.45.762,Colour_Asymmetry_Pilot,2022.1.3,Win32,59.90534955,62c50e9c1127f2cd403a315f,,,,,,,,,,,,,,,,,,,,,,,,,,,,,,,,,,,,,,,,,,,,,,,,,,,,,,,,,,,,,,,,,,,,,,,,,,,,,,,,,,,,,,,,,,,,,,,,,,,,,,,,,,,,,,,,,,,,,,,,,,,,,,,,,,,,,,,,,,,,,,,,,,,,,,,,,,,,,,,,,
0,42,42,38,1,,5f2289c3248c55000cd85a11,62c53a5516a30c0af6b0f10b,2022-07-06_09h31.45.762,Colour_Asymmetry_Pilot,2022.1.3,Win32,59.90534955,62c50e9c1127f2cd403a315f,,,,,,,,,,,,,,,,,,,,,,,,,,,,,,,,,,,,,,,,,,,,,,,,,,,,,,,,,,,,,,,,,,,,,,,,,,,,,,,,,,,,,,,,,,,,,,,,,,,,,,,,,,,,,,,,,,,,,,,,,,,,,,,,,,,,,,,,,,,,,,,,,,,,,,,,,,,,,,,,,
0,43,43,21,1,,5f2289c3248c55000cd85a11,62c53a5516a30c0af6b0f10b,2022-07-06_09h31.45.762,Colour_Asymmetry_Pilot,2022.1.3,Win32,59.90534955,62c50e9c1127f2cd403a315f,,,,,,,,,,,,,,,,,,,,,,,,,,,,,,,,,,,,,,,,,,,,,,,,,,,,,,,,,,,,,,,,,,,,,,,,,,,,,,,,,,,,,,,,,,,,,,,,,,,,,,,,,,,,,,,,,,,,,,,,,,,,,,,,,,,,,,,,,,,,,,,,,,,,,,,,,,,,,,,,,
0,44,44,46,1,,5f2289c3248c55000cd85a11,62c53a5516a30c0af6b0f10b,2022-07-06_09h31.45.762,Colour_Asymmetry_Pilot,2022.1.3,Win32,59.90534955,62c50e9c1127f2cd403a315f,,,,,,,,,,,,,,,,,,,,,,,,,,,,,,,,,,,,,,,,,,,,,,,,,,,,,,,,,,,,,,,,,,,,,,,,,,,,,,,,,,,,,,,,,,,,,,,,,,,,,,,,,,,,,,,,,,,,,,,,,,,,,,,,,,,,,,,,,,,,,,,,,,,,,,,,,,,,,,,,,
0,45,45,44,1,,5f2289c3248c55000cd85a11,62c53a5516a30c0af6b0f10b,2022-07-06_09h31.45.762,Colour_Asymmetry_Pilot,2022.1.3,Win32,59.90534955,62c50e9c1127f2cd403a315f,,,,,,,,,,,,,,,,,,,,,,,,,,,,,,,,,,,,,,,,,,,,,,,,,,,,,,,,,,,,,,,,,,,,,,,,,,,,,,,,,,,,,,,,,,,,,,,,,,,,,,,,,,,,,,,,,,,,,,,,,,,,,,,,,,,,,,,,,,,,,,,,,,,,,,,,,,,,,,,,,
0,46,46,36,1,,5f2289c3248c55000cd85a11,62c53a5516a30c0af6b0f10b,2022-07-06_09h31.45.762,Colour_Asymmetry_Pilot,2022.1.3,Win32,59.90534955,62c50e9c1127f2cd403a315f,,,,,,,,,,,,,,,,,,,,,,,,,,,,,,,,,,,,,,,,,,,,,,,,,,,,,,,,,,,,,,,,,,,,,,,,,,,,,,,,,,,,,,,,,,,,,,,,,,,,,,,,,,,,,,,,,,,,,,,,,,,,,,,,,,,,,,,,,,,,,,,,,,,,,,,,,,,,,,,,,
0,47,47,86,1,,5f2289c3248c55000cd85a11,62c53a5516a30c0af6b0f10b,2022-07-06_09h31.45.762,Colour_Asymmetry_Pilot,2022.1.3,Win32,59.90534955,62c50e9c1127f2cd403a315f,,,,,,,,,,,,,,,,,,,,,,,,,,,,,,,,,,,,,,,,,,,,,,,,,,,,,,,,,,,,,,,,,,,,,,,,,,,,,,,,,,,,,,,,,,,,,,,,,,,,,,,,,,,,,,,,,,,,,,,,,,,,,,,,,,,,,,,,,,,,,,,,,,,,,,,,,,,,,,,,,
0,48,48,40,1,,5f2289c3248c55000cd85a11,62c53a5516a30c0af6b0f10b,2022-07-06_09h31.45.762,Colour_Asymmetry_Pilot,2022.1.3,Win32,59.90534955,62c50e9c1127f2cd403a315f,,,,,,,,,,,,,,,,,,,,,,,,,,,,,,,,,,,,,,,,,,,,,,,,,,,,,,,,,,,,,,,,,,,,,,,,,,,,,,,,,,,,,,,,,,,,,,,,,,,,,,,,,,,,,,,,,,,,,,,,,,,,,,,,,,,,,,,,,,,,,,,,,,,,,,,,,,,,,,,,,
0,49,49,14,1,,5f2289c3248c55000cd85a11,62c53a5516a30c0af6b0f10b,2022-07-06_09h31.45.762,Colour_Asymmetry_Pilot,2022.1.3,Win32,59.90534955,62c50e9c1127f2cd403a315f,,,,,,,,,,,,,,,,,,,,,,,,,,,,,,,,,,,,,,,,,,,,,,,,,,,,,,,,,,,,,,,,,,,,,,,,,,,,,,,,,,,,,,,,,,,,,,,,,,,,,,,,,,,,,,,,,,,,,,,,,,,,,,,,,,,,,,,,,,,,,,,,,,,,,,,,,,,,,,,,,
0,50,50,54,1,,5f2289c3248c55000cd85a11,62c53a5516a30c0af6b0f10b,2022-07-06_09h31.45.762,Colour_Asymmetry_Pilot,2022.1.3,Win32,59.90534955,62c50e9c1127f2cd403a315f,,,,,,,,,,,,,,,,,,,,,,,,,,,,,,,,,,,,,,,,,,,,,,,,,,,,,,,,,,,,,,,,,,,,,,,,,,,,,,,,,,,,,,,,,,,,,,,,,,,,,,,,,,,,,,,,,,,,,,,,,,,,,,,,,,,,,,,,,,,,,,,,,,,,,,,,,,,,,,,,,
0,51,51,32,1,,5f2289c3248c55000cd85a11,62c53a5516a30c0af6b0f10b,2022-07-06_09h31.45.762,Colour_Asymmetry_Pilot,2022.1.3,Win32,59.90534955,62c50e9c1127f2cd403a315f,,,,,,,,,,,,,,,,,,,,,,,,,,,,,,,,,,,,,,,,,,,,,,,,,,,,,,,,,,,,,,,,,,,,,,,,,,,,,,,,,,,,,,,,,,,,,,,,,,,,,,,,,,,,,,,,,,,,,,,,,,,,,,,,,,,,,,,,,,,,,,,,,,,,,,,,,,,,,,,,,
0,52,52,92,1,,5f2289c3248c55000cd85a11,62c53a5516a30c0af6b0f10b,2022-07-06_09h31.45.762,Colour_Asymmetry_Pilot,2022.1.3,Win32,59.90534955,62c50e9c1127f2cd403a315f,,,,,,,,,,,,,,,,,,,,,,,,,,,,,,,,,,,,,,,,,,,,,,,,,,,,,,,,,,,,,,,,,,,,,,,,,,,,,,,,,,,,,,,,,,,,,,,,,,,,,,,,,,,,,,,,,,,,,,,,,,,,,,,,,,,,,,,,,,,,,,,,,,,,,,,,,,,,,,,,,
0,53,53,76,1,,5f2289c3248c55000cd85a11,62c53a5516a30c0af6b0f10b,2022-07-06_09h31.45.762,Colour_Asymmetry_Pilot,2022.1.3,Win32,59.90534955,62c50e9c1127f2cd403a315f,,,,,,,,,,,,,,,,,,,,,,,,,,,,,,,,,,,,,,,,,,,,,,,,,,,,,,,,,,,,,,,,,,,,,,,,,,,,,,,,,,,,,,,,,,,,,,,,,,,,,,,,,,,,,,,,,,,,,,,,,,,,,,,,,,,,,,,,,,,,,,,,,,,,,,,,,,,,,,,,,
0,54,54,48,1,,5f2289c3248c55000cd85a11,62c53a5516a30c0af6b0f10b,2022-07-06_09h31.45.762,Colour_Asymmetry_Pilot,2022.1.3,Win32,59.90534955,62c50e9c1127f2cd403a315f,,,,,,,,,,,,,,,,,,,,,,,,,,,,,,,,,,,,,,,,,,,,,,,,,,,,,,,,,,,,,,,,,,,,,,,,,,,,,,,,,,,,,,,,,,,,,,,,,,,,,,,,,,,,,,,,,,,,,,,,,,,,,,,,,,,,,,,,,,,,,,,,,,,,,,,,,,,,,,,,,
0,55,55,34,1,,5f2289c3248c55000cd85a11,62c53a5516a30c0af6b0f10b,2022-07-06_09h31.45.762,Colour_Asymmetry_Pilot,2022.1.3,Win32,59.90534955,62c50e9c1127f2cd403a315f,,,,,,,,,,,,,,,,,,,,,,,,,,,,,,,,,,,,,,,,,,,,,,,,,,,,,,,,,,,,,,,,,,,,,,,,,,,,,,,,,,,,,,,,,,,,,,,,,,,,,,,,,,,,,,,,,,,,,,,,,,,,,,,,,,,,,,,,,,,,,,,,,,,,,,,,,,,,,,,,,
0,56,56,10,1,,5f2289c3248c55000cd85a11,62c53a5516a30c0af6b0f10b,2022-07-06_09h31.45.762,Colour_Asymmetry_Pilot,2022.1.3,Win32,59.90534955,62c50e9c1127f2cd403a315f,,,,,,,,,,,,,,,,,,,,,,,,,,,,,,,,,,,,,,,,,,,,,,,,,,,,,,,,,,,,,,,,,,,,,,,,,,,,,,,,,,,,,,,,,,,,,,,,,,,,,,,,,,,,,,,,,,,,,,,,,,,,,,,,,,,,,,,,,,,,,,,,,,,,,,,,,,,,,,,,,
0,57,57,42,1,,5f2289c3248c55000cd85a11,62c53a5516a30c0af6b0f10b,2022-07-06_09h31.45.762,Colour_Asymmetry_Pilot,2022.1.3,Win32,59.90534955,62c50e9c1127f2cd403a315f,,,,,,,,,,,,,,,,,,,,,,,,,,,,,,,,,,,,,,,,,,,,,,,,,,,,,,,,,,,,,,,,,,,,,,,,,,,,,,,,,,,,,,,,,,,,,,,,,,,,,,,,,,,,,,,,,,,,,,,,,,,,,,,,,,,,,,,,,,,,,,,,,,,,,,,,,,,,,,,,,
0,58,58,17,1,,5f2289c3248c55000cd85a11,62c53a5516a30c0af6b0f10b,2022-07-06_09h31.45.762,Colour_Asymmetry_Pilot,2022.1.3,Win32,59.90534955,62c50e9c1127f2cd403a315f,,,,,,,,,,,,,,,,,,,,,,,,,,,,,,,,,,,,,,,,,,,,,,,,,,,,,,,,,,,,,,,,,,,,,,,,,,,,,,,,,,,,,,,,,,,,,,,,,,,,,,,,,,,,,,,,,,,,,,,,,,,,,,,,,,,,,,,,,,,,,,,,,,,,,,,,,,,,,,,,,
0,59,59,70,1,,5f2289c3248c55000cd85a11,62c53a5516a30c0af6b0f10b,2022-07-06_09h31.45.762,Colour_Asymmetry_Pilot,2022.1.3,Win32,59.90534955,62c50e9c1127f2cd403a315f,,,,,,,,,,,,,,,,,,,,,,,,,,,,,,,,,,,,,,,,,,,,,,,,,,,,,,,,,,,,,,,,,,,,,,,,,,,,,,,,,,,,,,,,,,,,,,,,,,,,,,,,,,,,,,,,,,,,,,,,,,,,,,,,,,,,,,,,,,,,,,,,,,,,,,,,,,,,,,,,,
0,60,60,91,1,,5f2289c3248c55000cd85a11,62c53a5516a30c0af6b0f10b,2022-07-06_09h31.45.762,Colour_Asymmetry_Pilot,2022.1.3,Win32,59.90534955,62c50e9c1127f2cd403a315f,,,,,,,,,,,,,,,,,,,,,,,,,,,,,,,,,,,,,,,,,,,,,,,,,,,,,,,,,,,,,,,,,,,,,,,,,,,,,,,,,,,,,,,,,,,,,,,,,,,,,,,,,,,,,,,,,,,,,,,,,,,,,,,,,,,,,,,,,,,,,,,,,,,,,,,,,,,,,,,,,
0,61,61,6,1,,5f2289c3248c55000cd85a11,62c53a5516a30c0af6b0f10b,2022-07-06_09h31.45.762,Colour_Asymmetry_Pilot,2022.1.3,Win32,59.90534955,62c50e9c1127f2cd403a315f,,,,,,,,,,,,,,,,,,,,,,,,,,,,,,,,,,,,,,,,,,,,,,,,,,,,,,,,,,,,,,,,,,,,,,,,,,,,,,,,,,,,,,,,,,,,,,,,,,,,,,,,,,,,,,,,,,,,,,,,,,,,,,,,,,,,,,,,,,,,,,,,,,,,,,,,,,,,,,,,,
0,62,62,88,1,,5f2289c3248c55000cd85a11,62c53a5516a30c0af6b0f10b,2022-07-06_09h31.45.762,Colour_Asymmetry_Pilot,2022.1.3,Win32,59.90534955,62c50e9c1127f2cd403a315f,,,,,,,,,,,,,,,,,,,,,,,,,,,,,,,,,,,,,,,,,,,,,,,,,,,,,,,,,,,,,,,,,,,,,,,,,,,,,,,,,,,,,,,,,,,,,,,,,,,,,,,,,,,,,,,,,,,,,,,,,,,,,,,,,,,,,,,,,,,,,,,,,,,,,,,,,,,,,,,,,
0,63,63,56,1,,5f2289c3248c55000cd85a11,62c53a5516a30c0af6b0f10b,2022-07-06_09h31.45.762,Colour_Asymmetry_Pilot,2022.1.3,Win32,59.90534955,62c50e9c1127f2cd403a315f,,,,,,,,,,,,,,,,,,,,,,,,,,,,,,,,,,,,,,,,,,,,,,,,,,,,,,,,,,,,,,,,,,,,,,,,,,,,,,,,,,,,,,,,,,,,,,,,,,,,,,,,,,,,,,,,,,,,,,,,,,,,,,,,,,,,,,,,,,,,,,,,,,,,,,,,,,,,,,,,,
0,64,64,66,1,,5f2289c3248c55000cd85a11,62c53a5516a30c0af6b0f10b,2022-07-06_09h31.45.762,Colour_Asymmetry_Pilot,2022.1.3,Win32,59.90534955,62c50e9c1127f2cd403a315f,,,,,,,,,,,,,,,,,,,,,,,,,,,,,,,,,,,,,,,,,,,,,,,,,,,,,,,,,,,,,,,,,,,,,,,,,,,,,,,,,,,,,,,,,,,,,,,,,,,,,,,,,,,,,,,,,,,,,,,,,,,,,,,,,,,,,,,,,,,,,,,,,,,,,,,,,,,,,,,,,
0,65,65,77,1,,5f2289c3248c55000cd85a11,62c53a5516a30c0af6b0f10b,2022-07-06_09h31.45.762,Colour_Asymmetry_Pilot,2022.1.3,Win32,59.90534955,62c50e9c1127f2cd403a315f,,,,,,,,,,,,,,,,,,,,,,,,,,,,,,,,,,,,,,,,,,,,,,,,,,,,,,,,,,,,,,,,,,,,,,,,,,,,,,,,,,,,,,,,,,,,,,,,,,,,,,,,,,,,,,,,,,,,,,,,,,,,,,,,,,,,,,,,,,,,,,,,,,,,,,,,,,,,,,,,,
0,66,66,65,1,,5f2289c3248c55000cd85a11,62c53a5516a30c0af6b0f10b,2022-07-06_09h31.45.762,Colour_Asymmetry_Pilot,2022.1.3,Win32,59.90534955,62c50e9c1127f2cd403a315f,,,,,,,,,,,,,,,,,,,,,,,,,,,,,,,,,,,,,,,,,,,,,,,,,,,,,,,,,,,,,,,,,,,,,,,,,,,,,,,,,,,,,,,,,,,,,,,,,,,,,,,,,,,,,,,,,,,,,,,,,,,,,,,,,,,,,,,,,,,,,,,,,,,,,,,,,,,,,,,,,
0,67,67,1,1,,5f2289c3248c55000cd85a11,62c53a5516a30c0af6b0f10b,2022-07-06_09h31.45.762,Colour_Asymmetry_Pilot,2022.1.3,Win32,59.90534955,62c50e9c1127f2cd403a315f,,,,,,,,,,,,,,,,,,,,,,,,,,,,,,,,,,,,,,,,,,,,,,,,,,,,,,,,,,,,,,,,,,,,,,,,,,,,,,,,,,,,,,,,,,,,,,,,,,,,,,,,,,,,,,,,,,,,,,,,,,,,,,,,,,,,,,,,,,,,,,,,,,,,,,,,,,,,,,,,,
0,68,68,18,1,,5f2289c3248c55000cd85a11,62c53a5516a30c0af6b0f10b,2022-07-06_09h31.45.762,Colour_Asymmetry_Pilot,2022.1.3,Win32,59.90534955,62c50e9c1127f2cd403a315f,,,,,,,,,,,,,,,,,,,,,,,,,,,,,,,,,,,,,,,,,,,,,,,,,,,,,,,,,,,,,,,,,,,,,,,,,,,,,,,,,,,,,,,,,,,,,,,,,,,,,,,,,,,,,,,,,,,,,,,,,,,,,,,,,,,,,,,,,,,,,,,,,,,,,,,,,,,,,,,,,
0,69,69,30,1,,5f2289c3248c55000cd85a11,62c53a5516a30c0af6b0f10b,2022-07-06_09h31.45.762,Colour_Asymmetry_Pilot,2022.1.3,Win32,59.90534955,62c50e9c1127f2cd403a315f,,,,,,,,,,,,,,,,,,,,,,,,,,,,,,,,,,,,,,,,,,,,,,,,,,,,,,,,,,,,,,,,,,,,,,,,,,,,,,,,,,,,,,,,,,,,,,,,,,,,,,,,,,,,,,,,,,,,,,,,,,,,,,,,,,,,,,,,,,,,,,,,,,,,,,,,,,,,,,,,,
0,70,70,37,1,,5f2289c3248c55000cd85a11,62c53a5516a30c0af6b0f10b,2022-07-06_09h31.45.762,Colour_Asymmetry_Pilot,2022.1.3,Win32,59.90534955,62c50e9c1127f2cd403a315f,,,,,,,,,,,,,,,,,,,,,,,,,,,,,,,,,,,,,,,,,,,,,,,,,,,,,,,,,,,,,,,,,,,,,,,,,,,,,,,,,,,,,,,,,,,,,,,,,,,,,,,,,,,,,,,,,,,,,,,,,,,,,,,,,,,,,,,,,,,,,,,,,,,,,,,,,,,,,,,,,
0,71,71,0,1,,5f2289c3248c55000cd85a11,62c53a5516a30c0af6b0f10b,2022-07-06_09h31.45.762,Colour_Asymmetry_Pilot,2022.1.3,Win32,59.90534955,62c50e9c1127f2cd403a315f,,,,,,,,,,,,,,,,,,,,,,,,,,,,,,,,,,,,,,,,,,,,,,,,,,,,,,,,,,,,,,,,,,,,,,,,,,,,,,,,,,,,,,,,,,,,,,,,,,,,,,,,,,,,,,,,,,,,,,,,,,,,,,,,,,,,,,,,,,,,,,,,,,,,,,,,,,,,,,,,,
0,72,72,89,1,,5f2289c3248c55000cd85a11,62c53a5516a30c0af6b0f10b,2022-07-06_09h31.45.762,Colour_Asymmetry_Pilot,2022.1.3,Win32,59.90534955,62c50e9c1127f2cd403a315f,,,,,,,,,,,,,,,,,,,,,,,,,,,,,,,,,,,,,,,,,,,,,,,,,,,,,,,,,,,,,,,,,,,,,,,,,,,,,,,,,,,,,,,,,,,,,,,,,,,,,,,,,,,,,,,,,,,,,,,,,,,,,,,,,,,,,,,,,,,,,,,,,,,,,,,,,,,,,,,,,
0,73,73,20,1,,5f2289c3248c55000cd85a11,62c53a5516a30c0af6b0f10b,2022-07-06_09h31.45.762,Colour_Asymmetry_Pilot,2022.1.3,Win32,59.90534955,62c50e9c1127f2cd403a315f,,,,,,,,,,,,,,,,,,,,,,,,,,,,,,,,,,,,,,,,,,,,,,,,,,,,,,,,,,,,,,,,,,,,,,,,,,,,,,,,,,,,,,,,,,,,,,,,,,,,,,,,,,,,,,,,,,,,,,,,,,,,,,,,,,,,,,,,,,,,,,,,,,,,,,,,,,,,,,,,,
0,74,74,55,1,,5f2289c3248c55000cd85a11,62c53a5516a30c0af6b0f10b,2022-07-06_09h31.45.762,Colour_Asymmetry_Pilot,2022.1.3,Win32,59.90534955,62c50e9c1127f2cd403a315f,,,,,,,,,,,,,,,,,,,,,,,,,,,,,,,,,,,,,,,,,,,,,,,,,,,,,,,,,,,,,,,,,,,,,,,,,,,,,,,,,,,,,,,,,,,,,,,,,,,,,,,,,,,,,,,,,,,,,,,,,,,,,,,,,,,,,,,,,,,,,,,,,,,,,,,,,,,,,,,,,
0,75,75,2,1,,5f2289c3248c55000cd85a11,62c53a5516a30c0af6b0f10b,2022-07-06_09h31.45.762,Colour_Asymmetry_Pilot,2022.1.3,Win32,59.90534955,62c50e9c1127f2cd403a315f,,,,,,,,,,,,,,,,,,,,,,,,,,,,,,,,,,,,,,,,,,,,,,,,,,,,,,,,,,,,,,,,,,,,,,,,,,,,,,,,,,,,,,,,,,,,,,,,,,,,,,,,,,,,,,,,,,,,,,,,,,,,,,,,,,,,,,,,,,,,,,,,,,,,,,,,,,,,,,,,,
0,76,76,7,1,,5f2289c3248c55000cd85a11,62c53a5516a30c0af6b0f10b,2022-07-06_09h31.45.762,Colour_Asymmetry_Pilot,2022.1.3,Win32,59.90534955,62c50e9c1127f2cd403a315f,,,,,,,,,,,,,,,,,,,,,,,,,,,,,,,,,,,,,,,,,,,,,,,,,,,,,,,,,,,,,,,,,,,,,,,,,,,,,,,,,,,,,,,,,,,,,,,,,,,,,,,,,,,,,,,,,,,,,,,,,,,,,,,,,,,,,,,,,,,,,,,,,,,,,,,,,,,,,,,,,
0,77,77,57,1,,5f2289c3248c55000cd85a11,62c53a5516a30c0af6b0f10b,2022-07-06_09h31.45.762,Colour_Asymmetry_Pilot,2022.1.3,Win32,59.90534955,62c50e9c1127f2cd403a315f,,,,,,,,,,,,,,,,,,,,,,,,,,,,,,,,,,,,,,,,,,,,,,,,,,,,,,,,,,,,,,,,,,,,,,,,,,,,,,,,,,,,,,,,,,,,,,,,,,,,,,,,,,,,,,,,,,,,,,,,,,,,,,,,,,,,,,,,,,,,,,,,,,,,,,,,,,,,,,,,,
0,78,78,11,1,,5f2289c3248c55000cd85a11,62c53a5516a30c0af6b0f10b,2022-07-06_09h31.45.762,Colour_Asymmetry_Pilot,2022.1.3,Win32,59.90534955,62c50e9c1127f2cd403a315f,,,,,,,,,,,,,,,,,,,,,,,,,,,,,,,,,,,,,,,,,,,,,,,,,,,,,,,,,,,,,,,,,,,,,,,,,,,,,,,,,,,,,,,,,,,,,,,,,,,,,,,,,,,,,,,,,,,,,,,,,,,,,,,,,,,,,,,,,,,,,,,,,,,,,,,,,,,,,,,,,
0,79,79,33,1,,5f2289c3248c55000cd85a11,62c53a5516a30c0af6b0f10b,2022-07-06_09h31.45.762,Colour_Asymmetry_Pilot,2022.1.3,Win32,59.90534955,62c50e9c1127f2cd403a315f,,,,,,,,,,,,,,,,,,,,,,,,,,,,,,,,,,,,,,,,,,,,,,,,,,,,,,,,,,,,,,,,,,,,,,,,,,,,,,,,,,,,,,,,,,,,,,,,,,,,,,,,,,,,,,,,,,,,,,,,,,,,,,,,,,,,,,,,,,,,,,,,,,,,,,,,,,,,,,,,,
0,80,80,49,1,,5f2289c3248c55000cd85a11,62c53a5516a30c0af6b0f10b,2022-07-06_09h31.45.762,Colour_Asymmetry_Pilot,2022.1.3,Win32,59.90534955,62c50e9c1127f2cd403a315f,,,,,,,,,,,,,,,,,,,,,,,,,,,,,,,,,,,,,,,,,,,,,,,,,,,,,,,,,,,,,,,,,,,,,,,,,,,,,,,,,,,,,,,,,,,,,,,,,,,,,,,,,,,,,,,,,,,,,,,,,,,,,,,,,,,,,,,,,,,,,,,,,,,,,,,,,,,,,,,,,
0,81,81,67,1,,5f2289c3248c55000cd85a11,62c53a5516a30c0af6b0f10b,2022-07-06_09h31.45.762,Colour_Asymmetry_Pilot,2022.1.3,Win32,59.90534955,62c50e9c1127f2cd403a315f,,,,,,,,,,,,,,,,,,,,,,,,,,,,,,,,,,,,,,,,,,,,,,,,,,,,,,,,,,,,,,,,,,,,,,,,,,,,,,,,,,,,,,,,,,,,,,,,,,,,,,,,,,,,,,,,,,,,,,,,,,,,,,,,,,,,,,,,,,,,,,,,,,,,,,,,,,,,,,,,,
0,82,82,24,1,,5f2289c3248c55000cd85a11,62c53a5516a30c0af6b0f10b,2022-07-06_09h31.45.762,Colour_Asymmetry_Pilot,2022.1.3,Win32,59.90534955,62c50e9c1127f2cd403a315f,,,,,,,,,,,,,,,,,,,,,,,,,,,,,,,,,,,,,,,,,,,,,,,,,,,,,,,,,,,,,,,,,,,,,,,,,,,,,,,,,,,,,,,,,,,,,,,,,,,,,,,,,,,,,,,,,,,,,,,,,,,,,,,,,,,,,,,,,,,,,,,,,,,,,,,,,,,,,,,,,
0,83,83,26,1,,5f2289c3248c55000cd85a11,62c53a5516a30c0af6b0f10b,2022-07-06_09h31.45.762,Colour_Asymmetry_Pilot,2022.1.3,Win32,59.90534955,62c50e9c1127f2cd403a315f,,,,,,,,,,,,,,,,,,,,,,,,,,,,,,,,,,,,,,,,,,,,,,,,,,,,,,,,,,,,,,,,,,,,,,,,,,,,,,,,,,,,,,,,,,,,,,,,,,,,,,,,,,,,,,,,,,,,,,,,,,,,,,,,,,,,,,,,,,,,,,,,,,,,,,,,,,,,,,,,,
0,84,84,39,1,,5f2289c3248c55000cd85a11,62c53a5516a30c0af6b0f10b,2022-07-06_09h31.45.762,Colour_Asymmetry_Pilot,2022.1.3,Win32,59.90534955,62c50e9c1127f2cd403a315f,,,,,,,,,,,,,,,,,,,,,,,,,,,,,,,,,,,,,,,,,,,,,,,,,,,,,,,,,,,,,,,,,,,,,,,,,,,,,,,,,,,,,,,,,,,,,,,,,,,,,,,,,,,,,,,,,,,,,,,,,,,,,,,,,,,,,,,,,,,,,,,,,,,,,,,,,,,,,,,,,
0,85,85,75,1,,5f2289c3248c55000cd85a11,62c53a5516a30c0af6b0f10b,2022-07-06_09h31.45.762,Colour_Asymmetry_Pilot,2022.1.3,Win32,59.90534955,62c50e9c1127f2cd403a315f,,,,,,,,,,,,,,,,,,,,,,,,,,,,,,,,,,,,,,,,,,,,,,,,,,,,,,,,,,,,,,,,,,,,,,,,,,,,,,,,,,,,,,,,,,,,,,,,,,,,,,,,,,,,,,,,,,,,,,,,,,,,,,,,,,,,,,,,,,,,,,,,,,,,,,,,,,,,,,,,,
0,86,86,58,1,,5f2289c3248c55000cd85a11,62c53a5516a30c0af6b0f10b,2022-07-06_09h31.45.762,Colour_Asymmetry_Pilot,2022.1.3,Win32,59.90534955,62c50e9c1127f2cd403a315f,,,,,,,,,,,,,,,,,,,,,,,,,,,,,,,,,,,,,,,,,,,,,,,,,,,,,,,,,,,,,,,,,,,,,,,,,,,,,,,,,,,,,,,,,,,,,,,,,,,,,,,,,,,,,,,,,,,,,,,,,,,,,,,,,,,,,,,,,,,,,,,,,,,,,,,,,,,,,,,,,
0,87,87,69,1,,5f2289c3248c55000cd85a11,62c53a5516a30c0af6b0f10b,2022-07-06_09h31.45.762,Colour_Asymmetry_Pilot,2022.1.3,Win32,59.90534955,62c50e9c1127f2cd403a315f,,,,,,,,,,,,,,,,,,,,,,,,,,,,,,,,,,,,,,,,,,,,,,,,,,,,,,,,,,,,,,,,,,,,,,,,,,,,,,,,,,,,,,,,,,,,,,,,,,,,,,,,,,,,,,,,,,,,,,,,,,,,,,,,,,,,,,,,,,,,,,,,,,,,,,,,,,,,,,,,,
0,88,88,50,1,,5f2289c3248c55000cd85a11,62c53a5516a30c0af6b0f10b,2022-07-06_09h31.45.762,Colour_Asymmetry_Pilot,2022.1.3,Win32,59.90534955,62c50e9c1127f2cd403a315f,,,,,,,,,,,,,,,,,,,,,,,,,,,,,,,,,,,,,,,,,,,,,,,,,,,,,,,,,,,,,,,,,,,,,,,,,,,,,,,,,,,,,,,,,,,,,,,,,,,,,,,,,,,,,,,,,,,,,,,,,,,,,,,,,,,,,,,,,,,,,,,,,,,,,,,,,,,,,,,,,
0,89,89,12,1,,5f2289c3248c55000cd85a11,62c53a5516a30c0af6b0f10b,2022-07-06_09h31.45.762,Colour_Asymmetry_Pilot,2022.1.3,Win32,59.90534955,62c50e9c1127f2cd403a315f,,,,,,,,,,,,,,,,,,,,,,,,,,,,,,,,,,,,,,,,,,,,,,,,,,,,,,,,,,,,,,,,,,,,,,,,,,,,,,,,,,,,,,,,,,,,,,,,,,,,,,,,,,,,,,,,,,,,,,,,,,,,,,,,,,,,,,,,,,,,,,,,,,,,,,,,,,,,,,,,,
0,90,90,4,1,,5f2289c3248c55000cd85a11,62c53a5516a30c0af6b0f10b,2022-07-06_09h31.45.762,Colour_Asymmetry_Pilot,2022.1.3,Win32,59.90534955,62c50e9c1127f2cd403a315f,,,,,,,,,,,,,,,,,,,,,,,,,,,,,,,,,,,,,,,,,,,,,,,,,,,,,,,,,,,,,,,,,,,,,,,,,,,,,,,,,,,,,,,,,,,,,,,,,,,,,,,,,,,,,,,,,,,,,,,,,,,,,,,,,,,,,,,,,,,,,,,,,,,,,,,,,,,,,,,,,
0,91,91,29,1,,5f2289c3248c55000cd85a11,62c53a5516a30c0af6b0f10b,2022-07-06_09h31.45.762,Colour_Asymmetry_Pilot,2022.1.3,Win32,59.90534955,62c50e9c1127f2cd403a315f,,,,,,,,,,,,,,,,,,,,,,,,,,,,,,,,,,,,,,,,,,,,,,,,,,,,,,,,,,,,,,,,,,,,,,,,,,,,,,,,,,,,,,,,,,,,,,,,,,,,,,,,,,,,,,,,,,,,,,,,,,,,,,,,,,,,,,,,,,,,,,,,,,,,,,,,,,,,,,,,,
0,92,92,27,1,,5f2289c3248c55000cd85a11,62c53a5516a30c0af6b0f10b,2022-07-06_09h31.45.762,Colour_Asymmetry_Pilot,2022.1.3,Win32,59.90534955,62c50e9c1127f2cd403a315f,,,,,,,,,,,,,,,,,,,,,,,,,,,,,,,,,,,,,,,,,,,,,,,,,,,,,,,,,,,,,,,,,,,,,,,,,,,,,,,,,,,,,,,,,,,,,,,,,,,,,,,,,,,,,,,,,,,,,,,,,,,,,,,,,,,,,,,,,,,,,,,,,,,,,,,,,,,,,,,,,
,,,,,,5f2289c3248c55000cd85a11,62c53a5516a30c0af6b0f10b,2022-07-06_09h31.45.762,Colour_Asymmetry_Pilot,2022.1.3,Win32,59.90534955,62c50e9c1127f2cd403a315f,0,0,0,119,1,fourthree,,,,,,,,,,,,,,,,,,,,,,,,,,,,,,,,,,,,,,,,,,,,,,,,,,,,,,,,,,,,,,,,,,,,,,,,,,,,,,,,,,,,,,,,,,,,,,,,,,,,,,,,,,,,,,,,,,,,,,,,,,,,,,,,,,,,,,,,,,,,,,,,,,,,,,,,,,,
,,,,,,5f2289c3248c55000cd85a11,62c53a5516a30c0af6b0f10b,2022-07-06_09h31.45.762,Colour_Asymmetry_Pilot,2022.1.3,Win32,59.90534955,62c50e9c1127f2cd403a315f,0,1,1,4,1,threeone,,,,,,,,,,,,,,,,,,,,,,,,,,,,,,,,,,,,,,,,,,,,,,,,,,,,,,,,,,,,,,,,,,,,,,,,,,,,,,,,,,,,,,,,,,,,,,,,,,,,,,,,,,,,,,,,,,,,,,,,,,,,,,,,,,,,,,,,,,,,,,,,,,,,,,,,,,,
,,,,,,5f2289c3248c55000cd85a11,62c53a5516a30c0af6b0f10b,2022-07-06_09h31.45.762,Colour_Asymmetry_Pilot,2022.1.3,Win32,59.90534955,62c50e9c1127f2cd403a315f,0,2,2,97,1,onethree,,,,,,,,,,,,,,,,,,,,,,,,,,,,,,,,,,,,,,,,,,,,,,,,,,,,,,,,,,,,,,,,,,,,,,,,,,,,,,,,,,,,,,,,,,,,,,,,,,,,,,,,,,,,,,,,,,,,,,,,,,,,,,,,,,,,,,,,,,,,,,,,,,,,,,,,,,,
,,,,,,5f2289c3248c55000cd85a11,62c53a5516a30c0af6b0f10b,2022-07-06_09h31.45.762,Colour_Asymmetry_Pilot,2022.1.3,Win32,59.90534955,62c50e9c1127f2cd403a315f,0,3,3,64,1,onetwo,,,,,,,,,,,,,,,,,,,,,,,,,,,,,,,,,,,,,,,,,,,,,,,,,,,,,,,,,,,,,,,,,,,,,,,,,,,,,,,,,,,,,,,,,,,,,,,,,,,,,,,,,,,,,,,,,,,,,,,,,,,,,,,,,,,,,,,,,,,,,,,,,,,,,,,,,,,
,,,,,,5f2289c3248c55000cd85a11,62c53a5516a30c0af6b0f10b,2022-07-06_09h31.45.762,Colour_Asymmetry_Pilot,2022.1.3,Win32,59.90534955,62c50e9c1127f2cd403a315f,0,4,4,113,1,onethree,,,,,,,,,,,,,,,,,,,,,,,,,,,,,,,,,,,,,,,,,,,,,,,,,,,,,,,,,,,,,,,,,,,,,,,,,,,,,,,,,,,,,,,,,,,,,,,,,,,,,,,,,,,,,,,,,,,,,,,,,,,,,,,,,,,,,,,,,,,,,,,,,,,,,,,,,,,
,,,,,,5f2289c3248c55000cd85a11,62c53a5516a30c0af6b0f10b,2022-07-06_09h31.45.762,Colour_Asymmetry_Pilot,2022.1.3,Win32,59.90534955,62c50e9c1127f2cd403a315f,0,5,5,21,1,threefour,,,,,,,,,,,,,,,,,,,,,,,,,,,,,,,,,,,,,,,,,,,,,,,,,,,,,,,,,,,,,,,,,,,,,,,,,,,,,,,,,,,,,,,,,,,,,,,,,,,,,,,,,,,,,,,,,,,,,,,,,,,,,,,,,,,,,,,,,,,,,,,,,,,,,,,,,,,
,,,,,,5f2289c3248c55000cd85a11,62c53a5516a30c0af6b0f10b,2022-07-06_09h31.45.762,Colour_Asymmetry_Pilot,2022.1.3,Win32,59.90534955,62c50e9c1127f2cd403a315f,0,6,6,96,1,onetwo,,,,,,,,,,,,,,,,,,,,,,,,,,,,,,,,,,,,,,,,,,,,,,,,,,,,,,,,,,,,,,,,,,,,,,,,,,,,,,,,,,,,,,,,,,,,,,,,,,,,,,,,,,,,,,,,,,,,,,,,,,,,,,,,,,,,,,,,,,,,,,,,,,,,,,,,,,,
,,,,,,5f2289c3248c55000cd85a11,62c53a5516a30c0af6b0f10b,2022-07-06_09h31.45.762,Colour_Asymmetry_Pilot,2022.1.3,Win32,59.90534955,62c50e9c1127f2cd403a315f,0,7,7,38,1,fourtwo,,,,,,,,,,,,,,,,,,,,,,,,,,,,,,,,,,,,,,,,,,,,,,,,,,,,,,,,,,,,,,,,,,,,,,,,,,,,,,,,,,,,,,,,,,,,,,,,,,,,,,,,,,,,,,,,,,,,,,,,,,,,,,,,,,,,,,,,,,,,,,,,,,,,,,,,,,,
,,,,,,5f2289c3248c55000cd85a11,62c53a5516a30c0af6b0f10b,2022-07-06_09h31.45.762,Colour_Asymmetry_Pilot,2022.1.3,Win32,59.90534955,62c50e9c1127f2cd403a315f,0,8,8,76,1,threeone,,,,,,,,,,,,,,,,,,,,,,,,,,,,,,,,,,,,,,,,,,,,,,,,,,,,,,,,,,,,,,,,,,,,,,,,,,,,,,,,,,,,,,,,,,,,,,,,,,,,,,,,,,,,,,,,,,,,,,,,,,,,,,,,,,,,,,,,,,,,,,,,,,,,,,,,,,,
,,,,,,5f2289c3248c55000cd85a11,62c53a5516a30c0af6b0f10b,2022-07-06_09h31.45.762,Colour_Asymmetry_Pilot,2022.1.3,Win32,59.90534955,62c50e9c1127f2cd403a315f,0,9,9,150,1,fourtwo,,,,,,,,,,,,,,,,,,,,,,,,,,,,,,,,,,,,,,,,,,,,,,,,,,,,,,,,,,,,,,,,,,,,,,,,,,,,,,,,,,,,,,,,,,,,,,,,,,,,,,,,,,,,,,,,,,,,,,,,,,,,,,,,,,,,,,,,,,,,,,,,,,,,,,,,,,,
,,,,,,5f2289c3248c55000cd85a11,62c53a5516a30c0af6b0f10b,2022-07-06_09h31.45.762,Colour_Asymmetry_Pilot,2022.1.3,Win32,59.90534955,62c50e9c1127f2cd403a315f,0,10,10,47,1,fourthree,,,,,,,,,,,,,,,,,,,,,,,,,,,,,,,,,,,,,,,,,,,,,,,,,,,,,,,,,,,,,,,,,,,,,,,,,,,,,,,,,,,,,,,,,,,,,,,,,,,,,,,,,,,,,,,,,,,,,,,,,,,,,,,,,,,,,,,,,,,,,,,,,,,,,,,,,,,
,,,,,,5f2289c3248c55000cd85a11,62c53a5516a30c0af6b0f10b,2022-07-06_09h31.45.762,Colour_Asymmetry_Pilot,2022.1.3,Win32,59.90534955,62c50e9c1127f2cd403a315f,0,11,11,110,1,fourtwo,,,,,,,,,,,,,,,,,,,,,,,,,,,,,,,,,,,,,,,,,,,,,,,,,,,,,,,,,,,,,,,,,,,,,,,,,,,,,,,,,,,,,,,,,,,,,,,,,,,,,,,,,,,,,,,,,,,,,,,,,,,,,,,,,,,,,,,,,,,,,,,,,,,,,,,,,,,
,,,,,,5f2289c3248c55000cd85a11,62c53a5516a30c0af6b0f10b,2022-07-06_09h31.45.762,Colour_Asymmetry_Pilot,2022.1.3,Win32,59.90534955,62c50e9c1127f2cd403a315f,0,12,12,121,1,onethree,,,,,,,,,,,,,,,,,,,,,,,,,,,,,,,,,,,,,,,,,,,,,,,,,,,,,,,,,,,,,,,,,,,,,,,,,,,,,,,,,,,,,,,,,,,,,,,,,,,,,,,,,,,,,,,,,,,,,,,,,,,,,,,,,,,,,,,,,,,,,,,,,,,,,,,,,,,
,,,,,,5f2289c3248c55000cd85a11,62c53a5516a30c0af6b0f10b,2022-07-06_09h31.45.762,Colour_Asymmetry_Pilot,2022.1.3,Win32,59.90534955,62c50e9c1127f2cd403a315f,0,13,13,81,1,onethree,,,,,,,,,,,,,,,,,,,,,,,,,,,,,,,,,,,,,,,,,,,,,,,,,,,,,,,,,,,,,,,,,,,,,,,,,,,,,,,,,,,,,,,,,,,,,,,,,,,,,,,,,,,,,,,,,,,,,,,,,,,,,,,,,,,,,,,,,,,,,,,,,,,,,,,,,,,
,,,,,,5f2289c3248c55000cd85a11,62c53a5516a30c0af6b0f10b,2022-07-06_09h31.45.762,Colour_Asymmetry_Pilot,2022.1.3,Win32,59.90534955,62c50e9c1127f2cd403a315f,0,14,14,13,1,threefour,,,,,,,,,,,,,,,,,,,,,,,,,,,,,,,,,,,,,,,,,,,,,,,,,,,,,,,,,,,,,,,,,,,,,,,,,,,,,,,,,,,,,,,,,,,,,,,,,,,,,,,,,,,,,,,,,,,,,,,,,,,,,,,,,,,,,,,,,,,,,,,,,,,,,,,,,,,
,,,,,,5f2289c3248c55000cd85a11,62c53a5516a30c0af6b0f10b,2022-07-06_09h31.45.762,Colour_Asymmetry_Pilot,2022.1.3,Win32,59.90534955,62c50e9c1127f2cd403a315f,0,15,15,14,1,fourtwo,,,,,,,,,,,,,,,,,,,,,,,,,,,,,,,,,,,,,,,,,,,,,,,,,,,,,,,,,,,,,,,,,,,,,,,,,,,,,,,,,,,,,,,,,,,,,,,,,,,,,,,,,,,,,,,,,,,,,,,,,,,,,,,,,,,,,,,,,,,,,,,,,,,,,,,,,,,
,,,,,,5f2289c3248c55000cd85a11,62c53a5516a30c0af6b0f10b,2022-07-06_09h31.45.762,Colour_Asymmetry_Pilot,2022.1.3,Win32,59.90534955,62c50e9c1127f2cd403a315f,0,16,16,70,1,fourtwo,,,,,,,,,,,,,,,,,,,,,,,,,,,,,,,,,,,,,,,,,,,,,,,,,,,,,,,,,,,,,,,,,,,,,,,,,,,,,,,,,,,,,,,,,,,,,,,,,,,,,,,,,,,,,,,,,,,,,,,,,,,,,,,,,,,,,,,,,,,,,,,,,,,,,,,,,,,
,,,,,,5f2289c3248c55000cd85a11,62c53a5516a30c0af6b0f10b,2022-07-06_09h31.45.762,Colour_Asymmetry_Pilot,2022.1.3,Win32,59.90534955,62c50e9c1127f2cd403a315f,0,17,17,147,1,twofour,,,,,,,,,,,,,,,,,,,,,,,,,,,,,,,,,,,,,,,,,,,,,,,,,,,,,,,,,,,,,,,,,,,,,,,,,,,,,,,,,,,,,,,,,,,,,,,,,,,,,,,,,,,,,,,,,,,,,,,,,,,,,,,,,,,,,,,,,,,,,,,,,,,,,,,,,,,
,,,,,,5f2289c3248c55000cd85a11,62c53a5516a30c0af6b0f10b,2022-07-06_09h31.45.762,Colour_Asymmetry_Pilot,2022.1.3,Win32,59.90534955,62c50e9c1127f2cd403a315f,0,18,18,7,1,fourthree,,,,,,,,,,,,,,,,,,,,,,,,,,,,,,,,,,,,,,,,,,,,,,,,,,,,,,,,,,,,,,,,,,,,,,,,,,,,,,,,,,,,,,,,,,,,,,,,,,,,,,,,,,,,,,,,,,,,,,,,,,,,,,,,,,,,,,,,,,,,,,,,,,,,,,,,,,,
,,,,,,5f2289c3248c55000cd85a11,62c53a5516a30c0af6b0f10b,2022-07-06_09h31.45.762,Colour_Asymmetry_Pilot,2022.1.3,Win32,59.90534955,62c50e9c1127f2cd403a315f,0,19,19,18,1,twoone,,,,,,,,,,,,,,,,,,,,,,,,,,,,,,,,,,,,,,,,,,,,,,,,,,,,,,,,,,,,,,,,,,,,,,,,,,,,,,,,,,,,,,,,,,,,,,,,,,,,,,,,,,,,,,,,,,,,,,,,,,,,,,,,,,,,,,,,,,,,,,,,,,,,,,,,,,,
,,,,,,5f2289c3248c55000cd85a11,62c53a5516a30c0af6b0f10b,2022-07-06_09h31.45.762,Colour_Asymmetry_Pilot,2022.1.3,Win32,59.90534955,62c50e9c1127f2cd403a315f,0,20,20,16,1,onetwo,,,,,,,,,,,,,,,,,,,,,,,,,,,,,,,,,,,,,,,,,,,,,,,,,,,,,,,,,,,,,,,,,,,,,,,,,,,,,,,,,,,,,,,,,,,,,,,,,,,,,,,,,,,,,,,,,,,,,,,,,,,,,,,,,,,,,,,,,,,,,,,,,,,,,,,,,,,
,,,,,,5f2289c3248c55000cd85a11,62c53a5516a30c0af6b0f10b,2022-07-06_09h31.45.762,Colour_Asymmetry_Pilot,2022.1.3,Win32,59.90534955,62c50e9c1127f2cd403a315f,0,21,21,151,1,fourthree,,,,,,,,,,,,,,,,,,,,,,,,,,,,,,,,,,,,,,,,,,,,,,,,,,,,,,,,,,,,,,,,,,,,,,,,,,,,,,,,,,,,,,,,,,,,,,,,,,,,,,,,,,,,,,,,,,,,,,,,,,,,,,,,,,,,,,,,,,,,,,,,,,,,,,,,,,,
,,,,,,5f2289c3248c55000cd85a11,62c53a5516a30c0af6b0f10b,2022-07-06_09h31.45.762,Colour_Asymmetry_Pilot,2022.1.3,Win32,59.90534955,62c50e9c1127f2cd403a315f,0,22,22,118,1,fourtwo,,,,,,,,,,,,,,,,,,,,,,,,,,,,,,,,,,,,,,,,,,,,,,,,,,,,,,,,,,,,,,,,,,,,,,,,,,,,,,,,,,,,,,,,,,,,,,,,,,,,,,,,,,,,,,,,,,,,,,,,,,,,,,,,,,,,,,,,,,,,,,,,,,,,,,,,,,,
,,,,,,5f2289c3248c55000cd85a11,62c53a5516a30c0af6b0f10b,2022-07-06_09h31.45.762,Colour_Asymmetry_Pilot,2022.1.3,Win32,59.90534955,62c50e9c1127f2cd403a315f,0,23,23,103,1,fourthree,,,,,,,,,,,,,,,,,,,,,,,,,,,,,,,,,,,,,,,,,,,,,,,,,,,,,,,,,,,,,,,,,,,,,,,,,,,,,,,,,,,,,,,,,,,,,,,,,,,,,,,,,,,,,,,,,,,,,,,,,,,,,,,,,,,,,,,,,,,,,,,,,,,,,,,,,,,
,,,,,,5f2289c3248c55000cd85a11,62c53a5516a30c0af6b0f10b,2022-07-06_09h31.45.762,Colour_Asymmetry_Pilot,2022.1.3,Win32,59.90534955,62c50e9c1127f2cd403a315f,0,24,24,88,1,onetwo,,,,,,,,,,,,,,,,,,,,,,,,,,,,,,,,,,,,,,,,,,,,,,,,,,,,,,,,,,,,,,,,,,,,,,,,,,,,,,,,,,,,,,,,,,,,,,,,,,,,,,,,,,,,,,,,,,,,,,,,,,,,,,,,,,,,,,,,,,,,,,,,,,,,,,,,,,,
,,,,,,5f2289c3248c55000cd85a11,62c53a5516a30c0af6b0f10b,2022-07-06_09h31.45.762,Colour_Asymmetry_Pilot,2022.1.3,Win32,59.90534955,62c50e9c1127f2cd403a315f,0,25,25,58,1,twoone,,,,,,,,,,,,,,,,,,,,,,,,,,,,,,,,,,,,,,,,,,,,,,,,,,,,,,,,,,,,,,,,,,,,,,,,,,,,,,,,,,,,,,,,,,,,,,,,,,,,,,,,,,,,,,,,,,,,,,,,,,,,,,,,,,,,,,,,,,,,,,,,,,,,,,,,,,,
,,,,,,5f2289c3248c55000cd85a11,62c53a5516a30c0af6b0f10b,2022-07-06_09h31.45.762,Colour_Asymmetry_Pilot,2022.1.3,Win32,59.90534955,62c50e9c1127f2cd403a315f,0,26,26,11,1,twofour,,,,,,,,,,,,,,,,,,,,,,,,,,,,,,,,,,,,,,,,,,,,,,,,,,,,,,,,,,,,,,,,,,,,,,,,,,,,,,,,,,,,,,,,,,,,,,,,,,,,,,,,,,,,,,,,,,,,,,,,,,,,,,,,,,,,,,,,,,,,,,,,,,,,,,,,,,,
,,,,,,5f2289c3248c55000cd85a11,62c53a5516a30c0af6b0f10b,2022-07-06_09h31.45.762,Colour_Asymmetry_Pilot,2022.1.3,Win32,59.90534955,62c50e9c1127f2cd403a315f,0,27,27,0,1,onetwo,,,,,,,,,,,,,,,,,,,,,,,,,,,,,,,,,,,,,,,,,,,,,,,,,,,,,,,,,,,,,,,,,,,,,,,,,,,,,,,,,,,,,,,,,,,,,,,,,,,,,,,,,,,,,,,,,,,,,,,,,,,,,,,,,,,,,,,,,,,,,,,,,,,,,,,,,,,
,,,,,,5f2289c3248c55000cd85a11,62c53a5516a30c0af6b0f10b,2022-07-06_09h31.45.762,Colour_Asymmetry_Pilot,2022.1.3,Win32,59.90534955,62c50e9c1127f2cd403a315f,0,28,28,104,1,onetwo,,,,,,,,,,,,,,,,,,,,,,,,,,,,,,,,,,,,,,,,,,,,,,,,,,,,,,,,,,,,,,,,,,,,,,,,,,,,,,,,,,,,,,,,,,,,,,,,,,,,,,,,,,,,,,,,,,,,,,,,,,,,,,,,,,,,,,,,,,,,,,,,,,,,,,,,,,,
,,,,,,5f2289c3248c55000cd85a11,62c53a5516a30c0af6b0f10b,2022-07-06_09h31.45.762,Colour_Asymmetry_Pilot,2022.1.3,Win32,59.90534955,62c50e9c1127f2cd403a315f,0,29,29,20,1,threeone,,,,,,,,,,,,,,,,,,,,,,,,,,,,,,,,,,,,,,,,,,,,,,,,,,,,,,,,,,,,,,,,,,,,,,,,,,,,,,,,,,,,,,,,,,,,,,,,,,,,,,,,,,,,,,,,,,,,,,,,,,,,,,,,,,,,,,,,,,,,,,,,,,,,,,,,,,,
,,,,,,5f2289c3248c55000cd85a11,62c53a5516a30c0af6b0f10b,2022-07-06_09h31.45.762,Colour_Asymmetry_Pilot,2022.1.3,Win32,59.90534955,62c50e9c1127f2cd403a315f,0,30,30,41,1,onethree,,,,,,,,,,,,,,,,,,,,,,,,,,,,,,,,,,,,,,,,,,,,,,,,,,,,,,,,,,,,,,,,,,,,,,,,,,,,,,,,,,,,,,,,,,,,,,,,,,,,,,,,,,,,,,,,,,,,,,,,,,,,,,,,,,,,,,,,,,,,,,,,,,,,,,,,,,,
,,,,,,5f2289c3248c55000cd85a11,62c53a5516a30c0af6b0f10b,2022-07-06_09h31.45.762,Colour_Asymmetry_Pilot,2022.1.3,Win32,59.90534955,62c50e9c1127f2cd403a315f,0,31,31,111,1,fourthree,,,,,,,,,,,,,,,,,,,,,,,,,,,,,,,,,,,,,,,,,,,,,,,,,,,,,,,,,,,,,,,,,,,,,,,,,,,,,,,,,,,,,,,,,,,,,,,,,,,,,,,,,,,,,,,,,,,,,,,,,,,,,,,,,,,,,,,,,,,,,,,,,,,,,,,,,,,
,,,,,,5f2289c3248c55000cd85a11,62c53a5516a30c0af6b0f10b,2022-07-06_09h31.45.762,Colour_Asymmetry_Pilot,2022.1.3,Win32,59.90534955,62c50e9c1127f2cd403a315f,0,32,32,105,1,onethree,,,,,,,,,,,,,,,,,,,,,,,,,,,,,,,,,,,,,,,,,,,,,,,,,,,,,,,,,,,,,,,,,,,,,,,,,,,,,,,,,,,,,,,,,,,,,,,,,,,,,,,,,,,,,,,,,,,,,,,,,,,,,,,,,,,,,,,,,,,,,,,,,,,,,,,,,,,
,,,,,,5f2289c3248c55000cd85a11,62c53a5516a30c0af6b0f10b,2022-07-06_09h31.45.762,Colour_Asymmetry_Pilot,2022.1.3,Win32,59.90534955,62c50e9c1127f2cd403a315f,0,33,33,9,1,onethree,,,,,,,,,,,,,,,,,,,,,,,,,,,,,,,,,,,,,,,,,,,,,,,,,,,,,,,,,,,,,,,,,,,,,,,,,,,,,,,,,,,,,,,,,,,,,,,,,,,,,,,,,,,,,,,,,,,,,,,,,,,,,,,,,,,,,,,,,,,,,,,,,,,,,,,,,,,
,,,,,,5f2289c3248c55000cd85a11,62c53a5516a30c0af6b0f10b,2022-07-06_09h31.45.762,Colour_Asymmetry_Pilot,2022.1.3,Win32,59.90534955,62c50e9c1127f2cd403a315f,0,34,34,141,1,threefour,,,,,,,,,,,,,,,,,,,,,,,,,,,,,,,,,,,,,,,,,,,,,,,,,,,,,,,,,,,,,,,,,,,,,,,,,,,,,,,,,,,,,,,,,,,,,,,,,,,,,,,,,,,,,,,,,,,,,,,,,,,,,,,,,,,,,,,,,,,,,,,,,,,,,,,,,,,
,,,,,,5f2289c3248c55000cd85a11,62c53a5516a30c0af6b0f10b,2022-07-06_09h31.45.762,Colour_Asymmetry_Pilot,2022.1.3,Win32,59.90534955,62c50e9c1127f2cd403a315f,0,35,35,17,1,onethree,,,,,,,,,,,,,,,,,,,,,,,,,,,,,,,,,,,,,,,,,,,,,,,,,,,,,,,,,,,,,,,,,,,,,,,,,,,,,,,,,,,,,,,,,,,,,,,,,,,,,,,,,,,,,,,,,,,,,,,,,,,,,,,,,,,,,,,,,,,,,,,,,,,,,,,,,,,
,,,,,,5f2289c3248c55000cd85a11,62c53a5516a30c0af6b0f10b,2022-07-06_09h31.45.762,Colour_Asymmetry_Pilot,2022.1.3,Win32,59.90534955,62c50e9c1127f2cd403a315f,0,36,36,1,1,onethree,,,,,,,,,,,,,,,,,,,,,,,,,,,,,,,,,,,,,,,,,,,,,,,,,,,,,,,,,,,,,,,,,,,,,,,,,,,,,,,,,,,,,,,,,,,,,,,,,,,,,,,,,,,,,,,,,,,,,,,,,,,,,,,,,,,,,,,,,,,,,,,,,,,,,,,,,,,
,,,,,,5f2289c3248c55000cd85a11,62c53a5516a30c0af6b0f10b,2022-07-06_09h31.45.762,Colour_Asymmetry_Pilot,2022.1.3,Win32,59.90534955,62c50e9c1127f2cd403a315f,0,37,37,37,1,threefour,,,,,,,,,,,,,,,,,,,,,,,,,,,,,,,,,,,,,,,,,,,,,,,,,,,,,,,,,,,,,,,,,,,,,,,,,,,,,,,,,,,,,,,,,,,,,,,,,,,,,,,,,,,,,,,,,,,,,,,,,,,,,,,,,,,,,,,,,,,,,,,,,,,,,,,,,,,
,,,,,,5f2289c3248c55000cd85a11,62c53a5516a30c0af6b0f10b,2022-07-06_09h31.45.762,Colour_Asymmetry_Pilot,2022.1.3,Win32,59.90534955,62c50e9c1127f2cd403a315f,0,38,38,155,1,twofour,,,,,,,,,,,,,,,,,,,,,,,,,,,,,,,,,,,,,,,,,,,,,,,,,,,,,,,,,,,,,,,,,,,,,,,,,,,,,,,,,,,,,,,,,,,,,,,,,,,,,,,,,,,,,,,,,,,,,,,,,,,,,,,,,,,,,,,,,,,,,,,,,,,,,,,,,,,
,,,,,,5f2289c3248c55000cd85a11,62c53a5516a30c0af6b0f10b,2022-07-06_09h31.45.762,Colour_Asymmetry_Pilot,2022.1.3,Win32,59.90534955,62c50e9c1127f2cd403a315f,0,39,39,99,1,twofour,,,,,,,,,,,,,,,,,,,,,,,,,,,,,,,,,,,,,,,,,,,,,,,,,,,,,,,,,,,,,,,,,,,,,,,,,,,,,,,,,,,,,,,,,,,,,,,,,,,,,,,,,,,,,,,,,,,,,,,,,,,,,,,,,,,,,,,,,,,,,,,,,,,,,,,,,,,
,,,,,,5f2289c3248c55000cd85a11,62c53a5516a30c0af6b0f10b,2022-07-06_09h31.45.762,Colour_Asymmetry_Pilot,2022.1.3,Win32,59.90534955,62c50e9c1127f2cd403a315f,0,40,40,23,1,fourthree,,,,,,,,,,,,,,,,,,,,,,,,,,,,,,,,,,,,,,,,,,,,,,,,,,,,,,,,,,,,,,,,,,,,,,,,,,,,,,,,,,,,,,,,,,,,,,,,,,,,,,,,,,,,,,,,,,,,,,,,,,,,,,,,,,,,,,,,,,,,,,,,,,,,,,,,,,,
,,,,,,5f2289c3248c55000cd85a11,62c53a5516a30c0af6b0f10b,2022-07-06_09h31.45.762,Colour_Asymmetry_Pilot,2022.1.3,Win32,59.90534955,62c50e9c1127f2cd403a315f,0,41,41,116,1,threeone,,,,,,,,,,,,,,,,,,,,,,,,,,,,,,,,,,,,,,,,,,,,,,,,,,,,,,,,,,,,,,,,,,,,,,,,,,,,,,,,,,,,,,,,,,,,,,,,,,,,,,,,,,,,,,,,,,,,,,,,,,,,,,,,,,,,,,,,,,,,,,,,,,,,,,,,,,,
,,,,,,5f2289c3248c55000cd85a11,62c53a5516a30c0af6b0f10b,2022-07-06_09h31.45.762,Colour_Asymmetry_Pilot,2022.1.3,Win32,59.90534955,62c50e9c1127f2cd403a315f,0,42,42,34,1,twoone,,,,,,,,,,,,,,,,,,,,,,,,,,,,,,,,,,,,,,,,,,,,,,,,,,,,,,,,,,,,,,,,,,,,,,,,,,,,,,,,,,,,,,,,,,,,,,,,,,,,,,,,,,,,,,,,,,,,,,,,,,,,,,,,,,,,,,,,,,,,,,,,,,,,,,,,,,,
,,,,,,5f2289c3248c55000cd85a11,62c53a5516a30c0af6b0f10b,2022-07-06_09h31.45.762,Colour_Asymmetry_Pilot,2022.1.3,Win32,59.90534955,62c50e9c1127f2cd403a315f,0,43,43,53,1,threefour,,,,,,,,,,,,,,,,,,,,,,,,,,,,,,,,,,,,,,,,,,,,,,,,,,,,,,,,,,,,,,,,,,,,,,,,,,,,,,,,,,,,,,,,,,,,,,,,,,,,,,,,,,,,,,,,,,,,,,,,,,,,,,,,,,,,,,,,,,,,,,,,,,,,,,,,,,,
,,,,,,5f2289c3248c55000cd85a11,62c53a5516a30c0af6b0f10b,2022-07-06_09h31.45.762,Colour_Asymmetry_Pilot,2022.1.3,Win32,59.90534955,62c50e9c1127f2cd403a315f,0,44,44,136,1,onetwo,,,,,,,,,,,,,,,,,,,,,,,,,,,,,,,,,,,,,,,,,,,,,,,,,,,,,,,,,,,,,,,,,,,,,,,,,,,,,,,,,,,,,,,,,,,,,,,,,,,,,,,,,,,,,,,,,,,,,,,,,,,,,,,,,,,,,,,,,,,,,,,,,,,,,,,,,,,
,,,,,,5f2289c3248c55000cd85a11,62c53a5516a30c0af6b0f10b,2022-07-06_09h31.45.762,Colour_Asymmetry_Pilot,2022.1.3,Win32,59.90534955,62c50e9c1127f2cd403a315f,0,45,45,123,1,twofour,,,,,,,,,,,,,,,,,,,,,,,,,,,,,,,,,,,,,,,,,,,,,,,,,,,,,,,,,,,,,,,,,,,,,,,,,,,,,,,,,,,,,,,,,,,,,,,,,,,,,,,,,,,,,,,,,,,,,,,,,,,,,,,,,,,,,,,,,,,,,,,,,,,,,,,,,,,
,,,,,,5f2289c3248c55000cd85a11,62c53a5516a30c0af6b0f10b,2022-07-06_09h31.45.762,Colour_Asymmetry_Pilot,2022.1.3,Win32,59.90534955,62c50e9c1127f2cd403a315f,0,46,46,83,1,twofour,,,,,,,,,,,,,,,,,,,,,,,,,,,,,,,,,,,,,,,,,,,,,,,,,,,,,,,,,,,,,,,,,,,,,,,,,,,,,,,,,,,,,,,,,,,,,,,,,,,,,,,,,,,,,,,,,,,,,,,,,,,,,,,,,,,,,,,,,,,,,,,,,,,,,,,,,,,
,,,,,,5f2289c3248c55000cd85a11,62c53a5516a30c0af6b0f10b,2022-07-06_09h31.45.762,Colour_Asymmetry_Pilot,2022.1.3,Win32,59.90534955,62c50e9c1127f2cd403a315f,0,47,47,94,1,fourtwo,,,,,,,,,,,,,,,,,,,,,,,,,,,,,,,,,,,,,,,,,,,,,,,,,,,,,,,,,,,,,,,,,,,,,,,,,,,,,,,,,,,,,,,,,,,,,,,,,,,,,,,,,,,,,,,,,,,,,,,,,,,,,,,,,,,,,,,,,,,,,,,,,,,,,,,,,,,
,,,,,,5f2289c3248c55000cd85a11,62c53a5516a30c0af6b0f10b,2022-07-06_09h31.45.762,Colour_Asymmetry_Pilot,2022.1.3,Win32,59.90534955,62c50e9c1127f2cd403a315f,0,48,48,5,1,threefour,,,,,,,,,,,,,,,,,,,,,,,,,,,,,,,,,,,,,,,,,,,,,,,,,,,,,,,,,,,,,,,,,,,,,,,,,,,,,,,,,,,,,,,,,,,,,,,,,,,,,,,,,,,,,,,,,,,,,,,,,,,,,,,,,,,,,,,,,,,,,,,,,,,,,,,,,,,
,,,,,,5f2289c3248c55000cd85a11,62c53a5516a30c0af6b0f10b,2022-07-06_09h31.45.762,Colour_Asymmetry_Pilot,2022.1.3,Win32,59.90534955,62c50e9c1127f2cd403a315f,0,49,49,85,1,threefour,,,,,,,,,,,,,,,,,,,,,,,,,,,,,,,,,,,,,,,,,,,,,,,,,,,,,,,,,,,,,,,,,,,,,,,,,,,,,,,,,,,,,,,,,,,,,,,,,,,,,,,,,,,,,,,,,,,,,,,,,,,,,,,,,,,,,,,,,,,,,,,,,,,,,,,,,,,
,,,,,,5f2289c3248c55000cd85a11,62c53a5516a30c0af6b0f10b,2022-07-06_09h31.45.762,Colour_Asymmetry_Pilot,2022.1.3,Win32,59.90534955,62c50e9c1127f2cd403a315f,0,50,50,55,1,fourthree,,,,,,,,,,,,,,,,,,,,,,,,,,,,,,,,,,,,,,,,,,,,,,,,,,,,,,,,,,,,,,,,,,,,,,,,,,,,,,,,,,,,,,,,,,,,,,,,,,,,,,,,,,,,,,,,,,,,,,,,,,,,,,,,,,,,,,,,,,,,,,,,,,,,,,,,,,,
,,,,,,5f2289c3248c55000cd85a11,62c53a5516a30c0af6b0f10b,2022-07-06_09h31.45.762,Colour_Asymmetry_Pilot,2022.1.3,Win32,59.90534955,62c50e9c1127f2cd403a315f,0,51,51,25,1,onethree,,,,,,,,,,,,,,,,,,,,,,,,,,,,,,,,,,,,,,,,,,,,,,,,,,,,,,,,,,,,,,,,,,,,,,,,,,,,,,,,,,,,,,,,,,,,,,,,,,,,,,,,,,,,,,,,,,,,,,,,,,,,,,,,,,,,,,,,,,,,,,,,,,,,,,,,,,,
,,,,,,5f2289c3248c55000cd85a11,62c53a5516a30c0af6b0f10b,2022-07-06_09h31.45.762,Colour_Asymmetry_Pilot,2022.1.3,Win32,59.90534955,62c50e9c1127f2cd403a315f,0,52,52,80,1,onetwo,,,,,,,,,,,,,,,,,,,,,,,,,,,,,,,,,,,,,,,,,,,,,,,,,,,,,,,,,,,,,,,,,,,,,,,,,,,,,,,,,,,,,,,,,,,,,,,,,,,,,,,,,,,,,,,,,,,,,,,,,,,,,,,,,,,,,,,,,,,,,,,,,,,,,,,,,,,
,,,,,,5f2289c3248c55000cd85a11,62c53a5516a30c0af6b0f10b,2022-07-06_09h31.45.762,Colour_Asymmetry_Pilot,2022.1.3,Win32,59.90534955,62c50e9c1127f2cd403a315f,0,53,53,156,1,threeone,,,,,,,,,,,,,,,,,,,,,,,,,,,,,,,,,,,,,,,,,,,,,,,,,,,,,,,,,,,,,,,,,,,,,,,,,,,,,,,,,,,,,,,,,,,,,,,,,,,,,,,,,,,,,,,,,,,,,,,,,,,,,,,,,,,,,,,,,,,,,,,,,,,,,,,,,,,
,,,,,,5f2289c3248c55000cd85a11,62c53a5516a30c0af6b0f10b,2022-07-06_09h31.45.762,Colour_Asymmetry_Pilot,2022.1.3,Win32,59.90534955,62c50e9c1127f2cd403a315f,0,54,54,60,1,threeone,,,,,,,,,,,,,,,,,,,,,,,,,,,,,,,,,,,,,,,,,,,,,,,,,,,,,,,,,,,,,,,,,,,,,,,,,,,,,,,,,,,,,,,,,,,,,,,,,,,,,,,,,,,,,,,,,,,,,,,,,,,,,,,,,,,,,,,,,,,,,,,,,,,,,,,,,,,
,,,,,,5f2289c3248c55000cd85a11,62c53a5516a30c0af6b0f10b,2022-07-06_09h31.45.762,Colour_Asymmetry_Pilot,2022.1.3,Win32,59.90534955,62c50e9c1127f2cd403a315f,0,55,55,102,1,fourtwo,,,,,,,,,,,,,,,,,,,,,,,,,,,,,,,,,,,,,,,,,,,,,,,,,,,,,,,,,,,,,,,,,,,,,,,,,,,,,,,,,,,,,,,,,,,,,,,,,,,,,,,,,,,,,,,,,,,,,,,,,,,,,,,,,,,,,,,,,,,,,,,,,,,,,,,,,,,
,,,,,,5f2289c3248c55000cd85a11,62c53a5516a30c0af6b0f10b,2022-07-06_09h31.45.762,Colour_Asymmetry_Pilot,2022.1.3,Win32,59.90534955,62c50e9c1127f2cd403a315f,0,56,56,126,1,fourtwo,,,,,,,,,,,,,,,,,,,,,,,,,,,,,,,,,,,,,,,,,,,,,,,,,,,,,,,,,,,,,,,,,,,,,,,,,,,,,,,,,,,,,,,,,,,,,,,,,,,,,,,,,,,,,,,,,,,,,,,,,,,,,,,,,,,,,,,,,,,,,,,,,,,,,,,,,,,
,,,,,,5f2289c3248c55000cd85a11,62c53a5516a30c0af6b0f10b,2022-07-06_09h31.45.762,Colour_Asymmetry_Pilot,2022.1.3,Win32,59.90534955,62c50e9c1127f2cd403a315f,0,57,57,12,1,threeone,,,,,,,,,,,,,,,,,,,,,,,,,,,,,,,,,,,,,,,,,,,,,,,,,,,,,,,,,,,,,,,,,,,,,,,,,,,,,,,,,,,,,,,,,,,,,,,,,,,,,,,,,,,,,,,,,,,,,,,,,,,,,,,,,,,,,,,,,,,,,,,,,,,,,,,,,,,
,,,,,,5f2289c3248c55000cd85a11,62c53a5516a30c0af6b0f10b,2022-07-06_09h31.45.762,Colour_Asymmetry_Pilot,2022.1.3,Win32,59.90534955,62c50e9c1127f2cd403a315f,0,58,58,129,1,onethree,,,,,,,,,,,,,,,,,,,,,,,,,,,,,,,,,,,,,,,,,,,,,,,,,,,,,,,,,,,,,,,,,,,,,,,,,,,,,,,,,,,,,,,,,,,,,,,,,,,,,,,,,,,,,,,,,,,,,,,,,,,,,,,,,,,,,,,,,,,,,,,,,,,,,,,,,,,
,,,,,,5f2289c3248c55000cd85a11,62c53a5516a30c0af6b0f10b,2022-07-06_09h31.45.762,Colour_Asymmetry_Pilot,2022.1.3,Win32,59.90534955,62c50e9c1127f2cd403a315f,0,59,59,49,1,onethree,,,,,,,,,,,,,,,,,,,,,,,,,,,,,,,,,,,,,,,,,,,,,,,,,,,,,,,,,,,,,,,,,,,,,,,,,,,,,,,,,,,,,,,,,,,,,,,,,,,,,,,,,,,,,,,,,,,,,,,,,,,,,,,,,,,,,,,,,,,,,,,,,,,,,,,,,,,
,,,,,,5f2289c3248c55000cd85a11,62c53a5516a30c0af6b0f10b,2022-07-06_09h31.45.762,Colour_Asymmetry_Pilot,2022.1.3,Win32,59.90534955,62c50e9c1127f2cd403a315f,0,60,60,117,1,threefour,,,,,,,,,,,,,,,,,,,,,,,,,,,,,,,,,,,,,,,,,,,,,,,,,,,,,,,,,,,,,,,,,,,,,,,,,,,,,,,,,,,,,,,,,,,,,,,,,,,,,,,,,,,,,,,,,,,,,,,,,,,,,,,,,,,,,,,,,,,,,,,,,,,,,,,,,,,
,,,,,,5f2289c3248c55000cd85a11,62c53a5516a30c0af6b0f10b,2022-07-06_09h31.45.762,Colour_Asymmetry_Pilot,2022.1.3,Win32,59.90534955,62c50e9c1127f2cd403a315f,0,61,61,48,1,onetwo,,,,,,,,,,,,,,,,,,,,,,,,,,,,,,,,,,,,,,,,,,,,,,,,,,,,,,,,,,,,,,,,,,,,,,,,,,,,,,,,,,,,,,,,,,,,,,,,,,,,,,,,,,,,,,,,,,,,,,,,,,,,,,,,,,,,,,,,,,,,,,,,,,,,,,,,,,,
,,,,,,5f2289c3248c55000cd85a11,62c53a5516a30c0af6b0f10b,2022-07-06_09h31.45.762,Colour_Asymmetry_Pilot,2022.1.3,Win32,59.90534955,62c50e9c1127f2cd403a315f,0,62,62,124,1,threeone,,,,,,,,,,,,,,,,,,,,,,,,,,,,,,,,,,,,,,,,,,,,,,,,,,,,,,,,,,,,,,,,,,,,,,,,,,,,,,,,,,,,,,,,,,,,,,,,,,,,,,,,,,,,,,,,,,,,,,,,,,,,,,,,,,,,,,,,,,,,,,,,,,,,,,,,,,,
,,,,,,5f2289c3248c55000cd85a11,62c53a5516a30c0af6b0f10b,2022-07-06_09h31.45.762,Colour_Asymmetry_Pilot,2022.1.3,Win32,59.90534955,62c50e9c1127f2cd403a315f,0,63,63,130,1,twoone,,,,,,,,,,,,,,,,,,,,,,,,,,,,,,,,,,,,,,,,,,,,,,,,,,,,,,,,,,,,,,,,,,,,,,,,,,,,,,,,,,,,,,,,,,,,,,,,,,,,,,,,,,,,,,,,,,,,,,,,,,,,,,,,,,,,,,,,,,,,,,,,,,,,,,,,,,,
,,,,,,5f2289c3248c55000cd85a11,62c53a5516a30c0af6b0f10b,2022-07-06_09h31.45.762,Colour_Asymmetry_Pilot,2022.1.3,Win32,59.90534955,62c50e9c1127f2cd403a315f,0,64,64,108,1,threeone,,,,,,,,,,,,,,,,,,,,,,,,,,,,,,,,,,,,,,,,,,,,,,,,,,,,,,,,,,,,,,,,,,,,,,,,,,,,,,,,,,,,,,,,,,,,,,,,,,,,,,,,,,,,,,,,,,,,,,,,,,,,,,,,,,,,,,,,,,,,,,,,,,,,,,,,,,,
,,,,,,5f2289c3248c55000cd85a11,62c53a5516a30c0af6b0f10b,2022-07-06_09h31.45.762,Colour_Asymmetry_Pilot,2022.1.3,Win32,59.90534955,62c50e9c1127f2cd403a315f,0,65,65,161,1,onethree,,,,,,,,,,,,,,,,,,,,,,,,,,,,,,,,,,,,,,,,,,,,,,,,,,,,,,,,,,,,,,,,,,,,,,,,,,,,,,,,,,,,,,,,,,,,,,,,,,,,,,,,,,,,,,,,,,,,,,,,,,,,,,,,,,,,,,,,,,,,,,,,,,,,,,,,,,,
,,,,,,5f2289c3248c55000cd85a11,62c53a5516a30c0af6b0f10b,2022-07-06_09h31.45.762,Colour_Asymmetry_Pilot,2022.1.3,Win32,59.90534955,62c50e9c1127f2cd403a315f,0,66,66,114,1,twoone,,,,,,,,,,,,,,,,,,,,,,,,,,,,,,,,,,,,,,,,,,,,,,,,,,,,,,,,,,,,,,,,,,,,,,,,,,,,,,,,,,,,,,,,,,,,,,,,,,,,,,,,,,,,,,,,,,,,,,,,,,,,,,,,,,,,,,,,,,,,,,,,,,,,,,,,,,,
,,,,,,5f2289c3248c55000cd85a11,62c53a5516a30c0af6b0f10b,2022-07-06_09h31.45.762,Colour_Asymmetry_Pilot,2022.1.3,Win32,59.90534955,62c50e9c1127f2cd403a315f,0,67,67,36,1,threeone,,,,,,,,,,,,,,,,,,,,,,,,,,,,,,,,,,,,,,,,,,,,,,,,,,,,,,,,,,,,,,,,,,,,,,,,,,,,,,,,,,,,,,,,,,,,,,,,,,,,,,,,,,,,,,,,,,,,,,,,,,,,,,,,,,,,,,,,,,,,,,,,,,,,,,,,,,,
,,,,,,5f2289c3248c55000cd85a11,62c53a5516a30c0af6b0f10b,2022-07-06_09h31.45.762,Colour_Asymmetry_Pilot,2022.1.3,Win32,59.90534955,62c50e9c1127f2cd403a315f,0,68,68,56,1,onetwo,,,,,,,,,,,,,,,,,,,,,,,,,,,,,,,,,,,,,,,,,,,,,,,,,,,,,,,,,,,,,,,,,,,,,,,,,,,,,,,,,,,,,,,,,,,,,,,,,,,,,,,,,,,,,,,,,,,,,,,,,,,,,,,,,,,,,,,,,,,,,,,,,,,,,,,,,,,
,,,,,,5f2289c3248c55000cd85a11,62c53a5516a30c0af6b0f10b,2022-07-06_09h31.45.762,Colour_Asymmetry_Pilot,2022.1.3,Win32,59.90534955,62c50e9c1127f2cd403a315f,0,69,69,40,1,onetwo,,,,,,,,,,,,,,,,,,,,,,,,,,,,,,,,,,,,,,,,,,,,,,,,,,,,,,,,,,,,,,,,,,,,,,,,,,,,,,,,,,,,,,,,,,,,,,,,,,,,,,,,,,,,,,,,,,,,,,,,,,,,,,,,,,,,,,,,,,,,,,,,,,,,,,,,,,,
,,,,,,5f2289c3248c55000cd85a11,62c53a5516a30c0af6b0f10b,2022-07-06_09h31.45.762,Colour_Asymmetry_Pilot,2022.1.3,Win32,59.90534955,62c50e9c1127f2cd403a315f,0,70,70,75,1,twofour,,,,,,,,,,,,,,,,,,,,,,,,,,,,,,,,,,,,,,,,,,,,,,,,,,,,,,,,,,,,,,,,,,,,,,,,,,,,,,,,,,,,,,,,,,,,,,,,,,,,,,,,,,,,,,,,,,,,,,,,,,,,,,,,,,,,,,,,,,,,,,,,,,,,,,,,,,,
,,,,,,5f2289c3248c55000cd85a11,62c53a5516a30c0af6b0f10b,2022-07-06_09h31.45.762,Colour_Asymmetry_Pilot,2022.1.3,Win32,59.90534955,62c50e9c1127f2cd403a315f,0,71,71,137,1,onethree,,,,,,,,,,,,,,,,,,,,,,,,,,,,,,,,,,,,,,,,,,,,,,,,,,,,,,,,,,,,,,,,,,,,,,,,,,,,,,,,,,,,,,,,,,,,,,,,,,,,,,,,,,,,,,,,,,,,,,,,,,,,,,,,,,,,,,,,,,,,,,,,,,,,,,,,,,,
,,,,,,5f2289c3248c55000cd85a11,62c53a5516a30c0af6b0f10b,2022-07-06_09h31.45.762,Colour_Asymmetry_Pilot,2022.1.3,Win32,59.90534955,62c50e9c1127f2cd403a315f,0,72,72,2,1,twoone,,,,,,,,,,,,,,,,,,,,,,,,,,,,,,,,,,,,,,,,,,,,,,,,,,,,,,,,,,,,,,,,,,,,,,,,,,,,,,,,,,,,,,,,,,,,,,,,,,,,,,,,,,,,,,,,,,,,,,,,,,,,,,,,,,,,,,,,,,,,,,,,,,,,,,,,,,,
,,,,,,5f2289c3248c55000cd85a11,62c53a5516a30c0af6b0f10b,2022-07-06_09h31.45.762,Colour_Asymmetry_Pilot,2022.1.3,Win32,59.90534955,62c50e9c1127f2cd403a315f,0,73,73,35,1,twofour,,,,,,,,,,,,,,,,,,,,,,,,,,,,,,,,,,,,,,,,,,,,,,,,,,,,,,,,,,,,,,,,,,,,,,,,,,,,,,,,,,,,,,,,,,,,,,,,,,,,,,,,,,,,,,,,,,,,,,,,,,,,,,,,,,,,,,,,,,,,,,,,,,,,,,,,,,,
,,,,,,5f2289c3248c55000cd85a11,62c53a5516a30c0af6b0f10b,2022-07-06_09h31.45.762,Colour_Asymmetry_Pilot,2022.1.3,Win32,59.90534955,62c50e9c1127f2cd403a315f,0,74,74,84,1,threeone,,,,,,,,,,,,,,,,,,,,,,,,,,,,,,,,,,,,,,,,,,,,,,,,,,,,,,,,,,,,,,,,,,,,,,,,,,,,,,,,,,,,,,,,,,,,,,,,,,,,,,,,,,,,,,,,,,,,,,,,,,,,,,,,,,,,,,,,,,,,,,,,,,,,,,,,,,,
,,,,,,5f2289c3248c55000cd85a11,62c53a5516a30c0af6b0f10b,2022-07-06_09h31.45.762,Colour_Asymmetry_Pilot,2022.1.3,Win32,59.90534955,62c50e9c1127f2cd403a315f,0,75,75,146,1,twoone,,,,,,,,,,,,,,,,,,,,,,,,,,,,,,,,,,,,,,,,,,,,,,,,,,,,,,,,,,,,,,,,,,,,,,,,,,,,,,,,,,,,,,,,,,,,,,,,,,,,,,,,,,,,,,,,,,,,,,,,,,,,,,,,,,,,,,,,,,,,,,,,,,,,,,,,,,,
,,,,,,5f2289c3248c55000cd85a11,62c53a5516a30c0af6b0f10b,2022-07-06_09h31.45.762,Colour_Asymmetry_Pilot,2022.1.3,Win32,59.90534955,62c50e9c1127f2cd403a315f,0,76,76,142,1,fourtwo,,,,,,,,,,,,,,,,,,,,,,,,,,,,,,,,,,,,,,,,,,,,,,,,,,,,,,,,,,,,,,,,,,,,,,,,,,,,,,,,,,,,,,,,,,,,,,,,,,,,,,,,,,,,,,,,,,,,,,,,,,,,,,,,,,,,,,,,,,,,,,,,,,,,,,,,,,,
,,,,,,5f2289c3248c55000cd85a11,62c53a5516a30c0af6b0f10b,2022-07-06_09h31.45.762,Colour_Asymmetry_Pilot,2022.1.3,Win32,59.90534955,62c50e9c1127f2cd403a315f,0,77,77,8,1,onetwo,,,,,,,,,,,,,,,,,,,,,,,,,,,,,,,,,,,,,,,,,,,,,,,,,,,,,,,,,,,,,,,,,,,,,,,,,,,,,,,,,,,,,,,,,,,,,,,,,,,,,,,,,,,,,,,,,,,,,,,,,,,,,,,,,,,,,,,,,,,,,,,,,,,,,,,,,,,
,,,,,,5f2289c3248c55000cd85a11,62c53a5516a30c0af6b0f10b,2022-07-06_09h31.45.762,Colour_Asymmetry_Pilot,2022.1.3,Win32,59.90534955,62c50e9c1127f2cd403a315f,0,78,78,91,1,twofour,,,,,,,,,,,,,,,,,,,,,,,,,,,,,,,,,,,,,,,,,,,,,,,,,,,,,,,,,,,,,,,,,,,,,,,,,,,,,,,,,,,,,,,,,,,,,,,,,,,,,,,,,,,,,,,,,,,,,,,,,,,,,,,,,,,,,,,,,,,,,,,,,,,,,,,,,,,
,,,,,,5f2289c3248c55000cd85a11,62c53a5516a30c0af6b0f10b,2022-07-06_09h31.45.762,Colour_Asymmetry_Pilot,2022.1.3,Win32,59.90534955,62c50e9c1127f2cd403a315f,0,79,79,32,1,onetwo,,,,,,,,,,,,,,,,,,,,,,,,,,,,,,,,,,,,,,,,,,,,,,,,,,,,,,,,,,,,,,,,,,,,,,,,,,,,,,,,,,,,,,,,,,,,,,,,,,,,,,,,,,,,,,,,,,,,,,,,,,,,,,,,,,,,,,,,,,,,,,,,,,,,,,,,,,,
,,,,,,5f2289c3248c55000cd85a11,62c53a5516a30c0af6b0f10b,2022-07-06_09h31.45.762,Colour_Asymmetry_Pilot,2022.1.3,Win32,59.90534955,62c50e9c1127f2cd403a315f,0,80,80,101,1,threefour,,,,,,,,,,,,,,,,,,,,,,,,,,,,,,,,,,,,,,,,,,,,,,,,,,,,,,,,,,,,,,,,,,,,,,,,,,,,,,,,,,,,,,,,,,,,,,,,,,,,,,,,,,,,,,,,,,,,,,,,,,,,,,,,,,,,,,,,,,,,,,,,,,,,,,,,,,,
,,,,,,5f2289c3248c55000cd85a11,62c53a5516a30c0af6b0f10b,2022-07-06_09h31.45.762,Colour_Asymmetry_Pilot,2022.1.3,Win32,59.90534955,62c50e9c1127f2cd403a315f,0,81,81,93,1,threefour,,,,,,,,,,,,,,,,,,,,,,,,,,,,,,,,,,,,,,,,,,,,,,,,,,,,,,,,,,,,,,,,,,,,,,,,,,,,,,,,,,,,,,,,,,,,,,,,,,,,,,,,,,,,,,,,,,,,,,,,,,,,,,,,,,,,,,,,,,,,,,,,,,,,,,,,,,,
,,,,,,5f2289c3248c55000cd85a11,62c53a5516a30c0af6b0f10b,2022-07-06_09h31.45.762,Colour_Asymmetry_Pilot,2022.1.3,Win32,59.90534955,62c50e9c1127f2cd403a315f,0,82,82,82,1,twoone,,,,,,,,,,,,,,,,,,,,,,,,,,,,,,,,,,,,,,,,,,,,,,,,,,,,,,,,,,,,,,,,,,,,,,,,,,,,,,,,,,,,,,,,,,,,,,,,,,,,,,,,,,,,,,,,,,,,,,,,,,,,,,,,,,,,,,,,,,,,,,,,,,,,,,,,,,,
,,,,,,5f2289c3248c55000cd85a11,62c53a5516a30c0af6b0f10b,2022-07-06_09h31.45.762,Colour_Asymmetry_Pilot,2022.1.3,Win32,59.90534955,62c50e9c1127f2cd403a315f,0,83,83,115,1,twofour,,,,,,,,,,,,,,,,,,,,,,,,,,,,,,,,,,,,,,,,,,,,,,,,,,,,,,,,,,,,,,,,,,,,,,,,,,,,,,,,,,,,,,,,,,,,,,,,,,,,,,,,,,,,,,,,,,,,,,,,,,,,,,,,,,,,,,,,,,,,,,,,,,,,,,,,,,,
,,,,,,5f2289c3248c55000cd85a11,62c53a5516a30c0af6b0f10b,2022-07-06_09h31.45.762,Colour_Asymmetry_Pilot,2022.1.3,Win32,59.90534955,62c50e9c1127f2cd403a315f,0,84,84,31,1,fourthree,,,,,,,,,,,,,,,,,,,,,,,,,,,,,,,,,,,,,,,,,,,,,,,,,,,,,,,,,,,,,,,,,,,,,,,,,,,,,,,,,,,,,,,,,,,,,,,,,,,,,,,,,,,,,,,,,,,,,,,,,,,,,,,,,,,,,,,,,,,,,,,,,,,,,,,,,,,
,,,,,,5f2289c3248c55000cd85a11,62c53a5516a30c0af6b0f10b,2022-07-06_09h31.45.762,Colour_Asymmetry_Pilot,2022.1.3,Win32,59.90534955,62c50e9c1127f2cd403a315f,0,85,85,72,1,onetwo,,,,,,,,,,,,,,,,,,,,,,,,,,,,,,,,,,,,,,,,,,,,,,,,,,,,,,,,,,,,,,,,,,,,,,,,,,,,,,,,,,,,,,,,,,,,,,,,,,,,,,,,,,,,,,,,,,,,,,,,,,,,,,,,,,,,,,,,,,,,,,,,,,,,,,,,,,,
,,,,,,5f2289c3248c55000cd85a11,62c53a5516a30c0af6b0f10b,2022-07-06_09h31.45.762,Colour_Asymmetry_Pilot,2022.1.3,Win32,59.90534955,62c50e9c1127f2cd403a315f,0,86,86,69,1,threefour,,,,,,,,,,,,,,,,,,,,,,,,,,,,,,,,,,,,,,,,,,,,,,,,,,,,,,,,,,,,,,,,,,,,,,,,,,,,,,,,,,,,,,,,,,,,,,,,,,,,,,,,,,,,,,,,,,,,,,,,,,,,,,,,,,,,,,,,,,,,,,,,,,,,,,,,,,,
,,,,,,5f2289c3248c55000cd85a11,62c53a5516a30c0af6b0f10b,2022-07-06_09h31.45.762,Colour_Asymmetry_Pilot,2022.1.3,Win32,59.90534955,62c50e9c1127f2cd403a315f,0,87,87,15,1,fourthree,,,,,,,,,,,,,,,,,,,,,,,,,,,,,,,,,,,,,,,,,,,,,,,,,,,,,,,,,,,,,,,,,,,,,,,,,,,,,,,,,,,,,,,,,,,,,,,,,,,,,,,,,,,,,,,,,,,,,,,,,,,,,,,,,,,,,,,,,,,,,,,,,,,,,,,,,,,
,,,,,,5f2289c3248c55000cd85a11,62c53a5516a30c0af6b0f10b,2022-07-06_09h31.45.762,Colour_Asymmetry_Pilot,2022.1.3,Win32,59.90534955,62c50e9c1127f2cd403a315f,0,88,88,157,1,threefour,,,,,,,,,,,,,,,,,,,,,,,,,,,,,,,,,,,,,,,,,,,,,,,,,,,,,,,,,,,,,,,,,,,,,,,,,,,,,,,,,,,,,,,,,,,,,,,,,,,,,,,,,,,,,,,,,,,,,,,,,,,,,,,,,,,,,,,,,,,,,,,,,,,,,,,,,,,
,,,,,,5f2289c3248c55000cd85a11,62c53a5516a30c0af6b0f10b,2022-07-06_09h31.45.762,Colour_Asymmetry_Pilot,2022.1.3,Win32,59.90534955,62c50e9c1127f2cd403a315f,0,89,89,140,1,threeone,,,,,,,,,,,,,,,,,,,,,,,,,,,,,,,,,,,,,,,,,,,,,,,,,,,,,,,,,,,,,,,,,,,,,,,,,,,,,,,,,,,,,,,,,,,,,,,,,,,,,,,,,,,,,,,,,,,,,,,,,,,,,,,,,,,,,,,,,,,,,,,,,,,,,,,,,,,
,,,,,,5f2289c3248c55000cd85a11,62c53a5516a30c0af6b0f10b,2022-07-06_09h31.45.762,Colour_Asymmetry_Pilot,2022.1.3,Win32,59.90534955,62c50e9c1127f2cd403a315f,0,90,90,132,1,threeone,,,,,,,,,,,,,,,,,,,,,,,,,,,,,,,,,,,,,,,,,,,,,,,,,,,,,,,,,,,,,,,,,,,,,,,,,,,,,,,,,,,,,,,,,,,,,,,,,,,,,,,,,,,,,,,,,,,,,,,,,,,,,,,,,,,,,,,,,,,,,,,,,,,,,,,,,,,
,,,,,,5f2289c3248c55000cd85a11,62c53a5516a30c0af6b0f10b,2022-07-06_09h31.45.762,Colour_Asymmetry_Pilot,2022.1.3,Win32,59.90534955,62c50e9c1127f2cd403a315f,0,91,91,90,1,twoone,,,,,,,,,,,,,,,,,,,,,,,,,,,,,,,,,,,,,,,,,,,,,,,,,,,,,,,,,,,,,,,,,,,,,,,,,,,,,,,,,,,,,,,,,,,,,,,,,,,,,,,,,,,,,,,,,,,,,,,,,,,,,,,,,,,,,,,,,,,,,,,,,,,,,,,,,,,
,,,,,,5f2289c3248c55000cd85a11,62c53a5516a30c0af6b0f10b,2022-07-06_09h31.45.762,Colour_Asymmetry_Pilot,2022.1.3,Win32,59.90534955,62c50e9c1127f2cd403a315f,0,92,92,46,1,fourtwo,,,,,,,,,,,,,,,,,,,,,,,,,,,,,,,,,,,,,,,,,,,,,,,,,,,,,,,,,,,,,,,,,,,,,,,,,,,,,,,,,,,,,,,,,,,,,,,,,,,,,,,,,,,,,,,,,,,,,,,,,,,,,,,,,,,,,,,,,,,,,,,,,,,,,,,,,,,
,,,,,,5f2289c3248c55000cd85a11,62c53a5516a30c0af6b0f10b,2022-07-06_09h31.45.762,Colour_Asymmetry_Pilot,2022.1.3,Win32,59.90534955,62c50e9c1127f2cd403a315f,0,93,93,66,1,twoone,,,,,,,,,,,,,,,,,,,,,,,,,,,,,,,,,,,,,,,,,,,,,,,,,,,,,,,,,,,,,,,,,,,,,,,,,,,,,,,,,,,,,,,,,,,,,,,,,,,,,,,,,,,,,,,,,,,,,,,,,,,,,,,,,,,,,,,,,,,,,,,,,,,,,,,,,,,
,,,,,,5f2289c3248c55000cd85a11,62c53a5516a30c0af6b0f10b,2022-07-06_09h31.45.762,Colour_Asymmetry_Pilot,2022.1.3,Win32,59.90534955,62c50e9c1127f2cd403a315f,0,94,94,92,1,threeone,,,,,,,,,,,,,,,,,,,,,,,,,,,,,,,,,,,,,,,,,,,,,,,,,,,,,,,,,,,,,,,,,,,,,,,,,,,,,,,,,,,,,,,,,,,,,,,,,,,,,,,,,,,,,,,,,,,,,,,,,,,,,,,,,,,,,,,,,,,,,,,,,,,,,,,,,,,
,,,,,,5f2289c3248c55000cd85a11,62c53a5516a30c0af6b0f10b,2022-07-06_09h31.45.762,Colour_Asymmetry_Pilot,2022.1.3,Win32,59.90534955,62c50e9c1127f2cd403a315f,0,95,95,62,1,fourtwo,,,,,,,,,,,,,,,,,,,,,,,,,,,,,,,,,,,,,,,,,,,,,,,,,,,,,,,,,,,,,,,,,,,,,,,,,,,,,,,,,,,,,,,,,,,,,,,,,,,,,,,,,,,,,,,,,,,,,,,,,,,,,,,,,,,,,,,,,,,,,,,,,,,,,,,,,,,
,,,,,,5f2289c3248c55000cd85a11,62c53a5516a30c0af6b0f10b,2022-07-06_09h31.45.762,Colour_Asymmetry_Pilot,2022.1.3,Win32,59.90534955,62c50e9c1127f2cd403a315f,0,96,96,27,1,twofour,,,,,,,,,,,,,,,,,,,,,,,,,,,,,,,,,,,,,,,,,,,,,,,,,,,,,,,,,,,,,,,,,,,,,,,,,,,,,,,,,,,,,,,,,,,,,,,,,,,,,,,,,,,,,,,,,,,,,,,,,,,,,,,,,,,,,,,,,,,,,,,,,,,,,,,,,,,
,,,,,,5f2289c3248c55000cd85a11,62c53a5516a30c0af6b0f10b,2022-07-06_09h31.45.762,Colour_Asymmetry_Pilot,2022.1.3,Win32,59.90534955,62c50e9c1127f2cd403a315f,0,97,97,61,1,threefour,,,,,,,,,,,,,,,,,,,,,,,,,,,,,,,,,,,,,,,,,,,,,,,,,,,,,,,,,,,,,,,,,,,,,,,,,,,,,,,,,,,,,,,,,,,,,,,,,,,,,,,,,,,,,,,,,,,,,,,,,,,,,,,,,,,,,,,,,,,,,,,,,,,,,,,,,,,
,,,,,,5f2289c3248c55000cd85a11,62c53a5516a30c0af6b0f10b,2022-07-06_09h31.45.762,Colour_Asymmetry_Pilot,2022.1.3,Win32,59.90534955,62c50e9c1127f2cd403a315f,0,98,98,28,1,threeone,,,,,,,,,,,,,,,,,,,,,,,,,,,,,,,,,,,,,,,,,,,,,,,,,,,,,,,,,,,,,,,,,,,,,,,,,,,,,,,,,,,,,,,,,,,,,,,,,,,,,,,,,,,,,,,,,,,,,,,,,,,,,,,,,,,,,,,,,,,,,,,,,,,,,,,,,,,
,,,,,,5f2289c3248c55000cd85a11,62c53a5516a30c0af6b0f10b,2022-07-06_09h31.45.762,Colour_Asymmetry_Pilot,2022.1.3,Win32,59.90534955,62c50e9c1127f2cd403a315f,0,99,99,152,1,onetwo,,,,,,,,,,,,,,,,,,,,,,,,,,,,,,,,,,,,,,,,,,,,,,,,,,,,,,,,,,,,,,,,,,,,,,,,,,,,,,,,,,,,,,,,,,,,,,,,,,,,,,,,,,,,,,,,,,,,,,,,,,,,,,,,,,,,,,,,,,,,,,,,,,,,,,,,,,,
,,,,,,5f2289c3248c55000cd85a11,62c53a5516a30c0af6b0f10b,2022-07-06_09h31.45.762,Colour_Asymmetry_Pilot,2022.1.3,Win32,59.90534955,62c50e9c1127f2cd403a315f,0,100,100,135,1,fourthree,,,,,,,,,,,,,,,,,,,,,,,,,,,,,,,,,,,,,,,,,,,,,,,,,,,,,,,,,,,,,,,,,,,,,,,,,,,,,,,,,,,,,,,,,,,,,,,,,,,,,,,,,,,,,,,,,,,,,,,,,,,,,,,,,,,,,,,,,,,,,,,,,,,,,,,,,,,
,,,,,,5f2289c3248c55000cd85a11,62c53a5516a30c0af6b0f10b,2022-07-06_09h31.45.762,Colour_Asymmetry_Pilot,2022.1.3,Win32,59.90534955,62c50e9c1127f2cd403a315f,0,101,101,106,1,twoone,,,,,,,,,,,,,,,,,,,,,,,,,,,,,,,,,,,,,,,,,,,,,,,,,,,,,,,,,,,,,,,,,,,,,,,,,,,,,,,,,,,,,,,,,,,,,,,,,,,,,,,,,,,,,,,,,,,,,,,,,,,,,,,,,,,,,,,,,,,,,,,,,,,,,,,,,,,
,,,,,,5f2289c3248c55000cd85a11,62c53a5516a30c0af6b0f10b,2022-07-06_09h31.45.762,Colour_Asymmetry_Pilot,2022.1.3,Win32,59.90534955,62c50e9c1127f2cd403a315f,0,102,102,160,1,onetwo,,,,,,,,,,,,,,,,,,,,,,,,,,,,,,,,,,,,,,,,,,,,,,,,,,,,,,,,,,,,,,,,,,,,,,,,,,,,,,,,,,,,,,,,,,,,,,,,,,,,,,,,,,,,,,,,,,,,,,,,,,,,,,,,,,,,,,,,,,,,,,,,,,,,,,,,,,,
,,,,,,5f2289c3248c55000cd85a11,62c53a5516a30c0af6b0f10b,2022-07-06_09h31.45.762,Colour_Asymmetry_Pilot,2022.1.3,Win32,59.90534955,62c50e9c1127f2cd403a315f,0,103,103,63,1,fourthree,,,,,,,,,,,,,,,,,,,,,,,,,,,,,,,,,,,,,,,,,,,,,,,,,,,,,,,,,,,,,,,,,,,,,,,,,,,,,,,,,,,,,,,,,,,,,,,,,,,,,,,,,,,,,,,,,,,,,,,,,,,,,,,,,,,,,,,,,,,,,,,,,,,,,,,,,,,
,,,,,,5f2289c3248c55000cd85a11,62c53a5516a30c0af6b0f10b,2022-07-06_09h31.45.762,Colour_Asymmetry_Pilot,2022.1.3,Win32,59.90534955,62c50e9c1127f2cd403a315f,0,104,104,143,1,fourthree,,,,,,,,,,,,,,,,,,,,,,,,,,,,,,,,,,,,,,,,,,,,,,,,,,,,,,,,,,,,,,,,,,,,,,,,,,,,,,,,,,,,,,,,,,,,,,,,,,,,,,,,,,,,,,,,,,,,,,,,,,,,,,,,,,,,,,,,,,,,,,,,,,,,,,,,,,,
,,,,,,5f2289c3248c55000cd85a11,62c53a5516a30c0af6b0f10b,2022-07-06_09h31.45.762,Colour_Asymmetry_Pilot,2022.1.3,Win32,59.90534955,62c50e9c1127f2cd403a315f,0,105,105,3,1,twofour,,,,,,,,,,,,,,,,,,,,,,,,,,,,,,,,,,,,,,,,,,,,,,,,,,,,,,,,,,,,,,,,,,,,,,,,,,,,,,,,,,,,,,,,,,,,,,,,,,,,,,,,,,,,,,,,,,,,,,,,,,,,,,,,,,,,,,,,,,,,,,,,,,,,,,,,,,,
,,,,,,5f2289c3248c55000cd85a11,62c53a5516a30c0af6b0f10b,2022-07-06_09h31.45.762,Colour_Asymmetry_Pilot,2022.1.3,Win32,59.90534955,62c50e9c1127f2cd403a315f,0,106,106,77,1,threefour,,,,,,,,,,,,,,,,,,,,,,,,,,,,,,,,,,,,,,,,,,,,,,,,,,,,,,,,,,,,,,,,,,,,,,,,,,,,,,,,,,,,,,,,,,,,,,,,,,,,,,,,,,,,,,,,,,,,,,,,,,,,,,,,,,,,,,,,,,,,,,,,,,,,,,,,,,,
,,,,,,5f2289c3248c55000cd85a11,62c53a5516a30c0af6b0f10b,2022-07-06_09h31.45.762,Colour_Asymmetry_Pilot,2022.1.3,Win32,59.90534955,62c50e9c1127f2cd403a315f,0,107,107,52,1,threeone,,,,,,,,,,,,,,,,,,,,,,,,,,,,,,,,,,,,,,,,,,,,,,,,,,,,,,,,,,,,,,,,,,,,,,,,,,,,,,,,,,,,,,,,,,,,,,,,,,,,,,,,,,,,,,,,,,,,,,,,,,,,,,,,,,,,,,,,,,,,,,,,,,,,,,,,,,,
,,,,,,5f2289c3248c55000cd85a11,62c53a5516a30c0af6b0f10b,2022-07-06_09h31.45.762,Colour_Asymmetry_Pilot,2022.1.3,Win32,59.90534955,62c50e9c1127f2cd403a315f,0,108,108,73,1,onethree,,,,,,,,,,,,,,,,,,,,,,,,,,,,,,,,,,,,,,,,,,,,,,,,,,,,,,,,,,,,,,,,,,,,,,,,,,,,,,,,,,,,,,,,,,,,,,,,,,,,,,,,,,,,,,,,,,,,,,,,,,,,,,,,,,,,,,,,,,,,,,,,,,,,,,,,,,,
,,,,,,5f2289c3248c55000cd85a11,62c53a5516a30c0af6b0f10b,2022-07-06_09h31.45.762,Colour_Asymmetry_Pilot,2022.1.3,Win32,59.90534955,62c50e9c1127f2cd403a315f,0,109,109,68,1,threeone,,,,,,,,,,,,,,,,,,,,,,,,,,,,,,,,,,,,,,,,,,,,,,,,,,,,,,,,,,,,,,,,,,,,,,,,,,,,,,,,,,,,,,,,,,,,,,,,,,,,,,,,,,,,,,,,,,,,,,,,,,,,,,,,,,,,,,,,,,,,,,,,,,,,,,,,,,,
,,,,,,5f2289c3248c55000cd85a11,62c53a5516a30c0af6b0f10b,2022-07-06_09h31.45.762,Colour_Asymmetry_Pilot,2022.1.3,Win32,59.90534955,62c50e9c1127f2cd403a315f,0,110,110,149,1,threefour,,,,,,,,,,,,,,,,,,,,,,,,,,,,,,,,,,,,,,,,,,,,,,,,,,,,,,,,,,,,,,,,,,,,,,,,,,,,,,,,,,,,,,,,,,,,,,,,,,,,,,,,,,,,,,,,,,,,,,,,,,,,,,,,,,,,,,,,,,,,,,,,,,,,,,,,,,,
,,,,,,5f2289c3248c55000cd85a11,62c53a5516a30c0af6b0f10b,2022-07-06_09h31.45.762,Colour_Asymmetry_Pilot,2022.1.3,Win32,59.90534955,62c50e9c1127f2cd403a315f,0,111,111,159,1,fourthree,,,,,,,,,,,,,,,,,,,,,,,,,,,,,,,,,,,,,,,,,,,,,,,,,,,,,,,,,,,,,,,,,,,,,,,,,,,,,,,,,,,,,,,,,,,,,,,,,,,,,,,,,,,,,,,,,,,,,,,,,,,,,,,,,,,,,,,,,,,,,,,,,,,,,,,,,,,
,,,,,,5f2289c3248c55000cd85a11,62c53a5516a30c0af6b0f10b,2022-07-06_09h31.45.762,Colour_Asymmetry_Pilot,2022.1.3,Win32,59.90534955,62c50e9c1127f2cd403a315f,0,112,112,39,1,fourthree,,,,,,,,,,,,,,,,,,,,,,,,,,,,,,,,,,,,,,,,,,,,,,,,,,,,,,,,,,,,,,,,,,,,,,,,,,,,,,,,,,,,,,,,,,,,,,,,,,,,,,,,,,,,,,,,,,,,,,,,,,,,,,,,,,,,,,,,,,,,,,,,,,,,,,,,,,,
,,,,,,5f2289c3248c55000cd85a11,62c53a5516a30c0af6b0f10b,2022-07-06_09h31.45.762,Colour_Asymmetry_Pilot,2022.1.3,Win32,59.90534955,62c50e9c1127f2cd403a315f,0,113,113,128,1,onetwo,,,,,,,,,,,,,,,,,,,,,,,,,,,,,,,,,,,,,,,,,,,,,,,,,,,,,,,,,,,,,,,,,,,,,,,,,,,,,,,,,,,,,,,,,,,,,,,,,,,,,,,,,,,,,,,,,,,,,,,,,,,,,,,,,,,,,,,,,,,,,,,,,,,,,,,,,,,
,,,,,,5f2289c3248c55000cd85a11,62c53a5516a30c0af6b0f10b,2022-07-06_09h31.45.762,Colour_Asymmetry_Pilot,2022.1.3,Win32,59.90534955,62c50e9c1127f2cd403a315f,0,114,114,33,1,onethree,,,,,,,,,,,,,,,,,,,,,,,,,,,,,,,,,,,,,,,,,,,,,,,,,,,,,,,,,,,,,,,,,,,,,,,,,,,,,,,,,,,,,,,,,,,,,,,,,,,,,,,,,,,,,,,,,,,,,,,,,,,,,,,,,,,,,,,,,,,,,,,,,,,,,,,,,,,
,,,,,,5f2289c3248c55000cd85a11,62c53a5516a30c0af6b0f10b,2022-07-06_09h31.45.762,Colour_Asymmetry_Pilot,2022.1.3,Win32,59.90534955,62c50e9c1127f2cd403a315f,0,115,115,87,1,fourthree,,,,,,,,,,,,,,,,,,,,,,,,,,,,,,,,,,,,,,,,,,,,,,,,,,,,,,,,,,,,,,,,,,,,,,,,,,,,,,,,,,,,,,,,,,,,,,,,,,,,,,,,,,,,,,,,,,,,,,,,,,,,,,,,,,,,,,,,,,,,,,,,,,,,,,,,,,,
,,,,,,5f2289c3248c55000cd85a11,62c53a5516a30c0af6b0f10b,2022-07-06_09h31.45.762,Colour_Asymmetry_Pilot,2022.1.3,Win32,59.90534955,62c50e9c1127f2cd403a315f,0,116,116,44,1,threeone,,,,,,,,,,,,,,,,,,,,,,,,,,,,,,,,,,,,,,,,,,,,,,,,,,,,,,,,,,,,,,,,,,,,,,,,,,,,,,,,,,,,,,,,,,,,,,,,,,,,,,,,,,,,,,,,,,,,,,,,,,,,,,,,,,,,,,,,,,,,,,,,,,,,,,,,,,,
,,,,,,5f2289c3248c55000cd85a11,62c53a5516a30c0af6b0f10b,2022-07-06_09h31.45.762,Colour_Asymmetry_Pilot,2022.1.3,Win32,59.90534955,62c50e9c1127f2cd403a315f,0,117,117,79,1,fourthree,,,,,,,,,,,,,,,,,,,,,,,,,,,,,,,,,,,,,,,,,,,,,,,,,,,,,,,,,,,,,,,,,,,,,,,,,,,,,,,,,,,,,,,,,,,,,,,,,,,,,,,,,,,,,,,,,,,,,,,,,,,,,,,,,,,,,,,,,,,,,,,,,,,,,,,,,,,
,,,,,,5f2289c3248c55000cd85a11,62c53a5516a30c0af6b0f10b,2022-07-06_09h31.45.762,Colour_Asymmetry_Pilot,2022.1.3,Win32,59.90534955,62c50e9c1127f2cd403a315f,0,118,118,134,1,fourtwo,,,,,,,,,,,,,,,,,,,,,,,,,,,,,,,,,,,,,,,,,,,,,,,,,,,,,,,,,,,,,,,,,,,,,,,,,,,,,,,,,,,,,,,,,,,,,,,,,,,,,,,,,,,,,,,,,,,,,,,,,,,,,,,,,,,,,,,,,,,,,,,,,,,,,,,,,,,
,,,,,,5f2289c3248c55000cd85a11,62c53a5516a30c0af6b0f10b,2022-07-06_09h31.45.762,Colour_Asymmetry_Pilot,2022.1.3,Win32,59.90534955,62c50e9c1127f2cd403a315f,0,119,119,153,1,onethree,,,,,,,,,,,,,,,,,,,,,,,,,,,,,,,,,,,,,,,,,,,,,,,,,,,,,,,,,,,,,,,,,,,,,,,,,,,,,,,,,,,,,,,,,,,,,,,,,,,,,,,,,,,,,,,,,,,,,,,,,,,,,,,,,,,,,,,,,,,,,,,,,,,,,,,,,,,
,,,,,,5f2289c3248c55000cd85a11,62c53a5516a30c0af6b0f10b,2022-07-06_09h31.45.762,Colour_Asymmetry_Pilot,2022.1.3,Win32,59.90534955,62c50e9c1127f2cd403a315f,0,120,120,30,1,fourtwo,,,,,,,,,,,,,,,,,,,,,,,,,,,,,,,,,,,,,,,,,,,,,,,,,,,,,,,,,,,,,,,,,,,,,,,,,,,,,,,,,,,,,,,,,,,,,,,,,,,,,,,,,,,,,,,,,,,,,,,,,,,,,,,,,,,,,,,,,,,,,,,,,,,,,,,,,,,
,,,,,,5f2289c3248c55000cd85a11,62c53a5516a30c0af6b0f10b,2022-07-06_09h31.45.762,Colour_Asymmetry_Pilot,2022.1.3,Win32,59.90534955,62c50e9c1127f2cd403a315f,0,121,121,107,1,twofour,,,,,,,,,,,,,,,,,,,,,,,,,,,,,,,,,,,,,,,,,,,,,,,,,,,,,,,,,,,,,,,,,,,,,,,,,,,,,,,,,,,,,,,,,,,,,,,,,,,,,,,,,,,,,,,,,,,,,,,,,,,,,,,,,,,,,,,,,,,,,,,,,,,,,,,,,,,
,,,,,,5f2289c3248c55000cd85a11,62c53a5516a30c0af6b0f10b,2022-07-06_09h31.45.762,Colour_Asymmetry_Pilot,2022.1.3,Win32,59.90534955,62c50e9c1127f2cd403a315f,0,122,122,127,1,fourthree,,,,,,,,,,,,,,,,,,,,,,,,,,,,,,,,,,,,,,,,,,,,,,,,,,,,,,,,,,,,,,,,,,,,,,,,,,,,,,,,,,,,,,,,,,,,,,,,,,,,,,,,,,,,,,,,,,,,,,,,,,,,,,,,,,,,,,,,,,,,,,,,,,,,,,,,,,,
,,,,,,5f2289c3248c55000cd85a11,62c53a5516a30c0af6b0f10b,2022-07-06_09h31.45.762,Colour_Asymmetry_Pilot,2022.1.3,Win32,59.90534955,62c50e9c1127f2cd403a315f,0,123,123,71,1,fourthree,,,,,,,,,,,,,,,,,,,,,,,,,,,,,,,,,,,,,,,,,,,,,,,,,,,,,,,,,,,,,,,,,,,,,,,,,,,,,,,,,,,,,,,,,,,,,,,,,,,,,,,,,,,,,,,,,,,,,,,,,,,,,,,,,,,,,,,,,,,,,,,,,,,,,,,,,,,
,,,,,,5f2289c3248c55000cd85a11,62c53a5516a30c0af6b0f10b,2022-07-06_09h31.45.762,Colour_Asymmetry_Pilot,2022.1.3,Win32,59.90534955,62c50e9c1127f2cd403a315f,0,124,124,100,1,threeone,,,,,,,,,,,,,,,,,,,,,,,,,,,,,,,,,,,,,,,,,,,,,,,,,,,,,,,,,,,,,,,,,,,,,,,,,,,,,,,,,,,,,,,,,,,,,,,,,,,,,,,,,,,,,,,,,,,,,,,,,,,,,,,,,,,,,,,,,,,,,,,,,,,,,,,,,,,
,,,,,,5f2289c3248c55000cd85a11,62c53a5516a30c0af6b0f10b,2022-07-06_09h31.45.762,Colour_Asymmetry_Pilot,2022.1.3,Win32,59.90534955,62c50e9c1127f2cd403a315f,0,125,125,24,1,onetwo,,,,,,,,,,,,,,,,,,,,,,,,,,,,,,,,,,,,,,,,,,,,,,,,,,,,,,,,,,,,,,,,,,,,,,,,,,,,,,,,,,,,,,,,,,,,,,,,,,,,,,,,,,,,,,,,,,,,,,,,,,,,,,,,,,,,,,,,,,,,,,,,,,,,,,,,,,,
,,,,,,5f2289c3248c55000cd85a11,62c53a5516a30c0af6b0f10b,2022-07-06_09h31.45.762,Colour_Asymmetry_Pilot,2022.1.3,Win32,59.90534955,62c50e9c1127f2cd403a315f,0,126,126,131,1,twofour,,,,,,,,,,,,,,,,,,,,,,,,,,,,,,,,,,,,,,,,,,,,,,,,,,,,,,,,,,,,,,,,,,,,,,,,,,,,,,,,,,,,,,,,,,,,,,,,,,,,,,,,,,,,,,,,,,,,,,,,,,,,,,,,,,,,,,,,,,,,,,,,,,,,,,,,,,,
,,,,,,5f2289c3248c55000cd85a11,62c53a5516a30c0af6b0f10b,2022-07-06_09h31.45.762,Colour_Asymmetry_Pilot,2022.1.3,Win32,59.90534955,62c50e9c1127f2cd403a315f,0,127,127,6,1,fourtwo,,,,,,,,,,,,,,,,,,,,,,,,,,,,,,,,,,,,,,,,,,,,,,,,,,,,,,,,,,,,,,,,,,,,,,,,,,,,,,,,,,,,,,,,,,,,,,,,,,,,,,,,,,,,,,,,,,,,,,,,,,,,,,,,,,,,,,,,,,,,,,,,,,,,,,,,,,,
,,,,,,5f2289c3248c55000cd85a11,62c53a5516a30c0af6b0f10b,2022-07-06_09h31.45.762,Colour_Asymmetry_Pilot,2022.1.3,Win32,59.90534955,62c50e9c1127f2cd403a315f,0,128,128,148,1,threeone,,,,,,,,,,,,,,,,,,,,,,,,,,,,,,,,,,,,,,,,,,,,,,,,,,,,,,,,,,,,,,,,,,,,,,,,,,,,,,,,,,,,,,,,,,,,,,,,,,,,,,,,,,,,,,,,,,,,,,,,,,,,,,,,,,,,,,,,,,,,,,,,,,,,,,,,,,,
,,,,,,5f2289c3248c55000cd85a11,62c53a5516a30c0af6b0f10b,2022-07-06_09h31.45.762,Colour_Asymmetry_Pilot,2022.1.3,Win32,59.90534955,62c50e9c1127f2cd403a315f,0,129,129,95,1,fourthree,,,,,,,,,,,,,,,,,,,,,,,,,,,,,,,,,,,,,,,,,,,,,,,,,,,,,,,,,,,,,,,,,,,,,,,,,,,,,,,,,,,,,,,,,,,,,,,,,,,,,,,,,,,,,,,,,,,,,,,,,,,,,,,,,,,,,,,,,,,,,,,,,,,,,,,,,,,
,,,,,,5f2289c3248c55000cd85a11,62c53a5516a30c0af6b0f10b,2022-07-06_09h31.45.762,Colour_Asymmetry_Pilot,2022.1.3,Win32,59.90534955,62c50e9c1127f2cd403a315f,0,130,130,26,1,twoone,,,,,,,,,,,,,,,,,,,,,,,,,,,,,,,,,,,,,,,,,,,,,,,,,,,,,,,,,,,,,,,,,,,,,,,,,,,,,,,,,,,,,,,,,,,,,,,,,,,,,,,,,,,,,,,,,,,,,,,,,,,,,,,,,,,,,,,,,,,,,,,,,,,,,,,,,,,
,,,,,,5f2289c3248c55000cd85a11,62c53a5516a30c0af6b0f10b,2022-07-06_09h31.45.762,Colour_Asymmetry_Pilot,2022.1.3,Win32,59.90534955,62c50e9c1127f2cd403a315f,0,131,131,133,1,threefour,,,,,,,,,,,,,,,,,,,,,,,,,,,,,,,,,,,,,,,,,,,,,,,,,,,,,,,,,,,,,,,,,,,,,,,,,,,,,,,,,,,,,,,,,,,,,,,,,,,,,,,,,,,,,,,,,,,,,,,,,,,,,,,,,,,,,,,,,,,,,,,,,,,,,,,,,,,
,,,,,,5f2289c3248c55000cd85a11,62c53a5516a30c0af6b0f10b,2022-07-06_09h31.45.762,Colour_Asymmetry_Pilot,2022.1.3,Win32,59.90534955,62c50e9c1127f2cd403a315f,0,132,132,50,1,twoone,,,,,,,,,,,,,,,,,,,,,,,,,,,,,,,,,,,,,,,,,,,,,,,,,,,,,,,,,,,,,,,,,,,,,,,,,,,,,,,,,,,,,,,,,,,,,,,,,,,,,,,,,,,,,,,,,,,,,,,,,,,,,,,,,,,,,,,,,,,,,,,,,,,,,,,,,,,
,,,,,,5f2289c3248c55000cd85a11,62c53a5516a30c0af6b0f10b,2022-07-06_09h31.45.762,Colour_Asymmetry_Pilot,2022.1.3,Win32,59.90534955,62c50e9c1127f2cd403a315f,0,133,133,144,1,onetwo,,,,,,,,,,,,,,,,,,,,,,,,,,,,,,,,,,,,,,,,,,,,,,,,,,,,,,,,,,,,,,,,,,,,,,,,,,,,,,,,,,,,,,,,,,,,,,,,,,,,,,,,,,,,,,,,,,,,,,,,,,,,,,,,,,,,,,,,,,,,,,,,,,,,,,,,,,,
,,,,,,5f2289c3248c55000cd85a11,62c53a5516a30c0af6b0f10b,2022-07-06_09h31.45.762,Colour_Asymmetry_Pilot,2022.1.3,Win32,59.90534955,62c50e9c1127f2cd403a315f,0,134,134,78,1,fourtwo,,,,,,,,,,,,,,,,,,,,,,,,,,,,,,,,,,,,,,,,,,,,,,,,,,,,,,,,,,,,,,,,,,,,,,,,,,,,,,,,,,,,,,,,,,,,,,,,,,,,,,,,,,,,,,,,,,,,,,,,,,,,,,,,,,,,,,,,,,,,,,,,,,,,,,,,,,,
,,,,,,5f2289c3248c55000cd85a11,62c53a5516a30c0af6b0f10b,2022-07-06_09h31.45.762,Colour_Asymmetry_Pilot,2022.1.3,Win32,59.90534955,62c50e9c1127f2cd403a315f,0,135,135,54,1,fourtwo,,,,,,,,,,,,,,,,,,,,,,,,,,,,,,,,,,,,,,,,,,,,,,,,,,,,,,,,,,,,,,,,,,,,,,,,,,,,,,,,,,,,,,,,,,,,,,,,,,,,,,,,,,,,,,,,,,,,,,,,,,,,,,,,,,,,,,,,,,,,,,,,,,,,,,,,,,,
,,,,,,5f2289c3248c55000cd85a11,62c53a5516a30c0af6b0f10b,2022-07-06_09h31.45.762,Colour_Asymmetry_Pilot,2022.1.3,Win32,59.90534955,62c50e9c1127f2cd403a315f,0,136,136,19,1,twofour,,,,,,,,,,,,,,,,,,,,,,,,,,,,,,,,,,,,,,,,,,,,,,,,,,,,,,,,,,,,,,,,,,,,,,,,,,,,,,,,,,,,,,,,,,,,,,,,,,,,,,,,,,,,,,,,,,,,,,,,,,,,,,,,,,,,,,,,,,,,,,,,,,,,,,,,,,,
,,,,,,5f2289c3248c55000cd85a11,62c53a5516a30c0af6b0f10b,2022-07-06_09h31.45.762,Colour_Asymmetry_Pilot,2022.1.3,Win32,59.90534955,62c50e9c1127f2cd403a315f,0,137,137,74,1,twoone,,,,,,,,,,,,,,,,,,,,,,,,,,,,,,,,,,,,,,,,,,,,,,,,,,,,,,,,,,,,,,,,,,,,,,,,,,,,,,,,,,,,,,,,,,,,,,,,,,,,,,,,,,,,,,,,,,,,,,,,,,,,,,,,,,,,,,,,,,,,,,,,,,,,,,,,,,,
,,,,,,5f2289c3248c55000cd85a11,62c53a5516a30c0af6b0f10b,2022-07-06_09h31.45.762,Colour_Asymmetry_Pilot,2022.1.3,Win32,59.90534955,62c50e9c1127f2cd403a315f,0,138,138,139,1,twofour,,,,,,,,,,,,,,,,,,,,,,,,,,,,,,,,,,,,,,,,,,,,,,,,,,,,,,,,,,,,,,,,,,,,,,,,,,,,,,,,,,,,,,,,,,,,,,,,,,,,,,,,,,,,,,,,,,,,,,,,,,,,,,,,,,,,,,,,,,,,,,,,,,,,,,,,,,,
,,,,,,5f2289c3248c55000cd85a11,62c53a5516a30c0af6b0f10b,2022-07-06_09h31.45.762,Colour_Asymmetry_Pilot,2022.1.3,Win32,59.90534955,62c50e9c1127f2cd403a315f,0,139,139,29,1,threefour,,,,,,,,,,,,,,,,,,,,,,,,,,,,,,,,,,,,,,,,,,,,,,,,,,,,,,,,,,,,,,,,,,,,,,,,,,,,,,,,,,,,,,,,,,,,,,,,,,,,,,,,,,,,,,,,,,,,,,,,,,,,,,,,,,,,,,,,,,,,,,,,,,,,,,,,,,,
,,,,,,5f2289c3248c55000cd85a11,62c53a5516a30c0af6b0f10b,2022-07-06_09h31.45.762,Colour_Asymmetry_Pilot,2022.1.3,Win32,59.90534955,62c50e9c1127f2cd403a315f,0,140,140,154,1,twoone,,,,,,,,,,,,,,,,,,,,,,,,,,,,,,,,,,,,,,,,,,,,,,,,,,,,,,,,,,,,,,,,,,,,,,,,,,,,,,,,,,,,,,,,,,,,,,,,,,,,,,,,,,,,,,,,,,,,,,,,,,,,,,,,,,,,,,,,,,,,,,,,,,,,,,,,,,,
,,,,,,5f2289c3248c55000cd85a11,62c53a5516a30c0af6b0f10b,2022-07-06_09h31.45.762,Colour_Asymmetry_Pilot,2022.1.3,Win32,59.90534955,62c50e9c1127f2cd403a315f,0,141,141,98,1,twoone,,,,,,,,,,,,,,,,,,,,,,,,,,,,,,,,,,,,,,,,,,,,,,,,,,,,,,,,,,,,,,,,,,,,,,,,,,,,,,,,,,,,,,,,,,,,,,,,,,,,,,,,,,,,,,,,,,,,,,,,,,,,,,,,,,,,,,,,,,,,,,,,,,,,,,,,,,,
,,,,,,5f2289c3248c55000cd85a11,62c53a5516a30c0af6b0f10b,2022-07-06_09h31.45.762,Colour_Asymmetry_Pilot,2022.1.3,Win32,59.90534955,62c50e9c1127f2cd403a315f,0,142,142,43,1,twofour,,,,,,,,,,,,,,,,,,,,,,,,,,,,,,,,,,,,,,,,,,,,,,,,,,,,,,,,,,,,,,,,,,,,,,,,,,,,,,,,,,,,,,,,,,,,,,,,,,,,,,,,,,,,,,,,,,,,,,,,,,,,,,,,,,,,,,,,,,,,,,,,,,,,,,,,,,,
,,,,,,5f2289c3248c55000cd85a11,62c53a5516a30c0af6b0f10b,2022-07-06_09h31.45.762,Colour_Asymmetry_Pilot,2022.1.3,Win32,59.90534955,62c50e9c1127f2cd403a315f,0,143,143,122,1,twoone,,,,,,,,,,,,,,,,,,,,,,,,,,,,,,,,,,,,,,,,,,,,,,,,,,,,,,,,,,,,,,,,,,,,,,,,,,,,,,,,,,,,,,,,,,,,,,,,,,,,,,,,,,,,,,,,,,,,,,,,,,,,,,,,,,,,,,,,,,,,,,,,,,,,,,,,,,,
,,,,,,5f2289c3248c55000cd85a11,62c53a5516a30c0af6b0f10b,2022-07-06_09h31.45.762,Colour_Asymmetry_Pilot,2022.1.3,Win32,59.90534955,62c50e9c1127f2cd403a315f,0,144,144,125,1,threefour,,,,,,,,,,,,,,,,,,,,,,,,,,,,,,,,,,,,,,,,,,,,,,,,,,,,,,,,,,,,,,,,,,,,,,,,,,,,,,,,,,,,,,,,,,,,,,,,,,,,,,,,,,,,,,,,,,,,,,,,,,,,,,,,,,,,,,,,,,,,,,,,,,,,,,,,,,,
,,,,,,5f2289c3248c55000cd85a11,62c53a5516a30c0af6b0f10b,2022-07-06_09h31.45.762,Colour_Asymmetry_Pilot,2022.1.3,Win32,59.90534955,62c50e9c1127f2cd403a315f,0,145,145,42,1,twoone,,,,,,,,,,,,,,,,,,,,,,,,,,,,,,,,,,,,,,,,,,,,,,,,,,,,,,,,,,,,,,,,,,,,,,,,,,,,,,,,,,,,,,,,,,,,,,,,,,,,,,,,,,,,,,,,,,,,,,,,,,,,,,,,,,,,,,,,,,,,,,,,,,,,,,,,,,,
,,,,,,5f2289c3248c55000cd85a11,62c53a5516a30c0af6b0f10b,2022-07-06_09h31.45.762,Colour_Asymmetry_Pilot,2022.1.3,Win32,59.90534955,62c50e9c1127f2cd403a315f,0,146,146,45,1,threefour,,,,,,,,,,,,,,,,,,,,,,,,,,,,,,,,,,,,,,,,,,,,,,,,,,,,,,,,,,,,,,,,,,,,,,,,,,,,,,,,,,,,,,,,,,,,,,,,,,,,,,,,,,,,,,,,,,,,,,,,,,,,,,,,,,,,,,,,,,,,,,,,,,,,,,,,,,,
,,,,,,5f2289c3248c55000cd85a11,62c53a5516a30c0af6b0f10b,2022-07-06_09h31.45.762,Colour_Asymmetry_Pilot,2022.1.3,Win32,59.90534955,62c50e9c1127f2cd403a315f,0,147,147,120,1,onetwo,,,,,,,,,,,,,,,,,,,,,,,,,,,,,,,,,,,,,,,,,,,,,,,,,,,,,,,,,,,,,,,,,,,,,,,,,,,,,,,,,,,,,,,,,,,,,,,,,,,,,,,,,,,,,,,,,,,,,,,,,,,,,,,,,,,,,,,,,,,,,,,,,,,,,,,,,,,
,,,,,,5f2289c3248c55000cd85a11,62c53a5516a30c0af6b0f10b,2022-07-06_09h31.45.762,Colour_Asymmetry_Pilot,2022.1.3,Win32,59.90534955,62c50e9c1127f2cd403a315f,0,148,148,59,1,twofour,,,,,,,,,,,,,,,,,,,,,,,,,,,,,,,,,,,,,,,,,,,,,,,,,,,,,,,,,,,,,,,,,,,,,,,,,,,,,,,,,,,,,,,,,,,,,,,,,,,,,,,,,,,,,,,,,,,,,,,,,,,,,,,,,,,,,,,,,,,,,,,,,,,,,,,,,,,
,,,,,,5f2289c3248c55000cd85a11,62c53a5516a30c0af6b0f10b,2022-07-06_09h31.45.762,Colour_Asymmetry_Pilot,2022.1.3,Win32,59.90534955,62c50e9c1127f2cd403a315f,0,149,149,89,1,onethree,,,,,,,,,,,,,,,,,,,,,,,,,,,,,,,,,,,,,,,,,,,,,,,,,,,,,,,,,,,,,,,,,,,,,,,,,,,,,,,,,,,,,,,,,,,,,,,,,,,,,,,,,,,,,,,,,,,,,,,,,,,,,,,,,,,,,,,,,,,,,,,,,,,,,,,,,,,
,,,,,,5f2289c3248c55000cd85a11,62c53a5516a30c0af6b0f10b,2022-07-06_09h31.45.762,Colour_Asymmetry_Pilot,2022.1.3,Win32,59.90534955,62c50e9c1127f2cd403a315f,0,150,150,51,1,twofour,,,,,,,,,,,,,,,,,,,,,,,,,,,,,,,,,,,,,,,,,,,,,,,,,,,,,,,,,,,,,,,,,,,,,,,,,,,,,,,,,,,,,,,,,,,,,,,,,,,,,,,,,,,,,,,,,,,,,,,,,,,,,,,,,,,,,,,,,,,,,,,,,,,,,,,,,,,
,,,,,,5f2289c3248c55000cd85a11,62c53a5516a30c0af6b0f10b,2022-07-06_09h31.45.762,Colour_Asymmetry_Pilot,2022.1.3,Win32,59.90534955,62c50e9c1127f2cd403a315f,0,151,151,109,1,threefour,,,,,,,,,,,,,,,,,,,,,,,,,,,,,,,,,,,,,,,,,,,,,,,,,,,,,,,,,,,,,,,,,,,,,,,,,,,,,,,,,,,,,,,,,,,,,,,,,,,,,,,,,,,,,,,,,,,,,,,,,,,,,,,,,,,,,,,,,,,,,,,,,,,,,,,,,,,
,,,,,,5f2289c3248c55000cd85a11,62c53a5516a30c0af6b0f10b,2022-07-06_09h31.45.762,Colour_Asymmetry_Pilot,2022.1.3,Win32,59.90534955,62c50e9c1127f2cd403a315f,0,152,152,57,1,onethree,,,,,,,,,,,,,,,,,,,,,,,,,,,,,,,,,,,,,,,,,,,,,,,,,,,,,,,,,,,,,,,,,,,,,,,,,,,,,,,,,,,,,,,,,,,,,,,,,,,,,,,,,,,,,,,,,,,,,,,,,,,,,,,,,,,,,,,,,,,,,,,,,,,,,,,,,,,
,,,,,,5f2289c3248c55000cd85a11,62c53a5516a30c0af6b0f10b,2022-07-06_09h31.45.762,Colour_Asymmetry_Pilot,2022.1.3,Win32,59.90534955,62c50e9c1127f2cd403a315f,0,153,153,86,1,fourtwo,,,,,,,,,,,,,,,,,,,,,,,,,,,,,,,,,,,,,,,,,,,,,,,,,,,,,,,,,,,,,,,,,,,,,,,,,,,,,,,,,,,,,,,,,,,,,,,,,,,,,,,,,,,,,,,,,,,,,,,,,,,,,,,,,,,,,,,,,,,,,,,,,,,,,,,,,,,
,,,,,,5f2289c3248c55000cd85a11,62c53a5516a30c0af6b0f10b,2022-07-06_09h31.45.762,Colour_Asymmetry_Pilot,2022.1.3,Win32,59.90534955,62c50e9c1127f2cd403a315f,0,154,154,145,1,onethree,,,,,,,,,,,,,,,,,,,,,,,,,,,,,,,,,,,,,,,,,,,,,,,,,,,,,,,,,,,,,,,,,,,,,,,,,,,,,,,,,,,,,,,,,,,,,,,,,,,,,,,,,,,,,,,,,,,,,,,,,,,,,,,,,,,,,,,,,,,,,,,,,,,,,,,,,,,
,,,,,,5f2289c3248c55000cd85a11,62c53a5516a30c0af6b0f10b,2022-07-06_09h31.45.762,Colour_Asymmetry_Pilot,2022.1.3,Win32,59.90534955,62c50e9c1127f2cd403a315f,0,155,155,22,1,fourtwo,,,,,,,,,,,,,,,,,,,,,,,,,,,,,,,,,,,,,,,,,,,,,,,,,,,,,,,,,,,,,,,,,,,,,,,,,,,,,,,,,,,,,,,,,,,,,,,,,,,,,,,,,,,,,,,,,,,,,,,,,,,,,,,,,,,,,,,,,,,,,,,,,,,,,,,,,,,
,,,,,,5f2289c3248c55000cd85a11,62c53a5516a30c0af6b0f10b,2022-07-06_09h31.45.762,Colour_Asymmetry_Pilot,2022.1.3,Win32,59.90534955,62c50e9c1127f2cd403a315f,0,156,156,65,1,onethree,,,,,,,,,,,,,,,,,,,,,,,,,,,,,,,,,,,,,,,,,,,,,,,,,,,,,,,,,,,,,,,,,,,,,,,,,,,,,,,,,,,,,,,,,,,,,,,,,,,,,,,,,,,,,,,,,,,,,,,,,,,,,,,,,,,,,,,,,,,,,,,,,,,,,,,,,,,
,,,,,,5f2289c3248c55000cd85a11,62c53a5516a30c0af6b0f10b,2022-07-06_09h31.45.762,Colour_Asymmetry_Pilot,2022.1.3,Win32,59.90534955,62c50e9c1127f2cd403a315f,0,157,157,10,1,twoone,,,,,,,,,,,,,,,,,,,,,,,,,,,,,,,,,,,,,,,,,,,,,,,,,,,,,,,,,,,,,,,,,,,,,,,,,,,,,,,,,,,,,,,,,,,,,,,,,,,,,,,,,,,,,,,,,,,,,,,,,,,,,,,,,,,,,,,,,,,,,,,,,,,,,,,,,,,
,,,,,,5f2289c3248c55000cd85a11,62c53a5516a30c0af6b0f10b,2022-07-06_09h31.45.762,Colour_Asymmetry_Pilot,2022.1.3,Win32,59.90534955,62c50e9c1127f2cd403a315f,0,158,158,158,1,fourtwo,,,,,,,,,,,,,,,,,,,,,,,,,,,,,,,,,,,,,,,,,,,,,,,,,,,,,,,,,,,,,,,,,,,,,,,,,,,,,,,,,,,,,,,,,,,,,,,,,,,,,,,,,,,,,,,,,,,,,,,,,,,,,,,,,,,,,,,,,,,,,,,,,,,,,,,,,,,
,,,,,,5f2289c3248c55000cd85a11,62c53a5516a30c0af6b0f10b,2022-07-06_09h31.45.762,Colour_Asymmetry_Pilot,2022.1.3,Win32,59.90534955,62c50e9c1127f2cd403a315f,0,159,159,112,1,onetwo,,,,,,,,,,,,,,,,,,,,,,,,,,,,,,,,,,,,,,,,,,,,,,,,,,,,,,,,,,,,,,,,,,,,,,,,,,,,,,,,,,,,,,,,,,,,,,,,,,,,,,,,,,,,,,,,,,,,,,,,,,,,,,,,,,,,,,,,,,,,,,,,,,,,,,,,,,,
,,,,,,5f2289c3248c55000cd85a11,62c53a5516a30c0af6b0f10b,2022-07-06_09h31.45.762,Colour_Asymmetry_Pilot,2022.1.3,Win32,59.90534955,62c50e9c1127f2cd403a315f,0,160,160,138,1,twoone,,,,,,,,,,,,,,,,,,,,,,,,,,,,,,,,,,,,,,,,,,,,,,,,,,,,,,,,,,,,,,,,,,,,,,,,,,,,,,,,,,,,,,,,,,,,,,,,,,,,,,,,,,,,,,,,,,,,,,,,,,,,,,,,,,,,,,,,,,,,,,,,,,,,,,,,,,,
,,,,,,5f2289c3248c55000cd85a11,62c53a5516a30c0af6b0f10b,2022-07-06_09h31.45.762,Colour_Asymmetry_Pilot,2022.1.3,Win32,59.90534955,62c50e9c1127f2cd403a315f,0,161,161,67,1,twofour,,,,,,,,,,,,,,,,,,,,,,,,,,,,,,,,,,,,,,,,,,,,,,,,,,,,,,,,,,,,,,,,,,,,,,,,,,,,,,,,,,,,,,,,,,,,,,,,,,,,,,,,,,,,,,,,,,,,,,,,,,,,,,,,,,,,,,,,,,,,,,,,,,,,,,,,,,,
,,,,,,5f2289c3248c55000cd85a11,62c53a5516a30c0af6b0f10b,2022-07-06_09h31.45.762,Colour_Asymmetry_Pilot,2022.1.3,Win32,59.90534955,62c50e9c1127f2cd403a315f,,,,,,,space,3.9648,space,7.8994,space,14.744,space,4.9572,space,1.4343,space,2.8291,"[0.7176,-0.906,-0.6864]",twofour,"[0.9213999999999998,0.6391999999999998,-0.9922]",4,7.0295,57.33337402,94,1,0,0,response1disk_5,10.66668701,-2.666687012,1,0,0,rectangle_8,59.33337402,-88,1,0,0,response3disk_7,4,1,1.333374023,1.333312988,1,0,0,rectangle_4,0,0,0,0,1,,,,,,,,,,,,,,,,,,,,,,,,,,,,,,,,,,,,,,,,,,,,,,,,,,,,,,,,,,,,,,,,,,,,,,,,,,,,,,,,,,,,,,,,,,,,,,,,,,,,,,,,,,,
,,,,,,5f2289c3248c55000cd85a11,62c53a5516a30c0af6b0f10b,2022-07-06_09h31.45.762,Colour_Asymmetry_Pilot,2022.1.3,Win32,59.90534955,62c50e9c1127f2cd403a315f,,,,,,,,,,,,,,,,,,,"[0.5528,0.7409999999999999,-0.71]",threefour,"[0.796,0.2156,-0.27859999999999996]",-1,3.2998,-34.66662598,-54.66668701,1,0,0,response5disk_5,2.666687012,1.333312988,1,0,0,rectangle_8,2.666687012,1.333312988,1,0,0,,,1,2.666687012,1.333312988,1,0,0,,1,0,1,0,1,,,,,,,,,,,,,,,,,,,,,,,,,,,,,,,,,,,,,,,,,,,,,,,,,,,,,,,,,,,,,,,,,,,,,,,,,,,,,,,,,,,,,,,,,,,,,,,,,,,,,,,,,,,
,,,,,,5f2289c3248c55000cd85a11,62c53a5516a30c0af6b0f10b,2022-07-06_09h31.45.762,Colour_Asymmetry_Pilot,2022.1.3,Win32,59.90534955,62c50e9c1127f2cd403a315f,,,,,,,,,,,,,,,,,,,"[0.4196,0.4665999999999999,0.3568]",onetwo,"[-0.2942,-0.7648,-0.7492000000000001]",-4,7.5858,-21.33331299,52,1,0,0,response7disk_5,-4.666625977,-9.333343506,1,0,0,rectangle_8,-4.666625977,-9.333343506,1,0,0,,,1,-4.666625977,-9.333343506,1,0,0,,2,0,2,0,1,,,,,,,,,,,,,,,,,,,,,,,,,,,,,,,,,,,,,,,,,,,,,,,,,,,,,,,,,,,,,,,,,,,,,,,,,,,,,,,,,,,,,,,,,,,,,,,,,,,,,,,,,,,
,,,,,,5f2289c3248c55000cd85a11,62c53a5516a30c0af6b0f10b,2022-07-06_09h31.45.762,Colour_Asymmetry_Pilot,2022.1.3,Win32,59.90534955,62c50e9c1127f2cd403a315f,,,,,,,,,,,,,,,,,,,"[-0.9216,-0.5529999999999999,-0.3962]",threeone,"[0.30180000000000007,-0.7884,-0.9844]",-4,3.801,-21.33331299,34,1,0,0,response7disk_5,0,-6.666687012,1,0,0,rectangle_8,0,-6.666687012,1,0,0,,,1,0,-6.666687012,1,0,0,,3,0,3,0,1,,,,,,,,,,,,,,,,,,,,,,,,,,,,,,,,,,,,,,,,,,,,,,,,,,,,,,,,,,,,,,,,,,,,,,,,,,,,,,,,,,,,,,,,,,,,,,,,,,,,,,,,,,,
,,,,,,5f2289c3248c55000cd85a11,62c53a5516a30c0af6b0f10b,2022-07-06_09h31.45.762,Colour_Asymmetry_Pilot,2022.1.3,Win32,59.90534955,62c50e9c1127f2cd403a315f,,,,,,,,,,,,,,,,,,,"[0.5449999999999999,-0.31000000000000005,-0.0354000000000001]",onethree,"[0.23920000000000008,0.2704,0.16060000000000008]",-1,2.9326,-32.66662598,-64,1,0,0,response5disk_5,-4,0,1,0,0,rectangle_8,-4,0,1,0,0,,,1,-4,0,1,0,0,,4,0,4,0,1,,,,,,,,,,,,,,,,,,,,,,,,,,,,,,,,,,,,,,,,,,,,,,,,,,,,,,,,,,,,,,,,,,,,,,,,,,,,,,,,,,,,,,,,,,,,,,,,,,,,,,,,,,,
,,,,,,5f2289c3248c55000cd85a11,62c53a5516a30c0af6b0f10b,2022-07-06_09h31.45.762,Colour_Asymmetry_Pilot,2022.1.3,Win32,59.90534955,62c50e9c1127f2cd403a315f,,,,,,,,,,,,,,,,,,,"[-0.07459999999999989,0.12139999999999995,-0.9922]",twofour,"[-0.30200000000000005,0.14500000000000002,0.2784]",1,2.5839,64.66668701,-73.33334351,1,0,0,response3disk_5,8,8,1,0,0,rectangle_8,8,8,1,0,0,,,1,8,8,1,0,0,,5,0,5,0,1,,,,,,,,,,,,,,,,,,,,,,,,,,,,,,,,,,,,,,,,,,,,,,,,,,,,,,,,,,,,,,,,,,,,,,,,,,,,,,,,,,,,,,,,,,,,,,,,,,,,,,,,,,,
,,,,,,5f2289c3248c55000cd85a11,62c53a5516a30c0af6b0f10b,2022-07-06_09h31.45.762,Colour_Asymmetry_Pilot,2022.1.3,Win32,59.90534955,62c50e9c1127f2cd403a315f,,,,,,,,,,,,,,,,,,,"[-0.5922000000000001,-0.7492000000000001,-0.5296000000000001]",threeone,"[-0.10599999999999998,-0.10599999999999998,0.5841999999999998]",-3,1.4004,-56,45.33331299,1,0,0,response7disk_5,-6,2,1,0,0,rectangle_8,-6,2,1,0,0,,,1,-6,2,1,0,0,,6,0,6,0,1,,,,,,,,,,,,,,,,,,,,,,,,,,,,,,,,,,,,,,,,,,,,,,,,,,,,,,,,,,,,,,,,,,,,,,,,,,,,,,,,,,,,,,,,,,,,,,,,,,,,,,,,,,,
,,,,,,5f2289c3248c55000cd85a11,62c53a5516a30c0af6b0f10b,2022-07-06_09h31.45.762,Colour_Asymmetry_Pilot,2022.1.3,Win32,59.90534955,62c50e9c1127f2cd403a315f,,,,,,,,,,,,,,,,,,,,fourthree,,4,2.0357,,,,,,,,,,,,,,,,,,,,,,,,,,,,,,,,space,4.4342,"[-0.8198,-0.5138,-0.7492000000000001]","[-0.34920000000000007,-0.702,-0.5216]",39.33337402,52,1,0,0,response1disk,-3.333312988,10.66665649,1,0,0,rectangle,-3.333312988,10.66665649,1,0,0,,2,0.0025,0,-3.333312988,10.66665649,1,0,0,0,0,0,108,1,27,second,,,,,,,,,,,,,,,,,,,,,,,,,,,,,,,,,,,,,,,,,,,,,,,,,,,,,,,,,,,,,,,,,,,,,,
,,,,,,5f2289c3248c55000cd85a11,62c53a5516a30c0af6b0f10b,2022-07-06_09h31.45.762,Colour_Asymmetry_Pilot,2022.1.3,Win32,59.90534955,62c50e9c1127f2cd403a315f,,,,,,,,,,,,,,,,,,,,threeone,,-2,0.3165,,,,,,,,,,,,,,,,,,,,,,,,,,,,,,,,,,"[-0.26280000000000003,-0.2158,-0.3256]","[0.30180000000000007,-0.7884,-0.9844]",-55.33331299,-18,1,0,0,response5disk,8,0.666656494,1,0,0,rectangle,8,0.666656494,1,0,0,,1,0.0019,0,8,0.666656494,1,0,0,0,1,1,126,1,45,second,,,,,,,,,,,,,,,,,,,,,,,,,,,,,,,,,,,,,,,,,,,,,,,,,,,,,,,,,,,,,,,,,,,,,,
,,,,,,5f2289c3248c55000cd85a11,62c53a5516a30c0af6b0f10b,2022-07-06_09h31.45.762,Colour_Asymmetry_Pilot,2022.1.3,Win32,59.90534955,62c50e9c1127f2cd403a315f,,,,,,,,,,,,,,,,,,,,onethree,,1,0.3669,,,,,,,,,,,,,,,,,,,,,,,,,,,,,,,,,,"[0.9372,0.20779999999999998,0.2704]","[0.22340000000000004,-0.9296,-0.7884]",20,-39.33334351,1,0,0,response3disk,-5.333312988,8.666656494,1,0,0,rectangle,-5.333312988,8.666656494,1,0,0,,3,0.0024,0,-5.333312988,8.666656494,1,0,0,0,2,2,109,1,28,second,,,,,,,,,,,,,,,,,,,,,,,,,,,,,,,,,,,,,,,,,,,,,,,,,,,,,,,,,,,,,,,,,,,,,,
,,,,,,5f2289c3248c55000cd85a11,62c53a5516a30c0af6b0f10b,2022-07-06_09h31.45.762,Colour_Asymmetry_Pilot,2022.1.3,Win32,59.90534955,62c50e9c1127f2cd403a315f,,,,,,,,,,,,,,,,,,,,onetwo,,4,0.6168,,,,,,,,,,,,,,,,,,,,,,,,,,,,,,,,,,"[-0.8118,-0.8198,-0.5452]","[-0.5688,-0.08239999999999992,-0.1844]",29.33337402,75.33331299,1,0,0,response1disk,8,9.333312988,1,0,0,rectangle,8,9.333312988,1,0,0,,3,0.0005,0,8,9.333312988,1,0,0,0,3,3,99,1,18,second,,,,,,,,,,,,,,,,,,,,,,,,,,,,,,,,,,,,,,,,,,,,,,,,,,,,,,,,,,,,,,,,,,,,,,
,,,,,,5f2289c3248c55000cd85a11,62c53a5516a30c0af6b0f10b,2022-07-06_09h31.45.762,Colour_Asymmetry_Pilot,2022.1.3,Win32,59.90534955,62c50e9c1127f2cd403a315f,,,,,,,,,,,,,,,,,,,,onethree,,-1,0.3323,,,,,,,,,,,,,,,,,,,,,,,,,,,,,,,,,,"[-0.9688,-0.7412000000000001,-0.4902000000000001]","[-0.4902000000000001,0.2704,-0.45899999999999996]",-52,-67.33334351,1,0,0,response5disk,-2.666625977,0,1,0,0,rectangle,-2.666625977,0,1,0,0,,1,0.0018,0,-2.666625977,0,1,0,0,0,4,4,91,1,10,second,,,,,,,,,,,,,,,,,,,,,,,,,,,,,,,,,,,,,,,,,,,,,,,,,,,,,,,,,,,,,,,,,,,,,,
,,,,,,5f2289c3248c55000cd85a11,62c53a5516a30c0af6b0f10b,2022-07-06_09h31.45.762,Colour_Asymmetry_Pilot,2022.1.3,Win32,59.90534955,62c50e9c1127f2cd403a315f,,,,,,,,,,,,,,,,,,,,threefour,,-3,1.6668,,,,,,,,,,,,,,,,,,,,,,,,,,,,,,,,,,"[-0.6235999999999999,-0.6786,-0.08239999999999992]","[0.30180000000000007,-0.7884,-0.9844]",-29.33331299,23.33331299,1,0,0,response7disk,5.333374023,9.333312988,1,0,0,rectangle,5.333374023,9.333312988,1,0,0,,2,0.0028,0,5.333374023,9.333312988,1,0,0,0,5,5,123,1,42,second,,,,,,,,,,,,,,,,,,,,,,,,,,,,,,,,,,,,,,,,,,,,,,,,,,,,,,,,,,,,,,,,,,,,,,
,,,,,,5f2289c3248c55000cd85a11,62c53a5516a30c0af6b0f10b,2022-07-06_09h31.45.762,Colour_Asymmetry_Pilot,2022.1.3,Win32,59.90534955,62c50e9c1127f2cd403a315f,,,,,,,,,,,,,,,,,,,,onetwo,,3,0.8495,,,,,,,,,,,,,,,,,,,,,,,,,,,,,,,,,,"[-0.5452,-0.608,0.2470000000000001]","[-0.4746,-0.0354000000000001,0.5449999999999999]",65.33337402,41.33331299,1,0,0,response1disk,-4.666625977,2,1,0,0,rectangle,-4.666625977,2,1,0,0,,3,0.0027,0,-4.666625977,2,1,0,0,0,6,6,87,1,6,second,,,,,,,,,,,,,,,,,,,,,,,,,,,,,,,,,,,,,,,,,,,,,,,,,,,,,,,,,,,,,,,,,,,,,,
,,,,,,5f2289c3248c55000cd85a11,62c53a5516a30c0af6b0f10b,2022-07-06_09h31.45.762,Colour_Asymmetry_Pilot,2022.1.3,Win32,59.90534955,62c50e9c1127f2cd403a315f,,,,,,,,,,,,,,,,,,,,fourtwo,,-1,0.9671,,,,,,,,,,,,,,,,,,,,,,,,,,,,,,,,,,"[0.7176,-0.906,-0.6864]","[-0.4276,0.0038000000000000256,-0.3256]",-27.33331299,-40.66668701,1,0,0,response5disk,-10.66662598,-4.666687012,1,0,0,rectangle,-10.66662598,-4.666687012,1,0,0,,2,0.0029,0,-10.66662598,-4.666687012,1,0,0,0,7,7,58,1,58,first,,,,,,,,,,,,,,,,,,,,,,,,,,,,,,,,,,,,,,,,,,,,,,,,,,,,,,,,,,,,,,,,,,,,,,
,,,,,,5f2289c3248c55000cd85a11,62c53a5516a30c0af6b0f10b,2022-07-06_09h31.45.762,Colour_Asymmetry_Pilot,2022.1.3,Win32,59.90534955,62c50e9c1127f2cd403a315f,,,,,,,,,,,,,,,,,,,,threeone,,-4,1.2168,,,,,,,,,,,,,,,,,,,,,,,,,,,,,,,,,,"[-0.6706000000000001,-0.6157999999999999,-0.6786]","[0.6625999999999999,0.4980000000000002,-0.357]",-30.66662598,56,1,0,0,response7disk,-3.333312988,4,1,0,0,rectangle,-3.333312988,4,1,0,0,,3,0.0022,0,-3.333312988,4,1,0,0,0,8,8,47,1,47,first,,,,,,,,,,,,,,,,,,,,,,,,,,,,,,,,,,,,,,,,,,,,,,,,,,,,,,,,,,,,,,,,,,,,,,
,,,,,,5f2289c3248c55000cd85a11,62c53a5516a30c0af6b0f10b,2022-07-06_09h31.45.762,Colour_Asymmetry_Pilot,2022.1.3,Win32,59.90534955,62c50e9c1127f2cd403a315f,,,,,,,,,,,,,,,,,,,,fourtwo,,2,0.8668,,,,,,,,,,,,,,,,,,,,,,,,,,,,,,,,,,"[-0.8198,-0.5138,-0.7492000000000001]","[-0.9766,-0.34920000000000007,0.2156]",64.66668701,-48.66668701,1,0,0,response3disk,11.33337402,2,1,0,0,rectangle,11.33337402,2,1,0,0,,1,0.0022,0,11.33337402,2,1,0,0,0,9,9,61,1,61,first,,,,,,,,,,,,,,,,,,,,,,,,,,,,,,,,,,,,,,,,,,,,,,,,,,,,,,,,,,,,,,,,,,,,,,
,,,,,,5f2289c3248c55000cd85a11,62c53a5516a30c0af6b0f10b,2022-07-06_09h31.45.762,Colour_Asymmetry_Pilot,2022.1.3,Win32,59.90534955,62c50e9c1127f2cd403a315f,,,,,,,,,,,,,,,,,,,,fourthree,,-1,2.1325,,,,,,,,,,,,,,,,,,,,,,,,,,,,,,,,,,"[0.6625999999999999,0.4980000000000002,-0.357]","[-0.6706000000000001,-0.6157999999999999,-0.6786]",-36,-40,1,0,0,response5disk,1.333374023,-4.666687012,1,0,0,rectangle,1.333374023,-4.666687012,1,0,0,,2,0.002,0,1.333374023,-4.666687012,1,0,0,0,10,10,128,1,47,second,,,,,,,,,,,,,,,,,,,,,,,,,,,,,,,,,,,,,,,,,,,,,,,,,,,,,,,,,,,,,,,,,,,,,,
,,,,,,5f2289c3248c55000cd85a11,62c53a5516a30c0af6b0f10b,2022-07-06_09h31.45.762,Colour_Asymmetry_Pilot,2022.1.3,Win32,59.90534955,62c50e9c1127f2cd403a315f,,,,,,,,,,,,,,,,,,,,fourtwo,,2,0.7002,,,,,,,,,,,,,,,,,,,,,,,,,,,,,,,,,,"[0.796,0.2156,-0.27859999999999996]","[0.05879999999999996,0.2784,0.5841999999999998]",70,-40,1,0,0,response3disk,-2,4,1,0,0,rectangle,-2,4,1,0,0,,3,0.002,0,-2,4,1,0,0,0,11,11,2,1,2,first,,,,,,,,,,,,,,,,,,,,,,,,,,,,,,,,,,,,,,,,,,,,,,,,,,,,,,,,,,,,,,,,,,,,,,
,,,,,,5f2289c3248c55000cd85a11,62c53a5516a30c0af6b0f10b,2022-07-06_09h31.45.762,Colour_Asymmetry_Pilot,2022.1.3,Win32,59.90534955,62c50e9c1127f2cd403a315f,,,,,,,,,,,,,,,,,,,,onethree,,2,0.4827,,,,,,,,,,,,,,,,,,,,,,,,,,,,,,,,,,"[0.3568,-0.20799999999999996,-0.9844]","[0.4196,0.4665999999999999,0.3568]",45.33337402,-40.66668701,1,0,0,response3disk,-11.33331299,2,1,0,0,rectangle,-11.33331299,2,1,0,0,,1,0.0022,0,-11.33331299,2,1,0,0,0,12,12,134,1,53,second,,,,,,,,,,,,,,,,,,,,,,,,,,,,,,,,,,,,,,,,,,,,,,,,,,,,,,,,,,,,,,,,,,,,,,
,,,,,,5f2289c3248c55000cd85a11,62c53a5516a30c0af6b0f10b,2022-07-06_09h31.45.762,Colour_Asymmetry_Pilot,2022.1.3,Win32,59.90534955,62c50e9c1127f2cd403a315f,,,,,,,,,,,,,,,,,,,,onethree,,2,0.3499,,,,,,,,,,,,,,,,,,,,,,,,,,,,,,,,,,"[0.7018,0.7802,-0.16079999999999994]","[-0.30200000000000005,0.14500000000000002,0.2784]",41.33337402,-32.66668701,1,0,0,response3disk,0.666687012,12.66665649,1,0,0,rectangle,0.666687012,12.66665649,1,0,0,,2,0.0026,0,0.666687012,12.66665649,1,0,0,0,13,13,122,1,41,second,,,,,,,,,,,,,,,,,,,,,,,,,,,,,,,,,,,,,,,,,,,,,,,,,,,,,,,,,,,,,,,,,,,,,,
,,,,,,5f2289c3248c55000cd85a11,62c53a5516a30c0af6b0f10b,2022-07-06_09h31.45.762,Colour_Asymmetry_Pilot,2022.1.3,Win32,59.90534955,62c50e9c1127f2cd403a315f,,,,,,,,,,,,,,,,,,,,threefour,,3,0.6004,,,,,,,,,,,,,,,,,,,,,,,,,,,,,,,,,,"[-0.24719999999999998,-0.0354000000000001,0.3175999999999999]","[0.05879999999999996,0.2784,0.5841999999999998]",54.66668701,49.33331299,1,0,0,response1disk,14.66668701,2.666656494,1,0,0,rectangle,14.66668701,2.666656494,1,0,0,,3,0.0029,0,14.66668701,2.666656494,1,0,0,0,14,14,64,1,64,first,,,,,,,,,,,,,,,,,,,,,,,,,,,,,,,,,,,,,,,,,,,,,,,,,,,,,,,,,,,,,,,,,,,,,,
,,,,,,5f2289c3248c55000cd85a11,62c53a5516a30c0af6b0f10b,2022-07-06_09h31.45.762,Colour_Asymmetry_Pilot,2022.1.3,Win32,59.90534955,62c50e9c1127f2cd403a315f,,,,,,,,,,,,,,,,,,,,fourtwo,,-1,0.5637,,,,,,,,,,,,,,,,,,,,,,,,,,,,,,,,,,"[-0.30200000000000005,0.14500000000000002,0.2784]","[0.18419999999999992,-0.4276,-0.404]",-30.66662598,-32.66668701,1,0,0,response5disk,-3.333312988,1.333312988,1,0,0,rectangle,-3.333312988,1.333312988,1,0,0,,2,0.0037,0,-3.333312988,1.333312988,1,0,0,0,15,15,30,1,30,first,,,,,,,,,,,,,,,,,,,,,,,,,,,,,,,,,,,,,,,,,,,,,,,,,,,,,,,,,,,,,,,,,,,,,,
,,,,,,5f2289c3248c55000cd85a11,62c53a5516a30c0af6b0f10b,2022-07-06_09h31.45.762,Colour_Asymmetry_Pilot,2022.1.3,Win32,59.90534955,62c50e9c1127f2cd403a315f,,,,,,,,,,,,,,,,,,,,fourtwo,,-4,0.3834,,,,,,,,,,,,,,,,,,,,,,,,,,,,,,,,,,"[-0.9844,-0.9688,-0.9922]","[0.04299999999999993,0.16060000000000008,-0.6628000000000001]",-31.33331299,49.33331299,1,0,0,response7disk,2,2.666656494,1,0,0,rectangle,2,2.666656494,1,0,0,,2,0.0005,0,2,2.666656494,1,0,0,0,16,16,25,1,25,first,,,,,,,,,,,,,,,,,,,,,,,,,,,,,,,,,,,,,,,,,,,,,,,,,,,,,,,,,,,,,,,,,,,,,,
