trials.thisRepN,trials.thisTrialN,trials.thisN,trials.thisIndex,trials.ran,Colourcodes,participant,session,date,expName,psychopyVersion,OS,frameRate,study_id,trials_4.thisRepN,trials_4.thisTrialN,trials_4.thisN,trials_4.thisIndex,trials_4.ran,StimulusPos,key_resp.keys,key_resp.rt,key_resp_2.keys,key_resp_2.rt,key_resp_15.keys,key_resp_15.rt,key_resp_17.keys,key_resp_17.rt,key_resp_9.keys,key_resp_9.rt,key_resp_10.keys,key_resp_10.rt,Circle1_col,Ecc,Circle2_col,similarity,response_time,mouse_5.x,mouse_5.y,mouse_5.leftButton,mouse_5.midButton,mouse_5.rightButton,mouse_5.clicked_name,mouse_10.x,mouse_10.y,mouse_10.leftButton,mouse_10.midButton,mouse_10.rightButton,mouse_10.clicked_name,mouse_7.x,mouse_7.y,mouse_7.leftButton,mouse_7.midButton,mouse_7.rightButton,mouse_7.clicked_name,catchprac,catchnumberprac,mouse_6.x,mouse_6.y,mouse_6.leftButton,mouse_6.midButton,mouse_6.rightButton,mouse_6.clicked_name,duringprac.thisRepN,duringprac.thisTrialN,duringprac.thisN,duringprac.thisIndex,duringprac.ran,key_resp_22.keys,key_resp_22.rt,Circle1_colour,Circle2_colour,mouse.x,mouse.y,mouse.leftButton,mouse.midButton,mouse.rightButton,mouse.clicked_name,mouse_2.x,mouse_2.y,mouse_2.leftButton,mouse_2.midButton,mouse_2.rightButton,mouse_2.clicked_name,mouse_3.x,mouse_3.y,mouse_3.leftButton,mouse_3.midButton,mouse_3.rightButton,catchresponse,catchnumber,response_time_catch,Catch,mouse_11.x,mouse_11.y,mouse_11.leftButton,mouse_11.midButton,mouse_11.rightButton,trials_2.thisRepN,trials_2.thisTrialN,trials_2.thisN,trials_2.thisIndex,trials_2.ran,Colourpair,Temporder,mouse_3.clicked_name,mouse_11.clicked_name,trials_3.thisRepN,trials_3.thisTrialN,trials_3.thisN,trials_3.thisIndex,trials_3.ran,key_resp_instr_Ishi.keys,key_resp_instr_Ishi.rt,Ishi_trial_keyresp.keys,Ishi_textbox.text,Ishi_mouse.x,Ishi_mouse.y,Ishi_mouse.leftButton,Ishi_mouse.midButton,Ishi_mouse.rightButton,Ishi_mouse.clicked_name,Ishi_loop.thisRepN,Ishi_loop.thisTrialN,Ishi_loop.thisN,Ishi_loop.thisIndex,Ishi_loop.ran,imageaddress,textbox.text,mouse_4.x,mouse_4.y,mouse_4.leftButton,mouse_4.midButton,mouse_4.rightButton,mouse_4.clicked_name,textbox_2.text,mouse_8.x,mouse_8.y,mouse_8.leftButton,mouse_8.midButton,mouse_8.rightButton,mouse_8.clicked_name,textbox_3.text,mouse_9.x,mouse_9.y,mouse_9.leftButton,mouse_9.midButton,mouse_9.rightButton,mouse_9.clicked_name,textbox_4.text,mouse_12.x,mouse_12.y,mouse_12.leftButton,mouse_12.midButton,mouse_12.rightButton,mouse_12.clicked_name,textbox_5.text,mouse_13.x,mouse_13.y,mouse_13.leftButton,mouse_13.midButton,mouse_13.rightButton,mouse_13.clicked_name,textbox_6.text,mouse_14.x,mouse_14.y,mouse_14.leftButton,mouse_14.midButton,mouse_14.rightButton,mouse_14.clicked_name,textbox_7.text,mouse_15.x,mouse_15.y,mouse_15.leftButton,mouse_15.midButton,mouse_15.rightButton,mouse_15.clicked_name
0,0,0,37,1,,5f8836a5fb70462a169fc0ac,62c53a929b9a5a911048cfbd,2022-07-06_09h36.54.467,Colour_Asymmetry_Pilot,2022.1.3,Win32,59.99520038,62c50e9c1127f2cd403a315f,,,,,,,,,,,,,,,,,,,,,,,,,,,,,,,,,,,,,,,,,,,,,,,,,,,,,,,,,,,,,,,,,,,,,,,,,,,,,,,,,,,,,,,,,,,,,,,,,,,,,,,,,,,,,,,,,,,,,,,,,,,,,,,,,,,,,,,,,,,,,,,,,,,,,,,,,,,,,,,,,,,
0,1,1,62,1,,5f8836a5fb70462a169fc0ac,62c53a929b9a5a911048cfbd,2022-07-06_09h36.54.467,Colour_Asymmetry_Pilot,2022.1.3,Win32,59.99520038,62c50e9c1127f2cd403a315f,,,,,,,,,,,,,,,,,,,,,,,,,,,,,,,,,,,,,,,,,,,,,,,,,,,,,,,,,,,,,,,,,,,,,,,,,,,,,,,,,,,,,,,,,,,,,,,,,,,,,,,,,,,,,,,,,,,,,,,,,,,,,,,,,,,,,,,,,,,,,,,,,,,,,,,,,,,,,,,,,,,
0,2,2,60,1,,5f8836a5fb70462a169fc0ac,62c53a929b9a5a911048cfbd,2022-07-06_09h36.54.467,Colour_Asymmetry_Pilot,2022.1.3,Win32,59.99520038,62c50e9c1127f2cd403a315f,,,,,,,,,,,,,,,,,,,,,,,,,,,,,,,,,,,,,,,,,,,,,,,,,,,,,,,,,,,,,,,,,,,,,,,,,,,,,,,,,,,,,,,,,,,,,,,,,,,,,,,,,,,,,,,,,,,,,,,,,,,,,,,,,,,,,,,,,,,,,,,,,,,,,,,,,,,,,,,,,,,
0,3,3,10,1,,5f8836a5fb70462a169fc0ac,62c53a929b9a5a911048cfbd,2022-07-06_09h36.54.467,Colour_Asymmetry_Pilot,2022.1.3,Win32,59.99520038,62c50e9c1127f2cd403a315f,,,,,,,,,,,,,,,,,,,,,,,,,,,,,,,,,,,,,,,,,,,,,,,,,,,,,,,,,,,,,,,,,,,,,,,,,,,,,,,,,,,,,,,,,,,,,,,,,,,,,,,,,,,,,,,,,,,,,,,,,,,,,,,,,,,,,,,,,,,,,,,,,,,,,,,,,,,,,,,,,,,
0,4,4,87,1,,5f8836a5fb70462a169fc0ac,62c53a929b9a5a911048cfbd,2022-07-06_09h36.54.467,Colour_Asymmetry_Pilot,2022.1.3,Win32,59.99520038,62c50e9c1127f2cd403a315f,,,,,,,,,,,,,,,,,,,,,,,,,,,,,,,,,,,,,,,,,,,,,,,,,,,,,,,,,,,,,,,,,,,,,,,,,,,,,,,,,,,,,,,,,,,,,,,,,,,,,,,,,,,,,,,,,,,,,,,,,,,,,,,,,,,,,,,,,,,,,,,,,,,,,,,,,,,,,,,,,,,
0,5,5,63,1,,5f8836a5fb70462a169fc0ac,62c53a929b9a5a911048cfbd,2022-07-06_09h36.54.467,Colour_Asymmetry_Pilot,2022.1.3,Win32,59.99520038,62c50e9c1127f2cd403a315f,,,,,,,,,,,,,,,,,,,,,,,,,,,,,,,,,,,,,,,,,,,,,,,,,,,,,,,,,,,,,,,,,,,,,,,,,,,,,,,,,,,,,,,,,,,,,,,,,,,,,,,,,,,,,,,,,,,,,,,,,,,,,,,,,,,,,,,,,,,,,,,,,,,,,,,,,,,,,,,,,,,
0,6,6,81,1,,5f8836a5fb70462a169fc0ac,62c53a929b9a5a911048cfbd,2022-07-06_09h36.54.467,Colour_Asymmetry_Pilot,2022.1.3,Win32,59.99520038,62c50e9c1127f2cd403a315f,,,,,,,,,,,,,,,,,,,,,,,,,,,,,,,,,,,,,,,,,,,,,,,,,,,,,,,,,,,,,,,,,,,,,,,,,,,,,,,,,,,,,,,,,,,,,,,,,,,,,,,,,,,,,,,,,,,,,,,,,,,,,,,,,,,,,,,,,,,,,,,,,,,,,,,,,,,,,,,,,,,
0,7,7,55,1,,5f8836a5fb70462a169fc0ac,62c53a929b9a5a911048cfbd,2022-07-06_09h36.54.467,Colour_Asymmetry_Pilot,2022.1.3,Win32,59.99520038,62c50e9c1127f2cd403a315f,,,,,,,,,,,,,,,,,,,,,,,,,,,,,,,,,,,,,,,,,,,,,,,,,,,,,,,,,,,,,,,,,,,,,,,,,,,,,,,,,,,,,,,,,,,,,,,,,,,,,,,,,,,,,,,,,,,,,,,,,,,,,,,,,,,,,,,,,,,,,,,,,,,,,,,,,,,,,,,,,,,
0,8,8,18,1,,5f8836a5fb70462a169fc0ac,62c53a929b9a5a911048cfbd,2022-07-06_09h36.54.467,Colour_Asymmetry_Pilot,2022.1.3,Win32,59.99520038,62c50e9c1127f2cd403a315f,,,,,,,,,,,,,,,,,,,,,,,,,,,,,,,,,,,,,,,,,,,,,,,,,,,,,,,,,,,,,,,,,,,,,,,,,,,,,,,,,,,,,,,,,,,,,,,,,,,,,,,,,,,,,,,,,,,,,,,,,,,,,,,,,,,,,,,,,,,,,,,,,,,,,,,,,,,,,,,,,,,
0,9,9,32,1,,5f8836a5fb70462a169fc0ac,62c53a929b9a5a911048cfbd,2022-07-06_09h36.54.467,Colour_Asymmetry_Pilot,2022.1.3,Win32,59.99520038,62c50e9c1127f2cd403a315f,,,,,,,,,,,,,,,,,,,,,,,,,,,,,,,,,,,,,,,,,,,,,,,,,,,,,,,,,,,,,,,,,,,,,,,,,,,,,,,,,,,,,,,,,,,,,,,,,,,,,,,,,,,,,,,,,,,,,,,,,,,,,,,,,,,,,,,,,,,,,,,,,,,,,,,,,,,,,,,,,,,
0,10,10,82,1,,5f8836a5fb70462a169fc0ac,62c53a929b9a5a911048cfbd,2022-07-06_09h36.54.467,Colour_Asymmetry_Pilot,2022.1.3,Win32,59.99520038,62c50e9c1127f2cd403a315f,,,,,,,,,,,,,,,,,,,,,,,,,,,,,,,,,,,,,,,,,,,,,,,,,,,,,,,,,,,,,,,,,,,,,,,,,,,,,,,,,,,,,,,,,,,,,,,,,,,,,,,,,,,,,,,,,,,,,,,,,,,,,,,,,,,,,,,,,,,,,,,,,,,,,,,,,,,,,,,,,,,
0,11,11,54,1,,5f8836a5fb70462a169fc0ac,62c53a929b9a5a911048cfbd,2022-07-06_09h36.54.467,Colour_Asymmetry_Pilot,2022.1.3,Win32,59.99520038,62c50e9c1127f2cd403a315f,,,,,,,,,,,,,,,,,,,,,,,,,,,,,,,,,,,,,,,,,,,,,,,,,,,,,,,,,,,,,,,,,,,,,,,,,,,,,,,,,,,,,,,,,,,,,,,,,,,,,,,,,,,,,,,,,,,,,,,,,,,,,,,,,,,,,,,,,,,,,,,,,,,,,,,,,,,,,,,,,,,
0,12,12,29,1,,5f8836a5fb70462a169fc0ac,62c53a929b9a5a911048cfbd,2022-07-06_09h36.54.467,Colour_Asymmetry_Pilot,2022.1.3,Win32,59.99520038,62c50e9c1127f2cd403a315f,,,,,,,,,,,,,,,,,,,,,,,,,,,,,,,,,,,,,,,,,,,,,,,,,,,,,,,,,,,,,,,,,,,,,,,,,,,,,,,,,,,,,,,,,,,,,,,,,,,,,,,,,,,,,,,,,,,,,,,,,,,,,,,,,,,,,,,,,,,,,,,,,,,,,,,,,,,,,,,,,,,
0,13,13,41,1,,5f8836a5fb70462a169fc0ac,62c53a929b9a5a911048cfbd,2022-07-06_09h36.54.467,Colour_Asymmetry_Pilot,2022.1.3,Win32,59.99520038,62c50e9c1127f2cd403a315f,,,,,,,,,,,,,,,,,,,,,,,,,,,,,,,,,,,,,,,,,,,,,,,,,,,,,,,,,,,,,,,,,,,,,,,,,,,,,,,,,,,,,,,,,,,,,,,,,,,,,,,,,,,,,,,,,,,,,,,,,,,,,,,,,,,,,,,,,,,,,,,,,,,,,,,,,,,,,,,,,,,
0,14,14,15,1,,5f8836a5fb70462a169fc0ac,62c53a929b9a5a911048cfbd,2022-07-06_09h36.54.467,Colour_Asymmetry_Pilot,2022.1.3,Win32,59.99520038,62c50e9c1127f2cd403a315f,,,,,,,,,,,,,,,,,,,,,,,,,,,,,,,,,,,,,,,,,,,,,,,,,,,,,,,,,,,,,,,,,,,,,,,,,,,,,,,,,,,,,,,,,,,,,,,,,,,,,,,,,,,,,,,,,,,,,,,,,,,,,,,,,,,,,,,,,,,,,,,,,,,,,,,,,,,,,,,,,,,
0,15,15,80,1,,5f8836a5fb70462a169fc0ac,62c53a929b9a5a911048cfbd,2022-07-06_09h36.54.467,Colour_Asymmetry_Pilot,2022.1.3,Win32,59.99520038,62c50e9c1127f2cd403a315f,,,,,,,,,,,,,,,,,,,,,,,,,,,,,,,,,,,,,,,,,,,,,,,,,,,,,,,,,,,,,,,,,,,,,,,,,,,,,,,,,,,,,,,,,,,,,,,,,,,,,,,,,,,,,,,,,,,,,,,,,,,,,,,,,,,,,,,,,,,,,,,,,,,,,,,,,,,,,,,,,,,
0,16,16,77,1,,5f8836a5fb70462a169fc0ac,62c53a929b9a5a911048cfbd,2022-07-06_09h36.54.467,Colour_Asymmetry_Pilot,2022.1.3,Win32,59.99520038,62c50e9c1127f2cd403a315f,,,,,,,,,,,,,,,,,,,,,,,,,,,,,,,,,,,,,,,,,,,,,,,,,,,,,,,,,,,,,,,,,,,,,,,,,,,,,,,,,,,,,,,,,,,,,,,,,,,,,,,,,,,,,,,,,,,,,,,,,,,,,,,,,,,,,,,,,,,,,,,,,,,,,,,,,,,,,,,,,,,
0,17,17,33,1,,5f8836a5fb70462a169fc0ac,62c53a929b9a5a911048cfbd,2022-07-06_09h36.54.467,Colour_Asymmetry_Pilot,2022.1.3,Win32,59.99520038,62c50e9c1127f2cd403a315f,,,,,,,,,,,,,,,,,,,,,,,,,,,,,,,,,,,,,,,,,,,,,,,,,,,,,,,,,,,,,,,,,,,,,,,,,,,,,,,,,,,,,,,,,,,,,,,,,,,,,,,,,,,,,,,,,,,,,,,,,,,,,,,,,,,,,,,,,,,,,,,,,,,,,,,,,,,,,,,,,,,
0,18,18,51,1,,5f8836a5fb70462a169fc0ac,62c53a929b9a5a911048cfbd,2022-07-06_09h36.54.467,Colour_Asymmetry_Pilot,2022.1.3,Win32,59.99520038,62c50e9c1127f2cd403a315f,,,,,,,,,,,,,,,,,,,,,,,,,,,,,,,,,,,,,,,,,,,,,,,,,,,,,,,,,,,,,,,,,,,,,,,,,,,,,,,,,,,,,,,,,,,,,,,,,,,,,,,,,,,,,,,,,,,,,,,,,,,,,,,,,,,,,,,,,,,,,,,,,,,,,,,,,,,,,,,,,,,
0,19,19,92,1,,5f8836a5fb70462a169fc0ac,62c53a929b9a5a911048cfbd,2022-07-06_09h36.54.467,Colour_Asymmetry_Pilot,2022.1.3,Win32,59.99520038,62c50e9c1127f2cd403a315f,,,,,,,,,,,,,,,,,,,,,,,,,,,,,,,,,,,,,,,,,,,,,,,,,,,,,,,,,,,,,,,,,,,,,,,,,,,,,,,,,,,,,,,,,,,,,,,,,,,,,,,,,,,,,,,,,,,,,,,,,,,,,,,,,,,,,,,,,,,,,,,,,,,,,,,,,,,,,,,,,,,
0,20,20,61,1,,5f8836a5fb70462a169fc0ac,62c53a929b9a5a911048cfbd,2022-07-06_09h36.54.467,Colour_Asymmetry_Pilot,2022.1.3,Win32,59.99520038,62c50e9c1127f2cd403a315f,,,,,,,,,,,,,,,,,,,,,,,,,,,,,,,,,,,,,,,,,,,,,,,,,,,,,,,,,,,,,,,,,,,,,,,,,,,,,,,,,,,,,,,,,,,,,,,,,,,,,,,,,,,,,,,,,,,,,,,,,,,,,,,,,,,,,,,,,,,,,,,,,,,,,,,,,,,,,,,,,,,
0,21,21,83,1,,5f8836a5fb70462a169fc0ac,62c53a929b9a5a911048cfbd,2022-07-06_09h36.54.467,Colour_Asymmetry_Pilot,2022.1.3,Win32,59.99520038,62c50e9c1127f2cd403a315f,,,,,,,,,,,,,,,,,,,,,,,,,,,,,,,,,,,,,,,,,,,,,,,,,,,,,,,,,,,,,,,,,,,,,,,,,,,,,,,,,,,,,,,,,,,,,,,,,,,,,,,,,,,,,,,,,,,,,,,,,,,,,,,,,,,,,,,,,,,,,,,,,,,,,,,,,,,,,,,,,,,
0,22,22,42,1,,5f8836a5fb70462a169fc0ac,62c53a929b9a5a911048cfbd,2022-07-06_09h36.54.467,Colour_Asymmetry_Pilot,2022.1.3,Win32,59.99520038,62c50e9c1127f2cd403a315f,,,,,,,,,,,,,,,,,,,,,,,,,,,,,,,,,,,,,,,,,,,,,,,,,,,,,,,,,,,,,,,,,,,,,,,,,,,,,,,,,,,,,,,,,,,,,,,,,,,,,,,,,,,,,,,,,,,,,,,,,,,,,,,,,,,,,,,,,,,,,,,,,,,,,,,,,,,,,,,,,,,
0,23,23,48,1,,5f8836a5fb70462a169fc0ac,62c53a929b9a5a911048cfbd,2022-07-06_09h36.54.467,Colour_Asymmetry_Pilot,2022.1.3,Win32,59.99520038,62c50e9c1127f2cd403a315f,,,,,,,,,,,,,,,,,,,,,,,,,,,,,,,,,,,,,,,,,,,,,,,,,,,,,,,,,,,,,,,,,,,,,,,,,,,,,,,,,,,,,,,,,,,,,,,,,,,,,,,,,,,,,,,,,,,,,,,,,,,,,,,,,,,,,,,,,,,,,,,,,,,,,,,,,,,,,,,,,,,
0,24,24,17,1,,5f8836a5fb70462a169fc0ac,62c53a929b9a5a911048cfbd,2022-07-06_09h36.54.467,Colour_Asymmetry_Pilot,2022.1.3,Win32,59.99520038,62c50e9c1127f2cd403a315f,,,,,,,,,,,,,,,,,,,,,,,,,,,,,,,,,,,,,,,,,,,,,,,,,,,,,,,,,,,,,,,,,,,,,,,,,,,,,,,,,,,,,,,,,,,,,,,,,,,,,,,,,,,,,,,,,,,,,,,,,,,,,,,,,,,,,,,,,,,,,,,,,,,,,,,,,,,,,,,,,,,
0,25,25,1,1,,5f8836a5fb70462a169fc0ac,62c53a929b9a5a911048cfbd,2022-07-06_09h36.54.467,Colour_Asymmetry_Pilot,2022.1.3,Win32,59.99520038,62c50e9c1127f2cd403a315f,,,,,,,,,,,,,,,,,,,,,,,,,,,,,,,,,,,,,,,,,,,,,,,,,,,,,,,,,,,,,,,,,,,,,,,,,,,,,,,,,,,,,,,,,,,,,,,,,,,,,,,,,,,,,,,,,,,,,,,,,,,,,,,,,,,,,,,,,,,,,,,,,,,,,,,,,,,,,,,,,,,
0,26,26,28,1,,5f8836a5fb70462a169fc0ac,62c53a929b9a5a911048cfbd,2022-07-06_09h36.54.467,Colour_Asymmetry_Pilot,2022.1.3,Win32,59.99520038,62c50e9c1127f2cd403a315f,,,,,,,,,,,,,,,,,,,,,,,,,,,,,,,,,,,,,,,,,,,,,,,,,,,,,,,,,,,,,,,,,,,,,,,,,,,,,,,,,,,,,,,,,,,,,,,,,,,,,,,,,,,,,,,,,,,,,,,,,,,,,,,,,,,,,,,,,,,,,,,,,,,,,,,,,,,,,,,,,,,
0,27,27,19,1,,5f8836a5fb70462a169fc0ac,62c53a929b9a5a911048cfbd,2022-07-06_09h36.54.467,Colour_Asymmetry_Pilot,2022.1.3,Win32,59.99520038,62c50e9c1127f2cd403a315f,,,,,,,,,,,,,,,,,,,,,,,,,,,,,,,,,,,,,,,,,,,,,,,,,,,,,,,,,,,,,,,,,,,,,,,,,,,,,,,,,,,,,,,,,,,,,,,,,,,,,,,,,,,,,,,,,,,,,,,,,,,,,,,,,,,,,,,,,,,,,,,,,,,,,,,,,,,,,,,,,,,
0,28,28,40,1,,5f8836a5fb70462a169fc0ac,62c53a929b9a5a911048cfbd,2022-07-06_09h36.54.467,Colour_Asymmetry_Pilot,2022.1.3,Win32,59.99520038,62c50e9c1127f2cd403a315f,,,,,,,,,,,,,,,,,,,,,,,,,,,,,,,,,,,,,,,,,,,,,,,,,,,,,,,,,,,,,,,,,,,,,,,,,,,,,,,,,,,,,,,,,,,,,,,,,,,,,,,,,,,,,,,,,,,,,,,,,,,,,,,,,,,,,,,,,,,,,,,,,,,,,,,,,,,,,,,,,,,
0,29,29,43,1,,5f8836a5fb70462a169fc0ac,62c53a929b9a5a911048cfbd,2022-07-06_09h36.54.467,Colour_Asymmetry_Pilot,2022.1.3,Win32,59.99520038,62c50e9c1127f2cd403a315f,,,,,,,,,,,,,,,,,,,,,,,,,,,,,,,,,,,,,,,,,,,,,,,,,,,,,,,,,,,,,,,,,,,,,,,,,,,,,,,,,,,,,,,,,,,,,,,,,,,,,,,,,,,,,,,,,,,,,,,,,,,,,,,,,,,,,,,,,,,,,,,,,,,,,,,,,,,,,,,,,,,
0,30,30,69,1,,5f8836a5fb70462a169fc0ac,62c53a929b9a5a911048cfbd,2022-07-06_09h36.54.467,Colour_Asymmetry_Pilot,2022.1.3,Win32,59.99520038,62c50e9c1127f2cd403a315f,,,,,,,,,,,,,,,,,,,,,,,,,,,,,,,,,,,,,,,,,,,,,,,,,,,,,,,,,,,,,,,,,,,,,,,,,,,,,,,,,,,,,,,,,,,,,,,,,,,,,,,,,,,,,,,,,,,,,,,,,,,,,,,,,,,,,,,,,,,,,,,,,,,,,,,,,,,,,,,,,,,
0,31,31,50,1,,5f8836a5fb70462a169fc0ac,62c53a929b9a5a911048cfbd,2022-07-06_09h36.54.467,Colour_Asymmetry_Pilot,2022.1.3,Win32,59.99520038,62c50e9c1127f2cd403a315f,,,,,,,,,,,,,,,,,,,,,,,,,,,,,,,,,,,,,,,,,,,,,,,,,,,,,,,,,,,,,,,,,,,,,,,,,,,,,,,,,,,,,,,,,,,,,,,,,,,,,,,,,,,,,,,,,,,,,,,,,,,,,,,,,,,,,,,,,,,,,,,,,,,,,,,,,,,,,,,,,,,
0,32,32,12,1,,5f8836a5fb70462a169fc0ac,62c53a929b9a5a911048cfbd,2022-07-06_09h36.54.467,Colour_Asymmetry_Pilot,2022.1.3,Win32,59.99520038,62c50e9c1127f2cd403a315f,,,,,,,,,,,,,,,,,,,,,,,,,,,,,,,,,,,,,,,,,,,,,,,,,,,,,,,,,,,,,,,,,,,,,,,,,,,,,,,,,,,,,,,,,,,,,,,,,,,,,,,,,,,,,,,,,,,,,,,,,,,,,,,,,,,,,,,,,,,,,,,,,,,,,,,,,,,,,,,,,,,
0,33,33,75,1,,5f8836a5fb70462a169fc0ac,62c53a929b9a5a911048cfbd,2022-07-06_09h36.54.467,Colour_Asymmetry_Pilot,2022.1.3,Win32,59.99520038,62c50e9c1127f2cd403a315f,,,,,,,,,,,,,,,,,,,,,,,,,,,,,,,,,,,,,,,,,,,,,,,,,,,,,,,,,,,,,,,,,,,,,,,,,,,,,,,,,,,,,,,,,,,,,,,,,,,,,,,,,,,,,,,,,,,,,,,,,,,,,,,,,,,,,,,,,,,,,,,,,,,,,,,,,,,,,,,,,,,
0,34,34,22,1,,5f8836a5fb70462a169fc0ac,62c53a929b9a5a911048cfbd,2022-07-06_09h36.54.467,Colour_Asymmetry_Pilot,2022.1.3,Win32,59.99520038,62c50e9c1127f2cd403a315f,,,,,,,,,,,,,,,,,,,,,,,,,,,,,,,,,,,,,,,,,,,,,,,,,,,,,,,,,,,,,,,,,,,,,,,,,,,,,,,,,,,,,,,,,,,,,,,,,,,,,,,,,,,,,,,,,,,,,,,,,,,,,,,,,,,,,,,,,,,,,,,,,,,,,,,,,,,,,,,,,,,
0,35,35,16,1,,5f8836a5fb70462a169fc0ac,62c53a929b9a5a911048cfbd,2022-07-06_09h36.54.467,Colour_Asymmetry_Pilot,2022.1.3,Win32,59.99520038,62c50e9c1127f2cd403a315f,,,,,,,,,,,,,,,,,,,,,,,,,,,,,,,,,,,,,,,,,,,,,,,,,,,,,,,,,,,,,,,,,,,,,,,,,,,,,,,,,,,,,,,,,,,,,,,,,,,,,,,,,,,,,,,,,,,,,,,,,,,,,,,,,,,,,,,,,,,,,,,,,,,,,,,,,,,,,,,,,,,
0,36,36,34,1,,5f8836a5fb70462a169fc0ac,62c53a929b9a5a911048cfbd,2022-07-06_09h36.54.467,Colour_Asymmetry_Pilot,2022.1.3,Win32,59.99520038,62c50e9c1127f2cd403a315f,,,,,,,,,,,,,,,,,,,,,,,,,,,,,,,,,,,,,,,,,,,,,,,,,,,,,,,,,,,,,,,,,,,,,,,,,,,,,,,,,,,,,,,,,,,,,,,,,,,,,,,,,,,,,,,,,,,,,,,,,,,,,,,,,,,,,,,,,,,,,,,,,,,,,,,,,,,,,,,,,,,
0,37,37,39,1,,5f8836a5fb70462a169fc0ac,62c53a929b9a5a911048cfbd,2022-07-06_09h36.54.467,Colour_Asymmetry_Pilot,2022.1.3,Win32,59.99520038,62c50e9c1127f2cd403a315f,,,,,,,,,,,,,,,,,,,,,,,,,,,,,,,,,,,,,,,,,,,,,,,,,,,,,,,,,,,,,,,,,,,,,,,,,,,,,,,,,,,,,,,,,,,,,,,,,,,,,,,,,,,,,,,,,,,,,,,,,,,,,,,,,,,,,,,,,,,,,,,,,,,,,,,,,,,,,,,,,,,
0,38,38,6,1,,5f8836a5fb70462a169fc0ac,62c53a929b9a5a911048cfbd,2022-07-06_09h36.54.467,Colour_Asymmetry_Pilot,2022.1.3,Win32,59.99520038,62c50e9c1127f2cd403a315f,,,,,,,,,,,,,,,,,,,,,,,,,,,,,,,,,,,,,,,,,,,,,,,,,,,,,,,,,,,,,,,,,,,,,,,,,,,,,,,,,,,,,,,,,,,,,,,,,,,,,,,,,,,,,,,,,,,,,,,,,,,,,,,,,,,,,,,,,,,,,,,,,,,,,,,,,,,,,,,,,,,
0,39,39,52,1,,5f8836a5fb70462a169fc0ac,62c53a929b9a5a911048cfbd,2022-07-06_09h36.54.467,Colour_Asymmetry_Pilot,2022.1.3,Win32,59.99520038,62c50e9c1127f2cd403a315f,,,,,,,,,,,,,,,,,,,,,,,,,,,,,,,,,,,,,,,,,,,,,,,,,,,,,,,,,,,,,,,,,,,,,,,,,,,,,,,,,,,,,,,,,,,,,,,,,,,,,,,,,,,,,,,,,,,,,,,,,,,,,,,,,,,,,,,,,,,,,,,,,,,,,,,,,,,,,,,,,,,
0,40,40,31,1,,5f8836a5fb70462a169fc0ac,62c53a929b9a5a911048cfbd,2022-07-06_09h36.54.467,Colour_Asymmetry_Pilot,2022.1.3,Win32,59.99520038,62c50e9c1127f2cd403a315f,,,,,,,,,,,,,,,,,,,,,,,,,,,,,,,,,,,,,,,,,,,,,,,,,,,,,,,,,,,,,,,,,,,,,,,,,,,,,,,,,,,,,,,,,,,,,,,,,,,,,,,,,,,,,,,,,,,,,,,,,,,,,,,,,,,,,,,,,,,,,,,,,,,,,,,,,,,,,,,,,,,
0,41,41,79,1,,5f8836a5fb70462a169fc0ac,62c53a929b9a5a911048cfbd,2022-07-06_09h36.54.467,Colour_Asymmetry_Pilot,2022.1.3,Win32,59.99520038,62c50e9c1127f2cd403a315f,,,,,,,,,,,,,,,,,,,,,,,,,,,,,,,,,,,,,,,,,,,,,,,,,,,,,,,,,,,,,,,,,,,,,,,,,,,,,,,,,,,,,,,,,,,,,,,,,,,,,,,,,,,,,,,,,,,,,,,,,,,,,,,,,,,,,,,,,,,,,,,,,,,,,,,,,,,,,,,,,,,
0,42,42,8,1,,5f8836a5fb70462a169fc0ac,62c53a929b9a5a911048cfbd,2022-07-06_09h36.54.467,Colour_Asymmetry_Pilot,2022.1.3,Win32,59.99520038,62c50e9c1127f2cd403a315f,,,,,,,,,,,,,,,,,,,,,,,,,,,,,,,,,,,,,,,,,,,,,,,,,,,,,,,,,,,,,,,,,,,,,,,,,,,,,,,,,,,,,,,,,,,,,,,,,,,,,,,,,,,,,,,,,,,,,,,,,,,,,,,,,,,,,,,,,,,,,,,,,,,,,,,,,,,,,,,,,,,
0,43,43,24,1,,5f8836a5fb70462a169fc0ac,62c53a929b9a5a911048cfbd,2022-07-06_09h36.54.467,Colour_Asymmetry_Pilot,2022.1.3,Win32,59.99520038,62c50e9c1127f2cd403a315f,,,,,,,,,,,,,,,,,,,,,,,,,,,,,,,,,,,,,,,,,,,,,,,,,,,,,,,,,,,,,,,,,,,,,,,,,,,,,,,,,,,,,,,,,,,,,,,,,,,,,,,,,,,,,,,,,,,,,,,,,,,,,,,,,,,,,,,,,,,,,,,,,,,,,,,,,,,,,,,,,,,
0,44,44,2,1,,5f8836a5fb70462a169fc0ac,62c53a929b9a5a911048cfbd,2022-07-06_09h36.54.467,Colour_Asymmetry_Pilot,2022.1.3,Win32,59.99520038,62c50e9c1127f2cd403a315f,,,,,,,,,,,,,,,,,,,,,,,,,,,,,,,,,,,,,,,,,,,,,,,,,,,,,,,,,,,,,,,,,,,,,,,,,,,,,,,,,,,,,,,,,,,,,,,,,,,,,,,,,,,,,,,,,,,,,,,,,,,,,,,,,,,,,,,,,,,,,,,,,,,,,,,,,,,,,,,,,,,
0,45,45,21,1,,5f8836a5fb70462a169fc0ac,62c53a929b9a5a911048cfbd,2022-07-06_09h36.54.467,Colour_Asymmetry_Pilot,2022.1.3,Win32,59.99520038,62c50e9c1127f2cd403a315f,,,,,,,,,,,,,,,,,,,,,,,,,,,,,,,,,,,,,,,,,,,,,,,,,,,,,,,,,,,,,,,,,,,,,,,,,,,,,,,,,,,,,,,,,,,,,,,,,,,,,,,,,,,,,,,,,,,,,,,,,,,,,,,,,,,,,,,,,,,,,,,,,,,,,,,,,,,,,,,,,,,
0,46,46,86,1,,5f8836a5fb70462a169fc0ac,62c53a929b9a5a911048cfbd,2022-07-06_09h36.54.467,Colour_Asymmetry_Pilot,2022.1.3,Win32,59.99520038,62c50e9c1127f2cd403a315f,,,,,,,,,,,,,,,,,,,,,,,,,,,,,,,,,,,,,,,,,,,,,,,,,,,,,,,,,,,,,,,,,,,,,,,,,,,,,,,,,,,,,,,,,,,,,,,,,,,,,,,,,,,,,,,,,,,,,,,,,,,,,,,,,,,,,,,,,,,,,,,,,,,,,,,,,,,,,,,,,,,
0,47,47,72,1,,5f8836a5fb70462a169fc0ac,62c53a929b9a5a911048cfbd,2022-07-06_09h36.54.467,Colour_Asymmetry_Pilot,2022.1.3,Win32,59.99520038,62c50e9c1127f2cd403a315f,,,,,,,,,,,,,,,,,,,,,,,,,,,,,,,,,,,,,,,,,,,,,,,,,,,,,,,,,,,,,,,,,,,,,,,,,,,,,,,,,,,,,,,,,,,,,,,,,,,,,,,,,,,,,,,,,,,,,,,,,,,,,,,,,,,,,,,,,,,,,,,,,,,,,,,,,,,,,,,,,,,
0,48,48,71,1,,5f8836a5fb70462a169fc0ac,62c53a929b9a5a911048cfbd,2022-07-06_09h36.54.467,Colour_Asymmetry_Pilot,2022.1.3,Win32,59.99520038,62c50e9c1127f2cd403a315f,,,,,,,,,,,,,,,,,,,,,,,,,,,,,,,,,,,,,,,,,,,,,,,,,,,,,,,,,,,,,,,,,,,,,,,,,,,,,,,,,,,,,,,,,,,,,,,,,,,,,,,,,,,,,,,,,,,,,,,,,,,,,,,,,,,,,,,,,,,,,,,,,,,,,,,,,,,,,,,,,,,
0,49,49,56,1,,5f8836a5fb70462a169fc0ac,62c53a929b9a5a911048cfbd,2022-07-06_09h36.54.467,Colour_Asymmetry_Pilot,2022.1.3,Win32,59.99520038,62c50e9c1127f2cd403a315f,,,,,,,,,,,,,,,,,,,,,,,,,,,,,,,,,,,,,,,,,,,,,,,,,,,,,,,,,,,,,,,,,,,,,,,,,,,,,,,,,,,,,,,,,,,,,,,,,,,,,,,,,,,,,,,,,,,,,,,,,,,,,,,,,,,,,,,,,,,,,,,,,,,,,,,,,,,,,,,,,,,
0,50,50,57,1,,5f8836a5fb70462a169fc0ac,62c53a929b9a5a911048cfbd,2022-07-06_09h36.54.467,Colour_Asymmetry_Pilot,2022.1.3,Win32,59.99520038,62c50e9c1127f2cd403a315f,,,,,,,,,,,,,,,,,,,,,,,,,,,,,,,,,,,,,,,,,,,,,,,,,,,,,,,,,,,,,,,,,,,,,,,,,,,,,,,,,,,,,,,,,,,,,,,,,,,,,,,,,,,,,,,,,,,,,,,,,,,,,,,,,,,,,,,,,,,,,,,,,,,,,,,,,,,,,,,,,,,
0,51,51,46,1,,5f8836a5fb70462a169fc0ac,62c53a929b9a5a911048cfbd,2022-07-06_09h36.54.467,Colour_Asymmetry_Pilot,2022.1.3,Win32,59.99520038,62c50e9c1127f2cd403a315f,,,,,,,,,,,,,,,,,,,,,,,,,,,,,,,,,,,,,,,,,,,,,,,,,,,,,,,,,,,,,,,,,,,,,,,,,,,,,,,,,,,,,,,,,,,,,,,,,,,,,,,,,,,,,,,,,,,,,,,,,,,,,,,,,,,,,,,,,,,,,,,,,,,,,,,,,,,,,,,,,,,
0,52,52,9,1,,5f8836a5fb70462a169fc0ac,62c53a929b9a5a911048cfbd,2022-07-06_09h36.54.467,Colour_Asymmetry_Pilot,2022.1.3,Win32,59.99520038,62c50e9c1127f2cd403a315f,,,,,,,,,,,,,,,,,,,,,,,,,,,,,,,,,,,,,,,,,,,,,,,,,,,,,,,,,,,,,,,,,,,,,,,,,,,,,,,,,,,,,,,,,,,,,,,,,,,,,,,,,,,,,,,,,,,,,,,,,,,,,,,,,,,,,,,,,,,,,,,,,,,,,,,,,,,,,,,,,,,
0,53,53,44,1,,5f8836a5fb70462a169fc0ac,62c53a929b9a5a911048cfbd,2022-07-06_09h36.54.467,Colour_Asymmetry_Pilot,2022.1.3,Win32,59.99520038,62c50e9c1127f2cd403a315f,,,,,,,,,,,,,,,,,,,,,,,,,,,,,,,,,,,,,,,,,,,,,,,,,,,,,,,,,,,,,,,,,,,,,,,,,,,,,,,,,,,,,,,,,,,,,,,,,,,,,,,,,,,,,,,,,,,,,,,,,,,,,,,,,,,,,,,,,,,,,,,,,,,,,,,,,,,,,,,,,,,
0,54,54,74,1,,5f8836a5fb70462a169fc0ac,62c53a929b9a5a911048cfbd,2022-07-06_09h36.54.467,Colour_Asymmetry_Pilot,2022.1.3,Win32,59.99520038,62c50e9c1127f2cd403a315f,,,,,,,,,,,,,,,,,,,,,,,,,,,,,,,,,,,,,,,,,,,,,,,,,,,,,,,,,,,,,,,,,,,,,,,,,,,,,,,,,,,,,,,,,,,,,,,,,,,,,,,,,,,,,,,,,,,,,,,,,,,,,,,,,,,,,,,,,,,,,,,,,,,,,,,,,,,,,,,,,,,
0,55,55,36,1,,5f8836a5fb70462a169fc0ac,62c53a929b9a5a911048cfbd,2022-07-06_09h36.54.467,Colour_Asymmetry_Pilot,2022.1.3,Win32,59.99520038,62c50e9c1127f2cd403a315f,,,,,,,,,,,,,,,,,,,,,,,,,,,,,,,,,,,,,,,,,,,,,,,,,,,,,,,,,,,,,,,,,,,,,,,,,,,,,,,,,,,,,,,,,,,,,,,,,,,,,,,,,,,,,,,,,,,,,,,,,,,,,,,,,,,,,,,,,,,,,,,,,,,,,,,,,,,,,,,,,,,
0,56,56,3,1,,5f8836a5fb70462a169fc0ac,62c53a929b9a5a911048cfbd,2022-07-06_09h36.54.467,Colour_Asymmetry_Pilot,2022.1.3,Win32,59.99520038,62c50e9c1127f2cd403a315f,,,,,,,,,,,,,,,,,,,,,,,,,,,,,,,,,,,,,,,,,,,,,,,,,,,,,,,,,,,,,,,,,,,,,,,,,,,,,,,,,,,,,,,,,,,,,,,,,,,,,,,,,,,,,,,,,,,,,,,,,,,,,,,,,,,,,,,,,,,,,,,,,,,,,,,,,,,,,,,,,,,
0,57,57,85,1,,5f8836a5fb70462a169fc0ac,62c53a929b9a5a911048cfbd,2022-07-06_09h36.54.467,Colour_Asymmetry_Pilot,2022.1.3,Win32,59.99520038,62c50e9c1127f2cd403a315f,,,,,,,,,,,,,,,,,,,,,,,,,,,,,,,,,,,,,,,,,,,,,,,,,,,,,,,,,,,,,,,,,,,,,,,,,,,,,,,,,,,,,,,,,,,,,,,,,,,,,,,,,,,,,,,,,,,,,,,,,,,,,,,,,,,,,,,,,,,,,,,,,,,,,,,,,,,,,,,,,,,
0,58,58,88,1,,5f8836a5fb70462a169fc0ac,62c53a929b9a5a911048cfbd,2022-07-06_09h36.54.467,Colour_Asymmetry_Pilot,2022.1.3,Win32,59.99520038,62c50e9c1127f2cd403a315f,,,,,,,,,,,,,,,,,,,,,,,,,,,,,,,,,,,,,,,,,,,,,,,,,,,,,,,,,,,,,,,,,,,,,,,,,,,,,,,,,,,,,,,,,,,,,,,,,,,,,,,,,,,,,,,,,,,,,,,,,,,,,,,,,,,,,,,,,,,,,,,,,,,,,,,,,,,,,,,,,,,
0,59,59,49,1,,5f8836a5fb70462a169fc0ac,62c53a929b9a5a911048cfbd,2022-07-06_09h36.54.467,Colour_Asymmetry_Pilot,2022.1.3,Win32,59.99520038,62c50e9c1127f2cd403a315f,,,,,,,,,,,,,,,,,,,,,,,,,,,,,,,,,,,,,,,,,,,,,,,,,,,,,,,,,,,,,,,,,,,,,,,,,,,,,,,,,,,,,,,,,,,,,,,,,,,,,,,,,,,,,,,,,,,,,,,,,,,,,,,,,,,,,,,,,,,,,,,,,,,,,,,,,,,,,,,,,,,
0,60,60,90,1,,5f8836a5fb70462a169fc0ac,62c53a929b9a5a911048cfbd,2022-07-06_09h36.54.467,Colour_Asymmetry_Pilot,2022.1.3,Win32,59.99520038,62c50e9c1127f2cd403a315f,,,,,,,,,,,,,,,,,,,,,,,,,,,,,,,,,,,,,,,,,,,,,,,,,,,,,,,,,,,,,,,,,,,,,,,,,,,,,,,,,,,,,,,,,,,,,,,,,,,,,,,,,,,,,,,,,,,,,,,,,,,,,,,,,,,,,,,,,,,,,,,,,,,,,,,,,,,,,,,,,,,
0,61,61,5,1,,5f8836a5fb70462a169fc0ac,62c53a929b9a5a911048cfbd,2022-07-06_09h36.54.467,Colour_Asymmetry_Pilot,2022.1.3,Win32,59.99520038,62c50e9c1127f2cd403a315f,,,,,,,,,,,,,,,,,,,,,,,,,,,,,,,,,,,,,,,,,,,,,,,,,,,,,,,,,,,,,,,,,,,,,,,,,,,,,,,,,,,,,,,,,,,,,,,,,,,,,,,,,,,,,,,,,,,,,,,,,,,,,,,,,,,,,,,,,,,,,,,,,,,,,,,,,,,,,,,,,,,
0,62,62,64,1,,5f8836a5fb70462a169fc0ac,62c53a929b9a5a911048cfbd,2022-07-06_09h36.54.467,Colour_Asymmetry_Pilot,2022.1.3,Win32,59.99520038,62c50e9c1127f2cd403a315f,,,,,,,,,,,,,,,,,,,,,,,,,,,,,,,,,,,,,,,,,,,,,,,,,,,,,,,,,,,,,,,,,,,,,,,,,,,,,,,,,,,,,,,,,,,,,,,,,,,,,,,,,,,,,,,,,,,,,,,,,,,,,,,,,,,,,,,,,,,,,,,,,,,,,,,,,,,,,,,,,,,
0,63,63,35,1,,5f8836a5fb70462a169fc0ac,62c53a929b9a5a911048cfbd,2022-07-06_09h36.54.467,Colour_Asymmetry_Pilot,2022.1.3,Win32,59.99520038,62c50e9c1127f2cd403a315f,,,,,,,,,,,,,,,,,,,,,,,,,,,,,,,,,,,,,,,,,,,,,,,,,,,,,,,,,,,,,,,,,,,,,,,,,,,,,,,,,,,,,,,,,,,,,,,,,,,,,,,,,,,,,,,,,,,,,,,,,,,,,,,,,,,,,,,,,,,,,,,,,,,,,,,,,,,,,,,,,,,
0,64,64,11,1,,5f8836a5fb70462a169fc0ac,62c53a929b9a5a911048cfbd,2022-07-06_09h36.54.467,Colour_Asymmetry_Pilot,2022.1.3,Win32,59.99520038,62c50e9c1127f2cd403a315f,,,,,,,,,,,,,,,,,,,,,,,,,,,,,,,,,,,,,,,,,,,,,,,,,,,,,,,,,,,,,,,,,,,,,,,,,,,,,,,,,,,,,,,,,,,,,,,,,,,,,,,,,,,,,,,,,,,,,,,,,,,,,,,,,,,,,,,,,,,,,,,,,,,,,,,,,,,,,,,,,,,
0,65,65,23,1,,5f8836a5fb70462a169fc0ac,62c53a929b9a5a911048cfbd,2022-07-06_09h36.54.467,Colour_Asymmetry_Pilot,2022.1.3,Win32,59.99520038,62c50e9c1127f2cd403a315f,,,,,,,,,,,,,,,,,,,,,,,,,,,,,,,,,,,,,,,,,,,,,,,,,,,,,,,,,,,,,,,,,,,,,,,,,,,,,,,,,,,,,,,,,,,,,,,,,,,,,,,,,,,,,,,,,,,,,,,,,,,,,,,,,,,,,,,,,,,,,,,,,,,,,,,,,,,,,,,,,,,
0,66,66,25,1,,5f8836a5fb70462a169fc0ac,62c53a929b9a5a911048cfbd,2022-07-06_09h36.54.467,Colour_Asymmetry_Pilot,2022.1.3,Win32,59.99520038,62c50e9c1127f2cd403a315f,,,,,,,,,,,,,,,,,,,,,,,,,,,,,,,,,,,,,,,,,,,,,,,,,,,,,,,,,,,,,,,,,,,,,,,,,,,,,,,,,,,,,,,,,,,,,,,,,,,,,,,,,,,,,,,,,,,,,,,,,,,,,,,,,,,,,,,,,,,,,,,,,,,,,,,,,,,,,,,,,,,
0,67,67,89,1,,5f8836a5fb70462a169fc0ac,62c53a929b9a5a911048cfbd,2022-07-06_09h36.54.467,Colour_Asymmetry_Pilot,2022.1.3,Win32,59.99520038,62c50e9c1127f2cd403a315f,,,,,,,,,,,,,,,,,,,,,,,,,,,,,,,,,,,,,,,,,,,,,,,,,,,,,,,,,,,,,,,,,,,,,,,,,,,,,,,,,,,,,,,,,,,,,,,,,,,,,,,,,,,,,,,,,,,,,,,,,,,,,,,,,,,,,,,,,,,,,,,,,,,,,,,,,,,,,,,,,,,
0,68,68,70,1,,5f8836a5fb70462a169fc0ac,62c53a929b9a5a911048cfbd,2022-07-06_09h36.54.467,Colour_Asymmetry_Pilot,2022.1.3,Win32,59.99520038,62c50e9c1127f2cd403a315f,,,,,,,,,,,,,,,,,,,,,,,,,,,,,,,,,,,,,,,,,,,,,,,,,,,,,,,,,,,,,,,,,,,,,,,,,,,,,,,,,,,,,,,,,,,,,,,,,,,,,,,,,,,,,,,,,,,,,,,,,,,,,,,,,,,,,,,,,,,,,,,,,,,,,,,,,,,,,,,,,,,
0,69,69,67,1,,5f8836a5fb70462a169fc0ac,62c53a929b9a5a911048cfbd,2022-07-06_09h36.54.467,Colour_Asymmetry_Pilot,2022.1.3,Win32,59.99520038,62c50e9c1127f2cd403a315f,,,,,,,,,,,,,,,,,,,,,,,,,,,,,,,,,,,,,,,,,,,,,,,,,,,,,,,,,,,,,,,,,,,,,,,,,,,,,,,,,,,,,,,,,,,,,,,,,,,,,,,,,,,,,,,,,,,,,,,,,,,,,,,,,,,,,,,,,,,,,,,,,,,,,,,,,,,,,,,,,,,
0,70,70,47,1,,5f8836a5fb70462a169fc0ac,62c53a929b9a5a911048cfbd,2022-07-06_09h36.54.467,Colour_Asymmetry_Pilot,2022.1.3,Win32,59.99520038,62c50e9c1127f2cd403a315f,,,,,,,,,,,,,,,,,,,,,,,,,,,,,,,,,,,,,,,,,,,,,,,,,,,,,,,,,,,,,,,,,,,,,,,,,,,,,,,,,,,,,,,,,,,,,,,,,,,,,,,,,,,,,,,,,,,,,,,,,,,,,,,,,,,,,,,,,,,,,,,,,,,,,,,,,,,,,,,,,,,
0,71,71,66,1,,5f8836a5fb70462a169fc0ac,62c53a929b9a5a911048cfbd,2022-07-06_09h36.54.467,Colour_Asymmetry_Pilot,2022.1.3,Win32,59.99520038,62c50e9c1127f2cd403a315f,,,,,,,,,,,,,,,,,,,,,,,,,,,,,,,,,,,,,,,,,,,,,,,,,,,,,,,,,,,,,,,,,,,,,,,,,,,,,,,,,,,,,,,,,,,,,,,,,,,,,,,,,,,,,,,,,,,,,,,,,,,,,,,,,,,,,,,,,,,,,,,,,,,,,,,,,,,,,,,,,,,
0,72,72,27,1,,5f8836a5fb70462a169fc0ac,62c53a929b9a5a911048cfbd,2022-07-06_09h36.54.467,Colour_Asymmetry_Pilot,2022.1.3,Win32,59.99520038,62c50e9c1127f2cd403a315f,,,,,,,,,,,,,,,,,,,,,,,,,,,,,,,,,,,,,,,,,,,,,,,,,,,,,,,,,,,,,,,,,,,,,,,,,,,,,,,,,,,,,,,,,,,,,,,,,,,,,,,,,,,,,,,,,,,,,,,,,,,,,,,,,,,,,,,,,,,,,,,,,,,,,,,,,,,,,,,,,,,
0,73,73,84,1,,5f8836a5fb70462a169fc0ac,62c53a929b9a5a911048cfbd,2022-07-06_09h36.54.467,Colour_Asymmetry_Pilot,2022.1.3,Win32,59.99520038,62c50e9c1127f2cd403a315f,,,,,,,,,,,,,,,,,,,,,,,,,,,,,,,,,,,,,,,,,,,,,,,,,,,,,,,,,,,,,,,,,,,,,,,,,,,,,,,,,,,,,,,,,,,,,,,,,,,,,,,,,,,,,,,,,,,,,,,,,,,,,,,,,,,,,,,,,,,,,,,,,,,,,,,,,,,,,,,,,,,
0,74,74,45,1,,5f8836a5fb70462a169fc0ac,62c53a929b9a5a911048cfbd,2022-07-06_09h36.54.467,Colour_Asymmetry_Pilot,2022.1.3,Win32,59.99520038,62c50e9c1127f2cd403a315f,,,,,,,,,,,,,,,,,,,,,,,,,,,,,,,,,,,,,,,,,,,,,,,,,,,,,,,,,,,,,,,,,,,,,,,,,,,,,,,,,,,,,,,,,,,,,,,,,,,,,,,,,,,,,,,,,,,,,,,,,,,,,,,,,,,,,,,,,,,,,,,,,,,,,,,,,,,,,,,,,,,
0,75,75,59,1,,5f8836a5fb70462a169fc0ac,62c53a929b9a5a911048cfbd,2022-07-06_09h36.54.467,Colour_Asymmetry_Pilot,2022.1.3,Win32,59.99520038,62c50e9c1127f2cd403a315f,,,,,,,,,,,,,,,,,,,,,,,,,,,,,,,,,,,,,,,,,,,,,,,,,,,,,,,,,,,,,,,,,,,,,,,,,,,,,,,,,,,,,,,,,,,,,,,,,,,,,,,,,,,,,,,,,,,,,,,,,,,,,,,,,,,,,,,,,,,,,,,,,,,,,,,,,,,,,,,,,,,
0,76,76,38,1,,5f8836a5fb70462a169fc0ac,62c53a929b9a5a911048cfbd,2022-07-06_09h36.54.467,Colour_Asymmetry_Pilot,2022.1.3,Win32,59.99520038,62c50e9c1127f2cd403a315f,,,,,,,,,,,,,,,,,,,,,,,,,,,,,,,,,,,,,,,,,,,,,,,,,,,,,,,,,,,,,,,,,,,,,,,,,,,,,,,,,,,,,,,,,,,,,,,,,,,,,,,,,,,,,,,,,,,,,,,,,,,,,,,,,,,,,,,,,,,,,,,,,,,,,,,,,,,,,,,,,,,
0,77,77,14,1,,5f8836a5fb70462a169fc0ac,62c53a929b9a5a911048cfbd,2022-07-06_09h36.54.467,Colour_Asymmetry_Pilot,2022.1.3,Win32,59.99520038,62c50e9c1127f2cd403a315f,,,,,,,,,,,,,,,,,,,,,,,,,,,,,,,,,,,,,,,,,,,,,,,,,,,,,,,,,,,,,,,,,,,,,,,,,,,,,,,,,,,,,,,,,,,,,,,,,,,,,,,,,,,,,,,,,,,,,,,,,,,,,,,,,,,,,,,,,,,,,,,,,,,,,,,,,,,,,,,,,,,
0,78,78,0,1,,5f8836a5fb70462a169fc0ac,62c53a929b9a5a911048cfbd,2022-07-06_09h36.54.467,Colour_Asymmetry_Pilot,2022.1.3,Win32,59.99520038,62c50e9c1127f2cd403a315f,,,,,,,,,,,,,,,,,,,,,,,,,,,,,,,,,,,,,,,,,,,,,,,,,,,,,,,,,,,,,,,,,,,,,,,,,,,,,,,,,,,,,,,,,,,,,,,,,,,,,,,,,,,,,,,,,,,,,,,,,,,,,,,,,,,,,,,,,,,,,,,,,,,,,,,,,,,,,,,,,,,
0,79,79,76,1,,5f8836a5fb70462a169fc0ac,62c53a929b9a5a911048cfbd,2022-07-06_09h36.54.467,Colour_Asymmetry_Pilot,2022.1.3,Win32,59.99520038,62c50e9c1127f2cd403a315f,,,,,,,,,,,,,,,,,,,,,,,,,,,,,,,,,,,,,,,,,,,,,,,,,,,,,,,,,,,,,,,,,,,,,,,,,,,,,,,,,,,,,,,,,,,,,,,,,,,,,,,,,,,,,,,,,,,,,,,,,,,,,,,,,,,,,,,,,,,,,,,,,,,,,,,,,,,,,,,,,,,
0,80,80,53,1,,5f8836a5fb70462a169fc0ac,62c53a929b9a5a911048cfbd,2022-07-06_09h36.54.467,Colour_Asymmetry_Pilot,2022.1.3,Win32,59.99520038,62c50e9c1127f2cd403a315f,,,,,,,,,,,,,,,,,,,,,,,,,,,,,,,,,,,,,,,,,,,,,,,,,,,,,,,,,,,,,,,,,,,,,,,,,,,,,,,,,,,,,,,,,,,,,,,,,,,,,,,,,,,,,,,,,,,,,,,,,,,,,,,,,,,,,,,,,,,,,,,,,,,,,,,,,,,,,,,,,,,
0,81,81,20,1,,5f8836a5fb70462a169fc0ac,62c53a929b9a5a911048cfbd,2022-07-06_09h36.54.467,Colour_Asymmetry_Pilot,2022.1.3,Win32,59.99520038,62c50e9c1127f2cd403a315f,,,,,,,,,,,,,,,,,,,,,,,,,,,,,,,,,,,,,,,,,,,,,,,,,,,,,,,,,,,,,,,,,,,,,,,,,,,,,,,,,,,,,,,,,,,,,,,,,,,,,,,,,,,,,,,,,,,,,,,,,,,,,,,,,,,,,,,,,,,,,,,,,,,,,,,,,,,,,,,,,,,
0,82,82,91,1,,5f8836a5fb70462a169fc0ac,62c53a929b9a5a911048cfbd,2022-07-06_09h36.54.467,Colour_Asymmetry_Pilot,2022.1.3,Win32,59.99520038,62c50e9c1127f2cd403a315f,,,,,,,,,,,,,,,,,,,,,,,,,,,,,,,,,,,,,,,,,,,,,,,,,,,,,,,,,,,,,,,,,,,,,,,,,,,,,,,,,,,,,,,,,,,,,,,,,,,,,,,,,,,,,,,,,,,,,,,,,,,,,,,,,,,,,,,,,,,,,,,,,,,,,,,,,,,,,,,,,,,
0,83,83,68,1,,5f8836a5fb70462a169fc0ac,62c53a929b9a5a911048cfbd,2022-07-06_09h36.54.467,Colour_Asymmetry_Pilot,2022.1.3,Win32,59.99520038,62c50e9c1127f2cd403a315f,,,,,,,,,,,,,,,,,,,,,,,,,,,,,,,,,,,,,,,,,,,,,,,,,,,,,,,,,,,,,,,,,,,,,,,,,,,,,,,,,,,,,,,,,,,,,,,,,,,,,,,,,,,,,,,,,,,,,,,,,,,,,,,,,,,,,,,,,,,,,,,,,,,,,,,,,,,,,,,,,,,
0,84,84,7,1,,5f8836a5fb70462a169fc0ac,62c53a929b9a5a911048cfbd,2022-07-06_09h36.54.467,Colour_Asymmetry_Pilot,2022.1.3,Win32,59.99520038,62c50e9c1127f2cd403a315f,,,,,,,,,,,,,,,,,,,,,,,,,,,,,,,,,,,,,,,,,,,,,,,,,,,,,,,,,,,,,,,,,,,,,,,,,,,,,,,,,,,,,,,,,,,,,,,,,,,,,,,,,,,,,,,,,,,,,,,,,,,,,,,,,,,,,,,,,,,,,,,,,,,,,,,,,,,,,,,,,,,
0,85,85,65,1,,5f8836a5fb70462a169fc0ac,62c53a929b9a5a911048cfbd,2022-07-06_09h36.54.467,Colour_Asymmetry_Pilot,2022.1.3,Win32,59.99520038,62c50e9c1127f2cd403a315f,,,,,,,,,,,,,,,,,,,,,,,,,,,,,,,,,,,,,,,,,,,,,,,,,,,,,,,,,,,,,,,,,,,,,,,,,,,,,,,,,,,,,,,,,,,,,,,,,,,,,,,,,,,,,,,,,,,,,,,,,,,,,,,,,,,,,,,,,,,,,,,,,,,,,,,,,,,,,,,,,,,
0,86,86,58,1,,5f8836a5fb70462a169fc0ac,62c53a929b9a5a911048cfbd,2022-07-06_09h36.54.467,Colour_Asymmetry_Pilot,2022.1.3,Win32,59.99520038,62c50e9c1127f2cd403a315f,,,,,,,,,,,,,,,,,,,,,,,,,,,,,,,,,,,,,,,,,,,,,,,,,,,,,,,,,,,,,,,,,,,,,,,,,,,,,,,,,,,,,,,,,,,,,,,,,,,,,,,,,,,,,,,,,,,,,,,,,,,,,,,,,,,,,,,,,,,,,,,,,,,,,,,,,,,,,,,,,,,
0,87,87,30,1,,5f8836a5fb70462a169fc0ac,62c53a929b9a5a911048cfbd,2022-07-06_09h36.54.467,Colour_Asymmetry_Pilot,2022.1.3,Win32,59.99520038,62c50e9c1127f2cd403a315f,,,,,,,,,,,,,,,,,,,,,,,,,,,,,,,,,,,,,,,,,,,,,,,,,,,,,,,,,,,,,,,,,,,,,,,,,,,,,,,,,,,,,,,,,,,,,,,,,,,,,,,,,,,,,,,,,,,,,,,,,,,,,,,,,,,,,,,,,,,,,,,,,,,,,,,,,,,,,,,,,,,
0,88,88,4,1,,5f8836a5fb70462a169fc0ac,62c53a929b9a5a911048cfbd,2022-07-06_09h36.54.467,Colour_Asymmetry_Pilot,2022.1.3,Win32,59.99520038,62c50e9c1127f2cd403a315f,,,,,,,,,,,,,,,,,,,,,,,,,,,,,,,,,,,,,,,,,,,,,,,,,,,,,,,,,,,,,,,,,,,,,,,,,,,,,,,,,,,,,,,,,,,,,,,,,,,,,,,,,,,,,,,,,,,,,,,,,,,,,,,,,,,,,,,,,,,,,,,,,,,,,,,,,,,,,,,,,,,
0,89,89,13,1,,5f8836a5fb70462a169fc0ac,62c53a929b9a5a911048cfbd,2022-07-06_09h36.54.467,Colour_Asymmetry_Pilot,2022.1.3,Win32,59.99520038,62c50e9c1127f2cd403a315f,,,,,,,,,,,,,,,,,,,,,,,,,,,,,,,,,,,,,,,,,,,,,,,,,,,,,,,,,,,,,,,,,,,,,,,,,,,,,,,,,,,,,,,,,,,,,,,,,,,,,,,,,,,,,,,,,,,,,,,,,,,,,,,,,,,,,,,,,,,,,,,,,,,,,,,,,,,,,,,,,,,
0,90,90,78,1,,5f8836a5fb70462a169fc0ac,62c53a929b9a5a911048cfbd,2022-07-06_09h36.54.467,Colour_Asymmetry_Pilot,2022.1.3,Win32,59.99520038,62c50e9c1127f2cd403a315f,,,,,,,,,,,,,,,,,,,,,,,,,,,,,,,,,,,,,,,,,,,,,,,,,,,,,,,,,,,,,,,,,,,,,,,,,,,,,,,,,,,,,,,,,,,,,,,,,,,,,,,,,,,,,,,,,,,,,,,,,,,,,,,,,,,,,,,,,,,,,,,,,,,,,,,,,,,,,,,,,,,
0,91,91,73,1,,5f8836a5fb70462a169fc0ac,62c53a929b9a5a911048cfbd,2022-07-06_09h36.54.467,Colour_Asymmetry_Pilot,2022.1.3,Win32,59.99520038,62c50e9c1127f2cd403a315f,,,,,,,,,,,,,,,,,,,,,,,,,,,,,,,,,,,,,,,,,,,,,,,,,,,,,,,,,,,,,,,,,,,,,,,,,,,,,,,,,,,,,,,,,,,,,,,,,,,,,,,,,,,,,,,,,,,,,,,,,,,,,,,,,,,,,,,,,,,,,,,,,,,,,,,,,,,,,,,,,,,
0,92,92,26,1,,5f8836a5fb70462a169fc0ac,62c53a929b9a5a911048cfbd,2022-07-06_09h36.54.467,Colour_Asymmetry_Pilot,2022.1.3,Win32,59.99520038,62c50e9c1127f2cd403a315f,,,,,,,,,,,,,,,,,,,,,,,,,,,,,,,,,,,,,,,,,,,,,,,,,,,,,,,,,,,,,,,,,,,,,,,,,,,,,,,,,,,,,,,,,,,,,,,,,,,,,,,,,,,,,,,,,,,,,,,,,,,,,,,,,,,,,,,,,,,,,,,,,,,,,,,,,,,,,,,,,,,
,,,,,,5f8836a5fb70462a169fc0ac,62c53a929b9a5a911048cfbd,2022-07-06_09h36.54.467,Colour_Asymmetry_Pilot,2022.1.3,Win32,59.99520038,62c50e9c1127f2cd403a315f,0,0,0,93,1,threefour,,,,,,,,,,,,,,,,,,,,,,,,,,,,,,,,,,,,,,,,,,,,,,,,,,,,,,,,,,,,,,,,,,,,,,,,,,,,,,,,,,,,,,,,,,,,,,,,,,,,,,,,,,,,,,,,,,,,,,,,,,,,,,,,,,,,,,,,,,,,,,,,,,,,,,,,,,,,,
,,,,,,5f8836a5fb70462a169fc0ac,62c53a929b9a5a911048cfbd,2022-07-06_09h36.54.467,Colour_Asymmetry_Pilot,2022.1.3,Win32,59.99520038,62c50e9c1127f2cd403a315f,0,1,1,130,1,twoone,,,,,,,,,,,,,,,,,,,,,,,,,,,,,,,,,,,,,,,,,,,,,,,,,,,,,,,,,,,,,,,,,,,,,,,,,,,,,,,,,,,,,,,,,,,,,,,,,,,,,,,,,,,,,,,,,,,,,,,,,,,,,,,,,,,,,,,,,,,,,,,,,,,,,,,,,,,,,
,,,,,,5f8836a5fb70462a169fc0ac,62c53a929b9a5a911048cfbd,2022-07-06_09h36.54.467,Colour_Asymmetry_Pilot,2022.1.3,Win32,59.99520038,62c50e9c1127f2cd403a315f,0,2,2,38,1,fourtwo,,,,,,,,,,,,,,,,,,,,,,,,,,,,,,,,,,,,,,,,,,,,,,,,,,,,,,,,,,,,,,,,,,,,,,,,,,,,,,,,,,,,,,,,,,,,,,,,,,,,,,,,,,,,,,,,,,,,,,,,,,,,,,,,,,,,,,,,,,,,,,,,,,,,,,,,,,,,,
,,,,,,5f8836a5fb70462a169fc0ac,62c53a929b9a5a911048cfbd,2022-07-06_09h36.54.467,Colour_Asymmetry_Pilot,2022.1.3,Win32,59.99520038,62c50e9c1127f2cd403a315f,0,3,3,24,1,onetwo,,,,,,,,,,,,,,,,,,,,,,,,,,,,,,,,,,,,,,,,,,,,,,,,,,,,,,,,,,,,,,,,,,,,,,,,,,,,,,,,,,,,,,,,,,,,,,,,,,,,,,,,,,,,,,,,,,,,,,,,,,,,,,,,,,,,,,,,,,,,,,,,,,,,,,,,,,,,,
,,,,,,5f8836a5fb70462a169fc0ac,62c53a929b9a5a911048cfbd,2022-07-06_09h36.54.467,Colour_Asymmetry_Pilot,2022.1.3,Win32,59.99520038,62c50e9c1127f2cd403a315f,0,4,4,115,1,twofour,,,,,,,,,,,,,,,,,,,,,,,,,,,,,,,,,,,,,,,,,,,,,,,,,,,,,,,,,,,,,,,,,,,,,,,,,,,,,,,,,,,,,,,,,,,,,,,,,,,,,,,,,,,,,,,,,,,,,,,,,,,,,,,,,,,,,,,,,,,,,,,,,,,,,,,,,,,,,
,,,,,,5f8836a5fb70462a169fc0ac,62c53a929b9a5a911048cfbd,2022-07-06_09h36.54.467,Colour_Asymmetry_Pilot,2022.1.3,Win32,59.99520038,62c50e9c1127f2cd403a315f,0,5,5,53,1,threefour,,,,,,,,,,,,,,,,,,,,,,,,,,,,,,,,,,,,,,,,,,,,,,,,,,,,,,,,,,,,,,,,,,,,,,,,,,,,,,,,,,,,,,,,,,,,,,,,,,,,,,,,,,,,,,,,,,,,,,,,,,,,,,,,,,,,,,,,,,,,,,,,,,,,,,,,,,,,,
,,,,,,5f8836a5fb70462a169fc0ac,62c53a929b9a5a911048cfbd,2022-07-06_09h36.54.467,Colour_Asymmetry_Pilot,2022.1.3,Win32,59.99520038,62c50e9c1127f2cd403a315f,0,6,6,150,1,fourtwo,,,,,,,,,,,,,,,,,,,,,,,,,,,,,,,,,,,,,,,,,,,,,,,,,,,,,,,,,,,,,,,,,,,,,,,,,,,,,,,,,,,,,,,,,,,,,,,,,,,,,,,,,,,,,,,,,,,,,,,,,,,,,,,,,,,,,,,,,,,,,,,,,,,,,,,,,,,,,
,,,,,,5f8836a5fb70462a169fc0ac,62c53a929b9a5a911048cfbd,2022-07-06_09h36.54.467,Colour_Asymmetry_Pilot,2022.1.3,Win32,59.99520038,62c50e9c1127f2cd403a315f,0,7,7,122,1,twoone,,,,,,,,,,,,,,,,,,,,,,,,,,,,,,,,,,,,,,,,,,,,,,,,,,,,,,,,,,,,,,,,,,,,,,,,,,,,,,,,,,,,,,,,,,,,,,,,,,,,,,,,,,,,,,,,,,,,,,,,,,,,,,,,,,,,,,,,,,,,,,,,,,,,,,,,,,,,,
,,,,,,5f8836a5fb70462a169fc0ac,62c53a929b9a5a911048cfbd,2022-07-06_09h36.54.467,Colour_Asymmetry_Pilot,2022.1.3,Win32,59.99520038,62c50e9c1127f2cd403a315f,0,8,8,20,1,threeone,,,,,,,,,,,,,,,,,,,,,,,,,,,,,,,,,,,,,,,,,,,,,,,,,,,,,,,,,,,,,,,,,,,,,,,,,,,,,,,,,,,,,,,,,,,,,,,,,,,,,,,,,,,,,,,,,,,,,,,,,,,,,,,,,,,,,,,,,,,,,,,,,,,,,,,,,,,,,
,,,,,,5f8836a5fb70462a169fc0ac,62c53a929b9a5a911048cfbd,2022-07-06_09h36.54.467,Colour_Asymmetry_Pilot,2022.1.3,Win32,59.99520038,62c50e9c1127f2cd403a315f,0,9,9,145,1,onethree,,,,,,,,,,,,,,,,,,,,,,,,,,,,,,,,,,,,,,,,,,,,,,,,,,,,,,,,,,,,,,,,,,,,,,,,,,,,,,,,,,,,,,,,,,,,,,,,,,,,,,,,,,,,,,,,,,,,,,,,,,,,,,,,,,,,,,,,,,,,,,,,,,,,,,,,,,,,,
,,,,,,5f8836a5fb70462a169fc0ac,62c53a929b9a5a911048cfbd,2022-07-06_09h36.54.467,Colour_Asymmetry_Pilot,2022.1.3,Win32,59.99520038,62c50e9c1127f2cd403a315f,0,10,10,156,1,threeone,,,,,,,,,,,,,,,,,,,,,,,,,,,,,,,,,,,,,,,,,,,,,,,,,,,,,,,,,,,,,,,,,,,,,,,,,,,,,,,,,,,,,,,,,,,,,,,,,,,,,,,,,,,,,,,,,,,,,,,,,,,,,,,,,,,,,,,,,,,,,,,,,,,,,,,,,,,,,
,,,,,,5f8836a5fb70462a169fc0ac,62c53a929b9a5a911048cfbd,2022-07-06_09h36.54.467,Colour_Asymmetry_Pilot,2022.1.3,Win32,59.99520038,62c50e9c1127f2cd403a315f,0,11,11,100,1,threeone,,,,,,,,,,,,,,,,,,,,,,,,,,,,,,,,,,,,,,,,,,,,,,,,,,,,,,,,,,,,,,,,,,,,,,,,,,,,,,,,,,,,,,,,,,,,,,,,,,,,,,,,,,,,,,,,,,,,,,,,,,,,,,,,,,,,,,,,,,,,,,,,,,,,,,,,,,,,,
,,,,,,5f8836a5fb70462a169fc0ac,62c53a929b9a5a911048cfbd,2022-07-06_09h36.54.467,Colour_Asymmetry_Pilot,2022.1.3,Win32,59.99520038,62c50e9c1127f2cd403a315f,0,12,12,90,1,twoone,,,,,,,,,,,,,,,,,,,,,,,,,,,,,,,,,,,,,,,,,,,,,,,,,,,,,,,,,,,,,,,,,,,,,,,,,,,,,,,,,,,,,,,,,,,,,,,,,,,,,,,,,,,,,,,,,,,,,,,,,,,,,,,,,,,,,,,,,,,,,,,,,,,,,,,,,,,,,
,,,,,,5f8836a5fb70462a169fc0ac,62c53a929b9a5a911048cfbd,2022-07-06_09h36.54.467,Colour_Asymmetry_Pilot,2022.1.3,Win32,59.99520038,62c50e9c1127f2cd403a315f,0,13,13,147,1,twofour,,,,,,,,,,,,,,,,,,,,,,,,,,,,,,,,,,,,,,,,,,,,,,,,,,,,,,,,,,,,,,,,,,,,,,,,,,,,,,,,,,,,,,,,,,,,,,,,,,,,,,,,,,,,,,,,,,,,,,,,,,,,,,,,,,,,,,,,,,,,,,,,,,,,,,,,,,,,,
,,,,,,5f8836a5fb70462a169fc0ac,62c53a929b9a5a911048cfbd,2022-07-06_09h36.54.467,Colour_Asymmetry_Pilot,2022.1.3,Win32,59.99520038,62c50e9c1127f2cd403a315f,0,14,14,55,1,fourthree,,,,,,,,,,,,,,,,,,,,,,,,,,,,,,,,,,,,,,,,,,,,,,,,,,,,,,,,,,,,,,,,,,,,,,,,,,,,,,,,,,,,,,,,,,,,,,,,,,,,,,,,,,,,,,,,,,,,,,,,,,,,,,,,,,,,,,,,,,,,,,,,,,,,,,,,,,,,,
,,,,,,5f8836a5fb70462a169fc0ac,62c53a929b9a5a911048cfbd,2022-07-06_09h36.54.467,Colour_Asymmetry_Pilot,2022.1.3,Win32,59.99520038,62c50e9c1127f2cd403a315f,0,15,15,160,1,onetwo,,,,,,,,,,,,,,,,,,,,,,,,,,,,,,,,,,,,,,,,,,,,,,,,,,,,,,,,,,,,,,,,,,,,,,,,,,,,,,,,,,,,,,,,,,,,,,,,,,,,,,,,,,,,,,,,,,,,,,,,,,,,,,,,,,,,,,,,,,,,,,,,,,,,,,,,,,,,,
,,,,,,5f8836a5fb70462a169fc0ac,62c53a929b9a5a911048cfbd,2022-07-06_09h36.54.467,Colour_Asymmetry_Pilot,2022.1.3,Win32,59.99520038,62c50e9c1127f2cd403a315f,0,16,16,49,1,onethree,,,,,,,,,,,,,,,,,,,,,,,,,,,,,,,,,,,,,,,,,,,,,,,,,,,,,,,,,,,,,,,,,,,,,,,,,,,,,,,,,,,,,,,,,,,,,,,,,,,,,,,,,,,,,,,,,,,,,,,,,,,,,,,,,,,,,,,,,,,,,,,,,,,,,,,,,,,,,
,,,,,,5f8836a5fb70462a169fc0ac,62c53a929b9a5a911048cfbd,2022-07-06_09h36.54.467,Colour_Asymmetry_Pilot,2022.1.3,Win32,59.99520038,62c50e9c1127f2cd403a315f,0,17,17,19,1,twofour,,,,,,,,,,,,,,,,,,,,,,,,,,,,,,,,,,,,,,,,,,,,,,,,,,,,,,,,,,,,,,,,,,,,,,,,,,,,,,,,,,,,,,,,,,,,,,,,,,,,,,,,,,,,,,,,,,,,,,,,,,,,,,,,,,,,,,,,,,,,,,,,,,,,,,,,,,,,,
,,,,,,5f8836a5fb70462a169fc0ac,62c53a929b9a5a911048cfbd,2022-07-06_09h36.54.467,Colour_Asymmetry_Pilot,2022.1.3,Win32,59.99520038,62c50e9c1127f2cd403a315f,0,18,18,154,1,twoone,,,,,,,,,,,,,,,,,,,,,,,,,,,,,,,,,,,,,,,,,,,,,,,,,,,,,,,,,,,,,,,,,,,,,,,,,,,,,,,,,,,,,,,,,,,,,,,,,,,,,,,,,,,,,,,,,,,,,,,,,,,,,,,,,,,,,,,,,,,,,,,,,,,,,,,,,,,,,
,,,,,,5f8836a5fb70462a169fc0ac,62c53a929b9a5a911048cfbd,2022-07-06_09h36.54.467,Colour_Asymmetry_Pilot,2022.1.3,Win32,59.99520038,62c50e9c1127f2cd403a315f,0,19,19,60,1,threeone,,,,,,,,,,,,,,,,,,,,,,,,,,,,,,,,,,,,,,,,,,,,,,,,,,,,,,,,,,,,,,,,,,,,,,,,,,,,,,,,,,,,,,,,,,,,,,,,,,,,,,,,,,,,,,,,,,,,,,,,,,,,,,,,,,,,,,,,,,,,,,,,,,,,,,,,,,,,,
,,,,,,5f8836a5fb70462a169fc0ac,62c53a929b9a5a911048cfbd,2022-07-06_09h36.54.467,Colour_Asymmetry_Pilot,2022.1.3,Win32,59.99520038,62c50e9c1127f2cd403a315f,0,20,20,84,1,threeone,,,,,,,,,,,,,,,,,,,,,,,,,,,,,,,,,,,,,,,,,,,,,,,,,,,,,,,,,,,,,,,,,,,,,,,,,,,,,,,,,,,,,,,,,,,,,,,,,,,,,,,,,,,,,,,,,,,,,,,,,,,,,,,,,,,,,,,,,,,,,,,,,,,,,,,,,,,,,
,,,,,,5f8836a5fb70462a169fc0ac,62c53a929b9a5a911048cfbd,2022-07-06_09h36.54.467,Colour_Asymmetry_Pilot,2022.1.3,Win32,59.99520038,62c50e9c1127f2cd403a315f,0,21,21,3,1,twofour,,,,,,,,,,,,,,,,,,,,,,,,,,,,,,,,,,,,,,,,,,,,,,,,,,,,,,,,,,,,,,,,,,,,,,,,,,,,,,,,,,,,,,,,,,,,,,,,,,,,,,,,,,,,,,,,,,,,,,,,,,,,,,,,,,,,,,,,,,,,,,,,,,,,,,,,,,,,,
,,,,,,5f8836a5fb70462a169fc0ac,62c53a929b9a5a911048cfbd,2022-07-06_09h36.54.467,Colour_Asymmetry_Pilot,2022.1.3,Win32,59.99520038,62c50e9c1127f2cd403a315f,0,22,22,113,1,onethree,,,,,,,,,,,,,,,,,,,,,,,,,,,,,,,,,,,,,,,,,,,,,,,,,,,,,,,,,,,,,,,,,,,,,,,,,,,,,,,,,,,,,,,,,,,,,,,,,,,,,,,,,,,,,,,,,,,,,,,,,,,,,,,,,,,,,,,,,,,,,,,,,,,,,,,,,,,,,
,,,,,,5f8836a5fb70462a169fc0ac,62c53a929b9a5a911048cfbd,2022-07-06_09h36.54.467,Colour_Asymmetry_Pilot,2022.1.3,Win32,59.99520038,62c50e9c1127f2cd403a315f,0,23,23,121,1,onethree,,,,,,,,,,,,,,,,,,,,,,,,,,,,,,,,,,,,,,,,,,,,,,,,,,,,,,,,,,,,,,,,,,,,,,,,,,,,,,,,,,,,,,,,,,,,,,,,,,,,,,,,,,,,,,,,,,,,,,,,,,,,,,,,,,,,,,,,,,,,,,,,,,,,,,,,,,,,,
,,,,,,5f8836a5fb70462a169fc0ac,62c53a929b9a5a911048cfbd,2022-07-06_09h36.54.467,Colour_Asymmetry_Pilot,2022.1.3,Win32,59.99520038,62c50e9c1127f2cd403a315f,0,24,24,155,1,twofour,,,,,,,,,,,,,,,,,,,,,,,,,,,,,,,,,,,,,,,,,,,,,,,,,,,,,,,,,,,,,,,,,,,,,,,,,,,,,,,,,,,,,,,,,,,,,,,,,,,,,,,,,,,,,,,,,,,,,,,,,,,,,,,,,,,,,,,,,,,,,,,,,,,,,,,,,,,,,
,,,,,,5f8836a5fb70462a169fc0ac,62c53a929b9a5a911048cfbd,2022-07-06_09h36.54.467,Colour_Asymmetry_Pilot,2022.1.3,Win32,59.99520038,62c50e9c1127f2cd403a315f,0,25,25,45,1,threefour,,,,,,,,,,,,,,,,,,,,,,,,,,,,,,,,,,,,,,,,,,,,,,,,,,,,,,,,,,,,,,,,,,,,,,,,,,,,,,,,,,,,,,,,,,,,,,,,,,,,,,,,,,,,,,,,,,,,,,,,,,,,,,,,,,,,,,,,,,,,,,,,,,,,,,,,,,,,,
,,,,,,5f8836a5fb70462a169fc0ac,62c53a929b9a5a911048cfbd,2022-07-06_09h36.54.467,Colour_Asymmetry_Pilot,2022.1.3,Win32,59.99520038,62c50e9c1127f2cd403a315f,0,26,26,108,1,threeone,,,,,,,,,,,,,,,,,,,,,,,,,,,,,,,,,,,,,,,,,,,,,,,,,,,,,,,,,,,,,,,,,,,,,,,,,,,,,,,,,,,,,,,,,,,,,,,,,,,,,,,,,,,,,,,,,,,,,,,,,,,,,,,,,,,,,,,,,,,,,,,,,,,,,,,,,,,,,
,,,,,,5f8836a5fb70462a169fc0ac,62c53a929b9a5a911048cfbd,2022-07-06_09h36.54.467,Colour_Asymmetry_Pilot,2022.1.3,Win32,59.99520038,62c50e9c1127f2cd403a315f,0,27,27,17,1,onethree,,,,,,,,,,,,,,,,,,,,,,,,,,,,,,,,,,,,,,,,,,,,,,,,,,,,,,,,,,,,,,,,,,,,,,,,,,,,,,,,,,,,,,,,,,,,,,,,,,,,,,,,,,,,,,,,,,,,,,,,,,,,,,,,,,,,,,,,,,,,,,,,,,,,,,,,,,,,,
,,,,,,5f8836a5fb70462a169fc0ac,62c53a929b9a5a911048cfbd,2022-07-06_09h36.54.467,Colour_Asymmetry_Pilot,2022.1.3,Win32,59.99520038,62c50e9c1127f2cd403a315f,0,28,28,141,1,threefour,,,,,,,,,,,,,,,,,,,,,,,,,,,,,,,,,,,,,,,,,,,,,,,,,,,,,,,,,,,,,,,,,,,,,,,,,,,,,,,,,,,,,,,,,,,,,,,,,,,,,,,,,,,,,,,,,,,,,,,,,,,,,,,,,,,,,,,,,,,,,,,,,,,,,,,,,,,,,
,,,,,,5f8836a5fb70462a169fc0ac,62c53a929b9a5a911048cfbd,2022-07-06_09h36.54.467,Colour_Asymmetry_Pilot,2022.1.3,Win32,59.99520038,62c50e9c1127f2cd403a315f,0,29,29,18,1,twoone,,,,,,,,,,,,,,,,,,,,,,,,,,,,,,,,,,,,,,,,,,,,,,,,,,,,,,,,,,,,,,,,,,,,,,,,,,,,,,,,,,,,,,,,,,,,,,,,,,,,,,,,,,,,,,,,,,,,,,,,,,,,,,,,,,,,,,,,,,,,,,,,,,,,,,,,,,,,,
,,,,,,5f8836a5fb70462a169fc0ac,62c53a929b9a5a911048cfbd,2022-07-06_09h36.54.467,Colour_Asymmetry_Pilot,2022.1.3,Win32,59.99520038,62c50e9c1127f2cd403a315f,0,30,30,8,1,onetwo,,,,,,,,,,,,,,,,,,,,,,,,,,,,,,,,,,,,,,,,,,,,,,,,,,,,,,,,,,,,,,,,,,,,,,,,,,,,,,,,,,,,,,,,,,,,,,,,,,,,,,,,,,,,,,,,,,,,,,,,,,,,,,,,,,,,,,,,,,,,,,,,,,,,,,,,,,,,,
,,,,,,5f8836a5fb70462a169fc0ac,62c53a929b9a5a911048cfbd,2022-07-06_09h36.54.467,Colour_Asymmetry_Pilot,2022.1.3,Win32,59.99520038,62c50e9c1127f2cd403a315f,0,31,31,81,1,onethree,,,,,,,,,,,,,,,,,,,,,,,,,,,,,,,,,,,,,,,,,,,,,,,,,,,,,,,,,,,,,,,,,,,,,,,,,,,,,,,,,,,,,,,,,,,,,,,,,,,,,,,,,,,,,,,,,,,,,,,,,,,,,,,,,,,,,,,,,,,,,,,,,,,,,,,,,,,,,
,,,,,,5f8836a5fb70462a169fc0ac,62c53a929b9a5a911048cfbd,2022-07-06_09h36.54.467,Colour_Asymmetry_Pilot,2022.1.3,Win32,59.99520038,62c50e9c1127f2cd403a315f,0,32,32,68,1,threeone,,,,,,,,,,,,,,,,,,,,,,,,,,,,,,,,,,,,,,,,,,,,,,,,,,,,,,,,,,,,,,,,,,,,,,,,,,,,,,,,,,,,,,,,,,,,,,,,,,,,,,,,,,,,,,,,,,,,,,,,,,,,,,,,,,,,,,,,,,,,,,,,,,,,,,,,,,,,,
,,,,,,5f8836a5fb70462a169fc0ac,62c53a929b9a5a911048cfbd,2022-07-06_09h36.54.467,Colour_Asymmetry_Pilot,2022.1.3,Win32,59.99520038,62c50e9c1127f2cd403a315f,0,33,33,127,1,fourthree,,,,,,,,,,,,,,,,,,,,,,,,,,,,,,,,,,,,,,,,,,,,,,,,,,,,,,,,,,,,,,,,,,,,,,,,,,,,,,,,,,,,,,,,,,,,,,,,,,,,,,,,,,,,,,,,,,,,,,,,,,,,,,,,,,,,,,,,,,,,,,,,,,,,,,,,,,,,,
,,,,,,5f8836a5fb70462a169fc0ac,62c53a929b9a5a911048cfbd,2022-07-06_09h36.54.467,Colour_Asymmetry_Pilot,2022.1.3,Win32,59.99520038,62c50e9c1127f2cd403a315f,0,34,34,65,1,onethree,,,,,,,,,,,,,,,,,,,,,,,,,,,,,,,,,,,,,,,,,,,,,,,,,,,,,,,,,,,,,,,,,,,,,,,,,,,,,,,,,,,,,,,,,,,,,,,,,,,,,,,,,,,,,,,,,,,,,,,,,,,,,,,,,,,,,,,,,,,,,,,,,,,,,,,,,,,,,
,,,,,,5f8836a5fb70462a169fc0ac,62c53a929b9a5a911048cfbd,2022-07-06_09h36.54.467,Colour_Asymmetry_Pilot,2022.1.3,Win32,59.99520038,62c50e9c1127f2cd403a315f,0,35,35,76,1,threeone,,,,,,,,,,,,,,,,,,,,,,,,,,,,,,,,,,,,,,,,,,,,,,,,,,,,,,,,,,,,,,,,,,,,,,,,,,,,,,,,,,,,,,,,,,,,,,,,,,,,,,,,,,,,,,,,,,,,,,,,,,,,,,,,,,,,,,,,,,,,,,,,,,,,,,,,,,,,,
,,,,,,5f8836a5fb70462a169fc0ac,62c53a929b9a5a911048cfbd,2022-07-06_09h36.54.467,Colour_Asymmetry_Pilot,2022.1.3,Win32,59.99520038,62c50e9c1127f2cd403a315f,0,36,36,152,1,onetwo,,,,,,,,,,,,,,,,,,,,,,,,,,,,,,,,,,,,,,,,,,,,,,,,,,,,,,,,,,,,,,,,,,,,,,,,,,,,,,,,,,,,,,,,,,,,,,,,,,,,,,,,,,,,,,,,,,,,,,,,,,,,,,,,,,,,,,,,,,,,,,,,,,,,,,,,,,,,,
,,,,,,5f8836a5fb70462a169fc0ac,62c53a929b9a5a911048cfbd,2022-07-06_09h36.54.467,Colour_Asymmetry_Pilot,2022.1.3,Win32,59.99520038,62c50e9c1127f2cd403a315f,0,37,37,14,1,fourtwo,,,,,,,,,,,,,,,,,,,,,,,,,,,,,,,,,,,,,,,,,,,,,,,,,,,,,,,,,,,,,,,,,,,,,,,,,,,,,,,,,,,,,,,,,,,,,,,,,,,,,,,,,,,,,,,,,,,,,,,,,,,,,,,,,,,,,,,,,,,,,,,,,,,,,,,,,,,,,
,,,,,,5f8836a5fb70462a169fc0ac,62c53a929b9a5a911048cfbd,2022-07-06_09h36.54.467,Colour_Asymmetry_Pilot,2022.1.3,Win32,59.99520038,62c50e9c1127f2cd403a315f,0,38,38,144,1,onetwo,,,,,,,,,,,,,,,,,,,,,,,,,,,,,,,,,,,,,,,,,,,,,,,,,,,,,,,,,,,,,,,,,,,,,,,,,,,,,,,,,,,,,,,,,,,,,,,,,,,,,,,,,,,,,,,,,,,,,,,,,,,,,,,,,,,,,,,,,,,,,,,,,,,,,,,,,,,,,
,,,,,,5f8836a5fb70462a169fc0ac,62c53a929b9a5a911048cfbd,2022-07-06_09h36.54.467,Colour_Asymmetry_Pilot,2022.1.3,Win32,59.99520038,62c50e9c1127f2cd403a315f,0,39,39,80,1,onetwo,,,,,,,,,,,,,,,,,,,,,,,,,,,,,,,,,,,,,,,,,,,,,,,,,,,,,,,,,,,,,,,,,,,,,,,,,,,,,,,,,,,,,,,,,,,,,,,,,,,,,,,,,,,,,,,,,,,,,,,,,,,,,,,,,,,,,,,,,,,,,,,,,,,,,,,,,,,,,
,,,,,,5f8836a5fb70462a169fc0ac,62c53a929b9a5a911048cfbd,2022-07-06_09h36.54.467,Colour_Asymmetry_Pilot,2022.1.3,Win32,59.99520038,62c50e9c1127f2cd403a315f,0,40,40,78,1,fourtwo,,,,,,,,,,,,,,,,,,,,,,,,,,,,,,,,,,,,,,,,,,,,,,,,,,,,,,,,,,,,,,,,,,,,,,,,,,,,,,,,,,,,,,,,,,,,,,,,,,,,,,,,,,,,,,,,,,,,,,,,,,,,,,,,,,,,,,,,,,,,,,,,,,,,,,,,,,,,,
,,,,,,5f8836a5fb70462a169fc0ac,62c53a929b9a5a911048cfbd,2022-07-06_09h36.54.467,Colour_Asymmetry_Pilot,2022.1.3,Win32,59.99520038,62c50e9c1127f2cd403a315f,0,41,41,0,1,onetwo,,,,,,,,,,,,,,,,,,,,,,,,,,,,,,,,,,,,,,,,,,,,,,,,,,,,,,,,,,,,,,,,,,,,,,,,,,,,,,,,,,,,,,,,,,,,,,,,,,,,,,,,,,,,,,,,,,,,,,,,,,,,,,,,,,,,,,,,,,,,,,,,,,,,,,,,,,,,,
,,,,,,5f8836a5fb70462a169fc0ac,62c53a929b9a5a911048cfbd,2022-07-06_09h36.54.467,Colour_Asymmetry_Pilot,2022.1.3,Win32,59.99520038,62c50e9c1127f2cd403a315f,0,42,42,158,1,fourtwo,,,,,,,,,,,,,,,,,,,,,,,,,,,,,,,,,,,,,,,,,,,,,,,,,,,,,,,,,,,,,,,,,,,,,,,,,,,,,,,,,,,,,,,,,,,,,,,,,,,,,,,,,,,,,,,,,,,,,,,,,,,,,,,,,,,,,,,,,,,,,,,,,,,,,,,,,,,,,
,,,,,,5f8836a5fb70462a169fc0ac,62c53a929b9a5a911048cfbd,2022-07-06_09h36.54.467,Colour_Asymmetry_Pilot,2022.1.3,Win32,59.99520038,62c50e9c1127f2cd403a315f,0,43,43,33,1,onethree,,,,,,,,,,,,,,,,,,,,,,,,,,,,,,,,,,,,,,,,,,,,,,,,,,,,,,,,,,,,,,,,,,,,,,,,,,,,,,,,,,,,,,,,,,,,,,,,,,,,,,,,,,,,,,,,,,,,,,,,,,,,,,,,,,,,,,,,,,,,,,,,,,,,,,,,,,,,,
,,,,,,5f8836a5fb70462a169fc0ac,62c53a929b9a5a911048cfbd,2022-07-06_09h36.54.467,Colour_Asymmetry_Pilot,2022.1.3,Win32,59.99520038,62c50e9c1127f2cd403a315f,0,44,44,123,1,twofour,,,,,,,,,,,,,,,,,,,,,,,,,,,,,,,,,,,,,,,,,,,,,,,,,,,,,,,,,,,,,,,,,,,,,,,,,,,,,,,,,,,,,,,,,,,,,,,,,,,,,,,,,,,,,,,,,,,,,,,,,,,,,,,,,,,,,,,,,,,,,,,,,,,,,,,,,,,,,
,,,,,,5f8836a5fb70462a169fc0ac,62c53a929b9a5a911048cfbd,2022-07-06_09h36.54.467,Colour_Asymmetry_Pilot,2022.1.3,Win32,59.99520038,62c50e9c1127f2cd403a315f,0,45,45,9,1,onethree,,,,,,,,,,,,,,,,,,,,,,,,,,,,,,,,,,,,,,,,,,,,,,,,,,,,,,,,,,,,,,,,,,,,,,,,,,,,,,,,,,,,,,,,,,,,,,,,,,,,,,,,,,,,,,,,,,,,,,,,,,,,,,,,,,,,,,,,,,,,,,,,,,,,,,,,,,,,,
,,,,,,5f8836a5fb70462a169fc0ac,62c53a929b9a5a911048cfbd,2022-07-06_09h36.54.467,Colour_Asymmetry_Pilot,2022.1.3,Win32,59.99520038,62c50e9c1127f2cd403a315f,0,46,46,44,1,threeone,,,,,,,,,,,,,,,,,,,,,,,,,,,,,,,,,,,,,,,,,,,,,,,,,,,,,,,,,,,,,,,,,,,,,,,,,,,,,,,,,,,,,,,,,,,,,,,,,,,,,,,,,,,,,,,,,,,,,,,,,,,,,,,,,,,,,,,,,,,,,,,,,,,,,,,,,,,,,
,,,,,,5f8836a5fb70462a169fc0ac,62c53a929b9a5a911048cfbd,2022-07-06_09h36.54.467,Colour_Asymmetry_Pilot,2022.1.3,Win32,59.99520038,62c50e9c1127f2cd403a315f,0,47,47,58,1,twoone,,,,,,,,,,,,,,,,,,,,,,,,,,,,,,,,,,,,,,,,,,,,,,,,,,,,,,,,,,,,,,,,,,,,,,,,,,,,,,,,,,,,,,,,,,,,,,,,,,,,,,,,,,,,,,,,,,,,,,,,,,,,,,,,,,,,,,,,,,,,,,,,,,,,,,,,,,,,,
,,,,,,5f8836a5fb70462a169fc0ac,62c53a929b9a5a911048cfbd,2022-07-06_09h36.54.467,Colour_Asymmetry_Pilot,2022.1.3,Win32,59.99520038,62c50e9c1127f2cd403a315f,0,48,48,26,1,twoone,,,,,,,,,,,,,,,,,,,,,,,,,,,,,,,,,,,,,,,,,,,,,,,,,,,,,,,,,,,,,,,,,,,,,,,,,,,,,,,,,,,,,,,,,,,,,,,,,,,,,,,,,,,,,,,,,,,,,,,,,,,,,,,,,,,,,,,,,,,,,,,,,,,,,,,,,,,,,
,,,,,,5f8836a5fb70462a169fc0ac,62c53a929b9a5a911048cfbd,2022-07-06_09h36.54.467,Colour_Asymmetry_Pilot,2022.1.3,Win32,59.99520038,62c50e9c1127f2cd403a315f,0,49,49,61,1,threefour,,,,,,,,,,,,,,,,,,,,,,,,,,,,,,,,,,,,,,,,,,,,,,,,,,,,,,,,,,,,,,,,,,,,,,,,,,,,,,,,,,,,,,,,,,,,,,,,,,,,,,,,,,,,,,,,,,,,,,,,,,,,,,,,,,,,,,,,,,,,,,,,,,,,,,,,,,,,,
,,,,,,5f8836a5fb70462a169fc0ac,62c53a929b9a5a911048cfbd,2022-07-06_09h36.54.467,Colour_Asymmetry_Pilot,2022.1.3,Win32,59.99520038,62c50e9c1127f2cd403a315f,0,50,50,151,1,fourthree,,,,,,,,,,,,,,,,,,,,,,,,,,,,,,,,,,,,,,,,,,,,,,,,,,,,,,,,,,,,,,,,,,,,,,,,,,,,,,,,,,,,,,,,,,,,,,,,,,,,,,,,,,,,,,,,,,,,,,,,,,,,,,,,,,,,,,,,,,,,,,,,,,,,,,,,,,,,,
,,,,,,5f8836a5fb70462a169fc0ac,62c53a929b9a5a911048cfbd,2022-07-06_09h36.54.467,Colour_Asymmetry_Pilot,2022.1.3,Win32,59.99520038,62c50e9c1127f2cd403a315f,0,51,51,25,1,onethree,,,,,,,,,,,,,,,,,,,,,,,,,,,,,,,,,,,,,,,,,,,,,,,,,,,,,,,,,,,,,,,,,,,,,,,,,,,,,,,,,,,,,,,,,,,,,,,,,,,,,,,,,,,,,,,,,,,,,,,,,,,,,,,,,,,,,,,,,,,,,,,,,,,,,,,,,,,,,
,,,,,,5f8836a5fb70462a169fc0ac,62c53a929b9a5a911048cfbd,2022-07-06_09h36.54.467,Colour_Asymmetry_Pilot,2022.1.3,Win32,59.99520038,62c50e9c1127f2cd403a315f,0,52,52,66,1,twoone,,,,,,,,,,,,,,,,,,,,,,,,,,,,,,,,,,,,,,,,,,,,,,,,,,,,,,,,,,,,,,,,,,,,,,,,,,,,,,,,,,,,,,,,,,,,,,,,,,,,,,,,,,,,,,,,,,,,,,,,,,,,,,,,,,,,,,,,,,,,,,,,,,,,,,,,,,,,,
,,,,,,5f8836a5fb70462a169fc0ac,62c53a929b9a5a911048cfbd,2022-07-06_09h36.54.467,Colour_Asymmetry_Pilot,2022.1.3,Win32,59.99520038,62c50e9c1127f2cd403a315f,0,53,53,5,1,threefour,,,,,,,,,,,,,,,,,,,,,,,,,,,,,,,,,,,,,,,,,,,,,,,,,,,,,,,,,,,,,,,,,,,,,,,,,,,,,,,,,,,,,,,,,,,,,,,,,,,,,,,,,,,,,,,,,,,,,,,,,,,,,,,,,,,,,,,,,,,,,,,,,,,,,,,,,,,,,
,,,,,,5f8836a5fb70462a169fc0ac,62c53a929b9a5a911048cfbd,2022-07-06_09h36.54.467,Colour_Asymmetry_Pilot,2022.1.3,Win32,59.99520038,62c50e9c1127f2cd403a315f,0,54,54,29,1,threefour,,,,,,,,,,,,,,,,,,,,,,,,,,,,,,,,,,,,,,,,,,,,,,,,,,,,,,,,,,,,,,,,,,,,,,,,,,,,,,,,,,,,,,,,,,,,,,,,,,,,,,,,,,,,,,,,,,,,,,,,,,,,,,,,,,,,,,,,,,,,,,,,,,,,,,,,,,,,,
,,,,,,5f8836a5fb70462a169fc0ac,62c53a929b9a5a911048cfbd,2022-07-06_09h36.54.467,Colour_Asymmetry_Pilot,2022.1.3,Win32,59.99520038,62c50e9c1127f2cd403a315f,0,55,55,98,1,twoone,,,,,,,,,,,,,,,,,,,,,,,,,,,,,,,,,,,,,,,,,,,,,,,,,,,,,,,,,,,,,,,,,,,,,,,,,,,,,,,,,,,,,,,,,,,,,,,,,,,,,,,,,,,,,,,,,,,,,,,,,,,,,,,,,,,,,,,,,,,,,,,,,,,,,,,,,,,,,
,,,,,,5f8836a5fb70462a169fc0ac,62c53a929b9a5a911048cfbd,2022-07-06_09h36.54.467,Colour_Asymmetry_Pilot,2022.1.3,Win32,59.99520038,62c50e9c1127f2cd403a315f,0,56,56,77,1,threefour,,,,,,,,,,,,,,,,,,,,,,,,,,,,,,,,,,,,,,,,,,,,,,,,,,,,,,,,,,,,,,,,,,,,,,,,,,,,,,,,,,,,,,,,,,,,,,,,,,,,,,,,,,,,,,,,,,,,,,,,,,,,,,,,,,,,,,,,,,,,,,,,,,,,,,,,,,,,,
,,,,,,5f8836a5fb70462a169fc0ac,62c53a929b9a5a911048cfbd,2022-07-06_09h36.54.467,Colour_Asymmetry_Pilot,2022.1.3,Win32,59.99520038,62c50e9c1127f2cd403a315f,0,57,57,107,1,twofour,,,,,,,,,,,,,,,,,,,,,,,,,,,,,,,,,,,,,,,,,,,,,,,,,,,,,,,,,,,,,,,,,,,,,,,,,,,,,,,,,,,,,,,,,,,,,,,,,,,,,,,,,,,,,,,,,,,,,,,,,,,,,,,,,,,,,,,,,,,,,,,,,,,,,,,,,,,,,
,,,,,,5f8836a5fb70462a169fc0ac,62c53a929b9a5a911048cfbd,2022-07-06_09h36.54.467,Colour_Asymmetry_Pilot,2022.1.3,Win32,59.99520038,62c50e9c1127f2cd403a315f,0,58,58,82,1,twoone,,,,,,,,,,,,,,,,,,,,,,,,,,,,,,,,,,,,,,,,,,,,,,,,,,,,,,,,,,,,,,,,,,,,,,,,,,,,,,,,,,,,,,,,,,,,,,,,,,,,,,,,,,,,,,,,,,,,,,,,,,,,,,,,,,,,,,,,,,,,,,,,,,,,,,,,,,,,,
,,,,,,5f8836a5fb70462a169fc0ac,62c53a929b9a5a911048cfbd,2022-07-06_09h36.54.467,Colour_Asymmetry_Pilot,2022.1.3,Win32,59.99520038,62c50e9c1127f2cd403a315f,0,59,59,52,1,threeone,,,,,,,,,,,,,,,,,,,,,,,,,,,,,,,,,,,,,,,,,,,,,,,,,,,,,,,,,,,,,,,,,,,,,,,,,,,,,,,,,,,,,,,,,,,,,,,,,,,,,,,,,,,,,,,,,,,,,,,,,,,,,,,,,,,,,,,,,,,,,,,,,,,,,,,,,,,,,
,,,,,,5f8836a5fb70462a169fc0ac,62c53a929b9a5a911048cfbd,2022-07-06_09h36.54.467,Colour_Asymmetry_Pilot,2022.1.3,Win32,59.99520038,62c50e9c1127f2cd403a315f,0,60,60,120,1,onetwo,,,,,,,,,,,,,,,,,,,,,,,,,,,,,,,,,,,,,,,,,,,,,,,,,,,,,,,,,,,,,,,,,,,,,,,,,,,,,,,,,,,,,,,,,,,,,,,,,,,,,,,,,,,,,,,,,,,,,,,,,,,,,,,,,,,,,,,,,,,,,,,,,,,,,,,,,,,,,
,,,,,,5f8836a5fb70462a169fc0ac,62c53a929b9a5a911048cfbd,2022-07-06_09h36.54.467,Colour_Asymmetry_Pilot,2022.1.3,Win32,59.99520038,62c50e9c1127f2cd403a315f,0,61,61,92,1,threeone,,,,,,,,,,,,,,,,,,,,,,,,,,,,,,,,,,,,,,,,,,,,,,,,,,,,,,,,,,,,,,,,,,,,,,,,,,,,,,,,,,,,,,,,,,,,,,,,,,,,,,,,,,,,,,,,,,,,,,,,,,,,,,,,,,,,,,,,,,,,,,,,,,,,,,,,,,,,,
,,,,,,5f8836a5fb70462a169fc0ac,62c53a929b9a5a911048cfbd,2022-07-06_09h36.54.467,Colour_Asymmetry_Pilot,2022.1.3,Win32,59.99520038,62c50e9c1127f2cd403a315f,0,62,62,56,1,onetwo,,,,,,,,,,,,,,,,,,,,,,,,,,,,,,,,,,,,,,,,,,,,,,,,,,,,,,,,,,,,,,,,,,,,,,,,,,,,,,,,,,,,,,,,,,,,,,,,,,,,,,,,,,,,,,,,,,,,,,,,,,,,,,,,,,,,,,,,,,,,,,,,,,,,,,,,,,,,,
,,,,,,5f8836a5fb70462a169fc0ac,62c53a929b9a5a911048cfbd,2022-07-06_09h36.54.467,Colour_Asymmetry_Pilot,2022.1.3,Win32,59.99520038,62c50e9c1127f2cd403a315f,0,63,63,148,1,threeone,,,,,,,,,,,,,,,,,,,,,,,,,,,,,,,,,,,,,,,,,,,,,,,,,,,,,,,,,,,,,,,,,,,,,,,,,,,,,,,,,,,,,,,,,,,,,,,,,,,,,,,,,,,,,,,,,,,,,,,,,,,,,,,,,,,,,,,,,,,,,,,,,,,,,,,,,,,,,
,,,,,,5f8836a5fb70462a169fc0ac,62c53a929b9a5a911048cfbd,2022-07-06_09h36.54.467,Colour_Asymmetry_Pilot,2022.1.3,Win32,59.99520038,62c50e9c1127f2cd403a315f,0,64,64,105,1,onethree,,,,,,,,,,,,,,,,,,,,,,,,,,,,,,,,,,,,,,,,,,,,,,,,,,,,,,,,,,,,,,,,,,,,,,,,,,,,,,,,,,,,,,,,,,,,,,,,,,,,,,,,,,,,,,,,,,,,,,,,,,,,,,,,,,,,,,,,,,,,,,,,,,,,,,,,,,,,,
,,,,,,5f8836a5fb70462a169fc0ac,62c53a929b9a5a911048cfbd,2022-07-06_09h36.54.467,Colour_Asymmetry_Pilot,2022.1.3,Win32,59.99520038,62c50e9c1127f2cd403a315f,0,65,65,74,1,twoone,,,,,,,,,,,,,,,,,,,,,,,,,,,,,,,,,,,,,,,,,,,,,,,,,,,,,,,,,,,,,,,,,,,,,,,,,,,,,,,,,,,,,,,,,,,,,,,,,,,,,,,,,,,,,,,,,,,,,,,,,,,,,,,,,,,,,,,,,,,,,,,,,,,,,,,,,,,,,
,,,,,,5f8836a5fb70462a169fc0ac,62c53a929b9a5a911048cfbd,2022-07-06_09h36.54.467,Colour_Asymmetry_Pilot,2022.1.3,Win32,59.99520038,62c50e9c1127f2cd403a315f,0,66,66,101,1,threefour,,,,,,,,,,,,,,,,,,,,,,,,,,,,,,,,,,,,,,,,,,,,,,,,,,,,,,,,,,,,,,,,,,,,,,,,,,,,,,,,,,,,,,,,,,,,,,,,,,,,,,,,,,,,,,,,,,,,,,,,,,,,,,,,,,,,,,,,,,,,,,,,,,,,,,,,,,,,,
,,,,,,5f8836a5fb70462a169fc0ac,62c53a929b9a5a911048cfbd,2022-07-06_09h36.54.467,Colour_Asymmetry_Pilot,2022.1.3,Win32,59.99520038,62c50e9c1127f2cd403a315f,0,67,67,132,1,threeone,,,,,,,,,,,,,,,,,,,,,,,,,,,,,,,,,,,,,,,,,,,,,,,,,,,,,,,,,,,,,,,,,,,,,,,,,,,,,,,,,,,,,,,,,,,,,,,,,,,,,,,,,,,,,,,,,,,,,,,,,,,,,,,,,,,,,,,,,,,,,,,,,,,,,,,,,,,,,
,,,,,,5f8836a5fb70462a169fc0ac,62c53a929b9a5a911048cfbd,2022-07-06_09h36.54.467,Colour_Asymmetry_Pilot,2022.1.3,Win32,59.99520038,62c50e9c1127f2cd403a315f,0,68,68,96,1,onetwo,,,,,,,,,,,,,,,,,,,,,,,,,,,,,,,,,,,,,,,,,,,,,,,,,,,,,,,,,,,,,,,,,,,,,,,,,,,,,,,,,,,,,,,,,,,,,,,,,,,,,,,,,,,,,,,,,,,,,,,,,,,,,,,,,,,,,,,,,,,,,,,,,,,,,,,,,,,,,
,,,,,,5f8836a5fb70462a169fc0ac,62c53a929b9a5a911048cfbd,2022-07-06_09h36.54.467,Colour_Asymmetry_Pilot,2022.1.3,Win32,59.99520038,62c50e9c1127f2cd403a315f,0,69,69,75,1,twofour,,,,,,,,,,,,,,,,,,,,,,,,,,,,,,,,,,,,,,,,,,,,,,,,,,,,,,,,,,,,,,,,,,,,,,,,,,,,,,,,,,,,,,,,,,,,,,,,,,,,,,,,,,,,,,,,,,,,,,,,,,,,,,,,,,,,,,,,,,,,,,,,,,,,,,,,,,,,,
,,,,,,5f8836a5fb70462a169fc0ac,62c53a929b9a5a911048cfbd,2022-07-06_09h36.54.467,Colour_Asymmetry_Pilot,2022.1.3,Win32,59.99520038,62c50e9c1127f2cd403a315f,0,70,70,48,1,onetwo,,,,,,,,,,,,,,,,,,,,,,,,,,,,,,,,,,,,,,,,,,,,,,,,,,,,,,,,,,,,,,,,,,,,,,,,,,,,,,,,,,,,,,,,,,,,,,,,,,,,,,,,,,,,,,,,,,,,,,,,,,,,,,,,,,,,,,,,,,,,,,,,,,,,,,,,,,,,,
,,,,,,5f8836a5fb70462a169fc0ac,62c53a929b9a5a911048cfbd,2022-07-06_09h36.54.467,Colour_Asymmetry_Pilot,2022.1.3,Win32,59.99520038,62c50e9c1127f2cd403a315f,0,71,71,94,1,fourtwo,,,,,,,,,,,,,,,,,,,,,,,,,,,,,,,,,,,,,,,,,,,,,,,,,,,,,,,,,,,,,,,,,,,,,,,,,,,,,,,,,,,,,,,,,,,,,,,,,,,,,,,,,,,,,,,,,,,,,,,,,,,,,,,,,,,,,,,,,,,,,,,,,,,,,,,,,,,,,
,,,,,,5f8836a5fb70462a169fc0ac,62c53a929b9a5a911048cfbd,2022-07-06_09h36.54.467,Colour_Asymmetry_Pilot,2022.1.3,Win32,59.99520038,62c50e9c1127f2cd403a315f,0,72,72,109,1,threefour,,,,,,,,,,,,,,,,,,,,,,,,,,,,,,,,,,,,,,,,,,,,,,,,,,,,,,,,,,,,,,,,,,,,,,,,,,,,,,,,,,,,,,,,,,,,,,,,,,,,,,,,,,,,,,,,,,,,,,,,,,,,,,,,,,,,,,,,,,,,,,,,,,,,,,,,,,,,,
,,,,,,5f8836a5fb70462a169fc0ac,62c53a929b9a5a911048cfbd,2022-07-06_09h36.54.467,Colour_Asymmetry_Pilot,2022.1.3,Win32,59.99520038,62c50e9c1127f2cd403a315f,0,73,73,97,1,onethree,,,,,,,,,,,,,,,,,,,,,,,,,,,,,,,,,,,,,,,,,,,,,,,,,,,,,,,,,,,,,,,,,,,,,,,,,,,,,,,,,,,,,,,,,,,,,,,,,,,,,,,,,,,,,,,,,,,,,,,,,,,,,,,,,,,,,,,,,,,,,,,,,,,,,,,,,,,,,
,,,,,,5f8836a5fb70462a169fc0ac,62c53a929b9a5a911048cfbd,2022-07-06_09h36.54.467,Colour_Asymmetry_Pilot,2022.1.3,Win32,59.99520038,62c50e9c1127f2cd403a315f,0,74,74,67,1,twofour,,,,,,,,,,,,,,,,,,,,,,,,,,,,,,,,,,,,,,,,,,,,,,,,,,,,,,,,,,,,,,,,,,,,,,,,,,,,,,,,,,,,,,,,,,,,,,,,,,,,,,,,,,,,,,,,,,,,,,,,,,,,,,,,,,,,,,,,,,,,,,,,,,,,,,,,,,,,,
,,,,,,5f8836a5fb70462a169fc0ac,62c53a929b9a5a911048cfbd,2022-07-06_09h36.54.467,Colour_Asymmetry_Pilot,2022.1.3,Win32,59.99520038,62c50e9c1127f2cd403a315f,0,75,75,143,1,fourthree,,,,,,,,,,,,,,,,,,,,,,,,,,,,,,,,,,,,,,,,,,,,,,,,,,,,,,,,,,,,,,,,,,,,,,,,,,,,,,,,,,,,,,,,,,,,,,,,,,,,,,,,,,,,,,,,,,,,,,,,,,,,,,,,,,,,,,,,,,,,,,,,,,,,,,,,,,,,,
,,,,,,5f8836a5fb70462a169fc0ac,62c53a929b9a5a911048cfbd,2022-07-06_09h36.54.467,Colour_Asymmetry_Pilot,2022.1.3,Win32,59.99520038,62c50e9c1127f2cd403a315f,0,76,76,1,1,onethree,,,,,,,,,,,,,,,,,,,,,,,,,,,,,,,,,,,,,,,,,,,,,,,,,,,,,,,,,,,,,,,,,,,,,,,,,,,,,,,,,,,,,,,,,,,,,,,,,,,,,,,,,,,,,,,,,,,,,,,,,,,,,,,,,,,,,,,,,,,,,,,,,,,,,,,,,,,,,
,,,,,,5f8836a5fb70462a169fc0ac,62c53a929b9a5a911048cfbd,2022-07-06_09h36.54.467,Colour_Asymmetry_Pilot,2022.1.3,Win32,59.99520038,62c50e9c1127f2cd403a315f,0,77,77,129,1,onethree,,,,,,,,,,,,,,,,,,,,,,,,,,,,,,,,,,,,,,,,,,,,,,,,,,,,,,,,,,,,,,,,,,,,,,,,,,,,,,,,,,,,,,,,,,,,,,,,,,,,,,,,,,,,,,,,,,,,,,,,,,,,,,,,,,,,,,,,,,,,,,,,,,,,,,,,,,,,,
,,,,,,5f8836a5fb70462a169fc0ac,62c53a929b9a5a911048cfbd,2022-07-06_09h36.54.467,Colour_Asymmetry_Pilot,2022.1.3,Win32,59.99520038,62c50e9c1127f2cd403a315f,0,78,78,139,1,twofour,,,,,,,,,,,,,,,,,,,,,,,,,,,,,,,,,,,,,,,,,,,,,,,,,,,,,,,,,,,,,,,,,,,,,,,,,,,,,,,,,,,,,,,,,,,,,,,,,,,,,,,,,,,,,,,,,,,,,,,,,,,,,,,,,,,,,,,,,,,,,,,,,,,,,,,,,,,,,
,,,,,,5f8836a5fb70462a169fc0ac,62c53a929b9a5a911048cfbd,2022-07-06_09h36.54.467,Colour_Asymmetry_Pilot,2022.1.3,Win32,59.99520038,62c50e9c1127f2cd403a315f,0,79,79,27,1,twofour,,,,,,,,,,,,,,,,,,,,,,,,,,,,,,,,,,,,,,,,,,,,,,,,,,,,,,,,,,,,,,,,,,,,,,,,,,,,,,,,,,,,,,,,,,,,,,,,,,,,,,,,,,,,,,,,,,,,,,,,,,,,,,,,,,,,,,,,,,,,,,,,,,,,,,,,,,,,,
,,,,,,5f8836a5fb70462a169fc0ac,62c53a929b9a5a911048cfbd,2022-07-06_09h36.54.467,Colour_Asymmetry_Pilot,2022.1.3,Win32,59.99520038,62c50e9c1127f2cd403a315f,0,80,80,142,1,fourtwo,,,,,,,,,,,,,,,,,,,,,,,,,,,,,,,,,,,,,,,,,,,,,,,,,,,,,,,,,,,,,,,,,,,,,,,,,,,,,,,,,,,,,,,,,,,,,,,,,,,,,,,,,,,,,,,,,,,,,,,,,,,,,,,,,,,,,,,,,,,,,,,,,,,,,,,,,,,,,
,,,,,,5f8836a5fb70462a169fc0ac,62c53a929b9a5a911048cfbd,2022-07-06_09h36.54.467,Colour_Asymmetry_Pilot,2022.1.3,Win32,59.99520038,62c50e9c1127f2cd403a315f,0,81,81,72,1,onetwo,,,,,,,,,,,,,,,,,,,,,,,,,,,,,,,,,,,,,,,,,,,,,,,,,,,,,,,,,,,,,,,,,,,,,,,,,,,,,,,,,,,,,,,,,,,,,,,,,,,,,,,,,,,,,,,,,,,,,,,,,,,,,,,,,,,,,,,,,,,,,,,,,,,,,,,,,,,,,
,,,,,,5f8836a5fb70462a169fc0ac,62c53a929b9a5a911048cfbd,2022-07-06_09h36.54.467,Colour_Asymmetry_Pilot,2022.1.3,Win32,59.99520038,62c50e9c1127f2cd403a315f,0,82,82,104,1,onetwo,,,,,,,,,,,,,,,,,,,,,,,,,,,,,,,,,,,,,,,,,,,,,,,,,,,,,,,,,,,,,,,,,,,,,,,,,,,,,,,,,,,,,,,,,,,,,,,,,,,,,,,,,,,,,,,,,,,,,,,,,,,,,,,,,,,,,,,,,,,,,,,,,,,,,,,,,,,,,
,,,,,,5f8836a5fb70462a169fc0ac,62c53a929b9a5a911048cfbd,2022-07-06_09h36.54.467,Colour_Asymmetry_Pilot,2022.1.3,Win32,59.99520038,62c50e9c1127f2cd403a315f,0,83,83,23,1,fourthree,,,,,,,,,,,,,,,,,,,,,,,,,,,,,,,,,,,,,,,,,,,,,,,,,,,,,,,,,,,,,,,,,,,,,,,,,,,,,,,,,,,,,,,,,,,,,,,,,,,,,,,,,,,,,,,,,,,,,,,,,,,,,,,,,,,,,,,,,,,,,,,,,,,,,,,,,,,,,
,,,,,,5f8836a5fb70462a169fc0ac,62c53a929b9a5a911048cfbd,2022-07-06_09h36.54.467,Colour_Asymmetry_Pilot,2022.1.3,Win32,59.99520038,62c50e9c1127f2cd403a315f,0,84,84,116,1,threeone,,,,,,,,,,,,,,,,,,,,,,,,,,,,,,,,,,,,,,,,,,,,,,,,,,,,,,,,,,,,,,,,,,,,,,,,,,,,,,,,,,,,,,,,,,,,,,,,,,,,,,,,,,,,,,,,,,,,,,,,,,,,,,,,,,,,,,,,,,,,,,,,,,,,,,,,,,,,,
,,,,,,5f8836a5fb70462a169fc0ac,62c53a929b9a5a911048cfbd,2022-07-06_09h36.54.467,Colour_Asymmetry_Pilot,2022.1.3,Win32,59.99520038,62c50e9c1127f2cd403a315f,0,85,85,73,1,onethree,,,,,,,,,,,,,,,,,,,,,,,,,,,,,,,,,,,,,,,,,,,,,,,,,,,,,,,,,,,,,,,,,,,,,,,,,,,,,,,,,,,,,,,,,,,,,,,,,,,,,,,,,,,,,,,,,,,,,,,,,,,,,,,,,,,,,,,,,,,,,,,,,,,,,,,,,,,,,
,,,,,,5f8836a5fb70462a169fc0ac,62c53a929b9a5a911048cfbd,2022-07-06_09h36.54.467,Colour_Asymmetry_Pilot,2022.1.3,Win32,59.99520038,62c50e9c1127f2cd403a315f,0,86,86,157,1,threefour,,,,,,,,,,,,,,,,,,,,,,,,,,,,,,,,,,,,,,,,,,,,,,,,,,,,,,,,,,,,,,,,,,,,,,,,,,,,,,,,,,,,,,,,,,,,,,,,,,,,,,,,,,,,,,,,,,,,,,,,,,,,,,,,,,,,,,,,,,,,,,,,,,,,,,,,,,,,,
,,,,,,5f8836a5fb70462a169fc0ac,62c53a929b9a5a911048cfbd,2022-07-06_09h36.54.467,Colour_Asymmetry_Pilot,2022.1.3,Win32,59.99520038,62c50e9c1127f2cd403a315f,0,87,87,112,1,onetwo,,,,,,,,,,,,,,,,,,,,,,,,,,,,,,,,,,,,,,,,,,,,,,,,,,,,,,,,,,,,,,,,,,,,,,,,,,,,,,,,,,,,,,,,,,,,,,,,,,,,,,,,,,,,,,,,,,,,,,,,,,,,,,,,,,,,,,,,,,,,,,,,,,,,,,,,,,,,,
,,,,,,5f8836a5fb70462a169fc0ac,62c53a929b9a5a911048cfbd,2022-07-06_09h36.54.467,Colour_Asymmetry_Pilot,2022.1.3,Win32,59.99520038,62c50e9c1127f2cd403a315f,0,88,88,133,1,threefour,,,,,,,,,,,,,,,,,,,,,,,,,,,,,,,,,,,,,,,,,,,,,,,,,,,,,,,,,,,,,,,,,,,,,,,,,,,,,,,,,,,,,,,,,,,,,,,,,,,,,,,,,,,,,,,,,,,,,,,,,,,,,,,,,,,,,,,,,,,,,,,,,,,,,,,,,,,,,
,,,,,,5f8836a5fb70462a169fc0ac,62c53a929b9a5a911048cfbd,2022-07-06_09h36.54.467,Colour_Asymmetry_Pilot,2022.1.3,Win32,59.99520038,62c50e9c1127f2cd403a315f,0,89,89,11,1,twofour,,,,,,,,,,,,,,,,,,,,,,,,,,,,,,,,,,,,,,,,,,,,,,,,,,,,,,,,,,,,,,,,,,,,,,,,,,,,,,,,,,,,,,,,,,,,,,,,,,,,,,,,,,,,,,,,,,,,,,,,,,,,,,,,,,,,,,,,,,,,,,,,,,,,,,,,,,,,,
,,,,,,5f8836a5fb70462a169fc0ac,62c53a929b9a5a911048cfbd,2022-07-06_09h36.54.467,Colour_Asymmetry_Pilot,2022.1.3,Win32,59.99520038,62c50e9c1127f2cd403a315f,0,90,90,57,1,onethree,,,,,,,,,,,,,,,,,,,,,,,,,,,,,,,,,,,,,,,,,,,,,,,,,,,,,,,,,,,,,,,,,,,,,,,,,,,,,,,,,,,,,,,,,,,,,,,,,,,,,,,,,,,,,,,,,,,,,,,,,,,,,,,,,,,,,,,,,,,,,,,,,,,,,,,,,,,,,
,,,,,,5f8836a5fb70462a169fc0ac,62c53a929b9a5a911048cfbd,2022-07-06_09h36.54.467,Colour_Asymmetry_Pilot,2022.1.3,Win32,59.99520038,62c50e9c1127f2cd403a315f,0,91,91,15,1,fourthree,,,,,,,,,,,,,,,,,,,,,,,,,,,,,,,,,,,,,,,,,,,,,,,,,,,,,,,,,,,,,,,,,,,,,,,,,,,,,,,,,,,,,,,,,,,,,,,,,,,,,,,,,,,,,,,,,,,,,,,,,,,,,,,,,,,,,,,,,,,,,,,,,,,,,,,,,,,,,
,,,,,,5f8836a5fb70462a169fc0ac,62c53a929b9a5a911048cfbd,2022-07-06_09h36.54.467,Colour_Asymmetry_Pilot,2022.1.3,Win32,59.99520038,62c50e9c1127f2cd403a315f,0,92,92,103,1,fourthree,,,,,,,,,,,,,,,,,,,,,,,,,,,,,,,,,,,,,,,,,,,,,,,,,,,,,,,,,,,,,,,,,,,,,,,,,,,,,,,,,,,,,,,,,,,,,,,,,,,,,,,,,,,,,,,,,,,,,,,,,,,,,,,,,,,,,,,,,,,,,,,,,,,,,,,,,,,,,
,,,,,,5f8836a5fb70462a169fc0ac,62c53a929b9a5a911048cfbd,2022-07-06_09h36.54.467,Colour_Asymmetry_Pilot,2022.1.3,Win32,59.99520038,62c50e9c1127f2cd403a315f,0,93,93,30,1,fourtwo,,,,,,,,,,,,,,,,,,,,,,,,,,,,,,,,,,,,,,,,,,,,,,,,,,,,,,,,,,,,,,,,,,,,,,,,,,,,,,,,,,,,,,,,,,,,,,,,,,,,,,,,,,,,,,,,,,,,,,,,,,,,,,,,,,,,,,,,,,,,,,,,,,,,,,,,,,,,,
,,,,,,5f8836a5fb70462a169fc0ac,62c53a929b9a5a911048cfbd,2022-07-06_09h36.54.467,Colour_Asymmetry_Pilot,2022.1.3,Win32,59.99520038,62c50e9c1127f2cd403a315f,0,94,94,36,1,threeone,,,,,,,,,,,,,,,,,,,,,,,,,,,,,,,,,,,,,,,,,,,,,,,,,,,,,,,,,,,,,,,,,,,,,,,,,,,,,,,,,,,,,,,,,,,,,,,,,,,,,,,,,,,,,,,,,,,,,,,,,,,,,,,,,,,,,,,,,,,,,,,,,,,,,,,,,,,,,
,,,,,,5f8836a5fb70462a169fc0ac,62c53a929b9a5a911048cfbd,2022-07-06_09h36.54.467,Colour_Asymmetry_Pilot,2022.1.3,Win32,59.99520038,62c50e9c1127f2cd403a315f,0,95,95,63,1,fourthree,,,,,,,,,,,,,,,,,,,,,,,,,,,,,,,,,,,,,,,,,,,,,,,,,,,,,,,,,,,,,,,,,,,,,,,,,,,,,,,,,,,,,,,,,,,,,,,,,,,,,,,,,,,,,,,,,,,,,,,,,,,,,,,,,,,,,,,,,,,,,,,,,,,,,,,,,,,,,
,,,,,,5f8836a5fb70462a169fc0ac,62c53a929b9a5a911048cfbd,2022-07-06_09h36.54.467,Colour_Asymmetry_Pilot,2022.1.3,Win32,59.99520038,62c50e9c1127f2cd403a315f,0,96,96,7,1,fourthree,,,,,,,,,,,,,,,,,,,,,,,,,,,,,,,,,,,,,,,,,,,,,,,,,,,,,,,,,,,,,,,,,,,,,,,,,,,,,,,,,,,,,,,,,,,,,,,,,,,,,,,,,,,,,,,,,,,,,,,,,,,,,,,,,,,,,,,,,,,,,,,,,,,,,,,,,,,,,
,,,,,,5f8836a5fb70462a169fc0ac,62c53a929b9a5a911048cfbd,2022-07-06_09h36.54.467,Colour_Asymmetry_Pilot,2022.1.3,Win32,59.99520038,62c50e9c1127f2cd403a315f,0,97,97,134,1,fourtwo,,,,,,,,,,,,,,,,,,,,,,,,,,,,,,,,,,,,,,,,,,,,,,,,,,,,,,,,,,,,,,,,,,,,,,,,,,,,,,,,,,,,,,,,,,,,,,,,,,,,,,,,,,,,,,,,,,,,,,,,,,,,,,,,,,,,,,,,,,,,,,,,,,,,,,,,,,,,,
,,,,,,5f8836a5fb70462a169fc0ac,62c53a929b9a5a911048cfbd,2022-07-06_09h36.54.467,Colour_Asymmetry_Pilot,2022.1.3,Win32,59.99520038,62c50e9c1127f2cd403a315f,0,98,98,43,1,twofour,,,,,,,,,,,,,,,,,,,,,,,,,,,,,,,,,,,,,,,,,,,,,,,,,,,,,,,,,,,,,,,,,,,,,,,,,,,,,,,,,,,,,,,,,,,,,,,,,,,,,,,,,,,,,,,,,,,,,,,,,,,,,,,,,,,,,,,,,,,,,,,,,,,,,,,,,,,,,
,,,,,,5f8836a5fb70462a169fc0ac,62c53a929b9a5a911048cfbd,2022-07-06_09h36.54.467,Colour_Asymmetry_Pilot,2022.1.3,Win32,59.99520038,62c50e9c1127f2cd403a315f,0,99,99,42,1,twoone,,,,,,,,,,,,,,,,,,,,,,,,,,,,,,,,,,,,,,,,,,,,,,,,,,,,,,,,,,,,,,,,,,,,,,,,,,,,,,,,,,,,,,,,,,,,,,,,,,,,,,,,,,,,,,,,,,,,,,,,,,,,,,,,,,,,,,,,,,,,,,,,,,,,,,,,,,,,,
,,,,,,5f8836a5fb70462a169fc0ac,62c53a929b9a5a911048cfbd,2022-07-06_09h36.54.467,Colour_Asymmetry_Pilot,2022.1.3,Win32,59.99520038,62c50e9c1127f2cd403a315f,0,100,100,88,1,onetwo,,,,,,,,,,,,,,,,,,,,,,,,,,,,,,,,,,,,,,,,,,,,,,,,,,,,,,,,,,,,,,,,,,,,,,,,,,,,,,,,,,,,,,,,,,,,,,,,,,,,,,,,,,,,,,,,,,,,,,,,,,,,,,,,,,,,,,,,,,,,,,,,,,,,,,,,,,,,,
,,,,,,5f8836a5fb70462a169fc0ac,62c53a929b9a5a911048cfbd,2022-07-06_09h36.54.467,Colour_Asymmetry_Pilot,2022.1.3,Win32,59.99520038,62c50e9c1127f2cd403a315f,0,101,101,126,1,fourtwo,,,,,,,,,,,,,,,,,,,,,,,,,,,,,,,,,,,,,,,,,,,,,,,,,,,,,,,,,,,,,,,,,,,,,,,,,,,,,,,,,,,,,,,,,,,,,,,,,,,,,,,,,,,,,,,,,,,,,,,,,,,,,,,,,,,,,,,,,,,,,,,,,,,,,,,,,,,,,
,,,,,,5f8836a5fb70462a169fc0ac,62c53a929b9a5a911048cfbd,2022-07-06_09h36.54.467,Colour_Asymmetry_Pilot,2022.1.3,Win32,59.99520038,62c50e9c1127f2cd403a315f,0,102,102,59,1,twofour,,,,,,,,,,,,,,,,,,,,,,,,,,,,,,,,,,,,,,,,,,,,,,,,,,,,,,,,,,,,,,,,,,,,,,,,,,,,,,,,,,,,,,,,,,,,,,,,,,,,,,,,,,,,,,,,,,,,,,,,,,,,,,,,,,,,,,,,,,,,,,,,,,,,,,,,,,,,,
,,,,,,5f8836a5fb70462a169fc0ac,62c53a929b9a5a911048cfbd,2022-07-06_09h36.54.467,Colour_Asymmetry_Pilot,2022.1.3,Win32,59.99520038,62c50e9c1127f2cd403a315f,0,103,103,131,1,twofour,,,,,,,,,,,,,,,,,,,,,,,,,,,,,,,,,,,,,,,,,,,,,,,,,,,,,,,,,,,,,,,,,,,,,,,,,,,,,,,,,,,,,,,,,,,,,,,,,,,,,,,,,,,,,,,,,,,,,,,,,,,,,,,,,,,,,,,,,,,,,,,,,,,,,,,,,,,,,
,,,,,,5f8836a5fb70462a169fc0ac,62c53a929b9a5a911048cfbd,2022-07-06_09h36.54.467,Colour_Asymmetry_Pilot,2022.1.3,Win32,59.99520038,62c50e9c1127f2cd403a315f,0,104,104,119,1,fourthree,,,,,,,,,,,,,,,,,,,,,,,,,,,,,,,,,,,,,,,,,,,,,,,,,,,,,,,,,,,,,,,,,,,,,,,,,,,,,,,,,,,,,,,,,,,,,,,,,,,,,,,,,,,,,,,,,,,,,,,,,,,,,,,,,,,,,,,,,,,,,,,,,,,,,,,,,,,,,
,,,,,,5f8836a5fb70462a169fc0ac,62c53a929b9a5a911048cfbd,2022-07-06_09h36.54.467,Colour_Asymmetry_Pilot,2022.1.3,Win32,59.99520038,62c50e9c1127f2cd403a315f,0,105,105,54,1,fourtwo,,,,,,,,,,,,,,,,,,,,,,,,,,,,,,,,,,,,,,,,,,,,,,,,,,,,,,,,,,,,,,,,,,,,,,,,,,,,,,,,,,,,,,,,,,,,,,,,,,,,,,,,,,,,,,,,,,,,,,,,,,,,,,,,,,,,,,,,,,,,,,,,,,,,,,,,,,,,,
,,,,,,5f8836a5fb70462a169fc0ac,62c53a929b9a5a911048cfbd,2022-07-06_09h36.54.467,Colour_Asymmetry_Pilot,2022.1.3,Win32,59.99520038,62c50e9c1127f2cd403a315f,0,106,106,99,1,twofour,,,,,,,,,,,,,,,,,,,,,,,,,,,,,,,,,,,,,,,,,,,,,,,,,,,,,,,,,,,,,,,,,,,,,,,,,,,,,,,,,,,,,,,,,,,,,,,,,,,,,,,,,,,,,,,,,,,,,,,,,,,,,,,,,,,,,,,,,,,,,,,,,,,,,,,,,,,,,
,,,,,,5f8836a5fb70462a169fc0ac,62c53a929b9a5a911048cfbd,2022-07-06_09h36.54.467,Colour_Asymmetry_Pilot,2022.1.3,Win32,59.99520038,62c50e9c1127f2cd403a315f,0,107,107,111,1,fourthree,,,,,,,,,,,,,,,,,,,,,,,,,,,,,,,,,,,,,,,,,,,,,,,,,,,,,,,,,,,,,,,,,,,,,,,,,,,,,,,,,,,,,,,,,,,,,,,,,,,,,,,,,,,,,,,,,,,,,,,,,,,,,,,,,,,,,,,,,,,,,,,,,,,,,,,,,,,,,
,,,,,,5f8836a5fb70462a169fc0ac,62c53a929b9a5a911048cfbd,2022-07-06_09h36.54.467,Colour_Asymmetry_Pilot,2022.1.3,Win32,59.99520038,62c50e9c1127f2cd403a315f,0,108,108,6,1,fourtwo,,,,,,,,,,,,,,,,,,,,,,,,,,,,,,,,,,,,,,,,,,,,,,,,,,,,,,,,,,,,,,,,,,,,,,,,,,,,,,,,,,,,,,,,,,,,,,,,,,,,,,,,,,,,,,,,,,,,,,,,,,,,,,,,,,,,,,,,,,,,,,,,,,,,,,,,,,,,,
,,,,,,5f8836a5fb70462a169fc0ac,62c53a929b9a5a911048cfbd,2022-07-06_09h36.54.467,Colour_Asymmetry_Pilot,2022.1.3,Win32,59.99520038,62c50e9c1127f2cd403a315f,0,109,109,39,1,fourthree,,,,,,,,,,,,,,,,,,,,,,,,,,,,,,,,,,,,,,,,,,,,,,,,,,,,,,,,,,,,,,,,,,,,,,,,,,,,,,,,,,,,,,,,,,,,,,,,,,,,,,,,,,,,,,,,,,,,,,,,,,,,,,,,,,,,,,,,,,,,,,,,,,,,,,,,,,,,,
,,,,,,5f8836a5fb70462a169fc0ac,62c53a929b9a5a911048cfbd,2022-07-06_09h36.54.467,Colour_Asymmetry_Pilot,2022.1.3,Win32,59.99520038,62c50e9c1127f2cd403a315f,0,110,110,34,1,twoone,,,,,,,,,,,,,,,,,,,,,,,,,,,,,,,,,,,,,,,,,,,,,,,,,,,,,,,,,,,,,,,,,,,,,,,,,,,,,,,,,,,,,,,,,,,,,,,,,,,,,,,,,,,,,,,,,,,,,,,,,,,,,,,,,,,,,,,,,,,,,,,,,,,,,,,,,,,,,
,,,,,,5f8836a5fb70462a169fc0ac,62c53a929b9a5a911048cfbd,2022-07-06_09h36.54.467,Colour_Asymmetry_Pilot,2022.1.3,Win32,59.99520038,62c50e9c1127f2cd403a315f,0,111,111,32,1,onetwo,,,,,,,,,,,,,,,,,,,,,,,,,,,,,,,,,,,,,,,,,,,,,,,,,,,,,,,,,,,,,,,,,,,,,,,,,,,,,,,,,,,,,,,,,,,,,,,,,,,,,,,,,,,,,,,,,,,,,,,,,,,,,,,,,,,,,,,,,,,,,,,,,,,,,,,,,,,,,
,,,,,,5f8836a5fb70462a169fc0ac,62c53a929b9a5a911048cfbd,2022-07-06_09h36.54.467,Colour_Asymmetry_Pilot,2022.1.3,Win32,59.99520038,62c50e9c1127f2cd403a315f,0,112,112,125,1,threefour,,,,,,,,,,,,,,,,,,,,,,,,,,,,,,,,,,,,,,,,,,,,,,,,,,,,,,,,,,,,,,,,,,,,,,,,,,,,,,,,,,,,,,,,,,,,,,,,,,,,,,,,,,,,,,,,,,,,,,,,,,,,,,,,,,,,,,,,,,,,,,,,,,,,,,,,,,,,,
,,,,,,5f8836a5fb70462a169fc0ac,62c53a929b9a5a911048cfbd,2022-07-06_09h36.54.467,Colour_Asymmetry_Pilot,2022.1.3,Win32,59.99520038,62c50e9c1127f2cd403a315f,0,113,113,110,1,fourtwo,,,,,,,,,,,,,,,,,,,,,,,,,,,,,,,,,,,,,,,,,,,,,,,,,,,,,,,,,,,,,,,,,,,,,,,,,,,,,,,,,,,,,,,,,,,,,,,,,,,,,,,,,,,,,,,,,,,,,,,,,,,,,,,,,,,,,,,,,,,,,,,,,,,,,,,,,,,,,
,,,,,,5f8836a5fb70462a169fc0ac,62c53a929b9a5a911048cfbd,2022-07-06_09h36.54.467,Colour_Asymmetry_Pilot,2022.1.3,Win32,59.99520038,62c50e9c1127f2cd403a315f,0,114,114,137,1,onethree,,,,,,,,,,,,,,,,,,,,,,,,,,,,,,,,,,,,,,,,,,,,,,,,,,,,,,,,,,,,,,,,,,,,,,,,,,,,,,,,,,,,,,,,,,,,,,,,,,,,,,,,,,,,,,,,,,,,,,,,,,,,,,,,,,,,,,,,,,,,,,,,,,,,,,,,,,,,,
,,,,,,5f8836a5fb70462a169fc0ac,62c53a929b9a5a911048cfbd,2022-07-06_09h36.54.467,Colour_Asymmetry_Pilot,2022.1.3,Win32,59.99520038,62c50e9c1127f2cd403a315f,0,115,115,2,1,twoone,,,,,,,,,,,,,,,,,,,,,,,,,,,,,,,,,,,,,,,,,,,,,,,,,,,,,,,,,,,,,,,,,,,,,,,,,,,,,,,,,,,,,,,,,,,,,,,,,,,,,,,,,,,,,,,,,,,,,,,,,,,,,,,,,,,,,,,,,,,,,,,,,,,,,,,,,,,,,
,,,,,,5f8836a5fb70462a169fc0ac,62c53a929b9a5a911048cfbd,2022-07-06_09h36.54.467,Colour_Asymmetry_Pilot,2022.1.3,Win32,59.99520038,62c50e9c1127f2cd403a315f,0,116,116,47,1,fourthree,,,,,,,,,,,,,,,,,,,,,,,,,,,,,,,,,,,,,,,,,,,,,,,,,,,,,,,,,,,,,,,,,,,,,,,,,,,,,,,,,,,,,,,,,,,,,,,,,,,,,,,,,,,,,,,,,,,,,,,,,,,,,,,,,,,,,,,,,,,,,,,,,,,,,,,,,,,,,
,,,,,,5f8836a5fb70462a169fc0ac,62c53a929b9a5a911048cfbd,2022-07-06_09h36.54.467,Colour_Asymmetry_Pilot,2022.1.3,Win32,59.99520038,62c50e9c1127f2cd403a315f,0,117,117,70,1,fourtwo,,,,,,,,,,,,,,,,,,,,,,,,,,,,,,,,,,,,,,,,,,,,,,,,,,,,,,,,,,,,,,,,,,,,,,,,,,,,,,,,,,,,,,,,,,,,,,,,,,,,,,,,,,,,,,,,,,,,,,,,,,,,,,,,,,,,,,,,,,,,,,,,,,,,,,,,,,,,,
,,,,,,5f8836a5fb70462a169fc0ac,62c53a929b9a5a911048cfbd,2022-07-06_09h36.54.467,Colour_Asymmetry_Pilot,2022.1.3,Win32,59.99520038,62c50e9c1127f2cd403a315f,0,118,118,85,1,threefour,,,,,,,,,,,,,,,,,,,,,,,,,,,,,,,,,,,,,,,,,,,,,,,,,,,,,,,,,,,,,,,,,,,,,,,,,,,,,,,,,,,,,,,,,,,,,,,,,,,,,,,,,,,,,,,,,,,,,,,,,,,,,,,,,,,,,,,,,,,,,,,,,,,,,,,,,,,,,
,,,,,,5f8836a5fb70462a169fc0ac,62c53a929b9a5a911048cfbd,2022-07-06_09h36.54.467,Colour_Asymmetry_Pilot,2022.1.3,Win32,59.99520038,62c50e9c1127f2cd403a315f,0,119,119,153,1,onethree,,,,,,,,,,,,,,,,,,,,,,,,,,,,,,,,,,,,,,,,,,,,,,,,,,,,,,,,,,,,,,,,,,,,,,,,,,,,,,,,,,,,,,,,,,,,,,,,,,,,,,,,,,,,,,,,,,,,,,,,,,,,,,,,,,,,,,,,,,,,,,,,,,,,,,,,,,,,,
,,,,,,5f8836a5fb70462a169fc0ac,62c53a929b9a5a911048cfbd,2022-07-06_09h36.54.467,Colour_Asymmetry_Pilot,2022.1.3,Win32,59.99520038,62c50e9c1127f2cd403a315f,0,120,120,102,1,fourtwo,,,,,,,,,,,,,,,,,,,,,,,,,,,,,,,,,,,,,,,,,,,,,,,,,,,,,,,,,,,,,,,,,,,,,,,,,,,,,,,,,,,,,,,,,,,,,,,,,,,,,,,,,,,,,,,,,,,,,,,,,,,,,,,,,,,,,,,,,,,,,,,,,,,,,,,,,,,,,
,,,,,,5f8836a5fb70462a169fc0ac,62c53a929b9a5a911048cfbd,2022-07-06_09h36.54.467,Colour_Asymmetry_Pilot,2022.1.3,Win32,59.99520038,62c50e9c1127f2cd403a315f,0,121,121,124,1,threeone,,,,,,,,,,,,,,,,,,,,,,,,,,,,,,,,,,,,,,,,,,,,,,,,,,,,,,,,,,,,,,,,,,,,,,,,,,,,,,,,,,,,,,,,,,,,,,,,,,,,,,,,,,,,,,,,,,,,,,,,,,,,,,,,,,,,,,,,,,,,,,,,,,,,,,,,,,,,,
,,,,,,5f8836a5fb70462a169fc0ac,62c53a929b9a5a911048cfbd,2022-07-06_09h36.54.467,Colour_Asymmetry_Pilot,2022.1.3,Win32,59.99520038,62c50e9c1127f2cd403a315f,0,122,122,95,1,fourthree,,,,,,,,,,,,,,,,,,,,,,,,,,,,,,,,,,,,,,,,,,,,,,,,,,,,,,,,,,,,,,,,,,,,,,,,,,,,,,,,,,,,,,,,,,,,,,,,,,,,,,,,,,,,,,,,,,,,,,,,,,,,,,,,,,,,,,,,,,,,,,,,,,,,,,,,,,,,,
,,,,,,5f8836a5fb70462a169fc0ac,62c53a929b9a5a911048cfbd,2022-07-06_09h36.54.467,Colour_Asymmetry_Pilot,2022.1.3,Win32,59.99520038,62c50e9c1127f2cd403a315f,0,123,123,12,1,threeone,,,,,,,,,,,,,,,,,,,,,,,,,,,,,,,,,,,,,,,,,,,,,,,,,,,,,,,,,,,,,,,,,,,,,,,,,,,,,,,,,,,,,,,,,,,,,,,,,,,,,,,,,,,,,,,,,,,,,,,,,,,,,,,,,,,,,,,,,,,,,,,,,,,,,,,,,,,,,
,,,,,,5f8836a5fb70462a169fc0ac,62c53a929b9a5a911048cfbd,2022-07-06_09h36.54.467,Colour_Asymmetry_Pilot,2022.1.3,Win32,59.99520038,62c50e9c1127f2cd403a315f,0,124,124,135,1,fourthree,,,,,,,,,,,,,,,,,,,,,,,,,,,,,,,,,,,,,,,,,,,,,,,,,,,,,,,,,,,,,,,,,,,,,,,,,,,,,,,,,,,,,,,,,,,,,,,,,,,,,,,,,,,,,,,,,,,,,,,,,,,,,,,,,,,,,,,,,,,,,,,,,,,,,,,,,,,,,
,,,,,,5f8836a5fb70462a169fc0ac,62c53a929b9a5a911048cfbd,2022-07-06_09h36.54.467,Colour_Asymmetry_Pilot,2022.1.3,Win32,59.99520038,62c50e9c1127f2cd403a315f,0,125,125,114,1,twoone,,,,,,,,,,,,,,,,,,,,,,,,,,,,,,,,,,,,,,,,,,,,,,,,,,,,,,,,,,,,,,,,,,,,,,,,,,,,,,,,,,,,,,,,,,,,,,,,,,,,,,,,,,,,,,,,,,,,,,,,,,,,,,,,,,,,,,,,,,,,,,,,,,,,,,,,,,,,,
,,,,,,5f8836a5fb70462a169fc0ac,62c53a929b9a5a911048cfbd,2022-07-06_09h36.54.467,Colour_Asymmetry_Pilot,2022.1.3,Win32,59.99520038,62c50e9c1127f2cd403a315f,0,126,126,28,1,threeone,,,,,,,,,,,,,,,,,,,,,,,,,,,,,,,,,,,,,,,,,,,,,,,,,,,,,,,,,,,,,,,,,,,,,,,,,,,,,,,,,,,,,,,,,,,,,,,,,,,,,,,,,,,,,,,,,,,,,,,,,,,,,,,,,,,,,,,,,,,,,,,,,,,,,,,,,,,,,
,,,,,,5f8836a5fb70462a169fc0ac,62c53a929b9a5a911048cfbd,2022-07-06_09h36.54.467,Colour_Asymmetry_Pilot,2022.1.3,Win32,59.99520038,62c50e9c1127f2cd403a315f,0,127,127,91,1,twofour,,,,,,,,,,,,,,,,,,,,,,,,,,,,,,,,,,,,,,,,,,,,,,,,,,,,,,,,,,,,,,,,,,,,,,,,,,,,,,,,,,,,,,,,,,,,,,,,,,,,,,,,,,,,,,,,,,,,,,,,,,,,,,,,,,,,,,,,,,,,,,,,,,,,,,,,,,,,,
,,,,,,5f8836a5fb70462a169fc0ac,62c53a929b9a5a911048cfbd,2022-07-06_09h36.54.467,Colour_Asymmetry_Pilot,2022.1.3,Win32,59.99520038,62c50e9c1127f2cd403a315f,0,128,128,37,1,threefour,,,,,,,,,,,,,,,,,,,,,,,,,,,,,,,,,,,,,,,,,,,,,,,,,,,,,,,,,,,,,,,,,,,,,,,,,,,,,,,,,,,,,,,,,,,,,,,,,,,,,,,,,,,,,,,,,,,,,,,,,,,,,,,,,,,,,,,,,,,,,,,,,,,,,,,,,,,,,
,,,,,,5f8836a5fb70462a169fc0ac,62c53a929b9a5a911048cfbd,2022-07-06_09h36.54.467,Colour_Asymmetry_Pilot,2022.1.3,Win32,59.99520038,62c50e9c1127f2cd403a315f,0,129,129,161,1,onethree,,,,,,,,,,,,,,,,,,,,,,,,,,,,,,,,,,,,,,,,,,,,,,,,,,,,,,,,,,,,,,,,,,,,,,,,,,,,,,,,,,,,,,,,,,,,,,,,,,,,,,,,,,,,,,,,,,,,,,,,,,,,,,,,,,,,,,,,,,,,,,,,,,,,,,,,,,,,,
,,,,,,5f8836a5fb70462a169fc0ac,62c53a929b9a5a911048cfbd,2022-07-06_09h36.54.467,Colour_Asymmetry_Pilot,2022.1.3,Win32,59.99520038,62c50e9c1127f2cd403a315f,0,130,130,71,1,fourthree,,,,,,,,,,,,,,,,,,,,,,,,,,,,,,,,,,,,,,,,,,,,,,,,,,,,,,,,,,,,,,,,,,,,,,,,,,,,,,,,,,,,,,,,,,,,,,,,,,,,,,,,,,,,,,,,,,,,,,,,,,,,,,,,,,,,,,,,,,,,,,,,,,,,,,,,,,,,,
,,,,,,5f8836a5fb70462a169fc0ac,62c53a929b9a5a911048cfbd,2022-07-06_09h36.54.467,Colour_Asymmetry_Pilot,2022.1.3,Win32,59.99520038,62c50e9c1127f2cd403a315f,0,131,131,128,1,onetwo,,,,,,,,,,,,,,,,,,,,,,,,,,,,,,,,,,,,,,,,,,,,,,,,,,,,,,,,,,,,,,,,,,,,,,,,,,,,,,,,,,,,,,,,,,,,,,,,,,,,,,,,,,,,,,,,,,,,,,,,,,,,,,,,,,,,,,,,,,,,,,,,,,,,,,,,,,,,,
,,,,,,5f8836a5fb70462a169fc0ac,62c53a929b9a5a911048cfbd,2022-07-06_09h36.54.467,Colour_Asymmetry_Pilot,2022.1.3,Win32,59.99520038,62c50e9c1127f2cd403a315f,0,132,132,50,1,twoone,,,,,,,,,,,,,,,,,,,,,,,,,,,,,,,,,,,,,,,,,,,,,,,,,,,,,,,,,,,,,,,,,,,,,,,,,,,,,,,,,,,,,,,,,,,,,,,,,,,,,,,,,,,,,,,,,,,,,,,,,,,,,,,,,,,,,,,,,,,,,,,,,,,,,,,,,,,,,
,,,,,,5f8836a5fb70462a169fc0ac,62c53a929b9a5a911048cfbd,2022-07-06_09h36.54.467,Colour_Asymmetry_Pilot,2022.1.3,Win32,59.99520038,62c50e9c1127f2cd403a315f,0,133,133,4,1,threeone,,,,,,,,,,,,,,,,,,,,,,,,,,,,,,,,,,,,,,,,,,,,,,,,,,,,,,,,,,,,,,,,,,,,,,,,,,,,,,,,,,,,,,,,,,,,,,,,,,,,,,,,,,,,,,,,,,,,,,,,,,,,,,,,,,,,,,,,,,,,,,,,,,,,,,,,,,,,,
,,,,,,5f8836a5fb70462a169fc0ac,62c53a929b9a5a911048cfbd,2022-07-06_09h36.54.467,Colour_Asymmetry_Pilot,2022.1.3,Win32,59.99520038,62c50e9c1127f2cd403a315f,0,134,134,21,1,threefour,,,,,,,,,,,,,,,,,,,,,,,,,,,,,,,,,,,,,,,,,,,,,,,,,,,,,,,,,,,,,,,,,,,,,,,,,,,,,,,,,,,,,,,,,,,,,,,,,,,,,,,,,,,,,,,,,,,,,,,,,,,,,,,,,,,,,,,,,,,,,,,,,,,,,,,,,,,,,
,,,,,,5f8836a5fb70462a169fc0ac,62c53a929b9a5a911048cfbd,2022-07-06_09h36.54.467,Colour_Asymmetry_Pilot,2022.1.3,Win32,59.99520038,62c50e9c1127f2cd403a315f,0,135,135,159,1,fourthree,,,,,,,,,,,,,,,,,,,,,,,,,,,,,,,,,,,,,,,,,,,,,,,,,,,,,,,,,,,,,,,,,,,,,,,,,,,,,,,,,,,,,,,,,,,,,,,,,,,,,,,,,,,,,,,,,,,,,,,,,,,,,,,,,,,,,,,,,,,,,,,,,,,,,,,,,,,,,
,,,,,,5f8836a5fb70462a169fc0ac,62c53a929b9a5a911048cfbd,2022-07-06_09h36.54.467,Colour_Asymmetry_Pilot,2022.1.3,Win32,59.99520038,62c50e9c1127f2cd403a315f,0,136,136,140,1,threeone,,,,,,,,,,,,,,,,,,,,,,,,,,,,,,,,,,,,,,,,,,,,,,,,,,,,,,,,,,,,,,,,,,,,,,,,,,,,,,,,,,,,,,,,,,,,,,,,,,,,,,,,,,,,,,,,,,,,,,,,,,,,,,,,,,,,,,,,,,,,,,,,,,,,,,,,,,,,,
,,,,,,5f8836a5fb70462a169fc0ac,62c53a929b9a5a911048cfbd,2022-07-06_09h36.54.467,Colour_Asymmetry_Pilot,2022.1.3,Win32,59.99520038,62c50e9c1127f2cd403a315f,0,137,137,40,1,onetwo,,,,,,,,,,,,,,,,,,,,,,,,,,,,,,,,,,,,,,,,,,,,,,,,,,,,,,,,,,,,,,,,,,,,,,,,,,,,,,,,,,,,,,,,,,,,,,,,,,,,,,,,,,,,,,,,,,,,,,,,,,,,,,,,,,,,,,,,,,,,,,,,,,,,,,,,,,,,,
,,,,,,5f8836a5fb70462a169fc0ac,62c53a929b9a5a911048cfbd,2022-07-06_09h36.54.467,Colour_Asymmetry_Pilot,2022.1.3,Win32,59.99520038,62c50e9c1127f2cd403a315f,0,138,138,46,1,fourtwo,,,,,,,,,,,,,,,,,,,,,,,,,,,,,,,,,,,,,,,,,,,,,,,,,,,,,,,,,,,,,,,,,,,,,,,,,,,,,,,,,,,,,,,,,,,,,,,,,,,,,,,,,,,,,,,,,,,,,,,,,,,,,,,,,,,,,,,,,,,,,,,,,,,,,,,,,,,,,
,,,,,,5f8836a5fb70462a169fc0ac,62c53a929b9a5a911048cfbd,2022-07-06_09h36.54.467,Colour_Asymmetry_Pilot,2022.1.3,Win32,59.99520038,62c50e9c1127f2cd403a315f,0,139,139,35,1,twofour,,,,,,,,,,,,,,,,,,,,,,,,,,,,,,,,,,,,,,,,,,,,,,,,,,,,,,,,,,,,,,,,,,,,,,,,,,,,,,,,,,,,,,,,,,,,,,,,,,,,,,,,,,,,,,,,,,,,,,,,,,,,,,,,,,,,,,,,,,,,,,,,,,,,,,,,,,,,,
,,,,,,5f8836a5fb70462a169fc0ac,62c53a929b9a5a911048cfbd,2022-07-06_09h36.54.467,Colour_Asymmetry_Pilot,2022.1.3,Win32,59.99520038,62c50e9c1127f2cd403a315f,0,140,140,41,1,onethree,,,,,,,,,,,,,,,,,,,,,,,,,,,,,,,,,,,,,,,,,,,,,,,,,,,,,,,,,,,,,,,,,,,,,,,,,,,,,,,,,,,,,,,,,,,,,,,,,,,,,,,,,,,,,,,,,,,,,,,,,,,,,,,,,,,,,,,,,,,,,,,,,,,,,,,,,,,,,
,,,,,,5f8836a5fb70462a169fc0ac,62c53a929b9a5a911048cfbd,2022-07-06_09h36.54.467,Colour_Asymmetry_Pilot,2022.1.3,Win32,59.99520038,62c50e9c1127f2cd403a315f,0,141,141,89,1,onethree,,,,,,,,,,,,,,,,,,,,,,,,,,,,,,,,,,,,,,,,,,,,,,,,,,,,,,,,,,,,,,,,,,,,,,,,,,,,,,,,,,,,,,,,,,,,,,,,,,,,,,,,,,,,,,,,,,,,,,,,,,,,,,,,,,,,,,,,,,,,,,,,,,,,,,,,,,,,,
,,,,,,5f8836a5fb70462a169fc0ac,62c53a929b9a5a911048cfbd,2022-07-06_09h36.54.467,Colour_Asymmetry_Pilot,2022.1.3,Win32,59.99520038,62c50e9c1127f2cd403a315f,0,142,142,106,1,twoone,,,,,,,,,,,,,,,,,,,,,,,,,,,,,,,,,,,,,,,,,,,,,,,,,,,,,,,,,,,,,,,,,,,,,,,,,,,,,,,,,,,,,,,,,,,,,,,,,,,,,,,,,,,,,,,,,,,,,,,,,,,,,,,,,,,,,,,,,,,,,,,,,,,,,,,,,,,,,
,,,,,,5f8836a5fb70462a169fc0ac,62c53a929b9a5a911048cfbd,2022-07-06_09h36.54.467,Colour_Asymmetry_Pilot,2022.1.3,Win32,59.99520038,62c50e9c1127f2cd403a315f,0,143,143,13,1,threefour,,,,,,,,,,,,,,,,,,,,,,,,,,,,,,,,,,,,,,,,,,,,,,,,,,,,,,,,,,,,,,,,,,,,,,,,,,,,,,,,,,,,,,,,,,,,,,,,,,,,,,,,,,,,,,,,,,,,,,,,,,,,,,,,,,,,,,,,,,,,,,,,,,,,,,,,,,,,,
,,,,,,5f8836a5fb70462a169fc0ac,62c53a929b9a5a911048cfbd,2022-07-06_09h36.54.467,Colour_Asymmetry_Pilot,2022.1.3,Win32,59.99520038,62c50e9c1127f2cd403a315f,0,144,144,87,1,fourthree,,,,,,,,,,,,,,,,,,,,,,,,,,,,,,,,,,,,,,,,,,,,,,,,,,,,,,,,,,,,,,,,,,,,,,,,,,,,,,,,,,,,,,,,,,,,,,,,,,,,,,,,,,,,,,,,,,,,,,,,,,,,,,,,,,,,,,,,,,,,,,,,,,,,,,,,,,,,,
,,,,,,5f8836a5fb70462a169fc0ac,62c53a929b9a5a911048cfbd,2022-07-06_09h36.54.467,Colour_Asymmetry_Pilot,2022.1.3,Win32,59.99520038,62c50e9c1127f2cd403a315f,0,145,145,16,1,onetwo,,,,,,,,,,,,,,,,,,,,,,,,,,,,,,,,,,,,,,,,,,,,,,,,,,,,,,,,,,,,,,,,,,,,,,,,,,,,,,,,,,,,,,,,,,,,,,,,,,,,,,,,,,,,,,,,,,,,,,,,,,,,,,,,,,,,,,,,,,,,,,,,,,,,,,,,,,,,,
,,,,,,5f8836a5fb70462a169fc0ac,62c53a929b9a5a911048cfbd,2022-07-06_09h36.54.467,Colour_Asymmetry_Pilot,2022.1.3,Win32,59.99520038,62c50e9c1127f2cd403a315f,0,146,146,117,1,threefour,,,,,,,,,,,,,,,,,,,,,,,,,,,,,,,,,,,,,,,,,,,,,,,,,,,,,,,,,,,,,,,,,,,,,,,,,,,,,,,,,,,,,,,,,,,,,,,,,,,,,,,,,,,,,,,,,,,,,,,,,,,,,,,,,,,,,,,,,,,,,,,,,,,,,,,,,,,,,
,,,,,,5f8836a5fb70462a169fc0ac,62c53a929b9a5a911048cfbd,2022-07-06_09h36.54.467,Colour_Asymmetry_Pilot,2022.1.3,Win32,59.99520038,62c50e9c1127f2cd403a315f,0,147,147,69,1,threefour,,,,,,,,,,,,,,,,,,,,,,,,,,,,,,,,,,,,,,,,,,,,,,,,,,,,,,,,,,,,,,,,,,,,,,,,,,,,,,,,,,,,,,,,,,,,,,,,,,,,,,,,,,,,,,,,,,,,,,,,,,,,,,,,,,,,,,,,,,,,,,,,,,,,,,,,,,,,,
,,,,,,5f8836a5fb70462a169fc0ac,62c53a929b9a5a911048cfbd,2022-07-06_09h36.54.467,Colour_Asymmetry_Pilot,2022.1.3,Win32,59.99520038,62c50e9c1127f2cd403a315f,0,148,148,22,1,fourtwo,,,,,,,,,,,,,,,,,,,,,,,,,,,,,,,,,,,,,,,,,,,,,,,,,,,,,,,,,,,,,,,,,,,,,,,,,,,,,,,,,,,,,,,,,,,,,,,,,,,,,,,,,,,,,,,,,,,,,,,,,,,,,,,,,,,,,,,,,,,,,,,,,,,,,,,,,,,,,
,,,,,,5f8836a5fb70462a169fc0ac,62c53a929b9a5a911048cfbd,2022-07-06_09h36.54.467,Colour_Asymmetry_Pilot,2022.1.3,Win32,59.99520038,62c50e9c1127f2cd403a315f,0,149,149,86,1,fourtwo,,,,,,,,,,,,,,,,,,,,,,,,,,,,,,,,,,,,,,,,,,,,,,,,,,,,,,,,,,,,,,,,,,,,,,,,,,,,,,,,,,,,,,,,,,,,,,,,,,,,,,,,,,,,,,,,,,,,,,,,,,,,,,,,,,,,,,,,,,,,,,,,,,,,,,,,,,,,,
,,,,,,5f8836a5fb70462a169fc0ac,62c53a929b9a5a911048cfbd,2022-07-06_09h36.54.467,Colour_Asymmetry_Pilot,2022.1.3,Win32,59.99520038,62c50e9c1127f2cd403a315f,0,150,150,10,1,twoone,,,,,,,,,,,,,,,,,,,,,,,,,,,,,,,,,,,,,,,,,,,,,,,,,,,,,,,,,,,,,,,,,,,,,,,,,,,,,,,,,,,,,,,,,,,,,,,,,,,,,,,,,,,,,,,,,,,,,,,,,,,,,,,,,,,,,,,,,,,,,,,,,,,,,,,,,,,,,
,,,,,,5f8836a5fb70462a169fc0ac,62c53a929b9a5a911048cfbd,2022-07-06_09h36.54.467,Colour_Asymmetry_Pilot,2022.1.3,Win32,59.99520038,62c50e9c1127f2cd403a315f,0,151,151,118,1,fourtwo,,,,,,,,,,,,,,,,,,,,,,,,,,,,,,,,,,,,,,,,,,,,,,,,,,,,,,,,,,,,,,,,,,,,,,,,,,,,,,,,,,,,,,,,,,,,,,,,,,,,,,,,,,,,,,,,,,,,,,,,,,,,,,,,,,,,,,,,,,,,,,,,,,,,,,,,,,,,,
,,,,,,5f8836a5fb70462a169fc0ac,62c53a929b9a5a911048cfbd,2022-07-06_09h36.54.467,Colour_Asymmetry_Pilot,2022.1.3,Win32,59.99520038,62c50e9c1127f2cd403a315f,0,152,152,138,1,twoone,,,,,,,,,,,,,,,,,,,,,,,,,,,,,,,,,,,,,,,,,,,,,,,,,,,,,,,,,,,,,,,,,,,,,,,,,,,,,,,,,,,,,,,,,,,,,,,,,,,,,,,,,,,,,,,,,,,,,,,,,,,,,,,,,,,,,,,,,,,,,,,,,,,,,,,,,,,,,
,,,,,,5f8836a5fb70462a169fc0ac,62c53a929b9a5a911048cfbd,2022-07-06_09h36.54.467,Colour_Asymmetry_Pilot,2022.1.3,Win32,59.99520038,62c50e9c1127f2cd403a315f,0,153,153,146,1,twoone,,,,,,,,,,,,,,,,,,,,,,,,,,,,,,,,,,,,,,,,,,,,,,,,,,,,,,,,,,,,,,,,,,,,,,,,,,,,,,,,,,,,,,,,,,,,,,,,,,,,,,,,,,,,,,,,,,,,,,,,,,,,,,,,,,,,,,,,,,,,,,,,,,,,,,,,,,,,,
,,,,,,5f8836a5fb70462a169fc0ac,62c53a929b9a5a911048cfbd,2022-07-06_09h36.54.467,Colour_Asymmetry_Pilot,2022.1.3,Win32,59.99520038,62c50e9c1127f2cd403a315f,0,154,154,149,1,threefour,,,,,,,,,,,,,,,,,,,,,,,,,,,,,,,,,,,,,,,,,,,,,,,,,,,,,,,,,,,,,,,,,,,,,,,,,,,,,,,,,,,,,,,,,,,,,,,,,,,,,,,,,,,,,,,,,,,,,,,,,,,,,,,,,,,,,,,,,,,,,,,,,,,,,,,,,,,,,
,,,,,,5f8836a5fb70462a169fc0ac,62c53a929b9a5a911048cfbd,2022-07-06_09h36.54.467,Colour_Asymmetry_Pilot,2022.1.3,Win32,59.99520038,62c50e9c1127f2cd403a315f,0,155,155,64,1,onetwo,,,,,,,,,,,,,,,,,,,,,,,,,,,,,,,,,,,,,,,,,,,,,,,,,,,,,,,,,,,,,,,,,,,,,,,,,,,,,,,,,,,,,,,,,,,,,,,,,,,,,,,,,,,,,,,,,,,,,,,,,,,,,,,,,,,,,,,,,,,,,,,,,,,,,,,,,,,,,
,,,,,,5f8836a5fb70462a169fc0ac,62c53a929b9a5a911048cfbd,2022-07-06_09h36.54.467,Colour_Asymmetry_Pilot,2022.1.3,Win32,59.99520038,62c50e9c1127f2cd403a315f,0,156,156,79,1,fourthree,,,,,,,,,,,,,,,,,,,,,,,,,,,,,,,,,,,,,,,,,,,,,,,,,,,,,,,,,,,,,,,,,,,,,,,,,,,,,,,,,,,,,,,,,,,,,,,,,,,,,,,,,,,,,,,,,,,,,,,,,,,,,,,,,,,,,,,,,,,,,,,,,,,,,,,,,,,,,
,,,,,,5f8836a5fb70462a169fc0ac,62c53a929b9a5a911048cfbd,2022-07-06_09h36.54.467,Colour_Asymmetry_Pilot,2022.1.3,Win32,59.99520038,62c50e9c1127f2cd403a315f,0,157,157,31,1,fourthree,,,,,,,,,,,,,,,,,,,,,,,,,,,,,,,,,,,,,,,,,,,,,,,,,,,,,,,,,,,,,,,,,,,,,,,,,,,,,,,,,,,,,,,,,,,,,,,,,,,,,,,,,,,,,,,,,,,,,,,,,,,,,,,,,,,,,,,,,,,,,,,,,,,,,,,,,,,,,
,,,,,,5f8836a5fb70462a169fc0ac,62c53a929b9a5a911048cfbd,2022-07-06_09h36.54.467,Colour_Asymmetry_Pilot,2022.1.3,Win32,59.99520038,62c50e9c1127f2cd403a315f,0,158,158,51,1,twofour,,,,,,,,,,,,,,,,,,,,,,,,,,,,,,,,,,,,,,,,,,,,,,,,,,,,,,,,,,,,,,,,,,,,,,,,,,,,,,,,,,,,,,,,,,,,,,,,,,,,,,,,,,,,,,,,,,,,,,,,,,,,,,,,,,,,,,,,,,,,,,,,,,,,,,,,,,,,,
,,,,,,5f8836a5fb70462a169fc0ac,62c53a929b9a5a911048cfbd,2022-07-06_09h36.54.467,Colour_Asymmetry_Pilot,2022.1.3,Win32,59.99520038,62c50e9c1127f2cd403a315f,0,159,159,136,1,onetwo,,,,,,,,,,,,,,,,,,,,,,,,,,,,,,,,,,,,,,,,,,,,,,,,,,,,,,,,,,,,,,,,,,,,,,,,,,,,,,,,,,,,,,,,,,,,,,,,,,,,,,,,,,,,,,,,,,,,,,,,,,,,,,,,,,,,,,,,,,,,,,,,,,,,,,,,,,,,,
,,,,,,5f8836a5fb70462a169fc0ac,62c53a929b9a5a911048cfbd,2022-07-06_09h36.54.467,Colour_Asymmetry_Pilot,2022.1.3,Win32,59.99520038,62c50e9c1127f2cd403a315f,0,160,160,83,1,twofour,,,,,,,,,,,,,,,,,,,,,,,,,,,,,,,,,,,,,,,,,,,,,,,,,,,,,,,,,,,,,,,,,,,,,,,,,,,,,,,,,,,,,,,,,,,,,,,,,,,,,,,,,,,,,,,,,,,,,,,,,,,,,,,,,,,,,,,,,,,,,,,,,,,,,,,,,,,,,
,,,,,,5f8836a5fb70462a169fc0ac,62c53a929b9a5a911048cfbd,2022-07-06_09h36.54.467,Colour_Asymmetry_Pilot,2022.1.3,Win32,59.99520038,62c50e9c1127f2cd403a315f,0,161,161,62,1,fourtwo,,,,,,,,,,,,,,,,,,,,,,,,,,,,,,,,,,,,,,,,,,,,,,,,,,,,,,,,,,,,,,,,,,,,,,,,,,,,,,,,,,,,,,,,,,,,,,,,,,,,,,,,,,,,,,,,,,,,,,,,,,,,,,,,,,,,,,,,,,,,,,,,,,,,,,,,,,,,,
,,,,,,5f8836a5fb70462a169fc0ac,62c53a929b9a5a911048cfbd,2022-07-06_09h36.54.467,Colour_Asymmetry_Pilot,2022.1.3,Win32,59.99520038,62c50e9c1127f2cd403a315f,,,,,,,space,1.2906,space,99.6709,space,16.2319,space,6.1031,space,6.6905,space,3.3502,"[0.9372,0.20779999999999998,0.2704]",twofour,"[0.30180000000000007,-0.7884,-0.9844]",-1,4.7843,-50,-93.5,1,0,0,response5disk_5,9,-1.5,1,0,0,rectangle_8,106,48.5,1,0,0,response1disk_7,6,3,16,-6.5,1,0,0,rectangle_4,0,0,0,0,1,,,,,,,,,,,,,,,,,,,,,,,,,,,,,,,,,,,,,,,,,,,,,,,,,,,,,,,,,,,,,,,,,,,,,,,,,,,,,,,,,,,,,,,,,,,,,,,,,,,,,,,,,,,,,
,,,,,,5f8836a5fb70462a169fc0ac,62c53a929b9a5a911048cfbd,2022-07-06_09h36.54.467,Colour_Asymmetry_Pilot,2022.1.3,Win32,59.99520038,62c50e9c1127f2cd403a315f,,,,,,,,,,,,,,,,,,,"[0.8274000000000001,-0.5844,-0.9452]",twoone,"[-0.24719999999999998,-0.0354000000000001,0.3175999999999999]",-4,2.2404,-49,92.5,1,0,0,response7disk_5,-8,3.5,1,0,0,rectangle_8,-8,3.5,1,0,0,,,3,-8,3.5,1,0,0,,1,0,1,0,1,,,,,,,,,,,,,,,,,,,,,,,,,,,,,,,,,,,,,,,,,,,,,,,,,,,,,,,,,,,,,,,,,,,,,,,,,,,,,,,,,,,,,,,,,,,,,,,,,,,,,,,,,,,,,
,,,,,,5f8836a5fb70462a169fc0ac,62c53a929b9a5a911048cfbd,2022-07-06_09h36.54.467,Colour_Asymmetry_Pilot,2022.1.3,Win32,59.99520038,62c50e9c1127f2cd403a315f,,,,,,,,,,,,,,,,,,,"[0.11359999999999992,0.6312,0.5213999999999999]",onethree,"[-0.9688,-0.7412000000000001,-0.4902000000000001]",-1,2.2441,-34,-105.5,1,0,0,response5disk_5,-3,-4.5,1,0,0,rectangle_8,-3,-4.5,1,0,0,,,3,-3,-4.5,1,0,0,,2,0,2,0,1,,,,,,,,,,,,,,,,,,,,,,,,,,,,,,,,,,,,,,,,,,,,,,,,,,,,,,,,,,,,,,,,,,,,,,,,,,,,,,,,,,,,,,,,,,,,,,,,,,,,,,,,,,,,,
,,,,,,5f8836a5fb70462a169fc0ac,62c53a929b9a5a911048cfbd,2022-07-06_09h36.54.467,Colour_Asymmetry_Pilot,2022.1.3,Win32,59.99520038,62c50e9c1127f2cd403a315f,,,,,,,,,,,,,,,,,,,"[-0.48240000000000005,0.3175999999999999,0.2156]",twoone,"[-0.07459999999999989,0.12139999999999995,-0.9922]",1,1.5905,20,-75.5,1,0,0,response3disk_5,1,8.5,1,0,0,rectangle_8,103,37.5,1,0,0,response1disk_7,6,3,16,-1.5,1,0,0,rectangle_4,3,0,3,0,1,,,,,,,,,,,,,,,,,,,,,,,,,,,,,,,,,,,,,,,,,,,,,,,,,,,,,,,,,,,,,,,,,,,,,,,,,,,,,,,,,,,,,,,,,,,,,,,,,,,,,,,,,,,,,
,,,,,,5f8836a5fb70462a169fc0ac,62c53a929b9a5a911048cfbd,2022-07-06_09h36.54.467,Colour_Asymmetry_Pilot,2022.1.3,Win32,59.99520038,62c50e9c1127f2cd403a315f,,,,,,,,,,,,,,,,,,,"[-0.48240000000000005,0.3175999999999999,0.2156]",twofour,"[-0.5688,-0.08239999999999992,-0.1844]",3,1.1421,97,39.5,1,0,0,response1disk_5,-6,4.5,1,0,0,rectangle_8,-6,4.5,1,0,0,,,3,-6,4.5,1,0,0,,4,0,4,0,1,,,,,,,,,,,,,,,,,,,,,,,,,,,,,,,,,,,,,,,,,,,,,,,,,,,,,,,,,,,,,,,,,,,,,,,,,,,,,,,,,,,,,,,,,,,,,,,,,,,,,,,,,,,,,
,,,,,,5f8836a5fb70462a169fc0ac,62c53a929b9a5a911048cfbd,2022-07-06_09h36.54.467,Colour_Asymmetry_Pilot,2022.1.3,Win32,59.99520038,62c50e9c1127f2cd403a315f,,,,,,,,,,,,,,,,,,,"[0.7176,-0.906,-0.6864]",onethree,"[0.19199999999999995,0.18419999999999992,0.5136000000000001]",1,1.6847,55,-94.5,1,0,0,response3disk_5,-8,6.5,1,0,0,rectangle_8,-8,6.5,1,0,0,,,3,-8,6.5,1,0,0,,5,0,5,0,1,,,,,,,,,,,,,,,,,,,,,,,,,,,,,,,,,,,,,,,,,,,,,,,,,,,,,,,,,,,,,,,,,,,,,,,,,,,,,,,,,,,,,,,,,,,,,,,,,,,,,,,,,,,,,
,,,,,,5f8836a5fb70462a169fc0ac,62c53a929b9a5a911048cfbd,2022-07-06_09h36.54.467,Colour_Asymmetry_Pilot,2022.1.3,Win32,59.99520038,62c50e9c1127f2cd403a315f,,,,,,,,,,,,,,,,,,,"[-0.5922000000000001,-0.7492000000000001,-0.5296000000000001]",twofour,"[-0.4276,0.0038000000000000256,-0.3256]",-3,1.4293,-94,42.5,1,0,0,response7disk_5,-10,0.5,1,0,0,rectangle_8,-10,0.5,1,0,0,,,3,-10,0.5,1,0,0,,6,0,6,0,1,,,,,,,,,,,,,,,,,,,,,,,,,,,,,,,,,,,,,,,,,,,,,,,,,,,,,,,,,,,,,,,,,,,,,,,,,,,,,,,,,,,,,,,,,,,,,,,,,,,,,,,,,,,,,
,,,,,,5f8836a5fb70462a169fc0ac,62c53a929b9a5a911048cfbd,2022-07-06_09h36.54.467,Colour_Asymmetry_Pilot,2022.1.3,Win32,59.99520038,62c50e9c1127f2cd403a315f,,,,,,,,,,,,,,,,,,,,threefour,,-2,1.1163,,,,,,,,,,,,,,,,,,,,,,,,,,,,,,,,space,3.2872,"[0.7176,-0.906,-0.6864]","[-0.6235999999999999,-0.6786,-0.08239999999999992]",-97,-33.5,1,0,0,response5disk,-4,-2.5,1,0,0,rectangle,-4,-2.5,1,0,0,,2,0.0017,0,-4,-2.5,1,0,0,0,0,0,106,1,25,second,,,,,,,,,,,,,,,,,,,,,,,,,,,,,,,,,,,,,,,,,,,,,,,,,,,,,,,,,,,,,,,,,,,,,,,,
,,,,,,5f8836a5fb70462a169fc0ac,62c53a929b9a5a911048cfbd,2022-07-06_09h36.54.467,Colour_Asymmetry_Pilot,2022.1.3,Win32,59.99520038,62c50e9c1127f2cd403a315f,,,,,,,,,,,,,,,,,,,,twoone,,-1,1.4273,,,,,,,,,,,,,,,,,,,,,,,,,,,,,,,,,,"[0.7176,-0.906,-0.6864]","[0.2862,0.7802,0.3568]",-40,-91.5,1,0,0,response5disk,1,-6.5,1,0,0,rectangle,1,-6.5,1,0,0,,3,0.0011,0,1,-6.5,1,0,0,0,1,1,155,1,74,second,,,,,,,,,,,,,,,,,,,,,,,,,,,,,,,,,,,,,,,,,,,,,,,,,,,,,,,,,,,,,,,,,,,,,,,,
,,,,,,5f8836a5fb70462a169fc0ac,62c53a929b9a5a911048cfbd,2022-07-06_09h36.54.467,Colour_Asymmetry_Pilot,2022.1.3,Win32,59.99520038,62c50e9c1127f2cd403a315f,,,,,,,,,,,,,,,,,,,,fourtwo,,-3,1.9883,,,,,,,,,,,,,,,,,,,,,,,,,,,,,,,,,,"[-0.8198,-0.5138,-0.7492000000000001]","[0.9763999999999999,0.8588,-0.05900000000000005]",-98,30.5,1,0,0,response7disk,5,-4.5,1,0,0,rectangle,5,-4.5,1,0,0,,2,0.001,0,5,-4.5,1,0,0,0,2,2,12,1,12,first,,,,,,,,,,,,,,,,,,,,,,,,,,,,,,,,,,,,,,,,,,,,,,,,,,,,,,,,,,,,,,,,,,,,,,,,
,,,,,,5f8836a5fb70462a169fc0ac,62c53a929b9a5a911048cfbd,2022-07-06_09h36.54.467,Colour_Asymmetry_Pilot,2022.1.3,Win32,59.99520038,62c50e9c1127f2cd403a315f,,,,,,,,,,,,,,,,,,,,onetwo,,4,0.7412,,,,,,,,,,,,,,,,,,,,,,,,,,,,,,,,,,"[-0.6,0.16860000000000008,0.44300000000000006]","[-0.09019999999999995,0.44300000000000006,0.5371999999999999]",41,85.5,1,0,0,response1disk,-2,0.5,1,0,0,rectangle,-2,0.5,1,0,0,,2,0.0001,0,-2,0.5,1,0,0,0,3,3,110,1,29,second,,,,,,,,,,,,,,,,,,,,,,,,,,,,,,,,,,,,,,,,,,,,,,,,,,,,,,,,,,,,,,,,,,,,,,,,
,,,,,,5f8836a5fb70462a169fc0ac,62c53a929b9a5a911048cfbd,2022-07-06_09h36.54.467,Colour_Asymmetry_Pilot,2022.1.3,Win32,59.99520038,62c50e9c1127f2cd403a315f,,,,,,,,,,,,,,,,,,,,twofour,,-2,2.0364,,,,,,,,,,,,,,,,,,,,,,,,,,,,,,,,,,"[0.22340000000000004,-0.9296,-0.7884]","[-0.4902000000000001,0.2704,-0.45899999999999996]",-78,-48.5,1,0,0,response5disk,-2,-5.5,1,0,0,rectangle,-2,-5.5,1,0,0,,1,0.0005,0,-2,-5.5,1,0,0,0,4,4,96,1,15,second,,,,,,,,,,,,,,,,,,,,,,,,,,,,,,,,,,,,,,,,,,,,,,,,,,,,,,,,,,,,,,,,,,,,,,,,
,,,,,,5f8836a5fb70462a169fc0ac,62c53a929b9a5a911048cfbd,2022-07-06_09h36.54.467,Colour_Asymmetry_Pilot,2022.1.3,Win32,59.99520038,62c50e9c1127f2cd403a315f,,,,,,,,,,,,,,,,,,,,threefour,,-1,2.6001,,,,,,,,,,,,,,,,,,,,,,,,,,,,,,,,,,"[0.37240000000000006,0.4980000000000002,-0.2864]","[0.9763999999999999,-0.1137999999999999,-0.6314]",-51,-104.5,1,0,0,response5disk,5,-2.5,1,0,0,rectangle,5,-2.5,1,0,0,,1,0.0001,0,5,-2.5,1,0,0,0,5,5,45,1,45,first,,,,,,,,,,,,,,,,,,,,,,,,,,,,,,,,,,,,,,,,,,,,,,,,,,,,,,,,,,,,,,,,,,,,,,,,
,,,,,,5f8836a5fb70462a169fc0ac,62c53a929b9a5a911048cfbd,2022-07-06_09h36.54.467,Colour_Asymmetry_Pilot,2022.1.3,Win32,59.99520038,62c50e9c1127f2cd403a315f,,,,,,,,,,,,,,,,,,,,fourtwo,,-1,0.782,,,,,,,,,,,,,,,,,,,,,,,,,,,,,,,,,,"[0.05879999999999996,0.2784,0.5841999999999998]","[0.18419999999999992,-0.4276,-0.404]",-45,-85.5,1,0,0,response5disk,-14,-4.5,1,0,0,rectangle,-14,-4.5,1,0,0,,3,0.0008,0,-14,-4.5,1,0,0,0,6,6,24,1,24,first,,,,,,,,,,,,,,,,,,,,,,,,,,,,,,,,,,,,,,,,,,,,,,,,,,,,,,,,,,,,,,,,,,,,,,,,
,,,,,,5f8836a5fb70462a169fc0ac,62c53a929b9a5a911048cfbd,2022-07-06_09h36.54.467,Colour_Asymmetry_Pilot,2022.1.3,Win32,59.99520038,62c50e9c1127f2cd403a315f,,,,,,,,,,,,,,,,,,,,twoone,,-2,1.4776,,,,,,,,,,,,,,,,,,,,,,,,,,,,,,,,,,"[0.7176,-0.906,-0.6864]","[-0.4902000000000001,0.2704,-0.45899999999999996]",-80,-35.5,1,0,0,response5disk,4,0.5,1,0,0,rectangle,40,-92.5,1,0,0,1,1,1.7916,1,-5,6.5,1,0,0,0,7,7,76,1,76,first,response3disk_3,rectangle,,,,,,,,,,,,,,,,,,,,,,,,,,,,,,,,,,,,,,,,,,,,,,,,,,,,,,,,,,,,,,,,,,,,,,
,,,,,,5f8836a5fb70462a169fc0ac,62c53a929b9a5a911048cfbd,2022-07-06_09h36.54.467,Colour_Asymmetry_Pilot,2022.1.3,Win32,59.99520038,62c50e9c1127f2cd403a315f,,,,,,,,,,,,,,,,,,,,threeone,,-4,0.8827,,,,,,,,,,,,,,,,,,,,,,,,,,,,,,,,,,"[-0.9688,-0.7412000000000001,-0.4902000000000001]","[0.8274000000000001,-0.5844,-0.9452]",-55,81.5,1,0,0,response7disk,-6,-0.5,1,0,0,rectangle,-6,-0.5,1,0,0,1,2,0.0009,0,-6,-0.5,1,0,0,0,8,8,58,1,58,first,,,,,,,,,,,,,,,,,,,,,,,,,,,,,,,,,,,,,,,,,,,,,,,,,,,,,,,,,,,,,,,,,,,,,,,,
,,,,,,5f8836a5fb70462a169fc0ac,62c53a929b9a5a911048cfbd,2022-07-06_09h36.54.467,Colour_Asymmetry_Pilot,2022.1.3,Win32,59.99520038,62c50e9c1127f2cd403a315f,,,,,,,,,,,,,,,,,,,,onethree,,-1,0.6101,,,,,,,,,,,,,,,,,,,,,,,,,,,,,,,,,,"[0.9763999999999999,-0.1137999999999999,-0.6314]","[-0.38039999999999996,-0.4276,-0.1452]",-44,-96.5,1,0,0,response5disk,14,9.5,1,0,0,rectangle,14,9.5,1,0,0,1,2,0.0002,0,14,9.5,1,0,0,0,9,9,128,1,47,second,,,,,,,,,,,,,,,,,,,,,,,,,,,,,,,,,,,,,,,,,,,,,,,,,,,,,,,,,,,,,,,,,,,,,,,,
,,,,,,5f8836a5fb70462a169fc0ac,62c53a929b9a5a911048cfbd,2022-07-06_09h36.54.467,Colour_Asymmetry_Pilot,2022.1.3,Win32,59.99520038,62c50e9c1127f2cd403a315f,,,,,,,,,,,,,,,,,,,,threeone,,1,0.5316,,,,,,,,,,,,,,,,,,,,,,,,,,,,,,,,,,"[-0.4982,-0.2942,-0.0354000000000001]","[-0.45899999999999996,-0.3256,-0.9374]",48,-119.5,1,0,0,response3disk,2,3.5,1,0,0,rectangle,2,3.5,1,0,0,1,1,0.0005,0,2,3.5,1,0,0,0,10,10,100,1,19,second,,,,,,,,,,,,,,,,,,,,,,,,,,,,,,,,,,,,,,,,,,,,,,,,,,,,,,,,,,,,,,,,,,,,,,,,
,,,,,,5f8836a5fb70462a169fc0ac,62c53a929b9a5a911048cfbd,2022-07-06_09h36.54.467,Colour_Asymmetry_Pilot,2022.1.3,Win32,59.99520038,62c50e9c1127f2cd403a315f,,,,,,,,,,,,,,,,,,,,threeone,,2,0.8975,,,,,,,,,,,,,,,,,,,,,,,,,,,,,,,,,,"[-0.9766,-0.34920000000000007,0.2156]","[0.11359999999999992,0.6312,0.5213999999999999]",112,-25.5,1,0,0,response3disk,6,6.5,1,0,0,rectangle,6,6.5,1,0,0,1,1,0.0001,0,6,6.5,1,0,0,0,11,11,123,1,42,second,,,,,,,,,,,,,,,,,,,,,,,,,,,,,,,,,,,,,,,,,,,,,,,,,,,,,,,,,,,,,,,,,,,,,,,,
,,,,,,5f8836a5fb70462a169fc0ac,62c53a929b9a5a911048cfbd,2022-07-06_09h36.54.467,Colour_Asymmetry_Pilot,2022.1.3,Win32,59.99520038,62c50e9c1127f2cd403a315f,,,,,,,,,,,,,,,,,,,,twoone,,-1,0.7707,,,,,,,,,,,,,,,,,,,,,,,,,,,,,,,,,,"[0.09799999999999986,-0.24719999999999998,0.15280000000000005]","[0.37240000000000006,-0.050999999999999934,-0.5216]",-35,-102.5,1,0,0,response5disk,-1,-6.5,1,0,0,rectangle,-1,-6.5,1,0,0,1,2,0.0008,0,-1,-6.5,1,0,0,0,12,12,20,1,20,first,,,,,,,,,,,,,,,,,,,,,,,,,,,,,,,,,,,,,,,,,,,,,,,,,,,,,,,,,,,,,,,,,,,,,,,,
,,,,,,5f8836a5fb70462a169fc0ac,62c53a929b9a5a911048cfbd,2022-07-06_09h36.54.467,Colour_Asymmetry_Pilot,2022.1.3,Win32,59.99520038,62c50e9c1127f2cd403a315f,,,,,,,,,,,,,,,,,,,,twofour,,1,0.5509,,,,,,,,,,,,,,,,,,,,,,,,,,,,,,,,,,"[0.9686000000000001,0.3802000000000001,0.19999999999999996]","[-0.09019999999999995,0.44300000000000006,0.5371999999999999]",37,-89.5,1,0,0,response3disk,10,0.5,1,0,0,rectangle,10,0.5,1,0,0,1,2,0.0002,0,10,0.5,1,0,0,0,13,13,86,1,5,second,,,,,,,,,,,,,,,,,,,,,,,,,,,,,,,,,,,,,,,,,,,,,,,,,,,,,,,,,,,,,,,,,,,,,,,,
,,,,,,5f8836a5fb70462a169fc0ac,62c53a929b9a5a911048cfbd,2022-07-06_09h36.54.467,Colour_Asymmetry_Pilot,2022.1.3,Win32,59.99520038,62c50e9c1127f2cd403a315f,,,,,,,,,,,,,,,,,,,,fourthree,,2,0.3896,,,,,,,,,,,,,,,,,,,,,,,,,,,,,,,,,,"[0.5449999999999999,-0.31000000000000005,-0.0354000000000001]","[-0.5452,-0.608,0.2470000000000001]",78,-51.5,1,0,0,response3disk,21,-13.5,1,0,0,rectangle,21,-13.5,1,0,0,1,1,0.0008,0,21,-13.5,1,0,0,0,14,14,111,1,30,second,,,,,,,,,,,,,,,,,,,,,,,,,,,,,,,,,,,,,,,,,,,,,,,,,,,,,,,,,,,,,,,,,,,,,,,,
,,,,,,5f8836a5fb70462a169fc0ac,62c53a929b9a5a911048cfbd,2022-07-06_09h36.54.467,Colour_Asymmetry_Pilot,2022.1.3,Win32,59.99520038,62c50e9c1127f2cd403a315f,,,,,,,,,,,,,,,,,,,,onetwo,,-1,0.5803,,,,,,,,,,,,,,,,,,,,,,,,,,,,,,,,,,"[0.19199999999999995,0.18419999999999992,0.5136000000000001]","[-0.4902000000000001,0.2704,-0.45899999999999996]",-32,-58.5,1,0,0,response5disk,-7,9.5,1,0,0,rectangle,-7,9.5,1,0,0,1,1,0.0001,0,-7,9.5,1,0,0,0,15,15,1,1,1,first,,,,,,,,,,,,,,,,,,,,,,,,,,,,,,,,,,,,,,,,,,,,,,,,,,,,,,,,,,,,,,,,,,,,,,,,
,,,,,,5f8836a5fb70462a169fc0ac,62c53a929b9a5a911048cfbd,2022-07-06_09h36.54.467,Colour_Asymmetry_Pilot,2022.1.3,Win32,59.99520038,62c50e9c1127f2cd403a315f,,,,,,,,,,,,,,,,,,,,onethree,,-2,0.8959,,,,,,,,,,,,,,,,,,,,,,,,,,,,,,,,,,"[-0.38039999999999996,-0.4276,-0.1452]","[0.9763999999999999,-0.1137999999999999,-0.6314]",-97,-36.5,1,0,0,response5disk,-4,1.5,1,0,0,rectangle,-4,1.5,1,0,0,1,1,0.0001,0,-4,1.5,1,0,0,0,16,16,47,1,47,first,,,,,,,,,,,,,,,,,,,,,,,,,,,,,,,,,,,,,,,,,,,,,,,,,,,,,,,,,,,,,,,,,,,,,,,,
