trials.thisRepN,trials.thisTrialN,trials.thisN,trials.thisIndex,trials.ran,Colourcodes,participant,session,date,expName,psychopyVersion,OS,frameRate,study_id,trials_4.thisRepN,trials_4.thisTrialN,trials_4.thisN,trials_4.thisIndex,trials_4.ran,StimulusPos,key_resp.keys,key_resp.rt,key_resp_2.keys,key_resp_2.rt,key_resp_15.keys,key_resp_15.rt,key_resp_17.keys,key_resp_17.rt,key_resp_9.keys,key_resp_9.rt,key_resp_10.keys,key_resp_10.rt,Circle1_col,Ecc,Circle2_col,similarity,response_time,mouse_5.x,mouse_5.y,mouse_5.leftButton,mouse_5.midButton,mouse_5.rightButton,mouse_5.clicked_name,mouse_10.x,mouse_10.y,mouse_10.leftButton,mouse_10.midButton,mouse_10.rightButton,mouse_10.clicked_name,mouse_7.x,mouse_7.y,mouse_7.leftButton,mouse_7.midButton,mouse_7.rightButton,catchnumberprac,mouse_6.x,mouse_6.y,mouse_6.leftButton,mouse_6.midButton,mouse_6.rightButton,duringprac.thisRepN,duringprac.thisTrialN,duringprac.thisN,duringprac.thisIndex,duringprac.ran,mouse_7.clicked_name,catchprac,mouse_6.clicked_name,key_resp_22.keys,key_resp_22.rt,Circle1_colour,Circle2_colour,mouse.x,mouse.y,mouse.leftButton,mouse.midButton,mouse.rightButton,mouse.clicked_name,mouse_2.x,mouse_2.y,mouse_2.leftButton,mouse_2.midButton,mouse_2.rightButton,mouse_2.clicked_name,mouse_3.x,mouse_3.y,mouse_3.leftButton,mouse_3.midButton,mouse_3.rightButton,catchresponse,catchnumber,response_time_catch,Catch,mouse_11.x,mouse_11.y,mouse_11.leftButton,mouse_11.midButton,mouse_11.rightButton,trials_2.thisRepN,trials_2.thisTrialN,trials_2.thisN,trials_2.thisIndex,trials_2.ran,Colourpair,Temporder,mouse_3.clicked_name,mouse_11.clicked_name,trials_3.thisRepN,trials_3.thisTrialN,trials_3.thisN,trials_3.thisIndex,trials_3.ran,key_resp_instr_Ishi.keys,key_resp_instr_Ishi.rt,Ishi_trial_keyresp.keys,Ishi_textbox.text,Ishi_mouse.x,Ishi_mouse.y,Ishi_mouse.leftButton,Ishi_mouse.midButton,Ishi_mouse.rightButton,Ishi_mouse.clicked_name,Ishi_loop.thisRepN,Ishi_loop.thisTrialN,Ishi_loop.thisN,Ishi_loop.thisIndex,Ishi_loop.ran,imageaddress,textbox.text,mouse_4.x,mouse_4.y,mouse_4.leftButton,mouse_4.midButton,mouse_4.rightButton,mouse_4.clicked_name,textbox_2.text,mouse_8.x,mouse_8.y,mouse_8.leftButton,mouse_8.midButton,mouse_8.rightButton,mouse_8.clicked_name,textbox_3.text,mouse_9.x,mouse_9.y,mouse_9.leftButton,mouse_9.midButton,mouse_9.rightButton,mouse_9.clicked_name,textbox_4.text,mouse_12.x,mouse_12.y,mouse_12.leftButton,mouse_12.midButton,mouse_12.rightButton,mouse_12.clicked_name,textbox_5.text,mouse_13.x,mouse_13.y,mouse_13.leftButton,mouse_13.midButton,mouse_13.rightButton,mouse_13.clicked_name,textbox_6.text,mouse_14.x,mouse_14.y,mouse_14.leftButton,mouse_14.midButton,mouse_14.rightButton,mouse_14.clicked_name,textbox_7.text,mouse_15.x,mouse_15.y,mouse_15.leftButton,mouse_15.midButton,mouse_15.rightButton,mouse_15.clicked_name
0,0,0,36,1,,615ac6e5216f047d73a04f63,62c539b29489a96cabb6b53b,2022-07-06_09h29.10.769,Colour_Asymmetry_Pilot,2022.1.3,Win32,60.0348202,62c50e9c1127f2cd403a315f,,,,,,,,,,,,,,,,,,,,,,,,,,,,,,,,,,,,,,,,,,,,,,,,,,,,,,,,,,,,,,,,,,,,,,,,,,,,,,,,,,,,,,,,,,,,,,,,,,,,,,,,,,,,,,,,,,,,,,,,,,,,,,,,,,,,,,,,,,,,,,,,,,,,,,,,,,,,,,,,,,,
0,1,1,59,1,,615ac6e5216f047d73a04f63,62c539b29489a96cabb6b53b,2022-07-06_09h29.10.769,Colour_Asymmetry_Pilot,2022.1.3,Win32,60.0348202,62c50e9c1127f2cd403a315f,,,,,,,,,,,,,,,,,,,,,,,,,,,,,,,,,,,,,,,,,,,,,,,,,,,,,,,,,,,,,,,,,,,,,,,,,,,,,,,,,,,,,,,,,,,,,,,,,,,,,,,,,,,,,,,,,,,,,,,,,,,,,,,,,,,,,,,,,,,,,,,,,,,,,,,,,,,,,,,,,,,
0,2,2,51,1,,615ac6e5216f047d73a04f63,62c539b29489a96cabb6b53b,2022-07-06_09h29.10.769,Colour_Asymmetry_Pilot,2022.1.3,Win32,60.0348202,62c50e9c1127f2cd403a315f,,,,,,,,,,,,,,,,,,,,,,,,,,,,,,,,,,,,,,,,,,,,,,,,,,,,,,,,,,,,,,,,,,,,,,,,,,,,,,,,,,,,,,,,,,,,,,,,,,,,,,,,,,,,,,,,,,,,,,,,,,,,,,,,,,,,,,,,,,,,,,,,,,,,,,,,,,,,,,,,,,,
0,3,3,0,1,,615ac6e5216f047d73a04f63,62c539b29489a96cabb6b53b,2022-07-06_09h29.10.769,Colour_Asymmetry_Pilot,2022.1.3,Win32,60.0348202,62c50e9c1127f2cd403a315f,,,,,,,,,,,,,,,,,,,,,,,,,,,,,,,,,,,,,,,,,,,,,,,,,,,,,,,,,,,,,,,,,,,,,,,,,,,,,,,,,,,,,,,,,,,,,,,,,,,,,,,,,,,,,,,,,,,,,,,,,,,,,,,,,,,,,,,,,,,,,,,,,,,,,,,,,,,,,,,,,,,
0,4,4,62,1,,615ac6e5216f047d73a04f63,62c539b29489a96cabb6b53b,2022-07-06_09h29.10.769,Colour_Asymmetry_Pilot,2022.1.3,Win32,60.0348202,62c50e9c1127f2cd403a315f,,,,,,,,,,,,,,,,,,,,,,,,,,,,,,,,,,,,,,,,,,,,,,,,,,,,,,,,,,,,,,,,,,,,,,,,,,,,,,,,,,,,,,,,,,,,,,,,,,,,,,,,,,,,,,,,,,,,,,,,,,,,,,,,,,,,,,,,,,,,,,,,,,,,,,,,,,,,,,,,,,,
0,5,5,32,1,,615ac6e5216f047d73a04f63,62c539b29489a96cabb6b53b,2022-07-06_09h29.10.769,Colour_Asymmetry_Pilot,2022.1.3,Win32,60.0348202,62c50e9c1127f2cd403a315f,,,,,,,,,,,,,,,,,,,,,,,,,,,,,,,,,,,,,,,,,,,,,,,,,,,,,,,,,,,,,,,,,,,,,,,,,,,,,,,,,,,,,,,,,,,,,,,,,,,,,,,,,,,,,,,,,,,,,,,,,,,,,,,,,,,,,,,,,,,,,,,,,,,,,,,,,,,,,,,,,,,
0,6,6,48,1,,615ac6e5216f047d73a04f63,62c539b29489a96cabb6b53b,2022-07-06_09h29.10.769,Colour_Asymmetry_Pilot,2022.1.3,Win32,60.0348202,62c50e9c1127f2cd403a315f,,,,,,,,,,,,,,,,,,,,,,,,,,,,,,,,,,,,,,,,,,,,,,,,,,,,,,,,,,,,,,,,,,,,,,,,,,,,,,,,,,,,,,,,,,,,,,,,,,,,,,,,,,,,,,,,,,,,,,,,,,,,,,,,,,,,,,,,,,,,,,,,,,,,,,,,,,,,,,,,,,,
0,7,7,13,1,,615ac6e5216f047d73a04f63,62c539b29489a96cabb6b53b,2022-07-06_09h29.10.769,Colour_Asymmetry_Pilot,2022.1.3,Win32,60.0348202,62c50e9c1127f2cd403a315f,,,,,,,,,,,,,,,,,,,,,,,,,,,,,,,,,,,,,,,,,,,,,,,,,,,,,,,,,,,,,,,,,,,,,,,,,,,,,,,,,,,,,,,,,,,,,,,,,,,,,,,,,,,,,,,,,,,,,,,,,,,,,,,,,,,,,,,,,,,,,,,,,,,,,,,,,,,,,,,,,,,
0,8,8,37,1,,615ac6e5216f047d73a04f63,62c539b29489a96cabb6b53b,2022-07-06_09h29.10.769,Colour_Asymmetry_Pilot,2022.1.3,Win32,60.0348202,62c50e9c1127f2cd403a315f,,,,,,,,,,,,,,,,,,,,,,,,,,,,,,,,,,,,,,,,,,,,,,,,,,,,,,,,,,,,,,,,,,,,,,,,,,,,,,,,,,,,,,,,,,,,,,,,,,,,,,,,,,,,,,,,,,,,,,,,,,,,,,,,,,,,,,,,,,,,,,,,,,,,,,,,,,,,,,,,,,,
0,9,9,75,1,,615ac6e5216f047d73a04f63,62c539b29489a96cabb6b53b,2022-07-06_09h29.10.769,Colour_Asymmetry_Pilot,2022.1.3,Win32,60.0348202,62c50e9c1127f2cd403a315f,,,,,,,,,,,,,,,,,,,,,,,,,,,,,,,,,,,,,,,,,,,,,,,,,,,,,,,,,,,,,,,,,,,,,,,,,,,,,,,,,,,,,,,,,,,,,,,,,,,,,,,,,,,,,,,,,,,,,,,,,,,,,,,,,,,,,,,,,,,,,,,,,,,,,,,,,,,,,,,,,,,
0,10,10,63,1,,615ac6e5216f047d73a04f63,62c539b29489a96cabb6b53b,2022-07-06_09h29.10.769,Colour_Asymmetry_Pilot,2022.1.3,Win32,60.0348202,62c50e9c1127f2cd403a315f,,,,,,,,,,,,,,,,,,,,,,,,,,,,,,,,,,,,,,,,,,,,,,,,,,,,,,,,,,,,,,,,,,,,,,,,,,,,,,,,,,,,,,,,,,,,,,,,,,,,,,,,,,,,,,,,,,,,,,,,,,,,,,,,,,,,,,,,,,,,,,,,,,,,,,,,,,,,,,,,,,,
0,11,11,8,1,,615ac6e5216f047d73a04f63,62c539b29489a96cabb6b53b,2022-07-06_09h29.10.769,Colour_Asymmetry_Pilot,2022.1.3,Win32,60.0348202,62c50e9c1127f2cd403a315f,,,,,,,,,,,,,,,,,,,,,,,,,,,,,,,,,,,,,,,,,,,,,,,,,,,,,,,,,,,,,,,,,,,,,,,,,,,,,,,,,,,,,,,,,,,,,,,,,,,,,,,,,,,,,,,,,,,,,,,,,,,,,,,,,,,,,,,,,,,,,,,,,,,,,,,,,,,,,,,,,,,
0,12,12,5,1,,615ac6e5216f047d73a04f63,62c539b29489a96cabb6b53b,2022-07-06_09h29.10.769,Colour_Asymmetry_Pilot,2022.1.3,Win32,60.0348202,62c50e9c1127f2cd403a315f,,,,,,,,,,,,,,,,,,,,,,,,,,,,,,,,,,,,,,,,,,,,,,,,,,,,,,,,,,,,,,,,,,,,,,,,,,,,,,,,,,,,,,,,,,,,,,,,,,,,,,,,,,,,,,,,,,,,,,,,,,,,,,,,,,,,,,,,,,,,,,,,,,,,,,,,,,,,,,,,,,,
0,13,13,22,1,,615ac6e5216f047d73a04f63,62c539b29489a96cabb6b53b,2022-07-06_09h29.10.769,Colour_Asymmetry_Pilot,2022.1.3,Win32,60.0348202,62c50e9c1127f2cd403a315f,,,,,,,,,,,,,,,,,,,,,,,,,,,,,,,,,,,,,,,,,,,,,,,,,,,,,,,,,,,,,,,,,,,,,,,,,,,,,,,,,,,,,,,,,,,,,,,,,,,,,,,,,,,,,,,,,,,,,,,,,,,,,,,,,,,,,,,,,,,,,,,,,,,,,,,,,,,,,,,,,,,
0,14,14,35,1,,615ac6e5216f047d73a04f63,62c539b29489a96cabb6b53b,2022-07-06_09h29.10.769,Colour_Asymmetry_Pilot,2022.1.3,Win32,60.0348202,62c50e9c1127f2cd403a315f,,,,,,,,,,,,,,,,,,,,,,,,,,,,,,,,,,,,,,,,,,,,,,,,,,,,,,,,,,,,,,,,,,,,,,,,,,,,,,,,,,,,,,,,,,,,,,,,,,,,,,,,,,,,,,,,,,,,,,,,,,,,,,,,,,,,,,,,,,,,,,,,,,,,,,,,,,,,,,,,,,,
0,15,15,82,1,,615ac6e5216f047d73a04f63,62c539b29489a96cabb6b53b,2022-07-06_09h29.10.769,Colour_Asymmetry_Pilot,2022.1.3,Win32,60.0348202,62c50e9c1127f2cd403a315f,,,,,,,,,,,,,,,,,,,,,,,,,,,,,,,,,,,,,,,,,,,,,,,,,,,,,,,,,,,,,,,,,,,,,,,,,,,,,,,,,,,,,,,,,,,,,,,,,,,,,,,,,,,,,,,,,,,,,,,,,,,,,,,,,,,,,,,,,,,,,,,,,,,,,,,,,,,,,,,,,,,
0,16,16,74,1,,615ac6e5216f047d73a04f63,62c539b29489a96cabb6b53b,2022-07-06_09h29.10.769,Colour_Asymmetry_Pilot,2022.1.3,Win32,60.0348202,62c50e9c1127f2cd403a315f,,,,,,,,,,,,,,,,,,,,,,,,,,,,,,,,,,,,,,,,,,,,,,,,,,,,,,,,,,,,,,,,,,,,,,,,,,,,,,,,,,,,,,,,,,,,,,,,,,,,,,,,,,,,,,,,,,,,,,,,,,,,,,,,,,,,,,,,,,,,,,,,,,,,,,,,,,,,,,,,,,,
0,17,17,25,1,,615ac6e5216f047d73a04f63,62c539b29489a96cabb6b53b,2022-07-06_09h29.10.769,Colour_Asymmetry_Pilot,2022.1.3,Win32,60.0348202,62c50e9c1127f2cd403a315f,,,,,,,,,,,,,,,,,,,,,,,,,,,,,,,,,,,,,,,,,,,,,,,,,,,,,,,,,,,,,,,,,,,,,,,,,,,,,,,,,,,,,,,,,,,,,,,,,,,,,,,,,,,,,,,,,,,,,,,,,,,,,,,,,,,,,,,,,,,,,,,,,,,,,,,,,,,,,,,,,,,
0,18,18,12,1,,615ac6e5216f047d73a04f63,62c539b29489a96cabb6b53b,2022-07-06_09h29.10.769,Colour_Asymmetry_Pilot,2022.1.3,Win32,60.0348202,62c50e9c1127f2cd403a315f,,,,,,,,,,,,,,,,,,,,,,,,,,,,,,,,,,,,,,,,,,,,,,,,,,,,,,,,,,,,,,,,,,,,,,,,,,,,,,,,,,,,,,,,,,,,,,,,,,,,,,,,,,,,,,,,,,,,,,,,,,,,,,,,,,,,,,,,,,,,,,,,,,,,,,,,,,,,,,,,,,,
0,19,19,57,1,,615ac6e5216f047d73a04f63,62c539b29489a96cabb6b53b,2022-07-06_09h29.10.769,Colour_Asymmetry_Pilot,2022.1.3,Win32,60.0348202,62c50e9c1127f2cd403a315f,,,,,,,,,,,,,,,,,,,,,,,,,,,,,,,,,,,,,,,,,,,,,,,,,,,,,,,,,,,,,,,,,,,,,,,,,,,,,,,,,,,,,,,,,,,,,,,,,,,,,,,,,,,,,,,,,,,,,,,,,,,,,,,,,,,,,,,,,,,,,,,,,,,,,,,,,,,,,,,,,,,
0,20,20,73,1,,615ac6e5216f047d73a04f63,62c539b29489a96cabb6b53b,2022-07-06_09h29.10.769,Colour_Asymmetry_Pilot,2022.1.3,Win32,60.0348202,62c50e9c1127f2cd403a315f,,,,,,,,,,,,,,,,,,,,,,,,,,,,,,,,,,,,,,,,,,,,,,,,,,,,,,,,,,,,,,,,,,,,,,,,,,,,,,,,,,,,,,,,,,,,,,,,,,,,,,,,,,,,,,,,,,,,,,,,,,,,,,,,,,,,,,,,,,,,,,,,,,,,,,,,,,,,,,,,,,,
0,21,21,65,1,,615ac6e5216f047d73a04f63,62c539b29489a96cabb6b53b,2022-07-06_09h29.10.769,Colour_Asymmetry_Pilot,2022.1.3,Win32,60.0348202,62c50e9c1127f2cd403a315f,,,,,,,,,,,,,,,,,,,,,,,,,,,,,,,,,,,,,,,,,,,,,,,,,,,,,,,,,,,,,,,,,,,,,,,,,,,,,,,,,,,,,,,,,,,,,,,,,,,,,,,,,,,,,,,,,,,,,,,,,,,,,,,,,,,,,,,,,,,,,,,,,,,,,,,,,,,,,,,,,,,
0,22,22,91,1,,615ac6e5216f047d73a04f63,62c539b29489a96cabb6b53b,2022-07-06_09h29.10.769,Colour_Asymmetry_Pilot,2022.1.3,Win32,60.0348202,62c50e9c1127f2cd403a315f,,,,,,,,,,,,,,,,,,,,,,,,,,,,,,,,,,,,,,,,,,,,,,,,,,,,,,,,,,,,,,,,,,,,,,,,,,,,,,,,,,,,,,,,,,,,,,,,,,,,,,,,,,,,,,,,,,,,,,,,,,,,,,,,,,,,,,,,,,,,,,,,,,,,,,,,,,,,,,,,,,,
0,23,23,24,1,,615ac6e5216f047d73a04f63,62c539b29489a96cabb6b53b,2022-07-06_09h29.10.769,Colour_Asymmetry_Pilot,2022.1.3,Win32,60.0348202,62c50e9c1127f2cd403a315f,,,,,,,,,,,,,,,,,,,,,,,,,,,,,,,,,,,,,,,,,,,,,,,,,,,,,,,,,,,,,,,,,,,,,,,,,,,,,,,,,,,,,,,,,,,,,,,,,,,,,,,,,,,,,,,,,,,,,,,,,,,,,,,,,,,,,,,,,,,,,,,,,,,,,,,,,,,,,,,,,,,
0,24,24,69,1,,615ac6e5216f047d73a04f63,62c539b29489a96cabb6b53b,2022-07-06_09h29.10.769,Colour_Asymmetry_Pilot,2022.1.3,Win32,60.0348202,62c50e9c1127f2cd403a315f,,,,,,,,,,,,,,,,,,,,,,,,,,,,,,,,,,,,,,,,,,,,,,,,,,,,,,,,,,,,,,,,,,,,,,,,,,,,,,,,,,,,,,,,,,,,,,,,,,,,,,,,,,,,,,,,,,,,,,,,,,,,,,,,,,,,,,,,,,,,,,,,,,,,,,,,,,,,,,,,,,,
0,25,25,10,1,,615ac6e5216f047d73a04f63,62c539b29489a96cabb6b53b,2022-07-06_09h29.10.769,Colour_Asymmetry_Pilot,2022.1.3,Win32,60.0348202,62c50e9c1127f2cd403a315f,,,,,,,,,,,,,,,,,,,,,,,,,,,,,,,,,,,,,,,,,,,,,,,,,,,,,,,,,,,,,,,,,,,,,,,,,,,,,,,,,,,,,,,,,,,,,,,,,,,,,,,,,,,,,,,,,,,,,,,,,,,,,,,,,,,,,,,,,,,,,,,,,,,,,,,,,,,,,,,,,,,
0,26,26,40,1,,615ac6e5216f047d73a04f63,62c539b29489a96cabb6b53b,2022-07-06_09h29.10.769,Colour_Asymmetry_Pilot,2022.1.3,Win32,60.0348202,62c50e9c1127f2cd403a315f,,,,,,,,,,,,,,,,,,,,,,,,,,,,,,,,,,,,,,,,,,,,,,,,,,,,,,,,,,,,,,,,,,,,,,,,,,,,,,,,,,,,,,,,,,,,,,,,,,,,,,,,,,,,,,,,,,,,,,,,,,,,,,,,,,,,,,,,,,,,,,,,,,,,,,,,,,,,,,,,,,,
0,27,27,56,1,,615ac6e5216f047d73a04f63,62c539b29489a96cabb6b53b,2022-07-06_09h29.10.769,Colour_Asymmetry_Pilot,2022.1.3,Win32,60.0348202,62c50e9c1127f2cd403a315f,,,,,,,,,,,,,,,,,,,,,,,,,,,,,,,,,,,,,,,,,,,,,,,,,,,,,,,,,,,,,,,,,,,,,,,,,,,,,,,,,,,,,,,,,,,,,,,,,,,,,,,,,,,,,,,,,,,,,,,,,,,,,,,,,,,,,,,,,,,,,,,,,,,,,,,,,,,,,,,,,,,
0,28,28,67,1,,615ac6e5216f047d73a04f63,62c539b29489a96cabb6b53b,2022-07-06_09h29.10.769,Colour_Asymmetry_Pilot,2022.1.3,Win32,60.0348202,62c50e9c1127f2cd403a315f,,,,,,,,,,,,,,,,,,,,,,,,,,,,,,,,,,,,,,,,,,,,,,,,,,,,,,,,,,,,,,,,,,,,,,,,,,,,,,,,,,,,,,,,,,,,,,,,,,,,,,,,,,,,,,,,,,,,,,,,,,,,,,,,,,,,,,,,,,,,,,,,,,,,,,,,,,,,,,,,,,,
0,29,29,38,1,,615ac6e5216f047d73a04f63,62c539b29489a96cabb6b53b,2022-07-06_09h29.10.769,Colour_Asymmetry_Pilot,2022.1.3,Win32,60.0348202,62c50e9c1127f2cd403a315f,,,,,,,,,,,,,,,,,,,,,,,,,,,,,,,,,,,,,,,,,,,,,,,,,,,,,,,,,,,,,,,,,,,,,,,,,,,,,,,,,,,,,,,,,,,,,,,,,,,,,,,,,,,,,,,,,,,,,,,,,,,,,,,,,,,,,,,,,,,,,,,,,,,,,,,,,,,,,,,,,,,
0,30,30,46,1,,615ac6e5216f047d73a04f63,62c539b29489a96cabb6b53b,2022-07-06_09h29.10.769,Colour_Asymmetry_Pilot,2022.1.3,Win32,60.0348202,62c50e9c1127f2cd403a315f,,,,,,,,,,,,,,,,,,,,,,,,,,,,,,,,,,,,,,,,,,,,,,,,,,,,,,,,,,,,,,,,,,,,,,,,,,,,,,,,,,,,,,,,,,,,,,,,,,,,,,,,,,,,,,,,,,,,,,,,,,,,,,,,,,,,,,,,,,,,,,,,,,,,,,,,,,,,,,,,,,,
0,31,31,77,1,,615ac6e5216f047d73a04f63,62c539b29489a96cabb6b53b,2022-07-06_09h29.10.769,Colour_Asymmetry_Pilot,2022.1.3,Win32,60.0348202,62c50e9c1127f2cd403a315f,,,,,,,,,,,,,,,,,,,,,,,,,,,,,,,,,,,,,,,,,,,,,,,,,,,,,,,,,,,,,,,,,,,,,,,,,,,,,,,,,,,,,,,,,,,,,,,,,,,,,,,,,,,,,,,,,,,,,,,,,,,,,,,,,,,,,,,,,,,,,,,,,,,,,,,,,,,,,,,,,,,
0,32,32,52,1,,615ac6e5216f047d73a04f63,62c539b29489a96cabb6b53b,2022-07-06_09h29.10.769,Colour_Asymmetry_Pilot,2022.1.3,Win32,60.0348202,62c50e9c1127f2cd403a315f,,,,,,,,,,,,,,,,,,,,,,,,,,,,,,,,,,,,,,,,,,,,,,,,,,,,,,,,,,,,,,,,,,,,,,,,,,,,,,,,,,,,,,,,,,,,,,,,,,,,,,,,,,,,,,,,,,,,,,,,,,,,,,,,,,,,,,,,,,,,,,,,,,,,,,,,,,,,,,,,,,,
0,33,33,39,1,,615ac6e5216f047d73a04f63,62c539b29489a96cabb6b53b,2022-07-06_09h29.10.769,Colour_Asymmetry_Pilot,2022.1.3,Win32,60.0348202,62c50e9c1127f2cd403a315f,,,,,,,,,,,,,,,,,,,,,,,,,,,,,,,,,,,,,,,,,,,,,,,,,,,,,,,,,,,,,,,,,,,,,,,,,,,,,,,,,,,,,,,,,,,,,,,,,,,,,,,,,,,,,,,,,,,,,,,,,,,,,,,,,,,,,,,,,,,,,,,,,,,,,,,,,,,,,,,,,,,
0,34,34,6,1,,615ac6e5216f047d73a04f63,62c539b29489a96cabb6b53b,2022-07-06_09h29.10.769,Colour_Asymmetry_Pilot,2022.1.3,Win32,60.0348202,62c50e9c1127f2cd403a315f,,,,,,,,,,,,,,,,,,,,,,,,,,,,,,,,,,,,,,,,,,,,,,,,,,,,,,,,,,,,,,,,,,,,,,,,,,,,,,,,,,,,,,,,,,,,,,,,,,,,,,,,,,,,,,,,,,,,,,,,,,,,,,,,,,,,,,,,,,,,,,,,,,,,,,,,,,,,,,,,,,,
0,35,35,47,1,,615ac6e5216f047d73a04f63,62c539b29489a96cabb6b53b,2022-07-06_09h29.10.769,Colour_Asymmetry_Pilot,2022.1.3,Win32,60.0348202,62c50e9c1127f2cd403a315f,,,,,,,,,,,,,,,,,,,,,,,,,,,,,,,,,,,,,,,,,,,,,,,,,,,,,,,,,,,,,,,,,,,,,,,,,,,,,,,,,,,,,,,,,,,,,,,,,,,,,,,,,,,,,,,,,,,,,,,,,,,,,,,,,,,,,,,,,,,,,,,,,,,,,,,,,,,,,,,,,,,
0,36,36,84,1,,615ac6e5216f047d73a04f63,62c539b29489a96cabb6b53b,2022-07-06_09h29.10.769,Colour_Asymmetry_Pilot,2022.1.3,Win32,60.0348202,62c50e9c1127f2cd403a315f,,,,,,,,,,,,,,,,,,,,,,,,,,,,,,,,,,,,,,,,,,,,,,,,,,,,,,,,,,,,,,,,,,,,,,,,,,,,,,,,,,,,,,,,,,,,,,,,,,,,,,,,,,,,,,,,,,,,,,,,,,,,,,,,,,,,,,,,,,,,,,,,,,,,,,,,,,,,,,,,,,,
0,37,37,3,1,,615ac6e5216f047d73a04f63,62c539b29489a96cabb6b53b,2022-07-06_09h29.10.769,Colour_Asymmetry_Pilot,2022.1.3,Win32,60.0348202,62c50e9c1127f2cd403a315f,,,,,,,,,,,,,,,,,,,,,,,,,,,,,,,,,,,,,,,,,,,,,,,,,,,,,,,,,,,,,,,,,,,,,,,,,,,,,,,,,,,,,,,,,,,,,,,,,,,,,,,,,,,,,,,,,,,,,,,,,,,,,,,,,,,,,,,,,,,,,,,,,,,,,,,,,,,,,,,,,,,
0,38,38,58,1,,615ac6e5216f047d73a04f63,62c539b29489a96cabb6b53b,2022-07-06_09h29.10.769,Colour_Asymmetry_Pilot,2022.1.3,Win32,60.0348202,62c50e9c1127f2cd403a315f,,,,,,,,,,,,,,,,,,,,,,,,,,,,,,,,,,,,,,,,,,,,,,,,,,,,,,,,,,,,,,,,,,,,,,,,,,,,,,,,,,,,,,,,,,,,,,,,,,,,,,,,,,,,,,,,,,,,,,,,,,,,,,,,,,,,,,,,,,,,,,,,,,,,,,,,,,,,,,,,,,,
0,39,39,83,1,,615ac6e5216f047d73a04f63,62c539b29489a96cabb6b53b,2022-07-06_09h29.10.769,Colour_Asymmetry_Pilot,2022.1.3,Win32,60.0348202,62c50e9c1127f2cd403a315f,,,,,,,,,,,,,,,,,,,,,,,,,,,,,,,,,,,,,,,,,,,,,,,,,,,,,,,,,,,,,,,,,,,,,,,,,,,,,,,,,,,,,,,,,,,,,,,,,,,,,,,,,,,,,,,,,,,,,,,,,,,,,,,,,,,,,,,,,,,,,,,,,,,,,,,,,,,,,,,,,,,
0,40,40,92,1,,615ac6e5216f047d73a04f63,62c539b29489a96cabb6b53b,2022-07-06_09h29.10.769,Colour_Asymmetry_Pilot,2022.1.3,Win32,60.0348202,62c50e9c1127f2cd403a315f,,,,,,,,,,,,,,,,,,,,,,,,,,,,,,,,,,,,,,,,,,,,,,,,,,,,,,,,,,,,,,,,,,,,,,,,,,,,,,,,,,,,,,,,,,,,,,,,,,,,,,,,,,,,,,,,,,,,,,,,,,,,,,,,,,,,,,,,,,,,,,,,,,,,,,,,,,,,,,,,,,,
0,41,41,70,1,,615ac6e5216f047d73a04f63,62c539b29489a96cabb6b53b,2022-07-06_09h29.10.769,Colour_Asymmetry_Pilot,2022.1.3,Win32,60.0348202,62c50e9c1127f2cd403a315f,,,,,,,,,,,,,,,,,,,,,,,,,,,,,,,,,,,,,,,,,,,,,,,,,,,,,,,,,,,,,,,,,,,,,,,,,,,,,,,,,,,,,,,,,,,,,,,,,,,,,,,,,,,,,,,,,,,,,,,,,,,,,,,,,,,,,,,,,,,,,,,,,,,,,,,,,,,,,,,,,,,
0,42,42,42,1,,615ac6e5216f047d73a04f63,62c539b29489a96cabb6b53b,2022-07-06_09h29.10.769,Colour_Asymmetry_Pilot,2022.1.3,Win32,60.0348202,62c50e9c1127f2cd403a315f,,,,,,,,,,,,,,,,,,,,,,,,,,,,,,,,,,,,,,,,,,,,,,,,,,,,,,,,,,,,,,,,,,,,,,,,,,,,,,,,,,,,,,,,,,,,,,,,,,,,,,,,,,,,,,,,,,,,,,,,,,,,,,,,,,,,,,,,,,,,,,,,,,,,,,,,,,,,,,,,,,,
0,43,43,20,1,,615ac6e5216f047d73a04f63,62c539b29489a96cabb6b53b,2022-07-06_09h29.10.769,Colour_Asymmetry_Pilot,2022.1.3,Win32,60.0348202,62c50e9c1127f2cd403a315f,,,,,,,,,,,,,,,,,,,,,,,,,,,,,,,,,,,,,,,,,,,,,,,,,,,,,,,,,,,,,,,,,,,,,,,,,,,,,,,,,,,,,,,,,,,,,,,,,,,,,,,,,,,,,,,,,,,,,,,,,,,,,,,,,,,,,,,,,,,,,,,,,,,,,,,,,,,,,,,,,,,
0,44,44,88,1,,615ac6e5216f047d73a04f63,62c539b29489a96cabb6b53b,2022-07-06_09h29.10.769,Colour_Asymmetry_Pilot,2022.1.3,Win32,60.0348202,62c50e9c1127f2cd403a315f,,,,,,,,,,,,,,,,,,,,,,,,,,,,,,,,,,,,,,,,,,,,,,,,,,,,,,,,,,,,,,,,,,,,,,,,,,,,,,,,,,,,,,,,,,,,,,,,,,,,,,,,,,,,,,,,,,,,,,,,,,,,,,,,,,,,,,,,,,,,,,,,,,,,,,,,,,,,,,,,,,,
0,45,45,27,1,,615ac6e5216f047d73a04f63,62c539b29489a96cabb6b53b,2022-07-06_09h29.10.769,Colour_Asymmetry_Pilot,2022.1.3,Win32,60.0348202,62c50e9c1127f2cd403a315f,,,,,,,,,,,,,,,,,,,,,,,,,,,,,,,,,,,,,,,,,,,,,,,,,,,,,,,,,,,,,,,,,,,,,,,,,,,,,,,,,,,,,,,,,,,,,,,,,,,,,,,,,,,,,,,,,,,,,,,,,,,,,,,,,,,,,,,,,,,,,,,,,,,,,,,,,,,,,,,,,,,
0,46,46,79,1,,615ac6e5216f047d73a04f63,62c539b29489a96cabb6b53b,2022-07-06_09h29.10.769,Colour_Asymmetry_Pilot,2022.1.3,Win32,60.0348202,62c50e9c1127f2cd403a315f,,,,,,,,,,,,,,,,,,,,,,,,,,,,,,,,,,,,,,,,,,,,,,,,,,,,,,,,,,,,,,,,,,,,,,,,,,,,,,,,,,,,,,,,,,,,,,,,,,,,,,,,,,,,,,,,,,,,,,,,,,,,,,,,,,,,,,,,,,,,,,,,,,,,,,,,,,,,,,,,,,,
0,47,47,68,1,,615ac6e5216f047d73a04f63,62c539b29489a96cabb6b53b,2022-07-06_09h29.10.769,Colour_Asymmetry_Pilot,2022.1.3,Win32,60.0348202,62c50e9c1127f2cd403a315f,,,,,,,,,,,,,,,,,,,,,,,,,,,,,,,,,,,,,,,,,,,,,,,,,,,,,,,,,,,,,,,,,,,,,,,,,,,,,,,,,,,,,,,,,,,,,,,,,,,,,,,,,,,,,,,,,,,,,,,,,,,,,,,,,,,,,,,,,,,,,,,,,,,,,,,,,,,,,,,,,,,
0,48,48,72,1,,615ac6e5216f047d73a04f63,62c539b29489a96cabb6b53b,2022-07-06_09h29.10.769,Colour_Asymmetry_Pilot,2022.1.3,Win32,60.0348202,62c50e9c1127f2cd403a315f,,,,,,,,,,,,,,,,,,,,,,,,,,,,,,,,,,,,,,,,,,,,,,,,,,,,,,,,,,,,,,,,,,,,,,,,,,,,,,,,,,,,,,,,,,,,,,,,,,,,,,,,,,,,,,,,,,,,,,,,,,,,,,,,,,,,,,,,,,,,,,,,,,,,,,,,,,,,,,,,,,,
0,49,49,66,1,,615ac6e5216f047d73a04f63,62c539b29489a96cabb6b53b,2022-07-06_09h29.10.769,Colour_Asymmetry_Pilot,2022.1.3,Win32,60.0348202,62c50e9c1127f2cd403a315f,,,,,,,,,,,,,,,,,,,,,,,,,,,,,,,,,,,,,,,,,,,,,,,,,,,,,,,,,,,,,,,,,,,,,,,,,,,,,,,,,,,,,,,,,,,,,,,,,,,,,,,,,,,,,,,,,,,,,,,,,,,,,,,,,,,,,,,,,,,,,,,,,,,,,,,,,,,,,,,,,,,
0,50,50,54,1,,615ac6e5216f047d73a04f63,62c539b29489a96cabb6b53b,2022-07-06_09h29.10.769,Colour_Asymmetry_Pilot,2022.1.3,Win32,60.0348202,62c50e9c1127f2cd403a315f,,,,,,,,,,,,,,,,,,,,,,,,,,,,,,,,,,,,,,,,,,,,,,,,,,,,,,,,,,,,,,,,,,,,,,,,,,,,,,,,,,,,,,,,,,,,,,,,,,,,,,,,,,,,,,,,,,,,,,,,,,,,,,,,,,,,,,,,,,,,,,,,,,,,,,,,,,,,,,,,,,,
0,51,51,23,1,,615ac6e5216f047d73a04f63,62c539b29489a96cabb6b53b,2022-07-06_09h29.10.769,Colour_Asymmetry_Pilot,2022.1.3,Win32,60.0348202,62c50e9c1127f2cd403a315f,,,,,,,,,,,,,,,,,,,,,,,,,,,,,,,,,,,,,,,,,,,,,,,,,,,,,,,,,,,,,,,,,,,,,,,,,,,,,,,,,,,,,,,,,,,,,,,,,,,,,,,,,,,,,,,,,,,,,,,,,,,,,,,,,,,,,,,,,,,,,,,,,,,,,,,,,,,,,,,,,,,
0,52,52,34,1,,615ac6e5216f047d73a04f63,62c539b29489a96cabb6b53b,2022-07-06_09h29.10.769,Colour_Asymmetry_Pilot,2022.1.3,Win32,60.0348202,62c50e9c1127f2cd403a315f,,,,,,,,,,,,,,,,,,,,,,,,,,,,,,,,,,,,,,,,,,,,,,,,,,,,,,,,,,,,,,,,,,,,,,,,,,,,,,,,,,,,,,,,,,,,,,,,,,,,,,,,,,,,,,,,,,,,,,,,,,,,,,,,,,,,,,,,,,,,,,,,,,,,,,,,,,,,,,,,,,,
0,53,53,45,1,,615ac6e5216f047d73a04f63,62c539b29489a96cabb6b53b,2022-07-06_09h29.10.769,Colour_Asymmetry_Pilot,2022.1.3,Win32,60.0348202,62c50e9c1127f2cd403a315f,,,,,,,,,,,,,,,,,,,,,,,,,,,,,,,,,,,,,,,,,,,,,,,,,,,,,,,,,,,,,,,,,,,,,,,,,,,,,,,,,,,,,,,,,,,,,,,,,,,,,,,,,,,,,,,,,,,,,,,,,,,,,,,,,,,,,,,,,,,,,,,,,,,,,,,,,,,,,,,,,,,
0,54,54,50,1,,615ac6e5216f047d73a04f63,62c539b29489a96cabb6b53b,2022-07-06_09h29.10.769,Colour_Asymmetry_Pilot,2022.1.3,Win32,60.0348202,62c50e9c1127f2cd403a315f,,,,,,,,,,,,,,,,,,,,,,,,,,,,,,,,,,,,,,,,,,,,,,,,,,,,,,,,,,,,,,,,,,,,,,,,,,,,,,,,,,,,,,,,,,,,,,,,,,,,,,,,,,,,,,,,,,,,,,,,,,,,,,,,,,,,,,,,,,,,,,,,,,,,,,,,,,,,,,,,,,,
0,55,55,78,1,,615ac6e5216f047d73a04f63,62c539b29489a96cabb6b53b,2022-07-06_09h29.10.769,Colour_Asymmetry_Pilot,2022.1.3,Win32,60.0348202,62c50e9c1127f2cd403a315f,,,,,,,,,,,,,,,,,,,,,,,,,,,,,,,,,,,,,,,,,,,,,,,,,,,,,,,,,,,,,,,,,,,,,,,,,,,,,,,,,,,,,,,,,,,,,,,,,,,,,,,,,,,,,,,,,,,,,,,,,,,,,,,,,,,,,,,,,,,,,,,,,,,,,,,,,,,,,,,,,,,
0,56,56,53,1,,615ac6e5216f047d73a04f63,62c539b29489a96cabb6b53b,2022-07-06_09h29.10.769,Colour_Asymmetry_Pilot,2022.1.3,Win32,60.0348202,62c50e9c1127f2cd403a315f,,,,,,,,,,,,,,,,,,,,,,,,,,,,,,,,,,,,,,,,,,,,,,,,,,,,,,,,,,,,,,,,,,,,,,,,,,,,,,,,,,,,,,,,,,,,,,,,,,,,,,,,,,,,,,,,,,,,,,,,,,,,,,,,,,,,,,,,,,,,,,,,,,,,,,,,,,,,,,,,,,,
0,57,57,2,1,,615ac6e5216f047d73a04f63,62c539b29489a96cabb6b53b,2022-07-06_09h29.10.769,Colour_Asymmetry_Pilot,2022.1.3,Win32,60.0348202,62c50e9c1127f2cd403a315f,,,,,,,,,,,,,,,,,,,,,,,,,,,,,,,,,,,,,,,,,,,,,,,,,,,,,,,,,,,,,,,,,,,,,,,,,,,,,,,,,,,,,,,,,,,,,,,,,,,,,,,,,,,,,,,,,,,,,,,,,,,,,,,,,,,,,,,,,,,,,,,,,,,,,,,,,,,,,,,,,,,
0,58,58,81,1,,615ac6e5216f047d73a04f63,62c539b29489a96cabb6b53b,2022-07-06_09h29.10.769,Colour_Asymmetry_Pilot,2022.1.3,Win32,60.0348202,62c50e9c1127f2cd403a315f,,,,,,,,,,,,,,,,,,,,,,,,,,,,,,,,,,,,,,,,,,,,,,,,,,,,,,,,,,,,,,,,,,,,,,,,,,,,,,,,,,,,,,,,,,,,,,,,,,,,,,,,,,,,,,,,,,,,,,,,,,,,,,,,,,,,,,,,,,,,,,,,,,,,,,,,,,,,,,,,,,,
0,59,59,76,1,,615ac6e5216f047d73a04f63,62c539b29489a96cabb6b53b,2022-07-06_09h29.10.769,Colour_Asymmetry_Pilot,2022.1.3,Win32,60.0348202,62c50e9c1127f2cd403a315f,,,,,,,,,,,,,,,,,,,,,,,,,,,,,,,,,,,,,,,,,,,,,,,,,,,,,,,,,,,,,,,,,,,,,,,,,,,,,,,,,,,,,,,,,,,,,,,,,,,,,,,,,,,,,,,,,,,,,,,,,,,,,,,,,,,,,,,,,,,,,,,,,,,,,,,,,,,,,,,,,,,
0,60,60,43,1,,615ac6e5216f047d73a04f63,62c539b29489a96cabb6b53b,2022-07-06_09h29.10.769,Colour_Asymmetry_Pilot,2022.1.3,Win32,60.0348202,62c50e9c1127f2cd403a315f,,,,,,,,,,,,,,,,,,,,,,,,,,,,,,,,,,,,,,,,,,,,,,,,,,,,,,,,,,,,,,,,,,,,,,,,,,,,,,,,,,,,,,,,,,,,,,,,,,,,,,,,,,,,,,,,,,,,,,,,,,,,,,,,,,,,,,,,,,,,,,,,,,,,,,,,,,,,,,,,,,,
0,61,61,64,1,,615ac6e5216f047d73a04f63,62c539b29489a96cabb6b53b,2022-07-06_09h29.10.769,Colour_Asymmetry_Pilot,2022.1.3,Win32,60.0348202,62c50e9c1127f2cd403a315f,,,,,,,,,,,,,,,,,,,,,,,,,,,,,,,,,,,,,,,,,,,,,,,,,,,,,,,,,,,,,,,,,,,,,,,,,,,,,,,,,,,,,,,,,,,,,,,,,,,,,,,,,,,,,,,,,,,,,,,,,,,,,,,,,,,,,,,,,,,,,,,,,,,,,,,,,,,,,,,,,,,
0,62,62,85,1,,615ac6e5216f047d73a04f63,62c539b29489a96cabb6b53b,2022-07-06_09h29.10.769,Colour_Asymmetry_Pilot,2022.1.3,Win32,60.0348202,62c50e9c1127f2cd403a315f,,,,,,,,,,,,,,,,,,,,,,,,,,,,,,,,,,,,,,,,,,,,,,,,,,,,,,,,,,,,,,,,,,,,,,,,,,,,,,,,,,,,,,,,,,,,,,,,,,,,,,,,,,,,,,,,,,,,,,,,,,,,,,,,,,,,,,,,,,,,,,,,,,,,,,,,,,,,,,,,,,,
0,63,63,29,1,,615ac6e5216f047d73a04f63,62c539b29489a96cabb6b53b,2022-07-06_09h29.10.769,Colour_Asymmetry_Pilot,2022.1.3,Win32,60.0348202,62c50e9c1127f2cd403a315f,,,,,,,,,,,,,,,,,,,,,,,,,,,,,,,,,,,,,,,,,,,,,,,,,,,,,,,,,,,,,,,,,,,,,,,,,,,,,,,,,,,,,,,,,,,,,,,,,,,,,,,,,,,,,,,,,,,,,,,,,,,,,,,,,,,,,,,,,,,,,,,,,,,,,,,,,,,,,,,,,,,
0,64,64,17,1,,615ac6e5216f047d73a04f63,62c539b29489a96cabb6b53b,2022-07-06_09h29.10.769,Colour_Asymmetry_Pilot,2022.1.3,Win32,60.0348202,62c50e9c1127f2cd403a315f,,,,,,,,,,,,,,,,,,,,,,,,,,,,,,,,,,,,,,,,,,,,,,,,,,,,,,,,,,,,,,,,,,,,,,,,,,,,,,,,,,,,,,,,,,,,,,,,,,,,,,,,,,,,,,,,,,,,,,,,,,,,,,,,,,,,,,,,,,,,,,,,,,,,,,,,,,,,,,,,,,,
0,65,65,19,1,,615ac6e5216f047d73a04f63,62c539b29489a96cabb6b53b,2022-07-06_09h29.10.769,Colour_Asymmetry_Pilot,2022.1.3,Win32,60.0348202,62c50e9c1127f2cd403a315f,,,,,,,,,,,,,,,,,,,,,,,,,,,,,,,,,,,,,,,,,,,,,,,,,,,,,,,,,,,,,,,,,,,,,,,,,,,,,,,,,,,,,,,,,,,,,,,,,,,,,,,,,,,,,,,,,,,,,,,,,,,,,,,,,,,,,,,,,,,,,,,,,,,,,,,,,,,,,,,,,,,
0,66,66,7,1,,615ac6e5216f047d73a04f63,62c539b29489a96cabb6b53b,2022-07-06_09h29.10.769,Colour_Asymmetry_Pilot,2022.1.3,Win32,60.0348202,62c50e9c1127f2cd403a315f,,,,,,,,,,,,,,,,,,,,,,,,,,,,,,,,,,,,,,,,,,,,,,,,,,,,,,,,,,,,,,,,,,,,,,,,,,,,,,,,,,,,,,,,,,,,,,,,,,,,,,,,,,,,,,,,,,,,,,,,,,,,,,,,,,,,,,,,,,,,,,,,,,,,,,,,,,,,,,,,,,,
0,67,67,1,1,,615ac6e5216f047d73a04f63,62c539b29489a96cabb6b53b,2022-07-06_09h29.10.769,Colour_Asymmetry_Pilot,2022.1.3,Win32,60.0348202,62c50e9c1127f2cd403a315f,,,,,,,,,,,,,,,,,,,,,,,,,,,,,,,,,,,,,,,,,,,,,,,,,,,,,,,,,,,,,,,,,,,,,,,,,,,,,,,,,,,,,,,,,,,,,,,,,,,,,,,,,,,,,,,,,,,,,,,,,,,,,,,,,,,,,,,,,,,,,,,,,,,,,,,,,,,,,,,,,,,
0,68,68,14,1,,615ac6e5216f047d73a04f63,62c539b29489a96cabb6b53b,2022-07-06_09h29.10.769,Colour_Asymmetry_Pilot,2022.1.3,Win32,60.0348202,62c50e9c1127f2cd403a315f,,,,,,,,,,,,,,,,,,,,,,,,,,,,,,,,,,,,,,,,,,,,,,,,,,,,,,,,,,,,,,,,,,,,,,,,,,,,,,,,,,,,,,,,,,,,,,,,,,,,,,,,,,,,,,,,,,,,,,,,,,,,,,,,,,,,,,,,,,,,,,,,,,,,,,,,,,,,,,,,,,,
0,69,69,87,1,,615ac6e5216f047d73a04f63,62c539b29489a96cabb6b53b,2022-07-06_09h29.10.769,Colour_Asymmetry_Pilot,2022.1.3,Win32,60.0348202,62c50e9c1127f2cd403a315f,,,,,,,,,,,,,,,,,,,,,,,,,,,,,,,,,,,,,,,,,,,,,,,,,,,,,,,,,,,,,,,,,,,,,,,,,,,,,,,,,,,,,,,,,,,,,,,,,,,,,,,,,,,,,,,,,,,,,,,,,,,,,,,,,,,,,,,,,,,,,,,,,,,,,,,,,,,,,,,,,,,
0,70,70,44,1,,615ac6e5216f047d73a04f63,62c539b29489a96cabb6b53b,2022-07-06_09h29.10.769,Colour_Asymmetry_Pilot,2022.1.3,Win32,60.0348202,62c50e9c1127f2cd403a315f,,,,,,,,,,,,,,,,,,,,,,,,,,,,,,,,,,,,,,,,,,,,,,,,,,,,,,,,,,,,,,,,,,,,,,,,,,,,,,,,,,,,,,,,,,,,,,,,,,,,,,,,,,,,,,,,,,,,,,,,,,,,,,,,,,,,,,,,,,,,,,,,,,,,,,,,,,,,,,,,,,,
0,71,71,4,1,,615ac6e5216f047d73a04f63,62c539b29489a96cabb6b53b,2022-07-06_09h29.10.769,Colour_Asymmetry_Pilot,2022.1.3,Win32,60.0348202,62c50e9c1127f2cd403a315f,,,,,,,,,,,,,,,,,,,,,,,,,,,,,,,,,,,,,,,,,,,,,,,,,,,,,,,,,,,,,,,,,,,,,,,,,,,,,,,,,,,,,,,,,,,,,,,,,,,,,,,,,,,,,,,,,,,,,,,,,,,,,,,,,,,,,,,,,,,,,,,,,,,,,,,,,,,,,,,,,,,
0,72,72,60,1,,615ac6e5216f047d73a04f63,62c539b29489a96cabb6b53b,2022-07-06_09h29.10.769,Colour_Asymmetry_Pilot,2022.1.3,Win32,60.0348202,62c50e9c1127f2cd403a315f,,,,,,,,,,,,,,,,,,,,,,,,,,,,,,,,,,,,,,,,,,,,,,,,,,,,,,,,,,,,,,,,,,,,,,,,,,,,,,,,,,,,,,,,,,,,,,,,,,,,,,,,,,,,,,,,,,,,,,,,,,,,,,,,,,,,,,,,,,,,,,,,,,,,,,,,,,,,,,,,,,,
0,73,73,18,1,,615ac6e5216f047d73a04f63,62c539b29489a96cabb6b53b,2022-07-06_09h29.10.769,Colour_Asymmetry_Pilot,2022.1.3,Win32,60.0348202,62c50e9c1127f2cd403a315f,,,,,,,,,,,,,,,,,,,,,,,,,,,,,,,,,,,,,,,,,,,,,,,,,,,,,,,,,,,,,,,,,,,,,,,,,,,,,,,,,,,,,,,,,,,,,,,,,,,,,,,,,,,,,,,,,,,,,,,,,,,,,,,,,,,,,,,,,,,,,,,,,,,,,,,,,,,,,,,,,,,
0,74,74,41,1,,615ac6e5216f047d73a04f63,62c539b29489a96cabb6b53b,2022-07-06_09h29.10.769,Colour_Asymmetry_Pilot,2022.1.3,Win32,60.0348202,62c50e9c1127f2cd403a315f,,,,,,,,,,,,,,,,,,,,,,,,,,,,,,,,,,,,,,,,,,,,,,,,,,,,,,,,,,,,,,,,,,,,,,,,,,,,,,,,,,,,,,,,,,,,,,,,,,,,,,,,,,,,,,,,,,,,,,,,,,,,,,,,,,,,,,,,,,,,,,,,,,,,,,,,,,,,,,,,,,,
0,75,75,55,1,,615ac6e5216f047d73a04f63,62c539b29489a96cabb6b53b,2022-07-06_09h29.10.769,Colour_Asymmetry_Pilot,2022.1.3,Win32,60.0348202,62c50e9c1127f2cd403a315f,,,,,,,,,,,,,,,,,,,,,,,,,,,,,,,,,,,,,,,,,,,,,,,,,,,,,,,,,,,,,,,,,,,,,,,,,,,,,,,,,,,,,,,,,,,,,,,,,,,,,,,,,,,,,,,,,,,,,,,,,,,,,,,,,,,,,,,,,,,,,,,,,,,,,,,,,,,,,,,,,,,
0,76,76,89,1,,615ac6e5216f047d73a04f63,62c539b29489a96cabb6b53b,2022-07-06_09h29.10.769,Colour_Asymmetry_Pilot,2022.1.3,Win32,60.0348202,62c50e9c1127f2cd403a315f,,,,,,,,,,,,,,,,,,,,,,,,,,,,,,,,,,,,,,,,,,,,,,,,,,,,,,,,,,,,,,,,,,,,,,,,,,,,,,,,,,,,,,,,,,,,,,,,,,,,,,,,,,,,,,,,,,,,,,,,,,,,,,,,,,,,,,,,,,,,,,,,,,,,,,,,,,,,,,,,,,,
0,77,77,90,1,,615ac6e5216f047d73a04f63,62c539b29489a96cabb6b53b,2022-07-06_09h29.10.769,Colour_Asymmetry_Pilot,2022.1.3,Win32,60.0348202,62c50e9c1127f2cd403a315f,,,,,,,,,,,,,,,,,,,,,,,,,,,,,,,,,,,,,,,,,,,,,,,,,,,,,,,,,,,,,,,,,,,,,,,,,,,,,,,,,,,,,,,,,,,,,,,,,,,,,,,,,,,,,,,,,,,,,,,,,,,,,,,,,,,,,,,,,,,,,,,,,,,,,,,,,,,,,,,,,,,
0,78,78,33,1,,615ac6e5216f047d73a04f63,62c539b29489a96cabb6b53b,2022-07-06_09h29.10.769,Colour_Asymmetry_Pilot,2022.1.3,Win32,60.0348202,62c50e9c1127f2cd403a315f,,,,,,,,,,,,,,,,,,,,,,,,,,,,,,,,,,,,,,,,,,,,,,,,,,,,,,,,,,,,,,,,,,,,,,,,,,,,,,,,,,,,,,,,,,,,,,,,,,,,,,,,,,,,,,,,,,,,,,,,,,,,,,,,,,,,,,,,,,,,,,,,,,,,,,,,,,,,,,,,,,,
0,79,79,31,1,,615ac6e5216f047d73a04f63,62c539b29489a96cabb6b53b,2022-07-06_09h29.10.769,Colour_Asymmetry_Pilot,2022.1.3,Win32,60.0348202,62c50e9c1127f2cd403a315f,,,,,,,,,,,,,,,,,,,,,,,,,,,,,,,,,,,,,,,,,,,,,,,,,,,,,,,,,,,,,,,,,,,,,,,,,,,,,,,,,,,,,,,,,,,,,,,,,,,,,,,,,,,,,,,,,,,,,,,,,,,,,,,,,,,,,,,,,,,,,,,,,,,,,,,,,,,,,,,,,,,
0,80,80,26,1,,615ac6e5216f047d73a04f63,62c539b29489a96cabb6b53b,2022-07-06_09h29.10.769,Colour_Asymmetry_Pilot,2022.1.3,Win32,60.0348202,62c50e9c1127f2cd403a315f,,,,,,,,,,,,,,,,,,,,,,,,,,,,,,,,,,,,,,,,,,,,,,,,,,,,,,,,,,,,,,,,,,,,,,,,,,,,,,,,,,,,,,,,,,,,,,,,,,,,,,,,,,,,,,,,,,,,,,,,,,,,,,,,,,,,,,,,,,,,,,,,,,,,,,,,,,,,,,,,,,,
0,81,81,86,1,,615ac6e5216f047d73a04f63,62c539b29489a96cabb6b53b,2022-07-06_09h29.10.769,Colour_Asymmetry_Pilot,2022.1.3,Win32,60.0348202,62c50e9c1127f2cd403a315f,,,,,,,,,,,,,,,,,,,,,,,,,,,,,,,,,,,,,,,,,,,,,,,,,,,,,,,,,,,,,,,,,,,,,,,,,,,,,,,,,,,,,,,,,,,,,,,,,,,,,,,,,,,,,,,,,,,,,,,,,,,,,,,,,,,,,,,,,,,,,,,,,,,,,,,,,,,,,,,,,,,
0,82,82,16,1,,615ac6e5216f047d73a04f63,62c539b29489a96cabb6b53b,2022-07-06_09h29.10.769,Colour_Asymmetry_Pilot,2022.1.3,Win32,60.0348202,62c50e9c1127f2cd403a315f,,,,,,,,,,,,,,,,,,,,,,,,,,,,,,,,,,,,,,,,,,,,,,,,,,,,,,,,,,,,,,,,,,,,,,,,,,,,,,,,,,,,,,,,,,,,,,,,,,,,,,,,,,,,,,,,,,,,,,,,,,,,,,,,,,,,,,,,,,,,,,,,,,,,,,,,,,,,,,,,,,,
0,83,83,11,1,,615ac6e5216f047d73a04f63,62c539b29489a96cabb6b53b,2022-07-06_09h29.10.769,Colour_Asymmetry_Pilot,2022.1.3,Win32,60.0348202,62c50e9c1127f2cd403a315f,,,,,,,,,,,,,,,,,,,,,,,,,,,,,,,,,,,,,,,,,,,,,,,,,,,,,,,,,,,,,,,,,,,,,,,,,,,,,,,,,,,,,,,,,,,,,,,,,,,,,,,,,,,,,,,,,,,,,,,,,,,,,,,,,,,,,,,,,,,,,,,,,,,,,,,,,,,,,,,,,,,
0,84,84,80,1,,615ac6e5216f047d73a04f63,62c539b29489a96cabb6b53b,2022-07-06_09h29.10.769,Colour_Asymmetry_Pilot,2022.1.3,Win32,60.0348202,62c50e9c1127f2cd403a315f,,,,,,,,,,,,,,,,,,,,,,,,,,,,,,,,,,,,,,,,,,,,,,,,,,,,,,,,,,,,,,,,,,,,,,,,,,,,,,,,,,,,,,,,,,,,,,,,,,,,,,,,,,,,,,,,,,,,,,,,,,,,,,,,,,,,,,,,,,,,,,,,,,,,,,,,,,,,,,,,,,,
0,85,85,49,1,,615ac6e5216f047d73a04f63,62c539b29489a96cabb6b53b,2022-07-06_09h29.10.769,Colour_Asymmetry_Pilot,2022.1.3,Win32,60.0348202,62c50e9c1127f2cd403a315f,,,,,,,,,,,,,,,,,,,,,,,,,,,,,,,,,,,,,,,,,,,,,,,,,,,,,,,,,,,,,,,,,,,,,,,,,,,,,,,,,,,,,,,,,,,,,,,,,,,,,,,,,,,,,,,,,,,,,,,,,,,,,,,,,,,,,,,,,,,,,,,,,,,,,,,,,,,,,,,,,,,
0,86,86,21,1,,615ac6e5216f047d73a04f63,62c539b29489a96cabb6b53b,2022-07-06_09h29.10.769,Colour_Asymmetry_Pilot,2022.1.3,Win32,60.0348202,62c50e9c1127f2cd403a315f,,,,,,,,,,,,,,,,,,,,,,,,,,,,,,,,,,,,,,,,,,,,,,,,,,,,,,,,,,,,,,,,,,,,,,,,,,,,,,,,,,,,,,,,,,,,,,,,,,,,,,,,,,,,,,,,,,,,,,,,,,,,,,,,,,,,,,,,,,,,,,,,,,,,,,,,,,,,,,,,,,,
0,87,87,28,1,,615ac6e5216f047d73a04f63,62c539b29489a96cabb6b53b,2022-07-06_09h29.10.769,Colour_Asymmetry_Pilot,2022.1.3,Win32,60.0348202,62c50e9c1127f2cd403a315f,,,,,,,,,,,,,,,,,,,,,,,,,,,,,,,,,,,,,,,,,,,,,,,,,,,,,,,,,,,,,,,,,,,,,,,,,,,,,,,,,,,,,,,,,,,,,,,,,,,,,,,,,,,,,,,,,,,,,,,,,,,,,,,,,,,,,,,,,,,,,,,,,,,,,,,,,,,,,,,,,,,
0,88,88,9,1,,615ac6e5216f047d73a04f63,62c539b29489a96cabb6b53b,2022-07-06_09h29.10.769,Colour_Asymmetry_Pilot,2022.1.3,Win32,60.0348202,62c50e9c1127f2cd403a315f,,,,,,,,,,,,,,,,,,,,,,,,,,,,,,,,,,,,,,,,,,,,,,,,,,,,,,,,,,,,,,,,,,,,,,,,,,,,,,,,,,,,,,,,,,,,,,,,,,,,,,,,,,,,,,,,,,,,,,,,,,,,,,,,,,,,,,,,,,,,,,,,,,,,,,,,,,,,,,,,,,,
0,89,89,61,1,,615ac6e5216f047d73a04f63,62c539b29489a96cabb6b53b,2022-07-06_09h29.10.769,Colour_Asymmetry_Pilot,2022.1.3,Win32,60.0348202,62c50e9c1127f2cd403a315f,,,,,,,,,,,,,,,,,,,,,,,,,,,,,,,,,,,,,,,,,,,,,,,,,,,,,,,,,,,,,,,,,,,,,,,,,,,,,,,,,,,,,,,,,,,,,,,,,,,,,,,,,,,,,,,,,,,,,,,,,,,,,,,,,,,,,,,,,,,,,,,,,,,,,,,,,,,,,,,,,,,
0,90,90,30,1,,615ac6e5216f047d73a04f63,62c539b29489a96cabb6b53b,2022-07-06_09h29.10.769,Colour_Asymmetry_Pilot,2022.1.3,Win32,60.0348202,62c50e9c1127f2cd403a315f,,,,,,,,,,,,,,,,,,,,,,,,,,,,,,,,,,,,,,,,,,,,,,,,,,,,,,,,,,,,,,,,,,,,,,,,,,,,,,,,,,,,,,,,,,,,,,,,,,,,,,,,,,,,,,,,,,,,,,,,,,,,,,,,,,,,,,,,,,,,,,,,,,,,,,,,,,,,,,,,,,,
0,91,91,71,1,,615ac6e5216f047d73a04f63,62c539b29489a96cabb6b53b,2022-07-06_09h29.10.769,Colour_Asymmetry_Pilot,2022.1.3,Win32,60.0348202,62c50e9c1127f2cd403a315f,,,,,,,,,,,,,,,,,,,,,,,,,,,,,,,,,,,,,,,,,,,,,,,,,,,,,,,,,,,,,,,,,,,,,,,,,,,,,,,,,,,,,,,,,,,,,,,,,,,,,,,,,,,,,,,,,,,,,,,,,,,,,,,,,,,,,,,,,,,,,,,,,,,,,,,,,,,,,,,,,,,
0,92,92,15,1,,615ac6e5216f047d73a04f63,62c539b29489a96cabb6b53b,2022-07-06_09h29.10.769,Colour_Asymmetry_Pilot,2022.1.3,Win32,60.0348202,62c50e9c1127f2cd403a315f,,,,,,,,,,,,,,,,,,,,,,,,,,,,,,,,,,,,,,,,,,,,,,,,,,,,,,,,,,,,,,,,,,,,,,,,,,,,,,,,,,,,,,,,,,,,,,,,,,,,,,,,,,,,,,,,,,,,,,,,,,,,,,,,,,,,,,,,,,,,,,,,,,,,,,,,,,,,,,,,,,,
,,,,,,615ac6e5216f047d73a04f63,62c539b29489a96cabb6b53b,2022-07-06_09h29.10.769,Colour_Asymmetry_Pilot,2022.1.3,Win32,60.0348202,62c50e9c1127f2cd403a315f,0,0,0,8,1,onetwo,,,,,,,,,,,,,,,,,,,,,,,,,,,,,,,,,,,,,,,,,,,,,,,,,,,,,,,,,,,,,,,,,,,,,,,,,,,,,,,,,,,,,,,,,,,,,,,,,,,,,,,,,,,,,,,,,,,,,,,,,,,,,,,,,,,,,,,,,,,,,,,,,,,,,,,,,,,,,
,,,,,,615ac6e5216f047d73a04f63,62c539b29489a96cabb6b53b,2022-07-06_09h29.10.769,Colour_Asymmetry_Pilot,2022.1.3,Win32,60.0348202,62c50e9c1127f2cd403a315f,0,1,1,16,1,onetwo,,,,,,,,,,,,,,,,,,,,,,,,,,,,,,,,,,,,,,,,,,,,,,,,,,,,,,,,,,,,,,,,,,,,,,,,,,,,,,,,,,,,,,,,,,,,,,,,,,,,,,,,,,,,,,,,,,,,,,,,,,,,,,,,,,,,,,,,,,,,,,,,,,,,,,,,,,,,,
,,,,,,615ac6e5216f047d73a04f63,62c539b29489a96cabb6b53b,2022-07-06_09h29.10.769,Colour_Asymmetry_Pilot,2022.1.3,Win32,60.0348202,62c50e9c1127f2cd403a315f,0,2,2,107,1,twofour,,,,,,,,,,,,,,,,,,,,,,,,,,,,,,,,,,,,,,,,,,,,,,,,,,,,,,,,,,,,,,,,,,,,,,,,,,,,,,,,,,,,,,,,,,,,,,,,,,,,,,,,,,,,,,,,,,,,,,,,,,,,,,,,,,,,,,,,,,,,,,,,,,,,,,,,,,,,,
,,,,,,615ac6e5216f047d73a04f63,62c539b29489a96cabb6b53b,2022-07-06_09h29.10.769,Colour_Asymmetry_Pilot,2022.1.3,Win32,60.0348202,62c50e9c1127f2cd403a315f,0,3,3,57,1,onethree,,,,,,,,,,,,,,,,,,,,,,,,,,,,,,,,,,,,,,,,,,,,,,,,,,,,,,,,,,,,,,,,,,,,,,,,,,,,,,,,,,,,,,,,,,,,,,,,,,,,,,,,,,,,,,,,,,,,,,,,,,,,,,,,,,,,,,,,,,,,,,,,,,,,,,,,,,,,,
,,,,,,615ac6e5216f047d73a04f63,62c539b29489a96cabb6b53b,2022-07-06_09h29.10.769,Colour_Asymmetry_Pilot,2022.1.3,Win32,60.0348202,62c50e9c1127f2cd403a315f,0,4,4,62,1,fourtwo,,,,,,,,,,,,,,,,,,,,,,,,,,,,,,,,,,,,,,,,,,,,,,,,,,,,,,,,,,,,,,,,,,,,,,,,,,,,,,,,,,,,,,,,,,,,,,,,,,,,,,,,,,,,,,,,,,,,,,,,,,,,,,,,,,,,,,,,,,,,,,,,,,,,,,,,,,,,,
,,,,,,615ac6e5216f047d73a04f63,62c539b29489a96cabb6b53b,2022-07-06_09h29.10.769,Colour_Asymmetry_Pilot,2022.1.3,Win32,60.0348202,62c50e9c1127f2cd403a315f,0,5,5,137,1,onethree,,,,,,,,,,,,,,,,,,,,,,,,,,,,,,,,,,,,,,,,,,,,,,,,,,,,,,,,,,,,,,,,,,,,,,,,,,,,,,,,,,,,,,,,,,,,,,,,,,,,,,,,,,,,,,,,,,,,,,,,,,,,,,,,,,,,,,,,,,,,,,,,,,,,,,,,,,,,,
,,,,,,615ac6e5216f047d73a04f63,62c539b29489a96cabb6b53b,2022-07-06_09h29.10.769,Colour_Asymmetry_Pilot,2022.1.3,Win32,60.0348202,62c50e9c1127f2cd403a315f,0,6,6,89,1,onethree,,,,,,,,,,,,,,,,,,,,,,,,,,,,,,,,,,,,,,,,,,,,,,,,,,,,,,,,,,,,,,,,,,,,,,,,,,,,,,,,,,,,,,,,,,,,,,,,,,,,,,,,,,,,,,,,,,,,,,,,,,,,,,,,,,,,,,,,,,,,,,,,,,,,,,,,,,,,,
,,,,,,615ac6e5216f047d73a04f63,62c539b29489a96cabb6b53b,2022-07-06_09h29.10.769,Colour_Asymmetry_Pilot,2022.1.3,Win32,60.0348202,62c50e9c1127f2cd403a315f,0,7,7,112,1,onetwo,,,,,,,,,,,,,,,,,,,,,,,,,,,,,,,,,,,,,,,,,,,,,,,,,,,,,,,,,,,,,,,,,,,,,,,,,,,,,,,,,,,,,,,,,,,,,,,,,,,,,,,,,,,,,,,,,,,,,,,,,,,,,,,,,,,,,,,,,,,,,,,,,,,,,,,,,,,,,
,,,,,,615ac6e5216f047d73a04f63,62c539b29489a96cabb6b53b,2022-07-06_09h29.10.769,Colour_Asymmetry_Pilot,2022.1.3,Win32,60.0348202,62c50e9c1127f2cd403a315f,0,8,8,18,1,twoone,,,,,,,,,,,,,,,,,,,,,,,,,,,,,,,,,,,,,,,,,,,,,,,,,,,,,,,,,,,,,,,,,,,,,,,,,,,,,,,,,,,,,,,,,,,,,,,,,,,,,,,,,,,,,,,,,,,,,,,,,,,,,,,,,,,,,,,,,,,,,,,,,,,,,,,,,,,,,
,,,,,,615ac6e5216f047d73a04f63,62c539b29489a96cabb6b53b,2022-07-06_09h29.10.769,Colour_Asymmetry_Pilot,2022.1.3,Win32,60.0348202,62c50e9c1127f2cd403a315f,0,9,9,91,1,twofour,,,,,,,,,,,,,,,,,,,,,,,,,,,,,,,,,,,,,,,,,,,,,,,,,,,,,,,,,,,,,,,,,,,,,,,,,,,,,,,,,,,,,,,,,,,,,,,,,,,,,,,,,,,,,,,,,,,,,,,,,,,,,,,,,,,,,,,,,,,,,,,,,,,,,,,,,,,,,
,,,,,,615ac6e5216f047d73a04f63,62c539b29489a96cabb6b53b,2022-07-06_09h29.10.769,Colour_Asymmetry_Pilot,2022.1.3,Win32,60.0348202,62c50e9c1127f2cd403a315f,0,10,10,27,1,twofour,,,,,,,,,,,,,,,,,,,,,,,,,,,,,,,,,,,,,,,,,,,,,,,,,,,,,,,,,,,,,,,,,,,,,,,,,,,,,,,,,,,,,,,,,,,,,,,,,,,,,,,,,,,,,,,,,,,,,,,,,,,,,,,,,,,,,,,,,,,,,,,,,,,,,,,,,,,,,
,,,,,,615ac6e5216f047d73a04f63,62c539b29489a96cabb6b53b,2022-07-06_09h29.10.769,Colour_Asymmetry_Pilot,2022.1.3,Win32,60.0348202,62c50e9c1127f2cd403a315f,0,11,11,25,1,onethree,,,,,,,,,,,,,,,,,,,,,,,,,,,,,,,,,,,,,,,,,,,,,,,,,,,,,,,,,,,,,,,,,,,,,,,,,,,,,,,,,,,,,,,,,,,,,,,,,,,,,,,,,,,,,,,,,,,,,,,,,,,,,,,,,,,,,,,,,,,,,,,,,,,,,,,,,,,,,
,,,,,,615ac6e5216f047d73a04f63,62c539b29489a96cabb6b53b,2022-07-06_09h29.10.769,Colour_Asymmetry_Pilot,2022.1.3,Win32,60.0348202,62c50e9c1127f2cd403a315f,0,12,12,110,1,fourtwo,,,,,,,,,,,,,,,,,,,,,,,,,,,,,,,,,,,,,,,,,,,,,,,,,,,,,,,,,,,,,,,,,,,,,,,,,,,,,,,,,,,,,,,,,,,,,,,,,,,,,,,,,,,,,,,,,,,,,,,,,,,,,,,,,,,,,,,,,,,,,,,,,,,,,,,,,,,,,
,,,,,,615ac6e5216f047d73a04f63,62c539b29489a96cabb6b53b,2022-07-06_09h29.10.769,Colour_Asymmetry_Pilot,2022.1.3,Win32,60.0348202,62c50e9c1127f2cd403a315f,0,13,13,48,1,onetwo,,,,,,,,,,,,,,,,,,,,,,,,,,,,,,,,,,,,,,,,,,,,,,,,,,,,,,,,,,,,,,,,,,,,,,,,,,,,,,,,,,,,,,,,,,,,,,,,,,,,,,,,,,,,,,,,,,,,,,,,,,,,,,,,,,,,,,,,,,,,,,,,,,,,,,,,,,,,,
,,,,,,615ac6e5216f047d73a04f63,62c539b29489a96cabb6b53b,2022-07-06_09h29.10.769,Colour_Asymmetry_Pilot,2022.1.3,Win32,60.0348202,62c50e9c1127f2cd403a315f,0,14,14,6,1,fourtwo,,,,,,,,,,,,,,,,,,,,,,,,,,,,,,,,,,,,,,,,,,,,,,,,,,,,,,,,,,,,,,,,,,,,,,,,,,,,,,,,,,,,,,,,,,,,,,,,,,,,,,,,,,,,,,,,,,,,,,,,,,,,,,,,,,,,,,,,,,,,,,,,,,,,,,,,,,,,,
,,,,,,615ac6e5216f047d73a04f63,62c539b29489a96cabb6b53b,2022-07-06_09h29.10.769,Colour_Asymmetry_Pilot,2022.1.3,Win32,60.0348202,62c50e9c1127f2cd403a315f,0,15,15,24,1,onetwo,,,,,,,,,,,,,,,,,,,,,,,,,,,,,,,,,,,,,,,,,,,,,,,,,,,,,,,,,,,,,,,,,,,,,,,,,,,,,,,,,,,,,,,,,,,,,,,,,,,,,,,,,,,,,,,,,,,,,,,,,,,,,,,,,,,,,,,,,,,,,,,,,,,,,,,,,,,,,
,,,,,,615ac6e5216f047d73a04f63,62c539b29489a96cabb6b53b,2022-07-06_09h29.10.769,Colour_Asymmetry_Pilot,2022.1.3,Win32,60.0348202,62c50e9c1127f2cd403a315f,0,16,16,123,1,twofour,,,,,,,,,,,,,,,,,,,,,,,,,,,,,,,,,,,,,,,,,,,,,,,,,,,,,,,,,,,,,,,,,,,,,,,,,,,,,,,,,,,,,,,,,,,,,,,,,,,,,,,,,,,,,,,,,,,,,,,,,,,,,,,,,,,,,,,,,,,,,,,,,,,,,,,,,,,,,
,,,,,,615ac6e5216f047d73a04f63,62c539b29489a96cabb6b53b,2022-07-06_09h29.10.769,Colour_Asymmetry_Pilot,2022.1.3,Win32,60.0348202,62c50e9c1127f2cd403a315f,0,17,17,106,1,twoone,,,,,,,,,,,,,,,,,,,,,,,,,,,,,,,,,,,,,,,,,,,,,,,,,,,,,,,,,,,,,,,,,,,,,,,,,,,,,,,,,,,,,,,,,,,,,,,,,,,,,,,,,,,,,,,,,,,,,,,,,,,,,,,,,,,,,,,,,,,,,,,,,,,,,,,,,,,,,
,,,,,,615ac6e5216f047d73a04f63,62c539b29489a96cabb6b53b,2022-07-06_09h29.10.769,Colour_Asymmetry_Pilot,2022.1.3,Win32,60.0348202,62c50e9c1127f2cd403a315f,0,18,18,135,1,fourthree,,,,,,,,,,,,,,,,,,,,,,,,,,,,,,,,,,,,,,,,,,,,,,,,,,,,,,,,,,,,,,,,,,,,,,,,,,,,,,,,,,,,,,,,,,,,,,,,,,,,,,,,,,,,,,,,,,,,,,,,,,,,,,,,,,,,,,,,,,,,,,,,,,,,,,,,,,,,,
,,,,,,615ac6e5216f047d73a04f63,62c539b29489a96cabb6b53b,2022-07-06_09h29.10.769,Colour_Asymmetry_Pilot,2022.1.3,Win32,60.0348202,62c50e9c1127f2cd403a315f,0,19,19,153,1,onethree,,,,,,,,,,,,,,,,,,,,,,,,,,,,,,,,,,,,,,,,,,,,,,,,,,,,,,,,,,,,,,,,,,,,,,,,,,,,,,,,,,,,,,,,,,,,,,,,,,,,,,,,,,,,,,,,,,,,,,,,,,,,,,,,,,,,,,,,,,,,,,,,,,,,,,,,,,,,,
,,,,,,615ac6e5216f047d73a04f63,62c539b29489a96cabb6b53b,2022-07-06_09h29.10.769,Colour_Asymmetry_Pilot,2022.1.3,Win32,60.0348202,62c50e9c1127f2cd403a315f,0,20,20,120,1,onetwo,,,,,,,,,,,,,,,,,,,,,,,,,,,,,,,,,,,,,,,,,,,,,,,,,,,,,,,,,,,,,,,,,,,,,,,,,,,,,,,,,,,,,,,,,,,,,,,,,,,,,,,,,,,,,,,,,,,,,,,,,,,,,,,,,,,,,,,,,,,,,,,,,,,,,,,,,,,,,
,,,,,,615ac6e5216f047d73a04f63,62c539b29489a96cabb6b53b,2022-07-06_09h29.10.769,Colour_Asymmetry_Pilot,2022.1.3,Win32,60.0348202,62c50e9c1127f2cd403a315f,0,21,21,20,1,threeone,,,,,,,,,,,,,,,,,,,,,,,,,,,,,,,,,,,,,,,,,,,,,,,,,,,,,,,,,,,,,,,,,,,,,,,,,,,,,,,,,,,,,,,,,,,,,,,,,,,,,,,,,,,,,,,,,,,,,,,,,,,,,,,,,,,,,,,,,,,,,,,,,,,,,,,,,,,,,
,,,,,,615ac6e5216f047d73a04f63,62c539b29489a96cabb6b53b,2022-07-06_09h29.10.769,Colour_Asymmetry_Pilot,2022.1.3,Win32,60.0348202,62c50e9c1127f2cd403a315f,0,22,22,71,1,fourthree,,,,,,,,,,,,,,,,,,,,,,,,,,,,,,,,,,,,,,,,,,,,,,,,,,,,,,,,,,,,,,,,,,,,,,,,,,,,,,,,,,,,,,,,,,,,,,,,,,,,,,,,,,,,,,,,,,,,,,,,,,,,,,,,,,,,,,,,,,,,,,,,,,,,,,,,,,,,,
,,,,,,615ac6e5216f047d73a04f63,62c539b29489a96cabb6b53b,2022-07-06_09h29.10.769,Colour_Asymmetry_Pilot,2022.1.3,Win32,60.0348202,62c50e9c1127f2cd403a315f,0,23,23,136,1,onetwo,,,,,,,,,,,,,,,,,,,,,,,,,,,,,,,,,,,,,,,,,,,,,,,,,,,,,,,,,,,,,,,,,,,,,,,,,,,,,,,,,,,,,,,,,,,,,,,,,,,,,,,,,,,,,,,,,,,,,,,,,,,,,,,,,,,,,,,,,,,,,,,,,,,,,,,,,,,,,
,,,,,,615ac6e5216f047d73a04f63,62c539b29489a96cabb6b53b,2022-07-06_09h29.10.769,Colour_Asymmetry_Pilot,2022.1.3,Win32,60.0348202,62c50e9c1127f2cd403a315f,0,24,24,39,1,fourthree,,,,,,,,,,,,,,,,,,,,,,,,,,,,,,,,,,,,,,,,,,,,,,,,,,,,,,,,,,,,,,,,,,,,,,,,,,,,,,,,,,,,,,,,,,,,,,,,,,,,,,,,,,,,,,,,,,,,,,,,,,,,,,,,,,,,,,,,,,,,,,,,,,,,,,,,,,,,,
,,,,,,615ac6e5216f047d73a04f63,62c539b29489a96cabb6b53b,2022-07-06_09h29.10.769,Colour_Asymmetry_Pilot,2022.1.3,Win32,60.0348202,62c50e9c1127f2cd403a315f,0,25,25,59,1,twofour,,,,,,,,,,,,,,,,,,,,,,,,,,,,,,,,,,,,,,,,,,,,,,,,,,,,,,,,,,,,,,,,,,,,,,,,,,,,,,,,,,,,,,,,,,,,,,,,,,,,,,,,,,,,,,,,,,,,,,,,,,,,,,,,,,,,,,,,,,,,,,,,,,,,,,,,,,,,,
,,,,,,615ac6e5216f047d73a04f63,62c539b29489a96cabb6b53b,2022-07-06_09h29.10.769,Colour_Asymmetry_Pilot,2022.1.3,Win32,60.0348202,62c50e9c1127f2cd403a315f,0,26,26,97,1,onethree,,,,,,,,,,,,,,,,,,,,,,,,,,,,,,,,,,,,,,,,,,,,,,,,,,,,,,,,,,,,,,,,,,,,,,,,,,,,,,,,,,,,,,,,,,,,,,,,,,,,,,,,,,,,,,,,,,,,,,,,,,,,,,,,,,,,,,,,,,,,,,,,,,,,,,,,,,,,,
,,,,,,615ac6e5216f047d73a04f63,62c539b29489a96cabb6b53b,2022-07-06_09h29.10.769,Colour_Asymmetry_Pilot,2022.1.3,Win32,60.0348202,62c50e9c1127f2cd403a315f,0,27,27,13,1,threefour,,,,,,,,,,,,,,,,,,,,,,,,,,,,,,,,,,,,,,,,,,,,,,,,,,,,,,,,,,,,,,,,,,,,,,,,,,,,,,,,,,,,,,,,,,,,,,,,,,,,,,,,,,,,,,,,,,,,,,,,,,,,,,,,,,,,,,,,,,,,,,,,,,,,,,,,,,,,,
,,,,,,615ac6e5216f047d73a04f63,62c539b29489a96cabb6b53b,2022-07-06_09h29.10.769,Colour_Asymmetry_Pilot,2022.1.3,Win32,60.0348202,62c50e9c1127f2cd403a315f,0,28,28,77,1,threefour,,,,,,,,,,,,,,,,,,,,,,,,,,,,,,,,,,,,,,,,,,,,,,,,,,,,,,,,,,,,,,,,,,,,,,,,,,,,,,,,,,,,,,,,,,,,,,,,,,,,,,,,,,,,,,,,,,,,,,,,,,,,,,,,,,,,,,,,,,,,,,,,,,,,,,,,,,,,,
,,,,,,615ac6e5216f047d73a04f63,62c539b29489a96cabb6b53b,2022-07-06_09h29.10.769,Colour_Asymmetry_Pilot,2022.1.3,Win32,60.0348202,62c50e9c1127f2cd403a315f,0,29,29,67,1,twofour,,,,,,,,,,,,,,,,,,,,,,,,,,,,,,,,,,,,,,,,,,,,,,,,,,,,,,,,,,,,,,,,,,,,,,,,,,,,,,,,,,,,,,,,,,,,,,,,,,,,,,,,,,,,,,,,,,,,,,,,,,,,,,,,,,,,,,,,,,,,,,,,,,,,,,,,,,,,,
,,,,,,615ac6e5216f047d73a04f63,62c539b29489a96cabb6b53b,2022-07-06_09h29.10.769,Colour_Asymmetry_Pilot,2022.1.3,Win32,60.0348202,62c50e9c1127f2cd403a315f,0,30,30,64,1,onetwo,,,,,,,,,,,,,,,,,,,,,,,,,,,,,,,,,,,,,,,,,,,,,,,,,,,,,,,,,,,,,,,,,,,,,,,,,,,,,,,,,,,,,,,,,,,,,,,,,,,,,,,,,,,,,,,,,,,,,,,,,,,,,,,,,,,,,,,,,,,,,,,,,,,,,,,,,,,,,
,,,,,,615ac6e5216f047d73a04f63,62c539b29489a96cabb6b53b,2022-07-06_09h29.10.769,Colour_Asymmetry_Pilot,2022.1.3,Win32,60.0348202,62c50e9c1127f2cd403a315f,0,31,31,38,1,fourtwo,,,,,,,,,,,,,,,,,,,,,,,,,,,,,,,,,,,,,,,,,,,,,,,,,,,,,,,,,,,,,,,,,,,,,,,,,,,,,,,,,,,,,,,,,,,,,,,,,,,,,,,,,,,,,,,,,,,,,,,,,,,,,,,,,,,,,,,,,,,,,,,,,,,,,,,,,,,,,
,,,,,,615ac6e5216f047d73a04f63,62c539b29489a96cabb6b53b,2022-07-06_09h29.10.769,Colour_Asymmetry_Pilot,2022.1.3,Win32,60.0348202,62c50e9c1127f2cd403a315f,0,32,32,105,1,onethree,,,,,,,,,,,,,,,,,,,,,,,,,,,,,,,,,,,,,,,,,,,,,,,,,,,,,,,,,,,,,,,,,,,,,,,,,,,,,,,,,,,,,,,,,,,,,,,,,,,,,,,,,,,,,,,,,,,,,,,,,,,,,,,,,,,,,,,,,,,,,,,,,,,,,,,,,,,,,
,,,,,,615ac6e5216f047d73a04f63,62c539b29489a96cabb6b53b,2022-07-06_09h29.10.769,Colour_Asymmetry_Pilot,2022.1.3,Win32,60.0348202,62c50e9c1127f2cd403a315f,0,33,33,55,1,fourthree,,,,,,,,,,,,,,,,,,,,,,,,,,,,,,,,,,,,,,,,,,,,,,,,,,,,,,,,,,,,,,,,,,,,,,,,,,,,,,,,,,,,,,,,,,,,,,,,,,,,,,,,,,,,,,,,,,,,,,,,,,,,,,,,,,,,,,,,,,,,,,,,,,,,,,,,,,,,,
,,,,,,615ac6e5216f047d73a04f63,62c539b29489a96cabb6b53b,2022-07-06_09h29.10.769,Colour_Asymmetry_Pilot,2022.1.3,Win32,60.0348202,62c50e9c1127f2cd403a315f,0,34,34,5,1,threefour,,,,,,,,,,,,,,,,,,,,,,,,,,,,,,,,,,,,,,,,,,,,,,,,,,,,,,,,,,,,,,,,,,,,,,,,,,,,,,,,,,,,,,,,,,,,,,,,,,,,,,,,,,,,,,,,,,,,,,,,,,,,,,,,,,,,,,,,,,,,,,,,,,,,,,,,,,,,,
,,,,,,615ac6e5216f047d73a04f63,62c539b29489a96cabb6b53b,2022-07-06_09h29.10.769,Colour_Asymmetry_Pilot,2022.1.3,Win32,60.0348202,62c50e9c1127f2cd403a315f,0,35,35,132,1,threeone,,,,,,,,,,,,,,,,,,,,,,,,,,,,,,,,,,,,,,,,,,,,,,,,,,,,,,,,,,,,,,,,,,,,,,,,,,,,,,,,,,,,,,,,,,,,,,,,,,,,,,,,,,,,,,,,,,,,,,,,,,,,,,,,,,,,,,,,,,,,,,,,,,,,,,,,,,,,,
,,,,,,615ac6e5216f047d73a04f63,62c539b29489a96cabb6b53b,2022-07-06_09h29.10.769,Colour_Asymmetry_Pilot,2022.1.3,Win32,60.0348202,62c50e9c1127f2cd403a315f,0,36,36,126,1,fourtwo,,,,,,,,,,,,,,,,,,,,,,,,,,,,,,,,,,,,,,,,,,,,,,,,,,,,,,,,,,,,,,,,,,,,,,,,,,,,,,,,,,,,,,,,,,,,,,,,,,,,,,,,,,,,,,,,,,,,,,,,,,,,,,,,,,,,,,,,,,,,,,,,,,,,,,,,,,,,,
,,,,,,615ac6e5216f047d73a04f63,62c539b29489a96cabb6b53b,2022-07-06_09h29.10.769,Colour_Asymmetry_Pilot,2022.1.3,Win32,60.0348202,62c50e9c1127f2cd403a315f,0,37,37,51,1,twofour,,,,,,,,,,,,,,,,,,,,,,,,,,,,,,,,,,,,,,,,,,,,,,,,,,,,,,,,,,,,,,,,,,,,,,,,,,,,,,,,,,,,,,,,,,,,,,,,,,,,,,,,,,,,,,,,,,,,,,,,,,,,,,,,,,,,,,,,,,,,,,,,,,,,,,,,,,,,,
,,,,,,615ac6e5216f047d73a04f63,62c539b29489a96cabb6b53b,2022-07-06_09h29.10.769,Colour_Asymmetry_Pilot,2022.1.3,Win32,60.0348202,62c50e9c1127f2cd403a315f,0,38,38,31,1,fourthree,,,,,,,,,,,,,,,,,,,,,,,,,,,,,,,,,,,,,,,,,,,,,,,,,,,,,,,,,,,,,,,,,,,,,,,,,,,,,,,,,,,,,,,,,,,,,,,,,,,,,,,,,,,,,,,,,,,,,,,,,,,,,,,,,,,,,,,,,,,,,,,,,,,,,,,,,,,,,
,,,,,,615ac6e5216f047d73a04f63,62c539b29489a96cabb6b53b,2022-07-06_09h29.10.769,Colour_Asymmetry_Pilot,2022.1.3,Win32,60.0348202,62c50e9c1127f2cd403a315f,0,39,39,90,1,twoone,,,,,,,,,,,,,,,,,,,,,,,,,,,,,,,,,,,,,,,,,,,,,,,,,,,,,,,,,,,,,,,,,,,,,,,,,,,,,,,,,,,,,,,,,,,,,,,,,,,,,,,,,,,,,,,,,,,,,,,,,,,,,,,,,,,,,,,,,,,,,,,,,,,,,,,,,,,,,
,,,,,,615ac6e5216f047d73a04f63,62c539b29489a96cabb6b53b,2022-07-06_09h29.10.769,Colour_Asymmetry_Pilot,2022.1.3,Win32,60.0348202,62c50e9c1127f2cd403a315f,0,40,40,148,1,threeone,,,,,,,,,,,,,,,,,,,,,,,,,,,,,,,,,,,,,,,,,,,,,,,,,,,,,,,,,,,,,,,,,,,,,,,,,,,,,,,,,,,,,,,,,,,,,,,,,,,,,,,,,,,,,,,,,,,,,,,,,,,,,,,,,,,,,,,,,,,,,,,,,,,,,,,,,,,,,
,,,,,,615ac6e5216f047d73a04f63,62c539b29489a96cabb6b53b,2022-07-06_09h29.10.769,Colour_Asymmetry_Pilot,2022.1.3,Win32,60.0348202,62c50e9c1127f2cd403a315f,0,41,41,41,1,onethree,,,,,,,,,,,,,,,,,,,,,,,,,,,,,,,,,,,,,,,,,,,,,,,,,,,,,,,,,,,,,,,,,,,,,,,,,,,,,,,,,,,,,,,,,,,,,,,,,,,,,,,,,,,,,,,,,,,,,,,,,,,,,,,,,,,,,,,,,,,,,,,,,,,,,,,,,,,,,
,,,,,,615ac6e5216f047d73a04f63,62c539b29489a96cabb6b53b,2022-07-06_09h29.10.769,Colour_Asymmetry_Pilot,2022.1.3,Win32,60.0348202,62c50e9c1127f2cd403a315f,0,42,42,50,1,twoone,,,,,,,,,,,,,,,,,,,,,,,,,,,,,,,,,,,,,,,,,,,,,,,,,,,,,,,,,,,,,,,,,,,,,,,,,,,,,,,,,,,,,,,,,,,,,,,,,,,,,,,,,,,,,,,,,,,,,,,,,,,,,,,,,,,,,,,,,,,,,,,,,,,,,,,,,,,,,
,,,,,,615ac6e5216f047d73a04f63,62c539b29489a96cabb6b53b,2022-07-06_09h29.10.769,Colour_Asymmetry_Pilot,2022.1.3,Win32,60.0348202,62c50e9c1127f2cd403a315f,0,43,43,63,1,fourthree,,,,,,,,,,,,,,,,,,,,,,,,,,,,,,,,,,,,,,,,,,,,,,,,,,,,,,,,,,,,,,,,,,,,,,,,,,,,,,,,,,,,,,,,,,,,,,,,,,,,,,,,,,,,,,,,,,,,,,,,,,,,,,,,,,,,,,,,,,,,,,,,,,,,,,,,,,,,,
,,,,,,615ac6e5216f047d73a04f63,62c539b29489a96cabb6b53b,2022-07-06_09h29.10.769,Colour_Asymmetry_Pilot,2022.1.3,Win32,60.0348202,62c50e9c1127f2cd403a315f,0,44,44,117,1,threefour,,,,,,,,,,,,,,,,,,,,,,,,,,,,,,,,,,,,,,,,,,,,,,,,,,,,,,,,,,,,,,,,,,,,,,,,,,,,,,,,,,,,,,,,,,,,,,,,,,,,,,,,,,,,,,,,,,,,,,,,,,,,,,,,,,,,,,,,,,,,,,,,,,,,,,,,,,,,,
,,,,,,615ac6e5216f047d73a04f63,62c539b29489a96cabb6b53b,2022-07-06_09h29.10.769,Colour_Asymmetry_Pilot,2022.1.3,Win32,60.0348202,62c50e9c1127f2cd403a315f,0,45,45,75,1,twofour,,,,,,,,,,,,,,,,,,,,,,,,,,,,,,,,,,,,,,,,,,,,,,,,,,,,,,,,,,,,,,,,,,,,,,,,,,,,,,,,,,,,,,,,,,,,,,,,,,,,,,,,,,,,,,,,,,,,,,,,,,,,,,,,,,,,,,,,,,,,,,,,,,,,,,,,,,,,,
,,,,,,615ac6e5216f047d73a04f63,62c539b29489a96cabb6b53b,2022-07-06_09h29.10.769,Colour_Asymmetry_Pilot,2022.1.3,Win32,60.0348202,62c50e9c1127f2cd403a315f,0,46,46,154,1,twoone,,,,,,,,,,,,,,,,,,,,,,,,,,,,,,,,,,,,,,,,,,,,,,,,,,,,,,,,,,,,,,,,,,,,,,,,,,,,,,,,,,,,,,,,,,,,,,,,,,,,,,,,,,,,,,,,,,,,,,,,,,,,,,,,,,,,,,,,,,,,,,,,,,,,,,,,,,,,,
,,,,,,615ac6e5216f047d73a04f63,62c539b29489a96cabb6b53b,2022-07-06_09h29.10.769,Colour_Asymmetry_Pilot,2022.1.3,Win32,60.0348202,62c50e9c1127f2cd403a315f,0,47,47,78,1,fourtwo,,,,,,,,,,,,,,,,,,,,,,,,,,,,,,,,,,,,,,,,,,,,,,,,,,,,,,,,,,,,,,,,,,,,,,,,,,,,,,,,,,,,,,,,,,,,,,,,,,,,,,,,,,,,,,,,,,,,,,,,,,,,,,,,,,,,,,,,,,,,,,,,,,,,,,,,,,,,,
,,,,,,615ac6e5216f047d73a04f63,62c539b29489a96cabb6b53b,2022-07-06_09h29.10.769,Colour_Asymmetry_Pilot,2022.1.3,Win32,60.0348202,62c50e9c1127f2cd403a315f,0,48,48,139,1,twofour,,,,,,,,,,,,,,,,,,,,,,,,,,,,,,,,,,,,,,,,,,,,,,,,,,,,,,,,,,,,,,,,,,,,,,,,,,,,,,,,,,,,,,,,,,,,,,,,,,,,,,,,,,,,,,,,,,,,,,,,,,,,,,,,,,,,,,,,,,,,,,,,,,,,,,,,,,,,,
,,,,,,615ac6e5216f047d73a04f63,62c539b29489a96cabb6b53b,2022-07-06_09h29.10.769,Colour_Asymmetry_Pilot,2022.1.3,Win32,60.0348202,62c50e9c1127f2cd403a315f,0,49,49,149,1,threefour,,,,,,,,,,,,,,,,,,,,,,,,,,,,,,,,,,,,,,,,,,,,,,,,,,,,,,,,,,,,,,,,,,,,,,,,,,,,,,,,,,,,,,,,,,,,,,,,,,,,,,,,,,,,,,,,,,,,,,,,,,,,,,,,,,,,,,,,,,,,,,,,,,,,,,,,,,,,,
,,,,,,615ac6e5216f047d73a04f63,62c539b29489a96cabb6b53b,2022-07-06_09h29.10.769,Colour_Asymmetry_Pilot,2022.1.3,Win32,60.0348202,62c50e9c1127f2cd403a315f,0,50,50,32,1,onetwo,,,,,,,,,,,,,,,,,,,,,,,,,,,,,,,,,,,,,,,,,,,,,,,,,,,,,,,,,,,,,,,,,,,,,,,,,,,,,,,,,,,,,,,,,,,,,,,,,,,,,,,,,,,,,,,,,,,,,,,,,,,,,,,,,,,,,,,,,,,,,,,,,,,,,,,,,,,,,
,,,,,,615ac6e5216f047d73a04f63,62c539b29489a96cabb6b53b,2022-07-06_09h29.10.769,Colour_Asymmetry_Pilot,2022.1.3,Win32,60.0348202,62c50e9c1127f2cd403a315f,0,51,51,121,1,onethree,,,,,,,,,,,,,,,,,,,,,,,,,,,,,,,,,,,,,,,,,,,,,,,,,,,,,,,,,,,,,,,,,,,,,,,,,,,,,,,,,,,,,,,,,,,,,,,,,,,,,,,,,,,,,,,,,,,,,,,,,,,,,,,,,,,,,,,,,,,,,,,,,,,,,,,,,,,,,
,,,,,,615ac6e5216f047d73a04f63,62c539b29489a96cabb6b53b,2022-07-06_09h29.10.769,Colour_Asymmetry_Pilot,2022.1.3,Win32,60.0348202,62c50e9c1127f2cd403a315f,0,52,52,118,1,fourtwo,,,,,,,,,,,,,,,,,,,,,,,,,,,,,,,,,,,,,,,,,,,,,,,,,,,,,,,,,,,,,,,,,,,,,,,,,,,,,,,,,,,,,,,,,,,,,,,,,,,,,,,,,,,,,,,,,,,,,,,,,,,,,,,,,,,,,,,,,,,,,,,,,,,,,,,,,,,,,
,,,,,,615ac6e5216f047d73a04f63,62c539b29489a96cabb6b53b,2022-07-06_09h29.10.769,Colour_Asymmetry_Pilot,2022.1.3,Win32,60.0348202,62c50e9c1127f2cd403a315f,0,53,53,53,1,threefour,,,,,,,,,,,,,,,,,,,,,,,,,,,,,,,,,,,,,,,,,,,,,,,,,,,,,,,,,,,,,,,,,,,,,,,,,,,,,,,,,,,,,,,,,,,,,,,,,,,,,,,,,,,,,,,,,,,,,,,,,,,,,,,,,,,,,,,,,,,,,,,,,,,,,,,,,,,,,
,,,,,,615ac6e5216f047d73a04f63,62c539b29489a96cabb6b53b,2022-07-06_09h29.10.769,Colour_Asymmetry_Pilot,2022.1.3,Win32,60.0348202,62c50e9c1127f2cd403a315f,0,54,54,122,1,twoone,,,,,,,,,,,,,,,,,,,,,,,,,,,,,,,,,,,,,,,,,,,,,,,,,,,,,,,,,,,,,,,,,,,,,,,,,,,,,,,,,,,,,,,,,,,,,,,,,,,,,,,,,,,,,,,,,,,,,,,,,,,,,,,,,,,,,,,,,,,,,,,,,,,,,,,,,,,,,
,,,,,,615ac6e5216f047d73a04f63,62c539b29489a96cabb6b53b,2022-07-06_09h29.10.769,Colour_Asymmetry_Pilot,2022.1.3,Win32,60.0348202,62c50e9c1127f2cd403a315f,0,55,55,113,1,onethree,,,,,,,,,,,,,,,,,,,,,,,,,,,,,,,,,,,,,,,,,,,,,,,,,,,,,,,,,,,,,,,,,,,,,,,,,,,,,,,,,,,,,,,,,,,,,,,,,,,,,,,,,,,,,,,,,,,,,,,,,,,,,,,,,,,,,,,,,,,,,,,,,,,,,,,,,,,,,
,,,,,,615ac6e5216f047d73a04f63,62c539b29489a96cabb6b53b,2022-07-06_09h29.10.769,Colour_Asymmetry_Pilot,2022.1.3,Win32,60.0348202,62c50e9c1127f2cd403a315f,0,56,56,92,1,threeone,,,,,,,,,,,,,,,,,,,,,,,,,,,,,,,,,,,,,,,,,,,,,,,,,,,,,,,,,,,,,,,,,,,,,,,,,,,,,,,,,,,,,,,,,,,,,,,,,,,,,,,,,,,,,,,,,,,,,,,,,,,,,,,,,,,,,,,,,,,,,,,,,,,,,,,,,,,,,
,,,,,,615ac6e5216f047d73a04f63,62c539b29489a96cabb6b53b,2022-07-06_09h29.10.769,Colour_Asymmetry_Pilot,2022.1.3,Win32,60.0348202,62c50e9c1127f2cd403a315f,0,57,57,61,1,threefour,,,,,,,,,,,,,,,,,,,,,,,,,,,,,,,,,,,,,,,,,,,,,,,,,,,,,,,,,,,,,,,,,,,,,,,,,,,,,,,,,,,,,,,,,,,,,,,,,,,,,,,,,,,,,,,,,,,,,,,,,,,,,,,,,,,,,,,,,,,,,,,,,,,,,,,,,,,,,
,,,,,,615ac6e5216f047d73a04f63,62c539b29489a96cabb6b53b,2022-07-06_09h29.10.769,Colour_Asymmetry_Pilot,2022.1.3,Win32,60.0348202,62c50e9c1127f2cd403a315f,0,58,58,88,1,onetwo,,,,,,,,,,,,,,,,,,,,,,,,,,,,,,,,,,,,,,,,,,,,,,,,,,,,,,,,,,,,,,,,,,,,,,,,,,,,,,,,,,,,,,,,,,,,,,,,,,,,,,,,,,,,,,,,,,,,,,,,,,,,,,,,,,,,,,,,,,,,,,,,,,,,,,,,,,,,,
,,,,,,615ac6e5216f047d73a04f63,62c539b29489a96cabb6b53b,2022-07-06_09h29.10.769,Colour_Asymmetry_Pilot,2022.1.3,Win32,60.0348202,62c50e9c1127f2cd403a315f,0,59,59,60,1,threeone,,,,,,,,,,,,,,,,,,,,,,,,,,,,,,,,,,,,,,,,,,,,,,,,,,,,,,,,,,,,,,,,,,,,,,,,,,,,,,,,,,,,,,,,,,,,,,,,,,,,,,,,,,,,,,,,,,,,,,,,,,,,,,,,,,,,,,,,,,,,,,,,,,,,,,,,,,,,,
,,,,,,615ac6e5216f047d73a04f63,62c539b29489a96cabb6b53b,2022-07-06_09h29.10.769,Colour_Asymmetry_Pilot,2022.1.3,Win32,60.0348202,62c50e9c1127f2cd403a315f,0,60,60,115,1,twofour,,,,,,,,,,,,,,,,,,,,,,,,,,,,,,,,,,,,,,,,,,,,,,,,,,,,,,,,,,,,,,,,,,,,,,,,,,,,,,,,,,,,,,,,,,,,,,,,,,,,,,,,,,,,,,,,,,,,,,,,,,,,,,,,,,,,,,,,,,,,,,,,,,,,,,,,,,,,,
,,,,,,615ac6e5216f047d73a04f63,62c539b29489a96cabb6b53b,2022-07-06_09h29.10.769,Colour_Asymmetry_Pilot,2022.1.3,Win32,60.0348202,62c50e9c1127f2cd403a315f,0,61,61,29,1,threefour,,,,,,,,,,,,,,,,,,,,,,,,,,,,,,,,,,,,,,,,,,,,,,,,,,,,,,,,,,,,,,,,,,,,,,,,,,,,,,,,,,,,,,,,,,,,,,,,,,,,,,,,,,,,,,,,,,,,,,,,,,,,,,,,,,,,,,,,,,,,,,,,,,,,,,,,,,,,,
,,,,,,615ac6e5216f047d73a04f63,62c539b29489a96cabb6b53b,2022-07-06_09h29.10.769,Colour_Asymmetry_Pilot,2022.1.3,Win32,60.0348202,62c50e9c1127f2cd403a315f,0,62,62,152,1,onetwo,,,,,,,,,,,,,,,,,,,,,,,,,,,,,,,,,,,,,,,,,,,,,,,,,,,,,,,,,,,,,,,,,,,,,,,,,,,,,,,,,,,,,,,,,,,,,,,,,,,,,,,,,,,,,,,,,,,,,,,,,,,,,,,,,,,,,,,,,,,,,,,,,,,,,,,,,,,,,
,,,,,,615ac6e5216f047d73a04f63,62c539b29489a96cabb6b53b,2022-07-06_09h29.10.769,Colour_Asymmetry_Pilot,2022.1.3,Win32,60.0348202,62c50e9c1127f2cd403a315f,0,63,63,142,1,fourtwo,,,,,,,,,,,,,,,,,,,,,,,,,,,,,,,,,,,,,,,,,,,,,,,,,,,,,,,,,,,,,,,,,,,,,,,,,,,,,,,,,,,,,,,,,,,,,,,,,,,,,,,,,,,,,,,,,,,,,,,,,,,,,,,,,,,,,,,,,,,,,,,,,,,,,,,,,,,,,
,,,,,,615ac6e5216f047d73a04f63,62c539b29489a96cabb6b53b,2022-07-06_09h29.10.769,Colour_Asymmetry_Pilot,2022.1.3,Win32,60.0348202,62c50e9c1127f2cd403a315f,0,64,64,65,1,onethree,,,,,,,,,,,,,,,,,,,,,,,,,,,,,,,,,,,,,,,,,,,,,,,,,,,,,,,,,,,,,,,,,,,,,,,,,,,,,,,,,,,,,,,,,,,,,,,,,,,,,,,,,,,,,,,,,,,,,,,,,,,,,,,,,,,,,,,,,,,,,,,,,,,,,,,,,,,,,
,,,,,,615ac6e5216f047d73a04f63,62c539b29489a96cabb6b53b,2022-07-06_09h29.10.769,Colour_Asymmetry_Pilot,2022.1.3,Win32,60.0348202,62c50e9c1127f2cd403a315f,0,65,65,74,1,twoone,,,,,,,,,,,,,,,,,,,,,,,,,,,,,,,,,,,,,,,,,,,,,,,,,,,,,,,,,,,,,,,,,,,,,,,,,,,,,,,,,,,,,,,,,,,,,,,,,,,,,,,,,,,,,,,,,,,,,,,,,,,,,,,,,,,,,,,,,,,,,,,,,,,,,,,,,,,,,
,,,,,,615ac6e5216f047d73a04f63,62c539b29489a96cabb6b53b,2022-07-06_09h29.10.769,Colour_Asymmetry_Pilot,2022.1.3,Win32,60.0348202,62c50e9c1127f2cd403a315f,0,66,66,111,1,fourthree,,,,,,,,,,,,,,,,,,,,,,,,,,,,,,,,,,,,,,,,,,,,,,,,,,,,,,,,,,,,,,,,,,,,,,,,,,,,,,,,,,,,,,,,,,,,,,,,,,,,,,,,,,,,,,,,,,,,,,,,,,,,,,,,,,,,,,,,,,,,,,,,,,,,,,,,,,,,,
,,,,,,615ac6e5216f047d73a04f63,62c539b29489a96cabb6b53b,2022-07-06_09h29.10.769,Colour_Asymmetry_Pilot,2022.1.3,Win32,60.0348202,62c50e9c1127f2cd403a315f,0,67,67,85,1,threefour,,,,,,,,,,,,,,,,,,,,,,,,,,,,,,,,,,,,,,,,,,,,,,,,,,,,,,,,,,,,,,,,,,,,,,,,,,,,,,,,,,,,,,,,,,,,,,,,,,,,,,,,,,,,,,,,,,,,,,,,,,,,,,,,,,,,,,,,,,,,,,,,,,,,,,,,,,,,,
,,,,,,615ac6e5216f047d73a04f63,62c539b29489a96cabb6b53b,2022-07-06_09h29.10.769,Colour_Asymmetry_Pilot,2022.1.3,Win32,60.0348202,62c50e9c1127f2cd403a315f,0,68,68,145,1,onethree,,,,,,,,,,,,,,,,,,,,,,,,,,,,,,,,,,,,,,,,,,,,,,,,,,,,,,,,,,,,,,,,,,,,,,,,,,,,,,,,,,,,,,,,,,,,,,,,,,,,,,,,,,,,,,,,,,,,,,,,,,,,,,,,,,,,,,,,,,,,,,,,,,,,,,,,,,,,,
,,,,,,615ac6e5216f047d73a04f63,62c539b29489a96cabb6b53b,2022-07-06_09h29.10.769,Colour_Asymmetry_Pilot,2022.1.3,Win32,60.0348202,62c50e9c1127f2cd403a315f,0,69,69,160,1,onetwo,,,,,,,,,,,,,,,,,,,,,,,,,,,,,,,,,,,,,,,,,,,,,,,,,,,,,,,,,,,,,,,,,,,,,,,,,,,,,,,,,,,,,,,,,,,,,,,,,,,,,,,,,,,,,,,,,,,,,,,,,,,,,,,,,,,,,,,,,,,,,,,,,,,,,,,,,,,,,
,,,,,,615ac6e5216f047d73a04f63,62c539b29489a96cabb6b53b,2022-07-06_09h29.10.769,Colour_Asymmetry_Pilot,2022.1.3,Win32,60.0348202,62c50e9c1127f2cd403a315f,0,70,70,86,1,fourtwo,,,,,,,,,,,,,,,,,,,,,,,,,,,,,,,,,,,,,,,,,,,,,,,,,,,,,,,,,,,,,,,,,,,,,,,,,,,,,,,,,,,,,,,,,,,,,,,,,,,,,,,,,,,,,,,,,,,,,,,,,,,,,,,,,,,,,,,,,,,,,,,,,,,,,,,,,,,,,
,,,,,,615ac6e5216f047d73a04f63,62c539b29489a96cabb6b53b,2022-07-06_09h29.10.769,Colour_Asymmetry_Pilot,2022.1.3,Win32,60.0348202,62c50e9c1127f2cd403a315f,0,71,71,158,1,fourtwo,,,,,,,,,,,,,,,,,,,,,,,,,,,,,,,,,,,,,,,,,,,,,,,,,,,,,,,,,,,,,,,,,,,,,,,,,,,,,,,,,,,,,,,,,,,,,,,,,,,,,,,,,,,,,,,,,,,,,,,,,,,,,,,,,,,,,,,,,,,,,,,,,,,,,,,,,,,,,
,,,,,,615ac6e5216f047d73a04f63,62c539b29489a96cabb6b53b,2022-07-06_09h29.10.769,Colour_Asymmetry_Pilot,2022.1.3,Win32,60.0348202,62c50e9c1127f2cd403a315f,0,72,72,73,1,onethree,,,,,,,,,,,,,,,,,,,,,,,,,,,,,,,,,,,,,,,,,,,,,,,,,,,,,,,,,,,,,,,,,,,,,,,,,,,,,,,,,,,,,,,,,,,,,,,,,,,,,,,,,,,,,,,,,,,,,,,,,,,,,,,,,,,,,,,,,,,,,,,,,,,,,,,,,,,,,
,,,,,,615ac6e5216f047d73a04f63,62c539b29489a96cabb6b53b,2022-07-06_09h29.10.769,Colour_Asymmetry_Pilot,2022.1.3,Win32,60.0348202,62c50e9c1127f2cd403a315f,0,73,73,35,1,twofour,,,,,,,,,,,,,,,,,,,,,,,,,,,,,,,,,,,,,,,,,,,,,,,,,,,,,,,,,,,,,,,,,,,,,,,,,,,,,,,,,,,,,,,,,,,,,,,,,,,,,,,,,,,,,,,,,,,,,,,,,,,,,,,,,,,,,,,,,,,,,,,,,,,,,,,,,,,,,
,,,,,,615ac6e5216f047d73a04f63,62c539b29489a96cabb6b53b,2022-07-06_09h29.10.769,Colour_Asymmetry_Pilot,2022.1.3,Win32,60.0348202,62c50e9c1127f2cd403a315f,0,74,74,141,1,threefour,,,,,,,,,,,,,,,,,,,,,,,,,,,,,,,,,,,,,,,,,,,,,,,,,,,,,,,,,,,,,,,,,,,,,,,,,,,,,,,,,,,,,,,,,,,,,,,,,,,,,,,,,,,,,,,,,,,,,,,,,,,,,,,,,,,,,,,,,,,,,,,,,,,,,,,,,,,,,
,,,,,,615ac6e5216f047d73a04f63,62c539b29489a96cabb6b53b,2022-07-06_09h29.10.769,Colour_Asymmetry_Pilot,2022.1.3,Win32,60.0348202,62c50e9c1127f2cd403a315f,0,75,75,150,1,fourtwo,,,,,,,,,,,,,,,,,,,,,,,,,,,,,,,,,,,,,,,,,,,,,,,,,,,,,,,,,,,,,,,,,,,,,,,,,,,,,,,,,,,,,,,,,,,,,,,,,,,,,,,,,,,,,,,,,,,,,,,,,,,,,,,,,,,,,,,,,,,,,,,,,,,,,,,,,,,,,
,,,,,,615ac6e5216f047d73a04f63,62c539b29489a96cabb6b53b,2022-07-06_09h29.10.769,Colour_Asymmetry_Pilot,2022.1.3,Win32,60.0348202,62c50e9c1127f2cd403a315f,0,76,76,3,1,twofour,,,,,,,,,,,,,,,,,,,,,,,,,,,,,,,,,,,,,,,,,,,,,,,,,,,,,,,,,,,,,,,,,,,,,,,,,,,,,,,,,,,,,,,,,,,,,,,,,,,,,,,,,,,,,,,,,,,,,,,,,,,,,,,,,,,,,,,,,,,,,,,,,,,,,,,,,,,,,
,,,,,,615ac6e5216f047d73a04f63,62c539b29489a96cabb6b53b,2022-07-06_09h29.10.769,Colour_Asymmetry_Pilot,2022.1.3,Win32,60.0348202,62c50e9c1127f2cd403a315f,0,77,77,159,1,fourthree,,,,,,,,,,,,,,,,,,,,,,,,,,,,,,,,,,,,,,,,,,,,,,,,,,,,,,,,,,,,,,,,,,,,,,,,,,,,,,,,,,,,,,,,,,,,,,,,,,,,,,,,,,,,,,,,,,,,,,,,,,,,,,,,,,,,,,,,,,,,,,,,,,,,,,,,,,,,,
,,,,,,615ac6e5216f047d73a04f63,62c539b29489a96cabb6b53b,2022-07-06_09h29.10.769,Colour_Asymmetry_Pilot,2022.1.3,Win32,60.0348202,62c50e9c1127f2cd403a315f,0,78,78,46,1,fourtwo,,,,,,,,,,,,,,,,,,,,,,,,,,,,,,,,,,,,,,,,,,,,,,,,,,,,,,,,,,,,,,,,,,,,,,,,,,,,,,,,,,,,,,,,,,,,,,,,,,,,,,,,,,,,,,,,,,,,,,,,,,,,,,,,,,,,,,,,,,,,,,,,,,,,,,,,,,,,,
,,,,,,615ac6e5216f047d73a04f63,62c539b29489a96cabb6b53b,2022-07-06_09h29.10.769,Colour_Asymmetry_Pilot,2022.1.3,Win32,60.0348202,62c50e9c1127f2cd403a315f,0,79,79,10,1,twoone,,,,,,,,,,,,,,,,,,,,,,,,,,,,,,,,,,,,,,,,,,,,,,,,,,,,,,,,,,,,,,,,,,,,,,,,,,,,,,,,,,,,,,,,,,,,,,,,,,,,,,,,,,,,,,,,,,,,,,,,,,,,,,,,,,,,,,,,,,,,,,,,,,,,,,,,,,,,,
,,,,,,615ac6e5216f047d73a04f63,62c539b29489a96cabb6b53b,2022-07-06_09h29.10.769,Colour_Asymmetry_Pilot,2022.1.3,Win32,60.0348202,62c50e9c1127f2cd403a315f,0,80,80,42,1,twoone,,,,,,,,,,,,,,,,,,,,,,,,,,,,,,,,,,,,,,,,,,,,,,,,,,,,,,,,,,,,,,,,,,,,,,,,,,,,,,,,,,,,,,,,,,,,,,,,,,,,,,,,,,,,,,,,,,,,,,,,,,,,,,,,,,,,,,,,,,,,,,,,,,,,,,,,,,,,,
,,,,,,615ac6e5216f047d73a04f63,62c539b29489a96cabb6b53b,2022-07-06_09h29.10.769,Colour_Asymmetry_Pilot,2022.1.3,Win32,60.0348202,62c50e9c1127f2cd403a315f,0,81,81,114,1,twoone,,,,,,,,,,,,,,,,,,,,,,,,,,,,,,,,,,,,,,,,,,,,,,,,,,,,,,,,,,,,,,,,,,,,,,,,,,,,,,,,,,,,,,,,,,,,,,,,,,,,,,,,,,,,,,,,,,,,,,,,,,,,,,,,,,,,,,,,,,,,,,,,,,,,,,,,,,,,,
,,,,,,615ac6e5216f047d73a04f63,62c539b29489a96cabb6b53b,2022-07-06_09h29.10.769,Colour_Asymmetry_Pilot,2022.1.3,Win32,60.0348202,62c50e9c1127f2cd403a315f,0,82,82,147,1,twofour,,,,,,,,,,,,,,,,,,,,,,,,,,,,,,,,,,,,,,,,,,,,,,,,,,,,,,,,,,,,,,,,,,,,,,,,,,,,,,,,,,,,,,,,,,,,,,,,,,,,,,,,,,,,,,,,,,,,,,,,,,,,,,,,,,,,,,,,,,,,,,,,,,,,,,,,,,,,,
,,,,,,615ac6e5216f047d73a04f63,62c539b29489a96cabb6b53b,2022-07-06_09h29.10.769,Colour_Asymmetry_Pilot,2022.1.3,Win32,60.0348202,62c50e9c1127f2cd403a315f,0,83,83,79,1,fourthree,,,,,,,,,,,,,,,,,,,,,,,,,,,,,,,,,,,,,,,,,,,,,,,,,,,,,,,,,,,,,,,,,,,,,,,,,,,,,,,,,,,,,,,,,,,,,,,,,,,,,,,,,,,,,,,,,,,,,,,,,,,,,,,,,,,,,,,,,,,,,,,,,,,,,,,,,,,,,
,,,,,,615ac6e5216f047d73a04f63,62c539b29489a96cabb6b53b,2022-07-06_09h29.10.769,Colour_Asymmetry_Pilot,2022.1.3,Win32,60.0348202,62c50e9c1127f2cd403a315f,0,84,84,103,1,fourthree,,,,,,,,,,,,,,,,,,,,,,,,,,,,,,,,,,,,,,,,,,,,,,,,,,,,,,,,,,,,,,,,,,,,,,,,,,,,,,,,,,,,,,,,,,,,,,,,,,,,,,,,,,,,,,,,,,,,,,,,,,,,,,,,,,,,,,,,,,,,,,,,,,,,,,,,,,,,,
,,,,,,615ac6e5216f047d73a04f63,62c539b29489a96cabb6b53b,2022-07-06_09h29.10.769,Colour_Asymmetry_Pilot,2022.1.3,Win32,60.0348202,62c50e9c1127f2cd403a315f,0,85,85,100,1,threeone,,,,,,,,,,,,,,,,,,,,,,,,,,,,,,,,,,,,,,,,,,,,,,,,,,,,,,,,,,,,,,,,,,,,,,,,,,,,,,,,,,,,,,,,,,,,,,,,,,,,,,,,,,,,,,,,,,,,,,,,,,,,,,,,,,,,,,,,,,,,,,,,,,,,,,,,,,,,,
,,,,,,615ac6e5216f047d73a04f63,62c539b29489a96cabb6b53b,2022-07-06_09h29.10.769,Colour_Asymmetry_Pilot,2022.1.3,Win32,60.0348202,62c50e9c1127f2cd403a315f,0,86,86,93,1,threefour,,,,,,,,,,,,,,,,,,,,,,,,,,,,,,,,,,,,,,,,,,,,,,,,,,,,,,,,,,,,,,,,,,,,,,,,,,,,,,,,,,,,,,,,,,,,,,,,,,,,,,,,,,,,,,,,,,,,,,,,,,,,,,,,,,,,,,,,,,,,,,,,,,,,,,,,,,,,,
,,,,,,615ac6e5216f047d73a04f63,62c539b29489a96cabb6b53b,2022-07-06_09h29.10.769,Colour_Asymmetry_Pilot,2022.1.3,Win32,60.0348202,62c50e9c1127f2cd403a315f,0,87,87,134,1,fourtwo,,,,,,,,,,,,,,,,,,,,,,,,,,,,,,,,,,,,,,,,,,,,,,,,,,,,,,,,,,,,,,,,,,,,,,,,,,,,,,,,,,,,,,,,,,,,,,,,,,,,,,,,,,,,,,,,,,,,,,,,,,,,,,,,,,,,,,,,,,,,,,,,,,,,,,,,,,,,,
,,,,,,615ac6e5216f047d73a04f63,62c539b29489a96cabb6b53b,2022-07-06_09h29.10.769,Colour_Asymmetry_Pilot,2022.1.3,Win32,60.0348202,62c50e9c1127f2cd403a315f,0,88,88,28,1,threeone,,,,,,,,,,,,,,,,,,,,,,,,,,,,,,,,,,,,,,,,,,,,,,,,,,,,,,,,,,,,,,,,,,,,,,,,,,,,,,,,,,,,,,,,,,,,,,,,,,,,,,,,,,,,,,,,,,,,,,,,,,,,,,,,,,,,,,,,,,,,,,,,,,,,,,,,,,,,,
,,,,,,615ac6e5216f047d73a04f63,62c539b29489a96cabb6b53b,2022-07-06_09h29.10.769,Colour_Asymmetry_Pilot,2022.1.3,Win32,60.0348202,62c50e9c1127f2cd403a315f,0,89,89,70,1,fourtwo,,,,,,,,,,,,,,,,,,,,,,,,,,,,,,,,,,,,,,,,,,,,,,,,,,,,,,,,,,,,,,,,,,,,,,,,,,,,,,,,,,,,,,,,,,,,,,,,,,,,,,,,,,,,,,,,,,,,,,,,,,,,,,,,,,,,,,,,,,,,,,,,,,,,,,,,,,,,,
,,,,,,615ac6e5216f047d73a04f63,62c539b29489a96cabb6b53b,2022-07-06_09h29.10.769,Colour_Asymmetry_Pilot,2022.1.3,Win32,60.0348202,62c50e9c1127f2cd403a315f,0,90,90,128,1,onetwo,,,,,,,,,,,,,,,,,,,,,,,,,,,,,,,,,,,,,,,,,,,,,,,,,,,,,,,,,,,,,,,,,,,,,,,,,,,,,,,,,,,,,,,,,,,,,,,,,,,,,,,,,,,,,,,,,,,,,,,,,,,,,,,,,,,,,,,,,,,,,,,,,,,,,,,,,,,,,
,,,,,,615ac6e5216f047d73a04f63,62c539b29489a96cabb6b53b,2022-07-06_09h29.10.769,Colour_Asymmetry_Pilot,2022.1.3,Win32,60.0348202,62c50e9c1127f2cd403a315f,0,91,91,95,1,fourthree,,,,,,,,,,,,,,,,,,,,,,,,,,,,,,,,,,,,,,,,,,,,,,,,,,,,,,,,,,,,,,,,,,,,,,,,,,,,,,,,,,,,,,,,,,,,,,,,,,,,,,,,,,,,,,,,,,,,,,,,,,,,,,,,,,,,,,,,,,,,,,,,,,,,,,,,,,,,,
,,,,,,615ac6e5216f047d73a04f63,62c539b29489a96cabb6b53b,2022-07-06_09h29.10.769,Colour_Asymmetry_Pilot,2022.1.3,Win32,60.0348202,62c50e9c1127f2cd403a315f,0,92,92,101,1,threefour,,,,,,,,,,,,,,,,,,,,,,,,,,,,,,,,,,,,,,,,,,,,,,,,,,,,,,,,,,,,,,,,,,,,,,,,,,,,,,,,,,,,,,,,,,,,,,,,,,,,,,,,,,,,,,,,,,,,,,,,,,,,,,,,,,,,,,,,,,,,,,,,,,,,,,,,,,,,,
,,,,,,615ac6e5216f047d73a04f63,62c539b29489a96cabb6b53b,2022-07-06_09h29.10.769,Colour_Asymmetry_Pilot,2022.1.3,Win32,60.0348202,62c50e9c1127f2cd403a315f,0,93,93,23,1,fourthree,,,,,,,,,,,,,,,,,,,,,,,,,,,,,,,,,,,,,,,,,,,,,,,,,,,,,,,,,,,,,,,,,,,,,,,,,,,,,,,,,,,,,,,,,,,,,,,,,,,,,,,,,,,,,,,,,,,,,,,,,,,,,,,,,,,,,,,,,,,,,,,,,,,,,,,,,,,,,
,,,,,,615ac6e5216f047d73a04f63,62c539b29489a96cabb6b53b,2022-07-06_09h29.10.769,Colour_Asymmetry_Pilot,2022.1.3,Win32,60.0348202,62c50e9c1127f2cd403a315f,0,94,94,99,1,twofour,,,,,,,,,,,,,,,,,,,,,,,,,,,,,,,,,,,,,,,,,,,,,,,,,,,,,,,,,,,,,,,,,,,,,,,,,,,,,,,,,,,,,,,,,,,,,,,,,,,,,,,,,,,,,,,,,,,,,,,,,,,,,,,,,,,,,,,,,,,,,,,,,,,,,,,,,,,,,
,,,,,,615ac6e5216f047d73a04f63,62c539b29489a96cabb6b53b,2022-07-06_09h29.10.769,Colour_Asymmetry_Pilot,2022.1.3,Win32,60.0348202,62c50e9c1127f2cd403a315f,0,95,95,102,1,fourtwo,,,,,,,,,,,,,,,,,,,,,,,,,,,,,,,,,,,,,,,,,,,,,,,,,,,,,,,,,,,,,,,,,,,,,,,,,,,,,,,,,,,,,,,,,,,,,,,,,,,,,,,,,,,,,,,,,,,,,,,,,,,,,,,,,,,,,,,,,,,,,,,,,,,,,,,,,,,,,
,,,,,,615ac6e5216f047d73a04f63,62c539b29489a96cabb6b53b,2022-07-06_09h29.10.769,Colour_Asymmetry_Pilot,2022.1.3,Win32,60.0348202,62c50e9c1127f2cd403a315f,0,96,96,11,1,twofour,,,,,,,,,,,,,,,,,,,,,,,,,,,,,,,,,,,,,,,,,,,,,,,,,,,,,,,,,,,,,,,,,,,,,,,,,,,,,,,,,,,,,,,,,,,,,,,,,,,,,,,,,,,,,,,,,,,,,,,,,,,,,,,,,,,,,,,,,,,,,,,,,,,,,,,,,,,,,
,,,,,,615ac6e5216f047d73a04f63,62c539b29489a96cabb6b53b,2022-07-06_09h29.10.769,Colour_Asymmetry_Pilot,2022.1.3,Win32,60.0348202,62c50e9c1127f2cd403a315f,0,97,97,0,1,onetwo,,,,,,,,,,,,,,,,,,,,,,,,,,,,,,,,,,,,,,,,,,,,,,,,,,,,,,,,,,,,,,,,,,,,,,,,,,,,,,,,,,,,,,,,,,,,,,,,,,,,,,,,,,,,,,,,,,,,,,,,,,,,,,,,,,,,,,,,,,,,,,,,,,,,,,,,,,,,,
,,,,,,615ac6e5216f047d73a04f63,62c539b29489a96cabb6b53b,2022-07-06_09h29.10.769,Colour_Asymmetry_Pilot,2022.1.3,Win32,60.0348202,62c50e9c1127f2cd403a315f,0,98,98,144,1,onetwo,,,,,,,,,,,,,,,,,,,,,,,,,,,,,,,,,,,,,,,,,,,,,,,,,,,,,,,,,,,,,,,,,,,,,,,,,,,,,,,,,,,,,,,,,,,,,,,,,,,,,,,,,,,,,,,,,,,,,,,,,,,,,,,,,,,,,,,,,,,,,,,,,,,,,,,,,,,,,
,,,,,,615ac6e5216f047d73a04f63,62c539b29489a96cabb6b53b,2022-07-06_09h29.10.769,Colour_Asymmetry_Pilot,2022.1.3,Win32,60.0348202,62c50e9c1127f2cd403a315f,0,99,99,45,1,threefour,,,,,,,,,,,,,,,,,,,,,,,,,,,,,,,,,,,,,,,,,,,,,,,,,,,,,,,,,,,,,,,,,,,,,,,,,,,,,,,,,,,,,,,,,,,,,,,,,,,,,,,,,,,,,,,,,,,,,,,,,,,,,,,,,,,,,,,,,,,,,,,,,,,,,,,,,,,,,
,,,,,,615ac6e5216f047d73a04f63,62c539b29489a96cabb6b53b,2022-07-06_09h29.10.769,Colour_Asymmetry_Pilot,2022.1.3,Win32,60.0348202,62c50e9c1127f2cd403a315f,0,100,100,2,1,twoone,,,,,,,,,,,,,,,,,,,,,,,,,,,,,,,,,,,,,,,,,,,,,,,,,,,,,,,,,,,,,,,,,,,,,,,,,,,,,,,,,,,,,,,,,,,,,,,,,,,,,,,,,,,,,,,,,,,,,,,,,,,,,,,,,,,,,,,,,,,,,,,,,,,,,,,,,,,,,
,,,,,,615ac6e5216f047d73a04f63,62c539b29489a96cabb6b53b,2022-07-06_09h29.10.769,Colour_Asymmetry_Pilot,2022.1.3,Win32,60.0348202,62c50e9c1127f2cd403a315f,0,101,101,116,1,threeone,,,,,,,,,,,,,,,,,,,,,,,,,,,,,,,,,,,,,,,,,,,,,,,,,,,,,,,,,,,,,,,,,,,,,,,,,,,,,,,,,,,,,,,,,,,,,,,,,,,,,,,,,,,,,,,,,,,,,,,,,,,,,,,,,,,,,,,,,,,,,,,,,,,,,,,,,,,,,
,,,,,,615ac6e5216f047d73a04f63,62c539b29489a96cabb6b53b,2022-07-06_09h29.10.769,Colour_Asymmetry_Pilot,2022.1.3,Win32,60.0348202,62c50e9c1127f2cd403a315f,0,102,102,131,1,twofour,,,,,,,,,,,,,,,,,,,,,,,,,,,,,,,,,,,,,,,,,,,,,,,,,,,,,,,,,,,,,,,,,,,,,,,,,,,,,,,,,,,,,,,,,,,,,,,,,,,,,,,,,,,,,,,,,,,,,,,,,,,,,,,,,,,,,,,,,,,,,,,,,,,,,,,,,,,,,
,,,,,,615ac6e5216f047d73a04f63,62c539b29489a96cabb6b53b,2022-07-06_09h29.10.769,Colour_Asymmetry_Pilot,2022.1.3,Win32,60.0348202,62c50e9c1127f2cd403a315f,0,103,103,54,1,fourtwo,,,,,,,,,,,,,,,,,,,,,,,,,,,,,,,,,,,,,,,,,,,,,,,,,,,,,,,,,,,,,,,,,,,,,,,,,,,,,,,,,,,,,,,,,,,,,,,,,,,,,,,,,,,,,,,,,,,,,,,,,,,,,,,,,,,,,,,,,,,,,,,,,,,,,,,,,,,,,
,,,,,,615ac6e5216f047d73a04f63,62c539b29489a96cabb6b53b,2022-07-06_09h29.10.769,Colour_Asymmetry_Pilot,2022.1.3,Win32,60.0348202,62c50e9c1127f2cd403a315f,0,104,104,140,1,threeone,,,,,,,,,,,,,,,,,,,,,,,,,,,,,,,,,,,,,,,,,,,,,,,,,,,,,,,,,,,,,,,,,,,,,,,,,,,,,,,,,,,,,,,,,,,,,,,,,,,,,,,,,,,,,,,,,,,,,,,,,,,,,,,,,,,,,,,,,,,,,,,,,,,,,,,,,,,,,
,,,,,,615ac6e5216f047d73a04f63,62c539b29489a96cabb6b53b,2022-07-06_09h29.10.769,Colour_Asymmetry_Pilot,2022.1.3,Win32,60.0348202,62c50e9c1127f2cd403a315f,0,105,105,157,1,threefour,,,,,,,,,,,,,,,,,,,,,,,,,,,,,,,,,,,,,,,,,,,,,,,,,,,,,,,,,,,,,,,,,,,,,,,,,,,,,,,,,,,,,,,,,,,,,,,,,,,,,,,,,,,,,,,,,,,,,,,,,,,,,,,,,,,,,,,,,,,,,,,,,,,,,,,,,,,,,
,,,,,,615ac6e5216f047d73a04f63,62c539b29489a96cabb6b53b,2022-07-06_09h29.10.769,Colour_Asymmetry_Pilot,2022.1.3,Win32,60.0348202,62c50e9c1127f2cd403a315f,0,106,106,49,1,onethree,,,,,,,,,,,,,,,,,,,,,,,,,,,,,,,,,,,,,,,,,,,,,,,,,,,,,,,,,,,,,,,,,,,,,,,,,,,,,,,,,,,,,,,,,,,,,,,,,,,,,,,,,,,,,,,,,,,,,,,,,,,,,,,,,,,,,,,,,,,,,,,,,,,,,,,,,,,,,
,,,,,,615ac6e5216f047d73a04f63,62c539b29489a96cabb6b53b,2022-07-06_09h29.10.769,Colour_Asymmetry_Pilot,2022.1.3,Win32,60.0348202,62c50e9c1127f2cd403a315f,0,107,107,12,1,threeone,,,,,,,,,,,,,,,,,,,,,,,,,,,,,,,,,,,,,,,,,,,,,,,,,,,,,,,,,,,,,,,,,,,,,,,,,,,,,,,,,,,,,,,,,,,,,,,,,,,,,,,,,,,,,,,,,,,,,,,,,,,,,,,,,,,,,,,,,,,,,,,,,,,,,,,,,,,,,
,,,,,,615ac6e5216f047d73a04f63,62c539b29489a96cabb6b53b,2022-07-06_09h29.10.769,Colour_Asymmetry_Pilot,2022.1.3,Win32,60.0348202,62c50e9c1127f2cd403a315f,0,108,108,155,1,twofour,,,,,,,,,,,,,,,,,,,,,,,,,,,,,,,,,,,,,,,,,,,,,,,,,,,,,,,,,,,,,,,,,,,,,,,,,,,,,,,,,,,,,,,,,,,,,,,,,,,,,,,,,,,,,,,,,,,,,,,,,,,,,,,,,,,,,,,,,,,,,,,,,,,,,,,,,,,,,
,,,,,,615ac6e5216f047d73a04f63,62c539b29489a96cabb6b53b,2022-07-06_09h29.10.769,Colour_Asymmetry_Pilot,2022.1.3,Win32,60.0348202,62c50e9c1127f2cd403a315f,0,109,109,104,1,onetwo,,,,,,,,,,,,,,,,,,,,,,,,,,,,,,,,,,,,,,,,,,,,,,,,,,,,,,,,,,,,,,,,,,,,,,,,,,,,,,,,,,,,,,,,,,,,,,,,,,,,,,,,,,,,,,,,,,,,,,,,,,,,,,,,,,,,,,,,,,,,,,,,,,,,,,,,,,,,,
,,,,,,615ac6e5216f047d73a04f63,62c539b29489a96cabb6b53b,2022-07-06_09h29.10.769,Colour_Asymmetry_Pilot,2022.1.3,Win32,60.0348202,62c50e9c1127f2cd403a315f,0,110,110,30,1,fourtwo,,,,,,,,,,,,,,,,,,,,,,,,,,,,,,,,,,,,,,,,,,,,,,,,,,,,,,,,,,,,,,,,,,,,,,,,,,,,,,,,,,,,,,,,,,,,,,,,,,,,,,,,,,,,,,,,,,,,,,,,,,,,,,,,,,,,,,,,,,,,,,,,,,,,,,,,,,,,,
,,,,,,615ac6e5216f047d73a04f63,62c539b29489a96cabb6b53b,2022-07-06_09h29.10.769,Colour_Asymmetry_Pilot,2022.1.3,Win32,60.0348202,62c50e9c1127f2cd403a315f,0,111,111,36,1,threeone,,,,,,,,,,,,,,,,,,,,,,,,,,,,,,,,,,,,,,,,,,,,,,,,,,,,,,,,,,,,,,,,,,,,,,,,,,,,,,,,,,,,,,,,,,,,,,,,,,,,,,,,,,,,,,,,,,,,,,,,,,,,,,,,,,,,,,,,,,,,,,,,,,,,,,,,,,,,,
,,,,,,615ac6e5216f047d73a04f63,62c539b29489a96cabb6b53b,2022-07-06_09h29.10.769,Colour_Asymmetry_Pilot,2022.1.3,Win32,60.0348202,62c50e9c1127f2cd403a315f,0,112,112,44,1,threeone,,,,,,,,,,,,,,,,,,,,,,,,,,,,,,,,,,,,,,,,,,,,,,,,,,,,,,,,,,,,,,,,,,,,,,,,,,,,,,,,,,,,,,,,,,,,,,,,,,,,,,,,,,,,,,,,,,,,,,,,,,,,,,,,,,,,,,,,,,,,,,,,,,,,,,,,,,,,,
,,,,,,615ac6e5216f047d73a04f63,62c539b29489a96cabb6b53b,2022-07-06_09h29.10.769,Colour_Asymmetry_Pilot,2022.1.3,Win32,60.0348202,62c50e9c1127f2cd403a315f,0,113,113,109,1,threefour,,,,,,,,,,,,,,,,,,,,,,,,,,,,,,,,,,,,,,,,,,,,,,,,,,,,,,,,,,,,,,,,,,,,,,,,,,,,,,,,,,,,,,,,,,,,,,,,,,,,,,,,,,,,,,,,,,,,,,,,,,,,,,,,,,,,,,,,,,,,,,,,,,,,,,,,,,,,,
,,,,,,615ac6e5216f047d73a04f63,62c539b29489a96cabb6b53b,2022-07-06_09h29.10.769,Colour_Asymmetry_Pilot,2022.1.3,Win32,60.0348202,62c50e9c1127f2cd403a315f,0,114,114,21,1,threefour,,,,,,,,,,,,,,,,,,,,,,,,,,,,,,,,,,,,,,,,,,,,,,,,,,,,,,,,,,,,,,,,,,,,,,,,,,,,,,,,,,,,,,,,,,,,,,,,,,,,,,,,,,,,,,,,,,,,,,,,,,,,,,,,,,,,,,,,,,,,,,,,,,,,,,,,,,,,,
,,,,,,615ac6e5216f047d73a04f63,62c539b29489a96cabb6b53b,2022-07-06_09h29.10.769,Colour_Asymmetry_Pilot,2022.1.3,Win32,60.0348202,62c50e9c1127f2cd403a315f,0,115,115,33,1,onethree,,,,,,,,,,,,,,,,,,,,,,,,,,,,,,,,,,,,,,,,,,,,,,,,,,,,,,,,,,,,,,,,,,,,,,,,,,,,,,,,,,,,,,,,,,,,,,,,,,,,,,,,,,,,,,,,,,,,,,,,,,,,,,,,,,,,,,,,,,,,,,,,,,,,,,,,,,,,,
,,,,,,615ac6e5216f047d73a04f63,62c539b29489a96cabb6b53b,2022-07-06_09h29.10.769,Colour_Asymmetry_Pilot,2022.1.3,Win32,60.0348202,62c50e9c1127f2cd403a315f,0,116,116,143,1,fourthree,,,,,,,,,,,,,,,,,,,,,,,,,,,,,,,,,,,,,,,,,,,,,,,,,,,,,,,,,,,,,,,,,,,,,,,,,,,,,,,,,,,,,,,,,,,,,,,,,,,,,,,,,,,,,,,,,,,,,,,,,,,,,,,,,,,,,,,,,,,,,,,,,,,,,,,,,,,,,
,,,,,,615ac6e5216f047d73a04f63,62c539b29489a96cabb6b53b,2022-07-06_09h29.10.769,Colour_Asymmetry_Pilot,2022.1.3,Win32,60.0348202,62c50e9c1127f2cd403a315f,0,117,117,43,1,twofour,,,,,,,,,,,,,,,,,,,,,,,,,,,,,,,,,,,,,,,,,,,,,,,,,,,,,,,,,,,,,,,,,,,,,,,,,,,,,,,,,,,,,,,,,,,,,,,,,,,,,,,,,,,,,,,,,,,,,,,,,,,,,,,,,,,,,,,,,,,,,,,,,,,,,,,,,,,,,
,,,,,,615ac6e5216f047d73a04f63,62c539b29489a96cabb6b53b,2022-07-06_09h29.10.769,Colour_Asymmetry_Pilot,2022.1.3,Win32,60.0348202,62c50e9c1127f2cd403a315f,0,118,118,72,1,onetwo,,,,,,,,,,,,,,,,,,,,,,,,,,,,,,,,,,,,,,,,,,,,,,,,,,,,,,,,,,,,,,,,,,,,,,,,,,,,,,,,,,,,,,,,,,,,,,,,,,,,,,,,,,,,,,,,,,,,,,,,,,,,,,,,,,,,,,,,,,,,,,,,,,,,,,,,,,,,,
,,,,,,615ac6e5216f047d73a04f63,62c539b29489a96cabb6b53b,2022-07-06_09h29.10.769,Colour_Asymmetry_Pilot,2022.1.3,Win32,60.0348202,62c50e9c1127f2cd403a315f,0,119,119,133,1,threefour,,,,,,,,,,,,,,,,,,,,,,,,,,,,,,,,,,,,,,,,,,,,,,,,,,,,,,,,,,,,,,,,,,,,,,,,,,,,,,,,,,,,,,,,,,,,,,,,,,,,,,,,,,,,,,,,,,,,,,,,,,,,,,,,,,,,,,,,,,,,,,,,,,,,,,,,,,,,,
,,,,,,615ac6e5216f047d73a04f63,62c539b29489a96cabb6b53b,2022-07-06_09h29.10.769,Colour_Asymmetry_Pilot,2022.1.3,Win32,60.0348202,62c50e9c1127f2cd403a315f,0,120,120,15,1,fourthree,,,,,,,,,,,,,,,,,,,,,,,,,,,,,,,,,,,,,,,,,,,,,,,,,,,,,,,,,,,,,,,,,,,,,,,,,,,,,,,,,,,,,,,,,,,,,,,,,,,,,,,,,,,,,,,,,,,,,,,,,,,,,,,,,,,,,,,,,,,,,,,,,,,,,,,,,,,,,
,,,,,,615ac6e5216f047d73a04f63,62c539b29489a96cabb6b53b,2022-07-06_09h29.10.769,Colour_Asymmetry_Pilot,2022.1.3,Win32,60.0348202,62c50e9c1127f2cd403a315f,0,121,121,146,1,twoone,,,,,,,,,,,,,,,,,,,,,,,,,,,,,,,,,,,,,,,,,,,,,,,,,,,,,,,,,,,,,,,,,,,,,,,,,,,,,,,,,,,,,,,,,,,,,,,,,,,,,,,,,,,,,,,,,,,,,,,,,,,,,,,,,,,,,,,,,,,,,,,,,,,,,,,,,,,,,
,,,,,,615ac6e5216f047d73a04f63,62c539b29489a96cabb6b53b,2022-07-06_09h29.10.769,Colour_Asymmetry_Pilot,2022.1.3,Win32,60.0348202,62c50e9c1127f2cd403a315f,0,122,122,37,1,threefour,,,,,,,,,,,,,,,,,,,,,,,,,,,,,,,,,,,,,,,,,,,,,,,,,,,,,,,,,,,,,,,,,,,,,,,,,,,,,,,,,,,,,,,,,,,,,,,,,,,,,,,,,,,,,,,,,,,,,,,,,,,,,,,,,,,,,,,,,,,,,,,,,,,,,,,,,,,,,
,,,,,,615ac6e5216f047d73a04f63,62c539b29489a96cabb6b53b,2022-07-06_09h29.10.769,Colour_Asymmetry_Pilot,2022.1.3,Win32,60.0348202,62c50e9c1127f2cd403a315f,0,123,123,58,1,twoone,,,,,,,,,,,,,,,,,,,,,,,,,,,,,,,,,,,,,,,,,,,,,,,,,,,,,,,,,,,,,,,,,,,,,,,,,,,,,,,,,,,,,,,,,,,,,,,,,,,,,,,,,,,,,,,,,,,,,,,,,,,,,,,,,,,,,,,,,,,,,,,,,,,,,,,,,,,,,
,,,,,,615ac6e5216f047d73a04f63,62c539b29489a96cabb6b53b,2022-07-06_09h29.10.769,Colour_Asymmetry_Pilot,2022.1.3,Win32,60.0348202,62c50e9c1127f2cd403a315f,0,124,124,34,1,twoone,,,,,,,,,,,,,,,,,,,,,,,,,,,,,,,,,,,,,,,,,,,,,,,,,,,,,,,,,,,,,,,,,,,,,,,,,,,,,,,,,,,,,,,,,,,,,,,,,,,,,,,,,,,,,,,,,,,,,,,,,,,,,,,,,,,,,,,,,,,,,,,,,,,,,,,,,,,,,
,,,,,,615ac6e5216f047d73a04f63,62c539b29489a96cabb6b53b,2022-07-06_09h29.10.769,Colour_Asymmetry_Pilot,2022.1.3,Win32,60.0348202,62c50e9c1127f2cd403a315f,0,125,125,19,1,twofour,,,,,,,,,,,,,,,,,,,,,,,,,,,,,,,,,,,,,,,,,,,,,,,,,,,,,,,,,,,,,,,,,,,,,,,,,,,,,,,,,,,,,,,,,,,,,,,,,,,,,,,,,,,,,,,,,,,,,,,,,,,,,,,,,,,,,,,,,,,,,,,,,,,,,,,,,,,,,
,,,,,,615ac6e5216f047d73a04f63,62c539b29489a96cabb6b53b,2022-07-06_09h29.10.769,Colour_Asymmetry_Pilot,2022.1.3,Win32,60.0348202,62c50e9c1127f2cd403a315f,0,126,126,119,1,fourthree,,,,,,,,,,,,,,,,,,,,,,,,,,,,,,,,,,,,,,,,,,,,,,,,,,,,,,,,,,,,,,,,,,,,,,,,,,,,,,,,,,,,,,,,,,,,,,,,,,,,,,,,,,,,,,,,,,,,,,,,,,,,,,,,,,,,,,,,,,,,,,,,,,,,,,,,,,,,,
,,,,,,615ac6e5216f047d73a04f63,62c539b29489a96cabb6b53b,2022-07-06_09h29.10.769,Colour_Asymmetry_Pilot,2022.1.3,Win32,60.0348202,62c50e9c1127f2cd403a315f,0,127,127,151,1,fourthree,,,,,,,,,,,,,,,,,,,,,,,,,,,,,,,,,,,,,,,,,,,,,,,,,,,,,,,,,,,,,,,,,,,,,,,,,,,,,,,,,,,,,,,,,,,,,,,,,,,,,,,,,,,,,,,,,,,,,,,,,,,,,,,,,,,,,,,,,,,,,,,,,,,,,,,,,,,,,
,,,,,,615ac6e5216f047d73a04f63,62c539b29489a96cabb6b53b,2022-07-06_09h29.10.769,Colour_Asymmetry_Pilot,2022.1.3,Win32,60.0348202,62c50e9c1127f2cd403a315f,0,128,128,80,1,onetwo,,,,,,,,,,,,,,,,,,,,,,,,,,,,,,,,,,,,,,,,,,,,,,,,,,,,,,,,,,,,,,,,,,,,,,,,,,,,,,,,,,,,,,,,,,,,,,,,,,,,,,,,,,,,,,,,,,,,,,,,,,,,,,,,,,,,,,,,,,,,,,,,,,,,,,,,,,,,,
,,,,,,615ac6e5216f047d73a04f63,62c539b29489a96cabb6b53b,2022-07-06_09h29.10.769,Colour_Asymmetry_Pilot,2022.1.3,Win32,60.0348202,62c50e9c1127f2cd403a315f,0,129,129,127,1,fourthree,,,,,,,,,,,,,,,,,,,,,,,,,,,,,,,,,,,,,,,,,,,,,,,,,,,,,,,,,,,,,,,,,,,,,,,,,,,,,,,,,,,,,,,,,,,,,,,,,,,,,,,,,,,,,,,,,,,,,,,,,,,,,,,,,,,,,,,,,,,,,,,,,,,,,,,,,,,,,
,,,,,,615ac6e5216f047d73a04f63,62c539b29489a96cabb6b53b,2022-07-06_09h29.10.769,Colour_Asymmetry_Pilot,2022.1.3,Win32,60.0348202,62c50e9c1127f2cd403a315f,0,130,130,130,1,twoone,,,,,,,,,,,,,,,,,,,,,,,,,,,,,,,,,,,,,,,,,,,,,,,,,,,,,,,,,,,,,,,,,,,,,,,,,,,,,,,,,,,,,,,,,,,,,,,,,,,,,,,,,,,,,,,,,,,,,,,,,,,,,,,,,,,,,,,,,,,,,,,,,,,,,,,,,,,,,
,,,,,,615ac6e5216f047d73a04f63,62c539b29489a96cabb6b53b,2022-07-06_09h29.10.769,Colour_Asymmetry_Pilot,2022.1.3,Win32,60.0348202,62c50e9c1127f2cd403a315f,0,131,131,69,1,threefour,,,,,,,,,,,,,,,,,,,,,,,,,,,,,,,,,,,,,,,,,,,,,,,,,,,,,,,,,,,,,,,,,,,,,,,,,,,,,,,,,,,,,,,,,,,,,,,,,,,,,,,,,,,,,,,,,,,,,,,,,,,,,,,,,,,,,,,,,,,,,,,,,,,,,,,,,,,,,
,,,,,,615ac6e5216f047d73a04f63,62c539b29489a96cabb6b53b,2022-07-06_09h29.10.769,Colour_Asymmetry_Pilot,2022.1.3,Win32,60.0348202,62c50e9c1127f2cd403a315f,0,132,132,17,1,onethree,,,,,,,,,,,,,,,,,,,,,,,,,,,,,,,,,,,,,,,,,,,,,,,,,,,,,,,,,,,,,,,,,,,,,,,,,,,,,,,,,,,,,,,,,,,,,,,,,,,,,,,,,,,,,,,,,,,,,,,,,,,,,,,,,,,,,,,,,,,,,,,,,,,,,,,,,,,,,
,,,,,,615ac6e5216f047d73a04f63,62c539b29489a96cabb6b53b,2022-07-06_09h29.10.769,Colour_Asymmetry_Pilot,2022.1.3,Win32,60.0348202,62c50e9c1127f2cd403a315f,0,133,133,94,1,fourtwo,,,,,,,,,,,,,,,,,,,,,,,,,,,,,,,,,,,,,,,,,,,,,,,,,,,,,,,,,,,,,,,,,,,,,,,,,,,,,,,,,,,,,,,,,,,,,,,,,,,,,,,,,,,,,,,,,,,,,,,,,,,,,,,,,,,,,,,,,,,,,,,,,,,,,,,,,,,,,
,,,,,,615ac6e5216f047d73a04f63,62c539b29489a96cabb6b53b,2022-07-06_09h29.10.769,Colour_Asymmetry_Pilot,2022.1.3,Win32,60.0348202,62c50e9c1127f2cd403a315f,0,134,134,156,1,threeone,,,,,,,,,,,,,,,,,,,,,,,,,,,,,,,,,,,,,,,,,,,,,,,,,,,,,,,,,,,,,,,,,,,,,,,,,,,,,,,,,,,,,,,,,,,,,,,,,,,,,,,,,,,,,,,,,,,,,,,,,,,,,,,,,,,,,,,,,,,,,,,,,,,,,,,,,,,,,
,,,,,,615ac6e5216f047d73a04f63,62c539b29489a96cabb6b53b,2022-07-06_09h29.10.769,Colour_Asymmetry_Pilot,2022.1.3,Win32,60.0348202,62c50e9c1127f2cd403a315f,0,135,135,83,1,twofour,,,,,,,,,,,,,,,,,,,,,,,,,,,,,,,,,,,,,,,,,,,,,,,,,,,,,,,,,,,,,,,,,,,,,,,,,,,,,,,,,,,,,,,,,,,,,,,,,,,,,,,,,,,,,,,,,,,,,,,,,,,,,,,,,,,,,,,,,,,,,,,,,,,,,,,,,,,,,
,,,,,,615ac6e5216f047d73a04f63,62c539b29489a96cabb6b53b,2022-07-06_09h29.10.769,Colour_Asymmetry_Pilot,2022.1.3,Win32,60.0348202,62c50e9c1127f2cd403a315f,0,136,136,82,1,twoone,,,,,,,,,,,,,,,,,,,,,,,,,,,,,,,,,,,,,,,,,,,,,,,,,,,,,,,,,,,,,,,,,,,,,,,,,,,,,,,,,,,,,,,,,,,,,,,,,,,,,,,,,,,,,,,,,,,,,,,,,,,,,,,,,,,,,,,,,,,,,,,,,,,,,,,,,,,,,
,,,,,,615ac6e5216f047d73a04f63,62c539b29489a96cabb6b53b,2022-07-06_09h29.10.769,Colour_Asymmetry_Pilot,2022.1.3,Win32,60.0348202,62c50e9c1127f2cd403a315f,0,137,137,108,1,threeone,,,,,,,,,,,,,,,,,,,,,,,,,,,,,,,,,,,,,,,,,,,,,,,,,,,,,,,,,,,,,,,,,,,,,,,,,,,,,,,,,,,,,,,,,,,,,,,,,,,,,,,,,,,,,,,,,,,,,,,,,,,,,,,,,,,,,,,,,,,,,,,,,,,,,,,,,,,,,
,,,,,,615ac6e5216f047d73a04f63,62c539b29489a96cabb6b53b,2022-07-06_09h29.10.769,Colour_Asymmetry_Pilot,2022.1.3,Win32,60.0348202,62c50e9c1127f2cd403a315f,0,138,138,9,1,onethree,,,,,,,,,,,,,,,,,,,,,,,,,,,,,,,,,,,,,,,,,,,,,,,,,,,,,,,,,,,,,,,,,,,,,,,,,,,,,,,,,,,,,,,,,,,,,,,,,,,,,,,,,,,,,,,,,,,,,,,,,,,,,,,,,,,,,,,,,,,,,,,,,,,,,,,,,,,,,
,,,,,,615ac6e5216f047d73a04f63,62c539b29489a96cabb6b53b,2022-07-06_09h29.10.769,Colour_Asymmetry_Pilot,2022.1.3,Win32,60.0348202,62c50e9c1127f2cd403a315f,0,139,139,125,1,threefour,,,,,,,,,,,,,,,,,,,,,,,,,,,,,,,,,,,,,,,,,,,,,,,,,,,,,,,,,,,,,,,,,,,,,,,,,,,,,,,,,,,,,,,,,,,,,,,,,,,,,,,,,,,,,,,,,,,,,,,,,,,,,,,,,,,,,,,,,,,,,,,,,,,,,,,,,,,,,
,,,,,,615ac6e5216f047d73a04f63,62c539b29489a96cabb6b53b,2022-07-06_09h29.10.769,Colour_Asymmetry_Pilot,2022.1.3,Win32,60.0348202,62c50e9c1127f2cd403a315f,0,140,140,68,1,threeone,,,,,,,,,,,,,,,,,,,,,,,,,,,,,,,,,,,,,,,,,,,,,,,,,,,,,,,,,,,,,,,,,,,,,,,,,,,,,,,,,,,,,,,,,,,,,,,,,,,,,,,,,,,,,,,,,,,,,,,,,,,,,,,,,,,,,,,,,,,,,,,,,,,,,,,,,,,,,
,,,,,,615ac6e5216f047d73a04f63,62c539b29489a96cabb6b53b,2022-07-06_09h29.10.769,Colour_Asymmetry_Pilot,2022.1.3,Win32,60.0348202,62c50e9c1127f2cd403a315f,0,141,141,52,1,threeone,,,,,,,,,,,,,,,,,,,,,,,,,,,,,,,,,,,,,,,,,,,,,,,,,,,,,,,,,,,,,,,,,,,,,,,,,,,,,,,,,,,,,,,,,,,,,,,,,,,,,,,,,,,,,,,,,,,,,,,,,,,,,,,,,,,,,,,,,,,,,,,,,,,,,,,,,,,,,
,,,,,,615ac6e5216f047d73a04f63,62c539b29489a96cabb6b53b,2022-07-06_09h29.10.769,Colour_Asymmetry_Pilot,2022.1.3,Win32,60.0348202,62c50e9c1127f2cd403a315f,0,142,142,96,1,onetwo,,,,,,,,,,,,,,,,,,,,,,,,,,,,,,,,,,,,,,,,,,,,,,,,,,,,,,,,,,,,,,,,,,,,,,,,,,,,,,,,,,,,,,,,,,,,,,,,,,,,,,,,,,,,,,,,,,,,,,,,,,,,,,,,,,,,,,,,,,,,,,,,,,,,,,,,,,,,,
,,,,,,615ac6e5216f047d73a04f63,62c539b29489a96cabb6b53b,2022-07-06_09h29.10.769,Colour_Asymmetry_Pilot,2022.1.3,Win32,60.0348202,62c50e9c1127f2cd403a315f,0,143,143,66,1,twoone,,,,,,,,,,,,,,,,,,,,,,,,,,,,,,,,,,,,,,,,,,,,,,,,,,,,,,,,,,,,,,,,,,,,,,,,,,,,,,,,,,,,,,,,,,,,,,,,,,,,,,,,,,,,,,,,,,,,,,,,,,,,,,,,,,,,,,,,,,,,,,,,,,,,,,,,,,,,,
,,,,,,615ac6e5216f047d73a04f63,62c539b29489a96cabb6b53b,2022-07-06_09h29.10.769,Colour_Asymmetry_Pilot,2022.1.3,Win32,60.0348202,62c50e9c1127f2cd403a315f,0,144,144,138,1,twoone,,,,,,,,,,,,,,,,,,,,,,,,,,,,,,,,,,,,,,,,,,,,,,,,,,,,,,,,,,,,,,,,,,,,,,,,,,,,,,,,,,,,,,,,,,,,,,,,,,,,,,,,,,,,,,,,,,,,,,,,,,,,,,,,,,,,,,,,,,,,,,,,,,,,,,,,,,,,,
,,,,,,615ac6e5216f047d73a04f63,62c539b29489a96cabb6b53b,2022-07-06_09h29.10.769,Colour_Asymmetry_Pilot,2022.1.3,Win32,60.0348202,62c50e9c1127f2cd403a315f,0,145,145,40,1,onetwo,,,,,,,,,,,,,,,,,,,,,,,,,,,,,,,,,,,,,,,,,,,,,,,,,,,,,,,,,,,,,,,,,,,,,,,,,,,,,,,,,,,,,,,,,,,,,,,,,,,,,,,,,,,,,,,,,,,,,,,,,,,,,,,,,,,,,,,,,,,,,,,,,,,,,,,,,,,,,
,,,,,,615ac6e5216f047d73a04f63,62c539b29489a96cabb6b53b,2022-07-06_09h29.10.769,Colour_Asymmetry_Pilot,2022.1.3,Win32,60.0348202,62c50e9c1127f2cd403a315f,0,146,146,47,1,fourthree,,,,,,,,,,,,,,,,,,,,,,,,,,,,,,,,,,,,,,,,,,,,,,,,,,,,,,,,,,,,,,,,,,,,,,,,,,,,,,,,,,,,,,,,,,,,,,,,,,,,,,,,,,,,,,,,,,,,,,,,,,,,,,,,,,,,,,,,,,,,,,,,,,,,,,,,,,,,,
,,,,,,615ac6e5216f047d73a04f63,62c539b29489a96cabb6b53b,2022-07-06_09h29.10.769,Colour_Asymmetry_Pilot,2022.1.3,Win32,60.0348202,62c50e9c1127f2cd403a315f,0,147,147,84,1,threeone,,,,,,,,,,,,,,,,,,,,,,,,,,,,,,,,,,,,,,,,,,,,,,,,,,,,,,,,,,,,,,,,,,,,,,,,,,,,,,,,,,,,,,,,,,,,,,,,,,,,,,,,,,,,,,,,,,,,,,,,,,,,,,,,,,,,,,,,,,,,,,,,,,,,,,,,,,,,,
,,,,,,615ac6e5216f047d73a04f63,62c539b29489a96cabb6b53b,2022-07-06_09h29.10.769,Colour_Asymmetry_Pilot,2022.1.3,Win32,60.0348202,62c50e9c1127f2cd403a315f,0,148,148,129,1,onethree,,,,,,,,,,,,,,,,,,,,,,,,,,,,,,,,,,,,,,,,,,,,,,,,,,,,,,,,,,,,,,,,,,,,,,,,,,,,,,,,,,,,,,,,,,,,,,,,,,,,,,,,,,,,,,,,,,,,,,,,,,,,,,,,,,,,,,,,,,,,,,,,,,,,,,,,,,,,,
,,,,,,615ac6e5216f047d73a04f63,62c539b29489a96cabb6b53b,2022-07-06_09h29.10.769,Colour_Asymmetry_Pilot,2022.1.3,Win32,60.0348202,62c50e9c1127f2cd403a315f,0,149,149,87,1,fourthree,,,,,,,,,,,,,,,,,,,,,,,,,,,,,,,,,,,,,,,,,,,,,,,,,,,,,,,,,,,,,,,,,,,,,,,,,,,,,,,,,,,,,,,,,,,,,,,,,,,,,,,,,,,,,,,,,,,,,,,,,,,,,,,,,,,,,,,,,,,,,,,,,,,,,,,,,,,,,
,,,,,,615ac6e5216f047d73a04f63,62c539b29489a96cabb6b53b,2022-07-06_09h29.10.769,Colour_Asymmetry_Pilot,2022.1.3,Win32,60.0348202,62c50e9c1127f2cd403a315f,0,150,150,26,1,twoone,,,,,,,,,,,,,,,,,,,,,,,,,,,,,,,,,,,,,,,,,,,,,,,,,,,,,,,,,,,,,,,,,,,,,,,,,,,,,,,,,,,,,,,,,,,,,,,,,,,,,,,,,,,,,,,,,,,,,,,,,,,,,,,,,,,,,,,,,,,,,,,,,,,,,,,,,,,,,
,,,,,,615ac6e5216f047d73a04f63,62c539b29489a96cabb6b53b,2022-07-06_09h29.10.769,Colour_Asymmetry_Pilot,2022.1.3,Win32,60.0348202,62c50e9c1127f2cd403a315f,0,151,151,56,1,onetwo,,,,,,,,,,,,,,,,,,,,,,,,,,,,,,,,,,,,,,,,,,,,,,,,,,,,,,,,,,,,,,,,,,,,,,,,,,,,,,,,,,,,,,,,,,,,,,,,,,,,,,,,,,,,,,,,,,,,,,,,,,,,,,,,,,,,,,,,,,,,,,,,,,,,,,,,,,,,,
,,,,,,615ac6e5216f047d73a04f63,62c539b29489a96cabb6b53b,2022-07-06_09h29.10.769,Colour_Asymmetry_Pilot,2022.1.3,Win32,60.0348202,62c50e9c1127f2cd403a315f,0,152,152,161,1,onethree,,,,,,,,,,,,,,,,,,,,,,,,,,,,,,,,,,,,,,,,,,,,,,,,,,,,,,,,,,,,,,,,,,,,,,,,,,,,,,,,,,,,,,,,,,,,,,,,,,,,,,,,,,,,,,,,,,,,,,,,,,,,,,,,,,,,,,,,,,,,,,,,,,,,,,,,,,,,,
,,,,,,615ac6e5216f047d73a04f63,62c539b29489a96cabb6b53b,2022-07-06_09h29.10.769,Colour_Asymmetry_Pilot,2022.1.3,Win32,60.0348202,62c50e9c1127f2cd403a315f,0,153,153,7,1,fourthree,,,,,,,,,,,,,,,,,,,,,,,,,,,,,,,,,,,,,,,,,,,,,,,,,,,,,,,,,,,,,,,,,,,,,,,,,,,,,,,,,,,,,,,,,,,,,,,,,,,,,,,,,,,,,,,,,,,,,,,,,,,,,,,,,,,,,,,,,,,,,,,,,,,,,,,,,,,,,
,,,,,,615ac6e5216f047d73a04f63,62c539b29489a96cabb6b53b,2022-07-06_09h29.10.769,Colour_Asymmetry_Pilot,2022.1.3,Win32,60.0348202,62c50e9c1127f2cd403a315f,0,154,154,124,1,threeone,,,,,,,,,,,,,,,,,,,,,,,,,,,,,,,,,,,,,,,,,,,,,,,,,,,,,,,,,,,,,,,,,,,,,,,,,,,,,,,,,,,,,,,,,,,,,,,,,,,,,,,,,,,,,,,,,,,,,,,,,,,,,,,,,,,,,,,,,,,,,,,,,,,,,,,,,,,,,
,,,,,,615ac6e5216f047d73a04f63,62c539b29489a96cabb6b53b,2022-07-06_09h29.10.769,Colour_Asymmetry_Pilot,2022.1.3,Win32,60.0348202,62c50e9c1127f2cd403a315f,0,155,155,14,1,fourtwo,,,,,,,,,,,,,,,,,,,,,,,,,,,,,,,,,,,,,,,,,,,,,,,,,,,,,,,,,,,,,,,,,,,,,,,,,,,,,,,,,,,,,,,,,,,,,,,,,,,,,,,,,,,,,,,,,,,,,,,,,,,,,,,,,,,,,,,,,,,,,,,,,,,,,,,,,,,,,
,,,,,,615ac6e5216f047d73a04f63,62c539b29489a96cabb6b53b,2022-07-06_09h29.10.769,Colour_Asymmetry_Pilot,2022.1.3,Win32,60.0348202,62c50e9c1127f2cd403a315f,0,156,156,98,1,twoone,,,,,,,,,,,,,,,,,,,,,,,,,,,,,,,,,,,,,,,,,,,,,,,,,,,,,,,,,,,,,,,,,,,,,,,,,,,,,,,,,,,,,,,,,,,,,,,,,,,,,,,,,,,,,,,,,,,,,,,,,,,,,,,,,,,,,,,,,,,,,,,,,,,,,,,,,,,,,
,,,,,,615ac6e5216f047d73a04f63,62c539b29489a96cabb6b53b,2022-07-06_09h29.10.769,Colour_Asymmetry_Pilot,2022.1.3,Win32,60.0348202,62c50e9c1127f2cd403a315f,0,157,157,4,1,threeone,,,,,,,,,,,,,,,,,,,,,,,,,,,,,,,,,,,,,,,,,,,,,,,,,,,,,,,,,,,,,,,,,,,,,,,,,,,,,,,,,,,,,,,,,,,,,,,,,,,,,,,,,,,,,,,,,,,,,,,,,,,,,,,,,,,,,,,,,,,,,,,,,,,,,,,,,,,,,
,,,,,,615ac6e5216f047d73a04f63,62c539b29489a96cabb6b53b,2022-07-06_09h29.10.769,Colour_Asymmetry_Pilot,2022.1.3,Win32,60.0348202,62c50e9c1127f2cd403a315f,0,158,158,81,1,onethree,,,,,,,,,,,,,,,,,,,,,,,,,,,,,,,,,,,,,,,,,,,,,,,,,,,,,,,,,,,,,,,,,,,,,,,,,,,,,,,,,,,,,,,,,,,,,,,,,,,,,,,,,,,,,,,,,,,,,,,,,,,,,,,,,,,,,,,,,,,,,,,,,,,,,,,,,,,,,
,,,,,,615ac6e5216f047d73a04f63,62c539b29489a96cabb6b53b,2022-07-06_09h29.10.769,Colour_Asymmetry_Pilot,2022.1.3,Win32,60.0348202,62c50e9c1127f2cd403a315f,0,159,159,22,1,fourtwo,,,,,,,,,,,,,,,,,,,,,,,,,,,,,,,,,,,,,,,,,,,,,,,,,,,,,,,,,,,,,,,,,,,,,,,,,,,,,,,,,,,,,,,,,,,,,,,,,,,,,,,,,,,,,,,,,,,,,,,,,,,,,,,,,,,,,,,,,,,,,,,,,,,,,,,,,,,,,
,,,,,,615ac6e5216f047d73a04f63,62c539b29489a96cabb6b53b,2022-07-06_09h29.10.769,Colour_Asymmetry_Pilot,2022.1.3,Win32,60.0348202,62c50e9c1127f2cd403a315f,0,160,160,1,1,onethree,,,,,,,,,,,,,,,,,,,,,,,,,,,,,,,,,,,,,,,,,,,,,,,,,,,,,,,,,,,,,,,,,,,,,,,,,,,,,,,,,,,,,,,,,,,,,,,,,,,,,,,,,,,,,,,,,,,,,,,,,,,,,,,,,,,,,,,,,,,,,,,,,,,,,,,,,,,,,
,,,,,,615ac6e5216f047d73a04f63,62c539b29489a96cabb6b53b,2022-07-06_09h29.10.769,Colour_Asymmetry_Pilot,2022.1.3,Win32,60.0348202,62c50e9c1127f2cd403a315f,0,161,161,76,1,threeone,,,,,,,,,,,,,,,,,,,,,,,,,,,,,,,,,,,,,,,,,,,,,,,,,,,,,,,,,,,,,,,,,,,,,,,,,,,,,,,,,,,,,,,,,,,,,,,,,,,,,,,,,,,,,,,,,,,,,,,,,,,,,,,,,,,,,,,,,,,,,,,,,,,,,,,,,,,,,
,,,,,,615ac6e5216f047d73a04f63,62c539b29489a96cabb6b53b,2022-07-06_09h29.10.769,Colour_Asymmetry_Pilot,2022.1.3,Win32,60.0348202,62c50e9c1127f2cd403a315f,,,,,,,space,4.5023,space,36.5104,space,35.5715,space,9.7963,space,3.9502,space,4.2162,"[0.7646000000000002,0.07440000000000002,0.2704]",threefour,"[0.8115999999999999,-0.0040000000000000036,-0.09819999999999995]",4,37.3334,69,148,1,0,0,response1disk_5,-7,2,1,0,0,rectangle_8,-7,2,1,0,0,2,-7,2,1,0,0,0,0,0,0,1,,,,,,,,,,,,,,,,,,,,,,,,,,,,,,,,,,,,,,,,,,,,,,,,,,,,,,,,,,,,,,,,,,,,,,,,,,,,,,,,,,,,,,,,,,,,,,,,,,,,,,,,,,,,,,,,
,,,,,,615ac6e5216f047d73a04f63,62c539b29489a96cabb6b53b,2022-07-06_09h29.10.769,Colour_Asymmetry_Pilot,2022.1.3,Win32,60.0348202,62c50e9c1127f2cd403a315f,,,,,,,,,,,,,,,,,,,"[-0.17659999999999998,-0.2864,-0.8354]",onethree,"[0.9213999999999998,0.6391999999999998,-0.9922]",-3,6.9817,-69,34,1,0,0,response7disk_5,1,-8,1,0,0,rectangle_8,80,-62,1,0,0,2,-12,7,1,0,0,1,0,1,0,1,response3disk_7,5,rectangle_4,,,,,,,,,,,,,,,,,,,,,,,,,,,,,,,,,,,,,,,,,,,,,,,,,,,,,,,,,,,,,,,,,,,,,,,,,,,,,,,,,,,,,,,,,,,,,,,,,,,,,,,,,,,,,
,,,,,,615ac6e5216f047d73a04f63,62c539b29489a96cabb6b53b,2022-07-06_09h29.10.769,Colour_Asymmetry_Pilot,2022.1.3,Win32,60.0348202,62c50e9c1127f2cd403a315f,,,,,,,,,,,,,,,,,,,"[-0.5452,-0.608,0.2470000000000001]",threefour,"[0.7018,0.7176,0.6155999999999999]",-4,4.8654,-45,142,1,0,0,response7disk_5,6,-7,1,0,0,rectangle_8,6,-7,1,0,0,2,6,-7,1,0,0,2,0,2,0,1,,,,,,,,,,,,,,,,,,,,,,,,,,,,,,,,,,,,,,,,,,,,,,,,,,,,,,,,,,,,,,,,,,,,,,,,,,,,,,,,,,,,,,,,,,,,,,,,,,,,,,,,,,,,,,,,
,,,,,,615ac6e5216f047d73a04f63,62c539b29489a96cabb6b53b,2022-07-06_09h29.10.769,Colour_Asymmetry_Pilot,2022.1.3,Win32,60.0348202,62c50e9c1127f2cd403a315f,,,,,,,,,,,,,,,,,,,"[-0.4902000000000001,0.2704,-0.45899999999999996]",fourthree,"[-0.5922000000000001,-0.7492000000000001,-0.5296000000000001]",-4,4.2478,-40,114,1,0,0,response7disk_5,-21,-5,1,0,0,rectangle_8,-21,-5,1,0,0,2,-21,-5,1,0,0,3,0,3,0,1,,,,,,,,,,,,,,,,,,,,,,,,,,,,,,,,,,,,,,,,,,,,,,,,,,,,,,,,,,,,,,,,,,,,,,,,,,,,,,,,,,,,,,,,,,,,,,,,,,,,,,,,,,,,,,,,
,,,,,,615ac6e5216f047d73a04f63,62c539b29489a96cabb6b53b,2022-07-06_09h29.10.769,Colour_Asymmetry_Pilot,2022.1.3,Win32,60.0348202,62c50e9c1127f2cd403a315f,,,,,,,,,,,,,,,,,,,"[-0.9766,-0.34920000000000007,0.2156]",fourtwo,"[-0.050999999999999934,-0.6706000000000001,-0.804]",-4,2.1494,-34,87,1,0,0,response7disk_5,-14,-11,1,0,0,rectangle_8,-14,-11,1,0,0,2,-14,-11,1,0,0,4,0,4,0,1,,,,,,,,,,,,,,,,,,,,,,,,,,,,,,,,,,,,,,,,,,,,,,,,,,,,,,,,,,,,,,,,,,,,,,,,,,,,,,,,,,,,,,,,,,,,,,,,,,,,,,,,,,,,,,,,
,,,,,,615ac6e5216f047d73a04f63,62c539b29489a96cabb6b53b,2022-07-06_09h29.10.769,Colour_Asymmetry_Pilot,2022.1.3,Win32,60.0348202,62c50e9c1127f2cd403a315f,,,,,,,,,,,,,,,,,,,"[-0.9296,-0.12959999999999994,-0.043199999999999905]",onetwo,"[-0.6706000000000001,-0.6157999999999999,-0.6786]",-3,4.1999,-121,69,1,0,0,response7disk_5,-8,-2,1,0,0,rectangle_8,-8,-2,1,0,0,2,-8,-2,1,0,0,5,0,5,0,1,,,,,,,,,,,,,,,,,,,,,,,,,,,,,,,,,,,,,,,,,,,,,,,,,,,,,,,,,,,,,,,,,,,,,,,,,,,,,,,,,,,,,,,,,,,,,,,,,,,,,,,,,,,,,,,,
,,,,,,615ac6e5216f047d73a04f63,62c539b29489a96cabb6b53b,2022-07-06_09h29.10.769,Colour_Asymmetry_Pilot,2022.1.3,Win32,60.0348202,62c50e9c1127f2cd403a315f,,,,,,,,,,,,,,,,,,,"[-0.4746,-0.0354000000000001,0.5449999999999999]",onetwo,"[0.7018,0.7802,-0.16079999999999994]",-3,6.2476,-79,47,1,0,0,response7disk_5,0,13,1,0,0,rectangle_8,0,13,1,0,0,2,0,13,1,0,0,6,0,6,0,1,,,,,,,,,,,,,,,,,,,,,,,,,,,,,,,,,,,,,,,,,,,,,,,,,,,,,,,,,,,,,,,,,,,,,,,,,,,,,,,,,,,,,,,,,,,,,,,,,,,,,,,,,,,,,,,,
,,,,,,615ac6e5216f047d73a04f63,62c539b29489a96cabb6b53b,2022-07-06_09h29.10.769,Colour_Asymmetry_Pilot,2022.1.3,Win32,60.0348202,62c50e9c1127f2cd403a315f,,,,,,,,,,,,,,,,,,,,onetwo,,-4,3.3528,,,,,,,,,,,,,,,,,,,,,,,,,,,,,,,,space,3.9714,"[0.30180000000000007,-0.7884,-0.9844]","[0.9213999999999998,0.6391999999999998,-0.9922]",-58,100,1,0,0,response7disk,-26,-5,1,0,0,rectangle,-26,-5,1,0,0,,2,0.0031,0,-26,-5,1,0,0,0,0,0,32,1,32,first,,,,,,,,,,,,,,,,,,,,,,,,,,,,,,,,,,,,,,,,,,,,,,,,,,,,,,,,,,,,,,,,,,,,,,,,
,,,,,,615ac6e5216f047d73a04f63,62c539b29489a96cabb6b53b,2022-07-06_09h29.10.769,Colour_Asymmetry_Pilot,2022.1.3,Win32,60.0348202,62c50e9c1127f2cd403a315f,,,,,,,,,,,,,,,,,,,,onetwo,,-4,1.4997,,,,,,,,,,,,,,,,,,,,,,,,,,,,,,,,,,"[0.9686000000000001,0.5763999999999998,0.11359999999999992]","[-0.9766,-0.6472,0.07440000000000002]",-47,100,1,0,0,response7disk,-6,-9,1,0,0,rectangle,-6,-9,1,0,0,,2,0.0004,0,-6,-9,1,0,0,0,1,1,94,1,13,second,,,,,,,,,,,,,,,,,,,,,,,,,,,,,,,,,,,,,,,,,,,,,,,,,,,,,,,,,,,,,,,,,,,,,,,,
,,,,,,615ac6e5216f047d73a04f63,62c539b29489a96cabb6b53b,2022-07-06_09h29.10.769,Colour_Asymmetry_Pilot,2022.1.3,Win32,60.0348202,62c50e9c1127f2cd403a315f,,,,,,,,,,,,,,,,,,,,twofour,,-3,2.7326,,,,,,,,,,,,,,,,,,,,,,,,,,,,,,,,,,"[-0.7412000000000001,-0.08239999999999992,-0.6864]","[-0.5452,-0.608,0.2470000000000001]",-78,39,1,0,0,response7disk,-7,3,1,0,0,rectangle,85,-54,1,0,0,2,2,2.899,1,-12,-11,1,0,0,0,2,2,159,1,78,second,response3disk_3,rectangle,,,,,,,,,,,,,,,,,,,,,,,,,,,,,,,,,,,,,,,,,,,,,,,,,,,,,,,,,,,,,,,,,,,,,,
,,,,,,615ac6e5216f047d73a04f63,62c539b29489a96cabb6b53b,2022-07-06_09h29.10.769,Colour_Asymmetry_Pilot,2022.1.3,Win32,60.0348202,62c50e9c1127f2cd403a315f,,,,,,,,,,,,,,,,,,,,onethree,,4,7.8978,,,,,,,,,,,,,,,,,,,,,,,,,,,,,,,,,,"[-0.2942,-0.7648,-0.7492000000000001]","[0.22340000000000004,-0.9296,-0.7884]",86,158,1,0,0,response1disk,28,4,1,0,0,rectangle,28,4,1,0,0,2,3,0.0036,0,28,4,1,0,0,0,3,3,24,1,24,first,,,,,,,,,,,,,,,,,,,,,,,,,,,,,,,,,,,,,,,,,,,,,,,,,,,,,,,,,,,,,,,,,,,,,,,,
,,,,,,615ac6e5216f047d73a04f63,62c539b29489a96cabb6b53b,2022-07-06_09h29.10.769,Colour_Asymmetry_Pilot,2022.1.3,Win32,60.0348202,62c50e9c1127f2cd403a315f,,,,,,,,,,,,,,,,,,,,fourtwo,,-4,1.0327,,,,,,,,,,,,,,,,,,,,,,,,,,,,,,,,,,"[0.34099999999999997,0.5841999999999998,-0.9844]","[-0.4668,-0.8746,-0.2942]",-39,89,1,0,0,response7disk,7,5,1,0,0,rectangle,7,5,1,0,0,2,3,0.0006,0,7,5,1,0,0,0,4,4,33,1,33,first,,,,,,,,,,,,,,,,,,,,,,,,,,,,,,,,,,,,,,,,,,,,,,,,,,,,,,,,,,,,,,,,,,,,,,,,
,,,,,,615ac6e5216f047d73a04f63,62c539b29489a96cabb6b53b,2022-07-06_09h29.10.769,Colour_Asymmetry_Pilot,2022.1.3,Win32,60.0348202,62c50e9c1127f2cd403a315f,,,,,,,,,,,,,,,,,,,,onethree,,-4,0.7498,,,,,,,,,,,,,,,,,,,,,,,,,,,,,,,,,,"[0.6547999999999998,-0.043199999999999905,-0.011800000000000033]","[-0.4746,-0.0354000000000001,0.5449999999999999]",-51,119,1,0,0,response7disk,-11,-17,1,0,0,rectangle,-11,-17,1,0,0,2,1,0.0034,0,-11,-17,1,0,0,0,5,5,46,1,46,first,,,,,,,,,,,,,,,,,,,,,,,,,,,,,,,,,,,,,,,,,,,,,,,,,,,,,,,,,,,,,,,,,,,,,,,,
,,,,,,615ac6e5216f047d73a04f63,62c539b29489a96cabb6b53b,2022-07-06_09h29.10.769,Colour_Asymmetry_Pilot,2022.1.3,Win32,60.0348202,62c50e9c1127f2cd403a315f,,,,,,,,,,,,,,,,,,,,onethree,,3,2.0847,,,,,,,,,,,,,,,,,,,,,,,,,,,,,,,,,,"[0.9686000000000001,0.5763999999999998,0.11359999999999992]","[0.34099999999999997,0.5841999999999998,-0.9844]",93,44,1,0,0,response1disk,-11,12,1,0,0,rectangle,-11,12,1,0,0,2,1,0.0005,0,-11,12,1,0,0,0,6,6,117,1,36,second,,,,,,,,,,,,,,,,,,,,,,,,,,,,,,,,,,,,,,,,,,,,,,,,,,,,,,,,,,,,,,,,,,,,,,,,
,,,,,,615ac6e5216f047d73a04f63,62c539b29489a96cabb6b53b,2022-07-06_09h29.10.769,Colour_Asymmetry_Pilot,2022.1.3,Win32,60.0348202,62c50e9c1127f2cd403a315f,,,,,,,,,,,,,,,,,,,,onetwo,,-4,0.8831,,,,,,,,,,,,,,,,,,,,,,,,,,,,,,,,,,"[-0.9844,-0.9688,-0.9922]","[0.34099999999999997,0.12939999999999996,-0.9766]",-45,93,1,0,0,response7disk,6,-1,1,0,0,rectangle,6,-1,1,0,0,2,1,0.0005,0,6,-1,1,0,0,0,7,7,125,1,44,second,,,,,,,,,,,,,,,,,,,,,,,,,,,,,,,,,,,,,,,,,,,,,,,,,,,,,,,,,,,,,,,,,,,,,,,,
,,,,,,615ac6e5216f047d73a04f63,62c539b29489a96cabb6b53b,2022-07-06_09h29.10.769,Colour_Asymmetry_Pilot,2022.1.3,Win32,60.0348202,62c50e9c1127f2cd403a315f,,,,,,,,,,,,,,,,,,,,twoone,,-4,0.6167,,,,,,,,,,,,,,,,,,,,,,,,,,,,,,,,,,"[0.22340000000000004,-0.9296,-0.7884]","[-0.09019999999999995,0.44300000000000006,0.5371999999999999]",-40,90,1,0,0,response7disk,3,-18,1,0,0,rectangle,3,-18,1,0,0,2,1,0.0009,0,3,-18,1,0,0,0,8,8,138,1,57,second,,,,,,,,,,,,,,,,,,,,,,,,,,,,,,,,,,,,,,,,,,,,,,,,,,,,,,,,,,,,,,,,,,,,,,,,
,,,,,,615ac6e5216f047d73a04f63,62c539b29489a96cabb6b53b,2022-07-06_09h29.10.769,Colour_Asymmetry_Pilot,2022.1.3,Win32,60.0348202,62c50e9c1127f2cd403a315f,,,,,,,,,,,,,,,,,,,,twofour,,-1,2.2328,,,,,,,,,,,,,,,,,,,,,,,,,,,,,,,,,,"[-0.4982,-0.2942,-0.0354000000000001]","[0.2862,0.7802,0.3568]",-71,-108,1,0,0,response5disk,12,-10,1,0,0,rectangle,12,-10,1,0,0,2,1,0.0006,0,12,-10,1,0,0,0,9,9,156,1,75,second,,,,,,,,,,,,,,,,,,,,,,,,,,,,,,,,,,,,,,,,,,,,,,,,,,,,,,,,,,,,,,,,,,,,,,,,
,,,,,,615ac6e5216f047d73a04f63,62c539b29489a96cabb6b53b,2022-07-06_09h29.10.769,Colour_Asymmetry_Pilot,2022.1.3,Win32,60.0348202,62c50e9c1127f2cd403a315f,,,,,,,,,,,,,,,,,,,,twofour,,-3,2.2994,,,,,,,,,,,,,,,,,,,,,,,,,,,,,,,,,,"[0.3568,-0.20799999999999996,-0.9844]","[-0.9296,-0.12959999999999994,-0.043199999999999905]",-64,36,1,0,0,response7disk,-4,12,1,0,0,rectangle,-4,12,1,0,0,2,1,0.0006,0,-4,12,1,0,0,0,10,10,8,1,8,first,,,,,,,,,,,,,,,,,,,,,,,,,,,,,,,,,,,,,,,,,,,,,,,,,,,,,,,,,,,,,,,,,,,,,,,,
,,,,,,615ac6e5216f047d73a04f63,62c539b29489a96cabb6b53b,2022-07-06_09h29.10.769,Colour_Asymmetry_Pilot,2022.1.3,Win32,60.0348202,62c50e9c1127f2cd403a315f,,,,,,,,,,,,,,,,,,,,onethree,,-4,0.5834,,,,,,,,,,,,,,,,,,,,,,,,,,,,,,,,,,"[-0.34920000000000007,-0.702,-0.5216]","[0.3802000000000001,0.19199999999999995,-0.6394]",-31,83,1,0,0,response7disk,-3,2,1,0,0,rectangle,-3,2,1,0,0,2,3,0.0029,0,-3,2,1,0,0,0,11,11,129,1,48,second,,,,,,,,,,,,,,,,,,,,,,,,,,,,,,,,,,,,,,,,,,,,,,,,,,,,,,,,,,,,,,,,,,,,,,,,
,,,,,,615ac6e5216f047d73a04f63,62c539b29489a96cabb6b53b,2022-07-06_09h29.10.769,Colour_Asymmetry_Pilot,2022.1.3,Win32,60.0348202,62c50e9c1127f2cd403a315f,,,,,,,,,,,,,,,,,,,,fourtwo,,3,2.8833,,,,,,,,,,,,,,,,,,,,,,,,,,,,,,,,,,"[0.09799999999999986,-0.24719999999999998,0.15280000000000005]","[-0.24719999999999998,-0.0354000000000001,0.3175999999999999]",121,58,1,0,0,response1disk,-10,-2,1,0,0,rectangle,-10,-2,1,0,0,2,1,0.0033,0,-10,-2,1,0,0,0,12,12,146,1,65,second,,,,,,,,,,,,,,,,,,,,,,,,,,,,,,,,,,,,,,,,,,,,,,,,,,,,,,,,,,,,,,,,,,,,,,,,
,,,,,,615ac6e5216f047d73a04f63,62c539b29489a96cabb6b53b,2022-07-06_09h29.10.769,Colour_Asymmetry_Pilot,2022.1.3,Win32,60.0348202,62c50e9c1127f2cd403a315f,,,,,,,,,,,,,,,,,,,,onetwo,,4,0.8665,,,,,,,,,,,,,,,,,,,,,,,,,,,,,,,,,,"[0.9763999999999999,0.30979999999999985,-0.6786]","[0.3568,-0.20799999999999996,-0.9844]",51,93,1,0,0,response1disk,-4,3,1,0,0,rectangle,-4,3,1,0,0,2,2,0.0026,0,-4,3,1,0,0,0,13,13,26,1,26,first,,,,,,,,,,,,,,,,,,,,,,,,,,,,,,,,,,,,,,,,,,,,,,,,,,,,,,,,,,,,,,,,,,,,,,,,
,,,,,,615ac6e5216f047d73a04f63,62c539b29489a96cabb6b53b,2022-07-06_09h29.10.769,Colour_Asymmetry_Pilot,2022.1.3,Win32,60.0348202,62c50e9c1127f2cd403a315f,,,,,,,,,,,,,,,,,,,,fourtwo,,1,0.733,,,,,,,,,,,,,,,,,,,,,,,,,,,,,,,,,,"[0.9686000000000001,0.3802000000000001,0.19999999999999996]","[0.34099999999999997,0.12939999999999996,-0.9766]",45,-126,1,0,0,response3disk,-14,-10,1,0,0,rectangle,-14,-10,1,0,0,2,2,0.0004,0,-14,-10,1,0,0,0,14,14,92,1,11,second,,,,,,,,,,,,,,,,,,,,,,,,,,,,,,,,,,,,,,,,,,,,,,,,,,,,,,,,,,,,,,,,,,,,,,,,
,,,,,,615ac6e5216f047d73a04f63,62c539b29489a96cabb6b53b,2022-07-06_09h29.10.769,Colour_Asymmetry_Pilot,2022.1.3,Win32,60.0348202,62c50e9c1127f2cd403a315f,,,,,,,,,,,,,,,,,,,,onetwo,,-4,0.4833,,,,,,,,,,,,,,,,,,,,,,,,,,,,,,,,,,"[-0.6235999999999999,-0.6786,-0.08239999999999992]","[0.7176,-0.906,-0.6864]",-58,69,1,0,0,response7disk,-24,-3,1,0,0,rectangle,117,-37,1,0,0,2,2,1.8995,1,-5,10,1,0,0,0,15,15,161,1,80,second,response3disk_3,rectangle,,,,,,,,,,,,,,,,,,,,,,,,,,,,,,,,,,,,,,,,,,,,,,,,,,,,,,,,,,,,,,,,,,,,,,
,,,,,,615ac6e5216f047d73a04f63,62c539b29489a96cabb6b53b,2022-07-06_09h29.10.769,Colour_Asymmetry_Pilot,2022.1.3,Win32,60.0348202,62c50e9c1127f2cd403a315f,,,,,,,,,,,,,,,,,,,,twofour,,-2,1.3001,,,,,,,,,,,,,,,,,,,,,,,,,,,,,,,,,,"[0.2862,0.7802,0.3568]","[-0.4982,-0.2942,-0.0354000000000001]",-81,-33,1,0,0,response5disk,6,10,1,0,0,rectangle,6,10,1,0,0,2,2,0.0008,0,6,10,1,0,0,0,16,16,75,1,75,first,,,,,,,,,,,,,,,,,,,,,,,,,,,,,,,,,,,,,,,,,,,,,,,,,,,,,,,,,,,,,,,,,,,,,,,,
,,,,,,615ac6e5216f047d73a04f63,62c539b29489a96cabb6b53b,2022-07-06_09h29.10.769,Colour_Asymmetry_Pilot,2022.1.3,Win32,60.0348202,62c50e9c1127f2cd403a315f,,,,,,,,,,,,,,,,,,,,twoone,,-4,0.4029,,,,,,,,,,,,,,,,,,,,,,,,,,,,,,,,,,"[-0.17659999999999998,-0.2864,-0.8354]","[-0.9216,-0.5529999999999999,-0.3962]",-49,85,1,0,0,response7disk,-5,4,1,0,0,rectangle,-5,4,1,0,0,2,3,0.0023,0,-5,4,1,0,0,0,17,17,124,1,43,second,,,,,,,,,,,,,,,,,,,,,,,,,,,,,,,,,,,,,,,,,,,,,,,,,,,,,,,,,,,,,,,,,,,,,,,,
