trials.thisRepN,trials.thisTrialN,trials.thisN,trials.thisIndex,trials.ran,Colourcodes,participant,session,date,expName,psychopyVersion,OS,frameRate,study_id,trials_4.thisRepN,trials_4.thisTrialN,trials_4.thisN,trials_4.thisIndex,trials_4.ran,StimulusPos,key_resp.keys,key_resp.rt,key_resp_2.keys,key_resp_2.rt,key_resp_15.keys,key_resp_15.rt,key_resp_17.keys,key_resp_17.rt,key_resp_9.keys,key_resp_9.rt,key_resp_10.keys,key_resp_10.rt,Circle1_col,Ecc,Circle2_col,similarity,response_time,mouse_5.x,mouse_5.y,mouse_5.leftButton,mouse_5.midButton,mouse_5.rightButton,mouse_5.clicked_name,mouse_10.x,mouse_10.y,mouse_10.leftButton,mouse_10.midButton,mouse_10.rightButton,mouse_10.clicked_name,mouse_7.x,mouse_7.y,mouse_7.leftButton,mouse_7.midButton,mouse_7.rightButton,catchnumberprac,mouse_6.x,mouse_6.y,mouse_6.leftButton,mouse_6.midButton,mouse_6.rightButton,duringprac.thisRepN,duringprac.thisTrialN,duringprac.thisN,duringprac.thisIndex,duringprac.ran,mouse_7.clicked_name,catchprac,mouse_6.clicked_name,key_resp_22.keys,key_resp_22.rt,Circle1_colour,Circle2_colour,mouse.x,mouse.y,mouse.leftButton,mouse.midButton,mouse.rightButton,mouse.clicked_name,mouse_2.x,mouse_2.y,mouse_2.leftButton,mouse_2.midButton,mouse_2.rightButton,mouse_2.clicked_name,mouse_3.x,mouse_3.y,mouse_3.leftButton,mouse_3.midButton,mouse_3.rightButton,catchresponse,catchnumber,response_time_catch,Catch,mouse_11.x,mouse_11.y,mouse_11.leftButton,mouse_11.midButton,mouse_11.rightButton,trials_2.thisRepN,trials_2.thisTrialN,trials_2.thisN,trials_2.thisIndex,trials_2.ran,Colourpair,Temporder,mouse_3.clicked_name,mouse_11.clicked_name,trials_3.thisRepN,trials_3.thisTrialN,trials_3.thisN,trials_3.thisIndex,trials_3.ran,key_resp_instr_Ishi.keys,key_resp_instr_Ishi.rt,Ishi_trial_keyresp.keys,Ishi_textbox.text,Ishi_mouse.x,Ishi_mouse.y,Ishi_mouse.leftButton,Ishi_mouse.midButton,Ishi_mouse.rightButton,Ishi_mouse.clicked_name,Ishi_loop.thisRepN,Ishi_loop.thisTrialN,Ishi_loop.thisN,Ishi_loop.thisIndex,Ishi_loop.ran,imageaddress,textbox.text,mouse_4.x,mouse_4.y,mouse_4.leftButton,mouse_4.midButton,mouse_4.rightButton,mouse_4.clicked_name,textbox_2.text,mouse_8.x,mouse_8.y,mouse_8.leftButton,mouse_8.midButton,mouse_8.rightButton,mouse_8.clicked_name,textbox_3.text,mouse_9.x,mouse_9.y,mouse_9.leftButton,mouse_9.midButton,mouse_9.rightButton,mouse_9.clicked_name,textbox_4.text,mouse_12.x,mouse_12.y,mouse_12.leftButton,mouse_12.midButton,mouse_12.rightButton,mouse_12.clicked_name,textbox_5.text,mouse_13.x,mouse_13.y,mouse_13.leftButton,mouse_13.midButton,mouse_13.rightButton,mouse_13.clicked_name,textbox_6.text,mouse_14.x,mouse_14.y,mouse_14.leftButton,mouse_14.midButton,mouse_14.rightButton,mouse_14.clicked_name,textbox_7.text,mouse_15.x,mouse_15.y,mouse_15.leftButton,mouse_15.midButton,mouse_15.rightButton,mouse_15.clicked_name
0,0,0,66,1,,62a45f8a7916c399ac131a3b,62c539fc303bf8e23fd01cc2,2022-07-06_08h30.29.625,Colour_Asymmetry_Pilot,2022.1.3,Linux x86_64,60.0240096,62c50e9c1127f2cd403a315f,,,,,,,,,,,,,,,,,,,,,,,,,,,,,,,,,,,,,,,,,,,,,,,,,,,,,,,,,,,,,,,,,,,,,,,,,,,,,,,,,,,,,,,,,,,,,,,,,,,,,,,,,,,,,,,,,,,,,,,,,,,,,,,,,,,,,,,,,,,,,,,,,,,,,,,,,,,,,,,,,,,
0,1,1,55,1,,62a45f8a7916c399ac131a3b,62c539fc303bf8e23fd01cc2,2022-07-06_08h30.29.625,Colour_Asymmetry_Pilot,2022.1.3,Linux x86_64,60.0240096,62c50e9c1127f2cd403a315f,,,,,,,,,,,,,,,,,,,,,,,,,,,,,,,,,,,,,,,,,,,,,,,,,,,,,,,,,,,,,,,,,,,,,,,,,,,,,,,,,,,,,,,,,,,,,,,,,,,,,,,,,,,,,,,,,,,,,,,,,,,,,,,,,,,,,,,,,,,,,,,,,,,,,,,,,,,,,,,,,,,
0,2,2,86,1,,62a45f8a7916c399ac131a3b,62c539fc303bf8e23fd01cc2,2022-07-06_08h30.29.625,Colour_Asymmetry_Pilot,2022.1.3,Linux x86_64,60.0240096,62c50e9c1127f2cd403a315f,,,,,,,,,,,,,,,,,,,,,,,,,,,,,,,,,,,,,,,,,,,,,,,,,,,,,,,,,,,,,,,,,,,,,,,,,,,,,,,,,,,,,,,,,,,,,,,,,,,,,,,,,,,,,,,,,,,,,,,,,,,,,,,,,,,,,,,,,,,,,,,,,,,,,,,,,,,,,,,,,,,
0,3,3,12,1,,62a45f8a7916c399ac131a3b,62c539fc303bf8e23fd01cc2,2022-07-06_08h30.29.625,Colour_Asymmetry_Pilot,2022.1.3,Linux x86_64,60.0240096,62c50e9c1127f2cd403a315f,,,,,,,,,,,,,,,,,,,,,,,,,,,,,,,,,,,,,,,,,,,,,,,,,,,,,,,,,,,,,,,,,,,,,,,,,,,,,,,,,,,,,,,,,,,,,,,,,,,,,,,,,,,,,,,,,,,,,,,,,,,,,,,,,,,,,,,,,,,,,,,,,,,,,,,,,,,,,,,,,,,
0,4,4,58,1,,62a45f8a7916c399ac131a3b,62c539fc303bf8e23fd01cc2,2022-07-06_08h30.29.625,Colour_Asymmetry_Pilot,2022.1.3,Linux x86_64,60.0240096,62c50e9c1127f2cd403a315f,,,,,,,,,,,,,,,,,,,,,,,,,,,,,,,,,,,,,,,,,,,,,,,,,,,,,,,,,,,,,,,,,,,,,,,,,,,,,,,,,,,,,,,,,,,,,,,,,,,,,,,,,,,,,,,,,,,,,,,,,,,,,,,,,,,,,,,,,,,,,,,,,,,,,,,,,,,,,,,,,,,
0,5,5,57,1,,62a45f8a7916c399ac131a3b,62c539fc303bf8e23fd01cc2,2022-07-06_08h30.29.625,Colour_Asymmetry_Pilot,2022.1.3,Linux x86_64,60.0240096,62c50e9c1127f2cd403a315f,,,,,,,,,,,,,,,,,,,,,,,,,,,,,,,,,,,,,,,,,,,,,,,,,,,,,,,,,,,,,,,,,,,,,,,,,,,,,,,,,,,,,,,,,,,,,,,,,,,,,,,,,,,,,,,,,,,,,,,,,,,,,,,,,,,,,,,,,,,,,,,,,,,,,,,,,,,,,,,,,,,
0,6,6,11,1,,62a45f8a7916c399ac131a3b,62c539fc303bf8e23fd01cc2,2022-07-06_08h30.29.625,Colour_Asymmetry_Pilot,2022.1.3,Linux x86_64,60.0240096,62c50e9c1127f2cd403a315f,,,,,,,,,,,,,,,,,,,,,,,,,,,,,,,,,,,,,,,,,,,,,,,,,,,,,,,,,,,,,,,,,,,,,,,,,,,,,,,,,,,,,,,,,,,,,,,,,,,,,,,,,,,,,,,,,,,,,,,,,,,,,,,,,,,,,,,,,,,,,,,,,,,,,,,,,,,,,,,,,,,
0,7,7,80,1,,62a45f8a7916c399ac131a3b,62c539fc303bf8e23fd01cc2,2022-07-06_08h30.29.625,Colour_Asymmetry_Pilot,2022.1.3,Linux x86_64,60.0240096,62c50e9c1127f2cd403a315f,,,,,,,,,,,,,,,,,,,,,,,,,,,,,,,,,,,,,,,,,,,,,,,,,,,,,,,,,,,,,,,,,,,,,,,,,,,,,,,,,,,,,,,,,,,,,,,,,,,,,,,,,,,,,,,,,,,,,,,,,,,,,,,,,,,,,,,,,,,,,,,,,,,,,,,,,,,,,,,,,,,
0,8,8,88,1,,62a45f8a7916c399ac131a3b,62c539fc303bf8e23fd01cc2,2022-07-06_08h30.29.625,Colour_Asymmetry_Pilot,2022.1.3,Linux x86_64,60.0240096,62c50e9c1127f2cd403a315f,,,,,,,,,,,,,,,,,,,,,,,,,,,,,,,,,,,,,,,,,,,,,,,,,,,,,,,,,,,,,,,,,,,,,,,,,,,,,,,,,,,,,,,,,,,,,,,,,,,,,,,,,,,,,,,,,,,,,,,,,,,,,,,,,,,,,,,,,,,,,,,,,,,,,,,,,,,,,,,,,,,
0,9,9,50,1,,62a45f8a7916c399ac131a3b,62c539fc303bf8e23fd01cc2,2022-07-06_08h30.29.625,Colour_Asymmetry_Pilot,2022.1.3,Linux x86_64,60.0240096,62c50e9c1127f2cd403a315f,,,,,,,,,,,,,,,,,,,,,,,,,,,,,,,,,,,,,,,,,,,,,,,,,,,,,,,,,,,,,,,,,,,,,,,,,,,,,,,,,,,,,,,,,,,,,,,,,,,,,,,,,,,,,,,,,,,,,,,,,,,,,,,,,,,,,,,,,,,,,,,,,,,,,,,,,,,,,,,,,,,
0,10,10,70,1,,62a45f8a7916c399ac131a3b,62c539fc303bf8e23fd01cc2,2022-07-06_08h30.29.625,Colour_Asymmetry_Pilot,2022.1.3,Linux x86_64,60.0240096,62c50e9c1127f2cd403a315f,,,,,,,,,,,,,,,,,,,,,,,,,,,,,,,,,,,,,,,,,,,,,,,,,,,,,,,,,,,,,,,,,,,,,,,,,,,,,,,,,,,,,,,,,,,,,,,,,,,,,,,,,,,,,,,,,,,,,,,,,,,,,,,,,,,,,,,,,,,,,,,,,,,,,,,,,,,,,,,,,,,
0,11,11,26,1,,62a45f8a7916c399ac131a3b,62c539fc303bf8e23fd01cc2,2022-07-06_08h30.29.625,Colour_Asymmetry_Pilot,2022.1.3,Linux x86_64,60.0240096,62c50e9c1127f2cd403a315f,,,,,,,,,,,,,,,,,,,,,,,,,,,,,,,,,,,,,,,,,,,,,,,,,,,,,,,,,,,,,,,,,,,,,,,,,,,,,,,,,,,,,,,,,,,,,,,,,,,,,,,,,,,,,,,,,,,,,,,,,,,,,,,,,,,,,,,,,,,,,,,,,,,,,,,,,,,,,,,,,,,
0,12,12,77,1,,62a45f8a7916c399ac131a3b,62c539fc303bf8e23fd01cc2,2022-07-06_08h30.29.625,Colour_Asymmetry_Pilot,2022.1.3,Linux x86_64,60.0240096,62c50e9c1127f2cd403a315f,,,,,,,,,,,,,,,,,,,,,,,,,,,,,,,,,,,,,,,,,,,,,,,,,,,,,,,,,,,,,,,,,,,,,,,,,,,,,,,,,,,,,,,,,,,,,,,,,,,,,,,,,,,,,,,,,,,,,,,,,,,,,,,,,,,,,,,,,,,,,,,,,,,,,,,,,,,,,,,,,,,
0,13,13,6,1,,62a45f8a7916c399ac131a3b,62c539fc303bf8e23fd01cc2,2022-07-06_08h30.29.625,Colour_Asymmetry_Pilot,2022.1.3,Linux x86_64,60.0240096,62c50e9c1127f2cd403a315f,,,,,,,,,,,,,,,,,,,,,,,,,,,,,,,,,,,,,,,,,,,,,,,,,,,,,,,,,,,,,,,,,,,,,,,,,,,,,,,,,,,,,,,,,,,,,,,,,,,,,,,,,,,,,,,,,,,,,,,,,,,,,,,,,,,,,,,,,,,,,,,,,,,,,,,,,,,,,,,,,,,
0,14,14,52,1,,62a45f8a7916c399ac131a3b,62c539fc303bf8e23fd01cc2,2022-07-06_08h30.29.625,Colour_Asymmetry_Pilot,2022.1.3,Linux x86_64,60.0240096,62c50e9c1127f2cd403a315f,,,,,,,,,,,,,,,,,,,,,,,,,,,,,,,,,,,,,,,,,,,,,,,,,,,,,,,,,,,,,,,,,,,,,,,,,,,,,,,,,,,,,,,,,,,,,,,,,,,,,,,,,,,,,,,,,,,,,,,,,,,,,,,,,,,,,,,,,,,,,,,,,,,,,,,,,,,,,,,,,,,
0,15,15,18,1,,62a45f8a7916c399ac131a3b,62c539fc303bf8e23fd01cc2,2022-07-06_08h30.29.625,Colour_Asymmetry_Pilot,2022.1.3,Linux x86_64,60.0240096,62c50e9c1127f2cd403a315f,,,,,,,,,,,,,,,,,,,,,,,,,,,,,,,,,,,,,,,,,,,,,,,,,,,,,,,,,,,,,,,,,,,,,,,,,,,,,,,,,,,,,,,,,,,,,,,,,,,,,,,,,,,,,,,,,,,,,,,,,,,,,,,,,,,,,,,,,,,,,,,,,,,,,,,,,,,,,,,,,,,
0,16,16,45,1,,62a45f8a7916c399ac131a3b,62c539fc303bf8e23fd01cc2,2022-07-06_08h30.29.625,Colour_Asymmetry_Pilot,2022.1.3,Linux x86_64,60.0240096,62c50e9c1127f2cd403a315f,,,,,,,,,,,,,,,,,,,,,,,,,,,,,,,,,,,,,,,,,,,,,,,,,,,,,,,,,,,,,,,,,,,,,,,,,,,,,,,,,,,,,,,,,,,,,,,,,,,,,,,,,,,,,,,,,,,,,,,,,,,,,,,,,,,,,,,,,,,,,,,,,,,,,,,,,,,,,,,,,,,
0,17,17,5,1,,62a45f8a7916c399ac131a3b,62c539fc303bf8e23fd01cc2,2022-07-06_08h30.29.625,Colour_Asymmetry_Pilot,2022.1.3,Linux x86_64,60.0240096,62c50e9c1127f2cd403a315f,,,,,,,,,,,,,,,,,,,,,,,,,,,,,,,,,,,,,,,,,,,,,,,,,,,,,,,,,,,,,,,,,,,,,,,,,,,,,,,,,,,,,,,,,,,,,,,,,,,,,,,,,,,,,,,,,,,,,,,,,,,,,,,,,,,,,,,,,,,,,,,,,,,,,,,,,,,,,,,,,,,
0,18,18,19,1,,62a45f8a7916c399ac131a3b,62c539fc303bf8e23fd01cc2,2022-07-06_08h30.29.625,Colour_Asymmetry_Pilot,2022.1.3,Linux x86_64,60.0240096,62c50e9c1127f2cd403a315f,,,,,,,,,,,,,,,,,,,,,,,,,,,,,,,,,,,,,,,,,,,,,,,,,,,,,,,,,,,,,,,,,,,,,,,,,,,,,,,,,,,,,,,,,,,,,,,,,,,,,,,,,,,,,,,,,,,,,,,,,,,,,,,,,,,,,,,,,,,,,,,,,,,,,,,,,,,,,,,,,,,
0,19,19,7,1,,62a45f8a7916c399ac131a3b,62c539fc303bf8e23fd01cc2,2022-07-06_08h30.29.625,Colour_Asymmetry_Pilot,2022.1.3,Linux x86_64,60.0240096,62c50e9c1127f2cd403a315f,,,,,,,,,,,,,,,,,,,,,,,,,,,,,,,,,,,,,,,,,,,,,,,,,,,,,,,,,,,,,,,,,,,,,,,,,,,,,,,,,,,,,,,,,,,,,,,,,,,,,,,,,,,,,,,,,,,,,,,,,,,,,,,,,,,,,,,,,,,,,,,,,,,,,,,,,,,,,,,,,,,
0,20,20,2,1,,62a45f8a7916c399ac131a3b,62c539fc303bf8e23fd01cc2,2022-07-06_08h30.29.625,Colour_Asymmetry_Pilot,2022.1.3,Linux x86_64,60.0240096,62c50e9c1127f2cd403a315f,,,,,,,,,,,,,,,,,,,,,,,,,,,,,,,,,,,,,,,,,,,,,,,,,,,,,,,,,,,,,,,,,,,,,,,,,,,,,,,,,,,,,,,,,,,,,,,,,,,,,,,,,,,,,,,,,,,,,,,,,,,,,,,,,,,,,,,,,,,,,,,,,,,,,,,,,,,,,,,,,,,
0,21,21,68,1,,62a45f8a7916c399ac131a3b,62c539fc303bf8e23fd01cc2,2022-07-06_08h30.29.625,Colour_Asymmetry_Pilot,2022.1.3,Linux x86_64,60.0240096,62c50e9c1127f2cd403a315f,,,,,,,,,,,,,,,,,,,,,,,,,,,,,,,,,,,,,,,,,,,,,,,,,,,,,,,,,,,,,,,,,,,,,,,,,,,,,,,,,,,,,,,,,,,,,,,,,,,,,,,,,,,,,,,,,,,,,,,,,,,,,,,,,,,,,,,,,,,,,,,,,,,,,,,,,,,,,,,,,,,
0,22,22,35,1,,62a45f8a7916c399ac131a3b,62c539fc303bf8e23fd01cc2,2022-07-06_08h30.29.625,Colour_Asymmetry_Pilot,2022.1.3,Linux x86_64,60.0240096,62c50e9c1127f2cd403a315f,,,,,,,,,,,,,,,,,,,,,,,,,,,,,,,,,,,,,,,,,,,,,,,,,,,,,,,,,,,,,,,,,,,,,,,,,,,,,,,,,,,,,,,,,,,,,,,,,,,,,,,,,,,,,,,,,,,,,,,,,,,,,,,,,,,,,,,,,,,,,,,,,,,,,,,,,,,,,,,,,,,
0,23,23,17,1,,62a45f8a7916c399ac131a3b,62c539fc303bf8e23fd01cc2,2022-07-06_08h30.29.625,Colour_Asymmetry_Pilot,2022.1.3,Linux x86_64,60.0240096,62c50e9c1127f2cd403a315f,,,,,,,,,,,,,,,,,,,,,,,,,,,,,,,,,,,,,,,,,,,,,,,,,,,,,,,,,,,,,,,,,,,,,,,,,,,,,,,,,,,,,,,,,,,,,,,,,,,,,,,,,,,,,,,,,,,,,,,,,,,,,,,,,,,,,,,,,,,,,,,,,,,,,,,,,,,,,,,,,,,
0,24,24,92,1,,62a45f8a7916c399ac131a3b,62c539fc303bf8e23fd01cc2,2022-07-06_08h30.29.625,Colour_Asymmetry_Pilot,2022.1.3,Linux x86_64,60.0240096,62c50e9c1127f2cd403a315f,,,,,,,,,,,,,,,,,,,,,,,,,,,,,,,,,,,,,,,,,,,,,,,,,,,,,,,,,,,,,,,,,,,,,,,,,,,,,,,,,,,,,,,,,,,,,,,,,,,,,,,,,,,,,,,,,,,,,,,,,,,,,,,,,,,,,,,,,,,,,,,,,,,,,,,,,,,,,,,,,,,
0,25,25,82,1,,62a45f8a7916c399ac131a3b,62c539fc303bf8e23fd01cc2,2022-07-06_08h30.29.625,Colour_Asymmetry_Pilot,2022.1.3,Linux x86_64,60.0240096,62c50e9c1127f2cd403a315f,,,,,,,,,,,,,,,,,,,,,,,,,,,,,,,,,,,,,,,,,,,,,,,,,,,,,,,,,,,,,,,,,,,,,,,,,,,,,,,,,,,,,,,,,,,,,,,,,,,,,,,,,,,,,,,,,,,,,,,,,,,,,,,,,,,,,,,,,,,,,,,,,,,,,,,,,,,,,,,,,,,
0,26,26,24,1,,62a45f8a7916c399ac131a3b,62c539fc303bf8e23fd01cc2,2022-07-06_08h30.29.625,Colour_Asymmetry_Pilot,2022.1.3,Linux x86_64,60.0240096,62c50e9c1127f2cd403a315f,,,,,,,,,,,,,,,,,,,,,,,,,,,,,,,,,,,,,,,,,,,,,,,,,,,,,,,,,,,,,,,,,,,,,,,,,,,,,,,,,,,,,,,,,,,,,,,,,,,,,,,,,,,,,,,,,,,,,,,,,,,,,,,,,,,,,,,,,,,,,,,,,,,,,,,,,,,,,,,,,,,
0,27,27,60,1,,62a45f8a7916c399ac131a3b,62c539fc303bf8e23fd01cc2,2022-07-06_08h30.29.625,Colour_Asymmetry_Pilot,2022.1.3,Linux x86_64,60.0240096,62c50e9c1127f2cd403a315f,,,,,,,,,,,,,,,,,,,,,,,,,,,,,,,,,,,,,,,,,,,,,,,,,,,,,,,,,,,,,,,,,,,,,,,,,,,,,,,,,,,,,,,,,,,,,,,,,,,,,,,,,,,,,,,,,,,,,,,,,,,,,,,,,,,,,,,,,,,,,,,,,,,,,,,,,,,,,,,,,,,
0,28,28,31,1,,62a45f8a7916c399ac131a3b,62c539fc303bf8e23fd01cc2,2022-07-06_08h30.29.625,Colour_Asymmetry_Pilot,2022.1.3,Linux x86_64,60.0240096,62c50e9c1127f2cd403a315f,,,,,,,,,,,,,,,,,,,,,,,,,,,,,,,,,,,,,,,,,,,,,,,,,,,,,,,,,,,,,,,,,,,,,,,,,,,,,,,,,,,,,,,,,,,,,,,,,,,,,,,,,,,,,,,,,,,,,,,,,,,,,,,,,,,,,,,,,,,,,,,,,,,,,,,,,,,,,,,,,,,
0,29,29,39,1,,62a45f8a7916c399ac131a3b,62c539fc303bf8e23fd01cc2,2022-07-06_08h30.29.625,Colour_Asymmetry_Pilot,2022.1.3,Linux x86_64,60.0240096,62c50e9c1127f2cd403a315f,,,,,,,,,,,,,,,,,,,,,,,,,,,,,,,,,,,,,,,,,,,,,,,,,,,,,,,,,,,,,,,,,,,,,,,,,,,,,,,,,,,,,,,,,,,,,,,,,,,,,,,,,,,,,,,,,,,,,,,,,,,,,,,,,,,,,,,,,,,,,,,,,,,,,,,,,,,,,,,,,,,
0,30,30,84,1,,62a45f8a7916c399ac131a3b,62c539fc303bf8e23fd01cc2,2022-07-06_08h30.29.625,Colour_Asymmetry_Pilot,2022.1.3,Linux x86_64,60.0240096,62c50e9c1127f2cd403a315f,,,,,,,,,,,,,,,,,,,,,,,,,,,,,,,,,,,,,,,,,,,,,,,,,,,,,,,,,,,,,,,,,,,,,,,,,,,,,,,,,,,,,,,,,,,,,,,,,,,,,,,,,,,,,,,,,,,,,,,,,,,,,,,,,,,,,,,,,,,,,,,,,,,,,,,,,,,,,,,,,,,
0,31,31,28,1,,62a45f8a7916c399ac131a3b,62c539fc303bf8e23fd01cc2,2022-07-06_08h30.29.625,Colour_Asymmetry_Pilot,2022.1.3,Linux x86_64,60.0240096,62c50e9c1127f2cd403a315f,,,,,,,,,,,,,,,,,,,,,,,,,,,,,,,,,,,,,,,,,,,,,,,,,,,,,,,,,,,,,,,,,,,,,,,,,,,,,,,,,,,,,,,,,,,,,,,,,,,,,,,,,,,,,,,,,,,,,,,,,,,,,,,,,,,,,,,,,,,,,,,,,,,,,,,,,,,,,,,,,,,
0,32,32,67,1,,62a45f8a7916c399ac131a3b,62c539fc303bf8e23fd01cc2,2022-07-06_08h30.29.625,Colour_Asymmetry_Pilot,2022.1.3,Linux x86_64,60.0240096,62c50e9c1127f2cd403a315f,,,,,,,,,,,,,,,,,,,,,,,,,,,,,,,,,,,,,,,,,,,,,,,,,,,,,,,,,,,,,,,,,,,,,,,,,,,,,,,,,,,,,,,,,,,,,,,,,,,,,,,,,,,,,,,,,,,,,,,,,,,,,,,,,,,,,,,,,,,,,,,,,,,,,,,,,,,,,,,,,,,
0,33,33,69,1,,62a45f8a7916c399ac131a3b,62c539fc303bf8e23fd01cc2,2022-07-06_08h30.29.625,Colour_Asymmetry_Pilot,2022.1.3,Linux x86_64,60.0240096,62c50e9c1127f2cd403a315f,,,,,,,,,,,,,,,,,,,,,,,,,,,,,,,,,,,,,,,,,,,,,,,,,,,,,,,,,,,,,,,,,,,,,,,,,,,,,,,,,,,,,,,,,,,,,,,,,,,,,,,,,,,,,,,,,,,,,,,,,,,,,,,,,,,,,,,,,,,,,,,,,,,,,,,,,,,,,,,,,,,
0,34,34,16,1,,62a45f8a7916c399ac131a3b,62c539fc303bf8e23fd01cc2,2022-07-06_08h30.29.625,Colour_Asymmetry_Pilot,2022.1.3,Linux x86_64,60.0240096,62c50e9c1127f2cd403a315f,,,,,,,,,,,,,,,,,,,,,,,,,,,,,,,,,,,,,,,,,,,,,,,,,,,,,,,,,,,,,,,,,,,,,,,,,,,,,,,,,,,,,,,,,,,,,,,,,,,,,,,,,,,,,,,,,,,,,,,,,,,,,,,,,,,,,,,,,,,,,,,,,,,,,,,,,,,,,,,,,,,
0,35,35,30,1,,62a45f8a7916c399ac131a3b,62c539fc303bf8e23fd01cc2,2022-07-06_08h30.29.625,Colour_Asymmetry_Pilot,2022.1.3,Linux x86_64,60.0240096,62c50e9c1127f2cd403a315f,,,,,,,,,,,,,,,,,,,,,,,,,,,,,,,,,,,,,,,,,,,,,,,,,,,,,,,,,,,,,,,,,,,,,,,,,,,,,,,,,,,,,,,,,,,,,,,,,,,,,,,,,,,,,,,,,,,,,,,,,,,,,,,,,,,,,,,,,,,,,,,,,,,,,,,,,,,,,,,,,,,
0,36,36,23,1,,62a45f8a7916c399ac131a3b,62c539fc303bf8e23fd01cc2,2022-07-06_08h30.29.625,Colour_Asymmetry_Pilot,2022.1.3,Linux x86_64,60.0240096,62c50e9c1127f2cd403a315f,,,,,,,,,,,,,,,,,,,,,,,,,,,,,,,,,,,,,,,,,,,,,,,,,,,,,,,,,,,,,,,,,,,,,,,,,,,,,,,,,,,,,,,,,,,,,,,,,,,,,,,,,,,,,,,,,,,,,,,,,,,,,,,,,,,,,,,,,,,,,,,,,,,,,,,,,,,,,,,,,,,
0,37,37,46,1,,62a45f8a7916c399ac131a3b,62c539fc303bf8e23fd01cc2,2022-07-06_08h30.29.625,Colour_Asymmetry_Pilot,2022.1.3,Linux x86_64,60.0240096,62c50e9c1127f2cd403a315f,,,,,,,,,,,,,,,,,,,,,,,,,,,,,,,,,,,,,,,,,,,,,,,,,,,,,,,,,,,,,,,,,,,,,,,,,,,,,,,,,,,,,,,,,,,,,,,,,,,,,,,,,,,,,,,,,,,,,,,,,,,,,,,,,,,,,,,,,,,,,,,,,,,,,,,,,,,,,,,,,,,
0,38,38,43,1,,62a45f8a7916c399ac131a3b,62c539fc303bf8e23fd01cc2,2022-07-06_08h30.29.625,Colour_Asymmetry_Pilot,2022.1.3,Linux x86_64,60.0240096,62c50e9c1127f2cd403a315f,,,,,,,,,,,,,,,,,,,,,,,,,,,,,,,,,,,,,,,,,,,,,,,,,,,,,,,,,,,,,,,,,,,,,,,,,,,,,,,,,,,,,,,,,,,,,,,,,,,,,,,,,,,,,,,,,,,,,,,,,,,,,,,,,,,,,,,,,,,,,,,,,,,,,,,,,,,,,,,,,,,
0,39,39,74,1,,62a45f8a7916c399ac131a3b,62c539fc303bf8e23fd01cc2,2022-07-06_08h30.29.625,Colour_Asymmetry_Pilot,2022.1.3,Linux x86_64,60.0240096,62c50e9c1127f2cd403a315f,,,,,,,,,,,,,,,,,,,,,,,,,,,,,,,,,,,,,,,,,,,,,,,,,,,,,,,,,,,,,,,,,,,,,,,,,,,,,,,,,,,,,,,,,,,,,,,,,,,,,,,,,,,,,,,,,,,,,,,,,,,,,,,,,,,,,,,,,,,,,,,,,,,,,,,,,,,,,,,,,,,
0,40,40,47,1,,62a45f8a7916c399ac131a3b,62c539fc303bf8e23fd01cc2,2022-07-06_08h30.29.625,Colour_Asymmetry_Pilot,2022.1.3,Linux x86_64,60.0240096,62c50e9c1127f2cd403a315f,,,,,,,,,,,,,,,,,,,,,,,,,,,,,,,,,,,,,,,,,,,,,,,,,,,,,,,,,,,,,,,,,,,,,,,,,,,,,,,,,,,,,,,,,,,,,,,,,,,,,,,,,,,,,,,,,,,,,,,,,,,,,,,,,,,,,,,,,,,,,,,,,,,,,,,,,,,,,,,,,,,
0,41,41,63,1,,62a45f8a7916c399ac131a3b,62c539fc303bf8e23fd01cc2,2022-07-06_08h30.29.625,Colour_Asymmetry_Pilot,2022.1.3,Linux x86_64,60.0240096,62c50e9c1127f2cd403a315f,,,,,,,,,,,,,,,,,,,,,,,,,,,,,,,,,,,,,,,,,,,,,,,,,,,,,,,,,,,,,,,,,,,,,,,,,,,,,,,,,,,,,,,,,,,,,,,,,,,,,,,,,,,,,,,,,,,,,,,,,,,,,,,,,,,,,,,,,,,,,,,,,,,,,,,,,,,,,,,,,,,
0,42,42,78,1,,62a45f8a7916c399ac131a3b,62c539fc303bf8e23fd01cc2,2022-07-06_08h30.29.625,Colour_Asymmetry_Pilot,2022.1.3,Linux x86_64,60.0240096,62c50e9c1127f2cd403a315f,,,,,,,,,,,,,,,,,,,,,,,,,,,,,,,,,,,,,,,,,,,,,,,,,,,,,,,,,,,,,,,,,,,,,,,,,,,,,,,,,,,,,,,,,,,,,,,,,,,,,,,,,,,,,,,,,,,,,,,,,,,,,,,,,,,,,,,,,,,,,,,,,,,,,,,,,,,,,,,,,,,
0,43,43,71,1,,62a45f8a7916c399ac131a3b,62c539fc303bf8e23fd01cc2,2022-07-06_08h30.29.625,Colour_Asymmetry_Pilot,2022.1.3,Linux x86_64,60.0240096,62c50e9c1127f2cd403a315f,,,,,,,,,,,,,,,,,,,,,,,,,,,,,,,,,,,,,,,,,,,,,,,,,,,,,,,,,,,,,,,,,,,,,,,,,,,,,,,,,,,,,,,,,,,,,,,,,,,,,,,,,,,,,,,,,,,,,,,,,,,,,,,,,,,,,,,,,,,,,,,,,,,,,,,,,,,,,,,,,,,
0,44,44,72,1,,62a45f8a7916c399ac131a3b,62c539fc303bf8e23fd01cc2,2022-07-06_08h30.29.625,Colour_Asymmetry_Pilot,2022.1.3,Linux x86_64,60.0240096,62c50e9c1127f2cd403a315f,,,,,,,,,,,,,,,,,,,,,,,,,,,,,,,,,,,,,,,,,,,,,,,,,,,,,,,,,,,,,,,,,,,,,,,,,,,,,,,,,,,,,,,,,,,,,,,,,,,,,,,,,,,,,,,,,,,,,,,,,,,,,,,,,,,,,,,,,,,,,,,,,,,,,,,,,,,,,,,,,,,
0,45,45,61,1,,62a45f8a7916c399ac131a3b,62c539fc303bf8e23fd01cc2,2022-07-06_08h30.29.625,Colour_Asymmetry_Pilot,2022.1.3,Linux x86_64,60.0240096,62c50e9c1127f2cd403a315f,,,,,,,,,,,,,,,,,,,,,,,,,,,,,,,,,,,,,,,,,,,,,,,,,,,,,,,,,,,,,,,,,,,,,,,,,,,,,,,,,,,,,,,,,,,,,,,,,,,,,,,,,,,,,,,,,,,,,,,,,,,,,,,,,,,,,,,,,,,,,,,,,,,,,,,,,,,,,,,,,,,
0,46,46,85,1,,62a45f8a7916c399ac131a3b,62c539fc303bf8e23fd01cc2,2022-07-06_08h30.29.625,Colour_Asymmetry_Pilot,2022.1.3,Linux x86_64,60.0240096,62c50e9c1127f2cd403a315f,,,,,,,,,,,,,,,,,,,,,,,,,,,,,,,,,,,,,,,,,,,,,,,,,,,,,,,,,,,,,,,,,,,,,,,,,,,,,,,,,,,,,,,,,,,,,,,,,,,,,,,,,,,,,,,,,,,,,,,,,,,,,,,,,,,,,,,,,,,,,,,,,,,,,,,,,,,,,,,,,,,
0,47,47,21,1,,62a45f8a7916c399ac131a3b,62c539fc303bf8e23fd01cc2,2022-07-06_08h30.29.625,Colour_Asymmetry_Pilot,2022.1.3,Linux x86_64,60.0240096,62c50e9c1127f2cd403a315f,,,,,,,,,,,,,,,,,,,,,,,,,,,,,,,,,,,,,,,,,,,,,,,,,,,,,,,,,,,,,,,,,,,,,,,,,,,,,,,,,,,,,,,,,,,,,,,,,,,,,,,,,,,,,,,,,,,,,,,,,,,,,,,,,,,,,,,,,,,,,,,,,,,,,,,,,,,,,,,,,,,
0,48,48,15,1,,62a45f8a7916c399ac131a3b,62c539fc303bf8e23fd01cc2,2022-07-06_08h30.29.625,Colour_Asymmetry_Pilot,2022.1.3,Linux x86_64,60.0240096,62c50e9c1127f2cd403a315f,,,,,,,,,,,,,,,,,,,,,,,,,,,,,,,,,,,,,,,,,,,,,,,,,,,,,,,,,,,,,,,,,,,,,,,,,,,,,,,,,,,,,,,,,,,,,,,,,,,,,,,,,,,,,,,,,,,,,,,,,,,,,,,,,,,,,,,,,,,,,,,,,,,,,,,,,,,,,,,,,,,
0,49,49,29,1,,62a45f8a7916c399ac131a3b,62c539fc303bf8e23fd01cc2,2022-07-06_08h30.29.625,Colour_Asymmetry_Pilot,2022.1.3,Linux x86_64,60.0240096,62c50e9c1127f2cd403a315f,,,,,,,,,,,,,,,,,,,,,,,,,,,,,,,,,,,,,,,,,,,,,,,,,,,,,,,,,,,,,,,,,,,,,,,,,,,,,,,,,,,,,,,,,,,,,,,,,,,,,,,,,,,,,,,,,,,,,,,,,,,,,,,,,,,,,,,,,,,,,,,,,,,,,,,,,,,,,,,,,,,
0,50,50,8,1,,62a45f8a7916c399ac131a3b,62c539fc303bf8e23fd01cc2,2022-07-06_08h30.29.625,Colour_Asymmetry_Pilot,2022.1.3,Linux x86_64,60.0240096,62c50e9c1127f2cd403a315f,,,,,,,,,,,,,,,,,,,,,,,,,,,,,,,,,,,,,,,,,,,,,,,,,,,,,,,,,,,,,,,,,,,,,,,,,,,,,,,,,,,,,,,,,,,,,,,,,,,,,,,,,,,,,,,,,,,,,,,,,,,,,,,,,,,,,,,,,,,,,,,,,,,,,,,,,,,,,,,,,,,
0,51,51,0,1,,62a45f8a7916c399ac131a3b,62c539fc303bf8e23fd01cc2,2022-07-06_08h30.29.625,Colour_Asymmetry_Pilot,2022.1.3,Linux x86_64,60.0240096,62c50e9c1127f2cd403a315f,,,,,,,,,,,,,,,,,,,,,,,,,,,,,,,,,,,,,,,,,,,,,,,,,,,,,,,,,,,,,,,,,,,,,,,,,,,,,,,,,,,,,,,,,,,,,,,,,,,,,,,,,,,,,,,,,,,,,,,,,,,,,,,,,,,,,,,,,,,,,,,,,,,,,,,,,,,,,,,,,,,
0,52,52,27,1,,62a45f8a7916c399ac131a3b,62c539fc303bf8e23fd01cc2,2022-07-06_08h30.29.625,Colour_Asymmetry_Pilot,2022.1.3,Linux x86_64,60.0240096,62c50e9c1127f2cd403a315f,,,,,,,,,,,,,,,,,,,,,,,,,,,,,,,,,,,,,,,,,,,,,,,,,,,,,,,,,,,,,,,,,,,,,,,,,,,,,,,,,,,,,,,,,,,,,,,,,,,,,,,,,,,,,,,,,,,,,,,,,,,,,,,,,,,,,,,,,,,,,,,,,,,,,,,,,,,,,,,,,,,
0,53,53,89,1,,62a45f8a7916c399ac131a3b,62c539fc303bf8e23fd01cc2,2022-07-06_08h30.29.625,Colour_Asymmetry_Pilot,2022.1.3,Linux x86_64,60.0240096,62c50e9c1127f2cd403a315f,,,,,,,,,,,,,,,,,,,,,,,,,,,,,,,,,,,,,,,,,,,,,,,,,,,,,,,,,,,,,,,,,,,,,,,,,,,,,,,,,,,,,,,,,,,,,,,,,,,,,,,,,,,,,,,,,,,,,,,,,,,,,,,,,,,,,,,,,,,,,,,,,,,,,,,,,,,,,,,,,,,
0,54,54,54,1,,62a45f8a7916c399ac131a3b,62c539fc303bf8e23fd01cc2,2022-07-06_08h30.29.625,Colour_Asymmetry_Pilot,2022.1.3,Linux x86_64,60.0240096,62c50e9c1127f2cd403a315f,,,,,,,,,,,,,,,,,,,,,,,,,,,,,,,,,,,,,,,,,,,,,,,,,,,,,,,,,,,,,,,,,,,,,,,,,,,,,,,,,,,,,,,,,,,,,,,,,,,,,,,,,,,,,,,,,,,,,,,,,,,,,,,,,,,,,,,,,,,,,,,,,,,,,,,,,,,,,,,,,,,
0,55,55,20,1,,62a45f8a7916c399ac131a3b,62c539fc303bf8e23fd01cc2,2022-07-06_08h30.29.625,Colour_Asymmetry_Pilot,2022.1.3,Linux x86_64,60.0240096,62c50e9c1127f2cd403a315f,,,,,,,,,,,,,,,,,,,,,,,,,,,,,,,,,,,,,,,,,,,,,,,,,,,,,,,,,,,,,,,,,,,,,,,,,,,,,,,,,,,,,,,,,,,,,,,,,,,,,,,,,,,,,,,,,,,,,,,,,,,,,,,,,,,,,,,,,,,,,,,,,,,,,,,,,,,,,,,,,,,
0,56,56,42,1,,62a45f8a7916c399ac131a3b,62c539fc303bf8e23fd01cc2,2022-07-06_08h30.29.625,Colour_Asymmetry_Pilot,2022.1.3,Linux x86_64,60.0240096,62c50e9c1127f2cd403a315f,,,,,,,,,,,,,,,,,,,,,,,,,,,,,,,,,,,,,,,,,,,,,,,,,,,,,,,,,,,,,,,,,,,,,,,,,,,,,,,,,,,,,,,,,,,,,,,,,,,,,,,,,,,,,,,,,,,,,,,,,,,,,,,,,,,,,,,,,,,,,,,,,,,,,,,,,,,,,,,,,,,
0,57,57,1,1,,62a45f8a7916c399ac131a3b,62c539fc303bf8e23fd01cc2,2022-07-06_08h30.29.625,Colour_Asymmetry_Pilot,2022.1.3,Linux x86_64,60.0240096,62c50e9c1127f2cd403a315f,,,,,,,,,,,,,,,,,,,,,,,,,,,,,,,,,,,,,,,,,,,,,,,,,,,,,,,,,,,,,,,,,,,,,,,,,,,,,,,,,,,,,,,,,,,,,,,,,,,,,,,,,,,,,,,,,,,,,,,,,,,,,,,,,,,,,,,,,,,,,,,,,,,,,,,,,,,,,,,,,,,
0,58,58,87,1,,62a45f8a7916c399ac131a3b,62c539fc303bf8e23fd01cc2,2022-07-06_08h30.29.625,Colour_Asymmetry_Pilot,2022.1.3,Linux x86_64,60.0240096,62c50e9c1127f2cd403a315f,,,,,,,,,,,,,,,,,,,,,,,,,,,,,,,,,,,,,,,,,,,,,,,,,,,,,,,,,,,,,,,,,,,,,,,,,,,,,,,,,,,,,,,,,,,,,,,,,,,,,,,,,,,,,,,,,,,,,,,,,,,,,,,,,,,,,,,,,,,,,,,,,,,,,,,,,,,,,,,,,,,
0,59,59,64,1,,62a45f8a7916c399ac131a3b,62c539fc303bf8e23fd01cc2,2022-07-06_08h30.29.625,Colour_Asymmetry_Pilot,2022.1.3,Linux x86_64,60.0240096,62c50e9c1127f2cd403a315f,,,,,,,,,,,,,,,,,,,,,,,,,,,,,,,,,,,,,,,,,,,,,,,,,,,,,,,,,,,,,,,,,,,,,,,,,,,,,,,,,,,,,,,,,,,,,,,,,,,,,,,,,,,,,,,,,,,,,,,,,,,,,,,,,,,,,,,,,,,,,,,,,,,,,,,,,,,,,,,,,,,
0,60,60,38,1,,62a45f8a7916c399ac131a3b,62c539fc303bf8e23fd01cc2,2022-07-06_08h30.29.625,Colour_Asymmetry_Pilot,2022.1.3,Linux x86_64,60.0240096,62c50e9c1127f2cd403a315f,,,,,,,,,,,,,,,,,,,,,,,,,,,,,,,,,,,,,,,,,,,,,,,,,,,,,,,,,,,,,,,,,,,,,,,,,,,,,,,,,,,,,,,,,,,,,,,,,,,,,,,,,,,,,,,,,,,,,,,,,,,,,,,,,,,,,,,,,,,,,,,,,,,,,,,,,,,,,,,,,,,
0,61,61,13,1,,62a45f8a7916c399ac131a3b,62c539fc303bf8e23fd01cc2,2022-07-06_08h30.29.625,Colour_Asymmetry_Pilot,2022.1.3,Linux x86_64,60.0240096,62c50e9c1127f2cd403a315f,,,,,,,,,,,,,,,,,,,,,,,,,,,,,,,,,,,,,,,,,,,,,,,,,,,,,,,,,,,,,,,,,,,,,,,,,,,,,,,,,,,,,,,,,,,,,,,,,,,,,,,,,,,,,,,,,,,,,,,,,,,,,,,,,,,,,,,,,,,,,,,,,,,,,,,,,,,,,,,,,,,
0,62,62,56,1,,62a45f8a7916c399ac131a3b,62c539fc303bf8e23fd01cc2,2022-07-06_08h30.29.625,Colour_Asymmetry_Pilot,2022.1.3,Linux x86_64,60.0240096,62c50e9c1127f2cd403a315f,,,,,,,,,,,,,,,,,,,,,,,,,,,,,,,,,,,,,,,,,,,,,,,,,,,,,,,,,,,,,,,,,,,,,,,,,,,,,,,,,,,,,,,,,,,,,,,,,,,,,,,,,,,,,,,,,,,,,,,,,,,,,,,,,,,,,,,,,,,,,,,,,,,,,,,,,,,,,,,,,,,
0,63,63,25,1,,62a45f8a7916c399ac131a3b,62c539fc303bf8e23fd01cc2,2022-07-06_08h30.29.625,Colour_Asymmetry_Pilot,2022.1.3,Linux x86_64,60.0240096,62c50e9c1127f2cd403a315f,,,,,,,,,,,,,,,,,,,,,,,,,,,,,,,,,,,,,,,,,,,,,,,,,,,,,,,,,,,,,,,,,,,,,,,,,,,,,,,,,,,,,,,,,,,,,,,,,,,,,,,,,,,,,,,,,,,,,,,,,,,,,,,,,,,,,,,,,,,,,,,,,,,,,,,,,,,,,,,,,,,
0,64,64,33,1,,62a45f8a7916c399ac131a3b,62c539fc303bf8e23fd01cc2,2022-07-06_08h30.29.625,Colour_Asymmetry_Pilot,2022.1.3,Linux x86_64,60.0240096,62c50e9c1127f2cd403a315f,,,,,,,,,,,,,,,,,,,,,,,,,,,,,,,,,,,,,,,,,,,,,,,,,,,,,,,,,,,,,,,,,,,,,,,,,,,,,,,,,,,,,,,,,,,,,,,,,,,,,,,,,,,,,,,,,,,,,,,,,,,,,,,,,,,,,,,,,,,,,,,,,,,,,,,,,,,,,,,,,,,
0,65,65,34,1,,62a45f8a7916c399ac131a3b,62c539fc303bf8e23fd01cc2,2022-07-06_08h30.29.625,Colour_Asymmetry_Pilot,2022.1.3,Linux x86_64,60.0240096,62c50e9c1127f2cd403a315f,,,,,,,,,,,,,,,,,,,,,,,,,,,,,,,,,,,,,,,,,,,,,,,,,,,,,,,,,,,,,,,,,,,,,,,,,,,,,,,,,,,,,,,,,,,,,,,,,,,,,,,,,,,,,,,,,,,,,,,,,,,,,,,,,,,,,,,,,,,,,,,,,,,,,,,,,,,,,,,,,,,
0,66,66,4,1,,62a45f8a7916c399ac131a3b,62c539fc303bf8e23fd01cc2,2022-07-06_08h30.29.625,Colour_Asymmetry_Pilot,2022.1.3,Linux x86_64,60.0240096,62c50e9c1127f2cd403a315f,,,,,,,,,,,,,,,,,,,,,,,,,,,,,,,,,,,,,,,,,,,,,,,,,,,,,,,,,,,,,,,,,,,,,,,,,,,,,,,,,,,,,,,,,,,,,,,,,,,,,,,,,,,,,,,,,,,,,,,,,,,,,,,,,,,,,,,,,,,,,,,,,,,,,,,,,,,,,,,,,,,
0,67,67,62,1,,62a45f8a7916c399ac131a3b,62c539fc303bf8e23fd01cc2,2022-07-06_08h30.29.625,Colour_Asymmetry_Pilot,2022.1.3,Linux x86_64,60.0240096,62c50e9c1127f2cd403a315f,,,,,,,,,,,,,,,,,,,,,,,,,,,,,,,,,,,,,,,,,,,,,,,,,,,,,,,,,,,,,,,,,,,,,,,,,,,,,,,,,,,,,,,,,,,,,,,,,,,,,,,,,,,,,,,,,,,,,,,,,,,,,,,,,,,,,,,,,,,,,,,,,,,,,,,,,,,,,,,,,,,
0,68,68,41,1,,62a45f8a7916c399ac131a3b,62c539fc303bf8e23fd01cc2,2022-07-06_08h30.29.625,Colour_Asymmetry_Pilot,2022.1.3,Linux x86_64,60.0240096,62c50e9c1127f2cd403a315f,,,,,,,,,,,,,,,,,,,,,,,,,,,,,,,,,,,,,,,,,,,,,,,,,,,,,,,,,,,,,,,,,,,,,,,,,,,,,,,,,,,,,,,,,,,,,,,,,,,,,,,,,,,,,,,,,,,,,,,,,,,,,,,,,,,,,,,,,,,,,,,,,,,,,,,,,,,,,,,,,,,
0,69,69,49,1,,62a45f8a7916c399ac131a3b,62c539fc303bf8e23fd01cc2,2022-07-06_08h30.29.625,Colour_Asymmetry_Pilot,2022.1.3,Linux x86_64,60.0240096,62c50e9c1127f2cd403a315f,,,,,,,,,,,,,,,,,,,,,,,,,,,,,,,,,,,,,,,,,,,,,,,,,,,,,,,,,,,,,,,,,,,,,,,,,,,,,,,,,,,,,,,,,,,,,,,,,,,,,,,,,,,,,,,,,,,,,,,,,,,,,,,,,,,,,,,,,,,,,,,,,,,,,,,,,,,,,,,,,,,
0,70,70,10,1,,62a45f8a7916c399ac131a3b,62c539fc303bf8e23fd01cc2,2022-07-06_08h30.29.625,Colour_Asymmetry_Pilot,2022.1.3,Linux x86_64,60.0240096,62c50e9c1127f2cd403a315f,,,,,,,,,,,,,,,,,,,,,,,,,,,,,,,,,,,,,,,,,,,,,,,,,,,,,,,,,,,,,,,,,,,,,,,,,,,,,,,,,,,,,,,,,,,,,,,,,,,,,,,,,,,,,,,,,,,,,,,,,,,,,,,,,,,,,,,,,,,,,,,,,,,,,,,,,,,,,,,,,,,
0,71,71,9,1,,62a45f8a7916c399ac131a3b,62c539fc303bf8e23fd01cc2,2022-07-06_08h30.29.625,Colour_Asymmetry_Pilot,2022.1.3,Linux x86_64,60.0240096,62c50e9c1127f2cd403a315f,,,,,,,,,,,,,,,,,,,,,,,,,,,,,,,,,,,,,,,,,,,,,,,,,,,,,,,,,,,,,,,,,,,,,,,,,,,,,,,,,,,,,,,,,,,,,,,,,,,,,,,,,,,,,,,,,,,,,,,,,,,,,,,,,,,,,,,,,,,,,,,,,,,,,,,,,,,,,,,,,,,
0,72,72,22,1,,62a45f8a7916c399ac131a3b,62c539fc303bf8e23fd01cc2,2022-07-06_08h30.29.625,Colour_Asymmetry_Pilot,2022.1.3,Linux x86_64,60.0240096,62c50e9c1127f2cd403a315f,,,,,,,,,,,,,,,,,,,,,,,,,,,,,,,,,,,,,,,,,,,,,,,,,,,,,,,,,,,,,,,,,,,,,,,,,,,,,,,,,,,,,,,,,,,,,,,,,,,,,,,,,,,,,,,,,,,,,,,,,,,,,,,,,,,,,,,,,,,,,,,,,,,,,,,,,,,,,,,,,,,
0,73,73,65,1,,62a45f8a7916c399ac131a3b,62c539fc303bf8e23fd01cc2,2022-07-06_08h30.29.625,Colour_Asymmetry_Pilot,2022.1.3,Linux x86_64,60.0240096,62c50e9c1127f2cd403a315f,,,,,,,,,,,,,,,,,,,,,,,,,,,,,,,,,,,,,,,,,,,,,,,,,,,,,,,,,,,,,,,,,,,,,,,,,,,,,,,,,,,,,,,,,,,,,,,,,,,,,,,,,,,,,,,,,,,,,,,,,,,,,,,,,,,,,,,,,,,,,,,,,,,,,,,,,,,,,,,,,,,
0,74,74,79,1,,62a45f8a7916c399ac131a3b,62c539fc303bf8e23fd01cc2,2022-07-06_08h30.29.625,Colour_Asymmetry_Pilot,2022.1.3,Linux x86_64,60.0240096,62c50e9c1127f2cd403a315f,,,,,,,,,,,,,,,,,,,,,,,,,,,,,,,,,,,,,,,,,,,,,,,,,,,,,,,,,,,,,,,,,,,,,,,,,,,,,,,,,,,,,,,,,,,,,,,,,,,,,,,,,,,,,,,,,,,,,,,,,,,,,,,,,,,,,,,,,,,,,,,,,,,,,,,,,,,,,,,,,,,
0,75,75,91,1,,62a45f8a7916c399ac131a3b,62c539fc303bf8e23fd01cc2,2022-07-06_08h30.29.625,Colour_Asymmetry_Pilot,2022.1.3,Linux x86_64,60.0240096,62c50e9c1127f2cd403a315f,,,,,,,,,,,,,,,,,,,,,,,,,,,,,,,,,,,,,,,,,,,,,,,,,,,,,,,,,,,,,,,,,,,,,,,,,,,,,,,,,,,,,,,,,,,,,,,,,,,,,,,,,,,,,,,,,,,,,,,,,,,,,,,,,,,,,,,,,,,,,,,,,,,,,,,,,,,,,,,,,,,
0,76,76,36,1,,62a45f8a7916c399ac131a3b,62c539fc303bf8e23fd01cc2,2022-07-06_08h30.29.625,Colour_Asymmetry_Pilot,2022.1.3,Linux x86_64,60.0240096,62c50e9c1127f2cd403a315f,,,,,,,,,,,,,,,,,,,,,,,,,,,,,,,,,,,,,,,,,,,,,,,,,,,,,,,,,,,,,,,,,,,,,,,,,,,,,,,,,,,,,,,,,,,,,,,,,,,,,,,,,,,,,,,,,,,,,,,,,,,,,,,,,,,,,,,,,,,,,,,,,,,,,,,,,,,,,,,,,,,
0,77,77,83,1,,62a45f8a7916c399ac131a3b,62c539fc303bf8e23fd01cc2,2022-07-06_08h30.29.625,Colour_Asymmetry_Pilot,2022.1.3,Linux x86_64,60.0240096,62c50e9c1127f2cd403a315f,,,,,,,,,,,,,,,,,,,,,,,,,,,,,,,,,,,,,,,,,,,,,,,,,,,,,,,,,,,,,,,,,,,,,,,,,,,,,,,,,,,,,,,,,,,,,,,,,,,,,,,,,,,,,,,,,,,,,,,,,,,,,,,,,,,,,,,,,,,,,,,,,,,,,,,,,,,,,,,,,,,
0,78,78,59,1,,62a45f8a7916c399ac131a3b,62c539fc303bf8e23fd01cc2,2022-07-06_08h30.29.625,Colour_Asymmetry_Pilot,2022.1.3,Linux x86_64,60.0240096,62c50e9c1127f2cd403a315f,,,,,,,,,,,,,,,,,,,,,,,,,,,,,,,,,,,,,,,,,,,,,,,,,,,,,,,,,,,,,,,,,,,,,,,,,,,,,,,,,,,,,,,,,,,,,,,,,,,,,,,,,,,,,,,,,,,,,,,,,,,,,,,,,,,,,,,,,,,,,,,,,,,,,,,,,,,,,,,,,,,
0,79,79,48,1,,62a45f8a7916c399ac131a3b,62c539fc303bf8e23fd01cc2,2022-07-06_08h30.29.625,Colour_Asymmetry_Pilot,2022.1.3,Linux x86_64,60.0240096,62c50e9c1127f2cd403a315f,,,,,,,,,,,,,,,,,,,,,,,,,,,,,,,,,,,,,,,,,,,,,,,,,,,,,,,,,,,,,,,,,,,,,,,,,,,,,,,,,,,,,,,,,,,,,,,,,,,,,,,,,,,,,,,,,,,,,,,,,,,,,,,,,,,,,,,,,,,,,,,,,,,,,,,,,,,,,,,,,,,
0,80,80,3,1,,62a45f8a7916c399ac131a3b,62c539fc303bf8e23fd01cc2,2022-07-06_08h30.29.625,Colour_Asymmetry_Pilot,2022.1.3,Linux x86_64,60.0240096,62c50e9c1127f2cd403a315f,,,,,,,,,,,,,,,,,,,,,,,,,,,,,,,,,,,,,,,,,,,,,,,,,,,,,,,,,,,,,,,,,,,,,,,,,,,,,,,,,,,,,,,,,,,,,,,,,,,,,,,,,,,,,,,,,,,,,,,,,,,,,,,,,,,,,,,,,,,,,,,,,,,,,,,,,,,,,,,,,,,
0,81,81,51,1,,62a45f8a7916c399ac131a3b,62c539fc303bf8e23fd01cc2,2022-07-06_08h30.29.625,Colour_Asymmetry_Pilot,2022.1.3,Linux x86_64,60.0240096,62c50e9c1127f2cd403a315f,,,,,,,,,,,,,,,,,,,,,,,,,,,,,,,,,,,,,,,,,,,,,,,,,,,,,,,,,,,,,,,,,,,,,,,,,,,,,,,,,,,,,,,,,,,,,,,,,,,,,,,,,,,,,,,,,,,,,,,,,,,,,,,,,,,,,,,,,,,,,,,,,,,,,,,,,,,,,,,,,,,
0,82,82,53,1,,62a45f8a7916c399ac131a3b,62c539fc303bf8e23fd01cc2,2022-07-06_08h30.29.625,Colour_Asymmetry_Pilot,2022.1.3,Linux x86_64,60.0240096,62c50e9c1127f2cd403a315f,,,,,,,,,,,,,,,,,,,,,,,,,,,,,,,,,,,,,,,,,,,,,,,,,,,,,,,,,,,,,,,,,,,,,,,,,,,,,,,,,,,,,,,,,,,,,,,,,,,,,,,,,,,,,,,,,,,,,,,,,,,,,,,,,,,,,,,,,,,,,,,,,,,,,,,,,,,,,,,,,,,
0,83,83,32,1,,62a45f8a7916c399ac131a3b,62c539fc303bf8e23fd01cc2,2022-07-06_08h30.29.625,Colour_Asymmetry_Pilot,2022.1.3,Linux x86_64,60.0240096,62c50e9c1127f2cd403a315f,,,,,,,,,,,,,,,,,,,,,,,,,,,,,,,,,,,,,,,,,,,,,,,,,,,,,,,,,,,,,,,,,,,,,,,,,,,,,,,,,,,,,,,,,,,,,,,,,,,,,,,,,,,,,,,,,,,,,,,,,,,,,,,,,,,,,,,,,,,,,,,,,,,,,,,,,,,,,,,,,,,
0,84,84,37,1,,62a45f8a7916c399ac131a3b,62c539fc303bf8e23fd01cc2,2022-07-06_08h30.29.625,Colour_Asymmetry_Pilot,2022.1.3,Linux x86_64,60.0240096,62c50e9c1127f2cd403a315f,,,,,,,,,,,,,,,,,,,,,,,,,,,,,,,,,,,,,,,,,,,,,,,,,,,,,,,,,,,,,,,,,,,,,,,,,,,,,,,,,,,,,,,,,,,,,,,,,,,,,,,,,,,,,,,,,,,,,,,,,,,,,,,,,,,,,,,,,,,,,,,,,,,,,,,,,,,,,,,,,,,
0,85,85,40,1,,62a45f8a7916c399ac131a3b,62c539fc303bf8e23fd01cc2,2022-07-06_08h30.29.625,Colour_Asymmetry_Pilot,2022.1.3,Linux x86_64,60.0240096,62c50e9c1127f2cd403a315f,,,,,,,,,,,,,,,,,,,,,,,,,,,,,,,,,,,,,,,,,,,,,,,,,,,,,,,,,,,,,,,,,,,,,,,,,,,,,,,,,,,,,,,,,,,,,,,,,,,,,,,,,,,,,,,,,,,,,,,,,,,,,,,,,,,,,,,,,,,,,,,,,,,,,,,,,,,,,,,,,,,
0,86,86,44,1,,62a45f8a7916c399ac131a3b,62c539fc303bf8e23fd01cc2,2022-07-06_08h30.29.625,Colour_Asymmetry_Pilot,2022.1.3,Linux x86_64,60.0240096,62c50e9c1127f2cd403a315f,,,,,,,,,,,,,,,,,,,,,,,,,,,,,,,,,,,,,,,,,,,,,,,,,,,,,,,,,,,,,,,,,,,,,,,,,,,,,,,,,,,,,,,,,,,,,,,,,,,,,,,,,,,,,,,,,,,,,,,,,,,,,,,,,,,,,,,,,,,,,,,,,,,,,,,,,,,,,,,,,,,
0,87,87,75,1,,62a45f8a7916c399ac131a3b,62c539fc303bf8e23fd01cc2,2022-07-06_08h30.29.625,Colour_Asymmetry_Pilot,2022.1.3,Linux x86_64,60.0240096,62c50e9c1127f2cd403a315f,,,,,,,,,,,,,,,,,,,,,,,,,,,,,,,,,,,,,,,,,,,,,,,,,,,,,,,,,,,,,,,,,,,,,,,,,,,,,,,,,,,,,,,,,,,,,,,,,,,,,,,,,,,,,,,,,,,,,,,,,,,,,,,,,,,,,,,,,,,,,,,,,,,,,,,,,,,,,,,,,,,
0,88,88,90,1,,62a45f8a7916c399ac131a3b,62c539fc303bf8e23fd01cc2,2022-07-06_08h30.29.625,Colour_Asymmetry_Pilot,2022.1.3,Linux x86_64,60.0240096,62c50e9c1127f2cd403a315f,,,,,,,,,,,,,,,,,,,,,,,,,,,,,,,,,,,,,,,,,,,,,,,,,,,,,,,,,,,,,,,,,,,,,,,,,,,,,,,,,,,,,,,,,,,,,,,,,,,,,,,,,,,,,,,,,,,,,,,,,,,,,,,,,,,,,,,,,,,,,,,,,,,,,,,,,,,,,,,,,,,
0,89,89,14,1,,62a45f8a7916c399ac131a3b,62c539fc303bf8e23fd01cc2,2022-07-06_08h30.29.625,Colour_Asymmetry_Pilot,2022.1.3,Linux x86_64,60.0240096,62c50e9c1127f2cd403a315f,,,,,,,,,,,,,,,,,,,,,,,,,,,,,,,,,,,,,,,,,,,,,,,,,,,,,,,,,,,,,,,,,,,,,,,,,,,,,,,,,,,,,,,,,,,,,,,,,,,,,,,,,,,,,,,,,,,,,,,,,,,,,,,,,,,,,,,,,,,,,,,,,,,,,,,,,,,,,,,,,,,
0,90,90,76,1,,62a45f8a7916c399ac131a3b,62c539fc303bf8e23fd01cc2,2022-07-06_08h30.29.625,Colour_Asymmetry_Pilot,2022.1.3,Linux x86_64,60.0240096,62c50e9c1127f2cd403a315f,,,,,,,,,,,,,,,,,,,,,,,,,,,,,,,,,,,,,,,,,,,,,,,,,,,,,,,,,,,,,,,,,,,,,,,,,,,,,,,,,,,,,,,,,,,,,,,,,,,,,,,,,,,,,,,,,,,,,,,,,,,,,,,,,,,,,,,,,,,,,,,,,,,,,,,,,,,,,,,,,,,
0,91,91,81,1,,62a45f8a7916c399ac131a3b,62c539fc303bf8e23fd01cc2,2022-07-06_08h30.29.625,Colour_Asymmetry_Pilot,2022.1.3,Linux x86_64,60.0240096,62c50e9c1127f2cd403a315f,,,,,,,,,,,,,,,,,,,,,,,,,,,,,,,,,,,,,,,,,,,,,,,,,,,,,,,,,,,,,,,,,,,,,,,,,,,,,,,,,,,,,,,,,,,,,,,,,,,,,,,,,,,,,,,,,,,,,,,,,,,,,,,,,,,,,,,,,,,,,,,,,,,,,,,,,,,,,,,,,,,
0,92,92,73,1,,62a45f8a7916c399ac131a3b,62c539fc303bf8e23fd01cc2,2022-07-06_08h30.29.625,Colour_Asymmetry_Pilot,2022.1.3,Linux x86_64,60.0240096,62c50e9c1127f2cd403a315f,,,,,,,,,,,,,,,,,,,,,,,,,,,,,,,,,,,,,,,,,,,,,,,,,,,,,,,,,,,,,,,,,,,,,,,,,,,,,,,,,,,,,,,,,,,,,,,,,,,,,,,,,,,,,,,,,,,,,,,,,,,,,,,,,,,,,,,,,,,,,,,,,,,,,,,,,,,,,,,,,,,
,,,,,,62a45f8a7916c399ac131a3b,62c539fc303bf8e23fd01cc2,2022-07-06_08h30.29.625,Colour_Asymmetry_Pilot,2022.1.3,Linux x86_64,60.0240096,62c50e9c1127f2cd403a315f,0,0,0,54,1,fourtwo,,,,,,,,,,,,,,,,,,,,,,,,,,,,,,,,,,,,,,,,,,,,,,,,,,,,,,,,,,,,,,,,,,,,,,,,,,,,,,,,,,,,,,,,,,,,,,,,,,,,,,,,,,,,,,,,,,,,,,,,,,,,,,,,,,,,,,,,,,,,,,,,,,,,,,,,,,,,,
,,,,,,62a45f8a7916c399ac131a3b,62c539fc303bf8e23fd01cc2,2022-07-06_08h30.29.625,Colour_Asymmetry_Pilot,2022.1.3,Linux x86_64,60.0240096,62c50e9c1127f2cd403a315f,0,1,1,26,1,twoone,,,,,,,,,,,,,,,,,,,,,,,,,,,,,,,,,,,,,,,,,,,,,,,,,,,,,,,,,,,,,,,,,,,,,,,,,,,,,,,,,,,,,,,,,,,,,,,,,,,,,,,,,,,,,,,,,,,,,,,,,,,,,,,,,,,,,,,,,,,,,,,,,,,,,,,,,,,,,
,,,,,,62a45f8a7916c399ac131a3b,62c539fc303bf8e23fd01cc2,2022-07-06_08h30.29.625,Colour_Asymmetry_Pilot,2022.1.3,Linux x86_64,60.0240096,62c50e9c1127f2cd403a315f,0,2,2,134,1,fourtwo,,,,,,,,,,,,,,,,,,,,,,,,,,,,,,,,,,,,,,,,,,,,,,,,,,,,,,,,,,,,,,,,,,,,,,,,,,,,,,,,,,,,,,,,,,,,,,,,,,,,,,,,,,,,,,,,,,,,,,,,,,,,,,,,,,,,,,,,,,,,,,,,,,,,,,,,,,,,,
,,,,,,62a45f8a7916c399ac131a3b,62c539fc303bf8e23fd01cc2,2022-07-06_08h30.29.625,Colour_Asymmetry_Pilot,2022.1.3,Linux x86_64,60.0240096,62c50e9c1127f2cd403a315f,0,3,3,110,1,fourtwo,,,,,,,,,,,,,,,,,,,,,,,,,,,,,,,,,,,,,,,,,,,,,,,,,,,,,,,,,,,,,,,,,,,,,,,,,,,,,,,,,,,,,,,,,,,,,,,,,,,,,,,,,,,,,,,,,,,,,,,,,,,,,,,,,,,,,,,,,,,,,,,,,,,,,,,,,,,,,
,,,,,,62a45f8a7916c399ac131a3b,62c539fc303bf8e23fd01cc2,2022-07-06_08h30.29.625,Colour_Asymmetry_Pilot,2022.1.3,Linux x86_64,60.0240096,62c50e9c1127f2cd403a315f,0,4,4,8,1,onetwo,,,,,,,,,,,,,,,,,,,,,,,,,,,,,,,,,,,,,,,,,,,,,,,,,,,,,,,,,,,,,,,,,,,,,,,,,,,,,,,,,,,,,,,,,,,,,,,,,,,,,,,,,,,,,,,,,,,,,,,,,,,,,,,,,,,,,,,,,,,,,,,,,,,,,,,,,,,,,
,,,,,,62a45f8a7916c399ac131a3b,62c539fc303bf8e23fd01cc2,2022-07-06_08h30.29.625,Colour_Asymmetry_Pilot,2022.1.3,Linux x86_64,60.0240096,62c50e9c1127f2cd403a315f,0,5,5,95,1,fourthree,,,,,,,,,,,,,,,,,,,,,,,,,,,,,,,,,,,,,,,,,,,,,,,,,,,,,,,,,,,,,,,,,,,,,,,,,,,,,,,,,,,,,,,,,,,,,,,,,,,,,,,,,,,,,,,,,,,,,,,,,,,,,,,,,,,,,,,,,,,,,,,,,,,,,,,,,,,,,
,,,,,,62a45f8a7916c399ac131a3b,62c539fc303bf8e23fd01cc2,2022-07-06_08h30.29.625,Colour_Asymmetry_Pilot,2022.1.3,Linux x86_64,60.0240096,62c50e9c1127f2cd403a315f,0,6,6,75,1,twofour,,,,,,,,,,,,,,,,,,,,,,,,,,,,,,,,,,,,,,,,,,,,,,,,,,,,,,,,,,,,,,,,,,,,,,,,,,,,,,,,,,,,,,,,,,,,,,,,,,,,,,,,,,,,,,,,,,,,,,,,,,,,,,,,,,,,,,,,,,,,,,,,,,,,,,,,,,,,,
,,,,,,62a45f8a7916c399ac131a3b,62c539fc303bf8e23fd01cc2,2022-07-06_08h30.29.625,Colour_Asymmetry_Pilot,2022.1.3,Linux x86_64,60.0240096,62c50e9c1127f2cd403a315f,0,7,7,19,1,twofour,,,,,,,,,,,,,,,,,,,,,,,,,,,,,,,,,,,,,,,,,,,,,,,,,,,,,,,,,,,,,,,,,,,,,,,,,,,,,,,,,,,,,,,,,,,,,,,,,,,,,,,,,,,,,,,,,,,,,,,,,,,,,,,,,,,,,,,,,,,,,,,,,,,,,,,,,,,,,
,,,,,,62a45f8a7916c399ac131a3b,62c539fc303bf8e23fd01cc2,2022-07-06_08h30.29.625,Colour_Asymmetry_Pilot,2022.1.3,Linux x86_64,60.0240096,62c50e9c1127f2cd403a315f,0,8,8,128,1,onetwo,,,,,,,,,,,,,,,,,,,,,,,,,,,,,,,,,,,,,,,,,,,,,,,,,,,,,,,,,,,,,,,,,,,,,,,,,,,,,,,,,,,,,,,,,,,,,,,,,,,,,,,,,,,,,,,,,,,,,,,,,,,,,,,,,,,,,,,,,,,,,,,,,,,,,,,,,,,,,
,,,,,,62a45f8a7916c399ac131a3b,62c539fc303bf8e23fd01cc2,2022-07-06_08h30.29.625,Colour_Asymmetry_Pilot,2022.1.3,Linux x86_64,60.0240096,62c50e9c1127f2cd403a315f,0,9,9,31,1,fourthree,,,,,,,,,,,,,,,,,,,,,,,,,,,,,,,,,,,,,,,,,,,,,,,,,,,,,,,,,,,,,,,,,,,,,,,,,,,,,,,,,,,,,,,,,,,,,,,,,,,,,,,,,,,,,,,,,,,,,,,,,,,,,,,,,,,,,,,,,,,,,,,,,,,,,,,,,,,,,
,,,,,,62a45f8a7916c399ac131a3b,62c539fc303bf8e23fd01cc2,2022-07-06_08h30.29.625,Colour_Asymmetry_Pilot,2022.1.3,Linux x86_64,60.0240096,62c50e9c1127f2cd403a315f,0,10,10,92,1,threeone,,,,,,,,,,,,,,,,,,,,,,,,,,,,,,,,,,,,,,,,,,,,,,,,,,,,,,,,,,,,,,,,,,,,,,,,,,,,,,,,,,,,,,,,,,,,,,,,,,,,,,,,,,,,,,,,,,,,,,,,,,,,,,,,,,,,,,,,,,,,,,,,,,,,,,,,,,,,,
,,,,,,62a45f8a7916c399ac131a3b,62c539fc303bf8e23fd01cc2,2022-07-06_08h30.29.625,Colour_Asymmetry_Pilot,2022.1.3,Linux x86_64,60.0240096,62c50e9c1127f2cd403a315f,0,11,11,94,1,fourtwo,,,,,,,,,,,,,,,,,,,,,,,,,,,,,,,,,,,,,,,,,,,,,,,,,,,,,,,,,,,,,,,,,,,,,,,,,,,,,,,,,,,,,,,,,,,,,,,,,,,,,,,,,,,,,,,,,,,,,,,,,,,,,,,,,,,,,,,,,,,,,,,,,,,,,,,,,,,,,
,,,,,,62a45f8a7916c399ac131a3b,62c539fc303bf8e23fd01cc2,2022-07-06_08h30.29.625,Colour_Asymmetry_Pilot,2022.1.3,Linux x86_64,60.0240096,62c50e9c1127f2cd403a315f,0,12,12,3,1,twofour,,,,,,,,,,,,,,,,,,,,,,,,,,,,,,,,,,,,,,,,,,,,,,,,,,,,,,,,,,,,,,,,,,,,,,,,,,,,,,,,,,,,,,,,,,,,,,,,,,,,,,,,,,,,,,,,,,,,,,,,,,,,,,,,,,,,,,,,,,,,,,,,,,,,,,,,,,,,,
,,,,,,62a45f8a7916c399ac131a3b,62c539fc303bf8e23fd01cc2,2022-07-06_08h30.29.625,Colour_Asymmetry_Pilot,2022.1.3,Linux x86_64,60.0240096,62c50e9c1127f2cd403a315f,0,13,13,35,1,twofour,,,,,,,,,,,,,,,,,,,,,,,,,,,,,,,,,,,,,,,,,,,,,,,,,,,,,,,,,,,,,,,,,,,,,,,,,,,,,,,,,,,,,,,,,,,,,,,,,,,,,,,,,,,,,,,,,,,,,,,,,,,,,,,,,,,,,,,,,,,,,,,,,,,,,,,,,,,,,
,,,,,,62a45f8a7916c399ac131a3b,62c539fc303bf8e23fd01cc2,2022-07-06_08h30.29.625,Colour_Asymmetry_Pilot,2022.1.3,Linux x86_64,60.0240096,62c50e9c1127f2cd403a315f,0,14,14,20,1,threeone,,,,,,,,,,,,,,,,,,,,,,,,,,,,,,,,,,,,,,,,,,,,,,,,,,,,,,,,,,,,,,,,,,,,,,,,,,,,,,,,,,,,,,,,,,,,,,,,,,,,,,,,,,,,,,,,,,,,,,,,,,,,,,,,,,,,,,,,,,,,,,,,,,,,,,,,,,,,,
,,,,,,62a45f8a7916c399ac131a3b,62c539fc303bf8e23fd01cc2,2022-07-06_08h30.29.625,Colour_Asymmetry_Pilot,2022.1.3,Linux x86_64,60.0240096,62c50e9c1127f2cd403a315f,0,15,15,7,1,fourthree,,,,,,,,,,,,,,,,,,,,,,,,,,,,,,,,,,,,,,,,,,,,,,,,,,,,,,,,,,,,,,,,,,,,,,,,,,,,,,,,,,,,,,,,,,,,,,,,,,,,,,,,,,,,,,,,,,,,,,,,,,,,,,,,,,,,,,,,,,,,,,,,,,,,,,,,,,,,,
,,,,,,62a45f8a7916c399ac131a3b,62c539fc303bf8e23fd01cc2,2022-07-06_08h30.29.625,Colour_Asymmetry_Pilot,2022.1.3,Linux x86_64,60.0240096,62c50e9c1127f2cd403a315f,0,16,16,161,1,onethree,,,,,,,,,,,,,,,,,,,,,,,,,,,,,,,,,,,,,,,,,,,,,,,,,,,,,,,,,,,,,,,,,,,,,,,,,,,,,,,,,,,,,,,,,,,,,,,,,,,,,,,,,,,,,,,,,,,,,,,,,,,,,,,,,,,,,,,,,,,,,,,,,,,,,,,,,,,,,
,,,,,,62a45f8a7916c399ac131a3b,62c539fc303bf8e23fd01cc2,2022-07-06_08h30.29.625,Colour_Asymmetry_Pilot,2022.1.3,Linux x86_64,60.0240096,62c50e9c1127f2cd403a315f,0,17,17,85,1,threefour,,,,,,,,,,,,,,,,,,,,,,,,,,,,,,,,,,,,,,,,,,,,,,,,,,,,,,,,,,,,,,,,,,,,,,,,,,,,,,,,,,,,,,,,,,,,,,,,,,,,,,,,,,,,,,,,,,,,,,,,,,,,,,,,,,,,,,,,,,,,,,,,,,,,,,,,,,,,,
,,,,,,62a45f8a7916c399ac131a3b,62c539fc303bf8e23fd01cc2,2022-07-06_08h30.29.625,Colour_Asymmetry_Pilot,2022.1.3,Linux x86_64,60.0240096,62c50e9c1127f2cd403a315f,0,18,18,64,1,onetwo,,,,,,,,,,,,,,,,,,,,,,,,,,,,,,,,,,,,,,,,,,,,,,,,,,,,,,,,,,,,,,,,,,,,,,,,,,,,,,,,,,,,,,,,,,,,,,,,,,,,,,,,,,,,,,,,,,,,,,,,,,,,,,,,,,,,,,,,,,,,,,,,,,,,,,,,,,,,,
,,,,,,62a45f8a7916c399ac131a3b,62c539fc303bf8e23fd01cc2,2022-07-06_08h30.29.625,Colour_Asymmetry_Pilot,2022.1.3,Linux x86_64,60.0240096,62c50e9c1127f2cd403a315f,0,19,19,44,1,threeone,,,,,,,,,,,,,,,,,,,,,,,,,,,,,,,,,,,,,,,,,,,,,,,,,,,,,,,,,,,,,,,,,,,,,,,,,,,,,,,,,,,,,,,,,,,,,,,,,,,,,,,,,,,,,,,,,,,,,,,,,,,,,,,,,,,,,,,,,,,,,,,,,,,,,,,,,,,,,
,,,,,,62a45f8a7916c399ac131a3b,62c539fc303bf8e23fd01cc2,2022-07-06_08h30.29.625,Colour_Asymmetry_Pilot,2022.1.3,Linux x86_64,60.0240096,62c50e9c1127f2cd403a315f,0,20,20,45,1,threefour,,,,,,,,,,,,,,,,,,,,,,,,,,,,,,,,,,,,,,,,,,,,,,,,,,,,,,,,,,,,,,,,,,,,,,,,,,,,,,,,,,,,,,,,,,,,,,,,,,,,,,,,,,,,,,,,,,,,,,,,,,,,,,,,,,,,,,,,,,,,,,,,,,,,,,,,,,,,,
,,,,,,62a45f8a7916c399ac131a3b,62c539fc303bf8e23fd01cc2,2022-07-06_08h30.29.625,Colour_Asymmetry_Pilot,2022.1.3,Linux x86_64,60.0240096,62c50e9c1127f2cd403a315f,0,21,21,115,1,twofour,,,,,,,,,,,,,,,,,,,,,,,,,,,,,,,,,,,,,,,,,,,,,,,,,,,,,,,,,,,,,,,,,,,,,,,,,,,,,,,,,,,,,,,,,,,,,,,,,,,,,,,,,,,,,,,,,,,,,,,,,,,,,,,,,,,,,,,,,,,,,,,,,,,,,,,,,,,,,
,,,,,,62a45f8a7916c399ac131a3b,62c539fc303bf8e23fd01cc2,2022-07-06_08h30.29.625,Colour_Asymmetry_Pilot,2022.1.3,Linux x86_64,60.0240096,62c50e9c1127f2cd403a315f,0,22,22,73,1,onethree,,,,,,,,,,,,,,,,,,,,,,,,,,,,,,,,,,,,,,,,,,,,,,,,,,,,,,,,,,,,,,,,,,,,,,,,,,,,,,,,,,,,,,,,,,,,,,,,,,,,,,,,,,,,,,,,,,,,,,,,,,,,,,,,,,,,,,,,,,,,,,,,,,,,,,,,,,,,,
,,,,,,62a45f8a7916c399ac131a3b,62c539fc303bf8e23fd01cc2,2022-07-06_08h30.29.625,Colour_Asymmetry_Pilot,2022.1.3,Linux x86_64,60.0240096,62c50e9c1127f2cd403a315f,0,23,23,97,1,onethree,,,,,,,,,,,,,,,,,,,,,,,,,,,,,,,,,,,,,,,,,,,,,,,,,,,,,,,,,,,,,,,,,,,,,,,,,,,,,,,,,,,,,,,,,,,,,,,,,,,,,,,,,,,,,,,,,,,,,,,,,,,,,,,,,,,,,,,,,,,,,,,,,,,,,,,,,,,,,
,,,,,,62a45f8a7916c399ac131a3b,62c539fc303bf8e23fd01cc2,2022-07-06_08h30.29.625,Colour_Asymmetry_Pilot,2022.1.3,Linux x86_64,60.0240096,62c50e9c1127f2cd403a315f,0,24,24,62,1,fourtwo,,,,,,,,,,,,,,,,,,,,,,,,,,,,,,,,,,,,,,,,,,,,,,,,,,,,,,,,,,,,,,,,,,,,,,,,,,,,,,,,,,,,,,,,,,,,,,,,,,,,,,,,,,,,,,,,,,,,,,,,,,,,,,,,,,,,,,,,,,,,,,,,,,,,,,,,,,,,,
,,,,,,62a45f8a7916c399ac131a3b,62c539fc303bf8e23fd01cc2,2022-07-06_08h30.29.625,Colour_Asymmetry_Pilot,2022.1.3,Linux x86_64,60.0240096,62c50e9c1127f2cd403a315f,0,25,25,15,1,fourthree,,,,,,,,,,,,,,,,,,,,,,,,,,,,,,,,,,,,,,,,,,,,,,,,,,,,,,,,,,,,,,,,,,,,,,,,,,,,,,,,,,,,,,,,,,,,,,,,,,,,,,,,,,,,,,,,,,,,,,,,,,,,,,,,,,,,,,,,,,,,,,,,,,,,,,,,,,,,,
,,,,,,62a45f8a7916c399ac131a3b,62c539fc303bf8e23fd01cc2,2022-07-06_08h30.29.625,Colour_Asymmetry_Pilot,2022.1.3,Linux x86_64,60.0240096,62c50e9c1127f2cd403a315f,0,26,26,17,1,onethree,,,,,,,,,,,,,,,,,,,,,,,,,,,,,,,,,,,,,,,,,,,,,,,,,,,,,,,,,,,,,,,,,,,,,,,,,,,,,,,,,,,,,,,,,,,,,,,,,,,,,,,,,,,,,,,,,,,,,,,,,,,,,,,,,,,,,,,,,,,,,,,,,,,,,,,,,,,,,
,,,,,,62a45f8a7916c399ac131a3b,62c539fc303bf8e23fd01cc2,2022-07-06_08h30.29.625,Colour_Asymmetry_Pilot,2022.1.3,Linux x86_64,60.0240096,62c50e9c1127f2cd403a315f,0,27,27,151,1,fourthree,,,,,,,,,,,,,,,,,,,,,,,,,,,,,,,,,,,,,,,,,,,,,,,,,,,,,,,,,,,,,,,,,,,,,,,,,,,,,,,,,,,,,,,,,,,,,,,,,,,,,,,,,,,,,,,,,,,,,,,,,,,,,,,,,,,,,,,,,,,,,,,,,,,,,,,,,,,,,
,,,,,,62a45f8a7916c399ac131a3b,62c539fc303bf8e23fd01cc2,2022-07-06_08h30.29.625,Colour_Asymmetry_Pilot,2022.1.3,Linux x86_64,60.0240096,62c50e9c1127f2cd403a315f,0,28,28,120,1,onetwo,,,,,,,,,,,,,,,,,,,,,,,,,,,,,,,,,,,,,,,,,,,,,,,,,,,,,,,,,,,,,,,,,,,,,,,,,,,,,,,,,,,,,,,,,,,,,,,,,,,,,,,,,,,,,,,,,,,,,,,,,,,,,,,,,,,,,,,,,,,,,,,,,,,,,,,,,,,,,
,,,,,,62a45f8a7916c399ac131a3b,62c539fc303bf8e23fd01cc2,2022-07-06_08h30.29.625,Colour_Asymmetry_Pilot,2022.1.3,Linux x86_64,60.0240096,62c50e9c1127f2cd403a315f,0,29,29,127,1,fourthree,,,,,,,,,,,,,,,,,,,,,,,,,,,,,,,,,,,,,,,,,,,,,,,,,,,,,,,,,,,,,,,,,,,,,,,,,,,,,,,,,,,,,,,,,,,,,,,,,,,,,,,,,,,,,,,,,,,,,,,,,,,,,,,,,,,,,,,,,,,,,,,,,,,,,,,,,,,,,
,,,,,,62a45f8a7916c399ac131a3b,62c539fc303bf8e23fd01cc2,2022-07-06_08h30.29.625,Colour_Asymmetry_Pilot,2022.1.3,Linux x86_64,60.0240096,62c50e9c1127f2cd403a315f,0,30,30,114,1,twoone,,,,,,,,,,,,,,,,,,,,,,,,,,,,,,,,,,,,,,,,,,,,,,,,,,,,,,,,,,,,,,,,,,,,,,,,,,,,,,,,,,,,,,,,,,,,,,,,,,,,,,,,,,,,,,,,,,,,,,,,,,,,,,,,,,,,,,,,,,,,,,,,,,,,,,,,,,,,,
,,,,,,62a45f8a7916c399ac131a3b,62c539fc303bf8e23fd01cc2,2022-07-06_08h30.29.625,Colour_Asymmetry_Pilot,2022.1.3,Linux x86_64,60.0240096,62c50e9c1127f2cd403a315f,0,31,31,48,1,onetwo,,,,,,,,,,,,,,,,,,,,,,,,,,,,,,,,,,,,,,,,,,,,,,,,,,,,,,,,,,,,,,,,,,,,,,,,,,,,,,,,,,,,,,,,,,,,,,,,,,,,,,,,,,,,,,,,,,,,,,,,,,,,,,,,,,,,,,,,,,,,,,,,,,,,,,,,,,,,,
,,,,,,62a45f8a7916c399ac131a3b,62c539fc303bf8e23fd01cc2,2022-07-06_08h30.29.625,Colour_Asymmetry_Pilot,2022.1.3,Linux x86_64,60.0240096,62c50e9c1127f2cd403a315f,0,32,32,122,1,twoone,,,,,,,,,,,,,,,,,,,,,,,,,,,,,,,,,,,,,,,,,,,,,,,,,,,,,,,,,,,,,,,,,,,,,,,,,,,,,,,,,,,,,,,,,,,,,,,,,,,,,,,,,,,,,,,,,,,,,,,,,,,,,,,,,,,,,,,,,,,,,,,,,,,,,,,,,,,,,
,,,,,,62a45f8a7916c399ac131a3b,62c539fc303bf8e23fd01cc2,2022-07-06_08h30.29.625,Colour_Asymmetry_Pilot,2022.1.3,Linux x86_64,60.0240096,62c50e9c1127f2cd403a315f,0,33,33,123,1,twofour,,,,,,,,,,,,,,,,,,,,,,,,,,,,,,,,,,,,,,,,,,,,,,,,,,,,,,,,,,,,,,,,,,,,,,,,,,,,,,,,,,,,,,,,,,,,,,,,,,,,,,,,,,,,,,,,,,,,,,,,,,,,,,,,,,,,,,,,,,,,,,,,,,,,,,,,,,,,,
,,,,,,62a45f8a7916c399ac131a3b,62c539fc303bf8e23fd01cc2,2022-07-06_08h30.29.625,Colour_Asymmetry_Pilot,2022.1.3,Linux x86_64,60.0240096,62c50e9c1127f2cd403a315f,0,34,34,84,1,threeone,,,,,,,,,,,,,,,,,,,,,,,,,,,,,,,,,,,,,,,,,,,,,,,,,,,,,,,,,,,,,,,,,,,,,,,,,,,,,,,,,,,,,,,,,,,,,,,,,,,,,,,,,,,,,,,,,,,,,,,,,,,,,,,,,,,,,,,,,,,,,,,,,,,,,,,,,,,,,
,,,,,,62a45f8a7916c399ac131a3b,62c539fc303bf8e23fd01cc2,2022-07-06_08h30.29.625,Colour_Asymmetry_Pilot,2022.1.3,Linux x86_64,60.0240096,62c50e9c1127f2cd403a315f,0,35,35,117,1,threefour,,,,,,,,,,,,,,,,,,,,,,,,,,,,,,,,,,,,,,,,,,,,,,,,,,,,,,,,,,,,,,,,,,,,,,,,,,,,,,,,,,,,,,,,,,,,,,,,,,,,,,,,,,,,,,,,,,,,,,,,,,,,,,,,,,,,,,,,,,,,,,,,,,,,,,,,,,,,,
,,,,,,62a45f8a7916c399ac131a3b,62c539fc303bf8e23fd01cc2,2022-07-06_08h30.29.625,Colour_Asymmetry_Pilot,2022.1.3,Linux x86_64,60.0240096,62c50e9c1127f2cd403a315f,0,36,36,69,1,threefour,,,,,,,,,,,,,,,,,,,,,,,,,,,,,,,,,,,,,,,,,,,,,,,,,,,,,,,,,,,,,,,,,,,,,,,,,,,,,,,,,,,,,,,,,,,,,,,,,,,,,,,,,,,,,,,,,,,,,,,,,,,,,,,,,,,,,,,,,,,,,,,,,,,,,,,,,,,,,
,,,,,,62a45f8a7916c399ac131a3b,62c539fc303bf8e23fd01cc2,2022-07-06_08h30.29.625,Colour_Asymmetry_Pilot,2022.1.3,Linux x86_64,60.0240096,62c50e9c1127f2cd403a315f,0,37,37,158,1,fourtwo,,,,,,,,,,,,,,,,,,,,,,,,,,,,,,,,,,,,,,,,,,,,,,,,,,,,,,,,,,,,,,,,,,,,,,,,,,,,,,,,,,,,,,,,,,,,,,,,,,,,,,,,,,,,,,,,,,,,,,,,,,,,,,,,,,,,,,,,,,,,,,,,,,,,,,,,,,,,,
,,,,,,62a45f8a7916c399ac131a3b,62c539fc303bf8e23fd01cc2,2022-07-06_08h30.29.625,Colour_Asymmetry_Pilot,2022.1.3,Linux x86_64,60.0240096,62c50e9c1127f2cd403a315f,0,38,38,70,1,fourtwo,,,,,,,,,,,,,,,,,,,,,,,,,,,,,,,,,,,,,,,,,,,,,,,,,,,,,,,,,,,,,,,,,,,,,,,,,,,,,,,,,,,,,,,,,,,,,,,,,,,,,,,,,,,,,,,,,,,,,,,,,,,,,,,,,,,,,,,,,,,,,,,,,,,,,,,,,,,,,
,,,,,,62a45f8a7916c399ac131a3b,62c539fc303bf8e23fd01cc2,2022-07-06_08h30.29.625,Colour_Asymmetry_Pilot,2022.1.3,Linux x86_64,60.0240096,62c50e9c1127f2cd403a315f,0,39,39,52,1,threeone,,,,,,,,,,,,,,,,,,,,,,,,,,,,,,,,,,,,,,,,,,,,,,,,,,,,,,,,,,,,,,,,,,,,,,,,,,,,,,,,,,,,,,,,,,,,,,,,,,,,,,,,,,,,,,,,,,,,,,,,,,,,,,,,,,,,,,,,,,,,,,,,,,,,,,,,,,,,,
,,,,,,62a45f8a7916c399ac131a3b,62c539fc303bf8e23fd01cc2,2022-07-06_08h30.29.625,Colour_Asymmetry_Pilot,2022.1.3,Linux x86_64,60.0240096,62c50e9c1127f2cd403a315f,0,40,40,104,1,onetwo,,,,,,,,,,,,,,,,,,,,,,,,,,,,,,,,,,,,,,,,,,,,,,,,,,,,,,,,,,,,,,,,,,,,,,,,,,,,,,,,,,,,,,,,,,,,,,,,,,,,,,,,,,,,,,,,,,,,,,,,,,,,,,,,,,,,,,,,,,,,,,,,,,,,,,,,,,,,,
,,,,,,62a45f8a7916c399ac131a3b,62c539fc303bf8e23fd01cc2,2022-07-06_08h30.29.625,Colour_Asymmetry_Pilot,2022.1.3,Linux x86_64,60.0240096,62c50e9c1127f2cd403a315f,0,41,41,137,1,onethree,,,,,,,,,,,,,,,,,,,,,,,,,,,,,,,,,,,,,,,,,,,,,,,,,,,,,,,,,,,,,,,,,,,,,,,,,,,,,,,,,,,,,,,,,,,,,,,,,,,,,,,,,,,,,,,,,,,,,,,,,,,,,,,,,,,,,,,,,,,,,,,,,,,,,,,,,,,,,
,,,,,,62a45f8a7916c399ac131a3b,62c539fc303bf8e23fd01cc2,2022-07-06_08h30.29.625,Colour_Asymmetry_Pilot,2022.1.3,Linux x86_64,60.0240096,62c50e9c1127f2cd403a315f,0,42,42,143,1,fourthree,,,,,,,,,,,,,,,,,,,,,,,,,,,,,,,,,,,,,,,,,,,,,,,,,,,,,,,,,,,,,,,,,,,,,,,,,,,,,,,,,,,,,,,,,,,,,,,,,,,,,,,,,,,,,,,,,,,,,,,,,,,,,,,,,,,,,,,,,,,,,,,,,,,,,,,,,,,,,
,,,,,,62a45f8a7916c399ac131a3b,62c539fc303bf8e23fd01cc2,2022-07-06_08h30.29.625,Colour_Asymmetry_Pilot,2022.1.3,Linux x86_64,60.0240096,62c50e9c1127f2cd403a315f,0,43,43,6,1,fourtwo,,,,,,,,,,,,,,,,,,,,,,,,,,,,,,,,,,,,,,,,,,,,,,,,,,,,,,,,,,,,,,,,,,,,,,,,,,,,,,,,,,,,,,,,,,,,,,,,,,,,,,,,,,,,,,,,,,,,,,,,,,,,,,,,,,,,,,,,,,,,,,,,,,,,,,,,,,,,,
,,,,,,62a45f8a7916c399ac131a3b,62c539fc303bf8e23fd01cc2,2022-07-06_08h30.29.625,Colour_Asymmetry_Pilot,2022.1.3,Linux x86_64,60.0240096,62c50e9c1127f2cd403a315f,0,44,44,78,1,fourtwo,,,,,,,,,,,,,,,,,,,,,,,,,,,,,,,,,,,,,,,,,,,,,,,,,,,,,,,,,,,,,,,,,,,,,,,,,,,,,,,,,,,,,,,,,,,,,,,,,,,,,,,,,,,,,,,,,,,,,,,,,,,,,,,,,,,,,,,,,,,,,,,,,,,,,,,,,,,,,
,,,,,,62a45f8a7916c399ac131a3b,62c539fc303bf8e23fd01cc2,2022-07-06_08h30.29.625,Colour_Asymmetry_Pilot,2022.1.3,Linux x86_64,60.0240096,62c50e9c1127f2cd403a315f,0,45,45,102,1,fourtwo,,,,,,,,,,,,,,,,,,,,,,,,,,,,,,,,,,,,,,,,,,,,,,,,,,,,,,,,,,,,,,,,,,,,,,,,,,,,,,,,,,,,,,,,,,,,,,,,,,,,,,,,,,,,,,,,,,,,,,,,,,,,,,,,,,,,,,,,,,,,,,,,,,,,,,,,,,,,,
,,,,,,62a45f8a7916c399ac131a3b,62c539fc303bf8e23fd01cc2,2022-07-06_08h30.29.625,Colour_Asymmetry_Pilot,2022.1.3,Linux x86_64,60.0240096,62c50e9c1127f2cd403a315f,0,46,46,33,1,onethree,,,,,,,,,,,,,,,,,,,,,,,,,,,,,,,,,,,,,,,,,,,,,,,,,,,,,,,,,,,,,,,,,,,,,,,,,,,,,,,,,,,,,,,,,,,,,,,,,,,,,,,,,,,,,,,,,,,,,,,,,,,,,,,,,,,,,,,,,,,,,,,,,,,,,,,,,,,,,
,,,,,,62a45f8a7916c399ac131a3b,62c539fc303bf8e23fd01cc2,2022-07-06_08h30.29.625,Colour_Asymmetry_Pilot,2022.1.3,Linux x86_64,60.0240096,62c50e9c1127f2cd403a315f,0,47,47,86,1,fourtwo,,,,,,,,,,,,,,,,,,,,,,,,,,,,,,,,,,,,,,,,,,,,,,,,,,,,,,,,,,,,,,,,,,,,,,,,,,,,,,,,,,,,,,,,,,,,,,,,,,,,,,,,,,,,,,,,,,,,,,,,,,,,,,,,,,,,,,,,,,,,,,,,,,,,,,,,,,,,,
,,,,,,62a45f8a7916c399ac131a3b,62c539fc303bf8e23fd01cc2,2022-07-06_08h30.29.625,Colour_Asymmetry_Pilot,2022.1.3,Linux x86_64,60.0240096,62c50e9c1127f2cd403a315f,0,48,48,77,1,threefour,,,,,,,,,,,,,,,,,,,,,,,,,,,,,,,,,,,,,,,,,,,,,,,,,,,,,,,,,,,,,,,,,,,,,,,,,,,,,,,,,,,,,,,,,,,,,,,,,,,,,,,,,,,,,,,,,,,,,,,,,,,,,,,,,,,,,,,,,,,,,,,,,,,,,,,,,,,,,
,,,,,,62a45f8a7916c399ac131a3b,62c539fc303bf8e23fd01cc2,2022-07-06_08h30.29.625,Colour_Asymmetry_Pilot,2022.1.3,Linux x86_64,60.0240096,62c50e9c1127f2cd403a315f,0,49,49,148,1,threeone,,,,,,,,,,,,,,,,,,,,,,,,,,,,,,,,,,,,,,,,,,,,,,,,,,,,,,,,,,,,,,,,,,,,,,,,,,,,,,,,,,,,,,,,,,,,,,,,,,,,,,,,,,,,,,,,,,,,,,,,,,,,,,,,,,,,,,,,,,,,,,,,,,,,,,,,,,,,,
,,,,,,62a45f8a7916c399ac131a3b,62c539fc303bf8e23fd01cc2,2022-07-06_08h30.29.625,Colour_Asymmetry_Pilot,2022.1.3,Linux x86_64,60.0240096,62c50e9c1127f2cd403a315f,0,50,50,155,1,twofour,,,,,,,,,,,,,,,,,,,,,,,,,,,,,,,,,,,,,,,,,,,,,,,,,,,,,,,,,,,,,,,,,,,,,,,,,,,,,,,,,,,,,,,,,,,,,,,,,,,,,,,,,,,,,,,,,,,,,,,,,,,,,,,,,,,,,,,,,,,,,,,,,,,,,,,,,,,,,
,,,,,,62a45f8a7916c399ac131a3b,62c539fc303bf8e23fd01cc2,2022-07-06_08h30.29.625,Colour_Asymmetry_Pilot,2022.1.3,Linux x86_64,60.0240096,62c50e9c1127f2cd403a315f,0,51,51,21,1,threefour,,,,,,,,,,,,,,,,,,,,,,,,,,,,,,,,,,,,,,,,,,,,,,,,,,,,,,,,,,,,,,,,,,,,,,,,,,,,,,,,,,,,,,,,,,,,,,,,,,,,,,,,,,,,,,,,,,,,,,,,,,,,,,,,,,,,,,,,,,,,,,,,,,,,,,,,,,,,,
,,,,,,62a45f8a7916c399ac131a3b,62c539fc303bf8e23fd01cc2,2022-07-06_08h30.29.625,Colour_Asymmetry_Pilot,2022.1.3,Linux x86_64,60.0240096,62c50e9c1127f2cd403a315f,0,52,52,41,1,onethree,,,,,,,,,,,,,,,,,,,,,,,,,,,,,,,,,,,,,,,,,,,,,,,,,,,,,,,,,,,,,,,,,,,,,,,,,,,,,,,,,,,,,,,,,,,,,,,,,,,,,,,,,,,,,,,,,,,,,,,,,,,,,,,,,,,,,,,,,,,,,,,,,,,,,,,,,,,,,
,,,,,,62a45f8a7916c399ac131a3b,62c539fc303bf8e23fd01cc2,2022-07-06_08h30.29.625,Colour_Asymmetry_Pilot,2022.1.3,Linux x86_64,60.0240096,62c50e9c1127f2cd403a315f,0,53,53,146,1,twoone,,,,,,,,,,,,,,,,,,,,,,,,,,,,,,,,,,,,,,,,,,,,,,,,,,,,,,,,,,,,,,,,,,,,,,,,,,,,,,,,,,,,,,,,,,,,,,,,,,,,,,,,,,,,,,,,,,,,,,,,,,,,,,,,,,,,,,,,,,,,,,,,,,,,,,,,,,,,,
,,,,,,62a45f8a7916c399ac131a3b,62c539fc303bf8e23fd01cc2,2022-07-06_08h30.29.625,Colour_Asymmetry_Pilot,2022.1.3,Linux x86_64,60.0240096,62c50e9c1127f2cd403a315f,0,54,54,25,1,onethree,,,,,,,,,,,,,,,,,,,,,,,,,,,,,,,,,,,,,,,,,,,,,,,,,,,,,,,,,,,,,,,,,,,,,,,,,,,,,,,,,,,,,,,,,,,,,,,,,,,,,,,,,,,,,,,,,,,,,,,,,,,,,,,,,,,,,,,,,,,,,,,,,,,,,,,,,,,,,
,,,,,,62a45f8a7916c399ac131a3b,62c539fc303bf8e23fd01cc2,2022-07-06_08h30.29.625,Colour_Asymmetry_Pilot,2022.1.3,Linux x86_64,60.0240096,62c50e9c1127f2cd403a315f,0,55,55,59,1,twofour,,,,,,,,,,,,,,,,,,,,,,,,,,,,,,,,,,,,,,,,,,,,,,,,,,,,,,,,,,,,,,,,,,,,,,,,,,,,,,,,,,,,,,,,,,,,,,,,,,,,,,,,,,,,,,,,,,,,,,,,,,,,,,,,,,,,,,,,,,,,,,,,,,,,,,,,,,,,,
,,,,,,62a45f8a7916c399ac131a3b,62c539fc303bf8e23fd01cc2,2022-07-06_08h30.29.625,Colour_Asymmetry_Pilot,2022.1.3,Linux x86_64,60.0240096,62c50e9c1127f2cd403a315f,0,56,56,42,1,twoone,,,,,,,,,,,,,,,,,,,,,,,,,,,,,,,,,,,,,,,,,,,,,,,,,,,,,,,,,,,,,,,,,,,,,,,,,,,,,,,,,,,,,,,,,,,,,,,,,,,,,,,,,,,,,,,,,,,,,,,,,,,,,,,,,,,,,,,,,,,,,,,,,,,,,,,,,,,,,
,,,,,,62a45f8a7916c399ac131a3b,62c539fc303bf8e23fd01cc2,2022-07-06_08h30.29.625,Colour_Asymmetry_Pilot,2022.1.3,Linux x86_64,60.0240096,62c50e9c1127f2cd403a315f,0,57,57,50,1,twoone,,,,,,,,,,,,,,,,,,,,,,,,,,,,,,,,,,,,,,,,,,,,,,,,,,,,,,,,,,,,,,,,,,,,,,,,,,,,,,,,,,,,,,,,,,,,,,,,,,,,,,,,,,,,,,,,,,,,,,,,,,,,,,,,,,,,,,,,,,,,,,,,,,,,,,,,,,,,,
,,,,,,62a45f8a7916c399ac131a3b,62c539fc303bf8e23fd01cc2,2022-07-06_08h30.29.625,Colour_Asymmetry_Pilot,2022.1.3,Linux x86_64,60.0240096,62c50e9c1127f2cd403a315f,0,58,58,29,1,threefour,,,,,,,,,,,,,,,,,,,,,,,,,,,,,,,,,,,,,,,,,,,,,,,,,,,,,,,,,,,,,,,,,,,,,,,,,,,,,,,,,,,,,,,,,,,,,,,,,,,,,,,,,,,,,,,,,,,,,,,,,,,,,,,,,,,,,,,,,,,,,,,,,,,,,,,,,,,,,
,,,,,,62a45f8a7916c399ac131a3b,62c539fc303bf8e23fd01cc2,2022-07-06_08h30.29.625,Colour_Asymmetry_Pilot,2022.1.3,Linux x86_64,60.0240096,62c50e9c1127f2cd403a315f,0,59,59,93,1,threefour,,,,,,,,,,,,,,,,,,,,,,,,,,,,,,,,,,,,,,,,,,,,,,,,,,,,,,,,,,,,,,,,,,,,,,,,,,,,,,,,,,,,,,,,,,,,,,,,,,,,,,,,,,,,,,,,,,,,,,,,,,,,,,,,,,,,,,,,,,,,,,,,,,,,,,,,,,,,,
,,,,,,62a45f8a7916c399ac131a3b,62c539fc303bf8e23fd01cc2,2022-07-06_08h30.29.625,Colour_Asymmetry_Pilot,2022.1.3,Linux x86_64,60.0240096,62c50e9c1127f2cd403a315f,0,60,60,105,1,onethree,,,,,,,,,,,,,,,,,,,,,,,,,,,,,,,,,,,,,,,,,,,,,,,,,,,,,,,,,,,,,,,,,,,,,,,,,,,,,,,,,,,,,,,,,,,,,,,,,,,,,,,,,,,,,,,,,,,,,,,,,,,,,,,,,,,,,,,,,,,,,,,,,,,,,,,,,,,,,
,,,,,,62a45f8a7916c399ac131a3b,62c539fc303bf8e23fd01cc2,2022-07-06_08h30.29.625,Colour_Asymmetry_Pilot,2022.1.3,Linux x86_64,60.0240096,62c50e9c1127f2cd403a315f,0,61,61,90,1,twoone,,,,,,,,,,,,,,,,,,,,,,,,,,,,,,,,,,,,,,,,,,,,,,,,,,,,,,,,,,,,,,,,,,,,,,,,,,,,,,,,,,,,,,,,,,,,,,,,,,,,,,,,,,,,,,,,,,,,,,,,,,,,,,,,,,,,,,,,,,,,,,,,,,,,,,,,,,,,,
,,,,,,62a45f8a7916c399ac131a3b,62c539fc303bf8e23fd01cc2,2022-07-06_08h30.29.625,Colour_Asymmetry_Pilot,2022.1.3,Linux x86_64,60.0240096,62c50e9c1127f2cd403a315f,0,62,62,60,1,threeone,,,,,,,,,,,,,,,,,,,,,,,,,,,,,,,,,,,,,,,,,,,,,,,,,,,,,,,,,,,,,,,,,,,,,,,,,,,,,,,,,,,,,,,,,,,,,,,,,,,,,,,,,,,,,,,,,,,,,,,,,,,,,,,,,,,,,,,,,,,,,,,,,,,,,,,,,,,,,
,,,,,,62a45f8a7916c399ac131a3b,62c539fc303bf8e23fd01cc2,2022-07-06_08h30.29.625,Colour_Asymmetry_Pilot,2022.1.3,Linux x86_64,60.0240096,62c50e9c1127f2cd403a315f,0,63,63,61,1,threefour,,,,,,,,,,,,,,,,,,,,,,,,,,,,,,,,,,,,,,,,,,,,,,,,,,,,,,,,,,,,,,,,,,,,,,,,,,,,,,,,,,,,,,,,,,,,,,,,,,,,,,,,,,,,,,,,,,,,,,,,,,,,,,,,,,,,,,,,,,,,,,,,,,,,,,,,,,,,,
,,,,,,62a45f8a7916c399ac131a3b,62c539fc303bf8e23fd01cc2,2022-07-06_08h30.29.625,Colour_Asymmetry_Pilot,2022.1.3,Linux x86_64,60.0240096,62c50e9c1127f2cd403a315f,0,64,64,76,1,threeone,,,,,,,,,,,,,,,,,,,,,,,,,,,,,,,,,,,,,,,,,,,,,,,,,,,,,,,,,,,,,,,,,,,,,,,,,,,,,,,,,,,,,,,,,,,,,,,,,,,,,,,,,,,,,,,,,,,,,,,,,,,,,,,,,,,,,,,,,,,,,,,,,,,,,,,,,,,,,
,,,,,,62a45f8a7916c399ac131a3b,62c539fc303bf8e23fd01cc2,2022-07-06_08h30.29.625,Colour_Asymmetry_Pilot,2022.1.3,Linux x86_64,60.0240096,62c50e9c1127f2cd403a315f,0,65,65,101,1,threefour,,,,,,,,,,,,,,,,,,,,,,,,,,,,,,,,,,,,,,,,,,,,,,,,,,,,,,,,,,,,,,,,,,,,,,,,,,,,,,,,,,,,,,,,,,,,,,,,,,,,,,,,,,,,,,,,,,,,,,,,,,,,,,,,,,,,,,,,,,,,,,,,,,,,,,,,,,,,,
,,,,,,62a45f8a7916c399ac131a3b,62c539fc303bf8e23fd01cc2,2022-07-06_08h30.29.625,Colour_Asymmetry_Pilot,2022.1.3,Linux x86_64,60.0240096,62c50e9c1127f2cd403a315f,0,66,66,121,1,onethree,,,,,,,,,,,,,,,,,,,,,,,,,,,,,,,,,,,,,,,,,,,,,,,,,,,,,,,,,,,,,,,,,,,,,,,,,,,,,,,,,,,,,,,,,,,,,,,,,,,,,,,,,,,,,,,,,,,,,,,,,,,,,,,,,,,,,,,,,,,,,,,,,,,,,,,,,,,,,
,,,,,,62a45f8a7916c399ac131a3b,62c539fc303bf8e23fd01cc2,2022-07-06_08h30.29.625,Colour_Asymmetry_Pilot,2022.1.3,Linux x86_64,60.0240096,62c50e9c1127f2cd403a315f,0,67,67,38,1,fourtwo,,,,,,,,,,,,,,,,,,,,,,,,,,,,,,,,,,,,,,,,,,,,,,,,,,,,,,,,,,,,,,,,,,,,,,,,,,,,,,,,,,,,,,,,,,,,,,,,,,,,,,,,,,,,,,,,,,,,,,,,,,,,,,,,,,,,,,,,,,,,,,,,,,,,,,,,,,,,,
,,,,,,62a45f8a7916c399ac131a3b,62c539fc303bf8e23fd01cc2,2022-07-06_08h30.29.625,Colour_Asymmetry_Pilot,2022.1.3,Linux x86_64,60.0240096,62c50e9c1127f2cd403a315f,0,68,68,24,1,onetwo,,,,,,,,,,,,,,,,,,,,,,,,,,,,,,,,,,,,,,,,,,,,,,,,,,,,,,,,,,,,,,,,,,,,,,,,,,,,,,,,,,,,,,,,,,,,,,,,,,,,,,,,,,,,,,,,,,,,,,,,,,,,,,,,,,,,,,,,,,,,,,,,,,,,,,,,,,,,,
,,,,,,62a45f8a7916c399ac131a3b,62c539fc303bf8e23fd01cc2,2022-07-06_08h30.29.625,Colour_Asymmetry_Pilot,2022.1.3,Linux x86_64,60.0240096,62c50e9c1127f2cd403a315f,0,69,69,11,1,twofour,,,,,,,,,,,,,,,,,,,,,,,,,,,,,,,,,,,,,,,,,,,,,,,,,,,,,,,,,,,,,,,,,,,,,,,,,,,,,,,,,,,,,,,,,,,,,,,,,,,,,,,,,,,,,,,,,,,,,,,,,,,,,,,,,,,,,,,,,,,,,,,,,,,,,,,,,,,,,
,,,,,,62a45f8a7916c399ac131a3b,62c539fc303bf8e23fd01cc2,2022-07-06_08h30.29.625,Colour_Asymmetry_Pilot,2022.1.3,Linux x86_64,60.0240096,62c50e9c1127f2cd403a315f,0,70,70,37,1,threefour,,,,,,,,,,,,,,,,,,,,,,,,,,,,,,,,,,,,,,,,,,,,,,,,,,,,,,,,,,,,,,,,,,,,,,,,,,,,,,,,,,,,,,,,,,,,,,,,,,,,,,,,,,,,,,,,,,,,,,,,,,,,,,,,,,,,,,,,,,,,,,,,,,,,,,,,,,,,,
,,,,,,62a45f8a7916c399ac131a3b,62c539fc303bf8e23fd01cc2,2022-07-06_08h30.29.625,Colour_Asymmetry_Pilot,2022.1.3,Linux x86_64,60.0240096,62c50e9c1127f2cd403a315f,0,71,71,124,1,threeone,,,,,,,,,,,,,,,,,,,,,,,,,,,,,,,,,,,,,,,,,,,,,,,,,,,,,,,,,,,,,,,,,,,,,,,,,,,,,,,,,,,,,,,,,,,,,,,,,,,,,,,,,,,,,,,,,,,,,,,,,,,,,,,,,,,,,,,,,,,,,,,,,,,,,,,,,,,,,
,,,,,,62a45f8a7916c399ac131a3b,62c539fc303bf8e23fd01cc2,2022-07-06_08h30.29.625,Colour_Asymmetry_Pilot,2022.1.3,Linux x86_64,60.0240096,62c50e9c1127f2cd403a315f,0,72,72,131,1,twofour,,,,,,,,,,,,,,,,,,,,,,,,,,,,,,,,,,,,,,,,,,,,,,,,,,,,,,,,,,,,,,,,,,,,,,,,,,,,,,,,,,,,,,,,,,,,,,,,,,,,,,,,,,,,,,,,,,,,,,,,,,,,,,,,,,,,,,,,,,,,,,,,,,,,,,,,,,,,,
,,,,,,62a45f8a7916c399ac131a3b,62c539fc303bf8e23fd01cc2,2022-07-06_08h30.29.625,Colour_Asymmetry_Pilot,2022.1.3,Linux x86_64,60.0240096,62c50e9c1127f2cd403a315f,0,73,73,116,1,threeone,,,,,,,,,,,,,,,,,,,,,,,,,,,,,,,,,,,,,,,,,,,,,,,,,,,,,,,,,,,,,,,,,,,,,,,,,,,,,,,,,,,,,,,,,,,,,,,,,,,,,,,,,,,,,,,,,,,,,,,,,,,,,,,,,,,,,,,,,,,,,,,,,,,,,,,,,,,,,
,,,,,,62a45f8a7916c399ac131a3b,62c539fc303bf8e23fd01cc2,2022-07-06_08h30.29.625,Colour_Asymmetry_Pilot,2022.1.3,Linux x86_64,60.0240096,62c50e9c1127f2cd403a315f,0,74,74,160,1,onetwo,,,,,,,,,,,,,,,,,,,,,,,,,,,,,,,,,,,,,,,,,,,,,,,,,,,,,,,,,,,,,,,,,,,,,,,,,,,,,,,,,,,,,,,,,,,,,,,,,,,,,,,,,,,,,,,,,,,,,,,,,,,,,,,,,,,,,,,,,,,,,,,,,,,,,,,,,,,,,
,,,,,,62a45f8a7916c399ac131a3b,62c539fc303bf8e23fd01cc2,2022-07-06_08h30.29.625,Colour_Asymmetry_Pilot,2022.1.3,Linux x86_64,60.0240096,62c50e9c1127f2cd403a315f,0,75,75,36,1,threeone,,,,,,,,,,,,,,,,,,,,,,,,,,,,,,,,,,,,,,,,,,,,,,,,,,,,,,,,,,,,,,,,,,,,,,,,,,,,,,,,,,,,,,,,,,,,,,,,,,,,,,,,,,,,,,,,,,,,,,,,,,,,,,,,,,,,,,,,,,,,,,,,,,,,,,,,,,,,,
,,,,,,62a45f8a7916c399ac131a3b,62c539fc303bf8e23fd01cc2,2022-07-06_08h30.29.625,Colour_Asymmetry_Pilot,2022.1.3,Linux x86_64,60.0240096,62c50e9c1127f2cd403a315f,0,76,76,27,1,twofour,,,,,,,,,,,,,,,,,,,,,,,,,,,,,,,,,,,,,,,,,,,,,,,,,,,,,,,,,,,,,,,,,,,,,,,,,,,,,,,,,,,,,,,,,,,,,,,,,,,,,,,,,,,,,,,,,,,,,,,,,,,,,,,,,,,,,,,,,,,,,,,,,,,,,,,,,,,,,
,,,,,,62a45f8a7916c399ac131a3b,62c539fc303bf8e23fd01cc2,2022-07-06_08h30.29.625,Colour_Asymmetry_Pilot,2022.1.3,Linux x86_64,60.0240096,62c50e9c1127f2cd403a315f,0,77,77,72,1,onetwo,,,,,,,,,,,,,,,,,,,,,,,,,,,,,,,,,,,,,,,,,,,,,,,,,,,,,,,,,,,,,,,,,,,,,,,,,,,,,,,,,,,,,,,,,,,,,,,,,,,,,,,,,,,,,,,,,,,,,,,,,,,,,,,,,,,,,,,,,,,,,,,,,,,,,,,,,,,,,
,,,,,,62a45f8a7916c399ac131a3b,62c539fc303bf8e23fd01cc2,2022-07-06_08h30.29.625,Colour_Asymmetry_Pilot,2022.1.3,Linux x86_64,60.0240096,62c50e9c1127f2cd403a315f,0,78,78,83,1,twofour,,,,,,,,,,,,,,,,,,,,,,,,,,,,,,,,,,,,,,,,,,,,,,,,,,,,,,,,,,,,,,,,,,,,,,,,,,,,,,,,,,,,,,,,,,,,,,,,,,,,,,,,,,,,,,,,,,,,,,,,,,,,,,,,,,,,,,,,,,,,,,,,,,,,,,,,,,,,,
,,,,,,62a45f8a7916c399ac131a3b,62c539fc303bf8e23fd01cc2,2022-07-06_08h30.29.625,Colour_Asymmetry_Pilot,2022.1.3,Linux x86_64,60.0240096,62c50e9c1127f2cd403a315f,0,79,79,43,1,twofour,,,,,,,,,,,,,,,,,,,,,,,,,,,,,,,,,,,,,,,,,,,,,,,,,,,,,,,,,,,,,,,,,,,,,,,,,,,,,,,,,,,,,,,,,,,,,,,,,,,,,,,,,,,,,,,,,,,,,,,,,,,,,,,,,,,,,,,,,,,,,,,,,,,,,,,,,,,,,
,,,,,,62a45f8a7916c399ac131a3b,62c539fc303bf8e23fd01cc2,2022-07-06_08h30.29.625,Colour_Asymmetry_Pilot,2022.1.3,Linux x86_64,60.0240096,62c50e9c1127f2cd403a315f,0,80,80,113,1,onethree,,,,,,,,,,,,,,,,,,,,,,,,,,,,,,,,,,,,,,,,,,,,,,,,,,,,,,,,,,,,,,,,,,,,,,,,,,,,,,,,,,,,,,,,,,,,,,,,,,,,,,,,,,,,,,,,,,,,,,,,,,,,,,,,,,,,,,,,,,,,,,,,,,,,,,,,,,,,,
,,,,,,62a45f8a7916c399ac131a3b,62c539fc303bf8e23fd01cc2,2022-07-06_08h30.29.625,Colour_Asymmetry_Pilot,2022.1.3,Linux x86_64,60.0240096,62c50e9c1127f2cd403a315f,0,81,81,2,1,twoone,,,,,,,,,,,,,,,,,,,,,,,,,,,,,,,,,,,,,,,,,,,,,,,,,,,,,,,,,,,,,,,,,,,,,,,,,,,,,,,,,,,,,,,,,,,,,,,,,,,,,,,,,,,,,,,,,,,,,,,,,,,,,,,,,,,,,,,,,,,,,,,,,,,,,,,,,,,,,
,,,,,,62a45f8a7916c399ac131a3b,62c539fc303bf8e23fd01cc2,2022-07-06_08h30.29.625,Colour_Asymmetry_Pilot,2022.1.3,Linux x86_64,60.0240096,62c50e9c1127f2cd403a315f,0,82,82,98,1,twoone,,,,,,,,,,,,,,,,,,,,,,,,,,,,,,,,,,,,,,,,,,,,,,,,,,,,,,,,,,,,,,,,,,,,,,,,,,,,,,,,,,,,,,,,,,,,,,,,,,,,,,,,,,,,,,,,,,,,,,,,,,,,,,,,,,,,,,,,,,,,,,,,,,,,,,,,,,,,,
,,,,,,62a45f8a7916c399ac131a3b,62c539fc303bf8e23fd01cc2,2022-07-06_08h30.29.625,Colour_Asymmetry_Pilot,2022.1.3,Linux x86_64,60.0240096,62c50e9c1127f2cd403a315f,0,83,83,141,1,threefour,,,,,,,,,,,,,,,,,,,,,,,,,,,,,,,,,,,,,,,,,,,,,,,,,,,,,,,,,,,,,,,,,,,,,,,,,,,,,,,,,,,,,,,,,,,,,,,,,,,,,,,,,,,,,,,,,,,,,,,,,,,,,,,,,,,,,,,,,,,,,,,,,,,,,,,,,,,,,
,,,,,,62a45f8a7916c399ac131a3b,62c539fc303bf8e23fd01cc2,2022-07-06_08h30.29.625,Colour_Asymmetry_Pilot,2022.1.3,Linux x86_64,60.0240096,62c50e9c1127f2cd403a315f,0,84,84,23,1,fourthree,,,,,,,,,,,,,,,,,,,,,,,,,,,,,,,,,,,,,,,,,,,,,,,,,,,,,,,,,,,,,,,,,,,,,,,,,,,,,,,,,,,,,,,,,,,,,,,,,,,,,,,,,,,,,,,,,,,,,,,,,,,,,,,,,,,,,,,,,,,,,,,,,,,,,,,,,,,,,
,,,,,,62a45f8a7916c399ac131a3b,62c539fc303bf8e23fd01cc2,2022-07-06_08h30.29.625,Colour_Asymmetry_Pilot,2022.1.3,Linux x86_64,60.0240096,62c50e9c1127f2cd403a315f,0,85,85,107,1,twofour,,,,,,,,,,,,,,,,,,,,,,,,,,,,,,,,,,,,,,,,,,,,,,,,,,,,,,,,,,,,,,,,,,,,,,,,,,,,,,,,,,,,,,,,,,,,,,,,,,,,,,,,,,,,,,,,,,,,,,,,,,,,,,,,,,,,,,,,,,,,,,,,,,,,,,,,,,,,,
,,,,,,62a45f8a7916c399ac131a3b,62c539fc303bf8e23fd01cc2,2022-07-06_08h30.29.625,Colour_Asymmetry_Pilot,2022.1.3,Linux x86_64,60.0240096,62c50e9c1127f2cd403a315f,0,86,86,10,1,twoone,,,,,,,,,,,,,,,,,,,,,,,,,,,,,,,,,,,,,,,,,,,,,,,,,,,,,,,,,,,,,,,,,,,,,,,,,,,,,,,,,,,,,,,,,,,,,,,,,,,,,,,,,,,,,,,,,,,,,,,,,,,,,,,,,,,,,,,,,,,,,,,,,,,,,,,,,,,,,
,,,,,,62a45f8a7916c399ac131a3b,62c539fc303bf8e23fd01cc2,2022-07-06_08h30.29.625,Colour_Asymmetry_Pilot,2022.1.3,Linux x86_64,60.0240096,62c50e9c1127f2cd403a315f,0,87,87,99,1,twofour,,,,,,,,,,,,,,,,,,,,,,,,,,,,,,,,,,,,,,,,,,,,,,,,,,,,,,,,,,,,,,,,,,,,,,,,,,,,,,,,,,,,,,,,,,,,,,,,,,,,,,,,,,,,,,,,,,,,,,,,,,,,,,,,,,,,,,,,,,,,,,,,,,,,,,,,,,,,,
,,,,,,62a45f8a7916c399ac131a3b,62c539fc303bf8e23fd01cc2,2022-07-06_08h30.29.625,Colour_Asymmetry_Pilot,2022.1.3,Linux x86_64,60.0240096,62c50e9c1127f2cd403a315f,0,88,88,91,1,twofour,,,,,,,,,,,,,,,,,,,,,,,,,,,,,,,,,,,,,,,,,,,,,,,,,,,,,,,,,,,,,,,,,,,,,,,,,,,,,,,,,,,,,,,,,,,,,,,,,,,,,,,,,,,,,,,,,,,,,,,,,,,,,,,,,,,,,,,,,,,,,,,,,,,,,,,,,,,,,
,,,,,,62a45f8a7916c399ac131a3b,62c539fc303bf8e23fd01cc2,2022-07-06_08h30.29.625,Colour_Asymmetry_Pilot,2022.1.3,Linux x86_64,60.0240096,62c50e9c1127f2cd403a315f,0,89,89,111,1,fourthree,,,,,,,,,,,,,,,,,,,,,,,,,,,,,,,,,,,,,,,,,,,,,,,,,,,,,,,,,,,,,,,,,,,,,,,,,,,,,,,,,,,,,,,,,,,,,,,,,,,,,,,,,,,,,,,,,,,,,,,,,,,,,,,,,,,,,,,,,,,,,,,,,,,,,,,,,,,,,
,,,,,,62a45f8a7916c399ac131a3b,62c539fc303bf8e23fd01cc2,2022-07-06_08h30.29.625,Colour_Asymmetry_Pilot,2022.1.3,Linux x86_64,60.0240096,62c50e9c1127f2cd403a315f,0,90,90,108,1,threeone,,,,,,,,,,,,,,,,,,,,,,,,,,,,,,,,,,,,,,,,,,,,,,,,,,,,,,,,,,,,,,,,,,,,,,,,,,,,,,,,,,,,,,,,,,,,,,,,,,,,,,,,,,,,,,,,,,,,,,,,,,,,,,,,,,,,,,,,,,,,,,,,,,,,,,,,,,,,,
,,,,,,62a45f8a7916c399ac131a3b,62c539fc303bf8e23fd01cc2,2022-07-06_08h30.29.625,Colour_Asymmetry_Pilot,2022.1.3,Linux x86_64,60.0240096,62c50e9c1127f2cd403a315f,0,91,91,132,1,threeone,,,,,,,,,,,,,,,,,,,,,,,,,,,,,,,,,,,,,,,,,,,,,,,,,,,,,,,,,,,,,,,,,,,,,,,,,,,,,,,,,,,,,,,,,,,,,,,,,,,,,,,,,,,,,,,,,,,,,,,,,,,,,,,,,,,,,,,,,,,,,,,,,,,,,,,,,,,,,
,,,,,,62a45f8a7916c399ac131a3b,62c539fc303bf8e23fd01cc2,2022-07-06_08h30.29.625,Colour_Asymmetry_Pilot,2022.1.3,Linux x86_64,60.0240096,62c50e9c1127f2cd403a315f,0,92,92,74,1,twoone,,,,,,,,,,,,,,,,,,,,,,,,,,,,,,,,,,,,,,,,,,,,,,,,,,,,,,,,,,,,,,,,,,,,,,,,,,,,,,,,,,,,,,,,,,,,,,,,,,,,,,,,,,,,,,,,,,,,,,,,,,,,,,,,,,,,,,,,,,,,,,,,,,,,,,,,,,,,,
,,,,,,62a45f8a7916c399ac131a3b,62c539fc303bf8e23fd01cc2,2022-07-06_08h30.29.625,Colour_Asymmetry_Pilot,2022.1.3,Linux x86_64,60.0240096,62c50e9c1127f2cd403a315f,0,93,93,49,1,onethree,,,,,,,,,,,,,,,,,,,,,,,,,,,,,,,,,,,,,,,,,,,,,,,,,,,,,,,,,,,,,,,,,,,,,,,,,,,,,,,,,,,,,,,,,,,,,,,,,,,,,,,,,,,,,,,,,,,,,,,,,,,,,,,,,,,,,,,,,,,,,,,,,,,,,,,,,,,,,
,,,,,,62a45f8a7916c399ac131a3b,62c539fc303bf8e23fd01cc2,2022-07-06_08h30.29.625,Colour_Asymmetry_Pilot,2022.1.3,Linux x86_64,60.0240096,62c50e9c1127f2cd403a315f,0,94,94,103,1,fourthree,,,,,,,,,,,,,,,,,,,,,,,,,,,,,,,,,,,,,,,,,,,,,,,,,,,,,,,,,,,,,,,,,,,,,,,,,,,,,,,,,,,,,,,,,,,,,,,,,,,,,,,,,,,,,,,,,,,,,,,,,,,,,,,,,,,,,,,,,,,,,,,,,,,,,,,,,,,,,
,,,,,,62a45f8a7916c399ac131a3b,62c539fc303bf8e23fd01cc2,2022-07-06_08h30.29.625,Colour_Asymmetry_Pilot,2022.1.3,Linux x86_64,60.0240096,62c50e9c1127f2cd403a315f,0,95,95,51,1,twofour,,,,,,,,,,,,,,,,,,,,,,,,,,,,,,,,,,,,,,,,,,,,,,,,,,,,,,,,,,,,,,,,,,,,,,,,,,,,,,,,,,,,,,,,,,,,,,,,,,,,,,,,,,,,,,,,,,,,,,,,,,,,,,,,,,,,,,,,,,,,,,,,,,,,,,,,,,,,,
,,,,,,62a45f8a7916c399ac131a3b,62c539fc303bf8e23fd01cc2,2022-07-06_08h30.29.625,Colour_Asymmetry_Pilot,2022.1.3,Linux x86_64,60.0240096,62c50e9c1127f2cd403a315f,0,96,96,1,1,onethree,,,,,,,,,,,,,,,,,,,,,,,,,,,,,,,,,,,,,,,,,,,,,,,,,,,,,,,,,,,,,,,,,,,,,,,,,,,,,,,,,,,,,,,,,,,,,,,,,,,,,,,,,,,,,,,,,,,,,,,,,,,,,,,,,,,,,,,,,,,,,,,,,,,,,,,,,,,,,
,,,,,,62a45f8a7916c399ac131a3b,62c539fc303bf8e23fd01cc2,2022-07-06_08h30.29.625,Colour_Asymmetry_Pilot,2022.1.3,Linux x86_64,60.0240096,62c50e9c1127f2cd403a315f,0,97,97,135,1,fourthree,,,,,,,,,,,,,,,,,,,,,,,,,,,,,,,,,,,,,,,,,,,,,,,,,,,,,,,,,,,,,,,,,,,,,,,,,,,,,,,,,,,,,,,,,,,,,,,,,,,,,,,,,,,,,,,,,,,,,,,,,,,,,,,,,,,,,,,,,,,,,,,,,,,,,,,,,,,,,
,,,,,,62a45f8a7916c399ac131a3b,62c539fc303bf8e23fd01cc2,2022-07-06_08h30.29.625,Colour_Asymmetry_Pilot,2022.1.3,Linux x86_64,60.0240096,62c50e9c1127f2cd403a315f,0,98,98,118,1,fourtwo,,,,,,,,,,,,,,,,,,,,,,,,,,,,,,,,,,,,,,,,,,,,,,,,,,,,,,,,,,,,,,,,,,,,,,,,,,,,,,,,,,,,,,,,,,,,,,,,,,,,,,,,,,,,,,,,,,,,,,,,,,,,,,,,,,,,,,,,,,,,,,,,,,,,,,,,,,,,,
,,,,,,62a45f8a7916c399ac131a3b,62c539fc303bf8e23fd01cc2,2022-07-06_08h30.29.625,Colour_Asymmetry_Pilot,2022.1.3,Linux x86_64,60.0240096,62c50e9c1127f2cd403a315f,0,99,99,154,1,twoone,,,,,,,,,,,,,,,,,,,,,,,,,,,,,,,,,,,,,,,,,,,,,,,,,,,,,,,,,,,,,,,,,,,,,,,,,,,,,,,,,,,,,,,,,,,,,,,,,,,,,,,,,,,,,,,,,,,,,,,,,,,,,,,,,,,,,,,,,,,,,,,,,,,,,,,,,,,,,
,,,,,,62a45f8a7916c399ac131a3b,62c539fc303bf8e23fd01cc2,2022-07-06_08h30.29.625,Colour_Asymmetry_Pilot,2022.1.3,Linux x86_64,60.0240096,62c50e9c1127f2cd403a315f,0,100,100,89,1,onethree,,,,,,,,,,,,,,,,,,,,,,,,,,,,,,,,,,,,,,,,,,,,,,,,,,,,,,,,,,,,,,,,,,,,,,,,,,,,,,,,,,,,,,,,,,,,,,,,,,,,,,,,,,,,,,,,,,,,,,,,,,,,,,,,,,,,,,,,,,,,,,,,,,,,,,,,,,,,,
,,,,,,62a45f8a7916c399ac131a3b,62c539fc303bf8e23fd01cc2,2022-07-06_08h30.29.625,Colour_Asymmetry_Pilot,2022.1.3,Linux x86_64,60.0240096,62c50e9c1127f2cd403a315f,0,101,101,9,1,onethree,,,,,,,,,,,,,,,,,,,,,,,,,,,,,,,,,,,,,,,,,,,,,,,,,,,,,,,,,,,,,,,,,,,,,,,,,,,,,,,,,,,,,,,,,,,,,,,,,,,,,,,,,,,,,,,,,,,,,,,,,,,,,,,,,,,,,,,,,,,,,,,,,,,,,,,,,,,,,
,,,,,,62a45f8a7916c399ac131a3b,62c539fc303bf8e23fd01cc2,2022-07-06_08h30.29.625,Colour_Asymmetry_Pilot,2022.1.3,Linux x86_64,60.0240096,62c50e9c1127f2cd403a315f,0,102,102,119,1,fourthree,,,,,,,,,,,,,,,,,,,,,,,,,,,,,,,,,,,,,,,,,,,,,,,,,,,,,,,,,,,,,,,,,,,,,,,,,,,,,,,,,,,,,,,,,,,,,,,,,,,,,,,,,,,,,,,,,,,,,,,,,,,,,,,,,,,,,,,,,,,,,,,,,,,,,,,,,,,,,
,,,,,,62a45f8a7916c399ac131a3b,62c539fc303bf8e23fd01cc2,2022-07-06_08h30.29.625,Colour_Asymmetry_Pilot,2022.1.3,Linux x86_64,60.0240096,62c50e9c1127f2cd403a315f,0,103,103,22,1,fourtwo,,,,,,,,,,,,,,,,,,,,,,,,,,,,,,,,,,,,,,,,,,,,,,,,,,,,,,,,,,,,,,,,,,,,,,,,,,,,,,,,,,,,,,,,,,,,,,,,,,,,,,,,,,,,,,,,,,,,,,,,,,,,,,,,,,,,,,,,,,,,,,,,,,,,,,,,,,,,,
,,,,,,62a45f8a7916c399ac131a3b,62c539fc303bf8e23fd01cc2,2022-07-06_08h30.29.625,Colour_Asymmetry_Pilot,2022.1.3,Linux x86_64,60.0240096,62c50e9c1127f2cd403a315f,0,104,104,32,1,onetwo,,,,,,,,,,,,,,,,,,,,,,,,,,,,,,,,,,,,,,,,,,,,,,,,,,,,,,,,,,,,,,,,,,,,,,,,,,,,,,,,,,,,,,,,,,,,,,,,,,,,,,,,,,,,,,,,,,,,,,,,,,,,,,,,,,,,,,,,,,,,,,,,,,,,,,,,,,,,,
,,,,,,62a45f8a7916c399ac131a3b,62c539fc303bf8e23fd01cc2,2022-07-06_08h30.29.625,Colour_Asymmetry_Pilot,2022.1.3,Linux x86_64,60.0240096,62c50e9c1127f2cd403a315f,0,105,105,47,1,fourthree,,,,,,,,,,,,,,,,,,,,,,,,,,,,,,,,,,,,,,,,,,,,,,,,,,,,,,,,,,,,,,,,,,,,,,,,,,,,,,,,,,,,,,,,,,,,,,,,,,,,,,,,,,,,,,,,,,,,,,,,,,,,,,,,,,,,,,,,,,,,,,,,,,,,,,,,,,,,,
,,,,,,62a45f8a7916c399ac131a3b,62c539fc303bf8e23fd01cc2,2022-07-06_08h30.29.625,Colour_Asymmetry_Pilot,2022.1.3,Linux x86_64,60.0240096,62c50e9c1127f2cd403a315f,0,106,106,53,1,threefour,,,,,,,,,,,,,,,,,,,,,,,,,,,,,,,,,,,,,,,,,,,,,,,,,,,,,,,,,,,,,,,,,,,,,,,,,,,,,,,,,,,,,,,,,,,,,,,,,,,,,,,,,,,,,,,,,,,,,,,,,,,,,,,,,,,,,,,,,,,,,,,,,,,,,,,,,,,,,
,,,,,,62a45f8a7916c399ac131a3b,62c539fc303bf8e23fd01cc2,2022-07-06_08h30.29.625,Colour_Asymmetry_Pilot,2022.1.3,Linux x86_64,60.0240096,62c50e9c1127f2cd403a315f,0,107,107,106,1,twoone,,,,,,,,,,,,,,,,,,,,,,,,,,,,,,,,,,,,,,,,,,,,,,,,,,,,,,,,,,,,,,,,,,,,,,,,,,,,,,,,,,,,,,,,,,,,,,,,,,,,,,,,,,,,,,,,,,,,,,,,,,,,,,,,,,,,,,,,,,,,,,,,,,,,,,,,,,,,,
,,,,,,62a45f8a7916c399ac131a3b,62c539fc303bf8e23fd01cc2,2022-07-06_08h30.29.625,Colour_Asymmetry_Pilot,2022.1.3,Linux x86_64,60.0240096,62c50e9c1127f2cd403a315f,0,108,108,136,1,onetwo,,,,,,,,,,,,,,,,,,,,,,,,,,,,,,,,,,,,,,,,,,,,,,,,,,,,,,,,,,,,,,,,,,,,,,,,,,,,,,,,,,,,,,,,,,,,,,,,,,,,,,,,,,,,,,,,,,,,,,,,,,,,,,,,,,,,,,,,,,,,,,,,,,,,,,,,,,,,,
,,,,,,62a45f8a7916c399ac131a3b,62c539fc303bf8e23fd01cc2,2022-07-06_08h30.29.625,Colour_Asymmetry_Pilot,2022.1.3,Linux x86_64,60.0240096,62c50e9c1127f2cd403a315f,0,109,109,144,1,onetwo,,,,,,,,,,,,,,,,,,,,,,,,,,,,,,,,,,,,,,,,,,,,,,,,,,,,,,,,,,,,,,,,,,,,,,,,,,,,,,,,,,,,,,,,,,,,,,,,,,,,,,,,,,,,,,,,,,,,,,,,,,,,,,,,,,,,,,,,,,,,,,,,,,,,,,,,,,,,,
,,,,,,62a45f8a7916c399ac131a3b,62c539fc303bf8e23fd01cc2,2022-07-06_08h30.29.625,Colour_Asymmetry_Pilot,2022.1.3,Linux x86_64,60.0240096,62c50e9c1127f2cd403a315f,0,110,110,133,1,threefour,,,,,,,,,,,,,,,,,,,,,,,,,,,,,,,,,,,,,,,,,,,,,,,,,,,,,,,,,,,,,,,,,,,,,,,,,,,,,,,,,,,,,,,,,,,,,,,,,,,,,,,,,,,,,,,,,,,,,,,,,,,,,,,,,,,,,,,,,,,,,,,,,,,,,,,,,,,,,
,,,,,,62a45f8a7916c399ac131a3b,62c539fc303bf8e23fd01cc2,2022-07-06_08h30.29.625,Colour_Asymmetry_Pilot,2022.1.3,Linux x86_64,60.0240096,62c50e9c1127f2cd403a315f,0,111,111,153,1,onethree,,,,,,,,,,,,,,,,,,,,,,,,,,,,,,,,,,,,,,,,,,,,,,,,,,,,,,,,,,,,,,,,,,,,,,,,,,,,,,,,,,,,,,,,,,,,,,,,,,,,,,,,,,,,,,,,,,,,,,,,,,,,,,,,,,,,,,,,,,,,,,,,,,,,,,,,,,,,,
,,,,,,62a45f8a7916c399ac131a3b,62c539fc303bf8e23fd01cc2,2022-07-06_08h30.29.625,Colour_Asymmetry_Pilot,2022.1.3,Linux x86_64,60.0240096,62c50e9c1127f2cd403a315f,0,112,112,156,1,threeone,,,,,,,,,,,,,,,,,,,,,,,,,,,,,,,,,,,,,,,,,,,,,,,,,,,,,,,,,,,,,,,,,,,,,,,,,,,,,,,,,,,,,,,,,,,,,,,,,,,,,,,,,,,,,,,,,,,,,,,,,,,,,,,,,,,,,,,,,,,,,,,,,,,,,,,,,,,,,
,,,,,,62a45f8a7916c399ac131a3b,62c539fc303bf8e23fd01cc2,2022-07-06_08h30.29.625,Colour_Asymmetry_Pilot,2022.1.3,Linux x86_64,60.0240096,62c50e9c1127f2cd403a315f,0,113,113,56,1,onetwo,,,,,,,,,,,,,,,,,,,,,,,,,,,,,,,,,,,,,,,,,,,,,,,,,,,,,,,,,,,,,,,,,,,,,,,,,,,,,,,,,,,,,,,,,,,,,,,,,,,,,,,,,,,,,,,,,,,,,,,,,,,,,,,,,,,,,,,,,,,,,,,,,,,,,,,,,,,,,
,,,,,,62a45f8a7916c399ac131a3b,62c539fc303bf8e23fd01cc2,2022-07-06_08h30.29.625,Colour_Asymmetry_Pilot,2022.1.3,Linux x86_64,60.0240096,62c50e9c1127f2cd403a315f,0,114,114,147,1,twofour,,,,,,,,,,,,,,,,,,,,,,,,,,,,,,,,,,,,,,,,,,,,,,,,,,,,,,,,,,,,,,,,,,,,,,,,,,,,,,,,,,,,,,,,,,,,,,,,,,,,,,,,,,,,,,,,,,,,,,,,,,,,,,,,,,,,,,,,,,,,,,,,,,,,,,,,,,,,,
,,,,,,62a45f8a7916c399ac131a3b,62c539fc303bf8e23fd01cc2,2022-07-06_08h30.29.625,Colour_Asymmetry_Pilot,2022.1.3,Linux x86_64,60.0240096,62c50e9c1127f2cd403a315f,0,115,115,80,1,onetwo,,,,,,,,,,,,,,,,,,,,,,,,,,,,,,,,,,,,,,,,,,,,,,,,,,,,,,,,,,,,,,,,,,,,,,,,,,,,,,,,,,,,,,,,,,,,,,,,,,,,,,,,,,,,,,,,,,,,,,,,,,,,,,,,,,,,,,,,,,,,,,,,,,,,,,,,,,,,,
,,,,,,62a45f8a7916c399ac131a3b,62c539fc303bf8e23fd01cc2,2022-07-06_08h30.29.625,Colour_Asymmetry_Pilot,2022.1.3,Linux x86_64,60.0240096,62c50e9c1127f2cd403a315f,0,116,116,109,1,threefour,,,,,,,,,,,,,,,,,,,,,,,,,,,,,,,,,,,,,,,,,,,,,,,,,,,,,,,,,,,,,,,,,,,,,,,,,,,,,,,,,,,,,,,,,,,,,,,,,,,,,,,,,,,,,,,,,,,,,,,,,,,,,,,,,,,,,,,,,,,,,,,,,,,,,,,,,,,,,
,,,,,,62a45f8a7916c399ac131a3b,62c539fc303bf8e23fd01cc2,2022-07-06_08h30.29.625,Colour_Asymmetry_Pilot,2022.1.3,Linux x86_64,60.0240096,62c50e9c1127f2cd403a315f,0,117,117,68,1,threeone,,,,,,,,,,,,,,,,,,,,,,,,,,,,,,,,,,,,,,,,,,,,,,,,,,,,,,,,,,,,,,,,,,,,,,,,,,,,,,,,,,,,,,,,,,,,,,,,,,,,,,,,,,,,,,,,,,,,,,,,,,,,,,,,,,,,,,,,,,,,,,,,,,,,,,,,,,,,,
,,,,,,62a45f8a7916c399ac131a3b,62c539fc303bf8e23fd01cc2,2022-07-06_08h30.29.625,Colour_Asymmetry_Pilot,2022.1.3,Linux x86_64,60.0240096,62c50e9c1127f2cd403a315f,0,118,118,159,1,fourthree,,,,,,,,,,,,,,,,,,,,,,,,,,,,,,,,,,,,,,,,,,,,,,,,,,,,,,,,,,,,,,,,,,,,,,,,,,,,,,,,,,,,,,,,,,,,,,,,,,,,,,,,,,,,,,,,,,,,,,,,,,,,,,,,,,,,,,,,,,,,,,,,,,,,,,,,,,,,,
,,,,,,62a45f8a7916c399ac131a3b,62c539fc303bf8e23fd01cc2,2022-07-06_08h30.29.625,Colour_Asymmetry_Pilot,2022.1.3,Linux x86_64,60.0240096,62c50e9c1127f2cd403a315f,0,119,119,5,1,threefour,,,,,,,,,,,,,,,,,,,,,,,,,,,,,,,,,,,,,,,,,,,,,,,,,,,,,,,,,,,,,,,,,,,,,,,,,,,,,,,,,,,,,,,,,,,,,,,,,,,,,,,,,,,,,,,,,,,,,,,,,,,,,,,,,,,,,,,,,,,,,,,,,,,,,,,,,,,,,
,,,,,,62a45f8a7916c399ac131a3b,62c539fc303bf8e23fd01cc2,2022-07-06_08h30.29.625,Colour_Asymmetry_Pilot,2022.1.3,Linux x86_64,60.0240096,62c50e9c1127f2cd403a315f,0,120,120,157,1,threefour,,,,,,,,,,,,,,,,,,,,,,,,,,,,,,,,,,,,,,,,,,,,,,,,,,,,,,,,,,,,,,,,,,,,,,,,,,,,,,,,,,,,,,,,,,,,,,,,,,,,,,,,,,,,,,,,,,,,,,,,,,,,,,,,,,,,,,,,,,,,,,,,,,,,,,,,,,,,,
,,,,,,62a45f8a7916c399ac131a3b,62c539fc303bf8e23fd01cc2,2022-07-06_08h30.29.625,Colour_Asymmetry_Pilot,2022.1.3,Linux x86_64,60.0240096,62c50e9c1127f2cd403a315f,0,121,121,30,1,fourtwo,,,,,,,,,,,,,,,,,,,,,,,,,,,,,,,,,,,,,,,,,,,,,,,,,,,,,,,,,,,,,,,,,,,,,,,,,,,,,,,,,,,,,,,,,,,,,,,,,,,,,,,,,,,,,,,,,,,,,,,,,,,,,,,,,,,,,,,,,,,,,,,,,,,,,,,,,,,,,
,,,,,,62a45f8a7916c399ac131a3b,62c539fc303bf8e23fd01cc2,2022-07-06_08h30.29.625,Colour_Asymmetry_Pilot,2022.1.3,Linux x86_64,60.0240096,62c50e9c1127f2cd403a315f,0,122,122,142,1,fourtwo,,,,,,,,,,,,,,,,,,,,,,,,,,,,,,,,,,,,,,,,,,,,,,,,,,,,,,,,,,,,,,,,,,,,,,,,,,,,,,,,,,,,,,,,,,,,,,,,,,,,,,,,,,,,,,,,,,,,,,,,,,,,,,,,,,,,,,,,,,,,,,,,,,,,,,,,,,,,,
,,,,,,62a45f8a7916c399ac131a3b,62c539fc303bf8e23fd01cc2,2022-07-06_08h30.29.625,Colour_Asymmetry_Pilot,2022.1.3,Linux x86_64,60.0240096,62c50e9c1127f2cd403a315f,0,123,123,145,1,onethree,,,,,,,,,,,,,,,,,,,,,,,,,,,,,,,,,,,,,,,,,,,,,,,,,,,,,,,,,,,,,,,,,,,,,,,,,,,,,,,,,,,,,,,,,,,,,,,,,,,,,,,,,,,,,,,,,,,,,,,,,,,,,,,,,,,,,,,,,,,,,,,,,,,,,,,,,,,,,
,,,,,,62a45f8a7916c399ac131a3b,62c539fc303bf8e23fd01cc2,2022-07-06_08h30.29.625,Colour_Asymmetry_Pilot,2022.1.3,Linux x86_64,60.0240096,62c50e9c1127f2cd403a315f,0,124,124,16,1,onetwo,,,,,,,,,,,,,,,,,,,,,,,,,,,,,,,,,,,,,,,,,,,,,,,,,,,,,,,,,,,,,,,,,,,,,,,,,,,,,,,,,,,,,,,,,,,,,,,,,,,,,,,,,,,,,,,,,,,,,,,,,,,,,,,,,,,,,,,,,,,,,,,,,,,,,,,,,,,,,
,,,,,,62a45f8a7916c399ac131a3b,62c539fc303bf8e23fd01cc2,2022-07-06_08h30.29.625,Colour_Asymmetry_Pilot,2022.1.3,Linux x86_64,60.0240096,62c50e9c1127f2cd403a315f,0,125,125,67,1,twofour,,,,,,,,,,,,,,,,,,,,,,,,,,,,,,,,,,,,,,,,,,,,,,,,,,,,,,,,,,,,,,,,,,,,,,,,,,,,,,,,,,,,,,,,,,,,,,,,,,,,,,,,,,,,,,,,,,,,,,,,,,,,,,,,,,,,,,,,,,,,,,,,,,,,,,,,,,,,,
,,,,,,62a45f8a7916c399ac131a3b,62c539fc303bf8e23fd01cc2,2022-07-06_08h30.29.625,Colour_Asymmetry_Pilot,2022.1.3,Linux x86_64,60.0240096,62c50e9c1127f2cd403a315f,0,126,126,81,1,onethree,,,,,,,,,,,,,,,,,,,,,,,,,,,,,,,,,,,,,,,,,,,,,,,,,,,,,,,,,,,,,,,,,,,,,,,,,,,,,,,,,,,,,,,,,,,,,,,,,,,,,,,,,,,,,,,,,,,,,,,,,,,,,,,,,,,,,,,,,,,,,,,,,,,,,,,,,,,,,
,,,,,,62a45f8a7916c399ac131a3b,62c539fc303bf8e23fd01cc2,2022-07-06_08h30.29.625,Colour_Asymmetry_Pilot,2022.1.3,Linux x86_64,60.0240096,62c50e9c1127f2cd403a315f,0,127,127,39,1,fourthree,,,,,,,,,,,,,,,,,,,,,,,,,,,,,,,,,,,,,,,,,,,,,,,,,,,,,,,,,,,,,,,,,,,,,,,,,,,,,,,,,,,,,,,,,,,,,,,,,,,,,,,,,,,,,,,,,,,,,,,,,,,,,,,,,,,,,,,,,,,,,,,,,,,,,,,,,,,,,
,,,,,,62a45f8a7916c399ac131a3b,62c539fc303bf8e23fd01cc2,2022-07-06_08h30.29.625,Colour_Asymmetry_Pilot,2022.1.3,Linux x86_64,60.0240096,62c50e9c1127f2cd403a315f,0,128,128,65,1,onethree,,,,,,,,,,,,,,,,,,,,,,,,,,,,,,,,,,,,,,,,,,,,,,,,,,,,,,,,,,,,,,,,,,,,,,,,,,,,,,,,,,,,,,,,,,,,,,,,,,,,,,,,,,,,,,,,,,,,,,,,,,,,,,,,,,,,,,,,,,,,,,,,,,,,,,,,,,,,,
,,,,,,62a45f8a7916c399ac131a3b,62c539fc303bf8e23fd01cc2,2022-07-06_08h30.29.625,Colour_Asymmetry_Pilot,2022.1.3,Linux x86_64,60.0240096,62c50e9c1127f2cd403a315f,0,129,129,149,1,threefour,,,,,,,,,,,,,,,,,,,,,,,,,,,,,,,,,,,,,,,,,,,,,,,,,,,,,,,,,,,,,,,,,,,,,,,,,,,,,,,,,,,,,,,,,,,,,,,,,,,,,,,,,,,,,,,,,,,,,,,,,,,,,,,,,,,,,,,,,,,,,,,,,,,,,,,,,,,,,
,,,,,,62a45f8a7916c399ac131a3b,62c539fc303bf8e23fd01cc2,2022-07-06_08h30.29.625,Colour_Asymmetry_Pilot,2022.1.3,Linux x86_64,60.0240096,62c50e9c1127f2cd403a315f,0,130,130,79,1,fourthree,,,,,,,,,,,,,,,,,,,,,,,,,,,,,,,,,,,,,,,,,,,,,,,,,,,,,,,,,,,,,,,,,,,,,,,,,,,,,,,,,,,,,,,,,,,,,,,,,,,,,,,,,,,,,,,,,,,,,,,,,,,,,,,,,,,,,,,,,,,,,,,,,,,,,,,,,,,,,
,,,,,,62a45f8a7916c399ac131a3b,62c539fc303bf8e23fd01cc2,2022-07-06_08h30.29.625,Colour_Asymmetry_Pilot,2022.1.3,Linux x86_64,60.0240096,62c50e9c1127f2cd403a315f,0,131,131,13,1,threefour,,,,,,,,,,,,,,,,,,,,,,,,,,,,,,,,,,,,,,,,,,,,,,,,,,,,,,,,,,,,,,,,,,,,,,,,,,,,,,,,,,,,,,,,,,,,,,,,,,,,,,,,,,,,,,,,,,,,,,,,,,,,,,,,,,,,,,,,,,,,,,,,,,,,,,,,,,,,,
,,,,,,62a45f8a7916c399ac131a3b,62c539fc303bf8e23fd01cc2,2022-07-06_08h30.29.625,Colour_Asymmetry_Pilot,2022.1.3,Linux x86_64,60.0240096,62c50e9c1127f2cd403a315f,0,132,132,0,1,onetwo,,,,,,,,,,,,,,,,,,,,,,,,,,,,,,,,,,,,,,,,,,,,,,,,,,,,,,,,,,,,,,,,,,,,,,,,,,,,,,,,,,,,,,,,,,,,,,,,,,,,,,,,,,,,,,,,,,,,,,,,,,,,,,,,,,,,,,,,,,,,,,,,,,,,,,,,,,,,,
,,,,,,62a45f8a7916c399ac131a3b,62c539fc303bf8e23fd01cc2,2022-07-06_08h30.29.625,Colour_Asymmetry_Pilot,2022.1.3,Linux x86_64,60.0240096,62c50e9c1127f2cd403a315f,0,133,133,129,1,onethree,,,,,,,,,,,,,,,,,,,,,,,,,,,,,,,,,,,,,,,,,,,,,,,,,,,,,,,,,,,,,,,,,,,,,,,,,,,,,,,,,,,,,,,,,,,,,,,,,,,,,,,,,,,,,,,,,,,,,,,,,,,,,,,,,,,,,,,,,,,,,,,,,,,,,,,,,,,,,
,,,,,,62a45f8a7916c399ac131a3b,62c539fc303bf8e23fd01cc2,2022-07-06_08h30.29.625,Colour_Asymmetry_Pilot,2022.1.3,Linux x86_64,60.0240096,62c50e9c1127f2cd403a315f,0,134,134,4,1,threeone,,,,,,,,,,,,,,,,,,,,,,,,,,,,,,,,,,,,,,,,,,,,,,,,,,,,,,,,,,,,,,,,,,,,,,,,,,,,,,,,,,,,,,,,,,,,,,,,,,,,,,,,,,,,,,,,,,,,,,,,,,,,,,,,,,,,,,,,,,,,,,,,,,,,,,,,,,,,,
,,,,,,62a45f8a7916c399ac131a3b,62c539fc303bf8e23fd01cc2,2022-07-06_08h30.29.625,Colour_Asymmetry_Pilot,2022.1.3,Linux x86_64,60.0240096,62c50e9c1127f2cd403a315f,0,135,135,96,1,onetwo,,,,,,,,,,,,,,,,,,,,,,,,,,,,,,,,,,,,,,,,,,,,,,,,,,,,,,,,,,,,,,,,,,,,,,,,,,,,,,,,,,,,,,,,,,,,,,,,,,,,,,,,,,,,,,,,,,,,,,,,,,,,,,,,,,,,,,,,,,,,,,,,,,,,,,,,,,,,,
,,,,,,62a45f8a7916c399ac131a3b,62c539fc303bf8e23fd01cc2,2022-07-06_08h30.29.625,Colour_Asymmetry_Pilot,2022.1.3,Linux x86_64,60.0240096,62c50e9c1127f2cd403a315f,0,136,136,18,1,twoone,,,,,,,,,,,,,,,,,,,,,,,,,,,,,,,,,,,,,,,,,,,,,,,,,,,,,,,,,,,,,,,,,,,,,,,,,,,,,,,,,,,,,,,,,,,,,,,,,,,,,,,,,,,,,,,,,,,,,,,,,,,,,,,,,,,,,,,,,,,,,,,,,,,,,,,,,,,,,
,,,,,,62a45f8a7916c399ac131a3b,62c539fc303bf8e23fd01cc2,2022-07-06_08h30.29.625,Colour_Asymmetry_Pilot,2022.1.3,Linux x86_64,60.0240096,62c50e9c1127f2cd403a315f,0,137,137,58,1,twoone,,,,,,,,,,,,,,,,,,,,,,,,,,,,,,,,,,,,,,,,,,,,,,,,,,,,,,,,,,,,,,,,,,,,,,,,,,,,,,,,,,,,,,,,,,,,,,,,,,,,,,,,,,,,,,,,,,,,,,,,,,,,,,,,,,,,,,,,,,,,,,,,,,,,,,,,,,,,,
,,,,,,62a45f8a7916c399ac131a3b,62c539fc303bf8e23fd01cc2,2022-07-06_08h30.29.625,Colour_Asymmetry_Pilot,2022.1.3,Linux x86_64,60.0240096,62c50e9c1127f2cd403a315f,0,138,138,126,1,fourtwo,,,,,,,,,,,,,,,,,,,,,,,,,,,,,,,,,,,,,,,,,,,,,,,,,,,,,,,,,,,,,,,,,,,,,,,,,,,,,,,,,,,,,,,,,,,,,,,,,,,,,,,,,,,,,,,,,,,,,,,,,,,,,,,,,,,,,,,,,,,,,,,,,,,,,,,,,,,,,
,,,,,,62a45f8a7916c399ac131a3b,62c539fc303bf8e23fd01cc2,2022-07-06_08h30.29.625,Colour_Asymmetry_Pilot,2022.1.3,Linux x86_64,60.0240096,62c50e9c1127f2cd403a315f,0,139,139,152,1,onetwo,,,,,,,,,,,,,,,,,,,,,,,,,,,,,,,,,,,,,,,,,,,,,,,,,,,,,,,,,,,,,,,,,,,,,,,,,,,,,,,,,,,,,,,,,,,,,,,,,,,,,,,,,,,,,,,,,,,,,,,,,,,,,,,,,,,,,,,,,,,,,,,,,,,,,,,,,,,,,
,,,,,,62a45f8a7916c399ac131a3b,62c539fc303bf8e23fd01cc2,2022-07-06_08h30.29.625,Colour_Asymmetry_Pilot,2022.1.3,Linux x86_64,60.0240096,62c50e9c1127f2cd403a315f,0,140,140,130,1,twoone,,,,,,,,,,,,,,,,,,,,,,,,,,,,,,,,,,,,,,,,,,,,,,,,,,,,,,,,,,,,,,,,,,,,,,,,,,,,,,,,,,,,,,,,,,,,,,,,,,,,,,,,,,,,,,,,,,,,,,,,,,,,,,,,,,,,,,,,,,,,,,,,,,,,,,,,,,,,,
,,,,,,62a45f8a7916c399ac131a3b,62c539fc303bf8e23fd01cc2,2022-07-06_08h30.29.625,Colour_Asymmetry_Pilot,2022.1.3,Linux x86_64,60.0240096,62c50e9c1127f2cd403a315f,0,141,141,55,1,fourthree,,,,,,,,,,,,,,,,,,,,,,,,,,,,,,,,,,,,,,,,,,,,,,,,,,,,,,,,,,,,,,,,,,,,,,,,,,,,,,,,,,,,,,,,,,,,,,,,,,,,,,,,,,,,,,,,,,,,,,,,,,,,,,,,,,,,,,,,,,,,,,,,,,,,,,,,,,,,,
,,,,,,62a45f8a7916c399ac131a3b,62c539fc303bf8e23fd01cc2,2022-07-06_08h30.29.625,Colour_Asymmetry_Pilot,2022.1.3,Linux x86_64,60.0240096,62c50e9c1127f2cd403a315f,0,142,142,140,1,threeone,,,,,,,,,,,,,,,,,,,,,,,,,,,,,,,,,,,,,,,,,,,,,,,,,,,,,,,,,,,,,,,,,,,,,,,,,,,,,,,,,,,,,,,,,,,,,,,,,,,,,,,,,,,,,,,,,,,,,,,,,,,,,,,,,,,,,,,,,,,,,,,,,,,,,,,,,,,,,
,,,,,,62a45f8a7916c399ac131a3b,62c539fc303bf8e23fd01cc2,2022-07-06_08h30.29.625,Colour_Asymmetry_Pilot,2022.1.3,Linux x86_64,60.0240096,62c50e9c1127f2cd403a315f,0,143,143,46,1,fourtwo,,,,,,,,,,,,,,,,,,,,,,,,,,,,,,,,,,,,,,,,,,,,,,,,,,,,,,,,,,,,,,,,,,,,,,,,,,,,,,,,,,,,,,,,,,,,,,,,,,,,,,,,,,,,,,,,,,,,,,,,,,,,,,,,,,,,,,,,,,,,,,,,,,,,,,,,,,,,,
,,,,,,62a45f8a7916c399ac131a3b,62c539fc303bf8e23fd01cc2,2022-07-06_08h30.29.625,Colour_Asymmetry_Pilot,2022.1.3,Linux x86_64,60.0240096,62c50e9c1127f2cd403a315f,0,144,144,100,1,threeone,,,,,,,,,,,,,,,,,,,,,,,,,,,,,,,,,,,,,,,,,,,,,,,,,,,,,,,,,,,,,,,,,,,,,,,,,,,,,,,,,,,,,,,,,,,,,,,,,,,,,,,,,,,,,,,,,,,,,,,,,,,,,,,,,,,,,,,,,,,,,,,,,,,,,,,,,,,,,
,,,,,,62a45f8a7916c399ac131a3b,62c539fc303bf8e23fd01cc2,2022-07-06_08h30.29.625,Colour_Asymmetry_Pilot,2022.1.3,Linux x86_64,60.0240096,62c50e9c1127f2cd403a315f,0,145,145,112,1,onetwo,,,,,,,,,,,,,,,,,,,,,,,,,,,,,,,,,,,,,,,,,,,,,,,,,,,,,,,,,,,,,,,,,,,,,,,,,,,,,,,,,,,,,,,,,,,,,,,,,,,,,,,,,,,,,,,,,,,,,,,,,,,,,,,,,,,,,,,,,,,,,,,,,,,,,,,,,,,,,
,,,,,,62a45f8a7916c399ac131a3b,62c539fc303bf8e23fd01cc2,2022-07-06_08h30.29.625,Colour_Asymmetry_Pilot,2022.1.3,Linux x86_64,60.0240096,62c50e9c1127f2cd403a315f,0,146,146,139,1,twofour,,,,,,,,,,,,,,,,,,,,,,,,,,,,,,,,,,,,,,,,,,,,,,,,,,,,,,,,,,,,,,,,,,,,,,,,,,,,,,,,,,,,,,,,,,,,,,,,,,,,,,,,,,,,,,,,,,,,,,,,,,,,,,,,,,,,,,,,,,,,,,,,,,,,,,,,,,,,,
,,,,,,62a45f8a7916c399ac131a3b,62c539fc303bf8e23fd01cc2,2022-07-06_08h30.29.625,Colour_Asymmetry_Pilot,2022.1.3,Linux x86_64,60.0240096,62c50e9c1127f2cd403a315f,0,147,147,88,1,onetwo,,,,,,,,,,,,,,,,,,,,,,,,,,,,,,,,,,,,,,,,,,,,,,,,,,,,,,,,,,,,,,,,,,,,,,,,,,,,,,,,,,,,,,,,,,,,,,,,,,,,,,,,,,,,,,,,,,,,,,,,,,,,,,,,,,,,,,,,,,,,,,,,,,,,,,,,,,,,,
,,,,,,62a45f8a7916c399ac131a3b,62c539fc303bf8e23fd01cc2,2022-07-06_08h30.29.625,Colour_Asymmetry_Pilot,2022.1.3,Linux x86_64,60.0240096,62c50e9c1127f2cd403a315f,0,148,148,12,1,threeone,,,,,,,,,,,,,,,,,,,,,,,,,,,,,,,,,,,,,,,,,,,,,,,,,,,,,,,,,,,,,,,,,,,,,,,,,,,,,,,,,,,,,,,,,,,,,,,,,,,,,,,,,,,,,,,,,,,,,,,,,,,,,,,,,,,,,,,,,,,,,,,,,,,,,,,,,,,,,
,,,,,,62a45f8a7916c399ac131a3b,62c539fc303bf8e23fd01cc2,2022-07-06_08h30.29.625,Colour_Asymmetry_Pilot,2022.1.3,Linux x86_64,60.0240096,62c50e9c1127f2cd403a315f,0,149,149,66,1,twoone,,,,,,,,,,,,,,,,,,,,,,,,,,,,,,,,,,,,,,,,,,,,,,,,,,,,,,,,,,,,,,,,,,,,,,,,,,,,,,,,,,,,,,,,,,,,,,,,,,,,,,,,,,,,,,,,,,,,,,,,,,,,,,,,,,,,,,,,,,,,,,,,,,,,,,,,,,,,,
,,,,,,62a45f8a7916c399ac131a3b,62c539fc303bf8e23fd01cc2,2022-07-06_08h30.29.625,Colour_Asymmetry_Pilot,2022.1.3,Linux x86_64,60.0240096,62c50e9c1127f2cd403a315f,0,150,150,138,1,twoone,,,,,,,,,,,,,,,,,,,,,,,,,,,,,,,,,,,,,,,,,,,,,,,,,,,,,,,,,,,,,,,,,,,,,,,,,,,,,,,,,,,,,,,,,,,,,,,,,,,,,,,,,,,,,,,,,,,,,,,,,,,,,,,,,,,,,,,,,,,,,,,,,,,,,,,,,,,,,
,,,,,,62a45f8a7916c399ac131a3b,62c539fc303bf8e23fd01cc2,2022-07-06_08h30.29.625,Colour_Asymmetry_Pilot,2022.1.3,Linux x86_64,60.0240096,62c50e9c1127f2cd403a315f,0,151,151,87,1,fourthree,,,,,,,,,,,,,,,,,,,,,,,,,,,,,,,,,,,,,,,,,,,,,,,,,,,,,,,,,,,,,,,,,,,,,,,,,,,,,,,,,,,,,,,,,,,,,,,,,,,,,,,,,,,,,,,,,,,,,,,,,,,,,,,,,,,,,,,,,,,,,,,,,,,,,,,,,,,,,
,,,,,,62a45f8a7916c399ac131a3b,62c539fc303bf8e23fd01cc2,2022-07-06_08h30.29.625,Colour_Asymmetry_Pilot,2022.1.3,Linux x86_64,60.0240096,62c50e9c1127f2cd403a315f,0,152,152,28,1,threeone,,,,,,,,,,,,,,,,,,,,,,,,,,,,,,,,,,,,,,,,,,,,,,,,,,,,,,,,,,,,,,,,,,,,,,,,,,,,,,,,,,,,,,,,,,,,,,,,,,,,,,,,,,,,,,,,,,,,,,,,,,,,,,,,,,,,,,,,,,,,,,,,,,,,,,,,,,,,,
,,,,,,62a45f8a7916c399ac131a3b,62c539fc303bf8e23fd01cc2,2022-07-06_08h30.29.625,Colour_Asymmetry_Pilot,2022.1.3,Linux x86_64,60.0240096,62c50e9c1127f2cd403a315f,0,153,153,57,1,onethree,,,,,,,,,,,,,,,,,,,,,,,,,,,,,,,,,,,,,,,,,,,,,,,,,,,,,,,,,,,,,,,,,,,,,,,,,,,,,,,,,,,,,,,,,,,,,,,,,,,,,,,,,,,,,,,,,,,,,,,,,,,,,,,,,,,,,,,,,,,,,,,,,,,,,,,,,,,,,
,,,,,,62a45f8a7916c399ac131a3b,62c539fc303bf8e23fd01cc2,2022-07-06_08h30.29.625,Colour_Asymmetry_Pilot,2022.1.3,Linux x86_64,60.0240096,62c50e9c1127f2cd403a315f,0,154,154,82,1,twoone,,,,,,,,,,,,,,,,,,,,,,,,,,,,,,,,,,,,,,,,,,,,,,,,,,,,,,,,,,,,,,,,,,,,,,,,,,,,,,,,,,,,,,,,,,,,,,,,,,,,,,,,,,,,,,,,,,,,,,,,,,,,,,,,,,,,,,,,,,,,,,,,,,,,,,,,,,,,,
,,,,,,62a45f8a7916c399ac131a3b,62c539fc303bf8e23fd01cc2,2022-07-06_08h30.29.625,Colour_Asymmetry_Pilot,2022.1.3,Linux x86_64,60.0240096,62c50e9c1127f2cd403a315f,0,155,155,71,1,fourthree,,,,,,,,,,,,,,,,,,,,,,,,,,,,,,,,,,,,,,,,,,,,,,,,,,,,,,,,,,,,,,,,,,,,,,,,,,,,,,,,,,,,,,,,,,,,,,,,,,,,,,,,,,,,,,,,,,,,,,,,,,,,,,,,,,,,,,,,,,,,,,,,,,,,,,,,,,,,,
,,,,,,62a45f8a7916c399ac131a3b,62c539fc303bf8e23fd01cc2,2022-07-06_08h30.29.625,Colour_Asymmetry_Pilot,2022.1.3,Linux x86_64,60.0240096,62c50e9c1127f2cd403a315f,0,156,156,150,1,fourtwo,,,,,,,,,,,,,,,,,,,,,,,,,,,,,,,,,,,,,,,,,,,,,,,,,,,,,,,,,,,,,,,,,,,,,,,,,,,,,,,,,,,,,,,,,,,,,,,,,,,,,,,,,,,,,,,,,,,,,,,,,,,,,,,,,,,,,,,,,,,,,,,,,,,,,,,,,,,,,
,,,,,,62a45f8a7916c399ac131a3b,62c539fc303bf8e23fd01cc2,2022-07-06_08h30.29.625,Colour_Asymmetry_Pilot,2022.1.3,Linux x86_64,60.0240096,62c50e9c1127f2cd403a315f,0,157,157,40,1,onetwo,,,,,,,,,,,,,,,,,,,,,,,,,,,,,,,,,,,,,,,,,,,,,,,,,,,,,,,,,,,,,,,,,,,,,,,,,,,,,,,,,,,,,,,,,,,,,,,,,,,,,,,,,,,,,,,,,,,,,,,,,,,,,,,,,,,,,,,,,,,,,,,,,,,,,,,,,,,,,
,,,,,,62a45f8a7916c399ac131a3b,62c539fc303bf8e23fd01cc2,2022-07-06_08h30.29.625,Colour_Asymmetry_Pilot,2022.1.3,Linux x86_64,60.0240096,62c50e9c1127f2cd403a315f,0,158,158,34,1,twoone,,,,,,,,,,,,,,,,,,,,,,,,,,,,,,,,,,,,,,,,,,,,,,,,,,,,,,,,,,,,,,,,,,,,,,,,,,,,,,,,,,,,,,,,,,,,,,,,,,,,,,,,,,,,,,,,,,,,,,,,,,,,,,,,,,,,,,,,,,,,,,,,,,,,,,,,,,,,,
,,,,,,62a45f8a7916c399ac131a3b,62c539fc303bf8e23fd01cc2,2022-07-06_08h30.29.625,Colour_Asymmetry_Pilot,2022.1.3,Linux x86_64,60.0240096,62c50e9c1127f2cd403a315f,0,159,159,14,1,fourtwo,,,,,,,,,,,,,,,,,,,,,,,,,,,,,,,,,,,,,,,,,,,,,,,,,,,,,,,,,,,,,,,,,,,,,,,,,,,,,,,,,,,,,,,,,,,,,,,,,,,,,,,,,,,,,,,,,,,,,,,,,,,,,,,,,,,,,,,,,,,,,,,,,,,,,,,,,,,,,
,,,,,,62a45f8a7916c399ac131a3b,62c539fc303bf8e23fd01cc2,2022-07-06_08h30.29.625,Colour_Asymmetry_Pilot,2022.1.3,Linux x86_64,60.0240096,62c50e9c1127f2cd403a315f,0,160,160,63,1,fourthree,,,,,,,,,,,,,,,,,,,,,,,,,,,,,,,,,,,,,,,,,,,,,,,,,,,,,,,,,,,,,,,,,,,,,,,,,,,,,,,,,,,,,,,,,,,,,,,,,,,,,,,,,,,,,,,,,,,,,,,,,,,,,,,,,,,,,,,,,,,,,,,,,,,,,,,,,,,,,
,,,,,,62a45f8a7916c399ac131a3b,62c539fc303bf8e23fd01cc2,2022-07-06_08h30.29.625,Colour_Asymmetry_Pilot,2022.1.3,Linux x86_64,60.0240096,62c50e9c1127f2cd403a315f,0,161,161,125,1,threefour,,,,,,,,,,,,,,,,,,,,,,,,,,,,,,,,,,,,,,,,,,,,,,,,,,,,,,,,,,,,,,,,,,,,,,,,,,,,,,,,,,,,,,,,,,,,,,,,,,,,,,,,,,,,,,,,,,,,,,,,,,,,,,,,,,,,,,,,,,,,,,,,,,,,,,,,,,,,,
,,,,,,62a45f8a7916c399ac131a3b,62c539fc303bf8e23fd01cc2,2022-07-06_08h30.29.625,Colour_Asymmetry_Pilot,2022.1.3,Linux x86_64,60.0240096,62c50e9c1127f2cd403a315f,,,,,,,space,4.943,space,24.504,space,36.578,space,11.238,space,4.992,space,4.588,"[-0.7412000000000001,-0.08239999999999992,-0.6864]",twofour,"[0.22340000000000004,-0.9296,-0.7884]",-4,16.51,-37.5,85,1,0,0,response7disk_5,4.5,-4,1,0,0,rectangle_8,4.5,-4,1,0,0,1,4.5,-4,1,0,0,0,0,0,0,1,,,,,,,,,,,,,,,,,,,,,,,,,,,,,,,,,,,,,,,,,,,,,,,,,,,,,,,,,,,,,,,,,,,,,,,,,,,,,,,,,,,,,,,,,,,,,,,,,,,,,,,,,,,,,,,,
,,,,,,62a45f8a7916c399ac131a3b,62c539fc303bf8e23fd01cc2,2022-07-06_08h30.29.625,Colour_Asymmetry_Pilot,2022.1.3,Linux x86_64,60.0240096,62c50e9c1127f2cd403a315f,,,,,,,,,,,,,,,,,,,"[0.23120000000000007,-0.7726,-0.34120000000000006]",fourtwo,"[0.34099999999999997,0.5841999999999998,-0.9844]",-4,5.812,-29.5,67,1,0,0,response7disk_5,5.5,2,1,0,0,rectangle_8,5.5,2,1,0,0,1,5.5,2,1,0,0,1,0,1,0,1,,,,,,,,,,,,,,,,,,,,,,,,,,,,,,,,,,,,,,,,,,,,,,,,,,,,,,,,,,,,,,,,,,,,,,,,,,,,,,,,,,,,,,,,,,,,,,,,,,,,,,,,,,,,,,,,
,,,,,,62a45f8a7916c399ac131a3b,62c539fc303bf8e23fd01cc2,2022-07-06_08h30.29.625,Colour_Asymmetry_Pilot,2022.1.3,Linux x86_64,60.0240096,62c50e9c1127f2cd403a315f,,,,,,,,,,,,,,,,,,,"[0.19199999999999995,0.18419999999999992,0.5136000000000001]",fourtwo,"[0.9763999999999999,-0.1137999999999999,-0.6314]",-4,4.655,-25.5,48,1,0,0,response7disk_5,-6.5,9,1,0,0,rectangle_8,-6.5,9,1,0,0,1,-6.5,9,1,0,0,2,0,2,0,1,,,,,,,,,,,,,,,,,,,,,,,,,,,,,,,,,,,,,,,,,,,,,,,,,,,,,,,,,,,,,,,,,,,,,,,,,,,,,,,,,,,,,,,,,,,,,,,,,,,,,,,,,,,,,,,,
,,,,,,62a45f8a7916c399ac131a3b,62c539fc303bf8e23fd01cc2,2022-07-06_08h30.29.625,Colour_Asymmetry_Pilot,2022.1.3,Linux x86_64,60.0240096,62c50e9c1127f2cd403a315f,,,,,,,,,,,,,,,,,,,"[0.9686000000000001,0.3802000000000001,0.19999999999999996]",twoone,"[0.3568,-0.20799999999999996,-0.9844]",-1,11.098,-51.5,-116,1,0,0,response5disk_5,11.5,0,1,0,0,rectangle_8,37.5,-87,1,0,0,1,-0.5,2,1,0,0,3,0,3,0,1,response3disk_7,4,rectangle_4,,,,,,,,,,,,,,,,,,,,,,,,,,,,,,,,,,,,,,,,,,,,,,,,,,,,,,,,,,,,,,,,,,,,,,,,,,,,,,,,,,,,,,,,,,,,,,,,,,,,,,,,,,,,,
,,,,,,62a45f8a7916c399ac131a3b,62c539fc303bf8e23fd01cc2,2022-07-06_08h30.29.625,Colour_Asymmetry_Pilot,2022.1.3,Linux x86_64,60.0240096,62c50e9c1127f2cd403a315f,,,,,,,,,,,,,,,,,,,"[0.9213999999999998,0.6391999999999998,-0.9922]",fourtwo,"[0.2862,0.7802,0.3568]",-4,3.672,-74.5,93,1,0,0,response7disk_5,19.5,5,1,0,0,rectangle_8,54.5,-100,1,0,0,1,-10.5,-2,1,0,0,4,0,4,0,1,response3disk_7,4,rectangle_4,,,,,,,,,,,,,,,,,,,,,,,,,,,,,,,,,,,,,,,,,,,,,,,,,,,,,,,,,,,,,,,,,,,,,,,,,,,,,,,,,,,,,,,,,,,,,,,,,,,,,,,,,,,,,
,,,,,,62a45f8a7916c399ac131a3b,62c539fc303bf8e23fd01cc2,2022-07-06_08h30.29.625,Colour_Asymmetry_Pilot,2022.1.3,Linux x86_64,60.0240096,62c50e9c1127f2cd403a315f,,,,,,,,,,,,,,,,,,,"[0.7018,0.7176,0.6155999999999999]",onethree,"[0.7018,0.7176,0.6155999999999999]",4,4.393,34.5,112,1,0,0,response1disk_5,-12.5,-14,1,0,0,rectangle_8,-12.5,-14,1,0,0,1,-12.5,-14,1,0,0,5,0,5,0,1,,,,,,,,,,,,,,,,,,,,,,,,,,,,,,,,,,,,,,,,,,,,,,,,,,,,,,,,,,,,,,,,,,,,,,,,,,,,,,,,,,,,,,,,,,,,,,,,,,,,,,,,,,,,,,,,
,,,,,,62a45f8a7916c399ac131a3b,62c539fc303bf8e23fd01cc2,2022-07-06_08h30.29.625,Colour_Asymmetry_Pilot,2022.1.3,Linux x86_64,60.0240096,62c50e9c1127f2cd403a315f,,,,,,,,,,,,,,,,,,,"[0.09799999999999986,-0.24719999999999998,0.15280000000000005]",threeone,"[0.9842,0.7409999999999999,-0.6628000000000001]",-4,4.69,-25.5,75,1,0,0,response7disk_5,13.5,-2,1,0,0,rectangle_8,13.5,-2,1,0,0,1,13.5,-2,1,0,0,6,0,6,0,1,,,,,,,,,,,,,,,,,,,,,,,,,,,,,,,,,,,,,,,,,,,,,,,,,,,,,,,,,,,,,,,,,,,,,,,,,,,,,,,,,,,,,,,,,,,,,,,,,,,,,,,,,,,,,,,,
,,,,,,62a45f8a7916c399ac131a3b,62c539fc303bf8e23fd01cc2,2022-07-06_08h30.29.625,Colour_Asymmetry_Pilot,2022.1.3,Linux x86_64,60.0240096,62c50e9c1127f2cd403a315f,,,,,,,,,,,,,,,,,,,,fourtwo,,-2,8.078,,,,,,,,,,,,,,,,,,,,,,,,,,,,,,,,space,4.994,"[-0.9766,-0.34920000000000007,0.2156]","[-0.5688,-0.08239999999999992,-0.1844]",-90.5,-56,1,0,0,response5disk,16.5,0,1,0,0,rectangle,16.5,0,1,0,0,,3,0.005,0,16.5,0,1,0,0,0,0,0,49,1,49,first,,,,,,,,,,,,,,,,,,,,,,,,,,,,,,,,,,,,,,,,,,,,,,,,,,,,,,,,,,,,,,,,,,,,,,,,
,,,,,,62a45f8a7916c399ac131a3b,62c539fc303bf8e23fd01cc2,2022-07-06_08h30.29.625,Colour_Asymmetry_Pilot,2022.1.3,Linux x86_64,60.0240096,62c50e9c1127f2cd403a315f,,,,,,,,,,,,,,,,,,,,twoone,,-4,2.103,,,,,,,,,,,,,,,,,,,,,,,,,,,,,,,,,,"[-0.6235999999999999,-0.6786,-0.08239999999999992]","[0.8274000000000001,-0.5844,-0.9452]",-51.5,82,1,0,0,response7disk,-0.5,1,1,0,0,rectangle,-0.5,1,1,0,0,,1,0.002,0,-0.5,1,1,0,0,0,1,1,28,1,28,first,,,,,,,,,,,,,,,,,,,,,,,,,,,,,,,,,,,,,,,,,,,,,,,,,,,,,,,,,,,,,,,,,,,,,,,,
,,,,,,62a45f8a7916c399ac131a3b,62c539fc303bf8e23fd01cc2,2022-07-06_08h30.29.625,Colour_Asymmetry_Pilot,2022.1.3,Linux x86_64,60.0240096,62c50e9c1127f2cd403a315f,,,,,,,,,,,,,,,,,,,,fourtwo,,-3,3.021,,,,,,,,,,,,,,,,,,,,,,,,,,,,,,,,,,"[-0.8118,-0.8198,-0.5452]","[-0.8982,-0.37259999999999993,0.2784]",-83.5,35,1,0,0,response7disk,22.5,-5,1,0,0,rectangle,64.5,39,1,0,0,3,3,4.587,1,14.5,-7,1,0,0,0,2,2,36,1,36,first,response1disk_3,rectangle,,,,,,,,,,,,,,,,,,,,,,,,,,,,,,,,,,,,,,,,,,,,,,,,,,,,,,,,,,,,,,,,,,,,,,
,,,,,,62a45f8a7916c399ac131a3b,62c539fc303bf8e23fd01cc2,2022-07-06_08h30.29.625,Colour_Asymmetry_Pilot,2022.1.3,Linux x86_64,60.0240096,62c50e9c1127f2cd403a315f,,,,,,,,,,,,,,,,,,,,fourtwo,,-4,3.173,,,,,,,,,,,,,,,,,,,,,,,,,,,,,,,,,,"[-0.07459999999999989,0.12139999999999995,-0.9922]","[0.18419999999999992,-0.4276,-0.404]",-47.5,91,1,0,0,response7disk,6.5,4,1,0,0,rectangle,6.5,4,1,0,0,3,3,0.003,0,6.5,4,1,0,0,0,3,3,74,1,74,first,,,,,,,,,,,,,,,,,,,,,,,,,,,,,,,,,,,,,,,,,,,,,,,,,,,,,,,,,,,,,,,,,,,,,,,,
,,,,,,62a45f8a7916c399ac131a3b,62c539fc303bf8e23fd01cc2,2022-07-06_08h30.29.625,Colour_Asymmetry_Pilot,2022.1.3,Linux x86_64,60.0240096,62c50e9c1127f2cd403a315f,,,,,,,,,,,,,,,,,,,,onetwo,,-4,0.834,,,,,,,,,,,,,,,,,,,,,,,,,,,,,,,,,,"[0.2862,0.7802,0.3568]","[0.23120000000000007,-0.7726,-0.34120000000000006]",-44.5,94,1,0,0,response7disk,-19.5,8,1,0,0,rectangle,-19.5,8,1,0,0,3,2,0.002,0,-19.5,8,1,0,0,0,4,4,66,1,66,first,,,,,,,,,,,,,,,,,,,,,,,,,,,,,,,,,,,,,,,,,,,,,,,,,,,,,,,,,,,,,,,,,,,,,,,,
,,,,,,62a45f8a7916c399ac131a3b,62c539fc303bf8e23fd01cc2,2022-07-06_08h30.29.625,Colour_Asymmetry_Pilot,2022.1.3,Linux x86_64,60.0240096,62c50e9c1127f2cd403a315f,,,,,,,,,,,,,,,,,,,,fourthree,,-4,1.101,,,,,,,,,,,,,,,,,,,,,,,,,,,,,,,,,,"[-0.48240000000000005,0.3175999999999999,0.2156]","[-0.8198,-0.5138,-0.7492000000000001]",-29.5,63,1,0,0,response7disk,21.5,-5,1,0,0,rectangle,21.5,-5,1,0,0,3,1,0.002,0,21.5,-5,1,0,0,0,5,5,83,1,2,second,,,,,,,,,,,,,,,,,,,,,,,,,,,,,,,,,,,,,,,,,,,,,,,,,,,,,,,,,,,,,,,,,,,,,,,,
,,,,,,62a45f8a7916c399ac131a3b,62c539fc303bf8e23fd01cc2,2022-07-06_08h30.29.625,Colour_Asymmetry_Pilot,2022.1.3,Linux x86_64,60.0240096,62c50e9c1127f2cd403a315f,,,,,,,,,,,,,,,,,,,,twofour,,-3,4.24,,,,,,,,,,,,,,,,,,,,,,,,,,,,,,,,,,"[-0.8198,-0.5138,-0.7492000000000001]","[-0.9766,-0.34920000000000007,0.2156]",-61.5,48,1,0,0,response7disk,12.5,-1,1,0,0,rectangle,12.5,-1,1,0,0,3,3,0.004,0,12.5,-1,1,0,0,0,6,6,106,1,25,second,,,,,,,,,,,,,,,,,,,,,,,,,,,,,,,,,,,,,,,,,,,,,,,,,,,,,,,,,,,,,,,,,,,,,,,,
,,,,,,62a45f8a7916c399ac131a3b,62c539fc303bf8e23fd01cc2,2022-07-06_08h30.29.625,Colour_Asymmetry_Pilot,2022.1.3,Linux x86_64,60.0240096,62c50e9c1127f2cd403a315f,,,,,,,,,,,,,,,,,,,,twofour,,-4,0.736,,,,,,,,,,,,,,,,,,,,,,,,,,,,,,,,,,"[-0.48240000000000005,0.3175999999999999,0.2156]","[-0.01980000000000004,-0.5138,-0.38039999999999996]",-34.5,107,1,0,0,response7disk,3.5,-3,1,0,0,rectangle,3.5,-3,1,0,0,3,2,0.002,0,3.5,-3,1,0,0,0,7,7,84,1,3,second,,,,,,,,,,,,,,,,,,,,,,,,,,,,,,,,,,,,,,,,,,,,,,,,,,,,,,,,,,,,,,,,,,,,,,,,
,,,,,,62a45f8a7916c399ac131a3b,62c539fc303bf8e23fd01cc2,2022-07-06_08h30.29.625,Colour_Asymmetry_Pilot,2022.1.3,Linux x86_64,60.0240096,62c50e9c1127f2cd403a315f,,,,,,,,,,,,,,,,,,,,onetwo,,2,9.831,,,,,,,,,,,,,,,,,,,,,,,,,,,,,,,,,,"[-0.0040000000000000036,0.02739999999999987,-0.08239999999999992]","[0.04299999999999993,0.16060000000000008,-0.6628000000000001]",90.5,-67,1,0,0,response3disk,16.5,-14,1,0,0,rectangle,16.5,-14,1,0,0,3,3,0.003,0,16.5,-14,1,0,0,0,8,8,69,1,69,first,,,,,,,,,,,,,,,,,,,,,,,,,,,,,,,,,,,,,,,,,,,,,,,,,,,,,,,,,,,,,,,,,,,,,,,,
,,,,,,62a45f8a7916c399ac131a3b,62c539fc303bf8e23fd01cc2,2022-07-06_08h30.29.625,Colour_Asymmetry_Pilot,2022.1.3,Linux x86_64,60.0240096,62c50e9c1127f2cd403a315f,,,,,,,,,,,,,,,,,,,,fourthree,,-4,1.103,,,,,,,,,,,,,,,,,,,,,,,,,,,,,,,,,,"[-0.24719999999999998,0.5213999999999999,-0.12959999999999994]","[-0.26280000000000003,-0.4746,-0.2158]",-36.5,105,1,0,0,response7disk,-7.5,-7,1,0,0,rectangle,-7.5,-7,1,0,0,3,3,0.002,0,-7.5,-7,1,0,0,0,9,9,138,1,57,second,,,,,,,,,,,,,,,,,,,,,,,,,,,,,,,,,,,,,,,,,,,,,,,,,,,,,,,,,,,,,,,,,,,,,,,,
,,,,,,62a45f8a7916c399ac131a3b,62c539fc303bf8e23fd01cc2,2022-07-06_08h30.29.625,Colour_Asymmetry_Pilot,2022.1.3,Linux x86_64,60.0240096,62c50e9c1127f2cd403a315f,,,,,,,,,,,,,,,,,,,,threeone,,-4,0.9,,,,,,,,,,,,,,,,,,,,,,,,,,,,,,,,,,"[-0.30200000000000005,0.14500000000000002,0.2784]","[-0.01980000000000004,-0.5138,-0.38039999999999996]",-53.5,103,1,0,0,response7disk,19.5,-10,1,0,0,rectangle,111.5,-52,1,0,0,2,2,3.453,1,20.5,7,1,0,0,0,10,10,104,1,23,second,response3disk_3,rectangle,,,,,,,,,,,,,,,,,,,,,,,,,,,,,,,,,,,,,,,,,,,,,,,,,,,,,,,,,,,,,,,,,,,,,,
,,,,,,62a45f8a7916c399ac131a3b,62c539fc303bf8e23fd01cc2,2022-07-06_08h30.29.625,Colour_Asymmetry_Pilot,2022.1.3,Linux x86_64,60.0240096,62c50e9c1127f2cd403a315f,,,,,,,,,,,,,,,,,,,,fourtwo,,-2,4.106,,,,,,,,,,,,,,,,,,,,,,,,,,,,,,,,,,"[-0.5688,-0.08239999999999992,-0.1844]","[0.23920000000000008,0.2704,0.16060000000000008]",-69.5,-57,1,0,0,response5disk,4.5,7,1,0,0,rectangle,4.5,7,1,0,0,2,1,0.003,0,4.5,7,1,0,0,0,11,11,153,1,72,second,,,,,,,,,,,,,,,,,,,,,,,,,,,,,,,,,,,,,,,,,,,,,,,,,,,,,,,,,,,,,,,,,,,,,,,,
,,,,,,62a45f8a7916c399ac131a3b,62c539fc303bf8e23fd01cc2,2022-07-06_08h30.29.625,Colour_Asymmetry_Pilot,2022.1.3,Linux x86_64,60.0240096,62c50e9c1127f2cd403a315f,,,,,,,,,,,,,,,,,,,,twofour,,-4,1.453,,,,,,,,,,,,,,,,,,,,,,,,,,,,,,,,,,"[0.7176,-0.906,-0.6864]","[-0.4276,0.0038000000000000256,-0.3256]",-43.5,87,1,0,0,response7disk,14.5,-12,1,0,0,rectangle,14.5,-12,1,0,0,2,1,0.002,0,14.5,-12,1,0,0,0,12,12,81,1,0,second,,,,,,,,,,,,,,,,,,,,,,,,,,,,,,,,,,,,,,,,,,,,,,,,,,,,,,,,,,,,,,,,,,,,,,,,
,,,,,,62a45f8a7916c399ac131a3b,62c539fc303bf8e23fd01cc2,2022-07-06_08h30.29.625,Colour_Asymmetry_Pilot,2022.1.3,Linux x86_64,60.0240096,62c50e9c1127f2cd403a315f,,,,,,,,,,,,,,,,,,,,twofour,,-4,1.037,,,,,,,,,,,,,,,,,,,,,,,,,,,,,,,,,,"[-0.9296,-0.12959999999999994,-0.043199999999999905]","[0.9372,0.9450000000000001,0.8980000000000001]",-43.5,98,1,0,0,response7disk,12.5,4,1,0,0,rectangle,12.5,4,1,0,0,2,3,0.003,0,12.5,4,1,0,0,0,13,13,141,1,60,second,,,,,,,,,,,,,,,,,,,,,,,,,,,,,,,,,,,,,,,,,,,,,,,,,,,,,,,,,,,,,,,,,,,,,,,,
