trials.thisRepN,trials.thisTrialN,trials.thisN,trials.thisIndex,trials.ran,Colourcodes,participant,session,date,expName,psychopyVersion,OS,frameRate,study_id,trials_4.thisRepN,trials_4.thisTrialN,trials_4.thisN,trials_4.thisIndex,trials_4.ran,StimulusPos,key_resp.keys,key_resp.rt,key_resp_2.keys,key_resp_2.rt,key_resp_15.keys,key_resp_15.rt,key_resp_17.keys,key_resp_17.rt,key_resp_9.keys,key_resp_9.rt,key_resp_10.keys,key_resp_10.rt,Circle1_col,Ecc,Circle2_col,similarity,response_time,mouse_5.x,mouse_5.y,mouse_5.leftButton,mouse_5.midButton,mouse_5.rightButton,mouse_5.clicked_name,mouse_10.x,mouse_10.y,mouse_10.leftButton,mouse_10.midButton,mouse_10.rightButton,mouse_10.clicked_name,mouse_7.x,mouse_7.y,mouse_7.leftButton,mouse_7.midButton,mouse_7.rightButton,catchnumberprac,mouse_6.x,mouse_6.y,mouse_6.leftButton,mouse_6.midButton,mouse_6.rightButton,duringprac.thisRepN,duringprac.thisTrialN,duringprac.thisN,duringprac.thisIndex,duringprac.ran,mouse_7.clicked_name,catchprac,mouse_6.clicked_name,key_resp_22.keys,key_resp_22.rt,Circle1_colour,Circle2_colour,mouse.x,mouse.y,mouse.leftButton,mouse.midButton,mouse.rightButton,mouse.clicked_name,mouse_2.x,mouse_2.y,mouse_2.leftButton,mouse_2.midButton,mouse_2.rightButton,mouse_2.clicked_name,mouse_3.x,mouse_3.y,mouse_3.leftButton,mouse_3.midButton,mouse_3.rightButton,mouse_3.clicked_name,catchresponse,catchnumber,response_time_catch,Catch,mouse_11.x,mouse_11.y,mouse_11.leftButton,mouse_11.midButton,mouse_11.rightButton,mouse_11.clicked_name,trials_2.thisRepN,trials_2.thisTrialN,trials_2.thisN,trials_2.thisIndex,trials_2.ran,Colourpair,Temporder,trials_3.thisRepN,trials_3.thisTrialN,trials_3.thisN,trials_3.thisIndex,trials_3.ran,key_resp_instr_Ishi.keys,key_resp_instr_Ishi.rt,Ishi_trial_keyresp.keys,Ishi_textbox.text,Ishi_mouse.x,Ishi_mouse.y,Ishi_mouse.leftButton,Ishi_mouse.midButton,Ishi_mouse.rightButton,Ishi_mouse.clicked_name,Ishi_loop.thisRepN,Ishi_loop.thisTrialN,Ishi_loop.thisN,Ishi_loop.thisIndex,Ishi_loop.ran,imageaddress,textbox.text,mouse_4.x,mouse_4.y,mouse_4.leftButton,mouse_4.midButton,mouse_4.rightButton,mouse_4.clicked_name,textbox_2.text,mouse_8.x,mouse_8.y,mouse_8.leftButton,mouse_8.midButton,mouse_8.rightButton,mouse_8.clicked_name,textbox_3.text,mouse_9.x,mouse_9.y,mouse_9.leftButton,mouse_9.midButton,mouse_9.rightButton,mouse_9.clicked_name,textbox_4.text,mouse_12.x,mouse_12.y,mouse_12.leftButton,mouse_12.midButton,mouse_12.rightButton,mouse_12.clicked_name,textbox_5.text,mouse_13.x,mouse_13.y,mouse_13.leftButton,mouse_13.midButton,mouse_13.rightButton,mouse_13.clicked_name,textbox_6.text,mouse_14.x,mouse_14.y,mouse_14.leftButton,mouse_14.midButton,mouse_14.rightButton,mouse_14.clicked_name,textbox_7.text,mouse_15.x,mouse_15.y,mouse_15.leftButton,mouse_15.midButton,mouse_15.rightButton,mouse_15.clicked_name
0,0,0,81,1,,5ec7b7f0079cdc22125201eb,62c53a9a3c3942f0dbd9d101,2022-07-06_10h33.22.550,Colour_Asymmetry_Pilot,2022.1.3,Win32,144.7178003,62c50e9c1127f2cd403a315f,,,,,,,,,,,,,,,,,,,,,,,,,,,,,,,,,,,,,,,,,,,,,,,,,,,,,,,,,,,,,,,,,,,,,,,,,,,,,,,,,,,,,,,,,,,,,,,,,,,,,,,,,,,,,,,,,,,,,,,,,,,,,,,,,,,,,,,,,,,,,,,,,,,,,,,,,,,,,,,,,,,
0,1,1,17,1,,5ec7b7f0079cdc22125201eb,62c53a9a3c3942f0dbd9d101,2022-07-06_10h33.22.550,Colour_Asymmetry_Pilot,2022.1.3,Win32,144.7178003,62c50e9c1127f2cd403a315f,,,,,,,,,,,,,,,,,,,,,,,,,,,,,,,,,,,,,,,,,,,,,,,,,,,,,,,,,,,,,,,,,,,,,,,,,,,,,,,,,,,,,,,,,,,,,,,,,,,,,,,,,,,,,,,,,,,,,,,,,,,,,,,,,,,,,,,,,,,,,,,,,,,,,,,,,,,,,,,,,,,
0,2,2,19,1,,5ec7b7f0079cdc22125201eb,62c53a9a3c3942f0dbd9d101,2022-07-06_10h33.22.550,Colour_Asymmetry_Pilot,2022.1.3,Win32,144.7178003,62c50e9c1127f2cd403a315f,,,,,,,,,,,,,,,,,,,,,,,,,,,,,,,,,,,,,,,,,,,,,,,,,,,,,,,,,,,,,,,,,,,,,,,,,,,,,,,,,,,,,,,,,,,,,,,,,,,,,,,,,,,,,,,,,,,,,,,,,,,,,,,,,,,,,,,,,,,,,,,,,,,,,,,,,,,,,,,,,,,
0,3,3,63,1,,5ec7b7f0079cdc22125201eb,62c53a9a3c3942f0dbd9d101,2022-07-06_10h33.22.550,Colour_Asymmetry_Pilot,2022.1.3,Win32,144.7178003,62c50e9c1127f2cd403a315f,,,,,,,,,,,,,,,,,,,,,,,,,,,,,,,,,,,,,,,,,,,,,,,,,,,,,,,,,,,,,,,,,,,,,,,,,,,,,,,,,,,,,,,,,,,,,,,,,,,,,,,,,,,,,,,,,,,,,,,,,,,,,,,,,,,,,,,,,,,,,,,,,,,,,,,,,,,,,,,,,,,
0,4,4,10,1,,5ec7b7f0079cdc22125201eb,62c53a9a3c3942f0dbd9d101,2022-07-06_10h33.22.550,Colour_Asymmetry_Pilot,2022.1.3,Win32,144.7178003,62c50e9c1127f2cd403a315f,,,,,,,,,,,,,,,,,,,,,,,,,,,,,,,,,,,,,,,,,,,,,,,,,,,,,,,,,,,,,,,,,,,,,,,,,,,,,,,,,,,,,,,,,,,,,,,,,,,,,,,,,,,,,,,,,,,,,,,,,,,,,,,,,,,,,,,,,,,,,,,,,,,,,,,,,,,,,,,,,,,
0,5,5,13,1,,5ec7b7f0079cdc22125201eb,62c53a9a3c3942f0dbd9d101,2022-07-06_10h33.22.550,Colour_Asymmetry_Pilot,2022.1.3,Win32,144.7178003,62c50e9c1127f2cd403a315f,,,,,,,,,,,,,,,,,,,,,,,,,,,,,,,,,,,,,,,,,,,,,,,,,,,,,,,,,,,,,,,,,,,,,,,,,,,,,,,,,,,,,,,,,,,,,,,,,,,,,,,,,,,,,,,,,,,,,,,,,,,,,,,,,,,,,,,,,,,,,,,,,,,,,,,,,,,,,,,,,,,
0,6,6,42,1,,5ec7b7f0079cdc22125201eb,62c53a9a3c3942f0dbd9d101,2022-07-06_10h33.22.550,Colour_Asymmetry_Pilot,2022.1.3,Win32,144.7178003,62c50e9c1127f2cd403a315f,,,,,,,,,,,,,,,,,,,,,,,,,,,,,,,,,,,,,,,,,,,,,,,,,,,,,,,,,,,,,,,,,,,,,,,,,,,,,,,,,,,,,,,,,,,,,,,,,,,,,,,,,,,,,,,,,,,,,,,,,,,,,,,,,,,,,,,,,,,,,,,,,,,,,,,,,,,,,,,,,,,
0,7,7,68,1,,5ec7b7f0079cdc22125201eb,62c53a9a3c3942f0dbd9d101,2022-07-06_10h33.22.550,Colour_Asymmetry_Pilot,2022.1.3,Win32,144.7178003,62c50e9c1127f2cd403a315f,,,,,,,,,,,,,,,,,,,,,,,,,,,,,,,,,,,,,,,,,,,,,,,,,,,,,,,,,,,,,,,,,,,,,,,,,,,,,,,,,,,,,,,,,,,,,,,,,,,,,,,,,,,,,,,,,,,,,,,,,,,,,,,,,,,,,,,,,,,,,,,,,,,,,,,,,,,,,,,,,,,
0,8,8,56,1,,5ec7b7f0079cdc22125201eb,62c53a9a3c3942f0dbd9d101,2022-07-06_10h33.22.550,Colour_Asymmetry_Pilot,2022.1.3,Win32,144.7178003,62c50e9c1127f2cd403a315f,,,,,,,,,,,,,,,,,,,,,,,,,,,,,,,,,,,,,,,,,,,,,,,,,,,,,,,,,,,,,,,,,,,,,,,,,,,,,,,,,,,,,,,,,,,,,,,,,,,,,,,,,,,,,,,,,,,,,,,,,,,,,,,,,,,,,,,,,,,,,,,,,,,,,,,,,,,,,,,,,,,
0,9,9,35,1,,5ec7b7f0079cdc22125201eb,62c53a9a3c3942f0dbd9d101,2022-07-06_10h33.22.550,Colour_Asymmetry_Pilot,2022.1.3,Win32,144.7178003,62c50e9c1127f2cd403a315f,,,,,,,,,,,,,,,,,,,,,,,,,,,,,,,,,,,,,,,,,,,,,,,,,,,,,,,,,,,,,,,,,,,,,,,,,,,,,,,,,,,,,,,,,,,,,,,,,,,,,,,,,,,,,,,,,,,,,,,,,,,,,,,,,,,,,,,,,,,,,,,,,,,,,,,,,,,,,,,,,,,
0,10,10,8,1,,5ec7b7f0079cdc22125201eb,62c53a9a3c3942f0dbd9d101,2022-07-06_10h33.22.550,Colour_Asymmetry_Pilot,2022.1.3,Win32,144.7178003,62c50e9c1127f2cd403a315f,,,,,,,,,,,,,,,,,,,,,,,,,,,,,,,,,,,,,,,,,,,,,,,,,,,,,,,,,,,,,,,,,,,,,,,,,,,,,,,,,,,,,,,,,,,,,,,,,,,,,,,,,,,,,,,,,,,,,,,,,,,,,,,,,,,,,,,,,,,,,,,,,,,,,,,,,,,,,,,,,,,
0,11,11,31,1,,5ec7b7f0079cdc22125201eb,62c53a9a3c3942f0dbd9d101,2022-07-06_10h33.22.550,Colour_Asymmetry_Pilot,2022.1.3,Win32,144.7178003,62c50e9c1127f2cd403a315f,,,,,,,,,,,,,,,,,,,,,,,,,,,,,,,,,,,,,,,,,,,,,,,,,,,,,,,,,,,,,,,,,,,,,,,,,,,,,,,,,,,,,,,,,,,,,,,,,,,,,,,,,,,,,,,,,,,,,,,,,,,,,,,,,,,,,,,,,,,,,,,,,,,,,,,,,,,,,,,,,,,
0,12,12,27,1,,5ec7b7f0079cdc22125201eb,62c53a9a3c3942f0dbd9d101,2022-07-06_10h33.22.550,Colour_Asymmetry_Pilot,2022.1.3,Win32,144.7178003,62c50e9c1127f2cd403a315f,,,,,,,,,,,,,,,,,,,,,,,,,,,,,,,,,,,,,,,,,,,,,,,,,,,,,,,,,,,,,,,,,,,,,,,,,,,,,,,,,,,,,,,,,,,,,,,,,,,,,,,,,,,,,,,,,,,,,,,,,,,,,,,,,,,,,,,,,,,,,,,,,,,,,,,,,,,,,,,,,,,
0,13,13,79,1,,5ec7b7f0079cdc22125201eb,62c53a9a3c3942f0dbd9d101,2022-07-06_10h33.22.550,Colour_Asymmetry_Pilot,2022.1.3,Win32,144.7178003,62c50e9c1127f2cd403a315f,,,,,,,,,,,,,,,,,,,,,,,,,,,,,,,,,,,,,,,,,,,,,,,,,,,,,,,,,,,,,,,,,,,,,,,,,,,,,,,,,,,,,,,,,,,,,,,,,,,,,,,,,,,,,,,,,,,,,,,,,,,,,,,,,,,,,,,,,,,,,,,,,,,,,,,,,,,,,,,,,,,
0,14,14,74,1,,5ec7b7f0079cdc22125201eb,62c53a9a3c3942f0dbd9d101,2022-07-06_10h33.22.550,Colour_Asymmetry_Pilot,2022.1.3,Win32,144.7178003,62c50e9c1127f2cd403a315f,,,,,,,,,,,,,,,,,,,,,,,,,,,,,,,,,,,,,,,,,,,,,,,,,,,,,,,,,,,,,,,,,,,,,,,,,,,,,,,,,,,,,,,,,,,,,,,,,,,,,,,,,,,,,,,,,,,,,,,,,,,,,,,,,,,,,,,,,,,,,,,,,,,,,,,,,,,,,,,,,,,
0,15,15,30,1,,5ec7b7f0079cdc22125201eb,62c53a9a3c3942f0dbd9d101,2022-07-06_10h33.22.550,Colour_Asymmetry_Pilot,2022.1.3,Win32,144.7178003,62c50e9c1127f2cd403a315f,,,,,,,,,,,,,,,,,,,,,,,,,,,,,,,,,,,,,,,,,,,,,,,,,,,,,,,,,,,,,,,,,,,,,,,,,,,,,,,,,,,,,,,,,,,,,,,,,,,,,,,,,,,,,,,,,,,,,,,,,,,,,,,,,,,,,,,,,,,,,,,,,,,,,,,,,,,,,,,,,,,
0,16,16,9,1,,5ec7b7f0079cdc22125201eb,62c53a9a3c3942f0dbd9d101,2022-07-06_10h33.22.550,Colour_Asymmetry_Pilot,2022.1.3,Win32,144.7178003,62c50e9c1127f2cd403a315f,,,,,,,,,,,,,,,,,,,,,,,,,,,,,,,,,,,,,,,,,,,,,,,,,,,,,,,,,,,,,,,,,,,,,,,,,,,,,,,,,,,,,,,,,,,,,,,,,,,,,,,,,,,,,,,,,,,,,,,,,,,,,,,,,,,,,,,,,,,,,,,,,,,,,,,,,,,,,,,,,,,
0,17,17,72,1,,5ec7b7f0079cdc22125201eb,62c53a9a3c3942f0dbd9d101,2022-07-06_10h33.22.550,Colour_Asymmetry_Pilot,2022.1.3,Win32,144.7178003,62c50e9c1127f2cd403a315f,,,,,,,,,,,,,,,,,,,,,,,,,,,,,,,,,,,,,,,,,,,,,,,,,,,,,,,,,,,,,,,,,,,,,,,,,,,,,,,,,,,,,,,,,,,,,,,,,,,,,,,,,,,,,,,,,,,,,,,,,,,,,,,,,,,,,,,,,,,,,,,,,,,,,,,,,,,,,,,,,,,
0,18,18,24,1,,5ec7b7f0079cdc22125201eb,62c53a9a3c3942f0dbd9d101,2022-07-06_10h33.22.550,Colour_Asymmetry_Pilot,2022.1.3,Win32,144.7178003,62c50e9c1127f2cd403a315f,,,,,,,,,,,,,,,,,,,,,,,,,,,,,,,,,,,,,,,,,,,,,,,,,,,,,,,,,,,,,,,,,,,,,,,,,,,,,,,,,,,,,,,,,,,,,,,,,,,,,,,,,,,,,,,,,,,,,,,,,,,,,,,,,,,,,,,,,,,,,,,,,,,,,,,,,,,,,,,,,,,
0,19,19,69,1,,5ec7b7f0079cdc22125201eb,62c53a9a3c3942f0dbd9d101,2022-07-06_10h33.22.550,Colour_Asymmetry_Pilot,2022.1.3,Win32,144.7178003,62c50e9c1127f2cd403a315f,,,,,,,,,,,,,,,,,,,,,,,,,,,,,,,,,,,,,,,,,,,,,,,,,,,,,,,,,,,,,,,,,,,,,,,,,,,,,,,,,,,,,,,,,,,,,,,,,,,,,,,,,,,,,,,,,,,,,,,,,,,,,,,,,,,,,,,,,,,,,,,,,,,,,,,,,,,,,,,,,,,
0,20,20,57,1,,5ec7b7f0079cdc22125201eb,62c53a9a3c3942f0dbd9d101,2022-07-06_10h33.22.550,Colour_Asymmetry_Pilot,2022.1.3,Win32,144.7178003,62c50e9c1127f2cd403a315f,,,,,,,,,,,,,,,,,,,,,,,,,,,,,,,,,,,,,,,,,,,,,,,,,,,,,,,,,,,,,,,,,,,,,,,,,,,,,,,,,,,,,,,,,,,,,,,,,,,,,,,,,,,,,,,,,,,,,,,,,,,,,,,,,,,,,,,,,,,,,,,,,,,,,,,,,,,,,,,,,,,
0,21,21,33,1,,5ec7b7f0079cdc22125201eb,62c53a9a3c3942f0dbd9d101,2022-07-06_10h33.22.550,Colour_Asymmetry_Pilot,2022.1.3,Win32,144.7178003,62c50e9c1127f2cd403a315f,,,,,,,,,,,,,,,,,,,,,,,,,,,,,,,,,,,,,,,,,,,,,,,,,,,,,,,,,,,,,,,,,,,,,,,,,,,,,,,,,,,,,,,,,,,,,,,,,,,,,,,,,,,,,,,,,,,,,,,,,,,,,,,,,,,,,,,,,,,,,,,,,,,,,,,,,,,,,,,,,,,
0,22,22,15,1,,5ec7b7f0079cdc22125201eb,62c53a9a3c3942f0dbd9d101,2022-07-06_10h33.22.550,Colour_Asymmetry_Pilot,2022.1.3,Win32,144.7178003,62c50e9c1127f2cd403a315f,,,,,,,,,,,,,,,,,,,,,,,,,,,,,,,,,,,,,,,,,,,,,,,,,,,,,,,,,,,,,,,,,,,,,,,,,,,,,,,,,,,,,,,,,,,,,,,,,,,,,,,,,,,,,,,,,,,,,,,,,,,,,,,,,,,,,,,,,,,,,,,,,,,,,,,,,,,,,,,,,,,
0,23,23,89,1,,5ec7b7f0079cdc22125201eb,62c53a9a3c3942f0dbd9d101,2022-07-06_10h33.22.550,Colour_Asymmetry_Pilot,2022.1.3,Win32,144.7178003,62c50e9c1127f2cd403a315f,,,,,,,,,,,,,,,,,,,,,,,,,,,,,,,,,,,,,,,,,,,,,,,,,,,,,,,,,,,,,,,,,,,,,,,,,,,,,,,,,,,,,,,,,,,,,,,,,,,,,,,,,,,,,,,,,,,,,,,,,,,,,,,,,,,,,,,,,,,,,,,,,,,,,,,,,,,,,,,,,,,
0,24,24,66,1,,5ec7b7f0079cdc22125201eb,62c53a9a3c3942f0dbd9d101,2022-07-06_10h33.22.550,Colour_Asymmetry_Pilot,2022.1.3,Win32,144.7178003,62c50e9c1127f2cd403a315f,,,,,,,,,,,,,,,,,,,,,,,,,,,,,,,,,,,,,,,,,,,,,,,,,,,,,,,,,,,,,,,,,,,,,,,,,,,,,,,,,,,,,,,,,,,,,,,,,,,,,,,,,,,,,,,,,,,,,,,,,,,,,,,,,,,,,,,,,,,,,,,,,,,,,,,,,,,,,,,,,,,
0,25,25,84,1,,5ec7b7f0079cdc22125201eb,62c53a9a3c3942f0dbd9d101,2022-07-06_10h33.22.550,Colour_Asymmetry_Pilot,2022.1.3,Win32,144.7178003,62c50e9c1127f2cd403a315f,,,,,,,,,,,,,,,,,,,,,,,,,,,,,,,,,,,,,,,,,,,,,,,,,,,,,,,,,,,,,,,,,,,,,,,,,,,,,,,,,,,,,,,,,,,,,,,,,,,,,,,,,,,,,,,,,,,,,,,,,,,,,,,,,,,,,,,,,,,,,,,,,,,,,,,,,,,,,,,,,,,
0,26,26,3,1,,5ec7b7f0079cdc22125201eb,62c53a9a3c3942f0dbd9d101,2022-07-06_10h33.22.550,Colour_Asymmetry_Pilot,2022.1.3,Win32,144.7178003,62c50e9c1127f2cd403a315f,,,,,,,,,,,,,,,,,,,,,,,,,,,,,,,,,,,,,,,,,,,,,,,,,,,,,,,,,,,,,,,,,,,,,,,,,,,,,,,,,,,,,,,,,,,,,,,,,,,,,,,,,,,,,,,,,,,,,,,,,,,,,,,,,,,,,,,,,,,,,,,,,,,,,,,,,,,,,,,,,,,
0,27,27,83,1,,5ec7b7f0079cdc22125201eb,62c53a9a3c3942f0dbd9d101,2022-07-06_10h33.22.550,Colour_Asymmetry_Pilot,2022.1.3,Win32,144.7178003,62c50e9c1127f2cd403a315f,,,,,,,,,,,,,,,,,,,,,,,,,,,,,,,,,,,,,,,,,,,,,,,,,,,,,,,,,,,,,,,,,,,,,,,,,,,,,,,,,,,,,,,,,,,,,,,,,,,,,,,,,,,,,,,,,,,,,,,,,,,,,,,,,,,,,,,,,,,,,,,,,,,,,,,,,,,,,,,,,,,
0,28,28,51,1,,5ec7b7f0079cdc22125201eb,62c53a9a3c3942f0dbd9d101,2022-07-06_10h33.22.550,Colour_Asymmetry_Pilot,2022.1.3,Win32,144.7178003,62c50e9c1127f2cd403a315f,,,,,,,,,,,,,,,,,,,,,,,,,,,,,,,,,,,,,,,,,,,,,,,,,,,,,,,,,,,,,,,,,,,,,,,,,,,,,,,,,,,,,,,,,,,,,,,,,,,,,,,,,,,,,,,,,,,,,,,,,,,,,,,,,,,,,,,,,,,,,,,,,,,,,,,,,,,,,,,,,,,
0,29,29,32,1,,5ec7b7f0079cdc22125201eb,62c53a9a3c3942f0dbd9d101,2022-07-06_10h33.22.550,Colour_Asymmetry_Pilot,2022.1.3,Win32,144.7178003,62c50e9c1127f2cd403a315f,,,,,,,,,,,,,,,,,,,,,,,,,,,,,,,,,,,,,,,,,,,,,,,,,,,,,,,,,,,,,,,,,,,,,,,,,,,,,,,,,,,,,,,,,,,,,,,,,,,,,,,,,,,,,,,,,,,,,,,,,,,,,,,,,,,,,,,,,,,,,,,,,,,,,,,,,,,,,,,,,,,
0,30,30,34,1,,5ec7b7f0079cdc22125201eb,62c53a9a3c3942f0dbd9d101,2022-07-06_10h33.22.550,Colour_Asymmetry_Pilot,2022.1.3,Win32,144.7178003,62c50e9c1127f2cd403a315f,,,,,,,,,,,,,,,,,,,,,,,,,,,,,,,,,,,,,,,,,,,,,,,,,,,,,,,,,,,,,,,,,,,,,,,,,,,,,,,,,,,,,,,,,,,,,,,,,,,,,,,,,,,,,,,,,,,,,,,,,,,,,,,,,,,,,,,,,,,,,,,,,,,,,,,,,,,,,,,,,,,
0,31,31,16,1,,5ec7b7f0079cdc22125201eb,62c53a9a3c3942f0dbd9d101,2022-07-06_10h33.22.550,Colour_Asymmetry_Pilot,2022.1.3,Win32,144.7178003,62c50e9c1127f2cd403a315f,,,,,,,,,,,,,,,,,,,,,,,,,,,,,,,,,,,,,,,,,,,,,,,,,,,,,,,,,,,,,,,,,,,,,,,,,,,,,,,,,,,,,,,,,,,,,,,,,,,,,,,,,,,,,,,,,,,,,,,,,,,,,,,,,,,,,,,,,,,,,,,,,,,,,,,,,,,,,,,,,,,
0,32,32,78,1,,5ec7b7f0079cdc22125201eb,62c53a9a3c3942f0dbd9d101,2022-07-06_10h33.22.550,Colour_Asymmetry_Pilot,2022.1.3,Win32,144.7178003,62c50e9c1127f2cd403a315f,,,,,,,,,,,,,,,,,,,,,,,,,,,,,,,,,,,,,,,,,,,,,,,,,,,,,,,,,,,,,,,,,,,,,,,,,,,,,,,,,,,,,,,,,,,,,,,,,,,,,,,,,,,,,,,,,,,,,,,,,,,,,,,,,,,,,,,,,,,,,,,,,,,,,,,,,,,,,,,,,,,
0,33,33,25,1,,5ec7b7f0079cdc22125201eb,62c53a9a3c3942f0dbd9d101,2022-07-06_10h33.22.550,Colour_Asymmetry_Pilot,2022.1.3,Win32,144.7178003,62c50e9c1127f2cd403a315f,,,,,,,,,,,,,,,,,,,,,,,,,,,,,,,,,,,,,,,,,,,,,,,,,,,,,,,,,,,,,,,,,,,,,,,,,,,,,,,,,,,,,,,,,,,,,,,,,,,,,,,,,,,,,,,,,,,,,,,,,,,,,,,,,,,,,,,,,,,,,,,,,,,,,,,,,,,,,,,,,,,
0,34,34,64,1,,5ec7b7f0079cdc22125201eb,62c53a9a3c3942f0dbd9d101,2022-07-06_10h33.22.550,Colour_Asymmetry_Pilot,2022.1.3,Win32,144.7178003,62c50e9c1127f2cd403a315f,,,,,,,,,,,,,,,,,,,,,,,,,,,,,,,,,,,,,,,,,,,,,,,,,,,,,,,,,,,,,,,,,,,,,,,,,,,,,,,,,,,,,,,,,,,,,,,,,,,,,,,,,,,,,,,,,,,,,,,,,,,,,,,,,,,,,,,,,,,,,,,,,,,,,,,,,,,,,,,,,,,
0,35,35,14,1,,5ec7b7f0079cdc22125201eb,62c53a9a3c3942f0dbd9d101,2022-07-06_10h33.22.550,Colour_Asymmetry_Pilot,2022.1.3,Win32,144.7178003,62c50e9c1127f2cd403a315f,,,,,,,,,,,,,,,,,,,,,,,,,,,,,,,,,,,,,,,,,,,,,,,,,,,,,,,,,,,,,,,,,,,,,,,,,,,,,,,,,,,,,,,,,,,,,,,,,,,,,,,,,,,,,,,,,,,,,,,,,,,,,,,,,,,,,,,,,,,,,,,,,,,,,,,,,,,,,,,,,,,
0,36,36,70,1,,5ec7b7f0079cdc22125201eb,62c53a9a3c3942f0dbd9d101,2022-07-06_10h33.22.550,Colour_Asymmetry_Pilot,2022.1.3,Win32,144.7178003,62c50e9c1127f2cd403a315f,,,,,,,,,,,,,,,,,,,,,,,,,,,,,,,,,,,,,,,,,,,,,,,,,,,,,,,,,,,,,,,,,,,,,,,,,,,,,,,,,,,,,,,,,,,,,,,,,,,,,,,,,,,,,,,,,,,,,,,,,,,,,,,,,,,,,,,,,,,,,,,,,,,,,,,,,,,,,,,,,,,
0,37,37,77,1,,5ec7b7f0079cdc22125201eb,62c53a9a3c3942f0dbd9d101,2022-07-06_10h33.22.550,Colour_Asymmetry_Pilot,2022.1.3,Win32,144.7178003,62c50e9c1127f2cd403a315f,,,,,,,,,,,,,,,,,,,,,,,,,,,,,,,,,,,,,,,,,,,,,,,,,,,,,,,,,,,,,,,,,,,,,,,,,,,,,,,,,,,,,,,,,,,,,,,,,,,,,,,,,,,,,,,,,,,,,,,,,,,,,,,,,,,,,,,,,,,,,,,,,,,,,,,,,,,,,,,,,,,
0,38,38,86,1,,5ec7b7f0079cdc22125201eb,62c53a9a3c3942f0dbd9d101,2022-07-06_10h33.22.550,Colour_Asymmetry_Pilot,2022.1.3,Win32,144.7178003,62c50e9c1127f2cd403a315f,,,,,,,,,,,,,,,,,,,,,,,,,,,,,,,,,,,,,,,,,,,,,,,,,,,,,,,,,,,,,,,,,,,,,,,,,,,,,,,,,,,,,,,,,,,,,,,,,,,,,,,,,,,,,,,,,,,,,,,,,,,,,,,,,,,,,,,,,,,,,,,,,,,,,,,,,,,,,,,,,,,
0,39,39,49,1,,5ec7b7f0079cdc22125201eb,62c53a9a3c3942f0dbd9d101,2022-07-06_10h33.22.550,Colour_Asymmetry_Pilot,2022.1.3,Win32,144.7178003,62c50e9c1127f2cd403a315f,,,,,,,,,,,,,,,,,,,,,,,,,,,,,,,,,,,,,,,,,,,,,,,,,,,,,,,,,,,,,,,,,,,,,,,,,,,,,,,,,,,,,,,,,,,,,,,,,,,,,,,,,,,,,,,,,,,,,,,,,,,,,,,,,,,,,,,,,,,,,,,,,,,,,,,,,,,,,,,,,,,
0,40,40,75,1,,5ec7b7f0079cdc22125201eb,62c53a9a3c3942f0dbd9d101,2022-07-06_10h33.22.550,Colour_Asymmetry_Pilot,2022.1.3,Win32,144.7178003,62c50e9c1127f2cd403a315f,,,,,,,,,,,,,,,,,,,,,,,,,,,,,,,,,,,,,,,,,,,,,,,,,,,,,,,,,,,,,,,,,,,,,,,,,,,,,,,,,,,,,,,,,,,,,,,,,,,,,,,,,,,,,,,,,,,,,,,,,,,,,,,,,,,,,,,,,,,,,,,,,,,,,,,,,,,,,,,,,,,
0,41,41,2,1,,5ec7b7f0079cdc22125201eb,62c53a9a3c3942f0dbd9d101,2022-07-06_10h33.22.550,Colour_Asymmetry_Pilot,2022.1.3,Win32,144.7178003,62c50e9c1127f2cd403a315f,,,,,,,,,,,,,,,,,,,,,,,,,,,,,,,,,,,,,,,,,,,,,,,,,,,,,,,,,,,,,,,,,,,,,,,,,,,,,,,,,,,,,,,,,,,,,,,,,,,,,,,,,,,,,,,,,,,,,,,,,,,,,,,,,,,,,,,,,,,,,,,,,,,,,,,,,,,,,,,,,,,
0,42,42,91,1,,5ec7b7f0079cdc22125201eb,62c53a9a3c3942f0dbd9d101,2022-07-06_10h33.22.550,Colour_Asymmetry_Pilot,2022.1.3,Win32,144.7178003,62c50e9c1127f2cd403a315f,,,,,,,,,,,,,,,,,,,,,,,,,,,,,,,,,,,,,,,,,,,,,,,,,,,,,,,,,,,,,,,,,,,,,,,,,,,,,,,,,,,,,,,,,,,,,,,,,,,,,,,,,,,,,,,,,,,,,,,,,,,,,,,,,,,,,,,,,,,,,,,,,,,,,,,,,,,,,,,,,,,
0,43,43,12,1,,5ec7b7f0079cdc22125201eb,62c53a9a3c3942f0dbd9d101,2022-07-06_10h33.22.550,Colour_Asymmetry_Pilot,2022.1.3,Win32,144.7178003,62c50e9c1127f2cd403a315f,,,,,,,,,,,,,,,,,,,,,,,,,,,,,,,,,,,,,,,,,,,,,,,,,,,,,,,,,,,,,,,,,,,,,,,,,,,,,,,,,,,,,,,,,,,,,,,,,,,,,,,,,,,,,,,,,,,,,,,,,,,,,,,,,,,,,,,,,,,,,,,,,,,,,,,,,,,,,,,,,,,
0,44,44,71,1,,5ec7b7f0079cdc22125201eb,62c53a9a3c3942f0dbd9d101,2022-07-06_10h33.22.550,Colour_Asymmetry_Pilot,2022.1.3,Win32,144.7178003,62c50e9c1127f2cd403a315f,,,,,,,,,,,,,,,,,,,,,,,,,,,,,,,,,,,,,,,,,,,,,,,,,,,,,,,,,,,,,,,,,,,,,,,,,,,,,,,,,,,,,,,,,,,,,,,,,,,,,,,,,,,,,,,,,,,,,,,,,,,,,,,,,,,,,,,,,,,,,,,,,,,,,,,,,,,,,,,,,,,
0,45,45,46,1,,5ec7b7f0079cdc22125201eb,62c53a9a3c3942f0dbd9d101,2022-07-06_10h33.22.550,Colour_Asymmetry_Pilot,2022.1.3,Win32,144.7178003,62c50e9c1127f2cd403a315f,,,,,,,,,,,,,,,,,,,,,,,,,,,,,,,,,,,,,,,,,,,,,,,,,,,,,,,,,,,,,,,,,,,,,,,,,,,,,,,,,,,,,,,,,,,,,,,,,,,,,,,,,,,,,,,,,,,,,,,,,,,,,,,,,,,,,,,,,,,,,,,,,,,,,,,,,,,,,,,,,,,
0,46,46,43,1,,5ec7b7f0079cdc22125201eb,62c53a9a3c3942f0dbd9d101,2022-07-06_10h33.22.550,Colour_Asymmetry_Pilot,2022.1.3,Win32,144.7178003,62c50e9c1127f2cd403a315f,,,,,,,,,,,,,,,,,,,,,,,,,,,,,,,,,,,,,,,,,,,,,,,,,,,,,,,,,,,,,,,,,,,,,,,,,,,,,,,,,,,,,,,,,,,,,,,,,,,,,,,,,,,,,,,,,,,,,,,,,,,,,,,,,,,,,,,,,,,,,,,,,,,,,,,,,,,,,,,,,,,
0,47,47,90,1,,5ec7b7f0079cdc22125201eb,62c53a9a3c3942f0dbd9d101,2022-07-06_10h33.22.550,Colour_Asymmetry_Pilot,2022.1.3,Win32,144.7178003,62c50e9c1127f2cd403a315f,,,,,,,,,,,,,,,,,,,,,,,,,,,,,,,,,,,,,,,,,,,,,,,,,,,,,,,,,,,,,,,,,,,,,,,,,,,,,,,,,,,,,,,,,,,,,,,,,,,,,,,,,,,,,,,,,,,,,,,,,,,,,,,,,,,,,,,,,,,,,,,,,,,,,,,,,,,,,,,,,,,
0,48,48,65,1,,5ec7b7f0079cdc22125201eb,62c53a9a3c3942f0dbd9d101,2022-07-06_10h33.22.550,Colour_Asymmetry_Pilot,2022.1.3,Win32,144.7178003,62c50e9c1127f2cd403a315f,,,,,,,,,,,,,,,,,,,,,,,,,,,,,,,,,,,,,,,,,,,,,,,,,,,,,,,,,,,,,,,,,,,,,,,,,,,,,,,,,,,,,,,,,,,,,,,,,,,,,,,,,,,,,,,,,,,,,,,,,,,,,,,,,,,,,,,,,,,,,,,,,,,,,,,,,,,,,,,,,,,
0,49,49,82,1,,5ec7b7f0079cdc22125201eb,62c53a9a3c3942f0dbd9d101,2022-07-06_10h33.22.550,Colour_Asymmetry_Pilot,2022.1.3,Win32,144.7178003,62c50e9c1127f2cd403a315f,,,,,,,,,,,,,,,,,,,,,,,,,,,,,,,,,,,,,,,,,,,,,,,,,,,,,,,,,,,,,,,,,,,,,,,,,,,,,,,,,,,,,,,,,,,,,,,,,,,,,,,,,,,,,,,,,,,,,,,,,,,,,,,,,,,,,,,,,,,,,,,,,,,,,,,,,,,,,,,,,,,
0,50,50,1,1,,5ec7b7f0079cdc22125201eb,62c53a9a3c3942f0dbd9d101,2022-07-06_10h33.22.550,Colour_Asymmetry_Pilot,2022.1.3,Win32,144.7178003,62c50e9c1127f2cd403a315f,,,,,,,,,,,,,,,,,,,,,,,,,,,,,,,,,,,,,,,,,,,,,,,,,,,,,,,,,,,,,,,,,,,,,,,,,,,,,,,,,,,,,,,,,,,,,,,,,,,,,,,,,,,,,,,,,,,,,,,,,,,,,,,,,,,,,,,,,,,,,,,,,,,,,,,,,,,,,,,,,,,
0,51,51,59,1,,5ec7b7f0079cdc22125201eb,62c53a9a3c3942f0dbd9d101,2022-07-06_10h33.22.550,Colour_Asymmetry_Pilot,2022.1.3,Win32,144.7178003,62c50e9c1127f2cd403a315f,,,,,,,,,,,,,,,,,,,,,,,,,,,,,,,,,,,,,,,,,,,,,,,,,,,,,,,,,,,,,,,,,,,,,,,,,,,,,,,,,,,,,,,,,,,,,,,,,,,,,,,,,,,,,,,,,,,,,,,,,,,,,,,,,,,,,,,,,,,,,,,,,,,,,,,,,,,,,,,,,,,
0,52,52,45,1,,5ec7b7f0079cdc22125201eb,62c53a9a3c3942f0dbd9d101,2022-07-06_10h33.22.550,Colour_Asymmetry_Pilot,2022.1.3,Win32,144.7178003,62c50e9c1127f2cd403a315f,,,,,,,,,,,,,,,,,,,,,,,,,,,,,,,,,,,,,,,,,,,,,,,,,,,,,,,,,,,,,,,,,,,,,,,,,,,,,,,,,,,,,,,,,,,,,,,,,,,,,,,,,,,,,,,,,,,,,,,,,,,,,,,,,,,,,,,,,,,,,,,,,,,,,,,,,,,,,,,,,,,
0,53,53,28,1,,5ec7b7f0079cdc22125201eb,62c53a9a3c3942f0dbd9d101,2022-07-06_10h33.22.550,Colour_Asymmetry_Pilot,2022.1.3,Win32,144.7178003,62c50e9c1127f2cd403a315f,,,,,,,,,,,,,,,,,,,,,,,,,,,,,,,,,,,,,,,,,,,,,,,,,,,,,,,,,,,,,,,,,,,,,,,,,,,,,,,,,,,,,,,,,,,,,,,,,,,,,,,,,,,,,,,,,,,,,,,,,,,,,,,,,,,,,,,,,,,,,,,,,,,,,,,,,,,,,,,,,,,
0,54,54,55,1,,5ec7b7f0079cdc22125201eb,62c53a9a3c3942f0dbd9d101,2022-07-06_10h33.22.550,Colour_Asymmetry_Pilot,2022.1.3,Win32,144.7178003,62c50e9c1127f2cd403a315f,,,,,,,,,,,,,,,,,,,,,,,,,,,,,,,,,,,,,,,,,,,,,,,,,,,,,,,,,,,,,,,,,,,,,,,,,,,,,,,,,,,,,,,,,,,,,,,,,,,,,,,,,,,,,,,,,,,,,,,,,,,,,,,,,,,,,,,,,,,,,,,,,,,,,,,,,,,,,,,,,,,
0,55,55,76,1,,5ec7b7f0079cdc22125201eb,62c53a9a3c3942f0dbd9d101,2022-07-06_10h33.22.550,Colour_Asymmetry_Pilot,2022.1.3,Win32,144.7178003,62c50e9c1127f2cd403a315f,,,,,,,,,,,,,,,,,,,,,,,,,,,,,,,,,,,,,,,,,,,,,,,,,,,,,,,,,,,,,,,,,,,,,,,,,,,,,,,,,,,,,,,,,,,,,,,,,,,,,,,,,,,,,,,,,,,,,,,,,,,,,,,,,,,,,,,,,,,,,,,,,,,,,,,,,,,,,,,,,,,
0,56,56,54,1,,5ec7b7f0079cdc22125201eb,62c53a9a3c3942f0dbd9d101,2022-07-06_10h33.22.550,Colour_Asymmetry_Pilot,2022.1.3,Win32,144.7178003,62c50e9c1127f2cd403a315f,,,,,,,,,,,,,,,,,,,,,,,,,,,,,,,,,,,,,,,,,,,,,,,,,,,,,,,,,,,,,,,,,,,,,,,,,,,,,,,,,,,,,,,,,,,,,,,,,,,,,,,,,,,,,,,,,,,,,,,,,,,,,,,,,,,,,,,,,,,,,,,,,,,,,,,,,,,,,,,,,,,
0,57,57,6,1,,5ec7b7f0079cdc22125201eb,62c53a9a3c3942f0dbd9d101,2022-07-06_10h33.22.550,Colour_Asymmetry_Pilot,2022.1.3,Win32,144.7178003,62c50e9c1127f2cd403a315f,,,,,,,,,,,,,,,,,,,,,,,,,,,,,,,,,,,,,,,,,,,,,,,,,,,,,,,,,,,,,,,,,,,,,,,,,,,,,,,,,,,,,,,,,,,,,,,,,,,,,,,,,,,,,,,,,,,,,,,,,,,,,,,,,,,,,,,,,,,,,,,,,,,,,,,,,,,,,,,,,,,
0,58,58,88,1,,5ec7b7f0079cdc22125201eb,62c53a9a3c3942f0dbd9d101,2022-07-06_10h33.22.550,Colour_Asymmetry_Pilot,2022.1.3,Win32,144.7178003,62c50e9c1127f2cd403a315f,,,,,,,,,,,,,,,,,,,,,,,,,,,,,,,,,,,,,,,,,,,,,,,,,,,,,,,,,,,,,,,,,,,,,,,,,,,,,,,,,,,,,,,,,,,,,,,,,,,,,,,,,,,,,,,,,,,,,,,,,,,,,,,,,,,,,,,,,,,,,,,,,,,,,,,,,,,,,,,,,,,
0,59,59,48,1,,5ec7b7f0079cdc22125201eb,62c53a9a3c3942f0dbd9d101,2022-07-06_10h33.22.550,Colour_Asymmetry_Pilot,2022.1.3,Win32,144.7178003,62c50e9c1127f2cd403a315f,,,,,,,,,,,,,,,,,,,,,,,,,,,,,,,,,,,,,,,,,,,,,,,,,,,,,,,,,,,,,,,,,,,,,,,,,,,,,,,,,,,,,,,,,,,,,,,,,,,,,,,,,,,,,,,,,,,,,,,,,,,,,,,,,,,,,,,,,,,,,,,,,,,,,,,,,,,,,,,,,,,
0,60,60,5,1,,5ec7b7f0079cdc22125201eb,62c53a9a3c3942f0dbd9d101,2022-07-06_10h33.22.550,Colour_Asymmetry_Pilot,2022.1.3,Win32,144.7178003,62c50e9c1127f2cd403a315f,,,,,,,,,,,,,,,,,,,,,,,,,,,,,,,,,,,,,,,,,,,,,,,,,,,,,,,,,,,,,,,,,,,,,,,,,,,,,,,,,,,,,,,,,,,,,,,,,,,,,,,,,,,,,,,,,,,,,,,,,,,,,,,,,,,,,,,,,,,,,,,,,,,,,,,,,,,,,,,,,,,
0,61,61,92,1,,5ec7b7f0079cdc22125201eb,62c53a9a3c3942f0dbd9d101,2022-07-06_10h33.22.550,Colour_Asymmetry_Pilot,2022.1.3,Win32,144.7178003,62c50e9c1127f2cd403a315f,,,,,,,,,,,,,,,,,,,,,,,,,,,,,,,,,,,,,,,,,,,,,,,,,,,,,,,,,,,,,,,,,,,,,,,,,,,,,,,,,,,,,,,,,,,,,,,,,,,,,,,,,,,,,,,,,,,,,,,,,,,,,,,,,,,,,,,,,,,,,,,,,,,,,,,,,,,,,,,,,,,
0,62,62,37,1,,5ec7b7f0079cdc22125201eb,62c53a9a3c3942f0dbd9d101,2022-07-06_10h33.22.550,Colour_Asymmetry_Pilot,2022.1.3,Win32,144.7178003,62c50e9c1127f2cd403a315f,,,,,,,,,,,,,,,,,,,,,,,,,,,,,,,,,,,,,,,,,,,,,,,,,,,,,,,,,,,,,,,,,,,,,,,,,,,,,,,,,,,,,,,,,,,,,,,,,,,,,,,,,,,,,,,,,,,,,,,,,,,,,,,,,,,,,,,,,,,,,,,,,,,,,,,,,,,,,,,,,,,
0,63,63,61,1,,5ec7b7f0079cdc22125201eb,62c53a9a3c3942f0dbd9d101,2022-07-06_10h33.22.550,Colour_Asymmetry_Pilot,2022.1.3,Win32,144.7178003,62c50e9c1127f2cd403a315f,,,,,,,,,,,,,,,,,,,,,,,,,,,,,,,,,,,,,,,,,,,,,,,,,,,,,,,,,,,,,,,,,,,,,,,,,,,,,,,,,,,,,,,,,,,,,,,,,,,,,,,,,,,,,,,,,,,,,,,,,,,,,,,,,,,,,,,,,,,,,,,,,,,,,,,,,,,,,,,,,,,
0,64,64,20,1,,5ec7b7f0079cdc22125201eb,62c53a9a3c3942f0dbd9d101,2022-07-06_10h33.22.550,Colour_Asymmetry_Pilot,2022.1.3,Win32,144.7178003,62c50e9c1127f2cd403a315f,,,,,,,,,,,,,,,,,,,,,,,,,,,,,,,,,,,,,,,,,,,,,,,,,,,,,,,,,,,,,,,,,,,,,,,,,,,,,,,,,,,,,,,,,,,,,,,,,,,,,,,,,,,,,,,,,,,,,,,,,,,,,,,,,,,,,,,,,,,,,,,,,,,,,,,,,,,,,,,,,,,
0,65,65,60,1,,5ec7b7f0079cdc22125201eb,62c53a9a3c3942f0dbd9d101,2022-07-06_10h33.22.550,Colour_Asymmetry_Pilot,2022.1.3,Win32,144.7178003,62c50e9c1127f2cd403a315f,,,,,,,,,,,,,,,,,,,,,,,,,,,,,,,,,,,,,,,,,,,,,,,,,,,,,,,,,,,,,,,,,,,,,,,,,,,,,,,,,,,,,,,,,,,,,,,,,,,,,,,,,,,,,,,,,,,,,,,,,,,,,,,,,,,,,,,,,,,,,,,,,,,,,,,,,,,,,,,,,,,
0,66,66,39,1,,5ec7b7f0079cdc22125201eb,62c53a9a3c3942f0dbd9d101,2022-07-06_10h33.22.550,Colour_Asymmetry_Pilot,2022.1.3,Win32,144.7178003,62c50e9c1127f2cd403a315f,,,,,,,,,,,,,,,,,,,,,,,,,,,,,,,,,,,,,,,,,,,,,,,,,,,,,,,,,,,,,,,,,,,,,,,,,,,,,,,,,,,,,,,,,,,,,,,,,,,,,,,,,,,,,,,,,,,,,,,,,,,,,,,,,,,,,,,,,,,,,,,,,,,,,,,,,,,,,,,,,,,
0,67,67,29,1,,5ec7b7f0079cdc22125201eb,62c53a9a3c3942f0dbd9d101,2022-07-06_10h33.22.550,Colour_Asymmetry_Pilot,2022.1.3,Win32,144.7178003,62c50e9c1127f2cd403a315f,,,,,,,,,,,,,,,,,,,,,,,,,,,,,,,,,,,,,,,,,,,,,,,,,,,,,,,,,,,,,,,,,,,,,,,,,,,,,,,,,,,,,,,,,,,,,,,,,,,,,,,,,,,,,,,,,,,,,,,,,,,,,,,,,,,,,,,,,,,,,,,,,,,,,,,,,,,,,,,,,,,
0,68,68,53,1,,5ec7b7f0079cdc22125201eb,62c53a9a3c3942f0dbd9d101,2022-07-06_10h33.22.550,Colour_Asymmetry_Pilot,2022.1.3,Win32,144.7178003,62c50e9c1127f2cd403a315f,,,,,,,,,,,,,,,,,,,,,,,,,,,,,,,,,,,,,,,,,,,,,,,,,,,,,,,,,,,,,,,,,,,,,,,,,,,,,,,,,,,,,,,,,,,,,,,,,,,,,,,,,,,,,,,,,,,,,,,,,,,,,,,,,,,,,,,,,,,,,,,,,,,,,,,,,,,,,,,,,,,
0,69,69,80,1,,5ec7b7f0079cdc22125201eb,62c53a9a3c3942f0dbd9d101,2022-07-06_10h33.22.550,Colour_Asymmetry_Pilot,2022.1.3,Win32,144.7178003,62c50e9c1127f2cd403a315f,,,,,,,,,,,,,,,,,,,,,,,,,,,,,,,,,,,,,,,,,,,,,,,,,,,,,,,,,,,,,,,,,,,,,,,,,,,,,,,,,,,,,,,,,,,,,,,,,,,,,,,,,,,,,,,,,,,,,,,,,,,,,,,,,,,,,,,,,,,,,,,,,,,,,,,,,,,,,,,,,,,
0,70,70,11,1,,5ec7b7f0079cdc22125201eb,62c53a9a3c3942f0dbd9d101,2022-07-06_10h33.22.550,Colour_Asymmetry_Pilot,2022.1.3,Win32,144.7178003,62c50e9c1127f2cd403a315f,,,,,,,,,,,,,,,,,,,,,,,,,,,,,,,,,,,,,,,,,,,,,,,,,,,,,,,,,,,,,,,,,,,,,,,,,,,,,,,,,,,,,,,,,,,,,,,,,,,,,,,,,,,,,,,,,,,,,,,,,,,,,,,,,,,,,,,,,,,,,,,,,,,,,,,,,,,,,,,,,,,
0,71,71,58,1,,5ec7b7f0079cdc22125201eb,62c53a9a3c3942f0dbd9d101,2022-07-06_10h33.22.550,Colour_Asymmetry_Pilot,2022.1.3,Win32,144.7178003,62c50e9c1127f2cd403a315f,,,,,,,,,,,,,,,,,,,,,,,,,,,,,,,,,,,,,,,,,,,,,,,,,,,,,,,,,,,,,,,,,,,,,,,,,,,,,,,,,,,,,,,,,,,,,,,,,,,,,,,,,,,,,,,,,,,,,,,,,,,,,,,,,,,,,,,,,,,,,,,,,,,,,,,,,,,,,,,,,,,
0,72,72,36,1,,5ec7b7f0079cdc22125201eb,62c53a9a3c3942f0dbd9d101,2022-07-06_10h33.22.550,Colour_Asymmetry_Pilot,2022.1.3,Win32,144.7178003,62c50e9c1127f2cd403a315f,,,,,,,,,,,,,,,,,,,,,,,,,,,,,,,,,,,,,,,,,,,,,,,,,,,,,,,,,,,,,,,,,,,,,,,,,,,,,,,,,,,,,,,,,,,,,,,,,,,,,,,,,,,,,,,,,,,,,,,,,,,,,,,,,,,,,,,,,,,,,,,,,,,,,,,,,,,,,,,,,,,
0,73,73,26,1,,5ec7b7f0079cdc22125201eb,62c53a9a3c3942f0dbd9d101,2022-07-06_10h33.22.550,Colour_Asymmetry_Pilot,2022.1.3,Win32,144.7178003,62c50e9c1127f2cd403a315f,,,,,,,,,,,,,,,,,,,,,,,,,,,,,,,,,,,,,,,,,,,,,,,,,,,,,,,,,,,,,,,,,,,,,,,,,,,,,,,,,,,,,,,,,,,,,,,,,,,,,,,,,,,,,,,,,,,,,,,,,,,,,,,,,,,,,,,,,,,,,,,,,,,,,,,,,,,,,,,,,,,
0,74,74,52,1,,5ec7b7f0079cdc22125201eb,62c53a9a3c3942f0dbd9d101,2022-07-06_10h33.22.550,Colour_Asymmetry_Pilot,2022.1.3,Win32,144.7178003,62c50e9c1127f2cd403a315f,,,,,,,,,,,,,,,,,,,,,,,,,,,,,,,,,,,,,,,,,,,,,,,,,,,,,,,,,,,,,,,,,,,,,,,,,,,,,,,,,,,,,,,,,,,,,,,,,,,,,,,,,,,,,,,,,,,,,,,,,,,,,,,,,,,,,,,,,,,,,,,,,,,,,,,,,,,,,,,,,,,
0,75,75,62,1,,5ec7b7f0079cdc22125201eb,62c53a9a3c3942f0dbd9d101,2022-07-06_10h33.22.550,Colour_Asymmetry_Pilot,2022.1.3,Win32,144.7178003,62c50e9c1127f2cd403a315f,,,,,,,,,,,,,,,,,,,,,,,,,,,,,,,,,,,,,,,,,,,,,,,,,,,,,,,,,,,,,,,,,,,,,,,,,,,,,,,,,,,,,,,,,,,,,,,,,,,,,,,,,,,,,,,,,,,,,,,,,,,,,,,,,,,,,,,,,,,,,,,,,,,,,,,,,,,,,,,,,,,
0,76,76,44,1,,5ec7b7f0079cdc22125201eb,62c53a9a3c3942f0dbd9d101,2022-07-06_10h33.22.550,Colour_Asymmetry_Pilot,2022.1.3,Win32,144.7178003,62c50e9c1127f2cd403a315f,,,,,,,,,,,,,,,,,,,,,,,,,,,,,,,,,,,,,,,,,,,,,,,,,,,,,,,,,,,,,,,,,,,,,,,,,,,,,,,,,,,,,,,,,,,,,,,,,,,,,,,,,,,,,,,,,,,,,,,,,,,,,,,,,,,,,,,,,,,,,,,,,,,,,,,,,,,,,,,,,,,
0,77,77,38,1,,5ec7b7f0079cdc22125201eb,62c53a9a3c3942f0dbd9d101,2022-07-06_10h33.22.550,Colour_Asymmetry_Pilot,2022.1.3,Win32,144.7178003,62c50e9c1127f2cd403a315f,,,,,,,,,,,,,,,,,,,,,,,,,,,,,,,,,,,,,,,,,,,,,,,,,,,,,,,,,,,,,,,,,,,,,,,,,,,,,,,,,,,,,,,,,,,,,,,,,,,,,,,,,,,,,,,,,,,,,,,,,,,,,,,,,,,,,,,,,,,,,,,,,,,,,,,,,,,,,,,,,,,
0,78,78,85,1,,5ec7b7f0079cdc22125201eb,62c53a9a3c3942f0dbd9d101,2022-07-06_10h33.22.550,Colour_Asymmetry_Pilot,2022.1.3,Win32,144.7178003,62c50e9c1127f2cd403a315f,,,,,,,,,,,,,,,,,,,,,,,,,,,,,,,,,,,,,,,,,,,,,,,,,,,,,,,,,,,,,,,,,,,,,,,,,,,,,,,,,,,,,,,,,,,,,,,,,,,,,,,,,,,,,,,,,,,,,,,,,,,,,,,,,,,,,,,,,,,,,,,,,,,,,,,,,,,,,,,,,,,
0,79,79,21,1,,5ec7b7f0079cdc22125201eb,62c53a9a3c3942f0dbd9d101,2022-07-06_10h33.22.550,Colour_Asymmetry_Pilot,2022.1.3,Win32,144.7178003,62c50e9c1127f2cd403a315f,,,,,,,,,,,,,,,,,,,,,,,,,,,,,,,,,,,,,,,,,,,,,,,,,,,,,,,,,,,,,,,,,,,,,,,,,,,,,,,,,,,,,,,,,,,,,,,,,,,,,,,,,,,,,,,,,,,,,,,,,,,,,,,,,,,,,,,,,,,,,,,,,,,,,,,,,,,,,,,,,,,
0,80,80,40,1,,5ec7b7f0079cdc22125201eb,62c53a9a3c3942f0dbd9d101,2022-07-06_10h33.22.550,Colour_Asymmetry_Pilot,2022.1.3,Win32,144.7178003,62c50e9c1127f2cd403a315f,,,,,,,,,,,,,,,,,,,,,,,,,,,,,,,,,,,,,,,,,,,,,,,,,,,,,,,,,,,,,,,,,,,,,,,,,,,,,,,,,,,,,,,,,,,,,,,,,,,,,,,,,,,,,,,,,,,,,,,,,,,,,,,,,,,,,,,,,,,,,,,,,,,,,,,,,,,,,,,,,,,
0,81,81,50,1,,5ec7b7f0079cdc22125201eb,62c53a9a3c3942f0dbd9d101,2022-07-06_10h33.22.550,Colour_Asymmetry_Pilot,2022.1.3,Win32,144.7178003,62c50e9c1127f2cd403a315f,,,,,,,,,,,,,,,,,,,,,,,,,,,,,,,,,,,,,,,,,,,,,,,,,,,,,,,,,,,,,,,,,,,,,,,,,,,,,,,,,,,,,,,,,,,,,,,,,,,,,,,,,,,,,,,,,,,,,,,,,,,,,,,,,,,,,,,,,,,,,,,,,,,,,,,,,,,,,,,,,,,
0,82,82,0,1,,5ec7b7f0079cdc22125201eb,62c53a9a3c3942f0dbd9d101,2022-07-06_10h33.22.550,Colour_Asymmetry_Pilot,2022.1.3,Win32,144.7178003,62c50e9c1127f2cd403a315f,,,,,,,,,,,,,,,,,,,,,,,,,,,,,,,,,,,,,,,,,,,,,,,,,,,,,,,,,,,,,,,,,,,,,,,,,,,,,,,,,,,,,,,,,,,,,,,,,,,,,,,,,,,,,,,,,,,,,,,,,,,,,,,,,,,,,,,,,,,,,,,,,,,,,,,,,,,,,,,,,,,
0,83,83,18,1,,5ec7b7f0079cdc22125201eb,62c53a9a3c3942f0dbd9d101,2022-07-06_10h33.22.550,Colour_Asymmetry_Pilot,2022.1.3,Win32,144.7178003,62c50e9c1127f2cd403a315f,,,,,,,,,,,,,,,,,,,,,,,,,,,,,,,,,,,,,,,,,,,,,,,,,,,,,,,,,,,,,,,,,,,,,,,,,,,,,,,,,,,,,,,,,,,,,,,,,,,,,,,,,,,,,,,,,,,,,,,,,,,,,,,,,,,,,,,,,,,,,,,,,,,,,,,,,,,,,,,,,,,
0,84,84,87,1,,5ec7b7f0079cdc22125201eb,62c53a9a3c3942f0dbd9d101,2022-07-06_10h33.22.550,Colour_Asymmetry_Pilot,2022.1.3,Win32,144.7178003,62c50e9c1127f2cd403a315f,,,,,,,,,,,,,,,,,,,,,,,,,,,,,,,,,,,,,,,,,,,,,,,,,,,,,,,,,,,,,,,,,,,,,,,,,,,,,,,,,,,,,,,,,,,,,,,,,,,,,,,,,,,,,,,,,,,,,,,,,,,,,,,,,,,,,,,,,,,,,,,,,,,,,,,,,,,,,,,,,,,
0,85,85,22,1,,5ec7b7f0079cdc22125201eb,62c53a9a3c3942f0dbd9d101,2022-07-06_10h33.22.550,Colour_Asymmetry_Pilot,2022.1.3,Win32,144.7178003,62c50e9c1127f2cd403a315f,,,,,,,,,,,,,,,,,,,,,,,,,,,,,,,,,,,,,,,,,,,,,,,,,,,,,,,,,,,,,,,,,,,,,,,,,,,,,,,,,,,,,,,,,,,,,,,,,,,,,,,,,,,,,,,,,,,,,,,,,,,,,,,,,,,,,,,,,,,,,,,,,,,,,,,,,,,,,,,,,,,
0,86,86,4,1,,5ec7b7f0079cdc22125201eb,62c53a9a3c3942f0dbd9d101,2022-07-06_10h33.22.550,Colour_Asymmetry_Pilot,2022.1.3,Win32,144.7178003,62c50e9c1127f2cd403a315f,,,,,,,,,,,,,,,,,,,,,,,,,,,,,,,,,,,,,,,,,,,,,,,,,,,,,,,,,,,,,,,,,,,,,,,,,,,,,,,,,,,,,,,,,,,,,,,,,,,,,,,,,,,,,,,,,,,,,,,,,,,,,,,,,,,,,,,,,,,,,,,,,,,,,,,,,,,,,,,,,,,
0,87,87,47,1,,5ec7b7f0079cdc22125201eb,62c53a9a3c3942f0dbd9d101,2022-07-06_10h33.22.550,Colour_Asymmetry_Pilot,2022.1.3,Win32,144.7178003,62c50e9c1127f2cd403a315f,,,,,,,,,,,,,,,,,,,,,,,,,,,,,,,,,,,,,,,,,,,,,,,,,,,,,,,,,,,,,,,,,,,,,,,,,,,,,,,,,,,,,,,,,,,,,,,,,,,,,,,,,,,,,,,,,,,,,,,,,,,,,,,,,,,,,,,,,,,,,,,,,,,,,,,,,,,,,,,,,,,
0,88,88,41,1,,5ec7b7f0079cdc22125201eb,62c53a9a3c3942f0dbd9d101,2022-07-06_10h33.22.550,Colour_Asymmetry_Pilot,2022.1.3,Win32,144.7178003,62c50e9c1127f2cd403a315f,,,,,,,,,,,,,,,,,,,,,,,,,,,,,,,,,,,,,,,,,,,,,,,,,,,,,,,,,,,,,,,,,,,,,,,,,,,,,,,,,,,,,,,,,,,,,,,,,,,,,,,,,,,,,,,,,,,,,,,,,,,,,,,,,,,,,,,,,,,,,,,,,,,,,,,,,,,,,,,,,,,
0,89,89,7,1,,5ec7b7f0079cdc22125201eb,62c53a9a3c3942f0dbd9d101,2022-07-06_10h33.22.550,Colour_Asymmetry_Pilot,2022.1.3,Win32,144.7178003,62c50e9c1127f2cd403a315f,,,,,,,,,,,,,,,,,,,,,,,,,,,,,,,,,,,,,,,,,,,,,,,,,,,,,,,,,,,,,,,,,,,,,,,,,,,,,,,,,,,,,,,,,,,,,,,,,,,,,,,,,,,,,,,,,,,,,,,,,,,,,,,,,,,,,,,,,,,,,,,,,,,,,,,,,,,,,,,,,,,
0,90,90,67,1,,5ec7b7f0079cdc22125201eb,62c53a9a3c3942f0dbd9d101,2022-07-06_10h33.22.550,Colour_Asymmetry_Pilot,2022.1.3,Win32,144.7178003,62c50e9c1127f2cd403a315f,,,,,,,,,,,,,,,,,,,,,,,,,,,,,,,,,,,,,,,,,,,,,,,,,,,,,,,,,,,,,,,,,,,,,,,,,,,,,,,,,,,,,,,,,,,,,,,,,,,,,,,,,,,,,,,,,,,,,,,,,,,,,,,,,,,,,,,,,,,,,,,,,,,,,,,,,,,,,,,,,,,
0,91,91,23,1,,5ec7b7f0079cdc22125201eb,62c53a9a3c3942f0dbd9d101,2022-07-06_10h33.22.550,Colour_Asymmetry_Pilot,2022.1.3,Win32,144.7178003,62c50e9c1127f2cd403a315f,,,,,,,,,,,,,,,,,,,,,,,,,,,,,,,,,,,,,,,,,,,,,,,,,,,,,,,,,,,,,,,,,,,,,,,,,,,,,,,,,,,,,,,,,,,,,,,,,,,,,,,,,,,,,,,,,,,,,,,,,,,,,,,,,,,,,,,,,,,,,,,,,,,,,,,,,,,,,,,,,,,
0,92,92,73,1,,5ec7b7f0079cdc22125201eb,62c53a9a3c3942f0dbd9d101,2022-07-06_10h33.22.550,Colour_Asymmetry_Pilot,2022.1.3,Win32,144.7178003,62c50e9c1127f2cd403a315f,,,,,,,,,,,,,,,,,,,,,,,,,,,,,,,,,,,,,,,,,,,,,,,,,,,,,,,,,,,,,,,,,,,,,,,,,,,,,,,,,,,,,,,,,,,,,,,,,,,,,,,,,,,,,,,,,,,,,,,,,,,,,,,,,,,,,,,,,,,,,,,,,,,,,,,,,,,,,,,,,,,
,,,,,,5ec7b7f0079cdc22125201eb,62c53a9a3c3942f0dbd9d101,2022-07-06_10h33.22.550,Colour_Asymmetry_Pilot,2022.1.3,Win32,144.7178003,62c50e9c1127f2cd403a315f,0,0,0,6,1,fourtwo,,,,,,,,,,,,,,,,,,,,,,,,,,,,,,,,,,,,,,,,,,,,,,,,,,,,,,,,,,,,,,,,,,,,,,,,,,,,,,,,,,,,,,,,,,,,,,,,,,,,,,,,,,,,,,,,,,,,,,,,,,,,,,,,,,,,,,,,,,,,,,,,,,,,,,,,,,,,,
,,,,,,5ec7b7f0079cdc22125201eb,62c53a9a3c3942f0dbd9d101,2022-07-06_10h33.22.550,Colour_Asymmetry_Pilot,2022.1.3,Win32,144.7178003,62c50e9c1127f2cd403a315f,0,1,1,102,1,fourtwo,,,,,,,,,,,,,,,,,,,,,,,,,,,,,,,,,,,,,,,,,,,,,,,,,,,,,,,,,,,,,,,,,,,,,,,,,,,,,,,,,,,,,,,,,,,,,,,,,,,,,,,,,,,,,,,,,,,,,,,,,,,,,,,,,,,,,,,,,,,,,,,,,,,,,,,,,,,,,
,,,,,,5ec7b7f0079cdc22125201eb,62c53a9a3c3942f0dbd9d101,2022-07-06_10h33.22.550,Colour_Asymmetry_Pilot,2022.1.3,Win32,144.7178003,62c50e9c1127f2cd403a315f,0,2,2,131,1,twofour,,,,,,,,,,,,,,,,,,,,,,,,,,,,,,,,,,,,,,,,,,,,,,,,,,,,,,,,,,,,,,,,,,,,,,,,,,,,,,,,,,,,,,,,,,,,,,,,,,,,,,,,,,,,,,,,,,,,,,,,,,,,,,,,,,,,,,,,,,,,,,,,,,,,,,,,,,,,,
,,,,,,5ec7b7f0079cdc22125201eb,62c53a9a3c3942f0dbd9d101,2022-07-06_10h33.22.550,Colour_Asymmetry_Pilot,2022.1.3,Win32,144.7178003,62c50e9c1127f2cd403a315f,0,3,3,0,1,onetwo,,,,,,,,,,,,,,,,,,,,,,,,,,,,,,,,,,,,,,,,,,,,,,,,,,,,,,,,,,,,,,,,,,,,,,,,,,,,,,,,,,,,,,,,,,,,,,,,,,,,,,,,,,,,,,,,,,,,,,,,,,,,,,,,,,,,,,,,,,,,,,,,,,,,,,,,,,,,,
,,,,,,5ec7b7f0079cdc22125201eb,62c53a9a3c3942f0dbd9d101,2022-07-06_10h33.22.550,Colour_Asymmetry_Pilot,2022.1.3,Win32,144.7178003,62c50e9c1127f2cd403a315f,0,4,4,57,1,onethree,,,,,,,,,,,,,,,,,,,,,,,,,,,,,,,,,,,,,,,,,,,,,,,,,,,,,,,,,,,,,,,,,,,,,,,,,,,,,,,,,,,,,,,,,,,,,,,,,,,,,,,,,,,,,,,,,,,,,,,,,,,,,,,,,,,,,,,,,,,,,,,,,,,,,,,,,,,,,
,,,,,,5ec7b7f0079cdc22125201eb,62c53a9a3c3942f0dbd9d101,2022-07-06_10h33.22.550,Colour_Asymmetry_Pilot,2022.1.3,Win32,144.7178003,62c50e9c1127f2cd403a315f,0,5,5,23,1,fourthree,,,,,,,,,,,,,,,,,,,,,,,,,,,,,,,,,,,,,,,,,,,,,,,,,,,,,,,,,,,,,,,,,,,,,,,,,,,,,,,,,,,,,,,,,,,,,,,,,,,,,,,,,,,,,,,,,,,,,,,,,,,,,,,,,,,,,,,,,,,,,,,,,,,,,,,,,,,,,
,,,,,,5ec7b7f0079cdc22125201eb,62c53a9a3c3942f0dbd9d101,2022-07-06_10h33.22.550,Colour_Asymmetry_Pilot,2022.1.3,Win32,144.7178003,62c50e9c1127f2cd403a315f,0,6,6,113,1,onethree,,,,,,,,,,,,,,,,,,,,,,,,,,,,,,,,,,,,,,,,,,,,,,,,,,,,,,,,,,,,,,,,,,,,,,,,,,,,,,,,,,,,,,,,,,,,,,,,,,,,,,,,,,,,,,,,,,,,,,,,,,,,,,,,,,,,,,,,,,,,,,,,,,,,,,,,,,,,,
,,,,,,5ec7b7f0079cdc22125201eb,62c53a9a3c3942f0dbd9d101,2022-07-06_10h33.22.550,Colour_Asymmetry_Pilot,2022.1.3,Win32,144.7178003,62c50e9c1127f2cd403a315f,0,7,7,142,1,fourtwo,,,,,,,,,,,,,,,,,,,,,,,,,,,,,,,,,,,,,,,,,,,,,,,,,,,,,,,,,,,,,,,,,,,,,,,,,,,,,,,,,,,,,,,,,,,,,,,,,,,,,,,,,,,,,,,,,,,,,,,,,,,,,,,,,,,,,,,,,,,,,,,,,,,,,,,,,,,,,
,,,,,,5ec7b7f0079cdc22125201eb,62c53a9a3c3942f0dbd9d101,2022-07-06_10h33.22.550,Colour_Asymmetry_Pilot,2022.1.3,Win32,144.7178003,62c50e9c1127f2cd403a315f,0,8,8,116,1,threeone,,,,,,,,,,,,,,,,,,,,,,,,,,,,,,,,,,,,,,,,,,,,,,,,,,,,,,,,,,,,,,,,,,,,,,,,,,,,,,,,,,,,,,,,,,,,,,,,,,,,,,,,,,,,,,,,,,,,,,,,,,,,,,,,,,,,,,,,,,,,,,,,,,,,,,,,,,,,,
,,,,,,5ec7b7f0079cdc22125201eb,62c53a9a3c3942f0dbd9d101,2022-07-06_10h33.22.550,Colour_Asymmetry_Pilot,2022.1.3,Win32,144.7178003,62c50e9c1127f2cd403a315f,0,9,9,138,1,twoone,,,,,,,,,,,,,,,,,,,,,,,,,,,,,,,,,,,,,,,,,,,,,,,,,,,,,,,,,,,,,,,,,,,,,,,,,,,,,,,,,,,,,,,,,,,,,,,,,,,,,,,,,,,,,,,,,,,,,,,,,,,,,,,,,,,,,,,,,,,,,,,,,,,,,,,,,,,,,
,,,,,,5ec7b7f0079cdc22125201eb,62c53a9a3c3942f0dbd9d101,2022-07-06_10h33.22.550,Colour_Asymmetry_Pilot,2022.1.3,Win32,144.7178003,62c50e9c1127f2cd403a315f,0,10,10,79,1,fourthree,,,,,,,,,,,,,,,,,,,,,,,,,,,,,,,,,,,,,,,,,,,,,,,,,,,,,,,,,,,,,,,,,,,,,,,,,,,,,,,,,,,,,,,,,,,,,,,,,,,,,,,,,,,,,,,,,,,,,,,,,,,,,,,,,,,,,,,,,,,,,,,,,,,,,,,,,,,,,
,,,,,,5ec7b7f0079cdc22125201eb,62c53a9a3c3942f0dbd9d101,2022-07-06_10h33.22.550,Colour_Asymmetry_Pilot,2022.1.3,Win32,144.7178003,62c50e9c1127f2cd403a315f,0,11,11,30,1,fourtwo,,,,,,,,,,,,,,,,,,,,,,,,,,,,,,,,,,,,,,,,,,,,,,,,,,,,,,,,,,,,,,,,,,,,,,,,,,,,,,,,,,,,,,,,,,,,,,,,,,,,,,,,,,,,,,,,,,,,,,,,,,,,,,,,,,,,,,,,,,,,,,,,,,,,,,,,,,,,,
,,,,,,5ec7b7f0079cdc22125201eb,62c53a9a3c3942f0dbd9d101,2022-07-06_10h33.22.550,Colour_Asymmetry_Pilot,2022.1.3,Win32,144.7178003,62c50e9c1127f2cd403a315f,0,12,12,123,1,twofour,,,,,,,,,,,,,,,,,,,,,,,,,,,,,,,,,,,,,,,,,,,,,,,,,,,,,,,,,,,,,,,,,,,,,,,,,,,,,,,,,,,,,,,,,,,,,,,,,,,,,,,,,,,,,,,,,,,,,,,,,,,,,,,,,,,,,,,,,,,,,,,,,,,,,,,,,,,,,
,,,,,,5ec7b7f0079cdc22125201eb,62c53a9a3c3942f0dbd9d101,2022-07-06_10h33.22.550,Colour_Asymmetry_Pilot,2022.1.3,Win32,144.7178003,62c50e9c1127f2cd403a315f,0,13,13,99,1,twofour,,,,,,,,,,,,,,,,,,,,,,,,,,,,,,,,,,,,,,,,,,,,,,,,,,,,,,,,,,,,,,,,,,,,,,,,,,,,,,,,,,,,,,,,,,,,,,,,,,,,,,,,,,,,,,,,,,,,,,,,,,,,,,,,,,,,,,,,,,,,,,,,,,,,,,,,,,,,,
,,,,,,5ec7b7f0079cdc22125201eb,62c53a9a3c3942f0dbd9d101,2022-07-06_10h33.22.550,Colour_Asymmetry_Pilot,2022.1.3,Win32,144.7178003,62c50e9c1127f2cd403a315f,0,14,14,106,1,twoone,,,,,,,,,,,,,,,,,,,,,,,,,,,,,,,,,,,,,,,,,,,,,,,,,,,,,,,,,,,,,,,,,,,,,,,,,,,,,,,,,,,,,,,,,,,,,,,,,,,,,,,,,,,,,,,,,,,,,,,,,,,,,,,,,,,,,,,,,,,,,,,,,,,,,,,,,,,,,
,,,,,,5ec7b7f0079cdc22125201eb,62c53a9a3c3942f0dbd9d101,2022-07-06_10h33.22.550,Colour_Asymmetry_Pilot,2022.1.3,Win32,144.7178003,62c50e9c1127f2cd403a315f,0,15,15,91,1,twofour,,,,,,,,,,,,,,,,,,,,,,,,,,,,,,,,,,,,,,,,,,,,,,,,,,,,,,,,,,,,,,,,,,,,,,,,,,,,,,,,,,,,,,,,,,,,,,,,,,,,,,,,,,,,,,,,,,,,,,,,,,,,,,,,,,,,,,,,,,,,,,,,,,,,,,,,,,,,,
,,,,,,5ec7b7f0079cdc22125201eb,62c53a9a3c3942f0dbd9d101,2022-07-06_10h33.22.550,Colour_Asymmetry_Pilot,2022.1.3,Win32,144.7178003,62c50e9c1127f2cd403a315f,0,16,16,118,1,fourtwo,,,,,,,,,,,,,,,,,,,,,,,,,,,,,,,,,,,,,,,,,,,,,,,,,,,,,,,,,,,,,,,,,,,,,,,,,,,,,,,,,,,,,,,,,,,,,,,,,,,,,,,,,,,,,,,,,,,,,,,,,,,,,,,,,,,,,,,,,,,,,,,,,,,,,,,,,,,,,
,,,,,,5ec7b7f0079cdc22125201eb,62c53a9a3c3942f0dbd9d101,2022-07-06_10h33.22.550,Colour_Asymmetry_Pilot,2022.1.3,Win32,144.7178003,62c50e9c1127f2cd403a315f,0,17,17,46,1,fourtwo,,,,,,,,,,,,,,,,,,,,,,,,,,,,,,,,,,,,,,,,,,,,,,,,,,,,,,,,,,,,,,,,,,,,,,,,,,,,,,,,,,,,,,,,,,,,,,,,,,,,,,,,,,,,,,,,,,,,,,,,,,,,,,,,,,,,,,,,,,,,,,,,,,,,,,,,,,,,,
,,,,,,5ec7b7f0079cdc22125201eb,62c53a9a3c3942f0dbd9d101,2022-07-06_10h33.22.550,Colour_Asymmetry_Pilot,2022.1.3,Win32,144.7178003,62c50e9c1127f2cd403a315f,0,18,18,129,1,onethree,,,,,,,,,,,,,,,,,,,,,,,,,,,,,,,,,,,,,,,,,,,,,,,,,,,,,,,,,,,,,,,,,,,,,,,,,,,,,,,,,,,,,,,,,,,,,,,,,,,,,,,,,,,,,,,,,,,,,,,,,,,,,,,,,,,,,,,,,,,,,,,,,,,,,,,,,,,,,
,,,,,,5ec7b7f0079cdc22125201eb,62c53a9a3c3942f0dbd9d101,2022-07-06_10h33.22.550,Colour_Asymmetry_Pilot,2022.1.3,Win32,144.7178003,62c50e9c1127f2cd403a315f,0,19,19,139,1,twofour,,,,,,,,,,,,,,,,,,,,,,,,,,,,,,,,,,,,,,,,,,,,,,,,,,,,,,,,,,,,,,,,,,,,,,,,,,,,,,,,,,,,,,,,,,,,,,,,,,,,,,,,,,,,,,,,,,,,,,,,,,,,,,,,,,,,,,,,,,,,,,,,,,,,,,,,,,,,,
,,,,,,5ec7b7f0079cdc22125201eb,62c53a9a3c3942f0dbd9d101,2022-07-06_10h33.22.550,Colour_Asymmetry_Pilot,2022.1.3,Win32,144.7178003,62c50e9c1127f2cd403a315f,0,20,20,73,1,onethree,,,,,,,,,,,,,,,,,,,,,,,,,,,,,,,,,,,,,,,,,,,,,,,,,,,,,,,,,,,,,,,,,,,,,,,,,,,,,,,,,,,,,,,,,,,,,,,,,,,,,,,,,,,,,,,,,,,,,,,,,,,,,,,,,,,,,,,,,,,,,,,,,,,,,,,,,,,,,
,,,,,,5ec7b7f0079cdc22125201eb,62c53a9a3c3942f0dbd9d101,2022-07-06_10h33.22.550,Colour_Asymmetry_Pilot,2022.1.3,Win32,144.7178003,62c50e9c1127f2cd403a315f,0,21,21,95,1,fourthree,,,,,,,,,,,,,,,,,,,,,,,,,,,,,,,,,,,,,,,,,,,,,,,,,,,,,,,,,,,,,,,,,,,,,,,,,,,,,,,,,,,,,,,,,,,,,,,,,,,,,,,,,,,,,,,,,,,,,,,,,,,,,,,,,,,,,,,,,,,,,,,,,,,,,,,,,,,,,
,,,,,,5ec7b7f0079cdc22125201eb,62c53a9a3c3942f0dbd9d101,2022-07-06_10h33.22.550,Colour_Asymmetry_Pilot,2022.1.3,Win32,144.7178003,62c50e9c1127f2cd403a315f,0,22,22,98,1,twoone,,,,,,,,,,,,,,,,,,,,,,,,,,,,,,,,,,,,,,,,,,,,,,,,,,,,,,,,,,,,,,,,,,,,,,,,,,,,,,,,,,,,,,,,,,,,,,,,,,,,,,,,,,,,,,,,,,,,,,,,,,,,,,,,,,,,,,,,,,,,,,,,,,,,,,,,,,,,,
,,,,,,5ec7b7f0079cdc22125201eb,62c53a9a3c3942f0dbd9d101,2022-07-06_10h33.22.550,Colour_Asymmetry_Pilot,2022.1.3,Win32,144.7178003,62c50e9c1127f2cd403a315f,0,23,23,76,1,threeone,,,,,,,,,,,,,,,,,,,,,,,,,,,,,,,,,,,,,,,,,,,,,,,,,,,,,,,,,,,,,,,,,,,,,,,,,,,,,,,,,,,,,,,,,,,,,,,,,,,,,,,,,,,,,,,,,,,,,,,,,,,,,,,,,,,,,,,,,,,,,,,,,,,,,,,,,,,,,
,,,,,,5ec7b7f0079cdc22125201eb,62c53a9a3c3942f0dbd9d101,2022-07-06_10h33.22.550,Colour_Asymmetry_Pilot,2022.1.3,Win32,144.7178003,62c50e9c1127f2cd403a315f,0,24,24,136,1,onetwo,,,,,,,,,,,,,,,,,,,,,,,,,,,,,,,,,,,,,,,,,,,,,,,,,,,,,,,,,,,,,,,,,,,,,,,,,,,,,,,,,,,,,,,,,,,,,,,,,,,,,,,,,,,,,,,,,,,,,,,,,,,,,,,,,,,,,,,,,,,,,,,,,,,,,,,,,,,,,
,,,,,,5ec7b7f0079cdc22125201eb,62c53a9a3c3942f0dbd9d101,2022-07-06_10h33.22.550,Colour_Asymmetry_Pilot,2022.1.3,Win32,144.7178003,62c50e9c1127f2cd403a315f,0,25,25,127,1,fourthree,,,,,,,,,,,,,,,,,,,,,,,,,,,,,,,,,,,,,,,,,,,,,,,,,,,,,,,,,,,,,,,,,,,,,,,,,,,,,,,,,,,,,,,,,,,,,,,,,,,,,,,,,,,,,,,,,,,,,,,,,,,,,,,,,,,,,,,,,,,,,,,,,,,,,,,,,,,,,
,,,,,,5ec7b7f0079cdc22125201eb,62c53a9a3c3942f0dbd9d101,2022-07-06_10h33.22.550,Colour_Asymmetry_Pilot,2022.1.3,Win32,144.7178003,62c50e9c1127f2cd403a315f,0,26,26,56,1,onetwo,,,,,,,,,,,,,,,,,,,,,,,,,,,,,,,,,,,,,,,,,,,,,,,,,,,,,,,,,,,,,,,,,,,,,,,,,,,,,,,,,,,,,,,,,,,,,,,,,,,,,,,,,,,,,,,,,,,,,,,,,,,,,,,,,,,,,,,,,,,,,,,,,,,,,,,,,,,,,
,,,,,,5ec7b7f0079cdc22125201eb,62c53a9a3c3942f0dbd9d101,2022-07-06_10h33.22.550,Colour_Asymmetry_Pilot,2022.1.3,Win32,144.7178003,62c50e9c1127f2cd403a315f,0,27,27,55,1,fourthree,,,,,,,,,,,,,,,,,,,,,,,,,,,,,,,,,,,,,,,,,,,,,,,,,,,,,,,,,,,,,,,,,,,,,,,,,,,,,,,,,,,,,,,,,,,,,,,,,,,,,,,,,,,,,,,,,,,,,,,,,,,,,,,,,,,,,,,,,,,,,,,,,,,,,,,,,,,,,
,,,,,,5ec7b7f0079cdc22125201eb,62c53a9a3c3942f0dbd9d101,2022-07-06_10h33.22.550,Colour_Asymmetry_Pilot,2022.1.3,Win32,144.7178003,62c50e9c1127f2cd403a315f,0,28,28,41,1,onethree,,,,,,,,,,,,,,,,,,,,,,,,,,,,,,,,,,,,,,,,,,,,,,,,,,,,,,,,,,,,,,,,,,,,,,,,,,,,,,,,,,,,,,,,,,,,,,,,,,,,,,,,,,,,,,,,,,,,,,,,,,,,,,,,,,,,,,,,,,,,,,,,,,,,,,,,,,,,,
,,,,,,5ec7b7f0079cdc22125201eb,62c53a9a3c3942f0dbd9d101,2022-07-06_10h33.22.550,Colour_Asymmetry_Pilot,2022.1.3,Win32,144.7178003,62c50e9c1127f2cd403a315f,0,29,29,122,1,twoone,,,,,,,,,,,,,,,,,,,,,,,,,,,,,,,,,,,,,,,,,,,,,,,,,,,,,,,,,,,,,,,,,,,,,,,,,,,,,,,,,,,,,,,,,,,,,,,,,,,,,,,,,,,,,,,,,,,,,,,,,,,,,,,,,,,,,,,,,,,,,,,,,,,,,,,,,,,,,
,,,,,,5ec7b7f0079cdc22125201eb,62c53a9a3c3942f0dbd9d101,2022-07-06_10h33.22.550,Colour_Asymmetry_Pilot,2022.1.3,Win32,144.7178003,62c50e9c1127f2cd403a315f,0,30,30,112,1,onetwo,,,,,,,,,,,,,,,,,,,,,,,,,,,,,,,,,,,,,,,,,,,,,,,,,,,,,,,,,,,,,,,,,,,,,,,,,,,,,,,,,,,,,,,,,,,,,,,,,,,,,,,,,,,,,,,,,,,,,,,,,,,,,,,,,,,,,,,,,,,,,,,,,,,,,,,,,,,,,
,,,,,,5ec7b7f0079cdc22125201eb,62c53a9a3c3942f0dbd9d101,2022-07-06_10h33.22.550,Colour_Asymmetry_Pilot,2022.1.3,Win32,144.7178003,62c50e9c1127f2cd403a315f,0,31,31,32,1,onetwo,,,,,,,,,,,,,,,,,,,,,,,,,,,,,,,,,,,,,,,,,,,,,,,,,,,,,,,,,,,,,,,,,,,,,,,,,,,,,,,,,,,,,,,,,,,,,,,,,,,,,,,,,,,,,,,,,,,,,,,,,,,,,,,,,,,,,,,,,,,,,,,,,,,,,,,,,,,,,
,,,,,,5ec7b7f0079cdc22125201eb,62c53a9a3c3942f0dbd9d101,2022-07-06_10h33.22.550,Colour_Asymmetry_Pilot,2022.1.3,Win32,144.7178003,62c50e9c1127f2cd403a315f,0,32,32,161,1,onethree,,,,,,,,,,,,,,,,,,,,,,,,,,,,,,,,,,,,,,,,,,,,,,,,,,,,,,,,,,,,,,,,,,,,,,,,,,,,,,,,,,,,,,,,,,,,,,,,,,,,,,,,,,,,,,,,,,,,,,,,,,,,,,,,,,,,,,,,,,,,,,,,,,,,,,,,,,,,,
,,,,,,5ec7b7f0079cdc22125201eb,62c53a9a3c3942f0dbd9d101,2022-07-06_10h33.22.550,Colour_Asymmetry_Pilot,2022.1.3,Win32,144.7178003,62c50e9c1127f2cd403a315f,0,33,33,59,1,twofour,,,,,,,,,,,,,,,,,,,,,,,,,,,,,,,,,,,,,,,,,,,,,,,,,,,,,,,,,,,,,,,,,,,,,,,,,,,,,,,,,,,,,,,,,,,,,,,,,,,,,,,,,,,,,,,,,,,,,,,,,,,,,,,,,,,,,,,,,,,,,,,,,,,,,,,,,,,,,
,,,,,,5ec7b7f0079cdc22125201eb,62c53a9a3c3942f0dbd9d101,2022-07-06_10h33.22.550,Colour_Asymmetry_Pilot,2022.1.3,Win32,144.7178003,62c50e9c1127f2cd403a315f,0,34,34,1,1,onethree,,,,,,,,,,,,,,,,,,,,,,,,,,,,,,,,,,,,,,,,,,,,,,,,,,,,,,,,,,,,,,,,,,,,,,,,,,,,,,,,,,,,,,,,,,,,,,,,,,,,,,,,,,,,,,,,,,,,,,,,,,,,,,,,,,,,,,,,,,,,,,,,,,,,,,,,,,,,,
,,,,,,5ec7b7f0079cdc22125201eb,62c53a9a3c3942f0dbd9d101,2022-07-06_10h33.22.550,Colour_Asymmetry_Pilot,2022.1.3,Win32,144.7178003,62c50e9c1127f2cd403a315f,0,35,35,96,1,onetwo,,,,,,,,,,,,,,,,,,,,,,,,,,,,,,,,,,,,,,,,,,,,,,,,,,,,,,,,,,,,,,,,,,,,,,,,,,,,,,,,,,,,,,,,,,,,,,,,,,,,,,,,,,,,,,,,,,,,,,,,,,,,,,,,,,,,,,,,,,,,,,,,,,,,,,,,,,,,,
,,,,,,5ec7b7f0079cdc22125201eb,62c53a9a3c3942f0dbd9d101,2022-07-06_10h33.22.550,Colour_Asymmetry_Pilot,2022.1.3,Win32,144.7178003,62c50e9c1127f2cd403a315f,0,36,36,146,1,twoone,,,,,,,,,,,,,,,,,,,,,,,,,,,,,,,,,,,,,,,,,,,,,,,,,,,,,,,,,,,,,,,,,,,,,,,,,,,,,,,,,,,,,,,,,,,,,,,,,,,,,,,,,,,,,,,,,,,,,,,,,,,,,,,,,,,,,,,,,,,,,,,,,,,,,,,,,,,,,
,,,,,,5ec7b7f0079cdc22125201eb,62c53a9a3c3942f0dbd9d101,2022-07-06_10h33.22.550,Colour_Asymmetry_Pilot,2022.1.3,Win32,144.7178003,62c50e9c1127f2cd403a315f,0,37,37,108,1,threeone,,,,,,,,,,,,,,,,,,,,,,,,,,,,,,,,,,,,,,,,,,,,,,,,,,,,,,,,,,,,,,,,,,,,,,,,,,,,,,,,,,,,,,,,,,,,,,,,,,,,,,,,,,,,,,,,,,,,,,,,,,,,,,,,,,,,,,,,,,,,,,,,,,,,,,,,,,,,,
,,,,,,5ec7b7f0079cdc22125201eb,62c53a9a3c3942f0dbd9d101,2022-07-06_10h33.22.550,Colour_Asymmetry_Pilot,2022.1.3,Win32,144.7178003,62c50e9c1127f2cd403a315f,0,38,38,155,1,twofour,,,,,,,,,,,,,,,,,,,,,,,,,,,,,,,,,,,,,,,,,,,,,,,,,,,,,,,,,,,,,,,,,,,,,,,,,,,,,,,,,,,,,,,,,,,,,,,,,,,,,,,,,,,,,,,,,,,,,,,,,,,,,,,,,,,,,,,,,,,,,,,,,,,,,,,,,,,,,
,,,,,,5ec7b7f0079cdc22125201eb,62c53a9a3c3942f0dbd9d101,2022-07-06_10h33.22.550,Colour_Asymmetry_Pilot,2022.1.3,Win32,144.7178003,62c50e9c1127f2cd403a315f,0,39,39,19,1,twofour,,,,,,,,,,,,,,,,,,,,,,,,,,,,,,,,,,,,,,,,,,,,,,,,,,,,,,,,,,,,,,,,,,,,,,,,,,,,,,,,,,,,,,,,,,,,,,,,,,,,,,,,,,,,,,,,,,,,,,,,,,,,,,,,,,,,,,,,,,,,,,,,,,,,,,,,,,,,,
,,,,,,5ec7b7f0079cdc22125201eb,62c53a9a3c3942f0dbd9d101,2022-07-06_10h33.22.550,Colour_Asymmetry_Pilot,2022.1.3,Win32,144.7178003,62c50e9c1127f2cd403a315f,0,40,40,143,1,fourthree,,,,,,,,,,,,,,,,,,,,,,,,,,,,,,,,,,,,,,,,,,,,,,,,,,,,,,,,,,,,,,,,,,,,,,,,,,,,,,,,,,,,,,,,,,,,,,,,,,,,,,,,,,,,,,,,,,,,,,,,,,,,,,,,,,,,,,,,,,,,,,,,,,,,,,,,,,,,,
,,,,,,5ec7b7f0079cdc22125201eb,62c53a9a3c3942f0dbd9d101,2022-07-06_10h33.22.550,Colour_Asymmetry_Pilot,2022.1.3,Win32,144.7178003,62c50e9c1127f2cd403a315f,0,41,41,35,1,twofour,,,,,,,,,,,,,,,,,,,,,,,,,,,,,,,,,,,,,,,,,,,,,,,,,,,,,,,,,,,,,,,,,,,,,,,,,,,,,,,,,,,,,,,,,,,,,,,,,,,,,,,,,,,,,,,,,,,,,,,,,,,,,,,,,,,,,,,,,,,,,,,,,,,,,,,,,,,,,
,,,,,,5ec7b7f0079cdc22125201eb,62c53a9a3c3942f0dbd9d101,2022-07-06_10h33.22.550,Colour_Asymmetry_Pilot,2022.1.3,Win32,144.7178003,62c50e9c1127f2cd403a315f,0,42,42,117,1,threefour,,,,,,,,,,,,,,,,,,,,,,,,,,,,,,,,,,,,,,,,,,,,,,,,,,,,,,,,,,,,,,,,,,,,,,,,,,,,,,,,,,,,,,,,,,,,,,,,,,,,,,,,,,,,,,,,,,,,,,,,,,,,,,,,,,,,,,,,,,,,,,,,,,,,,,,,,,,,,
,,,,,,5ec7b7f0079cdc22125201eb,62c53a9a3c3942f0dbd9d101,2022-07-06_10h33.22.550,Colour_Asymmetry_Pilot,2022.1.3,Win32,144.7178003,62c50e9c1127f2cd403a315f,0,43,43,94,1,fourtwo,,,,,,,,,,,,,,,,,,,,,,,,,,,,,,,,,,,,,,,,,,,,,,,,,,,,,,,,,,,,,,,,,,,,,,,,,,,,,,,,,,,,,,,,,,,,,,,,,,,,,,,,,,,,,,,,,,,,,,,,,,,,,,,,,,,,,,,,,,,,,,,,,,,,,,,,,,,,,
,,,,,,5ec7b7f0079cdc22125201eb,62c53a9a3c3942f0dbd9d101,2022-07-06_10h33.22.550,Colour_Asymmetry_Pilot,2022.1.3,Win32,144.7178003,62c50e9c1127f2cd403a315f,0,44,44,33,1,onethree,,,,,,,,,,,,,,,,,,,,,,,,,,,,,,,,,,,,,,,,,,,,,,,,,,,,,,,,,,,,,,,,,,,,,,,,,,,,,,,,,,,,,,,,,,,,,,,,,,,,,,,,,,,,,,,,,,,,,,,,,,,,,,,,,,,,,,,,,,,,,,,,,,,,,,,,,,,,,
,,,,,,5ec7b7f0079cdc22125201eb,62c53a9a3c3942f0dbd9d101,2022-07-06_10h33.22.550,Colour_Asymmetry_Pilot,2022.1.3,Win32,144.7178003,62c50e9c1127f2cd403a315f,0,45,45,89,1,onethree,,,,,,,,,,,,,,,,,,,,,,,,,,,,,,,,,,,,,,,,,,,,,,,,,,,,,,,,,,,,,,,,,,,,,,,,,,,,,,,,,,,,,,,,,,,,,,,,,,,,,,,,,,,,,,,,,,,,,,,,,,,,,,,,,,,,,,,,,,,,,,,,,,,,,,,,,,,,,
,,,,,,5ec7b7f0079cdc22125201eb,62c53a9a3c3942f0dbd9d101,2022-07-06_10h33.22.550,Colour_Asymmetry_Pilot,2022.1.3,Win32,144.7178003,62c50e9c1127f2cd403a315f,0,46,46,58,1,twoone,,,,,,,,,,,,,,,,,,,,,,,,,,,,,,,,,,,,,,,,,,,,,,,,,,,,,,,,,,,,,,,,,,,,,,,,,,,,,,,,,,,,,,,,,,,,,,,,,,,,,,,,,,,,,,,,,,,,,,,,,,,,,,,,,,,,,,,,,,,,,,,,,,,,,,,,,,,,,
,,,,,,5ec7b7f0079cdc22125201eb,62c53a9a3c3942f0dbd9d101,2022-07-06_10h33.22.550,Colour_Asymmetry_Pilot,2022.1.3,Win32,144.7178003,62c50e9c1127f2cd403a315f,0,47,47,5,1,threefour,,,,,,,,,,,,,,,,,,,,,,,,,,,,,,,,,,,,,,,,,,,,,,,,,,,,,,,,,,,,,,,,,,,,,,,,,,,,,,,,,,,,,,,,,,,,,,,,,,,,,,,,,,,,,,,,,,,,,,,,,,,,,,,,,,,,,,,,,,,,,,,,,,,,,,,,,,,,,
,,,,,,5ec7b7f0079cdc22125201eb,62c53a9a3c3942f0dbd9d101,2022-07-06_10h33.22.550,Colour_Asymmetry_Pilot,2022.1.3,Win32,144.7178003,62c50e9c1127f2cd403a315f,0,48,48,26,1,twoone,,,,,,,,,,,,,,,,,,,,,,,,,,,,,,,,,,,,,,,,,,,,,,,,,,,,,,,,,,,,,,,,,,,,,,,,,,,,,,,,,,,,,,,,,,,,,,,,,,,,,,,,,,,,,,,,,,,,,,,,,,,,,,,,,,,,,,,,,,,,,,,,,,,,,,,,,,,,,
,,,,,,5ec7b7f0079cdc22125201eb,62c53a9a3c3942f0dbd9d101,2022-07-06_10h33.22.550,Colour_Asymmetry_Pilot,2022.1.3,Win32,144.7178003,62c50e9c1127f2cd403a315f,0,49,49,137,1,onethree,,,,,,,,,,,,,,,,,,,,,,,,,,,,,,,,,,,,,,,,,,,,,,,,,,,,,,,,,,,,,,,,,,,,,,,,,,,,,,,,,,,,,,,,,,,,,,,,,,,,,,,,,,,,,,,,,,,,,,,,,,,,,,,,,,,,,,,,,,,,,,,,,,,,,,,,,,,,,
,,,,,,5ec7b7f0079cdc22125201eb,62c53a9a3c3942f0dbd9d101,2022-07-06_10h33.22.550,Colour_Asymmetry_Pilot,2022.1.3,Win32,144.7178003,62c50e9c1127f2cd403a315f,0,50,50,140,1,threeone,,,,,,,,,,,,,,,,,,,,,,,,,,,,,,,,,,,,,,,,,,,,,,,,,,,,,,,,,,,,,,,,,,,,,,,,,,,,,,,,,,,,,,,,,,,,,,,,,,,,,,,,,,,,,,,,,,,,,,,,,,,,,,,,,,,,,,,,,,,,,,,,,,,,,,,,,,,,,
,,,,,,5ec7b7f0079cdc22125201eb,62c53a9a3c3942f0dbd9d101,2022-07-06_10h33.22.550,Colour_Asymmetry_Pilot,2022.1.3,Win32,144.7178003,62c50e9c1127f2cd403a315f,0,51,51,2,1,twoone,,,,,,,,,,,,,,,,,,,,,,,,,,,,,,,,,,,,,,,,,,,,,,,,,,,,,,,,,,,,,,,,,,,,,,,,,,,,,,,,,,,,,,,,,,,,,,,,,,,,,,,,,,,,,,,,,,,,,,,,,,,,,,,,,,,,,,,,,,,,,,,,,,,,,,,,,,,,,
,,,,,,5ec7b7f0079cdc22125201eb,62c53a9a3c3942f0dbd9d101,2022-07-06_10h33.22.550,Colour_Asymmetry_Pilot,2022.1.3,Win32,144.7178003,62c50e9c1127f2cd403a315f,0,52,52,159,1,fourthree,,,,,,,,,,,,,,,,,,,,,,,,,,,,,,,,,,,,,,,,,,,,,,,,,,,,,,,,,,,,,,,,,,,,,,,,,,,,,,,,,,,,,,,,,,,,,,,,,,,,,,,,,,,,,,,,,,,,,,,,,,,,,,,,,,,,,,,,,,,,,,,,,,,,,,,,,,,,,
,,,,,,5ec7b7f0079cdc22125201eb,62c53a9a3c3942f0dbd9d101,2022-07-06_10h33.22.550,Colour_Asymmetry_Pilot,2022.1.3,Win32,144.7178003,62c50e9c1127f2cd403a315f,0,53,53,83,1,twofour,,,,,,,,,,,,,,,,,,,,,,,,,,,,,,,,,,,,,,,,,,,,,,,,,,,,,,,,,,,,,,,,,,,,,,,,,,,,,,,,,,,,,,,,,,,,,,,,,,,,,,,,,,,,,,,,,,,,,,,,,,,,,,,,,,,,,,,,,,,,,,,,,,,,,,,,,,,,,
,,,,,,5ec7b7f0079cdc22125201eb,62c53a9a3c3942f0dbd9d101,2022-07-06_10h33.22.550,Colour_Asymmetry_Pilot,2022.1.3,Win32,144.7178003,62c50e9c1127f2cd403a315f,0,54,54,144,1,onetwo,,,,,,,,,,,,,,,,,,,,,,,,,,,,,,,,,,,,,,,,,,,,,,,,,,,,,,,,,,,,,,,,,,,,,,,,,,,,,,,,,,,,,,,,,,,,,,,,,,,,,,,,,,,,,,,,,,,,,,,,,,,,,,,,,,,,,,,,,,,,,,,,,,,,,,,,,,,,,
,,,,,,5ec7b7f0079cdc22125201eb,62c53a9a3c3942f0dbd9d101,2022-07-06_10h33.22.550,Colour_Asymmetry_Pilot,2022.1.3,Win32,144.7178003,62c50e9c1127f2cd403a315f,0,55,55,114,1,twoone,,,,,,,,,,,,,,,,,,,,,,,,,,,,,,,,,,,,,,,,,,,,,,,,,,,,,,,,,,,,,,,,,,,,,,,,,,,,,,,,,,,,,,,,,,,,,,,,,,,,,,,,,,,,,,,,,,,,,,,,,,,,,,,,,,,,,,,,,,,,,,,,,,,,,,,,,,,,,
,,,,,,5ec7b7f0079cdc22125201eb,62c53a9a3c3942f0dbd9d101,2022-07-06_10h33.22.550,Colour_Asymmetry_Pilot,2022.1.3,Win32,144.7178003,62c50e9c1127f2cd403a315f,0,56,56,40,1,onetwo,,,,,,,,,,,,,,,,,,,,,,,,,,,,,,,,,,,,,,,,,,,,,,,,,,,,,,,,,,,,,,,,,,,,,,,,,,,,,,,,,,,,,,,,,,,,,,,,,,,,,,,,,,,,,,,,,,,,,,,,,,,,,,,,,,,,,,,,,,,,,,,,,,,,,,,,,,,,,
,,,,,,5ec7b7f0079cdc22125201eb,62c53a9a3c3942f0dbd9d101,2022-07-06_10h33.22.550,Colour_Asymmetry_Pilot,2022.1.3,Win32,144.7178003,62c50e9c1127f2cd403a315f,0,57,57,153,1,onethree,,,,,,,,,,,,,,,,,,,,,,,,,,,,,,,,,,,,,,,,,,,,,,,,,,,,,,,,,,,,,,,,,,,,,,,,,,,,,,,,,,,,,,,,,,,,,,,,,,,,,,,,,,,,,,,,,,,,,,,,,,,,,,,,,,,,,,,,,,,,,,,,,,,,,,,,,,,,,
,,,,,,5ec7b7f0079cdc22125201eb,62c53a9a3c3942f0dbd9d101,2022-07-06_10h33.22.550,Colour_Asymmetry_Pilot,2022.1.3,Win32,144.7178003,62c50e9c1127f2cd403a315f,0,58,58,38,1,fourtwo,,,,,,,,,,,,,,,,,,,,,,,,,,,,,,,,,,,,,,,,,,,,,,,,,,,,,,,,,,,,,,,,,,,,,,,,,,,,,,,,,,,,,,,,,,,,,,,,,,,,,,,,,,,,,,,,,,,,,,,,,,,,,,,,,,,,,,,,,,,,,,,,,,,,,,,,,,,,,
,,,,,,5ec7b7f0079cdc22125201eb,62c53a9a3c3942f0dbd9d101,2022-07-06_10h33.22.550,Colour_Asymmetry_Pilot,2022.1.3,Win32,144.7178003,62c50e9c1127f2cd403a315f,0,59,59,126,1,fourtwo,,,,,,,,,,,,,,,,,,,,,,,,,,,,,,,,,,,,,,,,,,,,,,,,,,,,,,,,,,,,,,,,,,,,,,,,,,,,,,,,,,,,,,,,,,,,,,,,,,,,,,,,,,,,,,,,,,,,,,,,,,,,,,,,,,,,,,,,,,,,,,,,,,,,,,,,,,,,,
,,,,,,5ec7b7f0079cdc22125201eb,62c53a9a3c3942f0dbd9d101,2022-07-06_10h33.22.550,Colour_Asymmetry_Pilot,2022.1.3,Win32,144.7178003,62c50e9c1127f2cd403a315f,0,60,60,68,1,threeone,,,,,,,,,,,,,,,,,,,,,,,,,,,,,,,,,,,,,,,,,,,,,,,,,,,,,,,,,,,,,,,,,,,,,,,,,,,,,,,,,,,,,,,,,,,,,,,,,,,,,,,,,,,,,,,,,,,,,,,,,,,,,,,,,,,,,,,,,,,,,,,,,,,,,,,,,,,,,
,,,,,,5ec7b7f0079cdc22125201eb,62c53a9a3c3942f0dbd9d101,2022-07-06_10h33.22.550,Colour_Asymmetry_Pilot,2022.1.3,Win32,144.7178003,62c50e9c1127f2cd403a315f,0,61,61,67,1,twofour,,,,,,,,,,,,,,,,,,,,,,,,,,,,,,,,,,,,,,,,,,,,,,,,,,,,,,,,,,,,,,,,,,,,,,,,,,,,,,,,,,,,,,,,,,,,,,,,,,,,,,,,,,,,,,,,,,,,,,,,,,,,,,,,,,,,,,,,,,,,,,,,,,,,,,,,,,,,,
,,,,,,5ec7b7f0079cdc22125201eb,62c53a9a3c3942f0dbd9d101,2022-07-06_10h33.22.550,Colour_Asymmetry_Pilot,2022.1.3,Win32,144.7178003,62c50e9c1127f2cd403a315f,0,62,62,21,1,threefour,,,,,,,,,,,,,,,,,,,,,,,,,,,,,,,,,,,,,,,,,,,,,,,,,,,,,,,,,,,,,,,,,,,,,,,,,,,,,,,,,,,,,,,,,,,,,,,,,,,,,,,,,,,,,,,,,,,,,,,,,,,,,,,,,,,,,,,,,,,,,,,,,,,,,,,,,,,,,
,,,,,,5ec7b7f0079cdc22125201eb,62c53a9a3c3942f0dbd9d101,2022-07-06_10h33.22.550,Colour_Asymmetry_Pilot,2022.1.3,Win32,144.7178003,62c50e9c1127f2cd403a315f,0,63,63,80,1,onetwo,,,,,,,,,,,,,,,,,,,,,,,,,,,,,,,,,,,,,,,,,,,,,,,,,,,,,,,,,,,,,,,,,,,,,,,,,,,,,,,,,,,,,,,,,,,,,,,,,,,,,,,,,,,,,,,,,,,,,,,,,,,,,,,,,,,,,,,,,,,,,,,,,,,,,,,,,,,,,
,,,,,,5ec7b7f0079cdc22125201eb,62c53a9a3c3942f0dbd9d101,2022-07-06_10h33.22.550,Colour_Asymmetry_Pilot,2022.1.3,Win32,144.7178003,62c50e9c1127f2cd403a315f,0,64,64,66,1,twoone,,,,,,,,,,,,,,,,,,,,,,,,,,,,,,,,,,,,,,,,,,,,,,,,,,,,,,,,,,,,,,,,,,,,,,,,,,,,,,,,,,,,,,,,,,,,,,,,,,,,,,,,,,,,,,,,,,,,,,,,,,,,,,,,,,,,,,,,,,,,,,,,,,,,,,,,,,,,,
,,,,,,5ec7b7f0079cdc22125201eb,62c53a9a3c3942f0dbd9d101,2022-07-06_10h33.22.550,Colour_Asymmetry_Pilot,2022.1.3,Win32,144.7178003,62c50e9c1127f2cd403a315f,0,65,65,121,1,onethree,,,,,,,,,,,,,,,,,,,,,,,,,,,,,,,,,,,,,,,,,,,,,,,,,,,,,,,,,,,,,,,,,,,,,,,,,,,,,,,,,,,,,,,,,,,,,,,,,,,,,,,,,,,,,,,,,,,,,,,,,,,,,,,,,,,,,,,,,,,,,,,,,,,,,,,,,,,,,
,,,,,,5ec7b7f0079cdc22125201eb,62c53a9a3c3942f0dbd9d101,2022-07-06_10h33.22.550,Colour_Asymmetry_Pilot,2022.1.3,Win32,144.7178003,62c50e9c1127f2cd403a315f,0,66,66,31,1,fourthree,,,,,,,,,,,,,,,,,,,,,,,,,,,,,,,,,,,,,,,,,,,,,,,,,,,,,,,,,,,,,,,,,,,,,,,,,,,,,,,,,,,,,,,,,,,,,,,,,,,,,,,,,,,,,,,,,,,,,,,,,,,,,,,,,,,,,,,,,,,,,,,,,,,,,,,,,,,,,
,,,,,,5ec7b7f0079cdc22125201eb,62c53a9a3c3942f0dbd9d101,2022-07-06_10h33.22.550,Colour_Asymmetry_Pilot,2022.1.3,Win32,144.7178003,62c50e9c1127f2cd403a315f,0,67,67,160,1,onetwo,,,,,,,,,,,,,,,,,,,,,,,,,,,,,,,,,,,,,,,,,,,,,,,,,,,,,,,,,,,,,,,,,,,,,,,,,,,,,,,,,,,,,,,,,,,,,,,,,,,,,,,,,,,,,,,,,,,,,,,,,,,,,,,,,,,,,,,,,,,,,,,,,,,,,,,,,,,,,
,,,,,,5ec7b7f0079cdc22125201eb,62c53a9a3c3942f0dbd9d101,2022-07-06_10h33.22.550,Colour_Asymmetry_Pilot,2022.1.3,Win32,144.7178003,62c50e9c1127f2cd403a315f,0,68,68,51,1,twofour,,,,,,,,,,,,,,,,,,,,,,,,,,,,,,,,,,,,,,,,,,,,,,,,,,,,,,,,,,,,,,,,,,,,,,,,,,,,,,,,,,,,,,,,,,,,,,,,,,,,,,,,,,,,,,,,,,,,,,,,,,,,,,,,,,,,,,,,,,,,,,,,,,,,,,,,,,,,,
,,,,,,5ec7b7f0079cdc22125201eb,62c53a9a3c3942f0dbd9d101,2022-07-06_10h33.22.550,Colour_Asymmetry_Pilot,2022.1.3,Win32,144.7178003,62c50e9c1127f2cd403a315f,0,69,69,90,1,twoone,,,,,,,,,,,,,,,,,,,,,,,,,,,,,,,,,,,,,,,,,,,,,,,,,,,,,,,,,,,,,,,,,,,,,,,,,,,,,,,,,,,,,,,,,,,,,,,,,,,,,,,,,,,,,,,,,,,,,,,,,,,,,,,,,,,,,,,,,,,,,,,,,,,,,,,,,,,,,
,,,,,,5ec7b7f0079cdc22125201eb,62c53a9a3c3942f0dbd9d101,2022-07-06_10h33.22.550,Colour_Asymmetry_Pilot,2022.1.3,Win32,144.7178003,62c50e9c1127f2cd403a315f,0,70,70,61,1,threefour,,,,,,,,,,,,,,,,,,,,,,,,,,,,,,,,,,,,,,,,,,,,,,,,,,,,,,,,,,,,,,,,,,,,,,,,,,,,,,,,,,,,,,,,,,,,,,,,,,,,,,,,,,,,,,,,,,,,,,,,,,,,,,,,,,,,,,,,,,,,,,,,,,,,,,,,,,,,,
,,,,,,5ec7b7f0079cdc22125201eb,62c53a9a3c3942f0dbd9d101,2022-07-06_10h33.22.550,Colour_Asymmetry_Pilot,2022.1.3,Win32,144.7178003,62c50e9c1127f2cd403a315f,0,71,71,20,1,threeone,,,,,,,,,,,,,,,,,,,,,,,,,,,,,,,,,,,,,,,,,,,,,,,,,,,,,,,,,,,,,,,,,,,,,,,,,,,,,,,,,,,,,,,,,,,,,,,,,,,,,,,,,,,,,,,,,,,,,,,,,,,,,,,,,,,,,,,,,,,,,,,,,,,,,,,,,,,,,
,,,,,,5ec7b7f0079cdc22125201eb,62c53a9a3c3942f0dbd9d101,2022-07-06_10h33.22.550,Colour_Asymmetry_Pilot,2022.1.3,Win32,144.7178003,62c50e9c1127f2cd403a315f,0,72,72,50,1,twoone,,,,,,,,,,,,,,,,,,,,,,,,,,,,,,,,,,,,,,,,,,,,,,,,,,,,,,,,,,,,,,,,,,,,,,,,,,,,,,,,,,,,,,,,,,,,,,,,,,,,,,,,,,,,,,,,,,,,,,,,,,,,,,,,,,,,,,,,,,,,,,,,,,,,,,,,,,,,,
,,,,,,5ec7b7f0079cdc22125201eb,62c53a9a3c3942f0dbd9d101,2022-07-06_10h33.22.550,Colour_Asymmetry_Pilot,2022.1.3,Win32,144.7178003,62c50e9c1127f2cd403a315f,0,73,73,110,1,fourtwo,,,,,,,,,,,,,,,,,,,,,,,,,,,,,,,,,,,,,,,,,,,,,,,,,,,,,,,,,,,,,,,,,,,,,,,,,,,,,,,,,,,,,,,,,,,,,,,,,,,,,,,,,,,,,,,,,,,,,,,,,,,,,,,,,,,,,,,,,,,,,,,,,,,,,,,,,,,,,
,,,,,,5ec7b7f0079cdc22125201eb,62c53a9a3c3942f0dbd9d101,2022-07-06_10h33.22.550,Colour_Asymmetry_Pilot,2022.1.3,Win32,144.7178003,62c50e9c1127f2cd403a315f,0,74,74,85,1,threefour,,,,,,,,,,,,,,,,,,,,,,,,,,,,,,,,,,,,,,,,,,,,,,,,,,,,,,,,,,,,,,,,,,,,,,,,,,,,,,,,,,,,,,,,,,,,,,,,,,,,,,,,,,,,,,,,,,,,,,,,,,,,,,,,,,,,,,,,,,,,,,,,,,,,,,,,,,,,,
,,,,,,5ec7b7f0079cdc22125201eb,62c53a9a3c3942f0dbd9d101,2022-07-06_10h33.22.550,Colour_Asymmetry_Pilot,2022.1.3,Win32,144.7178003,62c50e9c1127f2cd403a315f,0,75,75,10,1,twoone,,,,,,,,,,,,,,,,,,,,,,,,,,,,,,,,,,,,,,,,,,,,,,,,,,,,,,,,,,,,,,,,,,,,,,,,,,,,,,,,,,,,,,,,,,,,,,,,,,,,,,,,,,,,,,,,,,,,,,,,,,,,,,,,,,,,,,,,,,,,,,,,,,,,,,,,,,,,,
,,,,,,5ec7b7f0079cdc22125201eb,62c53a9a3c3942f0dbd9d101,2022-07-06_10h33.22.550,Colour_Asymmetry_Pilot,2022.1.3,Win32,144.7178003,62c50e9c1127f2cd403a315f,0,76,76,9,1,onethree,,,,,,,,,,,,,,,,,,,,,,,,,,,,,,,,,,,,,,,,,,,,,,,,,,,,,,,,,,,,,,,,,,,,,,,,,,,,,,,,,,,,,,,,,,,,,,,,,,,,,,,,,,,,,,,,,,,,,,,,,,,,,,,,,,,,,,,,,,,,,,,,,,,,,,,,,,,,,
,,,,,,5ec7b7f0079cdc22125201eb,62c53a9a3c3942f0dbd9d101,2022-07-06_10h33.22.550,Colour_Asymmetry_Pilot,2022.1.3,Win32,144.7178003,62c50e9c1127f2cd403a315f,0,77,77,71,1,fourthree,,,,,,,,,,,,,,,,,,,,,,,,,,,,,,,,,,,,,,,,,,,,,,,,,,,,,,,,,,,,,,,,,,,,,,,,,,,,,,,,,,,,,,,,,,,,,,,,,,,,,,,,,,,,,,,,,,,,,,,,,,,,,,,,,,,,,,,,,,,,,,,,,,,,,,,,,,,,,
,,,,,,5ec7b7f0079cdc22125201eb,62c53a9a3c3942f0dbd9d101,2022-07-06_10h33.22.550,Colour_Asymmetry_Pilot,2022.1.3,Win32,144.7178003,62c50e9c1127f2cd403a315f,0,78,78,97,1,onethree,,,,,,,,,,,,,,,,,,,,,,,,,,,,,,,,,,,,,,,,,,,,,,,,,,,,,,,,,,,,,,,,,,,,,,,,,,,,,,,,,,,,,,,,,,,,,,,,,,,,,,,,,,,,,,,,,,,,,,,,,,,,,,,,,,,,,,,,,,,,,,,,,,,,,,,,,,,,,
,,,,,,5ec7b7f0079cdc22125201eb,62c53a9a3c3942f0dbd9d101,2022-07-06_10h33.22.550,Colour_Asymmetry_Pilot,2022.1.3,Win32,144.7178003,62c50e9c1127f2cd403a315f,0,79,79,158,1,fourtwo,,,,,,,,,,,,,,,,,,,,,,,,,,,,,,,,,,,,,,,,,,,,,,,,,,,,,,,,,,,,,,,,,,,,,,,,,,,,,,,,,,,,,,,,,,,,,,,,,,,,,,,,,,,,,,,,,,,,,,,,,,,,,,,,,,,,,,,,,,,,,,,,,,,,,,,,,,,,,
,,,,,,5ec7b7f0079cdc22125201eb,62c53a9a3c3942f0dbd9d101,2022-07-06_10h33.22.550,Colour_Asymmetry_Pilot,2022.1.3,Win32,144.7178003,62c50e9c1127f2cd403a315f,0,80,80,156,1,threeone,,,,,,,,,,,,,,,,,,,,,,,,,,,,,,,,,,,,,,,,,,,,,,,,,,,,,,,,,,,,,,,,,,,,,,,,,,,,,,,,,,,,,,,,,,,,,,,,,,,,,,,,,,,,,,,,,,,,,,,,,,,,,,,,,,,,,,,,,,,,,,,,,,,,,,,,,,,,,
,,,,,,5ec7b7f0079cdc22125201eb,62c53a9a3c3942f0dbd9d101,2022-07-06_10h33.22.550,Colour_Asymmetry_Pilot,2022.1.3,Win32,144.7178003,62c50e9c1127f2cd403a315f,0,81,81,47,1,fourthree,,,,,,,,,,,,,,,,,,,,,,,,,,,,,,,,,,,,,,,,,,,,,,,,,,,,,,,,,,,,,,,,,,,,,,,,,,,,,,,,,,,,,,,,,,,,,,,,,,,,,,,,,,,,,,,,,,,,,,,,,,,,,,,,,,,,,,,,,,,,,,,,,,,,,,,,,,,,,
,,,,,,5ec7b7f0079cdc22125201eb,62c53a9a3c3942f0dbd9d101,2022-07-06_10h33.22.550,Colour_Asymmetry_Pilot,2022.1.3,Win32,144.7178003,62c50e9c1127f2cd403a315f,0,82,82,12,1,threeone,,,,,,,,,,,,,,,,,,,,,,,,,,,,,,,,,,,,,,,,,,,,,,,,,,,,,,,,,,,,,,,,,,,,,,,,,,,,,,,,,,,,,,,,,,,,,,,,,,,,,,,,,,,,,,,,,,,,,,,,,,,,,,,,,,,,,,,,,,,,,,,,,,,,,,,,,,,,,
,,,,,,5ec7b7f0079cdc22125201eb,62c53a9a3c3942f0dbd9d101,2022-07-06_10h33.22.550,Colour_Asymmetry_Pilot,2022.1.3,Win32,144.7178003,62c50e9c1127f2cd403a315f,0,83,83,107,1,twofour,,,,,,,,,,,,,,,,,,,,,,,,,,,,,,,,,,,,,,,,,,,,,,,,,,,,,,,,,,,,,,,,,,,,,,,,,,,,,,,,,,,,,,,,,,,,,,,,,,,,,,,,,,,,,,,,,,,,,,,,,,,,,,,,,,,,,,,,,,,,,,,,,,,,,,,,,,,,,
,,,,,,5ec7b7f0079cdc22125201eb,62c53a9a3c3942f0dbd9d101,2022-07-06_10h33.22.550,Colour_Asymmetry_Pilot,2022.1.3,Win32,144.7178003,62c50e9c1127f2cd403a315f,0,84,84,125,1,threefour,,,,,,,,,,,,,,,,,,,,,,,,,,,,,,,,,,,,,,,,,,,,,,,,,,,,,,,,,,,,,,,,,,,,,,,,,,,,,,,,,,,,,,,,,,,,,,,,,,,,,,,,,,,,,,,,,,,,,,,,,,,,,,,,,,,,,,,,,,,,,,,,,,,,,,,,,,,,,
,,,,,,5ec7b7f0079cdc22125201eb,62c53a9a3c3942f0dbd9d101,2022-07-06_10h33.22.550,Colour_Asymmetry_Pilot,2022.1.3,Win32,144.7178003,62c50e9c1127f2cd403a315f,0,85,85,130,1,twoone,,,,,,,,,,,,,,,,,,,,,,,,,,,,,,,,,,,,,,,,,,,,,,,,,,,,,,,,,,,,,,,,,,,,,,,,,,,,,,,,,,,,,,,,,,,,,,,,,,,,,,,,,,,,,,,,,,,,,,,,,,,,,,,,,,,,,,,,,,,,,,,,,,,,,,,,,,,,,
,,,,,,5ec7b7f0079cdc22125201eb,62c53a9a3c3942f0dbd9d101,2022-07-06_10h33.22.550,Colour_Asymmetry_Pilot,2022.1.3,Win32,144.7178003,62c50e9c1127f2cd403a315f,0,86,86,135,1,fourthree,,,,,,,,,,,,,,,,,,,,,,,,,,,,,,,,,,,,,,,,,,,,,,,,,,,,,,,,,,,,,,,,,,,,,,,,,,,,,,,,,,,,,,,,,,,,,,,,,,,,,,,,,,,,,,,,,,,,,,,,,,,,,,,,,,,,,,,,,,,,,,,,,,,,,,,,,,,,,
,,,,,,5ec7b7f0079cdc22125201eb,62c53a9a3c3942f0dbd9d101,2022-07-06_10h33.22.550,Colour_Asymmetry_Pilot,2022.1.3,Win32,144.7178003,62c50e9c1127f2cd403a315f,0,87,87,43,1,twofour,,,,,,,,,,,,,,,,,,,,,,,,,,,,,,,,,,,,,,,,,,,,,,,,,,,,,,,,,,,,,,,,,,,,,,,,,,,,,,,,,,,,,,,,,,,,,,,,,,,,,,,,,,,,,,,,,,,,,,,,,,,,,,,,,,,,,,,,,,,,,,,,,,,,,,,,,,,,,
,,,,,,5ec7b7f0079cdc22125201eb,62c53a9a3c3942f0dbd9d101,2022-07-06_10h33.22.550,Colour_Asymmetry_Pilot,2022.1.3,Win32,144.7178003,62c50e9c1127f2cd403a315f,0,88,88,152,1,onetwo,,,,,,,,,,,,,,,,,,,,,,,,,,,,,,,,,,,,,,,,,,,,,,,,,,,,,,,,,,,,,,,,,,,,,,,,,,,,,,,,,,,,,,,,,,,,,,,,,,,,,,,,,,,,,,,,,,,,,,,,,,,,,,,,,,,,,,,,,,,,,,,,,,,,,,,,,,,,,
,,,,,,5ec7b7f0079cdc22125201eb,62c53a9a3c3942f0dbd9d101,2022-07-06_10h33.22.550,Colour_Asymmetry_Pilot,2022.1.3,Win32,144.7178003,62c50e9c1127f2cd403a315f,0,89,89,88,1,onetwo,,,,,,,,,,,,,,,,,,,,,,,,,,,,,,,,,,,,,,,,,,,,,,,,,,,,,,,,,,,,,,,,,,,,,,,,,,,,,,,,,,,,,,,,,,,,,,,,,,,,,,,,,,,,,,,,,,,,,,,,,,,,,,,,,,,,,,,,,,,,,,,,,,,,,,,,,,,,,
,,,,,,5ec7b7f0079cdc22125201eb,62c53a9a3c3942f0dbd9d101,2022-07-06_10h33.22.550,Colour_Asymmetry_Pilot,2022.1.3,Win32,144.7178003,62c50e9c1127f2cd403a315f,0,90,90,54,1,fourtwo,,,,,,,,,,,,,,,,,,,,,,,,,,,,,,,,,,,,,,,,,,,,,,,,,,,,,,,,,,,,,,,,,,,,,,,,,,,,,,,,,,,,,,,,,,,,,,,,,,,,,,,,,,,,,,,,,,,,,,,,,,,,,,,,,,,,,,,,,,,,,,,,,,,,,,,,,,,,,
,,,,,,5ec7b7f0079cdc22125201eb,62c53a9a3c3942f0dbd9d101,2022-07-06_10h33.22.550,Colour_Asymmetry_Pilot,2022.1.3,Win32,144.7178003,62c50e9c1127f2cd403a315f,0,91,91,14,1,fourtwo,,,,,,,,,,,,,,,,,,,,,,,,,,,,,,,,,,,,,,,,,,,,,,,,,,,,,,,,,,,,,,,,,,,,,,,,,,,,,,,,,,,,,,,,,,,,,,,,,,,,,,,,,,,,,,,,,,,,,,,,,,,,,,,,,,,,,,,,,,,,,,,,,,,,,,,,,,,,,
,,,,,,5ec7b7f0079cdc22125201eb,62c53a9a3c3942f0dbd9d101,2022-07-06_10h33.22.550,Colour_Asymmetry_Pilot,2022.1.3,Win32,144.7178003,62c50e9c1127f2cd403a315f,0,92,92,103,1,fourthree,,,,,,,,,,,,,,,,,,,,,,,,,,,,,,,,,,,,,,,,,,,,,,,,,,,,,,,,,,,,,,,,,,,,,,,,,,,,,,,,,,,,,,,,,,,,,,,,,,,,,,,,,,,,,,,,,,,,,,,,,,,,,,,,,,,,,,,,,,,,,,,,,,,,,,,,,,,,,
,,,,,,5ec7b7f0079cdc22125201eb,62c53a9a3c3942f0dbd9d101,2022-07-06_10h33.22.550,Colour_Asymmetry_Pilot,2022.1.3,Win32,144.7178003,62c50e9c1127f2cd403a315f,0,93,93,24,1,onetwo,,,,,,,,,,,,,,,,,,,,,,,,,,,,,,,,,,,,,,,,,,,,,,,,,,,,,,,,,,,,,,,,,,,,,,,,,,,,,,,,,,,,,,,,,,,,,,,,,,,,,,,,,,,,,,,,,,,,,,,,,,,,,,,,,,,,,,,,,,,,,,,,,,,,,,,,,,,,,
,,,,,,5ec7b7f0079cdc22125201eb,62c53a9a3c3942f0dbd9d101,2022-07-06_10h33.22.550,Colour_Asymmetry_Pilot,2022.1.3,Win32,144.7178003,62c50e9c1127f2cd403a315f,0,94,94,157,1,threefour,,,,,,,,,,,,,,,,,,,,,,,,,,,,,,,,,,,,,,,,,,,,,,,,,,,,,,,,,,,,,,,,,,,,,,,,,,,,,,,,,,,,,,,,,,,,,,,,,,,,,,,,,,,,,,,,,,,,,,,,,,,,,,,,,,,,,,,,,,,,,,,,,,,,,,,,,,,,,
,,,,,,5ec7b7f0079cdc22125201eb,62c53a9a3c3942f0dbd9d101,2022-07-06_10h33.22.550,Colour_Asymmetry_Pilot,2022.1.3,Win32,144.7178003,62c50e9c1127f2cd403a315f,0,95,95,81,1,onethree,,,,,,,,,,,,,,,,,,,,,,,,,,,,,,,,,,,,,,,,,,,,,,,,,,,,,,,,,,,,,,,,,,,,,,,,,,,,,,,,,,,,,,,,,,,,,,,,,,,,,,,,,,,,,,,,,,,,,,,,,,,,,,,,,,,,,,,,,,,,,,,,,,,,,,,,,,,,,
,,,,,,5ec7b7f0079cdc22125201eb,62c53a9a3c3942f0dbd9d101,2022-07-06_10h33.22.550,Colour_Asymmetry_Pilot,2022.1.3,Win32,144.7178003,62c50e9c1127f2cd403a315f,0,96,96,70,1,fourtwo,,,,,,,,,,,,,,,,,,,,,,,,,,,,,,,,,,,,,,,,,,,,,,,,,,,,,,,,,,,,,,,,,,,,,,,,,,,,,,,,,,,,,,,,,,,,,,,,,,,,,,,,,,,,,,,,,,,,,,,,,,,,,,,,,,,,,,,,,,,,,,,,,,,,,,,,,,,,,
,,,,,,5ec7b7f0079cdc22125201eb,62c53a9a3c3942f0dbd9d101,2022-07-06_10h33.22.550,Colour_Asymmetry_Pilot,2022.1.3,Win32,144.7178003,62c50e9c1127f2cd403a315f,0,97,97,62,1,fourtwo,,,,,,,,,,,,,,,,,,,,,,,,,,,,,,,,,,,,,,,,,,,,,,,,,,,,,,,,,,,,,,,,,,,,,,,,,,,,,,,,,,,,,,,,,,,,,,,,,,,,,,,,,,,,,,,,,,,,,,,,,,,,,,,,,,,,,,,,,,,,,,,,,,,,,,,,,,,,,
,,,,,,5ec7b7f0079cdc22125201eb,62c53a9a3c3942f0dbd9d101,2022-07-06_10h33.22.550,Colour_Asymmetry_Pilot,2022.1.3,Win32,144.7178003,62c50e9c1127f2cd403a315f,0,98,98,44,1,threeone,,,,,,,,,,,,,,,,,,,,,,,,,,,,,,,,,,,,,,,,,,,,,,,,,,,,,,,,,,,,,,,,,,,,,,,,,,,,,,,,,,,,,,,,,,,,,,,,,,,,,,,,,,,,,,,,,,,,,,,,,,,,,,,,,,,,,,,,,,,,,,,,,,,,,,,,,,,,,
,,,,,,5ec7b7f0079cdc22125201eb,62c53a9a3c3942f0dbd9d101,2022-07-06_10h33.22.550,Colour_Asymmetry_Pilot,2022.1.3,Win32,144.7178003,62c50e9c1127f2cd403a315f,0,99,99,28,1,threeone,,,,,,,,,,,,,,,,,,,,,,,,,,,,,,,,,,,,,,,,,,,,,,,,,,,,,,,,,,,,,,,,,,,,,,,,,,,,,,,,,,,,,,,,,,,,,,,,,,,,,,,,,,,,,,,,,,,,,,,,,,,,,,,,,,,,,,,,,,,,,,,,,,,,,,,,,,,,,
,,,,,,5ec7b7f0079cdc22125201eb,62c53a9a3c3942f0dbd9d101,2022-07-06_10h33.22.550,Colour_Asymmetry_Pilot,2022.1.3,Win32,144.7178003,62c50e9c1127f2cd403a315f,0,100,100,147,1,twofour,,,,,,,,,,,,,,,,,,,,,,,,,,,,,,,,,,,,,,,,,,,,,,,,,,,,,,,,,,,,,,,,,,,,,,,,,,,,,,,,,,,,,,,,,,,,,,,,,,,,,,,,,,,,,,,,,,,,,,,,,,,,,,,,,,,,,,,,,,,,,,,,,,,,,,,,,,,,,
,,,,,,5ec7b7f0079cdc22125201eb,62c53a9a3c3942f0dbd9d101,2022-07-06_10h33.22.550,Colour_Asymmetry_Pilot,2022.1.3,Win32,144.7178003,62c50e9c1127f2cd403a315f,0,101,101,120,1,onetwo,,,,,,,,,,,,,,,,,,,,,,,,,,,,,,,,,,,,,,,,,,,,,,,,,,,,,,,,,,,,,,,,,,,,,,,,,,,,,,,,,,,,,,,,,,,,,,,,,,,,,,,,,,,,,,,,,,,,,,,,,,,,,,,,,,,,,,,,,,,,,,,,,,,,,,,,,,,,,
,,,,,,5ec7b7f0079cdc22125201eb,62c53a9a3c3942f0dbd9d101,2022-07-06_10h33.22.550,Colour_Asymmetry_Pilot,2022.1.3,Win32,144.7178003,62c50e9c1127f2cd403a315f,0,102,102,39,1,fourthree,,,,,,,,,,,,,,,,,,,,,,,,,,,,,,,,,,,,,,,,,,,,,,,,,,,,,,,,,,,,,,,,,,,,,,,,,,,,,,,,,,,,,,,,,,,,,,,,,,,,,,,,,,,,,,,,,,,,,,,,,,,,,,,,,,,,,,,,,,,,,,,,,,,,,,,,,,,,,
,,,,,,5ec7b7f0079cdc22125201eb,62c53a9a3c3942f0dbd9d101,2022-07-06_10h33.22.550,Colour_Asymmetry_Pilot,2022.1.3,Win32,144.7178003,62c50e9c1127f2cd403a315f,0,103,103,17,1,onethree,,,,,,,,,,,,,,,,,,,,,,,,,,,,,,,,,,,,,,,,,,,,,,,,,,,,,,,,,,,,,,,,,,,,,,,,,,,,,,,,,,,,,,,,,,,,,,,,,,,,,,,,,,,,,,,,,,,,,,,,,,,,,,,,,,,,,,,,,,,,,,,,,,,,,,,,,,,,,
,,,,,,5ec7b7f0079cdc22125201eb,62c53a9a3c3942f0dbd9d101,2022-07-06_10h33.22.550,Colour_Asymmetry_Pilot,2022.1.3,Win32,144.7178003,62c50e9c1127f2cd403a315f,0,104,104,132,1,threeone,,,,,,,,,,,,,,,,,,,,,,,,,,,,,,,,,,,,,,,,,,,,,,,,,,,,,,,,,,,,,,,,,,,,,,,,,,,,,,,,,,,,,,,,,,,,,,,,,,,,,,,,,,,,,,,,,,,,,,,,,,,,,,,,,,,,,,,,,,,,,,,,,,,,,,,,,,,,,
,,,,,,5ec7b7f0079cdc22125201eb,62c53a9a3c3942f0dbd9d101,2022-07-06_10h33.22.550,Colour_Asymmetry_Pilot,2022.1.3,Win32,144.7178003,62c50e9c1127f2cd403a315f,0,105,105,63,1,fourthree,,,,,,,,,,,,,,,,,,,,,,,,,,,,,,,,,,,,,,,,,,,,,,,,,,,,,,,,,,,,,,,,,,,,,,,,,,,,,,,,,,,,,,,,,,,,,,,,,,,,,,,,,,,,,,,,,,,,,,,,,,,,,,,,,,,,,,,,,,,,,,,,,,,,,,,,,,,,,
,,,,,,5ec7b7f0079cdc22125201eb,62c53a9a3c3942f0dbd9d101,2022-07-06_10h33.22.550,Colour_Asymmetry_Pilot,2022.1.3,Win32,144.7178003,62c50e9c1127f2cd403a315f,0,106,106,15,1,fourthree,,,,,,,,,,,,,,,,,,,,,,,,,,,,,,,,,,,,,,,,,,,,,,,,,,,,,,,,,,,,,,,,,,,,,,,,,,,,,,,,,,,,,,,,,,,,,,,,,,,,,,,,,,,,,,,,,,,,,,,,,,,,,,,,,,,,,,,,,,,,,,,,,,,,,,,,,,,,,
,,,,,,5ec7b7f0079cdc22125201eb,62c53a9a3c3942f0dbd9d101,2022-07-06_10h33.22.550,Colour_Asymmetry_Pilot,2022.1.3,Win32,144.7178003,62c50e9c1127f2cd403a315f,0,107,107,77,1,threefour,,,,,,,,,,,,,,,,,,,,,,,,,,,,,,,,,,,,,,,,,,,,,,,,,,,,,,,,,,,,,,,,,,,,,,,,,,,,,,,,,,,,,,,,,,,,,,,,,,,,,,,,,,,,,,,,,,,,,,,,,,,,,,,,,,,,,,,,,,,,,,,,,,,,,,,,,,,,,
,,,,,,5ec7b7f0079cdc22125201eb,62c53a9a3c3942f0dbd9d101,2022-07-06_10h33.22.550,Colour_Asymmetry_Pilot,2022.1.3,Win32,144.7178003,62c50e9c1127f2cd403a315f,0,108,108,151,1,fourthree,,,,,,,,,,,,,,,,,,,,,,,,,,,,,,,,,,,,,,,,,,,,,,,,,,,,,,,,,,,,,,,,,,,,,,,,,,,,,,,,,,,,,,,,,,,,,,,,,,,,,,,,,,,,,,,,,,,,,,,,,,,,,,,,,,,,,,,,,,,,,,,,,,,,,,,,,,,,,
,,,,,,5ec7b7f0079cdc22125201eb,62c53a9a3c3942f0dbd9d101,2022-07-06_10h33.22.550,Colour_Asymmetry_Pilot,2022.1.3,Win32,144.7178003,62c50e9c1127f2cd403a315f,0,109,109,25,1,onethree,,,,,,,,,,,,,,,,,,,,,,,,,,,,,,,,,,,,,,,,,,,,,,,,,,,,,,,,,,,,,,,,,,,,,,,,,,,,,,,,,,,,,,,,,,,,,,,,,,,,,,,,,,,,,,,,,,,,,,,,,,,,,,,,,,,,,,,,,,,,,,,,,,,,,,,,,,,,,
,,,,,,5ec7b7f0079cdc22125201eb,62c53a9a3c3942f0dbd9d101,2022-07-06_10h33.22.550,Colour_Asymmetry_Pilot,2022.1.3,Win32,144.7178003,62c50e9c1127f2cd403a315f,0,110,110,100,1,threeone,,,,,,,,,,,,,,,,,,,,,,,,,,,,,,,,,,,,,,,,,,,,,,,,,,,,,,,,,,,,,,,,,,,,,,,,,,,,,,,,,,,,,,,,,,,,,,,,,,,,,,,,,,,,,,,,,,,,,,,,,,,,,,,,,,,,,,,,,,,,,,,,,,,,,,,,,,,,,
,,,,,,5ec7b7f0079cdc22125201eb,62c53a9a3c3942f0dbd9d101,2022-07-06_10h33.22.550,Colour_Asymmetry_Pilot,2022.1.3,Win32,144.7178003,62c50e9c1127f2cd403a315f,0,111,111,92,1,threeone,,,,,,,,,,,,,,,,,,,,,,,,,,,,,,,,,,,,,,,,,,,,,,,,,,,,,,,,,,,,,,,,,,,,,,,,,,,,,,,,,,,,,,,,,,,,,,,,,,,,,,,,,,,,,,,,,,,,,,,,,,,,,,,,,,,,,,,,,,,,,,,,,,,,,,,,,,,,,
,,,,,,5ec7b7f0079cdc22125201eb,62c53a9a3c3942f0dbd9d101,2022-07-06_10h33.22.550,Colour_Asymmetry_Pilot,2022.1.3,Win32,144.7178003,62c50e9c1127f2cd403a315f,0,112,112,65,1,onethree,,,,,,,,,,,,,,,,,,,,,,,,,,,,,,,,,,,,,,,,,,,,,,,,,,,,,,,,,,,,,,,,,,,,,,,,,,,,,,,,,,,,,,,,,,,,,,,,,,,,,,,,,,,,,,,,,,,,,,,,,,,,,,,,,,,,,,,,,,,,,,,,,,,,,,,,,,,,,
,,,,,,5ec7b7f0079cdc22125201eb,62c53a9a3c3942f0dbd9d101,2022-07-06_10h33.22.550,Colour_Asymmetry_Pilot,2022.1.3,Win32,144.7178003,62c50e9c1127f2cd403a315f,0,113,113,69,1,threefour,,,,,,,,,,,,,,,,,,,,,,,,,,,,,,,,,,,,,,,,,,,,,,,,,,,,,,,,,,,,,,,,,,,,,,,,,,,,,,,,,,,,,,,,,,,,,,,,,,,,,,,,,,,,,,,,,,,,,,,,,,,,,,,,,,,,,,,,,,,,,,,,,,,,,,,,,,,,,
,,,,,,5ec7b7f0079cdc22125201eb,62c53a9a3c3942f0dbd9d101,2022-07-06_10h33.22.550,Colour_Asymmetry_Pilot,2022.1.3,Win32,144.7178003,62c50e9c1127f2cd403a315f,0,114,114,86,1,fourtwo,,,,,,,,,,,,,,,,,,,,,,,,,,,,,,,,,,,,,,,,,,,,,,,,,,,,,,,,,,,,,,,,,,,,,,,,,,,,,,,,,,,,,,,,,,,,,,,,,,,,,,,,,,,,,,,,,,,,,,,,,,,,,,,,,,,,,,,,,,,,,,,,,,,,,,,,,,,,,
,,,,,,5ec7b7f0079cdc22125201eb,62c53a9a3c3942f0dbd9d101,2022-07-06_10h33.22.550,Colour_Asymmetry_Pilot,2022.1.3,Win32,144.7178003,62c50e9c1127f2cd403a315f,0,115,115,111,1,fourthree,,,,,,,,,,,,,,,,,,,,,,,,,,,,,,,,,,,,,,,,,,,,,,,,,,,,,,,,,,,,,,,,,,,,,,,,,,,,,,,,,,,,,,,,,,,,,,,,,,,,,,,,,,,,,,,,,,,,,,,,,,,,,,,,,,,,,,,,,,,,,,,,,,,,,,,,,,,,,
,,,,,,5ec7b7f0079cdc22125201eb,62c53a9a3c3942f0dbd9d101,2022-07-06_10h33.22.550,Colour_Asymmetry_Pilot,2022.1.3,Win32,144.7178003,62c50e9c1127f2cd403a315f,0,116,116,27,1,twofour,,,,,,,,,,,,,,,,,,,,,,,,,,,,,,,,,,,,,,,,,,,,,,,,,,,,,,,,,,,,,,,,,,,,,,,,,,,,,,,,,,,,,,,,,,,,,,,,,,,,,,,,,,,,,,,,,,,,,,,,,,,,,,,,,,,,,,,,,,,,,,,,,,,,,,,,,,,,,
,,,,,,5ec7b7f0079cdc22125201eb,62c53a9a3c3942f0dbd9d101,2022-07-06_10h33.22.550,Colour_Asymmetry_Pilot,2022.1.3,Win32,144.7178003,62c50e9c1127f2cd403a315f,0,117,117,82,1,twoone,,,,,,,,,,,,,,,,,,,,,,,,,,,,,,,,,,,,,,,,,,,,,,,,,,,,,,,,,,,,,,,,,,,,,,,,,,,,,,,,,,,,,,,,,,,,,,,,,,,,,,,,,,,,,,,,,,,,,,,,,,,,,,,,,,,,,,,,,,,,,,,,,,,,,,,,,,,,,
,,,,,,5ec7b7f0079cdc22125201eb,62c53a9a3c3942f0dbd9d101,2022-07-06_10h33.22.550,Colour_Asymmetry_Pilot,2022.1.3,Win32,144.7178003,62c50e9c1127f2cd403a315f,0,118,118,13,1,threefour,,,,,,,,,,,,,,,,,,,,,,,,,,,,,,,,,,,,,,,,,,,,,,,,,,,,,,,,,,,,,,,,,,,,,,,,,,,,,,,,,,,,,,,,,,,,,,,,,,,,,,,,,,,,,,,,,,,,,,,,,,,,,,,,,,,,,,,,,,,,,,,,,,,,,,,,,,,,,
,,,,,,5ec7b7f0079cdc22125201eb,62c53a9a3c3942f0dbd9d101,2022-07-06_10h33.22.550,Colour_Asymmetry_Pilot,2022.1.3,Win32,144.7178003,62c50e9c1127f2cd403a315f,0,119,119,22,1,fourtwo,,,,,,,,,,,,,,,,,,,,,,,,,,,,,,,,,,,,,,,,,,,,,,,,,,,,,,,,,,,,,,,,,,,,,,,,,,,,,,,,,,,,,,,,,,,,,,,,,,,,,,,,,,,,,,,,,,,,,,,,,,,,,,,,,,,,,,,,,,,,,,,,,,,,,,,,,,,,,
,,,,,,5ec7b7f0079cdc22125201eb,62c53a9a3c3942f0dbd9d101,2022-07-06_10h33.22.550,Colour_Asymmetry_Pilot,2022.1.3,Win32,144.7178003,62c50e9c1127f2cd403a315f,0,120,120,105,1,onethree,,,,,,,,,,,,,,,,,,,,,,,,,,,,,,,,,,,,,,,,,,,,,,,,,,,,,,,,,,,,,,,,,,,,,,,,,,,,,,,,,,,,,,,,,,,,,,,,,,,,,,,,,,,,,,,,,,,,,,,,,,,,,,,,,,,,,,,,,,,,,,,,,,,,,,,,,,,,,
,,,,,,5ec7b7f0079cdc22125201eb,62c53a9a3c3942f0dbd9d101,2022-07-06_10h33.22.550,Colour_Asymmetry_Pilot,2022.1.3,Win32,144.7178003,62c50e9c1127f2cd403a315f,0,121,121,141,1,threefour,,,,,,,,,,,,,,,,,,,,,,,,,,,,,,,,,,,,,,,,,,,,,,,,,,,,,,,,,,,,,,,,,,,,,,,,,,,,,,,,,,,,,,,,,,,,,,,,,,,,,,,,,,,,,,,,,,,,,,,,,,,,,,,,,,,,,,,,,,,,,,,,,,,,,,,,,,,,,
,,,,,,5ec7b7f0079cdc22125201eb,62c53a9a3c3942f0dbd9d101,2022-07-06_10h33.22.550,Colour_Asymmetry_Pilot,2022.1.3,Win32,144.7178003,62c50e9c1127f2cd403a315f,0,122,122,3,1,twofour,,,,,,,,,,,,,,,,,,,,,,,,,,,,,,,,,,,,,,,,,,,,,,,,,,,,,,,,,,,,,,,,,,,,,,,,,,,,,,,,,,,,,,,,,,,,,,,,,,,,,,,,,,,,,,,,,,,,,,,,,,,,,,,,,,,,,,,,,,,,,,,,,,,,,,,,,,,,,
,,,,,,5ec7b7f0079cdc22125201eb,62c53a9a3c3942f0dbd9d101,2022-07-06_10h33.22.550,Colour_Asymmetry_Pilot,2022.1.3,Win32,144.7178003,62c50e9c1127f2cd403a315f,0,123,123,42,1,twoone,,,,,,,,,,,,,,,,,,,,,,,,,,,,,,,,,,,,,,,,,,,,,,,,,,,,,,,,,,,,,,,,,,,,,,,,,,,,,,,,,,,,,,,,,,,,,,,,,,,,,,,,,,,,,,,,,,,,,,,,,,,,,,,,,,,,,,,,,,,,,,,,,,,,,,,,,,,,,
,,,,,,5ec7b7f0079cdc22125201eb,62c53a9a3c3942f0dbd9d101,2022-07-06_10h33.22.550,Colour_Asymmetry_Pilot,2022.1.3,Win32,144.7178003,62c50e9c1127f2cd403a315f,0,124,124,53,1,threefour,,,,,,,,,,,,,,,,,,,,,,,,,,,,,,,,,,,,,,,,,,,,,,,,,,,,,,,,,,,,,,,,,,,,,,,,,,,,,,,,,,,,,,,,,,,,,,,,,,,,,,,,,,,,,,,,,,,,,,,,,,,,,,,,,,,,,,,,,,,,,,,,,,,,,,,,,,,,,
,,,,,,5ec7b7f0079cdc22125201eb,62c53a9a3c3942f0dbd9d101,2022-07-06_10h33.22.550,Colour_Asymmetry_Pilot,2022.1.3,Win32,144.7178003,62c50e9c1127f2cd403a315f,0,125,125,145,1,onethree,,,,,,,,,,,,,,,,,,,,,,,,,,,,,,,,,,,,,,,,,,,,,,,,,,,,,,,,,,,,,,,,,,,,,,,,,,,,,,,,,,,,,,,,,,,,,,,,,,,,,,,,,,,,,,,,,,,,,,,,,,,,,,,,,,,,,,,,,,,,,,,,,,,,,,,,,,,,,
,,,,,,5ec7b7f0079cdc22125201eb,62c53a9a3c3942f0dbd9d101,2022-07-06_10h33.22.550,Colour_Asymmetry_Pilot,2022.1.3,Win32,144.7178003,62c50e9c1127f2cd403a315f,0,126,126,104,1,onetwo,,,,,,,,,,,,,,,,,,,,,,,,,,,,,,,,,,,,,,,,,,,,,,,,,,,,,,,,,,,,,,,,,,,,,,,,,,,,,,,,,,,,,,,,,,,,,,,,,,,,,,,,,,,,,,,,,,,,,,,,,,,,,,,,,,,,,,,,,,,,,,,,,,,,,,,,,,,,,
,,,,,,5ec7b7f0079cdc22125201eb,62c53a9a3c3942f0dbd9d101,2022-07-06_10h33.22.550,Colour_Asymmetry_Pilot,2022.1.3,Win32,144.7178003,62c50e9c1127f2cd403a315f,0,127,127,37,1,threefour,,,,,,,,,,,,,,,,,,,,,,,,,,,,,,,,,,,,,,,,,,,,,,,,,,,,,,,,,,,,,,,,,,,,,,,,,,,,,,,,,,,,,,,,,,,,,,,,,,,,,,,,,,,,,,,,,,,,,,,,,,,,,,,,,,,,,,,,,,,,,,,,,,,,,,,,,,,,,
,,,,,,5ec7b7f0079cdc22125201eb,62c53a9a3c3942f0dbd9d101,2022-07-06_10h33.22.550,Colour_Asymmetry_Pilot,2022.1.3,Win32,144.7178003,62c50e9c1127f2cd403a315f,0,128,128,124,1,threeone,,,,,,,,,,,,,,,,,,,,,,,,,,,,,,,,,,,,,,,,,,,,,,,,,,,,,,,,,,,,,,,,,,,,,,,,,,,,,,,,,,,,,,,,,,,,,,,,,,,,,,,,,,,,,,,,,,,,,,,,,,,,,,,,,,,,,,,,,,,,,,,,,,,,,,,,,,,,,
,,,,,,5ec7b7f0079cdc22125201eb,62c53a9a3c3942f0dbd9d101,2022-07-06_10h33.22.550,Colour_Asymmetry_Pilot,2022.1.3,Win32,144.7178003,62c50e9c1127f2cd403a315f,0,129,129,101,1,threefour,,,,,,,,,,,,,,,,,,,,,,,,,,,,,,,,,,,,,,,,,,,,,,,,,,,,,,,,,,,,,,,,,,,,,,,,,,,,,,,,,,,,,,,,,,,,,,,,,,,,,,,,,,,,,,,,,,,,,,,,,,,,,,,,,,,,,,,,,,,,,,,,,,,,,,,,,,,,,
,,,,,,5ec7b7f0079cdc22125201eb,62c53a9a3c3942f0dbd9d101,2022-07-06_10h33.22.550,Colour_Asymmetry_Pilot,2022.1.3,Win32,144.7178003,62c50e9c1127f2cd403a315f,0,130,130,8,1,onetwo,,,,,,,,,,,,,,,,,,,,,,,,,,,,,,,,,,,,,,,,,,,,,,,,,,,,,,,,,,,,,,,,,,,,,,,,,,,,,,,,,,,,,,,,,,,,,,,,,,,,,,,,,,,,,,,,,,,,,,,,,,,,,,,,,,,,,,,,,,,,,,,,,,,,,,,,,,,,,
,,,,,,5ec7b7f0079cdc22125201eb,62c53a9a3c3942f0dbd9d101,2022-07-06_10h33.22.550,Colour_Asymmetry_Pilot,2022.1.3,Win32,144.7178003,62c50e9c1127f2cd403a315f,0,131,131,52,1,threeone,,,,,,,,,,,,,,,,,,,,,,,,,,,,,,,,,,,,,,,,,,,,,,,,,,,,,,,,,,,,,,,,,,,,,,,,,,,,,,,,,,,,,,,,,,,,,,,,,,,,,,,,,,,,,,,,,,,,,,,,,,,,,,,,,,,,,,,,,,,,,,,,,,,,,,,,,,,,,
,,,,,,5ec7b7f0079cdc22125201eb,62c53a9a3c3942f0dbd9d101,2022-07-06_10h33.22.550,Colour_Asymmetry_Pilot,2022.1.3,Win32,144.7178003,62c50e9c1127f2cd403a315f,0,132,132,84,1,threeone,,,,,,,,,,,,,,,,,,,,,,,,,,,,,,,,,,,,,,,,,,,,,,,,,,,,,,,,,,,,,,,,,,,,,,,,,,,,,,,,,,,,,,,,,,,,,,,,,,,,,,,,,,,,,,,,,,,,,,,,,,,,,,,,,,,,,,,,,,,,,,,,,,,,,,,,,,,,,
,,,,,,5ec7b7f0079cdc22125201eb,62c53a9a3c3942f0dbd9d101,2022-07-06_10h33.22.550,Colour_Asymmetry_Pilot,2022.1.3,Win32,144.7178003,62c50e9c1127f2cd403a315f,0,133,133,29,1,threefour,,,,,,,,,,,,,,,,,,,,,,,,,,,,,,,,,,,,,,,,,,,,,,,,,,,,,,,,,,,,,,,,,,,,,,,,,,,,,,,,,,,,,,,,,,,,,,,,,,,,,,,,,,,,,,,,,,,,,,,,,,,,,,,,,,,,,,,,,,,,,,,,,,,,,,,,,,,,,
,,,,,,5ec7b7f0079cdc22125201eb,62c53a9a3c3942f0dbd9d101,2022-07-06_10h33.22.550,Colour_Asymmetry_Pilot,2022.1.3,Win32,144.7178003,62c50e9c1127f2cd403a315f,0,134,134,7,1,fourthree,,,,,,,,,,,,,,,,,,,,,,,,,,,,,,,,,,,,,,,,,,,,,,,,,,,,,,,,,,,,,,,,,,,,,,,,,,,,,,,,,,,,,,,,,,,,,,,,,,,,,,,,,,,,,,,,,,,,,,,,,,,,,,,,,,,,,,,,,,,,,,,,,,,,,,,,,,,,,
,,,,,,5ec7b7f0079cdc22125201eb,62c53a9a3c3942f0dbd9d101,2022-07-06_10h33.22.550,Colour_Asymmetry_Pilot,2022.1.3,Win32,144.7178003,62c50e9c1127f2cd403a315f,0,135,135,134,1,fourtwo,,,,,,,,,,,,,,,,,,,,,,,,,,,,,,,,,,,,,,,,,,,,,,,,,,,,,,,,,,,,,,,,,,,,,,,,,,,,,,,,,,,,,,,,,,,,,,,,,,,,,,,,,,,,,,,,,,,,,,,,,,,,,,,,,,,,,,,,,,,,,,,,,,,,,,,,,,,,,
,,,,,,5ec7b7f0079cdc22125201eb,62c53a9a3c3942f0dbd9d101,2022-07-06_10h33.22.550,Colour_Asymmetry_Pilot,2022.1.3,Win32,144.7178003,62c50e9c1127f2cd403a315f,0,136,136,49,1,onethree,,,,,,,,,,,,,,,,,,,,,,,,,,,,,,,,,,,,,,,,,,,,,,,,,,,,,,,,,,,,,,,,,,,,,,,,,,,,,,,,,,,,,,,,,,,,,,,,,,,,,,,,,,,,,,,,,,,,,,,,,,,,,,,,,,,,,,,,,,,,,,,,,,,,,,,,,,,,,
,,,,,,5ec7b7f0079cdc22125201eb,62c53a9a3c3942f0dbd9d101,2022-07-06_10h33.22.550,Colour_Asymmetry_Pilot,2022.1.3,Win32,144.7178003,62c50e9c1127f2cd403a315f,0,137,137,109,1,threefour,,,,,,,,,,,,,,,,,,,,,,,,,,,,,,,,,,,,,,,,,,,,,,,,,,,,,,,,,,,,,,,,,,,,,,,,,,,,,,,,,,,,,,,,,,,,,,,,,,,,,,,,,,,,,,,,,,,,,,,,,,,,,,,,,,,,,,,,,,,,,,,,,,,,,,,,,,,,,
,,,,,,5ec7b7f0079cdc22125201eb,62c53a9a3c3942f0dbd9d101,2022-07-06_10h33.22.550,Colour_Asymmetry_Pilot,2022.1.3,Win32,144.7178003,62c50e9c1127f2cd403a315f,0,138,138,133,1,threefour,,,,,,,,,,,,,,,,,,,,,,,,,,,,,,,,,,,,,,,,,,,,,,,,,,,,,,,,,,,,,,,,,,,,,,,,,,,,,,,,,,,,,,,,,,,,,,,,,,,,,,,,,,,,,,,,,,,,,,,,,,,,,,,,,,,,,,,,,,,,,,,,,,,,,,,,,,,,,
,,,,,,5ec7b7f0079cdc22125201eb,62c53a9a3c3942f0dbd9d101,2022-07-06_10h33.22.550,Colour_Asymmetry_Pilot,2022.1.3,Win32,144.7178003,62c50e9c1127f2cd403a315f,0,139,139,48,1,onetwo,,,,,,,,,,,,,,,,,,,,,,,,,,,,,,,,,,,,,,,,,,,,,,,,,,,,,,,,,,,,,,,,,,,,,,,,,,,,,,,,,,,,,,,,,,,,,,,,,,,,,,,,,,,,,,,,,,,,,,,,,,,,,,,,,,,,,,,,,,,,,,,,,,,,,,,,,,,,,
,,,,,,5ec7b7f0079cdc22125201eb,62c53a9a3c3942f0dbd9d101,2022-07-06_10h33.22.550,Colour_Asymmetry_Pilot,2022.1.3,Win32,144.7178003,62c50e9c1127f2cd403a315f,0,140,140,72,1,onetwo,,,,,,,,,,,,,,,,,,,,,,,,,,,,,,,,,,,,,,,,,,,,,,,,,,,,,,,,,,,,,,,,,,,,,,,,,,,,,,,,,,,,,,,,,,,,,,,,,,,,,,,,,,,,,,,,,,,,,,,,,,,,,,,,,,,,,,,,,,,,,,,,,,,,,,,,,,,,,
,,,,,,5ec7b7f0079cdc22125201eb,62c53a9a3c3942f0dbd9d101,2022-07-06_10h33.22.550,Colour_Asymmetry_Pilot,2022.1.3,Win32,144.7178003,62c50e9c1127f2cd403a315f,0,141,141,78,1,fourtwo,,,,,,,,,,,,,,,,,,,,,,,,,,,,,,,,,,,,,,,,,,,,,,,,,,,,,,,,,,,,,,,,,,,,,,,,,,,,,,,,,,,,,,,,,,,,,,,,,,,,,,,,,,,,,,,,,,,,,,,,,,,,,,,,,,,,,,,,,,,,,,,,,,,,,,,,,,,,,
,,,,,,5ec7b7f0079cdc22125201eb,62c53a9a3c3942f0dbd9d101,2022-07-06_10h33.22.550,Colour_Asymmetry_Pilot,2022.1.3,Win32,144.7178003,62c50e9c1127f2cd403a315f,0,142,142,128,1,onetwo,,,,,,,,,,,,,,,,,,,,,,,,,,,,,,,,,,,,,,,,,,,,,,,,,,,,,,,,,,,,,,,,,,,,,,,,,,,,,,,,,,,,,,,,,,,,,,,,,,,,,,,,,,,,,,,,,,,,,,,,,,,,,,,,,,,,,,,,,,,,,,,,,,,,,,,,,,,,,
,,,,,,5ec7b7f0079cdc22125201eb,62c53a9a3c3942f0dbd9d101,2022-07-06_10h33.22.550,Colour_Asymmetry_Pilot,2022.1.3,Win32,144.7178003,62c50e9c1127f2cd403a315f,0,143,143,149,1,threefour,,,,,,,,,,,,,,,,,,,,,,,,,,,,,,,,,,,,,,,,,,,,,,,,,,,,,,,,,,,,,,,,,,,,,,,,,,,,,,,,,,,,,,,,,,,,,,,,,,,,,,,,,,,,,,,,,,,,,,,,,,,,,,,,,,,,,,,,,,,,,,,,,,,,,,,,,,,,,
,,,,,,5ec7b7f0079cdc22125201eb,62c53a9a3c3942f0dbd9d101,2022-07-06_10h33.22.550,Colour_Asymmetry_Pilot,2022.1.3,Win32,144.7178003,62c50e9c1127f2cd403a315f,0,144,144,36,1,threeone,,,,,,,,,,,,,,,,,,,,,,,,,,,,,,,,,,,,,,,,,,,,,,,,,,,,,,,,,,,,,,,,,,,,,,,,,,,,,,,,,,,,,,,,,,,,,,,,,,,,,,,,,,,,,,,,,,,,,,,,,,,,,,,,,,,,,,,,,,,,,,,,,,,,,,,,,,,,,
,,,,,,5ec7b7f0079cdc22125201eb,62c53a9a3c3942f0dbd9d101,2022-07-06_10h33.22.550,Colour_Asymmetry_Pilot,2022.1.3,Win32,144.7178003,62c50e9c1127f2cd403a315f,0,145,145,34,1,twoone,,,,,,,,,,,,,,,,,,,,,,,,,,,,,,,,,,,,,,,,,,,,,,,,,,,,,,,,,,,,,,,,,,,,,,,,,,,,,,,,,,,,,,,,,,,,,,,,,,,,,,,,,,,,,,,,,,,,,,,,,,,,,,,,,,,,,,,,,,,,,,,,,,,,,,,,,,,,,
,,,,,,5ec7b7f0079cdc22125201eb,62c53a9a3c3942f0dbd9d101,2022-07-06_10h33.22.550,Colour_Asymmetry_Pilot,2022.1.3,Win32,144.7178003,62c50e9c1127f2cd403a315f,0,146,146,150,1,fourtwo,,,,,,,,,,,,,,,,,,,,,,,,,,,,,,,,,,,,,,,,,,,,,,,,,,,,,,,,,,,,,,,,,,,,,,,,,,,,,,,,,,,,,,,,,,,,,,,,,,,,,,,,,,,,,,,,,,,,,,,,,,,,,,,,,,,,,,,,,,,,,,,,,,,,,,,,,,,,,
,,,,,,5ec7b7f0079cdc22125201eb,62c53a9a3c3942f0dbd9d101,2022-07-06_10h33.22.550,Colour_Asymmetry_Pilot,2022.1.3,Win32,144.7178003,62c50e9c1127f2cd403a315f,0,147,147,4,1,threeone,,,,,,,,,,,,,,,,,,,,,,,,,,,,,,,,,,,,,,,,,,,,,,,,,,,,,,,,,,,,,,,,,,,,,,,,,,,,,,,,,,,,,,,,,,,,,,,,,,,,,,,,,,,,,,,,,,,,,,,,,,,,,,,,,,,,,,,,,,,,,,,,,,,,,,,,,,,,,
,,,,,,5ec7b7f0079cdc22125201eb,62c53a9a3c3942f0dbd9d101,2022-07-06_10h33.22.550,Colour_Asymmetry_Pilot,2022.1.3,Win32,144.7178003,62c50e9c1127f2cd403a315f,0,148,148,11,1,twofour,,,,,,,,,,,,,,,,,,,,,,,,,,,,,,,,,,,,,,,,,,,,,,,,,,,,,,,,,,,,,,,,,,,,,,,,,,,,,,,,,,,,,,,,,,,,,,,,,,,,,,,,,,,,,,,,,,,,,,,,,,,,,,,,,,,,,,,,,,,,,,,,,,,,,,,,,,,,,
,,,,,,5ec7b7f0079cdc22125201eb,62c53a9a3c3942f0dbd9d101,2022-07-06_10h33.22.550,Colour_Asymmetry_Pilot,2022.1.3,Win32,144.7178003,62c50e9c1127f2cd403a315f,0,149,149,16,1,onetwo,,,,,,,,,,,,,,,,,,,,,,,,,,,,,,,,,,,,,,,,,,,,,,,,,,,,,,,,,,,,,,,,,,,,,,,,,,,,,,,,,,,,,,,,,,,,,,,,,,,,,,,,,,,,,,,,,,,,,,,,,,,,,,,,,,,,,,,,,,,,,,,,,,,,,,,,,,,,,
,,,,,,5ec7b7f0079cdc22125201eb,62c53a9a3c3942f0dbd9d101,2022-07-06_10h33.22.550,Colour_Asymmetry_Pilot,2022.1.3,Win32,144.7178003,62c50e9c1127f2cd403a315f,0,150,150,154,1,twoone,,,,,,,,,,,,,,,,,,,,,,,,,,,,,,,,,,,,,,,,,,,,,,,,,,,,,,,,,,,,,,,,,,,,,,,,,,,,,,,,,,,,,,,,,,,,,,,,,,,,,,,,,,,,,,,,,,,,,,,,,,,,,,,,,,,,,,,,,,,,,,,,,,,,,,,,,,,,,
,,,,,,5ec7b7f0079cdc22125201eb,62c53a9a3c3942f0dbd9d101,2022-07-06_10h33.22.550,Colour_Asymmetry_Pilot,2022.1.3,Win32,144.7178003,62c50e9c1127f2cd403a315f,0,151,151,45,1,threefour,,,,,,,,,,,,,,,,,,,,,,,,,,,,,,,,,,,,,,,,,,,,,,,,,,,,,,,,,,,,,,,,,,,,,,,,,,,,,,,,,,,,,,,,,,,,,,,,,,,,,,,,,,,,,,,,,,,,,,,,,,,,,,,,,,,,,,,,,,,,,,,,,,,,,,,,,,,,,
,,,,,,5ec7b7f0079cdc22125201eb,62c53a9a3c3942f0dbd9d101,2022-07-06_10h33.22.550,Colour_Asymmetry_Pilot,2022.1.3,Win32,144.7178003,62c50e9c1127f2cd403a315f,0,152,152,93,1,threefour,,,,,,,,,,,,,,,,,,,,,,,,,,,,,,,,,,,,,,,,,,,,,,,,,,,,,,,,,,,,,,,,,,,,,,,,,,,,,,,,,,,,,,,,,,,,,,,,,,,,,,,,,,,,,,,,,,,,,,,,,,,,,,,,,,,,,,,,,,,,,,,,,,,,,,,,,,,,,
,,,,,,5ec7b7f0079cdc22125201eb,62c53a9a3c3942f0dbd9d101,2022-07-06_10h33.22.550,Colour_Asymmetry_Pilot,2022.1.3,Win32,144.7178003,62c50e9c1127f2cd403a315f,0,153,153,18,1,twoone,,,,,,,,,,,,,,,,,,,,,,,,,,,,,,,,,,,,,,,,,,,,,,,,,,,,,,,,,,,,,,,,,,,,,,,,,,,,,,,,,,,,,,,,,,,,,,,,,,,,,,,,,,,,,,,,,,,,,,,,,,,,,,,,,,,,,,,,,,,,,,,,,,,,,,,,,,,,,
,,,,,,5ec7b7f0079cdc22125201eb,62c53a9a3c3942f0dbd9d101,2022-07-06_10h33.22.550,Colour_Asymmetry_Pilot,2022.1.3,Win32,144.7178003,62c50e9c1127f2cd403a315f,0,154,154,148,1,threeone,,,,,,,,,,,,,,,,,,,,,,,,,,,,,,,,,,,,,,,,,,,,,,,,,,,,,,,,,,,,,,,,,,,,,,,,,,,,,,,,,,,,,,,,,,,,,,,,,,,,,,,,,,,,,,,,,,,,,,,,,,,,,,,,,,,,,,,,,,,,,,,,,,,,,,,,,,,,,
,,,,,,5ec7b7f0079cdc22125201eb,62c53a9a3c3942f0dbd9d101,2022-07-06_10h33.22.550,Colour_Asymmetry_Pilot,2022.1.3,Win32,144.7178003,62c50e9c1127f2cd403a315f,0,155,155,75,1,twofour,,,,,,,,,,,,,,,,,,,,,,,,,,,,,,,,,,,,,,,,,,,,,,,,,,,,,,,,,,,,,,,,,,,,,,,,,,,,,,,,,,,,,,,,,,,,,,,,,,,,,,,,,,,,,,,,,,,,,,,,,,,,,,,,,,,,,,,,,,,,,,,,,,,,,,,,,,,,,
,,,,,,5ec7b7f0079cdc22125201eb,62c53a9a3c3942f0dbd9d101,2022-07-06_10h33.22.550,Colour_Asymmetry_Pilot,2022.1.3,Win32,144.7178003,62c50e9c1127f2cd403a315f,0,156,156,87,1,fourthree,,,,,,,,,,,,,,,,,,,,,,,,,,,,,,,,,,,,,,,,,,,,,,,,,,,,,,,,,,,,,,,,,,,,,,,,,,,,,,,,,,,,,,,,,,,,,,,,,,,,,,,,,,,,,,,,,,,,,,,,,,,,,,,,,,,,,,,,,,,,,,,,,,,,,,,,,,,,,
,,,,,,5ec7b7f0079cdc22125201eb,62c53a9a3c3942f0dbd9d101,2022-07-06_10h33.22.550,Colour_Asymmetry_Pilot,2022.1.3,Win32,144.7178003,62c50e9c1127f2cd403a315f,0,157,157,60,1,threeone,,,,,,,,,,,,,,,,,,,,,,,,,,,,,,,,,,,,,,,,,,,,,,,,,,,,,,,,,,,,,,,,,,,,,,,,,,,,,,,,,,,,,,,,,,,,,,,,,,,,,,,,,,,,,,,,,,,,,,,,,,,,,,,,,,,,,,,,,,,,,,,,,,,,,,,,,,,,,
,,,,,,5ec7b7f0079cdc22125201eb,62c53a9a3c3942f0dbd9d101,2022-07-06_10h33.22.550,Colour_Asymmetry_Pilot,2022.1.3,Win32,144.7178003,62c50e9c1127f2cd403a315f,0,158,158,119,1,fourthree,,,,,,,,,,,,,,,,,,,,,,,,,,,,,,,,,,,,,,,,,,,,,,,,,,,,,,,,,,,,,,,,,,,,,,,,,,,,,,,,,,,,,,,,,,,,,,,,,,,,,,,,,,,,,,,,,,,,,,,,,,,,,,,,,,,,,,,,,,,,,,,,,,,,,,,,,,,,,
,,,,,,5ec7b7f0079cdc22125201eb,62c53a9a3c3942f0dbd9d101,2022-07-06_10h33.22.550,Colour_Asymmetry_Pilot,2022.1.3,Win32,144.7178003,62c50e9c1127f2cd403a315f,0,159,159,64,1,onetwo,,,,,,,,,,,,,,,,,,,,,,,,,,,,,,,,,,,,,,,,,,,,,,,,,,,,,,,,,,,,,,,,,,,,,,,,,,,,,,,,,,,,,,,,,,,,,,,,,,,,,,,,,,,,,,,,,,,,,,,,,,,,,,,,,,,,,,,,,,,,,,,,,,,,,,,,,,,,,
,,,,,,5ec7b7f0079cdc22125201eb,62c53a9a3c3942f0dbd9d101,2022-07-06_10h33.22.550,Colour_Asymmetry_Pilot,2022.1.3,Win32,144.7178003,62c50e9c1127f2cd403a315f,0,160,160,115,1,twofour,,,,,,,,,,,,,,,,,,,,,,,,,,,,,,,,,,,,,,,,,,,,,,,,,,,,,,,,,,,,,,,,,,,,,,,,,,,,,,,,,,,,,,,,,,,,,,,,,,,,,,,,,,,,,,,,,,,,,,,,,,,,,,,,,,,,,,,,,,,,,,,,,,,,,,,,,,,,,
,,,,,,5ec7b7f0079cdc22125201eb,62c53a9a3c3942f0dbd9d101,2022-07-06_10h33.22.550,Colour_Asymmetry_Pilot,2022.1.3,Win32,144.7178003,62c50e9c1127f2cd403a315f,0,161,161,74,1,twoone,,,,,,,,,,,,,,,,,,,,,,,,,,,,,,,,,,,,,,,,,,,,,,,,,,,,,,,,,,,,,,,,,,,,,,,,,,,,,,,,,,,,,,,,,,,,,,,,,,,,,,,,,,,,,,,,,,,,,,,,,,,,,,,,,,,,,,,,,,,,,,,,,,,,,,,,,,,,,
,,,,,,5ec7b7f0079cdc22125201eb,62c53a9a3c3942f0dbd9d101,2022-07-06_10h33.22.550,Colour_Asymmetry_Pilot,2022.1.3,Win32,144.7178003,62c50e9c1127f2cd403a315f,,,,,,,space,6.8774,space,22.875,space,64.9523,space,56.6369,space,25.3583,space,5.2227,"[-0.8982,-0.37259999999999993,0.2784]",twofour,"[0.7802,-0.23140000000000005,-0.20799999999999996]",4,1.7776,91,163,1,0,0,response1disk_5,-5,4,1,0,0,rectangle_8,-5,4,1,0,0,4,-5,4,1,0,0,0,0,0,0,1,,,,,,,,,,,,,,,,,,,,,,,,,,,,,,,,,,,,,,,,,,,,,,,,,,,,,,,,,,,,,,,,,,,,,,,,,,,,,,,,,,,,,,,,,,,,,,,,,,,,,,,,,,,,,,,,
,,,,,,5ec7b7f0079cdc22125201eb,62c53a9a3c3942f0dbd9d101,2022-07-06_10h33.22.550,Colour_Asymmetry_Pilot,2022.1.3,Win32,144.7178003,62c50e9c1127f2cd403a315f,,,,,,,,,,,,,,,,,,,"[0.34099999999999997,0.12939999999999996,-0.9766]",fourtwo,"[0.23920000000000008,0.2704,0.16060000000000008]",3,1.2847,160,50,1,0,0,response1disk_5,5,-10,1,0,0,rectangle_8,58,177,1,0,0,4,31,9,1,0,0,1,0,1,0,1,response1disk_7,7,rectangle_4,,,,,,,,,,,,,,,,,,,,,,,,,,,,,,,,,,,,,,,,,,,,,,,,,,,,,,,,,,,,,,,,,,,,,,,,,,,,,,,,,,,,,,,,,,,,,,,,,,,,,,,,,,,,,
,,,,,,5ec7b7f0079cdc22125201eb,62c53a9a3c3942f0dbd9d101,2022-07-06_10h33.22.550,Colour_Asymmetry_Pilot,2022.1.3,Win32,144.7178003,62c50e9c1127f2cd403a315f,,,,,,,,,,,,,,,,,,,"[-0.4276,0.0038000000000000256,-0.3256]",onetwo,"[0.7176,-0.906,-0.6864]",1,1.3751,138,-193,1,0,0,response3disk_5,-14,-8,1,0,0,rectangle_8,-14,-8,1,0,0,4,-14,-8,1,0,0,2,0,2,0,1,,,,,,,,,,,,,,,,,,,,,,,,,,,,,,,,,,,,,,,,,,,,,,,,,,,,,,,,,,,,,,,,,,,,,,,,,,,,,,,,,,,,,,,,,,,,,,,,,,,,,,,,,,,,,,,,
,,,,,,5ec7b7f0079cdc22125201eb,62c53a9a3c3942f0dbd9d101,2022-07-06_10h33.22.550,Colour_Asymmetry_Pilot,2022.1.3,Win32,144.7178003,62c50e9c1127f2cd403a315f,,,,,,,,,,,,,,,,,,,"[-0.20799999999999996,-0.655,-0.01980000000000004]",threefour,"[-0.4746,-0.0354000000000001,0.5449999999999999]",1,1.132,86,-222,1,0,0,response3disk_5,4,0,1,0,0,rectangle_8,4,0,1,0,0,4,4,0,1,0,0,3,0,3,0,1,,,,,,,,,,,,,,,,,,,,,,,,,,,,,,,,,,,,,,,,,,,,,,,,,,,,,,,,,,,,,,,,,,,,,,,,,,,,,,,,,,,,,,,,,,,,,,,,,,,,,,,,,,,,,,,,
,,,,,,5ec7b7f0079cdc22125201eb,62c53a9a3c3942f0dbd9d101,2022-07-06_10h33.22.550,Colour_Asymmetry_Pilot,2022.1.3,Win32,144.7178003,62c50e9c1127f2cd403a315f,,,,,,,,,,,,,,,,,,,"[0.3881999999999999,-0.23939999999999995,-0.05040000000000011]",threefour,"[-0.17659999999999998,-0.2864,-0.8354]",-2,1.4166,-149,-89,1,0,0,response5disk_5,-3,-15,1,0,0,rectangle_8,74,174,1,0,0,4,28,3,1,0,0,4,0,4,0,1,response1disk_7,7,rectangle_4,,,,,,,,,,,,,,,,,,,,,,,,,,,,,,,,,,,,,,,,,,,,,,,,,,,,,,,,,,,,,,,,,,,,,,,,,,,,,,,,,,,,,,,,,,,,,,,,,,,,,,,,,,,,,
,,,,,,5ec7b7f0079cdc22125201eb,62c53a9a3c3942f0dbd9d101,2022-07-06_10h33.22.550,Colour_Asymmetry_Pilot,2022.1.3,Win32,144.7178003,62c50e9c1127f2cd403a315f,,,,,,,,,,,,,,,,,,,"[0.7018,0.7802,-0.16079999999999994]",fourthree,"[0.18419999999999992,-0.4276,-0.404]",-4,1.125,-99,190,1,0,0,response7disk_5,7,12,1,0,0,rectangle_8,7,12,1,0,0,4,7,12,1,0,0,5,0,5,0,1,,,,,,,,,,,,,,,,,,,,,,,,,,,,,,,,,,,,,,,,,,,,,,,,,,,,,,,,,,,,,,,,,,,,,,,,,,,,,,,,,,,,,,,,,,,,,,,,,,,,,,,,,,,,,,,,
,,,,,,5ec7b7f0079cdc22125201eb,62c53a9a3c3942f0dbd9d101,2022-07-06_10h33.22.550,Colour_Asymmetry_Pilot,2022.1.3,Win32,144.7178003,62c50e9c1127f2cd403a315f,,,,,,,,,,,,,,,,,,,"[-0.4746,-0.0354000000000001,0.5449999999999999]",threefour,"[0.0351999999999999,0.41159999999999997,0.0038000000000000256]",-3,0.8195,-176,54,1,0,0,response7disk_5,-17,-12,1,0,0,rectangle_8,-17,-12,1,0,0,4,-17,-12,1,0,0,6,0,6,0,1,,,,,,,,,,,,,,,,,,,,,,,,,,,,,,,,,,,,,,,,,,,,,,,,,,,,,,,,,,,,,,,,,,,,,,,,,,,,,,,,,,,,,,,,,,,,,,,,,,,,,,,,,,,,,,,,
,,,,,,5ec7b7f0079cdc22125201eb,62c53a9a3c3942f0dbd9d101,2022-07-06_10h33.22.550,Colour_Asymmetry_Pilot,2022.1.3,Win32,144.7178003,62c50e9c1127f2cd403a315f,,,,,,,,,,,,,,,,,,,,fourtwo,,1,0.6946,,,,,,,,,,,,,,,,,,,,,,,,,,,,,,,,space,7.4171,"[0.2862,0.7802,0.3568]","[0.796,0.2156,-0.27859999999999996]",94,-204,1,0,0,response3disk,-1,2,1,0,0,rectangle,207,89,1,0,0,response1disk_3,3,3,2.2642,1,23,5,1,0,0,rectangle,0,0,0,36,1,36,first,,,,,,,,,,,,,,,,,,,,,,,,,,,,,,,,,,,,,,,,,,,,,,,,,,,,,,,,,,,,,,,,,,,,,,
,,,,,,5ec7b7f0079cdc22125201eb,62c53a9a3c3942f0dbd9d101,2022-07-06_10h33.22.550,Colour_Asymmetry_Pilot,2022.1.3,Win32,144.7178003,62c50e9c1127f2cd403a315f,,,,,,,,,,,,,,,,,,,,fourtwo,,-4,0.9305,,,,,,,,,,,,,,,,,,,,,,,,,,,,,,,,,,"[0.30180000000000007,-0.7884,-0.9844]","[0.9842,0.7409999999999999,-0.6628000000000001]",-117,142,1,0,0,response7disk,-1,9,1,0,0,rectangle,-1,9,1,0,0,,3,3,0,0,-1,9,1,0,0,,0,1,1,132,1,51,second,,,,,,,,,,,,,,,,,,,,,,,,,,,,,,,,,,,,,,,,,,,,,,,,,,,,,,,,,,,,,,,,,,,,,,
,,,,,,5ec7b7f0079cdc22125201eb,62c53a9a3c3942f0dbd9d101,2022-07-06_10h33.22.550,Colour_Asymmetry_Pilot,2022.1.3,Win32,144.7178003,62c50e9c1127f2cd403a315f,,,,,,,,,,,,,,,,,,,,twofour,,2,0.8889,,,,,,,,,,,,,,,,,,,,,,,,,,,,,,,,,,"[0.9686000000000001,0.5763999999999998,0.11359999999999992]","[0.6547999999999998,-0.043199999999999905,-0.011800000000000033]",179,-97,1,0,0,response3disk,31,-8,1,0,0,rectangle,31,-8,1,0,0,,3,2,0.0004,0,31,-8,1,0,0,,0,2,2,17,1,17,first,,,,,,,,,,,,,,,,,,,,,,,,,,,,,,,,,,,,,,,,,,,,,,,,,,,,,,,,,,,,,,,,,,,,,,
,,,,,,5ec7b7f0079cdc22125201eb,62c53a9a3c3942f0dbd9d101,2022-07-06_10h33.22.550,Colour_Asymmetry_Pilot,2022.1.3,Win32,144.7178003,62c50e9c1127f2cd403a315f,,,,,,,,,,,,,,,,,,,,onetwo,,3,0.6875,,,,,,,,,,,,,,,,,,,,,,,,,,,,,,,,,,"[0.7176,-0.906,-0.6864]","[-0.9138,-0.5296000000000001,-0.5529999999999999]",172,92,1,0,0,response1disk,-1,0,1,0,0,rectangle,-1,0,1,0,0,,3,2,0.0002,0,-1,0,1,0,0,,0,3,3,83,1,2,second,,,,,,,,,,,,,,,,,,,,,,,,,,,,,,,,,,,,,,,,,,,,,,,,,,,,,,,,,,,,,,,,,,,,,,
,,,,,,5ec7b7f0079cdc22125201eb,62c53a9a3c3942f0dbd9d101,2022-07-06_10h33.22.550,Colour_Asymmetry_Pilot,2022.1.3,Win32,144.7178003,62c50e9c1127f2cd403a315f,,,,,,,,,,,,,,,,,,,,onethree,,2,4.0834,,,,,,,,,,,,,,,,,,,,,,,,,,,,,,,,,,"[0.9372,0.20779999999999998,0.2704]","[-0.9216,-0.5529999999999999,-0.3962]",141,-86,1,0,0,response3disk,23,2,1,0,0,rectangle,23,2,1,0,0,,3,1,0.0003,0,23,2,1,0,0,,0,4,4,121,1,40,second,,,,,,,,,,,,,,,,,,,,,,,,,,,,,,,,,,,,,,,,,,,,,,,,,,,,,,,,,,,,,,,,,,,,,,
,,,,,,5ec7b7f0079cdc22125201eb,62c53a9a3c3942f0dbd9d101,2022-07-06_10h33.22.550,Colour_Asymmetry_Pilot,2022.1.3,Win32,144.7178003,62c50e9c1127f2cd403a315f,,,,,,,,,,,,,,,,,,,,fourthree,,-4,1.2082,,,,,,,,,,,,,,,,,,,,,,,,,,,,,,,,,,"[-0.17659999999999998,0.3253999999999999,0.19999999999999996]","[-0.9688,-0.4902000000000001,-0.12159999999999993]",-110,155,1,0,0,response7disk,11,-9,1,0,0,rectangle,11,-9,1,0,0,,3,3,0.0003,0,11,-9,1,0,0,,0,5,5,26,1,26,first,,,,,,,,,,,,,,,,,,,,,,,,,,,,,,,,,,,,,,,,,,,,,,,,,,,,,,,,,,,,,,,,,,,,,,
,,,,,,5ec7b7f0079cdc22125201eb,62c53a9a3c3942f0dbd9d101,2022-07-06_10h33.22.550,Colour_Asymmetry_Pilot,2022.1.3,Win32,144.7178003,62c50e9c1127f2cd403a315f,,,,,,,,,,,,,,,,,,,,onethree,,-1,1.2917,,,,,,,,,,,,,,,,,,,,,,,,,,,,,,,,,,"[0.9842,0.7409999999999999,-0.6628000000000001]","[0.30180000000000007,-0.7884,-0.9844]",-94,-230,1,0,0,response5disk,-7,-7,1,0,0,rectangle,-7,-7,1,0,0,,3,1,0.0004,0,-7,-7,1,0,0,,0,6,6,51,1,51,first,,,,,,,,,,,,,,,,,,,,,,,,,,,,,,,,,,,,,,,,,,,,,,,,,,,,,,,,,,,,,,,,,,,,,,
,,,,,,5ec7b7f0079cdc22125201eb,62c53a9a3c3942f0dbd9d101,2022-07-06_10h33.22.550,Colour_Asymmetry_Pilot,2022.1.3,Win32,144.7178003,62c50e9c1127f2cd403a315f,,,,,,,,,,,,,,,,,,,,fourtwo,,-2,1.3128,,,,,,,,,,,,,,,,,,,,,,,,,,,,,,,,,,"[0.7018,0.7802,-0.16079999999999994]","[-0.8198,-0.5138,-0.7492000000000001]",-155,-79,1,0,0,response5disk,6,0,1,0,0,rectangle,6,0,1,0,0,,3,1,1E-04,0,6,0,1,0,0,,0,7,7,15,1,15,first,,,,,,,,,,,,,,,,,,,,,,,,,,,,,,,,,,,,,,,,,,,,,,,,,,,,,,,,,,,,,,,,,,,,,,
,,,,,,5ec7b7f0079cdc22125201eb,62c53a9a3c3942f0dbd9d101,2022-07-06_10h33.22.550,Colour_Asymmetry_Pilot,2022.1.3,Win32,144.7178003,62c50e9c1127f2cd403a315f,,,,,,,,,,,,,,,,,,,,threeone,,-2,1.3402,,,,,,,,,,,,,,,,,,,,,,,,,,,,,,,,,,"[0.23120000000000007,-0.7726,-0.34120000000000006]","[-0.6,0.16860000000000008,0.44300000000000006]",-128,-77,1,0,0,response5disk,-10,-12,1,0,0,rectangle,-10,-12,1,0,0,,3,2,0.0004,0,-10,-12,1,0,0,,0,8,8,85,1,4,second,,,,,,,,,,,,,,,,,,,,,,,,,,,,,,,,,,,,,,,,,,,,,,,,,,,,,,,,,,,,,,,,,,,,,,
,,,,,,5ec7b7f0079cdc22125201eb,62c53a9a3c3942f0dbd9d101,2022-07-06_10h33.22.550,Colour_Asymmetry_Pilot,2022.1.3,Win32,144.7178003,62c50e9c1127f2cd403a315f,,,,,,,,,,,,,,,,,,,,twoone,,-1,1.0834,,,,,,,,,,,,,,,,,,,,,,,,,,,,,,,,,,"[-0.8118,-0.8198,-0.5452]","[0.40379999999999994,0.09000000000000008,0.44300000000000006]",-109,-183,1,0,0,response5disk,-21,-17,1,0,0,rectangle,-21,-17,1,0,0,,3,2,1E-04,0,-21,-17,1,0,0,,0,9,9,68,1,68,first,,,,,,,,,,,,,,,,,,,,,,,,,,,,,,,,,,,,,,,,,,,,,,,,,,,,,,,,,,,,,,,,,,,,,,
,,,,,,5ec7b7f0079cdc22125201eb,62c53a9a3c3942f0dbd9d101,2022-07-06_10h33.22.550,Colour_Asymmetry_Pilot,2022.1.3,Win32,144.7178003,62c50e9c1127f2cd403a315f,,,,,,,,,,,,,,,,,,,,fourthree,,4,0.6805,,,,,,,,,,,,,,,,,,,,,,,,,,,,,,,,,,"[-0.06680000000000008,-0.45100000000000007,-0.906]","[0.7176,-0.906,-0.6864]",67,154,1,0,0,response1disk,22,1,1,0,0,rectangle,22,1,1,0,0,,3,1,0.0003,0,22,1,1,0,0,,0,10,10,144,1,63,second,,,,,,,,,,,,,,,,,,,,,,,,,,,,,,,,,,,,,,,,,,,,,,,,,,,,,,,,,,,,,,,,,,,,,,
,,,,,,5ec7b7f0079cdc22125201eb,62c53a9a3c3942f0dbd9d101,2022-07-06_10h33.22.550,Colour_Asymmetry_Pilot,2022.1.3,Win32,144.7178003,62c50e9c1127f2cd403a315f,,,,,,,,,,,,,,,,,,,,fourtwo,,2,0.5346,,,,,,,,,,,,,,,,,,,,,,,,,,,,,,,,,,"[0.22340000000000004,-0.9296,-0.7884]","[-0.2942,-0.24719999999999998,-0.357]",189,-77,1,0,0,response3disk,33,-4,1,0,0,rectangle,33,-4,1,0,0,,3,2,0.0004,0,33,-4,1,0,0,,0,11,11,139,1,58,second,,,,,,,,,,,,,,,,,,,,,,,,,,,,,,,,,,,,,,,,,,,,,,,,,,,,,,,,,,,,,,,,,,,,,,
,,,,,,5ec7b7f0079cdc22125201eb,62c53a9a3c3942f0dbd9d101,2022-07-06_10h33.22.550,Colour_Asymmetry_Pilot,2022.1.3,Win32,144.7178003,62c50e9c1127f2cd403a315f,,,,,,,,,,,,,,,,,,,,twofour,,-3,2.9862,,,,,,,,,,,,,,,,,,,,,,,,,,,,,,,,,,"[0.12939999999999996,-0.2864,0.3253999999999999]","[0.796,0.2156,-0.27859999999999996]",-206,72,1,0,0,response7disk,-30,-8,1,0,0,rectangle,-30,-8,1,0,0,,3,2,0,0,-30,-8,1,0,0,,0,12,12,12,1,12,first,,,,,,,,,,,,,,,,,,,,,,,,,,,,,,,,,,,,,,,,,,,,,,,,,,,,,,,,,,,,,,,,,,,,,,
,,,,,,5ec7b7f0079cdc22125201eb,62c53a9a3c3942f0dbd9d101,2022-07-06_10h33.22.550,Colour_Asymmetry_Pilot,2022.1.3,Win32,144.7178003,62c50e9c1127f2cd403a315f,,,,,,,,,,,,,,,,,,,,twofour,,1,1.9097,,,,,,,,,,,,,,,,,,,,,,,,,,,,,,,,,,"[0.5528,0.7409999999999999,-0.71]","[0.37240000000000006,-0.050999999999999934,-0.5216]",114,-227,1,0,0,response3disk,-11,-6,1,0,0,rectangle,-11,-6,1,0,0,,3,2,0,0,-11,-6,1,0,0,,0,13,13,153,1,72,second,,,,,,,,,,,,,,,,,,,,,,,,,,,,,,,,,,,,,,,,,,,,,,,,,,,,,,,,,,,,,,,,,,,,,,
,,,,,,5ec7b7f0079cdc22125201eb,62c53a9a3c3942f0dbd9d101,2022-07-06_10h33.22.550,Colour_Asymmetry_Pilot,2022.1.3,Win32,144.7178003,62c50e9c1127f2cd403a315f,,,,,,,,,,,,,,,,,,,,twoone,,1,1.5557,,,,,,,,,,,,,,,,,,,,,,,,,,,,,,,,,,"[0.9763999999999999,0.30979999999999985,-0.6786]","[0.6547999999999998,-0.043199999999999905,-0.011800000000000033]",77,-180,1,0,0,response3disk,6,-16,1,0,0,rectangle,6,-16,1,0,0,,3,1,0.0004,0,6,-16,1,0,0,,0,14,14,145,1,64,second,,,,,,,,,,,,,,,,,,,,,,,,,,,,,,,,,,,,,,,,,,,,,,,,,,,,,,,,,,,,,,,,,,,,,,
,,,,,,5ec7b7f0079cdc22125201eb,62c53a9a3c3942f0dbd9d101,2022-07-06_10h33.22.550,Colour_Asymmetry_Pilot,2022.1.3,Win32,144.7178003,62c50e9c1127f2cd403a315f,,,,,,,,,,,,,,,,,,,,twofour,,-3,0.8333,,,,,,,,,,,,,,,,,,,,,,,,,,,,,,,,,,"[0.796,0.2156,-0.27859999999999996]","[0.12939999999999996,-0.2864,0.3253999999999999]",-202,70,1,0,0,response7disk,-33,-7,1,0,0,rectangle,-33,-7,1,0,0,,3,3,0.0003,0,-33,-7,1,0,0,,0,15,15,93,1,12,second,,,,,,,,,,,,,,,,,,,,,,,,,,,,,,,,,,,,,,,,,,,,,,,,,,,,,,,,,,,,,,,,,,,,,,
,,,,,,5ec7b7f0079cdc22125201eb,62c53a9a3c3942f0dbd9d101,2022-07-06_10h33.22.550,Colour_Asymmetry_Pilot,2022.1.3,Win32,144.7178003,62c50e9c1127f2cd403a315f,,,,,,,,,,,,,,,,,,,,fourtwo,,2,0.6319,,,,,,,,,,,,,,,,,,,,,,,,,,,,,,,,,,"[0.3802000000000001,0.19199999999999995,-0.6394]","[-0.24719999999999998,0.5213999999999999,-0.12959999999999994]",197,-96,1,0,0,response3disk,50,-21,1,0,0,rectangle,50,-21,1,0,0,,3,3,0.0001,0,50,-21,1,0,0,,0,16,16,21,1,21,first,,,,,,,,,,,,,,,,,,,,,,,,,,,,,,,,,,,,,,,,,,,,,,,,,,,,,,,,,,,,,,,,,,,,,,
,,,,,,5ec7b7f0079cdc22125201eb,62c53a9a3c3942f0dbd9d101,2022-07-06_10h33.22.550,Colour_Asymmetry_Pilot,2022.1.3,Win32,144.7178003,62c50e9c1127f2cd403a315f,,,,,,,,,,,,,,,,,,,,fourtwo,,-2,0.4514,,,,,,,,,,,,,,,,,,,,,,,,,,,,,,,,,,"[-0.5688,-0.08239999999999992,-0.1844]","[-0.8118,-0.8198,-0.5452]",-141,-72,1,0,0,response5disk,-18,-17,1,0,0,rectangle,-18,-17,1,0,0,,3,2,0.0004,0,-18,-17,1,0,0,,0,17,17,5,1,5,first,,,,,,,,,,,,,,,,,,,,,,,,,,,,,,,,,,,,,,,,,,,,,,,,,,,,,,,,,,,,,,,,,,,,,,
