trials.thisRepN,trials.thisTrialN,trials.thisN,trials.thisIndex,trials.ran,Colourcodes,participant,session,date,expName,psychopyVersion,OS,frameRate,study_id,trials_4.thisRepN,trials_4.thisTrialN,trials_4.thisN,trials_4.thisIndex,trials_4.ran,StimulusPos,key_resp.keys,key_resp.rt,key_resp_2.keys,key_resp_2.rt,key_resp_15.keys,key_resp_15.rt,key_resp_17.keys,key_resp_17.rt,key_resp_9.keys,key_resp_9.rt,key_resp_10.keys,key_resp_10.rt,Circle1_col,Ecc,Circle2_col,similarity,response_time,mouse_5.x,mouse_5.y,mouse_5.leftButton,mouse_5.midButton,mouse_5.rightButton,mouse_5.clicked_name,mouse_10.x,mouse_10.y,mouse_10.leftButton,mouse_10.midButton,mouse_10.rightButton,mouse_10.clicked_name,mouse_7.x,mouse_7.y,mouse_7.leftButton,mouse_7.midButton,mouse_7.rightButton,catchnumberprac,mouse_6.x,mouse_6.y,mouse_6.leftButton,mouse_6.midButton,mouse_6.rightButton,duringprac.thisRepN,duringprac.thisTrialN,duringprac.thisN,duringprac.thisIndex,duringprac.ran,mouse_7.clicked_name,catchprac,mouse_6.clicked_name,key_resp_22.keys,key_resp_22.rt,Circle1_colour,Circle2_colour,mouse.x,mouse.y,mouse.leftButton,mouse.midButton,mouse.rightButton,mouse.clicked_name,mouse_2.x,mouse_2.y,mouse_2.leftButton,mouse_2.midButton,mouse_2.rightButton,mouse_2.clicked_name,mouse_3.x,mouse_3.y,mouse_3.leftButton,mouse_3.midButton,mouse_3.rightButton,catchresponse,catchnumber,response_time_catch,Catch,mouse_11.x,mouse_11.y,mouse_11.leftButton,mouse_11.midButton,mouse_11.rightButton,trials_2.thisRepN,trials_2.thisTrialN,trials_2.thisN,trials_2.thisIndex,trials_2.ran,Colourpair,Temporder,mouse_3.clicked_name,mouse_11.clicked_name,trials_3.thisRepN,trials_3.thisTrialN,trials_3.thisN,trials_3.thisIndex,trials_3.ran,key_resp_instr_Ishi.keys,key_resp_instr_Ishi.rt,Ishi_trial_keyresp.keys,Ishi_textbox.text,Ishi_mouse.x,Ishi_mouse.y,Ishi_mouse.leftButton,Ishi_mouse.midButton,Ishi_mouse.rightButton,Ishi_mouse.clicked_name,Ishi_loop.thisRepN,Ishi_loop.thisTrialN,Ishi_loop.thisN,Ishi_loop.thisIndex,Ishi_loop.ran,imageaddress,textbox.text,mouse_4.x,mouse_4.y,mouse_4.leftButton,mouse_4.midButton,mouse_4.rightButton,mouse_4.clicked_name,textbox_2.text,mouse_8.x,mouse_8.y,mouse_8.leftButton,mouse_8.midButton,mouse_8.rightButton,mouse_8.clicked_name,textbox_3.text,mouse_9.x,mouse_9.y,mouse_9.leftButton,mouse_9.midButton,mouse_9.rightButton,mouse_9.clicked_name,textbox_4.text,mouse_12.x,mouse_12.y,mouse_12.leftButton,mouse_12.midButton,mouse_12.rightButton,mouse_12.clicked_name,textbox_5.text,mouse_13.x,mouse_13.y,mouse_13.leftButton,mouse_13.midButton,mouse_13.rightButton,mouse_13.clicked_name,textbox_6.text,mouse_14.x,mouse_14.y,mouse_14.leftButton,mouse_14.midButton,mouse_14.rightButton,mouse_14.clicked_name,textbox_7.text,mouse_15.x,mouse_15.y,mouse_15.leftButton,mouse_15.midButton,mouse_15.rightButton,mouse_15.clicked_name
0,0,0,56,1,,611cec79d3e2f9b32a11a9ef,62c538b34f260ff71db91f1e,2022-07-06_09h25.54.694,Colour_Asymmetry_Pilot,2022.1.3,Win32,83.54218881,62c50e9c1127f2cd403a315f,,,,,,,,,,,,,,,,,,,,,,,,,,,,,,,,,,,,,,,,,,,,,,,,,,,,,,,,,,,,,,,,,,,,,,,,,,,,,,,,,,,,,,,,,,,,,,,,,,,,,,,,,,,,,,,,,,,,,,,,,,,,,,,,,,,,,,,,,,,,,,,,,,,,,,,,,,,,,,,,,,,
0,1,1,53,1,,611cec79d3e2f9b32a11a9ef,62c538b34f260ff71db91f1e,2022-07-06_09h25.54.694,Colour_Asymmetry_Pilot,2022.1.3,Win32,83.54218881,62c50e9c1127f2cd403a315f,,,,,,,,,,,,,,,,,,,,,,,,,,,,,,,,,,,,,,,,,,,,,,,,,,,,,,,,,,,,,,,,,,,,,,,,,,,,,,,,,,,,,,,,,,,,,,,,,,,,,,,,,,,,,,,,,,,,,,,,,,,,,,,,,,,,,,,,,,,,,,,,,,,,,,,,,,,,,,,,,,,
0,2,2,28,1,,611cec79d3e2f9b32a11a9ef,62c538b34f260ff71db91f1e,2022-07-06_09h25.54.694,Colour_Asymmetry_Pilot,2022.1.3,Win32,83.54218881,62c50e9c1127f2cd403a315f,,,,,,,,,,,,,,,,,,,,,,,,,,,,,,,,,,,,,,,,,,,,,,,,,,,,,,,,,,,,,,,,,,,,,,,,,,,,,,,,,,,,,,,,,,,,,,,,,,,,,,,,,,,,,,,,,,,,,,,,,,,,,,,,,,,,,,,,,,,,,,,,,,,,,,,,,,,,,,,,,,,
0,3,3,78,1,,611cec79d3e2f9b32a11a9ef,62c538b34f260ff71db91f1e,2022-07-06_09h25.54.694,Colour_Asymmetry_Pilot,2022.1.3,Win32,83.54218881,62c50e9c1127f2cd403a315f,,,,,,,,,,,,,,,,,,,,,,,,,,,,,,,,,,,,,,,,,,,,,,,,,,,,,,,,,,,,,,,,,,,,,,,,,,,,,,,,,,,,,,,,,,,,,,,,,,,,,,,,,,,,,,,,,,,,,,,,,,,,,,,,,,,,,,,,,,,,,,,,,,,,,,,,,,,,,,,,,,,
0,4,4,45,1,,611cec79d3e2f9b32a11a9ef,62c538b34f260ff71db91f1e,2022-07-06_09h25.54.694,Colour_Asymmetry_Pilot,2022.1.3,Win32,83.54218881,62c50e9c1127f2cd403a315f,,,,,,,,,,,,,,,,,,,,,,,,,,,,,,,,,,,,,,,,,,,,,,,,,,,,,,,,,,,,,,,,,,,,,,,,,,,,,,,,,,,,,,,,,,,,,,,,,,,,,,,,,,,,,,,,,,,,,,,,,,,,,,,,,,,,,,,,,,,,,,,,,,,,,,,,,,,,,,,,,,,
0,5,5,49,1,,611cec79d3e2f9b32a11a9ef,62c538b34f260ff71db91f1e,2022-07-06_09h25.54.694,Colour_Asymmetry_Pilot,2022.1.3,Win32,83.54218881,62c50e9c1127f2cd403a315f,,,,,,,,,,,,,,,,,,,,,,,,,,,,,,,,,,,,,,,,,,,,,,,,,,,,,,,,,,,,,,,,,,,,,,,,,,,,,,,,,,,,,,,,,,,,,,,,,,,,,,,,,,,,,,,,,,,,,,,,,,,,,,,,,,,,,,,,,,,,,,,,,,,,,,,,,,,,,,,,,,,
0,6,6,2,1,,611cec79d3e2f9b32a11a9ef,62c538b34f260ff71db91f1e,2022-07-06_09h25.54.694,Colour_Asymmetry_Pilot,2022.1.3,Win32,83.54218881,62c50e9c1127f2cd403a315f,,,,,,,,,,,,,,,,,,,,,,,,,,,,,,,,,,,,,,,,,,,,,,,,,,,,,,,,,,,,,,,,,,,,,,,,,,,,,,,,,,,,,,,,,,,,,,,,,,,,,,,,,,,,,,,,,,,,,,,,,,,,,,,,,,,,,,,,,,,,,,,,,,,,,,,,,,,,,,,,,,,
0,7,7,32,1,,611cec79d3e2f9b32a11a9ef,62c538b34f260ff71db91f1e,2022-07-06_09h25.54.694,Colour_Asymmetry_Pilot,2022.1.3,Win32,83.54218881,62c50e9c1127f2cd403a315f,,,,,,,,,,,,,,,,,,,,,,,,,,,,,,,,,,,,,,,,,,,,,,,,,,,,,,,,,,,,,,,,,,,,,,,,,,,,,,,,,,,,,,,,,,,,,,,,,,,,,,,,,,,,,,,,,,,,,,,,,,,,,,,,,,,,,,,,,,,,,,,,,,,,,,,,,,,,,,,,,,,
0,8,8,50,1,,611cec79d3e2f9b32a11a9ef,62c538b34f260ff71db91f1e,2022-07-06_09h25.54.694,Colour_Asymmetry_Pilot,2022.1.3,Win32,83.54218881,62c50e9c1127f2cd403a315f,,,,,,,,,,,,,,,,,,,,,,,,,,,,,,,,,,,,,,,,,,,,,,,,,,,,,,,,,,,,,,,,,,,,,,,,,,,,,,,,,,,,,,,,,,,,,,,,,,,,,,,,,,,,,,,,,,,,,,,,,,,,,,,,,,,,,,,,,,,,,,,,,,,,,,,,,,,,,,,,,,,
0,9,9,21,1,,611cec79d3e2f9b32a11a9ef,62c538b34f260ff71db91f1e,2022-07-06_09h25.54.694,Colour_Asymmetry_Pilot,2022.1.3,Win32,83.54218881,62c50e9c1127f2cd403a315f,,,,,,,,,,,,,,,,,,,,,,,,,,,,,,,,,,,,,,,,,,,,,,,,,,,,,,,,,,,,,,,,,,,,,,,,,,,,,,,,,,,,,,,,,,,,,,,,,,,,,,,,,,,,,,,,,,,,,,,,,,,,,,,,,,,,,,,,,,,,,,,,,,,,,,,,,,,,,,,,,,,
0,10,10,79,1,,611cec79d3e2f9b32a11a9ef,62c538b34f260ff71db91f1e,2022-07-06_09h25.54.694,Colour_Asymmetry_Pilot,2022.1.3,Win32,83.54218881,62c50e9c1127f2cd403a315f,,,,,,,,,,,,,,,,,,,,,,,,,,,,,,,,,,,,,,,,,,,,,,,,,,,,,,,,,,,,,,,,,,,,,,,,,,,,,,,,,,,,,,,,,,,,,,,,,,,,,,,,,,,,,,,,,,,,,,,,,,,,,,,,,,,,,,,,,,,,,,,,,,,,,,,,,,,,,,,,,,,
0,11,11,80,1,,611cec79d3e2f9b32a11a9ef,62c538b34f260ff71db91f1e,2022-07-06_09h25.54.694,Colour_Asymmetry_Pilot,2022.1.3,Win32,83.54218881,62c50e9c1127f2cd403a315f,,,,,,,,,,,,,,,,,,,,,,,,,,,,,,,,,,,,,,,,,,,,,,,,,,,,,,,,,,,,,,,,,,,,,,,,,,,,,,,,,,,,,,,,,,,,,,,,,,,,,,,,,,,,,,,,,,,,,,,,,,,,,,,,,,,,,,,,,,,,,,,,,,,,,,,,,,,,,,,,,,,
0,12,12,1,1,,611cec79d3e2f9b32a11a9ef,62c538b34f260ff71db91f1e,2022-07-06_09h25.54.694,Colour_Asymmetry_Pilot,2022.1.3,Win32,83.54218881,62c50e9c1127f2cd403a315f,,,,,,,,,,,,,,,,,,,,,,,,,,,,,,,,,,,,,,,,,,,,,,,,,,,,,,,,,,,,,,,,,,,,,,,,,,,,,,,,,,,,,,,,,,,,,,,,,,,,,,,,,,,,,,,,,,,,,,,,,,,,,,,,,,,,,,,,,,,,,,,,,,,,,,,,,,,,,,,,,,,
0,13,13,87,1,,611cec79d3e2f9b32a11a9ef,62c538b34f260ff71db91f1e,2022-07-06_09h25.54.694,Colour_Asymmetry_Pilot,2022.1.3,Win32,83.54218881,62c50e9c1127f2cd403a315f,,,,,,,,,,,,,,,,,,,,,,,,,,,,,,,,,,,,,,,,,,,,,,,,,,,,,,,,,,,,,,,,,,,,,,,,,,,,,,,,,,,,,,,,,,,,,,,,,,,,,,,,,,,,,,,,,,,,,,,,,,,,,,,,,,,,,,,,,,,,,,,,,,,,,,,,,,,,,,,,,,,
0,14,14,22,1,,611cec79d3e2f9b32a11a9ef,62c538b34f260ff71db91f1e,2022-07-06_09h25.54.694,Colour_Asymmetry_Pilot,2022.1.3,Win32,83.54218881,62c50e9c1127f2cd403a315f,,,,,,,,,,,,,,,,,,,,,,,,,,,,,,,,,,,,,,,,,,,,,,,,,,,,,,,,,,,,,,,,,,,,,,,,,,,,,,,,,,,,,,,,,,,,,,,,,,,,,,,,,,,,,,,,,,,,,,,,,,,,,,,,,,,,,,,,,,,,,,,,,,,,,,,,,,,,,,,,,,,
0,15,15,86,1,,611cec79d3e2f9b32a11a9ef,62c538b34f260ff71db91f1e,2022-07-06_09h25.54.694,Colour_Asymmetry_Pilot,2022.1.3,Win32,83.54218881,62c50e9c1127f2cd403a315f,,,,,,,,,,,,,,,,,,,,,,,,,,,,,,,,,,,,,,,,,,,,,,,,,,,,,,,,,,,,,,,,,,,,,,,,,,,,,,,,,,,,,,,,,,,,,,,,,,,,,,,,,,,,,,,,,,,,,,,,,,,,,,,,,,,,,,,,,,,,,,,,,,,,,,,,,,,,,,,,,,,
0,16,16,68,1,,611cec79d3e2f9b32a11a9ef,62c538b34f260ff71db91f1e,2022-07-06_09h25.54.694,Colour_Asymmetry_Pilot,2022.1.3,Win32,83.54218881,62c50e9c1127f2cd403a315f,,,,,,,,,,,,,,,,,,,,,,,,,,,,,,,,,,,,,,,,,,,,,,,,,,,,,,,,,,,,,,,,,,,,,,,,,,,,,,,,,,,,,,,,,,,,,,,,,,,,,,,,,,,,,,,,,,,,,,,,,,,,,,,,,,,,,,,,,,,,,,,,,,,,,,,,,,,,,,,,,,,
0,17,17,92,1,,611cec79d3e2f9b32a11a9ef,62c538b34f260ff71db91f1e,2022-07-06_09h25.54.694,Colour_Asymmetry_Pilot,2022.1.3,Win32,83.54218881,62c50e9c1127f2cd403a315f,,,,,,,,,,,,,,,,,,,,,,,,,,,,,,,,,,,,,,,,,,,,,,,,,,,,,,,,,,,,,,,,,,,,,,,,,,,,,,,,,,,,,,,,,,,,,,,,,,,,,,,,,,,,,,,,,,,,,,,,,,,,,,,,,,,,,,,,,,,,,,,,,,,,,,,,,,,,,,,,,,,
0,18,18,84,1,,611cec79d3e2f9b32a11a9ef,62c538b34f260ff71db91f1e,2022-07-06_09h25.54.694,Colour_Asymmetry_Pilot,2022.1.3,Win32,83.54218881,62c50e9c1127f2cd403a315f,,,,,,,,,,,,,,,,,,,,,,,,,,,,,,,,,,,,,,,,,,,,,,,,,,,,,,,,,,,,,,,,,,,,,,,,,,,,,,,,,,,,,,,,,,,,,,,,,,,,,,,,,,,,,,,,,,,,,,,,,,,,,,,,,,,,,,,,,,,,,,,,,,,,,,,,,,,,,,,,,,,
0,19,19,7,1,,611cec79d3e2f9b32a11a9ef,62c538b34f260ff71db91f1e,2022-07-06_09h25.54.694,Colour_Asymmetry_Pilot,2022.1.3,Win32,83.54218881,62c50e9c1127f2cd403a315f,,,,,,,,,,,,,,,,,,,,,,,,,,,,,,,,,,,,,,,,,,,,,,,,,,,,,,,,,,,,,,,,,,,,,,,,,,,,,,,,,,,,,,,,,,,,,,,,,,,,,,,,,,,,,,,,,,,,,,,,,,,,,,,,,,,,,,,,,,,,,,,,,,,,,,,,,,,,,,,,,,,
0,20,20,26,1,,611cec79d3e2f9b32a11a9ef,62c538b34f260ff71db91f1e,2022-07-06_09h25.54.694,Colour_Asymmetry_Pilot,2022.1.3,Win32,83.54218881,62c50e9c1127f2cd403a315f,,,,,,,,,,,,,,,,,,,,,,,,,,,,,,,,,,,,,,,,,,,,,,,,,,,,,,,,,,,,,,,,,,,,,,,,,,,,,,,,,,,,,,,,,,,,,,,,,,,,,,,,,,,,,,,,,,,,,,,,,,,,,,,,,,,,,,,,,,,,,,,,,,,,,,,,,,,,,,,,,,,
0,21,21,6,1,,611cec79d3e2f9b32a11a9ef,62c538b34f260ff71db91f1e,2022-07-06_09h25.54.694,Colour_Asymmetry_Pilot,2022.1.3,Win32,83.54218881,62c50e9c1127f2cd403a315f,,,,,,,,,,,,,,,,,,,,,,,,,,,,,,,,,,,,,,,,,,,,,,,,,,,,,,,,,,,,,,,,,,,,,,,,,,,,,,,,,,,,,,,,,,,,,,,,,,,,,,,,,,,,,,,,,,,,,,,,,,,,,,,,,,,,,,,,,,,,,,,,,,,,,,,,,,,,,,,,,,,
0,22,22,38,1,,611cec79d3e2f9b32a11a9ef,62c538b34f260ff71db91f1e,2022-07-06_09h25.54.694,Colour_Asymmetry_Pilot,2022.1.3,Win32,83.54218881,62c50e9c1127f2cd403a315f,,,,,,,,,,,,,,,,,,,,,,,,,,,,,,,,,,,,,,,,,,,,,,,,,,,,,,,,,,,,,,,,,,,,,,,,,,,,,,,,,,,,,,,,,,,,,,,,,,,,,,,,,,,,,,,,,,,,,,,,,,,,,,,,,,,,,,,,,,,,,,,,,,,,,,,,,,,,,,,,,,,
0,23,23,75,1,,611cec79d3e2f9b32a11a9ef,62c538b34f260ff71db91f1e,2022-07-06_09h25.54.694,Colour_Asymmetry_Pilot,2022.1.3,Win32,83.54218881,62c50e9c1127f2cd403a315f,,,,,,,,,,,,,,,,,,,,,,,,,,,,,,,,,,,,,,,,,,,,,,,,,,,,,,,,,,,,,,,,,,,,,,,,,,,,,,,,,,,,,,,,,,,,,,,,,,,,,,,,,,,,,,,,,,,,,,,,,,,,,,,,,,,,,,,,,,,,,,,,,,,,,,,,,,,,,,,,,,,
0,24,24,15,1,,611cec79d3e2f9b32a11a9ef,62c538b34f260ff71db91f1e,2022-07-06_09h25.54.694,Colour_Asymmetry_Pilot,2022.1.3,Win32,83.54218881,62c50e9c1127f2cd403a315f,,,,,,,,,,,,,,,,,,,,,,,,,,,,,,,,,,,,,,,,,,,,,,,,,,,,,,,,,,,,,,,,,,,,,,,,,,,,,,,,,,,,,,,,,,,,,,,,,,,,,,,,,,,,,,,,,,,,,,,,,,,,,,,,,,,,,,,,,,,,,,,,,,,,,,,,,,,,,,,,,,,
0,25,25,13,1,,611cec79d3e2f9b32a11a9ef,62c538b34f260ff71db91f1e,2022-07-06_09h25.54.694,Colour_Asymmetry_Pilot,2022.1.3,Win32,83.54218881,62c50e9c1127f2cd403a315f,,,,,,,,,,,,,,,,,,,,,,,,,,,,,,,,,,,,,,,,,,,,,,,,,,,,,,,,,,,,,,,,,,,,,,,,,,,,,,,,,,,,,,,,,,,,,,,,,,,,,,,,,,,,,,,,,,,,,,,,,,,,,,,,,,,,,,,,,,,,,,,,,,,,,,,,,,,,,,,,,,,
0,26,26,48,1,,611cec79d3e2f9b32a11a9ef,62c538b34f260ff71db91f1e,2022-07-06_09h25.54.694,Colour_Asymmetry_Pilot,2022.1.3,Win32,83.54218881,62c50e9c1127f2cd403a315f,,,,,,,,,,,,,,,,,,,,,,,,,,,,,,,,,,,,,,,,,,,,,,,,,,,,,,,,,,,,,,,,,,,,,,,,,,,,,,,,,,,,,,,,,,,,,,,,,,,,,,,,,,,,,,,,,,,,,,,,,,,,,,,,,,,,,,,,,,,,,,,,,,,,,,,,,,,,,,,,,,,
0,27,27,40,1,,611cec79d3e2f9b32a11a9ef,62c538b34f260ff71db91f1e,2022-07-06_09h25.54.694,Colour_Asymmetry_Pilot,2022.1.3,Win32,83.54218881,62c50e9c1127f2cd403a315f,,,,,,,,,,,,,,,,,,,,,,,,,,,,,,,,,,,,,,,,,,,,,,,,,,,,,,,,,,,,,,,,,,,,,,,,,,,,,,,,,,,,,,,,,,,,,,,,,,,,,,,,,,,,,,,,,,,,,,,,,,,,,,,,,,,,,,,,,,,,,,,,,,,,,,,,,,,,,,,,,,,
0,28,28,62,1,,611cec79d3e2f9b32a11a9ef,62c538b34f260ff71db91f1e,2022-07-06_09h25.54.694,Colour_Asymmetry_Pilot,2022.1.3,Win32,83.54218881,62c50e9c1127f2cd403a315f,,,,,,,,,,,,,,,,,,,,,,,,,,,,,,,,,,,,,,,,,,,,,,,,,,,,,,,,,,,,,,,,,,,,,,,,,,,,,,,,,,,,,,,,,,,,,,,,,,,,,,,,,,,,,,,,,,,,,,,,,,,,,,,,,,,,,,,,,,,,,,,,,,,,,,,,,,,,,,,,,,,
0,29,29,54,1,,611cec79d3e2f9b32a11a9ef,62c538b34f260ff71db91f1e,2022-07-06_09h25.54.694,Colour_Asymmetry_Pilot,2022.1.3,Win32,83.54218881,62c50e9c1127f2cd403a315f,,,,,,,,,,,,,,,,,,,,,,,,,,,,,,,,,,,,,,,,,,,,,,,,,,,,,,,,,,,,,,,,,,,,,,,,,,,,,,,,,,,,,,,,,,,,,,,,,,,,,,,,,,,,,,,,,,,,,,,,,,,,,,,,,,,,,,,,,,,,,,,,,,,,,,,,,,,,,,,,,,,
0,30,30,88,1,,611cec79d3e2f9b32a11a9ef,62c538b34f260ff71db91f1e,2022-07-06_09h25.54.694,Colour_Asymmetry_Pilot,2022.1.3,Win32,83.54218881,62c50e9c1127f2cd403a315f,,,,,,,,,,,,,,,,,,,,,,,,,,,,,,,,,,,,,,,,,,,,,,,,,,,,,,,,,,,,,,,,,,,,,,,,,,,,,,,,,,,,,,,,,,,,,,,,,,,,,,,,,,,,,,,,,,,,,,,,,,,,,,,,,,,,,,,,,,,,,,,,,,,,,,,,,,,,,,,,,,,
0,31,31,39,1,,611cec79d3e2f9b32a11a9ef,62c538b34f260ff71db91f1e,2022-07-06_09h25.54.694,Colour_Asymmetry_Pilot,2022.1.3,Win32,83.54218881,62c50e9c1127f2cd403a315f,,,,,,,,,,,,,,,,,,,,,,,,,,,,,,,,,,,,,,,,,,,,,,,,,,,,,,,,,,,,,,,,,,,,,,,,,,,,,,,,,,,,,,,,,,,,,,,,,,,,,,,,,,,,,,,,,,,,,,,,,,,,,,,,,,,,,,,,,,,,,,,,,,,,,,,,,,,,,,,,,,,
0,32,32,33,1,,611cec79d3e2f9b32a11a9ef,62c538b34f260ff71db91f1e,2022-07-06_09h25.54.694,Colour_Asymmetry_Pilot,2022.1.3,Win32,83.54218881,62c50e9c1127f2cd403a315f,,,,,,,,,,,,,,,,,,,,,,,,,,,,,,,,,,,,,,,,,,,,,,,,,,,,,,,,,,,,,,,,,,,,,,,,,,,,,,,,,,,,,,,,,,,,,,,,,,,,,,,,,,,,,,,,,,,,,,,,,,,,,,,,,,,,,,,,,,,,,,,,,,,,,,,,,,,,,,,,,,,
0,33,33,74,1,,611cec79d3e2f9b32a11a9ef,62c538b34f260ff71db91f1e,2022-07-06_09h25.54.694,Colour_Asymmetry_Pilot,2022.1.3,Win32,83.54218881,62c50e9c1127f2cd403a315f,,,,,,,,,,,,,,,,,,,,,,,,,,,,,,,,,,,,,,,,,,,,,,,,,,,,,,,,,,,,,,,,,,,,,,,,,,,,,,,,,,,,,,,,,,,,,,,,,,,,,,,,,,,,,,,,,,,,,,,,,,,,,,,,,,,,,,,,,,,,,,,,,,,,,,,,,,,,,,,,,,,
0,34,34,35,1,,611cec79d3e2f9b32a11a9ef,62c538b34f260ff71db91f1e,2022-07-06_09h25.54.694,Colour_Asymmetry_Pilot,2022.1.3,Win32,83.54218881,62c50e9c1127f2cd403a315f,,,,,,,,,,,,,,,,,,,,,,,,,,,,,,,,,,,,,,,,,,,,,,,,,,,,,,,,,,,,,,,,,,,,,,,,,,,,,,,,,,,,,,,,,,,,,,,,,,,,,,,,,,,,,,,,,,,,,,,,,,,,,,,,,,,,,,,,,,,,,,,,,,,,,,,,,,,,,,,,,,,
0,35,35,63,1,,611cec79d3e2f9b32a11a9ef,62c538b34f260ff71db91f1e,2022-07-06_09h25.54.694,Colour_Asymmetry_Pilot,2022.1.3,Win32,83.54218881,62c50e9c1127f2cd403a315f,,,,,,,,,,,,,,,,,,,,,,,,,,,,,,,,,,,,,,,,,,,,,,,,,,,,,,,,,,,,,,,,,,,,,,,,,,,,,,,,,,,,,,,,,,,,,,,,,,,,,,,,,,,,,,,,,,,,,,,,,,,,,,,,,,,,,,,,,,,,,,,,,,,,,,,,,,,,,,,,,,,
0,36,36,0,1,,611cec79d3e2f9b32a11a9ef,62c538b34f260ff71db91f1e,2022-07-06_09h25.54.694,Colour_Asymmetry_Pilot,2022.1.3,Win32,83.54218881,62c50e9c1127f2cd403a315f,,,,,,,,,,,,,,,,,,,,,,,,,,,,,,,,,,,,,,,,,,,,,,,,,,,,,,,,,,,,,,,,,,,,,,,,,,,,,,,,,,,,,,,,,,,,,,,,,,,,,,,,,,,,,,,,,,,,,,,,,,,,,,,,,,,,,,,,,,,,,,,,,,,,,,,,,,,,,,,,,,,
0,37,37,10,1,,611cec79d3e2f9b32a11a9ef,62c538b34f260ff71db91f1e,2022-07-06_09h25.54.694,Colour_Asymmetry_Pilot,2022.1.3,Win32,83.54218881,62c50e9c1127f2cd403a315f,,,,,,,,,,,,,,,,,,,,,,,,,,,,,,,,,,,,,,,,,,,,,,,,,,,,,,,,,,,,,,,,,,,,,,,,,,,,,,,,,,,,,,,,,,,,,,,,,,,,,,,,,,,,,,,,,,,,,,,,,,,,,,,,,,,,,,,,,,,,,,,,,,,,,,,,,,,,,,,,,,,
0,38,38,77,1,,611cec79d3e2f9b32a11a9ef,62c538b34f260ff71db91f1e,2022-07-06_09h25.54.694,Colour_Asymmetry_Pilot,2022.1.3,Win32,83.54218881,62c50e9c1127f2cd403a315f,,,,,,,,,,,,,,,,,,,,,,,,,,,,,,,,,,,,,,,,,,,,,,,,,,,,,,,,,,,,,,,,,,,,,,,,,,,,,,,,,,,,,,,,,,,,,,,,,,,,,,,,,,,,,,,,,,,,,,,,,,,,,,,,,,,,,,,,,,,,,,,,,,,,,,,,,,,,,,,,,,,
0,39,39,25,1,,611cec79d3e2f9b32a11a9ef,62c538b34f260ff71db91f1e,2022-07-06_09h25.54.694,Colour_Asymmetry_Pilot,2022.1.3,Win32,83.54218881,62c50e9c1127f2cd403a315f,,,,,,,,,,,,,,,,,,,,,,,,,,,,,,,,,,,,,,,,,,,,,,,,,,,,,,,,,,,,,,,,,,,,,,,,,,,,,,,,,,,,,,,,,,,,,,,,,,,,,,,,,,,,,,,,,,,,,,,,,,,,,,,,,,,,,,,,,,,,,,,,,,,,,,,,,,,,,,,,,,,
0,40,40,8,1,,611cec79d3e2f9b32a11a9ef,62c538b34f260ff71db91f1e,2022-07-06_09h25.54.694,Colour_Asymmetry_Pilot,2022.1.3,Win32,83.54218881,62c50e9c1127f2cd403a315f,,,,,,,,,,,,,,,,,,,,,,,,,,,,,,,,,,,,,,,,,,,,,,,,,,,,,,,,,,,,,,,,,,,,,,,,,,,,,,,,,,,,,,,,,,,,,,,,,,,,,,,,,,,,,,,,,,,,,,,,,,,,,,,,,,,,,,,,,,,,,,,,,,,,,,,,,,,,,,,,,,,
0,41,41,60,1,,611cec79d3e2f9b32a11a9ef,62c538b34f260ff71db91f1e,2022-07-06_09h25.54.694,Colour_Asymmetry_Pilot,2022.1.3,Win32,83.54218881,62c50e9c1127f2cd403a315f,,,,,,,,,,,,,,,,,,,,,,,,,,,,,,,,,,,,,,,,,,,,,,,,,,,,,,,,,,,,,,,,,,,,,,,,,,,,,,,,,,,,,,,,,,,,,,,,,,,,,,,,,,,,,,,,,,,,,,,,,,,,,,,,,,,,,,,,,,,,,,,,,,,,,,,,,,,,,,,,,,,
0,42,42,61,1,,611cec79d3e2f9b32a11a9ef,62c538b34f260ff71db91f1e,2022-07-06_09h25.54.694,Colour_Asymmetry_Pilot,2022.1.3,Win32,83.54218881,62c50e9c1127f2cd403a315f,,,,,,,,,,,,,,,,,,,,,,,,,,,,,,,,,,,,,,,,,,,,,,,,,,,,,,,,,,,,,,,,,,,,,,,,,,,,,,,,,,,,,,,,,,,,,,,,,,,,,,,,,,,,,,,,,,,,,,,,,,,,,,,,,,,,,,,,,,,,,,,,,,,,,,,,,,,,,,,,,,,
0,43,43,81,1,,611cec79d3e2f9b32a11a9ef,62c538b34f260ff71db91f1e,2022-07-06_09h25.54.694,Colour_Asymmetry_Pilot,2022.1.3,Win32,83.54218881,62c50e9c1127f2cd403a315f,,,,,,,,,,,,,,,,,,,,,,,,,,,,,,,,,,,,,,,,,,,,,,,,,,,,,,,,,,,,,,,,,,,,,,,,,,,,,,,,,,,,,,,,,,,,,,,,,,,,,,,,,,,,,,,,,,,,,,,,,,,,,,,,,,,,,,,,,,,,,,,,,,,,,,,,,,,,,,,,,,,
0,44,44,52,1,,611cec79d3e2f9b32a11a9ef,62c538b34f260ff71db91f1e,2022-07-06_09h25.54.694,Colour_Asymmetry_Pilot,2022.1.3,Win32,83.54218881,62c50e9c1127f2cd403a315f,,,,,,,,,,,,,,,,,,,,,,,,,,,,,,,,,,,,,,,,,,,,,,,,,,,,,,,,,,,,,,,,,,,,,,,,,,,,,,,,,,,,,,,,,,,,,,,,,,,,,,,,,,,,,,,,,,,,,,,,,,,,,,,,,,,,,,,,,,,,,,,,,,,,,,,,,,,,,,,,,,,
0,45,45,65,1,,611cec79d3e2f9b32a11a9ef,62c538b34f260ff71db91f1e,2022-07-06_09h25.54.694,Colour_Asymmetry_Pilot,2022.1.3,Win32,83.54218881,62c50e9c1127f2cd403a315f,,,,,,,,,,,,,,,,,,,,,,,,,,,,,,,,,,,,,,,,,,,,,,,,,,,,,,,,,,,,,,,,,,,,,,,,,,,,,,,,,,,,,,,,,,,,,,,,,,,,,,,,,,,,,,,,,,,,,,,,,,,,,,,,,,,,,,,,,,,,,,,,,,,,,,,,,,,,,,,,,,,
0,46,46,17,1,,611cec79d3e2f9b32a11a9ef,62c538b34f260ff71db91f1e,2022-07-06_09h25.54.694,Colour_Asymmetry_Pilot,2022.1.3,Win32,83.54218881,62c50e9c1127f2cd403a315f,,,,,,,,,,,,,,,,,,,,,,,,,,,,,,,,,,,,,,,,,,,,,,,,,,,,,,,,,,,,,,,,,,,,,,,,,,,,,,,,,,,,,,,,,,,,,,,,,,,,,,,,,,,,,,,,,,,,,,,,,,,,,,,,,,,,,,,,,,,,,,,,,,,,,,,,,,,,,,,,,,,
0,47,47,73,1,,611cec79d3e2f9b32a11a9ef,62c538b34f260ff71db91f1e,2022-07-06_09h25.54.694,Colour_Asymmetry_Pilot,2022.1.3,Win32,83.54218881,62c50e9c1127f2cd403a315f,,,,,,,,,,,,,,,,,,,,,,,,,,,,,,,,,,,,,,,,,,,,,,,,,,,,,,,,,,,,,,,,,,,,,,,,,,,,,,,,,,,,,,,,,,,,,,,,,,,,,,,,,,,,,,,,,,,,,,,,,,,,,,,,,,,,,,,,,,,,,,,,,,,,,,,,,,,,,,,,,,,
0,48,48,14,1,,611cec79d3e2f9b32a11a9ef,62c538b34f260ff71db91f1e,2022-07-06_09h25.54.694,Colour_Asymmetry_Pilot,2022.1.3,Win32,83.54218881,62c50e9c1127f2cd403a315f,,,,,,,,,,,,,,,,,,,,,,,,,,,,,,,,,,,,,,,,,,,,,,,,,,,,,,,,,,,,,,,,,,,,,,,,,,,,,,,,,,,,,,,,,,,,,,,,,,,,,,,,,,,,,,,,,,,,,,,,,,,,,,,,,,,,,,,,,,,,,,,,,,,,,,,,,,,,,,,,,,,
0,49,49,85,1,,611cec79d3e2f9b32a11a9ef,62c538b34f260ff71db91f1e,2022-07-06_09h25.54.694,Colour_Asymmetry_Pilot,2022.1.3,Win32,83.54218881,62c50e9c1127f2cd403a315f,,,,,,,,,,,,,,,,,,,,,,,,,,,,,,,,,,,,,,,,,,,,,,,,,,,,,,,,,,,,,,,,,,,,,,,,,,,,,,,,,,,,,,,,,,,,,,,,,,,,,,,,,,,,,,,,,,,,,,,,,,,,,,,,,,,,,,,,,,,,,,,,,,,,,,,,,,,,,,,,,,,
0,50,50,24,1,,611cec79d3e2f9b32a11a9ef,62c538b34f260ff71db91f1e,2022-07-06_09h25.54.694,Colour_Asymmetry_Pilot,2022.1.3,Win32,83.54218881,62c50e9c1127f2cd403a315f,,,,,,,,,,,,,,,,,,,,,,,,,,,,,,,,,,,,,,,,,,,,,,,,,,,,,,,,,,,,,,,,,,,,,,,,,,,,,,,,,,,,,,,,,,,,,,,,,,,,,,,,,,,,,,,,,,,,,,,,,,,,,,,,,,,,,,,,,,,,,,,,,,,,,,,,,,,,,,,,,,,
0,51,51,34,1,,611cec79d3e2f9b32a11a9ef,62c538b34f260ff71db91f1e,2022-07-06_09h25.54.694,Colour_Asymmetry_Pilot,2022.1.3,Win32,83.54218881,62c50e9c1127f2cd403a315f,,,,,,,,,,,,,,,,,,,,,,,,,,,,,,,,,,,,,,,,,,,,,,,,,,,,,,,,,,,,,,,,,,,,,,,,,,,,,,,,,,,,,,,,,,,,,,,,,,,,,,,,,,,,,,,,,,,,,,,,,,,,,,,,,,,,,,,,,,,,,,,,,,,,,,,,,,,,,,,,,,,
0,52,52,83,1,,611cec79d3e2f9b32a11a9ef,62c538b34f260ff71db91f1e,2022-07-06_09h25.54.694,Colour_Asymmetry_Pilot,2022.1.3,Win32,83.54218881,62c50e9c1127f2cd403a315f,,,,,,,,,,,,,,,,,,,,,,,,,,,,,,,,,,,,,,,,,,,,,,,,,,,,,,,,,,,,,,,,,,,,,,,,,,,,,,,,,,,,,,,,,,,,,,,,,,,,,,,,,,,,,,,,,,,,,,,,,,,,,,,,,,,,,,,,,,,,,,,,,,,,,,,,,,,,,,,,,,,
0,53,53,67,1,,611cec79d3e2f9b32a11a9ef,62c538b34f260ff71db91f1e,2022-07-06_09h25.54.694,Colour_Asymmetry_Pilot,2022.1.3,Win32,83.54218881,62c50e9c1127f2cd403a315f,,,,,,,,,,,,,,,,,,,,,,,,,,,,,,,,,,,,,,,,,,,,,,,,,,,,,,,,,,,,,,,,,,,,,,,,,,,,,,,,,,,,,,,,,,,,,,,,,,,,,,,,,,,,,,,,,,,,,,,,,,,,,,,,,,,,,,,,,,,,,,,,,,,,,,,,,,,,,,,,,,,
0,54,54,64,1,,611cec79d3e2f9b32a11a9ef,62c538b34f260ff71db91f1e,2022-07-06_09h25.54.694,Colour_Asymmetry_Pilot,2022.1.3,Win32,83.54218881,62c50e9c1127f2cd403a315f,,,,,,,,,,,,,,,,,,,,,,,,,,,,,,,,,,,,,,,,,,,,,,,,,,,,,,,,,,,,,,,,,,,,,,,,,,,,,,,,,,,,,,,,,,,,,,,,,,,,,,,,,,,,,,,,,,,,,,,,,,,,,,,,,,,,,,,,,,,,,,,,,,,,,,,,,,,,,,,,,,,
0,55,55,91,1,,611cec79d3e2f9b32a11a9ef,62c538b34f260ff71db91f1e,2022-07-06_09h25.54.694,Colour_Asymmetry_Pilot,2022.1.3,Win32,83.54218881,62c50e9c1127f2cd403a315f,,,,,,,,,,,,,,,,,,,,,,,,,,,,,,,,,,,,,,,,,,,,,,,,,,,,,,,,,,,,,,,,,,,,,,,,,,,,,,,,,,,,,,,,,,,,,,,,,,,,,,,,,,,,,,,,,,,,,,,,,,,,,,,,,,,,,,,,,,,,,,,,,,,,,,,,,,,,,,,,,,,
0,56,56,47,1,,611cec79d3e2f9b32a11a9ef,62c538b34f260ff71db91f1e,2022-07-06_09h25.54.694,Colour_Asymmetry_Pilot,2022.1.3,Win32,83.54218881,62c50e9c1127f2cd403a315f,,,,,,,,,,,,,,,,,,,,,,,,,,,,,,,,,,,,,,,,,,,,,,,,,,,,,,,,,,,,,,,,,,,,,,,,,,,,,,,,,,,,,,,,,,,,,,,,,,,,,,,,,,,,,,,,,,,,,,,,,,,,,,,,,,,,,,,,,,,,,,,,,,,,,,,,,,,,,,,,,,,
0,57,57,37,1,,611cec79d3e2f9b32a11a9ef,62c538b34f260ff71db91f1e,2022-07-06_09h25.54.694,Colour_Asymmetry_Pilot,2022.1.3,Win32,83.54218881,62c50e9c1127f2cd403a315f,,,,,,,,,,,,,,,,,,,,,,,,,,,,,,,,,,,,,,,,,,,,,,,,,,,,,,,,,,,,,,,,,,,,,,,,,,,,,,,,,,,,,,,,,,,,,,,,,,,,,,,,,,,,,,,,,,,,,,,,,,,,,,,,,,,,,,,,,,,,,,,,,,,,,,,,,,,,,,,,,,,
0,58,58,42,1,,611cec79d3e2f9b32a11a9ef,62c538b34f260ff71db91f1e,2022-07-06_09h25.54.694,Colour_Asymmetry_Pilot,2022.1.3,Win32,83.54218881,62c50e9c1127f2cd403a315f,,,,,,,,,,,,,,,,,,,,,,,,,,,,,,,,,,,,,,,,,,,,,,,,,,,,,,,,,,,,,,,,,,,,,,,,,,,,,,,,,,,,,,,,,,,,,,,,,,,,,,,,,,,,,,,,,,,,,,,,,,,,,,,,,,,,,,,,,,,,,,,,,,,,,,,,,,,,,,,,,,,
0,59,59,55,1,,611cec79d3e2f9b32a11a9ef,62c538b34f260ff71db91f1e,2022-07-06_09h25.54.694,Colour_Asymmetry_Pilot,2022.1.3,Win32,83.54218881,62c50e9c1127f2cd403a315f,,,,,,,,,,,,,,,,,,,,,,,,,,,,,,,,,,,,,,,,,,,,,,,,,,,,,,,,,,,,,,,,,,,,,,,,,,,,,,,,,,,,,,,,,,,,,,,,,,,,,,,,,,,,,,,,,,,,,,,,,,,,,,,,,,,,,,,,,,,,,,,,,,,,,,,,,,,,,,,,,,,
0,60,60,90,1,,611cec79d3e2f9b32a11a9ef,62c538b34f260ff71db91f1e,2022-07-06_09h25.54.694,Colour_Asymmetry_Pilot,2022.1.3,Win32,83.54218881,62c50e9c1127f2cd403a315f,,,,,,,,,,,,,,,,,,,,,,,,,,,,,,,,,,,,,,,,,,,,,,,,,,,,,,,,,,,,,,,,,,,,,,,,,,,,,,,,,,,,,,,,,,,,,,,,,,,,,,,,,,,,,,,,,,,,,,,,,,,,,,,,,,,,,,,,,,,,,,,,,,,,,,,,,,,,,,,,,,,
0,61,61,12,1,,611cec79d3e2f9b32a11a9ef,62c538b34f260ff71db91f1e,2022-07-06_09h25.54.694,Colour_Asymmetry_Pilot,2022.1.3,Win32,83.54218881,62c50e9c1127f2cd403a315f,,,,,,,,,,,,,,,,,,,,,,,,,,,,,,,,,,,,,,,,,,,,,,,,,,,,,,,,,,,,,,,,,,,,,,,,,,,,,,,,,,,,,,,,,,,,,,,,,,,,,,,,,,,,,,,,,,,,,,,,,,,,,,,,,,,,,,,,,,,,,,,,,,,,,,,,,,,,,,,,,,,
0,62,62,30,1,,611cec79d3e2f9b32a11a9ef,62c538b34f260ff71db91f1e,2022-07-06_09h25.54.694,Colour_Asymmetry_Pilot,2022.1.3,Win32,83.54218881,62c50e9c1127f2cd403a315f,,,,,,,,,,,,,,,,,,,,,,,,,,,,,,,,,,,,,,,,,,,,,,,,,,,,,,,,,,,,,,,,,,,,,,,,,,,,,,,,,,,,,,,,,,,,,,,,,,,,,,,,,,,,,,,,,,,,,,,,,,,,,,,,,,,,,,,,,,,,,,,,,,,,,,,,,,,,,,,,,,,
0,63,63,36,1,,611cec79d3e2f9b32a11a9ef,62c538b34f260ff71db91f1e,2022-07-06_09h25.54.694,Colour_Asymmetry_Pilot,2022.1.3,Win32,83.54218881,62c50e9c1127f2cd403a315f,,,,,,,,,,,,,,,,,,,,,,,,,,,,,,,,,,,,,,,,,,,,,,,,,,,,,,,,,,,,,,,,,,,,,,,,,,,,,,,,,,,,,,,,,,,,,,,,,,,,,,,,,,,,,,,,,,,,,,,,,,,,,,,,,,,,,,,,,,,,,,,,,,,,,,,,,,,,,,,,,,,
0,64,64,18,1,,611cec79d3e2f9b32a11a9ef,62c538b34f260ff71db91f1e,2022-07-06_09h25.54.694,Colour_Asymmetry_Pilot,2022.1.3,Win32,83.54218881,62c50e9c1127f2cd403a315f,,,,,,,,,,,,,,,,,,,,,,,,,,,,,,,,,,,,,,,,,,,,,,,,,,,,,,,,,,,,,,,,,,,,,,,,,,,,,,,,,,,,,,,,,,,,,,,,,,,,,,,,,,,,,,,,,,,,,,,,,,,,,,,,,,,,,,,,,,,,,,,,,,,,,,,,,,,,,,,,,,,
0,65,65,82,1,,611cec79d3e2f9b32a11a9ef,62c538b34f260ff71db91f1e,2022-07-06_09h25.54.694,Colour_Asymmetry_Pilot,2022.1.3,Win32,83.54218881,62c50e9c1127f2cd403a315f,,,,,,,,,,,,,,,,,,,,,,,,,,,,,,,,,,,,,,,,,,,,,,,,,,,,,,,,,,,,,,,,,,,,,,,,,,,,,,,,,,,,,,,,,,,,,,,,,,,,,,,,,,,,,,,,,,,,,,,,,,,,,,,,,,,,,,,,,,,,,,,,,,,,,,,,,,,,,,,,,,,
0,66,66,9,1,,611cec79d3e2f9b32a11a9ef,62c538b34f260ff71db91f1e,2022-07-06_09h25.54.694,Colour_Asymmetry_Pilot,2022.1.3,Win32,83.54218881,62c50e9c1127f2cd403a315f,,,,,,,,,,,,,,,,,,,,,,,,,,,,,,,,,,,,,,,,,,,,,,,,,,,,,,,,,,,,,,,,,,,,,,,,,,,,,,,,,,,,,,,,,,,,,,,,,,,,,,,,,,,,,,,,,,,,,,,,,,,,,,,,,,,,,,,,,,,,,,,,,,,,,,,,,,,,,,,,,,,
0,67,67,3,1,,611cec79d3e2f9b32a11a9ef,62c538b34f260ff71db91f1e,2022-07-06_09h25.54.694,Colour_Asymmetry_Pilot,2022.1.3,Win32,83.54218881,62c50e9c1127f2cd403a315f,,,,,,,,,,,,,,,,,,,,,,,,,,,,,,,,,,,,,,,,,,,,,,,,,,,,,,,,,,,,,,,,,,,,,,,,,,,,,,,,,,,,,,,,,,,,,,,,,,,,,,,,,,,,,,,,,,,,,,,,,,,,,,,,,,,,,,,,,,,,,,,,,,,,,,,,,,,,,,,,,,,
0,68,68,29,1,,611cec79d3e2f9b32a11a9ef,62c538b34f260ff71db91f1e,2022-07-06_09h25.54.694,Colour_Asymmetry_Pilot,2022.1.3,Win32,83.54218881,62c50e9c1127f2cd403a315f,,,,,,,,,,,,,,,,,,,,,,,,,,,,,,,,,,,,,,,,,,,,,,,,,,,,,,,,,,,,,,,,,,,,,,,,,,,,,,,,,,,,,,,,,,,,,,,,,,,,,,,,,,,,,,,,,,,,,,,,,,,,,,,,,,,,,,,,,,,,,,,,,,,,,,,,,,,,,,,,,,,
0,69,69,70,1,,611cec79d3e2f9b32a11a9ef,62c538b34f260ff71db91f1e,2022-07-06_09h25.54.694,Colour_Asymmetry_Pilot,2022.1.3,Win32,83.54218881,62c50e9c1127f2cd403a315f,,,,,,,,,,,,,,,,,,,,,,,,,,,,,,,,,,,,,,,,,,,,,,,,,,,,,,,,,,,,,,,,,,,,,,,,,,,,,,,,,,,,,,,,,,,,,,,,,,,,,,,,,,,,,,,,,,,,,,,,,,,,,,,,,,,,,,,,,,,,,,,,,,,,,,,,,,,,,,,,,,,
0,70,70,31,1,,611cec79d3e2f9b32a11a9ef,62c538b34f260ff71db91f1e,2022-07-06_09h25.54.694,Colour_Asymmetry_Pilot,2022.1.3,Win32,83.54218881,62c50e9c1127f2cd403a315f,,,,,,,,,,,,,,,,,,,,,,,,,,,,,,,,,,,,,,,,,,,,,,,,,,,,,,,,,,,,,,,,,,,,,,,,,,,,,,,,,,,,,,,,,,,,,,,,,,,,,,,,,,,,,,,,,,,,,,,,,,,,,,,,,,,,,,,,,,,,,,,,,,,,,,,,,,,,,,,,,,,
0,71,71,4,1,,611cec79d3e2f9b32a11a9ef,62c538b34f260ff71db91f1e,2022-07-06_09h25.54.694,Colour_Asymmetry_Pilot,2022.1.3,Win32,83.54218881,62c50e9c1127f2cd403a315f,,,,,,,,,,,,,,,,,,,,,,,,,,,,,,,,,,,,,,,,,,,,,,,,,,,,,,,,,,,,,,,,,,,,,,,,,,,,,,,,,,,,,,,,,,,,,,,,,,,,,,,,,,,,,,,,,,,,,,,,,,,,,,,,,,,,,,,,,,,,,,,,,,,,,,,,,,,,,,,,,,,
0,72,72,5,1,,611cec79d3e2f9b32a11a9ef,62c538b34f260ff71db91f1e,2022-07-06_09h25.54.694,Colour_Asymmetry_Pilot,2022.1.3,Win32,83.54218881,62c50e9c1127f2cd403a315f,,,,,,,,,,,,,,,,,,,,,,,,,,,,,,,,,,,,,,,,,,,,,,,,,,,,,,,,,,,,,,,,,,,,,,,,,,,,,,,,,,,,,,,,,,,,,,,,,,,,,,,,,,,,,,,,,,,,,,,,,,,,,,,,,,,,,,,,,,,,,,,,,,,,,,,,,,,,,,,,,,,
0,73,73,69,1,,611cec79d3e2f9b32a11a9ef,62c538b34f260ff71db91f1e,2022-07-06_09h25.54.694,Colour_Asymmetry_Pilot,2022.1.3,Win32,83.54218881,62c50e9c1127f2cd403a315f,,,,,,,,,,,,,,,,,,,,,,,,,,,,,,,,,,,,,,,,,,,,,,,,,,,,,,,,,,,,,,,,,,,,,,,,,,,,,,,,,,,,,,,,,,,,,,,,,,,,,,,,,,,,,,,,,,,,,,,,,,,,,,,,,,,,,,,,,,,,,,,,,,,,,,,,,,,,,,,,,,,
0,74,74,58,1,,611cec79d3e2f9b32a11a9ef,62c538b34f260ff71db91f1e,2022-07-06_09h25.54.694,Colour_Asymmetry_Pilot,2022.1.3,Win32,83.54218881,62c50e9c1127f2cd403a315f,,,,,,,,,,,,,,,,,,,,,,,,,,,,,,,,,,,,,,,,,,,,,,,,,,,,,,,,,,,,,,,,,,,,,,,,,,,,,,,,,,,,,,,,,,,,,,,,,,,,,,,,,,,,,,,,,,,,,,,,,,,,,,,,,,,,,,,,,,,,,,,,,,,,,,,,,,,,,,,,,,,
0,75,75,71,1,,611cec79d3e2f9b32a11a9ef,62c538b34f260ff71db91f1e,2022-07-06_09h25.54.694,Colour_Asymmetry_Pilot,2022.1.3,Win32,83.54218881,62c50e9c1127f2cd403a315f,,,,,,,,,,,,,,,,,,,,,,,,,,,,,,,,,,,,,,,,,,,,,,,,,,,,,,,,,,,,,,,,,,,,,,,,,,,,,,,,,,,,,,,,,,,,,,,,,,,,,,,,,,,,,,,,,,,,,,,,,,,,,,,,,,,,,,,,,,,,,,,,,,,,,,,,,,,,,,,,,,,
0,76,76,43,1,,611cec79d3e2f9b32a11a9ef,62c538b34f260ff71db91f1e,2022-07-06_09h25.54.694,Colour_Asymmetry_Pilot,2022.1.3,Win32,83.54218881,62c50e9c1127f2cd403a315f,,,,,,,,,,,,,,,,,,,,,,,,,,,,,,,,,,,,,,,,,,,,,,,,,,,,,,,,,,,,,,,,,,,,,,,,,,,,,,,,,,,,,,,,,,,,,,,,,,,,,,,,,,,,,,,,,,,,,,,,,,,,,,,,,,,,,,,,,,,,,,,,,,,,,,,,,,,,,,,,,,,
0,77,77,59,1,,611cec79d3e2f9b32a11a9ef,62c538b34f260ff71db91f1e,2022-07-06_09h25.54.694,Colour_Asymmetry_Pilot,2022.1.3,Win32,83.54218881,62c50e9c1127f2cd403a315f,,,,,,,,,,,,,,,,,,,,,,,,,,,,,,,,,,,,,,,,,,,,,,,,,,,,,,,,,,,,,,,,,,,,,,,,,,,,,,,,,,,,,,,,,,,,,,,,,,,,,,,,,,,,,,,,,,,,,,,,,,,,,,,,,,,,,,,,,,,,,,,,,,,,,,,,,,,,,,,,,,,
0,78,78,89,1,,611cec79d3e2f9b32a11a9ef,62c538b34f260ff71db91f1e,2022-07-06_09h25.54.694,Colour_Asymmetry_Pilot,2022.1.3,Win32,83.54218881,62c50e9c1127f2cd403a315f,,,,,,,,,,,,,,,,,,,,,,,,,,,,,,,,,,,,,,,,,,,,,,,,,,,,,,,,,,,,,,,,,,,,,,,,,,,,,,,,,,,,,,,,,,,,,,,,,,,,,,,,,,,,,,,,,,,,,,,,,,,,,,,,,,,,,,,,,,,,,,,,,,,,,,,,,,,,,,,,,,,
0,79,79,41,1,,611cec79d3e2f9b32a11a9ef,62c538b34f260ff71db91f1e,2022-07-06_09h25.54.694,Colour_Asymmetry_Pilot,2022.1.3,Win32,83.54218881,62c50e9c1127f2cd403a315f,,,,,,,,,,,,,,,,,,,,,,,,,,,,,,,,,,,,,,,,,,,,,,,,,,,,,,,,,,,,,,,,,,,,,,,,,,,,,,,,,,,,,,,,,,,,,,,,,,,,,,,,,,,,,,,,,,,,,,,,,,,,,,,,,,,,,,,,,,,,,,,,,,,,,,,,,,,,,,,,,,,
0,80,80,27,1,,611cec79d3e2f9b32a11a9ef,62c538b34f260ff71db91f1e,2022-07-06_09h25.54.694,Colour_Asymmetry_Pilot,2022.1.3,Win32,83.54218881,62c50e9c1127f2cd403a315f,,,,,,,,,,,,,,,,,,,,,,,,,,,,,,,,,,,,,,,,,,,,,,,,,,,,,,,,,,,,,,,,,,,,,,,,,,,,,,,,,,,,,,,,,,,,,,,,,,,,,,,,,,,,,,,,,,,,,,,,,,,,,,,,,,,,,,,,,,,,,,,,,,,,,,,,,,,,,,,,,,,
0,81,81,20,1,,611cec79d3e2f9b32a11a9ef,62c538b34f260ff71db91f1e,2022-07-06_09h25.54.694,Colour_Asymmetry_Pilot,2022.1.3,Win32,83.54218881,62c50e9c1127f2cd403a315f,,,,,,,,,,,,,,,,,,,,,,,,,,,,,,,,,,,,,,,,,,,,,,,,,,,,,,,,,,,,,,,,,,,,,,,,,,,,,,,,,,,,,,,,,,,,,,,,,,,,,,,,,,,,,,,,,,,,,,,,,,,,,,,,,,,,,,,,,,,,,,,,,,,,,,,,,,,,,,,,,,,
0,82,82,19,1,,611cec79d3e2f9b32a11a9ef,62c538b34f260ff71db91f1e,2022-07-06_09h25.54.694,Colour_Asymmetry_Pilot,2022.1.3,Win32,83.54218881,62c50e9c1127f2cd403a315f,,,,,,,,,,,,,,,,,,,,,,,,,,,,,,,,,,,,,,,,,,,,,,,,,,,,,,,,,,,,,,,,,,,,,,,,,,,,,,,,,,,,,,,,,,,,,,,,,,,,,,,,,,,,,,,,,,,,,,,,,,,,,,,,,,,,,,,,,,,,,,,,,,,,,,,,,,,,,,,,,,,
0,83,83,44,1,,611cec79d3e2f9b32a11a9ef,62c538b34f260ff71db91f1e,2022-07-06_09h25.54.694,Colour_Asymmetry_Pilot,2022.1.3,Win32,83.54218881,62c50e9c1127f2cd403a315f,,,,,,,,,,,,,,,,,,,,,,,,,,,,,,,,,,,,,,,,,,,,,,,,,,,,,,,,,,,,,,,,,,,,,,,,,,,,,,,,,,,,,,,,,,,,,,,,,,,,,,,,,,,,,,,,,,,,,,,,,,,,,,,,,,,,,,,,,,,,,,,,,,,,,,,,,,,,,,,,,,,
0,84,84,72,1,,611cec79d3e2f9b32a11a9ef,62c538b34f260ff71db91f1e,2022-07-06_09h25.54.694,Colour_Asymmetry_Pilot,2022.1.3,Win32,83.54218881,62c50e9c1127f2cd403a315f,,,,,,,,,,,,,,,,,,,,,,,,,,,,,,,,,,,,,,,,,,,,,,,,,,,,,,,,,,,,,,,,,,,,,,,,,,,,,,,,,,,,,,,,,,,,,,,,,,,,,,,,,,,,,,,,,,,,,,,,,,,,,,,,,,,,,,,,,,,,,,,,,,,,,,,,,,,,,,,,,,,
0,85,85,23,1,,611cec79d3e2f9b32a11a9ef,62c538b34f260ff71db91f1e,2022-07-06_09h25.54.694,Colour_Asymmetry_Pilot,2022.1.3,Win32,83.54218881,62c50e9c1127f2cd403a315f,,,,,,,,,,,,,,,,,,,,,,,,,,,,,,,,,,,,,,,,,,,,,,,,,,,,,,,,,,,,,,,,,,,,,,,,,,,,,,,,,,,,,,,,,,,,,,,,,,,,,,,,,,,,,,,,,,,,,,,,,,,,,,,,,,,,,,,,,,,,,,,,,,,,,,,,,,,,,,,,,,,
0,86,86,66,1,,611cec79d3e2f9b32a11a9ef,62c538b34f260ff71db91f1e,2022-07-06_09h25.54.694,Colour_Asymmetry_Pilot,2022.1.3,Win32,83.54218881,62c50e9c1127f2cd403a315f,,,,,,,,,,,,,,,,,,,,,,,,,,,,,,,,,,,,,,,,,,,,,,,,,,,,,,,,,,,,,,,,,,,,,,,,,,,,,,,,,,,,,,,,,,,,,,,,,,,,,,,,,,,,,,,,,,,,,,,,,,,,,,,,,,,,,,,,,,,,,,,,,,,,,,,,,,,,,,,,,,,
0,87,87,57,1,,611cec79d3e2f9b32a11a9ef,62c538b34f260ff71db91f1e,2022-07-06_09h25.54.694,Colour_Asymmetry_Pilot,2022.1.3,Win32,83.54218881,62c50e9c1127f2cd403a315f,,,,,,,,,,,,,,,,,,,,,,,,,,,,,,,,,,,,,,,,,,,,,,,,,,,,,,,,,,,,,,,,,,,,,,,,,,,,,,,,,,,,,,,,,,,,,,,,,,,,,,,,,,,,,,,,,,,,,,,,,,,,,,,,,,,,,,,,,,,,,,,,,,,,,,,,,,,,,,,,,,,
0,88,88,11,1,,611cec79d3e2f9b32a11a9ef,62c538b34f260ff71db91f1e,2022-07-06_09h25.54.694,Colour_Asymmetry_Pilot,2022.1.3,Win32,83.54218881,62c50e9c1127f2cd403a315f,,,,,,,,,,,,,,,,,,,,,,,,,,,,,,,,,,,,,,,,,,,,,,,,,,,,,,,,,,,,,,,,,,,,,,,,,,,,,,,,,,,,,,,,,,,,,,,,,,,,,,,,,,,,,,,,,,,,,,,,,,,,,,,,,,,,,,,,,,,,,,,,,,,,,,,,,,,,,,,,,,,
0,89,89,76,1,,611cec79d3e2f9b32a11a9ef,62c538b34f260ff71db91f1e,2022-07-06_09h25.54.694,Colour_Asymmetry_Pilot,2022.1.3,Win32,83.54218881,62c50e9c1127f2cd403a315f,,,,,,,,,,,,,,,,,,,,,,,,,,,,,,,,,,,,,,,,,,,,,,,,,,,,,,,,,,,,,,,,,,,,,,,,,,,,,,,,,,,,,,,,,,,,,,,,,,,,,,,,,,,,,,,,,,,,,,,,,,,,,,,,,,,,,,,,,,,,,,,,,,,,,,,,,,,,,,,,,,,
0,90,90,46,1,,611cec79d3e2f9b32a11a9ef,62c538b34f260ff71db91f1e,2022-07-06_09h25.54.694,Colour_Asymmetry_Pilot,2022.1.3,Win32,83.54218881,62c50e9c1127f2cd403a315f,,,,,,,,,,,,,,,,,,,,,,,,,,,,,,,,,,,,,,,,,,,,,,,,,,,,,,,,,,,,,,,,,,,,,,,,,,,,,,,,,,,,,,,,,,,,,,,,,,,,,,,,,,,,,,,,,,,,,,,,,,,,,,,,,,,,,,,,,,,,,,,,,,,,,,,,,,,,,,,,,,,
0,91,91,51,1,,611cec79d3e2f9b32a11a9ef,62c538b34f260ff71db91f1e,2022-07-06_09h25.54.694,Colour_Asymmetry_Pilot,2022.1.3,Win32,83.54218881,62c50e9c1127f2cd403a315f,,,,,,,,,,,,,,,,,,,,,,,,,,,,,,,,,,,,,,,,,,,,,,,,,,,,,,,,,,,,,,,,,,,,,,,,,,,,,,,,,,,,,,,,,,,,,,,,,,,,,,,,,,,,,,,,,,,,,,,,,,,,,,,,,,,,,,,,,,,,,,,,,,,,,,,,,,,,,,,,,,,
0,92,92,16,1,,611cec79d3e2f9b32a11a9ef,62c538b34f260ff71db91f1e,2022-07-06_09h25.54.694,Colour_Asymmetry_Pilot,2022.1.3,Win32,83.54218881,62c50e9c1127f2cd403a315f,,,,,,,,,,,,,,,,,,,,,,,,,,,,,,,,,,,,,,,,,,,,,,,,,,,,,,,,,,,,,,,,,,,,,,,,,,,,,,,,,,,,,,,,,,,,,,,,,,,,,,,,,,,,,,,,,,,,,,,,,,,,,,,,,,,,,,,,,,,,,,,,,,,,,,,,,,,,,,,,,,,
,,,,,,611cec79d3e2f9b32a11a9ef,62c538b34f260ff71db91f1e,2022-07-06_09h25.54.694,Colour_Asymmetry_Pilot,2022.1.3,Win32,83.54218881,62c50e9c1127f2cd403a315f,0,0,0,72,1,onetwo,,,,,,,,,,,,,,,,,,,,,,,,,,,,,,,,,,,,,,,,,,,,,,,,,,,,,,,,,,,,,,,,,,,,,,,,,,,,,,,,,,,,,,,,,,,,,,,,,,,,,,,,,,,,,,,,,,,,,,,,,,,,,,,,,,,,,,,,,,,,,,,,,,,,,,,,,,,,,
,,,,,,611cec79d3e2f9b32a11a9ef,62c538b34f260ff71db91f1e,2022-07-06_09h25.54.694,Colour_Asymmetry_Pilot,2022.1.3,Win32,83.54218881,62c50e9c1127f2cd403a315f,0,1,1,5,1,threefour,,,,,,,,,,,,,,,,,,,,,,,,,,,,,,,,,,,,,,,,,,,,,,,,,,,,,,,,,,,,,,,,,,,,,,,,,,,,,,,,,,,,,,,,,,,,,,,,,,,,,,,,,,,,,,,,,,,,,,,,,,,,,,,,,,,,,,,,,,,,,,,,,,,,,,,,,,,,,
,,,,,,611cec79d3e2f9b32a11a9ef,62c538b34f260ff71db91f1e,2022-07-06_09h25.54.694,Colour_Asymmetry_Pilot,2022.1.3,Win32,83.54218881,62c50e9c1127f2cd403a315f,0,2,2,54,1,fourtwo,,,,,,,,,,,,,,,,,,,,,,,,,,,,,,,,,,,,,,,,,,,,,,,,,,,,,,,,,,,,,,,,,,,,,,,,,,,,,,,,,,,,,,,,,,,,,,,,,,,,,,,,,,,,,,,,,,,,,,,,,,,,,,,,,,,,,,,,,,,,,,,,,,,,,,,,,,,,,
,,,,,,611cec79d3e2f9b32a11a9ef,62c538b34f260ff71db91f1e,2022-07-06_09h25.54.694,Colour_Asymmetry_Pilot,2022.1.3,Win32,83.54218881,62c50e9c1127f2cd403a315f,0,3,3,25,1,onethree,,,,,,,,,,,,,,,,,,,,,,,,,,,,,,,,,,,,,,,,,,,,,,,,,,,,,,,,,,,,,,,,,,,,,,,,,,,,,,,,,,,,,,,,,,,,,,,,,,,,,,,,,,,,,,,,,,,,,,,,,,,,,,,,,,,,,,,,,,,,,,,,,,,,,,,,,,,,,
,,,,,,611cec79d3e2f9b32a11a9ef,62c538b34f260ff71db91f1e,2022-07-06_09h25.54.694,Colour_Asymmetry_Pilot,2022.1.3,Win32,83.54218881,62c50e9c1127f2cd403a315f,0,4,4,12,1,threeone,,,,,,,,,,,,,,,,,,,,,,,,,,,,,,,,,,,,,,,,,,,,,,,,,,,,,,,,,,,,,,,,,,,,,,,,,,,,,,,,,,,,,,,,,,,,,,,,,,,,,,,,,,,,,,,,,,,,,,,,,,,,,,,,,,,,,,,,,,,,,,,,,,,,,,,,,,,,,
,,,,,,611cec79d3e2f9b32a11a9ef,62c538b34f260ff71db91f1e,2022-07-06_09h25.54.694,Colour_Asymmetry_Pilot,2022.1.3,Win32,83.54218881,62c50e9c1127f2cd403a315f,0,5,5,80,1,onetwo,,,,,,,,,,,,,,,,,,,,,,,,,,,,,,,,,,,,,,,,,,,,,,,,,,,,,,,,,,,,,,,,,,,,,,,,,,,,,,,,,,,,,,,,,,,,,,,,,,,,,,,,,,,,,,,,,,,,,,,,,,,,,,,,,,,,,,,,,,,,,,,,,,,,,,,,,,,,,
,,,,,,611cec79d3e2f9b32a11a9ef,62c538b34f260ff71db91f1e,2022-07-06_09h25.54.694,Colour_Asymmetry_Pilot,2022.1.3,Win32,83.54218881,62c50e9c1127f2cd403a315f,0,6,6,127,1,fourthree,,,,,,,,,,,,,,,,,,,,,,,,,,,,,,,,,,,,,,,,,,,,,,,,,,,,,,,,,,,,,,,,,,,,,,,,,,,,,,,,,,,,,,,,,,,,,,,,,,,,,,,,,,,,,,,,,,,,,,,,,,,,,,,,,,,,,,,,,,,,,,,,,,,,,,,,,,,,,
,,,,,,611cec79d3e2f9b32a11a9ef,62c538b34f260ff71db91f1e,2022-07-06_09h25.54.694,Colour_Asymmetry_Pilot,2022.1.3,Win32,83.54218881,62c50e9c1127f2cd403a315f,0,7,7,144,1,onetwo,,,,,,,,,,,,,,,,,,,,,,,,,,,,,,,,,,,,,,,,,,,,,,,,,,,,,,,,,,,,,,,,,,,,,,,,,,,,,,,,,,,,,,,,,,,,,,,,,,,,,,,,,,,,,,,,,,,,,,,,,,,,,,,,,,,,,,,,,,,,,,,,,,,,,,,,,,,,,
,,,,,,611cec79d3e2f9b32a11a9ef,62c538b34f260ff71db91f1e,2022-07-06_09h25.54.694,Colour_Asymmetry_Pilot,2022.1.3,Win32,83.54218881,62c50e9c1127f2cd403a315f,0,8,8,150,1,fourtwo,,,,,,,,,,,,,,,,,,,,,,,,,,,,,,,,,,,,,,,,,,,,,,,,,,,,,,,,,,,,,,,,,,,,,,,,,,,,,,,,,,,,,,,,,,,,,,,,,,,,,,,,,,,,,,,,,,,,,,,,,,,,,,,,,,,,,,,,,,,,,,,,,,,,,,,,,,,,,
,,,,,,611cec79d3e2f9b32a11a9ef,62c538b34f260ff71db91f1e,2022-07-06_09h25.54.694,Colour_Asymmetry_Pilot,2022.1.3,Win32,83.54218881,62c50e9c1127f2cd403a315f,0,9,9,1,1,onethree,,,,,,,,,,,,,,,,,,,,,,,,,,,,,,,,,,,,,,,,,,,,,,,,,,,,,,,,,,,,,,,,,,,,,,,,,,,,,,,,,,,,,,,,,,,,,,,,,,,,,,,,,,,,,,,,,,,,,,,,,,,,,,,,,,,,,,,,,,,,,,,,,,,,,,,,,,,,,
,,,,,,611cec79d3e2f9b32a11a9ef,62c538b34f260ff71db91f1e,2022-07-06_09h25.54.694,Colour_Asymmetry_Pilot,2022.1.3,Win32,83.54218881,62c50e9c1127f2cd403a315f,0,10,10,151,1,fourthree,,,,,,,,,,,,,,,,,,,,,,,,,,,,,,,,,,,,,,,,,,,,,,,,,,,,,,,,,,,,,,,,,,,,,,,,,,,,,,,,,,,,,,,,,,,,,,,,,,,,,,,,,,,,,,,,,,,,,,,,,,,,,,,,,,,,,,,,,,,,,,,,,,,,,,,,,,,,,
,,,,,,611cec79d3e2f9b32a11a9ef,62c538b34f260ff71db91f1e,2022-07-06_09h25.54.694,Colour_Asymmetry_Pilot,2022.1.3,Win32,83.54218881,62c50e9c1127f2cd403a315f,0,11,11,102,1,fourtwo,,,,,,,,,,,,,,,,,,,,,,,,,,,,,,,,,,,,,,,,,,,,,,,,,,,,,,,,,,,,,,,,,,,,,,,,,,,,,,,,,,,,,,,,,,,,,,,,,,,,,,,,,,,,,,,,,,,,,,,,,,,,,,,,,,,,,,,,,,,,,,,,,,,,,,,,,,,,,
,,,,,,611cec79d3e2f9b32a11a9ef,62c538b34f260ff71db91f1e,2022-07-06_09h25.54.694,Colour_Asymmetry_Pilot,2022.1.3,Win32,83.54218881,62c50e9c1127f2cd403a315f,0,12,12,160,1,onetwo,,,,,,,,,,,,,,,,,,,,,,,,,,,,,,,,,,,,,,,,,,,,,,,,,,,,,,,,,,,,,,,,,,,,,,,,,,,,,,,,,,,,,,,,,,,,,,,,,,,,,,,,,,,,,,,,,,,,,,,,,,,,,,,,,,,,,,,,,,,,,,,,,,,,,,,,,,,,,
,,,,,,611cec79d3e2f9b32a11a9ef,62c538b34f260ff71db91f1e,2022-07-06_09h25.54.694,Colour_Asymmetry_Pilot,2022.1.3,Win32,83.54218881,62c50e9c1127f2cd403a315f,0,13,13,112,1,onetwo,,,,,,,,,,,,,,,,,,,,,,,,,,,,,,,,,,,,,,,,,,,,,,,,,,,,,,,,,,,,,,,,,,,,,,,,,,,,,,,,,,,,,,,,,,,,,,,,,,,,,,,,,,,,,,,,,,,,,,,,,,,,,,,,,,,,,,,,,,,,,,,,,,,,,,,,,,,,,
,,,,,,611cec79d3e2f9b32a11a9ef,62c538b34f260ff71db91f1e,2022-07-06_09h25.54.694,Colour_Asymmetry_Pilot,2022.1.3,Win32,83.54218881,62c50e9c1127f2cd403a315f,0,14,14,21,1,threefour,,,,,,,,,,,,,,,,,,,,,,,,,,,,,,,,,,,,,,,,,,,,,,,,,,,,,,,,,,,,,,,,,,,,,,,,,,,,,,,,,,,,,,,,,,,,,,,,,,,,,,,,,,,,,,,,,,,,,,,,,,,,,,,,,,,,,,,,,,,,,,,,,,,,,,,,,,,,,
,,,,,,611cec79d3e2f9b32a11a9ef,62c538b34f260ff71db91f1e,2022-07-06_09h25.54.694,Colour_Asymmetry_Pilot,2022.1.3,Win32,83.54218881,62c50e9c1127f2cd403a315f,0,15,15,37,1,threefour,,,,,,,,,,,,,,,,,,,,,,,,,,,,,,,,,,,,,,,,,,,,,,,,,,,,,,,,,,,,,,,,,,,,,,,,,,,,,,,,,,,,,,,,,,,,,,,,,,,,,,,,,,,,,,,,,,,,,,,,,,,,,,,,,,,,,,,,,,,,,,,,,,,,,,,,,,,,,
,,,,,,611cec79d3e2f9b32a11a9ef,62c538b34f260ff71db91f1e,2022-07-06_09h25.54.694,Colour_Asymmetry_Pilot,2022.1.3,Win32,83.54218881,62c50e9c1127f2cd403a315f,0,16,16,18,1,twoone,,,,,,,,,,,,,,,,,,,,,,,,,,,,,,,,,,,,,,,,,,,,,,,,,,,,,,,,,,,,,,,,,,,,,,,,,,,,,,,,,,,,,,,,,,,,,,,,,,,,,,,,,,,,,,,,,,,,,,,,,,,,,,,,,,,,,,,,,,,,,,,,,,,,,,,,,,,,,
,,,,,,611cec79d3e2f9b32a11a9ef,62c538b34f260ff71db91f1e,2022-07-06_09h25.54.694,Colour_Asymmetry_Pilot,2022.1.3,Win32,83.54218881,62c50e9c1127f2cd403a315f,0,17,17,154,1,twoone,,,,,,,,,,,,,,,,,,,,,,,,,,,,,,,,,,,,,,,,,,,,,,,,,,,,,,,,,,,,,,,,,,,,,,,,,,,,,,,,,,,,,,,,,,,,,,,,,,,,,,,,,,,,,,,,,,,,,,,,,,,,,,,,,,,,,,,,,,,,,,,,,,,,,,,,,,,,,
,,,,,,611cec79d3e2f9b32a11a9ef,62c538b34f260ff71db91f1e,2022-07-06_09h25.54.694,Colour_Asymmetry_Pilot,2022.1.3,Win32,83.54218881,62c50e9c1127f2cd403a315f,0,18,18,122,1,twoone,,,,,,,,,,,,,,,,,,,,,,,,,,,,,,,,,,,,,,,,,,,,,,,,,,,,,,,,,,,,,,,,,,,,,,,,,,,,,,,,,,,,,,,,,,,,,,,,,,,,,,,,,,,,,,,,,,,,,,,,,,,,,,,,,,,,,,,,,,,,,,,,,,,,,,,,,,,,,
,,,,,,611cec79d3e2f9b32a11a9ef,62c538b34f260ff71db91f1e,2022-07-06_09h25.54.694,Colour_Asymmetry_Pilot,2022.1.3,Win32,83.54218881,62c50e9c1127f2cd403a315f,0,19,19,49,1,onethree,,,,,,,,,,,,,,,,,,,,,,,,,,,,,,,,,,,,,,,,,,,,,,,,,,,,,,,,,,,,,,,,,,,,,,,,,,,,,,,,,,,,,,,,,,,,,,,,,,,,,,,,,,,,,,,,,,,,,,,,,,,,,,,,,,,,,,,,,,,,,,,,,,,,,,,,,,,,,
,,,,,,611cec79d3e2f9b32a11a9ef,62c538b34f260ff71db91f1e,2022-07-06_09h25.54.694,Colour_Asymmetry_Pilot,2022.1.3,Win32,83.54218881,62c50e9c1127f2cd403a315f,0,20,20,134,1,fourtwo,,,,,,,,,,,,,,,,,,,,,,,,,,,,,,,,,,,,,,,,,,,,,,,,,,,,,,,,,,,,,,,,,,,,,,,,,,,,,,,,,,,,,,,,,,,,,,,,,,,,,,,,,,,,,,,,,,,,,,,,,,,,,,,,,,,,,,,,,,,,,,,,,,,,,,,,,,,,,
,,,,,,611cec79d3e2f9b32a11a9ef,62c538b34f260ff71db91f1e,2022-07-06_09h25.54.694,Colour_Asymmetry_Pilot,2022.1.3,Win32,83.54218881,62c50e9c1127f2cd403a315f,0,21,21,32,1,onetwo,,,,,,,,,,,,,,,,,,,,,,,,,,,,,,,,,,,,,,,,,,,,,,,,,,,,,,,,,,,,,,,,,,,,,,,,,,,,,,,,,,,,,,,,,,,,,,,,,,,,,,,,,,,,,,,,,,,,,,,,,,,,,,,,,,,,,,,,,,,,,,,,,,,,,,,,,,,,,
,,,,,,611cec79d3e2f9b32a11a9ef,62c538b34f260ff71db91f1e,2022-07-06_09h25.54.694,Colour_Asymmetry_Pilot,2022.1.3,Win32,83.54218881,62c50e9c1127f2cd403a315f,0,22,22,52,1,threeone,,,,,,,,,,,,,,,,,,,,,,,,,,,,,,,,,,,,,,,,,,,,,,,,,,,,,,,,,,,,,,,,,,,,,,,,,,,,,,,,,,,,,,,,,,,,,,,,,,,,,,,,,,,,,,,,,,,,,,,,,,,,,,,,,,,,,,,,,,,,,,,,,,,,,,,,,,,,,
,,,,,,611cec79d3e2f9b32a11a9ef,62c538b34f260ff71db91f1e,2022-07-06_09h25.54.694,Colour_Asymmetry_Pilot,2022.1.3,Win32,83.54218881,62c50e9c1127f2cd403a315f,0,23,23,36,1,threeone,,,,,,,,,,,,,,,,,,,,,,,,,,,,,,,,,,,,,,,,,,,,,,,,,,,,,,,,,,,,,,,,,,,,,,,,,,,,,,,,,,,,,,,,,,,,,,,,,,,,,,,,,,,,,,,,,,,,,,,,,,,,,,,,,,,,,,,,,,,,,,,,,,,,,,,,,,,,,
,,,,,,611cec79d3e2f9b32a11a9ef,62c538b34f260ff71db91f1e,2022-07-06_09h25.54.694,Colour_Asymmetry_Pilot,2022.1.3,Win32,83.54218881,62c50e9c1127f2cd403a315f,0,24,24,43,1,twofour,,,,,,,,,,,,,,,,,,,,,,,,,,,,,,,,,,,,,,,,,,,,,,,,,,,,,,,,,,,,,,,,,,,,,,,,,,,,,,,,,,,,,,,,,,,,,,,,,,,,,,,,,,,,,,,,,,,,,,,,,,,,,,,,,,,,,,,,,,,,,,,,,,,,,,,,,,,,,
,,,,,,611cec79d3e2f9b32a11a9ef,62c538b34f260ff71db91f1e,2022-07-06_09h25.54.694,Colour_Asymmetry_Pilot,2022.1.3,Win32,83.54218881,62c50e9c1127f2cd403a315f,0,25,25,45,1,threefour,,,,,,,,,,,,,,,,,,,,,,,,,,,,,,,,,,,,,,,,,,,,,,,,,,,,,,,,,,,,,,,,,,,,,,,,,,,,,,,,,,,,,,,,,,,,,,,,,,,,,,,,,,,,,,,,,,,,,,,,,,,,,,,,,,,,,,,,,,,,,,,,,,,,,,,,,,,,,
,,,,,,611cec79d3e2f9b32a11a9ef,62c538b34f260ff71db91f1e,2022-07-06_09h25.54.694,Colour_Asymmetry_Pilot,2022.1.3,Win32,83.54218881,62c50e9c1127f2cd403a315f,0,26,26,100,1,threeone,,,,,,,,,,,,,,,,,,,,,,,,,,,,,,,,,,,,,,,,,,,,,,,,,,,,,,,,,,,,,,,,,,,,,,,,,,,,,,,,,,,,,,,,,,,,,,,,,,,,,,,,,,,,,,,,,,,,,,,,,,,,,,,,,,,,,,,,,,,,,,,,,,,,,,,,,,,,,
,,,,,,611cec79d3e2f9b32a11a9ef,62c538b34f260ff71db91f1e,2022-07-06_09h25.54.694,Colour_Asymmetry_Pilot,2022.1.3,Win32,83.54218881,62c50e9c1127f2cd403a315f,0,27,27,118,1,fourtwo,,,,,,,,,,,,,,,,,,,,,,,,,,,,,,,,,,,,,,,,,,,,,,,,,,,,,,,,,,,,,,,,,,,,,,,,,,,,,,,,,,,,,,,,,,,,,,,,,,,,,,,,,,,,,,,,,,,,,,,,,,,,,,,,,,,,,,,,,,,,,,,,,,,,,,,,,,,,,
,,,,,,611cec79d3e2f9b32a11a9ef,62c538b34f260ff71db91f1e,2022-07-06_09h25.54.694,Colour_Asymmetry_Pilot,2022.1.3,Win32,83.54218881,62c50e9c1127f2cd403a315f,0,28,28,81,1,onethree,,,,,,,,,,,,,,,,,,,,,,,,,,,,,,,,,,,,,,,,,,,,,,,,,,,,,,,,,,,,,,,,,,,,,,,,,,,,,,,,,,,,,,,,,,,,,,,,,,,,,,,,,,,,,,,,,,,,,,,,,,,,,,,,,,,,,,,,,,,,,,,,,,,,,,,,,,,,,
,,,,,,611cec79d3e2f9b32a11a9ef,62c538b34f260ff71db91f1e,2022-07-06_09h25.54.694,Colour_Asymmetry_Pilot,2022.1.3,Win32,83.54218881,62c50e9c1127f2cd403a315f,0,29,29,3,1,twofour,,,,,,,,,,,,,,,,,,,,,,,,,,,,,,,,,,,,,,,,,,,,,,,,,,,,,,,,,,,,,,,,,,,,,,,,,,,,,,,,,,,,,,,,,,,,,,,,,,,,,,,,,,,,,,,,,,,,,,,,,,,,,,,,,,,,,,,,,,,,,,,,,,,,,,,,,,,,,
,,,,,,611cec79d3e2f9b32a11a9ef,62c538b34f260ff71db91f1e,2022-07-06_09h25.54.694,Colour_Asymmetry_Pilot,2022.1.3,Win32,83.54218881,62c50e9c1127f2cd403a315f,0,30,30,88,1,onetwo,,,,,,,,,,,,,,,,,,,,,,,,,,,,,,,,,,,,,,,,,,,,,,,,,,,,,,,,,,,,,,,,,,,,,,,,,,,,,,,,,,,,,,,,,,,,,,,,,,,,,,,,,,,,,,,,,,,,,,,,,,,,,,,,,,,,,,,,,,,,,,,,,,,,,,,,,,,,,
,,,,,,611cec79d3e2f9b32a11a9ef,62c538b34f260ff71db91f1e,2022-07-06_09h25.54.694,Colour_Asymmetry_Pilot,2022.1.3,Win32,83.54218881,62c50e9c1127f2cd403a315f,0,31,31,56,1,onetwo,,,,,,,,,,,,,,,,,,,,,,,,,,,,,,,,,,,,,,,,,,,,,,,,,,,,,,,,,,,,,,,,,,,,,,,,,,,,,,,,,,,,,,,,,,,,,,,,,,,,,,,,,,,,,,,,,,,,,,,,,,,,,,,,,,,,,,,,,,,,,,,,,,,,,,,,,,,,,
,,,,,,611cec79d3e2f9b32a11a9ef,62c538b34f260ff71db91f1e,2022-07-06_09h25.54.694,Colour_Asymmetry_Pilot,2022.1.3,Win32,83.54218881,62c50e9c1127f2cd403a315f,0,32,32,51,1,twofour,,,,,,,,,,,,,,,,,,,,,,,,,,,,,,,,,,,,,,,,,,,,,,,,,,,,,,,,,,,,,,,,,,,,,,,,,,,,,,,,,,,,,,,,,,,,,,,,,,,,,,,,,,,,,,,,,,,,,,,,,,,,,,,,,,,,,,,,,,,,,,,,,,,,,,,,,,,,,
,,,,,,611cec79d3e2f9b32a11a9ef,62c538b34f260ff71db91f1e,2022-07-06_09h25.54.694,Colour_Asymmetry_Pilot,2022.1.3,Win32,83.54218881,62c50e9c1127f2cd403a315f,0,33,33,126,1,fourtwo,,,,,,,,,,,,,,,,,,,,,,,,,,,,,,,,,,,,,,,,,,,,,,,,,,,,,,,,,,,,,,,,,,,,,,,,,,,,,,,,,,,,,,,,,,,,,,,,,,,,,,,,,,,,,,,,,,,,,,,,,,,,,,,,,,,,,,,,,,,,,,,,,,,,,,,,,,,,,
,,,,,,611cec79d3e2f9b32a11a9ef,62c538b34f260ff71db91f1e,2022-07-06_09h25.54.694,Colour_Asymmetry_Pilot,2022.1.3,Win32,83.54218881,62c50e9c1127f2cd403a315f,0,34,34,38,1,fourtwo,,,,,,,,,,,,,,,,,,,,,,,,,,,,,,,,,,,,,,,,,,,,,,,,,,,,,,,,,,,,,,,,,,,,,,,,,,,,,,,,,,,,,,,,,,,,,,,,,,,,,,,,,,,,,,,,,,,,,,,,,,,,,,,,,,,,,,,,,,,,,,,,,,,,,,,,,,,,,
,,,,,,611cec79d3e2f9b32a11a9ef,62c538b34f260ff71db91f1e,2022-07-06_09h25.54.694,Colour_Asymmetry_Pilot,2022.1.3,Win32,83.54218881,62c50e9c1127f2cd403a315f,0,35,35,19,1,twofour,,,,,,,,,,,,,,,,,,,,,,,,,,,,,,,,,,,,,,,,,,,,,,,,,,,,,,,,,,,,,,,,,,,,,,,,,,,,,,,,,,,,,,,,,,,,,,,,,,,,,,,,,,,,,,,,,,,,,,,,,,,,,,,,,,,,,,,,,,,,,,,,,,,,,,,,,,,,,
,,,,,,611cec79d3e2f9b32a11a9ef,62c538b34f260ff71db91f1e,2022-07-06_09h25.54.694,Colour_Asymmetry_Pilot,2022.1.3,Win32,83.54218881,62c50e9c1127f2cd403a315f,0,36,36,83,1,twofour,,,,,,,,,,,,,,,,,,,,,,,,,,,,,,,,,,,,,,,,,,,,,,,,,,,,,,,,,,,,,,,,,,,,,,,,,,,,,,,,,,,,,,,,,,,,,,,,,,,,,,,,,,,,,,,,,,,,,,,,,,,,,,,,,,,,,,,,,,,,,,,,,,,,,,,,,,,,,
,,,,,,611cec79d3e2f9b32a11a9ef,62c538b34f260ff71db91f1e,2022-07-06_09h25.54.694,Colour_Asymmetry_Pilot,2022.1.3,Win32,83.54218881,62c50e9c1127f2cd403a315f,0,37,37,26,1,twoone,,,,,,,,,,,,,,,,,,,,,,,,,,,,,,,,,,,,,,,,,,,,,,,,,,,,,,,,,,,,,,,,,,,,,,,,,,,,,,,,,,,,,,,,,,,,,,,,,,,,,,,,,,,,,,,,,,,,,,,,,,,,,,,,,,,,,,,,,,,,,,,,,,,,,,,,,,,,,
,,,,,,611cec79d3e2f9b32a11a9ef,62c538b34f260ff71db91f1e,2022-07-06_09h25.54.694,Colour_Asymmetry_Pilot,2022.1.3,Win32,83.54218881,62c50e9c1127f2cd403a315f,0,38,38,59,1,twofour,,,,,,,,,,,,,,,,,,,,,,,,,,,,,,,,,,,,,,,,,,,,,,,,,,,,,,,,,,,,,,,,,,,,,,,,,,,,,,,,,,,,,,,,,,,,,,,,,,,,,,,,,,,,,,,,,,,,,,,,,,,,,,,,,,,,,,,,,,,,,,,,,,,,,,,,,,,,,
,,,,,,611cec79d3e2f9b32a11a9ef,62c538b34f260ff71db91f1e,2022-07-06_09h25.54.694,Colour_Asymmetry_Pilot,2022.1.3,Win32,83.54218881,62c50e9c1127f2cd403a315f,0,39,39,90,1,twoone,,,,,,,,,,,,,,,,,,,,,,,,,,,,,,,,,,,,,,,,,,,,,,,,,,,,,,,,,,,,,,,,,,,,,,,,,,,,,,,,,,,,,,,,,,,,,,,,,,,,,,,,,,,,,,,,,,,,,,,,,,,,,,,,,,,,,,,,,,,,,,,,,,,,,,,,,,,,,
,,,,,,611cec79d3e2f9b32a11a9ef,62c538b34f260ff71db91f1e,2022-07-06_09h25.54.694,Colour_Asymmetry_Pilot,2022.1.3,Win32,83.54218881,62c50e9c1127f2cd403a315f,0,40,40,121,1,onethree,,,,,,,,,,,,,,,,,,,,,,,,,,,,,,,,,,,,,,,,,,,,,,,,,,,,,,,,,,,,,,,,,,,,,,,,,,,,,,,,,,,,,,,,,,,,,,,,,,,,,,,,,,,,,,,,,,,,,,,,,,,,,,,,,,,,,,,,,,,,,,,,,,,,,,,,,,,,,
,,,,,,611cec79d3e2f9b32a11a9ef,62c538b34f260ff71db91f1e,2022-07-06_09h25.54.694,Colour_Asymmetry_Pilot,2022.1.3,Win32,83.54218881,62c50e9c1127f2cd403a315f,0,41,41,104,1,onetwo,,,,,,,,,,,,,,,,,,,,,,,,,,,,,,,,,,,,,,,,,,,,,,,,,,,,,,,,,,,,,,,,,,,,,,,,,,,,,,,,,,,,,,,,,,,,,,,,,,,,,,,,,,,,,,,,,,,,,,,,,,,,,,,,,,,,,,,,,,,,,,,,,,,,,,,,,,,,,
,,,,,,611cec79d3e2f9b32a11a9ef,62c538b34f260ff71db91f1e,2022-07-06_09h25.54.694,Colour_Asymmetry_Pilot,2022.1.3,Win32,83.54218881,62c50e9c1127f2cd403a315f,0,42,42,41,1,onethree,,,,,,,,,,,,,,,,,,,,,,,,,,,,,,,,,,,,,,,,,,,,,,,,,,,,,,,,,,,,,,,,,,,,,,,,,,,,,,,,,,,,,,,,,,,,,,,,,,,,,,,,,,,,,,,,,,,,,,,,,,,,,,,,,,,,,,,,,,,,,,,,,,,,,,,,,,,,,
,,,,,,611cec79d3e2f9b32a11a9ef,62c538b34f260ff71db91f1e,2022-07-06_09h25.54.694,Colour_Asymmetry_Pilot,2022.1.3,Win32,83.54218881,62c50e9c1127f2cd403a315f,0,43,43,140,1,threeone,,,,,,,,,,,,,,,,,,,,,,,,,,,,,,,,,,,,,,,,,,,,,,,,,,,,,,,,,,,,,,,,,,,,,,,,,,,,,,,,,,,,,,,,,,,,,,,,,,,,,,,,,,,,,,,,,,,,,,,,,,,,,,,,,,,,,,,,,,,,,,,,,,,,,,,,,,,,,
,,,,,,611cec79d3e2f9b32a11a9ef,62c538b34f260ff71db91f1e,2022-07-06_09h25.54.694,Colour_Asymmetry_Pilot,2022.1.3,Win32,83.54218881,62c50e9c1127f2cd403a315f,0,44,44,111,1,fourthree,,,,,,,,,,,,,,,,,,,,,,,,,,,,,,,,,,,,,,,,,,,,,,,,,,,,,,,,,,,,,,,,,,,,,,,,,,,,,,,,,,,,,,,,,,,,,,,,,,,,,,,,,,,,,,,,,,,,,,,,,,,,,,,,,,,,,,,,,,,,,,,,,,,,,,,,,,,,,
,,,,,,611cec79d3e2f9b32a11a9ef,62c538b34f260ff71db91f1e,2022-07-06_09h25.54.694,Colour_Asymmetry_Pilot,2022.1.3,Win32,83.54218881,62c50e9c1127f2cd403a315f,0,45,45,55,1,fourthree,,,,,,,,,,,,,,,,,,,,,,,,,,,,,,,,,,,,,,,,,,,,,,,,,,,,,,,,,,,,,,,,,,,,,,,,,,,,,,,,,,,,,,,,,,,,,,,,,,,,,,,,,,,,,,,,,,,,,,,,,,,,,,,,,,,,,,,,,,,,,,,,,,,,,,,,,,,,,
,,,,,,611cec79d3e2f9b32a11a9ef,62c538b34f260ff71db91f1e,2022-07-06_09h25.54.694,Colour_Asymmetry_Pilot,2022.1.3,Win32,83.54218881,62c50e9c1127f2cd403a315f,0,46,46,148,1,threeone,,,,,,,,,,,,,,,,,,,,,,,,,,,,,,,,,,,,,,,,,,,,,,,,,,,,,,,,,,,,,,,,,,,,,,,,,,,,,,,,,,,,,,,,,,,,,,,,,,,,,,,,,,,,,,,,,,,,,,,,,,,,,,,,,,,,,,,,,,,,,,,,,,,,,,,,,,,,,
,,,,,,611cec79d3e2f9b32a11a9ef,62c538b34f260ff71db91f1e,2022-07-06_09h25.54.694,Colour_Asymmetry_Pilot,2022.1.3,Win32,83.54218881,62c50e9c1127f2cd403a315f,0,47,47,74,1,twoone,,,,,,,,,,,,,,,,,,,,,,,,,,,,,,,,,,,,,,,,,,,,,,,,,,,,,,,,,,,,,,,,,,,,,,,,,,,,,,,,,,,,,,,,,,,,,,,,,,,,,,,,,,,,,,,,,,,,,,,,,,,,,,,,,,,,,,,,,,,,,,,,,,,,,,,,,,,,,
,,,,,,611cec79d3e2f9b32a11a9ef,62c538b34f260ff71db91f1e,2022-07-06_09h25.54.694,Colour_Asymmetry_Pilot,2022.1.3,Win32,83.54218881,62c50e9c1127f2cd403a315f,0,48,48,57,1,onethree,,,,,,,,,,,,,,,,,,,,,,,,,,,,,,,,,,,,,,,,,,,,,,,,,,,,,,,,,,,,,,,,,,,,,,,,,,,,,,,,,,,,,,,,,,,,,,,,,,,,,,,,,,,,,,,,,,,,,,,,,,,,,,,,,,,,,,,,,,,,,,,,,,,,,,,,,,,,,
,,,,,,611cec79d3e2f9b32a11a9ef,62c538b34f260ff71db91f1e,2022-07-06_09h25.54.694,Colour_Asymmetry_Pilot,2022.1.3,Win32,83.54218881,62c50e9c1127f2cd403a315f,0,49,49,66,1,twoone,,,,,,,,,,,,,,,,,,,,,,,,,,,,,,,,,,,,,,,,,,,,,,,,,,,,,,,,,,,,,,,,,,,,,,,,,,,,,,,,,,,,,,,,,,,,,,,,,,,,,,,,,,,,,,,,,,,,,,,,,,,,,,,,,,,,,,,,,,,,,,,,,,,,,,,,,,,,,
,,,,,,611cec79d3e2f9b32a11a9ef,62c538b34f260ff71db91f1e,2022-07-06_09h25.54.694,Colour_Asymmetry_Pilot,2022.1.3,Win32,83.54218881,62c50e9c1127f2cd403a315f,0,50,50,123,1,twofour,,,,,,,,,,,,,,,,,,,,,,,,,,,,,,,,,,,,,,,,,,,,,,,,,,,,,,,,,,,,,,,,,,,,,,,,,,,,,,,,,,,,,,,,,,,,,,,,,,,,,,,,,,,,,,,,,,,,,,,,,,,,,,,,,,,,,,,,,,,,,,,,,,,,,,,,,,,,,
,,,,,,611cec79d3e2f9b32a11a9ef,62c538b34f260ff71db91f1e,2022-07-06_09h25.54.694,Colour_Asymmetry_Pilot,2022.1.3,Win32,83.54218881,62c50e9c1127f2cd403a315f,0,51,51,116,1,threeone,,,,,,,,,,,,,,,,,,,,,,,,,,,,,,,,,,,,,,,,,,,,,,,,,,,,,,,,,,,,,,,,,,,,,,,,,,,,,,,,,,,,,,,,,,,,,,,,,,,,,,,,,,,,,,,,,,,,,,,,,,,,,,,,,,,,,,,,,,,,,,,,,,,,,,,,,,,,,
,,,,,,611cec79d3e2f9b32a11a9ef,62c538b34f260ff71db91f1e,2022-07-06_09h25.54.694,Colour_Asymmetry_Pilot,2022.1.3,Win32,83.54218881,62c50e9c1127f2cd403a315f,0,52,52,87,1,fourthree,,,,,,,,,,,,,,,,,,,,,,,,,,,,,,,,,,,,,,,,,,,,,,,,,,,,,,,,,,,,,,,,,,,,,,,,,,,,,,,,,,,,,,,,,,,,,,,,,,,,,,,,,,,,,,,,,,,,,,,,,,,,,,,,,,,,,,,,,,,,,,,,,,,,,,,,,,,,,
,,,,,,611cec79d3e2f9b32a11a9ef,62c538b34f260ff71db91f1e,2022-07-06_09h25.54.694,Colour_Asymmetry_Pilot,2022.1.3,Win32,83.54218881,62c50e9c1127f2cd403a315f,0,53,53,139,1,twofour,,,,,,,,,,,,,,,,,,,,,,,,,,,,,,,,,,,,,,,,,,,,,,,,,,,,,,,,,,,,,,,,,,,,,,,,,,,,,,,,,,,,,,,,,,,,,,,,,,,,,,,,,,,,,,,,,,,,,,,,,,,,,,,,,,,,,,,,,,,,,,,,,,,,,,,,,,,,,
,,,,,,611cec79d3e2f9b32a11a9ef,62c538b34f260ff71db91f1e,2022-07-06_09h25.54.694,Colour_Asymmetry_Pilot,2022.1.3,Win32,83.54218881,62c50e9c1127f2cd403a315f,0,54,54,125,1,threefour,,,,,,,,,,,,,,,,,,,,,,,,,,,,,,,,,,,,,,,,,,,,,,,,,,,,,,,,,,,,,,,,,,,,,,,,,,,,,,,,,,,,,,,,,,,,,,,,,,,,,,,,,,,,,,,,,,,,,,,,,,,,,,,,,,,,,,,,,,,,,,,,,,,,,,,,,,,,,
,,,,,,611cec79d3e2f9b32a11a9ef,62c538b34f260ff71db91f1e,2022-07-06_09h25.54.694,Colour_Asymmetry_Pilot,2022.1.3,Win32,83.54218881,62c50e9c1127f2cd403a315f,0,55,55,16,1,onetwo,,,,,,,,,,,,,,,,,,,,,,,,,,,,,,,,,,,,,,,,,,,,,,,,,,,,,,,,,,,,,,,,,,,,,,,,,,,,,,,,,,,,,,,,,,,,,,,,,,,,,,,,,,,,,,,,,,,,,,,,,,,,,,,,,,,,,,,,,,,,,,,,,,,,,,,,,,,,,
,,,,,,611cec79d3e2f9b32a11a9ef,62c538b34f260ff71db91f1e,2022-07-06_09h25.54.694,Colour_Asymmetry_Pilot,2022.1.3,Win32,83.54218881,62c50e9c1127f2cd403a315f,0,56,56,157,1,threefour,,,,,,,,,,,,,,,,,,,,,,,,,,,,,,,,,,,,,,,,,,,,,,,,,,,,,,,,,,,,,,,,,,,,,,,,,,,,,,,,,,,,,,,,,,,,,,,,,,,,,,,,,,,,,,,,,,,,,,,,,,,,,,,,,,,,,,,,,,,,,,,,,,,,,,,,,,,,,
,,,,,,611cec79d3e2f9b32a11a9ef,62c538b34f260ff71db91f1e,2022-07-06_09h25.54.694,Colour_Asymmetry_Pilot,2022.1.3,Win32,83.54218881,62c50e9c1127f2cd403a315f,0,57,57,61,1,threefour,,,,,,,,,,,,,,,,,,,,,,,,,,,,,,,,,,,,,,,,,,,,,,,,,,,,,,,,,,,,,,,,,,,,,,,,,,,,,,,,,,,,,,,,,,,,,,,,,,,,,,,,,,,,,,,,,,,,,,,,,,,,,,,,,,,,,,,,,,,,,,,,,,,,,,,,,,,,,
,,,,,,611cec79d3e2f9b32a11a9ef,62c538b34f260ff71db91f1e,2022-07-06_09h25.54.694,Colour_Asymmetry_Pilot,2022.1.3,Win32,83.54218881,62c50e9c1127f2cd403a315f,0,58,58,91,1,twofour,,,,,,,,,,,,,,,,,,,,,,,,,,,,,,,,,,,,,,,,,,,,,,,,,,,,,,,,,,,,,,,,,,,,,,,,,,,,,,,,,,,,,,,,,,,,,,,,,,,,,,,,,,,,,,,,,,,,,,,,,,,,,,,,,,,,,,,,,,,,,,,,,,,,,,,,,,,,,
,,,,,,611cec79d3e2f9b32a11a9ef,62c538b34f260ff71db91f1e,2022-07-06_09h25.54.694,Colour_Asymmetry_Pilot,2022.1.3,Win32,83.54218881,62c50e9c1127f2cd403a315f,0,59,59,24,1,onetwo,,,,,,,,,,,,,,,,,,,,,,,,,,,,,,,,,,,,,,,,,,,,,,,,,,,,,,,,,,,,,,,,,,,,,,,,,,,,,,,,,,,,,,,,,,,,,,,,,,,,,,,,,,,,,,,,,,,,,,,,,,,,,,,,,,,,,,,,,,,,,,,,,,,,,,,,,,,,,
,,,,,,611cec79d3e2f9b32a11a9ef,62c538b34f260ff71db91f1e,2022-07-06_09h25.54.694,Colour_Asymmetry_Pilot,2022.1.3,Win32,83.54218881,62c50e9c1127f2cd403a315f,0,60,60,35,1,twofour,,,,,,,,,,,,,,,,,,,,,,,,,,,,,,,,,,,,,,,,,,,,,,,,,,,,,,,,,,,,,,,,,,,,,,,,,,,,,,,,,,,,,,,,,,,,,,,,,,,,,,,,,,,,,,,,,,,,,,,,,,,,,,,,,,,,,,,,,,,,,,,,,,,,,,,,,,,,,
,,,,,,611cec79d3e2f9b32a11a9ef,62c538b34f260ff71db91f1e,2022-07-06_09h25.54.694,Colour_Asymmetry_Pilot,2022.1.3,Win32,83.54218881,62c50e9c1127f2cd403a315f,0,61,61,7,1,fourthree,,,,,,,,,,,,,,,,,,,,,,,,,,,,,,,,,,,,,,,,,,,,,,,,,,,,,,,,,,,,,,,,,,,,,,,,,,,,,,,,,,,,,,,,,,,,,,,,,,,,,,,,,,,,,,,,,,,,,,,,,,,,,,,,,,,,,,,,,,,,,,,,,,,,,,,,,,,,,
,,,,,,611cec79d3e2f9b32a11a9ef,62c538b34f260ff71db91f1e,2022-07-06_09h25.54.694,Colour_Asymmetry_Pilot,2022.1.3,Win32,83.54218881,62c50e9c1127f2cd403a315f,0,62,62,70,1,fourtwo,,,,,,,,,,,,,,,,,,,,,,,,,,,,,,,,,,,,,,,,,,,,,,,,,,,,,,,,,,,,,,,,,,,,,,,,,,,,,,,,,,,,,,,,,,,,,,,,,,,,,,,,,,,,,,,,,,,,,,,,,,,,,,,,,,,,,,,,,,,,,,,,,,,,,,,,,,,,,
,,,,,,611cec79d3e2f9b32a11a9ef,62c538b34f260ff71db91f1e,2022-07-06_09h25.54.694,Colour_Asymmetry_Pilot,2022.1.3,Win32,83.54218881,62c50e9c1127f2cd403a315f,0,63,63,94,1,fourtwo,,,,,,,,,,,,,,,,,,,,,,,,,,,,,,,,,,,,,,,,,,,,,,,,,,,,,,,,,,,,,,,,,,,,,,,,,,,,,,,,,,,,,,,,,,,,,,,,,,,,,,,,,,,,,,,,,,,,,,,,,,,,,,,,,,,,,,,,,,,,,,,,,,,,,,,,,,,,,
,,,,,,611cec79d3e2f9b32a11a9ef,62c538b34f260ff71db91f1e,2022-07-06_09h25.54.694,Colour_Asymmetry_Pilot,2022.1.3,Win32,83.54218881,62c50e9c1127f2cd403a315f,0,64,64,79,1,fourthree,,,,,,,,,,,,,,,,,,,,,,,,,,,,,,,,,,,,,,,,,,,,,,,,,,,,,,,,,,,,,,,,,,,,,,,,,,,,,,,,,,,,,,,,,,,,,,,,,,,,,,,,,,,,,,,,,,,,,,,,,,,,,,,,,,,,,,,,,,,,,,,,,,,,,,,,,,,,,
,,,,,,611cec79d3e2f9b32a11a9ef,62c538b34f260ff71db91f1e,2022-07-06_09h25.54.694,Colour_Asymmetry_Pilot,2022.1.3,Win32,83.54218881,62c50e9c1127f2cd403a315f,0,65,65,82,1,twoone,,,,,,,,,,,,,,,,,,,,,,,,,,,,,,,,,,,,,,,,,,,,,,,,,,,,,,,,,,,,,,,,,,,,,,,,,,,,,,,,,,,,,,,,,,,,,,,,,,,,,,,,,,,,,,,,,,,,,,,,,,,,,,,,,,,,,,,,,,,,,,,,,,,,,,,,,,,,,
,,,,,,611cec79d3e2f9b32a11a9ef,62c538b34f260ff71db91f1e,2022-07-06_09h25.54.694,Colour_Asymmetry_Pilot,2022.1.3,Win32,83.54218881,62c50e9c1127f2cd403a315f,0,66,66,129,1,onethree,,,,,,,,,,,,,,,,,,,,,,,,,,,,,,,,,,,,,,,,,,,,,,,,,,,,,,,,,,,,,,,,,,,,,,,,,,,,,,,,,,,,,,,,,,,,,,,,,,,,,,,,,,,,,,,,,,,,,,,,,,,,,,,,,,,,,,,,,,,,,,,,,,,,,,,,,,,,,
,,,,,,611cec79d3e2f9b32a11a9ef,62c538b34f260ff71db91f1e,2022-07-06_09h25.54.694,Colour_Asymmetry_Pilot,2022.1.3,Win32,83.54218881,62c50e9c1127f2cd403a315f,0,67,67,124,1,threeone,,,,,,,,,,,,,,,,,,,,,,,,,,,,,,,,,,,,,,,,,,,,,,,,,,,,,,,,,,,,,,,,,,,,,,,,,,,,,,,,,,,,,,,,,,,,,,,,,,,,,,,,,,,,,,,,,,,,,,,,,,,,,,,,,,,,,,,,,,,,,,,,,,,,,,,,,,,,,
,,,,,,611cec79d3e2f9b32a11a9ef,62c538b34f260ff71db91f1e,2022-07-06_09h25.54.694,Colour_Asymmetry_Pilot,2022.1.3,Win32,83.54218881,62c50e9c1127f2cd403a315f,0,68,68,149,1,threefour,,,,,,,,,,,,,,,,,,,,,,,,,,,,,,,,,,,,,,,,,,,,,,,,,,,,,,,,,,,,,,,,,,,,,,,,,,,,,,,,,,,,,,,,,,,,,,,,,,,,,,,,,,,,,,,,,,,,,,,,,,,,,,,,,,,,,,,,,,,,,,,,,,,,,,,,,,,,,
,,,,,,611cec79d3e2f9b32a11a9ef,62c538b34f260ff71db91f1e,2022-07-06_09h25.54.694,Colour_Asymmetry_Pilot,2022.1.3,Win32,83.54218881,62c50e9c1127f2cd403a315f,0,69,69,68,1,threeone,,,,,,,,,,,,,,,,,,,,,,,,,,,,,,,,,,,,,,,,,,,,,,,,,,,,,,,,,,,,,,,,,,,,,,,,,,,,,,,,,,,,,,,,,,,,,,,,,,,,,,,,,,,,,,,,,,,,,,,,,,,,,,,,,,,,,,,,,,,,,,,,,,,,,,,,,,,,,
,,,,,,611cec79d3e2f9b32a11a9ef,62c538b34f260ff71db91f1e,2022-07-06_09h25.54.694,Colour_Asymmetry_Pilot,2022.1.3,Win32,83.54218881,62c50e9c1127f2cd403a315f,0,70,70,142,1,fourtwo,,,,,,,,,,,,,,,,,,,,,,,,,,,,,,,,,,,,,,,,,,,,,,,,,,,,,,,,,,,,,,,,,,,,,,,,,,,,,,,,,,,,,,,,,,,,,,,,,,,,,,,,,,,,,,,,,,,,,,,,,,,,,,,,,,,,,,,,,,,,,,,,,,,,,,,,,,,,,
,,,,,,611cec79d3e2f9b32a11a9ef,62c538b34f260ff71db91f1e,2022-07-06_09h25.54.694,Colour_Asymmetry_Pilot,2022.1.3,Win32,83.54218881,62c50e9c1127f2cd403a315f,0,71,71,135,1,fourthree,,,,,,,,,,,,,,,,,,,,,,,,,,,,,,,,,,,,,,,,,,,,,,,,,,,,,,,,,,,,,,,,,,,,,,,,,,,,,,,,,,,,,,,,,,,,,,,,,,,,,,,,,,,,,,,,,,,,,,,,,,,,,,,,,,,,,,,,,,,,,,,,,,,,,,,,,,,,,
,,,,,,611cec79d3e2f9b32a11a9ef,62c538b34f260ff71db91f1e,2022-07-06_09h25.54.694,Colour_Asymmetry_Pilot,2022.1.3,Win32,83.54218881,62c50e9c1127f2cd403a315f,0,72,72,85,1,threefour,,,,,,,,,,,,,,,,,,,,,,,,,,,,,,,,,,,,,,,,,,,,,,,,,,,,,,,,,,,,,,,,,,,,,,,,,,,,,,,,,,,,,,,,,,,,,,,,,,,,,,,,,,,,,,,,,,,,,,,,,,,,,,,,,,,,,,,,,,,,,,,,,,,,,,,,,,,,,
,,,,,,611cec79d3e2f9b32a11a9ef,62c538b34f260ff71db91f1e,2022-07-06_09h25.54.694,Colour_Asymmetry_Pilot,2022.1.3,Win32,83.54218881,62c50e9c1127f2cd403a315f,0,73,73,119,1,fourthree,,,,,,,,,,,,,,,,,,,,,,,,,,,,,,,,,,,,,,,,,,,,,,,,,,,,,,,,,,,,,,,,,,,,,,,,,,,,,,,,,,,,,,,,,,,,,,,,,,,,,,,,,,,,,,,,,,,,,,,,,,,,,,,,,,,,,,,,,,,,,,,,,,,,,,,,,,,,,
,,,,,,611cec79d3e2f9b32a11a9ef,62c538b34f260ff71db91f1e,2022-07-06_09h25.54.694,Colour_Asymmetry_Pilot,2022.1.3,Win32,83.54218881,62c50e9c1127f2cd403a315f,0,74,74,147,1,twofour,,,,,,,,,,,,,,,,,,,,,,,,,,,,,,,,,,,,,,,,,,,,,,,,,,,,,,,,,,,,,,,,,,,,,,,,,,,,,,,,,,,,,,,,,,,,,,,,,,,,,,,,,,,,,,,,,,,,,,,,,,,,,,,,,,,,,,,,,,,,,,,,,,,,,,,,,,,,,
,,,,,,611cec79d3e2f9b32a11a9ef,62c538b34f260ff71db91f1e,2022-07-06_09h25.54.694,Colour_Asymmetry_Pilot,2022.1.3,Win32,83.54218881,62c50e9c1127f2cd403a315f,0,75,75,131,1,twofour,,,,,,,,,,,,,,,,,,,,,,,,,,,,,,,,,,,,,,,,,,,,,,,,,,,,,,,,,,,,,,,,,,,,,,,,,,,,,,,,,,,,,,,,,,,,,,,,,,,,,,,,,,,,,,,,,,,,,,,,,,,,,,,,,,,,,,,,,,,,,,,,,,,,,,,,,,,,,
,,,,,,611cec79d3e2f9b32a11a9ef,62c538b34f260ff71db91f1e,2022-07-06_09h25.54.694,Colour_Asymmetry_Pilot,2022.1.3,Win32,83.54218881,62c50e9c1127f2cd403a315f,0,76,76,48,1,onetwo,,,,,,,,,,,,,,,,,,,,,,,,,,,,,,,,,,,,,,,,,,,,,,,,,,,,,,,,,,,,,,,,,,,,,,,,,,,,,,,,,,,,,,,,,,,,,,,,,,,,,,,,,,,,,,,,,,,,,,,,,,,,,,,,,,,,,,,,,,,,,,,,,,,,,,,,,,,,,
,,,,,,611cec79d3e2f9b32a11a9ef,62c538b34f260ff71db91f1e,2022-07-06_09h25.54.694,Colour_Asymmetry_Pilot,2022.1.3,Win32,83.54218881,62c50e9c1127f2cd403a315f,0,77,77,9,1,onethree,,,,,,,,,,,,,,,,,,,,,,,,,,,,,,,,,,,,,,,,,,,,,,,,,,,,,,,,,,,,,,,,,,,,,,,,,,,,,,,,,,,,,,,,,,,,,,,,,,,,,,,,,,,,,,,,,,,,,,,,,,,,,,,,,,,,,,,,,,,,,,,,,,,,,,,,,,,,,
,,,,,,611cec79d3e2f9b32a11a9ef,62c538b34f260ff71db91f1e,2022-07-06_09h25.54.694,Colour_Asymmetry_Pilot,2022.1.3,Win32,83.54218881,62c50e9c1127f2cd403a315f,0,78,78,106,1,twoone,,,,,,,,,,,,,,,,,,,,,,,,,,,,,,,,,,,,,,,,,,,,,,,,,,,,,,,,,,,,,,,,,,,,,,,,,,,,,,,,,,,,,,,,,,,,,,,,,,,,,,,,,,,,,,,,,,,,,,,,,,,,,,,,,,,,,,,,,,,,,,,,,,,,,,,,,,,,,
,,,,,,611cec79d3e2f9b32a11a9ef,62c538b34f260ff71db91f1e,2022-07-06_09h25.54.694,Colour_Asymmetry_Pilot,2022.1.3,Win32,83.54218881,62c50e9c1127f2cd403a315f,0,79,79,46,1,fourtwo,,,,,,,,,,,,,,,,,,,,,,,,,,,,,,,,,,,,,,,,,,,,,,,,,,,,,,,,,,,,,,,,,,,,,,,,,,,,,,,,,,,,,,,,,,,,,,,,,,,,,,,,,,,,,,,,,,,,,,,,,,,,,,,,,,,,,,,,,,,,,,,,,,,,,,,,,,,,,
,,,,,,611cec79d3e2f9b32a11a9ef,62c538b34f260ff71db91f1e,2022-07-06_09h25.54.694,Colour_Asymmetry_Pilot,2022.1.3,Win32,83.54218881,62c50e9c1127f2cd403a315f,0,80,80,145,1,onethree,,,,,,,,,,,,,,,,,,,,,,,,,,,,,,,,,,,,,,,,,,,,,,,,,,,,,,,,,,,,,,,,,,,,,,,,,,,,,,,,,,,,,,,,,,,,,,,,,,,,,,,,,,,,,,,,,,,,,,,,,,,,,,,,,,,,,,,,,,,,,,,,,,,,,,,,,,,,,
,,,,,,611cec79d3e2f9b32a11a9ef,62c538b34f260ff71db91f1e,2022-07-06_09h25.54.694,Colour_Asymmetry_Pilot,2022.1.3,Win32,83.54218881,62c50e9c1127f2cd403a315f,0,81,81,22,1,fourtwo,,,,,,,,,,,,,,,,,,,,,,,,,,,,,,,,,,,,,,,,,,,,,,,,,,,,,,,,,,,,,,,,,,,,,,,,,,,,,,,,,,,,,,,,,,,,,,,,,,,,,,,,,,,,,,,,,,,,,,,,,,,,,,,,,,,,,,,,,,,,,,,,,,,,,,,,,,,,,
,,,,,,611cec79d3e2f9b32a11a9ef,62c538b34f260ff71db91f1e,2022-07-06_09h25.54.694,Colour_Asymmetry_Pilot,2022.1.3,Win32,83.54218881,62c50e9c1127f2cd403a315f,0,82,82,34,1,twoone,,,,,,,,,,,,,,,,,,,,,,,,,,,,,,,,,,,,,,,,,,,,,,,,,,,,,,,,,,,,,,,,,,,,,,,,,,,,,,,,,,,,,,,,,,,,,,,,,,,,,,,,,,,,,,,,,,,,,,,,,,,,,,,,,,,,,,,,,,,,,,,,,,,,,,,,,,,,,
,,,,,,611cec79d3e2f9b32a11a9ef,62c538b34f260ff71db91f1e,2022-07-06_09h25.54.694,Colour_Asymmetry_Pilot,2022.1.3,Win32,83.54218881,62c50e9c1127f2cd403a315f,0,83,83,71,1,fourthree,,,,,,,,,,,,,,,,,,,,,,,,,,,,,,,,,,,,,,,,,,,,,,,,,,,,,,,,,,,,,,,,,,,,,,,,,,,,,,,,,,,,,,,,,,,,,,,,,,,,,,,,,,,,,,,,,,,,,,,,,,,,,,,,,,,,,,,,,,,,,,,,,,,,,,,,,,,,,
,,,,,,611cec79d3e2f9b32a11a9ef,62c538b34f260ff71db91f1e,2022-07-06_09h25.54.694,Colour_Asymmetry_Pilot,2022.1.3,Win32,83.54218881,62c50e9c1127f2cd403a315f,0,84,84,40,1,onetwo,,,,,,,,,,,,,,,,,,,,,,,,,,,,,,,,,,,,,,,,,,,,,,,,,,,,,,,,,,,,,,,,,,,,,,,,,,,,,,,,,,,,,,,,,,,,,,,,,,,,,,,,,,,,,,,,,,,,,,,,,,,,,,,,,,,,,,,,,,,,,,,,,,,,,,,,,,,,,
,,,,,,611cec79d3e2f9b32a11a9ef,62c538b34f260ff71db91f1e,2022-07-06_09h25.54.694,Colour_Asymmetry_Pilot,2022.1.3,Win32,83.54218881,62c50e9c1127f2cd403a315f,0,85,85,105,1,onethree,,,,,,,,,,,,,,,,,,,,,,,,,,,,,,,,,,,,,,,,,,,,,,,,,,,,,,,,,,,,,,,,,,,,,,,,,,,,,,,,,,,,,,,,,,,,,,,,,,,,,,,,,,,,,,,,,,,,,,,,,,,,,,,,,,,,,,,,,,,,,,,,,,,,,,,,,,,,,
,,,,,,611cec79d3e2f9b32a11a9ef,62c538b34f260ff71db91f1e,2022-07-06_09h25.54.694,Colour_Asymmetry_Pilot,2022.1.3,Win32,83.54218881,62c50e9c1127f2cd403a315f,0,86,86,69,1,threefour,,,,,,,,,,,,,,,,,,,,,,,,,,,,,,,,,,,,,,,,,,,,,,,,,,,,,,,,,,,,,,,,,,,,,,,,,,,,,,,,,,,,,,,,,,,,,,,,,,,,,,,,,,,,,,,,,,,,,,,,,,,,,,,,,,,,,,,,,,,,,,,,,,,,,,,,,,,,,
,,,,,,611cec79d3e2f9b32a11a9ef,62c538b34f260ff71db91f1e,2022-07-06_09h25.54.694,Colour_Asymmetry_Pilot,2022.1.3,Win32,83.54218881,62c50e9c1127f2cd403a315f,0,87,87,158,1,fourtwo,,,,,,,,,,,,,,,,,,,,,,,,,,,,,,,,,,,,,,,,,,,,,,,,,,,,,,,,,,,,,,,,,,,,,,,,,,,,,,,,,,,,,,,,,,,,,,,,,,,,,,,,,,,,,,,,,,,,,,,,,,,,,,,,,,,,,,,,,,,,,,,,,,,,,,,,,,,,,
,,,,,,611cec79d3e2f9b32a11a9ef,62c538b34f260ff71db91f1e,2022-07-06_09h25.54.694,Colour_Asymmetry_Pilot,2022.1.3,Win32,83.54218881,62c50e9c1127f2cd403a315f,0,88,88,89,1,onethree,,,,,,,,,,,,,,,,,,,,,,,,,,,,,,,,,,,,,,,,,,,,,,,,,,,,,,,,,,,,,,,,,,,,,,,,,,,,,,,,,,,,,,,,,,,,,,,,,,,,,,,,,,,,,,,,,,,,,,,,,,,,,,,,,,,,,,,,,,,,,,,,,,,,,,,,,,,,,
,,,,,,611cec79d3e2f9b32a11a9ef,62c538b34f260ff71db91f1e,2022-07-06_09h25.54.694,Colour_Asymmetry_Pilot,2022.1.3,Win32,83.54218881,62c50e9c1127f2cd403a315f,0,89,89,65,1,onethree,,,,,,,,,,,,,,,,,,,,,,,,,,,,,,,,,,,,,,,,,,,,,,,,,,,,,,,,,,,,,,,,,,,,,,,,,,,,,,,,,,,,,,,,,,,,,,,,,,,,,,,,,,,,,,,,,,,,,,,,,,,,,,,,,,,,,,,,,,,,,,,,,,,,,,,,,,,,,
,,,,,,611cec79d3e2f9b32a11a9ef,62c538b34f260ff71db91f1e,2022-07-06_09h25.54.694,Colour_Asymmetry_Pilot,2022.1.3,Win32,83.54218881,62c50e9c1127f2cd403a315f,0,90,90,141,1,threefour,,,,,,,,,,,,,,,,,,,,,,,,,,,,,,,,,,,,,,,,,,,,,,,,,,,,,,,,,,,,,,,,,,,,,,,,,,,,,,,,,,,,,,,,,,,,,,,,,,,,,,,,,,,,,,,,,,,,,,,,,,,,,,,,,,,,,,,,,,,,,,,,,,,,,,,,,,,,,
,,,,,,611cec79d3e2f9b32a11a9ef,62c538b34f260ff71db91f1e,2022-07-06_09h25.54.694,Colour_Asymmetry_Pilot,2022.1.3,Win32,83.54218881,62c50e9c1127f2cd403a315f,0,91,91,78,1,fourtwo,,,,,,,,,,,,,,,,,,,,,,,,,,,,,,,,,,,,,,,,,,,,,,,,,,,,,,,,,,,,,,,,,,,,,,,,,,,,,,,,,,,,,,,,,,,,,,,,,,,,,,,,,,,,,,,,,,,,,,,,,,,,,,,,,,,,,,,,,,,,,,,,,,,,,,,,,,,,,
,,,,,,611cec79d3e2f9b32a11a9ef,62c538b34f260ff71db91f1e,2022-07-06_09h25.54.694,Colour_Asymmetry_Pilot,2022.1.3,Win32,83.54218881,62c50e9c1127f2cd403a315f,0,92,92,15,1,fourthree,,,,,,,,,,,,,,,,,,,,,,,,,,,,,,,,,,,,,,,,,,,,,,,,,,,,,,,,,,,,,,,,,,,,,,,,,,,,,,,,,,,,,,,,,,,,,,,,,,,,,,,,,,,,,,,,,,,,,,,,,,,,,,,,,,,,,,,,,,,,,,,,,,,,,,,,,,,,,
,,,,,,611cec79d3e2f9b32a11a9ef,62c538b34f260ff71db91f1e,2022-07-06_09h25.54.694,Colour_Asymmetry_Pilot,2022.1.3,Win32,83.54218881,62c50e9c1127f2cd403a315f,0,93,93,138,1,twoone,,,,,,,,,,,,,,,,,,,,,,,,,,,,,,,,,,,,,,,,,,,,,,,,,,,,,,,,,,,,,,,,,,,,,,,,,,,,,,,,,,,,,,,,,,,,,,,,,,,,,,,,,,,,,,,,,,,,,,,,,,,,,,,,,,,,,,,,,,,,,,,,,,,,,,,,,,,,,
,,,,,,611cec79d3e2f9b32a11a9ef,62c538b34f260ff71db91f1e,2022-07-06_09h25.54.694,Colour_Asymmetry_Pilot,2022.1.3,Win32,83.54218881,62c50e9c1127f2cd403a315f,0,94,94,114,1,twoone,,,,,,,,,,,,,,,,,,,,,,,,,,,,,,,,,,,,,,,,,,,,,,,,,,,,,,,,,,,,,,,,,,,,,,,,,,,,,,,,,,,,,,,,,,,,,,,,,,,,,,,,,,,,,,,,,,,,,,,,,,,,,,,,,,,,,,,,,,,,,,,,,,,,,,,,,,,,,
,,,,,,611cec79d3e2f9b32a11a9ef,62c538b34f260ff71db91f1e,2022-07-06_09h25.54.694,Colour_Asymmetry_Pilot,2022.1.3,Win32,83.54218881,62c50e9c1127f2cd403a315f,0,95,95,10,1,twoone,,,,,,,,,,,,,,,,,,,,,,,,,,,,,,,,,,,,,,,,,,,,,,,,,,,,,,,,,,,,,,,,,,,,,,,,,,,,,,,,,,,,,,,,,,,,,,,,,,,,,,,,,,,,,,,,,,,,,,,,,,,,,,,,,,,,,,,,,,,,,,,,,,,,,,,,,,,,,
,,,,,,611cec79d3e2f9b32a11a9ef,62c538b34f260ff71db91f1e,2022-07-06_09h25.54.694,Colour_Asymmetry_Pilot,2022.1.3,Win32,83.54218881,62c50e9c1127f2cd403a315f,0,96,96,76,1,threeone,,,,,,,,,,,,,,,,,,,,,,,,,,,,,,,,,,,,,,,,,,,,,,,,,,,,,,,,,,,,,,,,,,,,,,,,,,,,,,,,,,,,,,,,,,,,,,,,,,,,,,,,,,,,,,,,,,,,,,,,,,,,,,,,,,,,,,,,,,,,,,,,,,,,,,,,,,,,,
,,,,,,611cec79d3e2f9b32a11a9ef,62c538b34f260ff71db91f1e,2022-07-06_09h25.54.694,Colour_Asymmetry_Pilot,2022.1.3,Win32,83.54218881,62c50e9c1127f2cd403a315f,0,97,97,33,1,onethree,,,,,,,,,,,,,,,,,,,,,,,,,,,,,,,,,,,,,,,,,,,,,,,,,,,,,,,,,,,,,,,,,,,,,,,,,,,,,,,,,,,,,,,,,,,,,,,,,,,,,,,,,,,,,,,,,,,,,,,,,,,,,,,,,,,,,,,,,,,,,,,,,,,,,,,,,,,,,
,,,,,,611cec79d3e2f9b32a11a9ef,62c538b34f260ff71db91f1e,2022-07-06_09h25.54.694,Colour_Asymmetry_Pilot,2022.1.3,Win32,83.54218881,62c50e9c1127f2cd403a315f,0,98,98,115,1,twofour,,,,,,,,,,,,,,,,,,,,,,,,,,,,,,,,,,,,,,,,,,,,,,,,,,,,,,,,,,,,,,,,,,,,,,,,,,,,,,,,,,,,,,,,,,,,,,,,,,,,,,,,,,,,,,,,,,,,,,,,,,,,,,,,,,,,,,,,,,,,,,,,,,,,,,,,,,,,,
,,,,,,611cec79d3e2f9b32a11a9ef,62c538b34f260ff71db91f1e,2022-07-06_09h25.54.694,Colour_Asymmetry_Pilot,2022.1.3,Win32,83.54218881,62c50e9c1127f2cd403a315f,0,99,99,27,1,twofour,,,,,,,,,,,,,,,,,,,,,,,,,,,,,,,,,,,,,,,,,,,,,,,,,,,,,,,,,,,,,,,,,,,,,,,,,,,,,,,,,,,,,,,,,,,,,,,,,,,,,,,,,,,,,,,,,,,,,,,,,,,,,,,,,,,,,,,,,,,,,,,,,,,,,,,,,,,,,
,,,,,,611cec79d3e2f9b32a11a9ef,62c538b34f260ff71db91f1e,2022-07-06_09h25.54.694,Colour_Asymmetry_Pilot,2022.1.3,Win32,83.54218881,62c50e9c1127f2cd403a315f,0,100,100,98,1,twoone,,,,,,,,,,,,,,,,,,,,,,,,,,,,,,,,,,,,,,,,,,,,,,,,,,,,,,,,,,,,,,,,,,,,,,,,,,,,,,,,,,,,,,,,,,,,,,,,,,,,,,,,,,,,,,,,,,,,,,,,,,,,,,,,,,,,,,,,,,,,,,,,,,,,,,,,,,,,,
,,,,,,611cec79d3e2f9b32a11a9ef,62c538b34f260ff71db91f1e,2022-07-06_09h25.54.694,Colour_Asymmetry_Pilot,2022.1.3,Win32,83.54218881,62c50e9c1127f2cd403a315f,0,101,101,47,1,fourthree,,,,,,,,,,,,,,,,,,,,,,,,,,,,,,,,,,,,,,,,,,,,,,,,,,,,,,,,,,,,,,,,,,,,,,,,,,,,,,,,,,,,,,,,,,,,,,,,,,,,,,,,,,,,,,,,,,,,,,,,,,,,,,,,,,,,,,,,,,,,,,,,,,,,,,,,,,,,,
,,,,,,611cec79d3e2f9b32a11a9ef,62c538b34f260ff71db91f1e,2022-07-06_09h25.54.694,Colour_Asymmetry_Pilot,2022.1.3,Win32,83.54218881,62c50e9c1127f2cd403a315f,0,102,102,42,1,twoone,,,,,,,,,,,,,,,,,,,,,,,,,,,,,,,,,,,,,,,,,,,,,,,,,,,,,,,,,,,,,,,,,,,,,,,,,,,,,,,,,,,,,,,,,,,,,,,,,,,,,,,,,,,,,,,,,,,,,,,,,,,,,,,,,,,,,,,,,,,,,,,,,,,,,,,,,,,,,
,,,,,,611cec79d3e2f9b32a11a9ef,62c538b34f260ff71db91f1e,2022-07-06_09h25.54.694,Colour_Asymmetry_Pilot,2022.1.3,Win32,83.54218881,62c50e9c1127f2cd403a315f,0,103,103,2,1,twoone,,,,,,,,,,,,,,,,,,,,,,,,,,,,,,,,,,,,,,,,,,,,,,,,,,,,,,,,,,,,,,,,,,,,,,,,,,,,,,,,,,,,,,,,,,,,,,,,,,,,,,,,,,,,,,,,,,,,,,,,,,,,,,,,,,,,,,,,,,,,,,,,,,,,,,,,,,,,,
,,,,,,611cec79d3e2f9b32a11a9ef,62c538b34f260ff71db91f1e,2022-07-06_09h25.54.694,Colour_Asymmetry_Pilot,2022.1.3,Win32,83.54218881,62c50e9c1127f2cd403a315f,0,104,104,62,1,fourtwo,,,,,,,,,,,,,,,,,,,,,,,,,,,,,,,,,,,,,,,,,,,,,,,,,,,,,,,,,,,,,,,,,,,,,,,,,,,,,,,,,,,,,,,,,,,,,,,,,,,,,,,,,,,,,,,,,,,,,,,,,,,,,,,,,,,,,,,,,,,,,,,,,,,,,,,,,,,,,
,,,,,,611cec79d3e2f9b32a11a9ef,62c538b34f260ff71db91f1e,2022-07-06_09h25.54.694,Colour_Asymmetry_Pilot,2022.1.3,Win32,83.54218881,62c50e9c1127f2cd403a315f,0,105,105,63,1,fourthree,,,,,,,,,,,,,,,,,,,,,,,,,,,,,,,,,,,,,,,,,,,,,,,,,,,,,,,,,,,,,,,,,,,,,,,,,,,,,,,,,,,,,,,,,,,,,,,,,,,,,,,,,,,,,,,,,,,,,,,,,,,,,,,,,,,,,,,,,,,,,,,,,,,,,,,,,,,,,
,,,,,,611cec79d3e2f9b32a11a9ef,62c538b34f260ff71db91f1e,2022-07-06_09h25.54.694,Colour_Asymmetry_Pilot,2022.1.3,Win32,83.54218881,62c50e9c1127f2cd403a315f,0,106,106,132,1,threeone,,,,,,,,,,,,,,,,,,,,,,,,,,,,,,,,,,,,,,,,,,,,,,,,,,,,,,,,,,,,,,,,,,,,,,,,,,,,,,,,,,,,,,,,,,,,,,,,,,,,,,,,,,,,,,,,,,,,,,,,,,,,,,,,,,,,,,,,,,,,,,,,,,,,,,,,,,,,,
,,,,,,611cec79d3e2f9b32a11a9ef,62c538b34f260ff71db91f1e,2022-07-06_09h25.54.694,Colour_Asymmetry_Pilot,2022.1.3,Win32,83.54218881,62c50e9c1127f2cd403a315f,0,107,107,84,1,threeone,,,,,,,,,,,,,,,,,,,,,,,,,,,,,,,,,,,,,,,,,,,,,,,,,,,,,,,,,,,,,,,,,,,,,,,,,,,,,,,,,,,,,,,,,,,,,,,,,,,,,,,,,,,,,,,,,,,,,,,,,,,,,,,,,,,,,,,,,,,,,,,,,,,,,,,,,,,,,
,,,,,,611cec79d3e2f9b32a11a9ef,62c538b34f260ff71db91f1e,2022-07-06_09h25.54.694,Colour_Asymmetry_Pilot,2022.1.3,Win32,83.54218881,62c50e9c1127f2cd403a315f,0,108,108,53,1,threefour,,,,,,,,,,,,,,,,,,,,,,,,,,,,,,,,,,,,,,,,,,,,,,,,,,,,,,,,,,,,,,,,,,,,,,,,,,,,,,,,,,,,,,,,,,,,,,,,,,,,,,,,,,,,,,,,,,,,,,,,,,,,,,,,,,,,,,,,,,,,,,,,,,,,,,,,,,,,,
,,,,,,611cec79d3e2f9b32a11a9ef,62c538b34f260ff71db91f1e,2022-07-06_09h25.54.694,Colour_Asymmetry_Pilot,2022.1.3,Win32,83.54218881,62c50e9c1127f2cd403a315f,0,109,109,96,1,onetwo,,,,,,,,,,,,,,,,,,,,,,,,,,,,,,,,,,,,,,,,,,,,,,,,,,,,,,,,,,,,,,,,,,,,,,,,,,,,,,,,,,,,,,,,,,,,,,,,,,,,,,,,,,,,,,,,,,,,,,,,,,,,,,,,,,,,,,,,,,,,,,,,,,,,,,,,,,,,,
,,,,,,611cec79d3e2f9b32a11a9ef,62c538b34f260ff71db91f1e,2022-07-06_09h25.54.694,Colour_Asymmetry_Pilot,2022.1.3,Win32,83.54218881,62c50e9c1127f2cd403a315f,0,110,110,23,1,fourthree,,,,,,,,,,,,,,,,,,,,,,,,,,,,,,,,,,,,,,,,,,,,,,,,,,,,,,,,,,,,,,,,,,,,,,,,,,,,,,,,,,,,,,,,,,,,,,,,,,,,,,,,,,,,,,,,,,,,,,,,,,,,,,,,,,,,,,,,,,,,,,,,,,,,,,,,,,,,,
,,,,,,611cec79d3e2f9b32a11a9ef,62c538b34f260ff71db91f1e,2022-07-06_09h25.54.694,Colour_Asymmetry_Pilot,2022.1.3,Win32,83.54218881,62c50e9c1127f2cd403a315f,0,111,111,107,1,twofour,,,,,,,,,,,,,,,,,,,,,,,,,,,,,,,,,,,,,,,,,,,,,,,,,,,,,,,,,,,,,,,,,,,,,,,,,,,,,,,,,,,,,,,,,,,,,,,,,,,,,,,,,,,,,,,,,,,,,,,,,,,,,,,,,,,,,,,,,,,,,,,,,,,,,,,,,,,,,
,,,,,,611cec79d3e2f9b32a11a9ef,62c538b34f260ff71db91f1e,2022-07-06_09h25.54.694,Colour_Asymmetry_Pilot,2022.1.3,Win32,83.54218881,62c50e9c1127f2cd403a315f,0,112,112,58,1,twoone,,,,,,,,,,,,,,,,,,,,,,,,,,,,,,,,,,,,,,,,,,,,,,,,,,,,,,,,,,,,,,,,,,,,,,,,,,,,,,,,,,,,,,,,,,,,,,,,,,,,,,,,,,,,,,,,,,,,,,,,,,,,,,,,,,,,,,,,,,,,,,,,,,,,,,,,,,,,,
,,,,,,611cec79d3e2f9b32a11a9ef,62c538b34f260ff71db91f1e,2022-07-06_09h25.54.694,Colour_Asymmetry_Pilot,2022.1.3,Win32,83.54218881,62c50e9c1127f2cd403a315f,0,113,113,20,1,threeone,,,,,,,,,,,,,,,,,,,,,,,,,,,,,,,,,,,,,,,,,,,,,,,,,,,,,,,,,,,,,,,,,,,,,,,,,,,,,,,,,,,,,,,,,,,,,,,,,,,,,,,,,,,,,,,,,,,,,,,,,,,,,,,,,,,,,,,,,,,,,,,,,,,,,,,,,,,,,
,,,,,,611cec79d3e2f9b32a11a9ef,62c538b34f260ff71db91f1e,2022-07-06_09h25.54.694,Colour_Asymmetry_Pilot,2022.1.3,Win32,83.54218881,62c50e9c1127f2cd403a315f,0,114,114,39,1,fourthree,,,,,,,,,,,,,,,,,,,,,,,,,,,,,,,,,,,,,,,,,,,,,,,,,,,,,,,,,,,,,,,,,,,,,,,,,,,,,,,,,,,,,,,,,,,,,,,,,,,,,,,,,,,,,,,,,,,,,,,,,,,,,,,,,,,,,,,,,,,,,,,,,,,,,,,,,,,,,
,,,,,,611cec79d3e2f9b32a11a9ef,62c538b34f260ff71db91f1e,2022-07-06_09h25.54.694,Colour_Asymmetry_Pilot,2022.1.3,Win32,83.54218881,62c50e9c1127f2cd403a315f,0,115,115,143,1,fourthree,,,,,,,,,,,,,,,,,,,,,,,,,,,,,,,,,,,,,,,,,,,,,,,,,,,,,,,,,,,,,,,,,,,,,,,,,,,,,,,,,,,,,,,,,,,,,,,,,,,,,,,,,,,,,,,,,,,,,,,,,,,,,,,,,,,,,,,,,,,,,,,,,,,,,,,,,,,,,
,,,,,,611cec79d3e2f9b32a11a9ef,62c538b34f260ff71db91f1e,2022-07-06_09h25.54.694,Colour_Asymmetry_Pilot,2022.1.3,Win32,83.54218881,62c50e9c1127f2cd403a315f,0,116,116,17,1,onethree,,,,,,,,,,,,,,,,,,,,,,,,,,,,,,,,,,,,,,,,,,,,,,,,,,,,,,,,,,,,,,,,,,,,,,,,,,,,,,,,,,,,,,,,,,,,,,,,,,,,,,,,,,,,,,,,,,,,,,,,,,,,,,,,,,,,,,,,,,,,,,,,,,,,,,,,,,,,,
,,,,,,611cec79d3e2f9b32a11a9ef,62c538b34f260ff71db91f1e,2022-07-06_09h25.54.694,Colour_Asymmetry_Pilot,2022.1.3,Win32,83.54218881,62c50e9c1127f2cd403a315f,0,117,117,161,1,onethree,,,,,,,,,,,,,,,,,,,,,,,,,,,,,,,,,,,,,,,,,,,,,,,,,,,,,,,,,,,,,,,,,,,,,,,,,,,,,,,,,,,,,,,,,,,,,,,,,,,,,,,,,,,,,,,,,,,,,,,,,,,,,,,,,,,,,,,,,,,,,,,,,,,,,,,,,,,,,
,,,,,,611cec79d3e2f9b32a11a9ef,62c538b34f260ff71db91f1e,2022-07-06_09h25.54.694,Colour_Asymmetry_Pilot,2022.1.3,Win32,83.54218881,62c50e9c1127f2cd403a315f,0,118,118,113,1,onethree,,,,,,,,,,,,,,,,,,,,,,,,,,,,,,,,,,,,,,,,,,,,,,,,,,,,,,,,,,,,,,,,,,,,,,,,,,,,,,,,,,,,,,,,,,,,,,,,,,,,,,,,,,,,,,,,,,,,,,,,,,,,,,,,,,,,,,,,,,,,,,,,,,,,,,,,,,,,,
,,,,,,611cec79d3e2f9b32a11a9ef,62c538b34f260ff71db91f1e,2022-07-06_09h25.54.694,Colour_Asymmetry_Pilot,2022.1.3,Win32,83.54218881,62c50e9c1127f2cd403a315f,0,119,119,8,1,onetwo,,,,,,,,,,,,,,,,,,,,,,,,,,,,,,,,,,,,,,,,,,,,,,,,,,,,,,,,,,,,,,,,,,,,,,,,,,,,,,,,,,,,,,,,,,,,,,,,,,,,,,,,,,,,,,,,,,,,,,,,,,,,,,,,,,,,,,,,,,,,,,,,,,,,,,,,,,,,,
,,,,,,611cec79d3e2f9b32a11a9ef,62c538b34f260ff71db91f1e,2022-07-06_09h25.54.694,Colour_Asymmetry_Pilot,2022.1.3,Win32,83.54218881,62c50e9c1127f2cd403a315f,0,120,120,73,1,onethree,,,,,,,,,,,,,,,,,,,,,,,,,,,,,,,,,,,,,,,,,,,,,,,,,,,,,,,,,,,,,,,,,,,,,,,,,,,,,,,,,,,,,,,,,,,,,,,,,,,,,,,,,,,,,,,,,,,,,,,,,,,,,,,,,,,,,,,,,,,,,,,,,,,,,,,,,,,,,
,,,,,,611cec79d3e2f9b32a11a9ef,62c538b34f260ff71db91f1e,2022-07-06_09h25.54.694,Colour_Asymmetry_Pilot,2022.1.3,Win32,83.54218881,62c50e9c1127f2cd403a315f,0,121,121,103,1,fourthree,,,,,,,,,,,,,,,,,,,,,,,,,,,,,,,,,,,,,,,,,,,,,,,,,,,,,,,,,,,,,,,,,,,,,,,,,,,,,,,,,,,,,,,,,,,,,,,,,,,,,,,,,,,,,,,,,,,,,,,,,,,,,,,,,,,,,,,,,,,,,,,,,,,,,,,,,,,,,
,,,,,,611cec79d3e2f9b32a11a9ef,62c538b34f260ff71db91f1e,2022-07-06_09h25.54.694,Colour_Asymmetry_Pilot,2022.1.3,Win32,83.54218881,62c50e9c1127f2cd403a315f,0,122,122,137,1,onethree,,,,,,,,,,,,,,,,,,,,,,,,,,,,,,,,,,,,,,,,,,,,,,,,,,,,,,,,,,,,,,,,,,,,,,,,,,,,,,,,,,,,,,,,,,,,,,,,,,,,,,,,,,,,,,,,,,,,,,,,,,,,,,,,,,,,,,,,,,,,,,,,,,,,,,,,,,,,,
,,,,,,611cec79d3e2f9b32a11a9ef,62c538b34f260ff71db91f1e,2022-07-06_09h25.54.694,Colour_Asymmetry_Pilot,2022.1.3,Win32,83.54218881,62c50e9c1127f2cd403a315f,0,123,123,156,1,threeone,,,,,,,,,,,,,,,,,,,,,,,,,,,,,,,,,,,,,,,,,,,,,,,,,,,,,,,,,,,,,,,,,,,,,,,,,,,,,,,,,,,,,,,,,,,,,,,,,,,,,,,,,,,,,,,,,,,,,,,,,,,,,,,,,,,,,,,,,,,,,,,,,,,,,,,,,,,,,
,,,,,,611cec79d3e2f9b32a11a9ef,62c538b34f260ff71db91f1e,2022-07-06_09h25.54.694,Colour_Asymmetry_Pilot,2022.1.3,Win32,83.54218881,62c50e9c1127f2cd403a315f,0,124,124,99,1,twofour,,,,,,,,,,,,,,,,,,,,,,,,,,,,,,,,,,,,,,,,,,,,,,,,,,,,,,,,,,,,,,,,,,,,,,,,,,,,,,,,,,,,,,,,,,,,,,,,,,,,,,,,,,,,,,,,,,,,,,,,,,,,,,,,,,,,,,,,,,,,,,,,,,,,,,,,,,,,,
,,,,,,611cec79d3e2f9b32a11a9ef,62c538b34f260ff71db91f1e,2022-07-06_09h25.54.694,Colour_Asymmetry_Pilot,2022.1.3,Win32,83.54218881,62c50e9c1127f2cd403a315f,0,125,125,95,1,fourthree,,,,,,,,,,,,,,,,,,,,,,,,,,,,,,,,,,,,,,,,,,,,,,,,,,,,,,,,,,,,,,,,,,,,,,,,,,,,,,,,,,,,,,,,,,,,,,,,,,,,,,,,,,,,,,,,,,,,,,,,,,,,,,,,,,,,,,,,,,,,,,,,,,,,,,,,,,,,,
,,,,,,611cec79d3e2f9b32a11a9ef,62c538b34f260ff71db91f1e,2022-07-06_09h25.54.694,Colour_Asymmetry_Pilot,2022.1.3,Win32,83.54218881,62c50e9c1127f2cd403a315f,0,126,126,130,1,twoone,,,,,,,,,,,,,,,,,,,,,,,,,,,,,,,,,,,,,,,,,,,,,,,,,,,,,,,,,,,,,,,,,,,,,,,,,,,,,,,,,,,,,,,,,,,,,,,,,,,,,,,,,,,,,,,,,,,,,,,,,,,,,,,,,,,,,,,,,,,,,,,,,,,,,,,,,,,,,
,,,,,,611cec79d3e2f9b32a11a9ef,62c538b34f260ff71db91f1e,2022-07-06_09h25.54.694,Colour_Asymmetry_Pilot,2022.1.3,Win32,83.54218881,62c50e9c1127f2cd403a315f,0,127,127,64,1,onetwo,,,,,,,,,,,,,,,,,,,,,,,,,,,,,,,,,,,,,,,,,,,,,,,,,,,,,,,,,,,,,,,,,,,,,,,,,,,,,,,,,,,,,,,,,,,,,,,,,,,,,,,,,,,,,,,,,,,,,,,,,,,,,,,,,,,,,,,,,,,,,,,,,,,,,,,,,,,,,
,,,,,,611cec79d3e2f9b32a11a9ef,62c538b34f260ff71db91f1e,2022-07-06_09h25.54.694,Colour_Asymmetry_Pilot,2022.1.3,Win32,83.54218881,62c50e9c1127f2cd403a315f,0,128,128,136,1,onetwo,,,,,,,,,,,,,,,,,,,,,,,,,,,,,,,,,,,,,,,,,,,,,,,,,,,,,,,,,,,,,,,,,,,,,,,,,,,,,,,,,,,,,,,,,,,,,,,,,,,,,,,,,,,,,,,,,,,,,,,,,,,,,,,,,,,,,,,,,,,,,,,,,,,,,,,,,,,,,
,,,,,,611cec79d3e2f9b32a11a9ef,62c538b34f260ff71db91f1e,2022-07-06_09h25.54.694,Colour_Asymmetry_Pilot,2022.1.3,Win32,83.54218881,62c50e9c1127f2cd403a315f,0,129,129,11,1,twofour,,,,,,,,,,,,,,,,,,,,,,,,,,,,,,,,,,,,,,,,,,,,,,,,,,,,,,,,,,,,,,,,,,,,,,,,,,,,,,,,,,,,,,,,,,,,,,,,,,,,,,,,,,,,,,,,,,,,,,,,,,,,,,,,,,,,,,,,,,,,,,,,,,,,,,,,,,,,,
,,,,,,611cec79d3e2f9b32a11a9ef,62c538b34f260ff71db91f1e,2022-07-06_09h25.54.694,Colour_Asymmetry_Pilot,2022.1.3,Win32,83.54218881,62c50e9c1127f2cd403a315f,0,130,130,120,1,onetwo,,,,,,,,,,,,,,,,,,,,,,,,,,,,,,,,,,,,,,,,,,,,,,,,,,,,,,,,,,,,,,,,,,,,,,,,,,,,,,,,,,,,,,,,,,,,,,,,,,,,,,,,,,,,,,,,,,,,,,,,,,,,,,,,,,,,,,,,,,,,,,,,,,,,,,,,,,,,,
,,,,,,611cec79d3e2f9b32a11a9ef,62c538b34f260ff71db91f1e,2022-07-06_09h25.54.694,Colour_Asymmetry_Pilot,2022.1.3,Win32,83.54218881,62c50e9c1127f2cd403a315f,0,131,131,110,1,fourtwo,,,,,,,,,,,,,,,,,,,,,,,,,,,,,,,,,,,,,,,,,,,,,,,,,,,,,,,,,,,,,,,,,,,,,,,,,,,,,,,,,,,,,,,,,,,,,,,,,,,,,,,,,,,,,,,,,,,,,,,,,,,,,,,,,,,,,,,,,,,,,,,,,,,,,,,,,,,,,
,,,,,,611cec79d3e2f9b32a11a9ef,62c538b34f260ff71db91f1e,2022-07-06_09h25.54.694,Colour_Asymmetry_Pilot,2022.1.3,Win32,83.54218881,62c50e9c1127f2cd403a315f,0,132,132,108,1,threeone,,,,,,,,,,,,,,,,,,,,,,,,,,,,,,,,,,,,,,,,,,,,,,,,,,,,,,,,,,,,,,,,,,,,,,,,,,,,,,,,,,,,,,,,,,,,,,,,,,,,,,,,,,,,,,,,,,,,,,,,,,,,,,,,,,,,,,,,,,,,,,,,,,,,,,,,,,,,,
,,,,,,611cec79d3e2f9b32a11a9ef,62c538b34f260ff71db91f1e,2022-07-06_09h25.54.694,Colour_Asymmetry_Pilot,2022.1.3,Win32,83.54218881,62c50e9c1127f2cd403a315f,0,133,133,30,1,fourtwo,,,,,,,,,,,,,,,,,,,,,,,,,,,,,,,,,,,,,,,,,,,,,,,,,,,,,,,,,,,,,,,,,,,,,,,,,,,,,,,,,,,,,,,,,,,,,,,,,,,,,,,,,,,,,,,,,,,,,,,,,,,,,,,,,,,,,,,,,,,,,,,,,,,,,,,,,,,,,
,,,,,,611cec79d3e2f9b32a11a9ef,62c538b34f260ff71db91f1e,2022-07-06_09h25.54.694,Colour_Asymmetry_Pilot,2022.1.3,Win32,83.54218881,62c50e9c1127f2cd403a315f,0,134,134,101,1,threefour,,,,,,,,,,,,,,,,,,,,,,,,,,,,,,,,,,,,,,,,,,,,,,,,,,,,,,,,,,,,,,,,,,,,,,,,,,,,,,,,,,,,,,,,,,,,,,,,,,,,,,,,,,,,,,,,,,,,,,,,,,,,,,,,,,,,,,,,,,,,,,,,,,,,,,,,,,,,,
,,,,,,611cec79d3e2f9b32a11a9ef,62c538b34f260ff71db91f1e,2022-07-06_09h25.54.694,Colour_Asymmetry_Pilot,2022.1.3,Win32,83.54218881,62c50e9c1127f2cd403a315f,0,135,135,86,1,fourtwo,,,,,,,,,,,,,,,,,,,,,,,,,,,,,,,,,,,,,,,,,,,,,,,,,,,,,,,,,,,,,,,,,,,,,,,,,,,,,,,,,,,,,,,,,,,,,,,,,,,,,,,,,,,,,,,,,,,,,,,,,,,,,,,,,,,,,,,,,,,,,,,,,,,,,,,,,,,,,
,,,,,,611cec79d3e2f9b32a11a9ef,62c538b34f260ff71db91f1e,2022-07-06_09h25.54.694,Colour_Asymmetry_Pilot,2022.1.3,Win32,83.54218881,62c50e9c1127f2cd403a315f,0,136,136,50,1,twoone,,,,,,,,,,,,,,,,,,,,,,,,,,,,,,,,,,,,,,,,,,,,,,,,,,,,,,,,,,,,,,,,,,,,,,,,,,,,,,,,,,,,,,,,,,,,,,,,,,,,,,,,,,,,,,,,,,,,,,,,,,,,,,,,,,,,,,,,,,,,,,,,,,,,,,,,,,,,,
,,,,,,611cec79d3e2f9b32a11a9ef,62c538b34f260ff71db91f1e,2022-07-06_09h25.54.694,Colour_Asymmetry_Pilot,2022.1.3,Win32,83.54218881,62c50e9c1127f2cd403a315f,0,137,137,93,1,threefour,,,,,,,,,,,,,,,,,,,,,,,,,,,,,,,,,,,,,,,,,,,,,,,,,,,,,,,,,,,,,,,,,,,,,,,,,,,,,,,,,,,,,,,,,,,,,,,,,,,,,,,,,,,,,,,,,,,,,,,,,,,,,,,,,,,,,,,,,,,,,,,,,,,,,,,,,,,,,
,,,,,,611cec79d3e2f9b32a11a9ef,62c538b34f260ff71db91f1e,2022-07-06_09h25.54.694,Colour_Asymmetry_Pilot,2022.1.3,Win32,83.54218881,62c50e9c1127f2cd403a315f,0,138,138,77,1,threefour,,,,,,,,,,,,,,,,,,,,,,,,,,,,,,,,,,,,,,,,,,,,,,,,,,,,,,,,,,,,,,,,,,,,,,,,,,,,,,,,,,,,,,,,,,,,,,,,,,,,,,,,,,,,,,,,,,,,,,,,,,,,,,,,,,,,,,,,,,,,,,,,,,,,,,,,,,,,,
,,,,,,611cec79d3e2f9b32a11a9ef,62c538b34f260ff71db91f1e,2022-07-06_09h25.54.694,Colour_Asymmetry_Pilot,2022.1.3,Win32,83.54218881,62c50e9c1127f2cd403a315f,0,139,139,159,1,fourthree,,,,,,,,,,,,,,,,,,,,,,,,,,,,,,,,,,,,,,,,,,,,,,,,,,,,,,,,,,,,,,,,,,,,,,,,,,,,,,,,,,,,,,,,,,,,,,,,,,,,,,,,,,,,,,,,,,,,,,,,,,,,,,,,,,,,,,,,,,,,,,,,,,,,,,,,,,,,,
,,,,,,611cec79d3e2f9b32a11a9ef,62c538b34f260ff71db91f1e,2022-07-06_09h25.54.694,Colour_Asymmetry_Pilot,2022.1.3,Win32,83.54218881,62c50e9c1127f2cd403a315f,0,140,140,13,1,threefour,,,,,,,,,,,,,,,,,,,,,,,,,,,,,,,,,,,,,,,,,,,,,,,,,,,,,,,,,,,,,,,,,,,,,,,,,,,,,,,,,,,,,,,,,,,,,,,,,,,,,,,,,,,,,,,,,,,,,,,,,,,,,,,,,,,,,,,,,,,,,,,,,,,,,,,,,,,,,
,,,,,,611cec79d3e2f9b32a11a9ef,62c538b34f260ff71db91f1e,2022-07-06_09h25.54.694,Colour_Asymmetry_Pilot,2022.1.3,Win32,83.54218881,62c50e9c1127f2cd403a315f,0,141,141,4,1,threeone,,,,,,,,,,,,,,,,,,,,,,,,,,,,,,,,,,,,,,,,,,,,,,,,,,,,,,,,,,,,,,,,,,,,,,,,,,,,,,,,,,,,,,,,,,,,,,,,,,,,,,,,,,,,,,,,,,,,,,,,,,,,,,,,,,,,,,,,,,,,,,,,,,,,,,,,,,,,,
,,,,,,611cec79d3e2f9b32a11a9ef,62c538b34f260ff71db91f1e,2022-07-06_09h25.54.694,Colour_Asymmetry_Pilot,2022.1.3,Win32,83.54218881,62c50e9c1127f2cd403a315f,0,142,142,153,1,onethree,,,,,,,,,,,,,,,,,,,,,,,,,,,,,,,,,,,,,,,,,,,,,,,,,,,,,,,,,,,,,,,,,,,,,,,,,,,,,,,,,,,,,,,,,,,,,,,,,,,,,,,,,,,,,,,,,,,,,,,,,,,,,,,,,,,,,,,,,,,,,,,,,,,,,,,,,,,,,
,,,,,,611cec79d3e2f9b32a11a9ef,62c538b34f260ff71db91f1e,2022-07-06_09h25.54.694,Colour_Asymmetry_Pilot,2022.1.3,Win32,83.54218881,62c50e9c1127f2cd403a315f,0,143,143,0,1,onetwo,,,,,,,,,,,,,,,,,,,,,,,,,,,,,,,,,,,,,,,,,,,,,,,,,,,,,,,,,,,,,,,,,,,,,,,,,,,,,,,,,,,,,,,,,,,,,,,,,,,,,,,,,,,,,,,,,,,,,,,,,,,,,,,,,,,,,,,,,,,,,,,,,,,,,,,,,,,,,
,,,,,,611cec79d3e2f9b32a11a9ef,62c538b34f260ff71db91f1e,2022-07-06_09h25.54.694,Colour_Asymmetry_Pilot,2022.1.3,Win32,83.54218881,62c50e9c1127f2cd403a315f,0,144,144,92,1,threeone,,,,,,,,,,,,,,,,,,,,,,,,,,,,,,,,,,,,,,,,,,,,,,,,,,,,,,,,,,,,,,,,,,,,,,,,,,,,,,,,,,,,,,,,,,,,,,,,,,,,,,,,,,,,,,,,,,,,,,,,,,,,,,,,,,,,,,,,,,,,,,,,,,,,,,,,,,,,,
,,,,,,611cec79d3e2f9b32a11a9ef,62c538b34f260ff71db91f1e,2022-07-06_09h25.54.694,Colour_Asymmetry_Pilot,2022.1.3,Win32,83.54218881,62c50e9c1127f2cd403a315f,0,145,145,109,1,threefour,,,,,,,,,,,,,,,,,,,,,,,,,,,,,,,,,,,,,,,,,,,,,,,,,,,,,,,,,,,,,,,,,,,,,,,,,,,,,,,,,,,,,,,,,,,,,,,,,,,,,,,,,,,,,,,,,,,,,,,,,,,,,,,,,,,,,,,,,,,,,,,,,,,,,,,,,,,,,
,,,,,,611cec79d3e2f9b32a11a9ef,62c538b34f260ff71db91f1e,2022-07-06_09h25.54.694,Colour_Asymmetry_Pilot,2022.1.3,Win32,83.54218881,62c50e9c1127f2cd403a315f,0,146,146,146,1,twoone,,,,,,,,,,,,,,,,,,,,,,,,,,,,,,,,,,,,,,,,,,,,,,,,,,,,,,,,,,,,,,,,,,,,,,,,,,,,,,,,,,,,,,,,,,,,,,,,,,,,,,,,,,,,,,,,,,,,,,,,,,,,,,,,,,,,,,,,,,,,,,,,,,,,,,,,,,,,,
,,,,,,611cec79d3e2f9b32a11a9ef,62c538b34f260ff71db91f1e,2022-07-06_09h25.54.694,Colour_Asymmetry_Pilot,2022.1.3,Win32,83.54218881,62c50e9c1127f2cd403a315f,0,147,147,152,1,onetwo,,,,,,,,,,,,,,,,,,,,,,,,,,,,,,,,,,,,,,,,,,,,,,,,,,,,,,,,,,,,,,,,,,,,,,,,,,,,,,,,,,,,,,,,,,,,,,,,,,,,,,,,,,,,,,,,,,,,,,,,,,,,,,,,,,,,,,,,,,,,,,,,,,,,,,,,,,,,,
,,,,,,611cec79d3e2f9b32a11a9ef,62c538b34f260ff71db91f1e,2022-07-06_09h25.54.694,Colour_Asymmetry_Pilot,2022.1.3,Win32,83.54218881,62c50e9c1127f2cd403a315f,0,148,148,31,1,fourthree,,,,,,,,,,,,,,,,,,,,,,,,,,,,,,,,,,,,,,,,,,,,,,,,,,,,,,,,,,,,,,,,,,,,,,,,,,,,,,,,,,,,,,,,,,,,,,,,,,,,,,,,,,,,,,,,,,,,,,,,,,,,,,,,,,,,,,,,,,,,,,,,,,,,,,,,,,,,,
,,,,,,611cec79d3e2f9b32a11a9ef,62c538b34f260ff71db91f1e,2022-07-06_09h25.54.694,Colour_Asymmetry_Pilot,2022.1.3,Win32,83.54218881,62c50e9c1127f2cd403a315f,0,149,149,117,1,threefour,,,,,,,,,,,,,,,,,,,,,,,,,,,,,,,,,,,,,,,,,,,,,,,,,,,,,,,,,,,,,,,,,,,,,,,,,,,,,,,,,,,,,,,,,,,,,,,,,,,,,,,,,,,,,,,,,,,,,,,,,,,,,,,,,,,,,,,,,,,,,,,,,,,,,,,,,,,,,
,,,,,,611cec79d3e2f9b32a11a9ef,62c538b34f260ff71db91f1e,2022-07-06_09h25.54.694,Colour_Asymmetry_Pilot,2022.1.3,Win32,83.54218881,62c50e9c1127f2cd403a315f,0,150,150,67,1,twofour,,,,,,,,,,,,,,,,,,,,,,,,,,,,,,,,,,,,,,,,,,,,,,,,,,,,,,,,,,,,,,,,,,,,,,,,,,,,,,,,,,,,,,,,,,,,,,,,,,,,,,,,,,,,,,,,,,,,,,,,,,,,,,,,,,,,,,,,,,,,,,,,,,,,,,,,,,,,,
,,,,,,611cec79d3e2f9b32a11a9ef,62c538b34f260ff71db91f1e,2022-07-06_09h25.54.694,Colour_Asymmetry_Pilot,2022.1.3,Win32,83.54218881,62c50e9c1127f2cd403a315f,0,151,151,128,1,onetwo,,,,,,,,,,,,,,,,,,,,,,,,,,,,,,,,,,,,,,,,,,,,,,,,,,,,,,,,,,,,,,,,,,,,,,,,,,,,,,,,,,,,,,,,,,,,,,,,,,,,,,,,,,,,,,,,,,,,,,,,,,,,,,,,,,,,,,,,,,,,,,,,,,,,,,,,,,,,,
,,,,,,611cec79d3e2f9b32a11a9ef,62c538b34f260ff71db91f1e,2022-07-06_09h25.54.694,Colour_Asymmetry_Pilot,2022.1.3,Win32,83.54218881,62c50e9c1127f2cd403a315f,0,152,152,6,1,fourtwo,,,,,,,,,,,,,,,,,,,,,,,,,,,,,,,,,,,,,,,,,,,,,,,,,,,,,,,,,,,,,,,,,,,,,,,,,,,,,,,,,,,,,,,,,,,,,,,,,,,,,,,,,,,,,,,,,,,,,,,,,,,,,,,,,,,,,,,,,,,,,,,,,,,,,,,,,,,,,
,,,,,,611cec79d3e2f9b32a11a9ef,62c538b34f260ff71db91f1e,2022-07-06_09h25.54.694,Colour_Asymmetry_Pilot,2022.1.3,Win32,83.54218881,62c50e9c1127f2cd403a315f,0,153,153,44,1,threeone,,,,,,,,,,,,,,,,,,,,,,,,,,,,,,,,,,,,,,,,,,,,,,,,,,,,,,,,,,,,,,,,,,,,,,,,,,,,,,,,,,,,,,,,,,,,,,,,,,,,,,,,,,,,,,,,,,,,,,,,,,,,,,,,,,,,,,,,,,,,,,,,,,,,,,,,,,,,,
,,,,,,611cec79d3e2f9b32a11a9ef,62c538b34f260ff71db91f1e,2022-07-06_09h25.54.694,Colour_Asymmetry_Pilot,2022.1.3,Win32,83.54218881,62c50e9c1127f2cd403a315f,0,154,154,155,1,twofour,,,,,,,,,,,,,,,,,,,,,,,,,,,,,,,,,,,,,,,,,,,,,,,,,,,,,,,,,,,,,,,,,,,,,,,,,,,,,,,,,,,,,,,,,,,,,,,,,,,,,,,,,,,,,,,,,,,,,,,,,,,,,,,,,,,,,,,,,,,,,,,,,,,,,,,,,,,,,
,,,,,,611cec79d3e2f9b32a11a9ef,62c538b34f260ff71db91f1e,2022-07-06_09h25.54.694,Colour_Asymmetry_Pilot,2022.1.3,Win32,83.54218881,62c50e9c1127f2cd403a315f,0,155,155,14,1,fourtwo,,,,,,,,,,,,,,,,,,,,,,,,,,,,,,,,,,,,,,,,,,,,,,,,,,,,,,,,,,,,,,,,,,,,,,,,,,,,,,,,,,,,,,,,,,,,,,,,,,,,,,,,,,,,,,,,,,,,,,,,,,,,,,,,,,,,,,,,,,,,,,,,,,,,,,,,,,,,,
,,,,,,611cec79d3e2f9b32a11a9ef,62c538b34f260ff71db91f1e,2022-07-06_09h25.54.694,Colour_Asymmetry_Pilot,2022.1.3,Win32,83.54218881,62c50e9c1127f2cd403a315f,0,156,156,133,1,threefour,,,,,,,,,,,,,,,,,,,,,,,,,,,,,,,,,,,,,,,,,,,,,,,,,,,,,,,,,,,,,,,,,,,,,,,,,,,,,,,,,,,,,,,,,,,,,,,,,,,,,,,,,,,,,,,,,,,,,,,,,,,,,,,,,,,,,,,,,,,,,,,,,,,,,,,,,,,,,
,,,,,,611cec79d3e2f9b32a11a9ef,62c538b34f260ff71db91f1e,2022-07-06_09h25.54.694,Colour_Asymmetry_Pilot,2022.1.3,Win32,83.54218881,62c50e9c1127f2cd403a315f,0,157,157,60,1,threeone,,,,,,,,,,,,,,,,,,,,,,,,,,,,,,,,,,,,,,,,,,,,,,,,,,,,,,,,,,,,,,,,,,,,,,,,,,,,,,,,,,,,,,,,,,,,,,,,,,,,,,,,,,,,,,,,,,,,,,,,,,,,,,,,,,,,,,,,,,,,,,,,,,,,,,,,,,,,,
,,,,,,611cec79d3e2f9b32a11a9ef,62c538b34f260ff71db91f1e,2022-07-06_09h25.54.694,Colour_Asymmetry_Pilot,2022.1.3,Win32,83.54218881,62c50e9c1127f2cd403a315f,0,158,158,29,1,threefour,,,,,,,,,,,,,,,,,,,,,,,,,,,,,,,,,,,,,,,,,,,,,,,,,,,,,,,,,,,,,,,,,,,,,,,,,,,,,,,,,,,,,,,,,,,,,,,,,,,,,,,,,,,,,,,,,,,,,,,,,,,,,,,,,,,,,,,,,,,,,,,,,,,,,,,,,,,,,
,,,,,,611cec79d3e2f9b32a11a9ef,62c538b34f260ff71db91f1e,2022-07-06_09h25.54.694,Colour_Asymmetry_Pilot,2022.1.3,Win32,83.54218881,62c50e9c1127f2cd403a315f,0,159,159,28,1,threeone,,,,,,,,,,,,,,,,,,,,,,,,,,,,,,,,,,,,,,,,,,,,,,,,,,,,,,,,,,,,,,,,,,,,,,,,,,,,,,,,,,,,,,,,,,,,,,,,,,,,,,,,,,,,,,,,,,,,,,,,,,,,,,,,,,,,,,,,,,,,,,,,,,,,,,,,,,,,,
,,,,,,611cec79d3e2f9b32a11a9ef,62c538b34f260ff71db91f1e,2022-07-06_09h25.54.694,Colour_Asymmetry_Pilot,2022.1.3,Win32,83.54218881,62c50e9c1127f2cd403a315f,0,160,160,75,1,twofour,,,,,,,,,,,,,,,,,,,,,,,,,,,,,,,,,,,,,,,,,,,,,,,,,,,,,,,,,,,,,,,,,,,,,,,,,,,,,,,,,,,,,,,,,,,,,,,,,,,,,,,,,,,,,,,,,,,,,,,,,,,,,,,,,,,,,,,,,,,,,,,,,,,,,,,,,,,,,
,,,,,,611cec79d3e2f9b32a11a9ef,62c538b34f260ff71db91f1e,2022-07-06_09h25.54.694,Colour_Asymmetry_Pilot,2022.1.3,Win32,83.54218881,62c50e9c1127f2cd403a315f,0,161,161,97,1,onethree,,,,,,,,,,,,,,,,,,,,,,,,,,,,,,,,,,,,,,,,,,,,,,,,,,,,,,,,,,,,,,,,,,,,,,,,,,,,,,,,,,,,,,,,,,,,,,,,,,,,,,,,,,,,,,,,,,,,,,,,,,,,,,,,,,,,,,,,,,,,,,,,,,,,,,,,,,,,,
,,,,,,611cec79d3e2f9b32a11a9ef,62c538b34f260ff71db91f1e,2022-07-06_09h25.54.694,Colour_Asymmetry_Pilot,2022.1.3,Win32,83.54218881,62c50e9c1127f2cd403a315f,,,,,,,space,8.6046,space,73.356,space,75.7267,space,13.691,space,4.5592,space,7.8187,"[-0.8198,-0.5138,-0.7492000000000001]",fourthree,"[0.40379999999999994,0.09000000000000008,0.44300000000000006]",-4,16.3554,-44,88,1,0,0,response7disk_5,-10,9,1,0,0,rectangle_8,-10,9,1,0,0,2,-10,9,1,0,0,0,0,0,0,1,,,,,,,,,,,,,,,,,,,,,,,,,,,,,,,,,,,,,,,,,,,,,,,,,,,,,,,,,,,,,,,,,,,,,,,,,,,,,,,,,,,,,,,,,,,,,,,,,,,,,,,,,,,,,,,,
,,,,,,611cec79d3e2f9b32a11a9ef,62c538b34f260ff71db91f1e,2022-07-06_09h25.54.694,Colour_Asymmetry_Pilot,2022.1.3,Win32,83.54218881,62c50e9c1127f2cd403a315f,,,,,,,,,,,,,,,,,,,"[0.8274000000000001,-0.5844,-0.9452]",threeone,"[-0.17659999999999998,0.3253999999999999,0.19999999999999996]",-4,5.2521,-50,94,1,0,0,response7disk_5,0,-5,1,0,0,rectangle_8,0,-5,1,0,0,2,0,-5,1,0,0,1,0,1,0,1,,,,,,,,,,,,,,,,,,,,,,,,,,,,,,,,,,,,,,,,,,,,,,,,,,,,,,,,,,,,,,,,,,,,,,,,,,,,,,,,,,,,,,,,,,,,,,,,,,,,,,,,,,,,,,,,
,,,,,,611cec79d3e2f9b32a11a9ef,62c538b34f260ff71db91f1e,2022-07-06_09h25.54.694,Colour_Asymmetry_Pilot,2022.1.3,Win32,83.54218881,62c50e9c1127f2cd403a315f,,,,,,,,,,,,,,,,,,,"[-0.9766,-0.6472,0.07440000000000002]",twofour,"[-0.9688,-0.7412000000000001,-0.4902000000000001]",4,9.6524,39,89,1,0,0,response1disk_5,-15,0,1,0,0,rectangle_8,-15,0,1,0,0,2,-15,0,1,0,0,2,0,2,0,1,,,,,,,,,,,,,,,,,,,,,,,,,,,,,,,,,,,,,,,,,,,,,,,,,,,,,,,,,,,,,,,,,,,,,,,,,,,,,,,,,,,,,,,,,,,,,,,,,,,,,,,,,,,,,,,,
,,,,,,611cec79d3e2f9b32a11a9ef,62c538b34f260ff71db91f1e,2022-07-06_09h25.54.694,Colour_Asymmetry_Pilot,2022.1.3,Win32,83.54218881,62c50e9c1127f2cd403a315f,,,,,,,,,,,,,,,,,,,"[-0.8198,-0.5138,-0.7492000000000001]",fourthree,"[-0.6942,-0.7648,-0.12959999999999994]",3,7.3049,81,43,1,0,0,response1disk_5,-23,4,1,0,0,rectangle_8,100,-37,1,0,0,2,-3,6,1,0,0,3,0,3,0,1,response3disk_7,5,rectangle_4,,,,,,,,,,,,,,,,,,,,,,,,,,,,,,,,,,,,,,,,,,,,,,,,,,,,,,,,,,,,,,,,,,,,,,,,,,,,,,,,,,,,,,,,,,,,,,,,,,,,,,,,,,,,,
,,,,,,611cec79d3e2f9b32a11a9ef,62c538b34f260ff71db91f1e,2022-07-06_09h25.54.694,Colour_Asymmetry_Pilot,2022.1.3,Win32,83.54218881,62c50e9c1127f2cd403a315f,,,,,,,,,,,,,,,,,,,"[0.18419999999999992,-0.4276,-0.404]",fourthree,"[-0.6706000000000001,-0.6157999999999999,-0.6786]",-4,4.1764,-39,96,1,0,0,response7disk_5,17,9,1,0,0,rectangle_8,17,9,1,0,0,2,17,9,1,0,0,4,0,4,0,1,,,,,,,,,,,,,,,,,,,,,,,,,,,,,,,,,,,,,,,,,,,,,,,,,,,,,,,,,,,,,,,,,,,,,,,,,,,,,,,,,,,,,,,,,,,,,,,,,,,,,,,,,,,,,,,,
,,,,,,611cec79d3e2f9b32a11a9ef,62c538b34f260ff71db91f1e,2022-07-06_09h25.54.694,Colour_Asymmetry_Pilot,2022.1.3,Win32,83.54218881,62c50e9c1127f2cd403a315f,,,,,,,,,,,,,,,,,,,"[-0.09019999999999995,0.44300000000000006,0.5371999999999999]",fourthree,"[0.4196,0.4665999999999999,0.3568]",3,4.704,85,36,1,0,0,response1disk_5,4,13,1,0,0,rectangle_8,4,13,1,0,0,2,4,13,1,0,0,5,0,5,0,1,,,,,,,,,,,,,,,,,,,,,,,,,,,,,,,,,,,,,,,,,,,,,,,,,,,,,,,,,,,,,,,,,,,,,,,,,,,,,,,,,,,,,,,,,,,,,,,,,,,,,,,,,,,,,,,,
,,,,,,611cec79d3e2f9b32a11a9ef,62c538b34f260ff71db91f1e,2022-07-06_09h25.54.694,Colour_Asymmetry_Pilot,2022.1.3,Win32,83.54218881,62c50e9c1127f2cd403a315f,,,,,,,,,,,,,,,,,,,"[0.7018,0.7176,0.6155999999999999]",fourtwo,"[0.9213999999999998,0.6391999999999998,-0.9922]",-4,1.7,-62,103,1,0,0,response7disk_5,-26,3,1,0,0,rectangle_8,-26,3,1,0,0,2,-26,3,1,0,0,6,0,6,0,1,,,,,,,,,,,,,,,,,,,,,,,,,,,,,,,,,,,,,,,,,,,,,,,,,,,,,,,,,,,,,,,,,,,,,,,,,,,,,,,,,,,,,,,,,,,,,,,,,,,,,,,,,,,,,,,,
,,,,,,611cec79d3e2f9b32a11a9ef,62c538b34f260ff71db91f1e,2022-07-06_09h25.54.694,Colour_Asymmetry_Pilot,2022.1.3,Win32,83.54218881,62c50e9c1127f2cd403a315f,,,,,,,,,,,,,,,,,,,,onetwo,,-4,5.0899,,,,,,,,,,,,,,,,,,,,,,,,,,,,,,,,space,7.0381,"[0.0351999999999999,0.41159999999999997,0.0038000000000000256]","[0.5449999999999999,-0.31000000000000005,-0.0354000000000001]",-67,96,1,0,0,response7disk,-11,4,1,0,0,rectangle,-11,4,1,0,0,,2,0.0058,0,-11,4,1,0,0,0,0,0,69,1,69,first,,,,,,,,,,,,,,,,,,,,,,,,,,,,,,,,,,,,,,,,,,,,,,,,,,,,,,,,,,,,,,,,,,,,,,,,
,,,,,,611cec79d3e2f9b32a11a9ef,62c538b34f260ff71db91f1e,2022-07-06_09h25.54.694,Colour_Asymmetry_Pilot,2022.1.3,Win32,83.54218881,62c50e9c1127f2cd403a315f,,,,,,,,,,,,,,,,,,,,threefour,,-4,3.8202,,,,,,,,,,,,,,,,,,,,,,,,,,,,,,,,,,"[-0.10599999999999998,-0.15300000000000002,0.15280000000000005]","[0.7802,-0.23140000000000005,-0.20799999999999996]",-50,109,1,0,0,response7disk,-10,-3,1,0,0,rectangle,-10,-3,1,0,0,,2,0.0012,0,-10,-3,1,0,0,0,1,1,75,1,75,first,,,,,,,,,,,,,,,,,,,,,,,,,,,,,,,,,,,,,,,,,,,,,,,,,,,,,,,,,,,,,,,,,,,,,,,,
,,,,,,611cec79d3e2f9b32a11a9ef,62c538b34f260ff71db91f1e,2022-07-06_09h25.54.694,Colour_Asymmetry_Pilot,2022.1.3,Win32,83.54218881,62c50e9c1127f2cd403a315f,,,,,,,,,,,,,,,,,,,,fourtwo,,-4,2.8863,,,,,,,,,,,,,,,,,,,,,,,,,,,,,,,,,,"[0.22340000000000004,-0.9296,-0.7884]","[-0.24719999999999998,0.5213999999999999,-0.12959999999999994]",-55,102,1,0,0,response7disk,1,9,1,0,0,rectangle,1,9,1,0,0,,3,0.0033,0,1,9,1,0,0,0,2,2,20,1,20,first,,,,,,,,,,,,,,,,,,,,,,,,,,,,,,,,,,,,,,,,,,,,,,,,,,,,,,,,,,,,,,,,,,,,,,,,
,,,,,,611cec79d3e2f9b32a11a9ef,62c538b34f260ff71db91f1e,2022-07-06_09h25.54.694,Colour_Asymmetry_Pilot,2022.1.3,Win32,83.54218881,62c50e9c1127f2cd403a315f,,,,,,,,,,,,,,,,,,,,onethree,,4,2.0531,,,,,,,,,,,,,,,,,,,,,,,,,,,,,,,,,,"[0.3568,-0.20799999999999996,-0.9844]","[0.18419999999999992,-0.4276,-0.404]",42,94,1,0,0,response1disk,-3,9,1,0,0,rectangle,51,-89,1,0,0,1,1,3.9504,1,-4,7,1,0,0,0,3,3,104,1,23,second,response3disk_3,rectangle,,,,,,,,,,,,,,,,,,,,,,,,,,,,,,,,,,,,,,,,,,,,,,,,,,,,,,,,,,,,,,,,,,,,,,
,,,,,,611cec79d3e2f9b32a11a9ef,62c538b34f260ff71db91f1e,2022-07-06_09h25.54.694,Colour_Asymmetry_Pilot,2022.1.3,Win32,83.54218881,62c50e9c1127f2cd403a315f,,,,,,,,,,,,,,,,,,,,threeone,,4,1.5504,,,,,,,,,,,,,,,,,,,,,,,,,,,,,,,,,,"[1,0.12939999999999996,-1]","[-0.17659999999999998,-0.2864,-0.8354]",25,66,1,0,0,response1disk,3,8,1,0,0,rectangle,3,8,1,0,0,1,2,0.0027,0,3,8,1,0,0,0,4,4,37,1,37,first,,,,,,,,,,,,,,,,,,,,,,,,,,,,,,,,,,,,,,,,,,,,,,,,,,,,,,,,,,,,,,,,,,,,,,,,
,,,,,,611cec79d3e2f9b32a11a9ef,62c538b34f260ff71db91f1e,2022-07-06_09h25.54.694,Colour_Asymmetry_Pilot,2022.1.3,Win32,83.54218881,62c50e9c1127f2cd403a315f,,,,,,,,,,,,,,,,,,,,onetwo,,-4,1.2327,,,,,,,,,,,,,,,,,,,,,,,,,,,,,,,,,,"[-0.24719999999999998,0.5213999999999999,-0.12959999999999994]","[-0.38039999999999996,-0.4276,-0.1452]",-47,89,1,0,0,response7disk,-16,7,1,0,0,rectangle,-16,7,1,0,0,1,1,0.0023,0,-16,7,1,0,0,0,5,5,137,1,56,second,,,,,,,,,,,,,,,,,,,,,,,,,,,,,,,,,,,,,,,,,,,,,,,,,,,,,,,,,,,,,,,,,,,,,,,,
,,,,,,611cec79d3e2f9b32a11a9ef,62c538b34f260ff71db91f1e,2022-07-06_09h25.54.694,Colour_Asymmetry_Pilot,2022.1.3,Win32,83.54218881,62c50e9c1127f2cd403a315f,,,,,,,,,,,,,,,,,,,,fourthree,,4,0.8334,,,,,,,,,,,,,,,,,,,,,,,,,,,,,,,,,,"[-0.09019999999999995,0.44300000000000006,0.5371999999999999]","[-0.9688,-0.4902000000000001,-0.12159999999999993]",38,94,1,0,0,response1disk,-10,7,1,0,0,rectangle,-10,7,1,0,0,1,3,0.0027,0,-10,7,1,0,0,0,6,6,38,1,38,first,,,,,,,,,,,,,,,,,,,,,,,,,,,,,,,,,,,,,,,,,,,,,,,,,,,,,,,,,,,,,,,,,,,,,,,,
,,,,,,611cec79d3e2f9b32a11a9ef,62c538b34f260ff71db91f1e,2022-07-06_09h25.54.694,Colour_Asymmetry_Pilot,2022.1.3,Win32,83.54218881,62c50e9c1127f2cd403a315f,,,,,,,,,,,,,,,,,,,,onetwo,,-4,2.2889,,,,,,,,,,,,,,,,,,,,,,,,,,,,,,,,,,"[0.9213999999999998,0.6391999999999998,-0.9922]","[-0.38039999999999996,-0.4276,-0.1452]",-49,94,1,0,0,response7disk,0,2,1,0,0,rectangle,43,-95,1,0,0,1,1,5.5124,1,2,9,1,0,0,0,7,7,97,1,16,second,response3disk_3,rectangle,,,,,,,,,,,,,,,,,,,,,,,,,,,,,,,,,,,,,,,,,,,,,,,,,,,,,,,,,,,,,,,,,,,,,,
,,,,,,611cec79d3e2f9b32a11a9ef,62c538b34f260ff71db91f1e,2022-07-06_09h25.54.694,Colour_Asymmetry_Pilot,2022.1.3,Win32,83.54218881,62c50e9c1127f2cd403a315f,,,,,,,,,,,,,,,,,,,,fourtwo,,-4,0.8875,,,,,,,,,,,,,,,,,,,,,,,,,,,,,,,,,,"[0.9213999999999998,0.6391999999999998,-0.9922]","[-0.5688,-0.08239999999999992,-0.1844]",-42,95,1,0,0,response7disk,-20,0,1,0,0,rectangle,-20,0,1,0,0,1,1,0.0005,0,-20,0,1,0,0,0,8,8,60,1,60,first,,,,,,,,,,,,,,,,,,,,,,,,,,,,,,,,,,,,,,,,,,,,,,,,,,,,,,,,,,,,,,,,,,,,,,,,
,,,,,,611cec79d3e2f9b32a11a9ef,62c538b34f260ff71db91f1e,2022-07-06_09h25.54.694,Colour_Asymmetry_Pilot,2022.1.3,Win32,83.54218881,62c50e9c1127f2cd403a315f,,,,,,,,,,,,,,,,,,,,onethree,,4,1.0007,,,,,,,,,,,,,,,,,,,,,,,,,,,,,,,,,,"[-0.5452,-0.608,0.2470000000000001]","[-0.10599999999999998,-0.15300000000000002,0.15280000000000005]",44,95,1,0,0,response1disk,11,1,1,0,0,rectangle,11,1,1,0,0,1,2,0.0028,0,11,1,1,0,0,0,9,9,10,1,10,first,,,,,,,,,,,,,,,,,,,,,,,,,,,,,,,,,,,,,,,,,,,,,,,,,,,,,,,,,,,,,,,,,,,,,,,,
,,,,,,611cec79d3e2f9b32a11a9ef,62c538b34f260ff71db91f1e,2022-07-06_09h25.54.694,Colour_Asymmetry_Pilot,2022.1.3,Win32,83.54218881,62c50e9c1127f2cd403a315f,,,,,,,,,,,,,,,,,,,,fourthree,,-4,0.8814,,,,,,,,,,,,,,,,,,,,,,,,,,,,,,,,,,"[0.7018,0.7802,-0.16079999999999994]","[-0.01980000000000004,-0.5138,-0.38039999999999996]",-38,89,1,0,0,response7disk,-12,10,1,0,0,rectangle,-12,10,1,0,0,1,1,0.0027,0,-12,10,1,0,0,0,10,10,24,1,24,first,,,,,,,,,,,,,,,,,,,,,,,,,,,,,,,,,,,,,,,,,,,,,,,,,,,,,,,,,,,,,,,,,,,,,,,,
,,,,,,611cec79d3e2f9b32a11a9ef,62c538b34f260ff71db91f1e,2022-07-06_09h25.54.694,Colour_Asymmetry_Pilot,2022.1.3,Win32,83.54218881,62c50e9c1127f2cd403a315f,,,,,,,,,,,,,,,,,,,,fourtwo,,4,0.533,,,,,,,,,,,,,,,,,,,,,,,,,,,,,,,,,,"[0.9372,0.20779999999999998,0.2704]","[0.9686000000000001,0.5763999999999998,0.11359999999999992]",40,87,1,0,0,response1disk,18,11,1,0,0,rectangle,18,11,1,0,0,1,2,0.0025,0,18,11,1,0,0,0,11,11,93,1,12,second,,,,,,,,,,,,,,,,,,,,,,,,,,,,,,,,,,,,,,,,,,,,,,,,,,,,,,,,,,,,,,,,,,,,,,,,
,,,,,,611cec79d3e2f9b32a11a9ef,62c538b34f260ff71db91f1e,2022-07-06_09h25.54.694,Colour_Asymmetry_Pilot,2022.1.3,Win32,83.54218881,62c50e9c1127f2cd403a315f,,,,,,,,,,,,,,,,,,,,onetwo,,-4,1.1851,,,,,,,,,,,,,,,,,,,,,,,,,,,,,,,,,,"[-0.9766,-0.34920000000000007,0.2156]","[-0.8198,-0.5138,-0.7492000000000001]",-31,91,1,0,0,response7disk,-16,-1,1,0,0,rectangle,-16,-1,1,0,0,1,1,0.0026,0,-16,-1,1,0,0,0,12,12,139,1,58,second,,,,,,,,,,,,,,,,,,,,,,,,,,,,,,,,,,,,,,,,,,,,,,,,,,,,,,,,,,,,,,,,,,,,,,,,
,,,,,,611cec79d3e2f9b32a11a9ef,62c538b34f260ff71db91f1e,2022-07-06_09h25.54.694,Colour_Asymmetry_Pilot,2022.1.3,Win32,83.54218881,62c50e9c1127f2cd403a315f,,,,,,,,,,,,,,,,,,,,onetwo,,4,0.6311,,,,,,,,,,,,,,,,,,,,,,,,,,,,,,,,,,"[-0.050999999999999934,-0.6706000000000001,-0.804]","[0.23120000000000007,-0.7726,-0.34120000000000006]",30,86,1,0,0,response1disk,17,-1,1,0,0,rectangle,17,-1,1,0,0,1,2,0.0025,0,17,-1,1,0,0,0,13,13,115,1,34,second,,,,,,,,,,,,,,,,,,,,,,,,,,,,,,,,,,,,,,,,,,,,,,,,,,,,,,,,,,,,,,,,,,,,,,,,
,,,,,,611cec79d3e2f9b32a11a9ef,62c538b34f260ff71db91f1e,2022-07-06_09h25.54.694,Colour_Asymmetry_Pilot,2022.1.3,Win32,83.54218881,62c50e9c1127f2cd403a315f,,,,,,,,,,,,,,,,,,,,threefour,,-4,0.7307,,,,,,,,,,,,,,,,,,,,,,,,,,,,,,,,,,"[-0.7412000000000001,-0.08239999999999992,-0.6864]","[0.796,0.2156,-0.27859999999999996]",-34,86,1,0,0,response7disk,-12,-2,1,0,0,rectangle,80,-50,1,0,0,2,2,3.1861,1,11,11,1,0,0,0,14,14,161,1,80,second,response3disk_3,rectangle,,,,,,,,,,,,,,,,,,,,,,,,,,,,,,,,,,,,,,,,,,,,,,,,,,,,,,,,,,,,,,,,,,,,,,
,,,,,,611cec79d3e2f9b32a11a9ef,62c538b34f260ff71db91f1e,2022-07-06_09h25.54.694,Colour_Asymmetry_Pilot,2022.1.3,Win32,83.54218881,62c50e9c1127f2cd403a315f,,,,,,,,,,,,,,,,,,,,threefour,,-4,0.6825,,,,,,,,,,,,,,,,,,,,,,,,,,,,,,,,,,"[-0.01980000000000004,-0.5138,-0.38039999999999996]","[0.7018,0.7802,-0.16079999999999994]",-62,100,1,0,0,response7disk,8,4,1,0,0,rectangle,8,4,1,0,0,2,3,0.0028,0,8,4,1,0,0,0,15,15,105,1,24,second,,,,,,,,,,,,,,,,,,,,,,,,,,,,,,,,,,,,,,,,,,,,,,,,,,,,,,,,,,,,,,,,,,,,,,,,
,,,,,,611cec79d3e2f9b32a11a9ef,62c538b34f260ff71db91f1e,2022-07-06_09h25.54.694,Colour_Asymmetry_Pilot,2022.1.3,Win32,83.54218881,62c50e9c1127f2cd403a315f,,,,,,,,,,,,,,,,,,,,twoone,,-4,1.071,,,,,,,,,,,,,,,,,,,,,,,,,,,,,,,,,,"[-0.38039999999999996,-0.4276,-0.1452]","[0.23920000000000008,0.2704,0.16060000000000008]",-57,94,1,0,0,response7disk,-6,2,1,0,0,rectangle,-6,2,1,0,0,2,2,0.0024,0,-6,2,1,0,0,0,16,16,99,1,18,second,,,,,,,,,,,,,,,,,,,,,,,,,,,,,,,,,,,,,,,,,,,,,,,,,,,,,,,,,,,,,,,,,,,,,,,,
,,,,,,611cec79d3e2f9b32a11a9ef,62c538b34f260ff71db91f1e,2022-07-06_09h25.54.694,Colour_Asymmetry_Pilot,2022.1.3,Win32,83.54218881,62c50e9c1127f2cd403a315f,,,,,,,,,,,,,,,,,,,,twoone,,-4,0.6615,,,,,,,,,,,,,,,,,,,,,,,,,,,,,,,,,,"[-0.8198,-0.5138,-0.7492000000000001]","[-0.9766,-0.34920000000000007,0.2156]",-40,74,1,0,0,response7disk,-9,7,1,0,0,rectangle,-9,7,1,0,0,2,3,0.0025,0,-9,7,1,0,0,0,17,17,58,1,58,first,,,,,,,,,,,,,,,,,,,,,,,,,,,,,,,,,,,,,,,,,,,,,,,,,,,,,,,,,,,,,,,,,,,,,,,,
