trials.thisRepN,trials.thisTrialN,trials.thisN,trials.thisIndex,trials.ran,Colourcodes,participant,session,date,expName,psychopyVersion,OS,frameRate,study_id,trials_4.thisRepN,trials_4.thisTrialN,trials_4.thisN,trials_4.thisIndex,trials_4.ran,StimulusPos,key_resp.keys,key_resp.rt,key_resp_2.keys,key_resp_2.rt,key_resp_15.keys,key_resp_15.rt,key_resp_17.keys,key_resp_17.rt,key_resp_9.keys,key_resp_9.rt,key_resp_10.keys,key_resp_10.rt,Circle1_col,Ecc,Circle2_col,similarity,response_time,mouse_5.x,mouse_5.y,mouse_5.leftButton,mouse_5.midButton,mouse_5.rightButton,mouse_5.clicked_name,mouse_10.x,mouse_10.y,mouse_10.leftButton,mouse_10.midButton,mouse_10.rightButton,mouse_10.clicked_name,mouse_7.x,mouse_7.y,mouse_7.leftButton,mouse_7.midButton,mouse_7.rightButton,catchnumberprac,mouse_6.x,mouse_6.y,mouse_6.leftButton,mouse_6.midButton,mouse_6.rightButton,duringprac.thisRepN,duringprac.thisTrialN,duringprac.thisN,duringprac.thisIndex,duringprac.ran,mouse_7.clicked_name,catchprac,mouse_6.clicked_name,key_resp_22.keys,key_resp_22.rt,Circle1_colour,Circle2_colour,mouse.x,mouse.y,mouse.leftButton,mouse.midButton,mouse.rightButton,mouse.clicked_name,mouse_2.x,mouse_2.y,mouse_2.leftButton,mouse_2.midButton,mouse_2.rightButton,mouse_2.clicked_name,mouse_3.x,mouse_3.y,mouse_3.leftButton,mouse_3.midButton,mouse_3.rightButton,catchresponse,catchnumber,response_time_catch,Catch,mouse_11.x,mouse_11.y,mouse_11.leftButton,mouse_11.midButton,mouse_11.rightButton,trials_2.thisRepN,trials_2.thisTrialN,trials_2.thisN,trials_2.thisIndex,trials_2.ran,Colourpair,Temporder,mouse_3.clicked_name,mouse_11.clicked_name,trials_3.thisRepN,trials_3.thisTrialN,trials_3.thisN,trials_3.thisIndex,trials_3.ran,key_resp_instr_Ishi.keys,key_resp_instr_Ishi.rt,Ishi_trial_keyresp.keys,Ishi_textbox.text,Ishi_mouse.x,Ishi_mouse.y,Ishi_mouse.leftButton,Ishi_mouse.midButton,Ishi_mouse.rightButton,Ishi_mouse.clicked_name,Ishi_loop.thisRepN,Ishi_loop.thisTrialN,Ishi_loop.thisN,Ishi_loop.thisIndex,Ishi_loop.ran,imageaddress,textbox.text,mouse_4.x,mouse_4.y,mouse_4.leftButton,mouse_4.midButton,mouse_4.rightButton,mouse_4.clicked_name,textbox_2.text,mouse_8.x,mouse_8.y,mouse_8.leftButton,mouse_8.midButton,mouse_8.rightButton,mouse_8.clicked_name,textbox_3.text,mouse_9.x,mouse_9.y,mouse_9.leftButton,mouse_9.midButton,mouse_9.rightButton,mouse_9.clicked_name,textbox_4.text,mouse_12.x,mouse_12.y,mouse_12.leftButton,mouse_12.midButton,mouse_12.rightButton,mouse_12.clicked_name,textbox_5.text,mouse_13.x,mouse_13.y,mouse_13.leftButton,mouse_13.midButton,mouse_13.rightButton,mouse_13.clicked_name,textbox_6.text,mouse_14.x,mouse_14.y,mouse_14.leftButton,mouse_14.midButton,mouse_14.rightButton,mouse_14.clicked_name,textbox_7.text,mouse_15.x,mouse_15.y,mouse_15.leftButton,mouse_15.midButton,mouse_15.rightButton,mouse_15.clicked_name
0,0,0,0,1,,615ac7f75335e45f5539ed36,62c53960614ceb72cf758a83,2022-07-06_09h29.58.830,Colour_Asymmetry_Pilot,2022.1.3,Win32,60.04202942,62c50e9c1127f2cd403a315f,,,,,,,,,,,,,,,,,,,,,,,,,,,,,,,,,,,,,,,,,,,,,,,,,,,,,,,,,,,,,,,,,,,,,,,,,,,,,,,,,,,,,,,,,,,,,,,,,,,,,,,,,,,,,,,,,,,,,,,,,,,,,,,,,,,,,,,,,,,,,,,,,,,,,,,,,,,,,,,,,,,
0,1,1,33,1,,615ac7f75335e45f5539ed36,62c53960614ceb72cf758a83,2022-07-06_09h29.58.830,Colour_Asymmetry_Pilot,2022.1.3,Win32,60.04202942,62c50e9c1127f2cd403a315f,,,,,,,,,,,,,,,,,,,,,,,,,,,,,,,,,,,,,,,,,,,,,,,,,,,,,,,,,,,,,,,,,,,,,,,,,,,,,,,,,,,,,,,,,,,,,,,,,,,,,,,,,,,,,,,,,,,,,,,,,,,,,,,,,,,,,,,,,,,,,,,,,,,,,,,,,,,,,,,,,,,
0,2,2,91,1,,615ac7f75335e45f5539ed36,62c53960614ceb72cf758a83,2022-07-06_09h29.58.830,Colour_Asymmetry_Pilot,2022.1.3,Win32,60.04202942,62c50e9c1127f2cd403a315f,,,,,,,,,,,,,,,,,,,,,,,,,,,,,,,,,,,,,,,,,,,,,,,,,,,,,,,,,,,,,,,,,,,,,,,,,,,,,,,,,,,,,,,,,,,,,,,,,,,,,,,,,,,,,,,,,,,,,,,,,,,,,,,,,,,,,,,,,,,,,,,,,,,,,,,,,,,,,,,,,,,
0,3,3,83,1,,615ac7f75335e45f5539ed36,62c53960614ceb72cf758a83,2022-07-06_09h29.58.830,Colour_Asymmetry_Pilot,2022.1.3,Win32,60.04202942,62c50e9c1127f2cd403a315f,,,,,,,,,,,,,,,,,,,,,,,,,,,,,,,,,,,,,,,,,,,,,,,,,,,,,,,,,,,,,,,,,,,,,,,,,,,,,,,,,,,,,,,,,,,,,,,,,,,,,,,,,,,,,,,,,,,,,,,,,,,,,,,,,,,,,,,,,,,,,,,,,,,,,,,,,,,,,,,,,,,
0,4,4,48,1,,615ac7f75335e45f5539ed36,62c53960614ceb72cf758a83,2022-07-06_09h29.58.830,Colour_Asymmetry_Pilot,2022.1.3,Win32,60.04202942,62c50e9c1127f2cd403a315f,,,,,,,,,,,,,,,,,,,,,,,,,,,,,,,,,,,,,,,,,,,,,,,,,,,,,,,,,,,,,,,,,,,,,,,,,,,,,,,,,,,,,,,,,,,,,,,,,,,,,,,,,,,,,,,,,,,,,,,,,,,,,,,,,,,,,,,,,,,,,,,,,,,,,,,,,,,,,,,,,,,
0,5,5,10,1,,615ac7f75335e45f5539ed36,62c53960614ceb72cf758a83,2022-07-06_09h29.58.830,Colour_Asymmetry_Pilot,2022.1.3,Win32,60.04202942,62c50e9c1127f2cd403a315f,,,,,,,,,,,,,,,,,,,,,,,,,,,,,,,,,,,,,,,,,,,,,,,,,,,,,,,,,,,,,,,,,,,,,,,,,,,,,,,,,,,,,,,,,,,,,,,,,,,,,,,,,,,,,,,,,,,,,,,,,,,,,,,,,,,,,,,,,,,,,,,,,,,,,,,,,,,,,,,,,,,
0,6,6,81,1,,615ac7f75335e45f5539ed36,62c53960614ceb72cf758a83,2022-07-06_09h29.58.830,Colour_Asymmetry_Pilot,2022.1.3,Win32,60.04202942,62c50e9c1127f2cd403a315f,,,,,,,,,,,,,,,,,,,,,,,,,,,,,,,,,,,,,,,,,,,,,,,,,,,,,,,,,,,,,,,,,,,,,,,,,,,,,,,,,,,,,,,,,,,,,,,,,,,,,,,,,,,,,,,,,,,,,,,,,,,,,,,,,,,,,,,,,,,,,,,,,,,,,,,,,,,,,,,,,,,
0,7,7,79,1,,615ac7f75335e45f5539ed36,62c53960614ceb72cf758a83,2022-07-06_09h29.58.830,Colour_Asymmetry_Pilot,2022.1.3,Win32,60.04202942,62c50e9c1127f2cd403a315f,,,,,,,,,,,,,,,,,,,,,,,,,,,,,,,,,,,,,,,,,,,,,,,,,,,,,,,,,,,,,,,,,,,,,,,,,,,,,,,,,,,,,,,,,,,,,,,,,,,,,,,,,,,,,,,,,,,,,,,,,,,,,,,,,,,,,,,,,,,,,,,,,,,,,,,,,,,,,,,,,,,
0,8,8,16,1,,615ac7f75335e45f5539ed36,62c53960614ceb72cf758a83,2022-07-06_09h29.58.830,Colour_Asymmetry_Pilot,2022.1.3,Win32,60.04202942,62c50e9c1127f2cd403a315f,,,,,,,,,,,,,,,,,,,,,,,,,,,,,,,,,,,,,,,,,,,,,,,,,,,,,,,,,,,,,,,,,,,,,,,,,,,,,,,,,,,,,,,,,,,,,,,,,,,,,,,,,,,,,,,,,,,,,,,,,,,,,,,,,,,,,,,,,,,,,,,,,,,,,,,,,,,,,,,,,,,
0,9,9,54,1,,615ac7f75335e45f5539ed36,62c53960614ceb72cf758a83,2022-07-06_09h29.58.830,Colour_Asymmetry_Pilot,2022.1.3,Win32,60.04202942,62c50e9c1127f2cd403a315f,,,,,,,,,,,,,,,,,,,,,,,,,,,,,,,,,,,,,,,,,,,,,,,,,,,,,,,,,,,,,,,,,,,,,,,,,,,,,,,,,,,,,,,,,,,,,,,,,,,,,,,,,,,,,,,,,,,,,,,,,,,,,,,,,,,,,,,,,,,,,,,,,,,,,,,,,,,,,,,,,,,
0,10,10,37,1,,615ac7f75335e45f5539ed36,62c53960614ceb72cf758a83,2022-07-06_09h29.58.830,Colour_Asymmetry_Pilot,2022.1.3,Win32,60.04202942,62c50e9c1127f2cd403a315f,,,,,,,,,,,,,,,,,,,,,,,,,,,,,,,,,,,,,,,,,,,,,,,,,,,,,,,,,,,,,,,,,,,,,,,,,,,,,,,,,,,,,,,,,,,,,,,,,,,,,,,,,,,,,,,,,,,,,,,,,,,,,,,,,,,,,,,,,,,,,,,,,,,,,,,,,,,,,,,,,,,
0,11,11,73,1,,615ac7f75335e45f5539ed36,62c53960614ceb72cf758a83,2022-07-06_09h29.58.830,Colour_Asymmetry_Pilot,2022.1.3,Win32,60.04202942,62c50e9c1127f2cd403a315f,,,,,,,,,,,,,,,,,,,,,,,,,,,,,,,,,,,,,,,,,,,,,,,,,,,,,,,,,,,,,,,,,,,,,,,,,,,,,,,,,,,,,,,,,,,,,,,,,,,,,,,,,,,,,,,,,,,,,,,,,,,,,,,,,,,,,,,,,,,,,,,,,,,,,,,,,,,,,,,,,,,
0,12,12,17,1,,615ac7f75335e45f5539ed36,62c53960614ceb72cf758a83,2022-07-06_09h29.58.830,Colour_Asymmetry_Pilot,2022.1.3,Win32,60.04202942,62c50e9c1127f2cd403a315f,,,,,,,,,,,,,,,,,,,,,,,,,,,,,,,,,,,,,,,,,,,,,,,,,,,,,,,,,,,,,,,,,,,,,,,,,,,,,,,,,,,,,,,,,,,,,,,,,,,,,,,,,,,,,,,,,,,,,,,,,,,,,,,,,,,,,,,,,,,,,,,,,,,,,,,,,,,,,,,,,,,
0,13,13,42,1,,615ac7f75335e45f5539ed36,62c53960614ceb72cf758a83,2022-07-06_09h29.58.830,Colour_Asymmetry_Pilot,2022.1.3,Win32,60.04202942,62c50e9c1127f2cd403a315f,,,,,,,,,,,,,,,,,,,,,,,,,,,,,,,,,,,,,,,,,,,,,,,,,,,,,,,,,,,,,,,,,,,,,,,,,,,,,,,,,,,,,,,,,,,,,,,,,,,,,,,,,,,,,,,,,,,,,,,,,,,,,,,,,,,,,,,,,,,,,,,,,,,,,,,,,,,,,,,,,,,
0,14,14,92,1,,615ac7f75335e45f5539ed36,62c53960614ceb72cf758a83,2022-07-06_09h29.58.830,Colour_Asymmetry_Pilot,2022.1.3,Win32,60.04202942,62c50e9c1127f2cd403a315f,,,,,,,,,,,,,,,,,,,,,,,,,,,,,,,,,,,,,,,,,,,,,,,,,,,,,,,,,,,,,,,,,,,,,,,,,,,,,,,,,,,,,,,,,,,,,,,,,,,,,,,,,,,,,,,,,,,,,,,,,,,,,,,,,,,,,,,,,,,,,,,,,,,,,,,,,,,,,,,,,,,
0,15,15,80,1,,615ac7f75335e45f5539ed36,62c53960614ceb72cf758a83,2022-07-06_09h29.58.830,Colour_Asymmetry_Pilot,2022.1.3,Win32,60.04202942,62c50e9c1127f2cd403a315f,,,,,,,,,,,,,,,,,,,,,,,,,,,,,,,,,,,,,,,,,,,,,,,,,,,,,,,,,,,,,,,,,,,,,,,,,,,,,,,,,,,,,,,,,,,,,,,,,,,,,,,,,,,,,,,,,,,,,,,,,,,,,,,,,,,,,,,,,,,,,,,,,,,,,,,,,,,,,,,,,,,
0,16,16,89,1,,615ac7f75335e45f5539ed36,62c53960614ceb72cf758a83,2022-07-06_09h29.58.830,Colour_Asymmetry_Pilot,2022.1.3,Win32,60.04202942,62c50e9c1127f2cd403a315f,,,,,,,,,,,,,,,,,,,,,,,,,,,,,,,,,,,,,,,,,,,,,,,,,,,,,,,,,,,,,,,,,,,,,,,,,,,,,,,,,,,,,,,,,,,,,,,,,,,,,,,,,,,,,,,,,,,,,,,,,,,,,,,,,,,,,,,,,,,,,,,,,,,,,,,,,,,,,,,,,,,
0,17,17,58,1,,615ac7f75335e45f5539ed36,62c53960614ceb72cf758a83,2022-07-06_09h29.58.830,Colour_Asymmetry_Pilot,2022.1.3,Win32,60.04202942,62c50e9c1127f2cd403a315f,,,,,,,,,,,,,,,,,,,,,,,,,,,,,,,,,,,,,,,,,,,,,,,,,,,,,,,,,,,,,,,,,,,,,,,,,,,,,,,,,,,,,,,,,,,,,,,,,,,,,,,,,,,,,,,,,,,,,,,,,,,,,,,,,,,,,,,,,,,,,,,,,,,,,,,,,,,,,,,,,,,
0,18,18,69,1,,615ac7f75335e45f5539ed36,62c53960614ceb72cf758a83,2022-07-06_09h29.58.830,Colour_Asymmetry_Pilot,2022.1.3,Win32,60.04202942,62c50e9c1127f2cd403a315f,,,,,,,,,,,,,,,,,,,,,,,,,,,,,,,,,,,,,,,,,,,,,,,,,,,,,,,,,,,,,,,,,,,,,,,,,,,,,,,,,,,,,,,,,,,,,,,,,,,,,,,,,,,,,,,,,,,,,,,,,,,,,,,,,,,,,,,,,,,,,,,,,,,,,,,,,,,,,,,,,,,
0,19,19,88,1,,615ac7f75335e45f5539ed36,62c53960614ceb72cf758a83,2022-07-06_09h29.58.830,Colour_Asymmetry_Pilot,2022.1.3,Win32,60.04202942,62c50e9c1127f2cd403a315f,,,,,,,,,,,,,,,,,,,,,,,,,,,,,,,,,,,,,,,,,,,,,,,,,,,,,,,,,,,,,,,,,,,,,,,,,,,,,,,,,,,,,,,,,,,,,,,,,,,,,,,,,,,,,,,,,,,,,,,,,,,,,,,,,,,,,,,,,,,,,,,,,,,,,,,,,,,,,,,,,,,
0,20,20,52,1,,615ac7f75335e45f5539ed36,62c53960614ceb72cf758a83,2022-07-06_09h29.58.830,Colour_Asymmetry_Pilot,2022.1.3,Win32,60.04202942,62c50e9c1127f2cd403a315f,,,,,,,,,,,,,,,,,,,,,,,,,,,,,,,,,,,,,,,,,,,,,,,,,,,,,,,,,,,,,,,,,,,,,,,,,,,,,,,,,,,,,,,,,,,,,,,,,,,,,,,,,,,,,,,,,,,,,,,,,,,,,,,,,,,,,,,,,,,,,,,,,,,,,,,,,,,,,,,,,,,
0,21,21,8,1,,615ac7f75335e45f5539ed36,62c53960614ceb72cf758a83,2022-07-06_09h29.58.830,Colour_Asymmetry_Pilot,2022.1.3,Win32,60.04202942,62c50e9c1127f2cd403a315f,,,,,,,,,,,,,,,,,,,,,,,,,,,,,,,,,,,,,,,,,,,,,,,,,,,,,,,,,,,,,,,,,,,,,,,,,,,,,,,,,,,,,,,,,,,,,,,,,,,,,,,,,,,,,,,,,,,,,,,,,,,,,,,,,,,,,,,,,,,,,,,,,,,,,,,,,,,,,,,,,,,
0,22,22,20,1,,615ac7f75335e45f5539ed36,62c53960614ceb72cf758a83,2022-07-06_09h29.58.830,Colour_Asymmetry_Pilot,2022.1.3,Win32,60.04202942,62c50e9c1127f2cd403a315f,,,,,,,,,,,,,,,,,,,,,,,,,,,,,,,,,,,,,,,,,,,,,,,,,,,,,,,,,,,,,,,,,,,,,,,,,,,,,,,,,,,,,,,,,,,,,,,,,,,,,,,,,,,,,,,,,,,,,,,,,,,,,,,,,,,,,,,,,,,,,,,,,,,,,,,,,,,,,,,,,,,
0,23,23,38,1,,615ac7f75335e45f5539ed36,62c53960614ceb72cf758a83,2022-07-06_09h29.58.830,Colour_Asymmetry_Pilot,2022.1.3,Win32,60.04202942,62c50e9c1127f2cd403a315f,,,,,,,,,,,,,,,,,,,,,,,,,,,,,,,,,,,,,,,,,,,,,,,,,,,,,,,,,,,,,,,,,,,,,,,,,,,,,,,,,,,,,,,,,,,,,,,,,,,,,,,,,,,,,,,,,,,,,,,,,,,,,,,,,,,,,,,,,,,,,,,,,,,,,,,,,,,,,,,,,,,
0,24,24,29,1,,615ac7f75335e45f5539ed36,62c53960614ceb72cf758a83,2022-07-06_09h29.58.830,Colour_Asymmetry_Pilot,2022.1.3,Win32,60.04202942,62c50e9c1127f2cd403a315f,,,,,,,,,,,,,,,,,,,,,,,,,,,,,,,,,,,,,,,,,,,,,,,,,,,,,,,,,,,,,,,,,,,,,,,,,,,,,,,,,,,,,,,,,,,,,,,,,,,,,,,,,,,,,,,,,,,,,,,,,,,,,,,,,,,,,,,,,,,,,,,,,,,,,,,,,,,,,,,,,,,
0,25,25,66,1,,615ac7f75335e45f5539ed36,62c53960614ceb72cf758a83,2022-07-06_09h29.58.830,Colour_Asymmetry_Pilot,2022.1.3,Win32,60.04202942,62c50e9c1127f2cd403a315f,,,,,,,,,,,,,,,,,,,,,,,,,,,,,,,,,,,,,,,,,,,,,,,,,,,,,,,,,,,,,,,,,,,,,,,,,,,,,,,,,,,,,,,,,,,,,,,,,,,,,,,,,,,,,,,,,,,,,,,,,,,,,,,,,,,,,,,,,,,,,,,,,,,,,,,,,,,,,,,,,,,
0,26,26,84,1,,615ac7f75335e45f5539ed36,62c53960614ceb72cf758a83,2022-07-06_09h29.58.830,Colour_Asymmetry_Pilot,2022.1.3,Win32,60.04202942,62c50e9c1127f2cd403a315f,,,,,,,,,,,,,,,,,,,,,,,,,,,,,,,,,,,,,,,,,,,,,,,,,,,,,,,,,,,,,,,,,,,,,,,,,,,,,,,,,,,,,,,,,,,,,,,,,,,,,,,,,,,,,,,,,,,,,,,,,,,,,,,,,,,,,,,,,,,,,,,,,,,,,,,,,,,,,,,,,,,
0,27,27,35,1,,615ac7f75335e45f5539ed36,62c53960614ceb72cf758a83,2022-07-06_09h29.58.830,Colour_Asymmetry_Pilot,2022.1.3,Win32,60.04202942,62c50e9c1127f2cd403a315f,,,,,,,,,,,,,,,,,,,,,,,,,,,,,,,,,,,,,,,,,,,,,,,,,,,,,,,,,,,,,,,,,,,,,,,,,,,,,,,,,,,,,,,,,,,,,,,,,,,,,,,,,,,,,,,,,,,,,,,,,,,,,,,,,,,,,,,,,,,,,,,,,,,,,,,,,,,,,,,,,,,
0,28,28,49,1,,615ac7f75335e45f5539ed36,62c53960614ceb72cf758a83,2022-07-06_09h29.58.830,Colour_Asymmetry_Pilot,2022.1.3,Win32,60.04202942,62c50e9c1127f2cd403a315f,,,,,,,,,,,,,,,,,,,,,,,,,,,,,,,,,,,,,,,,,,,,,,,,,,,,,,,,,,,,,,,,,,,,,,,,,,,,,,,,,,,,,,,,,,,,,,,,,,,,,,,,,,,,,,,,,,,,,,,,,,,,,,,,,,,,,,,,,,,,,,,,,,,,,,,,,,,,,,,,,,,
0,29,29,46,1,,615ac7f75335e45f5539ed36,62c53960614ceb72cf758a83,2022-07-06_09h29.58.830,Colour_Asymmetry_Pilot,2022.1.3,Win32,60.04202942,62c50e9c1127f2cd403a315f,,,,,,,,,,,,,,,,,,,,,,,,,,,,,,,,,,,,,,,,,,,,,,,,,,,,,,,,,,,,,,,,,,,,,,,,,,,,,,,,,,,,,,,,,,,,,,,,,,,,,,,,,,,,,,,,,,,,,,,,,,,,,,,,,,,,,,,,,,,,,,,,,,,,,,,,,,,,,,,,,,,
0,30,30,18,1,,615ac7f75335e45f5539ed36,62c53960614ceb72cf758a83,2022-07-06_09h29.58.830,Colour_Asymmetry_Pilot,2022.1.3,Win32,60.04202942,62c50e9c1127f2cd403a315f,,,,,,,,,,,,,,,,,,,,,,,,,,,,,,,,,,,,,,,,,,,,,,,,,,,,,,,,,,,,,,,,,,,,,,,,,,,,,,,,,,,,,,,,,,,,,,,,,,,,,,,,,,,,,,,,,,,,,,,,,,,,,,,,,,,,,,,,,,,,,,,,,,,,,,,,,,,,,,,,,,,
0,31,31,25,1,,615ac7f75335e45f5539ed36,62c53960614ceb72cf758a83,2022-07-06_09h29.58.830,Colour_Asymmetry_Pilot,2022.1.3,Win32,60.04202942,62c50e9c1127f2cd403a315f,,,,,,,,,,,,,,,,,,,,,,,,,,,,,,,,,,,,,,,,,,,,,,,,,,,,,,,,,,,,,,,,,,,,,,,,,,,,,,,,,,,,,,,,,,,,,,,,,,,,,,,,,,,,,,,,,,,,,,,,,,,,,,,,,,,,,,,,,,,,,,,,,,,,,,,,,,,,,,,,,,,
0,32,32,76,1,,615ac7f75335e45f5539ed36,62c53960614ceb72cf758a83,2022-07-06_09h29.58.830,Colour_Asymmetry_Pilot,2022.1.3,Win32,60.04202942,62c50e9c1127f2cd403a315f,,,,,,,,,,,,,,,,,,,,,,,,,,,,,,,,,,,,,,,,,,,,,,,,,,,,,,,,,,,,,,,,,,,,,,,,,,,,,,,,,,,,,,,,,,,,,,,,,,,,,,,,,,,,,,,,,,,,,,,,,,,,,,,,,,,,,,,,,,,,,,,,,,,,,,,,,,,,,,,,,,,
0,33,33,57,1,,615ac7f75335e45f5539ed36,62c53960614ceb72cf758a83,2022-07-06_09h29.58.830,Colour_Asymmetry_Pilot,2022.1.3,Win32,60.04202942,62c50e9c1127f2cd403a315f,,,,,,,,,,,,,,,,,,,,,,,,,,,,,,,,,,,,,,,,,,,,,,,,,,,,,,,,,,,,,,,,,,,,,,,,,,,,,,,,,,,,,,,,,,,,,,,,,,,,,,,,,,,,,,,,,,,,,,,,,,,,,,,,,,,,,,,,,,,,,,,,,,,,,,,,,,,,,,,,,,,
0,34,34,34,1,,615ac7f75335e45f5539ed36,62c53960614ceb72cf758a83,2022-07-06_09h29.58.830,Colour_Asymmetry_Pilot,2022.1.3,Win32,60.04202942,62c50e9c1127f2cd403a315f,,,,,,,,,,,,,,,,,,,,,,,,,,,,,,,,,,,,,,,,,,,,,,,,,,,,,,,,,,,,,,,,,,,,,,,,,,,,,,,,,,,,,,,,,,,,,,,,,,,,,,,,,,,,,,,,,,,,,,,,,,,,,,,,,,,,,,,,,,,,,,,,,,,,,,,,,,,,,,,,,,,
0,35,35,28,1,,615ac7f75335e45f5539ed36,62c53960614ceb72cf758a83,2022-07-06_09h29.58.830,Colour_Asymmetry_Pilot,2022.1.3,Win32,60.04202942,62c50e9c1127f2cd403a315f,,,,,,,,,,,,,,,,,,,,,,,,,,,,,,,,,,,,,,,,,,,,,,,,,,,,,,,,,,,,,,,,,,,,,,,,,,,,,,,,,,,,,,,,,,,,,,,,,,,,,,,,,,,,,,,,,,,,,,,,,,,,,,,,,,,,,,,,,,,,,,,,,,,,,,,,,,,,,,,,,,,
0,36,36,6,1,,615ac7f75335e45f5539ed36,62c53960614ceb72cf758a83,2022-07-06_09h29.58.830,Colour_Asymmetry_Pilot,2022.1.3,Win32,60.04202942,62c50e9c1127f2cd403a315f,,,,,,,,,,,,,,,,,,,,,,,,,,,,,,,,,,,,,,,,,,,,,,,,,,,,,,,,,,,,,,,,,,,,,,,,,,,,,,,,,,,,,,,,,,,,,,,,,,,,,,,,,,,,,,,,,,,,,,,,,,,,,,,,,,,,,,,,,,,,,,,,,,,,,,,,,,,,,,,,,,,
0,37,37,87,1,,615ac7f75335e45f5539ed36,62c53960614ceb72cf758a83,2022-07-06_09h29.58.830,Colour_Asymmetry_Pilot,2022.1.3,Win32,60.04202942,62c50e9c1127f2cd403a315f,,,,,,,,,,,,,,,,,,,,,,,,,,,,,,,,,,,,,,,,,,,,,,,,,,,,,,,,,,,,,,,,,,,,,,,,,,,,,,,,,,,,,,,,,,,,,,,,,,,,,,,,,,,,,,,,,,,,,,,,,,,,,,,,,,,,,,,,,,,,,,,,,,,,,,,,,,,,,,,,,,,
0,38,38,40,1,,615ac7f75335e45f5539ed36,62c53960614ceb72cf758a83,2022-07-06_09h29.58.830,Colour_Asymmetry_Pilot,2022.1.3,Win32,60.04202942,62c50e9c1127f2cd403a315f,,,,,,,,,,,,,,,,,,,,,,,,,,,,,,,,,,,,,,,,,,,,,,,,,,,,,,,,,,,,,,,,,,,,,,,,,,,,,,,,,,,,,,,,,,,,,,,,,,,,,,,,,,,,,,,,,,,,,,,,,,,,,,,,,,,,,,,,,,,,,,,,,,,,,,,,,,,,,,,,,,,
0,39,39,82,1,,615ac7f75335e45f5539ed36,62c53960614ceb72cf758a83,2022-07-06_09h29.58.830,Colour_Asymmetry_Pilot,2022.1.3,Win32,60.04202942,62c50e9c1127f2cd403a315f,,,,,,,,,,,,,,,,,,,,,,,,,,,,,,,,,,,,,,,,,,,,,,,,,,,,,,,,,,,,,,,,,,,,,,,,,,,,,,,,,,,,,,,,,,,,,,,,,,,,,,,,,,,,,,,,,,,,,,,,,,,,,,,,,,,,,,,,,,,,,,,,,,,,,,,,,,,,,,,,,,,
0,40,40,78,1,,615ac7f75335e45f5539ed36,62c53960614ceb72cf758a83,2022-07-06_09h29.58.830,Colour_Asymmetry_Pilot,2022.1.3,Win32,60.04202942,62c50e9c1127f2cd403a315f,,,,,,,,,,,,,,,,,,,,,,,,,,,,,,,,,,,,,,,,,,,,,,,,,,,,,,,,,,,,,,,,,,,,,,,,,,,,,,,,,,,,,,,,,,,,,,,,,,,,,,,,,,,,,,,,,,,,,,,,,,,,,,,,,,,,,,,,,,,,,,,,,,,,,,,,,,,,,,,,,,,
0,41,41,32,1,,615ac7f75335e45f5539ed36,62c53960614ceb72cf758a83,2022-07-06_09h29.58.830,Colour_Asymmetry_Pilot,2022.1.3,Win32,60.04202942,62c50e9c1127f2cd403a315f,,,,,,,,,,,,,,,,,,,,,,,,,,,,,,,,,,,,,,,,,,,,,,,,,,,,,,,,,,,,,,,,,,,,,,,,,,,,,,,,,,,,,,,,,,,,,,,,,,,,,,,,,,,,,,,,,,,,,,,,,,,,,,,,,,,,,,,,,,,,,,,,,,,,,,,,,,,,,,,,,,,
0,42,42,43,1,,615ac7f75335e45f5539ed36,62c53960614ceb72cf758a83,2022-07-06_09h29.58.830,Colour_Asymmetry_Pilot,2022.1.3,Win32,60.04202942,62c50e9c1127f2cd403a315f,,,,,,,,,,,,,,,,,,,,,,,,,,,,,,,,,,,,,,,,,,,,,,,,,,,,,,,,,,,,,,,,,,,,,,,,,,,,,,,,,,,,,,,,,,,,,,,,,,,,,,,,,,,,,,,,,,,,,,,,,,,,,,,,,,,,,,,,,,,,,,,,,,,,,,,,,,,,,,,,,,,
0,43,43,24,1,,615ac7f75335e45f5539ed36,62c53960614ceb72cf758a83,2022-07-06_09h29.58.830,Colour_Asymmetry_Pilot,2022.1.3,Win32,60.04202942,62c50e9c1127f2cd403a315f,,,,,,,,,,,,,,,,,,,,,,,,,,,,,,,,,,,,,,,,,,,,,,,,,,,,,,,,,,,,,,,,,,,,,,,,,,,,,,,,,,,,,,,,,,,,,,,,,,,,,,,,,,,,,,,,,,,,,,,,,,,,,,,,,,,,,,,,,,,,,,,,,,,,,,,,,,,,,,,,,,,
0,44,44,5,1,,615ac7f75335e45f5539ed36,62c53960614ceb72cf758a83,2022-07-06_09h29.58.830,Colour_Asymmetry_Pilot,2022.1.3,Win32,60.04202942,62c50e9c1127f2cd403a315f,,,,,,,,,,,,,,,,,,,,,,,,,,,,,,,,,,,,,,,,,,,,,,,,,,,,,,,,,,,,,,,,,,,,,,,,,,,,,,,,,,,,,,,,,,,,,,,,,,,,,,,,,,,,,,,,,,,,,,,,,,,,,,,,,,,,,,,,,,,,,,,,,,,,,,,,,,,,,,,,,,,
0,45,45,45,1,,615ac7f75335e45f5539ed36,62c53960614ceb72cf758a83,2022-07-06_09h29.58.830,Colour_Asymmetry_Pilot,2022.1.3,Win32,60.04202942,62c50e9c1127f2cd403a315f,,,,,,,,,,,,,,,,,,,,,,,,,,,,,,,,,,,,,,,,,,,,,,,,,,,,,,,,,,,,,,,,,,,,,,,,,,,,,,,,,,,,,,,,,,,,,,,,,,,,,,,,,,,,,,,,,,,,,,,,,,,,,,,,,,,,,,,,,,,,,,,,,,,,,,,,,,,,,,,,,,,
0,46,46,41,1,,615ac7f75335e45f5539ed36,62c53960614ceb72cf758a83,2022-07-06_09h29.58.830,Colour_Asymmetry_Pilot,2022.1.3,Win32,60.04202942,62c50e9c1127f2cd403a315f,,,,,,,,,,,,,,,,,,,,,,,,,,,,,,,,,,,,,,,,,,,,,,,,,,,,,,,,,,,,,,,,,,,,,,,,,,,,,,,,,,,,,,,,,,,,,,,,,,,,,,,,,,,,,,,,,,,,,,,,,,,,,,,,,,,,,,,,,,,,,,,,,,,,,,,,,,,,,,,,,,,
0,47,47,2,1,,615ac7f75335e45f5539ed36,62c53960614ceb72cf758a83,2022-07-06_09h29.58.830,Colour_Asymmetry_Pilot,2022.1.3,Win32,60.04202942,62c50e9c1127f2cd403a315f,,,,,,,,,,,,,,,,,,,,,,,,,,,,,,,,,,,,,,,,,,,,,,,,,,,,,,,,,,,,,,,,,,,,,,,,,,,,,,,,,,,,,,,,,,,,,,,,,,,,,,,,,,,,,,,,,,,,,,,,,,,,,,,,,,,,,,,,,,,,,,,,,,,,,,,,,,,,,,,,,,,
0,48,48,1,1,,615ac7f75335e45f5539ed36,62c53960614ceb72cf758a83,2022-07-06_09h29.58.830,Colour_Asymmetry_Pilot,2022.1.3,Win32,60.04202942,62c50e9c1127f2cd403a315f,,,,,,,,,,,,,,,,,,,,,,,,,,,,,,,,,,,,,,,,,,,,,,,,,,,,,,,,,,,,,,,,,,,,,,,,,,,,,,,,,,,,,,,,,,,,,,,,,,,,,,,,,,,,,,,,,,,,,,,,,,,,,,,,,,,,,,,,,,,,,,,,,,,,,,,,,,,,,,,,,,,
0,49,49,61,1,,615ac7f75335e45f5539ed36,62c53960614ceb72cf758a83,2022-07-06_09h29.58.830,Colour_Asymmetry_Pilot,2022.1.3,Win32,60.04202942,62c50e9c1127f2cd403a315f,,,,,,,,,,,,,,,,,,,,,,,,,,,,,,,,,,,,,,,,,,,,,,,,,,,,,,,,,,,,,,,,,,,,,,,,,,,,,,,,,,,,,,,,,,,,,,,,,,,,,,,,,,,,,,,,,,,,,,,,,,,,,,,,,,,,,,,,,,,,,,,,,,,,,,,,,,,,,,,,,,,
0,50,50,44,1,,615ac7f75335e45f5539ed36,62c53960614ceb72cf758a83,2022-07-06_09h29.58.830,Colour_Asymmetry_Pilot,2022.1.3,Win32,60.04202942,62c50e9c1127f2cd403a315f,,,,,,,,,,,,,,,,,,,,,,,,,,,,,,,,,,,,,,,,,,,,,,,,,,,,,,,,,,,,,,,,,,,,,,,,,,,,,,,,,,,,,,,,,,,,,,,,,,,,,,,,,,,,,,,,,,,,,,,,,,,,,,,,,,,,,,,,,,,,,,,,,,,,,,,,,,,,,,,,,,,
0,51,51,13,1,,615ac7f75335e45f5539ed36,62c53960614ceb72cf758a83,2022-07-06_09h29.58.830,Colour_Asymmetry_Pilot,2022.1.3,Win32,60.04202942,62c50e9c1127f2cd403a315f,,,,,,,,,,,,,,,,,,,,,,,,,,,,,,,,,,,,,,,,,,,,,,,,,,,,,,,,,,,,,,,,,,,,,,,,,,,,,,,,,,,,,,,,,,,,,,,,,,,,,,,,,,,,,,,,,,,,,,,,,,,,,,,,,,,,,,,,,,,,,,,,,,,,,,,,,,,,,,,,,,,
0,52,52,75,1,,615ac7f75335e45f5539ed36,62c53960614ceb72cf758a83,2022-07-06_09h29.58.830,Colour_Asymmetry_Pilot,2022.1.3,Win32,60.04202942,62c50e9c1127f2cd403a315f,,,,,,,,,,,,,,,,,,,,,,,,,,,,,,,,,,,,,,,,,,,,,,,,,,,,,,,,,,,,,,,,,,,,,,,,,,,,,,,,,,,,,,,,,,,,,,,,,,,,,,,,,,,,,,,,,,,,,,,,,,,,,,,,,,,,,,,,,,,,,,,,,,,,,,,,,,,,,,,,,,,
0,53,53,70,1,,615ac7f75335e45f5539ed36,62c53960614ceb72cf758a83,2022-07-06_09h29.58.830,Colour_Asymmetry_Pilot,2022.1.3,Win32,60.04202942,62c50e9c1127f2cd403a315f,,,,,,,,,,,,,,,,,,,,,,,,,,,,,,,,,,,,,,,,,,,,,,,,,,,,,,,,,,,,,,,,,,,,,,,,,,,,,,,,,,,,,,,,,,,,,,,,,,,,,,,,,,,,,,,,,,,,,,,,,,,,,,,,,,,,,,,,,,,,,,,,,,,,,,,,,,,,,,,,,,,
0,54,54,68,1,,615ac7f75335e45f5539ed36,62c53960614ceb72cf758a83,2022-07-06_09h29.58.830,Colour_Asymmetry_Pilot,2022.1.3,Win32,60.04202942,62c50e9c1127f2cd403a315f,,,,,,,,,,,,,,,,,,,,,,,,,,,,,,,,,,,,,,,,,,,,,,,,,,,,,,,,,,,,,,,,,,,,,,,,,,,,,,,,,,,,,,,,,,,,,,,,,,,,,,,,,,,,,,,,,,,,,,,,,,,,,,,,,,,,,,,,,,,,,,,,,,,,,,,,,,,,,,,,,,,
0,55,55,26,1,,615ac7f75335e45f5539ed36,62c53960614ceb72cf758a83,2022-07-06_09h29.58.830,Colour_Asymmetry_Pilot,2022.1.3,Win32,60.04202942,62c50e9c1127f2cd403a315f,,,,,,,,,,,,,,,,,,,,,,,,,,,,,,,,,,,,,,,,,,,,,,,,,,,,,,,,,,,,,,,,,,,,,,,,,,,,,,,,,,,,,,,,,,,,,,,,,,,,,,,,,,,,,,,,,,,,,,,,,,,,,,,,,,,,,,,,,,,,,,,,,,,,,,,,,,,,,,,,,,,
0,56,56,74,1,,615ac7f75335e45f5539ed36,62c53960614ceb72cf758a83,2022-07-06_09h29.58.830,Colour_Asymmetry_Pilot,2022.1.3,Win32,60.04202942,62c50e9c1127f2cd403a315f,,,,,,,,,,,,,,,,,,,,,,,,,,,,,,,,,,,,,,,,,,,,,,,,,,,,,,,,,,,,,,,,,,,,,,,,,,,,,,,,,,,,,,,,,,,,,,,,,,,,,,,,,,,,,,,,,,,,,,,,,,,,,,,,,,,,,,,,,,,,,,,,,,,,,,,,,,,,,,,,,,,
0,57,57,72,1,,615ac7f75335e45f5539ed36,62c53960614ceb72cf758a83,2022-07-06_09h29.58.830,Colour_Asymmetry_Pilot,2022.1.3,Win32,60.04202942,62c50e9c1127f2cd403a315f,,,,,,,,,,,,,,,,,,,,,,,,,,,,,,,,,,,,,,,,,,,,,,,,,,,,,,,,,,,,,,,,,,,,,,,,,,,,,,,,,,,,,,,,,,,,,,,,,,,,,,,,,,,,,,,,,,,,,,,,,,,,,,,,,,,,,,,,,,,,,,,,,,,,,,,,,,,,,,,,,,,
0,58,58,27,1,,615ac7f75335e45f5539ed36,62c53960614ceb72cf758a83,2022-07-06_09h29.58.830,Colour_Asymmetry_Pilot,2022.1.3,Win32,60.04202942,62c50e9c1127f2cd403a315f,,,,,,,,,,,,,,,,,,,,,,,,,,,,,,,,,,,,,,,,,,,,,,,,,,,,,,,,,,,,,,,,,,,,,,,,,,,,,,,,,,,,,,,,,,,,,,,,,,,,,,,,,,,,,,,,,,,,,,,,,,,,,,,,,,,,,,,,,,,,,,,,,,,,,,,,,,,,,,,,,,,
0,59,59,39,1,,615ac7f75335e45f5539ed36,62c53960614ceb72cf758a83,2022-07-06_09h29.58.830,Colour_Asymmetry_Pilot,2022.1.3,Win32,60.04202942,62c50e9c1127f2cd403a315f,,,,,,,,,,,,,,,,,,,,,,,,,,,,,,,,,,,,,,,,,,,,,,,,,,,,,,,,,,,,,,,,,,,,,,,,,,,,,,,,,,,,,,,,,,,,,,,,,,,,,,,,,,,,,,,,,,,,,,,,,,,,,,,,,,,,,,,,,,,,,,,,,,,,,,,,,,,,,,,,,,,
0,60,60,14,1,,615ac7f75335e45f5539ed36,62c53960614ceb72cf758a83,2022-07-06_09h29.58.830,Colour_Asymmetry_Pilot,2022.1.3,Win32,60.04202942,62c50e9c1127f2cd403a315f,,,,,,,,,,,,,,,,,,,,,,,,,,,,,,,,,,,,,,,,,,,,,,,,,,,,,,,,,,,,,,,,,,,,,,,,,,,,,,,,,,,,,,,,,,,,,,,,,,,,,,,,,,,,,,,,,,,,,,,,,,,,,,,,,,,,,,,,,,,,,,,,,,,,,,,,,,,,,,,,,,,
0,61,61,85,1,,615ac7f75335e45f5539ed36,62c53960614ceb72cf758a83,2022-07-06_09h29.58.830,Colour_Asymmetry_Pilot,2022.1.3,Win32,60.04202942,62c50e9c1127f2cd403a315f,,,,,,,,,,,,,,,,,,,,,,,,,,,,,,,,,,,,,,,,,,,,,,,,,,,,,,,,,,,,,,,,,,,,,,,,,,,,,,,,,,,,,,,,,,,,,,,,,,,,,,,,,,,,,,,,,,,,,,,,,,,,,,,,,,,,,,,,,,,,,,,,,,,,,,,,,,,,,,,,,,,
0,62,62,30,1,,615ac7f75335e45f5539ed36,62c53960614ceb72cf758a83,2022-07-06_09h29.58.830,Colour_Asymmetry_Pilot,2022.1.3,Win32,60.04202942,62c50e9c1127f2cd403a315f,,,,,,,,,,,,,,,,,,,,,,,,,,,,,,,,,,,,,,,,,,,,,,,,,,,,,,,,,,,,,,,,,,,,,,,,,,,,,,,,,,,,,,,,,,,,,,,,,,,,,,,,,,,,,,,,,,,,,,,,,,,,,,,,,,,,,,,,,,,,,,,,,,,,,,,,,,,,,,,,,,,
0,63,63,56,1,,615ac7f75335e45f5539ed36,62c53960614ceb72cf758a83,2022-07-06_09h29.58.830,Colour_Asymmetry_Pilot,2022.1.3,Win32,60.04202942,62c50e9c1127f2cd403a315f,,,,,,,,,,,,,,,,,,,,,,,,,,,,,,,,,,,,,,,,,,,,,,,,,,,,,,,,,,,,,,,,,,,,,,,,,,,,,,,,,,,,,,,,,,,,,,,,,,,,,,,,,,,,,,,,,,,,,,,,,,,,,,,,,,,,,,,,,,,,,,,,,,,,,,,,,,,,,,,,,,,
0,64,64,62,1,,615ac7f75335e45f5539ed36,62c53960614ceb72cf758a83,2022-07-06_09h29.58.830,Colour_Asymmetry_Pilot,2022.1.3,Win32,60.04202942,62c50e9c1127f2cd403a315f,,,,,,,,,,,,,,,,,,,,,,,,,,,,,,,,,,,,,,,,,,,,,,,,,,,,,,,,,,,,,,,,,,,,,,,,,,,,,,,,,,,,,,,,,,,,,,,,,,,,,,,,,,,,,,,,,,,,,,,,,,,,,,,,,,,,,,,,,,,,,,,,,,,,,,,,,,,,,,,,,,,
0,65,65,36,1,,615ac7f75335e45f5539ed36,62c53960614ceb72cf758a83,2022-07-06_09h29.58.830,Colour_Asymmetry_Pilot,2022.1.3,Win32,60.04202942,62c50e9c1127f2cd403a315f,,,,,,,,,,,,,,,,,,,,,,,,,,,,,,,,,,,,,,,,,,,,,,,,,,,,,,,,,,,,,,,,,,,,,,,,,,,,,,,,,,,,,,,,,,,,,,,,,,,,,,,,,,,,,,,,,,,,,,,,,,,,,,,,,,,,,,,,,,,,,,,,,,,,,,,,,,,,,,,,,,,
0,66,66,9,1,,615ac7f75335e45f5539ed36,62c53960614ceb72cf758a83,2022-07-06_09h29.58.830,Colour_Asymmetry_Pilot,2022.1.3,Win32,60.04202942,62c50e9c1127f2cd403a315f,,,,,,,,,,,,,,,,,,,,,,,,,,,,,,,,,,,,,,,,,,,,,,,,,,,,,,,,,,,,,,,,,,,,,,,,,,,,,,,,,,,,,,,,,,,,,,,,,,,,,,,,,,,,,,,,,,,,,,,,,,,,,,,,,,,,,,,,,,,,,,,,,,,,,,,,,,,,,,,,,,,
0,67,67,65,1,,615ac7f75335e45f5539ed36,62c53960614ceb72cf758a83,2022-07-06_09h29.58.830,Colour_Asymmetry_Pilot,2022.1.3,Win32,60.04202942,62c50e9c1127f2cd403a315f,,,,,,,,,,,,,,,,,,,,,,,,,,,,,,,,,,,,,,,,,,,,,,,,,,,,,,,,,,,,,,,,,,,,,,,,,,,,,,,,,,,,,,,,,,,,,,,,,,,,,,,,,,,,,,,,,,,,,,,,,,,,,,,,,,,,,,,,,,,,,,,,,,,,,,,,,,,,,,,,,,,
0,68,68,3,1,,615ac7f75335e45f5539ed36,62c53960614ceb72cf758a83,2022-07-06_09h29.58.830,Colour_Asymmetry_Pilot,2022.1.3,Win32,60.04202942,62c50e9c1127f2cd403a315f,,,,,,,,,,,,,,,,,,,,,,,,,,,,,,,,,,,,,,,,,,,,,,,,,,,,,,,,,,,,,,,,,,,,,,,,,,,,,,,,,,,,,,,,,,,,,,,,,,,,,,,,,,,,,,,,,,,,,,,,,,,,,,,,,,,,,,,,,,,,,,,,,,,,,,,,,,,,,,,,,,,
0,69,69,86,1,,615ac7f75335e45f5539ed36,62c53960614ceb72cf758a83,2022-07-06_09h29.58.830,Colour_Asymmetry_Pilot,2022.1.3,Win32,60.04202942,62c50e9c1127f2cd403a315f,,,,,,,,,,,,,,,,,,,,,,,,,,,,,,,,,,,,,,,,,,,,,,,,,,,,,,,,,,,,,,,,,,,,,,,,,,,,,,,,,,,,,,,,,,,,,,,,,,,,,,,,,,,,,,,,,,,,,,,,,,,,,,,,,,,,,,,,,,,,,,,,,,,,,,,,,,,,,,,,,,,
0,70,70,55,1,,615ac7f75335e45f5539ed36,62c53960614ceb72cf758a83,2022-07-06_09h29.58.830,Colour_Asymmetry_Pilot,2022.1.3,Win32,60.04202942,62c50e9c1127f2cd403a315f,,,,,,,,,,,,,,,,,,,,,,,,,,,,,,,,,,,,,,,,,,,,,,,,,,,,,,,,,,,,,,,,,,,,,,,,,,,,,,,,,,,,,,,,,,,,,,,,,,,,,,,,,,,,,,,,,,,,,,,,,,,,,,,,,,,,,,,,,,,,,,,,,,,,,,,,,,,,,,,,,,,
0,71,71,22,1,,615ac7f75335e45f5539ed36,62c53960614ceb72cf758a83,2022-07-06_09h29.58.830,Colour_Asymmetry_Pilot,2022.1.3,Win32,60.04202942,62c50e9c1127f2cd403a315f,,,,,,,,,,,,,,,,,,,,,,,,,,,,,,,,,,,,,,,,,,,,,,,,,,,,,,,,,,,,,,,,,,,,,,,,,,,,,,,,,,,,,,,,,,,,,,,,,,,,,,,,,,,,,,,,,,,,,,,,,,,,,,,,,,,,,,,,,,,,,,,,,,,,,,,,,,,,,,,,,,,
0,72,72,53,1,,615ac7f75335e45f5539ed36,62c53960614ceb72cf758a83,2022-07-06_09h29.58.830,Colour_Asymmetry_Pilot,2022.1.3,Win32,60.04202942,62c50e9c1127f2cd403a315f,,,,,,,,,,,,,,,,,,,,,,,,,,,,,,,,,,,,,,,,,,,,,,,,,,,,,,,,,,,,,,,,,,,,,,,,,,,,,,,,,,,,,,,,,,,,,,,,,,,,,,,,,,,,,,,,,,,,,,,,,,,,,,,,,,,,,,,,,,,,,,,,,,,,,,,,,,,,,,,,,,,
0,73,73,15,1,,615ac7f75335e45f5539ed36,62c53960614ceb72cf758a83,2022-07-06_09h29.58.830,Colour_Asymmetry_Pilot,2022.1.3,Win32,60.04202942,62c50e9c1127f2cd403a315f,,,,,,,,,,,,,,,,,,,,,,,,,,,,,,,,,,,,,,,,,,,,,,,,,,,,,,,,,,,,,,,,,,,,,,,,,,,,,,,,,,,,,,,,,,,,,,,,,,,,,,,,,,,,,,,,,,,,,,,,,,,,,,,,,,,,,,,,,,,,,,,,,,,,,,,,,,,,,,,,,,,
0,74,74,31,1,,615ac7f75335e45f5539ed36,62c53960614ceb72cf758a83,2022-07-06_09h29.58.830,Colour_Asymmetry_Pilot,2022.1.3,Win32,60.04202942,62c50e9c1127f2cd403a315f,,,,,,,,,,,,,,,,,,,,,,,,,,,,,,,,,,,,,,,,,,,,,,,,,,,,,,,,,,,,,,,,,,,,,,,,,,,,,,,,,,,,,,,,,,,,,,,,,,,,,,,,,,,,,,,,,,,,,,,,,,,,,,,,,,,,,,,,,,,,,,,,,,,,,,,,,,,,,,,,,,,
0,75,75,11,1,,615ac7f75335e45f5539ed36,62c53960614ceb72cf758a83,2022-07-06_09h29.58.830,Colour_Asymmetry_Pilot,2022.1.3,Win32,60.04202942,62c50e9c1127f2cd403a315f,,,,,,,,,,,,,,,,,,,,,,,,,,,,,,,,,,,,,,,,,,,,,,,,,,,,,,,,,,,,,,,,,,,,,,,,,,,,,,,,,,,,,,,,,,,,,,,,,,,,,,,,,,,,,,,,,,,,,,,,,,,,,,,,,,,,,,,,,,,,,,,,,,,,,,,,,,,,,,,,,,,
0,76,76,4,1,,615ac7f75335e45f5539ed36,62c53960614ceb72cf758a83,2022-07-06_09h29.58.830,Colour_Asymmetry_Pilot,2022.1.3,Win32,60.04202942,62c50e9c1127f2cd403a315f,,,,,,,,,,,,,,,,,,,,,,,,,,,,,,,,,,,,,,,,,,,,,,,,,,,,,,,,,,,,,,,,,,,,,,,,,,,,,,,,,,,,,,,,,,,,,,,,,,,,,,,,,,,,,,,,,,,,,,,,,,,,,,,,,,,,,,,,,,,,,,,,,,,,,,,,,,,,,,,,,,,
0,77,77,59,1,,615ac7f75335e45f5539ed36,62c53960614ceb72cf758a83,2022-07-06_09h29.58.830,Colour_Asymmetry_Pilot,2022.1.3,Win32,60.04202942,62c50e9c1127f2cd403a315f,,,,,,,,,,,,,,,,,,,,,,,,,,,,,,,,,,,,,,,,,,,,,,,,,,,,,,,,,,,,,,,,,,,,,,,,,,,,,,,,,,,,,,,,,,,,,,,,,,,,,,,,,,,,,,,,,,,,,,,,,,,,,,,,,,,,,,,,,,,,,,,,,,,,,,,,,,,,,,,,,,,
0,78,78,50,1,,615ac7f75335e45f5539ed36,62c53960614ceb72cf758a83,2022-07-06_09h29.58.830,Colour_Asymmetry_Pilot,2022.1.3,Win32,60.04202942,62c50e9c1127f2cd403a315f,,,,,,,,,,,,,,,,,,,,,,,,,,,,,,,,,,,,,,,,,,,,,,,,,,,,,,,,,,,,,,,,,,,,,,,,,,,,,,,,,,,,,,,,,,,,,,,,,,,,,,,,,,,,,,,,,,,,,,,,,,,,,,,,,,,,,,,,,,,,,,,,,,,,,,,,,,,,,,,,,,,
0,79,79,19,1,,615ac7f75335e45f5539ed36,62c53960614ceb72cf758a83,2022-07-06_09h29.58.830,Colour_Asymmetry_Pilot,2022.1.3,Win32,60.04202942,62c50e9c1127f2cd403a315f,,,,,,,,,,,,,,,,,,,,,,,,,,,,,,,,,,,,,,,,,,,,,,,,,,,,,,,,,,,,,,,,,,,,,,,,,,,,,,,,,,,,,,,,,,,,,,,,,,,,,,,,,,,,,,,,,,,,,,,,,,,,,,,,,,,,,,,,,,,,,,,,,,,,,,,,,,,,,,,,,,,
0,80,80,67,1,,615ac7f75335e45f5539ed36,62c53960614ceb72cf758a83,2022-07-06_09h29.58.830,Colour_Asymmetry_Pilot,2022.1.3,Win32,60.04202942,62c50e9c1127f2cd403a315f,,,,,,,,,,,,,,,,,,,,,,,,,,,,,,,,,,,,,,,,,,,,,,,,,,,,,,,,,,,,,,,,,,,,,,,,,,,,,,,,,,,,,,,,,,,,,,,,,,,,,,,,,,,,,,,,,,,,,,,,,,,,,,,,,,,,,,,,,,,,,,,,,,,,,,,,,,,,,,,,,,,
0,81,81,60,1,,615ac7f75335e45f5539ed36,62c53960614ceb72cf758a83,2022-07-06_09h29.58.830,Colour_Asymmetry_Pilot,2022.1.3,Win32,60.04202942,62c50e9c1127f2cd403a315f,,,,,,,,,,,,,,,,,,,,,,,,,,,,,,,,,,,,,,,,,,,,,,,,,,,,,,,,,,,,,,,,,,,,,,,,,,,,,,,,,,,,,,,,,,,,,,,,,,,,,,,,,,,,,,,,,,,,,,,,,,,,,,,,,,,,,,,,,,,,,,,,,,,,,,,,,,,,,,,,,,,
0,82,82,90,1,,615ac7f75335e45f5539ed36,62c53960614ceb72cf758a83,2022-07-06_09h29.58.830,Colour_Asymmetry_Pilot,2022.1.3,Win32,60.04202942,62c50e9c1127f2cd403a315f,,,,,,,,,,,,,,,,,,,,,,,,,,,,,,,,,,,,,,,,,,,,,,,,,,,,,,,,,,,,,,,,,,,,,,,,,,,,,,,,,,,,,,,,,,,,,,,,,,,,,,,,,,,,,,,,,,,,,,,,,,,,,,,,,,,,,,,,,,,,,,,,,,,,,,,,,,,,,,,,,,,
0,83,83,21,1,,615ac7f75335e45f5539ed36,62c53960614ceb72cf758a83,2022-07-06_09h29.58.830,Colour_Asymmetry_Pilot,2022.1.3,Win32,60.04202942,62c50e9c1127f2cd403a315f,,,,,,,,,,,,,,,,,,,,,,,,,,,,,,,,,,,,,,,,,,,,,,,,,,,,,,,,,,,,,,,,,,,,,,,,,,,,,,,,,,,,,,,,,,,,,,,,,,,,,,,,,,,,,,,,,,,,,,,,,,,,,,,,,,,,,,,,,,,,,,,,,,,,,,,,,,,,,,,,,,,
0,84,84,12,1,,615ac7f75335e45f5539ed36,62c53960614ceb72cf758a83,2022-07-06_09h29.58.830,Colour_Asymmetry_Pilot,2022.1.3,Win32,60.04202942,62c50e9c1127f2cd403a315f,,,,,,,,,,,,,,,,,,,,,,,,,,,,,,,,,,,,,,,,,,,,,,,,,,,,,,,,,,,,,,,,,,,,,,,,,,,,,,,,,,,,,,,,,,,,,,,,,,,,,,,,,,,,,,,,,,,,,,,,,,,,,,,,,,,,,,,,,,,,,,,,,,,,,,,,,,,,,,,,,,,
0,85,85,64,1,,615ac7f75335e45f5539ed36,62c53960614ceb72cf758a83,2022-07-06_09h29.58.830,Colour_Asymmetry_Pilot,2022.1.3,Win32,60.04202942,62c50e9c1127f2cd403a315f,,,,,,,,,,,,,,,,,,,,,,,,,,,,,,,,,,,,,,,,,,,,,,,,,,,,,,,,,,,,,,,,,,,,,,,,,,,,,,,,,,,,,,,,,,,,,,,,,,,,,,,,,,,,,,,,,,,,,,,,,,,,,,,,,,,,,,,,,,,,,,,,,,,,,,,,,,,,,,,,,,,
0,86,86,47,1,,615ac7f75335e45f5539ed36,62c53960614ceb72cf758a83,2022-07-06_09h29.58.830,Colour_Asymmetry_Pilot,2022.1.3,Win32,60.04202942,62c50e9c1127f2cd403a315f,,,,,,,,,,,,,,,,,,,,,,,,,,,,,,,,,,,,,,,,,,,,,,,,,,,,,,,,,,,,,,,,,,,,,,,,,,,,,,,,,,,,,,,,,,,,,,,,,,,,,,,,,,,,,,,,,,,,,,,,,,,,,,,,,,,,,,,,,,,,,,,,,,,,,,,,,,,,,,,,,,,
0,87,87,7,1,,615ac7f75335e45f5539ed36,62c53960614ceb72cf758a83,2022-07-06_09h29.58.830,Colour_Asymmetry_Pilot,2022.1.3,Win32,60.04202942,62c50e9c1127f2cd403a315f,,,,,,,,,,,,,,,,,,,,,,,,,,,,,,,,,,,,,,,,,,,,,,,,,,,,,,,,,,,,,,,,,,,,,,,,,,,,,,,,,,,,,,,,,,,,,,,,,,,,,,,,,,,,,,,,,,,,,,,,,,,,,,,,,,,,,,,,,,,,,,,,,,,,,,,,,,,,,,,,,,,
0,88,88,71,1,,615ac7f75335e45f5539ed36,62c53960614ceb72cf758a83,2022-07-06_09h29.58.830,Colour_Asymmetry_Pilot,2022.1.3,Win32,60.04202942,62c50e9c1127f2cd403a315f,,,,,,,,,,,,,,,,,,,,,,,,,,,,,,,,,,,,,,,,,,,,,,,,,,,,,,,,,,,,,,,,,,,,,,,,,,,,,,,,,,,,,,,,,,,,,,,,,,,,,,,,,,,,,,,,,,,,,,,,,,,,,,,,,,,,,,,,,,,,,,,,,,,,,,,,,,,,,,,,,,,
0,89,89,23,1,,615ac7f75335e45f5539ed36,62c53960614ceb72cf758a83,2022-07-06_09h29.58.830,Colour_Asymmetry_Pilot,2022.1.3,Win32,60.04202942,62c50e9c1127f2cd403a315f,,,,,,,,,,,,,,,,,,,,,,,,,,,,,,,,,,,,,,,,,,,,,,,,,,,,,,,,,,,,,,,,,,,,,,,,,,,,,,,,,,,,,,,,,,,,,,,,,,,,,,,,,,,,,,,,,,,,,,,,,,,,,,,,,,,,,,,,,,,,,,,,,,,,,,,,,,,,,,,,,,,
0,90,90,63,1,,615ac7f75335e45f5539ed36,62c53960614ceb72cf758a83,2022-07-06_09h29.58.830,Colour_Asymmetry_Pilot,2022.1.3,Win32,60.04202942,62c50e9c1127f2cd403a315f,,,,,,,,,,,,,,,,,,,,,,,,,,,,,,,,,,,,,,,,,,,,,,,,,,,,,,,,,,,,,,,,,,,,,,,,,,,,,,,,,,,,,,,,,,,,,,,,,,,,,,,,,,,,,,,,,,,,,,,,,,,,,,,,,,,,,,,,,,,,,,,,,,,,,,,,,,,,,,,,,,,
0,91,91,77,1,,615ac7f75335e45f5539ed36,62c53960614ceb72cf758a83,2022-07-06_09h29.58.830,Colour_Asymmetry_Pilot,2022.1.3,Win32,60.04202942,62c50e9c1127f2cd403a315f,,,,,,,,,,,,,,,,,,,,,,,,,,,,,,,,,,,,,,,,,,,,,,,,,,,,,,,,,,,,,,,,,,,,,,,,,,,,,,,,,,,,,,,,,,,,,,,,,,,,,,,,,,,,,,,,,,,,,,,,,,,,,,,,,,,,,,,,,,,,,,,,,,,,,,,,,,,,,,,,,,,
0,92,92,51,1,,615ac7f75335e45f5539ed36,62c53960614ceb72cf758a83,2022-07-06_09h29.58.830,Colour_Asymmetry_Pilot,2022.1.3,Win32,60.04202942,62c50e9c1127f2cd403a315f,,,,,,,,,,,,,,,,,,,,,,,,,,,,,,,,,,,,,,,,,,,,,,,,,,,,,,,,,,,,,,,,,,,,,,,,,,,,,,,,,,,,,,,,,,,,,,,,,,,,,,,,,,,,,,,,,,,,,,,,,,,,,,,,,,,,,,,,,,,,,,,,,,,,,,,,,,,,,,,,,,,
,,,,,,615ac7f75335e45f5539ed36,62c53960614ceb72cf758a83,2022-07-06_09h29.58.830,Colour_Asymmetry_Pilot,2022.1.3,Win32,60.04202942,62c50e9c1127f2cd403a315f,0,0,0,60,1,threeone,,,,,,,,,,,,,,,,,,,,,,,,,,,,,,,,,,,,,,,,,,,,,,,,,,,,,,,,,,,,,,,,,,,,,,,,,,,,,,,,,,,,,,,,,,,,,,,,,,,,,,,,,,,,,,,,,,,,,,,,,,,,,,,,,,,,,,,,,,,,,,,,,,,,,,,,,,,,,
,,,,,,615ac7f75335e45f5539ed36,62c53960614ceb72cf758a83,2022-07-06_09h29.58.830,Colour_Asymmetry_Pilot,2022.1.3,Win32,60.04202942,62c50e9c1127f2cd403a315f,0,1,1,42,1,twoone,,,,,,,,,,,,,,,,,,,,,,,,,,,,,,,,,,,,,,,,,,,,,,,,,,,,,,,,,,,,,,,,,,,,,,,,,,,,,,,,,,,,,,,,,,,,,,,,,,,,,,,,,,,,,,,,,,,,,,,,,,,,,,,,,,,,,,,,,,,,,,,,,,,,,,,,,,,,,
,,,,,,615ac7f75335e45f5539ed36,62c53960614ceb72cf758a83,2022-07-06_09h29.58.830,Colour_Asymmetry_Pilot,2022.1.3,Win32,60.04202942,62c50e9c1127f2cd403a315f,0,2,2,39,1,fourthree,,,,,,,,,,,,,,,,,,,,,,,,,,,,,,,,,,,,,,,,,,,,,,,,,,,,,,,,,,,,,,,,,,,,,,,,,,,,,,,,,,,,,,,,,,,,,,,,,,,,,,,,,,,,,,,,,,,,,,,,,,,,,,,,,,,,,,,,,,,,,,,,,,,,,,,,,,,,,
,,,,,,615ac7f75335e45f5539ed36,62c53960614ceb72cf758a83,2022-07-06_09h29.58.830,Colour_Asymmetry_Pilot,2022.1.3,Win32,60.04202942,62c50e9c1127f2cd403a315f,0,3,3,109,1,threefour,,,,,,,,,,,,,,,,,,,,,,,,,,,,,,,,,,,,,,,,,,,,,,,,,,,,,,,,,,,,,,,,,,,,,,,,,,,,,,,,,,,,,,,,,,,,,,,,,,,,,,,,,,,,,,,,,,,,,,,,,,,,,,,,,,,,,,,,,,,,,,,,,,,,,,,,,,,,,
,,,,,,615ac7f75335e45f5539ed36,62c53960614ceb72cf758a83,2022-07-06_09h29.58.830,Colour_Asymmetry_Pilot,2022.1.3,Win32,60.04202942,62c50e9c1127f2cd403a315f,0,4,4,35,1,twofour,,,,,,,,,,,,,,,,,,,,,,,,,,,,,,,,,,,,,,,,,,,,,,,,,,,,,,,,,,,,,,,,,,,,,,,,,,,,,,,,,,,,,,,,,,,,,,,,,,,,,,,,,,,,,,,,,,,,,,,,,,,,,,,,,,,,,,,,,,,,,,,,,,,,,,,,,,,,,
,,,,,,615ac7f75335e45f5539ed36,62c53960614ceb72cf758a83,2022-07-06_09h29.58.830,Colour_Asymmetry_Pilot,2022.1.3,Win32,60.04202942,62c50e9c1127f2cd403a315f,0,5,5,17,1,onethree,,,,,,,,,,,,,,,,,,,,,,,,,,,,,,,,,,,,,,,,,,,,,,,,,,,,,,,,,,,,,,,,,,,,,,,,,,,,,,,,,,,,,,,,,,,,,,,,,,,,,,,,,,,,,,,,,,,,,,,,,,,,,,,,,,,,,,,,,,,,,,,,,,,,,,,,,,,,,
,,,,,,615ac7f75335e45f5539ed36,62c53960614ceb72cf758a83,2022-07-06_09h29.58.830,Colour_Asymmetry_Pilot,2022.1.3,Win32,60.04202942,62c50e9c1127f2cd403a315f,0,6,6,85,1,threefour,,,,,,,,,,,,,,,,,,,,,,,,,,,,,,,,,,,,,,,,,,,,,,,,,,,,,,,,,,,,,,,,,,,,,,,,,,,,,,,,,,,,,,,,,,,,,,,,,,,,,,,,,,,,,,,,,,,,,,,,,,,,,,,,,,,,,,,,,,,,,,,,,,,,,,,,,,,,,
,,,,,,615ac7f75335e45f5539ed36,62c53960614ceb72cf758a83,2022-07-06_09h29.58.830,Colour_Asymmetry_Pilot,2022.1.3,Win32,60.04202942,62c50e9c1127f2cd403a315f,0,7,7,45,1,threefour,,,,,,,,,,,,,,,,,,,,,,,,,,,,,,,,,,,,,,,,,,,,,,,,,,,,,,,,,,,,,,,,,,,,,,,,,,,,,,,,,,,,,,,,,,,,,,,,,,,,,,,,,,,,,,,,,,,,,,,,,,,,,,,,,,,,,,,,,,,,,,,,,,,,,,,,,,,,,
,,,,,,615ac7f75335e45f5539ed36,62c53960614ceb72cf758a83,2022-07-06_09h29.58.830,Colour_Asymmetry_Pilot,2022.1.3,Win32,60.04202942,62c50e9c1127f2cd403a315f,0,8,8,87,1,fourthree,,,,,,,,,,,,,,,,,,,,,,,,,,,,,,,,,,,,,,,,,,,,,,,,,,,,,,,,,,,,,,,,,,,,,,,,,,,,,,,,,,,,,,,,,,,,,,,,,,,,,,,,,,,,,,,,,,,,,,,,,,,,,,,,,,,,,,,,,,,,,,,,,,,,,,,,,,,,,
,,,,,,615ac7f75335e45f5539ed36,62c53960614ceb72cf758a83,2022-07-06_09h29.58.830,Colour_Asymmetry_Pilot,2022.1.3,Win32,60.04202942,62c50e9c1127f2cd403a315f,0,9,9,102,1,fourtwo,,,,,,,,,,,,,,,,,,,,,,,,,,,,,,,,,,,,,,,,,,,,,,,,,,,,,,,,,,,,,,,,,,,,,,,,,,,,,,,,,,,,,,,,,,,,,,,,,,,,,,,,,,,,,,,,,,,,,,,,,,,,,,,,,,,,,,,,,,,,,,,,,,,,,,,,,,,,,
,,,,,,615ac7f75335e45f5539ed36,62c53960614ceb72cf758a83,2022-07-06_09h29.58.830,Colour_Asymmetry_Pilot,2022.1.3,Win32,60.04202942,62c50e9c1127f2cd403a315f,0,10,10,145,1,onethree,,,,,,,,,,,,,,,,,,,,,,,,,,,,,,,,,,,,,,,,,,,,,,,,,,,,,,,,,,,,,,,,,,,,,,,,,,,,,,,,,,,,,,,,,,,,,,,,,,,,,,,,,,,,,,,,,,,,,,,,,,,,,,,,,,,,,,,,,,,,,,,,,,,,,,,,,,,,,
,,,,,,615ac7f75335e45f5539ed36,62c53960614ceb72cf758a83,2022-07-06_09h29.58.830,Colour_Asymmetry_Pilot,2022.1.3,Win32,60.04202942,62c50e9c1127f2cd403a315f,0,11,11,77,1,threefour,,,,,,,,,,,,,,,,,,,,,,,,,,,,,,,,,,,,,,,,,,,,,,,,,,,,,,,,,,,,,,,,,,,,,,,,,,,,,,,,,,,,,,,,,,,,,,,,,,,,,,,,,,,,,,,,,,,,,,,,,,,,,,,,,,,,,,,,,,,,,,,,,,,,,,,,,,,,,
,,,,,,615ac7f75335e45f5539ed36,62c53960614ceb72cf758a83,2022-07-06_09h29.58.830,Colour_Asymmetry_Pilot,2022.1.3,Win32,60.04202942,62c50e9c1127f2cd403a315f,0,12,12,7,1,fourthree,,,,,,,,,,,,,,,,,,,,,,,,,,,,,,,,,,,,,,,,,,,,,,,,,,,,,,,,,,,,,,,,,,,,,,,,,,,,,,,,,,,,,,,,,,,,,,,,,,,,,,,,,,,,,,,,,,,,,,,,,,,,,,,,,,,,,,,,,,,,,,,,,,,,,,,,,,,,,
,,,,,,615ac7f75335e45f5539ed36,62c53960614ceb72cf758a83,2022-07-06_09h29.58.830,Colour_Asymmetry_Pilot,2022.1.3,Win32,60.04202942,62c50e9c1127f2cd403a315f,0,13,13,47,1,fourthree,,,,,,,,,,,,,,,,,,,,,,,,,,,,,,,,,,,,,,,,,,,,,,,,,,,,,,,,,,,,,,,,,,,,,,,,,,,,,,,,,,,,,,,,,,,,,,,,,,,,,,,,,,,,,,,,,,,,,,,,,,,,,,,,,,,,,,,,,,,,,,,,,,,,,,,,,,,,,
,,,,,,615ac7f75335e45f5539ed36,62c53960614ceb72cf758a83,2022-07-06_09h29.58.830,Colour_Asymmetry_Pilot,2022.1.3,Win32,60.04202942,62c50e9c1127f2cd403a315f,0,14,14,127,1,fourthree,,,,,,,,,,,,,,,,,,,,,,,,,,,,,,,,,,,,,,,,,,,,,,,,,,,,,,,,,,,,,,,,,,,,,,,,,,,,,,,,,,,,,,,,,,,,,,,,,,,,,,,,,,,,,,,,,,,,,,,,,,,,,,,,,,,,,,,,,,,,,,,,,,,,,,,,,,,,,
,,,,,,615ac7f75335e45f5539ed36,62c53960614ceb72cf758a83,2022-07-06_09h29.58.830,Colour_Asymmetry_Pilot,2022.1.3,Win32,60.04202942,62c50e9c1127f2cd403a315f,0,15,15,16,1,onetwo,,,,,,,,,,,,,,,,,,,,,,,,,,,,,,,,,,,,,,,,,,,,,,,,,,,,,,,,,,,,,,,,,,,,,,,,,,,,,,,,,,,,,,,,,,,,,,,,,,,,,,,,,,,,,,,,,,,,,,,,,,,,,,,,,,,,,,,,,,,,,,,,,,,,,,,,,,,,,
,,,,,,615ac7f75335e45f5539ed36,62c53960614ceb72cf758a83,2022-07-06_09h29.58.830,Colour_Asymmetry_Pilot,2022.1.3,Win32,60.04202942,62c50e9c1127f2cd403a315f,0,16,16,135,1,fourthree,,,,,,,,,,,,,,,,,,,,,,,,,,,,,,,,,,,,,,,,,,,,,,,,,,,,,,,,,,,,,,,,,,,,,,,,,,,,,,,,,,,,,,,,,,,,,,,,,,,,,,,,,,,,,,,,,,,,,,,,,,,,,,,,,,,,,,,,,,,,,,,,,,,,,,,,,,,,,
,,,,,,615ac7f75335e45f5539ed36,62c53960614ceb72cf758a83,2022-07-06_09h29.58.830,Colour_Asymmetry_Pilot,2022.1.3,Win32,60.04202942,62c50e9c1127f2cd403a315f,0,17,17,80,1,onetwo,,,,,,,,,,,,,,,,,,,,,,,,,,,,,,,,,,,,,,,,,,,,,,,,,,,,,,,,,,,,,,,,,,,,,,,,,,,,,,,,,,,,,,,,,,,,,,,,,,,,,,,,,,,,,,,,,,,,,,,,,,,,,,,,,,,,,,,,,,,,,,,,,,,,,,,,,,,,,
,,,,,,615ac7f75335e45f5539ed36,62c53960614ceb72cf758a83,2022-07-06_09h29.58.830,Colour_Asymmetry_Pilot,2022.1.3,Win32,60.04202942,62c50e9c1127f2cd403a315f,0,18,18,106,1,twoone,,,,,,,,,,,,,,,,,,,,,,,,,,,,,,,,,,,,,,,,,,,,,,,,,,,,,,,,,,,,,,,,,,,,,,,,,,,,,,,,,,,,,,,,,,,,,,,,,,,,,,,,,,,,,,,,,,,,,,,,,,,,,,,,,,,,,,,,,,,,,,,,,,,,,,,,,,,,,
,,,,,,615ac7f75335e45f5539ed36,62c53960614ceb72cf758a83,2022-07-06_09h29.58.830,Colour_Asymmetry_Pilot,2022.1.3,Win32,60.04202942,62c50e9c1127f2cd403a315f,0,19,19,112,1,onetwo,,,,,,,,,,,,,,,,,,,,,,,,,,,,,,,,,,,,,,,,,,,,,,,,,,,,,,,,,,,,,,,,,,,,,,,,,,,,,,,,,,,,,,,,,,,,,,,,,,,,,,,,,,,,,,,,,,,,,,,,,,,,,,,,,,,,,,,,,,,,,,,,,,,,,,,,,,,,,
,,,,,,615ac7f75335e45f5539ed36,62c53960614ceb72cf758a83,2022-07-06_09h29.58.830,Colour_Asymmetry_Pilot,2022.1.3,Win32,60.04202942,62c50e9c1127f2cd403a315f,0,20,20,41,1,onethree,,,,,,,,,,,,,,,,,,,,,,,,,,,,,,,,,,,,,,,,,,,,,,,,,,,,,,,,,,,,,,,,,,,,,,,,,,,,,,,,,,,,,,,,,,,,,,,,,,,,,,,,,,,,,,,,,,,,,,,,,,,,,,,,,,,,,,,,,,,,,,,,,,,,,,,,,,,,,
,,,,,,615ac7f75335e45f5539ed36,62c53960614ceb72cf758a83,2022-07-06_09h29.58.830,Colour_Asymmetry_Pilot,2022.1.3,Win32,60.04202942,62c50e9c1127f2cd403a315f,0,21,21,20,1,threeone,,,,,,,,,,,,,,,,,,,,,,,,,,,,,,,,,,,,,,,,,,,,,,,,,,,,,,,,,,,,,,,,,,,,,,,,,,,,,,,,,,,,,,,,,,,,,,,,,,,,,,,,,,,,,,,,,,,,,,,,,,,,,,,,,,,,,,,,,,,,,,,,,,,,,,,,,,,,,
,,,,,,615ac7f75335e45f5539ed36,62c53960614ceb72cf758a83,2022-07-06_09h29.58.830,Colour_Asymmetry_Pilot,2022.1.3,Win32,60.04202942,62c50e9c1127f2cd403a315f,0,22,22,3,1,twofour,,,,,,,,,,,,,,,,,,,,,,,,,,,,,,,,,,,,,,,,,,,,,,,,,,,,,,,,,,,,,,,,,,,,,,,,,,,,,,,,,,,,,,,,,,,,,,,,,,,,,,,,,,,,,,,,,,,,,,,,,,,,,,,,,,,,,,,,,,,,,,,,,,,,,,,,,,,,,
,,,,,,615ac7f75335e45f5539ed36,62c53960614ceb72cf758a83,2022-07-06_09h29.58.830,Colour_Asymmetry_Pilot,2022.1.3,Win32,60.04202942,62c50e9c1127f2cd403a315f,0,23,23,157,1,threefour,,,,,,,,,,,,,,,,,,,,,,,,,,,,,,,,,,,,,,,,,,,,,,,,,,,,,,,,,,,,,,,,,,,,,,,,,,,,,,,,,,,,,,,,,,,,,,,,,,,,,,,,,,,,,,,,,,,,,,,,,,,,,,,,,,,,,,,,,,,,,,,,,,,,,,,,,,,,,
,,,,,,615ac7f75335e45f5539ed36,62c53960614ceb72cf758a83,2022-07-06_09h29.58.830,Colour_Asymmetry_Pilot,2022.1.3,Win32,60.04202942,62c50e9c1127f2cd403a315f,0,24,24,49,1,onethree,,,,,,,,,,,,,,,,,,,,,,,,,,,,,,,,,,,,,,,,,,,,,,,,,,,,,,,,,,,,,,,,,,,,,,,,,,,,,,,,,,,,,,,,,,,,,,,,,,,,,,,,,,,,,,,,,,,,,,,,,,,,,,,,,,,,,,,,,,,,,,,,,,,,,,,,,,,,,
,,,,,,615ac7f75335e45f5539ed36,62c53960614ceb72cf758a83,2022-07-06_09h29.58.830,Colour_Asymmetry_Pilot,2022.1.3,Win32,60.04202942,62c50e9c1127f2cd403a315f,0,25,25,100,1,threeone,,,,,,,,,,,,,,,,,,,,,,,,,,,,,,,,,,,,,,,,,,,,,,,,,,,,,,,,,,,,,,,,,,,,,,,,,,,,,,,,,,,,,,,,,,,,,,,,,,,,,,,,,,,,,,,,,,,,,,,,,,,,,,,,,,,,,,,,,,,,,,,,,,,,,,,,,,,,,
,,,,,,615ac7f75335e45f5539ed36,62c53960614ceb72cf758a83,2022-07-06_09h29.58.830,Colour_Asymmetry_Pilot,2022.1.3,Win32,60.04202942,62c50e9c1127f2cd403a315f,0,26,26,99,1,twofour,,,,,,,,,,,,,,,,,,,,,,,,,,,,,,,,,,,,,,,,,,,,,,,,,,,,,,,,,,,,,,,,,,,,,,,,,,,,,,,,,,,,,,,,,,,,,,,,,,,,,,,,,,,,,,,,,,,,,,,,,,,,,,,,,,,,,,,,,,,,,,,,,,,,,,,,,,,,,
,,,,,,615ac7f75335e45f5539ed36,62c53960614ceb72cf758a83,2022-07-06_09h29.58.830,Colour_Asymmetry_Pilot,2022.1.3,Win32,60.04202942,62c50e9c1127f2cd403a315f,0,27,27,76,1,threeone,,,,,,,,,,,,,,,,,,,,,,,,,,,,,,,,,,,,,,,,,,,,,,,,,,,,,,,,,,,,,,,,,,,,,,,,,,,,,,,,,,,,,,,,,,,,,,,,,,,,,,,,,,,,,,,,,,,,,,,,,,,,,,,,,,,,,,,,,,,,,,,,,,,,,,,,,,,,,
,,,,,,615ac7f75335e45f5539ed36,62c53960614ceb72cf758a83,2022-07-06_09h29.58.830,Colour_Asymmetry_Pilot,2022.1.3,Win32,60.04202942,62c50e9c1127f2cd403a315f,0,28,28,43,1,twofour,,,,,,,,,,,,,,,,,,,,,,,,,,,,,,,,,,,,,,,,,,,,,,,,,,,,,,,,,,,,,,,,,,,,,,,,,,,,,,,,,,,,,,,,,,,,,,,,,,,,,,,,,,,,,,,,,,,,,,,,,,,,,,,,,,,,,,,,,,,,,,,,,,,,,,,,,,,,,
,,,,,,615ac7f75335e45f5539ed36,62c53960614ceb72cf758a83,2022-07-06_09h29.58.830,Colour_Asymmetry_Pilot,2022.1.3,Win32,60.04202942,62c50e9c1127f2cd403a315f,0,29,29,18,1,twoone,,,,,,,,,,,,,,,,,,,,,,,,,,,,,,,,,,,,,,,,,,,,,,,,,,,,,,,,,,,,,,,,,,,,,,,,,,,,,,,,,,,,,,,,,,,,,,,,,,,,,,,,,,,,,,,,,,,,,,,,,,,,,,,,,,,,,,,,,,,,,,,,,,,,,,,,,,,,,
,,,,,,615ac7f75335e45f5539ed36,62c53960614ceb72cf758a83,2022-07-06_09h29.58.830,Colour_Asymmetry_Pilot,2022.1.3,Win32,60.04202942,62c50e9c1127f2cd403a315f,0,30,30,73,1,onethree,,,,,,,,,,,,,,,,,,,,,,,,,,,,,,,,,,,,,,,,,,,,,,,,,,,,,,,,,,,,,,,,,,,,,,,,,,,,,,,,,,,,,,,,,,,,,,,,,,,,,,,,,,,,,,,,,,,,,,,,,,,,,,,,,,,,,,,,,,,,,,,,,,,,,,,,,,,,,
,,,,,,615ac7f75335e45f5539ed36,62c53960614ceb72cf758a83,2022-07-06_09h29.58.830,Colour_Asymmetry_Pilot,2022.1.3,Win32,60.04202942,62c50e9c1127f2cd403a315f,0,31,31,131,1,twofour,,,,,,,,,,,,,,,,,,,,,,,,,,,,,,,,,,,,,,,,,,,,,,,,,,,,,,,,,,,,,,,,,,,,,,,,,,,,,,,,,,,,,,,,,,,,,,,,,,,,,,,,,,,,,,,,,,,,,,,,,,,,,,,,,,,,,,,,,,,,,,,,,,,,,,,,,,,,,
,,,,,,615ac7f75335e45f5539ed36,62c53960614ceb72cf758a83,2022-07-06_09h29.58.830,Colour_Asymmetry_Pilot,2022.1.3,Win32,60.04202942,62c50e9c1127f2cd403a315f,0,32,32,96,1,onetwo,,,,,,,,,,,,,,,,,,,,,,,,,,,,,,,,,,,,,,,,,,,,,,,,,,,,,,,,,,,,,,,,,,,,,,,,,,,,,,,,,,,,,,,,,,,,,,,,,,,,,,,,,,,,,,,,,,,,,,,,,,,,,,,,,,,,,,,,,,,,,,,,,,,,,,,,,,,,,
,,,,,,615ac7f75335e45f5539ed36,62c53960614ceb72cf758a83,2022-07-06_09h29.58.830,Colour_Asymmetry_Pilot,2022.1.3,Win32,60.04202942,62c50e9c1127f2cd403a315f,0,33,33,89,1,onethree,,,,,,,,,,,,,,,,,,,,,,,,,,,,,,,,,,,,,,,,,,,,,,,,,,,,,,,,,,,,,,,,,,,,,,,,,,,,,,,,,,,,,,,,,,,,,,,,,,,,,,,,,,,,,,,,,,,,,,,,,,,,,,,,,,,,,,,,,,,,,,,,,,,,,,,,,,,,,
,,,,,,615ac7f75335e45f5539ed36,62c53960614ceb72cf758a83,2022-07-06_09h29.58.830,Colour_Asymmetry_Pilot,2022.1.3,Win32,60.04202942,62c50e9c1127f2cd403a315f,0,34,34,37,1,threefour,,,,,,,,,,,,,,,,,,,,,,,,,,,,,,,,,,,,,,,,,,,,,,,,,,,,,,,,,,,,,,,,,,,,,,,,,,,,,,,,,,,,,,,,,,,,,,,,,,,,,,,,,,,,,,,,,,,,,,,,,,,,,,,,,,,,,,,,,,,,,,,,,,,,,,,,,,,,,
,,,,,,615ac7f75335e45f5539ed36,62c53960614ceb72cf758a83,2022-07-06_09h29.58.830,Colour_Asymmetry_Pilot,2022.1.3,Win32,60.04202942,62c50e9c1127f2cd403a315f,0,35,35,129,1,onethree,,,,,,,,,,,,,,,,,,,,,,,,,,,,,,,,,,,,,,,,,,,,,,,,,,,,,,,,,,,,,,,,,,,,,,,,,,,,,,,,,,,,,,,,,,,,,,,,,,,,,,,,,,,,,,,,,,,,,,,,,,,,,,,,,,,,,,,,,,,,,,,,,,,,,,,,,,,,,
,,,,,,615ac7f75335e45f5539ed36,62c53960614ceb72cf758a83,2022-07-06_09h29.58.830,Colour_Asymmetry_Pilot,2022.1.3,Win32,60.04202942,62c50e9c1127f2cd403a315f,0,36,36,14,1,fourtwo,,,,,,,,,,,,,,,,,,,,,,,,,,,,,,,,,,,,,,,,,,,,,,,,,,,,,,,,,,,,,,,,,,,,,,,,,,,,,,,,,,,,,,,,,,,,,,,,,,,,,,,,,,,,,,,,,,,,,,,,,,,,,,,,,,,,,,,,,,,,,,,,,,,,,,,,,,,,,
,,,,,,615ac7f75335e45f5539ed36,62c53960614ceb72cf758a83,2022-07-06_09h29.58.830,Colour_Asymmetry_Pilot,2022.1.3,Win32,60.04202942,62c50e9c1127f2cd403a315f,0,37,37,94,1,fourtwo,,,,,,,,,,,,,,,,,,,,,,,,,,,,,,,,,,,,,,,,,,,,,,,,,,,,,,,,,,,,,,,,,,,,,,,,,,,,,,,,,,,,,,,,,,,,,,,,,,,,,,,,,,,,,,,,,,,,,,,,,,,,,,,,,,,,,,,,,,,,,,,,,,,,,,,,,,,,,
,,,,,,615ac7f75335e45f5539ed36,62c53960614ceb72cf758a83,2022-07-06_09h29.58.830,Colour_Asymmetry_Pilot,2022.1.3,Win32,60.04202942,62c50e9c1127f2cd403a315f,0,38,38,82,1,twoone,,,,,,,,,,,,,,,,,,,,,,,,,,,,,,,,,,,,,,,,,,,,,,,,,,,,,,,,,,,,,,,,,,,,,,,,,,,,,,,,,,,,,,,,,,,,,,,,,,,,,,,,,,,,,,,,,,,,,,,,,,,,,,,,,,,,,,,,,,,,,,,,,,,,,,,,,,,,,
,,,,,,615ac7f75335e45f5539ed36,62c53960614ceb72cf758a83,2022-07-06_09h29.58.830,Colour_Asymmetry_Pilot,2022.1.3,Win32,60.04202942,62c50e9c1127f2cd403a315f,0,39,39,53,1,threefour,,,,,,,,,,,,,,,,,,,,,,,,,,,,,,,,,,,,,,,,,,,,,,,,,,,,,,,,,,,,,,,,,,,,,,,,,,,,,,,,,,,,,,,,,,,,,,,,,,,,,,,,,,,,,,,,,,,,,,,,,,,,,,,,,,,,,,,,,,,,,,,,,,,,,,,,,,,,,
,,,,,,615ac7f75335e45f5539ed36,62c53960614ceb72cf758a83,2022-07-06_09h29.58.830,Colour_Asymmetry_Pilot,2022.1.3,Win32,60.04202942,62c50e9c1127f2cd403a315f,0,40,40,68,1,threeone,,,,,,,,,,,,,,,,,,,,,,,,,,,,,,,,,,,,,,,,,,,,,,,,,,,,,,,,,,,,,,,,,,,,,,,,,,,,,,,,,,,,,,,,,,,,,,,,,,,,,,,,,,,,,,,,,,,,,,,,,,,,,,,,,,,,,,,,,,,,,,,,,,,,,,,,,,,,,
,,,,,,615ac7f75335e45f5539ed36,62c53960614ceb72cf758a83,2022-07-06_09h29.58.830,Colour_Asymmetry_Pilot,2022.1.3,Win32,60.04202942,62c50e9c1127f2cd403a315f,0,41,41,58,1,twoone,,,,,,,,,,,,,,,,,,,,,,,,,,,,,,,,,,,,,,,,,,,,,,,,,,,,,,,,,,,,,,,,,,,,,,,,,,,,,,,,,,,,,,,,,,,,,,,,,,,,,,,,,,,,,,,,,,,,,,,,,,,,,,,,,,,,,,,,,,,,,,,,,,,,,,,,,,,,,
,,,,,,615ac7f75335e45f5539ed36,62c53960614ceb72cf758a83,2022-07-06_09h29.58.830,Colour_Asymmetry_Pilot,2022.1.3,Win32,60.04202942,62c50e9c1127f2cd403a315f,0,42,42,25,1,onethree,,,,,,,,,,,,,,,,,,,,,,,,,,,,,,,,,,,,,,,,,,,,,,,,,,,,,,,,,,,,,,,,,,,,,,,,,,,,,,,,,,,,,,,,,,,,,,,,,,,,,,,,,,,,,,,,,,,,,,,,,,,,,,,,,,,,,,,,,,,,,,,,,,,,,,,,,,,,,
,,,,,,615ac7f75335e45f5539ed36,62c53960614ceb72cf758a83,2022-07-06_09h29.58.830,Colour_Asymmetry_Pilot,2022.1.3,Win32,60.04202942,62c50e9c1127f2cd403a315f,0,43,43,11,1,twofour,,,,,,,,,,,,,,,,,,,,,,,,,,,,,,,,,,,,,,,,,,,,,,,,,,,,,,,,,,,,,,,,,,,,,,,,,,,,,,,,,,,,,,,,,,,,,,,,,,,,,,,,,,,,,,,,,,,,,,,,,,,,,,,,,,,,,,,,,,,,,,,,,,,,,,,,,,,,,
,,,,,,615ac7f75335e45f5539ed36,62c53960614ceb72cf758a83,2022-07-06_09h29.58.830,Colour_Asymmetry_Pilot,2022.1.3,Win32,60.04202942,62c50e9c1127f2cd403a315f,0,44,44,34,1,twoone,,,,,,,,,,,,,,,,,,,,,,,,,,,,,,,,,,,,,,,,,,,,,,,,,,,,,,,,,,,,,,,,,,,,,,,,,,,,,,,,,,,,,,,,,,,,,,,,,,,,,,,,,,,,,,,,,,,,,,,,,,,,,,,,,,,,,,,,,,,,,,,,,,,,,,,,,,,,,
,,,,,,615ac7f75335e45f5539ed36,62c53960614ceb72cf758a83,2022-07-06_09h29.58.830,Colour_Asymmetry_Pilot,2022.1.3,Win32,60.04202942,62c50e9c1127f2cd403a315f,0,45,45,104,1,onetwo,,,,,,,,,,,,,,,,,,,,,,,,,,,,,,,,,,,,,,,,,,,,,,,,,,,,,,,,,,,,,,,,,,,,,,,,,,,,,,,,,,,,,,,,,,,,,,,,,,,,,,,,,,,,,,,,,,,,,,,,,,,,,,,,,,,,,,,,,,,,,,,,,,,,,,,,,,,,,
,,,,,,615ac7f75335e45f5539ed36,62c53960614ceb72cf758a83,2022-07-06_09h29.58.830,Colour_Asymmetry_Pilot,2022.1.3,Win32,60.04202942,62c50e9c1127f2cd403a315f,0,46,46,117,1,threefour,,,,,,,,,,,,,,,,,,,,,,,,,,,,,,,,,,,,,,,,,,,,,,,,,,,,,,,,,,,,,,,,,,,,,,,,,,,,,,,,,,,,,,,,,,,,,,,,,,,,,,,,,,,,,,,,,,,,,,,,,,,,,,,,,,,,,,,,,,,,,,,,,,,,,,,,,,,,,
,,,,,,615ac7f75335e45f5539ed36,62c53960614ceb72cf758a83,2022-07-06_09h29.58.830,Colour_Asymmetry_Pilot,2022.1.3,Win32,60.04202942,62c50e9c1127f2cd403a315f,0,47,47,151,1,fourthree,,,,,,,,,,,,,,,,,,,,,,,,,,,,,,,,,,,,,,,,,,,,,,,,,,,,,,,,,,,,,,,,,,,,,,,,,,,,,,,,,,,,,,,,,,,,,,,,,,,,,,,,,,,,,,,,,,,,,,,,,,,,,,,,,,,,,,,,,,,,,,,,,,,,,,,,,,,,,
,,,,,,615ac7f75335e45f5539ed36,62c53960614ceb72cf758a83,2022-07-06_09h29.58.830,Colour_Asymmetry_Pilot,2022.1.3,Win32,60.04202942,62c50e9c1127f2cd403a315f,0,48,48,140,1,threeone,,,,,,,,,,,,,,,,,,,,,,,,,,,,,,,,,,,,,,,,,,,,,,,,,,,,,,,,,,,,,,,,,,,,,,,,,,,,,,,,,,,,,,,,,,,,,,,,,,,,,,,,,,,,,,,,,,,,,,,,,,,,,,,,,,,,,,,,,,,,,,,,,,,,,,,,,,,,,
,,,,,,615ac7f75335e45f5539ed36,62c53960614ceb72cf758a83,2022-07-06_09h29.58.830,Colour_Asymmetry_Pilot,2022.1.3,Win32,60.04202942,62c50e9c1127f2cd403a315f,0,49,49,74,1,twoone,,,,,,,,,,,,,,,,,,,,,,,,,,,,,,,,,,,,,,,,,,,,,,,,,,,,,,,,,,,,,,,,,,,,,,,,,,,,,,,,,,,,,,,,,,,,,,,,,,,,,,,,,,,,,,,,,,,,,,,,,,,,,,,,,,,,,,,,,,,,,,,,,,,,,,,,,,,,,
,,,,,,615ac7f75335e45f5539ed36,62c53960614ceb72cf758a83,2022-07-06_09h29.58.830,Colour_Asymmetry_Pilot,2022.1.3,Win32,60.04202942,62c50e9c1127f2cd403a315f,0,50,50,108,1,threeone,,,,,,,,,,,,,,,,,,,,,,,,,,,,,,,,,,,,,,,,,,,,,,,,,,,,,,,,,,,,,,,,,,,,,,,,,,,,,,,,,,,,,,,,,,,,,,,,,,,,,,,,,,,,,,,,,,,,,,,,,,,,,,,,,,,,,,,,,,,,,,,,,,,,,,,,,,,,,
,,,,,,615ac7f75335e45f5539ed36,62c53960614ceb72cf758a83,2022-07-06_09h29.58.830,Colour_Asymmetry_Pilot,2022.1.3,Win32,60.04202942,62c50e9c1127f2cd403a315f,0,51,51,86,1,fourtwo,,,,,,,,,,,,,,,,,,,,,,,,,,,,,,,,,,,,,,,,,,,,,,,,,,,,,,,,,,,,,,,,,,,,,,,,,,,,,,,,,,,,,,,,,,,,,,,,,,,,,,,,,,,,,,,,,,,,,,,,,,,,,,,,,,,,,,,,,,,,,,,,,,,,,,,,,,,,,
,,,,,,615ac7f75335e45f5539ed36,62c53960614ceb72cf758a83,2022-07-06_09h29.58.830,Colour_Asymmetry_Pilot,2022.1.3,Win32,60.04202942,62c50e9c1127f2cd403a315f,0,52,52,31,1,fourthree,,,,,,,,,,,,,,,,,,,,,,,,,,,,,,,,,,,,,,,,,,,,,,,,,,,,,,,,,,,,,,,,,,,,,,,,,,,,,,,,,,,,,,,,,,,,,,,,,,,,,,,,,,,,,,,,,,,,,,,,,,,,,,,,,,,,,,,,,,,,,,,,,,,,,,,,,,,,,
,,,,,,615ac7f75335e45f5539ed36,62c53960614ceb72cf758a83,2022-07-06_09h29.58.830,Colour_Asymmetry_Pilot,2022.1.3,Win32,60.04202942,62c50e9c1127f2cd403a315f,0,53,53,36,1,threeone,,,,,,,,,,,,,,,,,,,,,,,,,,,,,,,,,,,,,,,,,,,,,,,,,,,,,,,,,,,,,,,,,,,,,,,,,,,,,,,,,,,,,,,,,,,,,,,,,,,,,,,,,,,,,,,,,,,,,,,,,,,,,,,,,,,,,,,,,,,,,,,,,,,,,,,,,,,,,
,,,,,,615ac7f75335e45f5539ed36,62c53960614ceb72cf758a83,2022-07-06_09h29.58.830,Colour_Asymmetry_Pilot,2022.1.3,Win32,60.04202942,62c50e9c1127f2cd403a315f,0,54,54,98,1,twoone,,,,,,,,,,,,,,,,,,,,,,,,,,,,,,,,,,,,,,,,,,,,,,,,,,,,,,,,,,,,,,,,,,,,,,,,,,,,,,,,,,,,,,,,,,,,,,,,,,,,,,,,,,,,,,,,,,,,,,,,,,,,,,,,,,,,,,,,,,,,,,,,,,,,,,,,,,,,,
,,,,,,615ac7f75335e45f5539ed36,62c53960614ceb72cf758a83,2022-07-06_09h29.58.830,Colour_Asymmetry_Pilot,2022.1.3,Win32,60.04202942,62c50e9c1127f2cd403a315f,0,55,55,133,1,threefour,,,,,,,,,,,,,,,,,,,,,,,,,,,,,,,,,,,,,,,,,,,,,,,,,,,,,,,,,,,,,,,,,,,,,,,,,,,,,,,,,,,,,,,,,,,,,,,,,,,,,,,,,,,,,,,,,,,,,,,,,,,,,,,,,,,,,,,,,,,,,,,,,,,,,,,,,,,,,
,,,,,,615ac7f75335e45f5539ed36,62c53960614ceb72cf758a83,2022-07-06_09h29.58.830,Colour_Asymmetry_Pilot,2022.1.3,Win32,60.04202942,62c50e9c1127f2cd403a315f,0,56,56,26,1,twoone,,,,,,,,,,,,,,,,,,,,,,,,,,,,,,,,,,,,,,,,,,,,,,,,,,,,,,,,,,,,,,,,,,,,,,,,,,,,,,,,,,,,,,,,,,,,,,,,,,,,,,,,,,,,,,,,,,,,,,,,,,,,,,,,,,,,,,,,,,,,,,,,,,,,,,,,,,,,,
,,,,,,615ac7f75335e45f5539ed36,62c53960614ceb72cf758a83,2022-07-06_09h29.58.830,Colour_Asymmetry_Pilot,2022.1.3,Win32,60.04202942,62c50e9c1127f2cd403a315f,0,57,57,103,1,fourthree,,,,,,,,,,,,,,,,,,,,,,,,,,,,,,,,,,,,,,,,,,,,,,,,,,,,,,,,,,,,,,,,,,,,,,,,,,,,,,,,,,,,,,,,,,,,,,,,,,,,,,,,,,,,,,,,,,,,,,,,,,,,,,,,,,,,,,,,,,,,,,,,,,,,,,,,,,,,,
,,,,,,615ac7f75335e45f5539ed36,62c53960614ceb72cf758a83,2022-07-06_09h29.58.830,Colour_Asymmetry_Pilot,2022.1.3,Win32,60.04202942,62c50e9c1127f2cd403a315f,0,58,58,115,1,twofour,,,,,,,,,,,,,,,,,,,,,,,,,,,,,,,,,,,,,,,,,,,,,,,,,,,,,,,,,,,,,,,,,,,,,,,,,,,,,,,,,,,,,,,,,,,,,,,,,,,,,,,,,,,,,,,,,,,,,,,,,,,,,,,,,,,,,,,,,,,,,,,,,,,,,,,,,,,,,
,,,,,,615ac7f75335e45f5539ed36,62c53960614ceb72cf758a83,2022-07-06_09h29.58.830,Colour_Asymmetry_Pilot,2022.1.3,Win32,60.04202942,62c50e9c1127f2cd403a315f,0,59,59,8,1,onetwo,,,,,,,,,,,,,,,,,,,,,,,,,,,,,,,,,,,,,,,,,,,,,,,,,,,,,,,,,,,,,,,,,,,,,,,,,,,,,,,,,,,,,,,,,,,,,,,,,,,,,,,,,,,,,,,,,,,,,,,,,,,,,,,,,,,,,,,,,,,,,,,,,,,,,,,,,,,,,
,,,,,,615ac7f75335e45f5539ed36,62c53960614ceb72cf758a83,2022-07-06_09h29.58.830,Colour_Asymmetry_Pilot,2022.1.3,Win32,60.04202942,62c50e9c1127f2cd403a315f,0,60,60,55,1,fourthree,,,,,,,,,,,,,,,,,,,,,,,,,,,,,,,,,,,,,,,,,,,,,,,,,,,,,,,,,,,,,,,,,,,,,,,,,,,,,,,,,,,,,,,,,,,,,,,,,,,,,,,,,,,,,,,,,,,,,,,,,,,,,,,,,,,,,,,,,,,,,,,,,,,,,,,,,,,,,
,,,,,,615ac7f75335e45f5539ed36,62c53960614ceb72cf758a83,2022-07-06_09h29.58.830,Colour_Asymmetry_Pilot,2022.1.3,Win32,60.04202942,62c50e9c1127f2cd403a315f,0,61,61,9,1,onethree,,,,,,,,,,,,,,,,,,,,,,,,,,,,,,,,,,,,,,,,,,,,,,,,,,,,,,,,,,,,,,,,,,,,,,,,,,,,,,,,,,,,,,,,,,,,,,,,,,,,,,,,,,,,,,,,,,,,,,,,,,,,,,,,,,,,,,,,,,,,,,,,,,,,,,,,,,,,,
,,,,,,615ac7f75335e45f5539ed36,62c53960614ceb72cf758a83,2022-07-06_09h29.58.830,Colour_Asymmetry_Pilot,2022.1.3,Win32,60.04202942,62c50e9c1127f2cd403a315f,0,62,62,122,1,twoone,,,,,,,,,,,,,,,,,,,,,,,,,,,,,,,,,,,,,,,,,,,,,,,,,,,,,,,,,,,,,,,,,,,,,,,,,,,,,,,,,,,,,,,,,,,,,,,,,,,,,,,,,,,,,,,,,,,,,,,,,,,,,,,,,,,,,,,,,,,,,,,,,,,,,,,,,,,,,
,,,,,,615ac7f75335e45f5539ed36,62c53960614ceb72cf758a83,2022-07-06_09h29.58.830,Colour_Asymmetry_Pilot,2022.1.3,Win32,60.04202942,62c50e9c1127f2cd403a315f,0,63,63,6,1,fourtwo,,,,,,,,,,,,,,,,,,,,,,,,,,,,,,,,,,,,,,,,,,,,,,,,,,,,,,,,,,,,,,,,,,,,,,,,,,,,,,,,,,,,,,,,,,,,,,,,,,,,,,,,,,,,,,,,,,,,,,,,,,,,,,,,,,,,,,,,,,,,,,,,,,,,,,,,,,,,,
,,,,,,615ac7f75335e45f5539ed36,62c53960614ceb72cf758a83,2022-07-06_09h29.58.830,Colour_Asymmetry_Pilot,2022.1.3,Win32,60.04202942,62c50e9c1127f2cd403a315f,0,64,64,113,1,onethree,,,,,,,,,,,,,,,,,,,,,,,,,,,,,,,,,,,,,,,,,,,,,,,,,,,,,,,,,,,,,,,,,,,,,,,,,,,,,,,,,,,,,,,,,,,,,,,,,,,,,,,,,,,,,,,,,,,,,,,,,,,,,,,,,,,,,,,,,,,,,,,,,,,,,,,,,,,,,
,,,,,,615ac7f75335e45f5539ed36,62c53960614ceb72cf758a83,2022-07-06_09h29.58.830,Colour_Asymmetry_Pilot,2022.1.3,Win32,60.04202942,62c50e9c1127f2cd403a315f,0,65,65,143,1,fourthree,,,,,,,,,,,,,,,,,,,,,,,,,,,,,,,,,,,,,,,,,,,,,,,,,,,,,,,,,,,,,,,,,,,,,,,,,,,,,,,,,,,,,,,,,,,,,,,,,,,,,,,,,,,,,,,,,,,,,,,,,,,,,,,,,,,,,,,,,,,,,,,,,,,,,,,,,,,,,
,,,,,,615ac7f75335e45f5539ed36,62c53960614ceb72cf758a83,2022-07-06_09h29.58.830,Colour_Asymmetry_Pilot,2022.1.3,Win32,60.04202942,62c50e9c1127f2cd403a315f,0,66,66,63,1,fourthree,,,,,,,,,,,,,,,,,,,,,,,,,,,,,,,,,,,,,,,,,,,,,,,,,,,,,,,,,,,,,,,,,,,,,,,,,,,,,,,,,,,,,,,,,,,,,,,,,,,,,,,,,,,,,,,,,,,,,,,,,,,,,,,,,,,,,,,,,,,,,,,,,,,,,,,,,,,,,
,,,,,,615ac7f75335e45f5539ed36,62c53960614ceb72cf758a83,2022-07-06_09h29.58.830,Colour_Asymmetry_Pilot,2022.1.3,Win32,60.04202942,62c50e9c1127f2cd403a315f,0,67,67,1,1,onethree,,,,,,,,,,,,,,,,,,,,,,,,,,,,,,,,,,,,,,,,,,,,,,,,,,,,,,,,,,,,,,,,,,,,,,,,,,,,,,,,,,,,,,,,,,,,,,,,,,,,,,,,,,,,,,,,,,,,,,,,,,,,,,,,,,,,,,,,,,,,,,,,,,,,,,,,,,,,,
,,,,,,615ac7f75335e45f5539ed36,62c53960614ceb72cf758a83,2022-07-06_09h29.58.830,Colour_Asymmetry_Pilot,2022.1.3,Win32,60.04202942,62c50e9c1127f2cd403a315f,0,68,68,141,1,threefour,,,,,,,,,,,,,,,,,,,,,,,,,,,,,,,,,,,,,,,,,,,,,,,,,,,,,,,,,,,,,,,,,,,,,,,,,,,,,,,,,,,,,,,,,,,,,,,,,,,,,,,,,,,,,,,,,,,,,,,,,,,,,,,,,,,,,,,,,,,,,,,,,,,,,,,,,,,,,
,,,,,,615ac7f75335e45f5539ed36,62c53960614ceb72cf758a83,2022-07-06_09h29.58.830,Colour_Asymmetry_Pilot,2022.1.3,Win32,60.04202942,62c50e9c1127f2cd403a315f,0,69,69,13,1,threefour,,,,,,,,,,,,,,,,,,,,,,,,,,,,,,,,,,,,,,,,,,,,,,,,,,,,,,,,,,,,,,,,,,,,,,,,,,,,,,,,,,,,,,,,,,,,,,,,,,,,,,,,,,,,,,,,,,,,,,,,,,,,,,,,,,,,,,,,,,,,,,,,,,,,,,,,,,,,,
,,,,,,615ac7f75335e45f5539ed36,62c53960614ceb72cf758a83,2022-07-06_09h29.58.830,Colour_Asymmetry_Pilot,2022.1.3,Win32,60.04202942,62c50e9c1127f2cd403a315f,0,70,70,92,1,threeone,,,,,,,,,,,,,,,,,,,,,,,,,,,,,,,,,,,,,,,,,,,,,,,,,,,,,,,,,,,,,,,,,,,,,,,,,,,,,,,,,,,,,,,,,,,,,,,,,,,,,,,,,,,,,,,,,,,,,,,,,,,,,,,,,,,,,,,,,,,,,,,,,,,,,,,,,,,,,
,,,,,,615ac7f75335e45f5539ed36,62c53960614ceb72cf758a83,2022-07-06_09h29.58.830,Colour_Asymmetry_Pilot,2022.1.3,Win32,60.04202942,62c50e9c1127f2cd403a315f,0,71,71,23,1,fourthree,,,,,,,,,,,,,,,,,,,,,,,,,,,,,,,,,,,,,,,,,,,,,,,,,,,,,,,,,,,,,,,,,,,,,,,,,,,,,,,,,,,,,,,,,,,,,,,,,,,,,,,,,,,,,,,,,,,,,,,,,,,,,,,,,,,,,,,,,,,,,,,,,,,,,,,,,,,,,
,,,,,,615ac7f75335e45f5539ed36,62c53960614ceb72cf758a83,2022-07-06_09h29.58.830,Colour_Asymmetry_Pilot,2022.1.3,Win32,60.04202942,62c50e9c1127f2cd403a315f,0,72,72,95,1,fourthree,,,,,,,,,,,,,,,,,,,,,,,,,,,,,,,,,,,,,,,,,,,,,,,,,,,,,,,,,,,,,,,,,,,,,,,,,,,,,,,,,,,,,,,,,,,,,,,,,,,,,,,,,,,,,,,,,,,,,,,,,,,,,,,,,,,,,,,,,,,,,,,,,,,,,,,,,,,,,
,,,,,,615ac7f75335e45f5539ed36,62c53960614ceb72cf758a83,2022-07-06_09h29.58.830,Colour_Asymmetry_Pilot,2022.1.3,Win32,60.04202942,62c50e9c1127f2cd403a315f,0,73,73,123,1,twofour,,,,,,,,,,,,,,,,,,,,,,,,,,,,,,,,,,,,,,,,,,,,,,,,,,,,,,,,,,,,,,,,,,,,,,,,,,,,,,,,,,,,,,,,,,,,,,,,,,,,,,,,,,,,,,,,,,,,,,,,,,,,,,,,,,,,,,,,,,,,,,,,,,,,,,,,,,,,,
,,,,,,615ac7f75335e45f5539ed36,62c53960614ceb72cf758a83,2022-07-06_09h29.58.830,Colour_Asymmetry_Pilot,2022.1.3,Win32,60.04202942,62c50e9c1127f2cd403a315f,0,74,74,128,1,onetwo,,,,,,,,,,,,,,,,,,,,,,,,,,,,,,,,,,,,,,,,,,,,,,,,,,,,,,,,,,,,,,,,,,,,,,,,,,,,,,,,,,,,,,,,,,,,,,,,,,,,,,,,,,,,,,,,,,,,,,,,,,,,,,,,,,,,,,,,,,,,,,,,,,,,,,,,,,,,,
,,,,,,615ac7f75335e45f5539ed36,62c53960614ceb72cf758a83,2022-07-06_09h29.58.830,Colour_Asymmetry_Pilot,2022.1.3,Win32,60.04202942,62c50e9c1127f2cd403a315f,0,75,75,12,1,threeone,,,,,,,,,,,,,,,,,,,,,,,,,,,,,,,,,,,,,,,,,,,,,,,,,,,,,,,,,,,,,,,,,,,,,,,,,,,,,,,,,,,,,,,,,,,,,,,,,,,,,,,,,,,,,,,,,,,,,,,,,,,,,,,,,,,,,,,,,,,,,,,,,,,,,,,,,,,,,
,,,,,,615ac7f75335e45f5539ed36,62c53960614ceb72cf758a83,2022-07-06_09h29.58.830,Colour_Asymmetry_Pilot,2022.1.3,Win32,60.04202942,62c50e9c1127f2cd403a315f,0,76,76,155,1,twofour,,,,,,,,,,,,,,,,,,,,,,,,,,,,,,,,,,,,,,,,,,,,,,,,,,,,,,,,,,,,,,,,,,,,,,,,,,,,,,,,,,,,,,,,,,,,,,,,,,,,,,,,,,,,,,,,,,,,,,,,,,,,,,,,,,,,,,,,,,,,,,,,,,,,,,,,,,,,,
,,,,,,615ac7f75335e45f5539ed36,62c53960614ceb72cf758a83,2022-07-06_09h29.58.830,Colour_Asymmetry_Pilot,2022.1.3,Win32,60.04202942,62c50e9c1127f2cd403a315f,0,77,77,158,1,fourtwo,,,,,,,,,,,,,,,,,,,,,,,,,,,,,,,,,,,,,,,,,,,,,,,,,,,,,,,,,,,,,,,,,,,,,,,,,,,,,,,,,,,,,,,,,,,,,,,,,,,,,,,,,,,,,,,,,,,,,,,,,,,,,,,,,,,,,,,,,,,,,,,,,,,,,,,,,,,,,
,,,,,,615ac7f75335e45f5539ed36,62c53960614ceb72cf758a83,2022-07-06_09h29.58.830,Colour_Asymmetry_Pilot,2022.1.3,Win32,60.04202942,62c50e9c1127f2cd403a315f,0,78,78,29,1,threefour,,,,,,,,,,,,,,,,,,,,,,,,,,,,,,,,,,,,,,,,,,,,,,,,,,,,,,,,,,,,,,,,,,,,,,,,,,,,,,,,,,,,,,,,,,,,,,,,,,,,,,,,,,,,,,,,,,,,,,,,,,,,,,,,,,,,,,,,,,,,,,,,,,,,,,,,,,,,,
,,,,,,615ac7f75335e45f5539ed36,62c53960614ceb72cf758a83,2022-07-06_09h29.58.830,Colour_Asymmetry_Pilot,2022.1.3,Win32,60.04202942,62c50e9c1127f2cd403a315f,0,79,79,105,1,onethree,,,,,,,,,,,,,,,,,,,,,,,,,,,,,,,,,,,,,,,,,,,,,,,,,,,,,,,,,,,,,,,,,,,,,,,,,,,,,,,,,,,,,,,,,,,,,,,,,,,,,,,,,,,,,,,,,,,,,,,,,,,,,,,,,,,,,,,,,,,,,,,,,,,,,,,,,,,,,
,,,,,,615ac7f75335e45f5539ed36,62c53960614ceb72cf758a83,2022-07-06_09h29.58.830,Colour_Asymmetry_Pilot,2022.1.3,Win32,60.04202942,62c50e9c1127f2cd403a315f,0,80,80,27,1,twofour,,,,,,,,,,,,,,,,,,,,,,,,,,,,,,,,,,,,,,,,,,,,,,,,,,,,,,,,,,,,,,,,,,,,,,,,,,,,,,,,,,,,,,,,,,,,,,,,,,,,,,,,,,,,,,,,,,,,,,,,,,,,,,,,,,,,,,,,,,,,,,,,,,,,,,,,,,,,,
,,,,,,615ac7f75335e45f5539ed36,62c53960614ceb72cf758a83,2022-07-06_09h29.58.830,Colour_Asymmetry_Pilot,2022.1.3,Win32,60.04202942,62c50e9c1127f2cd403a315f,0,81,81,5,1,threefour,,,,,,,,,,,,,,,,,,,,,,,,,,,,,,,,,,,,,,,,,,,,,,,,,,,,,,,,,,,,,,,,,,,,,,,,,,,,,,,,,,,,,,,,,,,,,,,,,,,,,,,,,,,,,,,,,,,,,,,,,,,,,,,,,,,,,,,,,,,,,,,,,,,,,,,,,,,,,
,,,,,,615ac7f75335e45f5539ed36,62c53960614ceb72cf758a83,2022-07-06_09h29.58.830,Colour_Asymmetry_Pilot,2022.1.3,Win32,60.04202942,62c50e9c1127f2cd403a315f,0,82,82,57,1,onethree,,,,,,,,,,,,,,,,,,,,,,,,,,,,,,,,,,,,,,,,,,,,,,,,,,,,,,,,,,,,,,,,,,,,,,,,,,,,,,,,,,,,,,,,,,,,,,,,,,,,,,,,,,,,,,,,,,,,,,,,,,,,,,,,,,,,,,,,,,,,,,,,,,,,,,,,,,,,,
,,,,,,615ac7f75335e45f5539ed36,62c53960614ceb72cf758a83,2022-07-06_09h29.58.830,Colour_Asymmetry_Pilot,2022.1.3,Win32,60.04202942,62c50e9c1127f2cd403a315f,0,83,83,160,1,onetwo,,,,,,,,,,,,,,,,,,,,,,,,,,,,,,,,,,,,,,,,,,,,,,,,,,,,,,,,,,,,,,,,,,,,,,,,,,,,,,,,,,,,,,,,,,,,,,,,,,,,,,,,,,,,,,,,,,,,,,,,,,,,,,,,,,,,,,,,,,,,,,,,,,,,,,,,,,,,,
,,,,,,615ac7f75335e45f5539ed36,62c53960614ceb72cf758a83,2022-07-06_09h29.58.830,Colour_Asymmetry_Pilot,2022.1.3,Win32,60.04202942,62c50e9c1127f2cd403a315f,0,84,84,150,1,fourtwo,,,,,,,,,,,,,,,,,,,,,,,,,,,,,,,,,,,,,,,,,,,,,,,,,,,,,,,,,,,,,,,,,,,,,,,,,,,,,,,,,,,,,,,,,,,,,,,,,,,,,,,,,,,,,,,,,,,,,,,,,,,,,,,,,,,,,,,,,,,,,,,,,,,,,,,,,,,,,
,,,,,,615ac7f75335e45f5539ed36,62c53960614ceb72cf758a83,2022-07-06_09h29.58.830,Colour_Asymmetry_Pilot,2022.1.3,Win32,60.04202942,62c50e9c1127f2cd403a315f,0,85,85,125,1,threefour,,,,,,,,,,,,,,,,,,,,,,,,,,,,,,,,,,,,,,,,,,,,,,,,,,,,,,,,,,,,,,,,,,,,,,,,,,,,,,,,,,,,,,,,,,,,,,,,,,,,,,,,,,,,,,,,,,,,,,,,,,,,,,,,,,,,,,,,,,,,,,,,,,,,,,,,,,,,,
,,,,,,615ac7f75335e45f5539ed36,62c53960614ceb72cf758a83,2022-07-06_09h29.58.830,Colour_Asymmetry_Pilot,2022.1.3,Win32,60.04202942,62c50e9c1127f2cd403a315f,0,86,86,65,1,onethree,,,,,,,,,,,,,,,,,,,,,,,,,,,,,,,,,,,,,,,,,,,,,,,,,,,,,,,,,,,,,,,,,,,,,,,,,,,,,,,,,,,,,,,,,,,,,,,,,,,,,,,,,,,,,,,,,,,,,,,,,,,,,,,,,,,,,,,,,,,,,,,,,,,,,,,,,,,,,
,,,,,,615ac7f75335e45f5539ed36,62c53960614ceb72cf758a83,2022-07-06_09h29.58.830,Colour_Asymmetry_Pilot,2022.1.3,Win32,60.04202942,62c50e9c1127f2cd403a315f,0,87,87,32,1,onetwo,,,,,,,,,,,,,,,,,,,,,,,,,,,,,,,,,,,,,,,,,,,,,,,,,,,,,,,,,,,,,,,,,,,,,,,,,,,,,,,,,,,,,,,,,,,,,,,,,,,,,,,,,,,,,,,,,,,,,,,,,,,,,,,,,,,,,,,,,,,,,,,,,,,,,,,,,,,,,
,,,,,,615ac7f75335e45f5539ed36,62c53960614ceb72cf758a83,2022-07-06_09h29.58.830,Colour_Asymmetry_Pilot,2022.1.3,Win32,60.04202942,62c50e9c1127f2cd403a315f,0,88,88,72,1,onetwo,,,,,,,,,,,,,,,,,,,,,,,,,,,,,,,,,,,,,,,,,,,,,,,,,,,,,,,,,,,,,,,,,,,,,,,,,,,,,,,,,,,,,,,,,,,,,,,,,,,,,,,,,,,,,,,,,,,,,,,,,,,,,,,,,,,,,,,,,,,,,,,,,,,,,,,,,,,,,
,,,,,,615ac7f75335e45f5539ed36,62c53960614ceb72cf758a83,2022-07-06_09h29.58.830,Colour_Asymmetry_Pilot,2022.1.3,Win32,60.04202942,62c50e9c1127f2cd403a315f,0,89,89,2,1,twoone,,,,,,,,,,,,,,,,,,,,,,,,,,,,,,,,,,,,,,,,,,,,,,,,,,,,,,,,,,,,,,,,,,,,,,,,,,,,,,,,,,,,,,,,,,,,,,,,,,,,,,,,,,,,,,,,,,,,,,,,,,,,,,,,,,,,,,,,,,,,,,,,,,,,,,,,,,,,,
,,,,,,615ac7f75335e45f5539ed36,62c53960614ceb72cf758a83,2022-07-06_09h29.58.830,Colour_Asymmetry_Pilot,2022.1.3,Win32,60.04202942,62c50e9c1127f2cd403a315f,0,90,90,137,1,onethree,,,,,,,,,,,,,,,,,,,,,,,,,,,,,,,,,,,,,,,,,,,,,,,,,,,,,,,,,,,,,,,,,,,,,,,,,,,,,,,,,,,,,,,,,,,,,,,,,,,,,,,,,,,,,,,,,,,,,,,,,,,,,,,,,,,,,,,,,,,,,,,,,,,,,,,,,,,,,
,,,,,,615ac7f75335e45f5539ed36,62c53960614ceb72cf758a83,2022-07-06_09h29.58.830,Colour_Asymmetry_Pilot,2022.1.3,Win32,60.04202942,62c50e9c1127f2cd403a315f,0,91,91,159,1,fourthree,,,,,,,,,,,,,,,,,,,,,,,,,,,,,,,,,,,,,,,,,,,,,,,,,,,,,,,,,,,,,,,,,,,,,,,,,,,,,,,,,,,,,,,,,,,,,,,,,,,,,,,,,,,,,,,,,,,,,,,,,,,,,,,,,,,,,,,,,,,,,,,,,,,,,,,,,,,,,
,,,,,,615ac7f75335e45f5539ed36,62c53960614ceb72cf758a83,2022-07-06_09h29.58.830,Colour_Asymmetry_Pilot,2022.1.3,Win32,60.04202942,62c50e9c1127f2cd403a315f,0,92,92,66,1,twoone,,,,,,,,,,,,,,,,,,,,,,,,,,,,,,,,,,,,,,,,,,,,,,,,,,,,,,,,,,,,,,,,,,,,,,,,,,,,,,,,,,,,,,,,,,,,,,,,,,,,,,,,,,,,,,,,,,,,,,,,,,,,,,,,,,,,,,,,,,,,,,,,,,,,,,,,,,,,,
,,,,,,615ac7f75335e45f5539ed36,62c53960614ceb72cf758a83,2022-07-06_09h29.58.830,Colour_Asymmetry_Pilot,2022.1.3,Win32,60.04202942,62c50e9c1127f2cd403a315f,0,93,93,107,1,twofour,,,,,,,,,,,,,,,,,,,,,,,,,,,,,,,,,,,,,,,,,,,,,,,,,,,,,,,,,,,,,,,,,,,,,,,,,,,,,,,,,,,,,,,,,,,,,,,,,,,,,,,,,,,,,,,,,,,,,,,,,,,,,,,,,,,,,,,,,,,,,,,,,,,,,,,,,,,,,
,,,,,,615ac7f75335e45f5539ed36,62c53960614ceb72cf758a83,2022-07-06_09h29.58.830,Colour_Asymmetry_Pilot,2022.1.3,Win32,60.04202942,62c50e9c1127f2cd403a315f,0,94,94,120,1,onetwo,,,,,,,,,,,,,,,,,,,,,,,,,,,,,,,,,,,,,,,,,,,,,,,,,,,,,,,,,,,,,,,,,,,,,,,,,,,,,,,,,,,,,,,,,,,,,,,,,,,,,,,,,,,,,,,,,,,,,,,,,,,,,,,,,,,,,,,,,,,,,,,,,,,,,,,,,,,,,
,,,,,,615ac7f75335e45f5539ed36,62c53960614ceb72cf758a83,2022-07-06_09h29.58.830,Colour_Asymmetry_Pilot,2022.1.3,Win32,60.04202942,62c50e9c1127f2cd403a315f,0,95,95,54,1,fourtwo,,,,,,,,,,,,,,,,,,,,,,,,,,,,,,,,,,,,,,,,,,,,,,,,,,,,,,,,,,,,,,,,,,,,,,,,,,,,,,,,,,,,,,,,,,,,,,,,,,,,,,,,,,,,,,,,,,,,,,,,,,,,,,,,,,,,,,,,,,,,,,,,,,,,,,,,,,,,,
,,,,,,615ac7f75335e45f5539ed36,62c53960614ceb72cf758a83,2022-07-06_09h29.58.830,Colour_Asymmetry_Pilot,2022.1.3,Win32,60.04202942,62c50e9c1127f2cd403a315f,0,96,96,52,1,threeone,,,,,,,,,,,,,,,,,,,,,,,,,,,,,,,,,,,,,,,,,,,,,,,,,,,,,,,,,,,,,,,,,,,,,,,,,,,,,,,,,,,,,,,,,,,,,,,,,,,,,,,,,,,,,,,,,,,,,,,,,,,,,,,,,,,,,,,,,,,,,,,,,,,,,,,,,,,,,
,,,,,,615ac7f75335e45f5539ed36,62c53960614ceb72cf758a83,2022-07-06_09h29.58.830,Colour_Asymmetry_Pilot,2022.1.3,Win32,60.04202942,62c50e9c1127f2cd403a315f,0,97,97,51,1,twofour,,,,,,,,,,,,,,,,,,,,,,,,,,,,,,,,,,,,,,,,,,,,,,,,,,,,,,,,,,,,,,,,,,,,,,,,,,,,,,,,,,,,,,,,,,,,,,,,,,,,,,,,,,,,,,,,,,,,,,,,,,,,,,,,,,,,,,,,,,,,,,,,,,,,,,,,,,,,,
,,,,,,615ac7f75335e45f5539ed36,62c53960614ceb72cf758a83,2022-07-06_09h29.58.830,Colour_Asymmetry_Pilot,2022.1.3,Win32,60.04202942,62c50e9c1127f2cd403a315f,0,98,98,46,1,fourtwo,,,,,,,,,,,,,,,,,,,,,,,,,,,,,,,,,,,,,,,,,,,,,,,,,,,,,,,,,,,,,,,,,,,,,,,,,,,,,,,,,,,,,,,,,,,,,,,,,,,,,,,,,,,,,,,,,,,,,,,,,,,,,,,,,,,,,,,,,,,,,,,,,,,,,,,,,,,,,
,,,,,,615ac7f75335e45f5539ed36,62c53960614ceb72cf758a83,2022-07-06_09h29.58.830,Colour_Asymmetry_Pilot,2022.1.3,Win32,60.04202942,62c50e9c1127f2cd403a315f,0,99,99,67,1,twofour,,,,,,,,,,,,,,,,,,,,,,,,,,,,,,,,,,,,,,,,,,,,,,,,,,,,,,,,,,,,,,,,,,,,,,,,,,,,,,,,,,,,,,,,,,,,,,,,,,,,,,,,,,,,,,,,,,,,,,,,,,,,,,,,,,,,,,,,,,,,,,,,,,,,,,,,,,,,,
,,,,,,615ac7f75335e45f5539ed36,62c53960614ceb72cf758a83,2022-07-06_09h29.58.830,Colour_Asymmetry_Pilot,2022.1.3,Win32,60.04202942,62c50e9c1127f2cd403a315f,0,100,100,134,1,fourtwo,,,,,,,,,,,,,,,,,,,,,,,,,,,,,,,,,,,,,,,,,,,,,,,,,,,,,,,,,,,,,,,,,,,,,,,,,,,,,,,,,,,,,,,,,,,,,,,,,,,,,,,,,,,,,,,,,,,,,,,,,,,,,,,,,,,,,,,,,,,,,,,,,,,,,,,,,,,,,
,,,,,,615ac7f75335e45f5539ed36,62c53960614ceb72cf758a83,2022-07-06_09h29.58.830,Colour_Asymmetry_Pilot,2022.1.3,Win32,60.04202942,62c50e9c1127f2cd403a315f,0,101,101,24,1,onetwo,,,,,,,,,,,,,,,,,,,,,,,,,,,,,,,,,,,,,,,,,,,,,,,,,,,,,,,,,,,,,,,,,,,,,,,,,,,,,,,,,,,,,,,,,,,,,,,,,,,,,,,,,,,,,,,,,,,,,,,,,,,,,,,,,,,,,,,,,,,,,,,,,,,,,,,,,,,,,
,,,,,,615ac7f75335e45f5539ed36,62c53960614ceb72cf758a83,2022-07-06_09h29.58.830,Colour_Asymmetry_Pilot,2022.1.3,Win32,60.04202942,62c50e9c1127f2cd403a315f,0,102,102,50,1,twoone,,,,,,,,,,,,,,,,,,,,,,,,,,,,,,,,,,,,,,,,,,,,,,,,,,,,,,,,,,,,,,,,,,,,,,,,,,,,,,,,,,,,,,,,,,,,,,,,,,,,,,,,,,,,,,,,,,,,,,,,,,,,,,,,,,,,,,,,,,,,,,,,,,,,,,,,,,,,,
,,,,,,615ac7f75335e45f5539ed36,62c53960614ceb72cf758a83,2022-07-06_09h29.58.830,Colour_Asymmetry_Pilot,2022.1.3,Win32,60.04202942,62c50e9c1127f2cd403a315f,0,103,103,48,1,onetwo,,,,,,,,,,,,,,,,,,,,,,,,,,,,,,,,,,,,,,,,,,,,,,,,,,,,,,,,,,,,,,,,,,,,,,,,,,,,,,,,,,,,,,,,,,,,,,,,,,,,,,,,,,,,,,,,,,,,,,,,,,,,,,,,,,,,,,,,,,,,,,,,,,,,,,,,,,,,,
,,,,,,615ac7f75335e45f5539ed36,62c53960614ceb72cf758a83,2022-07-06_09h29.58.830,Colour_Asymmetry_Pilot,2022.1.3,Win32,60.04202942,62c50e9c1127f2cd403a315f,0,104,104,121,1,onethree,,,,,,,,,,,,,,,,,,,,,,,,,,,,,,,,,,,,,,,,,,,,,,,,,,,,,,,,,,,,,,,,,,,,,,,,,,,,,,,,,,,,,,,,,,,,,,,,,,,,,,,,,,,,,,,,,,,,,,,,,,,,,,,,,,,,,,,,,,,,,,,,,,,,,,,,,,,,,
,,,,,,615ac7f75335e45f5539ed36,62c53960614ceb72cf758a83,2022-07-06_09h29.58.830,Colour_Asymmetry_Pilot,2022.1.3,Win32,60.04202942,62c50e9c1127f2cd403a315f,0,105,105,88,1,onetwo,,,,,,,,,,,,,,,,,,,,,,,,,,,,,,,,,,,,,,,,,,,,,,,,,,,,,,,,,,,,,,,,,,,,,,,,,,,,,,,,,,,,,,,,,,,,,,,,,,,,,,,,,,,,,,,,,,,,,,,,,,,,,,,,,,,,,,,,,,,,,,,,,,,,,,,,,,,,,
,,,,,,615ac7f75335e45f5539ed36,62c53960614ceb72cf758a83,2022-07-06_09h29.58.830,Colour_Asymmetry_Pilot,2022.1.3,Win32,60.04202942,62c50e9c1127f2cd403a315f,0,106,106,83,1,twofour,,,,,,,,,,,,,,,,,,,,,,,,,,,,,,,,,,,,,,,,,,,,,,,,,,,,,,,,,,,,,,,,,,,,,,,,,,,,,,,,,,,,,,,,,,,,,,,,,,,,,,,,,,,,,,,,,,,,,,,,,,,,,,,,,,,,,,,,,,,,,,,,,,,,,,,,,,,,,
,,,,,,615ac7f75335e45f5539ed36,62c53960614ceb72cf758a83,2022-07-06_09h29.58.830,Colour_Asymmetry_Pilot,2022.1.3,Win32,60.04202942,62c50e9c1127f2cd403a315f,0,107,107,64,1,onetwo,,,,,,,,,,,,,,,,,,,,,,,,,,,,,,,,,,,,,,,,,,,,,,,,,,,,,,,,,,,,,,,,,,,,,,,,,,,,,,,,,,,,,,,,,,,,,,,,,,,,,,,,,,,,,,,,,,,,,,,,,,,,,,,,,,,,,,,,,,,,,,,,,,,,,,,,,,,,,
,,,,,,615ac7f75335e45f5539ed36,62c53960614ceb72cf758a83,2022-07-06_09h29.58.830,Colour_Asymmetry_Pilot,2022.1.3,Win32,60.04202942,62c50e9c1127f2cd403a315f,0,108,108,139,1,twofour,,,,,,,,,,,,,,,,,,,,,,,,,,,,,,,,,,,,,,,,,,,,,,,,,,,,,,,,,,,,,,,,,,,,,,,,,,,,,,,,,,,,,,,,,,,,,,,,,,,,,,,,,,,,,,,,,,,,,,,,,,,,,,,,,,,,,,,,,,,,,,,,,,,,,,,,,,,,,
,,,,,,615ac7f75335e45f5539ed36,62c53960614ceb72cf758a83,2022-07-06_09h29.58.830,Colour_Asymmetry_Pilot,2022.1.3,Win32,60.04202942,62c50e9c1127f2cd403a315f,0,109,109,59,1,twofour,,,,,,,,,,,,,,,,,,,,,,,,,,,,,,,,,,,,,,,,,,,,,,,,,,,,,,,,,,,,,,,,,,,,,,,,,,,,,,,,,,,,,,,,,,,,,,,,,,,,,,,,,,,,,,,,,,,,,,,,,,,,,,,,,,,,,,,,,,,,,,,,,,,,,,,,,,,,,
,,,,,,615ac7f75335e45f5539ed36,62c53960614ceb72cf758a83,2022-07-06_09h29.58.830,Colour_Asymmetry_Pilot,2022.1.3,Win32,60.04202942,62c50e9c1127f2cd403a315f,0,110,110,62,1,fourtwo,,,,,,,,,,,,,,,,,,,,,,,,,,,,,,,,,,,,,,,,,,,,,,,,,,,,,,,,,,,,,,,,,,,,,,,,,,,,,,,,,,,,,,,,,,,,,,,,,,,,,,,,,,,,,,,,,,,,,,,,,,,,,,,,,,,,,,,,,,,,,,,,,,,,,,,,,,,,,
,,,,,,615ac7f75335e45f5539ed36,62c53960614ceb72cf758a83,2022-07-06_09h29.58.830,Colour_Asymmetry_Pilot,2022.1.3,Win32,60.04202942,62c50e9c1127f2cd403a315f,0,111,111,97,1,onethree,,,,,,,,,,,,,,,,,,,,,,,,,,,,,,,,,,,,,,,,,,,,,,,,,,,,,,,,,,,,,,,,,,,,,,,,,,,,,,,,,,,,,,,,,,,,,,,,,,,,,,,,,,,,,,,,,,,,,,,,,,,,,,,,,,,,,,,,,,,,,,,,,,,,,,,,,,,,,
,,,,,,615ac7f75335e45f5539ed36,62c53960614ceb72cf758a83,2022-07-06_09h29.58.830,Colour_Asymmetry_Pilot,2022.1.3,Win32,60.04202942,62c50e9c1127f2cd403a315f,0,112,112,126,1,fourtwo,,,,,,,,,,,,,,,,,,,,,,,,,,,,,,,,,,,,,,,,,,,,,,,,,,,,,,,,,,,,,,,,,,,,,,,,,,,,,,,,,,,,,,,,,,,,,,,,,,,,,,,,,,,,,,,,,,,,,,,,,,,,,,,,,,,,,,,,,,,,,,,,,,,,,,,,,,,,,
,,,,,,615ac7f75335e45f5539ed36,62c53960614ceb72cf758a83,2022-07-06_09h29.58.830,Colour_Asymmetry_Pilot,2022.1.3,Win32,60.04202942,62c50e9c1127f2cd403a315f,0,113,113,110,1,fourtwo,,,,,,,,,,,,,,,,,,,,,,,,,,,,,,,,,,,,,,,,,,,,,,,,,,,,,,,,,,,,,,,,,,,,,,,,,,,,,,,,,,,,,,,,,,,,,,,,,,,,,,,,,,,,,,,,,,,,,,,,,,,,,,,,,,,,,,,,,,,,,,,,,,,,,,,,,,,,,
,,,,,,615ac7f75335e45f5539ed36,62c53960614ceb72cf758a83,2022-07-06_09h29.58.830,Colour_Asymmetry_Pilot,2022.1.3,Win32,60.04202942,62c50e9c1127f2cd403a315f,0,114,114,93,1,threefour,,,,,,,,,,,,,,,,,,,,,,,,,,,,,,,,,,,,,,,,,,,,,,,,,,,,,,,,,,,,,,,,,,,,,,,,,,,,,,,,,,,,,,,,,,,,,,,,,,,,,,,,,,,,,,,,,,,,,,,,,,,,,,,,,,,,,,,,,,,,,,,,,,,,,,,,,,,,,
,,,,,,615ac7f75335e45f5539ed36,62c53960614ceb72cf758a83,2022-07-06_09h29.58.830,Colour_Asymmetry_Pilot,2022.1.3,Win32,60.04202942,62c50e9c1127f2cd403a315f,0,115,115,91,1,twofour,,,,,,,,,,,,,,,,,,,,,,,,,,,,,,,,,,,,,,,,,,,,,,,,,,,,,,,,,,,,,,,,,,,,,,,,,,,,,,,,,,,,,,,,,,,,,,,,,,,,,,,,,,,,,,,,,,,,,,,,,,,,,,,,,,,,,,,,,,,,,,,,,,,,,,,,,,,,,
,,,,,,615ac7f75335e45f5539ed36,62c53960614ceb72cf758a83,2022-07-06_09h29.58.830,Colour_Asymmetry_Pilot,2022.1.3,Win32,60.04202942,62c50e9c1127f2cd403a315f,0,116,116,19,1,twofour,,,,,,,,,,,,,,,,,,,,,,,,,,,,,,,,,,,,,,,,,,,,,,,,,,,,,,,,,,,,,,,,,,,,,,,,,,,,,,,,,,,,,,,,,,,,,,,,,,,,,,,,,,,,,,,,,,,,,,,,,,,,,,,,,,,,,,,,,,,,,,,,,,,,,,,,,,,,,
,,,,,,615ac7f75335e45f5539ed36,62c53960614ceb72cf758a83,2022-07-06_09h29.58.830,Colour_Asymmetry_Pilot,2022.1.3,Win32,60.04202942,62c50e9c1127f2cd403a315f,0,117,117,148,1,threeone,,,,,,,,,,,,,,,,,,,,,,,,,,,,,,,,,,,,,,,,,,,,,,,,,,,,,,,,,,,,,,,,,,,,,,,,,,,,,,,,,,,,,,,,,,,,,,,,,,,,,,,,,,,,,,,,,,,,,,,,,,,,,,,,,,,,,,,,,,,,,,,,,,,,,,,,,,,,,
,,,,,,615ac7f75335e45f5539ed36,62c53960614ceb72cf758a83,2022-07-06_09h29.58.830,Colour_Asymmetry_Pilot,2022.1.3,Win32,60.04202942,62c50e9c1127f2cd403a315f,0,118,118,33,1,onethree,,,,,,,,,,,,,,,,,,,,,,,,,,,,,,,,,,,,,,,,,,,,,,,,,,,,,,,,,,,,,,,,,,,,,,,,,,,,,,,,,,,,,,,,,,,,,,,,,,,,,,,,,,,,,,,,,,,,,,,,,,,,,,,,,,,,,,,,,,,,,,,,,,,,,,,,,,,,,
,,,,,,615ac7f75335e45f5539ed36,62c53960614ceb72cf758a83,2022-07-06_09h29.58.830,Colour_Asymmetry_Pilot,2022.1.3,Win32,60.04202942,62c50e9c1127f2cd403a315f,0,119,119,10,1,twoone,,,,,,,,,,,,,,,,,,,,,,,,,,,,,,,,,,,,,,,,,,,,,,,,,,,,,,,,,,,,,,,,,,,,,,,,,,,,,,,,,,,,,,,,,,,,,,,,,,,,,,,,,,,,,,,,,,,,,,,,,,,,,,,,,,,,,,,,,,,,,,,,,,,,,,,,,,,,,
,,,,,,615ac7f75335e45f5539ed36,62c53960614ceb72cf758a83,2022-07-06_09h29.58.830,Colour_Asymmetry_Pilot,2022.1.3,Win32,60.04202942,62c50e9c1127f2cd403a315f,0,120,120,156,1,threeone,,,,,,,,,,,,,,,,,,,,,,,,,,,,,,,,,,,,,,,,,,,,,,,,,,,,,,,,,,,,,,,,,,,,,,,,,,,,,,,,,,,,,,,,,,,,,,,,,,,,,,,,,,,,,,,,,,,,,,,,,,,,,,,,,,,,,,,,,,,,,,,,,,,,,,,,,,,,,
,,,,,,615ac7f75335e45f5539ed36,62c53960614ceb72cf758a83,2022-07-06_09h29.58.830,Colour_Asymmetry_Pilot,2022.1.3,Win32,60.04202942,62c50e9c1127f2cd403a315f,0,121,121,130,1,twoone,,,,,,,,,,,,,,,,,,,,,,,,,,,,,,,,,,,,,,,,,,,,,,,,,,,,,,,,,,,,,,,,,,,,,,,,,,,,,,,,,,,,,,,,,,,,,,,,,,,,,,,,,,,,,,,,,,,,,,,,,,,,,,,,,,,,,,,,,,,,,,,,,,,,,,,,,,,,,
,,,,,,615ac7f75335e45f5539ed36,62c53960614ceb72cf758a83,2022-07-06_09h29.58.830,Colour_Asymmetry_Pilot,2022.1.3,Win32,60.04202942,62c50e9c1127f2cd403a315f,0,122,122,61,1,threefour,,,,,,,,,,,,,,,,,,,,,,,,,,,,,,,,,,,,,,,,,,,,,,,,,,,,,,,,,,,,,,,,,,,,,,,,,,,,,,,,,,,,,,,,,,,,,,,,,,,,,,,,,,,,,,,,,,,,,,,,,,,,,,,,,,,,,,,,,,,,,,,,,,,,,,,,,,,,,
,,,,,,615ac7f75335e45f5539ed36,62c53960614ceb72cf758a83,2022-07-06_09h29.58.830,Colour_Asymmetry_Pilot,2022.1.3,Win32,60.04202942,62c50e9c1127f2cd403a315f,0,123,123,111,1,fourthree,,,,,,,,,,,,,,,,,,,,,,,,,,,,,,,,,,,,,,,,,,,,,,,,,,,,,,,,,,,,,,,,,,,,,,,,,,,,,,,,,,,,,,,,,,,,,,,,,,,,,,,,,,,,,,,,,,,,,,,,,,,,,,,,,,,,,,,,,,,,,,,,,,,,,,,,,,,,,
,,,,,,615ac7f75335e45f5539ed36,62c53960614ceb72cf758a83,2022-07-06_09h29.58.830,Colour_Asymmetry_Pilot,2022.1.3,Win32,60.04202942,62c50e9c1127f2cd403a315f,0,124,124,79,1,fourthree,,,,,,,,,,,,,,,,,,,,,,,,,,,,,,,,,,,,,,,,,,,,,,,,,,,,,,,,,,,,,,,,,,,,,,,,,,,,,,,,,,,,,,,,,,,,,,,,,,,,,,,,,,,,,,,,,,,,,,,,,,,,,,,,,,,,,,,,,,,,,,,,,,,,,,,,,,,,,
,,,,,,615ac7f75335e45f5539ed36,62c53960614ceb72cf758a83,2022-07-06_09h29.58.830,Colour_Asymmetry_Pilot,2022.1.3,Win32,60.04202942,62c50e9c1127f2cd403a315f,0,125,125,153,1,onethree,,,,,,,,,,,,,,,,,,,,,,,,,,,,,,,,,,,,,,,,,,,,,,,,,,,,,,,,,,,,,,,,,,,,,,,,,,,,,,,,,,,,,,,,,,,,,,,,,,,,,,,,,,,,,,,,,,,,,,,,,,,,,,,,,,,,,,,,,,,,,,,,,,,,,,,,,,,,,
,,,,,,615ac7f75335e45f5539ed36,62c53960614ceb72cf758a83,2022-07-06_09h29.58.830,Colour_Asymmetry_Pilot,2022.1.3,Win32,60.04202942,62c50e9c1127f2cd403a315f,0,126,126,71,1,fourthree,,,,,,,,,,,,,,,,,,,,,,,,,,,,,,,,,,,,,,,,,,,,,,,,,,,,,,,,,,,,,,,,,,,,,,,,,,,,,,,,,,,,,,,,,,,,,,,,,,,,,,,,,,,,,,,,,,,,,,,,,,,,,,,,,,,,,,,,,,,,,,,,,,,,,,,,,,,,,
,,,,,,615ac7f75335e45f5539ed36,62c53960614ceb72cf758a83,2022-07-06_09h29.58.830,Colour_Asymmetry_Pilot,2022.1.3,Win32,60.04202942,62c50e9c1127f2cd403a315f,0,127,127,116,1,threeone,,,,,,,,,,,,,,,,,,,,,,,,,,,,,,,,,,,,,,,,,,,,,,,,,,,,,,,,,,,,,,,,,,,,,,,,,,,,,,,,,,,,,,,,,,,,,,,,,,,,,,,,,,,,,,,,,,,,,,,,,,,,,,,,,,,,,,,,,,,,,,,,,,,,,,,,,,,,,
,,,,,,615ac7f75335e45f5539ed36,62c53960614ceb72cf758a83,2022-07-06_09h29.58.830,Colour_Asymmetry_Pilot,2022.1.3,Win32,60.04202942,62c50e9c1127f2cd403a315f,0,128,128,81,1,onethree,,,,,,,,,,,,,,,,,,,,,,,,,,,,,,,,,,,,,,,,,,,,,,,,,,,,,,,,,,,,,,,,,,,,,,,,,,,,,,,,,,,,,,,,,,,,,,,,,,,,,,,,,,,,,,,,,,,,,,,,,,,,,,,,,,,,,,,,,,,,,,,,,,,,,,,,,,,,,
,,,,,,615ac7f75335e45f5539ed36,62c53960614ceb72cf758a83,2022-07-06_09h29.58.830,Colour_Asymmetry_Pilot,2022.1.3,Win32,60.04202942,62c50e9c1127f2cd403a315f,0,129,129,38,1,fourtwo,,,,,,,,,,,,,,,,,,,,,,,,,,,,,,,,,,,,,,,,,,,,,,,,,,,,,,,,,,,,,,,,,,,,,,,,,,,,,,,,,,,,,,,,,,,,,,,,,,,,,,,,,,,,,,,,,,,,,,,,,,,,,,,,,,,,,,,,,,,,,,,,,,,,,,,,,,,,,
,,,,,,615ac7f75335e45f5539ed36,62c53960614ceb72cf758a83,2022-07-06_09h29.58.830,Colour_Asymmetry_Pilot,2022.1.3,Win32,60.04202942,62c50e9c1127f2cd403a315f,0,130,130,84,1,threeone,,,,,,,,,,,,,,,,,,,,,,,,,,,,,,,,,,,,,,,,,,,,,,,,,,,,,,,,,,,,,,,,,,,,,,,,,,,,,,,,,,,,,,,,,,,,,,,,,,,,,,,,,,,,,,,,,,,,,,,,,,,,,,,,,,,,,,,,,,,,,,,,,,,,,,,,,,,,,
,,,,,,615ac7f75335e45f5539ed36,62c53960614ceb72cf758a83,2022-07-06_09h29.58.830,Colour_Asymmetry_Pilot,2022.1.3,Win32,60.04202942,62c50e9c1127f2cd403a315f,0,131,131,136,1,onetwo,,,,,,,,,,,,,,,,,,,,,,,,,,,,,,,,,,,,,,,,,,,,,,,,,,,,,,,,,,,,,,,,,,,,,,,,,,,,,,,,,,,,,,,,,,,,,,,,,,,,,,,,,,,,,,,,,,,,,,,,,,,,,,,,,,,,,,,,,,,,,,,,,,,,,,,,,,,,,
,,,,,,615ac7f75335e45f5539ed36,62c53960614ceb72cf758a83,2022-07-06_09h29.58.830,Colour_Asymmetry_Pilot,2022.1.3,Win32,60.04202942,62c50e9c1127f2cd403a315f,0,132,132,70,1,fourtwo,,,,,,,,,,,,,,,,,,,,,,,,,,,,,,,,,,,,,,,,,,,,,,,,,,,,,,,,,,,,,,,,,,,,,,,,,,,,,,,,,,,,,,,,,,,,,,,,,,,,,,,,,,,,,,,,,,,,,,,,,,,,,,,,,,,,,,,,,,,,,,,,,,,,,,,,,,,,,
,,,,,,615ac7f75335e45f5539ed36,62c53960614ceb72cf758a83,2022-07-06_09h29.58.830,Colour_Asymmetry_Pilot,2022.1.3,Win32,60.04202942,62c50e9c1127f2cd403a315f,0,133,133,101,1,threefour,,,,,,,,,,,,,,,,,,,,,,,,,,,,,,,,,,,,,,,,,,,,,,,,,,,,,,,,,,,,,,,,,,,,,,,,,,,,,,,,,,,,,,,,,,,,,,,,,,,,,,,,,,,,,,,,,,,,,,,,,,,,,,,,,,,,,,,,,,,,,,,,,,,,,,,,,,,,,
,,,,,,615ac7f75335e45f5539ed36,62c53960614ceb72cf758a83,2022-07-06_09h29.58.830,Colour_Asymmetry_Pilot,2022.1.3,Win32,60.04202942,62c50e9c1127f2cd403a315f,0,134,134,119,1,fourthree,,,,,,,,,,,,,,,,,,,,,,,,,,,,,,,,,,,,,,,,,,,,,,,,,,,,,,,,,,,,,,,,,,,,,,,,,,,,,,,,,,,,,,,,,,,,,,,,,,,,,,,,,,,,,,,,,,,,,,,,,,,,,,,,,,,,,,,,,,,,,,,,,,,,,,,,,,,,,
,,,,,,615ac7f75335e45f5539ed36,62c53960614ceb72cf758a83,2022-07-06_09h29.58.830,Colour_Asymmetry_Pilot,2022.1.3,Win32,60.04202942,62c50e9c1127f2cd403a315f,0,135,135,138,1,twoone,,,,,,,,,,,,,,,,,,,,,,,,,,,,,,,,,,,,,,,,,,,,,,,,,,,,,,,,,,,,,,,,,,,,,,,,,,,,,,,,,,,,,,,,,,,,,,,,,,,,,,,,,,,,,,,,,,,,,,,,,,,,,,,,,,,,,,,,,,,,,,,,,,,,,,,,,,,,,
,,,,,,615ac7f75335e45f5539ed36,62c53960614ceb72cf758a83,2022-07-06_09h29.58.830,Colour_Asymmetry_Pilot,2022.1.3,Win32,60.04202942,62c50e9c1127f2cd403a315f,0,136,136,75,1,twofour,,,,,,,,,,,,,,,,,,,,,,,,,,,,,,,,,,,,,,,,,,,,,,,,,,,,,,,,,,,,,,,,,,,,,,,,,,,,,,,,,,,,,,,,,,,,,,,,,,,,,,,,,,,,,,,,,,,,,,,,,,,,,,,,,,,,,,,,,,,,,,,,,,,,,,,,,,,,,
,,,,,,615ac7f75335e45f5539ed36,62c53960614ceb72cf758a83,2022-07-06_09h29.58.830,Colour_Asymmetry_Pilot,2022.1.3,Win32,60.04202942,62c50e9c1127f2cd403a315f,0,137,137,154,1,twoone,,,,,,,,,,,,,,,,,,,,,,,,,,,,,,,,,,,,,,,,,,,,,,,,,,,,,,,,,,,,,,,,,,,,,,,,,,,,,,,,,,,,,,,,,,,,,,,,,,,,,,,,,,,,,,,,,,,,,,,,,,,,,,,,,,,,,,,,,,,,,,,,,,,,,,,,,,,,,
,,,,,,615ac7f75335e45f5539ed36,62c53960614ceb72cf758a83,2022-07-06_09h29.58.830,Colour_Asymmetry_Pilot,2022.1.3,Win32,60.04202942,62c50e9c1127f2cd403a315f,0,138,138,22,1,fourtwo,,,,,,,,,,,,,,,,,,,,,,,,,,,,,,,,,,,,,,,,,,,,,,,,,,,,,,,,,,,,,,,,,,,,,,,,,,,,,,,,,,,,,,,,,,,,,,,,,,,,,,,,,,,,,,,,,,,,,,,,,,,,,,,,,,,,,,,,,,,,,,,,,,,,,,,,,,,,,
,,,,,,615ac7f75335e45f5539ed36,62c53960614ceb72cf758a83,2022-07-06_09h29.58.830,Colour_Asymmetry_Pilot,2022.1.3,Win32,60.04202942,62c50e9c1127f2cd403a315f,0,139,139,69,1,threefour,,,,,,,,,,,,,,,,,,,,,,,,,,,,,,,,,,,,,,,,,,,,,,,,,,,,,,,,,,,,,,,,,,,,,,,,,,,,,,,,,,,,,,,,,,,,,,,,,,,,,,,,,,,,,,,,,,,,,,,,,,,,,,,,,,,,,,,,,,,,,,,,,,,,,,,,,,,,,
,,,,,,615ac7f75335e45f5539ed36,62c53960614ceb72cf758a83,2022-07-06_09h29.58.830,Colour_Asymmetry_Pilot,2022.1.3,Win32,60.04202942,62c50e9c1127f2cd403a315f,0,140,140,118,1,fourtwo,,,,,,,,,,,,,,,,,,,,,,,,,,,,,,,,,,,,,,,,,,,,,,,,,,,,,,,,,,,,,,,,,,,,,,,,,,,,,,,,,,,,,,,,,,,,,,,,,,,,,,,,,,,,,,,,,,,,,,,,,,,,,,,,,,,,,,,,,,,,,,,,,,,,,,,,,,,,,
,,,,,,615ac7f75335e45f5539ed36,62c53960614ceb72cf758a83,2022-07-06_09h29.58.830,Colour_Asymmetry_Pilot,2022.1.3,Win32,60.04202942,62c50e9c1127f2cd403a315f,0,141,141,144,1,onetwo,,,,,,,,,,,,,,,,,,,,,,,,,,,,,,,,,,,,,,,,,,,,,,,,,,,,,,,,,,,,,,,,,,,,,,,,,,,,,,,,,,,,,,,,,,,,,,,,,,,,,,,,,,,,,,,,,,,,,,,,,,,,,,,,,,,,,,,,,,,,,,,,,,,,,,,,,,,,,
,,,,,,615ac7f75335e45f5539ed36,62c53960614ceb72cf758a83,2022-07-06_09h29.58.830,Colour_Asymmetry_Pilot,2022.1.3,Win32,60.04202942,62c50e9c1127f2cd403a315f,0,142,142,124,1,threeone,,,,,,,,,,,,,,,,,,,,,,,,,,,,,,,,,,,,,,,,,,,,,,,,,,,,,,,,,,,,,,,,,,,,,,,,,,,,,,,,,,,,,,,,,,,,,,,,,,,,,,,,,,,,,,,,,,,,,,,,,,,,,,,,,,,,,,,,,,,,,,,,,,,,,,,,,,,,,
,,,,,,615ac7f75335e45f5539ed36,62c53960614ceb72cf758a83,2022-07-06_09h29.58.830,Colour_Asymmetry_Pilot,2022.1.3,Win32,60.04202942,62c50e9c1127f2cd403a315f,0,143,143,30,1,fourtwo,,,,,,,,,,,,,,,,,,,,,,,,,,,,,,,,,,,,,,,,,,,,,,,,,,,,,,,,,,,,,,,,,,,,,,,,,,,,,,,,,,,,,,,,,,,,,,,,,,,,,,,,,,,,,,,,,,,,,,,,,,,,,,,,,,,,,,,,,,,,,,,,,,,,,,,,,,,,,
,,,,,,615ac7f75335e45f5539ed36,62c53960614ceb72cf758a83,2022-07-06_09h29.58.830,Colour_Asymmetry_Pilot,2022.1.3,Win32,60.04202942,62c50e9c1127f2cd403a315f,0,144,144,146,1,twoone,,,,,,,,,,,,,,,,,,,,,,,,,,,,,,,,,,,,,,,,,,,,,,,,,,,,,,,,,,,,,,,,,,,,,,,,,,,,,,,,,,,,,,,,,,,,,,,,,,,,,,,,,,,,,,,,,,,,,,,,,,,,,,,,,,,,,,,,,,,,,,,,,,,,,,,,,,,,,
,,,,,,615ac7f75335e45f5539ed36,62c53960614ceb72cf758a83,2022-07-06_09h29.58.830,Colour_Asymmetry_Pilot,2022.1.3,Win32,60.04202942,62c50e9c1127f2cd403a315f,0,145,145,4,1,threeone,,,,,,,,,,,,,,,,,,,,,,,,,,,,,,,,,,,,,,,,,,,,,,,,,,,,,,,,,,,,,,,,,,,,,,,,,,,,,,,,,,,,,,,,,,,,,,,,,,,,,,,,,,,,,,,,,,,,,,,,,,,,,,,,,,,,,,,,,,,,,,,,,,,,,,,,,,,,,
,,,,,,615ac7f75335e45f5539ed36,62c53960614ceb72cf758a83,2022-07-06_09h29.58.830,Colour_Asymmetry_Pilot,2022.1.3,Win32,60.04202942,62c50e9c1127f2cd403a315f,0,146,146,114,1,twoone,,,,,,,,,,,,,,,,,,,,,,,,,,,,,,,,,,,,,,,,,,,,,,,,,,,,,,,,,,,,,,,,,,,,,,,,,,,,,,,,,,,,,,,,,,,,,,,,,,,,,,,,,,,,,,,,,,,,,,,,,,,,,,,,,,,,,,,,,,,,,,,,,,,,,,,,,,,,,
,,,,,,615ac7f75335e45f5539ed36,62c53960614ceb72cf758a83,2022-07-06_09h29.58.830,Colour_Asymmetry_Pilot,2022.1.3,Win32,60.04202942,62c50e9c1127f2cd403a315f,0,147,147,0,1,onetwo,,,,,,,,,,,,,,,,,,,,,,,,,,,,,,,,,,,,,,,,,,,,,,,,,,,,,,,,,,,,,,,,,,,,,,,,,,,,,,,,,,,,,,,,,,,,,,,,,,,,,,,,,,,,,,,,,,,,,,,,,,,,,,,,,,,,,,,,,,,,,,,,,,,,,,,,,,,,,
,,,,,,615ac7f75335e45f5539ed36,62c53960614ceb72cf758a83,2022-07-06_09h29.58.830,Colour_Asymmetry_Pilot,2022.1.3,Win32,60.04202942,62c50e9c1127f2cd403a315f,0,148,148,152,1,onetwo,,,,,,,,,,,,,,,,,,,,,,,,,,,,,,,,,,,,,,,,,,,,,,,,,,,,,,,,,,,,,,,,,,,,,,,,,,,,,,,,,,,,,,,,,,,,,,,,,,,,,,,,,,,,,,,,,,,,,,,,,,,,,,,,,,,,,,,,,,,,,,,,,,,,,,,,,,,,,
,,,,,,615ac7f75335e45f5539ed36,62c53960614ceb72cf758a83,2022-07-06_09h29.58.830,Colour_Asymmetry_Pilot,2022.1.3,Win32,60.04202942,62c50e9c1127f2cd403a315f,0,149,149,15,1,fourthree,,,,,,,,,,,,,,,,,,,,,,,,,,,,,,,,,,,,,,,,,,,,,,,,,,,,,,,,,,,,,,,,,,,,,,,,,,,,,,,,,,,,,,,,,,,,,,,,,,,,,,,,,,,,,,,,,,,,,,,,,,,,,,,,,,,,,,,,,,,,,,,,,,,,,,,,,,,,,
,,,,,,615ac7f75335e45f5539ed36,62c53960614ceb72cf758a83,2022-07-06_09h29.58.830,Colour_Asymmetry_Pilot,2022.1.3,Win32,60.04202942,62c50e9c1127f2cd403a315f,0,150,150,21,1,threefour,,,,,,,,,,,,,,,,,,,,,,,,,,,,,,,,,,,,,,,,,,,,,,,,,,,,,,,,,,,,,,,,,,,,,,,,,,,,,,,,,,,,,,,,,,,,,,,,,,,,,,,,,,,,,,,,,,,,,,,,,,,,,,,,,,,,,,,,,,,,,,,,,,,,,,,,,,,,,
,,,,,,615ac7f75335e45f5539ed36,62c53960614ceb72cf758a83,2022-07-06_09h29.58.830,Colour_Asymmetry_Pilot,2022.1.3,Win32,60.04202942,62c50e9c1127f2cd403a315f,0,151,151,90,1,twoone,,,,,,,,,,,,,,,,,,,,,,,,,,,,,,,,,,,,,,,,,,,,,,,,,,,,,,,,,,,,,,,,,,,,,,,,,,,,,,,,,,,,,,,,,,,,,,,,,,,,,,,,,,,,,,,,,,,,,,,,,,,,,,,,,,,,,,,,,,,,,,,,,,,,,,,,,,,,,
,,,,,,615ac7f75335e45f5539ed36,62c53960614ceb72cf758a83,2022-07-06_09h29.58.830,Colour_Asymmetry_Pilot,2022.1.3,Win32,60.04202942,62c50e9c1127f2cd403a315f,0,152,152,56,1,onetwo,,,,,,,,,,,,,,,,,,,,,,,,,,,,,,,,,,,,,,,,,,,,,,,,,,,,,,,,,,,,,,,,,,,,,,,,,,,,,,,,,,,,,,,,,,,,,,,,,,,,,,,,,,,,,,,,,,,,,,,,,,,,,,,,,,,,,,,,,,,,,,,,,,,,,,,,,,,,,
,,,,,,615ac7f75335e45f5539ed36,62c53960614ceb72cf758a83,2022-07-06_09h29.58.830,Colour_Asymmetry_Pilot,2022.1.3,Win32,60.04202942,62c50e9c1127f2cd403a315f,0,153,153,132,1,threeone,,,,,,,,,,,,,,,,,,,,,,,,,,,,,,,,,,,,,,,,,,,,,,,,,,,,,,,,,,,,,,,,,,,,,,,,,,,,,,,,,,,,,,,,,,,,,,,,,,,,,,,,,,,,,,,,,,,,,,,,,,,,,,,,,,,,,,,,,,,,,,,,,,,,,,,,,,,,,
,,,,,,615ac7f75335e45f5539ed36,62c53960614ceb72cf758a83,2022-07-06_09h29.58.830,Colour_Asymmetry_Pilot,2022.1.3,Win32,60.04202942,62c50e9c1127f2cd403a315f,0,154,154,40,1,onetwo,,,,,,,,,,,,,,,,,,,,,,,,,,,,,,,,,,,,,,,,,,,,,,,,,,,,,,,,,,,,,,,,,,,,,,,,,,,,,,,,,,,,,,,,,,,,,,,,,,,,,,,,,,,,,,,,,,,,,,,,,,,,,,,,,,,,,,,,,,,,,,,,,,,,,,,,,,,,,
,,,,,,615ac7f75335e45f5539ed36,62c53960614ceb72cf758a83,2022-07-06_09h29.58.830,Colour_Asymmetry_Pilot,2022.1.3,Win32,60.04202942,62c50e9c1127f2cd403a315f,0,155,155,44,1,threeone,,,,,,,,,,,,,,,,,,,,,,,,,,,,,,,,,,,,,,,,,,,,,,,,,,,,,,,,,,,,,,,,,,,,,,,,,,,,,,,,,,,,,,,,,,,,,,,,,,,,,,,,,,,,,,,,,,,,,,,,,,,,,,,,,,,,,,,,,,,,,,,,,,,,,,,,,,,,,
,,,,,,615ac7f75335e45f5539ed36,62c53960614ceb72cf758a83,2022-07-06_09h29.58.830,Colour_Asymmetry_Pilot,2022.1.3,Win32,60.04202942,62c50e9c1127f2cd403a315f,0,156,156,147,1,twofour,,,,,,,,,,,,,,,,,,,,,,,,,,,,,,,,,,,,,,,,,,,,,,,,,,,,,,,,,,,,,,,,,,,,,,,,,,,,,,,,,,,,,,,,,,,,,,,,,,,,,,,,,,,,,,,,,,,,,,,,,,,,,,,,,,,,,,,,,,,,,,,,,,,,,,,,,,,,,
,,,,,,615ac7f75335e45f5539ed36,62c53960614ceb72cf758a83,2022-07-06_09h29.58.830,Colour_Asymmetry_Pilot,2022.1.3,Win32,60.04202942,62c50e9c1127f2cd403a315f,0,157,157,28,1,threeone,,,,,,,,,,,,,,,,,,,,,,,,,,,,,,,,,,,,,,,,,,,,,,,,,,,,,,,,,,,,,,,,,,,,,,,,,,,,,,,,,,,,,,,,,,,,,,,,,,,,,,,,,,,,,,,,,,,,,,,,,,,,,,,,,,,,,,,,,,,,,,,,,,,,,,,,,,,,,
,,,,,,615ac7f75335e45f5539ed36,62c53960614ceb72cf758a83,2022-07-06_09h29.58.830,Colour_Asymmetry_Pilot,2022.1.3,Win32,60.04202942,62c50e9c1127f2cd403a315f,0,158,158,161,1,onethree,,,,,,,,,,,,,,,,,,,,,,,,,,,,,,,,,,,,,,,,,,,,,,,,,,,,,,,,,,,,,,,,,,,,,,,,,,,,,,,,,,,,,,,,,,,,,,,,,,,,,,,,,,,,,,,,,,,,,,,,,,,,,,,,,,,,,,,,,,,,,,,,,,,,,,,,,,,,,
,,,,,,615ac7f75335e45f5539ed36,62c53960614ceb72cf758a83,2022-07-06_09h29.58.830,Colour_Asymmetry_Pilot,2022.1.3,Win32,60.04202942,62c50e9c1127f2cd403a315f,0,159,159,149,1,threefour,,,,,,,,,,,,,,,,,,,,,,,,,,,,,,,,,,,,,,,,,,,,,,,,,,,,,,,,,,,,,,,,,,,,,,,,,,,,,,,,,,,,,,,,,,,,,,,,,,,,,,,,,,,,,,,,,,,,,,,,,,,,,,,,,,,,,,,,,,,,,,,,,,,,,,,,,,,,,
,,,,,,615ac7f75335e45f5539ed36,62c53960614ceb72cf758a83,2022-07-06_09h29.58.830,Colour_Asymmetry_Pilot,2022.1.3,Win32,60.04202942,62c50e9c1127f2cd403a315f,0,160,160,78,1,fourtwo,,,,,,,,,,,,,,,,,,,,,,,,,,,,,,,,,,,,,,,,,,,,,,,,,,,,,,,,,,,,,,,,,,,,,,,,,,,,,,,,,,,,,,,,,,,,,,,,,,,,,,,,,,,,,,,,,,,,,,,,,,,,,,,,,,,,,,,,,,,,,,,,,,,,,,,,,,,,,
,,,,,,615ac7f75335e45f5539ed36,62c53960614ceb72cf758a83,2022-07-06_09h29.58.830,Colour_Asymmetry_Pilot,2022.1.3,Win32,60.04202942,62c50e9c1127f2cd403a315f,0,161,161,142,1,fourtwo,,,,,,,,,,,,,,,,,,,,,,,,,,,,,,,,,,,,,,,,,,,,,,,,,,,,,,,,,,,,,,,,,,,,,,,,,,,,,,,,,,,,,,,,,,,,,,,,,,,,,,,,,,,,,,,,,,,,,,,,,,,,,,,,,,,,,,,,,,,,,,,,,,,,,,,,,,,,,
,,,,,,615ac7f75335e45f5539ed36,62c53960614ceb72cf758a83,2022-07-06_09h29.58.830,Colour_Asymmetry_Pilot,2022.1.3,Win32,60.04202942,62c50e9c1127f2cd403a315f,,,,,,,space,4.3778,space,12.0532,space,30.2103,space,10.3145,space,6.0465,space,6.572,"[-0.38039999999999996,-0.4276,-0.1452]",fourthree,"[-0.17659999999999998,-0.2864,-0.8354]",-4,9.8534,-39,73.5,1,0,0,response7disk_5,-5,0.5,1,0,0,rectangle_8,-5,0.5,1,0,0,2,-5,0.5,1,0,0,0,0,0,0,1,,,,,,,,,,,,,,,,,,,,,,,,,,,,,,,,,,,,,,,,,,,,,,,,,,,,,,,,,,,,,,,,,,,,,,,,,,,,,,,,,,,,,,,,,,,,,,,,,,,,,,,,,,,,,,,,
,,,,,,615ac7f75335e45f5539ed36,62c53960614ceb72cf758a83,2022-07-06_09h29.58.830,Colour_Asymmetry_Pilot,2022.1.3,Win32,60.04202942,62c50e9c1127f2cd403a315f,,,,,,,,,,,,,,,,,,,"[0.3881999999999999,-0.23939999999999995,-0.05040000000000011]",twoone,"[-0.8982,-0.37259999999999993,0.2784]",-4,6.2881,-46,81.5,1,0,0,response7disk_5,-5,-1.5,1,0,0,rectangle_8,85,-41.5,1,0,0,2,2,-2.5,1,0,0,1,0,1,0,1,response3disk_7,5,rectangle_4,,,,,,,,,,,,,,,,,,,,,,,,,,,,,,,,,,,,,,,,,,,,,,,,,,,,,,,,,,,,,,,,,,,,,,,,,,,,,,,,,,,,,,,,,,,,,,,,,,,,,,,,,,,,,
,,,,,,615ac7f75335e45f5539ed36,62c53960614ceb72cf758a83,2022-07-06_09h29.58.830,Colour_Asymmetry_Pilot,2022.1.3,Win32,60.04202942,62c50e9c1127f2cd403a315f,,,,,,,,,,,,,,,,,,,"[0.05879999999999996,0.2784,0.5841999999999998]",fourthree,"[-0.45899999999999996,-0.3256,-0.9374]",-4,2.8648,-39,82.5,1,0,0,response7disk_5,-5,4.5,1,0,0,rectangle_8,94,-46.5,1,0,0,2,6,2.5,1,0,0,2,0,2,0,1,response3disk_7,5,rectangle_4,,,,,,,,,,,,,,,,,,,,,,,,,,,,,,,,,,,,,,,,,,,,,,,,,,,,,,,,,,,,,,,,,,,,,,,,,,,,,,,,,,,,,,,,,,,,,,,,,,,,,,,,,,,,,
,,,,,,615ac7f75335e45f5539ed36,62c53960614ceb72cf758a83,2022-07-06_09h29.58.830,Colour_Asymmetry_Pilot,2022.1.3,Win32,60.04202942,62c50e9c1127f2cd403a315f,,,,,,,,,,,,,,,,,,,"[-0.8118,-0.8198,-0.5452]",fourthree,"[0.3802000000000001,0.19199999999999995,-0.6394]",-4,2.3184,-44,85.5,1,0,0,response7disk_5,-2,2.5,1,0,0,rectangle_8,-2,2.5,1,0,0,2,-2,2.5,1,0,0,3,0,3,0,1,,,,,,,,,,,,,,,,,,,,,,,,,,,,,,,,,,,,,,,,,,,,,,,,,,,,,,,,,,,,,,,,,,,,,,,,,,,,,,,,,,,,,,,,,,,,,,,,,,,,,,,,,,,,,,,,
,,,,,,615ac7f75335e45f5539ed36,62c53960614ceb72cf758a83,2022-07-06_09h29.58.830,Colour_Asymmetry_Pilot,2022.1.3,Win32,60.04202942,62c50e9c1127f2cd403a315f,,,,,,,,,,,,,,,,,,,"[-0.4902000000000001,0.2704,-0.45899999999999996]",fourthree,"[-0.26280000000000003,-0.4746,-0.2158]",-4,2.1352,-40,75.5,1,0,0,response7disk_5,2,0.5,1,0,0,rectangle_8,2,0.5,1,0,0,2,2,0.5,1,0,0,4,0,4,0,1,,,,,,,,,,,,,,,,,,,,,,,,,,,,,,,,,,,,,,,,,,,,,,,,,,,,,,,,,,,,,,,,,,,,,,,,,,,,,,,,,,,,,,,,,,,,,,,,,,,,,,,,,,,,,,,,
,,,,,,615ac7f75335e45f5539ed36,62c53960614ceb72cf758a83,2022-07-06_09h29.58.830,Colour_Asymmetry_Pilot,2022.1.3,Win32,60.04202942,62c50e9c1127f2cd403a315f,,,,,,,,,,,,,,,,,,,"[0.3802000000000001,0.19199999999999995,-0.6394]",threeone,"[-0.6,0.16860000000000008,0.44300000000000006]",-4,2.3351,-29,77.5,1,0,0,response7disk_5,7,5.5,1,0,0,rectangle_8,7,5.5,1,0,0,2,7,5.5,1,0,0,5,0,5,0,1,,,,,,,,,,,,,,,,,,,,,,,,,,,,,,,,,,,,,,,,,,,,,,,,,,,,,,,,,,,,,,,,,,,,,,,,,,,,,,,,,,,,,,,,,,,,,,,,,,,,,,,,,,,,,,,,
,,,,,,615ac7f75335e45f5539ed36,62c53960614ceb72cf758a83,2022-07-06_09h29.58.830,Colour_Asymmetry_Pilot,2022.1.3,Win32,60.04202942,62c50e9c1127f2cd403a315f,,,,,,,,,,,,,,,,,,,"[0.19199999999999995,0.18419999999999992,0.5136000000000001]",twoone,"[-0.4276,0.0038000000000000256,-0.3256]",-3,4.6201,-81,19.5,1,0,0,response7disk_5,0,-5.5,1,0,0,rectangle_8,0,-5.5,1,0,0,2,0,-5.5,1,0,0,6,0,6,0,1,,,,,,,,,,,,,,,,,,,,,,,,,,,,,,,,,,,,,,,,,,,,,,,,,,,,,,,,,,,,,,,,,,,,,,,,,,,,,,,,,,,,,,,,,,,,,,,,,,,,,,,,,,,,,,,,
,,,,,,615ac7f75335e45f5539ed36,62c53960614ceb72cf758a83,2022-07-06_09h29.58.830,Colour_Asymmetry_Pilot,2022.1.3,Win32,60.04202942,62c50e9c1127f2cd403a315f,,,,,,,,,,,,,,,,,,,,threeone,,-3,2.1187,,,,,,,,,,,,,,,,,,,,,,,,,,,,,,,,space,5.3578,"[-0.48240000000000005,0.3175999999999999,0.2156]","[0.7018,0.7176,0.6155999999999999]",-76,29.5,1,0,0,response7disk,-8,-1.5,1,0,0,rectangle,-8,-1.5,1,0,0,,1,0.0033,0,-8,-1.5,1,0,0,0,0,0,68,1,68,first,,,,,,,,,,,,,,,,,,,,,,,,,,,,,,,,,,,,,,,,,,,,,,,,,,,,,,,,,,,,,,,,,,,,,,,,
,,,,,,615ac7f75335e45f5539ed36,62c53960614ceb72cf758a83,2022-07-06_09h29.58.830,Colour_Asymmetry_Pilot,2022.1.3,Win32,60.04202942,62c50e9c1127f2cd403a315f,,,,,,,,,,,,,,,,,,,,twoone,,-2,3.1519,,,,,,,,,,,,,,,,,,,,,,,,,,,,,,,,,,"[-0.34920000000000007,-0.702,-0.5216]","[0.8274000000000001,-0.5844,-0.9452]",-64,-35.5,1,0,0,response5disk,4,1.5,1,0,0,rectangle,4,1.5,1,0,0,,2,0.002,0,4,1.5,1,0,0,0,1,1,79,1,79,first,,,,,,,,,,,,,,,,,,,,,,,,,,,,,,,,,,,,,,,,,,,,,,,,,,,,,,,,,,,,,,,,,,,,,,,,
,,,,,,615ac7f75335e45f5539ed36,62c53960614ceb72cf758a83,2022-07-06_09h29.58.830,Colour_Asymmetry_Pilot,2022.1.3,Win32,60.04202942,62c50e9c1127f2cd403a315f,,,,,,,,,,,,,,,,,,,,fourthree,,-4,1.0842,,,,,,,,,,,,,,,,,,,,,,,,,,,,,,,,,,"[0.2862,0.7802,0.3568]","[0.5449999999999999,-0.31000000000000005,-0.0354000000000001]",-46,76.5,1,0,0,response7disk,-3,-4.5,1,0,0,rectangle,-3,-4.5,1,0,0,,2,0.0004,0,-3,-4.5,1,0,0,0,2,2,94,1,13,second,,,,,,,,,,,,,,,,,,,,,,,,,,,,,,,,,,,,,,,,,,,,,,,,,,,,,,,,,,,,,,,,,,,,,,,,
,,,,,,615ac7f75335e45f5539ed36,62c53960614ceb72cf758a83,2022-07-06_09h29.58.830,Colour_Asymmetry_Pilot,2022.1.3,Win32,60.04202942,62c50e9c1127f2cd403a315f,,,,,,,,,,,,,,,,,,,,threefour,,-4,2.1855,,,,,,,,,,,,,,,,,,,,,,,,,,,,,,,,,,"[0.9763999999999999,-0.1137999999999999,-0.6314]","[-0.9216,-0.5529999999999999,-0.3962]",-33,73.5,1,0,0,response7disk,0,2.5,1,0,0,rectangle,0,2.5,1,0,0,,3,0.0017,0,0,2.5,1,0,0,0,3,3,105,1,24,second,,,,,,,,,,,,,,,,,,,,,,,,,,,,,,,,,,,,,,,,,,,,,,,,,,,,,,,,,,,,,,,,,,,,,,,,
,,,,,,615ac7f75335e45f5539ed36,62c53960614ceb72cf758a83,2022-07-06_09h29.58.830,Colour_Asymmetry_Pilot,2022.1.3,Win32,60.04202942,62c50e9c1127f2cd403a315f,,,,,,,,,,,,,,,,,,,,twofour,,2,4.8371,,,,,,,,,,,,,,,,,,,,,,,,,,,,,,,,,,"[0.09799999999999986,-0.24719999999999998,0.15280000000000005]","[-0.5452,-0.608,0.2470000000000001]",82,-39.5,1,0,0,response3disk,-4,5.5,1,0,0,rectangle,-4,5.5,1,0,0,,3,0.0006,0,-4,5.5,1,0,0,0,4,4,6,1,6,first,,,,,,,,,,,,,,,,,,,,,,,,,,,,,,,,,,,,,,,,,,,,,,,,,,,,,,,,,,,,,,,,,,,,,,,,
,,,,,,615ac7f75335e45f5539ed36,62c53960614ceb72cf758a83,2022-07-06_09h29.58.830,Colour_Asymmetry_Pilot,2022.1.3,Win32,60.04202942,62c50e9c1127f2cd403a315f,,,,,,,,,,,,,,,,,,,,onethree,,-2,3.336,,,,,,,,,,,,,,,,,,,,,,,,,,,,,,,,,,"[-0.17659999999999998,0.3253999999999999,0.19999999999999996]","[-0.9766,-0.34920000000000007,0.2156]",-69,-30.5,1,0,0,response5disk,-2,-0.5,1,0,0,rectangle,-2,-0.5,1,0,0,,2,0.001,0,-2,-0.5,1,0,0,0,5,5,59,1,59,first,,,,,,,,,,,,,,,,,,,,,,,,,,,,,,,,,,,,,,,,,,,,,,,,,,,,,,,,,,,,,,,,,,,,,,,,
,,,,,,615ac7f75335e45f5539ed36,62c53960614ceb72cf758a83,2022-07-06_09h29.58.830,Colour_Asymmetry_Pilot,2022.1.3,Win32,60.04202942,62c50e9c1127f2cd403a315f,,,,,,,,,,,,,,,,,,,,threefour,,-4,0.9348,,,,,,,,,,,,,,,,,,,,,,,,,,,,,,,,,,"[0.18419999999999992,-0.4276,-0.404]","[-0.10599999999999998,-0.10599999999999998,0.5841999999999998]",-31,98.5,1,0,0,response7disk,-11,2.5,1,0,0,rectangle,-11,2.5,1,0,0,,1,0.0007,0,-11,2.5,1,0,0,0,6,6,154,1,73,second,,,,,,,,,,,,,,,,,,,,,,,,,,,,,,,,,,,,,,,,,,,,,,,,,,,,,,,,,,,,,,,,,,,,,,,,
,,,,,,615ac7f75335e45f5539ed36,62c53960614ceb72cf758a83,2022-07-06_09h29.58.830,Colour_Asymmetry_Pilot,2022.1.3,Win32,60.04202942,62c50e9c1127f2cd403a315f,,,,,,,,,,,,,,,,,,,,threefour,,-4,1.5651,,,,,,,,,,,,,,,,,,,,,,,,,,,,,,,,,,"[-0.9216,-0.5529999999999999,-0.3962]","[0.5449999999999999,-0.31000000000000005,-0.0354000000000001]",-36,61.5,1,0,0,response7disk,-7,3.5,1,0,0,rectangle,-7,3.5,1,0,0,,2,0.0014,0,-7,3.5,1,0,0,0,7,7,3,1,3,first,,,,,,,,,,,,,,,,,,,,,,,,,,,,,,,,,,,,,,,,,,,,,,,,,,,,,,,,,,,,,,,,,,,,,,,,
,,,,,,615ac7f75335e45f5539ed36,62c53960614ceb72cf758a83,2022-07-06_09h29.58.830,Colour_Asymmetry_Pilot,2022.1.3,Win32,60.04202942,62c50e9c1127f2cd403a315f,,,,,,,,,,,,,,,,,,,,fourthree,,2,2.268,,,,,,,,,,,,,,,,,,,,,,,,,,,,,,,,,,"[-0.26280000000000003,-0.2158,-0.3256]","[-0.09019999999999995,0.44300000000000006,0.5371999999999999]",86,-24.5,1,0,0,response3disk,6,7.5,1,0,0,rectangle,6,7.5,1,0,0,,2,0.0002,0,6,7.5,1,0,0,0,8,8,139,1,58,second,,,,,,,,,,,,,,,,,,,,,,,,,,,,,,,,,,,,,,,,,,,,,,,,,,,,,,,,,,,,,,,,,,,,,,,,
,,,,,,615ac7f75335e45f5539ed36,62c53960614ceb72cf758a83,2022-07-06_09h29.58.830,Colour_Asymmetry_Pilot,2022.1.3,Win32,60.04202942,62c50e9c1127f2cd403a315f,,,,,,,,,,,,,,,,,,,,fourtwo,,1,2.3545,,,,,,,,,,,,,,,,,,,,,,,,,,,,,,,,,,"[-0.2942,-0.7648,-0.7492000000000001]","[0.40379999999999994,0.09000000000000008,0.44300000000000006]",49,-71.5,1,0,0,response3disk,-5,6.5,1,0,0,rectangle,-5,6.5,1,0,0,,3,0.002,0,-5,6.5,1,0,0,0,9,9,38,1,38,first,,,,,,,,,,,,,,,,,,,,,,,,,,,,,,,,,,,,,,,,,,,,,,,,,,,,,,,,,,,,,,,,,,,,,,,,
,,,,,,615ac7f75335e45f5539ed36,62c53960614ceb72cf758a83,2022-07-06_09h29.58.830,Colour_Asymmetry_Pilot,2022.1.3,Win32,60.04202942,62c50e9c1127f2cd403a315f,,,,,,,,,,,,,,,,,,,,onethree,,-2,4.2695,,,,,,,,,,,,,,,,,,,,,,,,,,,,,,,,,,"[0.7018,0.7802,-0.16079999999999994]","[-0.9216,-0.5529999999999999,-0.3962]",-71,-22.5,1,0,0,response5disk,-16,10.5,1,0,0,rectangle,-16,10.5,1,0,0,,2,0.001,0,-16,10.5,1,0,0,0,10,10,112,1,31,second,,,,,,,,,,,,,,,,,,,,,,,,,,,,,,,,,,,,,,,,,,,,,,,,,,,,,,,,,,,,,,,,,,,,,,,,
,,,,,,615ac7f75335e45f5539ed36,62c53960614ceb72cf758a83,2022-07-06_09h29.58.830,Colour_Asymmetry_Pilot,2022.1.3,Win32,60.04202942,62c50e9c1127f2cd403a315f,,,,,,,,,,,,,,,,,,,,threefour,,-4,0.9344,,,,,,,,,,,,,,,,,,,,,,,,,,,,,,,,,,"[-0.011800000000000033,-0.906,-0.45100000000000007]","[-0.6706000000000001,-0.6157999999999999,-0.6786]",-37,60.5,1,0,0,response7disk,12,-6.5,1,0,0,rectangle,12,-6.5,1,0,0,,3,0.0018,0,12,-6.5,1,0,0,0,11,11,4,1,4,first,,,,,,,,,,,,,,,,,,,,,,,,,,,,,,,,,,,,,,,,,,,,,,,,,,,,,,,,,,,,,,,,,,,,,,,,
,,,,,,615ac7f75335e45f5539ed36,62c53960614ceb72cf758a83,2022-07-06_09h29.58.830,Colour_Asymmetry_Pilot,2022.1.3,Win32,60.04202942,62c50e9c1127f2cd403a315f,,,,,,,,,,,,,,,,,,,,fourthree,,-4,0.7009,,,,,,,,,,,,,,,,,,,,,,,,,,,,,,,,,,"[-0.9216,-0.5529999999999999,-0.3962]","[0.5528,0.7409999999999999,-0.71]",-44,75.5,1,0,0,response7disk,5,2.5,1,0,0,rectangle,5,2.5,1,0,0,,2,0.0011,0,5,2.5,1,0,0,0,12,12,23,1,23,first,,,,,,,,,,,,,,,,,,,,,,,,,,,,,,,,,,,,,,,,,,,,,,,,,,,,,,,,,,,,,,,,,,,,,,,,
,,,,,,615ac7f75335e45f5539ed36,62c53960614ceb72cf758a83,2022-07-06_09h29.58.830,Colour_Asymmetry_Pilot,2022.1.3,Win32,60.04202942,62c50e9c1127f2cd403a315f,,,,,,,,,,,,,,,,,,,,fourthree,,3,1.7514,,,,,,,,,,,,,,,,,,,,,,,,,,,,,,,,,,"[0.34099999999999997,0.12939999999999996,-0.9766]","[-0.4276,0.0038000000000000256,-0.3256]",53,24.5,1,0,0,response1disk,8,4.5,1,0,0,rectangle,8,4.5,1,0,0,,2,0.0007,0,8,4.5,1,0,0,0,13,13,138,1,57,second,,,,,,,,,,,,,,,,,,,,,,,,,,,,,,,,,,,,,,,,,,,,,,,,,,,,,,,,,,,,,,,,,,,,,,,,
,,,,,,615ac7f75335e45f5539ed36,62c53960614ceb72cf758a83,2022-07-06_09h29.58.830,Colour_Asymmetry_Pilot,2022.1.3,Win32,60.04202942,62c50e9c1127f2cd403a315f,,,,,,,,,,,,,,,,,,,,fourthree,,1,1.4847,,,,,,,,,,,,,,,,,,,,,,,,,,,,,,,,,,"[-0.30200000000000005,0.14500000000000002,0.2784]","[0.2862,0.7802,0.3568]",56,-83.5,1,0,0,response3disk,-5,4.5,1,0,0,rectangle,-5,4.5,1,0,0,,3,0.0016,0,-5,4.5,1,0,0,0,14,14,40,1,40,first,,,,,,,,,,,,,,,,,,,,,,,,,,,,,,,,,,,,,,,,,,,,,,,,,,,,,,,,,,,,,,,,,,,,,,,,
,,,,,,615ac7f75335e45f5539ed36,62c53960614ceb72cf758a83,2022-07-06_09h29.58.830,Colour_Asymmetry_Pilot,2022.1.3,Win32,60.04202942,62c50e9c1127f2cd403a315f,,,,,,,,,,,,,,,,,,,,onetwo,,-4,0.8015,,,,,,,,,,,,,,,,,,,,,,,,,,,,,,,,,,"[-0.0040000000000000036,0.02739999999999987,-0.08239999999999992]","[0.7176,-0.906,-0.6864]",-37,98.5,1,0,0,response7disk,-1,-3.5,1,0,0,rectangle,-1,-3.5,1,0,0,,3,0.0005,0,-1,-3.5,1,0,0,0,15,15,82,1,1,second,,,,,,,,,,,,,,,,,,,,,,,,,,,,,,,,,,,,,,,,,,,,,,,,,,,,,,,,,,,,,,,,,,,,,,,,
,,,,,,615ac7f75335e45f5539ed36,62c53960614ceb72cf758a83,2022-07-06_09h29.58.830,Colour_Asymmetry_Pilot,2022.1.3,Win32,60.04202942,62c50e9c1127f2cd403a315f,,,,,,,,,,,,,,,,,,,,fourthree,,2,1.452,,,,,,,,,,,,,,,,,,,,,,,,,,,,,,,,,,"[-0.30200000000000005,0.14500000000000002,0.2784]","[-0.10599999999999998,-0.10599999999999998,0.5841999999999998]",76,-27.5,1,0,0,response3disk,18,1.5,1,0,0,rectangle,18,1.5,1,0,0,,2,0.0022,0,18,1.5,1,0,0,0,16,16,116,1,35,second,,,,,,,,,,,,,,,,,,,,,,,,,,,,,,,,,,,,,,,,,,,,,,,,,,,,,,,,,,,,,,,,,,,,,,,,
,,,,,,615ac7f75335e45f5539ed36,62c53960614ceb72cf758a83,2022-07-06_09h29.58.830,Colour_Asymmetry_Pilot,2022.1.3,Win32,60.04202942,62c50e9c1127f2cd403a315f,,,,,,,,,,,,,,,,,,,,onetwo,,-4,1.5184,,,,,,,,,,,,,,,,,,,,,,,,,,,,,,,,,,"[-0.26280000000000003,-0.4746,-0.2158]","[0.6625999999999999,0.4980000000000002,-0.357]",-35,84.5,1,0,0,response7disk,-3,0.5,1,0,0,rectangle,-3,0.5,1,0,0,,2,0.0005,0,-3,0.5,1,0,0,0,17,17,96,1,15,second,,,,,,,,,,,,,,,,,,,,,,,,,,,,,,,,,,,,,,,,,,,,,,,,,,,,,,,,,,,,,,,,,,,,,,,,
