trials.thisRepN,trials.thisTrialN,trials.thisN,trials.thisIndex,trials.ran,Colourcodes,participant,session,date,expName,psychopyVersion,OS,frameRate,study_id,trials_4.thisRepN,trials_4.thisTrialN,trials_4.thisN,trials_4.thisIndex,trials_4.ran,StimulusPos,key_resp.keys,key_resp.rt,key_resp_2.keys,key_resp_2.rt,key_resp_15.keys,key_resp_15.rt,key_resp_17.keys,key_resp_17.rt,key_resp_9.keys,key_resp_9.rt,key_resp_10.keys,key_resp_10.rt,Circle1_col,Ecc,Circle2_col,similarity,response_time,mouse_5.x,mouse_5.y,mouse_5.leftButton,mouse_5.midButton,mouse_5.rightButton,mouse_5.clicked_name,mouse_10.x,mouse_10.y,mouse_10.leftButton,mouse_10.midButton,mouse_10.rightButton,mouse_10.clicked_name,mouse_7.x,mouse_7.y,mouse_7.leftButton,mouse_7.midButton,mouse_7.rightButton,mouse_7.clicked_name,catchprac,catchnumberprac,mouse_6.x,mouse_6.y,mouse_6.leftButton,mouse_6.midButton,mouse_6.rightButton,mouse_6.clicked_name,duringprac.thisRepN,duringprac.thisTrialN,duringprac.thisN,duringprac.thisIndex,duringprac.ran,key_resp_22.keys,key_resp_22.rt,Circle1_colour,Circle2_colour,mouse.x,mouse.y,mouse.leftButton,mouse.midButton,mouse.rightButton,mouse.clicked_name,mouse_2.x,mouse_2.y,mouse_2.leftButton,mouse_2.midButton,mouse_2.rightButton,mouse_2.clicked_name,mouse_3.x,mouse_3.y,mouse_3.leftButton,mouse_3.midButton,mouse_3.rightButton,catchresponse,catchnumber,response_time_catch,Catch,mouse_11.x,mouse_11.y,mouse_11.leftButton,mouse_11.midButton,mouse_11.rightButton,trials_2.thisRepN,trials_2.thisTrialN,trials_2.thisN,trials_2.thisIndex,trials_2.ran,Colourpair,Temporder,mouse_3.clicked_name,mouse_11.clicked_name,trials_3.thisRepN,trials_3.thisTrialN,trials_3.thisN,trials_3.thisIndex,trials_3.ran,key_resp_instr_Ishi.keys,key_resp_instr_Ishi.rt,Ishi_trial_keyresp.keys,Ishi_textbox.text,Ishi_mouse.x,Ishi_mouse.y,Ishi_mouse.leftButton,Ishi_mouse.midButton,Ishi_mouse.rightButton,Ishi_mouse.clicked_name,Ishi_loop.thisRepN,Ishi_loop.thisTrialN,Ishi_loop.thisN,Ishi_loop.thisIndex,Ishi_loop.ran,imageaddress,textbox.text,mouse_4.x,mouse_4.y,mouse_4.leftButton,mouse_4.midButton,mouse_4.rightButton,mouse_4.clicked_name,textbox_2.text,mouse_8.x,mouse_8.y,mouse_8.leftButton,mouse_8.midButton,mouse_8.rightButton,mouse_8.clicked_name,textbox_3.text,mouse_9.x,mouse_9.y,mouse_9.leftButton,mouse_9.midButton,mouse_9.rightButton,mouse_9.clicked_name,textbox_4.text,mouse_12.x,mouse_12.y,mouse_12.leftButton,mouse_12.midButton,mouse_12.rightButton,mouse_12.clicked_name,textbox_5.text,mouse_13.x,mouse_13.y,mouse_13.leftButton,mouse_13.midButton,mouse_13.rightButton,mouse_13.clicked_name,textbox_6.text,mouse_14.x,mouse_14.y,mouse_14.leftButton,mouse_14.midButton,mouse_14.rightButton,mouse_14.clicked_name,textbox_7.text,mouse_15.x,mouse_15.y,mouse_15.leftButton,mouse_15.midButton,mouse_15.rightButton,mouse_15.clicked_name
0,0,0,80,1,,615dec01ca05f190dc303f91,62c53c909f6109d1b7f3eea3,2022-07-06_24h44.00.450,Colour_Asymmetry_Pilot,2022.1.3,Win32,29.53511725,62c50e9c1127f2cd403a315f,,,,,,,,,,,,,,,,,,,,,,,,,,,,,,,,,,,,,,,,,,,,,,,,,,,,,,,,,,,,,,,,,,,,,,,,,,,,,,,,,,,,,,,,,,,,,,,,,,,,,,,,,,,,,,,,,,,,,,,,,,,,,,,,,,,,,,,,,,,,,,,,,,,,,,,,,,,,,,,,,,,
0,1,1,10,1,,615dec01ca05f190dc303f91,62c53c909f6109d1b7f3eea3,2022-07-06_24h44.00.450,Colour_Asymmetry_Pilot,2022.1.3,Win32,29.53511725,62c50e9c1127f2cd403a315f,,,,,,,,,,,,,,,,,,,,,,,,,,,,,,,,,,,,,,,,,,,,,,,,,,,,,,,,,,,,,,,,,,,,,,,,,,,,,,,,,,,,,,,,,,,,,,,,,,,,,,,,,,,,,,,,,,,,,,,,,,,,,,,,,,,,,,,,,,,,,,,,,,,,,,,,,,,,,,,,,,,
0,2,2,18,1,,615dec01ca05f190dc303f91,62c53c909f6109d1b7f3eea3,2022-07-06_24h44.00.450,Colour_Asymmetry_Pilot,2022.1.3,Win32,29.53511725,62c50e9c1127f2cd403a315f,,,,,,,,,,,,,,,,,,,,,,,,,,,,,,,,,,,,,,,,,,,,,,,,,,,,,,,,,,,,,,,,,,,,,,,,,,,,,,,,,,,,,,,,,,,,,,,,,,,,,,,,,,,,,,,,,,,,,,,,,,,,,,,,,,,,,,,,,,,,,,,,,,,,,,,,,,,,,,,,,,,
0,3,3,87,1,,615dec01ca05f190dc303f91,62c53c909f6109d1b7f3eea3,2022-07-06_24h44.00.450,Colour_Asymmetry_Pilot,2022.1.3,Win32,29.53511725,62c50e9c1127f2cd403a315f,,,,,,,,,,,,,,,,,,,,,,,,,,,,,,,,,,,,,,,,,,,,,,,,,,,,,,,,,,,,,,,,,,,,,,,,,,,,,,,,,,,,,,,,,,,,,,,,,,,,,,,,,,,,,,,,,,,,,,,,,,,,,,,,,,,,,,,,,,,,,,,,,,,,,,,,,,,,,,,,,,,
0,4,4,9,1,,615dec01ca05f190dc303f91,62c53c909f6109d1b7f3eea3,2022-07-06_24h44.00.450,Colour_Asymmetry_Pilot,2022.1.3,Win32,29.53511725,62c50e9c1127f2cd403a315f,,,,,,,,,,,,,,,,,,,,,,,,,,,,,,,,,,,,,,,,,,,,,,,,,,,,,,,,,,,,,,,,,,,,,,,,,,,,,,,,,,,,,,,,,,,,,,,,,,,,,,,,,,,,,,,,,,,,,,,,,,,,,,,,,,,,,,,,,,,,,,,,,,,,,,,,,,,,,,,,,,,
0,5,5,1,1,,615dec01ca05f190dc303f91,62c53c909f6109d1b7f3eea3,2022-07-06_24h44.00.450,Colour_Asymmetry_Pilot,2022.1.3,Win32,29.53511725,62c50e9c1127f2cd403a315f,,,,,,,,,,,,,,,,,,,,,,,,,,,,,,,,,,,,,,,,,,,,,,,,,,,,,,,,,,,,,,,,,,,,,,,,,,,,,,,,,,,,,,,,,,,,,,,,,,,,,,,,,,,,,,,,,,,,,,,,,,,,,,,,,,,,,,,,,,,,,,,,,,,,,,,,,,,,,,,,,,,
0,6,6,56,1,,615dec01ca05f190dc303f91,62c53c909f6109d1b7f3eea3,2022-07-06_24h44.00.450,Colour_Asymmetry_Pilot,2022.1.3,Win32,29.53511725,62c50e9c1127f2cd403a315f,,,,,,,,,,,,,,,,,,,,,,,,,,,,,,,,,,,,,,,,,,,,,,,,,,,,,,,,,,,,,,,,,,,,,,,,,,,,,,,,,,,,,,,,,,,,,,,,,,,,,,,,,,,,,,,,,,,,,,,,,,,,,,,,,,,,,,,,,,,,,,,,,,,,,,,,,,,,,,,,,,,
0,7,7,29,1,,615dec01ca05f190dc303f91,62c53c909f6109d1b7f3eea3,2022-07-06_24h44.00.450,Colour_Asymmetry_Pilot,2022.1.3,Win32,29.53511725,62c50e9c1127f2cd403a315f,,,,,,,,,,,,,,,,,,,,,,,,,,,,,,,,,,,,,,,,,,,,,,,,,,,,,,,,,,,,,,,,,,,,,,,,,,,,,,,,,,,,,,,,,,,,,,,,,,,,,,,,,,,,,,,,,,,,,,,,,,,,,,,,,,,,,,,,,,,,,,,,,,,,,,,,,,,,,,,,,,,
0,8,8,90,1,,615dec01ca05f190dc303f91,62c53c909f6109d1b7f3eea3,2022-07-06_24h44.00.450,Colour_Asymmetry_Pilot,2022.1.3,Win32,29.53511725,62c50e9c1127f2cd403a315f,,,,,,,,,,,,,,,,,,,,,,,,,,,,,,,,,,,,,,,,,,,,,,,,,,,,,,,,,,,,,,,,,,,,,,,,,,,,,,,,,,,,,,,,,,,,,,,,,,,,,,,,,,,,,,,,,,,,,,,,,,,,,,,,,,,,,,,,,,,,,,,,,,,,,,,,,,,,,,,,,,,
0,9,9,63,1,,615dec01ca05f190dc303f91,62c53c909f6109d1b7f3eea3,2022-07-06_24h44.00.450,Colour_Asymmetry_Pilot,2022.1.3,Win32,29.53511725,62c50e9c1127f2cd403a315f,,,,,,,,,,,,,,,,,,,,,,,,,,,,,,,,,,,,,,,,,,,,,,,,,,,,,,,,,,,,,,,,,,,,,,,,,,,,,,,,,,,,,,,,,,,,,,,,,,,,,,,,,,,,,,,,,,,,,,,,,,,,,,,,,,,,,,,,,,,,,,,,,,,,,,,,,,,,,,,,,,,
0,10,10,74,1,,615dec01ca05f190dc303f91,62c53c909f6109d1b7f3eea3,2022-07-06_24h44.00.450,Colour_Asymmetry_Pilot,2022.1.3,Win32,29.53511725,62c50e9c1127f2cd403a315f,,,,,,,,,,,,,,,,,,,,,,,,,,,,,,,,,,,,,,,,,,,,,,,,,,,,,,,,,,,,,,,,,,,,,,,,,,,,,,,,,,,,,,,,,,,,,,,,,,,,,,,,,,,,,,,,,,,,,,,,,,,,,,,,,,,,,,,,,,,,,,,,,,,,,,,,,,,,,,,,,,,
0,11,11,64,1,,615dec01ca05f190dc303f91,62c53c909f6109d1b7f3eea3,2022-07-06_24h44.00.450,Colour_Asymmetry_Pilot,2022.1.3,Win32,29.53511725,62c50e9c1127f2cd403a315f,,,,,,,,,,,,,,,,,,,,,,,,,,,,,,,,,,,,,,,,,,,,,,,,,,,,,,,,,,,,,,,,,,,,,,,,,,,,,,,,,,,,,,,,,,,,,,,,,,,,,,,,,,,,,,,,,,,,,,,,,,,,,,,,,,,,,,,,,,,,,,,,,,,,,,,,,,,,,,,,,,,
0,12,12,23,1,,615dec01ca05f190dc303f91,62c53c909f6109d1b7f3eea3,2022-07-06_24h44.00.450,Colour_Asymmetry_Pilot,2022.1.3,Win32,29.53511725,62c50e9c1127f2cd403a315f,,,,,,,,,,,,,,,,,,,,,,,,,,,,,,,,,,,,,,,,,,,,,,,,,,,,,,,,,,,,,,,,,,,,,,,,,,,,,,,,,,,,,,,,,,,,,,,,,,,,,,,,,,,,,,,,,,,,,,,,,,,,,,,,,,,,,,,,,,,,,,,,,,,,,,,,,,,,,,,,,,,
0,13,13,70,1,,615dec01ca05f190dc303f91,62c53c909f6109d1b7f3eea3,2022-07-06_24h44.00.450,Colour_Asymmetry_Pilot,2022.1.3,Win32,29.53511725,62c50e9c1127f2cd403a315f,,,,,,,,,,,,,,,,,,,,,,,,,,,,,,,,,,,,,,,,,,,,,,,,,,,,,,,,,,,,,,,,,,,,,,,,,,,,,,,,,,,,,,,,,,,,,,,,,,,,,,,,,,,,,,,,,,,,,,,,,,,,,,,,,,,,,,,,,,,,,,,,,,,,,,,,,,,,,,,,,,,
0,14,14,43,1,,615dec01ca05f190dc303f91,62c53c909f6109d1b7f3eea3,2022-07-06_24h44.00.450,Colour_Asymmetry_Pilot,2022.1.3,Win32,29.53511725,62c50e9c1127f2cd403a315f,,,,,,,,,,,,,,,,,,,,,,,,,,,,,,,,,,,,,,,,,,,,,,,,,,,,,,,,,,,,,,,,,,,,,,,,,,,,,,,,,,,,,,,,,,,,,,,,,,,,,,,,,,,,,,,,,,,,,,,,,,,,,,,,,,,,,,,,,,,,,,,,,,,,,,,,,,,,,,,,,,,
0,15,15,25,1,,615dec01ca05f190dc303f91,62c53c909f6109d1b7f3eea3,2022-07-06_24h44.00.450,Colour_Asymmetry_Pilot,2022.1.3,Win32,29.53511725,62c50e9c1127f2cd403a315f,,,,,,,,,,,,,,,,,,,,,,,,,,,,,,,,,,,,,,,,,,,,,,,,,,,,,,,,,,,,,,,,,,,,,,,,,,,,,,,,,,,,,,,,,,,,,,,,,,,,,,,,,,,,,,,,,,,,,,,,,,,,,,,,,,,,,,,,,,,,,,,,,,,,,,,,,,,,,,,,,,,
0,16,16,82,1,,615dec01ca05f190dc303f91,62c53c909f6109d1b7f3eea3,2022-07-06_24h44.00.450,Colour_Asymmetry_Pilot,2022.1.3,Win32,29.53511725,62c50e9c1127f2cd403a315f,,,,,,,,,,,,,,,,,,,,,,,,,,,,,,,,,,,,,,,,,,,,,,,,,,,,,,,,,,,,,,,,,,,,,,,,,,,,,,,,,,,,,,,,,,,,,,,,,,,,,,,,,,,,,,,,,,,,,,,,,,,,,,,,,,,,,,,,,,,,,,,,,,,,,,,,,,,,,,,,,,,
0,17,17,11,1,,615dec01ca05f190dc303f91,62c53c909f6109d1b7f3eea3,2022-07-06_24h44.00.450,Colour_Asymmetry_Pilot,2022.1.3,Win32,29.53511725,62c50e9c1127f2cd403a315f,,,,,,,,,,,,,,,,,,,,,,,,,,,,,,,,,,,,,,,,,,,,,,,,,,,,,,,,,,,,,,,,,,,,,,,,,,,,,,,,,,,,,,,,,,,,,,,,,,,,,,,,,,,,,,,,,,,,,,,,,,,,,,,,,,,,,,,,,,,,,,,,,,,,,,,,,,,,,,,,,,,
0,18,18,21,1,,615dec01ca05f190dc303f91,62c53c909f6109d1b7f3eea3,2022-07-06_24h44.00.450,Colour_Asymmetry_Pilot,2022.1.3,Win32,29.53511725,62c50e9c1127f2cd403a315f,,,,,,,,,,,,,,,,,,,,,,,,,,,,,,,,,,,,,,,,,,,,,,,,,,,,,,,,,,,,,,,,,,,,,,,,,,,,,,,,,,,,,,,,,,,,,,,,,,,,,,,,,,,,,,,,,,,,,,,,,,,,,,,,,,,,,,,,,,,,,,,,,,,,,,,,,,,,,,,,,,,
0,19,19,38,1,,615dec01ca05f190dc303f91,62c53c909f6109d1b7f3eea3,2022-07-06_24h44.00.450,Colour_Asymmetry_Pilot,2022.1.3,Win32,29.53511725,62c50e9c1127f2cd403a315f,,,,,,,,,,,,,,,,,,,,,,,,,,,,,,,,,,,,,,,,,,,,,,,,,,,,,,,,,,,,,,,,,,,,,,,,,,,,,,,,,,,,,,,,,,,,,,,,,,,,,,,,,,,,,,,,,,,,,,,,,,,,,,,,,,,,,,,,,,,,,,,,,,,,,,,,,,,,,,,,,,,
0,20,20,81,1,,615dec01ca05f190dc303f91,62c53c909f6109d1b7f3eea3,2022-07-06_24h44.00.450,Colour_Asymmetry_Pilot,2022.1.3,Win32,29.53511725,62c50e9c1127f2cd403a315f,,,,,,,,,,,,,,,,,,,,,,,,,,,,,,,,,,,,,,,,,,,,,,,,,,,,,,,,,,,,,,,,,,,,,,,,,,,,,,,,,,,,,,,,,,,,,,,,,,,,,,,,,,,,,,,,,,,,,,,,,,,,,,,,,,,,,,,,,,,,,,,,,,,,,,,,,,,,,,,,,,,
0,21,21,55,1,,615dec01ca05f190dc303f91,62c53c909f6109d1b7f3eea3,2022-07-06_24h44.00.450,Colour_Asymmetry_Pilot,2022.1.3,Win32,29.53511725,62c50e9c1127f2cd403a315f,,,,,,,,,,,,,,,,,,,,,,,,,,,,,,,,,,,,,,,,,,,,,,,,,,,,,,,,,,,,,,,,,,,,,,,,,,,,,,,,,,,,,,,,,,,,,,,,,,,,,,,,,,,,,,,,,,,,,,,,,,,,,,,,,,,,,,,,,,,,,,,,,,,,,,,,,,,,,,,,,,,
0,22,22,13,1,,615dec01ca05f190dc303f91,62c53c909f6109d1b7f3eea3,2022-07-06_24h44.00.450,Colour_Asymmetry_Pilot,2022.1.3,Win32,29.53511725,62c50e9c1127f2cd403a315f,,,,,,,,,,,,,,,,,,,,,,,,,,,,,,,,,,,,,,,,,,,,,,,,,,,,,,,,,,,,,,,,,,,,,,,,,,,,,,,,,,,,,,,,,,,,,,,,,,,,,,,,,,,,,,,,,,,,,,,,,,,,,,,,,,,,,,,,,,,,,,,,,,,,,,,,,,,,,,,,,,,
0,23,23,24,1,,615dec01ca05f190dc303f91,62c53c909f6109d1b7f3eea3,2022-07-06_24h44.00.450,Colour_Asymmetry_Pilot,2022.1.3,Win32,29.53511725,62c50e9c1127f2cd403a315f,,,,,,,,,,,,,,,,,,,,,,,,,,,,,,,,,,,,,,,,,,,,,,,,,,,,,,,,,,,,,,,,,,,,,,,,,,,,,,,,,,,,,,,,,,,,,,,,,,,,,,,,,,,,,,,,,,,,,,,,,,,,,,,,,,,,,,,,,,,,,,,,,,,,,,,,,,,,,,,,,,,
0,24,24,41,1,,615dec01ca05f190dc303f91,62c53c909f6109d1b7f3eea3,2022-07-06_24h44.00.450,Colour_Asymmetry_Pilot,2022.1.3,Win32,29.53511725,62c50e9c1127f2cd403a315f,,,,,,,,,,,,,,,,,,,,,,,,,,,,,,,,,,,,,,,,,,,,,,,,,,,,,,,,,,,,,,,,,,,,,,,,,,,,,,,,,,,,,,,,,,,,,,,,,,,,,,,,,,,,,,,,,,,,,,,,,,,,,,,,,,,,,,,,,,,,,,,,,,,,,,,,,,,,,,,,,,,
0,25,25,84,1,,615dec01ca05f190dc303f91,62c53c909f6109d1b7f3eea3,2022-07-06_24h44.00.450,Colour_Asymmetry_Pilot,2022.1.3,Win32,29.53511725,62c50e9c1127f2cd403a315f,,,,,,,,,,,,,,,,,,,,,,,,,,,,,,,,,,,,,,,,,,,,,,,,,,,,,,,,,,,,,,,,,,,,,,,,,,,,,,,,,,,,,,,,,,,,,,,,,,,,,,,,,,,,,,,,,,,,,,,,,,,,,,,,,,,,,,,,,,,,,,,,,,,,,,,,,,,,,,,,,,,
0,26,26,31,1,,615dec01ca05f190dc303f91,62c53c909f6109d1b7f3eea3,2022-07-06_24h44.00.450,Colour_Asymmetry_Pilot,2022.1.3,Win32,29.53511725,62c50e9c1127f2cd403a315f,,,,,,,,,,,,,,,,,,,,,,,,,,,,,,,,,,,,,,,,,,,,,,,,,,,,,,,,,,,,,,,,,,,,,,,,,,,,,,,,,,,,,,,,,,,,,,,,,,,,,,,,,,,,,,,,,,,,,,,,,,,,,,,,,,,,,,,,,,,,,,,,,,,,,,,,,,,,,,,,,,,
0,27,27,12,1,,615dec01ca05f190dc303f91,62c53c909f6109d1b7f3eea3,2022-07-06_24h44.00.450,Colour_Asymmetry_Pilot,2022.1.3,Win32,29.53511725,62c50e9c1127f2cd403a315f,,,,,,,,,,,,,,,,,,,,,,,,,,,,,,,,,,,,,,,,,,,,,,,,,,,,,,,,,,,,,,,,,,,,,,,,,,,,,,,,,,,,,,,,,,,,,,,,,,,,,,,,,,,,,,,,,,,,,,,,,,,,,,,,,,,,,,,,,,,,,,,,,,,,,,,,,,,,,,,,,,,
0,28,28,66,1,,615dec01ca05f190dc303f91,62c53c909f6109d1b7f3eea3,2022-07-06_24h44.00.450,Colour_Asymmetry_Pilot,2022.1.3,Win32,29.53511725,62c50e9c1127f2cd403a315f,,,,,,,,,,,,,,,,,,,,,,,,,,,,,,,,,,,,,,,,,,,,,,,,,,,,,,,,,,,,,,,,,,,,,,,,,,,,,,,,,,,,,,,,,,,,,,,,,,,,,,,,,,,,,,,,,,,,,,,,,,,,,,,,,,,,,,,,,,,,,,,,,,,,,,,,,,,,,,,,,,,
0,29,29,92,1,,615dec01ca05f190dc303f91,62c53c909f6109d1b7f3eea3,2022-07-06_24h44.00.450,Colour_Asymmetry_Pilot,2022.1.3,Win32,29.53511725,62c50e9c1127f2cd403a315f,,,,,,,,,,,,,,,,,,,,,,,,,,,,,,,,,,,,,,,,,,,,,,,,,,,,,,,,,,,,,,,,,,,,,,,,,,,,,,,,,,,,,,,,,,,,,,,,,,,,,,,,,,,,,,,,,,,,,,,,,,,,,,,,,,,,,,,,,,,,,,,,,,,,,,,,,,,,,,,,,,,
0,30,30,67,1,,615dec01ca05f190dc303f91,62c53c909f6109d1b7f3eea3,2022-07-06_24h44.00.450,Colour_Asymmetry_Pilot,2022.1.3,Win32,29.53511725,62c50e9c1127f2cd403a315f,,,,,,,,,,,,,,,,,,,,,,,,,,,,,,,,,,,,,,,,,,,,,,,,,,,,,,,,,,,,,,,,,,,,,,,,,,,,,,,,,,,,,,,,,,,,,,,,,,,,,,,,,,,,,,,,,,,,,,,,,,,,,,,,,,,,,,,,,,,,,,,,,,,,,,,,,,,,,,,,,,,
0,31,31,73,1,,615dec01ca05f190dc303f91,62c53c909f6109d1b7f3eea3,2022-07-06_24h44.00.450,Colour_Asymmetry_Pilot,2022.1.3,Win32,29.53511725,62c50e9c1127f2cd403a315f,,,,,,,,,,,,,,,,,,,,,,,,,,,,,,,,,,,,,,,,,,,,,,,,,,,,,,,,,,,,,,,,,,,,,,,,,,,,,,,,,,,,,,,,,,,,,,,,,,,,,,,,,,,,,,,,,,,,,,,,,,,,,,,,,,,,,,,,,,,,,,,,,,,,,,,,,,,,,,,,,,,
0,32,32,40,1,,615dec01ca05f190dc303f91,62c53c909f6109d1b7f3eea3,2022-07-06_24h44.00.450,Colour_Asymmetry_Pilot,2022.1.3,Win32,29.53511725,62c50e9c1127f2cd403a315f,,,,,,,,,,,,,,,,,,,,,,,,,,,,,,,,,,,,,,,,,,,,,,,,,,,,,,,,,,,,,,,,,,,,,,,,,,,,,,,,,,,,,,,,,,,,,,,,,,,,,,,,,,,,,,,,,,,,,,,,,,,,,,,,,,,,,,,,,,,,,,,,,,,,,,,,,,,,,,,,,,,
0,33,33,71,1,,615dec01ca05f190dc303f91,62c53c909f6109d1b7f3eea3,2022-07-06_24h44.00.450,Colour_Asymmetry_Pilot,2022.1.3,Win32,29.53511725,62c50e9c1127f2cd403a315f,,,,,,,,,,,,,,,,,,,,,,,,,,,,,,,,,,,,,,,,,,,,,,,,,,,,,,,,,,,,,,,,,,,,,,,,,,,,,,,,,,,,,,,,,,,,,,,,,,,,,,,,,,,,,,,,,,,,,,,,,,,,,,,,,,,,,,,,,,,,,,,,,,,,,,,,,,,,,,,,,,,
0,34,34,51,1,,615dec01ca05f190dc303f91,62c53c909f6109d1b7f3eea3,2022-07-06_24h44.00.450,Colour_Asymmetry_Pilot,2022.1.3,Win32,29.53511725,62c50e9c1127f2cd403a315f,,,,,,,,,,,,,,,,,,,,,,,,,,,,,,,,,,,,,,,,,,,,,,,,,,,,,,,,,,,,,,,,,,,,,,,,,,,,,,,,,,,,,,,,,,,,,,,,,,,,,,,,,,,,,,,,,,,,,,,,,,,,,,,,,,,,,,,,,,,,,,,,,,,,,,,,,,,,,,,,,,,
0,35,35,17,1,,615dec01ca05f190dc303f91,62c53c909f6109d1b7f3eea3,2022-07-06_24h44.00.450,Colour_Asymmetry_Pilot,2022.1.3,Win32,29.53511725,62c50e9c1127f2cd403a315f,,,,,,,,,,,,,,,,,,,,,,,,,,,,,,,,,,,,,,,,,,,,,,,,,,,,,,,,,,,,,,,,,,,,,,,,,,,,,,,,,,,,,,,,,,,,,,,,,,,,,,,,,,,,,,,,,,,,,,,,,,,,,,,,,,,,,,,,,,,,,,,,,,,,,,,,,,,,,,,,,,,
0,36,36,52,1,,615dec01ca05f190dc303f91,62c53c909f6109d1b7f3eea3,2022-07-06_24h44.00.450,Colour_Asymmetry_Pilot,2022.1.3,Win32,29.53511725,62c50e9c1127f2cd403a315f,,,,,,,,,,,,,,,,,,,,,,,,,,,,,,,,,,,,,,,,,,,,,,,,,,,,,,,,,,,,,,,,,,,,,,,,,,,,,,,,,,,,,,,,,,,,,,,,,,,,,,,,,,,,,,,,,,,,,,,,,,,,,,,,,,,,,,,,,,,,,,,,,,,,,,,,,,,,,,,,,,,
0,37,37,19,1,,615dec01ca05f190dc303f91,62c53c909f6109d1b7f3eea3,2022-07-06_24h44.00.450,Colour_Asymmetry_Pilot,2022.1.3,Win32,29.53511725,62c50e9c1127f2cd403a315f,,,,,,,,,,,,,,,,,,,,,,,,,,,,,,,,,,,,,,,,,,,,,,,,,,,,,,,,,,,,,,,,,,,,,,,,,,,,,,,,,,,,,,,,,,,,,,,,,,,,,,,,,,,,,,,,,,,,,,,,,,,,,,,,,,,,,,,,,,,,,,,,,,,,,,,,,,,,,,,,,,,
0,38,38,60,1,,615dec01ca05f190dc303f91,62c53c909f6109d1b7f3eea3,2022-07-06_24h44.00.450,Colour_Asymmetry_Pilot,2022.1.3,Win32,29.53511725,62c50e9c1127f2cd403a315f,,,,,,,,,,,,,,,,,,,,,,,,,,,,,,,,,,,,,,,,,,,,,,,,,,,,,,,,,,,,,,,,,,,,,,,,,,,,,,,,,,,,,,,,,,,,,,,,,,,,,,,,,,,,,,,,,,,,,,,,,,,,,,,,,,,,,,,,,,,,,,,,,,,,,,,,,,,,,,,,,,,
0,39,39,88,1,,615dec01ca05f190dc303f91,62c53c909f6109d1b7f3eea3,2022-07-06_24h44.00.450,Colour_Asymmetry_Pilot,2022.1.3,Win32,29.53511725,62c50e9c1127f2cd403a315f,,,,,,,,,,,,,,,,,,,,,,,,,,,,,,,,,,,,,,,,,,,,,,,,,,,,,,,,,,,,,,,,,,,,,,,,,,,,,,,,,,,,,,,,,,,,,,,,,,,,,,,,,,,,,,,,,,,,,,,,,,,,,,,,,,,,,,,,,,,,,,,,,,,,,,,,,,,,,,,,,,,
0,40,40,0,1,,615dec01ca05f190dc303f91,62c53c909f6109d1b7f3eea3,2022-07-06_24h44.00.450,Colour_Asymmetry_Pilot,2022.1.3,Win32,29.53511725,62c50e9c1127f2cd403a315f,,,,,,,,,,,,,,,,,,,,,,,,,,,,,,,,,,,,,,,,,,,,,,,,,,,,,,,,,,,,,,,,,,,,,,,,,,,,,,,,,,,,,,,,,,,,,,,,,,,,,,,,,,,,,,,,,,,,,,,,,,,,,,,,,,,,,,,,,,,,,,,,,,,,,,,,,,,,,,,,,,,
0,41,41,49,1,,615dec01ca05f190dc303f91,62c53c909f6109d1b7f3eea3,2022-07-06_24h44.00.450,Colour_Asymmetry_Pilot,2022.1.3,Win32,29.53511725,62c50e9c1127f2cd403a315f,,,,,,,,,,,,,,,,,,,,,,,,,,,,,,,,,,,,,,,,,,,,,,,,,,,,,,,,,,,,,,,,,,,,,,,,,,,,,,,,,,,,,,,,,,,,,,,,,,,,,,,,,,,,,,,,,,,,,,,,,,,,,,,,,,,,,,,,,,,,,,,,,,,,,,,,,,,,,,,,,,,
0,42,42,33,1,,615dec01ca05f190dc303f91,62c53c909f6109d1b7f3eea3,2022-07-06_24h44.00.450,Colour_Asymmetry_Pilot,2022.1.3,Win32,29.53511725,62c50e9c1127f2cd403a315f,,,,,,,,,,,,,,,,,,,,,,,,,,,,,,,,,,,,,,,,,,,,,,,,,,,,,,,,,,,,,,,,,,,,,,,,,,,,,,,,,,,,,,,,,,,,,,,,,,,,,,,,,,,,,,,,,,,,,,,,,,,,,,,,,,,,,,,,,,,,,,,,,,,,,,,,,,,,,,,,,,,
0,43,43,46,1,,615dec01ca05f190dc303f91,62c53c909f6109d1b7f3eea3,2022-07-06_24h44.00.450,Colour_Asymmetry_Pilot,2022.1.3,Win32,29.53511725,62c50e9c1127f2cd403a315f,,,,,,,,,,,,,,,,,,,,,,,,,,,,,,,,,,,,,,,,,,,,,,,,,,,,,,,,,,,,,,,,,,,,,,,,,,,,,,,,,,,,,,,,,,,,,,,,,,,,,,,,,,,,,,,,,,,,,,,,,,,,,,,,,,,,,,,,,,,,,,,,,,,,,,,,,,,,,,,,,,,
0,44,44,57,1,,615dec01ca05f190dc303f91,62c53c909f6109d1b7f3eea3,2022-07-06_24h44.00.450,Colour_Asymmetry_Pilot,2022.1.3,Win32,29.53511725,62c50e9c1127f2cd403a315f,,,,,,,,,,,,,,,,,,,,,,,,,,,,,,,,,,,,,,,,,,,,,,,,,,,,,,,,,,,,,,,,,,,,,,,,,,,,,,,,,,,,,,,,,,,,,,,,,,,,,,,,,,,,,,,,,,,,,,,,,,,,,,,,,,,,,,,,,,,,,,,,,,,,,,,,,,,,,,,,,,,
0,45,45,22,1,,615dec01ca05f190dc303f91,62c53c909f6109d1b7f3eea3,2022-07-06_24h44.00.450,Colour_Asymmetry_Pilot,2022.1.3,Win32,29.53511725,62c50e9c1127f2cd403a315f,,,,,,,,,,,,,,,,,,,,,,,,,,,,,,,,,,,,,,,,,,,,,,,,,,,,,,,,,,,,,,,,,,,,,,,,,,,,,,,,,,,,,,,,,,,,,,,,,,,,,,,,,,,,,,,,,,,,,,,,,,,,,,,,,,,,,,,,,,,,,,,,,,,,,,,,,,,,,,,,,,,
0,46,46,45,1,,615dec01ca05f190dc303f91,62c53c909f6109d1b7f3eea3,2022-07-06_24h44.00.450,Colour_Asymmetry_Pilot,2022.1.3,Win32,29.53511725,62c50e9c1127f2cd403a315f,,,,,,,,,,,,,,,,,,,,,,,,,,,,,,,,,,,,,,,,,,,,,,,,,,,,,,,,,,,,,,,,,,,,,,,,,,,,,,,,,,,,,,,,,,,,,,,,,,,,,,,,,,,,,,,,,,,,,,,,,,,,,,,,,,,,,,,,,,,,,,,,,,,,,,,,,,,,,,,,,,,
0,47,47,77,1,,615dec01ca05f190dc303f91,62c53c909f6109d1b7f3eea3,2022-07-06_24h44.00.450,Colour_Asymmetry_Pilot,2022.1.3,Win32,29.53511725,62c50e9c1127f2cd403a315f,,,,,,,,,,,,,,,,,,,,,,,,,,,,,,,,,,,,,,,,,,,,,,,,,,,,,,,,,,,,,,,,,,,,,,,,,,,,,,,,,,,,,,,,,,,,,,,,,,,,,,,,,,,,,,,,,,,,,,,,,,,,,,,,,,,,,,,,,,,,,,,,,,,,,,,,,,,,,,,,,,,
0,48,48,48,1,,615dec01ca05f190dc303f91,62c53c909f6109d1b7f3eea3,2022-07-06_24h44.00.450,Colour_Asymmetry_Pilot,2022.1.3,Win32,29.53511725,62c50e9c1127f2cd403a315f,,,,,,,,,,,,,,,,,,,,,,,,,,,,,,,,,,,,,,,,,,,,,,,,,,,,,,,,,,,,,,,,,,,,,,,,,,,,,,,,,,,,,,,,,,,,,,,,,,,,,,,,,,,,,,,,,,,,,,,,,,,,,,,,,,,,,,,,,,,,,,,,,,,,,,,,,,,,,,,,,,,
0,49,49,26,1,,615dec01ca05f190dc303f91,62c53c909f6109d1b7f3eea3,2022-07-06_24h44.00.450,Colour_Asymmetry_Pilot,2022.1.3,Win32,29.53511725,62c50e9c1127f2cd403a315f,,,,,,,,,,,,,,,,,,,,,,,,,,,,,,,,,,,,,,,,,,,,,,,,,,,,,,,,,,,,,,,,,,,,,,,,,,,,,,,,,,,,,,,,,,,,,,,,,,,,,,,,,,,,,,,,,,,,,,,,,,,,,,,,,,,,,,,,,,,,,,,,,,,,,,,,,,,,,,,,,,,
0,50,50,34,1,,615dec01ca05f190dc303f91,62c53c909f6109d1b7f3eea3,2022-07-06_24h44.00.450,Colour_Asymmetry_Pilot,2022.1.3,Win32,29.53511725,62c50e9c1127f2cd403a315f,,,,,,,,,,,,,,,,,,,,,,,,,,,,,,,,,,,,,,,,,,,,,,,,,,,,,,,,,,,,,,,,,,,,,,,,,,,,,,,,,,,,,,,,,,,,,,,,,,,,,,,,,,,,,,,,,,,,,,,,,,,,,,,,,,,,,,,,,,,,,,,,,,,,,,,,,,,,,,,,,,,
0,51,51,28,1,,615dec01ca05f190dc303f91,62c53c909f6109d1b7f3eea3,2022-07-06_24h44.00.450,Colour_Asymmetry_Pilot,2022.1.3,Win32,29.53511725,62c50e9c1127f2cd403a315f,,,,,,,,,,,,,,,,,,,,,,,,,,,,,,,,,,,,,,,,,,,,,,,,,,,,,,,,,,,,,,,,,,,,,,,,,,,,,,,,,,,,,,,,,,,,,,,,,,,,,,,,,,,,,,,,,,,,,,,,,,,,,,,,,,,,,,,,,,,,,,,,,,,,,,,,,,,,,,,,,,,
0,52,52,35,1,,615dec01ca05f190dc303f91,62c53c909f6109d1b7f3eea3,2022-07-06_24h44.00.450,Colour_Asymmetry_Pilot,2022.1.3,Win32,29.53511725,62c50e9c1127f2cd403a315f,,,,,,,,,,,,,,,,,,,,,,,,,,,,,,,,,,,,,,,,,,,,,,,,,,,,,,,,,,,,,,,,,,,,,,,,,,,,,,,,,,,,,,,,,,,,,,,,,,,,,,,,,,,,,,,,,,,,,,,,,,,,,,,,,,,,,,,,,,,,,,,,,,,,,,,,,,,,,,,,,,,
0,53,53,47,1,,615dec01ca05f190dc303f91,62c53c909f6109d1b7f3eea3,2022-07-06_24h44.00.450,Colour_Asymmetry_Pilot,2022.1.3,Win32,29.53511725,62c50e9c1127f2cd403a315f,,,,,,,,,,,,,,,,,,,,,,,,,,,,,,,,,,,,,,,,,,,,,,,,,,,,,,,,,,,,,,,,,,,,,,,,,,,,,,,,,,,,,,,,,,,,,,,,,,,,,,,,,,,,,,,,,,,,,,,,,,,,,,,,,,,,,,,,,,,,,,,,,,,,,,,,,,,,,,,,,,,
0,54,54,85,1,,615dec01ca05f190dc303f91,62c53c909f6109d1b7f3eea3,2022-07-06_24h44.00.450,Colour_Asymmetry_Pilot,2022.1.3,Win32,29.53511725,62c50e9c1127f2cd403a315f,,,,,,,,,,,,,,,,,,,,,,,,,,,,,,,,,,,,,,,,,,,,,,,,,,,,,,,,,,,,,,,,,,,,,,,,,,,,,,,,,,,,,,,,,,,,,,,,,,,,,,,,,,,,,,,,,,,,,,,,,,,,,,,,,,,,,,,,,,,,,,,,,,,,,,,,,,,,,,,,,,,
0,55,55,44,1,,615dec01ca05f190dc303f91,62c53c909f6109d1b7f3eea3,2022-07-06_24h44.00.450,Colour_Asymmetry_Pilot,2022.1.3,Win32,29.53511725,62c50e9c1127f2cd403a315f,,,,,,,,,,,,,,,,,,,,,,,,,,,,,,,,,,,,,,,,,,,,,,,,,,,,,,,,,,,,,,,,,,,,,,,,,,,,,,,,,,,,,,,,,,,,,,,,,,,,,,,,,,,,,,,,,,,,,,,,,,,,,,,,,,,,,,,,,,,,,,,,,,,,,,,,,,,,,,,,,,,
0,56,56,72,1,,615dec01ca05f190dc303f91,62c53c909f6109d1b7f3eea3,2022-07-06_24h44.00.450,Colour_Asymmetry_Pilot,2022.1.3,Win32,29.53511725,62c50e9c1127f2cd403a315f,,,,,,,,,,,,,,,,,,,,,,,,,,,,,,,,,,,,,,,,,,,,,,,,,,,,,,,,,,,,,,,,,,,,,,,,,,,,,,,,,,,,,,,,,,,,,,,,,,,,,,,,,,,,,,,,,,,,,,,,,,,,,,,,,,,,,,,,,,,,,,,,,,,,,,,,,,,,,,,,,,,
0,57,57,58,1,,615dec01ca05f190dc303f91,62c53c909f6109d1b7f3eea3,2022-07-06_24h44.00.450,Colour_Asymmetry_Pilot,2022.1.3,Win32,29.53511725,62c50e9c1127f2cd403a315f,,,,,,,,,,,,,,,,,,,,,,,,,,,,,,,,,,,,,,,,,,,,,,,,,,,,,,,,,,,,,,,,,,,,,,,,,,,,,,,,,,,,,,,,,,,,,,,,,,,,,,,,,,,,,,,,,,,,,,,,,,,,,,,,,,,,,,,,,,,,,,,,,,,,,,,,,,,,,,,,,,,
0,58,58,65,1,,615dec01ca05f190dc303f91,62c53c909f6109d1b7f3eea3,2022-07-06_24h44.00.450,Colour_Asymmetry_Pilot,2022.1.3,Win32,29.53511725,62c50e9c1127f2cd403a315f,,,,,,,,,,,,,,,,,,,,,,,,,,,,,,,,,,,,,,,,,,,,,,,,,,,,,,,,,,,,,,,,,,,,,,,,,,,,,,,,,,,,,,,,,,,,,,,,,,,,,,,,,,,,,,,,,,,,,,,,,,,,,,,,,,,,,,,,,,,,,,,,,,,,,,,,,,,,,,,,,,,
0,59,59,61,1,,615dec01ca05f190dc303f91,62c53c909f6109d1b7f3eea3,2022-07-06_24h44.00.450,Colour_Asymmetry_Pilot,2022.1.3,Win32,29.53511725,62c50e9c1127f2cd403a315f,,,,,,,,,,,,,,,,,,,,,,,,,,,,,,,,,,,,,,,,,,,,,,,,,,,,,,,,,,,,,,,,,,,,,,,,,,,,,,,,,,,,,,,,,,,,,,,,,,,,,,,,,,,,,,,,,,,,,,,,,,,,,,,,,,,,,,,,,,,,,,,,,,,,,,,,,,,,,,,,,,,
0,60,60,54,1,,615dec01ca05f190dc303f91,62c53c909f6109d1b7f3eea3,2022-07-06_24h44.00.450,Colour_Asymmetry_Pilot,2022.1.3,Win32,29.53511725,62c50e9c1127f2cd403a315f,,,,,,,,,,,,,,,,,,,,,,,,,,,,,,,,,,,,,,,,,,,,,,,,,,,,,,,,,,,,,,,,,,,,,,,,,,,,,,,,,,,,,,,,,,,,,,,,,,,,,,,,,,,,,,,,,,,,,,,,,,,,,,,,,,,,,,,,,,,,,,,,,,,,,,,,,,,,,,,,,,,
0,61,61,62,1,,615dec01ca05f190dc303f91,62c53c909f6109d1b7f3eea3,2022-07-06_24h44.00.450,Colour_Asymmetry_Pilot,2022.1.3,Win32,29.53511725,62c50e9c1127f2cd403a315f,,,,,,,,,,,,,,,,,,,,,,,,,,,,,,,,,,,,,,,,,,,,,,,,,,,,,,,,,,,,,,,,,,,,,,,,,,,,,,,,,,,,,,,,,,,,,,,,,,,,,,,,,,,,,,,,,,,,,,,,,,,,,,,,,,,,,,,,,,,,,,,,,,,,,,,,,,,,,,,,,,,
0,62,62,4,1,,615dec01ca05f190dc303f91,62c53c909f6109d1b7f3eea3,2022-07-06_24h44.00.450,Colour_Asymmetry_Pilot,2022.1.3,Win32,29.53511725,62c50e9c1127f2cd403a315f,,,,,,,,,,,,,,,,,,,,,,,,,,,,,,,,,,,,,,,,,,,,,,,,,,,,,,,,,,,,,,,,,,,,,,,,,,,,,,,,,,,,,,,,,,,,,,,,,,,,,,,,,,,,,,,,,,,,,,,,,,,,,,,,,,,,,,,,,,,,,,,,,,,,,,,,,,,,,,,,,,,
0,63,63,89,1,,615dec01ca05f190dc303f91,62c53c909f6109d1b7f3eea3,2022-07-06_24h44.00.450,Colour_Asymmetry_Pilot,2022.1.3,Win32,29.53511725,62c50e9c1127f2cd403a315f,,,,,,,,,,,,,,,,,,,,,,,,,,,,,,,,,,,,,,,,,,,,,,,,,,,,,,,,,,,,,,,,,,,,,,,,,,,,,,,,,,,,,,,,,,,,,,,,,,,,,,,,,,,,,,,,,,,,,,,,,,,,,,,,,,,,,,,,,,,,,,,,,,,,,,,,,,,,,,,,,,,
0,64,64,86,1,,615dec01ca05f190dc303f91,62c53c909f6109d1b7f3eea3,2022-07-06_24h44.00.450,Colour_Asymmetry_Pilot,2022.1.3,Win32,29.53511725,62c50e9c1127f2cd403a315f,,,,,,,,,,,,,,,,,,,,,,,,,,,,,,,,,,,,,,,,,,,,,,,,,,,,,,,,,,,,,,,,,,,,,,,,,,,,,,,,,,,,,,,,,,,,,,,,,,,,,,,,,,,,,,,,,,,,,,,,,,,,,,,,,,,,,,,,,,,,,,,,,,,,,,,,,,,,,,,,,,,
0,65,65,16,1,,615dec01ca05f190dc303f91,62c53c909f6109d1b7f3eea3,2022-07-06_24h44.00.450,Colour_Asymmetry_Pilot,2022.1.3,Win32,29.53511725,62c50e9c1127f2cd403a315f,,,,,,,,,,,,,,,,,,,,,,,,,,,,,,,,,,,,,,,,,,,,,,,,,,,,,,,,,,,,,,,,,,,,,,,,,,,,,,,,,,,,,,,,,,,,,,,,,,,,,,,,,,,,,,,,,,,,,,,,,,,,,,,,,,,,,,,,,,,,,,,,,,,,,,,,,,,,,,,,,,,
0,66,66,76,1,,615dec01ca05f190dc303f91,62c53c909f6109d1b7f3eea3,2022-07-06_24h44.00.450,Colour_Asymmetry_Pilot,2022.1.3,Win32,29.53511725,62c50e9c1127f2cd403a315f,,,,,,,,,,,,,,,,,,,,,,,,,,,,,,,,,,,,,,,,,,,,,,,,,,,,,,,,,,,,,,,,,,,,,,,,,,,,,,,,,,,,,,,,,,,,,,,,,,,,,,,,,,,,,,,,,,,,,,,,,,,,,,,,,,,,,,,,,,,,,,,,,,,,,,,,,,,,,,,,,,,
0,67,67,50,1,,615dec01ca05f190dc303f91,62c53c909f6109d1b7f3eea3,2022-07-06_24h44.00.450,Colour_Asymmetry_Pilot,2022.1.3,Win32,29.53511725,62c50e9c1127f2cd403a315f,,,,,,,,,,,,,,,,,,,,,,,,,,,,,,,,,,,,,,,,,,,,,,,,,,,,,,,,,,,,,,,,,,,,,,,,,,,,,,,,,,,,,,,,,,,,,,,,,,,,,,,,,,,,,,,,,,,,,,,,,,,,,,,,,,,,,,,,,,,,,,,,,,,,,,,,,,,,,,,,,,,
0,68,68,39,1,,615dec01ca05f190dc303f91,62c53c909f6109d1b7f3eea3,2022-07-06_24h44.00.450,Colour_Asymmetry_Pilot,2022.1.3,Win32,29.53511725,62c50e9c1127f2cd403a315f,,,,,,,,,,,,,,,,,,,,,,,,,,,,,,,,,,,,,,,,,,,,,,,,,,,,,,,,,,,,,,,,,,,,,,,,,,,,,,,,,,,,,,,,,,,,,,,,,,,,,,,,,,,,,,,,,,,,,,,,,,,,,,,,,,,,,,,,,,,,,,,,,,,,,,,,,,,,,,,,,,,
0,69,69,5,1,,615dec01ca05f190dc303f91,62c53c909f6109d1b7f3eea3,2022-07-06_24h44.00.450,Colour_Asymmetry_Pilot,2022.1.3,Win32,29.53511725,62c50e9c1127f2cd403a315f,,,,,,,,,,,,,,,,,,,,,,,,,,,,,,,,,,,,,,,,,,,,,,,,,,,,,,,,,,,,,,,,,,,,,,,,,,,,,,,,,,,,,,,,,,,,,,,,,,,,,,,,,,,,,,,,,,,,,,,,,,,,,,,,,,,,,,,,,,,,,,,,,,,,,,,,,,,,,,,,,,,
0,70,70,83,1,,615dec01ca05f190dc303f91,62c53c909f6109d1b7f3eea3,2022-07-06_24h44.00.450,Colour_Asymmetry_Pilot,2022.1.3,Win32,29.53511725,62c50e9c1127f2cd403a315f,,,,,,,,,,,,,,,,,,,,,,,,,,,,,,,,,,,,,,,,,,,,,,,,,,,,,,,,,,,,,,,,,,,,,,,,,,,,,,,,,,,,,,,,,,,,,,,,,,,,,,,,,,,,,,,,,,,,,,,,,,,,,,,,,,,,,,,,,,,,,,,,,,,,,,,,,,,,,,,,,,,
0,71,71,91,1,,615dec01ca05f190dc303f91,62c53c909f6109d1b7f3eea3,2022-07-06_24h44.00.450,Colour_Asymmetry_Pilot,2022.1.3,Win32,29.53511725,62c50e9c1127f2cd403a315f,,,,,,,,,,,,,,,,,,,,,,,,,,,,,,,,,,,,,,,,,,,,,,,,,,,,,,,,,,,,,,,,,,,,,,,,,,,,,,,,,,,,,,,,,,,,,,,,,,,,,,,,,,,,,,,,,,,,,,,,,,,,,,,,,,,,,,,,,,,,,,,,,,,,,,,,,,,,,,,,,,,
0,72,72,20,1,,615dec01ca05f190dc303f91,62c53c909f6109d1b7f3eea3,2022-07-06_24h44.00.450,Colour_Asymmetry_Pilot,2022.1.3,Win32,29.53511725,62c50e9c1127f2cd403a315f,,,,,,,,,,,,,,,,,,,,,,,,,,,,,,,,,,,,,,,,,,,,,,,,,,,,,,,,,,,,,,,,,,,,,,,,,,,,,,,,,,,,,,,,,,,,,,,,,,,,,,,,,,,,,,,,,,,,,,,,,,,,,,,,,,,,,,,,,,,,,,,,,,,,,,,,,,,,,,,,,,,
0,73,73,30,1,,615dec01ca05f190dc303f91,62c53c909f6109d1b7f3eea3,2022-07-06_24h44.00.450,Colour_Asymmetry_Pilot,2022.1.3,Win32,29.53511725,62c50e9c1127f2cd403a315f,,,,,,,,,,,,,,,,,,,,,,,,,,,,,,,,,,,,,,,,,,,,,,,,,,,,,,,,,,,,,,,,,,,,,,,,,,,,,,,,,,,,,,,,,,,,,,,,,,,,,,,,,,,,,,,,,,,,,,,,,,,,,,,,,,,,,,,,,,,,,,,,,,,,,,,,,,,,,,,,,,,
0,74,74,79,1,,615dec01ca05f190dc303f91,62c53c909f6109d1b7f3eea3,2022-07-06_24h44.00.450,Colour_Asymmetry_Pilot,2022.1.3,Win32,29.53511725,62c50e9c1127f2cd403a315f,,,,,,,,,,,,,,,,,,,,,,,,,,,,,,,,,,,,,,,,,,,,,,,,,,,,,,,,,,,,,,,,,,,,,,,,,,,,,,,,,,,,,,,,,,,,,,,,,,,,,,,,,,,,,,,,,,,,,,,,,,,,,,,,,,,,,,,,,,,,,,,,,,,,,,,,,,,,,,,,,,,
0,75,75,2,1,,615dec01ca05f190dc303f91,62c53c909f6109d1b7f3eea3,2022-07-06_24h44.00.450,Colour_Asymmetry_Pilot,2022.1.3,Win32,29.53511725,62c50e9c1127f2cd403a315f,,,,,,,,,,,,,,,,,,,,,,,,,,,,,,,,,,,,,,,,,,,,,,,,,,,,,,,,,,,,,,,,,,,,,,,,,,,,,,,,,,,,,,,,,,,,,,,,,,,,,,,,,,,,,,,,,,,,,,,,,,,,,,,,,,,,,,,,,,,,,,,,,,,,,,,,,,,,,,,,,,,
0,76,76,78,1,,615dec01ca05f190dc303f91,62c53c909f6109d1b7f3eea3,2022-07-06_24h44.00.450,Colour_Asymmetry_Pilot,2022.1.3,Win32,29.53511725,62c50e9c1127f2cd403a315f,,,,,,,,,,,,,,,,,,,,,,,,,,,,,,,,,,,,,,,,,,,,,,,,,,,,,,,,,,,,,,,,,,,,,,,,,,,,,,,,,,,,,,,,,,,,,,,,,,,,,,,,,,,,,,,,,,,,,,,,,,,,,,,,,,,,,,,,,,,,,,,,,,,,,,,,,,,,,,,,,,,
0,77,77,69,1,,615dec01ca05f190dc303f91,62c53c909f6109d1b7f3eea3,2022-07-06_24h44.00.450,Colour_Asymmetry_Pilot,2022.1.3,Win32,29.53511725,62c50e9c1127f2cd403a315f,,,,,,,,,,,,,,,,,,,,,,,,,,,,,,,,,,,,,,,,,,,,,,,,,,,,,,,,,,,,,,,,,,,,,,,,,,,,,,,,,,,,,,,,,,,,,,,,,,,,,,,,,,,,,,,,,,,,,,,,,,,,,,,,,,,,,,,,,,,,,,,,,,,,,,,,,,,,,,,,,,,
0,78,78,59,1,,615dec01ca05f190dc303f91,62c53c909f6109d1b7f3eea3,2022-07-06_24h44.00.450,Colour_Asymmetry_Pilot,2022.1.3,Win32,29.53511725,62c50e9c1127f2cd403a315f,,,,,,,,,,,,,,,,,,,,,,,,,,,,,,,,,,,,,,,,,,,,,,,,,,,,,,,,,,,,,,,,,,,,,,,,,,,,,,,,,,,,,,,,,,,,,,,,,,,,,,,,,,,,,,,,,,,,,,,,,,,,,,,,,,,,,,,,,,,,,,,,,,,,,,,,,,,,,,,,,,,
0,79,79,36,1,,615dec01ca05f190dc303f91,62c53c909f6109d1b7f3eea3,2022-07-06_24h44.00.450,Colour_Asymmetry_Pilot,2022.1.3,Win32,29.53511725,62c50e9c1127f2cd403a315f,,,,,,,,,,,,,,,,,,,,,,,,,,,,,,,,,,,,,,,,,,,,,,,,,,,,,,,,,,,,,,,,,,,,,,,,,,,,,,,,,,,,,,,,,,,,,,,,,,,,,,,,,,,,,,,,,,,,,,,,,,,,,,,,,,,,,,,,,,,,,,,,,,,,,,,,,,,,,,,,,,,
0,80,80,27,1,,615dec01ca05f190dc303f91,62c53c909f6109d1b7f3eea3,2022-07-06_24h44.00.450,Colour_Asymmetry_Pilot,2022.1.3,Win32,29.53511725,62c50e9c1127f2cd403a315f,,,,,,,,,,,,,,,,,,,,,,,,,,,,,,,,,,,,,,,,,,,,,,,,,,,,,,,,,,,,,,,,,,,,,,,,,,,,,,,,,,,,,,,,,,,,,,,,,,,,,,,,,,,,,,,,,,,,,,,,,,,,,,,,,,,,,,,,,,,,,,,,,,,,,,,,,,,,,,,,,,,
0,81,81,68,1,,615dec01ca05f190dc303f91,62c53c909f6109d1b7f3eea3,2022-07-06_24h44.00.450,Colour_Asymmetry_Pilot,2022.1.3,Win32,29.53511725,62c50e9c1127f2cd403a315f,,,,,,,,,,,,,,,,,,,,,,,,,,,,,,,,,,,,,,,,,,,,,,,,,,,,,,,,,,,,,,,,,,,,,,,,,,,,,,,,,,,,,,,,,,,,,,,,,,,,,,,,,,,,,,,,,,,,,,,,,,,,,,,,,,,,,,,,,,,,,,,,,,,,,,,,,,,,,,,,,,,
0,82,82,37,1,,615dec01ca05f190dc303f91,62c53c909f6109d1b7f3eea3,2022-07-06_24h44.00.450,Colour_Asymmetry_Pilot,2022.1.3,Win32,29.53511725,62c50e9c1127f2cd403a315f,,,,,,,,,,,,,,,,,,,,,,,,,,,,,,,,,,,,,,,,,,,,,,,,,,,,,,,,,,,,,,,,,,,,,,,,,,,,,,,,,,,,,,,,,,,,,,,,,,,,,,,,,,,,,,,,,,,,,,,,,,,,,,,,,,,,,,,,,,,,,,,,,,,,,,,,,,,,,,,,,,,
0,83,83,7,1,,615dec01ca05f190dc303f91,62c53c909f6109d1b7f3eea3,2022-07-06_24h44.00.450,Colour_Asymmetry_Pilot,2022.1.3,Win32,29.53511725,62c50e9c1127f2cd403a315f,,,,,,,,,,,,,,,,,,,,,,,,,,,,,,,,,,,,,,,,,,,,,,,,,,,,,,,,,,,,,,,,,,,,,,,,,,,,,,,,,,,,,,,,,,,,,,,,,,,,,,,,,,,,,,,,,,,,,,,,,,,,,,,,,,,,,,,,,,,,,,,,,,,,,,,,,,,,,,,,,,,
0,84,84,6,1,,615dec01ca05f190dc303f91,62c53c909f6109d1b7f3eea3,2022-07-06_24h44.00.450,Colour_Asymmetry_Pilot,2022.1.3,Win32,29.53511725,62c50e9c1127f2cd403a315f,,,,,,,,,,,,,,,,,,,,,,,,,,,,,,,,,,,,,,,,,,,,,,,,,,,,,,,,,,,,,,,,,,,,,,,,,,,,,,,,,,,,,,,,,,,,,,,,,,,,,,,,,,,,,,,,,,,,,,,,,,,,,,,,,,,,,,,,,,,,,,,,,,,,,,,,,,,,,,,,,,,
0,85,85,8,1,,615dec01ca05f190dc303f91,62c53c909f6109d1b7f3eea3,2022-07-06_24h44.00.450,Colour_Asymmetry_Pilot,2022.1.3,Win32,29.53511725,62c50e9c1127f2cd403a315f,,,,,,,,,,,,,,,,,,,,,,,,,,,,,,,,,,,,,,,,,,,,,,,,,,,,,,,,,,,,,,,,,,,,,,,,,,,,,,,,,,,,,,,,,,,,,,,,,,,,,,,,,,,,,,,,,,,,,,,,,,,,,,,,,,,,,,,,,,,,,,,,,,,,,,,,,,,,,,,,,,,
0,86,86,75,1,,615dec01ca05f190dc303f91,62c53c909f6109d1b7f3eea3,2022-07-06_24h44.00.450,Colour_Asymmetry_Pilot,2022.1.3,Win32,29.53511725,62c50e9c1127f2cd403a315f,,,,,,,,,,,,,,,,,,,,,,,,,,,,,,,,,,,,,,,,,,,,,,,,,,,,,,,,,,,,,,,,,,,,,,,,,,,,,,,,,,,,,,,,,,,,,,,,,,,,,,,,,,,,,,,,,,,,,,,,,,,,,,,,,,,,,,,,,,,,,,,,,,,,,,,,,,,,,,,,,,,
0,87,87,3,1,,615dec01ca05f190dc303f91,62c53c909f6109d1b7f3eea3,2022-07-06_24h44.00.450,Colour_Asymmetry_Pilot,2022.1.3,Win32,29.53511725,62c50e9c1127f2cd403a315f,,,,,,,,,,,,,,,,,,,,,,,,,,,,,,,,,,,,,,,,,,,,,,,,,,,,,,,,,,,,,,,,,,,,,,,,,,,,,,,,,,,,,,,,,,,,,,,,,,,,,,,,,,,,,,,,,,,,,,,,,,,,,,,,,,,,,,,,,,,,,,,,,,,,,,,,,,,,,,,,,,,
0,88,88,53,1,,615dec01ca05f190dc303f91,62c53c909f6109d1b7f3eea3,2022-07-06_24h44.00.450,Colour_Asymmetry_Pilot,2022.1.3,Win32,29.53511725,62c50e9c1127f2cd403a315f,,,,,,,,,,,,,,,,,,,,,,,,,,,,,,,,,,,,,,,,,,,,,,,,,,,,,,,,,,,,,,,,,,,,,,,,,,,,,,,,,,,,,,,,,,,,,,,,,,,,,,,,,,,,,,,,,,,,,,,,,,,,,,,,,,,,,,,,,,,,,,,,,,,,,,,,,,,,,,,,,,,
0,89,89,14,1,,615dec01ca05f190dc303f91,62c53c909f6109d1b7f3eea3,2022-07-06_24h44.00.450,Colour_Asymmetry_Pilot,2022.1.3,Win32,29.53511725,62c50e9c1127f2cd403a315f,,,,,,,,,,,,,,,,,,,,,,,,,,,,,,,,,,,,,,,,,,,,,,,,,,,,,,,,,,,,,,,,,,,,,,,,,,,,,,,,,,,,,,,,,,,,,,,,,,,,,,,,,,,,,,,,,,,,,,,,,,,,,,,,,,,,,,,,,,,,,,,,,,,,,,,,,,,,,,,,,,,
0,90,90,42,1,,615dec01ca05f190dc303f91,62c53c909f6109d1b7f3eea3,2022-07-06_24h44.00.450,Colour_Asymmetry_Pilot,2022.1.3,Win32,29.53511725,62c50e9c1127f2cd403a315f,,,,,,,,,,,,,,,,,,,,,,,,,,,,,,,,,,,,,,,,,,,,,,,,,,,,,,,,,,,,,,,,,,,,,,,,,,,,,,,,,,,,,,,,,,,,,,,,,,,,,,,,,,,,,,,,,,,,,,,,,,,,,,,,,,,,,,,,,,,,,,,,,,,,,,,,,,,,,,,,,,,
0,91,91,32,1,,615dec01ca05f190dc303f91,62c53c909f6109d1b7f3eea3,2022-07-06_24h44.00.450,Colour_Asymmetry_Pilot,2022.1.3,Win32,29.53511725,62c50e9c1127f2cd403a315f,,,,,,,,,,,,,,,,,,,,,,,,,,,,,,,,,,,,,,,,,,,,,,,,,,,,,,,,,,,,,,,,,,,,,,,,,,,,,,,,,,,,,,,,,,,,,,,,,,,,,,,,,,,,,,,,,,,,,,,,,,,,,,,,,,,,,,,,,,,,,,,,,,,,,,,,,,,,,,,,,,,
0,92,92,15,1,,615dec01ca05f190dc303f91,62c53c909f6109d1b7f3eea3,2022-07-06_24h44.00.450,Colour_Asymmetry_Pilot,2022.1.3,Win32,29.53511725,62c50e9c1127f2cd403a315f,,,,,,,,,,,,,,,,,,,,,,,,,,,,,,,,,,,,,,,,,,,,,,,,,,,,,,,,,,,,,,,,,,,,,,,,,,,,,,,,,,,,,,,,,,,,,,,,,,,,,,,,,,,,,,,,,,,,,,,,,,,,,,,,,,,,,,,,,,,,,,,,,,,,,,,,,,,,,,,,,,,
,,,,,,615dec01ca05f190dc303f91,62c53c909f6109d1b7f3eea3,2022-07-06_24h44.00.450,Colour_Asymmetry_Pilot,2022.1.3,Win32,29.53511725,62c50e9c1127f2cd403a315f,0,0,0,95,1,fourthree,,,,,,,,,,,,,,,,,,,,,,,,,,,,,,,,,,,,,,,,,,,,,,,,,,,,,,,,,,,,,,,,,,,,,,,,,,,,,,,,,,,,,,,,,,,,,,,,,,,,,,,,,,,,,,,,,,,,,,,,,,,,,,,,,,,,,,,,,,,,,,,,,,,,,,,,,,,,,
,,,,,,615dec01ca05f190dc303f91,62c53c909f6109d1b7f3eea3,2022-07-06_24h44.00.450,Colour_Asymmetry_Pilot,2022.1.3,Win32,29.53511725,62c50e9c1127f2cd403a315f,0,1,1,124,1,threeone,,,,,,,,,,,,,,,,,,,,,,,,,,,,,,,,,,,,,,,,,,,,,,,,,,,,,,,,,,,,,,,,,,,,,,,,,,,,,,,,,,,,,,,,,,,,,,,,,,,,,,,,,,,,,,,,,,,,,,,,,,,,,,,,,,,,,,,,,,,,,,,,,,,,,,,,,,,,,
,,,,,,615dec01ca05f190dc303f91,62c53c909f6109d1b7f3eea3,2022-07-06_24h44.00.450,Colour_Asymmetry_Pilot,2022.1.3,Win32,29.53511725,62c50e9c1127f2cd403a315f,0,2,2,28,1,threeone,,,,,,,,,,,,,,,,,,,,,,,,,,,,,,,,,,,,,,,,,,,,,,,,,,,,,,,,,,,,,,,,,,,,,,,,,,,,,,,,,,,,,,,,,,,,,,,,,,,,,,,,,,,,,,,,,,,,,,,,,,,,,,,,,,,,,,,,,,,,,,,,,,,,,,,,,,,,,
,,,,,,615dec01ca05f190dc303f91,62c53c909f6109d1b7f3eea3,2022-07-06_24h44.00.450,Colour_Asymmetry_Pilot,2022.1.3,Win32,29.53511725,62c50e9c1127f2cd403a315f,0,3,3,64,1,onetwo,,,,,,,,,,,,,,,,,,,,,,,,,,,,,,,,,,,,,,,,,,,,,,,,,,,,,,,,,,,,,,,,,,,,,,,,,,,,,,,,,,,,,,,,,,,,,,,,,,,,,,,,,,,,,,,,,,,,,,,,,,,,,,,,,,,,,,,,,,,,,,,,,,,,,,,,,,,,,
,,,,,,615dec01ca05f190dc303f91,62c53c909f6109d1b7f3eea3,2022-07-06_24h44.00.450,Colour_Asymmetry_Pilot,2022.1.3,Win32,29.53511725,62c50e9c1127f2cd403a315f,0,4,4,110,1,fourtwo,,,,,,,,,,,,,,,,,,,,,,,,,,,,,,,,,,,,,,,,,,,,,,,,,,,,,,,,,,,,,,,,,,,,,,,,,,,,,,,,,,,,,,,,,,,,,,,,,,,,,,,,,,,,,,,,,,,,,,,,,,,,,,,,,,,,,,,,,,,,,,,,,,,,,,,,,,,,,
,,,,,,615dec01ca05f190dc303f91,62c53c909f6109d1b7f3eea3,2022-07-06_24h44.00.450,Colour_Asymmetry_Pilot,2022.1.3,Win32,29.53511725,62c50e9c1127f2cd403a315f,0,5,5,15,1,fourthree,,,,,,,,,,,,,,,,,,,,,,,,,,,,,,,,,,,,,,,,,,,,,,,,,,,,,,,,,,,,,,,,,,,,,,,,,,,,,,,,,,,,,,,,,,,,,,,,,,,,,,,,,,,,,,,,,,,,,,,,,,,,,,,,,,,,,,,,,,,,,,,,,,,,,,,,,,,,,
,,,,,,615dec01ca05f190dc303f91,62c53c909f6109d1b7f3eea3,2022-07-06_24h44.00.450,Colour_Asymmetry_Pilot,2022.1.3,Win32,29.53511725,62c50e9c1127f2cd403a315f,0,6,6,156,1,threeone,,,,,,,,,,,,,,,,,,,,,,,,,,,,,,,,,,,,,,,,,,,,,,,,,,,,,,,,,,,,,,,,,,,,,,,,,,,,,,,,,,,,,,,,,,,,,,,,,,,,,,,,,,,,,,,,,,,,,,,,,,,,,,,,,,,,,,,,,,,,,,,,,,,,,,,,,,,,,
,,,,,,615dec01ca05f190dc303f91,62c53c909f6109d1b7f3eea3,2022-07-06_24h44.00.450,Colour_Asymmetry_Pilot,2022.1.3,Win32,29.53511725,62c50e9c1127f2cd403a315f,0,7,7,92,1,threeone,,,,,,,,,,,,,,,,,,,,,,,,,,,,,,,,,,,,,,,,,,,,,,,,,,,,,,,,,,,,,,,,,,,,,,,,,,,,,,,,,,,,,,,,,,,,,,,,,,,,,,,,,,,,,,,,,,,,,,,,,,,,,,,,,,,,,,,,,,,,,,,,,,,,,,,,,,,,,
,,,,,,615dec01ca05f190dc303f91,62c53c909f6109d1b7f3eea3,2022-07-06_24h44.00.450,Colour_Asymmetry_Pilot,2022.1.3,Win32,29.53511725,62c50e9c1127f2cd403a315f,0,8,8,159,1,fourthree,,,,,,,,,,,,,,,,,,,,,,,,,,,,,,,,,,,,,,,,,,,,,,,,,,,,,,,,,,,,,,,,,,,,,,,,,,,,,,,,,,,,,,,,,,,,,,,,,,,,,,,,,,,,,,,,,,,,,,,,,,,,,,,,,,,,,,,,,,,,,,,,,,,,,,,,,,,,,
,,,,,,615dec01ca05f190dc303f91,62c53c909f6109d1b7f3eea3,2022-07-06_24h44.00.450,Colour_Asymmetry_Pilot,2022.1.3,Win32,29.53511725,62c50e9c1127f2cd403a315f,0,9,9,147,1,twofour,,,,,,,,,,,,,,,,,,,,,,,,,,,,,,,,,,,,,,,,,,,,,,,,,,,,,,,,,,,,,,,,,,,,,,,,,,,,,,,,,,,,,,,,,,,,,,,,,,,,,,,,,,,,,,,,,,,,,,,,,,,,,,,,,,,,,,,,,,,,,,,,,,,,,,,,,,,,,
,,,,,,615dec01ca05f190dc303f91,62c53c909f6109d1b7f3eea3,2022-07-06_24h44.00.450,Colour_Asymmetry_Pilot,2022.1.3,Win32,29.53511725,62c50e9c1127f2cd403a315f,0,10,10,125,1,threefour,,,,,,,,,,,,,,,,,,,,,,,,,,,,,,,,,,,,,,,,,,,,,,,,,,,,,,,,,,,,,,,,,,,,,,,,,,,,,,,,,,,,,,,,,,,,,,,,,,,,,,,,,,,,,,,,,,,,,,,,,,,,,,,,,,,,,,,,,,,,,,,,,,,,,,,,,,,,,
,,,,,,615dec01ca05f190dc303f91,62c53c909f6109d1b7f3eea3,2022-07-06_24h44.00.450,Colour_Asymmetry_Pilot,2022.1.3,Win32,29.53511725,62c50e9c1127f2cd403a315f,0,11,11,2,1,twoone,,,,,,,,,,,,,,,,,,,,,,,,,,,,,,,,,,,,,,,,,,,,,,,,,,,,,,,,,,,,,,,,,,,,,,,,,,,,,,,,,,,,,,,,,,,,,,,,,,,,,,,,,,,,,,,,,,,,,,,,,,,,,,,,,,,,,,,,,,,,,,,,,,,,,,,,,,,,,
,,,,,,615dec01ca05f190dc303f91,62c53c909f6109d1b7f3eea3,2022-07-06_24h44.00.450,Colour_Asymmetry_Pilot,2022.1.3,Win32,29.53511725,62c50e9c1127f2cd403a315f,0,12,12,35,1,twofour,,,,,,,,,,,,,,,,,,,,,,,,,,,,,,,,,,,,,,,,,,,,,,,,,,,,,,,,,,,,,,,,,,,,,,,,,,,,,,,,,,,,,,,,,,,,,,,,,,,,,,,,,,,,,,,,,,,,,,,,,,,,,,,,,,,,,,,,,,,,,,,,,,,,,,,,,,,,,
,,,,,,615dec01ca05f190dc303f91,62c53c909f6109d1b7f3eea3,2022-07-06_24h44.00.450,Colour_Asymmetry_Pilot,2022.1.3,Win32,29.53511725,62c50e9c1127f2cd403a315f,0,13,13,16,1,onetwo,,,,,,,,,,,,,,,,,,,,,,,,,,,,,,,,,,,,,,,,,,,,,,,,,,,,,,,,,,,,,,,,,,,,,,,,,,,,,,,,,,,,,,,,,,,,,,,,,,,,,,,,,,,,,,,,,,,,,,,,,,,,,,,,,,,,,,,,,,,,,,,,,,,,,,,,,,,,,
,,,,,,615dec01ca05f190dc303f91,62c53c909f6109d1b7f3eea3,2022-07-06_24h44.00.450,Colour_Asymmetry_Pilot,2022.1.3,Win32,29.53511725,62c50e9c1127f2cd403a315f,0,14,14,90,1,twoone,,,,,,,,,,,,,,,,,,,,,,,,,,,,,,,,,,,,,,,,,,,,,,,,,,,,,,,,,,,,,,,,,,,,,,,,,,,,,,,,,,,,,,,,,,,,,,,,,,,,,,,,,,,,,,,,,,,,,,,,,,,,,,,,,,,,,,,,,,,,,,,,,,,,,,,,,,,,,
,,,,,,615dec01ca05f190dc303f91,62c53c909f6109d1b7f3eea3,2022-07-06_24h44.00.450,Colour_Asymmetry_Pilot,2022.1.3,Win32,29.53511725,62c50e9c1127f2cd403a315f,0,15,15,112,1,onetwo,,,,,,,,,,,,,,,,,,,,,,,,,,,,,,,,,,,,,,,,,,,,,,,,,,,,,,,,,,,,,,,,,,,,,,,,,,,,,,,,,,,,,,,,,,,,,,,,,,,,,,,,,,,,,,,,,,,,,,,,,,,,,,,,,,,,,,,,,,,,,,,,,,,,,,,,,,,,,
,,,,,,615dec01ca05f190dc303f91,62c53c909f6109d1b7f3eea3,2022-07-06_24h44.00.450,Colour_Asymmetry_Pilot,2022.1.3,Win32,29.53511725,62c50e9c1127f2cd403a315f,0,16,16,71,1,fourthree,,,,,,,,,,,,,,,,,,,,,,,,,,,,,,,,,,,,,,,,,,,,,,,,,,,,,,,,,,,,,,,,,,,,,,,,,,,,,,,,,,,,,,,,,,,,,,,,,,,,,,,,,,,,,,,,,,,,,,,,,,,,,,,,,,,,,,,,,,,,,,,,,,,,,,,,,,,,,
,,,,,,615dec01ca05f190dc303f91,62c53c909f6109d1b7f3eea3,2022-07-06_24h44.00.450,Colour_Asymmetry_Pilot,2022.1.3,Win32,29.53511725,62c50e9c1127f2cd403a315f,0,17,17,116,1,threeone,,,,,,,,,,,,,,,,,,,,,,,,,,,,,,,,,,,,,,,,,,,,,,,,,,,,,,,,,,,,,,,,,,,,,,,,,,,,,,,,,,,,,,,,,,,,,,,,,,,,,,,,,,,,,,,,,,,,,,,,,,,,,,,,,,,,,,,,,,,,,,,,,,,,,,,,,,,,,
,,,,,,615dec01ca05f190dc303f91,62c53c909f6109d1b7f3eea3,2022-07-06_24h44.00.450,Colour_Asymmetry_Pilot,2022.1.3,Win32,29.53511725,62c50e9c1127f2cd403a315f,0,18,18,135,1,fourthree,,,,,,,,,,,,,,,,,,,,,,,,,,,,,,,,,,,,,,,,,,,,,,,,,,,,,,,,,,,,,,,,,,,,,,,,,,,,,,,,,,,,,,,,,,,,,,,,,,,,,,,,,,,,,,,,,,,,,,,,,,,,,,,,,,,,,,,,,,,,,,,,,,,,,,,,,,,,,
,,,,,,615dec01ca05f190dc303f91,62c53c909f6109d1b7f3eea3,2022-07-06_24h44.00.450,Colour_Asymmetry_Pilot,2022.1.3,Win32,29.53511725,62c50e9c1127f2cd403a315f,0,19,19,19,1,twofour,,,,,,,,,,,,,,,,,,,,,,,,,,,,,,,,,,,,,,,,,,,,,,,,,,,,,,,,,,,,,,,,,,,,,,,,,,,,,,,,,,,,,,,,,,,,,,,,,,,,,,,,,,,,,,,,,,,,,,,,,,,,,,,,,,,,,,,,,,,,,,,,,,,,,,,,,,,,,
,,,,,,615dec01ca05f190dc303f91,62c53c909f6109d1b7f3eea3,2022-07-06_24h44.00.450,Colour_Asymmetry_Pilot,2022.1.3,Win32,29.53511725,62c50e9c1127f2cd403a315f,0,20,20,36,1,threeone,,,,,,,,,,,,,,,,,,,,,,,,,,,,,,,,,,,,,,,,,,,,,,,,,,,,,,,,,,,,,,,,,,,,,,,,,,,,,,,,,,,,,,,,,,,,,,,,,,,,,,,,,,,,,,,,,,,,,,,,,,,,,,,,,,,,,,,,,,,,,,,,,,,,,,,,,,,,,
,,,,,,615dec01ca05f190dc303f91,62c53c909f6109d1b7f3eea3,2022-07-06_24h44.00.450,Colour_Asymmetry_Pilot,2022.1.3,Win32,29.53511725,62c50e9c1127f2cd403a315f,0,21,21,41,1,onethree,,,,,,,,,,,,,,,,,,,,,,,,,,,,,,,,,,,,,,,,,,,,,,,,,,,,,,,,,,,,,,,,,,,,,,,,,,,,,,,,,,,,,,,,,,,,,,,,,,,,,,,,,,,,,,,,,,,,,,,,,,,,,,,,,,,,,,,,,,,,,,,,,,,,,,,,,,,,,
,,,,,,615dec01ca05f190dc303f91,62c53c909f6109d1b7f3eea3,2022-07-06_24h44.00.450,Colour_Asymmetry_Pilot,2022.1.3,Win32,29.53511725,62c50e9c1127f2cd403a315f,0,22,22,151,1,fourthree,,,,,,,,,,,,,,,,,,,,,,,,,,,,,,,,,,,,,,,,,,,,,,,,,,,,,,,,,,,,,,,,,,,,,,,,,,,,,,,,,,,,,,,,,,,,,,,,,,,,,,,,,,,,,,,,,,,,,,,,,,,,,,,,,,,,,,,,,,,,,,,,,,,,,,,,,,,,,
,,,,,,615dec01ca05f190dc303f91,62c53c909f6109d1b7f3eea3,2022-07-06_24h44.00.450,Colour_Asymmetry_Pilot,2022.1.3,Win32,29.53511725,62c50e9c1127f2cd403a315f,0,23,23,7,1,fourthree,,,,,,,,,,,,,,,,,,,,,,,,,,,,,,,,,,,,,,,,,,,,,,,,,,,,,,,,,,,,,,,,,,,,,,,,,,,,,,,,,,,,,,,,,,,,,,,,,,,,,,,,,,,,,,,,,,,,,,,,,,,,,,,,,,,,,,,,,,,,,,,,,,,,,,,,,,,,,
,,,,,,615dec01ca05f190dc303f91,62c53c909f6109d1b7f3eea3,2022-07-06_24h44.00.450,Colour_Asymmetry_Pilot,2022.1.3,Win32,29.53511725,62c50e9c1127f2cd403a315f,0,24,24,34,1,twoone,,,,,,,,,,,,,,,,,,,,,,,,,,,,,,,,,,,,,,,,,,,,,,,,,,,,,,,,,,,,,,,,,,,,,,,,,,,,,,,,,,,,,,,,,,,,,,,,,,,,,,,,,,,,,,,,,,,,,,,,,,,,,,,,,,,,,,,,,,,,,,,,,,,,,,,,,,,,,
,,,,,,615dec01ca05f190dc303f91,62c53c909f6109d1b7f3eea3,2022-07-06_24h44.00.450,Colour_Asymmetry_Pilot,2022.1.3,Win32,29.53511725,62c50e9c1127f2cd403a315f,0,25,25,161,1,onethree,,,,,,,,,,,,,,,,,,,,,,,,,,,,,,,,,,,,,,,,,,,,,,,,,,,,,,,,,,,,,,,,,,,,,,,,,,,,,,,,,,,,,,,,,,,,,,,,,,,,,,,,,,,,,,,,,,,,,,,,,,,,,,,,,,,,,,,,,,,,,,,,,,,,,,,,,,,,,
,,,,,,615dec01ca05f190dc303f91,62c53c909f6109d1b7f3eea3,2022-07-06_24h44.00.450,Colour_Asymmetry_Pilot,2022.1.3,Win32,29.53511725,62c50e9c1127f2cd403a315f,0,26,26,145,1,onethree,,,,,,,,,,,,,,,,,,,,,,,,,,,,,,,,,,,,,,,,,,,,,,,,,,,,,,,,,,,,,,,,,,,,,,,,,,,,,,,,,,,,,,,,,,,,,,,,,,,,,,,,,,,,,,,,,,,,,,,,,,,,,,,,,,,,,,,,,,,,,,,,,,,,,,,,,,,,,
,,,,,,615dec01ca05f190dc303f91,62c53c909f6109d1b7f3eea3,2022-07-06_24h44.00.450,Colour_Asymmetry_Pilot,2022.1.3,Win32,29.53511725,62c50e9c1127f2cd403a315f,0,27,27,83,1,twofour,,,,,,,,,,,,,,,,,,,,,,,,,,,,,,,,,,,,,,,,,,,,,,,,,,,,,,,,,,,,,,,,,,,,,,,,,,,,,,,,,,,,,,,,,,,,,,,,,,,,,,,,,,,,,,,,,,,,,,,,,,,,,,,,,,,,,,,,,,,,,,,,,,,,,,,,,,,,,
,,,,,,615dec01ca05f190dc303f91,62c53c909f6109d1b7f3eea3,2022-07-06_24h44.00.450,Colour_Asymmetry_Pilot,2022.1.3,Win32,29.53511725,62c50e9c1127f2cd403a315f,0,28,28,128,1,onetwo,,,,,,,,,,,,,,,,,,,,,,,,,,,,,,,,,,,,,,,,,,,,,,,,,,,,,,,,,,,,,,,,,,,,,,,,,,,,,,,,,,,,,,,,,,,,,,,,,,,,,,,,,,,,,,,,,,,,,,,,,,,,,,,,,,,,,,,,,,,,,,,,,,,,,,,,,,,,,
,,,,,,615dec01ca05f190dc303f91,62c53c909f6109d1b7f3eea3,2022-07-06_24h44.00.450,Colour_Asymmetry_Pilot,2022.1.3,Win32,29.53511725,62c50e9c1127f2cd403a315f,0,29,29,105,1,onethree,,,,,,,,,,,,,,,,,,,,,,,,,,,,,,,,,,,,,,,,,,,,,,,,,,,,,,,,,,,,,,,,,,,,,,,,,,,,,,,,,,,,,,,,,,,,,,,,,,,,,,,,,,,,,,,,,,,,,,,,,,,,,,,,,,,,,,,,,,,,,,,,,,,,,,,,,,,,,
,,,,,,615dec01ca05f190dc303f91,62c53c909f6109d1b7f3eea3,2022-07-06_24h44.00.450,Colour_Asymmetry_Pilot,2022.1.3,Win32,29.53511725,62c50e9c1127f2cd403a315f,0,30,30,96,1,onetwo,,,,,,,,,,,,,,,,,,,,,,,,,,,,,,,,,,,,,,,,,,,,,,,,,,,,,,,,,,,,,,,,,,,,,,,,,,,,,,,,,,,,,,,,,,,,,,,,,,,,,,,,,,,,,,,,,,,,,,,,,,,,,,,,,,,,,,,,,,,,,,,,,,,,,,,,,,,,,
,,,,,,615dec01ca05f190dc303f91,62c53c909f6109d1b7f3eea3,2022-07-06_24h44.00.450,Colour_Asymmetry_Pilot,2022.1.3,Win32,29.53511725,62c50e9c1127f2cd403a315f,0,31,31,59,1,twofour,,,,,,,,,,,,,,,,,,,,,,,,,,,,,,,,,,,,,,,,,,,,,,,,,,,,,,,,,,,,,,,,,,,,,,,,,,,,,,,,,,,,,,,,,,,,,,,,,,,,,,,,,,,,,,,,,,,,,,,,,,,,,,,,,,,,,,,,,,,,,,,,,,,,,,,,,,,,,
,,,,,,615dec01ca05f190dc303f91,62c53c909f6109d1b7f3eea3,2022-07-06_24h44.00.450,Colour_Asymmetry_Pilot,2022.1.3,Win32,29.53511725,62c50e9c1127f2cd403a315f,0,32,32,75,1,twofour,,,,,,,,,,,,,,,,,,,,,,,,,,,,,,,,,,,,,,,,,,,,,,,,,,,,,,,,,,,,,,,,,,,,,,,,,,,,,,,,,,,,,,,,,,,,,,,,,,,,,,,,,,,,,,,,,,,,,,,,,,,,,,,,,,,,,,,,,,,,,,,,,,,,,,,,,,,,,
,,,,,,615dec01ca05f190dc303f91,62c53c909f6109d1b7f3eea3,2022-07-06_24h44.00.450,Colour_Asymmetry_Pilot,2022.1.3,Win32,29.53511725,62c50e9c1127f2cd403a315f,0,33,33,157,1,threefour,,,,,,,,,,,,,,,,,,,,,,,,,,,,,,,,,,,,,,,,,,,,,,,,,,,,,,,,,,,,,,,,,,,,,,,,,,,,,,,,,,,,,,,,,,,,,,,,,,,,,,,,,,,,,,,,,,,,,,,,,,,,,,,,,,,,,,,,,,,,,,,,,,,,,,,,,,,,,
,,,,,,615dec01ca05f190dc303f91,62c53c909f6109d1b7f3eea3,2022-07-06_24h44.00.450,Colour_Asymmetry_Pilot,2022.1.3,Win32,29.53511725,62c50e9c1127f2cd403a315f,0,34,34,0,1,onetwo,,,,,,,,,,,,,,,,,,,,,,,,,,,,,,,,,,,,,,,,,,,,,,,,,,,,,,,,,,,,,,,,,,,,,,,,,,,,,,,,,,,,,,,,,,,,,,,,,,,,,,,,,,,,,,,,,,,,,,,,,,,,,,,,,,,,,,,,,,,,,,,,,,,,,,,,,,,,,
,,,,,,615dec01ca05f190dc303f91,62c53c909f6109d1b7f3eea3,2022-07-06_24h44.00.450,Colour_Asymmetry_Pilot,2022.1.3,Win32,29.53511725,62c50e9c1127f2cd403a315f,0,35,35,18,1,twoone,,,,,,,,,,,,,,,,,,,,,,,,,,,,,,,,,,,,,,,,,,,,,,,,,,,,,,,,,,,,,,,,,,,,,,,,,,,,,,,,,,,,,,,,,,,,,,,,,,,,,,,,,,,,,,,,,,,,,,,,,,,,,,,,,,,,,,,,,,,,,,,,,,,,,,,,,,,,,
,,,,,,615dec01ca05f190dc303f91,62c53c909f6109d1b7f3eea3,2022-07-06_24h44.00.450,Colour_Asymmetry_Pilot,2022.1.3,Win32,29.53511725,62c50e9c1127f2cd403a315f,0,36,36,88,1,onetwo,,,,,,,,,,,,,,,,,,,,,,,,,,,,,,,,,,,,,,,,,,,,,,,,,,,,,,,,,,,,,,,,,,,,,,,,,,,,,,,,,,,,,,,,,,,,,,,,,,,,,,,,,,,,,,,,,,,,,,,,,,,,,,,,,,,,,,,,,,,,,,,,,,,,,,,,,,,,,
,,,,,,615dec01ca05f190dc303f91,62c53c909f6109d1b7f3eea3,2022-07-06_24h44.00.450,Colour_Asymmetry_Pilot,2022.1.3,Win32,29.53511725,62c50e9c1127f2cd403a315f,0,37,37,25,1,onethree,,,,,,,,,,,,,,,,,,,,,,,,,,,,,,,,,,,,,,,,,,,,,,,,,,,,,,,,,,,,,,,,,,,,,,,,,,,,,,,,,,,,,,,,,,,,,,,,,,,,,,,,,,,,,,,,,,,,,,,,,,,,,,,,,,,,,,,,,,,,,,,,,,,,,,,,,,,,,
,,,,,,615dec01ca05f190dc303f91,62c53c909f6109d1b7f3eea3,2022-07-06_24h44.00.450,Colour_Asymmetry_Pilot,2022.1.3,Win32,29.53511725,62c50e9c1127f2cd403a315f,0,38,38,119,1,fourthree,,,,,,,,,,,,,,,,,,,,,,,,,,,,,,,,,,,,,,,,,,,,,,,,,,,,,,,,,,,,,,,,,,,,,,,,,,,,,,,,,,,,,,,,,,,,,,,,,,,,,,,,,,,,,,,,,,,,,,,,,,,,,,,,,,,,,,,,,,,,,,,,,,,,,,,,,,,,,
,,,,,,615dec01ca05f190dc303f91,62c53c909f6109d1b7f3eea3,2022-07-06_24h44.00.450,Colour_Asymmetry_Pilot,2022.1.3,Win32,29.53511725,62c50e9c1127f2cd403a315f,0,39,39,27,1,twofour,,,,,,,,,,,,,,,,,,,,,,,,,,,,,,,,,,,,,,,,,,,,,,,,,,,,,,,,,,,,,,,,,,,,,,,,,,,,,,,,,,,,,,,,,,,,,,,,,,,,,,,,,,,,,,,,,,,,,,,,,,,,,,,,,,,,,,,,,,,,,,,,,,,,,,,,,,,,,
,,,,,,615dec01ca05f190dc303f91,62c53c909f6109d1b7f3eea3,2022-07-06_24h44.00.450,Colour_Asymmetry_Pilot,2022.1.3,Win32,29.53511725,62c50e9c1127f2cd403a315f,0,40,40,72,1,onetwo,,,,,,,,,,,,,,,,,,,,,,,,,,,,,,,,,,,,,,,,,,,,,,,,,,,,,,,,,,,,,,,,,,,,,,,,,,,,,,,,,,,,,,,,,,,,,,,,,,,,,,,,,,,,,,,,,,,,,,,,,,,,,,,,,,,,,,,,,,,,,,,,,,,,,,,,,,,,,
,,,,,,615dec01ca05f190dc303f91,62c53c909f6109d1b7f3eea3,2022-07-06_24h44.00.450,Colour_Asymmetry_Pilot,2022.1.3,Win32,29.53511725,62c50e9c1127f2cd403a315f,0,41,41,32,1,onetwo,,,,,,,,,,,,,,,,,,,,,,,,,,,,,,,,,,,,,,,,,,,,,,,,,,,,,,,,,,,,,,,,,,,,,,,,,,,,,,,,,,,,,,,,,,,,,,,,,,,,,,,,,,,,,,,,,,,,,,,,,,,,,,,,,,,,,,,,,,,,,,,,,,,,,,,,,,,,,
,,,,,,615dec01ca05f190dc303f91,62c53c909f6109d1b7f3eea3,2022-07-06_24h44.00.450,Colour_Asymmetry_Pilot,2022.1.3,Win32,29.53511725,62c50e9c1127f2cd403a315f,0,42,42,77,1,threefour,,,,,,,,,,,,,,,,,,,,,,,,,,,,,,,,,,,,,,,,,,,,,,,,,,,,,,,,,,,,,,,,,,,,,,,,,,,,,,,,,,,,,,,,,,,,,,,,,,,,,,,,,,,,,,,,,,,,,,,,,,,,,,,,,,,,,,,,,,,,,,,,,,,,,,,,,,,,,
,,,,,,615dec01ca05f190dc303f91,62c53c909f6109d1b7f3eea3,2022-07-06_24h44.00.450,Colour_Asymmetry_Pilot,2022.1.3,Win32,29.53511725,62c50e9c1127f2cd403a315f,0,43,43,29,1,threefour,,,,,,,,,,,,,,,,,,,,,,,,,,,,,,,,,,,,,,,,,,,,,,,,,,,,,,,,,,,,,,,,,,,,,,,,,,,,,,,,,,,,,,,,,,,,,,,,,,,,,,,,,,,,,,,,,,,,,,,,,,,,,,,,,,,,,,,,,,,,,,,,,,,,,,,,,,,,,
,,,,,,615dec01ca05f190dc303f91,62c53c909f6109d1b7f3eea3,2022-07-06_24h44.00.450,Colour_Asymmetry_Pilot,2022.1.3,Win32,29.53511725,62c50e9c1127f2cd403a315f,0,44,44,43,1,twofour,,,,,,,,,,,,,,,,,,,,,,,,,,,,,,,,,,,,,,,,,,,,,,,,,,,,,,,,,,,,,,,,,,,,,,,,,,,,,,,,,,,,,,,,,,,,,,,,,,,,,,,,,,,,,,,,,,,,,,,,,,,,,,,,,,,,,,,,,,,,,,,,,,,,,,,,,,,,,
,,,,,,615dec01ca05f190dc303f91,62c53c909f6109d1b7f3eea3,2022-07-06_24h44.00.450,Colour_Asymmetry_Pilot,2022.1.3,Win32,29.53511725,62c50e9c1127f2cd403a315f,0,45,45,80,1,onetwo,,,,,,,,,,,,,,,,,,,,,,,,,,,,,,,,,,,,,,,,,,,,,,,,,,,,,,,,,,,,,,,,,,,,,,,,,,,,,,,,,,,,,,,,,,,,,,,,,,,,,,,,,,,,,,,,,,,,,,,,,,,,,,,,,,,,,,,,,,,,,,,,,,,,,,,,,,,,,
,,,,,,615dec01ca05f190dc303f91,62c53c909f6109d1b7f3eea3,2022-07-06_24h44.00.450,Colour_Asymmetry_Pilot,2022.1.3,Win32,29.53511725,62c50e9c1127f2cd403a315f,0,46,46,40,1,onetwo,,,,,,,,,,,,,,,,,,,,,,,,,,,,,,,,,,,,,,,,,,,,,,,,,,,,,,,,,,,,,,,,,,,,,,,,,,,,,,,,,,,,,,,,,,,,,,,,,,,,,,,,,,,,,,,,,,,,,,,,,,,,,,,,,,,,,,,,,,,,,,,,,,,,,,,,,,,,,
,,,,,,615dec01ca05f190dc303f91,62c53c909f6109d1b7f3eea3,2022-07-06_24h44.00.450,Colour_Asymmetry_Pilot,2022.1.3,Win32,29.53511725,62c50e9c1127f2cd403a315f,0,47,47,3,1,twofour,,,,,,,,,,,,,,,,,,,,,,,,,,,,,,,,,,,,,,,,,,,,,,,,,,,,,,,,,,,,,,,,,,,,,,,,,,,,,,,,,,,,,,,,,,,,,,,,,,,,,,,,,,,,,,,,,,,,,,,,,,,,,,,,,,,,,,,,,,,,,,,,,,,,,,,,,,,,,
,,,,,,615dec01ca05f190dc303f91,62c53c909f6109d1b7f3eea3,2022-07-06_24h44.00.450,Colour_Asymmetry_Pilot,2022.1.3,Win32,29.53511725,62c50e9c1127f2cd403a315f,0,48,48,129,1,onethree,,,,,,,,,,,,,,,,,,,,,,,,,,,,,,,,,,,,,,,,,,,,,,,,,,,,,,,,,,,,,,,,,,,,,,,,,,,,,,,,,,,,,,,,,,,,,,,,,,,,,,,,,,,,,,,,,,,,,,,,,,,,,,,,,,,,,,,,,,,,,,,,,,,,,,,,,,,,,
,,,,,,615dec01ca05f190dc303f91,62c53c909f6109d1b7f3eea3,2022-07-06_24h44.00.450,Colour_Asymmetry_Pilot,2022.1.3,Win32,29.53511725,62c50e9c1127f2cd403a315f,0,49,49,120,1,onetwo,,,,,,,,,,,,,,,,,,,,,,,,,,,,,,,,,,,,,,,,,,,,,,,,,,,,,,,,,,,,,,,,,,,,,,,,,,,,,,,,,,,,,,,,,,,,,,,,,,,,,,,,,,,,,,,,,,,,,,,,,,,,,,,,,,,,,,,,,,,,,,,,,,,,,,,,,,,,,
,,,,,,615dec01ca05f190dc303f91,62c53c909f6109d1b7f3eea3,2022-07-06_24h44.00.450,Colour_Asymmetry_Pilot,2022.1.3,Win32,29.53511725,62c50e9c1127f2cd403a315f,0,50,50,148,1,threeone,,,,,,,,,,,,,,,,,,,,,,,,,,,,,,,,,,,,,,,,,,,,,,,,,,,,,,,,,,,,,,,,,,,,,,,,,,,,,,,,,,,,,,,,,,,,,,,,,,,,,,,,,,,,,,,,,,,,,,,,,,,,,,,,,,,,,,,,,,,,,,,,,,,,,,,,,,,,,
,,,,,,615dec01ca05f190dc303f91,62c53c909f6109d1b7f3eea3,2022-07-06_24h44.00.450,Colour_Asymmetry_Pilot,2022.1.3,Win32,29.53511725,62c50e9c1127f2cd403a315f,0,51,51,66,1,twoone,,,,,,,,,,,,,,,,,,,,,,,,,,,,,,,,,,,,,,,,,,,,,,,,,,,,,,,,,,,,,,,,,,,,,,,,,,,,,,,,,,,,,,,,,,,,,,,,,,,,,,,,,,,,,,,,,,,,,,,,,,,,,,,,,,,,,,,,,,,,,,,,,,,,,,,,,,,,,
,,,,,,615dec01ca05f190dc303f91,62c53c909f6109d1b7f3eea3,2022-07-06_24h44.00.450,Colour_Asymmetry_Pilot,2022.1.3,Win32,29.53511725,62c50e9c1127f2cd403a315f,0,52,52,60,1,threeone,,,,,,,,,,,,,,,,,,,,,,,,,,,,,,,,,,,,,,,,,,,,,,,,,,,,,,,,,,,,,,,,,,,,,,,,,,,,,,,,,,,,,,,,,,,,,,,,,,,,,,,,,,,,,,,,,,,,,,,,,,,,,,,,,,,,,,,,,,,,,,,,,,,,,,,,,,,,,
,,,,,,615dec01ca05f190dc303f91,62c53c909f6109d1b7f3eea3,2022-07-06_24h44.00.450,Colour_Asymmetry_Pilot,2022.1.3,Win32,29.53511725,62c50e9c1127f2cd403a315f,0,53,53,39,1,fourthree,,,,,,,,,,,,,,,,,,,,,,,,,,,,,,,,,,,,,,,,,,,,,,,,,,,,,,,,,,,,,,,,,,,,,,,,,,,,,,,,,,,,,,,,,,,,,,,,,,,,,,,,,,,,,,,,,,,,,,,,,,,,,,,,,,,,,,,,,,,,,,,,,,,,,,,,,,,,,
,,,,,,615dec01ca05f190dc303f91,62c53c909f6109d1b7f3eea3,2022-07-06_24h44.00.450,Colour_Asymmetry_Pilot,2022.1.3,Win32,29.53511725,62c50e9c1127f2cd403a315f,0,54,54,102,1,fourtwo,,,,,,,,,,,,,,,,,,,,,,,,,,,,,,,,,,,,,,,,,,,,,,,,,,,,,,,,,,,,,,,,,,,,,,,,,,,,,,,,,,,,,,,,,,,,,,,,,,,,,,,,,,,,,,,,,,,,,,,,,,,,,,,,,,,,,,,,,,,,,,,,,,,,,,,,,,,,,
,,,,,,615dec01ca05f190dc303f91,62c53c909f6109d1b7f3eea3,2022-07-06_24h44.00.450,Colour_Asymmetry_Pilot,2022.1.3,Win32,29.53511725,62c50e9c1127f2cd403a315f,0,55,55,126,1,fourtwo,,,,,,,,,,,,,,,,,,,,,,,,,,,,,,,,,,,,,,,,,,,,,,,,,,,,,,,,,,,,,,,,,,,,,,,,,,,,,,,,,,,,,,,,,,,,,,,,,,,,,,,,,,,,,,,,,,,,,,,,,,,,,,,,,,,,,,,,,,,,,,,,,,,,,,,,,,,,,
,,,,,,615dec01ca05f190dc303f91,62c53c909f6109d1b7f3eea3,2022-07-06_24h44.00.450,Colour_Asymmetry_Pilot,2022.1.3,Win32,29.53511725,62c50e9c1127f2cd403a315f,0,56,56,30,1,fourtwo,,,,,,,,,,,,,,,,,,,,,,,,,,,,,,,,,,,,,,,,,,,,,,,,,,,,,,,,,,,,,,,,,,,,,,,,,,,,,,,,,,,,,,,,,,,,,,,,,,,,,,,,,,,,,,,,,,,,,,,,,,,,,,,,,,,,,,,,,,,,,,,,,,,,,,,,,,,,,
,,,,,,615dec01ca05f190dc303f91,62c53c909f6109d1b7f3eea3,2022-07-06_24h44.00.450,Colour_Asymmetry_Pilot,2022.1.3,Win32,29.53511725,62c50e9c1127f2cd403a315f,0,57,57,94,1,fourtwo,,,,,,,,,,,,,,,,,,,,,,,,,,,,,,,,,,,,,,,,,,,,,,,,,,,,,,,,,,,,,,,,,,,,,,,,,,,,,,,,,,,,,,,,,,,,,,,,,,,,,,,,,,,,,,,,,,,,,,,,,,,,,,,,,,,,,,,,,,,,,,,,,,,,,,,,,,,,,
,,,,,,615dec01ca05f190dc303f91,62c53c909f6109d1b7f3eea3,2022-07-06_24h44.00.450,Colour_Asymmetry_Pilot,2022.1.3,Win32,29.53511725,62c50e9c1127f2cd403a315f,0,58,58,12,1,threeone,,,,,,,,,,,,,,,,,,,,,,,,,,,,,,,,,,,,,,,,,,,,,,,,,,,,,,,,,,,,,,,,,,,,,,,,,,,,,,,,,,,,,,,,,,,,,,,,,,,,,,,,,,,,,,,,,,,,,,,,,,,,,,,,,,,,,,,,,,,,,,,,,,,,,,,,,,,,,
,,,,,,615dec01ca05f190dc303f91,62c53c909f6109d1b7f3eea3,2022-07-06_24h44.00.450,Colour_Asymmetry_Pilot,2022.1.3,Win32,29.53511725,62c50e9c1127f2cd403a315f,0,59,59,136,1,onetwo,,,,,,,,,,,,,,,,,,,,,,,,,,,,,,,,,,,,,,,,,,,,,,,,,,,,,,,,,,,,,,,,,,,,,,,,,,,,,,,,,,,,,,,,,,,,,,,,,,,,,,,,,,,,,,,,,,,,,,,,,,,,,,,,,,,,,,,,,,,,,,,,,,,,,,,,,,,,,
,,,,,,615dec01ca05f190dc303f91,62c53c909f6109d1b7f3eea3,2022-07-06_24h44.00.450,Colour_Asymmetry_Pilot,2022.1.3,Win32,29.53511725,62c50e9c1127f2cd403a315f,0,60,60,8,1,onetwo,,,,,,,,,,,,,,,,,,,,,,,,,,,,,,,,,,,,,,,,,,,,,,,,,,,,,,,,,,,,,,,,,,,,,,,,,,,,,,,,,,,,,,,,,,,,,,,,,,,,,,,,,,,,,,,,,,,,,,,,,,,,,,,,,,,,,,,,,,,,,,,,,,,,,,,,,,,,,
,,,,,,615dec01ca05f190dc303f91,62c53c909f6109d1b7f3eea3,2022-07-06_24h44.00.450,Colour_Asymmetry_Pilot,2022.1.3,Win32,29.53511725,62c50e9c1127f2cd403a315f,0,61,61,123,1,twofour,,,,,,,,,,,,,,,,,,,,,,,,,,,,,,,,,,,,,,,,,,,,,,,,,,,,,,,,,,,,,,,,,,,,,,,,,,,,,,,,,,,,,,,,,,,,,,,,,,,,,,,,,,,,,,,,,,,,,,,,,,,,,,,,,,,,,,,,,,,,,,,,,,,,,,,,,,,,,
,,,,,,615dec01ca05f190dc303f91,62c53c909f6109d1b7f3eea3,2022-07-06_24h44.00.450,Colour_Asymmetry_Pilot,2022.1.3,Win32,29.53511725,62c50e9c1127f2cd403a315f,0,62,62,143,1,fourthree,,,,,,,,,,,,,,,,,,,,,,,,,,,,,,,,,,,,,,,,,,,,,,,,,,,,,,,,,,,,,,,,,,,,,,,,,,,,,,,,,,,,,,,,,,,,,,,,,,,,,,,,,,,,,,,,,,,,,,,,,,,,,,,,,,,,,,,,,,,,,,,,,,,,,,,,,,,,,
,,,,,,615dec01ca05f190dc303f91,62c53c909f6109d1b7f3eea3,2022-07-06_24h44.00.450,Colour_Asymmetry_Pilot,2022.1.3,Win32,29.53511725,62c50e9c1127f2cd403a315f,0,63,63,1,1,onethree,,,,,,,,,,,,,,,,,,,,,,,,,,,,,,,,,,,,,,,,,,,,,,,,,,,,,,,,,,,,,,,,,,,,,,,,,,,,,,,,,,,,,,,,,,,,,,,,,,,,,,,,,,,,,,,,,,,,,,,,,,,,,,,,,,,,,,,,,,,,,,,,,,,,,,,,,,,,,
,,,,,,615dec01ca05f190dc303f91,62c53c909f6109d1b7f3eea3,2022-07-06_24h44.00.450,Colour_Asymmetry_Pilot,2022.1.3,Win32,29.53511725,62c50e9c1127f2cd403a315f,0,64,64,108,1,threeone,,,,,,,,,,,,,,,,,,,,,,,,,,,,,,,,,,,,,,,,,,,,,,,,,,,,,,,,,,,,,,,,,,,,,,,,,,,,,,,,,,,,,,,,,,,,,,,,,,,,,,,,,,,,,,,,,,,,,,,,,,,,,,,,,,,,,,,,,,,,,,,,,,,,,,,,,,,,,
,,,,,,615dec01ca05f190dc303f91,62c53c909f6109d1b7f3eea3,2022-07-06_24h44.00.450,Colour_Asymmetry_Pilot,2022.1.3,Win32,29.53511725,62c50e9c1127f2cd403a315f,0,65,65,121,1,onethree,,,,,,,,,,,,,,,,,,,,,,,,,,,,,,,,,,,,,,,,,,,,,,,,,,,,,,,,,,,,,,,,,,,,,,,,,,,,,,,,,,,,,,,,,,,,,,,,,,,,,,,,,,,,,,,,,,,,,,,,,,,,,,,,,,,,,,,,,,,,,,,,,,,,,,,,,,,,,
,,,,,,615dec01ca05f190dc303f91,62c53c909f6109d1b7f3eea3,2022-07-06_24h44.00.450,Colour_Asymmetry_Pilot,2022.1.3,Win32,29.53511725,62c50e9c1127f2cd403a315f,0,66,66,56,1,onetwo,,,,,,,,,,,,,,,,,,,,,,,,,,,,,,,,,,,,,,,,,,,,,,,,,,,,,,,,,,,,,,,,,,,,,,,,,,,,,,,,,,,,,,,,,,,,,,,,,,,,,,,,,,,,,,,,,,,,,,,,,,,,,,,,,,,,,,,,,,,,,,,,,,,,,,,,,,,,,
,,,,,,615dec01ca05f190dc303f91,62c53c909f6109d1b7f3eea3,2022-07-06_24h44.00.450,Colour_Asymmetry_Pilot,2022.1.3,Win32,29.53511725,62c50e9c1127f2cd403a315f,0,67,67,160,1,onetwo,,,,,,,,,,,,,,,,,,,,,,,,,,,,,,,,,,,,,,,,,,,,,,,,,,,,,,,,,,,,,,,,,,,,,,,,,,,,,,,,,,,,,,,,,,,,,,,,,,,,,,,,,,,,,,,,,,,,,,,,,,,,,,,,,,,,,,,,,,,,,,,,,,,,,,,,,,,,,
,,,,,,615dec01ca05f190dc303f91,62c53c909f6109d1b7f3eea3,2022-07-06_24h44.00.450,Colour_Asymmetry_Pilot,2022.1.3,Win32,29.53511725,62c50e9c1127f2cd403a315f,0,68,68,158,1,fourtwo,,,,,,,,,,,,,,,,,,,,,,,,,,,,,,,,,,,,,,,,,,,,,,,,,,,,,,,,,,,,,,,,,,,,,,,,,,,,,,,,,,,,,,,,,,,,,,,,,,,,,,,,,,,,,,,,,,,,,,,,,,,,,,,,,,,,,,,,,,,,,,,,,,,,,,,,,,,,,
,,,,,,615dec01ca05f190dc303f91,62c53c909f6109d1b7f3eea3,2022-07-06_24h44.00.450,Colour_Asymmetry_Pilot,2022.1.3,Win32,29.53511725,62c50e9c1127f2cd403a315f,0,69,69,153,1,onethree,,,,,,,,,,,,,,,,,,,,,,,,,,,,,,,,,,,,,,,,,,,,,,,,,,,,,,,,,,,,,,,,,,,,,,,,,,,,,,,,,,,,,,,,,,,,,,,,,,,,,,,,,,,,,,,,,,,,,,,,,,,,,,,,,,,,,,,,,,,,,,,,,,,,,,,,,,,,,
,,,,,,615dec01ca05f190dc303f91,62c53c909f6109d1b7f3eea3,2022-07-06_24h44.00.450,Colour_Asymmetry_Pilot,2022.1.3,Win32,29.53511725,62c50e9c1127f2cd403a315f,0,70,70,38,1,fourtwo,,,,,,,,,,,,,,,,,,,,,,,,,,,,,,,,,,,,,,,,,,,,,,,,,,,,,,,,,,,,,,,,,,,,,,,,,,,,,,,,,,,,,,,,,,,,,,,,,,,,,,,,,,,,,,,,,,,,,,,,,,,,,,,,,,,,,,,,,,,,,,,,,,,,,,,,,,,,,
,,,,,,615dec01ca05f190dc303f91,62c53c909f6109d1b7f3eea3,2022-07-06_24h44.00.450,Colour_Asymmetry_Pilot,2022.1.3,Win32,29.53511725,62c50e9c1127f2cd403a315f,0,71,71,58,1,twoone,,,,,,,,,,,,,,,,,,,,,,,,,,,,,,,,,,,,,,,,,,,,,,,,,,,,,,,,,,,,,,,,,,,,,,,,,,,,,,,,,,,,,,,,,,,,,,,,,,,,,,,,,,,,,,,,,,,,,,,,,,,,,,,,,,,,,,,,,,,,,,,,,,,,,,,,,,,,,
,,,,,,615dec01ca05f190dc303f91,62c53c909f6109d1b7f3eea3,2022-07-06_24h44.00.450,Colour_Asymmetry_Pilot,2022.1.3,Win32,29.53511725,62c50e9c1127f2cd403a315f,0,72,72,81,1,onethree,,,,,,,,,,,,,,,,,,,,,,,,,,,,,,,,,,,,,,,,,,,,,,,,,,,,,,,,,,,,,,,,,,,,,,,,,,,,,,,,,,,,,,,,,,,,,,,,,,,,,,,,,,,,,,,,,,,,,,,,,,,,,,,,,,,,,,,,,,,,,,,,,,,,,,,,,,,,,
,,,,,,615dec01ca05f190dc303f91,62c53c909f6109d1b7f3eea3,2022-07-06_24h44.00.450,Colour_Asymmetry_Pilot,2022.1.3,Win32,29.53511725,62c50e9c1127f2cd403a315f,0,73,73,54,1,fourtwo,,,,,,,,,,,,,,,,,,,,,,,,,,,,,,,,,,,,,,,,,,,,,,,,,,,,,,,,,,,,,,,,,,,,,,,,,,,,,,,,,,,,,,,,,,,,,,,,,,,,,,,,,,,,,,,,,,,,,,,,,,,,,,,,,,,,,,,,,,,,,,,,,,,,,,,,,,,,,
,,,,,,615dec01ca05f190dc303f91,62c53c909f6109d1b7f3eea3,2022-07-06_24h44.00.450,Colour_Asymmetry_Pilot,2022.1.3,Win32,29.53511725,62c50e9c1127f2cd403a315f,0,74,74,17,1,onethree,,,,,,,,,,,,,,,,,,,,,,,,,,,,,,,,,,,,,,,,,,,,,,,,,,,,,,,,,,,,,,,,,,,,,,,,,,,,,,,,,,,,,,,,,,,,,,,,,,,,,,,,,,,,,,,,,,,,,,,,,,,,,,,,,,,,,,,,,,,,,,,,,,,,,,,,,,,,,
,,,,,,615dec01ca05f190dc303f91,62c53c909f6109d1b7f3eea3,2022-07-06_24h44.00.450,Colour_Asymmetry_Pilot,2022.1.3,Win32,29.53511725,62c50e9c1127f2cd403a315f,0,75,75,132,1,threeone,,,,,,,,,,,,,,,,,,,,,,,,,,,,,,,,,,,,,,,,,,,,,,,,,,,,,,,,,,,,,,,,,,,,,,,,,,,,,,,,,,,,,,,,,,,,,,,,,,,,,,,,,,,,,,,,,,,,,,,,,,,,,,,,,,,,,,,,,,,,,,,,,,,,,,,,,,,,,
,,,,,,615dec01ca05f190dc303f91,62c53c909f6109d1b7f3eea3,2022-07-06_24h44.00.450,Colour_Asymmetry_Pilot,2022.1.3,Win32,29.53511725,62c50e9c1127f2cd403a315f,0,76,76,23,1,fourthree,,,,,,,,,,,,,,,,,,,,,,,,,,,,,,,,,,,,,,,,,,,,,,,,,,,,,,,,,,,,,,,,,,,,,,,,,,,,,,,,,,,,,,,,,,,,,,,,,,,,,,,,,,,,,,,,,,,,,,,,,,,,,,,,,,,,,,,,,,,,,,,,,,,,,,,,,,,,,
,,,,,,615dec01ca05f190dc303f91,62c53c909f6109d1b7f3eea3,2022-07-06_24h44.00.450,Colour_Asymmetry_Pilot,2022.1.3,Win32,29.53511725,62c50e9c1127f2cd403a315f,0,77,77,73,1,onethree,,,,,,,,,,,,,,,,,,,,,,,,,,,,,,,,,,,,,,,,,,,,,,,,,,,,,,,,,,,,,,,,,,,,,,,,,,,,,,,,,,,,,,,,,,,,,,,,,,,,,,,,,,,,,,,,,,,,,,,,,,,,,,,,,,,,,,,,,,,,,,,,,,,,,,,,,,,,,
,,,,,,615dec01ca05f190dc303f91,62c53c909f6109d1b7f3eea3,2022-07-06_24h44.00.450,Colour_Asymmetry_Pilot,2022.1.3,Win32,29.53511725,62c50e9c1127f2cd403a315f,0,78,78,154,1,twoone,,,,,,,,,,,,,,,,,,,,,,,,,,,,,,,,,,,,,,,,,,,,,,,,,,,,,,,,,,,,,,,,,,,,,,,,,,,,,,,,,,,,,,,,,,,,,,,,,,,,,,,,,,,,,,,,,,,,,,,,,,,,,,,,,,,,,,,,,,,,,,,,,,,,,,,,,,,,,
,,,,,,615dec01ca05f190dc303f91,62c53c909f6109d1b7f3eea3,2022-07-06_24h44.00.450,Colour_Asymmetry_Pilot,2022.1.3,Win32,29.53511725,62c50e9c1127f2cd403a315f,0,79,79,149,1,threefour,,,,,,,,,,,,,,,,,,,,,,,,,,,,,,,,,,,,,,,,,,,,,,,,,,,,,,,,,,,,,,,,,,,,,,,,,,,,,,,,,,,,,,,,,,,,,,,,,,,,,,,,,,,,,,,,,,,,,,,,,,,,,,,,,,,,,,,,,,,,,,,,,,,,,,,,,,,,,
,,,,,,615dec01ca05f190dc303f91,62c53c909f6109d1b7f3eea3,2022-07-06_24h44.00.450,Colour_Asymmetry_Pilot,2022.1.3,Win32,29.53511725,62c50e9c1127f2cd403a315f,0,80,80,134,1,fourtwo,,,,,,,,,,,,,,,,,,,,,,,,,,,,,,,,,,,,,,,,,,,,,,,,,,,,,,,,,,,,,,,,,,,,,,,,,,,,,,,,,,,,,,,,,,,,,,,,,,,,,,,,,,,,,,,,,,,,,,,,,,,,,,,,,,,,,,,,,,,,,,,,,,,,,,,,,,,,,
,,,,,,615dec01ca05f190dc303f91,62c53c909f6109d1b7f3eea3,2022-07-06_24h44.00.450,Colour_Asymmetry_Pilot,2022.1.3,Win32,29.53511725,62c50e9c1127f2cd403a315f,0,81,81,99,1,twofour,,,,,,,,,,,,,,,,,,,,,,,,,,,,,,,,,,,,,,,,,,,,,,,,,,,,,,,,,,,,,,,,,,,,,,,,,,,,,,,,,,,,,,,,,,,,,,,,,,,,,,,,,,,,,,,,,,,,,,,,,,,,,,,,,,,,,,,,,,,,,,,,,,,,,,,,,,,,,
,,,,,,615dec01ca05f190dc303f91,62c53c909f6109d1b7f3eea3,2022-07-06_24h44.00.450,Colour_Asymmetry_Pilot,2022.1.3,Win32,29.53511725,62c50e9c1127f2cd403a315f,0,82,82,131,1,twofour,,,,,,,,,,,,,,,,,,,,,,,,,,,,,,,,,,,,,,,,,,,,,,,,,,,,,,,,,,,,,,,,,,,,,,,,,,,,,,,,,,,,,,,,,,,,,,,,,,,,,,,,,,,,,,,,,,,,,,,,,,,,,,,,,,,,,,,,,,,,,,,,,,,,,,,,,,,,,
,,,,,,615dec01ca05f190dc303f91,62c53c909f6109d1b7f3eea3,2022-07-06_24h44.00.450,Colour_Asymmetry_Pilot,2022.1.3,Win32,29.53511725,62c50e9c1127f2cd403a315f,0,83,83,87,1,fourthree,,,,,,,,,,,,,,,,,,,,,,,,,,,,,,,,,,,,,,,,,,,,,,,,,,,,,,,,,,,,,,,,,,,,,,,,,,,,,,,,,,,,,,,,,,,,,,,,,,,,,,,,,,,,,,,,,,,,,,,,,,,,,,,,,,,,,,,,,,,,,,,,,,,,,,,,,,,,,
,,,,,,615dec01ca05f190dc303f91,62c53c909f6109d1b7f3eea3,2022-07-06_24h44.00.450,Colour_Asymmetry_Pilot,2022.1.3,Win32,29.53511725,62c50e9c1127f2cd403a315f,0,84,84,13,1,threefour,,,,,,,,,,,,,,,,,,,,,,,,,,,,,,,,,,,,,,,,,,,,,,,,,,,,,,,,,,,,,,,,,,,,,,,,,,,,,,,,,,,,,,,,,,,,,,,,,,,,,,,,,,,,,,,,,,,,,,,,,,,,,,,,,,,,,,,,,,,,,,,,,,,,,,,,,,,,,
,,,,,,615dec01ca05f190dc303f91,62c53c909f6109d1b7f3eea3,2022-07-06_24h44.00.450,Colour_Asymmetry_Pilot,2022.1.3,Win32,29.53511725,62c50e9c1127f2cd403a315f,0,85,85,117,1,threefour,,,,,,,,,,,,,,,,,,,,,,,,,,,,,,,,,,,,,,,,,,,,,,,,,,,,,,,,,,,,,,,,,,,,,,,,,,,,,,,,,,,,,,,,,,,,,,,,,,,,,,,,,,,,,,,,,,,,,,,,,,,,,,,,,,,,,,,,,,,,,,,,,,,,,,,,,,,,,
,,,,,,615dec01ca05f190dc303f91,62c53c909f6109d1b7f3eea3,2022-07-06_24h44.00.450,Colour_Asymmetry_Pilot,2022.1.3,Win32,29.53511725,62c50e9c1127f2cd403a315f,0,86,86,42,1,twoone,,,,,,,,,,,,,,,,,,,,,,,,,,,,,,,,,,,,,,,,,,,,,,,,,,,,,,,,,,,,,,,,,,,,,,,,,,,,,,,,,,,,,,,,,,,,,,,,,,,,,,,,,,,,,,,,,,,,,,,,,,,,,,,,,,,,,,,,,,,,,,,,,,,,,,,,,,,,,
,,,,,,615dec01ca05f190dc303f91,62c53c909f6109d1b7f3eea3,2022-07-06_24h44.00.450,Colour_Asymmetry_Pilot,2022.1.3,Win32,29.53511725,62c50e9c1127f2cd403a315f,0,87,87,22,1,fourtwo,,,,,,,,,,,,,,,,,,,,,,,,,,,,,,,,,,,,,,,,,,,,,,,,,,,,,,,,,,,,,,,,,,,,,,,,,,,,,,,,,,,,,,,,,,,,,,,,,,,,,,,,,,,,,,,,,,,,,,,,,,,,,,,,,,,,,,,,,,,,,,,,,,,,,,,,,,,,,
,,,,,,615dec01ca05f190dc303f91,62c53c909f6109d1b7f3eea3,2022-07-06_24h44.00.450,Colour_Asymmetry_Pilot,2022.1.3,Win32,29.53511725,62c50e9c1127f2cd403a315f,0,88,88,89,1,onethree,,,,,,,,,,,,,,,,,,,,,,,,,,,,,,,,,,,,,,,,,,,,,,,,,,,,,,,,,,,,,,,,,,,,,,,,,,,,,,,,,,,,,,,,,,,,,,,,,,,,,,,,,,,,,,,,,,,,,,,,,,,,,,,,,,,,,,,,,,,,,,,,,,,,,,,,,,,,,
,,,,,,615dec01ca05f190dc303f91,62c53c909f6109d1b7f3eea3,2022-07-06_24h44.00.450,Colour_Asymmetry_Pilot,2022.1.3,Win32,29.53511725,62c50e9c1127f2cd403a315f,0,89,89,31,1,fourthree,,,,,,,,,,,,,,,,,,,,,,,,,,,,,,,,,,,,,,,,,,,,,,,,,,,,,,,,,,,,,,,,,,,,,,,,,,,,,,,,,,,,,,,,,,,,,,,,,,,,,,,,,,,,,,,,,,,,,,,,,,,,,,,,,,,,,,,,,,,,,,,,,,,,,,,,,,,,,
,,,,,,615dec01ca05f190dc303f91,62c53c909f6109d1b7f3eea3,2022-07-06_24h44.00.450,Colour_Asymmetry_Pilot,2022.1.3,Win32,29.53511725,62c50e9c1127f2cd403a315f,0,90,90,104,1,onetwo,,,,,,,,,,,,,,,,,,,,,,,,,,,,,,,,,,,,,,,,,,,,,,,,,,,,,,,,,,,,,,,,,,,,,,,,,,,,,,,,,,,,,,,,,,,,,,,,,,,,,,,,,,,,,,,,,,,,,,,,,,,,,,,,,,,,,,,,,,,,,,,,,,,,,,,,,,,,,
,,,,,,615dec01ca05f190dc303f91,62c53c909f6109d1b7f3eea3,2022-07-06_24h44.00.450,Colour_Asymmetry_Pilot,2022.1.3,Win32,29.53511725,62c50e9c1127f2cd403a315f,0,91,91,76,1,threeone,,,,,,,,,,,,,,,,,,,,,,,,,,,,,,,,,,,,,,,,,,,,,,,,,,,,,,,,,,,,,,,,,,,,,,,,,,,,,,,,,,,,,,,,,,,,,,,,,,,,,,,,,,,,,,,,,,,,,,,,,,,,,,,,,,,,,,,,,,,,,,,,,,,,,,,,,,,,,
,,,,,,615dec01ca05f190dc303f91,62c53c909f6109d1b7f3eea3,2022-07-06_24h44.00.450,Colour_Asymmetry_Pilot,2022.1.3,Win32,29.53511725,62c50e9c1127f2cd403a315f,0,92,92,68,1,threeone,,,,,,,,,,,,,,,,,,,,,,,,,,,,,,,,,,,,,,,,,,,,,,,,,,,,,,,,,,,,,,,,,,,,,,,,,,,,,,,,,,,,,,,,,,,,,,,,,,,,,,,,,,,,,,,,,,,,,,,,,,,,,,,,,,,,,,,,,,,,,,,,,,,,,,,,,,,,,
,,,,,,615dec01ca05f190dc303f91,62c53c909f6109d1b7f3eea3,2022-07-06_24h44.00.450,Colour_Asymmetry_Pilot,2022.1.3,Win32,29.53511725,62c50e9c1127f2cd403a315f,0,93,93,5,1,threefour,,,,,,,,,,,,,,,,,,,,,,,,,,,,,,,,,,,,,,,,,,,,,,,,,,,,,,,,,,,,,,,,,,,,,,,,,,,,,,,,,,,,,,,,,,,,,,,,,,,,,,,,,,,,,,,,,,,,,,,,,,,,,,,,,,,,,,,,,,,,,,,,,,,,,,,,,,,,,
,,,,,,615dec01ca05f190dc303f91,62c53c909f6109d1b7f3eea3,2022-07-06_24h44.00.450,Colour_Asymmetry_Pilot,2022.1.3,Win32,29.53511725,62c50e9c1127f2cd403a315f,0,94,94,50,1,twoone,,,,,,,,,,,,,,,,,,,,,,,,,,,,,,,,,,,,,,,,,,,,,,,,,,,,,,,,,,,,,,,,,,,,,,,,,,,,,,,,,,,,,,,,,,,,,,,,,,,,,,,,,,,,,,,,,,,,,,,,,,,,,,,,,,,,,,,,,,,,,,,,,,,,,,,,,,,,,
,,,,,,615dec01ca05f190dc303f91,62c53c909f6109d1b7f3eea3,2022-07-06_24h44.00.450,Colour_Asymmetry_Pilot,2022.1.3,Win32,29.53511725,62c50e9c1127f2cd403a315f,0,95,95,70,1,fourtwo,,,,,,,,,,,,,,,,,,,,,,,,,,,,,,,,,,,,,,,,,,,,,,,,,,,,,,,,,,,,,,,,,,,,,,,,,,,,,,,,,,,,,,,,,,,,,,,,,,,,,,,,,,,,,,,,,,,,,,,,,,,,,,,,,,,,,,,,,,,,,,,,,,,,,,,,,,,,,
,,,,,,615dec01ca05f190dc303f91,62c53c909f6109d1b7f3eea3,2022-07-06_24h44.00.450,Colour_Asymmetry_Pilot,2022.1.3,Win32,29.53511725,62c50e9c1127f2cd403a315f,0,96,96,63,1,fourthree,,,,,,,,,,,,,,,,,,,,,,,,,,,,,,,,,,,,,,,,,,,,,,,,,,,,,,,,,,,,,,,,,,,,,,,,,,,,,,,,,,,,,,,,,,,,,,,,,,,,,,,,,,,,,,,,,,,,,,,,,,,,,,,,,,,,,,,,,,,,,,,,,,,,,,,,,,,,,
,,,,,,615dec01ca05f190dc303f91,62c53c909f6109d1b7f3eea3,2022-07-06_24h44.00.450,Colour_Asymmetry_Pilot,2022.1.3,Win32,29.53511725,62c50e9c1127f2cd403a315f,0,97,97,86,1,fourtwo,,,,,,,,,,,,,,,,,,,,,,,,,,,,,,,,,,,,,,,,,,,,,,,,,,,,,,,,,,,,,,,,,,,,,,,,,,,,,,,,,,,,,,,,,,,,,,,,,,,,,,,,,,,,,,,,,,,,,,,,,,,,,,,,,,,,,,,,,,,,,,,,,,,,,,,,,,,,,
,,,,,,615dec01ca05f190dc303f91,62c53c909f6109d1b7f3eea3,2022-07-06_24h44.00.450,Colour_Asymmetry_Pilot,2022.1.3,Win32,29.53511725,62c50e9c1127f2cd403a315f,0,98,98,127,1,fourthree,,,,,,,,,,,,,,,,,,,,,,,,,,,,,,,,,,,,,,,,,,,,,,,,,,,,,,,,,,,,,,,,,,,,,,,,,,,,,,,,,,,,,,,,,,,,,,,,,,,,,,,,,,,,,,,,,,,,,,,,,,,,,,,,,,,,,,,,,,,,,,,,,,,,,,,,,,,,,
,,,,,,615dec01ca05f190dc303f91,62c53c909f6109d1b7f3eea3,2022-07-06_24h44.00.450,Colour_Asymmetry_Pilot,2022.1.3,Win32,29.53511725,62c50e9c1127f2cd403a315f,0,99,99,114,1,twoone,,,,,,,,,,,,,,,,,,,,,,,,,,,,,,,,,,,,,,,,,,,,,,,,,,,,,,,,,,,,,,,,,,,,,,,,,,,,,,,,,,,,,,,,,,,,,,,,,,,,,,,,,,,,,,,,,,,,,,,,,,,,,,,,,,,,,,,,,,,,,,,,,,,,,,,,,,,,,
,,,,,,615dec01ca05f190dc303f91,62c53c909f6109d1b7f3eea3,2022-07-06_24h44.00.450,Colour_Asymmetry_Pilot,2022.1.3,Win32,29.53511725,62c50e9c1127f2cd403a315f,0,100,100,78,1,fourtwo,,,,,,,,,,,,,,,,,,,,,,,,,,,,,,,,,,,,,,,,,,,,,,,,,,,,,,,,,,,,,,,,,,,,,,,,,,,,,,,,,,,,,,,,,,,,,,,,,,,,,,,,,,,,,,,,,,,,,,,,,,,,,,,,,,,,,,,,,,,,,,,,,,,,,,,,,,,,,
,,,,,,615dec01ca05f190dc303f91,62c53c909f6109d1b7f3eea3,2022-07-06_24h44.00.450,Colour_Asymmetry_Pilot,2022.1.3,Win32,29.53511725,62c50e9c1127f2cd403a315f,0,101,101,85,1,threefour,,,,,,,,,,,,,,,,,,,,,,,,,,,,,,,,,,,,,,,,,,,,,,,,,,,,,,,,,,,,,,,,,,,,,,,,,,,,,,,,,,,,,,,,,,,,,,,,,,,,,,,,,,,,,,,,,,,,,,,,,,,,,,,,,,,,,,,,,,,,,,,,,,,,,,,,,,,,,
,,,,,,615dec01ca05f190dc303f91,62c53c909f6109d1b7f3eea3,2022-07-06_24h44.00.450,Colour_Asymmetry_Pilot,2022.1.3,Win32,29.53511725,62c50e9c1127f2cd403a315f,0,102,102,150,1,fourtwo,,,,,,,,,,,,,,,,,,,,,,,,,,,,,,,,,,,,,,,,,,,,,,,,,,,,,,,,,,,,,,,,,,,,,,,,,,,,,,,,,,,,,,,,,,,,,,,,,,,,,,,,,,,,,,,,,,,,,,,,,,,,,,,,,,,,,,,,,,,,,,,,,,,,,,,,,,,,,
,,,,,,615dec01ca05f190dc303f91,62c53c909f6109d1b7f3eea3,2022-07-06_24h44.00.450,Colour_Asymmetry_Pilot,2022.1.3,Win32,29.53511725,62c50e9c1127f2cd403a315f,0,103,103,101,1,threefour,,,,,,,,,,,,,,,,,,,,,,,,,,,,,,,,,,,,,,,,,,,,,,,,,,,,,,,,,,,,,,,,,,,,,,,,,,,,,,,,,,,,,,,,,,,,,,,,,,,,,,,,,,,,,,,,,,,,,,,,,,,,,,,,,,,,,,,,,,,,,,,,,,,,,,,,,,,,,
,,,,,,615dec01ca05f190dc303f91,62c53c909f6109d1b7f3eea3,2022-07-06_24h44.00.450,Colour_Asymmetry_Pilot,2022.1.3,Win32,29.53511725,62c50e9c1127f2cd403a315f,0,104,104,103,1,fourthree,,,,,,,,,,,,,,,,,,,,,,,,,,,,,,,,,,,,,,,,,,,,,,,,,,,,,,,,,,,,,,,,,,,,,,,,,,,,,,,,,,,,,,,,,,,,,,,,,,,,,,,,,,,,,,,,,,,,,,,,,,,,,,,,,,,,,,,,,,,,,,,,,,,,,,,,,,,,,
,,,,,,615dec01ca05f190dc303f91,62c53c909f6109d1b7f3eea3,2022-07-06_24h44.00.450,Colour_Asymmetry_Pilot,2022.1.3,Win32,29.53511725,62c50e9c1127f2cd403a315f,0,105,105,47,1,fourthree,,,,,,,,,,,,,,,,,,,,,,,,,,,,,,,,,,,,,,,,,,,,,,,,,,,,,,,,,,,,,,,,,,,,,,,,,,,,,,,,,,,,,,,,,,,,,,,,,,,,,,,,,,,,,,,,,,,,,,,,,,,,,,,,,,,,,,,,,,,,,,,,,,,,,,,,,,,,,
,,,,,,615dec01ca05f190dc303f91,62c53c909f6109d1b7f3eea3,2022-07-06_24h44.00.450,Colour_Asymmetry_Pilot,2022.1.3,Win32,29.53511725,62c50e9c1127f2cd403a315f,0,106,106,21,1,threefour,,,,,,,,,,,,,,,,,,,,,,,,,,,,,,,,,,,,,,,,,,,,,,,,,,,,,,,,,,,,,,,,,,,,,,,,,,,,,,,,,,,,,,,,,,,,,,,,,,,,,,,,,,,,,,,,,,,,,,,,,,,,,,,,,,,,,,,,,,,,,,,,,,,,,,,,,,,,,
,,,,,,615dec01ca05f190dc303f91,62c53c909f6109d1b7f3eea3,2022-07-06_24h44.00.450,Colour_Asymmetry_Pilot,2022.1.3,Win32,29.53511725,62c50e9c1127f2cd403a315f,0,107,107,53,1,threefour,,,,,,,,,,,,,,,,,,,,,,,,,,,,,,,,,,,,,,,,,,,,,,,,,,,,,,,,,,,,,,,,,,,,,,,,,,,,,,,,,,,,,,,,,,,,,,,,,,,,,,,,,,,,,,,,,,,,,,,,,,,,,,,,,,,,,,,,,,,,,,,,,,,,,,,,,,,,,
,,,,,,615dec01ca05f190dc303f91,62c53c909f6109d1b7f3eea3,2022-07-06_24h44.00.450,Colour_Asymmetry_Pilot,2022.1.3,Win32,29.53511725,62c50e9c1127f2cd403a315f,0,108,108,6,1,fourtwo,,,,,,,,,,,,,,,,,,,,,,,,,,,,,,,,,,,,,,,,,,,,,,,,,,,,,,,,,,,,,,,,,,,,,,,,,,,,,,,,,,,,,,,,,,,,,,,,,,,,,,,,,,,,,,,,,,,,,,,,,,,,,,,,,,,,,,,,,,,,,,,,,,,,,,,,,,,,,
,,,,,,615dec01ca05f190dc303f91,62c53c909f6109d1b7f3eea3,2022-07-06_24h44.00.450,Colour_Asymmetry_Pilot,2022.1.3,Win32,29.53511725,62c50e9c1127f2cd403a315f,0,109,109,122,1,twoone,,,,,,,,,,,,,,,,,,,,,,,,,,,,,,,,,,,,,,,,,,,,,,,,,,,,,,,,,,,,,,,,,,,,,,,,,,,,,,,,,,,,,,,,,,,,,,,,,,,,,,,,,,,,,,,,,,,,,,,,,,,,,,,,,,,,,,,,,,,,,,,,,,,,,,,,,,,,,
,,,,,,615dec01ca05f190dc303f91,62c53c909f6109d1b7f3eea3,2022-07-06_24h44.00.450,Colour_Asymmetry_Pilot,2022.1.3,Win32,29.53511725,62c50e9c1127f2cd403a315f,0,110,110,109,1,threefour,,,,,,,,,,,,,,,,,,,,,,,,,,,,,,,,,,,,,,,,,,,,,,,,,,,,,,,,,,,,,,,,,,,,,,,,,,,,,,,,,,,,,,,,,,,,,,,,,,,,,,,,,,,,,,,,,,,,,,,,,,,,,,,,,,,,,,,,,,,,,,,,,,,,,,,,,,,,,
,,,,,,615dec01ca05f190dc303f91,62c53c909f6109d1b7f3eea3,2022-07-06_24h44.00.450,Colour_Asymmetry_Pilot,2022.1.3,Win32,29.53511725,62c50e9c1127f2cd403a315f,0,111,111,20,1,threeone,,,,,,,,,,,,,,,,,,,,,,,,,,,,,,,,,,,,,,,,,,,,,,,,,,,,,,,,,,,,,,,,,,,,,,,,,,,,,,,,,,,,,,,,,,,,,,,,,,,,,,,,,,,,,,,,,,,,,,,,,,,,,,,,,,,,,,,,,,,,,,,,,,,,,,,,,,,,,
,,,,,,615dec01ca05f190dc303f91,62c53c909f6109d1b7f3eea3,2022-07-06_24h44.00.450,Colour_Asymmetry_Pilot,2022.1.3,Win32,29.53511725,62c50e9c1127f2cd403a315f,0,112,112,67,1,twofour,,,,,,,,,,,,,,,,,,,,,,,,,,,,,,,,,,,,,,,,,,,,,,,,,,,,,,,,,,,,,,,,,,,,,,,,,,,,,,,,,,,,,,,,,,,,,,,,,,,,,,,,,,,,,,,,,,,,,,,,,,,,,,,,,,,,,,,,,,,,,,,,,,,,,,,,,,,,,
,,,,,,615dec01ca05f190dc303f91,62c53c909f6109d1b7f3eea3,2022-07-06_24h44.00.450,Colour_Asymmetry_Pilot,2022.1.3,Win32,29.53511725,62c50e9c1127f2cd403a315f,0,113,113,4,1,threeone,,,,,,,,,,,,,,,,,,,,,,,,,,,,,,,,,,,,,,,,,,,,,,,,,,,,,,,,,,,,,,,,,,,,,,,,,,,,,,,,,,,,,,,,,,,,,,,,,,,,,,,,,,,,,,,,,,,,,,,,,,,,,,,,,,,,,,,,,,,,,,,,,,,,,,,,,,,,,
,,,,,,615dec01ca05f190dc303f91,62c53c909f6109d1b7f3eea3,2022-07-06_24h44.00.450,Colour_Asymmetry_Pilot,2022.1.3,Win32,29.53511725,62c50e9c1127f2cd403a315f,0,114,114,111,1,fourthree,,,,,,,,,,,,,,,,,,,,,,,,,,,,,,,,,,,,,,,,,,,,,,,,,,,,,,,,,,,,,,,,,,,,,,,,,,,,,,,,,,,,,,,,,,,,,,,,,,,,,,,,,,,,,,,,,,,,,,,,,,,,,,,,,,,,,,,,,,,,,,,,,,,,,,,,,,,,,
,,,,,,615dec01ca05f190dc303f91,62c53c909f6109d1b7f3eea3,2022-07-06_24h44.00.450,Colour_Asymmetry_Pilot,2022.1.3,Win32,29.53511725,62c50e9c1127f2cd403a315f,0,115,115,48,1,onetwo,,,,,,,,,,,,,,,,,,,,,,,,,,,,,,,,,,,,,,,,,,,,,,,,,,,,,,,,,,,,,,,,,,,,,,,,,,,,,,,,,,,,,,,,,,,,,,,,,,,,,,,,,,,,,,,,,,,,,,,,,,,,,,,,,,,,,,,,,,,,,,,,,,,,,,,,,,,,,
,,,,,,615dec01ca05f190dc303f91,62c53c909f6109d1b7f3eea3,2022-07-06_24h44.00.450,Colour_Asymmetry_Pilot,2022.1.3,Win32,29.53511725,62c50e9c1127f2cd403a315f,0,116,116,26,1,twoone,,,,,,,,,,,,,,,,,,,,,,,,,,,,,,,,,,,,,,,,,,,,,,,,,,,,,,,,,,,,,,,,,,,,,,,,,,,,,,,,,,,,,,,,,,,,,,,,,,,,,,,,,,,,,,,,,,,,,,,,,,,,,,,,,,,,,,,,,,,,,,,,,,,,,,,,,,,,,
,,,,,,615dec01ca05f190dc303f91,62c53c909f6109d1b7f3eea3,2022-07-06_24h44.00.450,Colour_Asymmetry_Pilot,2022.1.3,Win32,29.53511725,62c50e9c1127f2cd403a315f,0,117,117,65,1,onethree,,,,,,,,,,,,,,,,,,,,,,,,,,,,,,,,,,,,,,,,,,,,,,,,,,,,,,,,,,,,,,,,,,,,,,,,,,,,,,,,,,,,,,,,,,,,,,,,,,,,,,,,,,,,,,,,,,,,,,,,,,,,,,,,,,,,,,,,,,,,,,,,,,,,,,,,,,,,,
,,,,,,615dec01ca05f190dc303f91,62c53c909f6109d1b7f3eea3,2022-07-06_24h44.00.450,Colour_Asymmetry_Pilot,2022.1.3,Win32,29.53511725,62c50e9c1127f2cd403a315f,0,118,118,144,1,onetwo,,,,,,,,,,,,,,,,,,,,,,,,,,,,,,,,,,,,,,,,,,,,,,,,,,,,,,,,,,,,,,,,,,,,,,,,,,,,,,,,,,,,,,,,,,,,,,,,,,,,,,,,,,,,,,,,,,,,,,,,,,,,,,,,,,,,,,,,,,,,,,,,,,,,,,,,,,,,,
,,,,,,615dec01ca05f190dc303f91,62c53c909f6109d1b7f3eea3,2022-07-06_24h44.00.450,Colour_Asymmetry_Pilot,2022.1.3,Win32,29.53511725,62c50e9c1127f2cd403a315f,0,119,119,106,1,twoone,,,,,,,,,,,,,,,,,,,,,,,,,,,,,,,,,,,,,,,,,,,,,,,,,,,,,,,,,,,,,,,,,,,,,,,,,,,,,,,,,,,,,,,,,,,,,,,,,,,,,,,,,,,,,,,,,,,,,,,,,,,,,,,,,,,,,,,,,,,,,,,,,,,,,,,,,,,,,
,,,,,,615dec01ca05f190dc303f91,62c53c909f6109d1b7f3eea3,2022-07-06_24h44.00.450,Colour_Asymmetry_Pilot,2022.1.3,Win32,29.53511725,62c50e9c1127f2cd403a315f,0,120,120,113,1,onethree,,,,,,,,,,,,,,,,,,,,,,,,,,,,,,,,,,,,,,,,,,,,,,,,,,,,,,,,,,,,,,,,,,,,,,,,,,,,,,,,,,,,,,,,,,,,,,,,,,,,,,,,,,,,,,,,,,,,,,,,,,,,,,,,,,,,,,,,,,,,,,,,,,,,,,,,,,,,,
,,,,,,615dec01ca05f190dc303f91,62c53c909f6109d1b7f3eea3,2022-07-06_24h44.00.450,Colour_Asymmetry_Pilot,2022.1.3,Win32,29.53511725,62c50e9c1127f2cd403a315f,0,121,121,84,1,threeone,,,,,,,,,,,,,,,,,,,,,,,,,,,,,,,,,,,,,,,,,,,,,,,,,,,,,,,,,,,,,,,,,,,,,,,,,,,,,,,,,,,,,,,,,,,,,,,,,,,,,,,,,,,,,,,,,,,,,,,,,,,,,,,,,,,,,,,,,,,,,,,,,,,,,,,,,,,,,
,,,,,,615dec01ca05f190dc303f91,62c53c909f6109d1b7f3eea3,2022-07-06_24h44.00.450,Colour_Asymmetry_Pilot,2022.1.3,Win32,29.53511725,62c50e9c1127f2cd403a315f,0,122,122,46,1,fourtwo,,,,,,,,,,,,,,,,,,,,,,,,,,,,,,,,,,,,,,,,,,,,,,,,,,,,,,,,,,,,,,,,,,,,,,,,,,,,,,,,,,,,,,,,,,,,,,,,,,,,,,,,,,,,,,,,,,,,,,,,,,,,,,,,,,,,,,,,,,,,,,,,,,,,,,,,,,,,,
,,,,,,615dec01ca05f190dc303f91,62c53c909f6109d1b7f3eea3,2022-07-06_24h44.00.450,Colour_Asymmetry_Pilot,2022.1.3,Win32,29.53511725,62c50e9c1127f2cd403a315f,0,123,123,139,1,twofour,,,,,,,,,,,,,,,,,,,,,,,,,,,,,,,,,,,,,,,,,,,,,,,,,,,,,,,,,,,,,,,,,,,,,,,,,,,,,,,,,,,,,,,,,,,,,,,,,,,,,,,,,,,,,,,,,,,,,,,,,,,,,,,,,,,,,,,,,,,,,,,,,,,,,,,,,,,,,
,,,,,,615dec01ca05f190dc303f91,62c53c909f6109d1b7f3eea3,2022-07-06_24h44.00.450,Colour_Asymmetry_Pilot,2022.1.3,Win32,29.53511725,62c50e9c1127f2cd403a315f,0,124,124,155,1,twofour,,,,,,,,,,,,,,,,,,,,,,,,,,,,,,,,,,,,,,,,,,,,,,,,,,,,,,,,,,,,,,,,,,,,,,,,,,,,,,,,,,,,,,,,,,,,,,,,,,,,,,,,,,,,,,,,,,,,,,,,,,,,,,,,,,,,,,,,,,,,,,,,,,,,,,,,,,,,,
,,,,,,615dec01ca05f190dc303f91,62c53c909f6109d1b7f3eea3,2022-07-06_24h44.00.450,Colour_Asymmetry_Pilot,2022.1.3,Win32,29.53511725,62c50e9c1127f2cd403a315f,0,125,125,146,1,twoone,,,,,,,,,,,,,,,,,,,,,,,,,,,,,,,,,,,,,,,,,,,,,,,,,,,,,,,,,,,,,,,,,,,,,,,,,,,,,,,,,,,,,,,,,,,,,,,,,,,,,,,,,,,,,,,,,,,,,,,,,,,,,,,,,,,,,,,,,,,,,,,,,,,,,,,,,,,,,
,,,,,,615dec01ca05f190dc303f91,62c53c909f6109d1b7f3eea3,2022-07-06_24h44.00.450,Colour_Asymmetry_Pilot,2022.1.3,Win32,29.53511725,62c50e9c1127f2cd403a315f,0,126,126,79,1,fourthree,,,,,,,,,,,,,,,,,,,,,,,,,,,,,,,,,,,,,,,,,,,,,,,,,,,,,,,,,,,,,,,,,,,,,,,,,,,,,,,,,,,,,,,,,,,,,,,,,,,,,,,,,,,,,,,,,,,,,,,,,,,,,,,,,,,,,,,,,,,,,,,,,,,,,,,,,,,,,
,,,,,,615dec01ca05f190dc303f91,62c53c909f6109d1b7f3eea3,2022-07-06_24h44.00.450,Colour_Asymmetry_Pilot,2022.1.3,Win32,29.53511725,62c50e9c1127f2cd403a315f,0,127,127,9,1,onethree,,,,,,,,,,,,,,,,,,,,,,,,,,,,,,,,,,,,,,,,,,,,,,,,,,,,,,,,,,,,,,,,,,,,,,,,,,,,,,,,,,,,,,,,,,,,,,,,,,,,,,,,,,,,,,,,,,,,,,,,,,,,,,,,,,,,,,,,,,,,,,,,,,,,,,,,,,,,,
,,,,,,615dec01ca05f190dc303f91,62c53c909f6109d1b7f3eea3,2022-07-06_24h44.00.450,Colour_Asymmetry_Pilot,2022.1.3,Win32,29.53511725,62c50e9c1127f2cd403a315f,0,128,128,52,1,threeone,,,,,,,,,,,,,,,,,,,,,,,,,,,,,,,,,,,,,,,,,,,,,,,,,,,,,,,,,,,,,,,,,,,,,,,,,,,,,,,,,,,,,,,,,,,,,,,,,,,,,,,,,,,,,,,,,,,,,,,,,,,,,,,,,,,,,,,,,,,,,,,,,,,,,,,,,,,,,
,,,,,,615dec01ca05f190dc303f91,62c53c909f6109d1b7f3eea3,2022-07-06_24h44.00.450,Colour_Asymmetry_Pilot,2022.1.3,Win32,29.53511725,62c50e9c1127f2cd403a315f,0,129,129,138,1,twoone,,,,,,,,,,,,,,,,,,,,,,,,,,,,,,,,,,,,,,,,,,,,,,,,,,,,,,,,,,,,,,,,,,,,,,,,,,,,,,,,,,,,,,,,,,,,,,,,,,,,,,,,,,,,,,,,,,,,,,,,,,,,,,,,,,,,,,,,,,,,,,,,,,,,,,,,,,,,,
,,,,,,615dec01ca05f190dc303f91,62c53c909f6109d1b7f3eea3,2022-07-06_24h44.00.450,Colour_Asymmetry_Pilot,2022.1.3,Win32,29.53511725,62c50e9c1127f2cd403a315f,0,130,130,97,1,onethree,,,,,,,,,,,,,,,,,,,,,,,,,,,,,,,,,,,,,,,,,,,,,,,,,,,,,,,,,,,,,,,,,,,,,,,,,,,,,,,,,,,,,,,,,,,,,,,,,,,,,,,,,,,,,,,,,,,,,,,,,,,,,,,,,,,,,,,,,,,,,,,,,,,,,,,,,,,,,
,,,,,,615dec01ca05f190dc303f91,62c53c909f6109d1b7f3eea3,2022-07-06_24h44.00.450,Colour_Asymmetry_Pilot,2022.1.3,Win32,29.53511725,62c50e9c1127f2cd403a315f,0,131,131,91,1,twofour,,,,,,,,,,,,,,,,,,,,,,,,,,,,,,,,,,,,,,,,,,,,,,,,,,,,,,,,,,,,,,,,,,,,,,,,,,,,,,,,,,,,,,,,,,,,,,,,,,,,,,,,,,,,,,,,,,,,,,,,,,,,,,,,,,,,,,,,,,,,,,,,,,,,,,,,,,,,,
,,,,,,615dec01ca05f190dc303f91,62c53c909f6109d1b7f3eea3,2022-07-06_24h44.00.450,Colour_Asymmetry_Pilot,2022.1.3,Win32,29.53511725,62c50e9c1127f2cd403a315f,0,132,132,107,1,twofour,,,,,,,,,,,,,,,,,,,,,,,,,,,,,,,,,,,,,,,,,,,,,,,,,,,,,,,,,,,,,,,,,,,,,,,,,,,,,,,,,,,,,,,,,,,,,,,,,,,,,,,,,,,,,,,,,,,,,,,,,,,,,,,,,,,,,,,,,,,,,,,,,,,,,,,,,,,,,
,,,,,,615dec01ca05f190dc303f91,62c53c909f6109d1b7f3eea3,2022-07-06_24h44.00.450,Colour_Asymmetry_Pilot,2022.1.3,Win32,29.53511725,62c50e9c1127f2cd403a315f,0,133,133,140,1,threeone,,,,,,,,,,,,,,,,,,,,,,,,,,,,,,,,,,,,,,,,,,,,,,,,,,,,,,,,,,,,,,,,,,,,,,,,,,,,,,,,,,,,,,,,,,,,,,,,,,,,,,,,,,,,,,,,,,,,,,,,,,,,,,,,,,,,,,,,,,,,,,,,,,,,,,,,,,,,,
,,,,,,615dec01ca05f190dc303f91,62c53c909f6109d1b7f3eea3,2022-07-06_24h44.00.450,Colour_Asymmetry_Pilot,2022.1.3,Win32,29.53511725,62c50e9c1127f2cd403a315f,0,134,134,51,1,twofour,,,,,,,,,,,,,,,,,,,,,,,,,,,,,,,,,,,,,,,,,,,,,,,,,,,,,,,,,,,,,,,,,,,,,,,,,,,,,,,,,,,,,,,,,,,,,,,,,,,,,,,,,,,,,,,,,,,,,,,,,,,,,,,,,,,,,,,,,,,,,,,,,,,,,,,,,,,,,
,,,,,,615dec01ca05f190dc303f91,62c53c909f6109d1b7f3eea3,2022-07-06_24h44.00.450,Colour_Asymmetry_Pilot,2022.1.3,Win32,29.53511725,62c50e9c1127f2cd403a315f,0,135,135,69,1,threefour,,,,,,,,,,,,,,,,,,,,,,,,,,,,,,,,,,,,,,,,,,,,,,,,,,,,,,,,,,,,,,,,,,,,,,,,,,,,,,,,,,,,,,,,,,,,,,,,,,,,,,,,,,,,,,,,,,,,,,,,,,,,,,,,,,,,,,,,,,,,,,,,,,,,,,,,,,,,,
,,,,,,615dec01ca05f190dc303f91,62c53c909f6109d1b7f3eea3,2022-07-06_24h44.00.450,Colour_Asymmetry_Pilot,2022.1.3,Win32,29.53511725,62c50e9c1127f2cd403a315f,0,136,136,118,1,fourtwo,,,,,,,,,,,,,,,,,,,,,,,,,,,,,,,,,,,,,,,,,,,,,,,,,,,,,,,,,,,,,,,,,,,,,,,,,,,,,,,,,,,,,,,,,,,,,,,,,,,,,,,,,,,,,,,,,,,,,,,,,,,,,,,,,,,,,,,,,,,,,,,,,,,,,,,,,,,,,
,,,,,,615dec01ca05f190dc303f91,62c53c909f6109d1b7f3eea3,2022-07-06_24h44.00.450,Colour_Asymmetry_Pilot,2022.1.3,Win32,29.53511725,62c50e9c1127f2cd403a315f,0,137,137,55,1,fourthree,,,,,,,,,,,,,,,,,,,,,,,,,,,,,,,,,,,,,,,,,,,,,,,,,,,,,,,,,,,,,,,,,,,,,,,,,,,,,,,,,,,,,,,,,,,,,,,,,,,,,,,,,,,,,,,,,,,,,,,,,,,,,,,,,,,,,,,,,,,,,,,,,,,,,,,,,,,,,
,,,,,,615dec01ca05f190dc303f91,62c53c909f6109d1b7f3eea3,2022-07-06_24h44.00.450,Colour_Asymmetry_Pilot,2022.1.3,Win32,29.53511725,62c50e9c1127f2cd403a315f,0,138,138,61,1,threefour,,,,,,,,,,,,,,,,,,,,,,,,,,,,,,,,,,,,,,,,,,,,,,,,,,,,,,,,,,,,,,,,,,,,,,,,,,,,,,,,,,,,,,,,,,,,,,,,,,,,,,,,,,,,,,,,,,,,,,,,,,,,,,,,,,,,,,,,,,,,,,,,,,,,,,,,,,,,,
,,,,,,615dec01ca05f190dc303f91,62c53c909f6109d1b7f3eea3,2022-07-06_24h44.00.450,Colour_Asymmetry_Pilot,2022.1.3,Win32,29.53511725,62c50e9c1127f2cd403a315f,0,139,139,100,1,threeone,,,,,,,,,,,,,,,,,,,,,,,,,,,,,,,,,,,,,,,,,,,,,,,,,,,,,,,,,,,,,,,,,,,,,,,,,,,,,,,,,,,,,,,,,,,,,,,,,,,,,,,,,,,,,,,,,,,,,,,,,,,,,,,,,,,,,,,,,,,,,,,,,,,,,,,,,,,,,
,,,,,,615dec01ca05f190dc303f91,62c53c909f6109d1b7f3eea3,2022-07-06_24h44.00.450,Colour_Asymmetry_Pilot,2022.1.3,Win32,29.53511725,62c50e9c1127f2cd403a315f,0,140,140,57,1,onethree,,,,,,,,,,,,,,,,,,,,,,,,,,,,,,,,,,,,,,,,,,,,,,,,,,,,,,,,,,,,,,,,,,,,,,,,,,,,,,,,,,,,,,,,,,,,,,,,,,,,,,,,,,,,,,,,,,,,,,,,,,,,,,,,,,,,,,,,,,,,,,,,,,,,,,,,,,,,,
,,,,,,615dec01ca05f190dc303f91,62c53c909f6109d1b7f3eea3,2022-07-06_24h44.00.450,Colour_Asymmetry_Pilot,2022.1.3,Win32,29.53511725,62c50e9c1127f2cd403a315f,0,141,141,62,1,fourtwo,,,,,,,,,,,,,,,,,,,,,,,,,,,,,,,,,,,,,,,,,,,,,,,,,,,,,,,,,,,,,,,,,,,,,,,,,,,,,,,,,,,,,,,,,,,,,,,,,,,,,,,,,,,,,,,,,,,,,,,,,,,,,,,,,,,,,,,,,,,,,,,,,,,,,,,,,,,,,
,,,,,,615dec01ca05f190dc303f91,62c53c909f6109d1b7f3eea3,2022-07-06_24h44.00.450,Colour_Asymmetry_Pilot,2022.1.3,Win32,29.53511725,62c50e9c1127f2cd403a315f,0,142,142,137,1,onethree,,,,,,,,,,,,,,,,,,,,,,,,,,,,,,,,,,,,,,,,,,,,,,,,,,,,,,,,,,,,,,,,,,,,,,,,,,,,,,,,,,,,,,,,,,,,,,,,,,,,,,,,,,,,,,,,,,,,,,,,,,,,,,,,,,,,,,,,,,,,,,,,,,,,,,,,,,,,,
,,,,,,615dec01ca05f190dc303f91,62c53c909f6109d1b7f3eea3,2022-07-06_24h44.00.450,Colour_Asymmetry_Pilot,2022.1.3,Win32,29.53511725,62c50e9c1127f2cd403a315f,0,143,143,141,1,threefour,,,,,,,,,,,,,,,,,,,,,,,,,,,,,,,,,,,,,,,,,,,,,,,,,,,,,,,,,,,,,,,,,,,,,,,,,,,,,,,,,,,,,,,,,,,,,,,,,,,,,,,,,,,,,,,,,,,,,,,,,,,,,,,,,,,,,,,,,,,,,,,,,,,,,,,,,,,,,
,,,,,,615dec01ca05f190dc303f91,62c53c909f6109d1b7f3eea3,2022-07-06_24h44.00.450,Colour_Asymmetry_Pilot,2022.1.3,Win32,29.53511725,62c50e9c1127f2cd403a315f,0,144,144,11,1,twofour,,,,,,,,,,,,,,,,,,,,,,,,,,,,,,,,,,,,,,,,,,,,,,,,,,,,,,,,,,,,,,,,,,,,,,,,,,,,,,,,,,,,,,,,,,,,,,,,,,,,,,,,,,,,,,,,,,,,,,,,,,,,,,,,,,,,,,,,,,,,,,,,,,,,,,,,,,,,,
,,,,,,615dec01ca05f190dc303f91,62c53c909f6109d1b7f3eea3,2022-07-06_24h44.00.450,Colour_Asymmetry_Pilot,2022.1.3,Win32,29.53511725,62c50e9c1127f2cd403a315f,0,145,145,93,1,threefour,,,,,,,,,,,,,,,,,,,,,,,,,,,,,,,,,,,,,,,,,,,,,,,,,,,,,,,,,,,,,,,,,,,,,,,,,,,,,,,,,,,,,,,,,,,,,,,,,,,,,,,,,,,,,,,,,,,,,,,,,,,,,,,,,,,,,,,,,,,,,,,,,,,,,,,,,,,,,
,,,,,,615dec01ca05f190dc303f91,62c53c909f6109d1b7f3eea3,2022-07-06_24h44.00.450,Colour_Asymmetry_Pilot,2022.1.3,Win32,29.53511725,62c50e9c1127f2cd403a315f,0,146,146,142,1,fourtwo,,,,,,,,,,,,,,,,,,,,,,,,,,,,,,,,,,,,,,,,,,,,,,,,,,,,,,,,,,,,,,,,,,,,,,,,,,,,,,,,,,,,,,,,,,,,,,,,,,,,,,,,,,,,,,,,,,,,,,,,,,,,,,,,,,,,,,,,,,,,,,,,,,,,,,,,,,,,,
,,,,,,615dec01ca05f190dc303f91,62c53c909f6109d1b7f3eea3,2022-07-06_24h44.00.450,Colour_Asymmetry_Pilot,2022.1.3,Win32,29.53511725,62c50e9c1127f2cd403a315f,0,147,147,14,1,fourtwo,,,,,,,,,,,,,,,,,,,,,,,,,,,,,,,,,,,,,,,,,,,,,,,,,,,,,,,,,,,,,,,,,,,,,,,,,,,,,,,,,,,,,,,,,,,,,,,,,,,,,,,,,,,,,,,,,,,,,,,,,,,,,,,,,,,,,,,,,,,,,,,,,,,,,,,,,,,,,
,,,,,,615dec01ca05f190dc303f91,62c53c909f6109d1b7f3eea3,2022-07-06_24h44.00.450,Colour_Asymmetry_Pilot,2022.1.3,Win32,29.53511725,62c50e9c1127f2cd403a315f,0,148,148,82,1,twoone,,,,,,,,,,,,,,,,,,,,,,,,,,,,,,,,,,,,,,,,,,,,,,,,,,,,,,,,,,,,,,,,,,,,,,,,,,,,,,,,,,,,,,,,,,,,,,,,,,,,,,,,,,,,,,,,,,,,,,,,,,,,,,,,,,,,,,,,,,,,,,,,,,,,,,,,,,,,,
,,,,,,615dec01ca05f190dc303f91,62c53c909f6109d1b7f3eea3,2022-07-06_24h44.00.450,Colour_Asymmetry_Pilot,2022.1.3,Win32,29.53511725,62c50e9c1127f2cd403a315f,0,149,149,10,1,twoone,,,,,,,,,,,,,,,,,,,,,,,,,,,,,,,,,,,,,,,,,,,,,,,,,,,,,,,,,,,,,,,,,,,,,,,,,,,,,,,,,,,,,,,,,,,,,,,,,,,,,,,,,,,,,,,,,,,,,,,,,,,,,,,,,,,,,,,,,,,,,,,,,,,,,,,,,,,,,
,,,,,,615dec01ca05f190dc303f91,62c53c909f6109d1b7f3eea3,2022-07-06_24h44.00.450,Colour_Asymmetry_Pilot,2022.1.3,Win32,29.53511725,62c50e9c1127f2cd403a315f,0,150,150,45,1,threefour,,,,,,,,,,,,,,,,,,,,,,,,,,,,,,,,,,,,,,,,,,,,,,,,,,,,,,,,,,,,,,,,,,,,,,,,,,,,,,,,,,,,,,,,,,,,,,,,,,,,,,,,,,,,,,,,,,,,,,,,,,,,,,,,,,,,,,,,,,,,,,,,,,,,,,,,,,,,,
,,,,,,615dec01ca05f190dc303f91,62c53c909f6109d1b7f3eea3,2022-07-06_24h44.00.450,Colour_Asymmetry_Pilot,2022.1.3,Win32,29.53511725,62c50e9c1127f2cd403a315f,0,151,151,98,1,twoone,,,,,,,,,,,,,,,,,,,,,,,,,,,,,,,,,,,,,,,,,,,,,,,,,,,,,,,,,,,,,,,,,,,,,,,,,,,,,,,,,,,,,,,,,,,,,,,,,,,,,,,,,,,,,,,,,,,,,,,,,,,,,,,,,,,,,,,,,,,,,,,,,,,,,,,,,,,,,
,,,,,,615dec01ca05f190dc303f91,62c53c909f6109d1b7f3eea3,2022-07-06_24h44.00.450,Colour_Asymmetry_Pilot,2022.1.3,Win32,29.53511725,62c50e9c1127f2cd403a315f,0,152,152,115,1,twofour,,,,,,,,,,,,,,,,,,,,,,,,,,,,,,,,,,,,,,,,,,,,,,,,,,,,,,,,,,,,,,,,,,,,,,,,,,,,,,,,,,,,,,,,,,,,,,,,,,,,,,,,,,,,,,,,,,,,,,,,,,,,,,,,,,,,,,,,,,,,,,,,,,,,,,,,,,,,,
,,,,,,615dec01ca05f190dc303f91,62c53c909f6109d1b7f3eea3,2022-07-06_24h44.00.450,Colour_Asymmetry_Pilot,2022.1.3,Win32,29.53511725,62c50e9c1127f2cd403a315f,0,153,153,49,1,onethree,,,,,,,,,,,,,,,,,,,,,,,,,,,,,,,,,,,,,,,,,,,,,,,,,,,,,,,,,,,,,,,,,,,,,,,,,,,,,,,,,,,,,,,,,,,,,,,,,,,,,,,,,,,,,,,,,,,,,,,,,,,,,,,,,,,,,,,,,,,,,,,,,,,,,,,,,,,,,
,,,,,,615dec01ca05f190dc303f91,62c53c909f6109d1b7f3eea3,2022-07-06_24h44.00.450,Colour_Asymmetry_Pilot,2022.1.3,Win32,29.53511725,62c50e9c1127f2cd403a315f,0,154,154,152,1,onetwo,,,,,,,,,,,,,,,,,,,,,,,,,,,,,,,,,,,,,,,,,,,,,,,,,,,,,,,,,,,,,,,,,,,,,,,,,,,,,,,,,,,,,,,,,,,,,,,,,,,,,,,,,,,,,,,,,,,,,,,,,,,,,,,,,,,,,,,,,,,,,,,,,,,,,,,,,,,,,
,,,,,,615dec01ca05f190dc303f91,62c53c909f6109d1b7f3eea3,2022-07-06_24h44.00.450,Colour_Asymmetry_Pilot,2022.1.3,Win32,29.53511725,62c50e9c1127f2cd403a315f,0,155,155,37,1,threefour,,,,,,,,,,,,,,,,,,,,,,,,,,,,,,,,,,,,,,,,,,,,,,,,,,,,,,,,,,,,,,,,,,,,,,,,,,,,,,,,,,,,,,,,,,,,,,,,,,,,,,,,,,,,,,,,,,,,,,,,,,,,,,,,,,,,,,,,,,,,,,,,,,,,,,,,,,,,,
,,,,,,615dec01ca05f190dc303f91,62c53c909f6109d1b7f3eea3,2022-07-06_24h44.00.450,Colour_Asymmetry_Pilot,2022.1.3,Win32,29.53511725,62c50e9c1127f2cd403a315f,0,156,156,44,1,threeone,,,,,,,,,,,,,,,,,,,,,,,,,,,,,,,,,,,,,,,,,,,,,,,,,,,,,,,,,,,,,,,,,,,,,,,,,,,,,,,,,,,,,,,,,,,,,,,,,,,,,,,,,,,,,,,,,,,,,,,,,,,,,,,,,,,,,,,,,,,,,,,,,,,,,,,,,,,,,
,,,,,,615dec01ca05f190dc303f91,62c53c909f6109d1b7f3eea3,2022-07-06_24h44.00.450,Colour_Asymmetry_Pilot,2022.1.3,Win32,29.53511725,62c50e9c1127f2cd403a315f,0,157,157,130,1,twoone,,,,,,,,,,,,,,,,,,,,,,,,,,,,,,,,,,,,,,,,,,,,,,,,,,,,,,,,,,,,,,,,,,,,,,,,,,,,,,,,,,,,,,,,,,,,,,,,,,,,,,,,,,,,,,,,,,,,,,,,,,,,,,,,,,,,,,,,,,,,,,,,,,,,,,,,,,,,,
,,,,,,615dec01ca05f190dc303f91,62c53c909f6109d1b7f3eea3,2022-07-06_24h44.00.450,Colour_Asymmetry_Pilot,2022.1.3,Win32,29.53511725,62c50e9c1127f2cd403a315f,0,158,158,24,1,onetwo,,,,,,,,,,,,,,,,,,,,,,,,,,,,,,,,,,,,,,,,,,,,,,,,,,,,,,,,,,,,,,,,,,,,,,,,,,,,,,,,,,,,,,,,,,,,,,,,,,,,,,,,,,,,,,,,,,,,,,,,,,,,,,,,,,,,,,,,,,,,,,,,,,,,,,,,,,,,,
,,,,,,615dec01ca05f190dc303f91,62c53c909f6109d1b7f3eea3,2022-07-06_24h44.00.450,Colour_Asymmetry_Pilot,2022.1.3,Win32,29.53511725,62c50e9c1127f2cd403a315f,0,159,159,133,1,threefour,,,,,,,,,,,,,,,,,,,,,,,,,,,,,,,,,,,,,,,,,,,,,,,,,,,,,,,,,,,,,,,,,,,,,,,,,,,,,,,,,,,,,,,,,,,,,,,,,,,,,,,,,,,,,,,,,,,,,,,,,,,,,,,,,,,,,,,,,,,,,,,,,,,,,,,,,,,,,
,,,,,,615dec01ca05f190dc303f91,62c53c909f6109d1b7f3eea3,2022-07-06_24h44.00.450,Colour_Asymmetry_Pilot,2022.1.3,Win32,29.53511725,62c50e9c1127f2cd403a315f,0,160,160,74,1,twoone,,,,,,,,,,,,,,,,,,,,,,,,,,,,,,,,,,,,,,,,,,,,,,,,,,,,,,,,,,,,,,,,,,,,,,,,,,,,,,,,,,,,,,,,,,,,,,,,,,,,,,,,,,,,,,,,,,,,,,,,,,,,,,,,,,,,,,,,,,,,,,,,,,,,,,,,,,,,,
,,,,,,615dec01ca05f190dc303f91,62c53c909f6109d1b7f3eea3,2022-07-06_24h44.00.450,Colour_Asymmetry_Pilot,2022.1.3,Win32,29.53511725,62c50e9c1127f2cd403a315f,0,161,161,33,1,onethree,,,,,,,,,,,,,,,,,,,,,,,,,,,,,,,,,,,,,,,,,,,,,,,,,,,,,,,,,,,,,,,,,,,,,,,,,,,,,,,,,,,,,,,,,,,,,,,,,,,,,,,,,,,,,,,,,,,,,,,,,,,,,,,,,,,,,,,,,,,,,,,,,,,,,,,,,,,,,
,,,,,,615dec01ca05f190dc303f91,62c53c909f6109d1b7f3eea3,2022-07-06_24h44.00.450,Colour_Asymmetry_Pilot,2022.1.3,Win32,29.53511725,62c50e9c1127f2cd403a315f,,,,,,,space,4.4101,space,44.3416,space,33.9262,space,10.7351,space,4.4192,space,6.5003,"[-0.2942,-0.24719999999999998,-0.357]",twoone,"[-0.26280000000000003,-0.4746,-0.2158]",-2,16.4393,-80,-52.80001831,1,0,0,response5disk_5,7.200012207,-5.600006104,1,0,0,rectangle_8,50.40002441,-109.6000366,1,0,0,response3disk_7,4,1,1.600036621,-3.200012207,1,0,0,rectangle_4,0,0,0,0,1,,,,,,,,,,,,,,,,,,,,,,,,,,,,,,,,,,,,,,,,,,,,,,,,,,,,,,,,,,,,,,,,,,,,,,,,,,,,,,,,,,,,,,,,,,,,,,,,,,,,,,,,,,,,,
,,,,,,615dec01ca05f190dc303f91,62c53c909f6109d1b7f3eea3,2022-07-06_24h44.00.450,Colour_Asymmetry_Pilot,2022.1.3,Win32,29.53511725,62c50e9c1127f2cd403a315f,,,,,,,,,,,,,,,,,,,"[0.9842,0.7409999999999999,-0.6628000000000001]",fourthree,"[0.34099999999999997,0.12939999999999996,-0.9766]",3,4.5665,94.40002441,30.3999939,1,0,0,response1disk_5,3.200012207,0.799987793,1,0,0,rectangle_8,3.200012207,0.799987793,1,0,0,,,1,3.200012207,0.799987793,1,0,0,,1,0,1,0,1,,,,,,,,,,,,,,,,,,,,,,,,,,,,,,,,,,,,,,,,,,,,,,,,,,,,,,,,,,,,,,,,,,,,,,,,,,,,,,,,,,,,,,,,,,,,,,,,,,,,,,,,,,,,,
,,,,,,615dec01ca05f190dc303f91,62c53c909f6109d1b7f3eea3,2022-07-06_24h44.00.450,Colour_Asymmetry_Pilot,2022.1.3,Win32,29.53511725,62c50e9c1127f2cd403a315f,,,,,,,,,,,,,,,,,,,"[-0.9138,-0.5296000000000001,-0.5529999999999999]",threefour,"[-0.6235999999999999,-0.6786,-0.08239999999999992]",2,2.6827,80.79998779,-64,1,0,0,response3disk_5,0,2.399993896,1,0,0,rectangle_8,0,2.399993896,1,0,0,,,1,0,2.399993896,1,0,0,,2,0,2,0,1,,,,,,,,,,,,,,,,,,,,,,,,,,,,,,,,,,,,,,,,,,,,,,,,,,,,,,,,,,,,,,,,,,,,,,,,,,,,,,,,,,,,,,,,,,,,,,,,,,,,,,,,,,,,,
,,,,,,615dec01ca05f190dc303f91,62c53c909f6109d1b7f3eea3,2022-07-06_24h44.00.450,Colour_Asymmetry_Pilot,2022.1.3,Win32,29.53511725,62c50e9c1127f2cd403a315f,,,,,,,,,,,,,,,,,,,"[-0.6235999999999999,-0.6786,-0.08239999999999992]",onetwo,"[-0.10599999999999998,-0.15300000000000002,0.15280000000000005]",2,2.9005,96.79998779,-49.6000061,1,0,0,response3disk_5,1.600036621,0.799987793,1,0,0,rectangle_8,1.600036621,0.799987793,1,0,0,,,1,1.600036621,0.799987793,1,0,0,,3,0,3,0,1,,,,,,,,,,,,,,,,,,,,,,,,,,,,,,,,,,,,,,,,,,,,,,,,,,,,,,,,,,,,,,,,,,,,,,,,,,,,,,,,,,,,,,,,,,,,,,,,,,,,,,,,,,,,,
,,,,,,615dec01ca05f190dc303f91,62c53c909f6109d1b7f3eea3,2022-07-06_24h44.00.450,Colour_Asymmetry_Pilot,2022.1.3,Win32,29.53511725,62c50e9c1127f2cd403a315f,,,,,,,,,,,,,,,,,,,"[0.9842,0.7409999999999999,-0.6628000000000001]",twofour,"[0.6547999999999998,-0.043199999999999905,-0.011800000000000033]",-4,1.7372,-56.79998779,95.19998169,1,0,0,response7disk_5,-8.799987793,8,1,0,0,rectangle_8,-8.799987793,8,1,0,0,,,1,-8.799987793,8,1,0,0,,4,0,4,0,1,,,,,,,,,,,,,,,,,,,,,,,,,,,,,,,,,,,,,,,,,,,,,,,,,,,,,,,,,,,,,,,,,,,,,,,,,,,,,,,,,,,,,,,,,,,,,,,,,,,,,,,,,,,,,
,,,,,,615dec01ca05f190dc303f91,62c53c909f6109d1b7f3eea3,2022-07-06_24h44.00.450,Colour_Asymmetry_Pilot,2022.1.3,Win32,29.53511725,62c50e9c1127f2cd403a315f,,,,,,,,,,,,,,,,,,,"[0.8274000000000001,-0.5844,-0.9452]",threeone,"[-0.20799999999999996,-0.655,-0.01980000000000004]",-4,1.2383,-51.20001221,91.19998169,1,0,0,response7disk_5,13.60003662,6.399993896,1,0,0,rectangle_8,13.60003662,6.399993896,1,0,0,,,1,13.60003662,6.399993896,1,0,0,,5,0,5,0,1,,,,,,,,,,,,,,,,,,,,,,,,,,,,,,,,,,,,,,,,,,,,,,,,,,,,,,,,,,,,,,,,,,,,,,,,,,,,,,,,,,,,,,,,,,,,,,,,,,,,,,,,,,,,,
,,,,,,615dec01ca05f190dc303f91,62c53c909f6109d1b7f3eea3,2022-07-06_24h44.00.450,Colour_Asymmetry_Pilot,2022.1.3,Win32,29.53511725,62c50e9c1127f2cd403a315f,,,,,,,,,,,,,,,,,,,"[0.9763999999999999,0.30979999999999985,-0.6786]",fourtwo,"[-0.9688,-0.38039999999999996,-0.41979999999999995]",-4,2.3678,-40.79998779,96.79998779,1,0,0,response7disk_5,4,-2.399993896,1,0,0,rectangle_8,4,-2.399993896,1,0,0,,,1,4,-2.399993896,1,0,0,,6,0,6,0,1,,,,,,,,,,,,,,,,,,,,,,,,,,,,,,,,,,,,,,,,,,,,,,,,,,,,,,,,,,,,,,,,,,,,,,,,,,,,,,,,,,,,,,,,,,,,,,,,,,,,,,,,,,,,,
,,,,,,615dec01ca05f190dc303f91,62c53c909f6109d1b7f3eea3,2022-07-06_24h44.00.450,Colour_Asymmetry_Pilot,2022.1.3,Win32,29.53511725,62c50e9c1127f2cd403a315f,,,,,,,,,,,,,,,,,,,,fourthree,,3,1.8518,,,,,,,,,,,,,,,,,,,,,,,,,,,,,,,,space,4.0883,"[0.7176,-0.906,-0.6864]","[0.7802,-0.23140000000000005,-0.20799999999999996]",85.60003662,40,1,0,0,response1disk,-8.799987793,2.399993896,1,0,0,rectangle,-8.799987793,2.399993896,1,0,0,,2,0.0021,0,-8.799987793,2.399993896,1,0,0,0,0,0,17,1,17,first,,,,,,,,,,,,,,,,,,,,,,,,,,,,,,,,,,,,,,,,,,,,,,,,,,,,,,,,,,,,,,,,,,,,,,,,
,,,,,,615dec01ca05f190dc303f91,62c53c909f6109d1b7f3eea3,2022-07-06_24h44.00.450,Colour_Asymmetry_Pilot,2022.1.3,Win32,29.53511725,62c50e9c1127f2cd403a315f,,,,,,,,,,,,,,,,,,,,threeone,,-1,2.8184,,,,,,,,,,,,,,,,,,,,,,,,,,,,,,,,,,"[0.09799999999999986,-0.24719999999999998,0.15280000000000005]","[-0.09019999999999995,0.44300000000000006,0.5371999999999999]",-56,-94.40002441,1,0,0,response5disk,0,-14.3999939,1,0,0,rectangle,0,-14.3999939,1,0,0,,1,0.0013,0,0,-14.3999939,1,0,0,0,1,1,150,1,69,second,,,,,,,,,,,,,,,,,,,,,,,,,,,,,,,,,,,,,,,,,,,,,,,,,,,,,,,,,,,,,,,,,,,,,,,,
,,,,,,615dec01ca05f190dc303f91,62c53c909f6109d1b7f3eea3,2022-07-06_24h44.00.450,Colour_Asymmetry_Pilot,2022.1.3,Win32,29.53511725,62c50e9c1127f2cd403a315f,,,,,,,,,,,,,,,,,,,,threeone,,-4,1.0509,,,,,,,,,,,,,,,,,,,,,,,,,,,,,,,,,,"[0.22340000000000004,-0.9296,-0.7884]","[-0.5452,-0.608,0.2470000000000001]",-26.39996338,79.19998169,1,0,0,response7disk,-4,1.600006104,1,0,0,rectangle,-4,1.600006104,1,0,0,,1,0.0002,0,-4,1.600006104,1,0,0,0,2,2,4,1,4,first,,,,,,,,,,,,,,,,,,,,,,,,,,,,,,,,,,,,,,,,,,,,,,,,,,,,,,,,,,,,,,,,,,,,,,,,
,,,,,,615dec01ca05f190dc303f91,62c53c909f6109d1b7f3eea3,2022-07-06_24h44.00.450,Colour_Asymmetry_Pilot,2022.1.3,Win32,29.53511725,62c50e9c1127f2cd403a315f,,,,,,,,,,,,,,,,,,,,onetwo,,-4,1.0332,,,,,,,,,,,,,,,,,,,,,,,,,,,,,,,,,,"[0.5449999999999999,-0.31000000000000005,-0.0354000000000001]","[0.9213999999999998,0.6391999999999998,-0.9922]",-37.59997559,83.19998169,1,0,0,response7disk,-8,-7.200012207,1,0,0,rectangle,-8,-7.200012207,1,0,0,,1,0.0002,0,-8,-7.200012207,1,0,0,0,3,3,39,1,39,first,,,,,,,,,,,,,,,,,,,,,,,,,,,,,,,,,,,,,,,,,,,,,,,,,,,,,,,,,,,,,,,,,,,,,,,,
,,,,,,615dec01ca05f190dc303f91,62c53c909f6109d1b7f3eea3,2022-07-06_24h44.00.450,Colour_Asymmetry_Pilot,2022.1.3,Win32,29.53511725,62c50e9c1127f2cd403a315f,,,,,,,,,,,,,,,,,,,,fourtwo,,-4,2.4848,,,,,,,,,,,,,,,,,,,,,,,,,,,,,,,,,,"[0.6625999999999999,0.4980000000000002,-0.357]","[0.30180000000000007,-0.7884,-0.9844]",-42.39996338,66.3999939,1,0,0,response7disk,4,-12,1,0,0,rectangle,4,-12,1,0,0,,3,0.0015,0,4,-12,1,0,0,0,4,4,32,1,32,first,,,,,,,,,,,,,,,,,,,,,,,,,,,,,,,,,,,,,,,,,,,,,,,,,,,,,,,,,,,,,,,,,,,,,,,,
,,,,,,615dec01ca05f190dc303f91,62c53c909f6109d1b7f3eea3,2022-07-06_24h44.00.450,Colour_Asymmetry_Pilot,2022.1.3,Win32,29.53511725,62c50e9c1127f2cd403a315f,,,,,,,,,,,,,,,,,,,,fourthree,,4,1.7181,,,,,,,,,,,,,,,,,,,,,,,,,,,,,,,,,,"[-0.2942,-0.7648,-0.7492000000000001]","[-0.06680000000000008,-0.45100000000000007,-0.906]",56,88,1,0,0,response1disk,-15.20001221,-9.600006104,1,0,0,rectangle,-15.20001221,-9.600006104,1,0,0,,2,0.0011,0,-15.20001221,-9.600006104,1,0,0,0,5,5,60,1,60,first,,,,,,,,,,,,,,,,,,,,,,,,,,,,,,,,,,,,,,,,,,,,,,,,,,,,,,,,,,,,,,,,,,,,,,,,
,,,,,,615dec01ca05f190dc303f91,62c53c909f6109d1b7f3eea3,2022-07-06_24h44.00.450,Colour_Asymmetry_Pilot,2022.1.3,Win32,29.53511725,62c50e9c1127f2cd403a315f,,,,,,,,,,,,,,,,,,,,threeone,,-1,1.7181,,,,,,,,,,,,,,,,,,,,,,,,,,,,,,,,,,"[0.7176,-0.906,-0.6864]","[0.9372,0.20779999999999998,0.2704]",-62.39996338,-94.40002441,1,0,0,response5disk,25.60003662,-5.600006104,1,0,0,rectangle,25.60003662,-5.600006104,1,0,0,,3,0.0013,0,25.60003662,-5.600006104,1,0,0,0,6,6,123,1,42,second,,,,,,,,,,,,,,,,,,,,,,,,,,,,,,,,,,,,,,,,,,,,,,,,,,,,,,,,,,,,,,,,,,,,,,,,
,,,,,,615dec01ca05f190dc303f91,62c53c909f6109d1b7f3eea3,2022-07-06_24h44.00.450,Colour_Asymmetry_Pilot,2022.1.3,Win32,29.53511725,62c50e9c1127f2cd403a315f,,,,,,,,,,,,,,,,,,,,threeone,,-4,1.6828,,,,,,,,,,,,,,,,,,,,,,,,,,,,,,,,,,"[-0.9766,-0.34920000000000007,0.2156]","[0.5449999999999999,-0.31000000000000005,-0.0354000000000001]",-29.59997559,80.79998779,1,0,0,response7disk,-3.200012207,-0.800018311,1,0,0,rectangle,-3.200012207,-0.800018311,1,0,0,,2,0.0013,0,-3.200012207,-0.800018311,1,0,0,0,7,7,16,1,16,first,,,,,,,,,,,,,,,,,,,,,,,,,,,,,,,,,,,,,,,,,,,,,,,,,,,,,,,,,,,,,,,,,,,,,,,,
,,,,,,615dec01ca05f190dc303f91,62c53c909f6109d1b7f3eea3,2022-07-06_24h44.00.450,Colour_Asymmetry_Pilot,2022.1.3,Win32,29.53511725,62c50e9c1127f2cd403a315f,,,,,,,,,,,,,,,,,,,,fourthree,,-4,1.0702,,,,,,,,,,,,,,,,,,,,,,,,,,,,,,,,,,"[-0.26280000000000003,-0.2158,-0.3256]","[0.9686000000000001,0.5763999999999998,0.11359999999999992]",-43.20001221,70.3999939,1,0,0,response7disk,-10.39996338,-2.399993896,1,0,0,rectangle,-10.39996338,-2.399993896,1,0,0,,2,0.0002,0,-10.39996338,-2.399993896,1,0,0,0,8,8,78,1,78,first,,,,,,,,,,,,,,,,,,,,,,,,,,,,,,,,,,,,,,,,,,,,,,,,,,,,,,,,,,,,,,,,,,,,,,,,
,,,,,,615dec01ca05f190dc303f91,62c53c909f6109d1b7f3eea3,2022-07-06_24h44.00.450,Colour_Asymmetry_Pilot,2022.1.3,Win32,29.53511725,62c50e9c1127f2cd403a315f,,,,,,,,,,,,,,,,,,,,twofour,,-3,2.7677,,,,,,,,,,,,,,,,,,,,,,,,,,,,,,,,,,"[0.37240000000000006,-0.050999999999999934,-0.5216]","[-0.5688,-0.08239999999999992,-0.1844]",-84,49.6000061,1,0,0,response7disk,-12.79998779,-7.200012207,1,0,0,rectangle,-12.79998779,-7.200012207,1,0,0,,2,0.0004,0,-12.79998779,-7.200012207,1,0,0,0,9,9,19,1,19,first,,,,,,,,,,,,,,,,,,,,,,,,,,,,,,,,,,,,,,,,,,,,,,,,,,,,,,,,,,,,,,,,,,,,,,,,
,,,,,,615dec01ca05f190dc303f91,62c53c909f6109d1b7f3eea3,2022-07-06_24h44.00.450,Colour_Asymmetry_Pilot,2022.1.3,Win32,29.53511725,62c50e9c1127f2cd403a315f,,,,,,,,,,,,,,,,,,,,threefour,,2,1.2028,,,,,,,,,,,,,,,,,,,,,,,,,,,,,,,,,,"[-0.4668,-0.8746,-0.2942]","[-0.10599999999999998,-0.10599999999999998,0.5841999999999998]",71.20001221,-40,1,0,0,response3disk,15.20001221,4.799987793,1,0,0,rectangle,15.20001221,4.799987793,1,0,0,,1,0.0011,0,15.20001221,4.799987793,1,0,0,0,10,10,88,1,7,second,,,,,,,,,,,,,,,,,,,,,,,,,,,,,,,,,,,,,,,,,,,,,,,,,,,,,,,,,,,,,,,,,,,,,,,,
,,,,,,615dec01ca05f190dc303f91,62c53c909f6109d1b7f3eea3,2022-07-06_24h44.00.450,Colour_Asymmetry_Pilot,2022.1.3,Win32,29.53511725,62c50e9c1127f2cd403a315f,,,,,,,,,,,,,,,,,,,,twoone,,-4,1.2504,,,,,,,,,,,,,,,,,,,,,,,,,,,,,,,,,,"[0.2862,0.7802,0.3568]","[1,0.12939999999999996,-1]",-48.79998779,83.19998169,1,0,0,response7disk,-16,0,1,0,0,rectangle,-16,0,1,0,0,,3,0.0022,0,-16,0,1,0,0,0,11,11,115,1,34,second,,,,,,,,,,,,,,,,,,,,,,,,,,,,,,,,,,,,,,,,,,,,,,,,,,,,,,,,,,,,,,,,,,,,,,,,
,,,,,,615dec01ca05f190dc303f91,62c53c909f6109d1b7f3eea3,2022-07-06_24h44.00.450,Colour_Asymmetry_Pilot,2022.1.3,Win32,29.53511725,62c50e9c1127f2cd403a315f,,,,,,,,,,,,,,,,,,,,twofour,,-1,1.7512,,,,,,,,,,,,,,,,,,,,,,,,,,,,,,,,,,"[0.19199999999999995,0.18419999999999992,0.5136000000000001]","[-0.09019999999999995,0.44300000000000006,0.5371999999999999]",-80,-100,1,0,0,response5disk,-4,-5.600006104,1,0,0,rectangle,-4,-5.600006104,1,0,0,,3,1E-04,0,-4,-5.600006104,1,0,0,0,12,12,108,1,27,second,,,,,,,,,,,,,,,,,,,,,,,,,,,,,,,,,,,,,,,,,,,,,,,,,,,,,,,,,,,,,,,,,,,,,,,,
,,,,,,615dec01ca05f190dc303f91,62c53c909f6109d1b7f3eea3,2022-07-06_24h44.00.450,Colour_Asymmetry_Pilot,2022.1.3,Win32,29.53511725,62c50e9c1127f2cd403a315f,,,,,,,,,,,,,,,,,,,,onetwo,,-1,2.3835,,,,,,,,,,,,,,,,,,,,,,,,,,,,,,,,,,"[-0.9216,-0.5529999999999999,-0.3962]","[0.09799999999999986,-0.24719999999999998,0.15280000000000005]",-57.59997559,-77.6000061,1,0,0,response5disk,-12.79998779,4,1,0,0,rectangle,-12.79998779,4,1,0,0,,1,0.0011,0,-12.79998779,4,1,0,0,0,13,13,8,1,8,first,,,,,,,,,,,,,,,,,,,,,,,,,,,,,,,,,,,,,,,,,,,,,,,,,,,,,,,,,,,,,,,,,,,,,,,,
,,,,,,615dec01ca05f190dc303f91,62c53c909f6109d1b7f3eea3,2022-07-06_24h44.00.450,Colour_Asymmetry_Pilot,2022.1.3,Win32,29.53511725,62c50e9c1127f2cd403a315f,,,,,,,,,,,,,,,,,,,,twoone,,-4,1.3348,,,,,,,,,,,,,,,,,,,,,,,,,,,,,,,,,,"[0.7646000000000002,0.07440000000000002,0.2704]","[-0.8118,-0.8198,-0.5452]",-41.59997559,70.3999939,1,0,0,response7disk,-14.39996338,-9.600006104,1,0,0,rectangle,-14.39996338,-9.600006104,1,0,0,,1,0.0003,0,-14.39996338,-9.600006104,1,0,0,0,14,14,125,1,44,second,,,,,,,,,,,,,,,,,,,,,,,,,,,,,,,,,,,,,,,,,,,,,,,,,,,,,,,,,,,,,,,,,,,,,,,,
