trials.thisRepN,trials.thisTrialN,trials.thisN,trials.thisIndex,trials.ran,Colourcodes,participant,session,date,expName,psychopyVersion,OS,frameRate,study_id,trials_4.thisRepN,trials_4.thisTrialN,trials_4.thisN,trials_4.thisIndex,trials_4.ran,StimulusPos,key_resp.keys,key_resp.rt,key_resp_2.keys,key_resp_2.rt,key_resp_15.keys,key_resp_15.rt,key_resp_17.keys,key_resp_17.rt,key_resp_9.keys,key_resp_9.rt,key_resp_10.keys,key_resp_10.rt,Circle1_col,Ecc,Circle2_col,similarity,response_time,mouse_5.x,mouse_5.y,mouse_5.leftButton,mouse_5.midButton,mouse_5.rightButton,mouse_5.clicked_name,mouse_10.x,mouse_10.y,mouse_10.leftButton,mouse_10.midButton,mouse_10.rightButton,mouse_10.clicked_name,mouse_7.x,mouse_7.y,mouse_7.leftButton,mouse_7.midButton,mouse_7.rightButton,catchnumberprac,mouse_6.x,mouse_6.y,mouse_6.leftButton,mouse_6.midButton,mouse_6.rightButton,duringprac.thisRepN,duringprac.thisTrialN,duringprac.thisN,duringprac.thisIndex,duringprac.ran,mouse_7.clicked_name,catchprac,mouse_6.clicked_name,key_resp_22.keys,key_resp_22.rt,Circle1_colour,Circle2_colour,mouse.x,mouse.y,mouse.leftButton,mouse.midButton,mouse.rightButton,mouse.clicked_name,mouse_2.x,mouse_2.y,mouse_2.leftButton,mouse_2.midButton,mouse_2.rightButton,mouse_2.clicked_name,mouse_3.x,mouse_3.y,mouse_3.leftButton,mouse_3.midButton,mouse_3.rightButton,catchresponse,catchnumber,response_time_catch,Catch,mouse_11.x,mouse_11.y,mouse_11.leftButton,mouse_11.midButton,mouse_11.rightButton,trials_2.thisRepN,trials_2.thisTrialN,trials_2.thisN,trials_2.thisIndex,trials_2.ran,Colourpair,Temporder,mouse_3.clicked_name,mouse_11.clicked_name,trials_3.thisRepN,trials_3.thisTrialN,trials_3.thisN,trials_3.thisIndex,trials_3.ran,key_resp_instr_Ishi.keys,key_resp_instr_Ishi.rt,Ishi_trial_keyresp.keys,Ishi_textbox.text,Ishi_mouse.x,Ishi_mouse.y,Ishi_mouse.leftButton,Ishi_mouse.midButton,Ishi_mouse.rightButton,Ishi_mouse.clicked_name,Ishi_loop.thisRepN,Ishi_loop.thisTrialN,Ishi_loop.thisN,Ishi_loop.thisIndex,Ishi_loop.ran,imageaddress,textbox.text,mouse_4.x,mouse_4.y,mouse_4.leftButton,mouse_4.midButton,mouse_4.rightButton,mouse_4.clicked_name,textbox_2.text,mouse_8.x,mouse_8.y,mouse_8.leftButton,mouse_8.midButton,mouse_8.rightButton,mouse_8.clicked_name,textbox_3.text,mouse_9.x,mouse_9.y,mouse_9.leftButton,mouse_9.midButton,mouse_9.rightButton,mouse_9.clicked_name,textbox_4.text,mouse_12.x,mouse_12.y,mouse_12.leftButton,mouse_12.midButton,mouse_12.rightButton,mouse_12.clicked_name,textbox_5.text,mouse_13.x,mouse_13.y,mouse_13.leftButton,mouse_13.midButton,mouse_13.rightButton,mouse_13.clicked_name,textbox_6.text,mouse_14.x,mouse_14.y,mouse_14.leftButton,mouse_14.midButton,mouse_14.rightButton,mouse_14.clicked_name,textbox_7.text,mouse_15.x,mouse_15.y,mouse_15.leftButton,mouse_15.midButton,mouse_15.rightButton,mouse_15.clicked_name
0,0,0,55,1,,60c07e5182bf1353056371f6,62c53a1958c7705bdcbb4b34,2022-07-06_09h31.20.614,Colour_Asymmetry_Pilot,2022.1.3,Win32,59.59475566,62c50e9c1127f2cd403a315f,,,,,,,,,,,,,,,,,,,,,,,,,,,,,,,,,,,,,,,,,,,,,,,,,,,,,,,,,,,,,,,,,,,,,,,,,,,,,,,,,,,,,,,,,,,,,,,,,,,,,,,,,,,,,,,,,,,,,,,,,,,,,,,,,,,,,,,,,,,,,,,,,,,,,,,,,,,,,,,,,,,
0,1,1,76,1,,60c07e5182bf1353056371f6,62c53a1958c7705bdcbb4b34,2022-07-06_09h31.20.614,Colour_Asymmetry_Pilot,2022.1.3,Win32,59.59475566,62c50e9c1127f2cd403a315f,,,,,,,,,,,,,,,,,,,,,,,,,,,,,,,,,,,,,,,,,,,,,,,,,,,,,,,,,,,,,,,,,,,,,,,,,,,,,,,,,,,,,,,,,,,,,,,,,,,,,,,,,,,,,,,,,,,,,,,,,,,,,,,,,,,,,,,,,,,,,,,,,,,,,,,,,,,,,,,,,,,
0,2,2,12,1,,60c07e5182bf1353056371f6,62c53a1958c7705bdcbb4b34,2022-07-06_09h31.20.614,Colour_Asymmetry_Pilot,2022.1.3,Win32,59.59475566,62c50e9c1127f2cd403a315f,,,,,,,,,,,,,,,,,,,,,,,,,,,,,,,,,,,,,,,,,,,,,,,,,,,,,,,,,,,,,,,,,,,,,,,,,,,,,,,,,,,,,,,,,,,,,,,,,,,,,,,,,,,,,,,,,,,,,,,,,,,,,,,,,,,,,,,,,,,,,,,,,,,,,,,,,,,,,,,,,,,
0,3,3,56,1,,60c07e5182bf1353056371f6,62c53a1958c7705bdcbb4b34,2022-07-06_09h31.20.614,Colour_Asymmetry_Pilot,2022.1.3,Win32,59.59475566,62c50e9c1127f2cd403a315f,,,,,,,,,,,,,,,,,,,,,,,,,,,,,,,,,,,,,,,,,,,,,,,,,,,,,,,,,,,,,,,,,,,,,,,,,,,,,,,,,,,,,,,,,,,,,,,,,,,,,,,,,,,,,,,,,,,,,,,,,,,,,,,,,,,,,,,,,,,,,,,,,,,,,,,,,,,,,,,,,,,
0,4,4,78,1,,60c07e5182bf1353056371f6,62c53a1958c7705bdcbb4b34,2022-07-06_09h31.20.614,Colour_Asymmetry_Pilot,2022.1.3,Win32,59.59475566,62c50e9c1127f2cd403a315f,,,,,,,,,,,,,,,,,,,,,,,,,,,,,,,,,,,,,,,,,,,,,,,,,,,,,,,,,,,,,,,,,,,,,,,,,,,,,,,,,,,,,,,,,,,,,,,,,,,,,,,,,,,,,,,,,,,,,,,,,,,,,,,,,,,,,,,,,,,,,,,,,,,,,,,,,,,,,,,,,,,
0,5,5,49,1,,60c07e5182bf1353056371f6,62c53a1958c7705bdcbb4b34,2022-07-06_09h31.20.614,Colour_Asymmetry_Pilot,2022.1.3,Win32,59.59475566,62c50e9c1127f2cd403a315f,,,,,,,,,,,,,,,,,,,,,,,,,,,,,,,,,,,,,,,,,,,,,,,,,,,,,,,,,,,,,,,,,,,,,,,,,,,,,,,,,,,,,,,,,,,,,,,,,,,,,,,,,,,,,,,,,,,,,,,,,,,,,,,,,,,,,,,,,,,,,,,,,,,,,,,,,,,,,,,,,,,
0,6,6,32,1,,60c07e5182bf1353056371f6,62c53a1958c7705bdcbb4b34,2022-07-06_09h31.20.614,Colour_Asymmetry_Pilot,2022.1.3,Win32,59.59475566,62c50e9c1127f2cd403a315f,,,,,,,,,,,,,,,,,,,,,,,,,,,,,,,,,,,,,,,,,,,,,,,,,,,,,,,,,,,,,,,,,,,,,,,,,,,,,,,,,,,,,,,,,,,,,,,,,,,,,,,,,,,,,,,,,,,,,,,,,,,,,,,,,,,,,,,,,,,,,,,,,,,,,,,,,,,,,,,,,,,
0,7,7,92,1,,60c07e5182bf1353056371f6,62c53a1958c7705bdcbb4b34,2022-07-06_09h31.20.614,Colour_Asymmetry_Pilot,2022.1.3,Win32,59.59475566,62c50e9c1127f2cd403a315f,,,,,,,,,,,,,,,,,,,,,,,,,,,,,,,,,,,,,,,,,,,,,,,,,,,,,,,,,,,,,,,,,,,,,,,,,,,,,,,,,,,,,,,,,,,,,,,,,,,,,,,,,,,,,,,,,,,,,,,,,,,,,,,,,,,,,,,,,,,,,,,,,,,,,,,,,,,,,,,,,,,
0,8,8,67,1,,60c07e5182bf1353056371f6,62c53a1958c7705bdcbb4b34,2022-07-06_09h31.20.614,Colour_Asymmetry_Pilot,2022.1.3,Win32,59.59475566,62c50e9c1127f2cd403a315f,,,,,,,,,,,,,,,,,,,,,,,,,,,,,,,,,,,,,,,,,,,,,,,,,,,,,,,,,,,,,,,,,,,,,,,,,,,,,,,,,,,,,,,,,,,,,,,,,,,,,,,,,,,,,,,,,,,,,,,,,,,,,,,,,,,,,,,,,,,,,,,,,,,,,,,,,,,,,,,,,,,
0,9,9,6,1,,60c07e5182bf1353056371f6,62c53a1958c7705bdcbb4b34,2022-07-06_09h31.20.614,Colour_Asymmetry_Pilot,2022.1.3,Win32,59.59475566,62c50e9c1127f2cd403a315f,,,,,,,,,,,,,,,,,,,,,,,,,,,,,,,,,,,,,,,,,,,,,,,,,,,,,,,,,,,,,,,,,,,,,,,,,,,,,,,,,,,,,,,,,,,,,,,,,,,,,,,,,,,,,,,,,,,,,,,,,,,,,,,,,,,,,,,,,,,,,,,,,,,,,,,,,,,,,,,,,,,
0,10,10,2,1,,60c07e5182bf1353056371f6,62c53a1958c7705bdcbb4b34,2022-07-06_09h31.20.614,Colour_Asymmetry_Pilot,2022.1.3,Win32,59.59475566,62c50e9c1127f2cd403a315f,,,,,,,,,,,,,,,,,,,,,,,,,,,,,,,,,,,,,,,,,,,,,,,,,,,,,,,,,,,,,,,,,,,,,,,,,,,,,,,,,,,,,,,,,,,,,,,,,,,,,,,,,,,,,,,,,,,,,,,,,,,,,,,,,,,,,,,,,,,,,,,,,,,,,,,,,,,,,,,,,,,
0,11,11,37,1,,60c07e5182bf1353056371f6,62c53a1958c7705bdcbb4b34,2022-07-06_09h31.20.614,Colour_Asymmetry_Pilot,2022.1.3,Win32,59.59475566,62c50e9c1127f2cd403a315f,,,,,,,,,,,,,,,,,,,,,,,,,,,,,,,,,,,,,,,,,,,,,,,,,,,,,,,,,,,,,,,,,,,,,,,,,,,,,,,,,,,,,,,,,,,,,,,,,,,,,,,,,,,,,,,,,,,,,,,,,,,,,,,,,,,,,,,,,,,,,,,,,,,,,,,,,,,,,,,,,,,
0,12,12,85,1,,60c07e5182bf1353056371f6,62c53a1958c7705bdcbb4b34,2022-07-06_09h31.20.614,Colour_Asymmetry_Pilot,2022.1.3,Win32,59.59475566,62c50e9c1127f2cd403a315f,,,,,,,,,,,,,,,,,,,,,,,,,,,,,,,,,,,,,,,,,,,,,,,,,,,,,,,,,,,,,,,,,,,,,,,,,,,,,,,,,,,,,,,,,,,,,,,,,,,,,,,,,,,,,,,,,,,,,,,,,,,,,,,,,,,,,,,,,,,,,,,,,,,,,,,,,,,,,,,,,,,
0,13,13,63,1,,60c07e5182bf1353056371f6,62c53a1958c7705bdcbb4b34,2022-07-06_09h31.20.614,Colour_Asymmetry_Pilot,2022.1.3,Win32,59.59475566,62c50e9c1127f2cd403a315f,,,,,,,,,,,,,,,,,,,,,,,,,,,,,,,,,,,,,,,,,,,,,,,,,,,,,,,,,,,,,,,,,,,,,,,,,,,,,,,,,,,,,,,,,,,,,,,,,,,,,,,,,,,,,,,,,,,,,,,,,,,,,,,,,,,,,,,,,,,,,,,,,,,,,,,,,,,,,,,,,,,
0,14,14,61,1,,60c07e5182bf1353056371f6,62c53a1958c7705bdcbb4b34,2022-07-06_09h31.20.614,Colour_Asymmetry_Pilot,2022.1.3,Win32,59.59475566,62c50e9c1127f2cd403a315f,,,,,,,,,,,,,,,,,,,,,,,,,,,,,,,,,,,,,,,,,,,,,,,,,,,,,,,,,,,,,,,,,,,,,,,,,,,,,,,,,,,,,,,,,,,,,,,,,,,,,,,,,,,,,,,,,,,,,,,,,,,,,,,,,,,,,,,,,,,,,,,,,,,,,,,,,,,,,,,,,,,
0,15,15,3,1,,60c07e5182bf1353056371f6,62c53a1958c7705bdcbb4b34,2022-07-06_09h31.20.614,Colour_Asymmetry_Pilot,2022.1.3,Win32,59.59475566,62c50e9c1127f2cd403a315f,,,,,,,,,,,,,,,,,,,,,,,,,,,,,,,,,,,,,,,,,,,,,,,,,,,,,,,,,,,,,,,,,,,,,,,,,,,,,,,,,,,,,,,,,,,,,,,,,,,,,,,,,,,,,,,,,,,,,,,,,,,,,,,,,,,,,,,,,,,,,,,,,,,,,,,,,,,,,,,,,,,
0,16,16,38,1,,60c07e5182bf1353056371f6,62c53a1958c7705bdcbb4b34,2022-07-06_09h31.20.614,Colour_Asymmetry_Pilot,2022.1.3,Win32,59.59475566,62c50e9c1127f2cd403a315f,,,,,,,,,,,,,,,,,,,,,,,,,,,,,,,,,,,,,,,,,,,,,,,,,,,,,,,,,,,,,,,,,,,,,,,,,,,,,,,,,,,,,,,,,,,,,,,,,,,,,,,,,,,,,,,,,,,,,,,,,,,,,,,,,,,,,,,,,,,,,,,,,,,,,,,,,,,,,,,,,,,
0,17,17,10,1,,60c07e5182bf1353056371f6,62c53a1958c7705bdcbb4b34,2022-07-06_09h31.20.614,Colour_Asymmetry_Pilot,2022.1.3,Win32,59.59475566,62c50e9c1127f2cd403a315f,,,,,,,,,,,,,,,,,,,,,,,,,,,,,,,,,,,,,,,,,,,,,,,,,,,,,,,,,,,,,,,,,,,,,,,,,,,,,,,,,,,,,,,,,,,,,,,,,,,,,,,,,,,,,,,,,,,,,,,,,,,,,,,,,,,,,,,,,,,,,,,,,,,,,,,,,,,,,,,,,,,
0,18,18,66,1,,60c07e5182bf1353056371f6,62c53a1958c7705bdcbb4b34,2022-07-06_09h31.20.614,Colour_Asymmetry_Pilot,2022.1.3,Win32,59.59475566,62c50e9c1127f2cd403a315f,,,,,,,,,,,,,,,,,,,,,,,,,,,,,,,,,,,,,,,,,,,,,,,,,,,,,,,,,,,,,,,,,,,,,,,,,,,,,,,,,,,,,,,,,,,,,,,,,,,,,,,,,,,,,,,,,,,,,,,,,,,,,,,,,,,,,,,,,,,,,,,,,,,,,,,,,,,,,,,,,,,
0,19,19,48,1,,60c07e5182bf1353056371f6,62c53a1958c7705bdcbb4b34,2022-07-06_09h31.20.614,Colour_Asymmetry_Pilot,2022.1.3,Win32,59.59475566,62c50e9c1127f2cd403a315f,,,,,,,,,,,,,,,,,,,,,,,,,,,,,,,,,,,,,,,,,,,,,,,,,,,,,,,,,,,,,,,,,,,,,,,,,,,,,,,,,,,,,,,,,,,,,,,,,,,,,,,,,,,,,,,,,,,,,,,,,,,,,,,,,,,,,,,,,,,,,,,,,,,,,,,,,,,,,,,,,,,
0,20,20,58,1,,60c07e5182bf1353056371f6,62c53a1958c7705bdcbb4b34,2022-07-06_09h31.20.614,Colour_Asymmetry_Pilot,2022.1.3,Win32,59.59475566,62c50e9c1127f2cd403a315f,,,,,,,,,,,,,,,,,,,,,,,,,,,,,,,,,,,,,,,,,,,,,,,,,,,,,,,,,,,,,,,,,,,,,,,,,,,,,,,,,,,,,,,,,,,,,,,,,,,,,,,,,,,,,,,,,,,,,,,,,,,,,,,,,,,,,,,,,,,,,,,,,,,,,,,,,,,,,,,,,,,
0,21,21,46,1,,60c07e5182bf1353056371f6,62c53a1958c7705bdcbb4b34,2022-07-06_09h31.20.614,Colour_Asymmetry_Pilot,2022.1.3,Win32,59.59475566,62c50e9c1127f2cd403a315f,,,,,,,,,,,,,,,,,,,,,,,,,,,,,,,,,,,,,,,,,,,,,,,,,,,,,,,,,,,,,,,,,,,,,,,,,,,,,,,,,,,,,,,,,,,,,,,,,,,,,,,,,,,,,,,,,,,,,,,,,,,,,,,,,,,,,,,,,,,,,,,,,,,,,,,,,,,,,,,,,,,
0,22,22,15,1,,60c07e5182bf1353056371f6,62c53a1958c7705bdcbb4b34,2022-07-06_09h31.20.614,Colour_Asymmetry_Pilot,2022.1.3,Win32,59.59475566,62c50e9c1127f2cd403a315f,,,,,,,,,,,,,,,,,,,,,,,,,,,,,,,,,,,,,,,,,,,,,,,,,,,,,,,,,,,,,,,,,,,,,,,,,,,,,,,,,,,,,,,,,,,,,,,,,,,,,,,,,,,,,,,,,,,,,,,,,,,,,,,,,,,,,,,,,,,,,,,,,,,,,,,,,,,,,,,,,,,
0,23,23,36,1,,60c07e5182bf1353056371f6,62c53a1958c7705bdcbb4b34,2022-07-06_09h31.20.614,Colour_Asymmetry_Pilot,2022.1.3,Win32,59.59475566,62c50e9c1127f2cd403a315f,,,,,,,,,,,,,,,,,,,,,,,,,,,,,,,,,,,,,,,,,,,,,,,,,,,,,,,,,,,,,,,,,,,,,,,,,,,,,,,,,,,,,,,,,,,,,,,,,,,,,,,,,,,,,,,,,,,,,,,,,,,,,,,,,,,,,,,,,,,,,,,,,,,,,,,,,,,,,,,,,,,
0,24,24,8,1,,60c07e5182bf1353056371f6,62c53a1958c7705bdcbb4b34,2022-07-06_09h31.20.614,Colour_Asymmetry_Pilot,2022.1.3,Win32,59.59475566,62c50e9c1127f2cd403a315f,,,,,,,,,,,,,,,,,,,,,,,,,,,,,,,,,,,,,,,,,,,,,,,,,,,,,,,,,,,,,,,,,,,,,,,,,,,,,,,,,,,,,,,,,,,,,,,,,,,,,,,,,,,,,,,,,,,,,,,,,,,,,,,,,,,,,,,,,,,,,,,,,,,,,,,,,,,,,,,,,,,
0,25,25,31,1,,60c07e5182bf1353056371f6,62c53a1958c7705bdcbb4b34,2022-07-06_09h31.20.614,Colour_Asymmetry_Pilot,2022.1.3,Win32,59.59475566,62c50e9c1127f2cd403a315f,,,,,,,,,,,,,,,,,,,,,,,,,,,,,,,,,,,,,,,,,,,,,,,,,,,,,,,,,,,,,,,,,,,,,,,,,,,,,,,,,,,,,,,,,,,,,,,,,,,,,,,,,,,,,,,,,,,,,,,,,,,,,,,,,,,,,,,,,,,,,,,,,,,,,,,,,,,,,,,,,,,
0,26,26,80,1,,60c07e5182bf1353056371f6,62c53a1958c7705bdcbb4b34,2022-07-06_09h31.20.614,Colour_Asymmetry_Pilot,2022.1.3,Win32,59.59475566,62c50e9c1127f2cd403a315f,,,,,,,,,,,,,,,,,,,,,,,,,,,,,,,,,,,,,,,,,,,,,,,,,,,,,,,,,,,,,,,,,,,,,,,,,,,,,,,,,,,,,,,,,,,,,,,,,,,,,,,,,,,,,,,,,,,,,,,,,,,,,,,,,,,,,,,,,,,,,,,,,,,,,,,,,,,,,,,,,,,
0,27,27,88,1,,60c07e5182bf1353056371f6,62c53a1958c7705bdcbb4b34,2022-07-06_09h31.20.614,Colour_Asymmetry_Pilot,2022.1.3,Win32,59.59475566,62c50e9c1127f2cd403a315f,,,,,,,,,,,,,,,,,,,,,,,,,,,,,,,,,,,,,,,,,,,,,,,,,,,,,,,,,,,,,,,,,,,,,,,,,,,,,,,,,,,,,,,,,,,,,,,,,,,,,,,,,,,,,,,,,,,,,,,,,,,,,,,,,,,,,,,,,,,,,,,,,,,,,,,,,,,,,,,,,,,
0,28,28,86,1,,60c07e5182bf1353056371f6,62c53a1958c7705bdcbb4b34,2022-07-06_09h31.20.614,Colour_Asymmetry_Pilot,2022.1.3,Win32,59.59475566,62c50e9c1127f2cd403a315f,,,,,,,,,,,,,,,,,,,,,,,,,,,,,,,,,,,,,,,,,,,,,,,,,,,,,,,,,,,,,,,,,,,,,,,,,,,,,,,,,,,,,,,,,,,,,,,,,,,,,,,,,,,,,,,,,,,,,,,,,,,,,,,,,,,,,,,,,,,,,,,,,,,,,,,,,,,,,,,,,,,
0,29,29,4,1,,60c07e5182bf1353056371f6,62c53a1958c7705bdcbb4b34,2022-07-06_09h31.20.614,Colour_Asymmetry_Pilot,2022.1.3,Win32,59.59475566,62c50e9c1127f2cd403a315f,,,,,,,,,,,,,,,,,,,,,,,,,,,,,,,,,,,,,,,,,,,,,,,,,,,,,,,,,,,,,,,,,,,,,,,,,,,,,,,,,,,,,,,,,,,,,,,,,,,,,,,,,,,,,,,,,,,,,,,,,,,,,,,,,,,,,,,,,,,,,,,,,,,,,,,,,,,,,,,,,,,
0,30,30,25,1,,60c07e5182bf1353056371f6,62c53a1958c7705bdcbb4b34,2022-07-06_09h31.20.614,Colour_Asymmetry_Pilot,2022.1.3,Win32,59.59475566,62c50e9c1127f2cd403a315f,,,,,,,,,,,,,,,,,,,,,,,,,,,,,,,,,,,,,,,,,,,,,,,,,,,,,,,,,,,,,,,,,,,,,,,,,,,,,,,,,,,,,,,,,,,,,,,,,,,,,,,,,,,,,,,,,,,,,,,,,,,,,,,,,,,,,,,,,,,,,,,,,,,,,,,,,,,,,,,,,,,
0,31,31,68,1,,60c07e5182bf1353056371f6,62c53a1958c7705bdcbb4b34,2022-07-06_09h31.20.614,Colour_Asymmetry_Pilot,2022.1.3,Win32,59.59475566,62c50e9c1127f2cd403a315f,,,,,,,,,,,,,,,,,,,,,,,,,,,,,,,,,,,,,,,,,,,,,,,,,,,,,,,,,,,,,,,,,,,,,,,,,,,,,,,,,,,,,,,,,,,,,,,,,,,,,,,,,,,,,,,,,,,,,,,,,,,,,,,,,,,,,,,,,,,,,,,,,,,,,,,,,,,,,,,,,,,
0,32,32,64,1,,60c07e5182bf1353056371f6,62c53a1958c7705bdcbb4b34,2022-07-06_09h31.20.614,Colour_Asymmetry_Pilot,2022.1.3,Win32,59.59475566,62c50e9c1127f2cd403a315f,,,,,,,,,,,,,,,,,,,,,,,,,,,,,,,,,,,,,,,,,,,,,,,,,,,,,,,,,,,,,,,,,,,,,,,,,,,,,,,,,,,,,,,,,,,,,,,,,,,,,,,,,,,,,,,,,,,,,,,,,,,,,,,,,,,,,,,,,,,,,,,,,,,,,,,,,,,,,,,,,,,
0,33,33,81,1,,60c07e5182bf1353056371f6,62c53a1958c7705bdcbb4b34,2022-07-06_09h31.20.614,Colour_Asymmetry_Pilot,2022.1.3,Win32,59.59475566,62c50e9c1127f2cd403a315f,,,,,,,,,,,,,,,,,,,,,,,,,,,,,,,,,,,,,,,,,,,,,,,,,,,,,,,,,,,,,,,,,,,,,,,,,,,,,,,,,,,,,,,,,,,,,,,,,,,,,,,,,,,,,,,,,,,,,,,,,,,,,,,,,,,,,,,,,,,,,,,,,,,,,,,,,,,,,,,,,,,
0,34,34,27,1,,60c07e5182bf1353056371f6,62c53a1958c7705bdcbb4b34,2022-07-06_09h31.20.614,Colour_Asymmetry_Pilot,2022.1.3,Win32,59.59475566,62c50e9c1127f2cd403a315f,,,,,,,,,,,,,,,,,,,,,,,,,,,,,,,,,,,,,,,,,,,,,,,,,,,,,,,,,,,,,,,,,,,,,,,,,,,,,,,,,,,,,,,,,,,,,,,,,,,,,,,,,,,,,,,,,,,,,,,,,,,,,,,,,,,,,,,,,,,,,,,,,,,,,,,,,,,,,,,,,,,
0,35,35,24,1,,60c07e5182bf1353056371f6,62c53a1958c7705bdcbb4b34,2022-07-06_09h31.20.614,Colour_Asymmetry_Pilot,2022.1.3,Win32,59.59475566,62c50e9c1127f2cd403a315f,,,,,,,,,,,,,,,,,,,,,,,,,,,,,,,,,,,,,,,,,,,,,,,,,,,,,,,,,,,,,,,,,,,,,,,,,,,,,,,,,,,,,,,,,,,,,,,,,,,,,,,,,,,,,,,,,,,,,,,,,,,,,,,,,,,,,,,,,,,,,,,,,,,,,,,,,,,,,,,,,,,
0,36,36,18,1,,60c07e5182bf1353056371f6,62c53a1958c7705bdcbb4b34,2022-07-06_09h31.20.614,Colour_Asymmetry_Pilot,2022.1.3,Win32,59.59475566,62c50e9c1127f2cd403a315f,,,,,,,,,,,,,,,,,,,,,,,,,,,,,,,,,,,,,,,,,,,,,,,,,,,,,,,,,,,,,,,,,,,,,,,,,,,,,,,,,,,,,,,,,,,,,,,,,,,,,,,,,,,,,,,,,,,,,,,,,,,,,,,,,,,,,,,,,,,,,,,,,,,,,,,,,,,,,,,,,,,
0,37,37,54,1,,60c07e5182bf1353056371f6,62c53a1958c7705bdcbb4b34,2022-07-06_09h31.20.614,Colour_Asymmetry_Pilot,2022.1.3,Win32,59.59475566,62c50e9c1127f2cd403a315f,,,,,,,,,,,,,,,,,,,,,,,,,,,,,,,,,,,,,,,,,,,,,,,,,,,,,,,,,,,,,,,,,,,,,,,,,,,,,,,,,,,,,,,,,,,,,,,,,,,,,,,,,,,,,,,,,,,,,,,,,,,,,,,,,,,,,,,,,,,,,,,,,,,,,,,,,,,,,,,,,,,
0,38,38,33,1,,60c07e5182bf1353056371f6,62c53a1958c7705bdcbb4b34,2022-07-06_09h31.20.614,Colour_Asymmetry_Pilot,2022.1.3,Win32,59.59475566,62c50e9c1127f2cd403a315f,,,,,,,,,,,,,,,,,,,,,,,,,,,,,,,,,,,,,,,,,,,,,,,,,,,,,,,,,,,,,,,,,,,,,,,,,,,,,,,,,,,,,,,,,,,,,,,,,,,,,,,,,,,,,,,,,,,,,,,,,,,,,,,,,,,,,,,,,,,,,,,,,,,,,,,,,,,,,,,,,,,
0,39,39,82,1,,60c07e5182bf1353056371f6,62c53a1958c7705bdcbb4b34,2022-07-06_09h31.20.614,Colour_Asymmetry_Pilot,2022.1.3,Win32,59.59475566,62c50e9c1127f2cd403a315f,,,,,,,,,,,,,,,,,,,,,,,,,,,,,,,,,,,,,,,,,,,,,,,,,,,,,,,,,,,,,,,,,,,,,,,,,,,,,,,,,,,,,,,,,,,,,,,,,,,,,,,,,,,,,,,,,,,,,,,,,,,,,,,,,,,,,,,,,,,,,,,,,,,,,,,,,,,,,,,,,,,
0,40,40,23,1,,60c07e5182bf1353056371f6,62c53a1958c7705bdcbb4b34,2022-07-06_09h31.20.614,Colour_Asymmetry_Pilot,2022.1.3,Win32,59.59475566,62c50e9c1127f2cd403a315f,,,,,,,,,,,,,,,,,,,,,,,,,,,,,,,,,,,,,,,,,,,,,,,,,,,,,,,,,,,,,,,,,,,,,,,,,,,,,,,,,,,,,,,,,,,,,,,,,,,,,,,,,,,,,,,,,,,,,,,,,,,,,,,,,,,,,,,,,,,,,,,,,,,,,,,,,,,,,,,,,,,
0,41,41,60,1,,60c07e5182bf1353056371f6,62c53a1958c7705bdcbb4b34,2022-07-06_09h31.20.614,Colour_Asymmetry_Pilot,2022.1.3,Win32,59.59475566,62c50e9c1127f2cd403a315f,,,,,,,,,,,,,,,,,,,,,,,,,,,,,,,,,,,,,,,,,,,,,,,,,,,,,,,,,,,,,,,,,,,,,,,,,,,,,,,,,,,,,,,,,,,,,,,,,,,,,,,,,,,,,,,,,,,,,,,,,,,,,,,,,,,,,,,,,,,,,,,,,,,,,,,,,,,,,,,,,,,
0,42,42,42,1,,60c07e5182bf1353056371f6,62c53a1958c7705bdcbb4b34,2022-07-06_09h31.20.614,Colour_Asymmetry_Pilot,2022.1.3,Win32,59.59475566,62c50e9c1127f2cd403a315f,,,,,,,,,,,,,,,,,,,,,,,,,,,,,,,,,,,,,,,,,,,,,,,,,,,,,,,,,,,,,,,,,,,,,,,,,,,,,,,,,,,,,,,,,,,,,,,,,,,,,,,,,,,,,,,,,,,,,,,,,,,,,,,,,,,,,,,,,,,,,,,,,,,,,,,,,,,,,,,,,,,
0,43,43,30,1,,60c07e5182bf1353056371f6,62c53a1958c7705bdcbb4b34,2022-07-06_09h31.20.614,Colour_Asymmetry_Pilot,2022.1.3,Win32,59.59475566,62c50e9c1127f2cd403a315f,,,,,,,,,,,,,,,,,,,,,,,,,,,,,,,,,,,,,,,,,,,,,,,,,,,,,,,,,,,,,,,,,,,,,,,,,,,,,,,,,,,,,,,,,,,,,,,,,,,,,,,,,,,,,,,,,,,,,,,,,,,,,,,,,,,,,,,,,,,,,,,,,,,,,,,,,,,,,,,,,,,
0,44,44,72,1,,60c07e5182bf1353056371f6,62c53a1958c7705bdcbb4b34,2022-07-06_09h31.20.614,Colour_Asymmetry_Pilot,2022.1.3,Win32,59.59475566,62c50e9c1127f2cd403a315f,,,,,,,,,,,,,,,,,,,,,,,,,,,,,,,,,,,,,,,,,,,,,,,,,,,,,,,,,,,,,,,,,,,,,,,,,,,,,,,,,,,,,,,,,,,,,,,,,,,,,,,,,,,,,,,,,,,,,,,,,,,,,,,,,,,,,,,,,,,,,,,,,,,,,,,,,,,,,,,,,,,
0,45,45,59,1,,60c07e5182bf1353056371f6,62c53a1958c7705bdcbb4b34,2022-07-06_09h31.20.614,Colour_Asymmetry_Pilot,2022.1.3,Win32,59.59475566,62c50e9c1127f2cd403a315f,,,,,,,,,,,,,,,,,,,,,,,,,,,,,,,,,,,,,,,,,,,,,,,,,,,,,,,,,,,,,,,,,,,,,,,,,,,,,,,,,,,,,,,,,,,,,,,,,,,,,,,,,,,,,,,,,,,,,,,,,,,,,,,,,,,,,,,,,,,,,,,,,,,,,,,,,,,,,,,,,,,
0,46,46,79,1,,60c07e5182bf1353056371f6,62c53a1958c7705bdcbb4b34,2022-07-06_09h31.20.614,Colour_Asymmetry_Pilot,2022.1.3,Win32,59.59475566,62c50e9c1127f2cd403a315f,,,,,,,,,,,,,,,,,,,,,,,,,,,,,,,,,,,,,,,,,,,,,,,,,,,,,,,,,,,,,,,,,,,,,,,,,,,,,,,,,,,,,,,,,,,,,,,,,,,,,,,,,,,,,,,,,,,,,,,,,,,,,,,,,,,,,,,,,,,,,,,,,,,,,,,,,,,,,,,,,,,
0,47,47,39,1,,60c07e5182bf1353056371f6,62c53a1958c7705bdcbb4b34,2022-07-06_09h31.20.614,Colour_Asymmetry_Pilot,2022.1.3,Win32,59.59475566,62c50e9c1127f2cd403a315f,,,,,,,,,,,,,,,,,,,,,,,,,,,,,,,,,,,,,,,,,,,,,,,,,,,,,,,,,,,,,,,,,,,,,,,,,,,,,,,,,,,,,,,,,,,,,,,,,,,,,,,,,,,,,,,,,,,,,,,,,,,,,,,,,,,,,,,,,,,,,,,,,,,,,,,,,,,,,,,,,,,
0,48,48,16,1,,60c07e5182bf1353056371f6,62c53a1958c7705bdcbb4b34,2022-07-06_09h31.20.614,Colour_Asymmetry_Pilot,2022.1.3,Win32,59.59475566,62c50e9c1127f2cd403a315f,,,,,,,,,,,,,,,,,,,,,,,,,,,,,,,,,,,,,,,,,,,,,,,,,,,,,,,,,,,,,,,,,,,,,,,,,,,,,,,,,,,,,,,,,,,,,,,,,,,,,,,,,,,,,,,,,,,,,,,,,,,,,,,,,,,,,,,,,,,,,,,,,,,,,,,,,,,,,,,,,,,
0,49,49,22,1,,60c07e5182bf1353056371f6,62c53a1958c7705bdcbb4b34,2022-07-06_09h31.20.614,Colour_Asymmetry_Pilot,2022.1.3,Win32,59.59475566,62c50e9c1127f2cd403a315f,,,,,,,,,,,,,,,,,,,,,,,,,,,,,,,,,,,,,,,,,,,,,,,,,,,,,,,,,,,,,,,,,,,,,,,,,,,,,,,,,,,,,,,,,,,,,,,,,,,,,,,,,,,,,,,,,,,,,,,,,,,,,,,,,,,,,,,,,,,,,,,,,,,,,,,,,,,,,,,,,,,
0,50,50,50,1,,60c07e5182bf1353056371f6,62c53a1958c7705bdcbb4b34,2022-07-06_09h31.20.614,Colour_Asymmetry_Pilot,2022.1.3,Win32,59.59475566,62c50e9c1127f2cd403a315f,,,,,,,,,,,,,,,,,,,,,,,,,,,,,,,,,,,,,,,,,,,,,,,,,,,,,,,,,,,,,,,,,,,,,,,,,,,,,,,,,,,,,,,,,,,,,,,,,,,,,,,,,,,,,,,,,,,,,,,,,,,,,,,,,,,,,,,,,,,,,,,,,,,,,,,,,,,,,,,,,,,
0,51,51,40,1,,60c07e5182bf1353056371f6,62c53a1958c7705bdcbb4b34,2022-07-06_09h31.20.614,Colour_Asymmetry_Pilot,2022.1.3,Win32,59.59475566,62c50e9c1127f2cd403a315f,,,,,,,,,,,,,,,,,,,,,,,,,,,,,,,,,,,,,,,,,,,,,,,,,,,,,,,,,,,,,,,,,,,,,,,,,,,,,,,,,,,,,,,,,,,,,,,,,,,,,,,,,,,,,,,,,,,,,,,,,,,,,,,,,,,,,,,,,,,,,,,,,,,,,,,,,,,,,,,,,,,
0,52,52,90,1,,60c07e5182bf1353056371f6,62c53a1958c7705bdcbb4b34,2022-07-06_09h31.20.614,Colour_Asymmetry_Pilot,2022.1.3,Win32,59.59475566,62c50e9c1127f2cd403a315f,,,,,,,,,,,,,,,,,,,,,,,,,,,,,,,,,,,,,,,,,,,,,,,,,,,,,,,,,,,,,,,,,,,,,,,,,,,,,,,,,,,,,,,,,,,,,,,,,,,,,,,,,,,,,,,,,,,,,,,,,,,,,,,,,,,,,,,,,,,,,,,,,,,,,,,,,,,,,,,,,,,
0,53,53,20,1,,60c07e5182bf1353056371f6,62c53a1958c7705bdcbb4b34,2022-07-06_09h31.20.614,Colour_Asymmetry_Pilot,2022.1.3,Win32,59.59475566,62c50e9c1127f2cd403a315f,,,,,,,,,,,,,,,,,,,,,,,,,,,,,,,,,,,,,,,,,,,,,,,,,,,,,,,,,,,,,,,,,,,,,,,,,,,,,,,,,,,,,,,,,,,,,,,,,,,,,,,,,,,,,,,,,,,,,,,,,,,,,,,,,,,,,,,,,,,,,,,,,,,,,,,,,,,,,,,,,,,
0,54,54,75,1,,60c07e5182bf1353056371f6,62c53a1958c7705bdcbb4b34,2022-07-06_09h31.20.614,Colour_Asymmetry_Pilot,2022.1.3,Win32,59.59475566,62c50e9c1127f2cd403a315f,,,,,,,,,,,,,,,,,,,,,,,,,,,,,,,,,,,,,,,,,,,,,,,,,,,,,,,,,,,,,,,,,,,,,,,,,,,,,,,,,,,,,,,,,,,,,,,,,,,,,,,,,,,,,,,,,,,,,,,,,,,,,,,,,,,,,,,,,,,,,,,,,,,,,,,,,,,,,,,,,,,
0,55,55,21,1,,60c07e5182bf1353056371f6,62c53a1958c7705bdcbb4b34,2022-07-06_09h31.20.614,Colour_Asymmetry_Pilot,2022.1.3,Win32,59.59475566,62c50e9c1127f2cd403a315f,,,,,,,,,,,,,,,,,,,,,,,,,,,,,,,,,,,,,,,,,,,,,,,,,,,,,,,,,,,,,,,,,,,,,,,,,,,,,,,,,,,,,,,,,,,,,,,,,,,,,,,,,,,,,,,,,,,,,,,,,,,,,,,,,,,,,,,,,,,,,,,,,,,,,,,,,,,,,,,,,,,
0,56,56,71,1,,60c07e5182bf1353056371f6,62c53a1958c7705bdcbb4b34,2022-07-06_09h31.20.614,Colour_Asymmetry_Pilot,2022.1.3,Win32,59.59475566,62c50e9c1127f2cd403a315f,,,,,,,,,,,,,,,,,,,,,,,,,,,,,,,,,,,,,,,,,,,,,,,,,,,,,,,,,,,,,,,,,,,,,,,,,,,,,,,,,,,,,,,,,,,,,,,,,,,,,,,,,,,,,,,,,,,,,,,,,,,,,,,,,,,,,,,,,,,,,,,,,,,,,,,,,,,,,,,,,,,
0,57,57,89,1,,60c07e5182bf1353056371f6,62c53a1958c7705bdcbb4b34,2022-07-06_09h31.20.614,Colour_Asymmetry_Pilot,2022.1.3,Win32,59.59475566,62c50e9c1127f2cd403a315f,,,,,,,,,,,,,,,,,,,,,,,,,,,,,,,,,,,,,,,,,,,,,,,,,,,,,,,,,,,,,,,,,,,,,,,,,,,,,,,,,,,,,,,,,,,,,,,,,,,,,,,,,,,,,,,,,,,,,,,,,,,,,,,,,,,,,,,,,,,,,,,,,,,,,,,,,,,,,,,,,,,
0,58,58,69,1,,60c07e5182bf1353056371f6,62c53a1958c7705bdcbb4b34,2022-07-06_09h31.20.614,Colour_Asymmetry_Pilot,2022.1.3,Win32,59.59475566,62c50e9c1127f2cd403a315f,,,,,,,,,,,,,,,,,,,,,,,,,,,,,,,,,,,,,,,,,,,,,,,,,,,,,,,,,,,,,,,,,,,,,,,,,,,,,,,,,,,,,,,,,,,,,,,,,,,,,,,,,,,,,,,,,,,,,,,,,,,,,,,,,,,,,,,,,,,,,,,,,,,,,,,,,,,,,,,,,,,
0,59,59,11,1,,60c07e5182bf1353056371f6,62c53a1958c7705bdcbb4b34,2022-07-06_09h31.20.614,Colour_Asymmetry_Pilot,2022.1.3,Win32,59.59475566,62c50e9c1127f2cd403a315f,,,,,,,,,,,,,,,,,,,,,,,,,,,,,,,,,,,,,,,,,,,,,,,,,,,,,,,,,,,,,,,,,,,,,,,,,,,,,,,,,,,,,,,,,,,,,,,,,,,,,,,,,,,,,,,,,,,,,,,,,,,,,,,,,,,,,,,,,,,,,,,,,,,,,,,,,,,,,,,,,,,
0,60,60,74,1,,60c07e5182bf1353056371f6,62c53a1958c7705bdcbb4b34,2022-07-06_09h31.20.614,Colour_Asymmetry_Pilot,2022.1.3,Win32,59.59475566,62c50e9c1127f2cd403a315f,,,,,,,,,,,,,,,,,,,,,,,,,,,,,,,,,,,,,,,,,,,,,,,,,,,,,,,,,,,,,,,,,,,,,,,,,,,,,,,,,,,,,,,,,,,,,,,,,,,,,,,,,,,,,,,,,,,,,,,,,,,,,,,,,,,,,,,,,,,,,,,,,,,,,,,,,,,,,,,,,,,
0,61,61,65,1,,60c07e5182bf1353056371f6,62c53a1958c7705bdcbb4b34,2022-07-06_09h31.20.614,Colour_Asymmetry_Pilot,2022.1.3,Win32,59.59475566,62c50e9c1127f2cd403a315f,,,,,,,,,,,,,,,,,,,,,,,,,,,,,,,,,,,,,,,,,,,,,,,,,,,,,,,,,,,,,,,,,,,,,,,,,,,,,,,,,,,,,,,,,,,,,,,,,,,,,,,,,,,,,,,,,,,,,,,,,,,,,,,,,,,,,,,,,,,,,,,,,,,,,,,,,,,,,,,,,,,
0,62,62,1,1,,60c07e5182bf1353056371f6,62c53a1958c7705bdcbb4b34,2022-07-06_09h31.20.614,Colour_Asymmetry_Pilot,2022.1.3,Win32,59.59475566,62c50e9c1127f2cd403a315f,,,,,,,,,,,,,,,,,,,,,,,,,,,,,,,,,,,,,,,,,,,,,,,,,,,,,,,,,,,,,,,,,,,,,,,,,,,,,,,,,,,,,,,,,,,,,,,,,,,,,,,,,,,,,,,,,,,,,,,,,,,,,,,,,,,,,,,,,,,,,,,,,,,,,,,,,,,,,,,,,,,
0,63,63,51,1,,60c07e5182bf1353056371f6,62c53a1958c7705bdcbb4b34,2022-07-06_09h31.20.614,Colour_Asymmetry_Pilot,2022.1.3,Win32,59.59475566,62c50e9c1127f2cd403a315f,,,,,,,,,,,,,,,,,,,,,,,,,,,,,,,,,,,,,,,,,,,,,,,,,,,,,,,,,,,,,,,,,,,,,,,,,,,,,,,,,,,,,,,,,,,,,,,,,,,,,,,,,,,,,,,,,,,,,,,,,,,,,,,,,,,,,,,,,,,,,,,,,,,,,,,,,,,,,,,,,,,
0,64,64,29,1,,60c07e5182bf1353056371f6,62c53a1958c7705bdcbb4b34,2022-07-06_09h31.20.614,Colour_Asymmetry_Pilot,2022.1.3,Win32,59.59475566,62c50e9c1127f2cd403a315f,,,,,,,,,,,,,,,,,,,,,,,,,,,,,,,,,,,,,,,,,,,,,,,,,,,,,,,,,,,,,,,,,,,,,,,,,,,,,,,,,,,,,,,,,,,,,,,,,,,,,,,,,,,,,,,,,,,,,,,,,,,,,,,,,,,,,,,,,,,,,,,,,,,,,,,,,,,,,,,,,,,
0,65,65,47,1,,60c07e5182bf1353056371f6,62c53a1958c7705bdcbb4b34,2022-07-06_09h31.20.614,Colour_Asymmetry_Pilot,2022.1.3,Win32,59.59475566,62c50e9c1127f2cd403a315f,,,,,,,,,,,,,,,,,,,,,,,,,,,,,,,,,,,,,,,,,,,,,,,,,,,,,,,,,,,,,,,,,,,,,,,,,,,,,,,,,,,,,,,,,,,,,,,,,,,,,,,,,,,,,,,,,,,,,,,,,,,,,,,,,,,,,,,,,,,,,,,,,,,,,,,,,,,,,,,,,,,
0,66,66,0,1,,60c07e5182bf1353056371f6,62c53a1958c7705bdcbb4b34,2022-07-06_09h31.20.614,Colour_Asymmetry_Pilot,2022.1.3,Win32,59.59475566,62c50e9c1127f2cd403a315f,,,,,,,,,,,,,,,,,,,,,,,,,,,,,,,,,,,,,,,,,,,,,,,,,,,,,,,,,,,,,,,,,,,,,,,,,,,,,,,,,,,,,,,,,,,,,,,,,,,,,,,,,,,,,,,,,,,,,,,,,,,,,,,,,,,,,,,,,,,,,,,,,,,,,,,,,,,,,,,,,,,
0,67,67,17,1,,60c07e5182bf1353056371f6,62c53a1958c7705bdcbb4b34,2022-07-06_09h31.20.614,Colour_Asymmetry_Pilot,2022.1.3,Win32,59.59475566,62c50e9c1127f2cd403a315f,,,,,,,,,,,,,,,,,,,,,,,,,,,,,,,,,,,,,,,,,,,,,,,,,,,,,,,,,,,,,,,,,,,,,,,,,,,,,,,,,,,,,,,,,,,,,,,,,,,,,,,,,,,,,,,,,,,,,,,,,,,,,,,,,,,,,,,,,,,,,,,,,,,,,,,,,,,,,,,,,,,
0,68,68,77,1,,60c07e5182bf1353056371f6,62c53a1958c7705bdcbb4b34,2022-07-06_09h31.20.614,Colour_Asymmetry_Pilot,2022.1.3,Win32,59.59475566,62c50e9c1127f2cd403a315f,,,,,,,,,,,,,,,,,,,,,,,,,,,,,,,,,,,,,,,,,,,,,,,,,,,,,,,,,,,,,,,,,,,,,,,,,,,,,,,,,,,,,,,,,,,,,,,,,,,,,,,,,,,,,,,,,,,,,,,,,,,,,,,,,,,,,,,,,,,,,,,,,,,,,,,,,,,,,,,,,,,
0,69,69,19,1,,60c07e5182bf1353056371f6,62c53a1958c7705bdcbb4b34,2022-07-06_09h31.20.614,Colour_Asymmetry_Pilot,2022.1.3,Win32,59.59475566,62c50e9c1127f2cd403a315f,,,,,,,,,,,,,,,,,,,,,,,,,,,,,,,,,,,,,,,,,,,,,,,,,,,,,,,,,,,,,,,,,,,,,,,,,,,,,,,,,,,,,,,,,,,,,,,,,,,,,,,,,,,,,,,,,,,,,,,,,,,,,,,,,,,,,,,,,,,,,,,,,,,,,,,,,,,,,,,,,,,
0,70,70,84,1,,60c07e5182bf1353056371f6,62c53a1958c7705bdcbb4b34,2022-07-06_09h31.20.614,Colour_Asymmetry_Pilot,2022.1.3,Win32,59.59475566,62c50e9c1127f2cd403a315f,,,,,,,,,,,,,,,,,,,,,,,,,,,,,,,,,,,,,,,,,,,,,,,,,,,,,,,,,,,,,,,,,,,,,,,,,,,,,,,,,,,,,,,,,,,,,,,,,,,,,,,,,,,,,,,,,,,,,,,,,,,,,,,,,,,,,,,,,,,,,,,,,,,,,,,,,,,,,,,,,,,
0,71,71,53,1,,60c07e5182bf1353056371f6,62c53a1958c7705bdcbb4b34,2022-07-06_09h31.20.614,Colour_Asymmetry_Pilot,2022.1.3,Win32,59.59475566,62c50e9c1127f2cd403a315f,,,,,,,,,,,,,,,,,,,,,,,,,,,,,,,,,,,,,,,,,,,,,,,,,,,,,,,,,,,,,,,,,,,,,,,,,,,,,,,,,,,,,,,,,,,,,,,,,,,,,,,,,,,,,,,,,,,,,,,,,,,,,,,,,,,,,,,,,,,,,,,,,,,,,,,,,,,,,,,,,,,
0,72,72,73,1,,60c07e5182bf1353056371f6,62c53a1958c7705bdcbb4b34,2022-07-06_09h31.20.614,Colour_Asymmetry_Pilot,2022.1.3,Win32,59.59475566,62c50e9c1127f2cd403a315f,,,,,,,,,,,,,,,,,,,,,,,,,,,,,,,,,,,,,,,,,,,,,,,,,,,,,,,,,,,,,,,,,,,,,,,,,,,,,,,,,,,,,,,,,,,,,,,,,,,,,,,,,,,,,,,,,,,,,,,,,,,,,,,,,,,,,,,,,,,,,,,,,,,,,,,,,,,,,,,,,,,
0,73,73,57,1,,60c07e5182bf1353056371f6,62c53a1958c7705bdcbb4b34,2022-07-06_09h31.20.614,Colour_Asymmetry_Pilot,2022.1.3,Win32,59.59475566,62c50e9c1127f2cd403a315f,,,,,,,,,,,,,,,,,,,,,,,,,,,,,,,,,,,,,,,,,,,,,,,,,,,,,,,,,,,,,,,,,,,,,,,,,,,,,,,,,,,,,,,,,,,,,,,,,,,,,,,,,,,,,,,,,,,,,,,,,,,,,,,,,,,,,,,,,,,,,,,,,,,,,,,,,,,,,,,,,,,
0,74,74,62,1,,60c07e5182bf1353056371f6,62c53a1958c7705bdcbb4b34,2022-07-06_09h31.20.614,Colour_Asymmetry_Pilot,2022.1.3,Win32,59.59475566,62c50e9c1127f2cd403a315f,,,,,,,,,,,,,,,,,,,,,,,,,,,,,,,,,,,,,,,,,,,,,,,,,,,,,,,,,,,,,,,,,,,,,,,,,,,,,,,,,,,,,,,,,,,,,,,,,,,,,,,,,,,,,,,,,,,,,,,,,,,,,,,,,,,,,,,,,,,,,,,,,,,,,,,,,,,,,,,,,,,
0,75,75,28,1,,60c07e5182bf1353056371f6,62c53a1958c7705bdcbb4b34,2022-07-06_09h31.20.614,Colour_Asymmetry_Pilot,2022.1.3,Win32,59.59475566,62c50e9c1127f2cd403a315f,,,,,,,,,,,,,,,,,,,,,,,,,,,,,,,,,,,,,,,,,,,,,,,,,,,,,,,,,,,,,,,,,,,,,,,,,,,,,,,,,,,,,,,,,,,,,,,,,,,,,,,,,,,,,,,,,,,,,,,,,,,,,,,,,,,,,,,,,,,,,,,,,,,,,,,,,,,,,,,,,,,
0,76,76,45,1,,60c07e5182bf1353056371f6,62c53a1958c7705bdcbb4b34,2022-07-06_09h31.20.614,Colour_Asymmetry_Pilot,2022.1.3,Win32,59.59475566,62c50e9c1127f2cd403a315f,,,,,,,,,,,,,,,,,,,,,,,,,,,,,,,,,,,,,,,,,,,,,,,,,,,,,,,,,,,,,,,,,,,,,,,,,,,,,,,,,,,,,,,,,,,,,,,,,,,,,,,,,,,,,,,,,,,,,,,,,,,,,,,,,,,,,,,,,,,,,,,,,,,,,,,,,,,,,,,,,,,
0,77,77,70,1,,60c07e5182bf1353056371f6,62c53a1958c7705bdcbb4b34,2022-07-06_09h31.20.614,Colour_Asymmetry_Pilot,2022.1.3,Win32,59.59475566,62c50e9c1127f2cd403a315f,,,,,,,,,,,,,,,,,,,,,,,,,,,,,,,,,,,,,,,,,,,,,,,,,,,,,,,,,,,,,,,,,,,,,,,,,,,,,,,,,,,,,,,,,,,,,,,,,,,,,,,,,,,,,,,,,,,,,,,,,,,,,,,,,,,,,,,,,,,,,,,,,,,,,,,,,,,,,,,,,,,
0,78,78,83,1,,60c07e5182bf1353056371f6,62c53a1958c7705bdcbb4b34,2022-07-06_09h31.20.614,Colour_Asymmetry_Pilot,2022.1.3,Win32,59.59475566,62c50e9c1127f2cd403a315f,,,,,,,,,,,,,,,,,,,,,,,,,,,,,,,,,,,,,,,,,,,,,,,,,,,,,,,,,,,,,,,,,,,,,,,,,,,,,,,,,,,,,,,,,,,,,,,,,,,,,,,,,,,,,,,,,,,,,,,,,,,,,,,,,,,,,,,,,,,,,,,,,,,,,,,,,,,,,,,,,,,
0,79,79,52,1,,60c07e5182bf1353056371f6,62c53a1958c7705bdcbb4b34,2022-07-06_09h31.20.614,Colour_Asymmetry_Pilot,2022.1.3,Win32,59.59475566,62c50e9c1127f2cd403a315f,,,,,,,,,,,,,,,,,,,,,,,,,,,,,,,,,,,,,,,,,,,,,,,,,,,,,,,,,,,,,,,,,,,,,,,,,,,,,,,,,,,,,,,,,,,,,,,,,,,,,,,,,,,,,,,,,,,,,,,,,,,,,,,,,,,,,,,,,,,,,,,,,,,,,,,,,,,,,,,,,,,
0,80,80,9,1,,60c07e5182bf1353056371f6,62c53a1958c7705bdcbb4b34,2022-07-06_09h31.20.614,Colour_Asymmetry_Pilot,2022.1.3,Win32,59.59475566,62c50e9c1127f2cd403a315f,,,,,,,,,,,,,,,,,,,,,,,,,,,,,,,,,,,,,,,,,,,,,,,,,,,,,,,,,,,,,,,,,,,,,,,,,,,,,,,,,,,,,,,,,,,,,,,,,,,,,,,,,,,,,,,,,,,,,,,,,,,,,,,,,,,,,,,,,,,,,,,,,,,,,,,,,,,,,,,,,,,
0,81,81,91,1,,60c07e5182bf1353056371f6,62c53a1958c7705bdcbb4b34,2022-07-06_09h31.20.614,Colour_Asymmetry_Pilot,2022.1.3,Win32,59.59475566,62c50e9c1127f2cd403a315f,,,,,,,,,,,,,,,,,,,,,,,,,,,,,,,,,,,,,,,,,,,,,,,,,,,,,,,,,,,,,,,,,,,,,,,,,,,,,,,,,,,,,,,,,,,,,,,,,,,,,,,,,,,,,,,,,,,,,,,,,,,,,,,,,,,,,,,,,,,,,,,,,,,,,,,,,,,,,,,,,,,
0,82,82,13,1,,60c07e5182bf1353056371f6,62c53a1958c7705bdcbb4b34,2022-07-06_09h31.20.614,Colour_Asymmetry_Pilot,2022.1.3,Win32,59.59475566,62c50e9c1127f2cd403a315f,,,,,,,,,,,,,,,,,,,,,,,,,,,,,,,,,,,,,,,,,,,,,,,,,,,,,,,,,,,,,,,,,,,,,,,,,,,,,,,,,,,,,,,,,,,,,,,,,,,,,,,,,,,,,,,,,,,,,,,,,,,,,,,,,,,,,,,,,,,,,,,,,,,,,,,,,,,,,,,,,,,
0,83,83,41,1,,60c07e5182bf1353056371f6,62c53a1958c7705bdcbb4b34,2022-07-06_09h31.20.614,Colour_Asymmetry_Pilot,2022.1.3,Win32,59.59475566,62c50e9c1127f2cd403a315f,,,,,,,,,,,,,,,,,,,,,,,,,,,,,,,,,,,,,,,,,,,,,,,,,,,,,,,,,,,,,,,,,,,,,,,,,,,,,,,,,,,,,,,,,,,,,,,,,,,,,,,,,,,,,,,,,,,,,,,,,,,,,,,,,,,,,,,,,,,,,,,,,,,,,,,,,,,,,,,,,,,
0,84,84,43,1,,60c07e5182bf1353056371f6,62c53a1958c7705bdcbb4b34,2022-07-06_09h31.20.614,Colour_Asymmetry_Pilot,2022.1.3,Win32,59.59475566,62c50e9c1127f2cd403a315f,,,,,,,,,,,,,,,,,,,,,,,,,,,,,,,,,,,,,,,,,,,,,,,,,,,,,,,,,,,,,,,,,,,,,,,,,,,,,,,,,,,,,,,,,,,,,,,,,,,,,,,,,,,,,,,,,,,,,,,,,,,,,,,,,,,,,,,,,,,,,,,,,,,,,,,,,,,,,,,,,,,
0,85,85,87,1,,60c07e5182bf1353056371f6,62c53a1958c7705bdcbb4b34,2022-07-06_09h31.20.614,Colour_Asymmetry_Pilot,2022.1.3,Win32,59.59475566,62c50e9c1127f2cd403a315f,,,,,,,,,,,,,,,,,,,,,,,,,,,,,,,,,,,,,,,,,,,,,,,,,,,,,,,,,,,,,,,,,,,,,,,,,,,,,,,,,,,,,,,,,,,,,,,,,,,,,,,,,,,,,,,,,,,,,,,,,,,,,,,,,,,,,,,,,,,,,,,,,,,,,,,,,,,,,,,,,,,
0,86,86,35,1,,60c07e5182bf1353056371f6,62c53a1958c7705bdcbb4b34,2022-07-06_09h31.20.614,Colour_Asymmetry_Pilot,2022.1.3,Win32,59.59475566,62c50e9c1127f2cd403a315f,,,,,,,,,,,,,,,,,,,,,,,,,,,,,,,,,,,,,,,,,,,,,,,,,,,,,,,,,,,,,,,,,,,,,,,,,,,,,,,,,,,,,,,,,,,,,,,,,,,,,,,,,,,,,,,,,,,,,,,,,,,,,,,,,,,,,,,,,,,,,,,,,,,,,,,,,,,,,,,,,,,
0,87,87,5,1,,60c07e5182bf1353056371f6,62c53a1958c7705bdcbb4b34,2022-07-06_09h31.20.614,Colour_Asymmetry_Pilot,2022.1.3,Win32,59.59475566,62c50e9c1127f2cd403a315f,,,,,,,,,,,,,,,,,,,,,,,,,,,,,,,,,,,,,,,,,,,,,,,,,,,,,,,,,,,,,,,,,,,,,,,,,,,,,,,,,,,,,,,,,,,,,,,,,,,,,,,,,,,,,,,,,,,,,,,,,,,,,,,,,,,,,,,,,,,,,,,,,,,,,,,,,,,,,,,,,,,
0,88,88,7,1,,60c07e5182bf1353056371f6,62c53a1958c7705bdcbb4b34,2022-07-06_09h31.20.614,Colour_Asymmetry_Pilot,2022.1.3,Win32,59.59475566,62c50e9c1127f2cd403a315f,,,,,,,,,,,,,,,,,,,,,,,,,,,,,,,,,,,,,,,,,,,,,,,,,,,,,,,,,,,,,,,,,,,,,,,,,,,,,,,,,,,,,,,,,,,,,,,,,,,,,,,,,,,,,,,,,,,,,,,,,,,,,,,,,,,,,,,,,,,,,,,,,,,,,,,,,,,,,,,,,,,
0,89,89,44,1,,60c07e5182bf1353056371f6,62c53a1958c7705bdcbb4b34,2022-07-06_09h31.20.614,Colour_Asymmetry_Pilot,2022.1.3,Win32,59.59475566,62c50e9c1127f2cd403a315f,,,,,,,,,,,,,,,,,,,,,,,,,,,,,,,,,,,,,,,,,,,,,,,,,,,,,,,,,,,,,,,,,,,,,,,,,,,,,,,,,,,,,,,,,,,,,,,,,,,,,,,,,,,,,,,,,,,,,,,,,,,,,,,,,,,,,,,,,,,,,,,,,,,,,,,,,,,,,,,,,,,
0,90,90,34,1,,60c07e5182bf1353056371f6,62c53a1958c7705bdcbb4b34,2022-07-06_09h31.20.614,Colour_Asymmetry_Pilot,2022.1.3,Win32,59.59475566,62c50e9c1127f2cd403a315f,,,,,,,,,,,,,,,,,,,,,,,,,,,,,,,,,,,,,,,,,,,,,,,,,,,,,,,,,,,,,,,,,,,,,,,,,,,,,,,,,,,,,,,,,,,,,,,,,,,,,,,,,,,,,,,,,,,,,,,,,,,,,,,,,,,,,,,,,,,,,,,,,,,,,,,,,,,,,,,,,,,
0,91,91,26,1,,60c07e5182bf1353056371f6,62c53a1958c7705bdcbb4b34,2022-07-06_09h31.20.614,Colour_Asymmetry_Pilot,2022.1.3,Win32,59.59475566,62c50e9c1127f2cd403a315f,,,,,,,,,,,,,,,,,,,,,,,,,,,,,,,,,,,,,,,,,,,,,,,,,,,,,,,,,,,,,,,,,,,,,,,,,,,,,,,,,,,,,,,,,,,,,,,,,,,,,,,,,,,,,,,,,,,,,,,,,,,,,,,,,,,,,,,,,,,,,,,,,,,,,,,,,,,,,,,,,,,
0,92,92,14,1,,60c07e5182bf1353056371f6,62c53a1958c7705bdcbb4b34,2022-07-06_09h31.20.614,Colour_Asymmetry_Pilot,2022.1.3,Win32,59.59475566,62c50e9c1127f2cd403a315f,,,,,,,,,,,,,,,,,,,,,,,,,,,,,,,,,,,,,,,,,,,,,,,,,,,,,,,,,,,,,,,,,,,,,,,,,,,,,,,,,,,,,,,,,,,,,,,,,,,,,,,,,,,,,,,,,,,,,,,,,,,,,,,,,,,,,,,,,,,,,,,,,,,,,,,,,,,,,,,,,,,
,,,,,,60c07e5182bf1353056371f6,62c53a1958c7705bdcbb4b34,2022-07-06_09h31.20.614,Colour_Asymmetry_Pilot,2022.1.3,Win32,59.59475566,62c50e9c1127f2cd403a315f,0,0,0,73,1,onethree,,,,,,,,,,,,,,,,,,,,,,,,,,,,,,,,,,,,,,,,,,,,,,,,,,,,,,,,,,,,,,,,,,,,,,,,,,,,,,,,,,,,,,,,,,,,,,,,,,,,,,,,,,,,,,,,,,,,,,,,,,,,,,,,,,,,,,,,,,,,,,,,,,,,,,,,,,,,,
,,,,,,60c07e5182bf1353056371f6,62c53a1958c7705bdcbb4b34,2022-07-06_09h31.20.614,Colour_Asymmetry_Pilot,2022.1.3,Win32,59.59475566,62c50e9c1127f2cd403a315f,0,1,1,45,1,threefour,,,,,,,,,,,,,,,,,,,,,,,,,,,,,,,,,,,,,,,,,,,,,,,,,,,,,,,,,,,,,,,,,,,,,,,,,,,,,,,,,,,,,,,,,,,,,,,,,,,,,,,,,,,,,,,,,,,,,,,,,,,,,,,,,,,,,,,,,,,,,,,,,,,,,,,,,,,,,
,,,,,,60c07e5182bf1353056371f6,62c53a1958c7705bdcbb4b34,2022-07-06_09h31.20.614,Colour_Asymmetry_Pilot,2022.1.3,Win32,59.59475566,62c50e9c1127f2cd403a315f,0,2,2,40,1,onetwo,,,,,,,,,,,,,,,,,,,,,,,,,,,,,,,,,,,,,,,,,,,,,,,,,,,,,,,,,,,,,,,,,,,,,,,,,,,,,,,,,,,,,,,,,,,,,,,,,,,,,,,,,,,,,,,,,,,,,,,,,,,,,,,,,,,,,,,,,,,,,,,,,,,,,,,,,,,,,
,,,,,,60c07e5182bf1353056371f6,62c53a1958c7705bdcbb4b34,2022-07-06_09h31.20.614,Colour_Asymmetry_Pilot,2022.1.3,Win32,59.59475566,62c50e9c1127f2cd403a315f,0,3,3,49,1,onethree,,,,,,,,,,,,,,,,,,,,,,,,,,,,,,,,,,,,,,,,,,,,,,,,,,,,,,,,,,,,,,,,,,,,,,,,,,,,,,,,,,,,,,,,,,,,,,,,,,,,,,,,,,,,,,,,,,,,,,,,,,,,,,,,,,,,,,,,,,,,,,,,,,,,,,,,,,,,,
,,,,,,60c07e5182bf1353056371f6,62c53a1958c7705bdcbb4b34,2022-07-06_09h31.20.614,Colour_Asymmetry_Pilot,2022.1.3,Win32,59.59475566,62c50e9c1127f2cd403a315f,0,4,4,153,1,onethree,,,,,,,,,,,,,,,,,,,,,,,,,,,,,,,,,,,,,,,,,,,,,,,,,,,,,,,,,,,,,,,,,,,,,,,,,,,,,,,,,,,,,,,,,,,,,,,,,,,,,,,,,,,,,,,,,,,,,,,,,,,,,,,,,,,,,,,,,,,,,,,,,,,,,,,,,,,,,
,,,,,,60c07e5182bf1353056371f6,62c53a1958c7705bdcbb4b34,2022-07-06_09h31.20.614,Colour_Asymmetry_Pilot,2022.1.3,Win32,59.59475566,62c50e9c1127f2cd403a315f,0,5,5,52,1,threeone,,,,,,,,,,,,,,,,,,,,,,,,,,,,,,,,,,,,,,,,,,,,,,,,,,,,,,,,,,,,,,,,,,,,,,,,,,,,,,,,,,,,,,,,,,,,,,,,,,,,,,,,,,,,,,,,,,,,,,,,,,,,,,,,,,,,,,,,,,,,,,,,,,,,,,,,,,,,,
,,,,,,60c07e5182bf1353056371f6,62c53a1958c7705bdcbb4b34,2022-07-06_09h31.20.614,Colour_Asymmetry_Pilot,2022.1.3,Win32,59.59475566,62c50e9c1127f2cd403a315f,0,6,6,111,1,fourthree,,,,,,,,,,,,,,,,,,,,,,,,,,,,,,,,,,,,,,,,,,,,,,,,,,,,,,,,,,,,,,,,,,,,,,,,,,,,,,,,,,,,,,,,,,,,,,,,,,,,,,,,,,,,,,,,,,,,,,,,,,,,,,,,,,,,,,,,,,,,,,,,,,,,,,,,,,,,,
,,,,,,60c07e5182bf1353056371f6,62c53a1958c7705bdcbb4b34,2022-07-06_09h31.20.614,Colour_Asymmetry_Pilot,2022.1.3,Win32,59.59475566,62c50e9c1127f2cd403a315f,0,7,7,125,1,threefour,,,,,,,,,,,,,,,,,,,,,,,,,,,,,,,,,,,,,,,,,,,,,,,,,,,,,,,,,,,,,,,,,,,,,,,,,,,,,,,,,,,,,,,,,,,,,,,,,,,,,,,,,,,,,,,,,,,,,,,,,,,,,,,,,,,,,,,,,,,,,,,,,,,,,,,,,,,,,
,,,,,,60c07e5182bf1353056371f6,62c53a1958c7705bdcbb4b34,2022-07-06_09h31.20.614,Colour_Asymmetry_Pilot,2022.1.3,Win32,59.59475566,62c50e9c1127f2cd403a315f,0,8,8,107,1,twofour,,,,,,,,,,,,,,,,,,,,,,,,,,,,,,,,,,,,,,,,,,,,,,,,,,,,,,,,,,,,,,,,,,,,,,,,,,,,,,,,,,,,,,,,,,,,,,,,,,,,,,,,,,,,,,,,,,,,,,,,,,,,,,,,,,,,,,,,,,,,,,,,,,,,,,,,,,,,,
,,,,,,60c07e5182bf1353056371f6,62c53a1958c7705bdcbb4b34,2022-07-06_09h31.20.614,Colour_Asymmetry_Pilot,2022.1.3,Win32,59.59475566,62c50e9c1127f2cd403a315f,0,9,9,121,1,onethree,,,,,,,,,,,,,,,,,,,,,,,,,,,,,,,,,,,,,,,,,,,,,,,,,,,,,,,,,,,,,,,,,,,,,,,,,,,,,,,,,,,,,,,,,,,,,,,,,,,,,,,,,,,,,,,,,,,,,,,,,,,,,,,,,,,,,,,,,,,,,,,,,,,,,,,,,,,,,
,,,,,,60c07e5182bf1353056371f6,62c53a1958c7705bdcbb4b34,2022-07-06_09h31.20.614,Colour_Asymmetry_Pilot,2022.1.3,Win32,59.59475566,62c50e9c1127f2cd403a315f,0,10,10,29,1,threefour,,,,,,,,,,,,,,,,,,,,,,,,,,,,,,,,,,,,,,,,,,,,,,,,,,,,,,,,,,,,,,,,,,,,,,,,,,,,,,,,,,,,,,,,,,,,,,,,,,,,,,,,,,,,,,,,,,,,,,,,,,,,,,,,,,,,,,,,,,,,,,,,,,,,,,,,,,,,,
,,,,,,60c07e5182bf1353056371f6,62c53a1958c7705bdcbb4b34,2022-07-06_09h31.20.614,Colour_Asymmetry_Pilot,2022.1.3,Win32,59.59475566,62c50e9c1127f2cd403a315f,0,11,11,132,1,threeone,,,,,,,,,,,,,,,,,,,,,,,,,,,,,,,,,,,,,,,,,,,,,,,,,,,,,,,,,,,,,,,,,,,,,,,,,,,,,,,,,,,,,,,,,,,,,,,,,,,,,,,,,,,,,,,,,,,,,,,,,,,,,,,,,,,,,,,,,,,,,,,,,,,,,,,,,,,,,
,,,,,,60c07e5182bf1353056371f6,62c53a1958c7705bdcbb4b34,2022-07-06_09h31.20.614,Colour_Asymmetry_Pilot,2022.1.3,Win32,59.59475566,62c50e9c1127f2cd403a315f,0,12,12,117,1,threefour,,,,,,,,,,,,,,,,,,,,,,,,,,,,,,,,,,,,,,,,,,,,,,,,,,,,,,,,,,,,,,,,,,,,,,,,,,,,,,,,,,,,,,,,,,,,,,,,,,,,,,,,,,,,,,,,,,,,,,,,,,,,,,,,,,,,,,,,,,,,,,,,,,,,,,,,,,,,,
,,,,,,60c07e5182bf1353056371f6,62c53a1958c7705bdcbb4b34,2022-07-06_09h31.20.614,Colour_Asymmetry_Pilot,2022.1.3,Win32,59.59475566,62c50e9c1127f2cd403a315f,0,13,13,100,1,threeone,,,,,,,,,,,,,,,,,,,,,,,,,,,,,,,,,,,,,,,,,,,,,,,,,,,,,,,,,,,,,,,,,,,,,,,,,,,,,,,,,,,,,,,,,,,,,,,,,,,,,,,,,,,,,,,,,,,,,,,,,,,,,,,,,,,,,,,,,,,,,,,,,,,,,,,,,,,,,
,,,,,,60c07e5182bf1353056371f6,62c53a1958c7705bdcbb4b34,2022-07-06_09h31.20.614,Colour_Asymmetry_Pilot,2022.1.3,Win32,59.59475566,62c50e9c1127f2cd403a315f,0,14,14,22,1,fourtwo,,,,,,,,,,,,,,,,,,,,,,,,,,,,,,,,,,,,,,,,,,,,,,,,,,,,,,,,,,,,,,,,,,,,,,,,,,,,,,,,,,,,,,,,,,,,,,,,,,,,,,,,,,,,,,,,,,,,,,,,,,,,,,,,,,,,,,,,,,,,,,,,,,,,,,,,,,,,,
,,,,,,60c07e5182bf1353056371f6,62c53a1958c7705bdcbb4b34,2022-07-06_09h31.20.614,Colour_Asymmetry_Pilot,2022.1.3,Win32,59.59475566,62c50e9c1127f2cd403a315f,0,15,15,136,1,onetwo,,,,,,,,,,,,,,,,,,,,,,,,,,,,,,,,,,,,,,,,,,,,,,,,,,,,,,,,,,,,,,,,,,,,,,,,,,,,,,,,,,,,,,,,,,,,,,,,,,,,,,,,,,,,,,,,,,,,,,,,,,,,,,,,,,,,,,,,,,,,,,,,,,,,,,,,,,,,,
,,,,,,60c07e5182bf1353056371f6,62c53a1958c7705bdcbb4b34,2022-07-06_09h31.20.614,Colour_Asymmetry_Pilot,2022.1.3,Win32,59.59475566,62c50e9c1127f2cd403a315f,0,16,16,28,1,threeone,,,,,,,,,,,,,,,,,,,,,,,,,,,,,,,,,,,,,,,,,,,,,,,,,,,,,,,,,,,,,,,,,,,,,,,,,,,,,,,,,,,,,,,,,,,,,,,,,,,,,,,,,,,,,,,,,,,,,,,,,,,,,,,,,,,,,,,,,,,,,,,,,,,,,,,,,,,,,
,,,,,,60c07e5182bf1353056371f6,62c53a1958c7705bdcbb4b34,2022-07-06_09h31.20.614,Colour_Asymmetry_Pilot,2022.1.3,Win32,59.59475566,62c50e9c1127f2cd403a315f,0,17,17,72,1,onetwo,,,,,,,,,,,,,,,,,,,,,,,,,,,,,,,,,,,,,,,,,,,,,,,,,,,,,,,,,,,,,,,,,,,,,,,,,,,,,,,,,,,,,,,,,,,,,,,,,,,,,,,,,,,,,,,,,,,,,,,,,,,,,,,,,,,,,,,,,,,,,,,,,,,,,,,,,,,,,
,,,,,,60c07e5182bf1353056371f6,62c53a1958c7705bdcbb4b34,2022-07-06_09h31.20.614,Colour_Asymmetry_Pilot,2022.1.3,Win32,59.59475566,62c50e9c1127f2cd403a315f,0,18,18,152,1,onetwo,,,,,,,,,,,,,,,,,,,,,,,,,,,,,,,,,,,,,,,,,,,,,,,,,,,,,,,,,,,,,,,,,,,,,,,,,,,,,,,,,,,,,,,,,,,,,,,,,,,,,,,,,,,,,,,,,,,,,,,,,,,,,,,,,,,,,,,,,,,,,,,,,,,,,,,,,,,,,
,,,,,,60c07e5182bf1353056371f6,62c53a1958c7705bdcbb4b34,2022-07-06_09h31.20.614,Colour_Asymmetry_Pilot,2022.1.3,Win32,59.59475566,62c50e9c1127f2cd403a315f,0,19,19,84,1,threeone,,,,,,,,,,,,,,,,,,,,,,,,,,,,,,,,,,,,,,,,,,,,,,,,,,,,,,,,,,,,,,,,,,,,,,,,,,,,,,,,,,,,,,,,,,,,,,,,,,,,,,,,,,,,,,,,,,,,,,,,,,,,,,,,,,,,,,,,,,,,,,,,,,,,,,,,,,,,,
,,,,,,60c07e5182bf1353056371f6,62c53a1958c7705bdcbb4b34,2022-07-06_09h31.20.614,Colour_Asymmetry_Pilot,2022.1.3,Win32,59.59475566,62c50e9c1127f2cd403a315f,0,20,20,82,1,twoone,,,,,,,,,,,,,,,,,,,,,,,,,,,,,,,,,,,,,,,,,,,,,,,,,,,,,,,,,,,,,,,,,,,,,,,,,,,,,,,,,,,,,,,,,,,,,,,,,,,,,,,,,,,,,,,,,,,,,,,,,,,,,,,,,,,,,,,,,,,,,,,,,,,,,,,,,,,,,
,,,,,,60c07e5182bf1353056371f6,62c53a1958c7705bdcbb4b34,2022-07-06_09h31.20.614,Colour_Asymmetry_Pilot,2022.1.3,Win32,59.59475566,62c50e9c1127f2cd403a315f,0,21,21,6,1,fourtwo,,,,,,,,,,,,,,,,,,,,,,,,,,,,,,,,,,,,,,,,,,,,,,,,,,,,,,,,,,,,,,,,,,,,,,,,,,,,,,,,,,,,,,,,,,,,,,,,,,,,,,,,,,,,,,,,,,,,,,,,,,,,,,,,,,,,,,,,,,,,,,,,,,,,,,,,,,,,,
,,,,,,60c07e5182bf1353056371f6,62c53a1958c7705bdcbb4b34,2022-07-06_09h31.20.614,Colour_Asymmetry_Pilot,2022.1.3,Win32,59.59475566,62c50e9c1127f2cd403a315f,0,22,22,155,1,twofour,,,,,,,,,,,,,,,,,,,,,,,,,,,,,,,,,,,,,,,,,,,,,,,,,,,,,,,,,,,,,,,,,,,,,,,,,,,,,,,,,,,,,,,,,,,,,,,,,,,,,,,,,,,,,,,,,,,,,,,,,,,,,,,,,,,,,,,,,,,,,,,,,,,,,,,,,,,,,
,,,,,,60c07e5182bf1353056371f6,62c53a1958c7705bdcbb4b34,2022-07-06_09h31.20.614,Colour_Asymmetry_Pilot,2022.1.3,Win32,59.59475566,62c50e9c1127f2cd403a315f,0,23,23,97,1,onethree,,,,,,,,,,,,,,,,,,,,,,,,,,,,,,,,,,,,,,,,,,,,,,,,,,,,,,,,,,,,,,,,,,,,,,,,,,,,,,,,,,,,,,,,,,,,,,,,,,,,,,,,,,,,,,,,,,,,,,,,,,,,,,,,,,,,,,,,,,,,,,,,,,,,,,,,,,,,,
,,,,,,60c07e5182bf1353056371f6,62c53a1958c7705bdcbb4b34,2022-07-06_09h31.20.614,Colour_Asymmetry_Pilot,2022.1.3,Win32,59.59475566,62c50e9c1127f2cd403a315f,0,24,24,139,1,twofour,,,,,,,,,,,,,,,,,,,,,,,,,,,,,,,,,,,,,,,,,,,,,,,,,,,,,,,,,,,,,,,,,,,,,,,,,,,,,,,,,,,,,,,,,,,,,,,,,,,,,,,,,,,,,,,,,,,,,,,,,,,,,,,,,,,,,,,,,,,,,,,,,,,,,,,,,,,,,
,,,,,,60c07e5182bf1353056371f6,62c53a1958c7705bdcbb4b34,2022-07-06_09h31.20.614,Colour_Asymmetry_Pilot,2022.1.3,Win32,59.59475566,62c50e9c1127f2cd403a315f,0,25,25,1,1,onethree,,,,,,,,,,,,,,,,,,,,,,,,,,,,,,,,,,,,,,,,,,,,,,,,,,,,,,,,,,,,,,,,,,,,,,,,,,,,,,,,,,,,,,,,,,,,,,,,,,,,,,,,,,,,,,,,,,,,,,,,,,,,,,,,,,,,,,,,,,,,,,,,,,,,,,,,,,,,,
,,,,,,60c07e5182bf1353056371f6,62c53a1958c7705bdcbb4b34,2022-07-06_09h31.20.614,Colour_Asymmetry_Pilot,2022.1.3,Win32,59.59475566,62c50e9c1127f2cd403a315f,0,26,26,131,1,twofour,,,,,,,,,,,,,,,,,,,,,,,,,,,,,,,,,,,,,,,,,,,,,,,,,,,,,,,,,,,,,,,,,,,,,,,,,,,,,,,,,,,,,,,,,,,,,,,,,,,,,,,,,,,,,,,,,,,,,,,,,,,,,,,,,,,,,,,,,,,,,,,,,,,,,,,,,,,,,
,,,,,,60c07e5182bf1353056371f6,62c53a1958c7705bdcbb4b34,2022-07-06_09h31.20.614,Colour_Asymmetry_Pilot,2022.1.3,Win32,59.59475566,62c50e9c1127f2cd403a315f,0,27,27,67,1,twofour,,,,,,,,,,,,,,,,,,,,,,,,,,,,,,,,,,,,,,,,,,,,,,,,,,,,,,,,,,,,,,,,,,,,,,,,,,,,,,,,,,,,,,,,,,,,,,,,,,,,,,,,,,,,,,,,,,,,,,,,,,,,,,,,,,,,,,,,,,,,,,,,,,,,,,,,,,,,,
,,,,,,60c07e5182bf1353056371f6,62c53a1958c7705bdcbb4b34,2022-07-06_09h31.20.614,Colour_Asymmetry_Pilot,2022.1.3,Win32,59.59475566,62c50e9c1127f2cd403a315f,0,28,28,87,1,fourthree,,,,,,,,,,,,,,,,,,,,,,,,,,,,,,,,,,,,,,,,,,,,,,,,,,,,,,,,,,,,,,,,,,,,,,,,,,,,,,,,,,,,,,,,,,,,,,,,,,,,,,,,,,,,,,,,,,,,,,,,,,,,,,,,,,,,,,,,,,,,,,,,,,,,,,,,,,,,,
,,,,,,60c07e5182bf1353056371f6,62c53a1958c7705bdcbb4b34,2022-07-06_09h31.20.614,Colour_Asymmetry_Pilot,2022.1.3,Win32,59.59475566,62c50e9c1127f2cd403a315f,0,29,29,146,1,twoone,,,,,,,,,,,,,,,,,,,,,,,,,,,,,,,,,,,,,,,,,,,,,,,,,,,,,,,,,,,,,,,,,,,,,,,,,,,,,,,,,,,,,,,,,,,,,,,,,,,,,,,,,,,,,,,,,,,,,,,,,,,,,,,,,,,,,,,,,,,,,,,,,,,,,,,,,,,,,
,,,,,,60c07e5182bf1353056371f6,62c53a1958c7705bdcbb4b34,2022-07-06_09h31.20.614,Colour_Asymmetry_Pilot,2022.1.3,Win32,59.59475566,62c50e9c1127f2cd403a315f,0,30,30,66,1,twoone,,,,,,,,,,,,,,,,,,,,,,,,,,,,,,,,,,,,,,,,,,,,,,,,,,,,,,,,,,,,,,,,,,,,,,,,,,,,,,,,,,,,,,,,,,,,,,,,,,,,,,,,,,,,,,,,,,,,,,,,,,,,,,,,,,,,,,,,,,,,,,,,,,,,,,,,,,,,,
,,,,,,60c07e5182bf1353056371f6,62c53a1958c7705bdcbb4b34,2022-07-06_09h31.20.614,Colour_Asymmetry_Pilot,2022.1.3,Win32,59.59475566,62c50e9c1127f2cd403a315f,0,31,31,63,1,fourthree,,,,,,,,,,,,,,,,,,,,,,,,,,,,,,,,,,,,,,,,,,,,,,,,,,,,,,,,,,,,,,,,,,,,,,,,,,,,,,,,,,,,,,,,,,,,,,,,,,,,,,,,,,,,,,,,,,,,,,,,,,,,,,,,,,,,,,,,,,,,,,,,,,,,,,,,,,,,,
,,,,,,60c07e5182bf1353056371f6,62c53a1958c7705bdcbb4b34,2022-07-06_09h31.20.614,Colour_Asymmetry_Pilot,2022.1.3,Win32,59.59475566,62c50e9c1127f2cd403a315f,0,32,32,88,1,onetwo,,,,,,,,,,,,,,,,,,,,,,,,,,,,,,,,,,,,,,,,,,,,,,,,,,,,,,,,,,,,,,,,,,,,,,,,,,,,,,,,,,,,,,,,,,,,,,,,,,,,,,,,,,,,,,,,,,,,,,,,,,,,,,,,,,,,,,,,,,,,,,,,,,,,,,,,,,,,,
,,,,,,60c07e5182bf1353056371f6,62c53a1958c7705bdcbb4b34,2022-07-06_09h31.20.614,Colour_Asymmetry_Pilot,2022.1.3,Win32,59.59475566,62c50e9c1127f2cd403a315f,0,33,33,140,1,threeone,,,,,,,,,,,,,,,,,,,,,,,,,,,,,,,,,,,,,,,,,,,,,,,,,,,,,,,,,,,,,,,,,,,,,,,,,,,,,,,,,,,,,,,,,,,,,,,,,,,,,,,,,,,,,,,,,,,,,,,,,,,,,,,,,,,,,,,,,,,,,,,,,,,,,,,,,,,,,
,,,,,,60c07e5182bf1353056371f6,62c53a1958c7705bdcbb4b34,2022-07-06_09h31.20.614,Colour_Asymmetry_Pilot,2022.1.3,Win32,59.59475566,62c50e9c1127f2cd403a315f,0,34,34,104,1,onetwo,,,,,,,,,,,,,,,,,,,,,,,,,,,,,,,,,,,,,,,,,,,,,,,,,,,,,,,,,,,,,,,,,,,,,,,,,,,,,,,,,,,,,,,,,,,,,,,,,,,,,,,,,,,,,,,,,,,,,,,,,,,,,,,,,,,,,,,,,,,,,,,,,,,,,,,,,,,,,
,,,,,,60c07e5182bf1353056371f6,62c53a1958c7705bdcbb4b34,2022-07-06_09h31.20.614,Colour_Asymmetry_Pilot,2022.1.3,Win32,59.59475566,62c50e9c1127f2cd403a315f,0,35,35,68,1,threeone,,,,,,,,,,,,,,,,,,,,,,,,,,,,,,,,,,,,,,,,,,,,,,,,,,,,,,,,,,,,,,,,,,,,,,,,,,,,,,,,,,,,,,,,,,,,,,,,,,,,,,,,,,,,,,,,,,,,,,,,,,,,,,,,,,,,,,,,,,,,,,,,,,,,,,,,,,,,,
,,,,,,60c07e5182bf1353056371f6,62c53a1958c7705bdcbb4b34,2022-07-06_09h31.20.614,Colour_Asymmetry_Pilot,2022.1.3,Win32,59.59475566,62c50e9c1127f2cd403a315f,0,36,36,15,1,fourthree,,,,,,,,,,,,,,,,,,,,,,,,,,,,,,,,,,,,,,,,,,,,,,,,,,,,,,,,,,,,,,,,,,,,,,,,,,,,,,,,,,,,,,,,,,,,,,,,,,,,,,,,,,,,,,,,,,,,,,,,,,,,,,,,,,,,,,,,,,,,,,,,,,,,,,,,,,,,,
,,,,,,60c07e5182bf1353056371f6,62c53a1958c7705bdcbb4b34,2022-07-06_09h31.20.614,Colour_Asymmetry_Pilot,2022.1.3,Win32,59.59475566,62c50e9c1127f2cd403a315f,0,37,37,8,1,onetwo,,,,,,,,,,,,,,,,,,,,,,,,,,,,,,,,,,,,,,,,,,,,,,,,,,,,,,,,,,,,,,,,,,,,,,,,,,,,,,,,,,,,,,,,,,,,,,,,,,,,,,,,,,,,,,,,,,,,,,,,,,,,,,,,,,,,,,,,,,,,,,,,,,,,,,,,,,,,,
,,,,,,60c07e5182bf1353056371f6,62c53a1958c7705bdcbb4b34,2022-07-06_09h31.20.614,Colour_Asymmetry_Pilot,2022.1.3,Win32,59.59475566,62c50e9c1127f2cd403a315f,0,38,38,101,1,threefour,,,,,,,,,,,,,,,,,,,,,,,,,,,,,,,,,,,,,,,,,,,,,,,,,,,,,,,,,,,,,,,,,,,,,,,,,,,,,,,,,,,,,,,,,,,,,,,,,,,,,,,,,,,,,,,,,,,,,,,,,,,,,,,,,,,,,,,,,,,,,,,,,,,,,,,,,,,,,
,,,,,,60c07e5182bf1353056371f6,62c53a1958c7705bdcbb4b34,2022-07-06_09h31.20.614,Colour_Asymmetry_Pilot,2022.1.3,Win32,59.59475566,62c50e9c1127f2cd403a315f,0,39,39,62,1,fourtwo,,,,,,,,,,,,,,,,,,,,,,,,,,,,,,,,,,,,,,,,,,,,,,,,,,,,,,,,,,,,,,,,,,,,,,,,,,,,,,,,,,,,,,,,,,,,,,,,,,,,,,,,,,,,,,,,,,,,,,,,,,,,,,,,,,,,,,,,,,,,,,,,,,,,,,,,,,,,,
,,,,,,60c07e5182bf1353056371f6,62c53a1958c7705bdcbb4b34,2022-07-06_09h31.20.614,Colour_Asymmetry_Pilot,2022.1.3,Win32,59.59475566,62c50e9c1127f2cd403a315f,0,40,40,51,1,twofour,,,,,,,,,,,,,,,,,,,,,,,,,,,,,,,,,,,,,,,,,,,,,,,,,,,,,,,,,,,,,,,,,,,,,,,,,,,,,,,,,,,,,,,,,,,,,,,,,,,,,,,,,,,,,,,,,,,,,,,,,,,,,,,,,,,,,,,,,,,,,,,,,,,,,,,,,,,,,
,,,,,,60c07e5182bf1353056371f6,62c53a1958c7705bdcbb4b34,2022-07-06_09h31.20.614,Colour_Asymmetry_Pilot,2022.1.3,Win32,59.59475566,62c50e9c1127f2cd403a315f,0,41,41,115,1,twofour,,,,,,,,,,,,,,,,,,,,,,,,,,,,,,,,,,,,,,,,,,,,,,,,,,,,,,,,,,,,,,,,,,,,,,,,,,,,,,,,,,,,,,,,,,,,,,,,,,,,,,,,,,,,,,,,,,,,,,,,,,,,,,,,,,,,,,,,,,,,,,,,,,,,,,,,,,,,,
,,,,,,60c07e5182bf1353056371f6,62c53a1958c7705bdcbb4b34,2022-07-06_09h31.20.614,Colour_Asymmetry_Pilot,2022.1.3,Win32,59.59475566,62c50e9c1127f2cd403a315f,0,42,42,27,1,twofour,,,,,,,,,,,,,,,,,,,,,,,,,,,,,,,,,,,,,,,,,,,,,,,,,,,,,,,,,,,,,,,,,,,,,,,,,,,,,,,,,,,,,,,,,,,,,,,,,,,,,,,,,,,,,,,,,,,,,,,,,,,,,,,,,,,,,,,,,,,,,,,,,,,,,,,,,,,,,
,,,,,,60c07e5182bf1353056371f6,62c53a1958c7705bdcbb4b34,2022-07-06_09h31.20.614,Colour_Asymmetry_Pilot,2022.1.3,Win32,59.59475566,62c50e9c1127f2cd403a315f,0,43,43,149,1,threefour,,,,,,,,,,,,,,,,,,,,,,,,,,,,,,,,,,,,,,,,,,,,,,,,,,,,,,,,,,,,,,,,,,,,,,,,,,,,,,,,,,,,,,,,,,,,,,,,,,,,,,,,,,,,,,,,,,,,,,,,,,,,,,,,,,,,,,,,,,,,,,,,,,,,,,,,,,,,,
,,,,,,60c07e5182bf1353056371f6,62c53a1958c7705bdcbb4b34,2022-07-06_09h31.20.614,Colour_Asymmetry_Pilot,2022.1.3,Win32,59.59475566,62c50e9c1127f2cd403a315f,0,44,44,44,1,threeone,,,,,,,,,,,,,,,,,,,,,,,,,,,,,,,,,,,,,,,,,,,,,,,,,,,,,,,,,,,,,,,,,,,,,,,,,,,,,,,,,,,,,,,,,,,,,,,,,,,,,,,,,,,,,,,,,,,,,,,,,,,,,,,,,,,,,,,,,,,,,,,,,,,,,,,,,,,,,
,,,,,,60c07e5182bf1353056371f6,62c53a1958c7705bdcbb4b34,2022-07-06_09h31.20.614,Colour_Asymmetry_Pilot,2022.1.3,Win32,59.59475566,62c50e9c1127f2cd403a315f,0,45,45,54,1,fourtwo,,,,,,,,,,,,,,,,,,,,,,,,,,,,,,,,,,,,,,,,,,,,,,,,,,,,,,,,,,,,,,,,,,,,,,,,,,,,,,,,,,,,,,,,,,,,,,,,,,,,,,,,,,,,,,,,,,,,,,,,,,,,,,,,,,,,,,,,,,,,,,,,,,,,,,,,,,,,,
,,,,,,60c07e5182bf1353056371f6,62c53a1958c7705bdcbb4b34,2022-07-06_09h31.20.614,Colour_Asymmetry_Pilot,2022.1.3,Win32,59.59475566,62c50e9c1127f2cd403a315f,0,46,46,108,1,threeone,,,,,,,,,,,,,,,,,,,,,,,,,,,,,,,,,,,,,,,,,,,,,,,,,,,,,,,,,,,,,,,,,,,,,,,,,,,,,,,,,,,,,,,,,,,,,,,,,,,,,,,,,,,,,,,,,,,,,,,,,,,,,,,,,,,,,,,,,,,,,,,,,,,,,,,,,,,,,
,,,,,,60c07e5182bf1353056371f6,62c53a1958c7705bdcbb4b34,2022-07-06_09h31.20.614,Colour_Asymmetry_Pilot,2022.1.3,Win32,59.59475566,62c50e9c1127f2cd403a315f,0,47,47,116,1,threeone,,,,,,,,,,,,,,,,,,,,,,,,,,,,,,,,,,,,,,,,,,,,,,,,,,,,,,,,,,,,,,,,,,,,,,,,,,,,,,,,,,,,,,,,,,,,,,,,,,,,,,,,,,,,,,,,,,,,,,,,,,,,,,,,,,,,,,,,,,,,,,,,,,,,,,,,,,,,,
,,,,,,60c07e5182bf1353056371f6,62c53a1958c7705bdcbb4b34,2022-07-06_09h31.20.614,Colour_Asymmetry_Pilot,2022.1.3,Win32,59.59475566,62c50e9c1127f2cd403a315f,0,48,48,70,1,fourtwo,,,,,,,,,,,,,,,,,,,,,,,,,,,,,,,,,,,,,,,,,,,,,,,,,,,,,,,,,,,,,,,,,,,,,,,,,,,,,,,,,,,,,,,,,,,,,,,,,,,,,,,,,,,,,,,,,,,,,,,,,,,,,,,,,,,,,,,,,,,,,,,,,,,,,,,,,,,,,
,,,,,,60c07e5182bf1353056371f6,62c53a1958c7705bdcbb4b34,2022-07-06_09h31.20.614,Colour_Asymmetry_Pilot,2022.1.3,Win32,59.59475566,62c50e9c1127f2cd403a315f,0,49,49,14,1,fourtwo,,,,,,,,,,,,,,,,,,,,,,,,,,,,,,,,,,,,,,,,,,,,,,,,,,,,,,,,,,,,,,,,,,,,,,,,,,,,,,,,,,,,,,,,,,,,,,,,,,,,,,,,,,,,,,,,,,,,,,,,,,,,,,,,,,,,,,,,,,,,,,,,,,,,,,,,,,,,,
,,,,,,60c07e5182bf1353056371f6,62c53a1958c7705bdcbb4b34,2022-07-06_09h31.20.614,Colour_Asymmetry_Pilot,2022.1.3,Win32,59.59475566,62c50e9c1127f2cd403a315f,0,50,50,83,1,twofour,,,,,,,,,,,,,,,,,,,,,,,,,,,,,,,,,,,,,,,,,,,,,,,,,,,,,,,,,,,,,,,,,,,,,,,,,,,,,,,,,,,,,,,,,,,,,,,,,,,,,,,,,,,,,,,,,,,,,,,,,,,,,,,,,,,,,,,,,,,,,,,,,,,,,,,,,,,,,
,,,,,,60c07e5182bf1353056371f6,62c53a1958c7705bdcbb4b34,2022-07-06_09h31.20.614,Colour_Asymmetry_Pilot,2022.1.3,Win32,59.59475566,62c50e9c1127f2cd403a315f,0,51,51,145,1,onethree,,,,,,,,,,,,,,,,,,,,,,,,,,,,,,,,,,,,,,,,,,,,,,,,,,,,,,,,,,,,,,,,,,,,,,,,,,,,,,,,,,,,,,,,,,,,,,,,,,,,,,,,,,,,,,,,,,,,,,,,,,,,,,,,,,,,,,,,,,,,,,,,,,,,,,,,,,,,,
,,,,,,60c07e5182bf1353056371f6,62c53a1958c7705bdcbb4b34,2022-07-06_09h31.20.614,Colour_Asymmetry_Pilot,2022.1.3,Win32,59.59475566,62c50e9c1127f2cd403a315f,0,52,52,31,1,fourthree,,,,,,,,,,,,,,,,,,,,,,,,,,,,,,,,,,,,,,,,,,,,,,,,,,,,,,,,,,,,,,,,,,,,,,,,,,,,,,,,,,,,,,,,,,,,,,,,,,,,,,,,,,,,,,,,,,,,,,,,,,,,,,,,,,,,,,,,,,,,,,,,,,,,,,,,,,,,,
,,,,,,60c07e5182bf1353056371f6,62c53a1958c7705bdcbb4b34,2022-07-06_09h31.20.614,Colour_Asymmetry_Pilot,2022.1.3,Win32,59.59475566,62c50e9c1127f2cd403a315f,0,53,53,9,1,onethree,,,,,,,,,,,,,,,,,,,,,,,,,,,,,,,,,,,,,,,,,,,,,,,,,,,,,,,,,,,,,,,,,,,,,,,,,,,,,,,,,,,,,,,,,,,,,,,,,,,,,,,,,,,,,,,,,,,,,,,,,,,,,,,,,,,,,,,,,,,,,,,,,,,,,,,,,,,,,
,,,,,,60c07e5182bf1353056371f6,62c53a1958c7705bdcbb4b34,2022-07-06_09h31.20.614,Colour_Asymmetry_Pilot,2022.1.3,Win32,59.59475566,62c50e9c1127f2cd403a315f,0,54,54,141,1,threefour,,,,,,,,,,,,,,,,,,,,,,,,,,,,,,,,,,,,,,,,,,,,,,,,,,,,,,,,,,,,,,,,,,,,,,,,,,,,,,,,,,,,,,,,,,,,,,,,,,,,,,,,,,,,,,,,,,,,,,,,,,,,,,,,,,,,,,,,,,,,,,,,,,,,,,,,,,,,,
,,,,,,60c07e5182bf1353056371f6,62c53a1958c7705bdcbb4b34,2022-07-06_09h31.20.614,Colour_Asymmetry_Pilot,2022.1.3,Win32,59.59475566,62c50e9c1127f2cd403a315f,0,55,55,85,1,threefour,,,,,,,,,,,,,,,,,,,,,,,,,,,,,,,,,,,,,,,,,,,,,,,,,,,,,,,,,,,,,,,,,,,,,,,,,,,,,,,,,,,,,,,,,,,,,,,,,,,,,,,,,,,,,,,,,,,,,,,,,,,,,,,,,,,,,,,,,,,,,,,,,,,,,,,,,,,,,
,,,,,,60c07e5182bf1353056371f6,62c53a1958c7705bdcbb4b34,2022-07-06_09h31.20.614,Colour_Asymmetry_Pilot,2022.1.3,Win32,59.59475566,62c50e9c1127f2cd403a315f,0,56,56,71,1,fourthree,,,,,,,,,,,,,,,,,,,,,,,,,,,,,,,,,,,,,,,,,,,,,,,,,,,,,,,,,,,,,,,,,,,,,,,,,,,,,,,,,,,,,,,,,,,,,,,,,,,,,,,,,,,,,,,,,,,,,,,,,,,,,,,,,,,,,,,,,,,,,,,,,,,,,,,,,,,,,
,,,,,,60c07e5182bf1353056371f6,62c53a1958c7705bdcbb4b34,2022-07-06_09h31.20.614,Colour_Asymmetry_Pilot,2022.1.3,Win32,59.59475566,62c50e9c1127f2cd403a315f,0,57,57,16,1,onetwo,,,,,,,,,,,,,,,,,,,,,,,,,,,,,,,,,,,,,,,,,,,,,,,,,,,,,,,,,,,,,,,,,,,,,,,,,,,,,,,,,,,,,,,,,,,,,,,,,,,,,,,,,,,,,,,,,,,,,,,,,,,,,,,,,,,,,,,,,,,,,,,,,,,,,,,,,,,,,
,,,,,,60c07e5182bf1353056371f6,62c53a1958c7705bdcbb4b34,2022-07-06_09h31.20.614,Colour_Asymmetry_Pilot,2022.1.3,Win32,59.59475566,62c50e9c1127f2cd403a315f,0,58,58,5,1,threefour,,,,,,,,,,,,,,,,,,,,,,,,,,,,,,,,,,,,,,,,,,,,,,,,,,,,,,,,,,,,,,,,,,,,,,,,,,,,,,,,,,,,,,,,,,,,,,,,,,,,,,,,,,,,,,,,,,,,,,,,,,,,,,,,,,,,,,,,,,,,,,,,,,,,,,,,,,,,,
,,,,,,60c07e5182bf1353056371f6,62c53a1958c7705bdcbb4b34,2022-07-06_09h31.20.614,Colour_Asymmetry_Pilot,2022.1.3,Win32,59.59475566,62c50e9c1127f2cd403a315f,0,59,59,50,1,twoone,,,,,,,,,,,,,,,,,,,,,,,,,,,,,,,,,,,,,,,,,,,,,,,,,,,,,,,,,,,,,,,,,,,,,,,,,,,,,,,,,,,,,,,,,,,,,,,,,,,,,,,,,,,,,,,,,,,,,,,,,,,,,,,,,,,,,,,,,,,,,,,,,,,,,,,,,,,,,
,,,,,,60c07e5182bf1353056371f6,62c53a1958c7705bdcbb4b34,2022-07-06_09h31.20.614,Colour_Asymmetry_Pilot,2022.1.3,Win32,59.59475566,62c50e9c1127f2cd403a315f,0,60,60,128,1,onetwo,,,,,,,,,,,,,,,,,,,,,,,,,,,,,,,,,,,,,,,,,,,,,,,,,,,,,,,,,,,,,,,,,,,,,,,,,,,,,,,,,,,,,,,,,,,,,,,,,,,,,,,,,,,,,,,,,,,,,,,,,,,,,,,,,,,,,,,,,,,,,,,,,,,,,,,,,,,,,
,,,,,,60c07e5182bf1353056371f6,62c53a1958c7705bdcbb4b34,2022-07-06_09h31.20.614,Colour_Asymmetry_Pilot,2022.1.3,Win32,59.59475566,62c50e9c1127f2cd403a315f,0,61,61,80,1,onetwo,,,,,,,,,,,,,,,,,,,,,,,,,,,,,,,,,,,,,,,,,,,,,,,,,,,,,,,,,,,,,,,,,,,,,,,,,,,,,,,,,,,,,,,,,,,,,,,,,,,,,,,,,,,,,,,,,,,,,,,,,,,,,,,,,,,,,,,,,,,,,,,,,,,,,,,,,,,,,
,,,,,,60c07e5182bf1353056371f6,62c53a1958c7705bdcbb4b34,2022-07-06_09h31.20.614,Colour_Asymmetry_Pilot,2022.1.3,Win32,59.59475566,62c50e9c1127f2cd403a315f,0,62,62,36,1,threeone,,,,,,,,,,,,,,,,,,,,,,,,,,,,,,,,,,,,,,,,,,,,,,,,,,,,,,,,,,,,,,,,,,,,,,,,,,,,,,,,,,,,,,,,,,,,,,,,,,,,,,,,,,,,,,,,,,,,,,,,,,,,,,,,,,,,,,,,,,,,,,,,,,,,,,,,,,,,,
,,,,,,60c07e5182bf1353056371f6,62c53a1958c7705bdcbb4b34,2022-07-06_09h31.20.614,Colour_Asymmetry_Pilot,2022.1.3,Win32,59.59475566,62c50e9c1127f2cd403a315f,0,63,63,57,1,onethree,,,,,,,,,,,,,,,,,,,,,,,,,,,,,,,,,,,,,,,,,,,,,,,,,,,,,,,,,,,,,,,,,,,,,,,,,,,,,,,,,,,,,,,,,,,,,,,,,,,,,,,,,,,,,,,,,,,,,,,,,,,,,,,,,,,,,,,,,,,,,,,,,,,,,,,,,,,,,
,,,,,,60c07e5182bf1353056371f6,62c53a1958c7705bdcbb4b34,2022-07-06_09h31.20.614,Colour_Asymmetry_Pilot,2022.1.3,Win32,59.59475566,62c50e9c1127f2cd403a315f,0,64,64,150,1,fourtwo,,,,,,,,,,,,,,,,,,,,,,,,,,,,,,,,,,,,,,,,,,,,,,,,,,,,,,,,,,,,,,,,,,,,,,,,,,,,,,,,,,,,,,,,,,,,,,,,,,,,,,,,,,,,,,,,,,,,,,,,,,,,,,,,,,,,,,,,,,,,,,,,,,,,,,,,,,,,,
,,,,,,60c07e5182bf1353056371f6,62c53a1958c7705bdcbb4b34,2022-07-06_09h31.20.614,Colour_Asymmetry_Pilot,2022.1.3,Win32,59.59475566,62c50e9c1127f2cd403a315f,0,65,65,122,1,twoone,,,,,,,,,,,,,,,,,,,,,,,,,,,,,,,,,,,,,,,,,,,,,,,,,,,,,,,,,,,,,,,,,,,,,,,,,,,,,,,,,,,,,,,,,,,,,,,,,,,,,,,,,,,,,,,,,,,,,,,,,,,,,,,,,,,,,,,,,,,,,,,,,,,,,,,,,,,,,
,,,,,,60c07e5182bf1353056371f6,62c53a1958c7705bdcbb4b34,2022-07-06_09h31.20.614,Colour_Asymmetry_Pilot,2022.1.3,Win32,59.59475566,62c50e9c1127f2cd403a315f,0,66,66,129,1,onethree,,,,,,,,,,,,,,,,,,,,,,,,,,,,,,,,,,,,,,,,,,,,,,,,,,,,,,,,,,,,,,,,,,,,,,,,,,,,,,,,,,,,,,,,,,,,,,,,,,,,,,,,,,,,,,,,,,,,,,,,,,,,,,,,,,,,,,,,,,,,,,,,,,,,,,,,,,,,,
,,,,,,60c07e5182bf1353056371f6,62c53a1958c7705bdcbb4b34,2022-07-06_09h31.20.614,Colour_Asymmetry_Pilot,2022.1.3,Win32,59.59475566,62c50e9c1127f2cd403a315f,0,67,67,109,1,threefour,,,,,,,,,,,,,,,,,,,,,,,,,,,,,,,,,,,,,,,,,,,,,,,,,,,,,,,,,,,,,,,,,,,,,,,,,,,,,,,,,,,,,,,,,,,,,,,,,,,,,,,,,,,,,,,,,,,,,,,,,,,,,,,,,,,,,,,,,,,,,,,,,,,,,,,,,,,,,
,,,,,,60c07e5182bf1353056371f6,62c53a1958c7705bdcbb4b34,2022-07-06_09h31.20.614,Colour_Asymmetry_Pilot,2022.1.3,Win32,59.59475566,62c50e9c1127f2cd403a315f,0,68,68,32,1,onetwo,,,,,,,,,,,,,,,,,,,,,,,,,,,,,,,,,,,,,,,,,,,,,,,,,,,,,,,,,,,,,,,,,,,,,,,,,,,,,,,,,,,,,,,,,,,,,,,,,,,,,,,,,,,,,,,,,,,,,,,,,,,,,,,,,,,,,,,,,,,,,,,,,,,,,,,,,,,,,
,,,,,,60c07e5182bf1353056371f6,62c53a1958c7705bdcbb4b34,2022-07-06_09h31.20.614,Colour_Asymmetry_Pilot,2022.1.3,Win32,59.59475566,62c50e9c1127f2cd403a315f,0,69,69,135,1,fourthree,,,,,,,,,,,,,,,,,,,,,,,,,,,,,,,,,,,,,,,,,,,,,,,,,,,,,,,,,,,,,,,,,,,,,,,,,,,,,,,,,,,,,,,,,,,,,,,,,,,,,,,,,,,,,,,,,,,,,,,,,,,,,,,,,,,,,,,,,,,,,,,,,,,,,,,,,,,,,
,,,,,,60c07e5182bf1353056371f6,62c53a1958c7705bdcbb4b34,2022-07-06_09h31.20.614,Colour_Asymmetry_Pilot,2022.1.3,Win32,59.59475566,62c50e9c1127f2cd403a315f,0,70,70,10,1,twoone,,,,,,,,,,,,,,,,,,,,,,,,,,,,,,,,,,,,,,,,,,,,,,,,,,,,,,,,,,,,,,,,,,,,,,,,,,,,,,,,,,,,,,,,,,,,,,,,,,,,,,,,,,,,,,,,,,,,,,,,,,,,,,,,,,,,,,,,,,,,,,,,,,,,,,,,,,,,,
,,,,,,60c07e5182bf1353056371f6,62c53a1958c7705bdcbb4b34,2022-07-06_09h31.20.614,Colour_Asymmetry_Pilot,2022.1.3,Win32,59.59475566,62c50e9c1127f2cd403a315f,0,71,71,143,1,fourthree,,,,,,,,,,,,,,,,,,,,,,,,,,,,,,,,,,,,,,,,,,,,,,,,,,,,,,,,,,,,,,,,,,,,,,,,,,,,,,,,,,,,,,,,,,,,,,,,,,,,,,,,,,,,,,,,,,,,,,,,,,,,,,,,,,,,,,,,,,,,,,,,,,,,,,,,,,,,,
,,,,,,60c07e5182bf1353056371f6,62c53a1958c7705bdcbb4b34,2022-07-06_09h31.20.614,Colour_Asymmetry_Pilot,2022.1.3,Win32,59.59475566,62c50e9c1127f2cd403a315f,0,72,72,89,1,onethree,,,,,,,,,,,,,,,,,,,,,,,,,,,,,,,,,,,,,,,,,,,,,,,,,,,,,,,,,,,,,,,,,,,,,,,,,,,,,,,,,,,,,,,,,,,,,,,,,,,,,,,,,,,,,,,,,,,,,,,,,,,,,,,,,,,,,,,,,,,,,,,,,,,,,,,,,,,,,
,,,,,,60c07e5182bf1353056371f6,62c53a1958c7705bdcbb4b34,2022-07-06_09h31.20.614,Colour_Asymmetry_Pilot,2022.1.3,Win32,59.59475566,62c50e9c1127f2cd403a315f,0,73,73,105,1,onethree,,,,,,,,,,,,,,,,,,,,,,,,,,,,,,,,,,,,,,,,,,,,,,,,,,,,,,,,,,,,,,,,,,,,,,,,,,,,,,,,,,,,,,,,,,,,,,,,,,,,,,,,,,,,,,,,,,,,,,,,,,,,,,,,,,,,,,,,,,,,,,,,,,,,,,,,,,,,,
,,,,,,60c07e5182bf1353056371f6,62c53a1958c7705bdcbb4b34,2022-07-06_09h31.20.614,Colour_Asymmetry_Pilot,2022.1.3,Win32,59.59475566,62c50e9c1127f2cd403a315f,0,74,74,47,1,fourthree,,,,,,,,,,,,,,,,,,,,,,,,,,,,,,,,,,,,,,,,,,,,,,,,,,,,,,,,,,,,,,,,,,,,,,,,,,,,,,,,,,,,,,,,,,,,,,,,,,,,,,,,,,,,,,,,,,,,,,,,,,,,,,,,,,,,,,,,,,,,,,,,,,,,,,,,,,,,,
,,,,,,60c07e5182bf1353056371f6,62c53a1958c7705bdcbb4b34,2022-07-06_09h31.20.614,Colour_Asymmetry_Pilot,2022.1.3,Win32,59.59475566,62c50e9c1127f2cd403a315f,0,75,75,147,1,twofour,,,,,,,,,,,,,,,,,,,,,,,,,,,,,,,,,,,,,,,,,,,,,,,,,,,,,,,,,,,,,,,,,,,,,,,,,,,,,,,,,,,,,,,,,,,,,,,,,,,,,,,,,,,,,,,,,,,,,,,,,,,,,,,,,,,,,,,,,,,,,,,,,,,,,,,,,,,,,
,,,,,,60c07e5182bf1353056371f6,62c53a1958c7705bdcbb4b34,2022-07-06_09h31.20.614,Colour_Asymmetry_Pilot,2022.1.3,Win32,59.59475566,62c50e9c1127f2cd403a315f,0,76,76,25,1,onethree,,,,,,,,,,,,,,,,,,,,,,,,,,,,,,,,,,,,,,,,,,,,,,,,,,,,,,,,,,,,,,,,,,,,,,,,,,,,,,,,,,,,,,,,,,,,,,,,,,,,,,,,,,,,,,,,,,,,,,,,,,,,,,,,,,,,,,,,,,,,,,,,,,,,,,,,,,,,,
,,,,,,60c07e5182bf1353056371f6,62c53a1958c7705bdcbb4b34,2022-07-06_09h31.20.614,Colour_Asymmetry_Pilot,2022.1.3,Win32,59.59475566,62c50e9c1127f2cd403a315f,0,77,77,41,1,onethree,,,,,,,,,,,,,,,,,,,,,,,,,,,,,,,,,,,,,,,,,,,,,,,,,,,,,,,,,,,,,,,,,,,,,,,,,,,,,,,,,,,,,,,,,,,,,,,,,,,,,,,,,,,,,,,,,,,,,,,,,,,,,,,,,,,,,,,,,,,,,,,,,,,,,,,,,,,,,
,,,,,,60c07e5182bf1353056371f6,62c53a1958c7705bdcbb4b34,2022-07-06_09h31.20.614,Colour_Asymmetry_Pilot,2022.1.3,Win32,59.59475566,62c50e9c1127f2cd403a315f,0,78,78,65,1,onethree,,,,,,,,,,,,,,,,,,,,,,,,,,,,,,,,,,,,,,,,,,,,,,,,,,,,,,,,,,,,,,,,,,,,,,,,,,,,,,,,,,,,,,,,,,,,,,,,,,,,,,,,,,,,,,,,,,,,,,,,,,,,,,,,,,,,,,,,,,,,,,,,,,,,,,,,,,,,,
,,,,,,60c07e5182bf1353056371f6,62c53a1958c7705bdcbb4b34,2022-07-06_09h31.20.614,Colour_Asymmetry_Pilot,2022.1.3,Win32,59.59475566,62c50e9c1127f2cd403a315f,0,79,79,103,1,fourthree,,,,,,,,,,,,,,,,,,,,,,,,,,,,,,,,,,,,,,,,,,,,,,,,,,,,,,,,,,,,,,,,,,,,,,,,,,,,,,,,,,,,,,,,,,,,,,,,,,,,,,,,,,,,,,,,,,,,,,,,,,,,,,,,,,,,,,,,,,,,,,,,,,,,,,,,,,,,,
,,,,,,60c07e5182bf1353056371f6,62c53a1958c7705bdcbb4b34,2022-07-06_09h31.20.614,Colour_Asymmetry_Pilot,2022.1.3,Win32,59.59475566,62c50e9c1127f2cd403a315f,0,80,80,3,1,twofour,,,,,,,,,,,,,,,,,,,,,,,,,,,,,,,,,,,,,,,,,,,,,,,,,,,,,,,,,,,,,,,,,,,,,,,,,,,,,,,,,,,,,,,,,,,,,,,,,,,,,,,,,,,,,,,,,,,,,,,,,,,,,,,,,,,,,,,,,,,,,,,,,,,,,,,,,,,,,
,,,,,,60c07e5182bf1353056371f6,62c53a1958c7705bdcbb4b34,2022-07-06_09h31.20.614,Colour_Asymmetry_Pilot,2022.1.3,Win32,59.59475566,62c50e9c1127f2cd403a315f,0,81,81,46,1,fourtwo,,,,,,,,,,,,,,,,,,,,,,,,,,,,,,,,,,,,,,,,,,,,,,,,,,,,,,,,,,,,,,,,,,,,,,,,,,,,,,,,,,,,,,,,,,,,,,,,,,,,,,,,,,,,,,,,,,,,,,,,,,,,,,,,,,,,,,,,,,,,,,,,,,,,,,,,,,,,,
,,,,,,60c07e5182bf1353056371f6,62c53a1958c7705bdcbb4b34,2022-07-06_09h31.20.614,Colour_Asymmetry_Pilot,2022.1.3,Win32,59.59475566,62c50e9c1127f2cd403a315f,0,82,82,11,1,twofour,,,,,,,,,,,,,,,,,,,,,,,,,,,,,,,,,,,,,,,,,,,,,,,,,,,,,,,,,,,,,,,,,,,,,,,,,,,,,,,,,,,,,,,,,,,,,,,,,,,,,,,,,,,,,,,,,,,,,,,,,,,,,,,,,,,,,,,,,,,,,,,,,,,,,,,,,,,,,
,,,,,,60c07e5182bf1353056371f6,62c53a1958c7705bdcbb4b34,2022-07-06_09h31.20.614,Colour_Asymmetry_Pilot,2022.1.3,Win32,59.59475566,62c50e9c1127f2cd403a315f,0,83,83,120,1,onetwo,,,,,,,,,,,,,,,,,,,,,,,,,,,,,,,,,,,,,,,,,,,,,,,,,,,,,,,,,,,,,,,,,,,,,,,,,,,,,,,,,,,,,,,,,,,,,,,,,,,,,,,,,,,,,,,,,,,,,,,,,,,,,,,,,,,,,,,,,,,,,,,,,,,,,,,,,,,,,
,,,,,,60c07e5182bf1353056371f6,62c53a1958c7705bdcbb4b34,2022-07-06_09h31.20.614,Colour_Asymmetry_Pilot,2022.1.3,Win32,59.59475566,62c50e9c1127f2cd403a315f,0,84,84,124,1,threeone,,,,,,,,,,,,,,,,,,,,,,,,,,,,,,,,,,,,,,,,,,,,,,,,,,,,,,,,,,,,,,,,,,,,,,,,,,,,,,,,,,,,,,,,,,,,,,,,,,,,,,,,,,,,,,,,,,,,,,,,,,,,,,,,,,,,,,,,,,,,,,,,,,,,,,,,,,,,,
,,,,,,60c07e5182bf1353056371f6,62c53a1958c7705bdcbb4b34,2022-07-06_09h31.20.614,Colour_Asymmetry_Pilot,2022.1.3,Win32,59.59475566,62c50e9c1127f2cd403a315f,0,85,85,133,1,threefour,,,,,,,,,,,,,,,,,,,,,,,,,,,,,,,,,,,,,,,,,,,,,,,,,,,,,,,,,,,,,,,,,,,,,,,,,,,,,,,,,,,,,,,,,,,,,,,,,,,,,,,,,,,,,,,,,,,,,,,,,,,,,,,,,,,,,,,,,,,,,,,,,,,,,,,,,,,,,
,,,,,,60c07e5182bf1353056371f6,62c53a1958c7705bdcbb4b34,2022-07-06_09h31.20.614,Colour_Asymmetry_Pilot,2022.1.3,Win32,59.59475566,62c50e9c1127f2cd403a315f,0,86,86,142,1,fourtwo,,,,,,,,,,,,,,,,,,,,,,,,,,,,,,,,,,,,,,,,,,,,,,,,,,,,,,,,,,,,,,,,,,,,,,,,,,,,,,,,,,,,,,,,,,,,,,,,,,,,,,,,,,,,,,,,,,,,,,,,,,,,,,,,,,,,,,,,,,,,,,,,,,,,,,,,,,,,,
,,,,,,60c07e5182bf1353056371f6,62c53a1958c7705bdcbb4b34,2022-07-06_09h31.20.614,Colour_Asymmetry_Pilot,2022.1.3,Win32,59.59475566,62c50e9c1127f2cd403a315f,0,87,87,99,1,twofour,,,,,,,,,,,,,,,,,,,,,,,,,,,,,,,,,,,,,,,,,,,,,,,,,,,,,,,,,,,,,,,,,,,,,,,,,,,,,,,,,,,,,,,,,,,,,,,,,,,,,,,,,,,,,,,,,,,,,,,,,,,,,,,,,,,,,,,,,,,,,,,,,,,,,,,,,,,,,
,,,,,,60c07e5182bf1353056371f6,62c53a1958c7705bdcbb4b34,2022-07-06_09h31.20.614,Colour_Asymmetry_Pilot,2022.1.3,Win32,59.59475566,62c50e9c1127f2cd403a315f,0,88,88,148,1,threeone,,,,,,,,,,,,,,,,,,,,,,,,,,,,,,,,,,,,,,,,,,,,,,,,,,,,,,,,,,,,,,,,,,,,,,,,,,,,,,,,,,,,,,,,,,,,,,,,,,,,,,,,,,,,,,,,,,,,,,,,,,,,,,,,,,,,,,,,,,,,,,,,,,,,,,,,,,,,,
,,,,,,60c07e5182bf1353056371f6,62c53a1958c7705bdcbb4b34,2022-07-06_09h31.20.614,Colour_Asymmetry_Pilot,2022.1.3,Win32,59.59475566,62c50e9c1127f2cd403a315f,0,89,89,91,1,twofour,,,,,,,,,,,,,,,,,,,,,,,,,,,,,,,,,,,,,,,,,,,,,,,,,,,,,,,,,,,,,,,,,,,,,,,,,,,,,,,,,,,,,,,,,,,,,,,,,,,,,,,,,,,,,,,,,,,,,,,,,,,,,,,,,,,,,,,,,,,,,,,,,,,,,,,,,,,,,
,,,,,,60c07e5182bf1353056371f6,62c53a1958c7705bdcbb4b34,2022-07-06_09h31.20.614,Colour_Asymmetry_Pilot,2022.1.3,Win32,59.59475566,62c50e9c1127f2cd403a315f,0,90,90,160,1,onetwo,,,,,,,,,,,,,,,,,,,,,,,,,,,,,,,,,,,,,,,,,,,,,,,,,,,,,,,,,,,,,,,,,,,,,,,,,,,,,,,,,,,,,,,,,,,,,,,,,,,,,,,,,,,,,,,,,,,,,,,,,,,,,,,,,,,,,,,,,,,,,,,,,,,,,,,,,,,,,
,,,,,,60c07e5182bf1353056371f6,62c53a1958c7705bdcbb4b34,2022-07-06_09h31.20.614,Colour_Asymmetry_Pilot,2022.1.3,Win32,59.59475566,62c50e9c1127f2cd403a315f,0,91,91,2,1,twoone,,,,,,,,,,,,,,,,,,,,,,,,,,,,,,,,,,,,,,,,,,,,,,,,,,,,,,,,,,,,,,,,,,,,,,,,,,,,,,,,,,,,,,,,,,,,,,,,,,,,,,,,,,,,,,,,,,,,,,,,,,,,,,,,,,,,,,,,,,,,,,,,,,,,,,,,,,,,,
,,,,,,60c07e5182bf1353056371f6,62c53a1958c7705bdcbb4b34,2022-07-06_09h31.20.614,Colour_Asymmetry_Pilot,2022.1.3,Win32,59.59475566,62c50e9c1127f2cd403a315f,0,92,92,119,1,fourthree,,,,,,,,,,,,,,,,,,,,,,,,,,,,,,,,,,,,,,,,,,,,,,,,,,,,,,,,,,,,,,,,,,,,,,,,,,,,,,,,,,,,,,,,,,,,,,,,,,,,,,,,,,,,,,,,,,,,,,,,,,,,,,,,,,,,,,,,,,,,,,,,,,,,,,,,,,,,,
,,,,,,60c07e5182bf1353056371f6,62c53a1958c7705bdcbb4b34,2022-07-06_09h31.20.614,Colour_Asymmetry_Pilot,2022.1.3,Win32,59.59475566,62c50e9c1127f2cd403a315f,0,93,93,38,1,fourtwo,,,,,,,,,,,,,,,,,,,,,,,,,,,,,,,,,,,,,,,,,,,,,,,,,,,,,,,,,,,,,,,,,,,,,,,,,,,,,,,,,,,,,,,,,,,,,,,,,,,,,,,,,,,,,,,,,,,,,,,,,,,,,,,,,,,,,,,,,,,,,,,,,,,,,,,,,,,,,
,,,,,,60c07e5182bf1353056371f6,62c53a1958c7705bdcbb4b34,2022-07-06_09h31.20.614,Colour_Asymmetry_Pilot,2022.1.3,Win32,59.59475566,62c50e9c1127f2cd403a315f,0,94,94,26,1,twoone,,,,,,,,,,,,,,,,,,,,,,,,,,,,,,,,,,,,,,,,,,,,,,,,,,,,,,,,,,,,,,,,,,,,,,,,,,,,,,,,,,,,,,,,,,,,,,,,,,,,,,,,,,,,,,,,,,,,,,,,,,,,,,,,,,,,,,,,,,,,,,,,,,,,,,,,,,,,,
,,,,,,60c07e5182bf1353056371f6,62c53a1958c7705bdcbb4b34,2022-07-06_09h31.20.614,Colour_Asymmetry_Pilot,2022.1.3,Win32,59.59475566,62c50e9c1127f2cd403a315f,0,95,95,123,1,twofour,,,,,,,,,,,,,,,,,,,,,,,,,,,,,,,,,,,,,,,,,,,,,,,,,,,,,,,,,,,,,,,,,,,,,,,,,,,,,,,,,,,,,,,,,,,,,,,,,,,,,,,,,,,,,,,,,,,,,,,,,,,,,,,,,,,,,,,,,,,,,,,,,,,,,,,,,,,,,
,,,,,,60c07e5182bf1353056371f6,62c53a1958c7705bdcbb4b34,2022-07-06_09h31.20.614,Colour_Asymmetry_Pilot,2022.1.3,Win32,59.59475566,62c50e9c1127f2cd403a315f,0,96,96,138,1,twoone,,,,,,,,,,,,,,,,,,,,,,,,,,,,,,,,,,,,,,,,,,,,,,,,,,,,,,,,,,,,,,,,,,,,,,,,,,,,,,,,,,,,,,,,,,,,,,,,,,,,,,,,,,,,,,,,,,,,,,,,,,,,,,,,,,,,,,,,,,,,,,,,,,,,,,,,,,,,,
,,,,,,60c07e5182bf1353056371f6,62c53a1958c7705bdcbb4b34,2022-07-06_09h31.20.614,Colour_Asymmetry_Pilot,2022.1.3,Win32,59.59475566,62c50e9c1127f2cd403a315f,0,97,97,21,1,threefour,,,,,,,,,,,,,,,,,,,,,,,,,,,,,,,,,,,,,,,,,,,,,,,,,,,,,,,,,,,,,,,,,,,,,,,,,,,,,,,,,,,,,,,,,,,,,,,,,,,,,,,,,,,,,,,,,,,,,,,,,,,,,,,,,,,,,,,,,,,,,,,,,,,,,,,,,,,,,
,,,,,,60c07e5182bf1353056371f6,62c53a1958c7705bdcbb4b34,2022-07-06_09h31.20.614,Colour_Asymmetry_Pilot,2022.1.3,Win32,59.59475566,62c50e9c1127f2cd403a315f,0,98,98,61,1,threefour,,,,,,,,,,,,,,,,,,,,,,,,,,,,,,,,,,,,,,,,,,,,,,,,,,,,,,,,,,,,,,,,,,,,,,,,,,,,,,,,,,,,,,,,,,,,,,,,,,,,,,,,,,,,,,,,,,,,,,,,,,,,,,,,,,,,,,,,,,,,,,,,,,,,,,,,,,,,,
,,,,,,60c07e5182bf1353056371f6,62c53a1958c7705bdcbb4b34,2022-07-06_09h31.20.614,Colour_Asymmetry_Pilot,2022.1.3,Win32,59.59475566,62c50e9c1127f2cd403a315f,0,99,99,42,1,twoone,,,,,,,,,,,,,,,,,,,,,,,,,,,,,,,,,,,,,,,,,,,,,,,,,,,,,,,,,,,,,,,,,,,,,,,,,,,,,,,,,,,,,,,,,,,,,,,,,,,,,,,,,,,,,,,,,,,,,,,,,,,,,,,,,,,,,,,,,,,,,,,,,,,,,,,,,,,,,
,,,,,,60c07e5182bf1353056371f6,62c53a1958c7705bdcbb4b34,2022-07-06_09h31.20.614,Colour_Asymmetry_Pilot,2022.1.3,Win32,59.59475566,62c50e9c1127f2cd403a315f,0,100,100,17,1,onethree,,,,,,,,,,,,,,,,,,,,,,,,,,,,,,,,,,,,,,,,,,,,,,,,,,,,,,,,,,,,,,,,,,,,,,,,,,,,,,,,,,,,,,,,,,,,,,,,,,,,,,,,,,,,,,,,,,,,,,,,,,,,,,,,,,,,,,,,,,,,,,,,,,,,,,,,,,,,,
,,,,,,60c07e5182bf1353056371f6,62c53a1958c7705bdcbb4b34,2022-07-06_09h31.20.614,Colour_Asymmetry_Pilot,2022.1.3,Win32,59.59475566,62c50e9c1127f2cd403a315f,0,101,101,59,1,twofour,,,,,,,,,,,,,,,,,,,,,,,,,,,,,,,,,,,,,,,,,,,,,,,,,,,,,,,,,,,,,,,,,,,,,,,,,,,,,,,,,,,,,,,,,,,,,,,,,,,,,,,,,,,,,,,,,,,,,,,,,,,,,,,,,,,,,,,,,,,,,,,,,,,,,,,,,,,,,
,,,,,,60c07e5182bf1353056371f6,62c53a1958c7705bdcbb4b34,2022-07-06_09h31.20.614,Colour_Asymmetry_Pilot,2022.1.3,Win32,59.59475566,62c50e9c1127f2cd403a315f,0,102,102,86,1,fourtwo,,,,,,,,,,,,,,,,,,,,,,,,,,,,,,,,,,,,,,,,,,,,,,,,,,,,,,,,,,,,,,,,,,,,,,,,,,,,,,,,,,,,,,,,,,,,,,,,,,,,,,,,,,,,,,,,,,,,,,,,,,,,,,,,,,,,,,,,,,,,,,,,,,,,,,,,,,,,,
,,,,,,60c07e5182bf1353056371f6,62c53a1958c7705bdcbb4b34,2022-07-06_09h31.20.614,Colour_Asymmetry_Pilot,2022.1.3,Win32,59.59475566,62c50e9c1127f2cd403a315f,0,103,103,134,1,fourtwo,,,,,,,,,,,,,,,,,,,,,,,,,,,,,,,,,,,,,,,,,,,,,,,,,,,,,,,,,,,,,,,,,,,,,,,,,,,,,,,,,,,,,,,,,,,,,,,,,,,,,,,,,,,,,,,,,,,,,,,,,,,,,,,,,,,,,,,,,,,,,,,,,,,,,,,,,,,,,
,,,,,,60c07e5182bf1353056371f6,62c53a1958c7705bdcbb4b34,2022-07-06_09h31.20.614,Colour_Asymmetry_Pilot,2022.1.3,Win32,59.59475566,62c50e9c1127f2cd403a315f,0,104,104,79,1,fourthree,,,,,,,,,,,,,,,,,,,,,,,,,,,,,,,,,,,,,,,,,,,,,,,,,,,,,,,,,,,,,,,,,,,,,,,,,,,,,,,,,,,,,,,,,,,,,,,,,,,,,,,,,,,,,,,,,,,,,,,,,,,,,,,,,,,,,,,,,,,,,,,,,,,,,,,,,,,,,
,,,,,,60c07e5182bf1353056371f6,62c53a1958c7705bdcbb4b34,2022-07-06_09h31.20.614,Colour_Asymmetry_Pilot,2022.1.3,Win32,59.59475566,62c50e9c1127f2cd403a315f,0,105,105,60,1,threeone,,,,,,,,,,,,,,,,,,,,,,,,,,,,,,,,,,,,,,,,,,,,,,,,,,,,,,,,,,,,,,,,,,,,,,,,,,,,,,,,,,,,,,,,,,,,,,,,,,,,,,,,,,,,,,,,,,,,,,,,,,,,,,,,,,,,,,,,,,,,,,,,,,,,,,,,,,,,,
,,,,,,60c07e5182bf1353056371f6,62c53a1958c7705bdcbb4b34,2022-07-06_09h31.20.614,Colour_Asymmetry_Pilot,2022.1.3,Win32,59.59475566,62c50e9c1127f2cd403a315f,0,106,106,13,1,threefour,,,,,,,,,,,,,,,,,,,,,,,,,,,,,,,,,,,,,,,,,,,,,,,,,,,,,,,,,,,,,,,,,,,,,,,,,,,,,,,,,,,,,,,,,,,,,,,,,,,,,,,,,,,,,,,,,,,,,,,,,,,,,,,,,,,,,,,,,,,,,,,,,,,,,,,,,,,,,
,,,,,,60c07e5182bf1353056371f6,62c53a1958c7705bdcbb4b34,2022-07-06_09h31.20.614,Colour_Asymmetry_Pilot,2022.1.3,Win32,59.59475566,62c50e9c1127f2cd403a315f,0,107,107,118,1,fourtwo,,,,,,,,,,,,,,,,,,,,,,,,,,,,,,,,,,,,,,,,,,,,,,,,,,,,,,,,,,,,,,,,,,,,,,,,,,,,,,,,,,,,,,,,,,,,,,,,,,,,,,,,,,,,,,,,,,,,,,,,,,,,,,,,,,,,,,,,,,,,,,,,,,,,,,,,,,,,,
,,,,,,60c07e5182bf1353056371f6,62c53a1958c7705bdcbb4b34,2022-07-06_09h31.20.614,Colour_Asymmetry_Pilot,2022.1.3,Win32,59.59475566,62c50e9c1127f2cd403a315f,0,108,108,159,1,fourthree,,,,,,,,,,,,,,,,,,,,,,,,,,,,,,,,,,,,,,,,,,,,,,,,,,,,,,,,,,,,,,,,,,,,,,,,,,,,,,,,,,,,,,,,,,,,,,,,,,,,,,,,,,,,,,,,,,,,,,,,,,,,,,,,,,,,,,,,,,,,,,,,,,,,,,,,,,,,,
,,,,,,60c07e5182bf1353056371f6,62c53a1958c7705bdcbb4b34,2022-07-06_09h31.20.614,Colour_Asymmetry_Pilot,2022.1.3,Win32,59.59475566,62c50e9c1127f2cd403a315f,0,109,109,24,1,onetwo,,,,,,,,,,,,,,,,,,,,,,,,,,,,,,,,,,,,,,,,,,,,,,,,,,,,,,,,,,,,,,,,,,,,,,,,,,,,,,,,,,,,,,,,,,,,,,,,,,,,,,,,,,,,,,,,,,,,,,,,,,,,,,,,,,,,,,,,,,,,,,,,,,,,,,,,,,,,,
,,,,,,60c07e5182bf1353056371f6,62c53a1958c7705bdcbb4b34,2022-07-06_09h31.20.614,Colour_Asymmetry_Pilot,2022.1.3,Win32,59.59475566,62c50e9c1127f2cd403a315f,0,110,110,81,1,onethree,,,,,,,,,,,,,,,,,,,,,,,,,,,,,,,,,,,,,,,,,,,,,,,,,,,,,,,,,,,,,,,,,,,,,,,,,,,,,,,,,,,,,,,,,,,,,,,,,,,,,,,,,,,,,,,,,,,,,,,,,,,,,,,,,,,,,,,,,,,,,,,,,,,,,,,,,,,,,
,,,,,,60c07e5182bf1353056371f6,62c53a1958c7705bdcbb4b34,2022-07-06_09h31.20.614,Colour_Asymmetry_Pilot,2022.1.3,Win32,59.59475566,62c50e9c1127f2cd403a315f,0,111,111,102,1,fourtwo,,,,,,,,,,,,,,,,,,,,,,,,,,,,,,,,,,,,,,,,,,,,,,,,,,,,,,,,,,,,,,,,,,,,,,,,,,,,,,,,,,,,,,,,,,,,,,,,,,,,,,,,,,,,,,,,,,,,,,,,,,,,,,,,,,,,,,,,,,,,,,,,,,,,,,,,,,,,,
,,,,,,60c07e5182bf1353056371f6,62c53a1958c7705bdcbb4b34,2022-07-06_09h31.20.614,Colour_Asymmetry_Pilot,2022.1.3,Win32,59.59475566,62c50e9c1127f2cd403a315f,0,112,112,74,1,twoone,,,,,,,,,,,,,,,,,,,,,,,,,,,,,,,,,,,,,,,,,,,,,,,,,,,,,,,,,,,,,,,,,,,,,,,,,,,,,,,,,,,,,,,,,,,,,,,,,,,,,,,,,,,,,,,,,,,,,,,,,,,,,,,,,,,,,,,,,,,,,,,,,,,,,,,,,,,,,
,,,,,,60c07e5182bf1353056371f6,62c53a1958c7705bdcbb4b34,2022-07-06_09h31.20.614,Colour_Asymmetry_Pilot,2022.1.3,Win32,59.59475566,62c50e9c1127f2cd403a315f,0,113,113,158,1,fourtwo,,,,,,,,,,,,,,,,,,,,,,,,,,,,,,,,,,,,,,,,,,,,,,,,,,,,,,,,,,,,,,,,,,,,,,,,,,,,,,,,,,,,,,,,,,,,,,,,,,,,,,,,,,,,,,,,,,,,,,,,,,,,,,,,,,,,,,,,,,,,,,,,,,,,,,,,,,,,,
,,,,,,60c07e5182bf1353056371f6,62c53a1958c7705bdcbb4b34,2022-07-06_09h31.20.614,Colour_Asymmetry_Pilot,2022.1.3,Win32,59.59475566,62c50e9c1127f2cd403a315f,0,114,114,33,1,onethree,,,,,,,,,,,,,,,,,,,,,,,,,,,,,,,,,,,,,,,,,,,,,,,,,,,,,,,,,,,,,,,,,,,,,,,,,,,,,,,,,,,,,,,,,,,,,,,,,,,,,,,,,,,,,,,,,,,,,,,,,,,,,,,,,,,,,,,,,,,,,,,,,,,,,,,,,,,,,
,,,,,,60c07e5182bf1353056371f6,62c53a1958c7705bdcbb4b34,2022-07-06_09h31.20.614,Colour_Asymmetry_Pilot,2022.1.3,Win32,59.59475566,62c50e9c1127f2cd403a315f,0,115,115,37,1,threefour,,,,,,,,,,,,,,,,,,,,,,,,,,,,,,,,,,,,,,,,,,,,,,,,,,,,,,,,,,,,,,,,,,,,,,,,,,,,,,,,,,,,,,,,,,,,,,,,,,,,,,,,,,,,,,,,,,,,,,,,,,,,,,,,,,,,,,,,,,,,,,,,,,,,,,,,,,,,,
,,,,,,60c07e5182bf1353056371f6,62c53a1958c7705bdcbb4b34,2022-07-06_09h31.20.614,Colour_Asymmetry_Pilot,2022.1.3,Win32,59.59475566,62c50e9c1127f2cd403a315f,0,116,116,144,1,onetwo,,,,,,,,,,,,,,,,,,,,,,,,,,,,,,,,,,,,,,,,,,,,,,,,,,,,,,,,,,,,,,,,,,,,,,,,,,,,,,,,,,,,,,,,,,,,,,,,,,,,,,,,,,,,,,,,,,,,,,,,,,,,,,,,,,,,,,,,,,,,,,,,,,,,,,,,,,,,,
,,,,,,60c07e5182bf1353056371f6,62c53a1958c7705bdcbb4b34,2022-07-06_09h31.20.614,Colour_Asymmetry_Pilot,2022.1.3,Win32,59.59475566,62c50e9c1127f2cd403a315f,0,117,117,35,1,twofour,,,,,,,,,,,,,,,,,,,,,,,,,,,,,,,,,,,,,,,,,,,,,,,,,,,,,,,,,,,,,,,,,,,,,,,,,,,,,,,,,,,,,,,,,,,,,,,,,,,,,,,,,,,,,,,,,,,,,,,,,,,,,,,,,,,,,,,,,,,,,,,,,,,,,,,,,,,,,
,,,,,,60c07e5182bf1353056371f6,62c53a1958c7705bdcbb4b34,2022-07-06_09h31.20.614,Colour_Asymmetry_Pilot,2022.1.3,Win32,59.59475566,62c50e9c1127f2cd403a315f,0,118,118,58,1,twoone,,,,,,,,,,,,,,,,,,,,,,,,,,,,,,,,,,,,,,,,,,,,,,,,,,,,,,,,,,,,,,,,,,,,,,,,,,,,,,,,,,,,,,,,,,,,,,,,,,,,,,,,,,,,,,,,,,,,,,,,,,,,,,,,,,,,,,,,,,,,,,,,,,,,,,,,,,,,,
,,,,,,60c07e5182bf1353056371f6,62c53a1958c7705bdcbb4b34,2022-07-06_09h31.20.614,Colour_Asymmetry_Pilot,2022.1.3,Win32,59.59475566,62c50e9c1127f2cd403a315f,0,119,119,106,1,twoone,,,,,,,,,,,,,,,,,,,,,,,,,,,,,,,,,,,,,,,,,,,,,,,,,,,,,,,,,,,,,,,,,,,,,,,,,,,,,,,,,,,,,,,,,,,,,,,,,,,,,,,,,,,,,,,,,,,,,,,,,,,,,,,,,,,,,,,,,,,,,,,,,,,,,,,,,,,,,
,,,,,,60c07e5182bf1353056371f6,62c53a1958c7705bdcbb4b34,2022-07-06_09h31.20.614,Colour_Asymmetry_Pilot,2022.1.3,Win32,59.59475566,62c50e9c1127f2cd403a315f,0,120,120,19,1,twofour,,,,,,,,,,,,,,,,,,,,,,,,,,,,,,,,,,,,,,,,,,,,,,,,,,,,,,,,,,,,,,,,,,,,,,,,,,,,,,,,,,,,,,,,,,,,,,,,,,,,,,,,,,,,,,,,,,,,,,,,,,,,,,,,,,,,,,,,,,,,,,,,,,,,,,,,,,,,,
,,,,,,60c07e5182bf1353056371f6,62c53a1958c7705bdcbb4b34,2022-07-06_09h31.20.614,Colour_Asymmetry_Pilot,2022.1.3,Win32,59.59475566,62c50e9c1127f2cd403a315f,0,121,121,23,1,fourthree,,,,,,,,,,,,,,,,,,,,,,,,,,,,,,,,,,,,,,,,,,,,,,,,,,,,,,,,,,,,,,,,,,,,,,,,,,,,,,,,,,,,,,,,,,,,,,,,,,,,,,,,,,,,,,,,,,,,,,,,,,,,,,,,,,,,,,,,,,,,,,,,,,,,,,,,,,,,,
,,,,,,60c07e5182bf1353056371f6,62c53a1958c7705bdcbb4b34,2022-07-06_09h31.20.614,Colour_Asymmetry_Pilot,2022.1.3,Win32,59.59475566,62c50e9c1127f2cd403a315f,0,122,122,157,1,threefour,,,,,,,,,,,,,,,,,,,,,,,,,,,,,,,,,,,,,,,,,,,,,,,,,,,,,,,,,,,,,,,,,,,,,,,,,,,,,,,,,,,,,,,,,,,,,,,,,,,,,,,,,,,,,,,,,,,,,,,,,,,,,,,,,,,,,,,,,,,,,,,,,,,,,,,,,,,,,
,,,,,,60c07e5182bf1353056371f6,62c53a1958c7705bdcbb4b34,2022-07-06_09h31.20.614,Colour_Asymmetry_Pilot,2022.1.3,Win32,59.59475566,62c50e9c1127f2cd403a315f,0,123,123,154,1,twoone,,,,,,,,,,,,,,,,,,,,,,,,,,,,,,,,,,,,,,,,,,,,,,,,,,,,,,,,,,,,,,,,,,,,,,,,,,,,,,,,,,,,,,,,,,,,,,,,,,,,,,,,,,,,,,,,,,,,,,,,,,,,,,,,,,,,,,,,,,,,,,,,,,,,,,,,,,,,,
,,,,,,60c07e5182bf1353056371f6,62c53a1958c7705bdcbb4b34,2022-07-06_09h31.20.614,Colour_Asymmetry_Pilot,2022.1.3,Win32,59.59475566,62c50e9c1127f2cd403a315f,0,124,124,43,1,twofour,,,,,,,,,,,,,,,,,,,,,,,,,,,,,,,,,,,,,,,,,,,,,,,,,,,,,,,,,,,,,,,,,,,,,,,,,,,,,,,,,,,,,,,,,,,,,,,,,,,,,,,,,,,,,,,,,,,,,,,,,,,,,,,,,,,,,,,,,,,,,,,,,,,,,,,,,,,,,
,,,,,,60c07e5182bf1353056371f6,62c53a1958c7705bdcbb4b34,2022-07-06_09h31.20.614,Colour_Asymmetry_Pilot,2022.1.3,Win32,59.59475566,62c50e9c1127f2cd403a315f,0,125,125,0,1,onetwo,,,,,,,,,,,,,,,,,,,,,,,,,,,,,,,,,,,,,,,,,,,,,,,,,,,,,,,,,,,,,,,,,,,,,,,,,,,,,,,,,,,,,,,,,,,,,,,,,,,,,,,,,,,,,,,,,,,,,,,,,,,,,,,,,,,,,,,,,,,,,,,,,,,,,,,,,,,,,
,,,,,,60c07e5182bf1353056371f6,62c53a1958c7705bdcbb4b34,2022-07-06_09h31.20.614,Colour_Asymmetry_Pilot,2022.1.3,Win32,59.59475566,62c50e9c1127f2cd403a315f,0,126,126,92,1,threeone,,,,,,,,,,,,,,,,,,,,,,,,,,,,,,,,,,,,,,,,,,,,,,,,,,,,,,,,,,,,,,,,,,,,,,,,,,,,,,,,,,,,,,,,,,,,,,,,,,,,,,,,,,,,,,,,,,,,,,,,,,,,,,,,,,,,,,,,,,,,,,,,,,,,,,,,,,,,,
,,,,,,60c07e5182bf1353056371f6,62c53a1958c7705bdcbb4b34,2022-07-06_09h31.20.614,Colour_Asymmetry_Pilot,2022.1.3,Win32,59.59475566,62c50e9c1127f2cd403a315f,0,127,127,151,1,fourthree,,,,,,,,,,,,,,,,,,,,,,,,,,,,,,,,,,,,,,,,,,,,,,,,,,,,,,,,,,,,,,,,,,,,,,,,,,,,,,,,,,,,,,,,,,,,,,,,,,,,,,,,,,,,,,,,,,,,,,,,,,,,,,,,,,,,,,,,,,,,,,,,,,,,,,,,,,,,,
,,,,,,60c07e5182bf1353056371f6,62c53a1958c7705bdcbb4b34,2022-07-06_09h31.20.614,Colour_Asymmetry_Pilot,2022.1.3,Win32,59.59475566,62c50e9c1127f2cd403a315f,0,128,128,95,1,fourthree,,,,,,,,,,,,,,,,,,,,,,,,,,,,,,,,,,,,,,,,,,,,,,,,,,,,,,,,,,,,,,,,,,,,,,,,,,,,,,,,,,,,,,,,,,,,,,,,,,,,,,,,,,,,,,,,,,,,,,,,,,,,,,,,,,,,,,,,,,,,,,,,,,,,,,,,,,,,,
,,,,,,60c07e5182bf1353056371f6,62c53a1958c7705bdcbb4b34,2022-07-06_09h31.20.614,Colour_Asymmetry_Pilot,2022.1.3,Win32,59.59475566,62c50e9c1127f2cd403a315f,0,129,129,4,1,threeone,,,,,,,,,,,,,,,,,,,,,,,,,,,,,,,,,,,,,,,,,,,,,,,,,,,,,,,,,,,,,,,,,,,,,,,,,,,,,,,,,,,,,,,,,,,,,,,,,,,,,,,,,,,,,,,,,,,,,,,,,,,,,,,,,,,,,,,,,,,,,,,,,,,,,,,,,,,,,
,,,,,,60c07e5182bf1353056371f6,62c53a1958c7705bdcbb4b34,2022-07-06_09h31.20.614,Colour_Asymmetry_Pilot,2022.1.3,Win32,59.59475566,62c50e9c1127f2cd403a315f,0,130,130,93,1,threefour,,,,,,,,,,,,,,,,,,,,,,,,,,,,,,,,,,,,,,,,,,,,,,,,,,,,,,,,,,,,,,,,,,,,,,,,,,,,,,,,,,,,,,,,,,,,,,,,,,,,,,,,,,,,,,,,,,,,,,,,,,,,,,,,,,,,,,,,,,,,,,,,,,,,,,,,,,,,,
,,,,,,60c07e5182bf1353056371f6,62c53a1958c7705bdcbb4b34,2022-07-06_09h31.20.614,Colour_Asymmetry_Pilot,2022.1.3,Win32,59.59475566,62c50e9c1127f2cd403a315f,0,131,131,114,1,twoone,,,,,,,,,,,,,,,,,,,,,,,,,,,,,,,,,,,,,,,,,,,,,,,,,,,,,,,,,,,,,,,,,,,,,,,,,,,,,,,,,,,,,,,,,,,,,,,,,,,,,,,,,,,,,,,,,,,,,,,,,,,,,,,,,,,,,,,,,,,,,,,,,,,,,,,,,,,,,
,,,,,,60c07e5182bf1353056371f6,62c53a1958c7705bdcbb4b34,2022-07-06_09h31.20.614,Colour_Asymmetry_Pilot,2022.1.3,Win32,59.59475566,62c50e9c1127f2cd403a315f,0,132,132,48,1,onetwo,,,,,,,,,,,,,,,,,,,,,,,,,,,,,,,,,,,,,,,,,,,,,,,,,,,,,,,,,,,,,,,,,,,,,,,,,,,,,,,,,,,,,,,,,,,,,,,,,,,,,,,,,,,,,,,,,,,,,,,,,,,,,,,,,,,,,,,,,,,,,,,,,,,,,,,,,,,,,
,,,,,,60c07e5182bf1353056371f6,62c53a1958c7705bdcbb4b34,2022-07-06_09h31.20.614,Colour_Asymmetry_Pilot,2022.1.3,Win32,59.59475566,62c50e9c1127f2cd403a315f,0,133,133,18,1,twoone,,,,,,,,,,,,,,,,,,,,,,,,,,,,,,,,,,,,,,,,,,,,,,,,,,,,,,,,,,,,,,,,,,,,,,,,,,,,,,,,,,,,,,,,,,,,,,,,,,,,,,,,,,,,,,,,,,,,,,,,,,,,,,,,,,,,,,,,,,,,,,,,,,,,,,,,,,,,,
,,,,,,60c07e5182bf1353056371f6,62c53a1958c7705bdcbb4b34,2022-07-06_09h31.20.614,Colour_Asymmetry_Pilot,2022.1.3,Win32,59.59475566,62c50e9c1127f2cd403a315f,0,134,134,56,1,onetwo,,,,,,,,,,,,,,,,,,,,,,,,,,,,,,,,,,,,,,,,,,,,,,,,,,,,,,,,,,,,,,,,,,,,,,,,,,,,,,,,,,,,,,,,,,,,,,,,,,,,,,,,,,,,,,,,,,,,,,,,,,,,,,,,,,,,,,,,,,,,,,,,,,,,,,,,,,,,,
,,,,,,60c07e5182bf1353056371f6,62c53a1958c7705bdcbb4b34,2022-07-06_09h31.20.614,Colour_Asymmetry_Pilot,2022.1.3,Win32,59.59475566,62c50e9c1127f2cd403a315f,0,135,135,69,1,threefour,,,,,,,,,,,,,,,,,,,,,,,,,,,,,,,,,,,,,,,,,,,,,,,,,,,,,,,,,,,,,,,,,,,,,,,,,,,,,,,,,,,,,,,,,,,,,,,,,,,,,,,,,,,,,,,,,,,,,,,,,,,,,,,,,,,,,,,,,,,,,,,,,,,,,,,,,,,,,
,,,,,,60c07e5182bf1353056371f6,62c53a1958c7705bdcbb4b34,2022-07-06_09h31.20.614,Colour_Asymmetry_Pilot,2022.1.3,Win32,59.59475566,62c50e9c1127f2cd403a315f,0,136,136,98,1,twoone,,,,,,,,,,,,,,,,,,,,,,,,,,,,,,,,,,,,,,,,,,,,,,,,,,,,,,,,,,,,,,,,,,,,,,,,,,,,,,,,,,,,,,,,,,,,,,,,,,,,,,,,,,,,,,,,,,,,,,,,,,,,,,,,,,,,,,,,,,,,,,,,,,,,,,,,,,,,,
,,,,,,60c07e5182bf1353056371f6,62c53a1958c7705bdcbb4b34,2022-07-06_09h31.20.614,Colour_Asymmetry_Pilot,2022.1.3,Win32,59.59475566,62c50e9c1127f2cd403a315f,0,137,137,127,1,fourthree,,,,,,,,,,,,,,,,,,,,,,,,,,,,,,,,,,,,,,,,,,,,,,,,,,,,,,,,,,,,,,,,,,,,,,,,,,,,,,,,,,,,,,,,,,,,,,,,,,,,,,,,,,,,,,,,,,,,,,,,,,,,,,,,,,,,,,,,,,,,,,,,,,,,,,,,,,,,,
,,,,,,60c07e5182bf1353056371f6,62c53a1958c7705bdcbb4b34,2022-07-06_09h31.20.614,Colour_Asymmetry_Pilot,2022.1.3,Win32,59.59475566,62c50e9c1127f2cd403a315f,0,138,138,96,1,onetwo,,,,,,,,,,,,,,,,,,,,,,,,,,,,,,,,,,,,,,,,,,,,,,,,,,,,,,,,,,,,,,,,,,,,,,,,,,,,,,,,,,,,,,,,,,,,,,,,,,,,,,,,,,,,,,,,,,,,,,,,,,,,,,,,,,,,,,,,,,,,,,,,,,,,,,,,,,,,,
,,,,,,60c07e5182bf1353056371f6,62c53a1958c7705bdcbb4b34,2022-07-06_09h31.20.614,Colour_Asymmetry_Pilot,2022.1.3,Win32,59.59475566,62c50e9c1127f2cd403a315f,0,139,139,161,1,onethree,,,,,,,,,,,,,,,,,,,,,,,,,,,,,,,,,,,,,,,,,,,,,,,,,,,,,,,,,,,,,,,,,,,,,,,,,,,,,,,,,,,,,,,,,,,,,,,,,,,,,,,,,,,,,,,,,,,,,,,,,,,,,,,,,,,,,,,,,,,,,,,,,,,,,,,,,,,,,
,,,,,,60c07e5182bf1353056371f6,62c53a1958c7705bdcbb4b34,2022-07-06_09h31.20.614,Colour_Asymmetry_Pilot,2022.1.3,Win32,59.59475566,62c50e9c1127f2cd403a315f,0,140,140,78,1,fourtwo,,,,,,,,,,,,,,,,,,,,,,,,,,,,,,,,,,,,,,,,,,,,,,,,,,,,,,,,,,,,,,,,,,,,,,,,,,,,,,,,,,,,,,,,,,,,,,,,,,,,,,,,,,,,,,,,,,,,,,,,,,,,,,,,,,,,,,,,,,,,,,,,,,,,,,,,,,,,,
,,,,,,60c07e5182bf1353056371f6,62c53a1958c7705bdcbb4b34,2022-07-06_09h31.20.614,Colour_Asymmetry_Pilot,2022.1.3,Win32,59.59475566,62c50e9c1127f2cd403a315f,0,141,141,126,1,fourtwo,,,,,,,,,,,,,,,,,,,,,,,,,,,,,,,,,,,,,,,,,,,,,,,,,,,,,,,,,,,,,,,,,,,,,,,,,,,,,,,,,,,,,,,,,,,,,,,,,,,,,,,,,,,,,,,,,,,,,,,,,,,,,,,,,,,,,,,,,,,,,,,,,,,,,,,,,,,,,
,,,,,,60c07e5182bf1353056371f6,62c53a1958c7705bdcbb4b34,2022-07-06_09h31.20.614,Colour_Asymmetry_Pilot,2022.1.3,Win32,59.59475566,62c50e9c1127f2cd403a315f,0,142,142,76,1,threeone,,,,,,,,,,,,,,,,,,,,,,,,,,,,,,,,,,,,,,,,,,,,,,,,,,,,,,,,,,,,,,,,,,,,,,,,,,,,,,,,,,,,,,,,,,,,,,,,,,,,,,,,,,,,,,,,,,,,,,,,,,,,,,,,,,,,,,,,,,,,,,,,,,,,,,,,,,,,,
,,,,,,60c07e5182bf1353056371f6,62c53a1958c7705bdcbb4b34,2022-07-06_09h31.20.614,Colour_Asymmetry_Pilot,2022.1.3,Win32,59.59475566,62c50e9c1127f2cd403a315f,0,143,143,34,1,twoone,,,,,,,,,,,,,,,,,,,,,,,,,,,,,,,,,,,,,,,,,,,,,,,,,,,,,,,,,,,,,,,,,,,,,,,,,,,,,,,,,,,,,,,,,,,,,,,,,,,,,,,,,,,,,,,,,,,,,,,,,,,,,,,,,,,,,,,,,,,,,,,,,,,,,,,,,,,,,
,,,,,,60c07e5182bf1353056371f6,62c53a1958c7705bdcbb4b34,2022-07-06_09h31.20.614,Colour_Asymmetry_Pilot,2022.1.3,Win32,59.59475566,62c50e9c1127f2cd403a315f,0,144,144,7,1,fourthree,,,,,,,,,,,,,,,,,,,,,,,,,,,,,,,,,,,,,,,,,,,,,,,,,,,,,,,,,,,,,,,,,,,,,,,,,,,,,,,,,,,,,,,,,,,,,,,,,,,,,,,,,,,,,,,,,,,,,,,,,,,,,,,,,,,,,,,,,,,,,,,,,,,,,,,,,,,,,
,,,,,,60c07e5182bf1353056371f6,62c53a1958c7705bdcbb4b34,2022-07-06_09h31.20.614,Colour_Asymmetry_Pilot,2022.1.3,Win32,59.59475566,62c50e9c1127f2cd403a315f,0,145,145,12,1,threeone,,,,,,,,,,,,,,,,,,,,,,,,,,,,,,,,,,,,,,,,,,,,,,,,,,,,,,,,,,,,,,,,,,,,,,,,,,,,,,,,,,,,,,,,,,,,,,,,,,,,,,,,,,,,,,,,,,,,,,,,,,,,,,,,,,,,,,,,,,,,,,,,,,,,,,,,,,,,,
,,,,,,60c07e5182bf1353056371f6,62c53a1958c7705bdcbb4b34,2022-07-06_09h31.20.614,Colour_Asymmetry_Pilot,2022.1.3,Win32,59.59475566,62c50e9c1127f2cd403a315f,0,146,146,77,1,threefour,,,,,,,,,,,,,,,,,,,,,,,,,,,,,,,,,,,,,,,,,,,,,,,,,,,,,,,,,,,,,,,,,,,,,,,,,,,,,,,,,,,,,,,,,,,,,,,,,,,,,,,,,,,,,,,,,,,,,,,,,,,,,,,,,,,,,,,,,,,,,,,,,,,,,,,,,,,,,
,,,,,,60c07e5182bf1353056371f6,62c53a1958c7705bdcbb4b34,2022-07-06_09h31.20.614,Colour_Asymmetry_Pilot,2022.1.3,Win32,59.59475566,62c50e9c1127f2cd403a315f,0,147,147,20,1,threeone,,,,,,,,,,,,,,,,,,,,,,,,,,,,,,,,,,,,,,,,,,,,,,,,,,,,,,,,,,,,,,,,,,,,,,,,,,,,,,,,,,,,,,,,,,,,,,,,,,,,,,,,,,,,,,,,,,,,,,,,,,,,,,,,,,,,,,,,,,,,,,,,,,,,,,,,,,,,,
,,,,,,60c07e5182bf1353056371f6,62c53a1958c7705bdcbb4b34,2022-07-06_09h31.20.614,Colour_Asymmetry_Pilot,2022.1.3,Win32,59.59475566,62c50e9c1127f2cd403a315f,0,148,148,75,1,twofour,,,,,,,,,,,,,,,,,,,,,,,,,,,,,,,,,,,,,,,,,,,,,,,,,,,,,,,,,,,,,,,,,,,,,,,,,,,,,,,,,,,,,,,,,,,,,,,,,,,,,,,,,,,,,,,,,,,,,,,,,,,,,,,,,,,,,,,,,,,,,,,,,,,,,,,,,,,,,
,,,,,,60c07e5182bf1353056371f6,62c53a1958c7705bdcbb4b34,2022-07-06_09h31.20.614,Colour_Asymmetry_Pilot,2022.1.3,Win32,59.59475566,62c50e9c1127f2cd403a315f,0,149,149,64,1,onetwo,,,,,,,,,,,,,,,,,,,,,,,,,,,,,,,,,,,,,,,,,,,,,,,,,,,,,,,,,,,,,,,,,,,,,,,,,,,,,,,,,,,,,,,,,,,,,,,,,,,,,,,,,,,,,,,,,,,,,,,,,,,,,,,,,,,,,,,,,,,,,,,,,,,,,,,,,,,,,
,,,,,,60c07e5182bf1353056371f6,62c53a1958c7705bdcbb4b34,2022-07-06_09h31.20.614,Colour_Asymmetry_Pilot,2022.1.3,Win32,59.59475566,62c50e9c1127f2cd403a315f,0,150,150,113,1,onethree,,,,,,,,,,,,,,,,,,,,,,,,,,,,,,,,,,,,,,,,,,,,,,,,,,,,,,,,,,,,,,,,,,,,,,,,,,,,,,,,,,,,,,,,,,,,,,,,,,,,,,,,,,,,,,,,,,,,,,,,,,,,,,,,,,,,,,,,,,,,,,,,,,,,,,,,,,,,,
,,,,,,60c07e5182bf1353056371f6,62c53a1958c7705bdcbb4b34,2022-07-06_09h31.20.614,Colour_Asymmetry_Pilot,2022.1.3,Win32,59.59475566,62c50e9c1127f2cd403a315f,0,151,151,110,1,fourtwo,,,,,,,,,,,,,,,,,,,,,,,,,,,,,,,,,,,,,,,,,,,,,,,,,,,,,,,,,,,,,,,,,,,,,,,,,,,,,,,,,,,,,,,,,,,,,,,,,,,,,,,,,,,,,,,,,,,,,,,,,,,,,,,,,,,,,,,,,,,,,,,,,,,,,,,,,,,,,
,,,,,,60c07e5182bf1353056371f6,62c53a1958c7705bdcbb4b34,2022-07-06_09h31.20.614,Colour_Asymmetry_Pilot,2022.1.3,Win32,59.59475566,62c50e9c1127f2cd403a315f,0,152,152,130,1,twoone,,,,,,,,,,,,,,,,,,,,,,,,,,,,,,,,,,,,,,,,,,,,,,,,,,,,,,,,,,,,,,,,,,,,,,,,,,,,,,,,,,,,,,,,,,,,,,,,,,,,,,,,,,,,,,,,,,,,,,,,,,,,,,,,,,,,,,,,,,,,,,,,,,,,,,,,,,,,,
,,,,,,60c07e5182bf1353056371f6,62c53a1958c7705bdcbb4b34,2022-07-06_09h31.20.614,Colour_Asymmetry_Pilot,2022.1.3,Win32,59.59475566,62c50e9c1127f2cd403a315f,0,153,153,90,1,twoone,,,,,,,,,,,,,,,,,,,,,,,,,,,,,,,,,,,,,,,,,,,,,,,,,,,,,,,,,,,,,,,,,,,,,,,,,,,,,,,,,,,,,,,,,,,,,,,,,,,,,,,,,,,,,,,,,,,,,,,,,,,,,,,,,,,,,,,,,,,,,,,,,,,,,,,,,,,,,
,,,,,,60c07e5182bf1353056371f6,62c53a1958c7705bdcbb4b34,2022-07-06_09h31.20.614,Colour_Asymmetry_Pilot,2022.1.3,Win32,59.59475566,62c50e9c1127f2cd403a315f,0,154,154,112,1,onetwo,,,,,,,,,,,,,,,,,,,,,,,,,,,,,,,,,,,,,,,,,,,,,,,,,,,,,,,,,,,,,,,,,,,,,,,,,,,,,,,,,,,,,,,,,,,,,,,,,,,,,,,,,,,,,,,,,,,,,,,,,,,,,,,,,,,,,,,,,,,,,,,,,,,,,,,,,,,,,
,,,,,,60c07e5182bf1353056371f6,62c53a1958c7705bdcbb4b34,2022-07-06_09h31.20.614,Colour_Asymmetry_Pilot,2022.1.3,Win32,59.59475566,62c50e9c1127f2cd403a315f,0,155,155,156,1,threeone,,,,,,,,,,,,,,,,,,,,,,,,,,,,,,,,,,,,,,,,,,,,,,,,,,,,,,,,,,,,,,,,,,,,,,,,,,,,,,,,,,,,,,,,,,,,,,,,,,,,,,,,,,,,,,,,,,,,,,,,,,,,,,,,,,,,,,,,,,,,,,,,,,,,,,,,,,,,,
,,,,,,60c07e5182bf1353056371f6,62c53a1958c7705bdcbb4b34,2022-07-06_09h31.20.614,Colour_Asymmetry_Pilot,2022.1.3,Win32,59.59475566,62c50e9c1127f2cd403a315f,0,156,156,39,1,fourthree,,,,,,,,,,,,,,,,,,,,,,,,,,,,,,,,,,,,,,,,,,,,,,,,,,,,,,,,,,,,,,,,,,,,,,,,,,,,,,,,,,,,,,,,,,,,,,,,,,,,,,,,,,,,,,,,,,,,,,,,,,,,,,,,,,,,,,,,,,,,,,,,,,,,,,,,,,,,,
,,,,,,60c07e5182bf1353056371f6,62c53a1958c7705bdcbb4b34,2022-07-06_09h31.20.614,Colour_Asymmetry_Pilot,2022.1.3,Win32,59.59475566,62c50e9c1127f2cd403a315f,0,157,157,94,1,fourtwo,,,,,,,,,,,,,,,,,,,,,,,,,,,,,,,,,,,,,,,,,,,,,,,,,,,,,,,,,,,,,,,,,,,,,,,,,,,,,,,,,,,,,,,,,,,,,,,,,,,,,,,,,,,,,,,,,,,,,,,,,,,,,,,,,,,,,,,,,,,,,,,,,,,,,,,,,,,,,
,,,,,,60c07e5182bf1353056371f6,62c53a1958c7705bdcbb4b34,2022-07-06_09h31.20.614,Colour_Asymmetry_Pilot,2022.1.3,Win32,59.59475566,62c50e9c1127f2cd403a315f,0,158,158,30,1,fourtwo,,,,,,,,,,,,,,,,,,,,,,,,,,,,,,,,,,,,,,,,,,,,,,,,,,,,,,,,,,,,,,,,,,,,,,,,,,,,,,,,,,,,,,,,,,,,,,,,,,,,,,,,,,,,,,,,,,,,,,,,,,,,,,,,,,,,,,,,,,,,,,,,,,,,,,,,,,,,,
,,,,,,60c07e5182bf1353056371f6,62c53a1958c7705bdcbb4b34,2022-07-06_09h31.20.614,Colour_Asymmetry_Pilot,2022.1.3,Win32,59.59475566,62c50e9c1127f2cd403a315f,0,159,159,55,1,fourthree,,,,,,,,,,,,,,,,,,,,,,,,,,,,,,,,,,,,,,,,,,,,,,,,,,,,,,,,,,,,,,,,,,,,,,,,,,,,,,,,,,,,,,,,,,,,,,,,,,,,,,,,,,,,,,,,,,,,,,,,,,,,,,,,,,,,,,,,,,,,,,,,,,,,,,,,,,,,,
,,,,,,60c07e5182bf1353056371f6,62c53a1958c7705bdcbb4b34,2022-07-06_09h31.20.614,Colour_Asymmetry_Pilot,2022.1.3,Win32,59.59475566,62c50e9c1127f2cd403a315f,0,160,160,137,1,onethree,,,,,,,,,,,,,,,,,,,,,,,,,,,,,,,,,,,,,,,,,,,,,,,,,,,,,,,,,,,,,,,,,,,,,,,,,,,,,,,,,,,,,,,,,,,,,,,,,,,,,,,,,,,,,,,,,,,,,,,,,,,,,,,,,,,,,,,,,,,,,,,,,,,,,,,,,,,,,
,,,,,,60c07e5182bf1353056371f6,62c53a1958c7705bdcbb4b34,2022-07-06_09h31.20.614,Colour_Asymmetry_Pilot,2022.1.3,Win32,59.59475566,62c50e9c1127f2cd403a315f,0,161,161,53,1,threefour,,,,,,,,,,,,,,,,,,,,,,,,,,,,,,,,,,,,,,,,,,,,,,,,,,,,,,,,,,,,,,,,,,,,,,,,,,,,,,,,,,,,,,,,,,,,,,,,,,,,,,,,,,,,,,,,,,,,,,,,,,,,,,,,,,,,,,,,,,,,,,,,,,,,,,,,,,,,,
,,,,,,60c07e5182bf1353056371f6,62c53a1958c7705bdcbb4b34,2022-07-06_09h31.20.614,Colour_Asymmetry_Pilot,2022.1.3,Win32,59.59475566,62c50e9c1127f2cd403a315f,,,,,,,space,5.7703,space,29.1676,space,71.9162,space,33.563,space,8.7193,space,28.3981,"[-0.8118,-0.8198,-0.5452]",onetwo,"[0.9686000000000001,0.3802000000000001,0.19999999999999996]",-4,16.997,-48,91,1,0,0,response7disk_5,-6,-8,1,0,0,rectangle_8,-6,-8,1,0,0,1,-6,-8,1,0,0,0,0,0,0,1,,,,,,,,,,,,,,,,,,,,,,,,,,,,,,,,,,,,,,,,,,,,,,,,,,,,,,,,,,,,,,,,,,,,,,,,,,,,,,,,,,,,,,,,,,,,,,,,,,,,,,,,,,,,,,,,
,,,,,,60c07e5182bf1353056371f6,62c53a1958c7705bdcbb4b34,2022-07-06_09h31.20.614,Colour_Asymmetry_Pilot,2022.1.3,Win32,59.59475566,62c50e9c1127f2cd403a315f,,,,,,,,,,,,,,,,,,,"[-0.7412000000000001,-0.08239999999999992,-0.6864]",fourtwo,"[1,0.12939999999999996,-1]",4,12.9104,30,80,1,0,0,response1disk_5,-8,-3,1,0,0,rectangle_8,32,-72,1,0,0,1,-2,2,1,0,0,1,0,1,0,1,response3disk_7,4,rectangle_4,,,,,,,,,,,,,,,,,,,,,,,,,,,,,,,,,,,,,,,,,,,,,,,,,,,,,,,,,,,,,,,,,,,,,,,,,,,,,,,,,,,,,,,,,,,,,,,,,,,,,,,,,,,,,
,,,,,,60c07e5182bf1353056371f6,62c53a1958c7705bdcbb4b34,2022-07-06_09h31.20.614,Colour_Asymmetry_Pilot,2022.1.3,Win32,59.59475566,62c50e9c1127f2cd403a315f,,,,,,,,,,,,,,,,,,,"[-0.30200000000000005,0.14500000000000002,0.2784]",threefour,"[-0.9216,-0.5529999999999999,-0.3962]",-4,5.8793,-32,67,1,0,0,response7disk_5,-5,-5,1,0,0,rectangle_8,-5,-5,1,0,0,1,-5,-5,1,0,0,2,0,2,0,1,,,,,,,,,,,,,,,,,,,,,,,,,,,,,,,,,,,,,,,,,,,,,,,,,,,,,,,,,,,,,,,,,,,,,,,,,,,,,,,,,,,,,,,,,,,,,,,,,,,,,,,,,,,,,,,,
,,,,,,60c07e5182bf1353056371f6,62c53a1958c7705bdcbb4b34,2022-07-06_09h31.20.614,Colour_Asymmetry_Pilot,2022.1.3,Win32,59.59475566,62c50e9c1127f2cd403a315f,,,,,,,,,,,,,,,,,,,"[-0.9688,-0.4902000000000001,-0.12159999999999993]",onethree,"[0.7018,0.7176,0.6155999999999999]",-4,4.7282,-32,100,1,0,0,response7disk_5,-10,-13,1,0,0,rectangle_8,50,-73,1,0,0,1,6,-4,1,0,0,3,0,3,0,1,response3disk_7,4,rectangle_4,,,,,,,,,,,,,,,,,,,,,,,,,,,,,,,,,,,,,,,,,,,,,,,,,,,,,,,,,,,,,,,,,,,,,,,,,,,,,,,,,,,,,,,,,,,,,,,,,,,,,,,,,,,,,
,,,,,,60c07e5182bf1353056371f6,62c53a1958c7705bdcbb4b34,2022-07-06_09h31.20.614,Colour_Asymmetry_Pilot,2022.1.3,Win32,59.59475566,62c50e9c1127f2cd403a315f,,,,,,,,,,,,,,,,,,,"[-0.17659999999999998,-0.2864,-0.8354]",onetwo,"[0.11359999999999992,0.6312,0.5213999999999999]",-4,1.4668,-36,70,1,0,0,response7disk_5,3,-2,1,0,0,rectangle_8,3,-2,1,0,0,1,3,-2,1,0,0,4,0,4,0,1,,,,,,,,,,,,,,,,,,,,,,,,,,,,,,,,,,,,,,,,,,,,,,,,,,,,,,,,,,,,,,,,,,,,,,,,,,,,,,,,,,,,,,,,,,,,,,,,,,,,,,,,,,,,,,,,
,,,,,,60c07e5182bf1353056371f6,62c53a1958c7705bdcbb4b34,2022-07-06_09h31.20.614,Colour_Asymmetry_Pilot,2022.1.3,Win32,59.59475566,62c50e9c1127f2cd403a315f,,,,,,,,,,,,,,,,,,,"[0.9842,0.7409999999999999,-0.6628000000000001]",fourtwo,"[0.3802000000000001,0.19199999999999995,-0.6394]",4,1.485,24,68,1,0,0,response1disk_5,15,14,1,0,0,rectangle_8,15,14,1,0,0,1,15,14,1,0,0,5,0,5,0,1,,,,,,,,,,,,,,,,,,,,,,,,,,,,,,,,,,,,,,,,,,,,,,,,,,,,,,,,,,,,,,,,,,,,,,,,,,,,,,,,,,,,,,,,,,,,,,,,,,,,,,,,,,,,,,,,
,,,,,,60c07e5182bf1353056371f6,62c53a1958c7705bdcbb4b34,2022-07-06_09h31.20.614,Colour_Asymmetry_Pilot,2022.1.3,Win32,59.59475566,62c50e9c1127f2cd403a315f,,,,,,,,,,,,,,,,,,,"[0.04299999999999993,0.16060000000000008,-0.6628000000000001]",onetwo,"[0.05879999999999996,0.2784,0.5841999999999998]",-4,1.2186,-46,83,1,0,0,response7disk_5,-10,-5,1,0,0,rectangle_8,-10,-5,1,0,0,1,-10,-5,1,0,0,6,0,6,0,1,,,,,,,,,,,,,,,,,,,,,,,,,,,,,,,,,,,,,,,,,,,,,,,,,,,,,,,,,,,,,,,,,,,,,,,,,,,,,,,,,,,,,,,,,,,,,,,,,,,,,,,,,,,,,,,,
,,,,,,60c07e5182bf1353056371f6,62c53a1958c7705bdcbb4b34,2022-07-06_09h31.20.614,Colour_Asymmetry_Pilot,2022.1.3,Win32,59.59475566,62c50e9c1127f2cd403a315f,,,,,,,,,,,,,,,,,,,,onethree,,-4,2.5266,,,,,,,,,,,,,,,,,,,,,,,,,,,,,,,,space,4.2847,"[0.3881999999999999,-0.23939999999999995,-0.05040000000000011]","[0.9686000000000001,0.5763999999999998,0.11359999999999992]",-52,101,1,0,0,response7disk,-1,-10,1,0,0,rectangle,-1,-10,1,0,0,,1,0.0052,0,-1,-10,1,0,0,0,0,0,86,1,5,second,,,,,,,,,,,,,,,,,,,,,,,,,,,,,,,,,,,,,,,,,,,,,,,,,,,,,,,,,,,,,,,,,,,,,,,,
,,,,,,60c07e5182bf1353056371f6,62c53a1958c7705bdcbb4b34,2022-07-06_09h31.20.614,Colour_Asymmetry_Pilot,2022.1.3,Win32,59.59475566,62c50e9c1127f2cd403a315f,,,,,,,,,,,,,,,,,,,,threefour,,4,1.5434,,,,,,,,,,,,,,,,,,,,,,,,,,,,,,,,,,"[0.9686000000000001,0.5763999999999998,0.11359999999999992]","[0.796,0.2156,-0.27859999999999996]",61,97,1,0,0,response1disk,4,-5,1,0,0,rectangle,4,-5,1,0,0,,1,0.0055,0,4,-5,1,0,0,0,1,1,29,1,29,first,,,,,,,,,,,,,,,,,,,,,,,,,,,,,,,,,,,,,,,,,,,,,,,,,,,,,,,,,,,,,,,,,,,,,,,,
,,,,,,60c07e5182bf1353056371f6,62c53a1958c7705bdcbb4b34,2022-07-06_09h31.20.614,Colour_Asymmetry_Pilot,2022.1.3,Win32,59.59475566,62c50e9c1127f2cd403a315f,,,,,,,,,,,,,,,,,,,,onetwo,,4,1.0166,,,,,,,,,,,,,,,,,,,,,,,,,,,,,,,,,,"[-0.4902000000000001,0.2704,-0.45899999999999996]","[-0.9138,-0.5296000000000001,-0.5529999999999999]",50,75,1,0,0,response1disk,7,-9,1,0,0,rectangle,7,-9,1,0,0,,3,0.0015,0,7,-9,1,0,0,0,2,2,6,1,6,first,,,,,,,,,,,,,,,,,,,,,,,,,,,,,,,,,,,,,,,,,,,,,,,,,,,,,,,,,,,,,,,,,,,,,,,,
,,,,,,60c07e5182bf1353056371f6,62c53a1958c7705bdcbb4b34,2022-07-06_09h31.20.614,Colour_Asymmetry_Pilot,2022.1.3,Win32,59.59475566,62c50e9c1127f2cd403a315f,,,,,,,,,,,,,,,,,,,,onethree,,4,1.535,,,,,,,,,,,,,,,,,,,,,,,,,,,,,,,,,,"[-0.9216,-0.5529999999999999,-0.3962]","[-0.6942,-0.7648,-0.12959999999999994]",63,95,1,0,0,response1disk,15,-2,1,0,0,rectangle,15,-2,1,0,0,,1,0.0013,0,15,-2,1,0,0,0,3,3,21,1,21,first,,,,,,,,,,,,,,,,,,,,,,,,,,,,,,,,,,,,,,,,,,,,,,,,,,,,,,,,,,,,,,,,,,,,,,,,
,,,,,,60c07e5182bf1353056371f6,62c53a1958c7705bdcbb4b34,2022-07-06_09h31.20.614,Colour_Asymmetry_Pilot,2022.1.3,Win32,59.59475566,62c50e9c1127f2cd403a315f,,,,,,,,,,,,,,,,,,,,onethree,,-4,2.5016,,,,,,,,,,,,,,,,,,,,,,,,,,,,,,,,,,"[-0.0040000000000000036,0.02739999999999987,-0.08239999999999992]","[0.7176,-0.906,-0.6864]",-27,66,1,0,0,response7disk,-12,6,1,0,0,rectangle,-12,6,1,0,0,,3,0.0014,0,-12,6,1,0,0,0,4,4,50,1,50,first,,,,,,,,,,,,,,,,,,,,,,,,,,,,,,,,,,,,,,,,,,,,,,,,,,,,,,,,,,,,,,,,,,,,,,,,
,,,,,,60c07e5182bf1353056371f6,62c53a1958c7705bdcbb4b34,2022-07-06_09h31.20.614,Colour_Asymmetry_Pilot,2022.1.3,Win32,59.59475566,62c50e9c1127f2cd403a315f,,,,,,,,,,,,,,,,,,,,threeone,,-4,1.0171,,,,,,,,,,,,,,,,,,,,,,,,,,,,,,,,,,"[-0.24719999999999998,0.5213999999999999,-0.12959999999999994]","[0.05879999999999996,0.2784,0.5841999999999998]",-34,94,1,0,0,response7disk,2,5,1,0,0,rectangle,2,5,1,0,0,,1,0.0023,0,2,5,1,0,0,0,5,5,67,1,67,first,,,,,,,,,,,,,,,,,,,,,,,,,,,,,,,,,,,,,,,,,,,,,,,,,,,,,,,,,,,,,,,,,,,,,,,,
,,,,,,60c07e5182bf1353056371f6,62c53a1958c7705bdcbb4b34,2022-07-06_09h31.20.614,Colour_Asymmetry_Pilot,2022.1.3,Win32,59.59475566,62c50e9c1127f2cd403a315f,,,,,,,,,,,,,,,,,,,,fourthree,,-4,2.2856,,,,,,,,,,,,,,,,,,,,,,,,,,,,,,,,,,"[-0.4902000000000001,0.2704,-0.45899999999999996]","[0.23920000000000008,0.2704,0.16060000000000008]",-24,84,1,0,0,response7disk,-1,12,1,0,0,rectangle,-1,12,1,0,0,,1,0.0009,0,-1,12,1,0,0,0,6,6,64,1,64,first,,,,,,,,,,,,,,,,,,,,,,,,,,,,,,,,,,,,,,,,,,,,,,,,,,,,,,,,,,,,,,,,,,,,,,,,
,,,,,,60c07e5182bf1353056371f6,62c53a1958c7705bdcbb4b34,2022-07-06_09h31.20.614,Colour_Asymmetry_Pilot,2022.1.3,Win32,59.59475566,62c50e9c1127f2cd403a315f,,,,,,,,,,,,,,,,,,,,threefour,,4,4.2846,,,,,,,,,,,,,,,,,,,,,,,,,,,,,,,,,,"[0.9686000000000001,0.5763999999999998,0.11359999999999992]","[0.3881999999999999,-0.23939999999999995,-0.05040000000000011]",43,93,1,0,0,response1disk,3,7,1,0,0,rectangle,3,7,1,0,0,,1,0.0002,0,3,7,1,0,0,0,7,7,5,1,5,first,,,,,,,,,,,,,,,,,,,,,,,,,,,,,,,,,,,,,,,,,,,,,,,,,,,,,,,,,,,,,,,,,,,,,,,,
,,,,,,60c07e5182bf1353056371f6,62c53a1958c7705bdcbb4b34,2022-07-06_09h31.20.614,Colour_Asymmetry_Pilot,2022.1.3,Win32,59.59475566,62c50e9c1127f2cd403a315f,,,,,,,,,,,,,,,,,,,,twofour,,-4,11.1883,,,,,,,,,,,,,,,,,,,,,,,,,,,,,,,,,,"[-0.20799999999999996,-0.655,-0.01980000000000004]","[-0.050999999999999934,-0.6706000000000001,-0.804]",-38,84,1,0,0,response7disk,-2,-3,1,0,0,rectangle,79,49,1,0,0,3,3,4.7686,1,3,3,1,0,0,0,8,8,136,1,55,second,response1disk_3,rectangle,,,,,,,,,,,,,,,,,,,,,,,,,,,,,,,,,,,,,,,,,,,,,,,,,,,,,,,,,,,,,,,,,,,,,,
,,,,,,60c07e5182bf1353056371f6,62c53a1958c7705bdcbb4b34,2022-07-06_09h31.20.614,Colour_Asymmetry_Pilot,2022.1.3,Win32,59.59475566,62c50e9c1127f2cd403a315f,,,,,,,,,,,,,,,,,,,,onethree,,-4,4.5632,,,,,,,,,,,,,,,,,,,,,,,,,,,,,,,,,,"[-0.4276,0.0038000000000000256,-0.3256]","[0.9686000000000001,0.5763999999999998,0.11359999999999992]",-45,88,1,0,0,response7disk,-6,8,1,0,0,rectangle,-6,8,1,0,0,3,3,0.0007,0,-6,8,1,0,0,0,9,9,16,1,16,first,,,,,,,,,,,,,,,,,,,,,,,,,,,,,,,,,,,,,,,,,,,,,,,,,,,,,,,,,,,,,,,,,,,,,,,,
,,,,,,60c07e5182bf1353056371f6,62c53a1958c7705bdcbb4b34,2022-07-06_09h31.20.614,Colour_Asymmetry_Pilot,2022.1.3,Win32,59.59475566,62c50e9c1127f2cd403a315f,,,,,,,,,,,,,,,,,,,,threefour,,4,2.4525,,,,,,,,,,,,,,,,,,,,,,,,,,,,,,,,,,"[-0.4746,-0.0354000000000001,0.5449999999999999]","[0.11359999999999992,0.6312,0.5213999999999999]",40,112,1,0,0,response1disk,-25,-1,1,0,0,rectangle,-25,-1,1,0,0,3,1,0.0014,0,-25,-1,1,0,0,0,10,10,22,1,22,first,,,,,,,,,,,,,,,,,,,,,,,,,,,,,,,,,,,,,,,,,,,,,,,,,,,,,,,,,,,,,,,,,,,,,,,,
,,,,,,60c07e5182bf1353056371f6,62c53a1958c7705bdcbb4b34,2022-07-06_09h31.20.614,Colour_Asymmetry_Pilot,2022.1.3,Win32,59.59475566,62c50e9c1127f2cd403a315f,,,,,,,,,,,,,,,,,,,,threeone,,-4,1.8507,,,,,,,,,,,,,,,,,,,,,,,,,,,,,,,,,,"[-0.050999999999999934,-0.6706000000000001,-0.804]","[-0.20799999999999996,-0.655,-0.01980000000000004]",-27,97,1,0,0,response7disk,-5,-9,1,0,0,rectangle,79,34,1,0,0,3,3,4.4683,1,2,0,1,0,0,0,11,11,55,1,55,first,response1disk_3,rectangle,,,,,,,,,,,,,,,,,,,,,,,,,,,,,,,,,,,,,,,,,,,,,,,,,,,,,,,,,,,,,,,,,,,,,,
,,,,,,60c07e5182bf1353056371f6,62c53a1958c7705bdcbb4b34,2022-07-06_09h31.20.614,Colour_Asymmetry_Pilot,2022.1.3,Win32,59.59475566,62c50e9c1127f2cd403a315f,,,,,,,,,,,,,,,,,,,,threefour,,-4,2.2794,,,,,,,,,,,,,,,,,,,,,,,,,,,,,,,,,,"[0.3881999999999999,-0.23939999999999995,-0.05040000000000011]","[0.4196,0.4665999999999999,0.3568]",-48,89,1,0,0,response7disk,-11,3,1,0,0,rectangle,-11,3,1,0,0,3,1,0.0016,0,-11,3,1,0,0,0,12,12,133,1,52,second,,,,,,,,,,,,,,,,,,,,,,,,,,,,,,,,,,,,,,,,,,,,,,,,,,,,,,,,,,,,,,,,,,,,,,,,
,,,,,,60c07e5182bf1353056371f6,62c53a1958c7705bdcbb4b34,2022-07-06_09h31.20.614,Colour_Asymmetry_Pilot,2022.1.3,Win32,59.59475566,62c50e9c1127f2cd403a315f,,,,,,,,,,,,,,,,,,,,threeone,,-4,2.0689,,,,,,,,,,,,,,,,,,,,,,,,,,,,,,,,,,"[0.8115999999999999,-0.0040000000000000036,-0.09819999999999995]","[-0.20799999999999996,-0.655,-0.01980000000000004]",-42,86,1,0,0,response7disk,-15,6,1,0,0,rectangle,-15,6,1,0,0,3,3,0.0024,0,-15,6,1,0,0,0,13,13,25,1,25,first,,,,,,,,,,,,,,,,,,,,,,,,,,,,,,,,,,,,,,,,,,,,,,,,,,,,,,,,,,,,,,,,,,,,,,,,
,,,,,,60c07e5182bf1353056371f6,62c53a1958c7705bdcbb4b34,2022-07-06_09h31.20.614,Colour_Asymmetry_Pilot,2022.1.3,Win32,59.59475566,62c50e9c1127f2cd403a315f,,,,,,,,,,,,,,,,,,,,fourtwo,,4,0.8871,,,,,,,,,,,,,,,,,,,,,,,,,,,,,,,,,,"[0.2862,0.7802,0.3568]","[-0.45899999999999996,-0.3256,-0.9374]",37,89,1,0,0,response1disk,10,-4,1,0,0,rectangle,10,-4,1,0,0,3,1,0.0016,0,10,-4,1,0,0,0,14,14,23,1,23,first,,,,,,,,,,,,,,,,,,,,,,,,,,,,,,,,,,,,,,,,,,,,,,,,,,,,,,,,,,,,,,,,,,,,,,,,
,,,,,,60c07e5182bf1353056371f6,62c53a1958c7705bdcbb4b34,2022-07-06_09h31.20.614,Colour_Asymmetry_Pilot,2022.1.3,Win32,59.59475566,62c50e9c1127f2cd403a315f,,,,,,,,,,,,,,,,,,,,onetwo,,-4,6.1689,,,,,,,,,,,,,,,,,,,,,,,,,,,,,,,,,,"[-0.011800000000000033,-0.906,-0.45100000000000007]","[0.7018,0.7802,-0.16079999999999994]",-37,80,1,0,0,response7disk,-4,-3,1,0,0,rectangle,-4,-3,1,0,0,3,1,0.0001,0,-4,-3,1,0,0,0,15,15,78,1,78,first,,,,,,,,,,,,,,,,,,,,,,,,,,,,,,,,,,,,,,,,,,,,,,,,,,,,,,,,,,,,,,,,,,,,,,,,
,,,,,,60c07e5182bf1353056371f6,62c53a1958c7705bdcbb4b34,2022-07-06_09h31.20.614,Colour_Asymmetry_Pilot,2022.1.3,Win32,59.59475566,62c50e9c1127f2cd403a315f,,,,,,,,,,,,,,,,,,,,threeone,,-4,1.5832,,,,,,,,,,,,,,,,,,,,,,,,,,,,,,,,,,"[-0.45899999999999996,-0.3256,-0.9374]","[0.9372,0.20779999999999998,0.2704]",-31,80,1,0,0,response7disk,-2,-10,1,0,0,rectangle,-2,-10,1,0,0,3,1,0.0002,0,-2,-10,1,0,0,0,16,16,15,1,15,first,,,,,,,,,,,,,,,,,,,,,,,,,,,,,,,,,,,,,,,,,,,,,,,,,,,,,,,,,,,,,,,,,,,,,,,,
,,,,,,60c07e5182bf1353056371f6,62c53a1958c7705bdcbb4b34,2022-07-06_09h31.20.614,Colour_Asymmetry_Pilot,2022.1.3,Win32,59.59475566,62c50e9c1127f2cd403a315f,,,,,,,,,,,,,,,,,,,,onetwo,,-4,3.0521,,,,,,,,,,,,,,,,,,,,,,,,,,,,,,,,,,"[-0.4276,0.0038000000000000256,-0.3256]","[0.09799999999999986,-0.24719999999999998,0.15280000000000005]",-54,75,1,0,0,response7disk,-4,-6,1,0,0,rectangle,-4,-6,1,0,0,3,3,0.0024,0,-4,-6,1,0,0,0,17,17,80,1,80,first,,,,,,,,,,,,,,,,,,,,,,,,,,,,,,,,,,,,,,,,,,,,,,,,,,,,,,,,,,,,,,,,,,,,,,,,
