trials.thisRepN,trials.thisTrialN,trials.thisN,trials.thisIndex,trials.ran,Colourcodes,participant,session,date,expName,psychopyVersion,OS,frameRate,study_id,trials_4.thisRepN,trials_4.thisTrialN,trials_4.thisN,trials_4.thisIndex,trials_4.ran,StimulusPos,key_resp.keys,key_resp.rt,key_resp_2.keys,key_resp_2.rt,key_resp_15.keys,key_resp_15.rt,key_resp_17.keys,key_resp_17.rt,key_resp_9.keys,key_resp_9.rt,key_resp_10.keys,key_resp_10.rt,Circle1_col,Ecc,Circle2_col,similarity,response_time,mouse_5.x,mouse_5.y,mouse_5.leftButton,mouse_5.midButton,mouse_5.rightButton,mouse_5.clicked_name,mouse_10.x,mouse_10.y,mouse_10.leftButton,mouse_10.midButton,mouse_10.rightButton,mouse_10.clicked_name,mouse_7.x,mouse_7.y,mouse_7.leftButton,mouse_7.midButton,mouse_7.rightButton,mouse_7.clicked_name,catchprac,catchnumberprac,mouse_6.x,mouse_6.y,mouse_6.leftButton,mouse_6.midButton,mouse_6.rightButton,mouse_6.clicked_name,duringprac.thisRepN,duringprac.thisTrialN,duringprac.thisN,duringprac.thisIndex,duringprac.ran,key_resp_22.keys,key_resp_22.rt,Circle1_colour,Circle2_colour,mouse.x,mouse.y,mouse.leftButton,mouse.midButton,mouse.rightButton,mouse.clicked_name,mouse_2.x,mouse_2.y,mouse_2.leftButton,mouse_2.midButton,mouse_2.rightButton,mouse_2.clicked_name,mouse_3.x,mouse_3.y,mouse_3.leftButton,mouse_3.midButton,mouse_3.rightButton,catchresponse,catchnumber,response_time_catch,Catch,mouse_11.x,mouse_11.y,mouse_11.leftButton,mouse_11.midButton,mouse_11.rightButton,trials_2.thisRepN,trials_2.thisTrialN,trials_2.thisN,trials_2.thisIndex,trials_2.ran,Colourpair,Temporder,mouse_3.clicked_name,mouse_11.clicked_name,trials_3.thisRepN,trials_3.thisTrialN,trials_3.thisN,trials_3.thisIndex,trials_3.ran,key_resp_instr_Ishi.keys,key_resp_instr_Ishi.rt,Ishi_trial_keyresp.keys,Ishi_textbox.text,Ishi_mouse.x,Ishi_mouse.y,Ishi_mouse.leftButton,Ishi_mouse.midButton,Ishi_mouse.rightButton,Ishi_mouse.clicked_name,Ishi_loop.thisRepN,Ishi_loop.thisTrialN,Ishi_loop.thisN,Ishi_loop.thisIndex,Ishi_loop.ran,imageaddress,textbox.text,mouse_4.x,mouse_4.y,mouse_4.leftButton,mouse_4.midButton,mouse_4.rightButton,mouse_4.clicked_name,textbox_2.text,mouse_8.x,mouse_8.y,mouse_8.leftButton,mouse_8.midButton,mouse_8.rightButton,mouse_8.clicked_name,textbox_3.text,mouse_9.x,mouse_9.y,mouse_9.leftButton,mouse_9.midButton,mouse_9.rightButton,mouse_9.clicked_name,textbox_4.text,mouse_12.x,mouse_12.y,mouse_12.leftButton,mouse_12.midButton,mouse_12.rightButton,mouse_12.clicked_name,textbox_5.text,mouse_13.x,mouse_13.y,mouse_13.leftButton,mouse_13.midButton,mouse_13.rightButton,mouse_13.clicked_name,textbox_6.text,mouse_14.x,mouse_14.y,mouse_14.leftButton,mouse_14.midButton,mouse_14.rightButton,textbox_7.text,mouse_15.x,mouse_15.y,mouse_15.leftButton,mouse_15.midButton,mouse_15.rightButton,mouse_15.clicked_name
0,0,0,53,1,,5fe3a0b4bf7c820835fc8fe1,62c53936b7009b49e4ba96c6,2022-07-06_09h31.10.876,Colour_Asymmetry_Pilot,2022.1.3,Win32,60.13952369,62c50e9c1127f2cd403a315f,,,,,,,,,,,,,,,,,,,,,,,,,,,,,,,,,,,,,,,,,,,,,,,,,,,,,,,,,,,,,,,,,,,,,,,,,,,,,,,,,,,,,,,,,,,,,,,,,,,,,,,,,,,,,,,,,,,,,,,,,,,,,,,,,,,,,,,,,,,,,,,,,,,,,,,,,,,,,,,,,,
0,1,1,60,1,,5fe3a0b4bf7c820835fc8fe1,62c53936b7009b49e4ba96c6,2022-07-06_09h31.10.876,Colour_Asymmetry_Pilot,2022.1.3,Win32,60.13952369,62c50e9c1127f2cd403a315f,,,,,,,,,,,,,,,,,,,,,,,,,,,,,,,,,,,,,,,,,,,,,,,,,,,,,,,,,,,,,,,,,,,,,,,,,,,,,,,,,,,,,,,,,,,,,,,,,,,,,,,,,,,,,,,,,,,,,,,,,,,,,,,,,,,,,,,,,,,,,,,,,,,,,,,,,,,,,,,,,,
0,2,2,77,1,,5fe3a0b4bf7c820835fc8fe1,62c53936b7009b49e4ba96c6,2022-07-06_09h31.10.876,Colour_Asymmetry_Pilot,2022.1.3,Win32,60.13952369,62c50e9c1127f2cd403a315f,,,,,,,,,,,,,,,,,,,,,,,,,,,,,,,,,,,,,,,,,,,,,,,,,,,,,,,,,,,,,,,,,,,,,,,,,,,,,,,,,,,,,,,,,,,,,,,,,,,,,,,,,,,,,,,,,,,,,,,,,,,,,,,,,,,,,,,,,,,,,,,,,,,,,,,,,,,,,,,,,,
0,3,3,3,1,,5fe3a0b4bf7c820835fc8fe1,62c53936b7009b49e4ba96c6,2022-07-06_09h31.10.876,Colour_Asymmetry_Pilot,2022.1.3,Win32,60.13952369,62c50e9c1127f2cd403a315f,,,,,,,,,,,,,,,,,,,,,,,,,,,,,,,,,,,,,,,,,,,,,,,,,,,,,,,,,,,,,,,,,,,,,,,,,,,,,,,,,,,,,,,,,,,,,,,,,,,,,,,,,,,,,,,,,,,,,,,,,,,,,,,,,,,,,,,,,,,,,,,,,,,,,,,,,,,,,,,,,,
0,4,4,87,1,,5fe3a0b4bf7c820835fc8fe1,62c53936b7009b49e4ba96c6,2022-07-06_09h31.10.876,Colour_Asymmetry_Pilot,2022.1.3,Win32,60.13952369,62c50e9c1127f2cd403a315f,,,,,,,,,,,,,,,,,,,,,,,,,,,,,,,,,,,,,,,,,,,,,,,,,,,,,,,,,,,,,,,,,,,,,,,,,,,,,,,,,,,,,,,,,,,,,,,,,,,,,,,,,,,,,,,,,,,,,,,,,,,,,,,,,,,,,,,,,,,,,,,,,,,,,,,,,,,,,,,,,,
0,5,5,5,1,,5fe3a0b4bf7c820835fc8fe1,62c53936b7009b49e4ba96c6,2022-07-06_09h31.10.876,Colour_Asymmetry_Pilot,2022.1.3,Win32,60.13952369,62c50e9c1127f2cd403a315f,,,,,,,,,,,,,,,,,,,,,,,,,,,,,,,,,,,,,,,,,,,,,,,,,,,,,,,,,,,,,,,,,,,,,,,,,,,,,,,,,,,,,,,,,,,,,,,,,,,,,,,,,,,,,,,,,,,,,,,,,,,,,,,,,,,,,,,,,,,,,,,,,,,,,,,,,,,,,,,,,,
0,6,6,54,1,,5fe3a0b4bf7c820835fc8fe1,62c53936b7009b49e4ba96c6,2022-07-06_09h31.10.876,Colour_Asymmetry_Pilot,2022.1.3,Win32,60.13952369,62c50e9c1127f2cd403a315f,,,,,,,,,,,,,,,,,,,,,,,,,,,,,,,,,,,,,,,,,,,,,,,,,,,,,,,,,,,,,,,,,,,,,,,,,,,,,,,,,,,,,,,,,,,,,,,,,,,,,,,,,,,,,,,,,,,,,,,,,,,,,,,,,,,,,,,,,,,,,,,,,,,,,,,,,,,,,,,,,,
0,7,7,33,1,,5fe3a0b4bf7c820835fc8fe1,62c53936b7009b49e4ba96c6,2022-07-06_09h31.10.876,Colour_Asymmetry_Pilot,2022.1.3,Win32,60.13952369,62c50e9c1127f2cd403a315f,,,,,,,,,,,,,,,,,,,,,,,,,,,,,,,,,,,,,,,,,,,,,,,,,,,,,,,,,,,,,,,,,,,,,,,,,,,,,,,,,,,,,,,,,,,,,,,,,,,,,,,,,,,,,,,,,,,,,,,,,,,,,,,,,,,,,,,,,,,,,,,,,,,,,,,,,,,,,,,,,,
0,8,8,74,1,,5fe3a0b4bf7c820835fc8fe1,62c53936b7009b49e4ba96c6,2022-07-06_09h31.10.876,Colour_Asymmetry_Pilot,2022.1.3,Win32,60.13952369,62c50e9c1127f2cd403a315f,,,,,,,,,,,,,,,,,,,,,,,,,,,,,,,,,,,,,,,,,,,,,,,,,,,,,,,,,,,,,,,,,,,,,,,,,,,,,,,,,,,,,,,,,,,,,,,,,,,,,,,,,,,,,,,,,,,,,,,,,,,,,,,,,,,,,,,,,,,,,,,,,,,,,,,,,,,,,,,,,,
0,9,9,67,1,,5fe3a0b4bf7c820835fc8fe1,62c53936b7009b49e4ba96c6,2022-07-06_09h31.10.876,Colour_Asymmetry_Pilot,2022.1.3,Win32,60.13952369,62c50e9c1127f2cd403a315f,,,,,,,,,,,,,,,,,,,,,,,,,,,,,,,,,,,,,,,,,,,,,,,,,,,,,,,,,,,,,,,,,,,,,,,,,,,,,,,,,,,,,,,,,,,,,,,,,,,,,,,,,,,,,,,,,,,,,,,,,,,,,,,,,,,,,,,,,,,,,,,,,,,,,,,,,,,,,,,,,,
0,10,10,13,1,,5fe3a0b4bf7c820835fc8fe1,62c53936b7009b49e4ba96c6,2022-07-06_09h31.10.876,Colour_Asymmetry_Pilot,2022.1.3,Win32,60.13952369,62c50e9c1127f2cd403a315f,,,,,,,,,,,,,,,,,,,,,,,,,,,,,,,,,,,,,,,,,,,,,,,,,,,,,,,,,,,,,,,,,,,,,,,,,,,,,,,,,,,,,,,,,,,,,,,,,,,,,,,,,,,,,,,,,,,,,,,,,,,,,,,,,,,,,,,,,,,,,,,,,,,,,,,,,,,,,,,,,,
0,11,11,64,1,,5fe3a0b4bf7c820835fc8fe1,62c53936b7009b49e4ba96c6,2022-07-06_09h31.10.876,Colour_Asymmetry_Pilot,2022.1.3,Win32,60.13952369,62c50e9c1127f2cd403a315f,,,,,,,,,,,,,,,,,,,,,,,,,,,,,,,,,,,,,,,,,,,,,,,,,,,,,,,,,,,,,,,,,,,,,,,,,,,,,,,,,,,,,,,,,,,,,,,,,,,,,,,,,,,,,,,,,,,,,,,,,,,,,,,,,,,,,,,,,,,,,,,,,,,,,,,,,,,,,,,,,,
0,12,12,39,1,,5fe3a0b4bf7c820835fc8fe1,62c53936b7009b49e4ba96c6,2022-07-06_09h31.10.876,Colour_Asymmetry_Pilot,2022.1.3,Win32,60.13952369,62c50e9c1127f2cd403a315f,,,,,,,,,,,,,,,,,,,,,,,,,,,,,,,,,,,,,,,,,,,,,,,,,,,,,,,,,,,,,,,,,,,,,,,,,,,,,,,,,,,,,,,,,,,,,,,,,,,,,,,,,,,,,,,,,,,,,,,,,,,,,,,,,,,,,,,,,,,,,,,,,,,,,,,,,,,,,,,,,,
0,13,13,81,1,,5fe3a0b4bf7c820835fc8fe1,62c53936b7009b49e4ba96c6,2022-07-06_09h31.10.876,Colour_Asymmetry_Pilot,2022.1.3,Win32,60.13952369,62c50e9c1127f2cd403a315f,,,,,,,,,,,,,,,,,,,,,,,,,,,,,,,,,,,,,,,,,,,,,,,,,,,,,,,,,,,,,,,,,,,,,,,,,,,,,,,,,,,,,,,,,,,,,,,,,,,,,,,,,,,,,,,,,,,,,,,,,,,,,,,,,,,,,,,,,,,,,,,,,,,,,,,,,,,,,,,,,,
0,14,14,49,1,,5fe3a0b4bf7c820835fc8fe1,62c53936b7009b49e4ba96c6,2022-07-06_09h31.10.876,Colour_Asymmetry_Pilot,2022.1.3,Win32,60.13952369,62c50e9c1127f2cd403a315f,,,,,,,,,,,,,,,,,,,,,,,,,,,,,,,,,,,,,,,,,,,,,,,,,,,,,,,,,,,,,,,,,,,,,,,,,,,,,,,,,,,,,,,,,,,,,,,,,,,,,,,,,,,,,,,,,,,,,,,,,,,,,,,,,,,,,,,,,,,,,,,,,,,,,,,,,,,,,,,,,,
0,15,15,42,1,,5fe3a0b4bf7c820835fc8fe1,62c53936b7009b49e4ba96c6,2022-07-06_09h31.10.876,Colour_Asymmetry_Pilot,2022.1.3,Win32,60.13952369,62c50e9c1127f2cd403a315f,,,,,,,,,,,,,,,,,,,,,,,,,,,,,,,,,,,,,,,,,,,,,,,,,,,,,,,,,,,,,,,,,,,,,,,,,,,,,,,,,,,,,,,,,,,,,,,,,,,,,,,,,,,,,,,,,,,,,,,,,,,,,,,,,,,,,,,,,,,,,,,,,,,,,,,,,,,,,,,,,,
0,16,16,17,1,,5fe3a0b4bf7c820835fc8fe1,62c53936b7009b49e4ba96c6,2022-07-06_09h31.10.876,Colour_Asymmetry_Pilot,2022.1.3,Win32,60.13952369,62c50e9c1127f2cd403a315f,,,,,,,,,,,,,,,,,,,,,,,,,,,,,,,,,,,,,,,,,,,,,,,,,,,,,,,,,,,,,,,,,,,,,,,,,,,,,,,,,,,,,,,,,,,,,,,,,,,,,,,,,,,,,,,,,,,,,,,,,,,,,,,,,,,,,,,,,,,,,,,,,,,,,,,,,,,,,,,,,,
0,17,17,34,1,,5fe3a0b4bf7c820835fc8fe1,62c53936b7009b49e4ba96c6,2022-07-06_09h31.10.876,Colour_Asymmetry_Pilot,2022.1.3,Win32,60.13952369,62c50e9c1127f2cd403a315f,,,,,,,,,,,,,,,,,,,,,,,,,,,,,,,,,,,,,,,,,,,,,,,,,,,,,,,,,,,,,,,,,,,,,,,,,,,,,,,,,,,,,,,,,,,,,,,,,,,,,,,,,,,,,,,,,,,,,,,,,,,,,,,,,,,,,,,,,,,,,,,,,,,,,,,,,,,,,,,,,,
0,18,18,41,1,,5fe3a0b4bf7c820835fc8fe1,62c53936b7009b49e4ba96c6,2022-07-06_09h31.10.876,Colour_Asymmetry_Pilot,2022.1.3,Win32,60.13952369,62c50e9c1127f2cd403a315f,,,,,,,,,,,,,,,,,,,,,,,,,,,,,,,,,,,,,,,,,,,,,,,,,,,,,,,,,,,,,,,,,,,,,,,,,,,,,,,,,,,,,,,,,,,,,,,,,,,,,,,,,,,,,,,,,,,,,,,,,,,,,,,,,,,,,,,,,,,,,,,,,,,,,,,,,,,,,,,,,,
0,19,19,1,1,,5fe3a0b4bf7c820835fc8fe1,62c53936b7009b49e4ba96c6,2022-07-06_09h31.10.876,Colour_Asymmetry_Pilot,2022.1.3,Win32,60.13952369,62c50e9c1127f2cd403a315f,,,,,,,,,,,,,,,,,,,,,,,,,,,,,,,,,,,,,,,,,,,,,,,,,,,,,,,,,,,,,,,,,,,,,,,,,,,,,,,,,,,,,,,,,,,,,,,,,,,,,,,,,,,,,,,,,,,,,,,,,,,,,,,,,,,,,,,,,,,,,,,,,,,,,,,,,,,,,,,,,,
0,20,20,62,1,,5fe3a0b4bf7c820835fc8fe1,62c53936b7009b49e4ba96c6,2022-07-06_09h31.10.876,Colour_Asymmetry_Pilot,2022.1.3,Win32,60.13952369,62c50e9c1127f2cd403a315f,,,,,,,,,,,,,,,,,,,,,,,,,,,,,,,,,,,,,,,,,,,,,,,,,,,,,,,,,,,,,,,,,,,,,,,,,,,,,,,,,,,,,,,,,,,,,,,,,,,,,,,,,,,,,,,,,,,,,,,,,,,,,,,,,,,,,,,,,,,,,,,,,,,,,,,,,,,,,,,,,,
0,21,21,51,1,,5fe3a0b4bf7c820835fc8fe1,62c53936b7009b49e4ba96c6,2022-07-06_09h31.10.876,Colour_Asymmetry_Pilot,2022.1.3,Win32,60.13952369,62c50e9c1127f2cd403a315f,,,,,,,,,,,,,,,,,,,,,,,,,,,,,,,,,,,,,,,,,,,,,,,,,,,,,,,,,,,,,,,,,,,,,,,,,,,,,,,,,,,,,,,,,,,,,,,,,,,,,,,,,,,,,,,,,,,,,,,,,,,,,,,,,,,,,,,,,,,,,,,,,,,,,,,,,,,,,,,,,,
0,22,22,0,1,,5fe3a0b4bf7c820835fc8fe1,62c53936b7009b49e4ba96c6,2022-07-06_09h31.10.876,Colour_Asymmetry_Pilot,2022.1.3,Win32,60.13952369,62c50e9c1127f2cd403a315f,,,,,,,,,,,,,,,,,,,,,,,,,,,,,,,,,,,,,,,,,,,,,,,,,,,,,,,,,,,,,,,,,,,,,,,,,,,,,,,,,,,,,,,,,,,,,,,,,,,,,,,,,,,,,,,,,,,,,,,,,,,,,,,,,,,,,,,,,,,,,,,,,,,,,,,,,,,,,,,,,,
0,23,23,65,1,,5fe3a0b4bf7c820835fc8fe1,62c53936b7009b49e4ba96c6,2022-07-06_09h31.10.876,Colour_Asymmetry_Pilot,2022.1.3,Win32,60.13952369,62c50e9c1127f2cd403a315f,,,,,,,,,,,,,,,,,,,,,,,,,,,,,,,,,,,,,,,,,,,,,,,,,,,,,,,,,,,,,,,,,,,,,,,,,,,,,,,,,,,,,,,,,,,,,,,,,,,,,,,,,,,,,,,,,,,,,,,,,,,,,,,,,,,,,,,,,,,,,,,,,,,,,,,,,,,,,,,,,,
0,24,24,29,1,,5fe3a0b4bf7c820835fc8fe1,62c53936b7009b49e4ba96c6,2022-07-06_09h31.10.876,Colour_Asymmetry_Pilot,2022.1.3,Win32,60.13952369,62c50e9c1127f2cd403a315f,,,,,,,,,,,,,,,,,,,,,,,,,,,,,,,,,,,,,,,,,,,,,,,,,,,,,,,,,,,,,,,,,,,,,,,,,,,,,,,,,,,,,,,,,,,,,,,,,,,,,,,,,,,,,,,,,,,,,,,,,,,,,,,,,,,,,,,,,,,,,,,,,,,,,,,,,,,,,,,,,,
0,25,25,84,1,,5fe3a0b4bf7c820835fc8fe1,62c53936b7009b49e4ba96c6,2022-07-06_09h31.10.876,Colour_Asymmetry_Pilot,2022.1.3,Win32,60.13952369,62c50e9c1127f2cd403a315f,,,,,,,,,,,,,,,,,,,,,,,,,,,,,,,,,,,,,,,,,,,,,,,,,,,,,,,,,,,,,,,,,,,,,,,,,,,,,,,,,,,,,,,,,,,,,,,,,,,,,,,,,,,,,,,,,,,,,,,,,,,,,,,,,,,,,,,,,,,,,,,,,,,,,,,,,,,,,,,,,,
0,26,26,24,1,,5fe3a0b4bf7c820835fc8fe1,62c53936b7009b49e4ba96c6,2022-07-06_09h31.10.876,Colour_Asymmetry_Pilot,2022.1.3,Win32,60.13952369,62c50e9c1127f2cd403a315f,,,,,,,,,,,,,,,,,,,,,,,,,,,,,,,,,,,,,,,,,,,,,,,,,,,,,,,,,,,,,,,,,,,,,,,,,,,,,,,,,,,,,,,,,,,,,,,,,,,,,,,,,,,,,,,,,,,,,,,,,,,,,,,,,,,,,,,,,,,,,,,,,,,,,,,,,,,,,,,,,,
0,27,27,56,1,,5fe3a0b4bf7c820835fc8fe1,62c53936b7009b49e4ba96c6,2022-07-06_09h31.10.876,Colour_Asymmetry_Pilot,2022.1.3,Win32,60.13952369,62c50e9c1127f2cd403a315f,,,,,,,,,,,,,,,,,,,,,,,,,,,,,,,,,,,,,,,,,,,,,,,,,,,,,,,,,,,,,,,,,,,,,,,,,,,,,,,,,,,,,,,,,,,,,,,,,,,,,,,,,,,,,,,,,,,,,,,,,,,,,,,,,,,,,,,,,,,,,,,,,,,,,,,,,,,,,,,,,,
0,28,28,48,1,,5fe3a0b4bf7c820835fc8fe1,62c53936b7009b49e4ba96c6,2022-07-06_09h31.10.876,Colour_Asymmetry_Pilot,2022.1.3,Win32,60.13952369,62c50e9c1127f2cd403a315f,,,,,,,,,,,,,,,,,,,,,,,,,,,,,,,,,,,,,,,,,,,,,,,,,,,,,,,,,,,,,,,,,,,,,,,,,,,,,,,,,,,,,,,,,,,,,,,,,,,,,,,,,,,,,,,,,,,,,,,,,,,,,,,,,,,,,,,,,,,,,,,,,,,,,,,,,,,,,,,,,,
0,29,29,20,1,,5fe3a0b4bf7c820835fc8fe1,62c53936b7009b49e4ba96c6,2022-07-06_09h31.10.876,Colour_Asymmetry_Pilot,2022.1.3,Win32,60.13952369,62c50e9c1127f2cd403a315f,,,,,,,,,,,,,,,,,,,,,,,,,,,,,,,,,,,,,,,,,,,,,,,,,,,,,,,,,,,,,,,,,,,,,,,,,,,,,,,,,,,,,,,,,,,,,,,,,,,,,,,,,,,,,,,,,,,,,,,,,,,,,,,,,,,,,,,,,,,,,,,,,,,,,,,,,,,,,,,,,,
0,30,30,66,1,,5fe3a0b4bf7c820835fc8fe1,62c53936b7009b49e4ba96c6,2022-07-06_09h31.10.876,Colour_Asymmetry_Pilot,2022.1.3,Win32,60.13952369,62c50e9c1127f2cd403a315f,,,,,,,,,,,,,,,,,,,,,,,,,,,,,,,,,,,,,,,,,,,,,,,,,,,,,,,,,,,,,,,,,,,,,,,,,,,,,,,,,,,,,,,,,,,,,,,,,,,,,,,,,,,,,,,,,,,,,,,,,,,,,,,,,,,,,,,,,,,,,,,,,,,,,,,,,,,,,,,,,,
0,31,31,35,1,,5fe3a0b4bf7c820835fc8fe1,62c53936b7009b49e4ba96c6,2022-07-06_09h31.10.876,Colour_Asymmetry_Pilot,2022.1.3,Win32,60.13952369,62c50e9c1127f2cd403a315f,,,,,,,,,,,,,,,,,,,,,,,,,,,,,,,,,,,,,,,,,,,,,,,,,,,,,,,,,,,,,,,,,,,,,,,,,,,,,,,,,,,,,,,,,,,,,,,,,,,,,,,,,,,,,,,,,,,,,,,,,,,,,,,,,,,,,,,,,,,,,,,,,,,,,,,,,,,,,,,,,,
0,32,32,88,1,,5fe3a0b4bf7c820835fc8fe1,62c53936b7009b49e4ba96c6,2022-07-06_09h31.10.876,Colour_Asymmetry_Pilot,2022.1.3,Win32,60.13952369,62c50e9c1127f2cd403a315f,,,,,,,,,,,,,,,,,,,,,,,,,,,,,,,,,,,,,,,,,,,,,,,,,,,,,,,,,,,,,,,,,,,,,,,,,,,,,,,,,,,,,,,,,,,,,,,,,,,,,,,,,,,,,,,,,,,,,,,,,,,,,,,,,,,,,,,,,,,,,,,,,,,,,,,,,,,,,,,,,,
0,33,33,30,1,,5fe3a0b4bf7c820835fc8fe1,62c53936b7009b49e4ba96c6,2022-07-06_09h31.10.876,Colour_Asymmetry_Pilot,2022.1.3,Win32,60.13952369,62c50e9c1127f2cd403a315f,,,,,,,,,,,,,,,,,,,,,,,,,,,,,,,,,,,,,,,,,,,,,,,,,,,,,,,,,,,,,,,,,,,,,,,,,,,,,,,,,,,,,,,,,,,,,,,,,,,,,,,,,,,,,,,,,,,,,,,,,,,,,,,,,,,,,,,,,,,,,,,,,,,,,,,,,,,,,,,,,,
0,34,34,15,1,,5fe3a0b4bf7c820835fc8fe1,62c53936b7009b49e4ba96c6,2022-07-06_09h31.10.876,Colour_Asymmetry_Pilot,2022.1.3,Win32,60.13952369,62c50e9c1127f2cd403a315f,,,,,,,,,,,,,,,,,,,,,,,,,,,,,,,,,,,,,,,,,,,,,,,,,,,,,,,,,,,,,,,,,,,,,,,,,,,,,,,,,,,,,,,,,,,,,,,,,,,,,,,,,,,,,,,,,,,,,,,,,,,,,,,,,,,,,,,,,,,,,,,,,,,,,,,,,,,,,,,,,,
0,35,35,73,1,,5fe3a0b4bf7c820835fc8fe1,62c53936b7009b49e4ba96c6,2022-07-06_09h31.10.876,Colour_Asymmetry_Pilot,2022.1.3,Win32,60.13952369,62c50e9c1127f2cd403a315f,,,,,,,,,,,,,,,,,,,,,,,,,,,,,,,,,,,,,,,,,,,,,,,,,,,,,,,,,,,,,,,,,,,,,,,,,,,,,,,,,,,,,,,,,,,,,,,,,,,,,,,,,,,,,,,,,,,,,,,,,,,,,,,,,,,,,,,,,,,,,,,,,,,,,,,,,,,,,,,,,,
0,36,36,58,1,,5fe3a0b4bf7c820835fc8fe1,62c53936b7009b49e4ba96c6,2022-07-06_09h31.10.876,Colour_Asymmetry_Pilot,2022.1.3,Win32,60.13952369,62c50e9c1127f2cd403a315f,,,,,,,,,,,,,,,,,,,,,,,,,,,,,,,,,,,,,,,,,,,,,,,,,,,,,,,,,,,,,,,,,,,,,,,,,,,,,,,,,,,,,,,,,,,,,,,,,,,,,,,,,,,,,,,,,,,,,,,,,,,,,,,,,,,,,,,,,,,,,,,,,,,,,,,,,,,,,,,,,,
0,37,37,80,1,,5fe3a0b4bf7c820835fc8fe1,62c53936b7009b49e4ba96c6,2022-07-06_09h31.10.876,Colour_Asymmetry_Pilot,2022.1.3,Win32,60.13952369,62c50e9c1127f2cd403a315f,,,,,,,,,,,,,,,,,,,,,,,,,,,,,,,,,,,,,,,,,,,,,,,,,,,,,,,,,,,,,,,,,,,,,,,,,,,,,,,,,,,,,,,,,,,,,,,,,,,,,,,,,,,,,,,,,,,,,,,,,,,,,,,,,,,,,,,,,,,,,,,,,,,,,,,,,,,,,,,,,,
0,38,38,14,1,,5fe3a0b4bf7c820835fc8fe1,62c53936b7009b49e4ba96c6,2022-07-06_09h31.10.876,Colour_Asymmetry_Pilot,2022.1.3,Win32,60.13952369,62c50e9c1127f2cd403a315f,,,,,,,,,,,,,,,,,,,,,,,,,,,,,,,,,,,,,,,,,,,,,,,,,,,,,,,,,,,,,,,,,,,,,,,,,,,,,,,,,,,,,,,,,,,,,,,,,,,,,,,,,,,,,,,,,,,,,,,,,,,,,,,,,,,,,,,,,,,,,,,,,,,,,,,,,,,,,,,,,,
0,39,39,83,1,,5fe3a0b4bf7c820835fc8fe1,62c53936b7009b49e4ba96c6,2022-07-06_09h31.10.876,Colour_Asymmetry_Pilot,2022.1.3,Win32,60.13952369,62c50e9c1127f2cd403a315f,,,,,,,,,,,,,,,,,,,,,,,,,,,,,,,,,,,,,,,,,,,,,,,,,,,,,,,,,,,,,,,,,,,,,,,,,,,,,,,,,,,,,,,,,,,,,,,,,,,,,,,,,,,,,,,,,,,,,,,,,,,,,,,,,,,,,,,,,,,,,,,,,,,,,,,,,,,,,,,,,,
0,40,40,57,1,,5fe3a0b4bf7c820835fc8fe1,62c53936b7009b49e4ba96c6,2022-07-06_09h31.10.876,Colour_Asymmetry_Pilot,2022.1.3,Win32,60.13952369,62c50e9c1127f2cd403a315f,,,,,,,,,,,,,,,,,,,,,,,,,,,,,,,,,,,,,,,,,,,,,,,,,,,,,,,,,,,,,,,,,,,,,,,,,,,,,,,,,,,,,,,,,,,,,,,,,,,,,,,,,,,,,,,,,,,,,,,,,,,,,,,,,,,,,,,,,,,,,,,,,,,,,,,,,,,,,,,,,,
0,41,41,2,1,,5fe3a0b4bf7c820835fc8fe1,62c53936b7009b49e4ba96c6,2022-07-06_09h31.10.876,Colour_Asymmetry_Pilot,2022.1.3,Win32,60.13952369,62c50e9c1127f2cd403a315f,,,,,,,,,,,,,,,,,,,,,,,,,,,,,,,,,,,,,,,,,,,,,,,,,,,,,,,,,,,,,,,,,,,,,,,,,,,,,,,,,,,,,,,,,,,,,,,,,,,,,,,,,,,,,,,,,,,,,,,,,,,,,,,,,,,,,,,,,,,,,,,,,,,,,,,,,,,,,,,,,,
0,42,42,92,1,,5fe3a0b4bf7c820835fc8fe1,62c53936b7009b49e4ba96c6,2022-07-06_09h31.10.876,Colour_Asymmetry_Pilot,2022.1.3,Win32,60.13952369,62c50e9c1127f2cd403a315f,,,,,,,,,,,,,,,,,,,,,,,,,,,,,,,,,,,,,,,,,,,,,,,,,,,,,,,,,,,,,,,,,,,,,,,,,,,,,,,,,,,,,,,,,,,,,,,,,,,,,,,,,,,,,,,,,,,,,,,,,,,,,,,,,,,,,,,,,,,,,,,,,,,,,,,,,,,,,,,,,,
0,43,43,11,1,,5fe3a0b4bf7c820835fc8fe1,62c53936b7009b49e4ba96c6,2022-07-06_09h31.10.876,Colour_Asymmetry_Pilot,2022.1.3,Win32,60.13952369,62c50e9c1127f2cd403a315f,,,,,,,,,,,,,,,,,,,,,,,,,,,,,,,,,,,,,,,,,,,,,,,,,,,,,,,,,,,,,,,,,,,,,,,,,,,,,,,,,,,,,,,,,,,,,,,,,,,,,,,,,,,,,,,,,,,,,,,,,,,,,,,,,,,,,,,,,,,,,,,,,,,,,,,,,,,,,,,,,,
0,44,44,55,1,,5fe3a0b4bf7c820835fc8fe1,62c53936b7009b49e4ba96c6,2022-07-06_09h31.10.876,Colour_Asymmetry_Pilot,2022.1.3,Win32,60.13952369,62c50e9c1127f2cd403a315f,,,,,,,,,,,,,,,,,,,,,,,,,,,,,,,,,,,,,,,,,,,,,,,,,,,,,,,,,,,,,,,,,,,,,,,,,,,,,,,,,,,,,,,,,,,,,,,,,,,,,,,,,,,,,,,,,,,,,,,,,,,,,,,,,,,,,,,,,,,,,,,,,,,,,,,,,,,,,,,,,,
0,45,45,25,1,,5fe3a0b4bf7c820835fc8fe1,62c53936b7009b49e4ba96c6,2022-07-06_09h31.10.876,Colour_Asymmetry_Pilot,2022.1.3,Win32,60.13952369,62c50e9c1127f2cd403a315f,,,,,,,,,,,,,,,,,,,,,,,,,,,,,,,,,,,,,,,,,,,,,,,,,,,,,,,,,,,,,,,,,,,,,,,,,,,,,,,,,,,,,,,,,,,,,,,,,,,,,,,,,,,,,,,,,,,,,,,,,,,,,,,,,,,,,,,,,,,,,,,,,,,,,,,,,,,,,,,,,,
0,46,46,18,1,,5fe3a0b4bf7c820835fc8fe1,62c53936b7009b49e4ba96c6,2022-07-06_09h31.10.876,Colour_Asymmetry_Pilot,2022.1.3,Win32,60.13952369,62c50e9c1127f2cd403a315f,,,,,,,,,,,,,,,,,,,,,,,,,,,,,,,,,,,,,,,,,,,,,,,,,,,,,,,,,,,,,,,,,,,,,,,,,,,,,,,,,,,,,,,,,,,,,,,,,,,,,,,,,,,,,,,,,,,,,,,,,,,,,,,,,,,,,,,,,,,,,,,,,,,,,,,,,,,,,,,,,,
0,47,47,59,1,,5fe3a0b4bf7c820835fc8fe1,62c53936b7009b49e4ba96c6,2022-07-06_09h31.10.876,Colour_Asymmetry_Pilot,2022.1.3,Win32,60.13952369,62c50e9c1127f2cd403a315f,,,,,,,,,,,,,,,,,,,,,,,,,,,,,,,,,,,,,,,,,,,,,,,,,,,,,,,,,,,,,,,,,,,,,,,,,,,,,,,,,,,,,,,,,,,,,,,,,,,,,,,,,,,,,,,,,,,,,,,,,,,,,,,,,,,,,,,,,,,,,,,,,,,,,,,,,,,,,,,,,,
0,48,48,8,1,,5fe3a0b4bf7c820835fc8fe1,62c53936b7009b49e4ba96c6,2022-07-06_09h31.10.876,Colour_Asymmetry_Pilot,2022.1.3,Win32,60.13952369,62c50e9c1127f2cd403a315f,,,,,,,,,,,,,,,,,,,,,,,,,,,,,,,,,,,,,,,,,,,,,,,,,,,,,,,,,,,,,,,,,,,,,,,,,,,,,,,,,,,,,,,,,,,,,,,,,,,,,,,,,,,,,,,,,,,,,,,,,,,,,,,,,,,,,,,,,,,,,,,,,,,,,,,,,,,,,,,,,,
0,49,49,61,1,,5fe3a0b4bf7c820835fc8fe1,62c53936b7009b49e4ba96c6,2022-07-06_09h31.10.876,Colour_Asymmetry_Pilot,2022.1.3,Win32,60.13952369,62c50e9c1127f2cd403a315f,,,,,,,,,,,,,,,,,,,,,,,,,,,,,,,,,,,,,,,,,,,,,,,,,,,,,,,,,,,,,,,,,,,,,,,,,,,,,,,,,,,,,,,,,,,,,,,,,,,,,,,,,,,,,,,,,,,,,,,,,,,,,,,,,,,,,,,,,,,,,,,,,,,,,,,,,,,,,,,,,,
0,50,50,69,1,,5fe3a0b4bf7c820835fc8fe1,62c53936b7009b49e4ba96c6,2022-07-06_09h31.10.876,Colour_Asymmetry_Pilot,2022.1.3,Win32,60.13952369,62c50e9c1127f2cd403a315f,,,,,,,,,,,,,,,,,,,,,,,,,,,,,,,,,,,,,,,,,,,,,,,,,,,,,,,,,,,,,,,,,,,,,,,,,,,,,,,,,,,,,,,,,,,,,,,,,,,,,,,,,,,,,,,,,,,,,,,,,,,,,,,,,,,,,,,,,,,,,,,,,,,,,,,,,,,,,,,,,,
0,51,51,10,1,,5fe3a0b4bf7c820835fc8fe1,62c53936b7009b49e4ba96c6,2022-07-06_09h31.10.876,Colour_Asymmetry_Pilot,2022.1.3,Win32,60.13952369,62c50e9c1127f2cd403a315f,,,,,,,,,,,,,,,,,,,,,,,,,,,,,,,,,,,,,,,,,,,,,,,,,,,,,,,,,,,,,,,,,,,,,,,,,,,,,,,,,,,,,,,,,,,,,,,,,,,,,,,,,,,,,,,,,,,,,,,,,,,,,,,,,,,,,,,,,,,,,,,,,,,,,,,,,,,,,,,,,,
0,52,52,31,1,,5fe3a0b4bf7c820835fc8fe1,62c53936b7009b49e4ba96c6,2022-07-06_09h31.10.876,Colour_Asymmetry_Pilot,2022.1.3,Win32,60.13952369,62c50e9c1127f2cd403a315f,,,,,,,,,,,,,,,,,,,,,,,,,,,,,,,,,,,,,,,,,,,,,,,,,,,,,,,,,,,,,,,,,,,,,,,,,,,,,,,,,,,,,,,,,,,,,,,,,,,,,,,,,,,,,,,,,,,,,,,,,,,,,,,,,,,,,,,,,,,,,,,,,,,,,,,,,,,,,,,,,,
0,53,53,16,1,,5fe3a0b4bf7c820835fc8fe1,62c53936b7009b49e4ba96c6,2022-07-06_09h31.10.876,Colour_Asymmetry_Pilot,2022.1.3,Win32,60.13952369,62c50e9c1127f2cd403a315f,,,,,,,,,,,,,,,,,,,,,,,,,,,,,,,,,,,,,,,,,,,,,,,,,,,,,,,,,,,,,,,,,,,,,,,,,,,,,,,,,,,,,,,,,,,,,,,,,,,,,,,,,,,,,,,,,,,,,,,,,,,,,,,,,,,,,,,,,,,,,,,,,,,,,,,,,,,,,,,,,,
0,54,54,38,1,,5fe3a0b4bf7c820835fc8fe1,62c53936b7009b49e4ba96c6,2022-07-06_09h31.10.876,Colour_Asymmetry_Pilot,2022.1.3,Win32,60.13952369,62c50e9c1127f2cd403a315f,,,,,,,,,,,,,,,,,,,,,,,,,,,,,,,,,,,,,,,,,,,,,,,,,,,,,,,,,,,,,,,,,,,,,,,,,,,,,,,,,,,,,,,,,,,,,,,,,,,,,,,,,,,,,,,,,,,,,,,,,,,,,,,,,,,,,,,,,,,,,,,,,,,,,,,,,,,,,,,,,,
0,55,55,79,1,,5fe3a0b4bf7c820835fc8fe1,62c53936b7009b49e4ba96c6,2022-07-06_09h31.10.876,Colour_Asymmetry_Pilot,2022.1.3,Win32,60.13952369,62c50e9c1127f2cd403a315f,,,,,,,,,,,,,,,,,,,,,,,,,,,,,,,,,,,,,,,,,,,,,,,,,,,,,,,,,,,,,,,,,,,,,,,,,,,,,,,,,,,,,,,,,,,,,,,,,,,,,,,,,,,,,,,,,,,,,,,,,,,,,,,,,,,,,,,,,,,,,,,,,,,,,,,,,,,,,,,,,,
0,56,56,7,1,,5fe3a0b4bf7c820835fc8fe1,62c53936b7009b49e4ba96c6,2022-07-06_09h31.10.876,Colour_Asymmetry_Pilot,2022.1.3,Win32,60.13952369,62c50e9c1127f2cd403a315f,,,,,,,,,,,,,,,,,,,,,,,,,,,,,,,,,,,,,,,,,,,,,,,,,,,,,,,,,,,,,,,,,,,,,,,,,,,,,,,,,,,,,,,,,,,,,,,,,,,,,,,,,,,,,,,,,,,,,,,,,,,,,,,,,,,,,,,,,,,,,,,,,,,,,,,,,,,,,,,,,,
0,57,57,36,1,,5fe3a0b4bf7c820835fc8fe1,62c53936b7009b49e4ba96c6,2022-07-06_09h31.10.876,Colour_Asymmetry_Pilot,2022.1.3,Win32,60.13952369,62c50e9c1127f2cd403a315f,,,,,,,,,,,,,,,,,,,,,,,,,,,,,,,,,,,,,,,,,,,,,,,,,,,,,,,,,,,,,,,,,,,,,,,,,,,,,,,,,,,,,,,,,,,,,,,,,,,,,,,,,,,,,,,,,,,,,,,,,,,,,,,,,,,,,,,,,,,,,,,,,,,,,,,,,,,,,,,,,,
0,58,58,4,1,,5fe3a0b4bf7c820835fc8fe1,62c53936b7009b49e4ba96c6,2022-07-06_09h31.10.876,Colour_Asymmetry_Pilot,2022.1.3,Win32,60.13952369,62c50e9c1127f2cd403a315f,,,,,,,,,,,,,,,,,,,,,,,,,,,,,,,,,,,,,,,,,,,,,,,,,,,,,,,,,,,,,,,,,,,,,,,,,,,,,,,,,,,,,,,,,,,,,,,,,,,,,,,,,,,,,,,,,,,,,,,,,,,,,,,,,,,,,,,,,,,,,,,,,,,,,,,,,,,,,,,,,,
0,59,59,43,1,,5fe3a0b4bf7c820835fc8fe1,62c53936b7009b49e4ba96c6,2022-07-06_09h31.10.876,Colour_Asymmetry_Pilot,2022.1.3,Win32,60.13952369,62c50e9c1127f2cd403a315f,,,,,,,,,,,,,,,,,,,,,,,,,,,,,,,,,,,,,,,,,,,,,,,,,,,,,,,,,,,,,,,,,,,,,,,,,,,,,,,,,,,,,,,,,,,,,,,,,,,,,,,,,,,,,,,,,,,,,,,,,,,,,,,,,,,,,,,,,,,,,,,,,,,,,,,,,,,,,,,,,,
0,60,60,22,1,,5fe3a0b4bf7c820835fc8fe1,62c53936b7009b49e4ba96c6,2022-07-06_09h31.10.876,Colour_Asymmetry_Pilot,2022.1.3,Win32,60.13952369,62c50e9c1127f2cd403a315f,,,,,,,,,,,,,,,,,,,,,,,,,,,,,,,,,,,,,,,,,,,,,,,,,,,,,,,,,,,,,,,,,,,,,,,,,,,,,,,,,,,,,,,,,,,,,,,,,,,,,,,,,,,,,,,,,,,,,,,,,,,,,,,,,,,,,,,,,,,,,,,,,,,,,,,,,,,,,,,,,,
0,61,61,72,1,,5fe3a0b4bf7c820835fc8fe1,62c53936b7009b49e4ba96c6,2022-07-06_09h31.10.876,Colour_Asymmetry_Pilot,2022.1.3,Win32,60.13952369,62c50e9c1127f2cd403a315f,,,,,,,,,,,,,,,,,,,,,,,,,,,,,,,,,,,,,,,,,,,,,,,,,,,,,,,,,,,,,,,,,,,,,,,,,,,,,,,,,,,,,,,,,,,,,,,,,,,,,,,,,,,,,,,,,,,,,,,,,,,,,,,,,,,,,,,,,,,,,,,,,,,,,,,,,,,,,,,,,,
0,62,62,82,1,,5fe3a0b4bf7c820835fc8fe1,62c53936b7009b49e4ba96c6,2022-07-06_09h31.10.876,Colour_Asymmetry_Pilot,2022.1.3,Win32,60.13952369,62c50e9c1127f2cd403a315f,,,,,,,,,,,,,,,,,,,,,,,,,,,,,,,,,,,,,,,,,,,,,,,,,,,,,,,,,,,,,,,,,,,,,,,,,,,,,,,,,,,,,,,,,,,,,,,,,,,,,,,,,,,,,,,,,,,,,,,,,,,,,,,,,,,,,,,,,,,,,,,,,,,,,,,,,,,,,,,,,,
0,63,63,89,1,,5fe3a0b4bf7c820835fc8fe1,62c53936b7009b49e4ba96c6,2022-07-06_09h31.10.876,Colour_Asymmetry_Pilot,2022.1.3,Win32,60.13952369,62c50e9c1127f2cd403a315f,,,,,,,,,,,,,,,,,,,,,,,,,,,,,,,,,,,,,,,,,,,,,,,,,,,,,,,,,,,,,,,,,,,,,,,,,,,,,,,,,,,,,,,,,,,,,,,,,,,,,,,,,,,,,,,,,,,,,,,,,,,,,,,,,,,,,,,,,,,,,,,,,,,,,,,,,,,,,,,,,,
0,64,64,45,1,,5fe3a0b4bf7c820835fc8fe1,62c53936b7009b49e4ba96c6,2022-07-06_09h31.10.876,Colour_Asymmetry_Pilot,2022.1.3,Win32,60.13952369,62c50e9c1127f2cd403a315f,,,,,,,,,,,,,,,,,,,,,,,,,,,,,,,,,,,,,,,,,,,,,,,,,,,,,,,,,,,,,,,,,,,,,,,,,,,,,,,,,,,,,,,,,,,,,,,,,,,,,,,,,,,,,,,,,,,,,,,,,,,,,,,,,,,,,,,,,,,,,,,,,,,,,,,,,,,,,,,,,,
0,65,65,37,1,,5fe3a0b4bf7c820835fc8fe1,62c53936b7009b49e4ba96c6,2022-07-06_09h31.10.876,Colour_Asymmetry_Pilot,2022.1.3,Win32,60.13952369,62c50e9c1127f2cd403a315f,,,,,,,,,,,,,,,,,,,,,,,,,,,,,,,,,,,,,,,,,,,,,,,,,,,,,,,,,,,,,,,,,,,,,,,,,,,,,,,,,,,,,,,,,,,,,,,,,,,,,,,,,,,,,,,,,,,,,,,,,,,,,,,,,,,,,,,,,,,,,,,,,,,,,,,,,,,,,,,,,,
0,66,66,40,1,,5fe3a0b4bf7c820835fc8fe1,62c53936b7009b49e4ba96c6,2022-07-06_09h31.10.876,Colour_Asymmetry_Pilot,2022.1.3,Win32,60.13952369,62c50e9c1127f2cd403a315f,,,,,,,,,,,,,,,,,,,,,,,,,,,,,,,,,,,,,,,,,,,,,,,,,,,,,,,,,,,,,,,,,,,,,,,,,,,,,,,,,,,,,,,,,,,,,,,,,,,,,,,,,,,,,,,,,,,,,,,,,,,,,,,,,,,,,,,,,,,,,,,,,,,,,,,,,,,,,,,,,,
0,67,67,91,1,,5fe3a0b4bf7c820835fc8fe1,62c53936b7009b49e4ba96c6,2022-07-06_09h31.10.876,Colour_Asymmetry_Pilot,2022.1.3,Win32,60.13952369,62c50e9c1127f2cd403a315f,,,,,,,,,,,,,,,,,,,,,,,,,,,,,,,,,,,,,,,,,,,,,,,,,,,,,,,,,,,,,,,,,,,,,,,,,,,,,,,,,,,,,,,,,,,,,,,,,,,,,,,,,,,,,,,,,,,,,,,,,,,,,,,,,,,,,,,,,,,,,,,,,,,,,,,,,,,,,,,,,,
0,68,68,71,1,,5fe3a0b4bf7c820835fc8fe1,62c53936b7009b49e4ba96c6,2022-07-06_09h31.10.876,Colour_Asymmetry_Pilot,2022.1.3,Win32,60.13952369,62c50e9c1127f2cd403a315f,,,,,,,,,,,,,,,,,,,,,,,,,,,,,,,,,,,,,,,,,,,,,,,,,,,,,,,,,,,,,,,,,,,,,,,,,,,,,,,,,,,,,,,,,,,,,,,,,,,,,,,,,,,,,,,,,,,,,,,,,,,,,,,,,,,,,,,,,,,,,,,,,,,,,,,,,,,,,,,,,,
0,69,69,78,1,,5fe3a0b4bf7c820835fc8fe1,62c53936b7009b49e4ba96c6,2022-07-06_09h31.10.876,Colour_Asymmetry_Pilot,2022.1.3,Win32,60.13952369,62c50e9c1127f2cd403a315f,,,,,,,,,,,,,,,,,,,,,,,,,,,,,,,,,,,,,,,,,,,,,,,,,,,,,,,,,,,,,,,,,,,,,,,,,,,,,,,,,,,,,,,,,,,,,,,,,,,,,,,,,,,,,,,,,,,,,,,,,,,,,,,,,,,,,,,,,,,,,,,,,,,,,,,,,,,,,,,,,,
0,70,70,52,1,,5fe3a0b4bf7c820835fc8fe1,62c53936b7009b49e4ba96c6,2022-07-06_09h31.10.876,Colour_Asymmetry_Pilot,2022.1.3,Win32,60.13952369,62c50e9c1127f2cd403a315f,,,,,,,,,,,,,,,,,,,,,,,,,,,,,,,,,,,,,,,,,,,,,,,,,,,,,,,,,,,,,,,,,,,,,,,,,,,,,,,,,,,,,,,,,,,,,,,,,,,,,,,,,,,,,,,,,,,,,,,,,,,,,,,,,,,,,,,,,,,,,,,,,,,,,,,,,,,,,,,,,,
0,71,71,50,1,,5fe3a0b4bf7c820835fc8fe1,62c53936b7009b49e4ba96c6,2022-07-06_09h31.10.876,Colour_Asymmetry_Pilot,2022.1.3,Win32,60.13952369,62c50e9c1127f2cd403a315f,,,,,,,,,,,,,,,,,,,,,,,,,,,,,,,,,,,,,,,,,,,,,,,,,,,,,,,,,,,,,,,,,,,,,,,,,,,,,,,,,,,,,,,,,,,,,,,,,,,,,,,,,,,,,,,,,,,,,,,,,,,,,,,,,,,,,,,,,,,,,,,,,,,,,,,,,,,,,,,,,,
0,72,72,46,1,,5fe3a0b4bf7c820835fc8fe1,62c53936b7009b49e4ba96c6,2022-07-06_09h31.10.876,Colour_Asymmetry_Pilot,2022.1.3,Win32,60.13952369,62c50e9c1127f2cd403a315f,,,,,,,,,,,,,,,,,,,,,,,,,,,,,,,,,,,,,,,,,,,,,,,,,,,,,,,,,,,,,,,,,,,,,,,,,,,,,,,,,,,,,,,,,,,,,,,,,,,,,,,,,,,,,,,,,,,,,,,,,,,,,,,,,,,,,,,,,,,,,,,,,,,,,,,,,,,,,,,,,,
0,73,73,63,1,,5fe3a0b4bf7c820835fc8fe1,62c53936b7009b49e4ba96c6,2022-07-06_09h31.10.876,Colour_Asymmetry_Pilot,2022.1.3,Win32,60.13952369,62c50e9c1127f2cd403a315f,,,,,,,,,,,,,,,,,,,,,,,,,,,,,,,,,,,,,,,,,,,,,,,,,,,,,,,,,,,,,,,,,,,,,,,,,,,,,,,,,,,,,,,,,,,,,,,,,,,,,,,,,,,,,,,,,,,,,,,,,,,,,,,,,,,,,,,,,,,,,,,,,,,,,,,,,,,,,,,,,,
0,74,74,32,1,,5fe3a0b4bf7c820835fc8fe1,62c53936b7009b49e4ba96c6,2022-07-06_09h31.10.876,Colour_Asymmetry_Pilot,2022.1.3,Win32,60.13952369,62c50e9c1127f2cd403a315f,,,,,,,,,,,,,,,,,,,,,,,,,,,,,,,,,,,,,,,,,,,,,,,,,,,,,,,,,,,,,,,,,,,,,,,,,,,,,,,,,,,,,,,,,,,,,,,,,,,,,,,,,,,,,,,,,,,,,,,,,,,,,,,,,,,,,,,,,,,,,,,,,,,,,,,,,,,,,,,,,,
0,75,75,19,1,,5fe3a0b4bf7c820835fc8fe1,62c53936b7009b49e4ba96c6,2022-07-06_09h31.10.876,Colour_Asymmetry_Pilot,2022.1.3,Win32,60.13952369,62c50e9c1127f2cd403a315f,,,,,,,,,,,,,,,,,,,,,,,,,,,,,,,,,,,,,,,,,,,,,,,,,,,,,,,,,,,,,,,,,,,,,,,,,,,,,,,,,,,,,,,,,,,,,,,,,,,,,,,,,,,,,,,,,,,,,,,,,,,,,,,,,,,,,,,,,,,,,,,,,,,,,,,,,,,,,,,,,,
0,76,76,86,1,,5fe3a0b4bf7c820835fc8fe1,62c53936b7009b49e4ba96c6,2022-07-06_09h31.10.876,Colour_Asymmetry_Pilot,2022.1.3,Win32,60.13952369,62c50e9c1127f2cd403a315f,,,,,,,,,,,,,,,,,,,,,,,,,,,,,,,,,,,,,,,,,,,,,,,,,,,,,,,,,,,,,,,,,,,,,,,,,,,,,,,,,,,,,,,,,,,,,,,,,,,,,,,,,,,,,,,,,,,,,,,,,,,,,,,,,,,,,,,,,,,,,,,,,,,,,,,,,,,,,,,,,,
0,77,77,28,1,,5fe3a0b4bf7c820835fc8fe1,62c53936b7009b49e4ba96c6,2022-07-06_09h31.10.876,Colour_Asymmetry_Pilot,2022.1.3,Win32,60.13952369,62c50e9c1127f2cd403a315f,,,,,,,,,,,,,,,,,,,,,,,,,,,,,,,,,,,,,,,,,,,,,,,,,,,,,,,,,,,,,,,,,,,,,,,,,,,,,,,,,,,,,,,,,,,,,,,,,,,,,,,,,,,,,,,,,,,,,,,,,,,,,,,,,,,,,,,,,,,,,,,,,,,,,,,,,,,,,,,,,,
0,78,78,76,1,,5fe3a0b4bf7c820835fc8fe1,62c53936b7009b49e4ba96c6,2022-07-06_09h31.10.876,Colour_Asymmetry_Pilot,2022.1.3,Win32,60.13952369,62c50e9c1127f2cd403a315f,,,,,,,,,,,,,,,,,,,,,,,,,,,,,,,,,,,,,,,,,,,,,,,,,,,,,,,,,,,,,,,,,,,,,,,,,,,,,,,,,,,,,,,,,,,,,,,,,,,,,,,,,,,,,,,,,,,,,,,,,,,,,,,,,,,,,,,,,,,,,,,,,,,,,,,,,,,,,,,,,,
0,79,79,6,1,,5fe3a0b4bf7c820835fc8fe1,62c53936b7009b49e4ba96c6,2022-07-06_09h31.10.876,Colour_Asymmetry_Pilot,2022.1.3,Win32,60.13952369,62c50e9c1127f2cd403a315f,,,,,,,,,,,,,,,,,,,,,,,,,,,,,,,,,,,,,,,,,,,,,,,,,,,,,,,,,,,,,,,,,,,,,,,,,,,,,,,,,,,,,,,,,,,,,,,,,,,,,,,,,,,,,,,,,,,,,,,,,,,,,,,,,,,,,,,,,,,,,,,,,,,,,,,,,,,,,,,,,,
0,80,80,26,1,,5fe3a0b4bf7c820835fc8fe1,62c53936b7009b49e4ba96c6,2022-07-06_09h31.10.876,Colour_Asymmetry_Pilot,2022.1.3,Win32,60.13952369,62c50e9c1127f2cd403a315f,,,,,,,,,,,,,,,,,,,,,,,,,,,,,,,,,,,,,,,,,,,,,,,,,,,,,,,,,,,,,,,,,,,,,,,,,,,,,,,,,,,,,,,,,,,,,,,,,,,,,,,,,,,,,,,,,,,,,,,,,,,,,,,,,,,,,,,,,,,,,,,,,,,,,,,,,,,,,,,,,,
0,81,81,85,1,,5fe3a0b4bf7c820835fc8fe1,62c53936b7009b49e4ba96c6,2022-07-06_09h31.10.876,Colour_Asymmetry_Pilot,2022.1.3,Win32,60.13952369,62c50e9c1127f2cd403a315f,,,,,,,,,,,,,,,,,,,,,,,,,,,,,,,,,,,,,,,,,,,,,,,,,,,,,,,,,,,,,,,,,,,,,,,,,,,,,,,,,,,,,,,,,,,,,,,,,,,,,,,,,,,,,,,,,,,,,,,,,,,,,,,,,,,,,,,,,,,,,,,,,,,,,,,,,,,,,,,,,,
0,82,82,47,1,,5fe3a0b4bf7c820835fc8fe1,62c53936b7009b49e4ba96c6,2022-07-06_09h31.10.876,Colour_Asymmetry_Pilot,2022.1.3,Win32,60.13952369,62c50e9c1127f2cd403a315f,,,,,,,,,,,,,,,,,,,,,,,,,,,,,,,,,,,,,,,,,,,,,,,,,,,,,,,,,,,,,,,,,,,,,,,,,,,,,,,,,,,,,,,,,,,,,,,,,,,,,,,,,,,,,,,,,,,,,,,,,,,,,,,,,,,,,,,,,,,,,,,,,,,,,,,,,,,,,,,,,,
0,83,83,23,1,,5fe3a0b4bf7c820835fc8fe1,62c53936b7009b49e4ba96c6,2022-07-06_09h31.10.876,Colour_Asymmetry_Pilot,2022.1.3,Win32,60.13952369,62c50e9c1127f2cd403a315f,,,,,,,,,,,,,,,,,,,,,,,,,,,,,,,,,,,,,,,,,,,,,,,,,,,,,,,,,,,,,,,,,,,,,,,,,,,,,,,,,,,,,,,,,,,,,,,,,,,,,,,,,,,,,,,,,,,,,,,,,,,,,,,,,,,,,,,,,,,,,,,,,,,,,,,,,,,,,,,,,,
0,84,84,44,1,,5fe3a0b4bf7c820835fc8fe1,62c53936b7009b49e4ba96c6,2022-07-06_09h31.10.876,Colour_Asymmetry_Pilot,2022.1.3,Win32,60.13952369,62c50e9c1127f2cd403a315f,,,,,,,,,,,,,,,,,,,,,,,,,,,,,,,,,,,,,,,,,,,,,,,,,,,,,,,,,,,,,,,,,,,,,,,,,,,,,,,,,,,,,,,,,,,,,,,,,,,,,,,,,,,,,,,,,,,,,,,,,,,,,,,,,,,,,,,,,,,,,,,,,,,,,,,,,,,,,,,,,,
0,85,85,9,1,,5fe3a0b4bf7c820835fc8fe1,62c53936b7009b49e4ba96c6,2022-07-06_09h31.10.876,Colour_Asymmetry_Pilot,2022.1.3,Win32,60.13952369,62c50e9c1127f2cd403a315f,,,,,,,,,,,,,,,,,,,,,,,,,,,,,,,,,,,,,,,,,,,,,,,,,,,,,,,,,,,,,,,,,,,,,,,,,,,,,,,,,,,,,,,,,,,,,,,,,,,,,,,,,,,,,,,,,,,,,,,,,,,,,,,,,,,,,,,,,,,,,,,,,,,,,,,,,,,,,,,,,,
0,86,86,21,1,,5fe3a0b4bf7c820835fc8fe1,62c53936b7009b49e4ba96c6,2022-07-06_09h31.10.876,Colour_Asymmetry_Pilot,2022.1.3,Win32,60.13952369,62c50e9c1127f2cd403a315f,,,,,,,,,,,,,,,,,,,,,,,,,,,,,,,,,,,,,,,,,,,,,,,,,,,,,,,,,,,,,,,,,,,,,,,,,,,,,,,,,,,,,,,,,,,,,,,,,,,,,,,,,,,,,,,,,,,,,,,,,,,,,,,,,,,,,,,,,,,,,,,,,,,,,,,,,,,,,,,,,,
0,87,87,70,1,,5fe3a0b4bf7c820835fc8fe1,62c53936b7009b49e4ba96c6,2022-07-06_09h31.10.876,Colour_Asymmetry_Pilot,2022.1.3,Win32,60.13952369,62c50e9c1127f2cd403a315f,,,,,,,,,,,,,,,,,,,,,,,,,,,,,,,,,,,,,,,,,,,,,,,,,,,,,,,,,,,,,,,,,,,,,,,,,,,,,,,,,,,,,,,,,,,,,,,,,,,,,,,,,,,,,,,,,,,,,,,,,,,,,,,,,,,,,,,,,,,,,,,,,,,,,,,,,,,,,,,,,,
0,88,88,68,1,,5fe3a0b4bf7c820835fc8fe1,62c53936b7009b49e4ba96c6,2022-07-06_09h31.10.876,Colour_Asymmetry_Pilot,2022.1.3,Win32,60.13952369,62c50e9c1127f2cd403a315f,,,,,,,,,,,,,,,,,,,,,,,,,,,,,,,,,,,,,,,,,,,,,,,,,,,,,,,,,,,,,,,,,,,,,,,,,,,,,,,,,,,,,,,,,,,,,,,,,,,,,,,,,,,,,,,,,,,,,,,,,,,,,,,,,,,,,,,,,,,,,,,,,,,,,,,,,,,,,,,,,,
0,89,89,90,1,,5fe3a0b4bf7c820835fc8fe1,62c53936b7009b49e4ba96c6,2022-07-06_09h31.10.876,Colour_Asymmetry_Pilot,2022.1.3,Win32,60.13952369,62c50e9c1127f2cd403a315f,,,,,,,,,,,,,,,,,,,,,,,,,,,,,,,,,,,,,,,,,,,,,,,,,,,,,,,,,,,,,,,,,,,,,,,,,,,,,,,,,,,,,,,,,,,,,,,,,,,,,,,,,,,,,,,,,,,,,,,,,,,,,,,,,,,,,,,,,,,,,,,,,,,,,,,,,,,,,,,,,,
0,90,90,27,1,,5fe3a0b4bf7c820835fc8fe1,62c53936b7009b49e4ba96c6,2022-07-06_09h31.10.876,Colour_Asymmetry_Pilot,2022.1.3,Win32,60.13952369,62c50e9c1127f2cd403a315f,,,,,,,,,,,,,,,,,,,,,,,,,,,,,,,,,,,,,,,,,,,,,,,,,,,,,,,,,,,,,,,,,,,,,,,,,,,,,,,,,,,,,,,,,,,,,,,,,,,,,,,,,,,,,,,,,,,,,,,,,,,,,,,,,,,,,,,,,,,,,,,,,,,,,,,,,,,,,,,,,,
0,91,91,75,1,,5fe3a0b4bf7c820835fc8fe1,62c53936b7009b49e4ba96c6,2022-07-06_09h31.10.876,Colour_Asymmetry_Pilot,2022.1.3,Win32,60.13952369,62c50e9c1127f2cd403a315f,,,,,,,,,,,,,,,,,,,,,,,,,,,,,,,,,,,,,,,,,,,,,,,,,,,,,,,,,,,,,,,,,,,,,,,,,,,,,,,,,,,,,,,,,,,,,,,,,,,,,,,,,,,,,,,,,,,,,,,,,,,,,,,,,,,,,,,,,,,,,,,,,,,,,,,,,,,,,,,,,,
0,92,92,12,1,,5fe3a0b4bf7c820835fc8fe1,62c53936b7009b49e4ba96c6,2022-07-06_09h31.10.876,Colour_Asymmetry_Pilot,2022.1.3,Win32,60.13952369,62c50e9c1127f2cd403a315f,,,,,,,,,,,,,,,,,,,,,,,,,,,,,,,,,,,,,,,,,,,,,,,,,,,,,,,,,,,,,,,,,,,,,,,,,,,,,,,,,,,,,,,,,,,,,,,,,,,,,,,,,,,,,,,,,,,,,,,,,,,,,,,,,,,,,,,,,,,,,,,,,,,,,,,,,,,,,,,,,,
,,,,,,5fe3a0b4bf7c820835fc8fe1,62c53936b7009b49e4ba96c6,2022-07-06_09h31.10.876,Colour_Asymmetry_Pilot,2022.1.3,Win32,60.13952369,62c50e9c1127f2cd403a315f,0,0,0,53,1,threefour,,,,,,,,,,,,,,,,,,,,,,,,,,,,,,,,,,,,,,,,,,,,,,,,,,,,,,,,,,,,,,,,,,,,,,,,,,,,,,,,,,,,,,,,,,,,,,,,,,,,,,,,,,,,,,,,,,,,,,,,,,,,,,,,,,,,,,,,,,,,,,,,,,,,,,,,,,,,
,,,,,,5fe3a0b4bf7c820835fc8fe1,62c53936b7009b49e4ba96c6,2022-07-06_09h31.10.876,Colour_Asymmetry_Pilot,2022.1.3,Win32,60.13952369,62c50e9c1127f2cd403a315f,0,1,1,96,1,onetwo,,,,,,,,,,,,,,,,,,,,,,,,,,,,,,,,,,,,,,,,,,,,,,,,,,,,,,,,,,,,,,,,,,,,,,,,,,,,,,,,,,,,,,,,,,,,,,,,,,,,,,,,,,,,,,,,,,,,,,,,,,,,,,,,,,,,,,,,,,,,,,,,,,,,,,,,,,,,
,,,,,,5fe3a0b4bf7c820835fc8fe1,62c53936b7009b49e4ba96c6,2022-07-06_09h31.10.876,Colour_Asymmetry_Pilot,2022.1.3,Win32,60.13952369,62c50e9c1127f2cd403a315f,0,2,2,121,1,onethree,,,,,,,,,,,,,,,,,,,,,,,,,,,,,,,,,,,,,,,,,,,,,,,,,,,,,,,,,,,,,,,,,,,,,,,,,,,,,,,,,,,,,,,,,,,,,,,,,,,,,,,,,,,,,,,,,,,,,,,,,,,,,,,,,,,,,,,,,,,,,,,,,,,,,,,,,,,,
,,,,,,5fe3a0b4bf7c820835fc8fe1,62c53936b7009b49e4ba96c6,2022-07-06_09h31.10.876,Colour_Asymmetry_Pilot,2022.1.3,Win32,60.13952369,62c50e9c1127f2cd403a315f,0,3,3,44,1,threeone,,,,,,,,,,,,,,,,,,,,,,,,,,,,,,,,,,,,,,,,,,,,,,,,,,,,,,,,,,,,,,,,,,,,,,,,,,,,,,,,,,,,,,,,,,,,,,,,,,,,,,,,,,,,,,,,,,,,,,,,,,,,,,,,,,,,,,,,,,,,,,,,,,,,,,,,,,,,
,,,,,,5fe3a0b4bf7c820835fc8fe1,62c53936b7009b49e4ba96c6,2022-07-06_09h31.10.876,Colour_Asymmetry_Pilot,2022.1.3,Win32,60.13952369,62c50e9c1127f2cd403a315f,0,4,4,6,1,fourtwo,,,,,,,,,,,,,,,,,,,,,,,,,,,,,,,,,,,,,,,,,,,,,,,,,,,,,,,,,,,,,,,,,,,,,,,,,,,,,,,,,,,,,,,,,,,,,,,,,,,,,,,,,,,,,,,,,,,,,,,,,,,,,,,,,,,,,,,,,,,,,,,,,,,,,,,,,,,,
,,,,,,5fe3a0b4bf7c820835fc8fe1,62c53936b7009b49e4ba96c6,2022-07-06_09h31.10.876,Colour_Asymmetry_Pilot,2022.1.3,Win32,60.13952369,62c50e9c1127f2cd403a315f,0,5,5,118,1,fourtwo,,,,,,,,,,,,,,,,,,,,,,,,,,,,,,,,,,,,,,,,,,,,,,,,,,,,,,,,,,,,,,,,,,,,,,,,,,,,,,,,,,,,,,,,,,,,,,,,,,,,,,,,,,,,,,,,,,,,,,,,,,,,,,,,,,,,,,,,,,,,,,,,,,,,,,,,,,,,
,,,,,,5fe3a0b4bf7c820835fc8fe1,62c53936b7009b49e4ba96c6,2022-07-06_09h31.10.876,Colour_Asymmetry_Pilot,2022.1.3,Win32,60.13952369,62c50e9c1127f2cd403a315f,0,6,6,11,1,twofour,,,,,,,,,,,,,,,,,,,,,,,,,,,,,,,,,,,,,,,,,,,,,,,,,,,,,,,,,,,,,,,,,,,,,,,,,,,,,,,,,,,,,,,,,,,,,,,,,,,,,,,,,,,,,,,,,,,,,,,,,,,,,,,,,,,,,,,,,,,,,,,,,,,,,,,,,,,,
,,,,,,5fe3a0b4bf7c820835fc8fe1,62c53936b7009b49e4ba96c6,2022-07-06_09h31.10.876,Colour_Asymmetry_Pilot,2022.1.3,Win32,60.13952369,62c50e9c1127f2cd403a315f,0,7,7,126,1,fourtwo,,,,,,,,,,,,,,,,,,,,,,,,,,,,,,,,,,,,,,,,,,,,,,,,,,,,,,,,,,,,,,,,,,,,,,,,,,,,,,,,,,,,,,,,,,,,,,,,,,,,,,,,,,,,,,,,,,,,,,,,,,,,,,,,,,,,,,,,,,,,,,,,,,,,,,,,,,,,
,,,,,,5fe3a0b4bf7c820835fc8fe1,62c53936b7009b49e4ba96c6,2022-07-06_09h31.10.876,Colour_Asymmetry_Pilot,2022.1.3,Win32,60.13952369,62c50e9c1127f2cd403a315f,0,8,8,64,1,onetwo,,,,,,,,,,,,,,,,,,,,,,,,,,,,,,,,,,,,,,,,,,,,,,,,,,,,,,,,,,,,,,,,,,,,,,,,,,,,,,,,,,,,,,,,,,,,,,,,,,,,,,,,,,,,,,,,,,,,,,,,,,,,,,,,,,,,,,,,,,,,,,,,,,,,,,,,,,,,
,,,,,,5fe3a0b4bf7c820835fc8fe1,62c53936b7009b49e4ba96c6,2022-07-06_09h31.10.876,Colour_Asymmetry_Pilot,2022.1.3,Win32,60.13952369,62c50e9c1127f2cd403a315f,0,9,9,69,1,threefour,,,,,,,,,,,,,,,,,,,,,,,,,,,,,,,,,,,,,,,,,,,,,,,,,,,,,,,,,,,,,,,,,,,,,,,,,,,,,,,,,,,,,,,,,,,,,,,,,,,,,,,,,,,,,,,,,,,,,,,,,,,,,,,,,,,,,,,,,,,,,,,,,,,,,,,,,,,,
,,,,,,5fe3a0b4bf7c820835fc8fe1,62c53936b7009b49e4ba96c6,2022-07-06_09h31.10.876,Colour_Asymmetry_Pilot,2022.1.3,Win32,60.13952369,62c50e9c1127f2cd403a315f,0,10,10,59,1,twofour,,,,,,,,,,,,,,,,,,,,,,,,,,,,,,,,,,,,,,,,,,,,,,,,,,,,,,,,,,,,,,,,,,,,,,,,,,,,,,,,,,,,,,,,,,,,,,,,,,,,,,,,,,,,,,,,,,,,,,,,,,,,,,,,,,,,,,,,,,,,,,,,,,,,,,,,,,,,
,,,,,,5fe3a0b4bf7c820835fc8fe1,62c53936b7009b49e4ba96c6,2022-07-06_09h31.10.876,Colour_Asymmetry_Pilot,2022.1.3,Win32,60.13952369,62c50e9c1127f2cd403a315f,0,11,11,66,1,twoone,,,,,,,,,,,,,,,,,,,,,,,,,,,,,,,,,,,,,,,,,,,,,,,,,,,,,,,,,,,,,,,,,,,,,,,,,,,,,,,,,,,,,,,,,,,,,,,,,,,,,,,,,,,,,,,,,,,,,,,,,,,,,,,,,,,,,,,,,,,,,,,,,,,,,,,,,,,,
,,,,,,5fe3a0b4bf7c820835fc8fe1,62c53936b7009b49e4ba96c6,2022-07-06_09h31.10.876,Colour_Asymmetry_Pilot,2022.1.3,Win32,60.13952369,62c50e9c1127f2cd403a315f,0,12,12,150,1,fourtwo,,,,,,,,,,,,,,,,,,,,,,,,,,,,,,,,,,,,,,,,,,,,,,,,,,,,,,,,,,,,,,,,,,,,,,,,,,,,,,,,,,,,,,,,,,,,,,,,,,,,,,,,,,,,,,,,,,,,,,,,,,,,,,,,,,,,,,,,,,,,,,,,,,,,,,,,,,,,
,,,,,,5fe3a0b4bf7c820835fc8fe1,62c53936b7009b49e4ba96c6,2022-07-06_09h31.10.876,Colour_Asymmetry_Pilot,2022.1.3,Win32,60.13952369,62c50e9c1127f2cd403a315f,0,13,13,54,1,fourtwo,,,,,,,,,,,,,,,,,,,,,,,,,,,,,,,,,,,,,,,,,,,,,,,,,,,,,,,,,,,,,,,,,,,,,,,,,,,,,,,,,,,,,,,,,,,,,,,,,,,,,,,,,,,,,,,,,,,,,,,,,,,,,,,,,,,,,,,,,,,,,,,,,,,,,,,,,,,,
,,,,,,5fe3a0b4bf7c820835fc8fe1,62c53936b7009b49e4ba96c6,2022-07-06_09h31.10.876,Colour_Asymmetry_Pilot,2022.1.3,Win32,60.13952369,62c50e9c1127f2cd403a315f,0,14,14,49,1,onethree,,,,,,,,,,,,,,,,,,,,,,,,,,,,,,,,,,,,,,,,,,,,,,,,,,,,,,,,,,,,,,,,,,,,,,,,,,,,,,,,,,,,,,,,,,,,,,,,,,,,,,,,,,,,,,,,,,,,,,,,,,,,,,,,,,,,,,,,,,,,,,,,,,,,,,,,,,,,
,,,,,,5fe3a0b4bf7c820835fc8fe1,62c53936b7009b49e4ba96c6,2022-07-06_09h31.10.876,Colour_Asymmetry_Pilot,2022.1.3,Win32,60.13952369,62c50e9c1127f2cd403a315f,0,15,15,133,1,threefour,,,,,,,,,,,,,,,,,,,,,,,,,,,,,,,,,,,,,,,,,,,,,,,,,,,,,,,,,,,,,,,,,,,,,,,,,,,,,,,,,,,,,,,,,,,,,,,,,,,,,,,,,,,,,,,,,,,,,,,,,,,,,,,,,,,,,,,,,,,,,,,,,,,,,,,,,,,,
,,,,,,5fe3a0b4bf7c820835fc8fe1,62c53936b7009b49e4ba96c6,2022-07-06_09h31.10.876,Colour_Asymmetry_Pilot,2022.1.3,Win32,60.13952369,62c50e9c1127f2cd403a315f,0,16,16,15,1,fourthree,,,,,,,,,,,,,,,,,,,,,,,,,,,,,,,,,,,,,,,,,,,,,,,,,,,,,,,,,,,,,,,,,,,,,,,,,,,,,,,,,,,,,,,,,,,,,,,,,,,,,,,,,,,,,,,,,,,,,,,,,,,,,,,,,,,,,,,,,,,,,,,,,,,,,,,,,,,,
,,,,,,5fe3a0b4bf7c820835fc8fe1,62c53936b7009b49e4ba96c6,2022-07-06_09h31.10.876,Colour_Asymmetry_Pilot,2022.1.3,Win32,60.13952369,62c50e9c1127f2cd403a315f,0,17,17,88,1,onetwo,,,,,,,,,,,,,,,,,,,,,,,,,,,,,,,,,,,,,,,,,,,,,,,,,,,,,,,,,,,,,,,,,,,,,,,,,,,,,,,,,,,,,,,,,,,,,,,,,,,,,,,,,,,,,,,,,,,,,,,,,,,,,,,,,,,,,,,,,,,,,,,,,,,,,,,,,,,,
,,,,,,5fe3a0b4bf7c820835fc8fe1,62c53936b7009b49e4ba96c6,2022-07-06_09h31.10.876,Colour_Asymmetry_Pilot,2022.1.3,Win32,60.13952369,62c50e9c1127f2cd403a315f,0,18,18,0,1,onetwo,,,,,,,,,,,,,,,,,,,,,,,,,,,,,,,,,,,,,,,,,,,,,,,,,,,,,,,,,,,,,,,,,,,,,,,,,,,,,,,,,,,,,,,,,,,,,,,,,,,,,,,,,,,,,,,,,,,,,,,,,,,,,,,,,,,,,,,,,,,,,,,,,,,,,,,,,,,,
,,,,,,5fe3a0b4bf7c820835fc8fe1,62c53936b7009b49e4ba96c6,2022-07-06_09h31.10.876,Colour_Asymmetry_Pilot,2022.1.3,Win32,60.13952369,62c50e9c1127f2cd403a315f,0,19,19,117,1,threefour,,,,,,,,,,,,,,,,,,,,,,,,,,,,,,,,,,,,,,,,,,,,,,,,,,,,,,,,,,,,,,,,,,,,,,,,,,,,,,,,,,,,,,,,,,,,,,,,,,,,,,,,,,,,,,,,,,,,,,,,,,,,,,,,,,,,,,,,,,,,,,,,,,,,,,,,,,,,
,,,,,,5fe3a0b4bf7c820835fc8fe1,62c53936b7009b49e4ba96c6,2022-07-06_09h31.10.876,Colour_Asymmetry_Pilot,2022.1.3,Win32,60.13952369,62c50e9c1127f2cd403a315f,0,20,20,30,1,fourtwo,,,,,,,,,,,,,,,,,,,,,,,,,,,,,,,,,,,,,,,,,,,,,,,,,,,,,,,,,,,,,,,,,,,,,,,,,,,,,,,,,,,,,,,,,,,,,,,,,,,,,,,,,,,,,,,,,,,,,,,,,,,,,,,,,,,,,,,,,,,,,,,,,,,,,,,,,,,,
,,,,,,5fe3a0b4bf7c820835fc8fe1,62c53936b7009b49e4ba96c6,2022-07-06_09h31.10.876,Colour_Asymmetry_Pilot,2022.1.3,Win32,60.13952369,62c50e9c1127f2cd403a315f,0,21,21,148,1,threeone,,,,,,,,,,,,,,,,,,,,,,,,,,,,,,,,,,,,,,,,,,,,,,,,,,,,,,,,,,,,,,,,,,,,,,,,,,,,,,,,,,,,,,,,,,,,,,,,,,,,,,,,,,,,,,,,,,,,,,,,,,,,,,,,,,,,,,,,,,,,,,,,,,,,,,,,,,,,
,,,,,,5fe3a0b4bf7c820835fc8fe1,62c53936b7009b49e4ba96c6,2022-07-06_09h31.10.876,Colour_Asymmetry_Pilot,2022.1.3,Win32,60.13952369,62c50e9c1127f2cd403a315f,0,22,22,95,1,fourthree,,,,,,,,,,,,,,,,,,,,,,,,,,,,,,,,,,,,,,,,,,,,,,,,,,,,,,,,,,,,,,,,,,,,,,,,,,,,,,,,,,,,,,,,,,,,,,,,,,,,,,,,,,,,,,,,,,,,,,,,,,,,,,,,,,,,,,,,,,,,,,,,,,,,,,,,,,,,
,,,,,,5fe3a0b4bf7c820835fc8fe1,62c53936b7009b49e4ba96c6,2022-07-06_09h31.10.876,Colour_Asymmetry_Pilot,2022.1.3,Win32,60.13952369,62c50e9c1127f2cd403a315f,0,23,23,99,1,twofour,,,,,,,,,,,,,,,,,,,,,,,,,,,,,,,,,,,,,,,,,,,,,,,,,,,,,,,,,,,,,,,,,,,,,,,,,,,,,,,,,,,,,,,,,,,,,,,,,,,,,,,,,,,,,,,,,,,,,,,,,,,,,,,,,,,,,,,,,,,,,,,,,,,,,,,,,,,,
,,,,,,5fe3a0b4bf7c820835fc8fe1,62c53936b7009b49e4ba96c6,2022-07-06_09h31.10.876,Colour_Asymmetry_Pilot,2022.1.3,Win32,60.13952369,62c50e9c1127f2cd403a315f,0,24,24,23,1,fourthree,,,,,,,,,,,,,,,,,,,,,,,,,,,,,,,,,,,,,,,,,,,,,,,,,,,,,,,,,,,,,,,,,,,,,,,,,,,,,,,,,,,,,,,,,,,,,,,,,,,,,,,,,,,,,,,,,,,,,,,,,,,,,,,,,,,,,,,,,,,,,,,,,,,,,,,,,,,,
,,,,,,5fe3a0b4bf7c820835fc8fe1,62c53936b7009b49e4ba96c6,2022-07-06_09h31.10.876,Colour_Asymmetry_Pilot,2022.1.3,Win32,60.13952369,62c50e9c1127f2cd403a315f,0,25,25,3,1,twofour,,,,,,,,,,,,,,,,,,,,,,,,,,,,,,,,,,,,,,,,,,,,,,,,,,,,,,,,,,,,,,,,,,,,,,,,,,,,,,,,,,,,,,,,,,,,,,,,,,,,,,,,,,,,,,,,,,,,,,,,,,,,,,,,,,,,,,,,,,,,,,,,,,,,,,,,,,,,
,,,,,,5fe3a0b4bf7c820835fc8fe1,62c53936b7009b49e4ba96c6,2022-07-06_09h31.10.876,Colour_Asymmetry_Pilot,2022.1.3,Win32,60.13952369,62c50e9c1127f2cd403a315f,0,26,26,138,1,twoone,,,,,,,,,,,,,,,,,,,,,,,,,,,,,,,,,,,,,,,,,,,,,,,,,,,,,,,,,,,,,,,,,,,,,,,,,,,,,,,,,,,,,,,,,,,,,,,,,,,,,,,,,,,,,,,,,,,,,,,,,,,,,,,,,,,,,,,,,,,,,,,,,,,,,,,,,,,,
,,,,,,5fe3a0b4bf7c820835fc8fe1,62c53936b7009b49e4ba96c6,2022-07-06_09h31.10.876,Colour_Asymmetry_Pilot,2022.1.3,Win32,60.13952369,62c50e9c1127f2cd403a315f,0,27,27,102,1,fourtwo,,,,,,,,,,,,,,,,,,,,,,,,,,,,,,,,,,,,,,,,,,,,,,,,,,,,,,,,,,,,,,,,,,,,,,,,,,,,,,,,,,,,,,,,,,,,,,,,,,,,,,,,,,,,,,,,,,,,,,,,,,,,,,,,,,,,,,,,,,,,,,,,,,,,,,,,,,,,
,,,,,,5fe3a0b4bf7c820835fc8fe1,62c53936b7009b49e4ba96c6,2022-07-06_09h31.10.876,Colour_Asymmetry_Pilot,2022.1.3,Win32,60.13952369,62c50e9c1127f2cd403a315f,0,28,28,43,1,twofour,,,,,,,,,,,,,,,,,,,,,,,,,,,,,,,,,,,,,,,,,,,,,,,,,,,,,,,,,,,,,,,,,,,,,,,,,,,,,,,,,,,,,,,,,,,,,,,,,,,,,,,,,,,,,,,,,,,,,,,,,,,,,,,,,,,,,,,,,,,,,,,,,,,,,,,,,,,,
,,,,,,5fe3a0b4bf7c820835fc8fe1,62c53936b7009b49e4ba96c6,2022-07-06_09h31.10.876,Colour_Asymmetry_Pilot,2022.1.3,Win32,60.13952369,62c50e9c1127f2cd403a315f,0,29,29,24,1,onetwo,,,,,,,,,,,,,,,,,,,,,,,,,,,,,,,,,,,,,,,,,,,,,,,,,,,,,,,,,,,,,,,,,,,,,,,,,,,,,,,,,,,,,,,,,,,,,,,,,,,,,,,,,,,,,,,,,,,,,,,,,,,,,,,,,,,,,,,,,,,,,,,,,,,,,,,,,,,,
,,,,,,5fe3a0b4bf7c820835fc8fe1,62c53936b7009b49e4ba96c6,2022-07-06_09h31.10.876,Colour_Asymmetry_Pilot,2022.1.3,Win32,60.13952369,62c50e9c1127f2cd403a315f,0,30,30,42,1,twoone,,,,,,,,,,,,,,,,,,,,,,,,,,,,,,,,,,,,,,,,,,,,,,,,,,,,,,,,,,,,,,,,,,,,,,,,,,,,,,,,,,,,,,,,,,,,,,,,,,,,,,,,,,,,,,,,,,,,,,,,,,,,,,,,,,,,,,,,,,,,,,,,,,,,,,,,,,,,
,,,,,,5fe3a0b4bf7c820835fc8fe1,62c53936b7009b49e4ba96c6,2022-07-06_09h31.10.876,Colour_Asymmetry_Pilot,2022.1.3,Win32,60.13952369,62c50e9c1127f2cd403a315f,0,31,31,79,1,fourthree,,,,,,,,,,,,,,,,,,,,,,,,,,,,,,,,,,,,,,,,,,,,,,,,,,,,,,,,,,,,,,,,,,,,,,,,,,,,,,,,,,,,,,,,,,,,,,,,,,,,,,,,,,,,,,,,,,,,,,,,,,,,,,,,,,,,,,,,,,,,,,,,,,,,,,,,,,,,
,,,,,,5fe3a0b4bf7c820835fc8fe1,62c53936b7009b49e4ba96c6,2022-07-06_09h31.10.876,Colour_Asymmetry_Pilot,2022.1.3,Win32,60.13952369,62c50e9c1127f2cd403a315f,0,32,32,141,1,threefour,,,,,,,,,,,,,,,,,,,,,,,,,,,,,,,,,,,,,,,,,,,,,,,,,,,,,,,,,,,,,,,,,,,,,,,,,,,,,,,,,,,,,,,,,,,,,,,,,,,,,,,,,,,,,,,,,,,,,,,,,,,,,,,,,,,,,,,,,,,,,,,,,,,,,,,,,,,,
,,,,,,5fe3a0b4bf7c820835fc8fe1,62c53936b7009b49e4ba96c6,2022-07-06_09h31.10.876,Colour_Asymmetry_Pilot,2022.1.3,Win32,60.13952369,62c50e9c1127f2cd403a315f,0,33,33,155,1,twofour,,,,,,,,,,,,,,,,,,,,,,,,,,,,,,,,,,,,,,,,,,,,,,,,,,,,,,,,,,,,,,,,,,,,,,,,,,,,,,,,,,,,,,,,,,,,,,,,,,,,,,,,,,,,,,,,,,,,,,,,,,,,,,,,,,,,,,,,,,,,,,,,,,,,,,,,,,,,
,,,,,,5fe3a0b4bf7c820835fc8fe1,62c53936b7009b49e4ba96c6,2022-07-06_09h31.10.876,Colour_Asymmetry_Pilot,2022.1.3,Win32,60.13952369,62c50e9c1127f2cd403a315f,0,34,34,77,1,threefour,,,,,,,,,,,,,,,,,,,,,,,,,,,,,,,,,,,,,,,,,,,,,,,,,,,,,,,,,,,,,,,,,,,,,,,,,,,,,,,,,,,,,,,,,,,,,,,,,,,,,,,,,,,,,,,,,,,,,,,,,,,,,,,,,,,,,,,,,,,,,,,,,,,,,,,,,,,,
,,,,,,5fe3a0b4bf7c820835fc8fe1,62c53936b7009b49e4ba96c6,2022-07-06_09h31.10.876,Colour_Asymmetry_Pilot,2022.1.3,Win32,60.13952369,62c50e9c1127f2cd403a315f,0,35,35,97,1,onethree,,,,,,,,,,,,,,,,,,,,,,,,,,,,,,,,,,,,,,,,,,,,,,,,,,,,,,,,,,,,,,,,,,,,,,,,,,,,,,,,,,,,,,,,,,,,,,,,,,,,,,,,,,,,,,,,,,,,,,,,,,,,,,,,,,,,,,,,,,,,,,,,,,,,,,,,,,,,
,,,,,,5fe3a0b4bf7c820835fc8fe1,62c53936b7009b49e4ba96c6,2022-07-06_09h31.10.876,Colour_Asymmetry_Pilot,2022.1.3,Win32,60.13952369,62c50e9c1127f2cd403a315f,0,36,36,2,1,twoone,,,,,,,,,,,,,,,,,,,,,,,,,,,,,,,,,,,,,,,,,,,,,,,,,,,,,,,,,,,,,,,,,,,,,,,,,,,,,,,,,,,,,,,,,,,,,,,,,,,,,,,,,,,,,,,,,,,,,,,,,,,,,,,,,,,,,,,,,,,,,,,,,,,,,,,,,,,,
,,,,,,5fe3a0b4bf7c820835fc8fe1,62c53936b7009b49e4ba96c6,2022-07-06_09h31.10.876,Colour_Asymmetry_Pilot,2022.1.3,Win32,60.13952369,62c50e9c1127f2cd403a315f,0,37,37,91,1,twofour,,,,,,,,,,,,,,,,,,,,,,,,,,,,,,,,,,,,,,,,,,,,,,,,,,,,,,,,,,,,,,,,,,,,,,,,,,,,,,,,,,,,,,,,,,,,,,,,,,,,,,,,,,,,,,,,,,,,,,,,,,,,,,,,,,,,,,,,,,,,,,,,,,,,,,,,,,,,
,,,,,,5fe3a0b4bf7c820835fc8fe1,62c53936b7009b49e4ba96c6,2022-07-06_09h31.10.876,Colour_Asymmetry_Pilot,2022.1.3,Win32,60.13952369,62c50e9c1127f2cd403a315f,0,38,38,111,1,fourthree,,,,,,,,,,,,,,,,,,,,,,,,,,,,,,,,,,,,,,,,,,,,,,,,,,,,,,,,,,,,,,,,,,,,,,,,,,,,,,,,,,,,,,,,,,,,,,,,,,,,,,,,,,,,,,,,,,,,,,,,,,,,,,,,,,,,,,,,,,,,,,,,,,,,,,,,,,,,
,,,,,,5fe3a0b4bf7c820835fc8fe1,62c53936b7009b49e4ba96c6,2022-07-06_09h31.10.876,Colour_Asymmetry_Pilot,2022.1.3,Win32,60.13952369,62c50e9c1127f2cd403a315f,0,39,39,90,1,twoone,,,,,,,,,,,,,,,,,,,,,,,,,,,,,,,,,,,,,,,,,,,,,,,,,,,,,,,,,,,,,,,,,,,,,,,,,,,,,,,,,,,,,,,,,,,,,,,,,,,,,,,,,,,,,,,,,,,,,,,,,,,,,,,,,,,,,,,,,,,,,,,,,,,,,,,,,,,,
,,,,,,5fe3a0b4bf7c820835fc8fe1,62c53936b7009b49e4ba96c6,2022-07-06_09h31.10.876,Colour_Asymmetry_Pilot,2022.1.3,Win32,60.13952369,62c50e9c1127f2cd403a315f,0,40,40,93,1,threefour,,,,,,,,,,,,,,,,,,,,,,,,,,,,,,,,,,,,,,,,,,,,,,,,,,,,,,,,,,,,,,,,,,,,,,,,,,,,,,,,,,,,,,,,,,,,,,,,,,,,,,,,,,,,,,,,,,,,,,,,,,,,,,,,,,,,,,,,,,,,,,,,,,,,,,,,,,,,
,,,,,,5fe3a0b4bf7c820835fc8fe1,62c53936b7009b49e4ba96c6,2022-07-06_09h31.10.876,Colour_Asymmetry_Pilot,2022.1.3,Win32,60.13952369,62c50e9c1127f2cd403a315f,0,41,41,35,1,twofour,,,,,,,,,,,,,,,,,,,,,,,,,,,,,,,,,,,,,,,,,,,,,,,,,,,,,,,,,,,,,,,,,,,,,,,,,,,,,,,,,,,,,,,,,,,,,,,,,,,,,,,,,,,,,,,,,,,,,,,,,,,,,,,,,,,,,,,,,,,,,,,,,,,,,,,,,,,,
,,,,,,5fe3a0b4bf7c820835fc8fe1,62c53936b7009b49e4ba96c6,2022-07-06_09h31.10.876,Colour_Asymmetry_Pilot,2022.1.3,Win32,60.13952369,62c50e9c1127f2cd403a315f,0,42,42,8,1,onetwo,,,,,,,,,,,,,,,,,,,,,,,,,,,,,,,,,,,,,,,,,,,,,,,,,,,,,,,,,,,,,,,,,,,,,,,,,,,,,,,,,,,,,,,,,,,,,,,,,,,,,,,,,,,,,,,,,,,,,,,,,,,,,,,,,,,,,,,,,,,,,,,,,,,,,,,,,,,,
,,,,,,5fe3a0b4bf7c820835fc8fe1,62c53936b7009b49e4ba96c6,2022-07-06_09h31.10.876,Colour_Asymmetry_Pilot,2022.1.3,Win32,60.13952369,62c50e9c1127f2cd403a315f,0,43,43,25,1,onethree,,,,,,,,,,,,,,,,,,,,,,,,,,,,,,,,,,,,,,,,,,,,,,,,,,,,,,,,,,,,,,,,,,,,,,,,,,,,,,,,,,,,,,,,,,,,,,,,,,,,,,,,,,,,,,,,,,,,,,,,,,,,,,,,,,,,,,,,,,,,,,,,,,,,,,,,,,,,
,,,,,,5fe3a0b4bf7c820835fc8fe1,62c53936b7009b49e4ba96c6,2022-07-06_09h31.10.876,Colour_Asymmetry_Pilot,2022.1.3,Win32,60.13952369,62c50e9c1127f2cd403a315f,0,44,44,116,1,threeone,,,,,,,,,,,,,,,,,,,,,,,,,,,,,,,,,,,,,,,,,,,,,,,,,,,,,,,,,,,,,,,,,,,,,,,,,,,,,,,,,,,,,,,,,,,,,,,,,,,,,,,,,,,,,,,,,,,,,,,,,,,,,,,,,,,,,,,,,,,,,,,,,,,,,,,,,,,,
,,,,,,5fe3a0b4bf7c820835fc8fe1,62c53936b7009b49e4ba96c6,2022-07-06_09h31.10.876,Colour_Asymmetry_Pilot,2022.1.3,Win32,60.13952369,62c50e9c1127f2cd403a315f,0,45,45,45,1,threefour,,,,,,,,,,,,,,,,,,,,,,,,,,,,,,,,,,,,,,,,,,,,,,,,,,,,,,,,,,,,,,,,,,,,,,,,,,,,,,,,,,,,,,,,,,,,,,,,,,,,,,,,,,,,,,,,,,,,,,,,,,,,,,,,,,,,,,,,,,,,,,,,,,,,,,,,,,,,
,,,,,,5fe3a0b4bf7c820835fc8fe1,62c53936b7009b49e4ba96c6,2022-07-06_09h31.10.876,Colour_Asymmetry_Pilot,2022.1.3,Win32,60.13952369,62c50e9c1127f2cd403a315f,0,46,46,31,1,fourthree,,,,,,,,,,,,,,,,,,,,,,,,,,,,,,,,,,,,,,,,,,,,,,,,,,,,,,,,,,,,,,,,,,,,,,,,,,,,,,,,,,,,,,,,,,,,,,,,,,,,,,,,,,,,,,,,,,,,,,,,,,,,,,,,,,,,,,,,,,,,,,,,,,,,,,,,,,,,
,,,,,,5fe3a0b4bf7c820835fc8fe1,62c53936b7009b49e4ba96c6,2022-07-06_09h31.10.876,Colour_Asymmetry_Pilot,2022.1.3,Win32,60.13952369,62c50e9c1127f2cd403a315f,0,47,47,21,1,threefour,,,,,,,,,,,,,,,,,,,,,,,,,,,,,,,,,,,,,,,,,,,,,,,,,,,,,,,,,,,,,,,,,,,,,,,,,,,,,,,,,,,,,,,,,,,,,,,,,,,,,,,,,,,,,,,,,,,,,,,,,,,,,,,,,,,,,,,,,,,,,,,,,,,,,,,,,,,,
,,,,,,5fe3a0b4bf7c820835fc8fe1,62c53936b7009b49e4ba96c6,2022-07-06_09h31.10.876,Colour_Asymmetry_Pilot,2022.1.3,Win32,60.13952369,62c50e9c1127f2cd403a315f,0,48,48,7,1,fourthree,,,,,,,,,,,,,,,,,,,,,,,,,,,,,,,,,,,,,,,,,,,,,,,,,,,,,,,,,,,,,,,,,,,,,,,,,,,,,,,,,,,,,,,,,,,,,,,,,,,,,,,,,,,,,,,,,,,,,,,,,,,,,,,,,,,,,,,,,,,,,,,,,,,,,,,,,,,,
,,,,,,5fe3a0b4bf7c820835fc8fe1,62c53936b7009b49e4ba96c6,2022-07-06_09h31.10.876,Colour_Asymmetry_Pilot,2022.1.3,Win32,60.13952369,62c50e9c1127f2cd403a315f,0,49,49,63,1,fourthree,,,,,,,,,,,,,,,,,,,,,,,,,,,,,,,,,,,,,,,,,,,,,,,,,,,,,,,,,,,,,,,,,,,,,,,,,,,,,,,,,,,,,,,,,,,,,,,,,,,,,,,,,,,,,,,,,,,,,,,,,,,,,,,,,,,,,,,,,,,,,,,,,,,,,,,,,,,,
,,,,,,5fe3a0b4bf7c820835fc8fe1,62c53936b7009b49e4ba96c6,2022-07-06_09h31.10.876,Colour_Asymmetry_Pilot,2022.1.3,Win32,60.13952369,62c50e9c1127f2cd403a315f,0,50,50,106,1,twoone,,,,,,,,,,,,,,,,,,,,,,,,,,,,,,,,,,,,,,,,,,,,,,,,,,,,,,,,,,,,,,,,,,,,,,,,,,,,,,,,,,,,,,,,,,,,,,,,,,,,,,,,,,,,,,,,,,,,,,,,,,,,,,,,,,,,,,,,,,,,,,,,,,,,,,,,,,,,
,,,,,,5fe3a0b4bf7c820835fc8fe1,62c53936b7009b49e4ba96c6,2022-07-06_09h31.10.876,Colour_Asymmetry_Pilot,2022.1.3,Win32,60.13952369,62c50e9c1127f2cd403a315f,0,51,51,143,1,fourthree,,,,,,,,,,,,,,,,,,,,,,,,,,,,,,,,,,,,,,,,,,,,,,,,,,,,,,,,,,,,,,,,,,,,,,,,,,,,,,,,,,,,,,,,,,,,,,,,,,,,,,,,,,,,,,,,,,,,,,,,,,,,,,,,,,,,,,,,,,,,,,,,,,,,,,,,,,,,
,,,,,,5fe3a0b4bf7c820835fc8fe1,62c53936b7009b49e4ba96c6,2022-07-06_09h31.10.876,Colour_Asymmetry_Pilot,2022.1.3,Win32,60.13952369,62c50e9c1127f2cd403a315f,0,52,52,70,1,fourtwo,,,,,,,,,,,,,,,,,,,,,,,,,,,,,,,,,,,,,,,,,,,,,,,,,,,,,,,,,,,,,,,,,,,,,,,,,,,,,,,,,,,,,,,,,,,,,,,,,,,,,,,,,,,,,,,,,,,,,,,,,,,,,,,,,,,,,,,,,,,,,,,,,,,,,,,,,,,,
,,,,,,5fe3a0b4bf7c820835fc8fe1,62c53936b7009b49e4ba96c6,2022-07-06_09h31.10.876,Colour_Asymmetry_Pilot,2022.1.3,Win32,60.13952369,62c50e9c1127f2cd403a315f,0,53,53,153,1,onethree,,,,,,,,,,,,,,,,,,,,,,,,,,,,,,,,,,,,,,,,,,,,,,,,,,,,,,,,,,,,,,,,,,,,,,,,,,,,,,,,,,,,,,,,,,,,,,,,,,,,,,,,,,,,,,,,,,,,,,,,,,,,,,,,,,,,,,,,,,,,,,,,,,,,,,,,,,,,
,,,,,,5fe3a0b4bf7c820835fc8fe1,62c53936b7009b49e4ba96c6,2022-07-06_09h31.10.876,Colour_Asymmetry_Pilot,2022.1.3,Win32,60.13952369,62c50e9c1127f2cd403a315f,0,54,54,20,1,threeone,,,,,,,,,,,,,,,,,,,,,,,,,,,,,,,,,,,,,,,,,,,,,,,,,,,,,,,,,,,,,,,,,,,,,,,,,,,,,,,,,,,,,,,,,,,,,,,,,,,,,,,,,,,,,,,,,,,,,,,,,,,,,,,,,,,,,,,,,,,,,,,,,,,,,,,,,,,,
,,,,,,5fe3a0b4bf7c820835fc8fe1,62c53936b7009b49e4ba96c6,2022-07-06_09h31.10.876,Colour_Asymmetry_Pilot,2022.1.3,Win32,60.13952369,62c50e9c1127f2cd403a315f,0,55,55,78,1,fourtwo,,,,,,,,,,,,,,,,,,,,,,,,,,,,,,,,,,,,,,,,,,,,,,,,,,,,,,,,,,,,,,,,,,,,,,,,,,,,,,,,,,,,,,,,,,,,,,,,,,,,,,,,,,,,,,,,,,,,,,,,,,,,,,,,,,,,,,,,,,,,,,,,,,,,,,,,,,,,
,,,,,,5fe3a0b4bf7c820835fc8fe1,62c53936b7009b49e4ba96c6,2022-07-06_09h31.10.876,Colour_Asymmetry_Pilot,2022.1.3,Win32,60.13952369,62c50e9c1127f2cd403a315f,0,56,56,52,1,threeone,,,,,,,,,,,,,,,,,,,,,,,,,,,,,,,,,,,,,,,,,,,,,,,,,,,,,,,,,,,,,,,,,,,,,,,,,,,,,,,,,,,,,,,,,,,,,,,,,,,,,,,,,,,,,,,,,,,,,,,,,,,,,,,,,,,,,,,,,,,,,,,,,,,,,,,,,,,,
,,,,,,5fe3a0b4bf7c820835fc8fe1,62c53936b7009b49e4ba96c6,2022-07-06_09h31.10.876,Colour_Asymmetry_Pilot,2022.1.3,Win32,60.13952369,62c50e9c1127f2cd403a315f,0,57,57,122,1,twoone,,,,,,,,,,,,,,,,,,,,,,,,,,,,,,,,,,,,,,,,,,,,,,,,,,,,,,,,,,,,,,,,,,,,,,,,,,,,,,,,,,,,,,,,,,,,,,,,,,,,,,,,,,,,,,,,,,,,,,,,,,,,,,,,,,,,,,,,,,,,,,,,,,,,,,,,,,,,
,,,,,,5fe3a0b4bf7c820835fc8fe1,62c53936b7009b49e4ba96c6,2022-07-06_09h31.10.876,Colour_Asymmetry_Pilot,2022.1.3,Win32,60.13952369,62c50e9c1127f2cd403a315f,0,58,58,147,1,twofour,,,,,,,,,,,,,,,,,,,,,,,,,,,,,,,,,,,,,,,,,,,,,,,,,,,,,,,,,,,,,,,,,,,,,,,,,,,,,,,,,,,,,,,,,,,,,,,,,,,,,,,,,,,,,,,,,,,,,,,,,,,,,,,,,,,,,,,,,,,,,,,,,,,,,,,,,,,,
,,,,,,5fe3a0b4bf7c820835fc8fe1,62c53936b7009b49e4ba96c6,2022-07-06_09h31.10.876,Colour_Asymmetry_Pilot,2022.1.3,Win32,60.13952369,62c50e9c1127f2cd403a315f,0,59,59,112,1,onetwo,,,,,,,,,,,,,,,,,,,,,,,,,,,,,,,,,,,,,,,,,,,,,,,,,,,,,,,,,,,,,,,,,,,,,,,,,,,,,,,,,,,,,,,,,,,,,,,,,,,,,,,,,,,,,,,,,,,,,,,,,,,,,,,,,,,,,,,,,,,,,,,,,,,,,,,,,,,,
,,,,,,5fe3a0b4bf7c820835fc8fe1,62c53936b7009b49e4ba96c6,2022-07-06_09h31.10.876,Colour_Asymmetry_Pilot,2022.1.3,Win32,60.13952369,62c50e9c1127f2cd403a315f,0,60,60,156,1,threeone,,,,,,,,,,,,,,,,,,,,,,,,,,,,,,,,,,,,,,,,,,,,,,,,,,,,,,,,,,,,,,,,,,,,,,,,,,,,,,,,,,,,,,,,,,,,,,,,,,,,,,,,,,,,,,,,,,,,,,,,,,,,,,,,,,,,,,,,,,,,,,,,,,,,,,,,,,,,
,,,,,,5fe3a0b4bf7c820835fc8fe1,62c53936b7009b49e4ba96c6,2022-07-06_09h31.10.876,Colour_Asymmetry_Pilot,2022.1.3,Win32,60.13952369,62c50e9c1127f2cd403a315f,0,61,61,151,1,fourthree,,,,,,,,,,,,,,,,,,,,,,,,,,,,,,,,,,,,,,,,,,,,,,,,,,,,,,,,,,,,,,,,,,,,,,,,,,,,,,,,,,,,,,,,,,,,,,,,,,,,,,,,,,,,,,,,,,,,,,,,,,,,,,,,,,,,,,,,,,,,,,,,,,,,,,,,,,,,
,,,,,,5fe3a0b4bf7c820835fc8fe1,62c53936b7009b49e4ba96c6,2022-07-06_09h31.10.876,Colour_Asymmetry_Pilot,2022.1.3,Win32,60.13952369,62c50e9c1127f2cd403a315f,0,62,62,16,1,onetwo,,,,,,,,,,,,,,,,,,,,,,,,,,,,,,,,,,,,,,,,,,,,,,,,,,,,,,,,,,,,,,,,,,,,,,,,,,,,,,,,,,,,,,,,,,,,,,,,,,,,,,,,,,,,,,,,,,,,,,,,,,,,,,,,,,,,,,,,,,,,,,,,,,,,,,,,,,,,
,,,,,,5fe3a0b4bf7c820835fc8fe1,62c53936b7009b49e4ba96c6,2022-07-06_09h31.10.876,Colour_Asymmetry_Pilot,2022.1.3,Win32,60.13952369,62c50e9c1127f2cd403a315f,0,63,63,108,1,threeone,,,,,,,,,,,,,,,,,,,,,,,,,,,,,,,,,,,,,,,,,,,,,,,,,,,,,,,,,,,,,,,,,,,,,,,,,,,,,,,,,,,,,,,,,,,,,,,,,,,,,,,,,,,,,,,,,,,,,,,,,,,,,,,,,,,,,,,,,,,,,,,,,,,,,,,,,,,,
,,,,,,5fe3a0b4bf7c820835fc8fe1,62c53936b7009b49e4ba96c6,2022-07-06_09h31.10.876,Colour_Asymmetry_Pilot,2022.1.3,Win32,60.13952369,62c50e9c1127f2cd403a315f,0,64,64,40,1,onetwo,,,,,,,,,,,,,,,,,,,,,,,,,,,,,,,,,,,,,,,,,,,,,,,,,,,,,,,,,,,,,,,,,,,,,,,,,,,,,,,,,,,,,,,,,,,,,,,,,,,,,,,,,,,,,,,,,,,,,,,,,,,,,,,,,,,,,,,,,,,,,,,,,,,,,,,,,,,,
,,,,,,5fe3a0b4bf7c820835fc8fe1,62c53936b7009b49e4ba96c6,2022-07-06_09h31.10.876,Colour_Asymmetry_Pilot,2022.1.3,Win32,60.13952369,62c50e9c1127f2cd403a315f,0,65,65,37,1,threefour,,,,,,,,,,,,,,,,,,,,,,,,,,,,,,,,,,,,,,,,,,,,,,,,,,,,,,,,,,,,,,,,,,,,,,,,,,,,,,,,,,,,,,,,,,,,,,,,,,,,,,,,,,,,,,,,,,,,,,,,,,,,,,,,,,,,,,,,,,,,,,,,,,,,,,,,,,,,
,,,,,,5fe3a0b4bf7c820835fc8fe1,62c53936b7009b49e4ba96c6,2022-07-06_09h31.10.876,Colour_Asymmetry_Pilot,2022.1.3,Win32,60.13952369,62c50e9c1127f2cd403a315f,0,66,66,82,1,twoone,,,,,,,,,,,,,,,,,,,,,,,,,,,,,,,,,,,,,,,,,,,,,,,,,,,,,,,,,,,,,,,,,,,,,,,,,,,,,,,,,,,,,,,,,,,,,,,,,,,,,,,,,,,,,,,,,,,,,,,,,,,,,,,,,,,,,,,,,,,,,,,,,,,,,,,,,,,,
,,,,,,5fe3a0b4bf7c820835fc8fe1,62c53936b7009b49e4ba96c6,2022-07-06_09h31.10.876,Colour_Asymmetry_Pilot,2022.1.3,Win32,60.13952369,62c50e9c1127f2cd403a315f,0,67,67,18,1,twoone,,,,,,,,,,,,,,,,,,,,,,,,,,,,,,,,,,,,,,,,,,,,,,,,,,,,,,,,,,,,,,,,,,,,,,,,,,,,,,,,,,,,,,,,,,,,,,,,,,,,,,,,,,,,,,,,,,,,,,,,,,,,,,,,,,,,,,,,,,,,,,,,,,,,,,,,,,,,
,,,,,,5fe3a0b4bf7c820835fc8fe1,62c53936b7009b49e4ba96c6,2022-07-06_09h31.10.876,Colour_Asymmetry_Pilot,2022.1.3,Win32,60.13952369,62c50e9c1127f2cd403a315f,0,68,68,71,1,fourthree,,,,,,,,,,,,,,,,,,,,,,,,,,,,,,,,,,,,,,,,,,,,,,,,,,,,,,,,,,,,,,,,,,,,,,,,,,,,,,,,,,,,,,,,,,,,,,,,,,,,,,,,,,,,,,,,,,,,,,,,,,,,,,,,,,,,,,,,,,,,,,,,,,,,,,,,,,,,
,,,,,,5fe3a0b4bf7c820835fc8fe1,62c53936b7009b49e4ba96c6,2022-07-06_09h31.10.876,Colour_Asymmetry_Pilot,2022.1.3,Win32,60.13952369,62c50e9c1127f2cd403a315f,0,69,69,14,1,fourtwo,,,,,,,,,,,,,,,,,,,,,,,,,,,,,,,,,,,,,,,,,,,,,,,,,,,,,,,,,,,,,,,,,,,,,,,,,,,,,,,,,,,,,,,,,,,,,,,,,,,,,,,,,,,,,,,,,,,,,,,,,,,,,,,,,,,,,,,,,,,,,,,,,,,,,,,,,,,,
,,,,,,5fe3a0b4bf7c820835fc8fe1,62c53936b7009b49e4ba96c6,2022-07-06_09h31.10.876,Colour_Asymmetry_Pilot,2022.1.3,Win32,60.13952369,62c50e9c1127f2cd403a315f,0,70,70,33,1,onethree,,,,,,,,,,,,,,,,,,,,,,,,,,,,,,,,,,,,,,,,,,,,,,,,,,,,,,,,,,,,,,,,,,,,,,,,,,,,,,,,,,,,,,,,,,,,,,,,,,,,,,,,,,,,,,,,,,,,,,,,,,,,,,,,,,,,,,,,,,,,,,,,,,,,,,,,,,,,
,,,,,,5fe3a0b4bf7c820835fc8fe1,62c53936b7009b49e4ba96c6,2022-07-06_09h31.10.876,Colour_Asymmetry_Pilot,2022.1.3,Win32,60.13952369,62c50e9c1127f2cd403a315f,0,71,71,114,1,twoone,,,,,,,,,,,,,,,,,,,,,,,,,,,,,,,,,,,,,,,,,,,,,,,,,,,,,,,,,,,,,,,,,,,,,,,,,,,,,,,,,,,,,,,,,,,,,,,,,,,,,,,,,,,,,,,,,,,,,,,,,,,,,,,,,,,,,,,,,,,,,,,,,,,,,,,,,,,,
,,,,,,5fe3a0b4bf7c820835fc8fe1,62c53936b7009b49e4ba96c6,2022-07-06_09h31.10.876,Colour_Asymmetry_Pilot,2022.1.3,Win32,60.13952369,62c50e9c1127f2cd403a315f,0,72,72,74,1,twoone,,,,,,,,,,,,,,,,,,,,,,,,,,,,,,,,,,,,,,,,,,,,,,,,,,,,,,,,,,,,,,,,,,,,,,,,,,,,,,,,,,,,,,,,,,,,,,,,,,,,,,,,,,,,,,,,,,,,,,,,,,,,,,,,,,,,,,,,,,,,,,,,,,,,,,,,,,,,
,,,,,,5fe3a0b4bf7c820835fc8fe1,62c53936b7009b49e4ba96c6,2022-07-06_09h31.10.876,Colour_Asymmetry_Pilot,2022.1.3,Win32,60.13952369,62c50e9c1127f2cd403a315f,0,73,73,4,1,threeone,,,,,,,,,,,,,,,,,,,,,,,,,,,,,,,,,,,,,,,,,,,,,,,,,,,,,,,,,,,,,,,,,,,,,,,,,,,,,,,,,,,,,,,,,,,,,,,,,,,,,,,,,,,,,,,,,,,,,,,,,,,,,,,,,,,,,,,,,,,,,,,,,,,,,,,,,,,,
,,,,,,5fe3a0b4bf7c820835fc8fe1,62c53936b7009b49e4ba96c6,2022-07-06_09h31.10.876,Colour_Asymmetry_Pilot,2022.1.3,Win32,60.13952369,62c50e9c1127f2cd403a315f,0,74,74,38,1,fourtwo,,,,,,,,,,,,,,,,,,,,,,,,,,,,,,,,,,,,,,,,,,,,,,,,,,,,,,,,,,,,,,,,,,,,,,,,,,,,,,,,,,,,,,,,,,,,,,,,,,,,,,,,,,,,,,,,,,,,,,,,,,,,,,,,,,,,,,,,,,,,,,,,,,,,,,,,,,,,
,,,,,,5fe3a0b4bf7c820835fc8fe1,62c53936b7009b49e4ba96c6,2022-07-06_09h31.10.876,Colour_Asymmetry_Pilot,2022.1.3,Win32,60.13952369,62c50e9c1127f2cd403a315f,0,75,75,50,1,twoone,,,,,,,,,,,,,,,,,,,,,,,,,,,,,,,,,,,,,,,,,,,,,,,,,,,,,,,,,,,,,,,,,,,,,,,,,,,,,,,,,,,,,,,,,,,,,,,,,,,,,,,,,,,,,,,,,,,,,,,,,,,,,,,,,,,,,,,,,,,,,,,,,,,,,,,,,,,,
,,,,,,5fe3a0b4bf7c820835fc8fe1,62c53936b7009b49e4ba96c6,2022-07-06_09h31.10.876,Colour_Asymmetry_Pilot,2022.1.3,Win32,60.13952369,62c50e9c1127f2cd403a315f,0,76,76,152,1,onetwo,,,,,,,,,,,,,,,,,,,,,,,,,,,,,,,,,,,,,,,,,,,,,,,,,,,,,,,,,,,,,,,,,,,,,,,,,,,,,,,,,,,,,,,,,,,,,,,,,,,,,,,,,,,,,,,,,,,,,,,,,,,,,,,,,,,,,,,,,,,,,,,,,,,,,,,,,,,,
,,,,,,5fe3a0b4bf7c820835fc8fe1,62c53936b7009b49e4ba96c6,2022-07-06_09h31.10.876,Colour_Asymmetry_Pilot,2022.1.3,Win32,60.13952369,62c50e9c1127f2cd403a315f,0,77,77,139,1,twofour,,,,,,,,,,,,,,,,,,,,,,,,,,,,,,,,,,,,,,,,,,,,,,,,,,,,,,,,,,,,,,,,,,,,,,,,,,,,,,,,,,,,,,,,,,,,,,,,,,,,,,,,,,,,,,,,,,,,,,,,,,,,,,,,,,,,,,,,,,,,,,,,,,,,,,,,,,,,
,,,,,,5fe3a0b4bf7c820835fc8fe1,62c53936b7009b49e4ba96c6,2022-07-06_09h31.10.876,Colour_Asymmetry_Pilot,2022.1.3,Win32,60.13952369,62c50e9c1127f2cd403a315f,0,78,78,73,1,onethree,,,,,,,,,,,,,,,,,,,,,,,,,,,,,,,,,,,,,,,,,,,,,,,,,,,,,,,,,,,,,,,,,,,,,,,,,,,,,,,,,,,,,,,,,,,,,,,,,,,,,,,,,,,,,,,,,,,,,,,,,,,,,,,,,,,,,,,,,,,,,,,,,,,,,,,,,,,,
,,,,,,5fe3a0b4bf7c820835fc8fe1,62c53936b7009b49e4ba96c6,2022-07-06_09h31.10.876,Colour_Asymmetry_Pilot,2022.1.3,Win32,60.13952369,62c50e9c1127f2cd403a315f,0,79,79,68,1,threeone,,,,,,,,,,,,,,,,,,,,,,,,,,,,,,,,,,,,,,,,,,,,,,,,,,,,,,,,,,,,,,,,,,,,,,,,,,,,,,,,,,,,,,,,,,,,,,,,,,,,,,,,,,,,,,,,,,,,,,,,,,,,,,,,,,,,,,,,,,,,,,,,,,,,,,,,,,,,
,,,,,,5fe3a0b4bf7c820835fc8fe1,62c53936b7009b49e4ba96c6,2022-07-06_09h31.10.876,Colour_Asymmetry_Pilot,2022.1.3,Win32,60.13952369,62c50e9c1127f2cd403a315f,0,80,80,128,1,onetwo,,,,,,,,,,,,,,,,,,,,,,,,,,,,,,,,,,,,,,,,,,,,,,,,,,,,,,,,,,,,,,,,,,,,,,,,,,,,,,,,,,,,,,,,,,,,,,,,,,,,,,,,,,,,,,,,,,,,,,,,,,,,,,,,,,,,,,,,,,,,,,,,,,,,,,,,,,,,
,,,,,,5fe3a0b4bf7c820835fc8fe1,62c53936b7009b49e4ba96c6,2022-07-06_09h31.10.876,Colour_Asymmetry_Pilot,2022.1.3,Win32,60.13952369,62c50e9c1127f2cd403a315f,0,81,81,57,1,onethree,,,,,,,,,,,,,,,,,,,,,,,,,,,,,,,,,,,,,,,,,,,,,,,,,,,,,,,,,,,,,,,,,,,,,,,,,,,,,,,,,,,,,,,,,,,,,,,,,,,,,,,,,,,,,,,,,,,,,,,,,,,,,,,,,,,,,,,,,,,,,,,,,,,,,,,,,,,,
,,,,,,5fe3a0b4bf7c820835fc8fe1,62c53936b7009b49e4ba96c6,2022-07-06_09h31.10.876,Colour_Asymmetry_Pilot,2022.1.3,Win32,60.13952369,62c50e9c1127f2cd403a315f,0,82,82,154,1,twoone,,,,,,,,,,,,,,,,,,,,,,,,,,,,,,,,,,,,,,,,,,,,,,,,,,,,,,,,,,,,,,,,,,,,,,,,,,,,,,,,,,,,,,,,,,,,,,,,,,,,,,,,,,,,,,,,,,,,,,,,,,,,,,,,,,,,,,,,,,,,,,,,,,,,,,,,,,,,
,,,,,,5fe3a0b4bf7c820835fc8fe1,62c53936b7009b49e4ba96c6,2022-07-06_09h31.10.876,Colour_Asymmetry_Pilot,2022.1.3,Win32,60.13952369,62c50e9c1127f2cd403a315f,0,83,83,101,1,threefour,,,,,,,,,,,,,,,,,,,,,,,,,,,,,,,,,,,,,,,,,,,,,,,,,,,,,,,,,,,,,,,,,,,,,,,,,,,,,,,,,,,,,,,,,,,,,,,,,,,,,,,,,,,,,,,,,,,,,,,,,,,,,,,,,,,,,,,,,,,,,,,,,,,,,,,,,,,,
,,,,,,5fe3a0b4bf7c820835fc8fe1,62c53936b7009b49e4ba96c6,2022-07-06_09h31.10.876,Colour_Asymmetry_Pilot,2022.1.3,Win32,60.13952369,62c50e9c1127f2cd403a315f,0,84,84,80,1,onetwo,,,,,,,,,,,,,,,,,,,,,,,,,,,,,,,,,,,,,,,,,,,,,,,,,,,,,,,,,,,,,,,,,,,,,,,,,,,,,,,,,,,,,,,,,,,,,,,,,,,,,,,,,,,,,,,,,,,,,,,,,,,,,,,,,,,,,,,,,,,,,,,,,,,,,,,,,,,,
,,,,,,5fe3a0b4bf7c820835fc8fe1,62c53936b7009b49e4ba96c6,2022-07-06_09h31.10.876,Colour_Asymmetry_Pilot,2022.1.3,Win32,60.13952369,62c50e9c1127f2cd403a315f,0,85,85,157,1,threefour,,,,,,,,,,,,,,,,,,,,,,,,,,,,,,,,,,,,,,,,,,,,,,,,,,,,,,,,,,,,,,,,,,,,,,,,,,,,,,,,,,,,,,,,,,,,,,,,,,,,,,,,,,,,,,,,,,,,,,,,,,,,,,,,,,,,,,,,,,,,,,,,,,,,,,,,,,,,
,,,,,,5fe3a0b4bf7c820835fc8fe1,62c53936b7009b49e4ba96c6,2022-07-06_09h31.10.876,Colour_Asymmetry_Pilot,2022.1.3,Win32,60.13952369,62c50e9c1127f2cd403a315f,0,86,86,113,1,onethree,,,,,,,,,,,,,,,,,,,,,,,,,,,,,,,,,,,,,,,,,,,,,,,,,,,,,,,,,,,,,,,,,,,,,,,,,,,,,,,,,,,,,,,,,,,,,,,,,,,,,,,,,,,,,,,,,,,,,,,,,,,,,,,,,,,,,,,,,,,,,,,,,,,,,,,,,,,,
,,,,,,5fe3a0b4bf7c820835fc8fe1,62c53936b7009b49e4ba96c6,2022-07-06_09h31.10.876,Colour_Asymmetry_Pilot,2022.1.3,Win32,60.13952369,62c50e9c1127f2cd403a315f,0,87,87,12,1,threeone,,,,,,,,,,,,,,,,,,,,,,,,,,,,,,,,,,,,,,,,,,,,,,,,,,,,,,,,,,,,,,,,,,,,,,,,,,,,,,,,,,,,,,,,,,,,,,,,,,,,,,,,,,,,,,,,,,,,,,,,,,,,,,,,,,,,,,,,,,,,,,,,,,,,,,,,,,,,
,,,,,,5fe3a0b4bf7c820835fc8fe1,62c53936b7009b49e4ba96c6,2022-07-06_09h31.10.876,Colour_Asymmetry_Pilot,2022.1.3,Win32,60.13952369,62c50e9c1127f2cd403a315f,0,88,88,131,1,twofour,,,,,,,,,,,,,,,,,,,,,,,,,,,,,,,,,,,,,,,,,,,,,,,,,,,,,,,,,,,,,,,,,,,,,,,,,,,,,,,,,,,,,,,,,,,,,,,,,,,,,,,,,,,,,,,,,,,,,,,,,,,,,,,,,,,,,,,,,,,,,,,,,,,,,,,,,,,,
,,,,,,5fe3a0b4bf7c820835fc8fe1,62c53936b7009b49e4ba96c6,2022-07-06_09h31.10.876,Colour_Asymmetry_Pilot,2022.1.3,Win32,60.13952369,62c50e9c1127f2cd403a315f,0,89,89,109,1,threefour,,,,,,,,,,,,,,,,,,,,,,,,,,,,,,,,,,,,,,,,,,,,,,,,,,,,,,,,,,,,,,,,,,,,,,,,,,,,,,,,,,,,,,,,,,,,,,,,,,,,,,,,,,,,,,,,,,,,,,,,,,,,,,,,,,,,,,,,,,,,,,,,,,,,,,,,,,,,
,,,,,,5fe3a0b4bf7c820835fc8fe1,62c53936b7009b49e4ba96c6,2022-07-06_09h31.10.876,Colour_Asymmetry_Pilot,2022.1.3,Win32,60.13952369,62c50e9c1127f2cd403a315f,0,90,90,145,1,onethree,,,,,,,,,,,,,,,,,,,,,,,,,,,,,,,,,,,,,,,,,,,,,,,,,,,,,,,,,,,,,,,,,,,,,,,,,,,,,,,,,,,,,,,,,,,,,,,,,,,,,,,,,,,,,,,,,,,,,,,,,,,,,,,,,,,,,,,,,,,,,,,,,,,,,,,,,,,,
,,,,,,5fe3a0b4bf7c820835fc8fe1,62c53936b7009b49e4ba96c6,2022-07-06_09h31.10.876,Colour_Asymmetry_Pilot,2022.1.3,Win32,60.13952369,62c50e9c1127f2cd403a315f,0,91,91,124,1,threeone,,,,,,,,,,,,,,,,,,,,,,,,,,,,,,,,,,,,,,,,,,,,,,,,,,,,,,,,,,,,,,,,,,,,,,,,,,,,,,,,,,,,,,,,,,,,,,,,,,,,,,,,,,,,,,,,,,,,,,,,,,,,,,,,,,,,,,,,,,,,,,,,,,,,,,,,,,,,
,,,,,,5fe3a0b4bf7c820835fc8fe1,62c53936b7009b49e4ba96c6,2022-07-06_09h31.10.876,Colour_Asymmetry_Pilot,2022.1.3,Win32,60.13952369,62c50e9c1127f2cd403a315f,0,92,92,100,1,threeone,,,,,,,,,,,,,,,,,,,,,,,,,,,,,,,,,,,,,,,,,,,,,,,,,,,,,,,,,,,,,,,,,,,,,,,,,,,,,,,,,,,,,,,,,,,,,,,,,,,,,,,,,,,,,,,,,,,,,,,,,,,,,,,,,,,,,,,,,,,,,,,,,,,,,,,,,,,,
,,,,,,5fe3a0b4bf7c820835fc8fe1,62c53936b7009b49e4ba96c6,2022-07-06_09h31.10.876,Colour_Asymmetry_Pilot,2022.1.3,Win32,60.13952369,62c50e9c1127f2cd403a315f,0,93,93,61,1,threefour,,,,,,,,,,,,,,,,,,,,,,,,,,,,,,,,,,,,,,,,,,,,,,,,,,,,,,,,,,,,,,,,,,,,,,,,,,,,,,,,,,,,,,,,,,,,,,,,,,,,,,,,,,,,,,,,,,,,,,,,,,,,,,,,,,,,,,,,,,,,,,,,,,,,,,,,,,,,
,,,,,,5fe3a0b4bf7c820835fc8fe1,62c53936b7009b49e4ba96c6,2022-07-06_09h31.10.876,Colour_Asymmetry_Pilot,2022.1.3,Win32,60.13952369,62c50e9c1127f2cd403a315f,0,94,94,104,1,onetwo,,,,,,,,,,,,,,,,,,,,,,,,,,,,,,,,,,,,,,,,,,,,,,,,,,,,,,,,,,,,,,,,,,,,,,,,,,,,,,,,,,,,,,,,,,,,,,,,,,,,,,,,,,,,,,,,,,,,,,,,,,,,,,,,,,,,,,,,,,,,,,,,,,,,,,,,,,,,
,,,,,,5fe3a0b4bf7c820835fc8fe1,62c53936b7009b49e4ba96c6,2022-07-06_09h31.10.876,Colour_Asymmetry_Pilot,2022.1.3,Win32,60.13952369,62c50e9c1127f2cd403a315f,0,95,95,134,1,fourtwo,,,,,,,,,,,,,,,,,,,,,,,,,,,,,,,,,,,,,,,,,,,,,,,,,,,,,,,,,,,,,,,,,,,,,,,,,,,,,,,,,,,,,,,,,,,,,,,,,,,,,,,,,,,,,,,,,,,,,,,,,,,,,,,,,,,,,,,,,,,,,,,,,,,,,,,,,,,,
,,,,,,5fe3a0b4bf7c820835fc8fe1,62c53936b7009b49e4ba96c6,2022-07-06_09h31.10.876,Colour_Asymmetry_Pilot,2022.1.3,Win32,60.13952369,62c50e9c1127f2cd403a315f,0,96,96,98,1,twoone,,,,,,,,,,,,,,,,,,,,,,,,,,,,,,,,,,,,,,,,,,,,,,,,,,,,,,,,,,,,,,,,,,,,,,,,,,,,,,,,,,,,,,,,,,,,,,,,,,,,,,,,,,,,,,,,,,,,,,,,,,,,,,,,,,,,,,,,,,,,,,,,,,,,,,,,,,,,
,,,,,,5fe3a0b4bf7c820835fc8fe1,62c53936b7009b49e4ba96c6,2022-07-06_09h31.10.876,Colour_Asymmetry_Pilot,2022.1.3,Win32,60.13952369,62c50e9c1127f2cd403a315f,0,97,97,149,1,threefour,,,,,,,,,,,,,,,,,,,,,,,,,,,,,,,,,,,,,,,,,,,,,,,,,,,,,,,,,,,,,,,,,,,,,,,,,,,,,,,,,,,,,,,,,,,,,,,,,,,,,,,,,,,,,,,,,,,,,,,,,,,,,,,,,,,,,,,,,,,,,,,,,,,,,,,,,,,,
,,,,,,5fe3a0b4bf7c820835fc8fe1,62c53936b7009b49e4ba96c6,2022-07-06_09h31.10.876,Colour_Asymmetry_Pilot,2022.1.3,Win32,60.13952369,62c50e9c1127f2cd403a315f,0,98,98,19,1,twofour,,,,,,,,,,,,,,,,,,,,,,,,,,,,,,,,,,,,,,,,,,,,,,,,,,,,,,,,,,,,,,,,,,,,,,,,,,,,,,,,,,,,,,,,,,,,,,,,,,,,,,,,,,,,,,,,,,,,,,,,,,,,,,,,,,,,,,,,,,,,,,,,,,,,,,,,,,,,
,,,,,,5fe3a0b4bf7c820835fc8fe1,62c53936b7009b49e4ba96c6,2022-07-06_09h31.10.876,Colour_Asymmetry_Pilot,2022.1.3,Win32,60.13952369,62c50e9c1127f2cd403a315f,0,99,99,60,1,threeone,,,,,,,,,,,,,,,,,,,,,,,,,,,,,,,,,,,,,,,,,,,,,,,,,,,,,,,,,,,,,,,,,,,,,,,,,,,,,,,,,,,,,,,,,,,,,,,,,,,,,,,,,,,,,,,,,,,,,,,,,,,,,,,,,,,,,,,,,,,,,,,,,,,,,,,,,,,,
,,,,,,5fe3a0b4bf7c820835fc8fe1,62c53936b7009b49e4ba96c6,2022-07-06_09h31.10.876,Colour_Asymmetry_Pilot,2022.1.3,Win32,60.13952369,62c50e9c1127f2cd403a315f,0,100,100,123,1,twofour,,,,,,,,,,,,,,,,,,,,,,,,,,,,,,,,,,,,,,,,,,,,,,,,,,,,,,,,,,,,,,,,,,,,,,,,,,,,,,,,,,,,,,,,,,,,,,,,,,,,,,,,,,,,,,,,,,,,,,,,,,,,,,,,,,,,,,,,,,,,,,,,,,,,,,,,,,,,
,,,,,,5fe3a0b4bf7c820835fc8fe1,62c53936b7009b49e4ba96c6,2022-07-06_09h31.10.876,Colour_Asymmetry_Pilot,2022.1.3,Win32,60.13952369,62c50e9c1127f2cd403a315f,0,101,101,142,1,fourtwo,,,,,,,,,,,,,,,,,,,,,,,,,,,,,,,,,,,,,,,,,,,,,,,,,,,,,,,,,,,,,,,,,,,,,,,,,,,,,,,,,,,,,,,,,,,,,,,,,,,,,,,,,,,,,,,,,,,,,,,,,,,,,,,,,,,,,,,,,,,,,,,,,,,,,,,,,,,,
,,,,,,5fe3a0b4bf7c820835fc8fe1,62c53936b7009b49e4ba96c6,2022-07-06_09h31.10.876,Colour_Asymmetry_Pilot,2022.1.3,Win32,60.13952369,62c50e9c1127f2cd403a315f,0,102,102,136,1,onetwo,,,,,,,,,,,,,,,,,,,,,,,,,,,,,,,,,,,,,,,,,,,,,,,,,,,,,,,,,,,,,,,,,,,,,,,,,,,,,,,,,,,,,,,,,,,,,,,,,,,,,,,,,,,,,,,,,,,,,,,,,,,,,,,,,,,,,,,,,,,,,,,,,,,,,,,,,,,,
,,,,,,5fe3a0b4bf7c820835fc8fe1,62c53936b7009b49e4ba96c6,2022-07-06_09h31.10.876,Colour_Asymmetry_Pilot,2022.1.3,Win32,60.13952369,62c50e9c1127f2cd403a315f,0,103,103,140,1,threeone,,,,,,,,,,,,,,,,,,,,,,,,,,,,,,,,,,,,,,,,,,,,,,,,,,,,,,,,,,,,,,,,,,,,,,,,,,,,,,,,,,,,,,,,,,,,,,,,,,,,,,,,,,,,,,,,,,,,,,,,,,,,,,,,,,,,,,,,,,,,,,,,,,,,,,,,,,,,
,,,,,,5fe3a0b4bf7c820835fc8fe1,62c53936b7009b49e4ba96c6,2022-07-06_09h31.10.876,Colour_Asymmetry_Pilot,2022.1.3,Win32,60.13952369,62c50e9c1127f2cd403a315f,0,104,104,146,1,twoone,,,,,,,,,,,,,,,,,,,,,,,,,,,,,,,,,,,,,,,,,,,,,,,,,,,,,,,,,,,,,,,,,,,,,,,,,,,,,,,,,,,,,,,,,,,,,,,,,,,,,,,,,,,,,,,,,,,,,,,,,,,,,,,,,,,,,,,,,,,,,,,,,,,,,,,,,,,,
,,,,,,5fe3a0b4bf7c820835fc8fe1,62c53936b7009b49e4ba96c6,2022-07-06_09h31.10.876,Colour_Asymmetry_Pilot,2022.1.3,Win32,60.13952369,62c50e9c1127f2cd403a315f,0,105,105,135,1,fourthree,,,,,,,,,,,,,,,,,,,,,,,,,,,,,,,,,,,,,,,,,,,,,,,,,,,,,,,,,,,,,,,,,,,,,,,,,,,,,,,,,,,,,,,,,,,,,,,,,,,,,,,,,,,,,,,,,,,,,,,,,,,,,,,,,,,,,,,,,,,,,,,,,,,,,,,,,,,,
,,,,,,5fe3a0b4bf7c820835fc8fe1,62c53936b7009b49e4ba96c6,2022-07-06_09h31.10.876,Colour_Asymmetry_Pilot,2022.1.3,Win32,60.13952369,62c50e9c1127f2cd403a315f,0,106,106,125,1,threefour,,,,,,,,,,,,,,,,,,,,,,,,,,,,,,,,,,,,,,,,,,,,,,,,,,,,,,,,,,,,,,,,,,,,,,,,,,,,,,,,,,,,,,,,,,,,,,,,,,,,,,,,,,,,,,,,,,,,,,,,,,,,,,,,,,,,,,,,,,,,,,,,,,,,,,,,,,,,
,,,,,,5fe3a0b4bf7c820835fc8fe1,62c53936b7009b49e4ba96c6,2022-07-06_09h31.10.876,Colour_Asymmetry_Pilot,2022.1.3,Win32,60.13952369,62c50e9c1127f2cd403a315f,0,107,107,41,1,onethree,,,,,,,,,,,,,,,,,,,,,,,,,,,,,,,,,,,,,,,,,,,,,,,,,,,,,,,,,,,,,,,,,,,,,,,,,,,,,,,,,,,,,,,,,,,,,,,,,,,,,,,,,,,,,,,,,,,,,,,,,,,,,,,,,,,,,,,,,,,,,,,,,,,,,,,,,,,,
,,,,,,5fe3a0b4bf7c820835fc8fe1,62c53936b7009b49e4ba96c6,2022-07-06_09h31.10.876,Colour_Asymmetry_Pilot,2022.1.3,Win32,60.13952369,62c50e9c1127f2cd403a315f,0,108,108,86,1,fourtwo,,,,,,,,,,,,,,,,,,,,,,,,,,,,,,,,,,,,,,,,,,,,,,,,,,,,,,,,,,,,,,,,,,,,,,,,,,,,,,,,,,,,,,,,,,,,,,,,,,,,,,,,,,,,,,,,,,,,,,,,,,,,,,,,,,,,,,,,,,,,,,,,,,,,,,,,,,,,
,,,,,,5fe3a0b4bf7c820835fc8fe1,62c53936b7009b49e4ba96c6,2022-07-06_09h31.10.876,Colour_Asymmetry_Pilot,2022.1.3,Win32,60.13952369,62c50e9c1127f2cd403a315f,0,109,109,161,1,onethree,,,,,,,,,,,,,,,,,,,,,,,,,,,,,,,,,,,,,,,,,,,,,,,,,,,,,,,,,,,,,,,,,,,,,,,,,,,,,,,,,,,,,,,,,,,,,,,,,,,,,,,,,,,,,,,,,,,,,,,,,,,,,,,,,,,,,,,,,,,,,,,,,,,,,,,,,,,,
,,,,,,5fe3a0b4bf7c820835fc8fe1,62c53936b7009b49e4ba96c6,2022-07-06_09h31.10.876,Colour_Asymmetry_Pilot,2022.1.3,Win32,60.13952369,62c50e9c1127f2cd403a315f,0,110,110,160,1,onetwo,,,,,,,,,,,,,,,,,,,,,,,,,,,,,,,,,,,,,,,,,,,,,,,,,,,,,,,,,,,,,,,,,,,,,,,,,,,,,,,,,,,,,,,,,,,,,,,,,,,,,,,,,,,,,,,,,,,,,,,,,,,,,,,,,,,,,,,,,,,,,,,,,,,,,,,,,,,,
,,,,,,5fe3a0b4bf7c820835fc8fe1,62c53936b7009b49e4ba96c6,2022-07-06_09h31.10.876,Colour_Asymmetry_Pilot,2022.1.3,Win32,60.13952369,62c50e9c1127f2cd403a315f,0,111,111,47,1,fourthree,,,,,,,,,,,,,,,,,,,,,,,,,,,,,,,,,,,,,,,,,,,,,,,,,,,,,,,,,,,,,,,,,,,,,,,,,,,,,,,,,,,,,,,,,,,,,,,,,,,,,,,,,,,,,,,,,,,,,,,,,,,,,,,,,,,,,,,,,,,,,,,,,,,,,,,,,,,,
,,,,,,5fe3a0b4bf7c820835fc8fe1,62c53936b7009b49e4ba96c6,2022-07-06_09h31.10.876,Colour_Asymmetry_Pilot,2022.1.3,Win32,60.13952369,62c50e9c1127f2cd403a315f,0,112,112,10,1,twoone,,,,,,,,,,,,,,,,,,,,,,,,,,,,,,,,,,,,,,,,,,,,,,,,,,,,,,,,,,,,,,,,,,,,,,,,,,,,,,,,,,,,,,,,,,,,,,,,,,,,,,,,,,,,,,,,,,,,,,,,,,,,,,,,,,,,,,,,,,,,,,,,,,,,,,,,,,,,
,,,,,,5fe3a0b4bf7c820835fc8fe1,62c53936b7009b49e4ba96c6,2022-07-06_09h31.10.876,Colour_Asymmetry_Pilot,2022.1.3,Win32,60.13952369,62c50e9c1127f2cd403a315f,0,113,113,158,1,fourtwo,,,,,,,,,,,,,,,,,,,,,,,,,,,,,,,,,,,,,,,,,,,,,,,,,,,,,,,,,,,,,,,,,,,,,,,,,,,,,,,,,,,,,,,,,,,,,,,,,,,,,,,,,,,,,,,,,,,,,,,,,,,,,,,,,,,,,,,,,,,,,,,,,,,,,,,,,,,,
,,,,,,5fe3a0b4bf7c820835fc8fe1,62c53936b7009b49e4ba96c6,2022-07-06_09h31.10.876,Colour_Asymmetry_Pilot,2022.1.3,Win32,60.13952369,62c50e9c1127f2cd403a315f,0,114,114,76,1,threeone,,,,,,,,,,,,,,,,,,,,,,,,,,,,,,,,,,,,,,,,,,,,,,,,,,,,,,,,,,,,,,,,,,,,,,,,,,,,,,,,,,,,,,,,,,,,,,,,,,,,,,,,,,,,,,,,,,,,,,,,,,,,,,,,,,,,,,,,,,,,,,,,,,,,,,,,,,,,
,,,,,,5fe3a0b4bf7c820835fc8fe1,62c53936b7009b49e4ba96c6,2022-07-06_09h31.10.876,Colour_Asymmetry_Pilot,2022.1.3,Win32,60.13952369,62c50e9c1127f2cd403a315f,0,115,115,1,1,onethree,,,,,,,,,,,,,,,,,,,,,,,,,,,,,,,,,,,,,,,,,,,,,,,,,,,,,,,,,,,,,,,,,,,,,,,,,,,,,,,,,,,,,,,,,,,,,,,,,,,,,,,,,,,,,,,,,,,,,,,,,,,,,,,,,,,,,,,,,,,,,,,,,,,,,,,,,,,,
,,,,,,5fe3a0b4bf7c820835fc8fe1,62c53936b7009b49e4ba96c6,2022-07-06_09h31.10.876,Colour_Asymmetry_Pilot,2022.1.3,Win32,60.13952369,62c50e9c1127f2cd403a315f,0,116,116,84,1,threeone,,,,,,,,,,,,,,,,,,,,,,,,,,,,,,,,,,,,,,,,,,,,,,,,,,,,,,,,,,,,,,,,,,,,,,,,,,,,,,,,,,,,,,,,,,,,,,,,,,,,,,,,,,,,,,,,,,,,,,,,,,,,,,,,,,,,,,,,,,,,,,,,,,,,,,,,,,,,
,,,,,,5fe3a0b4bf7c820835fc8fe1,62c53936b7009b49e4ba96c6,2022-07-06_09h31.10.876,Colour_Asymmetry_Pilot,2022.1.3,Win32,60.13952369,62c50e9c1127f2cd403a315f,0,117,117,103,1,fourthree,,,,,,,,,,,,,,,,,,,,,,,,,,,,,,,,,,,,,,,,,,,,,,,,,,,,,,,,,,,,,,,,,,,,,,,,,,,,,,,,,,,,,,,,,,,,,,,,,,,,,,,,,,,,,,,,,,,,,,,,,,,,,,,,,,,,,,,,,,,,,,,,,,,,,,,,,,,,
,,,,,,5fe3a0b4bf7c820835fc8fe1,62c53936b7009b49e4ba96c6,2022-07-06_09h31.10.876,Colour_Asymmetry_Pilot,2022.1.3,Win32,60.13952369,62c50e9c1127f2cd403a315f,0,118,118,92,1,threeone,,,,,,,,,,,,,,,,,,,,,,,,,,,,,,,,,,,,,,,,,,,,,,,,,,,,,,,,,,,,,,,,,,,,,,,,,,,,,,,,,,,,,,,,,,,,,,,,,,,,,,,,,,,,,,,,,,,,,,,,,,,,,,,,,,,,,,,,,,,,,,,,,,,,,,,,,,,,
,,,,,,5fe3a0b4bf7c820835fc8fe1,62c53936b7009b49e4ba96c6,2022-07-06_09h31.10.876,Colour_Asymmetry_Pilot,2022.1.3,Win32,60.13952369,62c50e9c1127f2cd403a315f,0,119,119,26,1,twoone,,,,,,,,,,,,,,,,,,,,,,,,,,,,,,,,,,,,,,,,,,,,,,,,,,,,,,,,,,,,,,,,,,,,,,,,,,,,,,,,,,,,,,,,,,,,,,,,,,,,,,,,,,,,,,,,,,,,,,,,,,,,,,,,,,,,,,,,,,,,,,,,,,,,,,,,,,,,
,,,,,,5fe3a0b4bf7c820835fc8fe1,62c53936b7009b49e4ba96c6,2022-07-06_09h31.10.876,Colour_Asymmetry_Pilot,2022.1.3,Win32,60.13952369,62c50e9c1127f2cd403a315f,0,120,120,110,1,fourtwo,,,,,,,,,,,,,,,,,,,,,,,,,,,,,,,,,,,,,,,,,,,,,,,,,,,,,,,,,,,,,,,,,,,,,,,,,,,,,,,,,,,,,,,,,,,,,,,,,,,,,,,,,,,,,,,,,,,,,,,,,,,,,,,,,,,,,,,,,,,,,,,,,,,,,,,,,,,,
,,,,,,5fe3a0b4bf7c820835fc8fe1,62c53936b7009b49e4ba96c6,2022-07-06_09h31.10.876,Colour_Asymmetry_Pilot,2022.1.3,Win32,60.13952369,62c50e9c1127f2cd403a315f,0,121,121,107,1,twofour,,,,,,,,,,,,,,,,,,,,,,,,,,,,,,,,,,,,,,,,,,,,,,,,,,,,,,,,,,,,,,,,,,,,,,,,,,,,,,,,,,,,,,,,,,,,,,,,,,,,,,,,,,,,,,,,,,,,,,,,,,,,,,,,,,,,,,,,,,,,,,,,,,,,,,,,,,,,
,,,,,,5fe3a0b4bf7c820835fc8fe1,62c53936b7009b49e4ba96c6,2022-07-06_09h31.10.876,Colour_Asymmetry_Pilot,2022.1.3,Win32,60.13952369,62c50e9c1127f2cd403a315f,0,122,122,132,1,threeone,,,,,,,,,,,,,,,,,,,,,,,,,,,,,,,,,,,,,,,,,,,,,,,,,,,,,,,,,,,,,,,,,,,,,,,,,,,,,,,,,,,,,,,,,,,,,,,,,,,,,,,,,,,,,,,,,,,,,,,,,,,,,,,,,,,,,,,,,,,,,,,,,,,,,,,,,,,,
,,,,,,5fe3a0b4bf7c820835fc8fe1,62c53936b7009b49e4ba96c6,2022-07-06_09h31.10.876,Colour_Asymmetry_Pilot,2022.1.3,Win32,60.13952369,62c50e9c1127f2cd403a315f,0,123,123,127,1,fourthree,,,,,,,,,,,,,,,,,,,,,,,,,,,,,,,,,,,,,,,,,,,,,,,,,,,,,,,,,,,,,,,,,,,,,,,,,,,,,,,,,,,,,,,,,,,,,,,,,,,,,,,,,,,,,,,,,,,,,,,,,,,,,,,,,,,,,,,,,,,,,,,,,,,,,,,,,,,,
,,,,,,5fe3a0b4bf7c820835fc8fe1,62c53936b7009b49e4ba96c6,2022-07-06_09h31.10.876,Colour_Asymmetry_Pilot,2022.1.3,Win32,60.13952369,62c50e9c1127f2cd403a315f,0,124,124,29,1,threefour,,,,,,,,,,,,,,,,,,,,,,,,,,,,,,,,,,,,,,,,,,,,,,,,,,,,,,,,,,,,,,,,,,,,,,,,,,,,,,,,,,,,,,,,,,,,,,,,,,,,,,,,,,,,,,,,,,,,,,,,,,,,,,,,,,,,,,,,,,,,,,,,,,,,,,,,,,,,
,,,,,,5fe3a0b4bf7c820835fc8fe1,62c53936b7009b49e4ba96c6,2022-07-06_09h31.10.876,Colour_Asymmetry_Pilot,2022.1.3,Win32,60.13952369,62c50e9c1127f2cd403a315f,0,125,125,9,1,onethree,,,,,,,,,,,,,,,,,,,,,,,,,,,,,,,,,,,,,,,,,,,,,,,,,,,,,,,,,,,,,,,,,,,,,,,,,,,,,,,,,,,,,,,,,,,,,,,,,,,,,,,,,,,,,,,,,,,,,,,,,,,,,,,,,,,,,,,,,,,,,,,,,,,,,,,,,,,,
,,,,,,5fe3a0b4bf7c820835fc8fe1,62c53936b7009b49e4ba96c6,2022-07-06_09h31.10.876,Colour_Asymmetry_Pilot,2022.1.3,Win32,60.13952369,62c50e9c1127f2cd403a315f,0,126,126,85,1,threefour,,,,,,,,,,,,,,,,,,,,,,,,,,,,,,,,,,,,,,,,,,,,,,,,,,,,,,,,,,,,,,,,,,,,,,,,,,,,,,,,,,,,,,,,,,,,,,,,,,,,,,,,,,,,,,,,,,,,,,,,,,,,,,,,,,,,,,,,,,,,,,,,,,,,,,,,,,,,
,,,,,,5fe3a0b4bf7c820835fc8fe1,62c53936b7009b49e4ba96c6,2022-07-06_09h31.10.876,Colour_Asymmetry_Pilot,2022.1.3,Win32,60.13952369,62c50e9c1127f2cd403a315f,0,127,127,48,1,onetwo,,,,,,,,,,,,,,,,,,,,,,,,,,,,,,,,,,,,,,,,,,,,,,,,,,,,,,,,,,,,,,,,,,,,,,,,,,,,,,,,,,,,,,,,,,,,,,,,,,,,,,,,,,,,,,,,,,,,,,,,,,,,,,,,,,,,,,,,,,,,,,,,,,,,,,,,,,,,
,,,,,,5fe3a0b4bf7c820835fc8fe1,62c53936b7009b49e4ba96c6,2022-07-06_09h31.10.876,Colour_Asymmetry_Pilot,2022.1.3,Win32,60.13952369,62c50e9c1127f2cd403a315f,0,128,128,67,1,twofour,,,,,,,,,,,,,,,,,,,,,,,,,,,,,,,,,,,,,,,,,,,,,,,,,,,,,,,,,,,,,,,,,,,,,,,,,,,,,,,,,,,,,,,,,,,,,,,,,,,,,,,,,,,,,,,,,,,,,,,,,,,,,,,,,,,,,,,,,,,,,,,,,,,,,,,,,,,,
,,,,,,5fe3a0b4bf7c820835fc8fe1,62c53936b7009b49e4ba96c6,2022-07-06_09h31.10.876,Colour_Asymmetry_Pilot,2022.1.3,Win32,60.13952369,62c50e9c1127f2cd403a315f,0,129,129,5,1,threefour,,,,,,,,,,,,,,,,,,,,,,,,,,,,,,,,,,,,,,,,,,,,,,,,,,,,,,,,,,,,,,,,,,,,,,,,,,,,,,,,,,,,,,,,,,,,,,,,,,,,,,,,,,,,,,,,,,,,,,,,,,,,,,,,,,,,,,,,,,,,,,,,,,,,,,,,,,,,
,,,,,,5fe3a0b4bf7c820835fc8fe1,62c53936b7009b49e4ba96c6,2022-07-06_09h31.10.876,Colour_Asymmetry_Pilot,2022.1.3,Win32,60.13952369,62c50e9c1127f2cd403a315f,0,130,130,87,1,fourthree,,,,,,,,,,,,,,,,,,,,,,,,,,,,,,,,,,,,,,,,,,,,,,,,,,,,,,,,,,,,,,,,,,,,,,,,,,,,,,,,,,,,,,,,,,,,,,,,,,,,,,,,,,,,,,,,,,,,,,,,,,,,,,,,,,,,,,,,,,,,,,,,,,,,,,,,,,,,
,,,,,,5fe3a0b4bf7c820835fc8fe1,62c53936b7009b49e4ba96c6,2022-07-06_09h31.10.876,Colour_Asymmetry_Pilot,2022.1.3,Win32,60.13952369,62c50e9c1127f2cd403a315f,0,131,131,34,1,twoone,,,,,,,,,,,,,,,,,,,,,,,,,,,,,,,,,,,,,,,,,,,,,,,,,,,,,,,,,,,,,,,,,,,,,,,,,,,,,,,,,,,,,,,,,,,,,,,,,,,,,,,,,,,,,,,,,,,,,,,,,,,,,,,,,,,,,,,,,,,,,,,,,,,,,,,,,,,,
,,,,,,5fe3a0b4bf7c820835fc8fe1,62c53936b7009b49e4ba96c6,2022-07-06_09h31.10.876,Colour_Asymmetry_Pilot,2022.1.3,Win32,60.13952369,62c50e9c1127f2cd403a315f,0,132,132,13,1,threefour,,,,,,,,,,,,,,,,,,,,,,,,,,,,,,,,,,,,,,,,,,,,,,,,,,,,,,,,,,,,,,,,,,,,,,,,,,,,,,,,,,,,,,,,,,,,,,,,,,,,,,,,,,,,,,,,,,,,,,,,,,,,,,,,,,,,,,,,,,,,,,,,,,,,,,,,,,,,
,,,,,,5fe3a0b4bf7c820835fc8fe1,62c53936b7009b49e4ba96c6,2022-07-06_09h31.10.876,Colour_Asymmetry_Pilot,2022.1.3,Win32,60.13952369,62c50e9c1127f2cd403a315f,0,133,133,32,1,onetwo,,,,,,,,,,,,,,,,,,,,,,,,,,,,,,,,,,,,,,,,,,,,,,,,,,,,,,,,,,,,,,,,,,,,,,,,,,,,,,,,,,,,,,,,,,,,,,,,,,,,,,,,,,,,,,,,,,,,,,,,,,,,,,,,,,,,,,,,,,,,,,,,,,,,,,,,,,,,
,,,,,,5fe3a0b4bf7c820835fc8fe1,62c53936b7009b49e4ba96c6,2022-07-06_09h31.10.876,Colour_Asymmetry_Pilot,2022.1.3,Win32,60.13952369,62c50e9c1127f2cd403a315f,0,134,134,51,1,twofour,,,,,,,,,,,,,,,,,,,,,,,,,,,,,,,,,,,,,,,,,,,,,,,,,,,,,,,,,,,,,,,,,,,,,,,,,,,,,,,,,,,,,,,,,,,,,,,,,,,,,,,,,,,,,,,,,,,,,,,,,,,,,,,,,,,,,,,,,,,,,,,,,,,,,,,,,,,,
,,,,,,5fe3a0b4bf7c820835fc8fe1,62c53936b7009b49e4ba96c6,2022-07-06_09h31.10.876,Colour_Asymmetry_Pilot,2022.1.3,Win32,60.13952369,62c50e9c1127f2cd403a315f,0,135,135,28,1,threeone,,,,,,,,,,,,,,,,,,,,,,,,,,,,,,,,,,,,,,,,,,,,,,,,,,,,,,,,,,,,,,,,,,,,,,,,,,,,,,,,,,,,,,,,,,,,,,,,,,,,,,,,,,,,,,,,,,,,,,,,,,,,,,,,,,,,,,,,,,,,,,,,,,,,,,,,,,,,
,,,,,,5fe3a0b4bf7c820835fc8fe1,62c53936b7009b49e4ba96c6,2022-07-06_09h31.10.876,Colour_Asymmetry_Pilot,2022.1.3,Win32,60.13952369,62c50e9c1127f2cd403a315f,0,136,136,17,1,onethree,,,,,,,,,,,,,,,,,,,,,,,,,,,,,,,,,,,,,,,,,,,,,,,,,,,,,,,,,,,,,,,,,,,,,,,,,,,,,,,,,,,,,,,,,,,,,,,,,,,,,,,,,,,,,,,,,,,,,,,,,,,,,,,,,,,,,,,,,,,,,,,,,,,,,,,,,,,,
,,,,,,5fe3a0b4bf7c820835fc8fe1,62c53936b7009b49e4ba96c6,2022-07-06_09h31.10.876,Colour_Asymmetry_Pilot,2022.1.3,Win32,60.13952369,62c50e9c1127f2cd403a315f,0,137,137,75,1,twofour,,,,,,,,,,,,,,,,,,,,,,,,,,,,,,,,,,,,,,,,,,,,,,,,,,,,,,,,,,,,,,,,,,,,,,,,,,,,,,,,,,,,,,,,,,,,,,,,,,,,,,,,,,,,,,,,,,,,,,,,,,,,,,,,,,,,,,,,,,,,,,,,,,,,,,,,,,,,
,,,,,,5fe3a0b4bf7c820835fc8fe1,62c53936b7009b49e4ba96c6,2022-07-06_09h31.10.876,Colour_Asymmetry_Pilot,2022.1.3,Win32,60.13952369,62c50e9c1127f2cd403a315f,0,138,138,105,1,onethree,,,,,,,,,,,,,,,,,,,,,,,,,,,,,,,,,,,,,,,,,,,,,,,,,,,,,,,,,,,,,,,,,,,,,,,,,,,,,,,,,,,,,,,,,,,,,,,,,,,,,,,,,,,,,,,,,,,,,,,,,,,,,,,,,,,,,,,,,,,,,,,,,,,,,,,,,,,,
,,,,,,5fe3a0b4bf7c820835fc8fe1,62c53936b7009b49e4ba96c6,2022-07-06_09h31.10.876,Colour_Asymmetry_Pilot,2022.1.3,Win32,60.13952369,62c50e9c1127f2cd403a315f,0,139,139,55,1,fourthree,,,,,,,,,,,,,,,,,,,,,,,,,,,,,,,,,,,,,,,,,,,,,,,,,,,,,,,,,,,,,,,,,,,,,,,,,,,,,,,,,,,,,,,,,,,,,,,,,,,,,,,,,,,,,,,,,,,,,,,,,,,,,,,,,,,,,,,,,,,,,,,,,,,,,,,,,,,,
,,,,,,5fe3a0b4bf7c820835fc8fe1,62c53936b7009b49e4ba96c6,2022-07-06_09h31.10.876,Colour_Asymmetry_Pilot,2022.1.3,Win32,60.13952369,62c50e9c1127f2cd403a315f,0,140,140,159,1,fourthree,,,,,,,,,,,,,,,,,,,,,,,,,,,,,,,,,,,,,,,,,,,,,,,,,,,,,,,,,,,,,,,,,,,,,,,,,,,,,,,,,,,,,,,,,,,,,,,,,,,,,,,,,,,,,,,,,,,,,,,,,,,,,,,,,,,,,,,,,,,,,,,,,,,,,,,,,,,,
,,,,,,5fe3a0b4bf7c820835fc8fe1,62c53936b7009b49e4ba96c6,2022-07-06_09h31.10.876,Colour_Asymmetry_Pilot,2022.1.3,Win32,60.13952369,62c50e9c1127f2cd403a315f,0,141,141,39,1,fourthree,,,,,,,,,,,,,,,,,,,,,,,,,,,,,,,,,,,,,,,,,,,,,,,,,,,,,,,,,,,,,,,,,,,,,,,,,,,,,,,,,,,,,,,,,,,,,,,,,,,,,,,,,,,,,,,,,,,,,,,,,,,,,,,,,,,,,,,,,,,,,,,,,,,,,,,,,,,,
,,,,,,5fe3a0b4bf7c820835fc8fe1,62c53936b7009b49e4ba96c6,2022-07-06_09h31.10.876,Colour_Asymmetry_Pilot,2022.1.3,Win32,60.13952369,62c50e9c1127f2cd403a315f,0,142,142,115,1,twofour,,,,,,,,,,,,,,,,,,,,,,,,,,,,,,,,,,,,,,,,,,,,,,,,,,,,,,,,,,,,,,,,,,,,,,,,,,,,,,,,,,,,,,,,,,,,,,,,,,,,,,,,,,,,,,,,,,,,,,,,,,,,,,,,,,,,,,,,,,,,,,,,,,,,,,,,,,,,
,,,,,,5fe3a0b4bf7c820835fc8fe1,62c53936b7009b49e4ba96c6,2022-07-06_09h31.10.876,Colour_Asymmetry_Pilot,2022.1.3,Win32,60.13952369,62c50e9c1127f2cd403a315f,0,143,143,62,1,fourtwo,,,,,,,,,,,,,,,,,,,,,,,,,,,,,,,,,,,,,,,,,,,,,,,,,,,,,,,,,,,,,,,,,,,,,,,,,,,,,,,,,,,,,,,,,,,,,,,,,,,,,,,,,,,,,,,,,,,,,,,,,,,,,,,,,,,,,,,,,,,,,,,,,,,,,,,,,,,,
,,,,,,5fe3a0b4bf7c820835fc8fe1,62c53936b7009b49e4ba96c6,2022-07-06_09h31.10.876,Colour_Asymmetry_Pilot,2022.1.3,Win32,60.13952369,62c50e9c1127f2cd403a315f,0,144,144,83,1,twofour,,,,,,,,,,,,,,,,,,,,,,,,,,,,,,,,,,,,,,,,,,,,,,,,,,,,,,,,,,,,,,,,,,,,,,,,,,,,,,,,,,,,,,,,,,,,,,,,,,,,,,,,,,,,,,,,,,,,,,,,,,,,,,,,,,,,,,,,,,,,,,,,,,,,,,,,,,,,
,,,,,,5fe3a0b4bf7c820835fc8fe1,62c53936b7009b49e4ba96c6,2022-07-06_09h31.10.876,Colour_Asymmetry_Pilot,2022.1.3,Win32,60.13952369,62c50e9c1127f2cd403a315f,0,145,145,81,1,onethree,,,,,,,,,,,,,,,,,,,,,,,,,,,,,,,,,,,,,,,,,,,,,,,,,,,,,,,,,,,,,,,,,,,,,,,,,,,,,,,,,,,,,,,,,,,,,,,,,,,,,,,,,,,,,,,,,,,,,,,,,,,,,,,,,,,,,,,,,,,,,,,,,,,,,,,,,,,,
,,,,,,5fe3a0b4bf7c820835fc8fe1,62c53936b7009b49e4ba96c6,2022-07-06_09h31.10.876,Colour_Asymmetry_Pilot,2022.1.3,Win32,60.13952369,62c50e9c1127f2cd403a315f,0,146,146,119,1,fourthree,,,,,,,,,,,,,,,,,,,,,,,,,,,,,,,,,,,,,,,,,,,,,,,,,,,,,,,,,,,,,,,,,,,,,,,,,,,,,,,,,,,,,,,,,,,,,,,,,,,,,,,,,,,,,,,,,,,,,,,,,,,,,,,,,,,,,,,,,,,,,,,,,,,,,,,,,,,,
,,,,,,5fe3a0b4bf7c820835fc8fe1,62c53936b7009b49e4ba96c6,2022-07-06_09h31.10.876,Colour_Asymmetry_Pilot,2022.1.3,Win32,60.13952369,62c50e9c1127f2cd403a315f,0,147,147,65,1,onethree,,,,,,,,,,,,,,,,,,,,,,,,,,,,,,,,,,,,,,,,,,,,,,,,,,,,,,,,,,,,,,,,,,,,,,,,,,,,,,,,,,,,,,,,,,,,,,,,,,,,,,,,,,,,,,,,,,,,,,,,,,,,,,,,,,,,,,,,,,,,,,,,,,,,,,,,,,,,
,,,,,,5fe3a0b4bf7c820835fc8fe1,62c53936b7009b49e4ba96c6,2022-07-06_09h31.10.876,Colour_Asymmetry_Pilot,2022.1.3,Win32,60.13952369,62c50e9c1127f2cd403a315f,0,148,148,94,1,fourtwo,,,,,,,,,,,,,,,,,,,,,,,,,,,,,,,,,,,,,,,,,,,,,,,,,,,,,,,,,,,,,,,,,,,,,,,,,,,,,,,,,,,,,,,,,,,,,,,,,,,,,,,,,,,,,,,,,,,,,,,,,,,,,,,,,,,,,,,,,,,,,,,,,,,,,,,,,,,,
,,,,,,5fe3a0b4bf7c820835fc8fe1,62c53936b7009b49e4ba96c6,2022-07-06_09h31.10.876,Colour_Asymmetry_Pilot,2022.1.3,Win32,60.13952369,62c50e9c1127f2cd403a315f,0,149,149,22,1,fourtwo,,,,,,,,,,,,,,,,,,,,,,,,,,,,,,,,,,,,,,,,,,,,,,,,,,,,,,,,,,,,,,,,,,,,,,,,,,,,,,,,,,,,,,,,,,,,,,,,,,,,,,,,,,,,,,,,,,,,,,,,,,,,,,,,,,,,,,,,,,,,,,,,,,,,,,,,,,,,
,,,,,,5fe3a0b4bf7c820835fc8fe1,62c53936b7009b49e4ba96c6,2022-07-06_09h31.10.876,Colour_Asymmetry_Pilot,2022.1.3,Win32,60.13952369,62c50e9c1127f2cd403a315f,0,150,150,56,1,onetwo,,,,,,,,,,,,,,,,,,,,,,,,,,,,,,,,,,,,,,,,,,,,,,,,,,,,,,,,,,,,,,,,,,,,,,,,,,,,,,,,,,,,,,,,,,,,,,,,,,,,,,,,,,,,,,,,,,,,,,,,,,,,,,,,,,,,,,,,,,,,,,,,,,,,,,,,,,,,
,,,,,,5fe3a0b4bf7c820835fc8fe1,62c53936b7009b49e4ba96c6,2022-07-06_09h31.10.876,Colour_Asymmetry_Pilot,2022.1.3,Win32,60.13952369,62c50e9c1127f2cd403a315f,0,151,151,89,1,onethree,,,,,,,,,,,,,,,,,,,,,,,,,,,,,,,,,,,,,,,,,,,,,,,,,,,,,,,,,,,,,,,,,,,,,,,,,,,,,,,,,,,,,,,,,,,,,,,,,,,,,,,,,,,,,,,,,,,,,,,,,,,,,,,,,,,,,,,,,,,,,,,,,,,,,,,,,,,,
,,,,,,5fe3a0b4bf7c820835fc8fe1,62c53936b7009b49e4ba96c6,2022-07-06_09h31.10.876,Colour_Asymmetry_Pilot,2022.1.3,Win32,60.13952369,62c50e9c1127f2cd403a315f,0,152,152,137,1,onethree,,,,,,,,,,,,,,,,,,,,,,,,,,,,,,,,,,,,,,,,,,,,,,,,,,,,,,,,,,,,,,,,,,,,,,,,,,,,,,,,,,,,,,,,,,,,,,,,,,,,,,,,,,,,,,,,,,,,,,,,,,,,,,,,,,,,,,,,,,,,,,,,,,,,,,,,,,,,
,,,,,,5fe3a0b4bf7c820835fc8fe1,62c53936b7009b49e4ba96c6,2022-07-06_09h31.10.876,Colour_Asymmetry_Pilot,2022.1.3,Win32,60.13952369,62c50e9c1127f2cd403a315f,0,153,153,46,1,fourtwo,,,,,,,,,,,,,,,,,,,,,,,,,,,,,,,,,,,,,,,,,,,,,,,,,,,,,,,,,,,,,,,,,,,,,,,,,,,,,,,,,,,,,,,,,,,,,,,,,,,,,,,,,,,,,,,,,,,,,,,,,,,,,,,,,,,,,,,,,,,,,,,,,,,,,,,,,,,,
,,,,,,5fe3a0b4bf7c820835fc8fe1,62c53936b7009b49e4ba96c6,2022-07-06_09h31.10.876,Colour_Asymmetry_Pilot,2022.1.3,Win32,60.13952369,62c50e9c1127f2cd403a315f,0,154,154,36,1,threeone,,,,,,,,,,,,,,,,,,,,,,,,,,,,,,,,,,,,,,,,,,,,,,,,,,,,,,,,,,,,,,,,,,,,,,,,,,,,,,,,,,,,,,,,,,,,,,,,,,,,,,,,,,,,,,,,,,,,,,,,,,,,,,,,,,,,,,,,,,,,,,,,,,,,,,,,,,,,
,,,,,,5fe3a0b4bf7c820835fc8fe1,62c53936b7009b49e4ba96c6,2022-07-06_09h31.10.876,Colour_Asymmetry_Pilot,2022.1.3,Win32,60.13952369,62c50e9c1127f2cd403a315f,0,155,155,129,1,onethree,,,,,,,,,,,,,,,,,,,,,,,,,,,,,,,,,,,,,,,,,,,,,,,,,,,,,,,,,,,,,,,,,,,,,,,,,,,,,,,,,,,,,,,,,,,,,,,,,,,,,,,,,,,,,,,,,,,,,,,,,,,,,,,,,,,,,,,,,,,,,,,,,,,,,,,,,,,,
,,,,,,5fe3a0b4bf7c820835fc8fe1,62c53936b7009b49e4ba96c6,2022-07-06_09h31.10.876,Colour_Asymmetry_Pilot,2022.1.3,Win32,60.13952369,62c50e9c1127f2cd403a315f,0,156,156,144,1,onetwo,,,,,,,,,,,,,,,,,,,,,,,,,,,,,,,,,,,,,,,,,,,,,,,,,,,,,,,,,,,,,,,,,,,,,,,,,,,,,,,,,,,,,,,,,,,,,,,,,,,,,,,,,,,,,,,,,,,,,,,,,,,,,,,,,,,,,,,,,,,,,,,,,,,,,,,,,,,,
,,,,,,5fe3a0b4bf7c820835fc8fe1,62c53936b7009b49e4ba96c6,2022-07-06_09h31.10.876,Colour_Asymmetry_Pilot,2022.1.3,Win32,60.13952369,62c50e9c1127f2cd403a315f,0,157,157,58,1,twoone,,,,,,,,,,,,,,,,,,,,,,,,,,,,,,,,,,,,,,,,,,,,,,,,,,,,,,,,,,,,,,,,,,,,,,,,,,,,,,,,,,,,,,,,,,,,,,,,,,,,,,,,,,,,,,,,,,,,,,,,,,,,,,,,,,,,,,,,,,,,,,,,,,,,,,,,,,,,
,,,,,,5fe3a0b4bf7c820835fc8fe1,62c53936b7009b49e4ba96c6,2022-07-06_09h31.10.876,Colour_Asymmetry_Pilot,2022.1.3,Win32,60.13952369,62c50e9c1127f2cd403a315f,0,158,158,72,1,onetwo,,,,,,,,,,,,,,,,,,,,,,,,,,,,,,,,,,,,,,,,,,,,,,,,,,,,,,,,,,,,,,,,,,,,,,,,,,,,,,,,,,,,,,,,,,,,,,,,,,,,,,,,,,,,,,,,,,,,,,,,,,,,,,,,,,,,,,,,,,,,,,,,,,,,,,,,,,,,
,,,,,,5fe3a0b4bf7c820835fc8fe1,62c53936b7009b49e4ba96c6,2022-07-06_09h31.10.876,Colour_Asymmetry_Pilot,2022.1.3,Win32,60.13952369,62c50e9c1127f2cd403a315f,0,159,159,27,1,twofour,,,,,,,,,,,,,,,,,,,,,,,,,,,,,,,,,,,,,,,,,,,,,,,,,,,,,,,,,,,,,,,,,,,,,,,,,,,,,,,,,,,,,,,,,,,,,,,,,,,,,,,,,,,,,,,,,,,,,,,,,,,,,,,,,,,,,,,,,,,,,,,,,,,,,,,,,,,,
,,,,,,5fe3a0b4bf7c820835fc8fe1,62c53936b7009b49e4ba96c6,2022-07-06_09h31.10.876,Colour_Asymmetry_Pilot,2022.1.3,Win32,60.13952369,62c50e9c1127f2cd403a315f,0,160,160,130,1,twoone,,,,,,,,,,,,,,,,,,,,,,,,,,,,,,,,,,,,,,,,,,,,,,,,,,,,,,,,,,,,,,,,,,,,,,,,,,,,,,,,,,,,,,,,,,,,,,,,,,,,,,,,,,,,,,,,,,,,,,,,,,,,,,,,,,,,,,,,,,,,,,,,,,,,,,,,,,,,
,,,,,,5fe3a0b4bf7c820835fc8fe1,62c53936b7009b49e4ba96c6,2022-07-06_09h31.10.876,Colour_Asymmetry_Pilot,2022.1.3,Win32,60.13952369,62c50e9c1127f2cd403a315f,0,161,161,120,1,onetwo,,,,,,,,,,,,,,,,,,,,,,,,,,,,,,,,,,,,,,,,,,,,,,,,,,,,,,,,,,,,,,,,,,,,,,,,,,,,,,,,,,,,,,,,,,,,,,,,,,,,,,,,,,,,,,,,,,,,,,,,,,,,,,,,,,,,,,,,,,,,,,,,,,,,,,,,,,,,
,,,,,,5fe3a0b4bf7c820835fc8fe1,62c53936b7009b49e4ba96c6,2022-07-06_09h31.10.876,Colour_Asymmetry_Pilot,2022.1.3,Win32,60.13952369,62c50e9c1127f2cd403a315f,,,,,,,space,7.7026,space,10.3046,space,127.1986,space,17.3819,space,1.5832,space,4.5794,"[-0.34920000000000007,-0.702,-0.5216]",threefour,"[0.9372,0.20779999999999998,0.2704]",4,8.1848,45,83,1,0,0,response1disk_5,11,-4,1,0,0,rectangle_8,51,95,1,0,0,response1disk_7,7,4,-13,5,1,0,0,rectangle_4,0,0,0,0,1,,,,,,,,,,,,,,,,,,,,,,,,,,,,,,,,,,,,,,,,,,,,,,,,,,,,,,,,,,,,,,,,,,,,,,,,,,,,,,,,,,,,,,,,,,,,,,,,,,,,,,,,,,,,
,,,,,,5fe3a0b4bf7c820835fc8fe1,62c53936b7009b49e4ba96c6,2022-07-06_09h31.10.876,Colour_Asymmetry_Pilot,2022.1.3,Win32,60.13952369,62c50e9c1127f2cd403a315f,,,,,,,,,,,,,,,,,,,"[-0.34920000000000007,-0.702,-0.5216]",fourthree,"[0.9763999999999999,-0.1137999999999999,-0.6314]",-4,2.8669,-43,74,1,0,0,response7disk_5,8,3,1,0,0,rectangle_8,8,3,1,0,0,,,4,8,3,1,0,0,,1,0,1,0,1,,,,,,,,,,,,,,,,,,,,,,,,,,,,,,,,,,,,,,,,,,,,,,,,,,,,,,,,,,,,,,,,,,,,,,,,,,,,,,,,,,,,,,,,,,,,,,,,,,,,,,,,,,,,
,,,,,,5fe3a0b4bf7c820835fc8fe1,62c53936b7009b49e4ba96c6,2022-07-06_09h31.10.876,Colour_Asymmetry_Pilot,2022.1.3,Win32,60.13952369,62c50e9c1127f2cd403a315f,,,,,,,,,,,,,,,,,,,"[-0.48240000000000005,0.3175999999999999,0.2156]",twofour,"[-0.9844,-0.9688,-0.9922]",-4,2.8336,-38,101,1,0,0,response7disk_5,6,3,1,0,0,rectangle_8,6,3,1,0,0,,,4,6,3,1,0,0,,2,0,2,0,1,,,,,,,,,,,,,,,,,,,,,,,,,,,,,,,,,,,,,,,,,,,,,,,,,,,,,,,,,,,,,,,,,,,,,,,,,,,,,,,,,,,,,,,,,,,,,,,,,,,,,,,,,,,,
,,,,,,5fe3a0b4bf7c820835fc8fe1,62c53936b7009b49e4ba96c6,2022-07-06_09h31.10.876,Colour_Asymmetry_Pilot,2022.1.3,Win32,60.13952369,62c50e9c1127f2cd403a315f,,,,,,,,,,,,,,,,,,,"[-0.5922000000000001,-0.7492000000000001,-0.5296000000000001]",fourthree,"[-0.17659999999999998,-0.2864,-0.8354]",-4,2.6329,-58,88,1,0,0,response7disk_5,0,1,1,0,0,rectangle_8,0,1,1,0,0,,,4,0,1,1,0,0,,3,0,3,0,1,,,,,,,,,,,,,,,,,,,,,,,,,,,,,,,,,,,,,,,,,,,,,,,,,,,,,,,,,,,,,,,,,,,,,,,,,,,,,,,,,,,,,,,,,,,,,,,,,,,,,,,,,,,,
,,,,,,5fe3a0b4bf7c820835fc8fe1,62c53936b7009b49e4ba96c6,2022-07-06_09h31.10.876,Colour_Asymmetry_Pilot,2022.1.3,Win32,60.13952369,62c50e9c1127f2cd403a315f,,,,,,,,,,,,,,,,,,,"[0.37240000000000006,-0.050999999999999934,-0.5216]",threefour,"[0.30180000000000007,-0.7884,-0.9844]",4,2.1494,30,94,1,0,0,response1disk_5,5,-4,1,0,0,rectangle_8,5,-4,1,0,0,,,4,5,-4,1,0,0,,4,0,4,0,1,,,,,,,,,,,,,,,,,,,,,,,,,,,,,,,,,,,,,,,,,,,,,,,,,,,,,,,,,,,,,,,,,,,,,,,,,,,,,,,,,,,,,,,,,,,,,,,,,,,,,,,,,,,,
,,,,,,5fe3a0b4bf7c820835fc8fe1,62c53936b7009b49e4ba96c6,2022-07-06_09h31.10.876,Colour_Asymmetry_Pilot,2022.1.3,Win32,60.13952369,62c50e9c1127f2cd403a315f,,,,,,,,,,,,,,,,,,,"[0.3881999999999999,-0.23939999999999995,-0.05040000000000011]",fourthree,"[0.22340000000000004,-0.9296,-0.7884]",-4,1.4343,-39,93,1,0,0,response7disk_5,-7,-7,1,0,0,rectangle_8,50,100,1,0,0,response1disk_7,7,4,-11,5,1,0,0,rectangle_4,5,0,5,0,1,,,,,,,,,,,,,,,,,,,,,,,,,,,,,,,,,,,,,,,,,,,,,,,,,,,,,,,,,,,,,,,,,,,,,,,,,,,,,,,,,,,,,,,,,,,,,,,,,,,,,,,,,,,,
,,,,,,5fe3a0b4bf7c820835fc8fe1,62c53936b7009b49e4ba96c6,2022-07-06_09h31.10.876,Colour_Asymmetry_Pilot,2022.1.3,Win32,60.13952369,62c50e9c1127f2cd403a315f,,,,,,,,,,,,,,,,,,,"[-0.01980000000000004,-0.5138,-0.38039999999999996]",threeone,"[0.9763999999999999,0.30979999999999985,-0.6786]",-4,1.6501,-32,81,1,0,0,response7disk_5,-4,8,1,0,0,rectangle_8,-4,8,1,0,0,,,4,-4,8,1,0,0,,6,0,6,0,1,,,,,,,,,,,,,,,,,,,,,,,,,,,,,,,,,,,,,,,,,,,,,,,,,,,,,,,,,,,,,,,,,,,,,,,,,,,,,,,,,,,,,,,,,,,,,,,,,,,,,,,,,,,,
,,,,,,5fe3a0b4bf7c820835fc8fe1,62c53936b7009b49e4ba96c6,2022-07-06_09h31.10.876,Colour_Asymmetry_Pilot,2022.1.3,Win32,60.13952369,62c50e9c1127f2cd403a315f,,,,,,,,,,,,,,,,,,,,threefour,,-4,0.7344,,,,,,,,,,,,,,,,,,,,,,,,,,,,,,,,space,4.5271,"[0.37240000000000006,0.4980000000000002,-0.2864]","[-0.6942,-0.7648,-0.12959999999999994]",-39,112,1,0,0,response7disk,-8,-8,1,0,0,rectangle,-8,-8,1,0,0,,3,0.005,0,-8,-8,1,0,0,0,0,0,94,1,13,second,,,,,,,,,,,,,,,,,,,,,,,,,,,,,,,,,,,,,,,,,,,,,,,,,,,,,,,,,,,,,,,,,,,,,,,
,,,,,,5fe3a0b4bf7c820835fc8fe1,62c53936b7009b49e4ba96c6,2022-07-06_09h31.10.876,Colour_Asymmetry_Pilot,2022.1.3,Win32,60.13952369,62c50e9c1127f2cd403a315f,,,,,,,,,,,,,,,,,,,,onetwo,,4,0.8682,,,,,,,,,,,,,,,,,,,,,,,,,,,,,,,,,,"[-0.4668,-0.8746,-0.2942]","[-0.9688,-0.38039999999999996,-0.41979999999999995]",33,88,1,0,0,response1disk,14,6,1,0,0,rectangle,14,6,1,0,0,,3,0.0009,0,14,6,1,0,0,0,1,1,95,1,14,second,,,,,,,,,,,,,,,,,,,,,,,,,,,,,,,,,,,,,,,,,,,,,,,,,,,,,,,,,,,,,,,,,,,,,,,
,,,,,,5fe3a0b4bf7c820835fc8fe1,62c53936b7009b49e4ba96c6,2022-07-06_09h31.10.876,Colour_Asymmetry_Pilot,2022.1.3,Win32,60.13952369,62c50e9c1127f2cd403a315f,,,,,,,,,,,,,,,,,,,,onethree,,-4,0.9332,,,,,,,,,,,,,,,,,,,,,,,,,,,,,,,,,,"[-0.20799999999999996,-0.655,-0.01980000000000004]","[0.7646000000000002,0.07440000000000002,0.2704]",-51,92,1,0,0,response7disk,12,8,1,0,0,rectangle,12,8,1,0,0,,1,0.002,0,12,8,1,0,0,0,2,2,146,1,65,second,,,,,,,,,,,,,,,,,,,,,,,,,,,,,,,,,,,,,,,,,,,,,,,,,,,,,,,,,,,,,,,,,,,,,,,
,,,,,,5fe3a0b4bf7c820835fc8fe1,62c53936b7009b49e4ba96c6,2022-07-06_09h31.10.876,Colour_Asymmetry_Pilot,2022.1.3,Win32,60.13952369,62c50e9c1127f2cd403a315f,,,,,,,,,,,,,,,,,,,,threeone,,-4,0.7836,,,,,,,,,,,,,,,,,,,,,,,,,,,,,,,,,,"[0.37240000000000006,0.4980000000000002,-0.2864]","[-0.9688,-0.7412000000000001,-0.4902000000000001]",-36,98,1,0,0,response7disk,-1,-1,1,0,0,rectangle,88,43,1,0,0,3,3,3.0684,1,13,2,1,0,0,0,3,3,159,1,78,second,response1disk_3,rectangle,,,,,,,,,,,,,,,,,,,,,,,,,,,,,,,,,,,,,,,,,,,,,,,,,,,,,,,,,,,,,,,,,,,,,
,,,,,,5fe3a0b4bf7c820835fc8fe1,62c53936b7009b49e4ba96c6,2022-07-06_09h31.10.876,Colour_Asymmetry_Pilot,2022.1.3,Win32,60.13952369,62c50e9c1127f2cd403a315f,,,,,,,,,,,,,,,,,,,,fourtwo,,-4,0.5669,,,,,,,,,,,,,,,,,,,,,,,,,,,,,,,,,,"[-0.011800000000000033,-0.906,-0.45100000000000007]","[-0.9138,-0.5296000000000001,-0.5529999999999999]",-42,94,1,0,0,response7disk,5,5,1,0,0,rectangle,5,5,1,0,0,3,2,0.0025,0,5,5,1,0,0,0,4,4,90,1,9,second,,,,,,,,,,,,,,,,,,,,,,,,,,,,,,,,,,,,,,,,,,,,,,,,,,,,,,,,,,,,,,,,,,,,,,,
,,,,,,5fe3a0b4bf7c820835fc8fe1,62c53936b7009b49e4ba96c6,2022-07-06_09h31.10.876,Colour_Asymmetry_Pilot,2022.1.3,Win32,60.13952369,62c50e9c1127f2cd403a315f,,,,,,,,,,,,,,,,,,,,fourtwo,,-4,0.5334,,,,,,,,,,,,,,,,,,,,,,,,,,,,,,,,,,"[-0.26280000000000003,-0.2158,-0.3256]","[0.9686000000000001,0.5763999999999998,0.11359999999999992]",-42,92,1,0,0,response7disk,14,-4,1,0,0,rectangle,14,-4,1,0,0,3,1,0.0025,0,14,-4,1,0,0,0,5,5,123,1,42,second,,,,,,,,,,,,,,,,,,,,,,,,,,,,,,,,,,,,,,,,,,,,,,,,,,,,,,,,,,,,,,,,,,,,,,,
,,,,,,5fe3a0b4bf7c820835fc8fe1,62c53936b7009b49e4ba96c6,2022-07-06_09h31.10.876,Colour_Asymmetry_Pilot,2022.1.3,Win32,60.13952369,62c50e9c1127f2cd403a315f,,,,,,,,,,,,,,,,,,,,twofour,,-4,1.0164,,,,,,,,,,,,,,,,,,,,,,,,,,,,,,,,,,"[-0.10599999999999998,-0.10599999999999998,0.5841999999999998]","[-0.26280000000000003,-0.4746,-0.2158]",-43,109,1,0,0,response7disk,5,-5,1,0,0,rectangle,5,-5,1,0,0,3,1,0.0003,0,5,-5,1,0,0,0,6,6,122,1,41,second,,,,,,,,,,,,,,,,,,,,,,,,,,,,,,,,,,,,,,,,,,,,,,,,,,,,,,,,,,,,,,,,,,,,,,,
,,,,,,5fe3a0b4bf7c820835fc8fe1,62c53936b7009b49e4ba96c6,2022-07-06_09h31.10.876,Colour_Asymmetry_Pilot,2022.1.3,Win32,60.13952369,62c50e9c1127f2cd403a315f,,,,,,,,,,,,,,,,,,,,fourtwo,,-4,0.5998,,,,,,,,,,,,,,,,,,,,,,,,,,,,,,,,,,"[0.23920000000000008,0.2704,0.16060000000000008]","[0.9213999999999998,0.6391999999999998,-0.9922]",-28,83,1,0,0,response7disk,6,-1,1,0,0,rectangle,6,-1,1,0,0,3,1,0.0008,0,6,-1,1,0,0,0,7,7,79,1,79,first,,,,,,,,,,,,,,,,,,,,,,,,,,,,,,,,,,,,,,,,,,,,,,,,,,,,,,,,,,,,,,,,,,,,,,,
,,,,,,5fe3a0b4bf7c820835fc8fe1,62c53936b7009b49e4ba96c6,2022-07-06_09h31.10.876,Colour_Asymmetry_Pilot,2022.1.3,Win32,60.13952369,62c50e9c1127f2cd403a315f,,,,,,,,,,,,,,,,,,,,onetwo,,4,0.8351,,,,,,,,,,,,,,,,,,,,,,,,,,,,,,,,,,"[0.19199999999999995,0.18419999999999992,0.5136000000000001]","[0.9372,0.20779999999999998,0.2704]",27,82,1,0,0,response1disk,-3,-2,1,0,0,rectangle,-3,-2,1,0,0,3,1,0.0003,0,-3,-2,1,0,0,0,8,8,107,1,26,second,,,,,,,,,,,,,,,,,,,,,,,,,,,,,,,,,,,,,,,,,,,,,,,,,,,,,,,,,,,,,,,,,,,,,,,
,,,,,,5fe3a0b4bf7c820835fc8fe1,62c53936b7009b49e4ba96c6,2022-07-06_09h31.10.876,Colour_Asymmetry_Pilot,2022.1.3,Win32,60.13952369,62c50e9c1127f2cd403a315f,,,,,,,,,,,,,,,,,,,,threefour,,-4,1.1149,,,,,,,,,,,,,,,,,,,,,,,,,,,,,,,,,,"[-0.2942,-0.7648,-0.7492000000000001]","[1,0.12939999999999996,-1]",-36,93,1,0,0,response7disk,-5,-1,1,0,0,rectangle,-5,-1,1,0,0,3,3,0.0027,0,-5,-1,1,0,0,0,9,9,81,1,0,second,,,,,,,,,,,,,,,,,,,,,,,,,,,,,,,,,,,,,,,,,,,,,,,,,,,,,,,,,,,,,,,,,,,,,,,
,,,,,,5fe3a0b4bf7c820835fc8fe1,62c53936b7009b49e4ba96c6,2022-07-06_09h31.10.876,Colour_Asymmetry_Pilot,2022.1.3,Win32,60.13952369,62c50e9c1127f2cd403a315f,,,,,,,,,,,,,,,,,,,,twofour,,-4,1.0499,,,,,,,,,,,,,,,,,,,,,,,,,,,,,,,,,,"[0.6547999999999998,-0.043199999999999905,-0.011800000000000033]","[-0.8198,-0.5138,-0.7492000000000001]",-33,104,1,0,0,response7disk,-4,0,1,0,0,rectangle,-4,0,1,0,0,3,1,0.0034,0,-4,0,1,0,0,0,10,10,30,1,30,first,,,,,,,,,,,,,,,,,,,,,,,,,,,,,,,,,,,,,,,,,,,,,,,,,,,,,,,,,,,,,,,,,,,,,,,
,,,,,,5fe3a0b4bf7c820835fc8fe1,62c53936b7009b49e4ba96c6,2022-07-06_09h31.10.876,Colour_Asymmetry_Pilot,2022.1.3,Win32,60.13952369,62c50e9c1127f2cd403a315f,,,,,,,,,,,,,,,,,,,,twoone,,4,0.6335,,,,,,,,,,,,,,,,,,,,,,,,,,,,,,,,,,"[-0.07459999999999989,0.12139999999999995,-0.9922]","[-0.9688,-0.38039999999999996,-0.41979999999999995]",61,101,1,0,0,response1disk,11,1,1,0,0,rectangle,11,1,1,0,0,3,2,0.002,0,11,1,1,0,0,0,11,11,110,1,29,second,,,,,,,,,,,,,,,,,,,,,,,,,,,,,,,,,,,,,,,,,,,,,,,,,,,,,,,,,,,,,,,,,,,,,,,
,,,,,,5fe3a0b4bf7c820835fc8fe1,62c53936b7009b49e4ba96c6,2022-07-06_09h31.10.876,Colour_Asymmetry_Pilot,2022.1.3,Win32,60.13952369,62c50e9c1127f2cd403a315f,,,,,,,,,,,,,,,,,,,,fourtwo,,-4,0.3998,,,,,,,,,,,,,,,,,,,,,,,,,,,,,,,,,,"[0.7018,0.7802,-0.16079999999999994]","[-0.2942,-0.7648,-0.7492000000000001]",-27,82,1,0,0,response7disk,-4,-3,1,0,0,rectangle,-4,-3,1,0,0,3,2,0.0003,0,-4,-3,1,0,0,0,12,12,92,1,11,second,,,,,,,,,,,,,,,,,,,,,,,,,,,,,,,,,,,,,,,,,,,,,,,,,,,,,,,,,,,,,,,,,,,,,,,
,,,,,,5fe3a0b4bf7c820835fc8fe1,62c53936b7009b49e4ba96c6,2022-07-06_09h31.10.876,Colour_Asymmetry_Pilot,2022.1.3,Win32,60.13952369,62c50e9c1127f2cd403a315f,,,,,,,,,,,,,,,,,,,,fourtwo,,-4,0.7,,,,,,,,,,,,,,,,,,,,,,,,,,,,,,,,,,"[0.8115999999999999,-0.0040000000000000036,-0.09819999999999995]","[-0.9216,-0.5529999999999999,-0.3962]",-28,96,1,0,0,response7disk,4,2,1,0,0,rectangle,4,2,1,0,0,3,2,0.0003,0,4,2,1,0,0,0,13,13,8,1,8,first,,,,,,,,,,,,,,,,,,,,,,,,,,,,,,,,,,,,,,,,,,,,,,,,,,,,,,,,,,,,,,,,,,,,,,,
,,,,,,5fe3a0b4bf7c820835fc8fe1,62c53936b7009b49e4ba96c6,2022-07-06_09h31.10.876,Colour_Asymmetry_Pilot,2022.1.3,Win32,60.13952369,62c50e9c1127f2cd403a315f,,,,,,,,,,,,,,,,,,,,onethree,,-4,0.4321,,,,,,,,,,,,,,,,,,,,,,,,,,,,,,,,,,"[-0.34920000000000007,-0.702,-0.5216]","[0.34099999999999997,0.5841999999999998,-0.9844]",-47,98,1,0,0,response7disk,-2,2,1,0,0,rectangle,-2,2,1,0,0,3,2,0.0007,0,-2,2,1,0,0,0,14,14,66,1,66,first,,,,,,,,,,,,,,,,,,,,,,,,,,,,,,,,,,,,,,,,,,,,,,,,,,,,,,,,,,,,,,,,,,,,,,,
,,,,,,5fe3a0b4bf7c820835fc8fe1,62c53936b7009b49e4ba96c6,2022-07-06_09h31.10.876,Colour_Asymmetry_Pilot,2022.1.3,Win32,60.13952369,62c50e9c1127f2cd403a315f,,,,,,,,,,,,,,,,,,,,threefour,,-4,0.8169,,,,,,,,,,,,,,,,,,,,,,,,,,,,,,,,,,"[0.9213999999999998,0.6391999999999998,-0.9922]","[0.23920000000000008,0.2704,0.16060000000000008]",-39,115,1,0,0,response7disk,-3,5,1,0,0,rectangle,72,-43,1,0,0,2,2,2.4325,1,11,-1,1,0,0,0,15,15,160,1,79,second,response3disk_3,rectangle,,,,,,,,,,,,,,,,,,,,,,,,,,,,,,,,,,,,,,,,,,,,,,,,,,,,,,,,,,,,,,,,,,,,,
,,,,,,5fe3a0b4bf7c820835fc8fe1,62c53936b7009b49e4ba96c6,2022-07-06_09h31.10.876,Colour_Asymmetry_Pilot,2022.1.3,Win32,60.13952369,62c50e9c1127f2cd403a315f,,,,,,,,,,,,,,,,,,,,fourthree,,4,0.55,,,,,,,,,,,,,,,,,,,,,,,,,,,,,,,,,,"[-0.10599999999999998,-0.10599999999999998,0.5841999999999998]","[-0.5452,-0.608,0.2470000000000001]",36,89,1,0,0,response1disk,-7,0,1,0,0,rectangle,-7,0,1,0,0,2,1,0.0039,0,-7,0,1,0,0,0,16,16,45,1,45,first,,,,,,,,,,,,,,,,,,,,,,,,,,,,,,,,,,,,,,,,,,,,,,,,,,,,,,,,,,,,,,,,,,,,,,,
,,,,,,5fe3a0b4bf7c820835fc8fe1,62c53936b7009b49e4ba96c6,2022-07-06_09h31.10.876,Colour_Asymmetry_Pilot,2022.1.3,Win32,60.13952369,62c50e9c1127f2cd403a315f,,,,,,,,,,,,,,,,,,,,onetwo,,-4,3.5506,,,,,,,,,,,,,,,,,,,,,,,,,,,,,,,,,,"[0.9372,0.9450000000000001,0.8980000000000001]","[0.22340000000000004,-0.9296,-0.7884]",-29,90,1,0,0,response7disk,16,9,1,0,0,rectangle,16,9,1,0,0,2,1,0.0004,0,16,9,1,0,0,0,17,17,133,1,52,second,,,,,,,,,,,,,,,,,,,,,,,,,,,,,,,,,,,,,,,,,,,,,,,,,,,,,,,,,,,,,,,,,,,,,,,
