trials.thisRepN,trials.thisTrialN,trials.thisN,trials.thisIndex,trials.ran,Colourcodes,participant,session,date,expName,psychopyVersion,OS,frameRate,study_id,trials_4.thisRepN,trials_4.thisTrialN,trials_4.thisN,trials_4.thisIndex,trials_4.ran,StimulusPos,key_resp.keys,key_resp.rt,key_resp_2.keys,key_resp_2.rt,key_resp_15.keys,key_resp_15.rt,key_resp_17.keys,key_resp_17.rt,key_resp_9.keys,key_resp_9.rt,key_resp_10.keys,key_resp_10.rt,Circle1_col,Ecc,Circle2_col,similarity,response_time,mouse_5.x,mouse_5.y,mouse_5.leftButton,mouse_5.midButton,mouse_5.rightButton,mouse_5.clicked_name,mouse_10.x,mouse_10.y,mouse_10.leftButton,mouse_10.midButton,mouse_10.rightButton,mouse_10.clicked_name,mouse_7.x,mouse_7.y,mouse_7.leftButton,mouse_7.midButton,mouse_7.rightButton,catchnumberprac,mouse_6.x,mouse_6.y,mouse_6.leftButton,mouse_6.midButton,mouse_6.rightButton,duringprac.thisRepN,duringprac.thisTrialN,duringprac.thisN,duringprac.thisIndex,duringprac.ran,mouse_7.clicked_name,catchprac,mouse_6.clicked_name,key_resp_22.keys,key_resp_22.rt,Circle1_colour,Circle2_colour,mouse.x,mouse.y,mouse.leftButton,mouse.midButton,mouse.rightButton,mouse.clicked_name,mouse_2.x,mouse_2.y,mouse_2.leftButton,mouse_2.midButton,mouse_2.rightButton,mouse_2.clicked_name,mouse_3.x,mouse_3.y,mouse_3.leftButton,mouse_3.midButton,mouse_3.rightButton,catchresponse,catchnumber,response_time_catch,Catch,mouse_11.x,mouse_11.y,mouse_11.leftButton,mouse_11.midButton,mouse_11.rightButton,trials_2.thisRepN,trials_2.thisTrialN,trials_2.thisN,trials_2.thisIndex,trials_2.ran,Colourpair,Temporder,mouse_3.clicked_name,mouse_11.clicked_name,trials_3.thisRepN,trials_3.thisTrialN,trials_3.thisN,trials_3.thisIndex,trials_3.ran,key_resp_instr_Ishi.keys,key_resp_instr_Ishi.rt,Ishi_trial_keyresp.keys,Ishi_textbox.text,Ishi_mouse.x,Ishi_mouse.y,Ishi_mouse.leftButton,Ishi_mouse.midButton,Ishi_mouse.rightButton,Ishi_mouse.clicked_name,Ishi_loop.thisRepN,Ishi_loop.thisTrialN,Ishi_loop.thisN,Ishi_loop.thisIndex,Ishi_loop.ran,imageaddress,textbox.text,mouse_4.x,mouse_4.y,mouse_4.leftButton,mouse_4.midButton,mouse_4.rightButton,mouse_4.clicked_name,textbox_2.text,mouse_8.x,mouse_8.y,mouse_8.leftButton,mouse_8.midButton,mouse_8.rightButton,mouse_8.clicked_name,textbox_3.text,mouse_9.x,mouse_9.y,mouse_9.leftButton,mouse_9.midButton,mouse_9.rightButton,mouse_9.clicked_name,textbox_4.text,mouse_12.x,mouse_12.y,mouse_12.leftButton,mouse_12.midButton,mouse_12.rightButton,mouse_12.clicked_name,textbox_5.text,mouse_13.x,mouse_13.y,mouse_13.leftButton,mouse_13.midButton,mouse_13.rightButton,mouse_13.clicked_name,textbox_6.text,mouse_14.x,mouse_14.y,mouse_14.leftButton,mouse_14.midButton,mouse_14.rightButton,mouse_14.clicked_name,textbox_7.text,mouse_15.x,mouse_15.y,mouse_15.leftButton,mouse_15.midButton,mouse_15.rightButton,mouse_15.clicked_name
0,0,0,88,1,,611eb692e24d9c502523b4ba,62c53a5cf93e51d4ae53c7c8,2022-07-06_09h33.16.139,Colour_Asymmetry_Pilot,2022.1.3,Win32,59.96641881,62c50e9c1127f2cd403a315f,,,,,,,,,,,,,,,,,,,,,,,,,,,,,,,,,,,,,,,,,,,,,,,,,,,,,,,,,,,,,,,,,,,,,,,,,,,,,,,,,,,,,,,,,,,,,,,,,,,,,,,,,,,,,,,,,,,,,,,,,,,,,,,,,,,,,,,,,,,,,,,,,,,,,,,,,,,,,,,,,,,
0,1,1,39,1,,611eb692e24d9c502523b4ba,62c53a5cf93e51d4ae53c7c8,2022-07-06_09h33.16.139,Colour_Asymmetry_Pilot,2022.1.3,Win32,59.96641881,62c50e9c1127f2cd403a315f,,,,,,,,,,,,,,,,,,,,,,,,,,,,,,,,,,,,,,,,,,,,,,,,,,,,,,,,,,,,,,,,,,,,,,,,,,,,,,,,,,,,,,,,,,,,,,,,,,,,,,,,,,,,,,,,,,,,,,,,,,,,,,,,,,,,,,,,,,,,,,,,,,,,,,,,,,,,,,,,,,,
0,2,2,1,1,,611eb692e24d9c502523b4ba,62c53a5cf93e51d4ae53c7c8,2022-07-06_09h33.16.139,Colour_Asymmetry_Pilot,2022.1.3,Win32,59.96641881,62c50e9c1127f2cd403a315f,,,,,,,,,,,,,,,,,,,,,,,,,,,,,,,,,,,,,,,,,,,,,,,,,,,,,,,,,,,,,,,,,,,,,,,,,,,,,,,,,,,,,,,,,,,,,,,,,,,,,,,,,,,,,,,,,,,,,,,,,,,,,,,,,,,,,,,,,,,,,,,,,,,,,,,,,,,,,,,,,,,
0,3,3,90,1,,611eb692e24d9c502523b4ba,62c53a5cf93e51d4ae53c7c8,2022-07-06_09h33.16.139,Colour_Asymmetry_Pilot,2022.1.3,Win32,59.96641881,62c50e9c1127f2cd403a315f,,,,,,,,,,,,,,,,,,,,,,,,,,,,,,,,,,,,,,,,,,,,,,,,,,,,,,,,,,,,,,,,,,,,,,,,,,,,,,,,,,,,,,,,,,,,,,,,,,,,,,,,,,,,,,,,,,,,,,,,,,,,,,,,,,,,,,,,,,,,,,,,,,,,,,,,,,,,,,,,,,,
0,4,4,25,1,,611eb692e24d9c502523b4ba,62c53a5cf93e51d4ae53c7c8,2022-07-06_09h33.16.139,Colour_Asymmetry_Pilot,2022.1.3,Win32,59.96641881,62c50e9c1127f2cd403a315f,,,,,,,,,,,,,,,,,,,,,,,,,,,,,,,,,,,,,,,,,,,,,,,,,,,,,,,,,,,,,,,,,,,,,,,,,,,,,,,,,,,,,,,,,,,,,,,,,,,,,,,,,,,,,,,,,,,,,,,,,,,,,,,,,,,,,,,,,,,,,,,,,,,,,,,,,,,,,,,,,,,
0,5,5,33,1,,611eb692e24d9c502523b4ba,62c53a5cf93e51d4ae53c7c8,2022-07-06_09h33.16.139,Colour_Asymmetry_Pilot,2022.1.3,Win32,59.96641881,62c50e9c1127f2cd403a315f,,,,,,,,,,,,,,,,,,,,,,,,,,,,,,,,,,,,,,,,,,,,,,,,,,,,,,,,,,,,,,,,,,,,,,,,,,,,,,,,,,,,,,,,,,,,,,,,,,,,,,,,,,,,,,,,,,,,,,,,,,,,,,,,,,,,,,,,,,,,,,,,,,,,,,,,,,,,,,,,,,,
0,6,6,77,1,,611eb692e24d9c502523b4ba,62c53a5cf93e51d4ae53c7c8,2022-07-06_09h33.16.139,Colour_Asymmetry_Pilot,2022.1.3,Win32,59.96641881,62c50e9c1127f2cd403a315f,,,,,,,,,,,,,,,,,,,,,,,,,,,,,,,,,,,,,,,,,,,,,,,,,,,,,,,,,,,,,,,,,,,,,,,,,,,,,,,,,,,,,,,,,,,,,,,,,,,,,,,,,,,,,,,,,,,,,,,,,,,,,,,,,,,,,,,,,,,,,,,,,,,,,,,,,,,,,,,,,,,
0,7,7,65,1,,611eb692e24d9c502523b4ba,62c53a5cf93e51d4ae53c7c8,2022-07-06_09h33.16.139,Colour_Asymmetry_Pilot,2022.1.3,Win32,59.96641881,62c50e9c1127f2cd403a315f,,,,,,,,,,,,,,,,,,,,,,,,,,,,,,,,,,,,,,,,,,,,,,,,,,,,,,,,,,,,,,,,,,,,,,,,,,,,,,,,,,,,,,,,,,,,,,,,,,,,,,,,,,,,,,,,,,,,,,,,,,,,,,,,,,,,,,,,,,,,,,,,,,,,,,,,,,,,,,,,,,,
0,8,8,78,1,,611eb692e24d9c502523b4ba,62c53a5cf93e51d4ae53c7c8,2022-07-06_09h33.16.139,Colour_Asymmetry_Pilot,2022.1.3,Win32,59.96641881,62c50e9c1127f2cd403a315f,,,,,,,,,,,,,,,,,,,,,,,,,,,,,,,,,,,,,,,,,,,,,,,,,,,,,,,,,,,,,,,,,,,,,,,,,,,,,,,,,,,,,,,,,,,,,,,,,,,,,,,,,,,,,,,,,,,,,,,,,,,,,,,,,,,,,,,,,,,,,,,,,,,,,,,,,,,,,,,,,,,
0,9,9,2,1,,611eb692e24d9c502523b4ba,62c53a5cf93e51d4ae53c7c8,2022-07-06_09h33.16.139,Colour_Asymmetry_Pilot,2022.1.3,Win32,59.96641881,62c50e9c1127f2cd403a315f,,,,,,,,,,,,,,,,,,,,,,,,,,,,,,,,,,,,,,,,,,,,,,,,,,,,,,,,,,,,,,,,,,,,,,,,,,,,,,,,,,,,,,,,,,,,,,,,,,,,,,,,,,,,,,,,,,,,,,,,,,,,,,,,,,,,,,,,,,,,,,,,,,,,,,,,,,,,,,,,,,,
0,10,10,0,1,,611eb692e24d9c502523b4ba,62c53a5cf93e51d4ae53c7c8,2022-07-06_09h33.16.139,Colour_Asymmetry_Pilot,2022.1.3,Win32,59.96641881,62c50e9c1127f2cd403a315f,,,,,,,,,,,,,,,,,,,,,,,,,,,,,,,,,,,,,,,,,,,,,,,,,,,,,,,,,,,,,,,,,,,,,,,,,,,,,,,,,,,,,,,,,,,,,,,,,,,,,,,,,,,,,,,,,,,,,,,,,,,,,,,,,,,,,,,,,,,,,,,,,,,,,,,,,,,,,,,,,,,
0,11,11,38,1,,611eb692e24d9c502523b4ba,62c53a5cf93e51d4ae53c7c8,2022-07-06_09h33.16.139,Colour_Asymmetry_Pilot,2022.1.3,Win32,59.96641881,62c50e9c1127f2cd403a315f,,,,,,,,,,,,,,,,,,,,,,,,,,,,,,,,,,,,,,,,,,,,,,,,,,,,,,,,,,,,,,,,,,,,,,,,,,,,,,,,,,,,,,,,,,,,,,,,,,,,,,,,,,,,,,,,,,,,,,,,,,,,,,,,,,,,,,,,,,,,,,,,,,,,,,,,,,,,,,,,,,,
0,12,12,55,1,,611eb692e24d9c502523b4ba,62c53a5cf93e51d4ae53c7c8,2022-07-06_09h33.16.139,Colour_Asymmetry_Pilot,2022.1.3,Win32,59.96641881,62c50e9c1127f2cd403a315f,,,,,,,,,,,,,,,,,,,,,,,,,,,,,,,,,,,,,,,,,,,,,,,,,,,,,,,,,,,,,,,,,,,,,,,,,,,,,,,,,,,,,,,,,,,,,,,,,,,,,,,,,,,,,,,,,,,,,,,,,,,,,,,,,,,,,,,,,,,,,,,,,,,,,,,,,,,,,,,,,,,
0,13,13,21,1,,611eb692e24d9c502523b4ba,62c53a5cf93e51d4ae53c7c8,2022-07-06_09h33.16.139,Colour_Asymmetry_Pilot,2022.1.3,Win32,59.96641881,62c50e9c1127f2cd403a315f,,,,,,,,,,,,,,,,,,,,,,,,,,,,,,,,,,,,,,,,,,,,,,,,,,,,,,,,,,,,,,,,,,,,,,,,,,,,,,,,,,,,,,,,,,,,,,,,,,,,,,,,,,,,,,,,,,,,,,,,,,,,,,,,,,,,,,,,,,,,,,,,,,,,,,,,,,,,,,,,,,,
0,14,14,69,1,,611eb692e24d9c502523b4ba,62c53a5cf93e51d4ae53c7c8,2022-07-06_09h33.16.139,Colour_Asymmetry_Pilot,2022.1.3,Win32,59.96641881,62c50e9c1127f2cd403a315f,,,,,,,,,,,,,,,,,,,,,,,,,,,,,,,,,,,,,,,,,,,,,,,,,,,,,,,,,,,,,,,,,,,,,,,,,,,,,,,,,,,,,,,,,,,,,,,,,,,,,,,,,,,,,,,,,,,,,,,,,,,,,,,,,,,,,,,,,,,,,,,,,,,,,,,,,,,,,,,,,,,
0,15,15,46,1,,611eb692e24d9c502523b4ba,62c53a5cf93e51d4ae53c7c8,2022-07-06_09h33.16.139,Colour_Asymmetry_Pilot,2022.1.3,Win32,59.96641881,62c50e9c1127f2cd403a315f,,,,,,,,,,,,,,,,,,,,,,,,,,,,,,,,,,,,,,,,,,,,,,,,,,,,,,,,,,,,,,,,,,,,,,,,,,,,,,,,,,,,,,,,,,,,,,,,,,,,,,,,,,,,,,,,,,,,,,,,,,,,,,,,,,,,,,,,,,,,,,,,,,,,,,,,,,,,,,,,,,,
0,16,16,59,1,,611eb692e24d9c502523b4ba,62c53a5cf93e51d4ae53c7c8,2022-07-06_09h33.16.139,Colour_Asymmetry_Pilot,2022.1.3,Win32,59.96641881,62c50e9c1127f2cd403a315f,,,,,,,,,,,,,,,,,,,,,,,,,,,,,,,,,,,,,,,,,,,,,,,,,,,,,,,,,,,,,,,,,,,,,,,,,,,,,,,,,,,,,,,,,,,,,,,,,,,,,,,,,,,,,,,,,,,,,,,,,,,,,,,,,,,,,,,,,,,,,,,,,,,,,,,,,,,,,,,,,,,
0,17,17,30,1,,611eb692e24d9c502523b4ba,62c53a5cf93e51d4ae53c7c8,2022-07-06_09h33.16.139,Colour_Asymmetry_Pilot,2022.1.3,Win32,59.96641881,62c50e9c1127f2cd403a315f,,,,,,,,,,,,,,,,,,,,,,,,,,,,,,,,,,,,,,,,,,,,,,,,,,,,,,,,,,,,,,,,,,,,,,,,,,,,,,,,,,,,,,,,,,,,,,,,,,,,,,,,,,,,,,,,,,,,,,,,,,,,,,,,,,,,,,,,,,,,,,,,,,,,,,,,,,,,,,,,,,,
0,18,18,10,1,,611eb692e24d9c502523b4ba,62c53a5cf93e51d4ae53c7c8,2022-07-06_09h33.16.139,Colour_Asymmetry_Pilot,2022.1.3,Win32,59.96641881,62c50e9c1127f2cd403a315f,,,,,,,,,,,,,,,,,,,,,,,,,,,,,,,,,,,,,,,,,,,,,,,,,,,,,,,,,,,,,,,,,,,,,,,,,,,,,,,,,,,,,,,,,,,,,,,,,,,,,,,,,,,,,,,,,,,,,,,,,,,,,,,,,,,,,,,,,,,,,,,,,,,,,,,,,,,,,,,,,,,
0,19,19,27,1,,611eb692e24d9c502523b4ba,62c53a5cf93e51d4ae53c7c8,2022-07-06_09h33.16.139,Colour_Asymmetry_Pilot,2022.1.3,Win32,59.96641881,62c50e9c1127f2cd403a315f,,,,,,,,,,,,,,,,,,,,,,,,,,,,,,,,,,,,,,,,,,,,,,,,,,,,,,,,,,,,,,,,,,,,,,,,,,,,,,,,,,,,,,,,,,,,,,,,,,,,,,,,,,,,,,,,,,,,,,,,,,,,,,,,,,,,,,,,,,,,,,,,,,,,,,,,,,,,,,,,,,,
0,20,20,79,1,,611eb692e24d9c502523b4ba,62c53a5cf93e51d4ae53c7c8,2022-07-06_09h33.16.139,Colour_Asymmetry_Pilot,2022.1.3,Win32,59.96641881,62c50e9c1127f2cd403a315f,,,,,,,,,,,,,,,,,,,,,,,,,,,,,,,,,,,,,,,,,,,,,,,,,,,,,,,,,,,,,,,,,,,,,,,,,,,,,,,,,,,,,,,,,,,,,,,,,,,,,,,,,,,,,,,,,,,,,,,,,,,,,,,,,,,,,,,,,,,,,,,,,,,,,,,,,,,,,,,,,,,
0,21,21,35,1,,611eb692e24d9c502523b4ba,62c53a5cf93e51d4ae53c7c8,2022-07-06_09h33.16.139,Colour_Asymmetry_Pilot,2022.1.3,Win32,59.96641881,62c50e9c1127f2cd403a315f,,,,,,,,,,,,,,,,,,,,,,,,,,,,,,,,,,,,,,,,,,,,,,,,,,,,,,,,,,,,,,,,,,,,,,,,,,,,,,,,,,,,,,,,,,,,,,,,,,,,,,,,,,,,,,,,,,,,,,,,,,,,,,,,,,,,,,,,,,,,,,,,,,,,,,,,,,,,,,,,,,,
0,22,22,23,1,,611eb692e24d9c502523b4ba,62c53a5cf93e51d4ae53c7c8,2022-07-06_09h33.16.139,Colour_Asymmetry_Pilot,2022.1.3,Win32,59.96641881,62c50e9c1127f2cd403a315f,,,,,,,,,,,,,,,,,,,,,,,,,,,,,,,,,,,,,,,,,,,,,,,,,,,,,,,,,,,,,,,,,,,,,,,,,,,,,,,,,,,,,,,,,,,,,,,,,,,,,,,,,,,,,,,,,,,,,,,,,,,,,,,,,,,,,,,,,,,,,,,,,,,,,,,,,,,,,,,,,,,
0,23,23,83,1,,611eb692e24d9c502523b4ba,62c53a5cf93e51d4ae53c7c8,2022-07-06_09h33.16.139,Colour_Asymmetry_Pilot,2022.1.3,Win32,59.96641881,62c50e9c1127f2cd403a315f,,,,,,,,,,,,,,,,,,,,,,,,,,,,,,,,,,,,,,,,,,,,,,,,,,,,,,,,,,,,,,,,,,,,,,,,,,,,,,,,,,,,,,,,,,,,,,,,,,,,,,,,,,,,,,,,,,,,,,,,,,,,,,,,,,,,,,,,,,,,,,,,,,,,,,,,,,,,,,,,,,,
0,24,24,7,1,,611eb692e24d9c502523b4ba,62c53a5cf93e51d4ae53c7c8,2022-07-06_09h33.16.139,Colour_Asymmetry_Pilot,2022.1.3,Win32,59.96641881,62c50e9c1127f2cd403a315f,,,,,,,,,,,,,,,,,,,,,,,,,,,,,,,,,,,,,,,,,,,,,,,,,,,,,,,,,,,,,,,,,,,,,,,,,,,,,,,,,,,,,,,,,,,,,,,,,,,,,,,,,,,,,,,,,,,,,,,,,,,,,,,,,,,,,,,,,,,,,,,,,,,,,,,,,,,,,,,,,,,
0,25,25,11,1,,611eb692e24d9c502523b4ba,62c53a5cf93e51d4ae53c7c8,2022-07-06_09h33.16.139,Colour_Asymmetry_Pilot,2022.1.3,Win32,59.96641881,62c50e9c1127f2cd403a315f,,,,,,,,,,,,,,,,,,,,,,,,,,,,,,,,,,,,,,,,,,,,,,,,,,,,,,,,,,,,,,,,,,,,,,,,,,,,,,,,,,,,,,,,,,,,,,,,,,,,,,,,,,,,,,,,,,,,,,,,,,,,,,,,,,,,,,,,,,,,,,,,,,,,,,,,,,,,,,,,,,,
0,26,26,67,1,,611eb692e24d9c502523b4ba,62c53a5cf93e51d4ae53c7c8,2022-07-06_09h33.16.139,Colour_Asymmetry_Pilot,2022.1.3,Win32,59.96641881,62c50e9c1127f2cd403a315f,,,,,,,,,,,,,,,,,,,,,,,,,,,,,,,,,,,,,,,,,,,,,,,,,,,,,,,,,,,,,,,,,,,,,,,,,,,,,,,,,,,,,,,,,,,,,,,,,,,,,,,,,,,,,,,,,,,,,,,,,,,,,,,,,,,,,,,,,,,,,,,,,,,,,,,,,,,,,,,,,,,
0,27,27,82,1,,611eb692e24d9c502523b4ba,62c53a5cf93e51d4ae53c7c8,2022-07-06_09h33.16.139,Colour_Asymmetry_Pilot,2022.1.3,Win32,59.96641881,62c50e9c1127f2cd403a315f,,,,,,,,,,,,,,,,,,,,,,,,,,,,,,,,,,,,,,,,,,,,,,,,,,,,,,,,,,,,,,,,,,,,,,,,,,,,,,,,,,,,,,,,,,,,,,,,,,,,,,,,,,,,,,,,,,,,,,,,,,,,,,,,,,,,,,,,,,,,,,,,,,,,,,,,,,,,,,,,,,,
0,28,28,63,1,,611eb692e24d9c502523b4ba,62c53a5cf93e51d4ae53c7c8,2022-07-06_09h33.16.139,Colour_Asymmetry_Pilot,2022.1.3,Win32,59.96641881,62c50e9c1127f2cd403a315f,,,,,,,,,,,,,,,,,,,,,,,,,,,,,,,,,,,,,,,,,,,,,,,,,,,,,,,,,,,,,,,,,,,,,,,,,,,,,,,,,,,,,,,,,,,,,,,,,,,,,,,,,,,,,,,,,,,,,,,,,,,,,,,,,,,,,,,,,,,,,,,,,,,,,,,,,,,,,,,,,,,
0,29,29,28,1,,611eb692e24d9c502523b4ba,62c53a5cf93e51d4ae53c7c8,2022-07-06_09h33.16.139,Colour_Asymmetry_Pilot,2022.1.3,Win32,59.96641881,62c50e9c1127f2cd403a315f,,,,,,,,,,,,,,,,,,,,,,,,,,,,,,,,,,,,,,,,,,,,,,,,,,,,,,,,,,,,,,,,,,,,,,,,,,,,,,,,,,,,,,,,,,,,,,,,,,,,,,,,,,,,,,,,,,,,,,,,,,,,,,,,,,,,,,,,,,,,,,,,,,,,,,,,,,,,,,,,,,,
0,30,30,89,1,,611eb692e24d9c502523b4ba,62c53a5cf93e51d4ae53c7c8,2022-07-06_09h33.16.139,Colour_Asymmetry_Pilot,2022.1.3,Win32,59.96641881,62c50e9c1127f2cd403a315f,,,,,,,,,,,,,,,,,,,,,,,,,,,,,,,,,,,,,,,,,,,,,,,,,,,,,,,,,,,,,,,,,,,,,,,,,,,,,,,,,,,,,,,,,,,,,,,,,,,,,,,,,,,,,,,,,,,,,,,,,,,,,,,,,,,,,,,,,,,,,,,,,,,,,,,,,,,,,,,,,,,
0,31,31,52,1,,611eb692e24d9c502523b4ba,62c53a5cf93e51d4ae53c7c8,2022-07-06_09h33.16.139,Colour_Asymmetry_Pilot,2022.1.3,Win32,59.96641881,62c50e9c1127f2cd403a315f,,,,,,,,,,,,,,,,,,,,,,,,,,,,,,,,,,,,,,,,,,,,,,,,,,,,,,,,,,,,,,,,,,,,,,,,,,,,,,,,,,,,,,,,,,,,,,,,,,,,,,,,,,,,,,,,,,,,,,,,,,,,,,,,,,,,,,,,,,,,,,,,,,,,,,,,,,,,,,,,,,,
0,32,32,19,1,,611eb692e24d9c502523b4ba,62c53a5cf93e51d4ae53c7c8,2022-07-06_09h33.16.139,Colour_Asymmetry_Pilot,2022.1.3,Win32,59.96641881,62c50e9c1127f2cd403a315f,,,,,,,,,,,,,,,,,,,,,,,,,,,,,,,,,,,,,,,,,,,,,,,,,,,,,,,,,,,,,,,,,,,,,,,,,,,,,,,,,,,,,,,,,,,,,,,,,,,,,,,,,,,,,,,,,,,,,,,,,,,,,,,,,,,,,,,,,,,,,,,,,,,,,,,,,,,,,,,,,,,
0,33,33,36,1,,611eb692e24d9c502523b4ba,62c53a5cf93e51d4ae53c7c8,2022-07-06_09h33.16.139,Colour_Asymmetry_Pilot,2022.1.3,Win32,59.96641881,62c50e9c1127f2cd403a315f,,,,,,,,,,,,,,,,,,,,,,,,,,,,,,,,,,,,,,,,,,,,,,,,,,,,,,,,,,,,,,,,,,,,,,,,,,,,,,,,,,,,,,,,,,,,,,,,,,,,,,,,,,,,,,,,,,,,,,,,,,,,,,,,,,,,,,,,,,,,,,,,,,,,,,,,,,,,,,,,,,,
0,34,34,74,1,,611eb692e24d9c502523b4ba,62c53a5cf93e51d4ae53c7c8,2022-07-06_09h33.16.139,Colour_Asymmetry_Pilot,2022.1.3,Win32,59.96641881,62c50e9c1127f2cd403a315f,,,,,,,,,,,,,,,,,,,,,,,,,,,,,,,,,,,,,,,,,,,,,,,,,,,,,,,,,,,,,,,,,,,,,,,,,,,,,,,,,,,,,,,,,,,,,,,,,,,,,,,,,,,,,,,,,,,,,,,,,,,,,,,,,,,,,,,,,,,,,,,,,,,,,,,,,,,,,,,,,,,
0,35,35,29,1,,611eb692e24d9c502523b4ba,62c53a5cf93e51d4ae53c7c8,2022-07-06_09h33.16.139,Colour_Asymmetry_Pilot,2022.1.3,Win32,59.96641881,62c50e9c1127f2cd403a315f,,,,,,,,,,,,,,,,,,,,,,,,,,,,,,,,,,,,,,,,,,,,,,,,,,,,,,,,,,,,,,,,,,,,,,,,,,,,,,,,,,,,,,,,,,,,,,,,,,,,,,,,,,,,,,,,,,,,,,,,,,,,,,,,,,,,,,,,,,,,,,,,,,,,,,,,,,,,,,,,,,,
0,36,36,20,1,,611eb692e24d9c502523b4ba,62c53a5cf93e51d4ae53c7c8,2022-07-06_09h33.16.139,Colour_Asymmetry_Pilot,2022.1.3,Win32,59.96641881,62c50e9c1127f2cd403a315f,,,,,,,,,,,,,,,,,,,,,,,,,,,,,,,,,,,,,,,,,,,,,,,,,,,,,,,,,,,,,,,,,,,,,,,,,,,,,,,,,,,,,,,,,,,,,,,,,,,,,,,,,,,,,,,,,,,,,,,,,,,,,,,,,,,,,,,,,,,,,,,,,,,,,,,,,,,,,,,,,,,
0,37,37,68,1,,611eb692e24d9c502523b4ba,62c53a5cf93e51d4ae53c7c8,2022-07-06_09h33.16.139,Colour_Asymmetry_Pilot,2022.1.3,Win32,59.96641881,62c50e9c1127f2cd403a315f,,,,,,,,,,,,,,,,,,,,,,,,,,,,,,,,,,,,,,,,,,,,,,,,,,,,,,,,,,,,,,,,,,,,,,,,,,,,,,,,,,,,,,,,,,,,,,,,,,,,,,,,,,,,,,,,,,,,,,,,,,,,,,,,,,,,,,,,,,,,,,,,,,,,,,,,,,,,,,,,,,,
0,38,38,12,1,,611eb692e24d9c502523b4ba,62c53a5cf93e51d4ae53c7c8,2022-07-06_09h33.16.139,Colour_Asymmetry_Pilot,2022.1.3,Win32,59.96641881,62c50e9c1127f2cd403a315f,,,,,,,,,,,,,,,,,,,,,,,,,,,,,,,,,,,,,,,,,,,,,,,,,,,,,,,,,,,,,,,,,,,,,,,,,,,,,,,,,,,,,,,,,,,,,,,,,,,,,,,,,,,,,,,,,,,,,,,,,,,,,,,,,,,,,,,,,,,,,,,,,,,,,,,,,,,,,,,,,,,
0,39,39,51,1,,611eb692e24d9c502523b4ba,62c53a5cf93e51d4ae53c7c8,2022-07-06_09h33.16.139,Colour_Asymmetry_Pilot,2022.1.3,Win32,59.96641881,62c50e9c1127f2cd403a315f,,,,,,,,,,,,,,,,,,,,,,,,,,,,,,,,,,,,,,,,,,,,,,,,,,,,,,,,,,,,,,,,,,,,,,,,,,,,,,,,,,,,,,,,,,,,,,,,,,,,,,,,,,,,,,,,,,,,,,,,,,,,,,,,,,,,,,,,,,,,,,,,,,,,,,,,,,,,,,,,,,,
0,40,40,47,1,,611eb692e24d9c502523b4ba,62c53a5cf93e51d4ae53c7c8,2022-07-06_09h33.16.139,Colour_Asymmetry_Pilot,2022.1.3,Win32,59.96641881,62c50e9c1127f2cd403a315f,,,,,,,,,,,,,,,,,,,,,,,,,,,,,,,,,,,,,,,,,,,,,,,,,,,,,,,,,,,,,,,,,,,,,,,,,,,,,,,,,,,,,,,,,,,,,,,,,,,,,,,,,,,,,,,,,,,,,,,,,,,,,,,,,,,,,,,,,,,,,,,,,,,,,,,,,,,,,,,,,,,
0,41,41,13,1,,611eb692e24d9c502523b4ba,62c53a5cf93e51d4ae53c7c8,2022-07-06_09h33.16.139,Colour_Asymmetry_Pilot,2022.1.3,Win32,59.96641881,62c50e9c1127f2cd403a315f,,,,,,,,,,,,,,,,,,,,,,,,,,,,,,,,,,,,,,,,,,,,,,,,,,,,,,,,,,,,,,,,,,,,,,,,,,,,,,,,,,,,,,,,,,,,,,,,,,,,,,,,,,,,,,,,,,,,,,,,,,,,,,,,,,,,,,,,,,,,,,,,,,,,,,,,,,,,,,,,,,,
0,42,42,80,1,,611eb692e24d9c502523b4ba,62c53a5cf93e51d4ae53c7c8,2022-07-06_09h33.16.139,Colour_Asymmetry_Pilot,2022.1.3,Win32,59.96641881,62c50e9c1127f2cd403a315f,,,,,,,,,,,,,,,,,,,,,,,,,,,,,,,,,,,,,,,,,,,,,,,,,,,,,,,,,,,,,,,,,,,,,,,,,,,,,,,,,,,,,,,,,,,,,,,,,,,,,,,,,,,,,,,,,,,,,,,,,,,,,,,,,,,,,,,,,,,,,,,,,,,,,,,,,,,,,,,,,,,
0,43,43,6,1,,611eb692e24d9c502523b4ba,62c53a5cf93e51d4ae53c7c8,2022-07-06_09h33.16.139,Colour_Asymmetry_Pilot,2022.1.3,Win32,59.96641881,62c50e9c1127f2cd403a315f,,,,,,,,,,,,,,,,,,,,,,,,,,,,,,,,,,,,,,,,,,,,,,,,,,,,,,,,,,,,,,,,,,,,,,,,,,,,,,,,,,,,,,,,,,,,,,,,,,,,,,,,,,,,,,,,,,,,,,,,,,,,,,,,,,,,,,,,,,,,,,,,,,,,,,,,,,,,,,,,,,,
0,44,44,48,1,,611eb692e24d9c502523b4ba,62c53a5cf93e51d4ae53c7c8,2022-07-06_09h33.16.139,Colour_Asymmetry_Pilot,2022.1.3,Win32,59.96641881,62c50e9c1127f2cd403a315f,,,,,,,,,,,,,,,,,,,,,,,,,,,,,,,,,,,,,,,,,,,,,,,,,,,,,,,,,,,,,,,,,,,,,,,,,,,,,,,,,,,,,,,,,,,,,,,,,,,,,,,,,,,,,,,,,,,,,,,,,,,,,,,,,,,,,,,,,,,,,,,,,,,,,,,,,,,,,,,,,,,
0,45,45,45,1,,611eb692e24d9c502523b4ba,62c53a5cf93e51d4ae53c7c8,2022-07-06_09h33.16.139,Colour_Asymmetry_Pilot,2022.1.3,Win32,59.96641881,62c50e9c1127f2cd403a315f,,,,,,,,,,,,,,,,,,,,,,,,,,,,,,,,,,,,,,,,,,,,,,,,,,,,,,,,,,,,,,,,,,,,,,,,,,,,,,,,,,,,,,,,,,,,,,,,,,,,,,,,,,,,,,,,,,,,,,,,,,,,,,,,,,,,,,,,,,,,,,,,,,,,,,,,,,,,,,,,,,,
0,46,46,14,1,,611eb692e24d9c502523b4ba,62c53a5cf93e51d4ae53c7c8,2022-07-06_09h33.16.139,Colour_Asymmetry_Pilot,2022.1.3,Win32,59.96641881,62c50e9c1127f2cd403a315f,,,,,,,,,,,,,,,,,,,,,,,,,,,,,,,,,,,,,,,,,,,,,,,,,,,,,,,,,,,,,,,,,,,,,,,,,,,,,,,,,,,,,,,,,,,,,,,,,,,,,,,,,,,,,,,,,,,,,,,,,,,,,,,,,,,,,,,,,,,,,,,,,,,,,,,,,,,,,,,,,,,
0,47,47,60,1,,611eb692e24d9c502523b4ba,62c53a5cf93e51d4ae53c7c8,2022-07-06_09h33.16.139,Colour_Asymmetry_Pilot,2022.1.3,Win32,59.96641881,62c50e9c1127f2cd403a315f,,,,,,,,,,,,,,,,,,,,,,,,,,,,,,,,,,,,,,,,,,,,,,,,,,,,,,,,,,,,,,,,,,,,,,,,,,,,,,,,,,,,,,,,,,,,,,,,,,,,,,,,,,,,,,,,,,,,,,,,,,,,,,,,,,,,,,,,,,,,,,,,,,,,,,,,,,,,,,,,,,,
0,48,48,5,1,,611eb692e24d9c502523b4ba,62c53a5cf93e51d4ae53c7c8,2022-07-06_09h33.16.139,Colour_Asymmetry_Pilot,2022.1.3,Win32,59.96641881,62c50e9c1127f2cd403a315f,,,,,,,,,,,,,,,,,,,,,,,,,,,,,,,,,,,,,,,,,,,,,,,,,,,,,,,,,,,,,,,,,,,,,,,,,,,,,,,,,,,,,,,,,,,,,,,,,,,,,,,,,,,,,,,,,,,,,,,,,,,,,,,,,,,,,,,,,,,,,,,,,,,,,,,,,,,,,,,,,,,
0,49,49,70,1,,611eb692e24d9c502523b4ba,62c53a5cf93e51d4ae53c7c8,2022-07-06_09h33.16.139,Colour_Asymmetry_Pilot,2022.1.3,Win32,59.96641881,62c50e9c1127f2cd403a315f,,,,,,,,,,,,,,,,,,,,,,,,,,,,,,,,,,,,,,,,,,,,,,,,,,,,,,,,,,,,,,,,,,,,,,,,,,,,,,,,,,,,,,,,,,,,,,,,,,,,,,,,,,,,,,,,,,,,,,,,,,,,,,,,,,,,,,,,,,,,,,,,,,,,,,,,,,,,,,,,,,,
0,50,50,66,1,,611eb692e24d9c502523b4ba,62c53a5cf93e51d4ae53c7c8,2022-07-06_09h33.16.139,Colour_Asymmetry_Pilot,2022.1.3,Win32,59.96641881,62c50e9c1127f2cd403a315f,,,,,,,,,,,,,,,,,,,,,,,,,,,,,,,,,,,,,,,,,,,,,,,,,,,,,,,,,,,,,,,,,,,,,,,,,,,,,,,,,,,,,,,,,,,,,,,,,,,,,,,,,,,,,,,,,,,,,,,,,,,,,,,,,,,,,,,,,,,,,,,,,,,,,,,,,,,,,,,,,,,
0,51,51,86,1,,611eb692e24d9c502523b4ba,62c53a5cf93e51d4ae53c7c8,2022-07-06_09h33.16.139,Colour_Asymmetry_Pilot,2022.1.3,Win32,59.96641881,62c50e9c1127f2cd403a315f,,,,,,,,,,,,,,,,,,,,,,,,,,,,,,,,,,,,,,,,,,,,,,,,,,,,,,,,,,,,,,,,,,,,,,,,,,,,,,,,,,,,,,,,,,,,,,,,,,,,,,,,,,,,,,,,,,,,,,,,,,,,,,,,,,,,,,,,,,,,,,,,,,,,,,,,,,,,,,,,,,,
0,52,52,32,1,,611eb692e24d9c502523b4ba,62c53a5cf93e51d4ae53c7c8,2022-07-06_09h33.16.139,Colour_Asymmetry_Pilot,2022.1.3,Win32,59.96641881,62c50e9c1127f2cd403a315f,,,,,,,,,,,,,,,,,,,,,,,,,,,,,,,,,,,,,,,,,,,,,,,,,,,,,,,,,,,,,,,,,,,,,,,,,,,,,,,,,,,,,,,,,,,,,,,,,,,,,,,,,,,,,,,,,,,,,,,,,,,,,,,,,,,,,,,,,,,,,,,,,,,,,,,,,,,,,,,,,,,
0,53,53,57,1,,611eb692e24d9c502523b4ba,62c53a5cf93e51d4ae53c7c8,2022-07-06_09h33.16.139,Colour_Asymmetry_Pilot,2022.1.3,Win32,59.96641881,62c50e9c1127f2cd403a315f,,,,,,,,,,,,,,,,,,,,,,,,,,,,,,,,,,,,,,,,,,,,,,,,,,,,,,,,,,,,,,,,,,,,,,,,,,,,,,,,,,,,,,,,,,,,,,,,,,,,,,,,,,,,,,,,,,,,,,,,,,,,,,,,,,,,,,,,,,,,,,,,,,,,,,,,,,,,,,,,,,,
0,54,54,64,1,,611eb692e24d9c502523b4ba,62c53a5cf93e51d4ae53c7c8,2022-07-06_09h33.16.139,Colour_Asymmetry_Pilot,2022.1.3,Win32,59.96641881,62c50e9c1127f2cd403a315f,,,,,,,,,,,,,,,,,,,,,,,,,,,,,,,,,,,,,,,,,,,,,,,,,,,,,,,,,,,,,,,,,,,,,,,,,,,,,,,,,,,,,,,,,,,,,,,,,,,,,,,,,,,,,,,,,,,,,,,,,,,,,,,,,,,,,,,,,,,,,,,,,,,,,,,,,,,,,,,,,,,
0,55,55,87,1,,611eb692e24d9c502523b4ba,62c53a5cf93e51d4ae53c7c8,2022-07-06_09h33.16.139,Colour_Asymmetry_Pilot,2022.1.3,Win32,59.96641881,62c50e9c1127f2cd403a315f,,,,,,,,,,,,,,,,,,,,,,,,,,,,,,,,,,,,,,,,,,,,,,,,,,,,,,,,,,,,,,,,,,,,,,,,,,,,,,,,,,,,,,,,,,,,,,,,,,,,,,,,,,,,,,,,,,,,,,,,,,,,,,,,,,,,,,,,,,,,,,,,,,,,,,,,,,,,,,,,,,,
0,56,56,81,1,,611eb692e24d9c502523b4ba,62c53a5cf93e51d4ae53c7c8,2022-07-06_09h33.16.139,Colour_Asymmetry_Pilot,2022.1.3,Win32,59.96641881,62c50e9c1127f2cd403a315f,,,,,,,,,,,,,,,,,,,,,,,,,,,,,,,,,,,,,,,,,,,,,,,,,,,,,,,,,,,,,,,,,,,,,,,,,,,,,,,,,,,,,,,,,,,,,,,,,,,,,,,,,,,,,,,,,,,,,,,,,,,,,,,,,,,,,,,,,,,,,,,,,,,,,,,,,,,,,,,,,,,
0,57,57,71,1,,611eb692e24d9c502523b4ba,62c53a5cf93e51d4ae53c7c8,2022-07-06_09h33.16.139,Colour_Asymmetry_Pilot,2022.1.3,Win32,59.96641881,62c50e9c1127f2cd403a315f,,,,,,,,,,,,,,,,,,,,,,,,,,,,,,,,,,,,,,,,,,,,,,,,,,,,,,,,,,,,,,,,,,,,,,,,,,,,,,,,,,,,,,,,,,,,,,,,,,,,,,,,,,,,,,,,,,,,,,,,,,,,,,,,,,,,,,,,,,,,,,,,,,,,,,,,,,,,,,,,,,,
0,58,58,61,1,,611eb692e24d9c502523b4ba,62c53a5cf93e51d4ae53c7c8,2022-07-06_09h33.16.139,Colour_Asymmetry_Pilot,2022.1.3,Win32,59.96641881,62c50e9c1127f2cd403a315f,,,,,,,,,,,,,,,,,,,,,,,,,,,,,,,,,,,,,,,,,,,,,,,,,,,,,,,,,,,,,,,,,,,,,,,,,,,,,,,,,,,,,,,,,,,,,,,,,,,,,,,,,,,,,,,,,,,,,,,,,,,,,,,,,,,,,,,,,,,,,,,,,,,,,,,,,,,,,,,,,,,
0,59,59,4,1,,611eb692e24d9c502523b4ba,62c53a5cf93e51d4ae53c7c8,2022-07-06_09h33.16.139,Colour_Asymmetry_Pilot,2022.1.3,Win32,59.96641881,62c50e9c1127f2cd403a315f,,,,,,,,,,,,,,,,,,,,,,,,,,,,,,,,,,,,,,,,,,,,,,,,,,,,,,,,,,,,,,,,,,,,,,,,,,,,,,,,,,,,,,,,,,,,,,,,,,,,,,,,,,,,,,,,,,,,,,,,,,,,,,,,,,,,,,,,,,,,,,,,,,,,,,,,,,,,,,,,,,,
0,60,60,18,1,,611eb692e24d9c502523b4ba,62c53a5cf93e51d4ae53c7c8,2022-07-06_09h33.16.139,Colour_Asymmetry_Pilot,2022.1.3,Win32,59.96641881,62c50e9c1127f2cd403a315f,,,,,,,,,,,,,,,,,,,,,,,,,,,,,,,,,,,,,,,,,,,,,,,,,,,,,,,,,,,,,,,,,,,,,,,,,,,,,,,,,,,,,,,,,,,,,,,,,,,,,,,,,,,,,,,,,,,,,,,,,,,,,,,,,,,,,,,,,,,,,,,,,,,,,,,,,,,,,,,,,,,
0,61,61,15,1,,611eb692e24d9c502523b4ba,62c53a5cf93e51d4ae53c7c8,2022-07-06_09h33.16.139,Colour_Asymmetry_Pilot,2022.1.3,Win32,59.96641881,62c50e9c1127f2cd403a315f,,,,,,,,,,,,,,,,,,,,,,,,,,,,,,,,,,,,,,,,,,,,,,,,,,,,,,,,,,,,,,,,,,,,,,,,,,,,,,,,,,,,,,,,,,,,,,,,,,,,,,,,,,,,,,,,,,,,,,,,,,,,,,,,,,,,,,,,,,,,,,,,,,,,,,,,,,,,,,,,,,,
0,62,62,37,1,,611eb692e24d9c502523b4ba,62c53a5cf93e51d4ae53c7c8,2022-07-06_09h33.16.139,Colour_Asymmetry_Pilot,2022.1.3,Win32,59.96641881,62c50e9c1127f2cd403a315f,,,,,,,,,,,,,,,,,,,,,,,,,,,,,,,,,,,,,,,,,,,,,,,,,,,,,,,,,,,,,,,,,,,,,,,,,,,,,,,,,,,,,,,,,,,,,,,,,,,,,,,,,,,,,,,,,,,,,,,,,,,,,,,,,,,,,,,,,,,,,,,,,,,,,,,,,,,,,,,,,,,
0,63,63,56,1,,611eb692e24d9c502523b4ba,62c53a5cf93e51d4ae53c7c8,2022-07-06_09h33.16.139,Colour_Asymmetry_Pilot,2022.1.3,Win32,59.96641881,62c50e9c1127f2cd403a315f,,,,,,,,,,,,,,,,,,,,,,,,,,,,,,,,,,,,,,,,,,,,,,,,,,,,,,,,,,,,,,,,,,,,,,,,,,,,,,,,,,,,,,,,,,,,,,,,,,,,,,,,,,,,,,,,,,,,,,,,,,,,,,,,,,,,,,,,,,,,,,,,,,,,,,,,,,,,,,,,,,,
0,64,64,9,1,,611eb692e24d9c502523b4ba,62c53a5cf93e51d4ae53c7c8,2022-07-06_09h33.16.139,Colour_Asymmetry_Pilot,2022.1.3,Win32,59.96641881,62c50e9c1127f2cd403a315f,,,,,,,,,,,,,,,,,,,,,,,,,,,,,,,,,,,,,,,,,,,,,,,,,,,,,,,,,,,,,,,,,,,,,,,,,,,,,,,,,,,,,,,,,,,,,,,,,,,,,,,,,,,,,,,,,,,,,,,,,,,,,,,,,,,,,,,,,,,,,,,,,,,,,,,,,,,,,,,,,,,
0,65,65,72,1,,611eb692e24d9c502523b4ba,62c53a5cf93e51d4ae53c7c8,2022-07-06_09h33.16.139,Colour_Asymmetry_Pilot,2022.1.3,Win32,59.96641881,62c50e9c1127f2cd403a315f,,,,,,,,,,,,,,,,,,,,,,,,,,,,,,,,,,,,,,,,,,,,,,,,,,,,,,,,,,,,,,,,,,,,,,,,,,,,,,,,,,,,,,,,,,,,,,,,,,,,,,,,,,,,,,,,,,,,,,,,,,,,,,,,,,,,,,,,,,,,,,,,,,,,,,,,,,,,,,,,,,,
0,66,66,49,1,,611eb692e24d9c502523b4ba,62c53a5cf93e51d4ae53c7c8,2022-07-06_09h33.16.139,Colour_Asymmetry_Pilot,2022.1.3,Win32,59.96641881,62c50e9c1127f2cd403a315f,,,,,,,,,,,,,,,,,,,,,,,,,,,,,,,,,,,,,,,,,,,,,,,,,,,,,,,,,,,,,,,,,,,,,,,,,,,,,,,,,,,,,,,,,,,,,,,,,,,,,,,,,,,,,,,,,,,,,,,,,,,,,,,,,,,,,,,,,,,,,,,,,,,,,,,,,,,,,,,,,,,
0,67,67,31,1,,611eb692e24d9c502523b4ba,62c53a5cf93e51d4ae53c7c8,2022-07-06_09h33.16.139,Colour_Asymmetry_Pilot,2022.1.3,Win32,59.96641881,62c50e9c1127f2cd403a315f,,,,,,,,,,,,,,,,,,,,,,,,,,,,,,,,,,,,,,,,,,,,,,,,,,,,,,,,,,,,,,,,,,,,,,,,,,,,,,,,,,,,,,,,,,,,,,,,,,,,,,,,,,,,,,,,,,,,,,,,,,,,,,,,,,,,,,,,,,,,,,,,,,,,,,,,,,,,,,,,,,,
0,68,68,8,1,,611eb692e24d9c502523b4ba,62c53a5cf93e51d4ae53c7c8,2022-07-06_09h33.16.139,Colour_Asymmetry_Pilot,2022.1.3,Win32,59.96641881,62c50e9c1127f2cd403a315f,,,,,,,,,,,,,,,,,,,,,,,,,,,,,,,,,,,,,,,,,,,,,,,,,,,,,,,,,,,,,,,,,,,,,,,,,,,,,,,,,,,,,,,,,,,,,,,,,,,,,,,,,,,,,,,,,,,,,,,,,,,,,,,,,,,,,,,,,,,,,,,,,,,,,,,,,,,,,,,,,,,
0,69,69,3,1,,611eb692e24d9c502523b4ba,62c53a5cf93e51d4ae53c7c8,2022-07-06_09h33.16.139,Colour_Asymmetry_Pilot,2022.1.3,Win32,59.96641881,62c50e9c1127f2cd403a315f,,,,,,,,,,,,,,,,,,,,,,,,,,,,,,,,,,,,,,,,,,,,,,,,,,,,,,,,,,,,,,,,,,,,,,,,,,,,,,,,,,,,,,,,,,,,,,,,,,,,,,,,,,,,,,,,,,,,,,,,,,,,,,,,,,,,,,,,,,,,,,,,,,,,,,,,,,,,,,,,,,,
0,70,70,24,1,,611eb692e24d9c502523b4ba,62c53a5cf93e51d4ae53c7c8,2022-07-06_09h33.16.139,Colour_Asymmetry_Pilot,2022.1.3,Win32,59.96641881,62c50e9c1127f2cd403a315f,,,,,,,,,,,,,,,,,,,,,,,,,,,,,,,,,,,,,,,,,,,,,,,,,,,,,,,,,,,,,,,,,,,,,,,,,,,,,,,,,,,,,,,,,,,,,,,,,,,,,,,,,,,,,,,,,,,,,,,,,,,,,,,,,,,,,,,,,,,,,,,,,,,,,,,,,,,,,,,,,,,
0,71,71,75,1,,611eb692e24d9c502523b4ba,62c53a5cf93e51d4ae53c7c8,2022-07-06_09h33.16.139,Colour_Asymmetry_Pilot,2022.1.3,Win32,59.96641881,62c50e9c1127f2cd403a315f,,,,,,,,,,,,,,,,,,,,,,,,,,,,,,,,,,,,,,,,,,,,,,,,,,,,,,,,,,,,,,,,,,,,,,,,,,,,,,,,,,,,,,,,,,,,,,,,,,,,,,,,,,,,,,,,,,,,,,,,,,,,,,,,,,,,,,,,,,,,,,,,,,,,,,,,,,,,,,,,,,,
0,72,72,84,1,,611eb692e24d9c502523b4ba,62c53a5cf93e51d4ae53c7c8,2022-07-06_09h33.16.139,Colour_Asymmetry_Pilot,2022.1.3,Win32,59.96641881,62c50e9c1127f2cd403a315f,,,,,,,,,,,,,,,,,,,,,,,,,,,,,,,,,,,,,,,,,,,,,,,,,,,,,,,,,,,,,,,,,,,,,,,,,,,,,,,,,,,,,,,,,,,,,,,,,,,,,,,,,,,,,,,,,,,,,,,,,,,,,,,,,,,,,,,,,,,,,,,,,,,,,,,,,,,,,,,,,,,
0,73,73,22,1,,611eb692e24d9c502523b4ba,62c53a5cf93e51d4ae53c7c8,2022-07-06_09h33.16.139,Colour_Asymmetry_Pilot,2022.1.3,Win32,59.96641881,62c50e9c1127f2cd403a315f,,,,,,,,,,,,,,,,,,,,,,,,,,,,,,,,,,,,,,,,,,,,,,,,,,,,,,,,,,,,,,,,,,,,,,,,,,,,,,,,,,,,,,,,,,,,,,,,,,,,,,,,,,,,,,,,,,,,,,,,,,,,,,,,,,,,,,,,,,,,,,,,,,,,,,,,,,,,,,,,,,,
0,74,74,44,1,,611eb692e24d9c502523b4ba,62c53a5cf93e51d4ae53c7c8,2022-07-06_09h33.16.139,Colour_Asymmetry_Pilot,2022.1.3,Win32,59.96641881,62c50e9c1127f2cd403a315f,,,,,,,,,,,,,,,,,,,,,,,,,,,,,,,,,,,,,,,,,,,,,,,,,,,,,,,,,,,,,,,,,,,,,,,,,,,,,,,,,,,,,,,,,,,,,,,,,,,,,,,,,,,,,,,,,,,,,,,,,,,,,,,,,,,,,,,,,,,,,,,,,,,,,,,,,,,,,,,,,,,
0,75,75,50,1,,611eb692e24d9c502523b4ba,62c53a5cf93e51d4ae53c7c8,2022-07-06_09h33.16.139,Colour_Asymmetry_Pilot,2022.1.3,Win32,59.96641881,62c50e9c1127f2cd403a315f,,,,,,,,,,,,,,,,,,,,,,,,,,,,,,,,,,,,,,,,,,,,,,,,,,,,,,,,,,,,,,,,,,,,,,,,,,,,,,,,,,,,,,,,,,,,,,,,,,,,,,,,,,,,,,,,,,,,,,,,,,,,,,,,,,,,,,,,,,,,,,,,,,,,,,,,,,,,,,,,,,,
0,76,76,76,1,,611eb692e24d9c502523b4ba,62c53a5cf93e51d4ae53c7c8,2022-07-06_09h33.16.139,Colour_Asymmetry_Pilot,2022.1.3,Win32,59.96641881,62c50e9c1127f2cd403a315f,,,,,,,,,,,,,,,,,,,,,,,,,,,,,,,,,,,,,,,,,,,,,,,,,,,,,,,,,,,,,,,,,,,,,,,,,,,,,,,,,,,,,,,,,,,,,,,,,,,,,,,,,,,,,,,,,,,,,,,,,,,,,,,,,,,,,,,,,,,,,,,,,,,,,,,,,,,,,,,,,,,
0,77,77,73,1,,611eb692e24d9c502523b4ba,62c53a5cf93e51d4ae53c7c8,2022-07-06_09h33.16.139,Colour_Asymmetry_Pilot,2022.1.3,Win32,59.96641881,62c50e9c1127f2cd403a315f,,,,,,,,,,,,,,,,,,,,,,,,,,,,,,,,,,,,,,,,,,,,,,,,,,,,,,,,,,,,,,,,,,,,,,,,,,,,,,,,,,,,,,,,,,,,,,,,,,,,,,,,,,,,,,,,,,,,,,,,,,,,,,,,,,,,,,,,,,,,,,,,,,,,,,,,,,,,,,,,,,,
0,78,78,54,1,,611eb692e24d9c502523b4ba,62c53a5cf93e51d4ae53c7c8,2022-07-06_09h33.16.139,Colour_Asymmetry_Pilot,2022.1.3,Win32,59.96641881,62c50e9c1127f2cd403a315f,,,,,,,,,,,,,,,,,,,,,,,,,,,,,,,,,,,,,,,,,,,,,,,,,,,,,,,,,,,,,,,,,,,,,,,,,,,,,,,,,,,,,,,,,,,,,,,,,,,,,,,,,,,,,,,,,,,,,,,,,,,,,,,,,,,,,,,,,,,,,,,,,,,,,,,,,,,,,,,,,,,
0,79,79,43,1,,611eb692e24d9c502523b4ba,62c53a5cf93e51d4ae53c7c8,2022-07-06_09h33.16.139,Colour_Asymmetry_Pilot,2022.1.3,Win32,59.96641881,62c50e9c1127f2cd403a315f,,,,,,,,,,,,,,,,,,,,,,,,,,,,,,,,,,,,,,,,,,,,,,,,,,,,,,,,,,,,,,,,,,,,,,,,,,,,,,,,,,,,,,,,,,,,,,,,,,,,,,,,,,,,,,,,,,,,,,,,,,,,,,,,,,,,,,,,,,,,,,,,,,,,,,,,,,,,,,,,,,,
0,80,80,17,1,,611eb692e24d9c502523b4ba,62c53a5cf93e51d4ae53c7c8,2022-07-06_09h33.16.139,Colour_Asymmetry_Pilot,2022.1.3,Win32,59.96641881,62c50e9c1127f2cd403a315f,,,,,,,,,,,,,,,,,,,,,,,,,,,,,,,,,,,,,,,,,,,,,,,,,,,,,,,,,,,,,,,,,,,,,,,,,,,,,,,,,,,,,,,,,,,,,,,,,,,,,,,,,,,,,,,,,,,,,,,,,,,,,,,,,,,,,,,,,,,,,,,,,,,,,,,,,,,,,,,,,,,
0,81,81,34,1,,611eb692e24d9c502523b4ba,62c53a5cf93e51d4ae53c7c8,2022-07-06_09h33.16.139,Colour_Asymmetry_Pilot,2022.1.3,Win32,59.96641881,62c50e9c1127f2cd403a315f,,,,,,,,,,,,,,,,,,,,,,,,,,,,,,,,,,,,,,,,,,,,,,,,,,,,,,,,,,,,,,,,,,,,,,,,,,,,,,,,,,,,,,,,,,,,,,,,,,,,,,,,,,,,,,,,,,,,,,,,,,,,,,,,,,,,,,,,,,,,,,,,,,,,,,,,,,,,,,,,,,,
0,82,82,41,1,,611eb692e24d9c502523b4ba,62c53a5cf93e51d4ae53c7c8,2022-07-06_09h33.16.139,Colour_Asymmetry_Pilot,2022.1.3,Win32,59.96641881,62c50e9c1127f2cd403a315f,,,,,,,,,,,,,,,,,,,,,,,,,,,,,,,,,,,,,,,,,,,,,,,,,,,,,,,,,,,,,,,,,,,,,,,,,,,,,,,,,,,,,,,,,,,,,,,,,,,,,,,,,,,,,,,,,,,,,,,,,,,,,,,,,,,,,,,,,,,,,,,,,,,,,,,,,,,,,,,,,,,
0,83,83,42,1,,611eb692e24d9c502523b4ba,62c53a5cf93e51d4ae53c7c8,2022-07-06_09h33.16.139,Colour_Asymmetry_Pilot,2022.1.3,Win32,59.96641881,62c50e9c1127f2cd403a315f,,,,,,,,,,,,,,,,,,,,,,,,,,,,,,,,,,,,,,,,,,,,,,,,,,,,,,,,,,,,,,,,,,,,,,,,,,,,,,,,,,,,,,,,,,,,,,,,,,,,,,,,,,,,,,,,,,,,,,,,,,,,,,,,,,,,,,,,,,,,,,,,,,,,,,,,,,,,,,,,,,,
0,84,84,16,1,,611eb692e24d9c502523b4ba,62c53a5cf93e51d4ae53c7c8,2022-07-06_09h33.16.139,Colour_Asymmetry_Pilot,2022.1.3,Win32,59.96641881,62c50e9c1127f2cd403a315f,,,,,,,,,,,,,,,,,,,,,,,,,,,,,,,,,,,,,,,,,,,,,,,,,,,,,,,,,,,,,,,,,,,,,,,,,,,,,,,,,,,,,,,,,,,,,,,,,,,,,,,,,,,,,,,,,,,,,,,,,,,,,,,,,,,,,,,,,,,,,,,,,,,,,,,,,,,,,,,,,,,
0,85,85,40,1,,611eb692e24d9c502523b4ba,62c53a5cf93e51d4ae53c7c8,2022-07-06_09h33.16.139,Colour_Asymmetry_Pilot,2022.1.3,Win32,59.96641881,62c50e9c1127f2cd403a315f,,,,,,,,,,,,,,,,,,,,,,,,,,,,,,,,,,,,,,,,,,,,,,,,,,,,,,,,,,,,,,,,,,,,,,,,,,,,,,,,,,,,,,,,,,,,,,,,,,,,,,,,,,,,,,,,,,,,,,,,,,,,,,,,,,,,,,,,,,,,,,,,,,,,,,,,,,,,,,,,,,,
0,86,86,26,1,,611eb692e24d9c502523b4ba,62c53a5cf93e51d4ae53c7c8,2022-07-06_09h33.16.139,Colour_Asymmetry_Pilot,2022.1.3,Win32,59.96641881,62c50e9c1127f2cd403a315f,,,,,,,,,,,,,,,,,,,,,,,,,,,,,,,,,,,,,,,,,,,,,,,,,,,,,,,,,,,,,,,,,,,,,,,,,,,,,,,,,,,,,,,,,,,,,,,,,,,,,,,,,,,,,,,,,,,,,,,,,,,,,,,,,,,,,,,,,,,,,,,,,,,,,,,,,,,,,,,,,,,
0,87,87,58,1,,611eb692e24d9c502523b4ba,62c53a5cf93e51d4ae53c7c8,2022-07-06_09h33.16.139,Colour_Asymmetry_Pilot,2022.1.3,Win32,59.96641881,62c50e9c1127f2cd403a315f,,,,,,,,,,,,,,,,,,,,,,,,,,,,,,,,,,,,,,,,,,,,,,,,,,,,,,,,,,,,,,,,,,,,,,,,,,,,,,,,,,,,,,,,,,,,,,,,,,,,,,,,,,,,,,,,,,,,,,,,,,,,,,,,,,,,,,,,,,,,,,,,,,,,,,,,,,,,,,,,,,,
0,88,88,53,1,,611eb692e24d9c502523b4ba,62c53a5cf93e51d4ae53c7c8,2022-07-06_09h33.16.139,Colour_Asymmetry_Pilot,2022.1.3,Win32,59.96641881,62c50e9c1127f2cd403a315f,,,,,,,,,,,,,,,,,,,,,,,,,,,,,,,,,,,,,,,,,,,,,,,,,,,,,,,,,,,,,,,,,,,,,,,,,,,,,,,,,,,,,,,,,,,,,,,,,,,,,,,,,,,,,,,,,,,,,,,,,,,,,,,,,,,,,,,,,,,,,,,,,,,,,,,,,,,,,,,,,,,
0,89,89,62,1,,611eb692e24d9c502523b4ba,62c53a5cf93e51d4ae53c7c8,2022-07-06_09h33.16.139,Colour_Asymmetry_Pilot,2022.1.3,Win32,59.96641881,62c50e9c1127f2cd403a315f,,,,,,,,,,,,,,,,,,,,,,,,,,,,,,,,,,,,,,,,,,,,,,,,,,,,,,,,,,,,,,,,,,,,,,,,,,,,,,,,,,,,,,,,,,,,,,,,,,,,,,,,,,,,,,,,,,,,,,,,,,,,,,,,,,,,,,,,,,,,,,,,,,,,,,,,,,,,,,,,,,,
0,90,90,91,1,,611eb692e24d9c502523b4ba,62c53a5cf93e51d4ae53c7c8,2022-07-06_09h33.16.139,Colour_Asymmetry_Pilot,2022.1.3,Win32,59.96641881,62c50e9c1127f2cd403a315f,,,,,,,,,,,,,,,,,,,,,,,,,,,,,,,,,,,,,,,,,,,,,,,,,,,,,,,,,,,,,,,,,,,,,,,,,,,,,,,,,,,,,,,,,,,,,,,,,,,,,,,,,,,,,,,,,,,,,,,,,,,,,,,,,,,,,,,,,,,,,,,,,,,,,,,,,,,,,,,,,,,
0,91,91,85,1,,611eb692e24d9c502523b4ba,62c53a5cf93e51d4ae53c7c8,2022-07-06_09h33.16.139,Colour_Asymmetry_Pilot,2022.1.3,Win32,59.96641881,62c50e9c1127f2cd403a315f,,,,,,,,,,,,,,,,,,,,,,,,,,,,,,,,,,,,,,,,,,,,,,,,,,,,,,,,,,,,,,,,,,,,,,,,,,,,,,,,,,,,,,,,,,,,,,,,,,,,,,,,,,,,,,,,,,,,,,,,,,,,,,,,,,,,,,,,,,,,,,,,,,,,,,,,,,,,,,,,,,,
0,92,92,92,1,,611eb692e24d9c502523b4ba,62c53a5cf93e51d4ae53c7c8,2022-07-06_09h33.16.139,Colour_Asymmetry_Pilot,2022.1.3,Win32,59.96641881,62c50e9c1127f2cd403a315f,,,,,,,,,,,,,,,,,,,,,,,,,,,,,,,,,,,,,,,,,,,,,,,,,,,,,,,,,,,,,,,,,,,,,,,,,,,,,,,,,,,,,,,,,,,,,,,,,,,,,,,,,,,,,,,,,,,,,,,,,,,,,,,,,,,,,,,,,,,,,,,,,,,,,,,,,,,,,,,,,,,
,,,,,,611eb692e24d9c502523b4ba,62c53a5cf93e51d4ae53c7c8,2022-07-06_09h33.16.139,Colour_Asymmetry_Pilot,2022.1.3,Win32,59.96641881,62c50e9c1127f2cd403a315f,0,0,0,145,1,onethree,,,,,,,,,,,,,,,,,,,,,,,,,,,,,,,,,,,,,,,,,,,,,,,,,,,,,,,,,,,,,,,,,,,,,,,,,,,,,,,,,,,,,,,,,,,,,,,,,,,,,,,,,,,,,,,,,,,,,,,,,,,,,,,,,,,,,,,,,,,,,,,,,,,,,,,,,,,,,
,,,,,,611eb692e24d9c502523b4ba,62c53a5cf93e51d4ae53c7c8,2022-07-06_09h33.16.139,Colour_Asymmetry_Pilot,2022.1.3,Win32,59.96641881,62c50e9c1127f2cd403a315f,0,1,1,50,1,twoone,,,,,,,,,,,,,,,,,,,,,,,,,,,,,,,,,,,,,,,,,,,,,,,,,,,,,,,,,,,,,,,,,,,,,,,,,,,,,,,,,,,,,,,,,,,,,,,,,,,,,,,,,,,,,,,,,,,,,,,,,,,,,,,,,,,,,,,,,,,,,,,,,,,,,,,,,,,,,
,,,,,,611eb692e24d9c502523b4ba,62c53a5cf93e51d4ae53c7c8,2022-07-06_09h33.16.139,Colour_Asymmetry_Pilot,2022.1.3,Win32,59.96641881,62c50e9c1127f2cd403a315f,0,2,2,2,1,twoone,,,,,,,,,,,,,,,,,,,,,,,,,,,,,,,,,,,,,,,,,,,,,,,,,,,,,,,,,,,,,,,,,,,,,,,,,,,,,,,,,,,,,,,,,,,,,,,,,,,,,,,,,,,,,,,,,,,,,,,,,,,,,,,,,,,,,,,,,,,,,,,,,,,,,,,,,,,,,
,,,,,,611eb692e24d9c502523b4ba,62c53a5cf93e51d4ae53c7c8,2022-07-06_09h33.16.139,Colour_Asymmetry_Pilot,2022.1.3,Win32,59.96641881,62c50e9c1127f2cd403a315f,0,3,3,43,1,twofour,,,,,,,,,,,,,,,,,,,,,,,,,,,,,,,,,,,,,,,,,,,,,,,,,,,,,,,,,,,,,,,,,,,,,,,,,,,,,,,,,,,,,,,,,,,,,,,,,,,,,,,,,,,,,,,,,,,,,,,,,,,,,,,,,,,,,,,,,,,,,,,,,,,,,,,,,,,,,
,,,,,,611eb692e24d9c502523b4ba,62c53a5cf93e51d4ae53c7c8,2022-07-06_09h33.16.139,Colour_Asymmetry_Pilot,2022.1.3,Win32,59.96641881,62c50e9c1127f2cd403a315f,0,4,4,80,1,onetwo,,,,,,,,,,,,,,,,,,,,,,,,,,,,,,,,,,,,,,,,,,,,,,,,,,,,,,,,,,,,,,,,,,,,,,,,,,,,,,,,,,,,,,,,,,,,,,,,,,,,,,,,,,,,,,,,,,,,,,,,,,,,,,,,,,,,,,,,,,,,,,,,,,,,,,,,,,,,,
,,,,,,611eb692e24d9c502523b4ba,62c53a5cf93e51d4ae53c7c8,2022-07-06_09h33.16.139,Colour_Asymmetry_Pilot,2022.1.3,Win32,59.96641881,62c50e9c1127f2cd403a315f,0,5,5,98,1,twoone,,,,,,,,,,,,,,,,,,,,,,,,,,,,,,,,,,,,,,,,,,,,,,,,,,,,,,,,,,,,,,,,,,,,,,,,,,,,,,,,,,,,,,,,,,,,,,,,,,,,,,,,,,,,,,,,,,,,,,,,,,,,,,,,,,,,,,,,,,,,,,,,,,,,,,,,,,,,,
,,,,,,611eb692e24d9c502523b4ba,62c53a5cf93e51d4ae53c7c8,2022-07-06_09h33.16.139,Colour_Asymmetry_Pilot,2022.1.3,Win32,59.96641881,62c50e9c1127f2cd403a315f,0,6,6,100,1,threeone,,,,,,,,,,,,,,,,,,,,,,,,,,,,,,,,,,,,,,,,,,,,,,,,,,,,,,,,,,,,,,,,,,,,,,,,,,,,,,,,,,,,,,,,,,,,,,,,,,,,,,,,,,,,,,,,,,,,,,,,,,,,,,,,,,,,,,,,,,,,,,,,,,,,,,,,,,,,,
,,,,,,611eb692e24d9c502523b4ba,62c53a5cf93e51d4ae53c7c8,2022-07-06_09h33.16.139,Colour_Asymmetry_Pilot,2022.1.3,Win32,59.96641881,62c50e9c1127f2cd403a315f,0,7,7,101,1,threefour,,,,,,,,,,,,,,,,,,,,,,,,,,,,,,,,,,,,,,,,,,,,,,,,,,,,,,,,,,,,,,,,,,,,,,,,,,,,,,,,,,,,,,,,,,,,,,,,,,,,,,,,,,,,,,,,,,,,,,,,,,,,,,,,,,,,,,,,,,,,,,,,,,,,,,,,,,,,,
,,,,,,611eb692e24d9c502523b4ba,62c53a5cf93e51d4ae53c7c8,2022-07-06_09h33.16.139,Colour_Asymmetry_Pilot,2022.1.3,Win32,59.96641881,62c50e9c1127f2cd403a315f,0,8,8,113,1,onethree,,,,,,,,,,,,,,,,,,,,,,,,,,,,,,,,,,,,,,,,,,,,,,,,,,,,,,,,,,,,,,,,,,,,,,,,,,,,,,,,,,,,,,,,,,,,,,,,,,,,,,,,,,,,,,,,,,,,,,,,,,,,,,,,,,,,,,,,,,,,,,,,,,,,,,,,,,,,,
,,,,,,611eb692e24d9c502523b4ba,62c53a5cf93e51d4ae53c7c8,2022-07-06_09h33.16.139,Colour_Asymmetry_Pilot,2022.1.3,Win32,59.96641881,62c50e9c1127f2cd403a315f,0,9,9,28,1,threeone,,,,,,,,,,,,,,,,,,,,,,,,,,,,,,,,,,,,,,,,,,,,,,,,,,,,,,,,,,,,,,,,,,,,,,,,,,,,,,,,,,,,,,,,,,,,,,,,,,,,,,,,,,,,,,,,,,,,,,,,,,,,,,,,,,,,,,,,,,,,,,,,,,,,,,,,,,,,,
,,,,,,611eb692e24d9c502523b4ba,62c53a5cf93e51d4ae53c7c8,2022-07-06_09h33.16.139,Colour_Asymmetry_Pilot,2022.1.3,Win32,59.96641881,62c50e9c1127f2cd403a315f,0,10,10,29,1,threefour,,,,,,,,,,,,,,,,,,,,,,,,,,,,,,,,,,,,,,,,,,,,,,,,,,,,,,,,,,,,,,,,,,,,,,,,,,,,,,,,,,,,,,,,,,,,,,,,,,,,,,,,,,,,,,,,,,,,,,,,,,,,,,,,,,,,,,,,,,,,,,,,,,,,,,,,,,,,,
,,,,,,611eb692e24d9c502523b4ba,62c53a5cf93e51d4ae53c7c8,2022-07-06_09h33.16.139,Colour_Asymmetry_Pilot,2022.1.3,Win32,59.96641881,62c50e9c1127f2cd403a315f,0,11,11,19,1,twofour,,,,,,,,,,,,,,,,,,,,,,,,,,,,,,,,,,,,,,,,,,,,,,,,,,,,,,,,,,,,,,,,,,,,,,,,,,,,,,,,,,,,,,,,,,,,,,,,,,,,,,,,,,,,,,,,,,,,,,,,,,,,,,,,,,,,,,,,,,,,,,,,,,,,,,,,,,,,,
,,,,,,611eb692e24d9c502523b4ba,62c53a5cf93e51d4ae53c7c8,2022-07-06_09h33.16.139,Colour_Asymmetry_Pilot,2022.1.3,Win32,59.96641881,62c50e9c1127f2cd403a315f,0,12,12,36,1,threeone,,,,,,,,,,,,,,,,,,,,,,,,,,,,,,,,,,,,,,,,,,,,,,,,,,,,,,,,,,,,,,,,,,,,,,,,,,,,,,,,,,,,,,,,,,,,,,,,,,,,,,,,,,,,,,,,,,,,,,,,,,,,,,,,,,,,,,,,,,,,,,,,,,,,,,,,,,,,,
,,,,,,611eb692e24d9c502523b4ba,62c53a5cf93e51d4ae53c7c8,2022-07-06_09h33.16.139,Colour_Asymmetry_Pilot,2022.1.3,Win32,59.96641881,62c50e9c1127f2cd403a315f,0,13,13,62,1,fourtwo,,,,,,,,,,,,,,,,,,,,,,,,,,,,,,,,,,,,,,,,,,,,,,,,,,,,,,,,,,,,,,,,,,,,,,,,,,,,,,,,,,,,,,,,,,,,,,,,,,,,,,,,,,,,,,,,,,,,,,,,,,,,,,,,,,,,,,,,,,,,,,,,,,,,,,,,,,,,,
,,,,,,611eb692e24d9c502523b4ba,62c53a5cf93e51d4ae53c7c8,2022-07-06_09h33.16.139,Colour_Asymmetry_Pilot,2022.1.3,Win32,59.96641881,62c50e9c1127f2cd403a315f,0,14,14,122,1,twoone,,,,,,,,,,,,,,,,,,,,,,,,,,,,,,,,,,,,,,,,,,,,,,,,,,,,,,,,,,,,,,,,,,,,,,,,,,,,,,,,,,,,,,,,,,,,,,,,,,,,,,,,,,,,,,,,,,,,,,,,,,,,,,,,,,,,,,,,,,,,,,,,,,,,,,,,,,,,,
,,,,,,611eb692e24d9c502523b4ba,62c53a5cf93e51d4ae53c7c8,2022-07-06_09h33.16.139,Colour_Asymmetry_Pilot,2022.1.3,Win32,59.96641881,62c50e9c1127f2cd403a315f,0,15,15,121,1,onethree,,,,,,,,,,,,,,,,,,,,,,,,,,,,,,,,,,,,,,,,,,,,,,,,,,,,,,,,,,,,,,,,,,,,,,,,,,,,,,,,,,,,,,,,,,,,,,,,,,,,,,,,,,,,,,,,,,,,,,,,,,,,,,,,,,,,,,,,,,,,,,,,,,,,,,,,,,,,,
,,,,,,611eb692e24d9c502523b4ba,62c53a5cf93e51d4ae53c7c8,2022-07-06_09h33.16.139,Colour_Asymmetry_Pilot,2022.1.3,Win32,59.96641881,62c50e9c1127f2cd403a315f,0,16,16,42,1,twoone,,,,,,,,,,,,,,,,,,,,,,,,,,,,,,,,,,,,,,,,,,,,,,,,,,,,,,,,,,,,,,,,,,,,,,,,,,,,,,,,,,,,,,,,,,,,,,,,,,,,,,,,,,,,,,,,,,,,,,,,,,,,,,,,,,,,,,,,,,,,,,,,,,,,,,,,,,,,,
,,,,,,611eb692e24d9c502523b4ba,62c53a5cf93e51d4ae53c7c8,2022-07-06_09h33.16.139,Colour_Asymmetry_Pilot,2022.1.3,Win32,59.96641881,62c50e9c1127f2cd403a315f,0,17,17,128,1,onetwo,,,,,,,,,,,,,,,,,,,,,,,,,,,,,,,,,,,,,,,,,,,,,,,,,,,,,,,,,,,,,,,,,,,,,,,,,,,,,,,,,,,,,,,,,,,,,,,,,,,,,,,,,,,,,,,,,,,,,,,,,,,,,,,,,,,,,,,,,,,,,,,,,,,,,,,,,,,,,
,,,,,,611eb692e24d9c502523b4ba,62c53a5cf93e51d4ae53c7c8,2022-07-06_09h33.16.139,Colour_Asymmetry_Pilot,2022.1.3,Win32,59.96641881,62c50e9c1127f2cd403a315f,0,18,18,47,1,fourthree,,,,,,,,,,,,,,,,,,,,,,,,,,,,,,,,,,,,,,,,,,,,,,,,,,,,,,,,,,,,,,,,,,,,,,,,,,,,,,,,,,,,,,,,,,,,,,,,,,,,,,,,,,,,,,,,,,,,,,,,,,,,,,,,,,,,,,,,,,,,,,,,,,,,,,,,,,,,,
,,,,,,611eb692e24d9c502523b4ba,62c53a5cf93e51d4ae53c7c8,2022-07-06_09h33.16.139,Colour_Asymmetry_Pilot,2022.1.3,Win32,59.96641881,62c50e9c1127f2cd403a315f,0,19,19,10,1,twoone,,,,,,,,,,,,,,,,,,,,,,,,,,,,,,,,,,,,,,,,,,,,,,,,,,,,,,,,,,,,,,,,,,,,,,,,,,,,,,,,,,,,,,,,,,,,,,,,,,,,,,,,,,,,,,,,,,,,,,,,,,,,,,,,,,,,,,,,,,,,,,,,,,,,,,,,,,,,,
,,,,,,611eb692e24d9c502523b4ba,62c53a5cf93e51d4ae53c7c8,2022-07-06_09h33.16.139,Colour_Asymmetry_Pilot,2022.1.3,Win32,59.96641881,62c50e9c1127f2cd403a315f,0,20,20,57,1,onethree,,,,,,,,,,,,,,,,,,,,,,,,,,,,,,,,,,,,,,,,,,,,,,,,,,,,,,,,,,,,,,,,,,,,,,,,,,,,,,,,,,,,,,,,,,,,,,,,,,,,,,,,,,,,,,,,,,,,,,,,,,,,,,,,,,,,,,,,,,,,,,,,,,,,,,,,,,,,,
,,,,,,611eb692e24d9c502523b4ba,62c53a5cf93e51d4ae53c7c8,2022-07-06_09h33.16.139,Colour_Asymmetry_Pilot,2022.1.3,Win32,59.96641881,62c50e9c1127f2cd403a315f,0,21,21,136,1,onetwo,,,,,,,,,,,,,,,,,,,,,,,,,,,,,,,,,,,,,,,,,,,,,,,,,,,,,,,,,,,,,,,,,,,,,,,,,,,,,,,,,,,,,,,,,,,,,,,,,,,,,,,,,,,,,,,,,,,,,,,,,,,,,,,,,,,,,,,,,,,,,,,,,,,,,,,,,,,,,
,,,,,,611eb692e24d9c502523b4ba,62c53a5cf93e51d4ae53c7c8,2022-07-06_09h33.16.139,Colour_Asymmetry_Pilot,2022.1.3,Win32,59.96641881,62c50e9c1127f2cd403a315f,0,22,22,71,1,fourthree,,,,,,,,,,,,,,,,,,,,,,,,,,,,,,,,,,,,,,,,,,,,,,,,,,,,,,,,,,,,,,,,,,,,,,,,,,,,,,,,,,,,,,,,,,,,,,,,,,,,,,,,,,,,,,,,,,,,,,,,,,,,,,,,,,,,,,,,,,,,,,,,,,,,,,,,,,,,,
,,,,,,611eb692e24d9c502523b4ba,62c53a5cf93e51d4ae53c7c8,2022-07-06_09h33.16.139,Colour_Asymmetry_Pilot,2022.1.3,Win32,59.96641881,62c50e9c1127f2cd403a315f,0,23,23,105,1,onethree,,,,,,,,,,,,,,,,,,,,,,,,,,,,,,,,,,,,,,,,,,,,,,,,,,,,,,,,,,,,,,,,,,,,,,,,,,,,,,,,,,,,,,,,,,,,,,,,,,,,,,,,,,,,,,,,,,,,,,,,,,,,,,,,,,,,,,,,,,,,,,,,,,,,,,,,,,,,,
,,,,,,611eb692e24d9c502523b4ba,62c53a5cf93e51d4ae53c7c8,2022-07-06_09h33.16.139,Colour_Asymmetry_Pilot,2022.1.3,Win32,59.96641881,62c50e9c1127f2cd403a315f,0,24,24,137,1,onethree,,,,,,,,,,,,,,,,,,,,,,,,,,,,,,,,,,,,,,,,,,,,,,,,,,,,,,,,,,,,,,,,,,,,,,,,,,,,,,,,,,,,,,,,,,,,,,,,,,,,,,,,,,,,,,,,,,,,,,,,,,,,,,,,,,,,,,,,,,,,,,,,,,,,,,,,,,,,,
,,,,,,611eb692e24d9c502523b4ba,62c53a5cf93e51d4ae53c7c8,2022-07-06_09h33.16.139,Colour_Asymmetry_Pilot,2022.1.3,Win32,59.96641881,62c50e9c1127f2cd403a315f,0,25,25,0,1,onetwo,,,,,,,,,,,,,,,,,,,,,,,,,,,,,,,,,,,,,,,,,,,,,,,,,,,,,,,,,,,,,,,,,,,,,,,,,,,,,,,,,,,,,,,,,,,,,,,,,,,,,,,,,,,,,,,,,,,,,,,,,,,,,,,,,,,,,,,,,,,,,,,,,,,,,,,,,,,,,
,,,,,,611eb692e24d9c502523b4ba,62c53a5cf93e51d4ae53c7c8,2022-07-06_09h33.16.139,Colour_Asymmetry_Pilot,2022.1.3,Win32,59.96641881,62c50e9c1127f2cd403a315f,0,26,26,41,1,onethree,,,,,,,,,,,,,,,,,,,,,,,,,,,,,,,,,,,,,,,,,,,,,,,,,,,,,,,,,,,,,,,,,,,,,,,,,,,,,,,,,,,,,,,,,,,,,,,,,,,,,,,,,,,,,,,,,,,,,,,,,,,,,,,,,,,,,,,,,,,,,,,,,,,,,,,,,,,,,
,,,,,,611eb692e24d9c502523b4ba,62c53a5cf93e51d4ae53c7c8,2022-07-06_09h33.16.139,Colour_Asymmetry_Pilot,2022.1.3,Win32,59.96641881,62c50e9c1127f2cd403a315f,0,27,27,63,1,fourthree,,,,,,,,,,,,,,,,,,,,,,,,,,,,,,,,,,,,,,,,,,,,,,,,,,,,,,,,,,,,,,,,,,,,,,,,,,,,,,,,,,,,,,,,,,,,,,,,,,,,,,,,,,,,,,,,,,,,,,,,,,,,,,,,,,,,,,,,,,,,,,,,,,,,,,,,,,,,,
,,,,,,611eb692e24d9c502523b4ba,62c53a5cf93e51d4ae53c7c8,2022-07-06_09h33.16.139,Colour_Asymmetry_Pilot,2022.1.3,Win32,59.96641881,62c50e9c1127f2cd403a315f,0,28,28,138,1,twoone,,,,,,,,,,,,,,,,,,,,,,,,,,,,,,,,,,,,,,,,,,,,,,,,,,,,,,,,,,,,,,,,,,,,,,,,,,,,,,,,,,,,,,,,,,,,,,,,,,,,,,,,,,,,,,,,,,,,,,,,,,,,,,,,,,,,,,,,,,,,,,,,,,,,,,,,,,,,,
,,,,,,611eb692e24d9c502523b4ba,62c53a5cf93e51d4ae53c7c8,2022-07-06_09h33.16.139,Colour_Asymmetry_Pilot,2022.1.3,Win32,59.96641881,62c50e9c1127f2cd403a315f,0,29,29,49,1,onethree,,,,,,,,,,,,,,,,,,,,,,,,,,,,,,,,,,,,,,,,,,,,,,,,,,,,,,,,,,,,,,,,,,,,,,,,,,,,,,,,,,,,,,,,,,,,,,,,,,,,,,,,,,,,,,,,,,,,,,,,,,,,,,,,,,,,,,,,,,,,,,,,,,,,,,,,,,,,,
,,,,,,611eb692e24d9c502523b4ba,62c53a5cf93e51d4ae53c7c8,2022-07-06_09h33.16.139,Colour_Asymmetry_Pilot,2022.1.3,Win32,59.96641881,62c50e9c1127f2cd403a315f,0,30,30,84,1,threeone,,,,,,,,,,,,,,,,,,,,,,,,,,,,,,,,,,,,,,,,,,,,,,,,,,,,,,,,,,,,,,,,,,,,,,,,,,,,,,,,,,,,,,,,,,,,,,,,,,,,,,,,,,,,,,,,,,,,,,,,,,,,,,,,,,,,,,,,,,,,,,,,,,,,,,,,,,,,,
,,,,,,611eb692e24d9c502523b4ba,62c53a5cf93e51d4ae53c7c8,2022-07-06_09h33.16.139,Colour_Asymmetry_Pilot,2022.1.3,Win32,59.96641881,62c50e9c1127f2cd403a315f,0,31,31,130,1,twoone,,,,,,,,,,,,,,,,,,,,,,,,,,,,,,,,,,,,,,,,,,,,,,,,,,,,,,,,,,,,,,,,,,,,,,,,,,,,,,,,,,,,,,,,,,,,,,,,,,,,,,,,,,,,,,,,,,,,,,,,,,,,,,,,,,,,,,,,,,,,,,,,,,,,,,,,,,,,,
,,,,,,611eb692e24d9c502523b4ba,62c53a5cf93e51d4ae53c7c8,2022-07-06_09h33.16.139,Colour_Asymmetry_Pilot,2022.1.3,Win32,59.96641881,62c50e9c1127f2cd403a315f,0,32,32,156,1,threeone,,,,,,,,,,,,,,,,,,,,,,,,,,,,,,,,,,,,,,,,,,,,,,,,,,,,,,,,,,,,,,,,,,,,,,,,,,,,,,,,,,,,,,,,,,,,,,,,,,,,,,,,,,,,,,,,,,,,,,,,,,,,,,,,,,,,,,,,,,,,,,,,,,,,,,,,,,,,,
,,,,,,611eb692e24d9c502523b4ba,62c53a5cf93e51d4ae53c7c8,2022-07-06_09h33.16.139,Colour_Asymmetry_Pilot,2022.1.3,Win32,59.96641881,62c50e9c1127f2cd403a315f,0,33,33,76,1,threeone,,,,,,,,,,,,,,,,,,,,,,,,,,,,,,,,,,,,,,,,,,,,,,,,,,,,,,,,,,,,,,,,,,,,,,,,,,,,,,,,,,,,,,,,,,,,,,,,,,,,,,,,,,,,,,,,,,,,,,,,,,,,,,,,,,,,,,,,,,,,,,,,,,,,,,,,,,,,,
,,,,,,611eb692e24d9c502523b4ba,62c53a5cf93e51d4ae53c7c8,2022-07-06_09h33.16.139,Colour_Asymmetry_Pilot,2022.1.3,Win32,59.96641881,62c50e9c1127f2cd403a315f,0,34,34,118,1,fourtwo,,,,,,,,,,,,,,,,,,,,,,,,,,,,,,,,,,,,,,,,,,,,,,,,,,,,,,,,,,,,,,,,,,,,,,,,,,,,,,,,,,,,,,,,,,,,,,,,,,,,,,,,,,,,,,,,,,,,,,,,,,,,,,,,,,,,,,,,,,,,,,,,,,,,,,,,,,,,,
,,,,,,611eb692e24d9c502523b4ba,62c53a5cf93e51d4ae53c7c8,2022-07-06_09h33.16.139,Colour_Asymmetry_Pilot,2022.1.3,Win32,59.96641881,62c50e9c1127f2cd403a315f,0,35,35,12,1,threeone,,,,,,,,,,,,,,,,,,,,,,,,,,,,,,,,,,,,,,,,,,,,,,,,,,,,,,,,,,,,,,,,,,,,,,,,,,,,,,,,,,,,,,,,,,,,,,,,,,,,,,,,,,,,,,,,,,,,,,,,,,,,,,,,,,,,,,,,,,,,,,,,,,,,,,,,,,,,,
,,,,,,611eb692e24d9c502523b4ba,62c53a5cf93e51d4ae53c7c8,2022-07-06_09h33.16.139,Colour_Asymmetry_Pilot,2022.1.3,Win32,59.96641881,62c50e9c1127f2cd403a315f,0,36,36,135,1,fourthree,,,,,,,,,,,,,,,,,,,,,,,,,,,,,,,,,,,,,,,,,,,,,,,,,,,,,,,,,,,,,,,,,,,,,,,,,,,,,,,,,,,,,,,,,,,,,,,,,,,,,,,,,,,,,,,,,,,,,,,,,,,,,,,,,,,,,,,,,,,,,,,,,,,,,,,,,,,,,
,,,,,,611eb692e24d9c502523b4ba,62c53a5cf93e51d4ae53c7c8,2022-07-06_09h33.16.139,Colour_Asymmetry_Pilot,2022.1.3,Win32,59.96641881,62c50e9c1127f2cd403a315f,0,37,37,18,1,twoone,,,,,,,,,,,,,,,,,,,,,,,,,,,,,,,,,,,,,,,,,,,,,,,,,,,,,,,,,,,,,,,,,,,,,,,,,,,,,,,,,,,,,,,,,,,,,,,,,,,,,,,,,,,,,,,,,,,,,,,,,,,,,,,,,,,,,,,,,,,,,,,,,,,,,,,,,,,,,
,,,,,,611eb692e24d9c502523b4ba,62c53a5cf93e51d4ae53c7c8,2022-07-06_09h33.16.139,Colour_Asymmetry_Pilot,2022.1.3,Win32,59.96641881,62c50e9c1127f2cd403a315f,0,38,38,37,1,threefour,,,,,,,,,,,,,,,,,,,,,,,,,,,,,,,,,,,,,,,,,,,,,,,,,,,,,,,,,,,,,,,,,,,,,,,,,,,,,,,,,,,,,,,,,,,,,,,,,,,,,,,,,,,,,,,,,,,,,,,,,,,,,,,,,,,,,,,,,,,,,,,,,,,,,,,,,,,,,
,,,,,,611eb692e24d9c502523b4ba,62c53a5cf93e51d4ae53c7c8,2022-07-06_09h33.16.139,Colour_Asymmetry_Pilot,2022.1.3,Win32,59.96641881,62c50e9c1127f2cd403a315f,0,39,39,17,1,onethree,,,,,,,,,,,,,,,,,,,,,,,,,,,,,,,,,,,,,,,,,,,,,,,,,,,,,,,,,,,,,,,,,,,,,,,,,,,,,,,,,,,,,,,,,,,,,,,,,,,,,,,,,,,,,,,,,,,,,,,,,,,,,,,,,,,,,,,,,,,,,,,,,,,,,,,,,,,,,
,,,,,,611eb692e24d9c502523b4ba,62c53a5cf93e51d4ae53c7c8,2022-07-06_09h33.16.139,Colour_Asymmetry_Pilot,2022.1.3,Win32,59.96641881,62c50e9c1127f2cd403a315f,0,40,40,26,1,twoone,,,,,,,,,,,,,,,,,,,,,,,,,,,,,,,,,,,,,,,,,,,,,,,,,,,,,,,,,,,,,,,,,,,,,,,,,,,,,,,,,,,,,,,,,,,,,,,,,,,,,,,,,,,,,,,,,,,,,,,,,,,,,,,,,,,,,,,,,,,,,,,,,,,,,,,,,,,,,
,,,,,,611eb692e24d9c502523b4ba,62c53a5cf93e51d4ae53c7c8,2022-07-06_09h33.16.139,Colour_Asymmetry_Pilot,2022.1.3,Win32,59.96641881,62c50e9c1127f2cd403a315f,0,41,41,73,1,onethree,,,,,,,,,,,,,,,,,,,,,,,,,,,,,,,,,,,,,,,,,,,,,,,,,,,,,,,,,,,,,,,,,,,,,,,,,,,,,,,,,,,,,,,,,,,,,,,,,,,,,,,,,,,,,,,,,,,,,,,,,,,,,,,,,,,,,,,,,,,,,,,,,,,,,,,,,,,,,
,,,,,,611eb692e24d9c502523b4ba,62c53a5cf93e51d4ae53c7c8,2022-07-06_09h33.16.139,Colour_Asymmetry_Pilot,2022.1.3,Win32,59.96641881,62c50e9c1127f2cd403a315f,0,42,42,59,1,twofour,,,,,,,,,,,,,,,,,,,,,,,,,,,,,,,,,,,,,,,,,,,,,,,,,,,,,,,,,,,,,,,,,,,,,,,,,,,,,,,,,,,,,,,,,,,,,,,,,,,,,,,,,,,,,,,,,,,,,,,,,,,,,,,,,,,,,,,,,,,,,,,,,,,,,,,,,,,,,
,,,,,,611eb692e24d9c502523b4ba,62c53a5cf93e51d4ae53c7c8,2022-07-06_09h33.16.139,Colour_Asymmetry_Pilot,2022.1.3,Win32,59.96641881,62c50e9c1127f2cd403a315f,0,43,43,94,1,fourtwo,,,,,,,,,,,,,,,,,,,,,,,,,,,,,,,,,,,,,,,,,,,,,,,,,,,,,,,,,,,,,,,,,,,,,,,,,,,,,,,,,,,,,,,,,,,,,,,,,,,,,,,,,,,,,,,,,,,,,,,,,,,,,,,,,,,,,,,,,,,,,,,,,,,,,,,,,,,,,
,,,,,,611eb692e24d9c502523b4ba,62c53a5cf93e51d4ae53c7c8,2022-07-06_09h33.16.139,Colour_Asymmetry_Pilot,2022.1.3,Win32,59.96641881,62c50e9c1127f2cd403a315f,0,44,44,77,1,threefour,,,,,,,,,,,,,,,,,,,,,,,,,,,,,,,,,,,,,,,,,,,,,,,,,,,,,,,,,,,,,,,,,,,,,,,,,,,,,,,,,,,,,,,,,,,,,,,,,,,,,,,,,,,,,,,,,,,,,,,,,,,,,,,,,,,,,,,,,,,,,,,,,,,,,,,,,,,,,
,,,,,,611eb692e24d9c502523b4ba,62c53a5cf93e51d4ae53c7c8,2022-07-06_09h33.16.139,Colour_Asymmetry_Pilot,2022.1.3,Win32,59.96641881,62c50e9c1127f2cd403a315f,0,45,45,67,1,twofour,,,,,,,,,,,,,,,,,,,,,,,,,,,,,,,,,,,,,,,,,,,,,,,,,,,,,,,,,,,,,,,,,,,,,,,,,,,,,,,,,,,,,,,,,,,,,,,,,,,,,,,,,,,,,,,,,,,,,,,,,,,,,,,,,,,,,,,,,,,,,,,,,,,,,,,,,,,,,
,,,,,,611eb692e24d9c502523b4ba,62c53a5cf93e51d4ae53c7c8,2022-07-06_09h33.16.139,Colour_Asymmetry_Pilot,2022.1.3,Win32,59.96641881,62c50e9c1127f2cd403a315f,0,46,46,11,1,twofour,,,,,,,,,,,,,,,,,,,,,,,,,,,,,,,,,,,,,,,,,,,,,,,,,,,,,,,,,,,,,,,,,,,,,,,,,,,,,,,,,,,,,,,,,,,,,,,,,,,,,,,,,,,,,,,,,,,,,,,,,,,,,,,,,,,,,,,,,,,,,,,,,,,,,,,,,,,,,
,,,,,,611eb692e24d9c502523b4ba,62c53a5cf93e51d4ae53c7c8,2022-07-06_09h33.16.139,Colour_Asymmetry_Pilot,2022.1.3,Win32,59.96641881,62c50e9c1127f2cd403a315f,0,47,47,159,1,fourthree,,,,,,,,,,,,,,,,,,,,,,,,,,,,,,,,,,,,,,,,,,,,,,,,,,,,,,,,,,,,,,,,,,,,,,,,,,,,,,,,,,,,,,,,,,,,,,,,,,,,,,,,,,,,,,,,,,,,,,,,,,,,,,,,,,,,,,,,,,,,,,,,,,,,,,,,,,,,,
,,,,,,611eb692e24d9c502523b4ba,62c53a5cf93e51d4ae53c7c8,2022-07-06_09h33.16.139,Colour_Asymmetry_Pilot,2022.1.3,Win32,59.96641881,62c50e9c1127f2cd403a315f,0,48,48,64,1,onetwo,,,,,,,,,,,,,,,,,,,,,,,,,,,,,,,,,,,,,,,,,,,,,,,,,,,,,,,,,,,,,,,,,,,,,,,,,,,,,,,,,,,,,,,,,,,,,,,,,,,,,,,,,,,,,,,,,,,,,,,,,,,,,,,,,,,,,,,,,,,,,,,,,,,,,,,,,,,,,
,,,,,,611eb692e24d9c502523b4ba,62c53a5cf93e51d4ae53c7c8,2022-07-06_09h33.16.139,Colour_Asymmetry_Pilot,2022.1.3,Win32,59.96641881,62c50e9c1127f2cd403a315f,0,49,49,133,1,threefour,,,,,,,,,,,,,,,,,,,,,,,,,,,,,,,,,,,,,,,,,,,,,,,,,,,,,,,,,,,,,,,,,,,,,,,,,,,,,,,,,,,,,,,,,,,,,,,,,,,,,,,,,,,,,,,,,,,,,,,,,,,,,,,,,,,,,,,,,,,,,,,,,,,,,,,,,,,,,
,,,,,,611eb692e24d9c502523b4ba,62c53a5cf93e51d4ae53c7c8,2022-07-06_09h33.16.139,Colour_Asymmetry_Pilot,2022.1.3,Win32,59.96641881,62c50e9c1127f2cd403a315f,0,50,50,92,1,threeone,,,,,,,,,,,,,,,,,,,,,,,,,,,,,,,,,,,,,,,,,,,,,,,,,,,,,,,,,,,,,,,,,,,,,,,,,,,,,,,,,,,,,,,,,,,,,,,,,,,,,,,,,,,,,,,,,,,,,,,,,,,,,,,,,,,,,,,,,,,,,,,,,,,,,,,,,,,,,
,,,,,,611eb692e24d9c502523b4ba,62c53a5cf93e51d4ae53c7c8,2022-07-06_09h33.16.139,Colour_Asymmetry_Pilot,2022.1.3,Win32,59.96641881,62c50e9c1127f2cd403a315f,0,51,51,148,1,threeone,,,,,,,,,,,,,,,,,,,,,,,,,,,,,,,,,,,,,,,,,,,,,,,,,,,,,,,,,,,,,,,,,,,,,,,,,,,,,,,,,,,,,,,,,,,,,,,,,,,,,,,,,,,,,,,,,,,,,,,,,,,,,,,,,,,,,,,,,,,,,,,,,,,,,,,,,,,,,
,,,,,,611eb692e24d9c502523b4ba,62c53a5cf93e51d4ae53c7c8,2022-07-06_09h33.16.139,Colour_Asymmetry_Pilot,2022.1.3,Win32,59.96641881,62c50e9c1127f2cd403a315f,0,52,52,89,1,onethree,,,,,,,,,,,,,,,,,,,,,,,,,,,,,,,,,,,,,,,,,,,,,,,,,,,,,,,,,,,,,,,,,,,,,,,,,,,,,,,,,,,,,,,,,,,,,,,,,,,,,,,,,,,,,,,,,,,,,,,,,,,,,,,,,,,,,,,,,,,,,,,,,,,,,,,,,,,,,
,,,,,,611eb692e24d9c502523b4ba,62c53a5cf93e51d4ae53c7c8,2022-07-06_09h33.16.139,Colour_Asymmetry_Pilot,2022.1.3,Win32,59.96641881,62c50e9c1127f2cd403a315f,0,53,53,108,1,threeone,,,,,,,,,,,,,,,,,,,,,,,,,,,,,,,,,,,,,,,,,,,,,,,,,,,,,,,,,,,,,,,,,,,,,,,,,,,,,,,,,,,,,,,,,,,,,,,,,,,,,,,,,,,,,,,,,,,,,,,,,,,,,,,,,,,,,,,,,,,,,,,,,,,,,,,,,,,,,
,,,,,,611eb692e24d9c502523b4ba,62c53a5cf93e51d4ae53c7c8,2022-07-06_09h33.16.139,Colour_Asymmetry_Pilot,2022.1.3,Win32,59.96641881,62c50e9c1127f2cd403a315f,0,54,54,95,1,fourthree,,,,,,,,,,,,,,,,,,,,,,,,,,,,,,,,,,,,,,,,,,,,,,,,,,,,,,,,,,,,,,,,,,,,,,,,,,,,,,,,,,,,,,,,,,,,,,,,,,,,,,,,,,,,,,,,,,,,,,,,,,,,,,,,,,,,,,,,,,,,,,,,,,,,,,,,,,,,,
,,,,,,611eb692e24d9c502523b4ba,62c53a5cf93e51d4ae53c7c8,2022-07-06_09h33.16.139,Colour_Asymmetry_Pilot,2022.1.3,Win32,59.96641881,62c50e9c1127f2cd403a315f,0,55,55,60,1,threeone,,,,,,,,,,,,,,,,,,,,,,,,,,,,,,,,,,,,,,,,,,,,,,,,,,,,,,,,,,,,,,,,,,,,,,,,,,,,,,,,,,,,,,,,,,,,,,,,,,,,,,,,,,,,,,,,,,,,,,,,,,,,,,,,,,,,,,,,,,,,,,,,,,,,,,,,,,,,,
,,,,,,611eb692e24d9c502523b4ba,62c53a5cf93e51d4ae53c7c8,2022-07-06_09h33.16.139,Colour_Asymmetry_Pilot,2022.1.3,Win32,59.96641881,62c50e9c1127f2cd403a315f,0,56,56,7,1,fourthree,,,,,,,,,,,,,,,,,,,,,,,,,,,,,,,,,,,,,,,,,,,,,,,,,,,,,,,,,,,,,,,,,,,,,,,,,,,,,,,,,,,,,,,,,,,,,,,,,,,,,,,,,,,,,,,,,,,,,,,,,,,,,,,,,,,,,,,,,,,,,,,,,,,,,,,,,,,,,
,,,,,,611eb692e24d9c502523b4ba,62c53a5cf93e51d4ae53c7c8,2022-07-06_09h33.16.139,Colour_Asymmetry_Pilot,2022.1.3,Win32,59.96641881,62c50e9c1127f2cd403a315f,0,57,57,79,1,fourthree,,,,,,,,,,,,,,,,,,,,,,,,,,,,,,,,,,,,,,,,,,,,,,,,,,,,,,,,,,,,,,,,,,,,,,,,,,,,,,,,,,,,,,,,,,,,,,,,,,,,,,,,,,,,,,,,,,,,,,,,,,,,,,,,,,,,,,,,,,,,,,,,,,,,,,,,,,,,,
,,,,,,611eb692e24d9c502523b4ba,62c53a5cf93e51d4ae53c7c8,2022-07-06_09h33.16.139,Colour_Asymmetry_Pilot,2022.1.3,Win32,59.96641881,62c50e9c1127f2cd403a315f,0,58,58,93,1,threefour,,,,,,,,,,,,,,,,,,,,,,,,,,,,,,,,,,,,,,,,,,,,,,,,,,,,,,,,,,,,,,,,,,,,,,,,,,,,,,,,,,,,,,,,,,,,,,,,,,,,,,,,,,,,,,,,,,,,,,,,,,,,,,,,,,,,,,,,,,,,,,,,,,,,,,,,,,,,,
,,,,,,611eb692e24d9c502523b4ba,62c53a5cf93e51d4ae53c7c8,2022-07-06_09h33.16.139,Colour_Asymmetry_Pilot,2022.1.3,Win32,59.96641881,62c50e9c1127f2cd403a315f,0,59,59,154,1,twoone,,,,,,,,,,,,,,,,,,,,,,,,,,,,,,,,,,,,,,,,,,,,,,,,,,,,,,,,,,,,,,,,,,,,,,,,,,,,,,,,,,,,,,,,,,,,,,,,,,,,,,,,,,,,,,,,,,,,,,,,,,,,,,,,,,,,,,,,,,,,,,,,,,,,,,,,,,,,,
,,,,,,611eb692e24d9c502523b4ba,62c53a5cf93e51d4ae53c7c8,2022-07-06_09h33.16.139,Colour_Asymmetry_Pilot,2022.1.3,Win32,59.96641881,62c50e9c1127f2cd403a315f,0,60,60,83,1,twofour,,,,,,,,,,,,,,,,,,,,,,,,,,,,,,,,,,,,,,,,,,,,,,,,,,,,,,,,,,,,,,,,,,,,,,,,,,,,,,,,,,,,,,,,,,,,,,,,,,,,,,,,,,,,,,,,,,,,,,,,,,,,,,,,,,,,,,,,,,,,,,,,,,,,,,,,,,,,,
,,,,,,611eb692e24d9c502523b4ba,62c53a5cf93e51d4ae53c7c8,2022-07-06_09h33.16.139,Colour_Asymmetry_Pilot,2022.1.3,Win32,59.96641881,62c50e9c1127f2cd403a315f,0,61,61,55,1,fourthree,,,,,,,,,,,,,,,,,,,,,,,,,,,,,,,,,,,,,,,,,,,,,,,,,,,,,,,,,,,,,,,,,,,,,,,,,,,,,,,,,,,,,,,,,,,,,,,,,,,,,,,,,,,,,,,,,,,,,,,,,,,,,,,,,,,,,,,,,,,,,,,,,,,,,,,,,,,,,
,,,,,,611eb692e24d9c502523b4ba,62c53a5cf93e51d4ae53c7c8,2022-07-06_09h33.16.139,Colour_Asymmetry_Pilot,2022.1.3,Win32,59.96641881,62c50e9c1127f2cd403a315f,0,62,62,144,1,onetwo,,,,,,,,,,,,,,,,,,,,,,,,,,,,,,,,,,,,,,,,,,,,,,,,,,,,,,,,,,,,,,,,,,,,,,,,,,,,,,,,,,,,,,,,,,,,,,,,,,,,,,,,,,,,,,,,,,,,,,,,,,,,,,,,,,,,,,,,,,,,,,,,,,,,,,,,,,,,,
,,,,,,611eb692e24d9c502523b4ba,62c53a5cf93e51d4ae53c7c8,2022-07-06_09h33.16.139,Colour_Asymmetry_Pilot,2022.1.3,Win32,59.96641881,62c50e9c1127f2cd403a315f,0,63,63,152,1,onetwo,,,,,,,,,,,,,,,,,,,,,,,,,,,,,,,,,,,,,,,,,,,,,,,,,,,,,,,,,,,,,,,,,,,,,,,,,,,,,,,,,,,,,,,,,,,,,,,,,,,,,,,,,,,,,,,,,,,,,,,,,,,,,,,,,,,,,,,,,,,,,,,,,,,,,,,,,,,,,
,,,,,,611eb692e24d9c502523b4ba,62c53a5cf93e51d4ae53c7c8,2022-07-06_09h33.16.139,Colour_Asymmetry_Pilot,2022.1.3,Win32,59.96641881,62c50e9c1127f2cd403a315f,0,64,64,33,1,onethree,,,,,,,,,,,,,,,,,,,,,,,,,,,,,,,,,,,,,,,,,,,,,,,,,,,,,,,,,,,,,,,,,,,,,,,,,,,,,,,,,,,,,,,,,,,,,,,,,,,,,,,,,,,,,,,,,,,,,,,,,,,,,,,,,,,,,,,,,,,,,,,,,,,,,,,,,,,,,
,,,,,,611eb692e24d9c502523b4ba,62c53a5cf93e51d4ae53c7c8,2022-07-06_09h33.16.139,Colour_Asymmetry_Pilot,2022.1.3,Win32,59.96641881,62c50e9c1127f2cd403a315f,0,65,65,151,1,fourthree,,,,,,,,,,,,,,,,,,,,,,,,,,,,,,,,,,,,,,,,,,,,,,,,,,,,,,,,,,,,,,,,,,,,,,,,,,,,,,,,,,,,,,,,,,,,,,,,,,,,,,,,,,,,,,,,,,,,,,,,,,,,,,,,,,,,,,,,,,,,,,,,,,,,,,,,,,,,,
,,,,,,611eb692e24d9c502523b4ba,62c53a5cf93e51d4ae53c7c8,2022-07-06_09h33.16.139,Colour_Asymmetry_Pilot,2022.1.3,Win32,59.96641881,62c50e9c1127f2cd403a315f,0,66,66,58,1,twoone,,,,,,,,,,,,,,,,,,,,,,,,,,,,,,,,,,,,,,,,,,,,,,,,,,,,,,,,,,,,,,,,,,,,,,,,,,,,,,,,,,,,,,,,,,,,,,,,,,,,,,,,,,,,,,,,,,,,,,,,,,,,,,,,,,,,,,,,,,,,,,,,,,,,,,,,,,,,,
,,,,,,611eb692e24d9c502523b4ba,62c53a5cf93e51d4ae53c7c8,2022-07-06_09h33.16.139,Colour_Asymmetry_Pilot,2022.1.3,Win32,59.96641881,62c50e9c1127f2cd403a315f,0,67,67,114,1,twoone,,,,,,,,,,,,,,,,,,,,,,,,,,,,,,,,,,,,,,,,,,,,,,,,,,,,,,,,,,,,,,,,,,,,,,,,,,,,,,,,,,,,,,,,,,,,,,,,,,,,,,,,,,,,,,,,,,,,,,,,,,,,,,,,,,,,,,,,,,,,,,,,,,,,,,,,,,,,,
,,,,,,611eb692e24d9c502523b4ba,62c53a5cf93e51d4ae53c7c8,2022-07-06_09h33.16.139,Colour_Asymmetry_Pilot,2022.1.3,Win32,59.96641881,62c50e9c1127f2cd403a315f,0,68,68,160,1,onetwo,,,,,,,,,,,,,,,,,,,,,,,,,,,,,,,,,,,,,,,,,,,,,,,,,,,,,,,,,,,,,,,,,,,,,,,,,,,,,,,,,,,,,,,,,,,,,,,,,,,,,,,,,,,,,,,,,,,,,,,,,,,,,,,,,,,,,,,,,,,,,,,,,,,,,,,,,,,,,
,,,,,,611eb692e24d9c502523b4ba,62c53a5cf93e51d4ae53c7c8,2022-07-06_09h33.16.139,Colour_Asymmetry_Pilot,2022.1.3,Win32,59.96641881,62c50e9c1127f2cd403a315f,0,69,69,149,1,threefour,,,,,,,,,,,,,,,,,,,,,,,,,,,,,,,,,,,,,,,,,,,,,,,,,,,,,,,,,,,,,,,,,,,,,,,,,,,,,,,,,,,,,,,,,,,,,,,,,,,,,,,,,,,,,,,,,,,,,,,,,,,,,,,,,,,,,,,,,,,,,,,,,,,,,,,,,,,,,
,,,,,,611eb692e24d9c502523b4ba,62c53a5cf93e51d4ae53c7c8,2022-07-06_09h33.16.139,Colour_Asymmetry_Pilot,2022.1.3,Win32,59.96641881,62c50e9c1127f2cd403a315f,0,70,70,103,1,fourthree,,,,,,,,,,,,,,,,,,,,,,,,,,,,,,,,,,,,,,,,,,,,,,,,,,,,,,,,,,,,,,,,,,,,,,,,,,,,,,,,,,,,,,,,,,,,,,,,,,,,,,,,,,,,,,,,,,,,,,,,,,,,,,,,,,,,,,,,,,,,,,,,,,,,,,,,,,,,,
,,,,,,611eb692e24d9c502523b4ba,62c53a5cf93e51d4ae53c7c8,2022-07-06_09h33.16.139,Colour_Asymmetry_Pilot,2022.1.3,Win32,59.96641881,62c50e9c1127f2cd403a315f,0,71,71,139,1,twofour,,,,,,,,,,,,,,,,,,,,,,,,,,,,,,,,,,,,,,,,,,,,,,,,,,,,,,,,,,,,,,,,,,,,,,,,,,,,,,,,,,,,,,,,,,,,,,,,,,,,,,,,,,,,,,,,,,,,,,,,,,,,,,,,,,,,,,,,,,,,,,,,,,,,,,,,,,,,,
,,,,,,611eb692e24d9c502523b4ba,62c53a5cf93e51d4ae53c7c8,2022-07-06_09h33.16.139,Colour_Asymmetry_Pilot,2022.1.3,Win32,59.96641881,62c50e9c1127f2cd403a315f,0,72,72,21,1,threefour,,,,,,,,,,,,,,,,,,,,,,,,,,,,,,,,,,,,,,,,,,,,,,,,,,,,,,,,,,,,,,,,,,,,,,,,,,,,,,,,,,,,,,,,,,,,,,,,,,,,,,,,,,,,,,,,,,,,,,,,,,,,,,,,,,,,,,,,,,,,,,,,,,,,,,,,,,,,,
,,,,,,611eb692e24d9c502523b4ba,62c53a5cf93e51d4ae53c7c8,2022-07-06_09h33.16.139,Colour_Asymmetry_Pilot,2022.1.3,Win32,59.96641881,62c50e9c1127f2cd403a315f,0,73,73,39,1,fourthree,,,,,,,,,,,,,,,,,,,,,,,,,,,,,,,,,,,,,,,,,,,,,,,,,,,,,,,,,,,,,,,,,,,,,,,,,,,,,,,,,,,,,,,,,,,,,,,,,,,,,,,,,,,,,,,,,,,,,,,,,,,,,,,,,,,,,,,,,,,,,,,,,,,,,,,,,,,,,
,,,,,,611eb692e24d9c502523b4ba,62c53a5cf93e51d4ae53c7c8,2022-07-06_09h33.16.139,Colour_Asymmetry_Pilot,2022.1.3,Win32,59.96641881,62c50e9c1127f2cd403a315f,0,74,74,20,1,threeone,,,,,,,,,,,,,,,,,,,,,,,,,,,,,,,,,,,,,,,,,,,,,,,,,,,,,,,,,,,,,,,,,,,,,,,,,,,,,,,,,,,,,,,,,,,,,,,,,,,,,,,,,,,,,,,,,,,,,,,,,,,,,,,,,,,,,,,,,,,,,,,,,,,,,,,,,,,,,
,,,,,,611eb692e24d9c502523b4ba,62c53a5cf93e51d4ae53c7c8,2022-07-06_09h33.16.139,Colour_Asymmetry_Pilot,2022.1.3,Win32,59.96641881,62c50e9c1127f2cd403a315f,0,75,75,70,1,fourtwo,,,,,,,,,,,,,,,,,,,,,,,,,,,,,,,,,,,,,,,,,,,,,,,,,,,,,,,,,,,,,,,,,,,,,,,,,,,,,,,,,,,,,,,,,,,,,,,,,,,,,,,,,,,,,,,,,,,,,,,,,,,,,,,,,,,,,,,,,,,,,,,,,,,,,,,,,,,,,
,,,,,,611eb692e24d9c502523b4ba,62c53a5cf93e51d4ae53c7c8,2022-07-06_09h33.16.139,Colour_Asymmetry_Pilot,2022.1.3,Win32,59.96641881,62c50e9c1127f2cd403a315f,0,76,76,161,1,onethree,,,,,,,,,,,,,,,,,,,,,,,,,,,,,,,,,,,,,,,,,,,,,,,,,,,,,,,,,,,,,,,,,,,,,,,,,,,,,,,,,,,,,,,,,,,,,,,,,,,,,,,,,,,,,,,,,,,,,,,,,,,,,,,,,,,,,,,,,,,,,,,,,,,,,,,,,,,,,
,,,,,,611eb692e24d9c502523b4ba,62c53a5cf93e51d4ae53c7c8,2022-07-06_09h33.16.139,Colour_Asymmetry_Pilot,2022.1.3,Win32,59.96641881,62c50e9c1127f2cd403a315f,0,77,77,86,1,fourtwo,,,,,,,,,,,,,,,,,,,,,,,,,,,,,,,,,,,,,,,,,,,,,,,,,,,,,,,,,,,,,,,,,,,,,,,,,,,,,,,,,,,,,,,,,,,,,,,,,,,,,,,,,,,,,,,,,,,,,,,,,,,,,,,,,,,,,,,,,,,,,,,,,,,,,,,,,,,,,
,,,,,,611eb692e24d9c502523b4ba,62c53a5cf93e51d4ae53c7c8,2022-07-06_09h33.16.139,Colour_Asymmetry_Pilot,2022.1.3,Win32,59.96641881,62c50e9c1127f2cd403a315f,0,78,78,119,1,fourthree,,,,,,,,,,,,,,,,,,,,,,,,,,,,,,,,,,,,,,,,,,,,,,,,,,,,,,,,,,,,,,,,,,,,,,,,,,,,,,,,,,,,,,,,,,,,,,,,,,,,,,,,,,,,,,,,,,,,,,,,,,,,,,,,,,,,,,,,,,,,,,,,,,,,,,,,,,,,,
,,,,,,611eb692e24d9c502523b4ba,62c53a5cf93e51d4ae53c7c8,2022-07-06_09h33.16.139,Colour_Asymmetry_Pilot,2022.1.3,Win32,59.96641881,62c50e9c1127f2cd403a315f,0,79,79,106,1,twoone,,,,,,,,,,,,,,,,,,,,,,,,,,,,,,,,,,,,,,,,,,,,,,,,,,,,,,,,,,,,,,,,,,,,,,,,,,,,,,,,,,,,,,,,,,,,,,,,,,,,,,,,,,,,,,,,,,,,,,,,,,,,,,,,,,,,,,,,,,,,,,,,,,,,,,,,,,,,,
,,,,,,611eb692e24d9c502523b4ba,62c53a5cf93e51d4ae53c7c8,2022-07-06_09h33.16.139,Colour_Asymmetry_Pilot,2022.1.3,Win32,59.96641881,62c50e9c1127f2cd403a315f,0,80,80,127,1,fourthree,,,,,,,,,,,,,,,,,,,,,,,,,,,,,,,,,,,,,,,,,,,,,,,,,,,,,,,,,,,,,,,,,,,,,,,,,,,,,,,,,,,,,,,,,,,,,,,,,,,,,,,,,,,,,,,,,,,,,,,,,,,,,,,,,,,,,,,,,,,,,,,,,,,,,,,,,,,,,
,,,,,,611eb692e24d9c502523b4ba,62c53a5cf93e51d4ae53c7c8,2022-07-06_09h33.16.139,Colour_Asymmetry_Pilot,2022.1.3,Win32,59.96641881,62c50e9c1127f2cd403a315f,0,81,81,14,1,fourtwo,,,,,,,,,,,,,,,,,,,,,,,,,,,,,,,,,,,,,,,,,,,,,,,,,,,,,,,,,,,,,,,,,,,,,,,,,,,,,,,,,,,,,,,,,,,,,,,,,,,,,,,,,,,,,,,,,,,,,,,,,,,,,,,,,,,,,,,,,,,,,,,,,,,,,,,,,,,,,
,,,,,,611eb692e24d9c502523b4ba,62c53a5cf93e51d4ae53c7c8,2022-07-06_09h33.16.139,Colour_Asymmetry_Pilot,2022.1.3,Win32,59.96641881,62c50e9c1127f2cd403a315f,0,82,82,96,1,onetwo,,,,,,,,,,,,,,,,,,,,,,,,,,,,,,,,,,,,,,,,,,,,,,,,,,,,,,,,,,,,,,,,,,,,,,,,,,,,,,,,,,,,,,,,,,,,,,,,,,,,,,,,,,,,,,,,,,,,,,,,,,,,,,,,,,,,,,,,,,,,,,,,,,,,,,,,,,,,,
,,,,,,611eb692e24d9c502523b4ba,62c53a5cf93e51d4ae53c7c8,2022-07-06_09h33.16.139,Colour_Asymmetry_Pilot,2022.1.3,Win32,59.96641881,62c50e9c1127f2cd403a315f,0,83,83,131,1,twofour,,,,,,,,,,,,,,,,,,,,,,,,,,,,,,,,,,,,,,,,,,,,,,,,,,,,,,,,,,,,,,,,,,,,,,,,,,,,,,,,,,,,,,,,,,,,,,,,,,,,,,,,,,,,,,,,,,,,,,,,,,,,,,,,,,,,,,,,,,,,,,,,,,,,,,,,,,,,,
,,,,,,611eb692e24d9c502523b4ba,62c53a5cf93e51d4ae53c7c8,2022-07-06_09h33.16.139,Colour_Asymmetry_Pilot,2022.1.3,Win32,59.96641881,62c50e9c1127f2cd403a315f,0,84,84,68,1,threeone,,,,,,,,,,,,,,,,,,,,,,,,,,,,,,,,,,,,,,,,,,,,,,,,,,,,,,,,,,,,,,,,,,,,,,,,,,,,,,,,,,,,,,,,,,,,,,,,,,,,,,,,,,,,,,,,,,,,,,,,,,,,,,,,,,,,,,,,,,,,,,,,,,,,,,,,,,,,,
,,,,,,611eb692e24d9c502523b4ba,62c53a5cf93e51d4ae53c7c8,2022-07-06_09h33.16.139,Colour_Asymmetry_Pilot,2022.1.3,Win32,59.96641881,62c50e9c1127f2cd403a315f,0,85,85,4,1,threeone,,,,,,,,,,,,,,,,,,,,,,,,,,,,,,,,,,,,,,,,,,,,,,,,,,,,,,,,,,,,,,,,,,,,,,,,,,,,,,,,,,,,,,,,,,,,,,,,,,,,,,,,,,,,,,,,,,,,,,,,,,,,,,,,,,,,,,,,,,,,,,,,,,,,,,,,,,,,,
,,,,,,611eb692e24d9c502523b4ba,62c53a5cf93e51d4ae53c7c8,2022-07-06_09h33.16.139,Colour_Asymmetry_Pilot,2022.1.3,Win32,59.96641881,62c50e9c1127f2cd403a315f,0,86,86,104,1,onetwo,,,,,,,,,,,,,,,,,,,,,,,,,,,,,,,,,,,,,,,,,,,,,,,,,,,,,,,,,,,,,,,,,,,,,,,,,,,,,,,,,,,,,,,,,,,,,,,,,,,,,,,,,,,,,,,,,,,,,,,,,,,,,,,,,,,,,,,,,,,,,,,,,,,,,,,,,,,,,
,,,,,,611eb692e24d9c502523b4ba,62c53a5cf93e51d4ae53c7c8,2022-07-06_09h33.16.139,Colour_Asymmetry_Pilot,2022.1.3,Win32,59.96641881,62c50e9c1127f2cd403a315f,0,87,87,38,1,fourtwo,,,,,,,,,,,,,,,,,,,,,,,,,,,,,,,,,,,,,,,,,,,,,,,,,,,,,,,,,,,,,,,,,,,,,,,,,,,,,,,,,,,,,,,,,,,,,,,,,,,,,,,,,,,,,,,,,,,,,,,,,,,,,,,,,,,,,,,,,,,,,,,,,,,,,,,,,,,,,
,,,,,,611eb692e24d9c502523b4ba,62c53a5cf93e51d4ae53c7c8,2022-07-06_09h33.16.139,Colour_Asymmetry_Pilot,2022.1.3,Win32,59.96641881,62c50e9c1127f2cd403a315f,0,88,88,45,1,threefour,,,,,,,,,,,,,,,,,,,,,,,,,,,,,,,,,,,,,,,,,,,,,,,,,,,,,,,,,,,,,,,,,,,,,,,,,,,,,,,,,,,,,,,,,,,,,,,,,,,,,,,,,,,,,,,,,,,,,,,,,,,,,,,,,,,,,,,,,,,,,,,,,,,,,,,,,,,,,
,,,,,,611eb692e24d9c502523b4ba,62c53a5cf93e51d4ae53c7c8,2022-07-06_09h33.16.139,Colour_Asymmetry_Pilot,2022.1.3,Win32,59.96641881,62c50e9c1127f2cd403a315f,0,89,89,125,1,threefour,,,,,,,,,,,,,,,,,,,,,,,,,,,,,,,,,,,,,,,,,,,,,,,,,,,,,,,,,,,,,,,,,,,,,,,,,,,,,,,,,,,,,,,,,,,,,,,,,,,,,,,,,,,,,,,,,,,,,,,,,,,,,,,,,,,,,,,,,,,,,,,,,,,,,,,,,,,,,
,,,,,,611eb692e24d9c502523b4ba,62c53a5cf93e51d4ae53c7c8,2022-07-06_09h33.16.139,Colour_Asymmetry_Pilot,2022.1.3,Win32,59.96641881,62c50e9c1127f2cd403a315f,0,90,90,153,1,onethree,,,,,,,,,,,,,,,,,,,,,,,,,,,,,,,,,,,,,,,,,,,,,,,,,,,,,,,,,,,,,,,,,,,,,,,,,,,,,,,,,,,,,,,,,,,,,,,,,,,,,,,,,,,,,,,,,,,,,,,,,,,,,,,,,,,,,,,,,,,,,,,,,,,,,,,,,,,,,
,,,,,,611eb692e24d9c502523b4ba,62c53a5cf93e51d4ae53c7c8,2022-07-06_09h33.16.139,Colour_Asymmetry_Pilot,2022.1.3,Win32,59.96641881,62c50e9c1127f2cd403a315f,0,91,91,112,1,onetwo,,,,,,,,,,,,,,,,,,,,,,,,,,,,,,,,,,,,,,,,,,,,,,,,,,,,,,,,,,,,,,,,,,,,,,,,,,,,,,,,,,,,,,,,,,,,,,,,,,,,,,,,,,,,,,,,,,,,,,,,,,,,,,,,,,,,,,,,,,,,,,,,,,,,,,,,,,,,,
,,,,,,611eb692e24d9c502523b4ba,62c53a5cf93e51d4ae53c7c8,2022-07-06_09h33.16.139,Colour_Asymmetry_Pilot,2022.1.3,Win32,59.96641881,62c50e9c1127f2cd403a315f,0,92,92,44,1,threeone,,,,,,,,,,,,,,,,,,,,,,,,,,,,,,,,,,,,,,,,,,,,,,,,,,,,,,,,,,,,,,,,,,,,,,,,,,,,,,,,,,,,,,,,,,,,,,,,,,,,,,,,,,,,,,,,,,,,,,,,,,,,,,,,,,,,,,,,,,,,,,,,,,,,,,,,,,,,,
,,,,,,611eb692e24d9c502523b4ba,62c53a5cf93e51d4ae53c7c8,2022-07-06_09h33.16.139,Colour_Asymmetry_Pilot,2022.1.3,Win32,59.96641881,62c50e9c1127f2cd403a315f,0,93,93,40,1,onetwo,,,,,,,,,,,,,,,,,,,,,,,,,,,,,,,,,,,,,,,,,,,,,,,,,,,,,,,,,,,,,,,,,,,,,,,,,,,,,,,,,,,,,,,,,,,,,,,,,,,,,,,,,,,,,,,,,,,,,,,,,,,,,,,,,,,,,,,,,,,,,,,,,,,,,,,,,,,,,
,,,,,,611eb692e24d9c502523b4ba,62c53a5cf93e51d4ae53c7c8,2022-07-06_09h33.16.139,Colour_Asymmetry_Pilot,2022.1.3,Win32,59.96641881,62c50e9c1127f2cd403a315f,0,94,94,69,1,threefour,,,,,,,,,,,,,,,,,,,,,,,,,,,,,,,,,,,,,,,,,,,,,,,,,,,,,,,,,,,,,,,,,,,,,,,,,,,,,,,,,,,,,,,,,,,,,,,,,,,,,,,,,,,,,,,,,,,,,,,,,,,,,,,,,,,,,,,,,,,,,,,,,,,,,,,,,,,,,
,,,,,,611eb692e24d9c502523b4ba,62c53a5cf93e51d4ae53c7c8,2022-07-06_09h33.16.139,Colour_Asymmetry_Pilot,2022.1.3,Win32,59.96641881,62c50e9c1127f2cd403a315f,0,95,95,15,1,fourthree,,,,,,,,,,,,,,,,,,,,,,,,,,,,,,,,,,,,,,,,,,,,,,,,,,,,,,,,,,,,,,,,,,,,,,,,,,,,,,,,,,,,,,,,,,,,,,,,,,,,,,,,,,,,,,,,,,,,,,,,,,,,,,,,,,,,,,,,,,,,,,,,,,,,,,,,,,,,,
,,,,,,611eb692e24d9c502523b4ba,62c53a5cf93e51d4ae53c7c8,2022-07-06_09h33.16.139,Colour_Asymmetry_Pilot,2022.1.3,Win32,59.96641881,62c50e9c1127f2cd403a315f,0,96,96,99,1,twofour,,,,,,,,,,,,,,,,,,,,,,,,,,,,,,,,,,,,,,,,,,,,,,,,,,,,,,,,,,,,,,,,,,,,,,,,,,,,,,,,,,,,,,,,,,,,,,,,,,,,,,,,,,,,,,,,,,,,,,,,,,,,,,,,,,,,,,,,,,,,,,,,,,,,,,,,,,,,,
,,,,,,611eb692e24d9c502523b4ba,62c53a5cf93e51d4ae53c7c8,2022-07-06_09h33.16.139,Colour_Asymmetry_Pilot,2022.1.3,Win32,59.96641881,62c50e9c1127f2cd403a315f,0,97,97,120,1,onetwo,,,,,,,,,,,,,,,,,,,,,,,,,,,,,,,,,,,,,,,,,,,,,,,,,,,,,,,,,,,,,,,,,,,,,,,,,,,,,,,,,,,,,,,,,,,,,,,,,,,,,,,,,,,,,,,,,,,,,,,,,,,,,,,,,,,,,,,,,,,,,,,,,,,,,,,,,,,,,
,,,,,,611eb692e24d9c502523b4ba,62c53a5cf93e51d4ae53c7c8,2022-07-06_09h33.16.139,Colour_Asymmetry_Pilot,2022.1.3,Win32,59.96641881,62c50e9c1127f2cd403a315f,0,98,98,61,1,threefour,,,,,,,,,,,,,,,,,,,,,,,,,,,,,,,,,,,,,,,,,,,,,,,,,,,,,,,,,,,,,,,,,,,,,,,,,,,,,,,,,,,,,,,,,,,,,,,,,,,,,,,,,,,,,,,,,,,,,,,,,,,,,,,,,,,,,,,,,,,,,,,,,,,,,,,,,,,,,
,,,,,,611eb692e24d9c502523b4ba,62c53a5cf93e51d4ae53c7c8,2022-07-06_09h33.16.139,Colour_Asymmetry_Pilot,2022.1.3,Win32,59.96641881,62c50e9c1127f2cd403a315f,0,99,99,140,1,threeone,,,,,,,,,,,,,,,,,,,,,,,,,,,,,,,,,,,,,,,,,,,,,,,,,,,,,,,,,,,,,,,,,,,,,,,,,,,,,,,,,,,,,,,,,,,,,,,,,,,,,,,,,,,,,,,,,,,,,,,,,,,,,,,,,,,,,,,,,,,,,,,,,,,,,,,,,,,,,
,,,,,,611eb692e24d9c502523b4ba,62c53a5cf93e51d4ae53c7c8,2022-07-06_09h33.16.139,Colour_Asymmetry_Pilot,2022.1.3,Win32,59.96641881,62c50e9c1127f2cd403a315f,0,100,100,126,1,fourtwo,,,,,,,,,,,,,,,,,,,,,,,,,,,,,,,,,,,,,,,,,,,,,,,,,,,,,,,,,,,,,,,,,,,,,,,,,,,,,,,,,,,,,,,,,,,,,,,,,,,,,,,,,,,,,,,,,,,,,,,,,,,,,,,,,,,,,,,,,,,,,,,,,,,,,,,,,,,,,
,,,,,,611eb692e24d9c502523b4ba,62c53a5cf93e51d4ae53c7c8,2022-07-06_09h33.16.139,Colour_Asymmetry_Pilot,2022.1.3,Win32,59.96641881,62c50e9c1127f2cd403a315f,0,101,101,25,1,onethree,,,,,,,,,,,,,,,,,,,,,,,,,,,,,,,,,,,,,,,,,,,,,,,,,,,,,,,,,,,,,,,,,,,,,,,,,,,,,,,,,,,,,,,,,,,,,,,,,,,,,,,,,,,,,,,,,,,,,,,,,,,,,,,,,,,,,,,,,,,,,,,,,,,,,,,,,,,,,
,,,,,,611eb692e24d9c502523b4ba,62c53a5cf93e51d4ae53c7c8,2022-07-06_09h33.16.139,Colour_Asymmetry_Pilot,2022.1.3,Win32,59.96641881,62c50e9c1127f2cd403a315f,0,102,102,81,1,onethree,,,,,,,,,,,,,,,,,,,,,,,,,,,,,,,,,,,,,,,,,,,,,,,,,,,,,,,,,,,,,,,,,,,,,,,,,,,,,,,,,,,,,,,,,,,,,,,,,,,,,,,,,,,,,,,,,,,,,,,,,,,,,,,,,,,,,,,,,,,,,,,,,,,,,,,,,,,,,
,,,,,,611eb692e24d9c502523b4ba,62c53a5cf93e51d4ae53c7c8,2022-07-06_09h33.16.139,Colour_Asymmetry_Pilot,2022.1.3,Win32,59.96641881,62c50e9c1127f2cd403a315f,0,103,103,34,1,twoone,,,,,,,,,,,,,,,,,,,,,,,,,,,,,,,,,,,,,,,,,,,,,,,,,,,,,,,,,,,,,,,,,,,,,,,,,,,,,,,,,,,,,,,,,,,,,,,,,,,,,,,,,,,,,,,,,,,,,,,,,,,,,,,,,,,,,,,,,,,,,,,,,,,,,,,,,,,,,
,,,,,,611eb692e24d9c502523b4ba,62c53a5cf93e51d4ae53c7c8,2022-07-06_09h33.16.139,Colour_Asymmetry_Pilot,2022.1.3,Win32,59.96641881,62c50e9c1127f2cd403a315f,0,104,104,53,1,threefour,,,,,,,,,,,,,,,,,,,,,,,,,,,,,,,,,,,,,,,,,,,,,,,,,,,,,,,,,,,,,,,,,,,,,,,,,,,,,,,,,,,,,,,,,,,,,,,,,,,,,,,,,,,,,,,,,,,,,,,,,,,,,,,,,,,,,,,,,,,,,,,,,,,,,,,,,,,,,
,,,,,,611eb692e24d9c502523b4ba,62c53a5cf93e51d4ae53c7c8,2022-07-06_09h33.16.139,Colour_Asymmetry_Pilot,2022.1.3,Win32,59.96641881,62c50e9c1127f2cd403a315f,0,105,105,123,1,twofour,,,,,,,,,,,,,,,,,,,,,,,,,,,,,,,,,,,,,,,,,,,,,,,,,,,,,,,,,,,,,,,,,,,,,,,,,,,,,,,,,,,,,,,,,,,,,,,,,,,,,,,,,,,,,,,,,,,,,,,,,,,,,,,,,,,,,,,,,,,,,,,,,,,,,,,,,,,,,
,,,,,,611eb692e24d9c502523b4ba,62c53a5cf93e51d4ae53c7c8,2022-07-06_09h33.16.139,Colour_Asymmetry_Pilot,2022.1.3,Win32,59.96641881,62c50e9c1127f2cd403a315f,0,106,106,82,1,twoone,,,,,,,,,,,,,,,,,,,,,,,,,,,,,,,,,,,,,,,,,,,,,,,,,,,,,,,,,,,,,,,,,,,,,,,,,,,,,,,,,,,,,,,,,,,,,,,,,,,,,,,,,,,,,,,,,,,,,,,,,,,,,,,,,,,,,,,,,,,,,,,,,,,,,,,,,,,,,
,,,,,,611eb692e24d9c502523b4ba,62c53a5cf93e51d4ae53c7c8,2022-07-06_09h33.16.139,Colour_Asymmetry_Pilot,2022.1.3,Win32,59.96641881,62c50e9c1127f2cd403a315f,0,107,107,88,1,onetwo,,,,,,,,,,,,,,,,,,,,,,,,,,,,,,,,,,,,,,,,,,,,,,,,,,,,,,,,,,,,,,,,,,,,,,,,,,,,,,,,,,,,,,,,,,,,,,,,,,,,,,,,,,,,,,,,,,,,,,,,,,,,,,,,,,,,,,,,,,,,,,,,,,,,,,,,,,,,,
,,,,,,611eb692e24d9c502523b4ba,62c53a5cf93e51d4ae53c7c8,2022-07-06_09h33.16.139,Colour_Asymmetry_Pilot,2022.1.3,Win32,59.96641881,62c50e9c1127f2cd403a315f,0,108,108,30,1,fourtwo,,,,,,,,,,,,,,,,,,,,,,,,,,,,,,,,,,,,,,,,,,,,,,,,,,,,,,,,,,,,,,,,,,,,,,,,,,,,,,,,,,,,,,,,,,,,,,,,,,,,,,,,,,,,,,,,,,,,,,,,,,,,,,,,,,,,,,,,,,,,,,,,,,,,,,,,,,,,,
,,,,,,611eb692e24d9c502523b4ba,62c53a5cf93e51d4ae53c7c8,2022-07-06_09h33.16.139,Colour_Asymmetry_Pilot,2022.1.3,Win32,59.96641881,62c50e9c1127f2cd403a315f,0,109,109,27,1,twofour,,,,,,,,,,,,,,,,,,,,,,,,,,,,,,,,,,,,,,,,,,,,,,,,,,,,,,,,,,,,,,,,,,,,,,,,,,,,,,,,,,,,,,,,,,,,,,,,,,,,,,,,,,,,,,,,,,,,,,,,,,,,,,,,,,,,,,,,,,,,,,,,,,,,,,,,,,,,,
,,,,,,611eb692e24d9c502523b4ba,62c53a5cf93e51d4ae53c7c8,2022-07-06_09h33.16.139,Colour_Asymmetry_Pilot,2022.1.3,Win32,59.96641881,62c50e9c1127f2cd403a315f,0,110,110,31,1,fourthree,,,,,,,,,,,,,,,,,,,,,,,,,,,,,,,,,,,,,,,,,,,,,,,,,,,,,,,,,,,,,,,,,,,,,,,,,,,,,,,,,,,,,,,,,,,,,,,,,,,,,,,,,,,,,,,,,,,,,,,,,,,,,,,,,,,,,,,,,,,,,,,,,,,,,,,,,,,,,
,,,,,,611eb692e24d9c502523b4ba,62c53a5cf93e51d4ae53c7c8,2022-07-06_09h33.16.139,Colour_Asymmetry_Pilot,2022.1.3,Win32,59.96641881,62c50e9c1127f2cd403a315f,0,111,111,16,1,onetwo,,,,,,,,,,,,,,,,,,,,,,,,,,,,,,,,,,,,,,,,,,,,,,,,,,,,,,,,,,,,,,,,,,,,,,,,,,,,,,,,,,,,,,,,,,,,,,,,,,,,,,,,,,,,,,,,,,,,,,,,,,,,,,,,,,,,,,,,,,,,,,,,,,,,,,,,,,,,,
,,,,,,611eb692e24d9c502523b4ba,62c53a5cf93e51d4ae53c7c8,2022-07-06_09h33.16.139,Colour_Asymmetry_Pilot,2022.1.3,Win32,59.96641881,62c50e9c1127f2cd403a315f,0,112,112,9,1,onethree,,,,,,,,,,,,,,,,,,,,,,,,,,,,,,,,,,,,,,,,,,,,,,,,,,,,,,,,,,,,,,,,,,,,,,,,,,,,,,,,,,,,,,,,,,,,,,,,,,,,,,,,,,,,,,,,,,,,,,,,,,,,,,,,,,,,,,,,,,,,,,,,,,,,,,,,,,,,,
,,,,,,611eb692e24d9c502523b4ba,62c53a5cf93e51d4ae53c7c8,2022-07-06_09h33.16.139,Colour_Asymmetry_Pilot,2022.1.3,Win32,59.96641881,62c50e9c1127f2cd403a315f,0,113,113,142,1,fourtwo,,,,,,,,,,,,,,,,,,,,,,,,,,,,,,,,,,,,,,,,,,,,,,,,,,,,,,,,,,,,,,,,,,,,,,,,,,,,,,,,,,,,,,,,,,,,,,,,,,,,,,,,,,,,,,,,,,,,,,,,,,,,,,,,,,,,,,,,,,,,,,,,,,,,,,,,,,,,,
,,,,,,611eb692e24d9c502523b4ba,62c53a5cf93e51d4ae53c7c8,2022-07-06_09h33.16.139,Colour_Asymmetry_Pilot,2022.1.3,Win32,59.96641881,62c50e9c1127f2cd403a315f,0,114,114,78,1,fourtwo,,,,,,,,,,,,,,,,,,,,,,,,,,,,,,,,,,,,,,,,,,,,,,,,,,,,,,,,,,,,,,,,,,,,,,,,,,,,,,,,,,,,,,,,,,,,,,,,,,,,,,,,,,,,,,,,,,,,,,,,,,,,,,,,,,,,,,,,,,,,,,,,,,,,,,,,,,,,,
,,,,,,611eb692e24d9c502523b4ba,62c53a5cf93e51d4ae53c7c8,2022-07-06_09h33.16.139,Colour_Asymmetry_Pilot,2022.1.3,Win32,59.96641881,62c50e9c1127f2cd403a315f,0,115,115,132,1,threeone,,,,,,,,,,,,,,,,,,,,,,,,,,,,,,,,,,,,,,,,,,,,,,,,,,,,,,,,,,,,,,,,,,,,,,,,,,,,,,,,,,,,,,,,,,,,,,,,,,,,,,,,,,,,,,,,,,,,,,,,,,,,,,,,,,,,,,,,,,,,,,,,,,,,,,,,,,,,,
,,,,,,611eb692e24d9c502523b4ba,62c53a5cf93e51d4ae53c7c8,2022-07-06_09h33.16.139,Colour_Asymmetry_Pilot,2022.1.3,Win32,59.96641881,62c50e9c1127f2cd403a315f,0,116,116,155,1,twofour,,,,,,,,,,,,,,,,,,,,,,,,,,,,,,,,,,,,,,,,,,,,,,,,,,,,,,,,,,,,,,,,,,,,,,,,,,,,,,,,,,,,,,,,,,,,,,,,,,,,,,,,,,,,,,,,,,,,,,,,,,,,,,,,,,,,,,,,,,,,,,,,,,,,,,,,,,,,,
,,,,,,611eb692e24d9c502523b4ba,62c53a5cf93e51d4ae53c7c8,2022-07-06_09h33.16.139,Colour_Asymmetry_Pilot,2022.1.3,Win32,59.96641881,62c50e9c1127f2cd403a315f,0,117,117,102,1,fourtwo,,,,,,,,,,,,,,,,,,,,,,,,,,,,,,,,,,,,,,,,,,,,,,,,,,,,,,,,,,,,,,,,,,,,,,,,,,,,,,,,,,,,,,,,,,,,,,,,,,,,,,,,,,,,,,,,,,,,,,,,,,,,,,,,,,,,,,,,,,,,,,,,,,,,,,,,,,,,,
,,,,,,611eb692e24d9c502523b4ba,62c53a5cf93e51d4ae53c7c8,2022-07-06_09h33.16.139,Colour_Asymmetry_Pilot,2022.1.3,Win32,59.96641881,62c50e9c1127f2cd403a315f,0,118,118,116,1,threeone,,,,,,,,,,,,,,,,,,,,,,,,,,,,,,,,,,,,,,,,,,,,,,,,,,,,,,,,,,,,,,,,,,,,,,,,,,,,,,,,,,,,,,,,,,,,,,,,,,,,,,,,,,,,,,,,,,,,,,,,,,,,,,,,,,,,,,,,,,,,,,,,,,,,,,,,,,,,,
,,,,,,611eb692e24d9c502523b4ba,62c53a5cf93e51d4ae53c7c8,2022-07-06_09h33.16.139,Colour_Asymmetry_Pilot,2022.1.3,Win32,59.96641881,62c50e9c1127f2cd403a315f,0,119,119,66,1,twoone,,,,,,,,,,,,,,,,,,,,,,,,,,,,,,,,,,,,,,,,,,,,,,,,,,,,,,,,,,,,,,,,,,,,,,,,,,,,,,,,,,,,,,,,,,,,,,,,,,,,,,,,,,,,,,,,,,,,,,,,,,,,,,,,,,,,,,,,,,,,,,,,,,,,,,,,,,,,,
,,,,,,611eb692e24d9c502523b4ba,62c53a5cf93e51d4ae53c7c8,2022-07-06_09h33.16.139,Colour_Asymmetry_Pilot,2022.1.3,Win32,59.96641881,62c50e9c1127f2cd403a315f,0,120,120,74,1,twoone,,,,,,,,,,,,,,,,,,,,,,,,,,,,,,,,,,,,,,,,,,,,,,,,,,,,,,,,,,,,,,,,,,,,,,,,,,,,,,,,,,,,,,,,,,,,,,,,,,,,,,,,,,,,,,,,,,,,,,,,,,,,,,,,,,,,,,,,,,,,,,,,,,,,,,,,,,,,,
,,,,,,611eb692e24d9c502523b4ba,62c53a5cf93e51d4ae53c7c8,2022-07-06_09h33.16.139,Colour_Asymmetry_Pilot,2022.1.3,Win32,59.96641881,62c50e9c1127f2cd403a315f,0,121,121,22,1,fourtwo,,,,,,,,,,,,,,,,,,,,,,,,,,,,,,,,,,,,,,,,,,,,,,,,,,,,,,,,,,,,,,,,,,,,,,,,,,,,,,,,,,,,,,,,,,,,,,,,,,,,,,,,,,,,,,,,,,,,,,,,,,,,,,,,,,,,,,,,,,,,,,,,,,,,,,,,,,,,,
,,,,,,611eb692e24d9c502523b4ba,62c53a5cf93e51d4ae53c7c8,2022-07-06_09h33.16.139,Colour_Asymmetry_Pilot,2022.1.3,Win32,59.96641881,62c50e9c1127f2cd403a315f,0,122,122,134,1,fourtwo,,,,,,,,,,,,,,,,,,,,,,,,,,,,,,,,,,,,,,,,,,,,,,,,,,,,,,,,,,,,,,,,,,,,,,,,,,,,,,,,,,,,,,,,,,,,,,,,,,,,,,,,,,,,,,,,,,,,,,,,,,,,,,,,,,,,,,,,,,,,,,,,,,,,,,,,,,,,,
,,,,,,611eb692e24d9c502523b4ba,62c53a5cf93e51d4ae53c7c8,2022-07-06_09h33.16.139,Colour_Asymmetry_Pilot,2022.1.3,Win32,59.96641881,62c50e9c1127f2cd403a315f,0,123,123,13,1,threefour,,,,,,,,,,,,,,,,,,,,,,,,,,,,,,,,,,,,,,,,,,,,,,,,,,,,,,,,,,,,,,,,,,,,,,,,,,,,,,,,,,,,,,,,,,,,,,,,,,,,,,,,,,,,,,,,,,,,,,,,,,,,,,,,,,,,,,,,,,,,,,,,,,,,,,,,,,,,,
,,,,,,611eb692e24d9c502523b4ba,62c53a5cf93e51d4ae53c7c8,2022-07-06_09h33.16.139,Colour_Asymmetry_Pilot,2022.1.3,Win32,59.96641881,62c50e9c1127f2cd403a315f,0,124,124,35,1,twofour,,,,,,,,,,,,,,,,,,,,,,,,,,,,,,,,,,,,,,,,,,,,,,,,,,,,,,,,,,,,,,,,,,,,,,,,,,,,,,,,,,,,,,,,,,,,,,,,,,,,,,,,,,,,,,,,,,,,,,,,,,,,,,,,,,,,,,,,,,,,,,,,,,,,,,,,,,,,,
,,,,,,611eb692e24d9c502523b4ba,62c53a5cf93e51d4ae53c7c8,2022-07-06_09h33.16.139,Colour_Asymmetry_Pilot,2022.1.3,Win32,59.96641881,62c50e9c1127f2cd403a315f,0,125,125,110,1,fourtwo,,,,,,,,,,,,,,,,,,,,,,,,,,,,,,,,,,,,,,,,,,,,,,,,,,,,,,,,,,,,,,,,,,,,,,,,,,,,,,,,,,,,,,,,,,,,,,,,,,,,,,,,,,,,,,,,,,,,,,,,,,,,,,,,,,,,,,,,,,,,,,,,,,,,,,,,,,,,,
,,,,,,611eb692e24d9c502523b4ba,62c53a5cf93e51d4ae53c7c8,2022-07-06_09h33.16.139,Colour_Asymmetry_Pilot,2022.1.3,Win32,59.96641881,62c50e9c1127f2cd403a315f,0,126,126,111,1,fourthree,,,,,,,,,,,,,,,,,,,,,,,,,,,,,,,,,,,,,,,,,,,,,,,,,,,,,,,,,,,,,,,,,,,,,,,,,,,,,,,,,,,,,,,,,,,,,,,,,,,,,,,,,,,,,,,,,,,,,,,,,,,,,,,,,,,,,,,,,,,,,,,,,,,,,,,,,,,,,
,,,,,,611eb692e24d9c502523b4ba,62c53a5cf93e51d4ae53c7c8,2022-07-06_09h33.16.139,Colour_Asymmetry_Pilot,2022.1.3,Win32,59.96641881,62c50e9c1127f2cd403a315f,0,127,127,51,1,twofour,,,,,,,,,,,,,,,,,,,,,,,,,,,,,,,,,,,,,,,,,,,,,,,,,,,,,,,,,,,,,,,,,,,,,,,,,,,,,,,,,,,,,,,,,,,,,,,,,,,,,,,,,,,,,,,,,,,,,,,,,,,,,,,,,,,,,,,,,,,,,,,,,,,,,,,,,,,,,
,,,,,,611eb692e24d9c502523b4ba,62c53a5cf93e51d4ae53c7c8,2022-07-06_09h33.16.139,Colour_Asymmetry_Pilot,2022.1.3,Win32,59.96641881,62c50e9c1127f2cd403a315f,0,128,128,91,1,twofour,,,,,,,,,,,,,,,,,,,,,,,,,,,,,,,,,,,,,,,,,,,,,,,,,,,,,,,,,,,,,,,,,,,,,,,,,,,,,,,,,,,,,,,,,,,,,,,,,,,,,,,,,,,,,,,,,,,,,,,,,,,,,,,,,,,,,,,,,,,,,,,,,,,,,,,,,,,,,
,,,,,,611eb692e24d9c502523b4ba,62c53a5cf93e51d4ae53c7c8,2022-07-06_09h33.16.139,Colour_Asymmetry_Pilot,2022.1.3,Win32,59.96641881,62c50e9c1127f2cd403a315f,0,129,129,52,1,threeone,,,,,,,,,,,,,,,,,,,,,,,,,,,,,,,,,,,,,,,,,,,,,,,,,,,,,,,,,,,,,,,,,,,,,,,,,,,,,,,,,,,,,,,,,,,,,,,,,,,,,,,,,,,,,,,,,,,,,,,,,,,,,,,,,,,,,,,,,,,,,,,,,,,,,,,,,,,,,
,,,,,,611eb692e24d9c502523b4ba,62c53a5cf93e51d4ae53c7c8,2022-07-06_09h33.16.139,Colour_Asymmetry_Pilot,2022.1.3,Win32,59.96641881,62c50e9c1127f2cd403a315f,0,130,130,32,1,onetwo,,,,,,,,,,,,,,,,,,,,,,,,,,,,,,,,,,,,,,,,,,,,,,,,,,,,,,,,,,,,,,,,,,,,,,,,,,,,,,,,,,,,,,,,,,,,,,,,,,,,,,,,,,,,,,,,,,,,,,,,,,,,,,,,,,,,,,,,,,,,,,,,,,,,,,,,,,,,,
,,,,,,611eb692e24d9c502523b4ba,62c53a5cf93e51d4ae53c7c8,2022-07-06_09h33.16.139,Colour_Asymmetry_Pilot,2022.1.3,Win32,59.96641881,62c50e9c1127f2cd403a315f,0,131,131,107,1,twofour,,,,,,,,,,,,,,,,,,,,,,,,,,,,,,,,,,,,,,,,,,,,,,,,,,,,,,,,,,,,,,,,,,,,,,,,,,,,,,,,,,,,,,,,,,,,,,,,,,,,,,,,,,,,,,,,,,,,,,,,,,,,,,,,,,,,,,,,,,,,,,,,,,,,,,,,,,,,,
,,,,,,611eb692e24d9c502523b4ba,62c53a5cf93e51d4ae53c7c8,2022-07-06_09h33.16.139,Colour_Asymmetry_Pilot,2022.1.3,Win32,59.96641881,62c50e9c1127f2cd403a315f,0,132,132,97,1,onethree,,,,,,,,,,,,,,,,,,,,,,,,,,,,,,,,,,,,,,,,,,,,,,,,,,,,,,,,,,,,,,,,,,,,,,,,,,,,,,,,,,,,,,,,,,,,,,,,,,,,,,,,,,,,,,,,,,,,,,,,,,,,,,,,,,,,,,,,,,,,,,,,,,,,,,,,,,,,,
,,,,,,611eb692e24d9c502523b4ba,62c53a5cf93e51d4ae53c7c8,2022-07-06_09h33.16.139,Colour_Asymmetry_Pilot,2022.1.3,Win32,59.96641881,62c50e9c1127f2cd403a315f,0,133,133,117,1,threefour,,,,,,,,,,,,,,,,,,,,,,,,,,,,,,,,,,,,,,,,,,,,,,,,,,,,,,,,,,,,,,,,,,,,,,,,,,,,,,,,,,,,,,,,,,,,,,,,,,,,,,,,,,,,,,,,,,,,,,,,,,,,,,,,,,,,,,,,,,,,,,,,,,,,,,,,,,,,,
,,,,,,611eb692e24d9c502523b4ba,62c53a5cf93e51d4ae53c7c8,2022-07-06_09h33.16.139,Colour_Asymmetry_Pilot,2022.1.3,Win32,59.96641881,62c50e9c1127f2cd403a315f,0,134,134,23,1,fourthree,,,,,,,,,,,,,,,,,,,,,,,,,,,,,,,,,,,,,,,,,,,,,,,,,,,,,,,,,,,,,,,,,,,,,,,,,,,,,,,,,,,,,,,,,,,,,,,,,,,,,,,,,,,,,,,,,,,,,,,,,,,,,,,,,,,,,,,,,,,,,,,,,,,,,,,,,,,,,
,,,,,,611eb692e24d9c502523b4ba,62c53a5cf93e51d4ae53c7c8,2022-07-06_09h33.16.139,Colour_Asymmetry_Pilot,2022.1.3,Win32,59.96641881,62c50e9c1127f2cd403a315f,0,135,135,143,1,fourthree,,,,,,,,,,,,,,,,,,,,,,,,,,,,,,,,,,,,,,,,,,,,,,,,,,,,,,,,,,,,,,,,,,,,,,,,,,,,,,,,,,,,,,,,,,,,,,,,,,,,,,,,,,,,,,,,,,,,,,,,,,,,,,,,,,,,,,,,,,,,,,,,,,,,,,,,,,,,,
,,,,,,611eb692e24d9c502523b4ba,62c53a5cf93e51d4ae53c7c8,2022-07-06_09h33.16.139,Colour_Asymmetry_Pilot,2022.1.3,Win32,59.96641881,62c50e9c1127f2cd403a315f,0,136,136,115,1,twofour,,,,,,,,,,,,,,,,,,,,,,,,,,,,,,,,,,,,,,,,,,,,,,,,,,,,,,,,,,,,,,,,,,,,,,,,,,,,,,,,,,,,,,,,,,,,,,,,,,,,,,,,,,,,,,,,,,,,,,,,,,,,,,,,,,,,,,,,,,,,,,,,,,,,,,,,,,,,,
,,,,,,611eb692e24d9c502523b4ba,62c53a5cf93e51d4ae53c7c8,2022-07-06_09h33.16.139,Colour_Asymmetry_Pilot,2022.1.3,Win32,59.96641881,62c50e9c1127f2cd403a315f,0,137,137,85,1,threefour,,,,,,,,,,,,,,,,,,,,,,,,,,,,,,,,,,,,,,,,,,,,,,,,,,,,,,,,,,,,,,,,,,,,,,,,,,,,,,,,,,,,,,,,,,,,,,,,,,,,,,,,,,,,,,,,,,,,,,,,,,,,,,,,,,,,,,,,,,,,,,,,,,,,,,,,,,,,,
,,,,,,611eb692e24d9c502523b4ba,62c53a5cf93e51d4ae53c7c8,2022-07-06_09h33.16.139,Colour_Asymmetry_Pilot,2022.1.3,Win32,59.96641881,62c50e9c1127f2cd403a315f,0,138,138,90,1,twoone,,,,,,,,,,,,,,,,,,,,,,,,,,,,,,,,,,,,,,,,,,,,,,,,,,,,,,,,,,,,,,,,,,,,,,,,,,,,,,,,,,,,,,,,,,,,,,,,,,,,,,,,,,,,,,,,,,,,,,,,,,,,,,,,,,,,,,,,,,,,,,,,,,,,,,,,,,,,,
,,,,,,611eb692e24d9c502523b4ba,62c53a5cf93e51d4ae53c7c8,2022-07-06_09h33.16.139,Colour_Asymmetry_Pilot,2022.1.3,Win32,59.96641881,62c50e9c1127f2cd403a315f,0,139,139,54,1,fourtwo,,,,,,,,,,,,,,,,,,,,,,,,,,,,,,,,,,,,,,,,,,,,,,,,,,,,,,,,,,,,,,,,,,,,,,,,,,,,,,,,,,,,,,,,,,,,,,,,,,,,,,,,,,,,,,,,,,,,,,,,,,,,,,,,,,,,,,,,,,,,,,,,,,,,,,,,,,,,,
,,,,,,611eb692e24d9c502523b4ba,62c53a5cf93e51d4ae53c7c8,2022-07-06_09h33.16.139,Colour_Asymmetry_Pilot,2022.1.3,Win32,59.96641881,62c50e9c1127f2cd403a315f,0,140,140,87,1,fourthree,,,,,,,,,,,,,,,,,,,,,,,,,,,,,,,,,,,,,,,,,,,,,,,,,,,,,,,,,,,,,,,,,,,,,,,,,,,,,,,,,,,,,,,,,,,,,,,,,,,,,,,,,,,,,,,,,,,,,,,,,,,,,,,,,,,,,,,,,,,,,,,,,,,,,,,,,,,,,
,,,,,,611eb692e24d9c502523b4ba,62c53a5cf93e51d4ae53c7c8,2022-07-06_09h33.16.139,Colour_Asymmetry_Pilot,2022.1.3,Win32,59.96641881,62c50e9c1127f2cd403a315f,0,141,141,56,1,onetwo,,,,,,,,,,,,,,,,,,,,,,,,,,,,,,,,,,,,,,,,,,,,,,,,,,,,,,,,,,,,,,,,,,,,,,,,,,,,,,,,,,,,,,,,,,,,,,,,,,,,,,,,,,,,,,,,,,,,,,,,,,,,,,,,,,,,,,,,,,,,,,,,,,,,,,,,,,,,,
,,,,,,611eb692e24d9c502523b4ba,62c53a5cf93e51d4ae53c7c8,2022-07-06_09h33.16.139,Colour_Asymmetry_Pilot,2022.1.3,Win32,59.96641881,62c50e9c1127f2cd403a315f,0,142,142,8,1,onetwo,,,,,,,,,,,,,,,,,,,,,,,,,,,,,,,,,,,,,,,,,,,,,,,,,,,,,,,,,,,,,,,,,,,,,,,,,,,,,,,,,,,,,,,,,,,,,,,,,,,,,,,,,,,,,,,,,,,,,,,,,,,,,,,,,,,,,,,,,,,,,,,,,,,,,,,,,,,,,
,,,,,,611eb692e24d9c502523b4ba,62c53a5cf93e51d4ae53c7c8,2022-07-06_09h33.16.139,Colour_Asymmetry_Pilot,2022.1.3,Win32,59.96641881,62c50e9c1127f2cd403a315f,0,143,143,158,1,fourtwo,,,,,,,,,,,,,,,,,,,,,,,,,,,,,,,,,,,,,,,,,,,,,,,,,,,,,,,,,,,,,,,,,,,,,,,,,,,,,,,,,,,,,,,,,,,,,,,,,,,,,,,,,,,,,,,,,,,,,,,,,,,,,,,,,,,,,,,,,,,,,,,,,,,,,,,,,,,,,
,,,,,,611eb692e24d9c502523b4ba,62c53a5cf93e51d4ae53c7c8,2022-07-06_09h33.16.139,Colour_Asymmetry_Pilot,2022.1.3,Win32,59.96641881,62c50e9c1127f2cd403a315f,0,144,144,46,1,fourtwo,,,,,,,,,,,,,,,,,,,,,,,,,,,,,,,,,,,,,,,,,,,,,,,,,,,,,,,,,,,,,,,,,,,,,,,,,,,,,,,,,,,,,,,,,,,,,,,,,,,,,,,,,,,,,,,,,,,,,,,,,,,,,,,,,,,,,,,,,,,,,,,,,,,,,,,,,,,,,
,,,,,,611eb692e24d9c502523b4ba,62c53a5cf93e51d4ae53c7c8,2022-07-06_09h33.16.139,Colour_Asymmetry_Pilot,2022.1.3,Win32,59.96641881,62c50e9c1127f2cd403a315f,0,145,145,5,1,threefour,,,,,,,,,,,,,,,,,,,,,,,,,,,,,,,,,,,,,,,,,,,,,,,,,,,,,,,,,,,,,,,,,,,,,,,,,,,,,,,,,,,,,,,,,,,,,,,,,,,,,,,,,,,,,,,,,,,,,,,,,,,,,,,,,,,,,,,,,,,,,,,,,,,,,,,,,,,,,
,,,,,,611eb692e24d9c502523b4ba,62c53a5cf93e51d4ae53c7c8,2022-07-06_09h33.16.139,Colour_Asymmetry_Pilot,2022.1.3,Win32,59.96641881,62c50e9c1127f2cd403a315f,0,146,146,75,1,twofour,,,,,,,,,,,,,,,,,,,,,,,,,,,,,,,,,,,,,,,,,,,,,,,,,,,,,,,,,,,,,,,,,,,,,,,,,,,,,,,,,,,,,,,,,,,,,,,,,,,,,,,,,,,,,,,,,,,,,,,,,,,,,,,,,,,,,,,,,,,,,,,,,,,,,,,,,,,,,
,,,,,,611eb692e24d9c502523b4ba,62c53a5cf93e51d4ae53c7c8,2022-07-06_09h33.16.139,Colour_Asymmetry_Pilot,2022.1.3,Win32,59.96641881,62c50e9c1127f2cd403a315f,0,147,147,72,1,onetwo,,,,,,,,,,,,,,,,,,,,,,,,,,,,,,,,,,,,,,,,,,,,,,,,,,,,,,,,,,,,,,,,,,,,,,,,,,,,,,,,,,,,,,,,,,,,,,,,,,,,,,,,,,,,,,,,,,,,,,,,,,,,,,,,,,,,,,,,,,,,,,,,,,,,,,,,,,,,,
,,,,,,611eb692e24d9c502523b4ba,62c53a5cf93e51d4ae53c7c8,2022-07-06_09h33.16.139,Colour_Asymmetry_Pilot,2022.1.3,Win32,59.96641881,62c50e9c1127f2cd403a315f,0,148,148,1,1,onethree,,,,,,,,,,,,,,,,,,,,,,,,,,,,,,,,,,,,,,,,,,,,,,,,,,,,,,,,,,,,,,,,,,,,,,,,,,,,,,,,,,,,,,,,,,,,,,,,,,,,,,,,,,,,,,,,,,,,,,,,,,,,,,,,,,,,,,,,,,,,,,,,,,,,,,,,,,,,,
,,,,,,611eb692e24d9c502523b4ba,62c53a5cf93e51d4ae53c7c8,2022-07-06_09h33.16.139,Colour_Asymmetry_Pilot,2022.1.3,Win32,59.96641881,62c50e9c1127f2cd403a315f,0,149,149,129,1,onethree,,,,,,,,,,,,,,,,,,,,,,,,,,,,,,,,,,,,,,,,,,,,,,,,,,,,,,,,,,,,,,,,,,,,,,,,,,,,,,,,,,,,,,,,,,,,,,,,,,,,,,,,,,,,,,,,,,,,,,,,,,,,,,,,,,,,,,,,,,,,,,,,,,,,,,,,,,,,,
,,,,,,611eb692e24d9c502523b4ba,62c53a5cf93e51d4ae53c7c8,2022-07-06_09h33.16.139,Colour_Asymmetry_Pilot,2022.1.3,Win32,59.96641881,62c50e9c1127f2cd403a315f,0,150,150,146,1,twoone,,,,,,,,,,,,,,,,,,,,,,,,,,,,,,,,,,,,,,,,,,,,,,,,,,,,,,,,,,,,,,,,,,,,,,,,,,,,,,,,,,,,,,,,,,,,,,,,,,,,,,,,,,,,,,,,,,,,,,,,,,,,,,,,,,,,,,,,,,,,,,,,,,,,,,,,,,,,,
,,,,,,611eb692e24d9c502523b4ba,62c53a5cf93e51d4ae53c7c8,2022-07-06_09h33.16.139,Colour_Asymmetry_Pilot,2022.1.3,Win32,59.96641881,62c50e9c1127f2cd403a315f,0,151,151,65,1,onethree,,,,,,,,,,,,,,,,,,,,,,,,,,,,,,,,,,,,,,,,,,,,,,,,,,,,,,,,,,,,,,,,,,,,,,,,,,,,,,,,,,,,,,,,,,,,,,,,,,,,,,,,,,,,,,,,,,,,,,,,,,,,,,,,,,,,,,,,,,,,,,,,,,,,,,,,,,,,,
,,,,,,611eb692e24d9c502523b4ba,62c53a5cf93e51d4ae53c7c8,2022-07-06_09h33.16.139,Colour_Asymmetry_Pilot,2022.1.3,Win32,59.96641881,62c50e9c1127f2cd403a315f,0,152,152,124,1,threeone,,,,,,,,,,,,,,,,,,,,,,,,,,,,,,,,,,,,,,,,,,,,,,,,,,,,,,,,,,,,,,,,,,,,,,,,,,,,,,,,,,,,,,,,,,,,,,,,,,,,,,,,,,,,,,,,,,,,,,,,,,,,,,,,,,,,,,,,,,,,,,,,,,,,,,,,,,,,,
,,,,,,611eb692e24d9c502523b4ba,62c53a5cf93e51d4ae53c7c8,2022-07-06_09h33.16.139,Colour_Asymmetry_Pilot,2022.1.3,Win32,59.96641881,62c50e9c1127f2cd403a315f,0,153,153,150,1,fourtwo,,,,,,,,,,,,,,,,,,,,,,,,,,,,,,,,,,,,,,,,,,,,,,,,,,,,,,,,,,,,,,,,,,,,,,,,,,,,,,,,,,,,,,,,,,,,,,,,,,,,,,,,,,,,,,,,,,,,,,,,,,,,,,,,,,,,,,,,,,,,,,,,,,,,,,,,,,,,,
,,,,,,611eb692e24d9c502523b4ba,62c53a5cf93e51d4ae53c7c8,2022-07-06_09h33.16.139,Colour_Asymmetry_Pilot,2022.1.3,Win32,59.96641881,62c50e9c1127f2cd403a315f,0,154,154,48,1,onetwo,,,,,,,,,,,,,,,,,,,,,,,,,,,,,,,,,,,,,,,,,,,,,,,,,,,,,,,,,,,,,,,,,,,,,,,,,,,,,,,,,,,,,,,,,,,,,,,,,,,,,,,,,,,,,,,,,,,,,,,,,,,,,,,,,,,,,,,,,,,,,,,,,,,,,,,,,,,,,
,,,,,,611eb692e24d9c502523b4ba,62c53a5cf93e51d4ae53c7c8,2022-07-06_09h33.16.139,Colour_Asymmetry_Pilot,2022.1.3,Win32,59.96641881,62c50e9c1127f2cd403a315f,0,155,155,157,1,threefour,,,,,,,,,,,,,,,,,,,,,,,,,,,,,,,,,,,,,,,,,,,,,,,,,,,,,,,,,,,,,,,,,,,,,,,,,,,,,,,,,,,,,,,,,,,,,,,,,,,,,,,,,,,,,,,,,,,,,,,,,,,,,,,,,,,,,,,,,,,,,,,,,,,,,,,,,,,,,
,,,,,,611eb692e24d9c502523b4ba,62c53a5cf93e51d4ae53c7c8,2022-07-06_09h33.16.139,Colour_Asymmetry_Pilot,2022.1.3,Win32,59.96641881,62c50e9c1127f2cd403a315f,0,156,156,147,1,twofour,,,,,,,,,,,,,,,,,,,,,,,,,,,,,,,,,,,,,,,,,,,,,,,,,,,,,,,,,,,,,,,,,,,,,,,,,,,,,,,,,,,,,,,,,,,,,,,,,,,,,,,,,,,,,,,,,,,,,,,,,,,,,,,,,,,,,,,,,,,,,,,,,,,,,,,,,,,,,
,,,,,,611eb692e24d9c502523b4ba,62c53a5cf93e51d4ae53c7c8,2022-07-06_09h33.16.139,Colour_Asymmetry_Pilot,2022.1.3,Win32,59.96641881,62c50e9c1127f2cd403a315f,0,157,157,141,1,threefour,,,,,,,,,,,,,,,,,,,,,,,,,,,,,,,,,,,,,,,,,,,,,,,,,,,,,,,,,,,,,,,,,,,,,,,,,,,,,,,,,,,,,,,,,,,,,,,,,,,,,,,,,,,,,,,,,,,,,,,,,,,,,,,,,,,,,,,,,,,,,,,,,,,,,,,,,,,,,
,,,,,,611eb692e24d9c502523b4ba,62c53a5cf93e51d4ae53c7c8,2022-07-06_09h33.16.139,Colour_Asymmetry_Pilot,2022.1.3,Win32,59.96641881,62c50e9c1127f2cd403a315f,0,158,158,6,1,fourtwo,,,,,,,,,,,,,,,,,,,,,,,,,,,,,,,,,,,,,,,,,,,,,,,,,,,,,,,,,,,,,,,,,,,,,,,,,,,,,,,,,,,,,,,,,,,,,,,,,,,,,,,,,,,,,,,,,,,,,,,,,,,,,,,,,,,,,,,,,,,,,,,,,,,,,,,,,,,,,
,,,,,,611eb692e24d9c502523b4ba,62c53a5cf93e51d4ae53c7c8,2022-07-06_09h33.16.139,Colour_Asymmetry_Pilot,2022.1.3,Win32,59.96641881,62c50e9c1127f2cd403a315f,0,159,159,24,1,onetwo,,,,,,,,,,,,,,,,,,,,,,,,,,,,,,,,,,,,,,,,,,,,,,,,,,,,,,,,,,,,,,,,,,,,,,,,,,,,,,,,,,,,,,,,,,,,,,,,,,,,,,,,,,,,,,,,,,,,,,,,,,,,,,,,,,,,,,,,,,,,,,,,,,,,,,,,,,,,,
,,,,,,611eb692e24d9c502523b4ba,62c53a5cf93e51d4ae53c7c8,2022-07-06_09h33.16.139,Colour_Asymmetry_Pilot,2022.1.3,Win32,59.96641881,62c50e9c1127f2cd403a315f,0,160,160,109,1,threefour,,,,,,,,,,,,,,,,,,,,,,,,,,,,,,,,,,,,,,,,,,,,,,,,,,,,,,,,,,,,,,,,,,,,,,,,,,,,,,,,,,,,,,,,,,,,,,,,,,,,,,,,,,,,,,,,,,,,,,,,,,,,,,,,,,,,,,,,,,,,,,,,,,,,,,,,,,,,,
,,,,,,611eb692e24d9c502523b4ba,62c53a5cf93e51d4ae53c7c8,2022-07-06_09h33.16.139,Colour_Asymmetry_Pilot,2022.1.3,Win32,59.96641881,62c50e9c1127f2cd403a315f,0,161,161,3,1,twofour,,,,,,,,,,,,,,,,,,,,,,,,,,,,,,,,,,,,,,,,,,,,,,,,,,,,,,,,,,,,,,,,,,,,,,,,,,,,,,,,,,,,,,,,,,,,,,,,,,,,,,,,,,,,,,,,,,,,,,,,,,,,,,,,,,,,,,,,,,,,,,,,,,,,,,,,,,,,,
,,,,,,611eb692e24d9c502523b4ba,62c53a5cf93e51d4ae53c7c8,2022-07-06_09h33.16.139,Colour_Asymmetry_Pilot,2022.1.3,Win32,59.96641881,62c50e9c1127f2cd403a315f,,,,,,,space,5.1806,space,40.1238,space,40.9592,space,8.2015,space,5.0333,space,6.5267,"[-0.0040000000000000036,0.02739999999999987,-0.08239999999999992]",threeone,"[-0.5688,-0.08239999999999992,-0.1844]",4,23.4995,37,102,1,0,0,response1disk_5,-8,10,1,0,0,rectangle_8,-8,10,1,0,0,2,-8,10,1,0,0,0,0,0,0,1,,,,,,,,,,,,,,,,,,,,,,,,,,,,,,,,,,,,,,,,,,,,,,,,,,,,,,,,,,,,,,,,,,,,,,,,,,,,,,,,,,,,,,,,,,,,,,,,,,,,,,,,,,,,,,,,
,,,,,,611eb692e24d9c502523b4ba,62c53a5cf93e51d4ae53c7c8,2022-07-06_09h33.16.139,Colour_Asymmetry_Pilot,2022.1.3,Win32,59.96641881,62c50e9c1127f2cd403a315f,,,,,,,,,,,,,,,,,,,"[0.11359999999999992,0.6312,0.5213999999999999]",threeone,"[0.9842,0.7409999999999999,-0.6628000000000001]",-1,3.5991,-44,-94,1,0,0,response5disk_5,15,5,1,0,0,rectangle_8,15,5,1,0,0,2,15,5,1,0,0,1,0,1,0,1,,,,,,,,,,,,,,,,,,,,,,,,,,,,,,,,,,,,,,,,,,,,,,,,,,,,,,,,,,,,,,,,,,,,,,,,,,,,,,,,,,,,,,,,,,,,,,,,,,,,,,,,,,,,,,,,
,,,,,,611eb692e24d9c502523b4ba,62c53a5cf93e51d4ae53c7c8,2022-07-06_09h33.16.139,Colour_Asymmetry_Pilot,2022.1.3,Win32,59.96641881,62c50e9c1127f2cd403a315f,,,,,,,,,,,,,,,,,,,"[-0.24719999999999998,-0.0354000000000001,0.3175999999999999]",threefour,"[0.5528,0.7409999999999999,-0.71]",-2,4.5606,-76,-48,1,0,0,response5disk_5,-15,-1,1,0,0,rectangle_8,-64,-47,1,0,0,2,4,-3,1,0,0,2,0,2,0,1,response5disk_7,2,rectangle_4,,,,,,,,,,,,,,,,,,,,,,,,,,,,,,,,,,,,,,,,,,,,,,,,,,,,,,,,,,,,,,,,,,,,,,,,,,,,,,,,,,,,,,,,,,,,,,,,,,,,,,,,,,,,,
,,,,,,611eb692e24d9c502523b4ba,62c53a5cf93e51d4ae53c7c8,2022-07-06_09h33.16.139,Colour_Asymmetry_Pilot,2022.1.3,Win32,59.96641881,62c50e9c1127f2cd403a315f,,,,,,,,,,,,,,,,,,,"[-0.01980000000000004,-0.5138,-0.38039999999999996]",threeone,"[-0.4902000000000001,0.2704,-0.45899999999999996]",-1,2.5034,-57,-86,1,0,0,response5disk_5,-15,5,1,0,0,rectangle_8,-15,5,1,0,0,2,-15,5,1,0,0,3,0,3,0,1,,,,,,,,,,,,,,,,,,,,,,,,,,,,,,,,,,,,,,,,,,,,,,,,,,,,,,,,,,,,,,,,,,,,,,,,,,,,,,,,,,,,,,,,,,,,,,,,,,,,,,,,,,,,,,,,
,,,,,,611eb692e24d9c502523b4ba,62c53a5cf93e51d4ae53c7c8,2022-07-06_09h33.16.139,Colour_Asymmetry_Pilot,2022.1.3,Win32,59.96641881,62c50e9c1127f2cd403a315f,,,,,,,,,,,,,,,,,,,"[-0.9296,-0.12959999999999994,-0.043199999999999905]",twoone,"[-0.011800000000000033,-0.906,-0.45100000000000007]",-3,2.3783,-74,43,1,0,0,response7disk_5,7,-12,1,0,0,rectangle_8,81,-31,1,0,0,2,15,12,1,0,0,4,0,4,0,1,response3disk_7,5,rectangle_4,,,,,,,,,,,,,,,,,,,,,,,,,,,,,,,,,,,,,,,,,,,,,,,,,,,,,,,,,,,,,,,,,,,,,,,,,,,,,,,,,,,,,,,,,,,,,,,,,,,,,,,,,,,,,
,,,,,,611eb692e24d9c502523b4ba,62c53a5cf93e51d4ae53c7c8,2022-07-06_09h33.16.139,Colour_Asymmetry_Pilot,2022.1.3,Win32,59.96641881,62c50e9c1127f2cd403a315f,,,,,,,,,,,,,,,,,,,"[0.8115999999999999,-0.0040000000000000036,-0.09819999999999995]",twofour,"[-0.17659999999999998,-0.2864,-0.8354]",2,3.3005,93,-42,1,0,0,response3disk_5,6,0,1,0,0,rectangle_8,6,0,1,0,0,2,6,0,1,0,0,5,0,5,0,1,,,,,,,,,,,,,,,,,,,,,,,,,,,,,,,,,,,,,,,,,,,,,,,,,,,,,,,,,,,,,,,,,,,,,,,,,,,,,,,,,,,,,,,,,,,,,,,,,,,,,,,,,,,,,,,,
,,,,,,611eb692e24d9c502523b4ba,62c53a5cf93e51d4ae53c7c8,2022-07-06_09h33.16.139,Colour_Asymmetry_Pilot,2022.1.3,Win32,59.96641881,62c50e9c1127f2cd403a315f,,,,,,,,,,,,,,,,,,,"[-0.0040000000000000036,0.02739999999999987,-0.08239999999999992]",threefour,"[0.9763999999999999,0.8588,-0.05900000000000005]",4,1.8407,39,78,1,0,0,response1disk_5,2,3,1,0,0,rectangle_8,2,3,1,0,0,2,2,3,1,0,0,6,0,6,0,1,,,,,,,,,,,,,,,,,,,,,,,,,,,,,,,,,,,,,,,,,,,,,,,,,,,,,,,,,,,,,,,,,,,,,,,,,,,,,,,,,,,,,,,,,,,,,,,,,,,,,,,,,,,,,,,,
,,,,,,611eb692e24d9c502523b4ba,62c53a5cf93e51d4ae53c7c8,2022-07-06_09h33.16.139,Colour_Asymmetry_Pilot,2022.1.3,Win32,59.96641881,62c50e9c1127f2cd403a315f,,,,,,,,,,,,,,,,,,,,onethree,,3,2.3167,,,,,,,,,,,,,,,,,,,,,,,,,,,,,,,,space,6.886,"[0.30180000000000007,-0.7884,-0.9844]","[-0.8198,-0.5138,-0.7492000000000001]",86,31,1,0,0,response1disk,18,9,1,0,0,rectangle,18,9,1,0,0,,3,0.0044,0,18,9,1,0,0,0,0,0,124,1,43,second,,,,,,,,,,,,,,,,,,,,,,,,,,,,,,,,,,,,,,,,,,,,,,,,,,,,,,,,,,,,,,,,,,,,,,,,
,,,,,,611eb692e24d9c502523b4ba,62c53a5cf93e51d4ae53c7c8,2022-07-06_09h33.16.139,Colour_Asymmetry_Pilot,2022.1.3,Win32,59.96641881,62c50e9c1127f2cd403a315f,,,,,,,,,,,,,,,,,,,,twoone,,4,1.116,,,,,,,,,,,,,,,,,,,,,,,,,,,,,,,,,,"[-0.20799999999999996,-0.655,-0.01980000000000004]","[0.40379999999999994,0.09000000000000008,0.44300000000000006]",32,93,1,0,0,response1disk,6,-4,1,0,0,rectangle,6,-4,1,0,0,,2,0.0017,0,6,-4,1,0,0,0,1,1,99,1,18,second,,,,,,,,,,,,,,,,,,,,,,,,,,,,,,,,,,,,,,,,,,,,,,,,,,,,,,,,,,,,,,,,,,,,,,,,
,,,,,,611eb692e24d9c502523b4ba,62c53a5cf93e51d4ae53c7c8,2022-07-06_09h33.16.139,Colour_Asymmetry_Pilot,2022.1.3,Win32,59.96641881,62c50e9c1127f2cd403a315f,,,,,,,,,,,,,,,,,,,,twoone,,4,1.384,,,,,,,,,,,,,,,,,,,,,,,,,,,,,,,,,,"[-0.9688,-0.38039999999999996,-0.41979999999999995]","[-0.26280000000000003,-0.4746,-0.2158]",28,62,1,0,0,response1disk,11,10,1,0,0,rectangle,11,10,1,0,0,,2,0.0003,0,11,10,1,0,0,0,2,2,142,1,61,second,,,,,,,,,,,,,,,,,,,,,,,,,,,,,,,,,,,,,,,,,,,,,,,,,,,,,,,,,,,,,,,,,,,,,,,,
,,,,,,611eb692e24d9c502523b4ba,62c53a5cf93e51d4ae53c7c8,2022-07-06_09h33.16.139,Colour_Asymmetry_Pilot,2022.1.3,Win32,59.96641881,62c50e9c1127f2cd403a315f,,,,,,,,,,,,,,,,,,,,twofour,,3,2.0956,,,,,,,,,,,,,,,,,,,,,,,,,,,,,,,,,,"[-0.2942,-0.24719999999999998,-0.357]","[-0.4668,-0.8746,-0.2942]",81,39,1,0,0,response1disk,20,3,1,0,0,rectangle,20,3,1,0,0,,2,0.0002,0,20,3,1,0,0,0,3,3,73,1,73,first,,,,,,,,,,,,,,,,,,,,,,,,,,,,,,,,,,,,,,,,,,,,,,,,,,,,,,,,,,,,,,,,,,,,,,,,
,,,,,,611eb692e24d9c502523b4ba,62c53a5cf93e51d4ae53c7c8,2022-07-06_09h33.16.139,Colour_Asymmetry_Pilot,2022.1.3,Win32,59.96641881,62c50e9c1127f2cd403a315f,,,,,,,,,,,,,,,,,,,,onetwo,,4,1.4017,,,,,,,,,,,,,,,,,,,,,,,,,,,,,,,,,,"[-0.45899999999999996,-0.3256,-0.9374]","[-0.38039999999999996,-0.4276,-0.1452]",37,65,1,0,0,response1disk,-4,0,1,0,0,rectangle,50,-70,1,0,0,1,1,7.1561,1,-15,5,1,0,0,0,4,4,161,1,80,second,response3disk_3,rectangle,,,,,,,,,,,,,,,,,,,,,,,,,,,,,,,,,,,,,,,,,,,,,,,,,,,,,,,,,,,,,,,,,,,,,,
,,,,,,611eb692e24d9c502523b4ba,62c53a5cf93e51d4ae53c7c8,2022-07-06_09h33.16.139,Colour_Asymmetry_Pilot,2022.1.3,Win32,59.96641881,62c50e9c1127f2cd403a315f,,,,,,,,,,,,,,,,,,,,twoone,,3,2.4925,,,,,,,,,,,,,,,,,,,,,,,,,,,,,,,,,,"[0.11359999999999992,0.6312,0.5213999999999999]","[-0.9296,-0.12959999999999994,-0.043199999999999905]",83,49,1,0,0,response1disk,-2,-4,1,0,0,rectangle,68,-32,1,0,0,2,2,7.153,1,19,-8,1,0,0,0,5,5,159,1,78,second,response3disk_3,rectangle,,,,,,,,,,,,,,,,,,,,,,,,,,,,,,,,,,,,,,,,,,,,,,,,,,,,,,,,,,,,,,,,,,,,,,
,,,,,,611eb692e24d9c502523b4ba,62c53a5cf93e51d4ae53c7c8,2022-07-06_09h33.16.139,Colour_Asymmetry_Pilot,2022.1.3,Win32,59.96641881,62c50e9c1127f2cd403a315f,,,,,,,,,,,,,,,,,,,,threeone,,2,9.5988,,,,,,,,,,,,,,,,,,,,,,,,,,,,,,,,,,"[-0.17659999999999998,-0.2864,-0.8354]","[-0.5688,-0.08239999999999992,-0.1844]",70,-30,1,0,0,response3disk,19,3,1,0,0,rectangle,19,3,1,0,0,2,2,0.0002,0,19,3,1,0,0,0,6,6,75,1,75,first,,,,,,,,,,,,,,,,,,,,,,,,,,,,,,,,,,,,,,,,,,,,,,,,,,,,,,,,,,,,,,,,,,,,,,,,
,,,,,,611eb692e24d9c502523b4ba,62c53a5cf93e51d4ae53c7c8,2022-07-06_09h33.16.139,Colour_Asymmetry_Pilot,2022.1.3,Win32,59.96641881,62c50e9c1127f2cd403a315f,,,,,,,,,,,,,,,,,,,,threefour,,-1,3.5683,,,,,,,,,,,,,,,,,,,,,,,,,,,,,,,,,,"[-0.9688,-0.4902000000000001,-0.12159999999999993]","[0.5449999999999999,-0.31000000000000005,-0.0354000000000001]",-29,-108,1,0,0,response5disk,13,-2,1,0,0,rectangle,13,-2,1,0,0,2,2,0.0002,0,13,-2,1,0,0,0,7,7,101,1,20,second,,,,,,,,,,,,,,,,,,,,,,,,,,,,,,,,,,,,,,,,,,,,,,,,,,,,,,,,,,,,,,,,,,,,,,,,
,,,,,,611eb692e24d9c502523b4ba,62c53a5cf93e51d4ae53c7c8,2022-07-06_09h33.16.139,Colour_Asymmetry_Pilot,2022.1.3,Win32,59.96641881,62c50e9c1127f2cd403a315f,,,,,,,,,,,,,,,,,,,,onethree,,-1,1.5947,,,,,,,,,,,,,,,,,,,,,,,,,,,,,,,,,,"[0.9763999999999999,-0.1137999999999999,-0.6314]","[-0.8198,-0.5138,-0.7492000000000001]",-54,-76,1,0,0,response5disk,1,-4,1,0,0,rectangle,1,-4,1,0,0,2,1,0.0012,0,1,-4,1,0,0,0,8,8,64,1,64,first,,,,,,,,,,,,,,,,,,,,,,,,,,,,,,,,,,,,,,,,,,,,,,,,,,,,,,,,,,,,,,,,,,,,,,,,
,,,,,,611eb692e24d9c502523b4ba,62c53a5cf93e51d4ae53c7c8,2022-07-06_09h33.16.139,Colour_Asymmetry_Pilot,2022.1.3,Win32,59.96641881,62c50e9c1127f2cd403a315f,,,,,,,,,,,,,,,,,,,,threeone,,-1,3.1047,,,,,,,,,,,,,,,,,,,,,,,,,,,,,,,,,,"[0.37240000000000006,0.4980000000000002,-0.2864]","[-0.9844,-0.9688,-0.9922]",-35,-89,1,0,0,response5disk,-8,8,1,0,0,rectangle,-8,8,1,0,0,2,1,0.0006,0,-8,8,1,0,0,0,9,9,126,1,45,second,,,,,,,,,,,,,,,,,,,,,,,,,,,,,,,,,,,,,,,,,,,,,,,,,,,,,,,,,,,,,,,,,,,,,,,,
,,,,,,611eb692e24d9c502523b4ba,62c53a5cf93e51d4ae53c7c8,2022-07-06_09h33.16.139,Colour_Asymmetry_Pilot,2022.1.3,Win32,59.96641881,62c50e9c1127f2cd403a315f,,,,,,,,,,,,,,,,,,,,threefour,,3,1.7931,,,,,,,,,,,,,,,,,,,,,,,,,,,,,,,,,,"[-0.26280000000000003,-0.4746,-0.2158]","[-0.26280000000000003,-0.2158,-0.3256]",79,51,1,0,0,response1disk,17,5,1,0,0,rectangle,17,5,1,0,0,2,2,0.0018,0,17,5,1,0,0,0,10,10,23,1,23,first,,,,,,,,,,,,,,,,,,,,,,,,,,,,,,,,,,,,,,,,,,,,,,,,,,,,,,,,,,,,,,,,,,,,,,,,
,,,,,,611eb692e24d9c502523b4ba,62c53a5cf93e51d4ae53c7c8,2022-07-06_09h33.16.139,Colour_Asymmetry_Pilot,2022.1.3,Win32,59.96641881,62c50e9c1127f2cd403a315f,,,,,,,,,,,,,,,,,,,,twofour,,-1,2.7735,,,,,,,,,,,,,,,,,,,,,,,,,,,,,,,,,,"[-0.8198,-0.5138,-0.7492000000000001]","[0.18419999999999992,-0.4276,-0.404]",-38,-98,1,0,0,response5disk,10,-2,1,0,0,rectangle,10,-2,1,0,0,2,2,0.0003,0,10,-2,1,0,0,0,11,11,109,1,28,second,,,,,,,,,,,,,,,,,,,,,,,,,,,,,,,,,,,,,,,,,,,,,,,,,,,,,,,,,,,,,,,,,,,,,,,,
,,,,,,611eb692e24d9c502523b4ba,62c53a5cf93e51d4ae53c7c8,2022-07-06_09h33.16.139,Colour_Asymmetry_Pilot,2022.1.3,Win32,59.96641881,62c50e9c1127f2cd403a315f,,,,,,,,,,,,,,,,,,,,threeone,,2,1.667,,,,,,,,,,,,,,,,,,,,,,,,,,,,,,,,,,"[-0.2942,-0.24719999999999998,-0.357]","[-0.9844,-0.9688,-0.9922]",54,-38,1,0,0,response3disk,19,6,1,0,0,rectangle,19,6,1,0,0,2,2,0.0003,0,19,6,1,0,0,0,12,12,6,1,6,first,,,,,,,,,,,,,,,,,,,,,,,,,,,,,,,,,,,,,,,,,,,,,,,,,,,,,,,,,,,,,,,,,,,,,,,,
,,,,,,611eb692e24d9c502523b4ba,62c53a5cf93e51d4ae53c7c8,2022-07-06_09h33.16.139,Colour_Asymmetry_Pilot,2022.1.3,Win32,59.96641881,62c50e9c1127f2cd403a315f,,,,,,,,,,,,,,,,,,,,fourtwo,,2,1.5834,,,,,,,,,,,,,,,,,,,,,,,,,,,,,,,,,,"[-0.5922000000000001,-0.7492000000000001,-0.5296000000000001]","[0.09799999999999986,-0.24719999999999998,0.15280000000000005]",96,-39,1,0,0,response3disk,13,10,1,0,0,rectangle,13,10,1,0,0,2,3,0.0027,0,13,10,1,0,0,0,13,13,38,1,38,first,,,,,,,,,,,,,,,,,,,,,,,,,,,,,,,,,,,,,,,,,,,,,,,,,,,,,,,,,,,,,,,,,,,,,,,,
,,,,,,611eb692e24d9c502523b4ba,62c53a5cf93e51d4ae53c7c8,2022-07-06_09h33.16.139,Colour_Asymmetry_Pilot,2022.1.3,Win32,59.96641881,62c50e9c1127f2cd403a315f,,,,,,,,,,,,,,,,,,,,twoone,,4,1.3973,,,,,,,,,,,,,,,,,,,,,,,,,,,,,,,,,,"[-0.6,0.16860000000000008,0.44300000000000006]","[0.11359999999999992,0.6312,0.5213999999999999]",47,87,1,0,0,response1disk,-14,3,1,0,0,rectangle,-14,3,1,0,0,2,3,0.0005,0,-14,3,1,0,0,0,14,14,158,1,77,second,,,,,,,,,,,,,,,,,,,,,,,,,,,,,,,,,,,,,,,,,,,,,,,,,,,,,,,,,,,,,,,,,,,,,,,,
,,,,,,611eb692e24d9c502523b4ba,62c53a5cf93e51d4ae53c7c8,2022-07-06_09h33.16.139,Colour_Asymmetry_Pilot,2022.1.3,Win32,59.96641881,62c50e9c1127f2cd403a315f,,,,,,,,,,,,,,,,,,,,onethree,,3,1.467,,,,,,,,,,,,,,,,,,,,,,,,,,,,,,,,,,"[-0.06680000000000008,-0.45100000000000007,-0.906]","[-0.26280000000000003,-0.2158,-0.3256]",67,32,1,0,0,response1disk,22,-1,1,0,0,rectangle,22,-1,1,0,0,2,3,0.0003,0,22,-1,1,0,0,0,15,15,144,1,63,second,,,,,,,,,,,,,,,,,,,,,,,,,,,,,,,,,,,,,,,,,,,,,,,,,,,,,,,,,,,,,,,,,,,,,,,,
,,,,,,611eb692e24d9c502523b4ba,62c53a5cf93e51d4ae53c7c8,2022-07-06_09h33.16.139,Colour_Asymmetry_Pilot,2022.1.3,Win32,59.96641881,62c50e9c1127f2cd403a315f,,,,,,,,,,,,,,,,,,,,twoone,,1,1.3847,,,,,,,,,,,,,,,,,,,,,,,,,,,,,,,,,,"[-0.26280000000000003,-0.2158,-0.3256]","[-0.26280000000000003,-0.4746,-0.2158]",49,-68,1,0,0,response3disk,5,-7,1,0,0,rectangle,75,-30,1,0,0,2,2,4.9155,1,-18,14,1,0,0,0,16,16,104,1,23,second,response3disk_3,rectangle,,,,,,,,,,,,,,,,,,,,,,,,,,,,,,,,,,,,,,,,,,,,,,,,,,,,,,,,,,,,,,,,,,,,,,
,,,,,,611eb692e24d9c502523b4ba,62c53a5cf93e51d4ae53c7c8,2022-07-06_09h33.16.139,Colour_Asymmetry_Pilot,2022.1.3,Win32,59.96641881,62c50e9c1127f2cd403a315f,,,,,,,,,,,,,,,,,,,,onetwo,,-1,1.9013,,,,,,,,,,,,,,,,,,,,,,,,,,,,,,,,,,"[-0.4276,0.0038000000000000256,-0.3256]","[0.34099999999999997,0.12939999999999996,-0.9766]",-33,-85,1,0,0,response5disk,-5,11,1,0,0,rectangle,-5,11,1,0,0,2,3,0.0011,0,-5,11,1,0,0,0,17,17,4,1,4,first,,,,,,,,,,,,,,,,,,,,,,,,,,,,,,,,,,,,,,,,,,,,,,,,,,,,,,,,,,,,,,,,,,,,,,,,
