trials.thisRepN,trials.thisTrialN,trials.thisN,trials.thisIndex,trials.ran,Colourcodes,participant,session,date,expName,psychopyVersion,OS,frameRate,study_id,trials_4.thisRepN,trials_4.thisTrialN,trials_4.thisN,trials_4.thisIndex,trials_4.ran,StimulusPos,key_resp.keys,key_resp.rt,key_resp_2.keys,key_resp_2.rt,key_resp_15.keys,key_resp_15.rt,key_resp_17.keys,key_resp_17.rt,key_resp_9.keys,key_resp_9.rt,key_resp_10.keys,key_resp_10.rt,Circle1_col,Ecc,Circle2_col,similarity,response_time,mouse_5.x,mouse_5.y,mouse_5.leftButton,mouse_5.midButton,mouse_5.rightButton,mouse_5.clicked_name,mouse_10.x,mouse_10.y,mouse_10.leftButton,mouse_10.midButton,mouse_10.rightButton,mouse_10.clicked_name,mouse_7.x,mouse_7.y,mouse_7.leftButton,mouse_7.midButton,mouse_7.rightButton,catchnumberprac,mouse_6.x,mouse_6.y,mouse_6.leftButton,mouse_6.midButton,mouse_6.rightButton,duringprac.thisRepN,duringprac.thisTrialN,duringprac.thisN,duringprac.thisIndex,duringprac.ran,mouse_7.clicked_name,catchprac,mouse_6.clicked_name,key_resp_22.keys,key_resp_22.rt,Circle1_colour,Circle2_colour,mouse.x,mouse.y,mouse.leftButton,mouse.midButton,mouse.rightButton,mouse.clicked_name,mouse_2.x,mouse_2.y,mouse_2.leftButton,mouse_2.midButton,mouse_2.rightButton,mouse_2.clicked_name,mouse_3.x,mouse_3.y,mouse_3.leftButton,mouse_3.midButton,mouse_3.rightButton,catchresponse,catchnumber,response_time_catch,Catch,mouse_11.x,mouse_11.y,mouse_11.leftButton,mouse_11.midButton,mouse_11.rightButton,trials_2.thisRepN,trials_2.thisTrialN,trials_2.thisN,trials_2.thisIndex,trials_2.ran,Colourpair,Temporder,mouse_3.clicked_name,mouse_11.clicked_name,trials_3.thisRepN,trials_3.thisTrialN,trials_3.thisN,trials_3.thisIndex,trials_3.ran,key_resp_instr_Ishi.keys,key_resp_instr_Ishi.rt,Ishi_trial_keyresp.keys,Ishi_textbox.text,Ishi_mouse.x,Ishi_mouse.y,Ishi_mouse.leftButton,Ishi_mouse.midButton,Ishi_mouse.rightButton,Ishi_mouse.clicked_name,Ishi_loop.thisRepN,Ishi_loop.thisTrialN,Ishi_loop.thisN,Ishi_loop.thisIndex,Ishi_loop.ran,imageaddress,textbox.text,mouse_4.x,mouse_4.y,mouse_4.leftButton,mouse_4.midButton,mouse_4.rightButton,mouse_4.clicked_name,textbox_2.text,mouse_8.x,mouse_8.y,mouse_8.leftButton,mouse_8.midButton,mouse_8.rightButton,mouse_8.clicked_name,textbox_3.text,mouse_9.x,mouse_9.y,mouse_9.leftButton,mouse_9.midButton,mouse_9.rightButton,mouse_9.clicked_name,textbox_4.text,mouse_12.x,mouse_12.y,mouse_12.leftButton,mouse_12.midButton,mouse_12.rightButton,mouse_12.clicked_name,textbox_5.text,mouse_13.x,mouse_13.y,mouse_13.leftButton,mouse_13.midButton,mouse_13.rightButton,mouse_13.clicked_name,textbox_6.text,mouse_14.x,mouse_14.y,mouse_14.leftButton,mouse_14.midButton,mouse_14.rightButton,mouse_14.clicked_name,textbox_7.text,mouse_15.x,mouse_15.y,mouse_15.leftButton,mouse_15.midButton,mouse_15.rightButton,mouse_15.clicked_name
0,0,0,77,1,,5f946b72d654c628ea868716,62c53a3defe3f624ee48cff2,2022-07-06_09h31.45.463,Colour_Asymmetry_Pilot,2022.1.3,Win32,144.2377037,62c50e9c1127f2cd403a315f,,,,,,,,,,,,,,,,,,,,,,,,,,,,,,,,,,,,,,,,,,,,,,,,,,,,,,,,,,,,,,,,,,,,,,,,,,,,,,,,,,,,,,,,,,,,,,,,,,,,,,,,,,,,,,,,,,,,,,,,,,,,,,,,,,,,,,,,,,,,,,,,,,,,,,,,,,,,,,,,,,,
0,1,1,41,1,,5f946b72d654c628ea868716,62c53a3defe3f624ee48cff2,2022-07-06_09h31.45.463,Colour_Asymmetry_Pilot,2022.1.3,Win32,144.2377037,62c50e9c1127f2cd403a315f,,,,,,,,,,,,,,,,,,,,,,,,,,,,,,,,,,,,,,,,,,,,,,,,,,,,,,,,,,,,,,,,,,,,,,,,,,,,,,,,,,,,,,,,,,,,,,,,,,,,,,,,,,,,,,,,,,,,,,,,,,,,,,,,,,,,,,,,,,,,,,,,,,,,,,,,,,,,,,,,,,,
0,2,2,16,1,,5f946b72d654c628ea868716,62c53a3defe3f624ee48cff2,2022-07-06_09h31.45.463,Colour_Asymmetry_Pilot,2022.1.3,Win32,144.2377037,62c50e9c1127f2cd403a315f,,,,,,,,,,,,,,,,,,,,,,,,,,,,,,,,,,,,,,,,,,,,,,,,,,,,,,,,,,,,,,,,,,,,,,,,,,,,,,,,,,,,,,,,,,,,,,,,,,,,,,,,,,,,,,,,,,,,,,,,,,,,,,,,,,,,,,,,,,,,,,,,,,,,,,,,,,,,,,,,,,,
0,3,3,3,1,,5f946b72d654c628ea868716,62c53a3defe3f624ee48cff2,2022-07-06_09h31.45.463,Colour_Asymmetry_Pilot,2022.1.3,Win32,144.2377037,62c50e9c1127f2cd403a315f,,,,,,,,,,,,,,,,,,,,,,,,,,,,,,,,,,,,,,,,,,,,,,,,,,,,,,,,,,,,,,,,,,,,,,,,,,,,,,,,,,,,,,,,,,,,,,,,,,,,,,,,,,,,,,,,,,,,,,,,,,,,,,,,,,,,,,,,,,,,,,,,,,,,,,,,,,,,,,,,,,,
0,4,4,63,1,,5f946b72d654c628ea868716,62c53a3defe3f624ee48cff2,2022-07-06_09h31.45.463,Colour_Asymmetry_Pilot,2022.1.3,Win32,144.2377037,62c50e9c1127f2cd403a315f,,,,,,,,,,,,,,,,,,,,,,,,,,,,,,,,,,,,,,,,,,,,,,,,,,,,,,,,,,,,,,,,,,,,,,,,,,,,,,,,,,,,,,,,,,,,,,,,,,,,,,,,,,,,,,,,,,,,,,,,,,,,,,,,,,,,,,,,,,,,,,,,,,,,,,,,,,,,,,,,,,,
0,5,5,22,1,,5f946b72d654c628ea868716,62c53a3defe3f624ee48cff2,2022-07-06_09h31.45.463,Colour_Asymmetry_Pilot,2022.1.3,Win32,144.2377037,62c50e9c1127f2cd403a315f,,,,,,,,,,,,,,,,,,,,,,,,,,,,,,,,,,,,,,,,,,,,,,,,,,,,,,,,,,,,,,,,,,,,,,,,,,,,,,,,,,,,,,,,,,,,,,,,,,,,,,,,,,,,,,,,,,,,,,,,,,,,,,,,,,,,,,,,,,,,,,,,,,,,,,,,,,,,,,,,,,,
0,6,6,1,1,,5f946b72d654c628ea868716,62c53a3defe3f624ee48cff2,2022-07-06_09h31.45.463,Colour_Asymmetry_Pilot,2022.1.3,Win32,144.2377037,62c50e9c1127f2cd403a315f,,,,,,,,,,,,,,,,,,,,,,,,,,,,,,,,,,,,,,,,,,,,,,,,,,,,,,,,,,,,,,,,,,,,,,,,,,,,,,,,,,,,,,,,,,,,,,,,,,,,,,,,,,,,,,,,,,,,,,,,,,,,,,,,,,,,,,,,,,,,,,,,,,,,,,,,,,,,,,,,,,,
0,7,7,78,1,,5f946b72d654c628ea868716,62c53a3defe3f624ee48cff2,2022-07-06_09h31.45.463,Colour_Asymmetry_Pilot,2022.1.3,Win32,144.2377037,62c50e9c1127f2cd403a315f,,,,,,,,,,,,,,,,,,,,,,,,,,,,,,,,,,,,,,,,,,,,,,,,,,,,,,,,,,,,,,,,,,,,,,,,,,,,,,,,,,,,,,,,,,,,,,,,,,,,,,,,,,,,,,,,,,,,,,,,,,,,,,,,,,,,,,,,,,,,,,,,,,,,,,,,,,,,,,,,,,,
0,8,8,56,1,,5f946b72d654c628ea868716,62c53a3defe3f624ee48cff2,2022-07-06_09h31.45.463,Colour_Asymmetry_Pilot,2022.1.3,Win32,144.2377037,62c50e9c1127f2cd403a315f,,,,,,,,,,,,,,,,,,,,,,,,,,,,,,,,,,,,,,,,,,,,,,,,,,,,,,,,,,,,,,,,,,,,,,,,,,,,,,,,,,,,,,,,,,,,,,,,,,,,,,,,,,,,,,,,,,,,,,,,,,,,,,,,,,,,,,,,,,,,,,,,,,,,,,,,,,,,,,,,,,,
0,9,9,35,1,,5f946b72d654c628ea868716,62c53a3defe3f624ee48cff2,2022-07-06_09h31.45.463,Colour_Asymmetry_Pilot,2022.1.3,Win32,144.2377037,62c50e9c1127f2cd403a315f,,,,,,,,,,,,,,,,,,,,,,,,,,,,,,,,,,,,,,,,,,,,,,,,,,,,,,,,,,,,,,,,,,,,,,,,,,,,,,,,,,,,,,,,,,,,,,,,,,,,,,,,,,,,,,,,,,,,,,,,,,,,,,,,,,,,,,,,,,,,,,,,,,,,,,,,,,,,,,,,,,,
0,10,10,81,1,,5f946b72d654c628ea868716,62c53a3defe3f624ee48cff2,2022-07-06_09h31.45.463,Colour_Asymmetry_Pilot,2022.1.3,Win32,144.2377037,62c50e9c1127f2cd403a315f,,,,,,,,,,,,,,,,,,,,,,,,,,,,,,,,,,,,,,,,,,,,,,,,,,,,,,,,,,,,,,,,,,,,,,,,,,,,,,,,,,,,,,,,,,,,,,,,,,,,,,,,,,,,,,,,,,,,,,,,,,,,,,,,,,,,,,,,,,,,,,,,,,,,,,,,,,,,,,,,,,,
0,11,11,21,1,,5f946b72d654c628ea868716,62c53a3defe3f624ee48cff2,2022-07-06_09h31.45.463,Colour_Asymmetry_Pilot,2022.1.3,Win32,144.2377037,62c50e9c1127f2cd403a315f,,,,,,,,,,,,,,,,,,,,,,,,,,,,,,,,,,,,,,,,,,,,,,,,,,,,,,,,,,,,,,,,,,,,,,,,,,,,,,,,,,,,,,,,,,,,,,,,,,,,,,,,,,,,,,,,,,,,,,,,,,,,,,,,,,,,,,,,,,,,,,,,,,,,,,,,,,,,,,,,,,,
0,12,12,28,1,,5f946b72d654c628ea868716,62c53a3defe3f624ee48cff2,2022-07-06_09h31.45.463,Colour_Asymmetry_Pilot,2022.1.3,Win32,144.2377037,62c50e9c1127f2cd403a315f,,,,,,,,,,,,,,,,,,,,,,,,,,,,,,,,,,,,,,,,,,,,,,,,,,,,,,,,,,,,,,,,,,,,,,,,,,,,,,,,,,,,,,,,,,,,,,,,,,,,,,,,,,,,,,,,,,,,,,,,,,,,,,,,,,,,,,,,,,,,,,,,,,,,,,,,,,,,,,,,,,,
0,13,13,82,1,,5f946b72d654c628ea868716,62c53a3defe3f624ee48cff2,2022-07-06_09h31.45.463,Colour_Asymmetry_Pilot,2022.1.3,Win32,144.2377037,62c50e9c1127f2cd403a315f,,,,,,,,,,,,,,,,,,,,,,,,,,,,,,,,,,,,,,,,,,,,,,,,,,,,,,,,,,,,,,,,,,,,,,,,,,,,,,,,,,,,,,,,,,,,,,,,,,,,,,,,,,,,,,,,,,,,,,,,,,,,,,,,,,,,,,,,,,,,,,,,,,,,,,,,,,,,,,,,,,,
0,14,14,6,1,,5f946b72d654c628ea868716,62c53a3defe3f624ee48cff2,2022-07-06_09h31.45.463,Colour_Asymmetry_Pilot,2022.1.3,Win32,144.2377037,62c50e9c1127f2cd403a315f,,,,,,,,,,,,,,,,,,,,,,,,,,,,,,,,,,,,,,,,,,,,,,,,,,,,,,,,,,,,,,,,,,,,,,,,,,,,,,,,,,,,,,,,,,,,,,,,,,,,,,,,,,,,,,,,,,,,,,,,,,,,,,,,,,,,,,,,,,,,,,,,,,,,,,,,,,,,,,,,,,,
0,15,15,20,1,,5f946b72d654c628ea868716,62c53a3defe3f624ee48cff2,2022-07-06_09h31.45.463,Colour_Asymmetry_Pilot,2022.1.3,Win32,144.2377037,62c50e9c1127f2cd403a315f,,,,,,,,,,,,,,,,,,,,,,,,,,,,,,,,,,,,,,,,,,,,,,,,,,,,,,,,,,,,,,,,,,,,,,,,,,,,,,,,,,,,,,,,,,,,,,,,,,,,,,,,,,,,,,,,,,,,,,,,,,,,,,,,,,,,,,,,,,,,,,,,,,,,,,,,,,,,,,,,,,,
0,16,16,39,1,,5f946b72d654c628ea868716,62c53a3defe3f624ee48cff2,2022-07-06_09h31.45.463,Colour_Asymmetry_Pilot,2022.1.3,Win32,144.2377037,62c50e9c1127f2cd403a315f,,,,,,,,,,,,,,,,,,,,,,,,,,,,,,,,,,,,,,,,,,,,,,,,,,,,,,,,,,,,,,,,,,,,,,,,,,,,,,,,,,,,,,,,,,,,,,,,,,,,,,,,,,,,,,,,,,,,,,,,,,,,,,,,,,,,,,,,,,,,,,,,,,,,,,,,,,,,,,,,,,,
0,17,17,70,1,,5f946b72d654c628ea868716,62c53a3defe3f624ee48cff2,2022-07-06_09h31.45.463,Colour_Asymmetry_Pilot,2022.1.3,Win32,144.2377037,62c50e9c1127f2cd403a315f,,,,,,,,,,,,,,,,,,,,,,,,,,,,,,,,,,,,,,,,,,,,,,,,,,,,,,,,,,,,,,,,,,,,,,,,,,,,,,,,,,,,,,,,,,,,,,,,,,,,,,,,,,,,,,,,,,,,,,,,,,,,,,,,,,,,,,,,,,,,,,,,,,,,,,,,,,,,,,,,,,,
0,18,18,51,1,,5f946b72d654c628ea868716,62c53a3defe3f624ee48cff2,2022-07-06_09h31.45.463,Colour_Asymmetry_Pilot,2022.1.3,Win32,144.2377037,62c50e9c1127f2cd403a315f,,,,,,,,,,,,,,,,,,,,,,,,,,,,,,,,,,,,,,,,,,,,,,,,,,,,,,,,,,,,,,,,,,,,,,,,,,,,,,,,,,,,,,,,,,,,,,,,,,,,,,,,,,,,,,,,,,,,,,,,,,,,,,,,,,,,,,,,,,,,,,,,,,,,,,,,,,,,,,,,,,,
0,19,19,92,1,,5f946b72d654c628ea868716,62c53a3defe3f624ee48cff2,2022-07-06_09h31.45.463,Colour_Asymmetry_Pilot,2022.1.3,Win32,144.2377037,62c50e9c1127f2cd403a315f,,,,,,,,,,,,,,,,,,,,,,,,,,,,,,,,,,,,,,,,,,,,,,,,,,,,,,,,,,,,,,,,,,,,,,,,,,,,,,,,,,,,,,,,,,,,,,,,,,,,,,,,,,,,,,,,,,,,,,,,,,,,,,,,,,,,,,,,,,,,,,,,,,,,,,,,,,,,,,,,,,,
0,20,20,85,1,,5f946b72d654c628ea868716,62c53a3defe3f624ee48cff2,2022-07-06_09h31.45.463,Colour_Asymmetry_Pilot,2022.1.3,Win32,144.2377037,62c50e9c1127f2cd403a315f,,,,,,,,,,,,,,,,,,,,,,,,,,,,,,,,,,,,,,,,,,,,,,,,,,,,,,,,,,,,,,,,,,,,,,,,,,,,,,,,,,,,,,,,,,,,,,,,,,,,,,,,,,,,,,,,,,,,,,,,,,,,,,,,,,,,,,,,,,,,,,,,,,,,,,,,,,,,,,,,,,,
0,21,21,4,1,,5f946b72d654c628ea868716,62c53a3defe3f624ee48cff2,2022-07-06_09h31.45.463,Colour_Asymmetry_Pilot,2022.1.3,Win32,144.2377037,62c50e9c1127f2cd403a315f,,,,,,,,,,,,,,,,,,,,,,,,,,,,,,,,,,,,,,,,,,,,,,,,,,,,,,,,,,,,,,,,,,,,,,,,,,,,,,,,,,,,,,,,,,,,,,,,,,,,,,,,,,,,,,,,,,,,,,,,,,,,,,,,,,,,,,,,,,,,,,,,,,,,,,,,,,,,,,,,,,,
0,22,22,26,1,,5f946b72d654c628ea868716,62c53a3defe3f624ee48cff2,2022-07-06_09h31.45.463,Colour_Asymmetry_Pilot,2022.1.3,Win32,144.2377037,62c50e9c1127f2cd403a315f,,,,,,,,,,,,,,,,,,,,,,,,,,,,,,,,,,,,,,,,,,,,,,,,,,,,,,,,,,,,,,,,,,,,,,,,,,,,,,,,,,,,,,,,,,,,,,,,,,,,,,,,,,,,,,,,,,,,,,,,,,,,,,,,,,,,,,,,,,,,,,,,,,,,,,,,,,,,,,,,,,,
0,23,23,73,1,,5f946b72d654c628ea868716,62c53a3defe3f624ee48cff2,2022-07-06_09h31.45.463,Colour_Asymmetry_Pilot,2022.1.3,Win32,144.2377037,62c50e9c1127f2cd403a315f,,,,,,,,,,,,,,,,,,,,,,,,,,,,,,,,,,,,,,,,,,,,,,,,,,,,,,,,,,,,,,,,,,,,,,,,,,,,,,,,,,,,,,,,,,,,,,,,,,,,,,,,,,,,,,,,,,,,,,,,,,,,,,,,,,,,,,,,,,,,,,,,,,,,,,,,,,,,,,,,,,,
0,24,24,46,1,,5f946b72d654c628ea868716,62c53a3defe3f624ee48cff2,2022-07-06_09h31.45.463,Colour_Asymmetry_Pilot,2022.1.3,Win32,144.2377037,62c50e9c1127f2cd403a315f,,,,,,,,,,,,,,,,,,,,,,,,,,,,,,,,,,,,,,,,,,,,,,,,,,,,,,,,,,,,,,,,,,,,,,,,,,,,,,,,,,,,,,,,,,,,,,,,,,,,,,,,,,,,,,,,,,,,,,,,,,,,,,,,,,,,,,,,,,,,,,,,,,,,,,,,,,,,,,,,,,,
0,25,25,40,1,,5f946b72d654c628ea868716,62c53a3defe3f624ee48cff2,2022-07-06_09h31.45.463,Colour_Asymmetry_Pilot,2022.1.3,Win32,144.2377037,62c50e9c1127f2cd403a315f,,,,,,,,,,,,,,,,,,,,,,,,,,,,,,,,,,,,,,,,,,,,,,,,,,,,,,,,,,,,,,,,,,,,,,,,,,,,,,,,,,,,,,,,,,,,,,,,,,,,,,,,,,,,,,,,,,,,,,,,,,,,,,,,,,,,,,,,,,,,,,,,,,,,,,,,,,,,,,,,,,,
0,26,26,14,1,,5f946b72d654c628ea868716,62c53a3defe3f624ee48cff2,2022-07-06_09h31.45.463,Colour_Asymmetry_Pilot,2022.1.3,Win32,144.2377037,62c50e9c1127f2cd403a315f,,,,,,,,,,,,,,,,,,,,,,,,,,,,,,,,,,,,,,,,,,,,,,,,,,,,,,,,,,,,,,,,,,,,,,,,,,,,,,,,,,,,,,,,,,,,,,,,,,,,,,,,,,,,,,,,,,,,,,,,,,,,,,,,,,,,,,,,,,,,,,,,,,,,,,,,,,,,,,,,,,,
0,27,27,11,1,,5f946b72d654c628ea868716,62c53a3defe3f624ee48cff2,2022-07-06_09h31.45.463,Colour_Asymmetry_Pilot,2022.1.3,Win32,144.2377037,62c50e9c1127f2cd403a315f,,,,,,,,,,,,,,,,,,,,,,,,,,,,,,,,,,,,,,,,,,,,,,,,,,,,,,,,,,,,,,,,,,,,,,,,,,,,,,,,,,,,,,,,,,,,,,,,,,,,,,,,,,,,,,,,,,,,,,,,,,,,,,,,,,,,,,,,,,,,,,,,,,,,,,,,,,,,,,,,,,,
0,28,28,38,1,,5f946b72d654c628ea868716,62c53a3defe3f624ee48cff2,2022-07-06_09h31.45.463,Colour_Asymmetry_Pilot,2022.1.3,Win32,144.2377037,62c50e9c1127f2cd403a315f,,,,,,,,,,,,,,,,,,,,,,,,,,,,,,,,,,,,,,,,,,,,,,,,,,,,,,,,,,,,,,,,,,,,,,,,,,,,,,,,,,,,,,,,,,,,,,,,,,,,,,,,,,,,,,,,,,,,,,,,,,,,,,,,,,,,,,,,,,,,,,,,,,,,,,,,,,,,,,,,,,,
0,29,29,86,1,,5f946b72d654c628ea868716,62c53a3defe3f624ee48cff2,2022-07-06_09h31.45.463,Colour_Asymmetry_Pilot,2022.1.3,Win32,144.2377037,62c50e9c1127f2cd403a315f,,,,,,,,,,,,,,,,,,,,,,,,,,,,,,,,,,,,,,,,,,,,,,,,,,,,,,,,,,,,,,,,,,,,,,,,,,,,,,,,,,,,,,,,,,,,,,,,,,,,,,,,,,,,,,,,,,,,,,,,,,,,,,,,,,,,,,,,,,,,,,,,,,,,,,,,,,,,,,,,,,,
0,30,30,66,1,,5f946b72d654c628ea868716,62c53a3defe3f624ee48cff2,2022-07-06_09h31.45.463,Colour_Asymmetry_Pilot,2022.1.3,Win32,144.2377037,62c50e9c1127f2cd403a315f,,,,,,,,,,,,,,,,,,,,,,,,,,,,,,,,,,,,,,,,,,,,,,,,,,,,,,,,,,,,,,,,,,,,,,,,,,,,,,,,,,,,,,,,,,,,,,,,,,,,,,,,,,,,,,,,,,,,,,,,,,,,,,,,,,,,,,,,,,,,,,,,,,,,,,,,,,,,,,,,,,,
0,31,31,87,1,,5f946b72d654c628ea868716,62c53a3defe3f624ee48cff2,2022-07-06_09h31.45.463,Colour_Asymmetry_Pilot,2022.1.3,Win32,144.2377037,62c50e9c1127f2cd403a315f,,,,,,,,,,,,,,,,,,,,,,,,,,,,,,,,,,,,,,,,,,,,,,,,,,,,,,,,,,,,,,,,,,,,,,,,,,,,,,,,,,,,,,,,,,,,,,,,,,,,,,,,,,,,,,,,,,,,,,,,,,,,,,,,,,,,,,,,,,,,,,,,,,,,,,,,,,,,,,,,,,,
0,32,32,29,1,,5f946b72d654c628ea868716,62c53a3defe3f624ee48cff2,2022-07-06_09h31.45.463,Colour_Asymmetry_Pilot,2022.1.3,Win32,144.2377037,62c50e9c1127f2cd403a315f,,,,,,,,,,,,,,,,,,,,,,,,,,,,,,,,,,,,,,,,,,,,,,,,,,,,,,,,,,,,,,,,,,,,,,,,,,,,,,,,,,,,,,,,,,,,,,,,,,,,,,,,,,,,,,,,,,,,,,,,,,,,,,,,,,,,,,,,,,,,,,,,,,,,,,,,,,,,,,,,,,,
0,33,33,43,1,,5f946b72d654c628ea868716,62c53a3defe3f624ee48cff2,2022-07-06_09h31.45.463,Colour_Asymmetry_Pilot,2022.1.3,Win32,144.2377037,62c50e9c1127f2cd403a315f,,,,,,,,,,,,,,,,,,,,,,,,,,,,,,,,,,,,,,,,,,,,,,,,,,,,,,,,,,,,,,,,,,,,,,,,,,,,,,,,,,,,,,,,,,,,,,,,,,,,,,,,,,,,,,,,,,,,,,,,,,,,,,,,,,,,,,,,,,,,,,,,,,,,,,,,,,,,,,,,,,,
0,34,34,65,1,,5f946b72d654c628ea868716,62c53a3defe3f624ee48cff2,2022-07-06_09h31.45.463,Colour_Asymmetry_Pilot,2022.1.3,Win32,144.2377037,62c50e9c1127f2cd403a315f,,,,,,,,,,,,,,,,,,,,,,,,,,,,,,,,,,,,,,,,,,,,,,,,,,,,,,,,,,,,,,,,,,,,,,,,,,,,,,,,,,,,,,,,,,,,,,,,,,,,,,,,,,,,,,,,,,,,,,,,,,,,,,,,,,,,,,,,,,,,,,,,,,,,,,,,,,,,,,,,,,,
0,35,35,17,1,,5f946b72d654c628ea868716,62c53a3defe3f624ee48cff2,2022-07-06_09h31.45.463,Colour_Asymmetry_Pilot,2022.1.3,Win32,144.2377037,62c50e9c1127f2cd403a315f,,,,,,,,,,,,,,,,,,,,,,,,,,,,,,,,,,,,,,,,,,,,,,,,,,,,,,,,,,,,,,,,,,,,,,,,,,,,,,,,,,,,,,,,,,,,,,,,,,,,,,,,,,,,,,,,,,,,,,,,,,,,,,,,,,,,,,,,,,,,,,,,,,,,,,,,,,,,,,,,,,,
0,36,36,58,1,,5f946b72d654c628ea868716,62c53a3defe3f624ee48cff2,2022-07-06_09h31.45.463,Colour_Asymmetry_Pilot,2022.1.3,Win32,144.2377037,62c50e9c1127f2cd403a315f,,,,,,,,,,,,,,,,,,,,,,,,,,,,,,,,,,,,,,,,,,,,,,,,,,,,,,,,,,,,,,,,,,,,,,,,,,,,,,,,,,,,,,,,,,,,,,,,,,,,,,,,,,,,,,,,,,,,,,,,,,,,,,,,,,,,,,,,,,,,,,,,,,,,,,,,,,,,,,,,,,,
0,37,37,80,1,,5f946b72d654c628ea868716,62c53a3defe3f624ee48cff2,2022-07-06_09h31.45.463,Colour_Asymmetry_Pilot,2022.1.3,Win32,144.2377037,62c50e9c1127f2cd403a315f,,,,,,,,,,,,,,,,,,,,,,,,,,,,,,,,,,,,,,,,,,,,,,,,,,,,,,,,,,,,,,,,,,,,,,,,,,,,,,,,,,,,,,,,,,,,,,,,,,,,,,,,,,,,,,,,,,,,,,,,,,,,,,,,,,,,,,,,,,,,,,,,,,,,,,,,,,,,,,,,,,,
0,38,38,5,1,,5f946b72d654c628ea868716,62c53a3defe3f624ee48cff2,2022-07-06_09h31.45.463,Colour_Asymmetry_Pilot,2022.1.3,Win32,144.2377037,62c50e9c1127f2cd403a315f,,,,,,,,,,,,,,,,,,,,,,,,,,,,,,,,,,,,,,,,,,,,,,,,,,,,,,,,,,,,,,,,,,,,,,,,,,,,,,,,,,,,,,,,,,,,,,,,,,,,,,,,,,,,,,,,,,,,,,,,,,,,,,,,,,,,,,,,,,,,,,,,,,,,,,,,,,,,,,,,,,,
0,39,39,0,1,,5f946b72d654c628ea868716,62c53a3defe3f624ee48cff2,2022-07-06_09h31.45.463,Colour_Asymmetry_Pilot,2022.1.3,Win32,144.2377037,62c50e9c1127f2cd403a315f,,,,,,,,,,,,,,,,,,,,,,,,,,,,,,,,,,,,,,,,,,,,,,,,,,,,,,,,,,,,,,,,,,,,,,,,,,,,,,,,,,,,,,,,,,,,,,,,,,,,,,,,,,,,,,,,,,,,,,,,,,,,,,,,,,,,,,,,,,,,,,,,,,,,,,,,,,,,,,,,,,,
0,40,40,79,1,,5f946b72d654c628ea868716,62c53a3defe3f624ee48cff2,2022-07-06_09h31.45.463,Colour_Asymmetry_Pilot,2022.1.3,Win32,144.2377037,62c50e9c1127f2cd403a315f,,,,,,,,,,,,,,,,,,,,,,,,,,,,,,,,,,,,,,,,,,,,,,,,,,,,,,,,,,,,,,,,,,,,,,,,,,,,,,,,,,,,,,,,,,,,,,,,,,,,,,,,,,,,,,,,,,,,,,,,,,,,,,,,,,,,,,,,,,,,,,,,,,,,,,,,,,,,,,,,,,,
0,41,41,8,1,,5f946b72d654c628ea868716,62c53a3defe3f624ee48cff2,2022-07-06_09h31.45.463,Colour_Asymmetry_Pilot,2022.1.3,Win32,144.2377037,62c50e9c1127f2cd403a315f,,,,,,,,,,,,,,,,,,,,,,,,,,,,,,,,,,,,,,,,,,,,,,,,,,,,,,,,,,,,,,,,,,,,,,,,,,,,,,,,,,,,,,,,,,,,,,,,,,,,,,,,,,,,,,,,,,,,,,,,,,,,,,,,,,,,,,,,,,,,,,,,,,,,,,,,,,,,,,,,,,,
0,42,42,71,1,,5f946b72d654c628ea868716,62c53a3defe3f624ee48cff2,2022-07-06_09h31.45.463,Colour_Asymmetry_Pilot,2022.1.3,Win32,144.2377037,62c50e9c1127f2cd403a315f,,,,,,,,,,,,,,,,,,,,,,,,,,,,,,,,,,,,,,,,,,,,,,,,,,,,,,,,,,,,,,,,,,,,,,,,,,,,,,,,,,,,,,,,,,,,,,,,,,,,,,,,,,,,,,,,,,,,,,,,,,,,,,,,,,,,,,,,,,,,,,,,,,,,,,,,,,,,,,,,,,,
0,43,43,34,1,,5f946b72d654c628ea868716,62c53a3defe3f624ee48cff2,2022-07-06_09h31.45.463,Colour_Asymmetry_Pilot,2022.1.3,Win32,144.2377037,62c50e9c1127f2cd403a315f,,,,,,,,,,,,,,,,,,,,,,,,,,,,,,,,,,,,,,,,,,,,,,,,,,,,,,,,,,,,,,,,,,,,,,,,,,,,,,,,,,,,,,,,,,,,,,,,,,,,,,,,,,,,,,,,,,,,,,,,,,,,,,,,,,,,,,,,,,,,,,,,,,,,,,,,,,,,,,,,,,,
0,44,44,23,1,,5f946b72d654c628ea868716,62c53a3defe3f624ee48cff2,2022-07-06_09h31.45.463,Colour_Asymmetry_Pilot,2022.1.3,Win32,144.2377037,62c50e9c1127f2cd403a315f,,,,,,,,,,,,,,,,,,,,,,,,,,,,,,,,,,,,,,,,,,,,,,,,,,,,,,,,,,,,,,,,,,,,,,,,,,,,,,,,,,,,,,,,,,,,,,,,,,,,,,,,,,,,,,,,,,,,,,,,,,,,,,,,,,,,,,,,,,,,,,,,,,,,,,,,,,,,,,,,,,,
0,45,45,74,1,,5f946b72d654c628ea868716,62c53a3defe3f624ee48cff2,2022-07-06_09h31.45.463,Colour_Asymmetry_Pilot,2022.1.3,Win32,144.2377037,62c50e9c1127f2cd403a315f,,,,,,,,,,,,,,,,,,,,,,,,,,,,,,,,,,,,,,,,,,,,,,,,,,,,,,,,,,,,,,,,,,,,,,,,,,,,,,,,,,,,,,,,,,,,,,,,,,,,,,,,,,,,,,,,,,,,,,,,,,,,,,,,,,,,,,,,,,,,,,,,,,,,,,,,,,,,,,,,,,,
0,46,46,48,1,,5f946b72d654c628ea868716,62c53a3defe3f624ee48cff2,2022-07-06_09h31.45.463,Colour_Asymmetry_Pilot,2022.1.3,Win32,144.2377037,62c50e9c1127f2cd403a315f,,,,,,,,,,,,,,,,,,,,,,,,,,,,,,,,,,,,,,,,,,,,,,,,,,,,,,,,,,,,,,,,,,,,,,,,,,,,,,,,,,,,,,,,,,,,,,,,,,,,,,,,,,,,,,,,,,,,,,,,,,,,,,,,,,,,,,,,,,,,,,,,,,,,,,,,,,,,,,,,,,,
0,47,47,62,1,,5f946b72d654c628ea868716,62c53a3defe3f624ee48cff2,2022-07-06_09h31.45.463,Colour_Asymmetry_Pilot,2022.1.3,Win32,144.2377037,62c50e9c1127f2cd403a315f,,,,,,,,,,,,,,,,,,,,,,,,,,,,,,,,,,,,,,,,,,,,,,,,,,,,,,,,,,,,,,,,,,,,,,,,,,,,,,,,,,,,,,,,,,,,,,,,,,,,,,,,,,,,,,,,,,,,,,,,,,,,,,,,,,,,,,,,,,,,,,,,,,,,,,,,,,,,,,,,,,,
0,48,48,24,1,,5f946b72d654c628ea868716,62c53a3defe3f624ee48cff2,2022-07-06_09h31.45.463,Colour_Asymmetry_Pilot,2022.1.3,Win32,144.2377037,62c50e9c1127f2cd403a315f,,,,,,,,,,,,,,,,,,,,,,,,,,,,,,,,,,,,,,,,,,,,,,,,,,,,,,,,,,,,,,,,,,,,,,,,,,,,,,,,,,,,,,,,,,,,,,,,,,,,,,,,,,,,,,,,,,,,,,,,,,,,,,,,,,,,,,,,,,,,,,,,,,,,,,,,,,,,,,,,,,,
0,49,49,91,1,,5f946b72d654c628ea868716,62c53a3defe3f624ee48cff2,2022-07-06_09h31.45.463,Colour_Asymmetry_Pilot,2022.1.3,Win32,144.2377037,62c50e9c1127f2cd403a315f,,,,,,,,,,,,,,,,,,,,,,,,,,,,,,,,,,,,,,,,,,,,,,,,,,,,,,,,,,,,,,,,,,,,,,,,,,,,,,,,,,,,,,,,,,,,,,,,,,,,,,,,,,,,,,,,,,,,,,,,,,,,,,,,,,,,,,,,,,,,,,,,,,,,,,,,,,,,,,,,,,,
0,50,50,75,1,,5f946b72d654c628ea868716,62c53a3defe3f624ee48cff2,2022-07-06_09h31.45.463,Colour_Asymmetry_Pilot,2022.1.3,Win32,144.2377037,62c50e9c1127f2cd403a315f,,,,,,,,,,,,,,,,,,,,,,,,,,,,,,,,,,,,,,,,,,,,,,,,,,,,,,,,,,,,,,,,,,,,,,,,,,,,,,,,,,,,,,,,,,,,,,,,,,,,,,,,,,,,,,,,,,,,,,,,,,,,,,,,,,,,,,,,,,,,,,,,,,,,,,,,,,,,,,,,,,,
0,51,51,83,1,,5f946b72d654c628ea868716,62c53a3defe3f624ee48cff2,2022-07-06_09h31.45.463,Colour_Asymmetry_Pilot,2022.1.3,Win32,144.2377037,62c50e9c1127f2cd403a315f,,,,,,,,,,,,,,,,,,,,,,,,,,,,,,,,,,,,,,,,,,,,,,,,,,,,,,,,,,,,,,,,,,,,,,,,,,,,,,,,,,,,,,,,,,,,,,,,,,,,,,,,,,,,,,,,,,,,,,,,,,,,,,,,,,,,,,,,,,,,,,,,,,,,,,,,,,,,,,,,,,,
0,52,52,45,1,,5f946b72d654c628ea868716,62c53a3defe3f624ee48cff2,2022-07-06_09h31.45.463,Colour_Asymmetry_Pilot,2022.1.3,Win32,144.2377037,62c50e9c1127f2cd403a315f,,,,,,,,,,,,,,,,,,,,,,,,,,,,,,,,,,,,,,,,,,,,,,,,,,,,,,,,,,,,,,,,,,,,,,,,,,,,,,,,,,,,,,,,,,,,,,,,,,,,,,,,,,,,,,,,,,,,,,,,,,,,,,,,,,,,,,,,,,,,,,,,,,,,,,,,,,,,,,,,,,,
0,53,53,15,1,,5f946b72d654c628ea868716,62c53a3defe3f624ee48cff2,2022-07-06_09h31.45.463,Colour_Asymmetry_Pilot,2022.1.3,Win32,144.2377037,62c50e9c1127f2cd403a315f,,,,,,,,,,,,,,,,,,,,,,,,,,,,,,,,,,,,,,,,,,,,,,,,,,,,,,,,,,,,,,,,,,,,,,,,,,,,,,,,,,,,,,,,,,,,,,,,,,,,,,,,,,,,,,,,,,,,,,,,,,,,,,,,,,,,,,,,,,,,,,,,,,,,,,,,,,,,,,,,,,,
0,54,54,88,1,,5f946b72d654c628ea868716,62c53a3defe3f624ee48cff2,2022-07-06_09h31.45.463,Colour_Asymmetry_Pilot,2022.1.3,Win32,144.2377037,62c50e9c1127f2cd403a315f,,,,,,,,,,,,,,,,,,,,,,,,,,,,,,,,,,,,,,,,,,,,,,,,,,,,,,,,,,,,,,,,,,,,,,,,,,,,,,,,,,,,,,,,,,,,,,,,,,,,,,,,,,,,,,,,,,,,,,,,,,,,,,,,,,,,,,,,,,,,,,,,,,,,,,,,,,,,,,,,,,,
0,55,55,13,1,,5f946b72d654c628ea868716,62c53a3defe3f624ee48cff2,2022-07-06_09h31.45.463,Colour_Asymmetry_Pilot,2022.1.3,Win32,144.2377037,62c50e9c1127f2cd403a315f,,,,,,,,,,,,,,,,,,,,,,,,,,,,,,,,,,,,,,,,,,,,,,,,,,,,,,,,,,,,,,,,,,,,,,,,,,,,,,,,,,,,,,,,,,,,,,,,,,,,,,,,,,,,,,,,,,,,,,,,,,,,,,,,,,,,,,,,,,,,,,,,,,,,,,,,,,,,,,,,,,,
0,56,56,47,1,,5f946b72d654c628ea868716,62c53a3defe3f624ee48cff2,2022-07-06_09h31.45.463,Colour_Asymmetry_Pilot,2022.1.3,Win32,144.2377037,62c50e9c1127f2cd403a315f,,,,,,,,,,,,,,,,,,,,,,,,,,,,,,,,,,,,,,,,,,,,,,,,,,,,,,,,,,,,,,,,,,,,,,,,,,,,,,,,,,,,,,,,,,,,,,,,,,,,,,,,,,,,,,,,,,,,,,,,,,,,,,,,,,,,,,,,,,,,,,,,,,,,,,,,,,,,,,,,,,,
0,57,57,30,1,,5f946b72d654c628ea868716,62c53a3defe3f624ee48cff2,2022-07-06_09h31.45.463,Colour_Asymmetry_Pilot,2022.1.3,Win32,144.2377037,62c50e9c1127f2cd403a315f,,,,,,,,,,,,,,,,,,,,,,,,,,,,,,,,,,,,,,,,,,,,,,,,,,,,,,,,,,,,,,,,,,,,,,,,,,,,,,,,,,,,,,,,,,,,,,,,,,,,,,,,,,,,,,,,,,,,,,,,,,,,,,,,,,,,,,,,,,,,,,,,,,,,,,,,,,,,,,,,,,,
0,58,58,9,1,,5f946b72d654c628ea868716,62c53a3defe3f624ee48cff2,2022-07-06_09h31.45.463,Colour_Asymmetry_Pilot,2022.1.3,Win32,144.2377037,62c50e9c1127f2cd403a315f,,,,,,,,,,,,,,,,,,,,,,,,,,,,,,,,,,,,,,,,,,,,,,,,,,,,,,,,,,,,,,,,,,,,,,,,,,,,,,,,,,,,,,,,,,,,,,,,,,,,,,,,,,,,,,,,,,,,,,,,,,,,,,,,,,,,,,,,,,,,,,,,,,,,,,,,,,,,,,,,,,,
0,59,59,7,1,,5f946b72d654c628ea868716,62c53a3defe3f624ee48cff2,2022-07-06_09h31.45.463,Colour_Asymmetry_Pilot,2022.1.3,Win32,144.2377037,62c50e9c1127f2cd403a315f,,,,,,,,,,,,,,,,,,,,,,,,,,,,,,,,,,,,,,,,,,,,,,,,,,,,,,,,,,,,,,,,,,,,,,,,,,,,,,,,,,,,,,,,,,,,,,,,,,,,,,,,,,,,,,,,,,,,,,,,,,,,,,,,,,,,,,,,,,,,,,,,,,,,,,,,,,,,,,,,,,,
0,60,60,89,1,,5f946b72d654c628ea868716,62c53a3defe3f624ee48cff2,2022-07-06_09h31.45.463,Colour_Asymmetry_Pilot,2022.1.3,Win32,144.2377037,62c50e9c1127f2cd403a315f,,,,,,,,,,,,,,,,,,,,,,,,,,,,,,,,,,,,,,,,,,,,,,,,,,,,,,,,,,,,,,,,,,,,,,,,,,,,,,,,,,,,,,,,,,,,,,,,,,,,,,,,,,,,,,,,,,,,,,,,,,,,,,,,,,,,,,,,,,,,,,,,,,,,,,,,,,,,,,,,,,,
0,61,61,42,1,,5f946b72d654c628ea868716,62c53a3defe3f624ee48cff2,2022-07-06_09h31.45.463,Colour_Asymmetry_Pilot,2022.1.3,Win32,144.2377037,62c50e9c1127f2cd403a315f,,,,,,,,,,,,,,,,,,,,,,,,,,,,,,,,,,,,,,,,,,,,,,,,,,,,,,,,,,,,,,,,,,,,,,,,,,,,,,,,,,,,,,,,,,,,,,,,,,,,,,,,,,,,,,,,,,,,,,,,,,,,,,,,,,,,,,,,,,,,,,,,,,,,,,,,,,,,,,,,,,,
0,62,62,31,1,,5f946b72d654c628ea868716,62c53a3defe3f624ee48cff2,2022-07-06_09h31.45.463,Colour_Asymmetry_Pilot,2022.1.3,Win32,144.2377037,62c50e9c1127f2cd403a315f,,,,,,,,,,,,,,,,,,,,,,,,,,,,,,,,,,,,,,,,,,,,,,,,,,,,,,,,,,,,,,,,,,,,,,,,,,,,,,,,,,,,,,,,,,,,,,,,,,,,,,,,,,,,,,,,,,,,,,,,,,,,,,,,,,,,,,,,,,,,,,,,,,,,,,,,,,,,,,,,,,,
0,63,63,44,1,,5f946b72d654c628ea868716,62c53a3defe3f624ee48cff2,2022-07-06_09h31.45.463,Colour_Asymmetry_Pilot,2022.1.3,Win32,144.2377037,62c50e9c1127f2cd403a315f,,,,,,,,,,,,,,,,,,,,,,,,,,,,,,,,,,,,,,,,,,,,,,,,,,,,,,,,,,,,,,,,,,,,,,,,,,,,,,,,,,,,,,,,,,,,,,,,,,,,,,,,,,,,,,,,,,,,,,,,,,,,,,,,,,,,,,,,,,,,,,,,,,,,,,,,,,,,,,,,,,,
0,64,64,57,1,,5f946b72d654c628ea868716,62c53a3defe3f624ee48cff2,2022-07-06_09h31.45.463,Colour_Asymmetry_Pilot,2022.1.3,Win32,144.2377037,62c50e9c1127f2cd403a315f,,,,,,,,,,,,,,,,,,,,,,,,,,,,,,,,,,,,,,,,,,,,,,,,,,,,,,,,,,,,,,,,,,,,,,,,,,,,,,,,,,,,,,,,,,,,,,,,,,,,,,,,,,,,,,,,,,,,,,,,,,,,,,,,,,,,,,,,,,,,,,,,,,,,,,,,,,,,,,,,,,,
0,65,65,10,1,,5f946b72d654c628ea868716,62c53a3defe3f624ee48cff2,2022-07-06_09h31.45.463,Colour_Asymmetry_Pilot,2022.1.3,Win32,144.2377037,62c50e9c1127f2cd403a315f,,,,,,,,,,,,,,,,,,,,,,,,,,,,,,,,,,,,,,,,,,,,,,,,,,,,,,,,,,,,,,,,,,,,,,,,,,,,,,,,,,,,,,,,,,,,,,,,,,,,,,,,,,,,,,,,,,,,,,,,,,,,,,,,,,,,,,,,,,,,,,,,,,,,,,,,,,,,,,,,,,,
0,66,66,61,1,,5f946b72d654c628ea868716,62c53a3defe3f624ee48cff2,2022-07-06_09h31.45.463,Colour_Asymmetry_Pilot,2022.1.3,Win32,144.2377037,62c50e9c1127f2cd403a315f,,,,,,,,,,,,,,,,,,,,,,,,,,,,,,,,,,,,,,,,,,,,,,,,,,,,,,,,,,,,,,,,,,,,,,,,,,,,,,,,,,,,,,,,,,,,,,,,,,,,,,,,,,,,,,,,,,,,,,,,,,,,,,,,,,,,,,,,,,,,,,,,,,,,,,,,,,,,,,,,,,,
0,67,67,55,1,,5f946b72d654c628ea868716,62c53a3defe3f624ee48cff2,2022-07-06_09h31.45.463,Colour_Asymmetry_Pilot,2022.1.3,Win32,144.2377037,62c50e9c1127f2cd403a315f,,,,,,,,,,,,,,,,,,,,,,,,,,,,,,,,,,,,,,,,,,,,,,,,,,,,,,,,,,,,,,,,,,,,,,,,,,,,,,,,,,,,,,,,,,,,,,,,,,,,,,,,,,,,,,,,,,,,,,,,,,,,,,,,,,,,,,,,,,,,,,,,,,,,,,,,,,,,,,,,,,,
0,68,68,84,1,,5f946b72d654c628ea868716,62c53a3defe3f624ee48cff2,2022-07-06_09h31.45.463,Colour_Asymmetry_Pilot,2022.1.3,Win32,144.2377037,62c50e9c1127f2cd403a315f,,,,,,,,,,,,,,,,,,,,,,,,,,,,,,,,,,,,,,,,,,,,,,,,,,,,,,,,,,,,,,,,,,,,,,,,,,,,,,,,,,,,,,,,,,,,,,,,,,,,,,,,,,,,,,,,,,,,,,,,,,,,,,,,,,,,,,,,,,,,,,,,,,,,,,,,,,,,,,,,,,,
0,69,69,19,1,,5f946b72d654c628ea868716,62c53a3defe3f624ee48cff2,2022-07-06_09h31.45.463,Colour_Asymmetry_Pilot,2022.1.3,Win32,144.2377037,62c50e9c1127f2cd403a315f,,,,,,,,,,,,,,,,,,,,,,,,,,,,,,,,,,,,,,,,,,,,,,,,,,,,,,,,,,,,,,,,,,,,,,,,,,,,,,,,,,,,,,,,,,,,,,,,,,,,,,,,,,,,,,,,,,,,,,,,,,,,,,,,,,,,,,,,,,,,,,,,,,,,,,,,,,,,,,,,,,,
0,70,70,32,1,,5f946b72d654c628ea868716,62c53a3defe3f624ee48cff2,2022-07-06_09h31.45.463,Colour_Asymmetry_Pilot,2022.1.3,Win32,144.2377037,62c50e9c1127f2cd403a315f,,,,,,,,,,,,,,,,,,,,,,,,,,,,,,,,,,,,,,,,,,,,,,,,,,,,,,,,,,,,,,,,,,,,,,,,,,,,,,,,,,,,,,,,,,,,,,,,,,,,,,,,,,,,,,,,,,,,,,,,,,,,,,,,,,,,,,,,,,,,,,,,,,,,,,,,,,,,,,,,,,,
0,71,71,69,1,,5f946b72d654c628ea868716,62c53a3defe3f624ee48cff2,2022-07-06_09h31.45.463,Colour_Asymmetry_Pilot,2022.1.3,Win32,144.2377037,62c50e9c1127f2cd403a315f,,,,,,,,,,,,,,,,,,,,,,,,,,,,,,,,,,,,,,,,,,,,,,,,,,,,,,,,,,,,,,,,,,,,,,,,,,,,,,,,,,,,,,,,,,,,,,,,,,,,,,,,,,,,,,,,,,,,,,,,,,,,,,,,,,,,,,,,,,,,,,,,,,,,,,,,,,,,,,,,,,,
0,72,72,2,1,,5f946b72d654c628ea868716,62c53a3defe3f624ee48cff2,2022-07-06_09h31.45.463,Colour_Asymmetry_Pilot,2022.1.3,Win32,144.2377037,62c50e9c1127f2cd403a315f,,,,,,,,,,,,,,,,,,,,,,,,,,,,,,,,,,,,,,,,,,,,,,,,,,,,,,,,,,,,,,,,,,,,,,,,,,,,,,,,,,,,,,,,,,,,,,,,,,,,,,,,,,,,,,,,,,,,,,,,,,,,,,,,,,,,,,,,,,,,,,,,,,,,,,,,,,,,,,,,,,,
0,73,73,68,1,,5f946b72d654c628ea868716,62c53a3defe3f624ee48cff2,2022-07-06_09h31.45.463,Colour_Asymmetry_Pilot,2022.1.3,Win32,144.2377037,62c50e9c1127f2cd403a315f,,,,,,,,,,,,,,,,,,,,,,,,,,,,,,,,,,,,,,,,,,,,,,,,,,,,,,,,,,,,,,,,,,,,,,,,,,,,,,,,,,,,,,,,,,,,,,,,,,,,,,,,,,,,,,,,,,,,,,,,,,,,,,,,,,,,,,,,,,,,,,,,,,,,,,,,,,,,,,,,,,,
0,74,74,59,1,,5f946b72d654c628ea868716,62c53a3defe3f624ee48cff2,2022-07-06_09h31.45.463,Colour_Asymmetry_Pilot,2022.1.3,Win32,144.2377037,62c50e9c1127f2cd403a315f,,,,,,,,,,,,,,,,,,,,,,,,,,,,,,,,,,,,,,,,,,,,,,,,,,,,,,,,,,,,,,,,,,,,,,,,,,,,,,,,,,,,,,,,,,,,,,,,,,,,,,,,,,,,,,,,,,,,,,,,,,,,,,,,,,,,,,,,,,,,,,,,,,,,,,,,,,,,,,,,,,,
0,75,75,72,1,,5f946b72d654c628ea868716,62c53a3defe3f624ee48cff2,2022-07-06_09h31.45.463,Colour_Asymmetry_Pilot,2022.1.3,Win32,144.2377037,62c50e9c1127f2cd403a315f,,,,,,,,,,,,,,,,,,,,,,,,,,,,,,,,,,,,,,,,,,,,,,,,,,,,,,,,,,,,,,,,,,,,,,,,,,,,,,,,,,,,,,,,,,,,,,,,,,,,,,,,,,,,,,,,,,,,,,,,,,,,,,,,,,,,,,,,,,,,,,,,,,,,,,,,,,,,,,,,,,,
0,76,76,37,1,,5f946b72d654c628ea868716,62c53a3defe3f624ee48cff2,2022-07-06_09h31.45.463,Colour_Asymmetry_Pilot,2022.1.3,Win32,144.2377037,62c50e9c1127f2cd403a315f,,,,,,,,,,,,,,,,,,,,,,,,,,,,,,,,,,,,,,,,,,,,,,,,,,,,,,,,,,,,,,,,,,,,,,,,,,,,,,,,,,,,,,,,,,,,,,,,,,,,,,,,,,,,,,,,,,,,,,,,,,,,,,,,,,,,,,,,,,,,,,,,,,,,,,,,,,,,,,,,,,,
0,77,77,36,1,,5f946b72d654c628ea868716,62c53a3defe3f624ee48cff2,2022-07-06_09h31.45.463,Colour_Asymmetry_Pilot,2022.1.3,Win32,144.2377037,62c50e9c1127f2cd403a315f,,,,,,,,,,,,,,,,,,,,,,,,,,,,,,,,,,,,,,,,,,,,,,,,,,,,,,,,,,,,,,,,,,,,,,,,,,,,,,,,,,,,,,,,,,,,,,,,,,,,,,,,,,,,,,,,,,,,,,,,,,,,,,,,,,,,,,,,,,,,,,,,,,,,,,,,,,,,,,,,,,,
0,78,78,33,1,,5f946b72d654c628ea868716,62c53a3defe3f624ee48cff2,2022-07-06_09h31.45.463,Colour_Asymmetry_Pilot,2022.1.3,Win32,144.2377037,62c50e9c1127f2cd403a315f,,,,,,,,,,,,,,,,,,,,,,,,,,,,,,,,,,,,,,,,,,,,,,,,,,,,,,,,,,,,,,,,,,,,,,,,,,,,,,,,,,,,,,,,,,,,,,,,,,,,,,,,,,,,,,,,,,,,,,,,,,,,,,,,,,,,,,,,,,,,,,,,,,,,,,,,,,,,,,,,,,,
0,79,79,18,1,,5f946b72d654c628ea868716,62c53a3defe3f624ee48cff2,2022-07-06_09h31.45.463,Colour_Asymmetry_Pilot,2022.1.3,Win32,144.2377037,62c50e9c1127f2cd403a315f,,,,,,,,,,,,,,,,,,,,,,,,,,,,,,,,,,,,,,,,,,,,,,,,,,,,,,,,,,,,,,,,,,,,,,,,,,,,,,,,,,,,,,,,,,,,,,,,,,,,,,,,,,,,,,,,,,,,,,,,,,,,,,,,,,,,,,,,,,,,,,,,,,,,,,,,,,,,,,,,,,,
0,80,80,25,1,,5f946b72d654c628ea868716,62c53a3defe3f624ee48cff2,2022-07-06_09h31.45.463,Colour_Asymmetry_Pilot,2022.1.3,Win32,144.2377037,62c50e9c1127f2cd403a315f,,,,,,,,,,,,,,,,,,,,,,,,,,,,,,,,,,,,,,,,,,,,,,,,,,,,,,,,,,,,,,,,,,,,,,,,,,,,,,,,,,,,,,,,,,,,,,,,,,,,,,,,,,,,,,,,,,,,,,,,,,,,,,,,,,,,,,,,,,,,,,,,,,,,,,,,,,,,,,,,,,,
0,81,81,54,1,,5f946b72d654c628ea868716,62c53a3defe3f624ee48cff2,2022-07-06_09h31.45.463,Colour_Asymmetry_Pilot,2022.1.3,Win32,144.2377037,62c50e9c1127f2cd403a315f,,,,,,,,,,,,,,,,,,,,,,,,,,,,,,,,,,,,,,,,,,,,,,,,,,,,,,,,,,,,,,,,,,,,,,,,,,,,,,,,,,,,,,,,,,,,,,,,,,,,,,,,,,,,,,,,,,,,,,,,,,,,,,,,,,,,,,,,,,,,,,,,,,,,,,,,,,,,,,,,,,,
0,82,82,76,1,,5f946b72d654c628ea868716,62c53a3defe3f624ee48cff2,2022-07-06_09h31.45.463,Colour_Asymmetry_Pilot,2022.1.3,Win32,144.2377037,62c50e9c1127f2cd403a315f,,,,,,,,,,,,,,,,,,,,,,,,,,,,,,,,,,,,,,,,,,,,,,,,,,,,,,,,,,,,,,,,,,,,,,,,,,,,,,,,,,,,,,,,,,,,,,,,,,,,,,,,,,,,,,,,,,,,,,,,,,,,,,,,,,,,,,,,,,,,,,,,,,,,,,,,,,,,,,,,,,,
0,83,83,49,1,,5f946b72d654c628ea868716,62c53a3defe3f624ee48cff2,2022-07-06_09h31.45.463,Colour_Asymmetry_Pilot,2022.1.3,Win32,144.2377037,62c50e9c1127f2cd403a315f,,,,,,,,,,,,,,,,,,,,,,,,,,,,,,,,,,,,,,,,,,,,,,,,,,,,,,,,,,,,,,,,,,,,,,,,,,,,,,,,,,,,,,,,,,,,,,,,,,,,,,,,,,,,,,,,,,,,,,,,,,,,,,,,,,,,,,,,,,,,,,,,,,,,,,,,,,,,,,,,,,,
0,84,84,53,1,,5f946b72d654c628ea868716,62c53a3defe3f624ee48cff2,2022-07-06_09h31.45.463,Colour_Asymmetry_Pilot,2022.1.3,Win32,144.2377037,62c50e9c1127f2cd403a315f,,,,,,,,,,,,,,,,,,,,,,,,,,,,,,,,,,,,,,,,,,,,,,,,,,,,,,,,,,,,,,,,,,,,,,,,,,,,,,,,,,,,,,,,,,,,,,,,,,,,,,,,,,,,,,,,,,,,,,,,,,,,,,,,,,,,,,,,,,,,,,,,,,,,,,,,,,,,,,,,,,,
0,85,85,12,1,,5f946b72d654c628ea868716,62c53a3defe3f624ee48cff2,2022-07-06_09h31.45.463,Colour_Asymmetry_Pilot,2022.1.3,Win32,144.2377037,62c50e9c1127f2cd403a315f,,,,,,,,,,,,,,,,,,,,,,,,,,,,,,,,,,,,,,,,,,,,,,,,,,,,,,,,,,,,,,,,,,,,,,,,,,,,,,,,,,,,,,,,,,,,,,,,,,,,,,,,,,,,,,,,,,,,,,,,,,,,,,,,,,,,,,,,,,,,,,,,,,,,,,,,,,,,,,,,,,,
0,86,86,60,1,,5f946b72d654c628ea868716,62c53a3defe3f624ee48cff2,2022-07-06_09h31.45.463,Colour_Asymmetry_Pilot,2022.1.3,Win32,144.2377037,62c50e9c1127f2cd403a315f,,,,,,,,,,,,,,,,,,,,,,,,,,,,,,,,,,,,,,,,,,,,,,,,,,,,,,,,,,,,,,,,,,,,,,,,,,,,,,,,,,,,,,,,,,,,,,,,,,,,,,,,,,,,,,,,,,,,,,,,,,,,,,,,,,,,,,,,,,,,,,,,,,,,,,,,,,,,,,,,,,,
0,87,87,50,1,,5f946b72d654c628ea868716,62c53a3defe3f624ee48cff2,2022-07-06_09h31.45.463,Colour_Asymmetry_Pilot,2022.1.3,Win32,144.2377037,62c50e9c1127f2cd403a315f,,,,,,,,,,,,,,,,,,,,,,,,,,,,,,,,,,,,,,,,,,,,,,,,,,,,,,,,,,,,,,,,,,,,,,,,,,,,,,,,,,,,,,,,,,,,,,,,,,,,,,,,,,,,,,,,,,,,,,,,,,,,,,,,,,,,,,,,,,,,,,,,,,,,,,,,,,,,,,,,,,,
0,88,88,52,1,,5f946b72d654c628ea868716,62c53a3defe3f624ee48cff2,2022-07-06_09h31.45.463,Colour_Asymmetry_Pilot,2022.1.3,Win32,144.2377037,62c50e9c1127f2cd403a315f,,,,,,,,,,,,,,,,,,,,,,,,,,,,,,,,,,,,,,,,,,,,,,,,,,,,,,,,,,,,,,,,,,,,,,,,,,,,,,,,,,,,,,,,,,,,,,,,,,,,,,,,,,,,,,,,,,,,,,,,,,,,,,,,,,,,,,,,,,,,,,,,,,,,,,,,,,,,,,,,,,,
0,89,89,27,1,,5f946b72d654c628ea868716,62c53a3defe3f624ee48cff2,2022-07-06_09h31.45.463,Colour_Asymmetry_Pilot,2022.1.3,Win32,144.2377037,62c50e9c1127f2cd403a315f,,,,,,,,,,,,,,,,,,,,,,,,,,,,,,,,,,,,,,,,,,,,,,,,,,,,,,,,,,,,,,,,,,,,,,,,,,,,,,,,,,,,,,,,,,,,,,,,,,,,,,,,,,,,,,,,,,,,,,,,,,,,,,,,,,,,,,,,,,,,,,,,,,,,,,,,,,,,,,,,,,,
0,90,90,90,1,,5f946b72d654c628ea868716,62c53a3defe3f624ee48cff2,2022-07-06_09h31.45.463,Colour_Asymmetry_Pilot,2022.1.3,Win32,144.2377037,62c50e9c1127f2cd403a315f,,,,,,,,,,,,,,,,,,,,,,,,,,,,,,,,,,,,,,,,,,,,,,,,,,,,,,,,,,,,,,,,,,,,,,,,,,,,,,,,,,,,,,,,,,,,,,,,,,,,,,,,,,,,,,,,,,,,,,,,,,,,,,,,,,,,,,,,,,,,,,,,,,,,,,,,,,,,,,,,,,,
0,91,91,67,1,,5f946b72d654c628ea868716,62c53a3defe3f624ee48cff2,2022-07-06_09h31.45.463,Colour_Asymmetry_Pilot,2022.1.3,Win32,144.2377037,62c50e9c1127f2cd403a315f,,,,,,,,,,,,,,,,,,,,,,,,,,,,,,,,,,,,,,,,,,,,,,,,,,,,,,,,,,,,,,,,,,,,,,,,,,,,,,,,,,,,,,,,,,,,,,,,,,,,,,,,,,,,,,,,,,,,,,,,,,,,,,,,,,,,,,,,,,,,,,,,,,,,,,,,,,,,,,,,,,,
0,92,92,64,1,,5f946b72d654c628ea868716,62c53a3defe3f624ee48cff2,2022-07-06_09h31.45.463,Colour_Asymmetry_Pilot,2022.1.3,Win32,144.2377037,62c50e9c1127f2cd403a315f,,,,,,,,,,,,,,,,,,,,,,,,,,,,,,,,,,,,,,,,,,,,,,,,,,,,,,,,,,,,,,,,,,,,,,,,,,,,,,,,,,,,,,,,,,,,,,,,,,,,,,,,,,,,,,,,,,,,,,,,,,,,,,,,,,,,,,,,,,,,,,,,,,,,,,,,,,,,,,,,,,,
,,,,,,5f946b72d654c628ea868716,62c53a3defe3f624ee48cff2,2022-07-06_09h31.45.463,Colour_Asymmetry_Pilot,2022.1.3,Win32,144.2377037,62c50e9c1127f2cd403a315f,0,0,0,130,1,twoone,,,,,,,,,,,,,,,,,,,,,,,,,,,,,,,,,,,,,,,,,,,,,,,,,,,,,,,,,,,,,,,,,,,,,,,,,,,,,,,,,,,,,,,,,,,,,,,,,,,,,,,,,,,,,,,,,,,,,,,,,,,,,,,,,,,,,,,,,,,,,,,,,,,,,,,,,,,,,
,,,,,,5f946b72d654c628ea868716,62c53a3defe3f624ee48cff2,2022-07-06_09h31.45.463,Colour_Asymmetry_Pilot,2022.1.3,Win32,144.2377037,62c50e9c1127f2cd403a315f,0,1,1,75,1,twofour,,,,,,,,,,,,,,,,,,,,,,,,,,,,,,,,,,,,,,,,,,,,,,,,,,,,,,,,,,,,,,,,,,,,,,,,,,,,,,,,,,,,,,,,,,,,,,,,,,,,,,,,,,,,,,,,,,,,,,,,,,,,,,,,,,,,,,,,,,,,,,,,,,,,,,,,,,,,,
,,,,,,5f946b72d654c628ea868716,62c53a3defe3f624ee48cff2,2022-07-06_09h31.45.463,Colour_Asymmetry_Pilot,2022.1.3,Win32,144.2377037,62c50e9c1127f2cd403a315f,0,2,2,51,1,twofour,,,,,,,,,,,,,,,,,,,,,,,,,,,,,,,,,,,,,,,,,,,,,,,,,,,,,,,,,,,,,,,,,,,,,,,,,,,,,,,,,,,,,,,,,,,,,,,,,,,,,,,,,,,,,,,,,,,,,,,,,,,,,,,,,,,,,,,,,,,,,,,,,,,,,,,,,,,,,
,,,,,,5f946b72d654c628ea868716,62c53a3defe3f624ee48cff2,2022-07-06_09h31.45.463,Colour_Asymmetry_Pilot,2022.1.3,Win32,144.2377037,62c50e9c1127f2cd403a315f,0,3,3,116,1,threeone,,,,,,,,,,,,,,,,,,,,,,,,,,,,,,,,,,,,,,,,,,,,,,,,,,,,,,,,,,,,,,,,,,,,,,,,,,,,,,,,,,,,,,,,,,,,,,,,,,,,,,,,,,,,,,,,,,,,,,,,,,,,,,,,,,,,,,,,,,,,,,,,,,,,,,,,,,,,,
,,,,,,5f946b72d654c628ea868716,62c53a3defe3f624ee48cff2,2022-07-06_09h31.45.463,Colour_Asymmetry_Pilot,2022.1.3,Win32,144.2377037,62c50e9c1127f2cd403a315f,0,4,4,71,1,fourthree,,,,,,,,,,,,,,,,,,,,,,,,,,,,,,,,,,,,,,,,,,,,,,,,,,,,,,,,,,,,,,,,,,,,,,,,,,,,,,,,,,,,,,,,,,,,,,,,,,,,,,,,,,,,,,,,,,,,,,,,,,,,,,,,,,,,,,,,,,,,,,,,,,,,,,,,,,,,,
,,,,,,5f946b72d654c628ea868716,62c53a3defe3f624ee48cff2,2022-07-06_09h31.45.463,Colour_Asymmetry_Pilot,2022.1.3,Win32,144.2377037,62c50e9c1127f2cd403a315f,0,5,5,79,1,fourthree,,,,,,,,,,,,,,,,,,,,,,,,,,,,,,,,,,,,,,,,,,,,,,,,,,,,,,,,,,,,,,,,,,,,,,,,,,,,,,,,,,,,,,,,,,,,,,,,,,,,,,,,,,,,,,,,,,,,,,,,,,,,,,,,,,,,,,,,,,,,,,,,,,,,,,,,,,,,,
,,,,,,5f946b72d654c628ea868716,62c53a3defe3f624ee48cff2,2022-07-06_09h31.45.463,Colour_Asymmetry_Pilot,2022.1.3,Win32,144.2377037,62c50e9c1127f2cd403a315f,0,6,6,83,1,twofour,,,,,,,,,,,,,,,,,,,,,,,,,,,,,,,,,,,,,,,,,,,,,,,,,,,,,,,,,,,,,,,,,,,,,,,,,,,,,,,,,,,,,,,,,,,,,,,,,,,,,,,,,,,,,,,,,,,,,,,,,,,,,,,,,,,,,,,,,,,,,,,,,,,,,,,,,,,,,
,,,,,,5f946b72d654c628ea868716,62c53a3defe3f624ee48cff2,2022-07-06_09h31.45.463,Colour_Asymmetry_Pilot,2022.1.3,Win32,144.2377037,62c50e9c1127f2cd403a315f,0,7,7,48,1,onetwo,,,,,,,,,,,,,,,,,,,,,,,,,,,,,,,,,,,,,,,,,,,,,,,,,,,,,,,,,,,,,,,,,,,,,,,,,,,,,,,,,,,,,,,,,,,,,,,,,,,,,,,,,,,,,,,,,,,,,,,,,,,,,,,,,,,,,,,,,,,,,,,,,,,,,,,,,,,,,
,,,,,,5f946b72d654c628ea868716,62c53a3defe3f624ee48cff2,2022-07-06_09h31.45.463,Colour_Asymmetry_Pilot,2022.1.3,Win32,144.2377037,62c50e9c1127f2cd403a315f,0,8,8,37,1,threefour,,,,,,,,,,,,,,,,,,,,,,,,,,,,,,,,,,,,,,,,,,,,,,,,,,,,,,,,,,,,,,,,,,,,,,,,,,,,,,,,,,,,,,,,,,,,,,,,,,,,,,,,,,,,,,,,,,,,,,,,,,,,,,,,,,,,,,,,,,,,,,,,,,,,,,,,,,,,,
,,,,,,5f946b72d654c628ea868716,62c53a3defe3f624ee48cff2,2022-07-06_09h31.45.463,Colour_Asymmetry_Pilot,2022.1.3,Win32,144.2377037,62c50e9c1127f2cd403a315f,0,9,9,40,1,onetwo,,,,,,,,,,,,,,,,,,,,,,,,,,,,,,,,,,,,,,,,,,,,,,,,,,,,,,,,,,,,,,,,,,,,,,,,,,,,,,,,,,,,,,,,,,,,,,,,,,,,,,,,,,,,,,,,,,,,,,,,,,,,,,,,,,,,,,,,,,,,,,,,,,,,,,,,,,,,,
,,,,,,5f946b72d654c628ea868716,62c53a3defe3f624ee48cff2,2022-07-06_09h31.45.463,Colour_Asymmetry_Pilot,2022.1.3,Win32,144.2377037,62c50e9c1127f2cd403a315f,0,10,10,28,1,threeone,,,,,,,,,,,,,,,,,,,,,,,,,,,,,,,,,,,,,,,,,,,,,,,,,,,,,,,,,,,,,,,,,,,,,,,,,,,,,,,,,,,,,,,,,,,,,,,,,,,,,,,,,,,,,,,,,,,,,,,,,,,,,,,,,,,,,,,,,,,,,,,,,,,,,,,,,,,,,
,,,,,,5f946b72d654c628ea868716,62c53a3defe3f624ee48cff2,2022-07-06_09h31.45.463,Colour_Asymmetry_Pilot,2022.1.3,Win32,144.2377037,62c50e9c1127f2cd403a315f,0,11,11,143,1,fourthree,,,,,,,,,,,,,,,,,,,,,,,,,,,,,,,,,,,,,,,,,,,,,,,,,,,,,,,,,,,,,,,,,,,,,,,,,,,,,,,,,,,,,,,,,,,,,,,,,,,,,,,,,,,,,,,,,,,,,,,,,,,,,,,,,,,,,,,,,,,,,,,,,,,,,,,,,,,,,
,,,,,,5f946b72d654c628ea868716,62c53a3defe3f624ee48cff2,2022-07-06_09h31.45.463,Colour_Asymmetry_Pilot,2022.1.3,Win32,144.2377037,62c50e9c1127f2cd403a315f,0,12,12,133,1,threefour,,,,,,,,,,,,,,,,,,,,,,,,,,,,,,,,,,,,,,,,,,,,,,,,,,,,,,,,,,,,,,,,,,,,,,,,,,,,,,,,,,,,,,,,,,,,,,,,,,,,,,,,,,,,,,,,,,,,,,,,,,,,,,,,,,,,,,,,,,,,,,,,,,,,,,,,,,,,,
,,,,,,5f946b72d654c628ea868716,62c53a3defe3f624ee48cff2,2022-07-06_09h31.45.463,Colour_Asymmetry_Pilot,2022.1.3,Win32,144.2377037,62c50e9c1127f2cd403a315f,0,13,13,137,1,onethree,,,,,,,,,,,,,,,,,,,,,,,,,,,,,,,,,,,,,,,,,,,,,,,,,,,,,,,,,,,,,,,,,,,,,,,,,,,,,,,,,,,,,,,,,,,,,,,,,,,,,,,,,,,,,,,,,,,,,,,,,,,,,,,,,,,,,,,,,,,,,,,,,,,,,,,,,,,,,
,,,,,,5f946b72d654c628ea868716,62c53a3defe3f624ee48cff2,2022-07-06_09h31.45.463,Colour_Asymmetry_Pilot,2022.1.3,Win32,144.2377037,62c50e9c1127f2cd403a315f,0,14,14,12,1,threeone,,,,,,,,,,,,,,,,,,,,,,,,,,,,,,,,,,,,,,,,,,,,,,,,,,,,,,,,,,,,,,,,,,,,,,,,,,,,,,,,,,,,,,,,,,,,,,,,,,,,,,,,,,,,,,,,,,,,,,,,,,,,,,,,,,,,,,,,,,,,,,,,,,,,,,,,,,,,,
,,,,,,5f946b72d654c628ea868716,62c53a3defe3f624ee48cff2,2022-07-06_09h31.45.463,Colour_Asymmetry_Pilot,2022.1.3,Win32,144.2377037,62c50e9c1127f2cd403a315f,0,15,15,76,1,threeone,,,,,,,,,,,,,,,,,,,,,,,,,,,,,,,,,,,,,,,,,,,,,,,,,,,,,,,,,,,,,,,,,,,,,,,,,,,,,,,,,,,,,,,,,,,,,,,,,,,,,,,,,,,,,,,,,,,,,,,,,,,,,,,,,,,,,,,,,,,,,,,,,,,,,,,,,,,,,
,,,,,,5f946b72d654c628ea868716,62c53a3defe3f624ee48cff2,2022-07-06_09h31.45.463,Colour_Asymmetry_Pilot,2022.1.3,Win32,144.2377037,62c50e9c1127f2cd403a315f,0,16,16,22,1,fourtwo,,,,,,,,,,,,,,,,,,,,,,,,,,,,,,,,,,,,,,,,,,,,,,,,,,,,,,,,,,,,,,,,,,,,,,,,,,,,,,,,,,,,,,,,,,,,,,,,,,,,,,,,,,,,,,,,,,,,,,,,,,,,,,,,,,,,,,,,,,,,,,,,,,,,,,,,,,,,,
,,,,,,5f946b72d654c628ea868716,62c53a3defe3f624ee48cff2,2022-07-06_09h31.45.463,Colour_Asymmetry_Pilot,2022.1.3,Win32,144.2377037,62c50e9c1127f2cd403a315f,0,17,17,54,1,fourtwo,,,,,,,,,,,,,,,,,,,,,,,,,,,,,,,,,,,,,,,,,,,,,,,,,,,,,,,,,,,,,,,,,,,,,,,,,,,,,,,,,,,,,,,,,,,,,,,,,,,,,,,,,,,,,,,,,,,,,,,,,,,,,,,,,,,,,,,,,,,,,,,,,,,,,,,,,,,,,
,,,,,,5f946b72d654c628ea868716,62c53a3defe3f624ee48cff2,2022-07-06_09h31.45.463,Colour_Asymmetry_Pilot,2022.1.3,Win32,144.2377037,62c50e9c1127f2cd403a315f,0,18,18,43,1,twofour,,,,,,,,,,,,,,,,,,,,,,,,,,,,,,,,,,,,,,,,,,,,,,,,,,,,,,,,,,,,,,,,,,,,,,,,,,,,,,,,,,,,,,,,,,,,,,,,,,,,,,,,,,,,,,,,,,,,,,,,,,,,,,,,,,,,,,,,,,,,,,,,,,,,,,,,,,,,,
,,,,,,5f946b72d654c628ea868716,62c53a3defe3f624ee48cff2,2022-07-06_09h31.45.463,Colour_Asymmetry_Pilot,2022.1.3,Win32,144.2377037,62c50e9c1127f2cd403a315f,0,19,19,36,1,threeone,,,,,,,,,,,,,,,,,,,,,,,,,,,,,,,,,,,,,,,,,,,,,,,,,,,,,,,,,,,,,,,,,,,,,,,,,,,,,,,,,,,,,,,,,,,,,,,,,,,,,,,,,,,,,,,,,,,,,,,,,,,,,,,,,,,,,,,,,,,,,,,,,,,,,,,,,,,,,
,,,,,,5f946b72d654c628ea868716,62c53a3defe3f624ee48cff2,2022-07-06_09h31.45.463,Colour_Asymmetry_Pilot,2022.1.3,Win32,144.2377037,62c50e9c1127f2cd403a315f,0,20,20,102,1,fourtwo,,,,,,,,,,,,,,,,,,,,,,,,,,,,,,,,,,,,,,,,,,,,,,,,,,,,,,,,,,,,,,,,,,,,,,,,,,,,,,,,,,,,,,,,,,,,,,,,,,,,,,,,,,,,,,,,,,,,,,,,,,,,,,,,,,,,,,,,,,,,,,,,,,,,,,,,,,,,,
,,,,,,5f946b72d654c628ea868716,62c53a3defe3f624ee48cff2,2022-07-06_09h31.45.463,Colour_Asymmetry_Pilot,2022.1.3,Win32,144.2377037,62c50e9c1127f2cd403a315f,0,21,21,94,1,fourtwo,,,,,,,,,,,,,,,,,,,,,,,,,,,,,,,,,,,,,,,,,,,,,,,,,,,,,,,,,,,,,,,,,,,,,,,,,,,,,,,,,,,,,,,,,,,,,,,,,,,,,,,,,,,,,,,,,,,,,,,,,,,,,,,,,,,,,,,,,,,,,,,,,,,,,,,,,,,,,
,,,,,,5f946b72d654c628ea868716,62c53a3defe3f624ee48cff2,2022-07-06_09h31.45.463,Colour_Asymmetry_Pilot,2022.1.3,Win32,144.2377037,62c50e9c1127f2cd403a315f,0,22,22,57,1,onethree,,,,,,,,,,,,,,,,,,,,,,,,,,,,,,,,,,,,,,,,,,,,,,,,,,,,,,,,,,,,,,,,,,,,,,,,,,,,,,,,,,,,,,,,,,,,,,,,,,,,,,,,,,,,,,,,,,,,,,,,,,,,,,,,,,,,,,,,,,,,,,,,,,,,,,,,,,,,,
,,,,,,5f946b72d654c628ea868716,62c53a3defe3f624ee48cff2,2022-07-06_09h31.45.463,Colour_Asymmetry_Pilot,2022.1.3,Win32,144.2377037,62c50e9c1127f2cd403a315f,0,23,23,119,1,fourthree,,,,,,,,,,,,,,,,,,,,,,,,,,,,,,,,,,,,,,,,,,,,,,,,,,,,,,,,,,,,,,,,,,,,,,,,,,,,,,,,,,,,,,,,,,,,,,,,,,,,,,,,,,,,,,,,,,,,,,,,,,,,,,,,,,,,,,,,,,,,,,,,,,,,,,,,,,,,,
,,,,,,5f946b72d654c628ea868716,62c53a3defe3f624ee48cff2,2022-07-06_09h31.45.463,Colour_Asymmetry_Pilot,2022.1.3,Win32,144.2377037,62c50e9c1127f2cd403a315f,0,24,24,149,1,threefour,,,,,,,,,,,,,,,,,,,,,,,,,,,,,,,,,,,,,,,,,,,,,,,,,,,,,,,,,,,,,,,,,,,,,,,,,,,,,,,,,,,,,,,,,,,,,,,,,,,,,,,,,,,,,,,,,,,,,,,,,,,,,,,,,,,,,,,,,,,,,,,,,,,,,,,,,,,,,
,,,,,,5f946b72d654c628ea868716,62c53a3defe3f624ee48cff2,2022-07-06_09h31.45.463,Colour_Asymmetry_Pilot,2022.1.3,Win32,144.2377037,62c50e9c1127f2cd403a315f,0,25,25,107,1,twofour,,,,,,,,,,,,,,,,,,,,,,,,,,,,,,,,,,,,,,,,,,,,,,,,,,,,,,,,,,,,,,,,,,,,,,,,,,,,,,,,,,,,,,,,,,,,,,,,,,,,,,,,,,,,,,,,,,,,,,,,,,,,,,,,,,,,,,,,,,,,,,,,,,,,,,,,,,,,,
,,,,,,5f946b72d654c628ea868716,62c53a3defe3f624ee48cff2,2022-07-06_09h31.45.463,Colour_Asymmetry_Pilot,2022.1.3,Win32,144.2377037,62c50e9c1127f2cd403a315f,0,26,26,61,1,threefour,,,,,,,,,,,,,,,,,,,,,,,,,,,,,,,,,,,,,,,,,,,,,,,,,,,,,,,,,,,,,,,,,,,,,,,,,,,,,,,,,,,,,,,,,,,,,,,,,,,,,,,,,,,,,,,,,,,,,,,,,,,,,,,,,,,,,,,,,,,,,,,,,,,,,,,,,,,,,
,,,,,,5f946b72d654c628ea868716,62c53a3defe3f624ee48cff2,2022-07-06_09h31.45.463,Colour_Asymmetry_Pilot,2022.1.3,Win32,144.2377037,62c50e9c1127f2cd403a315f,0,27,27,106,1,twoone,,,,,,,,,,,,,,,,,,,,,,,,,,,,,,,,,,,,,,,,,,,,,,,,,,,,,,,,,,,,,,,,,,,,,,,,,,,,,,,,,,,,,,,,,,,,,,,,,,,,,,,,,,,,,,,,,,,,,,,,,,,,,,,,,,,,,,,,,,,,,,,,,,,,,,,,,,,,,
,,,,,,5f946b72d654c628ea868716,62c53a3defe3f624ee48cff2,2022-07-06_09h31.45.463,Colour_Asymmetry_Pilot,2022.1.3,Win32,144.2377037,62c50e9c1127f2cd403a315f,0,28,28,25,1,onethree,,,,,,,,,,,,,,,,,,,,,,,,,,,,,,,,,,,,,,,,,,,,,,,,,,,,,,,,,,,,,,,,,,,,,,,,,,,,,,,,,,,,,,,,,,,,,,,,,,,,,,,,,,,,,,,,,,,,,,,,,,,,,,,,,,,,,,,,,,,,,,,,,,,,,,,,,,,,,
,,,,,,5f946b72d654c628ea868716,62c53a3defe3f624ee48cff2,2022-07-06_09h31.45.463,Colour_Asymmetry_Pilot,2022.1.3,Win32,144.2377037,62c50e9c1127f2cd403a315f,0,29,29,0,1,onetwo,,,,,,,,,,,,,,,,,,,,,,,,,,,,,,,,,,,,,,,,,,,,,,,,,,,,,,,,,,,,,,,,,,,,,,,,,,,,,,,,,,,,,,,,,,,,,,,,,,,,,,,,,,,,,,,,,,,,,,,,,,,,,,,,,,,,,,,,,,,,,,,,,,,,,,,,,,,,,
,,,,,,5f946b72d654c628ea868716,62c53a3defe3f624ee48cff2,2022-07-06_09h31.45.463,Colour_Asymmetry_Pilot,2022.1.3,Win32,144.2377037,62c50e9c1127f2cd403a315f,0,30,30,103,1,fourthree,,,,,,,,,,,,,,,,,,,,,,,,,,,,,,,,,,,,,,,,,,,,,,,,,,,,,,,,,,,,,,,,,,,,,,,,,,,,,,,,,,,,,,,,,,,,,,,,,,,,,,,,,,,,,,,,,,,,,,,,,,,,,,,,,,,,,,,,,,,,,,,,,,,,,,,,,,,,,
,,,,,,5f946b72d654c628ea868716,62c53a3defe3f624ee48cff2,2022-07-06_09h31.45.463,Colour_Asymmetry_Pilot,2022.1.3,Win32,144.2377037,62c50e9c1127f2cd403a315f,0,31,31,131,1,twofour,,,,,,,,,,,,,,,,,,,,,,,,,,,,,,,,,,,,,,,,,,,,,,,,,,,,,,,,,,,,,,,,,,,,,,,,,,,,,,,,,,,,,,,,,,,,,,,,,,,,,,,,,,,,,,,,,,,,,,,,,,,,,,,,,,,,,,,,,,,,,,,,,,,,,,,,,,,,,
,,,,,,5f946b72d654c628ea868716,62c53a3defe3f624ee48cff2,2022-07-06_09h31.45.463,Colour_Asymmetry_Pilot,2022.1.3,Win32,144.2377037,62c50e9c1127f2cd403a315f,0,32,32,155,1,twofour,,,,,,,,,,,,,,,,,,,,,,,,,,,,,,,,,,,,,,,,,,,,,,,,,,,,,,,,,,,,,,,,,,,,,,,,,,,,,,,,,,,,,,,,,,,,,,,,,,,,,,,,,,,,,,,,,,,,,,,,,,,,,,,,,,,,,,,,,,,,,,,,,,,,,,,,,,,,,
,,,,,,5f946b72d654c628ea868716,62c53a3defe3f624ee48cff2,2022-07-06_09h31.45.463,Colour_Asymmetry_Pilot,2022.1.3,Win32,144.2377037,62c50e9c1127f2cd403a315f,0,33,33,98,1,twoone,,,,,,,,,,,,,,,,,,,,,,,,,,,,,,,,,,,,,,,,,,,,,,,,,,,,,,,,,,,,,,,,,,,,,,,,,,,,,,,,,,,,,,,,,,,,,,,,,,,,,,,,,,,,,,,,,,,,,,,,,,,,,,,,,,,,,,,,,,,,,,,,,,,,,,,,,,,,,
,,,,,,5f946b72d654c628ea868716,62c53a3defe3f624ee48cff2,2022-07-06_09h31.45.463,Colour_Asymmetry_Pilot,2022.1.3,Win32,144.2377037,62c50e9c1127f2cd403a315f,0,34,34,15,1,fourthree,,,,,,,,,,,,,,,,,,,,,,,,,,,,,,,,,,,,,,,,,,,,,,,,,,,,,,,,,,,,,,,,,,,,,,,,,,,,,,,,,,,,,,,,,,,,,,,,,,,,,,,,,,,,,,,,,,,,,,,,,,,,,,,,,,,,,,,,,,,,,,,,,,,,,,,,,,,,,
,,,,,,5f946b72d654c628ea868716,62c53a3defe3f624ee48cff2,2022-07-06_09h31.45.463,Colour_Asymmetry_Pilot,2022.1.3,Win32,144.2377037,62c50e9c1127f2cd403a315f,0,35,35,87,1,fourthree,,,,,,,,,,,,,,,,,,,,,,,,,,,,,,,,,,,,,,,,,,,,,,,,,,,,,,,,,,,,,,,,,,,,,,,,,,,,,,,,,,,,,,,,,,,,,,,,,,,,,,,,,,,,,,,,,,,,,,,,,,,,,,,,,,,,,,,,,,,,,,,,,,,,,,,,,,,,,
,,,,,,5f946b72d654c628ea868716,62c53a3defe3f624ee48cff2,2022-07-06_09h31.45.463,Colour_Asymmetry_Pilot,2022.1.3,Win32,144.2377037,62c50e9c1127f2cd403a315f,0,36,36,95,1,fourthree,,,,,,,,,,,,,,,,,,,,,,,,,,,,,,,,,,,,,,,,,,,,,,,,,,,,,,,,,,,,,,,,,,,,,,,,,,,,,,,,,,,,,,,,,,,,,,,,,,,,,,,,,,,,,,,,,,,,,,,,,,,,,,,,,,,,,,,,,,,,,,,,,,,,,,,,,,,,,
,,,,,,5f946b72d654c628ea868716,62c53a3defe3f624ee48cff2,2022-07-06_09h31.45.463,Colour_Asymmetry_Pilot,2022.1.3,Win32,144.2377037,62c50e9c1127f2cd403a315f,0,37,37,93,1,threefour,,,,,,,,,,,,,,,,,,,,,,,,,,,,,,,,,,,,,,,,,,,,,,,,,,,,,,,,,,,,,,,,,,,,,,,,,,,,,,,,,,,,,,,,,,,,,,,,,,,,,,,,,,,,,,,,,,,,,,,,,,,,,,,,,,,,,,,,,,,,,,,,,,,,,,,,,,,,,
,,,,,,5f946b72d654c628ea868716,62c53a3defe3f624ee48cff2,2022-07-06_09h31.45.463,Colour_Asymmetry_Pilot,2022.1.3,Win32,144.2377037,62c50e9c1127f2cd403a315f,0,38,38,115,1,twofour,,,,,,,,,,,,,,,,,,,,,,,,,,,,,,,,,,,,,,,,,,,,,,,,,,,,,,,,,,,,,,,,,,,,,,,,,,,,,,,,,,,,,,,,,,,,,,,,,,,,,,,,,,,,,,,,,,,,,,,,,,,,,,,,,,,,,,,,,,,,,,,,,,,,,,,,,,,,,
,,,,,,5f946b72d654c628ea868716,62c53a3defe3f624ee48cff2,2022-07-06_09h31.45.463,Colour_Asymmetry_Pilot,2022.1.3,Win32,144.2377037,62c50e9c1127f2cd403a315f,0,39,39,148,1,threeone,,,,,,,,,,,,,,,,,,,,,,,,,,,,,,,,,,,,,,,,,,,,,,,,,,,,,,,,,,,,,,,,,,,,,,,,,,,,,,,,,,,,,,,,,,,,,,,,,,,,,,,,,,,,,,,,,,,,,,,,,,,,,,,,,,,,,,,,,,,,,,,,,,,,,,,,,,,,,
,,,,,,5f946b72d654c628ea868716,62c53a3defe3f624ee48cff2,2022-07-06_09h31.45.463,Colour_Asymmetry_Pilot,2022.1.3,Win32,144.2377037,62c50e9c1127f2cd403a315f,0,40,40,123,1,twofour,,,,,,,,,,,,,,,,,,,,,,,,,,,,,,,,,,,,,,,,,,,,,,,,,,,,,,,,,,,,,,,,,,,,,,,,,,,,,,,,,,,,,,,,,,,,,,,,,,,,,,,,,,,,,,,,,,,,,,,,,,,,,,,,,,,,,,,,,,,,,,,,,,,,,,,,,,,,,
,,,,,,5f946b72d654c628ea868716,62c53a3defe3f624ee48cff2,2022-07-06_09h31.45.463,Colour_Asymmetry_Pilot,2022.1.3,Win32,144.2377037,62c50e9c1127f2cd403a315f,0,41,41,90,1,twoone,,,,,,,,,,,,,,,,,,,,,,,,,,,,,,,,,,,,,,,,,,,,,,,,,,,,,,,,,,,,,,,,,,,,,,,,,,,,,,,,,,,,,,,,,,,,,,,,,,,,,,,,,,,,,,,,,,,,,,,,,,,,,,,,,,,,,,,,,,,,,,,,,,,,,,,,,,,,,
,,,,,,5f946b72d654c628ea868716,62c53a3defe3f624ee48cff2,2022-07-06_09h31.45.463,Colour_Asymmetry_Pilot,2022.1.3,Win32,144.2377037,62c50e9c1127f2cd403a315f,0,42,42,129,1,onethree,,,,,,,,,,,,,,,,,,,,,,,,,,,,,,,,,,,,,,,,,,,,,,,,,,,,,,,,,,,,,,,,,,,,,,,,,,,,,,,,,,,,,,,,,,,,,,,,,,,,,,,,,,,,,,,,,,,,,,,,,,,,,,,,,,,,,,,,,,,,,,,,,,,,,,,,,,,,,
,,,,,,5f946b72d654c628ea868716,62c53a3defe3f624ee48cff2,2022-07-06_09h31.45.463,Colour_Asymmetry_Pilot,2022.1.3,Win32,144.2377037,62c50e9c1127f2cd403a315f,0,43,43,56,1,onetwo,,,,,,,,,,,,,,,,,,,,,,,,,,,,,,,,,,,,,,,,,,,,,,,,,,,,,,,,,,,,,,,,,,,,,,,,,,,,,,,,,,,,,,,,,,,,,,,,,,,,,,,,,,,,,,,,,,,,,,,,,,,,,,,,,,,,,,,,,,,,,,,,,,,,,,,,,,,,,
,,,,,,5f946b72d654c628ea868716,62c53a3defe3f624ee48cff2,2022-07-06_09h31.45.463,Colour_Asymmetry_Pilot,2022.1.3,Win32,144.2377037,62c50e9c1127f2cd403a315f,0,44,44,127,1,fourthree,,,,,,,,,,,,,,,,,,,,,,,,,,,,,,,,,,,,,,,,,,,,,,,,,,,,,,,,,,,,,,,,,,,,,,,,,,,,,,,,,,,,,,,,,,,,,,,,,,,,,,,,,,,,,,,,,,,,,,,,,,,,,,,,,,,,,,,,,,,,,,,,,,,,,,,,,,,,,
,,,,,,5f946b72d654c628ea868716,62c53a3defe3f624ee48cff2,2022-07-06_09h31.45.463,Colour_Asymmetry_Pilot,2022.1.3,Win32,144.2377037,62c50e9c1127f2cd403a315f,0,45,45,81,1,onethree,,,,,,,,,,,,,,,,,,,,,,,,,,,,,,,,,,,,,,,,,,,,,,,,,,,,,,,,,,,,,,,,,,,,,,,,,,,,,,,,,,,,,,,,,,,,,,,,,,,,,,,,,,,,,,,,,,,,,,,,,,,,,,,,,,,,,,,,,,,,,,,,,,,,,,,,,,,,,
,,,,,,5f946b72d654c628ea868716,62c53a3defe3f624ee48cff2,2022-07-06_09h31.45.463,Colour_Asymmetry_Pilot,2022.1.3,Win32,144.2377037,62c50e9c1127f2cd403a315f,0,46,46,145,1,onethree,,,,,,,,,,,,,,,,,,,,,,,,,,,,,,,,,,,,,,,,,,,,,,,,,,,,,,,,,,,,,,,,,,,,,,,,,,,,,,,,,,,,,,,,,,,,,,,,,,,,,,,,,,,,,,,,,,,,,,,,,,,,,,,,,,,,,,,,,,,,,,,,,,,,,,,,,,,,,
,,,,,,5f946b72d654c628ea868716,62c53a3defe3f624ee48cff2,2022-07-06_09h31.45.463,Colour_Asymmetry_Pilot,2022.1.3,Win32,144.2377037,62c50e9c1127f2cd403a315f,0,47,47,140,1,threeone,,,,,,,,,,,,,,,,,,,,,,,,,,,,,,,,,,,,,,,,,,,,,,,,,,,,,,,,,,,,,,,,,,,,,,,,,,,,,,,,,,,,,,,,,,,,,,,,,,,,,,,,,,,,,,,,,,,,,,,,,,,,,,,,,,,,,,,,,,,,,,,,,,,,,,,,,,,,,
,,,,,,5f946b72d654c628ea868716,62c53a3defe3f624ee48cff2,2022-07-06_09h31.45.463,Colour_Asymmetry_Pilot,2022.1.3,Win32,144.2377037,62c50e9c1127f2cd403a315f,0,48,48,86,1,fourtwo,,,,,,,,,,,,,,,,,,,,,,,,,,,,,,,,,,,,,,,,,,,,,,,,,,,,,,,,,,,,,,,,,,,,,,,,,,,,,,,,,,,,,,,,,,,,,,,,,,,,,,,,,,,,,,,,,,,,,,,,,,,,,,,,,,,,,,,,,,,,,,,,,,,,,,,,,,,,,
,,,,,,5f946b72d654c628ea868716,62c53a3defe3f624ee48cff2,2022-07-06_09h31.45.463,Colour_Asymmetry_Pilot,2022.1.3,Win32,144.2377037,62c50e9c1127f2cd403a315f,0,49,49,151,1,fourthree,,,,,,,,,,,,,,,,,,,,,,,,,,,,,,,,,,,,,,,,,,,,,,,,,,,,,,,,,,,,,,,,,,,,,,,,,,,,,,,,,,,,,,,,,,,,,,,,,,,,,,,,,,,,,,,,,,,,,,,,,,,,,,,,,,,,,,,,,,,,,,,,,,,,,,,,,,,,,
,,,,,,5f946b72d654c628ea868716,62c53a3defe3f624ee48cff2,2022-07-06_09h31.45.463,Colour_Asymmetry_Pilot,2022.1.3,Win32,144.2377037,62c50e9c1127f2cd403a315f,0,50,50,73,1,onethree,,,,,,,,,,,,,,,,,,,,,,,,,,,,,,,,,,,,,,,,,,,,,,,,,,,,,,,,,,,,,,,,,,,,,,,,,,,,,,,,,,,,,,,,,,,,,,,,,,,,,,,,,,,,,,,,,,,,,,,,,,,,,,,,,,,,,,,,,,,,,,,,,,,,,,,,,,,,,
,,,,,,5f946b72d654c628ea868716,62c53a3defe3f624ee48cff2,2022-07-06_09h31.45.463,Colour_Asymmetry_Pilot,2022.1.3,Win32,144.2377037,62c50e9c1127f2cd403a315f,0,51,51,118,1,fourtwo,,,,,,,,,,,,,,,,,,,,,,,,,,,,,,,,,,,,,,,,,,,,,,,,,,,,,,,,,,,,,,,,,,,,,,,,,,,,,,,,,,,,,,,,,,,,,,,,,,,,,,,,,,,,,,,,,,,,,,,,,,,,,,,,,,,,,,,,,,,,,,,,,,,,,,,,,,,,,
,,,,,,5f946b72d654c628ea868716,62c53a3defe3f624ee48cff2,2022-07-06_09h31.45.463,Colour_Asymmetry_Pilot,2022.1.3,Win32,144.2377037,62c50e9c1127f2cd403a315f,0,52,52,142,1,fourtwo,,,,,,,,,,,,,,,,,,,,,,,,,,,,,,,,,,,,,,,,,,,,,,,,,,,,,,,,,,,,,,,,,,,,,,,,,,,,,,,,,,,,,,,,,,,,,,,,,,,,,,,,,,,,,,,,,,,,,,,,,,,,,,,,,,,,,,,,,,,,,,,,,,,,,,,,,,,,,
,,,,,,5f946b72d654c628ea868716,62c53a3defe3f624ee48cff2,2022-07-06_09h31.45.463,Colour_Asymmetry_Pilot,2022.1.3,Win32,144.2377037,62c50e9c1127f2cd403a315f,0,53,53,13,1,threefour,,,,,,,,,,,,,,,,,,,,,,,,,,,,,,,,,,,,,,,,,,,,,,,,,,,,,,,,,,,,,,,,,,,,,,,,,,,,,,,,,,,,,,,,,,,,,,,,,,,,,,,,,,,,,,,,,,,,,,,,,,,,,,,,,,,,,,,,,,,,,,,,,,,,,,,,,,,,,
,,,,,,5f946b72d654c628ea868716,62c53a3defe3f624ee48cff2,2022-07-06_09h31.45.463,Colour_Asymmetry_Pilot,2022.1.3,Win32,144.2377037,62c50e9c1127f2cd403a315f,0,54,54,16,1,onetwo,,,,,,,,,,,,,,,,,,,,,,,,,,,,,,,,,,,,,,,,,,,,,,,,,,,,,,,,,,,,,,,,,,,,,,,,,,,,,,,,,,,,,,,,,,,,,,,,,,,,,,,,,,,,,,,,,,,,,,,,,,,,,,,,,,,,,,,,,,,,,,,,,,,,,,,,,,,,,
,,,,,,5f946b72d654c628ea868716,62c53a3defe3f624ee48cff2,2022-07-06_09h31.45.463,Colour_Asymmetry_Pilot,2022.1.3,Win32,144.2377037,62c50e9c1127f2cd403a315f,0,55,55,35,1,twofour,,,,,,,,,,,,,,,,,,,,,,,,,,,,,,,,,,,,,,,,,,,,,,,,,,,,,,,,,,,,,,,,,,,,,,,,,,,,,,,,,,,,,,,,,,,,,,,,,,,,,,,,,,,,,,,,,,,,,,,,,,,,,,,,,,,,,,,,,,,,,,,,,,,,,,,,,,,,,
,,,,,,5f946b72d654c628ea868716,62c53a3defe3f624ee48cff2,2022-07-06_09h31.45.463,Colour_Asymmetry_Pilot,2022.1.3,Win32,144.2377037,62c50e9c1127f2cd403a315f,0,56,56,108,1,threeone,,,,,,,,,,,,,,,,,,,,,,,,,,,,,,,,,,,,,,,,,,,,,,,,,,,,,,,,,,,,,,,,,,,,,,,,,,,,,,,,,,,,,,,,,,,,,,,,,,,,,,,,,,,,,,,,,,,,,,,,,,,,,,,,,,,,,,,,,,,,,,,,,,,,,,,,,,,,,
,,,,,,5f946b72d654c628ea868716,62c53a3defe3f624ee48cff2,2022-07-06_09h31.45.463,Colour_Asymmetry_Pilot,2022.1.3,Win32,144.2377037,62c50e9c1127f2cd403a315f,0,57,57,32,1,onetwo,,,,,,,,,,,,,,,,,,,,,,,,,,,,,,,,,,,,,,,,,,,,,,,,,,,,,,,,,,,,,,,,,,,,,,,,,,,,,,,,,,,,,,,,,,,,,,,,,,,,,,,,,,,,,,,,,,,,,,,,,,,,,,,,,,,,,,,,,,,,,,,,,,,,,,,,,,,,,
,,,,,,5f946b72d654c628ea868716,62c53a3defe3f624ee48cff2,2022-07-06_09h31.45.463,Colour_Asymmetry_Pilot,2022.1.3,Win32,144.2377037,62c50e9c1127f2cd403a315f,0,58,58,136,1,onetwo,,,,,,,,,,,,,,,,,,,,,,,,,,,,,,,,,,,,,,,,,,,,,,,,,,,,,,,,,,,,,,,,,,,,,,,,,,,,,,,,,,,,,,,,,,,,,,,,,,,,,,,,,,,,,,,,,,,,,,,,,,,,,,,,,,,,,,,,,,,,,,,,,,,,,,,,,,,,,
,,,,,,5f946b72d654c628ea868716,62c53a3defe3f624ee48cff2,2022-07-06_09h31.45.463,Colour_Asymmetry_Pilot,2022.1.3,Win32,144.2377037,62c50e9c1127f2cd403a315f,0,59,59,104,1,onetwo,,,,,,,,,,,,,,,,,,,,,,,,,,,,,,,,,,,,,,,,,,,,,,,,,,,,,,,,,,,,,,,,,,,,,,,,,,,,,,,,,,,,,,,,,,,,,,,,,,,,,,,,,,,,,,,,,,,,,,,,,,,,,,,,,,,,,,,,,,,,,,,,,,,,,,,,,,,,,
,,,,,,5f946b72d654c628ea868716,62c53a3defe3f624ee48cff2,2022-07-06_09h31.45.463,Colour_Asymmetry_Pilot,2022.1.3,Win32,144.2377037,62c50e9c1127f2cd403a315f,0,60,60,124,1,threeone,,,,,,,,,,,,,,,,,,,,,,,,,,,,,,,,,,,,,,,,,,,,,,,,,,,,,,,,,,,,,,,,,,,,,,,,,,,,,,,,,,,,,,,,,,,,,,,,,,,,,,,,,,,,,,,,,,,,,,,,,,,,,,,,,,,,,,,,,,,,,,,,,,,,,,,,,,,,,
,,,,,,5f946b72d654c628ea868716,62c53a3defe3f624ee48cff2,2022-07-06_09h31.45.463,Colour_Asymmetry_Pilot,2022.1.3,Win32,144.2377037,62c50e9c1127f2cd403a315f,0,61,61,68,1,threeone,,,,,,,,,,,,,,,,,,,,,,,,,,,,,,,,,,,,,,,,,,,,,,,,,,,,,,,,,,,,,,,,,,,,,,,,,,,,,,,,,,,,,,,,,,,,,,,,,,,,,,,,,,,,,,,,,,,,,,,,,,,,,,,,,,,,,,,,,,,,,,,,,,,,,,,,,,,,,
,,,,,,5f946b72d654c628ea868716,62c53a3defe3f624ee48cff2,2022-07-06_09h31.45.463,Colour_Asymmetry_Pilot,2022.1.3,Win32,144.2377037,62c50e9c1127f2cd403a315f,0,62,62,18,1,twoone,,,,,,,,,,,,,,,,,,,,,,,,,,,,,,,,,,,,,,,,,,,,,,,,,,,,,,,,,,,,,,,,,,,,,,,,,,,,,,,,,,,,,,,,,,,,,,,,,,,,,,,,,,,,,,,,,,,,,,,,,,,,,,,,,,,,,,,,,,,,,,,,,,,,,,,,,,,,,
,,,,,,5f946b72d654c628ea868716,62c53a3defe3f624ee48cff2,2022-07-06_09h31.45.463,Colour_Asymmetry_Pilot,2022.1.3,Win32,144.2377037,62c50e9c1127f2cd403a315f,0,63,63,70,1,fourtwo,,,,,,,,,,,,,,,,,,,,,,,,,,,,,,,,,,,,,,,,,,,,,,,,,,,,,,,,,,,,,,,,,,,,,,,,,,,,,,,,,,,,,,,,,,,,,,,,,,,,,,,,,,,,,,,,,,,,,,,,,,,,,,,,,,,,,,,,,,,,,,,,,,,,,,,,,,,,,
,,,,,,5f946b72d654c628ea868716,62c53a3defe3f624ee48cff2,2022-07-06_09h31.45.463,Colour_Asymmetry_Pilot,2022.1.3,Win32,144.2377037,62c50e9c1127f2cd403a315f,0,64,64,72,1,onetwo,,,,,,,,,,,,,,,,,,,,,,,,,,,,,,,,,,,,,,,,,,,,,,,,,,,,,,,,,,,,,,,,,,,,,,,,,,,,,,,,,,,,,,,,,,,,,,,,,,,,,,,,,,,,,,,,,,,,,,,,,,,,,,,,,,,,,,,,,,,,,,,,,,,,,,,,,,,,,
,,,,,,5f946b72d654c628ea868716,62c53a3defe3f624ee48cff2,2022-07-06_09h31.45.463,Colour_Asymmetry_Pilot,2022.1.3,Win32,144.2377037,62c50e9c1127f2cd403a315f,0,65,65,34,1,twoone,,,,,,,,,,,,,,,,,,,,,,,,,,,,,,,,,,,,,,,,,,,,,,,,,,,,,,,,,,,,,,,,,,,,,,,,,,,,,,,,,,,,,,,,,,,,,,,,,,,,,,,,,,,,,,,,,,,,,,,,,,,,,,,,,,,,,,,,,,,,,,,,,,,,,,,,,,,,,
,,,,,,5f946b72d654c628ea868716,62c53a3defe3f624ee48cff2,2022-07-06_09h31.45.463,Colour_Asymmetry_Pilot,2022.1.3,Win32,144.2377037,62c50e9c1127f2cd403a315f,0,66,66,58,1,twoone,,,,,,,,,,,,,,,,,,,,,,,,,,,,,,,,,,,,,,,,,,,,,,,,,,,,,,,,,,,,,,,,,,,,,,,,,,,,,,,,,,,,,,,,,,,,,,,,,,,,,,,,,,,,,,,,,,,,,,,,,,,,,,,,,,,,,,,,,,,,,,,,,,,,,,,,,,,,,
,,,,,,5f946b72d654c628ea868716,62c53a3defe3f624ee48cff2,2022-07-06_09h31.45.463,Colour_Asymmetry_Pilot,2022.1.3,Win32,144.2377037,62c50e9c1127f2cd403a315f,0,67,67,153,1,onethree,,,,,,,,,,,,,,,,,,,,,,,,,,,,,,,,,,,,,,,,,,,,,,,,,,,,,,,,,,,,,,,,,,,,,,,,,,,,,,,,,,,,,,,,,,,,,,,,,,,,,,,,,,,,,,,,,,,,,,,,,,,,,,,,,,,,,,,,,,,,,,,,,,,,,,,,,,,,,
,,,,,,5f946b72d654c628ea868716,62c53a3defe3f624ee48cff2,2022-07-06_09h31.45.463,Colour_Asymmetry_Pilot,2022.1.3,Win32,144.2377037,62c50e9c1127f2cd403a315f,0,68,68,7,1,fourthree,,,,,,,,,,,,,,,,,,,,,,,,,,,,,,,,,,,,,,,,,,,,,,,,,,,,,,,,,,,,,,,,,,,,,,,,,,,,,,,,,,,,,,,,,,,,,,,,,,,,,,,,,,,,,,,,,,,,,,,,,,,,,,,,,,,,,,,,,,,,,,,,,,,,,,,,,,,,,
,,,,,,5f946b72d654c628ea868716,62c53a3defe3f624ee48cff2,2022-07-06_09h31.45.463,Colour_Asymmetry_Pilot,2022.1.3,Win32,144.2377037,62c50e9c1127f2cd403a315f,0,69,69,91,1,twofour,,,,,,,,,,,,,,,,,,,,,,,,,,,,,,,,,,,,,,,,,,,,,,,,,,,,,,,,,,,,,,,,,,,,,,,,,,,,,,,,,,,,,,,,,,,,,,,,,,,,,,,,,,,,,,,,,,,,,,,,,,,,,,,,,,,,,,,,,,,,,,,,,,,,,,,,,,,,,
,,,,,,5f946b72d654c628ea868716,62c53a3defe3f624ee48cff2,2022-07-06_09h31.45.463,Colour_Asymmetry_Pilot,2022.1.3,Win32,144.2377037,62c50e9c1127f2cd403a315f,0,70,70,9,1,onethree,,,,,,,,,,,,,,,,,,,,,,,,,,,,,,,,,,,,,,,,,,,,,,,,,,,,,,,,,,,,,,,,,,,,,,,,,,,,,,,,,,,,,,,,,,,,,,,,,,,,,,,,,,,,,,,,,,,,,,,,,,,,,,,,,,,,,,,,,,,,,,,,,,,,,,,,,,,,,
,,,,,,5f946b72d654c628ea868716,62c53a3defe3f624ee48cff2,2022-07-06_09h31.45.463,Colour_Asymmetry_Pilot,2022.1.3,Win32,144.2377037,62c50e9c1127f2cd403a315f,0,71,71,5,1,threefour,,,,,,,,,,,,,,,,,,,,,,,,,,,,,,,,,,,,,,,,,,,,,,,,,,,,,,,,,,,,,,,,,,,,,,,,,,,,,,,,,,,,,,,,,,,,,,,,,,,,,,,,,,,,,,,,,,,,,,,,,,,,,,,,,,,,,,,,,,,,,,,,,,,,,,,,,,,,,
,,,,,,5f946b72d654c628ea868716,62c53a3defe3f624ee48cff2,2022-07-06_09h31.45.463,Colour_Asymmetry_Pilot,2022.1.3,Win32,144.2377037,62c50e9c1127f2cd403a315f,0,72,72,66,1,twoone,,,,,,,,,,,,,,,,,,,,,,,,,,,,,,,,,,,,,,,,,,,,,,,,,,,,,,,,,,,,,,,,,,,,,,,,,,,,,,,,,,,,,,,,,,,,,,,,,,,,,,,,,,,,,,,,,,,,,,,,,,,,,,,,,,,,,,,,,,,,,,,,,,,,,,,,,,,,,
,,,,,,5f946b72d654c628ea868716,62c53a3defe3f624ee48cff2,2022-07-06_09h31.45.463,Colour_Asymmetry_Pilot,2022.1.3,Win32,144.2377037,62c50e9c1127f2cd403a315f,0,73,73,126,1,fourtwo,,,,,,,,,,,,,,,,,,,,,,,,,,,,,,,,,,,,,,,,,,,,,,,,,,,,,,,,,,,,,,,,,,,,,,,,,,,,,,,,,,,,,,,,,,,,,,,,,,,,,,,,,,,,,,,,,,,,,,,,,,,,,,,,,,,,,,,,,,,,,,,,,,,,,,,,,,,,,
,,,,,,5f946b72d654c628ea868716,62c53a3defe3f624ee48cff2,2022-07-06_09h31.45.463,Colour_Asymmetry_Pilot,2022.1.3,Win32,144.2377037,62c50e9c1127f2cd403a315f,0,74,74,125,1,threefour,,,,,,,,,,,,,,,,,,,,,,,,,,,,,,,,,,,,,,,,,,,,,,,,,,,,,,,,,,,,,,,,,,,,,,,,,,,,,,,,,,,,,,,,,,,,,,,,,,,,,,,,,,,,,,,,,,,,,,,,,,,,,,,,,,,,,,,,,,,,,,,,,,,,,,,,,,,,,
,,,,,,5f946b72d654c628ea868716,62c53a3defe3f624ee48cff2,2022-07-06_09h31.45.463,Colour_Asymmetry_Pilot,2022.1.3,Win32,144.2377037,62c50e9c1127f2cd403a315f,0,75,75,161,1,onethree,,,,,,,,,,,,,,,,,,,,,,,,,,,,,,,,,,,,,,,,,,,,,,,,,,,,,,,,,,,,,,,,,,,,,,,,,,,,,,,,,,,,,,,,,,,,,,,,,,,,,,,,,,,,,,,,,,,,,,,,,,,,,,,,,,,,,,,,,,,,,,,,,,,,,,,,,,,,,
,,,,,,5f946b72d654c628ea868716,62c53a3defe3f624ee48cff2,2022-07-06_09h31.45.463,Colour_Asymmetry_Pilot,2022.1.3,Win32,144.2377037,62c50e9c1127f2cd403a315f,0,76,76,67,1,twofour,,,,,,,,,,,,,,,,,,,,,,,,,,,,,,,,,,,,,,,,,,,,,,,,,,,,,,,,,,,,,,,,,,,,,,,,,,,,,,,,,,,,,,,,,,,,,,,,,,,,,,,,,,,,,,,,,,,,,,,,,,,,,,,,,,,,,,,,,,,,,,,,,,,,,,,,,,,,,
,,,,,,5f946b72d654c628ea868716,62c53a3defe3f624ee48cff2,2022-07-06_09h31.45.463,Colour_Asymmetry_Pilot,2022.1.3,Win32,144.2377037,62c50e9c1127f2cd403a315f,0,77,77,112,1,onetwo,,,,,,,,,,,,,,,,,,,,,,,,,,,,,,,,,,,,,,,,,,,,,,,,,,,,,,,,,,,,,,,,,,,,,,,,,,,,,,,,,,,,,,,,,,,,,,,,,,,,,,,,,,,,,,,,,,,,,,,,,,,,,,,,,,,,,,,,,,,,,,,,,,,,,,,,,,,,,
,,,,,,5f946b72d654c628ea868716,62c53a3defe3f624ee48cff2,2022-07-06_09h31.45.463,Colour_Asymmetry_Pilot,2022.1.3,Win32,144.2377037,62c50e9c1127f2cd403a315f,0,78,78,3,1,twofour,,,,,,,,,,,,,,,,,,,,,,,,,,,,,,,,,,,,,,,,,,,,,,,,,,,,,,,,,,,,,,,,,,,,,,,,,,,,,,,,,,,,,,,,,,,,,,,,,,,,,,,,,,,,,,,,,,,,,,,,,,,,,,,,,,,,,,,,,,,,,,,,,,,,,,,,,,,,,
,,,,,,5f946b72d654c628ea868716,62c53a3defe3f624ee48cff2,2022-07-06_09h31.45.463,Colour_Asymmetry_Pilot,2022.1.3,Win32,144.2377037,62c50e9c1127f2cd403a315f,0,79,79,4,1,threeone,,,,,,,,,,,,,,,,,,,,,,,,,,,,,,,,,,,,,,,,,,,,,,,,,,,,,,,,,,,,,,,,,,,,,,,,,,,,,,,,,,,,,,,,,,,,,,,,,,,,,,,,,,,,,,,,,,,,,,,,,,,,,,,,,,,,,,,,,,,,,,,,,,,,,,,,,,,,,
,,,,,,5f946b72d654c628ea868716,62c53a3defe3f624ee48cff2,2022-07-06_09h31.45.463,Colour_Asymmetry_Pilot,2022.1.3,Win32,144.2377037,62c50e9c1127f2cd403a315f,0,80,80,27,1,twofour,,,,,,,,,,,,,,,,,,,,,,,,,,,,,,,,,,,,,,,,,,,,,,,,,,,,,,,,,,,,,,,,,,,,,,,,,,,,,,,,,,,,,,,,,,,,,,,,,,,,,,,,,,,,,,,,,,,,,,,,,,,,,,,,,,,,,,,,,,,,,,,,,,,,,,,,,,,,,
,,,,,,5f946b72d654c628ea868716,62c53a3defe3f624ee48cff2,2022-07-06_09h31.45.463,Colour_Asymmetry_Pilot,2022.1.3,Win32,144.2377037,62c50e9c1127f2cd403a315f,0,81,81,105,1,onethree,,,,,,,,,,,,,,,,,,,,,,,,,,,,,,,,,,,,,,,,,,,,,,,,,,,,,,,,,,,,,,,,,,,,,,,,,,,,,,,,,,,,,,,,,,,,,,,,,,,,,,,,,,,,,,,,,,,,,,,,,,,,,,,,,,,,,,,,,,,,,,,,,,,,,,,,,,,,,
,,,,,,5f946b72d654c628ea868716,62c53a3defe3f624ee48cff2,2022-07-06_09h31.45.463,Colour_Asymmetry_Pilot,2022.1.3,Win32,144.2377037,62c50e9c1127f2cd403a315f,0,82,82,146,1,twoone,,,,,,,,,,,,,,,,,,,,,,,,,,,,,,,,,,,,,,,,,,,,,,,,,,,,,,,,,,,,,,,,,,,,,,,,,,,,,,,,,,,,,,,,,,,,,,,,,,,,,,,,,,,,,,,,,,,,,,,,,,,,,,,,,,,,,,,,,,,,,,,,,,,,,,,,,,,,,
,,,,,,5f946b72d654c628ea868716,62c53a3defe3f624ee48cff2,2022-07-06_09h31.45.463,Colour_Asymmetry_Pilot,2022.1.3,Win32,144.2377037,62c50e9c1127f2cd403a315f,0,83,83,80,1,onetwo,,,,,,,,,,,,,,,,,,,,,,,,,,,,,,,,,,,,,,,,,,,,,,,,,,,,,,,,,,,,,,,,,,,,,,,,,,,,,,,,,,,,,,,,,,,,,,,,,,,,,,,,,,,,,,,,,,,,,,,,,,,,,,,,,,,,,,,,,,,,,,,,,,,,,,,,,,,,,
,,,,,,5f946b72d654c628ea868716,62c53a3defe3f624ee48cff2,2022-07-06_09h31.45.463,Colour_Asymmetry_Pilot,2022.1.3,Win32,144.2377037,62c50e9c1127f2cd403a315f,0,84,84,78,1,fourtwo,,,,,,,,,,,,,,,,,,,,,,,,,,,,,,,,,,,,,,,,,,,,,,,,,,,,,,,,,,,,,,,,,,,,,,,,,,,,,,,,,,,,,,,,,,,,,,,,,,,,,,,,,,,,,,,,,,,,,,,,,,,,,,,,,,,,,,,,,,,,,,,,,,,,,,,,,,,,,
,,,,,,5f946b72d654c628ea868716,62c53a3defe3f624ee48cff2,2022-07-06_09h31.45.463,Colour_Asymmetry_Pilot,2022.1.3,Win32,144.2377037,62c50e9c1127f2cd403a315f,0,85,85,134,1,fourtwo,,,,,,,,,,,,,,,,,,,,,,,,,,,,,,,,,,,,,,,,,,,,,,,,,,,,,,,,,,,,,,,,,,,,,,,,,,,,,,,,,,,,,,,,,,,,,,,,,,,,,,,,,,,,,,,,,,,,,,,,,,,,,,,,,,,,,,,,,,,,,,,,,,,,,,,,,,,,,
,,,,,,5f946b72d654c628ea868716,62c53a3defe3f624ee48cff2,2022-07-06_09h31.45.463,Colour_Asymmetry_Pilot,2022.1.3,Win32,144.2377037,62c50e9c1127f2cd403a315f,0,86,86,84,1,threeone,,,,,,,,,,,,,,,,,,,,,,,,,,,,,,,,,,,,,,,,,,,,,,,,,,,,,,,,,,,,,,,,,,,,,,,,,,,,,,,,,,,,,,,,,,,,,,,,,,,,,,,,,,,,,,,,,,,,,,,,,,,,,,,,,,,,,,,,,,,,,,,,,,,,,,,,,,,,,
,,,,,,5f946b72d654c628ea868716,62c53a3defe3f624ee48cff2,2022-07-06_09h31.45.463,Colour_Asymmetry_Pilot,2022.1.3,Win32,144.2377037,62c50e9c1127f2cd403a315f,0,87,87,99,1,twofour,,,,,,,,,,,,,,,,,,,,,,,,,,,,,,,,,,,,,,,,,,,,,,,,,,,,,,,,,,,,,,,,,,,,,,,,,,,,,,,,,,,,,,,,,,,,,,,,,,,,,,,,,,,,,,,,,,,,,,,,,,,,,,,,,,,,,,,,,,,,,,,,,,,,,,,,,,,,,
,,,,,,5f946b72d654c628ea868716,62c53a3defe3f624ee48cff2,2022-07-06_09h31.45.463,Colour_Asymmetry_Pilot,2022.1.3,Win32,144.2377037,62c50e9c1127f2cd403a315f,0,88,88,8,1,onetwo,,,,,,,,,,,,,,,,,,,,,,,,,,,,,,,,,,,,,,,,,,,,,,,,,,,,,,,,,,,,,,,,,,,,,,,,,,,,,,,,,,,,,,,,,,,,,,,,,,,,,,,,,,,,,,,,,,,,,,,,,,,,,,,,,,,,,,,,,,,,,,,,,,,,,,,,,,,,,
,,,,,,5f946b72d654c628ea868716,62c53a3defe3f624ee48cff2,2022-07-06_09h31.45.463,Colour_Asymmetry_Pilot,2022.1.3,Win32,144.2377037,62c50e9c1127f2cd403a315f,0,89,89,117,1,threefour,,,,,,,,,,,,,,,,,,,,,,,,,,,,,,,,,,,,,,,,,,,,,,,,,,,,,,,,,,,,,,,,,,,,,,,,,,,,,,,,,,,,,,,,,,,,,,,,,,,,,,,,,,,,,,,,,,,,,,,,,,,,,,,,,,,,,,,,,,,,,,,,,,,,,,,,,,,,,
,,,,,,5f946b72d654c628ea868716,62c53a3defe3f624ee48cff2,2022-07-06_09h31.45.463,Colour_Asymmetry_Pilot,2022.1.3,Win32,144.2377037,62c50e9c1127f2cd403a315f,0,90,90,19,1,twofour,,,,,,,,,,,,,,,,,,,,,,,,,,,,,,,,,,,,,,,,,,,,,,,,,,,,,,,,,,,,,,,,,,,,,,,,,,,,,,,,,,,,,,,,,,,,,,,,,,,,,,,,,,,,,,,,,,,,,,,,,,,,,,,,,,,,,,,,,,,,,,,,,,,,,,,,,,,,,
,,,,,,5f946b72d654c628ea868716,62c53a3defe3f624ee48cff2,2022-07-06_09h31.45.463,Colour_Asymmetry_Pilot,2022.1.3,Win32,144.2377037,62c50e9c1127f2cd403a315f,0,91,91,96,1,onetwo,,,,,,,,,,,,,,,,,,,,,,,,,,,,,,,,,,,,,,,,,,,,,,,,,,,,,,,,,,,,,,,,,,,,,,,,,,,,,,,,,,,,,,,,,,,,,,,,,,,,,,,,,,,,,,,,,,,,,,,,,,,,,,,,,,,,,,,,,,,,,,,,,,,,,,,,,,,,,
,,,,,,5f946b72d654c628ea868716,62c53a3defe3f624ee48cff2,2022-07-06_09h31.45.463,Colour_Asymmetry_Pilot,2022.1.3,Win32,144.2377037,62c50e9c1127f2cd403a315f,0,92,92,85,1,threefour,,,,,,,,,,,,,,,,,,,,,,,,,,,,,,,,,,,,,,,,,,,,,,,,,,,,,,,,,,,,,,,,,,,,,,,,,,,,,,,,,,,,,,,,,,,,,,,,,,,,,,,,,,,,,,,,,,,,,,,,,,,,,,,,,,,,,,,,,,,,,,,,,,,,,,,,,,,,,
,,,,,,5f946b72d654c628ea868716,62c53a3defe3f624ee48cff2,2022-07-06_09h31.45.463,Colour_Asymmetry_Pilot,2022.1.3,Win32,144.2377037,62c50e9c1127f2cd403a315f,0,93,93,38,1,fourtwo,,,,,,,,,,,,,,,,,,,,,,,,,,,,,,,,,,,,,,,,,,,,,,,,,,,,,,,,,,,,,,,,,,,,,,,,,,,,,,,,,,,,,,,,,,,,,,,,,,,,,,,,,,,,,,,,,,,,,,,,,,,,,,,,,,,,,,,,,,,,,,,,,,,,,,,,,,,,,
,,,,,,5f946b72d654c628ea868716,62c53a3defe3f624ee48cff2,2022-07-06_09h31.45.463,Colour_Asymmetry_Pilot,2022.1.3,Win32,144.2377037,62c50e9c1127f2cd403a315f,0,94,94,2,1,twoone,,,,,,,,,,,,,,,,,,,,,,,,,,,,,,,,,,,,,,,,,,,,,,,,,,,,,,,,,,,,,,,,,,,,,,,,,,,,,,,,,,,,,,,,,,,,,,,,,,,,,,,,,,,,,,,,,,,,,,,,,,,,,,,,,,,,,,,,,,,,,,,,,,,,,,,,,,,,,
,,,,,,5f946b72d654c628ea868716,62c53a3defe3f624ee48cff2,2022-07-06_09h31.45.463,Colour_Asymmetry_Pilot,2022.1.3,Win32,144.2377037,62c50e9c1127f2cd403a315f,0,95,95,150,1,fourtwo,,,,,,,,,,,,,,,,,,,,,,,,,,,,,,,,,,,,,,,,,,,,,,,,,,,,,,,,,,,,,,,,,,,,,,,,,,,,,,,,,,,,,,,,,,,,,,,,,,,,,,,,,,,,,,,,,,,,,,,,,,,,,,,,,,,,,,,,,,,,,,,,,,,,,,,,,,,,,
,,,,,,5f946b72d654c628ea868716,62c53a3defe3f624ee48cff2,2022-07-06_09h31.45.463,Colour_Asymmetry_Pilot,2022.1.3,Win32,144.2377037,62c50e9c1127f2cd403a315f,0,96,96,23,1,fourthree,,,,,,,,,,,,,,,,,,,,,,,,,,,,,,,,,,,,,,,,,,,,,,,,,,,,,,,,,,,,,,,,,,,,,,,,,,,,,,,,,,,,,,,,,,,,,,,,,,,,,,,,,,,,,,,,,,,,,,,,,,,,,,,,,,,,,,,,,,,,,,,,,,,,,,,,,,,,,
,,,,,,5f946b72d654c628ea868716,62c53a3defe3f624ee48cff2,2022-07-06_09h31.45.463,Colour_Asymmetry_Pilot,2022.1.3,Win32,144.2377037,62c50e9c1127f2cd403a315f,0,97,97,46,1,fourtwo,,,,,,,,,,,,,,,,,,,,,,,,,,,,,,,,,,,,,,,,,,,,,,,,,,,,,,,,,,,,,,,,,,,,,,,,,,,,,,,,,,,,,,,,,,,,,,,,,,,,,,,,,,,,,,,,,,,,,,,,,,,,,,,,,,,,,,,,,,,,,,,,,,,,,,,,,,,,,
,,,,,,5f946b72d654c628ea868716,62c53a3defe3f624ee48cff2,2022-07-06_09h31.45.463,Colour_Asymmetry_Pilot,2022.1.3,Win32,144.2377037,62c50e9c1127f2cd403a315f,0,98,98,111,1,fourthree,,,,,,,,,,,,,,,,,,,,,,,,,,,,,,,,,,,,,,,,,,,,,,,,,,,,,,,,,,,,,,,,,,,,,,,,,,,,,,,,,,,,,,,,,,,,,,,,,,,,,,,,,,,,,,,,,,,,,,,,,,,,,,,,,,,,,,,,,,,,,,,,,,,,,,,,,,,,,
,,,,,,5f946b72d654c628ea868716,62c53a3defe3f624ee48cff2,2022-07-06_09h31.45.463,Colour_Asymmetry_Pilot,2022.1.3,Win32,144.2377037,62c50e9c1127f2cd403a315f,0,99,99,17,1,onethree,,,,,,,,,,,,,,,,,,,,,,,,,,,,,,,,,,,,,,,,,,,,,,,,,,,,,,,,,,,,,,,,,,,,,,,,,,,,,,,,,,,,,,,,,,,,,,,,,,,,,,,,,,,,,,,,,,,,,,,,,,,,,,,,,,,,,,,,,,,,,,,,,,,,,,,,,,,,,
,,,,,,5f946b72d654c628ea868716,62c53a3defe3f624ee48cff2,2022-07-06_09h31.45.463,Colour_Asymmetry_Pilot,2022.1.3,Win32,144.2377037,62c50e9c1127f2cd403a315f,0,100,100,47,1,fourthree,,,,,,,,,,,,,,,,,,,,,,,,,,,,,,,,,,,,,,,,,,,,,,,,,,,,,,,,,,,,,,,,,,,,,,,,,,,,,,,,,,,,,,,,,,,,,,,,,,,,,,,,,,,,,,,,,,,,,,,,,,,,,,,,,,,,,,,,,,,,,,,,,,,,,,,,,,,,,
,,,,,,5f946b72d654c628ea868716,62c53a3defe3f624ee48cff2,2022-07-06_09h31.45.463,Colour_Asymmetry_Pilot,2022.1.3,Win32,144.2377037,62c50e9c1127f2cd403a315f,0,101,101,31,1,fourthree,,,,,,,,,,,,,,,,,,,,,,,,,,,,,,,,,,,,,,,,,,,,,,,,,,,,,,,,,,,,,,,,,,,,,,,,,,,,,,,,,,,,,,,,,,,,,,,,,,,,,,,,,,,,,,,,,,,,,,,,,,,,,,,,,,,,,,,,,,,,,,,,,,,,,,,,,,,,,
,,,,,,5f946b72d654c628ea868716,62c53a3defe3f624ee48cff2,2022-07-06_09h31.45.463,Colour_Asymmetry_Pilot,2022.1.3,Win32,144.2377037,62c50e9c1127f2cd403a315f,0,102,102,21,1,threefour,,,,,,,,,,,,,,,,,,,,,,,,,,,,,,,,,,,,,,,,,,,,,,,,,,,,,,,,,,,,,,,,,,,,,,,,,,,,,,,,,,,,,,,,,,,,,,,,,,,,,,,,,,,,,,,,,,,,,,,,,,,,,,,,,,,,,,,,,,,,,,,,,,,,,,,,,,,,,
,,,,,,5f946b72d654c628ea868716,62c53a3defe3f624ee48cff2,2022-07-06_09h31.45.463,Colour_Asymmetry_Pilot,2022.1.3,Win32,144.2377037,62c50e9c1127f2cd403a315f,0,103,103,122,1,twoone,,,,,,,,,,,,,,,,,,,,,,,,,,,,,,,,,,,,,,,,,,,,,,,,,,,,,,,,,,,,,,,,,,,,,,,,,,,,,,,,,,,,,,,,,,,,,,,,,,,,,,,,,,,,,,,,,,,,,,,,,,,,,,,,,,,,,,,,,,,,,,,,,,,,,,,,,,,,,
,,,,,,5f946b72d654c628ea868716,62c53a3defe3f624ee48cff2,2022-07-06_09h31.45.463,Colour_Asymmetry_Pilot,2022.1.3,Win32,144.2377037,62c50e9c1127f2cd403a315f,0,104,104,158,1,fourtwo,,,,,,,,,,,,,,,,,,,,,,,,,,,,,,,,,,,,,,,,,,,,,,,,,,,,,,,,,,,,,,,,,,,,,,,,,,,,,,,,,,,,,,,,,,,,,,,,,,,,,,,,,,,,,,,,,,,,,,,,,,,,,,,,,,,,,,,,,,,,,,,,,,,,,,,,,,,,,
,,,,,,5f946b72d654c628ea868716,62c53a3defe3f624ee48cff2,2022-07-06_09h31.45.463,Colour_Asymmetry_Pilot,2022.1.3,Win32,144.2377037,62c50e9c1127f2cd403a315f,0,105,105,44,1,threeone,,,,,,,,,,,,,,,,,,,,,,,,,,,,,,,,,,,,,,,,,,,,,,,,,,,,,,,,,,,,,,,,,,,,,,,,,,,,,,,,,,,,,,,,,,,,,,,,,,,,,,,,,,,,,,,,,,,,,,,,,,,,,,,,,,,,,,,,,,,,,,,,,,,,,,,,,,,,,
,,,,,,5f946b72d654c628ea868716,62c53a3defe3f624ee48cff2,2022-07-06_09h31.45.463,Colour_Asymmetry_Pilot,2022.1.3,Win32,144.2377037,62c50e9c1127f2cd403a315f,0,106,106,29,1,threefour,,,,,,,,,,,,,,,,,,,,,,,,,,,,,,,,,,,,,,,,,,,,,,,,,,,,,,,,,,,,,,,,,,,,,,,,,,,,,,,,,,,,,,,,,,,,,,,,,,,,,,,,,,,,,,,,,,,,,,,,,,,,,,,,,,,,,,,,,,,,,,,,,,,,,,,,,,,,,
,,,,,,5f946b72d654c628ea868716,62c53a3defe3f624ee48cff2,2022-07-06_09h31.45.463,Colour_Asymmetry_Pilot,2022.1.3,Win32,144.2377037,62c50e9c1127f2cd403a315f,0,107,107,139,1,twofour,,,,,,,,,,,,,,,,,,,,,,,,,,,,,,,,,,,,,,,,,,,,,,,,,,,,,,,,,,,,,,,,,,,,,,,,,,,,,,,,,,,,,,,,,,,,,,,,,,,,,,,,,,,,,,,,,,,,,,,,,,,,,,,,,,,,,,,,,,,,,,,,,,,,,,,,,,,,,
,,,,,,5f946b72d654c628ea868716,62c53a3defe3f624ee48cff2,2022-07-06_09h31.45.463,Colour_Asymmetry_Pilot,2022.1.3,Win32,144.2377037,62c50e9c1127f2cd403a315f,0,108,108,30,1,fourtwo,,,,,,,,,,,,,,,,,,,,,,,,,,,,,,,,,,,,,,,,,,,,,,,,,,,,,,,,,,,,,,,,,,,,,,,,,,,,,,,,,,,,,,,,,,,,,,,,,,,,,,,,,,,,,,,,,,,,,,,,,,,,,,,,,,,,,,,,,,,,,,,,,,,,,,,,,,,,,
,,,,,,5f946b72d654c628ea868716,62c53a3defe3f624ee48cff2,2022-07-06_09h31.45.463,Colour_Asymmetry_Pilot,2022.1.3,Win32,144.2377037,62c50e9c1127f2cd403a315f,0,109,109,152,1,onetwo,,,,,,,,,,,,,,,,,,,,,,,,,,,,,,,,,,,,,,,,,,,,,,,,,,,,,,,,,,,,,,,,,,,,,,,,,,,,,,,,,,,,,,,,,,,,,,,,,,,,,,,,,,,,,,,,,,,,,,,,,,,,,,,,,,,,,,,,,,,,,,,,,,,,,,,,,,,,,
,,,,,,5f946b72d654c628ea868716,62c53a3defe3f624ee48cff2,2022-07-06_09h31.45.463,Colour_Asymmetry_Pilot,2022.1.3,Win32,144.2377037,62c50e9c1127f2cd403a315f,0,110,110,100,1,threeone,,,,,,,,,,,,,,,,,,,,,,,,,,,,,,,,,,,,,,,,,,,,,,,,,,,,,,,,,,,,,,,,,,,,,,,,,,,,,,,,,,,,,,,,,,,,,,,,,,,,,,,,,,,,,,,,,,,,,,,,,,,,,,,,,,,,,,,,,,,,,,,,,,,,,,,,,,,,,
,,,,,,5f946b72d654c628ea868716,62c53a3defe3f624ee48cff2,2022-07-06_09h31.45.463,Colour_Asymmetry_Pilot,2022.1.3,Win32,144.2377037,62c50e9c1127f2cd403a315f,0,111,111,160,1,onetwo,,,,,,,,,,,,,,,,,,,,,,,,,,,,,,,,,,,,,,,,,,,,,,,,,,,,,,,,,,,,,,,,,,,,,,,,,,,,,,,,,,,,,,,,,,,,,,,,,,,,,,,,,,,,,,,,,,,,,,,,,,,,,,,,,,,,,,,,,,,,,,,,,,,,,,,,,,,,,
,,,,,,5f946b72d654c628ea868716,62c53a3defe3f624ee48cff2,2022-07-06_09h31.45.463,Colour_Asymmetry_Pilot,2022.1.3,Win32,144.2377037,62c50e9c1127f2cd403a315f,0,112,112,89,1,onethree,,,,,,,,,,,,,,,,,,,,,,,,,,,,,,,,,,,,,,,,,,,,,,,,,,,,,,,,,,,,,,,,,,,,,,,,,,,,,,,,,,,,,,,,,,,,,,,,,,,,,,,,,,,,,,,,,,,,,,,,,,,,,,,,,,,,,,,,,,,,,,,,,,,,,,,,,,,,,
,,,,,,5f946b72d654c628ea868716,62c53a3defe3f624ee48cff2,2022-07-06_09h31.45.463,Colour_Asymmetry_Pilot,2022.1.3,Win32,144.2377037,62c50e9c1127f2cd403a315f,0,113,113,82,1,twoone,,,,,,,,,,,,,,,,,,,,,,,,,,,,,,,,,,,,,,,,,,,,,,,,,,,,,,,,,,,,,,,,,,,,,,,,,,,,,,,,,,,,,,,,,,,,,,,,,,,,,,,,,,,,,,,,,,,,,,,,,,,,,,,,,,,,,,,,,,,,,,,,,,,,,,,,,,,,,
,,,,,,5f946b72d654c628ea868716,62c53a3defe3f624ee48cff2,2022-07-06_09h31.45.463,Colour_Asymmetry_Pilot,2022.1.3,Win32,144.2377037,62c50e9c1127f2cd403a315f,0,114,114,20,1,threeone,,,,,,,,,,,,,,,,,,,,,,,,,,,,,,,,,,,,,,,,,,,,,,,,,,,,,,,,,,,,,,,,,,,,,,,,,,,,,,,,,,,,,,,,,,,,,,,,,,,,,,,,,,,,,,,,,,,,,,,,,,,,,,,,,,,,,,,,,,,,,,,,,,,,,,,,,,,,,
,,,,,,5f946b72d654c628ea868716,62c53a3defe3f624ee48cff2,2022-07-06_09h31.45.463,Colour_Asymmetry_Pilot,2022.1.3,Win32,144.2377037,62c50e9c1127f2cd403a315f,0,115,115,77,1,threefour,,,,,,,,,,,,,,,,,,,,,,,,,,,,,,,,,,,,,,,,,,,,,,,,,,,,,,,,,,,,,,,,,,,,,,,,,,,,,,,,,,,,,,,,,,,,,,,,,,,,,,,,,,,,,,,,,,,,,,,,,,,,,,,,,,,,,,,,,,,,,,,,,,,,,,,,,,,,,
,,,,,,5f946b72d654c628ea868716,62c53a3defe3f624ee48cff2,2022-07-06_09h31.45.463,Colour_Asymmetry_Pilot,2022.1.3,Win32,144.2377037,62c50e9c1127f2cd403a315f,0,116,116,101,1,threefour,,,,,,,,,,,,,,,,,,,,,,,,,,,,,,,,,,,,,,,,,,,,,,,,,,,,,,,,,,,,,,,,,,,,,,,,,,,,,,,,,,,,,,,,,,,,,,,,,,,,,,,,,,,,,,,,,,,,,,,,,,,,,,,,,,,,,,,,,,,,,,,,,,,,,,,,,,,,,
,,,,,,5f946b72d654c628ea868716,62c53a3defe3f624ee48cff2,2022-07-06_09h31.45.463,Colour_Asymmetry_Pilot,2022.1.3,Win32,144.2377037,62c50e9c1127f2cd403a315f,0,117,117,11,1,twofour,,,,,,,,,,,,,,,,,,,,,,,,,,,,,,,,,,,,,,,,,,,,,,,,,,,,,,,,,,,,,,,,,,,,,,,,,,,,,,,,,,,,,,,,,,,,,,,,,,,,,,,,,,,,,,,,,,,,,,,,,,,,,,,,,,,,,,,,,,,,,,,,,,,,,,,,,,,,,
,,,,,,5f946b72d654c628ea868716,62c53a3defe3f624ee48cff2,2022-07-06_09h31.45.463,Colour_Asymmetry_Pilot,2022.1.3,Win32,144.2377037,62c50e9c1127f2cd403a315f,0,118,118,26,1,twoone,,,,,,,,,,,,,,,,,,,,,,,,,,,,,,,,,,,,,,,,,,,,,,,,,,,,,,,,,,,,,,,,,,,,,,,,,,,,,,,,,,,,,,,,,,,,,,,,,,,,,,,,,,,,,,,,,,,,,,,,,,,,,,,,,,,,,,,,,,,,,,,,,,,,,,,,,,,,,
,,,,,,5f946b72d654c628ea868716,62c53a3defe3f624ee48cff2,2022-07-06_09h31.45.463,Colour_Asymmetry_Pilot,2022.1.3,Win32,144.2377037,62c50e9c1127f2cd403a315f,0,119,119,45,1,threefour,,,,,,,,,,,,,,,,,,,,,,,,,,,,,,,,,,,,,,,,,,,,,,,,,,,,,,,,,,,,,,,,,,,,,,,,,,,,,,,,,,,,,,,,,,,,,,,,,,,,,,,,,,,,,,,,,,,,,,,,,,,,,,,,,,,,,,,,,,,,,,,,,,,,,,,,,,,,,
,,,,,,5f946b72d654c628ea868716,62c53a3defe3f624ee48cff2,2022-07-06_09h31.45.463,Colour_Asymmetry_Pilot,2022.1.3,Win32,144.2377037,62c50e9c1127f2cd403a315f,0,120,120,42,1,twoone,,,,,,,,,,,,,,,,,,,,,,,,,,,,,,,,,,,,,,,,,,,,,,,,,,,,,,,,,,,,,,,,,,,,,,,,,,,,,,,,,,,,,,,,,,,,,,,,,,,,,,,,,,,,,,,,,,,,,,,,,,,,,,,,,,,,,,,,,,,,,,,,,,,,,,,,,,,,,
,,,,,,5f946b72d654c628ea868716,62c53a3defe3f624ee48cff2,2022-07-06_09h31.45.463,Colour_Asymmetry_Pilot,2022.1.3,Win32,144.2377037,62c50e9c1127f2cd403a315f,0,121,121,62,1,fourtwo,,,,,,,,,,,,,,,,,,,,,,,,,,,,,,,,,,,,,,,,,,,,,,,,,,,,,,,,,,,,,,,,,,,,,,,,,,,,,,,,,,,,,,,,,,,,,,,,,,,,,,,,,,,,,,,,,,,,,,,,,,,,,,,,,,,,,,,,,,,,,,,,,,,,,,,,,,,,,
,,,,,,5f946b72d654c628ea868716,62c53a3defe3f624ee48cff2,2022-07-06_09h31.45.463,Colour_Asymmetry_Pilot,2022.1.3,Win32,144.2377037,62c50e9c1127f2cd403a315f,0,122,122,97,1,onethree,,,,,,,,,,,,,,,,,,,,,,,,,,,,,,,,,,,,,,,,,,,,,,,,,,,,,,,,,,,,,,,,,,,,,,,,,,,,,,,,,,,,,,,,,,,,,,,,,,,,,,,,,,,,,,,,,,,,,,,,,,,,,,,,,,,,,,,,,,,,,,,,,,,,,,,,,,,,,
,,,,,,5f946b72d654c628ea868716,62c53a3defe3f624ee48cff2,2022-07-06_09h31.45.463,Colour_Asymmetry_Pilot,2022.1.3,Win32,144.2377037,62c50e9c1127f2cd403a315f,0,123,123,154,1,twoone,,,,,,,,,,,,,,,,,,,,,,,,,,,,,,,,,,,,,,,,,,,,,,,,,,,,,,,,,,,,,,,,,,,,,,,,,,,,,,,,,,,,,,,,,,,,,,,,,,,,,,,,,,,,,,,,,,,,,,,,,,,,,,,,,,,,,,,,,,,,,,,,,,,,,,,,,,,,,
,,,,,,5f946b72d654c628ea868716,62c53a3defe3f624ee48cff2,2022-07-06_09h31.45.463,Colour_Asymmetry_Pilot,2022.1.3,Win32,144.2377037,62c50e9c1127f2cd403a315f,0,124,124,138,1,twoone,,,,,,,,,,,,,,,,,,,,,,,,,,,,,,,,,,,,,,,,,,,,,,,,,,,,,,,,,,,,,,,,,,,,,,,,,,,,,,,,,,,,,,,,,,,,,,,,,,,,,,,,,,,,,,,,,,,,,,,,,,,,,,,,,,,,,,,,,,,,,,,,,,,,,,,,,,,,,
,,,,,,5f946b72d654c628ea868716,62c53a3defe3f624ee48cff2,2022-07-06_09h31.45.463,Colour_Asymmetry_Pilot,2022.1.3,Win32,144.2377037,62c50e9c1127f2cd403a315f,0,125,125,41,1,onethree,,,,,,,,,,,,,,,,,,,,,,,,,,,,,,,,,,,,,,,,,,,,,,,,,,,,,,,,,,,,,,,,,,,,,,,,,,,,,,,,,,,,,,,,,,,,,,,,,,,,,,,,,,,,,,,,,,,,,,,,,,,,,,,,,,,,,,,,,,,,,,,,,,,,,,,,,,,,,
,,,,,,5f946b72d654c628ea868716,62c53a3defe3f624ee48cff2,2022-07-06_09h31.45.463,Colour_Asymmetry_Pilot,2022.1.3,Win32,144.2377037,62c50e9c1127f2cd403a315f,0,126,126,128,1,onetwo,,,,,,,,,,,,,,,,,,,,,,,,,,,,,,,,,,,,,,,,,,,,,,,,,,,,,,,,,,,,,,,,,,,,,,,,,,,,,,,,,,,,,,,,,,,,,,,,,,,,,,,,,,,,,,,,,,,,,,,,,,,,,,,,,,,,,,,,,,,,,,,,,,,,,,,,,,,,,
,,,,,,5f946b72d654c628ea868716,62c53a3defe3f624ee48cff2,2022-07-06_09h31.45.463,Colour_Asymmetry_Pilot,2022.1.3,Win32,144.2377037,62c50e9c1127f2cd403a315f,0,127,127,157,1,threefour,,,,,,,,,,,,,,,,,,,,,,,,,,,,,,,,,,,,,,,,,,,,,,,,,,,,,,,,,,,,,,,,,,,,,,,,,,,,,,,,,,,,,,,,,,,,,,,,,,,,,,,,,,,,,,,,,,,,,,,,,,,,,,,,,,,,,,,,,,,,,,,,,,,,,,,,,,,,,
,,,,,,5f946b72d654c628ea868716,62c53a3defe3f624ee48cff2,2022-07-06_09h31.45.463,Colour_Asymmetry_Pilot,2022.1.3,Win32,144.2377037,62c50e9c1127f2cd403a315f,0,128,128,64,1,onetwo,,,,,,,,,,,,,,,,,,,,,,,,,,,,,,,,,,,,,,,,,,,,,,,,,,,,,,,,,,,,,,,,,,,,,,,,,,,,,,,,,,,,,,,,,,,,,,,,,,,,,,,,,,,,,,,,,,,,,,,,,,,,,,,,,,,,,,,,,,,,,,,,,,,,,,,,,,,,,
,,,,,,5f946b72d654c628ea868716,62c53a3defe3f624ee48cff2,2022-07-06_09h31.45.463,Colour_Asymmetry_Pilot,2022.1.3,Win32,144.2377037,62c50e9c1127f2cd403a315f,0,129,129,141,1,threefour,,,,,,,,,,,,,,,,,,,,,,,,,,,,,,,,,,,,,,,,,,,,,,,,,,,,,,,,,,,,,,,,,,,,,,,,,,,,,,,,,,,,,,,,,,,,,,,,,,,,,,,,,,,,,,,,,,,,,,,,,,,,,,,,,,,,,,,,,,,,,,,,,,,,,,,,,,,,,
,,,,,,5f946b72d654c628ea868716,62c53a3defe3f624ee48cff2,2022-07-06_09h31.45.463,Colour_Asymmetry_Pilot,2022.1.3,Win32,144.2377037,62c50e9c1127f2cd403a315f,0,130,130,121,1,onethree,,,,,,,,,,,,,,,,,,,,,,,,,,,,,,,,,,,,,,,,,,,,,,,,,,,,,,,,,,,,,,,,,,,,,,,,,,,,,,,,,,,,,,,,,,,,,,,,,,,,,,,,,,,,,,,,,,,,,,,,,,,,,,,,,,,,,,,,,,,,,,,,,,,,,,,,,,,,,
,,,,,,5f946b72d654c628ea868716,62c53a3defe3f624ee48cff2,2022-07-06_09h31.45.463,Colour_Asymmetry_Pilot,2022.1.3,Win32,144.2377037,62c50e9c1127f2cd403a315f,0,131,131,156,1,threeone,,,,,,,,,,,,,,,,,,,,,,,,,,,,,,,,,,,,,,,,,,,,,,,,,,,,,,,,,,,,,,,,,,,,,,,,,,,,,,,,,,,,,,,,,,,,,,,,,,,,,,,,,,,,,,,,,,,,,,,,,,,,,,,,,,,,,,,,,,,,,,,,,,,,,,,,,,,,,
,,,,,,5f946b72d654c628ea868716,62c53a3defe3f624ee48cff2,2022-07-06_09h31.45.463,Colour_Asymmetry_Pilot,2022.1.3,Win32,144.2377037,62c50e9c1127f2cd403a315f,0,132,132,110,1,fourtwo,,,,,,,,,,,,,,,,,,,,,,,,,,,,,,,,,,,,,,,,,,,,,,,,,,,,,,,,,,,,,,,,,,,,,,,,,,,,,,,,,,,,,,,,,,,,,,,,,,,,,,,,,,,,,,,,,,,,,,,,,,,,,,,,,,,,,,,,,,,,,,,,,,,,,,,,,,,,,
,,,,,,5f946b72d654c628ea868716,62c53a3defe3f624ee48cff2,2022-07-06_09h31.45.463,Colour_Asymmetry_Pilot,2022.1.3,Win32,144.2377037,62c50e9c1127f2cd403a315f,0,133,133,114,1,twoone,,,,,,,,,,,,,,,,,,,,,,,,,,,,,,,,,,,,,,,,,,,,,,,,,,,,,,,,,,,,,,,,,,,,,,,,,,,,,,,,,,,,,,,,,,,,,,,,,,,,,,,,,,,,,,,,,,,,,,,,,,,,,,,,,,,,,,,,,,,,,,,,,,,,,,,,,,,,,
,,,,,,5f946b72d654c628ea868716,62c53a3defe3f624ee48cff2,2022-07-06_09h31.45.463,Colour_Asymmetry_Pilot,2022.1.3,Win32,144.2377037,62c50e9c1127f2cd403a315f,0,134,134,92,1,threeone,,,,,,,,,,,,,,,,,,,,,,,,,,,,,,,,,,,,,,,,,,,,,,,,,,,,,,,,,,,,,,,,,,,,,,,,,,,,,,,,,,,,,,,,,,,,,,,,,,,,,,,,,,,,,,,,,,,,,,,,,,,,,,,,,,,,,,,,,,,,,,,,,,,,,,,,,,,,,
,,,,,,5f946b72d654c628ea868716,62c53a3defe3f624ee48cff2,2022-07-06_09h31.45.463,Colour_Asymmetry_Pilot,2022.1.3,Win32,144.2377037,62c50e9c1127f2cd403a315f,0,135,135,69,1,threefour,,,,,,,,,,,,,,,,,,,,,,,,,,,,,,,,,,,,,,,,,,,,,,,,,,,,,,,,,,,,,,,,,,,,,,,,,,,,,,,,,,,,,,,,,,,,,,,,,,,,,,,,,,,,,,,,,,,,,,,,,,,,,,,,,,,,,,,,,,,,,,,,,,,,,,,,,,,,,
,,,,,,5f946b72d654c628ea868716,62c53a3defe3f624ee48cff2,2022-07-06_09h31.45.463,Colour_Asymmetry_Pilot,2022.1.3,Win32,144.2377037,62c50e9c1127f2cd403a315f,0,136,136,144,1,onetwo,,,,,,,,,,,,,,,,,,,,,,,,,,,,,,,,,,,,,,,,,,,,,,,,,,,,,,,,,,,,,,,,,,,,,,,,,,,,,,,,,,,,,,,,,,,,,,,,,,,,,,,,,,,,,,,,,,,,,,,,,,,,,,,,,,,,,,,,,,,,,,,,,,,,,,,,,,,,,
,,,,,,5f946b72d654c628ea868716,62c53a3defe3f624ee48cff2,2022-07-06_09h31.45.463,Colour_Asymmetry_Pilot,2022.1.3,Win32,144.2377037,62c50e9c1127f2cd403a315f,0,137,137,147,1,twofour,,,,,,,,,,,,,,,,,,,,,,,,,,,,,,,,,,,,,,,,,,,,,,,,,,,,,,,,,,,,,,,,,,,,,,,,,,,,,,,,,,,,,,,,,,,,,,,,,,,,,,,,,,,,,,,,,,,,,,,,,,,,,,,,,,,,,,,,,,,,,,,,,,,,,,,,,,,,,
,,,,,,5f946b72d654c628ea868716,62c53a3defe3f624ee48cff2,2022-07-06_09h31.45.463,Colour_Asymmetry_Pilot,2022.1.3,Win32,144.2377037,62c50e9c1127f2cd403a315f,0,138,138,6,1,fourtwo,,,,,,,,,,,,,,,,,,,,,,,,,,,,,,,,,,,,,,,,,,,,,,,,,,,,,,,,,,,,,,,,,,,,,,,,,,,,,,,,,,,,,,,,,,,,,,,,,,,,,,,,,,,,,,,,,,,,,,,,,,,,,,,,,,,,,,,,,,,,,,,,,,,,,,,,,,,,,
,,,,,,5f946b72d654c628ea868716,62c53a3defe3f624ee48cff2,2022-07-06_09h31.45.463,Colour_Asymmetry_Pilot,2022.1.3,Win32,144.2377037,62c50e9c1127f2cd403a315f,0,139,139,120,1,onetwo,,,,,,,,,,,,,,,,,,,,,,,,,,,,,,,,,,,,,,,,,,,,,,,,,,,,,,,,,,,,,,,,,,,,,,,,,,,,,,,,,,,,,,,,,,,,,,,,,,,,,,,,,,,,,,,,,,,,,,,,,,,,,,,,,,,,,,,,,,,,,,,,,,,,,,,,,,,,,
,,,,,,5f946b72d654c628ea868716,62c53a3defe3f624ee48cff2,2022-07-06_09h31.45.463,Colour_Asymmetry_Pilot,2022.1.3,Win32,144.2377037,62c50e9c1127f2cd403a315f,0,140,140,24,1,onetwo,,,,,,,,,,,,,,,,,,,,,,,,,,,,,,,,,,,,,,,,,,,,,,,,,,,,,,,,,,,,,,,,,,,,,,,,,,,,,,,,,,,,,,,,,,,,,,,,,,,,,,,,,,,,,,,,,,,,,,,,,,,,,,,,,,,,,,,,,,,,,,,,,,,,,,,,,,,,,
,,,,,,5f946b72d654c628ea868716,62c53a3defe3f624ee48cff2,2022-07-06_09h31.45.463,Colour_Asymmetry_Pilot,2022.1.3,Win32,144.2377037,62c50e9c1127f2cd403a315f,0,141,141,135,1,fourthree,,,,,,,,,,,,,,,,,,,,,,,,,,,,,,,,,,,,,,,,,,,,,,,,,,,,,,,,,,,,,,,,,,,,,,,,,,,,,,,,,,,,,,,,,,,,,,,,,,,,,,,,,,,,,,,,,,,,,,,,,,,,,,,,,,,,,,,,,,,,,,,,,,,,,,,,,,,,,
,,,,,,5f946b72d654c628ea868716,62c53a3defe3f624ee48cff2,2022-07-06_09h31.45.463,Colour_Asymmetry_Pilot,2022.1.3,Win32,144.2377037,62c50e9c1127f2cd403a315f,0,142,142,33,1,onethree,,,,,,,,,,,,,,,,,,,,,,,,,,,,,,,,,,,,,,,,,,,,,,,,,,,,,,,,,,,,,,,,,,,,,,,,,,,,,,,,,,,,,,,,,,,,,,,,,,,,,,,,,,,,,,,,,,,,,,,,,,,,,,,,,,,,,,,,,,,,,,,,,,,,,,,,,,,,,
,,,,,,5f946b72d654c628ea868716,62c53a3defe3f624ee48cff2,2022-07-06_09h31.45.463,Colour_Asymmetry_Pilot,2022.1.3,Win32,144.2377037,62c50e9c1127f2cd403a315f,0,143,143,39,1,fourthree,,,,,,,,,,,,,,,,,,,,,,,,,,,,,,,,,,,,,,,,,,,,,,,,,,,,,,,,,,,,,,,,,,,,,,,,,,,,,,,,,,,,,,,,,,,,,,,,,,,,,,,,,,,,,,,,,,,,,,,,,,,,,,,,,,,,,,,,,,,,,,,,,,,,,,,,,,,,,
,,,,,,5f946b72d654c628ea868716,62c53a3defe3f624ee48cff2,2022-07-06_09h31.45.463,Colour_Asymmetry_Pilot,2022.1.3,Win32,144.2377037,62c50e9c1127f2cd403a315f,0,144,144,53,1,threefour,,,,,,,,,,,,,,,,,,,,,,,,,,,,,,,,,,,,,,,,,,,,,,,,,,,,,,,,,,,,,,,,,,,,,,,,,,,,,,,,,,,,,,,,,,,,,,,,,,,,,,,,,,,,,,,,,,,,,,,,,,,,,,,,,,,,,,,,,,,,,,,,,,,,,,,,,,,,,
,,,,,,5f946b72d654c628ea868716,62c53a3defe3f624ee48cff2,2022-07-06_09h31.45.463,Colour_Asymmetry_Pilot,2022.1.3,Win32,144.2377037,62c50e9c1127f2cd403a315f,0,145,145,52,1,threeone,,,,,,,,,,,,,,,,,,,,,,,,,,,,,,,,,,,,,,,,,,,,,,,,,,,,,,,,,,,,,,,,,,,,,,,,,,,,,,,,,,,,,,,,,,,,,,,,,,,,,,,,,,,,,,,,,,,,,,,,,,,,,,,,,,,,,,,,,,,,,,,,,,,,,,,,,,,,,
,,,,,,5f946b72d654c628ea868716,62c53a3defe3f624ee48cff2,2022-07-06_09h31.45.463,Colour_Asymmetry_Pilot,2022.1.3,Win32,144.2377037,62c50e9c1127f2cd403a315f,0,146,146,50,1,twoone,,,,,,,,,,,,,,,,,,,,,,,,,,,,,,,,,,,,,,,,,,,,,,,,,,,,,,,,,,,,,,,,,,,,,,,,,,,,,,,,,,,,,,,,,,,,,,,,,,,,,,,,,,,,,,,,,,,,,,,,,,,,,,,,,,,,,,,,,,,,,,,,,,,,,,,,,,,,,
,,,,,,5f946b72d654c628ea868716,62c53a3defe3f624ee48cff2,2022-07-06_09h31.45.463,Colour_Asymmetry_Pilot,2022.1.3,Win32,144.2377037,62c50e9c1127f2cd403a315f,0,147,147,113,1,onethree,,,,,,,,,,,,,,,,,,,,,,,,,,,,,,,,,,,,,,,,,,,,,,,,,,,,,,,,,,,,,,,,,,,,,,,,,,,,,,,,,,,,,,,,,,,,,,,,,,,,,,,,,,,,,,,,,,,,,,,,,,,,,,,,,,,,,,,,,,,,,,,,,,,,,,,,,,,,,
,,,,,,5f946b72d654c628ea868716,62c53a3defe3f624ee48cff2,2022-07-06_09h31.45.463,Colour_Asymmetry_Pilot,2022.1.3,Win32,144.2377037,62c50e9c1127f2cd403a315f,0,148,148,49,1,onethree,,,,,,,,,,,,,,,,,,,,,,,,,,,,,,,,,,,,,,,,,,,,,,,,,,,,,,,,,,,,,,,,,,,,,,,,,,,,,,,,,,,,,,,,,,,,,,,,,,,,,,,,,,,,,,,,,,,,,,,,,,,,,,,,,,,,,,,,,,,,,,,,,,,,,,,,,,,,,
,,,,,,5f946b72d654c628ea868716,62c53a3defe3f624ee48cff2,2022-07-06_09h31.45.463,Colour_Asymmetry_Pilot,2022.1.3,Win32,144.2377037,62c50e9c1127f2cd403a315f,0,149,149,1,1,onethree,,,,,,,,,,,,,,,,,,,,,,,,,,,,,,,,,,,,,,,,,,,,,,,,,,,,,,,,,,,,,,,,,,,,,,,,,,,,,,,,,,,,,,,,,,,,,,,,,,,,,,,,,,,,,,,,,,,,,,,,,,,,,,,,,,,,,,,,,,,,,,,,,,,,,,,,,,,,,
,,,,,,5f946b72d654c628ea868716,62c53a3defe3f624ee48cff2,2022-07-06_09h31.45.463,Colour_Asymmetry_Pilot,2022.1.3,Win32,144.2377037,62c50e9c1127f2cd403a315f,0,150,150,63,1,fourthree,,,,,,,,,,,,,,,,,,,,,,,,,,,,,,,,,,,,,,,,,,,,,,,,,,,,,,,,,,,,,,,,,,,,,,,,,,,,,,,,,,,,,,,,,,,,,,,,,,,,,,,,,,,,,,,,,,,,,,,,,,,,,,,,,,,,,,,,,,,,,,,,,,,,,,,,,,,,,
,,,,,,5f946b72d654c628ea868716,62c53a3defe3f624ee48cff2,2022-07-06_09h31.45.463,Colour_Asymmetry_Pilot,2022.1.3,Win32,144.2377037,62c50e9c1127f2cd403a315f,0,151,151,88,1,onetwo,,,,,,,,,,,,,,,,,,,,,,,,,,,,,,,,,,,,,,,,,,,,,,,,,,,,,,,,,,,,,,,,,,,,,,,,,,,,,,,,,,,,,,,,,,,,,,,,,,,,,,,,,,,,,,,,,,,,,,,,,,,,,,,,,,,,,,,,,,,,,,,,,,,,,,,,,,,,,
,,,,,,5f946b72d654c628ea868716,62c53a3defe3f624ee48cff2,2022-07-06_09h31.45.463,Colour_Asymmetry_Pilot,2022.1.3,Win32,144.2377037,62c50e9c1127f2cd403a315f,0,152,152,14,1,fourtwo,,,,,,,,,,,,,,,,,,,,,,,,,,,,,,,,,,,,,,,,,,,,,,,,,,,,,,,,,,,,,,,,,,,,,,,,,,,,,,,,,,,,,,,,,,,,,,,,,,,,,,,,,,,,,,,,,,,,,,,,,,,,,,,,,,,,,,,,,,,,,,,,,,,,,,,,,,,,,
,,,,,,5f946b72d654c628ea868716,62c53a3defe3f624ee48cff2,2022-07-06_09h31.45.463,Colour_Asymmetry_Pilot,2022.1.3,Win32,144.2377037,62c50e9c1127f2cd403a315f,0,153,153,60,1,threeone,,,,,,,,,,,,,,,,,,,,,,,,,,,,,,,,,,,,,,,,,,,,,,,,,,,,,,,,,,,,,,,,,,,,,,,,,,,,,,,,,,,,,,,,,,,,,,,,,,,,,,,,,,,,,,,,,,,,,,,,,,,,,,,,,,,,,,,,,,,,,,,,,,,,,,,,,,,,,
,,,,,,5f946b72d654c628ea868716,62c53a3defe3f624ee48cff2,2022-07-06_09h31.45.463,Colour_Asymmetry_Pilot,2022.1.3,Win32,144.2377037,62c50e9c1127f2cd403a315f,0,154,154,55,1,fourthree,,,,,,,,,,,,,,,,,,,,,,,,,,,,,,,,,,,,,,,,,,,,,,,,,,,,,,,,,,,,,,,,,,,,,,,,,,,,,,,,,,,,,,,,,,,,,,,,,,,,,,,,,,,,,,,,,,,,,,,,,,,,,,,,,,,,,,,,,,,,,,,,,,,,,,,,,,,,,
,,,,,,5f946b72d654c628ea868716,62c53a3defe3f624ee48cff2,2022-07-06_09h31.45.463,Colour_Asymmetry_Pilot,2022.1.3,Win32,144.2377037,62c50e9c1127f2cd403a315f,0,155,155,10,1,twoone,,,,,,,,,,,,,,,,,,,,,,,,,,,,,,,,,,,,,,,,,,,,,,,,,,,,,,,,,,,,,,,,,,,,,,,,,,,,,,,,,,,,,,,,,,,,,,,,,,,,,,,,,,,,,,,,,,,,,,,,,,,,,,,,,,,,,,,,,,,,,,,,,,,,,,,,,,,,,
,,,,,,5f946b72d654c628ea868716,62c53a3defe3f624ee48cff2,2022-07-06_09h31.45.463,Colour_Asymmetry_Pilot,2022.1.3,Win32,144.2377037,62c50e9c1127f2cd403a315f,0,156,156,159,1,fourthree,,,,,,,,,,,,,,,,,,,,,,,,,,,,,,,,,,,,,,,,,,,,,,,,,,,,,,,,,,,,,,,,,,,,,,,,,,,,,,,,,,,,,,,,,,,,,,,,,,,,,,,,,,,,,,,,,,,,,,,,,,,,,,,,,,,,,,,,,,,,,,,,,,,,,,,,,,,,,
,,,,,,5f946b72d654c628ea868716,62c53a3defe3f624ee48cff2,2022-07-06_09h31.45.463,Colour_Asymmetry_Pilot,2022.1.3,Win32,144.2377037,62c50e9c1127f2cd403a315f,0,157,157,65,1,onethree,,,,,,,,,,,,,,,,,,,,,,,,,,,,,,,,,,,,,,,,,,,,,,,,,,,,,,,,,,,,,,,,,,,,,,,,,,,,,,,,,,,,,,,,,,,,,,,,,,,,,,,,,,,,,,,,,,,,,,,,,,,,,,,,,,,,,,,,,,,,,,,,,,,,,,,,,,,,,
,,,,,,5f946b72d654c628ea868716,62c53a3defe3f624ee48cff2,2022-07-06_09h31.45.463,Colour_Asymmetry_Pilot,2022.1.3,Win32,144.2377037,62c50e9c1127f2cd403a315f,0,158,158,74,1,twoone,,,,,,,,,,,,,,,,,,,,,,,,,,,,,,,,,,,,,,,,,,,,,,,,,,,,,,,,,,,,,,,,,,,,,,,,,,,,,,,,,,,,,,,,,,,,,,,,,,,,,,,,,,,,,,,,,,,,,,,,,,,,,,,,,,,,,,,,,,,,,,,,,,,,,,,,,,,,,
,,,,,,5f946b72d654c628ea868716,62c53a3defe3f624ee48cff2,2022-07-06_09h31.45.463,Colour_Asymmetry_Pilot,2022.1.3,Win32,144.2377037,62c50e9c1127f2cd403a315f,0,159,159,109,1,threefour,,,,,,,,,,,,,,,,,,,,,,,,,,,,,,,,,,,,,,,,,,,,,,,,,,,,,,,,,,,,,,,,,,,,,,,,,,,,,,,,,,,,,,,,,,,,,,,,,,,,,,,,,,,,,,,,,,,,,,,,,,,,,,,,,,,,,,,,,,,,,,,,,,,,,,,,,,,,,
,,,,,,5f946b72d654c628ea868716,62c53a3defe3f624ee48cff2,2022-07-06_09h31.45.463,Colour_Asymmetry_Pilot,2022.1.3,Win32,144.2377037,62c50e9c1127f2cd403a315f,0,160,160,59,1,twofour,,,,,,,,,,,,,,,,,,,,,,,,,,,,,,,,,,,,,,,,,,,,,,,,,,,,,,,,,,,,,,,,,,,,,,,,,,,,,,,,,,,,,,,,,,,,,,,,,,,,,,,,,,,,,,,,,,,,,,,,,,,,,,,,,,,,,,,,,,,,,,,,,,,,,,,,,,,,,
,,,,,,5f946b72d654c628ea868716,62c53a3defe3f624ee48cff2,2022-07-06_09h31.45.463,Colour_Asymmetry_Pilot,2022.1.3,Win32,144.2377037,62c50e9c1127f2cd403a315f,0,161,161,132,1,threeone,,,,,,,,,,,,,,,,,,,,,,,,,,,,,,,,,,,,,,,,,,,,,,,,,,,,,,,,,,,,,,,,,,,,,,,,,,,,,,,,,,,,,,,,,,,,,,,,,,,,,,,,,,,,,,,,,,,,,,,,,,,,,,,,,,,,,,,,,,,,,,,,,,,,,,,,,,,,,
,,,,,,5f946b72d654c628ea868716,62c53a3defe3f624ee48cff2,2022-07-06_09h31.45.463,Colour_Asymmetry_Pilot,2022.1.3,Win32,144.2377037,62c50e9c1127f2cd403a315f,,,,,,,space,2.3078,space,46.6445,space,23.2307,space,12.6551,space,4.7668,space,4.6132,"[-0.01980000000000004,-0.5138,-0.38039999999999996]",fourthree,"[-0.30200000000000005,0.14500000000000002,0.2784]",-2,4.6476,-106,-47,1,0,0,response5disk_5,5,5,1,0,0,rectangle_8,5,5,1,0,0,1,5,5,1,0,0,0,0,0,0,1,,,,,,,,,,,,,,,,,,,,,,,,,,,,,,,,,,,,,,,,,,,,,,,,,,,,,,,,,,,,,,,,,,,,,,,,,,,,,,,,,,,,,,,,,,,,,,,,,,,,,,,,,,,,,,,,
,,,,,,5f946b72d654c628ea868716,62c53a3defe3f624ee48cff2,2022-07-06_09h31.45.463,Colour_Asymmetry_Pilot,2022.1.3,Win32,144.2377037,62c50e9c1127f2cd403a315f,,,,,,,,,,,,,,,,,,,"[-0.9688,-0.7412000000000001,-0.4902000000000001]",threefour,"[0.04299999999999993,0.16060000000000008,-0.6628000000000001]",1,3.9792,56,-136,1,0,0,response3disk_5,-4,-4,1,0,0,rectangle_8,62,-139,1,0,0,1,-9,1,1,0,0,1,0,1,0,1,response3disk_7,4,rectangle_4,,,,,,,,,,,,,,,,,,,,,,,,,,,,,,,,,,,,,,,,,,,,,,,,,,,,,,,,,,,,,,,,,,,,,,,,,,,,,,,,,,,,,,,,,,,,,,,,,,,,,,,,,,,,,
,,,,,,5f946b72d654c628ea868716,62c53a3defe3f624ee48cff2,2022-07-06_09h31.45.463,Colour_Asymmetry_Pilot,2022.1.3,Win32,144.2377037,62c50e9c1127f2cd403a315f,,,,,,,,,,,,,,,,,,,"[0.9686000000000001,0.5763999999999998,0.11359999999999992]",fourthree,"[0.0351999999999999,0.41159999999999997,0.0038000000000000256]",-2,2.6389,-86,-65,1,0,0,response5disk_5,-1,7,1,0,0,rectangle_8,52,-147,1,0,0,1,-23,-2,1,0,0,2,0,2,0,1,response3disk_7,4,rectangle_4,,,,,,,,,,,,,,,,,,,,,,,,,,,,,,,,,,,,,,,,,,,,,,,,,,,,,,,,,,,,,,,,,,,,,,,,,,,,,,,,,,,,,,,,,,,,,,,,,,,,,,,,,,,,,
,,,,,,5f946b72d654c628ea868716,62c53a3defe3f624ee48cff2,2022-07-06_09h31.45.463,Colour_Asymmetry_Pilot,2022.1.3,Win32,144.2377037,62c50e9c1127f2cd403a315f,,,,,,,,,,,,,,,,,,,"[-0.01980000000000004,-0.5138,-0.38039999999999996]",onethree,"[0.3802000000000001,0.19199999999999995,-0.6394]",-3,2.8403,-73,40,1,0,0,response7disk_5,-3,4,1,0,0,rectangle_8,-3,4,1,0,0,1,-3,4,1,0,0,3,0,3,0,1,,,,,,,,,,,,,,,,,,,,,,,,,,,,,,,,,,,,,,,,,,,,,,,,,,,,,,,,,,,,,,,,,,,,,,,,,,,,,,,,,,,,,,,,,,,,,,,,,,,,,,,,,,,,,,,,
,,,,,,5f946b72d654c628ea868716,62c53a3defe3f624ee48cff2,2022-07-06_09h31.45.463,Colour_Asymmetry_Pilot,2022.1.3,Win32,144.2377037,62c50e9c1127f2cd403a315f,,,,,,,,,,,,,,,,,,,"[0.7018,0.7176,0.6155999999999999]",onethree,"[0.9372,0.9450000000000001,0.8980000000000001]",4,3.3194,85,134,1,0,0,response1disk_5,-7,11,1,0,0,rectangle_8,-7,11,1,0,0,1,-7,11,1,0,0,4,0,4,0,1,,,,,,,,,,,,,,,,,,,,,,,,,,,,,,,,,,,,,,,,,,,,,,,,,,,,,,,,,,,,,,,,,,,,,,,,,,,,,,,,,,,,,,,,,,,,,,,,,,,,,,,,,,,,,,,,
,,,,,,5f946b72d654c628ea868716,62c53a3defe3f624ee48cff2,2022-07-06_09h31.45.463,Colour_Asymmetry_Pilot,2022.1.3,Win32,144.2377037,62c50e9c1127f2cd403a315f,,,,,,,,,,,,,,,,,,,"[0.5449999999999999,-0.31000000000000005,-0.0354000000000001]",twoone,"[0.3881999999999999,-0.23939999999999995,-0.05040000000000011]",4,1.2364,47,117,1,0,0,response1disk_5,-14,-1,1,0,0,rectangle_8,-14,-1,1,0,0,1,-14,-1,1,0,0,5,0,5,0,1,,,,,,,,,,,,,,,,,,,,,,,,,,,,,,,,,,,,,,,,,,,,,,,,,,,,,,,,,,,,,,,,,,,,,,,,,,,,,,,,,,,,,,,,,,,,,,,,,,,,,,,,,,,,,,,,
,,,,,,5f946b72d654c628ea868716,62c53a3defe3f624ee48cff2,2022-07-06_09h31.45.463,Colour_Asymmetry_Pilot,2022.1.3,Win32,144.2377037,62c50e9c1127f2cd403a315f,,,,,,,,,,,,,,,,,,,"[0.9372,0.9450000000000001,0.8980000000000001]",fourthree,"[-0.9688,-0.7412000000000001,-0.4902000000000001]",-4,2.007,-47,91,1,0,0,response7disk_5,7,-9,1,0,0,rectangle_8,7,-9,1,0,0,1,7,-9,1,0,0,6,0,6,0,1,,,,,,,,,,,,,,,,,,,,,,,,,,,,,,,,,,,,,,,,,,,,,,,,,,,,,,,,,,,,,,,,,,,,,,,,,,,,,,,,,,,,,,,,,,,,,,,,,,,,,,,,,,,,,,,,
,,,,,,5f946b72d654c628ea868716,62c53a3defe3f624ee48cff2,2022-07-06_09h31.45.463,Colour_Asymmetry_Pilot,2022.1.3,Win32,144.2377037,62c50e9c1127f2cd403a315f,,,,,,,,,,,,,,,,,,,,twoone,,-3,3.1811,,,,,,,,,,,,,,,,,,,,,,,,,,,,,,,,space,4.221,"[-0.7412000000000001,-0.08239999999999992,-0.6864]","[0.05879999999999996,0.2784,0.5841999999999998]",-85,42,1,0,0,response7disk,-12,2,1,0,0,rectangle,-12,2,1,0,0,,1,0.0008,0,-12,2,1,0,0,0,0,0,150,1,69,second,,,,,,,,,,,,,,,,,,,,,,,,,,,,,,,,,,,,,,,,,,,,,,,,,,,,,,,,,,,,,,,,,,,,,,,,
,,,,,,5f946b72d654c628ea868716,62c53a3defe3f624ee48cff2,2022-07-06_09h31.45.463,Colour_Asymmetry_Pilot,2022.1.3,Win32,144.2377037,62c50e9c1127f2cd403a315f,,,,,,,,,,,,,,,,,,,,twofour,,1,2.118,,,,,,,,,,,,,,,,,,,,,,,,,,,,,,,,,,"[-0.2942,-0.24719999999999998,-0.357]","[-0.5688,-0.08239999999999992,-0.1844]",60,-126,1,0,0,response3disk,0,6,1,0,0,rectangle,0,6,1,0,0,,2,0.0005,0,0,6,1,0,0,0,1,1,77,1,77,first,,,,,,,,,,,,,,,,,,,,,,,,,,,,,,,,,,,,,,,,,,,,,,,,,,,,,,,,,,,,,,,,,,,,,,,,
,,,,,,5f946b72d654c628ea868716,62c53a3defe3f624ee48cff2,2022-07-06_09h31.45.463,Colour_Asymmetry_Pilot,2022.1.3,Win32,144.2377037,62c50e9c1127f2cd403a315f,,,,,,,,,,,,,,,,,,,,twofour,,-3,2.5764,,,,,,,,,,,,,,,,,,,,,,,,,,,,,,,,,,"[-0.38039999999999996,-0.4276,-0.1452]","[0.8115999999999999,-0.0040000000000000036,-0.09819999999999995]",-97,29,1,0,0,response7disk,-12,-2,1,0,0,rectangle,-12,-2,1,0,0,,2,9.99999E-05,0,-12,-2,1,0,0,0,2,2,45,1,45,first,,,,,,,,,,,,,,,,,,,,,,,,,,,,,,,,,,,,,,,,,,,,,,,,,,,,,,,,,,,,,,,,,,,,,,,,
,,,,,,5f946b72d654c628ea868716,62c53a3defe3f624ee48cff2,2022-07-06_09h31.45.463,Colour_Asymmetry_Pilot,2022.1.3,Win32,144.2377037,62c50e9c1127f2cd403a315f,,,,,,,,,,,,,,,,,,,,threeone,,-4,4.1389,,,,,,,,,,,,,,,,,,,,,,,,,,,,,,,,,,"[-0.4276,0.0038000000000000256,-0.3256]","[-0.4982,-0.2942,-0.0354000000000001]",-44,78,1,0,0,response7disk,4,2,1,0,0,rectangle,4,2,1,0,0,,2,9.99999E-05,0,4,2,1,0,0,0,3,3,70,1,70,first,,,,,,,,,,,,,,,,,,,,,,,,,,,,,,,,,,,,,,,,,,,,,,,,,,,,,,,,,,,,,,,,,,,,,,,,
,,,,,,5f946b72d654c628ea868716,62c53a3defe3f624ee48cff2,2022-07-06_09h31.45.463,Colour_Asymmetry_Pilot,2022.1.3,Win32,144.2377037,62c50e9c1127f2cd403a315f,,,,,,,,,,,,,,,,,,,,fourthree,,2,2.6216,,,,,,,,,,,,,,,,,,,,,,,,,,,,,,,,,,"[0.5449999999999999,-0.31000000000000005,-0.0354000000000001]","[-0.10599999999999998,-0.15300000000000002,0.15280000000000005]",120,-90,1,0,0,response3disk,0,-6,1,0,0,rectangle,0,-6,1,0,0,,3,0.0006,0,0,-6,1,0,0,0,4,4,122,1,41,second,,,,,,,,,,,,,,,,,,,,,,,,,,,,,,,,,,,,,,,,,,,,,,,,,,,,,,,,,,,,,,,,,,,,,,,,
,,,,,,5f946b72d654c628ea868716,62c53a3defe3f624ee48cff2,2022-07-06_09h31.45.463,Colour_Asymmetry_Pilot,2022.1.3,Win32,144.2377037,62c50e9c1127f2cd403a315f,,,,,,,,,,,,,,,,,,,,fourthree,,-3,3.5764,,,,,,,,,,,,,,,,,,,,,,,,,,,,,,,,,,"[0.3802000000000001,0.19199999999999995,-0.6394]","[0.18419999999999992,-0.4276,-0.404]",-84,29,1,0,0,response7disk,-10,-13,1,0,0,rectangle,-10,-13,1,0,0,,3,9.99999E-05,0,-10,-13,1,0,0,0,5,5,18,1,18,first,,,,,,,,,,,,,,,,,,,,,,,,,,,,,,,,,,,,,,,,,,,,,,,,,,,,,,,,,,,,,,,,,,,,,,,,
,,,,,,5f946b72d654c628ea868716,62c53a3defe3f624ee48cff2,2022-07-06_09h31.45.463,Colour_Asymmetry_Pilot,2022.1.3,Win32,144.2377037,62c50e9c1127f2cd403a315f,,,,,,,,,,,,,,,,,,,,twofour,,1,5.0972,,,,,,,,,,,,,,,,,,,,,,,,,,,,,,,,,,"[-0.4982,-0.2942,-0.0354000000000001]","[-0.01980000000000004,-0.5138,-0.38039999999999996]",86,-142,1,0,0,response3disk,6,-2,1,0,0,rectangle,6,-2,1,0,0,,2,0.0013,0,6,-2,1,0,0,0,6,6,50,1,50,first,,,,,,,,,,,,,,,,,,,,,,,,,,,,,,,,,,,,,,,,,,,,,,,,,,,,,,,,,,,,,,,,,,,,,,,,
,,,,,,5f946b72d654c628ea868716,62c53a3defe3f624ee48cff2,2022-07-06_09h31.45.463,Colour_Asymmetry_Pilot,2022.1.3,Win32,144.2377037,62c50e9c1127f2cd403a315f,,,,,,,,,,,,,,,,,,,,onetwo,,2,1.507,,,,,,,,,,,,,,,,,,,,,,,,,,,,,,,,,,"[0.9763999999999999,0.8588,-0.05900000000000005]","[0.9372,0.20779999999999998,0.2704]",88,-69,1,0,0,response3disk,39,1,1,0,0,rectangle,39,1,1,0,0,,3,0.0005,0,39,1,1,0,0,0,7,7,140,1,59,second,,,,,,,,,,,,,,,,,,,,,,,,,,,,,,,,,,,,,,,,,,,,,,,,,,,,,,,,,,,,,,,,,,,,,,,,
,,,,,,5f946b72d654c628ea868716,62c53a3defe3f624ee48cff2,2022-07-06_09h31.45.463,Colour_Asymmetry_Pilot,2022.1.3,Win32,144.2377037,62c50e9c1127f2cd403a315f,,,,,,,,,,,,,,,,,,,,threefour,,-4,2.0731,,,,,,,,,,,,,,,,,,,,,,,,,,,,,,,,,,"[-0.9216,-0.5529999999999999,-0.3962]","[0.6625999999999999,0.4980000000000002,-0.357]",-45,96,1,0,0,response7disk,-7,-3,1,0,0,rectangle,-7,-3,1,0,0,,3,9.99999E-05,0,-7,-3,1,0,0,0,8,8,139,1,58,second,,,,,,,,,,,,,,,,,,,,,,,,,,,,,,,,,,,,,,,,,,,,,,,,,,,,,,,,,,,,,,,,,,,,,,,,
,,,,,,5f946b72d654c628ea868716,62c53a3defe3f624ee48cff2,2022-07-06_09h31.45.463,Colour_Asymmetry_Pilot,2022.1.3,Win32,144.2377037,62c50e9c1127f2cd403a315f,,,,,,,,,,,,,,,,,,,,onetwo,,3,2.4275,,,,,,,,,,,,,,,,,,,,,,,,,,,,,,,,,,"[-0.9296,-0.12959999999999994,-0.043199999999999905]","[-0.6,0.16860000000000008,0.44300000000000006]",135,39,1,0,0,response1disk,-2,-4,1,0,0,rectangle,-2,-4,1,0,0,,2,0.0004,0,-2,-4,1,0,0,0,9,9,108,1,27,second,,,,,,,,,,,,,,,,,,,,,,,,,,,,,,,,,,,,,,,,,,,,,,,,,,,,,,,,,,,,,,,,,,,,,,,,
,,,,,,5f946b72d654c628ea868716,62c53a3defe3f624ee48cff2,2022-07-06_09h31.45.463,Colour_Asymmetry_Pilot,2022.1.3,Win32,144.2377037,62c50e9c1127f2cd403a315f,,,,,,,,,,,,,,,,,,,,threeone,,-4,1.3751,,,,,,,,,,,,,,,,,,,,,,,,,,,,,,,,,,"[0.9763999999999999,-0.1137999999999999,-0.6314]","[-0.24719999999999998,0.5213999999999999,-0.12959999999999994]",-52,98,1,0,0,response7disk,9,-16,1,0,0,rectangle,9,-16,1,0,0,,3,0.0005,0,9,-16,1,0,0,0,10,10,156,1,75,second,,,,,,,,,,,,,,,,,,,,,,,,,,,,,,,,,,,,,,,,,,,,,,,,,,,,,,,,,,,,,,,,,,,,,,,,
,,,,,,5f946b72d654c628ea868716,62c53a3defe3f624ee48cff2,2022-07-06_09h31.45.463,Colour_Asymmetry_Pilot,2022.1.3,Win32,144.2377037,62c50e9c1127f2cd403a315f,,,,,,,,,,,,,,,,,,,,fourthree,,-3,1.6806,,,,,,,,,,,,,,,,,,,,,,,,,,,,,,,,,,"[0.12939999999999996,-0.2864,0.3253999999999999]","[0.9686000000000001,0.5763999999999998,0.11359999999999992]",-68,44,1,0,0,response7disk,-2,0,1,0,0,rectangle,-2,0,1,0,0,,3,0.0001,0,-2,0,1,0,0,0,11,11,37,1,37,first,,,,,,,,,,,,,,,,,,,,,,,,,,,,,,,,,,,,,,,,,,,,,,,,,,,,,,,,,,,,,,,,,,,,,,,,
,,,,,,5f946b72d654c628ea868716,62c53a3defe3f624ee48cff2,2022-07-06_09h31.45.463,Colour_Asymmetry_Pilot,2022.1.3,Win32,144.2377037,62c50e9c1127f2cd403a315f,,,,,,,,,,,,,,,,,,,,threefour,,-3,1.3056,,,,,,,,,,,,,,,,,,,,,,,,,,,,,,,,,,"[0.09799999999999986,-0.24719999999999998,0.15280000000000005]","[-0.7412000000000001,-0.08239999999999992,-0.6864]",-109,33,1,0,0,response7disk,22,-11,1,0,0,rectangle,22,-11,1,0,0,,3,0.0001,0,22,-11,1,0,0,0,12,12,153,1,72,second,,,,,,,,,,,,,,,,,,,,,,,,,,,,,,,,,,,,,,,,,,,,,,,,,,,,,,,,,,,,,,,,,,,,,,,,
,,,,,,5f946b72d654c628ea868716,62c53a3defe3f624ee48cff2,2022-07-06_09h31.45.463,Colour_Asymmetry_Pilot,2022.1.3,Win32,144.2377037,62c50e9c1127f2cd403a315f,,,,,,,,,,,,,,,,,,,,onethree,,4,0.7293,,,,,,,,,,,,,,,,,,,,,,,,,,,,,,,,,,"[0.9686000000000001,0.3802000000000001,0.19999999999999996]","[0.8115999999999999,-0.0040000000000000036,-0.09819999999999995]",36,99,1,0,0,response1disk,7,9,1,0,0,rectangle,7,9,1,0,0,,3,0.0003,0,7,9,1,0,0,0,13,13,132,1,51,second,,,,,,,,,,,,,,,,,,,,,,,,,,,,,,,,,,,,,,,,,,,,,,,,,,,,,,,,,,,,,,,,,,,,,,,,
,,,,,,5f946b72d654c628ea868716,62c53a3defe3f624ee48cff2,2022-07-06_09h31.45.463,Colour_Asymmetry_Pilot,2022.1.3,Win32,144.2377037,62c50e9c1127f2cd403a315f,,,,,,,,,,,,,,,,,,,,threeone,,4,3.2985,,,,,,,,,,,,,,,,,,,,,,,,,,,,,,,,,,"[0.23120000000000007,-0.7726,-0.34120000000000006]","[0.5449999999999999,-0.31000000000000005,-0.0354000000000001]",65,101,1,0,0,response1disk,25,-2,1,0,0,rectangle,25,-2,1,0,0,,2,0.0005,0,25,-2,1,0,0,0,14,14,123,1,42,second,,,,,,,,,,,,,,,,,,,,,,,,,,,,,,,,,,,,,,,,,,,,,,,,,,,,,,,,,,,,,,,,,,,,,,,,
,,,,,,5f946b72d654c628ea868716,62c53a3defe3f624ee48cff2,2022-07-06_09h31.45.463,Colour_Asymmetry_Pilot,2022.1.3,Win32,144.2377037,62c50e9c1127f2cd403a315f,,,,,,,,,,,,,,,,,,,,threeone,,2,4.007,,,,,,,,,,,,,,,,,,,,,,,,,,,,,,,,,,"[-0.5922000000000001,-0.7492000000000001,-0.5296000000000001]","[0.5449999999999999,-0.31000000000000005,-0.0354000000000001]",131,-71,1,0,0,response3disk,-11,-13,1,0,0,rectangle,-11,-13,1,0,0,,2,9.99999E-05,0,-11,-13,1,0,0,0,15,15,129,1,48,second,,,,,,,,,,,,,,,,,,,,,,,,,,,,,,,,,,,,,,,,,,,,,,,,,,,,,,,,,,,,,,,,,,,,,,,,
,,,,,,5f946b72d654c628ea868716,62c53a3defe3f624ee48cff2,2022-07-06_09h31.45.463,Colour_Asymmetry_Pilot,2022.1.3,Win32,144.2377037,62c50e9c1127f2cd403a315f,,,,,,,,,,,,,,,,,,,,fourtwo,,-3,1.8996,,,,,,,,,,,,,,,,,,,,,,,,,,,,,,,,,,"[0.3568,-0.20799999999999996,-0.9844]","[-0.26280000000000003,-0.4746,-0.2158]",-131,56,1,0,0,response7disk,-6,-6,1,0,0,rectangle,-6,-6,1,0,0,,3,0.0005,0,-6,-6,1,0,0,0,16,16,26,1,26,first,,,,,,,,,,,,,,,,,,,,,,,,,,,,,,,,,,,,,,,,,,,,,,,,,,,,,,,,,,,,,,,,,,,,,,,,
