trials.thisRepN,trials.thisTrialN,trials.thisN,trials.thisIndex,trials.ran,Colourcodes,participant,session,date,expName,psychopyVersion,OS,frameRate,study_id,trials_4.thisRepN,trials_4.thisTrialN,trials_4.thisN,trials_4.thisIndex,trials_4.ran,StimulusPos,key_resp.keys,key_resp.rt,key_resp_2.keys,key_resp_2.rt,key_resp_15.keys,key_resp_15.rt,key_resp_17.keys,key_resp_17.rt,key_resp_9.keys,key_resp_9.rt,key_resp_10.keys,key_resp_10.rt,Circle1_col,Ecc,Circle2_col,similarity,response_time,mouse_5.x,mouse_5.y,mouse_5.leftButton,mouse_5.midButton,mouse_5.rightButton,mouse_5.clicked_name,mouse_10.x,mouse_10.y,mouse_10.leftButton,mouse_10.midButton,mouse_10.rightButton,mouse_10.clicked_name,mouse_7.x,mouse_7.y,mouse_7.leftButton,mouse_7.midButton,mouse_7.rightButton,catchnumberprac,mouse_6.x,mouse_6.y,mouse_6.leftButton,mouse_6.midButton,mouse_6.rightButton,duringprac.thisRepN,duringprac.thisTrialN,duringprac.thisN,duringprac.thisIndex,duringprac.ran,mouse_7.clicked_name,catchprac,mouse_6.clicked_name,key_resp_22.keys,key_resp_22.rt,Circle1_colour,Circle2_colour,mouse.x,mouse.y,mouse.leftButton,mouse.midButton,mouse.rightButton,mouse.clicked_name,mouse_2.x,mouse_2.y,mouse_2.leftButton,mouse_2.midButton,mouse_2.rightButton,mouse_2.clicked_name,mouse_3.x,mouse_3.y,mouse_3.leftButton,mouse_3.midButton,mouse_3.rightButton,catchresponse,catchnumber,response_time_catch,Catch,mouse_11.x,mouse_11.y,mouse_11.leftButton,mouse_11.midButton,mouse_11.rightButton,trials_2.thisRepN,trials_2.thisTrialN,trials_2.thisN,trials_2.thisIndex,trials_2.ran,Colourpair,Temporder,mouse_3.clicked_name,mouse_11.clicked_name,trials_3.thisRepN,trials_3.thisTrialN,trials_3.thisN,trials_3.thisIndex,trials_3.ran,key_resp_instr_Ishi.keys,key_resp_instr_Ishi.rt,Ishi_trial_keyresp.keys,Ishi_textbox.text,Ishi_mouse.x,Ishi_mouse.y,Ishi_mouse.leftButton,Ishi_mouse.midButton,Ishi_mouse.rightButton,Ishi_mouse.clicked_name,Ishi_loop.thisRepN,Ishi_loop.thisTrialN,Ishi_loop.thisN,Ishi_loop.thisIndex,Ishi_loop.ran,imageaddress,textbox.text,mouse_4.x,mouse_4.y,mouse_4.leftButton,mouse_4.midButton,mouse_4.rightButton,mouse_4.clicked_name,textbox_2.text,mouse_8.x,mouse_8.y,mouse_8.leftButton,mouse_8.midButton,mouse_8.rightButton,mouse_8.clicked_name,textbox_3.text,mouse_9.x,mouse_9.y,mouse_9.leftButton,mouse_9.midButton,mouse_9.rightButton,mouse_9.clicked_name,textbox_4.text,mouse_12.x,mouse_12.y,mouse_12.leftButton,mouse_12.midButton,mouse_12.rightButton,mouse_12.clicked_name,textbox_5.text,mouse_13.x,mouse_13.y,mouse_13.leftButton,mouse_13.midButton,mouse_13.rightButton,mouse_13.clicked_name,textbox_6.text,mouse_14.x,mouse_14.y,mouse_14.leftButton,mouse_14.midButton,mouse_14.rightButton,mouse_14.clicked_name,textbox_7.text,mouse_15.x,mouse_15.y,mouse_15.leftButton,mouse_15.midButton,mouse_15.rightButton,mouse_15.clicked_name
0,0,0,20,1,,6047099142558a1747f22b23,62c5398912f839c363f3eea7,2022-07-06_24h28.25.803,Colour_Asymmetry_Pilot,2022.1.3,Win32,60.25548325,62c50e9c1127f2cd403a315f,,,,,,,,,,,,,,,,,,,,,,,,,,,,,,,,,,,,,,,,,,,,,,,,,,,,,,,,,,,,,,,,,,,,,,,,,,,,,,,,,,,,,,,,,,,,,,,,,,,,,,,,,,,,,,,,,,,,,,,,,,,,,,,,,,,,,,,,,,,,,,,,,,,,,,,,,,,,,,,,,,,
0,1,1,68,1,,6047099142558a1747f22b23,62c5398912f839c363f3eea7,2022-07-06_24h28.25.803,Colour_Asymmetry_Pilot,2022.1.3,Win32,60.25548325,62c50e9c1127f2cd403a315f,,,,,,,,,,,,,,,,,,,,,,,,,,,,,,,,,,,,,,,,,,,,,,,,,,,,,,,,,,,,,,,,,,,,,,,,,,,,,,,,,,,,,,,,,,,,,,,,,,,,,,,,,,,,,,,,,,,,,,,,,,,,,,,,,,,,,,,,,,,,,,,,,,,,,,,,,,,,,,,,,,,
0,2,2,13,1,,6047099142558a1747f22b23,62c5398912f839c363f3eea7,2022-07-06_24h28.25.803,Colour_Asymmetry_Pilot,2022.1.3,Win32,60.25548325,62c50e9c1127f2cd403a315f,,,,,,,,,,,,,,,,,,,,,,,,,,,,,,,,,,,,,,,,,,,,,,,,,,,,,,,,,,,,,,,,,,,,,,,,,,,,,,,,,,,,,,,,,,,,,,,,,,,,,,,,,,,,,,,,,,,,,,,,,,,,,,,,,,,,,,,,,,,,,,,,,,,,,,,,,,,,,,,,,,,
0,3,3,44,1,,6047099142558a1747f22b23,62c5398912f839c363f3eea7,2022-07-06_24h28.25.803,Colour_Asymmetry_Pilot,2022.1.3,Win32,60.25548325,62c50e9c1127f2cd403a315f,,,,,,,,,,,,,,,,,,,,,,,,,,,,,,,,,,,,,,,,,,,,,,,,,,,,,,,,,,,,,,,,,,,,,,,,,,,,,,,,,,,,,,,,,,,,,,,,,,,,,,,,,,,,,,,,,,,,,,,,,,,,,,,,,,,,,,,,,,,,,,,,,,,,,,,,,,,,,,,,,,,
0,4,4,50,1,,6047099142558a1747f22b23,62c5398912f839c363f3eea7,2022-07-06_24h28.25.803,Colour_Asymmetry_Pilot,2022.1.3,Win32,60.25548325,62c50e9c1127f2cd403a315f,,,,,,,,,,,,,,,,,,,,,,,,,,,,,,,,,,,,,,,,,,,,,,,,,,,,,,,,,,,,,,,,,,,,,,,,,,,,,,,,,,,,,,,,,,,,,,,,,,,,,,,,,,,,,,,,,,,,,,,,,,,,,,,,,,,,,,,,,,,,,,,,,,,,,,,,,,,,,,,,,,,
0,5,5,39,1,,6047099142558a1747f22b23,62c5398912f839c363f3eea7,2022-07-06_24h28.25.803,Colour_Asymmetry_Pilot,2022.1.3,Win32,60.25548325,62c50e9c1127f2cd403a315f,,,,,,,,,,,,,,,,,,,,,,,,,,,,,,,,,,,,,,,,,,,,,,,,,,,,,,,,,,,,,,,,,,,,,,,,,,,,,,,,,,,,,,,,,,,,,,,,,,,,,,,,,,,,,,,,,,,,,,,,,,,,,,,,,,,,,,,,,,,,,,,,,,,,,,,,,,,,,,,,,,,
0,6,6,35,1,,6047099142558a1747f22b23,62c5398912f839c363f3eea7,2022-07-06_24h28.25.803,Colour_Asymmetry_Pilot,2022.1.3,Win32,60.25548325,62c50e9c1127f2cd403a315f,,,,,,,,,,,,,,,,,,,,,,,,,,,,,,,,,,,,,,,,,,,,,,,,,,,,,,,,,,,,,,,,,,,,,,,,,,,,,,,,,,,,,,,,,,,,,,,,,,,,,,,,,,,,,,,,,,,,,,,,,,,,,,,,,,,,,,,,,,,,,,,,,,,,,,,,,,,,,,,,,,,
0,7,7,90,1,,6047099142558a1747f22b23,62c5398912f839c363f3eea7,2022-07-06_24h28.25.803,Colour_Asymmetry_Pilot,2022.1.3,Win32,60.25548325,62c50e9c1127f2cd403a315f,,,,,,,,,,,,,,,,,,,,,,,,,,,,,,,,,,,,,,,,,,,,,,,,,,,,,,,,,,,,,,,,,,,,,,,,,,,,,,,,,,,,,,,,,,,,,,,,,,,,,,,,,,,,,,,,,,,,,,,,,,,,,,,,,,,,,,,,,,,,,,,,,,,,,,,,,,,,,,,,,,,
0,8,8,77,1,,6047099142558a1747f22b23,62c5398912f839c363f3eea7,2022-07-06_24h28.25.803,Colour_Asymmetry_Pilot,2022.1.3,Win32,60.25548325,62c50e9c1127f2cd403a315f,,,,,,,,,,,,,,,,,,,,,,,,,,,,,,,,,,,,,,,,,,,,,,,,,,,,,,,,,,,,,,,,,,,,,,,,,,,,,,,,,,,,,,,,,,,,,,,,,,,,,,,,,,,,,,,,,,,,,,,,,,,,,,,,,,,,,,,,,,,,,,,,,,,,,,,,,,,,,,,,,,,
0,9,9,49,1,,6047099142558a1747f22b23,62c5398912f839c363f3eea7,2022-07-06_24h28.25.803,Colour_Asymmetry_Pilot,2022.1.3,Win32,60.25548325,62c50e9c1127f2cd403a315f,,,,,,,,,,,,,,,,,,,,,,,,,,,,,,,,,,,,,,,,,,,,,,,,,,,,,,,,,,,,,,,,,,,,,,,,,,,,,,,,,,,,,,,,,,,,,,,,,,,,,,,,,,,,,,,,,,,,,,,,,,,,,,,,,,,,,,,,,,,,,,,,,,,,,,,,,,,,,,,,,,,
0,10,10,25,1,,6047099142558a1747f22b23,62c5398912f839c363f3eea7,2022-07-06_24h28.25.803,Colour_Asymmetry_Pilot,2022.1.3,Win32,60.25548325,62c50e9c1127f2cd403a315f,,,,,,,,,,,,,,,,,,,,,,,,,,,,,,,,,,,,,,,,,,,,,,,,,,,,,,,,,,,,,,,,,,,,,,,,,,,,,,,,,,,,,,,,,,,,,,,,,,,,,,,,,,,,,,,,,,,,,,,,,,,,,,,,,,,,,,,,,,,,,,,,,,,,,,,,,,,,,,,,,,,
0,11,11,48,1,,6047099142558a1747f22b23,62c5398912f839c363f3eea7,2022-07-06_24h28.25.803,Colour_Asymmetry_Pilot,2022.1.3,Win32,60.25548325,62c50e9c1127f2cd403a315f,,,,,,,,,,,,,,,,,,,,,,,,,,,,,,,,,,,,,,,,,,,,,,,,,,,,,,,,,,,,,,,,,,,,,,,,,,,,,,,,,,,,,,,,,,,,,,,,,,,,,,,,,,,,,,,,,,,,,,,,,,,,,,,,,,,,,,,,,,,,,,,,,,,,,,,,,,,,,,,,,,,
0,12,12,88,1,,6047099142558a1747f22b23,62c5398912f839c363f3eea7,2022-07-06_24h28.25.803,Colour_Asymmetry_Pilot,2022.1.3,Win32,60.25548325,62c50e9c1127f2cd403a315f,,,,,,,,,,,,,,,,,,,,,,,,,,,,,,,,,,,,,,,,,,,,,,,,,,,,,,,,,,,,,,,,,,,,,,,,,,,,,,,,,,,,,,,,,,,,,,,,,,,,,,,,,,,,,,,,,,,,,,,,,,,,,,,,,,,,,,,,,,,,,,,,,,,,,,,,,,,,,,,,,,,
0,13,13,46,1,,6047099142558a1747f22b23,62c5398912f839c363f3eea7,2022-07-06_24h28.25.803,Colour_Asymmetry_Pilot,2022.1.3,Win32,60.25548325,62c50e9c1127f2cd403a315f,,,,,,,,,,,,,,,,,,,,,,,,,,,,,,,,,,,,,,,,,,,,,,,,,,,,,,,,,,,,,,,,,,,,,,,,,,,,,,,,,,,,,,,,,,,,,,,,,,,,,,,,,,,,,,,,,,,,,,,,,,,,,,,,,,,,,,,,,,,,,,,,,,,,,,,,,,,,,,,,,,,
0,14,14,32,1,,6047099142558a1747f22b23,62c5398912f839c363f3eea7,2022-07-06_24h28.25.803,Colour_Asymmetry_Pilot,2022.1.3,Win32,60.25548325,62c50e9c1127f2cd403a315f,,,,,,,,,,,,,,,,,,,,,,,,,,,,,,,,,,,,,,,,,,,,,,,,,,,,,,,,,,,,,,,,,,,,,,,,,,,,,,,,,,,,,,,,,,,,,,,,,,,,,,,,,,,,,,,,,,,,,,,,,,,,,,,,,,,,,,,,,,,,,,,,,,,,,,,,,,,,,,,,,,,
0,15,15,81,1,,6047099142558a1747f22b23,62c5398912f839c363f3eea7,2022-07-06_24h28.25.803,Colour_Asymmetry_Pilot,2022.1.3,Win32,60.25548325,62c50e9c1127f2cd403a315f,,,,,,,,,,,,,,,,,,,,,,,,,,,,,,,,,,,,,,,,,,,,,,,,,,,,,,,,,,,,,,,,,,,,,,,,,,,,,,,,,,,,,,,,,,,,,,,,,,,,,,,,,,,,,,,,,,,,,,,,,,,,,,,,,,,,,,,,,,,,,,,,,,,,,,,,,,,,,,,,,,,
0,16,16,67,1,,6047099142558a1747f22b23,62c5398912f839c363f3eea7,2022-07-06_24h28.25.803,Colour_Asymmetry_Pilot,2022.1.3,Win32,60.25548325,62c50e9c1127f2cd403a315f,,,,,,,,,,,,,,,,,,,,,,,,,,,,,,,,,,,,,,,,,,,,,,,,,,,,,,,,,,,,,,,,,,,,,,,,,,,,,,,,,,,,,,,,,,,,,,,,,,,,,,,,,,,,,,,,,,,,,,,,,,,,,,,,,,,,,,,,,,,,,,,,,,,,,,,,,,,,,,,,,,,
0,17,17,36,1,,6047099142558a1747f22b23,62c5398912f839c363f3eea7,2022-07-06_24h28.25.803,Colour_Asymmetry_Pilot,2022.1.3,Win32,60.25548325,62c50e9c1127f2cd403a315f,,,,,,,,,,,,,,,,,,,,,,,,,,,,,,,,,,,,,,,,,,,,,,,,,,,,,,,,,,,,,,,,,,,,,,,,,,,,,,,,,,,,,,,,,,,,,,,,,,,,,,,,,,,,,,,,,,,,,,,,,,,,,,,,,,,,,,,,,,,,,,,,,,,,,,,,,,,,,,,,,,,
0,18,18,55,1,,6047099142558a1747f22b23,62c5398912f839c363f3eea7,2022-07-06_24h28.25.803,Colour_Asymmetry_Pilot,2022.1.3,Win32,60.25548325,62c50e9c1127f2cd403a315f,,,,,,,,,,,,,,,,,,,,,,,,,,,,,,,,,,,,,,,,,,,,,,,,,,,,,,,,,,,,,,,,,,,,,,,,,,,,,,,,,,,,,,,,,,,,,,,,,,,,,,,,,,,,,,,,,,,,,,,,,,,,,,,,,,,,,,,,,,,,,,,,,,,,,,,,,,,,,,,,,,,
0,19,19,4,1,,6047099142558a1747f22b23,62c5398912f839c363f3eea7,2022-07-06_24h28.25.803,Colour_Asymmetry_Pilot,2022.1.3,Win32,60.25548325,62c50e9c1127f2cd403a315f,,,,,,,,,,,,,,,,,,,,,,,,,,,,,,,,,,,,,,,,,,,,,,,,,,,,,,,,,,,,,,,,,,,,,,,,,,,,,,,,,,,,,,,,,,,,,,,,,,,,,,,,,,,,,,,,,,,,,,,,,,,,,,,,,,,,,,,,,,,,,,,,,,,,,,,,,,,,,,,,,,,
0,20,20,54,1,,6047099142558a1747f22b23,62c5398912f839c363f3eea7,2022-07-06_24h28.25.803,Colour_Asymmetry_Pilot,2022.1.3,Win32,60.25548325,62c50e9c1127f2cd403a315f,,,,,,,,,,,,,,,,,,,,,,,,,,,,,,,,,,,,,,,,,,,,,,,,,,,,,,,,,,,,,,,,,,,,,,,,,,,,,,,,,,,,,,,,,,,,,,,,,,,,,,,,,,,,,,,,,,,,,,,,,,,,,,,,,,,,,,,,,,,,,,,,,,,,,,,,,,,,,,,,,,,
0,21,21,60,1,,6047099142558a1747f22b23,62c5398912f839c363f3eea7,2022-07-06_24h28.25.803,Colour_Asymmetry_Pilot,2022.1.3,Win32,60.25548325,62c50e9c1127f2cd403a315f,,,,,,,,,,,,,,,,,,,,,,,,,,,,,,,,,,,,,,,,,,,,,,,,,,,,,,,,,,,,,,,,,,,,,,,,,,,,,,,,,,,,,,,,,,,,,,,,,,,,,,,,,,,,,,,,,,,,,,,,,,,,,,,,,,,,,,,,,,,,,,,,,,,,,,,,,,,,,,,,,,,
0,22,22,89,1,,6047099142558a1747f22b23,62c5398912f839c363f3eea7,2022-07-06_24h28.25.803,Colour_Asymmetry_Pilot,2022.1.3,Win32,60.25548325,62c50e9c1127f2cd403a315f,,,,,,,,,,,,,,,,,,,,,,,,,,,,,,,,,,,,,,,,,,,,,,,,,,,,,,,,,,,,,,,,,,,,,,,,,,,,,,,,,,,,,,,,,,,,,,,,,,,,,,,,,,,,,,,,,,,,,,,,,,,,,,,,,,,,,,,,,,,,,,,,,,,,,,,,,,,,,,,,,,,
0,23,23,3,1,,6047099142558a1747f22b23,62c5398912f839c363f3eea7,2022-07-06_24h28.25.803,Colour_Asymmetry_Pilot,2022.1.3,Win32,60.25548325,62c50e9c1127f2cd403a315f,,,,,,,,,,,,,,,,,,,,,,,,,,,,,,,,,,,,,,,,,,,,,,,,,,,,,,,,,,,,,,,,,,,,,,,,,,,,,,,,,,,,,,,,,,,,,,,,,,,,,,,,,,,,,,,,,,,,,,,,,,,,,,,,,,,,,,,,,,,,,,,,,,,,,,,,,,,,,,,,,,,
0,24,24,70,1,,6047099142558a1747f22b23,62c5398912f839c363f3eea7,2022-07-06_24h28.25.803,Colour_Asymmetry_Pilot,2022.1.3,Win32,60.25548325,62c50e9c1127f2cd403a315f,,,,,,,,,,,,,,,,,,,,,,,,,,,,,,,,,,,,,,,,,,,,,,,,,,,,,,,,,,,,,,,,,,,,,,,,,,,,,,,,,,,,,,,,,,,,,,,,,,,,,,,,,,,,,,,,,,,,,,,,,,,,,,,,,,,,,,,,,,,,,,,,,,,,,,,,,,,,,,,,,,,
0,25,25,86,1,,6047099142558a1747f22b23,62c5398912f839c363f3eea7,2022-07-06_24h28.25.803,Colour_Asymmetry_Pilot,2022.1.3,Win32,60.25548325,62c50e9c1127f2cd403a315f,,,,,,,,,,,,,,,,,,,,,,,,,,,,,,,,,,,,,,,,,,,,,,,,,,,,,,,,,,,,,,,,,,,,,,,,,,,,,,,,,,,,,,,,,,,,,,,,,,,,,,,,,,,,,,,,,,,,,,,,,,,,,,,,,,,,,,,,,,,,,,,,,,,,,,,,,,,,,,,,,,,
0,26,26,53,1,,6047099142558a1747f22b23,62c5398912f839c363f3eea7,2022-07-06_24h28.25.803,Colour_Asymmetry_Pilot,2022.1.3,Win32,60.25548325,62c50e9c1127f2cd403a315f,,,,,,,,,,,,,,,,,,,,,,,,,,,,,,,,,,,,,,,,,,,,,,,,,,,,,,,,,,,,,,,,,,,,,,,,,,,,,,,,,,,,,,,,,,,,,,,,,,,,,,,,,,,,,,,,,,,,,,,,,,,,,,,,,,,,,,,,,,,,,,,,,,,,,,,,,,,,,,,,,,,
0,27,27,83,1,,6047099142558a1747f22b23,62c5398912f839c363f3eea7,2022-07-06_24h28.25.803,Colour_Asymmetry_Pilot,2022.1.3,Win32,60.25548325,62c50e9c1127f2cd403a315f,,,,,,,,,,,,,,,,,,,,,,,,,,,,,,,,,,,,,,,,,,,,,,,,,,,,,,,,,,,,,,,,,,,,,,,,,,,,,,,,,,,,,,,,,,,,,,,,,,,,,,,,,,,,,,,,,,,,,,,,,,,,,,,,,,,,,,,,,,,,,,,,,,,,,,,,,,,,,,,,,,,
0,28,28,34,1,,6047099142558a1747f22b23,62c5398912f839c363f3eea7,2022-07-06_24h28.25.803,Colour_Asymmetry_Pilot,2022.1.3,Win32,60.25548325,62c50e9c1127f2cd403a315f,,,,,,,,,,,,,,,,,,,,,,,,,,,,,,,,,,,,,,,,,,,,,,,,,,,,,,,,,,,,,,,,,,,,,,,,,,,,,,,,,,,,,,,,,,,,,,,,,,,,,,,,,,,,,,,,,,,,,,,,,,,,,,,,,,,,,,,,,,,,,,,,,,,,,,,,,,,,,,,,,,,
0,29,29,16,1,,6047099142558a1747f22b23,62c5398912f839c363f3eea7,2022-07-06_24h28.25.803,Colour_Asymmetry_Pilot,2022.1.3,Win32,60.25548325,62c50e9c1127f2cd403a315f,,,,,,,,,,,,,,,,,,,,,,,,,,,,,,,,,,,,,,,,,,,,,,,,,,,,,,,,,,,,,,,,,,,,,,,,,,,,,,,,,,,,,,,,,,,,,,,,,,,,,,,,,,,,,,,,,,,,,,,,,,,,,,,,,,,,,,,,,,,,,,,,,,,,,,,,,,,,,,,,,,,
0,30,30,11,1,,6047099142558a1747f22b23,62c5398912f839c363f3eea7,2022-07-06_24h28.25.803,Colour_Asymmetry_Pilot,2022.1.3,Win32,60.25548325,62c50e9c1127f2cd403a315f,,,,,,,,,,,,,,,,,,,,,,,,,,,,,,,,,,,,,,,,,,,,,,,,,,,,,,,,,,,,,,,,,,,,,,,,,,,,,,,,,,,,,,,,,,,,,,,,,,,,,,,,,,,,,,,,,,,,,,,,,,,,,,,,,,,,,,,,,,,,,,,,,,,,,,,,,,,,,,,,,,,
0,31,31,8,1,,6047099142558a1747f22b23,62c5398912f839c363f3eea7,2022-07-06_24h28.25.803,Colour_Asymmetry_Pilot,2022.1.3,Win32,60.25548325,62c50e9c1127f2cd403a315f,,,,,,,,,,,,,,,,,,,,,,,,,,,,,,,,,,,,,,,,,,,,,,,,,,,,,,,,,,,,,,,,,,,,,,,,,,,,,,,,,,,,,,,,,,,,,,,,,,,,,,,,,,,,,,,,,,,,,,,,,,,,,,,,,,,,,,,,,,,,,,,,,,,,,,,,,,,,,,,,,,,
0,32,32,64,1,,6047099142558a1747f22b23,62c5398912f839c363f3eea7,2022-07-06_24h28.25.803,Colour_Asymmetry_Pilot,2022.1.3,Win32,60.25548325,62c50e9c1127f2cd403a315f,,,,,,,,,,,,,,,,,,,,,,,,,,,,,,,,,,,,,,,,,,,,,,,,,,,,,,,,,,,,,,,,,,,,,,,,,,,,,,,,,,,,,,,,,,,,,,,,,,,,,,,,,,,,,,,,,,,,,,,,,,,,,,,,,,,,,,,,,,,,,,,,,,,,,,,,,,,,,,,,,,,
0,33,33,23,1,,6047099142558a1747f22b23,62c5398912f839c363f3eea7,2022-07-06_24h28.25.803,Colour_Asymmetry_Pilot,2022.1.3,Win32,60.25548325,62c50e9c1127f2cd403a315f,,,,,,,,,,,,,,,,,,,,,,,,,,,,,,,,,,,,,,,,,,,,,,,,,,,,,,,,,,,,,,,,,,,,,,,,,,,,,,,,,,,,,,,,,,,,,,,,,,,,,,,,,,,,,,,,,,,,,,,,,,,,,,,,,,,,,,,,,,,,,,,,,,,,,,,,,,,,,,,,,,,
0,34,34,65,1,,6047099142558a1747f22b23,62c5398912f839c363f3eea7,2022-07-06_24h28.25.803,Colour_Asymmetry_Pilot,2022.1.3,Win32,60.25548325,62c50e9c1127f2cd403a315f,,,,,,,,,,,,,,,,,,,,,,,,,,,,,,,,,,,,,,,,,,,,,,,,,,,,,,,,,,,,,,,,,,,,,,,,,,,,,,,,,,,,,,,,,,,,,,,,,,,,,,,,,,,,,,,,,,,,,,,,,,,,,,,,,,,,,,,,,,,,,,,,,,,,,,,,,,,,,,,,,,,
0,35,35,75,1,,6047099142558a1747f22b23,62c5398912f839c363f3eea7,2022-07-06_24h28.25.803,Colour_Asymmetry_Pilot,2022.1.3,Win32,60.25548325,62c50e9c1127f2cd403a315f,,,,,,,,,,,,,,,,,,,,,,,,,,,,,,,,,,,,,,,,,,,,,,,,,,,,,,,,,,,,,,,,,,,,,,,,,,,,,,,,,,,,,,,,,,,,,,,,,,,,,,,,,,,,,,,,,,,,,,,,,,,,,,,,,,,,,,,,,,,,,,,,,,,,,,,,,,,,,,,,,,,
0,36,36,63,1,,6047099142558a1747f22b23,62c5398912f839c363f3eea7,2022-07-06_24h28.25.803,Colour_Asymmetry_Pilot,2022.1.3,Win32,60.25548325,62c50e9c1127f2cd403a315f,,,,,,,,,,,,,,,,,,,,,,,,,,,,,,,,,,,,,,,,,,,,,,,,,,,,,,,,,,,,,,,,,,,,,,,,,,,,,,,,,,,,,,,,,,,,,,,,,,,,,,,,,,,,,,,,,,,,,,,,,,,,,,,,,,,,,,,,,,,,,,,,,,,,,,,,,,,,,,,,,,,
0,37,37,1,1,,6047099142558a1747f22b23,62c5398912f839c363f3eea7,2022-07-06_24h28.25.803,Colour_Asymmetry_Pilot,2022.1.3,Win32,60.25548325,62c50e9c1127f2cd403a315f,,,,,,,,,,,,,,,,,,,,,,,,,,,,,,,,,,,,,,,,,,,,,,,,,,,,,,,,,,,,,,,,,,,,,,,,,,,,,,,,,,,,,,,,,,,,,,,,,,,,,,,,,,,,,,,,,,,,,,,,,,,,,,,,,,,,,,,,,,,,,,,,,,,,,,,,,,,,,,,,,,,
0,38,38,91,1,,6047099142558a1747f22b23,62c5398912f839c363f3eea7,2022-07-06_24h28.25.803,Colour_Asymmetry_Pilot,2022.1.3,Win32,60.25548325,62c50e9c1127f2cd403a315f,,,,,,,,,,,,,,,,,,,,,,,,,,,,,,,,,,,,,,,,,,,,,,,,,,,,,,,,,,,,,,,,,,,,,,,,,,,,,,,,,,,,,,,,,,,,,,,,,,,,,,,,,,,,,,,,,,,,,,,,,,,,,,,,,,,,,,,,,,,,,,,,,,,,,,,,,,,,,,,,,,,
0,39,39,41,1,,6047099142558a1747f22b23,62c5398912f839c363f3eea7,2022-07-06_24h28.25.803,Colour_Asymmetry_Pilot,2022.1.3,Win32,60.25548325,62c50e9c1127f2cd403a315f,,,,,,,,,,,,,,,,,,,,,,,,,,,,,,,,,,,,,,,,,,,,,,,,,,,,,,,,,,,,,,,,,,,,,,,,,,,,,,,,,,,,,,,,,,,,,,,,,,,,,,,,,,,,,,,,,,,,,,,,,,,,,,,,,,,,,,,,,,,,,,,,,,,,,,,,,,,,,,,,,,,
0,40,40,38,1,,6047099142558a1747f22b23,62c5398912f839c363f3eea7,2022-07-06_24h28.25.803,Colour_Asymmetry_Pilot,2022.1.3,Win32,60.25548325,62c50e9c1127f2cd403a315f,,,,,,,,,,,,,,,,,,,,,,,,,,,,,,,,,,,,,,,,,,,,,,,,,,,,,,,,,,,,,,,,,,,,,,,,,,,,,,,,,,,,,,,,,,,,,,,,,,,,,,,,,,,,,,,,,,,,,,,,,,,,,,,,,,,,,,,,,,,,,,,,,,,,,,,,,,,,,,,,,,,
0,41,41,76,1,,6047099142558a1747f22b23,62c5398912f839c363f3eea7,2022-07-06_24h28.25.803,Colour_Asymmetry_Pilot,2022.1.3,Win32,60.25548325,62c50e9c1127f2cd403a315f,,,,,,,,,,,,,,,,,,,,,,,,,,,,,,,,,,,,,,,,,,,,,,,,,,,,,,,,,,,,,,,,,,,,,,,,,,,,,,,,,,,,,,,,,,,,,,,,,,,,,,,,,,,,,,,,,,,,,,,,,,,,,,,,,,,,,,,,,,,,,,,,,,,,,,,,,,,,,,,,,,,
0,42,42,9,1,,6047099142558a1747f22b23,62c5398912f839c363f3eea7,2022-07-06_24h28.25.803,Colour_Asymmetry_Pilot,2022.1.3,Win32,60.25548325,62c50e9c1127f2cd403a315f,,,,,,,,,,,,,,,,,,,,,,,,,,,,,,,,,,,,,,,,,,,,,,,,,,,,,,,,,,,,,,,,,,,,,,,,,,,,,,,,,,,,,,,,,,,,,,,,,,,,,,,,,,,,,,,,,,,,,,,,,,,,,,,,,,,,,,,,,,,,,,,,,,,,,,,,,,,,,,,,,,,
0,43,43,87,1,,6047099142558a1747f22b23,62c5398912f839c363f3eea7,2022-07-06_24h28.25.803,Colour_Asymmetry_Pilot,2022.1.3,Win32,60.25548325,62c50e9c1127f2cd403a315f,,,,,,,,,,,,,,,,,,,,,,,,,,,,,,,,,,,,,,,,,,,,,,,,,,,,,,,,,,,,,,,,,,,,,,,,,,,,,,,,,,,,,,,,,,,,,,,,,,,,,,,,,,,,,,,,,,,,,,,,,,,,,,,,,,,,,,,,,,,,,,,,,,,,,,,,,,,,,,,,,,,
0,44,44,72,1,,6047099142558a1747f22b23,62c5398912f839c363f3eea7,2022-07-06_24h28.25.803,Colour_Asymmetry_Pilot,2022.1.3,Win32,60.25548325,62c50e9c1127f2cd403a315f,,,,,,,,,,,,,,,,,,,,,,,,,,,,,,,,,,,,,,,,,,,,,,,,,,,,,,,,,,,,,,,,,,,,,,,,,,,,,,,,,,,,,,,,,,,,,,,,,,,,,,,,,,,,,,,,,,,,,,,,,,,,,,,,,,,,,,,,,,,,,,,,,,,,,,,,,,,,,,,,,,,
0,45,45,42,1,,6047099142558a1747f22b23,62c5398912f839c363f3eea7,2022-07-06_24h28.25.803,Colour_Asymmetry_Pilot,2022.1.3,Win32,60.25548325,62c50e9c1127f2cd403a315f,,,,,,,,,,,,,,,,,,,,,,,,,,,,,,,,,,,,,,,,,,,,,,,,,,,,,,,,,,,,,,,,,,,,,,,,,,,,,,,,,,,,,,,,,,,,,,,,,,,,,,,,,,,,,,,,,,,,,,,,,,,,,,,,,,,,,,,,,,,,,,,,,,,,,,,,,,,,,,,,,,,
0,46,46,43,1,,6047099142558a1747f22b23,62c5398912f839c363f3eea7,2022-07-06_24h28.25.803,Colour_Asymmetry_Pilot,2022.1.3,Win32,60.25548325,62c50e9c1127f2cd403a315f,,,,,,,,,,,,,,,,,,,,,,,,,,,,,,,,,,,,,,,,,,,,,,,,,,,,,,,,,,,,,,,,,,,,,,,,,,,,,,,,,,,,,,,,,,,,,,,,,,,,,,,,,,,,,,,,,,,,,,,,,,,,,,,,,,,,,,,,,,,,,,,,,,,,,,,,,,,,,,,,,,,
0,47,47,26,1,,6047099142558a1747f22b23,62c5398912f839c363f3eea7,2022-07-06_24h28.25.803,Colour_Asymmetry_Pilot,2022.1.3,Win32,60.25548325,62c50e9c1127f2cd403a315f,,,,,,,,,,,,,,,,,,,,,,,,,,,,,,,,,,,,,,,,,,,,,,,,,,,,,,,,,,,,,,,,,,,,,,,,,,,,,,,,,,,,,,,,,,,,,,,,,,,,,,,,,,,,,,,,,,,,,,,,,,,,,,,,,,,,,,,,,,,,,,,,,,,,,,,,,,,,,,,,,,,
0,48,48,31,1,,6047099142558a1747f22b23,62c5398912f839c363f3eea7,2022-07-06_24h28.25.803,Colour_Asymmetry_Pilot,2022.1.3,Win32,60.25548325,62c50e9c1127f2cd403a315f,,,,,,,,,,,,,,,,,,,,,,,,,,,,,,,,,,,,,,,,,,,,,,,,,,,,,,,,,,,,,,,,,,,,,,,,,,,,,,,,,,,,,,,,,,,,,,,,,,,,,,,,,,,,,,,,,,,,,,,,,,,,,,,,,,,,,,,,,,,,,,,,,,,,,,,,,,,,,,,,,,,
0,49,49,92,1,,6047099142558a1747f22b23,62c5398912f839c363f3eea7,2022-07-06_24h28.25.803,Colour_Asymmetry_Pilot,2022.1.3,Win32,60.25548325,62c50e9c1127f2cd403a315f,,,,,,,,,,,,,,,,,,,,,,,,,,,,,,,,,,,,,,,,,,,,,,,,,,,,,,,,,,,,,,,,,,,,,,,,,,,,,,,,,,,,,,,,,,,,,,,,,,,,,,,,,,,,,,,,,,,,,,,,,,,,,,,,,,,,,,,,,,,,,,,,,,,,,,,,,,,,,,,,,,,
0,50,50,30,1,,6047099142558a1747f22b23,62c5398912f839c363f3eea7,2022-07-06_24h28.25.803,Colour_Asymmetry_Pilot,2022.1.3,Win32,60.25548325,62c50e9c1127f2cd403a315f,,,,,,,,,,,,,,,,,,,,,,,,,,,,,,,,,,,,,,,,,,,,,,,,,,,,,,,,,,,,,,,,,,,,,,,,,,,,,,,,,,,,,,,,,,,,,,,,,,,,,,,,,,,,,,,,,,,,,,,,,,,,,,,,,,,,,,,,,,,,,,,,,,,,,,,,,,,,,,,,,,,
0,51,51,61,1,,6047099142558a1747f22b23,62c5398912f839c363f3eea7,2022-07-06_24h28.25.803,Colour_Asymmetry_Pilot,2022.1.3,Win32,60.25548325,62c50e9c1127f2cd403a315f,,,,,,,,,,,,,,,,,,,,,,,,,,,,,,,,,,,,,,,,,,,,,,,,,,,,,,,,,,,,,,,,,,,,,,,,,,,,,,,,,,,,,,,,,,,,,,,,,,,,,,,,,,,,,,,,,,,,,,,,,,,,,,,,,,,,,,,,,,,,,,,,,,,,,,,,,,,,,,,,,,,
0,52,52,78,1,,6047099142558a1747f22b23,62c5398912f839c363f3eea7,2022-07-06_24h28.25.803,Colour_Asymmetry_Pilot,2022.1.3,Win32,60.25548325,62c50e9c1127f2cd403a315f,,,,,,,,,,,,,,,,,,,,,,,,,,,,,,,,,,,,,,,,,,,,,,,,,,,,,,,,,,,,,,,,,,,,,,,,,,,,,,,,,,,,,,,,,,,,,,,,,,,,,,,,,,,,,,,,,,,,,,,,,,,,,,,,,,,,,,,,,,,,,,,,,,,,,,,,,,,,,,,,,,,
0,53,53,33,1,,6047099142558a1747f22b23,62c5398912f839c363f3eea7,2022-07-06_24h28.25.803,Colour_Asymmetry_Pilot,2022.1.3,Win32,60.25548325,62c50e9c1127f2cd403a315f,,,,,,,,,,,,,,,,,,,,,,,,,,,,,,,,,,,,,,,,,,,,,,,,,,,,,,,,,,,,,,,,,,,,,,,,,,,,,,,,,,,,,,,,,,,,,,,,,,,,,,,,,,,,,,,,,,,,,,,,,,,,,,,,,,,,,,,,,,,,,,,,,,,,,,,,,,,,,,,,,,,
0,54,54,6,1,,6047099142558a1747f22b23,62c5398912f839c363f3eea7,2022-07-06_24h28.25.803,Colour_Asymmetry_Pilot,2022.1.3,Win32,60.25548325,62c50e9c1127f2cd403a315f,,,,,,,,,,,,,,,,,,,,,,,,,,,,,,,,,,,,,,,,,,,,,,,,,,,,,,,,,,,,,,,,,,,,,,,,,,,,,,,,,,,,,,,,,,,,,,,,,,,,,,,,,,,,,,,,,,,,,,,,,,,,,,,,,,,,,,,,,,,,,,,,,,,,,,,,,,,,,,,,,,,
0,55,55,19,1,,6047099142558a1747f22b23,62c5398912f839c363f3eea7,2022-07-06_24h28.25.803,Colour_Asymmetry_Pilot,2022.1.3,Win32,60.25548325,62c50e9c1127f2cd403a315f,,,,,,,,,,,,,,,,,,,,,,,,,,,,,,,,,,,,,,,,,,,,,,,,,,,,,,,,,,,,,,,,,,,,,,,,,,,,,,,,,,,,,,,,,,,,,,,,,,,,,,,,,,,,,,,,,,,,,,,,,,,,,,,,,,,,,,,,,,,,,,,,,,,,,,,,,,,,,,,,,,,
0,56,56,66,1,,6047099142558a1747f22b23,62c5398912f839c363f3eea7,2022-07-06_24h28.25.803,Colour_Asymmetry_Pilot,2022.1.3,Win32,60.25548325,62c50e9c1127f2cd403a315f,,,,,,,,,,,,,,,,,,,,,,,,,,,,,,,,,,,,,,,,,,,,,,,,,,,,,,,,,,,,,,,,,,,,,,,,,,,,,,,,,,,,,,,,,,,,,,,,,,,,,,,,,,,,,,,,,,,,,,,,,,,,,,,,,,,,,,,,,,,,,,,,,,,,,,,,,,,,,,,,,,,
0,57,57,2,1,,6047099142558a1747f22b23,62c5398912f839c363f3eea7,2022-07-06_24h28.25.803,Colour_Asymmetry_Pilot,2022.1.3,Win32,60.25548325,62c50e9c1127f2cd403a315f,,,,,,,,,,,,,,,,,,,,,,,,,,,,,,,,,,,,,,,,,,,,,,,,,,,,,,,,,,,,,,,,,,,,,,,,,,,,,,,,,,,,,,,,,,,,,,,,,,,,,,,,,,,,,,,,,,,,,,,,,,,,,,,,,,,,,,,,,,,,,,,,,,,,,,,,,,,,,,,,,,,
0,58,58,73,1,,6047099142558a1747f22b23,62c5398912f839c363f3eea7,2022-07-06_24h28.25.803,Colour_Asymmetry_Pilot,2022.1.3,Win32,60.25548325,62c50e9c1127f2cd403a315f,,,,,,,,,,,,,,,,,,,,,,,,,,,,,,,,,,,,,,,,,,,,,,,,,,,,,,,,,,,,,,,,,,,,,,,,,,,,,,,,,,,,,,,,,,,,,,,,,,,,,,,,,,,,,,,,,,,,,,,,,,,,,,,,,,,,,,,,,,,,,,,,,,,,,,,,,,,,,,,,,,,
0,59,59,84,1,,6047099142558a1747f22b23,62c5398912f839c363f3eea7,2022-07-06_24h28.25.803,Colour_Asymmetry_Pilot,2022.1.3,Win32,60.25548325,62c50e9c1127f2cd403a315f,,,,,,,,,,,,,,,,,,,,,,,,,,,,,,,,,,,,,,,,,,,,,,,,,,,,,,,,,,,,,,,,,,,,,,,,,,,,,,,,,,,,,,,,,,,,,,,,,,,,,,,,,,,,,,,,,,,,,,,,,,,,,,,,,,,,,,,,,,,,,,,,,,,,,,,,,,,,,,,,,,,
0,60,60,71,1,,6047099142558a1747f22b23,62c5398912f839c363f3eea7,2022-07-06_24h28.25.803,Colour_Asymmetry_Pilot,2022.1.3,Win32,60.25548325,62c50e9c1127f2cd403a315f,,,,,,,,,,,,,,,,,,,,,,,,,,,,,,,,,,,,,,,,,,,,,,,,,,,,,,,,,,,,,,,,,,,,,,,,,,,,,,,,,,,,,,,,,,,,,,,,,,,,,,,,,,,,,,,,,,,,,,,,,,,,,,,,,,,,,,,,,,,,,,,,,,,,,,,,,,,,,,,,,,,
0,61,61,5,1,,6047099142558a1747f22b23,62c5398912f839c363f3eea7,2022-07-06_24h28.25.803,Colour_Asymmetry_Pilot,2022.1.3,Win32,60.25548325,62c50e9c1127f2cd403a315f,,,,,,,,,,,,,,,,,,,,,,,,,,,,,,,,,,,,,,,,,,,,,,,,,,,,,,,,,,,,,,,,,,,,,,,,,,,,,,,,,,,,,,,,,,,,,,,,,,,,,,,,,,,,,,,,,,,,,,,,,,,,,,,,,,,,,,,,,,,,,,,,,,,,,,,,,,,,,,,,,,,
0,62,62,62,1,,6047099142558a1747f22b23,62c5398912f839c363f3eea7,2022-07-06_24h28.25.803,Colour_Asymmetry_Pilot,2022.1.3,Win32,60.25548325,62c50e9c1127f2cd403a315f,,,,,,,,,,,,,,,,,,,,,,,,,,,,,,,,,,,,,,,,,,,,,,,,,,,,,,,,,,,,,,,,,,,,,,,,,,,,,,,,,,,,,,,,,,,,,,,,,,,,,,,,,,,,,,,,,,,,,,,,,,,,,,,,,,,,,,,,,,,,,,,,,,,,,,,,,,,,,,,,,,,
0,63,63,24,1,,6047099142558a1747f22b23,62c5398912f839c363f3eea7,2022-07-06_24h28.25.803,Colour_Asymmetry_Pilot,2022.1.3,Win32,60.25548325,62c50e9c1127f2cd403a315f,,,,,,,,,,,,,,,,,,,,,,,,,,,,,,,,,,,,,,,,,,,,,,,,,,,,,,,,,,,,,,,,,,,,,,,,,,,,,,,,,,,,,,,,,,,,,,,,,,,,,,,,,,,,,,,,,,,,,,,,,,,,,,,,,,,,,,,,,,,,,,,,,,,,,,,,,,,,,,,,,,,
0,64,64,22,1,,6047099142558a1747f22b23,62c5398912f839c363f3eea7,2022-07-06_24h28.25.803,Colour_Asymmetry_Pilot,2022.1.3,Win32,60.25548325,62c50e9c1127f2cd403a315f,,,,,,,,,,,,,,,,,,,,,,,,,,,,,,,,,,,,,,,,,,,,,,,,,,,,,,,,,,,,,,,,,,,,,,,,,,,,,,,,,,,,,,,,,,,,,,,,,,,,,,,,,,,,,,,,,,,,,,,,,,,,,,,,,,,,,,,,,,,,,,,,,,,,,,,,,,,,,,,,,,,
0,65,65,82,1,,6047099142558a1747f22b23,62c5398912f839c363f3eea7,2022-07-06_24h28.25.803,Colour_Asymmetry_Pilot,2022.1.3,Win32,60.25548325,62c50e9c1127f2cd403a315f,,,,,,,,,,,,,,,,,,,,,,,,,,,,,,,,,,,,,,,,,,,,,,,,,,,,,,,,,,,,,,,,,,,,,,,,,,,,,,,,,,,,,,,,,,,,,,,,,,,,,,,,,,,,,,,,,,,,,,,,,,,,,,,,,,,,,,,,,,,,,,,,,,,,,,,,,,,,,,,,,,,
0,66,66,28,1,,6047099142558a1747f22b23,62c5398912f839c363f3eea7,2022-07-06_24h28.25.803,Colour_Asymmetry_Pilot,2022.1.3,Win32,60.25548325,62c50e9c1127f2cd403a315f,,,,,,,,,,,,,,,,,,,,,,,,,,,,,,,,,,,,,,,,,,,,,,,,,,,,,,,,,,,,,,,,,,,,,,,,,,,,,,,,,,,,,,,,,,,,,,,,,,,,,,,,,,,,,,,,,,,,,,,,,,,,,,,,,,,,,,,,,,,,,,,,,,,,,,,,,,,,,,,,,,,
0,67,67,51,1,,6047099142558a1747f22b23,62c5398912f839c363f3eea7,2022-07-06_24h28.25.803,Colour_Asymmetry_Pilot,2022.1.3,Win32,60.25548325,62c50e9c1127f2cd403a315f,,,,,,,,,,,,,,,,,,,,,,,,,,,,,,,,,,,,,,,,,,,,,,,,,,,,,,,,,,,,,,,,,,,,,,,,,,,,,,,,,,,,,,,,,,,,,,,,,,,,,,,,,,,,,,,,,,,,,,,,,,,,,,,,,,,,,,,,,,,,,,,,,,,,,,,,,,,,,,,,,,,
0,68,68,10,1,,6047099142558a1747f22b23,62c5398912f839c363f3eea7,2022-07-06_24h28.25.803,Colour_Asymmetry_Pilot,2022.1.3,Win32,60.25548325,62c50e9c1127f2cd403a315f,,,,,,,,,,,,,,,,,,,,,,,,,,,,,,,,,,,,,,,,,,,,,,,,,,,,,,,,,,,,,,,,,,,,,,,,,,,,,,,,,,,,,,,,,,,,,,,,,,,,,,,,,,,,,,,,,,,,,,,,,,,,,,,,,,,,,,,,,,,,,,,,,,,,,,,,,,,,,,,,,,,
0,69,69,85,1,,6047099142558a1747f22b23,62c5398912f839c363f3eea7,2022-07-06_24h28.25.803,Colour_Asymmetry_Pilot,2022.1.3,Win32,60.25548325,62c50e9c1127f2cd403a315f,,,,,,,,,,,,,,,,,,,,,,,,,,,,,,,,,,,,,,,,,,,,,,,,,,,,,,,,,,,,,,,,,,,,,,,,,,,,,,,,,,,,,,,,,,,,,,,,,,,,,,,,,,,,,,,,,,,,,,,,,,,,,,,,,,,,,,,,,,,,,,,,,,,,,,,,,,,,,,,,,,,
0,70,70,80,1,,6047099142558a1747f22b23,62c5398912f839c363f3eea7,2022-07-06_24h28.25.803,Colour_Asymmetry_Pilot,2022.1.3,Win32,60.25548325,62c50e9c1127f2cd403a315f,,,,,,,,,,,,,,,,,,,,,,,,,,,,,,,,,,,,,,,,,,,,,,,,,,,,,,,,,,,,,,,,,,,,,,,,,,,,,,,,,,,,,,,,,,,,,,,,,,,,,,,,,,,,,,,,,,,,,,,,,,,,,,,,,,,,,,,,,,,,,,,,,,,,,,,,,,,,,,,,,,,
0,71,71,29,1,,6047099142558a1747f22b23,62c5398912f839c363f3eea7,2022-07-06_24h28.25.803,Colour_Asymmetry_Pilot,2022.1.3,Win32,60.25548325,62c50e9c1127f2cd403a315f,,,,,,,,,,,,,,,,,,,,,,,,,,,,,,,,,,,,,,,,,,,,,,,,,,,,,,,,,,,,,,,,,,,,,,,,,,,,,,,,,,,,,,,,,,,,,,,,,,,,,,,,,,,,,,,,,,,,,,,,,,,,,,,,,,,,,,,,,,,,,,,,,,,,,,,,,,,,,,,,,,,
0,72,72,52,1,,6047099142558a1747f22b23,62c5398912f839c363f3eea7,2022-07-06_24h28.25.803,Colour_Asymmetry_Pilot,2022.1.3,Win32,60.25548325,62c50e9c1127f2cd403a315f,,,,,,,,,,,,,,,,,,,,,,,,,,,,,,,,,,,,,,,,,,,,,,,,,,,,,,,,,,,,,,,,,,,,,,,,,,,,,,,,,,,,,,,,,,,,,,,,,,,,,,,,,,,,,,,,,,,,,,,,,,,,,,,,,,,,,,,,,,,,,,,,,,,,,,,,,,,,,,,,,,,
0,73,73,59,1,,6047099142558a1747f22b23,62c5398912f839c363f3eea7,2022-07-06_24h28.25.803,Colour_Asymmetry_Pilot,2022.1.3,Win32,60.25548325,62c50e9c1127f2cd403a315f,,,,,,,,,,,,,,,,,,,,,,,,,,,,,,,,,,,,,,,,,,,,,,,,,,,,,,,,,,,,,,,,,,,,,,,,,,,,,,,,,,,,,,,,,,,,,,,,,,,,,,,,,,,,,,,,,,,,,,,,,,,,,,,,,,,,,,,,,,,,,,,,,,,,,,,,,,,,,,,,,,,
0,74,74,69,1,,6047099142558a1747f22b23,62c5398912f839c363f3eea7,2022-07-06_24h28.25.803,Colour_Asymmetry_Pilot,2022.1.3,Win32,60.25548325,62c50e9c1127f2cd403a315f,,,,,,,,,,,,,,,,,,,,,,,,,,,,,,,,,,,,,,,,,,,,,,,,,,,,,,,,,,,,,,,,,,,,,,,,,,,,,,,,,,,,,,,,,,,,,,,,,,,,,,,,,,,,,,,,,,,,,,,,,,,,,,,,,,,,,,,,,,,,,,,,,,,,,,,,,,,,,,,,,,,
0,75,75,15,1,,6047099142558a1747f22b23,62c5398912f839c363f3eea7,2022-07-06_24h28.25.803,Colour_Asymmetry_Pilot,2022.1.3,Win32,60.25548325,62c50e9c1127f2cd403a315f,,,,,,,,,,,,,,,,,,,,,,,,,,,,,,,,,,,,,,,,,,,,,,,,,,,,,,,,,,,,,,,,,,,,,,,,,,,,,,,,,,,,,,,,,,,,,,,,,,,,,,,,,,,,,,,,,,,,,,,,,,,,,,,,,,,,,,,,,,,,,,,,,,,,,,,,,,,,,,,,,,,
0,76,76,74,1,,6047099142558a1747f22b23,62c5398912f839c363f3eea7,2022-07-06_24h28.25.803,Colour_Asymmetry_Pilot,2022.1.3,Win32,60.25548325,62c50e9c1127f2cd403a315f,,,,,,,,,,,,,,,,,,,,,,,,,,,,,,,,,,,,,,,,,,,,,,,,,,,,,,,,,,,,,,,,,,,,,,,,,,,,,,,,,,,,,,,,,,,,,,,,,,,,,,,,,,,,,,,,,,,,,,,,,,,,,,,,,,,,,,,,,,,,,,,,,,,,,,,,,,,,,,,,,,,
0,77,77,12,1,,6047099142558a1747f22b23,62c5398912f839c363f3eea7,2022-07-06_24h28.25.803,Colour_Asymmetry_Pilot,2022.1.3,Win32,60.25548325,62c50e9c1127f2cd403a315f,,,,,,,,,,,,,,,,,,,,,,,,,,,,,,,,,,,,,,,,,,,,,,,,,,,,,,,,,,,,,,,,,,,,,,,,,,,,,,,,,,,,,,,,,,,,,,,,,,,,,,,,,,,,,,,,,,,,,,,,,,,,,,,,,,,,,,,,,,,,,,,,,,,,,,,,,,,,,,,,,,,
0,78,78,18,1,,6047099142558a1747f22b23,62c5398912f839c363f3eea7,2022-07-06_24h28.25.803,Colour_Asymmetry_Pilot,2022.1.3,Win32,60.25548325,62c50e9c1127f2cd403a315f,,,,,,,,,,,,,,,,,,,,,,,,,,,,,,,,,,,,,,,,,,,,,,,,,,,,,,,,,,,,,,,,,,,,,,,,,,,,,,,,,,,,,,,,,,,,,,,,,,,,,,,,,,,,,,,,,,,,,,,,,,,,,,,,,,,,,,,,,,,,,,,,,,,,,,,,,,,,,,,,,,,
0,79,79,56,1,,6047099142558a1747f22b23,62c5398912f839c363f3eea7,2022-07-06_24h28.25.803,Colour_Asymmetry_Pilot,2022.1.3,Win32,60.25548325,62c50e9c1127f2cd403a315f,,,,,,,,,,,,,,,,,,,,,,,,,,,,,,,,,,,,,,,,,,,,,,,,,,,,,,,,,,,,,,,,,,,,,,,,,,,,,,,,,,,,,,,,,,,,,,,,,,,,,,,,,,,,,,,,,,,,,,,,,,,,,,,,,,,,,,,,,,,,,,,,,,,,,,,,,,,,,,,,,,,
0,80,80,0,1,,6047099142558a1747f22b23,62c5398912f839c363f3eea7,2022-07-06_24h28.25.803,Colour_Asymmetry_Pilot,2022.1.3,Win32,60.25548325,62c50e9c1127f2cd403a315f,,,,,,,,,,,,,,,,,,,,,,,,,,,,,,,,,,,,,,,,,,,,,,,,,,,,,,,,,,,,,,,,,,,,,,,,,,,,,,,,,,,,,,,,,,,,,,,,,,,,,,,,,,,,,,,,,,,,,,,,,,,,,,,,,,,,,,,,,,,,,,,,,,,,,,,,,,,,,,,,,,,
0,81,81,14,1,,6047099142558a1747f22b23,62c5398912f839c363f3eea7,2022-07-06_24h28.25.803,Colour_Asymmetry_Pilot,2022.1.3,Win32,60.25548325,62c50e9c1127f2cd403a315f,,,,,,,,,,,,,,,,,,,,,,,,,,,,,,,,,,,,,,,,,,,,,,,,,,,,,,,,,,,,,,,,,,,,,,,,,,,,,,,,,,,,,,,,,,,,,,,,,,,,,,,,,,,,,,,,,,,,,,,,,,,,,,,,,,,,,,,,,,,,,,,,,,,,,,,,,,,,,,,,,,,
0,82,82,21,1,,6047099142558a1747f22b23,62c5398912f839c363f3eea7,2022-07-06_24h28.25.803,Colour_Asymmetry_Pilot,2022.1.3,Win32,60.25548325,62c50e9c1127f2cd403a315f,,,,,,,,,,,,,,,,,,,,,,,,,,,,,,,,,,,,,,,,,,,,,,,,,,,,,,,,,,,,,,,,,,,,,,,,,,,,,,,,,,,,,,,,,,,,,,,,,,,,,,,,,,,,,,,,,,,,,,,,,,,,,,,,,,,,,,,,,,,,,,,,,,,,,,,,,,,,,,,,,,,
0,83,83,17,1,,6047099142558a1747f22b23,62c5398912f839c363f3eea7,2022-07-06_24h28.25.803,Colour_Asymmetry_Pilot,2022.1.3,Win32,60.25548325,62c50e9c1127f2cd403a315f,,,,,,,,,,,,,,,,,,,,,,,,,,,,,,,,,,,,,,,,,,,,,,,,,,,,,,,,,,,,,,,,,,,,,,,,,,,,,,,,,,,,,,,,,,,,,,,,,,,,,,,,,,,,,,,,,,,,,,,,,,,,,,,,,,,,,,,,,,,,,,,,,,,,,,,,,,,,,,,,,,,
0,84,84,57,1,,6047099142558a1747f22b23,62c5398912f839c363f3eea7,2022-07-06_24h28.25.803,Colour_Asymmetry_Pilot,2022.1.3,Win32,60.25548325,62c50e9c1127f2cd403a315f,,,,,,,,,,,,,,,,,,,,,,,,,,,,,,,,,,,,,,,,,,,,,,,,,,,,,,,,,,,,,,,,,,,,,,,,,,,,,,,,,,,,,,,,,,,,,,,,,,,,,,,,,,,,,,,,,,,,,,,,,,,,,,,,,,,,,,,,,,,,,,,,,,,,,,,,,,,,,,,,,,,
0,85,85,45,1,,6047099142558a1747f22b23,62c5398912f839c363f3eea7,2022-07-06_24h28.25.803,Colour_Asymmetry_Pilot,2022.1.3,Win32,60.25548325,62c50e9c1127f2cd403a315f,,,,,,,,,,,,,,,,,,,,,,,,,,,,,,,,,,,,,,,,,,,,,,,,,,,,,,,,,,,,,,,,,,,,,,,,,,,,,,,,,,,,,,,,,,,,,,,,,,,,,,,,,,,,,,,,,,,,,,,,,,,,,,,,,,,,,,,,,,,,,,,,,,,,,,,,,,,,,,,,,,,
0,86,86,7,1,,6047099142558a1747f22b23,62c5398912f839c363f3eea7,2022-07-06_24h28.25.803,Colour_Asymmetry_Pilot,2022.1.3,Win32,60.25548325,62c50e9c1127f2cd403a315f,,,,,,,,,,,,,,,,,,,,,,,,,,,,,,,,,,,,,,,,,,,,,,,,,,,,,,,,,,,,,,,,,,,,,,,,,,,,,,,,,,,,,,,,,,,,,,,,,,,,,,,,,,,,,,,,,,,,,,,,,,,,,,,,,,,,,,,,,,,,,,,,,,,,,,,,,,,,,,,,,,,
0,87,87,37,1,,6047099142558a1747f22b23,62c5398912f839c363f3eea7,2022-07-06_24h28.25.803,Colour_Asymmetry_Pilot,2022.1.3,Win32,60.25548325,62c50e9c1127f2cd403a315f,,,,,,,,,,,,,,,,,,,,,,,,,,,,,,,,,,,,,,,,,,,,,,,,,,,,,,,,,,,,,,,,,,,,,,,,,,,,,,,,,,,,,,,,,,,,,,,,,,,,,,,,,,,,,,,,,,,,,,,,,,,,,,,,,,,,,,,,,,,,,,,,,,,,,,,,,,,,,,,,,,,
0,88,88,40,1,,6047099142558a1747f22b23,62c5398912f839c363f3eea7,2022-07-06_24h28.25.803,Colour_Asymmetry_Pilot,2022.1.3,Win32,60.25548325,62c50e9c1127f2cd403a315f,,,,,,,,,,,,,,,,,,,,,,,,,,,,,,,,,,,,,,,,,,,,,,,,,,,,,,,,,,,,,,,,,,,,,,,,,,,,,,,,,,,,,,,,,,,,,,,,,,,,,,,,,,,,,,,,,,,,,,,,,,,,,,,,,,,,,,,,,,,,,,,,,,,,,,,,,,,,,,,,,,,
0,89,89,47,1,,6047099142558a1747f22b23,62c5398912f839c363f3eea7,2022-07-06_24h28.25.803,Colour_Asymmetry_Pilot,2022.1.3,Win32,60.25548325,62c50e9c1127f2cd403a315f,,,,,,,,,,,,,,,,,,,,,,,,,,,,,,,,,,,,,,,,,,,,,,,,,,,,,,,,,,,,,,,,,,,,,,,,,,,,,,,,,,,,,,,,,,,,,,,,,,,,,,,,,,,,,,,,,,,,,,,,,,,,,,,,,,,,,,,,,,,,,,,,,,,,,,,,,,,,,,,,,,,
0,90,90,27,1,,6047099142558a1747f22b23,62c5398912f839c363f3eea7,2022-07-06_24h28.25.803,Colour_Asymmetry_Pilot,2022.1.3,Win32,60.25548325,62c50e9c1127f2cd403a315f,,,,,,,,,,,,,,,,,,,,,,,,,,,,,,,,,,,,,,,,,,,,,,,,,,,,,,,,,,,,,,,,,,,,,,,,,,,,,,,,,,,,,,,,,,,,,,,,,,,,,,,,,,,,,,,,,,,,,,,,,,,,,,,,,,,,,,,,,,,,,,,,,,,,,,,,,,,,,,,,,,,
0,91,91,58,1,,6047099142558a1747f22b23,62c5398912f839c363f3eea7,2022-07-06_24h28.25.803,Colour_Asymmetry_Pilot,2022.1.3,Win32,60.25548325,62c50e9c1127f2cd403a315f,,,,,,,,,,,,,,,,,,,,,,,,,,,,,,,,,,,,,,,,,,,,,,,,,,,,,,,,,,,,,,,,,,,,,,,,,,,,,,,,,,,,,,,,,,,,,,,,,,,,,,,,,,,,,,,,,,,,,,,,,,,,,,,,,,,,,,,,,,,,,,,,,,,,,,,,,,,,,,,,,,,
0,92,92,79,1,,6047099142558a1747f22b23,62c5398912f839c363f3eea7,2022-07-06_24h28.25.803,Colour_Asymmetry_Pilot,2022.1.3,Win32,60.25548325,62c50e9c1127f2cd403a315f,,,,,,,,,,,,,,,,,,,,,,,,,,,,,,,,,,,,,,,,,,,,,,,,,,,,,,,,,,,,,,,,,,,,,,,,,,,,,,,,,,,,,,,,,,,,,,,,,,,,,,,,,,,,,,,,,,,,,,,,,,,,,,,,,,,,,,,,,,,,,,,,,,,,,,,,,,,,,,,,,,,
,,,,,,6047099142558a1747f22b23,62c5398912f839c363f3eea7,2022-07-06_24h28.25.803,Colour_Asymmetry_Pilot,2022.1.3,Win32,60.25548325,62c50e9c1127f2cd403a315f,0,0,0,39,1,fourthree,,,,,,,,,,,,,,,,,,,,,,,,,,,,,,,,,,,,,,,,,,,,,,,,,,,,,,,,,,,,,,,,,,,,,,,,,,,,,,,,,,,,,,,,,,,,,,,,,,,,,,,,,,,,,,,,,,,,,,,,,,,,,,,,,,,,,,,,,,,,,,,,,,,,,,,,,,,,,
,,,,,,6047099142558a1747f22b23,62c5398912f839c363f3eea7,2022-07-06_24h28.25.803,Colour_Asymmetry_Pilot,2022.1.3,Win32,60.25548325,62c50e9c1127f2cd403a315f,0,1,1,63,1,fourthree,,,,,,,,,,,,,,,,,,,,,,,,,,,,,,,,,,,,,,,,,,,,,,,,,,,,,,,,,,,,,,,,,,,,,,,,,,,,,,,,,,,,,,,,,,,,,,,,,,,,,,,,,,,,,,,,,,,,,,,,,,,,,,,,,,,,,,,,,,,,,,,,,,,,,,,,,,,,,
,,,,,,6047099142558a1747f22b23,62c5398912f839c363f3eea7,2022-07-06_24h28.25.803,Colour_Asymmetry_Pilot,2022.1.3,Win32,60.25548325,62c50e9c1127f2cd403a315f,0,2,2,85,1,threefour,,,,,,,,,,,,,,,,,,,,,,,,,,,,,,,,,,,,,,,,,,,,,,,,,,,,,,,,,,,,,,,,,,,,,,,,,,,,,,,,,,,,,,,,,,,,,,,,,,,,,,,,,,,,,,,,,,,,,,,,,,,,,,,,,,,,,,,,,,,,,,,,,,,,,,,,,,,,,
,,,,,,6047099142558a1747f22b23,62c5398912f839c363f3eea7,2022-07-06_24h28.25.803,Colour_Asymmetry_Pilot,2022.1.3,Win32,60.25548325,62c50e9c1127f2cd403a315f,0,3,3,110,1,fourtwo,,,,,,,,,,,,,,,,,,,,,,,,,,,,,,,,,,,,,,,,,,,,,,,,,,,,,,,,,,,,,,,,,,,,,,,,,,,,,,,,,,,,,,,,,,,,,,,,,,,,,,,,,,,,,,,,,,,,,,,,,,,,,,,,,,,,,,,,,,,,,,,,,,,,,,,,,,,,,
,,,,,,6047099142558a1747f22b23,62c5398912f839c363f3eea7,2022-07-06_24h28.25.803,Colour_Asymmetry_Pilot,2022.1.3,Win32,60.25548325,62c50e9c1127f2cd403a315f,0,4,4,155,1,twofour,,,,,,,,,,,,,,,,,,,,,,,,,,,,,,,,,,,,,,,,,,,,,,,,,,,,,,,,,,,,,,,,,,,,,,,,,,,,,,,,,,,,,,,,,,,,,,,,,,,,,,,,,,,,,,,,,,,,,,,,,,,,,,,,,,,,,,,,,,,,,,,,,,,,,,,,,,,,,
,,,,,,6047099142558a1747f22b23,62c5398912f839c363f3eea7,2022-07-06_24h28.25.803,Colour_Asymmetry_Pilot,2022.1.3,Win32,60.25548325,62c50e9c1127f2cd403a315f,0,5,5,104,1,onetwo,,,,,,,,,,,,,,,,,,,,,,,,,,,,,,,,,,,,,,,,,,,,,,,,,,,,,,,,,,,,,,,,,,,,,,,,,,,,,,,,,,,,,,,,,,,,,,,,,,,,,,,,,,,,,,,,,,,,,,,,,,,,,,,,,,,,,,,,,,,,,,,,,,,,,,,,,,,,,
,,,,,,6047099142558a1747f22b23,62c5398912f839c363f3eea7,2022-07-06_24h28.25.803,Colour_Asymmetry_Pilot,2022.1.3,Win32,60.25548325,62c50e9c1127f2cd403a315f,0,6,6,97,1,onethree,,,,,,,,,,,,,,,,,,,,,,,,,,,,,,,,,,,,,,,,,,,,,,,,,,,,,,,,,,,,,,,,,,,,,,,,,,,,,,,,,,,,,,,,,,,,,,,,,,,,,,,,,,,,,,,,,,,,,,,,,,,,,,,,,,,,,,,,,,,,,,,,,,,,,,,,,,,,,
,,,,,,6047099142558a1747f22b23,62c5398912f839c363f3eea7,2022-07-06_24h28.25.803,Colour_Asymmetry_Pilot,2022.1.3,Win32,60.25548325,62c50e9c1127f2cd403a315f,0,7,7,123,1,twofour,,,,,,,,,,,,,,,,,,,,,,,,,,,,,,,,,,,,,,,,,,,,,,,,,,,,,,,,,,,,,,,,,,,,,,,,,,,,,,,,,,,,,,,,,,,,,,,,,,,,,,,,,,,,,,,,,,,,,,,,,,,,,,,,,,,,,,,,,,,,,,,,,,,,,,,,,,,,,
,,,,,,6047099142558a1747f22b23,62c5398912f839c363f3eea7,2022-07-06_24h28.25.803,Colour_Asymmetry_Pilot,2022.1.3,Win32,60.25548325,62c50e9c1127f2cd403a315f,0,8,8,28,1,threeone,,,,,,,,,,,,,,,,,,,,,,,,,,,,,,,,,,,,,,,,,,,,,,,,,,,,,,,,,,,,,,,,,,,,,,,,,,,,,,,,,,,,,,,,,,,,,,,,,,,,,,,,,,,,,,,,,,,,,,,,,,,,,,,,,,,,,,,,,,,,,,,,,,,,,,,,,,,,,
,,,,,,6047099142558a1747f22b23,62c5398912f839c363f3eea7,2022-07-06_24h28.25.803,Colour_Asymmetry_Pilot,2022.1.3,Win32,60.25548325,62c50e9c1127f2cd403a315f,0,9,9,137,1,onethree,,,,,,,,,,,,,,,,,,,,,,,,,,,,,,,,,,,,,,,,,,,,,,,,,,,,,,,,,,,,,,,,,,,,,,,,,,,,,,,,,,,,,,,,,,,,,,,,,,,,,,,,,,,,,,,,,,,,,,,,,,,,,,,,,,,,,,,,,,,,,,,,,,,,,,,,,,,,,
,,,,,,6047099142558a1747f22b23,62c5398912f839c363f3eea7,2022-07-06_24h28.25.803,Colour_Asymmetry_Pilot,2022.1.3,Win32,60.25548325,62c50e9c1127f2cd403a315f,0,10,10,98,1,twoone,,,,,,,,,,,,,,,,,,,,,,,,,,,,,,,,,,,,,,,,,,,,,,,,,,,,,,,,,,,,,,,,,,,,,,,,,,,,,,,,,,,,,,,,,,,,,,,,,,,,,,,,,,,,,,,,,,,,,,,,,,,,,,,,,,,,,,,,,,,,,,,,,,,,,,,,,,,,,
,,,,,,6047099142558a1747f22b23,62c5398912f839c363f3eea7,2022-07-06_24h28.25.803,Colour_Asymmetry_Pilot,2022.1.3,Win32,60.25548325,62c50e9c1127f2cd403a315f,0,11,11,109,1,threefour,,,,,,,,,,,,,,,,,,,,,,,,,,,,,,,,,,,,,,,,,,,,,,,,,,,,,,,,,,,,,,,,,,,,,,,,,,,,,,,,,,,,,,,,,,,,,,,,,,,,,,,,,,,,,,,,,,,,,,,,,,,,,,,,,,,,,,,,,,,,,,,,,,,,,,,,,,,,,
,,,,,,6047099142558a1747f22b23,62c5398912f839c363f3eea7,2022-07-06_24h28.25.803,Colour_Asymmetry_Pilot,2022.1.3,Win32,60.25548325,62c50e9c1127f2cd403a315f,0,12,12,112,1,onetwo,,,,,,,,,,,,,,,,,,,,,,,,,,,,,,,,,,,,,,,,,,,,,,,,,,,,,,,,,,,,,,,,,,,,,,,,,,,,,,,,,,,,,,,,,,,,,,,,,,,,,,,,,,,,,,,,,,,,,,,,,,,,,,,,,,,,,,,,,,,,,,,,,,,,,,,,,,,,,
,,,,,,6047099142558a1747f22b23,62c5398912f839c363f3eea7,2022-07-06_24h28.25.803,Colour_Asymmetry_Pilot,2022.1.3,Win32,60.25548325,62c50e9c1127f2cd403a315f,0,13,13,38,1,fourtwo,,,,,,,,,,,,,,,,,,,,,,,,,,,,,,,,,,,,,,,,,,,,,,,,,,,,,,,,,,,,,,,,,,,,,,,,,,,,,,,,,,,,,,,,,,,,,,,,,,,,,,,,,,,,,,,,,,,,,,,,,,,,,,,,,,,,,,,,,,,,,,,,,,,,,,,,,,,,,
,,,,,,6047099142558a1747f22b23,62c5398912f839c363f3eea7,2022-07-06_24h28.25.803,Colour_Asymmetry_Pilot,2022.1.3,Win32,60.25548325,62c50e9c1127f2cd403a315f,0,14,14,34,1,twoone,,,,,,,,,,,,,,,,,,,,,,,,,,,,,,,,,,,,,,,,,,,,,,,,,,,,,,,,,,,,,,,,,,,,,,,,,,,,,,,,,,,,,,,,,,,,,,,,,,,,,,,,,,,,,,,,,,,,,,,,,,,,,,,,,,,,,,,,,,,,,,,,,,,,,,,,,,,,,
,,,,,,6047099142558a1747f22b23,62c5398912f839c363f3eea7,2022-07-06_24h28.25.803,Colour_Asymmetry_Pilot,2022.1.3,Win32,60.25548325,62c50e9c1127f2cd403a315f,0,15,15,17,1,onethree,,,,,,,,,,,,,,,,,,,,,,,,,,,,,,,,,,,,,,,,,,,,,,,,,,,,,,,,,,,,,,,,,,,,,,,,,,,,,,,,,,,,,,,,,,,,,,,,,,,,,,,,,,,,,,,,,,,,,,,,,,,,,,,,,,,,,,,,,,,,,,,,,,,,,,,,,,,,,
,,,,,,6047099142558a1747f22b23,62c5398912f839c363f3eea7,2022-07-06_24h28.25.803,Colour_Asymmetry_Pilot,2022.1.3,Win32,60.25548325,62c50e9c1127f2cd403a315f,0,16,16,40,1,onetwo,,,,,,,,,,,,,,,,,,,,,,,,,,,,,,,,,,,,,,,,,,,,,,,,,,,,,,,,,,,,,,,,,,,,,,,,,,,,,,,,,,,,,,,,,,,,,,,,,,,,,,,,,,,,,,,,,,,,,,,,,,,,,,,,,,,,,,,,,,,,,,,,,,,,,,,,,,,,,
,,,,,,6047099142558a1747f22b23,62c5398912f839c363f3eea7,2022-07-06_24h28.25.803,Colour_Asymmetry_Pilot,2022.1.3,Win32,60.25548325,62c50e9c1127f2cd403a315f,0,17,17,96,1,onetwo,,,,,,,,,,,,,,,,,,,,,,,,,,,,,,,,,,,,,,,,,,,,,,,,,,,,,,,,,,,,,,,,,,,,,,,,,,,,,,,,,,,,,,,,,,,,,,,,,,,,,,,,,,,,,,,,,,,,,,,,,,,,,,,,,,,,,,,,,,,,,,,,,,,,,,,,,,,,,
,,,,,,6047099142558a1747f22b23,62c5398912f839c363f3eea7,2022-07-06_24h28.25.803,Colour_Asymmetry_Pilot,2022.1.3,Win32,60.25548325,62c50e9c1127f2cd403a315f,0,18,18,94,1,fourtwo,,,,,,,,,,,,,,,,,,,,,,,,,,,,,,,,,,,,,,,,,,,,,,,,,,,,,,,,,,,,,,,,,,,,,,,,,,,,,,,,,,,,,,,,,,,,,,,,,,,,,,,,,,,,,,,,,,,,,,,,,,,,,,,,,,,,,,,,,,,,,,,,,,,,,,,,,,,,,
,,,,,,6047099142558a1747f22b23,62c5398912f839c363f3eea7,2022-07-06_24h28.25.803,Colour_Asymmetry_Pilot,2022.1.3,Win32,60.25548325,62c50e9c1127f2cd403a315f,0,19,19,151,1,fourthree,,,,,,,,,,,,,,,,,,,,,,,,,,,,,,,,,,,,,,,,,,,,,,,,,,,,,,,,,,,,,,,,,,,,,,,,,,,,,,,,,,,,,,,,,,,,,,,,,,,,,,,,,,,,,,,,,,,,,,,,,,,,,,,,,,,,,,,,,,,,,,,,,,,,,,,,,,,,,
,,,,,,6047099142558a1747f22b23,62c5398912f839c363f3eea7,2022-07-06_24h28.25.803,Colour_Asymmetry_Pilot,2022.1.3,Win32,60.25548325,62c50e9c1127f2cd403a315f,0,20,20,59,1,twofour,,,,,,,,,,,,,,,,,,,,,,,,,,,,,,,,,,,,,,,,,,,,,,,,,,,,,,,,,,,,,,,,,,,,,,,,,,,,,,,,,,,,,,,,,,,,,,,,,,,,,,,,,,,,,,,,,,,,,,,,,,,,,,,,,,,,,,,,,,,,,,,,,,,,,,,,,,,,,
,,,,,,6047099142558a1747f22b23,62c5398912f839c363f3eea7,2022-07-06_24h28.25.803,Colour_Asymmetry_Pilot,2022.1.3,Win32,60.25548325,62c50e9c1127f2cd403a315f,0,21,21,93,1,threefour,,,,,,,,,,,,,,,,,,,,,,,,,,,,,,,,,,,,,,,,,,,,,,,,,,,,,,,,,,,,,,,,,,,,,,,,,,,,,,,,,,,,,,,,,,,,,,,,,,,,,,,,,,,,,,,,,,,,,,,,,,,,,,,,,,,,,,,,,,,,,,,,,,,,,,,,,,,,,
,,,,,,6047099142558a1747f22b23,62c5398912f839c363f3eea7,2022-07-06_24h28.25.803,Colour_Asymmetry_Pilot,2022.1.3,Win32,60.25548325,62c50e9c1127f2cd403a315f,0,22,22,105,1,onethree,,,,,,,,,,,,,,,,,,,,,,,,,,,,,,,,,,,,,,,,,,,,,,,,,,,,,,,,,,,,,,,,,,,,,,,,,,,,,,,,,,,,,,,,,,,,,,,,,,,,,,,,,,,,,,,,,,,,,,,,,,,,,,,,,,,,,,,,,,,,,,,,,,,,,,,,,,,,,
,,,,,,6047099142558a1747f22b23,62c5398912f839c363f3eea7,2022-07-06_24h28.25.803,Colour_Asymmetry_Pilot,2022.1.3,Win32,60.25548325,62c50e9c1127f2cd403a315f,0,23,23,48,1,onetwo,,,,,,,,,,,,,,,,,,,,,,,,,,,,,,,,,,,,,,,,,,,,,,,,,,,,,,,,,,,,,,,,,,,,,,,,,,,,,,,,,,,,,,,,,,,,,,,,,,,,,,,,,,,,,,,,,,,,,,,,,,,,,,,,,,,,,,,,,,,,,,,,,,,,,,,,,,,,,
,,,,,,6047099142558a1747f22b23,62c5398912f839c363f3eea7,2022-07-06_24h28.25.803,Colour_Asymmetry_Pilot,2022.1.3,Win32,60.25548325,62c50e9c1127f2cd403a315f,0,24,24,67,1,twofour,,,,,,,,,,,,,,,,,,,,,,,,,,,,,,,,,,,,,,,,,,,,,,,,,,,,,,,,,,,,,,,,,,,,,,,,,,,,,,,,,,,,,,,,,,,,,,,,,,,,,,,,,,,,,,,,,,,,,,,,,,,,,,,,,,,,,,,,,,,,,,,,,,,,,,,,,,,,,
,,,,,,6047099142558a1747f22b23,62c5398912f839c363f3eea7,2022-07-06_24h28.25.803,Colour_Asymmetry_Pilot,2022.1.3,Win32,60.25548325,62c50e9c1127f2cd403a315f,0,25,25,129,1,onethree,,,,,,,,,,,,,,,,,,,,,,,,,,,,,,,,,,,,,,,,,,,,,,,,,,,,,,,,,,,,,,,,,,,,,,,,,,,,,,,,,,,,,,,,,,,,,,,,,,,,,,,,,,,,,,,,,,,,,,,,,,,,,,,,,,,,,,,,,,,,,,,,,,,,,,,,,,,,,
,,,,,,6047099142558a1747f22b23,62c5398912f839c363f3eea7,2022-07-06_24h28.25.803,Colour_Asymmetry_Pilot,2022.1.3,Win32,60.25548325,62c50e9c1127f2cd403a315f,0,26,26,134,1,fourtwo,,,,,,,,,,,,,,,,,,,,,,,,,,,,,,,,,,,,,,,,,,,,,,,,,,,,,,,,,,,,,,,,,,,,,,,,,,,,,,,,,,,,,,,,,,,,,,,,,,,,,,,,,,,,,,,,,,,,,,,,,,,,,,,,,,,,,,,,,,,,,,,,,,,,,,,,,,,,,
,,,,,,6047099142558a1747f22b23,62c5398912f839c363f3eea7,2022-07-06_24h28.25.803,Colour_Asymmetry_Pilot,2022.1.3,Win32,60.25548325,62c50e9c1127f2cd403a315f,0,27,27,51,1,twofour,,,,,,,,,,,,,,,,,,,,,,,,,,,,,,,,,,,,,,,,,,,,,,,,,,,,,,,,,,,,,,,,,,,,,,,,,,,,,,,,,,,,,,,,,,,,,,,,,,,,,,,,,,,,,,,,,,,,,,,,,,,,,,,,,,,,,,,,,,,,,,,,,,,,,,,,,,,,,
,,,,,,6047099142558a1747f22b23,62c5398912f839c363f3eea7,2022-07-06_24h28.25.803,Colour_Asymmetry_Pilot,2022.1.3,Win32,60.25548325,62c50e9c1127f2cd403a315f,0,28,28,72,1,onetwo,,,,,,,,,,,,,,,,,,,,,,,,,,,,,,,,,,,,,,,,,,,,,,,,,,,,,,,,,,,,,,,,,,,,,,,,,,,,,,,,,,,,,,,,,,,,,,,,,,,,,,,,,,,,,,,,,,,,,,,,,,,,,,,,,,,,,,,,,,,,,,,,,,,,,,,,,,,,,
,,,,,,6047099142558a1747f22b23,62c5398912f839c363f3eea7,2022-07-06_24h28.25.803,Colour_Asymmetry_Pilot,2022.1.3,Win32,60.25548325,62c50e9c1127f2cd403a315f,0,29,29,19,1,twofour,,,,,,,,,,,,,,,,,,,,,,,,,,,,,,,,,,,,,,,,,,,,,,,,,,,,,,,,,,,,,,,,,,,,,,,,,,,,,,,,,,,,,,,,,,,,,,,,,,,,,,,,,,,,,,,,,,,,,,,,,,,,,,,,,,,,,,,,,,,,,,,,,,,,,,,,,,,,,
,,,,,,6047099142558a1747f22b23,62c5398912f839c363f3eea7,2022-07-06_24h28.25.803,Colour_Asymmetry_Pilot,2022.1.3,Win32,60.25548325,62c50e9c1127f2cd403a315f,0,30,30,152,1,onetwo,,,,,,,,,,,,,,,,,,,,,,,,,,,,,,,,,,,,,,,,,,,,,,,,,,,,,,,,,,,,,,,,,,,,,,,,,,,,,,,,,,,,,,,,,,,,,,,,,,,,,,,,,,,,,,,,,,,,,,,,,,,,,,,,,,,,,,,,,,,,,,,,,,,,,,,,,,,,,
,,,,,,6047099142558a1747f22b23,62c5398912f839c363f3eea7,2022-07-06_24h28.25.803,Colour_Asymmetry_Pilot,2022.1.3,Win32,60.25548325,62c50e9c1127f2cd403a315f,0,31,31,159,1,fourthree,,,,,,,,,,,,,,,,,,,,,,,,,,,,,,,,,,,,,,,,,,,,,,,,,,,,,,,,,,,,,,,,,,,,,,,,,,,,,,,,,,,,,,,,,,,,,,,,,,,,,,,,,,,,,,,,,,,,,,,,,,,,,,,,,,,,,,,,,,,,,,,,,,,,,,,,,,,,,
,,,,,,6047099142558a1747f22b23,62c5398912f839c363f3eea7,2022-07-06_24h28.25.803,Colour_Asymmetry_Pilot,2022.1.3,Win32,60.25548325,62c50e9c1127f2cd403a315f,0,32,32,71,1,fourthree,,,,,,,,,,,,,,,,,,,,,,,,,,,,,,,,,,,,,,,,,,,,,,,,,,,,,,,,,,,,,,,,,,,,,,,,,,,,,,,,,,,,,,,,,,,,,,,,,,,,,,,,,,,,,,,,,,,,,,,,,,,,,,,,,,,,,,,,,,,,,,,,,,,,,,,,,,,,,
,,,,,,6047099142558a1747f22b23,62c5398912f839c363f3eea7,2022-07-06_24h28.25.803,Colour_Asymmetry_Pilot,2022.1.3,Win32,60.25548325,62c50e9c1127f2cd403a315f,0,33,33,0,1,onetwo,,,,,,,,,,,,,,,,,,,,,,,,,,,,,,,,,,,,,,,,,,,,,,,,,,,,,,,,,,,,,,,,,,,,,,,,,,,,,,,,,,,,,,,,,,,,,,,,,,,,,,,,,,,,,,,,,,,,,,,,,,,,,,,,,,,,,,,,,,,,,,,,,,,,,,,,,,,,,
,,,,,,6047099142558a1747f22b23,62c5398912f839c363f3eea7,2022-07-06_24h28.25.803,Colour_Asymmetry_Pilot,2022.1.3,Win32,60.25548325,62c50e9c1127f2cd403a315f,0,34,34,133,1,threefour,,,,,,,,,,,,,,,,,,,,,,,,,,,,,,,,,,,,,,,,,,,,,,,,,,,,,,,,,,,,,,,,,,,,,,,,,,,,,,,,,,,,,,,,,,,,,,,,,,,,,,,,,,,,,,,,,,,,,,,,,,,,,,,,,,,,,,,,,,,,,,,,,,,,,,,,,,,,,
,,,,,,6047099142558a1747f22b23,62c5398912f839c363f3eea7,2022-07-06_24h28.25.803,Colour_Asymmetry_Pilot,2022.1.3,Win32,60.25548325,62c50e9c1127f2cd403a315f,0,35,35,147,1,twofour,,,,,,,,,,,,,,,,,,,,,,,,,,,,,,,,,,,,,,,,,,,,,,,,,,,,,,,,,,,,,,,,,,,,,,,,,,,,,,,,,,,,,,,,,,,,,,,,,,,,,,,,,,,,,,,,,,,,,,,,,,,,,,,,,,,,,,,,,,,,,,,,,,,,,,,,,,,,,
,,,,,,6047099142558a1747f22b23,62c5398912f839c363f3eea7,2022-07-06_24h28.25.803,Colour_Asymmetry_Pilot,2022.1.3,Win32,60.25548325,62c50e9c1127f2cd403a315f,0,36,36,142,1,fourtwo,,,,,,,,,,,,,,,,,,,,,,,,,,,,,,,,,,,,,,,,,,,,,,,,,,,,,,,,,,,,,,,,,,,,,,,,,,,,,,,,,,,,,,,,,,,,,,,,,,,,,,,,,,,,,,,,,,,,,,,,,,,,,,,,,,,,,,,,,,,,,,,,,,,,,,,,,,,,,
,,,,,,6047099142558a1747f22b23,62c5398912f839c363f3eea7,2022-07-06_24h28.25.803,Colour_Asymmetry_Pilot,2022.1.3,Win32,60.25548325,62c50e9c1127f2cd403a315f,0,37,37,23,1,fourthree,,,,,,,,,,,,,,,,,,,,,,,,,,,,,,,,,,,,,,,,,,,,,,,,,,,,,,,,,,,,,,,,,,,,,,,,,,,,,,,,,,,,,,,,,,,,,,,,,,,,,,,,,,,,,,,,,,,,,,,,,,,,,,,,,,,,,,,,,,,,,,,,,,,,,,,,,,,,,
,,,,,,6047099142558a1747f22b23,62c5398912f839c363f3eea7,2022-07-06_24h28.25.803,Colour_Asymmetry_Pilot,2022.1.3,Win32,60.25548325,62c50e9c1127f2cd403a315f,0,38,38,107,1,twofour,,,,,,,,,,,,,,,,,,,,,,,,,,,,,,,,,,,,,,,,,,,,,,,,,,,,,,,,,,,,,,,,,,,,,,,,,,,,,,,,,,,,,,,,,,,,,,,,,,,,,,,,,,,,,,,,,,,,,,,,,,,,,,,,,,,,,,,,,,,,,,,,,,,,,,,,,,,,,
,,,,,,6047099142558a1747f22b23,62c5398912f839c363f3eea7,2022-07-06_24h28.25.803,Colour_Asymmetry_Pilot,2022.1.3,Win32,60.25548325,62c50e9c1127f2cd403a315f,0,39,39,68,1,threeone,,,,,,,,,,,,,,,,,,,,,,,,,,,,,,,,,,,,,,,,,,,,,,,,,,,,,,,,,,,,,,,,,,,,,,,,,,,,,,,,,,,,,,,,,,,,,,,,,,,,,,,,,,,,,,,,,,,,,,,,,,,,,,,,,,,,,,,,,,,,,,,,,,,,,,,,,,,,,
,,,,,,6047099142558a1747f22b23,62c5398912f839c363f3eea7,2022-07-06_24h28.25.803,Colour_Asymmetry_Pilot,2022.1.3,Win32,60.25548325,62c50e9c1127f2cd403a315f,0,40,40,75,1,twofour,,,,,,,,,,,,,,,,,,,,,,,,,,,,,,,,,,,,,,,,,,,,,,,,,,,,,,,,,,,,,,,,,,,,,,,,,,,,,,,,,,,,,,,,,,,,,,,,,,,,,,,,,,,,,,,,,,,,,,,,,,,,,,,,,,,,,,,,,,,,,,,,,,,,,,,,,,,,,
,,,,,,6047099142558a1747f22b23,62c5398912f839c363f3eea7,2022-07-06_24h28.25.803,Colour_Asymmetry_Pilot,2022.1.3,Win32,60.25548325,62c50e9c1127f2cd403a315f,0,41,41,143,1,fourthree,,,,,,,,,,,,,,,,,,,,,,,,,,,,,,,,,,,,,,,,,,,,,,,,,,,,,,,,,,,,,,,,,,,,,,,,,,,,,,,,,,,,,,,,,,,,,,,,,,,,,,,,,,,,,,,,,,,,,,,,,,,,,,,,,,,,,,,,,,,,,,,,,,,,,,,,,,,,,
,,,,,,6047099142558a1747f22b23,62c5398912f839c363f3eea7,2022-07-06_24h28.25.803,Colour_Asymmetry_Pilot,2022.1.3,Win32,60.25548325,62c50e9c1127f2cd403a315f,0,42,42,2,1,twoone,,,,,,,,,,,,,,,,,,,,,,,,,,,,,,,,,,,,,,,,,,,,,,,,,,,,,,,,,,,,,,,,,,,,,,,,,,,,,,,,,,,,,,,,,,,,,,,,,,,,,,,,,,,,,,,,,,,,,,,,,,,,,,,,,,,,,,,,,,,,,,,,,,,,,,,,,,,,,
,,,,,,6047099142558a1747f22b23,62c5398912f839c363f3eea7,2022-07-06_24h28.25.803,Colour_Asymmetry_Pilot,2022.1.3,Win32,60.25548325,62c50e9c1127f2cd403a315f,0,43,43,132,1,threeone,,,,,,,,,,,,,,,,,,,,,,,,,,,,,,,,,,,,,,,,,,,,,,,,,,,,,,,,,,,,,,,,,,,,,,,,,,,,,,,,,,,,,,,,,,,,,,,,,,,,,,,,,,,,,,,,,,,,,,,,,,,,,,,,,,,,,,,,,,,,,,,,,,,,,,,,,,,,,
,,,,,,6047099142558a1747f22b23,62c5398912f839c363f3eea7,2022-07-06_24h28.25.803,Colour_Asymmetry_Pilot,2022.1.3,Win32,60.25548325,62c50e9c1127f2cd403a315f,0,44,44,32,1,onetwo,,,,,,,,,,,,,,,,,,,,,,,,,,,,,,,,,,,,,,,,,,,,,,,,,,,,,,,,,,,,,,,,,,,,,,,,,,,,,,,,,,,,,,,,,,,,,,,,,,,,,,,,,,,,,,,,,,,,,,,,,,,,,,,,,,,,,,,,,,,,,,,,,,,,,,,,,,,,,
,,,,,,6047099142558a1747f22b23,62c5398912f839c363f3eea7,2022-07-06_24h28.25.803,Colour_Asymmetry_Pilot,2022.1.3,Win32,60.25548325,62c50e9c1127f2cd403a315f,0,45,45,58,1,twoone,,,,,,,,,,,,,,,,,,,,,,,,,,,,,,,,,,,,,,,,,,,,,,,,,,,,,,,,,,,,,,,,,,,,,,,,,,,,,,,,,,,,,,,,,,,,,,,,,,,,,,,,,,,,,,,,,,,,,,,,,,,,,,,,,,,,,,,,,,,,,,,,,,,,,,,,,,,,,
,,,,,,6047099142558a1747f22b23,62c5398912f839c363f3eea7,2022-07-06_24h28.25.803,Colour_Asymmetry_Pilot,2022.1.3,Win32,60.25548325,62c50e9c1127f2cd403a315f,0,46,46,89,1,onethree,,,,,,,,,,,,,,,,,,,,,,,,,,,,,,,,,,,,,,,,,,,,,,,,,,,,,,,,,,,,,,,,,,,,,,,,,,,,,,,,,,,,,,,,,,,,,,,,,,,,,,,,,,,,,,,,,,,,,,,,,,,,,,,,,,,,,,,,,,,,,,,,,,,,,,,,,,,,,
,,,,,,6047099142558a1747f22b23,62c5398912f839c363f3eea7,2022-07-06_24h28.25.803,Colour_Asymmetry_Pilot,2022.1.3,Win32,60.25548325,62c50e9c1127f2cd403a315f,0,47,47,84,1,threeone,,,,,,,,,,,,,,,,,,,,,,,,,,,,,,,,,,,,,,,,,,,,,,,,,,,,,,,,,,,,,,,,,,,,,,,,,,,,,,,,,,,,,,,,,,,,,,,,,,,,,,,,,,,,,,,,,,,,,,,,,,,,,,,,,,,,,,,,,,,,,,,,,,,,,,,,,,,,,
,,,,,,6047099142558a1747f22b23,62c5398912f839c363f3eea7,2022-07-06_24h28.25.803,Colour_Asymmetry_Pilot,2022.1.3,Win32,60.25548325,62c50e9c1127f2cd403a315f,0,48,48,33,1,onethree,,,,,,,,,,,,,,,,,,,,,,,,,,,,,,,,,,,,,,,,,,,,,,,,,,,,,,,,,,,,,,,,,,,,,,,,,,,,,,,,,,,,,,,,,,,,,,,,,,,,,,,,,,,,,,,,,,,,,,,,,,,,,,,,,,,,,,,,,,,,,,,,,,,,,,,,,,,,,
,,,,,,6047099142558a1747f22b23,62c5398912f839c363f3eea7,2022-07-06_24h28.25.803,Colour_Asymmetry_Pilot,2022.1.3,Win32,60.25548325,62c50e9c1127f2cd403a315f,0,49,49,106,1,twoone,,,,,,,,,,,,,,,,,,,,,,,,,,,,,,,,,,,,,,,,,,,,,,,,,,,,,,,,,,,,,,,,,,,,,,,,,,,,,,,,,,,,,,,,,,,,,,,,,,,,,,,,,,,,,,,,,,,,,,,,,,,,,,,,,,,,,,,,,,,,,,,,,,,,,,,,,,,,,
,,,,,,6047099142558a1747f22b23,62c5398912f839c363f3eea7,2022-07-06_24h28.25.803,Colour_Asymmetry_Pilot,2022.1.3,Win32,60.25548325,62c50e9c1127f2cd403a315f,0,50,50,145,1,onethree,,,,,,,,,,,,,,,,,,,,,,,,,,,,,,,,,,,,,,,,,,,,,,,,,,,,,,,,,,,,,,,,,,,,,,,,,,,,,,,,,,,,,,,,,,,,,,,,,,,,,,,,,,,,,,,,,,,,,,,,,,,,,,,,,,,,,,,,,,,,,,,,,,,,,,,,,,,,,
,,,,,,6047099142558a1747f22b23,62c5398912f839c363f3eea7,2022-07-06_24h28.25.803,Colour_Asymmetry_Pilot,2022.1.3,Win32,60.25548325,62c50e9c1127f2cd403a315f,0,51,51,64,1,onetwo,,,,,,,,,,,,,,,,,,,,,,,,,,,,,,,,,,,,,,,,,,,,,,,,,,,,,,,,,,,,,,,,,,,,,,,,,,,,,,,,,,,,,,,,,,,,,,,,,,,,,,,,,,,,,,,,,,,,,,,,,,,,,,,,,,,,,,,,,,,,,,,,,,,,,,,,,,,,,
,,,,,,6047099142558a1747f22b23,62c5398912f839c363f3eea7,2022-07-06_24h28.25.803,Colour_Asymmetry_Pilot,2022.1.3,Win32,60.25548325,62c50e9c1127f2cd403a315f,0,52,52,49,1,onethree,,,,,,,,,,,,,,,,,,,,,,,,,,,,,,,,,,,,,,,,,,,,,,,,,,,,,,,,,,,,,,,,,,,,,,,,,,,,,,,,,,,,,,,,,,,,,,,,,,,,,,,,,,,,,,,,,,,,,,,,,,,,,,,,,,,,,,,,,,,,,,,,,,,,,,,,,,,,,
,,,,,,6047099142558a1747f22b23,62c5398912f839c363f3eea7,2022-07-06_24h28.25.803,Colour_Asymmetry_Pilot,2022.1.3,Win32,60.25548325,62c50e9c1127f2cd403a315f,0,53,53,36,1,threeone,,,,,,,,,,,,,,,,,,,,,,,,,,,,,,,,,,,,,,,,,,,,,,,,,,,,,,,,,,,,,,,,,,,,,,,,,,,,,,,,,,,,,,,,,,,,,,,,,,,,,,,,,,,,,,,,,,,,,,,,,,,,,,,,,,,,,,,,,,,,,,,,,,,,,,,,,,,,,
,,,,,,6047099142558a1747f22b23,62c5398912f839c363f3eea7,2022-07-06_24h28.25.803,Colour_Asymmetry_Pilot,2022.1.3,Win32,60.25548325,62c50e9c1127f2cd403a315f,0,54,54,18,1,twoone,,,,,,,,,,,,,,,,,,,,,,,,,,,,,,,,,,,,,,,,,,,,,,,,,,,,,,,,,,,,,,,,,,,,,,,,,,,,,,,,,,,,,,,,,,,,,,,,,,,,,,,,,,,,,,,,,,,,,,,,,,,,,,,,,,,,,,,,,,,,,,,,,,,,,,,,,,,,,
,,,,,,6047099142558a1747f22b23,62c5398912f839c363f3eea7,2022-07-06_24h28.25.803,Colour_Asymmetry_Pilot,2022.1.3,Win32,60.25548325,62c50e9c1127f2cd403a315f,0,55,55,79,1,fourthree,,,,,,,,,,,,,,,,,,,,,,,,,,,,,,,,,,,,,,,,,,,,,,,,,,,,,,,,,,,,,,,,,,,,,,,,,,,,,,,,,,,,,,,,,,,,,,,,,,,,,,,,,,,,,,,,,,,,,,,,,,,,,,,,,,,,,,,,,,,,,,,,,,,,,,,,,,,,,
,,,,,,6047099142558a1747f22b23,62c5398912f839c363f3eea7,2022-07-06_24h28.25.803,Colour_Asymmetry_Pilot,2022.1.3,Win32,60.25548325,62c50e9c1127f2cd403a315f,0,56,56,116,1,threeone,,,,,,,,,,,,,,,,,,,,,,,,,,,,,,,,,,,,,,,,,,,,,,,,,,,,,,,,,,,,,,,,,,,,,,,,,,,,,,,,,,,,,,,,,,,,,,,,,,,,,,,,,,,,,,,,,,,,,,,,,,,,,,,,,,,,,,,,,,,,,,,,,,,,,,,,,,,,,
,,,,,,6047099142558a1747f22b23,62c5398912f839c363f3eea7,2022-07-06_24h28.25.803,Colour_Asymmetry_Pilot,2022.1.3,Win32,60.25548325,62c50e9c1127f2cd403a315f,0,57,57,102,1,fourtwo,,,,,,,,,,,,,,,,,,,,,,,,,,,,,,,,,,,,,,,,,,,,,,,,,,,,,,,,,,,,,,,,,,,,,,,,,,,,,,,,,,,,,,,,,,,,,,,,,,,,,,,,,,,,,,,,,,,,,,,,,,,,,,,,,,,,,,,,,,,,,,,,,,,,,,,,,,,,,
,,,,,,6047099142558a1747f22b23,62c5398912f839c363f3eea7,2022-07-06_24h28.25.803,Colour_Asymmetry_Pilot,2022.1.3,Win32,60.25548325,62c50e9c1127f2cd403a315f,0,58,58,70,1,fourtwo,,,,,,,,,,,,,,,,,,,,,,,,,,,,,,,,,,,,,,,,,,,,,,,,,,,,,,,,,,,,,,,,,,,,,,,,,,,,,,,,,,,,,,,,,,,,,,,,,,,,,,,,,,,,,,,,,,,,,,,,,,,,,,,,,,,,,,,,,,,,,,,,,,,,,,,,,,,,,
,,,,,,6047099142558a1747f22b23,62c5398912f839c363f3eea7,2022-07-06_24h28.25.803,Colour_Asymmetry_Pilot,2022.1.3,Win32,60.25548325,62c50e9c1127f2cd403a315f,0,59,59,52,1,threeone,,,,,,,,,,,,,,,,,,,,,,,,,,,,,,,,,,,,,,,,,,,,,,,,,,,,,,,,,,,,,,,,,,,,,,,,,,,,,,,,,,,,,,,,,,,,,,,,,,,,,,,,,,,,,,,,,,,,,,,,,,,,,,,,,,,,,,,,,,,,,,,,,,,,,,,,,,,,,
,,,,,,6047099142558a1747f22b23,62c5398912f839c363f3eea7,2022-07-06_24h28.25.803,Colour_Asymmetry_Pilot,2022.1.3,Win32,60.25548325,62c50e9c1127f2cd403a315f,0,60,60,53,1,threefour,,,,,,,,,,,,,,,,,,,,,,,,,,,,,,,,,,,,,,,,,,,,,,,,,,,,,,,,,,,,,,,,,,,,,,,,,,,,,,,,,,,,,,,,,,,,,,,,,,,,,,,,,,,,,,,,,,,,,,,,,,,,,,,,,,,,,,,,,,,,,,,,,,,,,,,,,,,,,
,,,,,,6047099142558a1747f22b23,62c5398912f839c363f3eea7,2022-07-06_24h28.25.803,Colour_Asymmetry_Pilot,2022.1.3,Win32,60.25548325,62c50e9c1127f2cd403a315f,0,61,61,14,1,fourtwo,,,,,,,,,,,,,,,,,,,,,,,,,,,,,,,,,,,,,,,,,,,,,,,,,,,,,,,,,,,,,,,,,,,,,,,,,,,,,,,,,,,,,,,,,,,,,,,,,,,,,,,,,,,,,,,,,,,,,,,,,,,,,,,,,,,,,,,,,,,,,,,,,,,,,,,,,,,,,
,,,,,,6047099142558a1747f22b23,62c5398912f839c363f3eea7,2022-07-06_24h28.25.803,Colour_Asymmetry_Pilot,2022.1.3,Win32,60.25548325,62c50e9c1127f2cd403a315f,0,62,62,8,1,onetwo,,,,,,,,,,,,,,,,,,,,,,,,,,,,,,,,,,,,,,,,,,,,,,,,,,,,,,,,,,,,,,,,,,,,,,,,,,,,,,,,,,,,,,,,,,,,,,,,,,,,,,,,,,,,,,,,,,,,,,,,,,,,,,,,,,,,,,,,,,,,,,,,,,,,,,,,,,,,,
,,,,,,6047099142558a1747f22b23,62c5398912f839c363f3eea7,2022-07-06_24h28.25.803,Colour_Asymmetry_Pilot,2022.1.3,Win32,60.25548325,62c50e9c1127f2cd403a315f,0,63,63,7,1,fourthree,,,,,,,,,,,,,,,,,,,,,,,,,,,,,,,,,,,,,,,,,,,,,,,,,,,,,,,,,,,,,,,,,,,,,,,,,,,,,,,,,,,,,,,,,,,,,,,,,,,,,,,,,,,,,,,,,,,,,,,,,,,,,,,,,,,,,,,,,,,,,,,,,,,,,,,,,,,,,
,,,,,,6047099142558a1747f22b23,62c5398912f839c363f3eea7,2022-07-06_24h28.25.803,Colour_Asymmetry_Pilot,2022.1.3,Win32,60.25548325,62c50e9c1127f2cd403a315f,0,64,64,44,1,threeone,,,,,,,,,,,,,,,,,,,,,,,,,,,,,,,,,,,,,,,,,,,,,,,,,,,,,,,,,,,,,,,,,,,,,,,,,,,,,,,,,,,,,,,,,,,,,,,,,,,,,,,,,,,,,,,,,,,,,,,,,,,,,,,,,,,,,,,,,,,,,,,,,,,,,,,,,,,,,
,,,,,,6047099142558a1747f22b23,62c5398912f839c363f3eea7,2022-07-06_24h28.25.803,Colour_Asymmetry_Pilot,2022.1.3,Win32,60.25548325,62c50e9c1127f2cd403a315f,0,65,65,86,1,fourtwo,,,,,,,,,,,,,,,,,,,,,,,,,,,,,,,,,,,,,,,,,,,,,,,,,,,,,,,,,,,,,,,,,,,,,,,,,,,,,,,,,,,,,,,,,,,,,,,,,,,,,,,,,,,,,,,,,,,,,,,,,,,,,,,,,,,,,,,,,,,,,,,,,,,,,,,,,,,,,
,,,,,,6047099142558a1747f22b23,62c5398912f839c363f3eea7,2022-07-06_24h28.25.803,Colour_Asymmetry_Pilot,2022.1.3,Win32,60.25548325,62c50e9c1127f2cd403a315f,0,66,66,101,1,threefour,,,,,,,,,,,,,,,,,,,,,,,,,,,,,,,,,,,,,,,,,,,,,,,,,,,,,,,,,,,,,,,,,,,,,,,,,,,,,,,,,,,,,,,,,,,,,,,,,,,,,,,,,,,,,,,,,,,,,,,,,,,,,,,,,,,,,,,,,,,,,,,,,,,,,,,,,,,,,
,,,,,,6047099142558a1747f22b23,62c5398912f839c363f3eea7,2022-07-06_24h28.25.803,Colour_Asymmetry_Pilot,2022.1.3,Win32,60.25548325,62c50e9c1127f2cd403a315f,0,67,67,42,1,twoone,,,,,,,,,,,,,,,,,,,,,,,,,,,,,,,,,,,,,,,,,,,,,,,,,,,,,,,,,,,,,,,,,,,,,,,,,,,,,,,,,,,,,,,,,,,,,,,,,,,,,,,,,,,,,,,,,,,,,,,,,,,,,,,,,,,,,,,,,,,,,,,,,,,,,,,,,,,,,
,,,,,,6047099142558a1747f22b23,62c5398912f839c363f3eea7,2022-07-06_24h28.25.803,Colour_Asymmetry_Pilot,2022.1.3,Win32,60.25548325,62c50e9c1127f2cd403a315f,0,68,68,111,1,fourthree,,,,,,,,,,,,,,,,,,,,,,,,,,,,,,,,,,,,,,,,,,,,,,,,,,,,,,,,,,,,,,,,,,,,,,,,,,,,,,,,,,,,,,,,,,,,,,,,,,,,,,,,,,,,,,,,,,,,,,,,,,,,,,,,,,,,,,,,,,,,,,,,,,,,,,,,,,,,,
,,,,,,6047099142558a1747f22b23,62c5398912f839c363f3eea7,2022-07-06_24h28.25.803,Colour_Asymmetry_Pilot,2022.1.3,Win32,60.25548325,62c50e9c1127f2cd403a315f,0,69,69,5,1,threefour,,,,,,,,,,,,,,,,,,,,,,,,,,,,,,,,,,,,,,,,,,,,,,,,,,,,,,,,,,,,,,,,,,,,,,,,,,,,,,,,,,,,,,,,,,,,,,,,,,,,,,,,,,,,,,,,,,,,,,,,,,,,,,,,,,,,,,,,,,,,,,,,,,,,,,,,,,,,,
,,,,,,6047099142558a1747f22b23,62c5398912f839c363f3eea7,2022-07-06_24h28.25.803,Colour_Asymmetry_Pilot,2022.1.3,Win32,60.25548325,62c50e9c1127f2cd403a315f,0,70,70,127,1,fourthree,,,,,,,,,,,,,,,,,,,,,,,,,,,,,,,,,,,,,,,,,,,,,,,,,,,,,,,,,,,,,,,,,,,,,,,,,,,,,,,,,,,,,,,,,,,,,,,,,,,,,,,,,,,,,,,,,,,,,,,,,,,,,,,,,,,,,,,,,,,,,,,,,,,,,,,,,,,,,
,,,,,,6047099142558a1747f22b23,62c5398912f839c363f3eea7,2022-07-06_24h28.25.803,Colour_Asymmetry_Pilot,2022.1.3,Win32,60.25548325,62c50e9c1127f2cd403a315f,0,71,71,130,1,twoone,,,,,,,,,,,,,,,,,,,,,,,,,,,,,,,,,,,,,,,,,,,,,,,,,,,,,,,,,,,,,,,,,,,,,,,,,,,,,,,,,,,,,,,,,,,,,,,,,,,,,,,,,,,,,,,,,,,,,,,,,,,,,,,,,,,,,,,,,,,,,,,,,,,,,,,,,,,,,
,,,,,,6047099142558a1747f22b23,62c5398912f839c363f3eea7,2022-07-06_24h28.25.803,Colour_Asymmetry_Pilot,2022.1.3,Win32,60.25548325,62c50e9c1127f2cd403a315f,0,72,72,95,1,fourthree,,,,,,,,,,,,,,,,,,,,,,,,,,,,,,,,,,,,,,,,,,,,,,,,,,,,,,,,,,,,,,,,,,,,,,,,,,,,,,,,,,,,,,,,,,,,,,,,,,,,,,,,,,,,,,,,,,,,,,,,,,,,,,,,,,,,,,,,,,,,,,,,,,,,,,,,,,,,,
,,,,,,6047099142558a1747f22b23,62c5398912f839c363f3eea7,2022-07-06_24h28.25.803,Colour_Asymmetry_Pilot,2022.1.3,Win32,60.25548325,62c50e9c1127f2cd403a315f,0,73,73,13,1,threefour,,,,,,,,,,,,,,,,,,,,,,,,,,,,,,,,,,,,,,,,,,,,,,,,,,,,,,,,,,,,,,,,,,,,,,,,,,,,,,,,,,,,,,,,,,,,,,,,,,,,,,,,,,,,,,,,,,,,,,,,,,,,,,,,,,,,,,,,,,,,,,,,,,,,,,,,,,,,,
,,,,,,6047099142558a1747f22b23,62c5398912f839c363f3eea7,2022-07-06_24h28.25.803,Colour_Asymmetry_Pilot,2022.1.3,Win32,60.25548325,62c50e9c1127f2cd403a315f,0,74,74,77,1,threefour,,,,,,,,,,,,,,,,,,,,,,,,,,,,,,,,,,,,,,,,,,,,,,,,,,,,,,,,,,,,,,,,,,,,,,,,,,,,,,,,,,,,,,,,,,,,,,,,,,,,,,,,,,,,,,,,,,,,,,,,,,,,,,,,,,,,,,,,,,,,,,,,,,,,,,,,,,,,,
,,,,,,6047099142558a1747f22b23,62c5398912f839c363f3eea7,2022-07-06_24h28.25.803,Colour_Asymmetry_Pilot,2022.1.3,Win32,60.25548325,62c50e9c1127f2cd403a315f,0,75,75,81,1,onethree,,,,,,,,,,,,,,,,,,,,,,,,,,,,,,,,,,,,,,,,,,,,,,,,,,,,,,,,,,,,,,,,,,,,,,,,,,,,,,,,,,,,,,,,,,,,,,,,,,,,,,,,,,,,,,,,,,,,,,,,,,,,,,,,,,,,,,,,,,,,,,,,,,,,,,,,,,,,,
,,,,,,6047099142558a1747f22b23,62c5398912f839c363f3eea7,2022-07-06_24h28.25.803,Colour_Asymmetry_Pilot,2022.1.3,Win32,60.25548325,62c50e9c1127f2cd403a315f,0,76,76,87,1,fourthree,,,,,,,,,,,,,,,,,,,,,,,,,,,,,,,,,,,,,,,,,,,,,,,,,,,,,,,,,,,,,,,,,,,,,,,,,,,,,,,,,,,,,,,,,,,,,,,,,,,,,,,,,,,,,,,,,,,,,,,,,,,,,,,,,,,,,,,,,,,,,,,,,,,,,,,,,,,,,
,,,,,,6047099142558a1747f22b23,62c5398912f839c363f3eea7,2022-07-06_24h28.25.803,Colour_Asymmetry_Pilot,2022.1.3,Win32,60.25548325,62c50e9c1127f2cd403a315f,0,77,77,161,1,onethree,,,,,,,,,,,,,,,,,,,,,,,,,,,,,,,,,,,,,,,,,,,,,,,,,,,,,,,,,,,,,,,,,,,,,,,,,,,,,,,,,,,,,,,,,,,,,,,,,,,,,,,,,,,,,,,,,,,,,,,,,,,,,,,,,,,,,,,,,,,,,,,,,,,,,,,,,,,,,
,,,,,,6047099142558a1747f22b23,62c5398912f839c363f3eea7,2022-07-06_24h28.25.803,Colour_Asymmetry_Pilot,2022.1.3,Win32,60.25548325,62c50e9c1127f2cd403a315f,0,78,78,158,1,fourtwo,,,,,,,,,,,,,,,,,,,,,,,,,,,,,,,,,,,,,,,,,,,,,,,,,,,,,,,,,,,,,,,,,,,,,,,,,,,,,,,,,,,,,,,,,,,,,,,,,,,,,,,,,,,,,,,,,,,,,,,,,,,,,,,,,,,,,,,,,,,,,,,,,,,,,,,,,,,,,
,,,,,,6047099142558a1747f22b23,62c5398912f839c363f3eea7,2022-07-06_24h28.25.803,Colour_Asymmetry_Pilot,2022.1.3,Win32,60.25548325,62c50e9c1127f2cd403a315f,0,79,79,30,1,fourtwo,,,,,,,,,,,,,,,,,,,,,,,,,,,,,,,,,,,,,,,,,,,,,,,,,,,,,,,,,,,,,,,,,,,,,,,,,,,,,,,,,,,,,,,,,,,,,,,,,,,,,,,,,,,,,,,,,,,,,,,,,,,,,,,,,,,,,,,,,,,,,,,,,,,,,,,,,,,,,
,,,,,,6047099142558a1747f22b23,62c5398912f839c363f3eea7,2022-07-06_24h28.25.803,Colour_Asymmetry_Pilot,2022.1.3,Win32,60.25548325,62c50e9c1127f2cd403a315f,0,80,80,119,1,fourthree,,,,,,,,,,,,,,,,,,,,,,,,,,,,,,,,,,,,,,,,,,,,,,,,,,,,,,,,,,,,,,,,,,,,,,,,,,,,,,,,,,,,,,,,,,,,,,,,,,,,,,,,,,,,,,,,,,,,,,,,,,,,,,,,,,,,,,,,,,,,,,,,,,,,,,,,,,,,,
,,,,,,6047099142558a1747f22b23,62c5398912f839c363f3eea7,2022-07-06_24h28.25.803,Colour_Asymmetry_Pilot,2022.1.3,Win32,60.25548325,62c50e9c1127f2cd403a315f,0,81,81,6,1,fourtwo,,,,,,,,,,,,,,,,,,,,,,,,,,,,,,,,,,,,,,,,,,,,,,,,,,,,,,,,,,,,,,,,,,,,,,,,,,,,,,,,,,,,,,,,,,,,,,,,,,,,,,,,,,,,,,,,,,,,,,,,,,,,,,,,,,,,,,,,,,,,,,,,,,,,,,,,,,,,,
,,,,,,6047099142558a1747f22b23,62c5398912f839c363f3eea7,2022-07-06_24h28.25.803,Colour_Asymmetry_Pilot,2022.1.3,Win32,60.25548325,62c50e9c1127f2cd403a315f,0,82,82,60,1,threeone,,,,,,,,,,,,,,,,,,,,,,,,,,,,,,,,,,,,,,,,,,,,,,,,,,,,,,,,,,,,,,,,,,,,,,,,,,,,,,,,,,,,,,,,,,,,,,,,,,,,,,,,,,,,,,,,,,,,,,,,,,,,,,,,,,,,,,,,,,,,,,,,,,,,,,,,,,,,,
,,,,,,6047099142558a1747f22b23,62c5398912f839c363f3eea7,2022-07-06_24h28.25.803,Colour_Asymmetry_Pilot,2022.1.3,Win32,60.25548325,62c50e9c1127f2cd403a315f,0,83,83,55,1,fourthree,,,,,,,,,,,,,,,,,,,,,,,,,,,,,,,,,,,,,,,,,,,,,,,,,,,,,,,,,,,,,,,,,,,,,,,,,,,,,,,,,,,,,,,,,,,,,,,,,,,,,,,,,,,,,,,,,,,,,,,,,,,,,,,,,,,,,,,,,,,,,,,,,,,,,,,,,,,,,
,,,,,,6047099142558a1747f22b23,62c5398912f839c363f3eea7,2022-07-06_24h28.25.803,Colour_Asymmetry_Pilot,2022.1.3,Win32,60.25548325,62c50e9c1127f2cd403a315f,0,84,84,46,1,fourtwo,,,,,,,,,,,,,,,,,,,,,,,,,,,,,,,,,,,,,,,,,,,,,,,,,,,,,,,,,,,,,,,,,,,,,,,,,,,,,,,,,,,,,,,,,,,,,,,,,,,,,,,,,,,,,,,,,,,,,,,,,,,,,,,,,,,,,,,,,,,,,,,,,,,,,,,,,,,,,
,,,,,,6047099142558a1747f22b23,62c5398912f839c363f3eea7,2022-07-06_24h28.25.803,Colour_Asymmetry_Pilot,2022.1.3,Win32,60.25548325,62c50e9c1127f2cd403a315f,0,85,85,45,1,threefour,,,,,,,,,,,,,,,,,,,,,,,,,,,,,,,,,,,,,,,,,,,,,,,,,,,,,,,,,,,,,,,,,,,,,,,,,,,,,,,,,,,,,,,,,,,,,,,,,,,,,,,,,,,,,,,,,,,,,,,,,,,,,,,,,,,,,,,,,,,,,,,,,,,,,,,,,,,,,
,,,,,,6047099142558a1747f22b23,62c5398912f839c363f3eea7,2022-07-06_24h28.25.803,Colour_Asymmetry_Pilot,2022.1.3,Win32,60.25548325,62c50e9c1127f2cd403a315f,0,86,86,103,1,fourthree,,,,,,,,,,,,,,,,,,,,,,,,,,,,,,,,,,,,,,,,,,,,,,,,,,,,,,,,,,,,,,,,,,,,,,,,,,,,,,,,,,,,,,,,,,,,,,,,,,,,,,,,,,,,,,,,,,,,,,,,,,,,,,,,,,,,,,,,,,,,,,,,,,,,,,,,,,,,,
,,,,,,6047099142558a1747f22b23,62c5398912f839c363f3eea7,2022-07-06_24h28.25.803,Colour_Asymmetry_Pilot,2022.1.3,Win32,60.25548325,62c50e9c1127f2cd403a315f,0,87,87,113,1,onethree,,,,,,,,,,,,,,,,,,,,,,,,,,,,,,,,,,,,,,,,,,,,,,,,,,,,,,,,,,,,,,,,,,,,,,,,,,,,,,,,,,,,,,,,,,,,,,,,,,,,,,,,,,,,,,,,,,,,,,,,,,,,,,,,,,,,,,,,,,,,,,,,,,,,,,,,,,,,,
,,,,,,6047099142558a1747f22b23,62c5398912f839c363f3eea7,2022-07-06_24h28.25.803,Colour_Asymmetry_Pilot,2022.1.3,Win32,60.25548325,62c50e9c1127f2cd403a315f,0,88,88,157,1,threefour,,,,,,,,,,,,,,,,,,,,,,,,,,,,,,,,,,,,,,,,,,,,,,,,,,,,,,,,,,,,,,,,,,,,,,,,,,,,,,,,,,,,,,,,,,,,,,,,,,,,,,,,,,,,,,,,,,,,,,,,,,,,,,,,,,,,,,,,,,,,,,,,,,,,,,,,,,,,,
,,,,,,6047099142558a1747f22b23,62c5398912f839c363f3eea7,2022-07-06_24h28.25.803,Colour_Asymmetry_Pilot,2022.1.3,Win32,60.25548325,62c50e9c1127f2cd403a315f,0,89,89,150,1,fourtwo,,,,,,,,,,,,,,,,,,,,,,,,,,,,,,,,,,,,,,,,,,,,,,,,,,,,,,,,,,,,,,,,,,,,,,,,,,,,,,,,,,,,,,,,,,,,,,,,,,,,,,,,,,,,,,,,,,,,,,,,,,,,,,,,,,,,,,,,,,,,,,,,,,,,,,,,,,,,,
,,,,,,6047099142558a1747f22b23,62c5398912f839c363f3eea7,2022-07-06_24h28.25.803,Colour_Asymmetry_Pilot,2022.1.3,Win32,60.25548325,62c50e9c1127f2cd403a315f,0,90,90,62,1,fourtwo,,,,,,,,,,,,,,,,,,,,,,,,,,,,,,,,,,,,,,,,,,,,,,,,,,,,,,,,,,,,,,,,,,,,,,,,,,,,,,,,,,,,,,,,,,,,,,,,,,,,,,,,,,,,,,,,,,,,,,,,,,,,,,,,,,,,,,,,,,,,,,,,,,,,,,,,,,,,,
,,,,,,6047099142558a1747f22b23,62c5398912f839c363f3eea7,2022-07-06_24h28.25.803,Colour_Asymmetry_Pilot,2022.1.3,Win32,60.25548325,62c50e9c1127f2cd403a315f,0,91,91,146,1,twoone,,,,,,,,,,,,,,,,,,,,,,,,,,,,,,,,,,,,,,,,,,,,,,,,,,,,,,,,,,,,,,,,,,,,,,,,,,,,,,,,,,,,,,,,,,,,,,,,,,,,,,,,,,,,,,,,,,,,,,,,,,,,,,,,,,,,,,,,,,,,,,,,,,,,,,,,,,,,,
,,,,,,6047099142558a1747f22b23,62c5398912f839c363f3eea7,2022-07-06_24h28.25.803,Colour_Asymmetry_Pilot,2022.1.3,Win32,60.25548325,62c50e9c1127f2cd403a315f,0,92,92,1,1,onethree,,,,,,,,,,,,,,,,,,,,,,,,,,,,,,,,,,,,,,,,,,,,,,,,,,,,,,,,,,,,,,,,,,,,,,,,,,,,,,,,,,,,,,,,,,,,,,,,,,,,,,,,,,,,,,,,,,,,,,,,,,,,,,,,,,,,,,,,,,,,,,,,,,,,,,,,,,,,,
,,,,,,6047099142558a1747f22b23,62c5398912f839c363f3eea7,2022-07-06_24h28.25.803,Colour_Asymmetry_Pilot,2022.1.3,Win32,60.25548325,62c50e9c1127f2cd403a315f,0,93,93,66,1,twoone,,,,,,,,,,,,,,,,,,,,,,,,,,,,,,,,,,,,,,,,,,,,,,,,,,,,,,,,,,,,,,,,,,,,,,,,,,,,,,,,,,,,,,,,,,,,,,,,,,,,,,,,,,,,,,,,,,,,,,,,,,,,,,,,,,,,,,,,,,,,,,,,,,,,,,,,,,,,,
,,,,,,6047099142558a1747f22b23,62c5398912f839c363f3eea7,2022-07-06_24h28.25.803,Colour_Asymmetry_Pilot,2022.1.3,Win32,60.25548325,62c50e9c1127f2cd403a315f,0,94,94,25,1,onethree,,,,,,,,,,,,,,,,,,,,,,,,,,,,,,,,,,,,,,,,,,,,,,,,,,,,,,,,,,,,,,,,,,,,,,,,,,,,,,,,,,,,,,,,,,,,,,,,,,,,,,,,,,,,,,,,,,,,,,,,,,,,,,,,,,,,,,,,,,,,,,,,,,,,,,,,,,,,,
,,,,,,6047099142558a1747f22b23,62c5398912f839c363f3eea7,2022-07-06_24h28.25.803,Colour_Asymmetry_Pilot,2022.1.3,Win32,60.25548325,62c50e9c1127f2cd403a315f,0,95,95,126,1,fourtwo,,,,,,,,,,,,,,,,,,,,,,,,,,,,,,,,,,,,,,,,,,,,,,,,,,,,,,,,,,,,,,,,,,,,,,,,,,,,,,,,,,,,,,,,,,,,,,,,,,,,,,,,,,,,,,,,,,,,,,,,,,,,,,,,,,,,,,,,,,,,,,,,,,,,,,,,,,,,,
,,,,,,6047099142558a1747f22b23,62c5398912f839c363f3eea7,2022-07-06_24h28.25.803,Colour_Asymmetry_Pilot,2022.1.3,Win32,60.25548325,62c50e9c1127f2cd403a315f,0,96,96,121,1,onethree,,,,,,,,,,,,,,,,,,,,,,,,,,,,,,,,,,,,,,,,,,,,,,,,,,,,,,,,,,,,,,,,,,,,,,,,,,,,,,,,,,,,,,,,,,,,,,,,,,,,,,,,,,,,,,,,,,,,,,,,,,,,,,,,,,,,,,,,,,,,,,,,,,,,,,,,,,,,,
,,,,,,6047099142558a1747f22b23,62c5398912f839c363f3eea7,2022-07-06_24h28.25.803,Colour_Asymmetry_Pilot,2022.1.3,Win32,60.25548325,62c50e9c1127f2cd403a315f,0,97,97,148,1,threeone,,,,,,,,,,,,,,,,,,,,,,,,,,,,,,,,,,,,,,,,,,,,,,,,,,,,,,,,,,,,,,,,,,,,,,,,,,,,,,,,,,,,,,,,,,,,,,,,,,,,,,,,,,,,,,,,,,,,,,,,,,,,,,,,,,,,,,,,,,,,,,,,,,,,,,,,,,,,,
,,,,,,6047099142558a1747f22b23,62c5398912f839c363f3eea7,2022-07-06_24h28.25.803,Colour_Asymmetry_Pilot,2022.1.3,Win32,60.25548325,62c50e9c1127f2cd403a315f,0,98,98,22,1,fourtwo,,,,,,,,,,,,,,,,,,,,,,,,,,,,,,,,,,,,,,,,,,,,,,,,,,,,,,,,,,,,,,,,,,,,,,,,,,,,,,,,,,,,,,,,,,,,,,,,,,,,,,,,,,,,,,,,,,,,,,,,,,,,,,,,,,,,,,,,,,,,,,,,,,,,,,,,,,,,,
,,,,,,6047099142558a1747f22b23,62c5398912f839c363f3eea7,2022-07-06_24h28.25.803,Colour_Asymmetry_Pilot,2022.1.3,Win32,60.25548325,62c50e9c1127f2cd403a315f,0,99,99,131,1,twofour,,,,,,,,,,,,,,,,,,,,,,,,,,,,,,,,,,,,,,,,,,,,,,,,,,,,,,,,,,,,,,,,,,,,,,,,,,,,,,,,,,,,,,,,,,,,,,,,,,,,,,,,,,,,,,,,,,,,,,,,,,,,,,,,,,,,,,,,,,,,,,,,,,,,,,,,,,,,,
,,,,,,6047099142558a1747f22b23,62c5398912f839c363f3eea7,2022-07-06_24h28.25.803,Colour_Asymmetry_Pilot,2022.1.3,Win32,60.25548325,62c50e9c1127f2cd403a315f,0,100,100,115,1,twofour,,,,,,,,,,,,,,,,,,,,,,,,,,,,,,,,,,,,,,,,,,,,,,,,,,,,,,,,,,,,,,,,,,,,,,,,,,,,,,,,,,,,,,,,,,,,,,,,,,,,,,,,,,,,,,,,,,,,,,,,,,,,,,,,,,,,,,,,,,,,,,,,,,,,,,,,,,,,,
,,,,,,6047099142558a1747f22b23,62c5398912f839c363f3eea7,2022-07-06_24h28.25.803,Colour_Asymmetry_Pilot,2022.1.3,Win32,60.25548325,62c50e9c1127f2cd403a315f,0,101,101,35,1,twofour,,,,,,,,,,,,,,,,,,,,,,,,,,,,,,,,,,,,,,,,,,,,,,,,,,,,,,,,,,,,,,,,,,,,,,,,,,,,,,,,,,,,,,,,,,,,,,,,,,,,,,,,,,,,,,,,,,,,,,,,,,,,,,,,,,,,,,,,,,,,,,,,,,,,,,,,,,,,,
,,,,,,6047099142558a1747f22b23,62c5398912f839c363f3eea7,2022-07-06_24h28.25.803,Colour_Asymmetry_Pilot,2022.1.3,Win32,60.25548325,62c50e9c1127f2cd403a315f,0,102,102,24,1,onetwo,,,,,,,,,,,,,,,,,,,,,,,,,,,,,,,,,,,,,,,,,,,,,,,,,,,,,,,,,,,,,,,,,,,,,,,,,,,,,,,,,,,,,,,,,,,,,,,,,,,,,,,,,,,,,,,,,,,,,,,,,,,,,,,,,,,,,,,,,,,,,,,,,,,,,,,,,,,,,
,,,,,,6047099142558a1747f22b23,62c5398912f839c363f3eea7,2022-07-06_24h28.25.803,Colour_Asymmetry_Pilot,2022.1.3,Win32,60.25548325,62c50e9c1127f2cd403a315f,0,103,103,100,1,threeone,,,,,,,,,,,,,,,,,,,,,,,,,,,,,,,,,,,,,,,,,,,,,,,,,,,,,,,,,,,,,,,,,,,,,,,,,,,,,,,,,,,,,,,,,,,,,,,,,,,,,,,,,,,,,,,,,,,,,,,,,,,,,,,,,,,,,,,,,,,,,,,,,,,,,,,,,,,,,
,,,,,,6047099142558a1747f22b23,62c5398912f839c363f3eea7,2022-07-06_24h28.25.803,Colour_Asymmetry_Pilot,2022.1.3,Win32,60.25548325,62c50e9c1127f2cd403a315f,0,104,104,65,1,onethree,,,,,,,,,,,,,,,,,,,,,,,,,,,,,,,,,,,,,,,,,,,,,,,,,,,,,,,,,,,,,,,,,,,,,,,,,,,,,,,,,,,,,,,,,,,,,,,,,,,,,,,,,,,,,,,,,,,,,,,,,,,,,,,,,,,,,,,,,,,,,,,,,,,,,,,,,,,,,
,,,,,,6047099142558a1747f22b23,62c5398912f839c363f3eea7,2022-07-06_24h28.25.803,Colour_Asymmetry_Pilot,2022.1.3,Win32,60.25548325,62c50e9c1127f2cd403a315f,0,105,105,156,1,threeone,,,,,,,,,,,,,,,,,,,,,,,,,,,,,,,,,,,,,,,,,,,,,,,,,,,,,,,,,,,,,,,,,,,,,,,,,,,,,,,,,,,,,,,,,,,,,,,,,,,,,,,,,,,,,,,,,,,,,,,,,,,,,,,,,,,,,,,,,,,,,,,,,,,,,,,,,,,,,
,,,,,,6047099142558a1747f22b23,62c5398912f839c363f3eea7,2022-07-06_24h28.25.803,Colour_Asymmetry_Pilot,2022.1.3,Win32,60.25548325,62c50e9c1127f2cd403a315f,0,106,106,154,1,twoone,,,,,,,,,,,,,,,,,,,,,,,,,,,,,,,,,,,,,,,,,,,,,,,,,,,,,,,,,,,,,,,,,,,,,,,,,,,,,,,,,,,,,,,,,,,,,,,,,,,,,,,,,,,,,,,,,,,,,,,,,,,,,,,,,,,,,,,,,,,,,,,,,,,,,,,,,,,,,
,,,,,,6047099142558a1747f22b23,62c5398912f839c363f3eea7,2022-07-06_24h28.25.803,Colour_Asymmetry_Pilot,2022.1.3,Win32,60.25548325,62c50e9c1127f2cd403a315f,0,107,107,21,1,threefour,,,,,,,,,,,,,,,,,,,,,,,,,,,,,,,,,,,,,,,,,,,,,,,,,,,,,,,,,,,,,,,,,,,,,,,,,,,,,,,,,,,,,,,,,,,,,,,,,,,,,,,,,,,,,,,,,,,,,,,,,,,,,,,,,,,,,,,,,,,,,,,,,,,,,,,,,,,,,
,,,,,,6047099142558a1747f22b23,62c5398912f839c363f3eea7,2022-07-06_24h28.25.803,Colour_Asymmetry_Pilot,2022.1.3,Win32,60.25548325,62c50e9c1127f2cd403a315f,0,108,108,10,1,twoone,,,,,,,,,,,,,,,,,,,,,,,,,,,,,,,,,,,,,,,,,,,,,,,,,,,,,,,,,,,,,,,,,,,,,,,,,,,,,,,,,,,,,,,,,,,,,,,,,,,,,,,,,,,,,,,,,,,,,,,,,,,,,,,,,,,,,,,,,,,,,,,,,,,,,,,,,,,,,
,,,,,,6047099142558a1747f22b23,62c5398912f839c363f3eea7,2022-07-06_24h28.25.803,Colour_Asymmetry_Pilot,2022.1.3,Win32,60.25548325,62c50e9c1127f2cd403a315f,0,109,109,57,1,onethree,,,,,,,,,,,,,,,,,,,,,,,,,,,,,,,,,,,,,,,,,,,,,,,,,,,,,,,,,,,,,,,,,,,,,,,,,,,,,,,,,,,,,,,,,,,,,,,,,,,,,,,,,,,,,,,,,,,,,,,,,,,,,,,,,,,,,,,,,,,,,,,,,,,,,,,,,,,,,
,,,,,,6047099142558a1747f22b23,62c5398912f839c363f3eea7,2022-07-06_24h28.25.803,Colour_Asymmetry_Pilot,2022.1.3,Win32,60.25548325,62c50e9c1127f2cd403a315f,0,110,110,73,1,onethree,,,,,,,,,,,,,,,,,,,,,,,,,,,,,,,,,,,,,,,,,,,,,,,,,,,,,,,,,,,,,,,,,,,,,,,,,,,,,,,,,,,,,,,,,,,,,,,,,,,,,,,,,,,,,,,,,,,,,,,,,,,,,,,,,,,,,,,,,,,,,,,,,,,,,,,,,,,,,
,,,,,,6047099142558a1747f22b23,62c5398912f839c363f3eea7,2022-07-06_24h28.25.803,Colour_Asymmetry_Pilot,2022.1.3,Win32,60.25548325,62c50e9c1127f2cd403a315f,0,111,111,69,1,threefour,,,,,,,,,,,,,,,,,,,,,,,,,,,,,,,,,,,,,,,,,,,,,,,,,,,,,,,,,,,,,,,,,,,,,,,,,,,,,,,,,,,,,,,,,,,,,,,,,,,,,,,,,,,,,,,,,,,,,,,,,,,,,,,,,,,,,,,,,,,,,,,,,,,,,,,,,,,,,
,,,,,,6047099142558a1747f22b23,62c5398912f839c363f3eea7,2022-07-06_24h28.25.803,Colour_Asymmetry_Pilot,2022.1.3,Win32,60.25548325,62c50e9c1127f2cd403a315f,0,112,112,91,1,twofour,,,,,,,,,,,,,,,,,,,,,,,,,,,,,,,,,,,,,,,,,,,,,,,,,,,,,,,,,,,,,,,,,,,,,,,,,,,,,,,,,,,,,,,,,,,,,,,,,,,,,,,,,,,,,,,,,,,,,,,,,,,,,,,,,,,,,,,,,,,,,,,,,,,,,,,,,,,,,
,,,,,,6047099142558a1747f22b23,62c5398912f839c363f3eea7,2022-07-06_24h28.25.803,Colour_Asymmetry_Pilot,2022.1.3,Win32,60.25548325,62c50e9c1127f2cd403a315f,0,113,113,136,1,onetwo,,,,,,,,,,,,,,,,,,,,,,,,,,,,,,,,,,,,,,,,,,,,,,,,,,,,,,,,,,,,,,,,,,,,,,,,,,,,,,,,,,,,,,,,,,,,,,,,,,,,,,,,,,,,,,,,,,,,,,,,,,,,,,,,,,,,,,,,,,,,,,,,,,,,,,,,,,,,,
,,,,,,6047099142558a1747f22b23,62c5398912f839c363f3eea7,2022-07-06_24h28.25.803,Colour_Asymmetry_Pilot,2022.1.3,Win32,60.25548325,62c50e9c1127f2cd403a315f,0,114,114,118,1,fourtwo,,,,,,,,,,,,,,,,,,,,,,,,,,,,,,,,,,,,,,,,,,,,,,,,,,,,,,,,,,,,,,,,,,,,,,,,,,,,,,,,,,,,,,,,,,,,,,,,,,,,,,,,,,,,,,,,,,,,,,,,,,,,,,,,,,,,,,,,,,,,,,,,,,,,,,,,,,,,,
,,,,,,6047099142558a1747f22b23,62c5398912f839c363f3eea7,2022-07-06_24h28.25.803,Colour_Asymmetry_Pilot,2022.1.3,Win32,60.25548325,62c50e9c1127f2cd403a315f,0,115,115,43,1,twofour,,,,,,,,,,,,,,,,,,,,,,,,,,,,,,,,,,,,,,,,,,,,,,,,,,,,,,,,,,,,,,,,,,,,,,,,,,,,,,,,,,,,,,,,,,,,,,,,,,,,,,,,,,,,,,,,,,,,,,,,,,,,,,,,,,,,,,,,,,,,,,,,,,,,,,,,,,,,,
,,,,,,6047099142558a1747f22b23,62c5398912f839c363f3eea7,2022-07-06_24h28.25.803,Colour_Asymmetry_Pilot,2022.1.3,Win32,60.25548325,62c50e9c1127f2cd403a315f,0,116,116,125,1,threefour,,,,,,,,,,,,,,,,,,,,,,,,,,,,,,,,,,,,,,,,,,,,,,,,,,,,,,,,,,,,,,,,,,,,,,,,,,,,,,,,,,,,,,,,,,,,,,,,,,,,,,,,,,,,,,,,,,,,,,,,,,,,,,,,,,,,,,,,,,,,,,,,,,,,,,,,,,,,,
,,,,,,6047099142558a1747f22b23,62c5398912f839c363f3eea7,2022-07-06_24h28.25.803,Colour_Asymmetry_Pilot,2022.1.3,Win32,60.25548325,62c50e9c1127f2cd403a315f,0,117,117,99,1,twofour,,,,,,,,,,,,,,,,,,,,,,,,,,,,,,,,,,,,,,,,,,,,,,,,,,,,,,,,,,,,,,,,,,,,,,,,,,,,,,,,,,,,,,,,,,,,,,,,,,,,,,,,,,,,,,,,,,,,,,,,,,,,,,,,,,,,,,,,,,,,,,,,,,,,,,,,,,,,,
,,,,,,6047099142558a1747f22b23,62c5398912f839c363f3eea7,2022-07-06_24h28.25.803,Colour_Asymmetry_Pilot,2022.1.3,Win32,60.25548325,62c50e9c1127f2cd403a315f,0,118,118,50,1,twoone,,,,,,,,,,,,,,,,,,,,,,,,,,,,,,,,,,,,,,,,,,,,,,,,,,,,,,,,,,,,,,,,,,,,,,,,,,,,,,,,,,,,,,,,,,,,,,,,,,,,,,,,,,,,,,,,,,,,,,,,,,,,,,,,,,,,,,,,,,,,,,,,,,,,,,,,,,,,,
,,,,,,6047099142558a1747f22b23,62c5398912f839c363f3eea7,2022-07-06_24h28.25.803,Colour_Asymmetry_Pilot,2022.1.3,Win32,60.25548325,62c50e9c1127f2cd403a315f,0,119,119,16,1,onetwo,,,,,,,,,,,,,,,,,,,,,,,,,,,,,,,,,,,,,,,,,,,,,,,,,,,,,,,,,,,,,,,,,,,,,,,,,,,,,,,,,,,,,,,,,,,,,,,,,,,,,,,,,,,,,,,,,,,,,,,,,,,,,,,,,,,,,,,,,,,,,,,,,,,,,,,,,,,,,
,,,,,,6047099142558a1747f22b23,62c5398912f839c363f3eea7,2022-07-06_24h28.25.803,Colour_Asymmetry_Pilot,2022.1.3,Win32,60.25548325,62c50e9c1127f2cd403a315f,0,120,120,4,1,threeone,,,,,,,,,,,,,,,,,,,,,,,,,,,,,,,,,,,,,,,,,,,,,,,,,,,,,,,,,,,,,,,,,,,,,,,,,,,,,,,,,,,,,,,,,,,,,,,,,,,,,,,,,,,,,,,,,,,,,,,,,,,,,,,,,,,,,,,,,,,,,,,,,,,,,,,,,,,,,
,,,,,,6047099142558a1747f22b23,62c5398912f839c363f3eea7,2022-07-06_24h28.25.803,Colour_Asymmetry_Pilot,2022.1.3,Win32,60.25548325,62c50e9c1127f2cd403a315f,0,121,121,83,1,twofour,,,,,,,,,,,,,,,,,,,,,,,,,,,,,,,,,,,,,,,,,,,,,,,,,,,,,,,,,,,,,,,,,,,,,,,,,,,,,,,,,,,,,,,,,,,,,,,,,,,,,,,,,,,,,,,,,,,,,,,,,,,,,,,,,,,,,,,,,,,,,,,,,,,,,,,,,,,,,
,,,,,,6047099142558a1747f22b23,62c5398912f839c363f3eea7,2022-07-06_24h28.25.803,Colour_Asymmetry_Pilot,2022.1.3,Win32,60.25548325,62c50e9c1127f2cd403a315f,0,122,122,124,1,threeone,,,,,,,,,,,,,,,,,,,,,,,,,,,,,,,,,,,,,,,,,,,,,,,,,,,,,,,,,,,,,,,,,,,,,,,,,,,,,,,,,,,,,,,,,,,,,,,,,,,,,,,,,,,,,,,,,,,,,,,,,,,,,,,,,,,,,,,,,,,,,,,,,,,,,,,,,,,,,
,,,,,,6047099142558a1747f22b23,62c5398912f839c363f3eea7,2022-07-06_24h28.25.803,Colour_Asymmetry_Pilot,2022.1.3,Win32,60.25548325,62c50e9c1127f2cd403a315f,0,123,123,120,1,onetwo,,,,,,,,,,,,,,,,,,,,,,,,,,,,,,,,,,,,,,,,,,,,,,,,,,,,,,,,,,,,,,,,,,,,,,,,,,,,,,,,,,,,,,,,,,,,,,,,,,,,,,,,,,,,,,,,,,,,,,,,,,,,,,,,,,,,,,,,,,,,,,,,,,,,,,,,,,,,,
,,,,,,6047099142558a1747f22b23,62c5398912f839c363f3eea7,2022-07-06_24h28.25.803,Colour_Asymmetry_Pilot,2022.1.3,Win32,60.25548325,62c50e9c1127f2cd403a315f,0,124,124,76,1,threeone,,,,,,,,,,,,,,,,,,,,,,,,,,,,,,,,,,,,,,,,,,,,,,,,,,,,,,,,,,,,,,,,,,,,,,,,,,,,,,,,,,,,,,,,,,,,,,,,,,,,,,,,,,,,,,,,,,,,,,,,,,,,,,,,,,,,,,,,,,,,,,,,,,,,,,,,,,,,,
,,,,,,6047099142558a1747f22b23,62c5398912f839c363f3eea7,2022-07-06_24h28.25.803,Colour_Asymmetry_Pilot,2022.1.3,Win32,60.25548325,62c50e9c1127f2cd403a315f,0,125,125,128,1,onetwo,,,,,,,,,,,,,,,,,,,,,,,,,,,,,,,,,,,,,,,,,,,,,,,,,,,,,,,,,,,,,,,,,,,,,,,,,,,,,,,,,,,,,,,,,,,,,,,,,,,,,,,,,,,,,,,,,,,,,,,,,,,,,,,,,,,,,,,,,,,,,,,,,,,,,,,,,,,,,
,,,,,,6047099142558a1747f22b23,62c5398912f839c363f3eea7,2022-07-06_24h28.25.803,Colour_Asymmetry_Pilot,2022.1.3,Win32,60.25548325,62c50e9c1127f2cd403a315f,0,126,126,9,1,onethree,,,,,,,,,,,,,,,,,,,,,,,,,,,,,,,,,,,,,,,,,,,,,,,,,,,,,,,,,,,,,,,,,,,,,,,,,,,,,,,,,,,,,,,,,,,,,,,,,,,,,,,,,,,,,,,,,,,,,,,,,,,,,,,,,,,,,,,,,,,,,,,,,,,,,,,,,,,,,
,,,,,,6047099142558a1747f22b23,62c5398912f839c363f3eea7,2022-07-06_24h28.25.803,Colour_Asymmetry_Pilot,2022.1.3,Win32,60.25548325,62c50e9c1127f2cd403a315f,0,127,127,82,1,twoone,,,,,,,,,,,,,,,,,,,,,,,,,,,,,,,,,,,,,,,,,,,,,,,,,,,,,,,,,,,,,,,,,,,,,,,,,,,,,,,,,,,,,,,,,,,,,,,,,,,,,,,,,,,,,,,,,,,,,,,,,,,,,,,,,,,,,,,,,,,,,,,,,,,,,,,,,,,,,
,,,,,,6047099142558a1747f22b23,62c5398912f839c363f3eea7,2022-07-06_24h28.25.803,Colour_Asymmetry_Pilot,2022.1.3,Win32,60.25548325,62c50e9c1127f2cd403a315f,0,128,128,140,1,threeone,,,,,,,,,,,,,,,,,,,,,,,,,,,,,,,,,,,,,,,,,,,,,,,,,,,,,,,,,,,,,,,,,,,,,,,,,,,,,,,,,,,,,,,,,,,,,,,,,,,,,,,,,,,,,,,,,,,,,,,,,,,,,,,,,,,,,,,,,,,,,,,,,,,,,,,,,,,,,
,,,,,,6047099142558a1747f22b23,62c5398912f839c363f3eea7,2022-07-06_24h28.25.803,Colour_Asymmetry_Pilot,2022.1.3,Win32,60.25548325,62c50e9c1127f2cd403a315f,0,129,129,114,1,twoone,,,,,,,,,,,,,,,,,,,,,,,,,,,,,,,,,,,,,,,,,,,,,,,,,,,,,,,,,,,,,,,,,,,,,,,,,,,,,,,,,,,,,,,,,,,,,,,,,,,,,,,,,,,,,,,,,,,,,,,,,,,,,,,,,,,,,,,,,,,,,,,,,,,,,,,,,,,,,
,,,,,,6047099142558a1747f22b23,62c5398912f839c363f3eea7,2022-07-06_24h28.25.803,Colour_Asymmetry_Pilot,2022.1.3,Win32,60.25548325,62c50e9c1127f2cd403a315f,0,130,130,37,1,threefour,,,,,,,,,,,,,,,,,,,,,,,,,,,,,,,,,,,,,,,,,,,,,,,,,,,,,,,,,,,,,,,,,,,,,,,,,,,,,,,,,,,,,,,,,,,,,,,,,,,,,,,,,,,,,,,,,,,,,,,,,,,,,,,,,,,,,,,,,,,,,,,,,,,,,,,,,,,,,
,,,,,,6047099142558a1747f22b23,62c5398912f839c363f3eea7,2022-07-06_24h28.25.803,Colour_Asymmetry_Pilot,2022.1.3,Win32,60.25548325,62c50e9c1127f2cd403a315f,0,131,131,41,1,onethree,,,,,,,,,,,,,,,,,,,,,,,,,,,,,,,,,,,,,,,,,,,,,,,,,,,,,,,,,,,,,,,,,,,,,,,,,,,,,,,,,,,,,,,,,,,,,,,,,,,,,,,,,,,,,,,,,,,,,,,,,,,,,,,,,,,,,,,,,,,,,,,,,,,,,,,,,,,,,
,,,,,,6047099142558a1747f22b23,62c5398912f839c363f3eea7,2022-07-06_24h28.25.803,Colour_Asymmetry_Pilot,2022.1.3,Win32,60.25548325,62c50e9c1127f2cd403a315f,0,132,132,47,1,fourthree,,,,,,,,,,,,,,,,,,,,,,,,,,,,,,,,,,,,,,,,,,,,,,,,,,,,,,,,,,,,,,,,,,,,,,,,,,,,,,,,,,,,,,,,,,,,,,,,,,,,,,,,,,,,,,,,,,,,,,,,,,,,,,,,,,,,,,,,,,,,,,,,,,,,,,,,,,,,,
,,,,,,6047099142558a1747f22b23,62c5398912f839c363f3eea7,2022-07-06_24h28.25.803,Colour_Asymmetry_Pilot,2022.1.3,Win32,60.25548325,62c50e9c1127f2cd403a315f,0,133,133,117,1,threefour,,,,,,,,,,,,,,,,,,,,,,,,,,,,,,,,,,,,,,,,,,,,,,,,,,,,,,,,,,,,,,,,,,,,,,,,,,,,,,,,,,,,,,,,,,,,,,,,,,,,,,,,,,,,,,,,,,,,,,,,,,,,,,,,,,,,,,,,,,,,,,,,,,,,,,,,,,,,,
,,,,,,6047099142558a1747f22b23,62c5398912f839c363f3eea7,2022-07-06_24h28.25.803,Colour_Asymmetry_Pilot,2022.1.3,Win32,60.25548325,62c50e9c1127f2cd403a315f,0,134,134,12,1,threeone,,,,,,,,,,,,,,,,,,,,,,,,,,,,,,,,,,,,,,,,,,,,,,,,,,,,,,,,,,,,,,,,,,,,,,,,,,,,,,,,,,,,,,,,,,,,,,,,,,,,,,,,,,,,,,,,,,,,,,,,,,,,,,,,,,,,,,,,,,,,,,,,,,,,,,,,,,,,,
,,,,,,6047099142558a1747f22b23,62c5398912f839c363f3eea7,2022-07-06_24h28.25.803,Colour_Asymmetry_Pilot,2022.1.3,Win32,60.25548325,62c50e9c1127f2cd403a315f,0,135,135,135,1,fourthree,,,,,,,,,,,,,,,,,,,,,,,,,,,,,,,,,,,,,,,,,,,,,,,,,,,,,,,,,,,,,,,,,,,,,,,,,,,,,,,,,,,,,,,,,,,,,,,,,,,,,,,,,,,,,,,,,,,,,,,,,,,,,,,,,,,,,,,,,,,,,,,,,,,,,,,,,,,,,
,,,,,,6047099142558a1747f22b23,62c5398912f839c363f3eea7,2022-07-06_24h28.25.803,Colour_Asymmetry_Pilot,2022.1.3,Win32,60.25548325,62c50e9c1127f2cd403a315f,0,136,136,56,1,onetwo,,,,,,,,,,,,,,,,,,,,,,,,,,,,,,,,,,,,,,,,,,,,,,,,,,,,,,,,,,,,,,,,,,,,,,,,,,,,,,,,,,,,,,,,,,,,,,,,,,,,,,,,,,,,,,,,,,,,,,,,,,,,,,,,,,,,,,,,,,,,,,,,,,,,,,,,,,,,,
,,,,,,6047099142558a1747f22b23,62c5398912f839c363f3eea7,2022-07-06_24h28.25.803,Colour_Asymmetry_Pilot,2022.1.3,Win32,60.25548325,62c50e9c1127f2cd403a315f,0,137,137,90,1,twoone,,,,,,,,,,,,,,,,,,,,,,,,,,,,,,,,,,,,,,,,,,,,,,,,,,,,,,,,,,,,,,,,,,,,,,,,,,,,,,,,,,,,,,,,,,,,,,,,,,,,,,,,,,,,,,,,,,,,,,,,,,,,,,,,,,,,,,,,,,,,,,,,,,,,,,,,,,,,,
,,,,,,6047099142558a1747f22b23,62c5398912f839c363f3eea7,2022-07-06_24h28.25.803,Colour_Asymmetry_Pilot,2022.1.3,Win32,60.25548325,62c50e9c1127f2cd403a315f,0,138,138,78,1,fourtwo,,,,,,,,,,,,,,,,,,,,,,,,,,,,,,,,,,,,,,,,,,,,,,,,,,,,,,,,,,,,,,,,,,,,,,,,,,,,,,,,,,,,,,,,,,,,,,,,,,,,,,,,,,,,,,,,,,,,,,,,,,,,,,,,,,,,,,,,,,,,,,,,,,,,,,,,,,,,,
,,,,,,6047099142558a1747f22b23,62c5398912f839c363f3eea7,2022-07-06_24h28.25.803,Colour_Asymmetry_Pilot,2022.1.3,Win32,60.25548325,62c50e9c1127f2cd403a315f,0,139,139,80,1,onetwo,,,,,,,,,,,,,,,,,,,,,,,,,,,,,,,,,,,,,,,,,,,,,,,,,,,,,,,,,,,,,,,,,,,,,,,,,,,,,,,,,,,,,,,,,,,,,,,,,,,,,,,,,,,,,,,,,,,,,,,,,,,,,,,,,,,,,,,,,,,,,,,,,,,,,,,,,,,,,
,,,,,,6047099142558a1747f22b23,62c5398912f839c363f3eea7,2022-07-06_24h28.25.803,Colour_Asymmetry_Pilot,2022.1.3,Win32,60.25548325,62c50e9c1127f2cd403a315f,0,140,140,122,1,twoone,,,,,,,,,,,,,,,,,,,,,,,,,,,,,,,,,,,,,,,,,,,,,,,,,,,,,,,,,,,,,,,,,,,,,,,,,,,,,,,,,,,,,,,,,,,,,,,,,,,,,,,,,,,,,,,,,,,,,,,,,,,,,,,,,,,,,,,,,,,,,,,,,,,,,,,,,,,,,
,,,,,,6047099142558a1747f22b23,62c5398912f839c363f3eea7,2022-07-06_24h28.25.803,Colour_Asymmetry_Pilot,2022.1.3,Win32,60.25548325,62c50e9c1127f2cd403a315f,0,141,141,138,1,twoone,,,,,,,,,,,,,,,,,,,,,,,,,,,,,,,,,,,,,,,,,,,,,,,,,,,,,,,,,,,,,,,,,,,,,,,,,,,,,,,,,,,,,,,,,,,,,,,,,,,,,,,,,,,,,,,,,,,,,,,,,,,,,,,,,,,,,,,,,,,,,,,,,,,,,,,,,,,,,
,,,,,,6047099142558a1747f22b23,62c5398912f839c363f3eea7,2022-07-06_24h28.25.803,Colour_Asymmetry_Pilot,2022.1.3,Win32,60.25548325,62c50e9c1127f2cd403a315f,0,142,142,31,1,fourthree,,,,,,,,,,,,,,,,,,,,,,,,,,,,,,,,,,,,,,,,,,,,,,,,,,,,,,,,,,,,,,,,,,,,,,,,,,,,,,,,,,,,,,,,,,,,,,,,,,,,,,,,,,,,,,,,,,,,,,,,,,,,,,,,,,,,,,,,,,,,,,,,,,,,,,,,,,,,,
,,,,,,6047099142558a1747f22b23,62c5398912f839c363f3eea7,2022-07-06_24h28.25.803,Colour_Asymmetry_Pilot,2022.1.3,Win32,60.25548325,62c50e9c1127f2cd403a315f,0,143,143,61,1,threefour,,,,,,,,,,,,,,,,,,,,,,,,,,,,,,,,,,,,,,,,,,,,,,,,,,,,,,,,,,,,,,,,,,,,,,,,,,,,,,,,,,,,,,,,,,,,,,,,,,,,,,,,,,,,,,,,,,,,,,,,,,,,,,,,,,,,,,,,,,,,,,,,,,,,,,,,,,,,,
,,,,,,6047099142558a1747f22b23,62c5398912f839c363f3eea7,2022-07-06_24h28.25.803,Colour_Asymmetry_Pilot,2022.1.3,Win32,60.25548325,62c50e9c1127f2cd403a315f,0,144,144,144,1,onetwo,,,,,,,,,,,,,,,,,,,,,,,,,,,,,,,,,,,,,,,,,,,,,,,,,,,,,,,,,,,,,,,,,,,,,,,,,,,,,,,,,,,,,,,,,,,,,,,,,,,,,,,,,,,,,,,,,,,,,,,,,,,,,,,,,,,,,,,,,,,,,,,,,,,,,,,,,,,,,
,,,,,,6047099142558a1747f22b23,62c5398912f839c363f3eea7,2022-07-06_24h28.25.803,Colour_Asymmetry_Pilot,2022.1.3,Win32,60.25548325,62c50e9c1127f2cd403a315f,0,145,145,27,1,twofour,,,,,,,,,,,,,,,,,,,,,,,,,,,,,,,,,,,,,,,,,,,,,,,,,,,,,,,,,,,,,,,,,,,,,,,,,,,,,,,,,,,,,,,,,,,,,,,,,,,,,,,,,,,,,,,,,,,,,,,,,,,,,,,,,,,,,,,,,,,,,,,,,,,,,,,,,,,,,
,,,,,,6047099142558a1747f22b23,62c5398912f839c363f3eea7,2022-07-06_24h28.25.803,Colour_Asymmetry_Pilot,2022.1.3,Win32,60.25548325,62c50e9c1127f2cd403a315f,0,146,146,108,1,threeone,,,,,,,,,,,,,,,,,,,,,,,,,,,,,,,,,,,,,,,,,,,,,,,,,,,,,,,,,,,,,,,,,,,,,,,,,,,,,,,,,,,,,,,,,,,,,,,,,,,,,,,,,,,,,,,,,,,,,,,,,,,,,,,,,,,,,,,,,,,,,,,,,,,,,,,,,,,,,
,,,,,,6047099142558a1747f22b23,62c5398912f839c363f3eea7,2022-07-06_24h28.25.803,Colour_Asymmetry_Pilot,2022.1.3,Win32,60.25548325,62c50e9c1127f2cd403a315f,0,147,147,74,1,twoone,,,,,,,,,,,,,,,,,,,,,,,,,,,,,,,,,,,,,,,,,,,,,,,,,,,,,,,,,,,,,,,,,,,,,,,,,,,,,,,,,,,,,,,,,,,,,,,,,,,,,,,,,,,,,,,,,,,,,,,,,,,,,,,,,,,,,,,,,,,,,,,,,,,,,,,,,,,,,
,,,,,,6047099142558a1747f22b23,62c5398912f839c363f3eea7,2022-07-06_24h28.25.803,Colour_Asymmetry_Pilot,2022.1.3,Win32,60.25548325,62c50e9c1127f2cd403a315f,0,148,148,149,1,threefour,,,,,,,,,,,,,,,,,,,,,,,,,,,,,,,,,,,,,,,,,,,,,,,,,,,,,,,,,,,,,,,,,,,,,,,,,,,,,,,,,,,,,,,,,,,,,,,,,,,,,,,,,,,,,,,,,,,,,,,,,,,,,,,,,,,,,,,,,,,,,,,,,,,,,,,,,,,,,
,,,,,,6047099142558a1747f22b23,62c5398912f839c363f3eea7,2022-07-06_24h28.25.803,Colour_Asymmetry_Pilot,2022.1.3,Win32,60.25548325,62c50e9c1127f2cd403a315f,0,149,149,26,1,twoone,,,,,,,,,,,,,,,,,,,,,,,,,,,,,,,,,,,,,,,,,,,,,,,,,,,,,,,,,,,,,,,,,,,,,,,,,,,,,,,,,,,,,,,,,,,,,,,,,,,,,,,,,,,,,,,,,,,,,,,,,,,,,,,,,,,,,,,,,,,,,,,,,,,,,,,,,,,,,
,,,,,,6047099142558a1747f22b23,62c5398912f839c363f3eea7,2022-07-06_24h28.25.803,Colour_Asymmetry_Pilot,2022.1.3,Win32,60.25548325,62c50e9c1127f2cd403a315f,0,150,150,141,1,threefour,,,,,,,,,,,,,,,,,,,,,,,,,,,,,,,,,,,,,,,,,,,,,,,,,,,,,,,,,,,,,,,,,,,,,,,,,,,,,,,,,,,,,,,,,,,,,,,,,,,,,,,,,,,,,,,,,,,,,,,,,,,,,,,,,,,,,,,,,,,,,,,,,,,,,,,,,,,,,
,,,,,,6047099142558a1747f22b23,62c5398912f839c363f3eea7,2022-07-06_24h28.25.803,Colour_Asymmetry_Pilot,2022.1.3,Win32,60.25548325,62c50e9c1127f2cd403a315f,0,151,151,29,1,threefour,,,,,,,,,,,,,,,,,,,,,,,,,,,,,,,,,,,,,,,,,,,,,,,,,,,,,,,,,,,,,,,,,,,,,,,,,,,,,,,,,,,,,,,,,,,,,,,,,,,,,,,,,,,,,,,,,,,,,,,,,,,,,,,,,,,,,,,,,,,,,,,,,,,,,,,,,,,,,
,,,,,,6047099142558a1747f22b23,62c5398912f839c363f3eea7,2022-07-06_24h28.25.803,Colour_Asymmetry_Pilot,2022.1.3,Win32,60.25548325,62c50e9c1127f2cd403a315f,0,152,152,139,1,twofour,,,,,,,,,,,,,,,,,,,,,,,,,,,,,,,,,,,,,,,,,,,,,,,,,,,,,,,,,,,,,,,,,,,,,,,,,,,,,,,,,,,,,,,,,,,,,,,,,,,,,,,,,,,,,,,,,,,,,,,,,,,,,,,,,,,,,,,,,,,,,,,,,,,,,,,,,,,,,
,,,,,,6047099142558a1747f22b23,62c5398912f839c363f3eea7,2022-07-06_24h28.25.803,Colour_Asymmetry_Pilot,2022.1.3,Win32,60.25548325,62c50e9c1127f2cd403a315f,0,153,153,92,1,threeone,,,,,,,,,,,,,,,,,,,,,,,,,,,,,,,,,,,,,,,,,,,,,,,,,,,,,,,,,,,,,,,,,,,,,,,,,,,,,,,,,,,,,,,,,,,,,,,,,,,,,,,,,,,,,,,,,,,,,,,,,,,,,,,,,,,,,,,,,,,,,,,,,,,,,,,,,,,,,
,,,,,,6047099142558a1747f22b23,62c5398912f839c363f3eea7,2022-07-06_24h28.25.803,Colour_Asymmetry_Pilot,2022.1.3,Win32,60.25548325,62c50e9c1127f2cd403a315f,0,154,154,88,1,onetwo,,,,,,,,,,,,,,,,,,,,,,,,,,,,,,,,,,,,,,,,,,,,,,,,,,,,,,,,,,,,,,,,,,,,,,,,,,,,,,,,,,,,,,,,,,,,,,,,,,,,,,,,,,,,,,,,,,,,,,,,,,,,,,,,,,,,,,,,,,,,,,,,,,,,,,,,,,,,,
,,,,,,6047099142558a1747f22b23,62c5398912f839c363f3eea7,2022-07-06_24h28.25.803,Colour_Asymmetry_Pilot,2022.1.3,Win32,60.25548325,62c50e9c1127f2cd403a315f,0,155,155,160,1,onetwo,,,,,,,,,,,,,,,,,,,,,,,,,,,,,,,,,,,,,,,,,,,,,,,,,,,,,,,,,,,,,,,,,,,,,,,,,,,,,,,,,,,,,,,,,,,,,,,,,,,,,,,,,,,,,,,,,,,,,,,,,,,,,,,,,,,,,,,,,,,,,,,,,,,,,,,,,,,,,
,,,,,,6047099142558a1747f22b23,62c5398912f839c363f3eea7,2022-07-06_24h28.25.803,Colour_Asymmetry_Pilot,2022.1.3,Win32,60.25548325,62c50e9c1127f2cd403a315f,0,156,156,54,1,fourtwo,,,,,,,,,,,,,,,,,,,,,,,,,,,,,,,,,,,,,,,,,,,,,,,,,,,,,,,,,,,,,,,,,,,,,,,,,,,,,,,,,,,,,,,,,,,,,,,,,,,,,,,,,,,,,,,,,,,,,,,,,,,,,,,,,,,,,,,,,,,,,,,,,,,,,,,,,,,,,
,,,,,,6047099142558a1747f22b23,62c5398912f839c363f3eea7,2022-07-06_24h28.25.803,Colour_Asymmetry_Pilot,2022.1.3,Win32,60.25548325,62c50e9c1127f2cd403a315f,0,157,157,20,1,threeone,,,,,,,,,,,,,,,,,,,,,,,,,,,,,,,,,,,,,,,,,,,,,,,,,,,,,,,,,,,,,,,,,,,,,,,,,,,,,,,,,,,,,,,,,,,,,,,,,,,,,,,,,,,,,,,,,,,,,,,,,,,,,,,,,,,,,,,,,,,,,,,,,,,,,,,,,,,,,
,,,,,,6047099142558a1747f22b23,62c5398912f839c363f3eea7,2022-07-06_24h28.25.803,Colour_Asymmetry_Pilot,2022.1.3,Win32,60.25548325,62c50e9c1127f2cd403a315f,0,158,158,153,1,onethree,,,,,,,,,,,,,,,,,,,,,,,,,,,,,,,,,,,,,,,,,,,,,,,,,,,,,,,,,,,,,,,,,,,,,,,,,,,,,,,,,,,,,,,,,,,,,,,,,,,,,,,,,,,,,,,,,,,,,,,,,,,,,,,,,,,,,,,,,,,,,,,,,,,,,,,,,,,,,
,,,,,,6047099142558a1747f22b23,62c5398912f839c363f3eea7,2022-07-06_24h28.25.803,Colour_Asymmetry_Pilot,2022.1.3,Win32,60.25548325,62c50e9c1127f2cd403a315f,0,159,159,3,1,twofour,,,,,,,,,,,,,,,,,,,,,,,,,,,,,,,,,,,,,,,,,,,,,,,,,,,,,,,,,,,,,,,,,,,,,,,,,,,,,,,,,,,,,,,,,,,,,,,,,,,,,,,,,,,,,,,,,,,,,,,,,,,,,,,,,,,,,,,,,,,,,,,,,,,,,,,,,,,,,
,,,,,,6047099142558a1747f22b23,62c5398912f839c363f3eea7,2022-07-06_24h28.25.803,Colour_Asymmetry_Pilot,2022.1.3,Win32,60.25548325,62c50e9c1127f2cd403a315f,0,160,160,11,1,twofour,,,,,,,,,,,,,,,,,,,,,,,,,,,,,,,,,,,,,,,,,,,,,,,,,,,,,,,,,,,,,,,,,,,,,,,,,,,,,,,,,,,,,,,,,,,,,,,,,,,,,,,,,,,,,,,,,,,,,,,,,,,,,,,,,,,,,,,,,,,,,,,,,,,,,,,,,,,,,
,,,,,,6047099142558a1747f22b23,62c5398912f839c363f3eea7,2022-07-06_24h28.25.803,Colour_Asymmetry_Pilot,2022.1.3,Win32,60.25548325,62c50e9c1127f2cd403a315f,0,161,161,15,1,fourthree,,,,,,,,,,,,,,,,,,,,,,,,,,,,,,,,,,,,,,,,,,,,,,,,,,,,,,,,,,,,,,,,,,,,,,,,,,,,,,,,,,,,,,,,,,,,,,,,,,,,,,,,,,,,,,,,,,,,,,,,,,,,,,,,,,,,,,,,,,,,,,,,,,,,,,,,,,,,,
,,,,,,6047099142558a1747f22b23,62c5398912f839c363f3eea7,2022-07-06_24h28.25.803,Colour_Asymmetry_Pilot,2022.1.3,Win32,60.25548325,62c50e9c1127f2cd403a315f,,,,,,,space,0.8815,space,7.7354,space,33.0533,space,9.3679,space,12.2528,space,1.8159,"[-0.6706000000000001,-0.6157999999999999,-0.6786]",fourtwo,"[-0.20799999999999996,-0.655,-0.01980000000000004]",3,2.0999,110.4000244,32,1,0,0,response1disk_5,12.79998779,3.199981689,1,0,0,rectangle_8,12.79998779,3.199981689,1,0,0,1,12.79998779,3.199981689,1,0,0,0,0,0,0,1,,,,,,,,,,,,,,,,,,,,,,,,,,,,,,,,,,,,,,,,,,,,,,,,,,,,,,,,,,,,,,,,,,,,,,,,,,,,,,,,,,,,,,,,,,,,,,,,,,,,,,,,,,,,,,,,
,,,,,,6047099142558a1747f22b23,62c5398912f839c363f3eea7,2022-07-06_24h28.25.803,Colour_Asymmetry_Pilot,2022.1.3,Win32,60.25548325,62c50e9c1127f2cd403a315f,,,,,,,,,,,,,,,,,,,"[0.2862,0.7802,0.3568]",onethree,"[-0.2942,-0.24719999999999998,-0.357]",3,1.8323,89.60003662,51.19998169,1,0,0,response1disk_5,10.40002441,0,1,0,0,rectangle_8,10.40002441,0,1,0,0,1,10.40002441,0,1,0,0,1,0,1,0,1,,,,,,,,,,,,,,,,,,,,,,,,,,,,,,,,,,,,,,,,,,,,,,,,,,,,,,,,,,,,,,,,,,,,,,,,,,,,,,,,,,,,,,,,,,,,,,,,,,,,,,,,,,,,,,,,
,,,,,,6047099142558a1747f22b23,62c5398912f839c363f3eea7,2022-07-06_24h28.25.803,Colour_Asymmetry_Pilot,2022.1.3,Win32,60.25548325,62c50e9c1127f2cd403a315f,,,,,,,,,,,,,,,,,,,"[0.04299999999999993,0.16060000000000008,-0.6628000000000001]",onetwo,"[-0.26280000000000003,-0.2158,-0.3256]",4,1.6329,69.60003662,104.7999878,1,0,0,response1disk_5,6.400024414,-4.800018311,1,0,0,rectangle_8,44.79998779,-110.4000244,1,0,0,1,-1.599975586,0.799987793,1,0,0,2,0,2,0,1,response3disk_7,4,rectangle_4,,,,,,,,,,,,,,,,,,,,,,,,,,,,,,,,,,,,,,,,,,,,,,,,,,,,,,,,,,,,,,,,,,,,,,,,,,,,,,,,,,,,,,,,,,,,,,,,,,,,,,,,,,,,,
,,,,,,6047099142558a1747f22b23,62c5398912f839c363f3eea7,2022-07-06_24h28.25.803,Colour_Asymmetry_Pilot,2022.1.3,Win32,60.25548325,62c50e9c1127f2cd403a315f,,,,,,,,,,,,,,,,,,,"[-0.050999999999999934,-0.6706000000000001,-0.804]",twoone,"[0.9686000000000001,0.5763999999999998,0.11359999999999992]",-3,1.4498,-81.59997559,38.3999939,1,0,0,response7disk_5,4,1.600006104,1,0,0,rectangle_8,4,1.600006104,1,0,0,1,4,1.600006104,1,0,0,3,0,3,0,1,,,,,,,,,,,,,,,,,,,,,,,,,,,,,,,,,,,,,,,,,,,,,,,,,,,,,,,,,,,,,,,,,,,,,,,,,,,,,,,,,,,,,,,,,,,,,,,,,,,,,,,,,,,,,,,,
,,,,,,6047099142558a1747f22b23,62c5398912f839c363f3eea7,2022-07-06_24h28.25.803,Colour_Asymmetry_Pilot,2022.1.3,Win32,60.25548325,62c50e9c1127f2cd403a315f,,,,,,,,,,,,,,,,,,,"[-0.9138,-0.5296000000000001,-0.5529999999999999]",threefour,"[-0.4746,-0.0354000000000001,0.5449999999999999]",1,1.4757,62.40002441,-108.7999878,1,0,0,response3disk_5,-16,12,1,0,0,rectangle_8,-16,12,1,0,0,1,-16,12,1,0,0,4,0,4,0,1,,,,,,,,,,,,,,,,,,,,,,,,,,,,,,,,,,,,,,,,,,,,,,,,,,,,,,,,,,,,,,,,,,,,,,,,,,,,,,,,,,,,,,,,,,,,,,,,,,,,,,,,,,,,,,,,
,,,,,,6047099142558a1747f22b23,62c5398912f839c363f3eea7,2022-07-06_24h28.25.803,Colour_Asymmetry_Pilot,2022.1.3,Win32,60.25548325,62c50e9c1127f2cd403a315f,,,,,,,,,,,,,,,,,,,"[-0.011800000000000033,-0.906,-0.45100000000000007]",fourthree,"[-0.26280000000000003,-0.4746,-0.2158]",1,1.8003,44,-94.40002441,1,0,0,response3disk_5,11.20001221,-7.200012207,1,0,0,rectangle_8,11.20001221,-7.200012207,1,0,0,1,11.20001221,-7.200012207,1,0,0,5,0,5,0,1,,,,,,,,,,,,,,,,,,,,,,,,,,,,,,,,,,,,,,,,,,,,,,,,,,,,,,,,,,,,,,,,,,,,,,,,,,,,,,,,,,,,,,,,,,,,,,,,,,,,,,,,,,,,,,,,
,,,,,,6047099142558a1747f22b23,62c5398912f839c363f3eea7,2022-07-06_24h28.25.803,Colour_Asymmetry_Pilot,2022.1.3,Win32,60.25548325,62c50e9c1127f2cd403a315f,,,,,,,,,,,,,,,,,,,"[0.9372,0.9450000000000001,0.8980000000000001]",twofour,"[0.7018,0.7802,-0.16079999999999994]",-2,1.9502,-83.20001221,-36,1,0,0,response5disk_5,12.79998779,-8.800018311,1,0,0,rectangle_8,12.79998779,-8.800018311,1,0,0,1,12.79998779,-8.800018311,1,0,0,6,0,6,0,1,,,,,,,,,,,,,,,,,,,,,,,,,,,,,,,,,,,,,,,,,,,,,,,,,,,,,,,,,,,,,,,,,,,,,,,,,,,,,,,,,,,,,,,,,,,,,,,,,,,,,,,,,,,,,,,,
,,,,,,6047099142558a1747f22b23,62c5398912f839c363f3eea7,2022-07-06_24h28.25.803,Colour_Asymmetry_Pilot,2022.1.3,Win32,60.25548325,62c50e9c1127f2cd403a315f,,,,,,,,,,,,,,,,,,,,fourthree,,-4,0.6328,,,,,,,,,,,,,,,,,,,,,,,,,,,,,,,,space,1.7308,"[0.19199999999999995,0.18419999999999992,0.5136000000000001]","[0.7176,-0.906,-0.6864]",-60.79998779,95.19998169,1,0,0,response7disk,7.200012207,-2.399993896,1,0,0,rectangle,7.200012207,-2.399993896,1,0,0,,2,0.002,0,7.200012207,-2.399993896,1,0,0,0,0,0,17,1,17,first,,,,,,,,,,,,,,,,,,,,,,,,,,,,,,,,,,,,,,,,,,,,,,,,,,,,,,,,,,,,,,,,,,,,,,,,
,,,,,,6047099142558a1747f22b23,62c5398912f839c363f3eea7,2022-07-06_24h28.25.803,Colour_Asymmetry_Pilot,2022.1.3,Win32,60.25548325,62c50e9c1127f2cd403a315f,,,,,,,,,,,,,,,,,,,,fourthree,,-4,0.7664,,,,,,,,,,,,,,,,,,,,,,,,,,,,,,,,,,"[0.8115999999999999,-0.0040000000000000036,-0.09819999999999995]","[-0.9296,-0.12959999999999994,-0.043199999999999905]",-60.79998779,106.3999939,1,0,0,response7disk,23.20001221,4.799987793,1,0,0,rectangle,23.20001221,4.799987793,1,0,0,,3,0.001,0,23.20001221,4.799987793,1,0,0,0,1,1,150,1,69,second,,,,,,,,,,,,,,,,,,,,,,,,,,,,,,,,,,,,,,,,,,,,,,,,,,,,,,,,,,,,,,,,,,,,,,,,
,,,,,,6047099142558a1747f22b23,62c5398912f839c363f3eea7,2022-07-06_24h28.25.803,Colour_Asymmetry_Pilot,2022.1.3,Win32,60.25548325,62c50e9c1127f2cd403a315f,,,,,,,,,,,,,,,,,,,,threefour,,-3,2.0831,,,,,,,,,,,,,,,,,,,,,,,,,,,,,,,,,,"[-0.09019999999999995,0.44300000000000006,0.5371999999999999]","[0.7646000000000002,0.07440000000000002,0.2704]",-84,36.79998779,1,0,0,response7disk,16,4.799987793,1,0,0,rectangle,16,4.799987793,1,0,0,,1,0.0019,0,16,4.799987793,1,0,0,0,2,2,4,1,4,first,,,,,,,,,,,,,,,,,,,,,,,,,,,,,,,,,,,,,,,,,,,,,,,,,,,,,,,,,,,,,,,,,,,,,,,,
,,,,,,6047099142558a1747f22b23,62c5398912f839c363f3eea7,2022-07-06_24h28.25.803,Colour_Asymmetry_Pilot,2022.1.3,Win32,60.25548325,62c50e9c1127f2cd403a315f,,,,,,,,,,,,,,,,,,,,fourtwo,,-4,0.9499,,,,,,,,,,,,,,,,,,,,,,,,,,,,,,,,,,"[0.9763999999999999,0.30979999999999985,-0.6786]","[-0.6942,-0.7648,-0.12959999999999994]",-40,117.6000061,1,0,0,response7disk,-0.799987793,6.399993896,1,0,0,rectangle,-0.799987793,6.399993896,1,0,0,,3,0.0008,0,-0.799987793,6.399993896,1,0,0,0,3,3,39,1,39,first,,,,,,,,,,,,,,,,,,,,,,,,,,,,,,,,,,,,,,,,,,,,,,,,,,,,,,,,,,,,,,,,,,,,,,,,
,,,,,,6047099142558a1747f22b23,62c5398912f839c363f3eea7,2022-07-06_24h28.25.803,Colour_Asymmetry_Pilot,2022.1.3,Win32,60.25548325,62c50e9c1127f2cd403a315f,,,,,,,,,,,,,,,,,,,,twofour,,-1,1.4167,,,,,,,,,,,,,,,,,,,,,,,,,,,,,,,,,,"[0.40379999999999994,0.09000000000000008,0.44300000000000006]","[-0.9766,-0.6472,0.07440000000000002]",-76,-111.2000122,1,0,0,response5disk,13.60003662,4.799987793,1,0,0,rectangle,13.60003662,4.799987793,1,0,0,,3,0.0002,0,13.60003662,4.799987793,1,0,0,0,4,4,32,1,32,first,,,,,,,,,,,,,,,,,,,,,,,,,,,,,,,,,,,,,,,,,,,,,,,,,,,,,,,,,,,,,,,,,,,,,,,,
,,,,,,6047099142558a1747f22b23,62c5398912f839c363f3eea7,2022-07-06_24h28.25.803,Colour_Asymmetry_Pilot,2022.1.3,Win32,60.25548325,62c50e9c1127f2cd403a315f,,,,,,,,,,,,,,,,,,,,onetwo,,1,1.4668,,,,,,,,,,,,,,,,,,,,,,,,,,,,,,,,,,"[0.9686000000000001,0.3802000000000001,0.19999999999999996]","[0.9763999999999999,0.8588,-0.05900000000000005]",39.20001221,-119.2000122,1,0,0,response3disk,-4.799987793,-4,1,0,0,rectangle,-4.799987793,-4,1,0,0,,2,0.0011,0,-4.799987793,-4,1,0,0,0,5,5,60,1,60,first,,,,,,,,,,,,,,,,,,,,,,,,,,,,,,,,,,,,,,,,,,,,,,,,,,,,,,,,,,,,,,,,,,,,,,,,
,,,,,,6047099142558a1747f22b23,62c5398912f839c363f3eea7,2022-07-06_24h28.25.803,Colour_Asymmetry_Pilot,2022.1.3,Win32,60.25548325,62c50e9c1127f2cd403a315f,,,,,,,,,,,,,,,,,,,,onethree,,3,0.8167,,,,,,,,,,,,,,,,,,,,,,,,,,,,,,,,,,"[-0.48240000000000005,0.3175999999999999,0.2156]","[-0.09019999999999995,0.44300000000000006,0.5371999999999999]",114.4000244,44.79998779,1,0,0,response1disk,9.600036621,7.199981689,1,0,0,rectangle,9.600036621,7.199981689,1,0,0,,3,0.0014,0,9.600036621,7.199981689,1,0,0,0,6,6,123,1,42,second,,,,,,,,,,,,,,,,,,,,,,,,,,,,,,,,,,,,,,,,,,,,,,,,,,,,,,,,,,,,,,,,,,,,,,,,
,,,,,,6047099142558a1747f22b23,62c5398912f839c363f3eea7,2022-07-06_24h28.25.803,Colour_Asymmetry_Pilot,2022.1.3,Win32,60.25548325,62c50e9c1127f2cd403a315f,,,,,,,,,,,,,,,,,,,,twofour,,1,1.3835,,,,,,,,,,,,,,,,,,,,,,,,,,,,,,,,,,"[0.34099999999999997,0.5841999999999998,-0.9844]","[-0.8198,-0.5138,-0.7492000000000001]",24.79998779,-105.6000366,1,0,0,response3disk,1.600036621,3.199981689,1,0,0,rectangle,1.600036621,3.199981689,1,0,0,,3,0.0001,0,1.600036621,3.199981689,1,0,0,0,7,7,16,1,16,first,,,,,,,,,,,,,,,,,,,,,,,,,,,,,,,,,,,,,,,,,,,,,,,,,,,,,,,,,,,,,,,,,,,,,,,,
,,,,,,6047099142558a1747f22b23,62c5398912f839c363f3eea7,2022-07-06_24h28.25.803,Colour_Asymmetry_Pilot,2022.1.3,Win32,60.25548325,62c50e9c1127f2cd403a315f,,,,,,,,,,,,,,,,,,,,threeone,,-3,0.6164,,,,,,,,,,,,,,,,,,,,,,,,,,,,,,,,,,"[-0.2942,-0.7648,-0.7492000000000001]","[-0.24719999999999998,0.5213999999999999,-0.12959999999999994]",-95.20001221,33.6000061,1,0,0,response7disk,10.40002441,1.600006104,1,0,0,rectangle,10.40002441,1.600006104,1,0,0,,1,0.0018,0,10.40002441,1.600006104,1,0,0,0,8,8,78,1,78,first,,,,,,,,,,,,,,,,,,,,,,,,,,,,,,,,,,,,,,,,,,,,,,,,,,,,,,,,,,,,,,,,,,,,,,,,
,,,,,,6047099142558a1747f22b23,62c5398912f839c363f3eea7,2022-07-06_24h28.25.803,Colour_Asymmetry_Pilot,2022.1.3,Win32,60.25548325,62c50e9c1127f2cd403a315f,,,,,,,,,,,,,,,,,,,,onethree,,-1,1.2836,,,,,,,,,,,,,,,,,,,,,,,,,,,,,,,,,,"[0.9372,0.9450000000000001,0.8980000000000001]","[0.9372,0.20779999999999998,0.2704]",-57.59997559,-104,1,0,0,response5disk,-3.200012207,-3.200012207,1,0,0,rectangle,-3.200012207,-3.200012207,1,0,0,,1,0.0001,0,-3.200012207,-3.200012207,1,0,0,0,9,9,19,1,19,first,,,,,,,,,,,,,,,,,,,,,,,,,,,,,,,,,,,,,,,,,,,,,,,,,,,,,,,,,,,,,,,,,,,,,,,,
,,,,,,6047099142558a1747f22b23,62c5398912f839c363f3eea7,2022-07-06_24h28.25.803,Colour_Asymmetry_Pilot,2022.1.3,Win32,60.25548325,62c50e9c1127f2cd403a315f,,,,,,,,,,,,,,,,,,,,twoone,,-3,0.5,,,,,,,,,,,,,,,,,,,,,,,,,,,,,,,,,,"[0.11359999999999992,0.6312,0.5213999999999999]","[0.9842,0.7409999999999999,-0.6628000000000001]",-76.79998779,43.19998169,1,0,0,response7disk,-4.799987793,0.799987793,1,0,0,rectangle,-4.799987793,0.799987793,1,0,0,,3,0.0008,0,-4.799987793,0.799987793,1,0,0,0,10,10,88,1,7,second,,,,,,,,,,,,,,,,,,,,,,,,,,,,,,,,,,,,,,,,,,,,,,,,,,,,,,,,,,,,,,,,,,,,,,,,
,,,,,,6047099142558a1747f22b23,62c5398912f839c363f3eea7,2022-07-06_24h28.25.803,Colour_Asymmetry_Pilot,2022.1.3,Win32,60.25548325,62c50e9c1127f2cd403a315f,,,,,,,,,,,,,,,,,,,,threefour,,-1,1.0666,,,,,,,,,,,,,,,,,,,,,,,,,,,,,,,,,,"[0.22340000000000004,-0.9296,-0.7884]","[0.09799999999999986,-0.24719999999999998,0.15280000000000005]",-44,-103.2000122,1,0,0,response5disk,-18.39996338,4,1,0,0,rectangle,-18.39996338,4,1,0,0,,1,0.0022,0,-18.39996338,4,1,0,0,0,11,11,115,1,34,second,,,,,,,,,,,,,,,,,,,,,,,,,,,,,,,,,,,,,,,,,,,,,,,,,,,,,,,,,,,,,,,,,,,,,,,,
,,,,,,6047099142558a1747f22b23,62c5398912f839c363f3eea7,2022-07-06_24h28.25.803,Colour_Asymmetry_Pilot,2022.1.3,Win32,60.25548325,62c50e9c1127f2cd403a315f,,,,,,,,,,,,,,,,,,,,onetwo,,-3,0.8331,,,,,,,,,,,,,,,,,,,,,,,,,,,,,,,,,,"[0.9842,0.7409999999999999,-0.6628000000000001]","[0.40379999999999994,0.09000000000000008,0.44300000000000006]",-76,60.79998779,1,0,0,response7disk,7.200012207,5.600006104,1,0,0,rectangle,7.200012207,5.600006104,1,0,0,,1,0.0002,0,7.200012207,5.600006104,1,0,0,0,12,12,108,1,27,second,,,,,,,,,,,,,,,,,,,,,,,,,,,,,,,,,,,,,,,,,,,,,,,,,,,,,,,,,,,,,,,,,,,,,,,,
,,,,,,6047099142558a1747f22b23,62c5398912f839c363f3eea7,2022-07-06_24h28.25.803,Colour_Asymmetry_Pilot,2022.1.3,Win32,60.25548325,62c50e9c1127f2cd403a315f,,,,,,,,,,,,,,,,,,,,fourtwo,,-4,0.3987,,,,,,,,,,,,,,,,,,,,,,,,,,,,,,,,,,"[0.5528,0.7409999999999999,-0.71]","[-0.09019999999999995,0.44300000000000006,0.5371999999999999]",-40.79998779,83.19998169,1,0,0,response7disk,-10.39996338,0.799987793,1,0,0,rectangle,-10.39996338,0.799987793,1,0,0,,2,0.0015,0,-10.39996338,0.799987793,1,0,0,0,13,13,8,1,8,first,,,,,,,,,,,,,,,,,,,,,,,,,,,,,,,,,,,,,,,,,,,,,,,,,,,,,,,,,,,,,,,,,,,,,,,,
,,,,,,6047099142558a1747f22b23,62c5398912f839c363f3eea7,2022-07-06_24h28.25.803,Colour_Asymmetry_Pilot,2022.1.3,Win32,60.25548325,62c50e9c1127f2cd403a315f,,,,,,,,,,,,,,,,,,,,twoone,,3,0.6335,,,,,,,,,,,,,,,,,,,,,,,,,,,,,,,,,,"[-0.38039999999999996,-0.4276,-0.1452]","[-0.8118,-0.8198,-0.5452]",88.79998779,36,1,0,0,response1disk,14.40002441,2.399993896,1,0,0,rectangle,14.40002441,2.399993896,1,0,0,,3,0.0015,0,14.40002441,2.399993896,1,0,0,0,14,14,125,1,44,second,,,,,,,,,,,,,,,,,,,,,,,,,,,,,,,,,,,,,,,,,,,,,,,,,,,,,,,,,,,,,,,,,,,,,,,,
