trials.thisRepN,trials.thisTrialN,trials.thisN,trials.thisIndex,trials.ran,Colourcodes,participant,session,date,expName,psychopyVersion,OS,frameRate,study_id,trials_4.thisRepN,trials_4.thisTrialN,trials_4.thisN,trials_4.thisIndex,trials_4.ran,StimulusPos,key_resp.keys,key_resp.rt,key_resp_2.keys,key_resp_2.rt,key_resp_15.keys,key_resp_15.rt,key_resp_17.keys,key_resp_17.rt,key_resp_9.keys,key_resp_9.rt,key_resp_10.keys,key_resp_10.rt,Circle1_col,Ecc,Circle2_col,similarity,response_time,mouse_5.x,mouse_5.y,mouse_5.leftButton,mouse_5.midButton,mouse_5.rightButton,mouse_5.clicked_name,mouse_10.x,mouse_10.y,mouse_10.leftButton,mouse_10.midButton,mouse_10.rightButton,mouse_10.clicked_name,mouse_7.x,mouse_7.y,mouse_7.leftButton,mouse_7.midButton,mouse_7.rightButton,mouse_7.clicked_name,catchprac,catchnumberprac,mouse_6.x,mouse_6.y,mouse_6.leftButton,mouse_6.midButton,mouse_6.rightButton,mouse_6.clicked_name,duringprac.thisRepN,duringprac.thisTrialN,duringprac.thisN,duringprac.thisIndex,duringprac.ran,key_resp_22.keys,key_resp_22.rt,Circle1_colour,Circle2_colour,mouse.x,mouse.y,mouse.leftButton,mouse.midButton,mouse.rightButton,mouse.clicked_name,mouse_2.x,mouse_2.y,mouse_2.leftButton,mouse_2.midButton,mouse_2.rightButton,mouse_2.clicked_name,mouse_3.x,mouse_3.y,mouse_3.leftButton,mouse_3.midButton,mouse_3.rightButton,catchresponse,catchnumber,response_time_catch,Catch,mouse_11.x,mouse_11.y,mouse_11.leftButton,mouse_11.midButton,mouse_11.rightButton,trials_2.thisRepN,trials_2.thisTrialN,trials_2.thisN,trials_2.thisIndex,trials_2.ran,Colourpair,Temporder,mouse_3.clicked_name,mouse_11.clicked_name,trials_3.thisRepN,trials_3.thisTrialN,trials_3.thisN,trials_3.thisIndex,trials_3.ran,key_resp_instr_Ishi.keys,key_resp_instr_Ishi.rt,Ishi_trial_keyresp.keys,Ishi_textbox.text,Ishi_mouse.x,Ishi_mouse.y,Ishi_mouse.leftButton,Ishi_mouse.midButton,Ishi_mouse.rightButton,Ishi_mouse.clicked_name,Ishi_loop.thisRepN,Ishi_loop.thisTrialN,Ishi_loop.thisN,Ishi_loop.thisIndex,Ishi_loop.ran,imageaddress,textbox.text,mouse_4.x,mouse_4.y,mouse_4.leftButton,mouse_4.midButton,mouse_4.rightButton,mouse_4.clicked_name,textbox_2.text,mouse_8.x,mouse_8.y,mouse_8.leftButton,mouse_8.midButton,mouse_8.rightButton,mouse_8.clicked_name,textbox_3.text,mouse_9.x,mouse_9.y,mouse_9.leftButton,mouse_9.midButton,mouse_9.rightButton,mouse_9.clicked_name,textbox_4.text,mouse_12.x,mouse_12.y,mouse_12.leftButton,mouse_12.midButton,mouse_12.rightButton,mouse_12.clicked_name,textbox_5.text,mouse_13.x,mouse_13.y,mouse_13.leftButton,mouse_13.midButton,mouse_13.rightButton,mouse_13.clicked_name,textbox_6.text,mouse_14.x,mouse_14.y,mouse_14.leftButton,mouse_14.midButton,mouse_14.rightButton,mouse_14.clicked_name,textbox_7.text,mouse_15.x,mouse_15.y,mouse_15.leftButton,mouse_15.midButton,mouse_15.rightButton
0,0,0,26,1,,613a9da3c77e45388ba8a4c6,62c538b89489a96cabb6b523,2022-07-06_02h25.09.642,Colour_Asymmetry_Pilot,2022.1.3,Win32,15.00510173,62c50e9c1127f2cd403a315f,,,,,,,,,,,,,,,,,,,,,,,,,,,,,,,,,,,,,,,,,,,,,,,,,,,,,,,,,,,,,,,,,,,,,,,,,,,,,,,,,,,,,,,,,,,,,,,,,,,,,,,,,,,,,,,,,,,,,,,,,,,,,,,,,,,,,,,,,,,,,,,,,,,,,,,,,,,,,,,,,,
0,1,1,78,1,,613a9da3c77e45388ba8a4c6,62c538b89489a96cabb6b523,2022-07-06_02h25.09.642,Colour_Asymmetry_Pilot,2022.1.3,Win32,15.00510173,62c50e9c1127f2cd403a315f,,,,,,,,,,,,,,,,,,,,,,,,,,,,,,,,,,,,,,,,,,,,,,,,,,,,,,,,,,,,,,,,,,,,,,,,,,,,,,,,,,,,,,,,,,,,,,,,,,,,,,,,,,,,,,,,,,,,,,,,,,,,,,,,,,,,,,,,,,,,,,,,,,,,,,,,,,,,,,,,,,
0,2,2,56,1,,613a9da3c77e45388ba8a4c6,62c538b89489a96cabb6b523,2022-07-06_02h25.09.642,Colour_Asymmetry_Pilot,2022.1.3,Win32,15.00510173,62c50e9c1127f2cd403a315f,,,,,,,,,,,,,,,,,,,,,,,,,,,,,,,,,,,,,,,,,,,,,,,,,,,,,,,,,,,,,,,,,,,,,,,,,,,,,,,,,,,,,,,,,,,,,,,,,,,,,,,,,,,,,,,,,,,,,,,,,,,,,,,,,,,,,,,,,,,,,,,,,,,,,,,,,,,,,,,,,,
0,3,3,90,1,,613a9da3c77e45388ba8a4c6,62c538b89489a96cabb6b523,2022-07-06_02h25.09.642,Colour_Asymmetry_Pilot,2022.1.3,Win32,15.00510173,62c50e9c1127f2cd403a315f,,,,,,,,,,,,,,,,,,,,,,,,,,,,,,,,,,,,,,,,,,,,,,,,,,,,,,,,,,,,,,,,,,,,,,,,,,,,,,,,,,,,,,,,,,,,,,,,,,,,,,,,,,,,,,,,,,,,,,,,,,,,,,,,,,,,,,,,,,,,,,,,,,,,,,,,,,,,,,,,,,
0,4,4,73,1,,613a9da3c77e45388ba8a4c6,62c538b89489a96cabb6b523,2022-07-06_02h25.09.642,Colour_Asymmetry_Pilot,2022.1.3,Win32,15.00510173,62c50e9c1127f2cd403a315f,,,,,,,,,,,,,,,,,,,,,,,,,,,,,,,,,,,,,,,,,,,,,,,,,,,,,,,,,,,,,,,,,,,,,,,,,,,,,,,,,,,,,,,,,,,,,,,,,,,,,,,,,,,,,,,,,,,,,,,,,,,,,,,,,,,,,,,,,,,,,,,,,,,,,,,,,,,,,,,,,,
0,5,5,67,1,,613a9da3c77e45388ba8a4c6,62c538b89489a96cabb6b523,2022-07-06_02h25.09.642,Colour_Asymmetry_Pilot,2022.1.3,Win32,15.00510173,62c50e9c1127f2cd403a315f,,,,,,,,,,,,,,,,,,,,,,,,,,,,,,,,,,,,,,,,,,,,,,,,,,,,,,,,,,,,,,,,,,,,,,,,,,,,,,,,,,,,,,,,,,,,,,,,,,,,,,,,,,,,,,,,,,,,,,,,,,,,,,,,,,,,,,,,,,,,,,,,,,,,,,,,,,,,,,,,,,
0,6,6,88,1,,613a9da3c77e45388ba8a4c6,62c538b89489a96cabb6b523,2022-07-06_02h25.09.642,Colour_Asymmetry_Pilot,2022.1.3,Win32,15.00510173,62c50e9c1127f2cd403a315f,,,,,,,,,,,,,,,,,,,,,,,,,,,,,,,,,,,,,,,,,,,,,,,,,,,,,,,,,,,,,,,,,,,,,,,,,,,,,,,,,,,,,,,,,,,,,,,,,,,,,,,,,,,,,,,,,,,,,,,,,,,,,,,,,,,,,,,,,,,,,,,,,,,,,,,,,,,,,,,,,,
0,7,7,18,1,,613a9da3c77e45388ba8a4c6,62c538b89489a96cabb6b523,2022-07-06_02h25.09.642,Colour_Asymmetry_Pilot,2022.1.3,Win32,15.00510173,62c50e9c1127f2cd403a315f,,,,,,,,,,,,,,,,,,,,,,,,,,,,,,,,,,,,,,,,,,,,,,,,,,,,,,,,,,,,,,,,,,,,,,,,,,,,,,,,,,,,,,,,,,,,,,,,,,,,,,,,,,,,,,,,,,,,,,,,,,,,,,,,,,,,,,,,,,,,,,,,,,,,,,,,,,,,,,,,,,
0,8,8,80,1,,613a9da3c77e45388ba8a4c6,62c538b89489a96cabb6b523,2022-07-06_02h25.09.642,Colour_Asymmetry_Pilot,2022.1.3,Win32,15.00510173,62c50e9c1127f2cd403a315f,,,,,,,,,,,,,,,,,,,,,,,,,,,,,,,,,,,,,,,,,,,,,,,,,,,,,,,,,,,,,,,,,,,,,,,,,,,,,,,,,,,,,,,,,,,,,,,,,,,,,,,,,,,,,,,,,,,,,,,,,,,,,,,,,,,,,,,,,,,,,,,,,,,,,,,,,,,,,,,,,,
0,9,9,30,1,,613a9da3c77e45388ba8a4c6,62c538b89489a96cabb6b523,2022-07-06_02h25.09.642,Colour_Asymmetry_Pilot,2022.1.3,Win32,15.00510173,62c50e9c1127f2cd403a315f,,,,,,,,,,,,,,,,,,,,,,,,,,,,,,,,,,,,,,,,,,,,,,,,,,,,,,,,,,,,,,,,,,,,,,,,,,,,,,,,,,,,,,,,,,,,,,,,,,,,,,,,,,,,,,,,,,,,,,,,,,,,,,,,,,,,,,,,,,,,,,,,,,,,,,,,,,,,,,,,,,
0,10,10,36,1,,613a9da3c77e45388ba8a4c6,62c538b89489a96cabb6b523,2022-07-06_02h25.09.642,Colour_Asymmetry_Pilot,2022.1.3,Win32,15.00510173,62c50e9c1127f2cd403a315f,,,,,,,,,,,,,,,,,,,,,,,,,,,,,,,,,,,,,,,,,,,,,,,,,,,,,,,,,,,,,,,,,,,,,,,,,,,,,,,,,,,,,,,,,,,,,,,,,,,,,,,,,,,,,,,,,,,,,,,,,,,,,,,,,,,,,,,,,,,,,,,,,,,,,,,,,,,,,,,,,,
0,11,11,16,1,,613a9da3c77e45388ba8a4c6,62c538b89489a96cabb6b523,2022-07-06_02h25.09.642,Colour_Asymmetry_Pilot,2022.1.3,Win32,15.00510173,62c50e9c1127f2cd403a315f,,,,,,,,,,,,,,,,,,,,,,,,,,,,,,,,,,,,,,,,,,,,,,,,,,,,,,,,,,,,,,,,,,,,,,,,,,,,,,,,,,,,,,,,,,,,,,,,,,,,,,,,,,,,,,,,,,,,,,,,,,,,,,,,,,,,,,,,,,,,,,,,,,,,,,,,,,,,,,,,,,
0,12,12,44,1,,613a9da3c77e45388ba8a4c6,62c538b89489a96cabb6b523,2022-07-06_02h25.09.642,Colour_Asymmetry_Pilot,2022.1.3,Win32,15.00510173,62c50e9c1127f2cd403a315f,,,,,,,,,,,,,,,,,,,,,,,,,,,,,,,,,,,,,,,,,,,,,,,,,,,,,,,,,,,,,,,,,,,,,,,,,,,,,,,,,,,,,,,,,,,,,,,,,,,,,,,,,,,,,,,,,,,,,,,,,,,,,,,,,,,,,,,,,,,,,,,,,,,,,,,,,,,,,,,,,,
0,13,13,89,1,,613a9da3c77e45388ba8a4c6,62c538b89489a96cabb6b523,2022-07-06_02h25.09.642,Colour_Asymmetry_Pilot,2022.1.3,Win32,15.00510173,62c50e9c1127f2cd403a315f,,,,,,,,,,,,,,,,,,,,,,,,,,,,,,,,,,,,,,,,,,,,,,,,,,,,,,,,,,,,,,,,,,,,,,,,,,,,,,,,,,,,,,,,,,,,,,,,,,,,,,,,,,,,,,,,,,,,,,,,,,,,,,,,,,,,,,,,,,,,,,,,,,,,,,,,,,,,,,,,,,
0,14,14,40,1,,613a9da3c77e45388ba8a4c6,62c538b89489a96cabb6b523,2022-07-06_02h25.09.642,Colour_Asymmetry_Pilot,2022.1.3,Win32,15.00510173,62c50e9c1127f2cd403a315f,,,,,,,,,,,,,,,,,,,,,,,,,,,,,,,,,,,,,,,,,,,,,,,,,,,,,,,,,,,,,,,,,,,,,,,,,,,,,,,,,,,,,,,,,,,,,,,,,,,,,,,,,,,,,,,,,,,,,,,,,,,,,,,,,,,,,,,,,,,,,,,,,,,,,,,,,,,,,,,,,,
0,15,15,65,1,,613a9da3c77e45388ba8a4c6,62c538b89489a96cabb6b523,2022-07-06_02h25.09.642,Colour_Asymmetry_Pilot,2022.1.3,Win32,15.00510173,62c50e9c1127f2cd403a315f,,,,,,,,,,,,,,,,,,,,,,,,,,,,,,,,,,,,,,,,,,,,,,,,,,,,,,,,,,,,,,,,,,,,,,,,,,,,,,,,,,,,,,,,,,,,,,,,,,,,,,,,,,,,,,,,,,,,,,,,,,,,,,,,,,,,,,,,,,,,,,,,,,,,,,,,,,,,,,,,,,
0,16,16,57,1,,613a9da3c77e45388ba8a4c6,62c538b89489a96cabb6b523,2022-07-06_02h25.09.642,Colour_Asymmetry_Pilot,2022.1.3,Win32,15.00510173,62c50e9c1127f2cd403a315f,,,,,,,,,,,,,,,,,,,,,,,,,,,,,,,,,,,,,,,,,,,,,,,,,,,,,,,,,,,,,,,,,,,,,,,,,,,,,,,,,,,,,,,,,,,,,,,,,,,,,,,,,,,,,,,,,,,,,,,,,,,,,,,,,,,,,,,,,,,,,,,,,,,,,,,,,,,,,,,,,,
0,17,17,58,1,,613a9da3c77e45388ba8a4c6,62c538b89489a96cabb6b523,2022-07-06_02h25.09.642,Colour_Asymmetry_Pilot,2022.1.3,Win32,15.00510173,62c50e9c1127f2cd403a315f,,,,,,,,,,,,,,,,,,,,,,,,,,,,,,,,,,,,,,,,,,,,,,,,,,,,,,,,,,,,,,,,,,,,,,,,,,,,,,,,,,,,,,,,,,,,,,,,,,,,,,,,,,,,,,,,,,,,,,,,,,,,,,,,,,,,,,,,,,,,,,,,,,,,,,,,,,,,,,,,,,
0,18,18,3,1,,613a9da3c77e45388ba8a4c6,62c538b89489a96cabb6b523,2022-07-06_02h25.09.642,Colour_Asymmetry_Pilot,2022.1.3,Win32,15.00510173,62c50e9c1127f2cd403a315f,,,,,,,,,,,,,,,,,,,,,,,,,,,,,,,,,,,,,,,,,,,,,,,,,,,,,,,,,,,,,,,,,,,,,,,,,,,,,,,,,,,,,,,,,,,,,,,,,,,,,,,,,,,,,,,,,,,,,,,,,,,,,,,,,,,,,,,,,,,,,,,,,,,,,,,,,,,,,,,,,,
0,19,19,49,1,,613a9da3c77e45388ba8a4c6,62c538b89489a96cabb6b523,2022-07-06_02h25.09.642,Colour_Asymmetry_Pilot,2022.1.3,Win32,15.00510173,62c50e9c1127f2cd403a315f,,,,,,,,,,,,,,,,,,,,,,,,,,,,,,,,,,,,,,,,,,,,,,,,,,,,,,,,,,,,,,,,,,,,,,,,,,,,,,,,,,,,,,,,,,,,,,,,,,,,,,,,,,,,,,,,,,,,,,,,,,,,,,,,,,,,,,,,,,,,,,,,,,,,,,,,,,,,,,,,,,
0,20,20,47,1,,613a9da3c77e45388ba8a4c6,62c538b89489a96cabb6b523,2022-07-06_02h25.09.642,Colour_Asymmetry_Pilot,2022.1.3,Win32,15.00510173,62c50e9c1127f2cd403a315f,,,,,,,,,,,,,,,,,,,,,,,,,,,,,,,,,,,,,,,,,,,,,,,,,,,,,,,,,,,,,,,,,,,,,,,,,,,,,,,,,,,,,,,,,,,,,,,,,,,,,,,,,,,,,,,,,,,,,,,,,,,,,,,,,,,,,,,,,,,,,,,,,,,,,,,,,,,,,,,,,,
0,21,21,54,1,,613a9da3c77e45388ba8a4c6,62c538b89489a96cabb6b523,2022-07-06_02h25.09.642,Colour_Asymmetry_Pilot,2022.1.3,Win32,15.00510173,62c50e9c1127f2cd403a315f,,,,,,,,,,,,,,,,,,,,,,,,,,,,,,,,,,,,,,,,,,,,,,,,,,,,,,,,,,,,,,,,,,,,,,,,,,,,,,,,,,,,,,,,,,,,,,,,,,,,,,,,,,,,,,,,,,,,,,,,,,,,,,,,,,,,,,,,,,,,,,,,,,,,,,,,,,,,,,,,,,
0,22,22,35,1,,613a9da3c77e45388ba8a4c6,62c538b89489a96cabb6b523,2022-07-06_02h25.09.642,Colour_Asymmetry_Pilot,2022.1.3,Win32,15.00510173,62c50e9c1127f2cd403a315f,,,,,,,,,,,,,,,,,,,,,,,,,,,,,,,,,,,,,,,,,,,,,,,,,,,,,,,,,,,,,,,,,,,,,,,,,,,,,,,,,,,,,,,,,,,,,,,,,,,,,,,,,,,,,,,,,,,,,,,,,,,,,,,,,,,,,,,,,,,,,,,,,,,,,,,,,,,,,,,,,,
0,23,23,83,1,,613a9da3c77e45388ba8a4c6,62c538b89489a96cabb6b523,2022-07-06_02h25.09.642,Colour_Asymmetry_Pilot,2022.1.3,Win32,15.00510173,62c50e9c1127f2cd403a315f,,,,,,,,,,,,,,,,,,,,,,,,,,,,,,,,,,,,,,,,,,,,,,,,,,,,,,,,,,,,,,,,,,,,,,,,,,,,,,,,,,,,,,,,,,,,,,,,,,,,,,,,,,,,,,,,,,,,,,,,,,,,,,,,,,,,,,,,,,,,,,,,,,,,,,,,,,,,,,,,,,
0,24,24,33,1,,613a9da3c77e45388ba8a4c6,62c538b89489a96cabb6b523,2022-07-06_02h25.09.642,Colour_Asymmetry_Pilot,2022.1.3,Win32,15.00510173,62c50e9c1127f2cd403a315f,,,,,,,,,,,,,,,,,,,,,,,,,,,,,,,,,,,,,,,,,,,,,,,,,,,,,,,,,,,,,,,,,,,,,,,,,,,,,,,,,,,,,,,,,,,,,,,,,,,,,,,,,,,,,,,,,,,,,,,,,,,,,,,,,,,,,,,,,,,,,,,,,,,,,,,,,,,,,,,,,,
0,25,25,50,1,,613a9da3c77e45388ba8a4c6,62c538b89489a96cabb6b523,2022-07-06_02h25.09.642,Colour_Asymmetry_Pilot,2022.1.3,Win32,15.00510173,62c50e9c1127f2cd403a315f,,,,,,,,,,,,,,,,,,,,,,,,,,,,,,,,,,,,,,,,,,,,,,,,,,,,,,,,,,,,,,,,,,,,,,,,,,,,,,,,,,,,,,,,,,,,,,,,,,,,,,,,,,,,,,,,,,,,,,,,,,,,,,,,,,,,,,,,,,,,,,,,,,,,,,,,,,,,,,,,,,
0,26,26,92,1,,613a9da3c77e45388ba8a4c6,62c538b89489a96cabb6b523,2022-07-06_02h25.09.642,Colour_Asymmetry_Pilot,2022.1.3,Win32,15.00510173,62c50e9c1127f2cd403a315f,,,,,,,,,,,,,,,,,,,,,,,,,,,,,,,,,,,,,,,,,,,,,,,,,,,,,,,,,,,,,,,,,,,,,,,,,,,,,,,,,,,,,,,,,,,,,,,,,,,,,,,,,,,,,,,,,,,,,,,,,,,,,,,,,,,,,,,,,,,,,,,,,,,,,,,,,,,,,,,,,,
0,27,27,55,1,,613a9da3c77e45388ba8a4c6,62c538b89489a96cabb6b523,2022-07-06_02h25.09.642,Colour_Asymmetry_Pilot,2022.1.3,Win32,15.00510173,62c50e9c1127f2cd403a315f,,,,,,,,,,,,,,,,,,,,,,,,,,,,,,,,,,,,,,,,,,,,,,,,,,,,,,,,,,,,,,,,,,,,,,,,,,,,,,,,,,,,,,,,,,,,,,,,,,,,,,,,,,,,,,,,,,,,,,,,,,,,,,,,,,,,,,,,,,,,,,,,,,,,,,,,,,,,,,,,,,
0,28,28,76,1,,613a9da3c77e45388ba8a4c6,62c538b89489a96cabb6b523,2022-07-06_02h25.09.642,Colour_Asymmetry_Pilot,2022.1.3,Win32,15.00510173,62c50e9c1127f2cd403a315f,,,,,,,,,,,,,,,,,,,,,,,,,,,,,,,,,,,,,,,,,,,,,,,,,,,,,,,,,,,,,,,,,,,,,,,,,,,,,,,,,,,,,,,,,,,,,,,,,,,,,,,,,,,,,,,,,,,,,,,,,,,,,,,,,,,,,,,,,,,,,,,,,,,,,,,,,,,,,,,,,,
0,29,29,17,1,,613a9da3c77e45388ba8a4c6,62c538b89489a96cabb6b523,2022-07-06_02h25.09.642,Colour_Asymmetry_Pilot,2022.1.3,Win32,15.00510173,62c50e9c1127f2cd403a315f,,,,,,,,,,,,,,,,,,,,,,,,,,,,,,,,,,,,,,,,,,,,,,,,,,,,,,,,,,,,,,,,,,,,,,,,,,,,,,,,,,,,,,,,,,,,,,,,,,,,,,,,,,,,,,,,,,,,,,,,,,,,,,,,,,,,,,,,,,,,,,,,,,,,,,,,,,,,,,,,,,
0,30,30,19,1,,613a9da3c77e45388ba8a4c6,62c538b89489a96cabb6b523,2022-07-06_02h25.09.642,Colour_Asymmetry_Pilot,2022.1.3,Win32,15.00510173,62c50e9c1127f2cd403a315f,,,,,,,,,,,,,,,,,,,,,,,,,,,,,,,,,,,,,,,,,,,,,,,,,,,,,,,,,,,,,,,,,,,,,,,,,,,,,,,,,,,,,,,,,,,,,,,,,,,,,,,,,,,,,,,,,,,,,,,,,,,,,,,,,,,,,,,,,,,,,,,,,,,,,,,,,,,,,,,,,,
0,31,31,61,1,,613a9da3c77e45388ba8a4c6,62c538b89489a96cabb6b523,2022-07-06_02h25.09.642,Colour_Asymmetry_Pilot,2022.1.3,Win32,15.00510173,62c50e9c1127f2cd403a315f,,,,,,,,,,,,,,,,,,,,,,,,,,,,,,,,,,,,,,,,,,,,,,,,,,,,,,,,,,,,,,,,,,,,,,,,,,,,,,,,,,,,,,,,,,,,,,,,,,,,,,,,,,,,,,,,,,,,,,,,,,,,,,,,,,,,,,,,,,,,,,,,,,,,,,,,,,,,,,,,,,
0,32,32,85,1,,613a9da3c77e45388ba8a4c6,62c538b89489a96cabb6b523,2022-07-06_02h25.09.642,Colour_Asymmetry_Pilot,2022.1.3,Win32,15.00510173,62c50e9c1127f2cd403a315f,,,,,,,,,,,,,,,,,,,,,,,,,,,,,,,,,,,,,,,,,,,,,,,,,,,,,,,,,,,,,,,,,,,,,,,,,,,,,,,,,,,,,,,,,,,,,,,,,,,,,,,,,,,,,,,,,,,,,,,,,,,,,,,,,,,,,,,,,,,,,,,,,,,,,,,,,,,,,,,,,,
0,33,33,53,1,,613a9da3c77e45388ba8a4c6,62c538b89489a96cabb6b523,2022-07-06_02h25.09.642,Colour_Asymmetry_Pilot,2022.1.3,Win32,15.00510173,62c50e9c1127f2cd403a315f,,,,,,,,,,,,,,,,,,,,,,,,,,,,,,,,,,,,,,,,,,,,,,,,,,,,,,,,,,,,,,,,,,,,,,,,,,,,,,,,,,,,,,,,,,,,,,,,,,,,,,,,,,,,,,,,,,,,,,,,,,,,,,,,,,,,,,,,,,,,,,,,,,,,,,,,,,,,,,,,,,
0,34,34,43,1,,613a9da3c77e45388ba8a4c6,62c538b89489a96cabb6b523,2022-07-06_02h25.09.642,Colour_Asymmetry_Pilot,2022.1.3,Win32,15.00510173,62c50e9c1127f2cd403a315f,,,,,,,,,,,,,,,,,,,,,,,,,,,,,,,,,,,,,,,,,,,,,,,,,,,,,,,,,,,,,,,,,,,,,,,,,,,,,,,,,,,,,,,,,,,,,,,,,,,,,,,,,,,,,,,,,,,,,,,,,,,,,,,,,,,,,,,,,,,,,,,,,,,,,,,,,,,,,,,,,,
0,35,35,46,1,,613a9da3c77e45388ba8a4c6,62c538b89489a96cabb6b523,2022-07-06_02h25.09.642,Colour_Asymmetry_Pilot,2022.1.3,Win32,15.00510173,62c50e9c1127f2cd403a315f,,,,,,,,,,,,,,,,,,,,,,,,,,,,,,,,,,,,,,,,,,,,,,,,,,,,,,,,,,,,,,,,,,,,,,,,,,,,,,,,,,,,,,,,,,,,,,,,,,,,,,,,,,,,,,,,,,,,,,,,,,,,,,,,,,,,,,,,,,,,,,,,,,,,,,,,,,,,,,,,,,
0,36,36,8,1,,613a9da3c77e45388ba8a4c6,62c538b89489a96cabb6b523,2022-07-06_02h25.09.642,Colour_Asymmetry_Pilot,2022.1.3,Win32,15.00510173,62c50e9c1127f2cd403a315f,,,,,,,,,,,,,,,,,,,,,,,,,,,,,,,,,,,,,,,,,,,,,,,,,,,,,,,,,,,,,,,,,,,,,,,,,,,,,,,,,,,,,,,,,,,,,,,,,,,,,,,,,,,,,,,,,,,,,,,,,,,,,,,,,,,,,,,,,,,,,,,,,,,,,,,,,,,,,,,,,,
0,37,37,64,1,,613a9da3c77e45388ba8a4c6,62c538b89489a96cabb6b523,2022-07-06_02h25.09.642,Colour_Asymmetry_Pilot,2022.1.3,Win32,15.00510173,62c50e9c1127f2cd403a315f,,,,,,,,,,,,,,,,,,,,,,,,,,,,,,,,,,,,,,,,,,,,,,,,,,,,,,,,,,,,,,,,,,,,,,,,,,,,,,,,,,,,,,,,,,,,,,,,,,,,,,,,,,,,,,,,,,,,,,,,,,,,,,,,,,,,,,,,,,,,,,,,,,,,,,,,,,,,,,,,,,
0,38,38,60,1,,613a9da3c77e45388ba8a4c6,62c538b89489a96cabb6b523,2022-07-06_02h25.09.642,Colour_Asymmetry_Pilot,2022.1.3,Win32,15.00510173,62c50e9c1127f2cd403a315f,,,,,,,,,,,,,,,,,,,,,,,,,,,,,,,,,,,,,,,,,,,,,,,,,,,,,,,,,,,,,,,,,,,,,,,,,,,,,,,,,,,,,,,,,,,,,,,,,,,,,,,,,,,,,,,,,,,,,,,,,,,,,,,,,,,,,,,,,,,,,,,,,,,,,,,,,,,,,,,,,,
0,39,39,9,1,,613a9da3c77e45388ba8a4c6,62c538b89489a96cabb6b523,2022-07-06_02h25.09.642,Colour_Asymmetry_Pilot,2022.1.3,Win32,15.00510173,62c50e9c1127f2cd403a315f,,,,,,,,,,,,,,,,,,,,,,,,,,,,,,,,,,,,,,,,,,,,,,,,,,,,,,,,,,,,,,,,,,,,,,,,,,,,,,,,,,,,,,,,,,,,,,,,,,,,,,,,,,,,,,,,,,,,,,,,,,,,,,,,,,,,,,,,,,,,,,,,,,,,,,,,,,,,,,,,,,
0,40,40,79,1,,613a9da3c77e45388ba8a4c6,62c538b89489a96cabb6b523,2022-07-06_02h25.09.642,Colour_Asymmetry_Pilot,2022.1.3,Win32,15.00510173,62c50e9c1127f2cd403a315f,,,,,,,,,,,,,,,,,,,,,,,,,,,,,,,,,,,,,,,,,,,,,,,,,,,,,,,,,,,,,,,,,,,,,,,,,,,,,,,,,,,,,,,,,,,,,,,,,,,,,,,,,,,,,,,,,,,,,,,,,,,,,,,,,,,,,,,,,,,,,,,,,,,,,,,,,,,,,,,,,,
0,41,41,5,1,,613a9da3c77e45388ba8a4c6,62c538b89489a96cabb6b523,2022-07-06_02h25.09.642,Colour_Asymmetry_Pilot,2022.1.3,Win32,15.00510173,62c50e9c1127f2cd403a315f,,,,,,,,,,,,,,,,,,,,,,,,,,,,,,,,,,,,,,,,,,,,,,,,,,,,,,,,,,,,,,,,,,,,,,,,,,,,,,,,,,,,,,,,,,,,,,,,,,,,,,,,,,,,,,,,,,,,,,,,,,,,,,,,,,,,,,,,,,,,,,,,,,,,,,,,,,,,,,,,,,
0,42,42,29,1,,613a9da3c77e45388ba8a4c6,62c538b89489a96cabb6b523,2022-07-06_02h25.09.642,Colour_Asymmetry_Pilot,2022.1.3,Win32,15.00510173,62c50e9c1127f2cd403a315f,,,,,,,,,,,,,,,,,,,,,,,,,,,,,,,,,,,,,,,,,,,,,,,,,,,,,,,,,,,,,,,,,,,,,,,,,,,,,,,,,,,,,,,,,,,,,,,,,,,,,,,,,,,,,,,,,,,,,,,,,,,,,,,,,,,,,,,,,,,,,,,,,,,,,,,,,,,,,,,,,,
0,43,43,38,1,,613a9da3c77e45388ba8a4c6,62c538b89489a96cabb6b523,2022-07-06_02h25.09.642,Colour_Asymmetry_Pilot,2022.1.3,Win32,15.00510173,62c50e9c1127f2cd403a315f,,,,,,,,,,,,,,,,,,,,,,,,,,,,,,,,,,,,,,,,,,,,,,,,,,,,,,,,,,,,,,,,,,,,,,,,,,,,,,,,,,,,,,,,,,,,,,,,,,,,,,,,,,,,,,,,,,,,,,,,,,,,,,,,,,,,,,,,,,,,,,,,,,,,,,,,,,,,,,,,,,
0,44,44,48,1,,613a9da3c77e45388ba8a4c6,62c538b89489a96cabb6b523,2022-07-06_02h25.09.642,Colour_Asymmetry_Pilot,2022.1.3,Win32,15.00510173,62c50e9c1127f2cd403a315f,,,,,,,,,,,,,,,,,,,,,,,,,,,,,,,,,,,,,,,,,,,,,,,,,,,,,,,,,,,,,,,,,,,,,,,,,,,,,,,,,,,,,,,,,,,,,,,,,,,,,,,,,,,,,,,,,,,,,,,,,,,,,,,,,,,,,,,,,,,,,,,,,,,,,,,,,,,,,,,,,,
0,45,45,77,1,,613a9da3c77e45388ba8a4c6,62c538b89489a96cabb6b523,2022-07-06_02h25.09.642,Colour_Asymmetry_Pilot,2022.1.3,Win32,15.00510173,62c50e9c1127f2cd403a315f,,,,,,,,,,,,,,,,,,,,,,,,,,,,,,,,,,,,,,,,,,,,,,,,,,,,,,,,,,,,,,,,,,,,,,,,,,,,,,,,,,,,,,,,,,,,,,,,,,,,,,,,,,,,,,,,,,,,,,,,,,,,,,,,,,,,,,,,,,,,,,,,,,,,,,,,,,,,,,,,,,
0,46,46,74,1,,613a9da3c77e45388ba8a4c6,62c538b89489a96cabb6b523,2022-07-06_02h25.09.642,Colour_Asymmetry_Pilot,2022.1.3,Win32,15.00510173,62c50e9c1127f2cd403a315f,,,,,,,,,,,,,,,,,,,,,,,,,,,,,,,,,,,,,,,,,,,,,,,,,,,,,,,,,,,,,,,,,,,,,,,,,,,,,,,,,,,,,,,,,,,,,,,,,,,,,,,,,,,,,,,,,,,,,,,,,,,,,,,,,,,,,,,,,,,,,,,,,,,,,,,,,,,,,,,,,,
0,47,47,21,1,,613a9da3c77e45388ba8a4c6,62c538b89489a96cabb6b523,2022-07-06_02h25.09.642,Colour_Asymmetry_Pilot,2022.1.3,Win32,15.00510173,62c50e9c1127f2cd403a315f,,,,,,,,,,,,,,,,,,,,,,,,,,,,,,,,,,,,,,,,,,,,,,,,,,,,,,,,,,,,,,,,,,,,,,,,,,,,,,,,,,,,,,,,,,,,,,,,,,,,,,,,,,,,,,,,,,,,,,,,,,,,,,,,,,,,,,,,,,,,,,,,,,,,,,,,,,,,,,,,,,
0,48,48,7,1,,613a9da3c77e45388ba8a4c6,62c538b89489a96cabb6b523,2022-07-06_02h25.09.642,Colour_Asymmetry_Pilot,2022.1.3,Win32,15.00510173,62c50e9c1127f2cd403a315f,,,,,,,,,,,,,,,,,,,,,,,,,,,,,,,,,,,,,,,,,,,,,,,,,,,,,,,,,,,,,,,,,,,,,,,,,,,,,,,,,,,,,,,,,,,,,,,,,,,,,,,,,,,,,,,,,,,,,,,,,,,,,,,,,,,,,,,,,,,,,,,,,,,,,,,,,,,,,,,,,,
0,49,49,28,1,,613a9da3c77e45388ba8a4c6,62c538b89489a96cabb6b523,2022-07-06_02h25.09.642,Colour_Asymmetry_Pilot,2022.1.3,Win32,15.00510173,62c50e9c1127f2cd403a315f,,,,,,,,,,,,,,,,,,,,,,,,,,,,,,,,,,,,,,,,,,,,,,,,,,,,,,,,,,,,,,,,,,,,,,,,,,,,,,,,,,,,,,,,,,,,,,,,,,,,,,,,,,,,,,,,,,,,,,,,,,,,,,,,,,,,,,,,,,,,,,,,,,,,,,,,,,,,,,,,,,
0,50,50,4,1,,613a9da3c77e45388ba8a4c6,62c538b89489a96cabb6b523,2022-07-06_02h25.09.642,Colour_Asymmetry_Pilot,2022.1.3,Win32,15.00510173,62c50e9c1127f2cd403a315f,,,,,,,,,,,,,,,,,,,,,,,,,,,,,,,,,,,,,,,,,,,,,,,,,,,,,,,,,,,,,,,,,,,,,,,,,,,,,,,,,,,,,,,,,,,,,,,,,,,,,,,,,,,,,,,,,,,,,,,,,,,,,,,,,,,,,,,,,,,,,,,,,,,,,,,,,,,,,,,,,,
0,51,51,82,1,,613a9da3c77e45388ba8a4c6,62c538b89489a96cabb6b523,2022-07-06_02h25.09.642,Colour_Asymmetry_Pilot,2022.1.3,Win32,15.00510173,62c50e9c1127f2cd403a315f,,,,,,,,,,,,,,,,,,,,,,,,,,,,,,,,,,,,,,,,,,,,,,,,,,,,,,,,,,,,,,,,,,,,,,,,,,,,,,,,,,,,,,,,,,,,,,,,,,,,,,,,,,,,,,,,,,,,,,,,,,,,,,,,,,,,,,,,,,,,,,,,,,,,,,,,,,,,,,,,,,
0,52,52,37,1,,613a9da3c77e45388ba8a4c6,62c538b89489a96cabb6b523,2022-07-06_02h25.09.642,Colour_Asymmetry_Pilot,2022.1.3,Win32,15.00510173,62c50e9c1127f2cd403a315f,,,,,,,,,,,,,,,,,,,,,,,,,,,,,,,,,,,,,,,,,,,,,,,,,,,,,,,,,,,,,,,,,,,,,,,,,,,,,,,,,,,,,,,,,,,,,,,,,,,,,,,,,,,,,,,,,,,,,,,,,,,,,,,,,,,,,,,,,,,,,,,,,,,,,,,,,,,,,,,,,,
0,53,53,12,1,,613a9da3c77e45388ba8a4c6,62c538b89489a96cabb6b523,2022-07-06_02h25.09.642,Colour_Asymmetry_Pilot,2022.1.3,Win32,15.00510173,62c50e9c1127f2cd403a315f,,,,,,,,,,,,,,,,,,,,,,,,,,,,,,,,,,,,,,,,,,,,,,,,,,,,,,,,,,,,,,,,,,,,,,,,,,,,,,,,,,,,,,,,,,,,,,,,,,,,,,,,,,,,,,,,,,,,,,,,,,,,,,,,,,,,,,,,,,,,,,,,,,,,,,,,,,,,,,,,,,
0,54,54,84,1,,613a9da3c77e45388ba8a4c6,62c538b89489a96cabb6b523,2022-07-06_02h25.09.642,Colour_Asymmetry_Pilot,2022.1.3,Win32,15.00510173,62c50e9c1127f2cd403a315f,,,,,,,,,,,,,,,,,,,,,,,,,,,,,,,,,,,,,,,,,,,,,,,,,,,,,,,,,,,,,,,,,,,,,,,,,,,,,,,,,,,,,,,,,,,,,,,,,,,,,,,,,,,,,,,,,,,,,,,,,,,,,,,,,,,,,,,,,,,,,,,,,,,,,,,,,,,,,,,,,,
0,55,55,87,1,,613a9da3c77e45388ba8a4c6,62c538b89489a96cabb6b523,2022-07-06_02h25.09.642,Colour_Asymmetry_Pilot,2022.1.3,Win32,15.00510173,62c50e9c1127f2cd403a315f,,,,,,,,,,,,,,,,,,,,,,,,,,,,,,,,,,,,,,,,,,,,,,,,,,,,,,,,,,,,,,,,,,,,,,,,,,,,,,,,,,,,,,,,,,,,,,,,,,,,,,,,,,,,,,,,,,,,,,,,,,,,,,,,,,,,,,,,,,,,,,,,,,,,,,,,,,,,,,,,,,
0,56,56,70,1,,613a9da3c77e45388ba8a4c6,62c538b89489a96cabb6b523,2022-07-06_02h25.09.642,Colour_Asymmetry_Pilot,2022.1.3,Win32,15.00510173,62c50e9c1127f2cd403a315f,,,,,,,,,,,,,,,,,,,,,,,,,,,,,,,,,,,,,,,,,,,,,,,,,,,,,,,,,,,,,,,,,,,,,,,,,,,,,,,,,,,,,,,,,,,,,,,,,,,,,,,,,,,,,,,,,,,,,,,,,,,,,,,,,,,,,,,,,,,,,,,,,,,,,,,,,,,,,,,,,,
0,57,57,71,1,,613a9da3c77e45388ba8a4c6,62c538b89489a96cabb6b523,2022-07-06_02h25.09.642,Colour_Asymmetry_Pilot,2022.1.3,Win32,15.00510173,62c50e9c1127f2cd403a315f,,,,,,,,,,,,,,,,,,,,,,,,,,,,,,,,,,,,,,,,,,,,,,,,,,,,,,,,,,,,,,,,,,,,,,,,,,,,,,,,,,,,,,,,,,,,,,,,,,,,,,,,,,,,,,,,,,,,,,,,,,,,,,,,,,,,,,,,,,,,,,,,,,,,,,,,,,,,,,,,,,
0,58,58,81,1,,613a9da3c77e45388ba8a4c6,62c538b89489a96cabb6b523,2022-07-06_02h25.09.642,Colour_Asymmetry_Pilot,2022.1.3,Win32,15.00510173,62c50e9c1127f2cd403a315f,,,,,,,,,,,,,,,,,,,,,,,,,,,,,,,,,,,,,,,,,,,,,,,,,,,,,,,,,,,,,,,,,,,,,,,,,,,,,,,,,,,,,,,,,,,,,,,,,,,,,,,,,,,,,,,,,,,,,,,,,,,,,,,,,,,,,,,,,,,,,,,,,,,,,,,,,,,,,,,,,,
0,59,59,14,1,,613a9da3c77e45388ba8a4c6,62c538b89489a96cabb6b523,2022-07-06_02h25.09.642,Colour_Asymmetry_Pilot,2022.1.3,Win32,15.00510173,62c50e9c1127f2cd403a315f,,,,,,,,,,,,,,,,,,,,,,,,,,,,,,,,,,,,,,,,,,,,,,,,,,,,,,,,,,,,,,,,,,,,,,,,,,,,,,,,,,,,,,,,,,,,,,,,,,,,,,,,,,,,,,,,,,,,,,,,,,,,,,,,,,,,,,,,,,,,,,,,,,,,,,,,,,,,,,,,,,
0,60,60,0,1,,613a9da3c77e45388ba8a4c6,62c538b89489a96cabb6b523,2022-07-06_02h25.09.642,Colour_Asymmetry_Pilot,2022.1.3,Win32,15.00510173,62c50e9c1127f2cd403a315f,,,,,,,,,,,,,,,,,,,,,,,,,,,,,,,,,,,,,,,,,,,,,,,,,,,,,,,,,,,,,,,,,,,,,,,,,,,,,,,,,,,,,,,,,,,,,,,,,,,,,,,,,,,,,,,,,,,,,,,,,,,,,,,,,,,,,,,,,,,,,,,,,,,,,,,,,,,,,,,,,,
0,61,61,20,1,,613a9da3c77e45388ba8a4c6,62c538b89489a96cabb6b523,2022-07-06_02h25.09.642,Colour_Asymmetry_Pilot,2022.1.3,Win32,15.00510173,62c50e9c1127f2cd403a315f,,,,,,,,,,,,,,,,,,,,,,,,,,,,,,,,,,,,,,,,,,,,,,,,,,,,,,,,,,,,,,,,,,,,,,,,,,,,,,,,,,,,,,,,,,,,,,,,,,,,,,,,,,,,,,,,,,,,,,,,,,,,,,,,,,,,,,,,,,,,,,,,,,,,,,,,,,,,,,,,,,
0,62,62,32,1,,613a9da3c77e45388ba8a4c6,62c538b89489a96cabb6b523,2022-07-06_02h25.09.642,Colour_Asymmetry_Pilot,2022.1.3,Win32,15.00510173,62c50e9c1127f2cd403a315f,,,,,,,,,,,,,,,,,,,,,,,,,,,,,,,,,,,,,,,,,,,,,,,,,,,,,,,,,,,,,,,,,,,,,,,,,,,,,,,,,,,,,,,,,,,,,,,,,,,,,,,,,,,,,,,,,,,,,,,,,,,,,,,,,,,,,,,,,,,,,,,,,,,,,,,,,,,,,,,,,,
0,63,63,68,1,,613a9da3c77e45388ba8a4c6,62c538b89489a96cabb6b523,2022-07-06_02h25.09.642,Colour_Asymmetry_Pilot,2022.1.3,Win32,15.00510173,62c50e9c1127f2cd403a315f,,,,,,,,,,,,,,,,,,,,,,,,,,,,,,,,,,,,,,,,,,,,,,,,,,,,,,,,,,,,,,,,,,,,,,,,,,,,,,,,,,,,,,,,,,,,,,,,,,,,,,,,,,,,,,,,,,,,,,,,,,,,,,,,,,,,,,,,,,,,,,,,,,,,,,,,,,,,,,,,,,
0,64,64,63,1,,613a9da3c77e45388ba8a4c6,62c538b89489a96cabb6b523,2022-07-06_02h25.09.642,Colour_Asymmetry_Pilot,2022.1.3,Win32,15.00510173,62c50e9c1127f2cd403a315f,,,,,,,,,,,,,,,,,,,,,,,,,,,,,,,,,,,,,,,,,,,,,,,,,,,,,,,,,,,,,,,,,,,,,,,,,,,,,,,,,,,,,,,,,,,,,,,,,,,,,,,,,,,,,,,,,,,,,,,,,,,,,,,,,,,,,,,,,,,,,,,,,,,,,,,,,,,,,,,,,,
0,65,65,51,1,,613a9da3c77e45388ba8a4c6,62c538b89489a96cabb6b523,2022-07-06_02h25.09.642,Colour_Asymmetry_Pilot,2022.1.3,Win32,15.00510173,62c50e9c1127f2cd403a315f,,,,,,,,,,,,,,,,,,,,,,,,,,,,,,,,,,,,,,,,,,,,,,,,,,,,,,,,,,,,,,,,,,,,,,,,,,,,,,,,,,,,,,,,,,,,,,,,,,,,,,,,,,,,,,,,,,,,,,,,,,,,,,,,,,,,,,,,,,,,,,,,,,,,,,,,,,,,,,,,,,
0,66,66,41,1,,613a9da3c77e45388ba8a4c6,62c538b89489a96cabb6b523,2022-07-06_02h25.09.642,Colour_Asymmetry_Pilot,2022.1.3,Win32,15.00510173,62c50e9c1127f2cd403a315f,,,,,,,,,,,,,,,,,,,,,,,,,,,,,,,,,,,,,,,,,,,,,,,,,,,,,,,,,,,,,,,,,,,,,,,,,,,,,,,,,,,,,,,,,,,,,,,,,,,,,,,,,,,,,,,,,,,,,,,,,,,,,,,,,,,,,,,,,,,,,,,,,,,,,,,,,,,,,,,,,,
0,67,67,69,1,,613a9da3c77e45388ba8a4c6,62c538b89489a96cabb6b523,2022-07-06_02h25.09.642,Colour_Asymmetry_Pilot,2022.1.3,Win32,15.00510173,62c50e9c1127f2cd403a315f,,,,,,,,,,,,,,,,,,,,,,,,,,,,,,,,,,,,,,,,,,,,,,,,,,,,,,,,,,,,,,,,,,,,,,,,,,,,,,,,,,,,,,,,,,,,,,,,,,,,,,,,,,,,,,,,,,,,,,,,,,,,,,,,,,,,,,,,,,,,,,,,,,,,,,,,,,,,,,,,,,
0,68,68,1,1,,613a9da3c77e45388ba8a4c6,62c538b89489a96cabb6b523,2022-07-06_02h25.09.642,Colour_Asymmetry_Pilot,2022.1.3,Win32,15.00510173,62c50e9c1127f2cd403a315f,,,,,,,,,,,,,,,,,,,,,,,,,,,,,,,,,,,,,,,,,,,,,,,,,,,,,,,,,,,,,,,,,,,,,,,,,,,,,,,,,,,,,,,,,,,,,,,,,,,,,,,,,,,,,,,,,,,,,,,,,,,,,,,,,,,,,,,,,,,,,,,,,,,,,,,,,,,,,,,,,,
0,69,69,45,1,,613a9da3c77e45388ba8a4c6,62c538b89489a96cabb6b523,2022-07-06_02h25.09.642,Colour_Asymmetry_Pilot,2022.1.3,Win32,15.00510173,62c50e9c1127f2cd403a315f,,,,,,,,,,,,,,,,,,,,,,,,,,,,,,,,,,,,,,,,,,,,,,,,,,,,,,,,,,,,,,,,,,,,,,,,,,,,,,,,,,,,,,,,,,,,,,,,,,,,,,,,,,,,,,,,,,,,,,,,,,,,,,,,,,,,,,,,,,,,,,,,,,,,,,,,,,,,,,,,,,
0,70,70,59,1,,613a9da3c77e45388ba8a4c6,62c538b89489a96cabb6b523,2022-07-06_02h25.09.642,Colour_Asymmetry_Pilot,2022.1.3,Win32,15.00510173,62c50e9c1127f2cd403a315f,,,,,,,,,,,,,,,,,,,,,,,,,,,,,,,,,,,,,,,,,,,,,,,,,,,,,,,,,,,,,,,,,,,,,,,,,,,,,,,,,,,,,,,,,,,,,,,,,,,,,,,,,,,,,,,,,,,,,,,,,,,,,,,,,,,,,,,,,,,,,,,,,,,,,,,,,,,,,,,,,,
0,71,71,24,1,,613a9da3c77e45388ba8a4c6,62c538b89489a96cabb6b523,2022-07-06_02h25.09.642,Colour_Asymmetry_Pilot,2022.1.3,Win32,15.00510173,62c50e9c1127f2cd403a315f,,,,,,,,,,,,,,,,,,,,,,,,,,,,,,,,,,,,,,,,,,,,,,,,,,,,,,,,,,,,,,,,,,,,,,,,,,,,,,,,,,,,,,,,,,,,,,,,,,,,,,,,,,,,,,,,,,,,,,,,,,,,,,,,,,,,,,,,,,,,,,,,,,,,,,,,,,,,,,,,,,
0,72,72,39,1,,613a9da3c77e45388ba8a4c6,62c538b89489a96cabb6b523,2022-07-06_02h25.09.642,Colour_Asymmetry_Pilot,2022.1.3,Win32,15.00510173,62c50e9c1127f2cd403a315f,,,,,,,,,,,,,,,,,,,,,,,,,,,,,,,,,,,,,,,,,,,,,,,,,,,,,,,,,,,,,,,,,,,,,,,,,,,,,,,,,,,,,,,,,,,,,,,,,,,,,,,,,,,,,,,,,,,,,,,,,,,,,,,,,,,,,,,,,,,,,,,,,,,,,,,,,,,,,,,,,,
0,73,73,6,1,,613a9da3c77e45388ba8a4c6,62c538b89489a96cabb6b523,2022-07-06_02h25.09.642,Colour_Asymmetry_Pilot,2022.1.3,Win32,15.00510173,62c50e9c1127f2cd403a315f,,,,,,,,,,,,,,,,,,,,,,,,,,,,,,,,,,,,,,,,,,,,,,,,,,,,,,,,,,,,,,,,,,,,,,,,,,,,,,,,,,,,,,,,,,,,,,,,,,,,,,,,,,,,,,,,,,,,,,,,,,,,,,,,,,,,,,,,,,,,,,,,,,,,,,,,,,,,,,,,,,
0,74,74,11,1,,613a9da3c77e45388ba8a4c6,62c538b89489a96cabb6b523,2022-07-06_02h25.09.642,Colour_Asymmetry_Pilot,2022.1.3,Win32,15.00510173,62c50e9c1127f2cd403a315f,,,,,,,,,,,,,,,,,,,,,,,,,,,,,,,,,,,,,,,,,,,,,,,,,,,,,,,,,,,,,,,,,,,,,,,,,,,,,,,,,,,,,,,,,,,,,,,,,,,,,,,,,,,,,,,,,,,,,,,,,,,,,,,,,,,,,,,,,,,,,,,,,,,,,,,,,,,,,,,,,,
0,75,75,86,1,,613a9da3c77e45388ba8a4c6,62c538b89489a96cabb6b523,2022-07-06_02h25.09.642,Colour_Asymmetry_Pilot,2022.1.3,Win32,15.00510173,62c50e9c1127f2cd403a315f,,,,,,,,,,,,,,,,,,,,,,,,,,,,,,,,,,,,,,,,,,,,,,,,,,,,,,,,,,,,,,,,,,,,,,,,,,,,,,,,,,,,,,,,,,,,,,,,,,,,,,,,,,,,,,,,,,,,,,,,,,,,,,,,,,,,,,,,,,,,,,,,,,,,,,,,,,,,,,,,,,
0,76,76,10,1,,613a9da3c77e45388ba8a4c6,62c538b89489a96cabb6b523,2022-07-06_02h25.09.642,Colour_Asymmetry_Pilot,2022.1.3,Win32,15.00510173,62c50e9c1127f2cd403a315f,,,,,,,,,,,,,,,,,,,,,,,,,,,,,,,,,,,,,,,,,,,,,,,,,,,,,,,,,,,,,,,,,,,,,,,,,,,,,,,,,,,,,,,,,,,,,,,,,,,,,,,,,,,,,,,,,,,,,,,,,,,,,,,,,,,,,,,,,,,,,,,,,,,,,,,,,,,,,,,,,,
0,77,77,62,1,,613a9da3c77e45388ba8a4c6,62c538b89489a96cabb6b523,2022-07-06_02h25.09.642,Colour_Asymmetry_Pilot,2022.1.3,Win32,15.00510173,62c50e9c1127f2cd403a315f,,,,,,,,,,,,,,,,,,,,,,,,,,,,,,,,,,,,,,,,,,,,,,,,,,,,,,,,,,,,,,,,,,,,,,,,,,,,,,,,,,,,,,,,,,,,,,,,,,,,,,,,,,,,,,,,,,,,,,,,,,,,,,,,,,,,,,,,,,,,,,,,,,,,,,,,,,,,,,,,,,
0,78,78,91,1,,613a9da3c77e45388ba8a4c6,62c538b89489a96cabb6b523,2022-07-06_02h25.09.642,Colour_Asymmetry_Pilot,2022.1.3,Win32,15.00510173,62c50e9c1127f2cd403a315f,,,,,,,,,,,,,,,,,,,,,,,,,,,,,,,,,,,,,,,,,,,,,,,,,,,,,,,,,,,,,,,,,,,,,,,,,,,,,,,,,,,,,,,,,,,,,,,,,,,,,,,,,,,,,,,,,,,,,,,,,,,,,,,,,,,,,,,,,,,,,,,,,,,,,,,,,,,,,,,,,,
0,79,79,75,1,,613a9da3c77e45388ba8a4c6,62c538b89489a96cabb6b523,2022-07-06_02h25.09.642,Colour_Asymmetry_Pilot,2022.1.3,Win32,15.00510173,62c50e9c1127f2cd403a315f,,,,,,,,,,,,,,,,,,,,,,,,,,,,,,,,,,,,,,,,,,,,,,,,,,,,,,,,,,,,,,,,,,,,,,,,,,,,,,,,,,,,,,,,,,,,,,,,,,,,,,,,,,,,,,,,,,,,,,,,,,,,,,,,,,,,,,,,,,,,,,,,,,,,,,,,,,,,,,,,,,
0,80,80,22,1,,613a9da3c77e45388ba8a4c6,62c538b89489a96cabb6b523,2022-07-06_02h25.09.642,Colour_Asymmetry_Pilot,2022.1.3,Win32,15.00510173,62c50e9c1127f2cd403a315f,,,,,,,,,,,,,,,,,,,,,,,,,,,,,,,,,,,,,,,,,,,,,,,,,,,,,,,,,,,,,,,,,,,,,,,,,,,,,,,,,,,,,,,,,,,,,,,,,,,,,,,,,,,,,,,,,,,,,,,,,,,,,,,,,,,,,,,,,,,,,,,,,,,,,,,,,,,,,,,,,,
0,81,81,2,1,,613a9da3c77e45388ba8a4c6,62c538b89489a96cabb6b523,2022-07-06_02h25.09.642,Colour_Asymmetry_Pilot,2022.1.3,Win32,15.00510173,62c50e9c1127f2cd403a315f,,,,,,,,,,,,,,,,,,,,,,,,,,,,,,,,,,,,,,,,,,,,,,,,,,,,,,,,,,,,,,,,,,,,,,,,,,,,,,,,,,,,,,,,,,,,,,,,,,,,,,,,,,,,,,,,,,,,,,,,,,,,,,,,,,,,,,,,,,,,,,,,,,,,,,,,,,,,,,,,,,
0,82,82,23,1,,613a9da3c77e45388ba8a4c6,62c538b89489a96cabb6b523,2022-07-06_02h25.09.642,Colour_Asymmetry_Pilot,2022.1.3,Win32,15.00510173,62c50e9c1127f2cd403a315f,,,,,,,,,,,,,,,,,,,,,,,,,,,,,,,,,,,,,,,,,,,,,,,,,,,,,,,,,,,,,,,,,,,,,,,,,,,,,,,,,,,,,,,,,,,,,,,,,,,,,,,,,,,,,,,,,,,,,,,,,,,,,,,,,,,,,,,,,,,,,,,,,,,,,,,,,,,,,,,,,,
0,83,83,13,1,,613a9da3c77e45388ba8a4c6,62c538b89489a96cabb6b523,2022-07-06_02h25.09.642,Colour_Asymmetry_Pilot,2022.1.3,Win32,15.00510173,62c50e9c1127f2cd403a315f,,,,,,,,,,,,,,,,,,,,,,,,,,,,,,,,,,,,,,,,,,,,,,,,,,,,,,,,,,,,,,,,,,,,,,,,,,,,,,,,,,,,,,,,,,,,,,,,,,,,,,,,,,,,,,,,,,,,,,,,,,,,,,,,,,,,,,,,,,,,,,,,,,,,,,,,,,,,,,,,,,
0,84,84,66,1,,613a9da3c77e45388ba8a4c6,62c538b89489a96cabb6b523,2022-07-06_02h25.09.642,Colour_Asymmetry_Pilot,2022.1.3,Win32,15.00510173,62c50e9c1127f2cd403a315f,,,,,,,,,,,,,,,,,,,,,,,,,,,,,,,,,,,,,,,,,,,,,,,,,,,,,,,,,,,,,,,,,,,,,,,,,,,,,,,,,,,,,,,,,,,,,,,,,,,,,,,,,,,,,,,,,,,,,,,,,,,,,,,,,,,,,,,,,,,,,,,,,,,,,,,,,,,,,,,,,,
0,85,85,42,1,,613a9da3c77e45388ba8a4c6,62c538b89489a96cabb6b523,2022-07-06_02h25.09.642,Colour_Asymmetry_Pilot,2022.1.3,Win32,15.00510173,62c50e9c1127f2cd403a315f,,,,,,,,,,,,,,,,,,,,,,,,,,,,,,,,,,,,,,,,,,,,,,,,,,,,,,,,,,,,,,,,,,,,,,,,,,,,,,,,,,,,,,,,,,,,,,,,,,,,,,,,,,,,,,,,,,,,,,,,,,,,,,,,,,,,,,,,,,,,,,,,,,,,,,,,,,,,,,,,,,
0,86,86,27,1,,613a9da3c77e45388ba8a4c6,62c538b89489a96cabb6b523,2022-07-06_02h25.09.642,Colour_Asymmetry_Pilot,2022.1.3,Win32,15.00510173,62c50e9c1127f2cd403a315f,,,,,,,,,,,,,,,,,,,,,,,,,,,,,,,,,,,,,,,,,,,,,,,,,,,,,,,,,,,,,,,,,,,,,,,,,,,,,,,,,,,,,,,,,,,,,,,,,,,,,,,,,,,,,,,,,,,,,,,,,,,,,,,,,,,,,,,,,,,,,,,,,,,,,,,,,,,,,,,,,,
0,87,87,25,1,,613a9da3c77e45388ba8a4c6,62c538b89489a96cabb6b523,2022-07-06_02h25.09.642,Colour_Asymmetry_Pilot,2022.1.3,Win32,15.00510173,62c50e9c1127f2cd403a315f,,,,,,,,,,,,,,,,,,,,,,,,,,,,,,,,,,,,,,,,,,,,,,,,,,,,,,,,,,,,,,,,,,,,,,,,,,,,,,,,,,,,,,,,,,,,,,,,,,,,,,,,,,,,,,,,,,,,,,,,,,,,,,,,,,,,,,,,,,,,,,,,,,,,,,,,,,,,,,,,,,
0,88,88,34,1,,613a9da3c77e45388ba8a4c6,62c538b89489a96cabb6b523,2022-07-06_02h25.09.642,Colour_Asymmetry_Pilot,2022.1.3,Win32,15.00510173,62c50e9c1127f2cd403a315f,,,,,,,,,,,,,,,,,,,,,,,,,,,,,,,,,,,,,,,,,,,,,,,,,,,,,,,,,,,,,,,,,,,,,,,,,,,,,,,,,,,,,,,,,,,,,,,,,,,,,,,,,,,,,,,,,,,,,,,,,,,,,,,,,,,,,,,,,,,,,,,,,,,,,,,,,,,,,,,,,,
0,89,89,15,1,,613a9da3c77e45388ba8a4c6,62c538b89489a96cabb6b523,2022-07-06_02h25.09.642,Colour_Asymmetry_Pilot,2022.1.3,Win32,15.00510173,62c50e9c1127f2cd403a315f,,,,,,,,,,,,,,,,,,,,,,,,,,,,,,,,,,,,,,,,,,,,,,,,,,,,,,,,,,,,,,,,,,,,,,,,,,,,,,,,,,,,,,,,,,,,,,,,,,,,,,,,,,,,,,,,,,,,,,,,,,,,,,,,,,,,,,,,,,,,,,,,,,,,,,,,,,,,,,,,,,
0,90,90,31,1,,613a9da3c77e45388ba8a4c6,62c538b89489a96cabb6b523,2022-07-06_02h25.09.642,Colour_Asymmetry_Pilot,2022.1.3,Win32,15.00510173,62c50e9c1127f2cd403a315f,,,,,,,,,,,,,,,,,,,,,,,,,,,,,,,,,,,,,,,,,,,,,,,,,,,,,,,,,,,,,,,,,,,,,,,,,,,,,,,,,,,,,,,,,,,,,,,,,,,,,,,,,,,,,,,,,,,,,,,,,,,,,,,,,,,,,,,,,,,,,,,,,,,,,,,,,,,,,,,,,,
0,91,91,52,1,,613a9da3c77e45388ba8a4c6,62c538b89489a96cabb6b523,2022-07-06_02h25.09.642,Colour_Asymmetry_Pilot,2022.1.3,Win32,15.00510173,62c50e9c1127f2cd403a315f,,,,,,,,,,,,,,,,,,,,,,,,,,,,,,,,,,,,,,,,,,,,,,,,,,,,,,,,,,,,,,,,,,,,,,,,,,,,,,,,,,,,,,,,,,,,,,,,,,,,,,,,,,,,,,,,,,,,,,,,,,,,,,,,,,,,,,,,,,,,,,,,,,,,,,,,,,,,,,,,,,
0,92,92,72,1,,613a9da3c77e45388ba8a4c6,62c538b89489a96cabb6b523,2022-07-06_02h25.09.642,Colour_Asymmetry_Pilot,2022.1.3,Win32,15.00510173,62c50e9c1127f2cd403a315f,,,,,,,,,,,,,,,,,,,,,,,,,,,,,,,,,,,,,,,,,,,,,,,,,,,,,,,,,,,,,,,,,,,,,,,,,,,,,,,,,,,,,,,,,,,,,,,,,,,,,,,,,,,,,,,,,,,,,,,,,,,,,,,,,,,,,,,,,,,,,,,,,,,,,,,,,,,,,,,,,,
,,,,,,613a9da3c77e45388ba8a4c6,62c538b89489a96cabb6b523,2022-07-06_02h25.09.642,Colour_Asymmetry_Pilot,2022.1.3,Win32,15.00510173,62c50e9c1127f2cd403a315f,0,0,0,150,1,fourtwo,,,,,,,,,,,,,,,,,,,,,,,,,,,,,,,,,,,,,,,,,,,,,,,,,,,,,,,,,,,,,,,,,,,,,,,,,,,,,,,,,,,,,,,,,,,,,,,,,,,,,,,,,,,,,,,,,,,,,,,,,,,,,,,,,,,,,,,,,,,,,,,,,,,,,,,,,,,,
,,,,,,613a9da3c77e45388ba8a4c6,62c538b89489a96cabb6b523,2022-07-06_02h25.09.642,Colour_Asymmetry_Pilot,2022.1.3,Win32,15.00510173,62c50e9c1127f2cd403a315f,0,1,1,7,1,fourthree,,,,,,,,,,,,,,,,,,,,,,,,,,,,,,,,,,,,,,,,,,,,,,,,,,,,,,,,,,,,,,,,,,,,,,,,,,,,,,,,,,,,,,,,,,,,,,,,,,,,,,,,,,,,,,,,,,,,,,,,,,,,,,,,,,,,,,,,,,,,,,,,,,,,,,,,,,,,
,,,,,,613a9da3c77e45388ba8a4c6,62c538b89489a96cabb6b523,2022-07-06_02h25.09.642,Colour_Asymmetry_Pilot,2022.1.3,Win32,15.00510173,62c50e9c1127f2cd403a315f,0,2,2,161,1,onethree,,,,,,,,,,,,,,,,,,,,,,,,,,,,,,,,,,,,,,,,,,,,,,,,,,,,,,,,,,,,,,,,,,,,,,,,,,,,,,,,,,,,,,,,,,,,,,,,,,,,,,,,,,,,,,,,,,,,,,,,,,,,,,,,,,,,,,,,,,,,,,,,,,,,,,,,,,,,
,,,,,,613a9da3c77e45388ba8a4c6,62c538b89489a96cabb6b523,2022-07-06_02h25.09.642,Colour_Asymmetry_Pilot,2022.1.3,Win32,15.00510173,62c50e9c1127f2cd403a315f,0,3,3,47,1,fourthree,,,,,,,,,,,,,,,,,,,,,,,,,,,,,,,,,,,,,,,,,,,,,,,,,,,,,,,,,,,,,,,,,,,,,,,,,,,,,,,,,,,,,,,,,,,,,,,,,,,,,,,,,,,,,,,,,,,,,,,,,,,,,,,,,,,,,,,,,,,,,,,,,,,,,,,,,,,,
,,,,,,613a9da3c77e45388ba8a4c6,62c538b89489a96cabb6b523,2022-07-06_02h25.09.642,Colour_Asymmetry_Pilot,2022.1.3,Win32,15.00510173,62c50e9c1127f2cd403a315f,0,4,4,3,1,twofour,,,,,,,,,,,,,,,,,,,,,,,,,,,,,,,,,,,,,,,,,,,,,,,,,,,,,,,,,,,,,,,,,,,,,,,,,,,,,,,,,,,,,,,,,,,,,,,,,,,,,,,,,,,,,,,,,,,,,,,,,,,,,,,,,,,,,,,,,,,,,,,,,,,,,,,,,,,,
,,,,,,613a9da3c77e45388ba8a4c6,62c538b89489a96cabb6b523,2022-07-06_02h25.09.642,Colour_Asymmetry_Pilot,2022.1.3,Win32,15.00510173,62c50e9c1127f2cd403a315f,0,5,5,66,1,twoone,,,,,,,,,,,,,,,,,,,,,,,,,,,,,,,,,,,,,,,,,,,,,,,,,,,,,,,,,,,,,,,,,,,,,,,,,,,,,,,,,,,,,,,,,,,,,,,,,,,,,,,,,,,,,,,,,,,,,,,,,,,,,,,,,,,,,,,,,,,,,,,,,,,,,,,,,,,,
,,,,,,613a9da3c77e45388ba8a4c6,62c538b89489a96cabb6b523,2022-07-06_02h25.09.642,Colour_Asymmetry_Pilot,2022.1.3,Win32,15.00510173,62c50e9c1127f2cd403a315f,0,6,6,68,1,threeone,,,,,,,,,,,,,,,,,,,,,,,,,,,,,,,,,,,,,,,,,,,,,,,,,,,,,,,,,,,,,,,,,,,,,,,,,,,,,,,,,,,,,,,,,,,,,,,,,,,,,,,,,,,,,,,,,,,,,,,,,,,,,,,,,,,,,,,,,,,,,,,,,,,,,,,,,,,,
,,,,,,613a9da3c77e45388ba8a4c6,62c538b89489a96cabb6b523,2022-07-06_02h25.09.642,Colour_Asymmetry_Pilot,2022.1.3,Win32,15.00510173,62c50e9c1127f2cd403a315f,0,7,7,76,1,threeone,,,,,,,,,,,,,,,,,,,,,,,,,,,,,,,,,,,,,,,,,,,,,,,,,,,,,,,,,,,,,,,,,,,,,,,,,,,,,,,,,,,,,,,,,,,,,,,,,,,,,,,,,,,,,,,,,,,,,,,,,,,,,,,,,,,,,,,,,,,,,,,,,,,,,,,,,,,,
,,,,,,613a9da3c77e45388ba8a4c6,62c538b89489a96cabb6b523,2022-07-06_02h25.09.642,Colour_Asymmetry_Pilot,2022.1.3,Win32,15.00510173,62c50e9c1127f2cd403a315f,0,8,8,158,1,fourtwo,,,,,,,,,,,,,,,,,,,,,,,,,,,,,,,,,,,,,,,,,,,,,,,,,,,,,,,,,,,,,,,,,,,,,,,,,,,,,,,,,,,,,,,,,,,,,,,,,,,,,,,,,,,,,,,,,,,,,,,,,,,,,,,,,,,,,,,,,,,,,,,,,,,,,,,,,,,,
,,,,,,613a9da3c77e45388ba8a4c6,62c538b89489a96cabb6b523,2022-07-06_02h25.09.642,Colour_Asymmetry_Pilot,2022.1.3,Win32,15.00510173,62c50e9c1127f2cd403a315f,0,9,9,18,1,twoone,,,,,,,,,,,,,,,,,,,,,,,,,,,,,,,,,,,,,,,,,,,,,,,,,,,,,,,,,,,,,,,,,,,,,,,,,,,,,,,,,,,,,,,,,,,,,,,,,,,,,,,,,,,,,,,,,,,,,,,,,,,,,,,,,,,,,,,,,,,,,,,,,,,,,,,,,,,,
,,,,,,613a9da3c77e45388ba8a4c6,62c538b89489a96cabb6b523,2022-07-06_02h25.09.642,Colour_Asymmetry_Pilot,2022.1.3,Win32,15.00510173,62c50e9c1127f2cd403a315f,0,10,10,29,1,threefour,,,,,,,,,,,,,,,,,,,,,,,,,,,,,,,,,,,,,,,,,,,,,,,,,,,,,,,,,,,,,,,,,,,,,,,,,,,,,,,,,,,,,,,,,,,,,,,,,,,,,,,,,,,,,,,,,,,,,,,,,,,,,,,,,,,,,,,,,,,,,,,,,,,,,,,,,,,,
,,,,,,613a9da3c77e45388ba8a4c6,62c538b89489a96cabb6b523,2022-07-06_02h25.09.642,Colour_Asymmetry_Pilot,2022.1.3,Win32,15.00510173,62c50e9c1127f2cd403a315f,0,11,11,91,1,twofour,,,,,,,,,,,,,,,,,,,,,,,,,,,,,,,,,,,,,,,,,,,,,,,,,,,,,,,,,,,,,,,,,,,,,,,,,,,,,,,,,,,,,,,,,,,,,,,,,,,,,,,,,,,,,,,,,,,,,,,,,,,,,,,,,,,,,,,,,,,,,,,,,,,,,,,,,,,,
,,,,,,613a9da3c77e45388ba8a4c6,62c538b89489a96cabb6b523,2022-07-06_02h25.09.642,Colour_Asymmetry_Pilot,2022.1.3,Win32,15.00510173,62c50e9c1127f2cd403a315f,0,12,12,12,1,threeone,,,,,,,,,,,,,,,,,,,,,,,,,,,,,,,,,,,,,,,,,,,,,,,,,,,,,,,,,,,,,,,,,,,,,,,,,,,,,,,,,,,,,,,,,,,,,,,,,,,,,,,,,,,,,,,,,,,,,,,,,,,,,,,,,,,,,,,,,,,,,,,,,,,,,,,,,,,,
,,,,,,613a9da3c77e45388ba8a4c6,62c538b89489a96cabb6b523,2022-07-06_02h25.09.642,Colour_Asymmetry_Pilot,2022.1.3,Win32,15.00510173,62c50e9c1127f2cd403a315f,0,13,13,56,1,onetwo,,,,,,,,,,,,,,,,,,,,,,,,,,,,,,,,,,,,,,,,,,,,,,,,,,,,,,,,,,,,,,,,,,,,,,,,,,,,,,,,,,,,,,,,,,,,,,,,,,,,,,,,,,,,,,,,,,,,,,,,,,,,,,,,,,,,,,,,,,,,,,,,,,,,,,,,,,,,
,,,,,,613a9da3c77e45388ba8a4c6,62c538b89489a96cabb6b523,2022-07-06_02h25.09.642,Colour_Asymmetry_Pilot,2022.1.3,Win32,15.00510173,62c50e9c1127f2cd403a315f,0,14,14,126,1,fourtwo,,,,,,,,,,,,,,,,,,,,,,,,,,,,,,,,,,,,,,,,,,,,,,,,,,,,,,,,,,,,,,,,,,,,,,,,,,,,,,,,,,,,,,,,,,,,,,,,,,,,,,,,,,,,,,,,,,,,,,,,,,,,,,,,,,,,,,,,,,,,,,,,,,,,,,,,,,,,
,,,,,,613a9da3c77e45388ba8a4c6,62c538b89489a96cabb6b523,2022-07-06_02h25.09.642,Colour_Asymmetry_Pilot,2022.1.3,Win32,15.00510173,62c50e9c1127f2cd403a315f,0,15,15,57,1,onethree,,,,,,,,,,,,,,,,,,,,,,,,,,,,,,,,,,,,,,,,,,,,,,,,,,,,,,,,,,,,,,,,,,,,,,,,,,,,,,,,,,,,,,,,,,,,,,,,,,,,,,,,,,,,,,,,,,,,,,,,,,,,,,,,,,,,,,,,,,,,,,,,,,,,,,,,,,,,
,,,,,,613a9da3c77e45388ba8a4c6,62c538b89489a96cabb6b523,2022-07-06_02h25.09.642,Colour_Asymmetry_Pilot,2022.1.3,Win32,15.00510173,62c50e9c1127f2cd403a315f,0,16,16,152,1,onetwo,,,,,,,,,,,,,,,,,,,,,,,,,,,,,,,,,,,,,,,,,,,,,,,,,,,,,,,,,,,,,,,,,,,,,,,,,,,,,,,,,,,,,,,,,,,,,,,,,,,,,,,,,,,,,,,,,,,,,,,,,,,,,,,,,,,,,,,,,,,,,,,,,,,,,,,,,,,,
,,,,,,613a9da3c77e45388ba8a4c6,62c538b89489a96cabb6b523,2022-07-06_02h25.09.642,Colour_Asymmetry_Pilot,2022.1.3,Win32,15.00510173,62c50e9c1127f2cd403a315f,0,17,17,115,1,twofour,,,,,,,,,,,,,,,,,,,,,,,,,,,,,,,,,,,,,,,,,,,,,,,,,,,,,,,,,,,,,,,,,,,,,,,,,,,,,,,,,,,,,,,,,,,,,,,,,,,,,,,,,,,,,,,,,,,,,,,,,,,,,,,,,,,,,,,,,,,,,,,,,,,,,,,,,,,,
,,,,,,613a9da3c77e45388ba8a4c6,62c538b89489a96cabb6b523,2022-07-06_02h25.09.642,Colour_Asymmetry_Pilot,2022.1.3,Win32,15.00510173,62c50e9c1127f2cd403a315f,0,18,18,130,1,twoone,,,,,,,,,,,,,,,,,,,,,,,,,,,,,,,,,,,,,,,,,,,,,,,,,,,,,,,,,,,,,,,,,,,,,,,,,,,,,,,,,,,,,,,,,,,,,,,,,,,,,,,,,,,,,,,,,,,,,,,,,,,,,,,,,,,,,,,,,,,,,,,,,,,,,,,,,,,,
,,,,,,613a9da3c77e45388ba8a4c6,62c538b89489a96cabb6b523,2022-07-06_02h25.09.642,Colour_Asymmetry_Pilot,2022.1.3,Win32,15.00510173,62c50e9c1127f2cd403a315f,0,19,19,4,1,threeone,,,,,,,,,,,,,,,,,,,,,,,,,,,,,,,,,,,,,,,,,,,,,,,,,,,,,,,,,,,,,,,,,,,,,,,,,,,,,,,,,,,,,,,,,,,,,,,,,,,,,,,,,,,,,,,,,,,,,,,,,,,,,,,,,,,,,,,,,,,,,,,,,,,,,,,,,,,,
,,,,,,613a9da3c77e45388ba8a4c6,62c538b89489a96cabb6b523,2022-07-06_02h25.09.642,Colour_Asymmetry_Pilot,2022.1.3,Win32,15.00510173,62c50e9c1127f2cd403a315f,0,20,20,31,1,fourthree,,,,,,,,,,,,,,,,,,,,,,,,,,,,,,,,,,,,,,,,,,,,,,,,,,,,,,,,,,,,,,,,,,,,,,,,,,,,,,,,,,,,,,,,,,,,,,,,,,,,,,,,,,,,,,,,,,,,,,,,,,,,,,,,,,,,,,,,,,,,,,,,,,,,,,,,,,,,
,,,,,,613a9da3c77e45388ba8a4c6,62c538b89489a96cabb6b523,2022-07-06_02h25.09.642,Colour_Asymmetry_Pilot,2022.1.3,Win32,15.00510173,62c50e9c1127f2cd403a315f,0,21,21,154,1,twoone,,,,,,,,,,,,,,,,,,,,,,,,,,,,,,,,,,,,,,,,,,,,,,,,,,,,,,,,,,,,,,,,,,,,,,,,,,,,,,,,,,,,,,,,,,,,,,,,,,,,,,,,,,,,,,,,,,,,,,,,,,,,,,,,,,,,,,,,,,,,,,,,,,,,,,,,,,,,
,,,,,,613a9da3c77e45388ba8a4c6,62c538b89489a96cabb6b523,2022-07-06_02h25.09.642,Colour_Asymmetry_Pilot,2022.1.3,Win32,15.00510173,62c50e9c1127f2cd403a315f,0,22,22,71,1,fourthree,,,,,,,,,,,,,,,,,,,,,,,,,,,,,,,,,,,,,,,,,,,,,,,,,,,,,,,,,,,,,,,,,,,,,,,,,,,,,,,,,,,,,,,,,,,,,,,,,,,,,,,,,,,,,,,,,,,,,,,,,,,,,,,,,,,,,,,,,,,,,,,,,,,,,,,,,,,,
,,,,,,613a9da3c77e45388ba8a4c6,62c538b89489a96cabb6b523,2022-07-06_02h25.09.642,Colour_Asymmetry_Pilot,2022.1.3,Win32,15.00510173,62c50e9c1127f2cd403a315f,0,23,23,87,1,fourthree,,,,,,,,,,,,,,,,,,,,,,,,,,,,,,,,,,,,,,,,,,,,,,,,,,,,,,,,,,,,,,,,,,,,,,,,,,,,,,,,,,,,,,,,,,,,,,,,,,,,,,,,,,,,,,,,,,,,,,,,,,,,,,,,,,,,,,,,,,,,,,,,,,,,,,,,,,,,
,,,,,,613a9da3c77e45388ba8a4c6,62c538b89489a96cabb6b523,2022-07-06_02h25.09.642,Colour_Asymmetry_Pilot,2022.1.3,Win32,15.00510173,62c50e9c1127f2cd403a315f,0,24,24,156,1,threeone,,,,,,,,,,,,,,,,,,,,,,,,,,,,,,,,,,,,,,,,,,,,,,,,,,,,,,,,,,,,,,,,,,,,,,,,,,,,,,,,,,,,,,,,,,,,,,,,,,,,,,,,,,,,,,,,,,,,,,,,,,,,,,,,,,,,,,,,,,,,,,,,,,,,,,,,,,,,
,,,,,,613a9da3c77e45388ba8a4c6,62c538b89489a96cabb6b523,2022-07-06_02h25.09.642,Colour_Asymmetry_Pilot,2022.1.3,Win32,15.00510173,62c50e9c1127f2cd403a315f,0,25,25,26,1,twoone,,,,,,,,,,,,,,,,,,,,,,,,,,,,,,,,,,,,,,,,,,,,,,,,,,,,,,,,,,,,,,,,,,,,,,,,,,,,,,,,,,,,,,,,,,,,,,,,,,,,,,,,,,,,,,,,,,,,,,,,,,,,,,,,,,,,,,,,,,,,,,,,,,,,,,,,,,,,
,,,,,,613a9da3c77e45388ba8a4c6,62c538b89489a96cabb6b523,2022-07-06_02h25.09.642,Colour_Asymmetry_Pilot,2022.1.3,Win32,15.00510173,62c50e9c1127f2cd403a315f,0,26,26,97,1,onethree,,,,,,,,,,,,,,,,,,,,,,,,,,,,,,,,,,,,,,,,,,,,,,,,,,,,,,,,,,,,,,,,,,,,,,,,,,,,,,,,,,,,,,,,,,,,,,,,,,,,,,,,,,,,,,,,,,,,,,,,,,,,,,,,,,,,,,,,,,,,,,,,,,,,,,,,,,,,
,,,,,,613a9da3c77e45388ba8a4c6,62c538b89489a96cabb6b523,2022-07-06_02h25.09.642,Colour_Asymmetry_Pilot,2022.1.3,Win32,15.00510173,62c50e9c1127f2cd403a315f,0,27,27,30,1,fourtwo,,,,,,,,,,,,,,,,,,,,,,,,,,,,,,,,,,,,,,,,,,,,,,,,,,,,,,,,,,,,,,,,,,,,,,,,,,,,,,,,,,,,,,,,,,,,,,,,,,,,,,,,,,,,,,,,,,,,,,,,,,,,,,,,,,,,,,,,,,,,,,,,,,,,,,,,,,,,
,,,,,,613a9da3c77e45388ba8a4c6,62c538b89489a96cabb6b523,2022-07-06_02h25.09.642,Colour_Asymmetry_Pilot,2022.1.3,Win32,15.00510173,62c50e9c1127f2cd403a315f,0,28,28,141,1,threefour,,,,,,,,,,,,,,,,,,,,,,,,,,,,,,,,,,,,,,,,,,,,,,,,,,,,,,,,,,,,,,,,,,,,,,,,,,,,,,,,,,,,,,,,,,,,,,,,,,,,,,,,,,,,,,,,,,,,,,,,,,,,,,,,,,,,,,,,,,,,,,,,,,,,,,,,,,,,
,,,,,,613a9da3c77e45388ba8a4c6,62c538b89489a96cabb6b523,2022-07-06_02h25.09.642,Colour_Asymmetry_Pilot,2022.1.3,Win32,15.00510173,62c50e9c1127f2cd403a315f,0,29,29,159,1,fourthree,,,,,,,,,,,,,,,,,,,,,,,,,,,,,,,,,,,,,,,,,,,,,,,,,,,,,,,,,,,,,,,,,,,,,,,,,,,,,,,,,,,,,,,,,,,,,,,,,,,,,,,,,,,,,,,,,,,,,,,,,,,,,,,,,,,,,,,,,,,,,,,,,,,,,,,,,,,,
,,,,,,613a9da3c77e45388ba8a4c6,62c538b89489a96cabb6b523,2022-07-06_02h25.09.642,Colour_Asymmetry_Pilot,2022.1.3,Win32,15.00510173,62c50e9c1127f2cd403a315f,0,30,30,139,1,twofour,,,,,,,,,,,,,,,,,,,,,,,,,,,,,,,,,,,,,,,,,,,,,,,,,,,,,,,,,,,,,,,,,,,,,,,,,,,,,,,,,,,,,,,,,,,,,,,,,,,,,,,,,,,,,,,,,,,,,,,,,,,,,,,,,,,,,,,,,,,,,,,,,,,,,,,,,,,,
,,,,,,613a9da3c77e45388ba8a4c6,62c538b89489a96cabb6b523,2022-07-06_02h25.09.642,Colour_Asymmetry_Pilot,2022.1.3,Win32,15.00510173,62c50e9c1127f2cd403a315f,0,31,31,84,1,threeone,,,,,,,,,,,,,,,,,,,,,,,,,,,,,,,,,,,,,,,,,,,,,,,,,,,,,,,,,,,,,,,,,,,,,,,,,,,,,,,,,,,,,,,,,,,,,,,,,,,,,,,,,,,,,,,,,,,,,,,,,,,,,,,,,,,,,,,,,,,,,,,,,,,,,,,,,,,,
,,,,,,613a9da3c77e45388ba8a4c6,62c538b89489a96cabb6b523,2022-07-06_02h25.09.642,Colour_Asymmetry_Pilot,2022.1.3,Win32,15.00510173,62c50e9c1127f2cd403a315f,0,32,32,43,1,twofour,,,,,,,,,,,,,,,,,,,,,,,,,,,,,,,,,,,,,,,,,,,,,,,,,,,,,,,,,,,,,,,,,,,,,,,,,,,,,,,,,,,,,,,,,,,,,,,,,,,,,,,,,,,,,,,,,,,,,,,,,,,,,,,,,,,,,,,,,,,,,,,,,,,,,,,,,,,,
,,,,,,613a9da3c77e45388ba8a4c6,62c538b89489a96cabb6b523,2022-07-06_02h25.09.642,Colour_Asymmetry_Pilot,2022.1.3,Win32,15.00510173,62c50e9c1127f2cd403a315f,0,33,33,111,1,fourthree,,,,,,,,,,,,,,,,,,,,,,,,,,,,,,,,,,,,,,,,,,,,,,,,,,,,,,,,,,,,,,,,,,,,,,,,,,,,,,,,,,,,,,,,,,,,,,,,,,,,,,,,,,,,,,,,,,,,,,,,,,,,,,,,,,,,,,,,,,,,,,,,,,,,,,,,,,,,
,,,,,,613a9da3c77e45388ba8a4c6,62c538b89489a96cabb6b523,2022-07-06_02h25.09.642,Colour_Asymmetry_Pilot,2022.1.3,Win32,15.00510173,62c50e9c1127f2cd403a315f,0,34,34,89,1,onethree,,,,,,,,,,,,,,,,,,,,,,,,,,,,,,,,,,,,,,,,,,,,,,,,,,,,,,,,,,,,,,,,,,,,,,,,,,,,,,,,,,,,,,,,,,,,,,,,,,,,,,,,,,,,,,,,,,,,,,,,,,,,,,,,,,,,,,,,,,,,,,,,,,,,,,,,,,,,
,,,,,,613a9da3c77e45388ba8a4c6,62c538b89489a96cabb6b523,2022-07-06_02h25.09.642,Colour_Asymmetry_Pilot,2022.1.3,Win32,15.00510173,62c50e9c1127f2cd403a315f,0,35,35,101,1,threefour,,,,,,,,,,,,,,,,,,,,,,,,,,,,,,,,,,,,,,,,,,,,,,,,,,,,,,,,,,,,,,,,,,,,,,,,,,,,,,,,,,,,,,,,,,,,,,,,,,,,,,,,,,,,,,,,,,,,,,,,,,,,,,,,,,,,,,,,,,,,,,,,,,,,,,,,,,,,
,,,,,,613a9da3c77e45388ba8a4c6,62c538b89489a96cabb6b523,2022-07-06_02h25.09.642,Colour_Asymmetry_Pilot,2022.1.3,Win32,15.00510173,62c50e9c1127f2cd403a315f,0,36,36,33,1,onethree,,,,,,,,,,,,,,,,,,,,,,,,,,,,,,,,,,,,,,,,,,,,,,,,,,,,,,,,,,,,,,,,,,,,,,,,,,,,,,,,,,,,,,,,,,,,,,,,,,,,,,,,,,,,,,,,,,,,,,,,,,,,,,,,,,,,,,,,,,,,,,,,,,,,,,,,,,,,
,,,,,,613a9da3c77e45388ba8a4c6,62c538b89489a96cabb6b523,2022-07-06_02h25.09.642,Colour_Asymmetry_Pilot,2022.1.3,Win32,15.00510173,62c50e9c1127f2cd403a315f,0,37,37,41,1,onethree,,,,,,,,,,,,,,,,,,,,,,,,,,,,,,,,,,,,,,,,,,,,,,,,,,,,,,,,,,,,,,,,,,,,,,,,,,,,,,,,,,,,,,,,,,,,,,,,,,,,,,,,,,,,,,,,,,,,,,,,,,,,,,,,,,,,,,,,,,,,,,,,,,,,,,,,,,,,
,,,,,,613a9da3c77e45388ba8a4c6,62c538b89489a96cabb6b523,2022-07-06_02h25.09.642,Colour_Asymmetry_Pilot,2022.1.3,Win32,15.00510173,62c50e9c1127f2cd403a315f,0,38,38,34,1,twoone,,,,,,,,,,,,,,,,,,,,,,,,,,,,,,,,,,,,,,,,,,,,,,,,,,,,,,,,,,,,,,,,,,,,,,,,,,,,,,,,,,,,,,,,,,,,,,,,,,,,,,,,,,,,,,,,,,,,,,,,,,,,,,,,,,,,,,,,,,,,,,,,,,,,,,,,,,,,
,,,,,,613a9da3c77e45388ba8a4c6,62c538b89489a96cabb6b523,2022-07-06_02h25.09.642,Colour_Asymmetry_Pilot,2022.1.3,Win32,15.00510173,62c50e9c1127f2cd403a315f,0,39,39,109,1,threefour,,,,,,,,,,,,,,,,,,,,,,,,,,,,,,,,,,,,,,,,,,,,,,,,,,,,,,,,,,,,,,,,,,,,,,,,,,,,,,,,,,,,,,,,,,,,,,,,,,,,,,,,,,,,,,,,,,,,,,,,,,,,,,,,,,,,,,,,,,,,,,,,,,,,,,,,,,,,
,,,,,,613a9da3c77e45388ba8a4c6,62c538b89489a96cabb6b523,2022-07-06_02h25.09.642,Colour_Asymmetry_Pilot,2022.1.3,Win32,15.00510173,62c50e9c1127f2cd403a315f,0,40,40,59,1,twofour,,,,,,,,,,,,,,,,,,,,,,,,,,,,,,,,,,,,,,,,,,,,,,,,,,,,,,,,,,,,,,,,,,,,,,,,,,,,,,,,,,,,,,,,,,,,,,,,,,,,,,,,,,,,,,,,,,,,,,,,,,,,,,,,,,,,,,,,,,,,,,,,,,,,,,,,,,,,
,,,,,,613a9da3c77e45388ba8a4c6,62c538b89489a96cabb6b523,2022-07-06_02h25.09.642,Colour_Asymmetry_Pilot,2022.1.3,Win32,15.00510173,62c50e9c1127f2cd403a315f,0,41,41,103,1,fourthree,,,,,,,,,,,,,,,,,,,,,,,,,,,,,,,,,,,,,,,,,,,,,,,,,,,,,,,,,,,,,,,,,,,,,,,,,,,,,,,,,,,,,,,,,,,,,,,,,,,,,,,,,,,,,,,,,,,,,,,,,,,,,,,,,,,,,,,,,,,,,,,,,,,,,,,,,,,,
,,,,,,613a9da3c77e45388ba8a4c6,62c538b89489a96cabb6b523,2022-07-06_02h25.09.642,Colour_Asymmetry_Pilot,2022.1.3,Win32,15.00510173,62c50e9c1127f2cd403a315f,0,42,42,137,1,onethree,,,,,,,,,,,,,,,,,,,,,,,,,,,,,,,,,,,,,,,,,,,,,,,,,,,,,,,,,,,,,,,,,,,,,,,,,,,,,,,,,,,,,,,,,,,,,,,,,,,,,,,,,,,,,,,,,,,,,,,,,,,,,,,,,,,,,,,,,,,,,,,,,,,,,,,,,,,,
,,,,,,613a9da3c77e45388ba8a4c6,62c538b89489a96cabb6b523,2022-07-06_02h25.09.642,Colour_Asymmetry_Pilot,2022.1.3,Win32,15.00510173,62c50e9c1127f2cd403a315f,0,43,43,60,1,threeone,,,,,,,,,,,,,,,,,,,,,,,,,,,,,,,,,,,,,,,,,,,,,,,,,,,,,,,,,,,,,,,,,,,,,,,,,,,,,,,,,,,,,,,,,,,,,,,,,,,,,,,,,,,,,,,,,,,,,,,,,,,,,,,,,,,,,,,,,,,,,,,,,,,,,,,,,,,,
,,,,,,613a9da3c77e45388ba8a4c6,62c538b89489a96cabb6b523,2022-07-06_02h25.09.642,Colour_Asymmetry_Pilot,2022.1.3,Win32,15.00510173,62c50e9c1127f2cd403a315f,0,44,44,94,1,fourtwo,,,,,,,,,,,,,,,,,,,,,,,,,,,,,,,,,,,,,,,,,,,,,,,,,,,,,,,,,,,,,,,,,,,,,,,,,,,,,,,,,,,,,,,,,,,,,,,,,,,,,,,,,,,,,,,,,,,,,,,,,,,,,,,,,,,,,,,,,,,,,,,,,,,,,,,,,,,,
,,,,,,613a9da3c77e45388ba8a4c6,62c538b89489a96cabb6b523,2022-07-06_02h25.09.642,Colour_Asymmetry_Pilot,2022.1.3,Win32,15.00510173,62c50e9c1127f2cd403a315f,0,45,45,96,1,onetwo,,,,,,,,,,,,,,,,,,,,,,,,,,,,,,,,,,,,,,,,,,,,,,,,,,,,,,,,,,,,,,,,,,,,,,,,,,,,,,,,,,,,,,,,,,,,,,,,,,,,,,,,,,,,,,,,,,,,,,,,,,,,,,,,,,,,,,,,,,,,,,,,,,,,,,,,,,,,
,,,,,,613a9da3c77e45388ba8a4c6,62c538b89489a96cabb6b523,2022-07-06_02h25.09.642,Colour_Asymmetry_Pilot,2022.1.3,Win32,15.00510173,62c50e9c1127f2cd403a315f,0,46,46,55,1,fourthree,,,,,,,,,,,,,,,,,,,,,,,,,,,,,,,,,,,,,,,,,,,,,,,,,,,,,,,,,,,,,,,,,,,,,,,,,,,,,,,,,,,,,,,,,,,,,,,,,,,,,,,,,,,,,,,,,,,,,,,,,,,,,,,,,,,,,,,,,,,,,,,,,,,,,,,,,,,,
,,,,,,613a9da3c77e45388ba8a4c6,62c538b89489a96cabb6b523,2022-07-06_02h25.09.642,Colour_Asymmetry_Pilot,2022.1.3,Win32,15.00510173,62c50e9c1127f2cd403a315f,0,47,47,17,1,onethree,,,,,,,,,,,,,,,,,,,,,,,,,,,,,,,,,,,,,,,,,,,,,,,,,,,,,,,,,,,,,,,,,,,,,,,,,,,,,,,,,,,,,,,,,,,,,,,,,,,,,,,,,,,,,,,,,,,,,,,,,,,,,,,,,,,,,,,,,,,,,,,,,,,,,,,,,,,,
,,,,,,613a9da3c77e45388ba8a4c6,62c538b89489a96cabb6b523,2022-07-06_02h25.09.642,Colour_Asymmetry_Pilot,2022.1.3,Win32,15.00510173,62c50e9c1127f2cd403a315f,0,48,48,36,1,threeone,,,,,,,,,,,,,,,,,,,,,,,,,,,,,,,,,,,,,,,,,,,,,,,,,,,,,,,,,,,,,,,,,,,,,,,,,,,,,,,,,,,,,,,,,,,,,,,,,,,,,,,,,,,,,,,,,,,,,,,,,,,,,,,,,,,,,,,,,,,,,,,,,,,,,,,,,,,,
,,,,,,613a9da3c77e45388ba8a4c6,62c538b89489a96cabb6b523,2022-07-06_02h25.09.642,Colour_Asymmetry_Pilot,2022.1.3,Win32,15.00510173,62c50e9c1127f2cd403a315f,0,49,49,86,1,fourtwo,,,,,,,,,,,,,,,,,,,,,,,,,,,,,,,,,,,,,,,,,,,,,,,,,,,,,,,,,,,,,,,,,,,,,,,,,,,,,,,,,,,,,,,,,,,,,,,,,,,,,,,,,,,,,,,,,,,,,,,,,,,,,,,,,,,,,,,,,,,,,,,,,,,,,,,,,,,,
,,,,,,613a9da3c77e45388ba8a4c6,62c538b89489a96cabb6b523,2022-07-06_02h25.09.642,Colour_Asymmetry_Pilot,2022.1.3,Win32,15.00510173,62c50e9c1127f2cd403a315f,0,50,50,133,1,threefour,,,,,,,,,,,,,,,,,,,,,,,,,,,,,,,,,,,,,,,,,,,,,,,,,,,,,,,,,,,,,,,,,,,,,,,,,,,,,,,,,,,,,,,,,,,,,,,,,,,,,,,,,,,,,,,,,,,,,,,,,,,,,,,,,,,,,,,,,,,,,,,,,,,,,,,,,,,,
,,,,,,613a9da3c77e45388ba8a4c6,62c538b89489a96cabb6b523,2022-07-06_02h25.09.642,Colour_Asymmetry_Pilot,2022.1.3,Win32,15.00510173,62c50e9c1127f2cd403a315f,0,51,51,25,1,onethree,,,,,,,,,,,,,,,,,,,,,,,,,,,,,,,,,,,,,,,,,,,,,,,,,,,,,,,,,,,,,,,,,,,,,,,,,,,,,,,,,,,,,,,,,,,,,,,,,,,,,,,,,,,,,,,,,,,,,,,,,,,,,,,,,,,,,,,,,,,,,,,,,,,,,,,,,,,,
,,,,,,613a9da3c77e45388ba8a4c6,62c538b89489a96cabb6b523,2022-07-06_02h25.09.642,Colour_Asymmetry_Pilot,2022.1.3,Win32,15.00510173,62c50e9c1127f2cd403a315f,0,52,52,80,1,onetwo,,,,,,,,,,,,,,,,,,,,,,,,,,,,,,,,,,,,,,,,,,,,,,,,,,,,,,,,,,,,,,,,,,,,,,,,,,,,,,,,,,,,,,,,,,,,,,,,,,,,,,,,,,,,,,,,,,,,,,,,,,,,,,,,,,,,,,,,,,,,,,,,,,,,,,,,,,,,
,,,,,,613a9da3c77e45388ba8a4c6,62c538b89489a96cabb6b523,2022-07-06_02h25.09.642,Colour_Asymmetry_Pilot,2022.1.3,Win32,15.00510173,62c50e9c1127f2cd403a315f,0,53,53,20,1,threeone,,,,,,,,,,,,,,,,,,,,,,,,,,,,,,,,,,,,,,,,,,,,,,,,,,,,,,,,,,,,,,,,,,,,,,,,,,,,,,,,,,,,,,,,,,,,,,,,,,,,,,,,,,,,,,,,,,,,,,,,,,,,,,,,,,,,,,,,,,,,,,,,,,,,,,,,,,,,
,,,,,,613a9da3c77e45388ba8a4c6,62c538b89489a96cabb6b523,2022-07-06_02h25.09.642,Colour_Asymmetry_Pilot,2022.1.3,Win32,15.00510173,62c50e9c1127f2cd403a315f,0,54,54,64,1,onetwo,,,,,,,,,,,,,,,,,,,,,,,,,,,,,,,,,,,,,,,,,,,,,,,,,,,,,,,,,,,,,,,,,,,,,,,,,,,,,,,,,,,,,,,,,,,,,,,,,,,,,,,,,,,,,,,,,,,,,,,,,,,,,,,,,,,,,,,,,,,,,,,,,,,,,,,,,,,,
,,,,,,613a9da3c77e45388ba8a4c6,62c538b89489a96cabb6b523,2022-07-06_02h25.09.642,Colour_Asymmetry_Pilot,2022.1.3,Win32,15.00510173,62c50e9c1127f2cd403a315f,0,55,55,85,1,threefour,,,,,,,,,,,,,,,,,,,,,,,,,,,,,,,,,,,,,,,,,,,,,,,,,,,,,,,,,,,,,,,,,,,,,,,,,,,,,,,,,,,,,,,,,,,,,,,,,,,,,,,,,,,,,,,,,,,,,,,,,,,,,,,,,,,,,,,,,,,,,,,,,,,,,,,,,,,,
,,,,,,613a9da3c77e45388ba8a4c6,62c538b89489a96cabb6b523,2022-07-06_02h25.09.642,Colour_Asymmetry_Pilot,2022.1.3,Win32,15.00510173,62c50e9c1127f2cd403a315f,0,56,56,69,1,threefour,,,,,,,,,,,,,,,,,,,,,,,,,,,,,,,,,,,,,,,,,,,,,,,,,,,,,,,,,,,,,,,,,,,,,,,,,,,,,,,,,,,,,,,,,,,,,,,,,,,,,,,,,,,,,,,,,,,,,,,,,,,,,,,,,,,,,,,,,,,,,,,,,,,,,,,,,,,,
,,,,,,613a9da3c77e45388ba8a4c6,62c538b89489a96cabb6b523,2022-07-06_02h25.09.642,Colour_Asymmetry_Pilot,2022.1.3,Win32,15.00510173,62c50e9c1127f2cd403a315f,0,57,57,40,1,onetwo,,,,,,,,,,,,,,,,,,,,,,,,,,,,,,,,,,,,,,,,,,,,,,,,,,,,,,,,,,,,,,,,,,,,,,,,,,,,,,,,,,,,,,,,,,,,,,,,,,,,,,,,,,,,,,,,,,,,,,,,,,,,,,,,,,,,,,,,,,,,,,,,,,,,,,,,,,,,
,,,,,,613a9da3c77e45388ba8a4c6,62c538b89489a96cabb6b523,2022-07-06_02h25.09.642,Colour_Asymmetry_Pilot,2022.1.3,Win32,15.00510173,62c50e9c1127f2cd403a315f,0,58,58,19,1,twofour,,,,,,,,,,,,,,,,,,,,,,,,,,,,,,,,,,,,,,,,,,,,,,,,,,,,,,,,,,,,,,,,,,,,,,,,,,,,,,,,,,,,,,,,,,,,,,,,,,,,,,,,,,,,,,,,,,,,,,,,,,,,,,,,,,,,,,,,,,,,,,,,,,,,,,,,,,,,
,,,,,,613a9da3c77e45388ba8a4c6,62c538b89489a96cabb6b523,2022-07-06_02h25.09.642,Colour_Asymmetry_Pilot,2022.1.3,Win32,15.00510173,62c50e9c1127f2cd403a315f,0,59,59,100,1,threeone,,,,,,,,,,,,,,,,,,,,,,,,,,,,,,,,,,,,,,,,,,,,,,,,,,,,,,,,,,,,,,,,,,,,,,,,,,,,,,,,,,,,,,,,,,,,,,,,,,,,,,,,,,,,,,,,,,,,,,,,,,,,,,,,,,,,,,,,,,,,,,,,,,,,,,,,,,,,
,,,,,,613a9da3c77e45388ba8a4c6,62c538b89489a96cabb6b523,2022-07-06_02h25.09.642,Colour_Asymmetry_Pilot,2022.1.3,Win32,15.00510173,62c50e9c1127f2cd403a315f,0,60,60,105,1,onethree,,,,,,,,,,,,,,,,,,,,,,,,,,,,,,,,,,,,,,,,,,,,,,,,,,,,,,,,,,,,,,,,,,,,,,,,,,,,,,,,,,,,,,,,,,,,,,,,,,,,,,,,,,,,,,,,,,,,,,,,,,,,,,,,,,,,,,,,,,,,,,,,,,,,,,,,,,,,
,,,,,,613a9da3c77e45388ba8a4c6,62c538b89489a96cabb6b523,2022-07-06_02h25.09.642,Colour_Asymmetry_Pilot,2022.1.3,Win32,15.00510173,62c50e9c1127f2cd403a315f,0,61,61,104,1,onetwo,,,,,,,,,,,,,,,,,,,,,,,,,,,,,,,,,,,,,,,,,,,,,,,,,,,,,,,,,,,,,,,,,,,,,,,,,,,,,,,,,,,,,,,,,,,,,,,,,,,,,,,,,,,,,,,,,,,,,,,,,,,,,,,,,,,,,,,,,,,,,,,,,,,,,,,,,,,,
,,,,,,613a9da3c77e45388ba8a4c6,62c538b89489a96cabb6b523,2022-07-06_02h25.09.642,Colour_Asymmetry_Pilot,2022.1.3,Win32,15.00510173,62c50e9c1127f2cd403a315f,0,62,62,38,1,fourtwo,,,,,,,,,,,,,,,,,,,,,,,,,,,,,,,,,,,,,,,,,,,,,,,,,,,,,,,,,,,,,,,,,,,,,,,,,,,,,,,,,,,,,,,,,,,,,,,,,,,,,,,,,,,,,,,,,,,,,,,,,,,,,,,,,,,,,,,,,,,,,,,,,,,,,,,,,,,,
,,,,,,613a9da3c77e45388ba8a4c6,62c538b89489a96cabb6b523,2022-07-06_02h25.09.642,Colour_Asymmetry_Pilot,2022.1.3,Win32,15.00510173,62c50e9c1127f2cd403a315f,0,63,63,82,1,twoone,,,,,,,,,,,,,,,,,,,,,,,,,,,,,,,,,,,,,,,,,,,,,,,,,,,,,,,,,,,,,,,,,,,,,,,,,,,,,,,,,,,,,,,,,,,,,,,,,,,,,,,,,,,,,,,,,,,,,,,,,,,,,,,,,,,,,,,,,,,,,,,,,,,,,,,,,,,,
,,,,,,613a9da3c77e45388ba8a4c6,62c538b89489a96cabb6b523,2022-07-06_02h25.09.642,Colour_Asymmetry_Pilot,2022.1.3,Win32,15.00510173,62c50e9c1127f2cd403a315f,0,64,64,143,1,fourthree,,,,,,,,,,,,,,,,,,,,,,,,,,,,,,,,,,,,,,,,,,,,,,,,,,,,,,,,,,,,,,,,,,,,,,,,,,,,,,,,,,,,,,,,,,,,,,,,,,,,,,,,,,,,,,,,,,,,,,,,,,,,,,,,,,,,,,,,,,,,,,,,,,,,,,,,,,,,
,,,,,,613a9da3c77e45388ba8a4c6,62c538b89489a96cabb6b523,2022-07-06_02h25.09.642,Colour_Asymmetry_Pilot,2022.1.3,Win32,15.00510173,62c50e9c1127f2cd403a315f,0,65,65,160,1,onetwo,,,,,,,,,,,,,,,,,,,,,,,,,,,,,,,,,,,,,,,,,,,,,,,,,,,,,,,,,,,,,,,,,,,,,,,,,,,,,,,,,,,,,,,,,,,,,,,,,,,,,,,,,,,,,,,,,,,,,,,,,,,,,,,,,,,,,,,,,,,,,,,,,,,,,,,,,,,,
,,,,,,613a9da3c77e45388ba8a4c6,62c538b89489a96cabb6b523,2022-07-06_02h25.09.642,Colour_Asymmetry_Pilot,2022.1.3,Win32,15.00510173,62c50e9c1127f2cd403a315f,0,66,66,112,1,onetwo,,,,,,,,,,,,,,,,,,,,,,,,,,,,,,,,,,,,,,,,,,,,,,,,,,,,,,,,,,,,,,,,,,,,,,,,,,,,,,,,,,,,,,,,,,,,,,,,,,,,,,,,,,,,,,,,,,,,,,,,,,,,,,,,,,,,,,,,,,,,,,,,,,,,,,,,,,,,
,,,,,,613a9da3c77e45388ba8a4c6,62c538b89489a96cabb6b523,2022-07-06_02h25.09.642,Colour_Asymmetry_Pilot,2022.1.3,Win32,15.00510173,62c50e9c1127f2cd403a315f,0,67,67,140,1,threeone,,,,,,,,,,,,,,,,,,,,,,,,,,,,,,,,,,,,,,,,,,,,,,,,,,,,,,,,,,,,,,,,,,,,,,,,,,,,,,,,,,,,,,,,,,,,,,,,,,,,,,,,,,,,,,,,,,,,,,,,,,,,,,,,,,,,,,,,,,,,,,,,,,,,,,,,,,,,
,,,,,,613a9da3c77e45388ba8a4c6,62c538b89489a96cabb6b523,2022-07-06_02h25.09.642,Colour_Asymmetry_Pilot,2022.1.3,Win32,15.00510173,62c50e9c1127f2cd403a315f,0,68,68,70,1,fourtwo,,,,,,,,,,,,,,,,,,,,,,,,,,,,,,,,,,,,,,,,,,,,,,,,,,,,,,,,,,,,,,,,,,,,,,,,,,,,,,,,,,,,,,,,,,,,,,,,,,,,,,,,,,,,,,,,,,,,,,,,,,,,,,,,,,,,,,,,,,,,,,,,,,,,,,,,,,,,
,,,,,,613a9da3c77e45388ba8a4c6,62c538b89489a96cabb6b523,2022-07-06_02h25.09.642,Colour_Asymmetry_Pilot,2022.1.3,Win32,15.00510173,62c50e9c1127f2cd403a315f,0,69,69,2,1,twoone,,,,,,,,,,,,,,,,,,,,,,,,,,,,,,,,,,,,,,,,,,,,,,,,,,,,,,,,,,,,,,,,,,,,,,,,,,,,,,,,,,,,,,,,,,,,,,,,,,,,,,,,,,,,,,,,,,,,,,,,,,,,,,,,,,,,,,,,,,,,,,,,,,,,,,,,,,,,
,,,,,,613a9da3c77e45388ba8a4c6,62c538b89489a96cabb6b523,2022-07-06_02h25.09.642,Colour_Asymmetry_Pilot,2022.1.3,Win32,15.00510173,62c50e9c1127f2cd403a315f,0,70,70,39,1,fourthree,,,,,,,,,,,,,,,,,,,,,,,,,,,,,,,,,,,,,,,,,,,,,,,,,,,,,,,,,,,,,,,,,,,,,,,,,,,,,,,,,,,,,,,,,,,,,,,,,,,,,,,,,,,,,,,,,,,,,,,,,,,,,,,,,,,,,,,,,,,,,,,,,,,,,,,,,,,,
,,,,,,613a9da3c77e45388ba8a4c6,62c538b89489a96cabb6b523,2022-07-06_02h25.09.642,Colour_Asymmetry_Pilot,2022.1.3,Win32,15.00510173,62c50e9c1127f2cd403a315f,0,71,71,145,1,onethree,,,,,,,,,,,,,,,,,,,,,,,,,,,,,,,,,,,,,,,,,,,,,,,,,,,,,,,,,,,,,,,,,,,,,,,,,,,,,,,,,,,,,,,,,,,,,,,,,,,,,,,,,,,,,,,,,,,,,,,,,,,,,,,,,,,,,,,,,,,,,,,,,,,,,,,,,,,,
,,,,,,613a9da3c77e45388ba8a4c6,62c538b89489a96cabb6b523,2022-07-06_02h25.09.642,Colour_Asymmetry_Pilot,2022.1.3,Win32,15.00510173,62c50e9c1127f2cd403a315f,0,72,72,10,1,twoone,,,,,,,,,,,,,,,,,,,,,,,,,,,,,,,,,,,,,,,,,,,,,,,,,,,,,,,,,,,,,,,,,,,,,,,,,,,,,,,,,,,,,,,,,,,,,,,,,,,,,,,,,,,,,,,,,,,,,,,,,,,,,,,,,,,,,,,,,,,,,,,,,,,,,,,,,,,,
,,,,,,613a9da3c77e45388ba8a4c6,62c538b89489a96cabb6b523,2022-07-06_02h25.09.642,Colour_Asymmetry_Pilot,2022.1.3,Win32,15.00510173,62c50e9c1127f2cd403a315f,0,73,73,78,1,fourtwo,,,,,,,,,,,,,,,,,,,,,,,,,,,,,,,,,,,,,,,,,,,,,,,,,,,,,,,,,,,,,,,,,,,,,,,,,,,,,,,,,,,,,,,,,,,,,,,,,,,,,,,,,,,,,,,,,,,,,,,,,,,,,,,,,,,,,,,,,,,,,,,,,,,,,,,,,,,,
,,,,,,613a9da3c77e45388ba8a4c6,62c538b89489a96cabb6b523,2022-07-06_02h25.09.642,Colour_Asymmetry_Pilot,2022.1.3,Win32,15.00510173,62c50e9c1127f2cd403a315f,0,74,74,52,1,threeone,,,,,,,,,,,,,,,,,,,,,,,,,,,,,,,,,,,,,,,,,,,,,,,,,,,,,,,,,,,,,,,,,,,,,,,,,,,,,,,,,,,,,,,,,,,,,,,,,,,,,,,,,,,,,,,,,,,,,,,,,,,,,,,,,,,,,,,,,,,,,,,,,,,,,,,,,,,,
,,,,,,613a9da3c77e45388ba8a4c6,62c538b89489a96cabb6b523,2022-07-06_02h25.09.642,Colour_Asymmetry_Pilot,2022.1.3,Win32,15.00510173,62c50e9c1127f2cd403a315f,0,75,75,88,1,onetwo,,,,,,,,,,,,,,,,,,,,,,,,,,,,,,,,,,,,,,,,,,,,,,,,,,,,,,,,,,,,,,,,,,,,,,,,,,,,,,,,,,,,,,,,,,,,,,,,,,,,,,,,,,,,,,,,,,,,,,,,,,,,,,,,,,,,,,,,,,,,,,,,,,,,,,,,,,,,
,,,,,,613a9da3c77e45388ba8a4c6,62c538b89489a96cabb6b523,2022-07-06_02h25.09.642,Colour_Asymmetry_Pilot,2022.1.3,Win32,15.00510173,62c50e9c1127f2cd403a315f,0,76,76,114,1,twoone,,,,,,,,,,,,,,,,,,,,,,,,,,,,,,,,,,,,,,,,,,,,,,,,,,,,,,,,,,,,,,,,,,,,,,,,,,,,,,,,,,,,,,,,,,,,,,,,,,,,,,,,,,,,,,,,,,,,,,,,,,,,,,,,,,,,,,,,,,,,,,,,,,,,,,,,,,,,
,,,,,,613a9da3c77e45388ba8a4c6,62c538b89489a96cabb6b523,2022-07-06_02h25.09.642,Colour_Asymmetry_Pilot,2022.1.3,Win32,15.00510173,62c50e9c1127f2cd403a315f,0,77,77,147,1,twofour,,,,,,,,,,,,,,,,,,,,,,,,,,,,,,,,,,,,,,,,,,,,,,,,,,,,,,,,,,,,,,,,,,,,,,,,,,,,,,,,,,,,,,,,,,,,,,,,,,,,,,,,,,,,,,,,,,,,,,,,,,,,,,,,,,,,,,,,,,,,,,,,,,,,,,,,,,,,
,,,,,,613a9da3c77e45388ba8a4c6,62c538b89489a96cabb6b523,2022-07-06_02h25.09.642,Colour_Asymmetry_Pilot,2022.1.3,Win32,15.00510173,62c50e9c1127f2cd403a315f,0,78,78,11,1,twofour,,,,,,,,,,,,,,,,,,,,,,,,,,,,,,,,,,,,,,,,,,,,,,,,,,,,,,,,,,,,,,,,,,,,,,,,,,,,,,,,,,,,,,,,,,,,,,,,,,,,,,,,,,,,,,,,,,,,,,,,,,,,,,,,,,,,,,,,,,,,,,,,,,,,,,,,,,,,
,,,,,,613a9da3c77e45388ba8a4c6,62c538b89489a96cabb6b523,2022-07-06_02h25.09.642,Colour_Asymmetry_Pilot,2022.1.3,Win32,15.00510173,62c50e9c1127f2cd403a315f,0,79,79,136,1,onetwo,,,,,,,,,,,,,,,,,,,,,,,,,,,,,,,,,,,,,,,,,,,,,,,,,,,,,,,,,,,,,,,,,,,,,,,,,,,,,,,,,,,,,,,,,,,,,,,,,,,,,,,,,,,,,,,,,,,,,,,,,,,,,,,,,,,,,,,,,,,,,,,,,,,,,,,,,,,,
,,,,,,613a9da3c77e45388ba8a4c6,62c538b89489a96cabb6b523,2022-07-06_02h25.09.642,Colour_Asymmetry_Pilot,2022.1.3,Win32,15.00510173,62c50e9c1127f2cd403a315f,0,80,80,6,1,fourtwo,,,,,,,,,,,,,,,,,,,,,,,,,,,,,,,,,,,,,,,,,,,,,,,,,,,,,,,,,,,,,,,,,,,,,,,,,,,,,,,,,,,,,,,,,,,,,,,,,,,,,,,,,,,,,,,,,,,,,,,,,,,,,,,,,,,,,,,,,,,,,,,,,,,,,,,,,,,,
,,,,,,613a9da3c77e45388ba8a4c6,62c538b89489a96cabb6b523,2022-07-06_02h25.09.642,Colour_Asymmetry_Pilot,2022.1.3,Win32,15.00510173,62c50e9c1127f2cd403a315f,0,81,81,42,1,twoone,,,,,,,,,,,,,,,,,,,,,,,,,,,,,,,,,,,,,,,,,,,,,,,,,,,,,,,,,,,,,,,,,,,,,,,,,,,,,,,,,,,,,,,,,,,,,,,,,,,,,,,,,,,,,,,,,,,,,,,,,,,,,,,,,,,,,,,,,,,,,,,,,,,,,,,,,,,,
,,,,,,613a9da3c77e45388ba8a4c6,62c538b89489a96cabb6b523,2022-07-06_02h25.09.642,Colour_Asymmetry_Pilot,2022.1.3,Win32,15.00510173,62c50e9c1127f2cd403a315f,0,82,82,107,1,twofour,,,,,,,,,,,,,,,,,,,,,,,,,,,,,,,,,,,,,,,,,,,,,,,,,,,,,,,,,,,,,,,,,,,,,,,,,,,,,,,,,,,,,,,,,,,,,,,,,,,,,,,,,,,,,,,,,,,,,,,,,,,,,,,,,,,,,,,,,,,,,,,,,,,,,,,,,,,,
,,,,,,613a9da3c77e45388ba8a4c6,62c538b89489a96cabb6b523,2022-07-06_02h25.09.642,Colour_Asymmetry_Pilot,2022.1.3,Win32,15.00510173,62c50e9c1127f2cd403a315f,0,83,83,135,1,fourthree,,,,,,,,,,,,,,,,,,,,,,,,,,,,,,,,,,,,,,,,,,,,,,,,,,,,,,,,,,,,,,,,,,,,,,,,,,,,,,,,,,,,,,,,,,,,,,,,,,,,,,,,,,,,,,,,,,,,,,,,,,,,,,,,,,,,,,,,,,,,,,,,,,,,,,,,,,,,
,,,,,,613a9da3c77e45388ba8a4c6,62c538b89489a96cabb6b523,2022-07-06_02h25.09.642,Colour_Asymmetry_Pilot,2022.1.3,Win32,15.00510173,62c50e9c1127f2cd403a315f,0,84,84,21,1,threefour,,,,,,,,,,,,,,,,,,,,,,,,,,,,,,,,,,,,,,,,,,,,,,,,,,,,,,,,,,,,,,,,,,,,,,,,,,,,,,,,,,,,,,,,,,,,,,,,,,,,,,,,,,,,,,,,,,,,,,,,,,,,,,,,,,,,,,,,,,,,,,,,,,,,,,,,,,,,
,,,,,,613a9da3c77e45388ba8a4c6,62c538b89489a96cabb6b523,2022-07-06_02h25.09.642,Colour_Asymmetry_Pilot,2022.1.3,Win32,15.00510173,62c50e9c1127f2cd403a315f,0,85,85,83,1,twofour,,,,,,,,,,,,,,,,,,,,,,,,,,,,,,,,,,,,,,,,,,,,,,,,,,,,,,,,,,,,,,,,,,,,,,,,,,,,,,,,,,,,,,,,,,,,,,,,,,,,,,,,,,,,,,,,,,,,,,,,,,,,,,,,,,,,,,,,,,,,,,,,,,,,,,,,,,,,
,,,,,,613a9da3c77e45388ba8a4c6,62c538b89489a96cabb6b523,2022-07-06_02h25.09.642,Colour_Asymmetry_Pilot,2022.1.3,Win32,15.00510173,62c50e9c1127f2cd403a315f,0,86,86,54,1,fourtwo,,,,,,,,,,,,,,,,,,,,,,,,,,,,,,,,,,,,,,,,,,,,,,,,,,,,,,,,,,,,,,,,,,,,,,,,,,,,,,,,,,,,,,,,,,,,,,,,,,,,,,,,,,,,,,,,,,,,,,,,,,,,,,,,,,,,,,,,,,,,,,,,,,,,,,,,,,,,
,,,,,,613a9da3c77e45388ba8a4c6,62c538b89489a96cabb6b523,2022-07-06_02h25.09.642,Colour_Asymmetry_Pilot,2022.1.3,Win32,15.00510173,62c50e9c1127f2cd403a315f,0,87,87,67,1,twofour,,,,,,,,,,,,,,,,,,,,,,,,,,,,,,,,,,,,,,,,,,,,,,,,,,,,,,,,,,,,,,,,,,,,,,,,,,,,,,,,,,,,,,,,,,,,,,,,,,,,,,,,,,,,,,,,,,,,,,,,,,,,,,,,,,,,,,,,,,,,,,,,,,,,,,,,,,,,
,,,,,,613a9da3c77e45388ba8a4c6,62c538b89489a96cabb6b523,2022-07-06_02h25.09.642,Colour_Asymmetry_Pilot,2022.1.3,Win32,15.00510173,62c50e9c1127f2cd403a315f,0,88,88,153,1,onethree,,,,,,,,,,,,,,,,,,,,,,,,,,,,,,,,,,,,,,,,,,,,,,,,,,,,,,,,,,,,,,,,,,,,,,,,,,,,,,,,,,,,,,,,,,,,,,,,,,,,,,,,,,,,,,,,,,,,,,,,,,,,,,,,,,,,,,,,,,,,,,,,,,,,,,,,,,,,
,,,,,,613a9da3c77e45388ba8a4c6,62c538b89489a96cabb6b523,2022-07-06_02h25.09.642,Colour_Asymmetry_Pilot,2022.1.3,Win32,15.00510173,62c50e9c1127f2cd403a315f,0,89,89,99,1,twofour,,,,,,,,,,,,,,,,,,,,,,,,,,,,,,,,,,,,,,,,,,,,,,,,,,,,,,,,,,,,,,,,,,,,,,,,,,,,,,,,,,,,,,,,,,,,,,,,,,,,,,,,,,,,,,,,,,,,,,,,,,,,,,,,,,,,,,,,,,,,,,,,,,,,,,,,,,,,
,,,,,,613a9da3c77e45388ba8a4c6,62c538b89489a96cabb6b523,2022-07-06_02h25.09.642,Colour_Asymmetry_Pilot,2022.1.3,Win32,15.00510173,62c50e9c1127f2cd403a315f,0,90,90,44,1,threeone,,,,,,,,,,,,,,,,,,,,,,,,,,,,,,,,,,,,,,,,,,,,,,,,,,,,,,,,,,,,,,,,,,,,,,,,,,,,,,,,,,,,,,,,,,,,,,,,,,,,,,,,,,,,,,,,,,,,,,,,,,,,,,,,,,,,,,,,,,,,,,,,,,,,,,,,,,,,
,,,,,,613a9da3c77e45388ba8a4c6,62c538b89489a96cabb6b523,2022-07-06_02h25.09.642,Colour_Asymmetry_Pilot,2022.1.3,Win32,15.00510173,62c50e9c1127f2cd403a315f,0,91,91,14,1,fourtwo,,,,,,,,,,,,,,,,,,,,,,,,,,,,,,,,,,,,,,,,,,,,,,,,,,,,,,,,,,,,,,,,,,,,,,,,,,,,,,,,,,,,,,,,,,,,,,,,,,,,,,,,,,,,,,,,,,,,,,,,,,,,,,,,,,,,,,,,,,,,,,,,,,,,,,,,,,,,
,,,,,,613a9da3c77e45388ba8a4c6,62c538b89489a96cabb6b523,2022-07-06_02h25.09.642,Colour_Asymmetry_Pilot,2022.1.3,Win32,15.00510173,62c50e9c1127f2cd403a315f,0,92,92,1,1,onethree,,,,,,,,,,,,,,,,,,,,,,,,,,,,,,,,,,,,,,,,,,,,,,,,,,,,,,,,,,,,,,,,,,,,,,,,,,,,,,,,,,,,,,,,,,,,,,,,,,,,,,,,,,,,,,,,,,,,,,,,,,,,,,,,,,,,,,,,,,,,,,,,,,,,,,,,,,,,
,,,,,,613a9da3c77e45388ba8a4c6,62c538b89489a96cabb6b523,2022-07-06_02h25.09.642,Colour_Asymmetry_Pilot,2022.1.3,Win32,15.00510173,62c50e9c1127f2cd403a315f,0,93,93,51,1,twofour,,,,,,,,,,,,,,,,,,,,,,,,,,,,,,,,,,,,,,,,,,,,,,,,,,,,,,,,,,,,,,,,,,,,,,,,,,,,,,,,,,,,,,,,,,,,,,,,,,,,,,,,,,,,,,,,,,,,,,,,,,,,,,,,,,,,,,,,,,,,,,,,,,,,,,,,,,,,
,,,,,,613a9da3c77e45388ba8a4c6,62c538b89489a96cabb6b523,2022-07-06_02h25.09.642,Colour_Asymmetry_Pilot,2022.1.3,Win32,15.00510173,62c50e9c1127f2cd403a315f,0,94,94,61,1,threefour,,,,,,,,,,,,,,,,,,,,,,,,,,,,,,,,,,,,,,,,,,,,,,,,,,,,,,,,,,,,,,,,,,,,,,,,,,,,,,,,,,,,,,,,,,,,,,,,,,,,,,,,,,,,,,,,,,,,,,,,,,,,,,,,,,,,,,,,,,,,,,,,,,,,,,,,,,,,
,,,,,,613a9da3c77e45388ba8a4c6,62c538b89489a96cabb6b523,2022-07-06_02h25.09.642,Colour_Asymmetry_Pilot,2022.1.3,Win32,15.00510173,62c50e9c1127f2cd403a315f,0,95,95,0,1,onetwo,,,,,,,,,,,,,,,,,,,,,,,,,,,,,,,,,,,,,,,,,,,,,,,,,,,,,,,,,,,,,,,,,,,,,,,,,,,,,,,,,,,,,,,,,,,,,,,,,,,,,,,,,,,,,,,,,,,,,,,,,,,,,,,,,,,,,,,,,,,,,,,,,,,,,,,,,,,,
,,,,,,613a9da3c77e45388ba8a4c6,62c538b89489a96cabb6b523,2022-07-06_02h25.09.642,Colour_Asymmetry_Pilot,2022.1.3,Win32,15.00510173,62c50e9c1127f2cd403a315f,0,96,96,93,1,threefour,,,,,,,,,,,,,,,,,,,,,,,,,,,,,,,,,,,,,,,,,,,,,,,,,,,,,,,,,,,,,,,,,,,,,,,,,,,,,,,,,,,,,,,,,,,,,,,,,,,,,,,,,,,,,,,,,,,,,,,,,,,,,,,,,,,,,,,,,,,,,,,,,,,,,,,,,,,,
,,,,,,613a9da3c77e45388ba8a4c6,62c538b89489a96cabb6b523,2022-07-06_02h25.09.642,Colour_Asymmetry_Pilot,2022.1.3,Win32,15.00510173,62c50e9c1127f2cd403a315f,0,97,97,22,1,fourtwo,,,,,,,,,,,,,,,,,,,,,,,,,,,,,,,,,,,,,,,,,,,,,,,,,,,,,,,,,,,,,,,,,,,,,,,,,,,,,,,,,,,,,,,,,,,,,,,,,,,,,,,,,,,,,,,,,,,,,,,,,,,,,,,,,,,,,,,,,,,,,,,,,,,,,,,,,,,,
,,,,,,613a9da3c77e45388ba8a4c6,62c538b89489a96cabb6b523,2022-07-06_02h25.09.642,Colour_Asymmetry_Pilot,2022.1.3,Win32,15.00510173,62c50e9c1127f2cd403a315f,0,98,98,63,1,fourthree,,,,,,,,,,,,,,,,,,,,,,,,,,,,,,,,,,,,,,,,,,,,,,,,,,,,,,,,,,,,,,,,,,,,,,,,,,,,,,,,,,,,,,,,,,,,,,,,,,,,,,,,,,,,,,,,,,,,,,,,,,,,,,,,,,,,,,,,,,,,,,,,,,,,,,,,,,,,
,,,,,,613a9da3c77e45388ba8a4c6,62c538b89489a96cabb6b523,2022-07-06_02h25.09.642,Colour_Asymmetry_Pilot,2022.1.3,Win32,15.00510173,62c50e9c1127f2cd403a315f,0,99,99,74,1,twoone,,,,,,,,,,,,,,,,,,,,,,,,,,,,,,,,,,,,,,,,,,,,,,,,,,,,,,,,,,,,,,,,,,,,,,,,,,,,,,,,,,,,,,,,,,,,,,,,,,,,,,,,,,,,,,,,,,,,,,,,,,,,,,,,,,,,,,,,,,,,,,,,,,,,,,,,,,,,
,,,,,,613a9da3c77e45388ba8a4c6,62c538b89489a96cabb6b523,2022-07-06_02h25.09.642,Colour_Asymmetry_Pilot,2022.1.3,Win32,15.00510173,62c50e9c1127f2cd403a315f,0,100,100,102,1,fourtwo,,,,,,,,,,,,,,,,,,,,,,,,,,,,,,,,,,,,,,,,,,,,,,,,,,,,,,,,,,,,,,,,,,,,,,,,,,,,,,,,,,,,,,,,,,,,,,,,,,,,,,,,,,,,,,,,,,,,,,,,,,,,,,,,,,,,,,,,,,,,,,,,,,,,,,,,,,,,
,,,,,,613a9da3c77e45388ba8a4c6,62c538b89489a96cabb6b523,2022-07-06_02h25.09.642,Colour_Asymmetry_Pilot,2022.1.3,Win32,15.00510173,62c50e9c1127f2cd403a315f,0,101,101,146,1,twoone,,,,,,,,,,,,,,,,,,,,,,,,,,,,,,,,,,,,,,,,,,,,,,,,,,,,,,,,,,,,,,,,,,,,,,,,,,,,,,,,,,,,,,,,,,,,,,,,,,,,,,,,,,,,,,,,,,,,,,,,,,,,,,,,,,,,,,,,,,,,,,,,,,,,,,,,,,,,
,,,,,,613a9da3c77e45388ba8a4c6,62c538b89489a96cabb6b523,2022-07-06_02h25.09.642,Colour_Asymmetry_Pilot,2022.1.3,Win32,15.00510173,62c50e9c1127f2cd403a315f,0,102,102,124,1,threeone,,,,,,,,,,,,,,,,,,,,,,,,,,,,,,,,,,,,,,,,,,,,,,,,,,,,,,,,,,,,,,,,,,,,,,,,,,,,,,,,,,,,,,,,,,,,,,,,,,,,,,,,,,,,,,,,,,,,,,,,,,,,,,,,,,,,,,,,,,,,,,,,,,,,,,,,,,,,
,,,,,,613a9da3c77e45388ba8a4c6,62c538b89489a96cabb6b523,2022-07-06_02h25.09.642,Colour_Asymmetry_Pilot,2022.1.3,Win32,15.00510173,62c50e9c1127f2cd403a315f,0,103,103,62,1,fourtwo,,,,,,,,,,,,,,,,,,,,,,,,,,,,,,,,,,,,,,,,,,,,,,,,,,,,,,,,,,,,,,,,,,,,,,,,,,,,,,,,,,,,,,,,,,,,,,,,,,,,,,,,,,,,,,,,,,,,,,,,,,,,,,,,,,,,,,,,,,,,,,,,,,,,,,,,,,,,
,,,,,,613a9da3c77e45388ba8a4c6,62c538b89489a96cabb6b523,2022-07-06_02h25.09.642,Colour_Asymmetry_Pilot,2022.1.3,Win32,15.00510173,62c50e9c1127f2cd403a315f,0,104,104,131,1,twofour,,,,,,,,,,,,,,,,,,,,,,,,,,,,,,,,,,,,,,,,,,,,,,,,,,,,,,,,,,,,,,,,,,,,,,,,,,,,,,,,,,,,,,,,,,,,,,,,,,,,,,,,,,,,,,,,,,,,,,,,,,,,,,,,,,,,,,,,,,,,,,,,,,,,,,,,,,,,
,,,,,,613a9da3c77e45388ba8a4c6,62c538b89489a96cabb6b523,2022-07-06_02h25.09.642,Colour_Asymmetry_Pilot,2022.1.3,Win32,15.00510173,62c50e9c1127f2cd403a315f,0,105,105,8,1,onetwo,,,,,,,,,,,,,,,,,,,,,,,,,,,,,,,,,,,,,,,,,,,,,,,,,,,,,,,,,,,,,,,,,,,,,,,,,,,,,,,,,,,,,,,,,,,,,,,,,,,,,,,,,,,,,,,,,,,,,,,,,,,,,,,,,,,,,,,,,,,,,,,,,,,,,,,,,,,,
,,,,,,613a9da3c77e45388ba8a4c6,62c538b89489a96cabb6b523,2022-07-06_02h25.09.642,Colour_Asymmetry_Pilot,2022.1.3,Win32,15.00510173,62c50e9c1127f2cd403a315f,0,106,106,121,1,onethree,,,,,,,,,,,,,,,,,,,,,,,,,,,,,,,,,,,,,,,,,,,,,,,,,,,,,,,,,,,,,,,,,,,,,,,,,,,,,,,,,,,,,,,,,,,,,,,,,,,,,,,,,,,,,,,,,,,,,,,,,,,,,,,,,,,,,,,,,,,,,,,,,,,,,,,,,,,,
,,,,,,613a9da3c77e45388ba8a4c6,62c538b89489a96cabb6b523,2022-07-06_02h25.09.642,Colour_Asymmetry_Pilot,2022.1.3,Win32,15.00510173,62c50e9c1127f2cd403a315f,0,107,107,123,1,twofour,,,,,,,,,,,,,,,,,,,,,,,,,,,,,,,,,,,,,,,,,,,,,,,,,,,,,,,,,,,,,,,,,,,,,,,,,,,,,,,,,,,,,,,,,,,,,,,,,,,,,,,,,,,,,,,,,,,,,,,,,,,,,,,,,,,,,,,,,,,,,,,,,,,,,,,,,,,,
,,,,,,613a9da3c77e45388ba8a4c6,62c538b89489a96cabb6b523,2022-07-06_02h25.09.642,Colour_Asymmetry_Pilot,2022.1.3,Win32,15.00510173,62c50e9c1127f2cd403a315f,0,108,108,119,1,fourthree,,,,,,,,,,,,,,,,,,,,,,,,,,,,,,,,,,,,,,,,,,,,,,,,,,,,,,,,,,,,,,,,,,,,,,,,,,,,,,,,,,,,,,,,,,,,,,,,,,,,,,,,,,,,,,,,,,,,,,,,,,,,,,,,,,,,,,,,,,,,,,,,,,,,,,,,,,,,
,,,,,,613a9da3c77e45388ba8a4c6,62c538b89489a96cabb6b523,2022-07-06_02h25.09.642,Colour_Asymmetry_Pilot,2022.1.3,Win32,15.00510173,62c50e9c1127f2cd403a315f,0,109,109,148,1,threeone,,,,,,,,,,,,,,,,,,,,,,,,,,,,,,,,,,,,,,,,,,,,,,,,,,,,,,,,,,,,,,,,,,,,,,,,,,,,,,,,,,,,,,,,,,,,,,,,,,,,,,,,,,,,,,,,,,,,,,,,,,,,,,,,,,,,,,,,,,,,,,,,,,,,,,,,,,,,
,,,,,,613a9da3c77e45388ba8a4c6,62c538b89489a96cabb6b523,2022-07-06_02h25.09.642,Colour_Asymmetry_Pilot,2022.1.3,Win32,15.00510173,62c50e9c1127f2cd403a315f,0,110,110,134,1,fourtwo,,,,,,,,,,,,,,,,,,,,,,,,,,,,,,,,,,,,,,,,,,,,,,,,,,,,,,,,,,,,,,,,,,,,,,,,,,,,,,,,,,,,,,,,,,,,,,,,,,,,,,,,,,,,,,,,,,,,,,,,,,,,,,,,,,,,,,,,,,,,,,,,,,,,,,,,,,,,
,,,,,,613a9da3c77e45388ba8a4c6,62c538b89489a96cabb6b523,2022-07-06_02h25.09.642,Colour_Asymmetry_Pilot,2022.1.3,Win32,15.00510173,62c50e9c1127f2cd403a315f,0,111,111,90,1,twoone,,,,,,,,,,,,,,,,,,,,,,,,,,,,,,,,,,,,,,,,,,,,,,,,,,,,,,,,,,,,,,,,,,,,,,,,,,,,,,,,,,,,,,,,,,,,,,,,,,,,,,,,,,,,,,,,,,,,,,,,,,,,,,,,,,,,,,,,,,,,,,,,,,,,,,,,,,,,
,,,,,,613a9da3c77e45388ba8a4c6,62c538b89489a96cabb6b523,2022-07-06_02h25.09.642,Colour_Asymmetry_Pilot,2022.1.3,Win32,15.00510173,62c50e9c1127f2cd403a315f,0,112,112,35,1,twofour,,,,,,,,,,,,,,,,,,,,,,,,,,,,,,,,,,,,,,,,,,,,,,,,,,,,,,,,,,,,,,,,,,,,,,,,,,,,,,,,,,,,,,,,,,,,,,,,,,,,,,,,,,,,,,,,,,,,,,,,,,,,,,,,,,,,,,,,,,,,,,,,,,,,,,,,,,,,
,,,,,,613a9da3c77e45388ba8a4c6,62c538b89489a96cabb6b523,2022-07-06_02h25.09.642,Colour_Asymmetry_Pilot,2022.1.3,Win32,15.00510173,62c50e9c1127f2cd403a315f,0,113,113,157,1,threefour,,,,,,,,,,,,,,,,,,,,,,,,,,,,,,,,,,,,,,,,,,,,,,,,,,,,,,,,,,,,,,,,,,,,,,,,,,,,,,,,,,,,,,,,,,,,,,,,,,,,,,,,,,,,,,,,,,,,,,,,,,,,,,,,,,,,,,,,,,,,,,,,,,,,,,,,,,,,
,,,,,,613a9da3c77e45388ba8a4c6,62c538b89489a96cabb6b523,2022-07-06_02h25.09.642,Colour_Asymmetry_Pilot,2022.1.3,Win32,15.00510173,62c50e9c1127f2cd403a315f,0,114,114,106,1,twoone,,,,,,,,,,,,,,,,,,,,,,,,,,,,,,,,,,,,,,,,,,,,,,,,,,,,,,,,,,,,,,,,,,,,,,,,,,,,,,,,,,,,,,,,,,,,,,,,,,,,,,,,,,,,,,,,,,,,,,,,,,,,,,,,,,,,,,,,,,,,,,,,,,,,,,,,,,,,
,,,,,,613a9da3c77e45388ba8a4c6,62c538b89489a96cabb6b523,2022-07-06_02h25.09.642,Colour_Asymmetry_Pilot,2022.1.3,Win32,15.00510173,62c50e9c1127f2cd403a315f,0,115,115,128,1,onetwo,,,,,,,,,,,,,,,,,,,,,,,,,,,,,,,,,,,,,,,,,,,,,,,,,,,,,,,,,,,,,,,,,,,,,,,,,,,,,,,,,,,,,,,,,,,,,,,,,,,,,,,,,,,,,,,,,,,,,,,,,,,,,,,,,,,,,,,,,,,,,,,,,,,,,,,,,,,,
,,,,,,613a9da3c77e45388ba8a4c6,62c538b89489a96cabb6b523,2022-07-06_02h25.09.642,Colour_Asymmetry_Pilot,2022.1.3,Win32,15.00510173,62c50e9c1127f2cd403a315f,0,116,116,77,1,threefour,,,,,,,,,,,,,,,,,,,,,,,,,,,,,,,,,,,,,,,,,,,,,,,,,,,,,,,,,,,,,,,,,,,,,,,,,,,,,,,,,,,,,,,,,,,,,,,,,,,,,,,,,,,,,,,,,,,,,,,,,,,,,,,,,,,,,,,,,,,,,,,,,,,,,,,,,,,,
,,,,,,613a9da3c77e45388ba8a4c6,62c538b89489a96cabb6b523,2022-07-06_02h25.09.642,Colour_Asymmetry_Pilot,2022.1.3,Win32,15.00510173,62c50e9c1127f2cd403a315f,0,117,117,108,1,threeone,,,,,,,,,,,,,,,,,,,,,,,,,,,,,,,,,,,,,,,,,,,,,,,,,,,,,,,,,,,,,,,,,,,,,,,,,,,,,,,,,,,,,,,,,,,,,,,,,,,,,,,,,,,,,,,,,,,,,,,,,,,,,,,,,,,,,,,,,,,,,,,,,,,,,,,,,,,,
,,,,,,613a9da3c77e45388ba8a4c6,62c538b89489a96cabb6b523,2022-07-06_02h25.09.642,Colour_Asymmetry_Pilot,2022.1.3,Win32,15.00510173,62c50e9c1127f2cd403a315f,0,118,118,72,1,onetwo,,,,,,,,,,,,,,,,,,,,,,,,,,,,,,,,,,,,,,,,,,,,,,,,,,,,,,,,,,,,,,,,,,,,,,,,,,,,,,,,,,,,,,,,,,,,,,,,,,,,,,,,,,,,,,,,,,,,,,,,,,,,,,,,,,,,,,,,,,,,,,,,,,,,,,,,,,,,
,,,,,,613a9da3c77e45388ba8a4c6,62c538b89489a96cabb6b523,2022-07-06_02h25.09.642,Colour_Asymmetry_Pilot,2022.1.3,Win32,15.00510173,62c50e9c1127f2cd403a315f,0,119,119,125,1,threefour,,,,,,,,,,,,,,,,,,,,,,,,,,,,,,,,,,,,,,,,,,,,,,,,,,,,,,,,,,,,,,,,,,,,,,,,,,,,,,,,,,,,,,,,,,,,,,,,,,,,,,,,,,,,,,,,,,,,,,,,,,,,,,,,,,,,,,,,,,,,,,,,,,,,,,,,,,,,
,,,,,,613a9da3c77e45388ba8a4c6,62c538b89489a96cabb6b523,2022-07-06_02h25.09.642,Colour_Asymmetry_Pilot,2022.1.3,Win32,15.00510173,62c50e9c1127f2cd403a315f,0,120,120,32,1,onetwo,,,,,,,,,,,,,,,,,,,,,,,,,,,,,,,,,,,,,,,,,,,,,,,,,,,,,,,,,,,,,,,,,,,,,,,,,,,,,,,,,,,,,,,,,,,,,,,,,,,,,,,,,,,,,,,,,,,,,,,,,,,,,,,,,,,,,,,,,,,,,,,,,,,,,,,,,,,,
,,,,,,613a9da3c77e45388ba8a4c6,62c538b89489a96cabb6b523,2022-07-06_02h25.09.642,Colour_Asymmetry_Pilot,2022.1.3,Win32,15.00510173,62c50e9c1127f2cd403a315f,0,121,121,13,1,threefour,,,,,,,,,,,,,,,,,,,,,,,,,,,,,,,,,,,,,,,,,,,,,,,,,,,,,,,,,,,,,,,,,,,,,,,,,,,,,,,,,,,,,,,,,,,,,,,,,,,,,,,,,,,,,,,,,,,,,,,,,,,,,,,,,,,,,,,,,,,,,,,,,,,,,,,,,,,,
,,,,,,613a9da3c77e45388ba8a4c6,62c538b89489a96cabb6b523,2022-07-06_02h25.09.642,Colour_Asymmetry_Pilot,2022.1.3,Win32,15.00510173,62c50e9c1127f2cd403a315f,0,122,122,45,1,threefour,,,,,,,,,,,,,,,,,,,,,,,,,,,,,,,,,,,,,,,,,,,,,,,,,,,,,,,,,,,,,,,,,,,,,,,,,,,,,,,,,,,,,,,,,,,,,,,,,,,,,,,,,,,,,,,,,,,,,,,,,,,,,,,,,,,,,,,,,,,,,,,,,,,,,,,,,,,,
,,,,,,613a9da3c77e45388ba8a4c6,62c538b89489a96cabb6b523,2022-07-06_02h25.09.642,Colour_Asymmetry_Pilot,2022.1.3,Win32,15.00510173,62c50e9c1127f2cd403a315f,0,123,123,46,1,fourtwo,,,,,,,,,,,,,,,,,,,,,,,,,,,,,,,,,,,,,,,,,,,,,,,,,,,,,,,,,,,,,,,,,,,,,,,,,,,,,,,,,,,,,,,,,,,,,,,,,,,,,,,,,,,,,,,,,,,,,,,,,,,,,,,,,,,,,,,,,,,,,,,,,,,,,,,,,,,,
,,,,,,613a9da3c77e45388ba8a4c6,62c538b89489a96cabb6b523,2022-07-06_02h25.09.642,Colour_Asymmetry_Pilot,2022.1.3,Win32,15.00510173,62c50e9c1127f2cd403a315f,0,124,124,92,1,threeone,,,,,,,,,,,,,,,,,,,,,,,,,,,,,,,,,,,,,,,,,,,,,,,,,,,,,,,,,,,,,,,,,,,,,,,,,,,,,,,,,,,,,,,,,,,,,,,,,,,,,,,,,,,,,,,,,,,,,,,,,,,,,,,,,,,,,,,,,,,,,,,,,,,,,,,,,,,,
,,,,,,613a9da3c77e45388ba8a4c6,62c538b89489a96cabb6b523,2022-07-06_02h25.09.642,Colour_Asymmetry_Pilot,2022.1.3,Win32,15.00510173,62c50e9c1127f2cd403a315f,0,125,125,49,1,onethree,,,,,,,,,,,,,,,,,,,,,,,,,,,,,,,,,,,,,,,,,,,,,,,,,,,,,,,,,,,,,,,,,,,,,,,,,,,,,,,,,,,,,,,,,,,,,,,,,,,,,,,,,,,,,,,,,,,,,,,,,,,,,,,,,,,,,,,,,,,,,,,,,,,,,,,,,,,,
,,,,,,613a9da3c77e45388ba8a4c6,62c538b89489a96cabb6b523,2022-07-06_02h25.09.642,Colour_Asymmetry_Pilot,2022.1.3,Win32,15.00510173,62c50e9c1127f2cd403a315f,0,126,126,116,1,threeone,,,,,,,,,,,,,,,,,,,,,,,,,,,,,,,,,,,,,,,,,,,,,,,,,,,,,,,,,,,,,,,,,,,,,,,,,,,,,,,,,,,,,,,,,,,,,,,,,,,,,,,,,,,,,,,,,,,,,,,,,,,,,,,,,,,,,,,,,,,,,,,,,,,,,,,,,,,,
,,,,,,613a9da3c77e45388ba8a4c6,62c538b89489a96cabb6b523,2022-07-06_02h25.09.642,Colour_Asymmetry_Pilot,2022.1.3,Win32,15.00510173,62c50e9c1127f2cd403a315f,0,127,127,142,1,fourtwo,,,,,,,,,,,,,,,,,,,,,,,,,,,,,,,,,,,,,,,,,,,,,,,,,,,,,,,,,,,,,,,,,,,,,,,,,,,,,,,,,,,,,,,,,,,,,,,,,,,,,,,,,,,,,,,,,,,,,,,,,,,,,,,,,,,,,,,,,,,,,,,,,,,,,,,,,,,,
,,,,,,613a9da3c77e45388ba8a4c6,62c538b89489a96cabb6b523,2022-07-06_02h25.09.642,Colour_Asymmetry_Pilot,2022.1.3,Win32,15.00510173,62c50e9c1127f2cd403a315f,0,128,128,132,1,threeone,,,,,,,,,,,,,,,,,,,,,,,,,,,,,,,,,,,,,,,,,,,,,,,,,,,,,,,,,,,,,,,,,,,,,,,,,,,,,,,,,,,,,,,,,,,,,,,,,,,,,,,,,,,,,,,,,,,,,,,,,,,,,,,,,,,,,,,,,,,,,,,,,,,,,,,,,,,,
,,,,,,613a9da3c77e45388ba8a4c6,62c538b89489a96cabb6b523,2022-07-06_02h25.09.642,Colour_Asymmetry_Pilot,2022.1.3,Win32,15.00510173,62c50e9c1127f2cd403a315f,0,129,129,58,1,twoone,,,,,,,,,,,,,,,,,,,,,,,,,,,,,,,,,,,,,,,,,,,,,,,,,,,,,,,,,,,,,,,,,,,,,,,,,,,,,,,,,,,,,,,,,,,,,,,,,,,,,,,,,,,,,,,,,,,,,,,,,,,,,,,,,,,,,,,,,,,,,,,,,,,,,,,,,,,,
,,,,,,613a9da3c77e45388ba8a4c6,62c538b89489a96cabb6b523,2022-07-06_02h25.09.642,Colour_Asymmetry_Pilot,2022.1.3,Win32,15.00510173,62c50e9c1127f2cd403a315f,0,130,130,95,1,fourthree,,,,,,,,,,,,,,,,,,,,,,,,,,,,,,,,,,,,,,,,,,,,,,,,,,,,,,,,,,,,,,,,,,,,,,,,,,,,,,,,,,,,,,,,,,,,,,,,,,,,,,,,,,,,,,,,,,,,,,,,,,,,,,,,,,,,,,,,,,,,,,,,,,,,,,,,,,,,
,,,,,,613a9da3c77e45388ba8a4c6,62c538b89489a96cabb6b523,2022-07-06_02h25.09.642,Colour_Asymmetry_Pilot,2022.1.3,Win32,15.00510173,62c50e9c1127f2cd403a315f,0,131,131,155,1,twofour,,,,,,,,,,,,,,,,,,,,,,,,,,,,,,,,,,,,,,,,,,,,,,,,,,,,,,,,,,,,,,,,,,,,,,,,,,,,,,,,,,,,,,,,,,,,,,,,,,,,,,,,,,,,,,,,,,,,,,,,,,,,,,,,,,,,,,,,,,,,,,,,,,,,,,,,,,,,
,,,,,,613a9da3c77e45388ba8a4c6,62c538b89489a96cabb6b523,2022-07-06_02h25.09.642,Colour_Asymmetry_Pilot,2022.1.3,Win32,15.00510173,62c50e9c1127f2cd403a315f,0,132,132,73,1,onethree,,,,,,,,,,,,,,,,,,,,,,,,,,,,,,,,,,,,,,,,,,,,,,,,,,,,,,,,,,,,,,,,,,,,,,,,,,,,,,,,,,,,,,,,,,,,,,,,,,,,,,,,,,,,,,,,,,,,,,,,,,,,,,,,,,,,,,,,,,,,,,,,,,,,,,,,,,,,
,,,,,,613a9da3c77e45388ba8a4c6,62c538b89489a96cabb6b523,2022-07-06_02h25.09.642,Colour_Asymmetry_Pilot,2022.1.3,Win32,15.00510173,62c50e9c1127f2cd403a315f,0,133,133,110,1,fourtwo,,,,,,,,,,,,,,,,,,,,,,,,,,,,,,,,,,,,,,,,,,,,,,,,,,,,,,,,,,,,,,,,,,,,,,,,,,,,,,,,,,,,,,,,,,,,,,,,,,,,,,,,,,,,,,,,,,,,,,,,,,,,,,,,,,,,,,,,,,,,,,,,,,,,,,,,,,,,
,,,,,,613a9da3c77e45388ba8a4c6,62c538b89489a96cabb6b523,2022-07-06_02h25.09.642,Colour_Asymmetry_Pilot,2022.1.3,Win32,15.00510173,62c50e9c1127f2cd403a315f,0,134,134,65,1,onethree,,,,,,,,,,,,,,,,,,,,,,,,,,,,,,,,,,,,,,,,,,,,,,,,,,,,,,,,,,,,,,,,,,,,,,,,,,,,,,,,,,,,,,,,,,,,,,,,,,,,,,,,,,,,,,,,,,,,,,,,,,,,,,,,,,,,,,,,,,,,,,,,,,,,,,,,,,,,
,,,,,,613a9da3c77e45388ba8a4c6,62c538b89489a96cabb6b523,2022-07-06_02h25.09.642,Colour_Asymmetry_Pilot,2022.1.3,Win32,15.00510173,62c50e9c1127f2cd403a315f,0,135,135,24,1,onetwo,,,,,,,,,,,,,,,,,,,,,,,,,,,,,,,,,,,,,,,,,,,,,,,,,,,,,,,,,,,,,,,,,,,,,,,,,,,,,,,,,,,,,,,,,,,,,,,,,,,,,,,,,,,,,,,,,,,,,,,,,,,,,,,,,,,,,,,,,,,,,,,,,,,,,,,,,,,,
,,,,,,613a9da3c77e45388ba8a4c6,62c538b89489a96cabb6b523,2022-07-06_02h25.09.642,Colour_Asymmetry_Pilot,2022.1.3,Win32,15.00510173,62c50e9c1127f2cd403a315f,0,136,136,81,1,onethree,,,,,,,,,,,,,,,,,,,,,,,,,,,,,,,,,,,,,,,,,,,,,,,,,,,,,,,,,,,,,,,,,,,,,,,,,,,,,,,,,,,,,,,,,,,,,,,,,,,,,,,,,,,,,,,,,,,,,,,,,,,,,,,,,,,,,,,,,,,,,,,,,,,,,,,,,,,,
,,,,,,613a9da3c77e45388ba8a4c6,62c538b89489a96cabb6b523,2022-07-06_02h25.09.642,Colour_Asymmetry_Pilot,2022.1.3,Win32,15.00510173,62c50e9c1127f2cd403a315f,0,137,137,27,1,twofour,,,,,,,,,,,,,,,,,,,,,,,,,,,,,,,,,,,,,,,,,,,,,,,,,,,,,,,,,,,,,,,,,,,,,,,,,,,,,,,,,,,,,,,,,,,,,,,,,,,,,,,,,,,,,,,,,,,,,,,,,,,,,,,,,,,,,,,,,,,,,,,,,,,,,,,,,,,,
,,,,,,613a9da3c77e45388ba8a4c6,62c538b89489a96cabb6b523,2022-07-06_02h25.09.642,Colour_Asymmetry_Pilot,2022.1.3,Win32,15.00510173,62c50e9c1127f2cd403a315f,0,138,138,5,1,threefour,,,,,,,,,,,,,,,,,,,,,,,,,,,,,,,,,,,,,,,,,,,,,,,,,,,,,,,,,,,,,,,,,,,,,,,,,,,,,,,,,,,,,,,,,,,,,,,,,,,,,,,,,,,,,,,,,,,,,,,,,,,,,,,,,,,,,,,,,,,,,,,,,,,,,,,,,,,,
,,,,,,613a9da3c77e45388ba8a4c6,62c538b89489a96cabb6b523,2022-07-06_02h25.09.642,Colour_Asymmetry_Pilot,2022.1.3,Win32,15.00510173,62c50e9c1127f2cd403a315f,0,139,139,9,1,onethree,,,,,,,,,,,,,,,,,,,,,,,,,,,,,,,,,,,,,,,,,,,,,,,,,,,,,,,,,,,,,,,,,,,,,,,,,,,,,,,,,,,,,,,,,,,,,,,,,,,,,,,,,,,,,,,,,,,,,,,,,,,,,,,,,,,,,,,,,,,,,,,,,,,,,,,,,,,,
,,,,,,613a9da3c77e45388ba8a4c6,62c538b89489a96cabb6b523,2022-07-06_02h25.09.642,Colour_Asymmetry_Pilot,2022.1.3,Win32,15.00510173,62c50e9c1127f2cd403a315f,0,140,140,149,1,threefour,,,,,,,,,,,,,,,,,,,,,,,,,,,,,,,,,,,,,,,,,,,,,,,,,,,,,,,,,,,,,,,,,,,,,,,,,,,,,,,,,,,,,,,,,,,,,,,,,,,,,,,,,,,,,,,,,,,,,,,,,,,,,,,,,,,,,,,,,,,,,,,,,,,,,,,,,,,,
,,,,,,613a9da3c77e45388ba8a4c6,62c538b89489a96cabb6b523,2022-07-06_02h25.09.642,Colour_Asymmetry_Pilot,2022.1.3,Win32,15.00510173,62c50e9c1127f2cd403a315f,0,141,141,53,1,threefour,,,,,,,,,,,,,,,,,,,,,,,,,,,,,,,,,,,,,,,,,,,,,,,,,,,,,,,,,,,,,,,,,,,,,,,,,,,,,,,,,,,,,,,,,,,,,,,,,,,,,,,,,,,,,,,,,,,,,,,,,,,,,,,,,,,,,,,,,,,,,,,,,,,,,,,,,,,,
,,,,,,613a9da3c77e45388ba8a4c6,62c538b89489a96cabb6b523,2022-07-06_02h25.09.642,Colour_Asymmetry_Pilot,2022.1.3,Win32,15.00510173,62c50e9c1127f2cd403a315f,0,142,142,138,1,twoone,,,,,,,,,,,,,,,,,,,,,,,,,,,,,,,,,,,,,,,,,,,,,,,,,,,,,,,,,,,,,,,,,,,,,,,,,,,,,,,,,,,,,,,,,,,,,,,,,,,,,,,,,,,,,,,,,,,,,,,,,,,,,,,,,,,,,,,,,,,,,,,,,,,,,,,,,,,,
,,,,,,613a9da3c77e45388ba8a4c6,62c538b89489a96cabb6b523,2022-07-06_02h25.09.642,Colour_Asymmetry_Pilot,2022.1.3,Win32,15.00510173,62c50e9c1127f2cd403a315f,0,143,143,113,1,onethree,,,,,,,,,,,,,,,,,,,,,,,,,,,,,,,,,,,,,,,,,,,,,,,,,,,,,,,,,,,,,,,,,,,,,,,,,,,,,,,,,,,,,,,,,,,,,,,,,,,,,,,,,,,,,,,,,,,,,,,,,,,,,,,,,,,,,,,,,,,,,,,,,,,,,,,,,,,,
,,,,,,613a9da3c77e45388ba8a4c6,62c538b89489a96cabb6b523,2022-07-06_02h25.09.642,Colour_Asymmetry_Pilot,2022.1.3,Win32,15.00510173,62c50e9c1127f2cd403a315f,0,144,144,117,1,threefour,,,,,,,,,,,,,,,,,,,,,,,,,,,,,,,,,,,,,,,,,,,,,,,,,,,,,,,,,,,,,,,,,,,,,,,,,,,,,,,,,,,,,,,,,,,,,,,,,,,,,,,,,,,,,,,,,,,,,,,,,,,,,,,,,,,,,,,,,,,,,,,,,,,,,,,,,,,,
,,,,,,613a9da3c77e45388ba8a4c6,62c538b89489a96cabb6b523,2022-07-06_02h25.09.642,Colour_Asymmetry_Pilot,2022.1.3,Win32,15.00510173,62c50e9c1127f2cd403a315f,0,145,145,144,1,onetwo,,,,,,,,,,,,,,,,,,,,,,,,,,,,,,,,,,,,,,,,,,,,,,,,,,,,,,,,,,,,,,,,,,,,,,,,,,,,,,,,,,,,,,,,,,,,,,,,,,,,,,,,,,,,,,,,,,,,,,,,,,,,,,,,,,,,,,,,,,,,,,,,,,,,,,,,,,,,
,,,,,,613a9da3c77e45388ba8a4c6,62c538b89489a96cabb6b523,2022-07-06_02h25.09.642,Colour_Asymmetry_Pilot,2022.1.3,Win32,15.00510173,62c50e9c1127f2cd403a315f,0,146,146,15,1,fourthree,,,,,,,,,,,,,,,,,,,,,,,,,,,,,,,,,,,,,,,,,,,,,,,,,,,,,,,,,,,,,,,,,,,,,,,,,,,,,,,,,,,,,,,,,,,,,,,,,,,,,,,,,,,,,,,,,,,,,,,,,,,,,,,,,,,,,,,,,,,,,,,,,,,,,,,,,,,,
,,,,,,613a9da3c77e45388ba8a4c6,62c538b89489a96cabb6b523,2022-07-06_02h25.09.642,Colour_Asymmetry_Pilot,2022.1.3,Win32,15.00510173,62c50e9c1127f2cd403a315f,0,147,147,98,1,twoone,,,,,,,,,,,,,,,,,,,,,,,,,,,,,,,,,,,,,,,,,,,,,,,,,,,,,,,,,,,,,,,,,,,,,,,,,,,,,,,,,,,,,,,,,,,,,,,,,,,,,,,,,,,,,,,,,,,,,,,,,,,,,,,,,,,,,,,,,,,,,,,,,,,,,,,,,,,,
,,,,,,613a9da3c77e45388ba8a4c6,62c538b89489a96cabb6b523,2022-07-06_02h25.09.642,Colour_Asymmetry_Pilot,2022.1.3,Win32,15.00510173,62c50e9c1127f2cd403a315f,0,148,148,75,1,twofour,,,,,,,,,,,,,,,,,,,,,,,,,,,,,,,,,,,,,,,,,,,,,,,,,,,,,,,,,,,,,,,,,,,,,,,,,,,,,,,,,,,,,,,,,,,,,,,,,,,,,,,,,,,,,,,,,,,,,,,,,,,,,,,,,,,,,,,,,,,,,,,,,,,,,,,,,,,,
,,,,,,613a9da3c77e45388ba8a4c6,62c538b89489a96cabb6b523,2022-07-06_02h25.09.642,Colour_Asymmetry_Pilot,2022.1.3,Win32,15.00510173,62c50e9c1127f2cd403a315f,0,149,149,23,1,fourthree,,,,,,,,,,,,,,,,,,,,,,,,,,,,,,,,,,,,,,,,,,,,,,,,,,,,,,,,,,,,,,,,,,,,,,,,,,,,,,,,,,,,,,,,,,,,,,,,,,,,,,,,,,,,,,,,,,,,,,,,,,,,,,,,,,,,,,,,,,,,,,,,,,,,,,,,,,,,
,,,,,,613a9da3c77e45388ba8a4c6,62c538b89489a96cabb6b523,2022-07-06_02h25.09.642,Colour_Asymmetry_Pilot,2022.1.3,Win32,15.00510173,62c50e9c1127f2cd403a315f,0,150,150,120,1,onetwo,,,,,,,,,,,,,,,,,,,,,,,,,,,,,,,,,,,,,,,,,,,,,,,,,,,,,,,,,,,,,,,,,,,,,,,,,,,,,,,,,,,,,,,,,,,,,,,,,,,,,,,,,,,,,,,,,,,,,,,,,,,,,,,,,,,,,,,,,,,,,,,,,,,,,,,,,,,,
,,,,,,613a9da3c77e45388ba8a4c6,62c538b89489a96cabb6b523,2022-07-06_02h25.09.642,Colour_Asymmetry_Pilot,2022.1.3,Win32,15.00510173,62c50e9c1127f2cd403a315f,0,151,151,48,1,onetwo,,,,,,,,,,,,,,,,,,,,,,,,,,,,,,,,,,,,,,,,,,,,,,,,,,,,,,,,,,,,,,,,,,,,,,,,,,,,,,,,,,,,,,,,,,,,,,,,,,,,,,,,,,,,,,,,,,,,,,,,,,,,,,,,,,,,,,,,,,,,,,,,,,,,,,,,,,,,
,,,,,,613a9da3c77e45388ba8a4c6,62c538b89489a96cabb6b523,2022-07-06_02h25.09.642,Colour_Asymmetry_Pilot,2022.1.3,Win32,15.00510173,62c50e9c1127f2cd403a315f,0,152,152,118,1,fourtwo,,,,,,,,,,,,,,,,,,,,,,,,,,,,,,,,,,,,,,,,,,,,,,,,,,,,,,,,,,,,,,,,,,,,,,,,,,,,,,,,,,,,,,,,,,,,,,,,,,,,,,,,,,,,,,,,,,,,,,,,,,,,,,,,,,,,,,,,,,,,,,,,,,,,,,,,,,,,
,,,,,,613a9da3c77e45388ba8a4c6,62c538b89489a96cabb6b523,2022-07-06_02h25.09.642,Colour_Asymmetry_Pilot,2022.1.3,Win32,15.00510173,62c50e9c1127f2cd403a315f,0,153,153,151,1,fourthree,,,,,,,,,,,,,,,,,,,,,,,,,,,,,,,,,,,,,,,,,,,,,,,,,,,,,,,,,,,,,,,,,,,,,,,,,,,,,,,,,,,,,,,,,,,,,,,,,,,,,,,,,,,,,,,,,,,,,,,,,,,,,,,,,,,,,,,,,,,,,,,,,,,,,,,,,,,,
,,,,,,613a9da3c77e45388ba8a4c6,62c538b89489a96cabb6b523,2022-07-06_02h25.09.642,Colour_Asymmetry_Pilot,2022.1.3,Win32,15.00510173,62c50e9c1127f2cd403a315f,0,154,154,50,1,twoone,,,,,,,,,,,,,,,,,,,,,,,,,,,,,,,,,,,,,,,,,,,,,,,,,,,,,,,,,,,,,,,,,,,,,,,,,,,,,,,,,,,,,,,,,,,,,,,,,,,,,,,,,,,,,,,,,,,,,,,,,,,,,,,,,,,,,,,,,,,,,,,,,,,,,,,,,,,,
,,,,,,613a9da3c77e45388ba8a4c6,62c538b89489a96cabb6b523,2022-07-06_02h25.09.642,Colour_Asymmetry_Pilot,2022.1.3,Win32,15.00510173,62c50e9c1127f2cd403a315f,0,155,155,129,1,onethree,,,,,,,,,,,,,,,,,,,,,,,,,,,,,,,,,,,,,,,,,,,,,,,,,,,,,,,,,,,,,,,,,,,,,,,,,,,,,,,,,,,,,,,,,,,,,,,,,,,,,,,,,,,,,,,,,,,,,,,,,,,,,,,,,,,,,,,,,,,,,,,,,,,,,,,,,,,,
,,,,,,613a9da3c77e45388ba8a4c6,62c538b89489a96cabb6b523,2022-07-06_02h25.09.642,Colour_Asymmetry_Pilot,2022.1.3,Win32,15.00510173,62c50e9c1127f2cd403a315f,0,156,156,122,1,twoone,,,,,,,,,,,,,,,,,,,,,,,,,,,,,,,,,,,,,,,,,,,,,,,,,,,,,,,,,,,,,,,,,,,,,,,,,,,,,,,,,,,,,,,,,,,,,,,,,,,,,,,,,,,,,,,,,,,,,,,,,,,,,,,,,,,,,,,,,,,,,,,,,,,,,,,,,,,,
,,,,,,613a9da3c77e45388ba8a4c6,62c538b89489a96cabb6b523,2022-07-06_02h25.09.642,Colour_Asymmetry_Pilot,2022.1.3,Win32,15.00510173,62c50e9c1127f2cd403a315f,0,157,157,16,1,onetwo,,,,,,,,,,,,,,,,,,,,,,,,,,,,,,,,,,,,,,,,,,,,,,,,,,,,,,,,,,,,,,,,,,,,,,,,,,,,,,,,,,,,,,,,,,,,,,,,,,,,,,,,,,,,,,,,,,,,,,,,,,,,,,,,,,,,,,,,,,,,,,,,,,,,,,,,,,,,
,,,,,,613a9da3c77e45388ba8a4c6,62c538b89489a96cabb6b523,2022-07-06_02h25.09.642,Colour_Asymmetry_Pilot,2022.1.3,Win32,15.00510173,62c50e9c1127f2cd403a315f,0,158,158,127,1,fourthree,,,,,,,,,,,,,,,,,,,,,,,,,,,,,,,,,,,,,,,,,,,,,,,,,,,,,,,,,,,,,,,,,,,,,,,,,,,,,,,,,,,,,,,,,,,,,,,,,,,,,,,,,,,,,,,,,,,,,,,,,,,,,,,,,,,,,,,,,,,,,,,,,,,,,,,,,,,,
,,,,,,613a9da3c77e45388ba8a4c6,62c538b89489a96cabb6b523,2022-07-06_02h25.09.642,Colour_Asymmetry_Pilot,2022.1.3,Win32,15.00510173,62c50e9c1127f2cd403a315f,0,159,159,28,1,threeone,,,,,,,,,,,,,,,,,,,,,,,,,,,,,,,,,,,,,,,,,,,,,,,,,,,,,,,,,,,,,,,,,,,,,,,,,,,,,,,,,,,,,,,,,,,,,,,,,,,,,,,,,,,,,,,,,,,,,,,,,,,,,,,,,,,,,,,,,,,,,,,,,,,,,,,,,,,,
,,,,,,613a9da3c77e45388ba8a4c6,62c538b89489a96cabb6b523,2022-07-06_02h25.09.642,Colour_Asymmetry_Pilot,2022.1.3,Win32,15.00510173,62c50e9c1127f2cd403a315f,0,160,160,79,1,fourthree,,,,,,,,,,,,,,,,,,,,,,,,,,,,,,,,,,,,,,,,,,,,,,,,,,,,,,,,,,,,,,,,,,,,,,,,,,,,,,,,,,,,,,,,,,,,,,,,,,,,,,,,,,,,,,,,,,,,,,,,,,,,,,,,,,,,,,,,,,,,,,,,,,,,,,,,,,,,
,,,,,,613a9da3c77e45388ba8a4c6,62c538b89489a96cabb6b523,2022-07-06_02h25.09.642,Colour_Asymmetry_Pilot,2022.1.3,Win32,15.00510173,62c50e9c1127f2cd403a315f,0,161,161,37,1,threefour,,,,,,,,,,,,,,,,,,,,,,,,,,,,,,,,,,,,,,,,,,,,,,,,,,,,,,,,,,,,,,,,,,,,,,,,,,,,,,,,,,,,,,,,,,,,,,,,,,,,,,,,,,,,,,,,,,,,,,,,,,,,,,,,,,,,,,,,,,,,,,,,,,,,,,,,,,,,
,,,,,,613a9da3c77e45388ba8a4c6,62c538b89489a96cabb6b523,2022-07-06_02h25.09.642,Colour_Asymmetry_Pilot,2022.1.3,Win32,15.00510173,62c50e9c1127f2cd403a315f,,,,,,,space,3.114,space,2.609,space,14.209,space,17.189,space,1.457,space,5.016,"[0.9763999999999999,0.8588,-0.05900000000000005]",twoone,"[-0.4668,-0.8746,-0.2942]",-4,2.235,-47,95,1,0,0,response7disk_5,-11,-6,1,0,0,rectangle_8,98,38,1,0,0,response1disk_7,6,3,20,-8,1,0,0,rectangle_4,0,0,0,0,1,,,,,,,,,,,,,,,,,,,,,,,,,,,,,,,,,,,,,,,,,,,,,,,,,,,,,,,,,,,,,,,,,,,,,,,,,,,,,,,,,,,,,,,,,,,,,,,,,,,,,,,,,,,,
,,,,,,613a9da3c77e45388ba8a4c6,62c538b89489a96cabb6b523,2022-07-06_02h25.09.642,Colour_Asymmetry_Pilot,2022.1.3,Win32,15.00510173,62c50e9c1127f2cd403a315f,,,,,,,,,,,,,,,,,,,"[0.9372,0.9450000000000001,0.8980000000000001]",onetwo,"[-0.24719999999999998,0.5213999999999999,-0.12959999999999994]",-4,1.365,-28,70,1,0,0,response7disk_5,17,9,1,0,0,rectangle_8,17,9,1,0,0,,,3,17,9,1,0,0,,1,0,1,0,1,,,,,,,,,,,,,,,,,,,,,,,,,,,,,,,,,,,,,,,,,,,,,,,,,,,,,,,,,,,,,,,,,,,,,,,,,,,,,,,,,,,,,,,,,,,,,,,,,,,,,,,,,,,,
,,,,,,613a9da3c77e45388ba8a4c6,62c538b89489a96cabb6b523,2022-07-06_02h25.09.642,Colour_Asymmetry_Pilot,2022.1.3,Win32,15.00510173,62c50e9c1127f2cd403a315f,,,,,,,,,,,,,,,,,,,"[-0.4902000000000001,0.2704,-0.45899999999999996]",fourtwo,"[0.9686000000000001,0.3802000000000001,0.19999999999999996]",-4,1.66,-33,76,1,0,0,response7disk_5,14,-11,1,0,0,rectangle_8,14,-11,1,0,0,,,3,14,-11,1,0,0,,2,0,2,0,1,,,,,,,,,,,,,,,,,,,,,,,,,,,,,,,,,,,,,,,,,,,,,,,,,,,,,,,,,,,,,,,,,,,,,,,,,,,,,,,,,,,,,,,,,,,,,,,,,,,,,,,,,,,,
,,,,,,613a9da3c77e45388ba8a4c6,62c538b89489a96cabb6b523,2022-07-06_02h25.09.642,Colour_Asymmetry_Pilot,2022.1.3,Win32,15.00510173,62c50e9c1127f2cd403a315f,,,,,,,,,,,,,,,,,,,"[0.7018,0.7802,-0.16079999999999994]",onetwo,"[-0.01980000000000004,-0.5138,-0.38039999999999996]",-4,1.609,-51,80,1,0,0,response7disk_5,-14,-5,1,0,0,rectangle_8,85,39,1,0,0,response1disk_7,6,3,-3,-13,1,0,0,rectangle_4,3,0,3,0,1,,,,,,,,,,,,,,,,,,,,,,,,,,,,,,,,,,,,,,,,,,,,,,,,,,,,,,,,,,,,,,,,,,,,,,,,,,,,,,,,,,,,,,,,,,,,,,,,,,,,,,,,,,,,
,,,,,,613a9da3c77e45388ba8a4c6,62c538b89489a96cabb6b523,2022-07-06_02h25.09.642,Colour_Asymmetry_Pilot,2022.1.3,Win32,15.00510173,62c50e9c1127f2cd403a315f,,,,,,,,,,,,,,,,,,,"[-0.06680000000000008,-0.45100000000000007,-0.906]",onethree,"[0.9213999999999998,0.6391999999999998,-0.9922]",-4,2.41,-36,85,1,0,0,response7disk_5,15,-7,1,0,0,rectangle_8,15,-7,1,0,0,,,3,15,-7,1,0,0,,4,0,4,0,1,,,,,,,,,,,,,,,,,,,,,,,,,,,,,,,,,,,,,,,,,,,,,,,,,,,,,,,,,,,,,,,,,,,,,,,,,,,,,,,,,,,,,,,,,,,,,,,,,,,,,,,,,,,,
,,,,,,613a9da3c77e45388ba8a4c6,62c538b89489a96cabb6b523,2022-07-06_02h25.09.642,Colour_Asymmetry_Pilot,2022.1.3,Win32,15.00510173,62c50e9c1127f2cd403a315f,,,,,,,,,,,,,,,,,,,"[0.12939999999999996,-0.2864,0.3253999999999999]",fourtwo,"[0.9686000000000001,0.5763999999999998,0.11359999999999992]",-4,2.115,-46,76,1,0,0,response7disk_5,4,-13,1,0,0,rectangle_8,4,-13,1,0,0,,,3,4,-13,1,0,0,,5,0,5,0,1,,,,,,,,,,,,,,,,,,,,,,,,,,,,,,,,,,,,,,,,,,,,,,,,,,,,,,,,,,,,,,,,,,,,,,,,,,,,,,,,,,,,,,,,,,,,,,,,,,,,,,,,,,,,
,,,,,,613a9da3c77e45388ba8a4c6,62c538b89489a96cabb6b523,2022-07-06_02h25.09.642,Colour_Asymmetry_Pilot,2022.1.3,Win32,15.00510173,62c50e9c1127f2cd403a315f,,,,,,,,,,,,,,,,,,,"[-0.10599999999999998,-0.10599999999999998,0.5841999999999998]",onethree,"[0.34099999999999997,0.12939999999999996,-0.9766]",-4,1.339,-46,77,1,0,0,response7disk_5,0,14,1,0,0,rectangle_8,0,14,1,0,0,,,3,0,14,1,0,0,,6,0,6,0,1,,,,,,,,,,,,,,,,,,,,,,,,,,,,,,,,,,,,,,,,,,,,,,,,,,,,,,,,,,,,,,,,,,,,,,,,,,,,,,,,,,,,,,,,,,,,,,,,,,,,,,,,,,,,
,,,,,,613a9da3c77e45388ba8a4c6,62c538b89489a96cabb6b523,2022-07-06_02h25.09.642,Colour_Asymmetry_Pilot,2022.1.3,Win32,15.00510173,62c50e9c1127f2cd403a315f,,,,,,,,,,,,,,,,,,,,fourtwo,,-4,0.624,,,,,,,,,,,,,,,,,,,,,,,,,,,,,,,,space,3.67,"[-0.9766,-0.34920000000000007,0.2156]","[-0.4902000000000001,0.2704,-0.45899999999999996]",-38,53,1,0,0,response7disk,-4,-7,1,0,0,rectangle,-4,-7,1,0,0,,3,0.002,0,-4,-7,1,0,0,0,0,0,89,1,8,second,,,,,,,,,,,,,,,,,,,,,,,,,,,,,,,,,,,,,,,,,,,,,,,,,,,,,,,,,,,,,,,,,,,,,,,
,,,,,,613a9da3c77e45388ba8a4c6,62c538b89489a96cabb6b523,2022-07-06_02h25.09.642,Colour_Asymmetry_Pilot,2022.1.3,Win32,15.00510173,62c50e9c1127f2cd403a315f,,,,,,,,,,,,,,,,,,,,fourthree,,-3,2.463,,,,,,,,,,,,,,,,,,,,,,,,,,,,,,,,,,"[-0.6942,-0.7648,-0.12959999999999994]","[-0.01980000000000004,-0.5138,-0.38039999999999996]",-84,34,1,0,0,response7disk,4,0,1,0,0,rectangle,4,0,1,0,0,,2,0.001,0,4,0,1,0,0,0,1,1,108,1,27,second,,,,,,,,,,,,,,,,,,,,,,,,,,,,,,,,,,,,,,,,,,,,,,,,,,,,,,,,,,,,,,,,,,,,,,,
,,,,,,613a9da3c77e45388ba8a4c6,62c538b89489a96cabb6b523,2022-07-06_02h25.09.642,Colour_Asymmetry_Pilot,2022.1.3,Win32,15.00510173,62c50e9c1127f2cd403a315f,,,,,,,,,,,,,,,,,,,,onethree,,-4,1.459,,,,,,,,,,,,,,,,,,,,,,,,,,,,,,,,,,"[0.37240000000000006,0.4980000000000002,-0.2864]","[-0.9688,-0.7412000000000001,-0.4902000000000001]",-43,66,1,0,0,response7disk,-4,-2,1,0,0,rectangle,-4,-2,1,0,0,,2,0.001,0,-4,-2,1,0,0,0,2,2,116,1,35,second,,,,,,,,,,,,,,,,,,,,,,,,,,,,,,,,,,,,,,,,,,,,,,,,,,,,,,,,,,,,,,,,,,,,,,,
,,,,,,613a9da3c77e45388ba8a4c6,62c538b89489a96cabb6b523,2022-07-06_02h25.09.642,Colour_Asymmetry_Pilot,2022.1.3,Win32,15.00510173,62c50e9c1127f2cd403a315f,,,,,,,,,,,,,,,,,,,,fourthree,,-2,2.76,,,,,,,,,,,,,,,,,,,,,,,,,,,,,,,,,,"[0.34099999999999997,0.12939999999999996,-0.9766]","[0.34099999999999997,0.5841999999999998,-0.9844]",-87,-19,1,0,0,response5disk,-4,-1,1,0,0,rectangle,-4,-1,1,0,0,,1,0.001,0,-4,-1,1,0,0,0,3,3,38,1,38,first,,,,,,,,,,,,,,,,,,,,,,,,,,,,,,,,,,,,,,,,,,,,,,,,,,,,,,,,,,,,,,,,,,,,,,,
,,,,,,613a9da3c77e45388ba8a4c6,62c538b89489a96cabb6b523,2022-07-06_02h25.09.642,Colour_Asymmetry_Pilot,2022.1.3,Win32,15.00510173,62c50e9c1127f2cd403a315f,,,,,,,,,,,,,,,,,,,,twofour,,-4,0.584,,,,,,,,,,,,,,,,,,,,,,,,,,,,,,,,,,"[-0.4276,0.0038000000000000256,-0.3256]","[0.9686000000000001,0.3802000000000001,0.19999999999999996]",-42,64,1,0,0,response7disk,-17,2,1,0,0,rectangle,-17,2,1,0,0,,1,0,0,-17,2,1,0,0,0,4,4,148,1,67,second,,,,,,,,,,,,,,,,,,,,,,,,,,,,,,,,,,,,,,,,,,,,,,,,,,,,,,,,,,,,,,,,,,,,,,,
,,,,,,613a9da3c77e45388ba8a4c6,62c538b89489a96cabb6b523,2022-07-06_02h25.09.642,Colour_Asymmetry_Pilot,2022.1.3,Win32,15.00510173,62c50e9c1127f2cd403a315f,,,,,,,,,,,,,,,,,,,,twoone,,-4,0.727,,,,,,,,,,,,,,,,,,,,,,,,,,,,,,,,,,"[-0.011800000000000033,-0.906,-0.45100000000000007]","[-0.0040000000000000036,0.02739999999999987,-0.08239999999999992]",-42,67,1,0,0,response7disk,-14,3,1,0,0,rectangle,-14,3,1,0,0,,1,0,0,-14,3,1,0,0,0,5,5,10,1,10,first,,,,,,,,,,,,,,,,,,,,,,,,,,,,,,,,,,,,,,,,,,,,,,,,,,,,,,,,,,,,,,,,,,,,,,,
,,,,,,613a9da3c77e45388ba8a4c6,62c538b89489a96cabb6b523,2022-07-06_02h25.09.642,Colour_Asymmetry_Pilot,2022.1.3,Win32,15.00510173,62c50e9c1127f2cd403a315f,,,,,,,,,,,,,,,,,,,,threeone,,-4,0.746,,,,,,,,,,,,,,,,,,,,,,,,,,,,,,,,,,"[0.7176,-0.906,-0.6864]","[-0.6706000000000001,-0.6157999999999999,-0.6786]",-24,58,1,0,0,response7disk,-12,-3,1,0,0,rectangle,-12,-3,1,0,0,,1,0.001,0,-12,-3,1,0,0,0,6,6,58,1,58,first,,,,,,,,,,,,,,,,,,,,,,,,,,,,,,,,,,,,,,,,,,,,,,,,,,,,,,,,,,,,,,,,,,,,,,,
,,,,,,613a9da3c77e45388ba8a4c6,62c538b89489a96cabb6b523,2022-07-06_02h25.09.642,Colour_Asymmetry_Pilot,2022.1.3,Win32,15.00510173,62c50e9c1127f2cd403a315f,,,,,,,,,,,,,,,,,,,,threeone,,-4,0.737,,,,,,,,,,,,,,,,,,,,,,,,,,,,,,,,,,"[-0.4746,-0.0354000000000001,0.5449999999999999]","[-0.7412000000000001,-0.08239999999999992,-0.6864]",-25,59,1,0,0,response7disk,-14,13,1,0,0,rectangle,-14,13,1,0,0,,3,0.002,0,-14,13,1,0,0,0,7,7,41,1,41,first,,,,,,,,,,,,,,,,,,,,,,,,,,,,,,,,,,,,,,,,,,,,,,,,,,,,,,,,,,,,,,,,,,,,,,,
,,,,,,613a9da3c77e45388ba8a4c6,62c538b89489a96cabb6b523,2022-07-06_02h25.09.642,Colour_Asymmetry_Pilot,2022.1.3,Win32,15.00510173,62c50e9c1127f2cd403a315f,,,,,,,,,,,,,,,,,,,,fourtwo,,-4,1.138,,,,,,,,,,,,,,,,,,,,,,,,,,,,,,,,,,"[0.9372,0.9450000000000001,0.8980000000000001]","[-0.01980000000000004,-0.5138,-0.38039999999999996]",-17,72,1,0,0,response7disk,-13,1,1,0,0,rectangle,-13,1,1,0,0,,3,0.001,0,-13,1,1,0,0,0,8,8,77,1,77,first,,,,,,,,,,,,,,,,,,,,,,,,,,,,,,,,,,,,,,,,,,,,,,,,,,,,,,,,,,,,,,,,,,,,,,,
,,,,,,613a9da3c77e45388ba8a4c6,62c538b89489a96cabb6b523,2022-07-06_02h25.09.642,Colour_Asymmetry_Pilot,2022.1.3,Win32,15.00510173,62c50e9c1127f2cd403a315f,,,,,,,,,,,,,,,,,,,,twoone,,-2,1.137,,,,,,,,,,,,,,,,,,,,,,,,,,,,,,,,,,"[-0.48240000000000005,0.3175999999999999,0.2156]","[-0.6942,-0.7648,-0.12959999999999994]",-70,-33,1,0,0,response5disk,1,1,1,0,0,rectangle,1,1,1,0,0,,1,0.001,0,1,1,1,0,0,0,9,9,69,1,69,first,,,,,,,,,,,,,,,,,,,,,,,,,,,,,,,,,,,,,,,,,,,,,,,,,,,,,,,,,,,,,,,,,,,,,,,
,,,,,,613a9da3c77e45388ba8a4c6,62c538b89489a96cabb6b523,2022-07-06_02h25.09.642,Colour_Asymmetry_Pilot,2022.1.3,Win32,15.00510173,62c50e9c1127f2cd403a315f,,,,,,,,,,,,,,,,,,,,threefour,,-4,1.072,,,,,,,,,,,,,,,,,,,,,,,,,,,,,,,,,,"[0.5528,0.7409999999999999,-0.71]","[-0.01980000000000004,-0.5138,-0.38039999999999996]",-29,58,1,0,0,response7disk,-24,-2,1,0,0,rectangle,-24,-2,1,0,0,,2,0.001,0,-24,-2,1,0,0,0,10,10,154,1,73,second,,,,,,,,,,,,,,,,,,,,,,,,,,,,,,,,,,,,,,,,,,,,,,,,,,,,,,,,,,,,,,,,,,,,,,,
,,,,,,613a9da3c77e45388ba8a4c6,62c538b89489a96cabb6b523,2022-07-06_02h25.09.642,Colour_Asymmetry_Pilot,2022.1.3,Win32,15.00510173,62c50e9c1127f2cd403a315f,,,,,,,,,,,,,,,,,,,,twofour,,-4,0.7,,,,,,,,,,,,,,,,,,,,,,,,,,,,,,,,,,"[-0.9296,-0.12959999999999994,-0.043199999999999905]","[0.3881999999999999,-0.23939999999999995,-0.05040000000000011]",-38,54,1,0,0,response7disk,-19,9,1,0,0,rectangle,-19,9,1,0,0,,1,0.001,0,-19,9,1,0,0,0,11,11,22,1,22,first,,,,,,,,,,,,,,,,,,,,,,,,,,,,,,,,,,,,,,,,,,,,,,,,,,,,,,,,,,,,,,,,,,,,,,,
,,,,,,613a9da3c77e45388ba8a4c6,62c538b89489a96cabb6b523,2022-07-06_02h25.09.642,Colour_Asymmetry_Pilot,2022.1.3,Win32,15.00510173,62c50e9c1127f2cd403a315f,,,,,,,,,,,,,,,,,,,,threeone,,-4,1.478,,,,,,,,,,,,,,,,,,,,,,,,,,,,,,,,,,"[-0.7412000000000001,-0.08239999999999992,-0.6864]","[-0.4746,-0.0354000000000001,0.5449999999999999]",-53,71,1,0,0,response7disk,-21,2,1,0,0,rectangle,-21,2,1,0,0,,2,0.001,0,-21,2,1,0,0,0,12,12,122,1,41,second,,,,,,,,,,,,,,,,,,,,,,,,,,,,,,,,,,,,,,,,,,,,,,,,,,,,,,,,,,,,,,,,,,,,,,,
,,,,,,613a9da3c77e45388ba8a4c6,62c538b89489a96cabb6b523,2022-07-06_02h25.09.642,Colour_Asymmetry_Pilot,2022.1.3,Win32,15.00510173,62c50e9c1127f2cd403a315f,,,,,,,,,,,,,,,,,,,,onetwo,,-4,1.243,,,,,,,,,,,,,,,,,,,,,,,,,,,,,,,,,,"[0.9686000000000001,0.5763999999999998,0.11359999999999992]","[-0.9766,-0.6472,0.07440000000000002]",-27,73,1,0,0,response7disk,-1,8,1,0,0,rectangle,-1,8,1,0,0,,3,0.001,0,-1,8,1,0,0,0,13,13,127,1,46,second,,,,,,,,,,,,,,,,,,,,,,,,,,,,,,,,,,,,,,,,,,,,,,,,,,,,,,,,,,,,,,,,,,,,,,,
,,,,,,613a9da3c77e45388ba8a4c6,62c538b89489a96cabb6b523,2022-07-06_02h25.09.642,Colour_Asymmetry_Pilot,2022.1.3,Win32,15.00510173,62c50e9c1127f2cd403a315f,,,,,,,,,,,,,,,,,,,,fourtwo,,-2,1.072,,,,,,,,,,,,,,,,,,,,,,,,,,,,,,,,,,"[0.05879999999999996,0.2784,0.5841999999999998]","[-0.9844,-0.9688,-0.9922]",-78,-26,1,0,0,response5disk,-9,-3,1,0,0,rectangle,-9,-3,1,0,0,,2,0.001,0,-9,-3,1,0,0,0,14,14,83,1,2,second,,,,,,,,,,,,,,,,,,,,,,,,,,,,,,,,,,,,,,,,,,,,,,,,,,,,,,,,,,,,,,,,,,,,,,,
,,,,,,613a9da3c77e45388ba8a4c6,62c538b89489a96cabb6b523,2022-07-06_02h25.09.642,Colour_Asymmetry_Pilot,2022.1.3,Win32,15.00510173,62c50e9c1127f2cd403a315f,,,,,,,,,,,,,,,,,,,,onethree,,2,3.243,,,,,,,,,,,,,,,,,,,,,,,,,,,,,,,,,,"[-0.17659999999999998,-0.2864,-0.8354]","[-0.45899999999999996,-0.3256,-0.9374]",75,-41,1,0,0,response3disk,11,1,1,0,0,rectangle,11,1,1,0,0,,1,0.001,0,11,1,1,0,0,0,15,15,133,1,52,second,,,,,,,,,,,,,,,,,,,,,,,,,,,,,,,,,,,,,,,,,,,,,,,,,,,,,,,,,,,,,,,,,,,,,,,
,,,,,,613a9da3c77e45388ba8a4c6,62c538b89489a96cabb6b523,2022-07-06_02h25.09.642,Colour_Asymmetry_Pilot,2022.1.3,Win32,15.00510173,62c50e9c1127f2cd403a315f,,,,,,,,,,,,,,,,,,,,onetwo,,-4,0.558,,,,,,,,,,,,,,,,,,,,,,,,,,,,,,,,,,"[-0.01980000000000004,-0.5138,-0.38039999999999996]","[-0.09019999999999995,0.44300000000000006,0.5371999999999999]",-43,75,1,0,0,response7disk,-14,5,1,0,0,rectangle,-14,5,1,0,0,,3,0.002,0,-14,5,1,0,0,0,16,16,124,1,43,second,,,,,,,,,,,,,,,,,,,,,,,,,,,,,,,,,,,,,,,,,,,,,,,,,,,,,,,,,,,,,,,,,,,,,,,
,,,,,,613a9da3c77e45388ba8a4c6,62c538b89489a96cabb6b523,2022-07-06_02h25.09.642,Colour_Asymmetry_Pilot,2022.1.3,Win32,15.00510173,62c50e9c1127f2cd403a315f,,,,,,,,,,,,,,,,,,,,twofour,,-4,0.479,,,,,,,,,,,,,,,,,,,,,,,,,,,,,,,,,,"[0.18419999999999992,-0.4276,-0.404]","[-0.45899999999999996,-0.3256,-0.9374]",-20,59,1,0,0,response7disk,-15,8,1,0,0,rectangle,-15,8,1,0,0,,2,0.001,0,-15,8,1,0,0,0,17,17,110,1,29,second,,,,,,,,,,,,,,,,,,,,,,,,,,,,,,,,,,,,,,,,,,,,,,,,,,,,,,,,,,,,,,,,,,,,,,,
