trials.thisRepN,trials.thisTrialN,trials.thisN,trials.thisIndex,trials.ran,Colourcodes,participant,session,date,expName,psychopyVersion,OS,frameRate,study_id,trials_4.thisRepN,trials_4.thisTrialN,trials_4.thisN,trials_4.thisIndex,trials_4.ran,StimulusPos,key_resp.keys,key_resp.rt,key_resp_2.keys,key_resp_2.rt,key_resp_15.keys,key_resp_15.rt,key_resp_17.keys,key_resp_17.rt,key_resp_9.keys,key_resp_9.rt,key_resp_10.keys,key_resp_10.rt,Circle1_col,Ecc,Circle2_col,similarity,response_time,mouse_5.x,mouse_5.y,mouse_5.leftButton,mouse_5.midButton,mouse_5.rightButton,mouse_5.clicked_name,mouse_10.x,mouse_10.y,mouse_10.leftButton,mouse_10.midButton,mouse_10.rightButton,mouse_10.clicked_name,mouse_7.x,mouse_7.y,mouse_7.leftButton,mouse_7.midButton,mouse_7.rightButton,catchnumberprac,mouse_6.x,mouse_6.y,mouse_6.leftButton,mouse_6.midButton,mouse_6.rightButton,duringprac.thisRepN,duringprac.thisTrialN,duringprac.thisN,duringprac.thisIndex,duringprac.ran,mouse_7.clicked_name,catchprac,mouse_6.clicked_name,key_resp_22.keys,key_resp_22.rt,Circle1_colour,Circle2_colour,mouse.x,mouse.y,mouse.leftButton,mouse.midButton,mouse.rightButton,mouse.clicked_name,mouse_2.x,mouse_2.y,mouse_2.leftButton,mouse_2.midButton,mouse_2.rightButton,mouse_2.clicked_name,mouse_3.x,mouse_3.y,mouse_3.leftButton,mouse_3.midButton,mouse_3.rightButton,catchresponse,catchnumber,response_time_catch,Catch,mouse_11.x,mouse_11.y,mouse_11.leftButton,mouse_11.midButton,mouse_11.rightButton,trials_2.thisRepN,trials_2.thisTrialN,trials_2.thisN,trials_2.thisIndex,trials_2.ran,Colourpair,Temporder,mouse_3.clicked_name,mouse_11.clicked_name,trials_3.thisRepN,trials_3.thisTrialN,trials_3.thisN,trials_3.thisIndex,trials_3.ran,key_resp_instr_Ishi.keys,key_resp_instr_Ishi.rt,Ishi_trial_keyresp.keys,Ishi_textbox.text,Ishi_mouse.x,Ishi_mouse.y,Ishi_mouse.leftButton,Ishi_mouse.midButton,Ishi_mouse.rightButton,Ishi_mouse.clicked_name,Ishi_loop.thisRepN,Ishi_loop.thisTrialN,Ishi_loop.thisN,Ishi_loop.thisIndex,Ishi_loop.ran,imageaddress,textbox.text,mouse_4.x,mouse_4.y,mouse_4.leftButton,mouse_4.midButton,mouse_4.rightButton,mouse_4.clicked_name,textbox_2.text,mouse_8.x,mouse_8.y,mouse_8.leftButton,mouse_8.midButton,mouse_8.rightButton,mouse_8.clicked_name,textbox_3.text,mouse_9.x,mouse_9.y,mouse_9.leftButton,mouse_9.midButton,mouse_9.rightButton,mouse_9.clicked_name,textbox_4.text,mouse_12.x,mouse_12.y,mouse_12.leftButton,mouse_12.midButton,mouse_12.rightButton,mouse_12.clicked_name,textbox_5.text,mouse_13.x,mouse_13.y,mouse_13.leftButton,mouse_13.midButton,mouse_13.rightButton,mouse_13.clicked_name,textbox_6.text,mouse_14.x,mouse_14.y,mouse_14.leftButton,mouse_14.midButton,mouse_14.rightButton,mouse_14.clicked_name,textbox_7.text,mouse_15.x,mouse_15.y,mouse_15.leftButton,mouse_15.midButton,mouse_15.rightButton,mouse_15.clicked_name
0,0,0,9,1,,5f52b69cd864aa5b51e1fc63,62c53a2f808438d282f10f07,2022-07-06_02h32.35.254,Colour_Asymmetry_Pilot,2022.1.3,Win32,59.99520038,62c50e9c1127f2cd403a315f,,,,,,,,,,,,,,,,,,,,,,,,,,,,,,,,,,,,,,,,,,,,,,,,,,,,,,,,,,,,,,,,,,,,,,,,,,,,,,,,,,,,,,,,,,,,,,,,,,,,,,,,,,,,,,,,,,,,,,,,,,,,,,,,,,,,,,,,,,,,,,,,,,,,,,,,,,,,,,,,,,,
0,1,1,22,1,,5f52b69cd864aa5b51e1fc63,62c53a2f808438d282f10f07,2022-07-06_02h32.35.254,Colour_Asymmetry_Pilot,2022.1.3,Win32,59.99520038,62c50e9c1127f2cd403a315f,,,,,,,,,,,,,,,,,,,,,,,,,,,,,,,,,,,,,,,,,,,,,,,,,,,,,,,,,,,,,,,,,,,,,,,,,,,,,,,,,,,,,,,,,,,,,,,,,,,,,,,,,,,,,,,,,,,,,,,,,,,,,,,,,,,,,,,,,,,,,,,,,,,,,,,,,,,,,,,,,,,
0,2,2,51,1,,5f52b69cd864aa5b51e1fc63,62c53a2f808438d282f10f07,2022-07-06_02h32.35.254,Colour_Asymmetry_Pilot,2022.1.3,Win32,59.99520038,62c50e9c1127f2cd403a315f,,,,,,,,,,,,,,,,,,,,,,,,,,,,,,,,,,,,,,,,,,,,,,,,,,,,,,,,,,,,,,,,,,,,,,,,,,,,,,,,,,,,,,,,,,,,,,,,,,,,,,,,,,,,,,,,,,,,,,,,,,,,,,,,,,,,,,,,,,,,,,,,,,,,,,,,,,,,,,,,,,,
0,3,3,39,1,,5f52b69cd864aa5b51e1fc63,62c53a2f808438d282f10f07,2022-07-06_02h32.35.254,Colour_Asymmetry_Pilot,2022.1.3,Win32,59.99520038,62c50e9c1127f2cd403a315f,,,,,,,,,,,,,,,,,,,,,,,,,,,,,,,,,,,,,,,,,,,,,,,,,,,,,,,,,,,,,,,,,,,,,,,,,,,,,,,,,,,,,,,,,,,,,,,,,,,,,,,,,,,,,,,,,,,,,,,,,,,,,,,,,,,,,,,,,,,,,,,,,,,,,,,,,,,,,,,,,,,
0,4,4,28,1,,5f52b69cd864aa5b51e1fc63,62c53a2f808438d282f10f07,2022-07-06_02h32.35.254,Colour_Asymmetry_Pilot,2022.1.3,Win32,59.99520038,62c50e9c1127f2cd403a315f,,,,,,,,,,,,,,,,,,,,,,,,,,,,,,,,,,,,,,,,,,,,,,,,,,,,,,,,,,,,,,,,,,,,,,,,,,,,,,,,,,,,,,,,,,,,,,,,,,,,,,,,,,,,,,,,,,,,,,,,,,,,,,,,,,,,,,,,,,,,,,,,,,,,,,,,,,,,,,,,,,,
0,5,5,55,1,,5f52b69cd864aa5b51e1fc63,62c53a2f808438d282f10f07,2022-07-06_02h32.35.254,Colour_Asymmetry_Pilot,2022.1.3,Win32,59.99520038,62c50e9c1127f2cd403a315f,,,,,,,,,,,,,,,,,,,,,,,,,,,,,,,,,,,,,,,,,,,,,,,,,,,,,,,,,,,,,,,,,,,,,,,,,,,,,,,,,,,,,,,,,,,,,,,,,,,,,,,,,,,,,,,,,,,,,,,,,,,,,,,,,,,,,,,,,,,,,,,,,,,,,,,,,,,,,,,,,,,
0,6,6,82,1,,5f52b69cd864aa5b51e1fc63,62c53a2f808438d282f10f07,2022-07-06_02h32.35.254,Colour_Asymmetry_Pilot,2022.1.3,Win32,59.99520038,62c50e9c1127f2cd403a315f,,,,,,,,,,,,,,,,,,,,,,,,,,,,,,,,,,,,,,,,,,,,,,,,,,,,,,,,,,,,,,,,,,,,,,,,,,,,,,,,,,,,,,,,,,,,,,,,,,,,,,,,,,,,,,,,,,,,,,,,,,,,,,,,,,,,,,,,,,,,,,,,,,,,,,,,,,,,,,,,,,,
0,7,7,29,1,,5f52b69cd864aa5b51e1fc63,62c53a2f808438d282f10f07,2022-07-06_02h32.35.254,Colour_Asymmetry_Pilot,2022.1.3,Win32,59.99520038,62c50e9c1127f2cd403a315f,,,,,,,,,,,,,,,,,,,,,,,,,,,,,,,,,,,,,,,,,,,,,,,,,,,,,,,,,,,,,,,,,,,,,,,,,,,,,,,,,,,,,,,,,,,,,,,,,,,,,,,,,,,,,,,,,,,,,,,,,,,,,,,,,,,,,,,,,,,,,,,,,,,,,,,,,,,,,,,,,,,
0,8,8,43,1,,5f52b69cd864aa5b51e1fc63,62c53a2f808438d282f10f07,2022-07-06_02h32.35.254,Colour_Asymmetry_Pilot,2022.1.3,Win32,59.99520038,62c50e9c1127f2cd403a315f,,,,,,,,,,,,,,,,,,,,,,,,,,,,,,,,,,,,,,,,,,,,,,,,,,,,,,,,,,,,,,,,,,,,,,,,,,,,,,,,,,,,,,,,,,,,,,,,,,,,,,,,,,,,,,,,,,,,,,,,,,,,,,,,,,,,,,,,,,,,,,,,,,,,,,,,,,,,,,,,,,,
0,9,9,61,1,,5f52b69cd864aa5b51e1fc63,62c53a2f808438d282f10f07,2022-07-06_02h32.35.254,Colour_Asymmetry_Pilot,2022.1.3,Win32,59.99520038,62c50e9c1127f2cd403a315f,,,,,,,,,,,,,,,,,,,,,,,,,,,,,,,,,,,,,,,,,,,,,,,,,,,,,,,,,,,,,,,,,,,,,,,,,,,,,,,,,,,,,,,,,,,,,,,,,,,,,,,,,,,,,,,,,,,,,,,,,,,,,,,,,,,,,,,,,,,,,,,,,,,,,,,,,,,,,,,,,,,
0,10,10,42,1,,5f52b69cd864aa5b51e1fc63,62c53a2f808438d282f10f07,2022-07-06_02h32.35.254,Colour_Asymmetry_Pilot,2022.1.3,Win32,59.99520038,62c50e9c1127f2cd403a315f,,,,,,,,,,,,,,,,,,,,,,,,,,,,,,,,,,,,,,,,,,,,,,,,,,,,,,,,,,,,,,,,,,,,,,,,,,,,,,,,,,,,,,,,,,,,,,,,,,,,,,,,,,,,,,,,,,,,,,,,,,,,,,,,,,,,,,,,,,,,,,,,,,,,,,,,,,,,,,,,,,,
0,11,11,14,1,,5f52b69cd864aa5b51e1fc63,62c53a2f808438d282f10f07,2022-07-06_02h32.35.254,Colour_Asymmetry_Pilot,2022.1.3,Win32,59.99520038,62c50e9c1127f2cd403a315f,,,,,,,,,,,,,,,,,,,,,,,,,,,,,,,,,,,,,,,,,,,,,,,,,,,,,,,,,,,,,,,,,,,,,,,,,,,,,,,,,,,,,,,,,,,,,,,,,,,,,,,,,,,,,,,,,,,,,,,,,,,,,,,,,,,,,,,,,,,,,,,,,,,,,,,,,,,,,,,,,,,
0,12,12,78,1,,5f52b69cd864aa5b51e1fc63,62c53a2f808438d282f10f07,2022-07-06_02h32.35.254,Colour_Asymmetry_Pilot,2022.1.3,Win32,59.99520038,62c50e9c1127f2cd403a315f,,,,,,,,,,,,,,,,,,,,,,,,,,,,,,,,,,,,,,,,,,,,,,,,,,,,,,,,,,,,,,,,,,,,,,,,,,,,,,,,,,,,,,,,,,,,,,,,,,,,,,,,,,,,,,,,,,,,,,,,,,,,,,,,,,,,,,,,,,,,,,,,,,,,,,,,,,,,,,,,,,,
0,13,13,69,1,,5f52b69cd864aa5b51e1fc63,62c53a2f808438d282f10f07,2022-07-06_02h32.35.254,Colour_Asymmetry_Pilot,2022.1.3,Win32,59.99520038,62c50e9c1127f2cd403a315f,,,,,,,,,,,,,,,,,,,,,,,,,,,,,,,,,,,,,,,,,,,,,,,,,,,,,,,,,,,,,,,,,,,,,,,,,,,,,,,,,,,,,,,,,,,,,,,,,,,,,,,,,,,,,,,,,,,,,,,,,,,,,,,,,,,,,,,,,,,,,,,,,,,,,,,,,,,,,,,,,,,
0,14,14,19,1,,5f52b69cd864aa5b51e1fc63,62c53a2f808438d282f10f07,2022-07-06_02h32.35.254,Colour_Asymmetry_Pilot,2022.1.3,Win32,59.99520038,62c50e9c1127f2cd403a315f,,,,,,,,,,,,,,,,,,,,,,,,,,,,,,,,,,,,,,,,,,,,,,,,,,,,,,,,,,,,,,,,,,,,,,,,,,,,,,,,,,,,,,,,,,,,,,,,,,,,,,,,,,,,,,,,,,,,,,,,,,,,,,,,,,,,,,,,,,,,,,,,,,,,,,,,,,,,,,,,,,,
0,15,15,86,1,,5f52b69cd864aa5b51e1fc63,62c53a2f808438d282f10f07,2022-07-06_02h32.35.254,Colour_Asymmetry_Pilot,2022.1.3,Win32,59.99520038,62c50e9c1127f2cd403a315f,,,,,,,,,,,,,,,,,,,,,,,,,,,,,,,,,,,,,,,,,,,,,,,,,,,,,,,,,,,,,,,,,,,,,,,,,,,,,,,,,,,,,,,,,,,,,,,,,,,,,,,,,,,,,,,,,,,,,,,,,,,,,,,,,,,,,,,,,,,,,,,,,,,,,,,,,,,,,,,,,,,
0,16,16,79,1,,5f52b69cd864aa5b51e1fc63,62c53a2f808438d282f10f07,2022-07-06_02h32.35.254,Colour_Asymmetry_Pilot,2022.1.3,Win32,59.99520038,62c50e9c1127f2cd403a315f,,,,,,,,,,,,,,,,,,,,,,,,,,,,,,,,,,,,,,,,,,,,,,,,,,,,,,,,,,,,,,,,,,,,,,,,,,,,,,,,,,,,,,,,,,,,,,,,,,,,,,,,,,,,,,,,,,,,,,,,,,,,,,,,,,,,,,,,,,,,,,,,,,,,,,,,,,,,,,,,,,,
0,17,17,70,1,,5f52b69cd864aa5b51e1fc63,62c53a2f808438d282f10f07,2022-07-06_02h32.35.254,Colour_Asymmetry_Pilot,2022.1.3,Win32,59.99520038,62c50e9c1127f2cd403a315f,,,,,,,,,,,,,,,,,,,,,,,,,,,,,,,,,,,,,,,,,,,,,,,,,,,,,,,,,,,,,,,,,,,,,,,,,,,,,,,,,,,,,,,,,,,,,,,,,,,,,,,,,,,,,,,,,,,,,,,,,,,,,,,,,,,,,,,,,,,,,,,,,,,,,,,,,,,,,,,,,,,
0,18,18,8,1,,5f52b69cd864aa5b51e1fc63,62c53a2f808438d282f10f07,2022-07-06_02h32.35.254,Colour_Asymmetry_Pilot,2022.1.3,Win32,59.99520038,62c50e9c1127f2cd403a315f,,,,,,,,,,,,,,,,,,,,,,,,,,,,,,,,,,,,,,,,,,,,,,,,,,,,,,,,,,,,,,,,,,,,,,,,,,,,,,,,,,,,,,,,,,,,,,,,,,,,,,,,,,,,,,,,,,,,,,,,,,,,,,,,,,,,,,,,,,,,,,,,,,,,,,,,,,,,,,,,,,,
0,19,19,27,1,,5f52b69cd864aa5b51e1fc63,62c53a2f808438d282f10f07,2022-07-06_02h32.35.254,Colour_Asymmetry_Pilot,2022.1.3,Win32,59.99520038,62c50e9c1127f2cd403a315f,,,,,,,,,,,,,,,,,,,,,,,,,,,,,,,,,,,,,,,,,,,,,,,,,,,,,,,,,,,,,,,,,,,,,,,,,,,,,,,,,,,,,,,,,,,,,,,,,,,,,,,,,,,,,,,,,,,,,,,,,,,,,,,,,,,,,,,,,,,,,,,,,,,,,,,,,,,,,,,,,,,
0,20,20,73,1,,5f52b69cd864aa5b51e1fc63,62c53a2f808438d282f10f07,2022-07-06_02h32.35.254,Colour_Asymmetry_Pilot,2022.1.3,Win32,59.99520038,62c50e9c1127f2cd403a315f,,,,,,,,,,,,,,,,,,,,,,,,,,,,,,,,,,,,,,,,,,,,,,,,,,,,,,,,,,,,,,,,,,,,,,,,,,,,,,,,,,,,,,,,,,,,,,,,,,,,,,,,,,,,,,,,,,,,,,,,,,,,,,,,,,,,,,,,,,,,,,,,,,,,,,,,,,,,,,,,,,,
0,21,21,67,1,,5f52b69cd864aa5b51e1fc63,62c53a2f808438d282f10f07,2022-07-06_02h32.35.254,Colour_Asymmetry_Pilot,2022.1.3,Win32,59.99520038,62c50e9c1127f2cd403a315f,,,,,,,,,,,,,,,,,,,,,,,,,,,,,,,,,,,,,,,,,,,,,,,,,,,,,,,,,,,,,,,,,,,,,,,,,,,,,,,,,,,,,,,,,,,,,,,,,,,,,,,,,,,,,,,,,,,,,,,,,,,,,,,,,,,,,,,,,,,,,,,,,,,,,,,,,,,,,,,,,,,
0,22,22,4,1,,5f52b69cd864aa5b51e1fc63,62c53a2f808438d282f10f07,2022-07-06_02h32.35.254,Colour_Asymmetry_Pilot,2022.1.3,Win32,59.99520038,62c50e9c1127f2cd403a315f,,,,,,,,,,,,,,,,,,,,,,,,,,,,,,,,,,,,,,,,,,,,,,,,,,,,,,,,,,,,,,,,,,,,,,,,,,,,,,,,,,,,,,,,,,,,,,,,,,,,,,,,,,,,,,,,,,,,,,,,,,,,,,,,,,,,,,,,,,,,,,,,,,,,,,,,,,,,,,,,,,,
0,23,23,66,1,,5f52b69cd864aa5b51e1fc63,62c53a2f808438d282f10f07,2022-07-06_02h32.35.254,Colour_Asymmetry_Pilot,2022.1.3,Win32,59.99520038,62c50e9c1127f2cd403a315f,,,,,,,,,,,,,,,,,,,,,,,,,,,,,,,,,,,,,,,,,,,,,,,,,,,,,,,,,,,,,,,,,,,,,,,,,,,,,,,,,,,,,,,,,,,,,,,,,,,,,,,,,,,,,,,,,,,,,,,,,,,,,,,,,,,,,,,,,,,,,,,,,,,,,,,,,,,,,,,,,,,
0,24,24,48,1,,5f52b69cd864aa5b51e1fc63,62c53a2f808438d282f10f07,2022-07-06_02h32.35.254,Colour_Asymmetry_Pilot,2022.1.3,Win32,59.99520038,62c50e9c1127f2cd403a315f,,,,,,,,,,,,,,,,,,,,,,,,,,,,,,,,,,,,,,,,,,,,,,,,,,,,,,,,,,,,,,,,,,,,,,,,,,,,,,,,,,,,,,,,,,,,,,,,,,,,,,,,,,,,,,,,,,,,,,,,,,,,,,,,,,,,,,,,,,,,,,,,,,,,,,,,,,,,,,,,,,,
0,25,25,37,1,,5f52b69cd864aa5b51e1fc63,62c53a2f808438d282f10f07,2022-07-06_02h32.35.254,Colour_Asymmetry_Pilot,2022.1.3,Win32,59.99520038,62c50e9c1127f2cd403a315f,,,,,,,,,,,,,,,,,,,,,,,,,,,,,,,,,,,,,,,,,,,,,,,,,,,,,,,,,,,,,,,,,,,,,,,,,,,,,,,,,,,,,,,,,,,,,,,,,,,,,,,,,,,,,,,,,,,,,,,,,,,,,,,,,,,,,,,,,,,,,,,,,,,,,,,,,,,,,,,,,,,
0,26,26,58,1,,5f52b69cd864aa5b51e1fc63,62c53a2f808438d282f10f07,2022-07-06_02h32.35.254,Colour_Asymmetry_Pilot,2022.1.3,Win32,59.99520038,62c50e9c1127f2cd403a315f,,,,,,,,,,,,,,,,,,,,,,,,,,,,,,,,,,,,,,,,,,,,,,,,,,,,,,,,,,,,,,,,,,,,,,,,,,,,,,,,,,,,,,,,,,,,,,,,,,,,,,,,,,,,,,,,,,,,,,,,,,,,,,,,,,,,,,,,,,,,,,,,,,,,,,,,,,,,,,,,,,,
0,27,27,20,1,,5f52b69cd864aa5b51e1fc63,62c53a2f808438d282f10f07,2022-07-06_02h32.35.254,Colour_Asymmetry_Pilot,2022.1.3,Win32,59.99520038,62c50e9c1127f2cd403a315f,,,,,,,,,,,,,,,,,,,,,,,,,,,,,,,,,,,,,,,,,,,,,,,,,,,,,,,,,,,,,,,,,,,,,,,,,,,,,,,,,,,,,,,,,,,,,,,,,,,,,,,,,,,,,,,,,,,,,,,,,,,,,,,,,,,,,,,,,,,,,,,,,,,,,,,,,,,,,,,,,,,
0,28,28,92,1,,5f52b69cd864aa5b51e1fc63,62c53a2f808438d282f10f07,2022-07-06_02h32.35.254,Colour_Asymmetry_Pilot,2022.1.3,Win32,59.99520038,62c50e9c1127f2cd403a315f,,,,,,,,,,,,,,,,,,,,,,,,,,,,,,,,,,,,,,,,,,,,,,,,,,,,,,,,,,,,,,,,,,,,,,,,,,,,,,,,,,,,,,,,,,,,,,,,,,,,,,,,,,,,,,,,,,,,,,,,,,,,,,,,,,,,,,,,,,,,,,,,,,,,,,,,,,,,,,,,,,,
0,29,29,11,1,,5f52b69cd864aa5b51e1fc63,62c53a2f808438d282f10f07,2022-07-06_02h32.35.254,Colour_Asymmetry_Pilot,2022.1.3,Win32,59.99520038,62c50e9c1127f2cd403a315f,,,,,,,,,,,,,,,,,,,,,,,,,,,,,,,,,,,,,,,,,,,,,,,,,,,,,,,,,,,,,,,,,,,,,,,,,,,,,,,,,,,,,,,,,,,,,,,,,,,,,,,,,,,,,,,,,,,,,,,,,,,,,,,,,,,,,,,,,,,,,,,,,,,,,,,,,,,,,,,,,,,
0,30,30,10,1,,5f52b69cd864aa5b51e1fc63,62c53a2f808438d282f10f07,2022-07-06_02h32.35.254,Colour_Asymmetry_Pilot,2022.1.3,Win32,59.99520038,62c50e9c1127f2cd403a315f,,,,,,,,,,,,,,,,,,,,,,,,,,,,,,,,,,,,,,,,,,,,,,,,,,,,,,,,,,,,,,,,,,,,,,,,,,,,,,,,,,,,,,,,,,,,,,,,,,,,,,,,,,,,,,,,,,,,,,,,,,,,,,,,,,,,,,,,,,,,,,,,,,,,,,,,,,,,,,,,,,,
0,31,31,45,1,,5f52b69cd864aa5b51e1fc63,62c53a2f808438d282f10f07,2022-07-06_02h32.35.254,Colour_Asymmetry_Pilot,2022.1.3,Win32,59.99520038,62c50e9c1127f2cd403a315f,,,,,,,,,,,,,,,,,,,,,,,,,,,,,,,,,,,,,,,,,,,,,,,,,,,,,,,,,,,,,,,,,,,,,,,,,,,,,,,,,,,,,,,,,,,,,,,,,,,,,,,,,,,,,,,,,,,,,,,,,,,,,,,,,,,,,,,,,,,,,,,,,,,,,,,,,,,,,,,,,,,
0,32,32,24,1,,5f52b69cd864aa5b51e1fc63,62c53a2f808438d282f10f07,2022-07-06_02h32.35.254,Colour_Asymmetry_Pilot,2022.1.3,Win32,59.99520038,62c50e9c1127f2cd403a315f,,,,,,,,,,,,,,,,,,,,,,,,,,,,,,,,,,,,,,,,,,,,,,,,,,,,,,,,,,,,,,,,,,,,,,,,,,,,,,,,,,,,,,,,,,,,,,,,,,,,,,,,,,,,,,,,,,,,,,,,,,,,,,,,,,,,,,,,,,,,,,,,,,,,,,,,,,,,,,,,,,,
0,33,33,75,1,,5f52b69cd864aa5b51e1fc63,62c53a2f808438d282f10f07,2022-07-06_02h32.35.254,Colour_Asymmetry_Pilot,2022.1.3,Win32,59.99520038,62c50e9c1127f2cd403a315f,,,,,,,,,,,,,,,,,,,,,,,,,,,,,,,,,,,,,,,,,,,,,,,,,,,,,,,,,,,,,,,,,,,,,,,,,,,,,,,,,,,,,,,,,,,,,,,,,,,,,,,,,,,,,,,,,,,,,,,,,,,,,,,,,,,,,,,,,,,,,,,,,,,,,,,,,,,,,,,,,,,
0,34,34,64,1,,5f52b69cd864aa5b51e1fc63,62c53a2f808438d282f10f07,2022-07-06_02h32.35.254,Colour_Asymmetry_Pilot,2022.1.3,Win32,59.99520038,62c50e9c1127f2cd403a315f,,,,,,,,,,,,,,,,,,,,,,,,,,,,,,,,,,,,,,,,,,,,,,,,,,,,,,,,,,,,,,,,,,,,,,,,,,,,,,,,,,,,,,,,,,,,,,,,,,,,,,,,,,,,,,,,,,,,,,,,,,,,,,,,,,,,,,,,,,,,,,,,,,,,,,,,,,,,,,,,,,,
0,35,35,35,1,,5f52b69cd864aa5b51e1fc63,62c53a2f808438d282f10f07,2022-07-06_02h32.35.254,Colour_Asymmetry_Pilot,2022.1.3,Win32,59.99520038,62c50e9c1127f2cd403a315f,,,,,,,,,,,,,,,,,,,,,,,,,,,,,,,,,,,,,,,,,,,,,,,,,,,,,,,,,,,,,,,,,,,,,,,,,,,,,,,,,,,,,,,,,,,,,,,,,,,,,,,,,,,,,,,,,,,,,,,,,,,,,,,,,,,,,,,,,,,,,,,,,,,,,,,,,,,,,,,,,,,
0,36,36,54,1,,5f52b69cd864aa5b51e1fc63,62c53a2f808438d282f10f07,2022-07-06_02h32.35.254,Colour_Asymmetry_Pilot,2022.1.3,Win32,59.99520038,62c50e9c1127f2cd403a315f,,,,,,,,,,,,,,,,,,,,,,,,,,,,,,,,,,,,,,,,,,,,,,,,,,,,,,,,,,,,,,,,,,,,,,,,,,,,,,,,,,,,,,,,,,,,,,,,,,,,,,,,,,,,,,,,,,,,,,,,,,,,,,,,,,,,,,,,,,,,,,,,,,,,,,,,,,,,,,,,,,,
0,37,37,60,1,,5f52b69cd864aa5b51e1fc63,62c53a2f808438d282f10f07,2022-07-06_02h32.35.254,Colour_Asymmetry_Pilot,2022.1.3,Win32,59.99520038,62c50e9c1127f2cd403a315f,,,,,,,,,,,,,,,,,,,,,,,,,,,,,,,,,,,,,,,,,,,,,,,,,,,,,,,,,,,,,,,,,,,,,,,,,,,,,,,,,,,,,,,,,,,,,,,,,,,,,,,,,,,,,,,,,,,,,,,,,,,,,,,,,,,,,,,,,,,,,,,,,,,,,,,,,,,,,,,,,,,
0,38,38,83,1,,5f52b69cd864aa5b51e1fc63,62c53a2f808438d282f10f07,2022-07-06_02h32.35.254,Colour_Asymmetry_Pilot,2022.1.3,Win32,59.99520038,62c50e9c1127f2cd403a315f,,,,,,,,,,,,,,,,,,,,,,,,,,,,,,,,,,,,,,,,,,,,,,,,,,,,,,,,,,,,,,,,,,,,,,,,,,,,,,,,,,,,,,,,,,,,,,,,,,,,,,,,,,,,,,,,,,,,,,,,,,,,,,,,,,,,,,,,,,,,,,,,,,,,,,,,,,,,,,,,,,,
0,39,39,16,1,,5f52b69cd864aa5b51e1fc63,62c53a2f808438d282f10f07,2022-07-06_02h32.35.254,Colour_Asymmetry_Pilot,2022.1.3,Win32,59.99520038,62c50e9c1127f2cd403a315f,,,,,,,,,,,,,,,,,,,,,,,,,,,,,,,,,,,,,,,,,,,,,,,,,,,,,,,,,,,,,,,,,,,,,,,,,,,,,,,,,,,,,,,,,,,,,,,,,,,,,,,,,,,,,,,,,,,,,,,,,,,,,,,,,,,,,,,,,,,,,,,,,,,,,,,,,,,,,,,,,,,
0,40,40,65,1,,5f52b69cd864aa5b51e1fc63,62c53a2f808438d282f10f07,2022-07-06_02h32.35.254,Colour_Asymmetry_Pilot,2022.1.3,Win32,59.99520038,62c50e9c1127f2cd403a315f,,,,,,,,,,,,,,,,,,,,,,,,,,,,,,,,,,,,,,,,,,,,,,,,,,,,,,,,,,,,,,,,,,,,,,,,,,,,,,,,,,,,,,,,,,,,,,,,,,,,,,,,,,,,,,,,,,,,,,,,,,,,,,,,,,,,,,,,,,,,,,,,,,,,,,,,,,,,,,,,,,,
0,41,41,23,1,,5f52b69cd864aa5b51e1fc63,62c53a2f808438d282f10f07,2022-07-06_02h32.35.254,Colour_Asymmetry_Pilot,2022.1.3,Win32,59.99520038,62c50e9c1127f2cd403a315f,,,,,,,,,,,,,,,,,,,,,,,,,,,,,,,,,,,,,,,,,,,,,,,,,,,,,,,,,,,,,,,,,,,,,,,,,,,,,,,,,,,,,,,,,,,,,,,,,,,,,,,,,,,,,,,,,,,,,,,,,,,,,,,,,,,,,,,,,,,,,,,,,,,,,,,,,,,,,,,,,,,
0,42,42,26,1,,5f52b69cd864aa5b51e1fc63,62c53a2f808438d282f10f07,2022-07-06_02h32.35.254,Colour_Asymmetry_Pilot,2022.1.3,Win32,59.99520038,62c50e9c1127f2cd403a315f,,,,,,,,,,,,,,,,,,,,,,,,,,,,,,,,,,,,,,,,,,,,,,,,,,,,,,,,,,,,,,,,,,,,,,,,,,,,,,,,,,,,,,,,,,,,,,,,,,,,,,,,,,,,,,,,,,,,,,,,,,,,,,,,,,,,,,,,,,,,,,,,,,,,,,,,,,,,,,,,,,,
0,43,43,40,1,,5f52b69cd864aa5b51e1fc63,62c53a2f808438d282f10f07,2022-07-06_02h32.35.254,Colour_Asymmetry_Pilot,2022.1.3,Win32,59.99520038,62c50e9c1127f2cd403a315f,,,,,,,,,,,,,,,,,,,,,,,,,,,,,,,,,,,,,,,,,,,,,,,,,,,,,,,,,,,,,,,,,,,,,,,,,,,,,,,,,,,,,,,,,,,,,,,,,,,,,,,,,,,,,,,,,,,,,,,,,,,,,,,,,,,,,,,,,,,,,,,,,,,,,,,,,,,,,,,,,,,
0,44,44,5,1,,5f52b69cd864aa5b51e1fc63,62c53a2f808438d282f10f07,2022-07-06_02h32.35.254,Colour_Asymmetry_Pilot,2022.1.3,Win32,59.99520038,62c50e9c1127f2cd403a315f,,,,,,,,,,,,,,,,,,,,,,,,,,,,,,,,,,,,,,,,,,,,,,,,,,,,,,,,,,,,,,,,,,,,,,,,,,,,,,,,,,,,,,,,,,,,,,,,,,,,,,,,,,,,,,,,,,,,,,,,,,,,,,,,,,,,,,,,,,,,,,,,,,,,,,,,,,,,,,,,,,,
0,45,45,34,1,,5f52b69cd864aa5b51e1fc63,62c53a2f808438d282f10f07,2022-07-06_02h32.35.254,Colour_Asymmetry_Pilot,2022.1.3,Win32,59.99520038,62c50e9c1127f2cd403a315f,,,,,,,,,,,,,,,,,,,,,,,,,,,,,,,,,,,,,,,,,,,,,,,,,,,,,,,,,,,,,,,,,,,,,,,,,,,,,,,,,,,,,,,,,,,,,,,,,,,,,,,,,,,,,,,,,,,,,,,,,,,,,,,,,,,,,,,,,,,,,,,,,,,,,,,,,,,,,,,,,,,
0,46,46,17,1,,5f52b69cd864aa5b51e1fc63,62c53a2f808438d282f10f07,2022-07-06_02h32.35.254,Colour_Asymmetry_Pilot,2022.1.3,Win32,59.99520038,62c50e9c1127f2cd403a315f,,,,,,,,,,,,,,,,,,,,,,,,,,,,,,,,,,,,,,,,,,,,,,,,,,,,,,,,,,,,,,,,,,,,,,,,,,,,,,,,,,,,,,,,,,,,,,,,,,,,,,,,,,,,,,,,,,,,,,,,,,,,,,,,,,,,,,,,,,,,,,,,,,,,,,,,,,,,,,,,,,,
0,47,47,47,1,,5f52b69cd864aa5b51e1fc63,62c53a2f808438d282f10f07,2022-07-06_02h32.35.254,Colour_Asymmetry_Pilot,2022.1.3,Win32,59.99520038,62c50e9c1127f2cd403a315f,,,,,,,,,,,,,,,,,,,,,,,,,,,,,,,,,,,,,,,,,,,,,,,,,,,,,,,,,,,,,,,,,,,,,,,,,,,,,,,,,,,,,,,,,,,,,,,,,,,,,,,,,,,,,,,,,,,,,,,,,,,,,,,,,,,,,,,,,,,,,,,,,,,,,,,,,,,,,,,,,,,
0,48,48,12,1,,5f52b69cd864aa5b51e1fc63,62c53a2f808438d282f10f07,2022-07-06_02h32.35.254,Colour_Asymmetry_Pilot,2022.1.3,Win32,59.99520038,62c50e9c1127f2cd403a315f,,,,,,,,,,,,,,,,,,,,,,,,,,,,,,,,,,,,,,,,,,,,,,,,,,,,,,,,,,,,,,,,,,,,,,,,,,,,,,,,,,,,,,,,,,,,,,,,,,,,,,,,,,,,,,,,,,,,,,,,,,,,,,,,,,,,,,,,,,,,,,,,,,,,,,,,,,,,,,,,,,,
0,49,49,15,1,,5f52b69cd864aa5b51e1fc63,62c53a2f808438d282f10f07,2022-07-06_02h32.35.254,Colour_Asymmetry_Pilot,2022.1.3,Win32,59.99520038,62c50e9c1127f2cd403a315f,,,,,,,,,,,,,,,,,,,,,,,,,,,,,,,,,,,,,,,,,,,,,,,,,,,,,,,,,,,,,,,,,,,,,,,,,,,,,,,,,,,,,,,,,,,,,,,,,,,,,,,,,,,,,,,,,,,,,,,,,,,,,,,,,,,,,,,,,,,,,,,,,,,,,,,,,,,,,,,,,,,
0,50,50,7,1,,5f52b69cd864aa5b51e1fc63,62c53a2f808438d282f10f07,2022-07-06_02h32.35.254,Colour_Asymmetry_Pilot,2022.1.3,Win32,59.99520038,62c50e9c1127f2cd403a315f,,,,,,,,,,,,,,,,,,,,,,,,,,,,,,,,,,,,,,,,,,,,,,,,,,,,,,,,,,,,,,,,,,,,,,,,,,,,,,,,,,,,,,,,,,,,,,,,,,,,,,,,,,,,,,,,,,,,,,,,,,,,,,,,,,,,,,,,,,,,,,,,,,,,,,,,,,,,,,,,,,,
0,51,51,21,1,,5f52b69cd864aa5b51e1fc63,62c53a2f808438d282f10f07,2022-07-06_02h32.35.254,Colour_Asymmetry_Pilot,2022.1.3,Win32,59.99520038,62c50e9c1127f2cd403a315f,,,,,,,,,,,,,,,,,,,,,,,,,,,,,,,,,,,,,,,,,,,,,,,,,,,,,,,,,,,,,,,,,,,,,,,,,,,,,,,,,,,,,,,,,,,,,,,,,,,,,,,,,,,,,,,,,,,,,,,,,,,,,,,,,,,,,,,,,,,,,,,,,,,,,,,,,,,,,,,,,,,
0,52,52,32,1,,5f52b69cd864aa5b51e1fc63,62c53a2f808438d282f10f07,2022-07-06_02h32.35.254,Colour_Asymmetry_Pilot,2022.1.3,Win32,59.99520038,62c50e9c1127f2cd403a315f,,,,,,,,,,,,,,,,,,,,,,,,,,,,,,,,,,,,,,,,,,,,,,,,,,,,,,,,,,,,,,,,,,,,,,,,,,,,,,,,,,,,,,,,,,,,,,,,,,,,,,,,,,,,,,,,,,,,,,,,,,,,,,,,,,,,,,,,,,,,,,,,,,,,,,,,,,,,,,,,,,,
0,53,53,44,1,,5f52b69cd864aa5b51e1fc63,62c53a2f808438d282f10f07,2022-07-06_02h32.35.254,Colour_Asymmetry_Pilot,2022.1.3,Win32,59.99520038,62c50e9c1127f2cd403a315f,,,,,,,,,,,,,,,,,,,,,,,,,,,,,,,,,,,,,,,,,,,,,,,,,,,,,,,,,,,,,,,,,,,,,,,,,,,,,,,,,,,,,,,,,,,,,,,,,,,,,,,,,,,,,,,,,,,,,,,,,,,,,,,,,,,,,,,,,,,,,,,,,,,,,,,,,,,,,,,,,,,
0,54,54,88,1,,5f52b69cd864aa5b51e1fc63,62c53a2f808438d282f10f07,2022-07-06_02h32.35.254,Colour_Asymmetry_Pilot,2022.1.3,Win32,59.99520038,62c50e9c1127f2cd403a315f,,,,,,,,,,,,,,,,,,,,,,,,,,,,,,,,,,,,,,,,,,,,,,,,,,,,,,,,,,,,,,,,,,,,,,,,,,,,,,,,,,,,,,,,,,,,,,,,,,,,,,,,,,,,,,,,,,,,,,,,,,,,,,,,,,,,,,,,,,,,,,,,,,,,,,,,,,,,,,,,,,,
0,55,55,38,1,,5f52b69cd864aa5b51e1fc63,62c53a2f808438d282f10f07,2022-07-06_02h32.35.254,Colour_Asymmetry_Pilot,2022.1.3,Win32,59.99520038,62c50e9c1127f2cd403a315f,,,,,,,,,,,,,,,,,,,,,,,,,,,,,,,,,,,,,,,,,,,,,,,,,,,,,,,,,,,,,,,,,,,,,,,,,,,,,,,,,,,,,,,,,,,,,,,,,,,,,,,,,,,,,,,,,,,,,,,,,,,,,,,,,,,,,,,,,,,,,,,,,,,,,,,,,,,,,,,,,,,
0,56,56,30,1,,5f52b69cd864aa5b51e1fc63,62c53a2f808438d282f10f07,2022-07-06_02h32.35.254,Colour_Asymmetry_Pilot,2022.1.3,Win32,59.99520038,62c50e9c1127f2cd403a315f,,,,,,,,,,,,,,,,,,,,,,,,,,,,,,,,,,,,,,,,,,,,,,,,,,,,,,,,,,,,,,,,,,,,,,,,,,,,,,,,,,,,,,,,,,,,,,,,,,,,,,,,,,,,,,,,,,,,,,,,,,,,,,,,,,,,,,,,,,,,,,,,,,,,,,,,,,,,,,,,,,,
0,57,57,80,1,,5f52b69cd864aa5b51e1fc63,62c53a2f808438d282f10f07,2022-07-06_02h32.35.254,Colour_Asymmetry_Pilot,2022.1.3,Win32,59.99520038,62c50e9c1127f2cd403a315f,,,,,,,,,,,,,,,,,,,,,,,,,,,,,,,,,,,,,,,,,,,,,,,,,,,,,,,,,,,,,,,,,,,,,,,,,,,,,,,,,,,,,,,,,,,,,,,,,,,,,,,,,,,,,,,,,,,,,,,,,,,,,,,,,,,,,,,,,,,,,,,,,,,,,,,,,,,,,,,,,,,
0,58,58,41,1,,5f52b69cd864aa5b51e1fc63,62c53a2f808438d282f10f07,2022-07-06_02h32.35.254,Colour_Asymmetry_Pilot,2022.1.3,Win32,59.99520038,62c50e9c1127f2cd403a315f,,,,,,,,,,,,,,,,,,,,,,,,,,,,,,,,,,,,,,,,,,,,,,,,,,,,,,,,,,,,,,,,,,,,,,,,,,,,,,,,,,,,,,,,,,,,,,,,,,,,,,,,,,,,,,,,,,,,,,,,,,,,,,,,,,,,,,,,,,,,,,,,,,,,,,,,,,,,,,,,,,,
0,59,59,3,1,,5f52b69cd864aa5b51e1fc63,62c53a2f808438d282f10f07,2022-07-06_02h32.35.254,Colour_Asymmetry_Pilot,2022.1.3,Win32,59.99520038,62c50e9c1127f2cd403a315f,,,,,,,,,,,,,,,,,,,,,,,,,,,,,,,,,,,,,,,,,,,,,,,,,,,,,,,,,,,,,,,,,,,,,,,,,,,,,,,,,,,,,,,,,,,,,,,,,,,,,,,,,,,,,,,,,,,,,,,,,,,,,,,,,,,,,,,,,,,,,,,,,,,,,,,,,,,,,,,,,,,
0,60,60,25,1,,5f52b69cd864aa5b51e1fc63,62c53a2f808438d282f10f07,2022-07-06_02h32.35.254,Colour_Asymmetry_Pilot,2022.1.3,Win32,59.99520038,62c50e9c1127f2cd403a315f,,,,,,,,,,,,,,,,,,,,,,,,,,,,,,,,,,,,,,,,,,,,,,,,,,,,,,,,,,,,,,,,,,,,,,,,,,,,,,,,,,,,,,,,,,,,,,,,,,,,,,,,,,,,,,,,,,,,,,,,,,,,,,,,,,,,,,,,,,,,,,,,,,,,,,,,,,,,,,,,,,,
0,61,61,90,1,,5f52b69cd864aa5b51e1fc63,62c53a2f808438d282f10f07,2022-07-06_02h32.35.254,Colour_Asymmetry_Pilot,2022.1.3,Win32,59.99520038,62c50e9c1127f2cd403a315f,,,,,,,,,,,,,,,,,,,,,,,,,,,,,,,,,,,,,,,,,,,,,,,,,,,,,,,,,,,,,,,,,,,,,,,,,,,,,,,,,,,,,,,,,,,,,,,,,,,,,,,,,,,,,,,,,,,,,,,,,,,,,,,,,,,,,,,,,,,,,,,,,,,,,,,,,,,,,,,,,,,
0,62,62,31,1,,5f52b69cd864aa5b51e1fc63,62c53a2f808438d282f10f07,2022-07-06_02h32.35.254,Colour_Asymmetry_Pilot,2022.1.3,Win32,59.99520038,62c50e9c1127f2cd403a315f,,,,,,,,,,,,,,,,,,,,,,,,,,,,,,,,,,,,,,,,,,,,,,,,,,,,,,,,,,,,,,,,,,,,,,,,,,,,,,,,,,,,,,,,,,,,,,,,,,,,,,,,,,,,,,,,,,,,,,,,,,,,,,,,,,,,,,,,,,,,,,,,,,,,,,,,,,,,,,,,,,,
0,63,63,89,1,,5f52b69cd864aa5b51e1fc63,62c53a2f808438d282f10f07,2022-07-06_02h32.35.254,Colour_Asymmetry_Pilot,2022.1.3,Win32,59.99520038,62c50e9c1127f2cd403a315f,,,,,,,,,,,,,,,,,,,,,,,,,,,,,,,,,,,,,,,,,,,,,,,,,,,,,,,,,,,,,,,,,,,,,,,,,,,,,,,,,,,,,,,,,,,,,,,,,,,,,,,,,,,,,,,,,,,,,,,,,,,,,,,,,,,,,,,,,,,,,,,,,,,,,,,,,,,,,,,,,,,
0,64,64,49,1,,5f52b69cd864aa5b51e1fc63,62c53a2f808438d282f10f07,2022-07-06_02h32.35.254,Colour_Asymmetry_Pilot,2022.1.3,Win32,59.99520038,62c50e9c1127f2cd403a315f,,,,,,,,,,,,,,,,,,,,,,,,,,,,,,,,,,,,,,,,,,,,,,,,,,,,,,,,,,,,,,,,,,,,,,,,,,,,,,,,,,,,,,,,,,,,,,,,,,,,,,,,,,,,,,,,,,,,,,,,,,,,,,,,,,,,,,,,,,,,,,,,,,,,,,,,,,,,,,,,,,,
0,65,65,87,1,,5f52b69cd864aa5b51e1fc63,62c53a2f808438d282f10f07,2022-07-06_02h32.35.254,Colour_Asymmetry_Pilot,2022.1.3,Win32,59.99520038,62c50e9c1127f2cd403a315f,,,,,,,,,,,,,,,,,,,,,,,,,,,,,,,,,,,,,,,,,,,,,,,,,,,,,,,,,,,,,,,,,,,,,,,,,,,,,,,,,,,,,,,,,,,,,,,,,,,,,,,,,,,,,,,,,,,,,,,,,,,,,,,,,,,,,,,,,,,,,,,,,,,,,,,,,,,,,,,,,,,
0,66,66,72,1,,5f52b69cd864aa5b51e1fc63,62c53a2f808438d282f10f07,2022-07-06_02h32.35.254,Colour_Asymmetry_Pilot,2022.1.3,Win32,59.99520038,62c50e9c1127f2cd403a315f,,,,,,,,,,,,,,,,,,,,,,,,,,,,,,,,,,,,,,,,,,,,,,,,,,,,,,,,,,,,,,,,,,,,,,,,,,,,,,,,,,,,,,,,,,,,,,,,,,,,,,,,,,,,,,,,,,,,,,,,,,,,,,,,,,,,,,,,,,,,,,,,,,,,,,,,,,,,,,,,,,,
0,67,67,52,1,,5f52b69cd864aa5b51e1fc63,62c53a2f808438d282f10f07,2022-07-06_02h32.35.254,Colour_Asymmetry_Pilot,2022.1.3,Win32,59.99520038,62c50e9c1127f2cd403a315f,,,,,,,,,,,,,,,,,,,,,,,,,,,,,,,,,,,,,,,,,,,,,,,,,,,,,,,,,,,,,,,,,,,,,,,,,,,,,,,,,,,,,,,,,,,,,,,,,,,,,,,,,,,,,,,,,,,,,,,,,,,,,,,,,,,,,,,,,,,,,,,,,,,,,,,,,,,,,,,,,,,
0,68,68,0,1,,5f52b69cd864aa5b51e1fc63,62c53a2f808438d282f10f07,2022-07-06_02h32.35.254,Colour_Asymmetry_Pilot,2022.1.3,Win32,59.99520038,62c50e9c1127f2cd403a315f,,,,,,,,,,,,,,,,,,,,,,,,,,,,,,,,,,,,,,,,,,,,,,,,,,,,,,,,,,,,,,,,,,,,,,,,,,,,,,,,,,,,,,,,,,,,,,,,,,,,,,,,,,,,,,,,,,,,,,,,,,,,,,,,,,,,,,,,,,,,,,,,,,,,,,,,,,,,,,,,,,,
0,69,69,59,1,,5f52b69cd864aa5b51e1fc63,62c53a2f808438d282f10f07,2022-07-06_02h32.35.254,Colour_Asymmetry_Pilot,2022.1.3,Win32,59.99520038,62c50e9c1127f2cd403a315f,,,,,,,,,,,,,,,,,,,,,,,,,,,,,,,,,,,,,,,,,,,,,,,,,,,,,,,,,,,,,,,,,,,,,,,,,,,,,,,,,,,,,,,,,,,,,,,,,,,,,,,,,,,,,,,,,,,,,,,,,,,,,,,,,,,,,,,,,,,,,,,,,,,,,,,,,,,,,,,,,,,
0,70,70,1,1,,5f52b69cd864aa5b51e1fc63,62c53a2f808438d282f10f07,2022-07-06_02h32.35.254,Colour_Asymmetry_Pilot,2022.1.3,Win32,59.99520038,62c50e9c1127f2cd403a315f,,,,,,,,,,,,,,,,,,,,,,,,,,,,,,,,,,,,,,,,,,,,,,,,,,,,,,,,,,,,,,,,,,,,,,,,,,,,,,,,,,,,,,,,,,,,,,,,,,,,,,,,,,,,,,,,,,,,,,,,,,,,,,,,,,,,,,,,,,,,,,,,,,,,,,,,,,,,,,,,,,,
0,71,71,6,1,,5f52b69cd864aa5b51e1fc63,62c53a2f808438d282f10f07,2022-07-06_02h32.35.254,Colour_Asymmetry_Pilot,2022.1.3,Win32,59.99520038,62c50e9c1127f2cd403a315f,,,,,,,,,,,,,,,,,,,,,,,,,,,,,,,,,,,,,,,,,,,,,,,,,,,,,,,,,,,,,,,,,,,,,,,,,,,,,,,,,,,,,,,,,,,,,,,,,,,,,,,,,,,,,,,,,,,,,,,,,,,,,,,,,,,,,,,,,,,,,,,,,,,,,,,,,,,,,,,,,,,
0,72,72,62,1,,5f52b69cd864aa5b51e1fc63,62c53a2f808438d282f10f07,2022-07-06_02h32.35.254,Colour_Asymmetry_Pilot,2022.1.3,Win32,59.99520038,62c50e9c1127f2cd403a315f,,,,,,,,,,,,,,,,,,,,,,,,,,,,,,,,,,,,,,,,,,,,,,,,,,,,,,,,,,,,,,,,,,,,,,,,,,,,,,,,,,,,,,,,,,,,,,,,,,,,,,,,,,,,,,,,,,,,,,,,,,,,,,,,,,,,,,,,,,,,,,,,,,,,,,,,,,,,,,,,,,,
0,73,73,76,1,,5f52b69cd864aa5b51e1fc63,62c53a2f808438d282f10f07,2022-07-06_02h32.35.254,Colour_Asymmetry_Pilot,2022.1.3,Win32,59.99520038,62c50e9c1127f2cd403a315f,,,,,,,,,,,,,,,,,,,,,,,,,,,,,,,,,,,,,,,,,,,,,,,,,,,,,,,,,,,,,,,,,,,,,,,,,,,,,,,,,,,,,,,,,,,,,,,,,,,,,,,,,,,,,,,,,,,,,,,,,,,,,,,,,,,,,,,,,,,,,,,,,,,,,,,,,,,,,,,,,,,
0,74,74,68,1,,5f52b69cd864aa5b51e1fc63,62c53a2f808438d282f10f07,2022-07-06_02h32.35.254,Colour_Asymmetry_Pilot,2022.1.3,Win32,59.99520038,62c50e9c1127f2cd403a315f,,,,,,,,,,,,,,,,,,,,,,,,,,,,,,,,,,,,,,,,,,,,,,,,,,,,,,,,,,,,,,,,,,,,,,,,,,,,,,,,,,,,,,,,,,,,,,,,,,,,,,,,,,,,,,,,,,,,,,,,,,,,,,,,,,,,,,,,,,,,,,,,,,,,,,,,,,,,,,,,,,,
0,75,75,63,1,,5f52b69cd864aa5b51e1fc63,62c53a2f808438d282f10f07,2022-07-06_02h32.35.254,Colour_Asymmetry_Pilot,2022.1.3,Win32,59.99520038,62c50e9c1127f2cd403a315f,,,,,,,,,,,,,,,,,,,,,,,,,,,,,,,,,,,,,,,,,,,,,,,,,,,,,,,,,,,,,,,,,,,,,,,,,,,,,,,,,,,,,,,,,,,,,,,,,,,,,,,,,,,,,,,,,,,,,,,,,,,,,,,,,,,,,,,,,,,,,,,,,,,,,,,,,,,,,,,,,,,
0,76,76,36,1,,5f52b69cd864aa5b51e1fc63,62c53a2f808438d282f10f07,2022-07-06_02h32.35.254,Colour_Asymmetry_Pilot,2022.1.3,Win32,59.99520038,62c50e9c1127f2cd403a315f,,,,,,,,,,,,,,,,,,,,,,,,,,,,,,,,,,,,,,,,,,,,,,,,,,,,,,,,,,,,,,,,,,,,,,,,,,,,,,,,,,,,,,,,,,,,,,,,,,,,,,,,,,,,,,,,,,,,,,,,,,,,,,,,,,,,,,,,,,,,,,,,,,,,,,,,,,,,,,,,,,,
0,77,77,81,1,,5f52b69cd864aa5b51e1fc63,62c53a2f808438d282f10f07,2022-07-06_02h32.35.254,Colour_Asymmetry_Pilot,2022.1.3,Win32,59.99520038,62c50e9c1127f2cd403a315f,,,,,,,,,,,,,,,,,,,,,,,,,,,,,,,,,,,,,,,,,,,,,,,,,,,,,,,,,,,,,,,,,,,,,,,,,,,,,,,,,,,,,,,,,,,,,,,,,,,,,,,,,,,,,,,,,,,,,,,,,,,,,,,,,,,,,,,,,,,,,,,,,,,,,,,,,,,,,,,,,,,
0,78,78,56,1,,5f52b69cd864aa5b51e1fc63,62c53a2f808438d282f10f07,2022-07-06_02h32.35.254,Colour_Asymmetry_Pilot,2022.1.3,Win32,59.99520038,62c50e9c1127f2cd403a315f,,,,,,,,,,,,,,,,,,,,,,,,,,,,,,,,,,,,,,,,,,,,,,,,,,,,,,,,,,,,,,,,,,,,,,,,,,,,,,,,,,,,,,,,,,,,,,,,,,,,,,,,,,,,,,,,,,,,,,,,,,,,,,,,,,,,,,,,,,,,,,,,,,,,,,,,,,,,,,,,,,,
0,79,79,77,1,,5f52b69cd864aa5b51e1fc63,62c53a2f808438d282f10f07,2022-07-06_02h32.35.254,Colour_Asymmetry_Pilot,2022.1.3,Win32,59.99520038,62c50e9c1127f2cd403a315f,,,,,,,,,,,,,,,,,,,,,,,,,,,,,,,,,,,,,,,,,,,,,,,,,,,,,,,,,,,,,,,,,,,,,,,,,,,,,,,,,,,,,,,,,,,,,,,,,,,,,,,,,,,,,,,,,,,,,,,,,,,,,,,,,,,,,,,,,,,,,,,,,,,,,,,,,,,,,,,,,,,
0,80,80,85,1,,5f52b69cd864aa5b51e1fc63,62c53a2f808438d282f10f07,2022-07-06_02h32.35.254,Colour_Asymmetry_Pilot,2022.1.3,Win32,59.99520038,62c50e9c1127f2cd403a315f,,,,,,,,,,,,,,,,,,,,,,,,,,,,,,,,,,,,,,,,,,,,,,,,,,,,,,,,,,,,,,,,,,,,,,,,,,,,,,,,,,,,,,,,,,,,,,,,,,,,,,,,,,,,,,,,,,,,,,,,,,,,,,,,,,,,,,,,,,,,,,,,,,,,,,,,,,,,,,,,,,,
0,81,81,46,1,,5f52b69cd864aa5b51e1fc63,62c53a2f808438d282f10f07,2022-07-06_02h32.35.254,Colour_Asymmetry_Pilot,2022.1.3,Win32,59.99520038,62c50e9c1127f2cd403a315f,,,,,,,,,,,,,,,,,,,,,,,,,,,,,,,,,,,,,,,,,,,,,,,,,,,,,,,,,,,,,,,,,,,,,,,,,,,,,,,,,,,,,,,,,,,,,,,,,,,,,,,,,,,,,,,,,,,,,,,,,,,,,,,,,,,,,,,,,,,,,,,,,,,,,,,,,,,,,,,,,,,
0,82,82,2,1,,5f52b69cd864aa5b51e1fc63,62c53a2f808438d282f10f07,2022-07-06_02h32.35.254,Colour_Asymmetry_Pilot,2022.1.3,Win32,59.99520038,62c50e9c1127f2cd403a315f,,,,,,,,,,,,,,,,,,,,,,,,,,,,,,,,,,,,,,,,,,,,,,,,,,,,,,,,,,,,,,,,,,,,,,,,,,,,,,,,,,,,,,,,,,,,,,,,,,,,,,,,,,,,,,,,,,,,,,,,,,,,,,,,,,,,,,,,,,,,,,,,,,,,,,,,,,,,,,,,,,,
0,83,83,84,1,,5f52b69cd864aa5b51e1fc63,62c53a2f808438d282f10f07,2022-07-06_02h32.35.254,Colour_Asymmetry_Pilot,2022.1.3,Win32,59.99520038,62c50e9c1127f2cd403a315f,,,,,,,,,,,,,,,,,,,,,,,,,,,,,,,,,,,,,,,,,,,,,,,,,,,,,,,,,,,,,,,,,,,,,,,,,,,,,,,,,,,,,,,,,,,,,,,,,,,,,,,,,,,,,,,,,,,,,,,,,,,,,,,,,,,,,,,,,,,,,,,,,,,,,,,,,,,,,,,,,,,
0,84,84,33,1,,5f52b69cd864aa5b51e1fc63,62c53a2f808438d282f10f07,2022-07-06_02h32.35.254,Colour_Asymmetry_Pilot,2022.1.3,Win32,59.99520038,62c50e9c1127f2cd403a315f,,,,,,,,,,,,,,,,,,,,,,,,,,,,,,,,,,,,,,,,,,,,,,,,,,,,,,,,,,,,,,,,,,,,,,,,,,,,,,,,,,,,,,,,,,,,,,,,,,,,,,,,,,,,,,,,,,,,,,,,,,,,,,,,,,,,,,,,,,,,,,,,,,,,,,,,,,,,,,,,,,,
0,85,85,74,1,,5f52b69cd864aa5b51e1fc63,62c53a2f808438d282f10f07,2022-07-06_02h32.35.254,Colour_Asymmetry_Pilot,2022.1.3,Win32,59.99520038,62c50e9c1127f2cd403a315f,,,,,,,,,,,,,,,,,,,,,,,,,,,,,,,,,,,,,,,,,,,,,,,,,,,,,,,,,,,,,,,,,,,,,,,,,,,,,,,,,,,,,,,,,,,,,,,,,,,,,,,,,,,,,,,,,,,,,,,,,,,,,,,,,,,,,,,,,,,,,,,,,,,,,,,,,,,,,,,,,,,
0,86,86,53,1,,5f52b69cd864aa5b51e1fc63,62c53a2f808438d282f10f07,2022-07-06_02h32.35.254,Colour_Asymmetry_Pilot,2022.1.3,Win32,59.99520038,62c50e9c1127f2cd403a315f,,,,,,,,,,,,,,,,,,,,,,,,,,,,,,,,,,,,,,,,,,,,,,,,,,,,,,,,,,,,,,,,,,,,,,,,,,,,,,,,,,,,,,,,,,,,,,,,,,,,,,,,,,,,,,,,,,,,,,,,,,,,,,,,,,,,,,,,,,,,,,,,,,,,,,,,,,,,,,,,,,,
0,87,87,57,1,,5f52b69cd864aa5b51e1fc63,62c53a2f808438d282f10f07,2022-07-06_02h32.35.254,Colour_Asymmetry_Pilot,2022.1.3,Win32,59.99520038,62c50e9c1127f2cd403a315f,,,,,,,,,,,,,,,,,,,,,,,,,,,,,,,,,,,,,,,,,,,,,,,,,,,,,,,,,,,,,,,,,,,,,,,,,,,,,,,,,,,,,,,,,,,,,,,,,,,,,,,,,,,,,,,,,,,,,,,,,,,,,,,,,,,,,,,,,,,,,,,,,,,,,,,,,,,,,,,,,,,
0,88,88,13,1,,5f52b69cd864aa5b51e1fc63,62c53a2f808438d282f10f07,2022-07-06_02h32.35.254,Colour_Asymmetry_Pilot,2022.1.3,Win32,59.99520038,62c50e9c1127f2cd403a315f,,,,,,,,,,,,,,,,,,,,,,,,,,,,,,,,,,,,,,,,,,,,,,,,,,,,,,,,,,,,,,,,,,,,,,,,,,,,,,,,,,,,,,,,,,,,,,,,,,,,,,,,,,,,,,,,,,,,,,,,,,,,,,,,,,,,,,,,,,,,,,,,,,,,,,,,,,,,,,,,,,,
0,89,89,50,1,,5f52b69cd864aa5b51e1fc63,62c53a2f808438d282f10f07,2022-07-06_02h32.35.254,Colour_Asymmetry_Pilot,2022.1.3,Win32,59.99520038,62c50e9c1127f2cd403a315f,,,,,,,,,,,,,,,,,,,,,,,,,,,,,,,,,,,,,,,,,,,,,,,,,,,,,,,,,,,,,,,,,,,,,,,,,,,,,,,,,,,,,,,,,,,,,,,,,,,,,,,,,,,,,,,,,,,,,,,,,,,,,,,,,,,,,,,,,,,,,,,,,,,,,,,,,,,,,,,,,,,
0,90,90,91,1,,5f52b69cd864aa5b51e1fc63,62c53a2f808438d282f10f07,2022-07-06_02h32.35.254,Colour_Asymmetry_Pilot,2022.1.3,Win32,59.99520038,62c50e9c1127f2cd403a315f,,,,,,,,,,,,,,,,,,,,,,,,,,,,,,,,,,,,,,,,,,,,,,,,,,,,,,,,,,,,,,,,,,,,,,,,,,,,,,,,,,,,,,,,,,,,,,,,,,,,,,,,,,,,,,,,,,,,,,,,,,,,,,,,,,,,,,,,,,,,,,,,,,,,,,,,,,,,,,,,,,,
0,91,91,18,1,,5f52b69cd864aa5b51e1fc63,62c53a2f808438d282f10f07,2022-07-06_02h32.35.254,Colour_Asymmetry_Pilot,2022.1.3,Win32,59.99520038,62c50e9c1127f2cd403a315f,,,,,,,,,,,,,,,,,,,,,,,,,,,,,,,,,,,,,,,,,,,,,,,,,,,,,,,,,,,,,,,,,,,,,,,,,,,,,,,,,,,,,,,,,,,,,,,,,,,,,,,,,,,,,,,,,,,,,,,,,,,,,,,,,,,,,,,,,,,,,,,,,,,,,,,,,,,,,,,,,,,
0,92,92,71,1,,5f52b69cd864aa5b51e1fc63,62c53a2f808438d282f10f07,2022-07-06_02h32.35.254,Colour_Asymmetry_Pilot,2022.1.3,Win32,59.99520038,62c50e9c1127f2cd403a315f,,,,,,,,,,,,,,,,,,,,,,,,,,,,,,,,,,,,,,,,,,,,,,,,,,,,,,,,,,,,,,,,,,,,,,,,,,,,,,,,,,,,,,,,,,,,,,,,,,,,,,,,,,,,,,,,,,,,,,,,,,,,,,,,,,,,,,,,,,,,,,,,,,,,,,,,,,,,,,,,,,,
,,,,,,5f52b69cd864aa5b51e1fc63,62c53a2f808438d282f10f07,2022-07-06_02h32.35.254,Colour_Asymmetry_Pilot,2022.1.3,Win32,59.99520038,62c50e9c1127f2cd403a315f,0,0,0,86,1,fourtwo,,,,,,,,,,,,,,,,,,,,,,,,,,,,,,,,,,,,,,,,,,,,,,,,,,,,,,,,,,,,,,,,,,,,,,,,,,,,,,,,,,,,,,,,,,,,,,,,,,,,,,,,,,,,,,,,,,,,,,,,,,,,,,,,,,,,,,,,,,,,,,,,,,,,,,,,,,,,,
,,,,,,5f52b69cd864aa5b51e1fc63,62c53a2f808438d282f10f07,2022-07-06_02h32.35.254,Colour_Asymmetry_Pilot,2022.1.3,Win32,59.99520038,62c50e9c1127f2cd403a315f,0,1,1,153,1,onethree,,,,,,,,,,,,,,,,,,,,,,,,,,,,,,,,,,,,,,,,,,,,,,,,,,,,,,,,,,,,,,,,,,,,,,,,,,,,,,,,,,,,,,,,,,,,,,,,,,,,,,,,,,,,,,,,,,,,,,,,,,,,,,,,,,,,,,,,,,,,,,,,,,,,,,,,,,,,,
,,,,,,5f52b69cd864aa5b51e1fc63,62c53a2f808438d282f10f07,2022-07-06_02h32.35.254,Colour_Asymmetry_Pilot,2022.1.3,Win32,59.99520038,62c50e9c1127f2cd403a315f,0,2,2,111,1,fourthree,,,,,,,,,,,,,,,,,,,,,,,,,,,,,,,,,,,,,,,,,,,,,,,,,,,,,,,,,,,,,,,,,,,,,,,,,,,,,,,,,,,,,,,,,,,,,,,,,,,,,,,,,,,,,,,,,,,,,,,,,,,,,,,,,,,,,,,,,,,,,,,,,,,,,,,,,,,,,
,,,,,,5f52b69cd864aa5b51e1fc63,62c53a2f808438d282f10f07,2022-07-06_02h32.35.254,Colour_Asymmetry_Pilot,2022.1.3,Win32,59.99520038,62c50e9c1127f2cd403a315f,0,3,3,18,1,twoone,,,,,,,,,,,,,,,,,,,,,,,,,,,,,,,,,,,,,,,,,,,,,,,,,,,,,,,,,,,,,,,,,,,,,,,,,,,,,,,,,,,,,,,,,,,,,,,,,,,,,,,,,,,,,,,,,,,,,,,,,,,,,,,,,,,,,,,,,,,,,,,,,,,,,,,,,,,,,
,,,,,,5f52b69cd864aa5b51e1fc63,62c53a2f808438d282f10f07,2022-07-06_02h32.35.254,Colour_Asymmetry_Pilot,2022.1.3,Win32,59.99520038,62c50e9c1127f2cd403a315f,0,4,4,10,1,twoone,,,,,,,,,,,,,,,,,,,,,,,,,,,,,,,,,,,,,,,,,,,,,,,,,,,,,,,,,,,,,,,,,,,,,,,,,,,,,,,,,,,,,,,,,,,,,,,,,,,,,,,,,,,,,,,,,,,,,,,,,,,,,,,,,,,,,,,,,,,,,,,,,,,,,,,,,,,,,
,,,,,,5f52b69cd864aa5b51e1fc63,62c53a2f808438d282f10f07,2022-07-06_02h32.35.254,Colour_Asymmetry_Pilot,2022.1.3,Win32,59.99520038,62c50e9c1127f2cd403a315f,0,5,5,6,1,fourtwo,,,,,,,,,,,,,,,,,,,,,,,,,,,,,,,,,,,,,,,,,,,,,,,,,,,,,,,,,,,,,,,,,,,,,,,,,,,,,,,,,,,,,,,,,,,,,,,,,,,,,,,,,,,,,,,,,,,,,,,,,,,,,,,,,,,,,,,,,,,,,,,,,,,,,,,,,,,,,
,,,,,,5f52b69cd864aa5b51e1fc63,62c53a2f808438d282f10f07,2022-07-06_02h32.35.254,Colour_Asymmetry_Pilot,2022.1.3,Win32,59.99520038,62c50e9c1127f2cd403a315f,0,6,6,89,1,onethree,,,,,,,,,,,,,,,,,,,,,,,,,,,,,,,,,,,,,,,,,,,,,,,,,,,,,,,,,,,,,,,,,,,,,,,,,,,,,,,,,,,,,,,,,,,,,,,,,,,,,,,,,,,,,,,,,,,,,,,,,,,,,,,,,,,,,,,,,,,,,,,,,,,,,,,,,,,,,
,,,,,,5f52b69cd864aa5b51e1fc63,62c53a2f808438d282f10f07,2022-07-06_02h32.35.254,Colour_Asymmetry_Pilot,2022.1.3,Win32,59.99520038,62c50e9c1127f2cd403a315f,0,7,7,158,1,fourtwo,,,,,,,,,,,,,,,,,,,,,,,,,,,,,,,,,,,,,,,,,,,,,,,,,,,,,,,,,,,,,,,,,,,,,,,,,,,,,,,,,,,,,,,,,,,,,,,,,,,,,,,,,,,,,,,,,,,,,,,,,,,,,,,,,,,,,,,,,,,,,,,,,,,,,,,,,,,,,
,,,,,,5f52b69cd864aa5b51e1fc63,62c53a2f808438d282f10f07,2022-07-06_02h32.35.254,Colour_Asymmetry_Pilot,2022.1.3,Win32,59.99520038,62c50e9c1127f2cd403a315f,0,8,8,137,1,onethree,,,,,,,,,,,,,,,,,,,,,,,,,,,,,,,,,,,,,,,,,,,,,,,,,,,,,,,,,,,,,,,,,,,,,,,,,,,,,,,,,,,,,,,,,,,,,,,,,,,,,,,,,,,,,,,,,,,,,,,,,,,,,,,,,,,,,,,,,,,,,,,,,,,,,,,,,,,,,
,,,,,,5f52b69cd864aa5b51e1fc63,62c53a2f808438d282f10f07,2022-07-06_02h32.35.254,Colour_Asymmetry_Pilot,2022.1.3,Win32,59.99520038,62c50e9c1127f2cd403a315f,0,9,9,29,1,threefour,,,,,,,,,,,,,,,,,,,,,,,,,,,,,,,,,,,,,,,,,,,,,,,,,,,,,,,,,,,,,,,,,,,,,,,,,,,,,,,,,,,,,,,,,,,,,,,,,,,,,,,,,,,,,,,,,,,,,,,,,,,,,,,,,,,,,,,,,,,,,,,,,,,,,,,,,,,,,
,,,,,,5f52b69cd864aa5b51e1fc63,62c53a2f808438d282f10f07,2022-07-06_02h32.35.254,Colour_Asymmetry_Pilot,2022.1.3,Win32,59.99520038,62c50e9c1127f2cd403a315f,0,10,10,36,1,threeone,,,,,,,,,,,,,,,,,,,,,,,,,,,,,,,,,,,,,,,,,,,,,,,,,,,,,,,,,,,,,,,,,,,,,,,,,,,,,,,,,,,,,,,,,,,,,,,,,,,,,,,,,,,,,,,,,,,,,,,,,,,,,,,,,,,,,,,,,,,,,,,,,,,,,,,,,,,,,
,,,,,,5f52b69cd864aa5b51e1fc63,62c53a2f808438d282f10f07,2022-07-06_02h32.35.254,Colour_Asymmetry_Pilot,2022.1.3,Win32,59.99520038,62c50e9c1127f2cd403a315f,0,11,11,157,1,threefour,,,,,,,,,,,,,,,,,,,,,,,,,,,,,,,,,,,,,,,,,,,,,,,,,,,,,,,,,,,,,,,,,,,,,,,,,,,,,,,,,,,,,,,,,,,,,,,,,,,,,,,,,,,,,,,,,,,,,,,,,,,,,,,,,,,,,,,,,,,,,,,,,,,,,,,,,,,,,
,,,,,,5f52b69cd864aa5b51e1fc63,62c53a2f808438d282f10f07,2022-07-06_02h32.35.254,Colour_Asymmetry_Pilot,2022.1.3,Win32,59.99520038,62c50e9c1127f2cd403a315f,0,12,12,150,1,fourtwo,,,,,,,,,,,,,,,,,,,,,,,,,,,,,,,,,,,,,,,,,,,,,,,,,,,,,,,,,,,,,,,,,,,,,,,,,,,,,,,,,,,,,,,,,,,,,,,,,,,,,,,,,,,,,,,,,,,,,,,,,,,,,,,,,,,,,,,,,,,,,,,,,,,,,,,,,,,,,
,,,,,,5f52b69cd864aa5b51e1fc63,62c53a2f808438d282f10f07,2022-07-06_02h32.35.254,Colour_Asymmetry_Pilot,2022.1.3,Win32,59.99520038,62c50e9c1127f2cd403a315f,0,13,13,60,1,threeone,,,,,,,,,,,,,,,,,,,,,,,,,,,,,,,,,,,,,,,,,,,,,,,,,,,,,,,,,,,,,,,,,,,,,,,,,,,,,,,,,,,,,,,,,,,,,,,,,,,,,,,,,,,,,,,,,,,,,,,,,,,,,,,,,,,,,,,,,,,,,,,,,,,,,,,,,,,,,
,,,,,,5f52b69cd864aa5b51e1fc63,62c53a2f808438d282f10f07,2022-07-06_02h32.35.254,Colour_Asymmetry_Pilot,2022.1.3,Win32,59.99520038,62c50e9c1127f2cd403a315f,0,14,14,125,1,threefour,,,,,,,,,,,,,,,,,,,,,,,,,,,,,,,,,,,,,,,,,,,,,,,,,,,,,,,,,,,,,,,,,,,,,,,,,,,,,,,,,,,,,,,,,,,,,,,,,,,,,,,,,,,,,,,,,,,,,,,,,,,,,,,,,,,,,,,,,,,,,,,,,,,,,,,,,,,,,
,,,,,,5f52b69cd864aa5b51e1fc63,62c53a2f808438d282f10f07,2022-07-06_02h32.35.254,Colour_Asymmetry_Pilot,2022.1.3,Win32,59.99520038,62c50e9c1127f2cd403a315f,0,15,15,94,1,fourtwo,,,,,,,,,,,,,,,,,,,,,,,,,,,,,,,,,,,,,,,,,,,,,,,,,,,,,,,,,,,,,,,,,,,,,,,,,,,,,,,,,,,,,,,,,,,,,,,,,,,,,,,,,,,,,,,,,,,,,,,,,,,,,,,,,,,,,,,,,,,,,,,,,,,,,,,,,,,,,
,,,,,,5f52b69cd864aa5b51e1fc63,62c53a2f808438d282f10f07,2022-07-06_02h32.35.254,Colour_Asymmetry_Pilot,2022.1.3,Win32,59.99520038,62c50e9c1127f2cd403a315f,0,16,16,38,1,fourtwo,,,,,,,,,,,,,,,,,,,,,,,,,,,,,,,,,,,,,,,,,,,,,,,,,,,,,,,,,,,,,,,,,,,,,,,,,,,,,,,,,,,,,,,,,,,,,,,,,,,,,,,,,,,,,,,,,,,,,,,,,,,,,,,,,,,,,,,,,,,,,,,,,,,,,,,,,,,,,
,,,,,,5f52b69cd864aa5b51e1fc63,62c53a2f808438d282f10f07,2022-07-06_02h32.35.254,Colour_Asymmetry_Pilot,2022.1.3,Win32,59.99520038,62c50e9c1127f2cd403a315f,0,17,17,115,1,twofour,,,,,,,,,,,,,,,,,,,,,,,,,,,,,,,,,,,,,,,,,,,,,,,,,,,,,,,,,,,,,,,,,,,,,,,,,,,,,,,,,,,,,,,,,,,,,,,,,,,,,,,,,,,,,,,,,,,,,,,,,,,,,,,,,,,,,,,,,,,,,,,,,,,,,,,,,,,,,
,,,,,,5f52b69cd864aa5b51e1fc63,62c53a2f808438d282f10f07,2022-07-06_02h32.35.254,Colour_Asymmetry_Pilot,2022.1.3,Win32,59.99520038,62c50e9c1127f2cd403a315f,0,18,18,127,1,fourthree,,,,,,,,,,,,,,,,,,,,,,,,,,,,,,,,,,,,,,,,,,,,,,,,,,,,,,,,,,,,,,,,,,,,,,,,,,,,,,,,,,,,,,,,,,,,,,,,,,,,,,,,,,,,,,,,,,,,,,,,,,,,,,,,,,,,,,,,,,,,,,,,,,,,,,,,,,,,,
,,,,,,5f52b69cd864aa5b51e1fc63,62c53a2f808438d282f10f07,2022-07-06_02h32.35.254,Colour_Asymmetry_Pilot,2022.1.3,Win32,59.99520038,62c50e9c1127f2cd403a315f,0,19,19,58,1,twoone,,,,,,,,,,,,,,,,,,,,,,,,,,,,,,,,,,,,,,,,,,,,,,,,,,,,,,,,,,,,,,,,,,,,,,,,,,,,,,,,,,,,,,,,,,,,,,,,,,,,,,,,,,,,,,,,,,,,,,,,,,,,,,,,,,,,,,,,,,,,,,,,,,,,,,,,,,,,,
,,,,,,5f52b69cd864aa5b51e1fc63,62c53a2f808438d282f10f07,2022-07-06_02h32.35.254,Colour_Asymmetry_Pilot,2022.1.3,Win32,59.99520038,62c50e9c1127f2cd403a315f,0,20,20,8,1,onetwo,,,,,,,,,,,,,,,,,,,,,,,,,,,,,,,,,,,,,,,,,,,,,,,,,,,,,,,,,,,,,,,,,,,,,,,,,,,,,,,,,,,,,,,,,,,,,,,,,,,,,,,,,,,,,,,,,,,,,,,,,,,,,,,,,,,,,,,,,,,,,,,,,,,,,,,,,,,,,
,,,,,,5f52b69cd864aa5b51e1fc63,62c53a2f808438d282f10f07,2022-07-06_02h32.35.254,Colour_Asymmetry_Pilot,2022.1.3,Win32,59.99520038,62c50e9c1127f2cd403a315f,0,21,21,62,1,fourtwo,,,,,,,,,,,,,,,,,,,,,,,,,,,,,,,,,,,,,,,,,,,,,,,,,,,,,,,,,,,,,,,,,,,,,,,,,,,,,,,,,,,,,,,,,,,,,,,,,,,,,,,,,,,,,,,,,,,,,,,,,,,,,,,,,,,,,,,,,,,,,,,,,,,,,,,,,,,,,
,,,,,,5f52b69cd864aa5b51e1fc63,62c53a2f808438d282f10f07,2022-07-06_02h32.35.254,Colour_Asymmetry_Pilot,2022.1.3,Win32,59.99520038,62c50e9c1127f2cd403a315f,0,22,22,156,1,threeone,,,,,,,,,,,,,,,,,,,,,,,,,,,,,,,,,,,,,,,,,,,,,,,,,,,,,,,,,,,,,,,,,,,,,,,,,,,,,,,,,,,,,,,,,,,,,,,,,,,,,,,,,,,,,,,,,,,,,,,,,,,,,,,,,,,,,,,,,,,,,,,,,,,,,,,,,,,,,
,,,,,,5f52b69cd864aa5b51e1fc63,62c53a2f808438d282f10f07,2022-07-06_02h32.35.254,Colour_Asymmetry_Pilot,2022.1.3,Win32,59.99520038,62c50e9c1127f2cd403a315f,0,23,23,59,1,twofour,,,,,,,,,,,,,,,,,,,,,,,,,,,,,,,,,,,,,,,,,,,,,,,,,,,,,,,,,,,,,,,,,,,,,,,,,,,,,,,,,,,,,,,,,,,,,,,,,,,,,,,,,,,,,,,,,,,,,,,,,,,,,,,,,,,,,,,,,,,,,,,,,,,,,,,,,,,,,
,,,,,,5f52b69cd864aa5b51e1fc63,62c53a2f808438d282f10f07,2022-07-06_02h32.35.254,Colour_Asymmetry_Pilot,2022.1.3,Win32,59.99520038,62c50e9c1127f2cd403a315f,0,24,24,80,1,onetwo,,,,,,,,,,,,,,,,,,,,,,,,,,,,,,,,,,,,,,,,,,,,,,,,,,,,,,,,,,,,,,,,,,,,,,,,,,,,,,,,,,,,,,,,,,,,,,,,,,,,,,,,,,,,,,,,,,,,,,,,,,,,,,,,,,,,,,,,,,,,,,,,,,,,,,,,,,,,,
,,,,,,5f52b69cd864aa5b51e1fc63,62c53a2f808438d282f10f07,2022-07-06_02h32.35.254,Colour_Asymmetry_Pilot,2022.1.3,Win32,59.99520038,62c50e9c1127f2cd403a315f,0,25,25,149,1,threefour,,,,,,,,,,,,,,,,,,,,,,,,,,,,,,,,,,,,,,,,,,,,,,,,,,,,,,,,,,,,,,,,,,,,,,,,,,,,,,,,,,,,,,,,,,,,,,,,,,,,,,,,,,,,,,,,,,,,,,,,,,,,,,,,,,,,,,,,,,,,,,,,,,,,,,,,,,,,,
,,,,,,5f52b69cd864aa5b51e1fc63,62c53a2f808438d282f10f07,2022-07-06_02h32.35.254,Colour_Asymmetry_Pilot,2022.1.3,Win32,59.99520038,62c50e9c1127f2cd403a315f,0,26,26,48,1,onetwo,,,,,,,,,,,,,,,,,,,,,,,,,,,,,,,,,,,,,,,,,,,,,,,,,,,,,,,,,,,,,,,,,,,,,,,,,,,,,,,,,,,,,,,,,,,,,,,,,,,,,,,,,,,,,,,,,,,,,,,,,,,,,,,,,,,,,,,,,,,,,,,,,,,,,,,,,,,,,
,,,,,,5f52b69cd864aa5b51e1fc63,62c53a2f808438d282f10f07,2022-07-06_02h32.35.254,Colour_Asymmetry_Pilot,2022.1.3,Win32,59.99520038,62c50e9c1127f2cd403a315f,0,27,27,90,1,twoone,,,,,,,,,,,,,,,,,,,,,,,,,,,,,,,,,,,,,,,,,,,,,,,,,,,,,,,,,,,,,,,,,,,,,,,,,,,,,,,,,,,,,,,,,,,,,,,,,,,,,,,,,,,,,,,,,,,,,,,,,,,,,,,,,,,,,,,,,,,,,,,,,,,,,,,,,,,,,
,,,,,,5f52b69cd864aa5b51e1fc63,62c53a2f808438d282f10f07,2022-07-06_02h32.35.254,Colour_Asymmetry_Pilot,2022.1.3,Win32,59.99520038,62c50e9c1127f2cd403a315f,0,28,28,102,1,fourtwo,,,,,,,,,,,,,,,,,,,,,,,,,,,,,,,,,,,,,,,,,,,,,,,,,,,,,,,,,,,,,,,,,,,,,,,,,,,,,,,,,,,,,,,,,,,,,,,,,,,,,,,,,,,,,,,,,,,,,,,,,,,,,,,,,,,,,,,,,,,,,,,,,,,,,,,,,,,,,
,,,,,,5f52b69cd864aa5b51e1fc63,62c53a2f808438d282f10f07,2022-07-06_02h32.35.254,Colour_Asymmetry_Pilot,2022.1.3,Win32,59.99520038,62c50e9c1127f2cd403a315f,0,29,29,41,1,onethree,,,,,,,,,,,,,,,,,,,,,,,,,,,,,,,,,,,,,,,,,,,,,,,,,,,,,,,,,,,,,,,,,,,,,,,,,,,,,,,,,,,,,,,,,,,,,,,,,,,,,,,,,,,,,,,,,,,,,,,,,,,,,,,,,,,,,,,,,,,,,,,,,,,,,,,,,,,,,
,,,,,,5f52b69cd864aa5b51e1fc63,62c53a2f808438d282f10f07,2022-07-06_02h32.35.254,Colour_Asymmetry_Pilot,2022.1.3,Win32,59.99520038,62c50e9c1127f2cd403a315f,0,30,30,130,1,twoone,,,,,,,,,,,,,,,,,,,,,,,,,,,,,,,,,,,,,,,,,,,,,,,,,,,,,,,,,,,,,,,,,,,,,,,,,,,,,,,,,,,,,,,,,,,,,,,,,,,,,,,,,,,,,,,,,,,,,,,,,,,,,,,,,,,,,,,,,,,,,,,,,,,,,,,,,,,,,
,,,,,,5f52b69cd864aa5b51e1fc63,62c53a2f808438d282f10f07,2022-07-06_02h32.35.254,Colour_Asymmetry_Pilot,2022.1.3,Win32,59.99520038,62c50e9c1127f2cd403a315f,0,31,31,30,1,fourtwo,,,,,,,,,,,,,,,,,,,,,,,,,,,,,,,,,,,,,,,,,,,,,,,,,,,,,,,,,,,,,,,,,,,,,,,,,,,,,,,,,,,,,,,,,,,,,,,,,,,,,,,,,,,,,,,,,,,,,,,,,,,,,,,,,,,,,,,,,,,,,,,,,,,,,,,,,,,,,
,,,,,,5f52b69cd864aa5b51e1fc63,62c53a2f808438d282f10f07,2022-07-06_02h32.35.254,Colour_Asymmetry_Pilot,2022.1.3,Win32,59.99520038,62c50e9c1127f2cd403a315f,0,32,32,77,1,threefour,,,,,,,,,,,,,,,,,,,,,,,,,,,,,,,,,,,,,,,,,,,,,,,,,,,,,,,,,,,,,,,,,,,,,,,,,,,,,,,,,,,,,,,,,,,,,,,,,,,,,,,,,,,,,,,,,,,,,,,,,,,,,,,,,,,,,,,,,,,,,,,,,,,,,,,,,,,,,
,,,,,,5f52b69cd864aa5b51e1fc63,62c53a2f808438d282f10f07,2022-07-06_02h32.35.254,Colour_Asymmetry_Pilot,2022.1.3,Win32,59.99520038,62c50e9c1127f2cd403a315f,0,33,33,9,1,onethree,,,,,,,,,,,,,,,,,,,,,,,,,,,,,,,,,,,,,,,,,,,,,,,,,,,,,,,,,,,,,,,,,,,,,,,,,,,,,,,,,,,,,,,,,,,,,,,,,,,,,,,,,,,,,,,,,,,,,,,,,,,,,,,,,,,,,,,,,,,,,,,,,,,,,,,,,,,,,
,,,,,,5f52b69cd864aa5b51e1fc63,62c53a2f808438d282f10f07,2022-07-06_02h32.35.254,Colour_Asymmetry_Pilot,2022.1.3,Win32,59.99520038,62c50e9c1127f2cd403a315f,0,34,34,113,1,onethree,,,,,,,,,,,,,,,,,,,,,,,,,,,,,,,,,,,,,,,,,,,,,,,,,,,,,,,,,,,,,,,,,,,,,,,,,,,,,,,,,,,,,,,,,,,,,,,,,,,,,,,,,,,,,,,,,,,,,,,,,,,,,,,,,,,,,,,,,,,,,,,,,,,,,,,,,,,,,
,,,,,,5f52b69cd864aa5b51e1fc63,62c53a2f808438d282f10f07,2022-07-06_02h32.35.254,Colour_Asymmetry_Pilot,2022.1.3,Win32,59.99520038,62c50e9c1127f2cd403a315f,0,35,35,0,1,onetwo,,,,,,,,,,,,,,,,,,,,,,,,,,,,,,,,,,,,,,,,,,,,,,,,,,,,,,,,,,,,,,,,,,,,,,,,,,,,,,,,,,,,,,,,,,,,,,,,,,,,,,,,,,,,,,,,,,,,,,,,,,,,,,,,,,,,,,,,,,,,,,,,,,,,,,,,,,,,,
,,,,,,5f52b69cd864aa5b51e1fc63,62c53a2f808438d282f10f07,2022-07-06_02h32.35.254,Colour_Asymmetry_Pilot,2022.1.3,Win32,59.99520038,62c50e9c1127f2cd403a315f,0,36,36,27,1,twofour,,,,,,,,,,,,,,,,,,,,,,,,,,,,,,,,,,,,,,,,,,,,,,,,,,,,,,,,,,,,,,,,,,,,,,,,,,,,,,,,,,,,,,,,,,,,,,,,,,,,,,,,,,,,,,,,,,,,,,,,,,,,,,,,,,,,,,,,,,,,,,,,,,,,,,,,,,,,,
,,,,,,5f52b69cd864aa5b51e1fc63,62c53a2f808438d282f10f07,2022-07-06_02h32.35.254,Colour_Asymmetry_Pilot,2022.1.3,Win32,59.99520038,62c50e9c1127f2cd403a315f,0,37,37,73,1,onethree,,,,,,,,,,,,,,,,,,,,,,,,,,,,,,,,,,,,,,,,,,,,,,,,,,,,,,,,,,,,,,,,,,,,,,,,,,,,,,,,,,,,,,,,,,,,,,,,,,,,,,,,,,,,,,,,,,,,,,,,,,,,,,,,,,,,,,,,,,,,,,,,,,,,,,,,,,,,,
,,,,,,5f52b69cd864aa5b51e1fc63,62c53a2f808438d282f10f07,2022-07-06_02h32.35.254,Colour_Asymmetry_Pilot,2022.1.3,Win32,59.99520038,62c50e9c1127f2cd403a315f,0,38,38,34,1,twoone,,,,,,,,,,,,,,,,,,,,,,,,,,,,,,,,,,,,,,,,,,,,,,,,,,,,,,,,,,,,,,,,,,,,,,,,,,,,,,,,,,,,,,,,,,,,,,,,,,,,,,,,,,,,,,,,,,,,,,,,,,,,,,,,,,,,,,,,,,,,,,,,,,,,,,,,,,,,,
,,,,,,5f52b69cd864aa5b51e1fc63,62c53a2f808438d282f10f07,2022-07-06_02h32.35.254,Colour_Asymmetry_Pilot,2022.1.3,Win32,59.99520038,62c50e9c1127f2cd403a315f,0,39,39,22,1,fourtwo,,,,,,,,,,,,,,,,,,,,,,,,,,,,,,,,,,,,,,,,,,,,,,,,,,,,,,,,,,,,,,,,,,,,,,,,,,,,,,,,,,,,,,,,,,,,,,,,,,,,,,,,,,,,,,,,,,,,,,,,,,,,,,,,,,,,,,,,,,,,,,,,,,,,,,,,,,,,,
,,,,,,5f52b69cd864aa5b51e1fc63,62c53a2f808438d282f10f07,2022-07-06_02h32.35.254,Colour_Asymmetry_Pilot,2022.1.3,Win32,59.99520038,62c50e9c1127f2cd403a315f,0,40,40,2,1,twoone,,,,,,,,,,,,,,,,,,,,,,,,,,,,,,,,,,,,,,,,,,,,,,,,,,,,,,,,,,,,,,,,,,,,,,,,,,,,,,,,,,,,,,,,,,,,,,,,,,,,,,,,,,,,,,,,,,,,,,,,,,,,,,,,,,,,,,,,,,,,,,,,,,,,,,,,,,,,,
,,,,,,5f52b69cd864aa5b51e1fc63,62c53a2f808438d282f10f07,2022-07-06_02h32.35.254,Colour_Asymmetry_Pilot,2022.1.3,Win32,59.99520038,62c50e9c1127f2cd403a315f,0,41,41,140,1,threeone,,,,,,,,,,,,,,,,,,,,,,,,,,,,,,,,,,,,,,,,,,,,,,,,,,,,,,,,,,,,,,,,,,,,,,,,,,,,,,,,,,,,,,,,,,,,,,,,,,,,,,,,,,,,,,,,,,,,,,,,,,,,,,,,,,,,,,,,,,,,,,,,,,,,,,,,,,,,,
,,,,,,5f52b69cd864aa5b51e1fc63,62c53a2f808438d282f10f07,2022-07-06_02h32.35.254,Colour_Asymmetry_Pilot,2022.1.3,Win32,59.99520038,62c50e9c1127f2cd403a315f,0,42,42,147,1,twofour,,,,,,,,,,,,,,,,,,,,,,,,,,,,,,,,,,,,,,,,,,,,,,,,,,,,,,,,,,,,,,,,,,,,,,,,,,,,,,,,,,,,,,,,,,,,,,,,,,,,,,,,,,,,,,,,,,,,,,,,,,,,,,,,,,,,,,,,,,,,,,,,,,,,,,,,,,,,,
,,,,,,5f52b69cd864aa5b51e1fc63,62c53a2f808438d282f10f07,2022-07-06_02h32.35.254,Colour_Asymmetry_Pilot,2022.1.3,Win32,59.99520038,62c50e9c1127f2cd403a315f,0,43,43,91,1,twofour,,,,,,,,,,,,,,,,,,,,,,,,,,,,,,,,,,,,,,,,,,,,,,,,,,,,,,,,,,,,,,,,,,,,,,,,,,,,,,,,,,,,,,,,,,,,,,,,,,,,,,,,,,,,,,,,,,,,,,,,,,,,,,,,,,,,,,,,,,,,,,,,,,,,,,,,,,,,,
,,,,,,5f52b69cd864aa5b51e1fc63,62c53a2f808438d282f10f07,2022-07-06_02h32.35.254,Colour_Asymmetry_Pilot,2022.1.3,Win32,59.99520038,62c50e9c1127f2cd403a315f,0,44,44,118,1,fourtwo,,,,,,,,,,,,,,,,,,,,,,,,,,,,,,,,,,,,,,,,,,,,,,,,,,,,,,,,,,,,,,,,,,,,,,,,,,,,,,,,,,,,,,,,,,,,,,,,,,,,,,,,,,,,,,,,,,,,,,,,,,,,,,,,,,,,,,,,,,,,,,,,,,,,,,,,,,,,,
,,,,,,5f52b69cd864aa5b51e1fc63,62c53a2f808438d282f10f07,2022-07-06_02h32.35.254,Colour_Asymmetry_Pilot,2022.1.3,Win32,59.99520038,62c50e9c1127f2cd403a315f,0,45,45,106,1,twoone,,,,,,,,,,,,,,,,,,,,,,,,,,,,,,,,,,,,,,,,,,,,,,,,,,,,,,,,,,,,,,,,,,,,,,,,,,,,,,,,,,,,,,,,,,,,,,,,,,,,,,,,,,,,,,,,,,,,,,,,,,,,,,,,,,,,,,,,,,,,,,,,,,,,,,,,,,,,,
,,,,,,5f52b69cd864aa5b51e1fc63,62c53a2f808438d282f10f07,2022-07-06_02h32.35.254,Colour_Asymmetry_Pilot,2022.1.3,Win32,59.99520038,62c50e9c1127f2cd403a315f,0,46,46,23,1,fourthree,,,,,,,,,,,,,,,,,,,,,,,,,,,,,,,,,,,,,,,,,,,,,,,,,,,,,,,,,,,,,,,,,,,,,,,,,,,,,,,,,,,,,,,,,,,,,,,,,,,,,,,,,,,,,,,,,,,,,,,,,,,,,,,,,,,,,,,,,,,,,,,,,,,,,,,,,,,,,
,,,,,,5f52b69cd864aa5b51e1fc63,62c53a2f808438d282f10f07,2022-07-06_02h32.35.254,Colour_Asymmetry_Pilot,2022.1.3,Win32,59.99520038,62c50e9c1127f2cd403a315f,0,47,47,20,1,threeone,,,,,,,,,,,,,,,,,,,,,,,,,,,,,,,,,,,,,,,,,,,,,,,,,,,,,,,,,,,,,,,,,,,,,,,,,,,,,,,,,,,,,,,,,,,,,,,,,,,,,,,,,,,,,,,,,,,,,,,,,,,,,,,,,,,,,,,,,,,,,,,,,,,,,,,,,,,,,
,,,,,,5f52b69cd864aa5b51e1fc63,62c53a2f808438d282f10f07,2022-07-06_02h32.35.254,Colour_Asymmetry_Pilot,2022.1.3,Win32,59.99520038,62c50e9c1127f2cd403a315f,0,48,48,43,1,twofour,,,,,,,,,,,,,,,,,,,,,,,,,,,,,,,,,,,,,,,,,,,,,,,,,,,,,,,,,,,,,,,,,,,,,,,,,,,,,,,,,,,,,,,,,,,,,,,,,,,,,,,,,,,,,,,,,,,,,,,,,,,,,,,,,,,,,,,,,,,,,,,,,,,,,,,,,,,,,
,,,,,,5f52b69cd864aa5b51e1fc63,62c53a2f808438d282f10f07,2022-07-06_02h32.35.254,Colour_Asymmetry_Pilot,2022.1.3,Win32,59.99520038,62c50e9c1127f2cd403a315f,0,49,49,129,1,onethree,,,,,,,,,,,,,,,,,,,,,,,,,,,,,,,,,,,,,,,,,,,,,,,,,,,,,,,,,,,,,,,,,,,,,,,,,,,,,,,,,,,,,,,,,,,,,,,,,,,,,,,,,,,,,,,,,,,,,,,,,,,,,,,,,,,,,,,,,,,,,,,,,,,,,,,,,,,,,
,,,,,,5f52b69cd864aa5b51e1fc63,62c53a2f808438d282f10f07,2022-07-06_02h32.35.254,Colour_Asymmetry_Pilot,2022.1.3,Win32,59.99520038,62c50e9c1127f2cd403a315f,0,50,50,50,1,twoone,,,,,,,,,,,,,,,,,,,,,,,,,,,,,,,,,,,,,,,,,,,,,,,,,,,,,,,,,,,,,,,,,,,,,,,,,,,,,,,,,,,,,,,,,,,,,,,,,,,,,,,,,,,,,,,,,,,,,,,,,,,,,,,,,,,,,,,,,,,,,,,,,,,,,,,,,,,,,
,,,,,,5f52b69cd864aa5b51e1fc63,62c53a2f808438d282f10f07,2022-07-06_02h32.35.254,Colour_Asymmetry_Pilot,2022.1.3,Win32,59.99520038,62c50e9c1127f2cd403a315f,0,51,51,1,1,onethree,,,,,,,,,,,,,,,,,,,,,,,,,,,,,,,,,,,,,,,,,,,,,,,,,,,,,,,,,,,,,,,,,,,,,,,,,,,,,,,,,,,,,,,,,,,,,,,,,,,,,,,,,,,,,,,,,,,,,,,,,,,,,,,,,,,,,,,,,,,,,,,,,,,,,,,,,,,,,
,,,,,,5f52b69cd864aa5b51e1fc63,62c53a2f808438d282f10f07,2022-07-06_02h32.35.254,Colour_Asymmetry_Pilot,2022.1.3,Win32,59.99520038,62c50e9c1127f2cd403a315f,0,52,52,96,1,onetwo,,,,,,,,,,,,,,,,,,,,,,,,,,,,,,,,,,,,,,,,,,,,,,,,,,,,,,,,,,,,,,,,,,,,,,,,,,,,,,,,,,,,,,,,,,,,,,,,,,,,,,,,,,,,,,,,,,,,,,,,,,,,,,,,,,,,,,,,,,,,,,,,,,,,,,,,,,,,,
,,,,,,5f52b69cd864aa5b51e1fc63,62c53a2f808438d282f10f07,2022-07-06_02h32.35.254,Colour_Asymmetry_Pilot,2022.1.3,Win32,59.99520038,62c50e9c1127f2cd403a315f,0,53,53,79,1,fourthree,,,,,,,,,,,,,,,,,,,,,,,,,,,,,,,,,,,,,,,,,,,,,,,,,,,,,,,,,,,,,,,,,,,,,,,,,,,,,,,,,,,,,,,,,,,,,,,,,,,,,,,,,,,,,,,,,,,,,,,,,,,,,,,,,,,,,,,,,,,,,,,,,,,,,,,,,,,,,
,,,,,,5f52b69cd864aa5b51e1fc63,62c53a2f808438d282f10f07,2022-07-06_02h32.35.254,Colour_Asymmetry_Pilot,2022.1.3,Win32,59.99520038,62c50e9c1127f2cd403a315f,0,54,54,42,1,twoone,,,,,,,,,,,,,,,,,,,,,,,,,,,,,,,,,,,,,,,,,,,,,,,,,,,,,,,,,,,,,,,,,,,,,,,,,,,,,,,,,,,,,,,,,,,,,,,,,,,,,,,,,,,,,,,,,,,,,,,,,,,,,,,,,,,,,,,,,,,,,,,,,,,,,,,,,,,,,
,,,,,,5f52b69cd864aa5b51e1fc63,62c53a2f808438d282f10f07,2022-07-06_02h32.35.254,Colour_Asymmetry_Pilot,2022.1.3,Win32,59.99520038,62c50e9c1127f2cd403a315f,0,55,55,52,1,threeone,,,,,,,,,,,,,,,,,,,,,,,,,,,,,,,,,,,,,,,,,,,,,,,,,,,,,,,,,,,,,,,,,,,,,,,,,,,,,,,,,,,,,,,,,,,,,,,,,,,,,,,,,,,,,,,,,,,,,,,,,,,,,,,,,,,,,,,,,,,,,,,,,,,,,,,,,,,,,
,,,,,,5f52b69cd864aa5b51e1fc63,62c53a2f808438d282f10f07,2022-07-06_02h32.35.254,Colour_Asymmetry_Pilot,2022.1.3,Win32,59.99520038,62c50e9c1127f2cd403a315f,0,56,56,144,1,onetwo,,,,,,,,,,,,,,,,,,,,,,,,,,,,,,,,,,,,,,,,,,,,,,,,,,,,,,,,,,,,,,,,,,,,,,,,,,,,,,,,,,,,,,,,,,,,,,,,,,,,,,,,,,,,,,,,,,,,,,,,,,,,,,,,,,,,,,,,,,,,,,,,,,,,,,,,,,,,,
,,,,,,5f52b69cd864aa5b51e1fc63,62c53a2f808438d282f10f07,2022-07-06_02h32.35.254,Colour_Asymmetry_Pilot,2022.1.3,Win32,59.99520038,62c50e9c1127f2cd403a315f,0,57,57,3,1,twofour,,,,,,,,,,,,,,,,,,,,,,,,,,,,,,,,,,,,,,,,,,,,,,,,,,,,,,,,,,,,,,,,,,,,,,,,,,,,,,,,,,,,,,,,,,,,,,,,,,,,,,,,,,,,,,,,,,,,,,,,,,,,,,,,,,,,,,,,,,,,,,,,,,,,,,,,,,,,,
,,,,,,5f52b69cd864aa5b51e1fc63,62c53a2f808438d282f10f07,2022-07-06_02h32.35.254,Colour_Asymmetry_Pilot,2022.1.3,Win32,59.99520038,62c50e9c1127f2cd403a315f,0,58,58,143,1,fourthree,,,,,,,,,,,,,,,,,,,,,,,,,,,,,,,,,,,,,,,,,,,,,,,,,,,,,,,,,,,,,,,,,,,,,,,,,,,,,,,,,,,,,,,,,,,,,,,,,,,,,,,,,,,,,,,,,,,,,,,,,,,,,,,,,,,,,,,,,,,,,,,,,,,,,,,,,,,,,
,,,,,,5f52b69cd864aa5b51e1fc63,62c53a2f808438d282f10f07,2022-07-06_02h32.35.254,Colour_Asymmetry_Pilot,2022.1.3,Win32,59.99520038,62c50e9c1127f2cd403a315f,0,59,59,109,1,threefour,,,,,,,,,,,,,,,,,,,,,,,,,,,,,,,,,,,,,,,,,,,,,,,,,,,,,,,,,,,,,,,,,,,,,,,,,,,,,,,,,,,,,,,,,,,,,,,,,,,,,,,,,,,,,,,,,,,,,,,,,,,,,,,,,,,,,,,,,,,,,,,,,,,,,,,,,,,,,
,,,,,,5f52b69cd864aa5b51e1fc63,62c53a2f808438d282f10f07,2022-07-06_02h32.35.254,Colour_Asymmetry_Pilot,2022.1.3,Win32,59.99520038,62c50e9c1127f2cd403a315f,0,60,60,141,1,threefour,,,,,,,,,,,,,,,,,,,,,,,,,,,,,,,,,,,,,,,,,,,,,,,,,,,,,,,,,,,,,,,,,,,,,,,,,,,,,,,,,,,,,,,,,,,,,,,,,,,,,,,,,,,,,,,,,,,,,,,,,,,,,,,,,,,,,,,,,,,,,,,,,,,,,,,,,,,,,
,,,,,,5f52b69cd864aa5b51e1fc63,62c53a2f808438d282f10f07,2022-07-06_02h32.35.254,Colour_Asymmetry_Pilot,2022.1.3,Win32,59.99520038,62c50e9c1127f2cd403a315f,0,61,61,37,1,threefour,,,,,,,,,,,,,,,,,,,,,,,,,,,,,,,,,,,,,,,,,,,,,,,,,,,,,,,,,,,,,,,,,,,,,,,,,,,,,,,,,,,,,,,,,,,,,,,,,,,,,,,,,,,,,,,,,,,,,,,,,,,,,,,,,,,,,,,,,,,,,,,,,,,,,,,,,,,,,
,,,,,,5f52b69cd864aa5b51e1fc63,62c53a2f808438d282f10f07,2022-07-06_02h32.35.254,Colour_Asymmetry_Pilot,2022.1.3,Win32,59.99520038,62c50e9c1127f2cd403a315f,0,62,62,75,1,twofour,,,,,,,,,,,,,,,,,,,,,,,,,,,,,,,,,,,,,,,,,,,,,,,,,,,,,,,,,,,,,,,,,,,,,,,,,,,,,,,,,,,,,,,,,,,,,,,,,,,,,,,,,,,,,,,,,,,,,,,,,,,,,,,,,,,,,,,,,,,,,,,,,,,,,,,,,,,,,
,,,,,,5f52b69cd864aa5b51e1fc63,62c53a2f808438d282f10f07,2022-07-06_02h32.35.254,Colour_Asymmetry_Pilot,2022.1.3,Win32,59.99520038,62c50e9c1127f2cd403a315f,0,63,63,136,1,onetwo,,,,,,,,,,,,,,,,,,,,,,,,,,,,,,,,,,,,,,,,,,,,,,,,,,,,,,,,,,,,,,,,,,,,,,,,,,,,,,,,,,,,,,,,,,,,,,,,,,,,,,,,,,,,,,,,,,,,,,,,,,,,,,,,,,,,,,,,,,,,,,,,,,,,,,,,,,,,,
,,,,,,5f52b69cd864aa5b51e1fc63,62c53a2f808438d282f10f07,2022-07-06_02h32.35.254,Colour_Asymmetry_Pilot,2022.1.3,Win32,59.99520038,62c50e9c1127f2cd403a315f,0,64,64,71,1,fourthree,,,,,,,,,,,,,,,,,,,,,,,,,,,,,,,,,,,,,,,,,,,,,,,,,,,,,,,,,,,,,,,,,,,,,,,,,,,,,,,,,,,,,,,,,,,,,,,,,,,,,,,,,,,,,,,,,,,,,,,,,,,,,,,,,,,,,,,,,,,,,,,,,,,,,,,,,,,,,
,,,,,,5f52b69cd864aa5b51e1fc63,62c53a2f808438d282f10f07,2022-07-06_02h32.35.254,Colour_Asymmetry_Pilot,2022.1.3,Win32,59.99520038,62c50e9c1127f2cd403a315f,0,65,65,13,1,threefour,,,,,,,,,,,,,,,,,,,,,,,,,,,,,,,,,,,,,,,,,,,,,,,,,,,,,,,,,,,,,,,,,,,,,,,,,,,,,,,,,,,,,,,,,,,,,,,,,,,,,,,,,,,,,,,,,,,,,,,,,,,,,,,,,,,,,,,,,,,,,,,,,,,,,,,,,,,,,
,,,,,,5f52b69cd864aa5b51e1fc63,62c53a2f808438d282f10f07,2022-07-06_02h32.35.254,Colour_Asymmetry_Pilot,2022.1.3,Win32,59.99520038,62c50e9c1127f2cd403a315f,0,66,66,160,1,onetwo,,,,,,,,,,,,,,,,,,,,,,,,,,,,,,,,,,,,,,,,,,,,,,,,,,,,,,,,,,,,,,,,,,,,,,,,,,,,,,,,,,,,,,,,,,,,,,,,,,,,,,,,,,,,,,,,,,,,,,,,,,,,,,,,,,,,,,,,,,,,,,,,,,,,,,,,,,,,,
,,,,,,5f52b69cd864aa5b51e1fc63,62c53a2f808438d282f10f07,2022-07-06_02h32.35.254,Colour_Asymmetry_Pilot,2022.1.3,Win32,59.99520038,62c50e9c1127f2cd403a315f,0,67,67,35,1,twofour,,,,,,,,,,,,,,,,,,,,,,,,,,,,,,,,,,,,,,,,,,,,,,,,,,,,,,,,,,,,,,,,,,,,,,,,,,,,,,,,,,,,,,,,,,,,,,,,,,,,,,,,,,,,,,,,,,,,,,,,,,,,,,,,,,,,,,,,,,,,,,,,,,,,,,,,,,,,,
,,,,,,5f52b69cd864aa5b51e1fc63,62c53a2f808438d282f10f07,2022-07-06_02h32.35.254,Colour_Asymmetry_Pilot,2022.1.3,Win32,59.99520038,62c50e9c1127f2cd403a315f,0,68,68,108,1,threeone,,,,,,,,,,,,,,,,,,,,,,,,,,,,,,,,,,,,,,,,,,,,,,,,,,,,,,,,,,,,,,,,,,,,,,,,,,,,,,,,,,,,,,,,,,,,,,,,,,,,,,,,,,,,,,,,,,,,,,,,,,,,,,,,,,,,,,,,,,,,,,,,,,,,,,,,,,,,,
,,,,,,5f52b69cd864aa5b51e1fc63,62c53a2f808438d282f10f07,2022-07-06_02h32.35.254,Colour_Asymmetry_Pilot,2022.1.3,Win32,59.99520038,62c50e9c1127f2cd403a315f,0,69,69,32,1,onetwo,,,,,,,,,,,,,,,,,,,,,,,,,,,,,,,,,,,,,,,,,,,,,,,,,,,,,,,,,,,,,,,,,,,,,,,,,,,,,,,,,,,,,,,,,,,,,,,,,,,,,,,,,,,,,,,,,,,,,,,,,,,,,,,,,,,,,,,,,,,,,,,,,,,,,,,,,,,,,
,,,,,,5f52b69cd864aa5b51e1fc63,62c53a2f808438d282f10f07,2022-07-06_02h32.35.254,Colour_Asymmetry_Pilot,2022.1.3,Win32,59.99520038,62c50e9c1127f2cd403a315f,0,70,70,124,1,threeone,,,,,,,,,,,,,,,,,,,,,,,,,,,,,,,,,,,,,,,,,,,,,,,,,,,,,,,,,,,,,,,,,,,,,,,,,,,,,,,,,,,,,,,,,,,,,,,,,,,,,,,,,,,,,,,,,,,,,,,,,,,,,,,,,,,,,,,,,,,,,,,,,,,,,,,,,,,,,
,,,,,,5f52b69cd864aa5b51e1fc63,62c53a2f808438d282f10f07,2022-07-06_02h32.35.254,Colour_Asymmetry_Pilot,2022.1.3,Win32,59.99520038,62c50e9c1127f2cd403a315f,0,71,71,5,1,threefour,,,,,,,,,,,,,,,,,,,,,,,,,,,,,,,,,,,,,,,,,,,,,,,,,,,,,,,,,,,,,,,,,,,,,,,,,,,,,,,,,,,,,,,,,,,,,,,,,,,,,,,,,,,,,,,,,,,,,,,,,,,,,,,,,,,,,,,,,,,,,,,,,,,,,,,,,,,,,
,,,,,,5f52b69cd864aa5b51e1fc63,62c53a2f808438d282f10f07,2022-07-06_02h32.35.254,Colour_Asymmetry_Pilot,2022.1.3,Win32,59.99520038,62c50e9c1127f2cd403a315f,0,72,72,121,1,onethree,,,,,,,,,,,,,,,,,,,,,,,,,,,,,,,,,,,,,,,,,,,,,,,,,,,,,,,,,,,,,,,,,,,,,,,,,,,,,,,,,,,,,,,,,,,,,,,,,,,,,,,,,,,,,,,,,,,,,,,,,,,,,,,,,,,,,,,,,,,,,,,,,,,,,,,,,,,,,
,,,,,,5f52b69cd864aa5b51e1fc63,62c53a2f808438d282f10f07,2022-07-06_02h32.35.254,Colour_Asymmetry_Pilot,2022.1.3,Win32,59.99520038,62c50e9c1127f2cd403a315f,0,73,73,155,1,twofour,,,,,,,,,,,,,,,,,,,,,,,,,,,,,,,,,,,,,,,,,,,,,,,,,,,,,,,,,,,,,,,,,,,,,,,,,,,,,,,,,,,,,,,,,,,,,,,,,,,,,,,,,,,,,,,,,,,,,,,,,,,,,,,,,,,,,,,,,,,,,,,,,,,,,,,,,,,,,
,,,,,,5f52b69cd864aa5b51e1fc63,62c53a2f808438d282f10f07,2022-07-06_02h32.35.254,Colour_Asymmetry_Pilot,2022.1.3,Win32,59.99520038,62c50e9c1127f2cd403a315f,0,74,74,14,1,fourtwo,,,,,,,,,,,,,,,,,,,,,,,,,,,,,,,,,,,,,,,,,,,,,,,,,,,,,,,,,,,,,,,,,,,,,,,,,,,,,,,,,,,,,,,,,,,,,,,,,,,,,,,,,,,,,,,,,,,,,,,,,,,,,,,,,,,,,,,,,,,,,,,,,,,,,,,,,,,,,
,,,,,,5f52b69cd864aa5b51e1fc63,62c53a2f808438d282f10f07,2022-07-06_02h32.35.254,Colour_Asymmetry_Pilot,2022.1.3,Win32,59.99520038,62c50e9c1127f2cd403a315f,0,75,75,104,1,onetwo,,,,,,,,,,,,,,,,,,,,,,,,,,,,,,,,,,,,,,,,,,,,,,,,,,,,,,,,,,,,,,,,,,,,,,,,,,,,,,,,,,,,,,,,,,,,,,,,,,,,,,,,,,,,,,,,,,,,,,,,,,,,,,,,,,,,,,,,,,,,,,,,,,,,,,,,,,,,,
,,,,,,5f52b69cd864aa5b51e1fc63,62c53a2f808438d282f10f07,2022-07-06_02h32.35.254,Colour_Asymmetry_Pilot,2022.1.3,Win32,59.99520038,62c50e9c1127f2cd403a315f,0,76,76,47,1,fourthree,,,,,,,,,,,,,,,,,,,,,,,,,,,,,,,,,,,,,,,,,,,,,,,,,,,,,,,,,,,,,,,,,,,,,,,,,,,,,,,,,,,,,,,,,,,,,,,,,,,,,,,,,,,,,,,,,,,,,,,,,,,,,,,,,,,,,,,,,,,,,,,,,,,,,,,,,,,,,
,,,,,,5f52b69cd864aa5b51e1fc63,62c53a2f808438d282f10f07,2022-07-06_02h32.35.254,Colour_Asymmetry_Pilot,2022.1.3,Win32,59.99520038,62c50e9c1127f2cd403a315f,0,77,77,132,1,threeone,,,,,,,,,,,,,,,,,,,,,,,,,,,,,,,,,,,,,,,,,,,,,,,,,,,,,,,,,,,,,,,,,,,,,,,,,,,,,,,,,,,,,,,,,,,,,,,,,,,,,,,,,,,,,,,,,,,,,,,,,,,,,,,,,,,,,,,,,,,,,,,,,,,,,,,,,,,,,
,,,,,,5f52b69cd864aa5b51e1fc63,62c53a2f808438d282f10f07,2022-07-06_02h32.35.254,Colour_Asymmetry_Pilot,2022.1.3,Win32,59.99520038,62c50e9c1127f2cd403a315f,0,78,78,114,1,twoone,,,,,,,,,,,,,,,,,,,,,,,,,,,,,,,,,,,,,,,,,,,,,,,,,,,,,,,,,,,,,,,,,,,,,,,,,,,,,,,,,,,,,,,,,,,,,,,,,,,,,,,,,,,,,,,,,,,,,,,,,,,,,,,,,,,,,,,,,,,,,,,,,,,,,,,,,,,,,
,,,,,,5f52b69cd864aa5b51e1fc63,62c53a2f808438d282f10f07,2022-07-06_02h32.35.254,Colour_Asymmetry_Pilot,2022.1.3,Win32,59.99520038,62c50e9c1127f2cd403a315f,0,79,79,117,1,threefour,,,,,,,,,,,,,,,,,,,,,,,,,,,,,,,,,,,,,,,,,,,,,,,,,,,,,,,,,,,,,,,,,,,,,,,,,,,,,,,,,,,,,,,,,,,,,,,,,,,,,,,,,,,,,,,,,,,,,,,,,,,,,,,,,,,,,,,,,,,,,,,,,,,,,,,,,,,,,
,,,,,,5f52b69cd864aa5b51e1fc63,62c53a2f808438d282f10f07,2022-07-06_02h32.35.254,Colour_Asymmetry_Pilot,2022.1.3,Win32,59.99520038,62c50e9c1127f2cd403a315f,0,80,80,31,1,fourthree,,,,,,,,,,,,,,,,,,,,,,,,,,,,,,,,,,,,,,,,,,,,,,,,,,,,,,,,,,,,,,,,,,,,,,,,,,,,,,,,,,,,,,,,,,,,,,,,,,,,,,,,,,,,,,,,,,,,,,,,,,,,,,,,,,,,,,,,,,,,,,,,,,,,,,,,,,,,,
,,,,,,5f52b69cd864aa5b51e1fc63,62c53a2f808438d282f10f07,2022-07-06_02h32.35.254,Colour_Asymmetry_Pilot,2022.1.3,Win32,59.99520038,62c50e9c1127f2cd403a315f,0,81,81,146,1,twoone,,,,,,,,,,,,,,,,,,,,,,,,,,,,,,,,,,,,,,,,,,,,,,,,,,,,,,,,,,,,,,,,,,,,,,,,,,,,,,,,,,,,,,,,,,,,,,,,,,,,,,,,,,,,,,,,,,,,,,,,,,,,,,,,,,,,,,,,,,,,,,,,,,,,,,,,,,,,,
,,,,,,5f52b69cd864aa5b51e1fc63,62c53a2f808438d282f10f07,2022-07-06_02h32.35.254,Colour_Asymmetry_Pilot,2022.1.3,Win32,59.99520038,62c50e9c1127f2cd403a315f,0,82,82,112,1,onetwo,,,,,,,,,,,,,,,,,,,,,,,,,,,,,,,,,,,,,,,,,,,,,,,,,,,,,,,,,,,,,,,,,,,,,,,,,,,,,,,,,,,,,,,,,,,,,,,,,,,,,,,,,,,,,,,,,,,,,,,,,,,,,,,,,,,,,,,,,,,,,,,,,,,,,,,,,,,,,
,,,,,,5f52b69cd864aa5b51e1fc63,62c53a2f808438d282f10f07,2022-07-06_02h32.35.254,Colour_Asymmetry_Pilot,2022.1.3,Win32,59.99520038,62c50e9c1127f2cd403a315f,0,83,83,120,1,onetwo,,,,,,,,,,,,,,,,,,,,,,,,,,,,,,,,,,,,,,,,,,,,,,,,,,,,,,,,,,,,,,,,,,,,,,,,,,,,,,,,,,,,,,,,,,,,,,,,,,,,,,,,,,,,,,,,,,,,,,,,,,,,,,,,,,,,,,,,,,,,,,,,,,,,,,,,,,,,,
,,,,,,5f52b69cd864aa5b51e1fc63,62c53a2f808438d282f10f07,2022-07-06_02h32.35.254,Colour_Asymmetry_Pilot,2022.1.3,Win32,59.99520038,62c50e9c1127f2cd403a315f,0,84,84,84,1,threeone,,,,,,,,,,,,,,,,,,,,,,,,,,,,,,,,,,,,,,,,,,,,,,,,,,,,,,,,,,,,,,,,,,,,,,,,,,,,,,,,,,,,,,,,,,,,,,,,,,,,,,,,,,,,,,,,,,,,,,,,,,,,,,,,,,,,,,,,,,,,,,,,,,,,,,,,,,,,,
,,,,,,5f52b69cd864aa5b51e1fc63,62c53a2f808438d282f10f07,2022-07-06_02h32.35.254,Colour_Asymmetry_Pilot,2022.1.3,Win32,59.99520038,62c50e9c1127f2cd403a315f,0,85,85,11,1,twofour,,,,,,,,,,,,,,,,,,,,,,,,,,,,,,,,,,,,,,,,,,,,,,,,,,,,,,,,,,,,,,,,,,,,,,,,,,,,,,,,,,,,,,,,,,,,,,,,,,,,,,,,,,,,,,,,,,,,,,,,,,,,,,,,,,,,,,,,,,,,,,,,,,,,,,,,,,,,,
,,,,,,5f52b69cd864aa5b51e1fc63,62c53a2f808438d282f10f07,2022-07-06_02h32.35.254,Colour_Asymmetry_Pilot,2022.1.3,Win32,59.99520038,62c50e9c1127f2cd403a315f,0,86,86,103,1,fourthree,,,,,,,,,,,,,,,,,,,,,,,,,,,,,,,,,,,,,,,,,,,,,,,,,,,,,,,,,,,,,,,,,,,,,,,,,,,,,,,,,,,,,,,,,,,,,,,,,,,,,,,,,,,,,,,,,,,,,,,,,,,,,,,,,,,,,,,,,,,,,,,,,,,,,,,,,,,,,
,,,,,,5f52b69cd864aa5b51e1fc63,62c53a2f808438d282f10f07,2022-07-06_02h32.35.254,Colour_Asymmetry_Pilot,2022.1.3,Win32,59.99520038,62c50e9c1127f2cd403a315f,0,87,87,66,1,twoone,,,,,,,,,,,,,,,,,,,,,,,,,,,,,,,,,,,,,,,,,,,,,,,,,,,,,,,,,,,,,,,,,,,,,,,,,,,,,,,,,,,,,,,,,,,,,,,,,,,,,,,,,,,,,,,,,,,,,,,,,,,,,,,,,,,,,,,,,,,,,,,,,,,,,,,,,,,,,
,,,,,,5f52b69cd864aa5b51e1fc63,62c53a2f808438d282f10f07,2022-07-06_02h32.35.254,Colour_Asymmetry_Pilot,2022.1.3,Win32,59.99520038,62c50e9c1127f2cd403a315f,0,88,88,99,1,twofour,,,,,,,,,,,,,,,,,,,,,,,,,,,,,,,,,,,,,,,,,,,,,,,,,,,,,,,,,,,,,,,,,,,,,,,,,,,,,,,,,,,,,,,,,,,,,,,,,,,,,,,,,,,,,,,,,,,,,,,,,,,,,,,,,,,,,,,,,,,,,,,,,,,,,,,,,,,,,
,,,,,,5f52b69cd864aa5b51e1fc63,62c53a2f808438d282f10f07,2022-07-06_02h32.35.254,Colour_Asymmetry_Pilot,2022.1.3,Win32,59.99520038,62c50e9c1127f2cd403a315f,0,89,89,4,1,threeone,,,,,,,,,,,,,,,,,,,,,,,,,,,,,,,,,,,,,,,,,,,,,,,,,,,,,,,,,,,,,,,,,,,,,,,,,,,,,,,,,,,,,,,,,,,,,,,,,,,,,,,,,,,,,,,,,,,,,,,,,,,,,,,,,,,,,,,,,,,,,,,,,,,,,,,,,,,,,
,,,,,,5f52b69cd864aa5b51e1fc63,62c53a2f808438d282f10f07,2022-07-06_02h32.35.254,Colour_Asymmetry_Pilot,2022.1.3,Win32,59.99520038,62c50e9c1127f2cd403a315f,0,90,90,123,1,twofour,,,,,,,,,,,,,,,,,,,,,,,,,,,,,,,,,,,,,,,,,,,,,,,,,,,,,,,,,,,,,,,,,,,,,,,,,,,,,,,,,,,,,,,,,,,,,,,,,,,,,,,,,,,,,,,,,,,,,,,,,,,,,,,,,,,,,,,,,,,,,,,,,,,,,,,,,,,,,
,,,,,,5f52b69cd864aa5b51e1fc63,62c53a2f808438d282f10f07,2022-07-06_02h32.35.254,Colour_Asymmetry_Pilot,2022.1.3,Win32,59.99520038,62c50e9c1127f2cd403a315f,0,91,91,12,1,threeone,,,,,,,,,,,,,,,,,,,,,,,,,,,,,,,,,,,,,,,,,,,,,,,,,,,,,,,,,,,,,,,,,,,,,,,,,,,,,,,,,,,,,,,,,,,,,,,,,,,,,,,,,,,,,,,,,,,,,,,,,,,,,,,,,,,,,,,,,,,,,,,,,,,,,,,,,,,,,
,,,,,,5f52b69cd864aa5b51e1fc63,62c53a2f808438d282f10f07,2022-07-06_02h32.35.254,Colour_Asymmetry_Pilot,2022.1.3,Win32,59.99520038,62c50e9c1127f2cd403a315f,0,92,92,159,1,fourthree,,,,,,,,,,,,,,,,,,,,,,,,,,,,,,,,,,,,,,,,,,,,,,,,,,,,,,,,,,,,,,,,,,,,,,,,,,,,,,,,,,,,,,,,,,,,,,,,,,,,,,,,,,,,,,,,,,,,,,,,,,,,,,,,,,,,,,,,,,,,,,,,,,,,,,,,,,,,,
,,,,,,5f52b69cd864aa5b51e1fc63,62c53a2f808438d282f10f07,2022-07-06_02h32.35.254,Colour_Asymmetry_Pilot,2022.1.3,Win32,59.99520038,62c50e9c1127f2cd403a315f,0,93,93,69,1,threefour,,,,,,,,,,,,,,,,,,,,,,,,,,,,,,,,,,,,,,,,,,,,,,,,,,,,,,,,,,,,,,,,,,,,,,,,,,,,,,,,,,,,,,,,,,,,,,,,,,,,,,,,,,,,,,,,,,,,,,,,,,,,,,,,,,,,,,,,,,,,,,,,,,,,,,,,,,,,,
,,,,,,5f52b69cd864aa5b51e1fc63,62c53a2f808438d282f10f07,2022-07-06_02h32.35.254,Colour_Asymmetry_Pilot,2022.1.3,Win32,59.99520038,62c50e9c1127f2cd403a315f,0,94,94,74,1,twoone,,,,,,,,,,,,,,,,,,,,,,,,,,,,,,,,,,,,,,,,,,,,,,,,,,,,,,,,,,,,,,,,,,,,,,,,,,,,,,,,,,,,,,,,,,,,,,,,,,,,,,,,,,,,,,,,,,,,,,,,,,,,,,,,,,,,,,,,,,,,,,,,,,,,,,,,,,,,,
,,,,,,5f52b69cd864aa5b51e1fc63,62c53a2f808438d282f10f07,2022-07-06_02h32.35.254,Colour_Asymmetry_Pilot,2022.1.3,Win32,59.99520038,62c50e9c1127f2cd403a315f,0,95,95,39,1,fourthree,,,,,,,,,,,,,,,,,,,,,,,,,,,,,,,,,,,,,,,,,,,,,,,,,,,,,,,,,,,,,,,,,,,,,,,,,,,,,,,,,,,,,,,,,,,,,,,,,,,,,,,,,,,,,,,,,,,,,,,,,,,,,,,,,,,,,,,,,,,,,,,,,,,,,,,,,,,,,
,,,,,,5f52b69cd864aa5b51e1fc63,62c53a2f808438d282f10f07,2022-07-06_02h32.35.254,Colour_Asymmetry_Pilot,2022.1.3,Win32,59.99520038,62c50e9c1127f2cd403a315f,0,96,96,70,1,fourtwo,,,,,,,,,,,,,,,,,,,,,,,,,,,,,,,,,,,,,,,,,,,,,,,,,,,,,,,,,,,,,,,,,,,,,,,,,,,,,,,,,,,,,,,,,,,,,,,,,,,,,,,,,,,,,,,,,,,,,,,,,,,,,,,,,,,,,,,,,,,,,,,,,,,,,,,,,,,,,
,,,,,,5f52b69cd864aa5b51e1fc63,62c53a2f808438d282f10f07,2022-07-06_02h32.35.254,Colour_Asymmetry_Pilot,2022.1.3,Win32,59.99520038,62c50e9c1127f2cd403a315f,0,97,97,24,1,onetwo,,,,,,,,,,,,,,,,,,,,,,,,,,,,,,,,,,,,,,,,,,,,,,,,,,,,,,,,,,,,,,,,,,,,,,,,,,,,,,,,,,,,,,,,,,,,,,,,,,,,,,,,,,,,,,,,,,,,,,,,,,,,,,,,,,,,,,,,,,,,,,,,,,,,,,,,,,,,,
,,,,,,5f52b69cd864aa5b51e1fc63,62c53a2f808438d282f10f07,2022-07-06_02h32.35.254,Colour_Asymmetry_Pilot,2022.1.3,Win32,59.99520038,62c50e9c1127f2cd403a315f,0,98,98,100,1,threeone,,,,,,,,,,,,,,,,,,,,,,,,,,,,,,,,,,,,,,,,,,,,,,,,,,,,,,,,,,,,,,,,,,,,,,,,,,,,,,,,,,,,,,,,,,,,,,,,,,,,,,,,,,,,,,,,,,,,,,,,,,,,,,,,,,,,,,,,,,,,,,,,,,,,,,,,,,,,,
,,,,,,5f52b69cd864aa5b51e1fc63,62c53a2f808438d282f10f07,2022-07-06_02h32.35.254,Colour_Asymmetry_Pilot,2022.1.3,Win32,59.99520038,62c50e9c1127f2cd403a315f,0,99,99,55,1,fourthree,,,,,,,,,,,,,,,,,,,,,,,,,,,,,,,,,,,,,,,,,,,,,,,,,,,,,,,,,,,,,,,,,,,,,,,,,,,,,,,,,,,,,,,,,,,,,,,,,,,,,,,,,,,,,,,,,,,,,,,,,,,,,,,,,,,,,,,,,,,,,,,,,,,,,,,,,,,,,
,,,,,,5f52b69cd864aa5b51e1fc63,62c53a2f808438d282f10f07,2022-07-06_02h32.35.254,Colour_Asymmetry_Pilot,2022.1.3,Win32,59.99520038,62c50e9c1127f2cd403a315f,0,100,100,101,1,threefour,,,,,,,,,,,,,,,,,,,,,,,,,,,,,,,,,,,,,,,,,,,,,,,,,,,,,,,,,,,,,,,,,,,,,,,,,,,,,,,,,,,,,,,,,,,,,,,,,,,,,,,,,,,,,,,,,,,,,,,,,,,,,,,,,,,,,,,,,,,,,,,,,,,,,,,,,,,,,
,,,,,,5f52b69cd864aa5b51e1fc63,62c53a2f808438d282f10f07,2022-07-06_02h32.35.254,Colour_Asymmetry_Pilot,2022.1.3,Win32,59.99520038,62c50e9c1127f2cd403a315f,0,101,101,134,1,fourtwo,,,,,,,,,,,,,,,,,,,,,,,,,,,,,,,,,,,,,,,,,,,,,,,,,,,,,,,,,,,,,,,,,,,,,,,,,,,,,,,,,,,,,,,,,,,,,,,,,,,,,,,,,,,,,,,,,,,,,,,,,,,,,,,,,,,,,,,,,,,,,,,,,,,,,,,,,,,,,
,,,,,,5f52b69cd864aa5b51e1fc63,62c53a2f808438d282f10f07,2022-07-06_02h32.35.254,Colour_Asymmetry_Pilot,2022.1.3,Win32,59.99520038,62c50e9c1127f2cd403a315f,0,102,102,67,1,twofour,,,,,,,,,,,,,,,,,,,,,,,,,,,,,,,,,,,,,,,,,,,,,,,,,,,,,,,,,,,,,,,,,,,,,,,,,,,,,,,,,,,,,,,,,,,,,,,,,,,,,,,,,,,,,,,,,,,,,,,,,,,,,,,,,,,,,,,,,,,,,,,,,,,,,,,,,,,,,
,,,,,,5f52b69cd864aa5b51e1fc63,62c53a2f808438d282f10f07,2022-07-06_02h32.35.254,Colour_Asymmetry_Pilot,2022.1.3,Win32,59.99520038,62c50e9c1127f2cd403a315f,0,103,103,15,1,fourthree,,,,,,,,,,,,,,,,,,,,,,,,,,,,,,,,,,,,,,,,,,,,,,,,,,,,,,,,,,,,,,,,,,,,,,,,,,,,,,,,,,,,,,,,,,,,,,,,,,,,,,,,,,,,,,,,,,,,,,,,,,,,,,,,,,,,,,,,,,,,,,,,,,,,,,,,,,,,,
,,,,,,5f52b69cd864aa5b51e1fc63,62c53a2f808438d282f10f07,2022-07-06_02h32.35.254,Colour_Asymmetry_Pilot,2022.1.3,Win32,59.99520038,62c50e9c1127f2cd403a315f,0,104,104,95,1,fourthree,,,,,,,,,,,,,,,,,,,,,,,,,,,,,,,,,,,,,,,,,,,,,,,,,,,,,,,,,,,,,,,,,,,,,,,,,,,,,,,,,,,,,,,,,,,,,,,,,,,,,,,,,,,,,,,,,,,,,,,,,,,,,,,,,,,,,,,,,,,,,,,,,,,,,,,,,,,,,
,,,,,,5f52b69cd864aa5b51e1fc63,62c53a2f808438d282f10f07,2022-07-06_02h32.35.254,Colour_Asymmetry_Pilot,2022.1.3,Win32,59.99520038,62c50e9c1127f2cd403a315f,0,105,105,148,1,threeone,,,,,,,,,,,,,,,,,,,,,,,,,,,,,,,,,,,,,,,,,,,,,,,,,,,,,,,,,,,,,,,,,,,,,,,,,,,,,,,,,,,,,,,,,,,,,,,,,,,,,,,,,,,,,,,,,,,,,,,,,,,,,,,,,,,,,,,,,,,,,,,,,,,,,,,,,,,,,
,,,,,,5f52b69cd864aa5b51e1fc63,62c53a2f808438d282f10f07,2022-07-06_02h32.35.254,Colour_Asymmetry_Pilot,2022.1.3,Win32,59.99520038,62c50e9c1127f2cd403a315f,0,106,106,61,1,threefour,,,,,,,,,,,,,,,,,,,,,,,,,,,,,,,,,,,,,,,,,,,,,,,,,,,,,,,,,,,,,,,,,,,,,,,,,,,,,,,,,,,,,,,,,,,,,,,,,,,,,,,,,,,,,,,,,,,,,,,,,,,,,,,,,,,,,,,,,,,,,,,,,,,,,,,,,,,,,
,,,,,,5f52b69cd864aa5b51e1fc63,62c53a2f808438d282f10f07,2022-07-06_02h32.35.254,Colour_Asymmetry_Pilot,2022.1.3,Win32,59.99520038,62c50e9c1127f2cd403a315f,0,107,107,138,1,twoone,,,,,,,,,,,,,,,,,,,,,,,,,,,,,,,,,,,,,,,,,,,,,,,,,,,,,,,,,,,,,,,,,,,,,,,,,,,,,,,,,,,,,,,,,,,,,,,,,,,,,,,,,,,,,,,,,,,,,,,,,,,,,,,,,,,,,,,,,,,,,,,,,,,,,,,,,,,,,
,,,,,,5f52b69cd864aa5b51e1fc63,62c53a2f808438d282f10f07,2022-07-06_02h32.35.254,Colour_Asymmetry_Pilot,2022.1.3,Win32,59.99520038,62c50e9c1127f2cd403a315f,0,108,108,152,1,onetwo,,,,,,,,,,,,,,,,,,,,,,,,,,,,,,,,,,,,,,,,,,,,,,,,,,,,,,,,,,,,,,,,,,,,,,,,,,,,,,,,,,,,,,,,,,,,,,,,,,,,,,,,,,,,,,,,,,,,,,,,,,,,,,,,,,,,,,,,,,,,,,,,,,,,,,,,,,,,,
,,,,,,5f52b69cd864aa5b51e1fc63,62c53a2f808438d282f10f07,2022-07-06_02h32.35.254,Colour_Asymmetry_Pilot,2022.1.3,Win32,59.99520038,62c50e9c1127f2cd403a315f,0,109,109,65,1,onethree,,,,,,,,,,,,,,,,,,,,,,,,,,,,,,,,,,,,,,,,,,,,,,,,,,,,,,,,,,,,,,,,,,,,,,,,,,,,,,,,,,,,,,,,,,,,,,,,,,,,,,,,,,,,,,,,,,,,,,,,,,,,,,,,,,,,,,,,,,,,,,,,,,,,,,,,,,,,,
,,,,,,5f52b69cd864aa5b51e1fc63,62c53a2f808438d282f10f07,2022-07-06_02h32.35.254,Colour_Asymmetry_Pilot,2022.1.3,Win32,59.99520038,62c50e9c1127f2cd403a315f,0,110,110,151,1,fourthree,,,,,,,,,,,,,,,,,,,,,,,,,,,,,,,,,,,,,,,,,,,,,,,,,,,,,,,,,,,,,,,,,,,,,,,,,,,,,,,,,,,,,,,,,,,,,,,,,,,,,,,,,,,,,,,,,,,,,,,,,,,,,,,,,,,,,,,,,,,,,,,,,,,,,,,,,,,,,
,,,,,,5f52b69cd864aa5b51e1fc63,62c53a2f808438d282f10f07,2022-07-06_02h32.35.254,Colour_Asymmetry_Pilot,2022.1.3,Win32,59.99520038,62c50e9c1127f2cd403a315f,0,111,111,45,1,threefour,,,,,,,,,,,,,,,,,,,,,,,,,,,,,,,,,,,,,,,,,,,,,,,,,,,,,,,,,,,,,,,,,,,,,,,,,,,,,,,,,,,,,,,,,,,,,,,,,,,,,,,,,,,,,,,,,,,,,,,,,,,,,,,,,,,,,,,,,,,,,,,,,,,,,,,,,,,,,
,,,,,,5f52b69cd864aa5b51e1fc63,62c53a2f808438d282f10f07,2022-07-06_02h32.35.254,Colour_Asymmetry_Pilot,2022.1.3,Win32,59.99520038,62c50e9c1127f2cd403a315f,0,112,112,135,1,fourthree,,,,,,,,,,,,,,,,,,,,,,,,,,,,,,,,,,,,,,,,,,,,,,,,,,,,,,,,,,,,,,,,,,,,,,,,,,,,,,,,,,,,,,,,,,,,,,,,,,,,,,,,,,,,,,,,,,,,,,,,,,,,,,,,,,,,,,,,,,,,,,,,,,,,,,,,,,,,,
,,,,,,5f52b69cd864aa5b51e1fc63,62c53a2f808438d282f10f07,2022-07-06_02h32.35.254,Colour_Asymmetry_Pilot,2022.1.3,Win32,59.99520038,62c50e9c1127f2cd403a315f,0,113,113,21,1,threefour,,,,,,,,,,,,,,,,,,,,,,,,,,,,,,,,,,,,,,,,,,,,,,,,,,,,,,,,,,,,,,,,,,,,,,,,,,,,,,,,,,,,,,,,,,,,,,,,,,,,,,,,,,,,,,,,,,,,,,,,,,,,,,,,,,,,,,,,,,,,,,,,,,,,,,,,,,,,,
,,,,,,5f52b69cd864aa5b51e1fc63,62c53a2f808438d282f10f07,2022-07-06_02h32.35.254,Colour_Asymmetry_Pilot,2022.1.3,Win32,59.99520038,62c50e9c1127f2cd403a315f,0,114,114,139,1,twofour,,,,,,,,,,,,,,,,,,,,,,,,,,,,,,,,,,,,,,,,,,,,,,,,,,,,,,,,,,,,,,,,,,,,,,,,,,,,,,,,,,,,,,,,,,,,,,,,,,,,,,,,,,,,,,,,,,,,,,,,,,,,,,,,,,,,,,,,,,,,,,,,,,,,,,,,,,,,,
,,,,,,5f52b69cd864aa5b51e1fc63,62c53a2f808438d282f10f07,2022-07-06_02h32.35.254,Colour_Asymmetry_Pilot,2022.1.3,Win32,59.99520038,62c50e9c1127f2cd403a315f,0,115,115,54,1,fourtwo,,,,,,,,,,,,,,,,,,,,,,,,,,,,,,,,,,,,,,,,,,,,,,,,,,,,,,,,,,,,,,,,,,,,,,,,,,,,,,,,,,,,,,,,,,,,,,,,,,,,,,,,,,,,,,,,,,,,,,,,,,,,,,,,,,,,,,,,,,,,,,,,,,,,,,,,,,,,,
,,,,,,5f52b69cd864aa5b51e1fc63,62c53a2f808438d282f10f07,2022-07-06_02h32.35.254,Colour_Asymmetry_Pilot,2022.1.3,Win32,59.99520038,62c50e9c1127f2cd403a315f,0,116,116,26,1,twoone,,,,,,,,,,,,,,,,,,,,,,,,,,,,,,,,,,,,,,,,,,,,,,,,,,,,,,,,,,,,,,,,,,,,,,,,,,,,,,,,,,,,,,,,,,,,,,,,,,,,,,,,,,,,,,,,,,,,,,,,,,,,,,,,,,,,,,,,,,,,,,,,,,,,,,,,,,,,,
,,,,,,5f52b69cd864aa5b51e1fc63,62c53a2f808438d282f10f07,2022-07-06_02h32.35.254,Colour_Asymmetry_Pilot,2022.1.3,Win32,59.99520038,62c50e9c1127f2cd403a315f,0,117,117,33,1,onethree,,,,,,,,,,,,,,,,,,,,,,,,,,,,,,,,,,,,,,,,,,,,,,,,,,,,,,,,,,,,,,,,,,,,,,,,,,,,,,,,,,,,,,,,,,,,,,,,,,,,,,,,,,,,,,,,,,,,,,,,,,,,,,,,,,,,,,,,,,,,,,,,,,,,,,,,,,,,,
,,,,,,5f52b69cd864aa5b51e1fc63,62c53a2f808438d282f10f07,2022-07-06_02h32.35.254,Colour_Asymmetry_Pilot,2022.1.3,Win32,59.99520038,62c50e9c1127f2cd403a315f,0,118,118,88,1,onetwo,,,,,,,,,,,,,,,,,,,,,,,,,,,,,,,,,,,,,,,,,,,,,,,,,,,,,,,,,,,,,,,,,,,,,,,,,,,,,,,,,,,,,,,,,,,,,,,,,,,,,,,,,,,,,,,,,,,,,,,,,,,,,,,,,,,,,,,,,,,,,,,,,,,,,,,,,,,,,
,,,,,,5f52b69cd864aa5b51e1fc63,62c53a2f808438d282f10f07,2022-07-06_02h32.35.254,Colour_Asymmetry_Pilot,2022.1.3,Win32,59.99520038,62c50e9c1127f2cd403a315f,0,119,119,110,1,fourtwo,,,,,,,,,,,,,,,,,,,,,,,,,,,,,,,,,,,,,,,,,,,,,,,,,,,,,,,,,,,,,,,,,,,,,,,,,,,,,,,,,,,,,,,,,,,,,,,,,,,,,,,,,,,,,,,,,,,,,,,,,,,,,,,,,,,,,,,,,,,,,,,,,,,,,,,,,,,,,
,,,,,,5f52b69cd864aa5b51e1fc63,62c53a2f808438d282f10f07,2022-07-06_02h32.35.254,Colour_Asymmetry_Pilot,2022.1.3,Win32,59.99520038,62c50e9c1127f2cd403a315f,0,120,120,19,1,twofour,,,,,,,,,,,,,,,,,,,,,,,,,,,,,,,,,,,,,,,,,,,,,,,,,,,,,,,,,,,,,,,,,,,,,,,,,,,,,,,,,,,,,,,,,,,,,,,,,,,,,,,,,,,,,,,,,,,,,,,,,,,,,,,,,,,,,,,,,,,,,,,,,,,,,,,,,,,,,
,,,,,,5f52b69cd864aa5b51e1fc63,62c53a2f808438d282f10f07,2022-07-06_02h32.35.254,Colour_Asymmetry_Pilot,2022.1.3,Win32,59.99520038,62c50e9c1127f2cd403a315f,0,121,121,40,1,onetwo,,,,,,,,,,,,,,,,,,,,,,,,,,,,,,,,,,,,,,,,,,,,,,,,,,,,,,,,,,,,,,,,,,,,,,,,,,,,,,,,,,,,,,,,,,,,,,,,,,,,,,,,,,,,,,,,,,,,,,,,,,,,,,,,,,,,,,,,,,,,,,,,,,,,,,,,,,,,,
,,,,,,5f52b69cd864aa5b51e1fc63,62c53a2f808438d282f10f07,2022-07-06_02h32.35.254,Colour_Asymmetry_Pilot,2022.1.3,Win32,59.99520038,62c50e9c1127f2cd403a315f,0,122,122,82,1,twoone,,,,,,,,,,,,,,,,,,,,,,,,,,,,,,,,,,,,,,,,,,,,,,,,,,,,,,,,,,,,,,,,,,,,,,,,,,,,,,,,,,,,,,,,,,,,,,,,,,,,,,,,,,,,,,,,,,,,,,,,,,,,,,,,,,,,,,,,,,,,,,,,,,,,,,,,,,,,,
,,,,,,5f52b69cd864aa5b51e1fc63,62c53a2f808438d282f10f07,2022-07-06_02h32.35.254,Colour_Asymmetry_Pilot,2022.1.3,Win32,59.99520038,62c50e9c1127f2cd403a315f,0,123,123,28,1,threeone,,,,,,,,,,,,,,,,,,,,,,,,,,,,,,,,,,,,,,,,,,,,,,,,,,,,,,,,,,,,,,,,,,,,,,,,,,,,,,,,,,,,,,,,,,,,,,,,,,,,,,,,,,,,,,,,,,,,,,,,,,,,,,,,,,,,,,,,,,,,,,,,,,,,,,,,,,,,,
,,,,,,5f52b69cd864aa5b51e1fc63,62c53a2f808438d282f10f07,2022-07-06_02h32.35.254,Colour_Asymmetry_Pilot,2022.1.3,Win32,59.99520038,62c50e9c1127f2cd403a315f,0,124,124,105,1,onethree,,,,,,,,,,,,,,,,,,,,,,,,,,,,,,,,,,,,,,,,,,,,,,,,,,,,,,,,,,,,,,,,,,,,,,,,,,,,,,,,,,,,,,,,,,,,,,,,,,,,,,,,,,,,,,,,,,,,,,,,,,,,,,,,,,,,,,,,,,,,,,,,,,,,,,,,,,,,,
,,,,,,5f52b69cd864aa5b51e1fc63,62c53a2f808438d282f10f07,2022-07-06_02h32.35.254,Colour_Asymmetry_Pilot,2022.1.3,Win32,59.99520038,62c50e9c1127f2cd403a315f,0,125,125,56,1,onetwo,,,,,,,,,,,,,,,,,,,,,,,,,,,,,,,,,,,,,,,,,,,,,,,,,,,,,,,,,,,,,,,,,,,,,,,,,,,,,,,,,,,,,,,,,,,,,,,,,,,,,,,,,,,,,,,,,,,,,,,,,,,,,,,,,,,,,,,,,,,,,,,,,,,,,,,,,,,,,
,,,,,,5f52b69cd864aa5b51e1fc63,62c53a2f808438d282f10f07,2022-07-06_02h32.35.254,Colour_Asymmetry_Pilot,2022.1.3,Win32,59.99520038,62c50e9c1127f2cd403a315f,0,126,126,145,1,onethree,,,,,,,,,,,,,,,,,,,,,,,,,,,,,,,,,,,,,,,,,,,,,,,,,,,,,,,,,,,,,,,,,,,,,,,,,,,,,,,,,,,,,,,,,,,,,,,,,,,,,,,,,,,,,,,,,,,,,,,,,,,,,,,,,,,,,,,,,,,,,,,,,,,,,,,,,,,,,
,,,,,,5f52b69cd864aa5b51e1fc63,62c53a2f808438d282f10f07,2022-07-06_02h32.35.254,Colour_Asymmetry_Pilot,2022.1.3,Win32,59.99520038,62c50e9c1127f2cd403a315f,0,127,127,51,1,twofour,,,,,,,,,,,,,,,,,,,,,,,,,,,,,,,,,,,,,,,,,,,,,,,,,,,,,,,,,,,,,,,,,,,,,,,,,,,,,,,,,,,,,,,,,,,,,,,,,,,,,,,,,,,,,,,,,,,,,,,,,,,,,,,,,,,,,,,,,,,,,,,,,,,,,,,,,,,,,
,,,,,,5f52b69cd864aa5b51e1fc63,62c53a2f808438d282f10f07,2022-07-06_02h32.35.254,Colour_Asymmetry_Pilot,2022.1.3,Win32,59.99520038,62c50e9c1127f2cd403a315f,0,128,128,25,1,onethree,,,,,,,,,,,,,,,,,,,,,,,,,,,,,,,,,,,,,,,,,,,,,,,,,,,,,,,,,,,,,,,,,,,,,,,,,,,,,,,,,,,,,,,,,,,,,,,,,,,,,,,,,,,,,,,,,,,,,,,,,,,,,,,,,,,,,,,,,,,,,,,,,,,,,,,,,,,,,
,,,,,,5f52b69cd864aa5b51e1fc63,62c53a2f808438d282f10f07,2022-07-06_02h32.35.254,Colour_Asymmetry_Pilot,2022.1.3,Win32,59.99520038,62c50e9c1127f2cd403a315f,0,129,129,85,1,threefour,,,,,,,,,,,,,,,,,,,,,,,,,,,,,,,,,,,,,,,,,,,,,,,,,,,,,,,,,,,,,,,,,,,,,,,,,,,,,,,,,,,,,,,,,,,,,,,,,,,,,,,,,,,,,,,,,,,,,,,,,,,,,,,,,,,,,,,,,,,,,,,,,,,,,,,,,,,,,
,,,,,,5f52b69cd864aa5b51e1fc63,62c53a2f808438d282f10f07,2022-07-06_02h32.35.254,Colour_Asymmetry_Pilot,2022.1.3,Win32,59.99520038,62c50e9c1127f2cd403a315f,0,130,130,7,1,fourthree,,,,,,,,,,,,,,,,,,,,,,,,,,,,,,,,,,,,,,,,,,,,,,,,,,,,,,,,,,,,,,,,,,,,,,,,,,,,,,,,,,,,,,,,,,,,,,,,,,,,,,,,,,,,,,,,,,,,,,,,,,,,,,,,,,,,,,,,,,,,,,,,,,,,,,,,,,,,,
,,,,,,5f52b69cd864aa5b51e1fc63,62c53a2f808438d282f10f07,2022-07-06_02h32.35.254,Colour_Asymmetry_Pilot,2022.1.3,Win32,59.99520038,62c50e9c1127f2cd403a315f,0,131,131,161,1,onethree,,,,,,,,,,,,,,,,,,,,,,,,,,,,,,,,,,,,,,,,,,,,,,,,,,,,,,,,,,,,,,,,,,,,,,,,,,,,,,,,,,,,,,,,,,,,,,,,,,,,,,,,,,,,,,,,,,,,,,,,,,,,,,,,,,,,,,,,,,,,,,,,,,,,,,,,,,,,,
,,,,,,5f52b69cd864aa5b51e1fc63,62c53a2f808438d282f10f07,2022-07-06_02h32.35.254,Colour_Asymmetry_Pilot,2022.1.3,Win32,59.99520038,62c50e9c1127f2cd403a315f,0,132,132,76,1,threeone,,,,,,,,,,,,,,,,,,,,,,,,,,,,,,,,,,,,,,,,,,,,,,,,,,,,,,,,,,,,,,,,,,,,,,,,,,,,,,,,,,,,,,,,,,,,,,,,,,,,,,,,,,,,,,,,,,,,,,,,,,,,,,,,,,,,,,,,,,,,,,,,,,,,,,,,,,,,,
,,,,,,5f52b69cd864aa5b51e1fc63,62c53a2f808438d282f10f07,2022-07-06_02h32.35.254,Colour_Asymmetry_Pilot,2022.1.3,Win32,59.99520038,62c50e9c1127f2cd403a315f,0,133,133,142,1,fourtwo,,,,,,,,,,,,,,,,,,,,,,,,,,,,,,,,,,,,,,,,,,,,,,,,,,,,,,,,,,,,,,,,,,,,,,,,,,,,,,,,,,,,,,,,,,,,,,,,,,,,,,,,,,,,,,,,,,,,,,,,,,,,,,,,,,,,,,,,,,,,,,,,,,,,,,,,,,,,,
,,,,,,5f52b69cd864aa5b51e1fc63,62c53a2f808438d282f10f07,2022-07-06_02h32.35.254,Colour_Asymmetry_Pilot,2022.1.3,Win32,59.99520038,62c50e9c1127f2cd403a315f,0,134,134,83,1,twofour,,,,,,,,,,,,,,,,,,,,,,,,,,,,,,,,,,,,,,,,,,,,,,,,,,,,,,,,,,,,,,,,,,,,,,,,,,,,,,,,,,,,,,,,,,,,,,,,,,,,,,,,,,,,,,,,,,,,,,,,,,,,,,,,,,,,,,,,,,,,,,,,,,,,,,,,,,,,,
,,,,,,5f52b69cd864aa5b51e1fc63,62c53a2f808438d282f10f07,2022-07-06_02h32.35.254,Colour_Asymmetry_Pilot,2022.1.3,Win32,59.99520038,62c50e9c1127f2cd403a315f,0,135,135,131,1,twofour,,,,,,,,,,,,,,,,,,,,,,,,,,,,,,,,,,,,,,,,,,,,,,,,,,,,,,,,,,,,,,,,,,,,,,,,,,,,,,,,,,,,,,,,,,,,,,,,,,,,,,,,,,,,,,,,,,,,,,,,,,,,,,,,,,,,,,,,,,,,,,,,,,,,,,,,,,,,,
,,,,,,5f52b69cd864aa5b51e1fc63,62c53a2f808438d282f10f07,2022-07-06_02h32.35.254,Colour_Asymmetry_Pilot,2022.1.3,Win32,59.99520038,62c50e9c1127f2cd403a315f,0,136,136,57,1,onethree,,,,,,,,,,,,,,,,,,,,,,,,,,,,,,,,,,,,,,,,,,,,,,,,,,,,,,,,,,,,,,,,,,,,,,,,,,,,,,,,,,,,,,,,,,,,,,,,,,,,,,,,,,,,,,,,,,,,,,,,,,,,,,,,,,,,,,,,,,,,,,,,,,,,,,,,,,,,,
,,,,,,5f52b69cd864aa5b51e1fc63,62c53a2f808438d282f10f07,2022-07-06_02h32.35.254,Colour_Asymmetry_Pilot,2022.1.3,Win32,59.99520038,62c50e9c1127f2cd403a315f,0,137,137,119,1,fourthree,,,,,,,,,,,,,,,,,,,,,,,,,,,,,,,,,,,,,,,,,,,,,,,,,,,,,,,,,,,,,,,,,,,,,,,,,,,,,,,,,,,,,,,,,,,,,,,,,,,,,,,,,,,,,,,,,,,,,,,,,,,,,,,,,,,,,,,,,,,,,,,,,,,,,,,,,,,,,
,,,,,,5f52b69cd864aa5b51e1fc63,62c53a2f808438d282f10f07,2022-07-06_02h32.35.254,Colour_Asymmetry_Pilot,2022.1.3,Win32,59.99520038,62c50e9c1127f2cd403a315f,0,138,138,53,1,threefour,,,,,,,,,,,,,,,,,,,,,,,,,,,,,,,,,,,,,,,,,,,,,,,,,,,,,,,,,,,,,,,,,,,,,,,,,,,,,,,,,,,,,,,,,,,,,,,,,,,,,,,,,,,,,,,,,,,,,,,,,,,,,,,,,,,,,,,,,,,,,,,,,,,,,,,,,,,,,
,,,,,,5f52b69cd864aa5b51e1fc63,62c53a2f808438d282f10f07,2022-07-06_02h32.35.254,Colour_Asymmetry_Pilot,2022.1.3,Win32,59.99520038,62c50e9c1127f2cd403a315f,0,139,139,49,1,onethree,,,,,,,,,,,,,,,,,,,,,,,,,,,,,,,,,,,,,,,,,,,,,,,,,,,,,,,,,,,,,,,,,,,,,,,,,,,,,,,,,,,,,,,,,,,,,,,,,,,,,,,,,,,,,,,,,,,,,,,,,,,,,,,,,,,,,,,,,,,,,,,,,,,,,,,,,,,,,
,,,,,,5f52b69cd864aa5b51e1fc63,62c53a2f808438d282f10f07,2022-07-06_02h32.35.254,Colour_Asymmetry_Pilot,2022.1.3,Win32,59.99520038,62c50e9c1127f2cd403a315f,0,140,140,116,1,threeone,,,,,,,,,,,,,,,,,,,,,,,,,,,,,,,,,,,,,,,,,,,,,,,,,,,,,,,,,,,,,,,,,,,,,,,,,,,,,,,,,,,,,,,,,,,,,,,,,,,,,,,,,,,,,,,,,,,,,,,,,,,,,,,,,,,,,,,,,,,,,,,,,,,,,,,,,,,,,
,,,,,,5f52b69cd864aa5b51e1fc63,62c53a2f808438d282f10f07,2022-07-06_02h32.35.254,Colour_Asymmetry_Pilot,2022.1.3,Win32,59.99520038,62c50e9c1127f2cd403a315f,0,141,141,16,1,onetwo,,,,,,,,,,,,,,,,,,,,,,,,,,,,,,,,,,,,,,,,,,,,,,,,,,,,,,,,,,,,,,,,,,,,,,,,,,,,,,,,,,,,,,,,,,,,,,,,,,,,,,,,,,,,,,,,,,,,,,,,,,,,,,,,,,,,,,,,,,,,,,,,,,,,,,,,,,,,,
,,,,,,5f52b69cd864aa5b51e1fc63,62c53a2f808438d282f10f07,2022-07-06_02h32.35.254,Colour_Asymmetry_Pilot,2022.1.3,Win32,59.99520038,62c50e9c1127f2cd403a315f,0,142,142,154,1,twoone,,,,,,,,,,,,,,,,,,,,,,,,,,,,,,,,,,,,,,,,,,,,,,,,,,,,,,,,,,,,,,,,,,,,,,,,,,,,,,,,,,,,,,,,,,,,,,,,,,,,,,,,,,,,,,,,,,,,,,,,,,,,,,,,,,,,,,,,,,,,,,,,,,,,,,,,,,,,,
,,,,,,5f52b69cd864aa5b51e1fc63,62c53a2f808438d282f10f07,2022-07-06_02h32.35.254,Colour_Asymmetry_Pilot,2022.1.3,Win32,59.99520038,62c50e9c1127f2cd403a315f,0,143,143,126,1,fourtwo,,,,,,,,,,,,,,,,,,,,,,,,,,,,,,,,,,,,,,,,,,,,,,,,,,,,,,,,,,,,,,,,,,,,,,,,,,,,,,,,,,,,,,,,,,,,,,,,,,,,,,,,,,,,,,,,,,,,,,,,,,,,,,,,,,,,,,,,,,,,,,,,,,,,,,,,,,,,,
,,,,,,5f52b69cd864aa5b51e1fc63,62c53a2f808438d282f10f07,2022-07-06_02h32.35.254,Colour_Asymmetry_Pilot,2022.1.3,Win32,59.99520038,62c50e9c1127f2cd403a315f,0,144,144,64,1,onetwo,,,,,,,,,,,,,,,,,,,,,,,,,,,,,,,,,,,,,,,,,,,,,,,,,,,,,,,,,,,,,,,,,,,,,,,,,,,,,,,,,,,,,,,,,,,,,,,,,,,,,,,,,,,,,,,,,,,,,,,,,,,,,,,,,,,,,,,,,,,,,,,,,,,,,,,,,,,,,
,,,,,,5f52b69cd864aa5b51e1fc63,62c53a2f808438d282f10f07,2022-07-06_02h32.35.254,Colour_Asymmetry_Pilot,2022.1.3,Win32,59.99520038,62c50e9c1127f2cd403a315f,0,145,145,78,1,fourtwo,,,,,,,,,,,,,,,,,,,,,,,,,,,,,,,,,,,,,,,,,,,,,,,,,,,,,,,,,,,,,,,,,,,,,,,,,,,,,,,,,,,,,,,,,,,,,,,,,,,,,,,,,,,,,,,,,,,,,,,,,,,,,,,,,,,,,,,,,,,,,,,,,,,,,,,,,,,,,
,,,,,,5f52b69cd864aa5b51e1fc63,62c53a2f808438d282f10f07,2022-07-06_02h32.35.254,Colour_Asymmetry_Pilot,2022.1.3,Win32,59.99520038,62c50e9c1127f2cd403a315f,0,146,146,63,1,fourthree,,,,,,,,,,,,,,,,,,,,,,,,,,,,,,,,,,,,,,,,,,,,,,,,,,,,,,,,,,,,,,,,,,,,,,,,,,,,,,,,,,,,,,,,,,,,,,,,,,,,,,,,,,,,,,,,,,,,,,,,,,,,,,,,,,,,,,,,,,,,,,,,,,,,,,,,,,,,,
,,,,,,5f52b69cd864aa5b51e1fc63,62c53a2f808438d282f10f07,2022-07-06_02h32.35.254,Colour_Asymmetry_Pilot,2022.1.3,Win32,59.99520038,62c50e9c1127f2cd403a315f,0,147,147,81,1,onethree,,,,,,,,,,,,,,,,,,,,,,,,,,,,,,,,,,,,,,,,,,,,,,,,,,,,,,,,,,,,,,,,,,,,,,,,,,,,,,,,,,,,,,,,,,,,,,,,,,,,,,,,,,,,,,,,,,,,,,,,,,,,,,,,,,,,,,,,,,,,,,,,,,,,,,,,,,,,,
,,,,,,5f52b69cd864aa5b51e1fc63,62c53a2f808438d282f10f07,2022-07-06_02h32.35.254,Colour_Asymmetry_Pilot,2022.1.3,Win32,59.99520038,62c50e9c1127f2cd403a315f,0,148,148,128,1,onetwo,,,,,,,,,,,,,,,,,,,,,,,,,,,,,,,,,,,,,,,,,,,,,,,,,,,,,,,,,,,,,,,,,,,,,,,,,,,,,,,,,,,,,,,,,,,,,,,,,,,,,,,,,,,,,,,,,,,,,,,,,,,,,,,,,,,,,,,,,,,,,,,,,,,,,,,,,,,,,
,,,,,,5f52b69cd864aa5b51e1fc63,62c53a2f808438d282f10f07,2022-07-06_02h32.35.254,Colour_Asymmetry_Pilot,2022.1.3,Win32,59.99520038,62c50e9c1127f2cd403a315f,0,149,149,46,1,fourtwo,,,,,,,,,,,,,,,,,,,,,,,,,,,,,,,,,,,,,,,,,,,,,,,,,,,,,,,,,,,,,,,,,,,,,,,,,,,,,,,,,,,,,,,,,,,,,,,,,,,,,,,,,,,,,,,,,,,,,,,,,,,,,,,,,,,,,,,,,,,,,,,,,,,,,,,,,,,,,
,,,,,,5f52b69cd864aa5b51e1fc63,62c53a2f808438d282f10f07,2022-07-06_02h32.35.254,Colour_Asymmetry_Pilot,2022.1.3,Win32,59.99520038,62c50e9c1127f2cd403a315f,0,150,150,87,1,fourthree,,,,,,,,,,,,,,,,,,,,,,,,,,,,,,,,,,,,,,,,,,,,,,,,,,,,,,,,,,,,,,,,,,,,,,,,,,,,,,,,,,,,,,,,,,,,,,,,,,,,,,,,,,,,,,,,,,,,,,,,,,,,,,,,,,,,,,,,,,,,,,,,,,,,,,,,,,,,,
,,,,,,5f52b69cd864aa5b51e1fc63,62c53a2f808438d282f10f07,2022-07-06_02h32.35.254,Colour_Asymmetry_Pilot,2022.1.3,Win32,59.99520038,62c50e9c1127f2cd403a315f,0,151,151,72,1,onetwo,,,,,,,,,,,,,,,,,,,,,,,,,,,,,,,,,,,,,,,,,,,,,,,,,,,,,,,,,,,,,,,,,,,,,,,,,,,,,,,,,,,,,,,,,,,,,,,,,,,,,,,,,,,,,,,,,,,,,,,,,,,,,,,,,,,,,,,,,,,,,,,,,,,,,,,,,,,,,
,,,,,,5f52b69cd864aa5b51e1fc63,62c53a2f808438d282f10f07,2022-07-06_02h32.35.254,Colour_Asymmetry_Pilot,2022.1.3,Win32,59.99520038,62c50e9c1127f2cd403a315f,0,152,152,133,1,threefour,,,,,,,,,,,,,,,,,,,,,,,,,,,,,,,,,,,,,,,,,,,,,,,,,,,,,,,,,,,,,,,,,,,,,,,,,,,,,,,,,,,,,,,,,,,,,,,,,,,,,,,,,,,,,,,,,,,,,,,,,,,,,,,,,,,,,,,,,,,,,,,,,,,,,,,,,,,,,
,,,,,,5f52b69cd864aa5b51e1fc63,62c53a2f808438d282f10f07,2022-07-06_02h32.35.254,Colour_Asymmetry_Pilot,2022.1.3,Win32,59.99520038,62c50e9c1127f2cd403a315f,0,153,153,17,1,onethree,,,,,,,,,,,,,,,,,,,,,,,,,,,,,,,,,,,,,,,,,,,,,,,,,,,,,,,,,,,,,,,,,,,,,,,,,,,,,,,,,,,,,,,,,,,,,,,,,,,,,,,,,,,,,,,,,,,,,,,,,,,,,,,,,,,,,,,,,,,,,,,,,,,,,,,,,,,,,
,,,,,,5f52b69cd864aa5b51e1fc63,62c53a2f808438d282f10f07,2022-07-06_02h32.35.254,Colour_Asymmetry_Pilot,2022.1.3,Win32,59.99520038,62c50e9c1127f2cd403a315f,0,154,154,107,1,twofour,,,,,,,,,,,,,,,,,,,,,,,,,,,,,,,,,,,,,,,,,,,,,,,,,,,,,,,,,,,,,,,,,,,,,,,,,,,,,,,,,,,,,,,,,,,,,,,,,,,,,,,,,,,,,,,,,,,,,,,,,,,,,,,,,,,,,,,,,,,,,,,,,,,,,,,,,,,,,
,,,,,,5f52b69cd864aa5b51e1fc63,62c53a2f808438d282f10f07,2022-07-06_02h32.35.254,Colour_Asymmetry_Pilot,2022.1.3,Win32,59.99520038,62c50e9c1127f2cd403a315f,0,155,155,93,1,threefour,,,,,,,,,,,,,,,,,,,,,,,,,,,,,,,,,,,,,,,,,,,,,,,,,,,,,,,,,,,,,,,,,,,,,,,,,,,,,,,,,,,,,,,,,,,,,,,,,,,,,,,,,,,,,,,,,,,,,,,,,,,,,,,,,,,,,,,,,,,,,,,,,,,,,,,,,,,,,
,,,,,,5f52b69cd864aa5b51e1fc63,62c53a2f808438d282f10f07,2022-07-06_02h32.35.254,Colour_Asymmetry_Pilot,2022.1.3,Win32,59.99520038,62c50e9c1127f2cd403a315f,0,156,156,97,1,onethree,,,,,,,,,,,,,,,,,,,,,,,,,,,,,,,,,,,,,,,,,,,,,,,,,,,,,,,,,,,,,,,,,,,,,,,,,,,,,,,,,,,,,,,,,,,,,,,,,,,,,,,,,,,,,,,,,,,,,,,,,,,,,,,,,,,,,,,,,,,,,,,,,,,,,,,,,,,,,
,,,,,,5f52b69cd864aa5b51e1fc63,62c53a2f808438d282f10f07,2022-07-06_02h32.35.254,Colour_Asymmetry_Pilot,2022.1.3,Win32,59.99520038,62c50e9c1127f2cd403a315f,0,157,157,44,1,threeone,,,,,,,,,,,,,,,,,,,,,,,,,,,,,,,,,,,,,,,,,,,,,,,,,,,,,,,,,,,,,,,,,,,,,,,,,,,,,,,,,,,,,,,,,,,,,,,,,,,,,,,,,,,,,,,,,,,,,,,,,,,,,,,,,,,,,,,,,,,,,,,,,,,,,,,,,,,,,
,,,,,,5f52b69cd864aa5b51e1fc63,62c53a2f808438d282f10f07,2022-07-06_02h32.35.254,Colour_Asymmetry_Pilot,2022.1.3,Win32,59.99520038,62c50e9c1127f2cd403a315f,0,158,158,98,1,twoone,,,,,,,,,,,,,,,,,,,,,,,,,,,,,,,,,,,,,,,,,,,,,,,,,,,,,,,,,,,,,,,,,,,,,,,,,,,,,,,,,,,,,,,,,,,,,,,,,,,,,,,,,,,,,,,,,,,,,,,,,,,,,,,,,,,,,,,,,,,,,,,,,,,,,,,,,,,,,
,,,,,,5f52b69cd864aa5b51e1fc63,62c53a2f808438d282f10f07,2022-07-06_02h32.35.254,Colour_Asymmetry_Pilot,2022.1.3,Win32,59.99520038,62c50e9c1127f2cd403a315f,0,159,159,92,1,threeone,,,,,,,,,,,,,,,,,,,,,,,,,,,,,,,,,,,,,,,,,,,,,,,,,,,,,,,,,,,,,,,,,,,,,,,,,,,,,,,,,,,,,,,,,,,,,,,,,,,,,,,,,,,,,,,,,,,,,,,,,,,,,,,,,,,,,,,,,,,,,,,,,,,,,,,,,,,,,
,,,,,,5f52b69cd864aa5b51e1fc63,62c53a2f808438d282f10f07,2022-07-06_02h32.35.254,Colour_Asymmetry_Pilot,2022.1.3,Win32,59.99520038,62c50e9c1127f2cd403a315f,0,160,160,68,1,threeone,,,,,,,,,,,,,,,,,,,,,,,,,,,,,,,,,,,,,,,,,,,,,,,,,,,,,,,,,,,,,,,,,,,,,,,,,,,,,,,,,,,,,,,,,,,,,,,,,,,,,,,,,,,,,,,,,,,,,,,,,,,,,,,,,,,,,,,,,,,,,,,,,,,,,,,,,,,,,
,,,,,,5f52b69cd864aa5b51e1fc63,62c53a2f808438d282f10f07,2022-07-06_02h32.35.254,Colour_Asymmetry_Pilot,2022.1.3,Win32,59.99520038,62c50e9c1127f2cd403a315f,0,161,161,122,1,twoone,,,,,,,,,,,,,,,,,,,,,,,,,,,,,,,,,,,,,,,,,,,,,,,,,,,,,,,,,,,,,,,,,,,,,,,,,,,,,,,,,,,,,,,,,,,,,,,,,,,,,,,,,,,,,,,,,,,,,,,,,,,,,,,,,,,,,,,,,,,,,,,,,,,,,,,,,,,,,
,,,,,,5f52b69cd864aa5b51e1fc63,62c53a2f808438d282f10f07,2022-07-06_02h32.35.254,Colour_Asymmetry_Pilot,2022.1.3,Win32,59.99520038,62c50e9c1127f2cd403a315f,,,,,,,space,3.6875,space,65.4697,space,92.5851,space,18.848,space,7.2858,space,4.9685,"[-0.4902000000000001,0.2704,-0.45899999999999996]",twoone,"[0.3568,-0.20799999999999996,-0.9844]",-4,37.5347,-51.33331299,58,1,0,0,response7disk_5,-8,1.333312988,1,0,0,rectangle_8,-8,1.333312988,1,0,0,4,-8,1.333312988,1,0,0,0,0,0,0,1,,,,,,,,,,,,,,,,,,,,,,,,,,,,,,,,,,,,,,,,,,,,,,,,,,,,,,,,,,,,,,,,,,,,,,,,,,,,,,,,,,,,,,,,,,,,,,,,,,,,,,,,,,,,,,,,
,,,,,,5f52b69cd864aa5b51e1fc63,62c53a2f808438d282f10f07,2022-07-06_02h32.35.254,Colour_Asymmetry_Pilot,2022.1.3,Win32,59.99520038,62c50e9c1127f2cd403a315f,,,,,,,,,,,,,,,,,,,"[-0.7412000000000001,-0.08239999999999992,-0.6864]",threeone,"[0.34099999999999997,0.5841999999999998,-0.9844]",-4,9.617,-31.33331299,64.66665649,1,0,0,response7disk_5,5.333374023,0.666656494,1,0,0,rectangle_8,5.333374023,0.666656494,1,0,0,4,5.333374023,0.666656494,1,0,0,1,0,1,0,1,,,,,,,,,,,,,,,,,,,,,,,,,,,,,,,,,,,,,,,,,,,,,,,,,,,,,,,,,,,,,,,,,,,,,,,,,,,,,,,,,,,,,,,,,,,,,,,,,,,,,,,,,,,,,,,,
,,,,,,5f52b69cd864aa5b51e1fc63,62c53a2f808438d282f10f07,2022-07-06_02h32.35.254,Colour_Asymmetry_Pilot,2022.1.3,Win32,59.99520038,62c50e9c1127f2cd403a315f,,,,,,,,,,,,,,,,,,,"[0.12939999999999996,-0.2864,0.3253999999999999]",twofour,"[-0.9688,-0.38039999999999996,-0.41979999999999995]",-4,7.4171,-32.66662598,61.33331299,1,0,0,response7disk_5,-2,5.333312988,1,0,0,rectangle_8,31.33337402,80,1,0,0,4,-8.666625977,1.333312988,1,0,0,2,0,2,0,1,response1disk_7,7,rectangle_4,,,,,,,,,,,,,,,,,,,,,,,,,,,,,,,,,,,,,,,,,,,,,,,,,,,,,,,,,,,,,,,,,,,,,,,,,,,,,,,,,,,,,,,,,,,,,,,,,,,,,,,,,,,,,
,,,,,,5f52b69cd864aa5b51e1fc63,62c53a2f808438d282f10f07,2022-07-06_02h32.35.254,Colour_Asymmetry_Pilot,2022.1.3,Win32,59.99520038,62c50e9c1127f2cd403a315f,,,,,,,,,,,,,,,,,,,"[-0.34920000000000007,-0.702,-0.5216]",twoone,"[-0.6706000000000001,-0.6157999999999999,-0.6786]",-1,9.467,-40,-71.33334351,1,0,0,response5disk_5,-15.33331299,1.333312988,1,0,0,rectangle_8,-15.33331299,1.333312988,1,0,0,4,-15.33331299,1.333312988,1,0,0,3,0,3,0,1,,,,,,,,,,,,,,,,,,,,,,,,,,,,,,,,,,,,,,,,,,,,,,,,,,,,,,,,,,,,,,,,,,,,,,,,,,,,,,,,,,,,,,,,,,,,,,,,,,,,,,,,,,,,,,,,
,,,,,,5f52b69cd864aa5b51e1fc63,62c53a2f808438d282f10f07,2022-07-06_02h32.35.254,Colour_Asymmetry_Pilot,2022.1.3,Win32,59.99520038,62c50e9c1127f2cd403a315f,,,,,,,,,,,,,,,,,,,"[0.7646000000000002,0.07440000000000002,0.2704]",twoone,"[0.9686000000000001,0.3802000000000001,0.19999999999999996]",1,5.0002,40.66668701,-62.66668701,1,0,0,response3disk_5,-8.666625977,0,1,0,0,rectangle_8,22,80.66665649,1,0,0,4,-16.66662598,-1.333343506,1,0,0,4,0,4,0,1,response1disk_7,7,rectangle_4,,,,,,,,,,,,,,,,,,,,,,,,,,,,,,,,,,,,,,,,,,,,,,,,,,,,,,,,,,,,,,,,,,,,,,,,,,,,,,,,,,,,,,,,,,,,,,,,,,,,,,,,,,,,,
,,,,,,5f52b69cd864aa5b51e1fc63,62c53a2f808438d282f10f07,2022-07-06_02h32.35.254,Colour_Asymmetry_Pilot,2022.1.3,Win32,59.99520038,62c50e9c1127f2cd403a315f,,,,,,,,,,,,,,,,,,,"[-0.9296,-0.12959999999999994,-0.043199999999999905]",fourtwo,"[0.05879999999999996,0.2784,0.5841999999999998]",1,5.8336,34,-71.33334351,1,0,0,response3disk_5,-8.666625977,-4,1,0,0,rectangle_8,-8.666625977,-4,1,0,0,4,-8.666625977,-4,1,0,0,5,0,5,0,1,,,,,,,,,,,,,,,,,,,,,,,,,,,,,,,,,,,,,,,,,,,,,,,,,,,,,,,,,,,,,,,,,,,,,,,,,,,,,,,,,,,,,,,,,,,,,,,,,,,,,,,,,,,,,,,,
,,,,,,5f52b69cd864aa5b51e1fc63,62c53a2f808438d282f10f07,2022-07-06_02h32.35.254,Colour_Asymmetry_Pilot,2022.1.3,Win32,59.99520038,62c50e9c1127f2cd403a315f,,,,,,,,,,,,,,,,,,,"[-0.26280000000000003,-0.2158,-0.3256]",fourthree,"[0.23920000000000008,0.2704,0.16060000000000008]",1,4.0654,40.66668701,-90,1,0,0,response3disk_5,-6,-0.666687012,1,0,0,rectangle_8,-6,-0.666687012,1,0,0,4,-6,-0.666687012,1,0,0,6,0,6,0,1,,,,,,,,,,,,,,,,,,,,,,,,,,,,,,,,,,,,,,,,,,,,,,,,,,,,,,,,,,,,,,,,,,,,,,,,,,,,,,,,,,,,,,,,,,,,,,,,,,,,,,,,,,,,,,,,
,,,,,,5f52b69cd864aa5b51e1fc63,62c53a2f808438d282f10f07,2022-07-06_02h32.35.254,Colour_Asymmetry_Pilot,2022.1.3,Win32,59.99520038,62c50e9c1127f2cd403a315f,,,,,,,,,,,,,,,,,,,,fourtwo,,-4,5.1846,,,,,,,,,,,,,,,,,,,,,,,,,,,,,,,,space,5.323,"[-0.9688,-0.4902000000000001,-0.12159999999999993]","[0.9763999999999999,0.30979999999999985,-0.6786]",-35.33331299,51.33331299,1,0,0,response7disk,-2,4,1,0,0,rectangle,-2,4,1,0,0,,2,0.0029,0,-2,4,1,0,0,0,0,0,3,1,3,first,,,,,,,,,,,,,,,,,,,,,,,,,,,,,,,,,,,,,,,,,,,,,,,,,,,,,,,,,,,,,,,,,,,,,,,,
,,,,,,5f52b69cd864aa5b51e1fc63,62c53a2f808438d282f10f07,2022-07-06_02h32.35.254,Colour_Asymmetry_Pilot,2022.1.3,Win32,59.99520038,62c50e9c1127f2cd403a315f,,,,,,,,,,,,,,,,,,,,onethree,,-3,2.2169,,,,,,,,,,,,,,,,,,,,,,,,,,,,,,,,,,"[-0.24719999999999998,-0.0354000000000001,0.3175999999999999]","[-0.8118,-0.8198,-0.5452]",-69.33331299,20,1,0,0,response7disk,-8.666625977,0,1,0,0,rectangle,-8.666625977,0,1,0,0,,3,0.0015,0,-8.666625977,0,1,0,0,0,1,1,47,1,47,first,,,,,,,,,,,,,,,,,,,,,,,,,,,,,,,,,,,,,,,,,,,,,,,,,,,,,,,,,,,,,,,,,,,,,,,,
,,,,,,5f52b69cd864aa5b51e1fc63,62c53a2f808438d282f10f07,2022-07-06_02h32.35.254,Colour_Asymmetry_Pilot,2022.1.3,Win32,59.99520038,62c50e9c1127f2cd403a315f,,,,,,,,,,,,,,,,,,,,fourthree,,-4,3.2334,,,,,,,,,,,,,,,,,,,,,,,,,,,,,,,,,,"[-0.10599999999999998,-0.15300000000000002,0.15280000000000005]","[0.34099999999999997,0.5841999999999998,-0.9844]",-37.33331299,68,1,0,0,response7disk,0,3.333312988,1,0,0,rectangle,0,3.333312988,1,0,0,,3,0.0002,0,0,3.333312988,1,0,0,0,2,2,67,1,67,first,,,,,,,,,,,,,,,,,,,,,,,,,,,,,,,,,,,,,,,,,,,,,,,,,,,,,,,,,,,,,,,,,,,,,,,,
,,,,,,5f52b69cd864aa5b51e1fc63,62c53a2f808438d282f10f07,2022-07-06_02h32.35.254,Colour_Asymmetry_Pilot,2022.1.3,Win32,59.99520038,62c50e9c1127f2cd403a315f,,,,,,,,,,,,,,,,,,,,twoone,,-2,4.25,,,,,,,,,,,,,,,,,,,,,,,,,,,,,,,,,,"[-0.01980000000000004,-0.5138,-0.38039999999999996]","[-0.5688,-0.08239999999999992,-0.1844]",-54.66662598,-43.33334351,1,0,0,response5disk,-4.666625977,-6.666687012,1,0,0,rectangle,-4.666625977,-6.666687012,1,0,0,,2,0.0018,0,-4.666625977,-6.666687012,1,0,0,0,3,3,81,1,0,second,,,,,,,,,,,,,,,,,,,,,,,,,,,,,,,,,,,,,,,,,,,,,,,,,,,,,,,,,,,,,,,,,,,,,,,,
,,,,,,5f52b69cd864aa5b51e1fc63,62c53a2f808438d282f10f07,2022-07-06_02h32.35.254,Colour_Asymmetry_Pilot,2022.1.3,Win32,59.99520038,62c50e9c1127f2cd403a315f,,,,,,,,,,,,,,,,,,,,twoone,,-2,5.9658,,,,,,,,,,,,,,,,,,,,,,,,,,,,,,,,,,"[-0.09019999999999995,0.44300000000000006,0.5371999999999999]","[-0.8982,-0.37259999999999993,0.2784]",-62.66662598,-32.66668701,1,0,0,response5disk,-4.666625977,-1.333343506,1,0,0,rectangle,-4.666625977,-1.333343506,1,0,0,,2,0.0008,0,-4.666625977,-1.333343506,1,0,0,0,4,4,94,1,13,second,,,,,,,,,,,,,,,,,,,,,,,,,,,,,,,,,,,,,,,,,,,,,,,,,,,,,,,,,,,,,,,,,,,,,,,,
,,,,,,5f52b69cd864aa5b51e1fc63,62c53a2f808438d282f10f07,2022-07-06_02h32.35.254,Colour_Asymmetry_Pilot,2022.1.3,Win32,59.99520038,62c50e9c1127f2cd403a315f,,,,,,,,,,,,,,,,,,,,fourtwo,,1,2.6828,,,,,,,,,,,,,,,,,,,,,,,,,,,,,,,,,,"[-0.5452,-0.608,0.2470000000000001]","[-0.17659999999999998,-0.2864,-0.8354]",36.66668701,-57.33334351,1,0,0,response3disk,-2.666625977,-3.333343506,1,0,0,rectangle,-2.666625977,-3.333343506,1,0,0,,3,0.0027,0,-2.666625977,-3.333343506,1,0,0,0,5,5,118,1,37,second,,,,,,,,,,,,,,,,,,,,,,,,,,,,,,,,,,,,,,,,,,,,,,,,,,,,,,,,,,,,,,,,,,,,,,,,
,,,,,,5f52b69cd864aa5b51e1fc63,62c53a2f808438d282f10f07,2022-07-06_02h32.35.254,Colour_Asymmetry_Pilot,2022.1.3,Win32,59.99520038,62c50e9c1127f2cd403a315f,,,,,,,,,,,,,,,,,,,,onethree,,1,4.6344,,,,,,,,,,,,,,,,,,,,,,,,,,,,,,,,,,"[0.18419999999999992,-0.4276,-0.404]","[0.37240000000000006,-0.050999999999999934,-0.5216]",32.66668701,-52.66668701,1,0,0,response3disk,-9.333312988,8.666656494,1,0,0,rectangle,-9.333312988,8.666656494,1,0,0,,2,0.0009,0,-9.333312988,8.666656494,1,0,0,0,6,6,52,1,52,first,,,,,,,,,,,,,,,,,,,,,,,,,,,,,,,,,,,,,,,,,,,,,,,,,,,,,,,,,,,,,,,,,,,,,,,,
,,,,,,5f52b69cd864aa5b51e1fc63,62c53a2f808438d282f10f07,2022-07-06_02h32.35.254,Colour_Asymmetry_Pilot,2022.1.3,Win32,59.99520038,62c50e9c1127f2cd403a315f,,,,,,,,,,,,,,,,,,,,fourtwo,,1,3.7997,,,,,,,,,,,,,,,,,,,,,,,,,,,,,,,,,,"[-0.5688,-0.08239999999999992,-0.1844]","[-0.01980000000000004,-0.5138,-0.38039999999999996]",40,-56,1,0,0,response3disk,-6.666625977,-3.333343506,1,0,0,rectangle,-6.666625977,-3.333343506,1,0,0,,1,0.0022,0,-6.666625977,-3.333343506,1,0,0,0,7,7,0,1,0,first,,,,,,,,,,,,,,,,,,,,,,,,,,,,,,,,,,,,,,,,,,,,,,,,,,,,,,,,,,,,,,,,,,,,,,,,
,,,,,,5f52b69cd864aa5b51e1fc63,62c53a2f808438d282f10f07,2022-07-06_02h32.35.254,Colour_Asymmetry_Pilot,2022.1.3,Win32,59.99520038,62c50e9c1127f2cd403a315f,,,,,,,,,,,,,,,,,,,,onethree,,2,1.4162,,,,,,,,,,,,,,,,,,,,,,,,,,,,,,,,,,"[0.9763999999999999,0.8588,-0.05900000000000005]","[0.3802000000000001,0.19199999999999995,-0.6394]",59.33337402,-40,1,0,0,response3disk,5.333374023,-8,1,0,0,rectangle,5.333374023,-8,1,0,0,,1,0.0007,0,5.333374023,-8,1,0,0,0,8,8,101,1,20,second,,,,,,,,,,,,,,,,,,,,,,,,,,,,,,,,,,,,,,,,,,,,,,,,,,,,,,,,,,,,,,,,,,,,,,,,
,,,,,,5f52b69cd864aa5b51e1fc63,62c53a2f808438d282f10f07,2022-07-06_02h32.35.254,Colour_Asymmetry_Pilot,2022.1.3,Win32,59.99520038,62c50e9c1127f2cd403a315f,,,,,,,,,,,,,,,,,,,,threefour,,2,1.5831,,,,,,,,,,,,,,,,,,,,,,,,,,,,,,,,,,"[0.9763999999999999,0.30979999999999985,-0.6786]","[-0.4982,-0.2942,-0.0354000000000001]",64.66668701,-39.33334351,1,0,0,response3disk,6.666687012,-12,1,0,0,rectangle,6.666687012,-12,1,0,0,,1,0.0008,0,6.666687012,-12,1,0,0,0,9,9,45,1,45,first,,,,,,,,,,,,,,,,,,,,,,,,,,,,,,,,,,,,,,,,,,,,,,,,,,,,,,,,,,,,,,,,,,,,,,,,
,,,,,,5f52b69cd864aa5b51e1fc63,62c53a2f808438d282f10f07,2022-07-06_02h32.35.254,Colour_Asymmetry_Pilot,2022.1.3,Win32,59.99520038,62c50e9c1127f2cd403a315f,,,,,,,,,,,,,,,,,,,,threeone,,1,5.6668,,,,,,,,,,,,,,,,,,,,,,,,,,,,,,,,,,"[0.09799999999999986,-0.24719999999999998,0.15280000000000005]","[-0.20799999999999996,-0.655,-0.01980000000000004]",22.66668701,-34,1,0,0,response3disk,-2.666625977,-2,1,0,0,rectangle,-2.666625977,-2,1,0,0,,3,0.0015,0,-2.666625977,-2,1,0,0,0,10,10,54,1,54,first,,,,,,,,,,,,,,,,,,,,,,,,,,,,,,,,,,,,,,,,,,,,,,,,,,,,,,,,,,,,,,,,,,,,,,,,
,,,,,,5f52b69cd864aa5b51e1fc63,62c53a2f808438d282f10f07,2022-07-06_02h32.35.254,Colour_Asymmetry_Pilot,2022.1.3,Win32,59.99520038,62c50e9c1127f2cd403a315f,,,,,,,,,,,,,,,,,,,,threefour,,-1,2.5501,,,,,,,,,,,,,,,,,,,,,,,,,,,,,,,,,,"[0.19199999999999995,0.18419999999999992,0.5136000000000001]","[0.30180000000000007,-0.7884,-0.9844]",-24.66662598,-64,1,0,0,response5disk,-11.33331299,-8,1,0,0,rectangle,-11.33331299,-8,1,0,0,,1,0.0018,0,-11.33331299,-8,1,0,0,0,11,11,9,1,9,first,,,,,,,,,,,,,,,,,,,,,,,,,,,,,,,,,,,,,,,,,,,,,,,,,,,,,,,,,,,,,,,,,,,,,,,,
,,,,,,5f52b69cd864aa5b51e1fc63,62c53a2f808438d282f10f07,2022-07-06_02h32.35.254,Colour_Asymmetry_Pilot,2022.1.3,Win32,59.99520038,62c50e9c1127f2cd403a315f,,,,,,,,,,,,,,,,,,,,fourtwo,,-4,3.5669,,,,,,,,,,,,,,,,,,,,,,,,,,,,,,,,,,"[-0.2942,-0.24719999999999998,-0.357]","[0.796,0.2156,-0.27859999999999996]",-34,65.33331299,1,0,0,response7disk,0.666687012,7.333312988,1,0,0,rectangle,0.666687012,7.333312988,1,0,0,,3,0.0017,0,0.666687012,7.333312988,1,0,0,0,12,12,86,1,5,second,,,,,,,,,,,,,,,,,,,,,,,,,,,,,,,,,,,,,,,,,,,,,,,,,,,,,,,,,,,,,,,,,,,,,,,,
,,,,,,5f52b69cd864aa5b51e1fc63,62c53a2f808438d282f10f07,2022-07-06_02h32.35.254,Colour_Asymmetry_Pilot,2022.1.3,Win32,59.99520038,62c50e9c1127f2cd403a315f,,,,,,,,,,,,,,,,,,,,threeone,,1,2.2166,,,,,,,,,,,,,,,,,,,,,,,,,,,,,,,,,,"[0.7018,0.7802,-0.16079999999999994]","[0.7802,-0.23140000000000005,-0.20799999999999996]",19.33337402,-62.66668701,1,0,0,response3disk,-14,0.666656494,1,0,0,rectangle,-14,0.666656494,1,0,0,,3,0.0005,0,-14,0.666656494,1,0,0,0,13,13,44,1,44,first,,,,,,,,,,,,,,,,,,,,,,,,,,,,,,,,,,,,,,,,,,,,,,,,,,,,,,,,,,,,,,,,,,,,,,,,
,,,,,,5f52b69cd864aa5b51e1fc63,62c53a2f808438d282f10f07,2022-07-06_02h32.35.254,Colour_Asymmetry_Pilot,2022.1.3,Win32,59.99520038,62c50e9c1127f2cd403a315f,,,,,,,,,,,,,,,,,,,,threefour,,-3,6.0837,,,,,,,,,,,,,,,,,,,,,,,,,,,,,,,,,,"[0.30180000000000007,-0.7884,-0.9844]","[0.19199999999999995,0.18419999999999992,0.5136000000000001]",-73.33331299,15.33331299,1,0,0,response7disk,-8,7.333312988,1,0,0,rectangle,-8,7.333312988,1,0,0,,3,0.0002,0,-8,7.333312988,1,0,0,0,14,14,90,1,9,second,,,,,,,,,,,,,,,,,,,,,,,,,,,,,,,,,,,,,,,,,,,,,,,,,,,,,,,,,,,,,,,,,,,,,,,,
