trials.thisRepN,trials.thisTrialN,trials.thisN,trials.thisIndex,trials.ran,Colourcodes,participant,session,date,expName,psychopyVersion,OS,frameRate,study_id,trials_4.thisRepN,trials_4.thisTrialN,trials_4.thisN,trials_4.thisIndex,trials_4.ran,StimulusPos,key_resp.keys,key_resp.rt,key_resp_2.keys,key_resp_2.rt,key_resp_15.keys,key_resp_15.rt,key_resp_17.keys,key_resp_17.rt,key_resp_9.keys,key_resp_9.rt,key_resp_10.keys,key_resp_10.rt,Circle1_col,Ecc,Circle2_col,similarity,response_time,mouse_5.x,mouse_5.y,mouse_5.leftButton,mouse_5.midButton,mouse_5.rightButton,mouse_5.clicked_name,mouse_10.x,mouse_10.y,mouse_10.leftButton,mouse_10.midButton,mouse_10.rightButton,mouse_10.clicked_name,mouse_7.x,mouse_7.y,mouse_7.leftButton,mouse_7.midButton,mouse_7.rightButton,catchnumberprac,mouse_6.x,mouse_6.y,mouse_6.leftButton,mouse_6.midButton,mouse_6.rightButton,duringprac.thisRepN,duringprac.thisTrialN,duringprac.thisN,duringprac.thisIndex,duringprac.ran,mouse_7.clicked_name,catchprac,mouse_6.clicked_name,key_resp_22.keys,key_resp_22.rt,Circle1_colour,Circle2_colour,mouse.x,mouse.y,mouse.leftButton,mouse.midButton,mouse.rightButton,mouse.clicked_name,mouse_2.x,mouse_2.y,mouse_2.leftButton,mouse_2.midButton,mouse_2.rightButton,mouse_2.clicked_name,mouse_3.x,mouse_3.y,mouse_3.leftButton,mouse_3.midButton,mouse_3.rightButton,catchresponse,catchnumber,response_time_catch,Catch,mouse_11.x,mouse_11.y,mouse_11.leftButton,mouse_11.midButton,mouse_11.rightButton,trials_2.thisRepN,trials_2.thisTrialN,trials_2.thisN,trials_2.thisIndex,trials_2.ran,Colourpair,Temporder,mouse_3.clicked_name,mouse_11.clicked_name,trials_3.thisRepN,trials_3.thisTrialN,trials_3.thisN,trials_3.thisIndex,trials_3.ran,key_resp_instr_Ishi.keys,key_resp_instr_Ishi.rt,Ishi_trial_keyresp.keys,Ishi_textbox.text,Ishi_mouse.x,Ishi_mouse.y,Ishi_mouse.leftButton,Ishi_mouse.midButton,Ishi_mouse.rightButton,Ishi_mouse.clicked_name,Ishi_loop.thisRepN,Ishi_loop.thisTrialN,Ishi_loop.thisN,Ishi_loop.thisIndex,Ishi_loop.ran,imageaddress,textbox.text,mouse_4.x,mouse_4.y,mouse_4.leftButton,mouse_4.midButton,mouse_4.rightButton,mouse_4.clicked_name,textbox_2.text,mouse_8.x,mouse_8.y,mouse_8.leftButton,mouse_8.midButton,mouse_8.rightButton,mouse_8.clicked_name,textbox_3.text,mouse_9.x,mouse_9.y,mouse_9.leftButton,mouse_9.midButton,mouse_9.rightButton,mouse_9.clicked_name,textbox_4.text,mouse_12.x,mouse_12.y,mouse_12.leftButton,mouse_12.midButton,mouse_12.rightButton,mouse_12.clicked_name,textbox_5.text,mouse_13.x,mouse_13.y,mouse_13.leftButton,mouse_13.midButton,mouse_13.rightButton,mouse_13.clicked_name,textbox_6.text,mouse_14.x,mouse_14.y,mouse_14.leftButton,mouse_14.midButton,mouse_14.rightButton,mouse_14.clicked_name,textbox_7.text,mouse_15.x,mouse_15.y,mouse_15.leftButton,mouse_15.midButton,mouse_15.rightButton,mouse_15.clicked_name
0,0,0,77,1,,5e7fd320aa0fcb000913970d,62c53a03fdfb271f81d01cbb,2022-07-06_09h31.52.991,Colour_Asymmetry_Pilot,2022.1.3,Win32,143.9055979,62c50e9c1127f2cd403a315f,,,,,,,,,,,,,,,,,,,,,,,,,,,,,,,,,,,,,,,,,,,,,,,,,,,,,,,,,,,,,,,,,,,,,,,,,,,,,,,,,,,,,,,,,,,,,,,,,,,,,,,,,,,,,,,,,,,,,,,,,,,,,,,,,,,,,,,,,,,,,,,,,,,,,,,,,,,,,,,,,,,
0,1,1,5,1,,5e7fd320aa0fcb000913970d,62c53a03fdfb271f81d01cbb,2022-07-06_09h31.52.991,Colour_Asymmetry_Pilot,2022.1.3,Win32,143.9055979,62c50e9c1127f2cd403a315f,,,,,,,,,,,,,,,,,,,,,,,,,,,,,,,,,,,,,,,,,,,,,,,,,,,,,,,,,,,,,,,,,,,,,,,,,,,,,,,,,,,,,,,,,,,,,,,,,,,,,,,,,,,,,,,,,,,,,,,,,,,,,,,,,,,,,,,,,,,,,,,,,,,,,,,,,,,,,,,,,,,
0,2,2,69,1,,5e7fd320aa0fcb000913970d,62c53a03fdfb271f81d01cbb,2022-07-06_09h31.52.991,Colour_Asymmetry_Pilot,2022.1.3,Win32,143.9055979,62c50e9c1127f2cd403a315f,,,,,,,,,,,,,,,,,,,,,,,,,,,,,,,,,,,,,,,,,,,,,,,,,,,,,,,,,,,,,,,,,,,,,,,,,,,,,,,,,,,,,,,,,,,,,,,,,,,,,,,,,,,,,,,,,,,,,,,,,,,,,,,,,,,,,,,,,,,,,,,,,,,,,,,,,,,,,,,,,,,
0,3,3,80,1,,5e7fd320aa0fcb000913970d,62c53a03fdfb271f81d01cbb,2022-07-06_09h31.52.991,Colour_Asymmetry_Pilot,2022.1.3,Win32,143.9055979,62c50e9c1127f2cd403a315f,,,,,,,,,,,,,,,,,,,,,,,,,,,,,,,,,,,,,,,,,,,,,,,,,,,,,,,,,,,,,,,,,,,,,,,,,,,,,,,,,,,,,,,,,,,,,,,,,,,,,,,,,,,,,,,,,,,,,,,,,,,,,,,,,,,,,,,,,,,,,,,,,,,,,,,,,,,,,,,,,,,
0,4,4,89,1,,5e7fd320aa0fcb000913970d,62c53a03fdfb271f81d01cbb,2022-07-06_09h31.52.991,Colour_Asymmetry_Pilot,2022.1.3,Win32,143.9055979,62c50e9c1127f2cd403a315f,,,,,,,,,,,,,,,,,,,,,,,,,,,,,,,,,,,,,,,,,,,,,,,,,,,,,,,,,,,,,,,,,,,,,,,,,,,,,,,,,,,,,,,,,,,,,,,,,,,,,,,,,,,,,,,,,,,,,,,,,,,,,,,,,,,,,,,,,,,,,,,,,,,,,,,,,,,,,,,,,,,
0,5,5,25,1,,5e7fd320aa0fcb000913970d,62c53a03fdfb271f81d01cbb,2022-07-06_09h31.52.991,Colour_Asymmetry_Pilot,2022.1.3,Win32,143.9055979,62c50e9c1127f2cd403a315f,,,,,,,,,,,,,,,,,,,,,,,,,,,,,,,,,,,,,,,,,,,,,,,,,,,,,,,,,,,,,,,,,,,,,,,,,,,,,,,,,,,,,,,,,,,,,,,,,,,,,,,,,,,,,,,,,,,,,,,,,,,,,,,,,,,,,,,,,,,,,,,,,,,,,,,,,,,,,,,,,,,
0,6,6,57,1,,5e7fd320aa0fcb000913970d,62c53a03fdfb271f81d01cbb,2022-07-06_09h31.52.991,Colour_Asymmetry_Pilot,2022.1.3,Win32,143.9055979,62c50e9c1127f2cd403a315f,,,,,,,,,,,,,,,,,,,,,,,,,,,,,,,,,,,,,,,,,,,,,,,,,,,,,,,,,,,,,,,,,,,,,,,,,,,,,,,,,,,,,,,,,,,,,,,,,,,,,,,,,,,,,,,,,,,,,,,,,,,,,,,,,,,,,,,,,,,,,,,,,,,,,,,,,,,,,,,,,,,
0,7,7,50,1,,5e7fd320aa0fcb000913970d,62c53a03fdfb271f81d01cbb,2022-07-06_09h31.52.991,Colour_Asymmetry_Pilot,2022.1.3,Win32,143.9055979,62c50e9c1127f2cd403a315f,,,,,,,,,,,,,,,,,,,,,,,,,,,,,,,,,,,,,,,,,,,,,,,,,,,,,,,,,,,,,,,,,,,,,,,,,,,,,,,,,,,,,,,,,,,,,,,,,,,,,,,,,,,,,,,,,,,,,,,,,,,,,,,,,,,,,,,,,,,,,,,,,,,,,,,,,,,,,,,,,,,
0,8,8,61,1,,5e7fd320aa0fcb000913970d,62c53a03fdfb271f81d01cbb,2022-07-06_09h31.52.991,Colour_Asymmetry_Pilot,2022.1.3,Win32,143.9055979,62c50e9c1127f2cd403a315f,,,,,,,,,,,,,,,,,,,,,,,,,,,,,,,,,,,,,,,,,,,,,,,,,,,,,,,,,,,,,,,,,,,,,,,,,,,,,,,,,,,,,,,,,,,,,,,,,,,,,,,,,,,,,,,,,,,,,,,,,,,,,,,,,,,,,,,,,,,,,,,,,,,,,,,,,,,,,,,,,,,
0,9,9,34,1,,5e7fd320aa0fcb000913970d,62c53a03fdfb271f81d01cbb,2022-07-06_09h31.52.991,Colour_Asymmetry_Pilot,2022.1.3,Win32,143.9055979,62c50e9c1127f2cd403a315f,,,,,,,,,,,,,,,,,,,,,,,,,,,,,,,,,,,,,,,,,,,,,,,,,,,,,,,,,,,,,,,,,,,,,,,,,,,,,,,,,,,,,,,,,,,,,,,,,,,,,,,,,,,,,,,,,,,,,,,,,,,,,,,,,,,,,,,,,,,,,,,,,,,,,,,,,,,,,,,,,,,
0,10,10,33,1,,5e7fd320aa0fcb000913970d,62c53a03fdfb271f81d01cbb,2022-07-06_09h31.52.991,Colour_Asymmetry_Pilot,2022.1.3,Win32,143.9055979,62c50e9c1127f2cd403a315f,,,,,,,,,,,,,,,,,,,,,,,,,,,,,,,,,,,,,,,,,,,,,,,,,,,,,,,,,,,,,,,,,,,,,,,,,,,,,,,,,,,,,,,,,,,,,,,,,,,,,,,,,,,,,,,,,,,,,,,,,,,,,,,,,,,,,,,,,,,,,,,,,,,,,,,,,,,,,,,,,,,
0,11,11,14,1,,5e7fd320aa0fcb000913970d,62c53a03fdfb271f81d01cbb,2022-07-06_09h31.52.991,Colour_Asymmetry_Pilot,2022.1.3,Win32,143.9055979,62c50e9c1127f2cd403a315f,,,,,,,,,,,,,,,,,,,,,,,,,,,,,,,,,,,,,,,,,,,,,,,,,,,,,,,,,,,,,,,,,,,,,,,,,,,,,,,,,,,,,,,,,,,,,,,,,,,,,,,,,,,,,,,,,,,,,,,,,,,,,,,,,,,,,,,,,,,,,,,,,,,,,,,,,,,,,,,,,,,
0,12,12,29,1,,5e7fd320aa0fcb000913970d,62c53a03fdfb271f81d01cbb,2022-07-06_09h31.52.991,Colour_Asymmetry_Pilot,2022.1.3,Win32,143.9055979,62c50e9c1127f2cd403a315f,,,,,,,,,,,,,,,,,,,,,,,,,,,,,,,,,,,,,,,,,,,,,,,,,,,,,,,,,,,,,,,,,,,,,,,,,,,,,,,,,,,,,,,,,,,,,,,,,,,,,,,,,,,,,,,,,,,,,,,,,,,,,,,,,,,,,,,,,,,,,,,,,,,,,,,,,,,,,,,,,,,
0,13,13,88,1,,5e7fd320aa0fcb000913970d,62c53a03fdfb271f81d01cbb,2022-07-06_09h31.52.991,Colour_Asymmetry_Pilot,2022.1.3,Win32,143.9055979,62c50e9c1127f2cd403a315f,,,,,,,,,,,,,,,,,,,,,,,,,,,,,,,,,,,,,,,,,,,,,,,,,,,,,,,,,,,,,,,,,,,,,,,,,,,,,,,,,,,,,,,,,,,,,,,,,,,,,,,,,,,,,,,,,,,,,,,,,,,,,,,,,,,,,,,,,,,,,,,,,,,,,,,,,,,,,,,,,,,
0,14,14,63,1,,5e7fd320aa0fcb000913970d,62c53a03fdfb271f81d01cbb,2022-07-06_09h31.52.991,Colour_Asymmetry_Pilot,2022.1.3,Win32,143.9055979,62c50e9c1127f2cd403a315f,,,,,,,,,,,,,,,,,,,,,,,,,,,,,,,,,,,,,,,,,,,,,,,,,,,,,,,,,,,,,,,,,,,,,,,,,,,,,,,,,,,,,,,,,,,,,,,,,,,,,,,,,,,,,,,,,,,,,,,,,,,,,,,,,,,,,,,,,,,,,,,,,,,,,,,,,,,,,,,,,,,
0,15,15,64,1,,5e7fd320aa0fcb000913970d,62c53a03fdfb271f81d01cbb,2022-07-06_09h31.52.991,Colour_Asymmetry_Pilot,2022.1.3,Win32,143.9055979,62c50e9c1127f2cd403a315f,,,,,,,,,,,,,,,,,,,,,,,,,,,,,,,,,,,,,,,,,,,,,,,,,,,,,,,,,,,,,,,,,,,,,,,,,,,,,,,,,,,,,,,,,,,,,,,,,,,,,,,,,,,,,,,,,,,,,,,,,,,,,,,,,,,,,,,,,,,,,,,,,,,,,,,,,,,,,,,,,,,
0,16,16,49,1,,5e7fd320aa0fcb000913970d,62c53a03fdfb271f81d01cbb,2022-07-06_09h31.52.991,Colour_Asymmetry_Pilot,2022.1.3,Win32,143.9055979,62c50e9c1127f2cd403a315f,,,,,,,,,,,,,,,,,,,,,,,,,,,,,,,,,,,,,,,,,,,,,,,,,,,,,,,,,,,,,,,,,,,,,,,,,,,,,,,,,,,,,,,,,,,,,,,,,,,,,,,,,,,,,,,,,,,,,,,,,,,,,,,,,,,,,,,,,,,,,,,,,,,,,,,,,,,,,,,,,,,
0,17,17,86,1,,5e7fd320aa0fcb000913970d,62c53a03fdfb271f81d01cbb,2022-07-06_09h31.52.991,Colour_Asymmetry_Pilot,2022.1.3,Win32,143.9055979,62c50e9c1127f2cd403a315f,,,,,,,,,,,,,,,,,,,,,,,,,,,,,,,,,,,,,,,,,,,,,,,,,,,,,,,,,,,,,,,,,,,,,,,,,,,,,,,,,,,,,,,,,,,,,,,,,,,,,,,,,,,,,,,,,,,,,,,,,,,,,,,,,,,,,,,,,,,,,,,,,,,,,,,,,,,,,,,,,,,
0,18,18,27,1,,5e7fd320aa0fcb000913970d,62c53a03fdfb271f81d01cbb,2022-07-06_09h31.52.991,Colour_Asymmetry_Pilot,2022.1.3,Win32,143.9055979,62c50e9c1127f2cd403a315f,,,,,,,,,,,,,,,,,,,,,,,,,,,,,,,,,,,,,,,,,,,,,,,,,,,,,,,,,,,,,,,,,,,,,,,,,,,,,,,,,,,,,,,,,,,,,,,,,,,,,,,,,,,,,,,,,,,,,,,,,,,,,,,,,,,,,,,,,,,,,,,,,,,,,,,,,,,,,,,,,,,
0,19,19,38,1,,5e7fd320aa0fcb000913970d,62c53a03fdfb271f81d01cbb,2022-07-06_09h31.52.991,Colour_Asymmetry_Pilot,2022.1.3,Win32,143.9055979,62c50e9c1127f2cd403a315f,,,,,,,,,,,,,,,,,,,,,,,,,,,,,,,,,,,,,,,,,,,,,,,,,,,,,,,,,,,,,,,,,,,,,,,,,,,,,,,,,,,,,,,,,,,,,,,,,,,,,,,,,,,,,,,,,,,,,,,,,,,,,,,,,,,,,,,,,,,,,,,,,,,,,,,,,,,,,,,,,,,
0,20,20,90,1,,5e7fd320aa0fcb000913970d,62c53a03fdfb271f81d01cbb,2022-07-06_09h31.52.991,Colour_Asymmetry_Pilot,2022.1.3,Win32,143.9055979,62c50e9c1127f2cd403a315f,,,,,,,,,,,,,,,,,,,,,,,,,,,,,,,,,,,,,,,,,,,,,,,,,,,,,,,,,,,,,,,,,,,,,,,,,,,,,,,,,,,,,,,,,,,,,,,,,,,,,,,,,,,,,,,,,,,,,,,,,,,,,,,,,,,,,,,,,,,,,,,,,,,,,,,,,,,,,,,,,,,
0,21,21,15,1,,5e7fd320aa0fcb000913970d,62c53a03fdfb271f81d01cbb,2022-07-06_09h31.52.991,Colour_Asymmetry_Pilot,2022.1.3,Win32,143.9055979,62c50e9c1127f2cd403a315f,,,,,,,,,,,,,,,,,,,,,,,,,,,,,,,,,,,,,,,,,,,,,,,,,,,,,,,,,,,,,,,,,,,,,,,,,,,,,,,,,,,,,,,,,,,,,,,,,,,,,,,,,,,,,,,,,,,,,,,,,,,,,,,,,,,,,,,,,,,,,,,,,,,,,,,,,,,,,,,,,,,
0,22,22,68,1,,5e7fd320aa0fcb000913970d,62c53a03fdfb271f81d01cbb,2022-07-06_09h31.52.991,Colour_Asymmetry_Pilot,2022.1.3,Win32,143.9055979,62c50e9c1127f2cd403a315f,,,,,,,,,,,,,,,,,,,,,,,,,,,,,,,,,,,,,,,,,,,,,,,,,,,,,,,,,,,,,,,,,,,,,,,,,,,,,,,,,,,,,,,,,,,,,,,,,,,,,,,,,,,,,,,,,,,,,,,,,,,,,,,,,,,,,,,,,,,,,,,,,,,,,,,,,,,,,,,,,,,
0,23,23,47,1,,5e7fd320aa0fcb000913970d,62c53a03fdfb271f81d01cbb,2022-07-06_09h31.52.991,Colour_Asymmetry_Pilot,2022.1.3,Win32,143.9055979,62c50e9c1127f2cd403a315f,,,,,,,,,,,,,,,,,,,,,,,,,,,,,,,,,,,,,,,,,,,,,,,,,,,,,,,,,,,,,,,,,,,,,,,,,,,,,,,,,,,,,,,,,,,,,,,,,,,,,,,,,,,,,,,,,,,,,,,,,,,,,,,,,,,,,,,,,,,,,,,,,,,,,,,,,,,,,,,,,,,
0,24,24,16,1,,5e7fd320aa0fcb000913970d,62c53a03fdfb271f81d01cbb,2022-07-06_09h31.52.991,Colour_Asymmetry_Pilot,2022.1.3,Win32,143.9055979,62c50e9c1127f2cd403a315f,,,,,,,,,,,,,,,,,,,,,,,,,,,,,,,,,,,,,,,,,,,,,,,,,,,,,,,,,,,,,,,,,,,,,,,,,,,,,,,,,,,,,,,,,,,,,,,,,,,,,,,,,,,,,,,,,,,,,,,,,,,,,,,,,,,,,,,,,,,,,,,,,,,,,,,,,,,,,,,,,,,
0,25,25,74,1,,5e7fd320aa0fcb000913970d,62c53a03fdfb271f81d01cbb,2022-07-06_09h31.52.991,Colour_Asymmetry_Pilot,2022.1.3,Win32,143.9055979,62c50e9c1127f2cd403a315f,,,,,,,,,,,,,,,,,,,,,,,,,,,,,,,,,,,,,,,,,,,,,,,,,,,,,,,,,,,,,,,,,,,,,,,,,,,,,,,,,,,,,,,,,,,,,,,,,,,,,,,,,,,,,,,,,,,,,,,,,,,,,,,,,,,,,,,,,,,,,,,,,,,,,,,,,,,,,,,,,,,
0,26,26,44,1,,5e7fd320aa0fcb000913970d,62c53a03fdfb271f81d01cbb,2022-07-06_09h31.52.991,Colour_Asymmetry_Pilot,2022.1.3,Win32,143.9055979,62c50e9c1127f2cd403a315f,,,,,,,,,,,,,,,,,,,,,,,,,,,,,,,,,,,,,,,,,,,,,,,,,,,,,,,,,,,,,,,,,,,,,,,,,,,,,,,,,,,,,,,,,,,,,,,,,,,,,,,,,,,,,,,,,,,,,,,,,,,,,,,,,,,,,,,,,,,,,,,,,,,,,,,,,,,,,,,,,,,
0,27,27,7,1,,5e7fd320aa0fcb000913970d,62c53a03fdfb271f81d01cbb,2022-07-06_09h31.52.991,Colour_Asymmetry_Pilot,2022.1.3,Win32,143.9055979,62c50e9c1127f2cd403a315f,,,,,,,,,,,,,,,,,,,,,,,,,,,,,,,,,,,,,,,,,,,,,,,,,,,,,,,,,,,,,,,,,,,,,,,,,,,,,,,,,,,,,,,,,,,,,,,,,,,,,,,,,,,,,,,,,,,,,,,,,,,,,,,,,,,,,,,,,,,,,,,,,,,,,,,,,,,,,,,,,,,
0,28,28,30,1,,5e7fd320aa0fcb000913970d,62c53a03fdfb271f81d01cbb,2022-07-06_09h31.52.991,Colour_Asymmetry_Pilot,2022.1.3,Win32,143.9055979,62c50e9c1127f2cd403a315f,,,,,,,,,,,,,,,,,,,,,,,,,,,,,,,,,,,,,,,,,,,,,,,,,,,,,,,,,,,,,,,,,,,,,,,,,,,,,,,,,,,,,,,,,,,,,,,,,,,,,,,,,,,,,,,,,,,,,,,,,,,,,,,,,,,,,,,,,,,,,,,,,,,,,,,,,,,,,,,,,,,
0,29,29,42,1,,5e7fd320aa0fcb000913970d,62c53a03fdfb271f81d01cbb,2022-07-06_09h31.52.991,Colour_Asymmetry_Pilot,2022.1.3,Win32,143.9055979,62c50e9c1127f2cd403a315f,,,,,,,,,,,,,,,,,,,,,,,,,,,,,,,,,,,,,,,,,,,,,,,,,,,,,,,,,,,,,,,,,,,,,,,,,,,,,,,,,,,,,,,,,,,,,,,,,,,,,,,,,,,,,,,,,,,,,,,,,,,,,,,,,,,,,,,,,,,,,,,,,,,,,,,,,,,,,,,,,,,
0,30,30,59,1,,5e7fd320aa0fcb000913970d,62c53a03fdfb271f81d01cbb,2022-07-06_09h31.52.991,Colour_Asymmetry_Pilot,2022.1.3,Win32,143.9055979,62c50e9c1127f2cd403a315f,,,,,,,,,,,,,,,,,,,,,,,,,,,,,,,,,,,,,,,,,,,,,,,,,,,,,,,,,,,,,,,,,,,,,,,,,,,,,,,,,,,,,,,,,,,,,,,,,,,,,,,,,,,,,,,,,,,,,,,,,,,,,,,,,,,,,,,,,,,,,,,,,,,,,,,,,,,,,,,,,,,
0,31,31,26,1,,5e7fd320aa0fcb000913970d,62c53a03fdfb271f81d01cbb,2022-07-06_09h31.52.991,Colour_Asymmetry_Pilot,2022.1.3,Win32,143.9055979,62c50e9c1127f2cd403a315f,,,,,,,,,,,,,,,,,,,,,,,,,,,,,,,,,,,,,,,,,,,,,,,,,,,,,,,,,,,,,,,,,,,,,,,,,,,,,,,,,,,,,,,,,,,,,,,,,,,,,,,,,,,,,,,,,,,,,,,,,,,,,,,,,,,,,,,,,,,,,,,,,,,,,,,,,,,,,,,,,,,
0,32,32,8,1,,5e7fd320aa0fcb000913970d,62c53a03fdfb271f81d01cbb,2022-07-06_09h31.52.991,Colour_Asymmetry_Pilot,2022.1.3,Win32,143.9055979,62c50e9c1127f2cd403a315f,,,,,,,,,,,,,,,,,,,,,,,,,,,,,,,,,,,,,,,,,,,,,,,,,,,,,,,,,,,,,,,,,,,,,,,,,,,,,,,,,,,,,,,,,,,,,,,,,,,,,,,,,,,,,,,,,,,,,,,,,,,,,,,,,,,,,,,,,,,,,,,,,,,,,,,,,,,,,,,,,,,
0,33,33,67,1,,5e7fd320aa0fcb000913970d,62c53a03fdfb271f81d01cbb,2022-07-06_09h31.52.991,Colour_Asymmetry_Pilot,2022.1.3,Win32,143.9055979,62c50e9c1127f2cd403a315f,,,,,,,,,,,,,,,,,,,,,,,,,,,,,,,,,,,,,,,,,,,,,,,,,,,,,,,,,,,,,,,,,,,,,,,,,,,,,,,,,,,,,,,,,,,,,,,,,,,,,,,,,,,,,,,,,,,,,,,,,,,,,,,,,,,,,,,,,,,,,,,,,,,,,,,,,,,,,,,,,,,
0,34,34,87,1,,5e7fd320aa0fcb000913970d,62c53a03fdfb271f81d01cbb,2022-07-06_09h31.52.991,Colour_Asymmetry_Pilot,2022.1.3,Win32,143.9055979,62c50e9c1127f2cd403a315f,,,,,,,,,,,,,,,,,,,,,,,,,,,,,,,,,,,,,,,,,,,,,,,,,,,,,,,,,,,,,,,,,,,,,,,,,,,,,,,,,,,,,,,,,,,,,,,,,,,,,,,,,,,,,,,,,,,,,,,,,,,,,,,,,,,,,,,,,,,,,,,,,,,,,,,,,,,,,,,,,,,
0,35,35,79,1,,5e7fd320aa0fcb000913970d,62c53a03fdfb271f81d01cbb,2022-07-06_09h31.52.991,Colour_Asymmetry_Pilot,2022.1.3,Win32,143.9055979,62c50e9c1127f2cd403a315f,,,,,,,,,,,,,,,,,,,,,,,,,,,,,,,,,,,,,,,,,,,,,,,,,,,,,,,,,,,,,,,,,,,,,,,,,,,,,,,,,,,,,,,,,,,,,,,,,,,,,,,,,,,,,,,,,,,,,,,,,,,,,,,,,,,,,,,,,,,,,,,,,,,,,,,,,,,,,,,,,,,
0,36,36,0,1,,5e7fd320aa0fcb000913970d,62c53a03fdfb271f81d01cbb,2022-07-06_09h31.52.991,Colour_Asymmetry_Pilot,2022.1.3,Win32,143.9055979,62c50e9c1127f2cd403a315f,,,,,,,,,,,,,,,,,,,,,,,,,,,,,,,,,,,,,,,,,,,,,,,,,,,,,,,,,,,,,,,,,,,,,,,,,,,,,,,,,,,,,,,,,,,,,,,,,,,,,,,,,,,,,,,,,,,,,,,,,,,,,,,,,,,,,,,,,,,,,,,,,,,,,,,,,,,,,,,,,,,
0,37,37,81,1,,5e7fd320aa0fcb000913970d,62c53a03fdfb271f81d01cbb,2022-07-06_09h31.52.991,Colour_Asymmetry_Pilot,2022.1.3,Win32,143.9055979,62c50e9c1127f2cd403a315f,,,,,,,,,,,,,,,,,,,,,,,,,,,,,,,,,,,,,,,,,,,,,,,,,,,,,,,,,,,,,,,,,,,,,,,,,,,,,,,,,,,,,,,,,,,,,,,,,,,,,,,,,,,,,,,,,,,,,,,,,,,,,,,,,,,,,,,,,,,,,,,,,,,,,,,,,,,,,,,,,,,
0,38,38,46,1,,5e7fd320aa0fcb000913970d,62c53a03fdfb271f81d01cbb,2022-07-06_09h31.52.991,Colour_Asymmetry_Pilot,2022.1.3,Win32,143.9055979,62c50e9c1127f2cd403a315f,,,,,,,,,,,,,,,,,,,,,,,,,,,,,,,,,,,,,,,,,,,,,,,,,,,,,,,,,,,,,,,,,,,,,,,,,,,,,,,,,,,,,,,,,,,,,,,,,,,,,,,,,,,,,,,,,,,,,,,,,,,,,,,,,,,,,,,,,,,,,,,,,,,,,,,,,,,,,,,,,,,
0,39,39,24,1,,5e7fd320aa0fcb000913970d,62c53a03fdfb271f81d01cbb,2022-07-06_09h31.52.991,Colour_Asymmetry_Pilot,2022.1.3,Win32,143.9055979,62c50e9c1127f2cd403a315f,,,,,,,,,,,,,,,,,,,,,,,,,,,,,,,,,,,,,,,,,,,,,,,,,,,,,,,,,,,,,,,,,,,,,,,,,,,,,,,,,,,,,,,,,,,,,,,,,,,,,,,,,,,,,,,,,,,,,,,,,,,,,,,,,,,,,,,,,,,,,,,,,,,,,,,,,,,,,,,,,,,
0,40,40,39,1,,5e7fd320aa0fcb000913970d,62c53a03fdfb271f81d01cbb,2022-07-06_09h31.52.991,Colour_Asymmetry_Pilot,2022.1.3,Win32,143.9055979,62c50e9c1127f2cd403a315f,,,,,,,,,,,,,,,,,,,,,,,,,,,,,,,,,,,,,,,,,,,,,,,,,,,,,,,,,,,,,,,,,,,,,,,,,,,,,,,,,,,,,,,,,,,,,,,,,,,,,,,,,,,,,,,,,,,,,,,,,,,,,,,,,,,,,,,,,,,,,,,,,,,,,,,,,,,,,,,,,,,
0,41,41,19,1,,5e7fd320aa0fcb000913970d,62c53a03fdfb271f81d01cbb,2022-07-06_09h31.52.991,Colour_Asymmetry_Pilot,2022.1.3,Win32,143.9055979,62c50e9c1127f2cd403a315f,,,,,,,,,,,,,,,,,,,,,,,,,,,,,,,,,,,,,,,,,,,,,,,,,,,,,,,,,,,,,,,,,,,,,,,,,,,,,,,,,,,,,,,,,,,,,,,,,,,,,,,,,,,,,,,,,,,,,,,,,,,,,,,,,,,,,,,,,,,,,,,,,,,,,,,,,,,,,,,,,,,
0,42,42,3,1,,5e7fd320aa0fcb000913970d,62c53a03fdfb271f81d01cbb,2022-07-06_09h31.52.991,Colour_Asymmetry_Pilot,2022.1.3,Win32,143.9055979,62c50e9c1127f2cd403a315f,,,,,,,,,,,,,,,,,,,,,,,,,,,,,,,,,,,,,,,,,,,,,,,,,,,,,,,,,,,,,,,,,,,,,,,,,,,,,,,,,,,,,,,,,,,,,,,,,,,,,,,,,,,,,,,,,,,,,,,,,,,,,,,,,,,,,,,,,,,,,,,,,,,,,,,,,,,,,,,,,,,
0,43,43,32,1,,5e7fd320aa0fcb000913970d,62c53a03fdfb271f81d01cbb,2022-07-06_09h31.52.991,Colour_Asymmetry_Pilot,2022.1.3,Win32,143.9055979,62c50e9c1127f2cd403a315f,,,,,,,,,,,,,,,,,,,,,,,,,,,,,,,,,,,,,,,,,,,,,,,,,,,,,,,,,,,,,,,,,,,,,,,,,,,,,,,,,,,,,,,,,,,,,,,,,,,,,,,,,,,,,,,,,,,,,,,,,,,,,,,,,,,,,,,,,,,,,,,,,,,,,,,,,,,,,,,,,,,
0,44,44,9,1,,5e7fd320aa0fcb000913970d,62c53a03fdfb271f81d01cbb,2022-07-06_09h31.52.991,Colour_Asymmetry_Pilot,2022.1.3,Win32,143.9055979,62c50e9c1127f2cd403a315f,,,,,,,,,,,,,,,,,,,,,,,,,,,,,,,,,,,,,,,,,,,,,,,,,,,,,,,,,,,,,,,,,,,,,,,,,,,,,,,,,,,,,,,,,,,,,,,,,,,,,,,,,,,,,,,,,,,,,,,,,,,,,,,,,,,,,,,,,,,,,,,,,,,,,,,,,,,,,,,,,,,
0,45,45,62,1,,5e7fd320aa0fcb000913970d,62c53a03fdfb271f81d01cbb,2022-07-06_09h31.52.991,Colour_Asymmetry_Pilot,2022.1.3,Win32,143.9055979,62c50e9c1127f2cd403a315f,,,,,,,,,,,,,,,,,,,,,,,,,,,,,,,,,,,,,,,,,,,,,,,,,,,,,,,,,,,,,,,,,,,,,,,,,,,,,,,,,,,,,,,,,,,,,,,,,,,,,,,,,,,,,,,,,,,,,,,,,,,,,,,,,,,,,,,,,,,,,,,,,,,,,,,,,,,,,,,,,,,
0,46,46,20,1,,5e7fd320aa0fcb000913970d,62c53a03fdfb271f81d01cbb,2022-07-06_09h31.52.991,Colour_Asymmetry_Pilot,2022.1.3,Win32,143.9055979,62c50e9c1127f2cd403a315f,,,,,,,,,,,,,,,,,,,,,,,,,,,,,,,,,,,,,,,,,,,,,,,,,,,,,,,,,,,,,,,,,,,,,,,,,,,,,,,,,,,,,,,,,,,,,,,,,,,,,,,,,,,,,,,,,,,,,,,,,,,,,,,,,,,,,,,,,,,,,,,,,,,,,,,,,,,,,,,,,,,
0,47,47,36,1,,5e7fd320aa0fcb000913970d,62c53a03fdfb271f81d01cbb,2022-07-06_09h31.52.991,Colour_Asymmetry_Pilot,2022.1.3,Win32,143.9055979,62c50e9c1127f2cd403a315f,,,,,,,,,,,,,,,,,,,,,,,,,,,,,,,,,,,,,,,,,,,,,,,,,,,,,,,,,,,,,,,,,,,,,,,,,,,,,,,,,,,,,,,,,,,,,,,,,,,,,,,,,,,,,,,,,,,,,,,,,,,,,,,,,,,,,,,,,,,,,,,,,,,,,,,,,,,,,,,,,,,
0,48,48,12,1,,5e7fd320aa0fcb000913970d,62c53a03fdfb271f81d01cbb,2022-07-06_09h31.52.991,Colour_Asymmetry_Pilot,2022.1.3,Win32,143.9055979,62c50e9c1127f2cd403a315f,,,,,,,,,,,,,,,,,,,,,,,,,,,,,,,,,,,,,,,,,,,,,,,,,,,,,,,,,,,,,,,,,,,,,,,,,,,,,,,,,,,,,,,,,,,,,,,,,,,,,,,,,,,,,,,,,,,,,,,,,,,,,,,,,,,,,,,,,,,,,,,,,,,,,,,,,,,,,,,,,,,
0,49,49,76,1,,5e7fd320aa0fcb000913970d,62c53a03fdfb271f81d01cbb,2022-07-06_09h31.52.991,Colour_Asymmetry_Pilot,2022.1.3,Win32,143.9055979,62c50e9c1127f2cd403a315f,,,,,,,,,,,,,,,,,,,,,,,,,,,,,,,,,,,,,,,,,,,,,,,,,,,,,,,,,,,,,,,,,,,,,,,,,,,,,,,,,,,,,,,,,,,,,,,,,,,,,,,,,,,,,,,,,,,,,,,,,,,,,,,,,,,,,,,,,,,,,,,,,,,,,,,,,,,,,,,,,,,
0,50,50,17,1,,5e7fd320aa0fcb000913970d,62c53a03fdfb271f81d01cbb,2022-07-06_09h31.52.991,Colour_Asymmetry_Pilot,2022.1.3,Win32,143.9055979,62c50e9c1127f2cd403a315f,,,,,,,,,,,,,,,,,,,,,,,,,,,,,,,,,,,,,,,,,,,,,,,,,,,,,,,,,,,,,,,,,,,,,,,,,,,,,,,,,,,,,,,,,,,,,,,,,,,,,,,,,,,,,,,,,,,,,,,,,,,,,,,,,,,,,,,,,,,,,,,,,,,,,,,,,,,,,,,,,,,
0,51,51,53,1,,5e7fd320aa0fcb000913970d,62c53a03fdfb271f81d01cbb,2022-07-06_09h31.52.991,Colour_Asymmetry_Pilot,2022.1.3,Win32,143.9055979,62c50e9c1127f2cd403a315f,,,,,,,,,,,,,,,,,,,,,,,,,,,,,,,,,,,,,,,,,,,,,,,,,,,,,,,,,,,,,,,,,,,,,,,,,,,,,,,,,,,,,,,,,,,,,,,,,,,,,,,,,,,,,,,,,,,,,,,,,,,,,,,,,,,,,,,,,,,,,,,,,,,,,,,,,,,,,,,,,,,
0,52,52,23,1,,5e7fd320aa0fcb000913970d,62c53a03fdfb271f81d01cbb,2022-07-06_09h31.52.991,Colour_Asymmetry_Pilot,2022.1.3,Win32,143.9055979,62c50e9c1127f2cd403a315f,,,,,,,,,,,,,,,,,,,,,,,,,,,,,,,,,,,,,,,,,,,,,,,,,,,,,,,,,,,,,,,,,,,,,,,,,,,,,,,,,,,,,,,,,,,,,,,,,,,,,,,,,,,,,,,,,,,,,,,,,,,,,,,,,,,,,,,,,,,,,,,,,,,,,,,,,,,,,,,,,,,
0,53,53,40,1,,5e7fd320aa0fcb000913970d,62c53a03fdfb271f81d01cbb,2022-07-06_09h31.52.991,Colour_Asymmetry_Pilot,2022.1.3,Win32,143.9055979,62c50e9c1127f2cd403a315f,,,,,,,,,,,,,,,,,,,,,,,,,,,,,,,,,,,,,,,,,,,,,,,,,,,,,,,,,,,,,,,,,,,,,,,,,,,,,,,,,,,,,,,,,,,,,,,,,,,,,,,,,,,,,,,,,,,,,,,,,,,,,,,,,,,,,,,,,,,,,,,,,,,,,,,,,,,,,,,,,,,
0,54,54,10,1,,5e7fd320aa0fcb000913970d,62c53a03fdfb271f81d01cbb,2022-07-06_09h31.52.991,Colour_Asymmetry_Pilot,2022.1.3,Win32,143.9055979,62c50e9c1127f2cd403a315f,,,,,,,,,,,,,,,,,,,,,,,,,,,,,,,,,,,,,,,,,,,,,,,,,,,,,,,,,,,,,,,,,,,,,,,,,,,,,,,,,,,,,,,,,,,,,,,,,,,,,,,,,,,,,,,,,,,,,,,,,,,,,,,,,,,,,,,,,,,,,,,,,,,,,,,,,,,,,,,,,,,
0,55,55,82,1,,5e7fd320aa0fcb000913970d,62c53a03fdfb271f81d01cbb,2022-07-06_09h31.52.991,Colour_Asymmetry_Pilot,2022.1.3,Win32,143.9055979,62c50e9c1127f2cd403a315f,,,,,,,,,,,,,,,,,,,,,,,,,,,,,,,,,,,,,,,,,,,,,,,,,,,,,,,,,,,,,,,,,,,,,,,,,,,,,,,,,,,,,,,,,,,,,,,,,,,,,,,,,,,,,,,,,,,,,,,,,,,,,,,,,,,,,,,,,,,,,,,,,,,,,,,,,,,,,,,,,,,
0,56,56,58,1,,5e7fd320aa0fcb000913970d,62c53a03fdfb271f81d01cbb,2022-07-06_09h31.52.991,Colour_Asymmetry_Pilot,2022.1.3,Win32,143.9055979,62c50e9c1127f2cd403a315f,,,,,,,,,,,,,,,,,,,,,,,,,,,,,,,,,,,,,,,,,,,,,,,,,,,,,,,,,,,,,,,,,,,,,,,,,,,,,,,,,,,,,,,,,,,,,,,,,,,,,,,,,,,,,,,,,,,,,,,,,,,,,,,,,,,,,,,,,,,,,,,,,,,,,,,,,,,,,,,,,,,
0,57,57,37,1,,5e7fd320aa0fcb000913970d,62c53a03fdfb271f81d01cbb,2022-07-06_09h31.52.991,Colour_Asymmetry_Pilot,2022.1.3,Win32,143.9055979,62c50e9c1127f2cd403a315f,,,,,,,,,,,,,,,,,,,,,,,,,,,,,,,,,,,,,,,,,,,,,,,,,,,,,,,,,,,,,,,,,,,,,,,,,,,,,,,,,,,,,,,,,,,,,,,,,,,,,,,,,,,,,,,,,,,,,,,,,,,,,,,,,,,,,,,,,,,,,,,,,,,,,,,,,,,,,,,,,,,
0,58,58,45,1,,5e7fd320aa0fcb000913970d,62c53a03fdfb271f81d01cbb,2022-07-06_09h31.52.991,Colour_Asymmetry_Pilot,2022.1.3,Win32,143.9055979,62c50e9c1127f2cd403a315f,,,,,,,,,,,,,,,,,,,,,,,,,,,,,,,,,,,,,,,,,,,,,,,,,,,,,,,,,,,,,,,,,,,,,,,,,,,,,,,,,,,,,,,,,,,,,,,,,,,,,,,,,,,,,,,,,,,,,,,,,,,,,,,,,,,,,,,,,,,,,,,,,,,,,,,,,,,,,,,,,,,
0,59,59,70,1,,5e7fd320aa0fcb000913970d,62c53a03fdfb271f81d01cbb,2022-07-06_09h31.52.991,Colour_Asymmetry_Pilot,2022.1.3,Win32,143.9055979,62c50e9c1127f2cd403a315f,,,,,,,,,,,,,,,,,,,,,,,,,,,,,,,,,,,,,,,,,,,,,,,,,,,,,,,,,,,,,,,,,,,,,,,,,,,,,,,,,,,,,,,,,,,,,,,,,,,,,,,,,,,,,,,,,,,,,,,,,,,,,,,,,,,,,,,,,,,,,,,,,,,,,,,,,,,,,,,,,,,
0,60,60,72,1,,5e7fd320aa0fcb000913970d,62c53a03fdfb271f81d01cbb,2022-07-06_09h31.52.991,Colour_Asymmetry_Pilot,2022.1.3,Win32,143.9055979,62c50e9c1127f2cd403a315f,,,,,,,,,,,,,,,,,,,,,,,,,,,,,,,,,,,,,,,,,,,,,,,,,,,,,,,,,,,,,,,,,,,,,,,,,,,,,,,,,,,,,,,,,,,,,,,,,,,,,,,,,,,,,,,,,,,,,,,,,,,,,,,,,,,,,,,,,,,,,,,,,,,,,,,,,,,,,,,,,,,
0,61,61,35,1,,5e7fd320aa0fcb000913970d,62c53a03fdfb271f81d01cbb,2022-07-06_09h31.52.991,Colour_Asymmetry_Pilot,2022.1.3,Win32,143.9055979,62c50e9c1127f2cd403a315f,,,,,,,,,,,,,,,,,,,,,,,,,,,,,,,,,,,,,,,,,,,,,,,,,,,,,,,,,,,,,,,,,,,,,,,,,,,,,,,,,,,,,,,,,,,,,,,,,,,,,,,,,,,,,,,,,,,,,,,,,,,,,,,,,,,,,,,,,,,,,,,,,,,,,,,,,,,,,,,,,,,
0,62,62,84,1,,5e7fd320aa0fcb000913970d,62c53a03fdfb271f81d01cbb,2022-07-06_09h31.52.991,Colour_Asymmetry_Pilot,2022.1.3,Win32,143.9055979,62c50e9c1127f2cd403a315f,,,,,,,,,,,,,,,,,,,,,,,,,,,,,,,,,,,,,,,,,,,,,,,,,,,,,,,,,,,,,,,,,,,,,,,,,,,,,,,,,,,,,,,,,,,,,,,,,,,,,,,,,,,,,,,,,,,,,,,,,,,,,,,,,,,,,,,,,,,,,,,,,,,,,,,,,,,,,,,,,,,
0,63,63,75,1,,5e7fd320aa0fcb000913970d,62c53a03fdfb271f81d01cbb,2022-07-06_09h31.52.991,Colour_Asymmetry_Pilot,2022.1.3,Win32,143.9055979,62c50e9c1127f2cd403a315f,,,,,,,,,,,,,,,,,,,,,,,,,,,,,,,,,,,,,,,,,,,,,,,,,,,,,,,,,,,,,,,,,,,,,,,,,,,,,,,,,,,,,,,,,,,,,,,,,,,,,,,,,,,,,,,,,,,,,,,,,,,,,,,,,,,,,,,,,,,,,,,,,,,,,,,,,,,,,,,,,,,
0,64,64,4,1,,5e7fd320aa0fcb000913970d,62c53a03fdfb271f81d01cbb,2022-07-06_09h31.52.991,Colour_Asymmetry_Pilot,2022.1.3,Win32,143.9055979,62c50e9c1127f2cd403a315f,,,,,,,,,,,,,,,,,,,,,,,,,,,,,,,,,,,,,,,,,,,,,,,,,,,,,,,,,,,,,,,,,,,,,,,,,,,,,,,,,,,,,,,,,,,,,,,,,,,,,,,,,,,,,,,,,,,,,,,,,,,,,,,,,,,,,,,,,,,,,,,,,,,,,,,,,,,,,,,,,,,
0,65,65,71,1,,5e7fd320aa0fcb000913970d,62c53a03fdfb271f81d01cbb,2022-07-06_09h31.52.991,Colour_Asymmetry_Pilot,2022.1.3,Win32,143.9055979,62c50e9c1127f2cd403a315f,,,,,,,,,,,,,,,,,,,,,,,,,,,,,,,,,,,,,,,,,,,,,,,,,,,,,,,,,,,,,,,,,,,,,,,,,,,,,,,,,,,,,,,,,,,,,,,,,,,,,,,,,,,,,,,,,,,,,,,,,,,,,,,,,,,,,,,,,,,,,,,,,,,,,,,,,,,,,,,,,,,
0,66,66,91,1,,5e7fd320aa0fcb000913970d,62c53a03fdfb271f81d01cbb,2022-07-06_09h31.52.991,Colour_Asymmetry_Pilot,2022.1.3,Win32,143.9055979,62c50e9c1127f2cd403a315f,,,,,,,,,,,,,,,,,,,,,,,,,,,,,,,,,,,,,,,,,,,,,,,,,,,,,,,,,,,,,,,,,,,,,,,,,,,,,,,,,,,,,,,,,,,,,,,,,,,,,,,,,,,,,,,,,,,,,,,,,,,,,,,,,,,,,,,,,,,,,,,,,,,,,,,,,,,,,,,,,,,
0,67,67,11,1,,5e7fd320aa0fcb000913970d,62c53a03fdfb271f81d01cbb,2022-07-06_09h31.52.991,Colour_Asymmetry_Pilot,2022.1.3,Win32,143.9055979,62c50e9c1127f2cd403a315f,,,,,,,,,,,,,,,,,,,,,,,,,,,,,,,,,,,,,,,,,,,,,,,,,,,,,,,,,,,,,,,,,,,,,,,,,,,,,,,,,,,,,,,,,,,,,,,,,,,,,,,,,,,,,,,,,,,,,,,,,,,,,,,,,,,,,,,,,,,,,,,,,,,,,,,,,,,,,,,,,,,
0,68,68,28,1,,5e7fd320aa0fcb000913970d,62c53a03fdfb271f81d01cbb,2022-07-06_09h31.52.991,Colour_Asymmetry_Pilot,2022.1.3,Win32,143.9055979,62c50e9c1127f2cd403a315f,,,,,,,,,,,,,,,,,,,,,,,,,,,,,,,,,,,,,,,,,,,,,,,,,,,,,,,,,,,,,,,,,,,,,,,,,,,,,,,,,,,,,,,,,,,,,,,,,,,,,,,,,,,,,,,,,,,,,,,,,,,,,,,,,,,,,,,,,,,,,,,,,,,,,,,,,,,,,,,,,,,
0,69,69,54,1,,5e7fd320aa0fcb000913970d,62c53a03fdfb271f81d01cbb,2022-07-06_09h31.52.991,Colour_Asymmetry_Pilot,2022.1.3,Win32,143.9055979,62c50e9c1127f2cd403a315f,,,,,,,,,,,,,,,,,,,,,,,,,,,,,,,,,,,,,,,,,,,,,,,,,,,,,,,,,,,,,,,,,,,,,,,,,,,,,,,,,,,,,,,,,,,,,,,,,,,,,,,,,,,,,,,,,,,,,,,,,,,,,,,,,,,,,,,,,,,,,,,,,,,,,,,,,,,,,,,,,,,
0,70,70,66,1,,5e7fd320aa0fcb000913970d,62c53a03fdfb271f81d01cbb,2022-07-06_09h31.52.991,Colour_Asymmetry_Pilot,2022.1.3,Win32,143.9055979,62c50e9c1127f2cd403a315f,,,,,,,,,,,,,,,,,,,,,,,,,,,,,,,,,,,,,,,,,,,,,,,,,,,,,,,,,,,,,,,,,,,,,,,,,,,,,,,,,,,,,,,,,,,,,,,,,,,,,,,,,,,,,,,,,,,,,,,,,,,,,,,,,,,,,,,,,,,,,,,,,,,,,,,,,,,,,,,,,,,
0,71,71,51,1,,5e7fd320aa0fcb000913970d,62c53a03fdfb271f81d01cbb,2022-07-06_09h31.52.991,Colour_Asymmetry_Pilot,2022.1.3,Win32,143.9055979,62c50e9c1127f2cd403a315f,,,,,,,,,,,,,,,,,,,,,,,,,,,,,,,,,,,,,,,,,,,,,,,,,,,,,,,,,,,,,,,,,,,,,,,,,,,,,,,,,,,,,,,,,,,,,,,,,,,,,,,,,,,,,,,,,,,,,,,,,,,,,,,,,,,,,,,,,,,,,,,,,,,,,,,,,,,,,,,,,,,
0,72,72,55,1,,5e7fd320aa0fcb000913970d,62c53a03fdfb271f81d01cbb,2022-07-06_09h31.52.991,Colour_Asymmetry_Pilot,2022.1.3,Win32,143.9055979,62c50e9c1127f2cd403a315f,,,,,,,,,,,,,,,,,,,,,,,,,,,,,,,,,,,,,,,,,,,,,,,,,,,,,,,,,,,,,,,,,,,,,,,,,,,,,,,,,,,,,,,,,,,,,,,,,,,,,,,,,,,,,,,,,,,,,,,,,,,,,,,,,,,,,,,,,,,,,,,,,,,,,,,,,,,,,,,,,,,
0,73,73,48,1,,5e7fd320aa0fcb000913970d,62c53a03fdfb271f81d01cbb,2022-07-06_09h31.52.991,Colour_Asymmetry_Pilot,2022.1.3,Win32,143.9055979,62c50e9c1127f2cd403a315f,,,,,,,,,,,,,,,,,,,,,,,,,,,,,,,,,,,,,,,,,,,,,,,,,,,,,,,,,,,,,,,,,,,,,,,,,,,,,,,,,,,,,,,,,,,,,,,,,,,,,,,,,,,,,,,,,,,,,,,,,,,,,,,,,,,,,,,,,,,,,,,,,,,,,,,,,,,,,,,,,,,
0,74,74,6,1,,5e7fd320aa0fcb000913970d,62c53a03fdfb271f81d01cbb,2022-07-06_09h31.52.991,Colour_Asymmetry_Pilot,2022.1.3,Win32,143.9055979,62c50e9c1127f2cd403a315f,,,,,,,,,,,,,,,,,,,,,,,,,,,,,,,,,,,,,,,,,,,,,,,,,,,,,,,,,,,,,,,,,,,,,,,,,,,,,,,,,,,,,,,,,,,,,,,,,,,,,,,,,,,,,,,,,,,,,,,,,,,,,,,,,,,,,,,,,,,,,,,,,,,,,,,,,,,,,,,,,,,
0,75,75,43,1,,5e7fd320aa0fcb000913970d,62c53a03fdfb271f81d01cbb,2022-07-06_09h31.52.991,Colour_Asymmetry_Pilot,2022.1.3,Win32,143.9055979,62c50e9c1127f2cd403a315f,,,,,,,,,,,,,,,,,,,,,,,,,,,,,,,,,,,,,,,,,,,,,,,,,,,,,,,,,,,,,,,,,,,,,,,,,,,,,,,,,,,,,,,,,,,,,,,,,,,,,,,,,,,,,,,,,,,,,,,,,,,,,,,,,,,,,,,,,,,,,,,,,,,,,,,,,,,,,,,,,,,
0,76,76,13,1,,5e7fd320aa0fcb000913970d,62c53a03fdfb271f81d01cbb,2022-07-06_09h31.52.991,Colour_Asymmetry_Pilot,2022.1.3,Win32,143.9055979,62c50e9c1127f2cd403a315f,,,,,,,,,,,,,,,,,,,,,,,,,,,,,,,,,,,,,,,,,,,,,,,,,,,,,,,,,,,,,,,,,,,,,,,,,,,,,,,,,,,,,,,,,,,,,,,,,,,,,,,,,,,,,,,,,,,,,,,,,,,,,,,,,,,,,,,,,,,,,,,,,,,,,,,,,,,,,,,,,,,
0,77,77,18,1,,5e7fd320aa0fcb000913970d,62c53a03fdfb271f81d01cbb,2022-07-06_09h31.52.991,Colour_Asymmetry_Pilot,2022.1.3,Win32,143.9055979,62c50e9c1127f2cd403a315f,,,,,,,,,,,,,,,,,,,,,,,,,,,,,,,,,,,,,,,,,,,,,,,,,,,,,,,,,,,,,,,,,,,,,,,,,,,,,,,,,,,,,,,,,,,,,,,,,,,,,,,,,,,,,,,,,,,,,,,,,,,,,,,,,,,,,,,,,,,,,,,,,,,,,,,,,,,,,,,,,,,
0,78,78,22,1,,5e7fd320aa0fcb000913970d,62c53a03fdfb271f81d01cbb,2022-07-06_09h31.52.991,Colour_Asymmetry_Pilot,2022.1.3,Win32,143.9055979,62c50e9c1127f2cd403a315f,,,,,,,,,,,,,,,,,,,,,,,,,,,,,,,,,,,,,,,,,,,,,,,,,,,,,,,,,,,,,,,,,,,,,,,,,,,,,,,,,,,,,,,,,,,,,,,,,,,,,,,,,,,,,,,,,,,,,,,,,,,,,,,,,,,,,,,,,,,,,,,,,,,,,,,,,,,,,,,,,,,
0,79,79,65,1,,5e7fd320aa0fcb000913970d,62c53a03fdfb271f81d01cbb,2022-07-06_09h31.52.991,Colour_Asymmetry_Pilot,2022.1.3,Win32,143.9055979,62c50e9c1127f2cd403a315f,,,,,,,,,,,,,,,,,,,,,,,,,,,,,,,,,,,,,,,,,,,,,,,,,,,,,,,,,,,,,,,,,,,,,,,,,,,,,,,,,,,,,,,,,,,,,,,,,,,,,,,,,,,,,,,,,,,,,,,,,,,,,,,,,,,,,,,,,,,,,,,,,,,,,,,,,,,,,,,,,,,
0,80,80,31,1,,5e7fd320aa0fcb000913970d,62c53a03fdfb271f81d01cbb,2022-07-06_09h31.52.991,Colour_Asymmetry_Pilot,2022.1.3,Win32,143.9055979,62c50e9c1127f2cd403a315f,,,,,,,,,,,,,,,,,,,,,,,,,,,,,,,,,,,,,,,,,,,,,,,,,,,,,,,,,,,,,,,,,,,,,,,,,,,,,,,,,,,,,,,,,,,,,,,,,,,,,,,,,,,,,,,,,,,,,,,,,,,,,,,,,,,,,,,,,,,,,,,,,,,,,,,,,,,,,,,,,,,
0,81,81,85,1,,5e7fd320aa0fcb000913970d,62c53a03fdfb271f81d01cbb,2022-07-06_09h31.52.991,Colour_Asymmetry_Pilot,2022.1.3,Win32,143.9055979,62c50e9c1127f2cd403a315f,,,,,,,,,,,,,,,,,,,,,,,,,,,,,,,,,,,,,,,,,,,,,,,,,,,,,,,,,,,,,,,,,,,,,,,,,,,,,,,,,,,,,,,,,,,,,,,,,,,,,,,,,,,,,,,,,,,,,,,,,,,,,,,,,,,,,,,,,,,,,,,,,,,,,,,,,,,,,,,,,,,
0,82,82,21,1,,5e7fd320aa0fcb000913970d,62c53a03fdfb271f81d01cbb,2022-07-06_09h31.52.991,Colour_Asymmetry_Pilot,2022.1.3,Win32,143.9055979,62c50e9c1127f2cd403a315f,,,,,,,,,,,,,,,,,,,,,,,,,,,,,,,,,,,,,,,,,,,,,,,,,,,,,,,,,,,,,,,,,,,,,,,,,,,,,,,,,,,,,,,,,,,,,,,,,,,,,,,,,,,,,,,,,,,,,,,,,,,,,,,,,,,,,,,,,,,,,,,,,,,,,,,,,,,,,,,,,,,
0,83,83,56,1,,5e7fd320aa0fcb000913970d,62c53a03fdfb271f81d01cbb,2022-07-06_09h31.52.991,Colour_Asymmetry_Pilot,2022.1.3,Win32,143.9055979,62c50e9c1127f2cd403a315f,,,,,,,,,,,,,,,,,,,,,,,,,,,,,,,,,,,,,,,,,,,,,,,,,,,,,,,,,,,,,,,,,,,,,,,,,,,,,,,,,,,,,,,,,,,,,,,,,,,,,,,,,,,,,,,,,,,,,,,,,,,,,,,,,,,,,,,,,,,,,,,,,,,,,,,,,,,,,,,,,,,
0,84,84,60,1,,5e7fd320aa0fcb000913970d,62c53a03fdfb271f81d01cbb,2022-07-06_09h31.52.991,Colour_Asymmetry_Pilot,2022.1.3,Win32,143.9055979,62c50e9c1127f2cd403a315f,,,,,,,,,,,,,,,,,,,,,,,,,,,,,,,,,,,,,,,,,,,,,,,,,,,,,,,,,,,,,,,,,,,,,,,,,,,,,,,,,,,,,,,,,,,,,,,,,,,,,,,,,,,,,,,,,,,,,,,,,,,,,,,,,,,,,,,,,,,,,,,,,,,,,,,,,,,,,,,,,,,
0,85,85,83,1,,5e7fd320aa0fcb000913970d,62c53a03fdfb271f81d01cbb,2022-07-06_09h31.52.991,Colour_Asymmetry_Pilot,2022.1.3,Win32,143.9055979,62c50e9c1127f2cd403a315f,,,,,,,,,,,,,,,,,,,,,,,,,,,,,,,,,,,,,,,,,,,,,,,,,,,,,,,,,,,,,,,,,,,,,,,,,,,,,,,,,,,,,,,,,,,,,,,,,,,,,,,,,,,,,,,,,,,,,,,,,,,,,,,,,,,,,,,,,,,,,,,,,,,,,,,,,,,,,,,,,,,
0,86,86,52,1,,5e7fd320aa0fcb000913970d,62c53a03fdfb271f81d01cbb,2022-07-06_09h31.52.991,Colour_Asymmetry_Pilot,2022.1.3,Win32,143.9055979,62c50e9c1127f2cd403a315f,,,,,,,,,,,,,,,,,,,,,,,,,,,,,,,,,,,,,,,,,,,,,,,,,,,,,,,,,,,,,,,,,,,,,,,,,,,,,,,,,,,,,,,,,,,,,,,,,,,,,,,,,,,,,,,,,,,,,,,,,,,,,,,,,,,,,,,,,,,,,,,,,,,,,,,,,,,,,,,,,,,
0,87,87,78,1,,5e7fd320aa0fcb000913970d,62c53a03fdfb271f81d01cbb,2022-07-06_09h31.52.991,Colour_Asymmetry_Pilot,2022.1.3,Win32,143.9055979,62c50e9c1127f2cd403a315f,,,,,,,,,,,,,,,,,,,,,,,,,,,,,,,,,,,,,,,,,,,,,,,,,,,,,,,,,,,,,,,,,,,,,,,,,,,,,,,,,,,,,,,,,,,,,,,,,,,,,,,,,,,,,,,,,,,,,,,,,,,,,,,,,,,,,,,,,,,,,,,,,,,,,,,,,,,,,,,,,,,
0,88,88,41,1,,5e7fd320aa0fcb000913970d,62c53a03fdfb271f81d01cbb,2022-07-06_09h31.52.991,Colour_Asymmetry_Pilot,2022.1.3,Win32,143.9055979,62c50e9c1127f2cd403a315f,,,,,,,,,,,,,,,,,,,,,,,,,,,,,,,,,,,,,,,,,,,,,,,,,,,,,,,,,,,,,,,,,,,,,,,,,,,,,,,,,,,,,,,,,,,,,,,,,,,,,,,,,,,,,,,,,,,,,,,,,,,,,,,,,,,,,,,,,,,,,,,,,,,,,,,,,,,,,,,,,,,
0,89,89,1,1,,5e7fd320aa0fcb000913970d,62c53a03fdfb271f81d01cbb,2022-07-06_09h31.52.991,Colour_Asymmetry_Pilot,2022.1.3,Win32,143.9055979,62c50e9c1127f2cd403a315f,,,,,,,,,,,,,,,,,,,,,,,,,,,,,,,,,,,,,,,,,,,,,,,,,,,,,,,,,,,,,,,,,,,,,,,,,,,,,,,,,,,,,,,,,,,,,,,,,,,,,,,,,,,,,,,,,,,,,,,,,,,,,,,,,,,,,,,,,,,,,,,,,,,,,,,,,,,,,,,,,,,
0,90,90,2,1,,5e7fd320aa0fcb000913970d,62c53a03fdfb271f81d01cbb,2022-07-06_09h31.52.991,Colour_Asymmetry_Pilot,2022.1.3,Win32,143.9055979,62c50e9c1127f2cd403a315f,,,,,,,,,,,,,,,,,,,,,,,,,,,,,,,,,,,,,,,,,,,,,,,,,,,,,,,,,,,,,,,,,,,,,,,,,,,,,,,,,,,,,,,,,,,,,,,,,,,,,,,,,,,,,,,,,,,,,,,,,,,,,,,,,,,,,,,,,,,,,,,,,,,,,,,,,,,,,,,,,,,
0,91,91,92,1,,5e7fd320aa0fcb000913970d,62c53a03fdfb271f81d01cbb,2022-07-06_09h31.52.991,Colour_Asymmetry_Pilot,2022.1.3,Win32,143.9055979,62c50e9c1127f2cd403a315f,,,,,,,,,,,,,,,,,,,,,,,,,,,,,,,,,,,,,,,,,,,,,,,,,,,,,,,,,,,,,,,,,,,,,,,,,,,,,,,,,,,,,,,,,,,,,,,,,,,,,,,,,,,,,,,,,,,,,,,,,,,,,,,,,,,,,,,,,,,,,,,,,,,,,,,,,,,,,,,,,,,
0,92,92,73,1,,5e7fd320aa0fcb000913970d,62c53a03fdfb271f81d01cbb,2022-07-06_09h31.52.991,Colour_Asymmetry_Pilot,2022.1.3,Win32,143.9055979,62c50e9c1127f2cd403a315f,,,,,,,,,,,,,,,,,,,,,,,,,,,,,,,,,,,,,,,,,,,,,,,,,,,,,,,,,,,,,,,,,,,,,,,,,,,,,,,,,,,,,,,,,,,,,,,,,,,,,,,,,,,,,,,,,,,,,,,,,,,,,,,,,,,,,,,,,,,,,,,,,,,,,,,,,,,,,,,,,,,
,,,,,,5e7fd320aa0fcb000913970d,62c53a03fdfb271f81d01cbb,2022-07-06_09h31.52.991,Colour_Asymmetry_Pilot,2022.1.3,Win32,143.9055979,62c50e9c1127f2cd403a315f,0,0,0,139,1,twofour,,,,,,,,,,,,,,,,,,,,,,,,,,,,,,,,,,,,,,,,,,,,,,,,,,,,,,,,,,,,,,,,,,,,,,,,,,,,,,,,,,,,,,,,,,,,,,,,,,,,,,,,,,,,,,,,,,,,,,,,,,,,,,,,,,,,,,,,,,,,,,,,,,,,,,,,,,,,,
,,,,,,5e7fd320aa0fcb000913970d,62c53a03fdfb271f81d01cbb,2022-07-06_09h31.52.991,Colour_Asymmetry_Pilot,2022.1.3,Win32,143.9055979,62c50e9c1127f2cd403a315f,0,1,1,3,1,twofour,,,,,,,,,,,,,,,,,,,,,,,,,,,,,,,,,,,,,,,,,,,,,,,,,,,,,,,,,,,,,,,,,,,,,,,,,,,,,,,,,,,,,,,,,,,,,,,,,,,,,,,,,,,,,,,,,,,,,,,,,,,,,,,,,,,,,,,,,,,,,,,,,,,,,,,,,,,,,
,,,,,,5e7fd320aa0fcb000913970d,62c53a03fdfb271f81d01cbb,2022-07-06_09h31.52.991,Colour_Asymmetry_Pilot,2022.1.3,Win32,143.9055979,62c50e9c1127f2cd403a315f,0,2,2,57,1,onethree,,,,,,,,,,,,,,,,,,,,,,,,,,,,,,,,,,,,,,,,,,,,,,,,,,,,,,,,,,,,,,,,,,,,,,,,,,,,,,,,,,,,,,,,,,,,,,,,,,,,,,,,,,,,,,,,,,,,,,,,,,,,,,,,,,,,,,,,,,,,,,,,,,,,,,,,,,,,,
,,,,,,5e7fd320aa0fcb000913970d,62c53a03fdfb271f81d01cbb,2022-07-06_09h31.52.991,Colour_Asymmetry_Pilot,2022.1.3,Win32,143.9055979,62c50e9c1127f2cd403a315f,0,3,3,112,1,onetwo,,,,,,,,,,,,,,,,,,,,,,,,,,,,,,,,,,,,,,,,,,,,,,,,,,,,,,,,,,,,,,,,,,,,,,,,,,,,,,,,,,,,,,,,,,,,,,,,,,,,,,,,,,,,,,,,,,,,,,,,,,,,,,,,,,,,,,,,,,,,,,,,,,,,,,,,,,,,,
,,,,,,5e7fd320aa0fcb000913970d,62c53a03fdfb271f81d01cbb,2022-07-06_09h31.52.991,Colour_Asymmetry_Pilot,2022.1.3,Win32,143.9055979,62c50e9c1127f2cd403a315f,0,4,4,113,1,onethree,,,,,,,,,,,,,,,,,,,,,,,,,,,,,,,,,,,,,,,,,,,,,,,,,,,,,,,,,,,,,,,,,,,,,,,,,,,,,,,,,,,,,,,,,,,,,,,,,,,,,,,,,,,,,,,,,,,,,,,,,,,,,,,,,,,,,,,,,,,,,,,,,,,,,,,,,,,,,
,,,,,,5e7fd320aa0fcb000913970d,62c53a03fdfb271f81d01cbb,2022-07-06_09h31.52.991,Colour_Asymmetry_Pilot,2022.1.3,Win32,143.9055979,62c50e9c1127f2cd403a315f,0,5,5,153,1,onethree,,,,,,,,,,,,,,,,,,,,,,,,,,,,,,,,,,,,,,,,,,,,,,,,,,,,,,,,,,,,,,,,,,,,,,,,,,,,,,,,,,,,,,,,,,,,,,,,,,,,,,,,,,,,,,,,,,,,,,,,,,,,,,,,,,,,,,,,,,,,,,,,,,,,,,,,,,,,,
,,,,,,5e7fd320aa0fcb000913970d,62c53a03fdfb271f81d01cbb,2022-07-06_09h31.52.991,Colour_Asymmetry_Pilot,2022.1.3,Win32,143.9055979,62c50e9c1127f2cd403a315f,0,6,6,14,1,fourtwo,,,,,,,,,,,,,,,,,,,,,,,,,,,,,,,,,,,,,,,,,,,,,,,,,,,,,,,,,,,,,,,,,,,,,,,,,,,,,,,,,,,,,,,,,,,,,,,,,,,,,,,,,,,,,,,,,,,,,,,,,,,,,,,,,,,,,,,,,,,,,,,,,,,,,,,,,,,,,
,,,,,,5e7fd320aa0fcb000913970d,62c53a03fdfb271f81d01cbb,2022-07-06_09h31.52.991,Colour_Asymmetry_Pilot,2022.1.3,Win32,143.9055979,62c50e9c1127f2cd403a315f,0,7,7,12,1,threeone,,,,,,,,,,,,,,,,,,,,,,,,,,,,,,,,,,,,,,,,,,,,,,,,,,,,,,,,,,,,,,,,,,,,,,,,,,,,,,,,,,,,,,,,,,,,,,,,,,,,,,,,,,,,,,,,,,,,,,,,,,,,,,,,,,,,,,,,,,,,,,,,,,,,,,,,,,,,,
,,,,,,5e7fd320aa0fcb000913970d,62c53a03fdfb271f81d01cbb,2022-07-06_09h31.52.991,Colour_Asymmetry_Pilot,2022.1.3,Win32,143.9055979,62c50e9c1127f2cd403a315f,0,8,8,145,1,onethree,,,,,,,,,,,,,,,,,,,,,,,,,,,,,,,,,,,,,,,,,,,,,,,,,,,,,,,,,,,,,,,,,,,,,,,,,,,,,,,,,,,,,,,,,,,,,,,,,,,,,,,,,,,,,,,,,,,,,,,,,,,,,,,,,,,,,,,,,,,,,,,,,,,,,,,,,,,,,
,,,,,,5e7fd320aa0fcb000913970d,62c53a03fdfb271f81d01cbb,2022-07-06_09h31.52.991,Colour_Asymmetry_Pilot,2022.1.3,Win32,143.9055979,62c50e9c1127f2cd403a315f,0,9,9,117,1,threefour,,,,,,,,,,,,,,,,,,,,,,,,,,,,,,,,,,,,,,,,,,,,,,,,,,,,,,,,,,,,,,,,,,,,,,,,,,,,,,,,,,,,,,,,,,,,,,,,,,,,,,,,,,,,,,,,,,,,,,,,,,,,,,,,,,,,,,,,,,,,,,,,,,,,,,,,,,,,,
,,,,,,5e7fd320aa0fcb000913970d,62c53a03fdfb271f81d01cbb,2022-07-06_09h31.52.991,Colour_Asymmetry_Pilot,2022.1.3,Win32,143.9055979,62c50e9c1127f2cd403a315f,0,10,10,119,1,fourthree,,,,,,,,,,,,,,,,,,,,,,,,,,,,,,,,,,,,,,,,,,,,,,,,,,,,,,,,,,,,,,,,,,,,,,,,,,,,,,,,,,,,,,,,,,,,,,,,,,,,,,,,,,,,,,,,,,,,,,,,,,,,,,,,,,,,,,,,,,,,,,,,,,,,,,,,,,,,,
,,,,,,5e7fd320aa0fcb000913970d,62c53a03fdfb271f81d01cbb,2022-07-06_09h31.52.991,Colour_Asymmetry_Pilot,2022.1.3,Win32,143.9055979,62c50e9c1127f2cd403a315f,0,11,11,118,1,fourtwo,,,,,,,,,,,,,,,,,,,,,,,,,,,,,,,,,,,,,,,,,,,,,,,,,,,,,,,,,,,,,,,,,,,,,,,,,,,,,,,,,,,,,,,,,,,,,,,,,,,,,,,,,,,,,,,,,,,,,,,,,,,,,,,,,,,,,,,,,,,,,,,,,,,,,,,,,,,,,
,,,,,,5e7fd320aa0fcb000913970d,62c53a03fdfb271f81d01cbb,2022-07-06_09h31.52.991,Colour_Asymmetry_Pilot,2022.1.3,Win32,143.9055979,62c50e9c1127f2cd403a315f,0,12,12,155,1,twofour,,,,,,,,,,,,,,,,,,,,,,,,,,,,,,,,,,,,,,,,,,,,,,,,,,,,,,,,,,,,,,,,,,,,,,,,,,,,,,,,,,,,,,,,,,,,,,,,,,,,,,,,,,,,,,,,,,,,,,,,,,,,,,,,,,,,,,,,,,,,,,,,,,,,,,,,,,,,,
,,,,,,5e7fd320aa0fcb000913970d,62c53a03fdfb271f81d01cbb,2022-07-06_09h31.52.991,Colour_Asymmetry_Pilot,2022.1.3,Win32,143.9055979,62c50e9c1127f2cd403a315f,0,13,13,124,1,threeone,,,,,,,,,,,,,,,,,,,,,,,,,,,,,,,,,,,,,,,,,,,,,,,,,,,,,,,,,,,,,,,,,,,,,,,,,,,,,,,,,,,,,,,,,,,,,,,,,,,,,,,,,,,,,,,,,,,,,,,,,,,,,,,,,,,,,,,,,,,,,,,,,,,,,,,,,,,,,
,,,,,,5e7fd320aa0fcb000913970d,62c53a03fdfb271f81d01cbb,2022-07-06_09h31.52.991,Colour_Asymmetry_Pilot,2022.1.3,Win32,143.9055979,62c50e9c1127f2cd403a315f,0,14,14,123,1,twofour,,,,,,,,,,,,,,,,,,,,,,,,,,,,,,,,,,,,,,,,,,,,,,,,,,,,,,,,,,,,,,,,,,,,,,,,,,,,,,,,,,,,,,,,,,,,,,,,,,,,,,,,,,,,,,,,,,,,,,,,,,,,,,,,,,,,,,,,,,,,,,,,,,,,,,,,,,,,,
,,,,,,5e7fd320aa0fcb000913970d,62c53a03fdfb271f81d01cbb,2022-07-06_09h31.52.991,Colour_Asymmetry_Pilot,2022.1.3,Win32,143.9055979,62c50e9c1127f2cd403a315f,0,15,15,15,1,fourthree,,,,,,,,,,,,,,,,,,,,,,,,,,,,,,,,,,,,,,,,,,,,,,,,,,,,,,,,,,,,,,,,,,,,,,,,,,,,,,,,,,,,,,,,,,,,,,,,,,,,,,,,,,,,,,,,,,,,,,,,,,,,,,,,,,,,,,,,,,,,,,,,,,,,,,,,,,,,,
,,,,,,5e7fd320aa0fcb000913970d,62c53a03fdfb271f81d01cbb,2022-07-06_09h31.52.991,Colour_Asymmetry_Pilot,2022.1.3,Win32,143.9055979,62c50e9c1127f2cd403a315f,0,16,16,80,1,onetwo,,,,,,,,,,,,,,,,,,,,,,,,,,,,,,,,,,,,,,,,,,,,,,,,,,,,,,,,,,,,,,,,,,,,,,,,,,,,,,,,,,,,,,,,,,,,,,,,,,,,,,,,,,,,,,,,,,,,,,,,,,,,,,,,,,,,,,,,,,,,,,,,,,,,,,,,,,,,,
,,,,,,5e7fd320aa0fcb000913970d,62c53a03fdfb271f81d01cbb,2022-07-06_09h31.52.991,Colour_Asymmetry_Pilot,2022.1.3,Win32,143.9055979,62c50e9c1127f2cd403a315f,0,17,17,22,1,fourtwo,,,,,,,,,,,,,,,,,,,,,,,,,,,,,,,,,,,,,,,,,,,,,,,,,,,,,,,,,,,,,,,,,,,,,,,,,,,,,,,,,,,,,,,,,,,,,,,,,,,,,,,,,,,,,,,,,,,,,,,,,,,,,,,,,,,,,,,,,,,,,,,,,,,,,,,,,,,,,
,,,,,,5e7fd320aa0fcb000913970d,62c53a03fdfb271f81d01cbb,2022-07-06_09h31.52.991,Colour_Asymmetry_Pilot,2022.1.3,Win32,143.9055979,62c50e9c1127f2cd403a315f,0,18,18,86,1,fourtwo,,,,,,,,,,,,,,,,,,,,,,,,,,,,,,,,,,,,,,,,,,,,,,,,,,,,,,,,,,,,,,,,,,,,,,,,,,,,,,,,,,,,,,,,,,,,,,,,,,,,,,,,,,,,,,,,,,,,,,,,,,,,,,,,,,,,,,,,,,,,,,,,,,,,,,,,,,,,,
,,,,,,5e7fd320aa0fcb000913970d,62c53a03fdfb271f81d01cbb,2022-07-06_09h31.52.991,Colour_Asymmetry_Pilot,2022.1.3,Win32,143.9055979,62c50e9c1127f2cd403a315f,0,19,19,77,1,threefour,,,,,,,,,,,,,,,,,,,,,,,,,,,,,,,,,,,,,,,,,,,,,,,,,,,,,,,,,,,,,,,,,,,,,,,,,,,,,,,,,,,,,,,,,,,,,,,,,,,,,,,,,,,,,,,,,,,,,,,,,,,,,,,,,,,,,,,,,,,,,,,,,,,,,,,,,,,,,
,,,,,,5e7fd320aa0fcb000913970d,62c53a03fdfb271f81d01cbb,2022-07-06_09h31.52.991,Colour_Asymmetry_Pilot,2022.1.3,Win32,143.9055979,62c50e9c1127f2cd403a315f,0,20,20,90,1,twoone,,,,,,,,,,,,,,,,,,,,,,,,,,,,,,,,,,,,,,,,,,,,,,,,,,,,,,,,,,,,,,,,,,,,,,,,,,,,,,,,,,,,,,,,,,,,,,,,,,,,,,,,,,,,,,,,,,,,,,,,,,,,,,,,,,,,,,,,,,,,,,,,,,,,,,,,,,,,,
,,,,,,5e7fd320aa0fcb000913970d,62c53a03fdfb271f81d01cbb,2022-07-06_09h31.52.991,Colour_Asymmetry_Pilot,2022.1.3,Win32,143.9055979,62c50e9c1127f2cd403a315f,0,21,21,148,1,threeone,,,,,,,,,,,,,,,,,,,,,,,,,,,,,,,,,,,,,,,,,,,,,,,,,,,,,,,,,,,,,,,,,,,,,,,,,,,,,,,,,,,,,,,,,,,,,,,,,,,,,,,,,,,,,,,,,,,,,,,,,,,,,,,,,,,,,,,,,,,,,,,,,,,,,,,,,,,,,
,,,,,,5e7fd320aa0fcb000913970d,62c53a03fdfb271f81d01cbb,2022-07-06_09h31.52.991,Colour_Asymmetry_Pilot,2022.1.3,Win32,143.9055979,62c50e9c1127f2cd403a315f,0,22,22,137,1,onethree,,,,,,,,,,,,,,,,,,,,,,,,,,,,,,,,,,,,,,,,,,,,,,,,,,,,,,,,,,,,,,,,,,,,,,,,,,,,,,,,,,,,,,,,,,,,,,,,,,,,,,,,,,,,,,,,,,,,,,,,,,,,,,,,,,,,,,,,,,,,,,,,,,,,,,,,,,,,,
,,,,,,5e7fd320aa0fcb000913970d,62c53a03fdfb271f81d01cbb,2022-07-06_09h31.52.991,Colour_Asymmetry_Pilot,2022.1.3,Win32,143.9055979,62c50e9c1127f2cd403a315f,0,23,23,66,1,twoone,,,,,,,,,,,,,,,,,,,,,,,,,,,,,,,,,,,,,,,,,,,,,,,,,,,,,,,,,,,,,,,,,,,,,,,,,,,,,,,,,,,,,,,,,,,,,,,,,,,,,,,,,,,,,,,,,,,,,,,,,,,,,,,,,,,,,,,,,,,,,,,,,,,,,,,,,,,,,
,,,,,,5e7fd320aa0fcb000913970d,62c53a03fdfb271f81d01cbb,2022-07-06_09h31.52.991,Colour_Asymmetry_Pilot,2022.1.3,Win32,143.9055979,62c50e9c1127f2cd403a315f,0,24,24,93,1,threefour,,,,,,,,,,,,,,,,,,,,,,,,,,,,,,,,,,,,,,,,,,,,,,,,,,,,,,,,,,,,,,,,,,,,,,,,,,,,,,,,,,,,,,,,,,,,,,,,,,,,,,,,,,,,,,,,,,,,,,,,,,,,,,,,,,,,,,,,,,,,,,,,,,,,,,,,,,,,,
,,,,,,5e7fd320aa0fcb000913970d,62c53a03fdfb271f81d01cbb,2022-07-06_09h31.52.991,Colour_Asymmetry_Pilot,2022.1.3,Win32,143.9055979,62c50e9c1127f2cd403a315f,0,25,25,23,1,fourthree,,,,,,,,,,,,,,,,,,,,,,,,,,,,,,,,,,,,,,,,,,,,,,,,,,,,,,,,,,,,,,,,,,,,,,,,,,,,,,,,,,,,,,,,,,,,,,,,,,,,,,,,,,,,,,,,,,,,,,,,,,,,,,,,,,,,,,,,,,,,,,,,,,,,,,,,,,,,,
,,,,,,5e7fd320aa0fcb000913970d,62c53a03fdfb271f81d01cbb,2022-07-06_09h31.52.991,Colour_Asymmetry_Pilot,2022.1.3,Win32,143.9055979,62c50e9c1127f2cd403a315f,0,26,26,60,1,threeone,,,,,,,,,,,,,,,,,,,,,,,,,,,,,,,,,,,,,,,,,,,,,,,,,,,,,,,,,,,,,,,,,,,,,,,,,,,,,,,,,,,,,,,,,,,,,,,,,,,,,,,,,,,,,,,,,,,,,,,,,,,,,,,,,,,,,,,,,,,,,,,,,,,,,,,,,,,,,
,,,,,,5e7fd320aa0fcb000913970d,62c53a03fdfb271f81d01cbb,2022-07-06_09h31.52.991,Colour_Asymmetry_Pilot,2022.1.3,Win32,143.9055979,62c50e9c1127f2cd403a315f,0,27,27,36,1,threeone,,,,,,,,,,,,,,,,,,,,,,,,,,,,,,,,,,,,,,,,,,,,,,,,,,,,,,,,,,,,,,,,,,,,,,,,,,,,,,,,,,,,,,,,,,,,,,,,,,,,,,,,,,,,,,,,,,,,,,,,,,,,,,,,,,,,,,,,,,,,,,,,,,,,,,,,,,,,,
,,,,,,5e7fd320aa0fcb000913970d,62c53a03fdfb271f81d01cbb,2022-07-06_09h31.52.991,Colour_Asymmetry_Pilot,2022.1.3,Win32,143.9055979,62c50e9c1127f2cd403a315f,0,28,28,55,1,fourthree,,,,,,,,,,,,,,,,,,,,,,,,,,,,,,,,,,,,,,,,,,,,,,,,,,,,,,,,,,,,,,,,,,,,,,,,,,,,,,,,,,,,,,,,,,,,,,,,,,,,,,,,,,,,,,,,,,,,,,,,,,,,,,,,,,,,,,,,,,,,,,,,,,,,,,,,,,,,,
,,,,,,5e7fd320aa0fcb000913970d,62c53a03fdfb271f81d01cbb,2022-07-06_09h31.52.991,Colour_Asymmetry_Pilot,2022.1.3,Win32,143.9055979,62c50e9c1127f2cd403a315f,0,29,29,85,1,threefour,,,,,,,,,,,,,,,,,,,,,,,,,,,,,,,,,,,,,,,,,,,,,,,,,,,,,,,,,,,,,,,,,,,,,,,,,,,,,,,,,,,,,,,,,,,,,,,,,,,,,,,,,,,,,,,,,,,,,,,,,,,,,,,,,,,,,,,,,,,,,,,,,,,,,,,,,,,,,
,,,,,,5e7fd320aa0fcb000913970d,62c53a03fdfb271f81d01cbb,2022-07-06_09h31.52.991,Colour_Asymmetry_Pilot,2022.1.3,Win32,143.9055979,62c50e9c1127f2cd403a315f,0,30,30,154,1,twoone,,,,,,,,,,,,,,,,,,,,,,,,,,,,,,,,,,,,,,,,,,,,,,,,,,,,,,,,,,,,,,,,,,,,,,,,,,,,,,,,,,,,,,,,,,,,,,,,,,,,,,,,,,,,,,,,,,,,,,,,,,,,,,,,,,,,,,,,,,,,,,,,,,,,,,,,,,,,,
,,,,,,5e7fd320aa0fcb000913970d,62c53a03fdfb271f81d01cbb,2022-07-06_09h31.52.991,Colour_Asymmetry_Pilot,2022.1.3,Win32,143.9055979,62c50e9c1127f2cd403a315f,0,31,31,143,1,fourthree,,,,,,,,,,,,,,,,,,,,,,,,,,,,,,,,,,,,,,,,,,,,,,,,,,,,,,,,,,,,,,,,,,,,,,,,,,,,,,,,,,,,,,,,,,,,,,,,,,,,,,,,,,,,,,,,,,,,,,,,,,,,,,,,,,,,,,,,,,,,,,,,,,,,,,,,,,,,,
,,,,,,5e7fd320aa0fcb000913970d,62c53a03fdfb271f81d01cbb,2022-07-06_09h31.52.991,Colour_Asymmetry_Pilot,2022.1.3,Win32,143.9055979,62c50e9c1127f2cd403a315f,0,32,32,39,1,fourthree,,,,,,,,,,,,,,,,,,,,,,,,,,,,,,,,,,,,,,,,,,,,,,,,,,,,,,,,,,,,,,,,,,,,,,,,,,,,,,,,,,,,,,,,,,,,,,,,,,,,,,,,,,,,,,,,,,,,,,,,,,,,,,,,,,,,,,,,,,,,,,,,,,,,,,,,,,,,,
,,,,,,5e7fd320aa0fcb000913970d,62c53a03fdfb271f81d01cbb,2022-07-06_09h31.52.991,Colour_Asymmetry_Pilot,2022.1.3,Win32,143.9055979,62c50e9c1127f2cd403a315f,0,33,33,61,1,threefour,,,,,,,,,,,,,,,,,,,,,,,,,,,,,,,,,,,,,,,,,,,,,,,,,,,,,,,,,,,,,,,,,,,,,,,,,,,,,,,,,,,,,,,,,,,,,,,,,,,,,,,,,,,,,,,,,,,,,,,,,,,,,,,,,,,,,,,,,,,,,,,,,,,,,,,,,,,,,
,,,,,,5e7fd320aa0fcb000913970d,62c53a03fdfb271f81d01cbb,2022-07-06_09h31.52.991,Colour_Asymmetry_Pilot,2022.1.3,Win32,143.9055979,62c50e9c1127f2cd403a315f,0,34,34,38,1,fourtwo,,,,,,,,,,,,,,,,,,,,,,,,,,,,,,,,,,,,,,,,,,,,,,,,,,,,,,,,,,,,,,,,,,,,,,,,,,,,,,,,,,,,,,,,,,,,,,,,,,,,,,,,,,,,,,,,,,,,,,,,,,,,,,,,,,,,,,,,,,,,,,,,,,,,,,,,,,,,,
,,,,,,5e7fd320aa0fcb000913970d,62c53a03fdfb271f81d01cbb,2022-07-06_09h31.52.991,Colour_Asymmetry_Pilot,2022.1.3,Win32,143.9055979,62c50e9c1127f2cd403a315f,0,35,35,76,1,threeone,,,,,,,,,,,,,,,,,,,,,,,,,,,,,,,,,,,,,,,,,,,,,,,,,,,,,,,,,,,,,,,,,,,,,,,,,,,,,,,,,,,,,,,,,,,,,,,,,,,,,,,,,,,,,,,,,,,,,,,,,,,,,,,,,,,,,,,,,,,,,,,,,,,,,,,,,,,,,
,,,,,,5e7fd320aa0fcb000913970d,62c53a03fdfb271f81d01cbb,2022-07-06_09h31.52.991,Colour_Asymmetry_Pilot,2022.1.3,Win32,143.9055979,62c50e9c1127f2cd403a315f,0,36,36,107,1,twofour,,,,,,,,,,,,,,,,,,,,,,,,,,,,,,,,,,,,,,,,,,,,,,,,,,,,,,,,,,,,,,,,,,,,,,,,,,,,,,,,,,,,,,,,,,,,,,,,,,,,,,,,,,,,,,,,,,,,,,,,,,,,,,,,,,,,,,,,,,,,,,,,,,,,,,,,,,,,,
,,,,,,5e7fd320aa0fcb000913970d,62c53a03fdfb271f81d01cbb,2022-07-06_09h31.52.991,Colour_Asymmetry_Pilot,2022.1.3,Win32,143.9055979,62c50e9c1127f2cd403a315f,0,37,37,88,1,onetwo,,,,,,,,,,,,,,,,,,,,,,,,,,,,,,,,,,,,,,,,,,,,,,,,,,,,,,,,,,,,,,,,,,,,,,,,,,,,,,,,,,,,,,,,,,,,,,,,,,,,,,,,,,,,,,,,,,,,,,,,,,,,,,,,,,,,,,,,,,,,,,,,,,,,,,,,,,,,,
,,,,,,5e7fd320aa0fcb000913970d,62c53a03fdfb271f81d01cbb,2022-07-06_09h31.52.991,Colour_Asymmetry_Pilot,2022.1.3,Win32,143.9055979,62c50e9c1127f2cd403a315f,0,38,38,109,1,threefour,,,,,,,,,,,,,,,,,,,,,,,,,,,,,,,,,,,,,,,,,,,,,,,,,,,,,,,,,,,,,,,,,,,,,,,,,,,,,,,,,,,,,,,,,,,,,,,,,,,,,,,,,,,,,,,,,,,,,,,,,,,,,,,,,,,,,,,,,,,,,,,,,,,,,,,,,,,,,
,,,,,,5e7fd320aa0fcb000913970d,62c53a03fdfb271f81d01cbb,2022-07-06_09h31.52.991,Colour_Asymmetry_Pilot,2022.1.3,Win32,143.9055979,62c50e9c1127f2cd403a315f,0,39,39,48,1,onetwo,,,,,,,,,,,,,,,,,,,,,,,,,,,,,,,,,,,,,,,,,,,,,,,,,,,,,,,,,,,,,,,,,,,,,,,,,,,,,,,,,,,,,,,,,,,,,,,,,,,,,,,,,,,,,,,,,,,,,,,,,,,,,,,,,,,,,,,,,,,,,,,,,,,,,,,,,,,,,
,,,,,,5e7fd320aa0fcb000913970d,62c53a03fdfb271f81d01cbb,2022-07-06_09h31.52.991,Colour_Asymmetry_Pilot,2022.1.3,Win32,143.9055979,62c50e9c1127f2cd403a315f,0,40,40,17,1,onethree,,,,,,,,,,,,,,,,,,,,,,,,,,,,,,,,,,,,,,,,,,,,,,,,,,,,,,,,,,,,,,,,,,,,,,,,,,,,,,,,,,,,,,,,,,,,,,,,,,,,,,,,,,,,,,,,,,,,,,,,,,,,,,,,,,,,,,,,,,,,,,,,,,,,,,,,,,,,,
,,,,,,5e7fd320aa0fcb000913970d,62c53a03fdfb271f81d01cbb,2022-07-06_09h31.52.991,Colour_Asymmetry_Pilot,2022.1.3,Win32,143.9055979,62c50e9c1127f2cd403a315f,0,41,41,87,1,fourthree,,,,,,,,,,,,,,,,,,,,,,,,,,,,,,,,,,,,,,,,,,,,,,,,,,,,,,,,,,,,,,,,,,,,,,,,,,,,,,,,,,,,,,,,,,,,,,,,,,,,,,,,,,,,,,,,,,,,,,,,,,,,,,,,,,,,,,,,,,,,,,,,,,,,,,,,,,,,,
,,,,,,5e7fd320aa0fcb000913970d,62c53a03fdfb271f81d01cbb,2022-07-06_09h31.52.991,Colour_Asymmetry_Pilot,2022.1.3,Win32,143.9055979,62c50e9c1127f2cd403a315f,0,42,42,81,1,onethree,,,,,,,,,,,,,,,,,,,,,,,,,,,,,,,,,,,,,,,,,,,,,,,,,,,,,,,,,,,,,,,,,,,,,,,,,,,,,,,,,,,,,,,,,,,,,,,,,,,,,,,,,,,,,,,,,,,,,,,,,,,,,,,,,,,,,,,,,,,,,,,,,,,,,,,,,,,,,
,,,,,,5e7fd320aa0fcb000913970d,62c53a03fdfb271f81d01cbb,2022-07-06_09h31.52.991,Colour_Asymmetry_Pilot,2022.1.3,Win32,143.9055979,62c50e9c1127f2cd403a315f,0,43,43,114,1,twoone,,,,,,,,,,,,,,,,,,,,,,,,,,,,,,,,,,,,,,,,,,,,,,,,,,,,,,,,,,,,,,,,,,,,,,,,,,,,,,,,,,,,,,,,,,,,,,,,,,,,,,,,,,,,,,,,,,,,,,,,,,,,,,,,,,,,,,,,,,,,,,,,,,,,,,,,,,,,,
,,,,,,5e7fd320aa0fcb000913970d,62c53a03fdfb271f81d01cbb,2022-07-06_09h31.52.991,Colour_Asymmetry_Pilot,2022.1.3,Win32,143.9055979,62c50e9c1127f2cd403a315f,0,44,44,103,1,fourthree,,,,,,,,,,,,,,,,,,,,,,,,,,,,,,,,,,,,,,,,,,,,,,,,,,,,,,,,,,,,,,,,,,,,,,,,,,,,,,,,,,,,,,,,,,,,,,,,,,,,,,,,,,,,,,,,,,,,,,,,,,,,,,,,,,,,,,,,,,,,,,,,,,,,,,,,,,,,,
,,,,,,5e7fd320aa0fcb000913970d,62c53a03fdfb271f81d01cbb,2022-07-06_09h31.52.991,Colour_Asymmetry_Pilot,2022.1.3,Win32,143.9055979,62c50e9c1127f2cd403a315f,0,45,45,128,1,onetwo,,,,,,,,,,,,,,,,,,,,,,,,,,,,,,,,,,,,,,,,,,,,,,,,,,,,,,,,,,,,,,,,,,,,,,,,,,,,,,,,,,,,,,,,,,,,,,,,,,,,,,,,,,,,,,,,,,,,,,,,,,,,,,,,,,,,,,,,,,,,,,,,,,,,,,,,,,,,,
,,,,,,5e7fd320aa0fcb000913970d,62c53a03fdfb271f81d01cbb,2022-07-06_09h31.52.991,Colour_Asymmetry_Pilot,2022.1.3,Win32,143.9055979,62c50e9c1127f2cd403a315f,0,46,46,72,1,onetwo,,,,,,,,,,,,,,,,,,,,,,,,,,,,,,,,,,,,,,,,,,,,,,,,,,,,,,,,,,,,,,,,,,,,,,,,,,,,,,,,,,,,,,,,,,,,,,,,,,,,,,,,,,,,,,,,,,,,,,,,,,,,,,,,,,,,,,,,,,,,,,,,,,,,,,,,,,,,,
,,,,,,5e7fd320aa0fcb000913970d,62c53a03fdfb271f81d01cbb,2022-07-06_09h31.52.991,Colour_Asymmetry_Pilot,2022.1.3,Win32,143.9055979,62c50e9c1127f2cd403a315f,0,47,47,25,1,onethree,,,,,,,,,,,,,,,,,,,,,,,,,,,,,,,,,,,,,,,,,,,,,,,,,,,,,,,,,,,,,,,,,,,,,,,,,,,,,,,,,,,,,,,,,,,,,,,,,,,,,,,,,,,,,,,,,,,,,,,,,,,,,,,,,,,,,,,,,,,,,,,,,,,,,,,,,,,,,
,,,,,,5e7fd320aa0fcb000913970d,62c53a03fdfb271f81d01cbb,2022-07-06_09h31.52.991,Colour_Asymmetry_Pilot,2022.1.3,Win32,143.9055979,62c50e9c1127f2cd403a315f,0,48,48,142,1,fourtwo,,,,,,,,,,,,,,,,,,,,,,,,,,,,,,,,,,,,,,,,,,,,,,,,,,,,,,,,,,,,,,,,,,,,,,,,,,,,,,,,,,,,,,,,,,,,,,,,,,,,,,,,,,,,,,,,,,,,,,,,,,,,,,,,,,,,,,,,,,,,,,,,,,,,,,,,,,,,,
,,,,,,5e7fd320aa0fcb000913970d,62c53a03fdfb271f81d01cbb,2022-07-06_09h31.52.991,Colour_Asymmetry_Pilot,2022.1.3,Win32,143.9055979,62c50e9c1127f2cd403a315f,0,49,49,68,1,threeone,,,,,,,,,,,,,,,,,,,,,,,,,,,,,,,,,,,,,,,,,,,,,,,,,,,,,,,,,,,,,,,,,,,,,,,,,,,,,,,,,,,,,,,,,,,,,,,,,,,,,,,,,,,,,,,,,,,,,,,,,,,,,,,,,,,,,,,,,,,,,,,,,,,,,,,,,,,,,
,,,,,,5e7fd320aa0fcb000913970d,62c53a03fdfb271f81d01cbb,2022-07-06_09h31.52.991,Colour_Asymmetry_Pilot,2022.1.3,Win32,143.9055979,62c50e9c1127f2cd403a315f,0,50,50,136,1,onetwo,,,,,,,,,,,,,,,,,,,,,,,,,,,,,,,,,,,,,,,,,,,,,,,,,,,,,,,,,,,,,,,,,,,,,,,,,,,,,,,,,,,,,,,,,,,,,,,,,,,,,,,,,,,,,,,,,,,,,,,,,,,,,,,,,,,,,,,,,,,,,,,,,,,,,,,,,,,,,
,,,,,,5e7fd320aa0fcb000913970d,62c53a03fdfb271f81d01cbb,2022-07-06_09h31.52.991,Colour_Asymmetry_Pilot,2022.1.3,Win32,143.9055979,62c50e9c1127f2cd403a315f,0,51,51,54,1,fourtwo,,,,,,,,,,,,,,,,,,,,,,,,,,,,,,,,,,,,,,,,,,,,,,,,,,,,,,,,,,,,,,,,,,,,,,,,,,,,,,,,,,,,,,,,,,,,,,,,,,,,,,,,,,,,,,,,,,,,,,,,,,,,,,,,,,,,,,,,,,,,,,,,,,,,,,,,,,,,,
,,,,,,5e7fd320aa0fcb000913970d,62c53a03fdfb271f81d01cbb,2022-07-06_09h31.52.991,Colour_Asymmetry_Pilot,2022.1.3,Win32,143.9055979,62c50e9c1127f2cd403a315f,0,52,52,31,1,fourthree,,,,,,,,,,,,,,,,,,,,,,,,,,,,,,,,,,,,,,,,,,,,,,,,,,,,,,,,,,,,,,,,,,,,,,,,,,,,,,,,,,,,,,,,,,,,,,,,,,,,,,,,,,,,,,,,,,,,,,,,,,,,,,,,,,,,,,,,,,,,,,,,,,,,,,,,,,,,,
,,,,,,5e7fd320aa0fcb000913970d,62c53a03fdfb271f81d01cbb,2022-07-06_09h31.52.991,Colour_Asymmetry_Pilot,2022.1.3,Win32,143.9055979,62c50e9c1127f2cd403a315f,0,53,53,115,1,twofour,,,,,,,,,,,,,,,,,,,,,,,,,,,,,,,,,,,,,,,,,,,,,,,,,,,,,,,,,,,,,,,,,,,,,,,,,,,,,,,,,,,,,,,,,,,,,,,,,,,,,,,,,,,,,,,,,,,,,,,,,,,,,,,,,,,,,,,,,,,,,,,,,,,,,,,,,,,,,
,,,,,,5e7fd320aa0fcb000913970d,62c53a03fdfb271f81d01cbb,2022-07-06_09h31.52.991,Colour_Asymmetry_Pilot,2022.1.3,Win32,143.9055979,62c50e9c1127f2cd403a315f,0,54,54,147,1,twofour,,,,,,,,,,,,,,,,,,,,,,,,,,,,,,,,,,,,,,,,,,,,,,,,,,,,,,,,,,,,,,,,,,,,,,,,,,,,,,,,,,,,,,,,,,,,,,,,,,,,,,,,,,,,,,,,,,,,,,,,,,,,,,,,,,,,,,,,,,,,,,,,,,,,,,,,,,,,,
,,,,,,5e7fd320aa0fcb000913970d,62c53a03fdfb271f81d01cbb,2022-07-06_09h31.52.991,Colour_Asymmetry_Pilot,2022.1.3,Win32,143.9055979,62c50e9c1127f2cd403a315f,0,55,55,83,1,twofour,,,,,,,,,,,,,,,,,,,,,,,,,,,,,,,,,,,,,,,,,,,,,,,,,,,,,,,,,,,,,,,,,,,,,,,,,,,,,,,,,,,,,,,,,,,,,,,,,,,,,,,,,,,,,,,,,,,,,,,,,,,,,,,,,,,,,,,,,,,,,,,,,,,,,,,,,,,,,
,,,,,,5e7fd320aa0fcb000913970d,62c53a03fdfb271f81d01cbb,2022-07-06_09h31.52.991,Colour_Asymmetry_Pilot,2022.1.3,Win32,143.9055979,62c50e9c1127f2cd403a315f,0,56,56,42,1,twoone,,,,,,,,,,,,,,,,,,,,,,,,,,,,,,,,,,,,,,,,,,,,,,,,,,,,,,,,,,,,,,,,,,,,,,,,,,,,,,,,,,,,,,,,,,,,,,,,,,,,,,,,,,,,,,,,,,,,,,,,,,,,,,,,,,,,,,,,,,,,,,,,,,,,,,,,,,,,,
,,,,,,5e7fd320aa0fcb000913970d,62c53a03fdfb271f81d01cbb,2022-07-06_09h31.52.991,Colour_Asymmetry_Pilot,2022.1.3,Win32,143.9055979,62c50e9c1127f2cd403a315f,0,57,57,11,1,twofour,,,,,,,,,,,,,,,,,,,,,,,,,,,,,,,,,,,,,,,,,,,,,,,,,,,,,,,,,,,,,,,,,,,,,,,,,,,,,,,,,,,,,,,,,,,,,,,,,,,,,,,,,,,,,,,,,,,,,,,,,,,,,,,,,,,,,,,,,,,,,,,,,,,,,,,,,,,,,
,,,,,,5e7fd320aa0fcb000913970d,62c53a03fdfb271f81d01cbb,2022-07-06_09h31.52.991,Colour_Asymmetry_Pilot,2022.1.3,Win32,143.9055979,62c50e9c1127f2cd403a315f,0,58,58,7,1,fourthree,,,,,,,,,,,,,,,,,,,,,,,,,,,,,,,,,,,,,,,,,,,,,,,,,,,,,,,,,,,,,,,,,,,,,,,,,,,,,,,,,,,,,,,,,,,,,,,,,,,,,,,,,,,,,,,,,,,,,,,,,,,,,,,,,,,,,,,,,,,,,,,,,,,,,,,,,,,,,
,,,,,,5e7fd320aa0fcb000913970d,62c53a03fdfb271f81d01cbb,2022-07-06_09h31.52.991,Colour_Asymmetry_Pilot,2022.1.3,Win32,143.9055979,62c50e9c1127f2cd403a315f,0,59,59,8,1,onetwo,,,,,,,,,,,,,,,,,,,,,,,,,,,,,,,,,,,,,,,,,,,,,,,,,,,,,,,,,,,,,,,,,,,,,,,,,,,,,,,,,,,,,,,,,,,,,,,,,,,,,,,,,,,,,,,,,,,,,,,,,,,,,,,,,,,,,,,,,,,,,,,,,,,,,,,,,,,,,
,,,,,,5e7fd320aa0fcb000913970d,62c53a03fdfb271f81d01cbb,2022-07-06_09h31.52.991,Colour_Asymmetry_Pilot,2022.1.3,Win32,143.9055979,62c50e9c1127f2cd403a315f,0,60,60,141,1,threefour,,,,,,,,,,,,,,,,,,,,,,,,,,,,,,,,,,,,,,,,,,,,,,,,,,,,,,,,,,,,,,,,,,,,,,,,,,,,,,,,,,,,,,,,,,,,,,,,,,,,,,,,,,,,,,,,,,,,,,,,,,,,,,,,,,,,,,,,,,,,,,,,,,,,,,,,,,,,,
,,,,,,5e7fd320aa0fcb000913970d,62c53a03fdfb271f81d01cbb,2022-07-06_09h31.52.991,Colour_Asymmetry_Pilot,2022.1.3,Win32,143.9055979,62c50e9c1127f2cd403a315f,0,61,61,99,1,twofour,,,,,,,,,,,,,,,,,,,,,,,,,,,,,,,,,,,,,,,,,,,,,,,,,,,,,,,,,,,,,,,,,,,,,,,,,,,,,,,,,,,,,,,,,,,,,,,,,,,,,,,,,,,,,,,,,,,,,,,,,,,,,,,,,,,,,,,,,,,,,,,,,,,,,,,,,,,,,
,,,,,,5e7fd320aa0fcb000913970d,62c53a03fdfb271f81d01cbb,2022-07-06_09h31.52.991,Colour_Asymmetry_Pilot,2022.1.3,Win32,143.9055979,62c50e9c1127f2cd403a315f,0,62,62,13,1,threefour,,,,,,,,,,,,,,,,,,,,,,,,,,,,,,,,,,,,,,,,,,,,,,,,,,,,,,,,,,,,,,,,,,,,,,,,,,,,,,,,,,,,,,,,,,,,,,,,,,,,,,,,,,,,,,,,,,,,,,,,,,,,,,,,,,,,,,,,,,,,,,,,,,,,,,,,,,,,,
,,,,,,5e7fd320aa0fcb000913970d,62c53a03fdfb271f81d01cbb,2022-07-06_09h31.52.991,Colour_Asymmetry_Pilot,2022.1.3,Win32,143.9055979,62c50e9c1127f2cd403a315f,0,63,63,10,1,twoone,,,,,,,,,,,,,,,,,,,,,,,,,,,,,,,,,,,,,,,,,,,,,,,,,,,,,,,,,,,,,,,,,,,,,,,,,,,,,,,,,,,,,,,,,,,,,,,,,,,,,,,,,,,,,,,,,,,,,,,,,,,,,,,,,,,,,,,,,,,,,,,,,,,,,,,,,,,,,
,,,,,,5e7fd320aa0fcb000913970d,62c53a03fdfb271f81d01cbb,2022-07-06_09h31.52.991,Colour_Asymmetry_Pilot,2022.1.3,Win32,143.9055979,62c50e9c1127f2cd403a315f,0,64,64,79,1,fourthree,,,,,,,,,,,,,,,,,,,,,,,,,,,,,,,,,,,,,,,,,,,,,,,,,,,,,,,,,,,,,,,,,,,,,,,,,,,,,,,,,,,,,,,,,,,,,,,,,,,,,,,,,,,,,,,,,,,,,,,,,,,,,,,,,,,,,,,,,,,,,,,,,,,,,,,,,,,,,
,,,,,,5e7fd320aa0fcb000913970d,62c53a03fdfb271f81d01cbb,2022-07-06_09h31.52.991,Colour_Asymmetry_Pilot,2022.1.3,Win32,143.9055979,62c50e9c1127f2cd403a315f,0,65,65,161,1,onethree,,,,,,,,,,,,,,,,,,,,,,,,,,,,,,,,,,,,,,,,,,,,,,,,,,,,,,,,,,,,,,,,,,,,,,,,,,,,,,,,,,,,,,,,,,,,,,,,,,,,,,,,,,,,,,,,,,,,,,,,,,,,,,,,,,,,,,,,,,,,,,,,,,,,,,,,,,,,,
,,,,,,5e7fd320aa0fcb000913970d,62c53a03fdfb271f81d01cbb,2022-07-06_09h31.52.991,Colour_Asymmetry_Pilot,2022.1.3,Win32,143.9055979,62c50e9c1127f2cd403a315f,0,66,66,150,1,fourtwo,,,,,,,,,,,,,,,,,,,,,,,,,,,,,,,,,,,,,,,,,,,,,,,,,,,,,,,,,,,,,,,,,,,,,,,,,,,,,,,,,,,,,,,,,,,,,,,,,,,,,,,,,,,,,,,,,,,,,,,,,,,,,,,,,,,,,,,,,,,,,,,,,,,,,,,,,,,,,
,,,,,,5e7fd320aa0fcb000913970d,62c53a03fdfb271f81d01cbb,2022-07-06_09h31.52.991,Colour_Asymmetry_Pilot,2022.1.3,Win32,143.9055979,62c50e9c1127f2cd403a315f,0,67,67,122,1,twoone,,,,,,,,,,,,,,,,,,,,,,,,,,,,,,,,,,,,,,,,,,,,,,,,,,,,,,,,,,,,,,,,,,,,,,,,,,,,,,,,,,,,,,,,,,,,,,,,,,,,,,,,,,,,,,,,,,,,,,,,,,,,,,,,,,,,,,,,,,,,,,,,,,,,,,,,,,,,,
,,,,,,5e7fd320aa0fcb000913970d,62c53a03fdfb271f81d01cbb,2022-07-06_09h31.52.991,Colour_Asymmetry_Pilot,2022.1.3,Win32,143.9055979,62c50e9c1127f2cd403a315f,0,68,68,157,1,threefour,,,,,,,,,,,,,,,,,,,,,,,,,,,,,,,,,,,,,,,,,,,,,,,,,,,,,,,,,,,,,,,,,,,,,,,,,,,,,,,,,,,,,,,,,,,,,,,,,,,,,,,,,,,,,,,,,,,,,,,,,,,,,,,,,,,,,,,,,,,,,,,,,,,,,,,,,,,,,
,,,,,,5e7fd320aa0fcb000913970d,62c53a03fdfb271f81d01cbb,2022-07-06_09h31.52.991,Colour_Asymmetry_Pilot,2022.1.3,Win32,143.9055979,62c50e9c1127f2cd403a315f,0,69,69,51,1,twofour,,,,,,,,,,,,,,,,,,,,,,,,,,,,,,,,,,,,,,,,,,,,,,,,,,,,,,,,,,,,,,,,,,,,,,,,,,,,,,,,,,,,,,,,,,,,,,,,,,,,,,,,,,,,,,,,,,,,,,,,,,,,,,,,,,,,,,,,,,,,,,,,,,,,,,,,,,,,,
,,,,,,5e7fd320aa0fcb000913970d,62c53a03fdfb271f81d01cbb,2022-07-06_09h31.52.991,Colour_Asymmetry_Pilot,2022.1.3,Win32,143.9055979,62c50e9c1127f2cd403a315f,0,70,70,82,1,twoone,,,,,,,,,,,,,,,,,,,,,,,,,,,,,,,,,,,,,,,,,,,,,,,,,,,,,,,,,,,,,,,,,,,,,,,,,,,,,,,,,,,,,,,,,,,,,,,,,,,,,,,,,,,,,,,,,,,,,,,,,,,,,,,,,,,,,,,,,,,,,,,,,,,,,,,,,,,,,
,,,,,,5e7fd320aa0fcb000913970d,62c53a03fdfb271f81d01cbb,2022-07-06_09h31.52.991,Colour_Asymmetry_Pilot,2022.1.3,Win32,143.9055979,62c50e9c1127f2cd403a315f,0,71,71,125,1,threefour,,,,,,,,,,,,,,,,,,,,,,,,,,,,,,,,,,,,,,,,,,,,,,,,,,,,,,,,,,,,,,,,,,,,,,,,,,,,,,,,,,,,,,,,,,,,,,,,,,,,,,,,,,,,,,,,,,,,,,,,,,,,,,,,,,,,,,,,,,,,,,,,,,,,,,,,,,,,,
,,,,,,5e7fd320aa0fcb000913970d,62c53a03fdfb271f81d01cbb,2022-07-06_09h31.52.991,Colour_Asymmetry_Pilot,2022.1.3,Win32,143.9055979,62c50e9c1127f2cd403a315f,0,72,72,49,1,onethree,,,,,,,,,,,,,,,,,,,,,,,,,,,,,,,,,,,,,,,,,,,,,,,,,,,,,,,,,,,,,,,,,,,,,,,,,,,,,,,,,,,,,,,,,,,,,,,,,,,,,,,,,,,,,,,,,,,,,,,,,,,,,,,,,,,,,,,,,,,,,,,,,,,,,,,,,,,,,
,,,,,,5e7fd320aa0fcb000913970d,62c53a03fdfb271f81d01cbb,2022-07-06_09h31.52.991,Colour_Asymmetry_Pilot,2022.1.3,Win32,143.9055979,62c50e9c1127f2cd403a315f,0,73,73,108,1,threeone,,,,,,,,,,,,,,,,,,,,,,,,,,,,,,,,,,,,,,,,,,,,,,,,,,,,,,,,,,,,,,,,,,,,,,,,,,,,,,,,,,,,,,,,,,,,,,,,,,,,,,,,,,,,,,,,,,,,,,,,,,,,,,,,,,,,,,,,,,,,,,,,,,,,,,,,,,,,,
,,,,,,5e7fd320aa0fcb000913970d,62c53a03fdfb271f81d01cbb,2022-07-06_09h31.52.991,Colour_Asymmetry_Pilot,2022.1.3,Win32,143.9055979,62c50e9c1127f2cd403a315f,0,74,74,120,1,onetwo,,,,,,,,,,,,,,,,,,,,,,,,,,,,,,,,,,,,,,,,,,,,,,,,,,,,,,,,,,,,,,,,,,,,,,,,,,,,,,,,,,,,,,,,,,,,,,,,,,,,,,,,,,,,,,,,,,,,,,,,,,,,,,,,,,,,,,,,,,,,,,,,,,,,,,,,,,,,,
,,,,,,5e7fd320aa0fcb000913970d,62c53a03fdfb271f81d01cbb,2022-07-06_09h31.52.991,Colour_Asymmetry_Pilot,2022.1.3,Win32,143.9055979,62c50e9c1127f2cd403a315f,0,75,75,74,1,twoone,,,,,,,,,,,,,,,,,,,,,,,,,,,,,,,,,,,,,,,,,,,,,,,,,,,,,,,,,,,,,,,,,,,,,,,,,,,,,,,,,,,,,,,,,,,,,,,,,,,,,,,,,,,,,,,,,,,,,,,,,,,,,,,,,,,,,,,,,,,,,,,,,,,,,,,,,,,,,
,,,,,,5e7fd320aa0fcb000913970d,62c53a03fdfb271f81d01cbb,2022-07-06_09h31.52.991,Colour_Asymmetry_Pilot,2022.1.3,Win32,143.9055979,62c50e9c1127f2cd403a315f,0,76,76,32,1,onetwo,,,,,,,,,,,,,,,,,,,,,,,,,,,,,,,,,,,,,,,,,,,,,,,,,,,,,,,,,,,,,,,,,,,,,,,,,,,,,,,,,,,,,,,,,,,,,,,,,,,,,,,,,,,,,,,,,,,,,,,,,,,,,,,,,,,,,,,,,,,,,,,,,,,,,,,,,,,,,
,,,,,,5e7fd320aa0fcb000913970d,62c53a03fdfb271f81d01cbb,2022-07-06_09h31.52.991,Colour_Asymmetry_Pilot,2022.1.3,Win32,143.9055979,62c50e9c1127f2cd403a315f,0,77,77,40,1,onetwo,,,,,,,,,,,,,,,,,,,,,,,,,,,,,,,,,,,,,,,,,,,,,,,,,,,,,,,,,,,,,,,,,,,,,,,,,,,,,,,,,,,,,,,,,,,,,,,,,,,,,,,,,,,,,,,,,,,,,,,,,,,,,,,,,,,,,,,,,,,,,,,,,,,,,,,,,,,,,
,,,,,,5e7fd320aa0fcb000913970d,62c53a03fdfb271f81d01cbb,2022-07-06_09h31.52.991,Colour_Asymmetry_Pilot,2022.1.3,Win32,143.9055979,62c50e9c1127f2cd403a315f,0,78,78,151,1,fourthree,,,,,,,,,,,,,,,,,,,,,,,,,,,,,,,,,,,,,,,,,,,,,,,,,,,,,,,,,,,,,,,,,,,,,,,,,,,,,,,,,,,,,,,,,,,,,,,,,,,,,,,,,,,,,,,,,,,,,,,,,,,,,,,,,,,,,,,,,,,,,,,,,,,,,,,,,,,,,
,,,,,,5e7fd320aa0fcb000913970d,62c53a03fdfb271f81d01cbb,2022-07-06_09h31.52.991,Colour_Asymmetry_Pilot,2022.1.3,Win32,143.9055979,62c50e9c1127f2cd403a315f,0,79,79,105,1,onethree,,,,,,,,,,,,,,,,,,,,,,,,,,,,,,,,,,,,,,,,,,,,,,,,,,,,,,,,,,,,,,,,,,,,,,,,,,,,,,,,,,,,,,,,,,,,,,,,,,,,,,,,,,,,,,,,,,,,,,,,,,,,,,,,,,,,,,,,,,,,,,,,,,,,,,,,,,,,,
,,,,,,5e7fd320aa0fcb000913970d,62c53a03fdfb271f81d01cbb,2022-07-06_09h31.52.991,Colour_Asymmetry_Pilot,2022.1.3,Win32,143.9055979,62c50e9c1127f2cd403a315f,0,80,80,47,1,fourthree,,,,,,,,,,,,,,,,,,,,,,,,,,,,,,,,,,,,,,,,,,,,,,,,,,,,,,,,,,,,,,,,,,,,,,,,,,,,,,,,,,,,,,,,,,,,,,,,,,,,,,,,,,,,,,,,,,,,,,,,,,,,,,,,,,,,,,,,,,,,,,,,,,,,,,,,,,,,,
,,,,,,5e7fd320aa0fcb000913970d,62c53a03fdfb271f81d01cbb,2022-07-06_09h31.52.991,Colour_Asymmetry_Pilot,2022.1.3,Win32,143.9055979,62c50e9c1127f2cd403a315f,0,81,81,129,1,onethree,,,,,,,,,,,,,,,,,,,,,,,,,,,,,,,,,,,,,,,,,,,,,,,,,,,,,,,,,,,,,,,,,,,,,,,,,,,,,,,,,,,,,,,,,,,,,,,,,,,,,,,,,,,,,,,,,,,,,,,,,,,,,,,,,,,,,,,,,,,,,,,,,,,,,,,,,,,,,
,,,,,,5e7fd320aa0fcb000913970d,62c53a03fdfb271f81d01cbb,2022-07-06_09h31.52.991,Colour_Asymmetry_Pilot,2022.1.3,Win32,143.9055979,62c50e9c1127f2cd403a315f,0,82,82,44,1,threeone,,,,,,,,,,,,,,,,,,,,,,,,,,,,,,,,,,,,,,,,,,,,,,,,,,,,,,,,,,,,,,,,,,,,,,,,,,,,,,,,,,,,,,,,,,,,,,,,,,,,,,,,,,,,,,,,,,,,,,,,,,,,,,,,,,,,,,,,,,,,,,,,,,,,,,,,,,,,,
,,,,,,5e7fd320aa0fcb000913970d,62c53a03fdfb271f81d01cbb,2022-07-06_09h31.52.991,Colour_Asymmetry_Pilot,2022.1.3,Win32,143.9055979,62c50e9c1127f2cd403a315f,0,83,83,46,1,fourtwo,,,,,,,,,,,,,,,,,,,,,,,,,,,,,,,,,,,,,,,,,,,,,,,,,,,,,,,,,,,,,,,,,,,,,,,,,,,,,,,,,,,,,,,,,,,,,,,,,,,,,,,,,,,,,,,,,,,,,,,,,,,,,,,,,,,,,,,,,,,,,,,,,,,,,,,,,,,,,
,,,,,,5e7fd320aa0fcb000913970d,62c53a03fdfb271f81d01cbb,2022-07-06_09h31.52.991,Colour_Asymmetry_Pilot,2022.1.3,Win32,143.9055979,62c50e9c1127f2cd403a315f,0,84,84,130,1,twoone,,,,,,,,,,,,,,,,,,,,,,,,,,,,,,,,,,,,,,,,,,,,,,,,,,,,,,,,,,,,,,,,,,,,,,,,,,,,,,,,,,,,,,,,,,,,,,,,,,,,,,,,,,,,,,,,,,,,,,,,,,,,,,,,,,,,,,,,,,,,,,,,,,,,,,,,,,,,,
,,,,,,5e7fd320aa0fcb000913970d,62c53a03fdfb271f81d01cbb,2022-07-06_09h31.52.991,Colour_Asymmetry_Pilot,2022.1.3,Win32,143.9055979,62c50e9c1127f2cd403a315f,0,85,85,45,1,threefour,,,,,,,,,,,,,,,,,,,,,,,,,,,,,,,,,,,,,,,,,,,,,,,,,,,,,,,,,,,,,,,,,,,,,,,,,,,,,,,,,,,,,,,,,,,,,,,,,,,,,,,,,,,,,,,,,,,,,,,,,,,,,,,,,,,,,,,,,,,,,,,,,,,,,,,,,,,,,
,,,,,,5e7fd320aa0fcb000913970d,62c53a03fdfb271f81d01cbb,2022-07-06_09h31.52.991,Colour_Asymmetry_Pilot,2022.1.3,Win32,143.9055979,62c50e9c1127f2cd403a315f,0,86,86,78,1,fourtwo,,,,,,,,,,,,,,,,,,,,,,,,,,,,,,,,,,,,,,,,,,,,,,,,,,,,,,,,,,,,,,,,,,,,,,,,,,,,,,,,,,,,,,,,,,,,,,,,,,,,,,,,,,,,,,,,,,,,,,,,,,,,,,,,,,,,,,,,,,,,,,,,,,,,,,,,,,,,,
,,,,,,5e7fd320aa0fcb000913970d,62c53a03fdfb271f81d01cbb,2022-07-06_09h31.52.991,Colour_Asymmetry_Pilot,2022.1.3,Win32,143.9055979,62c50e9c1127f2cd403a315f,0,87,87,104,1,onetwo,,,,,,,,,,,,,,,,,,,,,,,,,,,,,,,,,,,,,,,,,,,,,,,,,,,,,,,,,,,,,,,,,,,,,,,,,,,,,,,,,,,,,,,,,,,,,,,,,,,,,,,,,,,,,,,,,,,,,,,,,,,,,,,,,,,,,,,,,,,,,,,,,,,,,,,,,,,,,
,,,,,,5e7fd320aa0fcb000913970d,62c53a03fdfb271f81d01cbb,2022-07-06_09h31.52.991,Colour_Asymmetry_Pilot,2022.1.3,Win32,143.9055979,62c50e9c1127f2cd403a315f,0,88,88,69,1,threefour,,,,,,,,,,,,,,,,,,,,,,,,,,,,,,,,,,,,,,,,,,,,,,,,,,,,,,,,,,,,,,,,,,,,,,,,,,,,,,,,,,,,,,,,,,,,,,,,,,,,,,,,,,,,,,,,,,,,,,,,,,,,,,,,,,,,,,,,,,,,,,,,,,,,,,,,,,,,,
,,,,,,5e7fd320aa0fcb000913970d,62c53a03fdfb271f81d01cbb,2022-07-06_09h31.52.991,Colour_Asymmetry_Pilot,2022.1.3,Win32,143.9055979,62c50e9c1127f2cd403a315f,0,89,89,97,1,onethree,,,,,,,,,,,,,,,,,,,,,,,,,,,,,,,,,,,,,,,,,,,,,,,,,,,,,,,,,,,,,,,,,,,,,,,,,,,,,,,,,,,,,,,,,,,,,,,,,,,,,,,,,,,,,,,,,,,,,,,,,,,,,,,,,,,,,,,,,,,,,,,,,,,,,,,,,,,,,
,,,,,,5e7fd320aa0fcb000913970d,62c53a03fdfb271f81d01cbb,2022-07-06_09h31.52.991,Colour_Asymmetry_Pilot,2022.1.3,Win32,143.9055979,62c50e9c1127f2cd403a315f,0,90,90,24,1,onetwo,,,,,,,,,,,,,,,,,,,,,,,,,,,,,,,,,,,,,,,,,,,,,,,,,,,,,,,,,,,,,,,,,,,,,,,,,,,,,,,,,,,,,,,,,,,,,,,,,,,,,,,,,,,,,,,,,,,,,,,,,,,,,,,,,,,,,,,,,,,,,,,,,,,,,,,,,,,,,
,,,,,,5e7fd320aa0fcb000913970d,62c53a03fdfb271f81d01cbb,2022-07-06_09h31.52.991,Colour_Asymmetry_Pilot,2022.1.3,Win32,143.9055979,62c50e9c1127f2cd403a315f,0,91,91,144,1,onetwo,,,,,,,,,,,,,,,,,,,,,,,,,,,,,,,,,,,,,,,,,,,,,,,,,,,,,,,,,,,,,,,,,,,,,,,,,,,,,,,,,,,,,,,,,,,,,,,,,,,,,,,,,,,,,,,,,,,,,,,,,,,,,,,,,,,,,,,,,,,,,,,,,,,,,,,,,,,,,
,,,,,,5e7fd320aa0fcb000913970d,62c53a03fdfb271f81d01cbb,2022-07-06_09h31.52.991,Colour_Asymmetry_Pilot,2022.1.3,Win32,143.9055979,62c50e9c1127f2cd403a315f,0,92,92,116,1,threeone,,,,,,,,,,,,,,,,,,,,,,,,,,,,,,,,,,,,,,,,,,,,,,,,,,,,,,,,,,,,,,,,,,,,,,,,,,,,,,,,,,,,,,,,,,,,,,,,,,,,,,,,,,,,,,,,,,,,,,,,,,,,,,,,,,,,,,,,,,,,,,,,,,,,,,,,,,,,,
,,,,,,5e7fd320aa0fcb000913970d,62c53a03fdfb271f81d01cbb,2022-07-06_09h31.52.991,Colour_Asymmetry_Pilot,2022.1.3,Win32,143.9055979,62c50e9c1127f2cd403a315f,0,93,93,140,1,threeone,,,,,,,,,,,,,,,,,,,,,,,,,,,,,,,,,,,,,,,,,,,,,,,,,,,,,,,,,,,,,,,,,,,,,,,,,,,,,,,,,,,,,,,,,,,,,,,,,,,,,,,,,,,,,,,,,,,,,,,,,,,,,,,,,,,,,,,,,,,,,,,,,,,,,,,,,,,,,
,,,,,,5e7fd320aa0fcb000913970d,62c53a03fdfb271f81d01cbb,2022-07-06_09h31.52.991,Colour_Asymmetry_Pilot,2022.1.3,Win32,143.9055979,62c50e9c1127f2cd403a315f,0,94,94,158,1,fourtwo,,,,,,,,,,,,,,,,,,,,,,,,,,,,,,,,,,,,,,,,,,,,,,,,,,,,,,,,,,,,,,,,,,,,,,,,,,,,,,,,,,,,,,,,,,,,,,,,,,,,,,,,,,,,,,,,,,,,,,,,,,,,,,,,,,,,,,,,,,,,,,,,,,,,,,,,,,,,,
,,,,,,5e7fd320aa0fcb000913970d,62c53a03fdfb271f81d01cbb,2022-07-06_09h31.52.991,Colour_Asymmetry_Pilot,2022.1.3,Win32,143.9055979,62c50e9c1127f2cd403a315f,0,95,95,91,1,twofour,,,,,,,,,,,,,,,,,,,,,,,,,,,,,,,,,,,,,,,,,,,,,,,,,,,,,,,,,,,,,,,,,,,,,,,,,,,,,,,,,,,,,,,,,,,,,,,,,,,,,,,,,,,,,,,,,,,,,,,,,,,,,,,,,,,,,,,,,,,,,,,,,,,,,,,,,,,,,
,,,,,,5e7fd320aa0fcb000913970d,62c53a03fdfb271f81d01cbb,2022-07-06_09h31.52.991,Colour_Asymmetry_Pilot,2022.1.3,Win32,143.9055979,62c50e9c1127f2cd403a315f,0,96,96,1,1,onethree,,,,,,,,,,,,,,,,,,,,,,,,,,,,,,,,,,,,,,,,,,,,,,,,,,,,,,,,,,,,,,,,,,,,,,,,,,,,,,,,,,,,,,,,,,,,,,,,,,,,,,,,,,,,,,,,,,,,,,,,,,,,,,,,,,,,,,,,,,,,,,,,,,,,,,,,,,,,,
,,,,,,5e7fd320aa0fcb000913970d,62c53a03fdfb271f81d01cbb,2022-07-06_09h31.52.991,Colour_Asymmetry_Pilot,2022.1.3,Win32,143.9055979,62c50e9c1127f2cd403a315f,0,97,97,27,1,twofour,,,,,,,,,,,,,,,,,,,,,,,,,,,,,,,,,,,,,,,,,,,,,,,,,,,,,,,,,,,,,,,,,,,,,,,,,,,,,,,,,,,,,,,,,,,,,,,,,,,,,,,,,,,,,,,,,,,,,,,,,,,,,,,,,,,,,,,,,,,,,,,,,,,,,,,,,,,,,
,,,,,,5e7fd320aa0fcb000913970d,62c53a03fdfb271f81d01cbb,2022-07-06_09h31.52.991,Colour_Asymmetry_Pilot,2022.1.3,Win32,143.9055979,62c50e9c1127f2cd403a315f,0,98,98,58,1,twoone,,,,,,,,,,,,,,,,,,,,,,,,,,,,,,,,,,,,,,,,,,,,,,,,,,,,,,,,,,,,,,,,,,,,,,,,,,,,,,,,,,,,,,,,,,,,,,,,,,,,,,,,,,,,,,,,,,,,,,,,,,,,,,,,,,,,,,,,,,,,,,,,,,,,,,,,,,,,,
,,,,,,5e7fd320aa0fcb000913970d,62c53a03fdfb271f81d01cbb,2022-07-06_09h31.52.991,Colour_Asymmetry_Pilot,2022.1.3,Win32,143.9055979,62c50e9c1127f2cd403a315f,0,99,99,28,1,threeone,,,,,,,,,,,,,,,,,,,,,,,,,,,,,,,,,,,,,,,,,,,,,,,,,,,,,,,,,,,,,,,,,,,,,,,,,,,,,,,,,,,,,,,,,,,,,,,,,,,,,,,,,,,,,,,,,,,,,,,,,,,,,,,,,,,,,,,,,,,,,,,,,,,,,,,,,,,,,
,,,,,,5e7fd320aa0fcb000913970d,62c53a03fdfb271f81d01cbb,2022-07-06_09h31.52.991,Colour_Asymmetry_Pilot,2022.1.3,Win32,143.9055979,62c50e9c1127f2cd403a315f,0,100,100,50,1,twoone,,,,,,,,,,,,,,,,,,,,,,,,,,,,,,,,,,,,,,,,,,,,,,,,,,,,,,,,,,,,,,,,,,,,,,,,,,,,,,,,,,,,,,,,,,,,,,,,,,,,,,,,,,,,,,,,,,,,,,,,,,,,,,,,,,,,,,,,,,,,,,,,,,,,,,,,,,,,,
,,,,,,5e7fd320aa0fcb000913970d,62c53a03fdfb271f81d01cbb,2022-07-06_09h31.52.991,Colour_Asymmetry_Pilot,2022.1.3,Win32,143.9055979,62c50e9c1127f2cd403a315f,0,101,101,127,1,fourthree,,,,,,,,,,,,,,,,,,,,,,,,,,,,,,,,,,,,,,,,,,,,,,,,,,,,,,,,,,,,,,,,,,,,,,,,,,,,,,,,,,,,,,,,,,,,,,,,,,,,,,,,,,,,,,,,,,,,,,,,,,,,,,,,,,,,,,,,,,,,,,,,,,,,,,,,,,,,,
,,,,,,5e7fd320aa0fcb000913970d,62c53a03fdfb271f81d01cbb,2022-07-06_09h31.52.991,Colour_Asymmetry_Pilot,2022.1.3,Win32,143.9055979,62c50e9c1127f2cd403a315f,0,102,102,53,1,threefour,,,,,,,,,,,,,,,,,,,,,,,,,,,,,,,,,,,,,,,,,,,,,,,,,,,,,,,,,,,,,,,,,,,,,,,,,,,,,,,,,,,,,,,,,,,,,,,,,,,,,,,,,,,,,,,,,,,,,,,,,,,,,,,,,,,,,,,,,,,,,,,,,,,,,,,,,,,,,
,,,,,,5e7fd320aa0fcb000913970d,62c53a03fdfb271f81d01cbb,2022-07-06_09h31.52.991,Colour_Asymmetry_Pilot,2022.1.3,Win32,143.9055979,62c50e9c1127f2cd403a315f,0,103,103,37,1,threefour,,,,,,,,,,,,,,,,,,,,,,,,,,,,,,,,,,,,,,,,,,,,,,,,,,,,,,,,,,,,,,,,,,,,,,,,,,,,,,,,,,,,,,,,,,,,,,,,,,,,,,,,,,,,,,,,,,,,,,,,,,,,,,,,,,,,,,,,,,,,,,,,,,,,,,,,,,,,,
,,,,,,5e7fd320aa0fcb000913970d,62c53a03fdfb271f81d01cbb,2022-07-06_09h31.52.991,Colour_Asymmetry_Pilot,2022.1.3,Win32,143.9055979,62c50e9c1127f2cd403a315f,0,104,104,138,1,twoone,,,,,,,,,,,,,,,,,,,,,,,,,,,,,,,,,,,,,,,,,,,,,,,,,,,,,,,,,,,,,,,,,,,,,,,,,,,,,,,,,,,,,,,,,,,,,,,,,,,,,,,,,,,,,,,,,,,,,,,,,,,,,,,,,,,,,,,,,,,,,,,,,,,,,,,,,,,,,
,,,,,,5e7fd320aa0fcb000913970d,62c53a03fdfb271f81d01cbb,2022-07-06_09h31.52.991,Colour_Asymmetry_Pilot,2022.1.3,Win32,143.9055979,62c50e9c1127f2cd403a315f,0,105,105,34,1,twoone,,,,,,,,,,,,,,,,,,,,,,,,,,,,,,,,,,,,,,,,,,,,,,,,,,,,,,,,,,,,,,,,,,,,,,,,,,,,,,,,,,,,,,,,,,,,,,,,,,,,,,,,,,,,,,,,,,,,,,,,,,,,,,,,,,,,,,,,,,,,,,,,,,,,,,,,,,,,,
,,,,,,5e7fd320aa0fcb000913970d,62c53a03fdfb271f81d01cbb,2022-07-06_09h31.52.991,Colour_Asymmetry_Pilot,2022.1.3,Win32,143.9055979,62c50e9c1127f2cd403a315f,0,106,106,67,1,twofour,,,,,,,,,,,,,,,,,,,,,,,,,,,,,,,,,,,,,,,,,,,,,,,,,,,,,,,,,,,,,,,,,,,,,,,,,,,,,,,,,,,,,,,,,,,,,,,,,,,,,,,,,,,,,,,,,,,,,,,,,,,,,,,,,,,,,,,,,,,,,,,,,,,,,,,,,,,,,
,,,,,,5e7fd320aa0fcb000913970d,62c53a03fdfb271f81d01cbb,2022-07-06_09h31.52.991,Colour_Asymmetry_Pilot,2022.1.3,Win32,143.9055979,62c50e9c1127f2cd403a315f,0,107,107,21,1,threefour,,,,,,,,,,,,,,,,,,,,,,,,,,,,,,,,,,,,,,,,,,,,,,,,,,,,,,,,,,,,,,,,,,,,,,,,,,,,,,,,,,,,,,,,,,,,,,,,,,,,,,,,,,,,,,,,,,,,,,,,,,,,,,,,,,,,,,,,,,,,,,,,,,,,,,,,,,,,,
,,,,,,5e7fd320aa0fcb000913970d,62c53a03fdfb271f81d01cbb,2022-07-06_09h31.52.991,Colour_Asymmetry_Pilot,2022.1.3,Win32,143.9055979,62c50e9c1127f2cd403a315f,0,108,108,100,1,threeone,,,,,,,,,,,,,,,,,,,,,,,,,,,,,,,,,,,,,,,,,,,,,,,,,,,,,,,,,,,,,,,,,,,,,,,,,,,,,,,,,,,,,,,,,,,,,,,,,,,,,,,,,,,,,,,,,,,,,,,,,,,,,,,,,,,,,,,,,,,,,,,,,,,,,,,,,,,,,
,,,,,,5e7fd320aa0fcb000913970d,62c53a03fdfb271f81d01cbb,2022-07-06_09h31.52.991,Colour_Asymmetry_Pilot,2022.1.3,Win32,143.9055979,62c50e9c1127f2cd403a315f,0,109,109,26,1,twoone,,,,,,,,,,,,,,,,,,,,,,,,,,,,,,,,,,,,,,,,,,,,,,,,,,,,,,,,,,,,,,,,,,,,,,,,,,,,,,,,,,,,,,,,,,,,,,,,,,,,,,,,,,,,,,,,,,,,,,,,,,,,,,,,,,,,,,,,,,,,,,,,,,,,,,,,,,,,,
,,,,,,5e7fd320aa0fcb000913970d,62c53a03fdfb271f81d01cbb,2022-07-06_09h31.52.991,Colour_Asymmetry_Pilot,2022.1.3,Win32,143.9055979,62c50e9c1127f2cd403a315f,0,110,110,18,1,twoone,,,,,,,,,,,,,,,,,,,,,,,,,,,,,,,,,,,,,,,,,,,,,,,,,,,,,,,,,,,,,,,,,,,,,,,,,,,,,,,,,,,,,,,,,,,,,,,,,,,,,,,,,,,,,,,,,,,,,,,,,,,,,,,,,,,,,,,,,,,,,,,,,,,,,,,,,,,,,
,,,,,,5e7fd320aa0fcb000913970d,62c53a03fdfb271f81d01cbb,2022-07-06_09h31.52.991,Colour_Asymmetry_Pilot,2022.1.3,Win32,143.9055979,62c50e9c1127f2cd403a315f,0,111,111,64,1,onetwo,,,,,,,,,,,,,,,,,,,,,,,,,,,,,,,,,,,,,,,,,,,,,,,,,,,,,,,,,,,,,,,,,,,,,,,,,,,,,,,,,,,,,,,,,,,,,,,,,,,,,,,,,,,,,,,,,,,,,,,,,,,,,,,,,,,,,,,,,,,,,,,,,,,,,,,,,,,,,
,,,,,,5e7fd320aa0fcb000913970d,62c53a03fdfb271f81d01cbb,2022-07-06_09h31.52.991,Colour_Asymmetry_Pilot,2022.1.3,Win32,143.9055979,62c50e9c1127f2cd403a315f,0,112,112,9,1,onethree,,,,,,,,,,,,,,,,,,,,,,,,,,,,,,,,,,,,,,,,,,,,,,,,,,,,,,,,,,,,,,,,,,,,,,,,,,,,,,,,,,,,,,,,,,,,,,,,,,,,,,,,,,,,,,,,,,,,,,,,,,,,,,,,,,,,,,,,,,,,,,,,,,,,,,,,,,,,,
,,,,,,5e7fd320aa0fcb000913970d,62c53a03fdfb271f81d01cbb,2022-07-06_09h31.52.991,Colour_Asymmetry_Pilot,2022.1.3,Win32,143.9055979,62c50e9c1127f2cd403a315f,0,113,113,102,1,fourtwo,,,,,,,,,,,,,,,,,,,,,,,,,,,,,,,,,,,,,,,,,,,,,,,,,,,,,,,,,,,,,,,,,,,,,,,,,,,,,,,,,,,,,,,,,,,,,,,,,,,,,,,,,,,,,,,,,,,,,,,,,,,,,,,,,,,,,,,,,,,,,,,,,,,,,,,,,,,,,
,,,,,,5e7fd320aa0fcb000913970d,62c53a03fdfb271f81d01cbb,2022-07-06_09h31.52.991,Colour_Asymmetry_Pilot,2022.1.3,Win32,143.9055979,62c50e9c1127f2cd403a315f,0,114,114,133,1,threefour,,,,,,,,,,,,,,,,,,,,,,,,,,,,,,,,,,,,,,,,,,,,,,,,,,,,,,,,,,,,,,,,,,,,,,,,,,,,,,,,,,,,,,,,,,,,,,,,,,,,,,,,,,,,,,,,,,,,,,,,,,,,,,,,,,,,,,,,,,,,,,,,,,,,,,,,,,,,,
,,,,,,5e7fd320aa0fcb000913970d,62c53a03fdfb271f81d01cbb,2022-07-06_09h31.52.991,Colour_Asymmetry_Pilot,2022.1.3,Win32,143.9055979,62c50e9c1127f2cd403a315f,0,115,115,65,1,onethree,,,,,,,,,,,,,,,,,,,,,,,,,,,,,,,,,,,,,,,,,,,,,,,,,,,,,,,,,,,,,,,,,,,,,,,,,,,,,,,,,,,,,,,,,,,,,,,,,,,,,,,,,,,,,,,,,,,,,,,,,,,,,,,,,,,,,,,,,,,,,,,,,,,,,,,,,,,,,
,,,,,,5e7fd320aa0fcb000913970d,62c53a03fdfb271f81d01cbb,2022-07-06_09h31.52.991,Colour_Asymmetry_Pilot,2022.1.3,Win32,143.9055979,62c50e9c1127f2cd403a315f,0,116,116,35,1,twofour,,,,,,,,,,,,,,,,,,,,,,,,,,,,,,,,,,,,,,,,,,,,,,,,,,,,,,,,,,,,,,,,,,,,,,,,,,,,,,,,,,,,,,,,,,,,,,,,,,,,,,,,,,,,,,,,,,,,,,,,,,,,,,,,,,,,,,,,,,,,,,,,,,,,,,,,,,,,,
,,,,,,5e7fd320aa0fcb000913970d,62c53a03fdfb271f81d01cbb,2022-07-06_09h31.52.991,Colour_Asymmetry_Pilot,2022.1.3,Win32,143.9055979,62c50e9c1127f2cd403a315f,0,117,117,62,1,fourtwo,,,,,,,,,,,,,,,,,,,,,,,,,,,,,,,,,,,,,,,,,,,,,,,,,,,,,,,,,,,,,,,,,,,,,,,,,,,,,,,,,,,,,,,,,,,,,,,,,,,,,,,,,,,,,,,,,,,,,,,,,,,,,,,,,,,,,,,,,,,,,,,,,,,,,,,,,,,,,
,,,,,,5e7fd320aa0fcb000913970d,62c53a03fdfb271f81d01cbb,2022-07-06_09h31.52.991,Colour_Asymmetry_Pilot,2022.1.3,Win32,143.9055979,62c50e9c1127f2cd403a315f,0,118,118,126,1,fourtwo,,,,,,,,,,,,,,,,,,,,,,,,,,,,,,,,,,,,,,,,,,,,,,,,,,,,,,,,,,,,,,,,,,,,,,,,,,,,,,,,,,,,,,,,,,,,,,,,,,,,,,,,,,,,,,,,,,,,,,,,,,,,,,,,,,,,,,,,,,,,,,,,,,,,,,,,,,,,,
,,,,,,5e7fd320aa0fcb000913970d,62c53a03fdfb271f81d01cbb,2022-07-06_09h31.52.991,Colour_Asymmetry_Pilot,2022.1.3,Win32,143.9055979,62c50e9c1127f2cd403a315f,0,119,119,149,1,threefour,,,,,,,,,,,,,,,,,,,,,,,,,,,,,,,,,,,,,,,,,,,,,,,,,,,,,,,,,,,,,,,,,,,,,,,,,,,,,,,,,,,,,,,,,,,,,,,,,,,,,,,,,,,,,,,,,,,,,,,,,,,,,,,,,,,,,,,,,,,,,,,,,,,,,,,,,,,,,
,,,,,,5e7fd320aa0fcb000913970d,62c53a03fdfb271f81d01cbb,2022-07-06_09h31.52.991,Colour_Asymmetry_Pilot,2022.1.3,Win32,143.9055979,62c50e9c1127f2cd403a315f,0,120,120,135,1,fourthree,,,,,,,,,,,,,,,,,,,,,,,,,,,,,,,,,,,,,,,,,,,,,,,,,,,,,,,,,,,,,,,,,,,,,,,,,,,,,,,,,,,,,,,,,,,,,,,,,,,,,,,,,,,,,,,,,,,,,,,,,,,,,,,,,,,,,,,,,,,,,,,,,,,,,,,,,,,,,
,,,,,,5e7fd320aa0fcb000913970d,62c53a03fdfb271f81d01cbb,2022-07-06_09h31.52.991,Colour_Asymmetry_Pilot,2022.1.3,Win32,143.9055979,62c50e9c1127f2cd403a315f,0,121,121,121,1,onethree,,,,,,,,,,,,,,,,,,,,,,,,,,,,,,,,,,,,,,,,,,,,,,,,,,,,,,,,,,,,,,,,,,,,,,,,,,,,,,,,,,,,,,,,,,,,,,,,,,,,,,,,,,,,,,,,,,,,,,,,,,,,,,,,,,,,,,,,,,,,,,,,,,,,,,,,,,,,,
,,,,,,5e7fd320aa0fcb000913970d,62c53a03fdfb271f81d01cbb,2022-07-06_09h31.52.991,Colour_Asymmetry_Pilot,2022.1.3,Win32,143.9055979,62c50e9c1127f2cd403a315f,0,122,122,111,1,fourthree,,,,,,,,,,,,,,,,,,,,,,,,,,,,,,,,,,,,,,,,,,,,,,,,,,,,,,,,,,,,,,,,,,,,,,,,,,,,,,,,,,,,,,,,,,,,,,,,,,,,,,,,,,,,,,,,,,,,,,,,,,,,,,,,,,,,,,,,,,,,,,,,,,,,,,,,,,,,,
,,,,,,5e7fd320aa0fcb000913970d,62c53a03fdfb271f81d01cbb,2022-07-06_09h31.52.991,Colour_Asymmetry_Pilot,2022.1.3,Win32,143.9055979,62c50e9c1127f2cd403a315f,0,123,123,70,1,fourtwo,,,,,,,,,,,,,,,,,,,,,,,,,,,,,,,,,,,,,,,,,,,,,,,,,,,,,,,,,,,,,,,,,,,,,,,,,,,,,,,,,,,,,,,,,,,,,,,,,,,,,,,,,,,,,,,,,,,,,,,,,,,,,,,,,,,,,,,,,,,,,,,,,,,,,,,,,,,,,
,,,,,,5e7fd320aa0fcb000913970d,62c53a03fdfb271f81d01cbb,2022-07-06_09h31.52.991,Colour_Asymmetry_Pilot,2022.1.3,Win32,143.9055979,62c50e9c1127f2cd403a315f,0,124,124,156,1,threeone,,,,,,,,,,,,,,,,,,,,,,,,,,,,,,,,,,,,,,,,,,,,,,,,,,,,,,,,,,,,,,,,,,,,,,,,,,,,,,,,,,,,,,,,,,,,,,,,,,,,,,,,,,,,,,,,,,,,,,,,,,,,,,,,,,,,,,,,,,,,,,,,,,,,,,,,,,,,,
,,,,,,5e7fd320aa0fcb000913970d,62c53a03fdfb271f81d01cbb,2022-07-06_09h31.52.991,Colour_Asymmetry_Pilot,2022.1.3,Win32,143.9055979,62c50e9c1127f2cd403a315f,0,125,125,2,1,twoone,,,,,,,,,,,,,,,,,,,,,,,,,,,,,,,,,,,,,,,,,,,,,,,,,,,,,,,,,,,,,,,,,,,,,,,,,,,,,,,,,,,,,,,,,,,,,,,,,,,,,,,,,,,,,,,,,,,,,,,,,,,,,,,,,,,,,,,,,,,,,,,,,,,,,,,,,,,,,
,,,,,,5e7fd320aa0fcb000913970d,62c53a03fdfb271f81d01cbb,2022-07-06_09h31.52.991,Colour_Asymmetry_Pilot,2022.1.3,Win32,143.9055979,62c50e9c1127f2cd403a315f,0,126,126,20,1,threeone,,,,,,,,,,,,,,,,,,,,,,,,,,,,,,,,,,,,,,,,,,,,,,,,,,,,,,,,,,,,,,,,,,,,,,,,,,,,,,,,,,,,,,,,,,,,,,,,,,,,,,,,,,,,,,,,,,,,,,,,,,,,,,,,,,,,,,,,,,,,,,,,,,,,,,,,,,,,,
,,,,,,5e7fd320aa0fcb000913970d,62c53a03fdfb271f81d01cbb,2022-07-06_09h31.52.991,Colour_Asymmetry_Pilot,2022.1.3,Win32,143.9055979,62c50e9c1127f2cd403a315f,0,127,127,71,1,fourthree,,,,,,,,,,,,,,,,,,,,,,,,,,,,,,,,,,,,,,,,,,,,,,,,,,,,,,,,,,,,,,,,,,,,,,,,,,,,,,,,,,,,,,,,,,,,,,,,,,,,,,,,,,,,,,,,,,,,,,,,,,,,,,,,,,,,,,,,,,,,,,,,,,,,,,,,,,,,,
,,,,,,5e7fd320aa0fcb000913970d,62c53a03fdfb271f81d01cbb,2022-07-06_09h31.52.991,Colour_Asymmetry_Pilot,2022.1.3,Win32,143.9055979,62c50e9c1127f2cd403a315f,0,128,128,101,1,threefour,,,,,,,,,,,,,,,,,,,,,,,,,,,,,,,,,,,,,,,,,,,,,,,,,,,,,,,,,,,,,,,,,,,,,,,,,,,,,,,,,,,,,,,,,,,,,,,,,,,,,,,,,,,,,,,,,,,,,,,,,,,,,,,,,,,,,,,,,,,,,,,,,,,,,,,,,,,,,
,,,,,,5e7fd320aa0fcb000913970d,62c53a03fdfb271f81d01cbb,2022-07-06_09h31.52.991,Colour_Asymmetry_Pilot,2022.1.3,Win32,143.9055979,62c50e9c1127f2cd403a315f,0,129,129,29,1,threefour,,,,,,,,,,,,,,,,,,,,,,,,,,,,,,,,,,,,,,,,,,,,,,,,,,,,,,,,,,,,,,,,,,,,,,,,,,,,,,,,,,,,,,,,,,,,,,,,,,,,,,,,,,,,,,,,,,,,,,,,,,,,,,,,,,,,,,,,,,,,,,,,,,,,,,,,,,,,,
,,,,,,5e7fd320aa0fcb000913970d,62c53a03fdfb271f81d01cbb,2022-07-06_09h31.52.991,Colour_Asymmetry_Pilot,2022.1.3,Win32,143.9055979,62c50e9c1127f2cd403a315f,0,130,130,75,1,twofour,,,,,,,,,,,,,,,,,,,,,,,,,,,,,,,,,,,,,,,,,,,,,,,,,,,,,,,,,,,,,,,,,,,,,,,,,,,,,,,,,,,,,,,,,,,,,,,,,,,,,,,,,,,,,,,,,,,,,,,,,,,,,,,,,,,,,,,,,,,,,,,,,,,,,,,,,,,,,
,,,,,,5e7fd320aa0fcb000913970d,62c53a03fdfb271f81d01cbb,2022-07-06_09h31.52.991,Colour_Asymmetry_Pilot,2022.1.3,Win32,143.9055979,62c50e9c1127f2cd403a315f,0,131,131,52,1,threeone,,,,,,,,,,,,,,,,,,,,,,,,,,,,,,,,,,,,,,,,,,,,,,,,,,,,,,,,,,,,,,,,,,,,,,,,,,,,,,,,,,,,,,,,,,,,,,,,,,,,,,,,,,,,,,,,,,,,,,,,,,,,,,,,,,,,,,,,,,,,,,,,,,,,,,,,,,,,,
,,,,,,5e7fd320aa0fcb000913970d,62c53a03fdfb271f81d01cbb,2022-07-06_09h31.52.991,Colour_Asymmetry_Pilot,2022.1.3,Win32,143.9055979,62c50e9c1127f2cd403a315f,0,132,132,4,1,threeone,,,,,,,,,,,,,,,,,,,,,,,,,,,,,,,,,,,,,,,,,,,,,,,,,,,,,,,,,,,,,,,,,,,,,,,,,,,,,,,,,,,,,,,,,,,,,,,,,,,,,,,,,,,,,,,,,,,,,,,,,,,,,,,,,,,,,,,,,,,,,,,,,,,,,,,,,,,,,
,,,,,,5e7fd320aa0fcb000913970d,62c53a03fdfb271f81d01cbb,2022-07-06_09h31.52.991,Colour_Asymmetry_Pilot,2022.1.3,Win32,143.9055979,62c50e9c1127f2cd403a315f,0,133,133,89,1,onethree,,,,,,,,,,,,,,,,,,,,,,,,,,,,,,,,,,,,,,,,,,,,,,,,,,,,,,,,,,,,,,,,,,,,,,,,,,,,,,,,,,,,,,,,,,,,,,,,,,,,,,,,,,,,,,,,,,,,,,,,,,,,,,,,,,,,,,,,,,,,,,,,,,,,,,,,,,,,,
,,,,,,5e7fd320aa0fcb000913970d,62c53a03fdfb271f81d01cbb,2022-07-06_09h31.52.991,Colour_Asymmetry_Pilot,2022.1.3,Win32,143.9055979,62c50e9c1127f2cd403a315f,0,134,134,5,1,threefour,,,,,,,,,,,,,,,,,,,,,,,,,,,,,,,,,,,,,,,,,,,,,,,,,,,,,,,,,,,,,,,,,,,,,,,,,,,,,,,,,,,,,,,,,,,,,,,,,,,,,,,,,,,,,,,,,,,,,,,,,,,,,,,,,,,,,,,,,,,,,,,,,,,,,,,,,,,,,
,,,,,,5e7fd320aa0fcb000913970d,62c53a03fdfb271f81d01cbb,2022-07-06_09h31.52.991,Colour_Asymmetry_Pilot,2022.1.3,Win32,143.9055979,62c50e9c1127f2cd403a315f,0,135,135,110,1,fourtwo,,,,,,,,,,,,,,,,,,,,,,,,,,,,,,,,,,,,,,,,,,,,,,,,,,,,,,,,,,,,,,,,,,,,,,,,,,,,,,,,,,,,,,,,,,,,,,,,,,,,,,,,,,,,,,,,,,,,,,,,,,,,,,,,,,,,,,,,,,,,,,,,,,,,,,,,,,,,,
,,,,,,5e7fd320aa0fcb000913970d,62c53a03fdfb271f81d01cbb,2022-07-06_09h31.52.991,Colour_Asymmetry_Pilot,2022.1.3,Win32,143.9055979,62c50e9c1127f2cd403a315f,0,136,136,41,1,onethree,,,,,,,,,,,,,,,,,,,,,,,,,,,,,,,,,,,,,,,,,,,,,,,,,,,,,,,,,,,,,,,,,,,,,,,,,,,,,,,,,,,,,,,,,,,,,,,,,,,,,,,,,,,,,,,,,,,,,,,,,,,,,,,,,,,,,,,,,,,,,,,,,,,,,,,,,,,,,
,,,,,,5e7fd320aa0fcb000913970d,62c53a03fdfb271f81d01cbb,2022-07-06_09h31.52.991,Colour_Asymmetry_Pilot,2022.1.3,Win32,143.9055979,62c50e9c1127f2cd403a315f,0,137,137,63,1,fourthree,,,,,,,,,,,,,,,,,,,,,,,,,,,,,,,,,,,,,,,,,,,,,,,,,,,,,,,,,,,,,,,,,,,,,,,,,,,,,,,,,,,,,,,,,,,,,,,,,,,,,,,,,,,,,,,,,,,,,,,,,,,,,,,,,,,,,,,,,,,,,,,,,,,,,,,,,,,,,
,,,,,,5e7fd320aa0fcb000913970d,62c53a03fdfb271f81d01cbb,2022-07-06_09h31.52.991,Colour_Asymmetry_Pilot,2022.1.3,Win32,143.9055979,62c50e9c1127f2cd403a315f,0,138,138,160,1,onetwo,,,,,,,,,,,,,,,,,,,,,,,,,,,,,,,,,,,,,,,,,,,,,,,,,,,,,,,,,,,,,,,,,,,,,,,,,,,,,,,,,,,,,,,,,,,,,,,,,,,,,,,,,,,,,,,,,,,,,,,,,,,,,,,,,,,,,,,,,,,,,,,,,,,,,,,,,,,,,
,,,,,,5e7fd320aa0fcb000913970d,62c53a03fdfb271f81d01cbb,2022-07-06_09h31.52.991,Colour_Asymmetry_Pilot,2022.1.3,Win32,143.9055979,62c50e9c1127f2cd403a315f,0,139,139,30,1,fourtwo,,,,,,,,,,,,,,,,,,,,,,,,,,,,,,,,,,,,,,,,,,,,,,,,,,,,,,,,,,,,,,,,,,,,,,,,,,,,,,,,,,,,,,,,,,,,,,,,,,,,,,,,,,,,,,,,,,,,,,,,,,,,,,,,,,,,,,,,,,,,,,,,,,,,,,,,,,,,,
,,,,,,5e7fd320aa0fcb000913970d,62c53a03fdfb271f81d01cbb,2022-07-06_09h31.52.991,Colour_Asymmetry_Pilot,2022.1.3,Win32,143.9055979,62c50e9c1127f2cd403a315f,0,140,140,94,1,fourtwo,,,,,,,,,,,,,,,,,,,,,,,,,,,,,,,,,,,,,,,,,,,,,,,,,,,,,,,,,,,,,,,,,,,,,,,,,,,,,,,,,,,,,,,,,,,,,,,,,,,,,,,,,,,,,,,,,,,,,,,,,,,,,,,,,,,,,,,,,,,,,,,,,,,,,,,,,,,,,
,,,,,,5e7fd320aa0fcb000913970d,62c53a03fdfb271f81d01cbb,2022-07-06_09h31.52.991,Colour_Asymmetry_Pilot,2022.1.3,Win32,143.9055979,62c50e9c1127f2cd403a315f,0,141,141,43,1,twofour,,,,,,,,,,,,,,,,,,,,,,,,,,,,,,,,,,,,,,,,,,,,,,,,,,,,,,,,,,,,,,,,,,,,,,,,,,,,,,,,,,,,,,,,,,,,,,,,,,,,,,,,,,,,,,,,,,,,,,,,,,,,,,,,,,,,,,,,,,,,,,,,,,,,,,,,,,,,,
,,,,,,5e7fd320aa0fcb000913970d,62c53a03fdfb271f81d01cbb,2022-07-06_09h31.52.991,Colour_Asymmetry_Pilot,2022.1.3,Win32,143.9055979,62c50e9c1127f2cd403a315f,0,142,142,95,1,fourthree,,,,,,,,,,,,,,,,,,,,,,,,,,,,,,,,,,,,,,,,,,,,,,,,,,,,,,,,,,,,,,,,,,,,,,,,,,,,,,,,,,,,,,,,,,,,,,,,,,,,,,,,,,,,,,,,,,,,,,,,,,,,,,,,,,,,,,,,,,,,,,,,,,,,,,,,,,,,,
,,,,,,5e7fd320aa0fcb000913970d,62c53a03fdfb271f81d01cbb,2022-07-06_09h31.52.991,Colour_Asymmetry_Pilot,2022.1.3,Win32,143.9055979,62c50e9c1127f2cd403a315f,0,143,143,146,1,twoone,,,,,,,,,,,,,,,,,,,,,,,,,,,,,,,,,,,,,,,,,,,,,,,,,,,,,,,,,,,,,,,,,,,,,,,,,,,,,,,,,,,,,,,,,,,,,,,,,,,,,,,,,,,,,,,,,,,,,,,,,,,,,,,,,,,,,,,,,,,,,,,,,,,,,,,,,,,,,
,,,,,,5e7fd320aa0fcb000913970d,62c53a03fdfb271f81d01cbb,2022-07-06_09h31.52.991,Colour_Asymmetry_Pilot,2022.1.3,Win32,143.9055979,62c50e9c1127f2cd403a315f,0,144,144,16,1,onetwo,,,,,,,,,,,,,,,,,,,,,,,,,,,,,,,,,,,,,,,,,,,,,,,,,,,,,,,,,,,,,,,,,,,,,,,,,,,,,,,,,,,,,,,,,,,,,,,,,,,,,,,,,,,,,,,,,,,,,,,,,,,,,,,,,,,,,,,,,,,,,,,,,,,,,,,,,,,,,
,,,,,,5e7fd320aa0fcb000913970d,62c53a03fdfb271f81d01cbb,2022-07-06_09h31.52.991,Colour_Asymmetry_Pilot,2022.1.3,Win32,143.9055979,62c50e9c1127f2cd403a315f,0,145,145,159,1,fourthree,,,,,,,,,,,,,,,,,,,,,,,,,,,,,,,,,,,,,,,,,,,,,,,,,,,,,,,,,,,,,,,,,,,,,,,,,,,,,,,,,,,,,,,,,,,,,,,,,,,,,,,,,,,,,,,,,,,,,,,,,,,,,,,,,,,,,,,,,,,,,,,,,,,,,,,,,,,,,
,,,,,,5e7fd320aa0fcb000913970d,62c53a03fdfb271f81d01cbb,2022-07-06_09h31.52.991,Colour_Asymmetry_Pilot,2022.1.3,Win32,143.9055979,62c50e9c1127f2cd403a315f,0,146,146,96,1,onetwo,,,,,,,,,,,,,,,,,,,,,,,,,,,,,,,,,,,,,,,,,,,,,,,,,,,,,,,,,,,,,,,,,,,,,,,,,,,,,,,,,,,,,,,,,,,,,,,,,,,,,,,,,,,,,,,,,,,,,,,,,,,,,,,,,,,,,,,,,,,,,,,,,,,,,,,,,,,,,
,,,,,,5e7fd320aa0fcb000913970d,62c53a03fdfb271f81d01cbb,2022-07-06_09h31.52.991,Colour_Asymmetry_Pilot,2022.1.3,Win32,143.9055979,62c50e9c1127f2cd403a315f,0,147,147,98,1,twoone,,,,,,,,,,,,,,,,,,,,,,,,,,,,,,,,,,,,,,,,,,,,,,,,,,,,,,,,,,,,,,,,,,,,,,,,,,,,,,,,,,,,,,,,,,,,,,,,,,,,,,,,,,,,,,,,,,,,,,,,,,,,,,,,,,,,,,,,,,,,,,,,,,,,,,,,,,,,,
,,,,,,5e7fd320aa0fcb000913970d,62c53a03fdfb271f81d01cbb,2022-07-06_09h31.52.991,Colour_Asymmetry_Pilot,2022.1.3,Win32,143.9055979,62c50e9c1127f2cd403a315f,0,148,148,0,1,onetwo,,,,,,,,,,,,,,,,,,,,,,,,,,,,,,,,,,,,,,,,,,,,,,,,,,,,,,,,,,,,,,,,,,,,,,,,,,,,,,,,,,,,,,,,,,,,,,,,,,,,,,,,,,,,,,,,,,,,,,,,,,,,,,,,,,,,,,,,,,,,,,,,,,,,,,,,,,,,,
,,,,,,5e7fd320aa0fcb000913970d,62c53a03fdfb271f81d01cbb,2022-07-06_09h31.52.991,Colour_Asymmetry_Pilot,2022.1.3,Win32,143.9055979,62c50e9c1127f2cd403a315f,0,149,149,33,1,onethree,,,,,,,,,,,,,,,,,,,,,,,,,,,,,,,,,,,,,,,,,,,,,,,,,,,,,,,,,,,,,,,,,,,,,,,,,,,,,,,,,,,,,,,,,,,,,,,,,,,,,,,,,,,,,,,,,,,,,,,,,,,,,,,,,,,,,,,,,,,,,,,,,,,,,,,,,,,,,
,,,,,,5e7fd320aa0fcb000913970d,62c53a03fdfb271f81d01cbb,2022-07-06_09h31.52.991,Colour_Asymmetry_Pilot,2022.1.3,Win32,143.9055979,62c50e9c1127f2cd403a315f,0,150,150,6,1,fourtwo,,,,,,,,,,,,,,,,,,,,,,,,,,,,,,,,,,,,,,,,,,,,,,,,,,,,,,,,,,,,,,,,,,,,,,,,,,,,,,,,,,,,,,,,,,,,,,,,,,,,,,,,,,,,,,,,,,,,,,,,,,,,,,,,,,,,,,,,,,,,,,,,,,,,,,,,,,,,,
,,,,,,5e7fd320aa0fcb000913970d,62c53a03fdfb271f81d01cbb,2022-07-06_09h31.52.991,Colour_Asymmetry_Pilot,2022.1.3,Win32,143.9055979,62c50e9c1127f2cd403a315f,0,151,151,73,1,onethree,,,,,,,,,,,,,,,,,,,,,,,,,,,,,,,,,,,,,,,,,,,,,,,,,,,,,,,,,,,,,,,,,,,,,,,,,,,,,,,,,,,,,,,,,,,,,,,,,,,,,,,,,,,,,,,,,,,,,,,,,,,,,,,,,,,,,,,,,,,,,,,,,,,,,,,,,,,,,
,,,,,,5e7fd320aa0fcb000913970d,62c53a03fdfb271f81d01cbb,2022-07-06_09h31.52.991,Colour_Asymmetry_Pilot,2022.1.3,Win32,143.9055979,62c50e9c1127f2cd403a315f,0,152,152,152,1,onetwo,,,,,,,,,,,,,,,,,,,,,,,,,,,,,,,,,,,,,,,,,,,,,,,,,,,,,,,,,,,,,,,,,,,,,,,,,,,,,,,,,,,,,,,,,,,,,,,,,,,,,,,,,,,,,,,,,,,,,,,,,,,,,,,,,,,,,,,,,,,,,,,,,,,,,,,,,,,,,
,,,,,,5e7fd320aa0fcb000913970d,62c53a03fdfb271f81d01cbb,2022-07-06_09h31.52.991,Colour_Asymmetry_Pilot,2022.1.3,Win32,143.9055979,62c50e9c1127f2cd403a315f,0,153,153,84,1,threeone,,,,,,,,,,,,,,,,,,,,,,,,,,,,,,,,,,,,,,,,,,,,,,,,,,,,,,,,,,,,,,,,,,,,,,,,,,,,,,,,,,,,,,,,,,,,,,,,,,,,,,,,,,,,,,,,,,,,,,,,,,,,,,,,,,,,,,,,,,,,,,,,,,,,,,,,,,,,,
,,,,,,5e7fd320aa0fcb000913970d,62c53a03fdfb271f81d01cbb,2022-07-06_09h31.52.991,Colour_Asymmetry_Pilot,2022.1.3,Win32,143.9055979,62c50e9c1127f2cd403a315f,0,154,154,59,1,twofour,,,,,,,,,,,,,,,,,,,,,,,,,,,,,,,,,,,,,,,,,,,,,,,,,,,,,,,,,,,,,,,,,,,,,,,,,,,,,,,,,,,,,,,,,,,,,,,,,,,,,,,,,,,,,,,,,,,,,,,,,,,,,,,,,,,,,,,,,,,,,,,,,,,,,,,,,,,,,
,,,,,,5e7fd320aa0fcb000913970d,62c53a03fdfb271f81d01cbb,2022-07-06_09h31.52.991,Colour_Asymmetry_Pilot,2022.1.3,Win32,143.9055979,62c50e9c1127f2cd403a315f,0,155,155,56,1,onetwo,,,,,,,,,,,,,,,,,,,,,,,,,,,,,,,,,,,,,,,,,,,,,,,,,,,,,,,,,,,,,,,,,,,,,,,,,,,,,,,,,,,,,,,,,,,,,,,,,,,,,,,,,,,,,,,,,,,,,,,,,,,,,,,,,,,,,,,,,,,,,,,,,,,,,,,,,,,,,
,,,,,,5e7fd320aa0fcb000913970d,62c53a03fdfb271f81d01cbb,2022-07-06_09h31.52.991,Colour_Asymmetry_Pilot,2022.1.3,Win32,143.9055979,62c50e9c1127f2cd403a315f,0,156,156,106,1,twoone,,,,,,,,,,,,,,,,,,,,,,,,,,,,,,,,,,,,,,,,,,,,,,,,,,,,,,,,,,,,,,,,,,,,,,,,,,,,,,,,,,,,,,,,,,,,,,,,,,,,,,,,,,,,,,,,,,,,,,,,,,,,,,,,,,,,,,,,,,,,,,,,,,,,,,,,,,,,,
,,,,,,5e7fd320aa0fcb000913970d,62c53a03fdfb271f81d01cbb,2022-07-06_09h31.52.991,Colour_Asymmetry_Pilot,2022.1.3,Win32,143.9055979,62c50e9c1127f2cd403a315f,0,157,157,132,1,threeone,,,,,,,,,,,,,,,,,,,,,,,,,,,,,,,,,,,,,,,,,,,,,,,,,,,,,,,,,,,,,,,,,,,,,,,,,,,,,,,,,,,,,,,,,,,,,,,,,,,,,,,,,,,,,,,,,,,,,,,,,,,,,,,,,,,,,,,,,,,,,,,,,,,,,,,,,,,,,
,,,,,,5e7fd320aa0fcb000913970d,62c53a03fdfb271f81d01cbb,2022-07-06_09h31.52.991,Colour_Asymmetry_Pilot,2022.1.3,Win32,143.9055979,62c50e9c1127f2cd403a315f,0,158,158,131,1,twofour,,,,,,,,,,,,,,,,,,,,,,,,,,,,,,,,,,,,,,,,,,,,,,,,,,,,,,,,,,,,,,,,,,,,,,,,,,,,,,,,,,,,,,,,,,,,,,,,,,,,,,,,,,,,,,,,,,,,,,,,,,,,,,,,,,,,,,,,,,,,,,,,,,,,,,,,,,,,,
,,,,,,5e7fd320aa0fcb000913970d,62c53a03fdfb271f81d01cbb,2022-07-06_09h31.52.991,Colour_Asymmetry_Pilot,2022.1.3,Win32,143.9055979,62c50e9c1127f2cd403a315f,0,159,159,19,1,twofour,,,,,,,,,,,,,,,,,,,,,,,,,,,,,,,,,,,,,,,,,,,,,,,,,,,,,,,,,,,,,,,,,,,,,,,,,,,,,,,,,,,,,,,,,,,,,,,,,,,,,,,,,,,,,,,,,,,,,,,,,,,,,,,,,,,,,,,,,,,,,,,,,,,,,,,,,,,,,
,,,,,,5e7fd320aa0fcb000913970d,62c53a03fdfb271f81d01cbb,2022-07-06_09h31.52.991,Colour_Asymmetry_Pilot,2022.1.3,Win32,143.9055979,62c50e9c1127f2cd403a315f,0,160,160,134,1,fourtwo,,,,,,,,,,,,,,,,,,,,,,,,,,,,,,,,,,,,,,,,,,,,,,,,,,,,,,,,,,,,,,,,,,,,,,,,,,,,,,,,,,,,,,,,,,,,,,,,,,,,,,,,,,,,,,,,,,,,,,,,,,,,,,,,,,,,,,,,,,,,,,,,,,,,,,,,,,,,,
,,,,,,5e7fd320aa0fcb000913970d,62c53a03fdfb271f81d01cbb,2022-07-06_09h31.52.991,Colour_Asymmetry_Pilot,2022.1.3,Win32,143.9055979,62c50e9c1127f2cd403a315f,0,161,161,92,1,threeone,,,,,,,,,,,,,,,,,,,,,,,,,,,,,,,,,,,,,,,,,,,,,,,,,,,,,,,,,,,,,,,,,,,,,,,,,,,,,,,,,,,,,,,,,,,,,,,,,,,,,,,,,,,,,,,,,,,,,,,,,,,,,,,,,,,,,,,,,,,,,,,,,,,,,,,,,,,,,
,,,,,,5e7fd320aa0fcb000913970d,62c53a03fdfb271f81d01cbb,2022-07-06_09h31.52.991,Colour_Asymmetry_Pilot,2022.1.3,Win32,143.9055979,62c50e9c1127f2cd403a315f,,,,,,,space,2.8555,space,15.0666,space,37.9674,space,6.1327,space,3.8641,space,3.4519,"[-0.9688,-0.38039999999999996,-0.41979999999999995]",threeone,"[0.9763999999999999,-0.1137999999999999,-0.6314]",-3,10.8375,-161,67,1,0,0,response7disk_5,-7,-8,1,0,0,rectangle_8,-7,-8,1,0,0,1,-7,-8,1,0,0,0,0,0,0,1,,,,,,,,,,,,,,,,,,,,,,,,,,,,,,,,,,,,,,,,,,,,,,,,,,,,,,,,,,,,,,,,,,,,,,,,,,,,,,,,,,,,,,,,,,,,,,,,,,,,,,,,,,,,,,,,
,,,,,,5e7fd320aa0fcb000913970d,62c53a03fdfb271f81d01cbb,2022-07-06_09h31.52.991,Colour_Asymmetry_Pilot,2022.1.3,Win32,143.9055979,62c50e9c1127f2cd403a315f,,,,,,,,,,,,,,,,,,,"[0.7646000000000002,0.07440000000000002,0.2704]",onetwo,"[0.34099999999999997,0.5841999999999998,-0.9844]",-4,2.7575,-76,185,1,0,0,response7disk_5,4,-4,1,0,0,rectangle_8,74,-185,1,0,0,1,33,-15,1,0,0,1,0,1,0,1,response3disk_7,4,rectangle_4,,,,,,,,,,,,,,,,,,,,,,,,,,,,,,,,,,,,,,,,,,,,,,,,,,,,,,,,,,,,,,,,,,,,,,,,,,,,,,,,,,,,,,,,,,,,,,,,,,,,,,,,,,,,,
,,,,,,5e7fd320aa0fcb000913970d,62c53a03fdfb271f81d01cbb,2022-07-06_09h31.52.991,Colour_Asymmetry_Pilot,2022.1.3,Win32,143.9055979,62c50e9c1127f2cd403a315f,,,,,,,,,,,,,,,,,,,"[-0.9766,-0.6472,0.07440000000000002]",twoone,"[-0.9296,-0.12959999999999994,-0.043199999999999905]",3,2.035,178,62,1,0,0,response1disk_5,50,-13,1,0,0,rectangle_8,50,-13,1,0,0,1,50,-13,1,0,0,2,0,2,0,1,,,,,,,,,,,,,,,,,,,,,,,,,,,,,,,,,,,,,,,,,,,,,,,,,,,,,,,,,,,,,,,,,,,,,,,,,,,,,,,,,,,,,,,,,,,,,,,,,,,,,,,,,,,,,,,,
,,,,,,5e7fd320aa0fcb000913970d,62c53a03fdfb271f81d01cbb,2022-07-06_09h31.52.991,Colour_Asymmetry_Pilot,2022.1.3,Win32,143.9055979,62c50e9c1127f2cd403a315f,,,,,,,,,,,,,,,,,,,"[0.6625999999999999,0.4980000000000002,-0.357]",onetwo,"[0.4196,0.4665999999999999,0.3568]",-4,7.5845,-82,180,1,0,0,response7disk_5,8,-13,1,0,0,rectangle_8,8,-13,1,0,0,1,8,-13,1,0,0,3,0,3,0,1,,,,,,,,,,,,,,,,,,,,,,,,,,,,,,,,,,,,,,,,,,,,,,,,,,,,,,,,,,,,,,,,,,,,,,,,,,,,,,,,,,,,,,,,,,,,,,,,,,,,,,,,,,,,,,,,
,,,,,,5e7fd320aa0fcb000913970d,62c53a03fdfb271f81d01cbb,2022-07-06_09h31.52.991,Colour_Asymmetry_Pilot,2022.1.3,Win32,143.9055979,62c50e9c1127f2cd403a315f,,,,,,,,,,,,,,,,,,,"[0.30180000000000007,-0.7884,-0.9844]",twofour,"[0.9372,0.20779999999999998,0.2704]",1,7.9249,73,-190,1,0,0,response3disk_5,-4,-3,1,0,0,rectangle_8,-4,-3,1,0,0,1,-4,-3,1,0,0,4,0,4,0,1,,,,,,,,,,,,,,,,,,,,,,,,,,,,,,,,,,,,,,,,,,,,,,,,,,,,,,,,,,,,,,,,,,,,,,,,,,,,,,,,,,,,,,,,,,,,,,,,,,,,,,,,,,,,,,,,
,,,,,,5e7fd320aa0fcb000913970d,62c53a03fdfb271f81d01cbb,2022-07-06_09h31.52.991,Colour_Asymmetry_Pilot,2022.1.3,Win32,143.9055979,62c50e9c1127f2cd403a315f,,,,,,,,,,,,,,,,,,,"[1,0.12939999999999996,-1]",onetwo,"[0.5449999999999999,-0.31000000000000005,-0.0354000000000001]",-2,1.8751,-156,-67,1,0,0,response5disk_5,-24,2,1,0,0,rectangle_8,76,-182,1,0,0,1,16,4,1,0,0,5,0,5,0,1,response3disk_7,4,rectangle_4,,,,,,,,,,,,,,,,,,,,,,,,,,,,,,,,,,,,,,,,,,,,,,,,,,,,,,,,,,,,,,,,,,,,,,,,,,,,,,,,,,,,,,,,,,,,,,,,,,,,,,,,,,,,,
,,,,,,5e7fd320aa0fcb000913970d,62c53a03fdfb271f81d01cbb,2022-07-06_09h31.52.991,Colour_Asymmetry_Pilot,2022.1.3,Win32,143.9055979,62c50e9c1127f2cd403a315f,,,,,,,,,,,,,,,,,,,"[0.7176,-0.906,-0.6864]",fourtwo,"[0.40379999999999994,0.09000000000000008,0.44300000000000006]",-1,4.7159,-81,-185,1,0,0,response5disk_5,0,-13,1,0,0,rectangle_8,0,-13,1,0,0,1,0,-13,1,0,0,6,0,6,0,1,,,,,,,,,,,,,,,,,,,,,,,,,,,,,,,,,,,,,,,,,,,,,,,,,,,,,,,,,,,,,,,,,,,,,,,,,,,,,,,,,,,,,,,,,,,,,,,,,,,,,,,,,,,,,,,,
,,,,,,5e7fd320aa0fcb000913970d,62c53a03fdfb271f81d01cbb,2022-07-06_09h31.52.991,Colour_Asymmetry_Pilot,2022.1.3,Win32,143.9055979,62c50e9c1127f2cd403a315f,,,,,,,,,,,,,,,,,,,,twofour,,-4,1.6601,,,,,,,,,,,,,,,,,,,,,,,,,,,,,,,,space,3.431,"[-0.8198,-0.5138,-0.7492000000000001]","[-0.5922000000000001,-0.7492000000000001,-0.5296000000000001]",-47,156,1,0,0,response7disk,10,-8,1,0,0,rectangle,10,-8,1,0,0,,3,0.0007,0,10,-8,1,0,0,0,0,0,153,1,72,second,,,,,,,,,,,,,,,,,,,,,,,,,,,,,,,,,,,,,,,,,,,,,,,,,,,,,,,,,,,,,,,,,,,,,,,,
,,,,,,5e7fd320aa0fcb000913970d,62c53a03fdfb271f81d01cbb,2022-07-06_09h31.52.991,Colour_Asymmetry_Pilot,2022.1.3,Win32,143.9055979,62c50e9c1127f2cd403a315f,,,,,,,,,,,,,,,,,,,,twofour,,-3,2.1113,,,,,,,,,,,,,,,,,,,,,,,,,,,,,,,,,,"[-0.10599999999999998,-0.15300000000000002,0.15280000000000005]","[-0.0040000000000000036,0.02739999999999987,-0.08239999999999992]",-163,59,1,0,0,response7disk,14,8,1,0,0,rectangle,14,8,1,0,0,,1,0.0005,0,14,8,1,0,0,0,1,1,114,1,33,second,,,,,,,,,,,,,,,,,,,,,,,,,,,,,,,,,,,,,,,,,,,,,,,,,,,,,,,,,,,,,,,,,,,,,,,,
,,,,,,5e7fd320aa0fcb000913970d,62c53a03fdfb271f81d01cbb,2022-07-06_09h31.52.991,Colour_Asymmetry_Pilot,2022.1.3,Win32,143.9055979,62c50e9c1127f2cd403a315f,,,,,,,,,,,,,,,,,,,,onethree,,-3,1.2573,,,,,,,,,,,,,,,,,,,,,,,,,,,,,,,,,,"[-0.10599999999999998,-0.10599999999999998,0.5841999999999998]","[-0.4276,0.0038000000000000256,-0.3256]",-145,51,1,0,0,response7disk,-40,14,1,0,0,rectangle,-40,14,1,0,0,,2,0.0004,0,-40,14,1,0,0,0,2,2,46,1,46,first,,,,,,,,,,,,,,,,,,,,,,,,,,,,,,,,,,,,,,,,,,,,,,,,,,,,,,,,,,,,,,,,,,,,,,,,
,,,,,,5e7fd320aa0fcb000913970d,62c53a03fdfb271f81d01cbb,2022-07-06_09h31.52.991,Colour_Asymmetry_Pilot,2022.1.3,Win32,143.9055979,62c50e9c1127f2cd403a315f,,,,,,,,,,,,,,,,,,,,onetwo,,2,1.4586,,,,,,,,,,,,,,,,,,,,,,,,,,,,,,,,,,"[0.22340000000000004,-0.9296,-0.7884]","[0.9763999999999999,0.30979999999999985,-0.6786]",166,-68,1,0,0,response3disk,24,-26,1,0,0,rectangle,24,-26,1,0,0,,3,0.0004,0,24,-26,1,0,0,0,3,3,150,1,69,second,,,,,,,,,,,,,,,,,,,,,,,,,,,,,,,,,,,,,,,,,,,,,,,,,,,,,,,,,,,,,,,,,,,,,,,,
,,,,,,5e7fd320aa0fcb000913970d,62c53a03fdfb271f81d01cbb,2022-07-06_09h31.52.991,Colour_Asymmetry_Pilot,2022.1.3,Win32,143.9055979,62c50e9c1127f2cd403a315f,,,,,,,,,,,,,,,,,,,,onethree,,-4,5.7858,,,,,,,,,,,,,,,,,,,,,,,,,,,,,,,,,,"[-0.0040000000000000036,0.02739999999999987,-0.08239999999999992]","[-0.6,0.16860000000000008,0.44300000000000006]",-70,190,1,0,0,response7disk,-3,-21,1,0,0,rectangle,-3,-21,1,0,0,,3,0.0001,0,-3,-21,1,0,0,0,4,4,17,1,17,first,,,,,,,,,,,,,,,,,,,,,,,,,,,,,,,,,,,,,,,,,,,,,,,,,,,,,,,,,,,,,,,,,,,,,,,,
,,,,,,5e7fd320aa0fcb000913970d,62c53a03fdfb271f81d01cbb,2022-07-06_09h31.52.991,Colour_Asymmetry_Pilot,2022.1.3,Win32,143.9055979,62c50e9c1127f2cd403a315f,,,,,,,,,,,,,,,,,,,,onethree,,-4,1.0112,,,,,,,,,,,,,,,,,,,,,,,,,,,,,,,,,,"[-0.6942,-0.7648,-0.12959999999999994]","[0.9372,0.9450000000000001,0.8980000000000001]",-69,172,1,0,0,response7disk,-10,17,1,0,0,rectangle,-10,17,1,0,0,,2,0.0005,0,-10,17,1,0,0,0,5,5,8,1,8,first,,,,,,,,,,,,,,,,,,,,,,,,,,,,,,,,,,,,,,,,,,,,,,,,,,,,,,,,,,,,,,,,,,,,,,,,
,,,,,,5e7fd320aa0fcb000913970d,62c53a03fdfb271f81d01cbb,2022-07-06_09h31.52.991,Colour_Asymmetry_Pilot,2022.1.3,Win32,143.9055979,62c50e9c1127f2cd403a315f,,,,,,,,,,,,,,,,,,,,fourtwo,,-2,3.1116,,,,,,,,,,,,,,,,,,,,,,,,,,,,,,,,,,"[0.7802,-0.23140000000000005,-0.20799999999999996]","[0.9763999999999999,0.30979999999999985,-0.6786]",-167,-87,1,0,0,response5disk,-10,-8,1,0,0,rectangle,-10,-8,1,0,0,,2,0.0001,0,-10,-8,1,0,0,0,6,6,28,1,28,first,,,,,,,,,,,,,,,,,,,,,,,,,,,,,,,,,,,,,,,,,,,,,,,,,,,,,,,,,,,,,,,,,,,,,,,,
,,,,,,5e7fd320aa0fcb000913970d,62c53a03fdfb271f81d01cbb,2022-07-06_09h31.52.991,Colour_Asymmetry_Pilot,2022.1.3,Win32,143.9055979,62c50e9c1127f2cd403a315f,,,,,,,,,,,,,,,,,,,,threeone,,-4,0.7154,,,,,,,,,,,,,,,,,,,,,,,,,,,,,,,,,,"[0.40379999999999994,0.09000000000000008,0.44300000000000006]","[0.2784,-0.31000000000000005,-0.5452]",-65,165,1,0,0,response7disk,-16,-11,1,0,0,rectangle,-16,-11,1,0,0,,2,0.0001,0,-16,-11,1,0,0,0,7,7,12,1,12,first,,,,,,,,,,,,,,,,,,,,,,,,,,,,,,,,,,,,,,,,,,,,,,,,,,,,,,,,,,,,,,,,,,,,,,,,
,,,,,,5e7fd320aa0fcb000913970d,62c53a03fdfb271f81d01cbb,2022-07-06_09h31.52.991,Colour_Asymmetry_Pilot,2022.1.3,Win32,143.9055979,62c50e9c1127f2cd403a315f,,,,,,,,,,,,,,,,,,,,onethree,,-4,1.7364,,,,,,,,,,,,,,,,,,,,,,,,,,,,,,,,,,"[-0.7412000000000001,-0.08239999999999992,-0.6864]","[-0.30200000000000005,0.14500000000000002,0.2784]",-65,172,1,0,0,response7disk,-1,-1,1,0,0,rectangle,-1,-1,1,0,0,,3,0.0004,0,-1,-1,1,0,0,0,8,8,108,1,27,second,,,,,,,,,,,,,,,,,,,,,,,,,,,,,,,,,,,,,,,,,,,,,,,,,,,,,,,,,,,,,,,,,,,,,,,,
,,,,,,5e7fd320aa0fcb000913970d,62c53a03fdfb271f81d01cbb,2022-07-06_09h31.52.991,Colour_Asymmetry_Pilot,2022.1.3,Win32,143.9055979,62c50e9c1127f2cd403a315f,,,,,,,,,,,,,,,,,,,,threefour,,1,1.8337,,,,,,,,,,,,,,,,,,,,,,,,,,,,,,,,,,"[-0.10599999999999998,-0.15300000000000002,0.15280000000000005]","[-0.48240000000000005,0.3175999999999999,0.2156]",81,-200,1,0,0,response3disk,-8,17,1,0,0,rectangle,-8,17,1,0,0,,3,0,0,-8,17,1,0,0,0,9,9,44,1,44,first,,,,,,,,,,,,,,,,,,,,,,,,,,,,,,,,,,,,,,,,,,,,,,,,,,,,,,,,,,,,,,,,,,,,,,,,
,,,,,,5e7fd320aa0fcb000913970d,62c53a03fdfb271f81d01cbb,2022-07-06_09h31.52.991,Colour_Asymmetry_Pilot,2022.1.3,Win32,143.9055979,62c50e9c1127f2cd403a315f,,,,,,,,,,,,,,,,,,,,fourthree,,-3,1.9516,,,,,,,,,,,,,,,,,,,,,,,,,,,,,,,,,,"[-0.30200000000000005,0.14500000000000002,0.2784]","[-0.4902000000000001,0.2704,-0.45899999999999996]",-163,62,1,0,0,response7disk,15,-2,1,0,0,rectangle,15,-2,1,0,0,,2,0.0004,0,15,-2,1,0,0,0,10,10,59,1,59,first,,,,,,,,,,,,,,,,,,,,,,,,,,,,,,,,,,,,,,,,,,,,,,,,,,,,,,,,,,,,,,,,,,,,,,,,
,,,,,,5e7fd320aa0fcb000913970d,62c53a03fdfb271f81d01cbb,2022-07-06_09h31.52.991,Colour_Asymmetry_Pilot,2022.1.3,Win32,143.9055979,62c50e9c1127f2cd403a315f,,,,,,,,,,,,,,,,,,,,fourtwo,,-4,0.6701,,,,,,,,,,,,,,,,,,,,,,,,,,,,,,,,,,"[0.8115999999999999,-0.0040000000000000036,-0.09819999999999995]","[-0.24719999999999998,-0.0354000000000001,0.3175999999999999]",-76,167,1,0,0,response7disk,-32,6,1,0,0,rectangle,-32,6,1,0,0,,3,0.0004,0,-32,6,1,0,0,0,11,11,106,1,25,second,,,,,,,,,,,,,,,,,,,,,,,,,,,,,,,,,,,,,,,,,,,,,,,,,,,,,,,,,,,,,,,,,,,,,,,,
,,,,,,5e7fd320aa0fcb000913970d,62c53a03fdfb271f81d01cbb,2022-07-06_09h31.52.991,Colour_Asymmetry_Pilot,2022.1.3,Win32,143.9055979,62c50e9c1127f2cd403a315f,,,,,,,,,,,,,,,,,,,,twofour,,-3,12.1477,,,,,,,,,,,,,,,,,,,,,,,,,,,,,,,,,,"[0.9763999999999999,0.30979999999999985,-0.6786]","[0.22340000000000004,-0.9296,-0.7884]",-155,67,1,0,0,response7disk,3,7,1,0,0,rectangle,3,7,1,0,0,,1,0.0004,0,3,7,1,0,0,0,12,12,69,1,69,first,,,,,,,,,,,,,,,,,,,,,,,,,,,,,,,,,,,,,,,,,,,,,,,,,,,,,,,,,,,,,,,,,,,,,,,,
,,,,,,5e7fd320aa0fcb000913970d,62c53a03fdfb271f81d01cbb,2022-07-06_09h31.52.991,Colour_Asymmetry_Pilot,2022.1.3,Win32,143.9055979,62c50e9c1127f2cd403a315f,,,,,,,,,,,,,,,,,,,,threeone,,-4,1.7187,,,,,,,,,,,,,,,,,,,,,,,,,,,,,,,,,,"[-0.34920000000000007,-0.702,-0.5216]","[0.9842,0.7409999999999999,-0.6628000000000001]",-73,157,1,0,0,response7disk,3,-2,1,0,0,rectangle,3,-2,1,0,0,,2,0.0004,0,3,-2,1,0,0,0,13,13,39,1,39,first,,,,,,,,,,,,,,,,,,,,,,,,,,,,,,,,,,,,,,,,,,,,,,,,,,,,,,,,,,,,,,,,,,,,,,,,
,,,,,,5e7fd320aa0fcb000913970d,62c53a03fdfb271f81d01cbb,2022-07-06_09h31.52.991,Colour_Asymmetry_Pilot,2022.1.3,Win32,143.9055979,62c50e9c1127f2cd403a315f,,,,,,,,,,,,,,,,,,,,twofour,,2,1.2435,,,,,,,,,,,,,,,,,,,,,,,,,,,,,,,,,,"[0.2784,-0.31000000000000005,-0.5452]","[-0.01980000000000004,-0.5138,-0.38039999999999996]",163,-56,1,0,0,response3disk,41,5,1,0,0,rectangle,41,5,1,0,0,,3,0.0005,0,41,5,1,0,0,0,14,14,3,1,3,first,,,,,,,,,,,,,,,,,,,,,,,,,,,,,,,,,,,,,,,,,,,,,,,,,,,,,,,,,,,,,,,,,,,,,,,,
,,,,,,5e7fd320aa0fcb000913970d,62c53a03fdfb271f81d01cbb,2022-07-06_09h31.52.991,Colour_Asymmetry_Pilot,2022.1.3,Win32,143.9055979,62c50e9c1127f2cd403a315f,,,,,,,,,,,,,,,,,,,,fourthree,,-2,2.5699,,,,,,,,,,,,,,,,,,,,,,,,,,,,,,,,,,"[0.5528,0.7409999999999999,-0.71]","[0.7018,0.7176,0.6155999999999999]",-160,-74,1,0,0,response5disk,34,-13,1,0,0,rectangle,34,-13,1,0,0,,1,0.0004,0,34,-13,1,0,0,0,15,15,0,1,0,first,,,,,,,,,,,,,,,,,,,,,,,,,,,,,,,,,,,,,,,,,,,,,,,,,,,,,,,,,,,,,,,,,,,,,,,,
,,,,,,5e7fd320aa0fcb000913970d,62c53a03fdfb271f81d01cbb,2022-07-06_09h31.52.991,Colour_Asymmetry_Pilot,2022.1.3,Win32,143.9055979,62c50e9c1127f2cd403a315f,,,,,,,,,,,,,,,,,,,,onetwo,,-4,1.5612,,,,,,,,,,,,,,,,,,,,,,,,,,,,,,,,,,"[-0.5922000000000001,-0.7492000000000001,-0.5296000000000001]","[-0.8198,-0.5138,-0.7492000000000001]",-58,155,1,0,0,response7disk,-3,-4,1,0,0,rectangle,-3,-4,1,0,0,,3,0.0003,0,-3,-4,1,0,0,0,16,16,72,1,72,first,,,,,,,,,,,,,,,,,,,,,,,,,,,,,,,,,,,,,,,,,,,,,,,,,,,,,,,,,,,,,,,,,,,,,,,,
,,,,,,5e7fd320aa0fcb000913970d,62c53a03fdfb271f81d01cbb,2022-07-06_09h31.52.991,Colour_Asymmetry_Pilot,2022.1.3,Win32,143.9055979,62c50e9c1127f2cd403a315f,,,,,,,,,,,,,,,,,,,,fourtwo,,-4,0.9168,,,,,,,,,,,,,,,,,,,,,,,,,,,,,,,,,,"[-0.9216,-0.5529999999999999,-0.3962]","[0.6625999999999999,0.4980000000000002,-0.357]",-71,161,1,0,0,response7disk,6,17,1,0,0,rectangle,6,17,1,0,0,,1,0.0003,0,6,17,1,0,0,0,17,17,77,1,77,first,,,,,,,,,,,,,,,,,,,,,,,,,,,,,,,,,,,,,,,,,,,,,,,,,,,,,,,,,,,,,,,,,,,,,,,,
