trials.thisRepN,trials.thisTrialN,trials.thisN,trials.thisIndex,trials.ran,Colourcodes,participant,session,date,expName,psychopyVersion,OS,frameRate,study_id,trials_4.thisRepN,trials_4.thisTrialN,trials_4.thisN,trials_4.thisIndex,trials_4.ran,StimulusPos,key_resp.keys,key_resp.rt,key_resp_2.keys,key_resp_2.rt,key_resp_15.keys,key_resp_15.rt,key_resp_17.keys,key_resp_17.rt,key_resp_9.keys,key_resp_9.rt,key_resp_10.keys,key_resp_10.rt,Circle1_col,Ecc,Circle2_col,similarity,response_time,mouse_5.x,mouse_5.y,mouse_5.leftButton,mouse_5.midButton,mouse_5.rightButton,mouse_5.clicked_name,mouse_10.x,mouse_10.y,mouse_10.leftButton,mouse_10.midButton,mouse_10.rightButton,mouse_10.clicked_name,mouse_7.x,mouse_7.y,mouse_7.leftButton,mouse_7.midButton,mouse_7.rightButton,catchnumberprac,mouse_6.x,mouse_6.y,mouse_6.leftButton,mouse_6.midButton,mouse_6.rightButton,duringprac.thisRepN,duringprac.thisTrialN,duringprac.thisN,duringprac.thisIndex,duringprac.ran,mouse_7.clicked_name,catchprac,mouse_6.clicked_name,key_resp_22.keys,key_resp_22.rt,Circle1_colour,Circle2_colour,mouse.x,mouse.y,mouse.leftButton,mouse.midButton,mouse.rightButton,mouse.clicked_name,mouse_2.x,mouse_2.y,mouse_2.leftButton,mouse_2.midButton,mouse_2.rightButton,mouse_2.clicked_name,mouse_3.x,mouse_3.y,mouse_3.leftButton,mouse_3.midButton,mouse_3.rightButton,catchresponse,catchnumber,response_time_catch,Catch,mouse_11.x,mouse_11.y,mouse_11.leftButton,mouse_11.midButton,mouse_11.rightButton,trials_2.thisRepN,trials_2.thisTrialN,trials_2.thisN,trials_2.thisIndex,trials_2.ran,Colourpair,Temporder,mouse_3.clicked_name,mouse_11.clicked_name,trials_3.thisRepN,trials_3.thisTrialN,trials_3.thisN,trials_3.thisIndex,trials_3.ran,key_resp_instr_Ishi.keys,key_resp_instr_Ishi.rt,Ishi_trial_keyresp.keys,Ishi_textbox.text,Ishi_mouse.x,Ishi_mouse.y,Ishi_mouse.leftButton,Ishi_mouse.midButton,Ishi_mouse.rightButton,Ishi_mouse.clicked_name,Ishi_loop.thisRepN,Ishi_loop.thisTrialN,Ishi_loop.thisN,Ishi_loop.thisIndex,Ishi_loop.ran,imageaddress,textbox.text,mouse_4.x,mouse_4.y,mouse_4.leftButton,mouse_4.midButton,mouse_4.rightButton,mouse_4.clicked_name,textbox_2.text,mouse_8.x,mouse_8.y,mouse_8.leftButton,mouse_8.midButton,mouse_8.rightButton,mouse_8.clicked_name,textbox_3.text,mouse_9.x,mouse_9.y,mouse_9.leftButton,mouse_9.midButton,mouse_9.rightButton,mouse_9.clicked_name,textbox_4.text,mouse_12.x,mouse_12.y,mouse_12.leftButton,mouse_12.midButton,mouse_12.rightButton,mouse_12.clicked_name,textbox_5.text,mouse_13.x,mouse_13.y,mouse_13.leftButton,mouse_13.midButton,mouse_13.rightButton,mouse_13.clicked_name,textbox_6.text,mouse_14.x,mouse_14.y,mouse_14.leftButton,mouse_14.midButton,mouse_14.rightButton,mouse_14.clicked_name,textbox_7.text,mouse_15.x,mouse_15.y,mouse_15.leftButton,mouse_15.midButton,mouse_15.rightButton,mouse_15.clicked_name
0,0,0,49,1,,5fd3789cee06d705f5e783cc,62c53c488fc9959af869a542,2022-07-06_09h40.47.677,Colour_Asymmetry_Pilot,2022.1.3,Win32,60.46680372,62c50e9c1127f2cd403a315f,,,,,,,,,,,,,,,,,,,,,,,,,,,,,,,,,,,,,,,,,,,,,,,,,,,,,,,,,,,,,,,,,,,,,,,,,,,,,,,,,,,,,,,,,,,,,,,,,,,,,,,,,,,,,,,,,,,,,,,,,,,,,,,,,,,,,,,,,,,,,,,,,,,,,,,,,,,,,,,,,,,
0,1,1,56,1,,5fd3789cee06d705f5e783cc,62c53c488fc9959af869a542,2022-07-06_09h40.47.677,Colour_Asymmetry_Pilot,2022.1.3,Win32,60.46680372,62c50e9c1127f2cd403a315f,,,,,,,,,,,,,,,,,,,,,,,,,,,,,,,,,,,,,,,,,,,,,,,,,,,,,,,,,,,,,,,,,,,,,,,,,,,,,,,,,,,,,,,,,,,,,,,,,,,,,,,,,,,,,,,,,,,,,,,,,,,,,,,,,,,,,,,,,,,,,,,,,,,,,,,,,,,,,,,,,,,
0,2,2,53,1,,5fd3789cee06d705f5e783cc,62c53c488fc9959af869a542,2022-07-06_09h40.47.677,Colour_Asymmetry_Pilot,2022.1.3,Win32,60.46680372,62c50e9c1127f2cd403a315f,,,,,,,,,,,,,,,,,,,,,,,,,,,,,,,,,,,,,,,,,,,,,,,,,,,,,,,,,,,,,,,,,,,,,,,,,,,,,,,,,,,,,,,,,,,,,,,,,,,,,,,,,,,,,,,,,,,,,,,,,,,,,,,,,,,,,,,,,,,,,,,,,,,,,,,,,,,,,,,,,,,
0,3,3,89,1,,5fd3789cee06d705f5e783cc,62c53c488fc9959af869a542,2022-07-06_09h40.47.677,Colour_Asymmetry_Pilot,2022.1.3,Win32,60.46680372,62c50e9c1127f2cd403a315f,,,,,,,,,,,,,,,,,,,,,,,,,,,,,,,,,,,,,,,,,,,,,,,,,,,,,,,,,,,,,,,,,,,,,,,,,,,,,,,,,,,,,,,,,,,,,,,,,,,,,,,,,,,,,,,,,,,,,,,,,,,,,,,,,,,,,,,,,,,,,,,,,,,,,,,,,,,,,,,,,,,
0,4,4,51,1,,5fd3789cee06d705f5e783cc,62c53c488fc9959af869a542,2022-07-06_09h40.47.677,Colour_Asymmetry_Pilot,2022.1.3,Win32,60.46680372,62c50e9c1127f2cd403a315f,,,,,,,,,,,,,,,,,,,,,,,,,,,,,,,,,,,,,,,,,,,,,,,,,,,,,,,,,,,,,,,,,,,,,,,,,,,,,,,,,,,,,,,,,,,,,,,,,,,,,,,,,,,,,,,,,,,,,,,,,,,,,,,,,,,,,,,,,,,,,,,,,,,,,,,,,,,,,,,,,,,
0,5,5,69,1,,5fd3789cee06d705f5e783cc,62c53c488fc9959af869a542,2022-07-06_09h40.47.677,Colour_Asymmetry_Pilot,2022.1.3,Win32,60.46680372,62c50e9c1127f2cd403a315f,,,,,,,,,,,,,,,,,,,,,,,,,,,,,,,,,,,,,,,,,,,,,,,,,,,,,,,,,,,,,,,,,,,,,,,,,,,,,,,,,,,,,,,,,,,,,,,,,,,,,,,,,,,,,,,,,,,,,,,,,,,,,,,,,,,,,,,,,,,,,,,,,,,,,,,,,,,,,,,,,,,
0,6,6,8,1,,5fd3789cee06d705f5e783cc,62c53c488fc9959af869a542,2022-07-06_09h40.47.677,Colour_Asymmetry_Pilot,2022.1.3,Win32,60.46680372,62c50e9c1127f2cd403a315f,,,,,,,,,,,,,,,,,,,,,,,,,,,,,,,,,,,,,,,,,,,,,,,,,,,,,,,,,,,,,,,,,,,,,,,,,,,,,,,,,,,,,,,,,,,,,,,,,,,,,,,,,,,,,,,,,,,,,,,,,,,,,,,,,,,,,,,,,,,,,,,,,,,,,,,,,,,,,,,,,,,
0,7,7,83,1,,5fd3789cee06d705f5e783cc,62c53c488fc9959af869a542,2022-07-06_09h40.47.677,Colour_Asymmetry_Pilot,2022.1.3,Win32,60.46680372,62c50e9c1127f2cd403a315f,,,,,,,,,,,,,,,,,,,,,,,,,,,,,,,,,,,,,,,,,,,,,,,,,,,,,,,,,,,,,,,,,,,,,,,,,,,,,,,,,,,,,,,,,,,,,,,,,,,,,,,,,,,,,,,,,,,,,,,,,,,,,,,,,,,,,,,,,,,,,,,,,,,,,,,,,,,,,,,,,,,
0,8,8,47,1,,5fd3789cee06d705f5e783cc,62c53c488fc9959af869a542,2022-07-06_09h40.47.677,Colour_Asymmetry_Pilot,2022.1.3,Win32,60.46680372,62c50e9c1127f2cd403a315f,,,,,,,,,,,,,,,,,,,,,,,,,,,,,,,,,,,,,,,,,,,,,,,,,,,,,,,,,,,,,,,,,,,,,,,,,,,,,,,,,,,,,,,,,,,,,,,,,,,,,,,,,,,,,,,,,,,,,,,,,,,,,,,,,,,,,,,,,,,,,,,,,,,,,,,,,,,,,,,,,,,
0,9,9,45,1,,5fd3789cee06d705f5e783cc,62c53c488fc9959af869a542,2022-07-06_09h40.47.677,Colour_Asymmetry_Pilot,2022.1.3,Win32,60.46680372,62c50e9c1127f2cd403a315f,,,,,,,,,,,,,,,,,,,,,,,,,,,,,,,,,,,,,,,,,,,,,,,,,,,,,,,,,,,,,,,,,,,,,,,,,,,,,,,,,,,,,,,,,,,,,,,,,,,,,,,,,,,,,,,,,,,,,,,,,,,,,,,,,,,,,,,,,,,,,,,,,,,,,,,,,,,,,,,,,,,
0,10,10,91,1,,5fd3789cee06d705f5e783cc,62c53c488fc9959af869a542,2022-07-06_09h40.47.677,Colour_Asymmetry_Pilot,2022.1.3,Win32,60.46680372,62c50e9c1127f2cd403a315f,,,,,,,,,,,,,,,,,,,,,,,,,,,,,,,,,,,,,,,,,,,,,,,,,,,,,,,,,,,,,,,,,,,,,,,,,,,,,,,,,,,,,,,,,,,,,,,,,,,,,,,,,,,,,,,,,,,,,,,,,,,,,,,,,,,,,,,,,,,,,,,,,,,,,,,,,,,,,,,,,,,
0,11,11,82,1,,5fd3789cee06d705f5e783cc,62c53c488fc9959af869a542,2022-07-06_09h40.47.677,Colour_Asymmetry_Pilot,2022.1.3,Win32,60.46680372,62c50e9c1127f2cd403a315f,,,,,,,,,,,,,,,,,,,,,,,,,,,,,,,,,,,,,,,,,,,,,,,,,,,,,,,,,,,,,,,,,,,,,,,,,,,,,,,,,,,,,,,,,,,,,,,,,,,,,,,,,,,,,,,,,,,,,,,,,,,,,,,,,,,,,,,,,,,,,,,,,,,,,,,,,,,,,,,,,,,
0,12,12,36,1,,5fd3789cee06d705f5e783cc,62c53c488fc9959af869a542,2022-07-06_09h40.47.677,Colour_Asymmetry_Pilot,2022.1.3,Win32,60.46680372,62c50e9c1127f2cd403a315f,,,,,,,,,,,,,,,,,,,,,,,,,,,,,,,,,,,,,,,,,,,,,,,,,,,,,,,,,,,,,,,,,,,,,,,,,,,,,,,,,,,,,,,,,,,,,,,,,,,,,,,,,,,,,,,,,,,,,,,,,,,,,,,,,,,,,,,,,,,,,,,,,,,,,,,,,,,,,,,,,,,
0,13,13,38,1,,5fd3789cee06d705f5e783cc,62c53c488fc9959af869a542,2022-07-06_09h40.47.677,Colour_Asymmetry_Pilot,2022.1.3,Win32,60.46680372,62c50e9c1127f2cd403a315f,,,,,,,,,,,,,,,,,,,,,,,,,,,,,,,,,,,,,,,,,,,,,,,,,,,,,,,,,,,,,,,,,,,,,,,,,,,,,,,,,,,,,,,,,,,,,,,,,,,,,,,,,,,,,,,,,,,,,,,,,,,,,,,,,,,,,,,,,,,,,,,,,,,,,,,,,,,,,,,,,,,
0,14,14,11,1,,5fd3789cee06d705f5e783cc,62c53c488fc9959af869a542,2022-07-06_09h40.47.677,Colour_Asymmetry_Pilot,2022.1.3,Win32,60.46680372,62c50e9c1127f2cd403a315f,,,,,,,,,,,,,,,,,,,,,,,,,,,,,,,,,,,,,,,,,,,,,,,,,,,,,,,,,,,,,,,,,,,,,,,,,,,,,,,,,,,,,,,,,,,,,,,,,,,,,,,,,,,,,,,,,,,,,,,,,,,,,,,,,,,,,,,,,,,,,,,,,,,,,,,,,,,,,,,,,,,
0,15,15,23,1,,5fd3789cee06d705f5e783cc,62c53c488fc9959af869a542,2022-07-06_09h40.47.677,Colour_Asymmetry_Pilot,2022.1.3,Win32,60.46680372,62c50e9c1127f2cd403a315f,,,,,,,,,,,,,,,,,,,,,,,,,,,,,,,,,,,,,,,,,,,,,,,,,,,,,,,,,,,,,,,,,,,,,,,,,,,,,,,,,,,,,,,,,,,,,,,,,,,,,,,,,,,,,,,,,,,,,,,,,,,,,,,,,,,,,,,,,,,,,,,,,,,,,,,,,,,,,,,,,,,
0,16,16,34,1,,5fd3789cee06d705f5e783cc,62c53c488fc9959af869a542,2022-07-06_09h40.47.677,Colour_Asymmetry_Pilot,2022.1.3,Win32,60.46680372,62c50e9c1127f2cd403a315f,,,,,,,,,,,,,,,,,,,,,,,,,,,,,,,,,,,,,,,,,,,,,,,,,,,,,,,,,,,,,,,,,,,,,,,,,,,,,,,,,,,,,,,,,,,,,,,,,,,,,,,,,,,,,,,,,,,,,,,,,,,,,,,,,,,,,,,,,,,,,,,,,,,,,,,,,,,,,,,,,,,
0,17,17,7,1,,5fd3789cee06d705f5e783cc,62c53c488fc9959af869a542,2022-07-06_09h40.47.677,Colour_Asymmetry_Pilot,2022.1.3,Win32,60.46680372,62c50e9c1127f2cd403a315f,,,,,,,,,,,,,,,,,,,,,,,,,,,,,,,,,,,,,,,,,,,,,,,,,,,,,,,,,,,,,,,,,,,,,,,,,,,,,,,,,,,,,,,,,,,,,,,,,,,,,,,,,,,,,,,,,,,,,,,,,,,,,,,,,,,,,,,,,,,,,,,,,,,,,,,,,,,,,,,,,,,
0,18,18,31,1,,5fd3789cee06d705f5e783cc,62c53c488fc9959af869a542,2022-07-06_09h40.47.677,Colour_Asymmetry_Pilot,2022.1.3,Win32,60.46680372,62c50e9c1127f2cd403a315f,,,,,,,,,,,,,,,,,,,,,,,,,,,,,,,,,,,,,,,,,,,,,,,,,,,,,,,,,,,,,,,,,,,,,,,,,,,,,,,,,,,,,,,,,,,,,,,,,,,,,,,,,,,,,,,,,,,,,,,,,,,,,,,,,,,,,,,,,,,,,,,,,,,,,,,,,,,,,,,,,,,
0,19,19,5,1,,5fd3789cee06d705f5e783cc,62c53c488fc9959af869a542,2022-07-06_09h40.47.677,Colour_Asymmetry_Pilot,2022.1.3,Win32,60.46680372,62c50e9c1127f2cd403a315f,,,,,,,,,,,,,,,,,,,,,,,,,,,,,,,,,,,,,,,,,,,,,,,,,,,,,,,,,,,,,,,,,,,,,,,,,,,,,,,,,,,,,,,,,,,,,,,,,,,,,,,,,,,,,,,,,,,,,,,,,,,,,,,,,,,,,,,,,,,,,,,,,,,,,,,,,,,,,,,,,,,
0,20,20,24,1,,5fd3789cee06d705f5e783cc,62c53c488fc9959af869a542,2022-07-06_09h40.47.677,Colour_Asymmetry_Pilot,2022.1.3,Win32,60.46680372,62c50e9c1127f2cd403a315f,,,,,,,,,,,,,,,,,,,,,,,,,,,,,,,,,,,,,,,,,,,,,,,,,,,,,,,,,,,,,,,,,,,,,,,,,,,,,,,,,,,,,,,,,,,,,,,,,,,,,,,,,,,,,,,,,,,,,,,,,,,,,,,,,,,,,,,,,,,,,,,,,,,,,,,,,,,,,,,,,,,
0,21,21,63,1,,5fd3789cee06d705f5e783cc,62c53c488fc9959af869a542,2022-07-06_09h40.47.677,Colour_Asymmetry_Pilot,2022.1.3,Win32,60.46680372,62c50e9c1127f2cd403a315f,,,,,,,,,,,,,,,,,,,,,,,,,,,,,,,,,,,,,,,,,,,,,,,,,,,,,,,,,,,,,,,,,,,,,,,,,,,,,,,,,,,,,,,,,,,,,,,,,,,,,,,,,,,,,,,,,,,,,,,,,,,,,,,,,,,,,,,,,,,,,,,,,,,,,,,,,,,,,,,,,,,
0,22,22,78,1,,5fd3789cee06d705f5e783cc,62c53c488fc9959af869a542,2022-07-06_09h40.47.677,Colour_Asymmetry_Pilot,2022.1.3,Win32,60.46680372,62c50e9c1127f2cd403a315f,,,,,,,,,,,,,,,,,,,,,,,,,,,,,,,,,,,,,,,,,,,,,,,,,,,,,,,,,,,,,,,,,,,,,,,,,,,,,,,,,,,,,,,,,,,,,,,,,,,,,,,,,,,,,,,,,,,,,,,,,,,,,,,,,,,,,,,,,,,,,,,,,,,,,,,,,,,,,,,,,,,
0,23,23,54,1,,5fd3789cee06d705f5e783cc,62c53c488fc9959af869a542,2022-07-06_09h40.47.677,Colour_Asymmetry_Pilot,2022.1.3,Win32,60.46680372,62c50e9c1127f2cd403a315f,,,,,,,,,,,,,,,,,,,,,,,,,,,,,,,,,,,,,,,,,,,,,,,,,,,,,,,,,,,,,,,,,,,,,,,,,,,,,,,,,,,,,,,,,,,,,,,,,,,,,,,,,,,,,,,,,,,,,,,,,,,,,,,,,,,,,,,,,,,,,,,,,,,,,,,,,,,,,,,,,,,
0,24,24,80,1,,5fd3789cee06d705f5e783cc,62c53c488fc9959af869a542,2022-07-06_09h40.47.677,Colour_Asymmetry_Pilot,2022.1.3,Win32,60.46680372,62c50e9c1127f2cd403a315f,,,,,,,,,,,,,,,,,,,,,,,,,,,,,,,,,,,,,,,,,,,,,,,,,,,,,,,,,,,,,,,,,,,,,,,,,,,,,,,,,,,,,,,,,,,,,,,,,,,,,,,,,,,,,,,,,,,,,,,,,,,,,,,,,,,,,,,,,,,,,,,,,,,,,,,,,,,,,,,,,,,
0,25,25,2,1,,5fd3789cee06d705f5e783cc,62c53c488fc9959af869a542,2022-07-06_09h40.47.677,Colour_Asymmetry_Pilot,2022.1.3,Win32,60.46680372,62c50e9c1127f2cd403a315f,,,,,,,,,,,,,,,,,,,,,,,,,,,,,,,,,,,,,,,,,,,,,,,,,,,,,,,,,,,,,,,,,,,,,,,,,,,,,,,,,,,,,,,,,,,,,,,,,,,,,,,,,,,,,,,,,,,,,,,,,,,,,,,,,,,,,,,,,,,,,,,,,,,,,,,,,,,,,,,,,,,
0,26,26,16,1,,5fd3789cee06d705f5e783cc,62c53c488fc9959af869a542,2022-07-06_09h40.47.677,Colour_Asymmetry_Pilot,2022.1.3,Win32,60.46680372,62c50e9c1127f2cd403a315f,,,,,,,,,,,,,,,,,,,,,,,,,,,,,,,,,,,,,,,,,,,,,,,,,,,,,,,,,,,,,,,,,,,,,,,,,,,,,,,,,,,,,,,,,,,,,,,,,,,,,,,,,,,,,,,,,,,,,,,,,,,,,,,,,,,,,,,,,,,,,,,,,,,,,,,,,,,,,,,,,,,
0,27,27,42,1,,5fd3789cee06d705f5e783cc,62c53c488fc9959af869a542,2022-07-06_09h40.47.677,Colour_Asymmetry_Pilot,2022.1.3,Win32,60.46680372,62c50e9c1127f2cd403a315f,,,,,,,,,,,,,,,,,,,,,,,,,,,,,,,,,,,,,,,,,,,,,,,,,,,,,,,,,,,,,,,,,,,,,,,,,,,,,,,,,,,,,,,,,,,,,,,,,,,,,,,,,,,,,,,,,,,,,,,,,,,,,,,,,,,,,,,,,,,,,,,,,,,,,,,,,,,,,,,,,,,
0,28,28,29,1,,5fd3789cee06d705f5e783cc,62c53c488fc9959af869a542,2022-07-06_09h40.47.677,Colour_Asymmetry_Pilot,2022.1.3,Win32,60.46680372,62c50e9c1127f2cd403a315f,,,,,,,,,,,,,,,,,,,,,,,,,,,,,,,,,,,,,,,,,,,,,,,,,,,,,,,,,,,,,,,,,,,,,,,,,,,,,,,,,,,,,,,,,,,,,,,,,,,,,,,,,,,,,,,,,,,,,,,,,,,,,,,,,,,,,,,,,,,,,,,,,,,,,,,,,,,,,,,,,,,
0,29,29,44,1,,5fd3789cee06d705f5e783cc,62c53c488fc9959af869a542,2022-07-06_09h40.47.677,Colour_Asymmetry_Pilot,2022.1.3,Win32,60.46680372,62c50e9c1127f2cd403a315f,,,,,,,,,,,,,,,,,,,,,,,,,,,,,,,,,,,,,,,,,,,,,,,,,,,,,,,,,,,,,,,,,,,,,,,,,,,,,,,,,,,,,,,,,,,,,,,,,,,,,,,,,,,,,,,,,,,,,,,,,,,,,,,,,,,,,,,,,,,,,,,,,,,,,,,,,,,,,,,,,,,
0,30,30,26,1,,5fd3789cee06d705f5e783cc,62c53c488fc9959af869a542,2022-07-06_09h40.47.677,Colour_Asymmetry_Pilot,2022.1.3,Win32,60.46680372,62c50e9c1127f2cd403a315f,,,,,,,,,,,,,,,,,,,,,,,,,,,,,,,,,,,,,,,,,,,,,,,,,,,,,,,,,,,,,,,,,,,,,,,,,,,,,,,,,,,,,,,,,,,,,,,,,,,,,,,,,,,,,,,,,,,,,,,,,,,,,,,,,,,,,,,,,,,,,,,,,,,,,,,,,,,,,,,,,,,
0,31,31,86,1,,5fd3789cee06d705f5e783cc,62c53c488fc9959af869a542,2022-07-06_09h40.47.677,Colour_Asymmetry_Pilot,2022.1.3,Win32,60.46680372,62c50e9c1127f2cd403a315f,,,,,,,,,,,,,,,,,,,,,,,,,,,,,,,,,,,,,,,,,,,,,,,,,,,,,,,,,,,,,,,,,,,,,,,,,,,,,,,,,,,,,,,,,,,,,,,,,,,,,,,,,,,,,,,,,,,,,,,,,,,,,,,,,,,,,,,,,,,,,,,,,,,,,,,,,,,,,,,,,,,
0,32,32,48,1,,5fd3789cee06d705f5e783cc,62c53c488fc9959af869a542,2022-07-06_09h40.47.677,Colour_Asymmetry_Pilot,2022.1.3,Win32,60.46680372,62c50e9c1127f2cd403a315f,,,,,,,,,,,,,,,,,,,,,,,,,,,,,,,,,,,,,,,,,,,,,,,,,,,,,,,,,,,,,,,,,,,,,,,,,,,,,,,,,,,,,,,,,,,,,,,,,,,,,,,,,,,,,,,,,,,,,,,,,,,,,,,,,,,,,,,,,,,,,,,,,,,,,,,,,,,,,,,,,,,
0,33,33,65,1,,5fd3789cee06d705f5e783cc,62c53c488fc9959af869a542,2022-07-06_09h40.47.677,Colour_Asymmetry_Pilot,2022.1.3,Win32,60.46680372,62c50e9c1127f2cd403a315f,,,,,,,,,,,,,,,,,,,,,,,,,,,,,,,,,,,,,,,,,,,,,,,,,,,,,,,,,,,,,,,,,,,,,,,,,,,,,,,,,,,,,,,,,,,,,,,,,,,,,,,,,,,,,,,,,,,,,,,,,,,,,,,,,,,,,,,,,,,,,,,,,,,,,,,,,,,,,,,,,,,
0,34,34,66,1,,5fd3789cee06d705f5e783cc,62c53c488fc9959af869a542,2022-07-06_09h40.47.677,Colour_Asymmetry_Pilot,2022.1.3,Win32,60.46680372,62c50e9c1127f2cd403a315f,,,,,,,,,,,,,,,,,,,,,,,,,,,,,,,,,,,,,,,,,,,,,,,,,,,,,,,,,,,,,,,,,,,,,,,,,,,,,,,,,,,,,,,,,,,,,,,,,,,,,,,,,,,,,,,,,,,,,,,,,,,,,,,,,,,,,,,,,,,,,,,,,,,,,,,,,,,,,,,,,,,
0,35,35,43,1,,5fd3789cee06d705f5e783cc,62c53c488fc9959af869a542,2022-07-06_09h40.47.677,Colour_Asymmetry_Pilot,2022.1.3,Win32,60.46680372,62c50e9c1127f2cd403a315f,,,,,,,,,,,,,,,,,,,,,,,,,,,,,,,,,,,,,,,,,,,,,,,,,,,,,,,,,,,,,,,,,,,,,,,,,,,,,,,,,,,,,,,,,,,,,,,,,,,,,,,,,,,,,,,,,,,,,,,,,,,,,,,,,,,,,,,,,,,,,,,,,,,,,,,,,,,,,,,,,,,
0,36,36,61,1,,5fd3789cee06d705f5e783cc,62c53c488fc9959af869a542,2022-07-06_09h40.47.677,Colour_Asymmetry_Pilot,2022.1.3,Win32,60.46680372,62c50e9c1127f2cd403a315f,,,,,,,,,,,,,,,,,,,,,,,,,,,,,,,,,,,,,,,,,,,,,,,,,,,,,,,,,,,,,,,,,,,,,,,,,,,,,,,,,,,,,,,,,,,,,,,,,,,,,,,,,,,,,,,,,,,,,,,,,,,,,,,,,,,,,,,,,,,,,,,,,,,,,,,,,,,,,,,,,,,
0,37,37,60,1,,5fd3789cee06d705f5e783cc,62c53c488fc9959af869a542,2022-07-06_09h40.47.677,Colour_Asymmetry_Pilot,2022.1.3,Win32,60.46680372,62c50e9c1127f2cd403a315f,,,,,,,,,,,,,,,,,,,,,,,,,,,,,,,,,,,,,,,,,,,,,,,,,,,,,,,,,,,,,,,,,,,,,,,,,,,,,,,,,,,,,,,,,,,,,,,,,,,,,,,,,,,,,,,,,,,,,,,,,,,,,,,,,,,,,,,,,,,,,,,,,,,,,,,,,,,,,,,,,,,
0,38,38,13,1,,5fd3789cee06d705f5e783cc,62c53c488fc9959af869a542,2022-07-06_09h40.47.677,Colour_Asymmetry_Pilot,2022.1.3,Win32,60.46680372,62c50e9c1127f2cd403a315f,,,,,,,,,,,,,,,,,,,,,,,,,,,,,,,,,,,,,,,,,,,,,,,,,,,,,,,,,,,,,,,,,,,,,,,,,,,,,,,,,,,,,,,,,,,,,,,,,,,,,,,,,,,,,,,,,,,,,,,,,,,,,,,,,,,,,,,,,,,,,,,,,,,,,,,,,,,,,,,,,,,
0,39,39,27,1,,5fd3789cee06d705f5e783cc,62c53c488fc9959af869a542,2022-07-06_09h40.47.677,Colour_Asymmetry_Pilot,2022.1.3,Win32,60.46680372,62c50e9c1127f2cd403a315f,,,,,,,,,,,,,,,,,,,,,,,,,,,,,,,,,,,,,,,,,,,,,,,,,,,,,,,,,,,,,,,,,,,,,,,,,,,,,,,,,,,,,,,,,,,,,,,,,,,,,,,,,,,,,,,,,,,,,,,,,,,,,,,,,,,,,,,,,,,,,,,,,,,,,,,,,,,,,,,,,,,
0,40,40,50,1,,5fd3789cee06d705f5e783cc,62c53c488fc9959af869a542,2022-07-06_09h40.47.677,Colour_Asymmetry_Pilot,2022.1.3,Win32,60.46680372,62c50e9c1127f2cd403a315f,,,,,,,,,,,,,,,,,,,,,,,,,,,,,,,,,,,,,,,,,,,,,,,,,,,,,,,,,,,,,,,,,,,,,,,,,,,,,,,,,,,,,,,,,,,,,,,,,,,,,,,,,,,,,,,,,,,,,,,,,,,,,,,,,,,,,,,,,,,,,,,,,,,,,,,,,,,,,,,,,,,
0,41,41,0,1,,5fd3789cee06d705f5e783cc,62c53c488fc9959af869a542,2022-07-06_09h40.47.677,Colour_Asymmetry_Pilot,2022.1.3,Win32,60.46680372,62c50e9c1127f2cd403a315f,,,,,,,,,,,,,,,,,,,,,,,,,,,,,,,,,,,,,,,,,,,,,,,,,,,,,,,,,,,,,,,,,,,,,,,,,,,,,,,,,,,,,,,,,,,,,,,,,,,,,,,,,,,,,,,,,,,,,,,,,,,,,,,,,,,,,,,,,,,,,,,,,,,,,,,,,,,,,,,,,,,
0,42,42,77,1,,5fd3789cee06d705f5e783cc,62c53c488fc9959af869a542,2022-07-06_09h40.47.677,Colour_Asymmetry_Pilot,2022.1.3,Win32,60.46680372,62c50e9c1127f2cd403a315f,,,,,,,,,,,,,,,,,,,,,,,,,,,,,,,,,,,,,,,,,,,,,,,,,,,,,,,,,,,,,,,,,,,,,,,,,,,,,,,,,,,,,,,,,,,,,,,,,,,,,,,,,,,,,,,,,,,,,,,,,,,,,,,,,,,,,,,,,,,,,,,,,,,,,,,,,,,,,,,,,,,
0,43,43,85,1,,5fd3789cee06d705f5e783cc,62c53c488fc9959af869a542,2022-07-06_09h40.47.677,Colour_Asymmetry_Pilot,2022.1.3,Win32,60.46680372,62c50e9c1127f2cd403a315f,,,,,,,,,,,,,,,,,,,,,,,,,,,,,,,,,,,,,,,,,,,,,,,,,,,,,,,,,,,,,,,,,,,,,,,,,,,,,,,,,,,,,,,,,,,,,,,,,,,,,,,,,,,,,,,,,,,,,,,,,,,,,,,,,,,,,,,,,,,,,,,,,,,,,,,,,,,,,,,,,,,
0,44,44,58,1,,5fd3789cee06d705f5e783cc,62c53c488fc9959af869a542,2022-07-06_09h40.47.677,Colour_Asymmetry_Pilot,2022.1.3,Win32,60.46680372,62c50e9c1127f2cd403a315f,,,,,,,,,,,,,,,,,,,,,,,,,,,,,,,,,,,,,,,,,,,,,,,,,,,,,,,,,,,,,,,,,,,,,,,,,,,,,,,,,,,,,,,,,,,,,,,,,,,,,,,,,,,,,,,,,,,,,,,,,,,,,,,,,,,,,,,,,,,,,,,,,,,,,,,,,,,,,,,,,,,
0,45,45,20,1,,5fd3789cee06d705f5e783cc,62c53c488fc9959af869a542,2022-07-06_09h40.47.677,Colour_Asymmetry_Pilot,2022.1.3,Win32,60.46680372,62c50e9c1127f2cd403a315f,,,,,,,,,,,,,,,,,,,,,,,,,,,,,,,,,,,,,,,,,,,,,,,,,,,,,,,,,,,,,,,,,,,,,,,,,,,,,,,,,,,,,,,,,,,,,,,,,,,,,,,,,,,,,,,,,,,,,,,,,,,,,,,,,,,,,,,,,,,,,,,,,,,,,,,,,,,,,,,,,,,
0,46,46,12,1,,5fd3789cee06d705f5e783cc,62c53c488fc9959af869a542,2022-07-06_09h40.47.677,Colour_Asymmetry_Pilot,2022.1.3,Win32,60.46680372,62c50e9c1127f2cd403a315f,,,,,,,,,,,,,,,,,,,,,,,,,,,,,,,,,,,,,,,,,,,,,,,,,,,,,,,,,,,,,,,,,,,,,,,,,,,,,,,,,,,,,,,,,,,,,,,,,,,,,,,,,,,,,,,,,,,,,,,,,,,,,,,,,,,,,,,,,,,,,,,,,,,,,,,,,,,,,,,,,,,
0,47,47,88,1,,5fd3789cee06d705f5e783cc,62c53c488fc9959af869a542,2022-07-06_09h40.47.677,Colour_Asymmetry_Pilot,2022.1.3,Win32,60.46680372,62c50e9c1127f2cd403a315f,,,,,,,,,,,,,,,,,,,,,,,,,,,,,,,,,,,,,,,,,,,,,,,,,,,,,,,,,,,,,,,,,,,,,,,,,,,,,,,,,,,,,,,,,,,,,,,,,,,,,,,,,,,,,,,,,,,,,,,,,,,,,,,,,,,,,,,,,,,,,,,,,,,,,,,,,,,,,,,,,,,
0,48,48,32,1,,5fd3789cee06d705f5e783cc,62c53c488fc9959af869a542,2022-07-06_09h40.47.677,Colour_Asymmetry_Pilot,2022.1.3,Win32,60.46680372,62c50e9c1127f2cd403a315f,,,,,,,,,,,,,,,,,,,,,,,,,,,,,,,,,,,,,,,,,,,,,,,,,,,,,,,,,,,,,,,,,,,,,,,,,,,,,,,,,,,,,,,,,,,,,,,,,,,,,,,,,,,,,,,,,,,,,,,,,,,,,,,,,,,,,,,,,,,,,,,,,,,,,,,,,,,,,,,,,,,
0,49,49,10,1,,5fd3789cee06d705f5e783cc,62c53c488fc9959af869a542,2022-07-06_09h40.47.677,Colour_Asymmetry_Pilot,2022.1.3,Win32,60.46680372,62c50e9c1127f2cd403a315f,,,,,,,,,,,,,,,,,,,,,,,,,,,,,,,,,,,,,,,,,,,,,,,,,,,,,,,,,,,,,,,,,,,,,,,,,,,,,,,,,,,,,,,,,,,,,,,,,,,,,,,,,,,,,,,,,,,,,,,,,,,,,,,,,,,,,,,,,,,,,,,,,,,,,,,,,,,,,,,,,,,
0,50,50,19,1,,5fd3789cee06d705f5e783cc,62c53c488fc9959af869a542,2022-07-06_09h40.47.677,Colour_Asymmetry_Pilot,2022.1.3,Win32,60.46680372,62c50e9c1127f2cd403a315f,,,,,,,,,,,,,,,,,,,,,,,,,,,,,,,,,,,,,,,,,,,,,,,,,,,,,,,,,,,,,,,,,,,,,,,,,,,,,,,,,,,,,,,,,,,,,,,,,,,,,,,,,,,,,,,,,,,,,,,,,,,,,,,,,,,,,,,,,,,,,,,,,,,,,,,,,,,,,,,,,,,
0,51,51,15,1,,5fd3789cee06d705f5e783cc,62c53c488fc9959af869a542,2022-07-06_09h40.47.677,Colour_Asymmetry_Pilot,2022.1.3,Win32,60.46680372,62c50e9c1127f2cd403a315f,,,,,,,,,,,,,,,,,,,,,,,,,,,,,,,,,,,,,,,,,,,,,,,,,,,,,,,,,,,,,,,,,,,,,,,,,,,,,,,,,,,,,,,,,,,,,,,,,,,,,,,,,,,,,,,,,,,,,,,,,,,,,,,,,,,,,,,,,,,,,,,,,,,,,,,,,,,,,,,,,,,
0,52,52,6,1,,5fd3789cee06d705f5e783cc,62c53c488fc9959af869a542,2022-07-06_09h40.47.677,Colour_Asymmetry_Pilot,2022.1.3,Win32,60.46680372,62c50e9c1127f2cd403a315f,,,,,,,,,,,,,,,,,,,,,,,,,,,,,,,,,,,,,,,,,,,,,,,,,,,,,,,,,,,,,,,,,,,,,,,,,,,,,,,,,,,,,,,,,,,,,,,,,,,,,,,,,,,,,,,,,,,,,,,,,,,,,,,,,,,,,,,,,,,,,,,,,,,,,,,,,,,,,,,,,,,
0,53,53,87,1,,5fd3789cee06d705f5e783cc,62c53c488fc9959af869a542,2022-07-06_09h40.47.677,Colour_Asymmetry_Pilot,2022.1.3,Win32,60.46680372,62c50e9c1127f2cd403a315f,,,,,,,,,,,,,,,,,,,,,,,,,,,,,,,,,,,,,,,,,,,,,,,,,,,,,,,,,,,,,,,,,,,,,,,,,,,,,,,,,,,,,,,,,,,,,,,,,,,,,,,,,,,,,,,,,,,,,,,,,,,,,,,,,,,,,,,,,,,,,,,,,,,,,,,,,,,,,,,,,,,
0,54,54,59,1,,5fd3789cee06d705f5e783cc,62c53c488fc9959af869a542,2022-07-06_09h40.47.677,Colour_Asymmetry_Pilot,2022.1.3,Win32,60.46680372,62c50e9c1127f2cd403a315f,,,,,,,,,,,,,,,,,,,,,,,,,,,,,,,,,,,,,,,,,,,,,,,,,,,,,,,,,,,,,,,,,,,,,,,,,,,,,,,,,,,,,,,,,,,,,,,,,,,,,,,,,,,,,,,,,,,,,,,,,,,,,,,,,,,,,,,,,,,,,,,,,,,,,,,,,,,,,,,,,,,
0,55,55,84,1,,5fd3789cee06d705f5e783cc,62c53c488fc9959af869a542,2022-07-06_09h40.47.677,Colour_Asymmetry_Pilot,2022.1.3,Win32,60.46680372,62c50e9c1127f2cd403a315f,,,,,,,,,,,,,,,,,,,,,,,,,,,,,,,,,,,,,,,,,,,,,,,,,,,,,,,,,,,,,,,,,,,,,,,,,,,,,,,,,,,,,,,,,,,,,,,,,,,,,,,,,,,,,,,,,,,,,,,,,,,,,,,,,,,,,,,,,,,,,,,,,,,,,,,,,,,,,,,,,,,
0,56,56,30,1,,5fd3789cee06d705f5e783cc,62c53c488fc9959af869a542,2022-07-06_09h40.47.677,Colour_Asymmetry_Pilot,2022.1.3,Win32,60.46680372,62c50e9c1127f2cd403a315f,,,,,,,,,,,,,,,,,,,,,,,,,,,,,,,,,,,,,,,,,,,,,,,,,,,,,,,,,,,,,,,,,,,,,,,,,,,,,,,,,,,,,,,,,,,,,,,,,,,,,,,,,,,,,,,,,,,,,,,,,,,,,,,,,,,,,,,,,,,,,,,,,,,,,,,,,,,,,,,,,,,
0,57,57,71,1,,5fd3789cee06d705f5e783cc,62c53c488fc9959af869a542,2022-07-06_09h40.47.677,Colour_Asymmetry_Pilot,2022.1.3,Win32,60.46680372,62c50e9c1127f2cd403a315f,,,,,,,,,,,,,,,,,,,,,,,,,,,,,,,,,,,,,,,,,,,,,,,,,,,,,,,,,,,,,,,,,,,,,,,,,,,,,,,,,,,,,,,,,,,,,,,,,,,,,,,,,,,,,,,,,,,,,,,,,,,,,,,,,,,,,,,,,,,,,,,,,,,,,,,,,,,,,,,,,,,
0,58,58,72,1,,5fd3789cee06d705f5e783cc,62c53c488fc9959af869a542,2022-07-06_09h40.47.677,Colour_Asymmetry_Pilot,2022.1.3,Win32,60.46680372,62c50e9c1127f2cd403a315f,,,,,,,,,,,,,,,,,,,,,,,,,,,,,,,,,,,,,,,,,,,,,,,,,,,,,,,,,,,,,,,,,,,,,,,,,,,,,,,,,,,,,,,,,,,,,,,,,,,,,,,,,,,,,,,,,,,,,,,,,,,,,,,,,,,,,,,,,,,,,,,,,,,,,,,,,,,,,,,,,,,
0,59,59,28,1,,5fd3789cee06d705f5e783cc,62c53c488fc9959af869a542,2022-07-06_09h40.47.677,Colour_Asymmetry_Pilot,2022.1.3,Win32,60.46680372,62c50e9c1127f2cd403a315f,,,,,,,,,,,,,,,,,,,,,,,,,,,,,,,,,,,,,,,,,,,,,,,,,,,,,,,,,,,,,,,,,,,,,,,,,,,,,,,,,,,,,,,,,,,,,,,,,,,,,,,,,,,,,,,,,,,,,,,,,,,,,,,,,,,,,,,,,,,,,,,,,,,,,,,,,,,,,,,,,,,
0,60,60,33,1,,5fd3789cee06d705f5e783cc,62c53c488fc9959af869a542,2022-07-06_09h40.47.677,Colour_Asymmetry_Pilot,2022.1.3,Win32,60.46680372,62c50e9c1127f2cd403a315f,,,,,,,,,,,,,,,,,,,,,,,,,,,,,,,,,,,,,,,,,,,,,,,,,,,,,,,,,,,,,,,,,,,,,,,,,,,,,,,,,,,,,,,,,,,,,,,,,,,,,,,,,,,,,,,,,,,,,,,,,,,,,,,,,,,,,,,,,,,,,,,,,,,,,,,,,,,,,,,,,,,
0,61,61,9,1,,5fd3789cee06d705f5e783cc,62c53c488fc9959af869a542,2022-07-06_09h40.47.677,Colour_Asymmetry_Pilot,2022.1.3,Win32,60.46680372,62c50e9c1127f2cd403a315f,,,,,,,,,,,,,,,,,,,,,,,,,,,,,,,,,,,,,,,,,,,,,,,,,,,,,,,,,,,,,,,,,,,,,,,,,,,,,,,,,,,,,,,,,,,,,,,,,,,,,,,,,,,,,,,,,,,,,,,,,,,,,,,,,,,,,,,,,,,,,,,,,,,,,,,,,,,,,,,,,,,
0,62,62,90,1,,5fd3789cee06d705f5e783cc,62c53c488fc9959af869a542,2022-07-06_09h40.47.677,Colour_Asymmetry_Pilot,2022.1.3,Win32,60.46680372,62c50e9c1127f2cd403a315f,,,,,,,,,,,,,,,,,,,,,,,,,,,,,,,,,,,,,,,,,,,,,,,,,,,,,,,,,,,,,,,,,,,,,,,,,,,,,,,,,,,,,,,,,,,,,,,,,,,,,,,,,,,,,,,,,,,,,,,,,,,,,,,,,,,,,,,,,,,,,,,,,,,,,,,,,,,,,,,,,,,
0,63,63,76,1,,5fd3789cee06d705f5e783cc,62c53c488fc9959af869a542,2022-07-06_09h40.47.677,Colour_Asymmetry_Pilot,2022.1.3,Win32,60.46680372,62c50e9c1127f2cd403a315f,,,,,,,,,,,,,,,,,,,,,,,,,,,,,,,,,,,,,,,,,,,,,,,,,,,,,,,,,,,,,,,,,,,,,,,,,,,,,,,,,,,,,,,,,,,,,,,,,,,,,,,,,,,,,,,,,,,,,,,,,,,,,,,,,,,,,,,,,,,,,,,,,,,,,,,,,,,,,,,,,,,
0,64,64,3,1,,5fd3789cee06d705f5e783cc,62c53c488fc9959af869a542,2022-07-06_09h40.47.677,Colour_Asymmetry_Pilot,2022.1.3,Win32,60.46680372,62c50e9c1127f2cd403a315f,,,,,,,,,,,,,,,,,,,,,,,,,,,,,,,,,,,,,,,,,,,,,,,,,,,,,,,,,,,,,,,,,,,,,,,,,,,,,,,,,,,,,,,,,,,,,,,,,,,,,,,,,,,,,,,,,,,,,,,,,,,,,,,,,,,,,,,,,,,,,,,,,,,,,,,,,,,,,,,,,,,
0,65,65,75,1,,5fd3789cee06d705f5e783cc,62c53c488fc9959af869a542,2022-07-06_09h40.47.677,Colour_Asymmetry_Pilot,2022.1.3,Win32,60.46680372,62c50e9c1127f2cd403a315f,,,,,,,,,,,,,,,,,,,,,,,,,,,,,,,,,,,,,,,,,,,,,,,,,,,,,,,,,,,,,,,,,,,,,,,,,,,,,,,,,,,,,,,,,,,,,,,,,,,,,,,,,,,,,,,,,,,,,,,,,,,,,,,,,,,,,,,,,,,,,,,,,,,,,,,,,,,,,,,,,,,
0,66,66,67,1,,5fd3789cee06d705f5e783cc,62c53c488fc9959af869a542,2022-07-06_09h40.47.677,Colour_Asymmetry_Pilot,2022.1.3,Win32,60.46680372,62c50e9c1127f2cd403a315f,,,,,,,,,,,,,,,,,,,,,,,,,,,,,,,,,,,,,,,,,,,,,,,,,,,,,,,,,,,,,,,,,,,,,,,,,,,,,,,,,,,,,,,,,,,,,,,,,,,,,,,,,,,,,,,,,,,,,,,,,,,,,,,,,,,,,,,,,,,,,,,,,,,,,,,,,,,,,,,,,,,
0,67,67,52,1,,5fd3789cee06d705f5e783cc,62c53c488fc9959af869a542,2022-07-06_09h40.47.677,Colour_Asymmetry_Pilot,2022.1.3,Win32,60.46680372,62c50e9c1127f2cd403a315f,,,,,,,,,,,,,,,,,,,,,,,,,,,,,,,,,,,,,,,,,,,,,,,,,,,,,,,,,,,,,,,,,,,,,,,,,,,,,,,,,,,,,,,,,,,,,,,,,,,,,,,,,,,,,,,,,,,,,,,,,,,,,,,,,,,,,,,,,,,,,,,,,,,,,,,,,,,,,,,,,,,
0,68,68,18,1,,5fd3789cee06d705f5e783cc,62c53c488fc9959af869a542,2022-07-06_09h40.47.677,Colour_Asymmetry_Pilot,2022.1.3,Win32,60.46680372,62c50e9c1127f2cd403a315f,,,,,,,,,,,,,,,,,,,,,,,,,,,,,,,,,,,,,,,,,,,,,,,,,,,,,,,,,,,,,,,,,,,,,,,,,,,,,,,,,,,,,,,,,,,,,,,,,,,,,,,,,,,,,,,,,,,,,,,,,,,,,,,,,,,,,,,,,,,,,,,,,,,,,,,,,,,,,,,,,,,
0,69,69,17,1,,5fd3789cee06d705f5e783cc,62c53c488fc9959af869a542,2022-07-06_09h40.47.677,Colour_Asymmetry_Pilot,2022.1.3,Win32,60.46680372,62c50e9c1127f2cd403a315f,,,,,,,,,,,,,,,,,,,,,,,,,,,,,,,,,,,,,,,,,,,,,,,,,,,,,,,,,,,,,,,,,,,,,,,,,,,,,,,,,,,,,,,,,,,,,,,,,,,,,,,,,,,,,,,,,,,,,,,,,,,,,,,,,,,,,,,,,,,,,,,,,,,,,,,,,,,,,,,,,,,
0,70,70,55,1,,5fd3789cee06d705f5e783cc,62c53c488fc9959af869a542,2022-07-06_09h40.47.677,Colour_Asymmetry_Pilot,2022.1.3,Win32,60.46680372,62c50e9c1127f2cd403a315f,,,,,,,,,,,,,,,,,,,,,,,,,,,,,,,,,,,,,,,,,,,,,,,,,,,,,,,,,,,,,,,,,,,,,,,,,,,,,,,,,,,,,,,,,,,,,,,,,,,,,,,,,,,,,,,,,,,,,,,,,,,,,,,,,,,,,,,,,,,,,,,,,,,,,,,,,,,,,,,,,,,
0,71,71,22,1,,5fd3789cee06d705f5e783cc,62c53c488fc9959af869a542,2022-07-06_09h40.47.677,Colour_Asymmetry_Pilot,2022.1.3,Win32,60.46680372,62c50e9c1127f2cd403a315f,,,,,,,,,,,,,,,,,,,,,,,,,,,,,,,,,,,,,,,,,,,,,,,,,,,,,,,,,,,,,,,,,,,,,,,,,,,,,,,,,,,,,,,,,,,,,,,,,,,,,,,,,,,,,,,,,,,,,,,,,,,,,,,,,,,,,,,,,,,,,,,,,,,,,,,,,,,,,,,,,,,
0,72,72,68,1,,5fd3789cee06d705f5e783cc,62c53c488fc9959af869a542,2022-07-06_09h40.47.677,Colour_Asymmetry_Pilot,2022.1.3,Win32,60.46680372,62c50e9c1127f2cd403a315f,,,,,,,,,,,,,,,,,,,,,,,,,,,,,,,,,,,,,,,,,,,,,,,,,,,,,,,,,,,,,,,,,,,,,,,,,,,,,,,,,,,,,,,,,,,,,,,,,,,,,,,,,,,,,,,,,,,,,,,,,,,,,,,,,,,,,,,,,,,,,,,,,,,,,,,,,,,,,,,,,,,
0,73,73,70,1,,5fd3789cee06d705f5e783cc,62c53c488fc9959af869a542,2022-07-06_09h40.47.677,Colour_Asymmetry_Pilot,2022.1.3,Win32,60.46680372,62c50e9c1127f2cd403a315f,,,,,,,,,,,,,,,,,,,,,,,,,,,,,,,,,,,,,,,,,,,,,,,,,,,,,,,,,,,,,,,,,,,,,,,,,,,,,,,,,,,,,,,,,,,,,,,,,,,,,,,,,,,,,,,,,,,,,,,,,,,,,,,,,,,,,,,,,,,,,,,,,,,,,,,,,,,,,,,,,,,
0,74,74,37,1,,5fd3789cee06d705f5e783cc,62c53c488fc9959af869a542,2022-07-06_09h40.47.677,Colour_Asymmetry_Pilot,2022.1.3,Win32,60.46680372,62c50e9c1127f2cd403a315f,,,,,,,,,,,,,,,,,,,,,,,,,,,,,,,,,,,,,,,,,,,,,,,,,,,,,,,,,,,,,,,,,,,,,,,,,,,,,,,,,,,,,,,,,,,,,,,,,,,,,,,,,,,,,,,,,,,,,,,,,,,,,,,,,,,,,,,,,,,,,,,,,,,,,,,,,,,,,,,,,,,
0,75,75,14,1,,5fd3789cee06d705f5e783cc,62c53c488fc9959af869a542,2022-07-06_09h40.47.677,Colour_Asymmetry_Pilot,2022.1.3,Win32,60.46680372,62c50e9c1127f2cd403a315f,,,,,,,,,,,,,,,,,,,,,,,,,,,,,,,,,,,,,,,,,,,,,,,,,,,,,,,,,,,,,,,,,,,,,,,,,,,,,,,,,,,,,,,,,,,,,,,,,,,,,,,,,,,,,,,,,,,,,,,,,,,,,,,,,,,,,,,,,,,,,,,,,,,,,,,,,,,,,,,,,,,
0,76,76,81,1,,5fd3789cee06d705f5e783cc,62c53c488fc9959af869a542,2022-07-06_09h40.47.677,Colour_Asymmetry_Pilot,2022.1.3,Win32,60.46680372,62c50e9c1127f2cd403a315f,,,,,,,,,,,,,,,,,,,,,,,,,,,,,,,,,,,,,,,,,,,,,,,,,,,,,,,,,,,,,,,,,,,,,,,,,,,,,,,,,,,,,,,,,,,,,,,,,,,,,,,,,,,,,,,,,,,,,,,,,,,,,,,,,,,,,,,,,,,,,,,,,,,,,,,,,,,,,,,,,,,
0,77,77,57,1,,5fd3789cee06d705f5e783cc,62c53c488fc9959af869a542,2022-07-06_09h40.47.677,Colour_Asymmetry_Pilot,2022.1.3,Win32,60.46680372,62c50e9c1127f2cd403a315f,,,,,,,,,,,,,,,,,,,,,,,,,,,,,,,,,,,,,,,,,,,,,,,,,,,,,,,,,,,,,,,,,,,,,,,,,,,,,,,,,,,,,,,,,,,,,,,,,,,,,,,,,,,,,,,,,,,,,,,,,,,,,,,,,,,,,,,,,,,,,,,,,,,,,,,,,,,,,,,,,,,
0,78,78,62,1,,5fd3789cee06d705f5e783cc,62c53c488fc9959af869a542,2022-07-06_09h40.47.677,Colour_Asymmetry_Pilot,2022.1.3,Win32,60.46680372,62c50e9c1127f2cd403a315f,,,,,,,,,,,,,,,,,,,,,,,,,,,,,,,,,,,,,,,,,,,,,,,,,,,,,,,,,,,,,,,,,,,,,,,,,,,,,,,,,,,,,,,,,,,,,,,,,,,,,,,,,,,,,,,,,,,,,,,,,,,,,,,,,,,,,,,,,,,,,,,,,,,,,,,,,,,,,,,,,,,
0,79,79,25,1,,5fd3789cee06d705f5e783cc,62c53c488fc9959af869a542,2022-07-06_09h40.47.677,Colour_Asymmetry_Pilot,2022.1.3,Win32,60.46680372,62c50e9c1127f2cd403a315f,,,,,,,,,,,,,,,,,,,,,,,,,,,,,,,,,,,,,,,,,,,,,,,,,,,,,,,,,,,,,,,,,,,,,,,,,,,,,,,,,,,,,,,,,,,,,,,,,,,,,,,,,,,,,,,,,,,,,,,,,,,,,,,,,,,,,,,,,,,,,,,,,,,,,,,,,,,,,,,,,,,
0,80,80,79,1,,5fd3789cee06d705f5e783cc,62c53c488fc9959af869a542,2022-07-06_09h40.47.677,Colour_Asymmetry_Pilot,2022.1.3,Win32,60.46680372,62c50e9c1127f2cd403a315f,,,,,,,,,,,,,,,,,,,,,,,,,,,,,,,,,,,,,,,,,,,,,,,,,,,,,,,,,,,,,,,,,,,,,,,,,,,,,,,,,,,,,,,,,,,,,,,,,,,,,,,,,,,,,,,,,,,,,,,,,,,,,,,,,,,,,,,,,,,,,,,,,,,,,,,,,,,,,,,,,,,
0,81,81,1,1,,5fd3789cee06d705f5e783cc,62c53c488fc9959af869a542,2022-07-06_09h40.47.677,Colour_Asymmetry_Pilot,2022.1.3,Win32,60.46680372,62c50e9c1127f2cd403a315f,,,,,,,,,,,,,,,,,,,,,,,,,,,,,,,,,,,,,,,,,,,,,,,,,,,,,,,,,,,,,,,,,,,,,,,,,,,,,,,,,,,,,,,,,,,,,,,,,,,,,,,,,,,,,,,,,,,,,,,,,,,,,,,,,,,,,,,,,,,,,,,,,,,,,,,,,,,,,,,,,,,
0,82,82,4,1,,5fd3789cee06d705f5e783cc,62c53c488fc9959af869a542,2022-07-06_09h40.47.677,Colour_Asymmetry_Pilot,2022.1.3,Win32,60.46680372,62c50e9c1127f2cd403a315f,,,,,,,,,,,,,,,,,,,,,,,,,,,,,,,,,,,,,,,,,,,,,,,,,,,,,,,,,,,,,,,,,,,,,,,,,,,,,,,,,,,,,,,,,,,,,,,,,,,,,,,,,,,,,,,,,,,,,,,,,,,,,,,,,,,,,,,,,,,,,,,,,,,,,,,,,,,,,,,,,,,
0,83,83,40,1,,5fd3789cee06d705f5e783cc,62c53c488fc9959af869a542,2022-07-06_09h40.47.677,Colour_Asymmetry_Pilot,2022.1.3,Win32,60.46680372,62c50e9c1127f2cd403a315f,,,,,,,,,,,,,,,,,,,,,,,,,,,,,,,,,,,,,,,,,,,,,,,,,,,,,,,,,,,,,,,,,,,,,,,,,,,,,,,,,,,,,,,,,,,,,,,,,,,,,,,,,,,,,,,,,,,,,,,,,,,,,,,,,,,,,,,,,,,,,,,,,,,,,,,,,,,,,,,,,,,
0,84,84,73,1,,5fd3789cee06d705f5e783cc,62c53c488fc9959af869a542,2022-07-06_09h40.47.677,Colour_Asymmetry_Pilot,2022.1.3,Win32,60.46680372,62c50e9c1127f2cd403a315f,,,,,,,,,,,,,,,,,,,,,,,,,,,,,,,,,,,,,,,,,,,,,,,,,,,,,,,,,,,,,,,,,,,,,,,,,,,,,,,,,,,,,,,,,,,,,,,,,,,,,,,,,,,,,,,,,,,,,,,,,,,,,,,,,,,,,,,,,,,,,,,,,,,,,,,,,,,,,,,,,,,
0,85,85,39,1,,5fd3789cee06d705f5e783cc,62c53c488fc9959af869a542,2022-07-06_09h40.47.677,Colour_Asymmetry_Pilot,2022.1.3,Win32,60.46680372,62c50e9c1127f2cd403a315f,,,,,,,,,,,,,,,,,,,,,,,,,,,,,,,,,,,,,,,,,,,,,,,,,,,,,,,,,,,,,,,,,,,,,,,,,,,,,,,,,,,,,,,,,,,,,,,,,,,,,,,,,,,,,,,,,,,,,,,,,,,,,,,,,,,,,,,,,,,,,,,,,,,,,,,,,,,,,,,,,,,
0,86,86,74,1,,5fd3789cee06d705f5e783cc,62c53c488fc9959af869a542,2022-07-06_09h40.47.677,Colour_Asymmetry_Pilot,2022.1.3,Win32,60.46680372,62c50e9c1127f2cd403a315f,,,,,,,,,,,,,,,,,,,,,,,,,,,,,,,,,,,,,,,,,,,,,,,,,,,,,,,,,,,,,,,,,,,,,,,,,,,,,,,,,,,,,,,,,,,,,,,,,,,,,,,,,,,,,,,,,,,,,,,,,,,,,,,,,,,,,,,,,,,,,,,,,,,,,,,,,,,,,,,,,,,
0,87,87,35,1,,5fd3789cee06d705f5e783cc,62c53c488fc9959af869a542,2022-07-06_09h40.47.677,Colour_Asymmetry_Pilot,2022.1.3,Win32,60.46680372,62c50e9c1127f2cd403a315f,,,,,,,,,,,,,,,,,,,,,,,,,,,,,,,,,,,,,,,,,,,,,,,,,,,,,,,,,,,,,,,,,,,,,,,,,,,,,,,,,,,,,,,,,,,,,,,,,,,,,,,,,,,,,,,,,,,,,,,,,,,,,,,,,,,,,,,,,,,,,,,,,,,,,,,,,,,,,,,,,,,
0,88,88,21,1,,5fd3789cee06d705f5e783cc,62c53c488fc9959af869a542,2022-07-06_09h40.47.677,Colour_Asymmetry_Pilot,2022.1.3,Win32,60.46680372,62c50e9c1127f2cd403a315f,,,,,,,,,,,,,,,,,,,,,,,,,,,,,,,,,,,,,,,,,,,,,,,,,,,,,,,,,,,,,,,,,,,,,,,,,,,,,,,,,,,,,,,,,,,,,,,,,,,,,,,,,,,,,,,,,,,,,,,,,,,,,,,,,,,,,,,,,,,,,,,,,,,,,,,,,,,,,,,,,,,
0,89,89,41,1,,5fd3789cee06d705f5e783cc,62c53c488fc9959af869a542,2022-07-06_09h40.47.677,Colour_Asymmetry_Pilot,2022.1.3,Win32,60.46680372,62c50e9c1127f2cd403a315f,,,,,,,,,,,,,,,,,,,,,,,,,,,,,,,,,,,,,,,,,,,,,,,,,,,,,,,,,,,,,,,,,,,,,,,,,,,,,,,,,,,,,,,,,,,,,,,,,,,,,,,,,,,,,,,,,,,,,,,,,,,,,,,,,,,,,,,,,,,,,,,,,,,,,,,,,,,,,,,,,,,
0,90,90,92,1,,5fd3789cee06d705f5e783cc,62c53c488fc9959af869a542,2022-07-06_09h40.47.677,Colour_Asymmetry_Pilot,2022.1.3,Win32,60.46680372,62c50e9c1127f2cd403a315f,,,,,,,,,,,,,,,,,,,,,,,,,,,,,,,,,,,,,,,,,,,,,,,,,,,,,,,,,,,,,,,,,,,,,,,,,,,,,,,,,,,,,,,,,,,,,,,,,,,,,,,,,,,,,,,,,,,,,,,,,,,,,,,,,,,,,,,,,,,,,,,,,,,,,,,,,,,,,,,,,,,
0,91,91,64,1,,5fd3789cee06d705f5e783cc,62c53c488fc9959af869a542,2022-07-06_09h40.47.677,Colour_Asymmetry_Pilot,2022.1.3,Win32,60.46680372,62c50e9c1127f2cd403a315f,,,,,,,,,,,,,,,,,,,,,,,,,,,,,,,,,,,,,,,,,,,,,,,,,,,,,,,,,,,,,,,,,,,,,,,,,,,,,,,,,,,,,,,,,,,,,,,,,,,,,,,,,,,,,,,,,,,,,,,,,,,,,,,,,,,,,,,,,,,,,,,,,,,,,,,,,,,,,,,,,,,
0,92,92,46,1,,5fd3789cee06d705f5e783cc,62c53c488fc9959af869a542,2022-07-06_09h40.47.677,Colour_Asymmetry_Pilot,2022.1.3,Win32,60.46680372,62c50e9c1127f2cd403a315f,,,,,,,,,,,,,,,,,,,,,,,,,,,,,,,,,,,,,,,,,,,,,,,,,,,,,,,,,,,,,,,,,,,,,,,,,,,,,,,,,,,,,,,,,,,,,,,,,,,,,,,,,,,,,,,,,,,,,,,,,,,,,,,,,,,,,,,,,,,,,,,,,,,,,,,,,,,,,,,,,,,
,,,,,,5fd3789cee06d705f5e783cc,62c53c488fc9959af869a542,2022-07-06_09h40.47.677,Colour_Asymmetry_Pilot,2022.1.3,Win32,60.46680372,62c50e9c1127f2cd403a315f,0,0,0,1,1,onethree,,,,,,,,,,,,,,,,,,,,,,,,,,,,,,,,,,,,,,,,,,,,,,,,,,,,,,,,,,,,,,,,,,,,,,,,,,,,,,,,,,,,,,,,,,,,,,,,,,,,,,,,,,,,,,,,,,,,,,,,,,,,,,,,,,,,,,,,,,,,,,,,,,,,,,,,,,,,,
,,,,,,5fd3789cee06d705f5e783cc,62c53c488fc9959af869a542,2022-07-06_09h40.47.677,Colour_Asymmetry_Pilot,2022.1.3,Win32,60.46680372,62c50e9c1127f2cd403a315f,0,1,1,17,1,onethree,,,,,,,,,,,,,,,,,,,,,,,,,,,,,,,,,,,,,,,,,,,,,,,,,,,,,,,,,,,,,,,,,,,,,,,,,,,,,,,,,,,,,,,,,,,,,,,,,,,,,,,,,,,,,,,,,,,,,,,,,,,,,,,,,,,,,,,,,,,,,,,,,,,,,,,,,,,,,
,,,,,,5fd3789cee06d705f5e783cc,62c53c488fc9959af869a542,2022-07-06_09h40.47.677,Colour_Asymmetry_Pilot,2022.1.3,Win32,60.46680372,62c50e9c1127f2cd403a315f,0,2,2,41,1,onethree,,,,,,,,,,,,,,,,,,,,,,,,,,,,,,,,,,,,,,,,,,,,,,,,,,,,,,,,,,,,,,,,,,,,,,,,,,,,,,,,,,,,,,,,,,,,,,,,,,,,,,,,,,,,,,,,,,,,,,,,,,,,,,,,,,,,,,,,,,,,,,,,,,,,,,,,,,,,,
,,,,,,5fd3789cee06d705f5e783cc,62c53c488fc9959af869a542,2022-07-06_09h40.47.677,Colour_Asymmetry_Pilot,2022.1.3,Win32,60.46680372,62c50e9c1127f2cd403a315f,0,3,3,117,1,threefour,,,,,,,,,,,,,,,,,,,,,,,,,,,,,,,,,,,,,,,,,,,,,,,,,,,,,,,,,,,,,,,,,,,,,,,,,,,,,,,,,,,,,,,,,,,,,,,,,,,,,,,,,,,,,,,,,,,,,,,,,,,,,,,,,,,,,,,,,,,,,,,,,,,,,,,,,,,,,
,,,,,,5fd3789cee06d705f5e783cc,62c53c488fc9959af869a542,2022-07-06_09h40.47.677,Colour_Asymmetry_Pilot,2022.1.3,Win32,60.46680372,62c50e9c1127f2cd403a315f,0,4,4,129,1,onethree,,,,,,,,,,,,,,,,,,,,,,,,,,,,,,,,,,,,,,,,,,,,,,,,,,,,,,,,,,,,,,,,,,,,,,,,,,,,,,,,,,,,,,,,,,,,,,,,,,,,,,,,,,,,,,,,,,,,,,,,,,,,,,,,,,,,,,,,,,,,,,,,,,,,,,,,,,,,,
,,,,,,5fd3789cee06d705f5e783cc,62c53c488fc9959af869a542,2022-07-06_09h40.47.677,Colour_Asymmetry_Pilot,2022.1.3,Win32,60.46680372,62c50e9c1127f2cd403a315f,0,5,5,156,1,threeone,,,,,,,,,,,,,,,,,,,,,,,,,,,,,,,,,,,,,,,,,,,,,,,,,,,,,,,,,,,,,,,,,,,,,,,,,,,,,,,,,,,,,,,,,,,,,,,,,,,,,,,,,,,,,,,,,,,,,,,,,,,,,,,,,,,,,,,,,,,,,,,,,,,,,,,,,,,,,
,,,,,,5fd3789cee06d705f5e783cc,62c53c488fc9959af869a542,2022-07-06_09h40.47.677,Colour_Asymmetry_Pilot,2022.1.3,Win32,60.46680372,62c50e9c1127f2cd403a315f,0,6,6,91,1,twofour,,,,,,,,,,,,,,,,,,,,,,,,,,,,,,,,,,,,,,,,,,,,,,,,,,,,,,,,,,,,,,,,,,,,,,,,,,,,,,,,,,,,,,,,,,,,,,,,,,,,,,,,,,,,,,,,,,,,,,,,,,,,,,,,,,,,,,,,,,,,,,,,,,,,,,,,,,,,,
,,,,,,5fd3789cee06d705f5e783cc,62c53c488fc9959af869a542,2022-07-06_09h40.47.677,Colour_Asymmetry_Pilot,2022.1.3,Win32,60.46680372,62c50e9c1127f2cd403a315f,0,7,7,100,1,threeone,,,,,,,,,,,,,,,,,,,,,,,,,,,,,,,,,,,,,,,,,,,,,,,,,,,,,,,,,,,,,,,,,,,,,,,,,,,,,,,,,,,,,,,,,,,,,,,,,,,,,,,,,,,,,,,,,,,,,,,,,,,,,,,,,,,,,,,,,,,,,,,,,,,,,,,,,,,,,
,,,,,,5fd3789cee06d705f5e783cc,62c53c488fc9959af869a542,2022-07-06_09h40.47.677,Colour_Asymmetry_Pilot,2022.1.3,Win32,60.46680372,62c50e9c1127f2cd403a315f,0,8,8,23,1,fourthree,,,,,,,,,,,,,,,,,,,,,,,,,,,,,,,,,,,,,,,,,,,,,,,,,,,,,,,,,,,,,,,,,,,,,,,,,,,,,,,,,,,,,,,,,,,,,,,,,,,,,,,,,,,,,,,,,,,,,,,,,,,,,,,,,,,,,,,,,,,,,,,,,,,,,,,,,,,,,
,,,,,,5fd3789cee06d705f5e783cc,62c53c488fc9959af869a542,2022-07-06_09h40.47.677,Colour_Asymmetry_Pilot,2022.1.3,Win32,60.46680372,62c50e9c1127f2cd403a315f,0,9,9,58,1,twoone,,,,,,,,,,,,,,,,,,,,,,,,,,,,,,,,,,,,,,,,,,,,,,,,,,,,,,,,,,,,,,,,,,,,,,,,,,,,,,,,,,,,,,,,,,,,,,,,,,,,,,,,,,,,,,,,,,,,,,,,,,,,,,,,,,,,,,,,,,,,,,,,,,,,,,,,,,,,,
,,,,,,5fd3789cee06d705f5e783cc,62c53c488fc9959af869a542,2022-07-06_09h40.47.677,Colour_Asymmetry_Pilot,2022.1.3,Win32,60.46680372,62c50e9c1127f2cd403a315f,0,10,10,63,1,fourthree,,,,,,,,,,,,,,,,,,,,,,,,,,,,,,,,,,,,,,,,,,,,,,,,,,,,,,,,,,,,,,,,,,,,,,,,,,,,,,,,,,,,,,,,,,,,,,,,,,,,,,,,,,,,,,,,,,,,,,,,,,,,,,,,,,,,,,,,,,,,,,,,,,,,,,,,,,,,,
,,,,,,5fd3789cee06d705f5e783cc,62c53c488fc9959af869a542,2022-07-06_09h40.47.677,Colour_Asymmetry_Pilot,2022.1.3,Win32,60.46680372,62c50e9c1127f2cd403a315f,0,11,11,161,1,onethree,,,,,,,,,,,,,,,,,,,,,,,,,,,,,,,,,,,,,,,,,,,,,,,,,,,,,,,,,,,,,,,,,,,,,,,,,,,,,,,,,,,,,,,,,,,,,,,,,,,,,,,,,,,,,,,,,,,,,,,,,,,,,,,,,,,,,,,,,,,,,,,,,,,,,,,,,,,,,
,,,,,,5fd3789cee06d705f5e783cc,62c53c488fc9959af869a542,2022-07-06_09h40.47.677,Colour_Asymmetry_Pilot,2022.1.3,Win32,60.46680372,62c50e9c1127f2cd403a315f,0,12,12,124,1,threeone,,,,,,,,,,,,,,,,,,,,,,,,,,,,,,,,,,,,,,,,,,,,,,,,,,,,,,,,,,,,,,,,,,,,,,,,,,,,,,,,,,,,,,,,,,,,,,,,,,,,,,,,,,,,,,,,,,,,,,,,,,,,,,,,,,,,,,,,,,,,,,,,,,,,,,,,,,,,,
,,,,,,5fd3789cee06d705f5e783cc,62c53c488fc9959af869a542,2022-07-06_09h40.47.677,Colour_Asymmetry_Pilot,2022.1.3,Win32,60.46680372,62c50e9c1127f2cd403a315f,0,13,13,153,1,onethree,,,,,,,,,,,,,,,,,,,,,,,,,,,,,,,,,,,,,,,,,,,,,,,,,,,,,,,,,,,,,,,,,,,,,,,,,,,,,,,,,,,,,,,,,,,,,,,,,,,,,,,,,,,,,,,,,,,,,,,,,,,,,,,,,,,,,,,,,,,,,,,,,,,,,,,,,,,,,
,,,,,,5fd3789cee06d705f5e783cc,62c53c488fc9959af869a542,2022-07-06_09h40.47.677,Colour_Asymmetry_Pilot,2022.1.3,Win32,60.46680372,62c50e9c1127f2cd403a315f,0,14,14,154,1,twoone,,,,,,,,,,,,,,,,,,,,,,,,,,,,,,,,,,,,,,,,,,,,,,,,,,,,,,,,,,,,,,,,,,,,,,,,,,,,,,,,,,,,,,,,,,,,,,,,,,,,,,,,,,,,,,,,,,,,,,,,,,,,,,,,,,,,,,,,,,,,,,,,,,,,,,,,,,,,,
,,,,,,5fd3789cee06d705f5e783cc,62c53c488fc9959af869a542,2022-07-06_09h40.47.677,Colour_Asymmetry_Pilot,2022.1.3,Win32,60.46680372,62c50e9c1127f2cd403a315f,0,15,15,114,1,twoone,,,,,,,,,,,,,,,,,,,,,,,,,,,,,,,,,,,,,,,,,,,,,,,,,,,,,,,,,,,,,,,,,,,,,,,,,,,,,,,,,,,,,,,,,,,,,,,,,,,,,,,,,,,,,,,,,,,,,,,,,,,,,,,,,,,,,,,,,,,,,,,,,,,,,,,,,,,,,
,,,,,,5fd3789cee06d705f5e783cc,62c53c488fc9959af869a542,2022-07-06_09h40.47.677,Colour_Asymmetry_Pilot,2022.1.3,Win32,60.46680372,62c50e9c1127f2cd403a315f,0,16,16,97,1,onethree,,,,,,,,,,,,,,,,,,,,,,,,,,,,,,,,,,,,,,,,,,,,,,,,,,,,,,,,,,,,,,,,,,,,,,,,,,,,,,,,,,,,,,,,,,,,,,,,,,,,,,,,,,,,,,,,,,,,,,,,,,,,,,,,,,,,,,,,,,,,,,,,,,,,,,,,,,,,,
,,,,,,5fd3789cee06d705f5e783cc,62c53c488fc9959af869a542,2022-07-06_09h40.47.677,Colour_Asymmetry_Pilot,2022.1.3,Win32,60.46680372,62c50e9c1127f2cd403a315f,0,17,17,141,1,threefour,,,,,,,,,,,,,,,,,,,,,,,,,,,,,,,,,,,,,,,,,,,,,,,,,,,,,,,,,,,,,,,,,,,,,,,,,,,,,,,,,,,,,,,,,,,,,,,,,,,,,,,,,,,,,,,,,,,,,,,,,,,,,,,,,,,,,,,,,,,,,,,,,,,,,,,,,,,,,
,,,,,,5fd3789cee06d705f5e783cc,62c53c488fc9959af869a542,2022-07-06_09h40.47.677,Colour_Asymmetry_Pilot,2022.1.3,Win32,60.46680372,62c50e9c1127f2cd403a315f,0,18,18,123,1,twofour,,,,,,,,,,,,,,,,,,,,,,,,,,,,,,,,,,,,,,,,,,,,,,,,,,,,,,,,,,,,,,,,,,,,,,,,,,,,,,,,,,,,,,,,,,,,,,,,,,,,,,,,,,,,,,,,,,,,,,,,,,,,,,,,,,,,,,,,,,,,,,,,,,,,,,,,,,,,,
,,,,,,5fd3789cee06d705f5e783cc,62c53c488fc9959af869a542,2022-07-06_09h40.47.677,Colour_Asymmetry_Pilot,2022.1.3,Win32,60.46680372,62c50e9c1127f2cd403a315f,0,19,19,26,1,twoone,,,,,,,,,,,,,,,,,,,,,,,,,,,,,,,,,,,,,,,,,,,,,,,,,,,,,,,,,,,,,,,,,,,,,,,,,,,,,,,,,,,,,,,,,,,,,,,,,,,,,,,,,,,,,,,,,,,,,,,,,,,,,,,,,,,,,,,,,,,,,,,,,,,,,,,,,,,,,
,,,,,,5fd3789cee06d705f5e783cc,62c53c488fc9959af869a542,2022-07-06_09h40.47.677,Colour_Asymmetry_Pilot,2022.1.3,Win32,60.46680372,62c50e9c1127f2cd403a315f,0,20,20,120,1,onetwo,,,,,,,,,,,,,,,,,,,,,,,,,,,,,,,,,,,,,,,,,,,,,,,,,,,,,,,,,,,,,,,,,,,,,,,,,,,,,,,,,,,,,,,,,,,,,,,,,,,,,,,,,,,,,,,,,,,,,,,,,,,,,,,,,,,,,,,,,,,,,,,,,,,,,,,,,,,,,
,,,,,,5fd3789cee06d705f5e783cc,62c53c488fc9959af869a542,2022-07-06_09h40.47.677,Colour_Asymmetry_Pilot,2022.1.3,Win32,60.46680372,62c50e9c1127f2cd403a315f,0,21,21,2,1,twoone,,,,,,,,,,,,,,,,,,,,,,,,,,,,,,,,,,,,,,,,,,,,,,,,,,,,,,,,,,,,,,,,,,,,,,,,,,,,,,,,,,,,,,,,,,,,,,,,,,,,,,,,,,,,,,,,,,,,,,,,,,,,,,,,,,,,,,,,,,,,,,,,,,,,,,,,,,,,,
,,,,,,5fd3789cee06d705f5e783cc,62c53c488fc9959af869a542,2022-07-06_09h40.47.677,Colour_Asymmetry_Pilot,2022.1.3,Win32,60.46680372,62c50e9c1127f2cd403a315f,0,22,22,25,1,onethree,,,,,,,,,,,,,,,,,,,,,,,,,,,,,,,,,,,,,,,,,,,,,,,,,,,,,,,,,,,,,,,,,,,,,,,,,,,,,,,,,,,,,,,,,,,,,,,,,,,,,,,,,,,,,,,,,,,,,,,,,,,,,,,,,,,,,,,,,,,,,,,,,,,,,,,,,,,,,
,,,,,,5fd3789cee06d705f5e783cc,62c53c488fc9959af869a542,2022-07-06_09h40.47.677,Colour_Asymmetry_Pilot,2022.1.3,Win32,60.46680372,62c50e9c1127f2cd403a315f,0,23,23,95,1,fourthree,,,,,,,,,,,,,,,,,,,,,,,,,,,,,,,,,,,,,,,,,,,,,,,,,,,,,,,,,,,,,,,,,,,,,,,,,,,,,,,,,,,,,,,,,,,,,,,,,,,,,,,,,,,,,,,,,,,,,,,,,,,,,,,,,,,,,,,,,,,,,,,,,,,,,,,,,,,,,
,,,,,,5fd3789cee06d705f5e783cc,62c53c488fc9959af869a542,2022-07-06_09h40.47.677,Colour_Asymmetry_Pilot,2022.1.3,Win32,60.46680372,62c50e9c1127f2cd403a315f,0,24,24,143,1,fourthree,,,,,,,,,,,,,,,,,,,,,,,,,,,,,,,,,,,,,,,,,,,,,,,,,,,,,,,,,,,,,,,,,,,,,,,,,,,,,,,,,,,,,,,,,,,,,,,,,,,,,,,,,,,,,,,,,,,,,,,,,,,,,,,,,,,,,,,,,,,,,,,,,,,,,,,,,,,,,
,,,,,,5fd3789cee06d705f5e783cc,62c53c488fc9959af869a542,2022-07-06_09h40.47.677,Colour_Asymmetry_Pilot,2022.1.3,Win32,60.46680372,62c50e9c1127f2cd403a315f,0,25,25,84,1,threeone,,,,,,,,,,,,,,,,,,,,,,,,,,,,,,,,,,,,,,,,,,,,,,,,,,,,,,,,,,,,,,,,,,,,,,,,,,,,,,,,,,,,,,,,,,,,,,,,,,,,,,,,,,,,,,,,,,,,,,,,,,,,,,,,,,,,,,,,,,,,,,,,,,,,,,,,,,,,,
,,,,,,5fd3789cee06d705f5e783cc,62c53c488fc9959af869a542,2022-07-06_09h40.47.677,Colour_Asymmetry_Pilot,2022.1.3,Win32,60.46680372,62c50e9c1127f2cd403a315f,0,26,26,80,1,onetwo,,,,,,,,,,,,,,,,,,,,,,,,,,,,,,,,,,,,,,,,,,,,,,,,,,,,,,,,,,,,,,,,,,,,,,,,,,,,,,,,,,,,,,,,,,,,,,,,,,,,,,,,,,,,,,,,,,,,,,,,,,,,,,,,,,,,,,,,,,,,,,,,,,,,,,,,,,,,,
,,,,,,5fd3789cee06d705f5e783cc,62c53c488fc9959af869a542,2022-07-06_09h40.47.677,Colour_Asymmetry_Pilot,2022.1.3,Win32,60.46680372,62c50e9c1127f2cd403a315f,0,27,27,10,1,twoone,,,,,,,,,,,,,,,,,,,,,,,,,,,,,,,,,,,,,,,,,,,,,,,,,,,,,,,,,,,,,,,,,,,,,,,,,,,,,,,,,,,,,,,,,,,,,,,,,,,,,,,,,,,,,,,,,,,,,,,,,,,,,,,,,,,,,,,,,,,,,,,,,,,,,,,,,,,,,
,,,,,,5fd3789cee06d705f5e783cc,62c53c488fc9959af869a542,2022-07-06_09h40.47.677,Colour_Asymmetry_Pilot,2022.1.3,Win32,60.46680372,62c50e9c1127f2cd403a315f,0,28,28,68,1,threeone,,,,,,,,,,,,,,,,,,,,,,,,,,,,,,,,,,,,,,,,,,,,,,,,,,,,,,,,,,,,,,,,,,,,,,,,,,,,,,,,,,,,,,,,,,,,,,,,,,,,,,,,,,,,,,,,,,,,,,,,,,,,,,,,,,,,,,,,,,,,,,,,,,,,,,,,,,,,,
,,,,,,5fd3789cee06d705f5e783cc,62c53c488fc9959af869a542,2022-07-06_09h40.47.677,Colour_Asymmetry_Pilot,2022.1.3,Win32,60.46680372,62c50e9c1127f2cd403a315f,0,29,29,16,1,onetwo,,,,,,,,,,,,,,,,,,,,,,,,,,,,,,,,,,,,,,,,,,,,,,,,,,,,,,,,,,,,,,,,,,,,,,,,,,,,,,,,,,,,,,,,,,,,,,,,,,,,,,,,,,,,,,,,,,,,,,,,,,,,,,,,,,,,,,,,,,,,,,,,,,,,,,,,,,,,,
,,,,,,5fd3789cee06d705f5e783cc,62c53c488fc9959af869a542,2022-07-06_09h40.47.677,Colour_Asymmetry_Pilot,2022.1.3,Win32,60.46680372,62c50e9c1127f2cd403a315f,0,30,30,104,1,onetwo,,,,,,,,,,,,,,,,,,,,,,,,,,,,,,,,,,,,,,,,,,,,,,,,,,,,,,,,,,,,,,,,,,,,,,,,,,,,,,,,,,,,,,,,,,,,,,,,,,,,,,,,,,,,,,,,,,,,,,,,,,,,,,,,,,,,,,,,,,,,,,,,,,,,,,,,,,,,,
,,,,,,5fd3789cee06d705f5e783cc,62c53c488fc9959af869a542,2022-07-06_09h40.47.677,Colour_Asymmetry_Pilot,2022.1.3,Win32,60.46680372,62c50e9c1127f2cd403a315f,0,31,31,40,1,onetwo,,,,,,,,,,,,,,,,,,,,,,,,,,,,,,,,,,,,,,,,,,,,,,,,,,,,,,,,,,,,,,,,,,,,,,,,,,,,,,,,,,,,,,,,,,,,,,,,,,,,,,,,,,,,,,,,,,,,,,,,,,,,,,,,,,,,,,,,,,,,,,,,,,,,,,,,,,,,,
,,,,,,5fd3789cee06d705f5e783cc,62c53c488fc9959af869a542,2022-07-06_09h40.47.677,Colour_Asymmetry_Pilot,2022.1.3,Win32,60.46680372,62c50e9c1127f2cd403a315f,0,32,32,38,1,fourtwo,,,,,,,,,,,,,,,,,,,,,,,,,,,,,,,,,,,,,,,,,,,,,,,,,,,,,,,,,,,,,,,,,,,,,,,,,,,,,,,,,,,,,,,,,,,,,,,,,,,,,,,,,,,,,,,,,,,,,,,,,,,,,,,,,,,,,,,,,,,,,,,,,,,,,,,,,,,,,
,,,,,,5fd3789cee06d705f5e783cc,62c53c488fc9959af869a542,2022-07-06_09h40.47.677,Colour_Asymmetry_Pilot,2022.1.3,Win32,60.46680372,62c50e9c1127f2cd403a315f,0,33,33,144,1,onetwo,,,,,,,,,,,,,,,,,,,,,,,,,,,,,,,,,,,,,,,,,,,,,,,,,,,,,,,,,,,,,,,,,,,,,,,,,,,,,,,,,,,,,,,,,,,,,,,,,,,,,,,,,,,,,,,,,,,,,,,,,,,,,,,,,,,,,,,,,,,,,,,,,,,,,,,,,,,,,
,,,,,,5fd3789cee06d705f5e783cc,62c53c488fc9959af869a542,2022-07-06_09h40.47.677,Colour_Asymmetry_Pilot,2022.1.3,Win32,60.46680372,62c50e9c1127f2cd403a315f,0,34,34,121,1,onethree,,,,,,,,,,,,,,,,,,,,,,,,,,,,,,,,,,,,,,,,,,,,,,,,,,,,,,,,,,,,,,,,,,,,,,,,,,,,,,,,,,,,,,,,,,,,,,,,,,,,,,,,,,,,,,,,,,,,,,,,,,,,,,,,,,,,,,,,,,,,,,,,,,,,,,,,,,,,,
,,,,,,5fd3789cee06d705f5e783cc,62c53c488fc9959af869a542,2022-07-06_09h40.47.677,Colour_Asymmetry_Pilot,2022.1.3,Win32,60.46680372,62c50e9c1127f2cd403a315f,0,35,35,126,1,fourtwo,,,,,,,,,,,,,,,,,,,,,,,,,,,,,,,,,,,,,,,,,,,,,,,,,,,,,,,,,,,,,,,,,,,,,,,,,,,,,,,,,,,,,,,,,,,,,,,,,,,,,,,,,,,,,,,,,,,,,,,,,,,,,,,,,,,,,,,,,,,,,,,,,,,,,,,,,,,,,
,,,,,,5fd3789cee06d705f5e783cc,62c53c488fc9959af869a542,2022-07-06_09h40.47.677,Colour_Asymmetry_Pilot,2022.1.3,Win32,60.46680372,62c50e9c1127f2cd403a315f,0,36,36,65,1,onethree,,,,,,,,,,,,,,,,,,,,,,,,,,,,,,,,,,,,,,,,,,,,,,,,,,,,,,,,,,,,,,,,,,,,,,,,,,,,,,,,,,,,,,,,,,,,,,,,,,,,,,,,,,,,,,,,,,,,,,,,,,,,,,,,,,,,,,,,,,,,,,,,,,,,,,,,,,,,,
,,,,,,5fd3789cee06d705f5e783cc,62c53c488fc9959af869a542,2022-07-06_09h40.47.677,Colour_Asymmetry_Pilot,2022.1.3,Win32,60.46680372,62c50e9c1127f2cd403a315f,0,37,37,13,1,threefour,,,,,,,,,,,,,,,,,,,,,,,,,,,,,,,,,,,,,,,,,,,,,,,,,,,,,,,,,,,,,,,,,,,,,,,,,,,,,,,,,,,,,,,,,,,,,,,,,,,,,,,,,,,,,,,,,,,,,,,,,,,,,,,,,,,,,,,,,,,,,,,,,,,,,,,,,,,,,
,,,,,,5fd3789cee06d705f5e783cc,62c53c488fc9959af869a542,2022-07-06_09h40.47.677,Colour_Asymmetry_Pilot,2022.1.3,Win32,60.46680372,62c50e9c1127f2cd403a315f,0,38,38,110,1,fourtwo,,,,,,,,,,,,,,,,,,,,,,,,,,,,,,,,,,,,,,,,,,,,,,,,,,,,,,,,,,,,,,,,,,,,,,,,,,,,,,,,,,,,,,,,,,,,,,,,,,,,,,,,,,,,,,,,,,,,,,,,,,,,,,,,,,,,,,,,,,,,,,,,,,,,,,,,,,,,,
,,,,,,5fd3789cee06d705f5e783cc,62c53c488fc9959af869a542,2022-07-06_09h40.47.677,Colour_Asymmetry_Pilot,2022.1.3,Win32,60.46680372,62c50e9c1127f2cd403a315f,0,39,39,7,1,fourthree,,,,,,,,,,,,,,,,,,,,,,,,,,,,,,,,,,,,,,,,,,,,,,,,,,,,,,,,,,,,,,,,,,,,,,,,,,,,,,,,,,,,,,,,,,,,,,,,,,,,,,,,,,,,,,,,,,,,,,,,,,,,,,,,,,,,,,,,,,,,,,,,,,,,,,,,,,,,,
,,,,,,5fd3789cee06d705f5e783cc,62c53c488fc9959af869a542,2022-07-06_09h40.47.677,Colour_Asymmetry_Pilot,2022.1.3,Win32,60.46680372,62c50e9c1127f2cd403a315f,0,40,40,6,1,fourtwo,,,,,,,,,,,,,,,,,,,,,,,,,,,,,,,,,,,,,,,,,,,,,,,,,,,,,,,,,,,,,,,,,,,,,,,,,,,,,,,,,,,,,,,,,,,,,,,,,,,,,,,,,,,,,,,,,,,,,,,,,,,,,,,,,,,,,,,,,,,,,,,,,,,,,,,,,,,,,
,,,,,,5fd3789cee06d705f5e783cc,62c53c488fc9959af869a542,2022-07-06_09h40.47.677,Colour_Asymmetry_Pilot,2022.1.3,Win32,60.46680372,62c50e9c1127f2cd403a315f,0,41,41,160,1,onetwo,,,,,,,,,,,,,,,,,,,,,,,,,,,,,,,,,,,,,,,,,,,,,,,,,,,,,,,,,,,,,,,,,,,,,,,,,,,,,,,,,,,,,,,,,,,,,,,,,,,,,,,,,,,,,,,,,,,,,,,,,,,,,,,,,,,,,,,,,,,,,,,,,,,,,,,,,,,,,
,,,,,,5fd3789cee06d705f5e783cc,62c53c488fc9959af869a542,2022-07-06_09h40.47.677,Colour_Asymmetry_Pilot,2022.1.3,Win32,60.46680372,62c50e9c1127f2cd403a315f,0,42,42,73,1,onethree,,,,,,,,,,,,,,,,,,,,,,,,,,,,,,,,,,,,,,,,,,,,,,,,,,,,,,,,,,,,,,,,,,,,,,,,,,,,,,,,,,,,,,,,,,,,,,,,,,,,,,,,,,,,,,,,,,,,,,,,,,,,,,,,,,,,,,,,,,,,,,,,,,,,,,,,,,,,,
,,,,,,5fd3789cee06d705f5e783cc,62c53c488fc9959af869a542,2022-07-06_09h40.47.677,Colour_Asymmetry_Pilot,2022.1.3,Win32,60.46680372,62c50e9c1127f2cd403a315f,0,43,43,50,1,twoone,,,,,,,,,,,,,,,,,,,,,,,,,,,,,,,,,,,,,,,,,,,,,,,,,,,,,,,,,,,,,,,,,,,,,,,,,,,,,,,,,,,,,,,,,,,,,,,,,,,,,,,,,,,,,,,,,,,,,,,,,,,,,,,,,,,,,,,,,,,,,,,,,,,,,,,,,,,,,
,,,,,,5fd3789cee06d705f5e783cc,62c53c488fc9959af869a542,2022-07-06_09h40.47.677,Colour_Asymmetry_Pilot,2022.1.3,Win32,60.46680372,62c50e9c1127f2cd403a315f,0,44,44,148,1,threeone,,,,,,,,,,,,,,,,,,,,,,,,,,,,,,,,,,,,,,,,,,,,,,,,,,,,,,,,,,,,,,,,,,,,,,,,,,,,,,,,,,,,,,,,,,,,,,,,,,,,,,,,,,,,,,,,,,,,,,,,,,,,,,,,,,,,,,,,,,,,,,,,,,,,,,,,,,,,,
,,,,,,5fd3789cee06d705f5e783cc,62c53c488fc9959af869a542,2022-07-06_09h40.47.677,Colour_Asymmetry_Pilot,2022.1.3,Win32,60.46680372,62c50e9c1127f2cd403a315f,0,45,45,92,1,threeone,,,,,,,,,,,,,,,,,,,,,,,,,,,,,,,,,,,,,,,,,,,,,,,,,,,,,,,,,,,,,,,,,,,,,,,,,,,,,,,,,,,,,,,,,,,,,,,,,,,,,,,,,,,,,,,,,,,,,,,,,,,,,,,,,,,,,,,,,,,,,,,,,,,,,,,,,,,,,
,,,,,,5fd3789cee06d705f5e783cc,62c53c488fc9959af869a542,2022-07-06_09h40.47.677,Colour_Asymmetry_Pilot,2022.1.3,Win32,60.46680372,62c50e9c1127f2cd403a315f,0,46,46,139,1,twofour,,,,,,,,,,,,,,,,,,,,,,,,,,,,,,,,,,,,,,,,,,,,,,,,,,,,,,,,,,,,,,,,,,,,,,,,,,,,,,,,,,,,,,,,,,,,,,,,,,,,,,,,,,,,,,,,,,,,,,,,,,,,,,,,,,,,,,,,,,,,,,,,,,,,,,,,,,,,,
,,,,,,5fd3789cee06d705f5e783cc,62c53c488fc9959af869a542,2022-07-06_09h40.47.677,Colour_Asymmetry_Pilot,2022.1.3,Win32,60.46680372,62c50e9c1127f2cd403a315f,0,47,47,62,1,fourtwo,,,,,,,,,,,,,,,,,,,,,,,,,,,,,,,,,,,,,,,,,,,,,,,,,,,,,,,,,,,,,,,,,,,,,,,,,,,,,,,,,,,,,,,,,,,,,,,,,,,,,,,,,,,,,,,,,,,,,,,,,,,,,,,,,,,,,,,,,,,,,,,,,,,,,,,,,,,,,
,,,,,,5fd3789cee06d705f5e783cc,62c53c488fc9959af869a542,2022-07-06_09h40.47.677,Colour_Asymmetry_Pilot,2022.1.3,Win32,60.46680372,62c50e9c1127f2cd403a315f,0,48,48,134,1,fourtwo,,,,,,,,,,,,,,,,,,,,,,,,,,,,,,,,,,,,,,,,,,,,,,,,,,,,,,,,,,,,,,,,,,,,,,,,,,,,,,,,,,,,,,,,,,,,,,,,,,,,,,,,,,,,,,,,,,,,,,,,,,,,,,,,,,,,,,,,,,,,,,,,,,,,,,,,,,,,,
,,,,,,5fd3789cee06d705f5e783cc,62c53c488fc9959af869a542,2022-07-06_09h40.47.677,Colour_Asymmetry_Pilot,2022.1.3,Win32,60.46680372,62c50e9c1127f2cd403a315f,0,49,49,119,1,fourthree,,,,,,,,,,,,,,,,,,,,,,,,,,,,,,,,,,,,,,,,,,,,,,,,,,,,,,,,,,,,,,,,,,,,,,,,,,,,,,,,,,,,,,,,,,,,,,,,,,,,,,,,,,,,,,,,,,,,,,,,,,,,,,,,,,,,,,,,,,,,,,,,,,,,,,,,,,,,,
,,,,,,5fd3789cee06d705f5e783cc,62c53c488fc9959af869a542,2022-07-06_09h40.47.677,Colour_Asymmetry_Pilot,2022.1.3,Win32,60.46680372,62c50e9c1127f2cd403a315f,0,50,50,137,1,onethree,,,,,,,,,,,,,,,,,,,,,,,,,,,,,,,,,,,,,,,,,,,,,,,,,,,,,,,,,,,,,,,,,,,,,,,,,,,,,,,,,,,,,,,,,,,,,,,,,,,,,,,,,,,,,,,,,,,,,,,,,,,,,,,,,,,,,,,,,,,,,,,,,,,,,,,,,,,,,
,,,,,,5fd3789cee06d705f5e783cc,62c53c488fc9959af869a542,2022-07-06_09h40.47.677,Colour_Asymmetry_Pilot,2022.1.3,Win32,60.46680372,62c50e9c1127f2cd403a315f,0,51,51,130,1,twoone,,,,,,,,,,,,,,,,,,,,,,,,,,,,,,,,,,,,,,,,,,,,,,,,,,,,,,,,,,,,,,,,,,,,,,,,,,,,,,,,,,,,,,,,,,,,,,,,,,,,,,,,,,,,,,,,,,,,,,,,,,,,,,,,,,,,,,,,,,,,,,,,,,,,,,,,,,,,,
,,,,,,5fd3789cee06d705f5e783cc,62c53c488fc9959af869a542,2022-07-06_09h40.47.677,Colour_Asymmetry_Pilot,2022.1.3,Win32,60.46680372,62c50e9c1127f2cd403a315f,0,52,52,131,1,twofour,,,,,,,,,,,,,,,,,,,,,,,,,,,,,,,,,,,,,,,,,,,,,,,,,,,,,,,,,,,,,,,,,,,,,,,,,,,,,,,,,,,,,,,,,,,,,,,,,,,,,,,,,,,,,,,,,,,,,,,,,,,,,,,,,,,,,,,,,,,,,,,,,,,,,,,,,,,,,
,,,,,,5fd3789cee06d705f5e783cc,62c53c488fc9959af869a542,2022-07-06_09h40.47.677,Colour_Asymmetry_Pilot,2022.1.3,Win32,60.46680372,62c50e9c1127f2cd403a315f,0,53,53,60,1,threeone,,,,,,,,,,,,,,,,,,,,,,,,,,,,,,,,,,,,,,,,,,,,,,,,,,,,,,,,,,,,,,,,,,,,,,,,,,,,,,,,,,,,,,,,,,,,,,,,,,,,,,,,,,,,,,,,,,,,,,,,,,,,,,,,,,,,,,,,,,,,,,,,,,,,,,,,,,,,,
,,,,,,5fd3789cee06d705f5e783cc,62c53c488fc9959af869a542,2022-07-06_09h40.47.677,Colour_Asymmetry_Pilot,2022.1.3,Win32,60.46680372,62c50e9c1127f2cd403a315f,0,54,54,47,1,fourthree,,,,,,,,,,,,,,,,,,,,,,,,,,,,,,,,,,,,,,,,,,,,,,,,,,,,,,,,,,,,,,,,,,,,,,,,,,,,,,,,,,,,,,,,,,,,,,,,,,,,,,,,,,,,,,,,,,,,,,,,,,,,,,,,,,,,,,,,,,,,,,,,,,,,,,,,,,,,,
,,,,,,5fd3789cee06d705f5e783cc,62c53c488fc9959af869a542,2022-07-06_09h40.47.677,Colour_Asymmetry_Pilot,2022.1.3,Win32,60.46680372,62c50e9c1127f2cd403a315f,0,55,55,94,1,fourtwo,,,,,,,,,,,,,,,,,,,,,,,,,,,,,,,,,,,,,,,,,,,,,,,,,,,,,,,,,,,,,,,,,,,,,,,,,,,,,,,,,,,,,,,,,,,,,,,,,,,,,,,,,,,,,,,,,,,,,,,,,,,,,,,,,,,,,,,,,,,,,,,,,,,,,,,,,,,,,
,,,,,,5fd3789cee06d705f5e783cc,62c53c488fc9959af869a542,2022-07-06_09h40.47.677,Colour_Asymmetry_Pilot,2022.1.3,Win32,60.46680372,62c50e9c1127f2cd403a315f,0,56,56,116,1,threeone,,,,,,,,,,,,,,,,,,,,,,,,,,,,,,,,,,,,,,,,,,,,,,,,,,,,,,,,,,,,,,,,,,,,,,,,,,,,,,,,,,,,,,,,,,,,,,,,,,,,,,,,,,,,,,,,,,,,,,,,,,,,,,,,,,,,,,,,,,,,,,,,,,,,,,,,,,,,,
,,,,,,5fd3789cee06d705f5e783cc,62c53c488fc9959af869a542,2022-07-06_09h40.47.677,Colour_Asymmetry_Pilot,2022.1.3,Win32,60.46680372,62c50e9c1127f2cd403a315f,0,57,57,93,1,threefour,,,,,,,,,,,,,,,,,,,,,,,,,,,,,,,,,,,,,,,,,,,,,,,,,,,,,,,,,,,,,,,,,,,,,,,,,,,,,,,,,,,,,,,,,,,,,,,,,,,,,,,,,,,,,,,,,,,,,,,,,,,,,,,,,,,,,,,,,,,,,,,,,,,,,,,,,,,,,
,,,,,,5fd3789cee06d705f5e783cc,62c53c488fc9959af869a542,2022-07-06_09h40.47.677,Colour_Asymmetry_Pilot,2022.1.3,Win32,60.46680372,62c50e9c1127f2cd403a315f,0,58,58,112,1,onetwo,,,,,,,,,,,,,,,,,,,,,,,,,,,,,,,,,,,,,,,,,,,,,,,,,,,,,,,,,,,,,,,,,,,,,,,,,,,,,,,,,,,,,,,,,,,,,,,,,,,,,,,,,,,,,,,,,,,,,,,,,,,,,,,,,,,,,,,,,,,,,,,,,,,,,,,,,,,,,
,,,,,,5fd3789cee06d705f5e783cc,62c53c488fc9959af869a542,2022-07-06_09h40.47.677,Colour_Asymmetry_Pilot,2022.1.3,Win32,60.46680372,62c50e9c1127f2cd403a315f,0,59,59,107,1,twofour,,,,,,,,,,,,,,,,,,,,,,,,,,,,,,,,,,,,,,,,,,,,,,,,,,,,,,,,,,,,,,,,,,,,,,,,,,,,,,,,,,,,,,,,,,,,,,,,,,,,,,,,,,,,,,,,,,,,,,,,,,,,,,,,,,,,,,,,,,,,,,,,,,,,,,,,,,,,,
,,,,,,5fd3789cee06d705f5e783cc,62c53c488fc9959af869a542,2022-07-06_09h40.47.677,Colour_Asymmetry_Pilot,2022.1.3,Win32,60.46680372,62c50e9c1127f2cd403a315f,0,60,60,158,1,fourtwo,,,,,,,,,,,,,,,,,,,,,,,,,,,,,,,,,,,,,,,,,,,,,,,,,,,,,,,,,,,,,,,,,,,,,,,,,,,,,,,,,,,,,,,,,,,,,,,,,,,,,,,,,,,,,,,,,,,,,,,,,,,,,,,,,,,,,,,,,,,,,,,,,,,,,,,,,,,,,
,,,,,,5fd3789cee06d705f5e783cc,62c53c488fc9959af869a542,2022-07-06_09h40.47.677,Colour_Asymmetry_Pilot,2022.1.3,Win32,60.46680372,62c50e9c1127f2cd403a315f,0,61,61,8,1,onetwo,,,,,,,,,,,,,,,,,,,,,,,,,,,,,,,,,,,,,,,,,,,,,,,,,,,,,,,,,,,,,,,,,,,,,,,,,,,,,,,,,,,,,,,,,,,,,,,,,,,,,,,,,,,,,,,,,,,,,,,,,,,,,,,,,,,,,,,,,,,,,,,,,,,,,,,,,,,,,
,,,,,,5fd3789cee06d705f5e783cc,62c53c488fc9959af869a542,2022-07-06_09h40.47.677,Colour_Asymmetry_Pilot,2022.1.3,Win32,60.46680372,62c50e9c1127f2cd403a315f,0,62,62,43,1,twofour,,,,,,,,,,,,,,,,,,,,,,,,,,,,,,,,,,,,,,,,,,,,,,,,,,,,,,,,,,,,,,,,,,,,,,,,,,,,,,,,,,,,,,,,,,,,,,,,,,,,,,,,,,,,,,,,,,,,,,,,,,,,,,,,,,,,,,,,,,,,,,,,,,,,,,,,,,,,,
,,,,,,5fd3789cee06d705f5e783cc,62c53c488fc9959af869a542,2022-07-06_09h40.47.677,Colour_Asymmetry_Pilot,2022.1.3,Win32,60.46680372,62c50e9c1127f2cd403a315f,0,63,63,28,1,threeone,,,,,,,,,,,,,,,,,,,,,,,,,,,,,,,,,,,,,,,,,,,,,,,,,,,,,,,,,,,,,,,,,,,,,,,,,,,,,,,,,,,,,,,,,,,,,,,,,,,,,,,,,,,,,,,,,,,,,,,,,,,,,,,,,,,,,,,,,,,,,,,,,,,,,,,,,,,,,
,,,,,,5fd3789cee06d705f5e783cc,62c53c488fc9959af869a542,2022-07-06_09h40.47.677,Colour_Asymmetry_Pilot,2022.1.3,Win32,60.46680372,62c50e9c1127f2cd403a315f,0,64,64,56,1,onetwo,,,,,,,,,,,,,,,,,,,,,,,,,,,,,,,,,,,,,,,,,,,,,,,,,,,,,,,,,,,,,,,,,,,,,,,,,,,,,,,,,,,,,,,,,,,,,,,,,,,,,,,,,,,,,,,,,,,,,,,,,,,,,,,,,,,,,,,,,,,,,,,,,,,,,,,,,,,,,
,,,,,,5fd3789cee06d705f5e783cc,62c53c488fc9959af869a542,2022-07-06_09h40.47.677,Colour_Asymmetry_Pilot,2022.1.3,Win32,60.46680372,62c50e9c1127f2cd403a315f,0,65,65,115,1,twofour,,,,,,,,,,,,,,,,,,,,,,,,,,,,,,,,,,,,,,,,,,,,,,,,,,,,,,,,,,,,,,,,,,,,,,,,,,,,,,,,,,,,,,,,,,,,,,,,,,,,,,,,,,,,,,,,,,,,,,,,,,,,,,,,,,,,,,,,,,,,,,,,,,,,,,,,,,,,,
,,,,,,5fd3789cee06d705f5e783cc,62c53c488fc9959af869a542,2022-07-06_09h40.47.677,Colour_Asymmetry_Pilot,2022.1.3,Win32,60.46680372,62c50e9c1127f2cd403a315f,0,66,66,98,1,twoone,,,,,,,,,,,,,,,,,,,,,,,,,,,,,,,,,,,,,,,,,,,,,,,,,,,,,,,,,,,,,,,,,,,,,,,,,,,,,,,,,,,,,,,,,,,,,,,,,,,,,,,,,,,,,,,,,,,,,,,,,,,,,,,,,,,,,,,,,,,,,,,,,,,,,,,,,,,,,
,,,,,,5fd3789cee06d705f5e783cc,62c53c488fc9959af869a542,2022-07-06_09h40.47.677,Colour_Asymmetry_Pilot,2022.1.3,Win32,60.46680372,62c50e9c1127f2cd403a315f,0,67,67,159,1,fourthree,,,,,,,,,,,,,,,,,,,,,,,,,,,,,,,,,,,,,,,,,,,,,,,,,,,,,,,,,,,,,,,,,,,,,,,,,,,,,,,,,,,,,,,,,,,,,,,,,,,,,,,,,,,,,,,,,,,,,,,,,,,,,,,,,,,,,,,,,,,,,,,,,,,,,,,,,,,,,
,,,,,,5fd3789cee06d705f5e783cc,62c53c488fc9959af869a542,2022-07-06_09h40.47.677,Colour_Asymmetry_Pilot,2022.1.3,Win32,60.46680372,62c50e9c1127f2cd403a315f,0,68,68,152,1,onetwo,,,,,,,,,,,,,,,,,,,,,,,,,,,,,,,,,,,,,,,,,,,,,,,,,,,,,,,,,,,,,,,,,,,,,,,,,,,,,,,,,,,,,,,,,,,,,,,,,,,,,,,,,,,,,,,,,,,,,,,,,,,,,,,,,,,,,,,,,,,,,,,,,,,,,,,,,,,,,
,,,,,,5fd3789cee06d705f5e783cc,62c53c488fc9959af869a542,2022-07-06_09h40.47.677,Colour_Asymmetry_Pilot,2022.1.3,Win32,60.46680372,62c50e9c1127f2cd403a315f,0,69,69,3,1,twofour,,,,,,,,,,,,,,,,,,,,,,,,,,,,,,,,,,,,,,,,,,,,,,,,,,,,,,,,,,,,,,,,,,,,,,,,,,,,,,,,,,,,,,,,,,,,,,,,,,,,,,,,,,,,,,,,,,,,,,,,,,,,,,,,,,,,,,,,,,,,,,,,,,,,,,,,,,,,,
,,,,,,5fd3789cee06d705f5e783cc,62c53c488fc9959af869a542,2022-07-06_09h40.47.677,Colour_Asymmetry_Pilot,2022.1.3,Win32,60.46680372,62c50e9c1127f2cd403a315f,0,70,70,32,1,onetwo,,,,,,,,,,,,,,,,,,,,,,,,,,,,,,,,,,,,,,,,,,,,,,,,,,,,,,,,,,,,,,,,,,,,,,,,,,,,,,,,,,,,,,,,,,,,,,,,,,,,,,,,,,,,,,,,,,,,,,,,,,,,,,,,,,,,,,,,,,,,,,,,,,,,,,,,,,,,,
,,,,,,5fd3789cee06d705f5e783cc,62c53c488fc9959af869a542,2022-07-06_09h40.47.677,Colour_Asymmetry_Pilot,2022.1.3,Win32,60.46680372,62c50e9c1127f2cd403a315f,0,71,71,19,1,twofour,,,,,,,,,,,,,,,,,,,,,,,,,,,,,,,,,,,,,,,,,,,,,,,,,,,,,,,,,,,,,,,,,,,,,,,,,,,,,,,,,,,,,,,,,,,,,,,,,,,,,,,,,,,,,,,,,,,,,,,,,,,,,,,,,,,,,,,,,,,,,,,,,,,,,,,,,,,,,
,,,,,,5fd3789cee06d705f5e783cc,62c53c488fc9959af869a542,2022-07-06_09h40.47.677,Colour_Asymmetry_Pilot,2022.1.3,Win32,60.46680372,62c50e9c1127f2cd403a315f,0,72,72,155,1,twofour,,,,,,,,,,,,,,,,,,,,,,,,,,,,,,,,,,,,,,,,,,,,,,,,,,,,,,,,,,,,,,,,,,,,,,,,,,,,,,,,,,,,,,,,,,,,,,,,,,,,,,,,,,,,,,,,,,,,,,,,,,,,,,,,,,,,,,,,,,,,,,,,,,,,,,,,,,,,,
,,,,,,5fd3789cee06d705f5e783cc,62c53c488fc9959af869a542,2022-07-06_09h40.47.677,Colour_Asymmetry_Pilot,2022.1.3,Win32,60.46680372,62c50e9c1127f2cd403a315f,0,73,73,83,1,twofour,,,,,,,,,,,,,,,,,,,,,,,,,,,,,,,,,,,,,,,,,,,,,,,,,,,,,,,,,,,,,,,,,,,,,,,,,,,,,,,,,,,,,,,,,,,,,,,,,,,,,,,,,,,,,,,,,,,,,,,,,,,,,,,,,,,,,,,,,,,,,,,,,,,,,,,,,,,,,
,,,,,,5fd3789cee06d705f5e783cc,62c53c488fc9959af869a542,2022-07-06_09h40.47.677,Colour_Asymmetry_Pilot,2022.1.3,Win32,60.46680372,62c50e9c1127f2cd403a315f,0,74,74,108,1,threeone,,,,,,,,,,,,,,,,,,,,,,,,,,,,,,,,,,,,,,,,,,,,,,,,,,,,,,,,,,,,,,,,,,,,,,,,,,,,,,,,,,,,,,,,,,,,,,,,,,,,,,,,,,,,,,,,,,,,,,,,,,,,,,,,,,,,,,,,,,,,,,,,,,,,,,,,,,,,,
,,,,,,5fd3789cee06d705f5e783cc,62c53c488fc9959af869a542,2022-07-06_09h40.47.677,Colour_Asymmetry_Pilot,2022.1.3,Win32,60.46680372,62c50e9c1127f2cd403a315f,0,75,75,157,1,threefour,,,,,,,,,,,,,,,,,,,,,,,,,,,,,,,,,,,,,,,,,,,,,,,,,,,,,,,,,,,,,,,,,,,,,,,,,,,,,,,,,,,,,,,,,,,,,,,,,,,,,,,,,,,,,,,,,,,,,,,,,,,,,,,,,,,,,,,,,,,,,,,,,,,,,,,,,,,,,
,,,,,,5fd3789cee06d705f5e783cc,62c53c488fc9959af869a542,2022-07-06_09h40.47.677,Colour_Asymmetry_Pilot,2022.1.3,Win32,60.46680372,62c50e9c1127f2cd403a315f,0,76,76,29,1,threefour,,,,,,,,,,,,,,,,,,,,,,,,,,,,,,,,,,,,,,,,,,,,,,,,,,,,,,,,,,,,,,,,,,,,,,,,,,,,,,,,,,,,,,,,,,,,,,,,,,,,,,,,,,,,,,,,,,,,,,,,,,,,,,,,,,,,,,,,,,,,,,,,,,,,,,,,,,,,,
,,,,,,5fd3789cee06d705f5e783cc,62c53c488fc9959af869a542,2022-07-06_09h40.47.677,Colour_Asymmetry_Pilot,2022.1.3,Win32,60.46680372,62c50e9c1127f2cd403a315f,0,77,77,90,1,twoone,,,,,,,,,,,,,,,,,,,,,,,,,,,,,,,,,,,,,,,,,,,,,,,,,,,,,,,,,,,,,,,,,,,,,,,,,,,,,,,,,,,,,,,,,,,,,,,,,,,,,,,,,,,,,,,,,,,,,,,,,,,,,,,,,,,,,,,,,,,,,,,,,,,,,,,,,,,,,
,,,,,,5fd3789cee06d705f5e783cc,62c53c488fc9959af869a542,2022-07-06_09h40.47.677,Colour_Asymmetry_Pilot,2022.1.3,Win32,60.46680372,62c50e9c1127f2cd403a315f,0,78,78,128,1,onetwo,,,,,,,,,,,,,,,,,,,,,,,,,,,,,,,,,,,,,,,,,,,,,,,,,,,,,,,,,,,,,,,,,,,,,,,,,,,,,,,,,,,,,,,,,,,,,,,,,,,,,,,,,,,,,,,,,,,,,,,,,,,,,,,,,,,,,,,,,,,,,,,,,,,,,,,,,,,,,
,,,,,,5fd3789cee06d705f5e783cc,62c53c488fc9959af869a542,2022-07-06_09h40.47.677,Colour_Asymmetry_Pilot,2022.1.3,Win32,60.46680372,62c50e9c1127f2cd403a315f,0,79,79,11,1,twofour,,,,,,,,,,,,,,,,,,,,,,,,,,,,,,,,,,,,,,,,,,,,,,,,,,,,,,,,,,,,,,,,,,,,,,,,,,,,,,,,,,,,,,,,,,,,,,,,,,,,,,,,,,,,,,,,,,,,,,,,,,,,,,,,,,,,,,,,,,,,,,,,,,,,,,,,,,,,,
,,,,,,5fd3789cee06d705f5e783cc,62c53c488fc9959af869a542,2022-07-06_09h40.47.677,Colour_Asymmetry_Pilot,2022.1.3,Win32,60.46680372,62c50e9c1127f2cd403a315f,0,80,80,118,1,fourtwo,,,,,,,,,,,,,,,,,,,,,,,,,,,,,,,,,,,,,,,,,,,,,,,,,,,,,,,,,,,,,,,,,,,,,,,,,,,,,,,,,,,,,,,,,,,,,,,,,,,,,,,,,,,,,,,,,,,,,,,,,,,,,,,,,,,,,,,,,,,,,,,,,,,,,,,,,,,,,
,,,,,,5fd3789cee06d705f5e783cc,62c53c488fc9959af869a542,2022-07-06_09h40.47.677,Colour_Asymmetry_Pilot,2022.1.3,Win32,60.46680372,62c50e9c1127f2cd403a315f,0,81,81,42,1,twoone,,,,,,,,,,,,,,,,,,,,,,,,,,,,,,,,,,,,,,,,,,,,,,,,,,,,,,,,,,,,,,,,,,,,,,,,,,,,,,,,,,,,,,,,,,,,,,,,,,,,,,,,,,,,,,,,,,,,,,,,,,,,,,,,,,,,,,,,,,,,,,,,,,,,,,,,,,,,,
,,,,,,5fd3789cee06d705f5e783cc,62c53c488fc9959af869a542,2022-07-06_09h40.47.677,Colour_Asymmetry_Pilot,2022.1.3,Win32,60.46680372,62c50e9c1127f2cd403a315f,0,82,82,81,1,onethree,,,,,,,,,,,,,,,,,,,,,,,,,,,,,,,,,,,,,,,,,,,,,,,,,,,,,,,,,,,,,,,,,,,,,,,,,,,,,,,,,,,,,,,,,,,,,,,,,,,,,,,,,,,,,,,,,,,,,,,,,,,,,,,,,,,,,,,,,,,,,,,,,,,,,,,,,,,,,
,,,,,,5fd3789cee06d705f5e783cc,62c53c488fc9959af869a542,2022-07-06_09h40.47.677,Colour_Asymmetry_Pilot,2022.1.3,Win32,60.46680372,62c50e9c1127f2cd403a315f,0,83,83,78,1,fourtwo,,,,,,,,,,,,,,,,,,,,,,,,,,,,,,,,,,,,,,,,,,,,,,,,,,,,,,,,,,,,,,,,,,,,,,,,,,,,,,,,,,,,,,,,,,,,,,,,,,,,,,,,,,,,,,,,,,,,,,,,,,,,,,,,,,,,,,,,,,,,,,,,,,,,,,,,,,,,,
,,,,,,5fd3789cee06d705f5e783cc,62c53c488fc9959af869a542,2022-07-06_09h40.47.677,Colour_Asymmetry_Pilot,2022.1.3,Win32,60.46680372,62c50e9c1127f2cd403a315f,0,84,84,35,1,twofour,,,,,,,,,,,,,,,,,,,,,,,,,,,,,,,,,,,,,,,,,,,,,,,,,,,,,,,,,,,,,,,,,,,,,,,,,,,,,,,,,,,,,,,,,,,,,,,,,,,,,,,,,,,,,,,,,,,,,,,,,,,,,,,,,,,,,,,,,,,,,,,,,,,,,,,,,,,,,
,,,,,,5fd3789cee06d705f5e783cc,62c53c488fc9959af869a542,2022-07-06_09h40.47.677,Colour_Asymmetry_Pilot,2022.1.3,Win32,60.46680372,62c50e9c1127f2cd403a315f,0,85,85,122,1,twoone,,,,,,,,,,,,,,,,,,,,,,,,,,,,,,,,,,,,,,,,,,,,,,,,,,,,,,,,,,,,,,,,,,,,,,,,,,,,,,,,,,,,,,,,,,,,,,,,,,,,,,,,,,,,,,,,,,,,,,,,,,,,,,,,,,,,,,,,,,,,,,,,,,,,,,,,,,,,,
,,,,,,5fd3789cee06d705f5e783cc,62c53c488fc9959af869a542,2022-07-06_09h40.47.677,Colour_Asymmetry_Pilot,2022.1.3,Win32,60.46680372,62c50e9c1127f2cd403a315f,0,86,86,12,1,threeone,,,,,,,,,,,,,,,,,,,,,,,,,,,,,,,,,,,,,,,,,,,,,,,,,,,,,,,,,,,,,,,,,,,,,,,,,,,,,,,,,,,,,,,,,,,,,,,,,,,,,,,,,,,,,,,,,,,,,,,,,,,,,,,,,,,,,,,,,,,,,,,,,,,,,,,,,,,,,
,,,,,,5fd3789cee06d705f5e783cc,62c53c488fc9959af869a542,2022-07-06_09h40.47.677,Colour_Asymmetry_Pilot,2022.1.3,Win32,60.46680372,62c50e9c1127f2cd403a315f,0,87,87,76,1,threeone,,,,,,,,,,,,,,,,,,,,,,,,,,,,,,,,,,,,,,,,,,,,,,,,,,,,,,,,,,,,,,,,,,,,,,,,,,,,,,,,,,,,,,,,,,,,,,,,,,,,,,,,,,,,,,,,,,,,,,,,,,,,,,,,,,,,,,,,,,,,,,,,,,,,,,,,,,,,,
,,,,,,5fd3789cee06d705f5e783cc,62c53c488fc9959af869a542,2022-07-06_09h40.47.677,Colour_Asymmetry_Pilot,2022.1.3,Win32,60.46680372,62c50e9c1127f2cd403a315f,0,88,88,102,1,fourtwo,,,,,,,,,,,,,,,,,,,,,,,,,,,,,,,,,,,,,,,,,,,,,,,,,,,,,,,,,,,,,,,,,,,,,,,,,,,,,,,,,,,,,,,,,,,,,,,,,,,,,,,,,,,,,,,,,,,,,,,,,,,,,,,,,,,,,,,,,,,,,,,,,,,,,,,,,,,,,
,,,,,,5fd3789cee06d705f5e783cc,62c53c488fc9959af869a542,2022-07-06_09h40.47.677,Colour_Asymmetry_Pilot,2022.1.3,Win32,60.46680372,62c50e9c1127f2cd403a315f,0,89,89,71,1,fourthree,,,,,,,,,,,,,,,,,,,,,,,,,,,,,,,,,,,,,,,,,,,,,,,,,,,,,,,,,,,,,,,,,,,,,,,,,,,,,,,,,,,,,,,,,,,,,,,,,,,,,,,,,,,,,,,,,,,,,,,,,,,,,,,,,,,,,,,,,,,,,,,,,,,,,,,,,,,,,
,,,,,,5fd3789cee06d705f5e783cc,62c53c488fc9959af869a542,2022-07-06_09h40.47.677,Colour_Asymmetry_Pilot,2022.1.3,Win32,60.46680372,62c50e9c1127f2cd403a315f,0,90,90,61,1,threefour,,,,,,,,,,,,,,,,,,,,,,,,,,,,,,,,,,,,,,,,,,,,,,,,,,,,,,,,,,,,,,,,,,,,,,,,,,,,,,,,,,,,,,,,,,,,,,,,,,,,,,,,,,,,,,,,,,,,,,,,,,,,,,,,,,,,,,,,,,,,,,,,,,,,,,,,,,,,,
,,,,,,5fd3789cee06d705f5e783cc,62c53c488fc9959af869a542,2022-07-06_09h40.47.677,Colour_Asymmetry_Pilot,2022.1.3,Win32,60.46680372,62c50e9c1127f2cd403a315f,0,91,91,86,1,fourtwo,,,,,,,,,,,,,,,,,,,,,,,,,,,,,,,,,,,,,,,,,,,,,,,,,,,,,,,,,,,,,,,,,,,,,,,,,,,,,,,,,,,,,,,,,,,,,,,,,,,,,,,,,,,,,,,,,,,,,,,,,,,,,,,,,,,,,,,,,,,,,,,,,,,,,,,,,,,,,
,,,,,,5fd3789cee06d705f5e783cc,62c53c488fc9959af869a542,2022-07-06_09h40.47.677,Colour_Asymmetry_Pilot,2022.1.3,Win32,60.46680372,62c50e9c1127f2cd403a315f,0,92,92,24,1,onetwo,,,,,,,,,,,,,,,,,,,,,,,,,,,,,,,,,,,,,,,,,,,,,,,,,,,,,,,,,,,,,,,,,,,,,,,,,,,,,,,,,,,,,,,,,,,,,,,,,,,,,,,,,,,,,,,,,,,,,,,,,,,,,,,,,,,,,,,,,,,,,,,,,,,,,,,,,,,,,
,,,,,,5fd3789cee06d705f5e783cc,62c53c488fc9959af869a542,2022-07-06_09h40.47.677,Colour_Asymmetry_Pilot,2022.1.3,Win32,60.46680372,62c50e9c1127f2cd403a315f,0,93,93,36,1,threeone,,,,,,,,,,,,,,,,,,,,,,,,,,,,,,,,,,,,,,,,,,,,,,,,,,,,,,,,,,,,,,,,,,,,,,,,,,,,,,,,,,,,,,,,,,,,,,,,,,,,,,,,,,,,,,,,,,,,,,,,,,,,,,,,,,,,,,,,,,,,,,,,,,,,,,,,,,,,,
,,,,,,5fd3789cee06d705f5e783cc,62c53c488fc9959af869a542,2022-07-06_09h40.47.677,Colour_Asymmetry_Pilot,2022.1.3,Win32,60.46680372,62c50e9c1127f2cd403a315f,0,94,94,109,1,threefour,,,,,,,,,,,,,,,,,,,,,,,,,,,,,,,,,,,,,,,,,,,,,,,,,,,,,,,,,,,,,,,,,,,,,,,,,,,,,,,,,,,,,,,,,,,,,,,,,,,,,,,,,,,,,,,,,,,,,,,,,,,,,,,,,,,,,,,,,,,,,,,,,,,,,,,,,,,,,
,,,,,,5fd3789cee06d705f5e783cc,62c53c488fc9959af869a542,2022-07-06_09h40.47.677,Colour_Asymmetry_Pilot,2022.1.3,Win32,60.46680372,62c50e9c1127f2cd403a315f,0,95,95,140,1,threeone,,,,,,,,,,,,,,,,,,,,,,,,,,,,,,,,,,,,,,,,,,,,,,,,,,,,,,,,,,,,,,,,,,,,,,,,,,,,,,,,,,,,,,,,,,,,,,,,,,,,,,,,,,,,,,,,,,,,,,,,,,,,,,,,,,,,,,,,,,,,,,,,,,,,,,,,,,,,,
,,,,,,5fd3789cee06d705f5e783cc,62c53c488fc9959af869a542,2022-07-06_09h40.47.677,Colour_Asymmetry_Pilot,2022.1.3,Win32,60.46680372,62c50e9c1127f2cd403a315f,0,96,96,101,1,threefour,,,,,,,,,,,,,,,,,,,,,,,,,,,,,,,,,,,,,,,,,,,,,,,,,,,,,,,,,,,,,,,,,,,,,,,,,,,,,,,,,,,,,,,,,,,,,,,,,,,,,,,,,,,,,,,,,,,,,,,,,,,,,,,,,,,,,,,,,,,,,,,,,,,,,,,,,,,,,
,,,,,,5fd3789cee06d705f5e783cc,62c53c488fc9959af869a542,2022-07-06_09h40.47.677,Colour_Asymmetry_Pilot,2022.1.3,Win32,60.46680372,62c50e9c1127f2cd403a315f,0,97,97,49,1,onethree,,,,,,,,,,,,,,,,,,,,,,,,,,,,,,,,,,,,,,,,,,,,,,,,,,,,,,,,,,,,,,,,,,,,,,,,,,,,,,,,,,,,,,,,,,,,,,,,,,,,,,,,,,,,,,,,,,,,,,,,,,,,,,,,,,,,,,,,,,,,,,,,,,,,,,,,,,,,,
,,,,,,5fd3789cee06d705f5e783cc,62c53c488fc9959af869a542,2022-07-06_09h40.47.677,Colour_Asymmetry_Pilot,2022.1.3,Win32,60.46680372,62c50e9c1127f2cd403a315f,0,98,98,145,1,onethree,,,,,,,,,,,,,,,,,,,,,,,,,,,,,,,,,,,,,,,,,,,,,,,,,,,,,,,,,,,,,,,,,,,,,,,,,,,,,,,,,,,,,,,,,,,,,,,,,,,,,,,,,,,,,,,,,,,,,,,,,,,,,,,,,,,,,,,,,,,,,,,,,,,,,,,,,,,,,
,,,,,,5fd3789cee06d705f5e783cc,62c53c488fc9959af869a542,2022-07-06_09h40.47.677,Colour_Asymmetry_Pilot,2022.1.3,Win32,60.46680372,62c50e9c1127f2cd403a315f,0,99,99,74,1,twoone,,,,,,,,,,,,,,,,,,,,,,,,,,,,,,,,,,,,,,,,,,,,,,,,,,,,,,,,,,,,,,,,,,,,,,,,,,,,,,,,,,,,,,,,,,,,,,,,,,,,,,,,,,,,,,,,,,,,,,,,,,,,,,,,,,,,,,,,,,,,,,,,,,,,,,,,,,,,,
,,,,,,5fd3789cee06d705f5e783cc,62c53c488fc9959af869a542,2022-07-06_09h40.47.677,Colour_Asymmetry_Pilot,2022.1.3,Win32,60.46680372,62c50e9c1127f2cd403a315f,0,100,100,57,1,onethree,,,,,,,,,,,,,,,,,,,,,,,,,,,,,,,,,,,,,,,,,,,,,,,,,,,,,,,,,,,,,,,,,,,,,,,,,,,,,,,,,,,,,,,,,,,,,,,,,,,,,,,,,,,,,,,,,,,,,,,,,,,,,,,,,,,,,,,,,,,,,,,,,,,,,,,,,,,,,
,,,,,,5fd3789cee06d705f5e783cc,62c53c488fc9959af869a542,2022-07-06_09h40.47.677,Colour_Asymmetry_Pilot,2022.1.3,Win32,60.46680372,62c50e9c1127f2cd403a315f,0,101,101,75,1,twofour,,,,,,,,,,,,,,,,,,,,,,,,,,,,,,,,,,,,,,,,,,,,,,,,,,,,,,,,,,,,,,,,,,,,,,,,,,,,,,,,,,,,,,,,,,,,,,,,,,,,,,,,,,,,,,,,,,,,,,,,,,,,,,,,,,,,,,,,,,,,,,,,,,,,,,,,,,,,,
,,,,,,5fd3789cee06d705f5e783cc,62c53c488fc9959af869a542,2022-07-06_09h40.47.677,Colour_Asymmetry_Pilot,2022.1.3,Win32,60.46680372,62c50e9c1127f2cd403a315f,0,102,102,33,1,onethree,,,,,,,,,,,,,,,,,,,,,,,,,,,,,,,,,,,,,,,,,,,,,,,,,,,,,,,,,,,,,,,,,,,,,,,,,,,,,,,,,,,,,,,,,,,,,,,,,,,,,,,,,,,,,,,,,,,,,,,,,,,,,,,,,,,,,,,,,,,,,,,,,,,,,,,,,,,,,
,,,,,,5fd3789cee06d705f5e783cc,62c53c488fc9959af869a542,2022-07-06_09h40.47.677,Colour_Asymmetry_Pilot,2022.1.3,Win32,60.46680372,62c50e9c1127f2cd403a315f,0,103,103,37,1,threefour,,,,,,,,,,,,,,,,,,,,,,,,,,,,,,,,,,,,,,,,,,,,,,,,,,,,,,,,,,,,,,,,,,,,,,,,,,,,,,,,,,,,,,,,,,,,,,,,,,,,,,,,,,,,,,,,,,,,,,,,,,,,,,,,,,,,,,,,,,,,,,,,,,,,,,,,,,,,,
,,,,,,5fd3789cee06d705f5e783cc,62c53c488fc9959af869a542,2022-07-06_09h40.47.677,Colour_Asymmetry_Pilot,2022.1.3,Win32,60.46680372,62c50e9c1127f2cd403a315f,0,104,104,136,1,onetwo,,,,,,,,,,,,,,,,,,,,,,,,,,,,,,,,,,,,,,,,,,,,,,,,,,,,,,,,,,,,,,,,,,,,,,,,,,,,,,,,,,,,,,,,,,,,,,,,,,,,,,,,,,,,,,,,,,,,,,,,,,,,,,,,,,,,,,,,,,,,,,,,,,,,,,,,,,,,,
,,,,,,5fd3789cee06d705f5e783cc,62c53c488fc9959af869a542,2022-07-06_09h40.47.677,Colour_Asymmetry_Pilot,2022.1.3,Win32,60.46680372,62c50e9c1127f2cd403a315f,0,105,105,51,1,twofour,,,,,,,,,,,,,,,,,,,,,,,,,,,,,,,,,,,,,,,,,,,,,,,,,,,,,,,,,,,,,,,,,,,,,,,,,,,,,,,,,,,,,,,,,,,,,,,,,,,,,,,,,,,,,,,,,,,,,,,,,,,,,,,,,,,,,,,,,,,,,,,,,,,,,,,,,,,,,
,,,,,,5fd3789cee06d705f5e783cc,62c53c488fc9959af869a542,2022-07-06_09h40.47.677,Colour_Asymmetry_Pilot,2022.1.3,Win32,60.46680372,62c50e9c1127f2cd403a315f,0,106,106,82,1,twoone,,,,,,,,,,,,,,,,,,,,,,,,,,,,,,,,,,,,,,,,,,,,,,,,,,,,,,,,,,,,,,,,,,,,,,,,,,,,,,,,,,,,,,,,,,,,,,,,,,,,,,,,,,,,,,,,,,,,,,,,,,,,,,,,,,,,,,,,,,,,,,,,,,,,,,,,,,,,,
,,,,,,5fd3789cee06d705f5e783cc,62c53c488fc9959af869a542,2022-07-06_09h40.47.677,Colour_Asymmetry_Pilot,2022.1.3,Win32,60.46680372,62c50e9c1127f2cd403a315f,0,107,107,72,1,onetwo,,,,,,,,,,,,,,,,,,,,,,,,,,,,,,,,,,,,,,,,,,,,,,,,,,,,,,,,,,,,,,,,,,,,,,,,,,,,,,,,,,,,,,,,,,,,,,,,,,,,,,,,,,,,,,,,,,,,,,,,,,,,,,,,,,,,,,,,,,,,,,,,,,,,,,,,,,,,,
,,,,,,5fd3789cee06d705f5e783cc,62c53c488fc9959af869a542,2022-07-06_09h40.47.677,Colour_Asymmetry_Pilot,2022.1.3,Win32,60.46680372,62c50e9c1127f2cd403a315f,0,108,108,59,1,twofour,,,,,,,,,,,,,,,,,,,,,,,,,,,,,,,,,,,,,,,,,,,,,,,,,,,,,,,,,,,,,,,,,,,,,,,,,,,,,,,,,,,,,,,,,,,,,,,,,,,,,,,,,,,,,,,,,,,,,,,,,,,,,,,,,,,,,,,,,,,,,,,,,,,,,,,,,,,,,
,,,,,,5fd3789cee06d705f5e783cc,62c53c488fc9959af869a542,2022-07-06_09h40.47.677,Colour_Asymmetry_Pilot,2022.1.3,Win32,60.46680372,62c50e9c1127f2cd403a315f,0,109,109,4,1,threeone,,,,,,,,,,,,,,,,,,,,,,,,,,,,,,,,,,,,,,,,,,,,,,,,,,,,,,,,,,,,,,,,,,,,,,,,,,,,,,,,,,,,,,,,,,,,,,,,,,,,,,,,,,,,,,,,,,,,,,,,,,,,,,,,,,,,,,,,,,,,,,,,,,,,,,,,,,,,,
,,,,,,5fd3789cee06d705f5e783cc,62c53c488fc9959af869a542,2022-07-06_09h40.47.677,Colour_Asymmetry_Pilot,2022.1.3,Win32,60.46680372,62c50e9c1127f2cd403a315f,0,110,110,103,1,fourthree,,,,,,,,,,,,,,,,,,,,,,,,,,,,,,,,,,,,,,,,,,,,,,,,,,,,,,,,,,,,,,,,,,,,,,,,,,,,,,,,,,,,,,,,,,,,,,,,,,,,,,,,,,,,,,,,,,,,,,,,,,,,,,,,,,,,,,,,,,,,,,,,,,,,,,,,,,,,,
,,,,,,5fd3789cee06d705f5e783cc,62c53c488fc9959af869a542,2022-07-06_09h40.47.677,Colour_Asymmetry_Pilot,2022.1.3,Win32,60.46680372,62c50e9c1127f2cd403a315f,0,111,111,135,1,fourthree,,,,,,,,,,,,,,,,,,,,,,,,,,,,,,,,,,,,,,,,,,,,,,,,,,,,,,,,,,,,,,,,,,,,,,,,,,,,,,,,,,,,,,,,,,,,,,,,,,,,,,,,,,,,,,,,,,,,,,,,,,,,,,,,,,,,,,,,,,,,,,,,,,,,,,,,,,,,,
,,,,,,5fd3789cee06d705f5e783cc,62c53c488fc9959af869a542,2022-07-06_09h40.47.677,Colour_Asymmetry_Pilot,2022.1.3,Win32,60.46680372,62c50e9c1127f2cd403a315f,0,112,112,133,1,threefour,,,,,,,,,,,,,,,,,,,,,,,,,,,,,,,,,,,,,,,,,,,,,,,,,,,,,,,,,,,,,,,,,,,,,,,,,,,,,,,,,,,,,,,,,,,,,,,,,,,,,,,,,,,,,,,,,,,,,,,,,,,,,,,,,,,,,,,,,,,,,,,,,,,,,,,,,,,,,
,,,,,,5fd3789cee06d705f5e783cc,62c53c488fc9959af869a542,2022-07-06_09h40.47.677,Colour_Asymmetry_Pilot,2022.1.3,Win32,60.46680372,62c50e9c1127f2cd403a315f,0,113,113,14,1,fourtwo,,,,,,,,,,,,,,,,,,,,,,,,,,,,,,,,,,,,,,,,,,,,,,,,,,,,,,,,,,,,,,,,,,,,,,,,,,,,,,,,,,,,,,,,,,,,,,,,,,,,,,,,,,,,,,,,,,,,,,,,,,,,,,,,,,,,,,,,,,,,,,,,,,,,,,,,,,,,,
,,,,,,5fd3789cee06d705f5e783cc,62c53c488fc9959af869a542,2022-07-06_09h40.47.677,Colour_Asymmetry_Pilot,2022.1.3,Win32,60.46680372,62c50e9c1127f2cd403a315f,0,114,114,44,1,threeone,,,,,,,,,,,,,,,,,,,,,,,,,,,,,,,,,,,,,,,,,,,,,,,,,,,,,,,,,,,,,,,,,,,,,,,,,,,,,,,,,,,,,,,,,,,,,,,,,,,,,,,,,,,,,,,,,,,,,,,,,,,,,,,,,,,,,,,,,,,,,,,,,,,,,,,,,,,,,
,,,,,,5fd3789cee06d705f5e783cc,62c53c488fc9959af869a542,2022-07-06_09h40.47.677,Colour_Asymmetry_Pilot,2022.1.3,Win32,60.46680372,62c50e9c1127f2cd403a315f,0,115,115,88,1,onetwo,,,,,,,,,,,,,,,,,,,,,,,,,,,,,,,,,,,,,,,,,,,,,,,,,,,,,,,,,,,,,,,,,,,,,,,,,,,,,,,,,,,,,,,,,,,,,,,,,,,,,,,,,,,,,,,,,,,,,,,,,,,,,,,,,,,,,,,,,,,,,,,,,,,,,,,,,,,,,
,,,,,,5fd3789cee06d705f5e783cc,62c53c488fc9959af869a542,2022-07-06_09h40.47.677,Colour_Asymmetry_Pilot,2022.1.3,Win32,60.46680372,62c50e9c1127f2cd403a315f,0,116,116,96,1,onetwo,,,,,,,,,,,,,,,,,,,,,,,,,,,,,,,,,,,,,,,,,,,,,,,,,,,,,,,,,,,,,,,,,,,,,,,,,,,,,,,,,,,,,,,,,,,,,,,,,,,,,,,,,,,,,,,,,,,,,,,,,,,,,,,,,,,,,,,,,,,,,,,,,,,,,,,,,,,,,
,,,,,,5fd3789cee06d705f5e783cc,62c53c488fc9959af869a542,2022-07-06_09h40.47.677,Colour_Asymmetry_Pilot,2022.1.3,Win32,60.46680372,62c50e9c1127f2cd403a315f,0,117,117,31,1,fourthree,,,,,,,,,,,,,,,,,,,,,,,,,,,,,,,,,,,,,,,,,,,,,,,,,,,,,,,,,,,,,,,,,,,,,,,,,,,,,,,,,,,,,,,,,,,,,,,,,,,,,,,,,,,,,,,,,,,,,,,,,,,,,,,,,,,,,,,,,,,,,,,,,,,,,,,,,,,,,
,,,,,,5fd3789cee06d705f5e783cc,62c53c488fc9959af869a542,2022-07-06_09h40.47.677,Colour_Asymmetry_Pilot,2022.1.3,Win32,60.46680372,62c50e9c1127f2cd403a315f,0,118,118,0,1,onetwo,,,,,,,,,,,,,,,,,,,,,,,,,,,,,,,,,,,,,,,,,,,,,,,,,,,,,,,,,,,,,,,,,,,,,,,,,,,,,,,,,,,,,,,,,,,,,,,,,,,,,,,,,,,,,,,,,,,,,,,,,,,,,,,,,,,,,,,,,,,,,,,,,,,,,,,,,,,,,
,,,,,,5fd3789cee06d705f5e783cc,62c53c488fc9959af869a542,2022-07-06_09h40.47.677,Colour_Asymmetry_Pilot,2022.1.3,Win32,60.46680372,62c50e9c1127f2cd403a315f,0,119,119,27,1,twofour,,,,,,,,,,,,,,,,,,,,,,,,,,,,,,,,,,,,,,,,,,,,,,,,,,,,,,,,,,,,,,,,,,,,,,,,,,,,,,,,,,,,,,,,,,,,,,,,,,,,,,,,,,,,,,,,,,,,,,,,,,,,,,,,,,,,,,,,,,,,,,,,,,,,,,,,,,,,,
,,,,,,5fd3789cee06d705f5e783cc,62c53c488fc9959af869a542,2022-07-06_09h40.47.677,Colour_Asymmetry_Pilot,2022.1.3,Win32,60.46680372,62c50e9c1127f2cd403a315f,0,120,120,142,1,fourtwo,,,,,,,,,,,,,,,,,,,,,,,,,,,,,,,,,,,,,,,,,,,,,,,,,,,,,,,,,,,,,,,,,,,,,,,,,,,,,,,,,,,,,,,,,,,,,,,,,,,,,,,,,,,,,,,,,,,,,,,,,,,,,,,,,,,,,,,,,,,,,,,,,,,,,,,,,,,,,
,,,,,,5fd3789cee06d705f5e783cc,62c53c488fc9959af869a542,2022-07-06_09h40.47.677,Colour_Asymmetry_Pilot,2022.1.3,Win32,60.46680372,62c50e9c1127f2cd403a315f,0,121,121,9,1,onethree,,,,,,,,,,,,,,,,,,,,,,,,,,,,,,,,,,,,,,,,,,,,,,,,,,,,,,,,,,,,,,,,,,,,,,,,,,,,,,,,,,,,,,,,,,,,,,,,,,,,,,,,,,,,,,,,,,,,,,,,,,,,,,,,,,,,,,,,,,,,,,,,,,,,,,,,,,,,,
,,,,,,5fd3789cee06d705f5e783cc,62c53c488fc9959af869a542,2022-07-06_09h40.47.677,Colour_Asymmetry_Pilot,2022.1.3,Win32,60.46680372,62c50e9c1127f2cd403a315f,0,122,122,150,1,fourtwo,,,,,,,,,,,,,,,,,,,,,,,,,,,,,,,,,,,,,,,,,,,,,,,,,,,,,,,,,,,,,,,,,,,,,,,,,,,,,,,,,,,,,,,,,,,,,,,,,,,,,,,,,,,,,,,,,,,,,,,,,,,,,,,,,,,,,,,,,,,,,,,,,,,,,,,,,,,,,
,,,,,,5fd3789cee06d705f5e783cc,62c53c488fc9959af869a542,2022-07-06_09h40.47.677,Colour_Asymmetry_Pilot,2022.1.3,Win32,60.46680372,62c50e9c1127f2cd403a315f,0,123,123,69,1,threefour,,,,,,,,,,,,,,,,,,,,,,,,,,,,,,,,,,,,,,,,,,,,,,,,,,,,,,,,,,,,,,,,,,,,,,,,,,,,,,,,,,,,,,,,,,,,,,,,,,,,,,,,,,,,,,,,,,,,,,,,,,,,,,,,,,,,,,,,,,,,,,,,,,,,,,,,,,,,,
,,,,,,5fd3789cee06d705f5e783cc,62c53c488fc9959af869a542,2022-07-06_09h40.47.677,Colour_Asymmetry_Pilot,2022.1.3,Win32,60.46680372,62c50e9c1127f2cd403a315f,0,124,124,53,1,threefour,,,,,,,,,,,,,,,,,,,,,,,,,,,,,,,,,,,,,,,,,,,,,,,,,,,,,,,,,,,,,,,,,,,,,,,,,,,,,,,,,,,,,,,,,,,,,,,,,,,,,,,,,,,,,,,,,,,,,,,,,,,,,,,,,,,,,,,,,,,,,,,,,,,,,,,,,,,,,
,,,,,,5fd3789cee06d705f5e783cc,62c53c488fc9959af869a542,2022-07-06_09h40.47.677,Colour_Asymmetry_Pilot,2022.1.3,Win32,60.46680372,62c50e9c1127f2cd403a315f,0,125,125,34,1,twoone,,,,,,,,,,,,,,,,,,,,,,,,,,,,,,,,,,,,,,,,,,,,,,,,,,,,,,,,,,,,,,,,,,,,,,,,,,,,,,,,,,,,,,,,,,,,,,,,,,,,,,,,,,,,,,,,,,,,,,,,,,,,,,,,,,,,,,,,,,,,,,,,,,,,,,,,,,,,,
,,,,,,5fd3789cee06d705f5e783cc,62c53c488fc9959af869a542,2022-07-06_09h40.47.677,Colour_Asymmetry_Pilot,2022.1.3,Win32,60.46680372,62c50e9c1127f2cd403a315f,0,126,126,54,1,fourtwo,,,,,,,,,,,,,,,,,,,,,,,,,,,,,,,,,,,,,,,,,,,,,,,,,,,,,,,,,,,,,,,,,,,,,,,,,,,,,,,,,,,,,,,,,,,,,,,,,,,,,,,,,,,,,,,,,,,,,,,,,,,,,,,,,,,,,,,,,,,,,,,,,,,,,,,,,,,,,
,,,,,,5fd3789cee06d705f5e783cc,62c53c488fc9959af869a542,2022-07-06_09h40.47.677,Colour_Asymmetry_Pilot,2022.1.3,Win32,60.46680372,62c50e9c1127f2cd403a315f,0,127,127,15,1,fourthree,,,,,,,,,,,,,,,,,,,,,,,,,,,,,,,,,,,,,,,,,,,,,,,,,,,,,,,,,,,,,,,,,,,,,,,,,,,,,,,,,,,,,,,,,,,,,,,,,,,,,,,,,,,,,,,,,,,,,,,,,,,,,,,,,,,,,,,,,,,,,,,,,,,,,,,,,,,,,
,,,,,,5fd3789cee06d705f5e783cc,62c53c488fc9959af869a542,2022-07-06_09h40.47.677,Colour_Asymmetry_Pilot,2022.1.3,Win32,60.46680372,62c50e9c1127f2cd403a315f,0,128,128,87,1,fourthree,,,,,,,,,,,,,,,,,,,,,,,,,,,,,,,,,,,,,,,,,,,,,,,,,,,,,,,,,,,,,,,,,,,,,,,,,,,,,,,,,,,,,,,,,,,,,,,,,,,,,,,,,,,,,,,,,,,,,,,,,,,,,,,,,,,,,,,,,,,,,,,,,,,,,,,,,,,,,
,,,,,,5fd3789cee06d705f5e783cc,62c53c488fc9959af869a542,2022-07-06_09h40.47.677,Colour_Asymmetry_Pilot,2022.1.3,Win32,60.46680372,62c50e9c1127f2cd403a315f,0,129,129,113,1,onethree,,,,,,,,,,,,,,,,,,,,,,,,,,,,,,,,,,,,,,,,,,,,,,,,,,,,,,,,,,,,,,,,,,,,,,,,,,,,,,,,,,,,,,,,,,,,,,,,,,,,,,,,,,,,,,,,,,,,,,,,,,,,,,,,,,,,,,,,,,,,,,,,,,,,,,,,,,,,,
,,,,,,5fd3789cee06d705f5e783cc,62c53c488fc9959af869a542,2022-07-06_09h40.47.677,Colour_Asymmetry_Pilot,2022.1.3,Win32,60.46680372,62c50e9c1127f2cd403a315f,0,130,130,46,1,fourtwo,,,,,,,,,,,,,,,,,,,,,,,,,,,,,,,,,,,,,,,,,,,,,,,,,,,,,,,,,,,,,,,,,,,,,,,,,,,,,,,,,,,,,,,,,,,,,,,,,,,,,,,,,,,,,,,,,,,,,,,,,,,,,,,,,,,,,,,,,,,,,,,,,,,,,,,,,,,,,
,,,,,,5fd3789cee06d705f5e783cc,62c53c488fc9959af869a542,2022-07-06_09h40.47.677,Colour_Asymmetry_Pilot,2022.1.3,Win32,60.46680372,62c50e9c1127f2cd403a315f,0,131,131,85,1,threefour,,,,,,,,,,,,,,,,,,,,,,,,,,,,,,,,,,,,,,,,,,,,,,,,,,,,,,,,,,,,,,,,,,,,,,,,,,,,,,,,,,,,,,,,,,,,,,,,,,,,,,,,,,,,,,,,,,,,,,,,,,,,,,,,,,,,,,,,,,,,,,,,,,,,,,,,,,,,,
,,,,,,5fd3789cee06d705f5e783cc,62c53c488fc9959af869a542,2022-07-06_09h40.47.677,Colour_Asymmetry_Pilot,2022.1.3,Win32,60.46680372,62c50e9c1127f2cd403a315f,0,132,132,105,1,onethree,,,,,,,,,,,,,,,,,,,,,,,,,,,,,,,,,,,,,,,,,,,,,,,,,,,,,,,,,,,,,,,,,,,,,,,,,,,,,,,,,,,,,,,,,,,,,,,,,,,,,,,,,,,,,,,,,,,,,,,,,,,,,,,,,,,,,,,,,,,,,,,,,,,,,,,,,,,,,
,,,,,,5fd3789cee06d705f5e783cc,62c53c488fc9959af869a542,2022-07-06_09h40.47.677,Colour_Asymmetry_Pilot,2022.1.3,Win32,60.46680372,62c50e9c1127f2cd403a315f,0,133,133,20,1,threeone,,,,,,,,,,,,,,,,,,,,,,,,,,,,,,,,,,,,,,,,,,,,,,,,,,,,,,,,,,,,,,,,,,,,,,,,,,,,,,,,,,,,,,,,,,,,,,,,,,,,,,,,,,,,,,,,,,,,,,,,,,,,,,,,,,,,,,,,,,,,,,,,,,,,,,,,,,,,,
,,,,,,5fd3789cee06d705f5e783cc,62c53c488fc9959af869a542,2022-07-06_09h40.47.677,Colour_Asymmetry_Pilot,2022.1.3,Win32,60.46680372,62c50e9c1127f2cd403a315f,0,134,134,5,1,threefour,,,,,,,,,,,,,,,,,,,,,,,,,,,,,,,,,,,,,,,,,,,,,,,,,,,,,,,,,,,,,,,,,,,,,,,,,,,,,,,,,,,,,,,,,,,,,,,,,,,,,,,,,,,,,,,,,,,,,,,,,,,,,,,,,,,,,,,,,,,,,,,,,,,,,,,,,,,,,
,,,,,,5fd3789cee06d705f5e783cc,62c53c488fc9959af869a542,2022-07-06_09h40.47.677,Colour_Asymmetry_Pilot,2022.1.3,Win32,60.46680372,62c50e9c1127f2cd403a315f,0,135,135,151,1,fourthree,,,,,,,,,,,,,,,,,,,,,,,,,,,,,,,,,,,,,,,,,,,,,,,,,,,,,,,,,,,,,,,,,,,,,,,,,,,,,,,,,,,,,,,,,,,,,,,,,,,,,,,,,,,,,,,,,,,,,,,,,,,,,,,,,,,,,,,,,,,,,,,,,,,,,,,,,,,,,
,,,,,,5fd3789cee06d705f5e783cc,62c53c488fc9959af869a542,2022-07-06_09h40.47.677,Colour_Asymmetry_Pilot,2022.1.3,Win32,60.46680372,62c50e9c1127f2cd403a315f,0,136,136,146,1,twoone,,,,,,,,,,,,,,,,,,,,,,,,,,,,,,,,,,,,,,,,,,,,,,,,,,,,,,,,,,,,,,,,,,,,,,,,,,,,,,,,,,,,,,,,,,,,,,,,,,,,,,,,,,,,,,,,,,,,,,,,,,,,,,,,,,,,,,,,,,,,,,,,,,,,,,,,,,,,,
,,,,,,5fd3789cee06d705f5e783cc,62c53c488fc9959af869a542,2022-07-06_09h40.47.677,Colour_Asymmetry_Pilot,2022.1.3,Win32,60.46680372,62c50e9c1127f2cd403a315f,0,137,137,30,1,fourtwo,,,,,,,,,,,,,,,,,,,,,,,,,,,,,,,,,,,,,,,,,,,,,,,,,,,,,,,,,,,,,,,,,,,,,,,,,,,,,,,,,,,,,,,,,,,,,,,,,,,,,,,,,,,,,,,,,,,,,,,,,,,,,,,,,,,,,,,,,,,,,,,,,,,,,,,,,,,,,
,,,,,,5fd3789cee06d705f5e783cc,62c53c488fc9959af869a542,2022-07-06_09h40.47.677,Colour_Asymmetry_Pilot,2022.1.3,Win32,60.46680372,62c50e9c1127f2cd403a315f,0,138,138,66,1,twoone,,,,,,,,,,,,,,,,,,,,,,,,,,,,,,,,,,,,,,,,,,,,,,,,,,,,,,,,,,,,,,,,,,,,,,,,,,,,,,,,,,,,,,,,,,,,,,,,,,,,,,,,,,,,,,,,,,,,,,,,,,,,,,,,,,,,,,,,,,,,,,,,,,,,,,,,,,,,,
,,,,,,5fd3789cee06d705f5e783cc,62c53c488fc9959af869a542,2022-07-06_09h40.47.677,Colour_Asymmetry_Pilot,2022.1.3,Win32,60.46680372,62c50e9c1127f2cd403a315f,0,139,139,138,1,twoone,,,,,,,,,,,,,,,,,,,,,,,,,,,,,,,,,,,,,,,,,,,,,,,,,,,,,,,,,,,,,,,,,,,,,,,,,,,,,,,,,,,,,,,,,,,,,,,,,,,,,,,,,,,,,,,,,,,,,,,,,,,,,,,,,,,,,,,,,,,,,,,,,,,,,,,,,,,,,
,,,,,,5fd3789cee06d705f5e783cc,62c53c488fc9959af869a542,2022-07-06_09h40.47.677,Colour_Asymmetry_Pilot,2022.1.3,Win32,60.46680372,62c50e9c1127f2cd403a315f,0,140,140,18,1,twoone,,,,,,,,,,,,,,,,,,,,,,,,,,,,,,,,,,,,,,,,,,,,,,,,,,,,,,,,,,,,,,,,,,,,,,,,,,,,,,,,,,,,,,,,,,,,,,,,,,,,,,,,,,,,,,,,,,,,,,,,,,,,,,,,,,,,,,,,,,,,,,,,,,,,,,,,,,,,,
,,,,,,5fd3789cee06d705f5e783cc,62c53c488fc9959af869a542,2022-07-06_09h40.47.677,Colour_Asymmetry_Pilot,2022.1.3,Win32,60.46680372,62c50e9c1127f2cd403a315f,0,141,141,125,1,threefour,,,,,,,,,,,,,,,,,,,,,,,,,,,,,,,,,,,,,,,,,,,,,,,,,,,,,,,,,,,,,,,,,,,,,,,,,,,,,,,,,,,,,,,,,,,,,,,,,,,,,,,,,,,,,,,,,,,,,,,,,,,,,,,,,,,,,,,,,,,,,,,,,,,,,,,,,,,,,
,,,,,,5fd3789cee06d705f5e783cc,62c53c488fc9959af869a542,2022-07-06_09h40.47.677,Colour_Asymmetry_Pilot,2022.1.3,Win32,60.46680372,62c50e9c1127f2cd403a315f,0,142,142,147,1,twofour,,,,,,,,,,,,,,,,,,,,,,,,,,,,,,,,,,,,,,,,,,,,,,,,,,,,,,,,,,,,,,,,,,,,,,,,,,,,,,,,,,,,,,,,,,,,,,,,,,,,,,,,,,,,,,,,,,,,,,,,,,,,,,,,,,,,,,,,,,,,,,,,,,,,,,,,,,,,,
,,,,,,5fd3789cee06d705f5e783cc,62c53c488fc9959af869a542,2022-07-06_09h40.47.677,Colour_Asymmetry_Pilot,2022.1.3,Win32,60.46680372,62c50e9c1127f2cd403a315f,0,143,143,106,1,twoone,,,,,,,,,,,,,,,,,,,,,,,,,,,,,,,,,,,,,,,,,,,,,,,,,,,,,,,,,,,,,,,,,,,,,,,,,,,,,,,,,,,,,,,,,,,,,,,,,,,,,,,,,,,,,,,,,,,,,,,,,,,,,,,,,,,,,,,,,,,,,,,,,,,,,,,,,,,,,
,,,,,,5fd3789cee06d705f5e783cc,62c53c488fc9959af869a542,2022-07-06_09h40.47.677,Colour_Asymmetry_Pilot,2022.1.3,Win32,60.46680372,62c50e9c1127f2cd403a315f,0,144,144,149,1,threefour,,,,,,,,,,,,,,,,,,,,,,,,,,,,,,,,,,,,,,,,,,,,,,,,,,,,,,,,,,,,,,,,,,,,,,,,,,,,,,,,,,,,,,,,,,,,,,,,,,,,,,,,,,,,,,,,,,,,,,,,,,,,,,,,,,,,,,,,,,,,,,,,,,,,,,,,,,,,,
,,,,,,5fd3789cee06d705f5e783cc,62c53c488fc9959af869a542,2022-07-06_09h40.47.677,Colour_Asymmetry_Pilot,2022.1.3,Win32,60.46680372,62c50e9c1127f2cd403a315f,0,145,145,132,1,threeone,,,,,,,,,,,,,,,,,,,,,,,,,,,,,,,,,,,,,,,,,,,,,,,,,,,,,,,,,,,,,,,,,,,,,,,,,,,,,,,,,,,,,,,,,,,,,,,,,,,,,,,,,,,,,,,,,,,,,,,,,,,,,,,,,,,,,,,,,,,,,,,,,,,,,,,,,,,,,
,,,,,,5fd3789cee06d705f5e783cc,62c53c488fc9959af869a542,2022-07-06_09h40.47.677,Colour_Asymmetry_Pilot,2022.1.3,Win32,60.46680372,62c50e9c1127f2cd403a315f,0,146,146,21,1,threefour,,,,,,,,,,,,,,,,,,,,,,,,,,,,,,,,,,,,,,,,,,,,,,,,,,,,,,,,,,,,,,,,,,,,,,,,,,,,,,,,,,,,,,,,,,,,,,,,,,,,,,,,,,,,,,,,,,,,,,,,,,,,,,,,,,,,,,,,,,,,,,,,,,,,,,,,,,,,,
,,,,,,5fd3789cee06d705f5e783cc,62c53c488fc9959af869a542,2022-07-06_09h40.47.677,Colour_Asymmetry_Pilot,2022.1.3,Win32,60.46680372,62c50e9c1127f2cd403a315f,0,147,147,52,1,threeone,,,,,,,,,,,,,,,,,,,,,,,,,,,,,,,,,,,,,,,,,,,,,,,,,,,,,,,,,,,,,,,,,,,,,,,,,,,,,,,,,,,,,,,,,,,,,,,,,,,,,,,,,,,,,,,,,,,,,,,,,,,,,,,,,,,,,,,,,,,,,,,,,,,,,,,,,,,,,
,,,,,,5fd3789cee06d705f5e783cc,62c53c488fc9959af869a542,2022-07-06_09h40.47.677,Colour_Asymmetry_Pilot,2022.1.3,Win32,60.46680372,62c50e9c1127f2cd403a315f,0,148,148,127,1,fourthree,,,,,,,,,,,,,,,,,,,,,,,,,,,,,,,,,,,,,,,,,,,,,,,,,,,,,,,,,,,,,,,,,,,,,,,,,,,,,,,,,,,,,,,,,,,,,,,,,,,,,,,,,,,,,,,,,,,,,,,,,,,,,,,,,,,,,,,,,,,,,,,,,,,,,,,,,,,,,
,,,,,,5fd3789cee06d705f5e783cc,62c53c488fc9959af869a542,2022-07-06_09h40.47.677,Colour_Asymmetry_Pilot,2022.1.3,Win32,60.46680372,62c50e9c1127f2cd403a315f,0,149,149,70,1,fourtwo,,,,,,,,,,,,,,,,,,,,,,,,,,,,,,,,,,,,,,,,,,,,,,,,,,,,,,,,,,,,,,,,,,,,,,,,,,,,,,,,,,,,,,,,,,,,,,,,,,,,,,,,,,,,,,,,,,,,,,,,,,,,,,,,,,,,,,,,,,,,,,,,,,,,,,,,,,,,,
,,,,,,5fd3789cee06d705f5e783cc,62c53c488fc9959af869a542,2022-07-06_09h40.47.677,Colour_Asymmetry_Pilot,2022.1.3,Win32,60.46680372,62c50e9c1127f2cd403a315f,0,150,150,111,1,fourthree,,,,,,,,,,,,,,,,,,,,,,,,,,,,,,,,,,,,,,,,,,,,,,,,,,,,,,,,,,,,,,,,,,,,,,,,,,,,,,,,,,,,,,,,,,,,,,,,,,,,,,,,,,,,,,,,,,,,,,,,,,,,,,,,,,,,,,,,,,,,,,,,,,,,,,,,,,,,,
,,,,,,5fd3789cee06d705f5e783cc,62c53c488fc9959af869a542,2022-07-06_09h40.47.677,Colour_Asymmetry_Pilot,2022.1.3,Win32,60.46680372,62c50e9c1127f2cd403a315f,0,151,151,89,1,onethree,,,,,,,,,,,,,,,,,,,,,,,,,,,,,,,,,,,,,,,,,,,,,,,,,,,,,,,,,,,,,,,,,,,,,,,,,,,,,,,,,,,,,,,,,,,,,,,,,,,,,,,,,,,,,,,,,,,,,,,,,,,,,,,,,,,,,,,,,,,,,,,,,,,,,,,,,,,,,
,,,,,,5fd3789cee06d705f5e783cc,62c53c488fc9959af869a542,2022-07-06_09h40.47.677,Colour_Asymmetry_Pilot,2022.1.3,Win32,60.46680372,62c50e9c1127f2cd403a315f,0,152,152,67,1,twofour,,,,,,,,,,,,,,,,,,,,,,,,,,,,,,,,,,,,,,,,,,,,,,,,,,,,,,,,,,,,,,,,,,,,,,,,,,,,,,,,,,,,,,,,,,,,,,,,,,,,,,,,,,,,,,,,,,,,,,,,,,,,,,,,,,,,,,,,,,,,,,,,,,,,,,,,,,,,,
,,,,,,5fd3789cee06d705f5e783cc,62c53c488fc9959af869a542,2022-07-06_09h40.47.677,Colour_Asymmetry_Pilot,2022.1.3,Win32,60.46680372,62c50e9c1127f2cd403a315f,0,153,153,64,1,onetwo,,,,,,,,,,,,,,,,,,,,,,,,,,,,,,,,,,,,,,,,,,,,,,,,,,,,,,,,,,,,,,,,,,,,,,,,,,,,,,,,,,,,,,,,,,,,,,,,,,,,,,,,,,,,,,,,,,,,,,,,,,,,,,,,,,,,,,,,,,,,,,,,,,,,,,,,,,,,,
,,,,,,5fd3789cee06d705f5e783cc,62c53c488fc9959af869a542,2022-07-06_09h40.47.677,Colour_Asymmetry_Pilot,2022.1.3,Win32,60.46680372,62c50e9c1127f2cd403a315f,0,154,154,45,1,threefour,,,,,,,,,,,,,,,,,,,,,,,,,,,,,,,,,,,,,,,,,,,,,,,,,,,,,,,,,,,,,,,,,,,,,,,,,,,,,,,,,,,,,,,,,,,,,,,,,,,,,,,,,,,,,,,,,,,,,,,,,,,,,,,,,,,,,,,,,,,,,,,,,,,,,,,,,,,,,
,,,,,,5fd3789cee06d705f5e783cc,62c53c488fc9959af869a542,2022-07-06_09h40.47.677,Colour_Asymmetry_Pilot,2022.1.3,Win32,60.46680372,62c50e9c1127f2cd403a315f,0,155,155,39,1,fourthree,,,,,,,,,,,,,,,,,,,,,,,,,,,,,,,,,,,,,,,,,,,,,,,,,,,,,,,,,,,,,,,,,,,,,,,,,,,,,,,,,,,,,,,,,,,,,,,,,,,,,,,,,,,,,,,,,,,,,,,,,,,,,,,,,,,,,,,,,,,,,,,,,,,,,,,,,,,,,
,,,,,,5fd3789cee06d705f5e783cc,62c53c488fc9959af869a542,2022-07-06_09h40.47.677,Colour_Asymmetry_Pilot,2022.1.3,Win32,60.46680372,62c50e9c1127f2cd403a315f,0,156,156,99,1,twofour,,,,,,,,,,,,,,,,,,,,,,,,,,,,,,,,,,,,,,,,,,,,,,,,,,,,,,,,,,,,,,,,,,,,,,,,,,,,,,,,,,,,,,,,,,,,,,,,,,,,,,,,,,,,,,,,,,,,,,,,,,,,,,,,,,,,,,,,,,,,,,,,,,,,,,,,,,,,,
,,,,,,5fd3789cee06d705f5e783cc,62c53c488fc9959af869a542,2022-07-06_09h40.47.677,Colour_Asymmetry_Pilot,2022.1.3,Win32,60.46680372,62c50e9c1127f2cd403a315f,0,157,157,77,1,threefour,,,,,,,,,,,,,,,,,,,,,,,,,,,,,,,,,,,,,,,,,,,,,,,,,,,,,,,,,,,,,,,,,,,,,,,,,,,,,,,,,,,,,,,,,,,,,,,,,,,,,,,,,,,,,,,,,,,,,,,,,,,,,,,,,,,,,,,,,,,,,,,,,,,,,,,,,,,,,
,,,,,,5fd3789cee06d705f5e783cc,62c53c488fc9959af869a542,2022-07-06_09h40.47.677,Colour_Asymmetry_Pilot,2022.1.3,Win32,60.46680372,62c50e9c1127f2cd403a315f,0,158,158,22,1,fourtwo,,,,,,,,,,,,,,,,,,,,,,,,,,,,,,,,,,,,,,,,,,,,,,,,,,,,,,,,,,,,,,,,,,,,,,,,,,,,,,,,,,,,,,,,,,,,,,,,,,,,,,,,,,,,,,,,,,,,,,,,,,,,,,,,,,,,,,,,,,,,,,,,,,,,,,,,,,,,,
,,,,,,5fd3789cee06d705f5e783cc,62c53c488fc9959af869a542,2022-07-06_09h40.47.677,Colour_Asymmetry_Pilot,2022.1.3,Win32,60.46680372,62c50e9c1127f2cd403a315f,0,159,159,79,1,fourthree,,,,,,,,,,,,,,,,,,,,,,,,,,,,,,,,,,,,,,,,,,,,,,,,,,,,,,,,,,,,,,,,,,,,,,,,,,,,,,,,,,,,,,,,,,,,,,,,,,,,,,,,,,,,,,,,,,,,,,,,,,,,,,,,,,,,,,,,,,,,,,,,,,,,,,,,,,,,,
,,,,,,5fd3789cee06d705f5e783cc,62c53c488fc9959af869a542,2022-07-06_09h40.47.677,Colour_Asymmetry_Pilot,2022.1.3,Win32,60.46680372,62c50e9c1127f2cd403a315f,0,160,160,48,1,onetwo,,,,,,,,,,,,,,,,,,,,,,,,,,,,,,,,,,,,,,,,,,,,,,,,,,,,,,,,,,,,,,,,,,,,,,,,,,,,,,,,,,,,,,,,,,,,,,,,,,,,,,,,,,,,,,,,,,,,,,,,,,,,,,,,,,,,,,,,,,,,,,,,,,,,,,,,,,,,,
,,,,,,5fd3789cee06d705f5e783cc,62c53c488fc9959af869a542,2022-07-06_09h40.47.677,Colour_Asymmetry_Pilot,2022.1.3,Win32,60.46680372,62c50e9c1127f2cd403a315f,0,161,161,55,1,fourthree,,,,,,,,,,,,,,,,,,,,,,,,,,,,,,,,,,,,,,,,,,,,,,,,,,,,,,,,,,,,,,,,,,,,,,,,,,,,,,,,,,,,,,,,,,,,,,,,,,,,,,,,,,,,,,,,,,,,,,,,,,,,,,,,,,,,,,,,,,,,,,,,,,,,,,,,,,,,,
,,,,,,5fd3789cee06d705f5e783cc,62c53c488fc9959af869a542,2022-07-06_09h40.47.677,Colour_Asymmetry_Pilot,2022.1.3,Win32,60.46680372,62c50e9c1127f2cd403a315f,,,,,,,space,7.0215,space,35.4118,space,58.8931,space,15.7683,space,16.1915,space,6.3393,"[0.5528,0.7409999999999999,-0.71]",twoone,"[0.04299999999999993,0.16060000000000008,-0.6628000000000001]",-4,18.5028,-35,102,1,0,0,response7disk_5,9,-5,1,0,0,rectangle_8,9,-5,1,0,0,2,9,-5,1,0,0,0,0,0,0,1,,,,,,,,,,,,,,,,,,,,,,,,,,,,,,,,,,,,,,,,,,,,,,,,,,,,,,,,,,,,,,,,,,,,,,,,,,,,,,,,,,,,,,,,,,,,,,,,,,,,,,,,,,,,,,,,
,,,,,,5fd3789cee06d705f5e783cc,62c53c488fc9959af869a542,2022-07-06_09h40.47.677,Colour_Asymmetry_Pilot,2022.1.3,Win32,60.46680372,62c50e9c1127f2cd403a315f,,,,,,,,,,,,,,,,,,,"[-0.30200000000000005,0.14500000000000002,0.2784]",twoone,"[0.12939999999999996,-0.2864,0.3253999999999999]",-4,4.5855,-47,93,1,0,0,response7disk_5,-2,-5,1,0,0,rectangle_8,-2,-5,1,0,0,2,-2,-5,1,0,0,1,0,1,0,1,,,,,,,,,,,,,,,,,,,,,,,,,,,,,,,,,,,,,,,,,,,,,,,,,,,,,,,,,,,,,,,,,,,,,,,,,,,,,,,,,,,,,,,,,,,,,,,,,,,,,,,,,,,,,,,,
,,,,,,5fd3789cee06d705f5e783cc,62c53c488fc9959af869a542,2022-07-06_09h40.47.677,Colour_Asymmetry_Pilot,2022.1.3,Win32,60.46680372,62c50e9c1127f2cd403a315f,,,,,,,,,,,,,,,,,,,"[-0.10599999999999998,-0.15300000000000002,0.15280000000000005]",fourtwo,"[0.04299999999999993,0.16060000000000008,-0.6628000000000001]",-4,5.4702,-48,80,1,0,0,response7disk_5,2,6,1,0,0,rectangle_8,2,6,1,0,0,2,2,6,1,0,0,2,0,2,0,1,,,,,,,,,,,,,,,,,,,,,,,,,,,,,,,,,,,,,,,,,,,,,,,,,,,,,,,,,,,,,,,,,,,,,,,,,,,,,,,,,,,,,,,,,,,,,,,,,,,,,,,,,,,,,,,,
,,,,,,5fd3789cee06d705f5e783cc,62c53c488fc9959af869a542,2022-07-06_09h40.47.677,Colour_Asymmetry_Pilot,2022.1.3,Win32,60.46680372,62c50e9c1127f2cd403a315f,,,,,,,,,,,,,,,,,,,"[-0.050999999999999934,-0.6706000000000001,-0.804]",fourtwo,"[0.7802,-0.23140000000000005,-0.20799999999999996]",-4,3.5019,-35,86,1,0,0,response7disk_5,-3,-2,1,0,0,rectangle_8,79,-31,1,0,0,2,0,9,1,0,0,3,0,3,0,1,response3disk_7,5,rectangle_4,,,,,,,,,,,,,,,,,,,,,,,,,,,,,,,,,,,,,,,,,,,,,,,,,,,,,,,,,,,,,,,,,,,,,,,,,,,,,,,,,,,,,,,,,,,,,,,,,,,,,,,,,,,,,
,,,,,,5fd3789cee06d705f5e783cc,62c53c488fc9959af869a542,2022-07-06_09h40.47.677,Colour_Asymmetry_Pilot,2022.1.3,Win32,60.46680372,62c50e9c1127f2cd403a315f,,,,,,,,,,,,,,,,,,,"[0.5528,0.7409999999999999,-0.71]",onethree,"[-0.5452,-0.608,0.2470000000000001]",-4,3.3684,-54,107,1,0,0,response7disk_5,-9,12,1,0,0,rectangle_8,-9,12,1,0,0,2,-9,12,1,0,0,4,0,4,0,1,,,,,,,,,,,,,,,,,,,,,,,,,,,,,,,,,,,,,,,,,,,,,,,,,,,,,,,,,,,,,,,,,,,,,,,,,,,,,,,,,,,,,,,,,,,,,,,,,,,,,,,,,,,,,,,,
,,,,,,5fd3789cee06d705f5e783cc,62c53c488fc9959af869a542,2022-07-06_09h40.47.677,Colour_Asymmetry_Pilot,2022.1.3,Win32,60.46680372,62c50e9c1127f2cd403a315f,,,,,,,,,,,,,,,,,,,"[0.19199999999999995,0.18419999999999992,0.5136000000000001]",threefour,"[-0.34920000000000007,-0.702,-0.5216]",4,3.9028,41,84,1,0,0,response1disk_5,0,10,1,0,0,rectangle_8,85,-46,1,0,0,2,-8,9,1,0,0,5,0,5,0,1,response3disk_7,5,rectangle_4,,,,,,,,,,,,,,,,,,,,,,,,,,,,,,,,,,,,,,,,,,,,,,,,,,,,,,,,,,,,,,,,,,,,,,,,,,,,,,,,,,,,,,,,,,,,,,,,,,,,,,,,,,,,,
,,,,,,5fd3789cee06d705f5e783cc,62c53c488fc9959af869a542,2022-07-06_09h40.47.677,Colour_Asymmetry_Pilot,2022.1.3,Win32,60.46680372,62c50e9c1127f2cd403a315f,,,,,,,,,,,,,,,,,,,"[0.18419999999999992,-0.4276,-0.404]",onethree,"[1,0.12939999999999996,-1]",-4,1.2353,-26,71,1,0,0,response7disk_5,-9,12,1,0,0,rectangle_8,-9,12,1,0,0,2,-9,12,1,0,0,6,0,6,0,1,,,,,,,,,,,,,,,,,,,,,,,,,,,,,,,,,,,,,,,,,,,,,,,,,,,,,,,,,,,,,,,,,,,,,,,,,,,,,,,,,,,,,,,,,,,,,,,,,,,,,,,,,,,,,,,,
,,,,,,5fd3789cee06d705f5e783cc,62c53c488fc9959af869a542,2022-07-06_09h40.47.677,Colour_Asymmetry_Pilot,2022.1.3,Win32,60.46680372,62c50e9c1127f2cd403a315f,,,,,,,,,,,,,,,,,,,,onethree,,-4,1.8682,,,,,,,,,,,,,,,,,,,,,,,,,,,,,,,,space,5.1944,"[-0.4276,0.0038000000000000256,-0.3256]","[0.2862,0.7802,0.3568]",-48,93,1,0,0,response7disk,8,10,1,0,0,rectangle,8,10,1,0,0,,2,0.0017,0,8,10,1,0,0,0,0,0,61,1,61,first,,,,,,,,,,,,,,,,,,,,,,,,,,,,,,,,,,,,,,,,,,,,,,,,,,,,,,,,,,,,,,,,,,,,,,,,
,,,,,,5fd3789cee06d705f5e783cc,62c53c488fc9959af869a542,2022-07-06_09h40.47.677,Colour_Asymmetry_Pilot,2022.1.3,Win32,60.46680372,62c50e9c1127f2cd403a315f,,,,,,,,,,,,,,,,,,,,onethree,,-4,1.1841,,,,,,,,,,,,,,,,,,,,,,,,,,,,,,,,,,"[0.9686000000000001,0.3802000000000001,0.19999999999999996]","[0.9763999999999999,0.8588,-0.05900000000000005]",-37,86,1,0,0,response7disk,2,3,1,0,0,rectangle,2,3,1,0,0,,1,0.0013,0,2,3,1,0,0,0,1,1,130,1,49,second,,,,,,,,,,,,,,,,,,,,,,,,,,,,,,,,,,,,,,,,,,,,,,,,,,,,,,,,,,,,,,,,,,,,,,,,
,,,,,,5fd3789cee06d705f5e783cc,62c53c488fc9959af869a542,2022-07-06_09h40.47.677,Colour_Asymmetry_Pilot,2022.1.3,Win32,60.46680372,62c50e9c1127f2cd403a315f,,,,,,,,,,,,,,,,,,,,onethree,,-4,1.3184,,,,,,,,,,,,,,,,,,,,,,,,,,,,,,,,,,"[-0.6942,-0.7648,-0.12959999999999994]","[0.23120000000000007,-0.7726,-0.34120000000000006]",-40,74,1,0,0,response7disk,-7,11,1,0,0,rectangle,-7,11,1,0,0,,1,0.0003,0,-7,11,1,0,0,0,2,2,22,1,22,first,,,,,,,,,,,,,,,,,,,,,,,,,,,,,,,,,,,,,,,,,,,,,,,,,,,,,,,,,,,,,,,,,,,,,,,,
,,,,,,5fd3789cee06d705f5e783cc,62c53c488fc9959af869a542,2022-07-06_09h40.47.677,Colour_Asymmetry_Pilot,2022.1.3,Win32,60.46680372,62c50e9c1127f2cd403a315f,,,,,,,,,,,,,,,,,,,,threefour,,-4,1.7182,,,,,,,,,,,,,,,,,,,,,,,,,,,,,,,,,,"[0.18419999999999992,-0.4276,-0.404]","[-0.4276,0.0038000000000000256,-0.3256]",-33,78,1,0,0,response7disk,-2,3,1,0,0,rectangle,-2,3,1,0,0,,3,0.0011,0,-2,3,1,0,0,0,3,3,153,1,72,second,,,,,,,,,,,,,,,,,,,,,,,,,,,,,,,,,,,,,,,,,,,,,,,,,,,,,,,,,,,,,,,,,,,,,,,,
,,,,,,5fd3789cee06d705f5e783cc,62c53c488fc9959af869a542,2022-07-06_09h40.47.677,Colour_Asymmetry_Pilot,2022.1.3,Win32,60.46680372,62c50e9c1127f2cd403a315f,,,,,,,,,,,,,,,,,,,,onethree,,4,1.3008,,,,,,,,,,,,,,,,,,,,,,,,,,,,,,,,,,"[-0.4276,0.0038000000000000256,-0.3256]","[-0.8198,-0.5138,-0.7492000000000001]",35,82,1,0,0,response1disk,11,0,1,0,0,rectangle,11,0,1,0,0,,3,0.0003,0,11,0,1,0,0,0,4,4,80,1,80,first,,,,,,,,,,,,,,,,,,,,,,,,,,,,,,,,,,,,,,,,,,,,,,,,,,,,,,,,,,,,,,,,,,,,,,,,
,,,,,,5fd3789cee06d705f5e783cc,62c53c488fc9959af869a542,2022-07-06_09h40.47.677,Colour_Asymmetry_Pilot,2022.1.3,Win32,60.46680372,62c50e9c1127f2cd403a315f,,,,,,,,,,,,,,,,,,,,threeone,,-4,1.0673,,,,,,,,,,,,,,,,,,,,,,,,,,,,,,,,,,"[-0.09019999999999995,0.44300000000000006,0.5371999999999999]","[0.30180000000000007,-0.7884,-0.9844]",-63,101,1,0,0,response7disk,13,11,1,0,0,rectangle,13,11,1,0,0,,2,0.0011,0,13,11,1,0,0,0,5,5,144,1,63,second,,,,,,,,,,,,,,,,,,,,,,,,,,,,,,,,,,,,,,,,,,,,,,,,,,,,,,,,,,,,,,,,,,,,,,,,
,,,,,,5fd3789cee06d705f5e783cc,62c53c488fc9959af869a542,2022-07-06_09h40.47.677,Colour_Asymmetry_Pilot,2022.1.3,Win32,60.46680372,62c50e9c1127f2cd403a315f,,,,,,,,,,,,,,,,,,,,twofour,,-4,1.035,,,,,,,,,,,,,,,,,,,,,,,,,,,,,,,,,,"[-0.48240000000000005,0.3175999999999999,0.2156]","[0.7176,-0.906,-0.6864]",-47,107,1,0,0,response7disk,4,-3,1,0,0,rectangle,4,-3,1,0,0,,2,0.0005,0,4,-3,1,0,0,0,6,6,151,1,70,second,,,,,,,,,,,,,,,,,,,,,,,,,,,,,,,,,,,,,,,,,,,,,,,,,,,,,,,,,,,,,,,,,,,,,,,,
,,,,,,5fd3789cee06d705f5e783cc,62c53c488fc9959af869a542,2022-07-06_09h40.47.677,Colour_Asymmetry_Pilot,2022.1.3,Win32,60.46680372,62c50e9c1127f2cd403a315f,,,,,,,,,,,,,,,,,,,,threeone,,4,1.1337,,,,,,,,,,,,,,,,,,,,,,,,,,,,,,,,,,"[-0.5452,-0.608,0.2470000000000001]","[-0.6235999999999999,-0.6786,-0.08239999999999992]",31,76,1,0,0,response1disk,-7,-1,1,0,0,rectangle,-7,-1,1,0,0,,2,0.0004,0,-7,-1,1,0,0,0,7,7,17,1,17,first,,,,,,,,,,,,,,,,,,,,,,,,,,,,,,,,,,,,,,,,,,,,,,,,,,,,,,,,,,,,,,,,,,,,,,,,
,,,,,,5fd3789cee06d705f5e783cc,62c53c488fc9959af869a542,2022-07-06_09h40.47.677,Colour_Asymmetry_Pilot,2022.1.3,Win32,60.46680372,62c50e9c1127f2cd403a315f,,,,,,,,,,,,,,,,,,,,fourthree,,-4,3.4025,,,,,,,,,,,,,,,,,,,,,,,,,,,,,,,,,,"[-0.48240000000000005,0.3175999999999999,0.2156]","[-0.07459999999999989,0.12139999999999995,-0.9922]",-60,115,1,0,0,response7disk,-4,8,1,0,0,rectangle,-4,8,1,0,0,,2,0.0002,0,-4,8,1,0,0,0,8,8,122,1,41,second,,,,,,,,,,,,,,,,,,,,,,,,,,,,,,,,,,,,,,,,,,,,,,,,,,,,,,,,,,,,,,,,,,,,,,,,
,,,,,,5fd3789cee06d705f5e783cc,62c53c488fc9959af869a542,2022-07-06_09h40.47.677,Colour_Asymmetry_Pilot,2022.1.3,Win32,60.46680372,62c50e9c1127f2cd403a315f,,,,,,,,,,,,,,,,,,,,twoone,,-4,2.5031,,,,,,,,,,,,,,,,,,,,,,,,,,,,,,,,,,"[-0.9138,-0.5296000000000001,-0.5529999999999999]","[-0.4668,-0.8746,-0.2942]",-34,91,1,0,0,response7disk,2,-2,1,0,0,rectangle,2,-2,1,0,0,,2,0.0004,0,2,-2,1,0,0,0,9,9,62,1,62,first,,,,,,,,,,,,,,,,,,,,,,,,,,,,,,,,,,,,,,,,,,,,,,,,,,,,,,,,,,,,,,,,,,,,,,,,
,,,,,,5fd3789cee06d705f5e783cc,62c53c488fc9959af869a542,2022-07-06_09h40.47.677,Colour_Asymmetry_Pilot,2022.1.3,Win32,60.46680372,62c50e9c1127f2cd403a315f,,,,,,,,,,,,,,,,,,,,fourthree,,-4,1.5841,,,,,,,,,,,,,,,,,,,,,,,,,,,,,,,,,,"[-0.5688,-0.08239999999999992,-0.1844]","[-0.06680000000000008,-0.45100000000000007,-0.906]",-50,89,1,0,0,response7disk,6,2,1,0,0,rectangle,6,2,1,0,0,,2,0.0002,0,6,2,1,0,0,0,10,10,82,1,1,second,,,,,,,,,,,,,,,,,,,,,,,,,,,,,,,,,,,,,,,,,,,,,,,,,,,,,,,,,,,,,,,,,,,,,,,,
,,,,,,5fd3789cee06d705f5e783cc,62c53c488fc9959af869a542,2022-07-06_09h40.47.677,Colour_Asymmetry_Pilot,2022.1.3,Win32,60.46680372,62c50e9c1127f2cd403a315f,,,,,,,,,,,,,,,,,,,,onethree,,-4,1.1014,,,,,,,,,,,,,,,,,,,,,,,,,,,,,,,,,,"[0.7018,0.7802,-0.16079999999999994]","[0.9763999999999999,-0.1137999999999999,-0.6314]",-52,92,1,0,0,response7disk,4,14,1,0,0,rectangle,4,14,1,0,0,,1,0.001,0,4,14,1,0,0,0,11,11,51,1,51,first,,,,,,,,,,,,,,,,,,,,,,,,,,,,,,,,,,,,,,,,,,,,,,,,,,,,,,,,,,,,,,,,,,,,,,,,
,,,,,,5fd3789cee06d705f5e783cc,62c53c488fc9959af869a542,2022-07-06_09h40.47.677,Colour_Asymmetry_Pilot,2022.1.3,Win32,60.46680372,62c50e9c1127f2cd403a315f,,,,,,,,,,,,,,,,,,,,threeone,,-4,1.1349,,,,,,,,,,,,,,,,,,,,,,,,,,,,,,,,,,"[-0.26280000000000003,-0.2158,-0.3256]","[-0.20799999999999996,-0.655,-0.01980000000000004]",-51,89,1,0,0,response7disk,-8,5,1,0,0,rectangle,-8,5,1,0,0,,1,0.0002,0,-8,5,1,0,0,0,12,12,33,1,33,first,,,,,,,,,,,,,,,,,,,,,,,,,,,,,,,,,,,,,,,,,,,,,,,,,,,,,,,,,,,,,,,,,,,,,,,,
,,,,,,5fd3789cee06d705f5e783cc,62c53c488fc9959af869a542,2022-07-06_09h40.47.677,Colour_Asymmetry_Pilot,2022.1.3,Win32,60.46680372,62c50e9c1127f2cd403a315f,,,,,,,,,,,,,,,,,,,,onethree,,-4,1.0185,,,,,,,,,,,,,,,,,,,,,,,,,,,,,,,,,,"[0.34099999999999997,0.5841999999999998,-0.9844]","[-0.9688,-0.38039999999999996,-0.41979999999999995]",-48,98,1,0,0,response7disk,1,15,1,0,0,rectangle,1,15,1,0,0,,1,0.0007,0,1,15,1,0,0,0,13,13,108,1,27,second,,,,,,,,,,,,,,,,,,,,,,,,,,,,,,,,,,,,,,,,,,,,,,,,,,,,,,,,,,,,,,,,,,,,,,,,
,,,,,,5fd3789cee06d705f5e783cc,62c53c488fc9959af869a542,2022-07-06_09h40.47.677,Colour_Asymmetry_Pilot,2022.1.3,Win32,60.46680372,62c50e9c1127f2cd403a315f,,,,,,,,,,,,,,,,,,,,twoone,,-4,1.9855,,,,,,,,,,,,,,,,,,,,,,,,,,,,,,,,,,"[0.7018,0.7176,0.6155999999999999]","[-0.6706000000000001,-0.6157999999999999,-0.6786]",-41,87,1,0,0,response7disk,1,3,1,0,0,rectangle,1,3,1,0,0,,2,0.002,0,1,3,1,0,0,0,14,14,95,1,14,second,,,,,,,,,,,,,,,,,,,,,,,,,,,,,,,,,,,,,,,,,,,,,,,,,,,,,,,,,,,,,,,,,,,,,,,,
,,,,,,5fd3789cee06d705f5e783cc,62c53c488fc9959af869a542,2022-07-06_09h40.47.677,Colour_Asymmetry_Pilot,2022.1.3,Win32,60.46680372,62c50e9c1127f2cd403a315f,,,,,,,,,,,,,,,,,,,,twoone,,-4,1.2676,,,,,,,,,,,,,,,,,,,,,,,,,,,,,,,,,,"[0.23120000000000007,-0.7726,-0.34120000000000006]","[-0.9766,-0.6472,0.07440000000000002]",-41,78,1,0,0,response7disk,-12,-2,1,0,0,rectangle,-12,-2,1,0,0,,3,0.001,0,-12,-2,1,0,0,0,15,15,124,1,43,second,,,,,,,,,,,,,,,,,,,,,,,,,,,,,,,,,,,,,,,,,,,,,,,,,,,,,,,,,,,,,,,,,,,,,,,,
,,,,,,5fd3789cee06d705f5e783cc,62c53c488fc9959af869a542,2022-07-06_09h40.47.677,Colour_Asymmetry_Pilot,2022.1.3,Win32,60.46680372,62c50e9c1127f2cd403a315f,,,,,,,,,,,,,,,,,,,,onethree,,4,1.2509,,,,,,,,,,,,,,,,,,,,,,,,,,,,,,,,,,"[-0.10599999999999998,-0.10599999999999998,0.5841999999999998]","[-0.24719999999999998,-0.0354000000000001,0.3175999999999999]",44,79,1,0,0,response1disk,21,6,1,0,0,rectangle,21,6,1,0,0,,2,0.002,0,21,6,1,0,0,0,16,16,158,1,77,second,,,,,,,,,,,,,,,,,,,,,,,,,,,,,,,,,,,,,,,,,,,,,,,,,,,,,,,,,,,,,,,,,,,,,,,,
,,,,,,5fd3789cee06d705f5e783cc,62c53c488fc9959af869a542,2022-07-06_09h40.47.677,Colour_Asymmetry_Pilot,2022.1.3,Win32,60.46680372,62c50e9c1127f2cd403a315f,,,,,,,,,,,,,,,,,,,,threefour,,-4,1.0348,,,,,,,,,,,,,,,,,,,,,,,,,,,,,,,,,,"[0.30180000000000007,-0.7884,-0.9844]","[-0.9688,-0.38039999999999996,-0.41979999999999995]",-43,94,1,0,0,response7disk,-2,5,1,0,0,rectangle,-2,5,1,0,0,,3,0.0011,0,-2,5,1,0,0,0,17,17,111,1,30,second,,,,,,,,,,,,,,,,,,,,,,,,,,,,,,,,,,,,,,,,,,,,,,,,,,,,,,,,,,,,,,,,,,,,,,,,
