trials.thisRepN,trials.thisTrialN,trials.thisN,trials.thisIndex,trials.ran,Colourcodes,participant,session,date,expName,psychopyVersion,OS,frameRate,study_id,trials_4.thisRepN,trials_4.thisTrialN,trials_4.thisN,trials_4.thisIndex,trials_4.ran,StimulusPos,key_resp.keys,key_resp.rt,key_resp_2.keys,key_resp_2.rt,key_resp_15.keys,key_resp_15.rt,key_resp_17.keys,key_resp_17.rt,key_resp_9.keys,key_resp_9.rt,key_resp_10.keys,key_resp_10.rt,Circle1_col,Ecc,Circle2_col,similarity,response_time,mouse_5.x,mouse_5.y,mouse_5.leftButton,mouse_5.midButton,mouse_5.rightButton,mouse_5.clicked_name,mouse_10.x,mouse_10.y,mouse_10.leftButton,mouse_10.midButton,mouse_10.rightButton,mouse_10.clicked_name,mouse_7.x,mouse_7.y,mouse_7.leftButton,mouse_7.midButton,mouse_7.rightButton,catchnumberprac,mouse_6.x,mouse_6.y,mouse_6.leftButton,mouse_6.midButton,mouse_6.rightButton,duringprac.thisRepN,duringprac.thisTrialN,duringprac.thisN,duringprac.thisIndex,duringprac.ran,mouse_7.clicked_name,catchprac,mouse_6.clicked_name,key_resp_22.keys,key_resp_22.rt,Circle1_colour,Circle2_colour,mouse.x,mouse.y,mouse.leftButton,mouse.midButton,mouse.rightButton,mouse.clicked_name,mouse_2.x,mouse_2.y,mouse_2.leftButton,mouse_2.midButton,mouse_2.rightButton,mouse_2.clicked_name,mouse_3.x,mouse_3.y,mouse_3.leftButton,mouse_3.midButton,mouse_3.rightButton,catchresponse,catchnumber,response_time_catch,Catch,mouse_11.x,mouse_11.y,mouse_11.leftButton,mouse_11.midButton,mouse_11.rightButton,trials_2.thisRepN,trials_2.thisTrialN,trials_2.thisN,trials_2.thisIndex,trials_2.ran,Colourpair,Temporder,mouse_3.clicked_name,mouse_11.clicked_name,trials_3.thisRepN,trials_3.thisTrialN,trials_3.thisN,trials_3.thisIndex,trials_3.ran,key_resp_instr_Ishi.keys,key_resp_instr_Ishi.rt,Ishi_trial_keyresp.keys,Ishi_textbox.text,Ishi_mouse.x,Ishi_mouse.y,Ishi_mouse.leftButton,Ishi_mouse.midButton,Ishi_mouse.rightButton,Ishi_mouse.clicked_name,Ishi_loop.thisRepN,Ishi_loop.thisTrialN,Ishi_loop.thisN,Ishi_loop.thisIndex,Ishi_loop.ran,imageaddress,textbox.text,mouse_4.x,mouse_4.y,mouse_4.leftButton,mouse_4.midButton,mouse_4.rightButton,mouse_4.clicked_name,textbox_2.text,mouse_8.x,mouse_8.y,mouse_8.leftButton,mouse_8.midButton,mouse_8.rightButton,mouse_8.clicked_name,textbox_3.text,mouse_9.x,mouse_9.y,mouse_9.leftButton,mouse_9.midButton,mouse_9.rightButton,mouse_9.clicked_name,textbox_4.text,mouse_12.x,mouse_12.y,mouse_12.leftButton,mouse_12.midButton,mouse_12.rightButton,mouse_12.clicked_name,textbox_5.text,mouse_13.x,mouse_13.y,mouse_13.leftButton,mouse_13.midButton,mouse_13.rightButton,mouse_13.clicked_name,textbox_6.text,mouse_14.x,mouse_14.y,mouse_14.leftButton,mouse_14.midButton,mouse_14.rightButton,mouse_14.clicked_name,textbox_7.text,mouse_15.x,mouse_15.y,mouse_15.leftButton,mouse_15.midButton,mouse_15.rightButton,mouse_15.clicked_name
0,0,0,5,1,,61567f148c4094333aaa6d28,62c539b9614ceb72cf758a8b,2022-07-06_09h33.38.444,Colour_Asymmetry_Pilot,2022.1.3,Win32,60.27364234,62c50e9c1127f2cd403a315f,,,,,,,,,,,,,,,,,,,,,,,,,,,,,,,,,,,,,,,,,,,,,,,,,,,,,,,,,,,,,,,,,,,,,,,,,,,,,,,,,,,,,,,,,,,,,,,,,,,,,,,,,,,,,,,,,,,,,,,,,,,,,,,,,,,,,,,,,,,,,,,,,,,,,,,,,,,,,,,,,,,
0,1,1,75,1,,61567f148c4094333aaa6d28,62c539b9614ceb72cf758a8b,2022-07-06_09h33.38.444,Colour_Asymmetry_Pilot,2022.1.3,Win32,60.27364234,62c50e9c1127f2cd403a315f,,,,,,,,,,,,,,,,,,,,,,,,,,,,,,,,,,,,,,,,,,,,,,,,,,,,,,,,,,,,,,,,,,,,,,,,,,,,,,,,,,,,,,,,,,,,,,,,,,,,,,,,,,,,,,,,,,,,,,,,,,,,,,,,,,,,,,,,,,,,,,,,,,,,,,,,,,,,,,,,,,,
0,2,2,85,1,,61567f148c4094333aaa6d28,62c539b9614ceb72cf758a8b,2022-07-06_09h33.38.444,Colour_Asymmetry_Pilot,2022.1.3,Win32,60.27364234,62c50e9c1127f2cd403a315f,,,,,,,,,,,,,,,,,,,,,,,,,,,,,,,,,,,,,,,,,,,,,,,,,,,,,,,,,,,,,,,,,,,,,,,,,,,,,,,,,,,,,,,,,,,,,,,,,,,,,,,,,,,,,,,,,,,,,,,,,,,,,,,,,,,,,,,,,,,,,,,,,,,,,,,,,,,,,,,,,,,
0,3,3,37,1,,61567f148c4094333aaa6d28,62c539b9614ceb72cf758a8b,2022-07-06_09h33.38.444,Colour_Asymmetry_Pilot,2022.1.3,Win32,60.27364234,62c50e9c1127f2cd403a315f,,,,,,,,,,,,,,,,,,,,,,,,,,,,,,,,,,,,,,,,,,,,,,,,,,,,,,,,,,,,,,,,,,,,,,,,,,,,,,,,,,,,,,,,,,,,,,,,,,,,,,,,,,,,,,,,,,,,,,,,,,,,,,,,,,,,,,,,,,,,,,,,,,,,,,,,,,,,,,,,,,,
0,4,4,82,1,,61567f148c4094333aaa6d28,62c539b9614ceb72cf758a8b,2022-07-06_09h33.38.444,Colour_Asymmetry_Pilot,2022.1.3,Win32,60.27364234,62c50e9c1127f2cd403a315f,,,,,,,,,,,,,,,,,,,,,,,,,,,,,,,,,,,,,,,,,,,,,,,,,,,,,,,,,,,,,,,,,,,,,,,,,,,,,,,,,,,,,,,,,,,,,,,,,,,,,,,,,,,,,,,,,,,,,,,,,,,,,,,,,,,,,,,,,,,,,,,,,,,,,,,,,,,,,,,,,,,
0,5,5,51,1,,61567f148c4094333aaa6d28,62c539b9614ceb72cf758a8b,2022-07-06_09h33.38.444,Colour_Asymmetry_Pilot,2022.1.3,Win32,60.27364234,62c50e9c1127f2cd403a315f,,,,,,,,,,,,,,,,,,,,,,,,,,,,,,,,,,,,,,,,,,,,,,,,,,,,,,,,,,,,,,,,,,,,,,,,,,,,,,,,,,,,,,,,,,,,,,,,,,,,,,,,,,,,,,,,,,,,,,,,,,,,,,,,,,,,,,,,,,,,,,,,,,,,,,,,,,,,,,,,,,,
0,6,6,12,1,,61567f148c4094333aaa6d28,62c539b9614ceb72cf758a8b,2022-07-06_09h33.38.444,Colour_Asymmetry_Pilot,2022.1.3,Win32,60.27364234,62c50e9c1127f2cd403a315f,,,,,,,,,,,,,,,,,,,,,,,,,,,,,,,,,,,,,,,,,,,,,,,,,,,,,,,,,,,,,,,,,,,,,,,,,,,,,,,,,,,,,,,,,,,,,,,,,,,,,,,,,,,,,,,,,,,,,,,,,,,,,,,,,,,,,,,,,,,,,,,,,,,,,,,,,,,,,,,,,,,
0,7,7,78,1,,61567f148c4094333aaa6d28,62c539b9614ceb72cf758a8b,2022-07-06_09h33.38.444,Colour_Asymmetry_Pilot,2022.1.3,Win32,60.27364234,62c50e9c1127f2cd403a315f,,,,,,,,,,,,,,,,,,,,,,,,,,,,,,,,,,,,,,,,,,,,,,,,,,,,,,,,,,,,,,,,,,,,,,,,,,,,,,,,,,,,,,,,,,,,,,,,,,,,,,,,,,,,,,,,,,,,,,,,,,,,,,,,,,,,,,,,,,,,,,,,,,,,,,,,,,,,,,,,,,,
0,8,8,41,1,,61567f148c4094333aaa6d28,62c539b9614ceb72cf758a8b,2022-07-06_09h33.38.444,Colour_Asymmetry_Pilot,2022.1.3,Win32,60.27364234,62c50e9c1127f2cd403a315f,,,,,,,,,,,,,,,,,,,,,,,,,,,,,,,,,,,,,,,,,,,,,,,,,,,,,,,,,,,,,,,,,,,,,,,,,,,,,,,,,,,,,,,,,,,,,,,,,,,,,,,,,,,,,,,,,,,,,,,,,,,,,,,,,,,,,,,,,,,,,,,,,,,,,,,,,,,,,,,,,,,
0,9,9,80,1,,61567f148c4094333aaa6d28,62c539b9614ceb72cf758a8b,2022-07-06_09h33.38.444,Colour_Asymmetry_Pilot,2022.1.3,Win32,60.27364234,62c50e9c1127f2cd403a315f,,,,,,,,,,,,,,,,,,,,,,,,,,,,,,,,,,,,,,,,,,,,,,,,,,,,,,,,,,,,,,,,,,,,,,,,,,,,,,,,,,,,,,,,,,,,,,,,,,,,,,,,,,,,,,,,,,,,,,,,,,,,,,,,,,,,,,,,,,,,,,,,,,,,,,,,,,,,,,,,,,,
0,10,10,18,1,,61567f148c4094333aaa6d28,62c539b9614ceb72cf758a8b,2022-07-06_09h33.38.444,Colour_Asymmetry_Pilot,2022.1.3,Win32,60.27364234,62c50e9c1127f2cd403a315f,,,,,,,,,,,,,,,,,,,,,,,,,,,,,,,,,,,,,,,,,,,,,,,,,,,,,,,,,,,,,,,,,,,,,,,,,,,,,,,,,,,,,,,,,,,,,,,,,,,,,,,,,,,,,,,,,,,,,,,,,,,,,,,,,,,,,,,,,,,,,,,,,,,,,,,,,,,,,,,,,,,
0,11,11,91,1,,61567f148c4094333aaa6d28,62c539b9614ceb72cf758a8b,2022-07-06_09h33.38.444,Colour_Asymmetry_Pilot,2022.1.3,Win32,60.27364234,62c50e9c1127f2cd403a315f,,,,,,,,,,,,,,,,,,,,,,,,,,,,,,,,,,,,,,,,,,,,,,,,,,,,,,,,,,,,,,,,,,,,,,,,,,,,,,,,,,,,,,,,,,,,,,,,,,,,,,,,,,,,,,,,,,,,,,,,,,,,,,,,,,,,,,,,,,,,,,,,,,,,,,,,,,,,,,,,,,,
0,12,12,88,1,,61567f148c4094333aaa6d28,62c539b9614ceb72cf758a8b,2022-07-06_09h33.38.444,Colour_Asymmetry_Pilot,2022.1.3,Win32,60.27364234,62c50e9c1127f2cd403a315f,,,,,,,,,,,,,,,,,,,,,,,,,,,,,,,,,,,,,,,,,,,,,,,,,,,,,,,,,,,,,,,,,,,,,,,,,,,,,,,,,,,,,,,,,,,,,,,,,,,,,,,,,,,,,,,,,,,,,,,,,,,,,,,,,,,,,,,,,,,,,,,,,,,,,,,,,,,,,,,,,,,
0,13,13,45,1,,61567f148c4094333aaa6d28,62c539b9614ceb72cf758a8b,2022-07-06_09h33.38.444,Colour_Asymmetry_Pilot,2022.1.3,Win32,60.27364234,62c50e9c1127f2cd403a315f,,,,,,,,,,,,,,,,,,,,,,,,,,,,,,,,,,,,,,,,,,,,,,,,,,,,,,,,,,,,,,,,,,,,,,,,,,,,,,,,,,,,,,,,,,,,,,,,,,,,,,,,,,,,,,,,,,,,,,,,,,,,,,,,,,,,,,,,,,,,,,,,,,,,,,,,,,,,,,,,,,,
0,14,14,63,1,,61567f148c4094333aaa6d28,62c539b9614ceb72cf758a8b,2022-07-06_09h33.38.444,Colour_Asymmetry_Pilot,2022.1.3,Win32,60.27364234,62c50e9c1127f2cd403a315f,,,,,,,,,,,,,,,,,,,,,,,,,,,,,,,,,,,,,,,,,,,,,,,,,,,,,,,,,,,,,,,,,,,,,,,,,,,,,,,,,,,,,,,,,,,,,,,,,,,,,,,,,,,,,,,,,,,,,,,,,,,,,,,,,,,,,,,,,,,,,,,,,,,,,,,,,,,,,,,,,,,
0,15,15,69,1,,61567f148c4094333aaa6d28,62c539b9614ceb72cf758a8b,2022-07-06_09h33.38.444,Colour_Asymmetry_Pilot,2022.1.3,Win32,60.27364234,62c50e9c1127f2cd403a315f,,,,,,,,,,,,,,,,,,,,,,,,,,,,,,,,,,,,,,,,,,,,,,,,,,,,,,,,,,,,,,,,,,,,,,,,,,,,,,,,,,,,,,,,,,,,,,,,,,,,,,,,,,,,,,,,,,,,,,,,,,,,,,,,,,,,,,,,,,,,,,,,,,,,,,,,,,,,,,,,,,,
0,16,16,29,1,,61567f148c4094333aaa6d28,62c539b9614ceb72cf758a8b,2022-07-06_09h33.38.444,Colour_Asymmetry_Pilot,2022.1.3,Win32,60.27364234,62c50e9c1127f2cd403a315f,,,,,,,,,,,,,,,,,,,,,,,,,,,,,,,,,,,,,,,,,,,,,,,,,,,,,,,,,,,,,,,,,,,,,,,,,,,,,,,,,,,,,,,,,,,,,,,,,,,,,,,,,,,,,,,,,,,,,,,,,,,,,,,,,,,,,,,,,,,,,,,,,,,,,,,,,,,,,,,,,,,
0,17,17,15,1,,61567f148c4094333aaa6d28,62c539b9614ceb72cf758a8b,2022-07-06_09h33.38.444,Colour_Asymmetry_Pilot,2022.1.3,Win32,60.27364234,62c50e9c1127f2cd403a315f,,,,,,,,,,,,,,,,,,,,,,,,,,,,,,,,,,,,,,,,,,,,,,,,,,,,,,,,,,,,,,,,,,,,,,,,,,,,,,,,,,,,,,,,,,,,,,,,,,,,,,,,,,,,,,,,,,,,,,,,,,,,,,,,,,,,,,,,,,,,,,,,,,,,,,,,,,,,,,,,,,,
0,18,18,32,1,,61567f148c4094333aaa6d28,62c539b9614ceb72cf758a8b,2022-07-06_09h33.38.444,Colour_Asymmetry_Pilot,2022.1.3,Win32,60.27364234,62c50e9c1127f2cd403a315f,,,,,,,,,,,,,,,,,,,,,,,,,,,,,,,,,,,,,,,,,,,,,,,,,,,,,,,,,,,,,,,,,,,,,,,,,,,,,,,,,,,,,,,,,,,,,,,,,,,,,,,,,,,,,,,,,,,,,,,,,,,,,,,,,,,,,,,,,,,,,,,,,,,,,,,,,,,,,,,,,,,
0,19,19,83,1,,61567f148c4094333aaa6d28,62c539b9614ceb72cf758a8b,2022-07-06_09h33.38.444,Colour_Asymmetry_Pilot,2022.1.3,Win32,60.27364234,62c50e9c1127f2cd403a315f,,,,,,,,,,,,,,,,,,,,,,,,,,,,,,,,,,,,,,,,,,,,,,,,,,,,,,,,,,,,,,,,,,,,,,,,,,,,,,,,,,,,,,,,,,,,,,,,,,,,,,,,,,,,,,,,,,,,,,,,,,,,,,,,,,,,,,,,,,,,,,,,,,,,,,,,,,,,,,,,,,,
0,20,20,22,1,,61567f148c4094333aaa6d28,62c539b9614ceb72cf758a8b,2022-07-06_09h33.38.444,Colour_Asymmetry_Pilot,2022.1.3,Win32,60.27364234,62c50e9c1127f2cd403a315f,,,,,,,,,,,,,,,,,,,,,,,,,,,,,,,,,,,,,,,,,,,,,,,,,,,,,,,,,,,,,,,,,,,,,,,,,,,,,,,,,,,,,,,,,,,,,,,,,,,,,,,,,,,,,,,,,,,,,,,,,,,,,,,,,,,,,,,,,,,,,,,,,,,,,,,,,,,,,,,,,,,
0,21,21,90,1,,61567f148c4094333aaa6d28,62c539b9614ceb72cf758a8b,2022-07-06_09h33.38.444,Colour_Asymmetry_Pilot,2022.1.3,Win32,60.27364234,62c50e9c1127f2cd403a315f,,,,,,,,,,,,,,,,,,,,,,,,,,,,,,,,,,,,,,,,,,,,,,,,,,,,,,,,,,,,,,,,,,,,,,,,,,,,,,,,,,,,,,,,,,,,,,,,,,,,,,,,,,,,,,,,,,,,,,,,,,,,,,,,,,,,,,,,,,,,,,,,,,,,,,,,,,,,,,,,,,,
0,22,22,11,1,,61567f148c4094333aaa6d28,62c539b9614ceb72cf758a8b,2022-07-06_09h33.38.444,Colour_Asymmetry_Pilot,2022.1.3,Win32,60.27364234,62c50e9c1127f2cd403a315f,,,,,,,,,,,,,,,,,,,,,,,,,,,,,,,,,,,,,,,,,,,,,,,,,,,,,,,,,,,,,,,,,,,,,,,,,,,,,,,,,,,,,,,,,,,,,,,,,,,,,,,,,,,,,,,,,,,,,,,,,,,,,,,,,,,,,,,,,,,,,,,,,,,,,,,,,,,,,,,,,,,
0,23,23,65,1,,61567f148c4094333aaa6d28,62c539b9614ceb72cf758a8b,2022-07-06_09h33.38.444,Colour_Asymmetry_Pilot,2022.1.3,Win32,60.27364234,62c50e9c1127f2cd403a315f,,,,,,,,,,,,,,,,,,,,,,,,,,,,,,,,,,,,,,,,,,,,,,,,,,,,,,,,,,,,,,,,,,,,,,,,,,,,,,,,,,,,,,,,,,,,,,,,,,,,,,,,,,,,,,,,,,,,,,,,,,,,,,,,,,,,,,,,,,,,,,,,,,,,,,,,,,,,,,,,,,,
0,24,24,50,1,,61567f148c4094333aaa6d28,62c539b9614ceb72cf758a8b,2022-07-06_09h33.38.444,Colour_Asymmetry_Pilot,2022.1.3,Win32,60.27364234,62c50e9c1127f2cd403a315f,,,,,,,,,,,,,,,,,,,,,,,,,,,,,,,,,,,,,,,,,,,,,,,,,,,,,,,,,,,,,,,,,,,,,,,,,,,,,,,,,,,,,,,,,,,,,,,,,,,,,,,,,,,,,,,,,,,,,,,,,,,,,,,,,,,,,,,,,,,,,,,,,,,,,,,,,,,,,,,,,,,
0,25,25,35,1,,61567f148c4094333aaa6d28,62c539b9614ceb72cf758a8b,2022-07-06_09h33.38.444,Colour_Asymmetry_Pilot,2022.1.3,Win32,60.27364234,62c50e9c1127f2cd403a315f,,,,,,,,,,,,,,,,,,,,,,,,,,,,,,,,,,,,,,,,,,,,,,,,,,,,,,,,,,,,,,,,,,,,,,,,,,,,,,,,,,,,,,,,,,,,,,,,,,,,,,,,,,,,,,,,,,,,,,,,,,,,,,,,,,,,,,,,,,,,,,,,,,,,,,,,,,,,,,,,,,,
0,26,26,34,1,,61567f148c4094333aaa6d28,62c539b9614ceb72cf758a8b,2022-07-06_09h33.38.444,Colour_Asymmetry_Pilot,2022.1.3,Win32,60.27364234,62c50e9c1127f2cd403a315f,,,,,,,,,,,,,,,,,,,,,,,,,,,,,,,,,,,,,,,,,,,,,,,,,,,,,,,,,,,,,,,,,,,,,,,,,,,,,,,,,,,,,,,,,,,,,,,,,,,,,,,,,,,,,,,,,,,,,,,,,,,,,,,,,,,,,,,,,,,,,,,,,,,,,,,,,,,,,,,,,,,
0,27,27,67,1,,61567f148c4094333aaa6d28,62c539b9614ceb72cf758a8b,2022-07-06_09h33.38.444,Colour_Asymmetry_Pilot,2022.1.3,Win32,60.27364234,62c50e9c1127f2cd403a315f,,,,,,,,,,,,,,,,,,,,,,,,,,,,,,,,,,,,,,,,,,,,,,,,,,,,,,,,,,,,,,,,,,,,,,,,,,,,,,,,,,,,,,,,,,,,,,,,,,,,,,,,,,,,,,,,,,,,,,,,,,,,,,,,,,,,,,,,,,,,,,,,,,,,,,,,,,,,,,,,,,,
0,28,28,46,1,,61567f148c4094333aaa6d28,62c539b9614ceb72cf758a8b,2022-07-06_09h33.38.444,Colour_Asymmetry_Pilot,2022.1.3,Win32,60.27364234,62c50e9c1127f2cd403a315f,,,,,,,,,,,,,,,,,,,,,,,,,,,,,,,,,,,,,,,,,,,,,,,,,,,,,,,,,,,,,,,,,,,,,,,,,,,,,,,,,,,,,,,,,,,,,,,,,,,,,,,,,,,,,,,,,,,,,,,,,,,,,,,,,,,,,,,,,,,,,,,,,,,,,,,,,,,,,,,,,,,
0,29,29,57,1,,61567f148c4094333aaa6d28,62c539b9614ceb72cf758a8b,2022-07-06_09h33.38.444,Colour_Asymmetry_Pilot,2022.1.3,Win32,60.27364234,62c50e9c1127f2cd403a315f,,,,,,,,,,,,,,,,,,,,,,,,,,,,,,,,,,,,,,,,,,,,,,,,,,,,,,,,,,,,,,,,,,,,,,,,,,,,,,,,,,,,,,,,,,,,,,,,,,,,,,,,,,,,,,,,,,,,,,,,,,,,,,,,,,,,,,,,,,,,,,,,,,,,,,,,,,,,,,,,,,,
0,30,30,27,1,,61567f148c4094333aaa6d28,62c539b9614ceb72cf758a8b,2022-07-06_09h33.38.444,Colour_Asymmetry_Pilot,2022.1.3,Win32,60.27364234,62c50e9c1127f2cd403a315f,,,,,,,,,,,,,,,,,,,,,,,,,,,,,,,,,,,,,,,,,,,,,,,,,,,,,,,,,,,,,,,,,,,,,,,,,,,,,,,,,,,,,,,,,,,,,,,,,,,,,,,,,,,,,,,,,,,,,,,,,,,,,,,,,,,,,,,,,,,,,,,,,,,,,,,,,,,,,,,,,,,
0,31,31,68,1,,61567f148c4094333aaa6d28,62c539b9614ceb72cf758a8b,2022-07-06_09h33.38.444,Colour_Asymmetry_Pilot,2022.1.3,Win32,60.27364234,62c50e9c1127f2cd403a315f,,,,,,,,,,,,,,,,,,,,,,,,,,,,,,,,,,,,,,,,,,,,,,,,,,,,,,,,,,,,,,,,,,,,,,,,,,,,,,,,,,,,,,,,,,,,,,,,,,,,,,,,,,,,,,,,,,,,,,,,,,,,,,,,,,,,,,,,,,,,,,,,,,,,,,,,,,,,,,,,,,,
0,32,32,44,1,,61567f148c4094333aaa6d28,62c539b9614ceb72cf758a8b,2022-07-06_09h33.38.444,Colour_Asymmetry_Pilot,2022.1.3,Win32,60.27364234,62c50e9c1127f2cd403a315f,,,,,,,,,,,,,,,,,,,,,,,,,,,,,,,,,,,,,,,,,,,,,,,,,,,,,,,,,,,,,,,,,,,,,,,,,,,,,,,,,,,,,,,,,,,,,,,,,,,,,,,,,,,,,,,,,,,,,,,,,,,,,,,,,,,,,,,,,,,,,,,,,,,,,,,,,,,,,,,,,,,
0,33,33,66,1,,61567f148c4094333aaa6d28,62c539b9614ceb72cf758a8b,2022-07-06_09h33.38.444,Colour_Asymmetry_Pilot,2022.1.3,Win32,60.27364234,62c50e9c1127f2cd403a315f,,,,,,,,,,,,,,,,,,,,,,,,,,,,,,,,,,,,,,,,,,,,,,,,,,,,,,,,,,,,,,,,,,,,,,,,,,,,,,,,,,,,,,,,,,,,,,,,,,,,,,,,,,,,,,,,,,,,,,,,,,,,,,,,,,,,,,,,,,,,,,,,,,,,,,,,,,,,,,,,,,,
0,34,34,79,1,,61567f148c4094333aaa6d28,62c539b9614ceb72cf758a8b,2022-07-06_09h33.38.444,Colour_Asymmetry_Pilot,2022.1.3,Win32,60.27364234,62c50e9c1127f2cd403a315f,,,,,,,,,,,,,,,,,,,,,,,,,,,,,,,,,,,,,,,,,,,,,,,,,,,,,,,,,,,,,,,,,,,,,,,,,,,,,,,,,,,,,,,,,,,,,,,,,,,,,,,,,,,,,,,,,,,,,,,,,,,,,,,,,,,,,,,,,,,,,,,,,,,,,,,,,,,,,,,,,,,
0,35,35,77,1,,61567f148c4094333aaa6d28,62c539b9614ceb72cf758a8b,2022-07-06_09h33.38.444,Colour_Asymmetry_Pilot,2022.1.3,Win32,60.27364234,62c50e9c1127f2cd403a315f,,,,,,,,,,,,,,,,,,,,,,,,,,,,,,,,,,,,,,,,,,,,,,,,,,,,,,,,,,,,,,,,,,,,,,,,,,,,,,,,,,,,,,,,,,,,,,,,,,,,,,,,,,,,,,,,,,,,,,,,,,,,,,,,,,,,,,,,,,,,,,,,,,,,,,,,,,,,,,,,,,,
0,36,36,28,1,,61567f148c4094333aaa6d28,62c539b9614ceb72cf758a8b,2022-07-06_09h33.38.444,Colour_Asymmetry_Pilot,2022.1.3,Win32,60.27364234,62c50e9c1127f2cd403a315f,,,,,,,,,,,,,,,,,,,,,,,,,,,,,,,,,,,,,,,,,,,,,,,,,,,,,,,,,,,,,,,,,,,,,,,,,,,,,,,,,,,,,,,,,,,,,,,,,,,,,,,,,,,,,,,,,,,,,,,,,,,,,,,,,,,,,,,,,,,,,,,,,,,,,,,,,,,,,,,,,,,
0,37,37,24,1,,61567f148c4094333aaa6d28,62c539b9614ceb72cf758a8b,2022-07-06_09h33.38.444,Colour_Asymmetry_Pilot,2022.1.3,Win32,60.27364234,62c50e9c1127f2cd403a315f,,,,,,,,,,,,,,,,,,,,,,,,,,,,,,,,,,,,,,,,,,,,,,,,,,,,,,,,,,,,,,,,,,,,,,,,,,,,,,,,,,,,,,,,,,,,,,,,,,,,,,,,,,,,,,,,,,,,,,,,,,,,,,,,,,,,,,,,,,,,,,,,,,,,,,,,,,,,,,,,,,,
0,38,38,84,1,,61567f148c4094333aaa6d28,62c539b9614ceb72cf758a8b,2022-07-06_09h33.38.444,Colour_Asymmetry_Pilot,2022.1.3,Win32,60.27364234,62c50e9c1127f2cd403a315f,,,,,,,,,,,,,,,,,,,,,,,,,,,,,,,,,,,,,,,,,,,,,,,,,,,,,,,,,,,,,,,,,,,,,,,,,,,,,,,,,,,,,,,,,,,,,,,,,,,,,,,,,,,,,,,,,,,,,,,,,,,,,,,,,,,,,,,,,,,,,,,,,,,,,,,,,,,,,,,,,,,
0,39,39,59,1,,61567f148c4094333aaa6d28,62c539b9614ceb72cf758a8b,2022-07-06_09h33.38.444,Colour_Asymmetry_Pilot,2022.1.3,Win32,60.27364234,62c50e9c1127f2cd403a315f,,,,,,,,,,,,,,,,,,,,,,,,,,,,,,,,,,,,,,,,,,,,,,,,,,,,,,,,,,,,,,,,,,,,,,,,,,,,,,,,,,,,,,,,,,,,,,,,,,,,,,,,,,,,,,,,,,,,,,,,,,,,,,,,,,,,,,,,,,,,,,,,,,,,,,,,,,,,,,,,,,,
0,40,40,58,1,,61567f148c4094333aaa6d28,62c539b9614ceb72cf758a8b,2022-07-06_09h33.38.444,Colour_Asymmetry_Pilot,2022.1.3,Win32,60.27364234,62c50e9c1127f2cd403a315f,,,,,,,,,,,,,,,,,,,,,,,,,,,,,,,,,,,,,,,,,,,,,,,,,,,,,,,,,,,,,,,,,,,,,,,,,,,,,,,,,,,,,,,,,,,,,,,,,,,,,,,,,,,,,,,,,,,,,,,,,,,,,,,,,,,,,,,,,,,,,,,,,,,,,,,,,,,,,,,,,,,
0,41,41,6,1,,61567f148c4094333aaa6d28,62c539b9614ceb72cf758a8b,2022-07-06_09h33.38.444,Colour_Asymmetry_Pilot,2022.1.3,Win32,60.27364234,62c50e9c1127f2cd403a315f,,,,,,,,,,,,,,,,,,,,,,,,,,,,,,,,,,,,,,,,,,,,,,,,,,,,,,,,,,,,,,,,,,,,,,,,,,,,,,,,,,,,,,,,,,,,,,,,,,,,,,,,,,,,,,,,,,,,,,,,,,,,,,,,,,,,,,,,,,,,,,,,,,,,,,,,,,,,,,,,,,,
0,42,42,25,1,,61567f148c4094333aaa6d28,62c539b9614ceb72cf758a8b,2022-07-06_09h33.38.444,Colour_Asymmetry_Pilot,2022.1.3,Win32,60.27364234,62c50e9c1127f2cd403a315f,,,,,,,,,,,,,,,,,,,,,,,,,,,,,,,,,,,,,,,,,,,,,,,,,,,,,,,,,,,,,,,,,,,,,,,,,,,,,,,,,,,,,,,,,,,,,,,,,,,,,,,,,,,,,,,,,,,,,,,,,,,,,,,,,,,,,,,,,,,,,,,,,,,,,,,,,,,,,,,,,,,
0,43,43,7,1,,61567f148c4094333aaa6d28,62c539b9614ceb72cf758a8b,2022-07-06_09h33.38.444,Colour_Asymmetry_Pilot,2022.1.3,Win32,60.27364234,62c50e9c1127f2cd403a315f,,,,,,,,,,,,,,,,,,,,,,,,,,,,,,,,,,,,,,,,,,,,,,,,,,,,,,,,,,,,,,,,,,,,,,,,,,,,,,,,,,,,,,,,,,,,,,,,,,,,,,,,,,,,,,,,,,,,,,,,,,,,,,,,,,,,,,,,,,,,,,,,,,,,,,,,,,,,,,,,,,,
0,44,44,3,1,,61567f148c4094333aaa6d28,62c539b9614ceb72cf758a8b,2022-07-06_09h33.38.444,Colour_Asymmetry_Pilot,2022.1.3,Win32,60.27364234,62c50e9c1127f2cd403a315f,,,,,,,,,,,,,,,,,,,,,,,,,,,,,,,,,,,,,,,,,,,,,,,,,,,,,,,,,,,,,,,,,,,,,,,,,,,,,,,,,,,,,,,,,,,,,,,,,,,,,,,,,,,,,,,,,,,,,,,,,,,,,,,,,,,,,,,,,,,,,,,,,,,,,,,,,,,,,,,,,,,
0,45,45,56,1,,61567f148c4094333aaa6d28,62c539b9614ceb72cf758a8b,2022-07-06_09h33.38.444,Colour_Asymmetry_Pilot,2022.1.3,Win32,60.27364234,62c50e9c1127f2cd403a315f,,,,,,,,,,,,,,,,,,,,,,,,,,,,,,,,,,,,,,,,,,,,,,,,,,,,,,,,,,,,,,,,,,,,,,,,,,,,,,,,,,,,,,,,,,,,,,,,,,,,,,,,,,,,,,,,,,,,,,,,,,,,,,,,,,,,,,,,,,,,,,,,,,,,,,,,,,,,,,,,,,,
0,46,46,20,1,,61567f148c4094333aaa6d28,62c539b9614ceb72cf758a8b,2022-07-06_09h33.38.444,Colour_Asymmetry_Pilot,2022.1.3,Win32,60.27364234,62c50e9c1127f2cd403a315f,,,,,,,,,,,,,,,,,,,,,,,,,,,,,,,,,,,,,,,,,,,,,,,,,,,,,,,,,,,,,,,,,,,,,,,,,,,,,,,,,,,,,,,,,,,,,,,,,,,,,,,,,,,,,,,,,,,,,,,,,,,,,,,,,,,,,,,,,,,,,,,,,,,,,,,,,,,,,,,,,,,
0,47,47,10,1,,61567f148c4094333aaa6d28,62c539b9614ceb72cf758a8b,2022-07-06_09h33.38.444,Colour_Asymmetry_Pilot,2022.1.3,Win32,60.27364234,62c50e9c1127f2cd403a315f,,,,,,,,,,,,,,,,,,,,,,,,,,,,,,,,,,,,,,,,,,,,,,,,,,,,,,,,,,,,,,,,,,,,,,,,,,,,,,,,,,,,,,,,,,,,,,,,,,,,,,,,,,,,,,,,,,,,,,,,,,,,,,,,,,,,,,,,,,,,,,,,,,,,,,,,,,,,,,,,,,,
0,48,48,62,1,,61567f148c4094333aaa6d28,62c539b9614ceb72cf758a8b,2022-07-06_09h33.38.444,Colour_Asymmetry_Pilot,2022.1.3,Win32,60.27364234,62c50e9c1127f2cd403a315f,,,,,,,,,,,,,,,,,,,,,,,,,,,,,,,,,,,,,,,,,,,,,,,,,,,,,,,,,,,,,,,,,,,,,,,,,,,,,,,,,,,,,,,,,,,,,,,,,,,,,,,,,,,,,,,,,,,,,,,,,,,,,,,,,,,,,,,,,,,,,,,,,,,,,,,,,,,,,,,,,,,
0,49,49,21,1,,61567f148c4094333aaa6d28,62c539b9614ceb72cf758a8b,2022-07-06_09h33.38.444,Colour_Asymmetry_Pilot,2022.1.3,Win32,60.27364234,62c50e9c1127f2cd403a315f,,,,,,,,,,,,,,,,,,,,,,,,,,,,,,,,,,,,,,,,,,,,,,,,,,,,,,,,,,,,,,,,,,,,,,,,,,,,,,,,,,,,,,,,,,,,,,,,,,,,,,,,,,,,,,,,,,,,,,,,,,,,,,,,,,,,,,,,,,,,,,,,,,,,,,,,,,,,,,,,,,,
0,50,50,53,1,,61567f148c4094333aaa6d28,62c539b9614ceb72cf758a8b,2022-07-06_09h33.38.444,Colour_Asymmetry_Pilot,2022.1.3,Win32,60.27364234,62c50e9c1127f2cd403a315f,,,,,,,,,,,,,,,,,,,,,,,,,,,,,,,,,,,,,,,,,,,,,,,,,,,,,,,,,,,,,,,,,,,,,,,,,,,,,,,,,,,,,,,,,,,,,,,,,,,,,,,,,,,,,,,,,,,,,,,,,,,,,,,,,,,,,,,,,,,,,,,,,,,,,,,,,,,,,,,,,,,
0,51,51,40,1,,61567f148c4094333aaa6d28,62c539b9614ceb72cf758a8b,2022-07-06_09h33.38.444,Colour_Asymmetry_Pilot,2022.1.3,Win32,60.27364234,62c50e9c1127f2cd403a315f,,,,,,,,,,,,,,,,,,,,,,,,,,,,,,,,,,,,,,,,,,,,,,,,,,,,,,,,,,,,,,,,,,,,,,,,,,,,,,,,,,,,,,,,,,,,,,,,,,,,,,,,,,,,,,,,,,,,,,,,,,,,,,,,,,,,,,,,,,,,,,,,,,,,,,,,,,,,,,,,,,,
0,52,52,9,1,,61567f148c4094333aaa6d28,62c539b9614ceb72cf758a8b,2022-07-06_09h33.38.444,Colour_Asymmetry_Pilot,2022.1.3,Win32,60.27364234,62c50e9c1127f2cd403a315f,,,,,,,,,,,,,,,,,,,,,,,,,,,,,,,,,,,,,,,,,,,,,,,,,,,,,,,,,,,,,,,,,,,,,,,,,,,,,,,,,,,,,,,,,,,,,,,,,,,,,,,,,,,,,,,,,,,,,,,,,,,,,,,,,,,,,,,,,,,,,,,,,,,,,,,,,,,,,,,,,,,
0,53,53,38,1,,61567f148c4094333aaa6d28,62c539b9614ceb72cf758a8b,2022-07-06_09h33.38.444,Colour_Asymmetry_Pilot,2022.1.3,Win32,60.27364234,62c50e9c1127f2cd403a315f,,,,,,,,,,,,,,,,,,,,,,,,,,,,,,,,,,,,,,,,,,,,,,,,,,,,,,,,,,,,,,,,,,,,,,,,,,,,,,,,,,,,,,,,,,,,,,,,,,,,,,,,,,,,,,,,,,,,,,,,,,,,,,,,,,,,,,,,,,,,,,,,,,,,,,,,,,,,,,,,,,,
0,54,54,16,1,,61567f148c4094333aaa6d28,62c539b9614ceb72cf758a8b,2022-07-06_09h33.38.444,Colour_Asymmetry_Pilot,2022.1.3,Win32,60.27364234,62c50e9c1127f2cd403a315f,,,,,,,,,,,,,,,,,,,,,,,,,,,,,,,,,,,,,,,,,,,,,,,,,,,,,,,,,,,,,,,,,,,,,,,,,,,,,,,,,,,,,,,,,,,,,,,,,,,,,,,,,,,,,,,,,,,,,,,,,,,,,,,,,,,,,,,,,,,,,,,,,,,,,,,,,,,,,,,,,,,
0,55,55,81,1,,61567f148c4094333aaa6d28,62c539b9614ceb72cf758a8b,2022-07-06_09h33.38.444,Colour_Asymmetry_Pilot,2022.1.3,Win32,60.27364234,62c50e9c1127f2cd403a315f,,,,,,,,,,,,,,,,,,,,,,,,,,,,,,,,,,,,,,,,,,,,,,,,,,,,,,,,,,,,,,,,,,,,,,,,,,,,,,,,,,,,,,,,,,,,,,,,,,,,,,,,,,,,,,,,,,,,,,,,,,,,,,,,,,,,,,,,,,,,,,,,,,,,,,,,,,,,,,,,,,,
0,56,56,86,1,,61567f148c4094333aaa6d28,62c539b9614ceb72cf758a8b,2022-07-06_09h33.38.444,Colour_Asymmetry_Pilot,2022.1.3,Win32,60.27364234,62c50e9c1127f2cd403a315f,,,,,,,,,,,,,,,,,,,,,,,,,,,,,,,,,,,,,,,,,,,,,,,,,,,,,,,,,,,,,,,,,,,,,,,,,,,,,,,,,,,,,,,,,,,,,,,,,,,,,,,,,,,,,,,,,,,,,,,,,,,,,,,,,,,,,,,,,,,,,,,,,,,,,,,,,,,,,,,,,,,
0,57,57,74,1,,61567f148c4094333aaa6d28,62c539b9614ceb72cf758a8b,2022-07-06_09h33.38.444,Colour_Asymmetry_Pilot,2022.1.3,Win32,60.27364234,62c50e9c1127f2cd403a315f,,,,,,,,,,,,,,,,,,,,,,,,,,,,,,,,,,,,,,,,,,,,,,,,,,,,,,,,,,,,,,,,,,,,,,,,,,,,,,,,,,,,,,,,,,,,,,,,,,,,,,,,,,,,,,,,,,,,,,,,,,,,,,,,,,,,,,,,,,,,,,,,,,,,,,,,,,,,,,,,,,,
0,58,58,64,1,,61567f148c4094333aaa6d28,62c539b9614ceb72cf758a8b,2022-07-06_09h33.38.444,Colour_Asymmetry_Pilot,2022.1.3,Win32,60.27364234,62c50e9c1127f2cd403a315f,,,,,,,,,,,,,,,,,,,,,,,,,,,,,,,,,,,,,,,,,,,,,,,,,,,,,,,,,,,,,,,,,,,,,,,,,,,,,,,,,,,,,,,,,,,,,,,,,,,,,,,,,,,,,,,,,,,,,,,,,,,,,,,,,,,,,,,,,,,,,,,,,,,,,,,,,,,,,,,,,,,
0,59,59,48,1,,61567f148c4094333aaa6d28,62c539b9614ceb72cf758a8b,2022-07-06_09h33.38.444,Colour_Asymmetry_Pilot,2022.1.3,Win32,60.27364234,62c50e9c1127f2cd403a315f,,,,,,,,,,,,,,,,,,,,,,,,,,,,,,,,,,,,,,,,,,,,,,,,,,,,,,,,,,,,,,,,,,,,,,,,,,,,,,,,,,,,,,,,,,,,,,,,,,,,,,,,,,,,,,,,,,,,,,,,,,,,,,,,,,,,,,,,,,,,,,,,,,,,,,,,,,,,,,,,,,,
0,60,60,19,1,,61567f148c4094333aaa6d28,62c539b9614ceb72cf758a8b,2022-07-06_09h33.38.444,Colour_Asymmetry_Pilot,2022.1.3,Win32,60.27364234,62c50e9c1127f2cd403a315f,,,,,,,,,,,,,,,,,,,,,,,,,,,,,,,,,,,,,,,,,,,,,,,,,,,,,,,,,,,,,,,,,,,,,,,,,,,,,,,,,,,,,,,,,,,,,,,,,,,,,,,,,,,,,,,,,,,,,,,,,,,,,,,,,,,,,,,,,,,,,,,,,,,,,,,,,,,,,,,,,,,
0,61,61,52,1,,61567f148c4094333aaa6d28,62c539b9614ceb72cf758a8b,2022-07-06_09h33.38.444,Colour_Asymmetry_Pilot,2022.1.3,Win32,60.27364234,62c50e9c1127f2cd403a315f,,,,,,,,,,,,,,,,,,,,,,,,,,,,,,,,,,,,,,,,,,,,,,,,,,,,,,,,,,,,,,,,,,,,,,,,,,,,,,,,,,,,,,,,,,,,,,,,,,,,,,,,,,,,,,,,,,,,,,,,,,,,,,,,,,,,,,,,,,,,,,,,,,,,,,,,,,,,,,,,,,,
0,62,62,71,1,,61567f148c4094333aaa6d28,62c539b9614ceb72cf758a8b,2022-07-06_09h33.38.444,Colour_Asymmetry_Pilot,2022.1.3,Win32,60.27364234,62c50e9c1127f2cd403a315f,,,,,,,,,,,,,,,,,,,,,,,,,,,,,,,,,,,,,,,,,,,,,,,,,,,,,,,,,,,,,,,,,,,,,,,,,,,,,,,,,,,,,,,,,,,,,,,,,,,,,,,,,,,,,,,,,,,,,,,,,,,,,,,,,,,,,,,,,,,,,,,,,,,,,,,,,,,,,,,,,,,
0,63,63,54,1,,61567f148c4094333aaa6d28,62c539b9614ceb72cf758a8b,2022-07-06_09h33.38.444,Colour_Asymmetry_Pilot,2022.1.3,Win32,60.27364234,62c50e9c1127f2cd403a315f,,,,,,,,,,,,,,,,,,,,,,,,,,,,,,,,,,,,,,,,,,,,,,,,,,,,,,,,,,,,,,,,,,,,,,,,,,,,,,,,,,,,,,,,,,,,,,,,,,,,,,,,,,,,,,,,,,,,,,,,,,,,,,,,,,,,,,,,,,,,,,,,,,,,,,,,,,,,,,,,,,,
0,64,64,2,1,,61567f148c4094333aaa6d28,62c539b9614ceb72cf758a8b,2022-07-06_09h33.38.444,Colour_Asymmetry_Pilot,2022.1.3,Win32,60.27364234,62c50e9c1127f2cd403a315f,,,,,,,,,,,,,,,,,,,,,,,,,,,,,,,,,,,,,,,,,,,,,,,,,,,,,,,,,,,,,,,,,,,,,,,,,,,,,,,,,,,,,,,,,,,,,,,,,,,,,,,,,,,,,,,,,,,,,,,,,,,,,,,,,,,,,,,,,,,,,,,,,,,,,,,,,,,,,,,,,,,
0,65,65,76,1,,61567f148c4094333aaa6d28,62c539b9614ceb72cf758a8b,2022-07-06_09h33.38.444,Colour_Asymmetry_Pilot,2022.1.3,Win32,60.27364234,62c50e9c1127f2cd403a315f,,,,,,,,,,,,,,,,,,,,,,,,,,,,,,,,,,,,,,,,,,,,,,,,,,,,,,,,,,,,,,,,,,,,,,,,,,,,,,,,,,,,,,,,,,,,,,,,,,,,,,,,,,,,,,,,,,,,,,,,,,,,,,,,,,,,,,,,,,,,,,,,,,,,,,,,,,,,,,,,,,,
0,66,66,43,1,,61567f148c4094333aaa6d28,62c539b9614ceb72cf758a8b,2022-07-06_09h33.38.444,Colour_Asymmetry_Pilot,2022.1.3,Win32,60.27364234,62c50e9c1127f2cd403a315f,,,,,,,,,,,,,,,,,,,,,,,,,,,,,,,,,,,,,,,,,,,,,,,,,,,,,,,,,,,,,,,,,,,,,,,,,,,,,,,,,,,,,,,,,,,,,,,,,,,,,,,,,,,,,,,,,,,,,,,,,,,,,,,,,,,,,,,,,,,,,,,,,,,,,,,,,,,,,,,,,,,
0,67,67,1,1,,61567f148c4094333aaa6d28,62c539b9614ceb72cf758a8b,2022-07-06_09h33.38.444,Colour_Asymmetry_Pilot,2022.1.3,Win32,60.27364234,62c50e9c1127f2cd403a315f,,,,,,,,,,,,,,,,,,,,,,,,,,,,,,,,,,,,,,,,,,,,,,,,,,,,,,,,,,,,,,,,,,,,,,,,,,,,,,,,,,,,,,,,,,,,,,,,,,,,,,,,,,,,,,,,,,,,,,,,,,,,,,,,,,,,,,,,,,,,,,,,,,,,,,,,,,,,,,,,,,,
0,68,68,4,1,,61567f148c4094333aaa6d28,62c539b9614ceb72cf758a8b,2022-07-06_09h33.38.444,Colour_Asymmetry_Pilot,2022.1.3,Win32,60.27364234,62c50e9c1127f2cd403a315f,,,,,,,,,,,,,,,,,,,,,,,,,,,,,,,,,,,,,,,,,,,,,,,,,,,,,,,,,,,,,,,,,,,,,,,,,,,,,,,,,,,,,,,,,,,,,,,,,,,,,,,,,,,,,,,,,,,,,,,,,,,,,,,,,,,,,,,,,,,,,,,,,,,,,,,,,,,,,,,,,,,
0,69,69,17,1,,61567f148c4094333aaa6d28,62c539b9614ceb72cf758a8b,2022-07-06_09h33.38.444,Colour_Asymmetry_Pilot,2022.1.3,Win32,60.27364234,62c50e9c1127f2cd403a315f,,,,,,,,,,,,,,,,,,,,,,,,,,,,,,,,,,,,,,,,,,,,,,,,,,,,,,,,,,,,,,,,,,,,,,,,,,,,,,,,,,,,,,,,,,,,,,,,,,,,,,,,,,,,,,,,,,,,,,,,,,,,,,,,,,,,,,,,,,,,,,,,,,,,,,,,,,,,,,,,,,,
0,70,70,92,1,,61567f148c4094333aaa6d28,62c539b9614ceb72cf758a8b,2022-07-06_09h33.38.444,Colour_Asymmetry_Pilot,2022.1.3,Win32,60.27364234,62c50e9c1127f2cd403a315f,,,,,,,,,,,,,,,,,,,,,,,,,,,,,,,,,,,,,,,,,,,,,,,,,,,,,,,,,,,,,,,,,,,,,,,,,,,,,,,,,,,,,,,,,,,,,,,,,,,,,,,,,,,,,,,,,,,,,,,,,,,,,,,,,,,,,,,,,,,,,,,,,,,,,,,,,,,,,,,,,,,
0,71,71,39,1,,61567f148c4094333aaa6d28,62c539b9614ceb72cf758a8b,2022-07-06_09h33.38.444,Colour_Asymmetry_Pilot,2022.1.3,Win32,60.27364234,62c50e9c1127f2cd403a315f,,,,,,,,,,,,,,,,,,,,,,,,,,,,,,,,,,,,,,,,,,,,,,,,,,,,,,,,,,,,,,,,,,,,,,,,,,,,,,,,,,,,,,,,,,,,,,,,,,,,,,,,,,,,,,,,,,,,,,,,,,,,,,,,,,,,,,,,,,,,,,,,,,,,,,,,,,,,,,,,,,,
0,72,72,42,1,,61567f148c4094333aaa6d28,62c539b9614ceb72cf758a8b,2022-07-06_09h33.38.444,Colour_Asymmetry_Pilot,2022.1.3,Win32,60.27364234,62c50e9c1127f2cd403a315f,,,,,,,,,,,,,,,,,,,,,,,,,,,,,,,,,,,,,,,,,,,,,,,,,,,,,,,,,,,,,,,,,,,,,,,,,,,,,,,,,,,,,,,,,,,,,,,,,,,,,,,,,,,,,,,,,,,,,,,,,,,,,,,,,,,,,,,,,,,,,,,,,,,,,,,,,,,,,,,,,,,
0,73,73,8,1,,61567f148c4094333aaa6d28,62c539b9614ceb72cf758a8b,2022-07-06_09h33.38.444,Colour_Asymmetry_Pilot,2022.1.3,Win32,60.27364234,62c50e9c1127f2cd403a315f,,,,,,,,,,,,,,,,,,,,,,,,,,,,,,,,,,,,,,,,,,,,,,,,,,,,,,,,,,,,,,,,,,,,,,,,,,,,,,,,,,,,,,,,,,,,,,,,,,,,,,,,,,,,,,,,,,,,,,,,,,,,,,,,,,,,,,,,,,,,,,,,,,,,,,,,,,,,,,,,,,,
0,74,74,55,1,,61567f148c4094333aaa6d28,62c539b9614ceb72cf758a8b,2022-07-06_09h33.38.444,Colour_Asymmetry_Pilot,2022.1.3,Win32,60.27364234,62c50e9c1127f2cd403a315f,,,,,,,,,,,,,,,,,,,,,,,,,,,,,,,,,,,,,,,,,,,,,,,,,,,,,,,,,,,,,,,,,,,,,,,,,,,,,,,,,,,,,,,,,,,,,,,,,,,,,,,,,,,,,,,,,,,,,,,,,,,,,,,,,,,,,,,,,,,,,,,,,,,,,,,,,,,,,,,,,,,
0,75,75,30,1,,61567f148c4094333aaa6d28,62c539b9614ceb72cf758a8b,2022-07-06_09h33.38.444,Colour_Asymmetry_Pilot,2022.1.3,Win32,60.27364234,62c50e9c1127f2cd403a315f,,,,,,,,,,,,,,,,,,,,,,,,,,,,,,,,,,,,,,,,,,,,,,,,,,,,,,,,,,,,,,,,,,,,,,,,,,,,,,,,,,,,,,,,,,,,,,,,,,,,,,,,,,,,,,,,,,,,,,,,,,,,,,,,,,,,,,,,,,,,,,,,,,,,,,,,,,,,,,,,,,,
0,76,76,49,1,,61567f148c4094333aaa6d28,62c539b9614ceb72cf758a8b,2022-07-06_09h33.38.444,Colour_Asymmetry_Pilot,2022.1.3,Win32,60.27364234,62c50e9c1127f2cd403a315f,,,,,,,,,,,,,,,,,,,,,,,,,,,,,,,,,,,,,,,,,,,,,,,,,,,,,,,,,,,,,,,,,,,,,,,,,,,,,,,,,,,,,,,,,,,,,,,,,,,,,,,,,,,,,,,,,,,,,,,,,,,,,,,,,,,,,,,,,,,,,,,,,,,,,,,,,,,,,,,,,,,
0,77,77,14,1,,61567f148c4094333aaa6d28,62c539b9614ceb72cf758a8b,2022-07-06_09h33.38.444,Colour_Asymmetry_Pilot,2022.1.3,Win32,60.27364234,62c50e9c1127f2cd403a315f,,,,,,,,,,,,,,,,,,,,,,,,,,,,,,,,,,,,,,,,,,,,,,,,,,,,,,,,,,,,,,,,,,,,,,,,,,,,,,,,,,,,,,,,,,,,,,,,,,,,,,,,,,,,,,,,,,,,,,,,,,,,,,,,,,,,,,,,,,,,,,,,,,,,,,,,,,,,,,,,,,,
0,78,78,87,1,,61567f148c4094333aaa6d28,62c539b9614ceb72cf758a8b,2022-07-06_09h33.38.444,Colour_Asymmetry_Pilot,2022.1.3,Win32,60.27364234,62c50e9c1127f2cd403a315f,,,,,,,,,,,,,,,,,,,,,,,,,,,,,,,,,,,,,,,,,,,,,,,,,,,,,,,,,,,,,,,,,,,,,,,,,,,,,,,,,,,,,,,,,,,,,,,,,,,,,,,,,,,,,,,,,,,,,,,,,,,,,,,,,,,,,,,,,,,,,,,,,,,,,,,,,,,,,,,,,,,
0,79,79,31,1,,61567f148c4094333aaa6d28,62c539b9614ceb72cf758a8b,2022-07-06_09h33.38.444,Colour_Asymmetry_Pilot,2022.1.3,Win32,60.27364234,62c50e9c1127f2cd403a315f,,,,,,,,,,,,,,,,,,,,,,,,,,,,,,,,,,,,,,,,,,,,,,,,,,,,,,,,,,,,,,,,,,,,,,,,,,,,,,,,,,,,,,,,,,,,,,,,,,,,,,,,,,,,,,,,,,,,,,,,,,,,,,,,,,,,,,,,,,,,,,,,,,,,,,,,,,,,,,,,,,,
0,80,80,33,1,,61567f148c4094333aaa6d28,62c539b9614ceb72cf758a8b,2022-07-06_09h33.38.444,Colour_Asymmetry_Pilot,2022.1.3,Win32,60.27364234,62c50e9c1127f2cd403a315f,,,,,,,,,,,,,,,,,,,,,,,,,,,,,,,,,,,,,,,,,,,,,,,,,,,,,,,,,,,,,,,,,,,,,,,,,,,,,,,,,,,,,,,,,,,,,,,,,,,,,,,,,,,,,,,,,,,,,,,,,,,,,,,,,,,,,,,,,,,,,,,,,,,,,,,,,,,,,,,,,,,
0,81,81,0,1,,61567f148c4094333aaa6d28,62c539b9614ceb72cf758a8b,2022-07-06_09h33.38.444,Colour_Asymmetry_Pilot,2022.1.3,Win32,60.27364234,62c50e9c1127f2cd403a315f,,,,,,,,,,,,,,,,,,,,,,,,,,,,,,,,,,,,,,,,,,,,,,,,,,,,,,,,,,,,,,,,,,,,,,,,,,,,,,,,,,,,,,,,,,,,,,,,,,,,,,,,,,,,,,,,,,,,,,,,,,,,,,,,,,,,,,,,,,,,,,,,,,,,,,,,,,,,,,,,,,,
0,82,82,13,1,,61567f148c4094333aaa6d28,62c539b9614ceb72cf758a8b,2022-07-06_09h33.38.444,Colour_Asymmetry_Pilot,2022.1.3,Win32,60.27364234,62c50e9c1127f2cd403a315f,,,,,,,,,,,,,,,,,,,,,,,,,,,,,,,,,,,,,,,,,,,,,,,,,,,,,,,,,,,,,,,,,,,,,,,,,,,,,,,,,,,,,,,,,,,,,,,,,,,,,,,,,,,,,,,,,,,,,,,,,,,,,,,,,,,,,,,,,,,,,,,,,,,,,,,,,,,,,,,,,,,
0,83,83,72,1,,61567f148c4094333aaa6d28,62c539b9614ceb72cf758a8b,2022-07-06_09h33.38.444,Colour_Asymmetry_Pilot,2022.1.3,Win32,60.27364234,62c50e9c1127f2cd403a315f,,,,,,,,,,,,,,,,,,,,,,,,,,,,,,,,,,,,,,,,,,,,,,,,,,,,,,,,,,,,,,,,,,,,,,,,,,,,,,,,,,,,,,,,,,,,,,,,,,,,,,,,,,,,,,,,,,,,,,,,,,,,,,,,,,,,,,,,,,,,,,,,,,,,,,,,,,,,,,,,,,,
0,84,84,73,1,,61567f148c4094333aaa6d28,62c539b9614ceb72cf758a8b,2022-07-06_09h33.38.444,Colour_Asymmetry_Pilot,2022.1.3,Win32,60.27364234,62c50e9c1127f2cd403a315f,,,,,,,,,,,,,,,,,,,,,,,,,,,,,,,,,,,,,,,,,,,,,,,,,,,,,,,,,,,,,,,,,,,,,,,,,,,,,,,,,,,,,,,,,,,,,,,,,,,,,,,,,,,,,,,,,,,,,,,,,,,,,,,,,,,,,,,,,,,,,,,,,,,,,,,,,,,,,,,,,,,
0,85,85,23,1,,61567f148c4094333aaa6d28,62c539b9614ceb72cf758a8b,2022-07-06_09h33.38.444,Colour_Asymmetry_Pilot,2022.1.3,Win32,60.27364234,62c50e9c1127f2cd403a315f,,,,,,,,,,,,,,,,,,,,,,,,,,,,,,,,,,,,,,,,,,,,,,,,,,,,,,,,,,,,,,,,,,,,,,,,,,,,,,,,,,,,,,,,,,,,,,,,,,,,,,,,,,,,,,,,,,,,,,,,,,,,,,,,,,,,,,,,,,,,,,,,,,,,,,,,,,,,,,,,,,,
0,86,86,70,1,,61567f148c4094333aaa6d28,62c539b9614ceb72cf758a8b,2022-07-06_09h33.38.444,Colour_Asymmetry_Pilot,2022.1.3,Win32,60.27364234,62c50e9c1127f2cd403a315f,,,,,,,,,,,,,,,,,,,,,,,,,,,,,,,,,,,,,,,,,,,,,,,,,,,,,,,,,,,,,,,,,,,,,,,,,,,,,,,,,,,,,,,,,,,,,,,,,,,,,,,,,,,,,,,,,,,,,,,,,,,,,,,,,,,,,,,,,,,,,,,,,,,,,,,,,,,,,,,,,,,
0,87,87,26,1,,61567f148c4094333aaa6d28,62c539b9614ceb72cf758a8b,2022-07-06_09h33.38.444,Colour_Asymmetry_Pilot,2022.1.3,Win32,60.27364234,62c50e9c1127f2cd403a315f,,,,,,,,,,,,,,,,,,,,,,,,,,,,,,,,,,,,,,,,,,,,,,,,,,,,,,,,,,,,,,,,,,,,,,,,,,,,,,,,,,,,,,,,,,,,,,,,,,,,,,,,,,,,,,,,,,,,,,,,,,,,,,,,,,,,,,,,,,,,,,,,,,,,,,,,,,,,,,,,,,,
0,88,88,89,1,,61567f148c4094333aaa6d28,62c539b9614ceb72cf758a8b,2022-07-06_09h33.38.444,Colour_Asymmetry_Pilot,2022.1.3,Win32,60.27364234,62c50e9c1127f2cd403a315f,,,,,,,,,,,,,,,,,,,,,,,,,,,,,,,,,,,,,,,,,,,,,,,,,,,,,,,,,,,,,,,,,,,,,,,,,,,,,,,,,,,,,,,,,,,,,,,,,,,,,,,,,,,,,,,,,,,,,,,,,,,,,,,,,,,,,,,,,,,,,,,,,,,,,,,,,,,,,,,,,,,
0,89,89,47,1,,61567f148c4094333aaa6d28,62c539b9614ceb72cf758a8b,2022-07-06_09h33.38.444,Colour_Asymmetry_Pilot,2022.1.3,Win32,60.27364234,62c50e9c1127f2cd403a315f,,,,,,,,,,,,,,,,,,,,,,,,,,,,,,,,,,,,,,,,,,,,,,,,,,,,,,,,,,,,,,,,,,,,,,,,,,,,,,,,,,,,,,,,,,,,,,,,,,,,,,,,,,,,,,,,,,,,,,,,,,,,,,,,,,,,,,,,,,,,,,,,,,,,,,,,,,,,,,,,,,,
0,90,90,60,1,,61567f148c4094333aaa6d28,62c539b9614ceb72cf758a8b,2022-07-06_09h33.38.444,Colour_Asymmetry_Pilot,2022.1.3,Win32,60.27364234,62c50e9c1127f2cd403a315f,,,,,,,,,,,,,,,,,,,,,,,,,,,,,,,,,,,,,,,,,,,,,,,,,,,,,,,,,,,,,,,,,,,,,,,,,,,,,,,,,,,,,,,,,,,,,,,,,,,,,,,,,,,,,,,,,,,,,,,,,,,,,,,,,,,,,,,,,,,,,,,,,,,,,,,,,,,,,,,,,,,
0,91,91,61,1,,61567f148c4094333aaa6d28,62c539b9614ceb72cf758a8b,2022-07-06_09h33.38.444,Colour_Asymmetry_Pilot,2022.1.3,Win32,60.27364234,62c50e9c1127f2cd403a315f,,,,,,,,,,,,,,,,,,,,,,,,,,,,,,,,,,,,,,,,,,,,,,,,,,,,,,,,,,,,,,,,,,,,,,,,,,,,,,,,,,,,,,,,,,,,,,,,,,,,,,,,,,,,,,,,,,,,,,,,,,,,,,,,,,,,,,,,,,,,,,,,,,,,,,,,,,,,,,,,,,,
0,92,92,36,1,,61567f148c4094333aaa6d28,62c539b9614ceb72cf758a8b,2022-07-06_09h33.38.444,Colour_Asymmetry_Pilot,2022.1.3,Win32,60.27364234,62c50e9c1127f2cd403a315f,,,,,,,,,,,,,,,,,,,,,,,,,,,,,,,,,,,,,,,,,,,,,,,,,,,,,,,,,,,,,,,,,,,,,,,,,,,,,,,,,,,,,,,,,,,,,,,,,,,,,,,,,,,,,,,,,,,,,,,,,,,,,,,,,,,,,,,,,,,,,,,,,,,,,,,,,,,,,,,,,,,
,,,,,,61567f148c4094333aaa6d28,62c539b9614ceb72cf758a8b,2022-07-06_09h33.38.444,Colour_Asymmetry_Pilot,2022.1.3,Win32,60.27364234,62c50e9c1127f2cd403a315f,0,0,0,23,1,fourthree,,,,,,,,,,,,,,,,,,,,,,,,,,,,,,,,,,,,,,,,,,,,,,,,,,,,,,,,,,,,,,,,,,,,,,,,,,,,,,,,,,,,,,,,,,,,,,,,,,,,,,,,,,,,,,,,,,,,,,,,,,,,,,,,,,,,,,,,,,,,,,,,,,,,,,,,,,,,,
,,,,,,61567f148c4094333aaa6d28,62c539b9614ceb72cf758a8b,2022-07-06_09h33.38.444,Colour_Asymmetry_Pilot,2022.1.3,Win32,60.27364234,62c50e9c1127f2cd403a315f,0,1,1,62,1,fourtwo,,,,,,,,,,,,,,,,,,,,,,,,,,,,,,,,,,,,,,,,,,,,,,,,,,,,,,,,,,,,,,,,,,,,,,,,,,,,,,,,,,,,,,,,,,,,,,,,,,,,,,,,,,,,,,,,,,,,,,,,,,,,,,,,,,,,,,,,,,,,,,,,,,,,,,,,,,,,,
,,,,,,61567f148c4094333aaa6d28,62c539b9614ceb72cf758a8b,2022-07-06_09h33.38.444,Colour_Asymmetry_Pilot,2022.1.3,Win32,60.27364234,62c50e9c1127f2cd403a315f,0,2,2,38,1,fourtwo,,,,,,,,,,,,,,,,,,,,,,,,,,,,,,,,,,,,,,,,,,,,,,,,,,,,,,,,,,,,,,,,,,,,,,,,,,,,,,,,,,,,,,,,,,,,,,,,,,,,,,,,,,,,,,,,,,,,,,,,,,,,,,,,,,,,,,,,,,,,,,,,,,,,,,,,,,,,,
,,,,,,61567f148c4094333aaa6d28,62c539b9614ceb72cf758a8b,2022-07-06_09h33.38.444,Colour_Asymmetry_Pilot,2022.1.3,Win32,60.27364234,62c50e9c1127f2cd403a315f,0,3,3,101,1,threefour,,,,,,,,,,,,,,,,,,,,,,,,,,,,,,,,,,,,,,,,,,,,,,,,,,,,,,,,,,,,,,,,,,,,,,,,,,,,,,,,,,,,,,,,,,,,,,,,,,,,,,,,,,,,,,,,,,,,,,,,,,,,,,,,,,,,,,,,,,,,,,,,,,,,,,,,,,,,,
,,,,,,61567f148c4094333aaa6d28,62c539b9614ceb72cf758a8b,2022-07-06_09h33.38.444,Colour_Asymmetry_Pilot,2022.1.3,Win32,60.27364234,62c50e9c1127f2cd403a315f,0,4,4,116,1,threeone,,,,,,,,,,,,,,,,,,,,,,,,,,,,,,,,,,,,,,,,,,,,,,,,,,,,,,,,,,,,,,,,,,,,,,,,,,,,,,,,,,,,,,,,,,,,,,,,,,,,,,,,,,,,,,,,,,,,,,,,,,,,,,,,,,,,,,,,,,,,,,,,,,,,,,,,,,,,,
,,,,,,61567f148c4094333aaa6d28,62c539b9614ceb72cf758a8b,2022-07-06_09h33.38.444,Colour_Asymmetry_Pilot,2022.1.3,Win32,60.27364234,62c50e9c1127f2cd403a315f,0,5,5,140,1,threeone,,,,,,,,,,,,,,,,,,,,,,,,,,,,,,,,,,,,,,,,,,,,,,,,,,,,,,,,,,,,,,,,,,,,,,,,,,,,,,,,,,,,,,,,,,,,,,,,,,,,,,,,,,,,,,,,,,,,,,,,,,,,,,,,,,,,,,,,,,,,,,,,,,,,,,,,,,,,,
,,,,,,61567f148c4094333aaa6d28,62c539b9614ceb72cf758a8b,2022-07-06_09h33.38.444,Colour_Asymmetry_Pilot,2022.1.3,Win32,60.27364234,62c50e9c1127f2cd403a315f,0,6,6,146,1,twoone,,,,,,,,,,,,,,,,,,,,,,,,,,,,,,,,,,,,,,,,,,,,,,,,,,,,,,,,,,,,,,,,,,,,,,,,,,,,,,,,,,,,,,,,,,,,,,,,,,,,,,,,,,,,,,,,,,,,,,,,,,,,,,,,,,,,,,,,,,,,,,,,,,,,,,,,,,,,,
,,,,,,61567f148c4094333aaa6d28,62c539b9614ceb72cf758a8b,2022-07-06_09h33.38.444,Colour_Asymmetry_Pilot,2022.1.3,Win32,60.27364234,62c50e9c1127f2cd403a315f,0,7,7,104,1,onetwo,,,,,,,,,,,,,,,,,,,,,,,,,,,,,,,,,,,,,,,,,,,,,,,,,,,,,,,,,,,,,,,,,,,,,,,,,,,,,,,,,,,,,,,,,,,,,,,,,,,,,,,,,,,,,,,,,,,,,,,,,,,,,,,,,,,,,,,,,,,,,,,,,,,,,,,,,,,,,
,,,,,,61567f148c4094333aaa6d28,62c539b9614ceb72cf758a8b,2022-07-06_09h33.38.444,Colour_Asymmetry_Pilot,2022.1.3,Win32,60.27364234,62c50e9c1127f2cd403a315f,0,8,8,120,1,onetwo,,,,,,,,,,,,,,,,,,,,,,,,,,,,,,,,,,,,,,,,,,,,,,,,,,,,,,,,,,,,,,,,,,,,,,,,,,,,,,,,,,,,,,,,,,,,,,,,,,,,,,,,,,,,,,,,,,,,,,,,,,,,,,,,,,,,,,,,,,,,,,,,,,,,,,,,,,,,,
,,,,,,61567f148c4094333aaa6d28,62c539b9614ceb72cf758a8b,2022-07-06_09h33.38.444,Colour_Asymmetry_Pilot,2022.1.3,Win32,60.27364234,62c50e9c1127f2cd403a315f,0,9,9,117,1,threefour,,,,,,,,,,,,,,,,,,,,,,,,,,,,,,,,,,,,,,,,,,,,,,,,,,,,,,,,,,,,,,,,,,,,,,,,,,,,,,,,,,,,,,,,,,,,,,,,,,,,,,,,,,,,,,,,,,,,,,,,,,,,,,,,,,,,,,,,,,,,,,,,,,,,,,,,,,,,,
,,,,,,61567f148c4094333aaa6d28,62c539b9614ceb72cf758a8b,2022-07-06_09h33.38.444,Colour_Asymmetry_Pilot,2022.1.3,Win32,60.27364234,62c50e9c1127f2cd403a315f,0,10,10,66,1,twoone,,,,,,,,,,,,,,,,,,,,,,,,,,,,,,,,,,,,,,,,,,,,,,,,,,,,,,,,,,,,,,,,,,,,,,,,,,,,,,,,,,,,,,,,,,,,,,,,,,,,,,,,,,,,,,,,,,,,,,,,,,,,,,,,,,,,,,,,,,,,,,,,,,,,,,,,,,,,,
,,,,,,61567f148c4094333aaa6d28,62c539b9614ceb72cf758a8b,2022-07-06_09h33.38.444,Colour_Asymmetry_Pilot,2022.1.3,Win32,60.27364234,62c50e9c1127f2cd403a315f,0,11,11,139,1,twofour,,,,,,,,,,,,,,,,,,,,,,,,,,,,,,,,,,,,,,,,,,,,,,,,,,,,,,,,,,,,,,,,,,,,,,,,,,,,,,,,,,,,,,,,,,,,,,,,,,,,,,,,,,,,,,,,,,,,,,,,,,,,,,,,,,,,,,,,,,,,,,,,,,,,,,,,,,,,,
,,,,,,61567f148c4094333aaa6d28,62c539b9614ceb72cf758a8b,2022-07-06_09h33.38.444,Colour_Asymmetry_Pilot,2022.1.3,Win32,60.27364234,62c50e9c1127f2cd403a315f,0,12,12,59,1,twofour,,,,,,,,,,,,,,,,,,,,,,,,,,,,,,,,,,,,,,,,,,,,,,,,,,,,,,,,,,,,,,,,,,,,,,,,,,,,,,,,,,,,,,,,,,,,,,,,,,,,,,,,,,,,,,,,,,,,,,,,,,,,,,,,,,,,,,,,,,,,,,,,,,,,,,,,,,,,,
,,,,,,61567f148c4094333aaa6d28,62c539b9614ceb72cf758a8b,2022-07-06_09h33.38.444,Colour_Asymmetry_Pilot,2022.1.3,Win32,60.27364234,62c50e9c1127f2cd403a315f,0,13,13,133,1,threefour,,,,,,,,,,,,,,,,,,,,,,,,,,,,,,,,,,,,,,,,,,,,,,,,,,,,,,,,,,,,,,,,,,,,,,,,,,,,,,,,,,,,,,,,,,,,,,,,,,,,,,,,,,,,,,,,,,,,,,,,,,,,,,,,,,,,,,,,,,,,,,,,,,,,,,,,,,,,,
,,,,,,61567f148c4094333aaa6d28,62c539b9614ceb72cf758a8b,2022-07-06_09h33.38.444,Colour_Asymmetry_Pilot,2022.1.3,Win32,60.27364234,62c50e9c1127f2cd403a315f,0,14,14,6,1,fourtwo,,,,,,,,,,,,,,,,,,,,,,,,,,,,,,,,,,,,,,,,,,,,,,,,,,,,,,,,,,,,,,,,,,,,,,,,,,,,,,,,,,,,,,,,,,,,,,,,,,,,,,,,,,,,,,,,,,,,,,,,,,,,,,,,,,,,,,,,,,,,,,,,,,,,,,,,,,,,,
,,,,,,61567f148c4094333aaa6d28,62c539b9614ceb72cf758a8b,2022-07-06_09h33.38.444,Colour_Asymmetry_Pilot,2022.1.3,Win32,60.27364234,62c50e9c1127f2cd403a315f,0,15,15,144,1,onetwo,,,,,,,,,,,,,,,,,,,,,,,,,,,,,,,,,,,,,,,,,,,,,,,,,,,,,,,,,,,,,,,,,,,,,,,,,,,,,,,,,,,,,,,,,,,,,,,,,,,,,,,,,,,,,,,,,,,,,,,,,,,,,,,,,,,,,,,,,,,,,,,,,,,,,,,,,,,,,
,,,,,,61567f148c4094333aaa6d28,62c539b9614ceb72cf758a8b,2022-07-06_09h33.38.444,Colour_Asymmetry_Pilot,2022.1.3,Win32,60.27364234,62c50e9c1127f2cd403a315f,0,16,16,79,1,fourthree,,,,,,,,,,,,,,,,,,,,,,,,,,,,,,,,,,,,,,,,,,,,,,,,,,,,,,,,,,,,,,,,,,,,,,,,,,,,,,,,,,,,,,,,,,,,,,,,,,,,,,,,,,,,,,,,,,,,,,,,,,,,,,,,,,,,,,,,,,,,,,,,,,,,,,,,,,,,,
,,,,,,61567f148c4094333aaa6d28,62c539b9614ceb72cf758a8b,2022-07-06_09h33.38.444,Colour_Asymmetry_Pilot,2022.1.3,Win32,60.27364234,62c50e9c1127f2cd403a315f,0,17,17,160,1,onetwo,,,,,,,,,,,,,,,,,,,,,,,,,,,,,,,,,,,,,,,,,,,,,,,,,,,,,,,,,,,,,,,,,,,,,,,,,,,,,,,,,,,,,,,,,,,,,,,,,,,,,,,,,,,,,,,,,,,,,,,,,,,,,,,,,,,,,,,,,,,,,,,,,,,,,,,,,,,,,
,,,,,,61567f148c4094333aaa6d28,62c539b9614ceb72cf758a8b,2022-07-06_09h33.38.444,Colour_Asymmetry_Pilot,2022.1.3,Win32,60.27364234,62c50e9c1127f2cd403a315f,0,18,18,157,1,threefour,,,,,,,,,,,,,,,,,,,,,,,,,,,,,,,,,,,,,,,,,,,,,,,,,,,,,,,,,,,,,,,,,,,,,,,,,,,,,,,,,,,,,,,,,,,,,,,,,,,,,,,,,,,,,,,,,,,,,,,,,,,,,,,,,,,,,,,,,,,,,,,,,,,,,,,,,,,,,
,,,,,,61567f148c4094333aaa6d28,62c539b9614ceb72cf758a8b,2022-07-06_09h33.38.444,Colour_Asymmetry_Pilot,2022.1.3,Win32,60.27364234,62c50e9c1127f2cd403a315f,0,19,19,123,1,twofour,,,,,,,,,,,,,,,,,,,,,,,,,,,,,,,,,,,,,,,,,,,,,,,,,,,,,,,,,,,,,,,,,,,,,,,,,,,,,,,,,,,,,,,,,,,,,,,,,,,,,,,,,,,,,,,,,,,,,,,,,,,,,,,,,,,,,,,,,,,,,,,,,,,,,,,,,,,,,
,,,,,,61567f148c4094333aaa6d28,62c539b9614ceb72cf758a8b,2022-07-06_09h33.38.444,Colour_Asymmetry_Pilot,2022.1.3,Win32,60.27364234,62c50e9c1127f2cd403a315f,0,20,20,92,1,threeone,,,,,,,,,,,,,,,,,,,,,,,,,,,,,,,,,,,,,,,,,,,,,,,,,,,,,,,,,,,,,,,,,,,,,,,,,,,,,,,,,,,,,,,,,,,,,,,,,,,,,,,,,,,,,,,,,,,,,,,,,,,,,,,,,,,,,,,,,,,,,,,,,,,,,,,,,,,,,
,,,,,,61567f148c4094333aaa6d28,62c539b9614ceb72cf758a8b,2022-07-06_09h33.38.444,Colour_Asymmetry_Pilot,2022.1.3,Win32,60.27364234,62c50e9c1127f2cd403a315f,0,21,21,7,1,fourthree,,,,,,,,,,,,,,,,,,,,,,,,,,,,,,,,,,,,,,,,,,,,,,,,,,,,,,,,,,,,,,,,,,,,,,,,,,,,,,,,,,,,,,,,,,,,,,,,,,,,,,,,,,,,,,,,,,,,,,,,,,,,,,,,,,,,,,,,,,,,,,,,,,,,,,,,,,,,,
,,,,,,61567f148c4094333aaa6d28,62c539b9614ceb72cf758a8b,2022-07-06_09h33.38.444,Colour_Asymmetry_Pilot,2022.1.3,Win32,60.27364234,62c50e9c1127f2cd403a315f,0,22,22,26,1,twoone,,,,,,,,,,,,,,,,,,,,,,,,,,,,,,,,,,,,,,,,,,,,,,,,,,,,,,,,,,,,,,,,,,,,,,,,,,,,,,,,,,,,,,,,,,,,,,,,,,,,,,,,,,,,,,,,,,,,,,,,,,,,,,,,,,,,,,,,,,,,,,,,,,,,,,,,,,,,,
,,,,,,61567f148c4094333aaa6d28,62c539b9614ceb72cf758a8b,2022-07-06_09h33.38.444,Colour_Asymmetry_Pilot,2022.1.3,Win32,60.27364234,62c50e9c1127f2cd403a315f,0,23,23,127,1,fourthree,,,,,,,,,,,,,,,,,,,,,,,,,,,,,,,,,,,,,,,,,,,,,,,,,,,,,,,,,,,,,,,,,,,,,,,,,,,,,,,,,,,,,,,,,,,,,,,,,,,,,,,,,,,,,,,,,,,,,,,,,,,,,,,,,,,,,,,,,,,,,,,,,,,,,,,,,,,,,
,,,,,,61567f148c4094333aaa6d28,62c539b9614ceb72cf758a8b,2022-07-06_09h33.38.444,Colour_Asymmetry_Pilot,2022.1.3,Win32,60.27364234,62c50e9c1127f2cd403a315f,0,24,24,122,1,twoone,,,,,,,,,,,,,,,,,,,,,,,,,,,,,,,,,,,,,,,,,,,,,,,,,,,,,,,,,,,,,,,,,,,,,,,,,,,,,,,,,,,,,,,,,,,,,,,,,,,,,,,,,,,,,,,,,,,,,,,,,,,,,,,,,,,,,,,,,,,,,,,,,,,,,,,,,,,,,
,,,,,,61567f148c4094333aaa6d28,62c539b9614ceb72cf758a8b,2022-07-06_09h33.38.444,Colour_Asymmetry_Pilot,2022.1.3,Win32,60.27364234,62c50e9c1127f2cd403a315f,0,25,25,52,1,threeone,,,,,,,,,,,,,,,,,,,,,,,,,,,,,,,,,,,,,,,,,,,,,,,,,,,,,,,,,,,,,,,,,,,,,,,,,,,,,,,,,,,,,,,,,,,,,,,,,,,,,,,,,,,,,,,,,,,,,,,,,,,,,,,,,,,,,,,,,,,,,,,,,,,,,,,,,,,,,
,,,,,,61567f148c4094333aaa6d28,62c539b9614ceb72cf758a8b,2022-07-06_09h33.38.444,Colour_Asymmetry_Pilot,2022.1.3,Win32,60.27364234,62c50e9c1127f2cd403a315f,0,26,26,50,1,twoone,,,,,,,,,,,,,,,,,,,,,,,,,,,,,,,,,,,,,,,,,,,,,,,,,,,,,,,,,,,,,,,,,,,,,,,,,,,,,,,,,,,,,,,,,,,,,,,,,,,,,,,,,,,,,,,,,,,,,,,,,,,,,,,,,,,,,,,,,,,,,,,,,,,,,,,,,,,,,
,,,,,,61567f148c4094333aaa6d28,62c539b9614ceb72cf758a8b,2022-07-06_09h33.38.444,Colour_Asymmetry_Pilot,2022.1.3,Win32,60.27364234,62c50e9c1127f2cd403a315f,0,27,27,89,1,onethree,,,,,,,,,,,,,,,,,,,,,,,,,,,,,,,,,,,,,,,,,,,,,,,,,,,,,,,,,,,,,,,,,,,,,,,,,,,,,,,,,,,,,,,,,,,,,,,,,,,,,,,,,,,,,,,,,,,,,,,,,,,,,,,,,,,,,,,,,,,,,,,,,,,,,,,,,,,,,
,,,,,,61567f148c4094333aaa6d28,62c539b9614ceb72cf758a8b,2022-07-06_09h33.38.444,Colour_Asymmetry_Pilot,2022.1.3,Win32,60.27364234,62c50e9c1127f2cd403a315f,0,28,28,138,1,twoone,,,,,,,,,,,,,,,,,,,,,,,,,,,,,,,,,,,,,,,,,,,,,,,,,,,,,,,,,,,,,,,,,,,,,,,,,,,,,,,,,,,,,,,,,,,,,,,,,,,,,,,,,,,,,,,,,,,,,,,,,,,,,,,,,,,,,,,,,,,,,,,,,,,,,,,,,,,,,
,,,,,,61567f148c4094333aaa6d28,62c539b9614ceb72cf758a8b,2022-07-06_09h33.38.444,Colour_Asymmetry_Pilot,2022.1.3,Win32,60.27364234,62c50e9c1127f2cd403a315f,0,29,29,110,1,fourtwo,,,,,,,,,,,,,,,,,,,,,,,,,,,,,,,,,,,,,,,,,,,,,,,,,,,,,,,,,,,,,,,,,,,,,,,,,,,,,,,,,,,,,,,,,,,,,,,,,,,,,,,,,,,,,,,,,,,,,,,,,,,,,,,,,,,,,,,,,,,,,,,,,,,,,,,,,,,,,
,,,,,,61567f148c4094333aaa6d28,62c539b9614ceb72cf758a8b,2022-07-06_09h33.38.444,Colour_Asymmetry_Pilot,2022.1.3,Win32,60.27364234,62c50e9c1127f2cd403a315f,0,30,30,3,1,twofour,,,,,,,,,,,,,,,,,,,,,,,,,,,,,,,,,,,,,,,,,,,,,,,,,,,,,,,,,,,,,,,,,,,,,,,,,,,,,,,,,,,,,,,,,,,,,,,,,,,,,,,,,,,,,,,,,,,,,,,,,,,,,,,,,,,,,,,,,,,,,,,,,,,,,,,,,,,,,
,,,,,,61567f148c4094333aaa6d28,62c539b9614ceb72cf758a8b,2022-07-06_09h33.38.444,Colour_Asymmetry_Pilot,2022.1.3,Win32,60.27364234,62c50e9c1127f2cd403a315f,0,31,31,147,1,twofour,,,,,,,,,,,,,,,,,,,,,,,,,,,,,,,,,,,,,,,,,,,,,,,,,,,,,,,,,,,,,,,,,,,,,,,,,,,,,,,,,,,,,,,,,,,,,,,,,,,,,,,,,,,,,,,,,,,,,,,,,,,,,,,,,,,,,,,,,,,,,,,,,,,,,,,,,,,,,
,,,,,,61567f148c4094333aaa6d28,62c539b9614ceb72cf758a8b,2022-07-06_09h33.38.444,Colour_Asymmetry_Pilot,2022.1.3,Win32,60.27364234,62c50e9c1127f2cd403a315f,0,32,32,39,1,fourthree,,,,,,,,,,,,,,,,,,,,,,,,,,,,,,,,,,,,,,,,,,,,,,,,,,,,,,,,,,,,,,,,,,,,,,,,,,,,,,,,,,,,,,,,,,,,,,,,,,,,,,,,,,,,,,,,,,,,,,,,,,,,,,,,,,,,,,,,,,,,,,,,,,,,,,,,,,,,,
,,,,,,61567f148c4094333aaa6d28,62c539b9614ceb72cf758a8b,2022-07-06_09h33.38.444,Colour_Asymmetry_Pilot,2022.1.3,Win32,60.27364234,62c50e9c1127f2cd403a315f,0,33,33,141,1,threefour,,,,,,,,,,,,,,,,,,,,,,,,,,,,,,,,,,,,,,,,,,,,,,,,,,,,,,,,,,,,,,,,,,,,,,,,,,,,,,,,,,,,,,,,,,,,,,,,,,,,,,,,,,,,,,,,,,,,,,,,,,,,,,,,,,,,,,,,,,,,,,,,,,,,,,,,,,,,,
,,,,,,61567f148c4094333aaa6d28,62c539b9614ceb72cf758a8b,2022-07-06_09h33.38.444,Colour_Asymmetry_Pilot,2022.1.3,Win32,60.27364234,62c50e9c1127f2cd403a315f,0,34,34,29,1,threefour,,,,,,,,,,,,,,,,,,,,,,,,,,,,,,,,,,,,,,,,,,,,,,,,,,,,,,,,,,,,,,,,,,,,,,,,,,,,,,,,,,,,,,,,,,,,,,,,,,,,,,,,,,,,,,,,,,,,,,,,,,,,,,,,,,,,,,,,,,,,,,,,,,,,,,,,,,,,,
,,,,,,61567f148c4094333aaa6d28,62c539b9614ceb72cf758a8b,2022-07-06_09h33.38.444,Colour_Asymmetry_Pilot,2022.1.3,Win32,60.27364234,62c50e9c1127f2cd403a315f,0,35,35,130,1,twoone,,,,,,,,,,,,,,,,,,,,,,,,,,,,,,,,,,,,,,,,,,,,,,,,,,,,,,,,,,,,,,,,,,,,,,,,,,,,,,,,,,,,,,,,,,,,,,,,,,,,,,,,,,,,,,,,,,,,,,,,,,,,,,,,,,,,,,,,,,,,,,,,,,,,,,,,,,,,,
,,,,,,61567f148c4094333aaa6d28,62c539b9614ceb72cf758a8b,2022-07-06_09h33.38.444,Colour_Asymmetry_Pilot,2022.1.3,Win32,60.27364234,62c50e9c1127f2cd403a315f,0,36,36,53,1,threefour,,,,,,,,,,,,,,,,,,,,,,,,,,,,,,,,,,,,,,,,,,,,,,,,,,,,,,,,,,,,,,,,,,,,,,,,,,,,,,,,,,,,,,,,,,,,,,,,,,,,,,,,,,,,,,,,,,,,,,,,,,,,,,,,,,,,,,,,,,,,,,,,,,,,,,,,,,,,,
,,,,,,61567f148c4094333aaa6d28,62c539b9614ceb72cf758a8b,2022-07-06_09h33.38.444,Colour_Asymmetry_Pilot,2022.1.3,Win32,60.27364234,62c50e9c1127f2cd403a315f,0,37,37,112,1,onetwo,,,,,,,,,,,,,,,,,,,,,,,,,,,,,,,,,,,,,,,,,,,,,,,,,,,,,,,,,,,,,,,,,,,,,,,,,,,,,,,,,,,,,,,,,,,,,,,,,,,,,,,,,,,,,,,,,,,,,,,,,,,,,,,,,,,,,,,,,,,,,,,,,,,,,,,,,,,,,
,,,,,,61567f148c4094333aaa6d28,62c539b9614ceb72cf758a8b,2022-07-06_09h33.38.444,Colour_Asymmetry_Pilot,2022.1.3,Win32,60.27364234,62c50e9c1127f2cd403a315f,0,38,38,69,1,threefour,,,,,,,,,,,,,,,,,,,,,,,,,,,,,,,,,,,,,,,,,,,,,,,,,,,,,,,,,,,,,,,,,,,,,,,,,,,,,,,,,,,,,,,,,,,,,,,,,,,,,,,,,,,,,,,,,,,,,,,,,,,,,,,,,,,,,,,,,,,,,,,,,,,,,,,,,,,,,
,,,,,,61567f148c4094333aaa6d28,62c539b9614ceb72cf758a8b,2022-07-06_09h33.38.444,Colour_Asymmetry_Pilot,2022.1.3,Win32,60.27364234,62c50e9c1127f2cd403a315f,0,39,39,97,1,onethree,,,,,,,,,,,,,,,,,,,,,,,,,,,,,,,,,,,,,,,,,,,,,,,,,,,,,,,,,,,,,,,,,,,,,,,,,,,,,,,,,,,,,,,,,,,,,,,,,,,,,,,,,,,,,,,,,,,,,,,,,,,,,,,,,,,,,,,,,,,,,,,,,,,,,,,,,,,,,
,,,,,,61567f148c4094333aaa6d28,62c539b9614ceb72cf758a8b,2022-07-06_09h33.38.444,Colour_Asymmetry_Pilot,2022.1.3,Win32,60.27364234,62c50e9c1127f2cd403a315f,0,40,40,131,1,twofour,,,,,,,,,,,,,,,,,,,,,,,,,,,,,,,,,,,,,,,,,,,,,,,,,,,,,,,,,,,,,,,,,,,,,,,,,,,,,,,,,,,,,,,,,,,,,,,,,,,,,,,,,,,,,,,,,,,,,,,,,,,,,,,,,,,,,,,,,,,,,,,,,,,,,,,,,,,,,
,,,,,,61567f148c4094333aaa6d28,62c539b9614ceb72cf758a8b,2022-07-06_09h33.38.444,Colour_Asymmetry_Pilot,2022.1.3,Win32,60.27364234,62c50e9c1127f2cd403a315f,0,41,41,25,1,onethree,,,,,,,,,,,,,,,,,,,,,,,,,,,,,,,,,,,,,,,,,,,,,,,,,,,,,,,,,,,,,,,,,,,,,,,,,,,,,,,,,,,,,,,,,,,,,,,,,,,,,,,,,,,,,,,,,,,,,,,,,,,,,,,,,,,,,,,,,,,,,,,,,,,,,,,,,,,,,
,,,,,,61567f148c4094333aaa6d28,62c539b9614ceb72cf758a8b,2022-07-06_09h33.38.444,Colour_Asymmetry_Pilot,2022.1.3,Win32,60.27364234,62c50e9c1127f2cd403a315f,0,42,42,145,1,onethree,,,,,,,,,,,,,,,,,,,,,,,,,,,,,,,,,,,,,,,,,,,,,,,,,,,,,,,,,,,,,,,,,,,,,,,,,,,,,,,,,,,,,,,,,,,,,,,,,,,,,,,,,,,,,,,,,,,,,,,,,,,,,,,,,,,,,,,,,,,,,,,,,,,,,,,,,,,,,
,,,,,,61567f148c4094333aaa6d28,62c539b9614ceb72cf758a8b,2022-07-06_09h33.38.444,Colour_Asymmetry_Pilot,2022.1.3,Win32,60.27364234,62c50e9c1127f2cd403a315f,0,43,43,68,1,threeone,,,,,,,,,,,,,,,,,,,,,,,,,,,,,,,,,,,,,,,,,,,,,,,,,,,,,,,,,,,,,,,,,,,,,,,,,,,,,,,,,,,,,,,,,,,,,,,,,,,,,,,,,,,,,,,,,,,,,,,,,,,,,,,,,,,,,,,,,,,,,,,,,,,,,,,,,,,,,
,,,,,,61567f148c4094333aaa6d28,62c539b9614ceb72cf758a8b,2022-07-06_09h33.38.444,Colour_Asymmetry_Pilot,2022.1.3,Win32,60.27364234,62c50e9c1127f2cd403a315f,0,44,44,4,1,threeone,,,,,,,,,,,,,,,,,,,,,,,,,,,,,,,,,,,,,,,,,,,,,,,,,,,,,,,,,,,,,,,,,,,,,,,,,,,,,,,,,,,,,,,,,,,,,,,,,,,,,,,,,,,,,,,,,,,,,,,,,,,,,,,,,,,,,,,,,,,,,,,,,,,,,,,,,,,,,
,,,,,,61567f148c4094333aaa6d28,62c539b9614ceb72cf758a8b,2022-07-06_09h33.38.444,Colour_Asymmetry_Pilot,2022.1.3,Win32,60.27364234,62c50e9c1127f2cd403a315f,0,45,45,9,1,onethree,,,,,,,,,,,,,,,,,,,,,,,,,,,,,,,,,,,,,,,,,,,,,,,,,,,,,,,,,,,,,,,,,,,,,,,,,,,,,,,,,,,,,,,,,,,,,,,,,,,,,,,,,,,,,,,,,,,,,,,,,,,,,,,,,,,,,,,,,,,,,,,,,,,,,,,,,,,,,
,,,,,,61567f148c4094333aaa6d28,62c539b9614ceb72cf758a8b,2022-07-06_09h33.38.444,Colour_Asymmetry_Pilot,2022.1.3,Win32,60.27364234,62c50e9c1127f2cd403a315f,0,46,46,128,1,onetwo,,,,,,,,,,,,,,,,,,,,,,,,,,,,,,,,,,,,,,,,,,,,,,,,,,,,,,,,,,,,,,,,,,,,,,,,,,,,,,,,,,,,,,,,,,,,,,,,,,,,,,,,,,,,,,,,,,,,,,,,,,,,,,,,,,,,,,,,,,,,,,,,,,,,,,,,,,,,,
,,,,,,61567f148c4094333aaa6d28,62c539b9614ceb72cf758a8b,2022-07-06_09h33.38.444,Colour_Asymmetry_Pilot,2022.1.3,Win32,60.27364234,62c50e9c1127f2cd403a315f,0,47,47,87,1,fourthree,,,,,,,,,,,,,,,,,,,,,,,,,,,,,,,,,,,,,,,,,,,,,,,,,,,,,,,,,,,,,,,,,,,,,,,,,,,,,,,,,,,,,,,,,,,,,,,,,,,,,,,,,,,,,,,,,,,,,,,,,,,,,,,,,,,,,,,,,,,,,,,,,,,,,,,,,,,,,
,,,,,,61567f148c4094333aaa6d28,62c539b9614ceb72cf758a8b,2022-07-06_09h33.38.444,Colour_Asymmetry_Pilot,2022.1.3,Win32,60.27364234,62c50e9c1127f2cd403a315f,0,48,48,129,1,onethree,,,,,,,,,,,,,,,,,,,,,,,,,,,,,,,,,,,,,,,,,,,,,,,,,,,,,,,,,,,,,,,,,,,,,,,,,,,,,,,,,,,,,,,,,,,,,,,,,,,,,,,,,,,,,,,,,,,,,,,,,,,,,,,,,,,,,,,,,,,,,,,,,,,,,,,,,,,,,
,,,,,,61567f148c4094333aaa6d28,62c539b9614ceb72cf758a8b,2022-07-06_09h33.38.444,Colour_Asymmetry_Pilot,2022.1.3,Win32,60.27364234,62c50e9c1127f2cd403a315f,0,49,49,106,1,twoone,,,,,,,,,,,,,,,,,,,,,,,,,,,,,,,,,,,,,,,,,,,,,,,,,,,,,,,,,,,,,,,,,,,,,,,,,,,,,,,,,,,,,,,,,,,,,,,,,,,,,,,,,,,,,,,,,,,,,,,,,,,,,,,,,,,,,,,,,,,,,,,,,,,,,,,,,,,,,
,,,,,,61567f148c4094333aaa6d28,62c539b9614ceb72cf758a8b,2022-07-06_09h33.38.444,Colour_Asymmetry_Pilot,2022.1.3,Win32,60.27364234,62c50e9c1127f2cd403a315f,0,50,50,80,1,onetwo,,,,,,,,,,,,,,,,,,,,,,,,,,,,,,,,,,,,,,,,,,,,,,,,,,,,,,,,,,,,,,,,,,,,,,,,,,,,,,,,,,,,,,,,,,,,,,,,,,,,,,,,,,,,,,,,,,,,,,,,,,,,,,,,,,,,,,,,,,,,,,,,,,,,,,,,,,,,,
,,,,,,61567f148c4094333aaa6d28,62c539b9614ceb72cf758a8b,2022-07-06_09h33.38.444,Colour_Asymmetry_Pilot,2022.1.3,Win32,60.27364234,62c50e9c1127f2cd403a315f,0,51,51,100,1,threeone,,,,,,,,,,,,,,,,,,,,,,,,,,,,,,,,,,,,,,,,,,,,,,,,,,,,,,,,,,,,,,,,,,,,,,,,,,,,,,,,,,,,,,,,,,,,,,,,,,,,,,,,,,,,,,,,,,,,,,,,,,,,,,,,,,,,,,,,,,,,,,,,,,,,,,,,,,,,,
,,,,,,61567f148c4094333aaa6d28,62c539b9614ceb72cf758a8b,2022-07-06_09h33.38.444,Colour_Asymmetry_Pilot,2022.1.3,Win32,60.27364234,62c50e9c1127f2cd403a315f,0,52,52,48,1,onetwo,,,,,,,,,,,,,,,,,,,,,,,,,,,,,,,,,,,,,,,,,,,,,,,,,,,,,,,,,,,,,,,,,,,,,,,,,,,,,,,,,,,,,,,,,,,,,,,,,,,,,,,,,,,,,,,,,,,,,,,,,,,,,,,,,,,,,,,,,,,,,,,,,,,,,,,,,,,,,
,,,,,,61567f148c4094333aaa6d28,62c539b9614ceb72cf758a8b,2022-07-06_09h33.38.444,Colour_Asymmetry_Pilot,2022.1.3,Win32,60.27364234,62c50e9c1127f2cd403a315f,0,53,53,148,1,threeone,,,,,,,,,,,,,,,,,,,,,,,,,,,,,,,,,,,,,,,,,,,,,,,,,,,,,,,,,,,,,,,,,,,,,,,,,,,,,,,,,,,,,,,,,,,,,,,,,,,,,,,,,,,,,,,,,,,,,,,,,,,,,,,,,,,,,,,,,,,,,,,,,,,,,,,,,,,,,
,,,,,,61567f148c4094333aaa6d28,62c539b9614ceb72cf758a8b,2022-07-06_09h33.38.444,Colour_Asymmetry_Pilot,2022.1.3,Win32,60.27364234,62c50e9c1127f2cd403a315f,0,54,54,64,1,onetwo,,,,,,,,,,,,,,,,,,,,,,,,,,,,,,,,,,,,,,,,,,,,,,,,,,,,,,,,,,,,,,,,,,,,,,,,,,,,,,,,,,,,,,,,,,,,,,,,,,,,,,,,,,,,,,,,,,,,,,,,,,,,,,,,,,,,,,,,,,,,,,,,,,,,,,,,,,,,,
,,,,,,61567f148c4094333aaa6d28,62c539b9614ceb72cf758a8b,2022-07-06_09h33.38.444,Colour_Asymmetry_Pilot,2022.1.3,Win32,60.27364234,62c50e9c1127f2cd403a315f,0,55,55,152,1,onetwo,,,,,,,,,,,,,,,,,,,,,,,,,,,,,,,,,,,,,,,,,,,,,,,,,,,,,,,,,,,,,,,,,,,,,,,,,,,,,,,,,,,,,,,,,,,,,,,,,,,,,,,,,,,,,,,,,,,,,,,,,,,,,,,,,,,,,,,,,,,,,,,,,,,,,,,,,,,,,
,,,,,,61567f148c4094333aaa6d28,62c539b9614ceb72cf758a8b,2022-07-06_09h33.38.444,Colour_Asymmetry_Pilot,2022.1.3,Win32,60.27364234,62c50e9c1127f2cd403a315f,0,56,56,12,1,threeone,,,,,,,,,,,,,,,,,,,,,,,,,,,,,,,,,,,,,,,,,,,,,,,,,,,,,,,,,,,,,,,,,,,,,,,,,,,,,,,,,,,,,,,,,,,,,,,,,,,,,,,,,,,,,,,,,,,,,,,,,,,,,,,,,,,,,,,,,,,,,,,,,,,,,,,,,,,,,
,,,,,,61567f148c4094333aaa6d28,62c539b9614ceb72cf758a8b,2022-07-06_09h33.38.444,Colour_Asymmetry_Pilot,2022.1.3,Win32,60.27364234,62c50e9c1127f2cd403a315f,0,57,57,28,1,threeone,,,,,,,,,,,,,,,,,,,,,,,,,,,,,,,,,,,,,,,,,,,,,,,,,,,,,,,,,,,,,,,,,,,,,,,,,,,,,,,,,,,,,,,,,,,,,,,,,,,,,,,,,,,,,,,,,,,,,,,,,,,,,,,,,,,,,,,,,,,,,,,,,,,,,,,,,,,,,
,,,,,,61567f148c4094333aaa6d28,62c539b9614ceb72cf758a8b,2022-07-06_09h33.38.444,Colour_Asymmetry_Pilot,2022.1.3,Win32,60.27364234,62c50e9c1127f2cd403a315f,0,58,58,41,1,onethree,,,,,,,,,,,,,,,,,,,,,,,,,,,,,,,,,,,,,,,,,,,,,,,,,,,,,,,,,,,,,,,,,,,,,,,,,,,,,,,,,,,,,,,,,,,,,,,,,,,,,,,,,,,,,,,,,,,,,,,,,,,,,,,,,,,,,,,,,,,,,,,,,,,,,,,,,,,,,
,,,,,,61567f148c4094333aaa6d28,62c539b9614ceb72cf758a8b,2022-07-06_09h33.38.444,Colour_Asymmetry_Pilot,2022.1.3,Win32,60.27364234,62c50e9c1127f2cd403a315f,0,59,59,24,1,onetwo,,,,,,,,,,,,,,,,,,,,,,,,,,,,,,,,,,,,,,,,,,,,,,,,,,,,,,,,,,,,,,,,,,,,,,,,,,,,,,,,,,,,,,,,,,,,,,,,,,,,,,,,,,,,,,,,,,,,,,,,,,,,,,,,,,,,,,,,,,,,,,,,,,,,,,,,,,,,,
,,,,,,61567f148c4094333aaa6d28,62c539b9614ceb72cf758a8b,2022-07-06_09h33.38.444,Colour_Asymmetry_Pilot,2022.1.3,Win32,60.27364234,62c50e9c1127f2cd403a315f,0,60,60,10,1,twoone,,,,,,,,,,,,,,,,,,,,,,,,,,,,,,,,,,,,,,,,,,,,,,,,,,,,,,,,,,,,,,,,,,,,,,,,,,,,,,,,,,,,,,,,,,,,,,,,,,,,,,,,,,,,,,,,,,,,,,,,,,,,,,,,,,,,,,,,,,,,,,,,,,,,,,,,,,,,,
,,,,,,61567f148c4094333aaa6d28,62c539b9614ceb72cf758a8b,2022-07-06_09h33.38.444,Colour_Asymmetry_Pilot,2022.1.3,Win32,60.27364234,62c50e9c1127f2cd403a315f,0,61,61,125,1,threefour,,,,,,,,,,,,,,,,,,,,,,,,,,,,,,,,,,,,,,,,,,,,,,,,,,,,,,,,,,,,,,,,,,,,,,,,,,,,,,,,,,,,,,,,,,,,,,,,,,,,,,,,,,,,,,,,,,,,,,,,,,,,,,,,,,,,,,,,,,,,,,,,,,,,,,,,,,,,,
,,,,,,61567f148c4094333aaa6d28,62c539b9614ceb72cf758a8b,2022-07-06_09h33.38.444,Colour_Asymmetry_Pilot,2022.1.3,Win32,60.27364234,62c50e9c1127f2cd403a315f,0,62,62,32,1,onetwo,,,,,,,,,,,,,,,,,,,,,,,,,,,,,,,,,,,,,,,,,,,,,,,,,,,,,,,,,,,,,,,,,,,,,,,,,,,,,,,,,,,,,,,,,,,,,,,,,,,,,,,,,,,,,,,,,,,,,,,,,,,,,,,,,,,,,,,,,,,,,,,,,,,,,,,,,,,,,
,,,,,,61567f148c4094333aaa6d28,62c539b9614ceb72cf758a8b,2022-07-06_09h33.38.444,Colour_Asymmetry_Pilot,2022.1.3,Win32,60.27364234,62c50e9c1127f2cd403a315f,0,63,63,156,1,threeone,,,,,,,,,,,,,,,,,,,,,,,,,,,,,,,,,,,,,,,,,,,,,,,,,,,,,,,,,,,,,,,,,,,,,,,,,,,,,,,,,,,,,,,,,,,,,,,,,,,,,,,,,,,,,,,,,,,,,,,,,,,,,,,,,,,,,,,,,,,,,,,,,,,,,,,,,,,,,
,,,,,,61567f148c4094333aaa6d28,62c539b9614ceb72cf758a8b,2022-07-06_09h33.38.444,Colour_Asymmetry_Pilot,2022.1.3,Win32,60.27364234,62c50e9c1127f2cd403a315f,0,64,64,81,1,onethree,,,,,,,,,,,,,,,,,,,,,,,,,,,,,,,,,,,,,,,,,,,,,,,,,,,,,,,,,,,,,,,,,,,,,,,,,,,,,,,,,,,,,,,,,,,,,,,,,,,,,,,,,,,,,,,,,,,,,,,,,,,,,,,,,,,,,,,,,,,,,,,,,,,,,,,,,,,,,
,,,,,,61567f148c4094333aaa6d28,62c539b9614ceb72cf758a8b,2022-07-06_09h33.38.444,Colour_Asymmetry_Pilot,2022.1.3,Win32,60.27364234,62c50e9c1127f2cd403a315f,0,65,65,14,1,fourtwo,,,,,,,,,,,,,,,,,,,,,,,,,,,,,,,,,,,,,,,,,,,,,,,,,,,,,,,,,,,,,,,,,,,,,,,,,,,,,,,,,,,,,,,,,,,,,,,,,,,,,,,,,,,,,,,,,,,,,,,,,,,,,,,,,,,,,,,,,,,,,,,,,,,,,,,,,,,,,
,,,,,,61567f148c4094333aaa6d28,62c539b9614ceb72cf758a8b,2022-07-06_09h33.38.444,Colour_Asymmetry_Pilot,2022.1.3,Win32,60.27364234,62c50e9c1127f2cd403a315f,0,66,66,35,1,twofour,,,,,,,,,,,,,,,,,,,,,,,,,,,,,,,,,,,,,,,,,,,,,,,,,,,,,,,,,,,,,,,,,,,,,,,,,,,,,,,,,,,,,,,,,,,,,,,,,,,,,,,,,,,,,,,,,,,,,,,,,,,,,,,,,,,,,,,,,,,,,,,,,,,,,,,,,,,,,
,,,,,,61567f148c4094333aaa6d28,62c539b9614ceb72cf758a8b,2022-07-06_09h33.38.444,Colour_Asymmetry_Pilot,2022.1.3,Win32,60.27364234,62c50e9c1127f2cd403a315f,0,67,67,44,1,threeone,,,,,,,,,,,,,,,,,,,,,,,,,,,,,,,,,,,,,,,,,,,,,,,,,,,,,,,,,,,,,,,,,,,,,,,,,,,,,,,,,,,,,,,,,,,,,,,,,,,,,,,,,,,,,,,,,,,,,,,,,,,,,,,,,,,,,,,,,,,,,,,,,,,,,,,,,,,,,
,,,,,,61567f148c4094333aaa6d28,62c539b9614ceb72cf758a8b,2022-07-06_09h33.38.444,Colour_Asymmetry_Pilot,2022.1.3,Win32,60.27364234,62c50e9c1127f2cd403a315f,0,68,68,67,1,twofour,,,,,,,,,,,,,,,,,,,,,,,,,,,,,,,,,,,,,,,,,,,,,,,,,,,,,,,,,,,,,,,,,,,,,,,,,,,,,,,,,,,,,,,,,,,,,,,,,,,,,,,,,,,,,,,,,,,,,,,,,,,,,,,,,,,,,,,,,,,,,,,,,,,,,,,,,,,,,
,,,,,,61567f148c4094333aaa6d28,62c539b9614ceb72cf758a8b,2022-07-06_09h33.38.444,Colour_Asymmetry_Pilot,2022.1.3,Win32,60.27364234,62c50e9c1127f2cd403a315f,0,69,69,155,1,twofour,,,,,,,,,,,,,,,,,,,,,,,,,,,,,,,,,,,,,,,,,,,,,,,,,,,,,,,,,,,,,,,,,,,,,,,,,,,,,,,,,,,,,,,,,,,,,,,,,,,,,,,,,,,,,,,,,,,,,,,,,,,,,,,,,,,,,,,,,,,,,,,,,,,,,,,,,,,,,
,,,,,,61567f148c4094333aaa6d28,62c539b9614ceb72cf758a8b,2022-07-06_09h33.38.444,Colour_Asymmetry_Pilot,2022.1.3,Win32,60.27364234,62c50e9c1127f2cd403a315f,0,70,70,151,1,fourthree,,,,,,,,,,,,,,,,,,,,,,,,,,,,,,,,,,,,,,,,,,,,,,,,,,,,,,,,,,,,,,,,,,,,,,,,,,,,,,,,,,,,,,,,,,,,,,,,,,,,,,,,,,,,,,,,,,,,,,,,,,,,,,,,,,,,,,,,,,,,,,,,,,,,,,,,,,,,,
,,,,,,61567f148c4094333aaa6d28,62c539b9614ceb72cf758a8b,2022-07-06_09h33.38.444,Colour_Asymmetry_Pilot,2022.1.3,Win32,60.27364234,62c50e9c1127f2cd403a315f,0,71,71,95,1,fourthree,,,,,,,,,,,,,,,,,,,,,,,,,,,,,,,,,,,,,,,,,,,,,,,,,,,,,,,,,,,,,,,,,,,,,,,,,,,,,,,,,,,,,,,,,,,,,,,,,,,,,,,,,,,,,,,,,,,,,,,,,,,,,,,,,,,,,,,,,,,,,,,,,,,,,,,,,,,,,
,,,,,,61567f148c4094333aaa6d28,62c539b9614ceb72cf758a8b,2022-07-06_09h33.38.444,Colour_Asymmetry_Pilot,2022.1.3,Win32,60.27364234,62c50e9c1127f2cd403a315f,0,72,72,78,1,fourtwo,,,,,,,,,,,,,,,,,,,,,,,,,,,,,,,,,,,,,,,,,,,,,,,,,,,,,,,,,,,,,,,,,,,,,,,,,,,,,,,,,,,,,,,,,,,,,,,,,,,,,,,,,,,,,,,,,,,,,,,,,,,,,,,,,,,,,,,,,,,,,,,,,,,,,,,,,,,,,
,,,,,,61567f148c4094333aaa6d28,62c539b9614ceb72cf758a8b,2022-07-06_09h33.38.444,Colour_Asymmetry_Pilot,2022.1.3,Win32,60.27364234,62c50e9c1127f2cd403a315f,0,73,73,105,1,onethree,,,,,,,,,,,,,,,,,,,,,,,,,,,,,,,,,,,,,,,,,,,,,,,,,,,,,,,,,,,,,,,,,,,,,,,,,,,,,,,,,,,,,,,,,,,,,,,,,,,,,,,,,,,,,,,,,,,,,,,,,,,,,,,,,,,,,,,,,,,,,,,,,,,,,,,,,,,,,
,,,,,,61567f148c4094333aaa6d28,62c539b9614ceb72cf758a8b,2022-07-06_09h33.38.444,Colour_Asymmetry_Pilot,2022.1.3,Win32,60.27364234,62c50e9c1127f2cd403a315f,0,74,74,108,1,threeone,,,,,,,,,,,,,,,,,,,,,,,,,,,,,,,,,,,,,,,,,,,,,,,,,,,,,,,,,,,,,,,,,,,,,,,,,,,,,,,,,,,,,,,,,,,,,,,,,,,,,,,,,,,,,,,,,,,,,,,,,,,,,,,,,,,,,,,,,,,,,,,,,,,,,,,,,,,,,
,,,,,,61567f148c4094333aaa6d28,62c539b9614ceb72cf758a8b,2022-07-06_09h33.38.444,Colour_Asymmetry_Pilot,2022.1.3,Win32,60.27364234,62c50e9c1127f2cd403a315f,0,75,75,27,1,twofour,,,,,,,,,,,,,,,,,,,,,,,,,,,,,,,,,,,,,,,,,,,,,,,,,,,,,,,,,,,,,,,,,,,,,,,,,,,,,,,,,,,,,,,,,,,,,,,,,,,,,,,,,,,,,,,,,,,,,,,,,,,,,,,,,,,,,,,,,,,,,,,,,,,,,,,,,,,,,
,,,,,,61567f148c4094333aaa6d28,62c539b9614ceb72cf758a8b,2022-07-06_09h33.38.444,Colour_Asymmetry_Pilot,2022.1.3,Win32,60.27364234,62c50e9c1127f2cd403a315f,0,76,76,75,1,twofour,,,,,,,,,,,,,,,,,,,,,,,,,,,,,,,,,,,,,,,,,,,,,,,,,,,,,,,,,,,,,,,,,,,,,,,,,,,,,,,,,,,,,,,,,,,,,,,,,,,,,,,,,,,,,,,,,,,,,,,,,,,,,,,,,,,,,,,,,,,,,,,,,,,,,,,,,,,,,
,,,,,,61567f148c4094333aaa6d28,62c539b9614ceb72cf758a8b,2022-07-06_09h33.38.444,Colour_Asymmetry_Pilot,2022.1.3,Win32,60.27364234,62c50e9c1127f2cd403a315f,0,77,77,45,1,threefour,,,,,,,,,,,,,,,,,,,,,,,,,,,,,,,,,,,,,,,,,,,,,,,,,,,,,,,,,,,,,,,,,,,,,,,,,,,,,,,,,,,,,,,,,,,,,,,,,,,,,,,,,,,,,,,,,,,,,,,,,,,,,,,,,,,,,,,,,,,,,,,,,,,,,,,,,,,,,
,,,,,,61567f148c4094333aaa6d28,62c539b9614ceb72cf758a8b,2022-07-06_09h33.38.444,Colour_Asymmetry_Pilot,2022.1.3,Win32,60.27364234,62c50e9c1127f2cd403a315f,0,78,78,58,1,twoone,,,,,,,,,,,,,,,,,,,,,,,,,,,,,,,,,,,,,,,,,,,,,,,,,,,,,,,,,,,,,,,,,,,,,,,,,,,,,,,,,,,,,,,,,,,,,,,,,,,,,,,,,,,,,,,,,,,,,,,,,,,,,,,,,,,,,,,,,,,,,,,,,,,,,,,,,,,,,
,,,,,,61567f148c4094333aaa6d28,62c539b9614ceb72cf758a8b,2022-07-06_09h33.38.444,Colour_Asymmetry_Pilot,2022.1.3,Win32,60.27364234,62c50e9c1127f2cd403a315f,0,79,79,96,1,onetwo,,,,,,,,,,,,,,,,,,,,,,,,,,,,,,,,,,,,,,,,,,,,,,,,,,,,,,,,,,,,,,,,,,,,,,,,,,,,,,,,,,,,,,,,,,,,,,,,,,,,,,,,,,,,,,,,,,,,,,,,,,,,,,,,,,,,,,,,,,,,,,,,,,,,,,,,,,,,,
,,,,,,61567f148c4094333aaa6d28,62c539b9614ceb72cf758a8b,2022-07-06_09h33.38.444,Colour_Asymmetry_Pilot,2022.1.3,Win32,60.27364234,62c50e9c1127f2cd403a315f,0,80,80,71,1,fourthree,,,,,,,,,,,,,,,,,,,,,,,,,,,,,,,,,,,,,,,,,,,,,,,,,,,,,,,,,,,,,,,,,,,,,,,,,,,,,,,,,,,,,,,,,,,,,,,,,,,,,,,,,,,,,,,,,,,,,,,,,,,,,,,,,,,,,,,,,,,,,,,,,,,,,,,,,,,,,
,,,,,,61567f148c4094333aaa6d28,62c539b9614ceb72cf758a8b,2022-07-06_09h33.38.444,Colour_Asymmetry_Pilot,2022.1.3,Win32,60.27364234,62c50e9c1127f2cd403a315f,0,81,81,19,1,twofour,,,,,,,,,,,,,,,,,,,,,,,,,,,,,,,,,,,,,,,,,,,,,,,,,,,,,,,,,,,,,,,,,,,,,,,,,,,,,,,,,,,,,,,,,,,,,,,,,,,,,,,,,,,,,,,,,,,,,,,,,,,,,,,,,,,,,,,,,,,,,,,,,,,,,,,,,,,,,
,,,,,,61567f148c4094333aaa6d28,62c539b9614ceb72cf758a8b,2022-07-06_09h33.38.444,Colour_Asymmetry_Pilot,2022.1.3,Win32,60.27364234,62c50e9c1127f2cd403a315f,0,82,82,142,1,fourtwo,,,,,,,,,,,,,,,,,,,,,,,,,,,,,,,,,,,,,,,,,,,,,,,,,,,,,,,,,,,,,,,,,,,,,,,,,,,,,,,,,,,,,,,,,,,,,,,,,,,,,,,,,,,,,,,,,,,,,,,,,,,,,,,,,,,,,,,,,,,,,,,,,,,,,,,,,,,,,
,,,,,,61567f148c4094333aaa6d28,62c539b9614ceb72cf758a8b,2022-07-06_09h33.38.444,Colour_Asymmetry_Pilot,2022.1.3,Win32,60.27364234,62c50e9c1127f2cd403a315f,0,83,83,121,1,onethree,,,,,,,,,,,,,,,,,,,,,,,,,,,,,,,,,,,,,,,,,,,,,,,,,,,,,,,,,,,,,,,,,,,,,,,,,,,,,,,,,,,,,,,,,,,,,,,,,,,,,,,,,,,,,,,,,,,,,,,,,,,,,,,,,,,,,,,,,,,,,,,,,,,,,,,,,,,,,
,,,,,,61567f148c4094333aaa6d28,62c539b9614ceb72cf758a8b,2022-07-06_09h33.38.444,Colour_Asymmetry_Pilot,2022.1.3,Win32,60.27364234,62c50e9c1127f2cd403a315f,0,84,84,82,1,twoone,,,,,,,,,,,,,,,,,,,,,,,,,,,,,,,,,,,,,,,,,,,,,,,,,,,,,,,,,,,,,,,,,,,,,,,,,,,,,,,,,,,,,,,,,,,,,,,,,,,,,,,,,,,,,,,,,,,,,,,,,,,,,,,,,,,,,,,,,,,,,,,,,,,,,,,,,,,,,
,,,,,,61567f148c4094333aaa6d28,62c539b9614ceb72cf758a8b,2022-07-06_09h33.38.444,Colour_Asymmetry_Pilot,2022.1.3,Win32,60.27364234,62c50e9c1127f2cd403a315f,0,85,85,83,1,twofour,,,,,,,,,,,,,,,,,,,,,,,,,,,,,,,,,,,,,,,,,,,,,,,,,,,,,,,,,,,,,,,,,,,,,,,,,,,,,,,,,,,,,,,,,,,,,,,,,,,,,,,,,,,,,,,,,,,,,,,,,,,,,,,,,,,,,,,,,,,,,,,,,,,,,,,,,,,,,
,,,,,,61567f148c4094333aaa6d28,62c539b9614ceb72cf758a8b,2022-07-06_09h33.38.444,Colour_Asymmetry_Pilot,2022.1.3,Win32,60.27364234,62c50e9c1127f2cd403a315f,0,86,86,119,1,fourthree,,,,,,,,,,,,,,,,,,,,,,,,,,,,,,,,,,,,,,,,,,,,,,,,,,,,,,,,,,,,,,,,,,,,,,,,,,,,,,,,,,,,,,,,,,,,,,,,,,,,,,,,,,,,,,,,,,,,,,,,,,,,,,,,,,,,,,,,,,,,,,,,,,,,,,,,,,,,,
,,,,,,61567f148c4094333aaa6d28,62c539b9614ceb72cf758a8b,2022-07-06_09h33.38.444,Colour_Asymmetry_Pilot,2022.1.3,Win32,60.27364234,62c50e9c1127f2cd403a315f,0,87,87,49,1,onethree,,,,,,,,,,,,,,,,,,,,,,,,,,,,,,,,,,,,,,,,,,,,,,,,,,,,,,,,,,,,,,,,,,,,,,,,,,,,,,,,,,,,,,,,,,,,,,,,,,,,,,,,,,,,,,,,,,,,,,,,,,,,,,,,,,,,,,,,,,,,,,,,,,,,,,,,,,,,,
,,,,,,61567f148c4094333aaa6d28,62c539b9614ceb72cf758a8b,2022-07-06_09h33.38.444,Colour_Asymmetry_Pilot,2022.1.3,Win32,60.27364234,62c50e9c1127f2cd403a315f,0,88,88,161,1,onethree,,,,,,,,,,,,,,,,,,,,,,,,,,,,,,,,,,,,,,,,,,,,,,,,,,,,,,,,,,,,,,,,,,,,,,,,,,,,,,,,,,,,,,,,,,,,,,,,,,,,,,,,,,,,,,,,,,,,,,,,,,,,,,,,,,,,,,,,,,,,,,,,,,,,,,,,,,,,,
,,,,,,61567f148c4094333aaa6d28,62c539b9614ceb72cf758a8b,2022-07-06_09h33.38.444,Colour_Asymmetry_Pilot,2022.1.3,Win32,60.27364234,62c50e9c1127f2cd403a315f,0,89,89,43,1,twofour,,,,,,,,,,,,,,,,,,,,,,,,,,,,,,,,,,,,,,,,,,,,,,,,,,,,,,,,,,,,,,,,,,,,,,,,,,,,,,,,,,,,,,,,,,,,,,,,,,,,,,,,,,,,,,,,,,,,,,,,,,,,,,,,,,,,,,,,,,,,,,,,,,,,,,,,,,,,,
,,,,,,61567f148c4094333aaa6d28,62c539b9614ceb72cf758a8b,2022-07-06_09h33.38.444,Colour_Asymmetry_Pilot,2022.1.3,Win32,60.27364234,62c50e9c1127f2cd403a315f,0,90,90,2,1,twoone,,,,,,,,,,,,,,,,,,,,,,,,,,,,,,,,,,,,,,,,,,,,,,,,,,,,,,,,,,,,,,,,,,,,,,,,,,,,,,,,,,,,,,,,,,,,,,,,,,,,,,,,,,,,,,,,,,,,,,,,,,,,,,,,,,,,,,,,,,,,,,,,,,,,,,,,,,,,,
,,,,,,61567f148c4094333aaa6d28,62c539b9614ceb72cf758a8b,2022-07-06_09h33.38.444,Colour_Asymmetry_Pilot,2022.1.3,Win32,60.27364234,62c50e9c1127f2cd403a315f,0,91,91,134,1,fourtwo,,,,,,,,,,,,,,,,,,,,,,,,,,,,,,,,,,,,,,,,,,,,,,,,,,,,,,,,,,,,,,,,,,,,,,,,,,,,,,,,,,,,,,,,,,,,,,,,,,,,,,,,,,,,,,,,,,,,,,,,,,,,,,,,,,,,,,,,,,,,,,,,,,,,,,,,,,,,,
,,,,,,61567f148c4094333aaa6d28,62c539b9614ceb72cf758a8b,2022-07-06_09h33.38.444,Colour_Asymmetry_Pilot,2022.1.3,Win32,60.27364234,62c50e9c1127f2cd403a315f,0,92,92,46,1,fourtwo,,,,,,,,,,,,,,,,,,,,,,,,,,,,,,,,,,,,,,,,,,,,,,,,,,,,,,,,,,,,,,,,,,,,,,,,,,,,,,,,,,,,,,,,,,,,,,,,,,,,,,,,,,,,,,,,,,,,,,,,,,,,,,,,,,,,,,,,,,,,,,,,,,,,,,,,,,,,,
,,,,,,61567f148c4094333aaa6d28,62c539b9614ceb72cf758a8b,2022-07-06_09h33.38.444,Colour_Asymmetry_Pilot,2022.1.3,Win32,60.27364234,62c50e9c1127f2cd403a315f,0,93,93,61,1,threefour,,,,,,,,,,,,,,,,,,,,,,,,,,,,,,,,,,,,,,,,,,,,,,,,,,,,,,,,,,,,,,,,,,,,,,,,,,,,,,,,,,,,,,,,,,,,,,,,,,,,,,,,,,,,,,,,,,,,,,,,,,,,,,,,,,,,,,,,,,,,,,,,,,,,,,,,,,,,,
,,,,,,61567f148c4094333aaa6d28,62c539b9614ceb72cf758a8b,2022-07-06_09h33.38.444,Colour_Asymmetry_Pilot,2022.1.3,Win32,60.27364234,62c50e9c1127f2cd403a315f,0,94,94,0,1,onetwo,,,,,,,,,,,,,,,,,,,,,,,,,,,,,,,,,,,,,,,,,,,,,,,,,,,,,,,,,,,,,,,,,,,,,,,,,,,,,,,,,,,,,,,,,,,,,,,,,,,,,,,,,,,,,,,,,,,,,,,,,,,,,,,,,,,,,,,,,,,,,,,,,,,,,,,,,,,,,
,,,,,,61567f148c4094333aaa6d28,62c539b9614ceb72cf758a8b,2022-07-06_09h33.38.444,Colour_Asymmetry_Pilot,2022.1.3,Win32,60.27364234,62c50e9c1127f2cd403a315f,0,95,95,107,1,twofour,,,,,,,,,,,,,,,,,,,,,,,,,,,,,,,,,,,,,,,,,,,,,,,,,,,,,,,,,,,,,,,,,,,,,,,,,,,,,,,,,,,,,,,,,,,,,,,,,,,,,,,,,,,,,,,,,,,,,,,,,,,,,,,,,,,,,,,,,,,,,,,,,,,,,,,,,,,,,
,,,,,,61567f148c4094333aaa6d28,62c539b9614ceb72cf758a8b,2022-07-06_09h33.38.444,Colour_Asymmetry_Pilot,2022.1.3,Win32,60.27364234,62c50e9c1127f2cd403a315f,0,96,96,98,1,twoone,,,,,,,,,,,,,,,,,,,,,,,,,,,,,,,,,,,,,,,,,,,,,,,,,,,,,,,,,,,,,,,,,,,,,,,,,,,,,,,,,,,,,,,,,,,,,,,,,,,,,,,,,,,,,,,,,,,,,,,,,,,,,,,,,,,,,,,,,,,,,,,,,,,,,,,,,,,,,
,,,,,,61567f148c4094333aaa6d28,62c539b9614ceb72cf758a8b,2022-07-06_09h33.38.444,Colour_Asymmetry_Pilot,2022.1.3,Win32,60.27364234,62c50e9c1127f2cd403a315f,0,97,97,136,1,onetwo,,,,,,,,,,,,,,,,,,,,,,,,,,,,,,,,,,,,,,,,,,,,,,,,,,,,,,,,,,,,,,,,,,,,,,,,,,,,,,,,,,,,,,,,,,,,,,,,,,,,,,,,,,,,,,,,,,,,,,,,,,,,,,,,,,,,,,,,,,,,,,,,,,,,,,,,,,,,,
,,,,,,61567f148c4094333aaa6d28,62c539b9614ceb72cf758a8b,2022-07-06_09h33.38.444,Colour_Asymmetry_Pilot,2022.1.3,Win32,60.27364234,62c50e9c1127f2cd403a315f,0,98,98,20,1,threeone,,,,,,,,,,,,,,,,,,,,,,,,,,,,,,,,,,,,,,,,,,,,,,,,,,,,,,,,,,,,,,,,,,,,,,,,,,,,,,,,,,,,,,,,,,,,,,,,,,,,,,,,,,,,,,,,,,,,,,,,,,,,,,,,,,,,,,,,,,,,,,,,,,,,,,,,,,,,,
,,,,,,61567f148c4094333aaa6d28,62c539b9614ceb72cf758a8b,2022-07-06_09h33.38.444,Colour_Asymmetry_Pilot,2022.1.3,Win32,60.27364234,62c50e9c1127f2cd403a315f,0,99,99,55,1,fourthree,,,,,,,,,,,,,,,,,,,,,,,,,,,,,,,,,,,,,,,,,,,,,,,,,,,,,,,,,,,,,,,,,,,,,,,,,,,,,,,,,,,,,,,,,,,,,,,,,,,,,,,,,,,,,,,,,,,,,,,,,,,,,,,,,,,,,,,,,,,,,,,,,,,,,,,,,,,,,
,,,,,,61567f148c4094333aaa6d28,62c539b9614ceb72cf758a8b,2022-07-06_09h33.38.444,Colour_Asymmetry_Pilot,2022.1.3,Win32,60.27364234,62c50e9c1127f2cd403a315f,0,100,100,70,1,fourtwo,,,,,,,,,,,,,,,,,,,,,,,,,,,,,,,,,,,,,,,,,,,,,,,,,,,,,,,,,,,,,,,,,,,,,,,,,,,,,,,,,,,,,,,,,,,,,,,,,,,,,,,,,,,,,,,,,,,,,,,,,,,,,,,,,,,,,,,,,,,,,,,,,,,,,,,,,,,,,
,,,,,,61567f148c4094333aaa6d28,62c539b9614ceb72cf758a8b,2022-07-06_09h33.38.444,Colour_Asymmetry_Pilot,2022.1.3,Win32,60.27364234,62c50e9c1127f2cd403a315f,0,101,101,11,1,twofour,,,,,,,,,,,,,,,,,,,,,,,,,,,,,,,,,,,,,,,,,,,,,,,,,,,,,,,,,,,,,,,,,,,,,,,,,,,,,,,,,,,,,,,,,,,,,,,,,,,,,,,,,,,,,,,,,,,,,,,,,,,,,,,,,,,,,,,,,,,,,,,,,,,,,,,,,,,,,
,,,,,,61567f148c4094333aaa6d28,62c539b9614ceb72cf758a8b,2022-07-06_09h33.38.444,Colour_Asymmetry_Pilot,2022.1.3,Win32,60.27364234,62c50e9c1127f2cd403a315f,0,102,102,90,1,twoone,,,,,,,,,,,,,,,,,,,,,,,,,,,,,,,,,,,,,,,,,,,,,,,,,,,,,,,,,,,,,,,,,,,,,,,,,,,,,,,,,,,,,,,,,,,,,,,,,,,,,,,,,,,,,,,,,,,,,,,,,,,,,,,,,,,,,,,,,,,,,,,,,,,,,,,,,,,,,
,,,,,,61567f148c4094333aaa6d28,62c539b9614ceb72cf758a8b,2022-07-06_09h33.38.444,Colour_Asymmetry_Pilot,2022.1.3,Win32,60.27364234,62c50e9c1127f2cd403a315f,0,103,103,91,1,twofour,,,,,,,,,,,,,,,,,,,,,,,,,,,,,,,,,,,,,,,,,,,,,,,,,,,,,,,,,,,,,,,,,,,,,,,,,,,,,,,,,,,,,,,,,,,,,,,,,,,,,,,,,,,,,,,,,,,,,,,,,,,,,,,,,,,,,,,,,,,,,,,,,,,,,,,,,,,,,
,,,,,,61567f148c4094333aaa6d28,62c539b9614ceb72cf758a8b,2022-07-06_09h33.38.444,Colour_Asymmetry_Pilot,2022.1.3,Win32,60.27364234,62c50e9c1127f2cd403a315f,0,104,104,60,1,threeone,,,,,,,,,,,,,,,,,,,,,,,,,,,,,,,,,,,,,,,,,,,,,,,,,,,,,,,,,,,,,,,,,,,,,,,,,,,,,,,,,,,,,,,,,,,,,,,,,,,,,,,,,,,,,,,,,,,,,,,,,,,,,,,,,,,,,,,,,,,,,,,,,,,,,,,,,,,,,
,,,,,,61567f148c4094333aaa6d28,62c539b9614ceb72cf758a8b,2022-07-06_09h33.38.444,Colour_Asymmetry_Pilot,2022.1.3,Win32,60.27364234,62c50e9c1127f2cd403a315f,0,105,105,77,1,threefour,,,,,,,,,,,,,,,,,,,,,,,,,,,,,,,,,,,,,,,,,,,,,,,,,,,,,,,,,,,,,,,,,,,,,,,,,,,,,,,,,,,,,,,,,,,,,,,,,,,,,,,,,,,,,,,,,,,,,,,,,,,,,,,,,,,,,,,,,,,,,,,,,,,,,,,,,,,,,
,,,,,,61567f148c4094333aaa6d28,62c539b9614ceb72cf758a8b,2022-07-06_09h33.38.444,Colour_Asymmetry_Pilot,2022.1.3,Win32,60.27364234,62c50e9c1127f2cd403a315f,0,106,106,88,1,onetwo,,,,,,,,,,,,,,,,,,,,,,,,,,,,,,,,,,,,,,,,,,,,,,,,,,,,,,,,,,,,,,,,,,,,,,,,,,,,,,,,,,,,,,,,,,,,,,,,,,,,,,,,,,,,,,,,,,,,,,,,,,,,,,,,,,,,,,,,,,,,,,,,,,,,,,,,,,,,,
,,,,,,61567f148c4094333aaa6d28,62c539b9614ceb72cf758a8b,2022-07-06_09h33.38.444,Colour_Asymmetry_Pilot,2022.1.3,Win32,60.27364234,62c50e9c1127f2cd403a315f,0,107,107,22,1,fourtwo,,,,,,,,,,,,,,,,,,,,,,,,,,,,,,,,,,,,,,,,,,,,,,,,,,,,,,,,,,,,,,,,,,,,,,,,,,,,,,,,,,,,,,,,,,,,,,,,,,,,,,,,,,,,,,,,,,,,,,,,,,,,,,,,,,,,,,,,,,,,,,,,,,,,,,,,,,,,,
,,,,,,61567f148c4094333aaa6d28,62c539b9614ceb72cf758a8b,2022-07-06_09h33.38.444,Colour_Asymmetry_Pilot,2022.1.3,Win32,60.27364234,62c50e9c1127f2cd403a315f,0,108,108,1,1,onethree,,,,,,,,,,,,,,,,,,,,,,,,,,,,,,,,,,,,,,,,,,,,,,,,,,,,,,,,,,,,,,,,,,,,,,,,,,,,,,,,,,,,,,,,,,,,,,,,,,,,,,,,,,,,,,,,,,,,,,,,,,,,,,,,,,,,,,,,,,,,,,,,,,,,,,,,,,,,,
,,,,,,61567f148c4094333aaa6d28,62c539b9614ceb72cf758a8b,2022-07-06_09h33.38.444,Colour_Asymmetry_Pilot,2022.1.3,Win32,60.27364234,62c50e9c1127f2cd403a315f,0,109,109,109,1,threefour,,,,,,,,,,,,,,,,,,,,,,,,,,,,,,,,,,,,,,,,,,,,,,,,,,,,,,,,,,,,,,,,,,,,,,,,,,,,,,,,,,,,,,,,,,,,,,,,,,,,,,,,,,,,,,,,,,,,,,,,,,,,,,,,,,,,,,,,,,,,,,,,,,,,,,,,,,,,,
,,,,,,61567f148c4094333aaa6d28,62c539b9614ceb72cf758a8b,2022-07-06_09h33.38.444,Colour_Asymmetry_Pilot,2022.1.3,Win32,60.27364234,62c50e9c1127f2cd403a315f,0,110,110,33,1,onethree,,,,,,,,,,,,,,,,,,,,,,,,,,,,,,,,,,,,,,,,,,,,,,,,,,,,,,,,,,,,,,,,,,,,,,,,,,,,,,,,,,,,,,,,,,,,,,,,,,,,,,,,,,,,,,,,,,,,,,,,,,,,,,,,,,,,,,,,,,,,,,,,,,,,,,,,,,,,,
,,,,,,61567f148c4094333aaa6d28,62c539b9614ceb72cf758a8b,2022-07-06_09h33.38.444,Colour_Asymmetry_Pilot,2022.1.3,Win32,60.27364234,62c50e9c1127f2cd403a315f,0,111,111,17,1,onethree,,,,,,,,,,,,,,,,,,,,,,,,,,,,,,,,,,,,,,,,,,,,,,,,,,,,,,,,,,,,,,,,,,,,,,,,,,,,,,,,,,,,,,,,,,,,,,,,,,,,,,,,,,,,,,,,,,,,,,,,,,,,,,,,,,,,,,,,,,,,,,,,,,,,,,,,,,,,,
,,,,,,61567f148c4094333aaa6d28,62c539b9614ceb72cf758a8b,2022-07-06_09h33.38.444,Colour_Asymmetry_Pilot,2022.1.3,Win32,60.27364234,62c50e9c1127f2cd403a315f,0,112,112,118,1,fourtwo,,,,,,,,,,,,,,,,,,,,,,,,,,,,,,,,,,,,,,,,,,,,,,,,,,,,,,,,,,,,,,,,,,,,,,,,,,,,,,,,,,,,,,,,,,,,,,,,,,,,,,,,,,,,,,,,,,,,,,,,,,,,,,,,,,,,,,,,,,,,,,,,,,,,,,,,,,,,,
,,,,,,61567f148c4094333aaa6d28,62c539b9614ceb72cf758a8b,2022-07-06_09h33.38.444,Colour_Asymmetry_Pilot,2022.1.3,Win32,60.27364234,62c50e9c1127f2cd403a315f,0,113,113,143,1,fourthree,,,,,,,,,,,,,,,,,,,,,,,,,,,,,,,,,,,,,,,,,,,,,,,,,,,,,,,,,,,,,,,,,,,,,,,,,,,,,,,,,,,,,,,,,,,,,,,,,,,,,,,,,,,,,,,,,,,,,,,,,,,,,,,,,,,,,,,,,,,,,,,,,,,,,,,,,,,,,
,,,,,,61567f148c4094333aaa6d28,62c539b9614ceb72cf758a8b,2022-07-06_09h33.38.444,Colour_Asymmetry_Pilot,2022.1.3,Win32,60.27364234,62c50e9c1127f2cd403a315f,0,114,114,150,1,fourtwo,,,,,,,,,,,,,,,,,,,,,,,,,,,,,,,,,,,,,,,,,,,,,,,,,,,,,,,,,,,,,,,,,,,,,,,,,,,,,,,,,,,,,,,,,,,,,,,,,,,,,,,,,,,,,,,,,,,,,,,,,,,,,,,,,,,,,,,,,,,,,,,,,,,,,,,,,,,,,
,,,,,,61567f148c4094333aaa6d28,62c539b9614ceb72cf758a8b,2022-07-06_09h33.38.444,Colour_Asymmetry_Pilot,2022.1.3,Win32,60.27364234,62c50e9c1127f2cd403a315f,0,115,115,16,1,onetwo,,,,,,,,,,,,,,,,,,,,,,,,,,,,,,,,,,,,,,,,,,,,,,,,,,,,,,,,,,,,,,,,,,,,,,,,,,,,,,,,,,,,,,,,,,,,,,,,,,,,,,,,,,,,,,,,,,,,,,,,,,,,,,,,,,,,,,,,,,,,,,,,,,,,,,,,,,,,,
,,,,,,61567f148c4094333aaa6d28,62c539b9614ceb72cf758a8b,2022-07-06_09h33.38.444,Colour_Asymmetry_Pilot,2022.1.3,Win32,60.27364234,62c50e9c1127f2cd403a315f,0,116,116,114,1,twoone,,,,,,,,,,,,,,,,,,,,,,,,,,,,,,,,,,,,,,,,,,,,,,,,,,,,,,,,,,,,,,,,,,,,,,,,,,,,,,,,,,,,,,,,,,,,,,,,,,,,,,,,,,,,,,,,,,,,,,,,,,,,,,,,,,,,,,,,,,,,,,,,,,,,,,,,,,,,,
,,,,,,61567f148c4094333aaa6d28,62c539b9614ceb72cf758a8b,2022-07-06_09h33.38.444,Colour_Asymmetry_Pilot,2022.1.3,Win32,60.27364234,62c50e9c1127f2cd403a315f,0,117,117,84,1,threeone,,,,,,,,,,,,,,,,,,,,,,,,,,,,,,,,,,,,,,,,,,,,,,,,,,,,,,,,,,,,,,,,,,,,,,,,,,,,,,,,,,,,,,,,,,,,,,,,,,,,,,,,,,,,,,,,,,,,,,,,,,,,,,,,,,,,,,,,,,,,,,,,,,,,,,,,,,,,,
,,,,,,61567f148c4094333aaa6d28,62c539b9614ceb72cf758a8b,2022-07-06_09h33.38.444,Colour_Asymmetry_Pilot,2022.1.3,Win32,60.27364234,62c50e9c1127f2cd403a315f,0,118,118,158,1,fourtwo,,,,,,,,,,,,,,,,,,,,,,,,,,,,,,,,,,,,,,,,,,,,,,,,,,,,,,,,,,,,,,,,,,,,,,,,,,,,,,,,,,,,,,,,,,,,,,,,,,,,,,,,,,,,,,,,,,,,,,,,,,,,,,,,,,,,,,,,,,,,,,,,,,,,,,,,,,,,,
,,,,,,61567f148c4094333aaa6d28,62c539b9614ceb72cf758a8b,2022-07-06_09h33.38.444,Colour_Asymmetry_Pilot,2022.1.3,Win32,60.27364234,62c50e9c1127f2cd403a315f,0,119,119,72,1,onetwo,,,,,,,,,,,,,,,,,,,,,,,,,,,,,,,,,,,,,,,,,,,,,,,,,,,,,,,,,,,,,,,,,,,,,,,,,,,,,,,,,,,,,,,,,,,,,,,,,,,,,,,,,,,,,,,,,,,,,,,,,,,,,,,,,,,,,,,,,,,,,,,,,,,,,,,,,,,,,
,,,,,,61567f148c4094333aaa6d28,62c539b9614ceb72cf758a8b,2022-07-06_09h33.38.444,Colour_Asymmetry_Pilot,2022.1.3,Win32,60.27364234,62c50e9c1127f2cd403a315f,0,120,120,63,1,fourthree,,,,,,,,,,,,,,,,,,,,,,,,,,,,,,,,,,,,,,,,,,,,,,,,,,,,,,,,,,,,,,,,,,,,,,,,,,,,,,,,,,,,,,,,,,,,,,,,,,,,,,,,,,,,,,,,,,,,,,,,,,,,,,,,,,,,,,,,,,,,,,,,,,,,,,,,,,,,,
,,,,,,61567f148c4094333aaa6d28,62c539b9614ceb72cf758a8b,2022-07-06_09h33.38.444,Colour_Asymmetry_Pilot,2022.1.3,Win32,60.27364234,62c50e9c1127f2cd403a315f,0,121,121,154,1,twoone,,,,,,,,,,,,,,,,,,,,,,,,,,,,,,,,,,,,,,,,,,,,,,,,,,,,,,,,,,,,,,,,,,,,,,,,,,,,,,,,,,,,,,,,,,,,,,,,,,,,,,,,,,,,,,,,,,,,,,,,,,,,,,,,,,,,,,,,,,,,,,,,,,,,,,,,,,,,,
,,,,,,61567f148c4094333aaa6d28,62c539b9614ceb72cf758a8b,2022-07-06_09h33.38.444,Colour_Asymmetry_Pilot,2022.1.3,Win32,60.27364234,62c50e9c1127f2cd403a315f,0,122,122,74,1,twoone,,,,,,,,,,,,,,,,,,,,,,,,,,,,,,,,,,,,,,,,,,,,,,,,,,,,,,,,,,,,,,,,,,,,,,,,,,,,,,,,,,,,,,,,,,,,,,,,,,,,,,,,,,,,,,,,,,,,,,,,,,,,,,,,,,,,,,,,,,,,,,,,,,,,,,,,,,,,,
,,,,,,61567f148c4094333aaa6d28,62c539b9614ceb72cf758a8b,2022-07-06_09h33.38.444,Colour_Asymmetry_Pilot,2022.1.3,Win32,60.27364234,62c50e9c1127f2cd403a315f,0,123,123,40,1,onetwo,,,,,,,,,,,,,,,,,,,,,,,,,,,,,,,,,,,,,,,,,,,,,,,,,,,,,,,,,,,,,,,,,,,,,,,,,,,,,,,,,,,,,,,,,,,,,,,,,,,,,,,,,,,,,,,,,,,,,,,,,,,,,,,,,,,,,,,,,,,,,,,,,,,,,,,,,,,,,
,,,,,,61567f148c4094333aaa6d28,62c539b9614ceb72cf758a8b,2022-07-06_09h33.38.444,Colour_Asymmetry_Pilot,2022.1.3,Win32,60.27364234,62c50e9c1127f2cd403a315f,0,124,124,31,1,fourthree,,,,,,,,,,,,,,,,,,,,,,,,,,,,,,,,,,,,,,,,,,,,,,,,,,,,,,,,,,,,,,,,,,,,,,,,,,,,,,,,,,,,,,,,,,,,,,,,,,,,,,,,,,,,,,,,,,,,,,,,,,,,,,,,,,,,,,,,,,,,,,,,,,,,,,,,,,,,,
,,,,,,61567f148c4094333aaa6d28,62c539b9614ceb72cf758a8b,2022-07-06_09h33.38.444,Colour_Asymmetry_Pilot,2022.1.3,Win32,60.27364234,62c50e9c1127f2cd403a315f,0,125,125,65,1,onethree,,,,,,,,,,,,,,,,,,,,,,,,,,,,,,,,,,,,,,,,,,,,,,,,,,,,,,,,,,,,,,,,,,,,,,,,,,,,,,,,,,,,,,,,,,,,,,,,,,,,,,,,,,,,,,,,,,,,,,,,,,,,,,,,,,,,,,,,,,,,,,,,,,,,,,,,,,,,,
,,,,,,61567f148c4094333aaa6d28,62c539b9614ceb72cf758a8b,2022-07-06_09h33.38.444,Colour_Asymmetry_Pilot,2022.1.3,Win32,60.27364234,62c50e9c1127f2cd403a315f,0,126,126,57,1,onethree,,,,,,,,,,,,,,,,,,,,,,,,,,,,,,,,,,,,,,,,,,,,,,,,,,,,,,,,,,,,,,,,,,,,,,,,,,,,,,,,,,,,,,,,,,,,,,,,,,,,,,,,,,,,,,,,,,,,,,,,,,,,,,,,,,,,,,,,,,,,,,,,,,,,,,,,,,,,,
,,,,,,61567f148c4094333aaa6d28,62c539b9614ceb72cf758a8b,2022-07-06_09h33.38.444,Colour_Asymmetry_Pilot,2022.1.3,Win32,60.27364234,62c50e9c1127f2cd403a315f,0,127,127,102,1,fourtwo,,,,,,,,,,,,,,,,,,,,,,,,,,,,,,,,,,,,,,,,,,,,,,,,,,,,,,,,,,,,,,,,,,,,,,,,,,,,,,,,,,,,,,,,,,,,,,,,,,,,,,,,,,,,,,,,,,,,,,,,,,,,,,,,,,,,,,,,,,,,,,,,,,,,,,,,,,,,,
,,,,,,61567f148c4094333aaa6d28,62c539b9614ceb72cf758a8b,2022-07-06_09h33.38.444,Colour_Asymmetry_Pilot,2022.1.3,Win32,60.27364234,62c50e9c1127f2cd403a315f,0,128,128,159,1,fourthree,,,,,,,,,,,,,,,,,,,,,,,,,,,,,,,,,,,,,,,,,,,,,,,,,,,,,,,,,,,,,,,,,,,,,,,,,,,,,,,,,,,,,,,,,,,,,,,,,,,,,,,,,,,,,,,,,,,,,,,,,,,,,,,,,,,,,,,,,,,,,,,,,,,,,,,,,,,,,
,,,,,,61567f148c4094333aaa6d28,62c539b9614ceb72cf758a8b,2022-07-06_09h33.38.444,Colour_Asymmetry_Pilot,2022.1.3,Win32,60.27364234,62c50e9c1127f2cd403a315f,0,129,129,76,1,threeone,,,,,,,,,,,,,,,,,,,,,,,,,,,,,,,,,,,,,,,,,,,,,,,,,,,,,,,,,,,,,,,,,,,,,,,,,,,,,,,,,,,,,,,,,,,,,,,,,,,,,,,,,,,,,,,,,,,,,,,,,,,,,,,,,,,,,,,,,,,,,,,,,,,,,,,,,,,,,
,,,,,,61567f148c4094333aaa6d28,62c539b9614ceb72cf758a8b,2022-07-06_09h33.38.444,Colour_Asymmetry_Pilot,2022.1.3,Win32,60.27364234,62c50e9c1127f2cd403a315f,0,130,130,86,1,fourtwo,,,,,,,,,,,,,,,,,,,,,,,,,,,,,,,,,,,,,,,,,,,,,,,,,,,,,,,,,,,,,,,,,,,,,,,,,,,,,,,,,,,,,,,,,,,,,,,,,,,,,,,,,,,,,,,,,,,,,,,,,,,,,,,,,,,,,,,,,,,,,,,,,,,,,,,,,,,,,
,,,,,,61567f148c4094333aaa6d28,62c539b9614ceb72cf758a8b,2022-07-06_09h33.38.444,Colour_Asymmetry_Pilot,2022.1.3,Win32,60.27364234,62c50e9c1127f2cd403a315f,0,131,131,149,1,threefour,,,,,,,,,,,,,,,,,,,,,,,,,,,,,,,,,,,,,,,,,,,,,,,,,,,,,,,,,,,,,,,,,,,,,,,,,,,,,,,,,,,,,,,,,,,,,,,,,,,,,,,,,,,,,,,,,,,,,,,,,,,,,,,,,,,,,,,,,,,,,,,,,,,,,,,,,,,,,
,,,,,,61567f148c4094333aaa6d28,62c539b9614ceb72cf758a8b,2022-07-06_09h33.38.444,Colour_Asymmetry_Pilot,2022.1.3,Win32,60.27364234,62c50e9c1127f2cd403a315f,0,132,132,126,1,fourtwo,,,,,,,,,,,,,,,,,,,,,,,,,,,,,,,,,,,,,,,,,,,,,,,,,,,,,,,,,,,,,,,,,,,,,,,,,,,,,,,,,,,,,,,,,,,,,,,,,,,,,,,,,,,,,,,,,,,,,,,,,,,,,,,,,,,,,,,,,,,,,,,,,,,,,,,,,,,,,
,,,,,,61567f148c4094333aaa6d28,62c539b9614ceb72cf758a8b,2022-07-06_09h33.38.444,Colour_Asymmetry_Pilot,2022.1.3,Win32,60.27364234,62c50e9c1127f2cd403a315f,0,133,133,18,1,twoone,,,,,,,,,,,,,,,,,,,,,,,,,,,,,,,,,,,,,,,,,,,,,,,,,,,,,,,,,,,,,,,,,,,,,,,,,,,,,,,,,,,,,,,,,,,,,,,,,,,,,,,,,,,,,,,,,,,,,,,,,,,,,,,,,,,,,,,,,,,,,,,,,,,,,,,,,,,,,
,,,,,,61567f148c4094333aaa6d28,62c539b9614ceb72cf758a8b,2022-07-06_09h33.38.444,Colour_Asymmetry_Pilot,2022.1.3,Win32,60.27364234,62c50e9c1127f2cd403a315f,0,134,134,99,1,twofour,,,,,,,,,,,,,,,,,,,,,,,,,,,,,,,,,,,,,,,,,,,,,,,,,,,,,,,,,,,,,,,,,,,,,,,,,,,,,,,,,,,,,,,,,,,,,,,,,,,,,,,,,,,,,,,,,,,,,,,,,,,,,,,,,,,,,,,,,,,,,,,,,,,,,,,,,,,,,
,,,,,,61567f148c4094333aaa6d28,62c539b9614ceb72cf758a8b,2022-07-06_09h33.38.444,Colour_Asymmetry_Pilot,2022.1.3,Win32,60.27364234,62c50e9c1127f2cd403a315f,0,135,135,54,1,fourtwo,,,,,,,,,,,,,,,,,,,,,,,,,,,,,,,,,,,,,,,,,,,,,,,,,,,,,,,,,,,,,,,,,,,,,,,,,,,,,,,,,,,,,,,,,,,,,,,,,,,,,,,,,,,,,,,,,,,,,,,,,,,,,,,,,,,,,,,,,,,,,,,,,,,,,,,,,,,,,
,,,,,,61567f148c4094333aaa6d28,62c539b9614ceb72cf758a8b,2022-07-06_09h33.38.444,Colour_Asymmetry_Pilot,2022.1.3,Win32,60.27364234,62c50e9c1127f2cd403a315f,0,136,136,115,1,twofour,,,,,,,,,,,,,,,,,,,,,,,,,,,,,,,,,,,,,,,,,,,,,,,,,,,,,,,,,,,,,,,,,,,,,,,,,,,,,,,,,,,,,,,,,,,,,,,,,,,,,,,,,,,,,,,,,,,,,,,,,,,,,,,,,,,,,,,,,,,,,,,,,,,,,,,,,,,,,
,,,,,,61567f148c4094333aaa6d28,62c539b9614ceb72cf758a8b,2022-07-06_09h33.38.444,Colour_Asymmetry_Pilot,2022.1.3,Win32,60.27364234,62c50e9c1127f2cd403a315f,0,137,137,13,1,threefour,,,,,,,,,,,,,,,,,,,,,,,,,,,,,,,,,,,,,,,,,,,,,,,,,,,,,,,,,,,,,,,,,,,,,,,,,,,,,,,,,,,,,,,,,,,,,,,,,,,,,,,,,,,,,,,,,,,,,,,,,,,,,,,,,,,,,,,,,,,,,,,,,,,,,,,,,,,,,
,,,,,,61567f148c4094333aaa6d28,62c539b9614ceb72cf758a8b,2022-07-06_09h33.38.444,Colour_Asymmetry_Pilot,2022.1.3,Win32,60.27364234,62c50e9c1127f2cd403a315f,0,138,138,73,1,onethree,,,,,,,,,,,,,,,,,,,,,,,,,,,,,,,,,,,,,,,,,,,,,,,,,,,,,,,,,,,,,,,,,,,,,,,,,,,,,,,,,,,,,,,,,,,,,,,,,,,,,,,,,,,,,,,,,,,,,,,,,,,,,,,,,,,,,,,,,,,,,,,,,,,,,,,,,,,,,
,,,,,,61567f148c4094333aaa6d28,62c539b9614ceb72cf758a8b,2022-07-06_09h33.38.444,Colour_Asymmetry_Pilot,2022.1.3,Win32,60.27364234,62c50e9c1127f2cd403a315f,0,139,139,93,1,threefour,,,,,,,,,,,,,,,,,,,,,,,,,,,,,,,,,,,,,,,,,,,,,,,,,,,,,,,,,,,,,,,,,,,,,,,,,,,,,,,,,,,,,,,,,,,,,,,,,,,,,,,,,,,,,,,,,,,,,,,,,,,,,,,,,,,,,,,,,,,,,,,,,,,,,,,,,,,,,
,,,,,,61567f148c4094333aaa6d28,62c539b9614ceb72cf758a8b,2022-07-06_09h33.38.444,Colour_Asymmetry_Pilot,2022.1.3,Win32,60.27364234,62c50e9c1127f2cd403a315f,0,140,140,42,1,twoone,,,,,,,,,,,,,,,,,,,,,,,,,,,,,,,,,,,,,,,,,,,,,,,,,,,,,,,,,,,,,,,,,,,,,,,,,,,,,,,,,,,,,,,,,,,,,,,,,,,,,,,,,,,,,,,,,,,,,,,,,,,,,,,,,,,,,,,,,,,,,,,,,,,,,,,,,,,,,
,,,,,,61567f148c4094333aaa6d28,62c539b9614ceb72cf758a8b,2022-07-06_09h33.38.444,Colour_Asymmetry_Pilot,2022.1.3,Win32,60.27364234,62c50e9c1127f2cd403a315f,0,141,141,47,1,fourthree,,,,,,,,,,,,,,,,,,,,,,,,,,,,,,,,,,,,,,,,,,,,,,,,,,,,,,,,,,,,,,,,,,,,,,,,,,,,,,,,,,,,,,,,,,,,,,,,,,,,,,,,,,,,,,,,,,,,,,,,,,,,,,,,,,,,,,,,,,,,,,,,,,,,,,,,,,,,,
,,,,,,61567f148c4094333aaa6d28,62c539b9614ceb72cf758a8b,2022-07-06_09h33.38.444,Colour_Asymmetry_Pilot,2022.1.3,Win32,60.27364234,62c50e9c1127f2cd403a315f,0,142,142,153,1,onethree,,,,,,,,,,,,,,,,,,,,,,,,,,,,,,,,,,,,,,,,,,,,,,,,,,,,,,,,,,,,,,,,,,,,,,,,,,,,,,,,,,,,,,,,,,,,,,,,,,,,,,,,,,,,,,,,,,,,,,,,,,,,,,,,,,,,,,,,,,,,,,,,,,,,,,,,,,,,,
,,,,,,61567f148c4094333aaa6d28,62c539b9614ceb72cf758a8b,2022-07-06_09h33.38.444,Colour_Asymmetry_Pilot,2022.1.3,Win32,60.27364234,62c50e9c1127f2cd403a315f,0,143,143,113,1,onethree,,,,,,,,,,,,,,,,,,,,,,,,,,,,,,,,,,,,,,,,,,,,,,,,,,,,,,,,,,,,,,,,,,,,,,,,,,,,,,,,,,,,,,,,,,,,,,,,,,,,,,,,,,,,,,,,,,,,,,,,,,,,,,,,,,,,,,,,,,,,,,,,,,,,,,,,,,,,,
,,,,,,61567f148c4094333aaa6d28,62c539b9614ceb72cf758a8b,2022-07-06_09h33.38.444,Colour_Asymmetry_Pilot,2022.1.3,Win32,60.27364234,62c50e9c1127f2cd403a315f,0,144,144,5,1,threefour,,,,,,,,,,,,,,,,,,,,,,,,,,,,,,,,,,,,,,,,,,,,,,,,,,,,,,,,,,,,,,,,,,,,,,,,,,,,,,,,,,,,,,,,,,,,,,,,,,,,,,,,,,,,,,,,,,,,,,,,,,,,,,,,,,,,,,,,,,,,,,,,,,,,,,,,,,,,,
,,,,,,61567f148c4094333aaa6d28,62c539b9614ceb72cf758a8b,2022-07-06_09h33.38.444,Colour_Asymmetry_Pilot,2022.1.3,Win32,60.27364234,62c50e9c1127f2cd403a315f,0,145,145,137,1,onethree,,,,,,,,,,,,,,,,,,,,,,,,,,,,,,,,,,,,,,,,,,,,,,,,,,,,,,,,,,,,,,,,,,,,,,,,,,,,,,,,,,,,,,,,,,,,,,,,,,,,,,,,,,,,,,,,,,,,,,,,,,,,,,,,,,,,,,,,,,,,,,,,,,,,,,,,,,,,,
,,,,,,61567f148c4094333aaa6d28,62c539b9614ceb72cf758a8b,2022-07-06_09h33.38.444,Colour_Asymmetry_Pilot,2022.1.3,Win32,60.27364234,62c50e9c1127f2cd403a315f,0,146,146,30,1,fourtwo,,,,,,,,,,,,,,,,,,,,,,,,,,,,,,,,,,,,,,,,,,,,,,,,,,,,,,,,,,,,,,,,,,,,,,,,,,,,,,,,,,,,,,,,,,,,,,,,,,,,,,,,,,,,,,,,,,,,,,,,,,,,,,,,,,,,,,,,,,,,,,,,,,,,,,,,,,,,,
,,,,,,61567f148c4094333aaa6d28,62c539b9614ceb72cf758a8b,2022-07-06_09h33.38.444,Colour_Asymmetry_Pilot,2022.1.3,Win32,60.27364234,62c50e9c1127f2cd403a315f,0,147,147,51,1,twofour,,,,,,,,,,,,,,,,,,,,,,,,,,,,,,,,,,,,,,,,,,,,,,,,,,,,,,,,,,,,,,,,,,,,,,,,,,,,,,,,,,,,,,,,,,,,,,,,,,,,,,,,,,,,,,,,,,,,,,,,,,,,,,,,,,,,,,,,,,,,,,,,,,,,,,,,,,,,,
,,,,,,61567f148c4094333aaa6d28,62c539b9614ceb72cf758a8b,2022-07-06_09h33.38.444,Colour_Asymmetry_Pilot,2022.1.3,Win32,60.27364234,62c50e9c1127f2cd403a315f,0,148,148,132,1,threeone,,,,,,,,,,,,,,,,,,,,,,,,,,,,,,,,,,,,,,,,,,,,,,,,,,,,,,,,,,,,,,,,,,,,,,,,,,,,,,,,,,,,,,,,,,,,,,,,,,,,,,,,,,,,,,,,,,,,,,,,,,,,,,,,,,,,,,,,,,,,,,,,,,,,,,,,,,,,,
,,,,,,61567f148c4094333aaa6d28,62c539b9614ceb72cf758a8b,2022-07-06_09h33.38.444,Colour_Asymmetry_Pilot,2022.1.3,Win32,60.27364234,62c50e9c1127f2cd403a315f,0,149,149,8,1,onetwo,,,,,,,,,,,,,,,,,,,,,,,,,,,,,,,,,,,,,,,,,,,,,,,,,,,,,,,,,,,,,,,,,,,,,,,,,,,,,,,,,,,,,,,,,,,,,,,,,,,,,,,,,,,,,,,,,,,,,,,,,,,,,,,,,,,,,,,,,,,,,,,,,,,,,,,,,,,,,
,,,,,,61567f148c4094333aaa6d28,62c539b9614ceb72cf758a8b,2022-07-06_09h33.38.444,Colour_Asymmetry_Pilot,2022.1.3,Win32,60.27364234,62c50e9c1127f2cd403a315f,0,150,150,103,1,fourthree,,,,,,,,,,,,,,,,,,,,,,,,,,,,,,,,,,,,,,,,,,,,,,,,,,,,,,,,,,,,,,,,,,,,,,,,,,,,,,,,,,,,,,,,,,,,,,,,,,,,,,,,,,,,,,,,,,,,,,,,,,,,,,,,,,,,,,,,,,,,,,,,,,,,,,,,,,,,,
,,,,,,61567f148c4094333aaa6d28,62c539b9614ceb72cf758a8b,2022-07-06_09h33.38.444,Colour_Asymmetry_Pilot,2022.1.3,Win32,60.27364234,62c50e9c1127f2cd403a315f,0,151,151,94,1,fourtwo,,,,,,,,,,,,,,,,,,,,,,,,,,,,,,,,,,,,,,,,,,,,,,,,,,,,,,,,,,,,,,,,,,,,,,,,,,,,,,,,,,,,,,,,,,,,,,,,,,,,,,,,,,,,,,,,,,,,,,,,,,,,,,,,,,,,,,,,,,,,,,,,,,,,,,,,,,,,,
,,,,,,61567f148c4094333aaa6d28,62c539b9614ceb72cf758a8b,2022-07-06_09h33.38.444,Colour_Asymmetry_Pilot,2022.1.3,Win32,60.27364234,62c50e9c1127f2cd403a315f,0,152,152,15,1,fourthree,,,,,,,,,,,,,,,,,,,,,,,,,,,,,,,,,,,,,,,,,,,,,,,,,,,,,,,,,,,,,,,,,,,,,,,,,,,,,,,,,,,,,,,,,,,,,,,,,,,,,,,,,,,,,,,,,,,,,,,,,,,,,,,,,,,,,,,,,,,,,,,,,,,,,,,,,,,,,
,,,,,,61567f148c4094333aaa6d28,62c539b9614ceb72cf758a8b,2022-07-06_09h33.38.444,Colour_Asymmetry_Pilot,2022.1.3,Win32,60.27364234,62c50e9c1127f2cd403a315f,0,153,153,21,1,threefour,,,,,,,,,,,,,,,,,,,,,,,,,,,,,,,,,,,,,,,,,,,,,,,,,,,,,,,,,,,,,,,,,,,,,,,,,,,,,,,,,,,,,,,,,,,,,,,,,,,,,,,,,,,,,,,,,,,,,,,,,,,,,,,,,,,,,,,,,,,,,,,,,,,,,,,,,,,,,
,,,,,,61567f148c4094333aaa6d28,62c539b9614ceb72cf758a8b,2022-07-06_09h33.38.444,Colour_Asymmetry_Pilot,2022.1.3,Win32,60.27364234,62c50e9c1127f2cd403a315f,0,154,154,34,1,twoone,,,,,,,,,,,,,,,,,,,,,,,,,,,,,,,,,,,,,,,,,,,,,,,,,,,,,,,,,,,,,,,,,,,,,,,,,,,,,,,,,,,,,,,,,,,,,,,,,,,,,,,,,,,,,,,,,,,,,,,,,,,,,,,,,,,,,,,,,,,,,,,,,,,,,,,,,,,,,
,,,,,,61567f148c4094333aaa6d28,62c539b9614ceb72cf758a8b,2022-07-06_09h33.38.444,Colour_Asymmetry_Pilot,2022.1.3,Win32,60.27364234,62c50e9c1127f2cd403a315f,0,155,155,111,1,fourthree,,,,,,,,,,,,,,,,,,,,,,,,,,,,,,,,,,,,,,,,,,,,,,,,,,,,,,,,,,,,,,,,,,,,,,,,,,,,,,,,,,,,,,,,,,,,,,,,,,,,,,,,,,,,,,,,,,,,,,,,,,,,,,,,,,,,,,,,,,,,,,,,,,,,,,,,,,,,,
,,,,,,61567f148c4094333aaa6d28,62c539b9614ceb72cf758a8b,2022-07-06_09h33.38.444,Colour_Asymmetry_Pilot,2022.1.3,Win32,60.27364234,62c50e9c1127f2cd403a315f,0,156,156,85,1,threefour,,,,,,,,,,,,,,,,,,,,,,,,,,,,,,,,,,,,,,,,,,,,,,,,,,,,,,,,,,,,,,,,,,,,,,,,,,,,,,,,,,,,,,,,,,,,,,,,,,,,,,,,,,,,,,,,,,,,,,,,,,,,,,,,,,,,,,,,,,,,,,,,,,,,,,,,,,,,,
,,,,,,61567f148c4094333aaa6d28,62c539b9614ceb72cf758a8b,2022-07-06_09h33.38.444,Colour_Asymmetry_Pilot,2022.1.3,Win32,60.27364234,62c50e9c1127f2cd403a315f,0,157,157,36,1,threeone,,,,,,,,,,,,,,,,,,,,,,,,,,,,,,,,,,,,,,,,,,,,,,,,,,,,,,,,,,,,,,,,,,,,,,,,,,,,,,,,,,,,,,,,,,,,,,,,,,,,,,,,,,,,,,,,,,,,,,,,,,,,,,,,,,,,,,,,,,,,,,,,,,,,,,,,,,,,,
,,,,,,61567f148c4094333aaa6d28,62c539b9614ceb72cf758a8b,2022-07-06_09h33.38.444,Colour_Asymmetry_Pilot,2022.1.3,Win32,60.27364234,62c50e9c1127f2cd403a315f,0,158,158,135,1,fourthree,,,,,,,,,,,,,,,,,,,,,,,,,,,,,,,,,,,,,,,,,,,,,,,,,,,,,,,,,,,,,,,,,,,,,,,,,,,,,,,,,,,,,,,,,,,,,,,,,,,,,,,,,,,,,,,,,,,,,,,,,,,,,,,,,,,,,,,,,,,,,,,,,,,,,,,,,,,,,
,,,,,,61567f148c4094333aaa6d28,62c539b9614ceb72cf758a8b,2022-07-06_09h33.38.444,Colour_Asymmetry_Pilot,2022.1.3,Win32,60.27364234,62c50e9c1127f2cd403a315f,0,159,159,56,1,onetwo,,,,,,,,,,,,,,,,,,,,,,,,,,,,,,,,,,,,,,,,,,,,,,,,,,,,,,,,,,,,,,,,,,,,,,,,,,,,,,,,,,,,,,,,,,,,,,,,,,,,,,,,,,,,,,,,,,,,,,,,,,,,,,,,,,,,,,,,,,,,,,,,,,,,,,,,,,,,,
,,,,,,61567f148c4094333aaa6d28,62c539b9614ceb72cf758a8b,2022-07-06_09h33.38.444,Colour_Asymmetry_Pilot,2022.1.3,Win32,60.27364234,62c50e9c1127f2cd403a315f,0,160,160,37,1,threefour,,,,,,,,,,,,,,,,,,,,,,,,,,,,,,,,,,,,,,,,,,,,,,,,,,,,,,,,,,,,,,,,,,,,,,,,,,,,,,,,,,,,,,,,,,,,,,,,,,,,,,,,,,,,,,,,,,,,,,,,,,,,,,,,,,,,,,,,,,,,,,,,,,,,,,,,,,,,,
,,,,,,61567f148c4094333aaa6d28,62c539b9614ceb72cf758a8b,2022-07-06_09h33.38.444,Colour_Asymmetry_Pilot,2022.1.3,Win32,60.27364234,62c50e9c1127f2cd403a315f,0,161,161,124,1,threeone,,,,,,,,,,,,,,,,,,,,,,,,,,,,,,,,,,,,,,,,,,,,,,,,,,,,,,,,,,,,,,,,,,,,,,,,,,,,,,,,,,,,,,,,,,,,,,,,,,,,,,,,,,,,,,,,,,,,,,,,,,,,,,,,,,,,,,,,,,,,,,,,,,,,,,,,,,,,,
,,,,,,61567f148c4094333aaa6d28,62c539b9614ceb72cf758a8b,2022-07-06_09h33.38.444,Colour_Asymmetry_Pilot,2022.1.3,Win32,60.27364234,62c50e9c1127f2cd403a315f,,,,,,,space,4.5897,space,10.9924,space,7.1992,space,8.5312,space,3.1441,space,7.9032,"[-0.9296,-0.12959999999999994,-0.043199999999999905]",threefour,"[-0.17659999999999998,0.3253999999999999,0.19999999999999996]",3,6.8375,81.33335483,17.33332312,1,0,0,response1disk_5,4.666685879,5.99998945,1,0,0,rectangle_8,4.666685879,5.99998945,1,0,0,2,4.666685879,5.99998945,1,0,0,0,0,0,0,1,,,,,,,,,,,,,,,,,,,,,,,,,,,,,,,,,,,,,,,,,,,,,,,,,,,,,,,,,,,,,,,,,,,,,,,,,,,,,,,,,,,,,,,,,,,,,,,,,,,,,,,,,,,,,,,,
,,,,,,61567f148c4094333aaa6d28,62c539b9614ceb72cf758a8b,2022-07-06_09h33.38.444,Colour_Asymmetry_Pilot,2022.1.3,Win32,60.27364234,62c50e9c1127f2cd403a315f,,,,,,,,,,,,,,,,,,,"[-0.9766,-0.34920000000000007,0.2156]",threeone,"[-0.07459999999999989,0.12139999999999995,-0.9922]",-4,4.1492,-25.33331501,44.66665727,1,0,0,response7disk_5,4.666685879,0.666655958,1,0,0,rectangle_8,46.66668713,-22.66667807,1,0,0,2,16.00001955,3.333322704,1,0,0,1,0,1,0,1,response3disk_7,5,rectangle_4,,,,,,,,,,,,,,,,,,,,,,,,,,,,,,,,,,,,,,,,,,,,,,,,,,,,,,,,,,,,,,,,,,,,,,,,,,,,,,,,,,,,,,,,,,,,,,,,,,,,,,,,,,,,,
,,,,,,61567f148c4094333aaa6d28,62c539b9614ceb72cf758a8b,2022-07-06_09h33.38.444,Colour_Asymmetry_Pilot,2022.1.3,Win32,60.27364234,62c50e9c1127f2cd403a315f,,,,,,,,,,,,,,,,,,,"[-0.8118,-0.8198,-0.5452]",onethree,"[-0.10599999999999998,-0.10599999999999998,0.5841999999999998]",2,1.6714,41.33339433,-14.00001115,1,0,0,response3disk_5,9.333393375,-4.666677535,1,0,0,rectangle_8,9.333393375,-4.666677535,1,0,0,2,9.333393375,-4.666677535,1,0,0,2,0,2,0,1,,,,,,,,,,,,,,,,,,,,,,,,,,,,,,,,,,,,,,,,,,,,,,,,,,,,,,,,,,,,,,,,,,,,,,,,,,,,,,,,,,,,,,,,,,,,,,,,,,,,,,,,,,,,,,,,
,,,,,,61567f148c4094333aaa6d28,62c539b9614ceb72cf758a8b,2022-07-06_09h33.38.444,Colour_Asymmetry_Pilot,2022.1.3,Win32,60.27364234,62c50e9c1127f2cd403a315f,,,,,,,,,,,,,,,,,,,"[0.9763999999999999,0.8588,-0.05900000000000005]",onethree,"[0.9213999999999998,0.6391999999999998,-0.9922]",4,1.8824,53.333354,71.99999142,1,0,0,response1disk_5,-1.999980986,-4.666677535,1,0,0,rectangle_8,-1.999980986,-4.666677535,1,0,0,2,-1.999980986,-4.666677535,1,0,0,3,0,3,0,1,,,,,,,,,,,,,,,,,,,,,,,,,,,,,,,,,,,,,,,,,,,,,,,,,,,,,,,,,,,,,,,,,,,,,,,,,,,,,,,,,,,,,,,,,,,,,,,,,,,,,,,,,,,,,,,,
,,,,,,61567f148c4094333aaa6d28,62c539b9614ceb72cf758a8b,2022-07-06_09h33.38.444,Colour_Asymmetry_Pilot,2022.1.3,Win32,60.27364234,62c50e9c1127f2cd403a315f,,,,,,,,,,,,,,,,,,,"[-0.9688,-0.7412000000000001,-0.4902000000000001]",fourtwo,"[-0.4746,-0.0354000000000001,0.5449999999999999]",3,1.2053,67.33335441,34.66665697,1,0,0,response1disk_5,3.333393196,10.66665626,1,0,0,rectangle_8,3.333393196,10.66665626,1,0,0,2,3.333393196,10.66665626,1,0,0,4,0,4,0,1,,,,,,,,,,,,,,,,,,,,,,,,,,,,,,,,,,,,,,,,,,,,,,,,,,,,,,,,,,,,,,,,,,,,,,,,,,,,,,,,,,,,,,,,,,,,,,,,,,,,,,,,,,,,,,,,
,,,,,,61567f148c4094333aaa6d28,62c539b9614ceb72cf758a8b,2022-07-06_09h33.38.444,Colour_Asymmetry_Pilot,2022.1.3,Win32,60.27364234,62c50e9c1127f2cd403a315f,,,,,,,,,,,,,,,,,,,"[0.9763999999999999,0.30979999999999985,-0.6786]",twoone,"[-0.09019999999999995,0.44300000000000006,0.5371999999999999]",-4,2.0998,-18.66660746,60.66665775,1,0,0,response7disk_5,-14.66660734,4.666656077,1,0,0,rectangle_8,82.00002152,-36.66667849,1,0,0,2,8.666685998,-5.333344221,1,0,0,5,0,5,0,1,response3disk_7,5,rectangle_4,,,,,,,,,,,,,,,,,,,,,,,,,,,,,,,,,,,,,,,,,,,,,,,,,,,,,,,,,,,,,,,,,,,,,,,,,,,,,,,,,,,,,,,,,,,,,,,,,,,,,,,,,,,,,
,,,,,,61567f148c4094333aaa6d28,62c539b9614ceb72cf758a8b,2022-07-06_09h33.38.444,Colour_Asymmetry_Pilot,2022.1.3,Win32,60.27364234,62c50e9c1127f2cd403a315f,,,,,,,,,,,,,,,,,,,"[-0.9766,-0.34920000000000007,0.2156]",fourtwo,"[-0.5452,-0.608,0.2470000000000001]",4,6.5517,57.33335412,69.99999136,1,0,0,response1disk_5,10.00001937,-4.000010848,1,0,0,rectangle_8,10.00001937,-4.000010848,1,0,0,2,10.00001937,-4.000010848,1,0,0,6,0,6,0,1,,,,,,,,,,,,,,,,,,,,,,,,,,,,,,,,,,,,,,,,,,,,,,,,,,,,,,,,,,,,,,,,,,,,,,,,,,,,,,,,,,,,,,,,,,,,,,,,,,,,,,,,,,,,,,,,
,,,,,,61567f148c4094333aaa6d28,62c539b9614ceb72cf758a8b,2022-07-06_09h33.38.444,Colour_Asymmetry_Pilot,2022.1.3,Win32,60.27364234,62c50e9c1127f2cd403a315f,,,,,,,,,,,,,,,,,,,,fourthree,,-4,3.0833,,,,,,,,,,,,,,,,,,,,,,,,,,,,,,,,space,2.0914,"[0.9763999999999999,0.30979999999999985,-0.6786]","[-0.4668,-0.8746,-0.2942]",-23.33331496,77.33330456,1,0,0,response7disk,6.000019252,6.666656137,1,0,0,rectangle,6.000019252,6.666656137,1,0,0,,3,0.0009,0,6.000019252,6.666656137,1,0,0,0,0,0,81,1,0,second,,,,,,,,,,,,,,,,,,,,,,,,,,,,,,,,,,,,,,,,,,,,,,,,,,,,,,,,,,,,,,,,,,,,,,,,
,,,,,,61567f148c4094333aaa6d28,62c539b9614ceb72cf758a8b,2022-07-06_09h33.38.444,Colour_Asymmetry_Pilot,2022.1.3,Win32,60.27364234,62c50e9c1127f2cd403a315f,,,,,,,,,,,,,,,,,,,,fourtwo,,-4,1.0388,,,,,,,,,,,,,,,,,,,,,,,,,,,,,,,,,,"[0.34099999999999997,0.5841999999999998,-0.9844]","[-0.9216,-0.5529999999999999,-0.3962]",-29.99998182,55.99999094,1,0,0,response7disk,-14.66660734,-4.000010848,1,0,0,rectangle,-14.66660734,-4.000010848,1,0,0,,2,0.0008,0,-14.66660734,-4.000010848,1,0,0,0,1,1,41,1,41,first,,,,,,,,,,,,,,,,,,,,,,,,,,,,,,,,,,,,,,,,,,,,,,,,,,,,,,,,,,,,,,,,,,,,,,,,
,,,,,,61567f148c4094333aaa6d28,62c539b9614ceb72cf758a8b,2022-07-06_09h33.38.444,Colour_Asymmetry_Pilot,2022.1.3,Win32,60.27364234,62c50e9c1127f2cd403a315f,,,,,,,,,,,,,,,,,,,,fourtwo,,-4,0.5296,,,,,,,,,,,,,,,,,,,,,,,,,,,,,,,,,,"[0.9763999999999999,0.8588,-0.05900000000000005]","[-0.4746,-0.0354000000000001,0.5449999999999999]",-22.66660758,49.99999076,1,0,0,response7disk,-13.33331466,-2.666677475,1,0,0,rectangle,-13.33331466,-2.666677475,1,0,0,,2,0.0009,0,-13.33331466,-2.666677475,1,0,0,0,2,2,61,1,61,first,,,,,,,,,,,,,,,,,,,,,,,,,,,,,,,,,,,,,,,,,,,,,,,,,,,,,,,,,,,,,,,,,,,,,,,,
,,,,,,61567f148c4094333aaa6d28,62c539b9614ceb72cf758a8b,2022-07-06_09h33.38.444,Colour_Asymmetry_Pilot,2022.1.3,Win32,60.27364234,62c50e9c1127f2cd403a315f,,,,,,,,,,,,,,,,,,,,threefour,,-4,0.4618,,,,,,,,,,,,,,,,,,,,,,,,,,,,,,,,,,"[-0.7412000000000001,-0.08239999999999992,-0.6864]","[-0.20799999999999996,-0.655,-0.01980000000000004]",-11.3333146,44.66665727,1,0,0,response7disk,-22.66660758,0.666655958,1,0,0,rectangle,32.66668671,26.66665673,1,0,0,3,3,3.3702,1,-8.666607161,2.666656017,1,0,0,0,3,3,161,1,80,second,response1disk_3,rectangle,,,,,,,,,,,,,,,,,,,,,,,,,,,,,,,,,,,,,,,,,,,,,,,,,,,,,,,,,,,,,,,,,,,,,,
,,,,,,61567f148c4094333aaa6d28,62c539b9614ceb72cf758a8b,2022-07-06_09h33.38.444,Colour_Asymmetry_Pilot,2022.1.3,Win32,60.27364234,62c50e9c1127f2cd403a315f,,,,,,,,,,,,,,,,,,,,threeone,,-4,0.7372,,,,,,,,,,,,,,,,,,,,,,,,,,,,,,,,,,"[0.9213999999999998,0.6391999999999998,-0.9922]","[-0.26280000000000003,-0.4746,-0.2158]",-15.9999814,44.66665727,1,0,0,response7disk,-14.66660734,-12.00001109,1,0,0,rectangle,-14.66660734,-12.00001109,1,0,0,-2,2,0.0005,0,-14.66660734,-12.00001109,1,0,0,0,4,4,38,1,38,first,,,,,,,,,,,,,,,,,,,,,,,,,,,,,,,,,,,,,,,,,,,,,,,,,,,,,,,,,,,,,,,,,,,,,,,,
,,,,,,61567f148c4094333aaa6d28,62c539b9614ceb72cf758a8b,2022-07-06_09h33.38.444,Colour_Asymmetry_Pilot,2022.1.3,Win32,60.27364234,62c50e9c1127f2cd403a315f,,,,,,,,,,,,,,,,,,,,threeone,,-4,0.3815,,,,,,,,,,,,,,,,,,,,,,,,,,,,,,,,,,"[-0.9844,-0.9688,-0.9922]","[-0.24719999999999998,0.5213999999999999,-0.12959999999999994]",-19.99998152,35.33330331,1,0,0,response7disk,-7.999981165,-1.333344102,1,0,0,rectangle,-7.999981165,-1.333344102,1,0,0,-2,3,0.0005,0,-7.999981165,-1.333344102,1,0,0,0,5,5,29,1,29,first,,,,,,,,,,,,,,,,,,,,,,,,,,,,,,,,,,,,,,,,,,,,,,,,,,,,,,,,,,,,,,,,,,,,,,,,
,,,,,,61567f148c4094333aaa6d28,62c539b9614ceb72cf758a8b,2022-07-06_09h33.38.444,Colour_Asymmetry_Pilot,2022.1.3,Win32,60.27364234,62c50e9c1127f2cd403a315f,,,,,,,,,,,,,,,,,,,,twoone,,-4,2.1894,,,,,,,,,,,,,,,,,,,,,,,,,,,,,,,,,,"[-0.26280000000000003,-0.4746,-0.2158]","[-0.9688,-0.4902000000000001,-0.12159999999999993]",-15.9999814,43.99999058,1,0,0,response7disk,-4.666607042,-8.666677654,1,0,0,rectangle,-4.666607042,-8.666677654,1,0,0,-2,1,0.0006,0,-4.666607042,-8.666677654,1,0,0,0,6,6,140,1,59,second,,,,,,,,,,,,,,,,,,,,,,,,,,,,,,,,,,,,,,,,,,,,,,,,,,,,,,,,,,,,,,,,,,,,,,,,
,,,,,,61567f148c4094333aaa6d28,62c539b9614ceb72cf758a8b,2022-07-06_09h33.38.444,Colour_Asymmetry_Pilot,2022.1.3,Win32,60.27364234,62c50e9c1127f2cd403a315f,,,,,,,,,,,,,,,,,,,,onetwo,,-4,0.5509,,,,,,,,,,,,,,,,,,,,,,,,,,,,,,,,,,"[-0.07459999999999989,0.12139999999999995,-0.9922]","[-0.9766,-0.6472,0.07440000000000002]",-25.9999817,53.99999088,1,0,0,response7disk,-3.333314359,-8.666677654,1,0,0,rectangle,-3.333314359,-8.666677654,1,0,0,-2,1,0.0003,0,-3.333314359,-8.666677654,1,0,0,0,7,7,148,1,67,second,,,,,,,,,,,,,,,,,,,,,,,,,,,,,,,,,,,,,,,,,,,,,,,,,,,,,,,,,,,,,,,,,,,,,,,,
,,,,,,61567f148c4094333aaa6d28,62c539b9614ceb72cf758a8b,2022-07-06_09h33.38.444,Colour_Asymmetry_Pilot,2022.1.3,Win32,60.27364234,62c50e9c1127f2cd403a315f,,,,,,,,,,,,,,,,,,,,onetwo,,-3,0.7059,,,,,,,,,,,,,,,,,,,,,,,,,,,,,,,,,,"[-0.9296,-0.12959999999999994,-0.043199999999999905]","[-0.10599999999999998,-0.15300000000000002,0.15280000000000005]",-40.66660812,18.66665649,1,0,0,response7disk,12.66668612,-4.666677535,1,0,0,rectangle,12.66668612,-4.666677535,1,0,0,-2,3,0.0006,0,12.66668612,-4.666677535,1,0,0,0,8,8,96,1,15,second,,,,,,,,,,,,,,,,,,,,,,,,,,,,,,,,,,,,,,,,,,,,,,,,,,,,,,,,,,,,,,,,,,,,,,,,
,,,,,,61567f148c4094333aaa6d28,62c539b9614ceb72cf758a8b,2022-07-06_09h33.38.444,Colour_Asymmetry_Pilot,2022.1.3,Win32,60.27364234,62c50e9c1127f2cd403a315f,,,,,,,,,,,,,,,,,,,,threefour,,-3,0.5501,,,,,,,,,,,,,,,,,,,,,,,,,,,,,,,,,,"[0.12939999999999996,-0.2864,0.3253999999999999]","[-0.4982,-0.2942,-0.0354000000000001]",-61.99998277,31.33330319,1,0,0,response7disk,10.00001937,-3.333344162,1,0,0,rectangle,10.00001937,-3.333344162,1,0,0,-2,3,0.0004,0,10.00001937,-3.333344162,1,0,0,0,9,9,149,1,68,second,,,,,,,,,,,,,,,,,,,,,,,,,,,,,,,,,,,,,,,,,,,,,,,,,,,,,,,,,,,,,,,,,,,,,,,,
,,,,,,61567f148c4094333aaa6d28,62c539b9614ceb72cf758a8b,2022-07-06_09h33.38.444,Colour_Asymmetry_Pilot,2022.1.3,Win32,60.27364234,62c50e9c1127f2cd403a315f,,,,,,,,,,,,,,,,,,,,twoone,,-3,0.8288,,,,,,,,,,,,,,,,,,,,,,,,,,,,,,,,,,"[0.04299999999999993,0.16060000000000008,-0.6628000000000001]","[0.6625999999999999,0.4980000000000002,-0.357]",-43.99998224,28.66665679,1,0,0,response7disk,24.00001979,-2.000010788,1,0,0,rectangle,24.00001979,-2.000010788,1,0,0,-2,3,0.0004,0,24.00001979,-2.000010788,1,0,0,0,10,10,99,1,18,second,,,,,,,,,,,,,,,,,,,,,,,,,,,,,,,,,,,,,,,,,,,,,,,,,,,,,,,,,,,,,,,,,,,,,,,,
,,,,,,61567f148c4094333aaa6d28,62c539b9614ceb72cf758a8b,2022-07-06_09h33.38.444,Colour_Asymmetry_Pilot,2022.1.3,Win32,60.27364234,62c50e9c1127f2cd403a315f,,,,,,,,,,,,,,,,,,,,twofour,,3,1.5438,,,,,,,,,,,,,,,,,,,,,,,,,,,,,,,,,,"[0.7646000000000002,0.07440000000000002,0.2704]","[-0.01980000000000004,-0.5138,-0.38039999999999996]",38.66668689,17.99998981,1,0,0,response1disk,2.66668582,0.666655958,1,0,0,rectangle,78.66668808,39.33330343,1,0,0,3,3,2.6226,1,15.33339355,7.99998951,1,0,0,0,11,11,136,1,55,second,response1disk_3,rectangle,,,,,,,,,,,,,,,,,,,,,,,,,,,,,,,,,,,,,,,,,,,,,,,,,,,,,,,,,,,,,,,,,,,,,,
,,,,,,61567f148c4094333aaa6d28,62c539b9614ceb72cf758a8b,2022-07-06_09h33.38.444,Colour_Asymmetry_Pilot,2022.1.3,Win32,60.27364234,62c50e9c1127f2cd403a315f,,,,,,,,,,,,,,,,,,,,twofour,,-3,1.1729,,,,,,,,,,,,,,,,,,,,,,,,,,,,,,,,,,"[0.8274000000000001,-0.5844,-0.9452]","[-0.10599999999999998,-0.15300000000000002,0.15280000000000005]",-44.66660823,18.66665649,1,0,0,response7disk,-9.333314538,-5.333344221,1,0,0,rectangle,-9.333314538,-5.333344221,1,0,0,3,2,0.0011,0,-9.333314538,-5.333344221,1,0,0,0,12,12,107,1,26,second,,,,,,,,,,,,,,,,,,,,,,,,,,,,,,,,,,,,,,,,,,,,,,,,,,,,,,,,,,,,,,,,,,,,,,,,
,,,,,,61567f148c4094333aaa6d28,62c539b9614ceb72cf758a8b,2022-07-06_09h33.38.444,Colour_Asymmetry_Pilot,2022.1.3,Win32,60.27364234,62c50e9c1127f2cd403a315f,,,,,,,,,,,,,,,,,,,,threefour,,4,0.61,,,,,,,,,,,,,,,,,,,,,,,,,,,,,,,,,,"[-0.07459999999999989,0.12139999999999995,-0.9922]","[-0.45899999999999996,-0.3256,-0.9374]",44.00002038,59.33330403,1,0,0,response1disk,-8.666607161,-3.333344162,1,0,0,rectangle,-8.666607161,-3.333344162,1,0,0,3,3,0.0005,0,-8.666607161,-3.333344162,1,0,0,0,13,13,14,1,14,first,,,,,,,,,,,,,,,,,,,,,,,,,,,,,,,,,,,,,,,,,,,,,,,,,,,,,,,,,,,,,,,,,,,,,,,,
