trials.thisRepN,trials.thisTrialN,trials.thisN,trials.thisIndex,trials.ran,Colourcodes,participant,session,date,expName,psychopyVersion,OS,frameRate,study_id,trials_4.thisRepN,trials_4.thisTrialN,trials_4.thisN,trials_4.thisIndex,trials_4.ran,StimulusPos,key_resp.keys,key_resp.rt,key_resp_2.keys,key_resp_2.rt,key_resp_15.keys,key_resp_15.rt,key_resp_17.keys,key_resp_17.rt,key_resp_9.keys,key_resp_9.rt,key_resp_10.keys,key_resp_10.rt,Circle1_col,Ecc,Circle2_col,similarity,response_time,mouse_5.x,mouse_5.y,mouse_5.leftButton,mouse_5.midButton,mouse_5.rightButton,mouse_5.clicked_name,mouse_10.x,mouse_10.y,mouse_10.leftButton,mouse_10.midButton,mouse_10.rightButton,mouse_10.clicked_name,mouse_7.x,mouse_7.y,mouse_7.leftButton,mouse_7.midButton,mouse_7.rightButton,catchnumberprac,mouse_6.x,mouse_6.y,mouse_6.leftButton,mouse_6.midButton,mouse_6.rightButton,duringprac.thisRepN,duringprac.thisTrialN,duringprac.thisN,duringprac.thisIndex,duringprac.ran,mouse_7.clicked_name,catchprac,mouse_6.clicked_name,key_resp_22.keys,key_resp_22.rt,Circle1_colour,Circle2_colour,mouse.x,mouse.y,mouse.leftButton,mouse.midButton,mouse.rightButton,mouse.clicked_name,mouse_2.x,mouse_2.y,mouse_2.leftButton,mouse_2.midButton,mouse_2.rightButton,mouse_2.clicked_name,mouse_3.x,mouse_3.y,mouse_3.leftButton,mouse_3.midButton,mouse_3.rightButton,catchresponse,catchnumber,response_time_catch,Catch,mouse_11.x,mouse_11.y,mouse_11.leftButton,mouse_11.midButton,mouse_11.rightButton,trials_2.thisRepN,trials_2.thisTrialN,trials_2.thisN,trials_2.thisIndex,trials_2.ran,Colourpair,Temporder,mouse_3.clicked_name,mouse_11.clicked_name,trials_3.thisRepN,trials_3.thisTrialN,trials_3.thisN,trials_3.thisIndex,trials_3.ran,key_resp_instr_Ishi.keys,key_resp_instr_Ishi.rt,Ishi_trial_keyresp.keys,Ishi_textbox.text,Ishi_mouse.x,Ishi_mouse.y,Ishi_mouse.leftButton,Ishi_mouse.midButton,Ishi_mouse.rightButton,Ishi_mouse.clicked_name,Ishi_loop.thisRepN,Ishi_loop.thisTrialN,Ishi_loop.thisN,Ishi_loop.thisIndex,Ishi_loop.ran,imageaddress,textbox.text,mouse_4.x,mouse_4.y,mouse_4.leftButton,mouse_4.midButton,mouse_4.rightButton,mouse_4.clicked_name,textbox_2.text,mouse_8.x,mouse_8.y,mouse_8.leftButton,mouse_8.midButton,mouse_8.rightButton,mouse_8.clicked_name,textbox_3.text,mouse_9.x,mouse_9.y,mouse_9.leftButton,mouse_9.midButton,mouse_9.rightButton,mouse_9.clicked_name,textbox_4.text,mouse_12.x,mouse_12.y,mouse_12.leftButton,mouse_12.midButton,mouse_12.rightButton,mouse_12.clicked_name,textbox_5.text,mouse_13.x,mouse_13.y,mouse_13.leftButton,mouse_13.midButton,mouse_13.rightButton,mouse_13.clicked_name,textbox_6.text,mouse_14.x,mouse_14.y,mouse_14.leftButton,mouse_14.midButton,mouse_14.rightButton,mouse_14.clicked_name,textbox_7.text,mouse_15.x,mouse_15.y,mouse_15.leftButton,mouse_15.midButton,mouse_15.rightButton,mouse_15.clicked_name
0,0,0,8,1,,60df0768b4b2fa71f584a127,62c53ab6fcc75bafadb0f10e,2022-07-06_09h33.26.033,Colour_Asymmetry_Pilot,2022.1.3,Win32,59.86231667,62c50e9c1127f2cd403a315f,,,,,,,,,,,,,,,,,,,,,,,,,,,,,,,,,,,,,,,,,,,,,,,,,,,,,,,,,,,,,,,,,,,,,,,,,,,,,,,,,,,,,,,,,,,,,,,,,,,,,,,,,,,,,,,,,,,,,,,,,,,,,,,,,,,,,,,,,,,,,,,,,,,,,,,,,,,,,,,,,,,
0,1,1,9,1,,60df0768b4b2fa71f584a127,62c53ab6fcc75bafadb0f10e,2022-07-06_09h33.26.033,Colour_Asymmetry_Pilot,2022.1.3,Win32,59.86231667,62c50e9c1127f2cd403a315f,,,,,,,,,,,,,,,,,,,,,,,,,,,,,,,,,,,,,,,,,,,,,,,,,,,,,,,,,,,,,,,,,,,,,,,,,,,,,,,,,,,,,,,,,,,,,,,,,,,,,,,,,,,,,,,,,,,,,,,,,,,,,,,,,,,,,,,,,,,,,,,,,,,,,,,,,,,,,,,,,,,
0,2,2,74,1,,60df0768b4b2fa71f584a127,62c53ab6fcc75bafadb0f10e,2022-07-06_09h33.26.033,Colour_Asymmetry_Pilot,2022.1.3,Win32,59.86231667,62c50e9c1127f2cd403a315f,,,,,,,,,,,,,,,,,,,,,,,,,,,,,,,,,,,,,,,,,,,,,,,,,,,,,,,,,,,,,,,,,,,,,,,,,,,,,,,,,,,,,,,,,,,,,,,,,,,,,,,,,,,,,,,,,,,,,,,,,,,,,,,,,,,,,,,,,,,,,,,,,,,,,,,,,,,,,,,,,,,
0,3,3,28,1,,60df0768b4b2fa71f584a127,62c53ab6fcc75bafadb0f10e,2022-07-06_09h33.26.033,Colour_Asymmetry_Pilot,2022.1.3,Win32,59.86231667,62c50e9c1127f2cd403a315f,,,,,,,,,,,,,,,,,,,,,,,,,,,,,,,,,,,,,,,,,,,,,,,,,,,,,,,,,,,,,,,,,,,,,,,,,,,,,,,,,,,,,,,,,,,,,,,,,,,,,,,,,,,,,,,,,,,,,,,,,,,,,,,,,,,,,,,,,,,,,,,,,,,,,,,,,,,,,,,,,,,
0,4,4,44,1,,60df0768b4b2fa71f584a127,62c53ab6fcc75bafadb0f10e,2022-07-06_09h33.26.033,Colour_Asymmetry_Pilot,2022.1.3,Win32,59.86231667,62c50e9c1127f2cd403a315f,,,,,,,,,,,,,,,,,,,,,,,,,,,,,,,,,,,,,,,,,,,,,,,,,,,,,,,,,,,,,,,,,,,,,,,,,,,,,,,,,,,,,,,,,,,,,,,,,,,,,,,,,,,,,,,,,,,,,,,,,,,,,,,,,,,,,,,,,,,,,,,,,,,,,,,,,,,,,,,,,,,
0,5,5,73,1,,60df0768b4b2fa71f584a127,62c53ab6fcc75bafadb0f10e,2022-07-06_09h33.26.033,Colour_Asymmetry_Pilot,2022.1.3,Win32,59.86231667,62c50e9c1127f2cd403a315f,,,,,,,,,,,,,,,,,,,,,,,,,,,,,,,,,,,,,,,,,,,,,,,,,,,,,,,,,,,,,,,,,,,,,,,,,,,,,,,,,,,,,,,,,,,,,,,,,,,,,,,,,,,,,,,,,,,,,,,,,,,,,,,,,,,,,,,,,,,,,,,,,,,,,,,,,,,,,,,,,,,
0,6,6,77,1,,60df0768b4b2fa71f584a127,62c53ab6fcc75bafadb0f10e,2022-07-06_09h33.26.033,Colour_Asymmetry_Pilot,2022.1.3,Win32,59.86231667,62c50e9c1127f2cd403a315f,,,,,,,,,,,,,,,,,,,,,,,,,,,,,,,,,,,,,,,,,,,,,,,,,,,,,,,,,,,,,,,,,,,,,,,,,,,,,,,,,,,,,,,,,,,,,,,,,,,,,,,,,,,,,,,,,,,,,,,,,,,,,,,,,,,,,,,,,,,,,,,,,,,,,,,,,,,,,,,,,,,
0,7,7,43,1,,60df0768b4b2fa71f584a127,62c53ab6fcc75bafadb0f10e,2022-07-06_09h33.26.033,Colour_Asymmetry_Pilot,2022.1.3,Win32,59.86231667,62c50e9c1127f2cd403a315f,,,,,,,,,,,,,,,,,,,,,,,,,,,,,,,,,,,,,,,,,,,,,,,,,,,,,,,,,,,,,,,,,,,,,,,,,,,,,,,,,,,,,,,,,,,,,,,,,,,,,,,,,,,,,,,,,,,,,,,,,,,,,,,,,,,,,,,,,,,,,,,,,,,,,,,,,,,,,,,,,,,
0,8,8,69,1,,60df0768b4b2fa71f584a127,62c53ab6fcc75bafadb0f10e,2022-07-06_09h33.26.033,Colour_Asymmetry_Pilot,2022.1.3,Win32,59.86231667,62c50e9c1127f2cd403a315f,,,,,,,,,,,,,,,,,,,,,,,,,,,,,,,,,,,,,,,,,,,,,,,,,,,,,,,,,,,,,,,,,,,,,,,,,,,,,,,,,,,,,,,,,,,,,,,,,,,,,,,,,,,,,,,,,,,,,,,,,,,,,,,,,,,,,,,,,,,,,,,,,,,,,,,,,,,,,,,,,,,
0,9,9,27,1,,60df0768b4b2fa71f584a127,62c53ab6fcc75bafadb0f10e,2022-07-06_09h33.26.033,Colour_Asymmetry_Pilot,2022.1.3,Win32,59.86231667,62c50e9c1127f2cd403a315f,,,,,,,,,,,,,,,,,,,,,,,,,,,,,,,,,,,,,,,,,,,,,,,,,,,,,,,,,,,,,,,,,,,,,,,,,,,,,,,,,,,,,,,,,,,,,,,,,,,,,,,,,,,,,,,,,,,,,,,,,,,,,,,,,,,,,,,,,,,,,,,,,,,,,,,,,,,,,,,,,,,
0,10,10,63,1,,60df0768b4b2fa71f584a127,62c53ab6fcc75bafadb0f10e,2022-07-06_09h33.26.033,Colour_Asymmetry_Pilot,2022.1.3,Win32,59.86231667,62c50e9c1127f2cd403a315f,,,,,,,,,,,,,,,,,,,,,,,,,,,,,,,,,,,,,,,,,,,,,,,,,,,,,,,,,,,,,,,,,,,,,,,,,,,,,,,,,,,,,,,,,,,,,,,,,,,,,,,,,,,,,,,,,,,,,,,,,,,,,,,,,,,,,,,,,,,,,,,,,,,,,,,,,,,,,,,,,,,
0,11,11,37,1,,60df0768b4b2fa71f584a127,62c53ab6fcc75bafadb0f10e,2022-07-06_09h33.26.033,Colour_Asymmetry_Pilot,2022.1.3,Win32,59.86231667,62c50e9c1127f2cd403a315f,,,,,,,,,,,,,,,,,,,,,,,,,,,,,,,,,,,,,,,,,,,,,,,,,,,,,,,,,,,,,,,,,,,,,,,,,,,,,,,,,,,,,,,,,,,,,,,,,,,,,,,,,,,,,,,,,,,,,,,,,,,,,,,,,,,,,,,,,,,,,,,,,,,,,,,,,,,,,,,,,,,
0,12,12,91,1,,60df0768b4b2fa71f584a127,62c53ab6fcc75bafadb0f10e,2022-07-06_09h33.26.033,Colour_Asymmetry_Pilot,2022.1.3,Win32,59.86231667,62c50e9c1127f2cd403a315f,,,,,,,,,,,,,,,,,,,,,,,,,,,,,,,,,,,,,,,,,,,,,,,,,,,,,,,,,,,,,,,,,,,,,,,,,,,,,,,,,,,,,,,,,,,,,,,,,,,,,,,,,,,,,,,,,,,,,,,,,,,,,,,,,,,,,,,,,,,,,,,,,,,,,,,,,,,,,,,,,,,
0,13,13,1,1,,60df0768b4b2fa71f584a127,62c53ab6fcc75bafadb0f10e,2022-07-06_09h33.26.033,Colour_Asymmetry_Pilot,2022.1.3,Win32,59.86231667,62c50e9c1127f2cd403a315f,,,,,,,,,,,,,,,,,,,,,,,,,,,,,,,,,,,,,,,,,,,,,,,,,,,,,,,,,,,,,,,,,,,,,,,,,,,,,,,,,,,,,,,,,,,,,,,,,,,,,,,,,,,,,,,,,,,,,,,,,,,,,,,,,,,,,,,,,,,,,,,,,,,,,,,,,,,,,,,,,,,
0,14,14,60,1,,60df0768b4b2fa71f584a127,62c53ab6fcc75bafadb0f10e,2022-07-06_09h33.26.033,Colour_Asymmetry_Pilot,2022.1.3,Win32,59.86231667,62c50e9c1127f2cd403a315f,,,,,,,,,,,,,,,,,,,,,,,,,,,,,,,,,,,,,,,,,,,,,,,,,,,,,,,,,,,,,,,,,,,,,,,,,,,,,,,,,,,,,,,,,,,,,,,,,,,,,,,,,,,,,,,,,,,,,,,,,,,,,,,,,,,,,,,,,,,,,,,,,,,,,,,,,,,,,,,,,,,
0,15,15,66,1,,60df0768b4b2fa71f584a127,62c53ab6fcc75bafadb0f10e,2022-07-06_09h33.26.033,Colour_Asymmetry_Pilot,2022.1.3,Win32,59.86231667,62c50e9c1127f2cd403a315f,,,,,,,,,,,,,,,,,,,,,,,,,,,,,,,,,,,,,,,,,,,,,,,,,,,,,,,,,,,,,,,,,,,,,,,,,,,,,,,,,,,,,,,,,,,,,,,,,,,,,,,,,,,,,,,,,,,,,,,,,,,,,,,,,,,,,,,,,,,,,,,,,,,,,,,,,,,,,,,,,,,
0,16,16,23,1,,60df0768b4b2fa71f584a127,62c53ab6fcc75bafadb0f10e,2022-07-06_09h33.26.033,Colour_Asymmetry_Pilot,2022.1.3,Win32,59.86231667,62c50e9c1127f2cd403a315f,,,,,,,,,,,,,,,,,,,,,,,,,,,,,,,,,,,,,,,,,,,,,,,,,,,,,,,,,,,,,,,,,,,,,,,,,,,,,,,,,,,,,,,,,,,,,,,,,,,,,,,,,,,,,,,,,,,,,,,,,,,,,,,,,,,,,,,,,,,,,,,,,,,,,,,,,,,,,,,,,,,
0,17,17,88,1,,60df0768b4b2fa71f584a127,62c53ab6fcc75bafadb0f10e,2022-07-06_09h33.26.033,Colour_Asymmetry_Pilot,2022.1.3,Win32,59.86231667,62c50e9c1127f2cd403a315f,,,,,,,,,,,,,,,,,,,,,,,,,,,,,,,,,,,,,,,,,,,,,,,,,,,,,,,,,,,,,,,,,,,,,,,,,,,,,,,,,,,,,,,,,,,,,,,,,,,,,,,,,,,,,,,,,,,,,,,,,,,,,,,,,,,,,,,,,,,,,,,,,,,,,,,,,,,,,,,,,,,
0,18,18,19,1,,60df0768b4b2fa71f584a127,62c53ab6fcc75bafadb0f10e,2022-07-06_09h33.26.033,Colour_Asymmetry_Pilot,2022.1.3,Win32,59.86231667,62c50e9c1127f2cd403a315f,,,,,,,,,,,,,,,,,,,,,,,,,,,,,,,,,,,,,,,,,,,,,,,,,,,,,,,,,,,,,,,,,,,,,,,,,,,,,,,,,,,,,,,,,,,,,,,,,,,,,,,,,,,,,,,,,,,,,,,,,,,,,,,,,,,,,,,,,,,,,,,,,,,,,,,,,,,,,,,,,,,
0,19,19,86,1,,60df0768b4b2fa71f584a127,62c53ab6fcc75bafadb0f10e,2022-07-06_09h33.26.033,Colour_Asymmetry_Pilot,2022.1.3,Win32,59.86231667,62c50e9c1127f2cd403a315f,,,,,,,,,,,,,,,,,,,,,,,,,,,,,,,,,,,,,,,,,,,,,,,,,,,,,,,,,,,,,,,,,,,,,,,,,,,,,,,,,,,,,,,,,,,,,,,,,,,,,,,,,,,,,,,,,,,,,,,,,,,,,,,,,,,,,,,,,,,,,,,,,,,,,,,,,,,,,,,,,,,
0,20,20,30,1,,60df0768b4b2fa71f584a127,62c53ab6fcc75bafadb0f10e,2022-07-06_09h33.26.033,Colour_Asymmetry_Pilot,2022.1.3,Win32,59.86231667,62c50e9c1127f2cd403a315f,,,,,,,,,,,,,,,,,,,,,,,,,,,,,,,,,,,,,,,,,,,,,,,,,,,,,,,,,,,,,,,,,,,,,,,,,,,,,,,,,,,,,,,,,,,,,,,,,,,,,,,,,,,,,,,,,,,,,,,,,,,,,,,,,,,,,,,,,,,,,,,,,,,,,,,,,,,,,,,,,,,
0,21,21,48,1,,60df0768b4b2fa71f584a127,62c53ab6fcc75bafadb0f10e,2022-07-06_09h33.26.033,Colour_Asymmetry_Pilot,2022.1.3,Win32,59.86231667,62c50e9c1127f2cd403a315f,,,,,,,,,,,,,,,,,,,,,,,,,,,,,,,,,,,,,,,,,,,,,,,,,,,,,,,,,,,,,,,,,,,,,,,,,,,,,,,,,,,,,,,,,,,,,,,,,,,,,,,,,,,,,,,,,,,,,,,,,,,,,,,,,,,,,,,,,,,,,,,,,,,,,,,,,,,,,,,,,,,
0,22,22,52,1,,60df0768b4b2fa71f584a127,62c53ab6fcc75bafadb0f10e,2022-07-06_09h33.26.033,Colour_Asymmetry_Pilot,2022.1.3,Win32,59.86231667,62c50e9c1127f2cd403a315f,,,,,,,,,,,,,,,,,,,,,,,,,,,,,,,,,,,,,,,,,,,,,,,,,,,,,,,,,,,,,,,,,,,,,,,,,,,,,,,,,,,,,,,,,,,,,,,,,,,,,,,,,,,,,,,,,,,,,,,,,,,,,,,,,,,,,,,,,,,,,,,,,,,,,,,,,,,,,,,,,,,
0,23,23,65,1,,60df0768b4b2fa71f584a127,62c53ab6fcc75bafadb0f10e,2022-07-06_09h33.26.033,Colour_Asymmetry_Pilot,2022.1.3,Win32,59.86231667,62c50e9c1127f2cd403a315f,,,,,,,,,,,,,,,,,,,,,,,,,,,,,,,,,,,,,,,,,,,,,,,,,,,,,,,,,,,,,,,,,,,,,,,,,,,,,,,,,,,,,,,,,,,,,,,,,,,,,,,,,,,,,,,,,,,,,,,,,,,,,,,,,,,,,,,,,,,,,,,,,,,,,,,,,,,,,,,,,,,
0,24,24,79,1,,60df0768b4b2fa71f584a127,62c53ab6fcc75bafadb0f10e,2022-07-06_09h33.26.033,Colour_Asymmetry_Pilot,2022.1.3,Win32,59.86231667,62c50e9c1127f2cd403a315f,,,,,,,,,,,,,,,,,,,,,,,,,,,,,,,,,,,,,,,,,,,,,,,,,,,,,,,,,,,,,,,,,,,,,,,,,,,,,,,,,,,,,,,,,,,,,,,,,,,,,,,,,,,,,,,,,,,,,,,,,,,,,,,,,,,,,,,,,,,,,,,,,,,,,,,,,,,,,,,,,,,
0,25,25,18,1,,60df0768b4b2fa71f584a127,62c53ab6fcc75bafadb0f10e,2022-07-06_09h33.26.033,Colour_Asymmetry_Pilot,2022.1.3,Win32,59.86231667,62c50e9c1127f2cd403a315f,,,,,,,,,,,,,,,,,,,,,,,,,,,,,,,,,,,,,,,,,,,,,,,,,,,,,,,,,,,,,,,,,,,,,,,,,,,,,,,,,,,,,,,,,,,,,,,,,,,,,,,,,,,,,,,,,,,,,,,,,,,,,,,,,,,,,,,,,,,,,,,,,,,,,,,,,,,,,,,,,,,
0,26,26,5,1,,60df0768b4b2fa71f584a127,62c53ab6fcc75bafadb0f10e,2022-07-06_09h33.26.033,Colour_Asymmetry_Pilot,2022.1.3,Win32,59.86231667,62c50e9c1127f2cd403a315f,,,,,,,,,,,,,,,,,,,,,,,,,,,,,,,,,,,,,,,,,,,,,,,,,,,,,,,,,,,,,,,,,,,,,,,,,,,,,,,,,,,,,,,,,,,,,,,,,,,,,,,,,,,,,,,,,,,,,,,,,,,,,,,,,,,,,,,,,,,,,,,,,,,,,,,,,,,,,,,,,,,
0,27,27,61,1,,60df0768b4b2fa71f584a127,62c53ab6fcc75bafadb0f10e,2022-07-06_09h33.26.033,Colour_Asymmetry_Pilot,2022.1.3,Win32,59.86231667,62c50e9c1127f2cd403a315f,,,,,,,,,,,,,,,,,,,,,,,,,,,,,,,,,,,,,,,,,,,,,,,,,,,,,,,,,,,,,,,,,,,,,,,,,,,,,,,,,,,,,,,,,,,,,,,,,,,,,,,,,,,,,,,,,,,,,,,,,,,,,,,,,,,,,,,,,,,,,,,,,,,,,,,,,,,,,,,,,,,
0,28,28,71,1,,60df0768b4b2fa71f584a127,62c53ab6fcc75bafadb0f10e,2022-07-06_09h33.26.033,Colour_Asymmetry_Pilot,2022.1.3,Win32,59.86231667,62c50e9c1127f2cd403a315f,,,,,,,,,,,,,,,,,,,,,,,,,,,,,,,,,,,,,,,,,,,,,,,,,,,,,,,,,,,,,,,,,,,,,,,,,,,,,,,,,,,,,,,,,,,,,,,,,,,,,,,,,,,,,,,,,,,,,,,,,,,,,,,,,,,,,,,,,,,,,,,,,,,,,,,,,,,,,,,,,,,
0,29,29,82,1,,60df0768b4b2fa71f584a127,62c53ab6fcc75bafadb0f10e,2022-07-06_09h33.26.033,Colour_Asymmetry_Pilot,2022.1.3,Win32,59.86231667,62c50e9c1127f2cd403a315f,,,,,,,,,,,,,,,,,,,,,,,,,,,,,,,,,,,,,,,,,,,,,,,,,,,,,,,,,,,,,,,,,,,,,,,,,,,,,,,,,,,,,,,,,,,,,,,,,,,,,,,,,,,,,,,,,,,,,,,,,,,,,,,,,,,,,,,,,,,,,,,,,,,,,,,,,,,,,,,,,,,
0,30,30,16,1,,60df0768b4b2fa71f584a127,62c53ab6fcc75bafadb0f10e,2022-07-06_09h33.26.033,Colour_Asymmetry_Pilot,2022.1.3,Win32,59.86231667,62c50e9c1127f2cd403a315f,,,,,,,,,,,,,,,,,,,,,,,,,,,,,,,,,,,,,,,,,,,,,,,,,,,,,,,,,,,,,,,,,,,,,,,,,,,,,,,,,,,,,,,,,,,,,,,,,,,,,,,,,,,,,,,,,,,,,,,,,,,,,,,,,,,,,,,,,,,,,,,,,,,,,,,,,,,,,,,,,,,
0,31,31,2,1,,60df0768b4b2fa71f584a127,62c53ab6fcc75bafadb0f10e,2022-07-06_09h33.26.033,Colour_Asymmetry_Pilot,2022.1.3,Win32,59.86231667,62c50e9c1127f2cd403a315f,,,,,,,,,,,,,,,,,,,,,,,,,,,,,,,,,,,,,,,,,,,,,,,,,,,,,,,,,,,,,,,,,,,,,,,,,,,,,,,,,,,,,,,,,,,,,,,,,,,,,,,,,,,,,,,,,,,,,,,,,,,,,,,,,,,,,,,,,,,,,,,,,,,,,,,,,,,,,,,,,,,
0,32,32,11,1,,60df0768b4b2fa71f584a127,62c53ab6fcc75bafadb0f10e,2022-07-06_09h33.26.033,Colour_Asymmetry_Pilot,2022.1.3,Win32,59.86231667,62c50e9c1127f2cd403a315f,,,,,,,,,,,,,,,,,,,,,,,,,,,,,,,,,,,,,,,,,,,,,,,,,,,,,,,,,,,,,,,,,,,,,,,,,,,,,,,,,,,,,,,,,,,,,,,,,,,,,,,,,,,,,,,,,,,,,,,,,,,,,,,,,,,,,,,,,,,,,,,,,,,,,,,,,,,,,,,,,,,
0,33,33,49,1,,60df0768b4b2fa71f584a127,62c53ab6fcc75bafadb0f10e,2022-07-06_09h33.26.033,Colour_Asymmetry_Pilot,2022.1.3,Win32,59.86231667,62c50e9c1127f2cd403a315f,,,,,,,,,,,,,,,,,,,,,,,,,,,,,,,,,,,,,,,,,,,,,,,,,,,,,,,,,,,,,,,,,,,,,,,,,,,,,,,,,,,,,,,,,,,,,,,,,,,,,,,,,,,,,,,,,,,,,,,,,,,,,,,,,,,,,,,,,,,,,,,,,,,,,,,,,,,,,,,,,,,
0,34,34,53,1,,60df0768b4b2fa71f584a127,62c53ab6fcc75bafadb0f10e,2022-07-06_09h33.26.033,Colour_Asymmetry_Pilot,2022.1.3,Win32,59.86231667,62c50e9c1127f2cd403a315f,,,,,,,,,,,,,,,,,,,,,,,,,,,,,,,,,,,,,,,,,,,,,,,,,,,,,,,,,,,,,,,,,,,,,,,,,,,,,,,,,,,,,,,,,,,,,,,,,,,,,,,,,,,,,,,,,,,,,,,,,,,,,,,,,,,,,,,,,,,,,,,,,,,,,,,,,,,,,,,,,,,
0,35,35,3,1,,60df0768b4b2fa71f584a127,62c53ab6fcc75bafadb0f10e,2022-07-06_09h33.26.033,Colour_Asymmetry_Pilot,2022.1.3,Win32,59.86231667,62c50e9c1127f2cd403a315f,,,,,,,,,,,,,,,,,,,,,,,,,,,,,,,,,,,,,,,,,,,,,,,,,,,,,,,,,,,,,,,,,,,,,,,,,,,,,,,,,,,,,,,,,,,,,,,,,,,,,,,,,,,,,,,,,,,,,,,,,,,,,,,,,,,,,,,,,,,,,,,,,,,,,,,,,,,,,,,,,,,
0,36,36,62,1,,60df0768b4b2fa71f584a127,62c53ab6fcc75bafadb0f10e,2022-07-06_09h33.26.033,Colour_Asymmetry_Pilot,2022.1.3,Win32,59.86231667,62c50e9c1127f2cd403a315f,,,,,,,,,,,,,,,,,,,,,,,,,,,,,,,,,,,,,,,,,,,,,,,,,,,,,,,,,,,,,,,,,,,,,,,,,,,,,,,,,,,,,,,,,,,,,,,,,,,,,,,,,,,,,,,,,,,,,,,,,,,,,,,,,,,,,,,,,,,,,,,,,,,,,,,,,,,,,,,,,,,
0,37,37,12,1,,60df0768b4b2fa71f584a127,62c53ab6fcc75bafadb0f10e,2022-07-06_09h33.26.033,Colour_Asymmetry_Pilot,2022.1.3,Win32,59.86231667,62c50e9c1127f2cd403a315f,,,,,,,,,,,,,,,,,,,,,,,,,,,,,,,,,,,,,,,,,,,,,,,,,,,,,,,,,,,,,,,,,,,,,,,,,,,,,,,,,,,,,,,,,,,,,,,,,,,,,,,,,,,,,,,,,,,,,,,,,,,,,,,,,,,,,,,,,,,,,,,,,,,,,,,,,,,,,,,,,,,
0,38,38,51,1,,60df0768b4b2fa71f584a127,62c53ab6fcc75bafadb0f10e,2022-07-06_09h33.26.033,Colour_Asymmetry_Pilot,2022.1.3,Win32,59.86231667,62c50e9c1127f2cd403a315f,,,,,,,,,,,,,,,,,,,,,,,,,,,,,,,,,,,,,,,,,,,,,,,,,,,,,,,,,,,,,,,,,,,,,,,,,,,,,,,,,,,,,,,,,,,,,,,,,,,,,,,,,,,,,,,,,,,,,,,,,,,,,,,,,,,,,,,,,,,,,,,,,,,,,,,,,,,,,,,,,,,
0,39,39,40,1,,60df0768b4b2fa71f584a127,62c53ab6fcc75bafadb0f10e,2022-07-06_09h33.26.033,Colour_Asymmetry_Pilot,2022.1.3,Win32,59.86231667,62c50e9c1127f2cd403a315f,,,,,,,,,,,,,,,,,,,,,,,,,,,,,,,,,,,,,,,,,,,,,,,,,,,,,,,,,,,,,,,,,,,,,,,,,,,,,,,,,,,,,,,,,,,,,,,,,,,,,,,,,,,,,,,,,,,,,,,,,,,,,,,,,,,,,,,,,,,,,,,,,,,,,,,,,,,,,,,,,,,
0,40,40,29,1,,60df0768b4b2fa71f584a127,62c53ab6fcc75bafadb0f10e,2022-07-06_09h33.26.033,Colour_Asymmetry_Pilot,2022.1.3,Win32,59.86231667,62c50e9c1127f2cd403a315f,,,,,,,,,,,,,,,,,,,,,,,,,,,,,,,,,,,,,,,,,,,,,,,,,,,,,,,,,,,,,,,,,,,,,,,,,,,,,,,,,,,,,,,,,,,,,,,,,,,,,,,,,,,,,,,,,,,,,,,,,,,,,,,,,,,,,,,,,,,,,,,,,,,,,,,,,,,,,,,,,,,
0,41,41,80,1,,60df0768b4b2fa71f584a127,62c53ab6fcc75bafadb0f10e,2022-07-06_09h33.26.033,Colour_Asymmetry_Pilot,2022.1.3,Win32,59.86231667,62c50e9c1127f2cd403a315f,,,,,,,,,,,,,,,,,,,,,,,,,,,,,,,,,,,,,,,,,,,,,,,,,,,,,,,,,,,,,,,,,,,,,,,,,,,,,,,,,,,,,,,,,,,,,,,,,,,,,,,,,,,,,,,,,,,,,,,,,,,,,,,,,,,,,,,,,,,,,,,,,,,,,,,,,,,,,,,,,,,
0,42,42,31,1,,60df0768b4b2fa71f584a127,62c53ab6fcc75bafadb0f10e,2022-07-06_09h33.26.033,Colour_Asymmetry_Pilot,2022.1.3,Win32,59.86231667,62c50e9c1127f2cd403a315f,,,,,,,,,,,,,,,,,,,,,,,,,,,,,,,,,,,,,,,,,,,,,,,,,,,,,,,,,,,,,,,,,,,,,,,,,,,,,,,,,,,,,,,,,,,,,,,,,,,,,,,,,,,,,,,,,,,,,,,,,,,,,,,,,,,,,,,,,,,,,,,,,,,,,,,,,,,,,,,,,,,
0,43,43,24,1,,60df0768b4b2fa71f584a127,62c53ab6fcc75bafadb0f10e,2022-07-06_09h33.26.033,Colour_Asymmetry_Pilot,2022.1.3,Win32,59.86231667,62c50e9c1127f2cd403a315f,,,,,,,,,,,,,,,,,,,,,,,,,,,,,,,,,,,,,,,,,,,,,,,,,,,,,,,,,,,,,,,,,,,,,,,,,,,,,,,,,,,,,,,,,,,,,,,,,,,,,,,,,,,,,,,,,,,,,,,,,,,,,,,,,,,,,,,,,,,,,,,,,,,,,,,,,,,,,,,,,,,
0,44,44,83,1,,60df0768b4b2fa71f584a127,62c53ab6fcc75bafadb0f10e,2022-07-06_09h33.26.033,Colour_Asymmetry_Pilot,2022.1.3,Win32,59.86231667,62c50e9c1127f2cd403a315f,,,,,,,,,,,,,,,,,,,,,,,,,,,,,,,,,,,,,,,,,,,,,,,,,,,,,,,,,,,,,,,,,,,,,,,,,,,,,,,,,,,,,,,,,,,,,,,,,,,,,,,,,,,,,,,,,,,,,,,,,,,,,,,,,,,,,,,,,,,,,,,,,,,,,,,,,,,,,,,,,,,
0,45,45,57,1,,60df0768b4b2fa71f584a127,62c53ab6fcc75bafadb0f10e,2022-07-06_09h33.26.033,Colour_Asymmetry_Pilot,2022.1.3,Win32,59.86231667,62c50e9c1127f2cd403a315f,,,,,,,,,,,,,,,,,,,,,,,,,,,,,,,,,,,,,,,,,,,,,,,,,,,,,,,,,,,,,,,,,,,,,,,,,,,,,,,,,,,,,,,,,,,,,,,,,,,,,,,,,,,,,,,,,,,,,,,,,,,,,,,,,,,,,,,,,,,,,,,,,,,,,,,,,,,,,,,,,,,
0,46,46,92,1,,60df0768b4b2fa71f584a127,62c53ab6fcc75bafadb0f10e,2022-07-06_09h33.26.033,Colour_Asymmetry_Pilot,2022.1.3,Win32,59.86231667,62c50e9c1127f2cd403a315f,,,,,,,,,,,,,,,,,,,,,,,,,,,,,,,,,,,,,,,,,,,,,,,,,,,,,,,,,,,,,,,,,,,,,,,,,,,,,,,,,,,,,,,,,,,,,,,,,,,,,,,,,,,,,,,,,,,,,,,,,,,,,,,,,,,,,,,,,,,,,,,,,,,,,,,,,,,,,,,,,,,
0,47,47,25,1,,60df0768b4b2fa71f584a127,62c53ab6fcc75bafadb0f10e,2022-07-06_09h33.26.033,Colour_Asymmetry_Pilot,2022.1.3,Win32,59.86231667,62c50e9c1127f2cd403a315f,,,,,,,,,,,,,,,,,,,,,,,,,,,,,,,,,,,,,,,,,,,,,,,,,,,,,,,,,,,,,,,,,,,,,,,,,,,,,,,,,,,,,,,,,,,,,,,,,,,,,,,,,,,,,,,,,,,,,,,,,,,,,,,,,,,,,,,,,,,,,,,,,,,,,,,,,,,,,,,,,,,
0,48,48,87,1,,60df0768b4b2fa71f584a127,62c53ab6fcc75bafadb0f10e,2022-07-06_09h33.26.033,Colour_Asymmetry_Pilot,2022.1.3,Win32,59.86231667,62c50e9c1127f2cd403a315f,,,,,,,,,,,,,,,,,,,,,,,,,,,,,,,,,,,,,,,,,,,,,,,,,,,,,,,,,,,,,,,,,,,,,,,,,,,,,,,,,,,,,,,,,,,,,,,,,,,,,,,,,,,,,,,,,,,,,,,,,,,,,,,,,,,,,,,,,,,,,,,,,,,,,,,,,,,,,,,,,,,
0,49,49,56,1,,60df0768b4b2fa71f584a127,62c53ab6fcc75bafadb0f10e,2022-07-06_09h33.26.033,Colour_Asymmetry_Pilot,2022.1.3,Win32,59.86231667,62c50e9c1127f2cd403a315f,,,,,,,,,,,,,,,,,,,,,,,,,,,,,,,,,,,,,,,,,,,,,,,,,,,,,,,,,,,,,,,,,,,,,,,,,,,,,,,,,,,,,,,,,,,,,,,,,,,,,,,,,,,,,,,,,,,,,,,,,,,,,,,,,,,,,,,,,,,,,,,,,,,,,,,,,,,,,,,,,,,
0,50,50,75,1,,60df0768b4b2fa71f584a127,62c53ab6fcc75bafadb0f10e,2022-07-06_09h33.26.033,Colour_Asymmetry_Pilot,2022.1.3,Win32,59.86231667,62c50e9c1127f2cd403a315f,,,,,,,,,,,,,,,,,,,,,,,,,,,,,,,,,,,,,,,,,,,,,,,,,,,,,,,,,,,,,,,,,,,,,,,,,,,,,,,,,,,,,,,,,,,,,,,,,,,,,,,,,,,,,,,,,,,,,,,,,,,,,,,,,,,,,,,,,,,,,,,,,,,,,,,,,,,,,,,,,,,
0,51,51,72,1,,60df0768b4b2fa71f584a127,62c53ab6fcc75bafadb0f10e,2022-07-06_09h33.26.033,Colour_Asymmetry_Pilot,2022.1.3,Win32,59.86231667,62c50e9c1127f2cd403a315f,,,,,,,,,,,,,,,,,,,,,,,,,,,,,,,,,,,,,,,,,,,,,,,,,,,,,,,,,,,,,,,,,,,,,,,,,,,,,,,,,,,,,,,,,,,,,,,,,,,,,,,,,,,,,,,,,,,,,,,,,,,,,,,,,,,,,,,,,,,,,,,,,,,,,,,,,,,,,,,,,,,
0,52,52,7,1,,60df0768b4b2fa71f584a127,62c53ab6fcc75bafadb0f10e,2022-07-06_09h33.26.033,Colour_Asymmetry_Pilot,2022.1.3,Win32,59.86231667,62c50e9c1127f2cd403a315f,,,,,,,,,,,,,,,,,,,,,,,,,,,,,,,,,,,,,,,,,,,,,,,,,,,,,,,,,,,,,,,,,,,,,,,,,,,,,,,,,,,,,,,,,,,,,,,,,,,,,,,,,,,,,,,,,,,,,,,,,,,,,,,,,,,,,,,,,,,,,,,,,,,,,,,,,,,,,,,,,,,
0,53,53,85,1,,60df0768b4b2fa71f584a127,62c53ab6fcc75bafadb0f10e,2022-07-06_09h33.26.033,Colour_Asymmetry_Pilot,2022.1.3,Win32,59.86231667,62c50e9c1127f2cd403a315f,,,,,,,,,,,,,,,,,,,,,,,,,,,,,,,,,,,,,,,,,,,,,,,,,,,,,,,,,,,,,,,,,,,,,,,,,,,,,,,,,,,,,,,,,,,,,,,,,,,,,,,,,,,,,,,,,,,,,,,,,,,,,,,,,,,,,,,,,,,,,,,,,,,,,,,,,,,,,,,,,,,
0,54,54,50,1,,60df0768b4b2fa71f584a127,62c53ab6fcc75bafadb0f10e,2022-07-06_09h33.26.033,Colour_Asymmetry_Pilot,2022.1.3,Win32,59.86231667,62c50e9c1127f2cd403a315f,,,,,,,,,,,,,,,,,,,,,,,,,,,,,,,,,,,,,,,,,,,,,,,,,,,,,,,,,,,,,,,,,,,,,,,,,,,,,,,,,,,,,,,,,,,,,,,,,,,,,,,,,,,,,,,,,,,,,,,,,,,,,,,,,,,,,,,,,,,,,,,,,,,,,,,,,,,,,,,,,,,
0,55,55,33,1,,60df0768b4b2fa71f584a127,62c53ab6fcc75bafadb0f10e,2022-07-06_09h33.26.033,Colour_Asymmetry_Pilot,2022.1.3,Win32,59.86231667,62c50e9c1127f2cd403a315f,,,,,,,,,,,,,,,,,,,,,,,,,,,,,,,,,,,,,,,,,,,,,,,,,,,,,,,,,,,,,,,,,,,,,,,,,,,,,,,,,,,,,,,,,,,,,,,,,,,,,,,,,,,,,,,,,,,,,,,,,,,,,,,,,,,,,,,,,,,,,,,,,,,,,,,,,,,,,,,,,,,
0,56,56,4,1,,60df0768b4b2fa71f584a127,62c53ab6fcc75bafadb0f10e,2022-07-06_09h33.26.033,Colour_Asymmetry_Pilot,2022.1.3,Win32,59.86231667,62c50e9c1127f2cd403a315f,,,,,,,,,,,,,,,,,,,,,,,,,,,,,,,,,,,,,,,,,,,,,,,,,,,,,,,,,,,,,,,,,,,,,,,,,,,,,,,,,,,,,,,,,,,,,,,,,,,,,,,,,,,,,,,,,,,,,,,,,,,,,,,,,,,,,,,,,,,,,,,,,,,,,,,,,,,,,,,,,,,
0,57,57,36,1,,60df0768b4b2fa71f584a127,62c53ab6fcc75bafadb0f10e,2022-07-06_09h33.26.033,Colour_Asymmetry_Pilot,2022.1.3,Win32,59.86231667,62c50e9c1127f2cd403a315f,,,,,,,,,,,,,,,,,,,,,,,,,,,,,,,,,,,,,,,,,,,,,,,,,,,,,,,,,,,,,,,,,,,,,,,,,,,,,,,,,,,,,,,,,,,,,,,,,,,,,,,,,,,,,,,,,,,,,,,,,,,,,,,,,,,,,,,,,,,,,,,,,,,,,,,,,,,,,,,,,,,
0,58,58,55,1,,60df0768b4b2fa71f584a127,62c53ab6fcc75bafadb0f10e,2022-07-06_09h33.26.033,Colour_Asymmetry_Pilot,2022.1.3,Win32,59.86231667,62c50e9c1127f2cd403a315f,,,,,,,,,,,,,,,,,,,,,,,,,,,,,,,,,,,,,,,,,,,,,,,,,,,,,,,,,,,,,,,,,,,,,,,,,,,,,,,,,,,,,,,,,,,,,,,,,,,,,,,,,,,,,,,,,,,,,,,,,,,,,,,,,,,,,,,,,,,,,,,,,,,,,,,,,,,,,,,,,,,
0,59,59,89,1,,60df0768b4b2fa71f584a127,62c53ab6fcc75bafadb0f10e,2022-07-06_09h33.26.033,Colour_Asymmetry_Pilot,2022.1.3,Win32,59.86231667,62c50e9c1127f2cd403a315f,,,,,,,,,,,,,,,,,,,,,,,,,,,,,,,,,,,,,,,,,,,,,,,,,,,,,,,,,,,,,,,,,,,,,,,,,,,,,,,,,,,,,,,,,,,,,,,,,,,,,,,,,,,,,,,,,,,,,,,,,,,,,,,,,,,,,,,,,,,,,,,,,,,,,,,,,,,,,,,,,,,
0,60,60,10,1,,60df0768b4b2fa71f584a127,62c53ab6fcc75bafadb0f10e,2022-07-06_09h33.26.033,Colour_Asymmetry_Pilot,2022.1.3,Win32,59.86231667,62c50e9c1127f2cd403a315f,,,,,,,,,,,,,,,,,,,,,,,,,,,,,,,,,,,,,,,,,,,,,,,,,,,,,,,,,,,,,,,,,,,,,,,,,,,,,,,,,,,,,,,,,,,,,,,,,,,,,,,,,,,,,,,,,,,,,,,,,,,,,,,,,,,,,,,,,,,,,,,,,,,,,,,,,,,,,,,,,,,
0,61,61,35,1,,60df0768b4b2fa71f584a127,62c53ab6fcc75bafadb0f10e,2022-07-06_09h33.26.033,Colour_Asymmetry_Pilot,2022.1.3,Win32,59.86231667,62c50e9c1127f2cd403a315f,,,,,,,,,,,,,,,,,,,,,,,,,,,,,,,,,,,,,,,,,,,,,,,,,,,,,,,,,,,,,,,,,,,,,,,,,,,,,,,,,,,,,,,,,,,,,,,,,,,,,,,,,,,,,,,,,,,,,,,,,,,,,,,,,,,,,,,,,,,,,,,,,,,,,,,,,,,,,,,,,,,
0,62,62,84,1,,60df0768b4b2fa71f584a127,62c53ab6fcc75bafadb0f10e,2022-07-06_09h33.26.033,Colour_Asymmetry_Pilot,2022.1.3,Win32,59.86231667,62c50e9c1127f2cd403a315f,,,,,,,,,,,,,,,,,,,,,,,,,,,,,,,,,,,,,,,,,,,,,,,,,,,,,,,,,,,,,,,,,,,,,,,,,,,,,,,,,,,,,,,,,,,,,,,,,,,,,,,,,,,,,,,,,,,,,,,,,,,,,,,,,,,,,,,,,,,,,,,,,,,,,,,,,,,,,,,,,,,
0,63,63,6,1,,60df0768b4b2fa71f584a127,62c53ab6fcc75bafadb0f10e,2022-07-06_09h33.26.033,Colour_Asymmetry_Pilot,2022.1.3,Win32,59.86231667,62c50e9c1127f2cd403a315f,,,,,,,,,,,,,,,,,,,,,,,,,,,,,,,,,,,,,,,,,,,,,,,,,,,,,,,,,,,,,,,,,,,,,,,,,,,,,,,,,,,,,,,,,,,,,,,,,,,,,,,,,,,,,,,,,,,,,,,,,,,,,,,,,,,,,,,,,,,,,,,,,,,,,,,,,,,,,,,,,,,
0,64,64,17,1,,60df0768b4b2fa71f584a127,62c53ab6fcc75bafadb0f10e,2022-07-06_09h33.26.033,Colour_Asymmetry_Pilot,2022.1.3,Win32,59.86231667,62c50e9c1127f2cd403a315f,,,,,,,,,,,,,,,,,,,,,,,,,,,,,,,,,,,,,,,,,,,,,,,,,,,,,,,,,,,,,,,,,,,,,,,,,,,,,,,,,,,,,,,,,,,,,,,,,,,,,,,,,,,,,,,,,,,,,,,,,,,,,,,,,,,,,,,,,,,,,,,,,,,,,,,,,,,,,,,,,,,
0,65,65,90,1,,60df0768b4b2fa71f584a127,62c53ab6fcc75bafadb0f10e,2022-07-06_09h33.26.033,Colour_Asymmetry_Pilot,2022.1.3,Win32,59.86231667,62c50e9c1127f2cd403a315f,,,,,,,,,,,,,,,,,,,,,,,,,,,,,,,,,,,,,,,,,,,,,,,,,,,,,,,,,,,,,,,,,,,,,,,,,,,,,,,,,,,,,,,,,,,,,,,,,,,,,,,,,,,,,,,,,,,,,,,,,,,,,,,,,,,,,,,,,,,,,,,,,,,,,,,,,,,,,,,,,,,
0,66,66,76,1,,60df0768b4b2fa71f584a127,62c53ab6fcc75bafadb0f10e,2022-07-06_09h33.26.033,Colour_Asymmetry_Pilot,2022.1.3,Win32,59.86231667,62c50e9c1127f2cd403a315f,,,,,,,,,,,,,,,,,,,,,,,,,,,,,,,,,,,,,,,,,,,,,,,,,,,,,,,,,,,,,,,,,,,,,,,,,,,,,,,,,,,,,,,,,,,,,,,,,,,,,,,,,,,,,,,,,,,,,,,,,,,,,,,,,,,,,,,,,,,,,,,,,,,,,,,,,,,,,,,,,,,
0,67,67,59,1,,60df0768b4b2fa71f584a127,62c53ab6fcc75bafadb0f10e,2022-07-06_09h33.26.033,Colour_Asymmetry_Pilot,2022.1.3,Win32,59.86231667,62c50e9c1127f2cd403a315f,,,,,,,,,,,,,,,,,,,,,,,,,,,,,,,,,,,,,,,,,,,,,,,,,,,,,,,,,,,,,,,,,,,,,,,,,,,,,,,,,,,,,,,,,,,,,,,,,,,,,,,,,,,,,,,,,,,,,,,,,,,,,,,,,,,,,,,,,,,,,,,,,,,,,,,,,,,,,,,,,,,
0,68,68,38,1,,60df0768b4b2fa71f584a127,62c53ab6fcc75bafadb0f10e,2022-07-06_09h33.26.033,Colour_Asymmetry_Pilot,2022.1.3,Win32,59.86231667,62c50e9c1127f2cd403a315f,,,,,,,,,,,,,,,,,,,,,,,,,,,,,,,,,,,,,,,,,,,,,,,,,,,,,,,,,,,,,,,,,,,,,,,,,,,,,,,,,,,,,,,,,,,,,,,,,,,,,,,,,,,,,,,,,,,,,,,,,,,,,,,,,,,,,,,,,,,,,,,,,,,,,,,,,,,,,,,,,,,
0,69,69,46,1,,60df0768b4b2fa71f584a127,62c53ab6fcc75bafadb0f10e,2022-07-06_09h33.26.033,Colour_Asymmetry_Pilot,2022.1.3,Win32,59.86231667,62c50e9c1127f2cd403a315f,,,,,,,,,,,,,,,,,,,,,,,,,,,,,,,,,,,,,,,,,,,,,,,,,,,,,,,,,,,,,,,,,,,,,,,,,,,,,,,,,,,,,,,,,,,,,,,,,,,,,,,,,,,,,,,,,,,,,,,,,,,,,,,,,,,,,,,,,,,,,,,,,,,,,,,,,,,,,,,,,,,
0,70,70,39,1,,60df0768b4b2fa71f584a127,62c53ab6fcc75bafadb0f10e,2022-07-06_09h33.26.033,Colour_Asymmetry_Pilot,2022.1.3,Win32,59.86231667,62c50e9c1127f2cd403a315f,,,,,,,,,,,,,,,,,,,,,,,,,,,,,,,,,,,,,,,,,,,,,,,,,,,,,,,,,,,,,,,,,,,,,,,,,,,,,,,,,,,,,,,,,,,,,,,,,,,,,,,,,,,,,,,,,,,,,,,,,,,,,,,,,,,,,,,,,,,,,,,,,,,,,,,,,,,,,,,,,,,
0,71,71,47,1,,60df0768b4b2fa71f584a127,62c53ab6fcc75bafadb0f10e,2022-07-06_09h33.26.033,Colour_Asymmetry_Pilot,2022.1.3,Win32,59.86231667,62c50e9c1127f2cd403a315f,,,,,,,,,,,,,,,,,,,,,,,,,,,,,,,,,,,,,,,,,,,,,,,,,,,,,,,,,,,,,,,,,,,,,,,,,,,,,,,,,,,,,,,,,,,,,,,,,,,,,,,,,,,,,,,,,,,,,,,,,,,,,,,,,,,,,,,,,,,,,,,,,,,,,,,,,,,,,,,,,,,
0,72,72,58,1,,60df0768b4b2fa71f584a127,62c53ab6fcc75bafadb0f10e,2022-07-06_09h33.26.033,Colour_Asymmetry_Pilot,2022.1.3,Win32,59.86231667,62c50e9c1127f2cd403a315f,,,,,,,,,,,,,,,,,,,,,,,,,,,,,,,,,,,,,,,,,,,,,,,,,,,,,,,,,,,,,,,,,,,,,,,,,,,,,,,,,,,,,,,,,,,,,,,,,,,,,,,,,,,,,,,,,,,,,,,,,,,,,,,,,,,,,,,,,,,,,,,,,,,,,,,,,,,,,,,,,,,
0,73,73,70,1,,60df0768b4b2fa71f584a127,62c53ab6fcc75bafadb0f10e,2022-07-06_09h33.26.033,Colour_Asymmetry_Pilot,2022.1.3,Win32,59.86231667,62c50e9c1127f2cd403a315f,,,,,,,,,,,,,,,,,,,,,,,,,,,,,,,,,,,,,,,,,,,,,,,,,,,,,,,,,,,,,,,,,,,,,,,,,,,,,,,,,,,,,,,,,,,,,,,,,,,,,,,,,,,,,,,,,,,,,,,,,,,,,,,,,,,,,,,,,,,,,,,,,,,,,,,,,,,,,,,,,,,
0,74,74,64,1,,60df0768b4b2fa71f584a127,62c53ab6fcc75bafadb0f10e,2022-07-06_09h33.26.033,Colour_Asymmetry_Pilot,2022.1.3,Win32,59.86231667,62c50e9c1127f2cd403a315f,,,,,,,,,,,,,,,,,,,,,,,,,,,,,,,,,,,,,,,,,,,,,,,,,,,,,,,,,,,,,,,,,,,,,,,,,,,,,,,,,,,,,,,,,,,,,,,,,,,,,,,,,,,,,,,,,,,,,,,,,,,,,,,,,,,,,,,,,,,,,,,,,,,,,,,,,,,,,,,,,,,
0,75,75,20,1,,60df0768b4b2fa71f584a127,62c53ab6fcc75bafadb0f10e,2022-07-06_09h33.26.033,Colour_Asymmetry_Pilot,2022.1.3,Win32,59.86231667,62c50e9c1127f2cd403a315f,,,,,,,,,,,,,,,,,,,,,,,,,,,,,,,,,,,,,,,,,,,,,,,,,,,,,,,,,,,,,,,,,,,,,,,,,,,,,,,,,,,,,,,,,,,,,,,,,,,,,,,,,,,,,,,,,,,,,,,,,,,,,,,,,,,,,,,,,,,,,,,,,,,,,,,,,,,,,,,,,,,
0,76,76,14,1,,60df0768b4b2fa71f584a127,62c53ab6fcc75bafadb0f10e,2022-07-06_09h33.26.033,Colour_Asymmetry_Pilot,2022.1.3,Win32,59.86231667,62c50e9c1127f2cd403a315f,,,,,,,,,,,,,,,,,,,,,,,,,,,,,,,,,,,,,,,,,,,,,,,,,,,,,,,,,,,,,,,,,,,,,,,,,,,,,,,,,,,,,,,,,,,,,,,,,,,,,,,,,,,,,,,,,,,,,,,,,,,,,,,,,,,,,,,,,,,,,,,,,,,,,,,,,,,,,,,,,,,
0,77,77,45,1,,60df0768b4b2fa71f584a127,62c53ab6fcc75bafadb0f10e,2022-07-06_09h33.26.033,Colour_Asymmetry_Pilot,2022.1.3,Win32,59.86231667,62c50e9c1127f2cd403a315f,,,,,,,,,,,,,,,,,,,,,,,,,,,,,,,,,,,,,,,,,,,,,,,,,,,,,,,,,,,,,,,,,,,,,,,,,,,,,,,,,,,,,,,,,,,,,,,,,,,,,,,,,,,,,,,,,,,,,,,,,,,,,,,,,,,,,,,,,,,,,,,,,,,,,,,,,,,,,,,,,,,
0,78,78,15,1,,60df0768b4b2fa71f584a127,62c53ab6fcc75bafadb0f10e,2022-07-06_09h33.26.033,Colour_Asymmetry_Pilot,2022.1.3,Win32,59.86231667,62c50e9c1127f2cd403a315f,,,,,,,,,,,,,,,,,,,,,,,,,,,,,,,,,,,,,,,,,,,,,,,,,,,,,,,,,,,,,,,,,,,,,,,,,,,,,,,,,,,,,,,,,,,,,,,,,,,,,,,,,,,,,,,,,,,,,,,,,,,,,,,,,,,,,,,,,,,,,,,,,,,,,,,,,,,,,,,,,,,
0,79,79,13,1,,60df0768b4b2fa71f584a127,62c53ab6fcc75bafadb0f10e,2022-07-06_09h33.26.033,Colour_Asymmetry_Pilot,2022.1.3,Win32,59.86231667,62c50e9c1127f2cd403a315f,,,,,,,,,,,,,,,,,,,,,,,,,,,,,,,,,,,,,,,,,,,,,,,,,,,,,,,,,,,,,,,,,,,,,,,,,,,,,,,,,,,,,,,,,,,,,,,,,,,,,,,,,,,,,,,,,,,,,,,,,,,,,,,,,,,,,,,,,,,,,,,,,,,,,,,,,,,,,,,,,,,
0,80,80,34,1,,60df0768b4b2fa71f584a127,62c53ab6fcc75bafadb0f10e,2022-07-06_09h33.26.033,Colour_Asymmetry_Pilot,2022.1.3,Win32,59.86231667,62c50e9c1127f2cd403a315f,,,,,,,,,,,,,,,,,,,,,,,,,,,,,,,,,,,,,,,,,,,,,,,,,,,,,,,,,,,,,,,,,,,,,,,,,,,,,,,,,,,,,,,,,,,,,,,,,,,,,,,,,,,,,,,,,,,,,,,,,,,,,,,,,,,,,,,,,,,,,,,,,,,,,,,,,,,,,,,,,,,
0,81,81,68,1,,60df0768b4b2fa71f584a127,62c53ab6fcc75bafadb0f10e,2022-07-06_09h33.26.033,Colour_Asymmetry_Pilot,2022.1.3,Win32,59.86231667,62c50e9c1127f2cd403a315f,,,,,,,,,,,,,,,,,,,,,,,,,,,,,,,,,,,,,,,,,,,,,,,,,,,,,,,,,,,,,,,,,,,,,,,,,,,,,,,,,,,,,,,,,,,,,,,,,,,,,,,,,,,,,,,,,,,,,,,,,,,,,,,,,,,,,,,,,,,,,,,,,,,,,,,,,,,,,,,,,,,
0,82,82,54,1,,60df0768b4b2fa71f584a127,62c53ab6fcc75bafadb0f10e,2022-07-06_09h33.26.033,Colour_Asymmetry_Pilot,2022.1.3,Win32,59.86231667,62c50e9c1127f2cd403a315f,,,,,,,,,,,,,,,,,,,,,,,,,,,,,,,,,,,,,,,,,,,,,,,,,,,,,,,,,,,,,,,,,,,,,,,,,,,,,,,,,,,,,,,,,,,,,,,,,,,,,,,,,,,,,,,,,,,,,,,,,,,,,,,,,,,,,,,,,,,,,,,,,,,,,,,,,,,,,,,,,,,
0,83,83,41,1,,60df0768b4b2fa71f584a127,62c53ab6fcc75bafadb0f10e,2022-07-06_09h33.26.033,Colour_Asymmetry_Pilot,2022.1.3,Win32,59.86231667,62c50e9c1127f2cd403a315f,,,,,,,,,,,,,,,,,,,,,,,,,,,,,,,,,,,,,,,,,,,,,,,,,,,,,,,,,,,,,,,,,,,,,,,,,,,,,,,,,,,,,,,,,,,,,,,,,,,,,,,,,,,,,,,,,,,,,,,,,,,,,,,,,,,,,,,,,,,,,,,,,,,,,,,,,,,,,,,,,,,
0,84,84,42,1,,60df0768b4b2fa71f584a127,62c53ab6fcc75bafadb0f10e,2022-07-06_09h33.26.033,Colour_Asymmetry_Pilot,2022.1.3,Win32,59.86231667,62c50e9c1127f2cd403a315f,,,,,,,,,,,,,,,,,,,,,,,,,,,,,,,,,,,,,,,,,,,,,,,,,,,,,,,,,,,,,,,,,,,,,,,,,,,,,,,,,,,,,,,,,,,,,,,,,,,,,,,,,,,,,,,,,,,,,,,,,,,,,,,,,,,,,,,,,,,,,,,,,,,,,,,,,,,,,,,,,,,
0,85,85,0,1,,60df0768b4b2fa71f584a127,62c53ab6fcc75bafadb0f10e,2022-07-06_09h33.26.033,Colour_Asymmetry_Pilot,2022.1.3,Win32,59.86231667,62c50e9c1127f2cd403a315f,,,,,,,,,,,,,,,,,,,,,,,,,,,,,,,,,,,,,,,,,,,,,,,,,,,,,,,,,,,,,,,,,,,,,,,,,,,,,,,,,,,,,,,,,,,,,,,,,,,,,,,,,,,,,,,,,,,,,,,,,,,,,,,,,,,,,,,,,,,,,,,,,,,,,,,,,,,,,,,,,,,
0,86,86,22,1,,60df0768b4b2fa71f584a127,62c53ab6fcc75bafadb0f10e,2022-07-06_09h33.26.033,Colour_Asymmetry_Pilot,2022.1.3,Win32,59.86231667,62c50e9c1127f2cd403a315f,,,,,,,,,,,,,,,,,,,,,,,,,,,,,,,,,,,,,,,,,,,,,,,,,,,,,,,,,,,,,,,,,,,,,,,,,,,,,,,,,,,,,,,,,,,,,,,,,,,,,,,,,,,,,,,,,,,,,,,,,,,,,,,,,,,,,,,,,,,,,,,,,,,,,,,,,,,,,,,,,,,
0,87,87,81,1,,60df0768b4b2fa71f584a127,62c53ab6fcc75bafadb0f10e,2022-07-06_09h33.26.033,Colour_Asymmetry_Pilot,2022.1.3,Win32,59.86231667,62c50e9c1127f2cd403a315f,,,,,,,,,,,,,,,,,,,,,,,,,,,,,,,,,,,,,,,,,,,,,,,,,,,,,,,,,,,,,,,,,,,,,,,,,,,,,,,,,,,,,,,,,,,,,,,,,,,,,,,,,,,,,,,,,,,,,,,,,,,,,,,,,,,,,,,,,,,,,,,,,,,,,,,,,,,,,,,,,,,
0,88,88,32,1,,60df0768b4b2fa71f584a127,62c53ab6fcc75bafadb0f10e,2022-07-06_09h33.26.033,Colour_Asymmetry_Pilot,2022.1.3,Win32,59.86231667,62c50e9c1127f2cd403a315f,,,,,,,,,,,,,,,,,,,,,,,,,,,,,,,,,,,,,,,,,,,,,,,,,,,,,,,,,,,,,,,,,,,,,,,,,,,,,,,,,,,,,,,,,,,,,,,,,,,,,,,,,,,,,,,,,,,,,,,,,,,,,,,,,,,,,,,,,,,,,,,,,,,,,,,,,,,,,,,,,,,
0,89,89,78,1,,60df0768b4b2fa71f584a127,62c53ab6fcc75bafadb0f10e,2022-07-06_09h33.26.033,Colour_Asymmetry_Pilot,2022.1.3,Win32,59.86231667,62c50e9c1127f2cd403a315f,,,,,,,,,,,,,,,,,,,,,,,,,,,,,,,,,,,,,,,,,,,,,,,,,,,,,,,,,,,,,,,,,,,,,,,,,,,,,,,,,,,,,,,,,,,,,,,,,,,,,,,,,,,,,,,,,,,,,,,,,,,,,,,,,,,,,,,,,,,,,,,,,,,,,,,,,,,,,,,,,,,
0,90,90,26,1,,60df0768b4b2fa71f584a127,62c53ab6fcc75bafadb0f10e,2022-07-06_09h33.26.033,Colour_Asymmetry_Pilot,2022.1.3,Win32,59.86231667,62c50e9c1127f2cd403a315f,,,,,,,,,,,,,,,,,,,,,,,,,,,,,,,,,,,,,,,,,,,,,,,,,,,,,,,,,,,,,,,,,,,,,,,,,,,,,,,,,,,,,,,,,,,,,,,,,,,,,,,,,,,,,,,,,,,,,,,,,,,,,,,,,,,,,,,,,,,,,,,,,,,,,,,,,,,,,,,,,,,
0,91,91,67,1,,60df0768b4b2fa71f584a127,62c53ab6fcc75bafadb0f10e,2022-07-06_09h33.26.033,Colour_Asymmetry_Pilot,2022.1.3,Win32,59.86231667,62c50e9c1127f2cd403a315f,,,,,,,,,,,,,,,,,,,,,,,,,,,,,,,,,,,,,,,,,,,,,,,,,,,,,,,,,,,,,,,,,,,,,,,,,,,,,,,,,,,,,,,,,,,,,,,,,,,,,,,,,,,,,,,,,,,,,,,,,,,,,,,,,,,,,,,,,,,,,,,,,,,,,,,,,,,,,,,,,,,
0,92,92,21,1,,60df0768b4b2fa71f584a127,62c53ab6fcc75bafadb0f10e,2022-07-06_09h33.26.033,Colour_Asymmetry_Pilot,2022.1.3,Win32,59.86231667,62c50e9c1127f2cd403a315f,,,,,,,,,,,,,,,,,,,,,,,,,,,,,,,,,,,,,,,,,,,,,,,,,,,,,,,,,,,,,,,,,,,,,,,,,,,,,,,,,,,,,,,,,,,,,,,,,,,,,,,,,,,,,,,,,,,,,,,,,,,,,,,,,,,,,,,,,,,,,,,,,,,,,,,,,,,,,,,,,,,
,,,,,,60df0768b4b2fa71f584a127,62c53ab6fcc75bafadb0f10e,2022-07-06_09h33.26.033,Colour_Asymmetry_Pilot,2022.1.3,Win32,59.86231667,62c50e9c1127f2cd403a315f,0,0,0,39,1,fourthree,,,,,,,,,,,,,,,,,,,,,,,,,,,,,,,,,,,,,,,,,,,,,,,,,,,,,,,,,,,,,,,,,,,,,,,,,,,,,,,,,,,,,,,,,,,,,,,,,,,,,,,,,,,,,,,,,,,,,,,,,,,,,,,,,,,,,,,,,,,,,,,,,,,,,,,,,,,,,
,,,,,,60df0768b4b2fa71f584a127,62c53ab6fcc75bafadb0f10e,2022-07-06_09h33.26.033,Colour_Asymmetry_Pilot,2022.1.3,Win32,59.86231667,62c50e9c1127f2cd403a315f,0,1,1,61,1,threefour,,,,,,,,,,,,,,,,,,,,,,,,,,,,,,,,,,,,,,,,,,,,,,,,,,,,,,,,,,,,,,,,,,,,,,,,,,,,,,,,,,,,,,,,,,,,,,,,,,,,,,,,,,,,,,,,,,,,,,,,,,,,,,,,,,,,,,,,,,,,,,,,,,,,,,,,,,,,,
,,,,,,60df0768b4b2fa71f584a127,62c53ab6fcc75bafadb0f10e,2022-07-06_09h33.26.033,Colour_Asymmetry_Pilot,2022.1.3,Win32,59.86231667,62c50e9c1127f2cd403a315f,0,2,2,85,1,threefour,,,,,,,,,,,,,,,,,,,,,,,,,,,,,,,,,,,,,,,,,,,,,,,,,,,,,,,,,,,,,,,,,,,,,,,,,,,,,,,,,,,,,,,,,,,,,,,,,,,,,,,,,,,,,,,,,,,,,,,,,,,,,,,,,,,,,,,,,,,,,,,,,,,,,,,,,,,,,
,,,,,,60df0768b4b2fa71f584a127,62c53ab6fcc75bafadb0f10e,2022-07-06_09h33.26.033,Colour_Asymmetry_Pilot,2022.1.3,Win32,59.86231667,62c50e9c1127f2cd403a315f,0,3,3,35,1,twofour,,,,,,,,,,,,,,,,,,,,,,,,,,,,,,,,,,,,,,,,,,,,,,,,,,,,,,,,,,,,,,,,,,,,,,,,,,,,,,,,,,,,,,,,,,,,,,,,,,,,,,,,,,,,,,,,,,,,,,,,,,,,,,,,,,,,,,,,,,,,,,,,,,,,,,,,,,,,,
,,,,,,60df0768b4b2fa71f584a127,62c53ab6fcc75bafadb0f10e,2022-07-06_09h33.26.033,Colour_Asymmetry_Pilot,2022.1.3,Win32,59.86231667,62c50e9c1127f2cd403a315f,0,4,4,33,1,onethree,,,,,,,,,,,,,,,,,,,,,,,,,,,,,,,,,,,,,,,,,,,,,,,,,,,,,,,,,,,,,,,,,,,,,,,,,,,,,,,,,,,,,,,,,,,,,,,,,,,,,,,,,,,,,,,,,,,,,,,,,,,,,,,,,,,,,,,,,,,,,,,,,,,,,,,,,,,,,
,,,,,,60df0768b4b2fa71f584a127,62c53ab6fcc75bafadb0f10e,2022-07-06_09h33.26.033,Colour_Asymmetry_Pilot,2022.1.3,Win32,59.86231667,62c50e9c1127f2cd403a315f,0,5,5,157,1,threefour,,,,,,,,,,,,,,,,,,,,,,,,,,,,,,,,,,,,,,,,,,,,,,,,,,,,,,,,,,,,,,,,,,,,,,,,,,,,,,,,,,,,,,,,,,,,,,,,,,,,,,,,,,,,,,,,,,,,,,,,,,,,,,,,,,,,,,,,,,,,,,,,,,,,,,,,,,,,,
,,,,,,60df0768b4b2fa71f584a127,62c53ab6fcc75bafadb0f10e,2022-07-06_09h33.26.033,Colour_Asymmetry_Pilot,2022.1.3,Win32,59.86231667,62c50e9c1127f2cd403a315f,0,6,6,154,1,twoone,,,,,,,,,,,,,,,,,,,,,,,,,,,,,,,,,,,,,,,,,,,,,,,,,,,,,,,,,,,,,,,,,,,,,,,,,,,,,,,,,,,,,,,,,,,,,,,,,,,,,,,,,,,,,,,,,,,,,,,,,,,,,,,,,,,,,,,,,,,,,,,,,,,,,,,,,,,,,
,,,,,,60df0768b4b2fa71f584a127,62c53ab6fcc75bafadb0f10e,2022-07-06_09h33.26.033,Colour_Asymmetry_Pilot,2022.1.3,Win32,59.86231667,62c50e9c1127f2cd403a315f,0,7,7,104,1,onetwo,,,,,,,,,,,,,,,,,,,,,,,,,,,,,,,,,,,,,,,,,,,,,,,,,,,,,,,,,,,,,,,,,,,,,,,,,,,,,,,,,,,,,,,,,,,,,,,,,,,,,,,,,,,,,,,,,,,,,,,,,,,,,,,,,,,,,,,,,,,,,,,,,,,,,,,,,,,,,
,,,,,,60df0768b4b2fa71f584a127,62c53ab6fcc75bafadb0f10e,2022-07-06_09h33.26.033,Colour_Asymmetry_Pilot,2022.1.3,Win32,59.86231667,62c50e9c1127f2cd403a315f,0,8,8,109,1,threefour,,,,,,,,,,,,,,,,,,,,,,,,,,,,,,,,,,,,,,,,,,,,,,,,,,,,,,,,,,,,,,,,,,,,,,,,,,,,,,,,,,,,,,,,,,,,,,,,,,,,,,,,,,,,,,,,,,,,,,,,,,,,,,,,,,,,,,,,,,,,,,,,,,,,,,,,,,,,,
,,,,,,60df0768b4b2fa71f584a127,62c53ab6fcc75bafadb0f10e,2022-07-06_09h33.26.033,Colour_Asymmetry_Pilot,2022.1.3,Win32,59.86231667,62c50e9c1127f2cd403a315f,0,9,9,108,1,threeone,,,,,,,,,,,,,,,,,,,,,,,,,,,,,,,,,,,,,,,,,,,,,,,,,,,,,,,,,,,,,,,,,,,,,,,,,,,,,,,,,,,,,,,,,,,,,,,,,,,,,,,,,,,,,,,,,,,,,,,,,,,,,,,,,,,,,,,,,,,,,,,,,,,,,,,,,,,,,
,,,,,,60df0768b4b2fa71f584a127,62c53ab6fcc75bafadb0f10e,2022-07-06_09h33.26.033,Colour_Asymmetry_Pilot,2022.1.3,Win32,59.86231667,62c50e9c1127f2cd403a315f,0,10,10,88,1,onetwo,,,,,,,,,,,,,,,,,,,,,,,,,,,,,,,,,,,,,,,,,,,,,,,,,,,,,,,,,,,,,,,,,,,,,,,,,,,,,,,,,,,,,,,,,,,,,,,,,,,,,,,,,,,,,,,,,,,,,,,,,,,,,,,,,,,,,,,,,,,,,,,,,,,,,,,,,,,,,
,,,,,,60df0768b4b2fa71f584a127,62c53ab6fcc75bafadb0f10e,2022-07-06_09h33.26.033,Colour_Asymmetry_Pilot,2022.1.3,Win32,59.86231667,62c50e9c1127f2cd403a315f,0,11,11,129,1,onethree,,,,,,,,,,,,,,,,,,,,,,,,,,,,,,,,,,,,,,,,,,,,,,,,,,,,,,,,,,,,,,,,,,,,,,,,,,,,,,,,,,,,,,,,,,,,,,,,,,,,,,,,,,,,,,,,,,,,,,,,,,,,,,,,,,,,,,,,,,,,,,,,,,,,,,,,,,,,,
,,,,,,60df0768b4b2fa71f584a127,62c53ab6fcc75bafadb0f10e,2022-07-06_09h33.26.033,Colour_Asymmetry_Pilot,2022.1.3,Win32,59.86231667,62c50e9c1127f2cd403a315f,0,12,12,137,1,onethree,,,,,,,,,,,,,,,,,,,,,,,,,,,,,,,,,,,,,,,,,,,,,,,,,,,,,,,,,,,,,,,,,,,,,,,,,,,,,,,,,,,,,,,,,,,,,,,,,,,,,,,,,,,,,,,,,,,,,,,,,,,,,,,,,,,,,,,,,,,,,,,,,,,,,,,,,,,,,
,,,,,,60df0768b4b2fa71f584a127,62c53ab6fcc75bafadb0f10e,2022-07-06_09h33.26.033,Colour_Asymmetry_Pilot,2022.1.3,Win32,59.86231667,62c50e9c1127f2cd403a315f,0,13,13,84,1,threeone,,,,,,,,,,,,,,,,,,,,,,,,,,,,,,,,,,,,,,,,,,,,,,,,,,,,,,,,,,,,,,,,,,,,,,,,,,,,,,,,,,,,,,,,,,,,,,,,,,,,,,,,,,,,,,,,,,,,,,,,,,,,,,,,,,,,,,,,,,,,,,,,,,,,,,,,,,,,,
,,,,,,60df0768b4b2fa71f584a127,62c53ab6fcc75bafadb0f10e,2022-07-06_09h33.26.033,Colour_Asymmetry_Pilot,2022.1.3,Win32,59.86231667,62c50e9c1127f2cd403a315f,0,14,14,49,1,onethree,,,,,,,,,,,,,,,,,,,,,,,,,,,,,,,,,,,,,,,,,,,,,,,,,,,,,,,,,,,,,,,,,,,,,,,,,,,,,,,,,,,,,,,,,,,,,,,,,,,,,,,,,,,,,,,,,,,,,,,,,,,,,,,,,,,,,,,,,,,,,,,,,,,,,,,,,,,,,
,,,,,,60df0768b4b2fa71f584a127,62c53ab6fcc75bafadb0f10e,2022-07-06_09h33.26.033,Colour_Asymmetry_Pilot,2022.1.3,Win32,59.86231667,62c50e9c1127f2cd403a315f,0,15,15,14,1,fourtwo,,,,,,,,,,,,,,,,,,,,,,,,,,,,,,,,,,,,,,,,,,,,,,,,,,,,,,,,,,,,,,,,,,,,,,,,,,,,,,,,,,,,,,,,,,,,,,,,,,,,,,,,,,,,,,,,,,,,,,,,,,,,,,,,,,,,,,,,,,,,,,,,,,,,,,,,,,,,,
,,,,,,60df0768b4b2fa71f584a127,62c53ab6fcc75bafadb0f10e,2022-07-06_09h33.26.033,Colour_Asymmetry_Pilot,2022.1.3,Win32,59.86231667,62c50e9c1127f2cd403a315f,0,16,16,40,1,onetwo,,,,,,,,,,,,,,,,,,,,,,,,,,,,,,,,,,,,,,,,,,,,,,,,,,,,,,,,,,,,,,,,,,,,,,,,,,,,,,,,,,,,,,,,,,,,,,,,,,,,,,,,,,,,,,,,,,,,,,,,,,,,,,,,,,,,,,,,,,,,,,,,,,,,,,,,,,,,,
,,,,,,60df0768b4b2fa71f584a127,62c53ab6fcc75bafadb0f10e,2022-07-06_09h33.26.033,Colour_Asymmetry_Pilot,2022.1.3,Win32,59.86231667,62c50e9c1127f2cd403a315f,0,17,17,141,1,threefour,,,,,,,,,,,,,,,,,,,,,,,,,,,,,,,,,,,,,,,,,,,,,,,,,,,,,,,,,,,,,,,,,,,,,,,,,,,,,,,,,,,,,,,,,,,,,,,,,,,,,,,,,,,,,,,,,,,,,,,,,,,,,,,,,,,,,,,,,,,,,,,,,,,,,,,,,,,,,
,,,,,,60df0768b4b2fa71f584a127,62c53ab6fcc75bafadb0f10e,2022-07-06_09h33.26.033,Colour_Asymmetry_Pilot,2022.1.3,Win32,59.86231667,62c50e9c1127f2cd403a315f,0,18,18,139,1,twofour,,,,,,,,,,,,,,,,,,,,,,,,,,,,,,,,,,,,,,,,,,,,,,,,,,,,,,,,,,,,,,,,,,,,,,,,,,,,,,,,,,,,,,,,,,,,,,,,,,,,,,,,,,,,,,,,,,,,,,,,,,,,,,,,,,,,,,,,,,,,,,,,,,,,,,,,,,,,,
,,,,,,60df0768b4b2fa71f584a127,62c53ab6fcc75bafadb0f10e,2022-07-06_09h33.26.033,Colour_Asymmetry_Pilot,2022.1.3,Win32,59.86231667,62c50e9c1127f2cd403a315f,0,19,19,144,1,onetwo,,,,,,,,,,,,,,,,,,,,,,,,,,,,,,,,,,,,,,,,,,,,,,,,,,,,,,,,,,,,,,,,,,,,,,,,,,,,,,,,,,,,,,,,,,,,,,,,,,,,,,,,,,,,,,,,,,,,,,,,,,,,,,,,,,,,,,,,,,,,,,,,,,,,,,,,,,,,,
,,,,,,60df0768b4b2fa71f584a127,62c53ab6fcc75bafadb0f10e,2022-07-06_09h33.26.033,Colour_Asymmetry_Pilot,2022.1.3,Win32,59.86231667,62c50e9c1127f2cd403a315f,0,20,20,3,1,twofour,,,,,,,,,,,,,,,,,,,,,,,,,,,,,,,,,,,,,,,,,,,,,,,,,,,,,,,,,,,,,,,,,,,,,,,,,,,,,,,,,,,,,,,,,,,,,,,,,,,,,,,,,,,,,,,,,,,,,,,,,,,,,,,,,,,,,,,,,,,,,,,,,,,,,,,,,,,,,
,,,,,,60df0768b4b2fa71f584a127,62c53ab6fcc75bafadb0f10e,2022-07-06_09h33.26.033,Colour_Asymmetry_Pilot,2022.1.3,Win32,59.86231667,62c50e9c1127f2cd403a315f,0,21,21,126,1,fourtwo,,,,,,,,,,,,,,,,,,,,,,,,,,,,,,,,,,,,,,,,,,,,,,,,,,,,,,,,,,,,,,,,,,,,,,,,,,,,,,,,,,,,,,,,,,,,,,,,,,,,,,,,,,,,,,,,,,,,,,,,,,,,,,,,,,,,,,,,,,,,,,,,,,,,,,,,,,,,,
,,,,,,60df0768b4b2fa71f584a127,62c53ab6fcc75bafadb0f10e,2022-07-06_09h33.26.033,Colour_Asymmetry_Pilot,2022.1.3,Win32,59.86231667,62c50e9c1127f2cd403a315f,0,22,22,36,1,threeone,,,,,,,,,,,,,,,,,,,,,,,,,,,,,,,,,,,,,,,,,,,,,,,,,,,,,,,,,,,,,,,,,,,,,,,,,,,,,,,,,,,,,,,,,,,,,,,,,,,,,,,,,,,,,,,,,,,,,,,,,,,,,,,,,,,,,,,,,,,,,,,,,,,,,,,,,,,,,
,,,,,,60df0768b4b2fa71f584a127,62c53ab6fcc75bafadb0f10e,2022-07-06_09h33.26.033,Colour_Asymmetry_Pilot,2022.1.3,Win32,59.86231667,62c50e9c1127f2cd403a315f,0,23,23,111,1,fourthree,,,,,,,,,,,,,,,,,,,,,,,,,,,,,,,,,,,,,,,,,,,,,,,,,,,,,,,,,,,,,,,,,,,,,,,,,,,,,,,,,,,,,,,,,,,,,,,,,,,,,,,,,,,,,,,,,,,,,,,,,,,,,,,,,,,,,,,,,,,,,,,,,,,,,,,,,,,,,
,,,,,,60df0768b4b2fa71f584a127,62c53ab6fcc75bafadb0f10e,2022-07-06_09h33.26.033,Colour_Asymmetry_Pilot,2022.1.3,Win32,59.86231667,62c50e9c1127f2cd403a315f,0,24,24,135,1,fourthree,,,,,,,,,,,,,,,,,,,,,,,,,,,,,,,,,,,,,,,,,,,,,,,,,,,,,,,,,,,,,,,,,,,,,,,,,,,,,,,,,,,,,,,,,,,,,,,,,,,,,,,,,,,,,,,,,,,,,,,,,,,,,,,,,,,,,,,,,,,,,,,,,,,,,,,,,,,,,
,,,,,,60df0768b4b2fa71f584a127,62c53ab6fcc75bafadb0f10e,2022-07-06_09h33.26.033,Colour_Asymmetry_Pilot,2022.1.3,Win32,59.86231667,62c50e9c1127f2cd403a315f,0,25,25,124,1,threeone,,,,,,,,,,,,,,,,,,,,,,,,,,,,,,,,,,,,,,,,,,,,,,,,,,,,,,,,,,,,,,,,,,,,,,,,,,,,,,,,,,,,,,,,,,,,,,,,,,,,,,,,,,,,,,,,,,,,,,,,,,,,,,,,,,,,,,,,,,,,,,,,,,,,,,,,,,,,,
,,,,,,60df0768b4b2fa71f584a127,62c53ab6fcc75bafadb0f10e,2022-07-06_09h33.26.033,Colour_Asymmetry_Pilot,2022.1.3,Win32,59.86231667,62c50e9c1127f2cd403a315f,0,26,26,159,1,fourthree,,,,,,,,,,,,,,,,,,,,,,,,,,,,,,,,,,,,,,,,,,,,,,,,,,,,,,,,,,,,,,,,,,,,,,,,,,,,,,,,,,,,,,,,,,,,,,,,,,,,,,,,,,,,,,,,,,,,,,,,,,,,,,,,,,,,,,,,,,,,,,,,,,,,,,,,,,,,,
,,,,,,60df0768b4b2fa71f584a127,62c53ab6fcc75bafadb0f10e,2022-07-06_09h33.26.033,Colour_Asymmetry_Pilot,2022.1.3,Win32,59.86231667,62c50e9c1127f2cd403a315f,0,27,27,132,1,threeone,,,,,,,,,,,,,,,,,,,,,,,,,,,,,,,,,,,,,,,,,,,,,,,,,,,,,,,,,,,,,,,,,,,,,,,,,,,,,,,,,,,,,,,,,,,,,,,,,,,,,,,,,,,,,,,,,,,,,,,,,,,,,,,,,,,,,,,,,,,,,,,,,,,,,,,,,,,,,
,,,,,,60df0768b4b2fa71f584a127,62c53ab6fcc75bafadb0f10e,2022-07-06_09h33.26.033,Colour_Asymmetry_Pilot,2022.1.3,Win32,59.86231667,62c50e9c1127f2cd403a315f,0,28,28,69,1,threefour,,,,,,,,,,,,,,,,,,,,,,,,,,,,,,,,,,,,,,,,,,,,,,,,,,,,,,,,,,,,,,,,,,,,,,,,,,,,,,,,,,,,,,,,,,,,,,,,,,,,,,,,,,,,,,,,,,,,,,,,,,,,,,,,,,,,,,,,,,,,,,,,,,,,,,,,,,,,,
,,,,,,60df0768b4b2fa71f584a127,62c53ab6fcc75bafadb0f10e,2022-07-06_09h33.26.033,Colour_Asymmetry_Pilot,2022.1.3,Win32,59.86231667,62c50e9c1127f2cd403a315f,0,29,29,71,1,fourthree,,,,,,,,,,,,,,,,,,,,,,,,,,,,,,,,,,,,,,,,,,,,,,,,,,,,,,,,,,,,,,,,,,,,,,,,,,,,,,,,,,,,,,,,,,,,,,,,,,,,,,,,,,,,,,,,,,,,,,,,,,,,,,,,,,,,,,,,,,,,,,,,,,,,,,,,,,,,,
,,,,,,60df0768b4b2fa71f584a127,62c53ab6fcc75bafadb0f10e,2022-07-06_09h33.26.033,Colour_Asymmetry_Pilot,2022.1.3,Win32,59.86231667,62c50e9c1127f2cd403a315f,0,30,30,130,1,twoone,,,,,,,,,,,,,,,,,,,,,,,,,,,,,,,,,,,,,,,,,,,,,,,,,,,,,,,,,,,,,,,,,,,,,,,,,,,,,,,,,,,,,,,,,,,,,,,,,,,,,,,,,,,,,,,,,,,,,,,,,,,,,,,,,,,,,,,,,,,,,,,,,,,,,,,,,,,,,
,,,,,,60df0768b4b2fa71f584a127,62c53ab6fcc75bafadb0f10e,2022-07-06_09h33.26.033,Colour_Asymmetry_Pilot,2022.1.3,Win32,59.86231667,62c50e9c1127f2cd403a315f,0,31,31,52,1,threeone,,,,,,,,,,,,,,,,,,,,,,,,,,,,,,,,,,,,,,,,,,,,,,,,,,,,,,,,,,,,,,,,,,,,,,,,,,,,,,,,,,,,,,,,,,,,,,,,,,,,,,,,,,,,,,,,,,,,,,,,,,,,,,,,,,,,,,,,,,,,,,,,,,,,,,,,,,,,,
,,,,,,60df0768b4b2fa71f584a127,62c53ab6fcc75bafadb0f10e,2022-07-06_09h33.26.033,Colour_Asymmetry_Pilot,2022.1.3,Win32,59.86231667,62c50e9c1127f2cd403a315f,0,32,32,58,1,twoone,,,,,,,,,,,,,,,,,,,,,,,,,,,,,,,,,,,,,,,,,,,,,,,,,,,,,,,,,,,,,,,,,,,,,,,,,,,,,,,,,,,,,,,,,,,,,,,,,,,,,,,,,,,,,,,,,,,,,,,,,,,,,,,,,,,,,,,,,,,,,,,,,,,,,,,,,,,,,
,,,,,,60df0768b4b2fa71f584a127,62c53ab6fcc75bafadb0f10e,2022-07-06_09h33.26.033,Colour_Asymmetry_Pilot,2022.1.3,Win32,59.86231667,62c50e9c1127f2cd403a315f,0,33,33,114,1,twoone,,,,,,,,,,,,,,,,,,,,,,,,,,,,,,,,,,,,,,,,,,,,,,,,,,,,,,,,,,,,,,,,,,,,,,,,,,,,,,,,,,,,,,,,,,,,,,,,,,,,,,,,,,,,,,,,,,,,,,,,,,,,,,,,,,,,,,,,,,,,,,,,,,,,,,,,,,,,,
,,,,,,60df0768b4b2fa71f584a127,62c53ab6fcc75bafadb0f10e,2022-07-06_09h33.26.033,Colour_Asymmetry_Pilot,2022.1.3,Win32,59.86231667,62c50e9c1127f2cd403a315f,0,34,34,120,1,onetwo,,,,,,,,,,,,,,,,,,,,,,,,,,,,,,,,,,,,,,,,,,,,,,,,,,,,,,,,,,,,,,,,,,,,,,,,,,,,,,,,,,,,,,,,,,,,,,,,,,,,,,,,,,,,,,,,,,,,,,,,,,,,,,,,,,,,,,,,,,,,,,,,,,,,,,,,,,,,,
,,,,,,60df0768b4b2fa71f584a127,62c53ab6fcc75bafadb0f10e,2022-07-06_09h33.26.033,Colour_Asymmetry_Pilot,2022.1.3,Win32,59.86231667,62c50e9c1127f2cd403a315f,0,35,35,64,1,onetwo,,,,,,,,,,,,,,,,,,,,,,,,,,,,,,,,,,,,,,,,,,,,,,,,,,,,,,,,,,,,,,,,,,,,,,,,,,,,,,,,,,,,,,,,,,,,,,,,,,,,,,,,,,,,,,,,,,,,,,,,,,,,,,,,,,,,,,,,,,,,,,,,,,,,,,,,,,,,,
,,,,,,60df0768b4b2fa71f584a127,62c53ab6fcc75bafadb0f10e,2022-07-06_09h33.26.033,Colour_Asymmetry_Pilot,2022.1.3,Win32,59.86231667,62c50e9c1127f2cd403a315f,0,36,36,68,1,threeone,,,,,,,,,,,,,,,,,,,,,,,,,,,,,,,,,,,,,,,,,,,,,,,,,,,,,,,,,,,,,,,,,,,,,,,,,,,,,,,,,,,,,,,,,,,,,,,,,,,,,,,,,,,,,,,,,,,,,,,,,,,,,,,,,,,,,,,,,,,,,,,,,,,,,,,,,,,,,
,,,,,,60df0768b4b2fa71f584a127,62c53ab6fcc75bafadb0f10e,2022-07-06_09h33.26.033,Colour_Asymmetry_Pilot,2022.1.3,Win32,59.86231667,62c50e9c1127f2cd403a315f,0,37,37,30,1,fourtwo,,,,,,,,,,,,,,,,,,,,,,,,,,,,,,,,,,,,,,,,,,,,,,,,,,,,,,,,,,,,,,,,,,,,,,,,,,,,,,,,,,,,,,,,,,,,,,,,,,,,,,,,,,,,,,,,,,,,,,,,,,,,,,,,,,,,,,,,,,,,,,,,,,,,,,,,,,,,,
,,,,,,60df0768b4b2fa71f584a127,62c53ab6fcc75bafadb0f10e,2022-07-06_09h33.26.033,Colour_Asymmetry_Pilot,2022.1.3,Win32,59.86231667,62c50e9c1127f2cd403a315f,0,38,38,82,1,twoone,,,,,,,,,,,,,,,,,,,,,,,,,,,,,,,,,,,,,,,,,,,,,,,,,,,,,,,,,,,,,,,,,,,,,,,,,,,,,,,,,,,,,,,,,,,,,,,,,,,,,,,,,,,,,,,,,,,,,,,,,,,,,,,,,,,,,,,,,,,,,,,,,,,,,,,,,,,,,
,,,,,,60df0768b4b2fa71f584a127,62c53ab6fcc75bafadb0f10e,2022-07-06_09h33.26.033,Colour_Asymmetry_Pilot,2022.1.3,Win32,59.86231667,62c50e9c1127f2cd403a315f,0,39,39,95,1,fourthree,,,,,,,,,,,,,,,,,,,,,,,,,,,,,,,,,,,,,,,,,,,,,,,,,,,,,,,,,,,,,,,,,,,,,,,,,,,,,,,,,,,,,,,,,,,,,,,,,,,,,,,,,,,,,,,,,,,,,,,,,,,,,,,,,,,,,,,,,,,,,,,,,,,,,,,,,,,,,
,,,,,,60df0768b4b2fa71f584a127,62c53ab6fcc75bafadb0f10e,2022-07-06_09h33.26.033,Colour_Asymmetry_Pilot,2022.1.3,Win32,59.86231667,62c50e9c1127f2cd403a315f,0,40,40,73,1,onethree,,,,,,,,,,,,,,,,,,,,,,,,,,,,,,,,,,,,,,,,,,,,,,,,,,,,,,,,,,,,,,,,,,,,,,,,,,,,,,,,,,,,,,,,,,,,,,,,,,,,,,,,,,,,,,,,,,,,,,,,,,,,,,,,,,,,,,,,,,,,,,,,,,,,,,,,,,,,,
,,,,,,60df0768b4b2fa71f584a127,62c53ab6fcc75bafadb0f10e,2022-07-06_09h33.26.033,Colour_Asymmetry_Pilot,2022.1.3,Win32,59.86231667,62c50e9c1127f2cd403a315f,0,41,41,21,1,threefour,,,,,,,,,,,,,,,,,,,,,,,,,,,,,,,,,,,,,,,,,,,,,,,,,,,,,,,,,,,,,,,,,,,,,,,,,,,,,,,,,,,,,,,,,,,,,,,,,,,,,,,,,,,,,,,,,,,,,,,,,,,,,,,,,,,,,,,,,,,,,,,,,,,,,,,,,,,,,
,,,,,,60df0768b4b2fa71f584a127,62c53ab6fcc75bafadb0f10e,2022-07-06_09h33.26.033,Colour_Asymmetry_Pilot,2022.1.3,Win32,59.86231667,62c50e9c1127f2cd403a315f,0,42,42,119,1,fourthree,,,,,,,,,,,,,,,,,,,,,,,,,,,,,,,,,,,,,,,,,,,,,,,,,,,,,,,,,,,,,,,,,,,,,,,,,,,,,,,,,,,,,,,,,,,,,,,,,,,,,,,,,,,,,,,,,,,,,,,,,,,,,,,,,,,,,,,,,,,,,,,,,,,,,,,,,,,,,
,,,,,,60df0768b4b2fa71f584a127,62c53ab6fcc75bafadb0f10e,2022-07-06_09h33.26.033,Colour_Asymmetry_Pilot,2022.1.3,Win32,59.86231667,62c50e9c1127f2cd403a315f,0,43,43,80,1,onetwo,,,,,,,,,,,,,,,,,,,,,,,,,,,,,,,,,,,,,,,,,,,,,,,,,,,,,,,,,,,,,,,,,,,,,,,,,,,,,,,,,,,,,,,,,,,,,,,,,,,,,,,,,,,,,,,,,,,,,,,,,,,,,,,,,,,,,,,,,,,,,,,,,,,,,,,,,,,,,
,,,,,,60df0768b4b2fa71f584a127,62c53ab6fcc75bafadb0f10e,2022-07-06_09h33.26.033,Colour_Asymmetry_Pilot,2022.1.3,Win32,59.86231667,62c50e9c1127f2cd403a315f,0,44,44,5,1,threefour,,,,,,,,,,,,,,,,,,,,,,,,,,,,,,,,,,,,,,,,,,,,,,,,,,,,,,,,,,,,,,,,,,,,,,,,,,,,,,,,,,,,,,,,,,,,,,,,,,,,,,,,,,,,,,,,,,,,,,,,,,,,,,,,,,,,,,,,,,,,,,,,,,,,,,,,,,,,,
,,,,,,60df0768b4b2fa71f584a127,62c53ab6fcc75bafadb0f10e,2022-07-06_09h33.26.033,Colour_Asymmetry_Pilot,2022.1.3,Win32,59.86231667,62c50e9c1127f2cd403a315f,0,45,45,78,1,fourtwo,,,,,,,,,,,,,,,,,,,,,,,,,,,,,,,,,,,,,,,,,,,,,,,,,,,,,,,,,,,,,,,,,,,,,,,,,,,,,,,,,,,,,,,,,,,,,,,,,,,,,,,,,,,,,,,,,,,,,,,,,,,,,,,,,,,,,,,,,,,,,,,,,,,,,,,,,,,,,
,,,,,,60df0768b4b2fa71f584a127,62c53ab6fcc75bafadb0f10e,2022-07-06_09h33.26.033,Colour_Asymmetry_Pilot,2022.1.3,Win32,59.86231667,62c50e9c1127f2cd403a315f,0,46,46,48,1,onetwo,,,,,,,,,,,,,,,,,,,,,,,,,,,,,,,,,,,,,,,,,,,,,,,,,,,,,,,,,,,,,,,,,,,,,,,,,,,,,,,,,,,,,,,,,,,,,,,,,,,,,,,,,,,,,,,,,,,,,,,,,,,,,,,,,,,,,,,,,,,,,,,,,,,,,,,,,,,,,
,,,,,,60df0768b4b2fa71f584a127,62c53ab6fcc75bafadb0f10e,2022-07-06_09h33.26.033,Colour_Asymmetry_Pilot,2022.1.3,Win32,59.86231667,62c50e9c1127f2cd403a315f,0,47,47,105,1,onethree,,,,,,,,,,,,,,,,,,,,,,,,,,,,,,,,,,,,,,,,,,,,,,,,,,,,,,,,,,,,,,,,,,,,,,,,,,,,,,,,,,,,,,,,,,,,,,,,,,,,,,,,,,,,,,,,,,,,,,,,,,,,,,,,,,,,,,,,,,,,,,,,,,,,,,,,,,,,,
,,,,,,60df0768b4b2fa71f584a127,62c53ab6fcc75bafadb0f10e,2022-07-06_09h33.26.033,Colour_Asymmetry_Pilot,2022.1.3,Win32,59.86231667,62c50e9c1127f2cd403a315f,0,48,48,148,1,threeone,,,,,,,,,,,,,,,,,,,,,,,,,,,,,,,,,,,,,,,,,,,,,,,,,,,,,,,,,,,,,,,,,,,,,,,,,,,,,,,,,,,,,,,,,,,,,,,,,,,,,,,,,,,,,,,,,,,,,,,,,,,,,,,,,,,,,,,,,,,,,,,,,,,,,,,,,,,,,
,,,,,,60df0768b4b2fa71f584a127,62c53ab6fcc75bafadb0f10e,2022-07-06_09h33.26.033,Colour_Asymmetry_Pilot,2022.1.3,Win32,59.86231667,62c50e9c1127f2cd403a315f,0,49,49,34,1,twoone,,,,,,,,,,,,,,,,,,,,,,,,,,,,,,,,,,,,,,,,,,,,,,,,,,,,,,,,,,,,,,,,,,,,,,,,,,,,,,,,,,,,,,,,,,,,,,,,,,,,,,,,,,,,,,,,,,,,,,,,,,,,,,,,,,,,,,,,,,,,,,,,,,,,,,,,,,,,,
,,,,,,60df0768b4b2fa71f584a127,62c53ab6fcc75bafadb0f10e,2022-07-06_09h33.26.033,Colour_Asymmetry_Pilot,2022.1.3,Win32,59.86231667,62c50e9c1127f2cd403a315f,0,50,50,153,1,onethree,,,,,,,,,,,,,,,,,,,,,,,,,,,,,,,,,,,,,,,,,,,,,,,,,,,,,,,,,,,,,,,,,,,,,,,,,,,,,,,,,,,,,,,,,,,,,,,,,,,,,,,,,,,,,,,,,,,,,,,,,,,,,,,,,,,,,,,,,,,,,,,,,,,,,,,,,,,,,
,,,,,,60df0768b4b2fa71f584a127,62c53ab6fcc75bafadb0f10e,2022-07-06_09h33.26.033,Colour_Asymmetry_Pilot,2022.1.3,Win32,59.86231667,62c50e9c1127f2cd403a315f,0,51,51,50,1,twoone,,,,,,,,,,,,,,,,,,,,,,,,,,,,,,,,,,,,,,,,,,,,,,,,,,,,,,,,,,,,,,,,,,,,,,,,,,,,,,,,,,,,,,,,,,,,,,,,,,,,,,,,,,,,,,,,,,,,,,,,,,,,,,,,,,,,,,,,,,,,,,,,,,,,,,,,,,,,,
,,,,,,60df0768b4b2fa71f584a127,62c53ab6fcc75bafadb0f10e,2022-07-06_09h33.26.033,Colour_Asymmetry_Pilot,2022.1.3,Win32,59.86231667,62c50e9c1127f2cd403a315f,0,52,52,32,1,onetwo,,,,,,,,,,,,,,,,,,,,,,,,,,,,,,,,,,,,,,,,,,,,,,,,,,,,,,,,,,,,,,,,,,,,,,,,,,,,,,,,,,,,,,,,,,,,,,,,,,,,,,,,,,,,,,,,,,,,,,,,,,,,,,,,,,,,,,,,,,,,,,,,,,,,,,,,,,,,,
,,,,,,60df0768b4b2fa71f584a127,62c53ab6fcc75bafadb0f10e,2022-07-06_09h33.26.033,Colour_Asymmetry_Pilot,2022.1.3,Win32,59.86231667,62c50e9c1127f2cd403a315f,0,53,53,138,1,twoone,,,,,,,,,,,,,,,,,,,,,,,,,,,,,,,,,,,,,,,,,,,,,,,,,,,,,,,,,,,,,,,,,,,,,,,,,,,,,,,,,,,,,,,,,,,,,,,,,,,,,,,,,,,,,,,,,,,,,,,,,,,,,,,,,,,,,,,,,,,,,,,,,,,,,,,,,,,,,
,,,,,,60df0768b4b2fa71f584a127,62c53ab6fcc75bafadb0f10e,2022-07-06_09h33.26.033,Colour_Asymmetry_Pilot,2022.1.3,Win32,59.86231667,62c50e9c1127f2cd403a315f,0,54,54,147,1,twofour,,,,,,,,,,,,,,,,,,,,,,,,,,,,,,,,,,,,,,,,,,,,,,,,,,,,,,,,,,,,,,,,,,,,,,,,,,,,,,,,,,,,,,,,,,,,,,,,,,,,,,,,,,,,,,,,,,,,,,,,,,,,,,,,,,,,,,,,,,,,,,,,,,,,,,,,,,,,,
,,,,,,60df0768b4b2fa71f584a127,62c53ab6fcc75bafadb0f10e,2022-07-06_09h33.26.033,Colour_Asymmetry_Pilot,2022.1.3,Win32,59.86231667,62c50e9c1127f2cd403a315f,0,55,55,12,1,threeone,,,,,,,,,,,,,,,,,,,,,,,,,,,,,,,,,,,,,,,,,,,,,,,,,,,,,,,,,,,,,,,,,,,,,,,,,,,,,,,,,,,,,,,,,,,,,,,,,,,,,,,,,,,,,,,,,,,,,,,,,,,,,,,,,,,,,,,,,,,,,,,,,,,,,,,,,,,,,
,,,,,,60df0768b4b2fa71f584a127,62c53ab6fcc75bafadb0f10e,2022-07-06_09h33.26.033,Colour_Asymmetry_Pilot,2022.1.3,Win32,59.86231667,62c50e9c1127f2cd403a315f,0,56,56,149,1,threefour,,,,,,,,,,,,,,,,,,,,,,,,,,,,,,,,,,,,,,,,,,,,,,,,,,,,,,,,,,,,,,,,,,,,,,,,,,,,,,,,,,,,,,,,,,,,,,,,,,,,,,,,,,,,,,,,,,,,,,,,,,,,,,,,,,,,,,,,,,,,,,,,,,,,,,,,,,,,,
,,,,,,60df0768b4b2fa71f584a127,62c53ab6fcc75bafadb0f10e,2022-07-06_09h33.26.033,Colour_Asymmetry_Pilot,2022.1.3,Win32,59.86231667,62c50e9c1127f2cd403a315f,0,57,57,155,1,twofour,,,,,,,,,,,,,,,,,,,,,,,,,,,,,,,,,,,,,,,,,,,,,,,,,,,,,,,,,,,,,,,,,,,,,,,,,,,,,,,,,,,,,,,,,,,,,,,,,,,,,,,,,,,,,,,,,,,,,,,,,,,,,,,,,,,,,,,,,,,,,,,,,,,,,,,,,,,,,
,,,,,,60df0768b4b2fa71f584a127,62c53ab6fcc75bafadb0f10e,2022-07-06_09h33.26.033,Colour_Asymmetry_Pilot,2022.1.3,Win32,59.86231667,62c50e9c1127f2cd403a315f,0,58,58,16,1,onetwo,,,,,,,,,,,,,,,,,,,,,,,,,,,,,,,,,,,,,,,,,,,,,,,,,,,,,,,,,,,,,,,,,,,,,,,,,,,,,,,,,,,,,,,,,,,,,,,,,,,,,,,,,,,,,,,,,,,,,,,,,,,,,,,,,,,,,,,,,,,,,,,,,,,,,,,,,,,,,
,,,,,,60df0768b4b2fa71f584a127,62c53ab6fcc75bafadb0f10e,2022-07-06_09h33.26.033,Colour_Asymmetry_Pilot,2022.1.3,Win32,59.86231667,62c50e9c1127f2cd403a315f,0,59,59,26,1,twoone,,,,,,,,,,,,,,,,,,,,,,,,,,,,,,,,,,,,,,,,,,,,,,,,,,,,,,,,,,,,,,,,,,,,,,,,,,,,,,,,,,,,,,,,,,,,,,,,,,,,,,,,,,,,,,,,,,,,,,,,,,,,,,,,,,,,,,,,,,,,,,,,,,,,,,,,,,,,,
,,,,,,60df0768b4b2fa71f584a127,62c53ab6fcc75bafadb0f10e,2022-07-06_09h33.26.033,Colour_Asymmetry_Pilot,2022.1.3,Win32,59.86231667,62c50e9c1127f2cd403a315f,0,60,60,18,1,twoone,,,,,,,,,,,,,,,,,,,,,,,,,,,,,,,,,,,,,,,,,,,,,,,,,,,,,,,,,,,,,,,,,,,,,,,,,,,,,,,,,,,,,,,,,,,,,,,,,,,,,,,,,,,,,,,,,,,,,,,,,,,,,,,,,,,,,,,,,,,,,,,,,,,,,,,,,,,,,
,,,,,,60df0768b4b2fa71f584a127,62c53ab6fcc75bafadb0f10e,2022-07-06_09h33.26.033,Colour_Asymmetry_Pilot,2022.1.3,Win32,59.86231667,62c50e9c1127f2cd403a315f,0,61,61,99,1,twofour,,,,,,,,,,,,,,,,,,,,,,,,,,,,,,,,,,,,,,,,,,,,,,,,,,,,,,,,,,,,,,,,,,,,,,,,,,,,,,,,,,,,,,,,,,,,,,,,,,,,,,,,,,,,,,,,,,,,,,,,,,,,,,,,,,,,,,,,,,,,,,,,,,,,,,,,,,,,,
,,,,,,60df0768b4b2fa71f584a127,62c53ab6fcc75bafadb0f10e,2022-07-06_09h33.26.033,Colour_Asymmetry_Pilot,2022.1.3,Win32,59.86231667,62c50e9c1127f2cd403a315f,0,62,62,134,1,fourtwo,,,,,,,,,,,,,,,,,,,,,,,,,,,,,,,,,,,,,,,,,,,,,,,,,,,,,,,,,,,,,,,,,,,,,,,,,,,,,,,,,,,,,,,,,,,,,,,,,,,,,,,,,,,,,,,,,,,,,,,,,,,,,,,,,,,,,,,,,,,,,,,,,,,,,,,,,,,,,
,,,,,,60df0768b4b2fa71f584a127,62c53ab6fcc75bafadb0f10e,2022-07-06_09h33.26.033,Colour_Asymmetry_Pilot,2022.1.3,Win32,59.86231667,62c50e9c1127f2cd403a315f,0,63,63,156,1,threeone,,,,,,,,,,,,,,,,,,,,,,,,,,,,,,,,,,,,,,,,,,,,,,,,,,,,,,,,,,,,,,,,,,,,,,,,,,,,,,,,,,,,,,,,,,,,,,,,,,,,,,,,,,,,,,,,,,,,,,,,,,,,,,,,,,,,,,,,,,,,,,,,,,,,,,,,,,,,,
,,,,,,60df0768b4b2fa71f584a127,62c53ab6fcc75bafadb0f10e,2022-07-06_09h33.26.033,Colour_Asymmetry_Pilot,2022.1.3,Win32,59.86231667,62c50e9c1127f2cd403a315f,0,64,64,131,1,twofour,,,,,,,,,,,,,,,,,,,,,,,,,,,,,,,,,,,,,,,,,,,,,,,,,,,,,,,,,,,,,,,,,,,,,,,,,,,,,,,,,,,,,,,,,,,,,,,,,,,,,,,,,,,,,,,,,,,,,,,,,,,,,,,,,,,,,,,,,,,,,,,,,,,,,,,,,,,,,
,,,,,,60df0768b4b2fa71f584a127,62c53ab6fcc75bafadb0f10e,2022-07-06_09h33.26.033,Colour_Asymmetry_Pilot,2022.1.3,Win32,59.86231667,62c50e9c1127f2cd403a315f,0,65,65,160,1,onetwo,,,,,,,,,,,,,,,,,,,,,,,,,,,,,,,,,,,,,,,,,,,,,,,,,,,,,,,,,,,,,,,,,,,,,,,,,,,,,,,,,,,,,,,,,,,,,,,,,,,,,,,,,,,,,,,,,,,,,,,,,,,,,,,,,,,,,,,,,,,,,,,,,,,,,,,,,,,,,
,,,,,,60df0768b4b2fa71f584a127,62c53ab6fcc75bafadb0f10e,2022-07-06_09h33.26.033,Colour_Asymmetry_Pilot,2022.1.3,Win32,59.86231667,62c50e9c1127f2cd403a315f,0,66,66,161,1,onethree,,,,,,,,,,,,,,,,,,,,,,,,,,,,,,,,,,,,,,,,,,,,,,,,,,,,,,,,,,,,,,,,,,,,,,,,,,,,,,,,,,,,,,,,,,,,,,,,,,,,,,,,,,,,,,,,,,,,,,,,,,,,,,,,,,,,,,,,,,,,,,,,,,,,,,,,,,,,,
,,,,,,60df0768b4b2fa71f584a127,62c53ab6fcc75bafadb0f10e,2022-07-06_09h33.26.033,Colour_Asymmetry_Pilot,2022.1.3,Win32,59.86231667,62c50e9c1127f2cd403a315f,0,67,67,23,1,fourthree,,,,,,,,,,,,,,,,,,,,,,,,,,,,,,,,,,,,,,,,,,,,,,,,,,,,,,,,,,,,,,,,,,,,,,,,,,,,,,,,,,,,,,,,,,,,,,,,,,,,,,,,,,,,,,,,,,,,,,,,,,,,,,,,,,,,,,,,,,,,,,,,,,,,,,,,,,,,,
,,,,,,60df0768b4b2fa71f584a127,62c53ab6fcc75bafadb0f10e,2022-07-06_09h33.26.033,Colour_Asymmetry_Pilot,2022.1.3,Win32,59.86231667,62c50e9c1127f2cd403a315f,0,68,68,107,1,twofour,,,,,,,,,,,,,,,,,,,,,,,,,,,,,,,,,,,,,,,,,,,,,,,,,,,,,,,,,,,,,,,,,,,,,,,,,,,,,,,,,,,,,,,,,,,,,,,,,,,,,,,,,,,,,,,,,,,,,,,,,,,,,,,,,,,,,,,,,,,,,,,,,,,,,,,,,,,,,
,,,,,,60df0768b4b2fa71f584a127,62c53ab6fcc75bafadb0f10e,2022-07-06_09h33.26.033,Colour_Asymmetry_Pilot,2022.1.3,Win32,59.86231667,62c50e9c1127f2cd403a315f,0,69,69,63,1,fourthree,,,,,,,,,,,,,,,,,,,,,,,,,,,,,,,,,,,,,,,,,,,,,,,,,,,,,,,,,,,,,,,,,,,,,,,,,,,,,,,,,,,,,,,,,,,,,,,,,,,,,,,,,,,,,,,,,,,,,,,,,,,,,,,,,,,,,,,,,,,,,,,,,,,,,,,,,,,,,
,,,,,,60df0768b4b2fa71f584a127,62c53ab6fcc75bafadb0f10e,2022-07-06_09h33.26.033,Colour_Asymmetry_Pilot,2022.1.3,Win32,59.86231667,62c50e9c1127f2cd403a315f,0,70,70,10,1,twoone,,,,,,,,,,,,,,,,,,,,,,,,,,,,,,,,,,,,,,,,,,,,,,,,,,,,,,,,,,,,,,,,,,,,,,,,,,,,,,,,,,,,,,,,,,,,,,,,,,,,,,,,,,,,,,,,,,,,,,,,,,,,,,,,,,,,,,,,,,,,,,,,,,,,,,,,,,,,,
,,,,,,60df0768b4b2fa71f584a127,62c53ab6fcc75bafadb0f10e,2022-07-06_09h33.26.033,Colour_Asymmetry_Pilot,2022.1.3,Win32,59.86231667,62c50e9c1127f2cd403a315f,0,71,71,86,1,fourtwo,,,,,,,,,,,,,,,,,,,,,,,,,,,,,,,,,,,,,,,,,,,,,,,,,,,,,,,,,,,,,,,,,,,,,,,,,,,,,,,,,,,,,,,,,,,,,,,,,,,,,,,,,,,,,,,,,,,,,,,,,,,,,,,,,,,,,,,,,,,,,,,,,,,,,,,,,,,,,
,,,,,,60df0768b4b2fa71f584a127,62c53ab6fcc75bafadb0f10e,2022-07-06_09h33.26.033,Colour_Asymmetry_Pilot,2022.1.3,Win32,59.86231667,62c50e9c1127f2cd403a315f,0,72,72,100,1,threeone,,,,,,,,,,,,,,,,,,,,,,,,,,,,,,,,,,,,,,,,,,,,,,,,,,,,,,,,,,,,,,,,,,,,,,,,,,,,,,,,,,,,,,,,,,,,,,,,,,,,,,,,,,,,,,,,,,,,,,,,,,,,,,,,,,,,,,,,,,,,,,,,,,,,,,,,,,,,,
,,,,,,60df0768b4b2fa71f584a127,62c53ab6fcc75bafadb0f10e,2022-07-06_09h33.26.033,Colour_Asymmetry_Pilot,2022.1.3,Win32,59.86231667,62c50e9c1127f2cd403a315f,0,73,73,25,1,onethree,,,,,,,,,,,,,,,,,,,,,,,,,,,,,,,,,,,,,,,,,,,,,,,,,,,,,,,,,,,,,,,,,,,,,,,,,,,,,,,,,,,,,,,,,,,,,,,,,,,,,,,,,,,,,,,,,,,,,,,,,,,,,,,,,,,,,,,,,,,,,,,,,,,,,,,,,,,,,
,,,,,,60df0768b4b2fa71f584a127,62c53ab6fcc75bafadb0f10e,2022-07-06_09h33.26.033,Colour_Asymmetry_Pilot,2022.1.3,Win32,59.86231667,62c50e9c1127f2cd403a315f,0,74,74,17,1,onethree,,,,,,,,,,,,,,,,,,,,,,,,,,,,,,,,,,,,,,,,,,,,,,,,,,,,,,,,,,,,,,,,,,,,,,,,,,,,,,,,,,,,,,,,,,,,,,,,,,,,,,,,,,,,,,,,,,,,,,,,,,,,,,,,,,,,,,,,,,,,,,,,,,,,,,,,,,,,,
,,,,,,60df0768b4b2fa71f584a127,62c53ab6fcc75bafadb0f10e,2022-07-06_09h33.26.033,Colour_Asymmetry_Pilot,2022.1.3,Win32,59.86231667,62c50e9c1127f2cd403a315f,0,75,75,101,1,threefour,,,,,,,,,,,,,,,,,,,,,,,,,,,,,,,,,,,,,,,,,,,,,,,,,,,,,,,,,,,,,,,,,,,,,,,,,,,,,,,,,,,,,,,,,,,,,,,,,,,,,,,,,,,,,,,,,,,,,,,,,,,,,,,,,,,,,,,,,,,,,,,,,,,,,,,,,,,,,
,,,,,,60df0768b4b2fa71f584a127,62c53ab6fcc75bafadb0f10e,2022-07-06_09h33.26.033,Colour_Asymmetry_Pilot,2022.1.3,Win32,59.86231667,62c50e9c1127f2cd403a315f,0,76,76,89,1,onethree,,,,,,,,,,,,,,,,,,,,,,,,,,,,,,,,,,,,,,,,,,,,,,,,,,,,,,,,,,,,,,,,,,,,,,,,,,,,,,,,,,,,,,,,,,,,,,,,,,,,,,,,,,,,,,,,,,,,,,,,,,,,,,,,,,,,,,,,,,,,,,,,,,,,,,,,,,,,,
,,,,,,60df0768b4b2fa71f584a127,62c53ab6fcc75bafadb0f10e,2022-07-06_09h33.26.033,Colour_Asymmetry_Pilot,2022.1.3,Win32,59.86231667,62c50e9c1127f2cd403a315f,0,77,77,110,1,fourtwo,,,,,,,,,,,,,,,,,,,,,,,,,,,,,,,,,,,,,,,,,,,,,,,,,,,,,,,,,,,,,,,,,,,,,,,,,,,,,,,,,,,,,,,,,,,,,,,,,,,,,,,,,,,,,,,,,,,,,,,,,,,,,,,,,,,,,,,,,,,,,,,,,,,,,,,,,,,,,
,,,,,,60df0768b4b2fa71f584a127,62c53ab6fcc75bafadb0f10e,2022-07-06_09h33.26.033,Colour_Asymmetry_Pilot,2022.1.3,Win32,59.86231667,62c50e9c1127f2cd403a315f,0,78,78,146,1,twoone,,,,,,,,,,,,,,,,,,,,,,,,,,,,,,,,,,,,,,,,,,,,,,,,,,,,,,,,,,,,,,,,,,,,,,,,,,,,,,,,,,,,,,,,,,,,,,,,,,,,,,,,,,,,,,,,,,,,,,,,,,,,,,,,,,,,,,,,,,,,,,,,,,,,,,,,,,,,,
,,,,,,60df0768b4b2fa71f584a127,62c53ab6fcc75bafadb0f10e,2022-07-06_09h33.26.033,Colour_Asymmetry_Pilot,2022.1.3,Win32,59.86231667,62c50e9c1127f2cd403a315f,0,79,79,151,1,fourthree,,,,,,,,,,,,,,,,,,,,,,,,,,,,,,,,,,,,,,,,,,,,,,,,,,,,,,,,,,,,,,,,,,,,,,,,,,,,,,,,,,,,,,,,,,,,,,,,,,,,,,,,,,,,,,,,,,,,,,,,,,,,,,,,,,,,,,,,,,,,,,,,,,,,,,,,,,,,,
,,,,,,60df0768b4b2fa71f584a127,62c53ab6fcc75bafadb0f10e,2022-07-06_09h33.26.033,Colour_Asymmetry_Pilot,2022.1.3,Win32,59.86231667,62c50e9c1127f2cd403a315f,0,80,80,90,1,twoone,,,,,,,,,,,,,,,,,,,,,,,,,,,,,,,,,,,,,,,,,,,,,,,,,,,,,,,,,,,,,,,,,,,,,,,,,,,,,,,,,,,,,,,,,,,,,,,,,,,,,,,,,,,,,,,,,,,,,,,,,,,,,,,,,,,,,,,,,,,,,,,,,,,,,,,,,,,,,
,,,,,,60df0768b4b2fa71f584a127,62c53ab6fcc75bafadb0f10e,2022-07-06_09h33.26.033,Colour_Asymmetry_Pilot,2022.1.3,Win32,59.86231667,62c50e9c1127f2cd403a315f,0,81,81,15,1,fourthree,,,,,,,,,,,,,,,,,,,,,,,,,,,,,,,,,,,,,,,,,,,,,,,,,,,,,,,,,,,,,,,,,,,,,,,,,,,,,,,,,,,,,,,,,,,,,,,,,,,,,,,,,,,,,,,,,,,,,,,,,,,,,,,,,,,,,,,,,,,,,,,,,,,,,,,,,,,,,
,,,,,,60df0768b4b2fa71f584a127,62c53ab6fcc75bafadb0f10e,2022-07-06_09h33.26.033,Colour_Asymmetry_Pilot,2022.1.3,Win32,59.86231667,62c50e9c1127f2cd403a315f,0,82,82,75,1,twofour,,,,,,,,,,,,,,,,,,,,,,,,,,,,,,,,,,,,,,,,,,,,,,,,,,,,,,,,,,,,,,,,,,,,,,,,,,,,,,,,,,,,,,,,,,,,,,,,,,,,,,,,,,,,,,,,,,,,,,,,,,,,,,,,,,,,,,,,,,,,,,,,,,,,,,,,,,,,,
,,,,,,60df0768b4b2fa71f584a127,62c53ab6fcc75bafadb0f10e,2022-07-06_09h33.26.033,Colour_Asymmetry_Pilot,2022.1.3,Win32,59.86231667,62c50e9c1127f2cd403a315f,0,83,83,28,1,threeone,,,,,,,,,,,,,,,,,,,,,,,,,,,,,,,,,,,,,,,,,,,,,,,,,,,,,,,,,,,,,,,,,,,,,,,,,,,,,,,,,,,,,,,,,,,,,,,,,,,,,,,,,,,,,,,,,,,,,,,,,,,,,,,,,,,,,,,,,,,,,,,,,,,,,,,,,,,,,
,,,,,,60df0768b4b2fa71f584a127,62c53ab6fcc75bafadb0f10e,2022-07-06_09h33.26.033,Colour_Asymmetry_Pilot,2022.1.3,Win32,59.86231667,62c50e9c1127f2cd403a315f,0,84,84,19,1,twofour,,,,,,,,,,,,,,,,,,,,,,,,,,,,,,,,,,,,,,,,,,,,,,,,,,,,,,,,,,,,,,,,,,,,,,,,,,,,,,,,,,,,,,,,,,,,,,,,,,,,,,,,,,,,,,,,,,,,,,,,,,,,,,,,,,,,,,,,,,,,,,,,,,,,,,,,,,,,,
,,,,,,60df0768b4b2fa71f584a127,62c53ab6fcc75bafadb0f10e,2022-07-06_09h33.26.033,Colour_Asymmetry_Pilot,2022.1.3,Win32,59.86231667,62c50e9c1127f2cd403a315f,0,85,85,47,1,fourthree,,,,,,,,,,,,,,,,,,,,,,,,,,,,,,,,,,,,,,,,,,,,,,,,,,,,,,,,,,,,,,,,,,,,,,,,,,,,,,,,,,,,,,,,,,,,,,,,,,,,,,,,,,,,,,,,,,,,,,,,,,,,,,,,,,,,,,,,,,,,,,,,,,,,,,,,,,,,,
,,,,,,60df0768b4b2fa71f584a127,62c53ab6fcc75bafadb0f10e,2022-07-06_09h33.26.033,Colour_Asymmetry_Pilot,2022.1.3,Win32,59.86231667,62c50e9c1127f2cd403a315f,0,86,86,22,1,fourtwo,,,,,,,,,,,,,,,,,,,,,,,,,,,,,,,,,,,,,,,,,,,,,,,,,,,,,,,,,,,,,,,,,,,,,,,,,,,,,,,,,,,,,,,,,,,,,,,,,,,,,,,,,,,,,,,,,,,,,,,,,,,,,,,,,,,,,,,,,,,,,,,,,,,,,,,,,,,,,
,,,,,,60df0768b4b2fa71f584a127,62c53ab6fcc75bafadb0f10e,2022-07-06_09h33.26.033,Colour_Asymmetry_Pilot,2022.1.3,Win32,59.86231667,62c50e9c1127f2cd403a315f,0,87,87,29,1,threefour,,,,,,,,,,,,,,,,,,,,,,,,,,,,,,,,,,,,,,,,,,,,,,,,,,,,,,,,,,,,,,,,,,,,,,,,,,,,,,,,,,,,,,,,,,,,,,,,,,,,,,,,,,,,,,,,,,,,,,,,,,,,,,,,,,,,,,,,,,,,,,,,,,,,,,,,,,,,,
,,,,,,60df0768b4b2fa71f584a127,62c53ab6fcc75bafadb0f10e,2022-07-06_09h33.26.033,Colour_Asymmetry_Pilot,2022.1.3,Win32,59.86231667,62c50e9c1127f2cd403a315f,0,88,88,42,1,twoone,,,,,,,,,,,,,,,,,,,,,,,,,,,,,,,,,,,,,,,,,,,,,,,,,,,,,,,,,,,,,,,,,,,,,,,,,,,,,,,,,,,,,,,,,,,,,,,,,,,,,,,,,,,,,,,,,,,,,,,,,,,,,,,,,,,,,,,,,,,,,,,,,,,,,,,,,,,,,
,,,,,,60df0768b4b2fa71f584a127,62c53ab6fcc75bafadb0f10e,2022-07-06_09h33.26.033,Colour_Asymmetry_Pilot,2022.1.3,Win32,59.86231667,62c50e9c1127f2cd403a315f,0,89,89,136,1,onetwo,,,,,,,,,,,,,,,,,,,,,,,,,,,,,,,,,,,,,,,,,,,,,,,,,,,,,,,,,,,,,,,,,,,,,,,,,,,,,,,,,,,,,,,,,,,,,,,,,,,,,,,,,,,,,,,,,,,,,,,,,,,,,,,,,,,,,,,,,,,,,,,,,,,,,,,,,,,,,
,,,,,,60df0768b4b2fa71f584a127,62c53ab6fcc75bafadb0f10e,2022-07-06_09h33.26.033,Colour_Asymmetry_Pilot,2022.1.3,Win32,59.86231667,62c50e9c1127f2cd403a315f,0,90,90,20,1,threeone,,,,,,,,,,,,,,,,,,,,,,,,,,,,,,,,,,,,,,,,,,,,,,,,,,,,,,,,,,,,,,,,,,,,,,,,,,,,,,,,,,,,,,,,,,,,,,,,,,,,,,,,,,,,,,,,,,,,,,,,,,,,,,,,,,,,,,,,,,,,,,,,,,,,,,,,,,,,,
,,,,,,60df0768b4b2fa71f584a127,62c53ab6fcc75bafadb0f10e,2022-07-06_09h33.26.033,Colour_Asymmetry_Pilot,2022.1.3,Win32,59.86231667,62c50e9c1127f2cd403a315f,0,91,91,55,1,fourthree,,,,,,,,,,,,,,,,,,,,,,,,,,,,,,,,,,,,,,,,,,,,,,,,,,,,,,,,,,,,,,,,,,,,,,,,,,,,,,,,,,,,,,,,,,,,,,,,,,,,,,,,,,,,,,,,,,,,,,,,,,,,,,,,,,,,,,,,,,,,,,,,,,,,,,,,,,,,,
,,,,,,60df0768b4b2fa71f584a127,62c53ab6fcc75bafadb0f10e,2022-07-06_09h33.26.033,Colour_Asymmetry_Pilot,2022.1.3,Win32,59.86231667,62c50e9c1127f2cd403a315f,0,92,92,41,1,onethree,,,,,,,,,,,,,,,,,,,,,,,,,,,,,,,,,,,,,,,,,,,,,,,,,,,,,,,,,,,,,,,,,,,,,,,,,,,,,,,,,,,,,,,,,,,,,,,,,,,,,,,,,,,,,,,,,,,,,,,,,,,,,,,,,,,,,,,,,,,,,,,,,,,,,,,,,,,,,
,,,,,,60df0768b4b2fa71f584a127,62c53ab6fcc75bafadb0f10e,2022-07-06_09h33.26.033,Colour_Asymmetry_Pilot,2022.1.3,Win32,59.86231667,62c50e9c1127f2cd403a315f,0,93,93,81,1,onethree,,,,,,,,,,,,,,,,,,,,,,,,,,,,,,,,,,,,,,,,,,,,,,,,,,,,,,,,,,,,,,,,,,,,,,,,,,,,,,,,,,,,,,,,,,,,,,,,,,,,,,,,,,,,,,,,,,,,,,,,,,,,,,,,,,,,,,,,,,,,,,,,,,,,,,,,,,,,,
,,,,,,60df0768b4b2fa71f584a127,62c53ab6fcc75bafadb0f10e,2022-07-06_09h33.26.033,Colour_Asymmetry_Pilot,2022.1.3,Win32,59.86231667,62c50e9c1127f2cd403a315f,0,94,94,116,1,threeone,,,,,,,,,,,,,,,,,,,,,,,,,,,,,,,,,,,,,,,,,,,,,,,,,,,,,,,,,,,,,,,,,,,,,,,,,,,,,,,,,,,,,,,,,,,,,,,,,,,,,,,,,,,,,,,,,,,,,,,,,,,,,,,,,,,,,,,,,,,,,,,,,,,,,,,,,,,,,
,,,,,,60df0768b4b2fa71f584a127,62c53ab6fcc75bafadb0f10e,2022-07-06_09h33.26.033,Colour_Asymmetry_Pilot,2022.1.3,Win32,59.86231667,62c50e9c1127f2cd403a315f,0,95,95,31,1,fourthree,,,,,,,,,,,,,,,,,,,,,,,,,,,,,,,,,,,,,,,,,,,,,,,,,,,,,,,,,,,,,,,,,,,,,,,,,,,,,,,,,,,,,,,,,,,,,,,,,,,,,,,,,,,,,,,,,,,,,,,,,,,,,,,,,,,,,,,,,,,,,,,,,,,,,,,,,,,,,
,,,,,,60df0768b4b2fa71f584a127,62c53ab6fcc75bafadb0f10e,2022-07-06_09h33.26.033,Colour_Asymmetry_Pilot,2022.1.3,Win32,59.86231667,62c50e9c1127f2cd403a315f,0,96,96,24,1,onetwo,,,,,,,,,,,,,,,,,,,,,,,,,,,,,,,,,,,,,,,,,,,,,,,,,,,,,,,,,,,,,,,,,,,,,,,,,,,,,,,,,,,,,,,,,,,,,,,,,,,,,,,,,,,,,,,,,,,,,,,,,,,,,,,,,,,,,,,,,,,,,,,,,,,,,,,,,,,,,
,,,,,,60df0768b4b2fa71f584a127,62c53ab6fcc75bafadb0f10e,2022-07-06_09h33.26.033,Colour_Asymmetry_Pilot,2022.1.3,Win32,59.86231667,62c50e9c1127f2cd403a315f,0,97,97,91,1,twofour,,,,,,,,,,,,,,,,,,,,,,,,,,,,,,,,,,,,,,,,,,,,,,,,,,,,,,,,,,,,,,,,,,,,,,,,,,,,,,,,,,,,,,,,,,,,,,,,,,,,,,,,,,,,,,,,,,,,,,,,,,,,,,,,,,,,,,,,,,,,,,,,,,,,,,,,,,,,,
,,,,,,60df0768b4b2fa71f584a127,62c53ab6fcc75bafadb0f10e,2022-07-06_09h33.26.033,Colour_Asymmetry_Pilot,2022.1.3,Win32,59.86231667,62c50e9c1127f2cd403a315f,0,98,98,70,1,fourtwo,,,,,,,,,,,,,,,,,,,,,,,,,,,,,,,,,,,,,,,,,,,,,,,,,,,,,,,,,,,,,,,,,,,,,,,,,,,,,,,,,,,,,,,,,,,,,,,,,,,,,,,,,,,,,,,,,,,,,,,,,,,,,,,,,,,,,,,,,,,,,,,,,,,,,,,,,,,,,
,,,,,,60df0768b4b2fa71f584a127,62c53ab6fcc75bafadb0f10e,2022-07-06_09h33.26.033,Colour_Asymmetry_Pilot,2022.1.3,Win32,59.86231667,62c50e9c1127f2cd403a315f,0,99,99,7,1,fourthree,,,,,,,,,,,,,,,,,,,,,,,,,,,,,,,,,,,,,,,,,,,,,,,,,,,,,,,,,,,,,,,,,,,,,,,,,,,,,,,,,,,,,,,,,,,,,,,,,,,,,,,,,,,,,,,,,,,,,,,,,,,,,,,,,,,,,,,,,,,,,,,,,,,,,,,,,,,,,
,,,,,,60df0768b4b2fa71f584a127,62c53ab6fcc75bafadb0f10e,2022-07-06_09h33.26.033,Colour_Asymmetry_Pilot,2022.1.3,Win32,59.86231667,62c50e9c1127f2cd403a315f,0,100,100,1,1,onethree,,,,,,,,,,,,,,,,,,,,,,,,,,,,,,,,,,,,,,,,,,,,,,,,,,,,,,,,,,,,,,,,,,,,,,,,,,,,,,,,,,,,,,,,,,,,,,,,,,,,,,,,,,,,,,,,,,,,,,,,,,,,,,,,,,,,,,,,,,,,,,,,,,,,,,,,,,,,,
,,,,,,60df0768b4b2fa71f584a127,62c53ab6fcc75bafadb0f10e,2022-07-06_09h33.26.033,Colour_Asymmetry_Pilot,2022.1.3,Win32,59.86231667,62c50e9c1127f2cd403a315f,0,101,101,103,1,fourthree,,,,,,,,,,,,,,,,,,,,,,,,,,,,,,,,,,,,,,,,,,,,,,,,,,,,,,,,,,,,,,,,,,,,,,,,,,,,,,,,,,,,,,,,,,,,,,,,,,,,,,,,,,,,,,,,,,,,,,,,,,,,,,,,,,,,,,,,,,,,,,,,,,,,,,,,,,,,,
,,,,,,60df0768b4b2fa71f584a127,62c53ab6fcc75bafadb0f10e,2022-07-06_09h33.26.033,Colour_Asymmetry_Pilot,2022.1.3,Win32,59.86231667,62c50e9c1127f2cd403a315f,0,102,102,76,1,threeone,,,,,,,,,,,,,,,,,,,,,,,,,,,,,,,,,,,,,,,,,,,,,,,,,,,,,,,,,,,,,,,,,,,,,,,,,,,,,,,,,,,,,,,,,,,,,,,,,,,,,,,,,,,,,,,,,,,,,,,,,,,,,,,,,,,,,,,,,,,,,,,,,,,,,,,,,,,,,
,,,,,,60df0768b4b2fa71f584a127,62c53ab6fcc75bafadb0f10e,2022-07-06_09h33.26.033,Colour_Asymmetry_Pilot,2022.1.3,Win32,59.86231667,62c50e9c1127f2cd403a315f,0,103,103,112,1,onetwo,,,,,,,,,,,,,,,,,,,,,,,,,,,,,,,,,,,,,,,,,,,,,,,,,,,,,,,,,,,,,,,,,,,,,,,,,,,,,,,,,,,,,,,,,,,,,,,,,,,,,,,,,,,,,,,,,,,,,,,,,,,,,,,,,,,,,,,,,,,,,,,,,,,,,,,,,,,,,
,,,,,,60df0768b4b2fa71f584a127,62c53ab6fcc75bafadb0f10e,2022-07-06_09h33.26.033,Colour_Asymmetry_Pilot,2022.1.3,Win32,59.86231667,62c50e9c1127f2cd403a315f,0,104,104,106,1,twoone,,,,,,,,,,,,,,,,,,,,,,,,,,,,,,,,,,,,,,,,,,,,,,,,,,,,,,,,,,,,,,,,,,,,,,,,,,,,,,,,,,,,,,,,,,,,,,,,,,,,,,,,,,,,,,,,,,,,,,,,,,,,,,,,,,,,,,,,,,,,,,,,,,,,,,,,,,,,,
,,,,,,60df0768b4b2fa71f584a127,62c53ab6fcc75bafadb0f10e,2022-07-06_09h33.26.033,Colour_Asymmetry_Pilot,2022.1.3,Win32,59.86231667,62c50e9c1127f2cd403a315f,0,105,105,56,1,onetwo,,,,,,,,,,,,,,,,,,,,,,,,,,,,,,,,,,,,,,,,,,,,,,,,,,,,,,,,,,,,,,,,,,,,,,,,,,,,,,,,,,,,,,,,,,,,,,,,,,,,,,,,,,,,,,,,,,,,,,,,,,,,,,,,,,,,,,,,,,,,,,,,,,,,,,,,,,,,,
,,,,,,60df0768b4b2fa71f584a127,62c53ab6fcc75bafadb0f10e,2022-07-06_09h33.26.033,Colour_Asymmetry_Pilot,2022.1.3,Win32,59.86231667,62c50e9c1127f2cd403a315f,0,106,106,54,1,fourtwo,,,,,,,,,,,,,,,,,,,,,,,,,,,,,,,,,,,,,,,,,,,,,,,,,,,,,,,,,,,,,,,,,,,,,,,,,,,,,,,,,,,,,,,,,,,,,,,,,,,,,,,,,,,,,,,,,,,,,,,,,,,,,,,,,,,,,,,,,,,,,,,,,,,,,,,,,,,,,
,,,,,,60df0768b4b2fa71f584a127,62c53ab6fcc75bafadb0f10e,2022-07-06_09h33.26.033,Colour_Asymmetry_Pilot,2022.1.3,Win32,59.86231667,62c50e9c1127f2cd403a315f,0,107,107,79,1,fourthree,,,,,,,,,,,,,,,,,,,,,,,,,,,,,,,,,,,,,,,,,,,,,,,,,,,,,,,,,,,,,,,,,,,,,,,,,,,,,,,,,,,,,,,,,,,,,,,,,,,,,,,,,,,,,,,,,,,,,,,,,,,,,,,,,,,,,,,,,,,,,,,,,,,,,,,,,,,,,
,,,,,,60df0768b4b2fa71f584a127,62c53ab6fcc75bafadb0f10e,2022-07-06_09h33.26.033,Colour_Asymmetry_Pilot,2022.1.3,Win32,59.86231667,62c50e9c1127f2cd403a315f,0,108,108,152,1,onetwo,,,,,,,,,,,,,,,,,,,,,,,,,,,,,,,,,,,,,,,,,,,,,,,,,,,,,,,,,,,,,,,,,,,,,,,,,,,,,,,,,,,,,,,,,,,,,,,,,,,,,,,,,,,,,,,,,,,,,,,,,,,,,,,,,,,,,,,,,,,,,,,,,,,,,,,,,,,,,
,,,,,,60df0768b4b2fa71f584a127,62c53ab6fcc75bafadb0f10e,2022-07-06_09h33.26.033,Colour_Asymmetry_Pilot,2022.1.3,Win32,59.86231667,62c50e9c1127f2cd403a315f,0,109,109,37,1,threefour,,,,,,,,,,,,,,,,,,,,,,,,,,,,,,,,,,,,,,,,,,,,,,,,,,,,,,,,,,,,,,,,,,,,,,,,,,,,,,,,,,,,,,,,,,,,,,,,,,,,,,,,,,,,,,,,,,,,,,,,,,,,,,,,,,,,,,,,,,,,,,,,,,,,,,,,,,,,,
,,,,,,60df0768b4b2fa71f584a127,62c53ab6fcc75bafadb0f10e,2022-07-06_09h33.26.033,Colour_Asymmetry_Pilot,2022.1.3,Win32,59.86231667,62c50e9c1127f2cd403a315f,0,110,110,150,1,fourtwo,,,,,,,,,,,,,,,,,,,,,,,,,,,,,,,,,,,,,,,,,,,,,,,,,,,,,,,,,,,,,,,,,,,,,,,,,,,,,,,,,,,,,,,,,,,,,,,,,,,,,,,,,,,,,,,,,,,,,,,,,,,,,,,,,,,,,,,,,,,,,,,,,,,,,,,,,,,,,
,,,,,,60df0768b4b2fa71f584a127,62c53ab6fcc75bafadb0f10e,2022-07-06_09h33.26.033,Colour_Asymmetry_Pilot,2022.1.3,Win32,59.86231667,62c50e9c1127f2cd403a315f,0,111,111,102,1,fourtwo,,,,,,,,,,,,,,,,,,,,,,,,,,,,,,,,,,,,,,,,,,,,,,,,,,,,,,,,,,,,,,,,,,,,,,,,,,,,,,,,,,,,,,,,,,,,,,,,,,,,,,,,,,,,,,,,,,,,,,,,,,,,,,,,,,,,,,,,,,,,,,,,,,,,,,,,,,,,,
,,,,,,60df0768b4b2fa71f584a127,62c53ab6fcc75bafadb0f10e,2022-07-06_09h33.26.033,Colour_Asymmetry_Pilot,2022.1.3,Win32,59.86231667,62c50e9c1127f2cd403a315f,0,112,112,13,1,threefour,,,,,,,,,,,,,,,,,,,,,,,,,,,,,,,,,,,,,,,,,,,,,,,,,,,,,,,,,,,,,,,,,,,,,,,,,,,,,,,,,,,,,,,,,,,,,,,,,,,,,,,,,,,,,,,,,,,,,,,,,,,,,,,,,,,,,,,,,,,,,,,,,,,,,,,,,,,,,
,,,,,,60df0768b4b2fa71f584a127,62c53ab6fcc75bafadb0f10e,2022-07-06_09h33.26.033,Colour_Asymmetry_Pilot,2022.1.3,Win32,59.86231667,62c50e9c1127f2cd403a315f,0,113,113,121,1,onethree,,,,,,,,,,,,,,,,,,,,,,,,,,,,,,,,,,,,,,,,,,,,,,,,,,,,,,,,,,,,,,,,,,,,,,,,,,,,,,,,,,,,,,,,,,,,,,,,,,,,,,,,,,,,,,,,,,,,,,,,,,,,,,,,,,,,,,,,,,,,,,,,,,,,,,,,,,,,,
,,,,,,60df0768b4b2fa71f584a127,62c53ab6fcc75bafadb0f10e,2022-07-06_09h33.26.033,Colour_Asymmetry_Pilot,2022.1.3,Win32,59.86231667,62c50e9c1127f2cd403a315f,0,114,114,145,1,onethree,,,,,,,,,,,,,,,,,,,,,,,,,,,,,,,,,,,,,,,,,,,,,,,,,,,,,,,,,,,,,,,,,,,,,,,,,,,,,,,,,,,,,,,,,,,,,,,,,,,,,,,,,,,,,,,,,,,,,,,,,,,,,,,,,,,,,,,,,,,,,,,,,,,,,,,,,,,,,
,,,,,,60df0768b4b2fa71f584a127,62c53ab6fcc75bafadb0f10e,2022-07-06_09h33.26.033,Colour_Asymmetry_Pilot,2022.1.3,Win32,59.86231667,62c50e9c1127f2cd403a315f,0,115,115,53,1,threefour,,,,,,,,,,,,,,,,,,,,,,,,,,,,,,,,,,,,,,,,,,,,,,,,,,,,,,,,,,,,,,,,,,,,,,,,,,,,,,,,,,,,,,,,,,,,,,,,,,,,,,,,,,,,,,,,,,,,,,,,,,,,,,,,,,,,,,,,,,,,,,,,,,,,,,,,,,,,,
,,,,,,60df0768b4b2fa71f584a127,62c53ab6fcc75bafadb0f10e,2022-07-06_09h33.26.033,Colour_Asymmetry_Pilot,2022.1.3,Win32,59.86231667,62c50e9c1127f2cd403a315f,0,116,116,118,1,fourtwo,,,,,,,,,,,,,,,,,,,,,,,,,,,,,,,,,,,,,,,,,,,,,,,,,,,,,,,,,,,,,,,,,,,,,,,,,,,,,,,,,,,,,,,,,,,,,,,,,,,,,,,,,,,,,,,,,,,,,,,,,,,,,,,,,,,,,,,,,,,,,,,,,,,,,,,,,,,,,
,,,,,,60df0768b4b2fa71f584a127,62c53ab6fcc75bafadb0f10e,2022-07-06_09h33.26.033,Colour_Asymmetry_Pilot,2022.1.3,Win32,59.86231667,62c50e9c1127f2cd403a315f,0,117,117,96,1,onetwo,,,,,,,,,,,,,,,,,,,,,,,,,,,,,,,,,,,,,,,,,,,,,,,,,,,,,,,,,,,,,,,,,,,,,,,,,,,,,,,,,,,,,,,,,,,,,,,,,,,,,,,,,,,,,,,,,,,,,,,,,,,,,,,,,,,,,,,,,,,,,,,,,,,,,,,,,,,,,
,,,,,,60df0768b4b2fa71f584a127,62c53ab6fcc75bafadb0f10e,2022-07-06_09h33.26.033,Colour_Asymmetry_Pilot,2022.1.3,Win32,59.86231667,62c50e9c1127f2cd403a315f,0,118,118,27,1,twofour,,,,,,,,,,,,,,,,,,,,,,,,,,,,,,,,,,,,,,,,,,,,,,,,,,,,,,,,,,,,,,,,,,,,,,,,,,,,,,,,,,,,,,,,,,,,,,,,,,,,,,,,,,,,,,,,,,,,,,,,,,,,,,,,,,,,,,,,,,,,,,,,,,,,,,,,,,,,,
,,,,,,60df0768b4b2fa71f584a127,62c53ab6fcc75bafadb0f10e,2022-07-06_09h33.26.033,Colour_Asymmetry_Pilot,2022.1.3,Win32,59.86231667,62c50e9c1127f2cd403a315f,0,119,119,45,1,threefour,,,,,,,,,,,,,,,,,,,,,,,,,,,,,,,,,,,,,,,,,,,,,,,,,,,,,,,,,,,,,,,,,,,,,,,,,,,,,,,,,,,,,,,,,,,,,,,,,,,,,,,,,,,,,,,,,,,,,,,,,,,,,,,,,,,,,,,,,,,,,,,,,,,,,,,,,,,,,
,,,,,,60df0768b4b2fa71f584a127,62c53ab6fcc75bafadb0f10e,2022-07-06_09h33.26.033,Colour_Asymmetry_Pilot,2022.1.3,Win32,59.86231667,62c50e9c1127f2cd403a315f,0,120,120,87,1,fourthree,,,,,,,,,,,,,,,,,,,,,,,,,,,,,,,,,,,,,,,,,,,,,,,,,,,,,,,,,,,,,,,,,,,,,,,,,,,,,,,,,,,,,,,,,,,,,,,,,,,,,,,,,,,,,,,,,,,,,,,,,,,,,,,,,,,,,,,,,,,,,,,,,,,,,,,,,,,,,
,,,,,,60df0768b4b2fa71f584a127,62c53ab6fcc75bafadb0f10e,2022-07-06_09h33.26.033,Colour_Asymmetry_Pilot,2022.1.3,Win32,59.86231667,62c50e9c1127f2cd403a315f,0,121,121,44,1,threeone,,,,,,,,,,,,,,,,,,,,,,,,,,,,,,,,,,,,,,,,,,,,,,,,,,,,,,,,,,,,,,,,,,,,,,,,,,,,,,,,,,,,,,,,,,,,,,,,,,,,,,,,,,,,,,,,,,,,,,,,,,,,,,,,,,,,,,,,,,,,,,,,,,,,,,,,,,,,,
,,,,,,60df0768b4b2fa71f584a127,62c53ab6fcc75bafadb0f10e,2022-07-06_09h33.26.033,Colour_Asymmetry_Pilot,2022.1.3,Win32,59.86231667,62c50e9c1127f2cd403a315f,0,122,122,0,1,onetwo,,,,,,,,,,,,,,,,,,,,,,,,,,,,,,,,,,,,,,,,,,,,,,,,,,,,,,,,,,,,,,,,,,,,,,,,,,,,,,,,,,,,,,,,,,,,,,,,,,,,,,,,,,,,,,,,,,,,,,,,,,,,,,,,,,,,,,,,,,,,,,,,,,,,,,,,,,,,,
,,,,,,60df0768b4b2fa71f584a127,62c53ab6fcc75bafadb0f10e,2022-07-06_09h33.26.033,Colour_Asymmetry_Pilot,2022.1.3,Win32,59.86231667,62c50e9c1127f2cd403a315f,0,123,123,11,1,twofour,,,,,,,,,,,,,,,,,,,,,,,,,,,,,,,,,,,,,,,,,,,,,,,,,,,,,,,,,,,,,,,,,,,,,,,,,,,,,,,,,,,,,,,,,,,,,,,,,,,,,,,,,,,,,,,,,,,,,,,,,,,,,,,,,,,,,,,,,,,,,,,,,,,,,,,,,,,,,
,,,,,,60df0768b4b2fa71f584a127,62c53ab6fcc75bafadb0f10e,2022-07-06_09h33.26.033,Colour_Asymmetry_Pilot,2022.1.3,Win32,59.86231667,62c50e9c1127f2cd403a315f,0,124,124,143,1,fourthree,,,,,,,,,,,,,,,,,,,,,,,,,,,,,,,,,,,,,,,,,,,,,,,,,,,,,,,,,,,,,,,,,,,,,,,,,,,,,,,,,,,,,,,,,,,,,,,,,,,,,,,,,,,,,,,,,,,,,,,,,,,,,,,,,,,,,,,,,,,,,,,,,,,,,,,,,,,,,
,,,,,,60df0768b4b2fa71f584a127,62c53ab6fcc75bafadb0f10e,2022-07-06_09h33.26.033,Colour_Asymmetry_Pilot,2022.1.3,Win32,59.86231667,62c50e9c1127f2cd403a315f,0,125,125,65,1,onethree,,,,,,,,,,,,,,,,,,,,,,,,,,,,,,,,,,,,,,,,,,,,,,,,,,,,,,,,,,,,,,,,,,,,,,,,,,,,,,,,,,,,,,,,,,,,,,,,,,,,,,,,,,,,,,,,,,,,,,,,,,,,,,,,,,,,,,,,,,,,,,,,,,,,,,,,,,,,,
,,,,,,60df0768b4b2fa71f584a127,62c53ab6fcc75bafadb0f10e,2022-07-06_09h33.26.033,Colour_Asymmetry_Pilot,2022.1.3,Win32,59.86231667,62c50e9c1127f2cd403a315f,0,126,126,66,1,twoone,,,,,,,,,,,,,,,,,,,,,,,,,,,,,,,,,,,,,,,,,,,,,,,,,,,,,,,,,,,,,,,,,,,,,,,,,,,,,,,,,,,,,,,,,,,,,,,,,,,,,,,,,,,,,,,,,,,,,,,,,,,,,,,,,,,,,,,,,,,,,,,,,,,,,,,,,,,,,
,,,,,,60df0768b4b2fa71f584a127,62c53ab6fcc75bafadb0f10e,2022-07-06_09h33.26.033,Colour_Asymmetry_Pilot,2022.1.3,Win32,59.86231667,62c50e9c1127f2cd403a315f,0,127,127,74,1,twoone,,,,,,,,,,,,,,,,,,,,,,,,,,,,,,,,,,,,,,,,,,,,,,,,,,,,,,,,,,,,,,,,,,,,,,,,,,,,,,,,,,,,,,,,,,,,,,,,,,,,,,,,,,,,,,,,,,,,,,,,,,,,,,,,,,,,,,,,,,,,,,,,,,,,,,,,,,,,,
,,,,,,60df0768b4b2fa71f584a127,62c53ab6fcc75bafadb0f10e,2022-07-06_09h33.26.033,Colour_Asymmetry_Pilot,2022.1.3,Win32,59.86231667,62c50e9c1127f2cd403a315f,0,128,128,117,1,threefour,,,,,,,,,,,,,,,,,,,,,,,,,,,,,,,,,,,,,,,,,,,,,,,,,,,,,,,,,,,,,,,,,,,,,,,,,,,,,,,,,,,,,,,,,,,,,,,,,,,,,,,,,,,,,,,,,,,,,,,,,,,,,,,,,,,,,,,,,,,,,,,,,,,,,,,,,,,,,
,,,,,,60df0768b4b2fa71f584a127,62c53ab6fcc75bafadb0f10e,2022-07-06_09h33.26.033,Colour_Asymmetry_Pilot,2022.1.3,Win32,59.86231667,62c50e9c1127f2cd403a315f,0,129,129,127,1,fourthree,,,,,,,,,,,,,,,,,,,,,,,,,,,,,,,,,,,,,,,,,,,,,,,,,,,,,,,,,,,,,,,,,,,,,,,,,,,,,,,,,,,,,,,,,,,,,,,,,,,,,,,,,,,,,,,,,,,,,,,,,,,,,,,,,,,,,,,,,,,,,,,,,,,,,,,,,,,,,
,,,,,,60df0768b4b2fa71f584a127,62c53ab6fcc75bafadb0f10e,2022-07-06_09h33.26.033,Colour_Asymmetry_Pilot,2022.1.3,Win32,59.86231667,62c50e9c1127f2cd403a315f,0,130,130,2,1,twoone,,,,,,,,,,,,,,,,,,,,,,,,,,,,,,,,,,,,,,,,,,,,,,,,,,,,,,,,,,,,,,,,,,,,,,,,,,,,,,,,,,,,,,,,,,,,,,,,,,,,,,,,,,,,,,,,,,,,,,,,,,,,,,,,,,,,,,,,,,,,,,,,,,,,,,,,,,,,,
,,,,,,60df0768b4b2fa71f584a127,62c53ab6fcc75bafadb0f10e,2022-07-06_09h33.26.033,Colour_Asymmetry_Pilot,2022.1.3,Win32,59.86231667,62c50e9c1127f2cd403a315f,0,131,131,125,1,threefour,,,,,,,,,,,,,,,,,,,,,,,,,,,,,,,,,,,,,,,,,,,,,,,,,,,,,,,,,,,,,,,,,,,,,,,,,,,,,,,,,,,,,,,,,,,,,,,,,,,,,,,,,,,,,,,,,,,,,,,,,,,,,,,,,,,,,,,,,,,,,,,,,,,,,,,,,,,,,
,,,,,,60df0768b4b2fa71f584a127,62c53ab6fcc75bafadb0f10e,2022-07-06_09h33.26.033,Colour_Asymmetry_Pilot,2022.1.3,Win32,59.86231667,62c50e9c1127f2cd403a315f,0,132,132,62,1,fourtwo,,,,,,,,,,,,,,,,,,,,,,,,,,,,,,,,,,,,,,,,,,,,,,,,,,,,,,,,,,,,,,,,,,,,,,,,,,,,,,,,,,,,,,,,,,,,,,,,,,,,,,,,,,,,,,,,,,,,,,,,,,,,,,,,,,,,,,,,,,,,,,,,,,,,,,,,,,,,,
,,,,,,60df0768b4b2fa71f584a127,62c53ab6fcc75bafadb0f10e,2022-07-06_09h33.26.033,Colour_Asymmetry_Pilot,2022.1.3,Win32,59.86231667,62c50e9c1127f2cd403a315f,0,133,133,92,1,threeone,,,,,,,,,,,,,,,,,,,,,,,,,,,,,,,,,,,,,,,,,,,,,,,,,,,,,,,,,,,,,,,,,,,,,,,,,,,,,,,,,,,,,,,,,,,,,,,,,,,,,,,,,,,,,,,,,,,,,,,,,,,,,,,,,,,,,,,,,,,,,,,,,,,,,,,,,,,,,
,,,,,,60df0768b4b2fa71f584a127,62c53ab6fcc75bafadb0f10e,2022-07-06_09h33.26.033,Colour_Asymmetry_Pilot,2022.1.3,Win32,59.86231667,62c50e9c1127f2cd403a315f,0,134,134,46,1,fourtwo,,,,,,,,,,,,,,,,,,,,,,,,,,,,,,,,,,,,,,,,,,,,,,,,,,,,,,,,,,,,,,,,,,,,,,,,,,,,,,,,,,,,,,,,,,,,,,,,,,,,,,,,,,,,,,,,,,,,,,,,,,,,,,,,,,,,,,,,,,,,,,,,,,,,,,,,,,,,,
,,,,,,60df0768b4b2fa71f584a127,62c53ab6fcc75bafadb0f10e,2022-07-06_09h33.26.033,Colour_Asymmetry_Pilot,2022.1.3,Win32,59.86231667,62c50e9c1127f2cd403a315f,0,135,135,83,1,twofour,,,,,,,,,,,,,,,,,,,,,,,,,,,,,,,,,,,,,,,,,,,,,,,,,,,,,,,,,,,,,,,,,,,,,,,,,,,,,,,,,,,,,,,,,,,,,,,,,,,,,,,,,,,,,,,,,,,,,,,,,,,,,,,,,,,,,,,,,,,,,,,,,,,,,,,,,,,,,
,,,,,,60df0768b4b2fa71f584a127,62c53ab6fcc75bafadb0f10e,2022-07-06_09h33.26.033,Colour_Asymmetry_Pilot,2022.1.3,Win32,59.86231667,62c50e9c1127f2cd403a315f,0,136,136,142,1,fourtwo,,,,,,,,,,,,,,,,,,,,,,,,,,,,,,,,,,,,,,,,,,,,,,,,,,,,,,,,,,,,,,,,,,,,,,,,,,,,,,,,,,,,,,,,,,,,,,,,,,,,,,,,,,,,,,,,,,,,,,,,,,,,,,,,,,,,,,,,,,,,,,,,,,,,,,,,,,,,,
,,,,,,60df0768b4b2fa71f584a127,62c53ab6fcc75bafadb0f10e,2022-07-06_09h33.26.033,Colour_Asymmetry_Pilot,2022.1.3,Win32,59.86231667,62c50e9c1127f2cd403a315f,0,137,137,77,1,threefour,,,,,,,,,,,,,,,,,,,,,,,,,,,,,,,,,,,,,,,,,,,,,,,,,,,,,,,,,,,,,,,,,,,,,,,,,,,,,,,,,,,,,,,,,,,,,,,,,,,,,,,,,,,,,,,,,,,,,,,,,,,,,,,,,,,,,,,,,,,,,,,,,,,,,,,,,,,,,
,,,,,,60df0768b4b2fa71f584a127,62c53ab6fcc75bafadb0f10e,2022-07-06_09h33.26.033,Colour_Asymmetry_Pilot,2022.1.3,Win32,59.86231667,62c50e9c1127f2cd403a315f,0,138,138,43,1,twofour,,,,,,,,,,,,,,,,,,,,,,,,,,,,,,,,,,,,,,,,,,,,,,,,,,,,,,,,,,,,,,,,,,,,,,,,,,,,,,,,,,,,,,,,,,,,,,,,,,,,,,,,,,,,,,,,,,,,,,,,,,,,,,,,,,,,,,,,,,,,,,,,,,,,,,,,,,,,,
,,,,,,60df0768b4b2fa71f584a127,62c53ab6fcc75bafadb0f10e,2022-07-06_09h33.26.033,Colour_Asymmetry_Pilot,2022.1.3,Win32,59.86231667,62c50e9c1127f2cd403a315f,0,139,139,133,1,threefour,,,,,,,,,,,,,,,,,,,,,,,,,,,,,,,,,,,,,,,,,,,,,,,,,,,,,,,,,,,,,,,,,,,,,,,,,,,,,,,,,,,,,,,,,,,,,,,,,,,,,,,,,,,,,,,,,,,,,,,,,,,,,,,,,,,,,,,,,,,,,,,,,,,,,,,,,,,,,
,,,,,,60df0768b4b2fa71f584a127,62c53ab6fcc75bafadb0f10e,2022-07-06_09h33.26.033,Colour_Asymmetry_Pilot,2022.1.3,Win32,59.86231667,62c50e9c1127f2cd403a315f,0,140,140,51,1,twofour,,,,,,,,,,,,,,,,,,,,,,,,,,,,,,,,,,,,,,,,,,,,,,,,,,,,,,,,,,,,,,,,,,,,,,,,,,,,,,,,,,,,,,,,,,,,,,,,,,,,,,,,,,,,,,,,,,,,,,,,,,,,,,,,,,,,,,,,,,,,,,,,,,,,,,,,,,,,,
,,,,,,60df0768b4b2fa71f584a127,62c53ab6fcc75bafadb0f10e,2022-07-06_09h33.26.033,Colour_Asymmetry_Pilot,2022.1.3,Win32,59.86231667,62c50e9c1127f2cd403a315f,0,141,141,115,1,twofour,,,,,,,,,,,,,,,,,,,,,,,,,,,,,,,,,,,,,,,,,,,,,,,,,,,,,,,,,,,,,,,,,,,,,,,,,,,,,,,,,,,,,,,,,,,,,,,,,,,,,,,,,,,,,,,,,,,,,,,,,,,,,,,,,,,,,,,,,,,,,,,,,,,,,,,,,,,,,
,,,,,,60df0768b4b2fa71f584a127,62c53ab6fcc75bafadb0f10e,2022-07-06_09h33.26.033,Colour_Asymmetry_Pilot,2022.1.3,Win32,59.86231667,62c50e9c1127f2cd403a315f,0,142,142,113,1,onethree,,,,,,,,,,,,,,,,,,,,,,,,,,,,,,,,,,,,,,,,,,,,,,,,,,,,,,,,,,,,,,,,,,,,,,,,,,,,,,,,,,,,,,,,,,,,,,,,,,,,,,,,,,,,,,,,,,,,,,,,,,,,,,,,,,,,,,,,,,,,,,,,,,,,,,,,,,,,,
,,,,,,60df0768b4b2fa71f584a127,62c53ab6fcc75bafadb0f10e,2022-07-06_09h33.26.033,Colour_Asymmetry_Pilot,2022.1.3,Win32,59.86231667,62c50e9c1127f2cd403a315f,0,143,143,59,1,twofour,,,,,,,,,,,,,,,,,,,,,,,,,,,,,,,,,,,,,,,,,,,,,,,,,,,,,,,,,,,,,,,,,,,,,,,,,,,,,,,,,,,,,,,,,,,,,,,,,,,,,,,,,,,,,,,,,,,,,,,,,,,,,,,,,,,,,,,,,,,,,,,,,,,,,,,,,,,,,
,,,,,,60df0768b4b2fa71f584a127,62c53ab6fcc75bafadb0f10e,2022-07-06_09h33.26.033,Colour_Asymmetry_Pilot,2022.1.3,Win32,59.86231667,62c50e9c1127f2cd403a315f,0,144,144,4,1,threeone,,,,,,,,,,,,,,,,,,,,,,,,,,,,,,,,,,,,,,,,,,,,,,,,,,,,,,,,,,,,,,,,,,,,,,,,,,,,,,,,,,,,,,,,,,,,,,,,,,,,,,,,,,,,,,,,,,,,,,,,,,,,,,,,,,,,,,,,,,,,,,,,,,,,,,,,,,,,,
,,,,,,60df0768b4b2fa71f584a127,62c53ab6fcc75bafadb0f10e,2022-07-06_09h33.26.033,Colour_Asymmetry_Pilot,2022.1.3,Win32,59.86231667,62c50e9c1127f2cd403a315f,0,145,145,60,1,threeone,,,,,,,,,,,,,,,,,,,,,,,,,,,,,,,,,,,,,,,,,,,,,,,,,,,,,,,,,,,,,,,,,,,,,,,,,,,,,,,,,,,,,,,,,,,,,,,,,,,,,,,,,,,,,,,,,,,,,,,,,,,,,,,,,,,,,,,,,,,,,,,,,,,,,,,,,,,,,
,,,,,,60df0768b4b2fa71f584a127,62c53ab6fcc75bafadb0f10e,2022-07-06_09h33.26.033,Colour_Asymmetry_Pilot,2022.1.3,Win32,59.86231667,62c50e9c1127f2cd403a315f,0,146,146,128,1,onetwo,,,,,,,,,,,,,,,,,,,,,,,,,,,,,,,,,,,,,,,,,,,,,,,,,,,,,,,,,,,,,,,,,,,,,,,,,,,,,,,,,,,,,,,,,,,,,,,,,,,,,,,,,,,,,,,,,,,,,,,,,,,,,,,,,,,,,,,,,,,,,,,,,,,,,,,,,,,,,
,,,,,,60df0768b4b2fa71f584a127,62c53ab6fcc75bafadb0f10e,2022-07-06_09h33.26.033,Colour_Asymmetry_Pilot,2022.1.3,Win32,59.86231667,62c50e9c1127f2cd403a315f,0,147,147,9,1,onethree,,,,,,,,,,,,,,,,,,,,,,,,,,,,,,,,,,,,,,,,,,,,,,,,,,,,,,,,,,,,,,,,,,,,,,,,,,,,,,,,,,,,,,,,,,,,,,,,,,,,,,,,,,,,,,,,,,,,,,,,,,,,,,,,,,,,,,,,,,,,,,,,,,,,,,,,,,,,,
,,,,,,60df0768b4b2fa71f584a127,62c53ab6fcc75bafadb0f10e,2022-07-06_09h33.26.033,Colour_Asymmetry_Pilot,2022.1.3,Win32,59.86231667,62c50e9c1127f2cd403a315f,0,148,148,8,1,onetwo,,,,,,,,,,,,,,,,,,,,,,,,,,,,,,,,,,,,,,,,,,,,,,,,,,,,,,,,,,,,,,,,,,,,,,,,,,,,,,,,,,,,,,,,,,,,,,,,,,,,,,,,,,,,,,,,,,,,,,,,,,,,,,,,,,,,,,,,,,,,,,,,,,,,,,,,,,,,,
,,,,,,60df0768b4b2fa71f584a127,62c53ab6fcc75bafadb0f10e,2022-07-06_09h33.26.033,Colour_Asymmetry_Pilot,2022.1.3,Win32,59.86231667,62c50e9c1127f2cd403a315f,0,149,149,6,1,fourtwo,,,,,,,,,,,,,,,,,,,,,,,,,,,,,,,,,,,,,,,,,,,,,,,,,,,,,,,,,,,,,,,,,,,,,,,,,,,,,,,,,,,,,,,,,,,,,,,,,,,,,,,,,,,,,,,,,,,,,,,,,,,,,,,,,,,,,,,,,,,,,,,,,,,,,,,,,,,,,
,,,,,,60df0768b4b2fa71f584a127,62c53ab6fcc75bafadb0f10e,2022-07-06_09h33.26.033,Colour_Asymmetry_Pilot,2022.1.3,Win32,59.86231667,62c50e9c1127f2cd403a315f,0,150,150,94,1,fourtwo,,,,,,,,,,,,,,,,,,,,,,,,,,,,,,,,,,,,,,,,,,,,,,,,,,,,,,,,,,,,,,,,,,,,,,,,,,,,,,,,,,,,,,,,,,,,,,,,,,,,,,,,,,,,,,,,,,,,,,,,,,,,,,,,,,,,,,,,,,,,,,,,,,,,,,,,,,,,,
,,,,,,60df0768b4b2fa71f584a127,62c53ab6fcc75bafadb0f10e,2022-07-06_09h33.26.033,Colour_Asymmetry_Pilot,2022.1.3,Win32,59.86231667,62c50e9c1127f2cd403a315f,0,151,151,158,1,fourtwo,,,,,,,,,,,,,,,,,,,,,,,,,,,,,,,,,,,,,,,,,,,,,,,,,,,,,,,,,,,,,,,,,,,,,,,,,,,,,,,,,,,,,,,,,,,,,,,,,,,,,,,,,,,,,,,,,,,,,,,,,,,,,,,,,,,,,,,,,,,,,,,,,,,,,,,,,,,,,
,,,,,,60df0768b4b2fa71f584a127,62c53ab6fcc75bafadb0f10e,2022-07-06_09h33.26.033,Colour_Asymmetry_Pilot,2022.1.3,Win32,59.86231667,62c50e9c1127f2cd403a315f,0,152,152,57,1,onethree,,,,,,,,,,,,,,,,,,,,,,,,,,,,,,,,,,,,,,,,,,,,,,,,,,,,,,,,,,,,,,,,,,,,,,,,,,,,,,,,,,,,,,,,,,,,,,,,,,,,,,,,,,,,,,,,,,,,,,,,,,,,,,,,,,,,,,,,,,,,,,,,,,,,,,,,,,,,,
,,,,,,60df0768b4b2fa71f584a127,62c53ab6fcc75bafadb0f10e,2022-07-06_09h33.26.033,Colour_Asymmetry_Pilot,2022.1.3,Win32,59.86231667,62c50e9c1127f2cd403a315f,0,153,153,122,1,twoone,,,,,,,,,,,,,,,,,,,,,,,,,,,,,,,,,,,,,,,,,,,,,,,,,,,,,,,,,,,,,,,,,,,,,,,,,,,,,,,,,,,,,,,,,,,,,,,,,,,,,,,,,,,,,,,,,,,,,,,,,,,,,,,,,,,,,,,,,,,,,,,,,,,,,,,,,,,,,
,,,,,,60df0768b4b2fa71f584a127,62c53ab6fcc75bafadb0f10e,2022-07-06_09h33.26.033,Colour_Asymmetry_Pilot,2022.1.3,Win32,59.86231667,62c50e9c1127f2cd403a315f,0,154,154,72,1,onetwo,,,,,,,,,,,,,,,,,,,,,,,,,,,,,,,,,,,,,,,,,,,,,,,,,,,,,,,,,,,,,,,,,,,,,,,,,,,,,,,,,,,,,,,,,,,,,,,,,,,,,,,,,,,,,,,,,,,,,,,,,,,,,,,,,,,,,,,,,,,,,,,,,,,,,,,,,,,,,
,,,,,,60df0768b4b2fa71f584a127,62c53ab6fcc75bafadb0f10e,2022-07-06_09h33.26.033,Colour_Asymmetry_Pilot,2022.1.3,Win32,59.86231667,62c50e9c1127f2cd403a315f,0,155,155,98,1,twoone,,,,,,,,,,,,,,,,,,,,,,,,,,,,,,,,,,,,,,,,,,,,,,,,,,,,,,,,,,,,,,,,,,,,,,,,,,,,,,,,,,,,,,,,,,,,,,,,,,,,,,,,,,,,,,,,,,,,,,,,,,,,,,,,,,,,,,,,,,,,,,,,,,,,,,,,,,,,,
,,,,,,60df0768b4b2fa71f584a127,62c53ab6fcc75bafadb0f10e,2022-07-06_09h33.26.033,Colour_Asymmetry_Pilot,2022.1.3,Win32,59.86231667,62c50e9c1127f2cd403a315f,0,156,156,140,1,threeone,,,,,,,,,,,,,,,,,,,,,,,,,,,,,,,,,,,,,,,,,,,,,,,,,,,,,,,,,,,,,,,,,,,,,,,,,,,,,,,,,,,,,,,,,,,,,,,,,,,,,,,,,,,,,,,,,,,,,,,,,,,,,,,,,,,,,,,,,,,,,,,,,,,,,,,,,,,,,
,,,,,,60df0768b4b2fa71f584a127,62c53ab6fcc75bafadb0f10e,2022-07-06_09h33.26.033,Colour_Asymmetry_Pilot,2022.1.3,Win32,59.86231667,62c50e9c1127f2cd403a315f,0,157,157,123,1,twofour,,,,,,,,,,,,,,,,,,,,,,,,,,,,,,,,,,,,,,,,,,,,,,,,,,,,,,,,,,,,,,,,,,,,,,,,,,,,,,,,,,,,,,,,,,,,,,,,,,,,,,,,,,,,,,,,,,,,,,,,,,,,,,,,,,,,,,,,,,,,,,,,,,,,,,,,,,,,,
,,,,,,60df0768b4b2fa71f584a127,62c53ab6fcc75bafadb0f10e,2022-07-06_09h33.26.033,Colour_Asymmetry_Pilot,2022.1.3,Win32,59.86231667,62c50e9c1127f2cd403a315f,0,158,158,67,1,twofour,,,,,,,,,,,,,,,,,,,,,,,,,,,,,,,,,,,,,,,,,,,,,,,,,,,,,,,,,,,,,,,,,,,,,,,,,,,,,,,,,,,,,,,,,,,,,,,,,,,,,,,,,,,,,,,,,,,,,,,,,,,,,,,,,,,,,,,,,,,,,,,,,,,,,,,,,,,,,
,,,,,,60df0768b4b2fa71f584a127,62c53ab6fcc75bafadb0f10e,2022-07-06_09h33.26.033,Colour_Asymmetry_Pilot,2022.1.3,Win32,59.86231667,62c50e9c1127f2cd403a315f,0,159,159,93,1,threefour,,,,,,,,,,,,,,,,,,,,,,,,,,,,,,,,,,,,,,,,,,,,,,,,,,,,,,,,,,,,,,,,,,,,,,,,,,,,,,,,,,,,,,,,,,,,,,,,,,,,,,,,,,,,,,,,,,,,,,,,,,,,,,,,,,,,,,,,,,,,,,,,,,,,,,,,,,,,,
,,,,,,60df0768b4b2fa71f584a127,62c53ab6fcc75bafadb0f10e,2022-07-06_09h33.26.033,Colour_Asymmetry_Pilot,2022.1.3,Win32,59.86231667,62c50e9c1127f2cd403a315f,0,160,160,97,1,onethree,,,,,,,,,,,,,,,,,,,,,,,,,,,,,,,,,,,,,,,,,,,,,,,,,,,,,,,,,,,,,,,,,,,,,,,,,,,,,,,,,,,,,,,,,,,,,,,,,,,,,,,,,,,,,,,,,,,,,,,,,,,,,,,,,,,,,,,,,,,,,,,,,,,,,,,,,,,,,
,,,,,,60df0768b4b2fa71f584a127,62c53ab6fcc75bafadb0f10e,2022-07-06_09h33.26.033,Colour_Asymmetry_Pilot,2022.1.3,Win32,59.86231667,62c50e9c1127f2cd403a315f,0,161,161,38,1,fourtwo,,,,,,,,,,,,,,,,,,,,,,,,,,,,,,,,,,,,,,,,,,,,,,,,,,,,,,,,,,,,,,,,,,,,,,,,,,,,,,,,,,,,,,,,,,,,,,,,,,,,,,,,,,,,,,,,,,,,,,,,,,,,,,,,,,,,,,,,,,,,,,,,,,,,,,,,,,,,,
,,,,,,60df0768b4b2fa71f584a127,62c53ab6fcc75bafadb0f10e,2022-07-06_09h33.26.033,Colour_Asymmetry_Pilot,2022.1.3,Win32,59.86231667,62c50e9c1127f2cd403a315f,,,,,,,space,6.4621,space,12.7893,space,21.5937,space,19.4286,space,5.4198,space,6.8784,"[-0.17659999999999998,-0.2864,-0.8354]",onetwo,"[0.30180000000000007,-0.7884,-0.9844]",3,16.5019,66,33,1,0,0,response1disk_5,8,-3,1,0,0,rectangle_8,8,-3,1,0,0,2,8,-3,1,0,0,0,0,0,0,1,,,,,,,,,,,,,,,,,,,,,,,,,,,,,,,,,,,,,,,,,,,,,,,,,,,,,,,,,,,,,,,,,,,,,,,,,,,,,,,,,,,,,,,,,,,,,,,,,,,,,,,,,,,,,,,,
,,,,,,60df0768b4b2fa71f584a127,62c53ab6fcc75bafadb0f10e,2022-07-06_09h33.26.033,Colour_Asymmetry_Pilot,2022.1.3,Win32,59.86231667,62c50e9c1127f2cd403a315f,,,,,,,,,,,,,,,,,,,"[-0.8118,-0.8198,-0.5452]",threeone,"[-0.4276,0.0038000000000000256,-0.3256]",-2,6.6312,-58,-55,1,0,0,response5disk_5,-16,12,1,0,0,rectangle_8,-16,12,1,0,0,2,-16,12,1,0,0,1,0,1,0,1,,,,,,,,,,,,,,,,,,,,,,,,,,,,,,,,,,,,,,,,,,,,,,,,,,,,,,,,,,,,,,,,,,,,,,,,,,,,,,,,,,,,,,,,,,,,,,,,,,,,,,,,,,,,,,,,
,,,,,,60df0768b4b2fa71f584a127,62c53ab6fcc75bafadb0f10e,2022-07-06_09h33.26.033,Colour_Asymmetry_Pilot,2022.1.3,Win32,59.86231667,62c50e9c1127f2cd403a315f,,,,,,,,,,,,,,,,,,,"[0.34099999999999997,0.5841999999999998,-0.9844]",threefour,"[0.22340000000000004,-0.9296,-0.7884]",-1,8.1141,-47,-68,1,0,0,response5disk_5,6,-5,1,0,0,rectangle_8,6,-5,1,0,0,2,6,-5,1,0,0,2,0,2,0,1,,,,,,,,,,,,,,,,,,,,,,,,,,,,,,,,,,,,,,,,,,,,,,,,,,,,,,,,,,,,,,,,,,,,,,,,,,,,,,,,,,,,,,,,,,,,,,,,,,,,,,,,,,,,,,,,
,,,,,,60df0768b4b2fa71f584a127,62c53ab6fcc75bafadb0f10e,2022-07-06_09h33.26.033,Colour_Asymmetry_Pilot,2022.1.3,Win32,59.86231667,62c50e9c1127f2cd403a315f,,,,,,,,,,,,,,,,,,,"[-0.4276,0.0038000000000000256,-0.3256]",twoone,"[0.34099999999999997,0.5841999999999998,-0.9844]",2,10.2467,92,-54,1,0,0,response3disk_5,-9,-1,1,0,0,rectangle_8,-9,-1,1,0,0,2,-9,-1,1,0,0,3,0,3,0,1,,,,,,,,,,,,,,,,,,,,,,,,,,,,,,,,,,,,,,,,,,,,,,,,,,,,,,,,,,,,,,,,,,,,,,,,,,,,,,,,,,,,,,,,,,,,,,,,,,,,,,,,,,,,,,,,
,,,,,,60df0768b4b2fa71f584a127,62c53ab6fcc75bafadb0f10e,2022-07-06_09h33.26.033,Colour_Asymmetry_Pilot,2022.1.3,Win32,59.86231667,62c50e9c1127f2cd403a315f,,,,,,,,,,,,,,,,,,,"[0.11359999999999992,0.6312,0.5213999999999999]",threeone,"[0.7646000000000002,0.07440000000000002,0.2704]",-2,25.3082,-45,-28,1,0,0,response5disk_5,18,5,1,0,0,rectangle_8,18,5,1,0,0,2,18,5,1,0,0,4,0,4,0,1,,,,,,,,,,,,,,,,,,,,,,,,,,,,,,,,,,,,,,,,,,,,,,,,,,,,,,,,,,,,,,,,,,,,,,,,,,,,,,,,,,,,,,,,,,,,,,,,,,,,,,,,,,,,,,,,
,,,,,,60df0768b4b2fa71f584a127,62c53ab6fcc75bafadb0f10e,2022-07-06_09h33.26.033,Colour_Asymmetry_Pilot,2022.1.3,Win32,59.86231667,62c50e9c1127f2cd403a315f,,,,,,,,,,,,,,,,,,,"[0.9763999999999999,0.30979999999999985,-0.6786]",onetwo,"[-0.9766,-0.34920000000000007,0.2156]",-2,1.7496,-56,-51,1,0,0,response5disk_5,6,3,1,0,0,rectangle_8,76,75,1,0,0,2,-7,-5,1,0,0,5,0,5,0,1,response1disk_7,6,rectangle_4,,,,,,,,,,,,,,,,,,,,,,,,,,,,,,,,,,,,,,,,,,,,,,,,,,,,,,,,,,,,,,,,,,,,,,,,,,,,,,,,,,,,,,,,,,,,,,,,,,,,,,,,,,,,,
,,,,,,60df0768b4b2fa71f584a127,62c53ab6fcc75bafadb0f10e,2022-07-06_09h33.26.033,Colour_Asymmetry_Pilot,2022.1.3,Win32,59.86231667,62c50e9c1127f2cd403a315f,,,,,,,,,,,,,,,,,,,"[0.30180000000000007,-0.7884,-0.9844]",threeone,"[0.8115999999999999,-0.0040000000000000036,-0.09819999999999995]",3,2.3489,75,51,1,0,0,response1disk_5,13,8,1,0,0,rectangle_8,13,8,1,0,0,2,13,8,1,0,0,6,0,6,0,1,,,,,,,,,,,,,,,,,,,,,,,,,,,,,,,,,,,,,,,,,,,,,,,,,,,,,,,,,,,,,,,,,,,,,,,,,,,,,,,,,,,,,,,,,,,,,,,,,,,,,,,,,,,,,,,,
,,,,,,60df0768b4b2fa71f584a127,62c53ab6fcc75bafadb0f10e,2022-07-06_09h33.26.033,Colour_Asymmetry_Pilot,2022.1.3,Win32,59.86231667,62c50e9c1127f2cd403a315f,,,,,,,,,,,,,,,,,,,,fourthree,,-1,1.5003,,,,,,,,,,,,,,,,,,,,,,,,,,,,,,,,space,3.9395,"[-0.10599999999999998,-0.15300000000000002,0.15280000000000005]","[-0.5688,-0.08239999999999992,-0.1844]",-40,-92,1,0,0,response5disk,3,-2,1,0,0,rectangle,3,-2,1,0,0,,2,0.001,0,3,-2,1,0,0,0,0,0,69,1,69,first,,,,,,,,,,,,,,,,,,,,,,,,,,,,,,,,,,,,,,,,,,,,,,,,,,,,,,,,,,,,,,,,,,,,,,,,
,,,,,,60df0768b4b2fa71f584a127,62c53ab6fcc75bafadb0f10e,2022-07-06_09h33.26.033,Colour_Asymmetry_Pilot,2022.1.3,Win32,59.86231667,62c50e9c1127f2cd403a315f,,,,,,,,,,,,,,,,,,,,threefour,,-1,3.1158,,,,,,,,,,,,,,,,,,,,,,,,,,,,,,,,,,"[0.5449999999999999,-0.31000000000000005,-0.0354000000000001]","[0.7018,0.7176,0.6155999999999999]",-53,-76,1,0,0,response5disk,2,3,1,0,0,rectangle,2,3,1,0,0,,1,0.0008,0,2,3,1,0,0,0,1,1,75,1,75,first,,,,,,,,,,,,,,,,,,,,,,,,,,,,,,,,,,,,,,,,,,,,,,,,,,,,,,,,,,,,,,,,,,,,,,,,
,,,,,,60df0768b4b2fa71f584a127,62c53ab6fcc75bafadb0f10e,2022-07-06_09h33.26.033,Colour_Asymmetry_Pilot,2022.1.3,Win32,59.86231667,62c50e9c1127f2cd403a315f,,,,,,,,,,,,,,,,,,,,threefour,,-1,0.5667,,,,,,,,,,,,,,,,,,,,,,,,,,,,,,,,,,"[-0.4668,-0.8746,-0.2942]","[-0.4746,-0.0354000000000001,0.5449999999999999]",-67,-81,1,0,0,response5disk,0,18,1,0,0,rectangle,0,18,1,0,0,,3,0.0006,0,0,18,1,0,0,0,2,2,20,1,20,first,,,,,,,,,,,,,,,,,,,,,,,,,,,,,,,,,,,,,,,,,,,,,,,,,,,,,,,,,,,,,,,,,,,,,,,,
,,,,,,60df0768b4b2fa71f584a127,62c53ab6fcc75bafadb0f10e,2022-07-06_09h33.26.033,Colour_Asymmetry_Pilot,2022.1.3,Win32,59.86231667,62c50e9c1127f2cd403a315f,,,,,,,,,,,,,,,,,,,,twofour,,-1,0.4994,,,,,,,,,,,,,,,,,,,,,,,,,,,,,,,,,,"[0.9213999999999998,0.6391999999999998,-0.9922]","[0.7802,-0.23140000000000005,-0.20799999999999996]",-61,-98,1,0,0,response5disk,-7,-12,1,0,0,rectangle,80,-45,1,0,0,2,3,3.3834,1,3,2,1,0,0,0,3,3,104,1,23,second,response3disk_3,rectangle,,,,,,,,,,,,,,,,,,,,,,,,,,,,,,,,,,,,,,,,,,,,,,,,,,,,,,,,,,,,,,,,,,,,,,
,,,,,,60df0768b4b2fa71f584a127,62c53ab6fcc75bafadb0f10e,2022-07-06_09h33.26.033,Colour_Asymmetry_Pilot,2022.1.3,Win32,59.86231667,62c50e9c1127f2cd403a315f,,,,,,,,,,,,,,,,,,,,onethree,,3,0.7668,,,,,,,,,,,,,,,,,,,,,,,,,,,,,,,,,,"[0.2784,-0.31000000000000005,-0.5452]","[0.23120000000000007,-0.7726,-0.34120000000000006]",81,68,1,0,0,response1disk,-5,2,1,0,0,rectangle,-5,2,1,0,0,2,1,0.0007,0,-5,2,1,0,0,0,4,4,37,1,37,first,,,,,,,,,,,,,,,,,,,,,,,,,,,,,,,,,,,,,,,,,,,,,,,,,,,,,,,,,,,,,,,,,,,,,,,,
,,,,,,60df0768b4b2fa71f584a127,62c53ab6fcc75bafadb0f10e,2022-07-06_09h33.26.033,Colour_Asymmetry_Pilot,2022.1.3,Win32,59.86231667,62c50e9c1127f2cd403a315f,,,,,,,,,,,,,,,,,,,,threefour,,-1,0.6666,,,,,,,,,,,,,,,,,,,,,,,,,,,,,,,,,,"[-0.7412000000000001,-0.08239999999999992,-0.6864]","[0.37240000000000006,-0.050999999999999934,-0.5216]",-81,-82,1,0,0,response5disk,24,-2,1,0,0,rectangle,24,-2,1,0,0,2,1,0.0004,0,24,-2,1,0,0,0,5,5,137,1,56,second,,,,,,,,,,,,,,,,,,,,,,,,,,,,,,,,,,,,,,,,,,,,,,,,,,,,,,,,,,,,,,,,,,,,,,,,
,,,,,,60df0768b4b2fa71f584a127,62c53ab6fcc75bafadb0f10e,2022-07-06_09h33.26.033,Colour_Asymmetry_Pilot,2022.1.3,Win32,59.86231667,62c50e9c1127f2cd403a315f,,,,,,,,,,,,,,,,,,,,twoone,,-4,3.5317,,,,,,,,,,,,,,,,,,,,,,,,,,,,,,,,,,"[-0.4668,-0.8746,-0.2942]","[0.9372,0.9450000000000001,0.8980000000000001]",-46,47,1,0,0,response7disk,5,1,1,0,0,rectangle,5,1,1,0,0,2,2,0.0007,0,5,1,1,0,0,0,6,6,38,1,38,first,,,,,,,,,,,,,,,,,,,,,,,,,,,,,,,,,,,,,,,,,,,,,,,,,,,,,,,,,,,,,,,,,,,,,,,,
,,,,,,60df0768b4b2fa71f584a127,62c53ab6fcc75bafadb0f10e,2022-07-06_09h33.26.033,Colour_Asymmetry_Pilot,2022.1.3,Win32,59.86231667,62c50e9c1127f2cd403a315f,,,,,,,,,,,,,,,,,,,,onetwo,,1,1.2162,,,,,,,,,,,,,,,,,,,,,,,,,,,,,,,,,,"[0.05879999999999996,0.2784,0.5841999999999998]","[-0.20799999999999996,-0.655,-0.01980000000000004]",57,-101,1,0,0,response3disk,13,1,1,0,0,rectangle,90,-79,1,0,0,2,3,2.2649,1,4,3,1,0,0,0,7,7,97,1,16,second,response3disk_3,rectangle,,,,,,,,,,,,,,,,,,,,,,,,,,,,,,,,,,,,,,,,,,,,,,,,,,,,,,,,,,,,,,,,,,,,,,
,,,,,,60df0768b4b2fa71f584a127,62c53ab6fcc75bafadb0f10e,2022-07-06_09h33.26.033,Colour_Asymmetry_Pilot,2022.1.3,Win32,59.86231667,62c50e9c1127f2cd403a315f,,,,,,,,,,,,,,,,,,,,threefour,,3,0.9996,,,,,,,,,,,,,,,,,,,,,,,,,,,,,,,,,,"[0.18419999999999992,-0.4276,-0.404]","[0.9763999999999999,-0.1137999999999999,-0.6314]",65,59,1,0,0,response1disk,14,-6,1,0,0,rectangle,14,-6,1,0,0,2,1,0.0007,0,14,-6,1,0,0,0,8,8,60,1,60,first,,,,,,,,,,,,,,,,,,,,,,,,,,,,,,,,,,,,,,,,,,,,,,,,,,,,,,,,,,,,,,,,,,,,,,,,
,,,,,,60df0768b4b2fa71f584a127,62c53ab6fcc75bafadb0f10e,2022-07-06_09h33.26.033,Colour_Asymmetry_Pilot,2022.1.3,Win32,59.86231667,62c50e9c1127f2cd403a315f,,,,,,,,,,,,,,,,,,,,threeone,,1,6.8643,,,,,,,,,,,,,,,,,,,,,,,,,,,,,,,,,,"[0.9842,0.7409999999999999,-0.6628000000000001]","[0.05879999999999996,0.2784,0.5841999999999998]",39,-77,1,0,0,response3disk,11,-9,1,0,0,rectangle,11,-9,1,0,0,2,3,0.0006,0,11,-9,1,0,0,0,9,9,10,1,10,first,,,,,,,,,,,,,,,,,,,,,,,,,,,,,,,,,,,,,,,,,,,,,,,,,,,,,,,,,,,,,,,,,,,,,,,,
,,,,,,60df0768b4b2fa71f584a127,62c53ab6fcc75bafadb0f10e,2022-07-06_09h33.26.033,Colour_Asymmetry_Pilot,2022.1.3,Win32,59.86231667,62c50e9c1127f2cd403a315f,,,,,,,,,,,,,,,,,,,,onetwo,,-1,1.4827,,,,,,,,,,,,,,,,,,,,,,,,,,,,,,,,,,"[0.8274000000000001,-0.5844,-0.9452]","[-0.10599999999999998,-0.15300000000000002,0.15280000000000005]",-67,-78,1,0,0,response5disk,-15,-8,1,0,0,rectangle,-15,-8,1,0,0,2,3,0.0002,0,-15,-8,1,0,0,0,10,10,24,1,24,first,,,,,,,,,,,,,,,,,,,,,,,,,,,,,,,,,,,,,,,,,,,,,,,,,,,,,,,,,,,,,,,,,,,,,,,,
,,,,,,60df0768b4b2fa71f584a127,62c53ab6fcc75bafadb0f10e,2022-07-06_09h33.26.033,Colour_Asymmetry_Pilot,2022.1.3,Win32,59.86231667,62c50e9c1127f2cd403a315f,,,,,,,,,,,,,,,,,,,,onethree,,-1,0.5665,,,,,,,,,,,,,,,,,,,,,,,,,,,,,,,,,,"[-0.48240000000000005,0.3175999999999999,0.2156]","[0.9842,0.7409999999999999,-0.6628000000000001]",-62,-70,1,0,0,response5disk,-9,-2,1,0,0,rectangle,-9,-2,1,0,0,2,1,0.0007,0,-9,-2,1,0,0,0,11,11,93,1,12,second,,,,,,,,,,,,,,,,,,,,,,,,,,,,,,,,,,,,,,,,,,,,,,,,,,,,,,,,,,,,,,,,,,,,,,,,
,,,,,,60df0768b4b2fa71f584a127,62c53ab6fcc75bafadb0f10e,2022-07-06_09h33.26.033,Colour_Asymmetry_Pilot,2022.1.3,Win32,59.86231667,62c50e9c1127f2cd403a315f,,,,,,,,,,,,,,,,,,,,onethree,,-3,2.2991,,,,,,,,,,,,,,,,,,,,,,,,,,,,,,,,,,"[-0.24719999999999998,0.5213999999999999,-0.12959999999999994]","[-0.09019999999999995,0.44300000000000006,0.5371999999999999]",-67,63,1,0,0,response7disk,-6,6,1,0,0,rectangle,-6,6,1,0,0,2,2,0.0008,0,-6,6,1,0,0,0,12,12,139,1,58,second,,,,,,,,,,,,,,,,,,,,,,,,,,,,,,,,,,,,,,,,,,,,,,,,,,,,,,,,,,,,,,,,,,,,,,,,
,,,,,,60df0768b4b2fa71f584a127,62c53ab6fcc75bafadb0f10e,2022-07-06_09h33.26.033,Colour_Asymmetry_Pilot,2022.1.3,Win32,59.86231667,62c50e9c1127f2cd403a315f,,,,,,,,,,,,,,,,,,,,threeone,,-4,0.5997,,,,,,,,,,,,,,,,,,,,,,,,,,,,,,,,,,"[-0.24719999999999998,0.5213999999999999,-0.12959999999999994]","[0.9763999999999999,0.8588,-0.05900000000000005]",-52,64,1,0,0,response7disk,2,5,1,0,0,rectangle,2,5,1,0,0,2,1,0.0006,0,2,5,1,0,0,0,13,13,115,1,34,second,,,,,,,,,,,,,,,,,,,,,,,,,,,,,,,,,,,,,,,,,,,,,,,,,,,,,,,,,,,,,,,,,,,,,,,,
,,,,,,60df0768b4b2fa71f584a127,62c53ab6fcc75bafadb0f10e,2022-07-06_09h33.26.033,Colour_Asymmetry_Pilot,2022.1.3,Win32,59.86231667,62c50e9c1127f2cd403a315f,,,,,,,,,,,,,,,,,,,,onethree,,-1,0.5332,,,,,,,,,,,,,,,,,,,,,,,,,,,,,,,,,,"[0.22340000000000004,-0.9296,-0.7884]","[0.11359999999999992,0.6312,0.5213999999999999]",-49,-79,1,0,0,response5disk,3,2,1,0,0,rectangle,55,-69,1,0,0,1,3,1.2823,1,13,0,1,0,0,0,14,14,161,1,80,second,response3disk_3,rectangle,,,,,,,,,,,,,,,,,,,,,,,,,,,,,,,,,,,,,,,,,,,,,,,,,,,,,,,,,,,,,,,,,,,,,,
,,,,,,60df0768b4b2fa71f584a127,62c53ab6fcc75bafadb0f10e,2022-07-06_09h33.26.033,Colour_Asymmetry_Pilot,2022.1.3,Win32,59.86231667,62c50e9c1127f2cd403a315f,,,,,,,,,,,,,,,,,,,,fourtwo,,-2,3.2656,,,,,,,,,,,,,,,,,,,,,,,,,,,,,,,,,,"[-0.10599999999999998,-0.15300000000000002,0.15280000000000005]","[0.8274000000000001,-0.5844,-0.9452]",-61,-49,1,0,0,response5disk,-3,-5,1,0,0,rectangle,-3,-5,1,0,0,1,1,0.0007,0,-3,-5,1,0,0,0,15,15,105,1,24,second,,,,,,,,,,,,,,,,,,,,,,,,,,,,,,,,,,,,,,,,,,,,,,,,,,,,,,,,,,,,,,,,,,,,,,,,
,,,,,,60df0768b4b2fa71f584a127,62c53ab6fcc75bafadb0f10e,2022-07-06_09h33.26.033,Colour_Asymmetry_Pilot,2022.1.3,Win32,59.86231667,62c50e9c1127f2cd403a315f,,,,,,,,,,,,,,,,,,,,onetwo,,1,3.3322,,,,,,,,,,,,,,,,,,,,,,,,,,,,,,,,,,"[0.23920000000000008,0.2704,0.16060000000000008]","[0.5528,0.7409999999999999,-0.71]",68,-80,1,0,0,response3disk,5,-15,1,0,0,rectangle,5,-15,1,0,0,1,2,0.0006,0,5,-15,1,0,0,0,16,16,99,1,18,second,,,,,,,,,,,,,,,,,,,,,,,,,,,,,,,,,,,,,,,,,,,,,,,,,,,,,,,,,,,,,,,,,,,,,,,,
,,,,,,60df0768b4b2fa71f584a127,62c53ab6fcc75bafadb0f10e,2022-07-06_09h33.26.033,Colour_Asymmetry_Pilot,2022.1.3,Win32,59.86231667,62c50e9c1127f2cd403a315f,,,,,,,,,,,,,,,,,,,,threefour,,-1,0.4328,,,,,,,,,,,,,,,,,,,,,,,,,,,,,,,,,,"[-0.09019999999999995,0.44300000000000006,0.5371999999999999]","[-0.24719999999999998,0.5213999999999999,-0.12959999999999994]",-48,-75,1,0,0,response5disk,10,13,1,0,0,rectangle,10,13,1,0,0,1,2,1E-04,0,10,13,1,0,0,0,17,17,58,1,58,first,,,,,,,,,,,,,,,,,,,,,,,,,,,,,,,,,,,,,,,,,,,,,,,,,,,,,,,,,,,,,,,,,,,,,,,,
