trials.thisRepN,trials.thisTrialN,trials.thisN,trials.thisIndex,trials.ran,Colourcodes,participant,session,date,expName,psychopyVersion,OS,frameRate,study_id,trials_4.thisRepN,trials_4.thisTrialN,trials_4.thisN,trials_4.thisIndex,trials_4.ran,StimulusPos,key_resp.keys,key_resp.rt,key_resp_2.keys,key_resp_2.rt,key_resp_15.keys,key_resp_15.rt,key_resp_17.keys,key_resp_17.rt,key_resp_9.keys,key_resp_9.rt,key_resp_10.keys,key_resp_10.rt,Circle1_col,Ecc,Circle2_col,similarity,response_time,mouse_5.x,mouse_5.y,mouse_5.leftButton,mouse_5.midButton,mouse_5.rightButton,mouse_5.clicked_name,mouse_10.x,mouse_10.y,mouse_10.leftButton,mouse_10.midButton,mouse_10.rightButton,mouse_10.clicked_name,mouse_7.x,mouse_7.y,mouse_7.leftButton,mouse_7.midButton,mouse_7.rightButton,mouse_7.clicked_name,catchprac,catchnumberprac,mouse_6.x,mouse_6.y,mouse_6.leftButton,mouse_6.midButton,mouse_6.rightButton,mouse_6.clicked_name,duringprac.thisRepN,duringprac.thisTrialN,duringprac.thisN,duringprac.thisIndex,duringprac.ran,key_resp_22.keys,key_resp_22.rt,Circle1_colour,Circle2_colour,mouse.x,mouse.y,mouse.leftButton,mouse.midButton,mouse.rightButton,mouse.clicked_name,mouse_2.x,mouse_2.y,mouse_2.leftButton,mouse_2.midButton,mouse_2.rightButton,mouse_2.clicked_name,mouse_3.x,mouse_3.y,mouse_3.leftButton,mouse_3.midButton,mouse_3.rightButton,catchresponse,catchnumber,response_time_catch,Catch,mouse_11.x,mouse_11.y,mouse_11.leftButton,mouse_11.midButton,mouse_11.rightButton,trials_2.thisRepN,trials_2.thisTrialN,trials_2.thisN,trials_2.thisIndex,trials_2.ran,Colourpair,Temporder,mouse_3.clicked_name,mouse_11.clicked_name,trials_3.thisRepN,trials_3.thisTrialN,trials_3.thisN,trials_3.thisIndex,trials_3.ran,key_resp_instr_Ishi.keys,key_resp_instr_Ishi.rt,Ishi_trial_keyresp.keys,Ishi_textbox.text,Ishi_mouse.x,Ishi_mouse.y,Ishi_mouse.leftButton,Ishi_mouse.midButton,Ishi_mouse.rightButton,Ishi_mouse.clicked_name,Ishi_loop.thisRepN,Ishi_loop.thisTrialN,Ishi_loop.thisN,Ishi_loop.thisIndex,Ishi_loop.ran,imageaddress,textbox.text,mouse_4.x,mouse_4.y,mouse_4.leftButton,mouse_4.midButton,mouse_4.rightButton,mouse_4.clicked_name,textbox_2.text,mouse_8.x,mouse_8.y,mouse_8.leftButton,mouse_8.midButton,mouse_8.rightButton,mouse_8.clicked_name,textbox_3.text,mouse_9.x,mouse_9.y,mouse_9.leftButton,mouse_9.midButton,mouse_9.rightButton,mouse_9.clicked_name,textbox_4.text,mouse_12.x,mouse_12.y,mouse_12.leftButton,mouse_12.midButton,mouse_12.rightButton,mouse_12.clicked_name,textbox_5.text,mouse_13.x,mouse_13.y,mouse_13.leftButton,mouse_13.midButton,mouse_13.rightButton,mouse_13.clicked_name,textbox_6.text,mouse_14.x,mouse_14.y,mouse_14.leftButton,mouse_14.midButton,mouse_14.rightButton,mouse_14.clicked_name,textbox_7.text,mouse_15.x,mouse_15.y,mouse_15.leftButton,mouse_15.midButton,mouse_15.rightButton,mouse_15.clicked_name
0,0,0,70,1,,615200d54efc832849db2259,62c539ef07160c13dfb487cd,2022-07-06_09h30.51.568,Colour_Asymmetry_Pilot,2022.1.3,Win32,60.03121623,62c50e9c1127f2cd403a315f,,,,,,,,,,,,,,,,,,,,,,,,,,,,,,,,,,,,,,,,,,,,,,,,,,,,,,,,,,,,,,,,,,,,,,,,,,,,,,,,,,,,,,,,,,,,,,,,,,,,,,,,,,,,,,,,,,,,,,,,,,,,,,,,,,,,,,,,,,,,,,,,,,,,,,,,,,,,,,,,,,,
0,1,1,85,1,,615200d54efc832849db2259,62c539ef07160c13dfb487cd,2022-07-06_09h30.51.568,Colour_Asymmetry_Pilot,2022.1.3,Win32,60.03121623,62c50e9c1127f2cd403a315f,,,,,,,,,,,,,,,,,,,,,,,,,,,,,,,,,,,,,,,,,,,,,,,,,,,,,,,,,,,,,,,,,,,,,,,,,,,,,,,,,,,,,,,,,,,,,,,,,,,,,,,,,,,,,,,,,,,,,,,,,,,,,,,,,,,,,,,,,,,,,,,,,,,,,,,,,,,,,,,,,,,
0,2,2,80,1,,615200d54efc832849db2259,62c539ef07160c13dfb487cd,2022-07-06_09h30.51.568,Colour_Asymmetry_Pilot,2022.1.3,Win32,60.03121623,62c50e9c1127f2cd403a315f,,,,,,,,,,,,,,,,,,,,,,,,,,,,,,,,,,,,,,,,,,,,,,,,,,,,,,,,,,,,,,,,,,,,,,,,,,,,,,,,,,,,,,,,,,,,,,,,,,,,,,,,,,,,,,,,,,,,,,,,,,,,,,,,,,,,,,,,,,,,,,,,,,,,,,,,,,,,,,,,,,,
0,3,3,39,1,,615200d54efc832849db2259,62c539ef07160c13dfb487cd,2022-07-06_09h30.51.568,Colour_Asymmetry_Pilot,2022.1.3,Win32,60.03121623,62c50e9c1127f2cd403a315f,,,,,,,,,,,,,,,,,,,,,,,,,,,,,,,,,,,,,,,,,,,,,,,,,,,,,,,,,,,,,,,,,,,,,,,,,,,,,,,,,,,,,,,,,,,,,,,,,,,,,,,,,,,,,,,,,,,,,,,,,,,,,,,,,,,,,,,,,,,,,,,,,,,,,,,,,,,,,,,,,,,
0,4,4,10,1,,615200d54efc832849db2259,62c539ef07160c13dfb487cd,2022-07-06_09h30.51.568,Colour_Asymmetry_Pilot,2022.1.3,Win32,60.03121623,62c50e9c1127f2cd403a315f,,,,,,,,,,,,,,,,,,,,,,,,,,,,,,,,,,,,,,,,,,,,,,,,,,,,,,,,,,,,,,,,,,,,,,,,,,,,,,,,,,,,,,,,,,,,,,,,,,,,,,,,,,,,,,,,,,,,,,,,,,,,,,,,,,,,,,,,,,,,,,,,,,,,,,,,,,,,,,,,,,,
0,5,5,68,1,,615200d54efc832849db2259,62c539ef07160c13dfb487cd,2022-07-06_09h30.51.568,Colour_Asymmetry_Pilot,2022.1.3,Win32,60.03121623,62c50e9c1127f2cd403a315f,,,,,,,,,,,,,,,,,,,,,,,,,,,,,,,,,,,,,,,,,,,,,,,,,,,,,,,,,,,,,,,,,,,,,,,,,,,,,,,,,,,,,,,,,,,,,,,,,,,,,,,,,,,,,,,,,,,,,,,,,,,,,,,,,,,,,,,,,,,,,,,,,,,,,,,,,,,,,,,,,,,
0,6,6,69,1,,615200d54efc832849db2259,62c539ef07160c13dfb487cd,2022-07-06_09h30.51.568,Colour_Asymmetry_Pilot,2022.1.3,Win32,60.03121623,62c50e9c1127f2cd403a315f,,,,,,,,,,,,,,,,,,,,,,,,,,,,,,,,,,,,,,,,,,,,,,,,,,,,,,,,,,,,,,,,,,,,,,,,,,,,,,,,,,,,,,,,,,,,,,,,,,,,,,,,,,,,,,,,,,,,,,,,,,,,,,,,,,,,,,,,,,,,,,,,,,,,,,,,,,,,,,,,,,,
0,7,7,90,1,,615200d54efc832849db2259,62c539ef07160c13dfb487cd,2022-07-06_09h30.51.568,Colour_Asymmetry_Pilot,2022.1.3,Win32,60.03121623,62c50e9c1127f2cd403a315f,,,,,,,,,,,,,,,,,,,,,,,,,,,,,,,,,,,,,,,,,,,,,,,,,,,,,,,,,,,,,,,,,,,,,,,,,,,,,,,,,,,,,,,,,,,,,,,,,,,,,,,,,,,,,,,,,,,,,,,,,,,,,,,,,,,,,,,,,,,,,,,,,,,,,,,,,,,,,,,,,,,
0,8,8,7,1,,615200d54efc832849db2259,62c539ef07160c13dfb487cd,2022-07-06_09h30.51.568,Colour_Asymmetry_Pilot,2022.1.3,Win32,60.03121623,62c50e9c1127f2cd403a315f,,,,,,,,,,,,,,,,,,,,,,,,,,,,,,,,,,,,,,,,,,,,,,,,,,,,,,,,,,,,,,,,,,,,,,,,,,,,,,,,,,,,,,,,,,,,,,,,,,,,,,,,,,,,,,,,,,,,,,,,,,,,,,,,,,,,,,,,,,,,,,,,,,,,,,,,,,,,,,,,,,,
0,9,9,15,1,,615200d54efc832849db2259,62c539ef07160c13dfb487cd,2022-07-06_09h30.51.568,Colour_Asymmetry_Pilot,2022.1.3,Win32,60.03121623,62c50e9c1127f2cd403a315f,,,,,,,,,,,,,,,,,,,,,,,,,,,,,,,,,,,,,,,,,,,,,,,,,,,,,,,,,,,,,,,,,,,,,,,,,,,,,,,,,,,,,,,,,,,,,,,,,,,,,,,,,,,,,,,,,,,,,,,,,,,,,,,,,,,,,,,,,,,,,,,,,,,,,,,,,,,,,,,,,,,
0,10,10,9,1,,615200d54efc832849db2259,62c539ef07160c13dfb487cd,2022-07-06_09h30.51.568,Colour_Asymmetry_Pilot,2022.1.3,Win32,60.03121623,62c50e9c1127f2cd403a315f,,,,,,,,,,,,,,,,,,,,,,,,,,,,,,,,,,,,,,,,,,,,,,,,,,,,,,,,,,,,,,,,,,,,,,,,,,,,,,,,,,,,,,,,,,,,,,,,,,,,,,,,,,,,,,,,,,,,,,,,,,,,,,,,,,,,,,,,,,,,,,,,,,,,,,,,,,,,,,,,,,,
0,11,11,91,1,,615200d54efc832849db2259,62c539ef07160c13dfb487cd,2022-07-06_09h30.51.568,Colour_Asymmetry_Pilot,2022.1.3,Win32,60.03121623,62c50e9c1127f2cd403a315f,,,,,,,,,,,,,,,,,,,,,,,,,,,,,,,,,,,,,,,,,,,,,,,,,,,,,,,,,,,,,,,,,,,,,,,,,,,,,,,,,,,,,,,,,,,,,,,,,,,,,,,,,,,,,,,,,,,,,,,,,,,,,,,,,,,,,,,,,,,,,,,,,,,,,,,,,,,,,,,,,,,
0,12,12,86,1,,615200d54efc832849db2259,62c539ef07160c13dfb487cd,2022-07-06_09h30.51.568,Colour_Asymmetry_Pilot,2022.1.3,Win32,60.03121623,62c50e9c1127f2cd403a315f,,,,,,,,,,,,,,,,,,,,,,,,,,,,,,,,,,,,,,,,,,,,,,,,,,,,,,,,,,,,,,,,,,,,,,,,,,,,,,,,,,,,,,,,,,,,,,,,,,,,,,,,,,,,,,,,,,,,,,,,,,,,,,,,,,,,,,,,,,,,,,,,,,,,,,,,,,,,,,,,,,,
0,13,13,81,1,,615200d54efc832849db2259,62c539ef07160c13dfb487cd,2022-07-06_09h30.51.568,Colour_Asymmetry_Pilot,2022.1.3,Win32,60.03121623,62c50e9c1127f2cd403a315f,,,,,,,,,,,,,,,,,,,,,,,,,,,,,,,,,,,,,,,,,,,,,,,,,,,,,,,,,,,,,,,,,,,,,,,,,,,,,,,,,,,,,,,,,,,,,,,,,,,,,,,,,,,,,,,,,,,,,,,,,,,,,,,,,,,,,,,,,,,,,,,,,,,,,,,,,,,,,,,,,,,
0,14,14,8,1,,615200d54efc832849db2259,62c539ef07160c13dfb487cd,2022-07-06_09h30.51.568,Colour_Asymmetry_Pilot,2022.1.3,Win32,60.03121623,62c50e9c1127f2cd403a315f,,,,,,,,,,,,,,,,,,,,,,,,,,,,,,,,,,,,,,,,,,,,,,,,,,,,,,,,,,,,,,,,,,,,,,,,,,,,,,,,,,,,,,,,,,,,,,,,,,,,,,,,,,,,,,,,,,,,,,,,,,,,,,,,,,,,,,,,,,,,,,,,,,,,,,,,,,,,,,,,,,,
0,15,15,13,1,,615200d54efc832849db2259,62c539ef07160c13dfb487cd,2022-07-06_09h30.51.568,Colour_Asymmetry_Pilot,2022.1.3,Win32,60.03121623,62c50e9c1127f2cd403a315f,,,,,,,,,,,,,,,,,,,,,,,,,,,,,,,,,,,,,,,,,,,,,,,,,,,,,,,,,,,,,,,,,,,,,,,,,,,,,,,,,,,,,,,,,,,,,,,,,,,,,,,,,,,,,,,,,,,,,,,,,,,,,,,,,,,,,,,,,,,,,,,,,,,,,,,,,,,,,,,,,,,
0,16,16,19,1,,615200d54efc832849db2259,62c539ef07160c13dfb487cd,2022-07-06_09h30.51.568,Colour_Asymmetry_Pilot,2022.1.3,Win32,60.03121623,62c50e9c1127f2cd403a315f,,,,,,,,,,,,,,,,,,,,,,,,,,,,,,,,,,,,,,,,,,,,,,,,,,,,,,,,,,,,,,,,,,,,,,,,,,,,,,,,,,,,,,,,,,,,,,,,,,,,,,,,,,,,,,,,,,,,,,,,,,,,,,,,,,,,,,,,,,,,,,,,,,,,,,,,,,,,,,,,,,,
0,17,17,84,1,,615200d54efc832849db2259,62c539ef07160c13dfb487cd,2022-07-06_09h30.51.568,Colour_Asymmetry_Pilot,2022.1.3,Win32,60.03121623,62c50e9c1127f2cd403a315f,,,,,,,,,,,,,,,,,,,,,,,,,,,,,,,,,,,,,,,,,,,,,,,,,,,,,,,,,,,,,,,,,,,,,,,,,,,,,,,,,,,,,,,,,,,,,,,,,,,,,,,,,,,,,,,,,,,,,,,,,,,,,,,,,,,,,,,,,,,,,,,,,,,,,,,,,,,,,,,,,,,
0,18,18,32,1,,615200d54efc832849db2259,62c539ef07160c13dfb487cd,2022-07-06_09h30.51.568,Colour_Asymmetry_Pilot,2022.1.3,Win32,60.03121623,62c50e9c1127f2cd403a315f,,,,,,,,,,,,,,,,,,,,,,,,,,,,,,,,,,,,,,,,,,,,,,,,,,,,,,,,,,,,,,,,,,,,,,,,,,,,,,,,,,,,,,,,,,,,,,,,,,,,,,,,,,,,,,,,,,,,,,,,,,,,,,,,,,,,,,,,,,,,,,,,,,,,,,,,,,,,,,,,,,,
0,19,19,49,1,,615200d54efc832849db2259,62c539ef07160c13dfb487cd,2022-07-06_09h30.51.568,Colour_Asymmetry_Pilot,2022.1.3,Win32,60.03121623,62c50e9c1127f2cd403a315f,,,,,,,,,,,,,,,,,,,,,,,,,,,,,,,,,,,,,,,,,,,,,,,,,,,,,,,,,,,,,,,,,,,,,,,,,,,,,,,,,,,,,,,,,,,,,,,,,,,,,,,,,,,,,,,,,,,,,,,,,,,,,,,,,,,,,,,,,,,,,,,,,,,,,,,,,,,,,,,,,,,
0,20,20,61,1,,615200d54efc832849db2259,62c539ef07160c13dfb487cd,2022-07-06_09h30.51.568,Colour_Asymmetry_Pilot,2022.1.3,Win32,60.03121623,62c50e9c1127f2cd403a315f,,,,,,,,,,,,,,,,,,,,,,,,,,,,,,,,,,,,,,,,,,,,,,,,,,,,,,,,,,,,,,,,,,,,,,,,,,,,,,,,,,,,,,,,,,,,,,,,,,,,,,,,,,,,,,,,,,,,,,,,,,,,,,,,,,,,,,,,,,,,,,,,,,,,,,,,,,,,,,,,,,,
0,21,21,64,1,,615200d54efc832849db2259,62c539ef07160c13dfb487cd,2022-07-06_09h30.51.568,Colour_Asymmetry_Pilot,2022.1.3,Win32,60.03121623,62c50e9c1127f2cd403a315f,,,,,,,,,,,,,,,,,,,,,,,,,,,,,,,,,,,,,,,,,,,,,,,,,,,,,,,,,,,,,,,,,,,,,,,,,,,,,,,,,,,,,,,,,,,,,,,,,,,,,,,,,,,,,,,,,,,,,,,,,,,,,,,,,,,,,,,,,,,,,,,,,,,,,,,,,,,,,,,,,,,
0,22,22,29,1,,615200d54efc832849db2259,62c539ef07160c13dfb487cd,2022-07-06_09h30.51.568,Colour_Asymmetry_Pilot,2022.1.3,Win32,60.03121623,62c50e9c1127f2cd403a315f,,,,,,,,,,,,,,,,,,,,,,,,,,,,,,,,,,,,,,,,,,,,,,,,,,,,,,,,,,,,,,,,,,,,,,,,,,,,,,,,,,,,,,,,,,,,,,,,,,,,,,,,,,,,,,,,,,,,,,,,,,,,,,,,,,,,,,,,,,,,,,,,,,,,,,,,,,,,,,,,,,,
0,23,23,33,1,,615200d54efc832849db2259,62c539ef07160c13dfb487cd,2022-07-06_09h30.51.568,Colour_Asymmetry_Pilot,2022.1.3,Win32,60.03121623,62c50e9c1127f2cd403a315f,,,,,,,,,,,,,,,,,,,,,,,,,,,,,,,,,,,,,,,,,,,,,,,,,,,,,,,,,,,,,,,,,,,,,,,,,,,,,,,,,,,,,,,,,,,,,,,,,,,,,,,,,,,,,,,,,,,,,,,,,,,,,,,,,,,,,,,,,,,,,,,,,,,,,,,,,,,,,,,,,,,
0,24,24,18,1,,615200d54efc832849db2259,62c539ef07160c13dfb487cd,2022-07-06_09h30.51.568,Colour_Asymmetry_Pilot,2022.1.3,Win32,60.03121623,62c50e9c1127f2cd403a315f,,,,,,,,,,,,,,,,,,,,,,,,,,,,,,,,,,,,,,,,,,,,,,,,,,,,,,,,,,,,,,,,,,,,,,,,,,,,,,,,,,,,,,,,,,,,,,,,,,,,,,,,,,,,,,,,,,,,,,,,,,,,,,,,,,,,,,,,,,,,,,,,,,,,,,,,,,,,,,,,,,,
0,25,25,23,1,,615200d54efc832849db2259,62c539ef07160c13dfb487cd,2022-07-06_09h30.51.568,Colour_Asymmetry_Pilot,2022.1.3,Win32,60.03121623,62c50e9c1127f2cd403a315f,,,,,,,,,,,,,,,,,,,,,,,,,,,,,,,,,,,,,,,,,,,,,,,,,,,,,,,,,,,,,,,,,,,,,,,,,,,,,,,,,,,,,,,,,,,,,,,,,,,,,,,,,,,,,,,,,,,,,,,,,,,,,,,,,,,,,,,,,,,,,,,,,,,,,,,,,,,,,,,,,,,
0,26,26,27,1,,615200d54efc832849db2259,62c539ef07160c13dfb487cd,2022-07-06_09h30.51.568,Colour_Asymmetry_Pilot,2022.1.3,Win32,60.03121623,62c50e9c1127f2cd403a315f,,,,,,,,,,,,,,,,,,,,,,,,,,,,,,,,,,,,,,,,,,,,,,,,,,,,,,,,,,,,,,,,,,,,,,,,,,,,,,,,,,,,,,,,,,,,,,,,,,,,,,,,,,,,,,,,,,,,,,,,,,,,,,,,,,,,,,,,,,,,,,,,,,,,,,,,,,,,,,,,,,,
0,27,27,73,1,,615200d54efc832849db2259,62c539ef07160c13dfb487cd,2022-07-06_09h30.51.568,Colour_Asymmetry_Pilot,2022.1.3,Win32,60.03121623,62c50e9c1127f2cd403a315f,,,,,,,,,,,,,,,,,,,,,,,,,,,,,,,,,,,,,,,,,,,,,,,,,,,,,,,,,,,,,,,,,,,,,,,,,,,,,,,,,,,,,,,,,,,,,,,,,,,,,,,,,,,,,,,,,,,,,,,,,,,,,,,,,,,,,,,,,,,,,,,,,,,,,,,,,,,,,,,,,,,
0,28,28,30,1,,615200d54efc832849db2259,62c539ef07160c13dfb487cd,2022-07-06_09h30.51.568,Colour_Asymmetry_Pilot,2022.1.3,Win32,60.03121623,62c50e9c1127f2cd403a315f,,,,,,,,,,,,,,,,,,,,,,,,,,,,,,,,,,,,,,,,,,,,,,,,,,,,,,,,,,,,,,,,,,,,,,,,,,,,,,,,,,,,,,,,,,,,,,,,,,,,,,,,,,,,,,,,,,,,,,,,,,,,,,,,,,,,,,,,,,,,,,,,,,,,,,,,,,,,,,,,,,,
0,29,29,5,1,,615200d54efc832849db2259,62c539ef07160c13dfb487cd,2022-07-06_09h30.51.568,Colour_Asymmetry_Pilot,2022.1.3,Win32,60.03121623,62c50e9c1127f2cd403a315f,,,,,,,,,,,,,,,,,,,,,,,,,,,,,,,,,,,,,,,,,,,,,,,,,,,,,,,,,,,,,,,,,,,,,,,,,,,,,,,,,,,,,,,,,,,,,,,,,,,,,,,,,,,,,,,,,,,,,,,,,,,,,,,,,,,,,,,,,,,,,,,,,,,,,,,,,,,,,,,,,,,
0,30,30,54,1,,615200d54efc832849db2259,62c539ef07160c13dfb487cd,2022-07-06_09h30.51.568,Colour_Asymmetry_Pilot,2022.1.3,Win32,60.03121623,62c50e9c1127f2cd403a315f,,,,,,,,,,,,,,,,,,,,,,,,,,,,,,,,,,,,,,,,,,,,,,,,,,,,,,,,,,,,,,,,,,,,,,,,,,,,,,,,,,,,,,,,,,,,,,,,,,,,,,,,,,,,,,,,,,,,,,,,,,,,,,,,,,,,,,,,,,,,,,,,,,,,,,,,,,,,,,,,,,,
0,31,31,36,1,,615200d54efc832849db2259,62c539ef07160c13dfb487cd,2022-07-06_09h30.51.568,Colour_Asymmetry_Pilot,2022.1.3,Win32,60.03121623,62c50e9c1127f2cd403a315f,,,,,,,,,,,,,,,,,,,,,,,,,,,,,,,,,,,,,,,,,,,,,,,,,,,,,,,,,,,,,,,,,,,,,,,,,,,,,,,,,,,,,,,,,,,,,,,,,,,,,,,,,,,,,,,,,,,,,,,,,,,,,,,,,,,,,,,,,,,,,,,,,,,,,,,,,,,,,,,,,,,
0,32,32,43,1,,615200d54efc832849db2259,62c539ef07160c13dfb487cd,2022-07-06_09h30.51.568,Colour_Asymmetry_Pilot,2022.1.3,Win32,60.03121623,62c50e9c1127f2cd403a315f,,,,,,,,,,,,,,,,,,,,,,,,,,,,,,,,,,,,,,,,,,,,,,,,,,,,,,,,,,,,,,,,,,,,,,,,,,,,,,,,,,,,,,,,,,,,,,,,,,,,,,,,,,,,,,,,,,,,,,,,,,,,,,,,,,,,,,,,,,,,,,,,,,,,,,,,,,,,,,,,,,,
0,33,33,17,1,,615200d54efc832849db2259,62c539ef07160c13dfb487cd,2022-07-06_09h30.51.568,Colour_Asymmetry_Pilot,2022.1.3,Win32,60.03121623,62c50e9c1127f2cd403a315f,,,,,,,,,,,,,,,,,,,,,,,,,,,,,,,,,,,,,,,,,,,,,,,,,,,,,,,,,,,,,,,,,,,,,,,,,,,,,,,,,,,,,,,,,,,,,,,,,,,,,,,,,,,,,,,,,,,,,,,,,,,,,,,,,,,,,,,,,,,,,,,,,,,,,,,,,,,,,,,,,,,
0,34,34,25,1,,615200d54efc832849db2259,62c539ef07160c13dfb487cd,2022-07-06_09h30.51.568,Colour_Asymmetry_Pilot,2022.1.3,Win32,60.03121623,62c50e9c1127f2cd403a315f,,,,,,,,,,,,,,,,,,,,,,,,,,,,,,,,,,,,,,,,,,,,,,,,,,,,,,,,,,,,,,,,,,,,,,,,,,,,,,,,,,,,,,,,,,,,,,,,,,,,,,,,,,,,,,,,,,,,,,,,,,,,,,,,,,,,,,,,,,,,,,,,,,,,,,,,,,,,,,,,,,,
0,35,35,11,1,,615200d54efc832849db2259,62c539ef07160c13dfb487cd,2022-07-06_09h30.51.568,Colour_Asymmetry_Pilot,2022.1.3,Win32,60.03121623,62c50e9c1127f2cd403a315f,,,,,,,,,,,,,,,,,,,,,,,,,,,,,,,,,,,,,,,,,,,,,,,,,,,,,,,,,,,,,,,,,,,,,,,,,,,,,,,,,,,,,,,,,,,,,,,,,,,,,,,,,,,,,,,,,,,,,,,,,,,,,,,,,,,,,,,,,,,,,,,,,,,,,,,,,,,,,,,,,,,
0,36,36,41,1,,615200d54efc832849db2259,62c539ef07160c13dfb487cd,2022-07-06_09h30.51.568,Colour_Asymmetry_Pilot,2022.1.3,Win32,60.03121623,62c50e9c1127f2cd403a315f,,,,,,,,,,,,,,,,,,,,,,,,,,,,,,,,,,,,,,,,,,,,,,,,,,,,,,,,,,,,,,,,,,,,,,,,,,,,,,,,,,,,,,,,,,,,,,,,,,,,,,,,,,,,,,,,,,,,,,,,,,,,,,,,,,,,,,,,,,,,,,,,,,,,,,,,,,,,,,,,,,,
0,37,37,12,1,,615200d54efc832849db2259,62c539ef07160c13dfb487cd,2022-07-06_09h30.51.568,Colour_Asymmetry_Pilot,2022.1.3,Win32,60.03121623,62c50e9c1127f2cd403a315f,,,,,,,,,,,,,,,,,,,,,,,,,,,,,,,,,,,,,,,,,,,,,,,,,,,,,,,,,,,,,,,,,,,,,,,,,,,,,,,,,,,,,,,,,,,,,,,,,,,,,,,,,,,,,,,,,,,,,,,,,,,,,,,,,,,,,,,,,,,,,,,,,,,,,,,,,,,,,,,,,,,
0,38,38,60,1,,615200d54efc832849db2259,62c539ef07160c13dfb487cd,2022-07-06_09h30.51.568,Colour_Asymmetry_Pilot,2022.1.3,Win32,60.03121623,62c50e9c1127f2cd403a315f,,,,,,,,,,,,,,,,,,,,,,,,,,,,,,,,,,,,,,,,,,,,,,,,,,,,,,,,,,,,,,,,,,,,,,,,,,,,,,,,,,,,,,,,,,,,,,,,,,,,,,,,,,,,,,,,,,,,,,,,,,,,,,,,,,,,,,,,,,,,,,,,,,,,,,,,,,,,,,,,,,,
0,39,39,78,1,,615200d54efc832849db2259,62c539ef07160c13dfb487cd,2022-07-06_09h30.51.568,Colour_Asymmetry_Pilot,2022.1.3,Win32,60.03121623,62c50e9c1127f2cd403a315f,,,,,,,,,,,,,,,,,,,,,,,,,,,,,,,,,,,,,,,,,,,,,,,,,,,,,,,,,,,,,,,,,,,,,,,,,,,,,,,,,,,,,,,,,,,,,,,,,,,,,,,,,,,,,,,,,,,,,,,,,,,,,,,,,,,,,,,,,,,,,,,,,,,,,,,,,,,,,,,,,,,
0,40,40,24,1,,615200d54efc832849db2259,62c539ef07160c13dfb487cd,2022-07-06_09h30.51.568,Colour_Asymmetry_Pilot,2022.1.3,Win32,60.03121623,62c50e9c1127f2cd403a315f,,,,,,,,,,,,,,,,,,,,,,,,,,,,,,,,,,,,,,,,,,,,,,,,,,,,,,,,,,,,,,,,,,,,,,,,,,,,,,,,,,,,,,,,,,,,,,,,,,,,,,,,,,,,,,,,,,,,,,,,,,,,,,,,,,,,,,,,,,,,,,,,,,,,,,,,,,,,,,,,,,,
0,41,41,74,1,,615200d54efc832849db2259,62c539ef07160c13dfb487cd,2022-07-06_09h30.51.568,Colour_Asymmetry_Pilot,2022.1.3,Win32,60.03121623,62c50e9c1127f2cd403a315f,,,,,,,,,,,,,,,,,,,,,,,,,,,,,,,,,,,,,,,,,,,,,,,,,,,,,,,,,,,,,,,,,,,,,,,,,,,,,,,,,,,,,,,,,,,,,,,,,,,,,,,,,,,,,,,,,,,,,,,,,,,,,,,,,,,,,,,,,,,,,,,,,,,,,,,,,,,,,,,,,,,
0,42,42,76,1,,615200d54efc832849db2259,62c539ef07160c13dfb487cd,2022-07-06_09h30.51.568,Colour_Asymmetry_Pilot,2022.1.3,Win32,60.03121623,62c50e9c1127f2cd403a315f,,,,,,,,,,,,,,,,,,,,,,,,,,,,,,,,,,,,,,,,,,,,,,,,,,,,,,,,,,,,,,,,,,,,,,,,,,,,,,,,,,,,,,,,,,,,,,,,,,,,,,,,,,,,,,,,,,,,,,,,,,,,,,,,,,,,,,,,,,,,,,,,,,,,,,,,,,,,,,,,,,,
0,43,43,51,1,,615200d54efc832849db2259,62c539ef07160c13dfb487cd,2022-07-06_09h30.51.568,Colour_Asymmetry_Pilot,2022.1.3,Win32,60.03121623,62c50e9c1127f2cd403a315f,,,,,,,,,,,,,,,,,,,,,,,,,,,,,,,,,,,,,,,,,,,,,,,,,,,,,,,,,,,,,,,,,,,,,,,,,,,,,,,,,,,,,,,,,,,,,,,,,,,,,,,,,,,,,,,,,,,,,,,,,,,,,,,,,,,,,,,,,,,,,,,,,,,,,,,,,,,,,,,,,,,
0,44,44,83,1,,615200d54efc832849db2259,62c539ef07160c13dfb487cd,2022-07-06_09h30.51.568,Colour_Asymmetry_Pilot,2022.1.3,Win32,60.03121623,62c50e9c1127f2cd403a315f,,,,,,,,,,,,,,,,,,,,,,,,,,,,,,,,,,,,,,,,,,,,,,,,,,,,,,,,,,,,,,,,,,,,,,,,,,,,,,,,,,,,,,,,,,,,,,,,,,,,,,,,,,,,,,,,,,,,,,,,,,,,,,,,,,,,,,,,,,,,,,,,,,,,,,,,,,,,,,,,,,,
0,45,45,40,1,,615200d54efc832849db2259,62c539ef07160c13dfb487cd,2022-07-06_09h30.51.568,Colour_Asymmetry_Pilot,2022.1.3,Win32,60.03121623,62c50e9c1127f2cd403a315f,,,,,,,,,,,,,,,,,,,,,,,,,,,,,,,,,,,,,,,,,,,,,,,,,,,,,,,,,,,,,,,,,,,,,,,,,,,,,,,,,,,,,,,,,,,,,,,,,,,,,,,,,,,,,,,,,,,,,,,,,,,,,,,,,,,,,,,,,,,,,,,,,,,,,,,,,,,,,,,,,,,
0,46,46,34,1,,615200d54efc832849db2259,62c539ef07160c13dfb487cd,2022-07-06_09h30.51.568,Colour_Asymmetry_Pilot,2022.1.3,Win32,60.03121623,62c50e9c1127f2cd403a315f,,,,,,,,,,,,,,,,,,,,,,,,,,,,,,,,,,,,,,,,,,,,,,,,,,,,,,,,,,,,,,,,,,,,,,,,,,,,,,,,,,,,,,,,,,,,,,,,,,,,,,,,,,,,,,,,,,,,,,,,,,,,,,,,,,,,,,,,,,,,,,,,,,,,,,,,,,,,,,,,,,,
0,47,47,48,1,,615200d54efc832849db2259,62c539ef07160c13dfb487cd,2022-07-06_09h30.51.568,Colour_Asymmetry_Pilot,2022.1.3,Win32,60.03121623,62c50e9c1127f2cd403a315f,,,,,,,,,,,,,,,,,,,,,,,,,,,,,,,,,,,,,,,,,,,,,,,,,,,,,,,,,,,,,,,,,,,,,,,,,,,,,,,,,,,,,,,,,,,,,,,,,,,,,,,,,,,,,,,,,,,,,,,,,,,,,,,,,,,,,,,,,,,,,,,,,,,,,,,,,,,,,,,,,,,
0,48,48,52,1,,615200d54efc832849db2259,62c539ef07160c13dfb487cd,2022-07-06_09h30.51.568,Colour_Asymmetry_Pilot,2022.1.3,Win32,60.03121623,62c50e9c1127f2cd403a315f,,,,,,,,,,,,,,,,,,,,,,,,,,,,,,,,,,,,,,,,,,,,,,,,,,,,,,,,,,,,,,,,,,,,,,,,,,,,,,,,,,,,,,,,,,,,,,,,,,,,,,,,,,,,,,,,,,,,,,,,,,,,,,,,,,,,,,,,,,,,,,,,,,,,,,,,,,,,,,,,,,,
0,49,49,72,1,,615200d54efc832849db2259,62c539ef07160c13dfb487cd,2022-07-06_09h30.51.568,Colour_Asymmetry_Pilot,2022.1.3,Win32,60.03121623,62c50e9c1127f2cd403a315f,,,,,,,,,,,,,,,,,,,,,,,,,,,,,,,,,,,,,,,,,,,,,,,,,,,,,,,,,,,,,,,,,,,,,,,,,,,,,,,,,,,,,,,,,,,,,,,,,,,,,,,,,,,,,,,,,,,,,,,,,,,,,,,,,,,,,,,,,,,,,,,,,,,,,,,,,,,,,,,,,,,
0,50,50,57,1,,615200d54efc832849db2259,62c539ef07160c13dfb487cd,2022-07-06_09h30.51.568,Colour_Asymmetry_Pilot,2022.1.3,Win32,60.03121623,62c50e9c1127f2cd403a315f,,,,,,,,,,,,,,,,,,,,,,,,,,,,,,,,,,,,,,,,,,,,,,,,,,,,,,,,,,,,,,,,,,,,,,,,,,,,,,,,,,,,,,,,,,,,,,,,,,,,,,,,,,,,,,,,,,,,,,,,,,,,,,,,,,,,,,,,,,,,,,,,,,,,,,,,,,,,,,,,,,,
0,51,51,88,1,,615200d54efc832849db2259,62c539ef07160c13dfb487cd,2022-07-06_09h30.51.568,Colour_Asymmetry_Pilot,2022.1.3,Win32,60.03121623,62c50e9c1127f2cd403a315f,,,,,,,,,,,,,,,,,,,,,,,,,,,,,,,,,,,,,,,,,,,,,,,,,,,,,,,,,,,,,,,,,,,,,,,,,,,,,,,,,,,,,,,,,,,,,,,,,,,,,,,,,,,,,,,,,,,,,,,,,,,,,,,,,,,,,,,,,,,,,,,,,,,,,,,,,,,,,,,,,,,
0,52,52,2,1,,615200d54efc832849db2259,62c539ef07160c13dfb487cd,2022-07-06_09h30.51.568,Colour_Asymmetry_Pilot,2022.1.3,Win32,60.03121623,62c50e9c1127f2cd403a315f,,,,,,,,,,,,,,,,,,,,,,,,,,,,,,,,,,,,,,,,,,,,,,,,,,,,,,,,,,,,,,,,,,,,,,,,,,,,,,,,,,,,,,,,,,,,,,,,,,,,,,,,,,,,,,,,,,,,,,,,,,,,,,,,,,,,,,,,,,,,,,,,,,,,,,,,,,,,,,,,,,,
0,53,53,66,1,,615200d54efc832849db2259,62c539ef07160c13dfb487cd,2022-07-06_09h30.51.568,Colour_Asymmetry_Pilot,2022.1.3,Win32,60.03121623,62c50e9c1127f2cd403a315f,,,,,,,,,,,,,,,,,,,,,,,,,,,,,,,,,,,,,,,,,,,,,,,,,,,,,,,,,,,,,,,,,,,,,,,,,,,,,,,,,,,,,,,,,,,,,,,,,,,,,,,,,,,,,,,,,,,,,,,,,,,,,,,,,,,,,,,,,,,,,,,,,,,,,,,,,,,,,,,,,,,
0,54,54,1,1,,615200d54efc832849db2259,62c539ef07160c13dfb487cd,2022-07-06_09h30.51.568,Colour_Asymmetry_Pilot,2022.1.3,Win32,60.03121623,62c50e9c1127f2cd403a315f,,,,,,,,,,,,,,,,,,,,,,,,,,,,,,,,,,,,,,,,,,,,,,,,,,,,,,,,,,,,,,,,,,,,,,,,,,,,,,,,,,,,,,,,,,,,,,,,,,,,,,,,,,,,,,,,,,,,,,,,,,,,,,,,,,,,,,,,,,,,,,,,,,,,,,,,,,,,,,,,,,,
0,55,55,75,1,,615200d54efc832849db2259,62c539ef07160c13dfb487cd,2022-07-06_09h30.51.568,Colour_Asymmetry_Pilot,2022.1.3,Win32,60.03121623,62c50e9c1127f2cd403a315f,,,,,,,,,,,,,,,,,,,,,,,,,,,,,,,,,,,,,,,,,,,,,,,,,,,,,,,,,,,,,,,,,,,,,,,,,,,,,,,,,,,,,,,,,,,,,,,,,,,,,,,,,,,,,,,,,,,,,,,,,,,,,,,,,,,,,,,,,,,,,,,,,,,,,,,,,,,,,,,,,,,
0,56,56,31,1,,615200d54efc832849db2259,62c539ef07160c13dfb487cd,2022-07-06_09h30.51.568,Colour_Asymmetry_Pilot,2022.1.3,Win32,60.03121623,62c50e9c1127f2cd403a315f,,,,,,,,,,,,,,,,,,,,,,,,,,,,,,,,,,,,,,,,,,,,,,,,,,,,,,,,,,,,,,,,,,,,,,,,,,,,,,,,,,,,,,,,,,,,,,,,,,,,,,,,,,,,,,,,,,,,,,,,,,,,,,,,,,,,,,,,,,,,,,,,,,,,,,,,,,,,,,,,,,,
0,57,57,55,1,,615200d54efc832849db2259,62c539ef07160c13dfb487cd,2022-07-06_09h30.51.568,Colour_Asymmetry_Pilot,2022.1.3,Win32,60.03121623,62c50e9c1127f2cd403a315f,,,,,,,,,,,,,,,,,,,,,,,,,,,,,,,,,,,,,,,,,,,,,,,,,,,,,,,,,,,,,,,,,,,,,,,,,,,,,,,,,,,,,,,,,,,,,,,,,,,,,,,,,,,,,,,,,,,,,,,,,,,,,,,,,,,,,,,,,,,,,,,,,,,,,,,,,,,,,,,,,,,
0,58,58,42,1,,615200d54efc832849db2259,62c539ef07160c13dfb487cd,2022-07-06_09h30.51.568,Colour_Asymmetry_Pilot,2022.1.3,Win32,60.03121623,62c50e9c1127f2cd403a315f,,,,,,,,,,,,,,,,,,,,,,,,,,,,,,,,,,,,,,,,,,,,,,,,,,,,,,,,,,,,,,,,,,,,,,,,,,,,,,,,,,,,,,,,,,,,,,,,,,,,,,,,,,,,,,,,,,,,,,,,,,,,,,,,,,,,,,,,,,,,,,,,,,,,,,,,,,,,,,,,,,,
0,59,59,65,1,,615200d54efc832849db2259,62c539ef07160c13dfb487cd,2022-07-06_09h30.51.568,Colour_Asymmetry_Pilot,2022.1.3,Win32,60.03121623,62c50e9c1127f2cd403a315f,,,,,,,,,,,,,,,,,,,,,,,,,,,,,,,,,,,,,,,,,,,,,,,,,,,,,,,,,,,,,,,,,,,,,,,,,,,,,,,,,,,,,,,,,,,,,,,,,,,,,,,,,,,,,,,,,,,,,,,,,,,,,,,,,,,,,,,,,,,,,,,,,,,,,,,,,,,,,,,,,,,
0,60,60,82,1,,615200d54efc832849db2259,62c539ef07160c13dfb487cd,2022-07-06_09h30.51.568,Colour_Asymmetry_Pilot,2022.1.3,Win32,60.03121623,62c50e9c1127f2cd403a315f,,,,,,,,,,,,,,,,,,,,,,,,,,,,,,,,,,,,,,,,,,,,,,,,,,,,,,,,,,,,,,,,,,,,,,,,,,,,,,,,,,,,,,,,,,,,,,,,,,,,,,,,,,,,,,,,,,,,,,,,,,,,,,,,,,,,,,,,,,,,,,,,,,,,,,,,,,,,,,,,,,,
0,61,61,56,1,,615200d54efc832849db2259,62c539ef07160c13dfb487cd,2022-07-06_09h30.51.568,Colour_Asymmetry_Pilot,2022.1.3,Win32,60.03121623,62c50e9c1127f2cd403a315f,,,,,,,,,,,,,,,,,,,,,,,,,,,,,,,,,,,,,,,,,,,,,,,,,,,,,,,,,,,,,,,,,,,,,,,,,,,,,,,,,,,,,,,,,,,,,,,,,,,,,,,,,,,,,,,,,,,,,,,,,,,,,,,,,,,,,,,,,,,,,,,,,,,,,,,,,,,,,,,,,,,
0,62,62,46,1,,615200d54efc832849db2259,62c539ef07160c13dfb487cd,2022-07-06_09h30.51.568,Colour_Asymmetry_Pilot,2022.1.3,Win32,60.03121623,62c50e9c1127f2cd403a315f,,,,,,,,,,,,,,,,,,,,,,,,,,,,,,,,,,,,,,,,,,,,,,,,,,,,,,,,,,,,,,,,,,,,,,,,,,,,,,,,,,,,,,,,,,,,,,,,,,,,,,,,,,,,,,,,,,,,,,,,,,,,,,,,,,,,,,,,,,,,,,,,,,,,,,,,,,,,,,,,,,,
0,63,63,4,1,,615200d54efc832849db2259,62c539ef07160c13dfb487cd,2022-07-06_09h30.51.568,Colour_Asymmetry_Pilot,2022.1.3,Win32,60.03121623,62c50e9c1127f2cd403a315f,,,,,,,,,,,,,,,,,,,,,,,,,,,,,,,,,,,,,,,,,,,,,,,,,,,,,,,,,,,,,,,,,,,,,,,,,,,,,,,,,,,,,,,,,,,,,,,,,,,,,,,,,,,,,,,,,,,,,,,,,,,,,,,,,,,,,,,,,,,,,,,,,,,,,,,,,,,,,,,,,,,
0,64,64,53,1,,615200d54efc832849db2259,62c539ef07160c13dfb487cd,2022-07-06_09h30.51.568,Colour_Asymmetry_Pilot,2022.1.3,Win32,60.03121623,62c50e9c1127f2cd403a315f,,,,,,,,,,,,,,,,,,,,,,,,,,,,,,,,,,,,,,,,,,,,,,,,,,,,,,,,,,,,,,,,,,,,,,,,,,,,,,,,,,,,,,,,,,,,,,,,,,,,,,,,,,,,,,,,,,,,,,,,,,,,,,,,,,,,,,,,,,,,,,,,,,,,,,,,,,,,,,,,,,,
0,65,65,0,1,,615200d54efc832849db2259,62c539ef07160c13dfb487cd,2022-07-06_09h30.51.568,Colour_Asymmetry_Pilot,2022.1.3,Win32,60.03121623,62c50e9c1127f2cd403a315f,,,,,,,,,,,,,,,,,,,,,,,,,,,,,,,,,,,,,,,,,,,,,,,,,,,,,,,,,,,,,,,,,,,,,,,,,,,,,,,,,,,,,,,,,,,,,,,,,,,,,,,,,,,,,,,,,,,,,,,,,,,,,,,,,,,,,,,,,,,,,,,,,,,,,,,,,,,,,,,,,,,
0,66,66,67,1,,615200d54efc832849db2259,62c539ef07160c13dfb487cd,2022-07-06_09h30.51.568,Colour_Asymmetry_Pilot,2022.1.3,Win32,60.03121623,62c50e9c1127f2cd403a315f,,,,,,,,,,,,,,,,,,,,,,,,,,,,,,,,,,,,,,,,,,,,,,,,,,,,,,,,,,,,,,,,,,,,,,,,,,,,,,,,,,,,,,,,,,,,,,,,,,,,,,,,,,,,,,,,,,,,,,,,,,,,,,,,,,,,,,,,,,,,,,,,,,,,,,,,,,,,,,,,,,,
0,67,67,89,1,,615200d54efc832849db2259,62c539ef07160c13dfb487cd,2022-07-06_09h30.51.568,Colour_Asymmetry_Pilot,2022.1.3,Win32,60.03121623,62c50e9c1127f2cd403a315f,,,,,,,,,,,,,,,,,,,,,,,,,,,,,,,,,,,,,,,,,,,,,,,,,,,,,,,,,,,,,,,,,,,,,,,,,,,,,,,,,,,,,,,,,,,,,,,,,,,,,,,,,,,,,,,,,,,,,,,,,,,,,,,,,,,,,,,,,,,,,,,,,,,,,,,,,,,,,,,,,,,
0,68,68,50,1,,615200d54efc832849db2259,62c539ef07160c13dfb487cd,2022-07-06_09h30.51.568,Colour_Asymmetry_Pilot,2022.1.3,Win32,60.03121623,62c50e9c1127f2cd403a315f,,,,,,,,,,,,,,,,,,,,,,,,,,,,,,,,,,,,,,,,,,,,,,,,,,,,,,,,,,,,,,,,,,,,,,,,,,,,,,,,,,,,,,,,,,,,,,,,,,,,,,,,,,,,,,,,,,,,,,,,,,,,,,,,,,,,,,,,,,,,,,,,,,,,,,,,,,,,,,,,,,,
0,69,69,79,1,,615200d54efc832849db2259,62c539ef07160c13dfb487cd,2022-07-06_09h30.51.568,Colour_Asymmetry_Pilot,2022.1.3,Win32,60.03121623,62c50e9c1127f2cd403a315f,,,,,,,,,,,,,,,,,,,,,,,,,,,,,,,,,,,,,,,,,,,,,,,,,,,,,,,,,,,,,,,,,,,,,,,,,,,,,,,,,,,,,,,,,,,,,,,,,,,,,,,,,,,,,,,,,,,,,,,,,,,,,,,,,,,,,,,,,,,,,,,,,,,,,,,,,,,,,,,,,,,
0,70,70,38,1,,615200d54efc832849db2259,62c539ef07160c13dfb487cd,2022-07-06_09h30.51.568,Colour_Asymmetry_Pilot,2022.1.3,Win32,60.03121623,62c50e9c1127f2cd403a315f,,,,,,,,,,,,,,,,,,,,,,,,,,,,,,,,,,,,,,,,,,,,,,,,,,,,,,,,,,,,,,,,,,,,,,,,,,,,,,,,,,,,,,,,,,,,,,,,,,,,,,,,,,,,,,,,,,,,,,,,,,,,,,,,,,,,,,,,,,,,,,,,,,,,,,,,,,,,,,,,,,,
0,71,71,63,1,,615200d54efc832849db2259,62c539ef07160c13dfb487cd,2022-07-06_09h30.51.568,Colour_Asymmetry_Pilot,2022.1.3,Win32,60.03121623,62c50e9c1127f2cd403a315f,,,,,,,,,,,,,,,,,,,,,,,,,,,,,,,,,,,,,,,,,,,,,,,,,,,,,,,,,,,,,,,,,,,,,,,,,,,,,,,,,,,,,,,,,,,,,,,,,,,,,,,,,,,,,,,,,,,,,,,,,,,,,,,,,,,,,,,,,,,,,,,,,,,,,,,,,,,,,,,,,,,
0,72,72,47,1,,615200d54efc832849db2259,62c539ef07160c13dfb487cd,2022-07-06_09h30.51.568,Colour_Asymmetry_Pilot,2022.1.3,Win32,60.03121623,62c50e9c1127f2cd403a315f,,,,,,,,,,,,,,,,,,,,,,,,,,,,,,,,,,,,,,,,,,,,,,,,,,,,,,,,,,,,,,,,,,,,,,,,,,,,,,,,,,,,,,,,,,,,,,,,,,,,,,,,,,,,,,,,,,,,,,,,,,,,,,,,,,,,,,,,,,,,,,,,,,,,,,,,,,,,,,,,,,,
0,73,73,22,1,,615200d54efc832849db2259,62c539ef07160c13dfb487cd,2022-07-06_09h30.51.568,Colour_Asymmetry_Pilot,2022.1.3,Win32,60.03121623,62c50e9c1127f2cd403a315f,,,,,,,,,,,,,,,,,,,,,,,,,,,,,,,,,,,,,,,,,,,,,,,,,,,,,,,,,,,,,,,,,,,,,,,,,,,,,,,,,,,,,,,,,,,,,,,,,,,,,,,,,,,,,,,,,,,,,,,,,,,,,,,,,,,,,,,,,,,,,,,,,,,,,,,,,,,,,,,,,,,
0,74,74,37,1,,615200d54efc832849db2259,62c539ef07160c13dfb487cd,2022-07-06_09h30.51.568,Colour_Asymmetry_Pilot,2022.1.3,Win32,60.03121623,62c50e9c1127f2cd403a315f,,,,,,,,,,,,,,,,,,,,,,,,,,,,,,,,,,,,,,,,,,,,,,,,,,,,,,,,,,,,,,,,,,,,,,,,,,,,,,,,,,,,,,,,,,,,,,,,,,,,,,,,,,,,,,,,,,,,,,,,,,,,,,,,,,,,,,,,,,,,,,,,,,,,,,,,,,,,,,,,,,,
0,75,75,58,1,,615200d54efc832849db2259,62c539ef07160c13dfb487cd,2022-07-06_09h30.51.568,Colour_Asymmetry_Pilot,2022.1.3,Win32,60.03121623,62c50e9c1127f2cd403a315f,,,,,,,,,,,,,,,,,,,,,,,,,,,,,,,,,,,,,,,,,,,,,,,,,,,,,,,,,,,,,,,,,,,,,,,,,,,,,,,,,,,,,,,,,,,,,,,,,,,,,,,,,,,,,,,,,,,,,,,,,,,,,,,,,,,,,,,,,,,,,,,,,,,,,,,,,,,,,,,,,,,
0,76,76,45,1,,615200d54efc832849db2259,62c539ef07160c13dfb487cd,2022-07-06_09h30.51.568,Colour_Asymmetry_Pilot,2022.1.3,Win32,60.03121623,62c50e9c1127f2cd403a315f,,,,,,,,,,,,,,,,,,,,,,,,,,,,,,,,,,,,,,,,,,,,,,,,,,,,,,,,,,,,,,,,,,,,,,,,,,,,,,,,,,,,,,,,,,,,,,,,,,,,,,,,,,,,,,,,,,,,,,,,,,,,,,,,,,,,,,,,,,,,,,,,,,,,,,,,,,,,,,,,,,,
0,77,77,6,1,,615200d54efc832849db2259,62c539ef07160c13dfb487cd,2022-07-06_09h30.51.568,Colour_Asymmetry_Pilot,2022.1.3,Win32,60.03121623,62c50e9c1127f2cd403a315f,,,,,,,,,,,,,,,,,,,,,,,,,,,,,,,,,,,,,,,,,,,,,,,,,,,,,,,,,,,,,,,,,,,,,,,,,,,,,,,,,,,,,,,,,,,,,,,,,,,,,,,,,,,,,,,,,,,,,,,,,,,,,,,,,,,,,,,,,,,,,,,,,,,,,,,,,,,,,,,,,,,
0,78,78,14,1,,615200d54efc832849db2259,62c539ef07160c13dfb487cd,2022-07-06_09h30.51.568,Colour_Asymmetry_Pilot,2022.1.3,Win32,60.03121623,62c50e9c1127f2cd403a315f,,,,,,,,,,,,,,,,,,,,,,,,,,,,,,,,,,,,,,,,,,,,,,,,,,,,,,,,,,,,,,,,,,,,,,,,,,,,,,,,,,,,,,,,,,,,,,,,,,,,,,,,,,,,,,,,,,,,,,,,,,,,,,,,,,,,,,,,,,,,,,,,,,,,,,,,,,,,,,,,,,,
0,79,79,28,1,,615200d54efc832849db2259,62c539ef07160c13dfb487cd,2022-07-06_09h30.51.568,Colour_Asymmetry_Pilot,2022.1.3,Win32,60.03121623,62c50e9c1127f2cd403a315f,,,,,,,,,,,,,,,,,,,,,,,,,,,,,,,,,,,,,,,,,,,,,,,,,,,,,,,,,,,,,,,,,,,,,,,,,,,,,,,,,,,,,,,,,,,,,,,,,,,,,,,,,,,,,,,,,,,,,,,,,,,,,,,,,,,,,,,,,,,,,,,,,,,,,,,,,,,,,,,,,,,
0,80,80,59,1,,615200d54efc832849db2259,62c539ef07160c13dfb487cd,2022-07-06_09h30.51.568,Colour_Asymmetry_Pilot,2022.1.3,Win32,60.03121623,62c50e9c1127f2cd403a315f,,,,,,,,,,,,,,,,,,,,,,,,,,,,,,,,,,,,,,,,,,,,,,,,,,,,,,,,,,,,,,,,,,,,,,,,,,,,,,,,,,,,,,,,,,,,,,,,,,,,,,,,,,,,,,,,,,,,,,,,,,,,,,,,,,,,,,,,,,,,,,,,,,,,,,,,,,,,,,,,,,,
0,81,81,87,1,,615200d54efc832849db2259,62c539ef07160c13dfb487cd,2022-07-06_09h30.51.568,Colour_Asymmetry_Pilot,2022.1.3,Win32,60.03121623,62c50e9c1127f2cd403a315f,,,,,,,,,,,,,,,,,,,,,,,,,,,,,,,,,,,,,,,,,,,,,,,,,,,,,,,,,,,,,,,,,,,,,,,,,,,,,,,,,,,,,,,,,,,,,,,,,,,,,,,,,,,,,,,,,,,,,,,,,,,,,,,,,,,,,,,,,,,,,,,,,,,,,,,,,,,,,,,,,,,
0,82,82,16,1,,615200d54efc832849db2259,62c539ef07160c13dfb487cd,2022-07-06_09h30.51.568,Colour_Asymmetry_Pilot,2022.1.3,Win32,60.03121623,62c50e9c1127f2cd403a315f,,,,,,,,,,,,,,,,,,,,,,,,,,,,,,,,,,,,,,,,,,,,,,,,,,,,,,,,,,,,,,,,,,,,,,,,,,,,,,,,,,,,,,,,,,,,,,,,,,,,,,,,,,,,,,,,,,,,,,,,,,,,,,,,,,,,,,,,,,,,,,,,,,,,,,,,,,,,,,,,,,,
0,83,83,92,1,,615200d54efc832849db2259,62c539ef07160c13dfb487cd,2022-07-06_09h30.51.568,Colour_Asymmetry_Pilot,2022.1.3,Win32,60.03121623,62c50e9c1127f2cd403a315f,,,,,,,,,,,,,,,,,,,,,,,,,,,,,,,,,,,,,,,,,,,,,,,,,,,,,,,,,,,,,,,,,,,,,,,,,,,,,,,,,,,,,,,,,,,,,,,,,,,,,,,,,,,,,,,,,,,,,,,,,,,,,,,,,,,,,,,,,,,,,,,,,,,,,,,,,,,,,,,,,,,
0,84,84,26,1,,615200d54efc832849db2259,62c539ef07160c13dfb487cd,2022-07-06_09h30.51.568,Colour_Asymmetry_Pilot,2022.1.3,Win32,60.03121623,62c50e9c1127f2cd403a315f,,,,,,,,,,,,,,,,,,,,,,,,,,,,,,,,,,,,,,,,,,,,,,,,,,,,,,,,,,,,,,,,,,,,,,,,,,,,,,,,,,,,,,,,,,,,,,,,,,,,,,,,,,,,,,,,,,,,,,,,,,,,,,,,,,,,,,,,,,,,,,,,,,,,,,,,,,,,,,,,,,,
0,85,85,71,1,,615200d54efc832849db2259,62c539ef07160c13dfb487cd,2022-07-06_09h30.51.568,Colour_Asymmetry_Pilot,2022.1.3,Win32,60.03121623,62c50e9c1127f2cd403a315f,,,,,,,,,,,,,,,,,,,,,,,,,,,,,,,,,,,,,,,,,,,,,,,,,,,,,,,,,,,,,,,,,,,,,,,,,,,,,,,,,,,,,,,,,,,,,,,,,,,,,,,,,,,,,,,,,,,,,,,,,,,,,,,,,,,,,,,,,,,,,,,,,,,,,,,,,,,,,,,,,,,
0,86,86,44,1,,615200d54efc832849db2259,62c539ef07160c13dfb487cd,2022-07-06_09h30.51.568,Colour_Asymmetry_Pilot,2022.1.3,Win32,60.03121623,62c50e9c1127f2cd403a315f,,,,,,,,,,,,,,,,,,,,,,,,,,,,,,,,,,,,,,,,,,,,,,,,,,,,,,,,,,,,,,,,,,,,,,,,,,,,,,,,,,,,,,,,,,,,,,,,,,,,,,,,,,,,,,,,,,,,,,,,,,,,,,,,,,,,,,,,,,,,,,,,,,,,,,,,,,,,,,,,,,,
0,87,87,62,1,,615200d54efc832849db2259,62c539ef07160c13dfb487cd,2022-07-06_09h30.51.568,Colour_Asymmetry_Pilot,2022.1.3,Win32,60.03121623,62c50e9c1127f2cd403a315f,,,,,,,,,,,,,,,,,,,,,,,,,,,,,,,,,,,,,,,,,,,,,,,,,,,,,,,,,,,,,,,,,,,,,,,,,,,,,,,,,,,,,,,,,,,,,,,,,,,,,,,,,,,,,,,,,,,,,,,,,,,,,,,,,,,,,,,,,,,,,,,,,,,,,,,,,,,,,,,,,,,
0,88,88,35,1,,615200d54efc832849db2259,62c539ef07160c13dfb487cd,2022-07-06_09h30.51.568,Colour_Asymmetry_Pilot,2022.1.3,Win32,60.03121623,62c50e9c1127f2cd403a315f,,,,,,,,,,,,,,,,,,,,,,,,,,,,,,,,,,,,,,,,,,,,,,,,,,,,,,,,,,,,,,,,,,,,,,,,,,,,,,,,,,,,,,,,,,,,,,,,,,,,,,,,,,,,,,,,,,,,,,,,,,,,,,,,,,,,,,,,,,,,,,,,,,,,,,,,,,,,,,,,,,,
0,89,89,77,1,,615200d54efc832849db2259,62c539ef07160c13dfb487cd,2022-07-06_09h30.51.568,Colour_Asymmetry_Pilot,2022.1.3,Win32,60.03121623,62c50e9c1127f2cd403a315f,,,,,,,,,,,,,,,,,,,,,,,,,,,,,,,,,,,,,,,,,,,,,,,,,,,,,,,,,,,,,,,,,,,,,,,,,,,,,,,,,,,,,,,,,,,,,,,,,,,,,,,,,,,,,,,,,,,,,,,,,,,,,,,,,,,,,,,,,,,,,,,,,,,,,,,,,,,,,,,,,,,
0,90,90,21,1,,615200d54efc832849db2259,62c539ef07160c13dfb487cd,2022-07-06_09h30.51.568,Colour_Asymmetry_Pilot,2022.1.3,Win32,60.03121623,62c50e9c1127f2cd403a315f,,,,,,,,,,,,,,,,,,,,,,,,,,,,,,,,,,,,,,,,,,,,,,,,,,,,,,,,,,,,,,,,,,,,,,,,,,,,,,,,,,,,,,,,,,,,,,,,,,,,,,,,,,,,,,,,,,,,,,,,,,,,,,,,,,,,,,,,,,,,,,,,,,,,,,,,,,,,,,,,,,,
0,91,91,3,1,,615200d54efc832849db2259,62c539ef07160c13dfb487cd,2022-07-06_09h30.51.568,Colour_Asymmetry_Pilot,2022.1.3,Win32,60.03121623,62c50e9c1127f2cd403a315f,,,,,,,,,,,,,,,,,,,,,,,,,,,,,,,,,,,,,,,,,,,,,,,,,,,,,,,,,,,,,,,,,,,,,,,,,,,,,,,,,,,,,,,,,,,,,,,,,,,,,,,,,,,,,,,,,,,,,,,,,,,,,,,,,,,,,,,,,,,,,,,,,,,,,,,,,,,,,,,,,,,
0,92,92,20,1,,615200d54efc832849db2259,62c539ef07160c13dfb487cd,2022-07-06_09h30.51.568,Colour_Asymmetry_Pilot,2022.1.3,Win32,60.03121623,62c50e9c1127f2cd403a315f,,,,,,,,,,,,,,,,,,,,,,,,,,,,,,,,,,,,,,,,,,,,,,,,,,,,,,,,,,,,,,,,,,,,,,,,,,,,,,,,,,,,,,,,,,,,,,,,,,,,,,,,,,,,,,,,,,,,,,,,,,,,,,,,,,,,,,,,,,,,,,,,,,,,,,,,,,,,,,,,,,,
,,,,,,615200d54efc832849db2259,62c539ef07160c13dfb487cd,2022-07-06_09h30.51.568,Colour_Asymmetry_Pilot,2022.1.3,Win32,60.03121623,62c50e9c1127f2cd403a315f,0,0,0,161,1,onethree,,,,,,,,,,,,,,,,,,,,,,,,,,,,,,,,,,,,,,,,,,,,,,,,,,,,,,,,,,,,,,,,,,,,,,,,,,,,,,,,,,,,,,,,,,,,,,,,,,,,,,,,,,,,,,,,,,,,,,,,,,,,,,,,,,,,,,,,,,,,,,,,,,,,,,,,,,,,,
,,,,,,615200d54efc832849db2259,62c539ef07160c13dfb487cd,2022-07-06_09h30.51.568,Colour_Asymmetry_Pilot,2022.1.3,Win32,60.03121623,62c50e9c1127f2cd403a315f,0,1,1,131,1,twofour,,,,,,,,,,,,,,,,,,,,,,,,,,,,,,,,,,,,,,,,,,,,,,,,,,,,,,,,,,,,,,,,,,,,,,,,,,,,,,,,,,,,,,,,,,,,,,,,,,,,,,,,,,,,,,,,,,,,,,,,,,,,,,,,,,,,,,,,,,,,,,,,,,,,,,,,,,,,,
,,,,,,615200d54efc832849db2259,62c539ef07160c13dfb487cd,2022-07-06_09h30.51.568,Colour_Asymmetry_Pilot,2022.1.3,Win32,60.03121623,62c50e9c1127f2cd403a315f,0,2,2,43,1,twofour,,,,,,,,,,,,,,,,,,,,,,,,,,,,,,,,,,,,,,,,,,,,,,,,,,,,,,,,,,,,,,,,,,,,,,,,,,,,,,,,,,,,,,,,,,,,,,,,,,,,,,,,,,,,,,,,,,,,,,,,,,,,,,,,,,,,,,,,,,,,,,,,,,,,,,,,,,,,,
,,,,,,615200d54efc832849db2259,62c539ef07160c13dfb487cd,2022-07-06_09h30.51.568,Colour_Asymmetry_Pilot,2022.1.3,Win32,60.03121623,62c50e9c1127f2cd403a315f,0,3,3,31,1,fourthree,,,,,,,,,,,,,,,,,,,,,,,,,,,,,,,,,,,,,,,,,,,,,,,,,,,,,,,,,,,,,,,,,,,,,,,,,,,,,,,,,,,,,,,,,,,,,,,,,,,,,,,,,,,,,,,,,,,,,,,,,,,,,,,,,,,,,,,,,,,,,,,,,,,,,,,,,,,,,
,,,,,,615200d54efc832849db2259,62c539ef07160c13dfb487cd,2022-07-06_09h30.51.568,Colour_Asymmetry_Pilot,2022.1.3,Win32,60.03121623,62c50e9c1127f2cd403a315f,0,4,4,48,1,onetwo,,,,,,,,,,,,,,,,,,,,,,,,,,,,,,,,,,,,,,,,,,,,,,,,,,,,,,,,,,,,,,,,,,,,,,,,,,,,,,,,,,,,,,,,,,,,,,,,,,,,,,,,,,,,,,,,,,,,,,,,,,,,,,,,,,,,,,,,,,,,,,,,,,,,,,,,,,,,,
,,,,,,615200d54efc832849db2259,62c539ef07160c13dfb487cd,2022-07-06_09h30.51.568,Colour_Asymmetry_Pilot,2022.1.3,Win32,60.03121623,62c50e9c1127f2cd403a315f,0,5,5,156,1,threeone,,,,,,,,,,,,,,,,,,,,,,,,,,,,,,,,,,,,,,,,,,,,,,,,,,,,,,,,,,,,,,,,,,,,,,,,,,,,,,,,,,,,,,,,,,,,,,,,,,,,,,,,,,,,,,,,,,,,,,,,,,,,,,,,,,,,,,,,,,,,,,,,,,,,,,,,,,,,,
,,,,,,615200d54efc832849db2259,62c539ef07160c13dfb487cd,2022-07-06_09h30.51.568,Colour_Asymmetry_Pilot,2022.1.3,Win32,60.03121623,62c50e9c1127f2cd403a315f,0,6,6,141,1,threefour,,,,,,,,,,,,,,,,,,,,,,,,,,,,,,,,,,,,,,,,,,,,,,,,,,,,,,,,,,,,,,,,,,,,,,,,,,,,,,,,,,,,,,,,,,,,,,,,,,,,,,,,,,,,,,,,,,,,,,,,,,,,,,,,,,,,,,,,,,,,,,,,,,,,,,,,,,,,,
,,,,,,615200d54efc832849db2259,62c539ef07160c13dfb487cd,2022-07-06_09h30.51.568,Colour_Asymmetry_Pilot,2022.1.3,Win32,60.03121623,62c50e9c1127f2cd403a315f,0,7,7,76,1,threeone,,,,,,,,,,,,,,,,,,,,,,,,,,,,,,,,,,,,,,,,,,,,,,,,,,,,,,,,,,,,,,,,,,,,,,,,,,,,,,,,,,,,,,,,,,,,,,,,,,,,,,,,,,,,,,,,,,,,,,,,,,,,,,,,,,,,,,,,,,,,,,,,,,,,,,,,,,,,,
,,,,,,615200d54efc832849db2259,62c539ef07160c13dfb487cd,2022-07-06_09h30.51.568,Colour_Asymmetry_Pilot,2022.1.3,Win32,60.03121623,62c50e9c1127f2cd403a315f,0,8,8,64,1,onetwo,,,,,,,,,,,,,,,,,,,,,,,,,,,,,,,,,,,,,,,,,,,,,,,,,,,,,,,,,,,,,,,,,,,,,,,,,,,,,,,,,,,,,,,,,,,,,,,,,,,,,,,,,,,,,,,,,,,,,,,,,,,,,,,,,,,,,,,,,,,,,,,,,,,,,,,,,,,,,
,,,,,,615200d54efc832849db2259,62c539ef07160c13dfb487cd,2022-07-06_09h30.51.568,Colour_Asymmetry_Pilot,2022.1.3,Win32,60.03121623,62c50e9c1127f2cd403a315f,0,9,9,140,1,threeone,,,,,,,,,,,,,,,,,,,,,,,,,,,,,,,,,,,,,,,,,,,,,,,,,,,,,,,,,,,,,,,,,,,,,,,,,,,,,,,,,,,,,,,,,,,,,,,,,,,,,,,,,,,,,,,,,,,,,,,,,,,,,,,,,,,,,,,,,,,,,,,,,,,,,,,,,,,,,
,,,,,,615200d54efc832849db2259,62c539ef07160c13dfb487cd,2022-07-06_09h30.51.568,Colour_Asymmetry_Pilot,2022.1.3,Win32,60.03121623,62c50e9c1127f2cd403a315f,0,10,10,50,1,twoone,,,,,,,,,,,,,,,,,,,,,,,,,,,,,,,,,,,,,,,,,,,,,,,,,,,,,,,,,,,,,,,,,,,,,,,,,,,,,,,,,,,,,,,,,,,,,,,,,,,,,,,,,,,,,,,,,,,,,,,,,,,,,,,,,,,,,,,,,,,,,,,,,,,,,,,,,,,,,
,,,,,,615200d54efc832849db2259,62c539ef07160c13dfb487cd,2022-07-06_09h30.51.568,Colour_Asymmetry_Pilot,2022.1.3,Win32,60.03121623,62c50e9c1127f2cd403a315f,0,11,11,99,1,twofour,,,,,,,,,,,,,,,,,,,,,,,,,,,,,,,,,,,,,,,,,,,,,,,,,,,,,,,,,,,,,,,,,,,,,,,,,,,,,,,,,,,,,,,,,,,,,,,,,,,,,,,,,,,,,,,,,,,,,,,,,,,,,,,,,,,,,,,,,,,,,,,,,,,,,,,,,,,,,
,,,,,,615200d54efc832849db2259,62c539ef07160c13dfb487cd,2022-07-06_09h30.51.568,Colour_Asymmetry_Pilot,2022.1.3,Win32,60.03121623,62c50e9c1127f2cd403a315f,0,12,12,66,1,twoone,,,,,,,,,,,,,,,,,,,,,,,,,,,,,,,,,,,,,,,,,,,,,,,,,,,,,,,,,,,,,,,,,,,,,,,,,,,,,,,,,,,,,,,,,,,,,,,,,,,,,,,,,,,,,,,,,,,,,,,,,,,,,,,,,,,,,,,,,,,,,,,,,,,,,,,,,,,,,
,,,,,,615200d54efc832849db2259,62c539ef07160c13dfb487cd,2022-07-06_09h30.51.568,Colour_Asymmetry_Pilot,2022.1.3,Win32,60.03121623,62c50e9c1127f2cd403a315f,0,13,13,12,1,threeone,,,,,,,,,,,,,,,,,,,,,,,,,,,,,,,,,,,,,,,,,,,,,,,,,,,,,,,,,,,,,,,,,,,,,,,,,,,,,,,,,,,,,,,,,,,,,,,,,,,,,,,,,,,,,,,,,,,,,,,,,,,,,,,,,,,,,,,,,,,,,,,,,,,,,,,,,,,,,
,,,,,,615200d54efc832849db2259,62c539ef07160c13dfb487cd,2022-07-06_09h30.51.568,Colour_Asymmetry_Pilot,2022.1.3,Win32,60.03121623,62c50e9c1127f2cd403a315f,0,14,14,26,1,twoone,,,,,,,,,,,,,,,,,,,,,,,,,,,,,,,,,,,,,,,,,,,,,,,,,,,,,,,,,,,,,,,,,,,,,,,,,,,,,,,,,,,,,,,,,,,,,,,,,,,,,,,,,,,,,,,,,,,,,,,,,,,,,,,,,,,,,,,,,,,,,,,,,,,,,,,,,,,,,
,,,,,,615200d54efc832849db2259,62c539ef07160c13dfb487cd,2022-07-06_09h30.51.568,Colour_Asymmetry_Pilot,2022.1.3,Win32,60.03121623,62c50e9c1127f2cd403a315f,0,15,15,84,1,threeone,,,,,,,,,,,,,,,,,,,,,,,,,,,,,,,,,,,,,,,,,,,,,,,,,,,,,,,,,,,,,,,,,,,,,,,,,,,,,,,,,,,,,,,,,,,,,,,,,,,,,,,,,,,,,,,,,,,,,,,,,,,,,,,,,,,,,,,,,,,,,,,,,,,,,,,,,,,,,
,,,,,,615200d54efc832849db2259,62c539ef07160c13dfb487cd,2022-07-06_09h30.51.568,Colour_Asymmetry_Pilot,2022.1.3,Win32,60.03121623,62c50e9c1127f2cd403a315f,0,16,16,75,1,twofour,,,,,,,,,,,,,,,,,,,,,,,,,,,,,,,,,,,,,,,,,,,,,,,,,,,,,,,,,,,,,,,,,,,,,,,,,,,,,,,,,,,,,,,,,,,,,,,,,,,,,,,,,,,,,,,,,,,,,,,,,,,,,,,,,,,,,,,,,,,,,,,,,,,,,,,,,,,,,
,,,,,,615200d54efc832849db2259,62c539ef07160c13dfb487cd,2022-07-06_09h30.51.568,Colour_Asymmetry_Pilot,2022.1.3,Win32,60.03121623,62c50e9c1127f2cd403a315f,0,17,17,106,1,twoone,,,,,,,,,,,,,,,,,,,,,,,,,,,,,,,,,,,,,,,,,,,,,,,,,,,,,,,,,,,,,,,,,,,,,,,,,,,,,,,,,,,,,,,,,,,,,,,,,,,,,,,,,,,,,,,,,,,,,,,,,,,,,,,,,,,,,,,,,,,,,,,,,,,,,,,,,,,,,
,,,,,,615200d54efc832849db2259,62c539ef07160c13dfb487cd,2022-07-06_09h30.51.568,Colour_Asymmetry_Pilot,2022.1.3,Win32,60.03121623,62c50e9c1127f2cd403a315f,0,18,18,159,1,fourthree,,,,,,,,,,,,,,,,,,,,,,,,,,,,,,,,,,,,,,,,,,,,,,,,,,,,,,,,,,,,,,,,,,,,,,,,,,,,,,,,,,,,,,,,,,,,,,,,,,,,,,,,,,,,,,,,,,,,,,,,,,,,,,,,,,,,,,,,,,,,,,,,,,,,,,,,,,,,,
,,,,,,615200d54efc832849db2259,62c539ef07160c13dfb487cd,2022-07-06_09h30.51.568,Colour_Asymmetry_Pilot,2022.1.3,Win32,60.03121623,62c50e9c1127f2cd403a315f,0,19,19,139,1,twofour,,,,,,,,,,,,,,,,,,,,,,,,,,,,,,,,,,,,,,,,,,,,,,,,,,,,,,,,,,,,,,,,,,,,,,,,,,,,,,,,,,,,,,,,,,,,,,,,,,,,,,,,,,,,,,,,,,,,,,,,,,,,,,,,,,,,,,,,,,,,,,,,,,,,,,,,,,,,,
,,,,,,615200d54efc832849db2259,62c539ef07160c13dfb487cd,2022-07-06_09h30.51.568,Colour_Asymmetry_Pilot,2022.1.3,Win32,60.03121623,62c50e9c1127f2cd403a315f,0,20,20,133,1,threefour,,,,,,,,,,,,,,,,,,,,,,,,,,,,,,,,,,,,,,,,,,,,,,,,,,,,,,,,,,,,,,,,,,,,,,,,,,,,,,,,,,,,,,,,,,,,,,,,,,,,,,,,,,,,,,,,,,,,,,,,,,,,,,,,,,,,,,,,,,,,,,,,,,,,,,,,,,,,,
,,,,,,615200d54efc832849db2259,62c539ef07160c13dfb487cd,2022-07-06_09h30.51.568,Colour_Asymmetry_Pilot,2022.1.3,Win32,60.03121623,62c50e9c1127f2cd403a315f,0,21,21,112,1,onetwo,,,,,,,,,,,,,,,,,,,,,,,,,,,,,,,,,,,,,,,,,,,,,,,,,,,,,,,,,,,,,,,,,,,,,,,,,,,,,,,,,,,,,,,,,,,,,,,,,,,,,,,,,,,,,,,,,,,,,,,,,,,,,,,,,,,,,,,,,,,,,,,,,,,,,,,,,,,,,
,,,,,,615200d54efc832849db2259,62c539ef07160c13dfb487cd,2022-07-06_09h30.51.568,Colour_Asymmetry_Pilot,2022.1.3,Win32,60.03121623,62c50e9c1127f2cd403a315f,0,22,22,124,1,threeone,,,,,,,,,,,,,,,,,,,,,,,,,,,,,,,,,,,,,,,,,,,,,,,,,,,,,,,,,,,,,,,,,,,,,,,,,,,,,,,,,,,,,,,,,,,,,,,,,,,,,,,,,,,,,,,,,,,,,,,,,,,,,,,,,,,,,,,,,,,,,,,,,,,,,,,,,,,,,
,,,,,,615200d54efc832849db2259,62c539ef07160c13dfb487cd,2022-07-06_09h30.51.568,Colour_Asymmetry_Pilot,2022.1.3,Win32,60.03121623,62c50e9c1127f2cd403a315f,0,23,23,3,1,twofour,,,,,,,,,,,,,,,,,,,,,,,,,,,,,,,,,,,,,,,,,,,,,,,,,,,,,,,,,,,,,,,,,,,,,,,,,,,,,,,,,,,,,,,,,,,,,,,,,,,,,,,,,,,,,,,,,,,,,,,,,,,,,,,,,,,,,,,,,,,,,,,,,,,,,,,,,,,,,
,,,,,,615200d54efc832849db2259,62c539ef07160c13dfb487cd,2022-07-06_09h30.51.568,Colour_Asymmetry_Pilot,2022.1.3,Win32,60.03121623,62c50e9c1127f2cd403a315f,0,24,24,57,1,onethree,,,,,,,,,,,,,,,,,,,,,,,,,,,,,,,,,,,,,,,,,,,,,,,,,,,,,,,,,,,,,,,,,,,,,,,,,,,,,,,,,,,,,,,,,,,,,,,,,,,,,,,,,,,,,,,,,,,,,,,,,,,,,,,,,,,,,,,,,,,,,,,,,,,,,,,,,,,,,
,,,,,,615200d54efc832849db2259,62c539ef07160c13dfb487cd,2022-07-06_09h30.51.568,Colour_Asymmetry_Pilot,2022.1.3,Win32,60.03121623,62c50e9c1127f2cd403a315f,0,25,25,59,1,twofour,,,,,,,,,,,,,,,,,,,,,,,,,,,,,,,,,,,,,,,,,,,,,,,,,,,,,,,,,,,,,,,,,,,,,,,,,,,,,,,,,,,,,,,,,,,,,,,,,,,,,,,,,,,,,,,,,,,,,,,,,,,,,,,,,,,,,,,,,,,,,,,,,,,,,,,,,,,,,
,,,,,,615200d54efc832849db2259,62c539ef07160c13dfb487cd,2022-07-06_09h30.51.568,Colour_Asymmetry_Pilot,2022.1.3,Win32,60.03121623,62c50e9c1127f2cd403a315f,0,26,26,5,1,threefour,,,,,,,,,,,,,,,,,,,,,,,,,,,,,,,,,,,,,,,,,,,,,,,,,,,,,,,,,,,,,,,,,,,,,,,,,,,,,,,,,,,,,,,,,,,,,,,,,,,,,,,,,,,,,,,,,,,,,,,,,,,,,,,,,,,,,,,,,,,,,,,,,,,,,,,,,,,,,
,,,,,,615200d54efc832849db2259,62c539ef07160c13dfb487cd,2022-07-06_09h30.51.568,Colour_Asymmetry_Pilot,2022.1.3,Win32,60.03121623,62c50e9c1127f2cd403a315f,0,27,27,62,1,fourtwo,,,,,,,,,,,,,,,,,,,,,,,,,,,,,,,,,,,,,,,,,,,,,,,,,,,,,,,,,,,,,,,,,,,,,,,,,,,,,,,,,,,,,,,,,,,,,,,,,,,,,,,,,,,,,,,,,,,,,,,,,,,,,,,,,,,,,,,,,,,,,,,,,,,,,,,,,,,,,
,,,,,,615200d54efc832849db2259,62c539ef07160c13dfb487cd,2022-07-06_09h30.51.568,Colour_Asymmetry_Pilot,2022.1.3,Win32,60.03121623,62c50e9c1127f2cd403a315f,0,28,28,158,1,fourtwo,,,,,,,,,,,,,,,,,,,,,,,,,,,,,,,,,,,,,,,,,,,,,,,,,,,,,,,,,,,,,,,,,,,,,,,,,,,,,,,,,,,,,,,,,,,,,,,,,,,,,,,,,,,,,,,,,,,,,,,,,,,,,,,,,,,,,,,,,,,,,,,,,,,,,,,,,,,,,
,,,,,,615200d54efc832849db2259,62c539ef07160c13dfb487cd,2022-07-06_09h30.51.568,Colour_Asymmetry_Pilot,2022.1.3,Win32,60.03121623,62c50e9c1127f2cd403a315f,0,29,29,8,1,onetwo,,,,,,,,,,,,,,,,,,,,,,,,,,,,,,,,,,,,,,,,,,,,,,,,,,,,,,,,,,,,,,,,,,,,,,,,,,,,,,,,,,,,,,,,,,,,,,,,,,,,,,,,,,,,,,,,,,,,,,,,,,,,,,,,,,,,,,,,,,,,,,,,,,,,,,,,,,,,,
,,,,,,615200d54efc832849db2259,62c539ef07160c13dfb487cd,2022-07-06_09h30.51.568,Colour_Asymmetry_Pilot,2022.1.3,Win32,60.03121623,62c50e9c1127f2cd403a315f,0,30,30,13,1,threefour,,,,,,,,,,,,,,,,,,,,,,,,,,,,,,,,,,,,,,,,,,,,,,,,,,,,,,,,,,,,,,,,,,,,,,,,,,,,,,,,,,,,,,,,,,,,,,,,,,,,,,,,,,,,,,,,,,,,,,,,,,,,,,,,,,,,,,,,,,,,,,,,,,,,,,,,,,,,,
,,,,,,615200d54efc832849db2259,62c539ef07160c13dfb487cd,2022-07-06_09h30.51.568,Colour_Asymmetry_Pilot,2022.1.3,Win32,60.03121623,62c50e9c1127f2cd403a315f,0,31,31,16,1,onetwo,,,,,,,,,,,,,,,,,,,,,,,,,,,,,,,,,,,,,,,,,,,,,,,,,,,,,,,,,,,,,,,,,,,,,,,,,,,,,,,,,,,,,,,,,,,,,,,,,,,,,,,,,,,,,,,,,,,,,,,,,,,,,,,,,,,,,,,,,,,,,,,,,,,,,,,,,,,,,
,,,,,,615200d54efc832849db2259,62c539ef07160c13dfb487cd,2022-07-06_09h30.51.568,Colour_Asymmetry_Pilot,2022.1.3,Win32,60.03121623,62c50e9c1127f2cd403a315f,0,32,32,90,1,twoone,,,,,,,,,,,,,,,,,,,,,,,,,,,,,,,,,,,,,,,,,,,,,,,,,,,,,,,,,,,,,,,,,,,,,,,,,,,,,,,,,,,,,,,,,,,,,,,,,,,,,,,,,,,,,,,,,,,,,,,,,,,,,,,,,,,,,,,,,,,,,,,,,,,,,,,,,,,,,
,,,,,,615200d54efc832849db2259,62c539ef07160c13dfb487cd,2022-07-06_09h30.51.568,Colour_Asymmetry_Pilot,2022.1.3,Win32,60.03121623,62c50e9c1127f2cd403a315f,0,33,33,109,1,threefour,,,,,,,,,,,,,,,,,,,,,,,,,,,,,,,,,,,,,,,,,,,,,,,,,,,,,,,,,,,,,,,,,,,,,,,,,,,,,,,,,,,,,,,,,,,,,,,,,,,,,,,,,,,,,,,,,,,,,,,,,,,,,,,,,,,,,,,,,,,,,,,,,,,,,,,,,,,,,
,,,,,,615200d54efc832849db2259,62c539ef07160c13dfb487cd,2022-07-06_09h30.51.568,Colour_Asymmetry_Pilot,2022.1.3,Win32,60.03121623,62c50e9c1127f2cd403a315f,0,34,34,22,1,fourtwo,,,,,,,,,,,,,,,,,,,,,,,,,,,,,,,,,,,,,,,,,,,,,,,,,,,,,,,,,,,,,,,,,,,,,,,,,,,,,,,,,,,,,,,,,,,,,,,,,,,,,,,,,,,,,,,,,,,,,,,,,,,,,,,,,,,,,,,,,,,,,,,,,,,,,,,,,,,,,
,,,,,,615200d54efc832849db2259,62c539ef07160c13dfb487cd,2022-07-06_09h30.51.568,Colour_Asymmetry_Pilot,2022.1.3,Win32,60.03121623,62c50e9c1127f2cd403a315f,0,35,35,19,1,twofour,,,,,,,,,,,,,,,,,,,,,,,,,,,,,,,,,,,,,,,,,,,,,,,,,,,,,,,,,,,,,,,,,,,,,,,,,,,,,,,,,,,,,,,,,,,,,,,,,,,,,,,,,,,,,,,,,,,,,,,,,,,,,,,,,,,,,,,,,,,,,,,,,,,,,,,,,,,,,
,,,,,,615200d54efc832849db2259,62c539ef07160c13dfb487cd,2022-07-06_09h30.51.568,Colour_Asymmetry_Pilot,2022.1.3,Win32,60.03121623,62c50e9c1127f2cd403a315f,0,36,36,24,1,onetwo,,,,,,,,,,,,,,,,,,,,,,,,,,,,,,,,,,,,,,,,,,,,,,,,,,,,,,,,,,,,,,,,,,,,,,,,,,,,,,,,,,,,,,,,,,,,,,,,,,,,,,,,,,,,,,,,,,,,,,,,,,,,,,,,,,,,,,,,,,,,,,,,,,,,,,,,,,,,,
,,,,,,615200d54efc832849db2259,62c539ef07160c13dfb487cd,2022-07-06_09h30.51.568,Colour_Asymmetry_Pilot,2022.1.3,Win32,60.03121623,62c50e9c1127f2cd403a315f,0,37,37,1,1,onethree,,,,,,,,,,,,,,,,,,,,,,,,,,,,,,,,,,,,,,,,,,,,,,,,,,,,,,,,,,,,,,,,,,,,,,,,,,,,,,,,,,,,,,,,,,,,,,,,,,,,,,,,,,,,,,,,,,,,,,,,,,,,,,,,,,,,,,,,,,,,,,,,,,,,,,,,,,,,,
,,,,,,615200d54efc832849db2259,62c539ef07160c13dfb487cd,2022-07-06_09h30.51.568,Colour_Asymmetry_Pilot,2022.1.3,Win32,60.03121623,62c50e9c1127f2cd403a315f,0,38,38,9,1,onethree,,,,,,,,,,,,,,,,,,,,,,,,,,,,,,,,,,,,,,,,,,,,,,,,,,,,,,,,,,,,,,,,,,,,,,,,,,,,,,,,,,,,,,,,,,,,,,,,,,,,,,,,,,,,,,,,,,,,,,,,,,,,,,,,,,,,,,,,,,,,,,,,,,,,,,,,,,,,,
,,,,,,615200d54efc832849db2259,62c539ef07160c13dfb487cd,2022-07-06_09h30.51.568,Colour_Asymmetry_Pilot,2022.1.3,Win32,60.03121623,62c50e9c1127f2cd403a315f,0,39,39,117,1,threefour,,,,,,,,,,,,,,,,,,,,,,,,,,,,,,,,,,,,,,,,,,,,,,,,,,,,,,,,,,,,,,,,,,,,,,,,,,,,,,,,,,,,,,,,,,,,,,,,,,,,,,,,,,,,,,,,,,,,,,,,,,,,,,,,,,,,,,,,,,,,,,,,,,,,,,,,,,,,,
,,,,,,615200d54efc832849db2259,62c539ef07160c13dfb487cd,2022-07-06_09h30.51.568,Colour_Asymmetry_Pilot,2022.1.3,Win32,60.03121623,62c50e9c1127f2cd403a315f,0,40,40,20,1,threeone,,,,,,,,,,,,,,,,,,,,,,,,,,,,,,,,,,,,,,,,,,,,,,,,,,,,,,,,,,,,,,,,,,,,,,,,,,,,,,,,,,,,,,,,,,,,,,,,,,,,,,,,,,,,,,,,,,,,,,,,,,,,,,,,,,,,,,,,,,,,,,,,,,,,,,,,,,,,,
,,,,,,615200d54efc832849db2259,62c539ef07160c13dfb487cd,2022-07-06_09h30.51.568,Colour_Asymmetry_Pilot,2022.1.3,Win32,60.03121623,62c50e9c1127f2cd403a315f,0,41,41,103,1,fourthree,,,,,,,,,,,,,,,,,,,,,,,,,,,,,,,,,,,,,,,,,,,,,,,,,,,,,,,,,,,,,,,,,,,,,,,,,,,,,,,,,,,,,,,,,,,,,,,,,,,,,,,,,,,,,,,,,,,,,,,,,,,,,,,,,,,,,,,,,,,,,,,,,,,,,,,,,,,,,
,,,,,,615200d54efc832849db2259,62c539ef07160c13dfb487cd,2022-07-06_09h30.51.568,Colour_Asymmetry_Pilot,2022.1.3,Win32,60.03121623,62c50e9c1127f2cd403a315f,0,42,42,136,1,onetwo,,,,,,,,,,,,,,,,,,,,,,,,,,,,,,,,,,,,,,,,,,,,,,,,,,,,,,,,,,,,,,,,,,,,,,,,,,,,,,,,,,,,,,,,,,,,,,,,,,,,,,,,,,,,,,,,,,,,,,,,,,,,,,,,,,,,,,,,,,,,,,,,,,,,,,,,,,,,,
,,,,,,615200d54efc832849db2259,62c539ef07160c13dfb487cd,2022-07-06_09h30.51.568,Colour_Asymmetry_Pilot,2022.1.3,Win32,60.03121623,62c50e9c1127f2cd403a315f,0,43,43,83,1,twofour,,,,,,,,,,,,,,,,,,,,,,,,,,,,,,,,,,,,,,,,,,,,,,,,,,,,,,,,,,,,,,,,,,,,,,,,,,,,,,,,,,,,,,,,,,,,,,,,,,,,,,,,,,,,,,,,,,,,,,,,,,,,,,,,,,,,,,,,,,,,,,,,,,,,,,,,,,,,,
,,,,,,615200d54efc832849db2259,62c539ef07160c13dfb487cd,2022-07-06_09h30.51.568,Colour_Asymmetry_Pilot,2022.1.3,Win32,60.03121623,62c50e9c1127f2cd403a315f,0,44,44,58,1,twoone,,,,,,,,,,,,,,,,,,,,,,,,,,,,,,,,,,,,,,,,,,,,,,,,,,,,,,,,,,,,,,,,,,,,,,,,,,,,,,,,,,,,,,,,,,,,,,,,,,,,,,,,,,,,,,,,,,,,,,,,,,,,,,,,,,,,,,,,,,,,,,,,,,,,,,,,,,,,,
,,,,,,615200d54efc832849db2259,62c539ef07160c13dfb487cd,2022-07-06_09h30.51.568,Colour_Asymmetry_Pilot,2022.1.3,Win32,60.03121623,62c50e9c1127f2cd403a315f,0,45,45,29,1,threefour,,,,,,,,,,,,,,,,,,,,,,,,,,,,,,,,,,,,,,,,,,,,,,,,,,,,,,,,,,,,,,,,,,,,,,,,,,,,,,,,,,,,,,,,,,,,,,,,,,,,,,,,,,,,,,,,,,,,,,,,,,,,,,,,,,,,,,,,,,,,,,,,,,,,,,,,,,,,,
,,,,,,615200d54efc832849db2259,62c539ef07160c13dfb487cd,2022-07-06_09h30.51.568,Colour_Asymmetry_Pilot,2022.1.3,Win32,60.03121623,62c50e9c1127f2cd403a315f,0,46,46,104,1,onetwo,,,,,,,,,,,,,,,,,,,,,,,,,,,,,,,,,,,,,,,,,,,,,,,,,,,,,,,,,,,,,,,,,,,,,,,,,,,,,,,,,,,,,,,,,,,,,,,,,,,,,,,,,,,,,,,,,,,,,,,,,,,,,,,,,,,,,,,,,,,,,,,,,,,,,,,,,,,,,
,,,,,,615200d54efc832849db2259,62c539ef07160c13dfb487cd,2022-07-06_09h30.51.568,Colour_Asymmetry_Pilot,2022.1.3,Win32,60.03121623,62c50e9c1127f2cd403a315f,0,47,47,18,1,twoone,,,,,,,,,,,,,,,,,,,,,,,,,,,,,,,,,,,,,,,,,,,,,,,,,,,,,,,,,,,,,,,,,,,,,,,,,,,,,,,,,,,,,,,,,,,,,,,,,,,,,,,,,,,,,,,,,,,,,,,,,,,,,,,,,,,,,,,,,,,,,,,,,,,,,,,,,,,,,
,,,,,,615200d54efc832849db2259,62c539ef07160c13dfb487cd,2022-07-06_09h30.51.568,Colour_Asymmetry_Pilot,2022.1.3,Win32,60.03121623,62c50e9c1127f2cd403a315f,0,48,48,7,1,fourthree,,,,,,,,,,,,,,,,,,,,,,,,,,,,,,,,,,,,,,,,,,,,,,,,,,,,,,,,,,,,,,,,,,,,,,,,,,,,,,,,,,,,,,,,,,,,,,,,,,,,,,,,,,,,,,,,,,,,,,,,,,,,,,,,,,,,,,,,,,,,,,,,,,,,,,,,,,,,,
,,,,,,615200d54efc832849db2259,62c539ef07160c13dfb487cd,2022-07-06_09h30.51.568,Colour_Asymmetry_Pilot,2022.1.3,Win32,60.03121623,62c50e9c1127f2cd403a315f,0,49,49,39,1,fourthree,,,,,,,,,,,,,,,,,,,,,,,,,,,,,,,,,,,,,,,,,,,,,,,,,,,,,,,,,,,,,,,,,,,,,,,,,,,,,,,,,,,,,,,,,,,,,,,,,,,,,,,,,,,,,,,,,,,,,,,,,,,,,,,,,,,,,,,,,,,,,,,,,,,,,,,,,,,,,
,,,,,,615200d54efc832849db2259,62c539ef07160c13dfb487cd,2022-07-06_09h30.51.568,Colour_Asymmetry_Pilot,2022.1.3,Win32,60.03121623,62c50e9c1127f2cd403a315f,0,50,50,42,1,twoone,,,,,,,,,,,,,,,,,,,,,,,,,,,,,,,,,,,,,,,,,,,,,,,,,,,,,,,,,,,,,,,,,,,,,,,,,,,,,,,,,,,,,,,,,,,,,,,,,,,,,,,,,,,,,,,,,,,,,,,,,,,,,,,,,,,,,,,,,,,,,,,,,,,,,,,,,,,,,
,,,,,,615200d54efc832849db2259,62c539ef07160c13dfb487cd,2022-07-06_09h30.51.568,Colour_Asymmetry_Pilot,2022.1.3,Win32,60.03121623,62c50e9c1127f2cd403a315f,0,51,51,70,1,fourtwo,,,,,,,,,,,,,,,,,,,,,,,,,,,,,,,,,,,,,,,,,,,,,,,,,,,,,,,,,,,,,,,,,,,,,,,,,,,,,,,,,,,,,,,,,,,,,,,,,,,,,,,,,,,,,,,,,,,,,,,,,,,,,,,,,,,,,,,,,,,,,,,,,,,,,,,,,,,,,
,,,,,,615200d54efc832849db2259,62c539ef07160c13dfb487cd,2022-07-06_09h30.51.568,Colour_Asymmetry_Pilot,2022.1.3,Win32,60.03121623,62c50e9c1127f2cd403a315f,0,52,52,87,1,fourthree,,,,,,,,,,,,,,,,,,,,,,,,,,,,,,,,,,,,,,,,,,,,,,,,,,,,,,,,,,,,,,,,,,,,,,,,,,,,,,,,,,,,,,,,,,,,,,,,,,,,,,,,,,,,,,,,,,,,,,,,,,,,,,,,,,,,,,,,,,,,,,,,,,,,,,,,,,,,,
,,,,,,615200d54efc832849db2259,62c539ef07160c13dfb487cd,2022-07-06_09h30.51.568,Colour_Asymmetry_Pilot,2022.1.3,Win32,60.03121623,62c50e9c1127f2cd403a315f,0,53,53,101,1,threefour,,,,,,,,,,,,,,,,,,,,,,,,,,,,,,,,,,,,,,,,,,,,,,,,,,,,,,,,,,,,,,,,,,,,,,,,,,,,,,,,,,,,,,,,,,,,,,,,,,,,,,,,,,,,,,,,,,,,,,,,,,,,,,,,,,,,,,,,,,,,,,,,,,,,,,,,,,,,,
,,,,,,615200d54efc832849db2259,62c539ef07160c13dfb487cd,2022-07-06_09h30.51.568,Colour_Asymmetry_Pilot,2022.1.3,Win32,60.03121623,62c50e9c1127f2cd403a315f,0,54,54,37,1,threefour,,,,,,,,,,,,,,,,,,,,,,,,,,,,,,,,,,,,,,,,,,,,,,,,,,,,,,,,,,,,,,,,,,,,,,,,,,,,,,,,,,,,,,,,,,,,,,,,,,,,,,,,,,,,,,,,,,,,,,,,,,,,,,,,,,,,,,,,,,,,,,,,,,,,,,,,,,,,,
,,,,,,615200d54efc832849db2259,62c539ef07160c13dfb487cd,2022-07-06_09h30.51.568,Colour_Asymmetry_Pilot,2022.1.3,Win32,60.03121623,62c50e9c1127f2cd403a315f,0,55,55,100,1,threeone,,,,,,,,,,,,,,,,,,,,,,,,,,,,,,,,,,,,,,,,,,,,,,,,,,,,,,,,,,,,,,,,,,,,,,,,,,,,,,,,,,,,,,,,,,,,,,,,,,,,,,,,,,,,,,,,,,,,,,,,,,,,,,,,,,,,,,,,,,,,,,,,,,,,,,,,,,,,,
,,,,,,615200d54efc832849db2259,62c539ef07160c13dfb487cd,2022-07-06_09h30.51.568,Colour_Asymmetry_Pilot,2022.1.3,Win32,60.03121623,62c50e9c1127f2cd403a315f,0,56,56,108,1,threeone,,,,,,,,,,,,,,,,,,,,,,,,,,,,,,,,,,,,,,,,,,,,,,,,,,,,,,,,,,,,,,,,,,,,,,,,,,,,,,,,,,,,,,,,,,,,,,,,,,,,,,,,,,,,,,,,,,,,,,,,,,,,,,,,,,,,,,,,,,,,,,,,,,,,,,,,,,,,,
,,,,,,615200d54efc832849db2259,62c539ef07160c13dfb487cd,2022-07-06_09h30.51.568,Colour_Asymmetry_Pilot,2022.1.3,Win32,60.03121623,62c50e9c1127f2cd403a315f,0,57,57,150,1,fourtwo,,,,,,,,,,,,,,,,,,,,,,,,,,,,,,,,,,,,,,,,,,,,,,,,,,,,,,,,,,,,,,,,,,,,,,,,,,,,,,,,,,,,,,,,,,,,,,,,,,,,,,,,,,,,,,,,,,,,,,,,,,,,,,,,,,,,,,,,,,,,,,,,,,,,,,,,,,,,,
,,,,,,615200d54efc832849db2259,62c539ef07160c13dfb487cd,2022-07-06_09h30.51.568,Colour_Asymmetry_Pilot,2022.1.3,Win32,60.03121623,62c50e9c1127f2cd403a315f,0,58,58,56,1,onetwo,,,,,,,,,,,,,,,,,,,,,,,,,,,,,,,,,,,,,,,,,,,,,,,,,,,,,,,,,,,,,,,,,,,,,,,,,,,,,,,,,,,,,,,,,,,,,,,,,,,,,,,,,,,,,,,,,,,,,,,,,,,,,,,,,,,,,,,,,,,,,,,,,,,,,,,,,,,,,
,,,,,,615200d54efc832849db2259,62c539ef07160c13dfb487cd,2022-07-06_09h30.51.568,Colour_Asymmetry_Pilot,2022.1.3,Win32,60.03121623,62c50e9c1127f2cd403a315f,0,59,59,93,1,threefour,,,,,,,,,,,,,,,,,,,,,,,,,,,,,,,,,,,,,,,,,,,,,,,,,,,,,,,,,,,,,,,,,,,,,,,,,,,,,,,,,,,,,,,,,,,,,,,,,,,,,,,,,,,,,,,,,,,,,,,,,,,,,,,,,,,,,,,,,,,,,,,,,,,,,,,,,,,,,
,,,,,,615200d54efc832849db2259,62c539ef07160c13dfb487cd,2022-07-06_09h30.51.568,Colour_Asymmetry_Pilot,2022.1.3,Win32,60.03121623,62c50e9c1127f2cd403a315f,0,60,60,92,1,threeone,,,,,,,,,,,,,,,,,,,,,,,,,,,,,,,,,,,,,,,,,,,,,,,,,,,,,,,,,,,,,,,,,,,,,,,,,,,,,,,,,,,,,,,,,,,,,,,,,,,,,,,,,,,,,,,,,,,,,,,,,,,,,,,,,,,,,,,,,,,,,,,,,,,,,,,,,,,,,
,,,,,,615200d54efc832849db2259,62c539ef07160c13dfb487cd,2022-07-06_09h30.51.568,Colour_Asymmetry_Pilot,2022.1.3,Win32,60.03121623,62c50e9c1127f2cd403a315f,0,61,61,61,1,threefour,,,,,,,,,,,,,,,,,,,,,,,,,,,,,,,,,,,,,,,,,,,,,,,,,,,,,,,,,,,,,,,,,,,,,,,,,,,,,,,,,,,,,,,,,,,,,,,,,,,,,,,,,,,,,,,,,,,,,,,,,,,,,,,,,,,,,,,,,,,,,,,,,,,,,,,,,,,,,
,,,,,,615200d54efc832849db2259,62c539ef07160c13dfb487cd,2022-07-06_09h30.51.568,Colour_Asymmetry_Pilot,2022.1.3,Win32,60.03121623,62c50e9c1127f2cd403a315f,0,62,62,122,1,twoone,,,,,,,,,,,,,,,,,,,,,,,,,,,,,,,,,,,,,,,,,,,,,,,,,,,,,,,,,,,,,,,,,,,,,,,,,,,,,,,,,,,,,,,,,,,,,,,,,,,,,,,,,,,,,,,,,,,,,,,,,,,,,,,,,,,,,,,,,,,,,,,,,,,,,,,,,,,,,
,,,,,,615200d54efc832849db2259,62c539ef07160c13dfb487cd,2022-07-06_09h30.51.568,Colour_Asymmetry_Pilot,2022.1.3,Win32,60.03121623,62c50e9c1127f2cd403a315f,0,63,63,123,1,twofour,,,,,,,,,,,,,,,,,,,,,,,,,,,,,,,,,,,,,,,,,,,,,,,,,,,,,,,,,,,,,,,,,,,,,,,,,,,,,,,,,,,,,,,,,,,,,,,,,,,,,,,,,,,,,,,,,,,,,,,,,,,,,,,,,,,,,,,,,,,,,,,,,,,,,,,,,,,,,
,,,,,,615200d54efc832849db2259,62c539ef07160c13dfb487cd,2022-07-06_09h30.51.568,Colour_Asymmetry_Pilot,2022.1.3,Win32,60.03121623,62c50e9c1127f2cd403a315f,0,64,64,127,1,fourthree,,,,,,,,,,,,,,,,,,,,,,,,,,,,,,,,,,,,,,,,,,,,,,,,,,,,,,,,,,,,,,,,,,,,,,,,,,,,,,,,,,,,,,,,,,,,,,,,,,,,,,,,,,,,,,,,,,,,,,,,,,,,,,,,,,,,,,,,,,,,,,,,,,,,,,,,,,,,,
,,,,,,615200d54efc832849db2259,62c539ef07160c13dfb487cd,2022-07-06_09h30.51.568,Colour_Asymmetry_Pilot,2022.1.3,Win32,60.03121623,62c50e9c1127f2cd403a315f,0,65,65,138,1,twoone,,,,,,,,,,,,,,,,,,,,,,,,,,,,,,,,,,,,,,,,,,,,,,,,,,,,,,,,,,,,,,,,,,,,,,,,,,,,,,,,,,,,,,,,,,,,,,,,,,,,,,,,,,,,,,,,,,,,,,,,,,,,,,,,,,,,,,,,,,,,,,,,,,,,,,,,,,,,,
,,,,,,615200d54efc832849db2259,62c539ef07160c13dfb487cd,2022-07-06_09h30.51.568,Colour_Asymmetry_Pilot,2022.1.3,Win32,60.03121623,62c50e9c1127f2cd403a315f,0,66,66,147,1,twofour,,,,,,,,,,,,,,,,,,,,,,,,,,,,,,,,,,,,,,,,,,,,,,,,,,,,,,,,,,,,,,,,,,,,,,,,,,,,,,,,,,,,,,,,,,,,,,,,,,,,,,,,,,,,,,,,,,,,,,,,,,,,,,,,,,,,,,,,,,,,,,,,,,,,,,,,,,,,,
,,,,,,615200d54efc832849db2259,62c539ef07160c13dfb487cd,2022-07-06_09h30.51.568,Colour_Asymmetry_Pilot,2022.1.3,Win32,60.03121623,62c50e9c1127f2cd403a315f,0,67,67,151,1,fourthree,,,,,,,,,,,,,,,,,,,,,,,,,,,,,,,,,,,,,,,,,,,,,,,,,,,,,,,,,,,,,,,,,,,,,,,,,,,,,,,,,,,,,,,,,,,,,,,,,,,,,,,,,,,,,,,,,,,,,,,,,,,,,,,,,,,,,,,,,,,,,,,,,,,,,,,,,,,,,
,,,,,,615200d54efc832849db2259,62c539ef07160c13dfb487cd,2022-07-06_09h30.51.568,Colour_Asymmetry_Pilot,2022.1.3,Win32,60.03121623,62c50e9c1127f2cd403a315f,0,68,68,32,1,onetwo,,,,,,,,,,,,,,,,,,,,,,,,,,,,,,,,,,,,,,,,,,,,,,,,,,,,,,,,,,,,,,,,,,,,,,,,,,,,,,,,,,,,,,,,,,,,,,,,,,,,,,,,,,,,,,,,,,,,,,,,,,,,,,,,,,,,,,,,,,,,,,,,,,,,,,,,,,,,,
,,,,,,615200d54efc832849db2259,62c539ef07160c13dfb487cd,2022-07-06_09h30.51.568,Colour_Asymmetry_Pilot,2022.1.3,Win32,60.03121623,62c50e9c1127f2cd403a315f,0,69,69,21,1,threefour,,,,,,,,,,,,,,,,,,,,,,,,,,,,,,,,,,,,,,,,,,,,,,,,,,,,,,,,,,,,,,,,,,,,,,,,,,,,,,,,,,,,,,,,,,,,,,,,,,,,,,,,,,,,,,,,,,,,,,,,,,,,,,,,,,,,,,,,,,,,,,,,,,,,,,,,,,,,,
,,,,,,615200d54efc832849db2259,62c539ef07160c13dfb487cd,2022-07-06_09h30.51.568,Colour_Asymmetry_Pilot,2022.1.3,Win32,60.03121623,62c50e9c1127f2cd403a315f,0,70,70,120,1,onetwo,,,,,,,,,,,,,,,,,,,,,,,,,,,,,,,,,,,,,,,,,,,,,,,,,,,,,,,,,,,,,,,,,,,,,,,,,,,,,,,,,,,,,,,,,,,,,,,,,,,,,,,,,,,,,,,,,,,,,,,,,,,,,,,,,,,,,,,,,,,,,,,,,,,,,,,,,,,,,
,,,,,,615200d54efc832849db2259,62c539ef07160c13dfb487cd,2022-07-06_09h30.51.568,Colour_Asymmetry_Pilot,2022.1.3,Win32,60.03121623,62c50e9c1127f2cd403a315f,0,71,71,111,1,fourthree,,,,,,,,,,,,,,,,,,,,,,,,,,,,,,,,,,,,,,,,,,,,,,,,,,,,,,,,,,,,,,,,,,,,,,,,,,,,,,,,,,,,,,,,,,,,,,,,,,,,,,,,,,,,,,,,,,,,,,,,,,,,,,,,,,,,,,,,,,,,,,,,,,,,,,,,,,,,,
,,,,,,615200d54efc832849db2259,62c539ef07160c13dfb487cd,2022-07-06_09h30.51.568,Colour_Asymmetry_Pilot,2022.1.3,Win32,60.03121623,62c50e9c1127f2cd403a315f,0,72,72,115,1,twofour,,,,,,,,,,,,,,,,,,,,,,,,,,,,,,,,,,,,,,,,,,,,,,,,,,,,,,,,,,,,,,,,,,,,,,,,,,,,,,,,,,,,,,,,,,,,,,,,,,,,,,,,,,,,,,,,,,,,,,,,,,,,,,,,,,,,,,,,,,,,,,,,,,,,,,,,,,,,,
,,,,,,615200d54efc832849db2259,62c539ef07160c13dfb487cd,2022-07-06_09h30.51.568,Colour_Asymmetry_Pilot,2022.1.3,Win32,60.03121623,62c50e9c1127f2cd403a315f,0,73,73,91,1,twofour,,,,,,,,,,,,,,,,,,,,,,,,,,,,,,,,,,,,,,,,,,,,,,,,,,,,,,,,,,,,,,,,,,,,,,,,,,,,,,,,,,,,,,,,,,,,,,,,,,,,,,,,,,,,,,,,,,,,,,,,,,,,,,,,,,,,,,,,,,,,,,,,,,,,,,,,,,,,,
,,,,,,615200d54efc832849db2259,62c539ef07160c13dfb487cd,2022-07-06_09h30.51.568,Colour_Asymmetry_Pilot,2022.1.3,Win32,60.03121623,62c50e9c1127f2cd403a315f,0,74,74,77,1,threefour,,,,,,,,,,,,,,,,,,,,,,,,,,,,,,,,,,,,,,,,,,,,,,,,,,,,,,,,,,,,,,,,,,,,,,,,,,,,,,,,,,,,,,,,,,,,,,,,,,,,,,,,,,,,,,,,,,,,,,,,,,,,,,,,,,,,,,,,,,,,,,,,,,,,,,,,,,,,,
,,,,,,615200d54efc832849db2259,62c539ef07160c13dfb487cd,2022-07-06_09h30.51.568,Colour_Asymmetry_Pilot,2022.1.3,Win32,60.03121623,62c50e9c1127f2cd403a315f,0,75,75,69,1,threefour,,,,,,,,,,,,,,,,,,,,,,,,,,,,,,,,,,,,,,,,,,,,,,,,,,,,,,,,,,,,,,,,,,,,,,,,,,,,,,,,,,,,,,,,,,,,,,,,,,,,,,,,,,,,,,,,,,,,,,,,,,,,,,,,,,,,,,,,,,,,,,,,,,,,,,,,,,,,,
,,,,,,615200d54efc832849db2259,62c539ef07160c13dfb487cd,2022-07-06_09h30.51.568,Colour_Asymmetry_Pilot,2022.1.3,Win32,60.03121623,62c50e9c1127f2cd403a315f,0,76,76,71,1,fourthree,,,,,,,,,,,,,,,,,,,,,,,,,,,,,,,,,,,,,,,,,,,,,,,,,,,,,,,,,,,,,,,,,,,,,,,,,,,,,,,,,,,,,,,,,,,,,,,,,,,,,,,,,,,,,,,,,,,,,,,,,,,,,,,,,,,,,,,,,,,,,,,,,,,,,,,,,,,,,
,,,,,,615200d54efc832849db2259,62c539ef07160c13dfb487cd,2022-07-06_09h30.51.568,Colour_Asymmetry_Pilot,2022.1.3,Win32,60.03121623,62c50e9c1127f2cd403a315f,0,77,77,23,1,fourthree,,,,,,,,,,,,,,,,,,,,,,,,,,,,,,,,,,,,,,,,,,,,,,,,,,,,,,,,,,,,,,,,,,,,,,,,,,,,,,,,,,,,,,,,,,,,,,,,,,,,,,,,,,,,,,,,,,,,,,,,,,,,,,,,,,,,,,,,,,,,,,,,,,,,,,,,,,,,,
,,,,,,615200d54efc832849db2259,62c539ef07160c13dfb487cd,2022-07-06_09h30.51.568,Colour_Asymmetry_Pilot,2022.1.3,Win32,60.03121623,62c50e9c1127f2cd403a315f,0,78,78,153,1,onethree,,,,,,,,,,,,,,,,,,,,,,,,,,,,,,,,,,,,,,,,,,,,,,,,,,,,,,,,,,,,,,,,,,,,,,,,,,,,,,,,,,,,,,,,,,,,,,,,,,,,,,,,,,,,,,,,,,,,,,,,,,,,,,,,,,,,,,,,,,,,,,,,,,,,,,,,,,,,,
,,,,,,615200d54efc832849db2259,62c539ef07160c13dfb487cd,2022-07-06_09h30.51.568,Colour_Asymmetry_Pilot,2022.1.3,Win32,60.03121623,62c50e9c1127f2cd403a315f,0,79,79,47,1,fourthree,,,,,,,,,,,,,,,,,,,,,,,,,,,,,,,,,,,,,,,,,,,,,,,,,,,,,,,,,,,,,,,,,,,,,,,,,,,,,,,,,,,,,,,,,,,,,,,,,,,,,,,,,,,,,,,,,,,,,,,,,,,,,,,,,,,,,,,,,,,,,,,,,,,,,,,,,,,,,
,,,,,,615200d54efc832849db2259,62c539ef07160c13dfb487cd,2022-07-06_09h30.51.568,Colour_Asymmetry_Pilot,2022.1.3,Win32,60.03121623,62c50e9c1127f2cd403a315f,0,80,80,25,1,onethree,,,,,,,,,,,,,,,,,,,,,,,,,,,,,,,,,,,,,,,,,,,,,,,,,,,,,,,,,,,,,,,,,,,,,,,,,,,,,,,,,,,,,,,,,,,,,,,,,,,,,,,,,,,,,,,,,,,,,,,,,,,,,,,,,,,,,,,,,,,,,,,,,,,,,,,,,,,,,
,,,,,,615200d54efc832849db2259,62c539ef07160c13dfb487cd,2022-07-06_09h30.51.568,Colour_Asymmetry_Pilot,2022.1.3,Win32,60.03121623,62c50e9c1127f2cd403a315f,0,81,81,134,1,fourtwo,,,,,,,,,,,,,,,,,,,,,,,,,,,,,,,,,,,,,,,,,,,,,,,,,,,,,,,,,,,,,,,,,,,,,,,,,,,,,,,,,,,,,,,,,,,,,,,,,,,,,,,,,,,,,,,,,,,,,,,,,,,,,,,,,,,,,,,,,,,,,,,,,,,,,,,,,,,,,
,,,,,,615200d54efc832849db2259,62c539ef07160c13dfb487cd,2022-07-06_09h30.51.568,Colour_Asymmetry_Pilot,2022.1.3,Win32,60.03121623,62c50e9c1127f2cd403a315f,0,82,82,95,1,fourthree,,,,,,,,,,,,,,,,,,,,,,,,,,,,,,,,,,,,,,,,,,,,,,,,,,,,,,,,,,,,,,,,,,,,,,,,,,,,,,,,,,,,,,,,,,,,,,,,,,,,,,,,,,,,,,,,,,,,,,,,,,,,,,,,,,,,,,,,,,,,,,,,,,,,,,,,,,,,,
,,,,,,615200d54efc832849db2259,62c539ef07160c13dfb487cd,2022-07-06_09h30.51.568,Colour_Asymmetry_Pilot,2022.1.3,Win32,60.03121623,62c50e9c1127f2cd403a315f,0,83,83,28,1,threeone,,,,,,,,,,,,,,,,,,,,,,,,,,,,,,,,,,,,,,,,,,,,,,,,,,,,,,,,,,,,,,,,,,,,,,,,,,,,,,,,,,,,,,,,,,,,,,,,,,,,,,,,,,,,,,,,,,,,,,,,,,,,,,,,,,,,,,,,,,,,,,,,,,,,,,,,,,,,,
,,,,,,615200d54efc832849db2259,62c539ef07160c13dfb487cd,2022-07-06_09h30.51.568,Colour_Asymmetry_Pilot,2022.1.3,Win32,60.03121623,62c50e9c1127f2cd403a315f,0,84,84,81,1,onethree,,,,,,,,,,,,,,,,,,,,,,,,,,,,,,,,,,,,,,,,,,,,,,,,,,,,,,,,,,,,,,,,,,,,,,,,,,,,,,,,,,,,,,,,,,,,,,,,,,,,,,,,,,,,,,,,,,,,,,,,,,,,,,,,,,,,,,,,,,,,,,,,,,,,,,,,,,,,,
,,,,,,615200d54efc832849db2259,62c539ef07160c13dfb487cd,2022-07-06_09h30.51.568,Colour_Asymmetry_Pilot,2022.1.3,Win32,60.03121623,62c50e9c1127f2cd403a315f,0,85,85,34,1,twoone,,,,,,,,,,,,,,,,,,,,,,,,,,,,,,,,,,,,,,,,,,,,,,,,,,,,,,,,,,,,,,,,,,,,,,,,,,,,,,,,,,,,,,,,,,,,,,,,,,,,,,,,,,,,,,,,,,,,,,,,,,,,,,,,,,,,,,,,,,,,,,,,,,,,,,,,,,,,,
,,,,,,615200d54efc832849db2259,62c539ef07160c13dfb487cd,2022-07-06_09h30.51.568,Colour_Asymmetry_Pilot,2022.1.3,Win32,60.03121623,62c50e9c1127f2cd403a315f,0,86,86,94,1,fourtwo,,,,,,,,,,,,,,,,,,,,,,,,,,,,,,,,,,,,,,,,,,,,,,,,,,,,,,,,,,,,,,,,,,,,,,,,,,,,,,,,,,,,,,,,,,,,,,,,,,,,,,,,,,,,,,,,,,,,,,,,,,,,,,,,,,,,,,,,,,,,,,,,,,,,,,,,,,,,,
,,,,,,615200d54efc832849db2259,62c539ef07160c13dfb487cd,2022-07-06_09h30.51.568,Colour_Asymmetry_Pilot,2022.1.3,Win32,60.03121623,62c50e9c1127f2cd403a315f,0,87,87,116,1,threeone,,,,,,,,,,,,,,,,,,,,,,,,,,,,,,,,,,,,,,,,,,,,,,,,,,,,,,,,,,,,,,,,,,,,,,,,,,,,,,,,,,,,,,,,,,,,,,,,,,,,,,,,,,,,,,,,,,,,,,,,,,,,,,,,,,,,,,,,,,,,,,,,,,,,,,,,,,,,,
,,,,,,615200d54efc832849db2259,62c539ef07160c13dfb487cd,2022-07-06_09h30.51.568,Colour_Asymmetry_Pilot,2022.1.3,Win32,60.03121623,62c50e9c1127f2cd403a315f,0,88,88,146,1,twoone,,,,,,,,,,,,,,,,,,,,,,,,,,,,,,,,,,,,,,,,,,,,,,,,,,,,,,,,,,,,,,,,,,,,,,,,,,,,,,,,,,,,,,,,,,,,,,,,,,,,,,,,,,,,,,,,,,,,,,,,,,,,,,,,,,,,,,,,,,,,,,,,,,,,,,,,,,,,,
,,,,,,615200d54efc832849db2259,62c539ef07160c13dfb487cd,2022-07-06_09h30.51.568,Colour_Asymmetry_Pilot,2022.1.3,Win32,60.03121623,62c50e9c1127f2cd403a315f,0,89,89,15,1,fourthree,,,,,,,,,,,,,,,,,,,,,,,,,,,,,,,,,,,,,,,,,,,,,,,,,,,,,,,,,,,,,,,,,,,,,,,,,,,,,,,,,,,,,,,,,,,,,,,,,,,,,,,,,,,,,,,,,,,,,,,,,,,,,,,,,,,,,,,,,,,,,,,,,,,,,,,,,,,,,
,,,,,,615200d54efc832849db2259,62c539ef07160c13dfb487cd,2022-07-06_09h30.51.568,Colour_Asymmetry_Pilot,2022.1.3,Win32,60.03121623,62c50e9c1127f2cd403a315f,0,90,90,110,1,fourtwo,,,,,,,,,,,,,,,,,,,,,,,,,,,,,,,,,,,,,,,,,,,,,,,,,,,,,,,,,,,,,,,,,,,,,,,,,,,,,,,,,,,,,,,,,,,,,,,,,,,,,,,,,,,,,,,,,,,,,,,,,,,,,,,,,,,,,,,,,,,,,,,,,,,,,,,,,,,,,
,,,,,,615200d54efc832849db2259,62c539ef07160c13dfb487cd,2022-07-06_09h30.51.568,Colour_Asymmetry_Pilot,2022.1.3,Win32,60.03121623,62c50e9c1127f2cd403a315f,0,91,91,97,1,onethree,,,,,,,,,,,,,,,,,,,,,,,,,,,,,,,,,,,,,,,,,,,,,,,,,,,,,,,,,,,,,,,,,,,,,,,,,,,,,,,,,,,,,,,,,,,,,,,,,,,,,,,,,,,,,,,,,,,,,,,,,,,,,,,,,,,,,,,,,,,,,,,,,,,,,,,,,,,,,
,,,,,,615200d54efc832849db2259,62c539ef07160c13dfb487cd,2022-07-06_09h30.51.568,Colour_Asymmetry_Pilot,2022.1.3,Win32,60.03121623,62c50e9c1127f2cd403a315f,0,92,92,125,1,threefour,,,,,,,,,,,,,,,,,,,,,,,,,,,,,,,,,,,,,,,,,,,,,,,,,,,,,,,,,,,,,,,,,,,,,,,,,,,,,,,,,,,,,,,,,,,,,,,,,,,,,,,,,,,,,,,,,,,,,,,,,,,,,,,,,,,,,,,,,,,,,,,,,,,,,,,,,,,,,
,,,,,,615200d54efc832849db2259,62c539ef07160c13dfb487cd,2022-07-06_09h30.51.568,Colour_Asymmetry_Pilot,2022.1.3,Win32,60.03121623,62c50e9c1127f2cd403a315f,0,93,93,144,1,onetwo,,,,,,,,,,,,,,,,,,,,,,,,,,,,,,,,,,,,,,,,,,,,,,,,,,,,,,,,,,,,,,,,,,,,,,,,,,,,,,,,,,,,,,,,,,,,,,,,,,,,,,,,,,,,,,,,,,,,,,,,,,,,,,,,,,,,,,,,,,,,,,,,,,,,,,,,,,,,,
,,,,,,615200d54efc832849db2259,62c539ef07160c13dfb487cd,2022-07-06_09h30.51.568,Colour_Asymmetry_Pilot,2022.1.3,Win32,60.03121623,62c50e9c1127f2cd403a315f,0,94,94,107,1,twofour,,,,,,,,,,,,,,,,,,,,,,,,,,,,,,,,,,,,,,,,,,,,,,,,,,,,,,,,,,,,,,,,,,,,,,,,,,,,,,,,,,,,,,,,,,,,,,,,,,,,,,,,,,,,,,,,,,,,,,,,,,,,,,,,,,,,,,,,,,,,,,,,,,,,,,,,,,,,,
,,,,,,615200d54efc832849db2259,62c539ef07160c13dfb487cd,2022-07-06_09h30.51.568,Colour_Asymmetry_Pilot,2022.1.3,Win32,60.03121623,62c50e9c1127f2cd403a315f,0,95,95,82,1,twoone,,,,,,,,,,,,,,,,,,,,,,,,,,,,,,,,,,,,,,,,,,,,,,,,,,,,,,,,,,,,,,,,,,,,,,,,,,,,,,,,,,,,,,,,,,,,,,,,,,,,,,,,,,,,,,,,,,,,,,,,,,,,,,,,,,,,,,,,,,,,,,,,,,,,,,,,,,,,,
,,,,,,615200d54efc832849db2259,62c539ef07160c13dfb487cd,2022-07-06_09h30.51.568,Colour_Asymmetry_Pilot,2022.1.3,Win32,60.03121623,62c50e9c1127f2cd403a315f,0,96,96,11,1,twofour,,,,,,,,,,,,,,,,,,,,,,,,,,,,,,,,,,,,,,,,,,,,,,,,,,,,,,,,,,,,,,,,,,,,,,,,,,,,,,,,,,,,,,,,,,,,,,,,,,,,,,,,,,,,,,,,,,,,,,,,,,,,,,,,,,,,,,,,,,,,,,,,,,,,,,,,,,,,,
,,,,,,615200d54efc832849db2259,62c539ef07160c13dfb487cd,2022-07-06_09h30.51.568,Colour_Asymmetry_Pilot,2022.1.3,Win32,60.03121623,62c50e9c1127f2cd403a315f,0,97,97,36,1,threeone,,,,,,,,,,,,,,,,,,,,,,,,,,,,,,,,,,,,,,,,,,,,,,,,,,,,,,,,,,,,,,,,,,,,,,,,,,,,,,,,,,,,,,,,,,,,,,,,,,,,,,,,,,,,,,,,,,,,,,,,,,,,,,,,,,,,,,,,,,,,,,,,,,,,,,,,,,,,,
,,,,,,615200d54efc832849db2259,62c539ef07160c13dfb487cd,2022-07-06_09h30.51.568,Colour_Asymmetry_Pilot,2022.1.3,Win32,60.03121623,62c50e9c1127f2cd403a315f,0,98,98,119,1,fourthree,,,,,,,,,,,,,,,,,,,,,,,,,,,,,,,,,,,,,,,,,,,,,,,,,,,,,,,,,,,,,,,,,,,,,,,,,,,,,,,,,,,,,,,,,,,,,,,,,,,,,,,,,,,,,,,,,,,,,,,,,,,,,,,,,,,,,,,,,,,,,,,,,,,,,,,,,,,,,
,,,,,,615200d54efc832849db2259,62c539ef07160c13dfb487cd,2022-07-06_09h30.51.568,Colour_Asymmetry_Pilot,2022.1.3,Win32,60.03121623,62c50e9c1127f2cd403a315f,0,99,99,142,1,fourtwo,,,,,,,,,,,,,,,,,,,,,,,,,,,,,,,,,,,,,,,,,,,,,,,,,,,,,,,,,,,,,,,,,,,,,,,,,,,,,,,,,,,,,,,,,,,,,,,,,,,,,,,,,,,,,,,,,,,,,,,,,,,,,,,,,,,,,,,,,,,,,,,,,,,,,,,,,,,,,
,,,,,,615200d54efc832849db2259,62c539ef07160c13dfb487cd,2022-07-06_09h30.51.568,Colour_Asymmetry_Pilot,2022.1.3,Win32,60.03121623,62c50e9c1127f2cd403a315f,0,100,100,4,1,threeone,,,,,,,,,,,,,,,,,,,,,,,,,,,,,,,,,,,,,,,,,,,,,,,,,,,,,,,,,,,,,,,,,,,,,,,,,,,,,,,,,,,,,,,,,,,,,,,,,,,,,,,,,,,,,,,,,,,,,,,,,,,,,,,,,,,,,,,,,,,,,,,,,,,,,,,,,,,,,
,,,,,,615200d54efc832849db2259,62c539ef07160c13dfb487cd,2022-07-06_09h30.51.568,Colour_Asymmetry_Pilot,2022.1.3,Win32,60.03121623,62c50e9c1127f2cd403a315f,0,101,101,0,1,onetwo,,,,,,,,,,,,,,,,,,,,,,,,,,,,,,,,,,,,,,,,,,,,,,,,,,,,,,,,,,,,,,,,,,,,,,,,,,,,,,,,,,,,,,,,,,,,,,,,,,,,,,,,,,,,,,,,,,,,,,,,,,,,,,,,,,,,,,,,,,,,,,,,,,,,,,,,,,,,,
,,,,,,615200d54efc832849db2259,62c539ef07160c13dfb487cd,2022-07-06_09h30.51.568,Colour_Asymmetry_Pilot,2022.1.3,Win32,60.03121623,62c50e9c1127f2cd403a315f,0,102,102,152,1,onetwo,,,,,,,,,,,,,,,,,,,,,,,,,,,,,,,,,,,,,,,,,,,,,,,,,,,,,,,,,,,,,,,,,,,,,,,,,,,,,,,,,,,,,,,,,,,,,,,,,,,,,,,,,,,,,,,,,,,,,,,,,,,,,,,,,,,,,,,,,,,,,,,,,,,,,,,,,,,,,
,,,,,,615200d54efc832849db2259,62c539ef07160c13dfb487cd,2022-07-06_09h30.51.568,Colour_Asymmetry_Pilot,2022.1.3,Win32,60.03121623,62c50e9c1127f2cd403a315f,0,103,103,44,1,threeone,,,,,,,,,,,,,,,,,,,,,,,,,,,,,,,,,,,,,,,,,,,,,,,,,,,,,,,,,,,,,,,,,,,,,,,,,,,,,,,,,,,,,,,,,,,,,,,,,,,,,,,,,,,,,,,,,,,,,,,,,,,,,,,,,,,,,,,,,,,,,,,,,,,,,,,,,,,,,
,,,,,,615200d54efc832849db2259,62c539ef07160c13dfb487cd,2022-07-06_09h30.51.568,Colour_Asymmetry_Pilot,2022.1.3,Win32,60.03121623,62c50e9c1127f2cd403a315f,0,104,104,78,1,fourtwo,,,,,,,,,,,,,,,,,,,,,,,,,,,,,,,,,,,,,,,,,,,,,,,,,,,,,,,,,,,,,,,,,,,,,,,,,,,,,,,,,,,,,,,,,,,,,,,,,,,,,,,,,,,,,,,,,,,,,,,,,,,,,,,,,,,,,,,,,,,,,,,,,,,,,,,,,,,,,
,,,,,,615200d54efc832849db2259,62c539ef07160c13dfb487cd,2022-07-06_09h30.51.568,Colour_Asymmetry_Pilot,2022.1.3,Win32,60.03121623,62c50e9c1127f2cd403a315f,0,105,105,68,1,threeone,,,,,,,,,,,,,,,,,,,,,,,,,,,,,,,,,,,,,,,,,,,,,,,,,,,,,,,,,,,,,,,,,,,,,,,,,,,,,,,,,,,,,,,,,,,,,,,,,,,,,,,,,,,,,,,,,,,,,,,,,,,,,,,,,,,,,,,,,,,,,,,,,,,,,,,,,,,,,
,,,,,,615200d54efc832849db2259,62c539ef07160c13dfb487cd,2022-07-06_09h30.51.568,Colour_Asymmetry_Pilot,2022.1.3,Win32,60.03121623,62c50e9c1127f2cd403a315f,0,106,106,45,1,threefour,,,,,,,,,,,,,,,,,,,,,,,,,,,,,,,,,,,,,,,,,,,,,,,,,,,,,,,,,,,,,,,,,,,,,,,,,,,,,,,,,,,,,,,,,,,,,,,,,,,,,,,,,,,,,,,,,,,,,,,,,,,,,,,,,,,,,,,,,,,,,,,,,,,,,,,,,,,,,
,,,,,,615200d54efc832849db2259,62c539ef07160c13dfb487cd,2022-07-06_09h30.51.568,Colour_Asymmetry_Pilot,2022.1.3,Win32,60.03121623,62c50e9c1127f2cd403a315f,0,107,107,63,1,fourthree,,,,,,,,,,,,,,,,,,,,,,,,,,,,,,,,,,,,,,,,,,,,,,,,,,,,,,,,,,,,,,,,,,,,,,,,,,,,,,,,,,,,,,,,,,,,,,,,,,,,,,,,,,,,,,,,,,,,,,,,,,,,,,,,,,,,,,,,,,,,,,,,,,,,,,,,,,,,,
,,,,,,615200d54efc832849db2259,62c539ef07160c13dfb487cd,2022-07-06_09h30.51.568,Colour_Asymmetry_Pilot,2022.1.3,Win32,60.03121623,62c50e9c1127f2cd403a315f,0,108,108,80,1,onetwo,,,,,,,,,,,,,,,,,,,,,,,,,,,,,,,,,,,,,,,,,,,,,,,,,,,,,,,,,,,,,,,,,,,,,,,,,,,,,,,,,,,,,,,,,,,,,,,,,,,,,,,,,,,,,,,,,,,,,,,,,,,,,,,,,,,,,,,,,,,,,,,,,,,,,,,,,,,,,
,,,,,,615200d54efc832849db2259,62c539ef07160c13dfb487cd,2022-07-06_09h30.51.568,Colour_Asymmetry_Pilot,2022.1.3,Win32,60.03121623,62c50e9c1127f2cd403a315f,0,109,109,143,1,fourthree,,,,,,,,,,,,,,,,,,,,,,,,,,,,,,,,,,,,,,,,,,,,,,,,,,,,,,,,,,,,,,,,,,,,,,,,,,,,,,,,,,,,,,,,,,,,,,,,,,,,,,,,,,,,,,,,,,,,,,,,,,,,,,,,,,,,,,,,,,,,,,,,,,,,,,,,,,,,,
,,,,,,615200d54efc832849db2259,62c539ef07160c13dfb487cd,2022-07-06_09h30.51.568,Colour_Asymmetry_Pilot,2022.1.3,Win32,60.03121623,62c50e9c1127f2cd403a315f,0,110,110,67,1,twofour,,,,,,,,,,,,,,,,,,,,,,,,,,,,,,,,,,,,,,,,,,,,,,,,,,,,,,,,,,,,,,,,,,,,,,,,,,,,,,,,,,,,,,,,,,,,,,,,,,,,,,,,,,,,,,,,,,,,,,,,,,,,,,,,,,,,,,,,,,,,,,,,,,,,,,,,,,,,,
,,,,,,615200d54efc832849db2259,62c539ef07160c13dfb487cd,2022-07-06_09h30.51.568,Colour_Asymmetry_Pilot,2022.1.3,Win32,60.03121623,62c50e9c1127f2cd403a315f,0,111,111,160,1,onetwo,,,,,,,,,,,,,,,,,,,,,,,,,,,,,,,,,,,,,,,,,,,,,,,,,,,,,,,,,,,,,,,,,,,,,,,,,,,,,,,,,,,,,,,,,,,,,,,,,,,,,,,,,,,,,,,,,,,,,,,,,,,,,,,,,,,,,,,,,,,,,,,,,,,,,,,,,,,,,
,,,,,,615200d54efc832849db2259,62c539ef07160c13dfb487cd,2022-07-06_09h30.51.568,Colour_Asymmetry_Pilot,2022.1.3,Win32,60.03121623,62c50e9c1127f2cd403a315f,0,112,112,51,1,twofour,,,,,,,,,,,,,,,,,,,,,,,,,,,,,,,,,,,,,,,,,,,,,,,,,,,,,,,,,,,,,,,,,,,,,,,,,,,,,,,,,,,,,,,,,,,,,,,,,,,,,,,,,,,,,,,,,,,,,,,,,,,,,,,,,,,,,,,,,,,,,,,,,,,,,,,,,,,,,
,,,,,,615200d54efc832849db2259,62c539ef07160c13dfb487cd,2022-07-06_09h30.51.568,Colour_Asymmetry_Pilot,2022.1.3,Win32,60.03121623,62c50e9c1127f2cd403a315f,0,113,113,41,1,onethree,,,,,,,,,,,,,,,,,,,,,,,,,,,,,,,,,,,,,,,,,,,,,,,,,,,,,,,,,,,,,,,,,,,,,,,,,,,,,,,,,,,,,,,,,,,,,,,,,,,,,,,,,,,,,,,,,,,,,,,,,,,,,,,,,,,,,,,,,,,,,,,,,,,,,,,,,,,,,
,,,,,,615200d54efc832849db2259,62c539ef07160c13dfb487cd,2022-07-06_09h30.51.568,Colour_Asymmetry_Pilot,2022.1.3,Win32,60.03121623,62c50e9c1127f2cd403a315f,0,114,114,72,1,onetwo,,,,,,,,,,,,,,,,,,,,,,,,,,,,,,,,,,,,,,,,,,,,,,,,,,,,,,,,,,,,,,,,,,,,,,,,,,,,,,,,,,,,,,,,,,,,,,,,,,,,,,,,,,,,,,,,,,,,,,,,,,,,,,,,,,,,,,,,,,,,,,,,,,,,,,,,,,,,,
,,,,,,615200d54efc832849db2259,62c539ef07160c13dfb487cd,2022-07-06_09h30.51.568,Colour_Asymmetry_Pilot,2022.1.3,Win32,60.03121623,62c50e9c1127f2cd403a315f,0,115,115,38,1,fourtwo,,,,,,,,,,,,,,,,,,,,,,,,,,,,,,,,,,,,,,,,,,,,,,,,,,,,,,,,,,,,,,,,,,,,,,,,,,,,,,,,,,,,,,,,,,,,,,,,,,,,,,,,,,,,,,,,,,,,,,,,,,,,,,,,,,,,,,,,,,,,,,,,,,,,,,,,,,,,,
,,,,,,615200d54efc832849db2259,62c539ef07160c13dfb487cd,2022-07-06_09h30.51.568,Colour_Asymmetry_Pilot,2022.1.3,Win32,60.03121623,62c50e9c1127f2cd403a315f,0,116,116,148,1,threeone,,,,,,,,,,,,,,,,,,,,,,,,,,,,,,,,,,,,,,,,,,,,,,,,,,,,,,,,,,,,,,,,,,,,,,,,,,,,,,,,,,,,,,,,,,,,,,,,,,,,,,,,,,,,,,,,,,,,,,,,,,,,,,,,,,,,,,,,,,,,,,,,,,,,,,,,,,,,,
,,,,,,615200d54efc832849db2259,62c539ef07160c13dfb487cd,2022-07-06_09h30.51.568,Colour_Asymmetry_Pilot,2022.1.3,Win32,60.03121623,62c50e9c1127f2cd403a315f,0,117,117,33,1,onethree,,,,,,,,,,,,,,,,,,,,,,,,,,,,,,,,,,,,,,,,,,,,,,,,,,,,,,,,,,,,,,,,,,,,,,,,,,,,,,,,,,,,,,,,,,,,,,,,,,,,,,,,,,,,,,,,,,,,,,,,,,,,,,,,,,,,,,,,,,,,,,,,,,,,,,,,,,,,,
,,,,,,615200d54efc832849db2259,62c539ef07160c13dfb487cd,2022-07-06_09h30.51.568,Colour_Asymmetry_Pilot,2022.1.3,Win32,60.03121623,62c50e9c1127f2cd403a315f,0,118,118,129,1,onethree,,,,,,,,,,,,,,,,,,,,,,,,,,,,,,,,,,,,,,,,,,,,,,,,,,,,,,,,,,,,,,,,,,,,,,,,,,,,,,,,,,,,,,,,,,,,,,,,,,,,,,,,,,,,,,,,,,,,,,,,,,,,,,,,,,,,,,,,,,,,,,,,,,,,,,,,,,,,,
,,,,,,615200d54efc832849db2259,62c539ef07160c13dfb487cd,2022-07-06_09h30.51.568,Colour_Asymmetry_Pilot,2022.1.3,Win32,60.03121623,62c50e9c1127f2cd403a315f,0,119,119,17,1,onethree,,,,,,,,,,,,,,,,,,,,,,,,,,,,,,,,,,,,,,,,,,,,,,,,,,,,,,,,,,,,,,,,,,,,,,,,,,,,,,,,,,,,,,,,,,,,,,,,,,,,,,,,,,,,,,,,,,,,,,,,,,,,,,,,,,,,,,,,,,,,,,,,,,,,,,,,,,,,,
,,,,,,615200d54efc832849db2259,62c539ef07160c13dfb487cd,2022-07-06_09h30.51.568,Colour_Asymmetry_Pilot,2022.1.3,Win32,60.03121623,62c50e9c1127f2cd403a315f,0,120,120,86,1,fourtwo,,,,,,,,,,,,,,,,,,,,,,,,,,,,,,,,,,,,,,,,,,,,,,,,,,,,,,,,,,,,,,,,,,,,,,,,,,,,,,,,,,,,,,,,,,,,,,,,,,,,,,,,,,,,,,,,,,,,,,,,,,,,,,,,,,,,,,,,,,,,,,,,,,,,,,,,,,,,,
,,,,,,615200d54efc832849db2259,62c539ef07160c13dfb487cd,2022-07-06_09h30.51.568,Colour_Asymmetry_Pilot,2022.1.3,Win32,60.03121623,62c50e9c1127f2cd403a315f,0,121,121,96,1,onetwo,,,,,,,,,,,,,,,,,,,,,,,,,,,,,,,,,,,,,,,,,,,,,,,,,,,,,,,,,,,,,,,,,,,,,,,,,,,,,,,,,,,,,,,,,,,,,,,,,,,,,,,,,,,,,,,,,,,,,,,,,,,,,,,,,,,,,,,,,,,,,,,,,,,,,,,,,,,,,
,,,,,,615200d54efc832849db2259,62c539ef07160c13dfb487cd,2022-07-06_09h30.51.568,Colour_Asymmetry_Pilot,2022.1.3,Win32,60.03121623,62c50e9c1127f2cd403a315f,0,122,122,79,1,fourthree,,,,,,,,,,,,,,,,,,,,,,,,,,,,,,,,,,,,,,,,,,,,,,,,,,,,,,,,,,,,,,,,,,,,,,,,,,,,,,,,,,,,,,,,,,,,,,,,,,,,,,,,,,,,,,,,,,,,,,,,,,,,,,,,,,,,,,,,,,,,,,,,,,,,,,,,,,,,,
,,,,,,615200d54efc832849db2259,62c539ef07160c13dfb487cd,2022-07-06_09h30.51.568,Colour_Asymmetry_Pilot,2022.1.3,Win32,60.03121623,62c50e9c1127f2cd403a315f,0,123,123,128,1,onetwo,,,,,,,,,,,,,,,,,,,,,,,,,,,,,,,,,,,,,,,,,,,,,,,,,,,,,,,,,,,,,,,,,,,,,,,,,,,,,,,,,,,,,,,,,,,,,,,,,,,,,,,,,,,,,,,,,,,,,,,,,,,,,,,,,,,,,,,,,,,,,,,,,,,,,,,,,,,,,
,,,,,,615200d54efc832849db2259,62c539ef07160c13dfb487cd,2022-07-06_09h30.51.568,Colour_Asymmetry_Pilot,2022.1.3,Win32,60.03121623,62c50e9c1127f2cd403a315f,0,124,124,27,1,twofour,,,,,,,,,,,,,,,,,,,,,,,,,,,,,,,,,,,,,,,,,,,,,,,,,,,,,,,,,,,,,,,,,,,,,,,,,,,,,,,,,,,,,,,,,,,,,,,,,,,,,,,,,,,,,,,,,,,,,,,,,,,,,,,,,,,,,,,,,,,,,,,,,,,,,,,,,,,,,
,,,,,,615200d54efc832849db2259,62c539ef07160c13dfb487cd,2022-07-06_09h30.51.568,Colour_Asymmetry_Pilot,2022.1.3,Win32,60.03121623,62c50e9c1127f2cd403a315f,0,125,125,89,1,onethree,,,,,,,,,,,,,,,,,,,,,,,,,,,,,,,,,,,,,,,,,,,,,,,,,,,,,,,,,,,,,,,,,,,,,,,,,,,,,,,,,,,,,,,,,,,,,,,,,,,,,,,,,,,,,,,,,,,,,,,,,,,,,,,,,,,,,,,,,,,,,,,,,,,,,,,,,,,,,
,,,,,,615200d54efc832849db2259,62c539ef07160c13dfb487cd,2022-07-06_09h30.51.568,Colour_Asymmetry_Pilot,2022.1.3,Win32,60.03121623,62c50e9c1127f2cd403a315f,0,126,126,105,1,onethree,,,,,,,,,,,,,,,,,,,,,,,,,,,,,,,,,,,,,,,,,,,,,,,,,,,,,,,,,,,,,,,,,,,,,,,,,,,,,,,,,,,,,,,,,,,,,,,,,,,,,,,,,,,,,,,,,,,,,,,,,,,,,,,,,,,,,,,,,,,,,,,,,,,,,,,,,,,,,
,,,,,,615200d54efc832849db2259,62c539ef07160c13dfb487cd,2022-07-06_09h30.51.568,Colour_Asymmetry_Pilot,2022.1.3,Win32,60.03121623,62c50e9c1127f2cd403a315f,0,127,127,155,1,twofour,,,,,,,,,,,,,,,,,,,,,,,,,,,,,,,,,,,,,,,,,,,,,,,,,,,,,,,,,,,,,,,,,,,,,,,,,,,,,,,,,,,,,,,,,,,,,,,,,,,,,,,,,,,,,,,,,,,,,,,,,,,,,,,,,,,,,,,,,,,,,,,,,,,,,,,,,,,,,
,,,,,,615200d54efc832849db2259,62c539ef07160c13dfb487cd,2022-07-06_09h30.51.568,Colour_Asymmetry_Pilot,2022.1.3,Win32,60.03121623,62c50e9c1127f2cd403a315f,0,128,128,6,1,fourtwo,,,,,,,,,,,,,,,,,,,,,,,,,,,,,,,,,,,,,,,,,,,,,,,,,,,,,,,,,,,,,,,,,,,,,,,,,,,,,,,,,,,,,,,,,,,,,,,,,,,,,,,,,,,,,,,,,,,,,,,,,,,,,,,,,,,,,,,,,,,,,,,,,,,,,,,,,,,,,
,,,,,,615200d54efc832849db2259,62c539ef07160c13dfb487cd,2022-07-06_09h30.51.568,Colour_Asymmetry_Pilot,2022.1.3,Win32,60.03121623,62c50e9c1127f2cd403a315f,0,129,129,54,1,fourtwo,,,,,,,,,,,,,,,,,,,,,,,,,,,,,,,,,,,,,,,,,,,,,,,,,,,,,,,,,,,,,,,,,,,,,,,,,,,,,,,,,,,,,,,,,,,,,,,,,,,,,,,,,,,,,,,,,,,,,,,,,,,,,,,,,,,,,,,,,,,,,,,,,,,,,,,,,,,,,
,,,,,,615200d54efc832849db2259,62c539ef07160c13dfb487cd,2022-07-06_09h30.51.568,Colour_Asymmetry_Pilot,2022.1.3,Win32,60.03121623,62c50e9c1127f2cd403a315f,0,130,130,149,1,threefour,,,,,,,,,,,,,,,,,,,,,,,,,,,,,,,,,,,,,,,,,,,,,,,,,,,,,,,,,,,,,,,,,,,,,,,,,,,,,,,,,,,,,,,,,,,,,,,,,,,,,,,,,,,,,,,,,,,,,,,,,,,,,,,,,,,,,,,,,,,,,,,,,,,,,,,,,,,,,
,,,,,,615200d54efc832849db2259,62c539ef07160c13dfb487cd,2022-07-06_09h30.51.568,Colour_Asymmetry_Pilot,2022.1.3,Win32,60.03121623,62c50e9c1127f2cd403a315f,0,131,131,126,1,fourtwo,,,,,,,,,,,,,,,,,,,,,,,,,,,,,,,,,,,,,,,,,,,,,,,,,,,,,,,,,,,,,,,,,,,,,,,,,,,,,,,,,,,,,,,,,,,,,,,,,,,,,,,,,,,,,,,,,,,,,,,,,,,,,,,,,,,,,,,,,,,,,,,,,,,,,,,,,,,,,
,,,,,,615200d54efc832849db2259,62c539ef07160c13dfb487cd,2022-07-06_09h30.51.568,Colour_Asymmetry_Pilot,2022.1.3,Win32,60.03121623,62c50e9c1127f2cd403a315f,0,132,132,154,1,twoone,,,,,,,,,,,,,,,,,,,,,,,,,,,,,,,,,,,,,,,,,,,,,,,,,,,,,,,,,,,,,,,,,,,,,,,,,,,,,,,,,,,,,,,,,,,,,,,,,,,,,,,,,,,,,,,,,,,,,,,,,,,,,,,,,,,,,,,,,,,,,,,,,,,,,,,,,,,,,
,,,,,,615200d54efc832849db2259,62c539ef07160c13dfb487cd,2022-07-06_09h30.51.568,Colour_Asymmetry_Pilot,2022.1.3,Win32,60.03121623,62c50e9c1127f2cd403a315f,0,133,133,53,1,threefour,,,,,,,,,,,,,,,,,,,,,,,,,,,,,,,,,,,,,,,,,,,,,,,,,,,,,,,,,,,,,,,,,,,,,,,,,,,,,,,,,,,,,,,,,,,,,,,,,,,,,,,,,,,,,,,,,,,,,,,,,,,,,,,,,,,,,,,,,,,,,,,,,,,,,,,,,,,,,
,,,,,,615200d54efc832849db2259,62c539ef07160c13dfb487cd,2022-07-06_09h30.51.568,Colour_Asymmetry_Pilot,2022.1.3,Win32,60.03121623,62c50e9c1127f2cd403a315f,0,134,134,88,1,onetwo,,,,,,,,,,,,,,,,,,,,,,,,,,,,,,,,,,,,,,,,,,,,,,,,,,,,,,,,,,,,,,,,,,,,,,,,,,,,,,,,,,,,,,,,,,,,,,,,,,,,,,,,,,,,,,,,,,,,,,,,,,,,,,,,,,,,,,,,,,,,,,,,,,,,,,,,,,,,,
,,,,,,615200d54efc832849db2259,62c539ef07160c13dfb487cd,2022-07-06_09h30.51.568,Colour_Asymmetry_Pilot,2022.1.3,Win32,60.03121623,62c50e9c1127f2cd403a315f,0,135,135,130,1,twoone,,,,,,,,,,,,,,,,,,,,,,,,,,,,,,,,,,,,,,,,,,,,,,,,,,,,,,,,,,,,,,,,,,,,,,,,,,,,,,,,,,,,,,,,,,,,,,,,,,,,,,,,,,,,,,,,,,,,,,,,,,,,,,,,,,,,,,,,,,,,,,,,,,,,,,,,,,,,,
,,,,,,615200d54efc832849db2259,62c539ef07160c13dfb487cd,2022-07-06_09h30.51.568,Colour_Asymmetry_Pilot,2022.1.3,Win32,60.03121623,62c50e9c1127f2cd403a315f,0,136,136,2,1,twoone,,,,,,,,,,,,,,,,,,,,,,,,,,,,,,,,,,,,,,,,,,,,,,,,,,,,,,,,,,,,,,,,,,,,,,,,,,,,,,,,,,,,,,,,,,,,,,,,,,,,,,,,,,,,,,,,,,,,,,,,,,,,,,,,,,,,,,,,,,,,,,,,,,,,,,,,,,,,,
,,,,,,615200d54efc832849db2259,62c539ef07160c13dfb487cd,2022-07-06_09h30.51.568,Colour_Asymmetry_Pilot,2022.1.3,Win32,60.03121623,62c50e9c1127f2cd403a315f,0,137,137,132,1,threeone,,,,,,,,,,,,,,,,,,,,,,,,,,,,,,,,,,,,,,,,,,,,,,,,,,,,,,,,,,,,,,,,,,,,,,,,,,,,,,,,,,,,,,,,,,,,,,,,,,,,,,,,,,,,,,,,,,,,,,,,,,,,,,,,,,,,,,,,,,,,,,,,,,,,,,,,,,,,,
,,,,,,615200d54efc832849db2259,62c539ef07160c13dfb487cd,2022-07-06_09h30.51.568,Colour_Asymmetry_Pilot,2022.1.3,Win32,60.03121623,62c50e9c1127f2cd403a315f,0,138,138,114,1,twoone,,,,,,,,,,,,,,,,,,,,,,,,,,,,,,,,,,,,,,,,,,,,,,,,,,,,,,,,,,,,,,,,,,,,,,,,,,,,,,,,,,,,,,,,,,,,,,,,,,,,,,,,,,,,,,,,,,,,,,,,,,,,,,,,,,,,,,,,,,,,,,,,,,,,,,,,,,,,,
,,,,,,615200d54efc832849db2259,62c539ef07160c13dfb487cd,2022-07-06_09h30.51.568,Colour_Asymmetry_Pilot,2022.1.3,Win32,60.03121623,62c50e9c1127f2cd403a315f,0,139,139,121,1,onethree,,,,,,,,,,,,,,,,,,,,,,,,,,,,,,,,,,,,,,,,,,,,,,,,,,,,,,,,,,,,,,,,,,,,,,,,,,,,,,,,,,,,,,,,,,,,,,,,,,,,,,,,,,,,,,,,,,,,,,,,,,,,,,,,,,,,,,,,,,,,,,,,,,,,,,,,,,,,,
,,,,,,615200d54efc832849db2259,62c539ef07160c13dfb487cd,2022-07-06_09h30.51.568,Colour_Asymmetry_Pilot,2022.1.3,Win32,60.03121623,62c50e9c1127f2cd403a315f,0,140,140,49,1,onethree,,,,,,,,,,,,,,,,,,,,,,,,,,,,,,,,,,,,,,,,,,,,,,,,,,,,,,,,,,,,,,,,,,,,,,,,,,,,,,,,,,,,,,,,,,,,,,,,,,,,,,,,,,,,,,,,,,,,,,,,,,,,,,,,,,,,,,,,,,,,,,,,,,,,,,,,,,,,,
,,,,,,615200d54efc832849db2259,62c539ef07160c13dfb487cd,2022-07-06_09h30.51.568,Colour_Asymmetry_Pilot,2022.1.3,Win32,60.03121623,62c50e9c1127f2cd403a315f,0,141,141,55,1,fourthree,,,,,,,,,,,,,,,,,,,,,,,,,,,,,,,,,,,,,,,,,,,,,,,,,,,,,,,,,,,,,,,,,,,,,,,,,,,,,,,,,,,,,,,,,,,,,,,,,,,,,,,,,,,,,,,,,,,,,,,,,,,,,,,,,,,,,,,,,,,,,,,,,,,,,,,,,,,,,
,,,,,,615200d54efc832849db2259,62c539ef07160c13dfb487cd,2022-07-06_09h30.51.568,Colour_Asymmetry_Pilot,2022.1.3,Win32,60.03121623,62c50e9c1127f2cd403a315f,0,142,142,60,1,threeone,,,,,,,,,,,,,,,,,,,,,,,,,,,,,,,,,,,,,,,,,,,,,,,,,,,,,,,,,,,,,,,,,,,,,,,,,,,,,,,,,,,,,,,,,,,,,,,,,,,,,,,,,,,,,,,,,,,,,,,,,,,,,,,,,,,,,,,,,,,,,,,,,,,,,,,,,,,,,
,,,,,,615200d54efc832849db2259,62c539ef07160c13dfb487cd,2022-07-06_09h30.51.568,Colour_Asymmetry_Pilot,2022.1.3,Win32,60.03121623,62c50e9c1127f2cd403a315f,0,143,143,74,1,twoone,,,,,,,,,,,,,,,,,,,,,,,,,,,,,,,,,,,,,,,,,,,,,,,,,,,,,,,,,,,,,,,,,,,,,,,,,,,,,,,,,,,,,,,,,,,,,,,,,,,,,,,,,,,,,,,,,,,,,,,,,,,,,,,,,,,,,,,,,,,,,,,,,,,,,,,,,,,,,
,,,,,,615200d54efc832849db2259,62c539ef07160c13dfb487cd,2022-07-06_09h30.51.568,Colour_Asymmetry_Pilot,2022.1.3,Win32,60.03121623,62c50e9c1127f2cd403a315f,0,144,144,35,1,twofour,,,,,,,,,,,,,,,,,,,,,,,,,,,,,,,,,,,,,,,,,,,,,,,,,,,,,,,,,,,,,,,,,,,,,,,,,,,,,,,,,,,,,,,,,,,,,,,,,,,,,,,,,,,,,,,,,,,,,,,,,,,,,,,,,,,,,,,,,,,,,,,,,,,,,,,,,,,,,
,,,,,,615200d54efc832849db2259,62c539ef07160c13dfb487cd,2022-07-06_09h30.51.568,Colour_Asymmetry_Pilot,2022.1.3,Win32,60.03121623,62c50e9c1127f2cd403a315f,0,145,145,52,1,threeone,,,,,,,,,,,,,,,,,,,,,,,,,,,,,,,,,,,,,,,,,,,,,,,,,,,,,,,,,,,,,,,,,,,,,,,,,,,,,,,,,,,,,,,,,,,,,,,,,,,,,,,,,,,,,,,,,,,,,,,,,,,,,,,,,,,,,,,,,,,,,,,,,,,,,,,,,,,,,
,,,,,,615200d54efc832849db2259,62c539ef07160c13dfb487cd,2022-07-06_09h30.51.568,Colour_Asymmetry_Pilot,2022.1.3,Win32,60.03121623,62c50e9c1127f2cd403a315f,0,146,146,98,1,twoone,,,,,,,,,,,,,,,,,,,,,,,,,,,,,,,,,,,,,,,,,,,,,,,,,,,,,,,,,,,,,,,,,,,,,,,,,,,,,,,,,,,,,,,,,,,,,,,,,,,,,,,,,,,,,,,,,,,,,,,,,,,,,,,,,,,,,,,,,,,,,,,,,,,,,,,,,,,,,
,,,,,,615200d54efc832849db2259,62c539ef07160c13dfb487cd,2022-07-06_09h30.51.568,Colour_Asymmetry_Pilot,2022.1.3,Win32,60.03121623,62c50e9c1127f2cd403a315f,0,147,147,40,1,onetwo,,,,,,,,,,,,,,,,,,,,,,,,,,,,,,,,,,,,,,,,,,,,,,,,,,,,,,,,,,,,,,,,,,,,,,,,,,,,,,,,,,,,,,,,,,,,,,,,,,,,,,,,,,,,,,,,,,,,,,,,,,,,,,,,,,,,,,,,,,,,,,,,,,,,,,,,,,,,,
,,,,,,615200d54efc832849db2259,62c539ef07160c13dfb487cd,2022-07-06_09h30.51.568,Colour_Asymmetry_Pilot,2022.1.3,Win32,60.03121623,62c50e9c1127f2cd403a315f,0,148,148,118,1,fourtwo,,,,,,,,,,,,,,,,,,,,,,,,,,,,,,,,,,,,,,,,,,,,,,,,,,,,,,,,,,,,,,,,,,,,,,,,,,,,,,,,,,,,,,,,,,,,,,,,,,,,,,,,,,,,,,,,,,,,,,,,,,,,,,,,,,,,,,,,,,,,,,,,,,,,,,,,,,,,,
,,,,,,615200d54efc832849db2259,62c539ef07160c13dfb487cd,2022-07-06_09h30.51.568,Colour_Asymmetry_Pilot,2022.1.3,Win32,60.03121623,62c50e9c1127f2cd403a315f,0,149,149,85,1,threefour,,,,,,,,,,,,,,,,,,,,,,,,,,,,,,,,,,,,,,,,,,,,,,,,,,,,,,,,,,,,,,,,,,,,,,,,,,,,,,,,,,,,,,,,,,,,,,,,,,,,,,,,,,,,,,,,,,,,,,,,,,,,,,,,,,,,,,,,,,,,,,,,,,,,,,,,,,,,,
,,,,,,615200d54efc832849db2259,62c539ef07160c13dfb487cd,2022-07-06_09h30.51.568,Colour_Asymmetry_Pilot,2022.1.3,Win32,60.03121623,62c50e9c1127f2cd403a315f,0,150,150,113,1,onethree,,,,,,,,,,,,,,,,,,,,,,,,,,,,,,,,,,,,,,,,,,,,,,,,,,,,,,,,,,,,,,,,,,,,,,,,,,,,,,,,,,,,,,,,,,,,,,,,,,,,,,,,,,,,,,,,,,,,,,,,,,,,,,,,,,,,,,,,,,,,,,,,,,,,,,,,,,,,,
,,,,,,615200d54efc832849db2259,62c539ef07160c13dfb487cd,2022-07-06_09h30.51.568,Colour_Asymmetry_Pilot,2022.1.3,Win32,60.03121623,62c50e9c1127f2cd403a315f,0,151,151,46,1,fourtwo,,,,,,,,,,,,,,,,,,,,,,,,,,,,,,,,,,,,,,,,,,,,,,,,,,,,,,,,,,,,,,,,,,,,,,,,,,,,,,,,,,,,,,,,,,,,,,,,,,,,,,,,,,,,,,,,,,,,,,,,,,,,,,,,,,,,,,,,,,,,,,,,,,,,,,,,,,,,,
,,,,,,615200d54efc832849db2259,62c539ef07160c13dfb487cd,2022-07-06_09h30.51.568,Colour_Asymmetry_Pilot,2022.1.3,Win32,60.03121623,62c50e9c1127f2cd403a315f,0,152,152,157,1,threefour,,,,,,,,,,,,,,,,,,,,,,,,,,,,,,,,,,,,,,,,,,,,,,,,,,,,,,,,,,,,,,,,,,,,,,,,,,,,,,,,,,,,,,,,,,,,,,,,,,,,,,,,,,,,,,,,,,,,,,,,,,,,,,,,,,,,,,,,,,,,,,,,,,,,,,,,,,,,,
,,,,,,615200d54efc832849db2259,62c539ef07160c13dfb487cd,2022-07-06_09h30.51.568,Colour_Asymmetry_Pilot,2022.1.3,Win32,60.03121623,62c50e9c1127f2cd403a315f,0,153,153,145,1,onethree,,,,,,,,,,,,,,,,,,,,,,,,,,,,,,,,,,,,,,,,,,,,,,,,,,,,,,,,,,,,,,,,,,,,,,,,,,,,,,,,,,,,,,,,,,,,,,,,,,,,,,,,,,,,,,,,,,,,,,,,,,,,,,,,,,,,,,,,,,,,,,,,,,,,,,,,,,,,,
,,,,,,615200d54efc832849db2259,62c539ef07160c13dfb487cd,2022-07-06_09h30.51.568,Colour_Asymmetry_Pilot,2022.1.3,Win32,60.03121623,62c50e9c1127f2cd403a315f,0,154,154,14,1,fourtwo,,,,,,,,,,,,,,,,,,,,,,,,,,,,,,,,,,,,,,,,,,,,,,,,,,,,,,,,,,,,,,,,,,,,,,,,,,,,,,,,,,,,,,,,,,,,,,,,,,,,,,,,,,,,,,,,,,,,,,,,,,,,,,,,,,,,,,,,,,,,,,,,,,,,,,,,,,,,,
,,,,,,615200d54efc832849db2259,62c539ef07160c13dfb487cd,2022-07-06_09h30.51.568,Colour_Asymmetry_Pilot,2022.1.3,Win32,60.03121623,62c50e9c1127f2cd403a315f,0,155,155,102,1,fourtwo,,,,,,,,,,,,,,,,,,,,,,,,,,,,,,,,,,,,,,,,,,,,,,,,,,,,,,,,,,,,,,,,,,,,,,,,,,,,,,,,,,,,,,,,,,,,,,,,,,,,,,,,,,,,,,,,,,,,,,,,,,,,,,,,,,,,,,,,,,,,,,,,,,,,,,,,,,,,,
,,,,,,615200d54efc832849db2259,62c539ef07160c13dfb487cd,2022-07-06_09h30.51.568,Colour_Asymmetry_Pilot,2022.1.3,Win32,60.03121623,62c50e9c1127f2cd403a315f,0,156,156,135,1,fourthree,,,,,,,,,,,,,,,,,,,,,,,,,,,,,,,,,,,,,,,,,,,,,,,,,,,,,,,,,,,,,,,,,,,,,,,,,,,,,,,,,,,,,,,,,,,,,,,,,,,,,,,,,,,,,,,,,,,,,,,,,,,,,,,,,,,,,,,,,,,,,,,,,,,,,,,,,,,,,
,,,,,,615200d54efc832849db2259,62c539ef07160c13dfb487cd,2022-07-06_09h30.51.568,Colour_Asymmetry_Pilot,2022.1.3,Win32,60.03121623,62c50e9c1127f2cd403a315f,0,157,157,30,1,fourtwo,,,,,,,,,,,,,,,,,,,,,,,,,,,,,,,,,,,,,,,,,,,,,,,,,,,,,,,,,,,,,,,,,,,,,,,,,,,,,,,,,,,,,,,,,,,,,,,,,,,,,,,,,,,,,,,,,,,,,,,,,,,,,,,,,,,,,,,,,,,,,,,,,,,,,,,,,,,,,
,,,,,,615200d54efc832849db2259,62c539ef07160c13dfb487cd,2022-07-06_09h30.51.568,Colour_Asymmetry_Pilot,2022.1.3,Win32,60.03121623,62c50e9c1127f2cd403a315f,0,158,158,65,1,onethree,,,,,,,,,,,,,,,,,,,,,,,,,,,,,,,,,,,,,,,,,,,,,,,,,,,,,,,,,,,,,,,,,,,,,,,,,,,,,,,,,,,,,,,,,,,,,,,,,,,,,,,,,,,,,,,,,,,,,,,,,,,,,,,,,,,,,,,,,,,,,,,,,,,,,,,,,,,,,
,,,,,,615200d54efc832849db2259,62c539ef07160c13dfb487cd,2022-07-06_09h30.51.568,Colour_Asymmetry_Pilot,2022.1.3,Win32,60.03121623,62c50e9c1127f2cd403a315f,0,159,159,73,1,onethree,,,,,,,,,,,,,,,,,,,,,,,,,,,,,,,,,,,,,,,,,,,,,,,,,,,,,,,,,,,,,,,,,,,,,,,,,,,,,,,,,,,,,,,,,,,,,,,,,,,,,,,,,,,,,,,,,,,,,,,,,,,,,,,,,,,,,,,,,,,,,,,,,,,,,,,,,,,,,
,,,,,,615200d54efc832849db2259,62c539ef07160c13dfb487cd,2022-07-06_09h30.51.568,Colour_Asymmetry_Pilot,2022.1.3,Win32,60.03121623,62c50e9c1127f2cd403a315f,0,160,160,137,1,onethree,,,,,,,,,,,,,,,,,,,,,,,,,,,,,,,,,,,,,,,,,,,,,,,,,,,,,,,,,,,,,,,,,,,,,,,,,,,,,,,,,,,,,,,,,,,,,,,,,,,,,,,,,,,,,,,,,,,,,,,,,,,,,,,,,,,,,,,,,,,,,,,,,,,,,,,,,,,,,
,,,,,,615200d54efc832849db2259,62c539ef07160c13dfb487cd,2022-07-06_09h30.51.568,Colour_Asymmetry_Pilot,2022.1.3,Win32,60.03121623,62c50e9c1127f2cd403a315f,0,161,161,10,1,twoone,,,,,,,,,,,,,,,,,,,,,,,,,,,,,,,,,,,,,,,,,,,,,,,,,,,,,,,,,,,,,,,,,,,,,,,,,,,,,,,,,,,,,,,,,,,,,,,,,,,,,,,,,,,,,,,,,,,,,,,,,,,,,,,,,,,,,,,,,,,,,,,,,,,,,,,,,,,,,
,,,,,,615200d54efc832849db2259,62c539ef07160c13dfb487cd,2022-07-06_09h30.51.568,Colour_Asymmetry_Pilot,2022.1.3,Win32,60.03121623,62c50e9c1127f2cd403a315f,,,,,,,space,8.6666,space,2.32,space,67.5935,space,46.0758,space,3.2745,space,11.4572,"[-0.4746,-0.0354000000000001,0.5449999999999999]",fourthree,"[1,0.12939999999999996,-1]",-4,4.4684,-41,67,1,0,0,response7disk_5,8,7,1,0,0,rectangle_8,32,-89,1,0,0,response3disk_7,4,1,-14,-1,1,0,0,rectangle_4,0,0,0,0,1,,,,,,,,,,,,,,,,,,,,,,,,,,,,,,,,,,,,,,,,,,,,,,,,,,,,,,,,,,,,,,,,,,,,,,,,,,,,,,,,,,,,,,,,,,,,,,,,,,,,,,,,,,,,,
,,,,,,615200d54efc832849db2259,62c539ef07160c13dfb487cd,2022-07-06_09h30.51.568,Colour_Asymmetry_Pilot,2022.1.3,Win32,60.03121623,62c50e9c1127f2cd403a315f,,,,,,,,,,,,,,,,,,,"[-0.20799999999999996,-0.655,-0.01980000000000004]",fourthree,"[0.37240000000000006,-0.050999999999999934,-0.5216]",-1,3.9417,-41,-105,1,0,0,response5disk_5,-3,4,1,0,0,rectangle_8,-3,4,1,0,0,,,1,-3,4,1,0,0,,1,0,1,0,1,,,,,,,,,,,,,,,,,,,,,,,,,,,,,,,,,,,,,,,,,,,,,,,,,,,,,,,,,,,,,,,,,,,,,,,,,,,,,,,,,,,,,,,,,,,,,,,,,,,,,,,,,,,,,
,,,,,,615200d54efc832849db2259,62c539ef07160c13dfb487cd,2022-07-06_09h30.51.568,Colour_Asymmetry_Pilot,2022.1.3,Win32,60.03121623,62c50e9c1127f2cd403a315f,,,,,,,,,,,,,,,,,,,"[-0.45899999999999996,-0.3256,-0.9374]",twofour,"[-0.9844,-0.9688,-0.9922]",-1,2.4886,-27,-87,1,0,0,response5disk_5,14,5,1,0,0,rectangle_8,14,5,1,0,0,,,1,14,5,1,0,0,,2,0,2,0,1,,,,,,,,,,,,,,,,,,,,,,,,,,,,,,,,,,,,,,,,,,,,,,,,,,,,,,,,,,,,,,,,,,,,,,,,,,,,,,,,,,,,,,,,,,,,,,,,,,,,,,,,,,,,,
,,,,,,615200d54efc832849db2259,62c539ef07160c13dfb487cd,2022-07-06_09h30.51.568,Colour_Asymmetry_Pilot,2022.1.3,Win32,60.03121623,62c50e9c1127f2cd403a315f,,,,,,,,,,,,,,,,,,,"[-0.38039999999999996,-0.4276,-0.1452]",fourthree,"[-0.4746,-0.0354000000000001,0.5449999999999999]",-1,1.6892,-40,-112,1,0,0,response5disk_5,14,-8,1,0,0,rectangle_8,14,-8,1,0,0,,,1,14,-8,1,0,0,,3,0,3,0,1,,,,,,,,,,,,,,,,,,,,,,,,,,,,,,,,,,,,,,,,,,,,,,,,,,,,,,,,,,,,,,,,,,,,,,,,,,,,,,,,,,,,,,,,,,,,,,,,,,,,,,,,,,,,,
,,,,,,615200d54efc832849db2259,62c539ef07160c13dfb487cd,2022-07-06_09h30.51.568,Colour_Asymmetry_Pilot,2022.1.3,Win32,60.03121623,62c50e9c1127f2cd403a315f,,,,,,,,,,,,,,,,,,,"[0.9372,0.20779999999999998,0.2704]",fourtwo,"[-0.26280000000000003,-0.4746,-0.2158]",-1,1.0523,-51,-106,1,0,0,response5disk_5,17,-7,1,0,0,rectangle_8,17,-7,1,0,0,,,1,17,-7,1,0,0,,4,0,4,0,1,,,,,,,,,,,,,,,,,,,,,,,,,,,,,,,,,,,,,,,,,,,,,,,,,,,,,,,,,,,,,,,,,,,,,,,,,,,,,,,,,,,,,,,,,,,,,,,,,,,,,,,,,,,,,
,,,,,,615200d54efc832849db2259,62c539ef07160c13dfb487cd,2022-07-06_09h30.51.568,Colour_Asymmetry_Pilot,2022.1.3,Win32,60.03121623,62c50e9c1127f2cd403a315f,,,,,,,,,,,,,,,,,,,"[0.34099999999999997,0.12939999999999996,-0.9766]",twofour,"[0.9763999999999999,0.30979999999999985,-0.6786]",1,1.0868,27,-88,1,0,0,response3disk_5,-11,-6,1,0,0,rectangle_8,-11,-6,1,0,0,,,1,-11,-6,1,0,0,,5,0,5,0,1,,,,,,,,,,,,,,,,,,,,,,,,,,,,,,,,,,,,,,,,,,,,,,,,,,,,,,,,,,,,,,,,,,,,,,,,,,,,,,,,,,,,,,,,,,,,,,,,,,,,,,,,,,,,,
,,,,,,615200d54efc832849db2259,62c539ef07160c13dfb487cd,2022-07-06_09h30.51.568,Colour_Asymmetry_Pilot,2022.1.3,Win32,60.03121623,62c50e9c1127f2cd403a315f,,,,,,,,,,,,,,,,,,,"[-0.0040000000000000036,0.02739999999999987,-0.08239999999999992]",threeone,"[0.34099999999999997,0.5841999999999998,-0.9844]",-1,4.0848,-34,-71,1,0,0,response5disk_5,-1,-1,1,0,0,rectangle_8,-1,-1,1,0,0,,,1,-1,-1,1,0,0,,6,0,6,0,1,,,,,,,,,,,,,,,,,,,,,,,,,,,,,,,,,,,,,,,,,,,,,,,,,,,,,,,,,,,,,,,,,,,,,,,,,,,,,,,,,,,,,,,,,,,,,,,,,,,,,,,,,,,,,
,,,,,,615200d54efc832849db2259,62c539ef07160c13dfb487cd,2022-07-06_09h30.51.568,Colour_Asymmetry_Pilot,2022.1.3,Win32,60.03121623,62c50e9c1127f2cd403a315f,,,,,,,,,,,,,,,,,,,,onethree,,-1,1.1597,,,,,,,,,,,,,,,,,,,,,,,,,,,,,,,,space,7.1803,"[0.2862,0.7802,0.3568]","[0.7176,-0.906,-0.6864]",-34,-84,1,0,0,response5disk,3,-7,1,0,0,rectangle,3,-7,1,0,0,,1,0.0026,0,3,-7,1,0,0,0,0,0,118,1,37,second,,,,,,,,,,,,,,,,,,,,,,,,,,,,,,,,,,,,,,,,,,,,,,,,,,,,,,,,,,,,,,,,,,,,,,,,
,,,,,,615200d54efc832849db2259,62c539ef07160c13dfb487cd,2022-07-06_09h30.51.568,Colour_Asymmetry_Pilot,2022.1.3,Win32,60.03121623,62c50e9c1127f2cd403a315f,,,,,,,,,,,,,,,,,,,,twofour,,-1,1.1615,,,,,,,,,,,,,,,,,,,,,,,,,,,,,,,,,,"[0.2784,-0.31000000000000005,-0.5452]","[0.34099999999999997,0.5841999999999998,-0.9844]",-36,-87,1,0,0,response5disk,4,5,1,0,0,rectangle,4,5,1,0,0,,1,0.0001,0,4,5,1,0,0,0,1,1,46,1,46,first,,,,,,,,,,,,,,,,,,,,,,,,,,,,,,,,,,,,,,,,,,,,,,,,,,,,,,,,,,,,,,,,,,,,,,,,
,,,,,,615200d54efc832849db2259,62c539ef07160c13dfb487cd,2022-07-06_09h30.51.568,Colour_Asymmetry_Pilot,2022.1.3,Win32,60.03121623,62c50e9c1127f2cd403a315f,,,,,,,,,,,,,,,,,,,,twofour,,-1,0.7176,,,,,,,,,,,,,,,,,,,,,,,,,,,,,,,,,,"[-0.9216,-0.5529999999999999,-0.3962]","[0.7802,-0.23140000000000005,-0.20799999999999996]",-45,-99,1,0,0,response5disk,9,10,1,0,0,rectangle,9,10,1,0,0,,1,0.0003,0,9,10,1,0,0,0,2,2,68,1,68,first,,,,,,,,,,,,,,,,,,,,,,,,,,,,,,,,,,,,,,,,,,,,,,,,,,,,,,,,,,,,,,,,,,,,,,,,
,,,,,,615200d54efc832849db2259,62c539ef07160c13dfb487cd,2022-07-06_09h30.51.568,Colour_Asymmetry_Pilot,2022.1.3,Win32,60.03121623,62c50e9c1127f2cd403a315f,,,,,,,,,,,,,,,,,,,,fourthree,,-1,1.1042,,,,,,,,,,,,,,,,,,,,,,,,,,,,,,,,,,"[0.09799999999999986,-0.24719999999999998,0.15280000000000005]","[0.04299999999999993,0.16060000000000008,-0.6628000000000001]",-49,-78,1,0,0,response5disk,8,-6,1,0,0,rectangle,8,-6,1,0,0,,2,0.0018,0,8,-6,1,0,0,0,3,3,119,1,38,second,,,,,,,,,,,,,,,,,,,,,,,,,,,,,,,,,,,,,,,,,,,,,,,,,,,,,,,,,,,,,,,,,,,,,,,,
,,,,,,615200d54efc832849db2259,62c539ef07160c13dfb487cd,2022-07-06_09h30.51.568,Colour_Asymmetry_Pilot,2022.1.3,Win32,60.03121623,62c50e9c1127f2cd403a315f,,,,,,,,,,,,,,,,,,,,onetwo,,-1,0.7016,,,,,,,,,,,,,,,,,,,,,,,,,,,,,,,,,,"[0.9686000000000001,0.3802000000000001,0.19999999999999996]","[0.7018,0.7176,0.6155999999999999]",-53,-89,1,0,0,response5disk,-2,3,1,0,0,rectangle,-2,3,1,0,0,,2,0.0003,0,-2,3,1,0,0,0,4,4,30,1,30,first,,,,,,,,,,,,,,,,,,,,,,,,,,,,,,,,,,,,,,,,,,,,,,,,,,,,,,,,,,,,,,,,,,,,,,,,
,,,,,,615200d54efc832849db2259,62c539ef07160c13dfb487cd,2022-07-06_09h30.51.568,Colour_Asymmetry_Pilot,2022.1.3,Win32,60.03121623,62c50e9c1127f2cd403a315f,,,,,,,,,,,,,,,,,,,,threeone,,-4,2.1389,,,,,,,,,,,,,,,,,,,,,,,,,,,,,,,,,,"[1,0.12939999999999996,-1]","[-0.6235999999999999,-0.6786,-0.08239999999999992]",-42,66,1,0,0,response7disk,-10,4,1,0,0,rectangle,-10,4,1,0,0,,2,0.0003,0,-10,4,1,0,0,0,5,5,79,1,79,first,,,,,,,,,,,,,,,,,,,,,,,,,,,,,,,,,,,,,,,,,,,,,,,,,,,,,,,,,,,,,,,,,,,,,,,,
,,,,,,615200d54efc832849db2259,62c539ef07160c13dfb487cd,2022-07-06_09h30.51.568,Colour_Asymmetry_Pilot,2022.1.3,Win32,60.03121623,62c50e9c1127f2cd403a315f,,,,,,,,,,,,,,,,,,,,threefour,,4,1.1277,,,,,,,,,,,,,,,,,,,,,,,,,,,,,,,,,,"[0.22340000000000004,-0.9296,-0.7884]","[0.3568,-0.20799999999999996,-0.9844]",31,107,1,0,0,response1disk,-13,1,1,0,0,rectangle,-13,1,1,0,0,,2,0.0002,0,-13,1,1,0,0,0,6,6,110,1,29,second,,,,,,,,,,,,,,,,,,,,,,,,,,,,,,,,,,,,,,,,,,,,,,,,,,,,,,,,,,,,,,,,,,,,,,,,
,,,,,,615200d54efc832849db2259,62c539ef07160c13dfb487cd,2022-07-06_09h30.51.568,Colour_Asymmetry_Pilot,2022.1.3,Win32,60.03121623,62c50e9c1127f2cd403a315f,,,,,,,,,,,,,,,,,,,,threeone,,4,4.8425,,,,,,,,,,,,,,,,,,,,,,,,,,,,,,,,,,"[0.8115999999999999,-0.0040000000000000036,-0.09819999999999995]","[0.2784,-0.31000000000000005,-0.5452]",30,47,1,0,0,response1disk,3,-4,1,0,0,rectangle,3,-4,1,0,0,,2,0.0002,0,3,-4,1,0,0,0,7,7,52,1,52,first,,,,,,,,,,,,,,,,,,,,,,,,,,,,,,,,,,,,,,,,,,,,,,,,,,,,,,,,,,,,,,,,,,,,,,,,
,,,,,,615200d54efc832849db2259,62c539ef07160c13dfb487cd,2022-07-06_09h30.51.568,Colour_Asymmetry_Pilot,2022.1.3,Win32,60.03121623,62c50e9c1127f2cd403a315f,,,,,,,,,,,,,,,,,,,,onetwo,,-4,1.1358,,,,,,,,,,,,,,,,,,,,,,,,,,,,,,,,,,"[-0.4902000000000001,0.2704,-0.45899999999999996]","[0.8115999999999999,-0.0040000000000000036,-0.09819999999999995]",-35,73,1,0,0,response7disk,-11,9,1,0,0,rectangle,-11,9,1,0,0,,3,0.0015,0,-11,9,1,0,0,0,8,8,154,1,73,second,,,,,,,,,,,,,,,,,,,,,,,,,,,,,,,,,,,,,,,,,,,,,,,,,,,,,,,,,,,,,,,,,,,,,,,,
,,,,,,615200d54efc832849db2259,62c539ef07160c13dfb487cd,2022-07-06_09h30.51.568,Colour_Asymmetry_Pilot,2022.1.3,Win32,60.03121623,62c50e9c1127f2cd403a315f,,,,,,,,,,,,,,,,,,,,threeone,,-4,1.947,,,,,,,,,,,,,,,,,,,,,,,,,,,,,,,,,,"[0.9686000000000001,0.3802000000000001,0.19999999999999996]","[-0.4276,0.0038000000000000256,-0.3256]",-36,87,1,0,0,response7disk,-13,8,1,0,0,rectangle,-13,8,1,0,0,,2,0.0014,0,-13,8,1,0,0,0,9,9,20,1,20,first,,,,,,,,,,,,,,,,,,,,,,,,,,,,,,,,,,,,,,,,,,,,,,,,,,,,,,,,,,,,,,,,,,,,,,,,
,,,,,,615200d54efc832849db2259,62c539ef07160c13dfb487cd,2022-07-06_09h30.51.568,Colour_Asymmetry_Pilot,2022.1.3,Win32,60.03121623,62c50e9c1127f2cd403a315f,,,,,,,,,,,,,,,,,,,,twoone,,-4,2.5328,,,,,,,,,,,,,,,,,,,,,,,,,,,,,,,,,,"[-0.09019999999999995,0.44300000000000006,0.5371999999999999]","[-0.9688,-0.38039999999999996,-0.41979999999999995]",-34,85,1,0,0,response7disk,-2,-3,1,0,0,rectangle,-2,-3,1,0,0,,1,0.0008,0,-2,-3,1,0,0,0,10,10,91,1,10,second,,,,,,,,,,,,,,,,,,,,,,,,,,,,,,,,,,,,,,,,,,,,,,,,,,,,,,,,,,,,,,,,,,,,,,,,
,,,,,,615200d54efc832849db2259,62c539ef07160c13dfb487cd,2022-07-06_09h30.51.568,Colour_Asymmetry_Pilot,2022.1.3,Win32,60.03121623,62c50e9c1127f2cd403a315f,,,,,,,,,,,,,,,,,,,,twofour,,4,1.3631,,,,,,,,,,,,,,,,,,,,,,,,,,,,,,,,,,"[-0.2942,-0.7648,-0.7492000000000001]","[-0.011800000000000033,-0.906,-0.45100000000000007]",38,80,1,0,0,response1disk,9,11,1,0,0,rectangle,9,11,1,0,0,,3,0.0028,0,9,11,1,0,0,0,11,11,105,1,24,second,,,,,,,,,,,,,,,,,,,,,,,,,,,,,,,,,,,,,,,,,,,,,,,,,,,,,,,,,,,,,,,,,,,,,,,,
,,,,,,615200d54efc832849db2259,62c539ef07160c13dfb487cd,2022-07-06_09h30.51.568,Colour_Asymmetry_Pilot,2022.1.3,Win32,60.03121623,62c50e9c1127f2cd403a315f,,,,,,,,,,,,,,,,,,,,twoone,,4,1.2863,,,,,,,,,,,,,,,,,,,,,,,,,,,,,,,,,,"[-0.07459999999999989,0.12139999999999995,-0.9922]","[-0.9296,-0.12959999999999994,-0.043199999999999905]",35,104,1,0,0,response1disk,-10,-8,1,0,0,rectangle,-10,-8,1,0,0,,3,0.0003,0,-10,-8,1,0,0,0,12,12,62,1,62,first,,,,,,,,,,,,,,,,,,,,,,,,,,,,,,,,,,,,,,,,,,,,,,,,,,,,,,,,,,,,,,,,,,,,,,,,
,,,,,,615200d54efc832849db2259,62c539ef07160c13dfb487cd,2022-07-06_09h30.51.568,Colour_Asymmetry_Pilot,2022.1.3,Win32,60.03121623,62c50e9c1127f2cd403a315f,,,,,,,,,,,,,,,,,,,,threeone,,-4,0.6757,,,,,,,,,,,,,,,,,,,,,,,,,,,,,,,,,,"[-0.17659999999999998,-0.2864,-0.8354]","[0.8274000000000001,-0.5844,-0.9452]",-34,69,1,0,0,response7disk,-23,8,1,0,0,rectangle,-23,8,1,0,0,,1,0.0016,0,-23,8,1,0,0,0,13,13,9,1,9,first,,,,,,,,,,,,,,,,,,,,,,,,,,,,,,,,,,,,,,,,,,,,,,,,,,,,,,,,,,,,,,,,,,,,,,,,
,,,,,,615200d54efc832849db2259,62c539ef07160c13dfb487cd,2022-07-06_09h30.51.568,Colour_Asymmetry_Pilot,2022.1.3,Win32,60.03121623,62c50e9c1127f2cd403a315f,,,,,,,,,,,,,,,,,,,,twoone,,4,0.9514,,,,,,,,,,,,,,,,,,,,,,,,,,,,,,,,,,"[-0.8982,-0.37259999999999993,0.2784]","[-0.5922000000000001,-0.7492000000000001,-0.5296000000000001]",42,83,1,0,0,response1disk,-13,-7,1,0,0,rectangle,-13,-7,1,0,0,,2,0.0015,0,-13,-7,1,0,0,0,14,14,114,1,33,second,,,,,,,,,,,,,,,,,,,,,,,,,,,,,,,,,,,,,,,,,,,,,,,,,,,,,,,,,,,,,,,,,,,,,,,,
,,,,,,615200d54efc832849db2259,62c539ef07160c13dfb487cd,2022-07-06_09h30.51.568,Colour_Asymmetry_Pilot,2022.1.3,Win32,60.03121623,62c50e9c1127f2cd403a315f,,,,,,,,,,,,,,,,,,,,threeone,,-4,0.4443,,,,,,,,,,,,,,,,,,,,,,,,,,,,,,,,,,"[-0.5688,-0.08239999999999992,-0.1844]","[0.9763999999999999,0.8588,-0.05900000000000005]",-40,69,1,0,0,response7disk,-21,15,1,0,0,rectangle,-21,15,1,0,0,-3,3,0.0014,0,-21,15,1,0,0,0,15,15,3,1,3,first,,,,,,,,,,,,,,,,,,,,,,,,,,,,,,,,,,,,,,,,,,,,,,,,,,,,,,,,,,,,,,,,,,,,,,,,
,,,,,,615200d54efc832849db2259,62c539ef07160c13dfb487cd,2022-07-06_09h30.51.568,Colour_Asymmetry_Pilot,2022.1.3,Win32,60.03121623,62c50e9c1127f2cd403a315f,,,,,,,,,,,,,,,,,,,,twofour,,4,1.011,,,,,,,,,,,,,,,,,,,,,,,,,,,,,,,,,,"[0.2862,0.7802,0.3568]","[-0.9766,-0.34920000000000007,0.2156]",30,93,1,0,0,response1disk,-4,13,1,0,0,rectangle,-4,13,1,0,0,-3,3,0.0005,0,-4,13,1,0,0,0,16,16,51,1,51,first,,,,,,,,,,,,,,,,,,,,,,,,,,,,,,,,,,,,,,,,,,,,,,,,,,,,,,,,,,,,,,,,,,,,,,,,
,,,,,,615200d54efc832849db2259,62c539ef07160c13dfb487cd,2022-07-06_09h30.51.568,Colour_Asymmetry_Pilot,2022.1.3,Win32,60.03121623,62c50e9c1127f2cd403a315f,,,,,,,,,,,,,,,,,,,,twoone,,-4,1.0127,,,,,,,,,,,,,,,,,,,,,,,,,,,,,,,,,,"[0.5449999999999999,-0.31000000000000005,-0.0354000000000001]","[-0.9844,-0.9688,-0.9922]",-45,73,1,0,0,response7disk,6,-1,1,0,0,rectangle,6,-1,1,0,0,-3,2,0.0015,0,6,-1,1,0,0,0,17,17,47,1,47,first,,,,,,,,,,,,,,,,,,,,,,,,,,,,,,,,,,,,,,,,,,,,,,,,,,,,,,,,,,,,,,,,,,,,,,,,
