trials.thisRepN,trials.thisTrialN,trials.thisN,trials.thisIndex,trials.ran,Colourcodes,participant,session,date,expName,psychopyVersion,OS,frameRate,study_id,trials_4.thisRepN,trials_4.thisTrialN,trials_4.thisN,trials_4.thisIndex,trials_4.ran,StimulusPos,key_resp.keys,key_resp.rt,key_resp_2.keys,key_resp_2.rt,key_resp_15.keys,key_resp_15.rt,key_resp_17.keys,key_resp_17.rt,key_resp_9.keys,key_resp_9.rt,key_resp_10.keys,key_resp_10.rt,Circle1_col,Ecc,Circle2_col,similarity,response_time,mouse_5.x,mouse_5.y,mouse_5.leftButton,mouse_5.midButton,mouse_5.rightButton,mouse_5.clicked_name,mouse_10.x,mouse_10.y,mouse_10.leftButton,mouse_10.midButton,mouse_10.rightButton,mouse_10.clicked_name,mouse_7.x,mouse_7.y,mouse_7.leftButton,mouse_7.midButton,mouse_7.rightButton,catchnumberprac,mouse_6.x,mouse_6.y,mouse_6.leftButton,mouse_6.midButton,mouse_6.rightButton,duringprac.thisRepN,duringprac.thisTrialN,duringprac.thisN,duringprac.thisIndex,duringprac.ran,mouse_7.clicked_name,catchprac,mouse_6.clicked_name,key_resp_22.keys,key_resp_22.rt,Circle1_colour,Circle2_colour,mouse.x,mouse.y,mouse.leftButton,mouse.midButton,mouse.rightButton,mouse.clicked_name,mouse_2.x,mouse_2.y,mouse_2.leftButton,mouse_2.midButton,mouse_2.rightButton,mouse_2.clicked_name,mouse_3.x,mouse_3.y,mouse_3.leftButton,mouse_3.midButton,mouse_3.rightButton,catchresponse,catchnumber,response_time_catch,Catch,mouse_11.x,mouse_11.y,mouse_11.leftButton,mouse_11.midButton,mouse_11.rightButton,trials_2.thisRepN,trials_2.thisTrialN,trials_2.thisN,trials_2.thisIndex,trials_2.ran,Colourpair,Temporder,mouse_3.clicked_name,mouse_11.clicked_name,trials_3.thisRepN,trials_3.thisTrialN,trials_3.thisN,trials_3.thisIndex,trials_3.ran,key_resp_instr_Ishi.keys,key_resp_instr_Ishi.rt,Ishi_trial_keyresp.keys,Ishi_textbox.text,Ishi_mouse.x,Ishi_mouse.y,Ishi_mouse.leftButton,Ishi_mouse.midButton,Ishi_mouse.rightButton,Ishi_mouse.clicked_name,Ishi_loop.thisRepN,Ishi_loop.thisTrialN,Ishi_loop.thisN,Ishi_loop.thisIndex,Ishi_loop.ran,imageaddress,textbox.text,mouse_4.x,mouse_4.y,mouse_4.leftButton,mouse_4.midButton,mouse_4.rightButton,mouse_4.clicked_name,textbox_2.text,mouse_8.x,mouse_8.y,mouse_8.leftButton,mouse_8.midButton,mouse_8.rightButton,mouse_8.clicked_name,textbox_3.text,mouse_9.x,mouse_9.y,mouse_9.leftButton,mouse_9.midButton,mouse_9.rightButton,mouse_9.clicked_name,textbox_4.text,mouse_12.x,mouse_12.y,mouse_12.leftButton,mouse_12.midButton,mouse_12.rightButton,mouse_12.clicked_name,textbox_5.text,mouse_13.x,mouse_13.y,mouse_13.leftButton,mouse_13.midButton,mouse_13.rightButton,mouse_13.clicked_name,textbox_6.text,mouse_14.x,mouse_14.y,mouse_14.leftButton,mouse_14.midButton,mouse_14.rightButton,mouse_14.clicked_name,textbox_7.text,mouse_15.x,mouse_15.y,mouse_15.leftButton,mouse_15.midButton,mouse_15.rightButton,mouse_15.clicked_name
0,0,0,47,1,,61521e250ec8fac5185bc0cd,62c53a519cc59c4ecebc80e8,2022-07-06_09h32.48.180,Colour_Asymmetry_Pilot,2022.1.3,Win32,60.06006006,62c50e9c1127f2cd403a315f,,,,,,,,,,,,,,,,,,,,,,,,,,,,,,,,,,,,,,,,,,,,,,,,,,,,,,,,,,,,,,,,,,,,,,,,,,,,,,,,,,,,,,,,,,,,,,,,,,,,,,,,,,,,,,,,,,,,,,,,,,,,,,,,,,,,,,,,,,,,,,,,,,,,,,,,,,,,,,,,,,,
0,1,1,76,1,,61521e250ec8fac5185bc0cd,62c53a519cc59c4ecebc80e8,2022-07-06_09h32.48.180,Colour_Asymmetry_Pilot,2022.1.3,Win32,60.06006006,62c50e9c1127f2cd403a315f,,,,,,,,,,,,,,,,,,,,,,,,,,,,,,,,,,,,,,,,,,,,,,,,,,,,,,,,,,,,,,,,,,,,,,,,,,,,,,,,,,,,,,,,,,,,,,,,,,,,,,,,,,,,,,,,,,,,,,,,,,,,,,,,,,,,,,,,,,,,,,,,,,,,,,,,,,,,,,,,,,,
0,2,2,13,1,,61521e250ec8fac5185bc0cd,62c53a519cc59c4ecebc80e8,2022-07-06_09h32.48.180,Colour_Asymmetry_Pilot,2022.1.3,Win32,60.06006006,62c50e9c1127f2cd403a315f,,,,,,,,,,,,,,,,,,,,,,,,,,,,,,,,,,,,,,,,,,,,,,,,,,,,,,,,,,,,,,,,,,,,,,,,,,,,,,,,,,,,,,,,,,,,,,,,,,,,,,,,,,,,,,,,,,,,,,,,,,,,,,,,,,,,,,,,,,,,,,,,,,,,,,,,,,,,,,,,,,,
0,3,3,11,1,,61521e250ec8fac5185bc0cd,62c53a519cc59c4ecebc80e8,2022-07-06_09h32.48.180,Colour_Asymmetry_Pilot,2022.1.3,Win32,60.06006006,62c50e9c1127f2cd403a315f,,,,,,,,,,,,,,,,,,,,,,,,,,,,,,,,,,,,,,,,,,,,,,,,,,,,,,,,,,,,,,,,,,,,,,,,,,,,,,,,,,,,,,,,,,,,,,,,,,,,,,,,,,,,,,,,,,,,,,,,,,,,,,,,,,,,,,,,,,,,,,,,,,,,,,,,,,,,,,,,,,,
0,4,4,63,1,,61521e250ec8fac5185bc0cd,62c53a519cc59c4ecebc80e8,2022-07-06_09h32.48.180,Colour_Asymmetry_Pilot,2022.1.3,Win32,60.06006006,62c50e9c1127f2cd403a315f,,,,,,,,,,,,,,,,,,,,,,,,,,,,,,,,,,,,,,,,,,,,,,,,,,,,,,,,,,,,,,,,,,,,,,,,,,,,,,,,,,,,,,,,,,,,,,,,,,,,,,,,,,,,,,,,,,,,,,,,,,,,,,,,,,,,,,,,,,,,,,,,,,,,,,,,,,,,,,,,,,,
0,5,5,84,1,,61521e250ec8fac5185bc0cd,62c53a519cc59c4ecebc80e8,2022-07-06_09h32.48.180,Colour_Asymmetry_Pilot,2022.1.3,Win32,60.06006006,62c50e9c1127f2cd403a315f,,,,,,,,,,,,,,,,,,,,,,,,,,,,,,,,,,,,,,,,,,,,,,,,,,,,,,,,,,,,,,,,,,,,,,,,,,,,,,,,,,,,,,,,,,,,,,,,,,,,,,,,,,,,,,,,,,,,,,,,,,,,,,,,,,,,,,,,,,,,,,,,,,,,,,,,,,,,,,,,,,,
0,6,6,81,1,,61521e250ec8fac5185bc0cd,62c53a519cc59c4ecebc80e8,2022-07-06_09h32.48.180,Colour_Asymmetry_Pilot,2022.1.3,Win32,60.06006006,62c50e9c1127f2cd403a315f,,,,,,,,,,,,,,,,,,,,,,,,,,,,,,,,,,,,,,,,,,,,,,,,,,,,,,,,,,,,,,,,,,,,,,,,,,,,,,,,,,,,,,,,,,,,,,,,,,,,,,,,,,,,,,,,,,,,,,,,,,,,,,,,,,,,,,,,,,,,,,,,,,,,,,,,,,,,,,,,,,,
0,7,7,28,1,,61521e250ec8fac5185bc0cd,62c53a519cc59c4ecebc80e8,2022-07-06_09h32.48.180,Colour_Asymmetry_Pilot,2022.1.3,Win32,60.06006006,62c50e9c1127f2cd403a315f,,,,,,,,,,,,,,,,,,,,,,,,,,,,,,,,,,,,,,,,,,,,,,,,,,,,,,,,,,,,,,,,,,,,,,,,,,,,,,,,,,,,,,,,,,,,,,,,,,,,,,,,,,,,,,,,,,,,,,,,,,,,,,,,,,,,,,,,,,,,,,,,,,,,,,,,,,,,,,,,,,,
0,8,8,5,1,,61521e250ec8fac5185bc0cd,62c53a519cc59c4ecebc80e8,2022-07-06_09h32.48.180,Colour_Asymmetry_Pilot,2022.1.3,Win32,60.06006006,62c50e9c1127f2cd403a315f,,,,,,,,,,,,,,,,,,,,,,,,,,,,,,,,,,,,,,,,,,,,,,,,,,,,,,,,,,,,,,,,,,,,,,,,,,,,,,,,,,,,,,,,,,,,,,,,,,,,,,,,,,,,,,,,,,,,,,,,,,,,,,,,,,,,,,,,,,,,,,,,,,,,,,,,,,,,,,,,,,,
0,9,9,8,1,,61521e250ec8fac5185bc0cd,62c53a519cc59c4ecebc80e8,2022-07-06_09h32.48.180,Colour_Asymmetry_Pilot,2022.1.3,Win32,60.06006006,62c50e9c1127f2cd403a315f,,,,,,,,,,,,,,,,,,,,,,,,,,,,,,,,,,,,,,,,,,,,,,,,,,,,,,,,,,,,,,,,,,,,,,,,,,,,,,,,,,,,,,,,,,,,,,,,,,,,,,,,,,,,,,,,,,,,,,,,,,,,,,,,,,,,,,,,,,,,,,,,,,,,,,,,,,,,,,,,,,,
0,10,10,33,1,,61521e250ec8fac5185bc0cd,62c53a519cc59c4ecebc80e8,2022-07-06_09h32.48.180,Colour_Asymmetry_Pilot,2022.1.3,Win32,60.06006006,62c50e9c1127f2cd403a315f,,,,,,,,,,,,,,,,,,,,,,,,,,,,,,,,,,,,,,,,,,,,,,,,,,,,,,,,,,,,,,,,,,,,,,,,,,,,,,,,,,,,,,,,,,,,,,,,,,,,,,,,,,,,,,,,,,,,,,,,,,,,,,,,,,,,,,,,,,,,,,,,,,,,,,,,,,,,,,,,,,,
0,11,11,45,1,,61521e250ec8fac5185bc0cd,62c53a519cc59c4ecebc80e8,2022-07-06_09h32.48.180,Colour_Asymmetry_Pilot,2022.1.3,Win32,60.06006006,62c50e9c1127f2cd403a315f,,,,,,,,,,,,,,,,,,,,,,,,,,,,,,,,,,,,,,,,,,,,,,,,,,,,,,,,,,,,,,,,,,,,,,,,,,,,,,,,,,,,,,,,,,,,,,,,,,,,,,,,,,,,,,,,,,,,,,,,,,,,,,,,,,,,,,,,,,,,,,,,,,,,,,,,,,,,,,,,,,,
0,12,12,29,1,,61521e250ec8fac5185bc0cd,62c53a519cc59c4ecebc80e8,2022-07-06_09h32.48.180,Colour_Asymmetry_Pilot,2022.1.3,Win32,60.06006006,62c50e9c1127f2cd403a315f,,,,,,,,,,,,,,,,,,,,,,,,,,,,,,,,,,,,,,,,,,,,,,,,,,,,,,,,,,,,,,,,,,,,,,,,,,,,,,,,,,,,,,,,,,,,,,,,,,,,,,,,,,,,,,,,,,,,,,,,,,,,,,,,,,,,,,,,,,,,,,,,,,,,,,,,,,,,,,,,,,,
0,13,13,69,1,,61521e250ec8fac5185bc0cd,62c53a519cc59c4ecebc80e8,2022-07-06_09h32.48.180,Colour_Asymmetry_Pilot,2022.1.3,Win32,60.06006006,62c50e9c1127f2cd403a315f,,,,,,,,,,,,,,,,,,,,,,,,,,,,,,,,,,,,,,,,,,,,,,,,,,,,,,,,,,,,,,,,,,,,,,,,,,,,,,,,,,,,,,,,,,,,,,,,,,,,,,,,,,,,,,,,,,,,,,,,,,,,,,,,,,,,,,,,,,,,,,,,,,,,,,,,,,,,,,,,,,,
0,14,14,80,1,,61521e250ec8fac5185bc0cd,62c53a519cc59c4ecebc80e8,2022-07-06_09h32.48.180,Colour_Asymmetry_Pilot,2022.1.3,Win32,60.06006006,62c50e9c1127f2cd403a315f,,,,,,,,,,,,,,,,,,,,,,,,,,,,,,,,,,,,,,,,,,,,,,,,,,,,,,,,,,,,,,,,,,,,,,,,,,,,,,,,,,,,,,,,,,,,,,,,,,,,,,,,,,,,,,,,,,,,,,,,,,,,,,,,,,,,,,,,,,,,,,,,,,,,,,,,,,,,,,,,,,,
0,15,15,20,1,,61521e250ec8fac5185bc0cd,62c53a519cc59c4ecebc80e8,2022-07-06_09h32.48.180,Colour_Asymmetry_Pilot,2022.1.3,Win32,60.06006006,62c50e9c1127f2cd403a315f,,,,,,,,,,,,,,,,,,,,,,,,,,,,,,,,,,,,,,,,,,,,,,,,,,,,,,,,,,,,,,,,,,,,,,,,,,,,,,,,,,,,,,,,,,,,,,,,,,,,,,,,,,,,,,,,,,,,,,,,,,,,,,,,,,,,,,,,,,,,,,,,,,,,,,,,,,,,,,,,,,,
0,16,16,82,1,,61521e250ec8fac5185bc0cd,62c53a519cc59c4ecebc80e8,2022-07-06_09h32.48.180,Colour_Asymmetry_Pilot,2022.1.3,Win32,60.06006006,62c50e9c1127f2cd403a315f,,,,,,,,,,,,,,,,,,,,,,,,,,,,,,,,,,,,,,,,,,,,,,,,,,,,,,,,,,,,,,,,,,,,,,,,,,,,,,,,,,,,,,,,,,,,,,,,,,,,,,,,,,,,,,,,,,,,,,,,,,,,,,,,,,,,,,,,,,,,,,,,,,,,,,,,,,,,,,,,,,,
0,17,17,52,1,,61521e250ec8fac5185bc0cd,62c53a519cc59c4ecebc80e8,2022-07-06_09h32.48.180,Colour_Asymmetry_Pilot,2022.1.3,Win32,60.06006006,62c50e9c1127f2cd403a315f,,,,,,,,,,,,,,,,,,,,,,,,,,,,,,,,,,,,,,,,,,,,,,,,,,,,,,,,,,,,,,,,,,,,,,,,,,,,,,,,,,,,,,,,,,,,,,,,,,,,,,,,,,,,,,,,,,,,,,,,,,,,,,,,,,,,,,,,,,,,,,,,,,,,,,,,,,,,,,,,,,,
0,18,18,72,1,,61521e250ec8fac5185bc0cd,62c53a519cc59c4ecebc80e8,2022-07-06_09h32.48.180,Colour_Asymmetry_Pilot,2022.1.3,Win32,60.06006006,62c50e9c1127f2cd403a315f,,,,,,,,,,,,,,,,,,,,,,,,,,,,,,,,,,,,,,,,,,,,,,,,,,,,,,,,,,,,,,,,,,,,,,,,,,,,,,,,,,,,,,,,,,,,,,,,,,,,,,,,,,,,,,,,,,,,,,,,,,,,,,,,,,,,,,,,,,,,,,,,,,,,,,,,,,,,,,,,,,,
0,19,19,34,1,,61521e250ec8fac5185bc0cd,62c53a519cc59c4ecebc80e8,2022-07-06_09h32.48.180,Colour_Asymmetry_Pilot,2022.1.3,Win32,60.06006006,62c50e9c1127f2cd403a315f,,,,,,,,,,,,,,,,,,,,,,,,,,,,,,,,,,,,,,,,,,,,,,,,,,,,,,,,,,,,,,,,,,,,,,,,,,,,,,,,,,,,,,,,,,,,,,,,,,,,,,,,,,,,,,,,,,,,,,,,,,,,,,,,,,,,,,,,,,,,,,,,,,,,,,,,,,,,,,,,,,,
0,20,20,22,1,,61521e250ec8fac5185bc0cd,62c53a519cc59c4ecebc80e8,2022-07-06_09h32.48.180,Colour_Asymmetry_Pilot,2022.1.3,Win32,60.06006006,62c50e9c1127f2cd403a315f,,,,,,,,,,,,,,,,,,,,,,,,,,,,,,,,,,,,,,,,,,,,,,,,,,,,,,,,,,,,,,,,,,,,,,,,,,,,,,,,,,,,,,,,,,,,,,,,,,,,,,,,,,,,,,,,,,,,,,,,,,,,,,,,,,,,,,,,,,,,,,,,,,,,,,,,,,,,,,,,,,,
0,21,21,15,1,,61521e250ec8fac5185bc0cd,62c53a519cc59c4ecebc80e8,2022-07-06_09h32.48.180,Colour_Asymmetry_Pilot,2022.1.3,Win32,60.06006006,62c50e9c1127f2cd403a315f,,,,,,,,,,,,,,,,,,,,,,,,,,,,,,,,,,,,,,,,,,,,,,,,,,,,,,,,,,,,,,,,,,,,,,,,,,,,,,,,,,,,,,,,,,,,,,,,,,,,,,,,,,,,,,,,,,,,,,,,,,,,,,,,,,,,,,,,,,,,,,,,,,,,,,,,,,,,,,,,,,,
0,22,22,12,1,,61521e250ec8fac5185bc0cd,62c53a519cc59c4ecebc80e8,2022-07-06_09h32.48.180,Colour_Asymmetry_Pilot,2022.1.3,Win32,60.06006006,62c50e9c1127f2cd403a315f,,,,,,,,,,,,,,,,,,,,,,,,,,,,,,,,,,,,,,,,,,,,,,,,,,,,,,,,,,,,,,,,,,,,,,,,,,,,,,,,,,,,,,,,,,,,,,,,,,,,,,,,,,,,,,,,,,,,,,,,,,,,,,,,,,,,,,,,,,,,,,,,,,,,,,,,,,,,,,,,,,,
0,23,23,55,1,,61521e250ec8fac5185bc0cd,62c53a519cc59c4ecebc80e8,2022-07-06_09h32.48.180,Colour_Asymmetry_Pilot,2022.1.3,Win32,60.06006006,62c50e9c1127f2cd403a315f,,,,,,,,,,,,,,,,,,,,,,,,,,,,,,,,,,,,,,,,,,,,,,,,,,,,,,,,,,,,,,,,,,,,,,,,,,,,,,,,,,,,,,,,,,,,,,,,,,,,,,,,,,,,,,,,,,,,,,,,,,,,,,,,,,,,,,,,,,,,,,,,,,,,,,,,,,,,,,,,,,,
0,24,24,14,1,,61521e250ec8fac5185bc0cd,62c53a519cc59c4ecebc80e8,2022-07-06_09h32.48.180,Colour_Asymmetry_Pilot,2022.1.3,Win32,60.06006006,62c50e9c1127f2cd403a315f,,,,,,,,,,,,,,,,,,,,,,,,,,,,,,,,,,,,,,,,,,,,,,,,,,,,,,,,,,,,,,,,,,,,,,,,,,,,,,,,,,,,,,,,,,,,,,,,,,,,,,,,,,,,,,,,,,,,,,,,,,,,,,,,,,,,,,,,,,,,,,,,,,,,,,,,,,,,,,,,,,,
0,25,25,83,1,,61521e250ec8fac5185bc0cd,62c53a519cc59c4ecebc80e8,2022-07-06_09h32.48.180,Colour_Asymmetry_Pilot,2022.1.3,Win32,60.06006006,62c50e9c1127f2cd403a315f,,,,,,,,,,,,,,,,,,,,,,,,,,,,,,,,,,,,,,,,,,,,,,,,,,,,,,,,,,,,,,,,,,,,,,,,,,,,,,,,,,,,,,,,,,,,,,,,,,,,,,,,,,,,,,,,,,,,,,,,,,,,,,,,,,,,,,,,,,,,,,,,,,,,,,,,,,,,,,,,,,,
0,26,26,6,1,,61521e250ec8fac5185bc0cd,62c53a519cc59c4ecebc80e8,2022-07-06_09h32.48.180,Colour_Asymmetry_Pilot,2022.1.3,Win32,60.06006006,62c50e9c1127f2cd403a315f,,,,,,,,,,,,,,,,,,,,,,,,,,,,,,,,,,,,,,,,,,,,,,,,,,,,,,,,,,,,,,,,,,,,,,,,,,,,,,,,,,,,,,,,,,,,,,,,,,,,,,,,,,,,,,,,,,,,,,,,,,,,,,,,,,,,,,,,,,,,,,,,,,,,,,,,,,,,,,,,,,,
0,27,27,40,1,,61521e250ec8fac5185bc0cd,62c53a519cc59c4ecebc80e8,2022-07-06_09h32.48.180,Colour_Asymmetry_Pilot,2022.1.3,Win32,60.06006006,62c50e9c1127f2cd403a315f,,,,,,,,,,,,,,,,,,,,,,,,,,,,,,,,,,,,,,,,,,,,,,,,,,,,,,,,,,,,,,,,,,,,,,,,,,,,,,,,,,,,,,,,,,,,,,,,,,,,,,,,,,,,,,,,,,,,,,,,,,,,,,,,,,,,,,,,,,,,,,,,,,,,,,,,,,,,,,,,,,,
0,28,28,58,1,,61521e250ec8fac5185bc0cd,62c53a519cc59c4ecebc80e8,2022-07-06_09h32.48.180,Colour_Asymmetry_Pilot,2022.1.3,Win32,60.06006006,62c50e9c1127f2cd403a315f,,,,,,,,,,,,,,,,,,,,,,,,,,,,,,,,,,,,,,,,,,,,,,,,,,,,,,,,,,,,,,,,,,,,,,,,,,,,,,,,,,,,,,,,,,,,,,,,,,,,,,,,,,,,,,,,,,,,,,,,,,,,,,,,,,,,,,,,,,,,,,,,,,,,,,,,,,,,,,,,,,,
0,29,29,42,1,,61521e250ec8fac5185bc0cd,62c53a519cc59c4ecebc80e8,2022-07-06_09h32.48.180,Colour_Asymmetry_Pilot,2022.1.3,Win32,60.06006006,62c50e9c1127f2cd403a315f,,,,,,,,,,,,,,,,,,,,,,,,,,,,,,,,,,,,,,,,,,,,,,,,,,,,,,,,,,,,,,,,,,,,,,,,,,,,,,,,,,,,,,,,,,,,,,,,,,,,,,,,,,,,,,,,,,,,,,,,,,,,,,,,,,,,,,,,,,,,,,,,,,,,,,,,,,,,,,,,,,,
0,30,30,30,1,,61521e250ec8fac5185bc0cd,62c53a519cc59c4ecebc80e8,2022-07-06_09h32.48.180,Colour_Asymmetry_Pilot,2022.1.3,Win32,60.06006006,62c50e9c1127f2cd403a315f,,,,,,,,,,,,,,,,,,,,,,,,,,,,,,,,,,,,,,,,,,,,,,,,,,,,,,,,,,,,,,,,,,,,,,,,,,,,,,,,,,,,,,,,,,,,,,,,,,,,,,,,,,,,,,,,,,,,,,,,,,,,,,,,,,,,,,,,,,,,,,,,,,,,,,,,,,,,,,,,,,,
0,31,31,7,1,,61521e250ec8fac5185bc0cd,62c53a519cc59c4ecebc80e8,2022-07-06_09h32.48.180,Colour_Asymmetry_Pilot,2022.1.3,Win32,60.06006006,62c50e9c1127f2cd403a315f,,,,,,,,,,,,,,,,,,,,,,,,,,,,,,,,,,,,,,,,,,,,,,,,,,,,,,,,,,,,,,,,,,,,,,,,,,,,,,,,,,,,,,,,,,,,,,,,,,,,,,,,,,,,,,,,,,,,,,,,,,,,,,,,,,,,,,,,,,,,,,,,,,,,,,,,,,,,,,,,,,,
0,32,32,18,1,,61521e250ec8fac5185bc0cd,62c53a519cc59c4ecebc80e8,2022-07-06_09h32.48.180,Colour_Asymmetry_Pilot,2022.1.3,Win32,60.06006006,62c50e9c1127f2cd403a315f,,,,,,,,,,,,,,,,,,,,,,,,,,,,,,,,,,,,,,,,,,,,,,,,,,,,,,,,,,,,,,,,,,,,,,,,,,,,,,,,,,,,,,,,,,,,,,,,,,,,,,,,,,,,,,,,,,,,,,,,,,,,,,,,,,,,,,,,,,,,,,,,,,,,,,,,,,,,,,,,,,,
0,33,33,79,1,,61521e250ec8fac5185bc0cd,62c53a519cc59c4ecebc80e8,2022-07-06_09h32.48.180,Colour_Asymmetry_Pilot,2022.1.3,Win32,60.06006006,62c50e9c1127f2cd403a315f,,,,,,,,,,,,,,,,,,,,,,,,,,,,,,,,,,,,,,,,,,,,,,,,,,,,,,,,,,,,,,,,,,,,,,,,,,,,,,,,,,,,,,,,,,,,,,,,,,,,,,,,,,,,,,,,,,,,,,,,,,,,,,,,,,,,,,,,,,,,,,,,,,,,,,,,,,,,,,,,,,,
0,34,34,74,1,,61521e250ec8fac5185bc0cd,62c53a519cc59c4ecebc80e8,2022-07-06_09h32.48.180,Colour_Asymmetry_Pilot,2022.1.3,Win32,60.06006006,62c50e9c1127f2cd403a315f,,,,,,,,,,,,,,,,,,,,,,,,,,,,,,,,,,,,,,,,,,,,,,,,,,,,,,,,,,,,,,,,,,,,,,,,,,,,,,,,,,,,,,,,,,,,,,,,,,,,,,,,,,,,,,,,,,,,,,,,,,,,,,,,,,,,,,,,,,,,,,,,,,,,,,,,,,,,,,,,,,,
0,35,35,31,1,,61521e250ec8fac5185bc0cd,62c53a519cc59c4ecebc80e8,2022-07-06_09h32.48.180,Colour_Asymmetry_Pilot,2022.1.3,Win32,60.06006006,62c50e9c1127f2cd403a315f,,,,,,,,,,,,,,,,,,,,,,,,,,,,,,,,,,,,,,,,,,,,,,,,,,,,,,,,,,,,,,,,,,,,,,,,,,,,,,,,,,,,,,,,,,,,,,,,,,,,,,,,,,,,,,,,,,,,,,,,,,,,,,,,,,,,,,,,,,,,,,,,,,,,,,,,,,,,,,,,,,,
0,36,36,92,1,,61521e250ec8fac5185bc0cd,62c53a519cc59c4ecebc80e8,2022-07-06_09h32.48.180,Colour_Asymmetry_Pilot,2022.1.3,Win32,60.06006006,62c50e9c1127f2cd403a315f,,,,,,,,,,,,,,,,,,,,,,,,,,,,,,,,,,,,,,,,,,,,,,,,,,,,,,,,,,,,,,,,,,,,,,,,,,,,,,,,,,,,,,,,,,,,,,,,,,,,,,,,,,,,,,,,,,,,,,,,,,,,,,,,,,,,,,,,,,,,,,,,,,,,,,,,,,,,,,,,,,,
0,37,37,53,1,,61521e250ec8fac5185bc0cd,62c53a519cc59c4ecebc80e8,2022-07-06_09h32.48.180,Colour_Asymmetry_Pilot,2022.1.3,Win32,60.06006006,62c50e9c1127f2cd403a315f,,,,,,,,,,,,,,,,,,,,,,,,,,,,,,,,,,,,,,,,,,,,,,,,,,,,,,,,,,,,,,,,,,,,,,,,,,,,,,,,,,,,,,,,,,,,,,,,,,,,,,,,,,,,,,,,,,,,,,,,,,,,,,,,,,,,,,,,,,,,,,,,,,,,,,,,,,,,,,,,,,,
0,38,38,62,1,,61521e250ec8fac5185bc0cd,62c53a519cc59c4ecebc80e8,2022-07-06_09h32.48.180,Colour_Asymmetry_Pilot,2022.1.3,Win32,60.06006006,62c50e9c1127f2cd403a315f,,,,,,,,,,,,,,,,,,,,,,,,,,,,,,,,,,,,,,,,,,,,,,,,,,,,,,,,,,,,,,,,,,,,,,,,,,,,,,,,,,,,,,,,,,,,,,,,,,,,,,,,,,,,,,,,,,,,,,,,,,,,,,,,,,,,,,,,,,,,,,,,,,,,,,,,,,,,,,,,,,,
0,39,39,16,1,,61521e250ec8fac5185bc0cd,62c53a519cc59c4ecebc80e8,2022-07-06_09h32.48.180,Colour_Asymmetry_Pilot,2022.1.3,Win32,60.06006006,62c50e9c1127f2cd403a315f,,,,,,,,,,,,,,,,,,,,,,,,,,,,,,,,,,,,,,,,,,,,,,,,,,,,,,,,,,,,,,,,,,,,,,,,,,,,,,,,,,,,,,,,,,,,,,,,,,,,,,,,,,,,,,,,,,,,,,,,,,,,,,,,,,,,,,,,,,,,,,,,,,,,,,,,,,,,,,,,,,,
0,40,40,21,1,,61521e250ec8fac5185bc0cd,62c53a519cc59c4ecebc80e8,2022-07-06_09h32.48.180,Colour_Asymmetry_Pilot,2022.1.3,Win32,60.06006006,62c50e9c1127f2cd403a315f,,,,,,,,,,,,,,,,,,,,,,,,,,,,,,,,,,,,,,,,,,,,,,,,,,,,,,,,,,,,,,,,,,,,,,,,,,,,,,,,,,,,,,,,,,,,,,,,,,,,,,,,,,,,,,,,,,,,,,,,,,,,,,,,,,,,,,,,,,,,,,,,,,,,,,,,,,,,,,,,,,,
0,41,41,75,1,,61521e250ec8fac5185bc0cd,62c53a519cc59c4ecebc80e8,2022-07-06_09h32.48.180,Colour_Asymmetry_Pilot,2022.1.3,Win32,60.06006006,62c50e9c1127f2cd403a315f,,,,,,,,,,,,,,,,,,,,,,,,,,,,,,,,,,,,,,,,,,,,,,,,,,,,,,,,,,,,,,,,,,,,,,,,,,,,,,,,,,,,,,,,,,,,,,,,,,,,,,,,,,,,,,,,,,,,,,,,,,,,,,,,,,,,,,,,,,,,,,,,,,,,,,,,,,,,,,,,,,,
0,42,42,56,1,,61521e250ec8fac5185bc0cd,62c53a519cc59c4ecebc80e8,2022-07-06_09h32.48.180,Colour_Asymmetry_Pilot,2022.1.3,Win32,60.06006006,62c50e9c1127f2cd403a315f,,,,,,,,,,,,,,,,,,,,,,,,,,,,,,,,,,,,,,,,,,,,,,,,,,,,,,,,,,,,,,,,,,,,,,,,,,,,,,,,,,,,,,,,,,,,,,,,,,,,,,,,,,,,,,,,,,,,,,,,,,,,,,,,,,,,,,,,,,,,,,,,,,,,,,,,,,,,,,,,,,,
0,43,43,91,1,,61521e250ec8fac5185bc0cd,62c53a519cc59c4ecebc80e8,2022-07-06_09h32.48.180,Colour_Asymmetry_Pilot,2022.1.3,Win32,60.06006006,62c50e9c1127f2cd403a315f,,,,,,,,,,,,,,,,,,,,,,,,,,,,,,,,,,,,,,,,,,,,,,,,,,,,,,,,,,,,,,,,,,,,,,,,,,,,,,,,,,,,,,,,,,,,,,,,,,,,,,,,,,,,,,,,,,,,,,,,,,,,,,,,,,,,,,,,,,,,,,,,,,,,,,,,,,,,,,,,,,,
0,44,44,54,1,,61521e250ec8fac5185bc0cd,62c53a519cc59c4ecebc80e8,2022-07-06_09h32.48.180,Colour_Asymmetry_Pilot,2022.1.3,Win32,60.06006006,62c50e9c1127f2cd403a315f,,,,,,,,,,,,,,,,,,,,,,,,,,,,,,,,,,,,,,,,,,,,,,,,,,,,,,,,,,,,,,,,,,,,,,,,,,,,,,,,,,,,,,,,,,,,,,,,,,,,,,,,,,,,,,,,,,,,,,,,,,,,,,,,,,,,,,,,,,,,,,,,,,,,,,,,,,,,,,,,,,,
0,45,45,4,1,,61521e250ec8fac5185bc0cd,62c53a519cc59c4ecebc80e8,2022-07-06_09h32.48.180,Colour_Asymmetry_Pilot,2022.1.3,Win32,60.06006006,62c50e9c1127f2cd403a315f,,,,,,,,,,,,,,,,,,,,,,,,,,,,,,,,,,,,,,,,,,,,,,,,,,,,,,,,,,,,,,,,,,,,,,,,,,,,,,,,,,,,,,,,,,,,,,,,,,,,,,,,,,,,,,,,,,,,,,,,,,,,,,,,,,,,,,,,,,,,,,,,,,,,,,,,,,,,,,,,,,,
0,46,46,85,1,,61521e250ec8fac5185bc0cd,62c53a519cc59c4ecebc80e8,2022-07-06_09h32.48.180,Colour_Asymmetry_Pilot,2022.1.3,Win32,60.06006006,62c50e9c1127f2cd403a315f,,,,,,,,,,,,,,,,,,,,,,,,,,,,,,,,,,,,,,,,,,,,,,,,,,,,,,,,,,,,,,,,,,,,,,,,,,,,,,,,,,,,,,,,,,,,,,,,,,,,,,,,,,,,,,,,,,,,,,,,,,,,,,,,,,,,,,,,,,,,,,,,,,,,,,,,,,,,,,,,,,,
0,47,47,57,1,,61521e250ec8fac5185bc0cd,62c53a519cc59c4ecebc80e8,2022-07-06_09h32.48.180,Colour_Asymmetry_Pilot,2022.1.3,Win32,60.06006006,62c50e9c1127f2cd403a315f,,,,,,,,,,,,,,,,,,,,,,,,,,,,,,,,,,,,,,,,,,,,,,,,,,,,,,,,,,,,,,,,,,,,,,,,,,,,,,,,,,,,,,,,,,,,,,,,,,,,,,,,,,,,,,,,,,,,,,,,,,,,,,,,,,,,,,,,,,,,,,,,,,,,,,,,,,,,,,,,,,,
0,48,48,43,1,,61521e250ec8fac5185bc0cd,62c53a519cc59c4ecebc80e8,2022-07-06_09h32.48.180,Colour_Asymmetry_Pilot,2022.1.3,Win32,60.06006006,62c50e9c1127f2cd403a315f,,,,,,,,,,,,,,,,,,,,,,,,,,,,,,,,,,,,,,,,,,,,,,,,,,,,,,,,,,,,,,,,,,,,,,,,,,,,,,,,,,,,,,,,,,,,,,,,,,,,,,,,,,,,,,,,,,,,,,,,,,,,,,,,,,,,,,,,,,,,,,,,,,,,,,,,,,,,,,,,,,,
0,49,49,17,1,,61521e250ec8fac5185bc0cd,62c53a519cc59c4ecebc80e8,2022-07-06_09h32.48.180,Colour_Asymmetry_Pilot,2022.1.3,Win32,60.06006006,62c50e9c1127f2cd403a315f,,,,,,,,,,,,,,,,,,,,,,,,,,,,,,,,,,,,,,,,,,,,,,,,,,,,,,,,,,,,,,,,,,,,,,,,,,,,,,,,,,,,,,,,,,,,,,,,,,,,,,,,,,,,,,,,,,,,,,,,,,,,,,,,,,,,,,,,,,,,,,,,,,,,,,,,,,,,,,,,,,,
0,50,50,27,1,,61521e250ec8fac5185bc0cd,62c53a519cc59c4ecebc80e8,2022-07-06_09h32.48.180,Colour_Asymmetry_Pilot,2022.1.3,Win32,60.06006006,62c50e9c1127f2cd403a315f,,,,,,,,,,,,,,,,,,,,,,,,,,,,,,,,,,,,,,,,,,,,,,,,,,,,,,,,,,,,,,,,,,,,,,,,,,,,,,,,,,,,,,,,,,,,,,,,,,,,,,,,,,,,,,,,,,,,,,,,,,,,,,,,,,,,,,,,,,,,,,,,,,,,,,,,,,,,,,,,,,,
0,51,51,24,1,,61521e250ec8fac5185bc0cd,62c53a519cc59c4ecebc80e8,2022-07-06_09h32.48.180,Colour_Asymmetry_Pilot,2022.1.3,Win32,60.06006006,62c50e9c1127f2cd403a315f,,,,,,,,,,,,,,,,,,,,,,,,,,,,,,,,,,,,,,,,,,,,,,,,,,,,,,,,,,,,,,,,,,,,,,,,,,,,,,,,,,,,,,,,,,,,,,,,,,,,,,,,,,,,,,,,,,,,,,,,,,,,,,,,,,,,,,,,,,,,,,,,,,,,,,,,,,,,,,,,,,,
0,52,52,61,1,,61521e250ec8fac5185bc0cd,62c53a519cc59c4ecebc80e8,2022-07-06_09h32.48.180,Colour_Asymmetry_Pilot,2022.1.3,Win32,60.06006006,62c50e9c1127f2cd403a315f,,,,,,,,,,,,,,,,,,,,,,,,,,,,,,,,,,,,,,,,,,,,,,,,,,,,,,,,,,,,,,,,,,,,,,,,,,,,,,,,,,,,,,,,,,,,,,,,,,,,,,,,,,,,,,,,,,,,,,,,,,,,,,,,,,,,,,,,,,,,,,,,,,,,,,,,,,,,,,,,,,,
0,53,53,66,1,,61521e250ec8fac5185bc0cd,62c53a519cc59c4ecebc80e8,2022-07-06_09h32.48.180,Colour_Asymmetry_Pilot,2022.1.3,Win32,60.06006006,62c50e9c1127f2cd403a315f,,,,,,,,,,,,,,,,,,,,,,,,,,,,,,,,,,,,,,,,,,,,,,,,,,,,,,,,,,,,,,,,,,,,,,,,,,,,,,,,,,,,,,,,,,,,,,,,,,,,,,,,,,,,,,,,,,,,,,,,,,,,,,,,,,,,,,,,,,,,,,,,,,,,,,,,,,,,,,,,,,,
0,54,54,71,1,,61521e250ec8fac5185bc0cd,62c53a519cc59c4ecebc80e8,2022-07-06_09h32.48.180,Colour_Asymmetry_Pilot,2022.1.3,Win32,60.06006006,62c50e9c1127f2cd403a315f,,,,,,,,,,,,,,,,,,,,,,,,,,,,,,,,,,,,,,,,,,,,,,,,,,,,,,,,,,,,,,,,,,,,,,,,,,,,,,,,,,,,,,,,,,,,,,,,,,,,,,,,,,,,,,,,,,,,,,,,,,,,,,,,,,,,,,,,,,,,,,,,,,,,,,,,,,,,,,,,,,,
0,55,55,67,1,,61521e250ec8fac5185bc0cd,62c53a519cc59c4ecebc80e8,2022-07-06_09h32.48.180,Colour_Asymmetry_Pilot,2022.1.3,Win32,60.06006006,62c50e9c1127f2cd403a315f,,,,,,,,,,,,,,,,,,,,,,,,,,,,,,,,,,,,,,,,,,,,,,,,,,,,,,,,,,,,,,,,,,,,,,,,,,,,,,,,,,,,,,,,,,,,,,,,,,,,,,,,,,,,,,,,,,,,,,,,,,,,,,,,,,,,,,,,,,,,,,,,,,,,,,,,,,,,,,,,,,,
0,56,56,50,1,,61521e250ec8fac5185bc0cd,62c53a519cc59c4ecebc80e8,2022-07-06_09h32.48.180,Colour_Asymmetry_Pilot,2022.1.3,Win32,60.06006006,62c50e9c1127f2cd403a315f,,,,,,,,,,,,,,,,,,,,,,,,,,,,,,,,,,,,,,,,,,,,,,,,,,,,,,,,,,,,,,,,,,,,,,,,,,,,,,,,,,,,,,,,,,,,,,,,,,,,,,,,,,,,,,,,,,,,,,,,,,,,,,,,,,,,,,,,,,,,,,,,,,,,,,,,,,,,,,,,,,,
0,57,57,88,1,,61521e250ec8fac5185bc0cd,62c53a519cc59c4ecebc80e8,2022-07-06_09h32.48.180,Colour_Asymmetry_Pilot,2022.1.3,Win32,60.06006006,62c50e9c1127f2cd403a315f,,,,,,,,,,,,,,,,,,,,,,,,,,,,,,,,,,,,,,,,,,,,,,,,,,,,,,,,,,,,,,,,,,,,,,,,,,,,,,,,,,,,,,,,,,,,,,,,,,,,,,,,,,,,,,,,,,,,,,,,,,,,,,,,,,,,,,,,,,,,,,,,,,,,,,,,,,,,,,,,,,,
0,58,58,87,1,,61521e250ec8fac5185bc0cd,62c53a519cc59c4ecebc80e8,2022-07-06_09h32.48.180,Colour_Asymmetry_Pilot,2022.1.3,Win32,60.06006006,62c50e9c1127f2cd403a315f,,,,,,,,,,,,,,,,,,,,,,,,,,,,,,,,,,,,,,,,,,,,,,,,,,,,,,,,,,,,,,,,,,,,,,,,,,,,,,,,,,,,,,,,,,,,,,,,,,,,,,,,,,,,,,,,,,,,,,,,,,,,,,,,,,,,,,,,,,,,,,,,,,,,,,,,,,,,,,,,,,,
0,59,59,36,1,,61521e250ec8fac5185bc0cd,62c53a519cc59c4ecebc80e8,2022-07-06_09h32.48.180,Colour_Asymmetry_Pilot,2022.1.3,Win32,60.06006006,62c50e9c1127f2cd403a315f,,,,,,,,,,,,,,,,,,,,,,,,,,,,,,,,,,,,,,,,,,,,,,,,,,,,,,,,,,,,,,,,,,,,,,,,,,,,,,,,,,,,,,,,,,,,,,,,,,,,,,,,,,,,,,,,,,,,,,,,,,,,,,,,,,,,,,,,,,,,,,,,,,,,,,,,,,,,,,,,,,,
0,60,60,3,1,,61521e250ec8fac5185bc0cd,62c53a519cc59c4ecebc80e8,2022-07-06_09h32.48.180,Colour_Asymmetry_Pilot,2022.1.3,Win32,60.06006006,62c50e9c1127f2cd403a315f,,,,,,,,,,,,,,,,,,,,,,,,,,,,,,,,,,,,,,,,,,,,,,,,,,,,,,,,,,,,,,,,,,,,,,,,,,,,,,,,,,,,,,,,,,,,,,,,,,,,,,,,,,,,,,,,,,,,,,,,,,,,,,,,,,,,,,,,,,,,,,,,,,,,,,,,,,,,,,,,,,,
0,61,61,70,1,,61521e250ec8fac5185bc0cd,62c53a519cc59c4ecebc80e8,2022-07-06_09h32.48.180,Colour_Asymmetry_Pilot,2022.1.3,Win32,60.06006006,62c50e9c1127f2cd403a315f,,,,,,,,,,,,,,,,,,,,,,,,,,,,,,,,,,,,,,,,,,,,,,,,,,,,,,,,,,,,,,,,,,,,,,,,,,,,,,,,,,,,,,,,,,,,,,,,,,,,,,,,,,,,,,,,,,,,,,,,,,,,,,,,,,,,,,,,,,,,,,,,,,,,,,,,,,,,,,,,,,,
0,62,62,35,1,,61521e250ec8fac5185bc0cd,62c53a519cc59c4ecebc80e8,2022-07-06_09h32.48.180,Colour_Asymmetry_Pilot,2022.1.3,Win32,60.06006006,62c50e9c1127f2cd403a315f,,,,,,,,,,,,,,,,,,,,,,,,,,,,,,,,,,,,,,,,,,,,,,,,,,,,,,,,,,,,,,,,,,,,,,,,,,,,,,,,,,,,,,,,,,,,,,,,,,,,,,,,,,,,,,,,,,,,,,,,,,,,,,,,,,,,,,,,,,,,,,,,,,,,,,,,,,,,,,,,,,,
0,63,63,19,1,,61521e250ec8fac5185bc0cd,62c53a519cc59c4ecebc80e8,2022-07-06_09h32.48.180,Colour_Asymmetry_Pilot,2022.1.3,Win32,60.06006006,62c50e9c1127f2cd403a315f,,,,,,,,,,,,,,,,,,,,,,,,,,,,,,,,,,,,,,,,,,,,,,,,,,,,,,,,,,,,,,,,,,,,,,,,,,,,,,,,,,,,,,,,,,,,,,,,,,,,,,,,,,,,,,,,,,,,,,,,,,,,,,,,,,,,,,,,,,,,,,,,,,,,,,,,,,,,,,,,,,,
0,64,64,49,1,,61521e250ec8fac5185bc0cd,62c53a519cc59c4ecebc80e8,2022-07-06_09h32.48.180,Colour_Asymmetry_Pilot,2022.1.3,Win32,60.06006006,62c50e9c1127f2cd403a315f,,,,,,,,,,,,,,,,,,,,,,,,,,,,,,,,,,,,,,,,,,,,,,,,,,,,,,,,,,,,,,,,,,,,,,,,,,,,,,,,,,,,,,,,,,,,,,,,,,,,,,,,,,,,,,,,,,,,,,,,,,,,,,,,,,,,,,,,,,,,,,,,,,,,,,,,,,,,,,,,,,,
0,65,65,9,1,,61521e250ec8fac5185bc0cd,62c53a519cc59c4ecebc80e8,2022-07-06_09h32.48.180,Colour_Asymmetry_Pilot,2022.1.3,Win32,60.06006006,62c50e9c1127f2cd403a315f,,,,,,,,,,,,,,,,,,,,,,,,,,,,,,,,,,,,,,,,,,,,,,,,,,,,,,,,,,,,,,,,,,,,,,,,,,,,,,,,,,,,,,,,,,,,,,,,,,,,,,,,,,,,,,,,,,,,,,,,,,,,,,,,,,,,,,,,,,,,,,,,,,,,,,,,,,,,,,,,,,,
0,66,66,73,1,,61521e250ec8fac5185bc0cd,62c53a519cc59c4ecebc80e8,2022-07-06_09h32.48.180,Colour_Asymmetry_Pilot,2022.1.3,Win32,60.06006006,62c50e9c1127f2cd403a315f,,,,,,,,,,,,,,,,,,,,,,,,,,,,,,,,,,,,,,,,,,,,,,,,,,,,,,,,,,,,,,,,,,,,,,,,,,,,,,,,,,,,,,,,,,,,,,,,,,,,,,,,,,,,,,,,,,,,,,,,,,,,,,,,,,,,,,,,,,,,,,,,,,,,,,,,,,,,,,,,,,,
0,67,67,68,1,,61521e250ec8fac5185bc0cd,62c53a519cc59c4ecebc80e8,2022-07-06_09h32.48.180,Colour_Asymmetry_Pilot,2022.1.3,Win32,60.06006006,62c50e9c1127f2cd403a315f,,,,,,,,,,,,,,,,,,,,,,,,,,,,,,,,,,,,,,,,,,,,,,,,,,,,,,,,,,,,,,,,,,,,,,,,,,,,,,,,,,,,,,,,,,,,,,,,,,,,,,,,,,,,,,,,,,,,,,,,,,,,,,,,,,,,,,,,,,,,,,,,,,,,,,,,,,,,,,,,,,,
0,68,68,1,1,,61521e250ec8fac5185bc0cd,62c53a519cc59c4ecebc80e8,2022-07-06_09h32.48.180,Colour_Asymmetry_Pilot,2022.1.3,Win32,60.06006006,62c50e9c1127f2cd403a315f,,,,,,,,,,,,,,,,,,,,,,,,,,,,,,,,,,,,,,,,,,,,,,,,,,,,,,,,,,,,,,,,,,,,,,,,,,,,,,,,,,,,,,,,,,,,,,,,,,,,,,,,,,,,,,,,,,,,,,,,,,,,,,,,,,,,,,,,,,,,,,,,,,,,,,,,,,,,,,,,,,,
0,69,69,48,1,,61521e250ec8fac5185bc0cd,62c53a519cc59c4ecebc80e8,2022-07-06_09h32.48.180,Colour_Asymmetry_Pilot,2022.1.3,Win32,60.06006006,62c50e9c1127f2cd403a315f,,,,,,,,,,,,,,,,,,,,,,,,,,,,,,,,,,,,,,,,,,,,,,,,,,,,,,,,,,,,,,,,,,,,,,,,,,,,,,,,,,,,,,,,,,,,,,,,,,,,,,,,,,,,,,,,,,,,,,,,,,,,,,,,,,,,,,,,,,,,,,,,,,,,,,,,,,,,,,,,,,,
0,70,70,89,1,,61521e250ec8fac5185bc0cd,62c53a519cc59c4ecebc80e8,2022-07-06_09h32.48.180,Colour_Asymmetry_Pilot,2022.1.3,Win32,60.06006006,62c50e9c1127f2cd403a315f,,,,,,,,,,,,,,,,,,,,,,,,,,,,,,,,,,,,,,,,,,,,,,,,,,,,,,,,,,,,,,,,,,,,,,,,,,,,,,,,,,,,,,,,,,,,,,,,,,,,,,,,,,,,,,,,,,,,,,,,,,,,,,,,,,,,,,,,,,,,,,,,,,,,,,,,,,,,,,,,,,,
0,71,71,25,1,,61521e250ec8fac5185bc0cd,62c53a519cc59c4ecebc80e8,2022-07-06_09h32.48.180,Colour_Asymmetry_Pilot,2022.1.3,Win32,60.06006006,62c50e9c1127f2cd403a315f,,,,,,,,,,,,,,,,,,,,,,,,,,,,,,,,,,,,,,,,,,,,,,,,,,,,,,,,,,,,,,,,,,,,,,,,,,,,,,,,,,,,,,,,,,,,,,,,,,,,,,,,,,,,,,,,,,,,,,,,,,,,,,,,,,,,,,,,,,,,,,,,,,,,,,,,,,,,,,,,,,,
0,72,72,51,1,,61521e250ec8fac5185bc0cd,62c53a519cc59c4ecebc80e8,2022-07-06_09h32.48.180,Colour_Asymmetry_Pilot,2022.1.3,Win32,60.06006006,62c50e9c1127f2cd403a315f,,,,,,,,,,,,,,,,,,,,,,,,,,,,,,,,,,,,,,,,,,,,,,,,,,,,,,,,,,,,,,,,,,,,,,,,,,,,,,,,,,,,,,,,,,,,,,,,,,,,,,,,,,,,,,,,,,,,,,,,,,,,,,,,,,,,,,,,,,,,,,,,,,,,,,,,,,,,,,,,,,,
0,73,73,60,1,,61521e250ec8fac5185bc0cd,62c53a519cc59c4ecebc80e8,2022-07-06_09h32.48.180,Colour_Asymmetry_Pilot,2022.1.3,Win32,60.06006006,62c50e9c1127f2cd403a315f,,,,,,,,,,,,,,,,,,,,,,,,,,,,,,,,,,,,,,,,,,,,,,,,,,,,,,,,,,,,,,,,,,,,,,,,,,,,,,,,,,,,,,,,,,,,,,,,,,,,,,,,,,,,,,,,,,,,,,,,,,,,,,,,,,,,,,,,,,,,,,,,,,,,,,,,,,,,,,,,,,,
0,74,74,77,1,,61521e250ec8fac5185bc0cd,62c53a519cc59c4ecebc80e8,2022-07-06_09h32.48.180,Colour_Asymmetry_Pilot,2022.1.3,Win32,60.06006006,62c50e9c1127f2cd403a315f,,,,,,,,,,,,,,,,,,,,,,,,,,,,,,,,,,,,,,,,,,,,,,,,,,,,,,,,,,,,,,,,,,,,,,,,,,,,,,,,,,,,,,,,,,,,,,,,,,,,,,,,,,,,,,,,,,,,,,,,,,,,,,,,,,,,,,,,,,,,,,,,,,,,,,,,,,,,,,,,,,,
0,75,75,86,1,,61521e250ec8fac5185bc0cd,62c53a519cc59c4ecebc80e8,2022-07-06_09h32.48.180,Colour_Asymmetry_Pilot,2022.1.3,Win32,60.06006006,62c50e9c1127f2cd403a315f,,,,,,,,,,,,,,,,,,,,,,,,,,,,,,,,,,,,,,,,,,,,,,,,,,,,,,,,,,,,,,,,,,,,,,,,,,,,,,,,,,,,,,,,,,,,,,,,,,,,,,,,,,,,,,,,,,,,,,,,,,,,,,,,,,,,,,,,,,,,,,,,,,,,,,,,,,,,,,,,,,,
0,76,76,41,1,,61521e250ec8fac5185bc0cd,62c53a519cc59c4ecebc80e8,2022-07-06_09h32.48.180,Colour_Asymmetry_Pilot,2022.1.3,Win32,60.06006006,62c50e9c1127f2cd403a315f,,,,,,,,,,,,,,,,,,,,,,,,,,,,,,,,,,,,,,,,,,,,,,,,,,,,,,,,,,,,,,,,,,,,,,,,,,,,,,,,,,,,,,,,,,,,,,,,,,,,,,,,,,,,,,,,,,,,,,,,,,,,,,,,,,,,,,,,,,,,,,,,,,,,,,,,,,,,,,,,,,,
0,77,77,32,1,,61521e250ec8fac5185bc0cd,62c53a519cc59c4ecebc80e8,2022-07-06_09h32.48.180,Colour_Asymmetry_Pilot,2022.1.3,Win32,60.06006006,62c50e9c1127f2cd403a315f,,,,,,,,,,,,,,,,,,,,,,,,,,,,,,,,,,,,,,,,,,,,,,,,,,,,,,,,,,,,,,,,,,,,,,,,,,,,,,,,,,,,,,,,,,,,,,,,,,,,,,,,,,,,,,,,,,,,,,,,,,,,,,,,,,,,,,,,,,,,,,,,,,,,,,,,,,,,,,,,,,,
0,78,78,39,1,,61521e250ec8fac5185bc0cd,62c53a519cc59c4ecebc80e8,2022-07-06_09h32.48.180,Colour_Asymmetry_Pilot,2022.1.3,Win32,60.06006006,62c50e9c1127f2cd403a315f,,,,,,,,,,,,,,,,,,,,,,,,,,,,,,,,,,,,,,,,,,,,,,,,,,,,,,,,,,,,,,,,,,,,,,,,,,,,,,,,,,,,,,,,,,,,,,,,,,,,,,,,,,,,,,,,,,,,,,,,,,,,,,,,,,,,,,,,,,,,,,,,,,,,,,,,,,,,,,,,,,,
0,79,79,46,1,,61521e250ec8fac5185bc0cd,62c53a519cc59c4ecebc80e8,2022-07-06_09h32.48.180,Colour_Asymmetry_Pilot,2022.1.3,Win32,60.06006006,62c50e9c1127f2cd403a315f,,,,,,,,,,,,,,,,,,,,,,,,,,,,,,,,,,,,,,,,,,,,,,,,,,,,,,,,,,,,,,,,,,,,,,,,,,,,,,,,,,,,,,,,,,,,,,,,,,,,,,,,,,,,,,,,,,,,,,,,,,,,,,,,,,,,,,,,,,,,,,,,,,,,,,,,,,,,,,,,,,,
0,80,80,26,1,,61521e250ec8fac5185bc0cd,62c53a519cc59c4ecebc80e8,2022-07-06_09h32.48.180,Colour_Asymmetry_Pilot,2022.1.3,Win32,60.06006006,62c50e9c1127f2cd403a315f,,,,,,,,,,,,,,,,,,,,,,,,,,,,,,,,,,,,,,,,,,,,,,,,,,,,,,,,,,,,,,,,,,,,,,,,,,,,,,,,,,,,,,,,,,,,,,,,,,,,,,,,,,,,,,,,,,,,,,,,,,,,,,,,,,,,,,,,,,,,,,,,,,,,,,,,,,,,,,,,,,,
0,81,81,78,1,,61521e250ec8fac5185bc0cd,62c53a519cc59c4ecebc80e8,2022-07-06_09h32.48.180,Colour_Asymmetry_Pilot,2022.1.3,Win32,60.06006006,62c50e9c1127f2cd403a315f,,,,,,,,,,,,,,,,,,,,,,,,,,,,,,,,,,,,,,,,,,,,,,,,,,,,,,,,,,,,,,,,,,,,,,,,,,,,,,,,,,,,,,,,,,,,,,,,,,,,,,,,,,,,,,,,,,,,,,,,,,,,,,,,,,,,,,,,,,,,,,,,,,,,,,,,,,,,,,,,,,,
0,82,82,0,1,,61521e250ec8fac5185bc0cd,62c53a519cc59c4ecebc80e8,2022-07-06_09h32.48.180,Colour_Asymmetry_Pilot,2022.1.3,Win32,60.06006006,62c50e9c1127f2cd403a315f,,,,,,,,,,,,,,,,,,,,,,,,,,,,,,,,,,,,,,,,,,,,,,,,,,,,,,,,,,,,,,,,,,,,,,,,,,,,,,,,,,,,,,,,,,,,,,,,,,,,,,,,,,,,,,,,,,,,,,,,,,,,,,,,,,,,,,,,,,,,,,,,,,,,,,,,,,,,,,,,,,,
0,83,83,38,1,,61521e250ec8fac5185bc0cd,62c53a519cc59c4ecebc80e8,2022-07-06_09h32.48.180,Colour_Asymmetry_Pilot,2022.1.3,Win32,60.06006006,62c50e9c1127f2cd403a315f,,,,,,,,,,,,,,,,,,,,,,,,,,,,,,,,,,,,,,,,,,,,,,,,,,,,,,,,,,,,,,,,,,,,,,,,,,,,,,,,,,,,,,,,,,,,,,,,,,,,,,,,,,,,,,,,,,,,,,,,,,,,,,,,,,,,,,,,,,,,,,,,,,,,,,,,,,,,,,,,,,,
0,84,84,64,1,,61521e250ec8fac5185bc0cd,62c53a519cc59c4ecebc80e8,2022-07-06_09h32.48.180,Colour_Asymmetry_Pilot,2022.1.3,Win32,60.06006006,62c50e9c1127f2cd403a315f,,,,,,,,,,,,,,,,,,,,,,,,,,,,,,,,,,,,,,,,,,,,,,,,,,,,,,,,,,,,,,,,,,,,,,,,,,,,,,,,,,,,,,,,,,,,,,,,,,,,,,,,,,,,,,,,,,,,,,,,,,,,,,,,,,,,,,,,,,,,,,,,,,,,,,,,,,,,,,,,,,,
0,85,85,37,1,,61521e250ec8fac5185bc0cd,62c53a519cc59c4ecebc80e8,2022-07-06_09h32.48.180,Colour_Asymmetry_Pilot,2022.1.3,Win32,60.06006006,62c50e9c1127f2cd403a315f,,,,,,,,,,,,,,,,,,,,,,,,,,,,,,,,,,,,,,,,,,,,,,,,,,,,,,,,,,,,,,,,,,,,,,,,,,,,,,,,,,,,,,,,,,,,,,,,,,,,,,,,,,,,,,,,,,,,,,,,,,,,,,,,,,,,,,,,,,,,,,,,,,,,,,,,,,,,,,,,,,,
0,86,86,2,1,,61521e250ec8fac5185bc0cd,62c53a519cc59c4ecebc80e8,2022-07-06_09h32.48.180,Colour_Asymmetry_Pilot,2022.1.3,Win32,60.06006006,62c50e9c1127f2cd403a315f,,,,,,,,,,,,,,,,,,,,,,,,,,,,,,,,,,,,,,,,,,,,,,,,,,,,,,,,,,,,,,,,,,,,,,,,,,,,,,,,,,,,,,,,,,,,,,,,,,,,,,,,,,,,,,,,,,,,,,,,,,,,,,,,,,,,,,,,,,,,,,,,,,,,,,,,,,,,,,,,,,,
0,87,87,10,1,,61521e250ec8fac5185bc0cd,62c53a519cc59c4ecebc80e8,2022-07-06_09h32.48.180,Colour_Asymmetry_Pilot,2022.1.3,Win32,60.06006006,62c50e9c1127f2cd403a315f,,,,,,,,,,,,,,,,,,,,,,,,,,,,,,,,,,,,,,,,,,,,,,,,,,,,,,,,,,,,,,,,,,,,,,,,,,,,,,,,,,,,,,,,,,,,,,,,,,,,,,,,,,,,,,,,,,,,,,,,,,,,,,,,,,,,,,,,,,,,,,,,,,,,,,,,,,,,,,,,,,,
0,88,88,59,1,,61521e250ec8fac5185bc0cd,62c53a519cc59c4ecebc80e8,2022-07-06_09h32.48.180,Colour_Asymmetry_Pilot,2022.1.3,Win32,60.06006006,62c50e9c1127f2cd403a315f,,,,,,,,,,,,,,,,,,,,,,,,,,,,,,,,,,,,,,,,,,,,,,,,,,,,,,,,,,,,,,,,,,,,,,,,,,,,,,,,,,,,,,,,,,,,,,,,,,,,,,,,,,,,,,,,,,,,,,,,,,,,,,,,,,,,,,,,,,,,,,,,,,,,,,,,,,,,,,,,,,,
0,89,89,44,1,,61521e250ec8fac5185bc0cd,62c53a519cc59c4ecebc80e8,2022-07-06_09h32.48.180,Colour_Asymmetry_Pilot,2022.1.3,Win32,60.06006006,62c50e9c1127f2cd403a315f,,,,,,,,,,,,,,,,,,,,,,,,,,,,,,,,,,,,,,,,,,,,,,,,,,,,,,,,,,,,,,,,,,,,,,,,,,,,,,,,,,,,,,,,,,,,,,,,,,,,,,,,,,,,,,,,,,,,,,,,,,,,,,,,,,,,,,,,,,,,,,,,,,,,,,,,,,,,,,,,,,,
0,90,90,23,1,,61521e250ec8fac5185bc0cd,62c53a519cc59c4ecebc80e8,2022-07-06_09h32.48.180,Colour_Asymmetry_Pilot,2022.1.3,Win32,60.06006006,62c50e9c1127f2cd403a315f,,,,,,,,,,,,,,,,,,,,,,,,,,,,,,,,,,,,,,,,,,,,,,,,,,,,,,,,,,,,,,,,,,,,,,,,,,,,,,,,,,,,,,,,,,,,,,,,,,,,,,,,,,,,,,,,,,,,,,,,,,,,,,,,,,,,,,,,,,,,,,,,,,,,,,,,,,,,,,,,,,,
0,91,91,65,1,,61521e250ec8fac5185bc0cd,62c53a519cc59c4ecebc80e8,2022-07-06_09h32.48.180,Colour_Asymmetry_Pilot,2022.1.3,Win32,60.06006006,62c50e9c1127f2cd403a315f,,,,,,,,,,,,,,,,,,,,,,,,,,,,,,,,,,,,,,,,,,,,,,,,,,,,,,,,,,,,,,,,,,,,,,,,,,,,,,,,,,,,,,,,,,,,,,,,,,,,,,,,,,,,,,,,,,,,,,,,,,,,,,,,,,,,,,,,,,,,,,,,,,,,,,,,,,,,,,,,,,,
0,92,92,90,1,,61521e250ec8fac5185bc0cd,62c53a519cc59c4ecebc80e8,2022-07-06_09h32.48.180,Colour_Asymmetry_Pilot,2022.1.3,Win32,60.06006006,62c50e9c1127f2cd403a315f,,,,,,,,,,,,,,,,,,,,,,,,,,,,,,,,,,,,,,,,,,,,,,,,,,,,,,,,,,,,,,,,,,,,,,,,,,,,,,,,,,,,,,,,,,,,,,,,,,,,,,,,,,,,,,,,,,,,,,,,,,,,,,,,,,,,,,,,,,,,,,,,,,,,,,,,,,,,,,,,,,,
,,,,,,61521e250ec8fac5185bc0cd,62c53a519cc59c4ecebc80e8,2022-07-06_09h32.48.180,Colour_Asymmetry_Pilot,2022.1.3,Win32,60.06006006,62c50e9c1127f2cd403a315f,0,0,0,137,1,onethree,,,,,,,,,,,,,,,,,,,,,,,,,,,,,,,,,,,,,,,,,,,,,,,,,,,,,,,,,,,,,,,,,,,,,,,,,,,,,,,,,,,,,,,,,,,,,,,,,,,,,,,,,,,,,,,,,,,,,,,,,,,,,,,,,,,,,,,,,,,,,,,,,,,,,,,,,,,,,
,,,,,,61521e250ec8fac5185bc0cd,62c53a519cc59c4ecebc80e8,2022-07-06_09h32.48.180,Colour_Asymmetry_Pilot,2022.1.3,Win32,60.06006006,62c50e9c1127f2cd403a315f,0,1,1,69,1,threefour,,,,,,,,,,,,,,,,,,,,,,,,,,,,,,,,,,,,,,,,,,,,,,,,,,,,,,,,,,,,,,,,,,,,,,,,,,,,,,,,,,,,,,,,,,,,,,,,,,,,,,,,,,,,,,,,,,,,,,,,,,,,,,,,,,,,,,,,,,,,,,,,,,,,,,,,,,,,,
,,,,,,61521e250ec8fac5185bc0cd,62c53a519cc59c4ecebc80e8,2022-07-06_09h32.48.180,Colour_Asymmetry_Pilot,2022.1.3,Win32,60.06006006,62c50e9c1127f2cd403a315f,0,2,2,20,1,threeone,,,,,,,,,,,,,,,,,,,,,,,,,,,,,,,,,,,,,,,,,,,,,,,,,,,,,,,,,,,,,,,,,,,,,,,,,,,,,,,,,,,,,,,,,,,,,,,,,,,,,,,,,,,,,,,,,,,,,,,,,,,,,,,,,,,,,,,,,,,,,,,,,,,,,,,,,,,,,
,,,,,,61521e250ec8fac5185bc0cd,62c53a519cc59c4ecebc80e8,2022-07-06_09h32.48.180,Colour_Asymmetry_Pilot,2022.1.3,Win32,60.06006006,62c50e9c1127f2cd403a315f,0,3,3,13,1,threefour,,,,,,,,,,,,,,,,,,,,,,,,,,,,,,,,,,,,,,,,,,,,,,,,,,,,,,,,,,,,,,,,,,,,,,,,,,,,,,,,,,,,,,,,,,,,,,,,,,,,,,,,,,,,,,,,,,,,,,,,,,,,,,,,,,,,,,,,,,,,,,,,,,,,,,,,,,,,,
,,,,,,61521e250ec8fac5185bc0cd,62c53a519cc59c4ecebc80e8,2022-07-06_09h32.48.180,Colour_Asymmetry_Pilot,2022.1.3,Win32,60.06006006,62c50e9c1127f2cd403a315f,0,4,4,68,1,threeone,,,,,,,,,,,,,,,,,,,,,,,,,,,,,,,,,,,,,,,,,,,,,,,,,,,,,,,,,,,,,,,,,,,,,,,,,,,,,,,,,,,,,,,,,,,,,,,,,,,,,,,,,,,,,,,,,,,,,,,,,,,,,,,,,,,,,,,,,,,,,,,,,,,,,,,,,,,,,
,,,,,,61521e250ec8fac5185bc0cd,62c53a519cc59c4ecebc80e8,2022-07-06_09h32.48.180,Colour_Asymmetry_Pilot,2022.1.3,Win32,60.06006006,62c50e9c1127f2cd403a315f,0,5,5,87,1,fourthree,,,,,,,,,,,,,,,,,,,,,,,,,,,,,,,,,,,,,,,,,,,,,,,,,,,,,,,,,,,,,,,,,,,,,,,,,,,,,,,,,,,,,,,,,,,,,,,,,,,,,,,,,,,,,,,,,,,,,,,,,,,,,,,,,,,,,,,,,,,,,,,,,,,,,,,,,,,,,
,,,,,,61521e250ec8fac5185bc0cd,62c53a519cc59c4ecebc80e8,2022-07-06_09h32.48.180,Colour_Asymmetry_Pilot,2022.1.3,Win32,60.06006006,62c50e9c1127f2cd403a315f,0,6,6,0,1,onetwo,,,,,,,,,,,,,,,,,,,,,,,,,,,,,,,,,,,,,,,,,,,,,,,,,,,,,,,,,,,,,,,,,,,,,,,,,,,,,,,,,,,,,,,,,,,,,,,,,,,,,,,,,,,,,,,,,,,,,,,,,,,,,,,,,,,,,,,,,,,,,,,,,,,,,,,,,,,,,
,,,,,,61521e250ec8fac5185bc0cd,62c53a519cc59c4ecebc80e8,2022-07-06_09h32.48.180,Colour_Asymmetry_Pilot,2022.1.3,Win32,60.06006006,62c50e9c1127f2cd403a315f,0,7,7,64,1,onetwo,,,,,,,,,,,,,,,,,,,,,,,,,,,,,,,,,,,,,,,,,,,,,,,,,,,,,,,,,,,,,,,,,,,,,,,,,,,,,,,,,,,,,,,,,,,,,,,,,,,,,,,,,,,,,,,,,,,,,,,,,,,,,,,,,,,,,,,,,,,,,,,,,,,,,,,,,,,,,
,,,,,,61521e250ec8fac5185bc0cd,62c53a519cc59c4ecebc80e8,2022-07-06_09h32.48.180,Colour_Asymmetry_Pilot,2022.1.3,Win32,60.06006006,62c50e9c1127f2cd403a315f,0,8,8,79,1,fourthree,,,,,,,,,,,,,,,,,,,,,,,,,,,,,,,,,,,,,,,,,,,,,,,,,,,,,,,,,,,,,,,,,,,,,,,,,,,,,,,,,,,,,,,,,,,,,,,,,,,,,,,,,,,,,,,,,,,,,,,,,,,,,,,,,,,,,,,,,,,,,,,,,,,,,,,,,,,,,
,,,,,,61521e250ec8fac5185bc0cd,62c53a519cc59c4ecebc80e8,2022-07-06_09h32.48.180,Colour_Asymmetry_Pilot,2022.1.3,Win32,60.06006006,62c50e9c1127f2cd403a315f,0,9,9,138,1,twoone,,,,,,,,,,,,,,,,,,,,,,,,,,,,,,,,,,,,,,,,,,,,,,,,,,,,,,,,,,,,,,,,,,,,,,,,,,,,,,,,,,,,,,,,,,,,,,,,,,,,,,,,,,,,,,,,,,,,,,,,,,,,,,,,,,,,,,,,,,,,,,,,,,,,,,,,,,,,,
,,,,,,61521e250ec8fac5185bc0cd,62c53a519cc59c4ecebc80e8,2022-07-06_09h32.48.180,Colour_Asymmetry_Pilot,2022.1.3,Win32,60.06006006,62c50e9c1127f2cd403a315f,0,10,10,113,1,onethree,,,,,,,,,,,,,,,,,,,,,,,,,,,,,,,,,,,,,,,,,,,,,,,,,,,,,,,,,,,,,,,,,,,,,,,,,,,,,,,,,,,,,,,,,,,,,,,,,,,,,,,,,,,,,,,,,,,,,,,,,,,,,,,,,,,,,,,,,,,,,,,,,,,,,,,,,,,,,
,,,,,,61521e250ec8fac5185bc0cd,62c53a519cc59c4ecebc80e8,2022-07-06_09h32.48.180,Colour_Asymmetry_Pilot,2022.1.3,Win32,60.06006006,62c50e9c1127f2cd403a315f,0,11,11,111,1,fourthree,,,,,,,,,,,,,,,,,,,,,,,,,,,,,,,,,,,,,,,,,,,,,,,,,,,,,,,,,,,,,,,,,,,,,,,,,,,,,,,,,,,,,,,,,,,,,,,,,,,,,,,,,,,,,,,,,,,,,,,,,,,,,,,,,,,,,,,,,,,,,,,,,,,,,,,,,,,,,
,,,,,,61521e250ec8fac5185bc0cd,62c53a519cc59c4ecebc80e8,2022-07-06_09h32.48.180,Colour_Asymmetry_Pilot,2022.1.3,Win32,60.06006006,62c50e9c1127f2cd403a315f,0,12,12,124,1,threeone,,,,,,,,,,,,,,,,,,,,,,,,,,,,,,,,,,,,,,,,,,,,,,,,,,,,,,,,,,,,,,,,,,,,,,,,,,,,,,,,,,,,,,,,,,,,,,,,,,,,,,,,,,,,,,,,,,,,,,,,,,,,,,,,,,,,,,,,,,,,,,,,,,,,,,,,,,,,,
,,,,,,61521e250ec8fac5185bc0cd,62c53a519cc59c4ecebc80e8,2022-07-06_09h32.48.180,Colour_Asymmetry_Pilot,2022.1.3,Win32,60.06006006,62c50e9c1127f2cd403a315f,0,13,13,95,1,fourthree,,,,,,,,,,,,,,,,,,,,,,,,,,,,,,,,,,,,,,,,,,,,,,,,,,,,,,,,,,,,,,,,,,,,,,,,,,,,,,,,,,,,,,,,,,,,,,,,,,,,,,,,,,,,,,,,,,,,,,,,,,,,,,,,,,,,,,,,,,,,,,,,,,,,,,,,,,,,,
,,,,,,61521e250ec8fac5185bc0cd,62c53a519cc59c4ecebc80e8,2022-07-06_09h32.48.180,Colour_Asymmetry_Pilot,2022.1.3,Win32,60.06006006,62c50e9c1127f2cd403a315f,0,14,14,161,1,onethree,,,,,,,,,,,,,,,,,,,,,,,,,,,,,,,,,,,,,,,,,,,,,,,,,,,,,,,,,,,,,,,,,,,,,,,,,,,,,,,,,,,,,,,,,,,,,,,,,,,,,,,,,,,,,,,,,,,,,,,,,,,,,,,,,,,,,,,,,,,,,,,,,,,,,,,,,,,,,
,,,,,,61521e250ec8fac5185bc0cd,62c53a519cc59c4ecebc80e8,2022-07-06_09h32.48.180,Colour_Asymmetry_Pilot,2022.1.3,Win32,60.06006006,62c50e9c1127f2cd403a315f,0,15,15,18,1,twoone,,,,,,,,,,,,,,,,,,,,,,,,,,,,,,,,,,,,,,,,,,,,,,,,,,,,,,,,,,,,,,,,,,,,,,,,,,,,,,,,,,,,,,,,,,,,,,,,,,,,,,,,,,,,,,,,,,,,,,,,,,,,,,,,,,,,,,,,,,,,,,,,,,,,,,,,,,,,,
,,,,,,61521e250ec8fac5185bc0cd,62c53a519cc59c4ecebc80e8,2022-07-06_09h32.48.180,Colour_Asymmetry_Pilot,2022.1.3,Win32,60.06006006,62c50e9c1127f2cd403a315f,0,16,16,154,1,twoone,,,,,,,,,,,,,,,,,,,,,,,,,,,,,,,,,,,,,,,,,,,,,,,,,,,,,,,,,,,,,,,,,,,,,,,,,,,,,,,,,,,,,,,,,,,,,,,,,,,,,,,,,,,,,,,,,,,,,,,,,,,,,,,,,,,,,,,,,,,,,,,,,,,,,,,,,,,,,
,,,,,,61521e250ec8fac5185bc0cd,62c53a519cc59c4ecebc80e8,2022-07-06_09h32.48.180,Colour_Asymmetry_Pilot,2022.1.3,Win32,60.06006006,62c50e9c1127f2cd403a315f,0,17,17,1,1,onethree,,,,,,,,,,,,,,,,,,,,,,,,,,,,,,,,,,,,,,,,,,,,,,,,,,,,,,,,,,,,,,,,,,,,,,,,,,,,,,,,,,,,,,,,,,,,,,,,,,,,,,,,,,,,,,,,,,,,,,,,,,,,,,,,,,,,,,,,,,,,,,,,,,,,,,,,,,,,,
,,,,,,61521e250ec8fac5185bc0cd,62c53a519cc59c4ecebc80e8,2022-07-06_09h32.48.180,Colour_Asymmetry_Pilot,2022.1.3,Win32,60.06006006,62c50e9c1127f2cd403a315f,0,18,18,155,1,twofour,,,,,,,,,,,,,,,,,,,,,,,,,,,,,,,,,,,,,,,,,,,,,,,,,,,,,,,,,,,,,,,,,,,,,,,,,,,,,,,,,,,,,,,,,,,,,,,,,,,,,,,,,,,,,,,,,,,,,,,,,,,,,,,,,,,,,,,,,,,,,,,,,,,,,,,,,,,,,
,,,,,,61521e250ec8fac5185bc0cd,62c53a519cc59c4ecebc80e8,2022-07-06_09h32.48.180,Colour_Asymmetry_Pilot,2022.1.3,Win32,60.06006006,62c50e9c1127f2cd403a315f,0,19,19,49,1,onethree,,,,,,,,,,,,,,,,,,,,,,,,,,,,,,,,,,,,,,,,,,,,,,,,,,,,,,,,,,,,,,,,,,,,,,,,,,,,,,,,,,,,,,,,,,,,,,,,,,,,,,,,,,,,,,,,,,,,,,,,,,,,,,,,,,,,,,,,,,,,,,,,,,,,,,,,,,,,,
,,,,,,61521e250ec8fac5185bc0cd,62c53a519cc59c4ecebc80e8,2022-07-06_09h32.48.180,Colour_Asymmetry_Pilot,2022.1.3,Win32,60.06006006,62c50e9c1127f2cd403a315f,0,20,20,47,1,fourthree,,,,,,,,,,,,,,,,,,,,,,,,,,,,,,,,,,,,,,,,,,,,,,,,,,,,,,,,,,,,,,,,,,,,,,,,,,,,,,,,,,,,,,,,,,,,,,,,,,,,,,,,,,,,,,,,,,,,,,,,,,,,,,,,,,,,,,,,,,,,,,,,,,,,,,,,,,,,,
,,,,,,61521e250ec8fac5185bc0cd,62c53a519cc59c4ecebc80e8,2022-07-06_09h32.48.180,Colour_Asymmetry_Pilot,2022.1.3,Win32,60.06006006,62c50e9c1127f2cd403a315f,0,21,21,15,1,fourthree,,,,,,,,,,,,,,,,,,,,,,,,,,,,,,,,,,,,,,,,,,,,,,,,,,,,,,,,,,,,,,,,,,,,,,,,,,,,,,,,,,,,,,,,,,,,,,,,,,,,,,,,,,,,,,,,,,,,,,,,,,,,,,,,,,,,,,,,,,,,,,,,,,,,,,,,,,,,,
,,,,,,61521e250ec8fac5185bc0cd,62c53a519cc59c4ecebc80e8,2022-07-06_09h32.48.180,Colour_Asymmetry_Pilot,2022.1.3,Win32,60.06006006,62c50e9c1127f2cd403a315f,0,22,22,45,1,threefour,,,,,,,,,,,,,,,,,,,,,,,,,,,,,,,,,,,,,,,,,,,,,,,,,,,,,,,,,,,,,,,,,,,,,,,,,,,,,,,,,,,,,,,,,,,,,,,,,,,,,,,,,,,,,,,,,,,,,,,,,,,,,,,,,,,,,,,,,,,,,,,,,,,,,,,,,,,,,
,,,,,,61521e250ec8fac5185bc0cd,62c53a519cc59c4ecebc80e8,2022-07-06_09h32.48.180,Colour_Asymmetry_Pilot,2022.1.3,Win32,60.06006006,62c50e9c1127f2cd403a315f,0,23,23,148,1,threeone,,,,,,,,,,,,,,,,,,,,,,,,,,,,,,,,,,,,,,,,,,,,,,,,,,,,,,,,,,,,,,,,,,,,,,,,,,,,,,,,,,,,,,,,,,,,,,,,,,,,,,,,,,,,,,,,,,,,,,,,,,,,,,,,,,,,,,,,,,,,,,,,,,,,,,,,,,,,,
,,,,,,61521e250ec8fac5185bc0cd,62c53a519cc59c4ecebc80e8,2022-07-06_09h32.48.180,Colour_Asymmetry_Pilot,2022.1.3,Win32,60.06006006,62c50e9c1127f2cd403a315f,0,24,24,121,1,onethree,,,,,,,,,,,,,,,,,,,,,,,,,,,,,,,,,,,,,,,,,,,,,,,,,,,,,,,,,,,,,,,,,,,,,,,,,,,,,,,,,,,,,,,,,,,,,,,,,,,,,,,,,,,,,,,,,,,,,,,,,,,,,,,,,,,,,,,,,,,,,,,,,,,,,,,,,,,,,
,,,,,,61521e250ec8fac5185bc0cd,62c53a519cc59c4ecebc80e8,2022-07-06_09h32.48.180,Colour_Asymmetry_Pilot,2022.1.3,Win32,60.06006006,62c50e9c1127f2cd403a315f,0,25,25,112,1,onetwo,,,,,,,,,,,,,,,,,,,,,,,,,,,,,,,,,,,,,,,,,,,,,,,,,,,,,,,,,,,,,,,,,,,,,,,,,,,,,,,,,,,,,,,,,,,,,,,,,,,,,,,,,,,,,,,,,,,,,,,,,,,,,,,,,,,,,,,,,,,,,,,,,,,,,,,,,,,,,
,,,,,,61521e250ec8fac5185bc0cd,62c53a519cc59c4ecebc80e8,2022-07-06_09h32.48.180,Colour_Asymmetry_Pilot,2022.1.3,Win32,60.06006006,62c50e9c1127f2cd403a315f,0,26,26,132,1,threeone,,,,,,,,,,,,,,,,,,,,,,,,,,,,,,,,,,,,,,,,,,,,,,,,,,,,,,,,,,,,,,,,,,,,,,,,,,,,,,,,,,,,,,,,,,,,,,,,,,,,,,,,,,,,,,,,,,,,,,,,,,,,,,,,,,,,,,,,,,,,,,,,,,,,,,,,,,,,,
,,,,,,61521e250ec8fac5185bc0cd,62c53a519cc59c4ecebc80e8,2022-07-06_09h32.48.180,Colour_Asymmetry_Pilot,2022.1.3,Win32,60.06006006,62c50e9c1127f2cd403a315f,0,27,27,98,1,twoone,,,,,,,,,,,,,,,,,,,,,,,,,,,,,,,,,,,,,,,,,,,,,,,,,,,,,,,,,,,,,,,,,,,,,,,,,,,,,,,,,,,,,,,,,,,,,,,,,,,,,,,,,,,,,,,,,,,,,,,,,,,,,,,,,,,,,,,,,,,,,,,,,,,,,,,,,,,,,
,,,,,,61521e250ec8fac5185bc0cd,62c53a519cc59c4ecebc80e8,2022-07-06_09h32.48.180,Colour_Asymmetry_Pilot,2022.1.3,Win32,60.06006006,62c50e9c1127f2cd403a315f,0,28,28,153,1,onethree,,,,,,,,,,,,,,,,,,,,,,,,,,,,,,,,,,,,,,,,,,,,,,,,,,,,,,,,,,,,,,,,,,,,,,,,,,,,,,,,,,,,,,,,,,,,,,,,,,,,,,,,,,,,,,,,,,,,,,,,,,,,,,,,,,,,,,,,,,,,,,,,,,,,,,,,,,,,,
,,,,,,61521e250ec8fac5185bc0cd,62c53a519cc59c4ecebc80e8,2022-07-06_09h32.48.180,Colour_Asymmetry_Pilot,2022.1.3,Win32,60.06006006,62c50e9c1127f2cd403a315f,0,29,29,36,1,threeone,,,,,,,,,,,,,,,,,,,,,,,,,,,,,,,,,,,,,,,,,,,,,,,,,,,,,,,,,,,,,,,,,,,,,,,,,,,,,,,,,,,,,,,,,,,,,,,,,,,,,,,,,,,,,,,,,,,,,,,,,,,,,,,,,,,,,,,,,,,,,,,,,,,,,,,,,,,,,
,,,,,,61521e250ec8fac5185bc0cd,62c53a519cc59c4ecebc80e8,2022-07-06_09h32.48.180,Colour_Asymmetry_Pilot,2022.1.3,Win32,60.06006006,62c50e9c1127f2cd403a315f,0,30,30,129,1,onethree,,,,,,,,,,,,,,,,,,,,,,,,,,,,,,,,,,,,,,,,,,,,,,,,,,,,,,,,,,,,,,,,,,,,,,,,,,,,,,,,,,,,,,,,,,,,,,,,,,,,,,,,,,,,,,,,,,,,,,,,,,,,,,,,,,,,,,,,,,,,,,,,,,,,,,,,,,,,,
,,,,,,61521e250ec8fac5185bc0cd,62c53a519cc59c4ecebc80e8,2022-07-06_09h32.48.180,Colour_Asymmetry_Pilot,2022.1.3,Win32,60.06006006,62c50e9c1127f2cd403a315f,0,31,31,81,1,onethree,,,,,,,,,,,,,,,,,,,,,,,,,,,,,,,,,,,,,,,,,,,,,,,,,,,,,,,,,,,,,,,,,,,,,,,,,,,,,,,,,,,,,,,,,,,,,,,,,,,,,,,,,,,,,,,,,,,,,,,,,,,,,,,,,,,,,,,,,,,,,,,,,,,,,,,,,,,,,
,,,,,,61521e250ec8fac5185bc0cd,62c53a519cc59c4ecebc80e8,2022-07-06_09h32.48.180,Colour_Asymmetry_Pilot,2022.1.3,Win32,60.06006006,62c50e9c1127f2cd403a315f,0,32,32,150,1,fourtwo,,,,,,,,,,,,,,,,,,,,,,,,,,,,,,,,,,,,,,,,,,,,,,,,,,,,,,,,,,,,,,,,,,,,,,,,,,,,,,,,,,,,,,,,,,,,,,,,,,,,,,,,,,,,,,,,,,,,,,,,,,,,,,,,,,,,,,,,,,,,,,,,,,,,,,,,,,,,,
,,,,,,61521e250ec8fac5185bc0cd,62c53a519cc59c4ecebc80e8,2022-07-06_09h32.48.180,Colour_Asymmetry_Pilot,2022.1.3,Win32,60.06006006,62c50e9c1127f2cd403a315f,0,33,33,83,1,twofour,,,,,,,,,,,,,,,,,,,,,,,,,,,,,,,,,,,,,,,,,,,,,,,,,,,,,,,,,,,,,,,,,,,,,,,,,,,,,,,,,,,,,,,,,,,,,,,,,,,,,,,,,,,,,,,,,,,,,,,,,,,,,,,,,,,,,,,,,,,,,,,,,,,,,,,,,,,,,
,,,,,,61521e250ec8fac5185bc0cd,62c53a519cc59c4ecebc80e8,2022-07-06_09h32.48.180,Colour_Asymmetry_Pilot,2022.1.3,Win32,60.06006006,62c50e9c1127f2cd403a315f,0,34,34,133,1,threefour,,,,,,,,,,,,,,,,,,,,,,,,,,,,,,,,,,,,,,,,,,,,,,,,,,,,,,,,,,,,,,,,,,,,,,,,,,,,,,,,,,,,,,,,,,,,,,,,,,,,,,,,,,,,,,,,,,,,,,,,,,,,,,,,,,,,,,,,,,,,,,,,,,,,,,,,,,,,,
,,,,,,61521e250ec8fac5185bc0cd,62c53a519cc59c4ecebc80e8,2022-07-06_09h32.48.180,Colour_Asymmetry_Pilot,2022.1.3,Win32,60.06006006,62c50e9c1127f2cd403a315f,0,35,35,57,1,onethree,,,,,,,,,,,,,,,,,,,,,,,,,,,,,,,,,,,,,,,,,,,,,,,,,,,,,,,,,,,,,,,,,,,,,,,,,,,,,,,,,,,,,,,,,,,,,,,,,,,,,,,,,,,,,,,,,,,,,,,,,,,,,,,,,,,,,,,,,,,,,,,,,,,,,,,,,,,,,
,,,,,,61521e250ec8fac5185bc0cd,62c53a519cc59c4ecebc80e8,2022-07-06_09h32.48.180,Colour_Asymmetry_Pilot,2022.1.3,Win32,60.06006006,62c50e9c1127f2cd403a315f,0,36,36,82,1,twoone,,,,,,,,,,,,,,,,,,,,,,,,,,,,,,,,,,,,,,,,,,,,,,,,,,,,,,,,,,,,,,,,,,,,,,,,,,,,,,,,,,,,,,,,,,,,,,,,,,,,,,,,,,,,,,,,,,,,,,,,,,,,,,,,,,,,,,,,,,,,,,,,,,,,,,,,,,,,,
,,,,,,61521e250ec8fac5185bc0cd,62c53a519cc59c4ecebc80e8,2022-07-06_09h32.48.180,Colour_Asymmetry_Pilot,2022.1.3,Win32,60.06006006,62c50e9c1127f2cd403a315f,0,37,37,62,1,fourtwo,,,,,,,,,,,,,,,,,,,,,,,,,,,,,,,,,,,,,,,,,,,,,,,,,,,,,,,,,,,,,,,,,,,,,,,,,,,,,,,,,,,,,,,,,,,,,,,,,,,,,,,,,,,,,,,,,,,,,,,,,,,,,,,,,,,,,,,,,,,,,,,,,,,,,,,,,,,,,
,,,,,,61521e250ec8fac5185bc0cd,62c53a519cc59c4ecebc80e8,2022-07-06_09h32.48.180,Colour_Asymmetry_Pilot,2022.1.3,Win32,60.06006006,62c50e9c1127f2cd403a315f,0,38,38,32,1,onetwo,,,,,,,,,,,,,,,,,,,,,,,,,,,,,,,,,,,,,,,,,,,,,,,,,,,,,,,,,,,,,,,,,,,,,,,,,,,,,,,,,,,,,,,,,,,,,,,,,,,,,,,,,,,,,,,,,,,,,,,,,,,,,,,,,,,,,,,,,,,,,,,,,,,,,,,,,,,,,
,,,,,,61521e250ec8fac5185bc0cd,62c53a519cc59c4ecebc80e8,2022-07-06_09h32.48.180,Colour_Asymmetry_Pilot,2022.1.3,Win32,60.06006006,62c50e9c1127f2cd403a315f,0,39,39,93,1,threefour,,,,,,,,,,,,,,,,,,,,,,,,,,,,,,,,,,,,,,,,,,,,,,,,,,,,,,,,,,,,,,,,,,,,,,,,,,,,,,,,,,,,,,,,,,,,,,,,,,,,,,,,,,,,,,,,,,,,,,,,,,,,,,,,,,,,,,,,,,,,,,,,,,,,,,,,,,,,,
,,,,,,61521e250ec8fac5185bc0cd,62c53a519cc59c4ecebc80e8,2022-07-06_09h32.48.180,Colour_Asymmetry_Pilot,2022.1.3,Win32,60.06006006,62c50e9c1127f2cd403a315f,0,40,40,33,1,onethree,,,,,,,,,,,,,,,,,,,,,,,,,,,,,,,,,,,,,,,,,,,,,,,,,,,,,,,,,,,,,,,,,,,,,,,,,,,,,,,,,,,,,,,,,,,,,,,,,,,,,,,,,,,,,,,,,,,,,,,,,,,,,,,,,,,,,,,,,,,,,,,,,,,,,,,,,,,,,
,,,,,,61521e250ec8fac5185bc0cd,62c53a519cc59c4ecebc80e8,2022-07-06_09h32.48.180,Colour_Asymmetry_Pilot,2022.1.3,Win32,60.06006006,62c50e9c1127f2cd403a315f,0,41,41,30,1,fourtwo,,,,,,,,,,,,,,,,,,,,,,,,,,,,,,,,,,,,,,,,,,,,,,,,,,,,,,,,,,,,,,,,,,,,,,,,,,,,,,,,,,,,,,,,,,,,,,,,,,,,,,,,,,,,,,,,,,,,,,,,,,,,,,,,,,,,,,,,,,,,,,,,,,,,,,,,,,,,,
,,,,,,61521e250ec8fac5185bc0cd,62c53a519cc59c4ecebc80e8,2022-07-06_09h32.48.180,Colour_Asymmetry_Pilot,2022.1.3,Win32,60.06006006,62c50e9c1127f2cd403a315f,0,42,42,104,1,onetwo,,,,,,,,,,,,,,,,,,,,,,,,,,,,,,,,,,,,,,,,,,,,,,,,,,,,,,,,,,,,,,,,,,,,,,,,,,,,,,,,,,,,,,,,,,,,,,,,,,,,,,,,,,,,,,,,,,,,,,,,,,,,,,,,,,,,,,,,,,,,,,,,,,,,,,,,,,,,,
,,,,,,61521e250ec8fac5185bc0cd,62c53a519cc59c4ecebc80e8,2022-07-06_09h32.48.180,Colour_Asymmetry_Pilot,2022.1.3,Win32,60.06006006,62c50e9c1127f2cd403a315f,0,43,43,107,1,twofour,,,,,,,,,,,,,,,,,,,,,,,,,,,,,,,,,,,,,,,,,,,,,,,,,,,,,,,,,,,,,,,,,,,,,,,,,,,,,,,,,,,,,,,,,,,,,,,,,,,,,,,,,,,,,,,,,,,,,,,,,,,,,,,,,,,,,,,,,,,,,,,,,,,,,,,,,,,,,
,,,,,,61521e250ec8fac5185bc0cd,62c53a519cc59c4ecebc80e8,2022-07-06_09h32.48.180,Colour_Asymmetry_Pilot,2022.1.3,Win32,60.06006006,62c50e9c1127f2cd403a315f,0,44,44,130,1,twoone,,,,,,,,,,,,,,,,,,,,,,,,,,,,,,,,,,,,,,,,,,,,,,,,,,,,,,,,,,,,,,,,,,,,,,,,,,,,,,,,,,,,,,,,,,,,,,,,,,,,,,,,,,,,,,,,,,,,,,,,,,,,,,,,,,,,,,,,,,,,,,,,,,,,,,,,,,,,,
,,,,,,61521e250ec8fac5185bc0cd,62c53a519cc59c4ecebc80e8,2022-07-06_09h32.48.180,Colour_Asymmetry_Pilot,2022.1.3,Win32,60.06006006,62c50e9c1127f2cd403a315f,0,45,45,42,1,twoone,,,,,,,,,,,,,,,,,,,,,,,,,,,,,,,,,,,,,,,,,,,,,,,,,,,,,,,,,,,,,,,,,,,,,,,,,,,,,,,,,,,,,,,,,,,,,,,,,,,,,,,,,,,,,,,,,,,,,,,,,,,,,,,,,,,,,,,,,,,,,,,,,,,,,,,,,,,,,
,,,,,,61521e250ec8fac5185bc0cd,62c53a519cc59c4ecebc80e8,2022-07-06_09h32.48.180,Colour_Asymmetry_Pilot,2022.1.3,Win32,60.06006006,62c50e9c1127f2cd403a315f,0,46,46,61,1,threefour,,,,,,,,,,,,,,,,,,,,,,,,,,,,,,,,,,,,,,,,,,,,,,,,,,,,,,,,,,,,,,,,,,,,,,,,,,,,,,,,,,,,,,,,,,,,,,,,,,,,,,,,,,,,,,,,,,,,,,,,,,,,,,,,,,,,,,,,,,,,,,,,,,,,,,,,,,,,,
,,,,,,61521e250ec8fac5185bc0cd,62c53a519cc59c4ecebc80e8,2022-07-06_09h32.48.180,Colour_Asymmetry_Pilot,2022.1.3,Win32,60.06006006,62c50e9c1127f2cd403a315f,0,47,47,21,1,threefour,,,,,,,,,,,,,,,,,,,,,,,,,,,,,,,,,,,,,,,,,,,,,,,,,,,,,,,,,,,,,,,,,,,,,,,,,,,,,,,,,,,,,,,,,,,,,,,,,,,,,,,,,,,,,,,,,,,,,,,,,,,,,,,,,,,,,,,,,,,,,,,,,,,,,,,,,,,,,
,,,,,,61521e250ec8fac5185bc0cd,62c53a519cc59c4ecebc80e8,2022-07-06_09h32.48.180,Colour_Asymmetry_Pilot,2022.1.3,Win32,60.06006006,62c50e9c1127f2cd403a315f,0,48,48,89,1,onethree,,,,,,,,,,,,,,,,,,,,,,,,,,,,,,,,,,,,,,,,,,,,,,,,,,,,,,,,,,,,,,,,,,,,,,,,,,,,,,,,,,,,,,,,,,,,,,,,,,,,,,,,,,,,,,,,,,,,,,,,,,,,,,,,,,,,,,,,,,,,,,,,,,,,,,,,,,,,,
,,,,,,61521e250ec8fac5185bc0cd,62c53a519cc59c4ecebc80e8,2022-07-06_09h32.48.180,Colour_Asymmetry_Pilot,2022.1.3,Win32,60.06006006,62c50e9c1127f2cd403a315f,0,49,49,12,1,threeone,,,,,,,,,,,,,,,,,,,,,,,,,,,,,,,,,,,,,,,,,,,,,,,,,,,,,,,,,,,,,,,,,,,,,,,,,,,,,,,,,,,,,,,,,,,,,,,,,,,,,,,,,,,,,,,,,,,,,,,,,,,,,,,,,,,,,,,,,,,,,,,,,,,,,,,,,,,,,
,,,,,,61521e250ec8fac5185bc0cd,62c53a519cc59c4ecebc80e8,2022-07-06_09h32.48.180,Colour_Asymmetry_Pilot,2022.1.3,Win32,60.06006006,62c50e9c1127f2cd403a315f,0,50,50,110,1,fourtwo,,,,,,,,,,,,,,,,,,,,,,,,,,,,,,,,,,,,,,,,,,,,,,,,,,,,,,,,,,,,,,,,,,,,,,,,,,,,,,,,,,,,,,,,,,,,,,,,,,,,,,,,,,,,,,,,,,,,,,,,,,,,,,,,,,,,,,,,,,,,,,,,,,,,,,,,,,,,,
,,,,,,61521e250ec8fac5185bc0cd,62c53a519cc59c4ecebc80e8,2022-07-06_09h32.48.180,Colour_Asymmetry_Pilot,2022.1.3,Win32,60.06006006,62c50e9c1127f2cd403a315f,0,51,51,17,1,onethree,,,,,,,,,,,,,,,,,,,,,,,,,,,,,,,,,,,,,,,,,,,,,,,,,,,,,,,,,,,,,,,,,,,,,,,,,,,,,,,,,,,,,,,,,,,,,,,,,,,,,,,,,,,,,,,,,,,,,,,,,,,,,,,,,,,,,,,,,,,,,,,,,,,,,,,,,,,,,
,,,,,,61521e250ec8fac5185bc0cd,62c53a519cc59c4ecebc80e8,2022-07-06_09h32.48.180,Colour_Asymmetry_Pilot,2022.1.3,Win32,60.06006006,62c50e9c1127f2cd403a315f,0,52,52,80,1,onetwo,,,,,,,,,,,,,,,,,,,,,,,,,,,,,,,,,,,,,,,,,,,,,,,,,,,,,,,,,,,,,,,,,,,,,,,,,,,,,,,,,,,,,,,,,,,,,,,,,,,,,,,,,,,,,,,,,,,,,,,,,,,,,,,,,,,,,,,,,,,,,,,,,,,,,,,,,,,,,
,,,,,,61521e250ec8fac5185bc0cd,62c53a519cc59c4ecebc80e8,2022-07-06_09h32.48.180,Colour_Asymmetry_Pilot,2022.1.3,Win32,60.06006006,62c50e9c1127f2cd403a315f,0,53,53,135,1,fourthree,,,,,,,,,,,,,,,,,,,,,,,,,,,,,,,,,,,,,,,,,,,,,,,,,,,,,,,,,,,,,,,,,,,,,,,,,,,,,,,,,,,,,,,,,,,,,,,,,,,,,,,,,,,,,,,,,,,,,,,,,,,,,,,,,,,,,,,,,,,,,,,,,,,,,,,,,,,,,
,,,,,,61521e250ec8fac5185bc0cd,62c53a519cc59c4ecebc80e8,2022-07-06_09h32.48.180,Colour_Asymmetry_Pilot,2022.1.3,Win32,60.06006006,62c50e9c1127f2cd403a315f,0,54,54,41,1,onethree,,,,,,,,,,,,,,,,,,,,,,,,,,,,,,,,,,,,,,,,,,,,,,,,,,,,,,,,,,,,,,,,,,,,,,,,,,,,,,,,,,,,,,,,,,,,,,,,,,,,,,,,,,,,,,,,,,,,,,,,,,,,,,,,,,,,,,,,,,,,,,,,,,,,,,,,,,,,,
,,,,,,61521e250ec8fac5185bc0cd,62c53a519cc59c4ecebc80e8,2022-07-06_09h32.48.180,Colour_Asymmetry_Pilot,2022.1.3,Win32,60.06006006,62c50e9c1127f2cd403a315f,0,55,55,120,1,onetwo,,,,,,,,,,,,,,,,,,,,,,,,,,,,,,,,,,,,,,,,,,,,,,,,,,,,,,,,,,,,,,,,,,,,,,,,,,,,,,,,,,,,,,,,,,,,,,,,,,,,,,,,,,,,,,,,,,,,,,,,,,,,,,,,,,,,,,,,,,,,,,,,,,,,,,,,,,,,,
,,,,,,61521e250ec8fac5185bc0cd,62c53a519cc59c4ecebc80e8,2022-07-06_09h32.48.180,Colour_Asymmetry_Pilot,2022.1.3,Win32,60.06006006,62c50e9c1127f2cd403a315f,0,56,56,60,1,threeone,,,,,,,,,,,,,,,,,,,,,,,,,,,,,,,,,,,,,,,,,,,,,,,,,,,,,,,,,,,,,,,,,,,,,,,,,,,,,,,,,,,,,,,,,,,,,,,,,,,,,,,,,,,,,,,,,,,,,,,,,,,,,,,,,,,,,,,,,,,,,,,,,,,,,,,,,,,,,
,,,,,,61521e250ec8fac5185bc0cd,62c53a519cc59c4ecebc80e8,2022-07-06_09h32.48.180,Colour_Asymmetry_Pilot,2022.1.3,Win32,60.06006006,62c50e9c1127f2cd403a315f,0,57,57,99,1,twofour,,,,,,,,,,,,,,,,,,,,,,,,,,,,,,,,,,,,,,,,,,,,,,,,,,,,,,,,,,,,,,,,,,,,,,,,,,,,,,,,,,,,,,,,,,,,,,,,,,,,,,,,,,,,,,,,,,,,,,,,,,,,,,,,,,,,,,,,,,,,,,,,,,,,,,,,,,,,,
,,,,,,61521e250ec8fac5185bc0cd,62c53a519cc59c4ecebc80e8,2022-07-06_09h32.48.180,Colour_Asymmetry_Pilot,2022.1.3,Win32,60.06006006,62c50e9c1127f2cd403a315f,0,58,58,100,1,threeone,,,,,,,,,,,,,,,,,,,,,,,,,,,,,,,,,,,,,,,,,,,,,,,,,,,,,,,,,,,,,,,,,,,,,,,,,,,,,,,,,,,,,,,,,,,,,,,,,,,,,,,,,,,,,,,,,,,,,,,,,,,,,,,,,,,,,,,,,,,,,,,,,,,,,,,,,,,,,
,,,,,,61521e250ec8fac5185bc0cd,62c53a519cc59c4ecebc80e8,2022-07-06_09h32.48.180,Colour_Asymmetry_Pilot,2022.1.3,Win32,60.06006006,62c50e9c1127f2cd403a315f,0,59,59,103,1,fourthree,,,,,,,,,,,,,,,,,,,,,,,,,,,,,,,,,,,,,,,,,,,,,,,,,,,,,,,,,,,,,,,,,,,,,,,,,,,,,,,,,,,,,,,,,,,,,,,,,,,,,,,,,,,,,,,,,,,,,,,,,,,,,,,,,,,,,,,,,,,,,,,,,,,,,,,,,,,,,
,,,,,,61521e250ec8fac5185bc0cd,62c53a519cc59c4ecebc80e8,2022-07-06_09h32.48.180,Colour_Asymmetry_Pilot,2022.1.3,Win32,60.06006006,62c50e9c1127f2cd403a315f,0,60,60,160,1,onetwo,,,,,,,,,,,,,,,,,,,,,,,,,,,,,,,,,,,,,,,,,,,,,,,,,,,,,,,,,,,,,,,,,,,,,,,,,,,,,,,,,,,,,,,,,,,,,,,,,,,,,,,,,,,,,,,,,,,,,,,,,,,,,,,,,,,,,,,,,,,,,,,,,,,,,,,,,,,,,
,,,,,,61521e250ec8fac5185bc0cd,62c53a519cc59c4ecebc80e8,2022-07-06_09h32.48.180,Colour_Asymmetry_Pilot,2022.1.3,Win32,60.06006006,62c50e9c1127f2cd403a315f,0,61,61,141,1,threefour,,,,,,,,,,,,,,,,,,,,,,,,,,,,,,,,,,,,,,,,,,,,,,,,,,,,,,,,,,,,,,,,,,,,,,,,,,,,,,,,,,,,,,,,,,,,,,,,,,,,,,,,,,,,,,,,,,,,,,,,,,,,,,,,,,,,,,,,,,,,,,,,,,,,,,,,,,,,,
,,,,,,61521e250ec8fac5185bc0cd,62c53a519cc59c4ecebc80e8,2022-07-06_09h32.48.180,Colour_Asymmetry_Pilot,2022.1.3,Win32,60.06006006,62c50e9c1127f2cd403a315f,0,62,62,136,1,onetwo,,,,,,,,,,,,,,,,,,,,,,,,,,,,,,,,,,,,,,,,,,,,,,,,,,,,,,,,,,,,,,,,,,,,,,,,,,,,,,,,,,,,,,,,,,,,,,,,,,,,,,,,,,,,,,,,,,,,,,,,,,,,,,,,,,,,,,,,,,,,,,,,,,,,,,,,,,,,,
,,,,,,61521e250ec8fac5185bc0cd,62c53a519cc59c4ecebc80e8,2022-07-06_09h32.48.180,Colour_Asymmetry_Pilot,2022.1.3,Win32,60.06006006,62c50e9c1127f2cd403a315f,0,63,63,14,1,fourtwo,,,,,,,,,,,,,,,,,,,,,,,,,,,,,,,,,,,,,,,,,,,,,,,,,,,,,,,,,,,,,,,,,,,,,,,,,,,,,,,,,,,,,,,,,,,,,,,,,,,,,,,,,,,,,,,,,,,,,,,,,,,,,,,,,,,,,,,,,,,,,,,,,,,,,,,,,,,,,
,,,,,,61521e250ec8fac5185bc0cd,62c53a519cc59c4ecebc80e8,2022-07-06_09h32.48.180,Colour_Asymmetry_Pilot,2022.1.3,Win32,60.06006006,62c50e9c1127f2cd403a315f,0,64,64,56,1,onetwo,,,,,,,,,,,,,,,,,,,,,,,,,,,,,,,,,,,,,,,,,,,,,,,,,,,,,,,,,,,,,,,,,,,,,,,,,,,,,,,,,,,,,,,,,,,,,,,,,,,,,,,,,,,,,,,,,,,,,,,,,,,,,,,,,,,,,,,,,,,,,,,,,,,,,,,,,,,,,
,,,,,,61521e250ec8fac5185bc0cd,62c53a519cc59c4ecebc80e8,2022-07-06_09h32.48.180,Colour_Asymmetry_Pilot,2022.1.3,Win32,60.06006006,62c50e9c1127f2cd403a315f,0,65,65,29,1,threefour,,,,,,,,,,,,,,,,,,,,,,,,,,,,,,,,,,,,,,,,,,,,,,,,,,,,,,,,,,,,,,,,,,,,,,,,,,,,,,,,,,,,,,,,,,,,,,,,,,,,,,,,,,,,,,,,,,,,,,,,,,,,,,,,,,,,,,,,,,,,,,,,,,,,,,,,,,,,,
,,,,,,61521e250ec8fac5185bc0cd,62c53a519cc59c4ecebc80e8,2022-07-06_09h32.48.180,Colour_Asymmetry_Pilot,2022.1.3,Win32,60.06006006,62c50e9c1127f2cd403a315f,0,66,66,92,1,threeone,,,,,,,,,,,,,,,,,,,,,,,,,,,,,,,,,,,,,,,,,,,,,,,,,,,,,,,,,,,,,,,,,,,,,,,,,,,,,,,,,,,,,,,,,,,,,,,,,,,,,,,,,,,,,,,,,,,,,,,,,,,,,,,,,,,,,,,,,,,,,,,,,,,,,,,,,,,,,
,,,,,,61521e250ec8fac5185bc0cd,62c53a519cc59c4ecebc80e8,2022-07-06_09h32.48.180,Colour_Asymmetry_Pilot,2022.1.3,Win32,60.06006006,62c50e9c1127f2cd403a315f,0,67,67,40,1,onetwo,,,,,,,,,,,,,,,,,,,,,,,,,,,,,,,,,,,,,,,,,,,,,,,,,,,,,,,,,,,,,,,,,,,,,,,,,,,,,,,,,,,,,,,,,,,,,,,,,,,,,,,,,,,,,,,,,,,,,,,,,,,,,,,,,,,,,,,,,,,,,,,,,,,,,,,,,,,,,
,,,,,,61521e250ec8fac5185bc0cd,62c53a519cc59c4ecebc80e8,2022-07-06_09h32.48.180,Colour_Asymmetry_Pilot,2022.1.3,Win32,60.06006006,62c50e9c1127f2cd403a315f,0,68,68,8,1,onetwo,,,,,,,,,,,,,,,,,,,,,,,,,,,,,,,,,,,,,,,,,,,,,,,,,,,,,,,,,,,,,,,,,,,,,,,,,,,,,,,,,,,,,,,,,,,,,,,,,,,,,,,,,,,,,,,,,,,,,,,,,,,,,,,,,,,,,,,,,,,,,,,,,,,,,,,,,,,,,
,,,,,,61521e250ec8fac5185bc0cd,62c53a519cc59c4ecebc80e8,2022-07-06_09h32.48.180,Colour_Asymmetry_Pilot,2022.1.3,Win32,60.06006006,62c50e9c1127f2cd403a315f,0,69,69,25,1,onethree,,,,,,,,,,,,,,,,,,,,,,,,,,,,,,,,,,,,,,,,,,,,,,,,,,,,,,,,,,,,,,,,,,,,,,,,,,,,,,,,,,,,,,,,,,,,,,,,,,,,,,,,,,,,,,,,,,,,,,,,,,,,,,,,,,,,,,,,,,,,,,,,,,,,,,,,,,,,,
,,,,,,61521e250ec8fac5185bc0cd,62c53a519cc59c4ecebc80e8,2022-07-06_09h32.48.180,Colour_Asymmetry_Pilot,2022.1.3,Win32,60.06006006,62c50e9c1127f2cd403a315f,0,70,70,31,1,fourthree,,,,,,,,,,,,,,,,,,,,,,,,,,,,,,,,,,,,,,,,,,,,,,,,,,,,,,,,,,,,,,,,,,,,,,,,,,,,,,,,,,,,,,,,,,,,,,,,,,,,,,,,,,,,,,,,,,,,,,,,,,,,,,,,,,,,,,,,,,,,,,,,,,,,,,,,,,,,,
,,,,,,61521e250ec8fac5185bc0cd,62c53a519cc59c4ecebc80e8,2022-07-06_09h32.48.180,Colour_Asymmetry_Pilot,2022.1.3,Win32,60.06006006,62c50e9c1127f2cd403a315f,0,71,71,19,1,twofour,,,,,,,,,,,,,,,,,,,,,,,,,,,,,,,,,,,,,,,,,,,,,,,,,,,,,,,,,,,,,,,,,,,,,,,,,,,,,,,,,,,,,,,,,,,,,,,,,,,,,,,,,,,,,,,,,,,,,,,,,,,,,,,,,,,,,,,,,,,,,,,,,,,,,,,,,,,,,
,,,,,,61521e250ec8fac5185bc0cd,62c53a519cc59c4ecebc80e8,2022-07-06_09h32.48.180,Colour_Asymmetry_Pilot,2022.1.3,Win32,60.06006006,62c50e9c1127f2cd403a315f,0,72,72,24,1,onetwo,,,,,,,,,,,,,,,,,,,,,,,,,,,,,,,,,,,,,,,,,,,,,,,,,,,,,,,,,,,,,,,,,,,,,,,,,,,,,,,,,,,,,,,,,,,,,,,,,,,,,,,,,,,,,,,,,,,,,,,,,,,,,,,,,,,,,,,,,,,,,,,,,,,,,,,,,,,,,
,,,,,,61521e250ec8fac5185bc0cd,62c53a519cc59c4ecebc80e8,2022-07-06_09h32.48.180,Colour_Asymmetry_Pilot,2022.1.3,Win32,60.06006006,62c50e9c1127f2cd403a315f,0,73,73,44,1,threeone,,,,,,,,,,,,,,,,,,,,,,,,,,,,,,,,,,,,,,,,,,,,,,,,,,,,,,,,,,,,,,,,,,,,,,,,,,,,,,,,,,,,,,,,,,,,,,,,,,,,,,,,,,,,,,,,,,,,,,,,,,,,,,,,,,,,,,,,,,,,,,,,,,,,,,,,,,,,,
,,,,,,61521e250ec8fac5185bc0cd,62c53a519cc59c4ecebc80e8,2022-07-06_09h32.48.180,Colour_Asymmetry_Pilot,2022.1.3,Win32,60.06006006,62c50e9c1127f2cd403a315f,0,74,74,119,1,fourthree,,,,,,,,,,,,,,,,,,,,,,,,,,,,,,,,,,,,,,,,,,,,,,,,,,,,,,,,,,,,,,,,,,,,,,,,,,,,,,,,,,,,,,,,,,,,,,,,,,,,,,,,,,,,,,,,,,,,,,,,,,,,,,,,,,,,,,,,,,,,,,,,,,,,,,,,,,,,,
,,,,,,61521e250ec8fac5185bc0cd,62c53a519cc59c4ecebc80e8,2022-07-06_09h32.48.180,Colour_Asymmetry_Pilot,2022.1.3,Win32,60.06006006,62c50e9c1127f2cd403a315f,0,75,75,10,1,twoone,,,,,,,,,,,,,,,,,,,,,,,,,,,,,,,,,,,,,,,,,,,,,,,,,,,,,,,,,,,,,,,,,,,,,,,,,,,,,,,,,,,,,,,,,,,,,,,,,,,,,,,,,,,,,,,,,,,,,,,,,,,,,,,,,,,,,,,,,,,,,,,,,,,,,,,,,,,,,
,,,,,,61521e250ec8fac5185bc0cd,62c53a519cc59c4ecebc80e8,2022-07-06_09h32.48.180,Colour_Asymmetry_Pilot,2022.1.3,Win32,60.06006006,62c50e9c1127f2cd403a315f,0,76,76,28,1,threeone,,,,,,,,,,,,,,,,,,,,,,,,,,,,,,,,,,,,,,,,,,,,,,,,,,,,,,,,,,,,,,,,,,,,,,,,,,,,,,,,,,,,,,,,,,,,,,,,,,,,,,,,,,,,,,,,,,,,,,,,,,,,,,,,,,,,,,,,,,,,,,,,,,,,,,,,,,,,,
,,,,,,61521e250ec8fac5185bc0cd,62c53a519cc59c4ecebc80e8,2022-07-06_09h32.48.180,Colour_Asymmetry_Pilot,2022.1.3,Win32,60.06006006,62c50e9c1127f2cd403a315f,0,77,77,94,1,fourtwo,,,,,,,,,,,,,,,,,,,,,,,,,,,,,,,,,,,,,,,,,,,,,,,,,,,,,,,,,,,,,,,,,,,,,,,,,,,,,,,,,,,,,,,,,,,,,,,,,,,,,,,,,,,,,,,,,,,,,,,,,,,,,,,,,,,,,,,,,,,,,,,,,,,,,,,,,,,,,
,,,,,,61521e250ec8fac5185bc0cd,62c53a519cc59c4ecebc80e8,2022-07-06_09h32.48.180,Colour_Asymmetry_Pilot,2022.1.3,Win32,60.06006006,62c50e9c1127f2cd403a315f,0,78,78,90,1,twoone,,,,,,,,,,,,,,,,,,,,,,,,,,,,,,,,,,,,,,,,,,,,,,,,,,,,,,,,,,,,,,,,,,,,,,,,,,,,,,,,,,,,,,,,,,,,,,,,,,,,,,,,,,,,,,,,,,,,,,,,,,,,,,,,,,,,,,,,,,,,,,,,,,,,,,,,,,,,,
,,,,,,61521e250ec8fac5185bc0cd,62c53a519cc59c4ecebc80e8,2022-07-06_09h32.48.180,Colour_Asymmetry_Pilot,2022.1.3,Win32,60.06006006,62c50e9c1127f2cd403a315f,0,79,79,147,1,twofour,,,,,,,,,,,,,,,,,,,,,,,,,,,,,,,,,,,,,,,,,,,,,,,,,,,,,,,,,,,,,,,,,,,,,,,,,,,,,,,,,,,,,,,,,,,,,,,,,,,,,,,,,,,,,,,,,,,,,,,,,,,,,,,,,,,,,,,,,,,,,,,,,,,,,,,,,,,,,
,,,,,,61521e250ec8fac5185bc0cd,62c53a519cc59c4ecebc80e8,2022-07-06_09h32.48.180,Colour_Asymmetry_Pilot,2022.1.3,Win32,60.06006006,62c50e9c1127f2cd403a315f,0,80,80,106,1,twoone,,,,,,,,,,,,,,,,,,,,,,,,,,,,,,,,,,,,,,,,,,,,,,,,,,,,,,,,,,,,,,,,,,,,,,,,,,,,,,,,,,,,,,,,,,,,,,,,,,,,,,,,,,,,,,,,,,,,,,,,,,,,,,,,,,,,,,,,,,,,,,,,,,,,,,,,,,,,,
,,,,,,61521e250ec8fac5185bc0cd,62c53a519cc59c4ecebc80e8,2022-07-06_09h32.48.180,Colour_Asymmetry_Pilot,2022.1.3,Win32,60.06006006,62c50e9c1127f2cd403a315f,0,81,81,77,1,threefour,,,,,,,,,,,,,,,,,,,,,,,,,,,,,,,,,,,,,,,,,,,,,,,,,,,,,,,,,,,,,,,,,,,,,,,,,,,,,,,,,,,,,,,,,,,,,,,,,,,,,,,,,,,,,,,,,,,,,,,,,,,,,,,,,,,,,,,,,,,,,,,,,,,,,,,,,,,,,
,,,,,,61521e250ec8fac5185bc0cd,62c53a519cc59c4ecebc80e8,2022-07-06_09h32.48.180,Colour_Asymmetry_Pilot,2022.1.3,Win32,60.06006006,62c50e9c1127f2cd403a315f,0,82,82,128,1,onetwo,,,,,,,,,,,,,,,,,,,,,,,,,,,,,,,,,,,,,,,,,,,,,,,,,,,,,,,,,,,,,,,,,,,,,,,,,,,,,,,,,,,,,,,,,,,,,,,,,,,,,,,,,,,,,,,,,,,,,,,,,,,,,,,,,,,,,,,,,,,,,,,,,,,,,,,,,,,,,
,,,,,,61521e250ec8fac5185bc0cd,62c53a519cc59c4ecebc80e8,2022-07-06_09h32.48.180,Colour_Asymmetry_Pilot,2022.1.3,Win32,60.06006006,62c50e9c1127f2cd403a315f,0,83,83,97,1,onethree,,,,,,,,,,,,,,,,,,,,,,,,,,,,,,,,,,,,,,,,,,,,,,,,,,,,,,,,,,,,,,,,,,,,,,,,,,,,,,,,,,,,,,,,,,,,,,,,,,,,,,,,,,,,,,,,,,,,,,,,,,,,,,,,,,,,,,,,,,,,,,,,,,,,,,,,,,,,,
,,,,,,61521e250ec8fac5185bc0cd,62c53a519cc59c4ecebc80e8,2022-07-06_09h32.48.180,Colour_Asymmetry_Pilot,2022.1.3,Win32,60.06006006,62c50e9c1127f2cd403a315f,0,84,84,75,1,twofour,,,,,,,,,,,,,,,,,,,,,,,,,,,,,,,,,,,,,,,,,,,,,,,,,,,,,,,,,,,,,,,,,,,,,,,,,,,,,,,,,,,,,,,,,,,,,,,,,,,,,,,,,,,,,,,,,,,,,,,,,,,,,,,,,,,,,,,,,,,,,,,,,,,,,,,,,,,,,
,,,,,,61521e250ec8fac5185bc0cd,62c53a519cc59c4ecebc80e8,2022-07-06_09h32.48.180,Colour_Asymmetry_Pilot,2022.1.3,Win32,60.06006006,62c50e9c1127f2cd403a315f,0,85,85,5,1,threefour,,,,,,,,,,,,,,,,,,,,,,,,,,,,,,,,,,,,,,,,,,,,,,,,,,,,,,,,,,,,,,,,,,,,,,,,,,,,,,,,,,,,,,,,,,,,,,,,,,,,,,,,,,,,,,,,,,,,,,,,,,,,,,,,,,,,,,,,,,,,,,,,,,,,,,,,,,,,,
,,,,,,61521e250ec8fac5185bc0cd,62c53a519cc59c4ecebc80e8,2022-07-06_09h32.48.180,Colour_Asymmetry_Pilot,2022.1.3,Win32,60.06006006,62c50e9c1127f2cd403a315f,0,86,86,48,1,onetwo,,,,,,,,,,,,,,,,,,,,,,,,,,,,,,,,,,,,,,,,,,,,,,,,,,,,,,,,,,,,,,,,,,,,,,,,,,,,,,,,,,,,,,,,,,,,,,,,,,,,,,,,,,,,,,,,,,,,,,,,,,,,,,,,,,,,,,,,,,,,,,,,,,,,,,,,,,,,,
,,,,,,61521e250ec8fac5185bc0cd,62c53a519cc59c4ecebc80e8,2022-07-06_09h32.48.180,Colour_Asymmetry_Pilot,2022.1.3,Win32,60.06006006,62c50e9c1127f2cd403a315f,0,87,87,38,1,fourtwo,,,,,,,,,,,,,,,,,,,,,,,,,,,,,,,,,,,,,,,,,,,,,,,,,,,,,,,,,,,,,,,,,,,,,,,,,,,,,,,,,,,,,,,,,,,,,,,,,,,,,,,,,,,,,,,,,,,,,,,,,,,,,,,,,,,,,,,,,,,,,,,,,,,,,,,,,,,,,
,,,,,,61521e250ec8fac5185bc0cd,62c53a519cc59c4ecebc80e8,2022-07-06_09h32.48.180,Colour_Asymmetry_Pilot,2022.1.3,Win32,60.06006006,62c50e9c1127f2cd403a315f,0,88,88,54,1,fourtwo,,,,,,,,,,,,,,,,,,,,,,,,,,,,,,,,,,,,,,,,,,,,,,,,,,,,,,,,,,,,,,,,,,,,,,,,,,,,,,,,,,,,,,,,,,,,,,,,,,,,,,,,,,,,,,,,,,,,,,,,,,,,,,,,,,,,,,,,,,,,,,,,,,,,,,,,,,,,,
,,,,,,61521e250ec8fac5185bc0cd,62c53a519cc59c4ecebc80e8,2022-07-06_09h32.48.180,Colour_Asymmetry_Pilot,2022.1.3,Win32,60.06006006,62c50e9c1127f2cd403a315f,0,89,89,16,1,onetwo,,,,,,,,,,,,,,,,,,,,,,,,,,,,,,,,,,,,,,,,,,,,,,,,,,,,,,,,,,,,,,,,,,,,,,,,,,,,,,,,,,,,,,,,,,,,,,,,,,,,,,,,,,,,,,,,,,,,,,,,,,,,,,,,,,,,,,,,,,,,,,,,,,,,,,,,,,,,,
,,,,,,61521e250ec8fac5185bc0cd,62c53a519cc59c4ecebc80e8,2022-07-06_09h32.48.180,Colour_Asymmetry_Pilot,2022.1.3,Win32,60.06006006,62c50e9c1127f2cd403a315f,0,90,90,35,1,twofour,,,,,,,,,,,,,,,,,,,,,,,,,,,,,,,,,,,,,,,,,,,,,,,,,,,,,,,,,,,,,,,,,,,,,,,,,,,,,,,,,,,,,,,,,,,,,,,,,,,,,,,,,,,,,,,,,,,,,,,,,,,,,,,,,,,,,,,,,,,,,,,,,,,,,,,,,,,,,
,,,,,,61521e250ec8fac5185bc0cd,62c53a519cc59c4ecebc80e8,2022-07-06_09h32.48.180,Colour_Asymmetry_Pilot,2022.1.3,Win32,60.06006006,62c50e9c1127f2cd403a315f,0,91,91,67,1,twofour,,,,,,,,,,,,,,,,,,,,,,,,,,,,,,,,,,,,,,,,,,,,,,,,,,,,,,,,,,,,,,,,,,,,,,,,,,,,,,,,,,,,,,,,,,,,,,,,,,,,,,,,,,,,,,,,,,,,,,,,,,,,,,,,,,,,,,,,,,,,,,,,,,,,,,,,,,,,,
,,,,,,61521e250ec8fac5185bc0cd,62c53a519cc59c4ecebc80e8,2022-07-06_09h32.48.180,Colour_Asymmetry_Pilot,2022.1.3,Win32,60.06006006,62c50e9c1127f2cd403a315f,0,92,92,53,1,threefour,,,,,,,,,,,,,,,,,,,,,,,,,,,,,,,,,,,,,,,,,,,,,,,,,,,,,,,,,,,,,,,,,,,,,,,,,,,,,,,,,,,,,,,,,,,,,,,,,,,,,,,,,,,,,,,,,,,,,,,,,,,,,,,,,,,,,,,,,,,,,,,,,,,,,,,,,,,,,
,,,,,,61521e250ec8fac5185bc0cd,62c53a519cc59c4ecebc80e8,2022-07-06_09h32.48.180,Colour_Asymmetry_Pilot,2022.1.3,Win32,60.06006006,62c50e9c1127f2cd403a315f,0,93,93,126,1,fourtwo,,,,,,,,,,,,,,,,,,,,,,,,,,,,,,,,,,,,,,,,,,,,,,,,,,,,,,,,,,,,,,,,,,,,,,,,,,,,,,,,,,,,,,,,,,,,,,,,,,,,,,,,,,,,,,,,,,,,,,,,,,,,,,,,,,,,,,,,,,,,,,,,,,,,,,,,,,,,,
,,,,,,61521e250ec8fac5185bc0cd,62c53a519cc59c4ecebc80e8,2022-07-06_09h32.48.180,Colour_Asymmetry_Pilot,2022.1.3,Win32,60.06006006,62c50e9c1127f2cd403a315f,0,94,94,37,1,threefour,,,,,,,,,,,,,,,,,,,,,,,,,,,,,,,,,,,,,,,,,,,,,,,,,,,,,,,,,,,,,,,,,,,,,,,,,,,,,,,,,,,,,,,,,,,,,,,,,,,,,,,,,,,,,,,,,,,,,,,,,,,,,,,,,,,,,,,,,,,,,,,,,,,,,,,,,,,,,
,,,,,,61521e250ec8fac5185bc0cd,62c53a519cc59c4ecebc80e8,2022-07-06_09h32.48.180,Colour_Asymmetry_Pilot,2022.1.3,Win32,60.06006006,62c50e9c1127f2cd403a315f,0,95,95,51,1,twofour,,,,,,,,,,,,,,,,,,,,,,,,,,,,,,,,,,,,,,,,,,,,,,,,,,,,,,,,,,,,,,,,,,,,,,,,,,,,,,,,,,,,,,,,,,,,,,,,,,,,,,,,,,,,,,,,,,,,,,,,,,,,,,,,,,,,,,,,,,,,,,,,,,,,,,,,,,,,,
,,,,,,61521e250ec8fac5185bc0cd,62c53a519cc59c4ecebc80e8,2022-07-06_09h32.48.180,Colour_Asymmetry_Pilot,2022.1.3,Win32,60.06006006,62c50e9c1127f2cd403a315f,0,96,96,151,1,fourthree,,,,,,,,,,,,,,,,,,,,,,,,,,,,,,,,,,,,,,,,,,,,,,,,,,,,,,,,,,,,,,,,,,,,,,,,,,,,,,,,,,,,,,,,,,,,,,,,,,,,,,,,,,,,,,,,,,,,,,,,,,,,,,,,,,,,,,,,,,,,,,,,,,,,,,,,,,,,,
,,,,,,61521e250ec8fac5185bc0cd,62c53a519cc59c4ecebc80e8,2022-07-06_09h32.48.180,Colour_Asymmetry_Pilot,2022.1.3,Win32,60.06006006,62c50e9c1127f2cd403a315f,0,97,97,7,1,fourthree,,,,,,,,,,,,,,,,,,,,,,,,,,,,,,,,,,,,,,,,,,,,,,,,,,,,,,,,,,,,,,,,,,,,,,,,,,,,,,,,,,,,,,,,,,,,,,,,,,,,,,,,,,,,,,,,,,,,,,,,,,,,,,,,,,,,,,,,,,,,,,,,,,,,,,,,,,,,,
,,,,,,61521e250ec8fac5185bc0cd,62c53a519cc59c4ecebc80e8,2022-07-06_09h32.48.180,Colour_Asymmetry_Pilot,2022.1.3,Win32,60.06006006,62c50e9c1127f2cd403a315f,0,98,98,23,1,fourthree,,,,,,,,,,,,,,,,,,,,,,,,,,,,,,,,,,,,,,,,,,,,,,,,,,,,,,,,,,,,,,,,,,,,,,,,,,,,,,,,,,,,,,,,,,,,,,,,,,,,,,,,,,,,,,,,,,,,,,,,,,,,,,,,,,,,,,,,,,,,,,,,,,,,,,,,,,,,,
,,,,,,61521e250ec8fac5185bc0cd,62c53a519cc59c4ecebc80e8,2022-07-06_09h32.48.180,Colour_Asymmetry_Pilot,2022.1.3,Win32,60.06006006,62c50e9c1127f2cd403a315f,0,99,99,70,1,fourtwo,,,,,,,,,,,,,,,,,,,,,,,,,,,,,,,,,,,,,,,,,,,,,,,,,,,,,,,,,,,,,,,,,,,,,,,,,,,,,,,,,,,,,,,,,,,,,,,,,,,,,,,,,,,,,,,,,,,,,,,,,,,,,,,,,,,,,,,,,,,,,,,,,,,,,,,,,,,,,
,,,,,,61521e250ec8fac5185bc0cd,62c53a519cc59c4ecebc80e8,2022-07-06_09h32.48.180,Colour_Asymmetry_Pilot,2022.1.3,Win32,60.06006006,62c50e9c1127f2cd403a315f,0,100,100,134,1,fourtwo,,,,,,,,,,,,,,,,,,,,,,,,,,,,,,,,,,,,,,,,,,,,,,,,,,,,,,,,,,,,,,,,,,,,,,,,,,,,,,,,,,,,,,,,,,,,,,,,,,,,,,,,,,,,,,,,,,,,,,,,,,,,,,,,,,,,,,,,,,,,,,,,,,,,,,,,,,,,,
,,,,,,61521e250ec8fac5185bc0cd,62c53a519cc59c4ecebc80e8,2022-07-06_09h32.48.180,Colour_Asymmetry_Pilot,2022.1.3,Win32,60.06006006,62c50e9c1127f2cd403a315f,0,101,101,156,1,threeone,,,,,,,,,,,,,,,,,,,,,,,,,,,,,,,,,,,,,,,,,,,,,,,,,,,,,,,,,,,,,,,,,,,,,,,,,,,,,,,,,,,,,,,,,,,,,,,,,,,,,,,,,,,,,,,,,,,,,,,,,,,,,,,,,,,,,,,,,,,,,,,,,,,,,,,,,,,,,
,,,,,,61521e250ec8fac5185bc0cd,62c53a519cc59c4ecebc80e8,2022-07-06_09h32.48.180,Colour_Asymmetry_Pilot,2022.1.3,Win32,60.06006006,62c50e9c1127f2cd403a315f,0,102,102,122,1,twoone,,,,,,,,,,,,,,,,,,,,,,,,,,,,,,,,,,,,,,,,,,,,,,,,,,,,,,,,,,,,,,,,,,,,,,,,,,,,,,,,,,,,,,,,,,,,,,,,,,,,,,,,,,,,,,,,,,,,,,,,,,,,,,,,,,,,,,,,,,,,,,,,,,,,,,,,,,,,,
,,,,,,61521e250ec8fac5185bc0cd,62c53a519cc59c4ecebc80e8,2022-07-06_09h32.48.180,Colour_Asymmetry_Pilot,2022.1.3,Win32,60.06006006,62c50e9c1127f2cd403a315f,0,103,103,123,1,twofour,,,,,,,,,,,,,,,,,,,,,,,,,,,,,,,,,,,,,,,,,,,,,,,,,,,,,,,,,,,,,,,,,,,,,,,,,,,,,,,,,,,,,,,,,,,,,,,,,,,,,,,,,,,,,,,,,,,,,,,,,,,,,,,,,,,,,,,,,,,,,,,,,,,,,,,,,,,,,
,,,,,,61521e250ec8fac5185bc0cd,62c53a519cc59c4ecebc80e8,2022-07-06_09h32.48.180,Colour_Asymmetry_Pilot,2022.1.3,Win32,60.06006006,62c50e9c1127f2cd403a315f,0,104,104,43,1,twofour,,,,,,,,,,,,,,,,,,,,,,,,,,,,,,,,,,,,,,,,,,,,,,,,,,,,,,,,,,,,,,,,,,,,,,,,,,,,,,,,,,,,,,,,,,,,,,,,,,,,,,,,,,,,,,,,,,,,,,,,,,,,,,,,,,,,,,,,,,,,,,,,,,,,,,,,,,,,,
,,,,,,61521e250ec8fac5185bc0cd,62c53a519cc59c4ecebc80e8,2022-07-06_09h32.48.180,Colour_Asymmetry_Pilot,2022.1.3,Win32,60.06006006,62c50e9c1127f2cd403a315f,0,105,105,101,1,threefour,,,,,,,,,,,,,,,,,,,,,,,,,,,,,,,,,,,,,,,,,,,,,,,,,,,,,,,,,,,,,,,,,,,,,,,,,,,,,,,,,,,,,,,,,,,,,,,,,,,,,,,,,,,,,,,,,,,,,,,,,,,,,,,,,,,,,,,,,,,,,,,,,,,,,,,,,,,,,
,,,,,,61521e250ec8fac5185bc0cd,62c53a519cc59c4ecebc80e8,2022-07-06_09h32.48.180,Colour_Asymmetry_Pilot,2022.1.3,Win32,60.06006006,62c50e9c1127f2cd403a315f,0,106,106,131,1,twofour,,,,,,,,,,,,,,,,,,,,,,,,,,,,,,,,,,,,,,,,,,,,,,,,,,,,,,,,,,,,,,,,,,,,,,,,,,,,,,,,,,,,,,,,,,,,,,,,,,,,,,,,,,,,,,,,,,,,,,,,,,,,,,,,,,,,,,,,,,,,,,,,,,,,,,,,,,,,,
,,,,,,61521e250ec8fac5185bc0cd,62c53a519cc59c4ecebc80e8,2022-07-06_09h32.48.180,Colour_Asymmetry_Pilot,2022.1.3,Win32,60.06006006,62c50e9c1127f2cd403a315f,0,107,107,115,1,twofour,,,,,,,,,,,,,,,,,,,,,,,,,,,,,,,,,,,,,,,,,,,,,,,,,,,,,,,,,,,,,,,,,,,,,,,,,,,,,,,,,,,,,,,,,,,,,,,,,,,,,,,,,,,,,,,,,,,,,,,,,,,,,,,,,,,,,,,,,,,,,,,,,,,,,,,,,,,,,
,,,,,,61521e250ec8fac5185bc0cd,62c53a519cc59c4ecebc80e8,2022-07-06_09h32.48.180,Colour_Asymmetry_Pilot,2022.1.3,Win32,60.06006006,62c50e9c1127f2cd403a315f,0,108,108,118,1,fourtwo,,,,,,,,,,,,,,,,,,,,,,,,,,,,,,,,,,,,,,,,,,,,,,,,,,,,,,,,,,,,,,,,,,,,,,,,,,,,,,,,,,,,,,,,,,,,,,,,,,,,,,,,,,,,,,,,,,,,,,,,,,,,,,,,,,,,,,,,,,,,,,,,,,,,,,,,,,,,,
,,,,,,61521e250ec8fac5185bc0cd,62c53a519cc59c4ecebc80e8,2022-07-06_09h32.48.180,Colour_Asymmetry_Pilot,2022.1.3,Win32,60.06006006,62c50e9c1127f2cd403a315f,0,109,109,139,1,twofour,,,,,,,,,,,,,,,,,,,,,,,,,,,,,,,,,,,,,,,,,,,,,,,,,,,,,,,,,,,,,,,,,,,,,,,,,,,,,,,,,,,,,,,,,,,,,,,,,,,,,,,,,,,,,,,,,,,,,,,,,,,,,,,,,,,,,,,,,,,,,,,,,,,,,,,,,,,,,
,,,,,,61521e250ec8fac5185bc0cd,62c53a519cc59c4ecebc80e8,2022-07-06_09h32.48.180,Colour_Asymmetry_Pilot,2022.1.3,Win32,60.06006006,62c50e9c1127f2cd403a315f,0,110,110,6,1,fourtwo,,,,,,,,,,,,,,,,,,,,,,,,,,,,,,,,,,,,,,,,,,,,,,,,,,,,,,,,,,,,,,,,,,,,,,,,,,,,,,,,,,,,,,,,,,,,,,,,,,,,,,,,,,,,,,,,,,,,,,,,,,,,,,,,,,,,,,,,,,,,,,,,,,,,,,,,,,,,,
,,,,,,61521e250ec8fac5185bc0cd,62c53a519cc59c4ecebc80e8,2022-07-06_09h32.48.180,Colour_Asymmetry_Pilot,2022.1.3,Win32,60.06006006,62c50e9c1127f2cd403a315f,0,111,111,72,1,onetwo,,,,,,,,,,,,,,,,,,,,,,,,,,,,,,,,,,,,,,,,,,,,,,,,,,,,,,,,,,,,,,,,,,,,,,,,,,,,,,,,,,,,,,,,,,,,,,,,,,,,,,,,,,,,,,,,,,,,,,,,,,,,,,,,,,,,,,,,,,,,,,,,,,,,,,,,,,,,,
,,,,,,61521e250ec8fac5185bc0cd,62c53a519cc59c4ecebc80e8,2022-07-06_09h32.48.180,Colour_Asymmetry_Pilot,2022.1.3,Win32,60.06006006,62c50e9c1127f2cd403a315f,0,112,112,152,1,onetwo,,,,,,,,,,,,,,,,,,,,,,,,,,,,,,,,,,,,,,,,,,,,,,,,,,,,,,,,,,,,,,,,,,,,,,,,,,,,,,,,,,,,,,,,,,,,,,,,,,,,,,,,,,,,,,,,,,,,,,,,,,,,,,,,,,,,,,,,,,,,,,,,,,,,,,,,,,,,,
,,,,,,61521e250ec8fac5185bc0cd,62c53a519cc59c4ecebc80e8,2022-07-06_09h32.48.180,Colour_Asymmetry_Pilot,2022.1.3,Win32,60.06006006,62c50e9c1127f2cd403a315f,0,113,113,145,1,onethree,,,,,,,,,,,,,,,,,,,,,,,,,,,,,,,,,,,,,,,,,,,,,,,,,,,,,,,,,,,,,,,,,,,,,,,,,,,,,,,,,,,,,,,,,,,,,,,,,,,,,,,,,,,,,,,,,,,,,,,,,,,,,,,,,,,,,,,,,,,,,,,,,,,,,,,,,,,,,
,,,,,,61521e250ec8fac5185bc0cd,62c53a519cc59c4ecebc80e8,2022-07-06_09h32.48.180,Colour_Asymmetry_Pilot,2022.1.3,Win32,60.06006006,62c50e9c1127f2cd403a315f,0,114,114,9,1,onethree,,,,,,,,,,,,,,,,,,,,,,,,,,,,,,,,,,,,,,,,,,,,,,,,,,,,,,,,,,,,,,,,,,,,,,,,,,,,,,,,,,,,,,,,,,,,,,,,,,,,,,,,,,,,,,,,,,,,,,,,,,,,,,,,,,,,,,,,,,,,,,,,,,,,,,,,,,,,,
,,,,,,61521e250ec8fac5185bc0cd,62c53a519cc59c4ecebc80e8,2022-07-06_09h32.48.180,Colour_Asymmetry_Pilot,2022.1.3,Win32,60.06006006,62c50e9c1127f2cd403a315f,0,115,115,73,1,onethree,,,,,,,,,,,,,,,,,,,,,,,,,,,,,,,,,,,,,,,,,,,,,,,,,,,,,,,,,,,,,,,,,,,,,,,,,,,,,,,,,,,,,,,,,,,,,,,,,,,,,,,,,,,,,,,,,,,,,,,,,,,,,,,,,,,,,,,,,,,,,,,,,,,,,,,,,,,,,
,,,,,,61521e250ec8fac5185bc0cd,62c53a519cc59c4ecebc80e8,2022-07-06_09h32.48.180,Colour_Asymmetry_Pilot,2022.1.3,Win32,60.06006006,62c50e9c1127f2cd403a315f,0,116,116,146,1,twoone,,,,,,,,,,,,,,,,,,,,,,,,,,,,,,,,,,,,,,,,,,,,,,,,,,,,,,,,,,,,,,,,,,,,,,,,,,,,,,,,,,,,,,,,,,,,,,,,,,,,,,,,,,,,,,,,,,,,,,,,,,,,,,,,,,,,,,,,,,,,,,,,,,,,,,,,,,,,,
,,,,,,61521e250ec8fac5185bc0cd,62c53a519cc59c4ecebc80e8,2022-07-06_09h32.48.180,Colour_Asymmetry_Pilot,2022.1.3,Win32,60.06006006,62c50e9c1127f2cd403a315f,0,117,117,3,1,twofour,,,,,,,,,,,,,,,,,,,,,,,,,,,,,,,,,,,,,,,,,,,,,,,,,,,,,,,,,,,,,,,,,,,,,,,,,,,,,,,,,,,,,,,,,,,,,,,,,,,,,,,,,,,,,,,,,,,,,,,,,,,,,,,,,,,,,,,,,,,,,,,,,,,,,,,,,,,,,
,,,,,,61521e250ec8fac5185bc0cd,62c53a519cc59c4ecebc80e8,2022-07-06_09h32.48.180,Colour_Asymmetry_Pilot,2022.1.3,Win32,60.06006006,62c50e9c1127f2cd403a315f,0,118,118,144,1,onetwo,,,,,,,,,,,,,,,,,,,,,,,,,,,,,,,,,,,,,,,,,,,,,,,,,,,,,,,,,,,,,,,,,,,,,,,,,,,,,,,,,,,,,,,,,,,,,,,,,,,,,,,,,,,,,,,,,,,,,,,,,,,,,,,,,,,,,,,,,,,,,,,,,,,,,,,,,,,,,
,,,,,,61521e250ec8fac5185bc0cd,62c53a519cc59c4ecebc80e8,2022-07-06_09h32.48.180,Colour_Asymmetry_Pilot,2022.1.3,Win32,60.06006006,62c50e9c1127f2cd403a315f,0,119,119,76,1,threeone,,,,,,,,,,,,,,,,,,,,,,,,,,,,,,,,,,,,,,,,,,,,,,,,,,,,,,,,,,,,,,,,,,,,,,,,,,,,,,,,,,,,,,,,,,,,,,,,,,,,,,,,,,,,,,,,,,,,,,,,,,,,,,,,,,,,,,,,,,,,,,,,,,,,,,,,,,,,,
,,,,,,61521e250ec8fac5185bc0cd,62c53a519cc59c4ecebc80e8,2022-07-06_09h32.48.180,Colour_Asymmetry_Pilot,2022.1.3,Win32,60.06006006,62c50e9c1127f2cd403a315f,0,120,120,58,1,twoone,,,,,,,,,,,,,,,,,,,,,,,,,,,,,,,,,,,,,,,,,,,,,,,,,,,,,,,,,,,,,,,,,,,,,,,,,,,,,,,,,,,,,,,,,,,,,,,,,,,,,,,,,,,,,,,,,,,,,,,,,,,,,,,,,,,,,,,,,,,,,,,,,,,,,,,,,,,,,
,,,,,,61521e250ec8fac5185bc0cd,62c53a519cc59c4ecebc80e8,2022-07-06_09h32.48.180,Colour_Asymmetry_Pilot,2022.1.3,Win32,60.06006006,62c50e9c1127f2cd403a315f,0,121,121,88,1,onetwo,,,,,,,,,,,,,,,,,,,,,,,,,,,,,,,,,,,,,,,,,,,,,,,,,,,,,,,,,,,,,,,,,,,,,,,,,,,,,,,,,,,,,,,,,,,,,,,,,,,,,,,,,,,,,,,,,,,,,,,,,,,,,,,,,,,,,,,,,,,,,,,,,,,,,,,,,,,,,
,,,,,,61521e250ec8fac5185bc0cd,62c53a519cc59c4ecebc80e8,2022-07-06_09h32.48.180,Colour_Asymmetry_Pilot,2022.1.3,Win32,60.06006006,62c50e9c1127f2cd403a315f,0,122,122,59,1,twofour,,,,,,,,,,,,,,,,,,,,,,,,,,,,,,,,,,,,,,,,,,,,,,,,,,,,,,,,,,,,,,,,,,,,,,,,,,,,,,,,,,,,,,,,,,,,,,,,,,,,,,,,,,,,,,,,,,,,,,,,,,,,,,,,,,,,,,,,,,,,,,,,,,,,,,,,,,,,,
,,,,,,61521e250ec8fac5185bc0cd,62c53a519cc59c4ecebc80e8,2022-07-06_09h32.48.180,Colour_Asymmetry_Pilot,2022.1.3,Win32,60.06006006,62c50e9c1127f2cd403a315f,0,123,123,27,1,twofour,,,,,,,,,,,,,,,,,,,,,,,,,,,,,,,,,,,,,,,,,,,,,,,,,,,,,,,,,,,,,,,,,,,,,,,,,,,,,,,,,,,,,,,,,,,,,,,,,,,,,,,,,,,,,,,,,,,,,,,,,,,,,,,,,,,,,,,,,,,,,,,,,,,,,,,,,,,,,
,,,,,,61521e250ec8fac5185bc0cd,62c53a519cc59c4ecebc80e8,2022-07-06_09h32.48.180,Colour_Asymmetry_Pilot,2022.1.3,Win32,60.06006006,62c50e9c1127f2cd403a315f,0,124,124,86,1,fourtwo,,,,,,,,,,,,,,,,,,,,,,,,,,,,,,,,,,,,,,,,,,,,,,,,,,,,,,,,,,,,,,,,,,,,,,,,,,,,,,,,,,,,,,,,,,,,,,,,,,,,,,,,,,,,,,,,,,,,,,,,,,,,,,,,,,,,,,,,,,,,,,,,,,,,,,,,,,,,,
,,,,,,61521e250ec8fac5185bc0cd,62c53a519cc59c4ecebc80e8,2022-07-06_09h32.48.180,Colour_Asymmetry_Pilot,2022.1.3,Win32,60.06006006,62c50e9c1127f2cd403a315f,0,125,125,52,1,threeone,,,,,,,,,,,,,,,,,,,,,,,,,,,,,,,,,,,,,,,,,,,,,,,,,,,,,,,,,,,,,,,,,,,,,,,,,,,,,,,,,,,,,,,,,,,,,,,,,,,,,,,,,,,,,,,,,,,,,,,,,,,,,,,,,,,,,,,,,,,,,,,,,,,,,,,,,,,,,
,,,,,,61521e250ec8fac5185bc0cd,62c53a519cc59c4ecebc80e8,2022-07-06_09h32.48.180,Colour_Asymmetry_Pilot,2022.1.3,Win32,60.06006006,62c50e9c1127f2cd403a315f,0,126,126,85,1,threefour,,,,,,,,,,,,,,,,,,,,,,,,,,,,,,,,,,,,,,,,,,,,,,,,,,,,,,,,,,,,,,,,,,,,,,,,,,,,,,,,,,,,,,,,,,,,,,,,,,,,,,,,,,,,,,,,,,,,,,,,,,,,,,,,,,,,,,,,,,,,,,,,,,,,,,,,,,,,,
,,,,,,61521e250ec8fac5185bc0cd,62c53a519cc59c4ecebc80e8,2022-07-06_09h32.48.180,Colour_Asymmetry_Pilot,2022.1.3,Win32,60.06006006,62c50e9c1127f2cd403a315f,0,127,127,157,1,threefour,,,,,,,,,,,,,,,,,,,,,,,,,,,,,,,,,,,,,,,,,,,,,,,,,,,,,,,,,,,,,,,,,,,,,,,,,,,,,,,,,,,,,,,,,,,,,,,,,,,,,,,,,,,,,,,,,,,,,,,,,,,,,,,,,,,,,,,,,,,,,,,,,,,,,,,,,,,,,
,,,,,,61521e250ec8fac5185bc0cd,62c53a519cc59c4ecebc80e8,2022-07-06_09h32.48.180,Colour_Asymmetry_Pilot,2022.1.3,Win32,60.06006006,62c50e9c1127f2cd403a315f,0,128,128,50,1,twoone,,,,,,,,,,,,,,,,,,,,,,,,,,,,,,,,,,,,,,,,,,,,,,,,,,,,,,,,,,,,,,,,,,,,,,,,,,,,,,,,,,,,,,,,,,,,,,,,,,,,,,,,,,,,,,,,,,,,,,,,,,,,,,,,,,,,,,,,,,,,,,,,,,,,,,,,,,,,,
,,,,,,61521e250ec8fac5185bc0cd,62c53a519cc59c4ecebc80e8,2022-07-06_09h32.48.180,Colour_Asymmetry_Pilot,2022.1.3,Win32,60.06006006,62c50e9c1127f2cd403a315f,0,129,129,65,1,onethree,,,,,,,,,,,,,,,,,,,,,,,,,,,,,,,,,,,,,,,,,,,,,,,,,,,,,,,,,,,,,,,,,,,,,,,,,,,,,,,,,,,,,,,,,,,,,,,,,,,,,,,,,,,,,,,,,,,,,,,,,,,,,,,,,,,,,,,,,,,,,,,,,,,,,,,,,,,,,
,,,,,,61521e250ec8fac5185bc0cd,62c53a519cc59c4ecebc80e8,2022-07-06_09h32.48.180,Colour_Asymmetry_Pilot,2022.1.3,Win32,60.06006006,62c50e9c1127f2cd403a315f,0,130,130,78,1,fourtwo,,,,,,,,,,,,,,,,,,,,,,,,,,,,,,,,,,,,,,,,,,,,,,,,,,,,,,,,,,,,,,,,,,,,,,,,,,,,,,,,,,,,,,,,,,,,,,,,,,,,,,,,,,,,,,,,,,,,,,,,,,,,,,,,,,,,,,,,,,,,,,,,,,,,,,,,,,,,,
,,,,,,61521e250ec8fac5185bc0cd,62c53a519cc59c4ecebc80e8,2022-07-06_09h32.48.180,Colour_Asymmetry_Pilot,2022.1.3,Win32,60.06006006,62c50e9c1127f2cd403a315f,0,131,131,142,1,fourtwo,,,,,,,,,,,,,,,,,,,,,,,,,,,,,,,,,,,,,,,,,,,,,,,,,,,,,,,,,,,,,,,,,,,,,,,,,,,,,,,,,,,,,,,,,,,,,,,,,,,,,,,,,,,,,,,,,,,,,,,,,,,,,,,,,,,,,,,,,,,,,,,,,,,,,,,,,,,,,
,,,,,,61521e250ec8fac5185bc0cd,62c53a519cc59c4ecebc80e8,2022-07-06_09h32.48.180,Colour_Asymmetry_Pilot,2022.1.3,Win32,60.06006006,62c50e9c1127f2cd403a315f,0,132,132,66,1,twoone,,,,,,,,,,,,,,,,,,,,,,,,,,,,,,,,,,,,,,,,,,,,,,,,,,,,,,,,,,,,,,,,,,,,,,,,,,,,,,,,,,,,,,,,,,,,,,,,,,,,,,,,,,,,,,,,,,,,,,,,,,,,,,,,,,,,,,,,,,,,,,,,,,,,,,,,,,,,,
,,,,,,61521e250ec8fac5185bc0cd,62c53a519cc59c4ecebc80e8,2022-07-06_09h32.48.180,Colour_Asymmetry_Pilot,2022.1.3,Win32,60.06006006,62c50e9c1127f2cd403a315f,0,133,133,102,1,fourtwo,,,,,,,,,,,,,,,,,,,,,,,,,,,,,,,,,,,,,,,,,,,,,,,,,,,,,,,,,,,,,,,,,,,,,,,,,,,,,,,,,,,,,,,,,,,,,,,,,,,,,,,,,,,,,,,,,,,,,,,,,,,,,,,,,,,,,,,,,,,,,,,,,,,,,,,,,,,,,
,,,,,,61521e250ec8fac5185bc0cd,62c53a519cc59c4ecebc80e8,2022-07-06_09h32.48.180,Colour_Asymmetry_Pilot,2022.1.3,Win32,60.06006006,62c50e9c1127f2cd403a315f,0,134,134,22,1,fourtwo,,,,,,,,,,,,,,,,,,,,,,,,,,,,,,,,,,,,,,,,,,,,,,,,,,,,,,,,,,,,,,,,,,,,,,,,,,,,,,,,,,,,,,,,,,,,,,,,,,,,,,,,,,,,,,,,,,,,,,,,,,,,,,,,,,,,,,,,,,,,,,,,,,,,,,,,,,,,,
,,,,,,61521e250ec8fac5185bc0cd,62c53a519cc59c4ecebc80e8,2022-07-06_09h32.48.180,Colour_Asymmetry_Pilot,2022.1.3,Win32,60.06006006,62c50e9c1127f2cd403a315f,0,135,135,149,1,threefour,,,,,,,,,,,,,,,,,,,,,,,,,,,,,,,,,,,,,,,,,,,,,,,,,,,,,,,,,,,,,,,,,,,,,,,,,,,,,,,,,,,,,,,,,,,,,,,,,,,,,,,,,,,,,,,,,,,,,,,,,,,,,,,,,,,,,,,,,,,,,,,,,,,,,,,,,,,,,
,,,,,,61521e250ec8fac5185bc0cd,62c53a519cc59c4ecebc80e8,2022-07-06_09h32.48.180,Colour_Asymmetry_Pilot,2022.1.3,Win32,60.06006006,62c50e9c1127f2cd403a315f,0,136,136,39,1,fourthree,,,,,,,,,,,,,,,,,,,,,,,,,,,,,,,,,,,,,,,,,,,,,,,,,,,,,,,,,,,,,,,,,,,,,,,,,,,,,,,,,,,,,,,,,,,,,,,,,,,,,,,,,,,,,,,,,,,,,,,,,,,,,,,,,,,,,,,,,,,,,,,,,,,,,,,,,,,,,
,,,,,,61521e250ec8fac5185bc0cd,62c53a519cc59c4ecebc80e8,2022-07-06_09h32.48.180,Colour_Asymmetry_Pilot,2022.1.3,Win32,60.06006006,62c50e9c1127f2cd403a315f,0,137,137,34,1,twoone,,,,,,,,,,,,,,,,,,,,,,,,,,,,,,,,,,,,,,,,,,,,,,,,,,,,,,,,,,,,,,,,,,,,,,,,,,,,,,,,,,,,,,,,,,,,,,,,,,,,,,,,,,,,,,,,,,,,,,,,,,,,,,,,,,,,,,,,,,,,,,,,,,,,,,,,,,,,,
,,,,,,61521e250ec8fac5185bc0cd,62c53a519cc59c4ecebc80e8,2022-07-06_09h32.48.180,Colour_Asymmetry_Pilot,2022.1.3,Win32,60.06006006,62c50e9c1127f2cd403a315f,0,138,138,105,1,onethree,,,,,,,,,,,,,,,,,,,,,,,,,,,,,,,,,,,,,,,,,,,,,,,,,,,,,,,,,,,,,,,,,,,,,,,,,,,,,,,,,,,,,,,,,,,,,,,,,,,,,,,,,,,,,,,,,,,,,,,,,,,,,,,,,,,,,,,,,,,,,,,,,,,,,,,,,,,,,
,,,,,,61521e250ec8fac5185bc0cd,62c53a519cc59c4ecebc80e8,2022-07-06_09h32.48.180,Colour_Asymmetry_Pilot,2022.1.3,Win32,60.06006006,62c50e9c1127f2cd403a315f,0,139,139,71,1,fourthree,,,,,,,,,,,,,,,,,,,,,,,,,,,,,,,,,,,,,,,,,,,,,,,,,,,,,,,,,,,,,,,,,,,,,,,,,,,,,,,,,,,,,,,,,,,,,,,,,,,,,,,,,,,,,,,,,,,,,,,,,,,,,,,,,,,,,,,,,,,,,,,,,,,,,,,,,,,,,
,,,,,,61521e250ec8fac5185bc0cd,62c53a519cc59c4ecebc80e8,2022-07-06_09h32.48.180,Colour_Asymmetry_Pilot,2022.1.3,Win32,60.06006006,62c50e9c1127f2cd403a315f,0,140,140,2,1,twoone,,,,,,,,,,,,,,,,,,,,,,,,,,,,,,,,,,,,,,,,,,,,,,,,,,,,,,,,,,,,,,,,,,,,,,,,,,,,,,,,,,,,,,,,,,,,,,,,,,,,,,,,,,,,,,,,,,,,,,,,,,,,,,,,,,,,,,,,,,,,,,,,,,,,,,,,,,,,,
,,,,,,61521e250ec8fac5185bc0cd,62c53a519cc59c4ecebc80e8,2022-07-06_09h32.48.180,Colour_Asymmetry_Pilot,2022.1.3,Win32,60.06006006,62c50e9c1127f2cd403a315f,0,141,141,109,1,threefour,,,,,,,,,,,,,,,,,,,,,,,,,,,,,,,,,,,,,,,,,,,,,,,,,,,,,,,,,,,,,,,,,,,,,,,,,,,,,,,,,,,,,,,,,,,,,,,,,,,,,,,,,,,,,,,,,,,,,,,,,,,,,,,,,,,,,,,,,,,,,,,,,,,,,,,,,,,,,
,,,,,,61521e250ec8fac5185bc0cd,62c53a519cc59c4ecebc80e8,2022-07-06_09h32.48.180,Colour_Asymmetry_Pilot,2022.1.3,Win32,60.06006006,62c50e9c1127f2cd403a315f,0,142,142,26,1,twoone,,,,,,,,,,,,,,,,,,,,,,,,,,,,,,,,,,,,,,,,,,,,,,,,,,,,,,,,,,,,,,,,,,,,,,,,,,,,,,,,,,,,,,,,,,,,,,,,,,,,,,,,,,,,,,,,,,,,,,,,,,,,,,,,,,,,,,,,,,,,,,,,,,,,,,,,,,,,,
,,,,,,61521e250ec8fac5185bc0cd,62c53a519cc59c4ecebc80e8,2022-07-06_09h32.48.180,Colour_Asymmetry_Pilot,2022.1.3,Win32,60.06006006,62c50e9c1127f2cd403a315f,0,143,143,63,1,fourthree,,,,,,,,,,,,,,,,,,,,,,,,,,,,,,,,,,,,,,,,,,,,,,,,,,,,,,,,,,,,,,,,,,,,,,,,,,,,,,,,,,,,,,,,,,,,,,,,,,,,,,,,,,,,,,,,,,,,,,,,,,,,,,,,,,,,,,,,,,,,,,,,,,,,,,,,,,,,,
,,,,,,61521e250ec8fac5185bc0cd,62c53a519cc59c4ecebc80e8,2022-07-06_09h32.48.180,Colour_Asymmetry_Pilot,2022.1.3,Win32,60.06006006,62c50e9c1127f2cd403a315f,0,144,144,143,1,fourthree,,,,,,,,,,,,,,,,,,,,,,,,,,,,,,,,,,,,,,,,,,,,,,,,,,,,,,,,,,,,,,,,,,,,,,,,,,,,,,,,,,,,,,,,,,,,,,,,,,,,,,,,,,,,,,,,,,,,,,,,,,,,,,,,,,,,,,,,,,,,,,,,,,,,,,,,,,,,,
,,,,,,61521e250ec8fac5185bc0cd,62c53a519cc59c4ecebc80e8,2022-07-06_09h32.48.180,Colour_Asymmetry_Pilot,2022.1.3,Win32,60.06006006,62c50e9c1127f2cd403a315f,0,145,145,4,1,threeone,,,,,,,,,,,,,,,,,,,,,,,,,,,,,,,,,,,,,,,,,,,,,,,,,,,,,,,,,,,,,,,,,,,,,,,,,,,,,,,,,,,,,,,,,,,,,,,,,,,,,,,,,,,,,,,,,,,,,,,,,,,,,,,,,,,,,,,,,,,,,,,,,,,,,,,,,,,,,
,,,,,,61521e250ec8fac5185bc0cd,62c53a519cc59c4ecebc80e8,2022-07-06_09h32.48.180,Colour_Asymmetry_Pilot,2022.1.3,Win32,60.06006006,62c50e9c1127f2cd403a315f,0,146,146,91,1,twofour,,,,,,,,,,,,,,,,,,,,,,,,,,,,,,,,,,,,,,,,,,,,,,,,,,,,,,,,,,,,,,,,,,,,,,,,,,,,,,,,,,,,,,,,,,,,,,,,,,,,,,,,,,,,,,,,,,,,,,,,,,,,,,,,,,,,,,,,,,,,,,,,,,,,,,,,,,,,,
,,,,,,61521e250ec8fac5185bc0cd,62c53a519cc59c4ecebc80e8,2022-07-06_09h32.48.180,Colour_Asymmetry_Pilot,2022.1.3,Win32,60.06006006,62c50e9c1127f2cd403a315f,0,147,147,117,1,threefour,,,,,,,,,,,,,,,,,,,,,,,,,,,,,,,,,,,,,,,,,,,,,,,,,,,,,,,,,,,,,,,,,,,,,,,,,,,,,,,,,,,,,,,,,,,,,,,,,,,,,,,,,,,,,,,,,,,,,,,,,,,,,,,,,,,,,,,,,,,,,,,,,,,,,,,,,,,,,
,,,,,,61521e250ec8fac5185bc0cd,62c53a519cc59c4ecebc80e8,2022-07-06_09h32.48.180,Colour_Asymmetry_Pilot,2022.1.3,Win32,60.06006006,62c50e9c1127f2cd403a315f,0,148,148,114,1,twoone,,,,,,,,,,,,,,,,,,,,,,,,,,,,,,,,,,,,,,,,,,,,,,,,,,,,,,,,,,,,,,,,,,,,,,,,,,,,,,,,,,,,,,,,,,,,,,,,,,,,,,,,,,,,,,,,,,,,,,,,,,,,,,,,,,,,,,,,,,,,,,,,,,,,,,,,,,,,,
,,,,,,61521e250ec8fac5185bc0cd,62c53a519cc59c4ecebc80e8,2022-07-06_09h32.48.180,Colour_Asymmetry_Pilot,2022.1.3,Win32,60.06006006,62c50e9c1127f2cd403a315f,0,149,149,96,1,onetwo,,,,,,,,,,,,,,,,,,,,,,,,,,,,,,,,,,,,,,,,,,,,,,,,,,,,,,,,,,,,,,,,,,,,,,,,,,,,,,,,,,,,,,,,,,,,,,,,,,,,,,,,,,,,,,,,,,,,,,,,,,,,,,,,,,,,,,,,,,,,,,,,,,,,,,,,,,,,,
,,,,,,61521e250ec8fac5185bc0cd,62c53a519cc59c4ecebc80e8,2022-07-06_09h32.48.180,Colour_Asymmetry_Pilot,2022.1.3,Win32,60.06006006,62c50e9c1127f2cd403a315f,0,150,150,140,1,threeone,,,,,,,,,,,,,,,,,,,,,,,,,,,,,,,,,,,,,,,,,,,,,,,,,,,,,,,,,,,,,,,,,,,,,,,,,,,,,,,,,,,,,,,,,,,,,,,,,,,,,,,,,,,,,,,,,,,,,,,,,,,,,,,,,,,,,,,,,,,,,,,,,,,,,,,,,,,,,
,,,,,,61521e250ec8fac5185bc0cd,62c53a519cc59c4ecebc80e8,2022-07-06_09h32.48.180,Colour_Asymmetry_Pilot,2022.1.3,Win32,60.06006006,62c50e9c1127f2cd403a315f,0,151,151,127,1,fourthree,,,,,,,,,,,,,,,,,,,,,,,,,,,,,,,,,,,,,,,,,,,,,,,,,,,,,,,,,,,,,,,,,,,,,,,,,,,,,,,,,,,,,,,,,,,,,,,,,,,,,,,,,,,,,,,,,,,,,,,,,,,,,,,,,,,,,,,,,,,,,,,,,,,,,,,,,,,,,
,,,,,,61521e250ec8fac5185bc0cd,62c53a519cc59c4ecebc80e8,2022-07-06_09h32.48.180,Colour_Asymmetry_Pilot,2022.1.3,Win32,60.06006006,62c50e9c1127f2cd403a315f,0,152,152,84,1,threeone,,,,,,,,,,,,,,,,,,,,,,,,,,,,,,,,,,,,,,,,,,,,,,,,,,,,,,,,,,,,,,,,,,,,,,,,,,,,,,,,,,,,,,,,,,,,,,,,,,,,,,,,,,,,,,,,,,,,,,,,,,,,,,,,,,,,,,,,,,,,,,,,,,,,,,,,,,,,,
,,,,,,61521e250ec8fac5185bc0cd,62c53a519cc59c4ecebc80e8,2022-07-06_09h32.48.180,Colour_Asymmetry_Pilot,2022.1.3,Win32,60.06006006,62c50e9c1127f2cd403a315f,0,153,153,108,1,threeone,,,,,,,,,,,,,,,,,,,,,,,,,,,,,,,,,,,,,,,,,,,,,,,,,,,,,,,,,,,,,,,,,,,,,,,,,,,,,,,,,,,,,,,,,,,,,,,,,,,,,,,,,,,,,,,,,,,,,,,,,,,,,,,,,,,,,,,,,,,,,,,,,,,,,,,,,,,,,
,,,,,,61521e250ec8fac5185bc0cd,62c53a519cc59c4ecebc80e8,2022-07-06_09h32.48.180,Colour_Asymmetry_Pilot,2022.1.3,Win32,60.06006006,62c50e9c1127f2cd403a315f,0,154,154,46,1,fourtwo,,,,,,,,,,,,,,,,,,,,,,,,,,,,,,,,,,,,,,,,,,,,,,,,,,,,,,,,,,,,,,,,,,,,,,,,,,,,,,,,,,,,,,,,,,,,,,,,,,,,,,,,,,,,,,,,,,,,,,,,,,,,,,,,,,,,,,,,,,,,,,,,,,,,,,,,,,,,,
,,,,,,61521e250ec8fac5185bc0cd,62c53a519cc59c4ecebc80e8,2022-07-06_09h32.48.180,Colour_Asymmetry_Pilot,2022.1.3,Win32,60.06006006,62c50e9c1127f2cd403a315f,0,155,155,55,1,fourthree,,,,,,,,,,,,,,,,,,,,,,,,,,,,,,,,,,,,,,,,,,,,,,,,,,,,,,,,,,,,,,,,,,,,,,,,,,,,,,,,,,,,,,,,,,,,,,,,,,,,,,,,,,,,,,,,,,,,,,,,,,,,,,,,,,,,,,,,,,,,,,,,,,,,,,,,,,,,,
,,,,,,61521e250ec8fac5185bc0cd,62c53a519cc59c4ecebc80e8,2022-07-06_09h32.48.180,Colour_Asymmetry_Pilot,2022.1.3,Win32,60.06006006,62c50e9c1127f2cd403a315f,0,156,156,116,1,threeone,,,,,,,,,,,,,,,,,,,,,,,,,,,,,,,,,,,,,,,,,,,,,,,,,,,,,,,,,,,,,,,,,,,,,,,,,,,,,,,,,,,,,,,,,,,,,,,,,,,,,,,,,,,,,,,,,,,,,,,,,,,,,,,,,,,,,,,,,,,,,,,,,,,,,,,,,,,,,
,,,,,,61521e250ec8fac5185bc0cd,62c53a519cc59c4ecebc80e8,2022-07-06_09h32.48.180,Colour_Asymmetry_Pilot,2022.1.3,Win32,60.06006006,62c50e9c1127f2cd403a315f,0,157,157,158,1,fourtwo,,,,,,,,,,,,,,,,,,,,,,,,,,,,,,,,,,,,,,,,,,,,,,,,,,,,,,,,,,,,,,,,,,,,,,,,,,,,,,,,,,,,,,,,,,,,,,,,,,,,,,,,,,,,,,,,,,,,,,,,,,,,,,,,,,,,,,,,,,,,,,,,,,,,,,,,,,,,,
,,,,,,61521e250ec8fac5185bc0cd,62c53a519cc59c4ecebc80e8,2022-07-06_09h32.48.180,Colour_Asymmetry_Pilot,2022.1.3,Win32,60.06006006,62c50e9c1127f2cd403a315f,0,158,158,125,1,threefour,,,,,,,,,,,,,,,,,,,,,,,,,,,,,,,,,,,,,,,,,,,,,,,,,,,,,,,,,,,,,,,,,,,,,,,,,,,,,,,,,,,,,,,,,,,,,,,,,,,,,,,,,,,,,,,,,,,,,,,,,,,,,,,,,,,,,,,,,,,,,,,,,,,,,,,,,,,,,
,,,,,,61521e250ec8fac5185bc0cd,62c53a519cc59c4ecebc80e8,2022-07-06_09h32.48.180,Colour_Asymmetry_Pilot,2022.1.3,Win32,60.06006006,62c50e9c1127f2cd403a315f,0,159,159,74,1,twoone,,,,,,,,,,,,,,,,,,,,,,,,,,,,,,,,,,,,,,,,,,,,,,,,,,,,,,,,,,,,,,,,,,,,,,,,,,,,,,,,,,,,,,,,,,,,,,,,,,,,,,,,,,,,,,,,,,,,,,,,,,,,,,,,,,,,,,,,,,,,,,,,,,,,,,,,,,,,,
,,,,,,61521e250ec8fac5185bc0cd,62c53a519cc59c4ecebc80e8,2022-07-06_09h32.48.180,Colour_Asymmetry_Pilot,2022.1.3,Win32,60.06006006,62c50e9c1127f2cd403a315f,0,160,160,159,1,fourthree,,,,,,,,,,,,,,,,,,,,,,,,,,,,,,,,,,,,,,,,,,,,,,,,,,,,,,,,,,,,,,,,,,,,,,,,,,,,,,,,,,,,,,,,,,,,,,,,,,,,,,,,,,,,,,,,,,,,,,,,,,,,,,,,,,,,,,,,,,,,,,,,,,,,,,,,,,,,,
,,,,,,61521e250ec8fac5185bc0cd,62c53a519cc59c4ecebc80e8,2022-07-06_09h32.48.180,Colour_Asymmetry_Pilot,2022.1.3,Win32,60.06006006,62c50e9c1127f2cd403a315f,0,161,161,11,1,twofour,,,,,,,,,,,,,,,,,,,,,,,,,,,,,,,,,,,,,,,,,,,,,,,,,,,,,,,,,,,,,,,,,,,,,,,,,,,,,,,,,,,,,,,,,,,,,,,,,,,,,,,,,,,,,,,,,,,,,,,,,,,,,,,,,,,,,,,,,,,,,,,,,,,,,,,,,,,,,
,,,,,,61521e250ec8fac5185bc0cd,62c53a519cc59c4ecebc80e8,2022-07-06_09h32.48.180,Colour_Asymmetry_Pilot,2022.1.3,Win32,60.06006006,62c50e9c1127f2cd403a315f,,,,,,,space,4.7604,space,12.2157,space,47.0812,space,35.6477,space,10.3271,space,6.5995,"[0.9213999999999998,0.6391999999999998,-0.9922]",fourtwo,"[-0.10599999999999998,-0.10599999999999998,0.5841999999999998]",-4,5.2787,-44,101,1,0,0,response7disk_5,-5,5,1,0,0,rectangle_8,-5,5,1,0,0,1,-5,5,1,0,0,0,0,0,0,1,,,,,,,,,,,,,,,,,,,,,,,,,,,,,,,,,,,,,,,,,,,,,,,,,,,,,,,,,,,,,,,,,,,,,,,,,,,,,,,,,,,,,,,,,,,,,,,,,,,,,,,,,,,,,,,,
,,,,,,61521e250ec8fac5185bc0cd,62c53a519cc59c4ecebc80e8,2022-07-06_09h32.48.180,Colour_Asymmetry_Pilot,2022.1.3,Win32,60.06006006,62c50e9c1127f2cd403a315f,,,,,,,,,,,,,,,,,,,"[0.7802,-0.23140000000000005,-0.20799999999999996]",onetwo,"[0.8274000000000001,-0.5844,-0.9452]",2,7.5993,83,-34,1,0,0,response3disk_5,-6,1,1,0,0,rectangle_8,-6,1,1,0,0,1,-6,1,1,0,0,1,0,1,0,1,,,,,,,,,,,,,,,,,,,,,,,,,,,,,,,,,,,,,,,,,,,,,,,,,,,,,,,,,,,,,,,,,,,,,,,,,,,,,,,,,,,,,,,,,,,,,,,,,,,,,,,,,,,,,,,,
,,,,,,61521e250ec8fac5185bc0cd,62c53a519cc59c4ecebc80e8,2022-07-06_09h32.48.180,Colour_Asymmetry_Pilot,2022.1.3,Win32,60.06006006,62c50e9c1127f2cd403a315f,,,,,,,,,,,,,,,,,,,"[-0.4902000000000001,0.2704,-0.45899999999999996]",threeone,"[0.7802,-0.23140000000000005,-0.20799999999999996]",-4,2.0064,-46,80,1,0,0,response7disk_5,-2,-1,1,0,0,rectangle_8,-45,-86,1,0,0,1,-4,5,1,0,0,2,0,2,0,1,response5disk_7,3,rectangle_4,,,,,,,,,,,,,,,,,,,,,,,,,,,,,,,,,,,,,,,,,,,,,,,,,,,,,,,,,,,,,,,,,,,,,,,,,,,,,,,,,,,,,,,,,,,,,,,,,,,,,,,,,,,,,
,,,,,,61521e250ec8fac5185bc0cd,62c53a519cc59c4ecebc80e8,2022-07-06_09h32.48.180,Colour_Asymmetry_Pilot,2022.1.3,Win32,60.06006006,62c50e9c1127f2cd403a315f,,,,,,,,,,,,,,,,,,,"[-0.45899999999999996,-0.3256,-0.9374]",onetwo,"[0.37240000000000006,-0.050999999999999934,-0.5216]",-4,2.8393,-36,106,1,0,0,response7disk_5,0,1,1,0,0,rectangle_8,0,1,1,0,0,1,0,1,1,0,0,3,0,3,0,1,,,,,,,,,,,,,,,,,,,,,,,,,,,,,,,,,,,,,,,,,,,,,,,,,,,,,,,,,,,,,,,,,,,,,,,,,,,,,,,,,,,,,,,,,,,,,,,,,,,,,,,,,,,,,,,,
,,,,,,61521e250ec8fac5185bc0cd,62c53a519cc59c4ecebc80e8,2022-07-06_09h32.48.180,Colour_Asymmetry_Pilot,2022.1.3,Win32,60.06006006,62c50e9c1127f2cd403a315f,,,,,,,,,,,,,,,,,,,"[0.9763999999999999,0.30979999999999985,-0.6786]",onethree,"[-0.9138,-0.5296000000000001,-0.5529999999999999]",-4,1.3182,-37,79,1,0,0,response7disk_5,11,0,1,0,0,rectangle_8,11,0,1,0,0,1,11,0,1,0,0,4,0,4,0,1,,,,,,,,,,,,,,,,,,,,,,,,,,,,,,,,,,,,,,,,,,,,,,,,,,,,,,,,,,,,,,,,,,,,,,,,,,,,,,,,,,,,,,,,,,,,,,,,,,,,,,,,,,,,,,,,
,,,,,,61521e250ec8fac5185bc0cd,62c53a519cc59c4ecebc80e8,2022-07-06_09h32.48.180,Colour_Asymmetry_Pilot,2022.1.3,Win32,60.06006006,62c50e9c1127f2cd403a315f,,,,,,,,,,,,,,,,,,,"[-0.5452,-0.608,0.2470000000000001]",twofour,"[-0.30200000000000005,0.14500000000000002,0.2784]",2,2.3719,90,-24,1,0,0,response3disk_5,1,-3,1,0,0,rectangle_8,-58,-77,1,0,0,1,-9,5,1,0,0,5,0,5,0,1,response5disk_7,3,rectangle_4,,,,,,,,,,,,,,,,,,,,,,,,,,,,,,,,,,,,,,,,,,,,,,,,,,,,,,,,,,,,,,,,,,,,,,,,,,,,,,,,,,,,,,,,,,,,,,,,,,,,,,,,,,,,,
,,,,,,61521e250ec8fac5185bc0cd,62c53a519cc59c4ecebc80e8,2022-07-06_09h32.48.180,Colour_Asymmetry_Pilot,2022.1.3,Win32,60.06006006,62c50e9c1127f2cd403a315f,,,,,,,,,,,,,,,,,,,"[-0.050999999999999934,-0.6706000000000001,-0.804]",twoone,"[0.796,0.2156,-0.27859999999999996]",-4,1.6596,-25,84,1,0,0,response7disk_5,4,8,1,0,0,rectangle_8,4,8,1,0,0,1,4,8,1,0,0,6,0,6,0,1,,,,,,,,,,,,,,,,,,,,,,,,,,,,,,,,,,,,,,,,,,,,,,,,,,,,,,,,,,,,,,,,,,,,,,,,,,,,,,,,,,,,,,,,,,,,,,,,,,,,,,,,,,,,,,,,
,,,,,,61521e250ec8fac5185bc0cd,62c53a519cc59c4ecebc80e8,2022-07-06_09h32.48.180,Colour_Asymmetry_Pilot,2022.1.3,Win32,60.06006006,62c50e9c1127f2cd403a315f,,,,,,,,,,,,,,,,,,,,onethree,,-4,3.0368,,,,,,,,,,,,,,,,,,,,,,,,,,,,,,,,space,4.1199,"[-0.9296,-0.12959999999999994,-0.043199999999999905]","[-0.07459999999999989,0.12139999999999995,-0.9922]",-45,83,1,0,0,response7disk,4,8,1,0,0,rectangle,4,8,1,0,0,,2,0.0034,0,4,8,1,0,0,0,0,0,122,1,41,second,,,,,,,,,,,,,,,,,,,,,,,,,,,,,,,,,,,,,,,,,,,,,,,,,,,,,,,,,,,,,,,,,,,,,,,,
,,,,,,61521e250ec8fac5185bc0cd,62c53a519cc59c4ecebc80e8,2022-07-06_09h32.48.180,Colour_Asymmetry_Pilot,2022.1.3,Win32,60.06006006,62c50e9c1127f2cd403a315f,,,,,,,,,,,,,,,,,,,,threefour,,-4,1.0451,,,,,,,,,,,,,,,,,,,,,,,,,,,,,,,,,,"[0.2862,0.7802,0.3568]","[-0.9138,-0.5296000000000001,-0.5529999999999999]",-29,80,1,0,0,response7disk,-3,-3,1,0,0,rectangle,-3,-3,1,0,0,,2,0.0004,0,-3,-3,1,0,0,0,1,1,29,1,29,first,,,,,,,,,,,,,,,,,,,,,,,,,,,,,,,,,,,,,,,,,,,,,,,,,,,,,,,,,,,,,,,,,,,,,,,,
,,,,,,61521e250ec8fac5185bc0cd,62c53a519cc59c4ecebc80e8,2022-07-06_09h32.48.180,Colour_Asymmetry_Pilot,2022.1.3,Win32,60.06006006,62c50e9c1127f2cd403a315f,,,,,,,,,,,,,,,,,,,,threeone,,-4,0.9761,,,,,,,,,,,,,,,,,,,,,,,,,,,,,,,,,,"[0.12939999999999996,-0.2864,0.3253999999999999]","[-0.6942,-0.7648,-0.12959999999999994]",-44,89,1,0,0,response7disk,-1,-3,1,0,0,rectangle,-1,-3,1,0,0,,1,0.0021,0,-1,-3,1,0,0,0,2,2,88,1,7,second,,,,,,,,,,,,,,,,,,,,,,,,,,,,,,,,,,,,,,,,,,,,,,,,,,,,,,,,,,,,,,,,,,,,,,,,
,,,,,,61521e250ec8fac5185bc0cd,62c53a519cc59c4ecebc80e8,2022-07-06_09h32.48.180,Colour_Asymmetry_Pilot,2022.1.3,Win32,60.06006006,62c50e9c1127f2cd403a315f,,,,,,,,,,,,,,,,,,,,threefour,,3,2.0776,,,,,,,,,,,,,,,,,,,,,,,,,,,,,,,,,,"[0.9763999999999999,0.30979999999999985,-0.6786]","[0.9842,0.7409999999999999,-0.6628000000000001]",75,49,1,0,0,response1disk,17,7,1,0,0,rectangle,17,7,1,0,0,,3,0.0018,0,17,7,1,0,0,0,3,3,60,1,60,first,,,,,,,,,,,,,,,,,,,,,,,,,,,,,,,,,,,,,,,,,,,,,,,,,,,,,,,,,,,,,,,,,,,,,,,,
,,,,,,61521e250ec8fac5185bc0cd,62c53a519cc59c4ecebc80e8,2022-07-06_09h32.48.180,Colour_Asymmetry_Pilot,2022.1.3,Win32,60.06006006,62c50e9c1127f2cd403a315f,,,,,,,,,,,,,,,,,,,,threeone,,-4,1.0189,,,,,,,,,,,,,,,,,,,,,,,,,,,,,,,,,,"[-0.9688,-0.7412000000000001,-0.4902000000000001]","[0.12939999999999996,-0.2864,0.3253999999999999]",-64,79,1,0,0,response7disk,-6,1,1,0,0,rectangle,-6,1,1,0,0,,3,0.0003,0,-6,1,1,0,0,0,4,4,20,1,20,first,,,,,,,,,,,,,,,,,,,,,,,,,,,,,,,,,,,,,,,,,,,,,,,,,,,,,,,,,,,,,,,,,,,,,,,,
,,,,,,61521e250ec8fac5185bc0cd,62c53a519cc59c4ecebc80e8,2022-07-06_09h32.48.180,Colour_Asymmetry_Pilot,2022.1.3,Win32,60.06006006,62c50e9c1127f2cd403a315f,,,,,,,,,,,,,,,,,,,,fourthree,,-4,0.9356,,,,,,,,,,,,,,,,,,,,,,,,,,,,,,,,,,"[0.3881999999999999,-0.23939999999999995,-0.05040000000000011]","[-0.24719999999999998,-0.0354000000000001,0.3175999999999999]",-36,74,1,0,0,response7disk,2,1,1,0,0,rectangle,2,1,1,0,0,,3,0.0004,0,2,1,1,0,0,0,5,5,25,1,25,first,,,,,,,,,,,,,,,,,,,,,,,,,,,,,,,,,,,,,,,,,,,,,,,,,,,,,,,,,,,,,,,,,,,,,,,,
,,,,,,61521e250ec8fac5185bc0cd,62c53a519cc59c4ecebc80e8,2022-07-06_09h32.48.180,Colour_Asymmetry_Pilot,2022.1.3,Win32,60.06006006,62c50e9c1127f2cd403a315f,,,,,,,,,,,,,,,,,,,,onetwo,,-4,1.1305,,,,,,,,,,,,,,,,,,,,,,,,,,,,,,,,,,"[0.9763999999999999,0.8588,-0.05900000000000005]","[-0.07459999999999989,0.12139999999999995,-0.9922]",-44,71,1,0,0,response7disk,-5,1,1,0,0,rectangle,-5,1,1,0,0,,2,0.0017,0,-5,1,1,0,0,0,6,6,6,1,6,first,,,,,,,,,,,,,,,,,,,,,,,,,,,,,,,,,,,,,,,,,,,,,,,,,,,,,,,,,,,,,,,,,,,,,,,,
,,,,,,61521e250ec8fac5185bc0cd,62c53a519cc59c4ecebc80e8,2022-07-06_09h32.48.180,Colour_Asymmetry_Pilot,2022.1.3,Win32,60.06006006,62c50e9c1127f2cd403a315f,,,,,,,,,,,,,,,,,,,,onetwo,,-4,0.776,,,,,,,,,,,,,,,,,,,,,,,,,,,,,,,,,,"[0.5449999999999999,-0.31000000000000005,-0.0354000000000001]","[-0.4746,-0.0354000000000001,0.5449999999999999]",-34,78,1,0,0,response7disk,-11,5,1,0,0,rectangle,-11,5,1,0,0,,1,0.0028,0,-11,5,1,0,0,0,7,7,3,1,3,first,,,,,,,,,,,,,,,,,,,,,,,,,,,,,,,,,,,,,,,,,,,,,,,,,,,,,,,,,,,,,,,,,,,,,,,,
,,,,,,61521e250ec8fac5185bc0cd,62c53a519cc59c4ecebc80e8,2022-07-06_09h32.48.180,Colour_Asymmetry_Pilot,2022.1.3,Win32,60.06006006,62c50e9c1127f2cd403a315f,,,,,,,,,,,,,,,,,,,,fourthree,,-4,0.8254,,,,,,,,,,,,,,,,,,,,,,,,,,,,,,,,,,"[0.4196,0.4665999999999999,0.3568]","[-0.9688,-0.7412000000000001,-0.4902000000000001]",-44,112,1,0,0,response7disk,-11,8,1,0,0,rectangle,-11,8,1,0,0,,1,0.0004,0,-11,8,1,0,0,0,8,8,99,1,18,second,,,,,,,,,,,,,,,,,,,,,,,,,,,,,,,,,,,,,,,,,,,,,,,,,,,,,,,,,,,,,,,,,,,,,,,,
,,,,,,61521e250ec8fac5185bc0cd,62c53a519cc59c4ecebc80e8,2022-07-06_09h32.48.180,Colour_Asymmetry_Pilot,2022.1.3,Win32,60.06006006,62c50e9c1127f2cd403a315f,,,,,,,,,,,,,,,,,,,,twoone,,-4,0.6565,,,,,,,,,,,,,,,,,,,,,,,,,,,,,,,,,,"[0.9372,0.9450000000000001,0.8980000000000001]","[-0.6,0.16860000000000008,0.44300000000000006]",-44,86,1,0,0,response7disk,-15,-1,1,0,0,rectangle,-15,-1,1,0,0,,3,0.0018,0,-15,-1,1,0,0,0,9,9,74,1,74,first,,,,,,,,,,,,,,,,,,,,,,,,,,,,,,,,,,,,,,,,,,,,,,,,,,,,,,,,,,,,,,,,,,,,,,,,
,,,,,,61521e250ec8fac5185bc0cd,62c53a519cc59c4ecebc80e8,2022-07-06_09h32.48.180,Colour_Asymmetry_Pilot,2022.1.3,Win32,60.06006006,62c50e9c1127f2cd403a315f,,,,,,,,,,,,,,,,,,,,onethree,,-4,0.9665,,,,,,,,,,,,,,,,,,,,,,,,,,,,,,,,,,"[-0.9138,-0.5296000000000001,-0.5529999999999999]","[0.8115999999999999,-0.0040000000000000036,-0.09819999999999995]",-38,83,1,0,0,response7disk,-11,0,1,0,0,rectangle,-11,0,1,0,0,,3,0.0004,0,-11,0,1,0,0,0,10,10,108,1,27,second,,,,,,,,,,,,,,,,,,,,,,,,,,,,,,,,,,,,,,,,,,,,,,,,,,,,,,,,,,,,,,,,,,,,,,,,
,,,,,,61521e250ec8fac5185bc0cd,62c53a519cc59c4ecebc80e8,2022-07-06_09h32.48.180,Colour_Asymmetry_Pilot,2022.1.3,Win32,60.06006006,62c50e9c1127f2cd403a315f,,,,,,,,,,,,,,,,,,,,fourthree,,-4,0.8576,,,,,,,,,,,,,,,,,,,,,,,,,,,,,,,,,,"[-0.2942,-0.24719999999999998,-0.357]","[0.8115999999999999,-0.0040000000000000036,-0.09819999999999995]",-42,86,1,0,0,response7disk,-15,6,1,0,0,rectangle,-15,6,1,0,0,,2,0.0018,0,-15,6,1,0,0,0,11,11,62,1,62,first,,,,,,,,,,,,,,,,,,,,,,,,,,,,,,,,,,,,,,,,,,,,,,,,,,,,,,,,,,,,,,,,,,,,,,,,
,,,,,,61521e250ec8fac5185bc0cd,62c53a519cc59c4ecebc80e8,2022-07-06_09h32.48.180,Colour_Asymmetry_Pilot,2022.1.3,Win32,60.06006006,62c50e9c1127f2cd403a315f,,,,,,,,,,,,,,,,,,,,threeone,,-4,0.7263,,,,,,,,,,,,,,,,,,,,,,,,,,,,,,,,,,"[-0.30200000000000005,0.14500000000000002,0.2784]","[0.22340000000000004,-0.9296,-0.7884]",-51,74,1,0,0,response7disk,-6,1,1,0,0,rectangle,-6,1,1,0,0,,1,0.0016,0,-6,1,1,0,0,0,12,12,19,1,19,first,,,,,,,,,,,,,,,,,,,,,,,,,,,,,,,,,,,,,,,,,,,,,,,,,,,,,,,,,,,,,,,,,,,,,,,,
,,,,,,61521e250ec8fac5185bc0cd,62c53a519cc59c4ecebc80e8,2022-07-06_09h32.48.180,Colour_Asymmetry_Pilot,2022.1.3,Win32,60.06006006,62c50e9c1127f2cd403a315f,,,,,,,,,,,,,,,,,,,,fourthree,,-2,2.365,,,,,,,,,,,,,,,,,,,,,,,,,,,,,,,,,,"[0.9763999999999999,-0.1137999999999999,-0.6314]","[0.5528,0.7409999999999999,-0.71]",-58,-25,1,0,0,response5disk,5,2,1,0,0,rectangle,5,2,1,0,0,,1,0.0008,0,5,2,1,0,0,0,13,13,66,1,66,first,,,,,,,,,,,,,,,,,,,,,,,,,,,,,,,,,,,,,,,,,,,,,,,,,,,,,,,,,,,,,,,,,,,,,,,,
,,,,,,61521e250ec8fac5185bc0cd,62c53a519cc59c4ecebc80e8,2022-07-06_09h32.48.180,Colour_Asymmetry_Pilot,2022.1.3,Win32,60.06006006,62c50e9c1127f2cd403a315f,,,,,,,,,,,,,,,,,,,,onethree,,-4,0.8737,,,,,,,,,,,,,,,,,,,,,,,,,,,,,,,,,,"[-0.050999999999999934,-0.6706000000000001,-0.804]","[-0.48240000000000005,0.3175999999999999,0.2156]",-36,73,1,0,0,response7disk,0,2,1,0,0,rectangle,0,2,1,0,0,,3,0.0017,0,0,2,1,0,0,0,14,14,24,1,24,first,,,,,,,,,,,,,,,,,,,,,,,,,,,,,,,,,,,,,,,,,,,,,,,,,,,,,,,,,,,,,,,,,,,,,,,,
,,,,,,61521e250ec8fac5185bc0cd,62c53a519cc59c4ecebc80e8,2022-07-06_09h32.48.180,Colour_Asymmetry_Pilot,2022.1.3,Win32,60.06006006,62c50e9c1127f2cd403a315f,,,,,,,,,,,,,,,,,,,,twoone,,-4,0.8183,,,,,,,,,,,,,,,,,,,,,,,,,,,,,,,,,,"[-0.20799999999999996,-0.655,-0.01980000000000004]","[-0.45899999999999996,-0.3256,-0.9374]",-34,80,1,0,0,response7disk,1,0,1,0,0,rectangle,1,0,1,0,0,,1,0.0014,0,1,0,1,0,0,0,15,15,39,1,39,first,,,,,,,,,,,,,,,,,,,,,,,,,,,,,,,,,,,,,,,,,,,,,,,,,,,,,,,,,,,,,,,,,,,,,,,,
,,,,,,61521e250ec8fac5185bc0cd,62c53a519cc59c4ecebc80e8,2022-07-06_09h32.48.180,Colour_Asymmetry_Pilot,2022.1.3,Win32,60.06006006,62c50e9c1127f2cd403a315f,,,,,,,,,,,,,,,,,,,,twoone,,-4,0.8618,,,,,,,,,,,,,,,,,,,,,,,,,,,,,,,,,,"[-0.09019999999999995,0.44300000000000006,0.5371999999999999]","[0.9763999999999999,0.30979999999999985,-0.6786]",-25,78,1,0,0,response7disk,-1,2,1,0,0,rectangle,-1,2,1,0,0,,3,0.0024,0,-1,2,1,0,0,0,16,16,34,1,34,first,,,,,,,,,,,,,,,,,,,,,,,,,,,,,,,,,,,,,,,,,,,,,,,,,,,,,,,,,,,,,,,,,,,,,,,,
,,,,,,61521e250ec8fac5185bc0cd,62c53a519cc59c4ecebc80e8,2022-07-06_09h32.48.180,Colour_Asymmetry_Pilot,2022.1.3,Win32,60.06006006,62c50e9c1127f2cd403a315f,,,,,,,,,,,,,,,,,,,,onethree,,-4,0.9247,,,,,,,,,,,,,,,,,,,,,,,,,,,,,,,,,,"[0.9213999999999998,0.6391999999999998,-0.9922]","[-0.8118,-0.8198,-0.5452]",-44,86,1,0,0,response7disk,-20,0,1,0,0,rectangle,-20,0,1,0,0,,3,0.0004,0,-20,0,1,0,0,0,17,17,119,1,38,second,,,,,,,,,,,,,,,,,,,,,,,,,,,,,,,,,,,,,,,,,,,,,,,,,,,,,,,,,,,,,,,,,,,,,,,,
