trials.thisRepN,trials.thisTrialN,trials.thisN,trials.thisIndex,trials.ran,Colourcodes,participant,session,date,expName,psychopyVersion,OS,frameRate,study_id,trials_4.thisRepN,trials_4.thisTrialN,trials_4.thisN,trials_4.thisIndex,trials_4.ran,StimulusPos,key_resp.keys,key_resp.rt,key_resp_2.keys,key_resp_2.rt,key_resp_15.keys,key_resp_15.rt,key_resp_17.keys,key_resp_17.rt,key_resp_9.keys,key_resp_9.rt,key_resp_10.keys,key_resp_10.rt,Circle1_col,Ecc,Circle2_col,similarity,response_time,mouse_5.x,mouse_5.y,mouse_5.leftButton,mouse_5.midButton,mouse_5.rightButton,mouse_5.clicked_name,mouse_10.x,mouse_10.y,mouse_10.leftButton,mouse_10.midButton,mouse_10.rightButton,mouse_10.clicked_name,mouse_7.x,mouse_7.y,mouse_7.leftButton,mouse_7.midButton,mouse_7.rightButton,catchnumberprac,mouse_6.x,mouse_6.y,mouse_6.leftButton,mouse_6.midButton,mouse_6.rightButton,duringprac.thisRepN,duringprac.thisTrialN,duringprac.thisN,duringprac.thisIndex,duringprac.ran,mouse_7.clicked_name,catchprac,mouse_6.clicked_name,key_resp_22.keys,key_resp_22.rt,Circle1_colour,Circle2_colour,mouse.x,mouse.y,mouse.leftButton,mouse.midButton,mouse.rightButton,mouse.clicked_name,mouse_2.x,mouse_2.y,mouse_2.leftButton,mouse_2.midButton,mouse_2.rightButton,mouse_2.clicked_name,mouse_3.x,mouse_3.y,mouse_3.leftButton,mouse_3.midButton,mouse_3.rightButton,catchresponse,catchnumber,response_time_catch,Catch,mouse_11.x,mouse_11.y,mouse_11.leftButton,mouse_11.midButton,mouse_11.rightButton,trials_2.thisRepN,trials_2.thisTrialN,trials_2.thisN,trials_2.thisIndex,trials_2.ran,Colourpair,Temporder,mouse_3.clicked_name,mouse_11.clicked_name,trials_3.thisRepN,trials_3.thisTrialN,trials_3.thisN,trials_3.thisIndex,trials_3.ran,key_resp_instr_Ishi.keys,key_resp_instr_Ishi.rt,Ishi_trial_keyresp.keys,Ishi_textbox.text,Ishi_mouse.x,Ishi_mouse.y,Ishi_mouse.leftButton,Ishi_mouse.midButton,Ishi_mouse.rightButton,Ishi_mouse.clicked_name,Ishi_loop.thisRepN,Ishi_loop.thisTrialN,Ishi_loop.thisN,Ishi_loop.thisIndex,Ishi_loop.ran,imageaddress,textbox.text,mouse_4.x,mouse_4.y,mouse_4.leftButton,mouse_4.midButton,mouse_4.rightButton,mouse_4.clicked_name,textbox_2.text,mouse_8.x,mouse_8.y,mouse_8.leftButton,mouse_8.midButton,mouse_8.rightButton,mouse_8.clicked_name,textbox_3.text,mouse_9.x,mouse_9.y,mouse_9.leftButton,mouse_9.midButton,mouse_9.rightButton,mouse_9.clicked_name,textbox_4.text,mouse_12.x,mouse_12.y,mouse_12.leftButton,mouse_12.midButton,mouse_12.rightButton,mouse_12.clicked_name,textbox_5.text,mouse_13.x,mouse_13.y,mouse_13.leftButton,mouse_13.midButton,mouse_13.rightButton,mouse_13.clicked_name,textbox_6.text,mouse_14.x,mouse_14.y,mouse_14.leftButton,mouse_14.midButton,mouse_14.rightButton,mouse_14.clicked_name,textbox_7.text,mouse_15.x,mouse_15.y,mouse_15.leftButton,mouse_15.midButton,mouse_15.rightButton,mouse_15.clicked_name
0,0,0,88,1,,601a59260b84c52578005e4d,62c53a4ce5224759483cd7ff,2022-07-06_09h31.37.115,Colour_Asymmetry_Pilot,2022.1.3,Win32,60.2373351,62c50e9c1127f2cd403a315f,,,,,,,,,,,,,,,,,,,,,,,,,,,,,,,,,,,,,,,,,,,,,,,,,,,,,,,,,,,,,,,,,,,,,,,,,,,,,,,,,,,,,,,,,,,,,,,,,,,,,,,,,,,,,,,,,,,,,,,,,,,,,,,,,,,,,,,,,,,,,,,,,,,,,,,,,,,,,,,,,,,
0,1,1,35,1,,601a59260b84c52578005e4d,62c53a4ce5224759483cd7ff,2022-07-06_09h31.37.115,Colour_Asymmetry_Pilot,2022.1.3,Win32,60.2373351,62c50e9c1127f2cd403a315f,,,,,,,,,,,,,,,,,,,,,,,,,,,,,,,,,,,,,,,,,,,,,,,,,,,,,,,,,,,,,,,,,,,,,,,,,,,,,,,,,,,,,,,,,,,,,,,,,,,,,,,,,,,,,,,,,,,,,,,,,,,,,,,,,,,,,,,,,,,,,,,,,,,,,,,,,,,,,,,,,,,
0,2,2,26,1,,601a59260b84c52578005e4d,62c53a4ce5224759483cd7ff,2022-07-06_09h31.37.115,Colour_Asymmetry_Pilot,2022.1.3,Win32,60.2373351,62c50e9c1127f2cd403a315f,,,,,,,,,,,,,,,,,,,,,,,,,,,,,,,,,,,,,,,,,,,,,,,,,,,,,,,,,,,,,,,,,,,,,,,,,,,,,,,,,,,,,,,,,,,,,,,,,,,,,,,,,,,,,,,,,,,,,,,,,,,,,,,,,,,,,,,,,,,,,,,,,,,,,,,,,,,,,,,,,,,
0,3,3,13,1,,601a59260b84c52578005e4d,62c53a4ce5224759483cd7ff,2022-07-06_09h31.37.115,Colour_Asymmetry_Pilot,2022.1.3,Win32,60.2373351,62c50e9c1127f2cd403a315f,,,,,,,,,,,,,,,,,,,,,,,,,,,,,,,,,,,,,,,,,,,,,,,,,,,,,,,,,,,,,,,,,,,,,,,,,,,,,,,,,,,,,,,,,,,,,,,,,,,,,,,,,,,,,,,,,,,,,,,,,,,,,,,,,,,,,,,,,,,,,,,,,,,,,,,,,,,,,,,,,,,
0,4,4,43,1,,601a59260b84c52578005e4d,62c53a4ce5224759483cd7ff,2022-07-06_09h31.37.115,Colour_Asymmetry_Pilot,2022.1.3,Win32,60.2373351,62c50e9c1127f2cd403a315f,,,,,,,,,,,,,,,,,,,,,,,,,,,,,,,,,,,,,,,,,,,,,,,,,,,,,,,,,,,,,,,,,,,,,,,,,,,,,,,,,,,,,,,,,,,,,,,,,,,,,,,,,,,,,,,,,,,,,,,,,,,,,,,,,,,,,,,,,,,,,,,,,,,,,,,,,,,,,,,,,,,
0,5,5,69,1,,601a59260b84c52578005e4d,62c53a4ce5224759483cd7ff,2022-07-06_09h31.37.115,Colour_Asymmetry_Pilot,2022.1.3,Win32,60.2373351,62c50e9c1127f2cd403a315f,,,,,,,,,,,,,,,,,,,,,,,,,,,,,,,,,,,,,,,,,,,,,,,,,,,,,,,,,,,,,,,,,,,,,,,,,,,,,,,,,,,,,,,,,,,,,,,,,,,,,,,,,,,,,,,,,,,,,,,,,,,,,,,,,,,,,,,,,,,,,,,,,,,,,,,,,,,,,,,,,,,
0,6,6,80,1,,601a59260b84c52578005e4d,62c53a4ce5224759483cd7ff,2022-07-06_09h31.37.115,Colour_Asymmetry_Pilot,2022.1.3,Win32,60.2373351,62c50e9c1127f2cd403a315f,,,,,,,,,,,,,,,,,,,,,,,,,,,,,,,,,,,,,,,,,,,,,,,,,,,,,,,,,,,,,,,,,,,,,,,,,,,,,,,,,,,,,,,,,,,,,,,,,,,,,,,,,,,,,,,,,,,,,,,,,,,,,,,,,,,,,,,,,,,,,,,,,,,,,,,,,,,,,,,,,,,
0,7,7,71,1,,601a59260b84c52578005e4d,62c53a4ce5224759483cd7ff,2022-07-06_09h31.37.115,Colour_Asymmetry_Pilot,2022.1.3,Win32,60.2373351,62c50e9c1127f2cd403a315f,,,,,,,,,,,,,,,,,,,,,,,,,,,,,,,,,,,,,,,,,,,,,,,,,,,,,,,,,,,,,,,,,,,,,,,,,,,,,,,,,,,,,,,,,,,,,,,,,,,,,,,,,,,,,,,,,,,,,,,,,,,,,,,,,,,,,,,,,,,,,,,,,,,,,,,,,,,,,,,,,,,
0,8,8,12,1,,601a59260b84c52578005e4d,62c53a4ce5224759483cd7ff,2022-07-06_09h31.37.115,Colour_Asymmetry_Pilot,2022.1.3,Win32,60.2373351,62c50e9c1127f2cd403a315f,,,,,,,,,,,,,,,,,,,,,,,,,,,,,,,,,,,,,,,,,,,,,,,,,,,,,,,,,,,,,,,,,,,,,,,,,,,,,,,,,,,,,,,,,,,,,,,,,,,,,,,,,,,,,,,,,,,,,,,,,,,,,,,,,,,,,,,,,,,,,,,,,,,,,,,,,,,,,,,,,,,
0,9,9,42,1,,601a59260b84c52578005e4d,62c53a4ce5224759483cd7ff,2022-07-06_09h31.37.115,Colour_Asymmetry_Pilot,2022.1.3,Win32,60.2373351,62c50e9c1127f2cd403a315f,,,,,,,,,,,,,,,,,,,,,,,,,,,,,,,,,,,,,,,,,,,,,,,,,,,,,,,,,,,,,,,,,,,,,,,,,,,,,,,,,,,,,,,,,,,,,,,,,,,,,,,,,,,,,,,,,,,,,,,,,,,,,,,,,,,,,,,,,,,,,,,,,,,,,,,,,,,,,,,,,,,
0,10,10,6,1,,601a59260b84c52578005e4d,62c53a4ce5224759483cd7ff,2022-07-06_09h31.37.115,Colour_Asymmetry_Pilot,2022.1.3,Win32,60.2373351,62c50e9c1127f2cd403a315f,,,,,,,,,,,,,,,,,,,,,,,,,,,,,,,,,,,,,,,,,,,,,,,,,,,,,,,,,,,,,,,,,,,,,,,,,,,,,,,,,,,,,,,,,,,,,,,,,,,,,,,,,,,,,,,,,,,,,,,,,,,,,,,,,,,,,,,,,,,,,,,,,,,,,,,,,,,,,,,,,,,
0,11,11,47,1,,601a59260b84c52578005e4d,62c53a4ce5224759483cd7ff,2022-07-06_09h31.37.115,Colour_Asymmetry_Pilot,2022.1.3,Win32,60.2373351,62c50e9c1127f2cd403a315f,,,,,,,,,,,,,,,,,,,,,,,,,,,,,,,,,,,,,,,,,,,,,,,,,,,,,,,,,,,,,,,,,,,,,,,,,,,,,,,,,,,,,,,,,,,,,,,,,,,,,,,,,,,,,,,,,,,,,,,,,,,,,,,,,,,,,,,,,,,,,,,,,,,,,,,,,,,,,,,,,,,
0,12,12,51,1,,601a59260b84c52578005e4d,62c53a4ce5224759483cd7ff,2022-07-06_09h31.37.115,Colour_Asymmetry_Pilot,2022.1.3,Win32,60.2373351,62c50e9c1127f2cd403a315f,,,,,,,,,,,,,,,,,,,,,,,,,,,,,,,,,,,,,,,,,,,,,,,,,,,,,,,,,,,,,,,,,,,,,,,,,,,,,,,,,,,,,,,,,,,,,,,,,,,,,,,,,,,,,,,,,,,,,,,,,,,,,,,,,,,,,,,,,,,,,,,,,,,,,,,,,,,,,,,,,,,
0,13,13,72,1,,601a59260b84c52578005e4d,62c53a4ce5224759483cd7ff,2022-07-06_09h31.37.115,Colour_Asymmetry_Pilot,2022.1.3,Win32,60.2373351,62c50e9c1127f2cd403a315f,,,,,,,,,,,,,,,,,,,,,,,,,,,,,,,,,,,,,,,,,,,,,,,,,,,,,,,,,,,,,,,,,,,,,,,,,,,,,,,,,,,,,,,,,,,,,,,,,,,,,,,,,,,,,,,,,,,,,,,,,,,,,,,,,,,,,,,,,,,,,,,,,,,,,,,,,,,,,,,,,,,
0,14,14,41,1,,601a59260b84c52578005e4d,62c53a4ce5224759483cd7ff,2022-07-06_09h31.37.115,Colour_Asymmetry_Pilot,2022.1.3,Win32,60.2373351,62c50e9c1127f2cd403a315f,,,,,,,,,,,,,,,,,,,,,,,,,,,,,,,,,,,,,,,,,,,,,,,,,,,,,,,,,,,,,,,,,,,,,,,,,,,,,,,,,,,,,,,,,,,,,,,,,,,,,,,,,,,,,,,,,,,,,,,,,,,,,,,,,,,,,,,,,,,,,,,,,,,,,,,,,,,,,,,,,,,
0,15,15,86,1,,601a59260b84c52578005e4d,62c53a4ce5224759483cd7ff,2022-07-06_09h31.37.115,Colour_Asymmetry_Pilot,2022.1.3,Win32,60.2373351,62c50e9c1127f2cd403a315f,,,,,,,,,,,,,,,,,,,,,,,,,,,,,,,,,,,,,,,,,,,,,,,,,,,,,,,,,,,,,,,,,,,,,,,,,,,,,,,,,,,,,,,,,,,,,,,,,,,,,,,,,,,,,,,,,,,,,,,,,,,,,,,,,,,,,,,,,,,,,,,,,,,,,,,,,,,,,,,,,,,
0,16,16,28,1,,601a59260b84c52578005e4d,62c53a4ce5224759483cd7ff,2022-07-06_09h31.37.115,Colour_Asymmetry_Pilot,2022.1.3,Win32,60.2373351,62c50e9c1127f2cd403a315f,,,,,,,,,,,,,,,,,,,,,,,,,,,,,,,,,,,,,,,,,,,,,,,,,,,,,,,,,,,,,,,,,,,,,,,,,,,,,,,,,,,,,,,,,,,,,,,,,,,,,,,,,,,,,,,,,,,,,,,,,,,,,,,,,,,,,,,,,,,,,,,,,,,,,,,,,,,,,,,,,,,
0,17,17,15,1,,601a59260b84c52578005e4d,62c53a4ce5224759483cd7ff,2022-07-06_09h31.37.115,Colour_Asymmetry_Pilot,2022.1.3,Win32,60.2373351,62c50e9c1127f2cd403a315f,,,,,,,,,,,,,,,,,,,,,,,,,,,,,,,,,,,,,,,,,,,,,,,,,,,,,,,,,,,,,,,,,,,,,,,,,,,,,,,,,,,,,,,,,,,,,,,,,,,,,,,,,,,,,,,,,,,,,,,,,,,,,,,,,,,,,,,,,,,,,,,,,,,,,,,,,,,,,,,,,,,
0,18,18,3,1,,601a59260b84c52578005e4d,62c53a4ce5224759483cd7ff,2022-07-06_09h31.37.115,Colour_Asymmetry_Pilot,2022.1.3,Win32,60.2373351,62c50e9c1127f2cd403a315f,,,,,,,,,,,,,,,,,,,,,,,,,,,,,,,,,,,,,,,,,,,,,,,,,,,,,,,,,,,,,,,,,,,,,,,,,,,,,,,,,,,,,,,,,,,,,,,,,,,,,,,,,,,,,,,,,,,,,,,,,,,,,,,,,,,,,,,,,,,,,,,,,,,,,,,,,,,,,,,,,,,
0,19,19,79,1,,601a59260b84c52578005e4d,62c53a4ce5224759483cd7ff,2022-07-06_09h31.37.115,Colour_Asymmetry_Pilot,2022.1.3,Win32,60.2373351,62c50e9c1127f2cd403a315f,,,,,,,,,,,,,,,,,,,,,,,,,,,,,,,,,,,,,,,,,,,,,,,,,,,,,,,,,,,,,,,,,,,,,,,,,,,,,,,,,,,,,,,,,,,,,,,,,,,,,,,,,,,,,,,,,,,,,,,,,,,,,,,,,,,,,,,,,,,,,,,,,,,,,,,,,,,,,,,,,,,
0,20,20,67,1,,601a59260b84c52578005e4d,62c53a4ce5224759483cd7ff,2022-07-06_09h31.37.115,Colour_Asymmetry_Pilot,2022.1.3,Win32,60.2373351,62c50e9c1127f2cd403a315f,,,,,,,,,,,,,,,,,,,,,,,,,,,,,,,,,,,,,,,,,,,,,,,,,,,,,,,,,,,,,,,,,,,,,,,,,,,,,,,,,,,,,,,,,,,,,,,,,,,,,,,,,,,,,,,,,,,,,,,,,,,,,,,,,,,,,,,,,,,,,,,,,,,,,,,,,,,,,,,,,,,
0,21,21,37,1,,601a59260b84c52578005e4d,62c53a4ce5224759483cd7ff,2022-07-06_09h31.37.115,Colour_Asymmetry_Pilot,2022.1.3,Win32,60.2373351,62c50e9c1127f2cd403a315f,,,,,,,,,,,,,,,,,,,,,,,,,,,,,,,,,,,,,,,,,,,,,,,,,,,,,,,,,,,,,,,,,,,,,,,,,,,,,,,,,,,,,,,,,,,,,,,,,,,,,,,,,,,,,,,,,,,,,,,,,,,,,,,,,,,,,,,,,,,,,,,,,,,,,,,,,,,,,,,,,,,
0,22,22,27,1,,601a59260b84c52578005e4d,62c53a4ce5224759483cd7ff,2022-07-06_09h31.37.115,Colour_Asymmetry_Pilot,2022.1.3,Win32,60.2373351,62c50e9c1127f2cd403a315f,,,,,,,,,,,,,,,,,,,,,,,,,,,,,,,,,,,,,,,,,,,,,,,,,,,,,,,,,,,,,,,,,,,,,,,,,,,,,,,,,,,,,,,,,,,,,,,,,,,,,,,,,,,,,,,,,,,,,,,,,,,,,,,,,,,,,,,,,,,,,,,,,,,,,,,,,,,,,,,,,,,
0,23,23,48,1,,601a59260b84c52578005e4d,62c53a4ce5224759483cd7ff,2022-07-06_09h31.37.115,Colour_Asymmetry_Pilot,2022.1.3,Win32,60.2373351,62c50e9c1127f2cd403a315f,,,,,,,,,,,,,,,,,,,,,,,,,,,,,,,,,,,,,,,,,,,,,,,,,,,,,,,,,,,,,,,,,,,,,,,,,,,,,,,,,,,,,,,,,,,,,,,,,,,,,,,,,,,,,,,,,,,,,,,,,,,,,,,,,,,,,,,,,,,,,,,,,,,,,,,,,,,,,,,,,,,
0,24,24,8,1,,601a59260b84c52578005e4d,62c53a4ce5224759483cd7ff,2022-07-06_09h31.37.115,Colour_Asymmetry_Pilot,2022.1.3,Win32,60.2373351,62c50e9c1127f2cd403a315f,,,,,,,,,,,,,,,,,,,,,,,,,,,,,,,,,,,,,,,,,,,,,,,,,,,,,,,,,,,,,,,,,,,,,,,,,,,,,,,,,,,,,,,,,,,,,,,,,,,,,,,,,,,,,,,,,,,,,,,,,,,,,,,,,,,,,,,,,,,,,,,,,,,,,,,,,,,,,,,,,,,
0,25,25,14,1,,601a59260b84c52578005e4d,62c53a4ce5224759483cd7ff,2022-07-06_09h31.37.115,Colour_Asymmetry_Pilot,2022.1.3,Win32,60.2373351,62c50e9c1127f2cd403a315f,,,,,,,,,,,,,,,,,,,,,,,,,,,,,,,,,,,,,,,,,,,,,,,,,,,,,,,,,,,,,,,,,,,,,,,,,,,,,,,,,,,,,,,,,,,,,,,,,,,,,,,,,,,,,,,,,,,,,,,,,,,,,,,,,,,,,,,,,,,,,,,,,,,,,,,,,,,,,,,,,,,
0,26,26,29,1,,601a59260b84c52578005e4d,62c53a4ce5224759483cd7ff,2022-07-06_09h31.37.115,Colour_Asymmetry_Pilot,2022.1.3,Win32,60.2373351,62c50e9c1127f2cd403a315f,,,,,,,,,,,,,,,,,,,,,,,,,,,,,,,,,,,,,,,,,,,,,,,,,,,,,,,,,,,,,,,,,,,,,,,,,,,,,,,,,,,,,,,,,,,,,,,,,,,,,,,,,,,,,,,,,,,,,,,,,,,,,,,,,,,,,,,,,,,,,,,,,,,,,,,,,,,,,,,,,,,
0,27,27,65,1,,601a59260b84c52578005e4d,62c53a4ce5224759483cd7ff,2022-07-06_09h31.37.115,Colour_Asymmetry_Pilot,2022.1.3,Win32,60.2373351,62c50e9c1127f2cd403a315f,,,,,,,,,,,,,,,,,,,,,,,,,,,,,,,,,,,,,,,,,,,,,,,,,,,,,,,,,,,,,,,,,,,,,,,,,,,,,,,,,,,,,,,,,,,,,,,,,,,,,,,,,,,,,,,,,,,,,,,,,,,,,,,,,,,,,,,,,,,,,,,,,,,,,,,,,,,,,,,,,,,
0,28,28,75,1,,601a59260b84c52578005e4d,62c53a4ce5224759483cd7ff,2022-07-06_09h31.37.115,Colour_Asymmetry_Pilot,2022.1.3,Win32,60.2373351,62c50e9c1127f2cd403a315f,,,,,,,,,,,,,,,,,,,,,,,,,,,,,,,,,,,,,,,,,,,,,,,,,,,,,,,,,,,,,,,,,,,,,,,,,,,,,,,,,,,,,,,,,,,,,,,,,,,,,,,,,,,,,,,,,,,,,,,,,,,,,,,,,,,,,,,,,,,,,,,,,,,,,,,,,,,,,,,,,,,
0,29,29,70,1,,601a59260b84c52578005e4d,62c53a4ce5224759483cd7ff,2022-07-06_09h31.37.115,Colour_Asymmetry_Pilot,2022.1.3,Win32,60.2373351,62c50e9c1127f2cd403a315f,,,,,,,,,,,,,,,,,,,,,,,,,,,,,,,,,,,,,,,,,,,,,,,,,,,,,,,,,,,,,,,,,,,,,,,,,,,,,,,,,,,,,,,,,,,,,,,,,,,,,,,,,,,,,,,,,,,,,,,,,,,,,,,,,,,,,,,,,,,,,,,,,,,,,,,,,,,,,,,,,,,
0,30,30,57,1,,601a59260b84c52578005e4d,62c53a4ce5224759483cd7ff,2022-07-06_09h31.37.115,Colour_Asymmetry_Pilot,2022.1.3,Win32,60.2373351,62c50e9c1127f2cd403a315f,,,,,,,,,,,,,,,,,,,,,,,,,,,,,,,,,,,,,,,,,,,,,,,,,,,,,,,,,,,,,,,,,,,,,,,,,,,,,,,,,,,,,,,,,,,,,,,,,,,,,,,,,,,,,,,,,,,,,,,,,,,,,,,,,,,,,,,,,,,,,,,,,,,,,,,,,,,,,,,,,,,
0,31,31,40,1,,601a59260b84c52578005e4d,62c53a4ce5224759483cd7ff,2022-07-06_09h31.37.115,Colour_Asymmetry_Pilot,2022.1.3,Win32,60.2373351,62c50e9c1127f2cd403a315f,,,,,,,,,,,,,,,,,,,,,,,,,,,,,,,,,,,,,,,,,,,,,,,,,,,,,,,,,,,,,,,,,,,,,,,,,,,,,,,,,,,,,,,,,,,,,,,,,,,,,,,,,,,,,,,,,,,,,,,,,,,,,,,,,,,,,,,,,,,,,,,,,,,,,,,,,,,,,,,,,,,
0,32,32,7,1,,601a59260b84c52578005e4d,62c53a4ce5224759483cd7ff,2022-07-06_09h31.37.115,Colour_Asymmetry_Pilot,2022.1.3,Win32,60.2373351,62c50e9c1127f2cd403a315f,,,,,,,,,,,,,,,,,,,,,,,,,,,,,,,,,,,,,,,,,,,,,,,,,,,,,,,,,,,,,,,,,,,,,,,,,,,,,,,,,,,,,,,,,,,,,,,,,,,,,,,,,,,,,,,,,,,,,,,,,,,,,,,,,,,,,,,,,,,,,,,,,,,,,,,,,,,,,,,,,,,
0,33,33,38,1,,601a59260b84c52578005e4d,62c53a4ce5224759483cd7ff,2022-07-06_09h31.37.115,Colour_Asymmetry_Pilot,2022.1.3,Win32,60.2373351,62c50e9c1127f2cd403a315f,,,,,,,,,,,,,,,,,,,,,,,,,,,,,,,,,,,,,,,,,,,,,,,,,,,,,,,,,,,,,,,,,,,,,,,,,,,,,,,,,,,,,,,,,,,,,,,,,,,,,,,,,,,,,,,,,,,,,,,,,,,,,,,,,,,,,,,,,,,,,,,,,,,,,,,,,,,,,,,,,,,
0,34,34,85,1,,601a59260b84c52578005e4d,62c53a4ce5224759483cd7ff,2022-07-06_09h31.37.115,Colour_Asymmetry_Pilot,2022.1.3,Win32,60.2373351,62c50e9c1127f2cd403a315f,,,,,,,,,,,,,,,,,,,,,,,,,,,,,,,,,,,,,,,,,,,,,,,,,,,,,,,,,,,,,,,,,,,,,,,,,,,,,,,,,,,,,,,,,,,,,,,,,,,,,,,,,,,,,,,,,,,,,,,,,,,,,,,,,,,,,,,,,,,,,,,,,,,,,,,,,,,,,,,,,,,
0,35,35,63,1,,601a59260b84c52578005e4d,62c53a4ce5224759483cd7ff,2022-07-06_09h31.37.115,Colour_Asymmetry_Pilot,2022.1.3,Win32,60.2373351,62c50e9c1127f2cd403a315f,,,,,,,,,,,,,,,,,,,,,,,,,,,,,,,,,,,,,,,,,,,,,,,,,,,,,,,,,,,,,,,,,,,,,,,,,,,,,,,,,,,,,,,,,,,,,,,,,,,,,,,,,,,,,,,,,,,,,,,,,,,,,,,,,,,,,,,,,,,,,,,,,,,,,,,,,,,,,,,,,,,
0,36,36,16,1,,601a59260b84c52578005e4d,62c53a4ce5224759483cd7ff,2022-07-06_09h31.37.115,Colour_Asymmetry_Pilot,2022.1.3,Win32,60.2373351,62c50e9c1127f2cd403a315f,,,,,,,,,,,,,,,,,,,,,,,,,,,,,,,,,,,,,,,,,,,,,,,,,,,,,,,,,,,,,,,,,,,,,,,,,,,,,,,,,,,,,,,,,,,,,,,,,,,,,,,,,,,,,,,,,,,,,,,,,,,,,,,,,,,,,,,,,,,,,,,,,,,,,,,,,,,,,,,,,,,
0,37,37,31,1,,601a59260b84c52578005e4d,62c53a4ce5224759483cd7ff,2022-07-06_09h31.37.115,Colour_Asymmetry_Pilot,2022.1.3,Win32,60.2373351,62c50e9c1127f2cd403a315f,,,,,,,,,,,,,,,,,,,,,,,,,,,,,,,,,,,,,,,,,,,,,,,,,,,,,,,,,,,,,,,,,,,,,,,,,,,,,,,,,,,,,,,,,,,,,,,,,,,,,,,,,,,,,,,,,,,,,,,,,,,,,,,,,,,,,,,,,,,,,,,,,,,,,,,,,,,,,,,,,,,
0,38,38,92,1,,601a59260b84c52578005e4d,62c53a4ce5224759483cd7ff,2022-07-06_09h31.37.115,Colour_Asymmetry_Pilot,2022.1.3,Win32,60.2373351,62c50e9c1127f2cd403a315f,,,,,,,,,,,,,,,,,,,,,,,,,,,,,,,,,,,,,,,,,,,,,,,,,,,,,,,,,,,,,,,,,,,,,,,,,,,,,,,,,,,,,,,,,,,,,,,,,,,,,,,,,,,,,,,,,,,,,,,,,,,,,,,,,,,,,,,,,,,,,,,,,,,,,,,,,,,,,,,,,,,
0,39,39,4,1,,601a59260b84c52578005e4d,62c53a4ce5224759483cd7ff,2022-07-06_09h31.37.115,Colour_Asymmetry_Pilot,2022.1.3,Win32,60.2373351,62c50e9c1127f2cd403a315f,,,,,,,,,,,,,,,,,,,,,,,,,,,,,,,,,,,,,,,,,,,,,,,,,,,,,,,,,,,,,,,,,,,,,,,,,,,,,,,,,,,,,,,,,,,,,,,,,,,,,,,,,,,,,,,,,,,,,,,,,,,,,,,,,,,,,,,,,,,,,,,,,,,,,,,,,,,,,,,,,,,
0,40,40,91,1,,601a59260b84c52578005e4d,62c53a4ce5224759483cd7ff,2022-07-06_09h31.37.115,Colour_Asymmetry_Pilot,2022.1.3,Win32,60.2373351,62c50e9c1127f2cd403a315f,,,,,,,,,,,,,,,,,,,,,,,,,,,,,,,,,,,,,,,,,,,,,,,,,,,,,,,,,,,,,,,,,,,,,,,,,,,,,,,,,,,,,,,,,,,,,,,,,,,,,,,,,,,,,,,,,,,,,,,,,,,,,,,,,,,,,,,,,,,,,,,,,,,,,,,,,,,,,,,,,,,
0,41,41,45,1,,601a59260b84c52578005e4d,62c53a4ce5224759483cd7ff,2022-07-06_09h31.37.115,Colour_Asymmetry_Pilot,2022.1.3,Win32,60.2373351,62c50e9c1127f2cd403a315f,,,,,,,,,,,,,,,,,,,,,,,,,,,,,,,,,,,,,,,,,,,,,,,,,,,,,,,,,,,,,,,,,,,,,,,,,,,,,,,,,,,,,,,,,,,,,,,,,,,,,,,,,,,,,,,,,,,,,,,,,,,,,,,,,,,,,,,,,,,,,,,,,,,,,,,,,,,,,,,,,,,
0,42,42,68,1,,601a59260b84c52578005e4d,62c53a4ce5224759483cd7ff,2022-07-06_09h31.37.115,Colour_Asymmetry_Pilot,2022.1.3,Win32,60.2373351,62c50e9c1127f2cd403a315f,,,,,,,,,,,,,,,,,,,,,,,,,,,,,,,,,,,,,,,,,,,,,,,,,,,,,,,,,,,,,,,,,,,,,,,,,,,,,,,,,,,,,,,,,,,,,,,,,,,,,,,,,,,,,,,,,,,,,,,,,,,,,,,,,,,,,,,,,,,,,,,,,,,,,,,,,,,,,,,,,,,
0,43,43,23,1,,601a59260b84c52578005e4d,62c53a4ce5224759483cd7ff,2022-07-06_09h31.37.115,Colour_Asymmetry_Pilot,2022.1.3,Win32,60.2373351,62c50e9c1127f2cd403a315f,,,,,,,,,,,,,,,,,,,,,,,,,,,,,,,,,,,,,,,,,,,,,,,,,,,,,,,,,,,,,,,,,,,,,,,,,,,,,,,,,,,,,,,,,,,,,,,,,,,,,,,,,,,,,,,,,,,,,,,,,,,,,,,,,,,,,,,,,,,,,,,,,,,,,,,,,,,,,,,,,,,
0,44,44,11,1,,601a59260b84c52578005e4d,62c53a4ce5224759483cd7ff,2022-07-06_09h31.37.115,Colour_Asymmetry_Pilot,2022.1.3,Win32,60.2373351,62c50e9c1127f2cd403a315f,,,,,,,,,,,,,,,,,,,,,,,,,,,,,,,,,,,,,,,,,,,,,,,,,,,,,,,,,,,,,,,,,,,,,,,,,,,,,,,,,,,,,,,,,,,,,,,,,,,,,,,,,,,,,,,,,,,,,,,,,,,,,,,,,,,,,,,,,,,,,,,,,,,,,,,,,,,,,,,,,,,
0,45,45,55,1,,601a59260b84c52578005e4d,62c53a4ce5224759483cd7ff,2022-07-06_09h31.37.115,Colour_Asymmetry_Pilot,2022.1.3,Win32,60.2373351,62c50e9c1127f2cd403a315f,,,,,,,,,,,,,,,,,,,,,,,,,,,,,,,,,,,,,,,,,,,,,,,,,,,,,,,,,,,,,,,,,,,,,,,,,,,,,,,,,,,,,,,,,,,,,,,,,,,,,,,,,,,,,,,,,,,,,,,,,,,,,,,,,,,,,,,,,,,,,,,,,,,,,,,,,,,,,,,,,,,
0,46,46,84,1,,601a59260b84c52578005e4d,62c53a4ce5224759483cd7ff,2022-07-06_09h31.37.115,Colour_Asymmetry_Pilot,2022.1.3,Win32,60.2373351,62c50e9c1127f2cd403a315f,,,,,,,,,,,,,,,,,,,,,,,,,,,,,,,,,,,,,,,,,,,,,,,,,,,,,,,,,,,,,,,,,,,,,,,,,,,,,,,,,,,,,,,,,,,,,,,,,,,,,,,,,,,,,,,,,,,,,,,,,,,,,,,,,,,,,,,,,,,,,,,,,,,,,,,,,,,,,,,,,,,
0,47,47,19,1,,601a59260b84c52578005e4d,62c53a4ce5224759483cd7ff,2022-07-06_09h31.37.115,Colour_Asymmetry_Pilot,2022.1.3,Win32,60.2373351,62c50e9c1127f2cd403a315f,,,,,,,,,,,,,,,,,,,,,,,,,,,,,,,,,,,,,,,,,,,,,,,,,,,,,,,,,,,,,,,,,,,,,,,,,,,,,,,,,,,,,,,,,,,,,,,,,,,,,,,,,,,,,,,,,,,,,,,,,,,,,,,,,,,,,,,,,,,,,,,,,,,,,,,,,,,,,,,,,,,
0,48,48,53,1,,601a59260b84c52578005e4d,62c53a4ce5224759483cd7ff,2022-07-06_09h31.37.115,Colour_Asymmetry_Pilot,2022.1.3,Win32,60.2373351,62c50e9c1127f2cd403a315f,,,,,,,,,,,,,,,,,,,,,,,,,,,,,,,,,,,,,,,,,,,,,,,,,,,,,,,,,,,,,,,,,,,,,,,,,,,,,,,,,,,,,,,,,,,,,,,,,,,,,,,,,,,,,,,,,,,,,,,,,,,,,,,,,,,,,,,,,,,,,,,,,,,,,,,,,,,,,,,,,,,
0,49,49,10,1,,601a59260b84c52578005e4d,62c53a4ce5224759483cd7ff,2022-07-06_09h31.37.115,Colour_Asymmetry_Pilot,2022.1.3,Win32,60.2373351,62c50e9c1127f2cd403a315f,,,,,,,,,,,,,,,,,,,,,,,,,,,,,,,,,,,,,,,,,,,,,,,,,,,,,,,,,,,,,,,,,,,,,,,,,,,,,,,,,,,,,,,,,,,,,,,,,,,,,,,,,,,,,,,,,,,,,,,,,,,,,,,,,,,,,,,,,,,,,,,,,,,,,,,,,,,,,,,,,,,
0,50,50,76,1,,601a59260b84c52578005e4d,62c53a4ce5224759483cd7ff,2022-07-06_09h31.37.115,Colour_Asymmetry_Pilot,2022.1.3,Win32,60.2373351,62c50e9c1127f2cd403a315f,,,,,,,,,,,,,,,,,,,,,,,,,,,,,,,,,,,,,,,,,,,,,,,,,,,,,,,,,,,,,,,,,,,,,,,,,,,,,,,,,,,,,,,,,,,,,,,,,,,,,,,,,,,,,,,,,,,,,,,,,,,,,,,,,,,,,,,,,,,,,,,,,,,,,,,,,,,,,,,,,,,
0,51,51,73,1,,601a59260b84c52578005e4d,62c53a4ce5224759483cd7ff,2022-07-06_09h31.37.115,Colour_Asymmetry_Pilot,2022.1.3,Win32,60.2373351,62c50e9c1127f2cd403a315f,,,,,,,,,,,,,,,,,,,,,,,,,,,,,,,,,,,,,,,,,,,,,,,,,,,,,,,,,,,,,,,,,,,,,,,,,,,,,,,,,,,,,,,,,,,,,,,,,,,,,,,,,,,,,,,,,,,,,,,,,,,,,,,,,,,,,,,,,,,,,,,,,,,,,,,,,,,,,,,,,,,
0,52,52,32,1,,601a59260b84c52578005e4d,62c53a4ce5224759483cd7ff,2022-07-06_09h31.37.115,Colour_Asymmetry_Pilot,2022.1.3,Win32,60.2373351,62c50e9c1127f2cd403a315f,,,,,,,,,,,,,,,,,,,,,,,,,,,,,,,,,,,,,,,,,,,,,,,,,,,,,,,,,,,,,,,,,,,,,,,,,,,,,,,,,,,,,,,,,,,,,,,,,,,,,,,,,,,,,,,,,,,,,,,,,,,,,,,,,,,,,,,,,,,,,,,,,,,,,,,,,,,,,,,,,,,
0,53,53,20,1,,601a59260b84c52578005e4d,62c53a4ce5224759483cd7ff,2022-07-06_09h31.37.115,Colour_Asymmetry_Pilot,2022.1.3,Win32,60.2373351,62c50e9c1127f2cd403a315f,,,,,,,,,,,,,,,,,,,,,,,,,,,,,,,,,,,,,,,,,,,,,,,,,,,,,,,,,,,,,,,,,,,,,,,,,,,,,,,,,,,,,,,,,,,,,,,,,,,,,,,,,,,,,,,,,,,,,,,,,,,,,,,,,,,,,,,,,,,,,,,,,,,,,,,,,,,,,,,,,,,
0,54,54,64,1,,601a59260b84c52578005e4d,62c53a4ce5224759483cd7ff,2022-07-06_09h31.37.115,Colour_Asymmetry_Pilot,2022.1.3,Win32,60.2373351,62c50e9c1127f2cd403a315f,,,,,,,,,,,,,,,,,,,,,,,,,,,,,,,,,,,,,,,,,,,,,,,,,,,,,,,,,,,,,,,,,,,,,,,,,,,,,,,,,,,,,,,,,,,,,,,,,,,,,,,,,,,,,,,,,,,,,,,,,,,,,,,,,,,,,,,,,,,,,,,,,,,,,,,,,,,,,,,,,,,
0,55,55,62,1,,601a59260b84c52578005e4d,62c53a4ce5224759483cd7ff,2022-07-06_09h31.37.115,Colour_Asymmetry_Pilot,2022.1.3,Win32,60.2373351,62c50e9c1127f2cd403a315f,,,,,,,,,,,,,,,,,,,,,,,,,,,,,,,,,,,,,,,,,,,,,,,,,,,,,,,,,,,,,,,,,,,,,,,,,,,,,,,,,,,,,,,,,,,,,,,,,,,,,,,,,,,,,,,,,,,,,,,,,,,,,,,,,,,,,,,,,,,,,,,,,,,,,,,,,,,,,,,,,,,
0,56,56,52,1,,601a59260b84c52578005e4d,62c53a4ce5224759483cd7ff,2022-07-06_09h31.37.115,Colour_Asymmetry_Pilot,2022.1.3,Win32,60.2373351,62c50e9c1127f2cd403a315f,,,,,,,,,,,,,,,,,,,,,,,,,,,,,,,,,,,,,,,,,,,,,,,,,,,,,,,,,,,,,,,,,,,,,,,,,,,,,,,,,,,,,,,,,,,,,,,,,,,,,,,,,,,,,,,,,,,,,,,,,,,,,,,,,,,,,,,,,,,,,,,,,,,,,,,,,,,,,,,,,,,
0,57,57,50,1,,601a59260b84c52578005e4d,62c53a4ce5224759483cd7ff,2022-07-06_09h31.37.115,Colour_Asymmetry_Pilot,2022.1.3,Win32,60.2373351,62c50e9c1127f2cd403a315f,,,,,,,,,,,,,,,,,,,,,,,,,,,,,,,,,,,,,,,,,,,,,,,,,,,,,,,,,,,,,,,,,,,,,,,,,,,,,,,,,,,,,,,,,,,,,,,,,,,,,,,,,,,,,,,,,,,,,,,,,,,,,,,,,,,,,,,,,,,,,,,,,,,,,,,,,,,,,,,,,,,
0,58,58,30,1,,601a59260b84c52578005e4d,62c53a4ce5224759483cd7ff,2022-07-06_09h31.37.115,Colour_Asymmetry_Pilot,2022.1.3,Win32,60.2373351,62c50e9c1127f2cd403a315f,,,,,,,,,,,,,,,,,,,,,,,,,,,,,,,,,,,,,,,,,,,,,,,,,,,,,,,,,,,,,,,,,,,,,,,,,,,,,,,,,,,,,,,,,,,,,,,,,,,,,,,,,,,,,,,,,,,,,,,,,,,,,,,,,,,,,,,,,,,,,,,,,,,,,,,,,,,,,,,,,,,
0,59,59,1,1,,601a59260b84c52578005e4d,62c53a4ce5224759483cd7ff,2022-07-06_09h31.37.115,Colour_Asymmetry_Pilot,2022.1.3,Win32,60.2373351,62c50e9c1127f2cd403a315f,,,,,,,,,,,,,,,,,,,,,,,,,,,,,,,,,,,,,,,,,,,,,,,,,,,,,,,,,,,,,,,,,,,,,,,,,,,,,,,,,,,,,,,,,,,,,,,,,,,,,,,,,,,,,,,,,,,,,,,,,,,,,,,,,,,,,,,,,,,,,,,,,,,,,,,,,,,,,,,,,,,
0,60,60,49,1,,601a59260b84c52578005e4d,62c53a4ce5224759483cd7ff,2022-07-06_09h31.37.115,Colour_Asymmetry_Pilot,2022.1.3,Win32,60.2373351,62c50e9c1127f2cd403a315f,,,,,,,,,,,,,,,,,,,,,,,,,,,,,,,,,,,,,,,,,,,,,,,,,,,,,,,,,,,,,,,,,,,,,,,,,,,,,,,,,,,,,,,,,,,,,,,,,,,,,,,,,,,,,,,,,,,,,,,,,,,,,,,,,,,,,,,,,,,,,,,,,,,,,,,,,,,,,,,,,,,
0,61,61,36,1,,601a59260b84c52578005e4d,62c53a4ce5224759483cd7ff,2022-07-06_09h31.37.115,Colour_Asymmetry_Pilot,2022.1.3,Win32,60.2373351,62c50e9c1127f2cd403a315f,,,,,,,,,,,,,,,,,,,,,,,,,,,,,,,,,,,,,,,,,,,,,,,,,,,,,,,,,,,,,,,,,,,,,,,,,,,,,,,,,,,,,,,,,,,,,,,,,,,,,,,,,,,,,,,,,,,,,,,,,,,,,,,,,,,,,,,,,,,,,,,,,,,,,,,,,,,,,,,,,,,
0,62,62,21,1,,601a59260b84c52578005e4d,62c53a4ce5224759483cd7ff,2022-07-06_09h31.37.115,Colour_Asymmetry_Pilot,2022.1.3,Win32,60.2373351,62c50e9c1127f2cd403a315f,,,,,,,,,,,,,,,,,,,,,,,,,,,,,,,,,,,,,,,,,,,,,,,,,,,,,,,,,,,,,,,,,,,,,,,,,,,,,,,,,,,,,,,,,,,,,,,,,,,,,,,,,,,,,,,,,,,,,,,,,,,,,,,,,,,,,,,,,,,,,,,,,,,,,,,,,,,,,,,,,,,
0,63,63,59,1,,601a59260b84c52578005e4d,62c53a4ce5224759483cd7ff,2022-07-06_09h31.37.115,Colour_Asymmetry_Pilot,2022.1.3,Win32,60.2373351,62c50e9c1127f2cd403a315f,,,,,,,,,,,,,,,,,,,,,,,,,,,,,,,,,,,,,,,,,,,,,,,,,,,,,,,,,,,,,,,,,,,,,,,,,,,,,,,,,,,,,,,,,,,,,,,,,,,,,,,,,,,,,,,,,,,,,,,,,,,,,,,,,,,,,,,,,,,,,,,,,,,,,,,,,,,,,,,,,,,
0,64,64,82,1,,601a59260b84c52578005e4d,62c53a4ce5224759483cd7ff,2022-07-06_09h31.37.115,Colour_Asymmetry_Pilot,2022.1.3,Win32,60.2373351,62c50e9c1127f2cd403a315f,,,,,,,,,,,,,,,,,,,,,,,,,,,,,,,,,,,,,,,,,,,,,,,,,,,,,,,,,,,,,,,,,,,,,,,,,,,,,,,,,,,,,,,,,,,,,,,,,,,,,,,,,,,,,,,,,,,,,,,,,,,,,,,,,,,,,,,,,,,,,,,,,,,,,,,,,,,,,,,,,,,
0,65,65,60,1,,601a59260b84c52578005e4d,62c53a4ce5224759483cd7ff,2022-07-06_09h31.37.115,Colour_Asymmetry_Pilot,2022.1.3,Win32,60.2373351,62c50e9c1127f2cd403a315f,,,,,,,,,,,,,,,,,,,,,,,,,,,,,,,,,,,,,,,,,,,,,,,,,,,,,,,,,,,,,,,,,,,,,,,,,,,,,,,,,,,,,,,,,,,,,,,,,,,,,,,,,,,,,,,,,,,,,,,,,,,,,,,,,,,,,,,,,,,,,,,,,,,,,,,,,,,,,,,,,,,
0,66,66,89,1,,601a59260b84c52578005e4d,62c53a4ce5224759483cd7ff,2022-07-06_09h31.37.115,Colour_Asymmetry_Pilot,2022.1.3,Win32,60.2373351,62c50e9c1127f2cd403a315f,,,,,,,,,,,,,,,,,,,,,,,,,,,,,,,,,,,,,,,,,,,,,,,,,,,,,,,,,,,,,,,,,,,,,,,,,,,,,,,,,,,,,,,,,,,,,,,,,,,,,,,,,,,,,,,,,,,,,,,,,,,,,,,,,,,,,,,,,,,,,,,,,,,,,,,,,,,,,,,,,,,
0,67,67,25,1,,601a59260b84c52578005e4d,62c53a4ce5224759483cd7ff,2022-07-06_09h31.37.115,Colour_Asymmetry_Pilot,2022.1.3,Win32,60.2373351,62c50e9c1127f2cd403a315f,,,,,,,,,,,,,,,,,,,,,,,,,,,,,,,,,,,,,,,,,,,,,,,,,,,,,,,,,,,,,,,,,,,,,,,,,,,,,,,,,,,,,,,,,,,,,,,,,,,,,,,,,,,,,,,,,,,,,,,,,,,,,,,,,,,,,,,,,,,,,,,,,,,,,,,,,,,,,,,,,,,
0,68,68,56,1,,601a59260b84c52578005e4d,62c53a4ce5224759483cd7ff,2022-07-06_09h31.37.115,Colour_Asymmetry_Pilot,2022.1.3,Win32,60.2373351,62c50e9c1127f2cd403a315f,,,,,,,,,,,,,,,,,,,,,,,,,,,,,,,,,,,,,,,,,,,,,,,,,,,,,,,,,,,,,,,,,,,,,,,,,,,,,,,,,,,,,,,,,,,,,,,,,,,,,,,,,,,,,,,,,,,,,,,,,,,,,,,,,,,,,,,,,,,,,,,,,,,,,,,,,,,,,,,,,,,
0,69,69,90,1,,601a59260b84c52578005e4d,62c53a4ce5224759483cd7ff,2022-07-06_09h31.37.115,Colour_Asymmetry_Pilot,2022.1.3,Win32,60.2373351,62c50e9c1127f2cd403a315f,,,,,,,,,,,,,,,,,,,,,,,,,,,,,,,,,,,,,,,,,,,,,,,,,,,,,,,,,,,,,,,,,,,,,,,,,,,,,,,,,,,,,,,,,,,,,,,,,,,,,,,,,,,,,,,,,,,,,,,,,,,,,,,,,,,,,,,,,,,,,,,,,,,,,,,,,,,,,,,,,,,
0,70,70,66,1,,601a59260b84c52578005e4d,62c53a4ce5224759483cd7ff,2022-07-06_09h31.37.115,Colour_Asymmetry_Pilot,2022.1.3,Win32,60.2373351,62c50e9c1127f2cd403a315f,,,,,,,,,,,,,,,,,,,,,,,,,,,,,,,,,,,,,,,,,,,,,,,,,,,,,,,,,,,,,,,,,,,,,,,,,,,,,,,,,,,,,,,,,,,,,,,,,,,,,,,,,,,,,,,,,,,,,,,,,,,,,,,,,,,,,,,,,,,,,,,,,,,,,,,,,,,,,,,,,,,
0,71,71,78,1,,601a59260b84c52578005e4d,62c53a4ce5224759483cd7ff,2022-07-06_09h31.37.115,Colour_Asymmetry_Pilot,2022.1.3,Win32,60.2373351,62c50e9c1127f2cd403a315f,,,,,,,,,,,,,,,,,,,,,,,,,,,,,,,,,,,,,,,,,,,,,,,,,,,,,,,,,,,,,,,,,,,,,,,,,,,,,,,,,,,,,,,,,,,,,,,,,,,,,,,,,,,,,,,,,,,,,,,,,,,,,,,,,,,,,,,,,,,,,,,,,,,,,,,,,,,,,,,,,,,
0,72,72,33,1,,601a59260b84c52578005e4d,62c53a4ce5224759483cd7ff,2022-07-06_09h31.37.115,Colour_Asymmetry_Pilot,2022.1.3,Win32,60.2373351,62c50e9c1127f2cd403a315f,,,,,,,,,,,,,,,,,,,,,,,,,,,,,,,,,,,,,,,,,,,,,,,,,,,,,,,,,,,,,,,,,,,,,,,,,,,,,,,,,,,,,,,,,,,,,,,,,,,,,,,,,,,,,,,,,,,,,,,,,,,,,,,,,,,,,,,,,,,,,,,,,,,,,,,,,,,,,,,,,,,
0,73,73,81,1,,601a59260b84c52578005e4d,62c53a4ce5224759483cd7ff,2022-07-06_09h31.37.115,Colour_Asymmetry_Pilot,2022.1.3,Win32,60.2373351,62c50e9c1127f2cd403a315f,,,,,,,,,,,,,,,,,,,,,,,,,,,,,,,,,,,,,,,,,,,,,,,,,,,,,,,,,,,,,,,,,,,,,,,,,,,,,,,,,,,,,,,,,,,,,,,,,,,,,,,,,,,,,,,,,,,,,,,,,,,,,,,,,,,,,,,,,,,,,,,,,,,,,,,,,,,,,,,,,,,
0,74,74,39,1,,601a59260b84c52578005e4d,62c53a4ce5224759483cd7ff,2022-07-06_09h31.37.115,Colour_Asymmetry_Pilot,2022.1.3,Win32,60.2373351,62c50e9c1127f2cd403a315f,,,,,,,,,,,,,,,,,,,,,,,,,,,,,,,,,,,,,,,,,,,,,,,,,,,,,,,,,,,,,,,,,,,,,,,,,,,,,,,,,,,,,,,,,,,,,,,,,,,,,,,,,,,,,,,,,,,,,,,,,,,,,,,,,,,,,,,,,,,,,,,,,,,,,,,,,,,,,,,,,,,
0,75,75,2,1,,601a59260b84c52578005e4d,62c53a4ce5224759483cd7ff,2022-07-06_09h31.37.115,Colour_Asymmetry_Pilot,2022.1.3,Win32,60.2373351,62c50e9c1127f2cd403a315f,,,,,,,,,,,,,,,,,,,,,,,,,,,,,,,,,,,,,,,,,,,,,,,,,,,,,,,,,,,,,,,,,,,,,,,,,,,,,,,,,,,,,,,,,,,,,,,,,,,,,,,,,,,,,,,,,,,,,,,,,,,,,,,,,,,,,,,,,,,,,,,,,,,,,,,,,,,,,,,,,,,
0,76,76,22,1,,601a59260b84c52578005e4d,62c53a4ce5224759483cd7ff,2022-07-06_09h31.37.115,Colour_Asymmetry_Pilot,2022.1.3,Win32,60.2373351,62c50e9c1127f2cd403a315f,,,,,,,,,,,,,,,,,,,,,,,,,,,,,,,,,,,,,,,,,,,,,,,,,,,,,,,,,,,,,,,,,,,,,,,,,,,,,,,,,,,,,,,,,,,,,,,,,,,,,,,,,,,,,,,,,,,,,,,,,,,,,,,,,,,,,,,,,,,,,,,,,,,,,,,,,,,,,,,,,,,
0,77,77,61,1,,601a59260b84c52578005e4d,62c53a4ce5224759483cd7ff,2022-07-06_09h31.37.115,Colour_Asymmetry_Pilot,2022.1.3,Win32,60.2373351,62c50e9c1127f2cd403a315f,,,,,,,,,,,,,,,,,,,,,,,,,,,,,,,,,,,,,,,,,,,,,,,,,,,,,,,,,,,,,,,,,,,,,,,,,,,,,,,,,,,,,,,,,,,,,,,,,,,,,,,,,,,,,,,,,,,,,,,,,,,,,,,,,,,,,,,,,,,,,,,,,,,,,,,,,,,,,,,,,,,
0,78,78,5,1,,601a59260b84c52578005e4d,62c53a4ce5224759483cd7ff,2022-07-06_09h31.37.115,Colour_Asymmetry_Pilot,2022.1.3,Win32,60.2373351,62c50e9c1127f2cd403a315f,,,,,,,,,,,,,,,,,,,,,,,,,,,,,,,,,,,,,,,,,,,,,,,,,,,,,,,,,,,,,,,,,,,,,,,,,,,,,,,,,,,,,,,,,,,,,,,,,,,,,,,,,,,,,,,,,,,,,,,,,,,,,,,,,,,,,,,,,,,,,,,,,,,,,,,,,,,,,,,,,,,
0,79,79,74,1,,601a59260b84c52578005e4d,62c53a4ce5224759483cd7ff,2022-07-06_09h31.37.115,Colour_Asymmetry_Pilot,2022.1.3,Win32,60.2373351,62c50e9c1127f2cd403a315f,,,,,,,,,,,,,,,,,,,,,,,,,,,,,,,,,,,,,,,,,,,,,,,,,,,,,,,,,,,,,,,,,,,,,,,,,,,,,,,,,,,,,,,,,,,,,,,,,,,,,,,,,,,,,,,,,,,,,,,,,,,,,,,,,,,,,,,,,,,,,,,,,,,,,,,,,,,,,,,,,,,
0,80,80,83,1,,601a59260b84c52578005e4d,62c53a4ce5224759483cd7ff,2022-07-06_09h31.37.115,Colour_Asymmetry_Pilot,2022.1.3,Win32,60.2373351,62c50e9c1127f2cd403a315f,,,,,,,,,,,,,,,,,,,,,,,,,,,,,,,,,,,,,,,,,,,,,,,,,,,,,,,,,,,,,,,,,,,,,,,,,,,,,,,,,,,,,,,,,,,,,,,,,,,,,,,,,,,,,,,,,,,,,,,,,,,,,,,,,,,,,,,,,,,,,,,,,,,,,,,,,,,,,,,,,,,
0,81,81,17,1,,601a59260b84c52578005e4d,62c53a4ce5224759483cd7ff,2022-07-06_09h31.37.115,Colour_Asymmetry_Pilot,2022.1.3,Win32,60.2373351,62c50e9c1127f2cd403a315f,,,,,,,,,,,,,,,,,,,,,,,,,,,,,,,,,,,,,,,,,,,,,,,,,,,,,,,,,,,,,,,,,,,,,,,,,,,,,,,,,,,,,,,,,,,,,,,,,,,,,,,,,,,,,,,,,,,,,,,,,,,,,,,,,,,,,,,,,,,,,,,,,,,,,,,,,,,,,,,,,,,
0,82,82,18,1,,601a59260b84c52578005e4d,62c53a4ce5224759483cd7ff,2022-07-06_09h31.37.115,Colour_Asymmetry_Pilot,2022.1.3,Win32,60.2373351,62c50e9c1127f2cd403a315f,,,,,,,,,,,,,,,,,,,,,,,,,,,,,,,,,,,,,,,,,,,,,,,,,,,,,,,,,,,,,,,,,,,,,,,,,,,,,,,,,,,,,,,,,,,,,,,,,,,,,,,,,,,,,,,,,,,,,,,,,,,,,,,,,,,,,,,,,,,,,,,,,,,,,,,,,,,,,,,,,,,
0,83,83,44,1,,601a59260b84c52578005e4d,62c53a4ce5224759483cd7ff,2022-07-06_09h31.37.115,Colour_Asymmetry_Pilot,2022.1.3,Win32,60.2373351,62c50e9c1127f2cd403a315f,,,,,,,,,,,,,,,,,,,,,,,,,,,,,,,,,,,,,,,,,,,,,,,,,,,,,,,,,,,,,,,,,,,,,,,,,,,,,,,,,,,,,,,,,,,,,,,,,,,,,,,,,,,,,,,,,,,,,,,,,,,,,,,,,,,,,,,,,,,,,,,,,,,,,,,,,,,,,,,,,,,
0,84,84,9,1,,601a59260b84c52578005e4d,62c53a4ce5224759483cd7ff,2022-07-06_09h31.37.115,Colour_Asymmetry_Pilot,2022.1.3,Win32,60.2373351,62c50e9c1127f2cd403a315f,,,,,,,,,,,,,,,,,,,,,,,,,,,,,,,,,,,,,,,,,,,,,,,,,,,,,,,,,,,,,,,,,,,,,,,,,,,,,,,,,,,,,,,,,,,,,,,,,,,,,,,,,,,,,,,,,,,,,,,,,,,,,,,,,,,,,,,,,,,,,,,,,,,,,,,,,,,,,,,,,,,
0,85,85,46,1,,601a59260b84c52578005e4d,62c53a4ce5224759483cd7ff,2022-07-06_09h31.37.115,Colour_Asymmetry_Pilot,2022.1.3,Win32,60.2373351,62c50e9c1127f2cd403a315f,,,,,,,,,,,,,,,,,,,,,,,,,,,,,,,,,,,,,,,,,,,,,,,,,,,,,,,,,,,,,,,,,,,,,,,,,,,,,,,,,,,,,,,,,,,,,,,,,,,,,,,,,,,,,,,,,,,,,,,,,,,,,,,,,,,,,,,,,,,,,,,,,,,,,,,,,,,,,,,,,,,
0,86,86,77,1,,601a59260b84c52578005e4d,62c53a4ce5224759483cd7ff,2022-07-06_09h31.37.115,Colour_Asymmetry_Pilot,2022.1.3,Win32,60.2373351,62c50e9c1127f2cd403a315f,,,,,,,,,,,,,,,,,,,,,,,,,,,,,,,,,,,,,,,,,,,,,,,,,,,,,,,,,,,,,,,,,,,,,,,,,,,,,,,,,,,,,,,,,,,,,,,,,,,,,,,,,,,,,,,,,,,,,,,,,,,,,,,,,,,,,,,,,,,,,,,,,,,,,,,,,,,,,,,,,,,
0,87,87,0,1,,601a59260b84c52578005e4d,62c53a4ce5224759483cd7ff,2022-07-06_09h31.37.115,Colour_Asymmetry_Pilot,2022.1.3,Win32,60.2373351,62c50e9c1127f2cd403a315f,,,,,,,,,,,,,,,,,,,,,,,,,,,,,,,,,,,,,,,,,,,,,,,,,,,,,,,,,,,,,,,,,,,,,,,,,,,,,,,,,,,,,,,,,,,,,,,,,,,,,,,,,,,,,,,,,,,,,,,,,,,,,,,,,,,,,,,,,,,,,,,,,,,,,,,,,,,,,,,,,,,
0,88,88,54,1,,601a59260b84c52578005e4d,62c53a4ce5224759483cd7ff,2022-07-06_09h31.37.115,Colour_Asymmetry_Pilot,2022.1.3,Win32,60.2373351,62c50e9c1127f2cd403a315f,,,,,,,,,,,,,,,,,,,,,,,,,,,,,,,,,,,,,,,,,,,,,,,,,,,,,,,,,,,,,,,,,,,,,,,,,,,,,,,,,,,,,,,,,,,,,,,,,,,,,,,,,,,,,,,,,,,,,,,,,,,,,,,,,,,,,,,,,,,,,,,,,,,,,,,,,,,,,,,,,,,
0,89,89,34,1,,601a59260b84c52578005e4d,62c53a4ce5224759483cd7ff,2022-07-06_09h31.37.115,Colour_Asymmetry_Pilot,2022.1.3,Win32,60.2373351,62c50e9c1127f2cd403a315f,,,,,,,,,,,,,,,,,,,,,,,,,,,,,,,,,,,,,,,,,,,,,,,,,,,,,,,,,,,,,,,,,,,,,,,,,,,,,,,,,,,,,,,,,,,,,,,,,,,,,,,,,,,,,,,,,,,,,,,,,,,,,,,,,,,,,,,,,,,,,,,,,,,,,,,,,,,,,,,,,,,
0,90,90,87,1,,601a59260b84c52578005e4d,62c53a4ce5224759483cd7ff,2022-07-06_09h31.37.115,Colour_Asymmetry_Pilot,2022.1.3,Win32,60.2373351,62c50e9c1127f2cd403a315f,,,,,,,,,,,,,,,,,,,,,,,,,,,,,,,,,,,,,,,,,,,,,,,,,,,,,,,,,,,,,,,,,,,,,,,,,,,,,,,,,,,,,,,,,,,,,,,,,,,,,,,,,,,,,,,,,,,,,,,,,,,,,,,,,,,,,,,,,,,,,,,,,,,,,,,,,,,,,,,,,,,
0,91,91,24,1,,601a59260b84c52578005e4d,62c53a4ce5224759483cd7ff,2022-07-06_09h31.37.115,Colour_Asymmetry_Pilot,2022.1.3,Win32,60.2373351,62c50e9c1127f2cd403a315f,,,,,,,,,,,,,,,,,,,,,,,,,,,,,,,,,,,,,,,,,,,,,,,,,,,,,,,,,,,,,,,,,,,,,,,,,,,,,,,,,,,,,,,,,,,,,,,,,,,,,,,,,,,,,,,,,,,,,,,,,,,,,,,,,,,,,,,,,,,,,,,,,,,,,,,,,,,,,,,,,,,
0,92,92,58,1,,601a59260b84c52578005e4d,62c53a4ce5224759483cd7ff,2022-07-06_09h31.37.115,Colour_Asymmetry_Pilot,2022.1.3,Win32,60.2373351,62c50e9c1127f2cd403a315f,,,,,,,,,,,,,,,,,,,,,,,,,,,,,,,,,,,,,,,,,,,,,,,,,,,,,,,,,,,,,,,,,,,,,,,,,,,,,,,,,,,,,,,,,,,,,,,,,,,,,,,,,,,,,,,,,,,,,,,,,,,,,,,,,,,,,,,,,,,,,,,,,,,,,,,,,,,,,,,,,,,
,,,,,,601a59260b84c52578005e4d,62c53a4ce5224759483cd7ff,2022-07-06_09h31.37.115,Colour_Asymmetry_Pilot,2022.1.3,Win32,60.2373351,62c50e9c1127f2cd403a315f,0,0,0,159,1,fourthree,,,,,,,,,,,,,,,,,,,,,,,,,,,,,,,,,,,,,,,,,,,,,,,,,,,,,,,,,,,,,,,,,,,,,,,,,,,,,,,,,,,,,,,,,,,,,,,,,,,,,,,,,,,,,,,,,,,,,,,,,,,,,,,,,,,,,,,,,,,,,,,,,,,,,,,,,,,,,
,,,,,,601a59260b84c52578005e4d,62c53a4ce5224759483cd7ff,2022-07-06_09h31.37.115,Colour_Asymmetry_Pilot,2022.1.3,Win32,60.2373351,62c50e9c1127f2cd403a315f,0,1,1,114,1,twoone,,,,,,,,,,,,,,,,,,,,,,,,,,,,,,,,,,,,,,,,,,,,,,,,,,,,,,,,,,,,,,,,,,,,,,,,,,,,,,,,,,,,,,,,,,,,,,,,,,,,,,,,,,,,,,,,,,,,,,,,,,,,,,,,,,,,,,,,,,,,,,,,,,,,,,,,,,,,,
,,,,,,601a59260b84c52578005e4d,62c53a4ce5224759483cd7ff,2022-07-06_09h31.37.115,Colour_Asymmetry_Pilot,2022.1.3,Win32,60.2373351,62c50e9c1127f2cd403a315f,0,2,2,30,1,fourtwo,,,,,,,,,,,,,,,,,,,,,,,,,,,,,,,,,,,,,,,,,,,,,,,,,,,,,,,,,,,,,,,,,,,,,,,,,,,,,,,,,,,,,,,,,,,,,,,,,,,,,,,,,,,,,,,,,,,,,,,,,,,,,,,,,,,,,,,,,,,,,,,,,,,,,,,,,,,,,
,,,,,,601a59260b84c52578005e4d,62c53a4ce5224759483cd7ff,2022-07-06_09h31.37.115,Colour_Asymmetry_Pilot,2022.1.3,Win32,60.2373351,62c50e9c1127f2cd403a315f,0,3,3,91,1,twofour,,,,,,,,,,,,,,,,,,,,,,,,,,,,,,,,,,,,,,,,,,,,,,,,,,,,,,,,,,,,,,,,,,,,,,,,,,,,,,,,,,,,,,,,,,,,,,,,,,,,,,,,,,,,,,,,,,,,,,,,,,,,,,,,,,,,,,,,,,,,,,,,,,,,,,,,,,,,,
,,,,,,601a59260b84c52578005e4d,62c53a4ce5224759483cd7ff,2022-07-06_09h31.37.115,Colour_Asymmetry_Pilot,2022.1.3,Win32,60.2373351,62c50e9c1127f2cd403a315f,0,4,4,111,1,fourthree,,,,,,,,,,,,,,,,,,,,,,,,,,,,,,,,,,,,,,,,,,,,,,,,,,,,,,,,,,,,,,,,,,,,,,,,,,,,,,,,,,,,,,,,,,,,,,,,,,,,,,,,,,,,,,,,,,,,,,,,,,,,,,,,,,,,,,,,,,,,,,,,,,,,,,,,,,,,,
,,,,,,601a59260b84c52578005e4d,62c53a4ce5224759483cd7ff,2022-07-06_09h31.37.115,Colour_Asymmetry_Pilot,2022.1.3,Win32,60.2373351,62c50e9c1127f2cd403a315f,0,5,5,141,1,threefour,,,,,,,,,,,,,,,,,,,,,,,,,,,,,,,,,,,,,,,,,,,,,,,,,,,,,,,,,,,,,,,,,,,,,,,,,,,,,,,,,,,,,,,,,,,,,,,,,,,,,,,,,,,,,,,,,,,,,,,,,,,,,,,,,,,,,,,,,,,,,,,,,,,,,,,,,,,,,
,,,,,,601a59260b84c52578005e4d,62c53a4ce5224759483cd7ff,2022-07-06_09h31.37.115,Colour_Asymmetry_Pilot,2022.1.3,Win32,60.2373351,62c50e9c1127f2cd403a315f,0,6,6,113,1,onethree,,,,,,,,,,,,,,,,,,,,,,,,,,,,,,,,,,,,,,,,,,,,,,,,,,,,,,,,,,,,,,,,,,,,,,,,,,,,,,,,,,,,,,,,,,,,,,,,,,,,,,,,,,,,,,,,,,,,,,,,,,,,,,,,,,,,,,,,,,,,,,,,,,,,,,,,,,,,,
,,,,,,601a59260b84c52578005e4d,62c53a4ce5224759483cd7ff,2022-07-06_09h31.37.115,Colour_Asymmetry_Pilot,2022.1.3,Win32,60.2373351,62c50e9c1127f2cd403a315f,0,7,7,13,1,threefour,,,,,,,,,,,,,,,,,,,,,,,,,,,,,,,,,,,,,,,,,,,,,,,,,,,,,,,,,,,,,,,,,,,,,,,,,,,,,,,,,,,,,,,,,,,,,,,,,,,,,,,,,,,,,,,,,,,,,,,,,,,,,,,,,,,,,,,,,,,,,,,,,,,,,,,,,,,,,
,,,,,,601a59260b84c52578005e4d,62c53a4ce5224759483cd7ff,2022-07-06_09h31.37.115,Colour_Asymmetry_Pilot,2022.1.3,Win32,60.2373351,62c50e9c1127f2cd403a315f,0,8,8,81,1,onethree,,,,,,,,,,,,,,,,,,,,,,,,,,,,,,,,,,,,,,,,,,,,,,,,,,,,,,,,,,,,,,,,,,,,,,,,,,,,,,,,,,,,,,,,,,,,,,,,,,,,,,,,,,,,,,,,,,,,,,,,,,,,,,,,,,,,,,,,,,,,,,,,,,,,,,,,,,,,,
,,,,,,601a59260b84c52578005e4d,62c53a4ce5224759483cd7ff,2022-07-06_09h31.37.115,Colour_Asymmetry_Pilot,2022.1.3,Win32,60.2373351,62c50e9c1127f2cd403a315f,0,9,9,49,1,onethree,,,,,,,,,,,,,,,,,,,,,,,,,,,,,,,,,,,,,,,,,,,,,,,,,,,,,,,,,,,,,,,,,,,,,,,,,,,,,,,,,,,,,,,,,,,,,,,,,,,,,,,,,,,,,,,,,,,,,,,,,,,,,,,,,,,,,,,,,,,,,,,,,,,,,,,,,,,,,
,,,,,,601a59260b84c52578005e4d,62c53a4ce5224759483cd7ff,2022-07-06_09h31.37.115,Colour_Asymmetry_Pilot,2022.1.3,Win32,60.2373351,62c50e9c1127f2cd403a315f,0,10,10,6,1,fourtwo,,,,,,,,,,,,,,,,,,,,,,,,,,,,,,,,,,,,,,,,,,,,,,,,,,,,,,,,,,,,,,,,,,,,,,,,,,,,,,,,,,,,,,,,,,,,,,,,,,,,,,,,,,,,,,,,,,,,,,,,,,,,,,,,,,,,,,,,,,,,,,,,,,,,,,,,,,,,,
,,,,,,601a59260b84c52578005e4d,62c53a4ce5224759483cd7ff,2022-07-06_09h31.37.115,Colour_Asymmetry_Pilot,2022.1.3,Win32,60.2373351,62c50e9c1127f2cd403a315f,0,11,11,90,1,twoone,,,,,,,,,,,,,,,,,,,,,,,,,,,,,,,,,,,,,,,,,,,,,,,,,,,,,,,,,,,,,,,,,,,,,,,,,,,,,,,,,,,,,,,,,,,,,,,,,,,,,,,,,,,,,,,,,,,,,,,,,,,,,,,,,,,,,,,,,,,,,,,,,,,,,,,,,,,,,
,,,,,,601a59260b84c52578005e4d,62c53a4ce5224759483cd7ff,2022-07-06_09h31.37.115,Colour_Asymmetry_Pilot,2022.1.3,Win32,60.2373351,62c50e9c1127f2cd403a315f,0,12,12,70,1,fourtwo,,,,,,,,,,,,,,,,,,,,,,,,,,,,,,,,,,,,,,,,,,,,,,,,,,,,,,,,,,,,,,,,,,,,,,,,,,,,,,,,,,,,,,,,,,,,,,,,,,,,,,,,,,,,,,,,,,,,,,,,,,,,,,,,,,,,,,,,,,,,,,,,,,,,,,,,,,,,,
,,,,,,601a59260b84c52578005e4d,62c53a4ce5224759483cd7ff,2022-07-06_09h31.37.115,Colour_Asymmetry_Pilot,2022.1.3,Win32,60.2373351,62c50e9c1127f2cd403a315f,0,13,13,63,1,fourthree,,,,,,,,,,,,,,,,,,,,,,,,,,,,,,,,,,,,,,,,,,,,,,,,,,,,,,,,,,,,,,,,,,,,,,,,,,,,,,,,,,,,,,,,,,,,,,,,,,,,,,,,,,,,,,,,,,,,,,,,,,,,,,,,,,,,,,,,,,,,,,,,,,,,,,,,,,,,,
,,,,,,601a59260b84c52578005e4d,62c53a4ce5224759483cd7ff,2022-07-06_09h31.37.115,Colour_Asymmetry_Pilot,2022.1.3,Win32,60.2373351,62c50e9c1127f2cd403a315f,0,14,14,56,1,onetwo,,,,,,,,,,,,,,,,,,,,,,,,,,,,,,,,,,,,,,,,,,,,,,,,,,,,,,,,,,,,,,,,,,,,,,,,,,,,,,,,,,,,,,,,,,,,,,,,,,,,,,,,,,,,,,,,,,,,,,,,,,,,,,,,,,,,,,,,,,,,,,,,,,,,,,,,,,,,,
,,,,,,601a59260b84c52578005e4d,62c53a4ce5224759483cd7ff,2022-07-06_09h31.37.115,Colour_Asymmetry_Pilot,2022.1.3,Win32,60.2373351,62c50e9c1127f2cd403a315f,0,15,15,98,1,twoone,,,,,,,,,,,,,,,,,,,,,,,,,,,,,,,,,,,,,,,,,,,,,,,,,,,,,,,,,,,,,,,,,,,,,,,,,,,,,,,,,,,,,,,,,,,,,,,,,,,,,,,,,,,,,,,,,,,,,,,,,,,,,,,,,,,,,,,,,,,,,,,,,,,,,,,,,,,,,
,,,,,,601a59260b84c52578005e4d,62c53a4ce5224759483cd7ff,2022-07-06_09h31.37.115,Colour_Asymmetry_Pilot,2022.1.3,Win32,60.2373351,62c50e9c1127f2cd403a315f,0,16,16,11,1,twofour,,,,,,,,,,,,,,,,,,,,,,,,,,,,,,,,,,,,,,,,,,,,,,,,,,,,,,,,,,,,,,,,,,,,,,,,,,,,,,,,,,,,,,,,,,,,,,,,,,,,,,,,,,,,,,,,,,,,,,,,,,,,,,,,,,,,,,,,,,,,,,,,,,,,,,,,,,,,,
,,,,,,601a59260b84c52578005e4d,62c53a4ce5224759483cd7ff,2022-07-06_09h31.37.115,Colour_Asymmetry_Pilot,2022.1.3,Win32,60.2373351,62c50e9c1127f2cd403a315f,0,17,17,156,1,threeone,,,,,,,,,,,,,,,,,,,,,,,,,,,,,,,,,,,,,,,,,,,,,,,,,,,,,,,,,,,,,,,,,,,,,,,,,,,,,,,,,,,,,,,,,,,,,,,,,,,,,,,,,,,,,,,,,,,,,,,,,,,,,,,,,,,,,,,,,,,,,,,,,,,,,,,,,,,,,
,,,,,,601a59260b84c52578005e4d,62c53a4ce5224759483cd7ff,2022-07-06_09h31.37.115,Colour_Asymmetry_Pilot,2022.1.3,Win32,60.2373351,62c50e9c1127f2cd403a315f,0,18,18,28,1,threeone,,,,,,,,,,,,,,,,,,,,,,,,,,,,,,,,,,,,,,,,,,,,,,,,,,,,,,,,,,,,,,,,,,,,,,,,,,,,,,,,,,,,,,,,,,,,,,,,,,,,,,,,,,,,,,,,,,,,,,,,,,,,,,,,,,,,,,,,,,,,,,,,,,,,,,,,,,,,,
,,,,,,601a59260b84c52578005e4d,62c53a4ce5224759483cd7ff,2022-07-06_09h31.37.115,Colour_Asymmetry_Pilot,2022.1.3,Win32,60.2373351,62c50e9c1127f2cd403a315f,0,19,19,27,1,twofour,,,,,,,,,,,,,,,,,,,,,,,,,,,,,,,,,,,,,,,,,,,,,,,,,,,,,,,,,,,,,,,,,,,,,,,,,,,,,,,,,,,,,,,,,,,,,,,,,,,,,,,,,,,,,,,,,,,,,,,,,,,,,,,,,,,,,,,,,,,,,,,,,,,,,,,,,,,,,
,,,,,,601a59260b84c52578005e4d,62c53a4ce5224759483cd7ff,2022-07-06_09h31.37.115,Colour_Asymmetry_Pilot,2022.1.3,Win32,60.2373351,62c50e9c1127f2cd403a315f,0,20,20,87,1,fourthree,,,,,,,,,,,,,,,,,,,,,,,,,,,,,,,,,,,,,,,,,,,,,,,,,,,,,,,,,,,,,,,,,,,,,,,,,,,,,,,,,,,,,,,,,,,,,,,,,,,,,,,,,,,,,,,,,,,,,,,,,,,,,,,,,,,,,,,,,,,,,,,,,,,,,,,,,,,,,
,,,,,,601a59260b84c52578005e4d,62c53a4ce5224759483cd7ff,2022-07-06_09h31.37.115,Colour_Asymmetry_Pilot,2022.1.3,Win32,60.2373351,62c50e9c1127f2cd403a315f,0,21,21,119,1,fourthree,,,,,,,,,,,,,,,,,,,,,,,,,,,,,,,,,,,,,,,,,,,,,,,,,,,,,,,,,,,,,,,,,,,,,,,,,,,,,,,,,,,,,,,,,,,,,,,,,,,,,,,,,,,,,,,,,,,,,,,,,,,,,,,,,,,,,,,,,,,,,,,,,,,,,,,,,,,,,
,,,,,,601a59260b84c52578005e4d,62c53a4ce5224759483cd7ff,2022-07-06_09h31.37.115,Colour_Asymmetry_Pilot,2022.1.3,Win32,60.2373351,62c50e9c1127f2cd403a315f,0,22,22,126,1,fourtwo,,,,,,,,,,,,,,,,,,,,,,,,,,,,,,,,,,,,,,,,,,,,,,,,,,,,,,,,,,,,,,,,,,,,,,,,,,,,,,,,,,,,,,,,,,,,,,,,,,,,,,,,,,,,,,,,,,,,,,,,,,,,,,,,,,,,,,,,,,,,,,,,,,,,,,,,,,,,,
,,,,,,601a59260b84c52578005e4d,62c53a4ce5224759483cd7ff,2022-07-06_09h31.37.115,Colour_Asymmetry_Pilot,2022.1.3,Win32,60.2373351,62c50e9c1127f2cd403a315f,0,23,23,148,1,threeone,,,,,,,,,,,,,,,,,,,,,,,,,,,,,,,,,,,,,,,,,,,,,,,,,,,,,,,,,,,,,,,,,,,,,,,,,,,,,,,,,,,,,,,,,,,,,,,,,,,,,,,,,,,,,,,,,,,,,,,,,,,,,,,,,,,,,,,,,,,,,,,,,,,,,,,,,,,,,
,,,,,,601a59260b84c52578005e4d,62c53a4ce5224759483cd7ff,2022-07-06_09h31.37.115,Colour_Asymmetry_Pilot,2022.1.3,Win32,60.2373351,62c50e9c1127f2cd403a315f,0,24,24,124,1,threeone,,,,,,,,,,,,,,,,,,,,,,,,,,,,,,,,,,,,,,,,,,,,,,,,,,,,,,,,,,,,,,,,,,,,,,,,,,,,,,,,,,,,,,,,,,,,,,,,,,,,,,,,,,,,,,,,,,,,,,,,,,,,,,,,,,,,,,,,,,,,,,,,,,,,,,,,,,,,,
,,,,,,601a59260b84c52578005e4d,62c53a4ce5224759483cd7ff,2022-07-06_09h31.37.115,Colour_Asymmetry_Pilot,2022.1.3,Win32,60.2373351,62c50e9c1127f2cd403a315f,0,25,25,94,1,fourtwo,,,,,,,,,,,,,,,,,,,,,,,,,,,,,,,,,,,,,,,,,,,,,,,,,,,,,,,,,,,,,,,,,,,,,,,,,,,,,,,,,,,,,,,,,,,,,,,,,,,,,,,,,,,,,,,,,,,,,,,,,,,,,,,,,,,,,,,,,,,,,,,,,,,,,,,,,,,,,
,,,,,,601a59260b84c52578005e4d,62c53a4ce5224759483cd7ff,2022-07-06_09h31.37.115,Colour_Asymmetry_Pilot,2022.1.3,Win32,60.2373351,62c50e9c1127f2cd403a315f,0,26,26,123,1,twofour,,,,,,,,,,,,,,,,,,,,,,,,,,,,,,,,,,,,,,,,,,,,,,,,,,,,,,,,,,,,,,,,,,,,,,,,,,,,,,,,,,,,,,,,,,,,,,,,,,,,,,,,,,,,,,,,,,,,,,,,,,,,,,,,,,,,,,,,,,,,,,,,,,,,,,,,,,,,,
,,,,,,601a59260b84c52578005e4d,62c53a4ce5224759483cd7ff,2022-07-06_09h31.37.115,Colour_Asymmetry_Pilot,2022.1.3,Win32,60.2373351,62c50e9c1127f2cd403a315f,0,27,27,101,1,threefour,,,,,,,,,,,,,,,,,,,,,,,,,,,,,,,,,,,,,,,,,,,,,,,,,,,,,,,,,,,,,,,,,,,,,,,,,,,,,,,,,,,,,,,,,,,,,,,,,,,,,,,,,,,,,,,,,,,,,,,,,,,,,,,,,,,,,,,,,,,,,,,,,,,,,,,,,,,,,
,,,,,,601a59260b84c52578005e4d,62c53a4ce5224759483cd7ff,2022-07-06_09h31.37.115,Colour_Asymmetry_Pilot,2022.1.3,Win32,60.2373351,62c50e9c1127f2cd403a315f,0,28,28,64,1,onetwo,,,,,,,,,,,,,,,,,,,,,,,,,,,,,,,,,,,,,,,,,,,,,,,,,,,,,,,,,,,,,,,,,,,,,,,,,,,,,,,,,,,,,,,,,,,,,,,,,,,,,,,,,,,,,,,,,,,,,,,,,,,,,,,,,,,,,,,,,,,,,,,,,,,,,,,,,,,,,
,,,,,,601a59260b84c52578005e4d,62c53a4ce5224759483cd7ff,2022-07-06_09h31.37.115,Colour_Asymmetry_Pilot,2022.1.3,Win32,60.2373351,62c50e9c1127f2cd403a315f,0,29,29,72,1,onetwo,,,,,,,,,,,,,,,,,,,,,,,,,,,,,,,,,,,,,,,,,,,,,,,,,,,,,,,,,,,,,,,,,,,,,,,,,,,,,,,,,,,,,,,,,,,,,,,,,,,,,,,,,,,,,,,,,,,,,,,,,,,,,,,,,,,,,,,,,,,,,,,,,,,,,,,,,,,,,
,,,,,,601a59260b84c52578005e4d,62c53a4ce5224759483cd7ff,2022-07-06_09h31.37.115,Colour_Asymmetry_Pilot,2022.1.3,Win32,60.2373351,62c50e9c1127f2cd403a315f,0,30,30,48,1,onetwo,,,,,,,,,,,,,,,,,,,,,,,,,,,,,,,,,,,,,,,,,,,,,,,,,,,,,,,,,,,,,,,,,,,,,,,,,,,,,,,,,,,,,,,,,,,,,,,,,,,,,,,,,,,,,,,,,,,,,,,,,,,,,,,,,,,,,,,,,,,,,,,,,,,,,,,,,,,,,
,,,,,,601a59260b84c52578005e4d,62c53a4ce5224759483cd7ff,2022-07-06_09h31.37.115,Colour_Asymmetry_Pilot,2022.1.3,Win32,60.2373351,62c50e9c1127f2cd403a315f,0,31,31,157,1,threefour,,,,,,,,,,,,,,,,,,,,,,,,,,,,,,,,,,,,,,,,,,,,,,,,,,,,,,,,,,,,,,,,,,,,,,,,,,,,,,,,,,,,,,,,,,,,,,,,,,,,,,,,,,,,,,,,,,,,,,,,,,,,,,,,,,,,,,,,,,,,,,,,,,,,,,,,,,,,,
,,,,,,601a59260b84c52578005e4d,62c53a4ce5224759483cd7ff,2022-07-06_09h31.37.115,Colour_Asymmetry_Pilot,2022.1.3,Win32,60.2373351,62c50e9c1127f2cd403a315f,0,32,32,42,1,twoone,,,,,,,,,,,,,,,,,,,,,,,,,,,,,,,,,,,,,,,,,,,,,,,,,,,,,,,,,,,,,,,,,,,,,,,,,,,,,,,,,,,,,,,,,,,,,,,,,,,,,,,,,,,,,,,,,,,,,,,,,,,,,,,,,,,,,,,,,,,,,,,,,,,,,,,,,,,,,
,,,,,,601a59260b84c52578005e4d,62c53a4ce5224759483cd7ff,2022-07-06_09h31.37.115,Colour_Asymmetry_Pilot,2022.1.3,Win32,60.2373351,62c50e9c1127f2cd403a315f,0,33,33,21,1,threefour,,,,,,,,,,,,,,,,,,,,,,,,,,,,,,,,,,,,,,,,,,,,,,,,,,,,,,,,,,,,,,,,,,,,,,,,,,,,,,,,,,,,,,,,,,,,,,,,,,,,,,,,,,,,,,,,,,,,,,,,,,,,,,,,,,,,,,,,,,,,,,,,,,,,,,,,,,,,,
,,,,,,601a59260b84c52578005e4d,62c53a4ce5224759483cd7ff,2022-07-06_09h31.37.115,Colour_Asymmetry_Pilot,2022.1.3,Win32,60.2373351,62c50e9c1127f2cd403a315f,0,34,34,12,1,threeone,,,,,,,,,,,,,,,,,,,,,,,,,,,,,,,,,,,,,,,,,,,,,,,,,,,,,,,,,,,,,,,,,,,,,,,,,,,,,,,,,,,,,,,,,,,,,,,,,,,,,,,,,,,,,,,,,,,,,,,,,,,,,,,,,,,,,,,,,,,,,,,,,,,,,,,,,,,,,
,,,,,,601a59260b84c52578005e4d,62c53a4ce5224759483cd7ff,2022-07-06_09h31.37.115,Colour_Asymmetry_Pilot,2022.1.3,Win32,60.2373351,62c50e9c1127f2cd403a315f,0,35,35,23,1,fourthree,,,,,,,,,,,,,,,,,,,,,,,,,,,,,,,,,,,,,,,,,,,,,,,,,,,,,,,,,,,,,,,,,,,,,,,,,,,,,,,,,,,,,,,,,,,,,,,,,,,,,,,,,,,,,,,,,,,,,,,,,,,,,,,,,,,,,,,,,,,,,,,,,,,,,,,,,,,,,
,,,,,,601a59260b84c52578005e4d,62c53a4ce5224759483cd7ff,2022-07-06_09h31.37.115,Colour_Asymmetry_Pilot,2022.1.3,Win32,60.2373351,62c50e9c1127f2cd403a315f,0,36,36,145,1,onethree,,,,,,,,,,,,,,,,,,,,,,,,,,,,,,,,,,,,,,,,,,,,,,,,,,,,,,,,,,,,,,,,,,,,,,,,,,,,,,,,,,,,,,,,,,,,,,,,,,,,,,,,,,,,,,,,,,,,,,,,,,,,,,,,,,,,,,,,,,,,,,,,,,,,,,,,,,,,,
,,,,,,601a59260b84c52578005e4d,62c53a4ce5224759483cd7ff,2022-07-06_09h31.37.115,Colour_Asymmetry_Pilot,2022.1.3,Win32,60.2373351,62c50e9c1127f2cd403a315f,0,37,37,112,1,onetwo,,,,,,,,,,,,,,,,,,,,,,,,,,,,,,,,,,,,,,,,,,,,,,,,,,,,,,,,,,,,,,,,,,,,,,,,,,,,,,,,,,,,,,,,,,,,,,,,,,,,,,,,,,,,,,,,,,,,,,,,,,,,,,,,,,,,,,,,,,,,,,,,,,,,,,,,,,,,,
,,,,,,601a59260b84c52578005e4d,62c53a4ce5224759483cd7ff,2022-07-06_09h31.37.115,Colour_Asymmetry_Pilot,2022.1.3,Win32,60.2373351,62c50e9c1127f2cd403a315f,0,38,38,17,1,onethree,,,,,,,,,,,,,,,,,,,,,,,,,,,,,,,,,,,,,,,,,,,,,,,,,,,,,,,,,,,,,,,,,,,,,,,,,,,,,,,,,,,,,,,,,,,,,,,,,,,,,,,,,,,,,,,,,,,,,,,,,,,,,,,,,,,,,,,,,,,,,,,,,,,,,,,,,,,,,
,,,,,,601a59260b84c52578005e4d,62c53a4ce5224759483cd7ff,2022-07-06_09h31.37.115,Colour_Asymmetry_Pilot,2022.1.3,Win32,60.2373351,62c50e9c1127f2cd403a315f,0,39,39,54,1,fourtwo,,,,,,,,,,,,,,,,,,,,,,,,,,,,,,,,,,,,,,,,,,,,,,,,,,,,,,,,,,,,,,,,,,,,,,,,,,,,,,,,,,,,,,,,,,,,,,,,,,,,,,,,,,,,,,,,,,,,,,,,,,,,,,,,,,,,,,,,,,,,,,,,,,,,,,,,,,,,,
,,,,,,601a59260b84c52578005e4d,62c53a4ce5224759483cd7ff,2022-07-06_09h31.37.115,Colour_Asymmetry_Pilot,2022.1.3,Win32,60.2373351,62c50e9c1127f2cd403a315f,0,40,40,121,1,onethree,,,,,,,,,,,,,,,,,,,,,,,,,,,,,,,,,,,,,,,,,,,,,,,,,,,,,,,,,,,,,,,,,,,,,,,,,,,,,,,,,,,,,,,,,,,,,,,,,,,,,,,,,,,,,,,,,,,,,,,,,,,,,,,,,,,,,,,,,,,,,,,,,,,,,,,,,,,,,
,,,,,,601a59260b84c52578005e4d,62c53a4ce5224759483cd7ff,2022-07-06_09h31.37.115,Colour_Asymmetry_Pilot,2022.1.3,Win32,60.2373351,62c50e9c1127f2cd403a315f,0,41,41,115,1,twofour,,,,,,,,,,,,,,,,,,,,,,,,,,,,,,,,,,,,,,,,,,,,,,,,,,,,,,,,,,,,,,,,,,,,,,,,,,,,,,,,,,,,,,,,,,,,,,,,,,,,,,,,,,,,,,,,,,,,,,,,,,,,,,,,,,,,,,,,,,,,,,,,,,,,,,,,,,,,,
,,,,,,601a59260b84c52578005e4d,62c53a4ce5224759483cd7ff,2022-07-06_09h31.37.115,Colour_Asymmetry_Pilot,2022.1.3,Win32,60.2373351,62c50e9c1127f2cd403a315f,0,42,42,58,1,twoone,,,,,,,,,,,,,,,,,,,,,,,,,,,,,,,,,,,,,,,,,,,,,,,,,,,,,,,,,,,,,,,,,,,,,,,,,,,,,,,,,,,,,,,,,,,,,,,,,,,,,,,,,,,,,,,,,,,,,,,,,,,,,,,,,,,,,,,,,,,,,,,,,,,,,,,,,,,,,
,,,,,,601a59260b84c52578005e4d,62c53a4ce5224759483cd7ff,2022-07-06_09h31.37.115,Colour_Asymmetry_Pilot,2022.1.3,Win32,60.2373351,62c50e9c1127f2cd403a315f,0,43,43,161,1,onethree,,,,,,,,,,,,,,,,,,,,,,,,,,,,,,,,,,,,,,,,,,,,,,,,,,,,,,,,,,,,,,,,,,,,,,,,,,,,,,,,,,,,,,,,,,,,,,,,,,,,,,,,,,,,,,,,,,,,,,,,,,,,,,,,,,,,,,,,,,,,,,,,,,,,,,,,,,,,,
,,,,,,601a59260b84c52578005e4d,62c53a4ce5224759483cd7ff,2022-07-06_09h31.37.115,Colour_Asymmetry_Pilot,2022.1.3,Win32,60.2373351,62c50e9c1127f2cd403a315f,0,44,44,152,1,onetwo,,,,,,,,,,,,,,,,,,,,,,,,,,,,,,,,,,,,,,,,,,,,,,,,,,,,,,,,,,,,,,,,,,,,,,,,,,,,,,,,,,,,,,,,,,,,,,,,,,,,,,,,,,,,,,,,,,,,,,,,,,,,,,,,,,,,,,,,,,,,,,,,,,,,,,,,,,,,,
,,,,,,601a59260b84c52578005e4d,62c53a4ce5224759483cd7ff,2022-07-06_09h31.37.115,Colour_Asymmetry_Pilot,2022.1.3,Win32,60.2373351,62c50e9c1127f2cd403a315f,0,45,45,142,1,fourtwo,,,,,,,,,,,,,,,,,,,,,,,,,,,,,,,,,,,,,,,,,,,,,,,,,,,,,,,,,,,,,,,,,,,,,,,,,,,,,,,,,,,,,,,,,,,,,,,,,,,,,,,,,,,,,,,,,,,,,,,,,,,,,,,,,,,,,,,,,,,,,,,,,,,,,,,,,,,,,
,,,,,,601a59260b84c52578005e4d,62c53a4ce5224759483cd7ff,2022-07-06_09h31.37.115,Colour_Asymmetry_Pilot,2022.1.3,Win32,60.2373351,62c50e9c1127f2cd403a315f,0,46,46,138,1,twoone,,,,,,,,,,,,,,,,,,,,,,,,,,,,,,,,,,,,,,,,,,,,,,,,,,,,,,,,,,,,,,,,,,,,,,,,,,,,,,,,,,,,,,,,,,,,,,,,,,,,,,,,,,,,,,,,,,,,,,,,,,,,,,,,,,,,,,,,,,,,,,,,,,,,,,,,,,,,,
,,,,,,601a59260b84c52578005e4d,62c53a4ce5224759483cd7ff,2022-07-06_09h31.37.115,Colour_Asymmetry_Pilot,2022.1.3,Win32,60.2373351,62c50e9c1127f2cd403a315f,0,47,47,97,1,onethree,,,,,,,,,,,,,,,,,,,,,,,,,,,,,,,,,,,,,,,,,,,,,,,,,,,,,,,,,,,,,,,,,,,,,,,,,,,,,,,,,,,,,,,,,,,,,,,,,,,,,,,,,,,,,,,,,,,,,,,,,,,,,,,,,,,,,,,,,,,,,,,,,,,,,,,,,,,,,
,,,,,,601a59260b84c52578005e4d,62c53a4ce5224759483cd7ff,2022-07-06_09h31.37.115,Colour_Asymmetry_Pilot,2022.1.3,Win32,60.2373351,62c50e9c1127f2cd403a315f,0,48,48,60,1,threeone,,,,,,,,,,,,,,,,,,,,,,,,,,,,,,,,,,,,,,,,,,,,,,,,,,,,,,,,,,,,,,,,,,,,,,,,,,,,,,,,,,,,,,,,,,,,,,,,,,,,,,,,,,,,,,,,,,,,,,,,,,,,,,,,,,,,,,,,,,,,,,,,,,,,,,,,,,,,,
,,,,,,601a59260b84c52578005e4d,62c53a4ce5224759483cd7ff,2022-07-06_09h31.37.115,Colour_Asymmetry_Pilot,2022.1.3,Win32,60.2373351,62c50e9c1127f2cd403a315f,0,49,49,66,1,twoone,,,,,,,,,,,,,,,,,,,,,,,,,,,,,,,,,,,,,,,,,,,,,,,,,,,,,,,,,,,,,,,,,,,,,,,,,,,,,,,,,,,,,,,,,,,,,,,,,,,,,,,,,,,,,,,,,,,,,,,,,,,,,,,,,,,,,,,,,,,,,,,,,,,,,,,,,,,,,
,,,,,,601a59260b84c52578005e4d,62c53a4ce5224759483cd7ff,2022-07-06_09h31.37.115,Colour_Asymmetry_Pilot,2022.1.3,Win32,60.2373351,62c50e9c1127f2cd403a315f,0,50,50,24,1,onetwo,,,,,,,,,,,,,,,,,,,,,,,,,,,,,,,,,,,,,,,,,,,,,,,,,,,,,,,,,,,,,,,,,,,,,,,,,,,,,,,,,,,,,,,,,,,,,,,,,,,,,,,,,,,,,,,,,,,,,,,,,,,,,,,,,,,,,,,,,,,,,,,,,,,,,,,,,,,,,
,,,,,,601a59260b84c52578005e4d,62c53a4ce5224759483cd7ff,2022-07-06_09h31.37.115,Colour_Asymmetry_Pilot,2022.1.3,Win32,60.2373351,62c50e9c1127f2cd403a315f,0,51,51,116,1,threeone,,,,,,,,,,,,,,,,,,,,,,,,,,,,,,,,,,,,,,,,,,,,,,,,,,,,,,,,,,,,,,,,,,,,,,,,,,,,,,,,,,,,,,,,,,,,,,,,,,,,,,,,,,,,,,,,,,,,,,,,,,,,,,,,,,,,,,,,,,,,,,,,,,,,,,,,,,,,,
,,,,,,601a59260b84c52578005e4d,62c53a4ce5224759483cd7ff,2022-07-06_09h31.37.115,Colour_Asymmetry_Pilot,2022.1.3,Win32,60.2373351,62c50e9c1127f2cd403a315f,0,52,52,3,1,twofour,,,,,,,,,,,,,,,,,,,,,,,,,,,,,,,,,,,,,,,,,,,,,,,,,,,,,,,,,,,,,,,,,,,,,,,,,,,,,,,,,,,,,,,,,,,,,,,,,,,,,,,,,,,,,,,,,,,,,,,,,,,,,,,,,,,,,,,,,,,,,,,,,,,,,,,,,,,,,
,,,,,,601a59260b84c52578005e4d,62c53a4ce5224759483cd7ff,2022-07-06_09h31.37.115,Colour_Asymmetry_Pilot,2022.1.3,Win32,60.2373351,62c50e9c1127f2cd403a315f,0,53,53,151,1,fourthree,,,,,,,,,,,,,,,,,,,,,,,,,,,,,,,,,,,,,,,,,,,,,,,,,,,,,,,,,,,,,,,,,,,,,,,,,,,,,,,,,,,,,,,,,,,,,,,,,,,,,,,,,,,,,,,,,,,,,,,,,,,,,,,,,,,,,,,,,,,,,,,,,,,,,,,,,,,,,
,,,,,,601a59260b84c52578005e4d,62c53a4ce5224759483cd7ff,2022-07-06_09h31.37.115,Colour_Asymmetry_Pilot,2022.1.3,Win32,60.2373351,62c50e9c1127f2cd403a315f,0,54,54,132,1,threeone,,,,,,,,,,,,,,,,,,,,,,,,,,,,,,,,,,,,,,,,,,,,,,,,,,,,,,,,,,,,,,,,,,,,,,,,,,,,,,,,,,,,,,,,,,,,,,,,,,,,,,,,,,,,,,,,,,,,,,,,,,,,,,,,,,,,,,,,,,,,,,,,,,,,,,,,,,,,,
,,,,,,601a59260b84c52578005e4d,62c53a4ce5224759483cd7ff,2022-07-06_09h31.37.115,Colour_Asymmetry_Pilot,2022.1.3,Win32,60.2373351,62c50e9c1127f2cd403a315f,0,55,55,41,1,onethree,,,,,,,,,,,,,,,,,,,,,,,,,,,,,,,,,,,,,,,,,,,,,,,,,,,,,,,,,,,,,,,,,,,,,,,,,,,,,,,,,,,,,,,,,,,,,,,,,,,,,,,,,,,,,,,,,,,,,,,,,,,,,,,,,,,,,,,,,,,,,,,,,,,,,,,,,,,,,
,,,,,,601a59260b84c52578005e4d,62c53a4ce5224759483cd7ff,2022-07-06_09h31.37.115,Colour_Asymmetry_Pilot,2022.1.3,Win32,60.2373351,62c50e9c1127f2cd403a315f,0,56,56,9,1,onethree,,,,,,,,,,,,,,,,,,,,,,,,,,,,,,,,,,,,,,,,,,,,,,,,,,,,,,,,,,,,,,,,,,,,,,,,,,,,,,,,,,,,,,,,,,,,,,,,,,,,,,,,,,,,,,,,,,,,,,,,,,,,,,,,,,,,,,,,,,,,,,,,,,,,,,,,,,,,,
,,,,,,601a59260b84c52578005e4d,62c53a4ce5224759483cd7ff,2022-07-06_09h31.37.115,Colour_Asymmetry_Pilot,2022.1.3,Win32,60.2373351,62c50e9c1127f2cd403a315f,0,57,57,82,1,twoone,,,,,,,,,,,,,,,,,,,,,,,,,,,,,,,,,,,,,,,,,,,,,,,,,,,,,,,,,,,,,,,,,,,,,,,,,,,,,,,,,,,,,,,,,,,,,,,,,,,,,,,,,,,,,,,,,,,,,,,,,,,,,,,,,,,,,,,,,,,,,,,,,,,,,,,,,,,,,
,,,,,,601a59260b84c52578005e4d,62c53a4ce5224759483cd7ff,2022-07-06_09h31.37.115,Colour_Asymmetry_Pilot,2022.1.3,Win32,60.2373351,62c50e9c1127f2cd403a315f,0,58,58,78,1,fourtwo,,,,,,,,,,,,,,,,,,,,,,,,,,,,,,,,,,,,,,,,,,,,,,,,,,,,,,,,,,,,,,,,,,,,,,,,,,,,,,,,,,,,,,,,,,,,,,,,,,,,,,,,,,,,,,,,,,,,,,,,,,,,,,,,,,,,,,,,,,,,,,,,,,,,,,,,,,,,,
,,,,,,601a59260b84c52578005e4d,62c53a4ce5224759483cd7ff,2022-07-06_09h31.37.115,Colour_Asymmetry_Pilot,2022.1.3,Win32,60.2373351,62c50e9c1127f2cd403a315f,0,59,59,95,1,fourthree,,,,,,,,,,,,,,,,,,,,,,,,,,,,,,,,,,,,,,,,,,,,,,,,,,,,,,,,,,,,,,,,,,,,,,,,,,,,,,,,,,,,,,,,,,,,,,,,,,,,,,,,,,,,,,,,,,,,,,,,,,,,,,,,,,,,,,,,,,,,,,,,,,,,,,,,,,,,,
,,,,,,601a59260b84c52578005e4d,62c53a4ce5224759483cd7ff,2022-07-06_09h31.37.115,Colour_Asymmetry_Pilot,2022.1.3,Win32,60.2373351,62c50e9c1127f2cd403a315f,0,60,60,69,1,threefour,,,,,,,,,,,,,,,,,,,,,,,,,,,,,,,,,,,,,,,,,,,,,,,,,,,,,,,,,,,,,,,,,,,,,,,,,,,,,,,,,,,,,,,,,,,,,,,,,,,,,,,,,,,,,,,,,,,,,,,,,,,,,,,,,,,,,,,,,,,,,,,,,,,,,,,,,,,,,
,,,,,,601a59260b84c52578005e4d,62c53a4ce5224759483cd7ff,2022-07-06_09h31.37.115,Colour_Asymmetry_Pilot,2022.1.3,Win32,60.2373351,62c50e9c1127f2cd403a315f,0,61,61,109,1,threefour,,,,,,,,,,,,,,,,,,,,,,,,,,,,,,,,,,,,,,,,,,,,,,,,,,,,,,,,,,,,,,,,,,,,,,,,,,,,,,,,,,,,,,,,,,,,,,,,,,,,,,,,,,,,,,,,,,,,,,,,,,,,,,,,,,,,,,,,,,,,,,,,,,,,,,,,,,,,,
,,,,,,601a59260b84c52578005e4d,62c53a4ce5224759483cd7ff,2022-07-06_09h31.37.115,Colour_Asymmetry_Pilot,2022.1.3,Win32,60.2373351,62c50e9c1127f2cd403a315f,0,62,62,105,1,onethree,,,,,,,,,,,,,,,,,,,,,,,,,,,,,,,,,,,,,,,,,,,,,,,,,,,,,,,,,,,,,,,,,,,,,,,,,,,,,,,,,,,,,,,,,,,,,,,,,,,,,,,,,,,,,,,,,,,,,,,,,,,,,,,,,,,,,,,,,,,,,,,,,,,,,,,,,,,,,
,,,,,,601a59260b84c52578005e4d,62c53a4ce5224759483cd7ff,2022-07-06_09h31.37.115,Colour_Asymmetry_Pilot,2022.1.3,Win32,60.2373351,62c50e9c1127f2cd403a315f,0,63,63,53,1,threefour,,,,,,,,,,,,,,,,,,,,,,,,,,,,,,,,,,,,,,,,,,,,,,,,,,,,,,,,,,,,,,,,,,,,,,,,,,,,,,,,,,,,,,,,,,,,,,,,,,,,,,,,,,,,,,,,,,,,,,,,,,,,,,,,,,,,,,,,,,,,,,,,,,,,,,,,,,,,,
,,,,,,601a59260b84c52578005e4d,62c53a4ce5224759483cd7ff,2022-07-06_09h31.37.115,Colour_Asymmetry_Pilot,2022.1.3,Win32,60.2373351,62c50e9c1127f2cd403a315f,0,64,64,155,1,twofour,,,,,,,,,,,,,,,,,,,,,,,,,,,,,,,,,,,,,,,,,,,,,,,,,,,,,,,,,,,,,,,,,,,,,,,,,,,,,,,,,,,,,,,,,,,,,,,,,,,,,,,,,,,,,,,,,,,,,,,,,,,,,,,,,,,,,,,,,,,,,,,,,,,,,,,,,,,,,
,,,,,,601a59260b84c52578005e4d,62c53a4ce5224759483cd7ff,2022-07-06_09h31.37.115,Colour_Asymmetry_Pilot,2022.1.3,Win32,60.2373351,62c50e9c1127f2cd403a315f,0,65,65,150,1,fourtwo,,,,,,,,,,,,,,,,,,,,,,,,,,,,,,,,,,,,,,,,,,,,,,,,,,,,,,,,,,,,,,,,,,,,,,,,,,,,,,,,,,,,,,,,,,,,,,,,,,,,,,,,,,,,,,,,,,,,,,,,,,,,,,,,,,,,,,,,,,,,,,,,,,,,,,,,,,,,,
,,,,,,601a59260b84c52578005e4d,62c53a4ce5224759483cd7ff,2022-07-06_09h31.37.115,Colour_Asymmetry_Pilot,2022.1.3,Win32,60.2373351,62c50e9c1127f2cd403a315f,0,66,66,45,1,threefour,,,,,,,,,,,,,,,,,,,,,,,,,,,,,,,,,,,,,,,,,,,,,,,,,,,,,,,,,,,,,,,,,,,,,,,,,,,,,,,,,,,,,,,,,,,,,,,,,,,,,,,,,,,,,,,,,,,,,,,,,,,,,,,,,,,,,,,,,,,,,,,,,,,,,,,,,,,,,
,,,,,,601a59260b84c52578005e4d,62c53a4ce5224759483cd7ff,2022-07-06_09h31.37.115,Colour_Asymmetry_Pilot,2022.1.3,Win32,60.2373351,62c50e9c1127f2cd403a315f,0,67,67,120,1,onetwo,,,,,,,,,,,,,,,,,,,,,,,,,,,,,,,,,,,,,,,,,,,,,,,,,,,,,,,,,,,,,,,,,,,,,,,,,,,,,,,,,,,,,,,,,,,,,,,,,,,,,,,,,,,,,,,,,,,,,,,,,,,,,,,,,,,,,,,,,,,,,,,,,,,,,,,,,,,,,
,,,,,,601a59260b84c52578005e4d,62c53a4ce5224759483cd7ff,2022-07-06_09h31.37.115,Colour_Asymmetry_Pilot,2022.1.3,Win32,60.2373351,62c50e9c1127f2cd403a315f,0,68,68,67,1,twofour,,,,,,,,,,,,,,,,,,,,,,,,,,,,,,,,,,,,,,,,,,,,,,,,,,,,,,,,,,,,,,,,,,,,,,,,,,,,,,,,,,,,,,,,,,,,,,,,,,,,,,,,,,,,,,,,,,,,,,,,,,,,,,,,,,,,,,,,,,,,,,,,,,,,,,,,,,,,,
,,,,,,601a59260b84c52578005e4d,62c53a4ce5224759483cd7ff,2022-07-06_09h31.37.115,Colour_Asymmetry_Pilot,2022.1.3,Win32,60.2373351,62c50e9c1127f2cd403a315f,0,69,69,75,1,twofour,,,,,,,,,,,,,,,,,,,,,,,,,,,,,,,,,,,,,,,,,,,,,,,,,,,,,,,,,,,,,,,,,,,,,,,,,,,,,,,,,,,,,,,,,,,,,,,,,,,,,,,,,,,,,,,,,,,,,,,,,,,,,,,,,,,,,,,,,,,,,,,,,,,,,,,,,,,,,
,,,,,,601a59260b84c52578005e4d,62c53a4ce5224759483cd7ff,2022-07-06_09h31.37.115,Colour_Asymmetry_Pilot,2022.1.3,Win32,60.2373351,62c50e9c1127f2cd403a315f,0,70,70,16,1,onetwo,,,,,,,,,,,,,,,,,,,,,,,,,,,,,,,,,,,,,,,,,,,,,,,,,,,,,,,,,,,,,,,,,,,,,,,,,,,,,,,,,,,,,,,,,,,,,,,,,,,,,,,,,,,,,,,,,,,,,,,,,,,,,,,,,,,,,,,,,,,,,,,,,,,,,,,,,,,,,
,,,,,,601a59260b84c52578005e4d,62c53a4ce5224759483cd7ff,2022-07-06_09h31.37.115,Colour_Asymmetry_Pilot,2022.1.3,Win32,60.2373351,62c50e9c1127f2cd403a315f,0,71,71,129,1,onethree,,,,,,,,,,,,,,,,,,,,,,,,,,,,,,,,,,,,,,,,,,,,,,,,,,,,,,,,,,,,,,,,,,,,,,,,,,,,,,,,,,,,,,,,,,,,,,,,,,,,,,,,,,,,,,,,,,,,,,,,,,,,,,,,,,,,,,,,,,,,,,,,,,,,,,,,,,,,,
,,,,,,601a59260b84c52578005e4d,62c53a4ce5224759483cd7ff,2022-07-06_09h31.37.115,Colour_Asymmetry_Pilot,2022.1.3,Win32,60.2373351,62c50e9c1127f2cd403a315f,0,72,72,137,1,onethree,,,,,,,,,,,,,,,,,,,,,,,,,,,,,,,,,,,,,,,,,,,,,,,,,,,,,,,,,,,,,,,,,,,,,,,,,,,,,,,,,,,,,,,,,,,,,,,,,,,,,,,,,,,,,,,,,,,,,,,,,,,,,,,,,,,,,,,,,,,,,,,,,,,,,,,,,,,,,
,,,,,,601a59260b84c52578005e4d,62c53a4ce5224759483cd7ff,2022-07-06_09h31.37.115,Colour_Asymmetry_Pilot,2022.1.3,Win32,60.2373351,62c50e9c1127f2cd403a315f,0,73,73,5,1,threefour,,,,,,,,,,,,,,,,,,,,,,,,,,,,,,,,,,,,,,,,,,,,,,,,,,,,,,,,,,,,,,,,,,,,,,,,,,,,,,,,,,,,,,,,,,,,,,,,,,,,,,,,,,,,,,,,,,,,,,,,,,,,,,,,,,,,,,,,,,,,,,,,,,,,,,,,,,,,,
,,,,,,601a59260b84c52578005e4d,62c53a4ce5224759483cd7ff,2022-07-06_09h31.37.115,Colour_Asymmetry_Pilot,2022.1.3,Win32,60.2373351,62c50e9c1127f2cd403a315f,0,74,74,39,1,fourthree,,,,,,,,,,,,,,,,,,,,,,,,,,,,,,,,,,,,,,,,,,,,,,,,,,,,,,,,,,,,,,,,,,,,,,,,,,,,,,,,,,,,,,,,,,,,,,,,,,,,,,,,,,,,,,,,,,,,,,,,,,,,,,,,,,,,,,,,,,,,,,,,,,,,,,,,,,,,,
,,,,,,601a59260b84c52578005e4d,62c53a4ce5224759483cd7ff,2022-07-06_09h31.37.115,Colour_Asymmetry_Pilot,2022.1.3,Win32,60.2373351,62c50e9c1127f2cd403a315f,0,75,75,74,1,twoone,,,,,,,,,,,,,,,,,,,,,,,,,,,,,,,,,,,,,,,,,,,,,,,,,,,,,,,,,,,,,,,,,,,,,,,,,,,,,,,,,,,,,,,,,,,,,,,,,,,,,,,,,,,,,,,,,,,,,,,,,,,,,,,,,,,,,,,,,,,,,,,,,,,,,,,,,,,,,
,,,,,,601a59260b84c52578005e4d,62c53a4ce5224759483cd7ff,2022-07-06_09h31.37.115,Colour_Asymmetry_Pilot,2022.1.3,Win32,60.2373351,62c50e9c1127f2cd403a315f,0,76,76,100,1,threeone,,,,,,,,,,,,,,,,,,,,,,,,,,,,,,,,,,,,,,,,,,,,,,,,,,,,,,,,,,,,,,,,,,,,,,,,,,,,,,,,,,,,,,,,,,,,,,,,,,,,,,,,,,,,,,,,,,,,,,,,,,,,,,,,,,,,,,,,,,,,,,,,,,,,,,,,,,,,,
,,,,,,601a59260b84c52578005e4d,62c53a4ce5224759483cd7ff,2022-07-06_09h31.37.115,Colour_Asymmetry_Pilot,2022.1.3,Win32,60.2373351,62c50e9c1127f2cd403a315f,0,77,77,55,1,fourthree,,,,,,,,,,,,,,,,,,,,,,,,,,,,,,,,,,,,,,,,,,,,,,,,,,,,,,,,,,,,,,,,,,,,,,,,,,,,,,,,,,,,,,,,,,,,,,,,,,,,,,,,,,,,,,,,,,,,,,,,,,,,,,,,,,,,,,,,,,,,,,,,,,,,,,,,,,,,,
,,,,,,601a59260b84c52578005e4d,62c53a4ce5224759483cd7ff,2022-07-06_09h31.37.115,Colour_Asymmetry_Pilot,2022.1.3,Win32,60.2373351,62c50e9c1127f2cd403a315f,0,78,78,128,1,onetwo,,,,,,,,,,,,,,,,,,,,,,,,,,,,,,,,,,,,,,,,,,,,,,,,,,,,,,,,,,,,,,,,,,,,,,,,,,,,,,,,,,,,,,,,,,,,,,,,,,,,,,,,,,,,,,,,,,,,,,,,,,,,,,,,,,,,,,,,,,,,,,,,,,,,,,,,,,,,,
,,,,,,601a59260b84c52578005e4d,62c53a4ce5224759483cd7ff,2022-07-06_09h31.37.115,Colour_Asymmetry_Pilot,2022.1.3,Win32,60.2373351,62c50e9c1127f2cd403a315f,0,79,79,140,1,threeone,,,,,,,,,,,,,,,,,,,,,,,,,,,,,,,,,,,,,,,,,,,,,,,,,,,,,,,,,,,,,,,,,,,,,,,,,,,,,,,,,,,,,,,,,,,,,,,,,,,,,,,,,,,,,,,,,,,,,,,,,,,,,,,,,,,,,,,,,,,,,,,,,,,,,,,,,,,,,
,,,,,,601a59260b84c52578005e4d,62c53a4ce5224759483cd7ff,2022-07-06_09h31.37.115,Colour_Asymmetry_Pilot,2022.1.3,Win32,60.2373351,62c50e9c1127f2cd403a315f,0,80,80,14,1,fourtwo,,,,,,,,,,,,,,,,,,,,,,,,,,,,,,,,,,,,,,,,,,,,,,,,,,,,,,,,,,,,,,,,,,,,,,,,,,,,,,,,,,,,,,,,,,,,,,,,,,,,,,,,,,,,,,,,,,,,,,,,,,,,,,,,,,,,,,,,,,,,,,,,,,,,,,,,,,,,,
,,,,,,601a59260b84c52578005e4d,62c53a4ce5224759483cd7ff,2022-07-06_09h31.37.115,Colour_Asymmetry_Pilot,2022.1.3,Win32,60.2373351,62c50e9c1127f2cd403a315f,0,81,81,106,1,twoone,,,,,,,,,,,,,,,,,,,,,,,,,,,,,,,,,,,,,,,,,,,,,,,,,,,,,,,,,,,,,,,,,,,,,,,,,,,,,,,,,,,,,,,,,,,,,,,,,,,,,,,,,,,,,,,,,,,,,,,,,,,,,,,,,,,,,,,,,,,,,,,,,,,,,,,,,,,,,
,,,,,,601a59260b84c52578005e4d,62c53a4ce5224759483cd7ff,2022-07-06_09h31.37.115,Colour_Asymmetry_Pilot,2022.1.3,Win32,60.2373351,62c50e9c1127f2cd403a315f,0,82,82,99,1,twofour,,,,,,,,,,,,,,,,,,,,,,,,,,,,,,,,,,,,,,,,,,,,,,,,,,,,,,,,,,,,,,,,,,,,,,,,,,,,,,,,,,,,,,,,,,,,,,,,,,,,,,,,,,,,,,,,,,,,,,,,,,,,,,,,,,,,,,,,,,,,,,,,,,,,,,,,,,,,,
,,,,,,601a59260b84c52578005e4d,62c53a4ce5224759483cd7ff,2022-07-06_09h31.37.115,Colour_Asymmetry_Pilot,2022.1.3,Win32,60.2373351,62c50e9c1127f2cd403a315f,0,83,83,122,1,twoone,,,,,,,,,,,,,,,,,,,,,,,,,,,,,,,,,,,,,,,,,,,,,,,,,,,,,,,,,,,,,,,,,,,,,,,,,,,,,,,,,,,,,,,,,,,,,,,,,,,,,,,,,,,,,,,,,,,,,,,,,,,,,,,,,,,,,,,,,,,,,,,,,,,,,,,,,,,,,
,,,,,,601a59260b84c52578005e4d,62c53a4ce5224759483cd7ff,2022-07-06_09h31.37.115,Colour_Asymmetry_Pilot,2022.1.3,Win32,60.2373351,62c50e9c1127f2cd403a315f,0,84,84,79,1,fourthree,,,,,,,,,,,,,,,,,,,,,,,,,,,,,,,,,,,,,,,,,,,,,,,,,,,,,,,,,,,,,,,,,,,,,,,,,,,,,,,,,,,,,,,,,,,,,,,,,,,,,,,,,,,,,,,,,,,,,,,,,,,,,,,,,,,,,,,,,,,,,,,,,,,,,,,,,,,,,
,,,,,,601a59260b84c52578005e4d,62c53a4ce5224759483cd7ff,2022-07-06_09h31.37.115,Colour_Asymmetry_Pilot,2022.1.3,Win32,60.2373351,62c50e9c1127f2cd403a315f,0,85,85,20,1,threeone,,,,,,,,,,,,,,,,,,,,,,,,,,,,,,,,,,,,,,,,,,,,,,,,,,,,,,,,,,,,,,,,,,,,,,,,,,,,,,,,,,,,,,,,,,,,,,,,,,,,,,,,,,,,,,,,,,,,,,,,,,,,,,,,,,,,,,,,,,,,,,,,,,,,,,,,,,,,,
,,,,,,601a59260b84c52578005e4d,62c53a4ce5224759483cd7ff,2022-07-06_09h31.37.115,Colour_Asymmetry_Pilot,2022.1.3,Win32,60.2373351,62c50e9c1127f2cd403a315f,0,86,86,59,1,twofour,,,,,,,,,,,,,,,,,,,,,,,,,,,,,,,,,,,,,,,,,,,,,,,,,,,,,,,,,,,,,,,,,,,,,,,,,,,,,,,,,,,,,,,,,,,,,,,,,,,,,,,,,,,,,,,,,,,,,,,,,,,,,,,,,,,,,,,,,,,,,,,,,,,,,,,,,,,,,
,,,,,,601a59260b84c52578005e4d,62c53a4ce5224759483cd7ff,2022-07-06_09h31.37.115,Colour_Asymmetry_Pilot,2022.1.3,Win32,60.2373351,62c50e9c1127f2cd403a315f,0,87,87,38,1,fourtwo,,,,,,,,,,,,,,,,,,,,,,,,,,,,,,,,,,,,,,,,,,,,,,,,,,,,,,,,,,,,,,,,,,,,,,,,,,,,,,,,,,,,,,,,,,,,,,,,,,,,,,,,,,,,,,,,,,,,,,,,,,,,,,,,,,,,,,,,,,,,,,,,,,,,,,,,,,,,,
,,,,,,601a59260b84c52578005e4d,62c53a4ce5224759483cd7ff,2022-07-06_09h31.37.115,Colour_Asymmetry_Pilot,2022.1.3,Win32,60.2373351,62c50e9c1127f2cd403a315f,0,88,88,147,1,twofour,,,,,,,,,,,,,,,,,,,,,,,,,,,,,,,,,,,,,,,,,,,,,,,,,,,,,,,,,,,,,,,,,,,,,,,,,,,,,,,,,,,,,,,,,,,,,,,,,,,,,,,,,,,,,,,,,,,,,,,,,,,,,,,,,,,,,,,,,,,,,,,,,,,,,,,,,,,,,
,,,,,,601a59260b84c52578005e4d,62c53a4ce5224759483cd7ff,2022-07-06_09h31.37.115,Colour_Asymmetry_Pilot,2022.1.3,Win32,60.2373351,62c50e9c1127f2cd403a315f,0,89,89,31,1,fourthree,,,,,,,,,,,,,,,,,,,,,,,,,,,,,,,,,,,,,,,,,,,,,,,,,,,,,,,,,,,,,,,,,,,,,,,,,,,,,,,,,,,,,,,,,,,,,,,,,,,,,,,,,,,,,,,,,,,,,,,,,,,,,,,,,,,,,,,,,,,,,,,,,,,,,,,,,,,,,
,,,,,,601a59260b84c52578005e4d,62c53a4ce5224759483cd7ff,2022-07-06_09h31.37.115,Colour_Asymmetry_Pilot,2022.1.3,Win32,60.2373351,62c50e9c1127f2cd403a315f,0,90,90,103,1,fourthree,,,,,,,,,,,,,,,,,,,,,,,,,,,,,,,,,,,,,,,,,,,,,,,,,,,,,,,,,,,,,,,,,,,,,,,,,,,,,,,,,,,,,,,,,,,,,,,,,,,,,,,,,,,,,,,,,,,,,,,,,,,,,,,,,,,,,,,,,,,,,,,,,,,,,,,,,,,,,
,,,,,,601a59260b84c52578005e4d,62c53a4ce5224759483cd7ff,2022-07-06_09h31.37.115,Colour_Asymmetry_Pilot,2022.1.3,Win32,60.2373351,62c50e9c1127f2cd403a315f,0,91,91,7,1,fourthree,,,,,,,,,,,,,,,,,,,,,,,,,,,,,,,,,,,,,,,,,,,,,,,,,,,,,,,,,,,,,,,,,,,,,,,,,,,,,,,,,,,,,,,,,,,,,,,,,,,,,,,,,,,,,,,,,,,,,,,,,,,,,,,,,,,,,,,,,,,,,,,,,,,,,,,,,,,,,
,,,,,,601a59260b84c52578005e4d,62c53a4ce5224759483cd7ff,2022-07-06_09h31.37.115,Colour_Asymmetry_Pilot,2022.1.3,Win32,60.2373351,62c50e9c1127f2cd403a315f,0,92,92,139,1,twofour,,,,,,,,,,,,,,,,,,,,,,,,,,,,,,,,,,,,,,,,,,,,,,,,,,,,,,,,,,,,,,,,,,,,,,,,,,,,,,,,,,,,,,,,,,,,,,,,,,,,,,,,,,,,,,,,,,,,,,,,,,,,,,,,,,,,,,,,,,,,,,,,,,,,,,,,,,,,,
,,,,,,601a59260b84c52578005e4d,62c53a4ce5224759483cd7ff,2022-07-06_09h31.37.115,Colour_Asymmetry_Pilot,2022.1.3,Win32,60.2373351,62c50e9c1127f2cd403a315f,0,93,93,93,1,threefour,,,,,,,,,,,,,,,,,,,,,,,,,,,,,,,,,,,,,,,,,,,,,,,,,,,,,,,,,,,,,,,,,,,,,,,,,,,,,,,,,,,,,,,,,,,,,,,,,,,,,,,,,,,,,,,,,,,,,,,,,,,,,,,,,,,,,,,,,,,,,,,,,,,,,,,,,,,,,
,,,,,,601a59260b84c52578005e4d,62c53a4ce5224759483cd7ff,2022-07-06_09h31.37.115,Colour_Asymmetry_Pilot,2022.1.3,Win32,60.2373351,62c50e9c1127f2cd403a315f,0,94,94,144,1,onetwo,,,,,,,,,,,,,,,,,,,,,,,,,,,,,,,,,,,,,,,,,,,,,,,,,,,,,,,,,,,,,,,,,,,,,,,,,,,,,,,,,,,,,,,,,,,,,,,,,,,,,,,,,,,,,,,,,,,,,,,,,,,,,,,,,,,,,,,,,,,,,,,,,,,,,,,,,,,,,
,,,,,,601a59260b84c52578005e4d,62c53a4ce5224759483cd7ff,2022-07-06_09h31.37.115,Colour_Asymmetry_Pilot,2022.1.3,Win32,60.2373351,62c50e9c1127f2cd403a315f,0,95,95,44,1,threeone,,,,,,,,,,,,,,,,,,,,,,,,,,,,,,,,,,,,,,,,,,,,,,,,,,,,,,,,,,,,,,,,,,,,,,,,,,,,,,,,,,,,,,,,,,,,,,,,,,,,,,,,,,,,,,,,,,,,,,,,,,,,,,,,,,,,,,,,,,,,,,,,,,,,,,,,,,,,,
,,,,,,601a59260b84c52578005e4d,62c53a4ce5224759483cd7ff,2022-07-06_09h31.37.115,Colour_Asymmetry_Pilot,2022.1.3,Win32,60.2373351,62c50e9c1127f2cd403a315f,0,96,96,43,1,twofour,,,,,,,,,,,,,,,,,,,,,,,,,,,,,,,,,,,,,,,,,,,,,,,,,,,,,,,,,,,,,,,,,,,,,,,,,,,,,,,,,,,,,,,,,,,,,,,,,,,,,,,,,,,,,,,,,,,,,,,,,,,,,,,,,,,,,,,,,,,,,,,,,,,,,,,,,,,,,
,,,,,,601a59260b84c52578005e4d,62c53a4ce5224759483cd7ff,2022-07-06_09h31.37.115,Colour_Asymmetry_Pilot,2022.1.3,Win32,60.2373351,62c50e9c1127f2cd403a315f,0,97,97,37,1,threefour,,,,,,,,,,,,,,,,,,,,,,,,,,,,,,,,,,,,,,,,,,,,,,,,,,,,,,,,,,,,,,,,,,,,,,,,,,,,,,,,,,,,,,,,,,,,,,,,,,,,,,,,,,,,,,,,,,,,,,,,,,,,,,,,,,,,,,,,,,,,,,,,,,,,,,,,,,,,,
,,,,,,601a59260b84c52578005e4d,62c53a4ce5224759483cd7ff,2022-07-06_09h31.37.115,Colour_Asymmetry_Pilot,2022.1.3,Win32,60.2373351,62c50e9c1127f2cd403a315f,0,98,98,133,1,threefour,,,,,,,,,,,,,,,,,,,,,,,,,,,,,,,,,,,,,,,,,,,,,,,,,,,,,,,,,,,,,,,,,,,,,,,,,,,,,,,,,,,,,,,,,,,,,,,,,,,,,,,,,,,,,,,,,,,,,,,,,,,,,,,,,,,,,,,,,,,,,,,,,,,,,,,,,,,,,
,,,,,,601a59260b84c52578005e4d,62c53a4ce5224759483cd7ff,2022-07-06_09h31.37.115,Colour_Asymmetry_Pilot,2022.1.3,Win32,60.2373351,62c50e9c1127f2cd403a315f,0,99,99,117,1,threefour,,,,,,,,,,,,,,,,,,,,,,,,,,,,,,,,,,,,,,,,,,,,,,,,,,,,,,,,,,,,,,,,,,,,,,,,,,,,,,,,,,,,,,,,,,,,,,,,,,,,,,,,,,,,,,,,,,,,,,,,,,,,,,,,,,,,,,,,,,,,,,,,,,,,,,,,,,,,,
,,,,,,601a59260b84c52578005e4d,62c53a4ce5224759483cd7ff,2022-07-06_09h31.37.115,Colour_Asymmetry_Pilot,2022.1.3,Win32,60.2373351,62c50e9c1127f2cd403a315f,0,100,100,104,1,onetwo,,,,,,,,,,,,,,,,,,,,,,,,,,,,,,,,,,,,,,,,,,,,,,,,,,,,,,,,,,,,,,,,,,,,,,,,,,,,,,,,,,,,,,,,,,,,,,,,,,,,,,,,,,,,,,,,,,,,,,,,,,,,,,,,,,,,,,,,,,,,,,,,,,,,,,,,,,,,,
,,,,,,601a59260b84c52578005e4d,62c53a4ce5224759483cd7ff,2022-07-06_09h31.37.115,Colour_Asymmetry_Pilot,2022.1.3,Win32,60.2373351,62c50e9c1127f2cd403a315f,0,101,101,153,1,onethree,,,,,,,,,,,,,,,,,,,,,,,,,,,,,,,,,,,,,,,,,,,,,,,,,,,,,,,,,,,,,,,,,,,,,,,,,,,,,,,,,,,,,,,,,,,,,,,,,,,,,,,,,,,,,,,,,,,,,,,,,,,,,,,,,,,,,,,,,,,,,,,,,,,,,,,,,,,,,
,,,,,,601a59260b84c52578005e4d,62c53a4ce5224759483cd7ff,2022-07-06_09h31.37.115,Colour_Asymmetry_Pilot,2022.1.3,Win32,60.2373351,62c50e9c1127f2cd403a315f,0,102,102,158,1,fourtwo,,,,,,,,,,,,,,,,,,,,,,,,,,,,,,,,,,,,,,,,,,,,,,,,,,,,,,,,,,,,,,,,,,,,,,,,,,,,,,,,,,,,,,,,,,,,,,,,,,,,,,,,,,,,,,,,,,,,,,,,,,,,,,,,,,,,,,,,,,,,,,,,,,,,,,,,,,,,,
,,,,,,601a59260b84c52578005e4d,62c53a4ce5224759483cd7ff,2022-07-06_09h31.37.115,Colour_Asymmetry_Pilot,2022.1.3,Win32,60.2373351,62c50e9c1127f2cd403a315f,0,103,103,62,1,fourtwo,,,,,,,,,,,,,,,,,,,,,,,,,,,,,,,,,,,,,,,,,,,,,,,,,,,,,,,,,,,,,,,,,,,,,,,,,,,,,,,,,,,,,,,,,,,,,,,,,,,,,,,,,,,,,,,,,,,,,,,,,,,,,,,,,,,,,,,,,,,,,,,,,,,,,,,,,,,,,
,,,,,,601a59260b84c52578005e4d,62c53a4ce5224759483cd7ff,2022-07-06_09h31.37.115,Colour_Asymmetry_Pilot,2022.1.3,Win32,60.2373351,62c50e9c1127f2cd403a315f,0,104,104,84,1,threeone,,,,,,,,,,,,,,,,,,,,,,,,,,,,,,,,,,,,,,,,,,,,,,,,,,,,,,,,,,,,,,,,,,,,,,,,,,,,,,,,,,,,,,,,,,,,,,,,,,,,,,,,,,,,,,,,,,,,,,,,,,,,,,,,,,,,,,,,,,,,,,,,,,,,,,,,,,,,,
,,,,,,601a59260b84c52578005e4d,62c53a4ce5224759483cd7ff,2022-07-06_09h31.37.115,Colour_Asymmetry_Pilot,2022.1.3,Win32,60.2373351,62c50e9c1127f2cd403a315f,0,105,105,18,1,twoone,,,,,,,,,,,,,,,,,,,,,,,,,,,,,,,,,,,,,,,,,,,,,,,,,,,,,,,,,,,,,,,,,,,,,,,,,,,,,,,,,,,,,,,,,,,,,,,,,,,,,,,,,,,,,,,,,,,,,,,,,,,,,,,,,,,,,,,,,,,,,,,,,,,,,,,,,,,,,
,,,,,,601a59260b84c52578005e4d,62c53a4ce5224759483cd7ff,2022-07-06_09h31.37.115,Colour_Asymmetry_Pilot,2022.1.3,Win32,60.2373351,62c50e9c1127f2cd403a315f,0,106,106,143,1,fourthree,,,,,,,,,,,,,,,,,,,,,,,,,,,,,,,,,,,,,,,,,,,,,,,,,,,,,,,,,,,,,,,,,,,,,,,,,,,,,,,,,,,,,,,,,,,,,,,,,,,,,,,,,,,,,,,,,,,,,,,,,,,,,,,,,,,,,,,,,,,,,,,,,,,,,,,,,,,,,
,,,,,,601a59260b84c52578005e4d,62c53a4ce5224759483cd7ff,2022-07-06_09h31.37.115,Colour_Asymmetry_Pilot,2022.1.3,Win32,60.2373351,62c50e9c1127f2cd403a315f,0,107,107,89,1,onethree,,,,,,,,,,,,,,,,,,,,,,,,,,,,,,,,,,,,,,,,,,,,,,,,,,,,,,,,,,,,,,,,,,,,,,,,,,,,,,,,,,,,,,,,,,,,,,,,,,,,,,,,,,,,,,,,,,,,,,,,,,,,,,,,,,,,,,,,,,,,,,,,,,,,,,,,,,,,,
,,,,,,601a59260b84c52578005e4d,62c53a4ce5224759483cd7ff,2022-07-06_09h31.37.115,Colour_Asymmetry_Pilot,2022.1.3,Win32,60.2373351,62c50e9c1127f2cd403a315f,0,108,108,83,1,twofour,,,,,,,,,,,,,,,,,,,,,,,,,,,,,,,,,,,,,,,,,,,,,,,,,,,,,,,,,,,,,,,,,,,,,,,,,,,,,,,,,,,,,,,,,,,,,,,,,,,,,,,,,,,,,,,,,,,,,,,,,,,,,,,,,,,,,,,,,,,,,,,,,,,,,,,,,,,,,
,,,,,,601a59260b84c52578005e4d,62c53a4ce5224759483cd7ff,2022-07-06_09h31.37.115,Colour_Asymmetry_Pilot,2022.1.3,Win32,60.2373351,62c50e9c1127f2cd403a315f,0,109,109,1,1,onethree,,,,,,,,,,,,,,,,,,,,,,,,,,,,,,,,,,,,,,,,,,,,,,,,,,,,,,,,,,,,,,,,,,,,,,,,,,,,,,,,,,,,,,,,,,,,,,,,,,,,,,,,,,,,,,,,,,,,,,,,,,,,,,,,,,,,,,,,,,,,,,,,,,,,,,,,,,,,,
,,,,,,601a59260b84c52578005e4d,62c53a4ce5224759483cd7ff,2022-07-06_09h31.37.115,Colour_Asymmetry_Pilot,2022.1.3,Win32,60.2373351,62c50e9c1127f2cd403a315f,0,110,110,102,1,fourtwo,,,,,,,,,,,,,,,,,,,,,,,,,,,,,,,,,,,,,,,,,,,,,,,,,,,,,,,,,,,,,,,,,,,,,,,,,,,,,,,,,,,,,,,,,,,,,,,,,,,,,,,,,,,,,,,,,,,,,,,,,,,,,,,,,,,,,,,,,,,,,,,,,,,,,,,,,,,,,
,,,,,,601a59260b84c52578005e4d,62c53a4ce5224759483cd7ff,2022-07-06_09h31.37.115,Colour_Asymmetry_Pilot,2022.1.3,Win32,60.2373351,62c50e9c1127f2cd403a315f,0,111,111,149,1,threefour,,,,,,,,,,,,,,,,,,,,,,,,,,,,,,,,,,,,,,,,,,,,,,,,,,,,,,,,,,,,,,,,,,,,,,,,,,,,,,,,,,,,,,,,,,,,,,,,,,,,,,,,,,,,,,,,,,,,,,,,,,,,,,,,,,,,,,,,,,,,,,,,,,,,,,,,,,,,,
,,,,,,601a59260b84c52578005e4d,62c53a4ce5224759483cd7ff,2022-07-06_09h31.37.115,Colour_Asymmetry_Pilot,2022.1.3,Win32,60.2373351,62c50e9c1127f2cd403a315f,0,112,112,29,1,threefour,,,,,,,,,,,,,,,,,,,,,,,,,,,,,,,,,,,,,,,,,,,,,,,,,,,,,,,,,,,,,,,,,,,,,,,,,,,,,,,,,,,,,,,,,,,,,,,,,,,,,,,,,,,,,,,,,,,,,,,,,,,,,,,,,,,,,,,,,,,,,,,,,,,,,,,,,,,,,
,,,,,,601a59260b84c52578005e4d,62c53a4ce5224759483cd7ff,2022-07-06_09h31.37.115,Colour_Asymmetry_Pilot,2022.1.3,Win32,60.2373351,62c50e9c1127f2cd403a315f,0,113,113,19,1,twofour,,,,,,,,,,,,,,,,,,,,,,,,,,,,,,,,,,,,,,,,,,,,,,,,,,,,,,,,,,,,,,,,,,,,,,,,,,,,,,,,,,,,,,,,,,,,,,,,,,,,,,,,,,,,,,,,,,,,,,,,,,,,,,,,,,,,,,,,,,,,,,,,,,,,,,,,,,,,,
,,,,,,601a59260b84c52578005e4d,62c53a4ce5224759483cd7ff,2022-07-06_09h31.37.115,Colour_Asymmetry_Pilot,2022.1.3,Win32,60.2373351,62c50e9c1127f2cd403a315f,0,114,114,86,1,fourtwo,,,,,,,,,,,,,,,,,,,,,,,,,,,,,,,,,,,,,,,,,,,,,,,,,,,,,,,,,,,,,,,,,,,,,,,,,,,,,,,,,,,,,,,,,,,,,,,,,,,,,,,,,,,,,,,,,,,,,,,,,,,,,,,,,,,,,,,,,,,,,,,,,,,,,,,,,,,,,
,,,,,,601a59260b84c52578005e4d,62c53a4ce5224759483cd7ff,2022-07-06_09h31.37.115,Colour_Asymmetry_Pilot,2022.1.3,Win32,60.2373351,62c50e9c1127f2cd403a315f,0,115,115,4,1,threeone,,,,,,,,,,,,,,,,,,,,,,,,,,,,,,,,,,,,,,,,,,,,,,,,,,,,,,,,,,,,,,,,,,,,,,,,,,,,,,,,,,,,,,,,,,,,,,,,,,,,,,,,,,,,,,,,,,,,,,,,,,,,,,,,,,,,,,,,,,,,,,,,,,,,,,,,,,,,,
,,,,,,601a59260b84c52578005e4d,62c53a4ce5224759483cd7ff,2022-07-06_09h31.37.115,Colour_Asymmetry_Pilot,2022.1.3,Win32,60.2373351,62c50e9c1127f2cd403a315f,0,116,116,68,1,threeone,,,,,,,,,,,,,,,,,,,,,,,,,,,,,,,,,,,,,,,,,,,,,,,,,,,,,,,,,,,,,,,,,,,,,,,,,,,,,,,,,,,,,,,,,,,,,,,,,,,,,,,,,,,,,,,,,,,,,,,,,,,,,,,,,,,,,,,,,,,,,,,,,,,,,,,,,,,,,
,,,,,,601a59260b84c52578005e4d,62c53a4ce5224759483cd7ff,2022-07-06_09h31.37.115,Colour_Asymmetry_Pilot,2022.1.3,Win32,60.2373351,62c50e9c1127f2cd403a315f,0,117,117,15,1,fourthree,,,,,,,,,,,,,,,,,,,,,,,,,,,,,,,,,,,,,,,,,,,,,,,,,,,,,,,,,,,,,,,,,,,,,,,,,,,,,,,,,,,,,,,,,,,,,,,,,,,,,,,,,,,,,,,,,,,,,,,,,,,,,,,,,,,,,,,,,,,,,,,,,,,,,,,,,,,,,
,,,,,,601a59260b84c52578005e4d,62c53a4ce5224759483cd7ff,2022-07-06_09h31.37.115,Colour_Asymmetry_Pilot,2022.1.3,Win32,60.2373351,62c50e9c1127f2cd403a315f,0,118,118,146,1,twoone,,,,,,,,,,,,,,,,,,,,,,,,,,,,,,,,,,,,,,,,,,,,,,,,,,,,,,,,,,,,,,,,,,,,,,,,,,,,,,,,,,,,,,,,,,,,,,,,,,,,,,,,,,,,,,,,,,,,,,,,,,,,,,,,,,,,,,,,,,,,,,,,,,,,,,,,,,,,,
,,,,,,601a59260b84c52578005e4d,62c53a4ce5224759483cd7ff,2022-07-06_09h31.37.115,Colour_Asymmetry_Pilot,2022.1.3,Win32,60.2373351,62c50e9c1127f2cd403a315f,0,119,119,136,1,onetwo,,,,,,,,,,,,,,,,,,,,,,,,,,,,,,,,,,,,,,,,,,,,,,,,,,,,,,,,,,,,,,,,,,,,,,,,,,,,,,,,,,,,,,,,,,,,,,,,,,,,,,,,,,,,,,,,,,,,,,,,,,,,,,,,,,,,,,,,,,,,,,,,,,,,,,,,,,,,,
,,,,,,601a59260b84c52578005e4d,62c53a4ce5224759483cd7ff,2022-07-06_09h31.37.115,Colour_Asymmetry_Pilot,2022.1.3,Win32,60.2373351,62c50e9c1127f2cd403a315f,0,120,120,65,1,onethree,,,,,,,,,,,,,,,,,,,,,,,,,,,,,,,,,,,,,,,,,,,,,,,,,,,,,,,,,,,,,,,,,,,,,,,,,,,,,,,,,,,,,,,,,,,,,,,,,,,,,,,,,,,,,,,,,,,,,,,,,,,,,,,,,,,,,,,,,,,,,,,,,,,,,,,,,,,,,
,,,,,,601a59260b84c52578005e4d,62c53a4ce5224759483cd7ff,2022-07-06_09h31.37.115,Colour_Asymmetry_Pilot,2022.1.3,Win32,60.2373351,62c50e9c1127f2cd403a315f,0,121,121,131,1,twofour,,,,,,,,,,,,,,,,,,,,,,,,,,,,,,,,,,,,,,,,,,,,,,,,,,,,,,,,,,,,,,,,,,,,,,,,,,,,,,,,,,,,,,,,,,,,,,,,,,,,,,,,,,,,,,,,,,,,,,,,,,,,,,,,,,,,,,,,,,,,,,,,,,,,,,,,,,,,,
,,,,,,601a59260b84c52578005e4d,62c53a4ce5224759483cd7ff,2022-07-06_09h31.37.115,Colour_Asymmetry_Pilot,2022.1.3,Win32,60.2373351,62c50e9c1127f2cd403a315f,0,122,122,61,1,threefour,,,,,,,,,,,,,,,,,,,,,,,,,,,,,,,,,,,,,,,,,,,,,,,,,,,,,,,,,,,,,,,,,,,,,,,,,,,,,,,,,,,,,,,,,,,,,,,,,,,,,,,,,,,,,,,,,,,,,,,,,,,,,,,,,,,,,,,,,,,,,,,,,,,,,,,,,,,,,
,,,,,,601a59260b84c52578005e4d,62c53a4ce5224759483cd7ff,2022-07-06_09h31.37.115,Colour_Asymmetry_Pilot,2022.1.3,Win32,60.2373351,62c50e9c1127f2cd403a315f,0,123,123,8,1,onetwo,,,,,,,,,,,,,,,,,,,,,,,,,,,,,,,,,,,,,,,,,,,,,,,,,,,,,,,,,,,,,,,,,,,,,,,,,,,,,,,,,,,,,,,,,,,,,,,,,,,,,,,,,,,,,,,,,,,,,,,,,,,,,,,,,,,,,,,,,,,,,,,,,,,,,,,,,,,,,
,,,,,,601a59260b84c52578005e4d,62c53a4ce5224759483cd7ff,2022-07-06_09h31.37.115,Colour_Asymmetry_Pilot,2022.1.3,Win32,60.2373351,62c50e9c1127f2cd403a315f,0,124,124,34,1,twoone,,,,,,,,,,,,,,,,,,,,,,,,,,,,,,,,,,,,,,,,,,,,,,,,,,,,,,,,,,,,,,,,,,,,,,,,,,,,,,,,,,,,,,,,,,,,,,,,,,,,,,,,,,,,,,,,,,,,,,,,,,,,,,,,,,,,,,,,,,,,,,,,,,,,,,,,,,,,,
,,,,,,601a59260b84c52578005e4d,62c53a4ce5224759483cd7ff,2022-07-06_09h31.37.115,Colour_Asymmetry_Pilot,2022.1.3,Win32,60.2373351,62c50e9c1127f2cd403a315f,0,125,125,10,1,twoone,,,,,,,,,,,,,,,,,,,,,,,,,,,,,,,,,,,,,,,,,,,,,,,,,,,,,,,,,,,,,,,,,,,,,,,,,,,,,,,,,,,,,,,,,,,,,,,,,,,,,,,,,,,,,,,,,,,,,,,,,,,,,,,,,,,,,,,,,,,,,,,,,,,,,,,,,,,,,
,,,,,,601a59260b84c52578005e4d,62c53a4ce5224759483cd7ff,2022-07-06_09h31.37.115,Colour_Asymmetry_Pilot,2022.1.3,Win32,60.2373351,62c50e9c1127f2cd403a315f,0,126,126,88,1,onetwo,,,,,,,,,,,,,,,,,,,,,,,,,,,,,,,,,,,,,,,,,,,,,,,,,,,,,,,,,,,,,,,,,,,,,,,,,,,,,,,,,,,,,,,,,,,,,,,,,,,,,,,,,,,,,,,,,,,,,,,,,,,,,,,,,,,,,,,,,,,,,,,,,,,,,,,,,,,,,
,,,,,,601a59260b84c52578005e4d,62c53a4ce5224759483cd7ff,2022-07-06_09h31.37.115,Colour_Asymmetry_Pilot,2022.1.3,Win32,60.2373351,62c50e9c1127f2cd403a315f,0,127,127,134,1,fourtwo,,,,,,,,,,,,,,,,,,,,,,,,,,,,,,,,,,,,,,,,,,,,,,,,,,,,,,,,,,,,,,,,,,,,,,,,,,,,,,,,,,,,,,,,,,,,,,,,,,,,,,,,,,,,,,,,,,,,,,,,,,,,,,,,,,,,,,,,,,,,,,,,,,,,,,,,,,,,,
,,,,,,601a59260b84c52578005e4d,62c53a4ce5224759483cd7ff,2022-07-06_09h31.37.115,Colour_Asymmetry_Pilot,2022.1.3,Win32,60.2373351,62c50e9c1127f2cd403a315f,0,128,128,51,1,twofour,,,,,,,,,,,,,,,,,,,,,,,,,,,,,,,,,,,,,,,,,,,,,,,,,,,,,,,,,,,,,,,,,,,,,,,,,,,,,,,,,,,,,,,,,,,,,,,,,,,,,,,,,,,,,,,,,,,,,,,,,,,,,,,,,,,,,,,,,,,,,,,,,,,,,,,,,,,,,
,,,,,,601a59260b84c52578005e4d,62c53a4ce5224759483cd7ff,2022-07-06_09h31.37.115,Colour_Asymmetry_Pilot,2022.1.3,Win32,60.2373351,62c50e9c1127f2cd403a315f,0,129,129,76,1,threeone,,,,,,,,,,,,,,,,,,,,,,,,,,,,,,,,,,,,,,,,,,,,,,,,,,,,,,,,,,,,,,,,,,,,,,,,,,,,,,,,,,,,,,,,,,,,,,,,,,,,,,,,,,,,,,,,,,,,,,,,,,,,,,,,,,,,,,,,,,,,,,,,,,,,,,,,,,,,,
,,,,,,601a59260b84c52578005e4d,62c53a4ce5224759483cd7ff,2022-07-06_09h31.37.115,Colour_Asymmetry_Pilot,2022.1.3,Win32,60.2373351,62c50e9c1127f2cd403a315f,0,130,130,47,1,fourthree,,,,,,,,,,,,,,,,,,,,,,,,,,,,,,,,,,,,,,,,,,,,,,,,,,,,,,,,,,,,,,,,,,,,,,,,,,,,,,,,,,,,,,,,,,,,,,,,,,,,,,,,,,,,,,,,,,,,,,,,,,,,,,,,,,,,,,,,,,,,,,,,,,,,,,,,,,,,,
,,,,,,601a59260b84c52578005e4d,62c53a4ce5224759483cd7ff,2022-07-06_09h31.37.115,Colour_Asymmetry_Pilot,2022.1.3,Win32,60.2373351,62c50e9c1127f2cd403a315f,0,131,131,108,1,threeone,,,,,,,,,,,,,,,,,,,,,,,,,,,,,,,,,,,,,,,,,,,,,,,,,,,,,,,,,,,,,,,,,,,,,,,,,,,,,,,,,,,,,,,,,,,,,,,,,,,,,,,,,,,,,,,,,,,,,,,,,,,,,,,,,,,,,,,,,,,,,,,,,,,,,,,,,,,,,
,,,,,,601a59260b84c52578005e4d,62c53a4ce5224759483cd7ff,2022-07-06_09h31.37.115,Colour_Asymmetry_Pilot,2022.1.3,Win32,60.2373351,62c50e9c1127f2cd403a315f,0,132,132,25,1,onethree,,,,,,,,,,,,,,,,,,,,,,,,,,,,,,,,,,,,,,,,,,,,,,,,,,,,,,,,,,,,,,,,,,,,,,,,,,,,,,,,,,,,,,,,,,,,,,,,,,,,,,,,,,,,,,,,,,,,,,,,,,,,,,,,,,,,,,,,,,,,,,,,,,,,,,,,,,,,,
,,,,,,601a59260b84c52578005e4d,62c53a4ce5224759483cd7ff,2022-07-06_09h31.37.115,Colour_Asymmetry_Pilot,2022.1.3,Win32,60.2373351,62c50e9c1127f2cd403a315f,0,133,133,36,1,threeone,,,,,,,,,,,,,,,,,,,,,,,,,,,,,,,,,,,,,,,,,,,,,,,,,,,,,,,,,,,,,,,,,,,,,,,,,,,,,,,,,,,,,,,,,,,,,,,,,,,,,,,,,,,,,,,,,,,,,,,,,,,,,,,,,,,,,,,,,,,,,,,,,,,,,,,,,,,,,
,,,,,,601a59260b84c52578005e4d,62c53a4ce5224759483cd7ff,2022-07-06_09h31.37.115,Colour_Asymmetry_Pilot,2022.1.3,Win32,60.2373351,62c50e9c1127f2cd403a315f,0,134,134,33,1,onethree,,,,,,,,,,,,,,,,,,,,,,,,,,,,,,,,,,,,,,,,,,,,,,,,,,,,,,,,,,,,,,,,,,,,,,,,,,,,,,,,,,,,,,,,,,,,,,,,,,,,,,,,,,,,,,,,,,,,,,,,,,,,,,,,,,,,,,,,,,,,,,,,,,,,,,,,,,,,,
,,,,,,601a59260b84c52578005e4d,62c53a4ce5224759483cd7ff,2022-07-06_09h31.37.115,Colour_Asymmetry_Pilot,2022.1.3,Win32,60.2373351,62c50e9c1127f2cd403a315f,0,135,135,96,1,onetwo,,,,,,,,,,,,,,,,,,,,,,,,,,,,,,,,,,,,,,,,,,,,,,,,,,,,,,,,,,,,,,,,,,,,,,,,,,,,,,,,,,,,,,,,,,,,,,,,,,,,,,,,,,,,,,,,,,,,,,,,,,,,,,,,,,,,,,,,,,,,,,,,,,,,,,,,,,,,,
,,,,,,601a59260b84c52578005e4d,62c53a4ce5224759483cd7ff,2022-07-06_09h31.37.115,Colour_Asymmetry_Pilot,2022.1.3,Win32,60.2373351,62c50e9c1127f2cd403a315f,0,136,136,80,1,onetwo,,,,,,,,,,,,,,,,,,,,,,,,,,,,,,,,,,,,,,,,,,,,,,,,,,,,,,,,,,,,,,,,,,,,,,,,,,,,,,,,,,,,,,,,,,,,,,,,,,,,,,,,,,,,,,,,,,,,,,,,,,,,,,,,,,,,,,,,,,,,,,,,,,,,,,,,,,,,,
,,,,,,601a59260b84c52578005e4d,62c53a4ce5224759483cd7ff,2022-07-06_09h31.37.115,Colour_Asymmetry_Pilot,2022.1.3,Win32,60.2373351,62c50e9c1127f2cd403a315f,0,137,137,35,1,twofour,,,,,,,,,,,,,,,,,,,,,,,,,,,,,,,,,,,,,,,,,,,,,,,,,,,,,,,,,,,,,,,,,,,,,,,,,,,,,,,,,,,,,,,,,,,,,,,,,,,,,,,,,,,,,,,,,,,,,,,,,,,,,,,,,,,,,,,,,,,,,,,,,,,,,,,,,,,,,
,,,,,,601a59260b84c52578005e4d,62c53a4ce5224759483cd7ff,2022-07-06_09h31.37.115,Colour_Asymmetry_Pilot,2022.1.3,Win32,60.2373351,62c50e9c1127f2cd403a315f,0,138,138,32,1,onetwo,,,,,,,,,,,,,,,,,,,,,,,,,,,,,,,,,,,,,,,,,,,,,,,,,,,,,,,,,,,,,,,,,,,,,,,,,,,,,,,,,,,,,,,,,,,,,,,,,,,,,,,,,,,,,,,,,,,,,,,,,,,,,,,,,,,,,,,,,,,,,,,,,,,,,,,,,,,,,
,,,,,,601a59260b84c52578005e4d,62c53a4ce5224759483cd7ff,2022-07-06_09h31.37.115,Colour_Asymmetry_Pilot,2022.1.3,Win32,60.2373351,62c50e9c1127f2cd403a315f,0,139,139,52,1,threeone,,,,,,,,,,,,,,,,,,,,,,,,,,,,,,,,,,,,,,,,,,,,,,,,,,,,,,,,,,,,,,,,,,,,,,,,,,,,,,,,,,,,,,,,,,,,,,,,,,,,,,,,,,,,,,,,,,,,,,,,,,,,,,,,,,,,,,,,,,,,,,,,,,,,,,,,,,,,,
,,,,,,601a59260b84c52578005e4d,62c53a4ce5224759483cd7ff,2022-07-06_09h31.37.115,Colour_Asymmetry_Pilot,2022.1.3,Win32,60.2373351,62c50e9c1127f2cd403a315f,0,140,140,154,1,twoone,,,,,,,,,,,,,,,,,,,,,,,,,,,,,,,,,,,,,,,,,,,,,,,,,,,,,,,,,,,,,,,,,,,,,,,,,,,,,,,,,,,,,,,,,,,,,,,,,,,,,,,,,,,,,,,,,,,,,,,,,,,,,,,,,,,,,,,,,,,,,,,,,,,,,,,,,,,,,
,,,,,,601a59260b84c52578005e4d,62c53a4ce5224759483cd7ff,2022-07-06_09h31.37.115,Colour_Asymmetry_Pilot,2022.1.3,Win32,60.2373351,62c50e9c1127f2cd403a315f,0,141,141,73,1,onethree,,,,,,,,,,,,,,,,,,,,,,,,,,,,,,,,,,,,,,,,,,,,,,,,,,,,,,,,,,,,,,,,,,,,,,,,,,,,,,,,,,,,,,,,,,,,,,,,,,,,,,,,,,,,,,,,,,,,,,,,,,,,,,,,,,,,,,,,,,,,,,,,,,,,,,,,,,,,,
,,,,,,601a59260b84c52578005e4d,62c53a4ce5224759483cd7ff,2022-07-06_09h31.37.115,Colour_Asymmetry_Pilot,2022.1.3,Win32,60.2373351,62c50e9c1127f2cd403a315f,0,142,142,46,1,fourtwo,,,,,,,,,,,,,,,,,,,,,,,,,,,,,,,,,,,,,,,,,,,,,,,,,,,,,,,,,,,,,,,,,,,,,,,,,,,,,,,,,,,,,,,,,,,,,,,,,,,,,,,,,,,,,,,,,,,,,,,,,,,,,,,,,,,,,,,,,,,,,,,,,,,,,,,,,,,,,
,,,,,,601a59260b84c52578005e4d,62c53a4ce5224759483cd7ff,2022-07-06_09h31.37.115,Colour_Asymmetry_Pilot,2022.1.3,Win32,60.2373351,62c50e9c1127f2cd403a315f,0,143,143,22,1,fourtwo,,,,,,,,,,,,,,,,,,,,,,,,,,,,,,,,,,,,,,,,,,,,,,,,,,,,,,,,,,,,,,,,,,,,,,,,,,,,,,,,,,,,,,,,,,,,,,,,,,,,,,,,,,,,,,,,,,,,,,,,,,,,,,,,,,,,,,,,,,,,,,,,,,,,,,,,,,,,,
,,,,,,601a59260b84c52578005e4d,62c53a4ce5224759483cd7ff,2022-07-06_09h31.37.115,Colour_Asymmetry_Pilot,2022.1.3,Win32,60.2373351,62c50e9c1127f2cd403a315f,0,144,144,107,1,twofour,,,,,,,,,,,,,,,,,,,,,,,,,,,,,,,,,,,,,,,,,,,,,,,,,,,,,,,,,,,,,,,,,,,,,,,,,,,,,,,,,,,,,,,,,,,,,,,,,,,,,,,,,,,,,,,,,,,,,,,,,,,,,,,,,,,,,,,,,,,,,,,,,,,,,,,,,,,,,
,,,,,,601a59260b84c52578005e4d,62c53a4ce5224759483cd7ff,2022-07-06_09h31.37.115,Colour_Asymmetry_Pilot,2022.1.3,Win32,60.2373351,62c50e9c1127f2cd403a315f,0,145,145,118,1,fourtwo,,,,,,,,,,,,,,,,,,,,,,,,,,,,,,,,,,,,,,,,,,,,,,,,,,,,,,,,,,,,,,,,,,,,,,,,,,,,,,,,,,,,,,,,,,,,,,,,,,,,,,,,,,,,,,,,,,,,,,,,,,,,,,,,,,,,,,,,,,,,,,,,,,,,,,,,,,,,,
,,,,,,601a59260b84c52578005e4d,62c53a4ce5224759483cd7ff,2022-07-06_09h31.37.115,Colour_Asymmetry_Pilot,2022.1.3,Win32,60.2373351,62c50e9c1127f2cd403a315f,0,146,146,110,1,fourtwo,,,,,,,,,,,,,,,,,,,,,,,,,,,,,,,,,,,,,,,,,,,,,,,,,,,,,,,,,,,,,,,,,,,,,,,,,,,,,,,,,,,,,,,,,,,,,,,,,,,,,,,,,,,,,,,,,,,,,,,,,,,,,,,,,,,,,,,,,,,,,,,,,,,,,,,,,,,,,
,,,,,,601a59260b84c52578005e4d,62c53a4ce5224759483cd7ff,2022-07-06_09h31.37.115,Colour_Asymmetry_Pilot,2022.1.3,Win32,60.2373351,62c50e9c1127f2cd403a315f,0,147,147,71,1,fourthree,,,,,,,,,,,,,,,,,,,,,,,,,,,,,,,,,,,,,,,,,,,,,,,,,,,,,,,,,,,,,,,,,,,,,,,,,,,,,,,,,,,,,,,,,,,,,,,,,,,,,,,,,,,,,,,,,,,,,,,,,,,,,,,,,,,,,,,,,,,,,,,,,,,,,,,,,,,,,
,,,,,,601a59260b84c52578005e4d,62c53a4ce5224759483cd7ff,2022-07-06_09h31.37.115,Colour_Asymmetry_Pilot,2022.1.3,Win32,60.2373351,62c50e9c1127f2cd403a315f,0,148,148,125,1,threefour,,,,,,,,,,,,,,,,,,,,,,,,,,,,,,,,,,,,,,,,,,,,,,,,,,,,,,,,,,,,,,,,,,,,,,,,,,,,,,,,,,,,,,,,,,,,,,,,,,,,,,,,,,,,,,,,,,,,,,,,,,,,,,,,,,,,,,,,,,,,,,,,,,,,,,,,,,,,,
,,,,,,601a59260b84c52578005e4d,62c53a4ce5224759483cd7ff,2022-07-06_09h31.37.115,Colour_Asymmetry_Pilot,2022.1.3,Win32,60.2373351,62c50e9c1127f2cd403a315f,0,149,149,92,1,threeone,,,,,,,,,,,,,,,,,,,,,,,,,,,,,,,,,,,,,,,,,,,,,,,,,,,,,,,,,,,,,,,,,,,,,,,,,,,,,,,,,,,,,,,,,,,,,,,,,,,,,,,,,,,,,,,,,,,,,,,,,,,,,,,,,,,,,,,,,,,,,,,,,,,,,,,,,,,,,
,,,,,,601a59260b84c52578005e4d,62c53a4ce5224759483cd7ff,2022-07-06_09h31.37.115,Colour_Asymmetry_Pilot,2022.1.3,Win32,60.2373351,62c50e9c1127f2cd403a315f,0,150,150,57,1,onethree,,,,,,,,,,,,,,,,,,,,,,,,,,,,,,,,,,,,,,,,,,,,,,,,,,,,,,,,,,,,,,,,,,,,,,,,,,,,,,,,,,,,,,,,,,,,,,,,,,,,,,,,,,,,,,,,,,,,,,,,,,,,,,,,,,,,,,,,,,,,,,,,,,,,,,,,,,,,,
,,,,,,601a59260b84c52578005e4d,62c53a4ce5224759483cd7ff,2022-07-06_09h31.37.115,Colour_Asymmetry_Pilot,2022.1.3,Win32,60.2373351,62c50e9c1127f2cd403a315f,0,151,151,130,1,twoone,,,,,,,,,,,,,,,,,,,,,,,,,,,,,,,,,,,,,,,,,,,,,,,,,,,,,,,,,,,,,,,,,,,,,,,,,,,,,,,,,,,,,,,,,,,,,,,,,,,,,,,,,,,,,,,,,,,,,,,,,,,,,,,,,,,,,,,,,,,,,,,,,,,,,,,,,,,,,
,,,,,,601a59260b84c52578005e4d,62c53a4ce5224759483cd7ff,2022-07-06_09h31.37.115,Colour_Asymmetry_Pilot,2022.1.3,Win32,60.2373351,62c50e9c1127f2cd403a315f,0,152,152,77,1,threefour,,,,,,,,,,,,,,,,,,,,,,,,,,,,,,,,,,,,,,,,,,,,,,,,,,,,,,,,,,,,,,,,,,,,,,,,,,,,,,,,,,,,,,,,,,,,,,,,,,,,,,,,,,,,,,,,,,,,,,,,,,,,,,,,,,,,,,,,,,,,,,,,,,,,,,,,,,,,,
,,,,,,601a59260b84c52578005e4d,62c53a4ce5224759483cd7ff,2022-07-06_09h31.37.115,Colour_Asymmetry_Pilot,2022.1.3,Win32,60.2373351,62c50e9c1127f2cd403a315f,0,153,153,50,1,twoone,,,,,,,,,,,,,,,,,,,,,,,,,,,,,,,,,,,,,,,,,,,,,,,,,,,,,,,,,,,,,,,,,,,,,,,,,,,,,,,,,,,,,,,,,,,,,,,,,,,,,,,,,,,,,,,,,,,,,,,,,,,,,,,,,,,,,,,,,,,,,,,,,,,,,,,,,,,,,
,,,,,,601a59260b84c52578005e4d,62c53a4ce5224759483cd7ff,2022-07-06_09h31.37.115,Colour_Asymmetry_Pilot,2022.1.3,Win32,60.2373351,62c50e9c1127f2cd403a315f,0,154,154,85,1,threefour,,,,,,,,,,,,,,,,,,,,,,,,,,,,,,,,,,,,,,,,,,,,,,,,,,,,,,,,,,,,,,,,,,,,,,,,,,,,,,,,,,,,,,,,,,,,,,,,,,,,,,,,,,,,,,,,,,,,,,,,,,,,,,,,,,,,,,,,,,,,,,,,,,,,,,,,,,,,,
,,,,,,601a59260b84c52578005e4d,62c53a4ce5224759483cd7ff,2022-07-06_09h31.37.115,Colour_Asymmetry_Pilot,2022.1.3,Win32,60.2373351,62c50e9c1127f2cd403a315f,0,155,155,2,1,twoone,,,,,,,,,,,,,,,,,,,,,,,,,,,,,,,,,,,,,,,,,,,,,,,,,,,,,,,,,,,,,,,,,,,,,,,,,,,,,,,,,,,,,,,,,,,,,,,,,,,,,,,,,,,,,,,,,,,,,,,,,,,,,,,,,,,,,,,,,,,,,,,,,,,,,,,,,,,,,
,,,,,,601a59260b84c52578005e4d,62c53a4ce5224759483cd7ff,2022-07-06_09h31.37.115,Colour_Asymmetry_Pilot,2022.1.3,Win32,60.2373351,62c50e9c1127f2cd403a315f,0,156,156,127,1,fourthree,,,,,,,,,,,,,,,,,,,,,,,,,,,,,,,,,,,,,,,,,,,,,,,,,,,,,,,,,,,,,,,,,,,,,,,,,,,,,,,,,,,,,,,,,,,,,,,,,,,,,,,,,,,,,,,,,,,,,,,,,,,,,,,,,,,,,,,,,,,,,,,,,,,,,,,,,,,,,
,,,,,,601a59260b84c52578005e4d,62c53a4ce5224759483cd7ff,2022-07-06_09h31.37.115,Colour_Asymmetry_Pilot,2022.1.3,Win32,60.2373351,62c50e9c1127f2cd403a315f,0,157,157,26,1,twoone,,,,,,,,,,,,,,,,,,,,,,,,,,,,,,,,,,,,,,,,,,,,,,,,,,,,,,,,,,,,,,,,,,,,,,,,,,,,,,,,,,,,,,,,,,,,,,,,,,,,,,,,,,,,,,,,,,,,,,,,,,,,,,,,,,,,,,,,,,,,,,,,,,,,,,,,,,,,,
,,,,,,601a59260b84c52578005e4d,62c53a4ce5224759483cd7ff,2022-07-06_09h31.37.115,Colour_Asymmetry_Pilot,2022.1.3,Win32,60.2373351,62c50e9c1127f2cd403a315f,0,158,158,160,1,onetwo,,,,,,,,,,,,,,,,,,,,,,,,,,,,,,,,,,,,,,,,,,,,,,,,,,,,,,,,,,,,,,,,,,,,,,,,,,,,,,,,,,,,,,,,,,,,,,,,,,,,,,,,,,,,,,,,,,,,,,,,,,,,,,,,,,,,,,,,,,,,,,,,,,,,,,,,,,,,,
,,,,,,601a59260b84c52578005e4d,62c53a4ce5224759483cd7ff,2022-07-06_09h31.37.115,Colour_Asymmetry_Pilot,2022.1.3,Win32,60.2373351,62c50e9c1127f2cd403a315f,0,159,159,40,1,onetwo,,,,,,,,,,,,,,,,,,,,,,,,,,,,,,,,,,,,,,,,,,,,,,,,,,,,,,,,,,,,,,,,,,,,,,,,,,,,,,,,,,,,,,,,,,,,,,,,,,,,,,,,,,,,,,,,,,,,,,,,,,,,,,,,,,,,,,,,,,,,,,,,,,,,,,,,,,,,,
,,,,,,601a59260b84c52578005e4d,62c53a4ce5224759483cd7ff,2022-07-06_09h31.37.115,Colour_Asymmetry_Pilot,2022.1.3,Win32,60.2373351,62c50e9c1127f2cd403a315f,0,160,160,0,1,onetwo,,,,,,,,,,,,,,,,,,,,,,,,,,,,,,,,,,,,,,,,,,,,,,,,,,,,,,,,,,,,,,,,,,,,,,,,,,,,,,,,,,,,,,,,,,,,,,,,,,,,,,,,,,,,,,,,,,,,,,,,,,,,,,,,,,,,,,,,,,,,,,,,,,,,,,,,,,,,,
,,,,,,601a59260b84c52578005e4d,62c53a4ce5224759483cd7ff,2022-07-06_09h31.37.115,Colour_Asymmetry_Pilot,2022.1.3,Win32,60.2373351,62c50e9c1127f2cd403a315f,0,161,161,135,1,fourthree,,,,,,,,,,,,,,,,,,,,,,,,,,,,,,,,,,,,,,,,,,,,,,,,,,,,,,,,,,,,,,,,,,,,,,,,,,,,,,,,,,,,,,,,,,,,,,,,,,,,,,,,,,,,,,,,,,,,,,,,,,,,,,,,,,,,,,,,,,,,,,,,,,,,,,,,,,,,,
,,,,,,601a59260b84c52578005e4d,62c53a4ce5224759483cd7ff,2022-07-06_09h31.37.115,Colour_Asymmetry_Pilot,2022.1.3,Win32,60.2373351,62c50e9c1127f2cd403a315f,,,,,,,space,4.9396,space,47.4214,space,66.1654,space,7.3496,space,4.649,space,4.9062,"[-0.38039999999999996,-0.4276,-0.1452]",fourthree,"[0.9842,0.7409999999999999,-0.6628000000000001]",-4,11.5672,-56,145,1,0,0,response7disk_5,-3,4,1,0,0,rectangle_8,-3,4,1,0,0,4,-3,4,1,0,0,0,0,0,0,1,,,,,,,,,,,,,,,,,,,,,,,,,,,,,,,,,,,,,,,,,,,,,,,,,,,,,,,,,,,,,,,,,,,,,,,,,,,,,,,,,,,,,,,,,,,,,,,,,,,,,,,,,,,,,,,,
,,,,,,601a59260b84c52578005e4d,62c53a4ce5224759483cd7ff,2022-07-06_09h31.37.115,Colour_Asymmetry_Pilot,2022.1.3,Win32,60.2373351,62c50e9c1127f2cd403a315f,,,,,,,,,,,,,,,,,,,"[0.18419999999999992,-0.4276,-0.404]",twoone,"[-0.48240000000000005,0.3175999999999999,0.2156]",-4,11.1058,-92,125,1,0,0,response7disk_5,3,-2,1,0,0,rectangle_8,3,-2,1,0,0,4,3,-2,1,0,0,1,0,1,0,1,,,,,,,,,,,,,,,,,,,,,,,,,,,,,,,,,,,,,,,,,,,,,,,,,,,,,,,,,,,,,,,,,,,,,,,,,,,,,,,,,,,,,,,,,,,,,,,,,,,,,,,,,,,,,,,,
,,,,,,601a59260b84c52578005e4d,62c53a4ce5224759483cd7ff,2022-07-06_09h31.37.115,Colour_Asymmetry_Pilot,2022.1.3,Win32,60.2373351,62c50e9c1127f2cd403a315f,,,,,,,,,,,,,,,,,,,"[-0.9138,-0.5296000000000001,-0.5529999999999999]",threeone,"[0.18419999999999992,-0.4276,-0.404]",-4,7.6437,-52,91,1,0,0,response7disk_5,-1,1,1,0,0,rectangle_8,39,103,1,0,0,4,4,0,1,0,0,2,0,2,0,1,response1disk_7,7,rectangle_4,,,,,,,,,,,,,,,,,,,,,,,,,,,,,,,,,,,,,,,,,,,,,,,,,,,,,,,,,,,,,,,,,,,,,,,,,,,,,,,,,,,,,,,,,,,,,,,,,,,,,,,,,,,,,
,,,,,,601a59260b84c52578005e4d,62c53a4ce5224759483cd7ff,2022-07-06_09h31.37.115,Colour_Asymmetry_Pilot,2022.1.3,Win32,60.2373351,62c50e9c1127f2cd403a315f,,,,,,,,,,,,,,,,,,,"[-0.050999999999999934,-0.6706000000000001,-0.804]",onetwo,"[0.04299999999999993,0.16060000000000008,-0.6628000000000001]",-4,13.9662,-57,108,1,0,0,response7disk_5,1,3,1,0,0,rectangle_8,1,3,1,0,0,4,1,3,1,0,0,3,0,3,0,1,,,,,,,,,,,,,,,,,,,,,,,,,,,,,,,,,,,,,,,,,,,,,,,,,,,,,,,,,,,,,,,,,,,,,,,,,,,,,,,,,,,,,,,,,,,,,,,,,,,,,,,,,,,,,,,,
,,,,,,601a59260b84c52578005e4d,62c53a4ce5224759483cd7ff,2022-07-06_09h31.37.115,Colour_Asymmetry_Pilot,2022.1.3,Win32,60.2373351,62c50e9c1127f2cd403a315f,,,,,,,,,,,,,,,,,,,"[0.37240000000000006,-0.050999999999999934,-0.5216]",fourthree,"[-0.26280000000000003,-0.4746,-0.2158]",-3,6.5664,-91,52,1,0,0,response7disk_5,5,-10,1,0,0,rectangle_8,5,-10,1,0,0,4,5,-10,1,0,0,4,0,4,0,1,,,,,,,,,,,,,,,,,,,,,,,,,,,,,,,,,,,,,,,,,,,,,,,,,,,,,,,,,,,,,,,,,,,,,,,,,,,,,,,,,,,,,,,,,,,,,,,,,,,,,,,,,,,,,,,,
,,,,,,601a59260b84c52578005e4d,62c53a4ce5224759483cd7ff,2022-07-06_09h31.37.115,Colour_Asymmetry_Pilot,2022.1.3,Win32,60.2373351,62c50e9c1127f2cd403a315f,,,,,,,,,,,,,,,,,,,"[-0.9688,-0.38039999999999996,-0.41979999999999995]",twoone,"[0.5449999999999999,-0.31000000000000005,-0.0354000000000001]",-2,3.8832,-108,-74,1,0,0,response5disk_5,7,-6,1,0,0,rectangle_8,47,137,1,0,0,4,-10,-1,1,0,0,5,0,5,0,1,response1disk_7,7,rectangle_4,,,,,,,,,,,,,,,,,,,,,,,,,,,,,,,,,,,,,,,,,,,,,,,,,,,,,,,,,,,,,,,,,,,,,,,,,,,,,,,,,,,,,,,,,,,,,,,,,,,,,,,,,,,,,
,,,,,,601a59260b84c52578005e4d,62c53a4ce5224759483cd7ff,2022-07-06_09h31.37.115,Colour_Asymmetry_Pilot,2022.1.3,Win32,60.2373351,62c50e9c1127f2cd403a315f,,,,,,,,,,,,,,,,,,,"[-0.050999999999999934,-0.6706000000000001,-0.804]",onethree,"[0.8115999999999999,-0.0040000000000000036,-0.09819999999999995]",-2,5.0329,-119,-48,1,0,0,response5disk_5,3,-4,1,0,0,rectangle_8,3,-4,1,0,0,4,3,-4,1,0,0,6,0,6,0,1,,,,,,,,,,,,,,,,,,,,,,,,,,,,,,,,,,,,,,,,,,,,,,,,,,,,,,,,,,,,,,,,,,,,,,,,,,,,,,,,,,,,,,,,,,,,,,,,,,,,,,,,,,,,,,,,
,,,,,,601a59260b84c52578005e4d,62c53a4ce5224759483cd7ff,2022-07-06_09h31.37.115,Colour_Asymmetry_Pilot,2022.1.3,Win32,60.2373351,62c50e9c1127f2cd403a315f,,,,,,,,,,,,,,,,,,,,fourthree,,-2,3.0332,,,,,,,,,,,,,,,,,,,,,,,,,,,,,,,,space,5.3693,"[-0.5452,-0.608,0.2470000000000001]","[0.3881999999999999,-0.23939999999999995,-0.05040000000000011]",-111,-70,1,0,0,response5disk,-3,2,1,0,0,rectangle,-3,2,1,0,0,,2,0.0007,0,-3,2,1,0,0,0,0,0,89,1,8,second,,,,,,,,,,,,,,,,,,,,,,,,,,,,,,,,,,,,,,,,,,,,,,,,,,,,,,,,,,,,,,,,,,,,,,,,
,,,,,,601a59260b84c52578005e4d,62c53a4ce5224759483cd7ff,2022-07-06_09h31.37.115,Colour_Asymmetry_Pilot,2022.1.3,Win32,60.2373351,62c50e9c1127f2cd403a315f,,,,,,,,,,,,,,,,,,,,twoone,,-1,3.8834,,,,,,,,,,,,,,,,,,,,,,,,,,,,,,,,,,"[0.4196,0.4665999999999999,0.3568]","[-0.5688,-0.08239999999999992,-0.1844]",-46,-111,1,0,0,response5disk,-1,-5,1,0,0,rectangle,-1,-5,1,0,0,,2,0.0002,0,-1,-5,1,0,0,0,1,1,108,1,27,second,,,,,,,,,,,,,,,,,,,,,,,,,,,,,,,,,,,,,,,,,,,,,,,,,,,,,,,,,,,,,,,,,,,,,,,,
,,,,,,601a59260b84c52578005e4d,62c53a4ce5224759483cd7ff,2022-07-06_09h31.37.115,Colour_Asymmetry_Pilot,2022.1.3,Win32,60.2373351,62c50e9c1127f2cd403a315f,,,,,,,,,,,,,,,,,,,,fourtwo,,1,2.2499,,,,,,,,,,,,,,,,,,,,,,,,,,,,,,,,,,"[-0.011800000000000033,-0.906,-0.45100000000000007]","[-0.8118,-0.8198,-0.5452]",41,-135,1,0,0,response3disk,0,-9,1,0,0,rectangle,0,-9,1,0,0,,3,0.0004,0,0,-9,1,0,0,0,2,2,116,1,35,second,,,,,,,,,,,,,,,,,,,,,,,,,,,,,,,,,,,,,,,,,,,,,,,,,,,,,,,,,,,,,,,,,,,,,,,,
,,,,,,601a59260b84c52578005e4d,62c53a4ce5224759483cd7ff,2022-07-06_09h31.37.115,Colour_Asymmetry_Pilot,2022.1.3,Win32,60.2373351,62c50e9c1127f2cd403a315f,,,,,,,,,,,,,,,,,,,,twofour,,-1,2.8166,,,,,,,,,,,,,,,,,,,,,,,,,,,,,,,,,,"[-0.17659999999999998,-0.2864,-0.8354]","[-0.4746,-0.0354000000000001,0.5449999999999999]",-73,-131,1,0,0,response5disk,-3,1,1,0,0,rectangle,-3,1,1,0,0,,1,0.0005,0,-3,1,1,0,0,0,3,3,38,1,38,first,,,,,,,,,,,,,,,,,,,,,,,,,,,,,,,,,,,,,,,,,,,,,,,,,,,,,,,,,,,,,,,,,,,,,,,,
,,,,,,601a59260b84c52578005e4d,62c53a4ce5224759483cd7ff,2022-07-06_09h31.37.115,Colour_Asymmetry_Pilot,2022.1.3,Win32,60.2373351,62c50e9c1127f2cd403a315f,,,,,,,,,,,,,,,,,,,,fourthree,,-4,1.7332,,,,,,,,,,,,,,,,,,,,,,,,,,,,,,,,,,"[0.7176,-0.906,-0.6864]","[-0.48240000000000005,0.3175999999999999,0.2156]",-73,92,1,0,0,response7disk,-3,-8,1,0,0,rectangle,-3,-8,1,0,0,,3,0.0004,0,-3,-8,1,0,0,0,4,4,148,1,67,second,,,,,,,,,,,,,,,,,,,,,,,,,,,,,,,,,,,,,,,,,,,,,,,,,,,,,,,,,,,,,,,,,,,,,,,,
,,,,,,601a59260b84c52578005e4d,62c53a4ce5224759483cd7ff,2022-07-06_09h31.37.115,Colour_Asymmetry_Pilot,2022.1.3,Win32,60.2373351,62c50e9c1127f2cd403a315f,,,,,,,,,,,,,,,,,,,,threefour,,-4,2.0665,,,,,,,,,,,,,,,,,,,,,,,,,,,,,,,,,,"[0.40379999999999994,0.09000000000000008,0.44300000000000006]","[-0.9844,-0.9688,-0.9922]",-71,96,1,0,0,response7disk,-5,-1,1,0,0,rectangle,-5,-1,1,0,0,,3,0.0001,0,-5,-1,1,0,0,0,5,5,10,1,10,first,,,,,,,,,,,,,,,,,,,,,,,,,,,,,,,,,,,,,,,,,,,,,,,,,,,,,,,,,,,,,,,,,,,,,,,,
,,,,,,601a59260b84c52578005e4d,62c53a4ce5224759483cd7ff,2022-07-06_09h31.37.115,Colour_Asymmetry_Pilot,2022.1.3,Win32,60.2373351,62c50e9c1127f2cd403a315f,,,,,,,,,,,,,,,,,,,,onethree,,1,2.05,,,,,,,,,,,,,,,,,,,,,,,,,,,,,,,,,,"[0.11359999999999992,0.6312,0.5213999999999999]","[-0.9216,-0.5529999999999999,-0.3962]",62,-106,1,0,0,response3disk,18,1,1,0,0,rectangle,18,1,1,0,0,,2,0.0004,0,18,1,1,0,0,0,6,6,58,1,58,first,,,,,,,,,,,,,,,,,,,,,,,,,,,,,,,,,,,,,,,,,,,,,,,,,,,,,,,,,,,,,,,,,,,,,,,,
,,,,,,601a59260b84c52578005e4d,62c53a4ce5224759483cd7ff,2022-07-06_09h31.37.115,Colour_Asymmetry_Pilot,2022.1.3,Win32,60.2373351,62c50e9c1127f2cd403a315f,,,,,,,,,,,,,,,,,,,,threefour,,-4,3.1164,,,,,,,,,,,,,,,,,,,,,,,,,,,,,,,,,,"[-0.5922000000000001,-0.7492000000000001,-0.5296000000000001]","[0.6625999999999999,0.4980000000000002,-0.357]",-72,97,1,0,0,response7disk,-10,-2,1,0,0,rectangle,-10,-2,1,0,0,,2,0.0002,0,-10,-2,1,0,0,0,7,7,41,1,41,first,,,,,,,,,,,,,,,,,,,,,,,,,,,,,,,,,,,,,,,,,,,,,,,,,,,,,,,,,,,,,,,,,,,,,,,,
,,,,,,601a59260b84c52578005e4d,62c53a4ce5224759483cd7ff,2022-07-06_09h31.37.115,Colour_Asymmetry_Pilot,2022.1.3,Win32,60.2373351,62c50e9c1127f2cd403a315f,,,,,,,,,,,,,,,,,,,,onethree,,-4,7.1226,,,,,,,,,,,,,,,,,,,,,,,,,,,,,,,,,,"[-0.9296,-0.12959999999999994,-0.043199999999999905]","[0.796,0.2156,-0.27859999999999996]",-51,103,1,0,0,response7disk,-10,4,1,0,0,rectangle,-10,4,1,0,0,,2,0.0001,0,-10,4,1,0,0,0,8,8,77,1,77,first,,,,,,,,,,,,,,,,,,,,,,,,,,,,,,,,,,,,,,,,,,,,,,,,,,,,,,,,,,,,,,,,,,,,,,,,
,,,,,,601a59260b84c52578005e4d,62c53a4ce5224759483cd7ff,2022-07-06_09h31.37.115,Colour_Asymmetry_Pilot,2022.1.3,Win32,60.2373351,62c50e9c1127f2cd403a315f,,,,,,,,,,,,,,,,,,,,onethree,,2,3.727,,,,,,,,,,,,,,,,,,,,,,,,,,,,,,,,,,"[-0.38039999999999996,-0.4276,-0.1452]","[0.05879999999999996,0.2784,0.5841999999999998]",98,-79,1,0,0,response3disk,12,3,1,0,0,rectangle,12,3,1,0,0,,1,0.0005,0,12,3,1,0,0,0,9,9,69,1,69,first,,,,,,,,,,,,,,,,,,,,,,,,,,,,,,,,,,,,,,,,,,,,,,,,,,,,,,,,,,,,,,,,,,,,,,,,
,,,,,,601a59260b84c52578005e4d,62c53a4ce5224759483cd7ff,2022-07-06_09h31.37.115,Colour_Asymmetry_Pilot,2022.1.3,Win32,60.2373351,62c50e9c1127f2cd403a315f,,,,,,,,,,,,,,,,,,,,fourtwo,,-3,5.8666,,,,,,,,,,,,,,,,,,,,,,,,,,,,,,,,,,"[0.6625999999999999,0.4980000000000002,-0.357]","[0.05879999999999996,0.2784,0.5841999999999998]",-123,42,1,0,0,response7disk,-15,4,1,0,0,rectangle,-15,4,1,0,0,,2,0.0005,0,-15,4,1,0,0,0,10,10,154,1,73,second,,,,,,,,,,,,,,,,,,,,,,,,,,,,,,,,,,,,,,,,,,,,,,,,,,,,,,,,,,,,,,,,,,,,,,,,
,,,,,,601a59260b84c52578005e4d,62c53a4ce5224759483cd7ff,2022-07-06_09h31.37.115,Colour_Asymmetry_Pilot,2022.1.3,Win32,60.2373351,62c50e9c1127f2cd403a315f,,,,,,,,,,,,,,,,,,,,twoone,,3,6.5998,,,,,,,,,,,,,,,,,,,,,,,,,,,,,,,,,,"[-0.9138,-0.5296000000000001,-0.5529999999999999]","[-0.9688,-0.7412000000000001,-0.4902000000000001]",150,33,1,0,0,response1disk,28,-8,1,0,0,rectangle,28,-8,1,0,0,,2,0.0001,0,28,-8,1,0,0,0,11,11,22,1,22,first,,,,,,,,,,,,,,,,,,,,,,,,,,,,,,,,,,,,,,,,,,,,,,,,,,,,,,,,,,,,,,,,,,,,,,,,
,,,,,,601a59260b84c52578005e4d,62c53a4ce5224759483cd7ff,2022-07-06_09h31.37.115,Colour_Asymmetry_Pilot,2022.1.3,Win32,60.2373351,62c50e9c1127f2cd403a315f,,,,,,,,,,,,,,,,,,,,fourtwo,,-4,1.95,,,,,,,,,,,,,,,,,,,,,,,,,,,,,,,,,,"[0.6625999999999999,0.4980000000000002,-0.357]","[-0.5922000000000001,-0.7492000000000001,-0.5296000000000001]",-55,80,1,0,0,response7disk,-10,1,1,0,0,rectangle,-10,1,1,0,0,,1,0.0004,0,-10,1,1,0,0,0,12,12,122,1,41,second,,,,,,,,,,,,,,,,,,,,,,,,,,,,,,,,,,,,,,,,,,,,,,,,,,,,,,,,,,,,,,,,,,,,,,,,
,,,,,,601a59260b84c52578005e4d,62c53a4ce5224759483cd7ff,2022-07-06_09h31.37.115,Colour_Asymmetry_Pilot,2022.1.3,Win32,60.2373351,62c50e9c1127f2cd403a315f,,,,,,,,,,,,,,,,,,,,fourthree,,-1,1.9728,,,,,,,,,,,,,,,,,,,,,,,,,,,,,,,,,,"[0.05879999999999996,0.2784,0.5841999999999998]","[-0.4276,0.0038000000000000256,-0.3256]",-37,-119,1,0,0,response5disk,7,-4,1,0,0,rectangle,7,-4,1,0,0,,3,0.0006,0,7,-4,1,0,0,0,13,13,127,1,46,second,,,,,,,,,,,,,,,,,,,,,,,,,,,,,,,,,,,,,,,,,,,,,,,,,,,,,,,,,,,,,,,,,,,,,,,,
,,,,,,601a59260b84c52578005e4d,62c53a4ce5224759483cd7ff,2022-07-06_09h31.37.115,Colour_Asymmetry_Pilot,2022.1.3,Win32,60.2373351,62c50e9c1127f2cd403a315f,,,,,,,,,,,,,,,,,,,,onetwo,,-1,1.9731,,,,,,,,,,,,,,,,,,,,,,,,,,,,,,,,,,"[0.9372,0.9450000000000001,0.8980000000000001]","[-0.9216,-0.5529999999999999,-0.3962]",-39,-123,1,0,0,response5disk,-26,2,1,0,0,rectangle,-26,2,1,0,0,,2,0.0004,0,-26,2,1,0,0,0,14,14,83,1,2,second,,,,,,,,,,,,,,,,,,,,,,,,,,,,,,,,,,,,,,,,,,,,,,,,,,,,,,,,,,,,,,,,,,,,,,,,
,,,,,,601a59260b84c52578005e4d,62c53a4ce5224759483cd7ff,2022-07-06_09h31.37.115,Colour_Asymmetry_Pilot,2022.1.3,Win32,60.2373351,62c50e9c1127f2cd403a315f,,,,,,,,,,,,,,,,,,,,twoone,,3,5.6165,,,,,,,,,,,,,,,,,,,,,,,,,,,,,,,,,,"[0.5528,0.7409999999999999,-0.71]","[-0.0040000000000000036,0.02739999999999987,-0.08239999999999992]",137,41,1,0,0,response1disk,34,-14,1,0,0,rectangle,34,-14,1,0,0,,1,0.0004,0,34,-14,1,0,0,0,15,15,133,1,52,second,,,,,,,,,,,,,,,,,,,,,,,,,,,,,,,,,,,,,,,,,,,,,,,,,,,,,,,,,,,,,,,,,,,,,,,,
,,,,,,601a59260b84c52578005e4d,62c53a4ce5224759483cd7ff,2022-07-06_09h31.37.115,Colour_Asymmetry_Pilot,2022.1.3,Win32,60.2373351,62c50e9c1127f2cd403a315f,,,,,,,,,,,,,,,,,,,,twofour,,-3,1.7001,,,,,,,,,,,,,,,,,,,,,,,,,,,,,,,,,,"[0.30180000000000007,-0.7884,-0.9844]","[-0.10599999999999998,-0.15300000000000002,0.15280000000000005]",-119,35,1,0,0,response7disk,-8,2,1,0,0,rectangle,-8,2,1,0,0,,1,0.0001,0,-8,2,1,0,0,0,16,16,124,1,43,second,,,,,,,,,,,,,,,,,,,,,,,,,,,,,,,,,,,,,,,,,,,,,,,,,,,,,,,,,,,,,,,,,,,,,,,,
,,,,,,601a59260b84c52578005e4d,62c53a4ce5224759483cd7ff,2022-07-06_09h31.37.115,Colour_Asymmetry_Pilot,2022.1.3,Win32,60.2373351,62c50e9c1127f2cd403a315f,,,,,,,,,,,,,,,,,,,,threeone,,2,1.8335,,,,,,,,,,,,,,,,,,,,,,,,,,,,,,,,,,"[0.796,0.2156,-0.27859999999999996]","[0.9213999999999998,0.6391999999999998,-0.9922]",126,-43,1,0,0,response3disk,22,12,1,0,0,rectangle,22,12,1,0,0,,3,0.0005,0,22,12,1,0,0,0,17,17,110,1,29,second,,,,,,,,,,,,,,,,,,,,,,,,,,,,,,,,,,,,,,,,,,,,,,,,,,,,,,,,,,,,,,,,,,,,,,,,
