trials.thisRepN,trials.thisTrialN,trials.thisN,trials.thisIndex,trials.ran,Colourcodes,participant,session,date,expName,psychopyVersion,OS,frameRate,study_id,trials_4.thisRepN,trials_4.thisTrialN,trials_4.thisN,trials_4.thisIndex,trials_4.ran,StimulusPos,key_resp.keys,key_resp.rt,key_resp_2.keys,key_resp_2.rt,key_resp_15.keys,key_resp_15.rt,key_resp_17.keys,key_resp_17.rt,key_resp_9.keys,key_resp_9.rt,key_resp_10.keys,key_resp_10.rt,Circle1_col,Ecc,Circle2_col,similarity,response_time,mouse_5.x,mouse_5.y,mouse_5.leftButton,mouse_5.midButton,mouse_5.rightButton,mouse_5.clicked_name,mouse_10.x,mouse_10.y,mouse_10.leftButton,mouse_10.midButton,mouse_10.rightButton,mouse_10.clicked_name,mouse_7.x,mouse_7.y,mouse_7.leftButton,mouse_7.midButton,mouse_7.rightButton,catchnumberprac,mouse_6.x,mouse_6.y,mouse_6.leftButton,mouse_6.midButton,mouse_6.rightButton,duringprac.thisRepN,duringprac.thisTrialN,duringprac.thisN,duringprac.thisIndex,duringprac.ran,mouse_7.clicked_name,catchprac,mouse_6.clicked_name,key_resp_22.keys,key_resp_22.rt,Circle1_colour,Circle2_colour,mouse.x,mouse.y,mouse.leftButton,mouse.midButton,mouse.rightButton,mouse.clicked_name,mouse_2.x,mouse_2.y,mouse_2.leftButton,mouse_2.midButton,mouse_2.rightButton,mouse_2.clicked_name,mouse_3.x,mouse_3.y,mouse_3.leftButton,mouse_3.midButton,mouse_3.rightButton,catchresponse,catchnumber,response_time_catch,Catch,mouse_11.x,mouse_11.y,mouse_11.leftButton,mouse_11.midButton,mouse_11.rightButton,trials_2.thisRepN,trials_2.thisTrialN,trials_2.thisN,trials_2.thisIndex,trials_2.ran,Colourpair,Temporder,mouse_3.clicked_name,mouse_11.clicked_name,trials_3.thisRepN,trials_3.thisTrialN,trials_3.thisN,trials_3.thisIndex,trials_3.ran,key_resp_instr_Ishi.keys,key_resp_instr_Ishi.rt,Ishi_trial_keyresp.keys,Ishi_textbox.text,Ishi_mouse.x,Ishi_mouse.y,Ishi_mouse.leftButton,Ishi_mouse.midButton,Ishi_mouse.rightButton,Ishi_mouse.clicked_name,Ishi_loop.thisRepN,Ishi_loop.thisTrialN,Ishi_loop.thisN,Ishi_loop.thisIndex,Ishi_loop.ran,imageaddress,textbox.text,mouse_4.x,mouse_4.y,mouse_4.leftButton,mouse_4.midButton,mouse_4.rightButton,mouse_4.clicked_name,textbox_2.text,mouse_8.x,mouse_8.y,mouse_8.leftButton,mouse_8.midButton,mouse_8.rightButton,mouse_8.clicked_name,textbox_3.text,mouse_9.x,mouse_9.y,mouse_9.leftButton,mouse_9.midButton,mouse_9.rightButton,mouse_9.clicked_name,textbox_4.text,mouse_12.x,mouse_12.y,mouse_12.leftButton,mouse_12.midButton,mouse_12.rightButton,mouse_12.clicked_name,textbox_5.text,mouse_13.x,mouse_13.y,mouse_13.leftButton,mouse_13.midButton,mouse_13.rightButton,mouse_13.clicked_name,textbox_6.text,mouse_14.x,mouse_14.y,mouse_14.leftButton,mouse_14.midButton,mouse_14.rightButton,mouse_14.clicked_name,textbox_7.text,mouse_15.x,mouse_15.y,mouse_15.leftButton,mouse_15.midButton,mouse_15.rightButton,mouse_15.clicked_name
0,0,0,61,1,,60cb4f111e27b7ab3656e188,62c539f1710891b46175a7cf,2022-07-06_09h33.06.436,Colour_Asymmetry_Pilot,2022.1.3,Win32,29.89894158,62c50e9c1127f2cd403a315f,,,,,,,,,,,,,,,,,,,,,,,,,,,,,,,,,,,,,,,,,,,,,,,,,,,,,,,,,,,,,,,,,,,,,,,,,,,,,,,,,,,,,,,,,,,,,,,,,,,,,,,,,,,,,,,,,,,,,,,,,,,,,,,,,,,,,,,,,,,,,,,,,,,,,,,,,,,,,,,,,,,
0,1,1,79,1,,60cb4f111e27b7ab3656e188,62c539f1710891b46175a7cf,2022-07-06_09h33.06.436,Colour_Asymmetry_Pilot,2022.1.3,Win32,29.89894158,62c50e9c1127f2cd403a315f,,,,,,,,,,,,,,,,,,,,,,,,,,,,,,,,,,,,,,,,,,,,,,,,,,,,,,,,,,,,,,,,,,,,,,,,,,,,,,,,,,,,,,,,,,,,,,,,,,,,,,,,,,,,,,,,,,,,,,,,,,,,,,,,,,,,,,,,,,,,,,,,,,,,,,,,,,,,,,,,,,,
0,2,2,33,1,,60cb4f111e27b7ab3656e188,62c539f1710891b46175a7cf,2022-07-06_09h33.06.436,Colour_Asymmetry_Pilot,2022.1.3,Win32,29.89894158,62c50e9c1127f2cd403a315f,,,,,,,,,,,,,,,,,,,,,,,,,,,,,,,,,,,,,,,,,,,,,,,,,,,,,,,,,,,,,,,,,,,,,,,,,,,,,,,,,,,,,,,,,,,,,,,,,,,,,,,,,,,,,,,,,,,,,,,,,,,,,,,,,,,,,,,,,,,,,,,,,,,,,,,,,,,,,,,,,,,
0,3,3,49,1,,60cb4f111e27b7ab3656e188,62c539f1710891b46175a7cf,2022-07-06_09h33.06.436,Colour_Asymmetry_Pilot,2022.1.3,Win32,29.89894158,62c50e9c1127f2cd403a315f,,,,,,,,,,,,,,,,,,,,,,,,,,,,,,,,,,,,,,,,,,,,,,,,,,,,,,,,,,,,,,,,,,,,,,,,,,,,,,,,,,,,,,,,,,,,,,,,,,,,,,,,,,,,,,,,,,,,,,,,,,,,,,,,,,,,,,,,,,,,,,,,,,,,,,,,,,,,,,,,,,,
0,4,4,66,1,,60cb4f111e27b7ab3656e188,62c539f1710891b46175a7cf,2022-07-06_09h33.06.436,Colour_Asymmetry_Pilot,2022.1.3,Win32,29.89894158,62c50e9c1127f2cd403a315f,,,,,,,,,,,,,,,,,,,,,,,,,,,,,,,,,,,,,,,,,,,,,,,,,,,,,,,,,,,,,,,,,,,,,,,,,,,,,,,,,,,,,,,,,,,,,,,,,,,,,,,,,,,,,,,,,,,,,,,,,,,,,,,,,,,,,,,,,,,,,,,,,,,,,,,,,,,,,,,,,,,
0,5,5,82,1,,60cb4f111e27b7ab3656e188,62c539f1710891b46175a7cf,2022-07-06_09h33.06.436,Colour_Asymmetry_Pilot,2022.1.3,Win32,29.89894158,62c50e9c1127f2cd403a315f,,,,,,,,,,,,,,,,,,,,,,,,,,,,,,,,,,,,,,,,,,,,,,,,,,,,,,,,,,,,,,,,,,,,,,,,,,,,,,,,,,,,,,,,,,,,,,,,,,,,,,,,,,,,,,,,,,,,,,,,,,,,,,,,,,,,,,,,,,,,,,,,,,,,,,,,,,,,,,,,,,,
0,6,6,88,1,,60cb4f111e27b7ab3656e188,62c539f1710891b46175a7cf,2022-07-06_09h33.06.436,Colour_Asymmetry_Pilot,2022.1.3,Win32,29.89894158,62c50e9c1127f2cd403a315f,,,,,,,,,,,,,,,,,,,,,,,,,,,,,,,,,,,,,,,,,,,,,,,,,,,,,,,,,,,,,,,,,,,,,,,,,,,,,,,,,,,,,,,,,,,,,,,,,,,,,,,,,,,,,,,,,,,,,,,,,,,,,,,,,,,,,,,,,,,,,,,,,,,,,,,,,,,,,,,,,,,
0,7,7,76,1,,60cb4f111e27b7ab3656e188,62c539f1710891b46175a7cf,2022-07-06_09h33.06.436,Colour_Asymmetry_Pilot,2022.1.3,Win32,29.89894158,62c50e9c1127f2cd403a315f,,,,,,,,,,,,,,,,,,,,,,,,,,,,,,,,,,,,,,,,,,,,,,,,,,,,,,,,,,,,,,,,,,,,,,,,,,,,,,,,,,,,,,,,,,,,,,,,,,,,,,,,,,,,,,,,,,,,,,,,,,,,,,,,,,,,,,,,,,,,,,,,,,,,,,,,,,,,,,,,,,,
0,8,8,80,1,,60cb4f111e27b7ab3656e188,62c539f1710891b46175a7cf,2022-07-06_09h33.06.436,Colour_Asymmetry_Pilot,2022.1.3,Win32,29.89894158,62c50e9c1127f2cd403a315f,,,,,,,,,,,,,,,,,,,,,,,,,,,,,,,,,,,,,,,,,,,,,,,,,,,,,,,,,,,,,,,,,,,,,,,,,,,,,,,,,,,,,,,,,,,,,,,,,,,,,,,,,,,,,,,,,,,,,,,,,,,,,,,,,,,,,,,,,,,,,,,,,,,,,,,,,,,,,,,,,,,
0,9,9,16,1,,60cb4f111e27b7ab3656e188,62c539f1710891b46175a7cf,2022-07-06_09h33.06.436,Colour_Asymmetry_Pilot,2022.1.3,Win32,29.89894158,62c50e9c1127f2cd403a315f,,,,,,,,,,,,,,,,,,,,,,,,,,,,,,,,,,,,,,,,,,,,,,,,,,,,,,,,,,,,,,,,,,,,,,,,,,,,,,,,,,,,,,,,,,,,,,,,,,,,,,,,,,,,,,,,,,,,,,,,,,,,,,,,,,,,,,,,,,,,,,,,,,,,,,,,,,,,,,,,,,,
0,10,10,25,1,,60cb4f111e27b7ab3656e188,62c539f1710891b46175a7cf,2022-07-06_09h33.06.436,Colour_Asymmetry_Pilot,2022.1.3,Win32,29.89894158,62c50e9c1127f2cd403a315f,,,,,,,,,,,,,,,,,,,,,,,,,,,,,,,,,,,,,,,,,,,,,,,,,,,,,,,,,,,,,,,,,,,,,,,,,,,,,,,,,,,,,,,,,,,,,,,,,,,,,,,,,,,,,,,,,,,,,,,,,,,,,,,,,,,,,,,,,,,,,,,,,,,,,,,,,,,,,,,,,,,
0,11,11,50,1,,60cb4f111e27b7ab3656e188,62c539f1710891b46175a7cf,2022-07-06_09h33.06.436,Colour_Asymmetry_Pilot,2022.1.3,Win32,29.89894158,62c50e9c1127f2cd403a315f,,,,,,,,,,,,,,,,,,,,,,,,,,,,,,,,,,,,,,,,,,,,,,,,,,,,,,,,,,,,,,,,,,,,,,,,,,,,,,,,,,,,,,,,,,,,,,,,,,,,,,,,,,,,,,,,,,,,,,,,,,,,,,,,,,,,,,,,,,,,,,,,,,,,,,,,,,,,,,,,,,,
0,12,12,70,1,,60cb4f111e27b7ab3656e188,62c539f1710891b46175a7cf,2022-07-06_09h33.06.436,Colour_Asymmetry_Pilot,2022.1.3,Win32,29.89894158,62c50e9c1127f2cd403a315f,,,,,,,,,,,,,,,,,,,,,,,,,,,,,,,,,,,,,,,,,,,,,,,,,,,,,,,,,,,,,,,,,,,,,,,,,,,,,,,,,,,,,,,,,,,,,,,,,,,,,,,,,,,,,,,,,,,,,,,,,,,,,,,,,,,,,,,,,,,,,,,,,,,,,,,,,,,,,,,,,,,
0,13,13,69,1,,60cb4f111e27b7ab3656e188,62c539f1710891b46175a7cf,2022-07-06_09h33.06.436,Colour_Asymmetry_Pilot,2022.1.3,Win32,29.89894158,62c50e9c1127f2cd403a315f,,,,,,,,,,,,,,,,,,,,,,,,,,,,,,,,,,,,,,,,,,,,,,,,,,,,,,,,,,,,,,,,,,,,,,,,,,,,,,,,,,,,,,,,,,,,,,,,,,,,,,,,,,,,,,,,,,,,,,,,,,,,,,,,,,,,,,,,,,,,,,,,,,,,,,,,,,,,,,,,,,,
0,14,14,4,1,,60cb4f111e27b7ab3656e188,62c539f1710891b46175a7cf,2022-07-06_09h33.06.436,Colour_Asymmetry_Pilot,2022.1.3,Win32,29.89894158,62c50e9c1127f2cd403a315f,,,,,,,,,,,,,,,,,,,,,,,,,,,,,,,,,,,,,,,,,,,,,,,,,,,,,,,,,,,,,,,,,,,,,,,,,,,,,,,,,,,,,,,,,,,,,,,,,,,,,,,,,,,,,,,,,,,,,,,,,,,,,,,,,,,,,,,,,,,,,,,,,,,,,,,,,,,,,,,,,,,
0,15,15,81,1,,60cb4f111e27b7ab3656e188,62c539f1710891b46175a7cf,2022-07-06_09h33.06.436,Colour_Asymmetry_Pilot,2022.1.3,Win32,29.89894158,62c50e9c1127f2cd403a315f,,,,,,,,,,,,,,,,,,,,,,,,,,,,,,,,,,,,,,,,,,,,,,,,,,,,,,,,,,,,,,,,,,,,,,,,,,,,,,,,,,,,,,,,,,,,,,,,,,,,,,,,,,,,,,,,,,,,,,,,,,,,,,,,,,,,,,,,,,,,,,,,,,,,,,,,,,,,,,,,,,,
0,16,16,42,1,,60cb4f111e27b7ab3656e188,62c539f1710891b46175a7cf,2022-07-06_09h33.06.436,Colour_Asymmetry_Pilot,2022.1.3,Win32,29.89894158,62c50e9c1127f2cd403a315f,,,,,,,,,,,,,,,,,,,,,,,,,,,,,,,,,,,,,,,,,,,,,,,,,,,,,,,,,,,,,,,,,,,,,,,,,,,,,,,,,,,,,,,,,,,,,,,,,,,,,,,,,,,,,,,,,,,,,,,,,,,,,,,,,,,,,,,,,,,,,,,,,,,,,,,,,,,,,,,,,,,
0,17,17,3,1,,60cb4f111e27b7ab3656e188,62c539f1710891b46175a7cf,2022-07-06_09h33.06.436,Colour_Asymmetry_Pilot,2022.1.3,Win32,29.89894158,62c50e9c1127f2cd403a315f,,,,,,,,,,,,,,,,,,,,,,,,,,,,,,,,,,,,,,,,,,,,,,,,,,,,,,,,,,,,,,,,,,,,,,,,,,,,,,,,,,,,,,,,,,,,,,,,,,,,,,,,,,,,,,,,,,,,,,,,,,,,,,,,,,,,,,,,,,,,,,,,,,,,,,,,,,,,,,,,,,,
0,18,18,7,1,,60cb4f111e27b7ab3656e188,62c539f1710891b46175a7cf,2022-07-06_09h33.06.436,Colour_Asymmetry_Pilot,2022.1.3,Win32,29.89894158,62c50e9c1127f2cd403a315f,,,,,,,,,,,,,,,,,,,,,,,,,,,,,,,,,,,,,,,,,,,,,,,,,,,,,,,,,,,,,,,,,,,,,,,,,,,,,,,,,,,,,,,,,,,,,,,,,,,,,,,,,,,,,,,,,,,,,,,,,,,,,,,,,,,,,,,,,,,,,,,,,,,,,,,,,,,,,,,,,,,
0,19,19,38,1,,60cb4f111e27b7ab3656e188,62c539f1710891b46175a7cf,2022-07-06_09h33.06.436,Colour_Asymmetry_Pilot,2022.1.3,Win32,29.89894158,62c50e9c1127f2cd403a315f,,,,,,,,,,,,,,,,,,,,,,,,,,,,,,,,,,,,,,,,,,,,,,,,,,,,,,,,,,,,,,,,,,,,,,,,,,,,,,,,,,,,,,,,,,,,,,,,,,,,,,,,,,,,,,,,,,,,,,,,,,,,,,,,,,,,,,,,,,,,,,,,,,,,,,,,,,,,,,,,,,,
0,20,20,92,1,,60cb4f111e27b7ab3656e188,62c539f1710891b46175a7cf,2022-07-06_09h33.06.436,Colour_Asymmetry_Pilot,2022.1.3,Win32,29.89894158,62c50e9c1127f2cd403a315f,,,,,,,,,,,,,,,,,,,,,,,,,,,,,,,,,,,,,,,,,,,,,,,,,,,,,,,,,,,,,,,,,,,,,,,,,,,,,,,,,,,,,,,,,,,,,,,,,,,,,,,,,,,,,,,,,,,,,,,,,,,,,,,,,,,,,,,,,,,,,,,,,,,,,,,,,,,,,,,,,,,
0,21,21,14,1,,60cb4f111e27b7ab3656e188,62c539f1710891b46175a7cf,2022-07-06_09h33.06.436,Colour_Asymmetry_Pilot,2022.1.3,Win32,29.89894158,62c50e9c1127f2cd403a315f,,,,,,,,,,,,,,,,,,,,,,,,,,,,,,,,,,,,,,,,,,,,,,,,,,,,,,,,,,,,,,,,,,,,,,,,,,,,,,,,,,,,,,,,,,,,,,,,,,,,,,,,,,,,,,,,,,,,,,,,,,,,,,,,,,,,,,,,,,,,,,,,,,,,,,,,,,,,,,,,,,,
0,22,22,41,1,,60cb4f111e27b7ab3656e188,62c539f1710891b46175a7cf,2022-07-06_09h33.06.436,Colour_Asymmetry_Pilot,2022.1.3,Win32,29.89894158,62c50e9c1127f2cd403a315f,,,,,,,,,,,,,,,,,,,,,,,,,,,,,,,,,,,,,,,,,,,,,,,,,,,,,,,,,,,,,,,,,,,,,,,,,,,,,,,,,,,,,,,,,,,,,,,,,,,,,,,,,,,,,,,,,,,,,,,,,,,,,,,,,,,,,,,,,,,,,,,,,,,,,,,,,,,,,,,,,,,
0,23,23,86,1,,60cb4f111e27b7ab3656e188,62c539f1710891b46175a7cf,2022-07-06_09h33.06.436,Colour_Asymmetry_Pilot,2022.1.3,Win32,29.89894158,62c50e9c1127f2cd403a315f,,,,,,,,,,,,,,,,,,,,,,,,,,,,,,,,,,,,,,,,,,,,,,,,,,,,,,,,,,,,,,,,,,,,,,,,,,,,,,,,,,,,,,,,,,,,,,,,,,,,,,,,,,,,,,,,,,,,,,,,,,,,,,,,,,,,,,,,,,,,,,,,,,,,,,,,,,,,,,,,,,,
0,24,24,89,1,,60cb4f111e27b7ab3656e188,62c539f1710891b46175a7cf,2022-07-06_09h33.06.436,Colour_Asymmetry_Pilot,2022.1.3,Win32,29.89894158,62c50e9c1127f2cd403a315f,,,,,,,,,,,,,,,,,,,,,,,,,,,,,,,,,,,,,,,,,,,,,,,,,,,,,,,,,,,,,,,,,,,,,,,,,,,,,,,,,,,,,,,,,,,,,,,,,,,,,,,,,,,,,,,,,,,,,,,,,,,,,,,,,,,,,,,,,,,,,,,,,,,,,,,,,,,,,,,,,,,
0,25,25,1,1,,60cb4f111e27b7ab3656e188,62c539f1710891b46175a7cf,2022-07-06_09h33.06.436,Colour_Asymmetry_Pilot,2022.1.3,Win32,29.89894158,62c50e9c1127f2cd403a315f,,,,,,,,,,,,,,,,,,,,,,,,,,,,,,,,,,,,,,,,,,,,,,,,,,,,,,,,,,,,,,,,,,,,,,,,,,,,,,,,,,,,,,,,,,,,,,,,,,,,,,,,,,,,,,,,,,,,,,,,,,,,,,,,,,,,,,,,,,,,,,,,,,,,,,,,,,,,,,,,,,,
0,26,26,73,1,,60cb4f111e27b7ab3656e188,62c539f1710891b46175a7cf,2022-07-06_09h33.06.436,Colour_Asymmetry_Pilot,2022.1.3,Win32,29.89894158,62c50e9c1127f2cd403a315f,,,,,,,,,,,,,,,,,,,,,,,,,,,,,,,,,,,,,,,,,,,,,,,,,,,,,,,,,,,,,,,,,,,,,,,,,,,,,,,,,,,,,,,,,,,,,,,,,,,,,,,,,,,,,,,,,,,,,,,,,,,,,,,,,,,,,,,,,,,,,,,,,,,,,,,,,,,,,,,,,,,
0,27,27,56,1,,60cb4f111e27b7ab3656e188,62c539f1710891b46175a7cf,2022-07-06_09h33.06.436,Colour_Asymmetry_Pilot,2022.1.3,Win32,29.89894158,62c50e9c1127f2cd403a315f,,,,,,,,,,,,,,,,,,,,,,,,,,,,,,,,,,,,,,,,,,,,,,,,,,,,,,,,,,,,,,,,,,,,,,,,,,,,,,,,,,,,,,,,,,,,,,,,,,,,,,,,,,,,,,,,,,,,,,,,,,,,,,,,,,,,,,,,,,,,,,,,,,,,,,,,,,,,,,,,,,,
0,28,28,83,1,,60cb4f111e27b7ab3656e188,62c539f1710891b46175a7cf,2022-07-06_09h33.06.436,Colour_Asymmetry_Pilot,2022.1.3,Win32,29.89894158,62c50e9c1127f2cd403a315f,,,,,,,,,,,,,,,,,,,,,,,,,,,,,,,,,,,,,,,,,,,,,,,,,,,,,,,,,,,,,,,,,,,,,,,,,,,,,,,,,,,,,,,,,,,,,,,,,,,,,,,,,,,,,,,,,,,,,,,,,,,,,,,,,,,,,,,,,,,,,,,,,,,,,,,,,,,,,,,,,,,
0,29,29,53,1,,60cb4f111e27b7ab3656e188,62c539f1710891b46175a7cf,2022-07-06_09h33.06.436,Colour_Asymmetry_Pilot,2022.1.3,Win32,29.89894158,62c50e9c1127f2cd403a315f,,,,,,,,,,,,,,,,,,,,,,,,,,,,,,,,,,,,,,,,,,,,,,,,,,,,,,,,,,,,,,,,,,,,,,,,,,,,,,,,,,,,,,,,,,,,,,,,,,,,,,,,,,,,,,,,,,,,,,,,,,,,,,,,,,,,,,,,,,,,,,,,,,,,,,,,,,,,,,,,,,,
0,30,30,43,1,,60cb4f111e27b7ab3656e188,62c539f1710891b46175a7cf,2022-07-06_09h33.06.436,Colour_Asymmetry_Pilot,2022.1.3,Win32,29.89894158,62c50e9c1127f2cd403a315f,,,,,,,,,,,,,,,,,,,,,,,,,,,,,,,,,,,,,,,,,,,,,,,,,,,,,,,,,,,,,,,,,,,,,,,,,,,,,,,,,,,,,,,,,,,,,,,,,,,,,,,,,,,,,,,,,,,,,,,,,,,,,,,,,,,,,,,,,,,,,,,,,,,,,,,,,,,,,,,,,,,
0,31,31,64,1,,60cb4f111e27b7ab3656e188,62c539f1710891b46175a7cf,2022-07-06_09h33.06.436,Colour_Asymmetry_Pilot,2022.1.3,Win32,29.89894158,62c50e9c1127f2cd403a315f,,,,,,,,,,,,,,,,,,,,,,,,,,,,,,,,,,,,,,,,,,,,,,,,,,,,,,,,,,,,,,,,,,,,,,,,,,,,,,,,,,,,,,,,,,,,,,,,,,,,,,,,,,,,,,,,,,,,,,,,,,,,,,,,,,,,,,,,,,,,,,,,,,,,,,,,,,,,,,,,,,,
0,32,32,78,1,,60cb4f111e27b7ab3656e188,62c539f1710891b46175a7cf,2022-07-06_09h33.06.436,Colour_Asymmetry_Pilot,2022.1.3,Win32,29.89894158,62c50e9c1127f2cd403a315f,,,,,,,,,,,,,,,,,,,,,,,,,,,,,,,,,,,,,,,,,,,,,,,,,,,,,,,,,,,,,,,,,,,,,,,,,,,,,,,,,,,,,,,,,,,,,,,,,,,,,,,,,,,,,,,,,,,,,,,,,,,,,,,,,,,,,,,,,,,,,,,,,,,,,,,,,,,,,,,,,,,
0,33,33,68,1,,60cb4f111e27b7ab3656e188,62c539f1710891b46175a7cf,2022-07-06_09h33.06.436,Colour_Asymmetry_Pilot,2022.1.3,Win32,29.89894158,62c50e9c1127f2cd403a315f,,,,,,,,,,,,,,,,,,,,,,,,,,,,,,,,,,,,,,,,,,,,,,,,,,,,,,,,,,,,,,,,,,,,,,,,,,,,,,,,,,,,,,,,,,,,,,,,,,,,,,,,,,,,,,,,,,,,,,,,,,,,,,,,,,,,,,,,,,,,,,,,,,,,,,,,,,,,,,,,,,,
0,34,34,21,1,,60cb4f111e27b7ab3656e188,62c539f1710891b46175a7cf,2022-07-06_09h33.06.436,Colour_Asymmetry_Pilot,2022.1.3,Win32,29.89894158,62c50e9c1127f2cd403a315f,,,,,,,,,,,,,,,,,,,,,,,,,,,,,,,,,,,,,,,,,,,,,,,,,,,,,,,,,,,,,,,,,,,,,,,,,,,,,,,,,,,,,,,,,,,,,,,,,,,,,,,,,,,,,,,,,,,,,,,,,,,,,,,,,,,,,,,,,,,,,,,,,,,,,,,,,,,,,,,,,,,
0,35,35,74,1,,60cb4f111e27b7ab3656e188,62c539f1710891b46175a7cf,2022-07-06_09h33.06.436,Colour_Asymmetry_Pilot,2022.1.3,Win32,29.89894158,62c50e9c1127f2cd403a315f,,,,,,,,,,,,,,,,,,,,,,,,,,,,,,,,,,,,,,,,,,,,,,,,,,,,,,,,,,,,,,,,,,,,,,,,,,,,,,,,,,,,,,,,,,,,,,,,,,,,,,,,,,,,,,,,,,,,,,,,,,,,,,,,,,,,,,,,,,,,,,,,,,,,,,,,,,,,,,,,,,,
0,36,36,13,1,,60cb4f111e27b7ab3656e188,62c539f1710891b46175a7cf,2022-07-06_09h33.06.436,Colour_Asymmetry_Pilot,2022.1.3,Win32,29.89894158,62c50e9c1127f2cd403a315f,,,,,,,,,,,,,,,,,,,,,,,,,,,,,,,,,,,,,,,,,,,,,,,,,,,,,,,,,,,,,,,,,,,,,,,,,,,,,,,,,,,,,,,,,,,,,,,,,,,,,,,,,,,,,,,,,,,,,,,,,,,,,,,,,,,,,,,,,,,,,,,,,,,,,,,,,,,,,,,,,,,
0,37,37,0,1,,60cb4f111e27b7ab3656e188,62c539f1710891b46175a7cf,2022-07-06_09h33.06.436,Colour_Asymmetry_Pilot,2022.1.3,Win32,29.89894158,62c50e9c1127f2cd403a315f,,,,,,,,,,,,,,,,,,,,,,,,,,,,,,,,,,,,,,,,,,,,,,,,,,,,,,,,,,,,,,,,,,,,,,,,,,,,,,,,,,,,,,,,,,,,,,,,,,,,,,,,,,,,,,,,,,,,,,,,,,,,,,,,,,,,,,,,,,,,,,,,,,,,,,,,,,,,,,,,,,,
0,38,38,87,1,,60cb4f111e27b7ab3656e188,62c539f1710891b46175a7cf,2022-07-06_09h33.06.436,Colour_Asymmetry_Pilot,2022.1.3,Win32,29.89894158,62c50e9c1127f2cd403a315f,,,,,,,,,,,,,,,,,,,,,,,,,,,,,,,,,,,,,,,,,,,,,,,,,,,,,,,,,,,,,,,,,,,,,,,,,,,,,,,,,,,,,,,,,,,,,,,,,,,,,,,,,,,,,,,,,,,,,,,,,,,,,,,,,,,,,,,,,,,,,,,,,,,,,,,,,,,,,,,,,,,
0,39,39,63,1,,60cb4f111e27b7ab3656e188,62c539f1710891b46175a7cf,2022-07-06_09h33.06.436,Colour_Asymmetry_Pilot,2022.1.3,Win32,29.89894158,62c50e9c1127f2cd403a315f,,,,,,,,,,,,,,,,,,,,,,,,,,,,,,,,,,,,,,,,,,,,,,,,,,,,,,,,,,,,,,,,,,,,,,,,,,,,,,,,,,,,,,,,,,,,,,,,,,,,,,,,,,,,,,,,,,,,,,,,,,,,,,,,,,,,,,,,,,,,,,,,,,,,,,,,,,,,,,,,,,,
0,40,40,71,1,,60cb4f111e27b7ab3656e188,62c539f1710891b46175a7cf,2022-07-06_09h33.06.436,Colour_Asymmetry_Pilot,2022.1.3,Win32,29.89894158,62c50e9c1127f2cd403a315f,,,,,,,,,,,,,,,,,,,,,,,,,,,,,,,,,,,,,,,,,,,,,,,,,,,,,,,,,,,,,,,,,,,,,,,,,,,,,,,,,,,,,,,,,,,,,,,,,,,,,,,,,,,,,,,,,,,,,,,,,,,,,,,,,,,,,,,,,,,,,,,,,,,,,,,,,,,,,,,,,,,
0,41,41,65,1,,60cb4f111e27b7ab3656e188,62c539f1710891b46175a7cf,2022-07-06_09h33.06.436,Colour_Asymmetry_Pilot,2022.1.3,Win32,29.89894158,62c50e9c1127f2cd403a315f,,,,,,,,,,,,,,,,,,,,,,,,,,,,,,,,,,,,,,,,,,,,,,,,,,,,,,,,,,,,,,,,,,,,,,,,,,,,,,,,,,,,,,,,,,,,,,,,,,,,,,,,,,,,,,,,,,,,,,,,,,,,,,,,,,,,,,,,,,,,,,,,,,,,,,,,,,,,,,,,,,,
0,42,42,6,1,,60cb4f111e27b7ab3656e188,62c539f1710891b46175a7cf,2022-07-06_09h33.06.436,Colour_Asymmetry_Pilot,2022.1.3,Win32,29.89894158,62c50e9c1127f2cd403a315f,,,,,,,,,,,,,,,,,,,,,,,,,,,,,,,,,,,,,,,,,,,,,,,,,,,,,,,,,,,,,,,,,,,,,,,,,,,,,,,,,,,,,,,,,,,,,,,,,,,,,,,,,,,,,,,,,,,,,,,,,,,,,,,,,,,,,,,,,,,,,,,,,,,,,,,,,,,,,,,,,,,
0,43,43,19,1,,60cb4f111e27b7ab3656e188,62c539f1710891b46175a7cf,2022-07-06_09h33.06.436,Colour_Asymmetry_Pilot,2022.1.3,Win32,29.89894158,62c50e9c1127f2cd403a315f,,,,,,,,,,,,,,,,,,,,,,,,,,,,,,,,,,,,,,,,,,,,,,,,,,,,,,,,,,,,,,,,,,,,,,,,,,,,,,,,,,,,,,,,,,,,,,,,,,,,,,,,,,,,,,,,,,,,,,,,,,,,,,,,,,,,,,,,,,,,,,,,,,,,,,,,,,,,,,,,,,,
0,44,44,20,1,,60cb4f111e27b7ab3656e188,62c539f1710891b46175a7cf,2022-07-06_09h33.06.436,Colour_Asymmetry_Pilot,2022.1.3,Win32,29.89894158,62c50e9c1127f2cd403a315f,,,,,,,,,,,,,,,,,,,,,,,,,,,,,,,,,,,,,,,,,,,,,,,,,,,,,,,,,,,,,,,,,,,,,,,,,,,,,,,,,,,,,,,,,,,,,,,,,,,,,,,,,,,,,,,,,,,,,,,,,,,,,,,,,,,,,,,,,,,,,,,,,,,,,,,,,,,,,,,,,,,
0,45,45,27,1,,60cb4f111e27b7ab3656e188,62c539f1710891b46175a7cf,2022-07-06_09h33.06.436,Colour_Asymmetry_Pilot,2022.1.3,Win32,29.89894158,62c50e9c1127f2cd403a315f,,,,,,,,,,,,,,,,,,,,,,,,,,,,,,,,,,,,,,,,,,,,,,,,,,,,,,,,,,,,,,,,,,,,,,,,,,,,,,,,,,,,,,,,,,,,,,,,,,,,,,,,,,,,,,,,,,,,,,,,,,,,,,,,,,,,,,,,,,,,,,,,,,,,,,,,,,,,,,,,,,,
0,46,46,54,1,,60cb4f111e27b7ab3656e188,62c539f1710891b46175a7cf,2022-07-06_09h33.06.436,Colour_Asymmetry_Pilot,2022.1.3,Win32,29.89894158,62c50e9c1127f2cd403a315f,,,,,,,,,,,,,,,,,,,,,,,,,,,,,,,,,,,,,,,,,,,,,,,,,,,,,,,,,,,,,,,,,,,,,,,,,,,,,,,,,,,,,,,,,,,,,,,,,,,,,,,,,,,,,,,,,,,,,,,,,,,,,,,,,,,,,,,,,,,,,,,,,,,,,,,,,,,,,,,,,,,
0,47,47,46,1,,60cb4f111e27b7ab3656e188,62c539f1710891b46175a7cf,2022-07-06_09h33.06.436,Colour_Asymmetry_Pilot,2022.1.3,Win32,29.89894158,62c50e9c1127f2cd403a315f,,,,,,,,,,,,,,,,,,,,,,,,,,,,,,,,,,,,,,,,,,,,,,,,,,,,,,,,,,,,,,,,,,,,,,,,,,,,,,,,,,,,,,,,,,,,,,,,,,,,,,,,,,,,,,,,,,,,,,,,,,,,,,,,,,,,,,,,,,,,,,,,,,,,,,,,,,,,,,,,,,,
0,48,48,2,1,,60cb4f111e27b7ab3656e188,62c539f1710891b46175a7cf,2022-07-06_09h33.06.436,Colour_Asymmetry_Pilot,2022.1.3,Win32,29.89894158,62c50e9c1127f2cd403a315f,,,,,,,,,,,,,,,,,,,,,,,,,,,,,,,,,,,,,,,,,,,,,,,,,,,,,,,,,,,,,,,,,,,,,,,,,,,,,,,,,,,,,,,,,,,,,,,,,,,,,,,,,,,,,,,,,,,,,,,,,,,,,,,,,,,,,,,,,,,,,,,,,,,,,,,,,,,,,,,,,,,
0,49,49,77,1,,60cb4f111e27b7ab3656e188,62c539f1710891b46175a7cf,2022-07-06_09h33.06.436,Colour_Asymmetry_Pilot,2022.1.3,Win32,29.89894158,62c50e9c1127f2cd403a315f,,,,,,,,,,,,,,,,,,,,,,,,,,,,,,,,,,,,,,,,,,,,,,,,,,,,,,,,,,,,,,,,,,,,,,,,,,,,,,,,,,,,,,,,,,,,,,,,,,,,,,,,,,,,,,,,,,,,,,,,,,,,,,,,,,,,,,,,,,,,,,,,,,,,,,,,,,,,,,,,,,,
0,50,50,29,1,,60cb4f111e27b7ab3656e188,62c539f1710891b46175a7cf,2022-07-06_09h33.06.436,Colour_Asymmetry_Pilot,2022.1.3,Win32,29.89894158,62c50e9c1127f2cd403a315f,,,,,,,,,,,,,,,,,,,,,,,,,,,,,,,,,,,,,,,,,,,,,,,,,,,,,,,,,,,,,,,,,,,,,,,,,,,,,,,,,,,,,,,,,,,,,,,,,,,,,,,,,,,,,,,,,,,,,,,,,,,,,,,,,,,,,,,,,,,,,,,,,,,,,,,,,,,,,,,,,,,
0,51,51,44,1,,60cb4f111e27b7ab3656e188,62c539f1710891b46175a7cf,2022-07-06_09h33.06.436,Colour_Asymmetry_Pilot,2022.1.3,Win32,29.89894158,62c50e9c1127f2cd403a315f,,,,,,,,,,,,,,,,,,,,,,,,,,,,,,,,,,,,,,,,,,,,,,,,,,,,,,,,,,,,,,,,,,,,,,,,,,,,,,,,,,,,,,,,,,,,,,,,,,,,,,,,,,,,,,,,,,,,,,,,,,,,,,,,,,,,,,,,,,,,,,,,,,,,,,,,,,,,,,,,,,,
0,52,52,35,1,,60cb4f111e27b7ab3656e188,62c539f1710891b46175a7cf,2022-07-06_09h33.06.436,Colour_Asymmetry_Pilot,2022.1.3,Win32,29.89894158,62c50e9c1127f2cd403a315f,,,,,,,,,,,,,,,,,,,,,,,,,,,,,,,,,,,,,,,,,,,,,,,,,,,,,,,,,,,,,,,,,,,,,,,,,,,,,,,,,,,,,,,,,,,,,,,,,,,,,,,,,,,,,,,,,,,,,,,,,,,,,,,,,,,,,,,,,,,,,,,,,,,,,,,,,,,,,,,,,,,
0,53,53,72,1,,60cb4f111e27b7ab3656e188,62c539f1710891b46175a7cf,2022-07-06_09h33.06.436,Colour_Asymmetry_Pilot,2022.1.3,Win32,29.89894158,62c50e9c1127f2cd403a315f,,,,,,,,,,,,,,,,,,,,,,,,,,,,,,,,,,,,,,,,,,,,,,,,,,,,,,,,,,,,,,,,,,,,,,,,,,,,,,,,,,,,,,,,,,,,,,,,,,,,,,,,,,,,,,,,,,,,,,,,,,,,,,,,,,,,,,,,,,,,,,,,,,,,,,,,,,,,,,,,,,,
0,54,54,18,1,,60cb4f111e27b7ab3656e188,62c539f1710891b46175a7cf,2022-07-06_09h33.06.436,Colour_Asymmetry_Pilot,2022.1.3,Win32,29.89894158,62c50e9c1127f2cd403a315f,,,,,,,,,,,,,,,,,,,,,,,,,,,,,,,,,,,,,,,,,,,,,,,,,,,,,,,,,,,,,,,,,,,,,,,,,,,,,,,,,,,,,,,,,,,,,,,,,,,,,,,,,,,,,,,,,,,,,,,,,,,,,,,,,,,,,,,,,,,,,,,,,,,,,,,,,,,,,,,,,,,
0,55,55,8,1,,60cb4f111e27b7ab3656e188,62c539f1710891b46175a7cf,2022-07-06_09h33.06.436,Colour_Asymmetry_Pilot,2022.1.3,Win32,29.89894158,62c50e9c1127f2cd403a315f,,,,,,,,,,,,,,,,,,,,,,,,,,,,,,,,,,,,,,,,,,,,,,,,,,,,,,,,,,,,,,,,,,,,,,,,,,,,,,,,,,,,,,,,,,,,,,,,,,,,,,,,,,,,,,,,,,,,,,,,,,,,,,,,,,,,,,,,,,,,,,,,,,,,,,,,,,,,,,,,,,,
0,56,56,22,1,,60cb4f111e27b7ab3656e188,62c539f1710891b46175a7cf,2022-07-06_09h33.06.436,Colour_Asymmetry_Pilot,2022.1.3,Win32,29.89894158,62c50e9c1127f2cd403a315f,,,,,,,,,,,,,,,,,,,,,,,,,,,,,,,,,,,,,,,,,,,,,,,,,,,,,,,,,,,,,,,,,,,,,,,,,,,,,,,,,,,,,,,,,,,,,,,,,,,,,,,,,,,,,,,,,,,,,,,,,,,,,,,,,,,,,,,,,,,,,,,,,,,,,,,,,,,,,,,,,,,
0,57,57,26,1,,60cb4f111e27b7ab3656e188,62c539f1710891b46175a7cf,2022-07-06_09h33.06.436,Colour_Asymmetry_Pilot,2022.1.3,Win32,29.89894158,62c50e9c1127f2cd403a315f,,,,,,,,,,,,,,,,,,,,,,,,,,,,,,,,,,,,,,,,,,,,,,,,,,,,,,,,,,,,,,,,,,,,,,,,,,,,,,,,,,,,,,,,,,,,,,,,,,,,,,,,,,,,,,,,,,,,,,,,,,,,,,,,,,,,,,,,,,,,,,,,,,,,,,,,,,,,,,,,,,,
0,58,58,91,1,,60cb4f111e27b7ab3656e188,62c539f1710891b46175a7cf,2022-07-06_09h33.06.436,Colour_Asymmetry_Pilot,2022.1.3,Win32,29.89894158,62c50e9c1127f2cd403a315f,,,,,,,,,,,,,,,,,,,,,,,,,,,,,,,,,,,,,,,,,,,,,,,,,,,,,,,,,,,,,,,,,,,,,,,,,,,,,,,,,,,,,,,,,,,,,,,,,,,,,,,,,,,,,,,,,,,,,,,,,,,,,,,,,,,,,,,,,,,,,,,,,,,,,,,,,,,,,,,,,,,
0,59,59,31,1,,60cb4f111e27b7ab3656e188,62c539f1710891b46175a7cf,2022-07-06_09h33.06.436,Colour_Asymmetry_Pilot,2022.1.3,Win32,29.89894158,62c50e9c1127f2cd403a315f,,,,,,,,,,,,,,,,,,,,,,,,,,,,,,,,,,,,,,,,,,,,,,,,,,,,,,,,,,,,,,,,,,,,,,,,,,,,,,,,,,,,,,,,,,,,,,,,,,,,,,,,,,,,,,,,,,,,,,,,,,,,,,,,,,,,,,,,,,,,,,,,,,,,,,,,,,,,,,,,,,,
0,60,60,57,1,,60cb4f111e27b7ab3656e188,62c539f1710891b46175a7cf,2022-07-06_09h33.06.436,Colour_Asymmetry_Pilot,2022.1.3,Win32,29.89894158,62c50e9c1127f2cd403a315f,,,,,,,,,,,,,,,,,,,,,,,,,,,,,,,,,,,,,,,,,,,,,,,,,,,,,,,,,,,,,,,,,,,,,,,,,,,,,,,,,,,,,,,,,,,,,,,,,,,,,,,,,,,,,,,,,,,,,,,,,,,,,,,,,,,,,,,,,,,,,,,,,,,,,,,,,,,,,,,,,,,
0,61,61,47,1,,60cb4f111e27b7ab3656e188,62c539f1710891b46175a7cf,2022-07-06_09h33.06.436,Colour_Asymmetry_Pilot,2022.1.3,Win32,29.89894158,62c50e9c1127f2cd403a315f,,,,,,,,,,,,,,,,,,,,,,,,,,,,,,,,,,,,,,,,,,,,,,,,,,,,,,,,,,,,,,,,,,,,,,,,,,,,,,,,,,,,,,,,,,,,,,,,,,,,,,,,,,,,,,,,,,,,,,,,,,,,,,,,,,,,,,,,,,,,,,,,,,,,,,,,,,,,,,,,,,,
0,62,62,12,1,,60cb4f111e27b7ab3656e188,62c539f1710891b46175a7cf,2022-07-06_09h33.06.436,Colour_Asymmetry_Pilot,2022.1.3,Win32,29.89894158,62c50e9c1127f2cd403a315f,,,,,,,,,,,,,,,,,,,,,,,,,,,,,,,,,,,,,,,,,,,,,,,,,,,,,,,,,,,,,,,,,,,,,,,,,,,,,,,,,,,,,,,,,,,,,,,,,,,,,,,,,,,,,,,,,,,,,,,,,,,,,,,,,,,,,,,,,,,,,,,,,,,,,,,,,,,,,,,,,,,
0,63,63,60,1,,60cb4f111e27b7ab3656e188,62c539f1710891b46175a7cf,2022-07-06_09h33.06.436,Colour_Asymmetry_Pilot,2022.1.3,Win32,29.89894158,62c50e9c1127f2cd403a315f,,,,,,,,,,,,,,,,,,,,,,,,,,,,,,,,,,,,,,,,,,,,,,,,,,,,,,,,,,,,,,,,,,,,,,,,,,,,,,,,,,,,,,,,,,,,,,,,,,,,,,,,,,,,,,,,,,,,,,,,,,,,,,,,,,,,,,,,,,,,,,,,,,,,,,,,,,,,,,,,,,,
0,64,64,51,1,,60cb4f111e27b7ab3656e188,62c539f1710891b46175a7cf,2022-07-06_09h33.06.436,Colour_Asymmetry_Pilot,2022.1.3,Win32,29.89894158,62c50e9c1127f2cd403a315f,,,,,,,,,,,,,,,,,,,,,,,,,,,,,,,,,,,,,,,,,,,,,,,,,,,,,,,,,,,,,,,,,,,,,,,,,,,,,,,,,,,,,,,,,,,,,,,,,,,,,,,,,,,,,,,,,,,,,,,,,,,,,,,,,,,,,,,,,,,,,,,,,,,,,,,,,,,,,,,,,,,
0,65,65,59,1,,60cb4f111e27b7ab3656e188,62c539f1710891b46175a7cf,2022-07-06_09h33.06.436,Colour_Asymmetry_Pilot,2022.1.3,Win32,29.89894158,62c50e9c1127f2cd403a315f,,,,,,,,,,,,,,,,,,,,,,,,,,,,,,,,,,,,,,,,,,,,,,,,,,,,,,,,,,,,,,,,,,,,,,,,,,,,,,,,,,,,,,,,,,,,,,,,,,,,,,,,,,,,,,,,,,,,,,,,,,,,,,,,,,,,,,,,,,,,,,,,,,,,,,,,,,,,,,,,,,,
0,66,66,39,1,,60cb4f111e27b7ab3656e188,62c539f1710891b46175a7cf,2022-07-06_09h33.06.436,Colour_Asymmetry_Pilot,2022.1.3,Win32,29.89894158,62c50e9c1127f2cd403a315f,,,,,,,,,,,,,,,,,,,,,,,,,,,,,,,,,,,,,,,,,,,,,,,,,,,,,,,,,,,,,,,,,,,,,,,,,,,,,,,,,,,,,,,,,,,,,,,,,,,,,,,,,,,,,,,,,,,,,,,,,,,,,,,,,,,,,,,,,,,,,,,,,,,,,,,,,,,,,,,,,,,
0,67,67,10,1,,60cb4f111e27b7ab3656e188,62c539f1710891b46175a7cf,2022-07-06_09h33.06.436,Colour_Asymmetry_Pilot,2022.1.3,Win32,29.89894158,62c50e9c1127f2cd403a315f,,,,,,,,,,,,,,,,,,,,,,,,,,,,,,,,,,,,,,,,,,,,,,,,,,,,,,,,,,,,,,,,,,,,,,,,,,,,,,,,,,,,,,,,,,,,,,,,,,,,,,,,,,,,,,,,,,,,,,,,,,,,,,,,,,,,,,,,,,,,,,,,,,,,,,,,,,,,,,,,,,,
0,68,68,32,1,,60cb4f111e27b7ab3656e188,62c539f1710891b46175a7cf,2022-07-06_09h33.06.436,Colour_Asymmetry_Pilot,2022.1.3,Win32,29.89894158,62c50e9c1127f2cd403a315f,,,,,,,,,,,,,,,,,,,,,,,,,,,,,,,,,,,,,,,,,,,,,,,,,,,,,,,,,,,,,,,,,,,,,,,,,,,,,,,,,,,,,,,,,,,,,,,,,,,,,,,,,,,,,,,,,,,,,,,,,,,,,,,,,,,,,,,,,,,,,,,,,,,,,,,,,,,,,,,,,,,
0,69,69,36,1,,60cb4f111e27b7ab3656e188,62c539f1710891b46175a7cf,2022-07-06_09h33.06.436,Colour_Asymmetry_Pilot,2022.1.3,Win32,29.89894158,62c50e9c1127f2cd403a315f,,,,,,,,,,,,,,,,,,,,,,,,,,,,,,,,,,,,,,,,,,,,,,,,,,,,,,,,,,,,,,,,,,,,,,,,,,,,,,,,,,,,,,,,,,,,,,,,,,,,,,,,,,,,,,,,,,,,,,,,,,,,,,,,,,,,,,,,,,,,,,,,,,,,,,,,,,,,,,,,,,,
0,70,70,45,1,,60cb4f111e27b7ab3656e188,62c539f1710891b46175a7cf,2022-07-06_09h33.06.436,Colour_Asymmetry_Pilot,2022.1.3,Win32,29.89894158,62c50e9c1127f2cd403a315f,,,,,,,,,,,,,,,,,,,,,,,,,,,,,,,,,,,,,,,,,,,,,,,,,,,,,,,,,,,,,,,,,,,,,,,,,,,,,,,,,,,,,,,,,,,,,,,,,,,,,,,,,,,,,,,,,,,,,,,,,,,,,,,,,,,,,,,,,,,,,,,,,,,,,,,,,,,,,,,,,,,
0,71,71,15,1,,60cb4f111e27b7ab3656e188,62c539f1710891b46175a7cf,2022-07-06_09h33.06.436,Colour_Asymmetry_Pilot,2022.1.3,Win32,29.89894158,62c50e9c1127f2cd403a315f,,,,,,,,,,,,,,,,,,,,,,,,,,,,,,,,,,,,,,,,,,,,,,,,,,,,,,,,,,,,,,,,,,,,,,,,,,,,,,,,,,,,,,,,,,,,,,,,,,,,,,,,,,,,,,,,,,,,,,,,,,,,,,,,,,,,,,,,,,,,,,,,,,,,,,,,,,,,,,,,,,,
0,72,72,58,1,,60cb4f111e27b7ab3656e188,62c539f1710891b46175a7cf,2022-07-06_09h33.06.436,Colour_Asymmetry_Pilot,2022.1.3,Win32,29.89894158,62c50e9c1127f2cd403a315f,,,,,,,,,,,,,,,,,,,,,,,,,,,,,,,,,,,,,,,,,,,,,,,,,,,,,,,,,,,,,,,,,,,,,,,,,,,,,,,,,,,,,,,,,,,,,,,,,,,,,,,,,,,,,,,,,,,,,,,,,,,,,,,,,,,,,,,,,,,,,,,,,,,,,,,,,,,,,,,,,,,
0,73,73,23,1,,60cb4f111e27b7ab3656e188,62c539f1710891b46175a7cf,2022-07-06_09h33.06.436,Colour_Asymmetry_Pilot,2022.1.3,Win32,29.89894158,62c50e9c1127f2cd403a315f,,,,,,,,,,,,,,,,,,,,,,,,,,,,,,,,,,,,,,,,,,,,,,,,,,,,,,,,,,,,,,,,,,,,,,,,,,,,,,,,,,,,,,,,,,,,,,,,,,,,,,,,,,,,,,,,,,,,,,,,,,,,,,,,,,,,,,,,,,,,,,,,,,,,,,,,,,,,,,,,,,,
0,74,74,90,1,,60cb4f111e27b7ab3656e188,62c539f1710891b46175a7cf,2022-07-06_09h33.06.436,Colour_Asymmetry_Pilot,2022.1.3,Win32,29.89894158,62c50e9c1127f2cd403a315f,,,,,,,,,,,,,,,,,,,,,,,,,,,,,,,,,,,,,,,,,,,,,,,,,,,,,,,,,,,,,,,,,,,,,,,,,,,,,,,,,,,,,,,,,,,,,,,,,,,,,,,,,,,,,,,,,,,,,,,,,,,,,,,,,,,,,,,,,,,,,,,,,,,,,,,,,,,,,,,,,,,
0,75,75,34,1,,60cb4f111e27b7ab3656e188,62c539f1710891b46175a7cf,2022-07-06_09h33.06.436,Colour_Asymmetry_Pilot,2022.1.3,Win32,29.89894158,62c50e9c1127f2cd403a315f,,,,,,,,,,,,,,,,,,,,,,,,,,,,,,,,,,,,,,,,,,,,,,,,,,,,,,,,,,,,,,,,,,,,,,,,,,,,,,,,,,,,,,,,,,,,,,,,,,,,,,,,,,,,,,,,,,,,,,,,,,,,,,,,,,,,,,,,,,,,,,,,,,,,,,,,,,,,,,,,,,,
0,76,76,17,1,,60cb4f111e27b7ab3656e188,62c539f1710891b46175a7cf,2022-07-06_09h33.06.436,Colour_Asymmetry_Pilot,2022.1.3,Win32,29.89894158,62c50e9c1127f2cd403a315f,,,,,,,,,,,,,,,,,,,,,,,,,,,,,,,,,,,,,,,,,,,,,,,,,,,,,,,,,,,,,,,,,,,,,,,,,,,,,,,,,,,,,,,,,,,,,,,,,,,,,,,,,,,,,,,,,,,,,,,,,,,,,,,,,,,,,,,,,,,,,,,,,,,,,,,,,,,,,,,,,,,
0,77,77,9,1,,60cb4f111e27b7ab3656e188,62c539f1710891b46175a7cf,2022-07-06_09h33.06.436,Colour_Asymmetry_Pilot,2022.1.3,Win32,29.89894158,62c50e9c1127f2cd403a315f,,,,,,,,,,,,,,,,,,,,,,,,,,,,,,,,,,,,,,,,,,,,,,,,,,,,,,,,,,,,,,,,,,,,,,,,,,,,,,,,,,,,,,,,,,,,,,,,,,,,,,,,,,,,,,,,,,,,,,,,,,,,,,,,,,,,,,,,,,,,,,,,,,,,,,,,,,,,,,,,,,,
0,78,78,30,1,,60cb4f111e27b7ab3656e188,62c539f1710891b46175a7cf,2022-07-06_09h33.06.436,Colour_Asymmetry_Pilot,2022.1.3,Win32,29.89894158,62c50e9c1127f2cd403a315f,,,,,,,,,,,,,,,,,,,,,,,,,,,,,,,,,,,,,,,,,,,,,,,,,,,,,,,,,,,,,,,,,,,,,,,,,,,,,,,,,,,,,,,,,,,,,,,,,,,,,,,,,,,,,,,,,,,,,,,,,,,,,,,,,,,,,,,,,,,,,,,,,,,,,,,,,,,,,,,,,,,
0,79,79,40,1,,60cb4f111e27b7ab3656e188,62c539f1710891b46175a7cf,2022-07-06_09h33.06.436,Colour_Asymmetry_Pilot,2022.1.3,Win32,29.89894158,62c50e9c1127f2cd403a315f,,,,,,,,,,,,,,,,,,,,,,,,,,,,,,,,,,,,,,,,,,,,,,,,,,,,,,,,,,,,,,,,,,,,,,,,,,,,,,,,,,,,,,,,,,,,,,,,,,,,,,,,,,,,,,,,,,,,,,,,,,,,,,,,,,,,,,,,,,,,,,,,,,,,,,,,,,,,,,,,,,,
0,80,80,24,1,,60cb4f111e27b7ab3656e188,62c539f1710891b46175a7cf,2022-07-06_09h33.06.436,Colour_Asymmetry_Pilot,2022.1.3,Win32,29.89894158,62c50e9c1127f2cd403a315f,,,,,,,,,,,,,,,,,,,,,,,,,,,,,,,,,,,,,,,,,,,,,,,,,,,,,,,,,,,,,,,,,,,,,,,,,,,,,,,,,,,,,,,,,,,,,,,,,,,,,,,,,,,,,,,,,,,,,,,,,,,,,,,,,,,,,,,,,,,,,,,,,,,,,,,,,,,,,,,,,,,
0,81,81,52,1,,60cb4f111e27b7ab3656e188,62c539f1710891b46175a7cf,2022-07-06_09h33.06.436,Colour_Asymmetry_Pilot,2022.1.3,Win32,29.89894158,62c50e9c1127f2cd403a315f,,,,,,,,,,,,,,,,,,,,,,,,,,,,,,,,,,,,,,,,,,,,,,,,,,,,,,,,,,,,,,,,,,,,,,,,,,,,,,,,,,,,,,,,,,,,,,,,,,,,,,,,,,,,,,,,,,,,,,,,,,,,,,,,,,,,,,,,,,,,,,,,,,,,,,,,,,,,,,,,,,,
0,82,82,5,1,,60cb4f111e27b7ab3656e188,62c539f1710891b46175a7cf,2022-07-06_09h33.06.436,Colour_Asymmetry_Pilot,2022.1.3,Win32,29.89894158,62c50e9c1127f2cd403a315f,,,,,,,,,,,,,,,,,,,,,,,,,,,,,,,,,,,,,,,,,,,,,,,,,,,,,,,,,,,,,,,,,,,,,,,,,,,,,,,,,,,,,,,,,,,,,,,,,,,,,,,,,,,,,,,,,,,,,,,,,,,,,,,,,,,,,,,,,,,,,,,,,,,,,,,,,,,,,,,,,,,
0,83,83,11,1,,60cb4f111e27b7ab3656e188,62c539f1710891b46175a7cf,2022-07-06_09h33.06.436,Colour_Asymmetry_Pilot,2022.1.3,Win32,29.89894158,62c50e9c1127f2cd403a315f,,,,,,,,,,,,,,,,,,,,,,,,,,,,,,,,,,,,,,,,,,,,,,,,,,,,,,,,,,,,,,,,,,,,,,,,,,,,,,,,,,,,,,,,,,,,,,,,,,,,,,,,,,,,,,,,,,,,,,,,,,,,,,,,,,,,,,,,,,,,,,,,,,,,,,,,,,,,,,,,,,,
0,84,84,55,1,,60cb4f111e27b7ab3656e188,62c539f1710891b46175a7cf,2022-07-06_09h33.06.436,Colour_Asymmetry_Pilot,2022.1.3,Win32,29.89894158,62c50e9c1127f2cd403a315f,,,,,,,,,,,,,,,,,,,,,,,,,,,,,,,,,,,,,,,,,,,,,,,,,,,,,,,,,,,,,,,,,,,,,,,,,,,,,,,,,,,,,,,,,,,,,,,,,,,,,,,,,,,,,,,,,,,,,,,,,,,,,,,,,,,,,,,,,,,,,,,,,,,,,,,,,,,,,,,,,,,
0,85,85,67,1,,60cb4f111e27b7ab3656e188,62c539f1710891b46175a7cf,2022-07-06_09h33.06.436,Colour_Asymmetry_Pilot,2022.1.3,Win32,29.89894158,62c50e9c1127f2cd403a315f,,,,,,,,,,,,,,,,,,,,,,,,,,,,,,,,,,,,,,,,,,,,,,,,,,,,,,,,,,,,,,,,,,,,,,,,,,,,,,,,,,,,,,,,,,,,,,,,,,,,,,,,,,,,,,,,,,,,,,,,,,,,,,,,,,,,,,,,,,,,,,,,,,,,,,,,,,,,,,,,,,,
0,86,86,28,1,,60cb4f111e27b7ab3656e188,62c539f1710891b46175a7cf,2022-07-06_09h33.06.436,Colour_Asymmetry_Pilot,2022.1.3,Win32,29.89894158,62c50e9c1127f2cd403a315f,,,,,,,,,,,,,,,,,,,,,,,,,,,,,,,,,,,,,,,,,,,,,,,,,,,,,,,,,,,,,,,,,,,,,,,,,,,,,,,,,,,,,,,,,,,,,,,,,,,,,,,,,,,,,,,,,,,,,,,,,,,,,,,,,,,,,,,,,,,,,,,,,,,,,,,,,,,,,,,,,,,
0,87,87,84,1,,60cb4f111e27b7ab3656e188,62c539f1710891b46175a7cf,2022-07-06_09h33.06.436,Colour_Asymmetry_Pilot,2022.1.3,Win32,29.89894158,62c50e9c1127f2cd403a315f,,,,,,,,,,,,,,,,,,,,,,,,,,,,,,,,,,,,,,,,,,,,,,,,,,,,,,,,,,,,,,,,,,,,,,,,,,,,,,,,,,,,,,,,,,,,,,,,,,,,,,,,,,,,,,,,,,,,,,,,,,,,,,,,,,,,,,,,,,,,,,,,,,,,,,,,,,,,,,,,,,,
0,88,88,62,1,,60cb4f111e27b7ab3656e188,62c539f1710891b46175a7cf,2022-07-06_09h33.06.436,Colour_Asymmetry_Pilot,2022.1.3,Win32,29.89894158,62c50e9c1127f2cd403a315f,,,,,,,,,,,,,,,,,,,,,,,,,,,,,,,,,,,,,,,,,,,,,,,,,,,,,,,,,,,,,,,,,,,,,,,,,,,,,,,,,,,,,,,,,,,,,,,,,,,,,,,,,,,,,,,,,,,,,,,,,,,,,,,,,,,,,,,,,,,,,,,,,,,,,,,,,,,,,,,,,,,
0,89,89,85,1,,60cb4f111e27b7ab3656e188,62c539f1710891b46175a7cf,2022-07-06_09h33.06.436,Colour_Asymmetry_Pilot,2022.1.3,Win32,29.89894158,62c50e9c1127f2cd403a315f,,,,,,,,,,,,,,,,,,,,,,,,,,,,,,,,,,,,,,,,,,,,,,,,,,,,,,,,,,,,,,,,,,,,,,,,,,,,,,,,,,,,,,,,,,,,,,,,,,,,,,,,,,,,,,,,,,,,,,,,,,,,,,,,,,,,,,,,,,,,,,,,,,,,,,,,,,,,,,,,,,,
0,90,90,37,1,,60cb4f111e27b7ab3656e188,62c539f1710891b46175a7cf,2022-07-06_09h33.06.436,Colour_Asymmetry_Pilot,2022.1.3,Win32,29.89894158,62c50e9c1127f2cd403a315f,,,,,,,,,,,,,,,,,,,,,,,,,,,,,,,,,,,,,,,,,,,,,,,,,,,,,,,,,,,,,,,,,,,,,,,,,,,,,,,,,,,,,,,,,,,,,,,,,,,,,,,,,,,,,,,,,,,,,,,,,,,,,,,,,,,,,,,,,,,,,,,,,,,,,,,,,,,,,,,,,,,
0,91,91,75,1,,60cb4f111e27b7ab3656e188,62c539f1710891b46175a7cf,2022-07-06_09h33.06.436,Colour_Asymmetry_Pilot,2022.1.3,Win32,29.89894158,62c50e9c1127f2cd403a315f,,,,,,,,,,,,,,,,,,,,,,,,,,,,,,,,,,,,,,,,,,,,,,,,,,,,,,,,,,,,,,,,,,,,,,,,,,,,,,,,,,,,,,,,,,,,,,,,,,,,,,,,,,,,,,,,,,,,,,,,,,,,,,,,,,,,,,,,,,,,,,,,,,,,,,,,,,,,,,,,,,,
0,92,92,48,1,,60cb4f111e27b7ab3656e188,62c539f1710891b46175a7cf,2022-07-06_09h33.06.436,Colour_Asymmetry_Pilot,2022.1.3,Win32,29.89894158,62c50e9c1127f2cd403a315f,,,,,,,,,,,,,,,,,,,,,,,,,,,,,,,,,,,,,,,,,,,,,,,,,,,,,,,,,,,,,,,,,,,,,,,,,,,,,,,,,,,,,,,,,,,,,,,,,,,,,,,,,,,,,,,,,,,,,,,,,,,,,,,,,,,,,,,,,,,,,,,,,,,,,,,,,,,,,,,,,,,
,,,,,,60cb4f111e27b7ab3656e188,62c539f1710891b46175a7cf,2022-07-06_09h33.06.436,Colour_Asymmetry_Pilot,2022.1.3,Win32,29.89894158,62c50e9c1127f2cd403a315f,0,0,0,154,1,twoone,,,,,,,,,,,,,,,,,,,,,,,,,,,,,,,,,,,,,,,,,,,,,,,,,,,,,,,,,,,,,,,,,,,,,,,,,,,,,,,,,,,,,,,,,,,,,,,,,,,,,,,,,,,,,,,,,,,,,,,,,,,,,,,,,,,,,,,,,,,,,,,,,,,,,,,,,,,,,
,,,,,,60cb4f111e27b7ab3656e188,62c539f1710891b46175a7cf,2022-07-06_09h33.06.436,Colour_Asymmetry_Pilot,2022.1.3,Win32,29.89894158,62c50e9c1127f2cd403a315f,0,1,1,77,1,threefour,,,,,,,,,,,,,,,,,,,,,,,,,,,,,,,,,,,,,,,,,,,,,,,,,,,,,,,,,,,,,,,,,,,,,,,,,,,,,,,,,,,,,,,,,,,,,,,,,,,,,,,,,,,,,,,,,,,,,,,,,,,,,,,,,,,,,,,,,,,,,,,,,,,,,,,,,,,,,
,,,,,,60cb4f111e27b7ab3656e188,62c539f1710891b46175a7cf,2022-07-06_09h33.06.436,Colour_Asymmetry_Pilot,2022.1.3,Win32,29.89894158,62c50e9c1127f2cd403a315f,0,2,2,62,1,fourtwo,,,,,,,,,,,,,,,,,,,,,,,,,,,,,,,,,,,,,,,,,,,,,,,,,,,,,,,,,,,,,,,,,,,,,,,,,,,,,,,,,,,,,,,,,,,,,,,,,,,,,,,,,,,,,,,,,,,,,,,,,,,,,,,,,,,,,,,,,,,,,,,,,,,,,,,,,,,,,
,,,,,,60cb4f111e27b7ab3656e188,62c539f1710891b46175a7cf,2022-07-06_09h33.06.436,Colour_Asymmetry_Pilot,2022.1.3,Win32,29.89894158,62c50e9c1127f2cd403a315f,0,3,3,128,1,onetwo,,,,,,,,,,,,,,,,,,,,,,,,,,,,,,,,,,,,,,,,,,,,,,,,,,,,,,,,,,,,,,,,,,,,,,,,,,,,,,,,,,,,,,,,,,,,,,,,,,,,,,,,,,,,,,,,,,,,,,,,,,,,,,,,,,,,,,,,,,,,,,,,,,,,,,,,,,,,,
,,,,,,60cb4f111e27b7ab3656e188,62c539f1710891b46175a7cf,2022-07-06_09h33.06.436,Colour_Asymmetry_Pilot,2022.1.3,Win32,29.89894158,62c50e9c1127f2cd403a315f,0,4,4,101,1,threefour,,,,,,,,,,,,,,,,,,,,,,,,,,,,,,,,,,,,,,,,,,,,,,,,,,,,,,,,,,,,,,,,,,,,,,,,,,,,,,,,,,,,,,,,,,,,,,,,,,,,,,,,,,,,,,,,,,,,,,,,,,,,,,,,,,,,,,,,,,,,,,,,,,,,,,,,,,,,,
,,,,,,60cb4f111e27b7ab3656e188,62c539f1710891b46175a7cf,2022-07-06_09h33.06.436,Colour_Asymmetry_Pilot,2022.1.3,Win32,29.89894158,62c50e9c1127f2cd403a315f,0,5,5,85,1,threefour,,,,,,,,,,,,,,,,,,,,,,,,,,,,,,,,,,,,,,,,,,,,,,,,,,,,,,,,,,,,,,,,,,,,,,,,,,,,,,,,,,,,,,,,,,,,,,,,,,,,,,,,,,,,,,,,,,,,,,,,,,,,,,,,,,,,,,,,,,,,,,,,,,,,,,,,,,,,,
,,,,,,60cb4f111e27b7ab3656e188,62c539f1710891b46175a7cf,2022-07-06_09h33.06.436,Colour_Asymmetry_Pilot,2022.1.3,Win32,29.89894158,62c50e9c1127f2cd403a315f,0,6,6,45,1,threefour,,,,,,,,,,,,,,,,,,,,,,,,,,,,,,,,,,,,,,,,,,,,,,,,,,,,,,,,,,,,,,,,,,,,,,,,,,,,,,,,,,,,,,,,,,,,,,,,,,,,,,,,,,,,,,,,,,,,,,,,,,,,,,,,,,,,,,,,,,,,,,,,,,,,,,,,,,,,,
,,,,,,60cb4f111e27b7ab3656e188,62c539f1710891b46175a7cf,2022-07-06_09h33.06.436,Colour_Asymmetry_Pilot,2022.1.3,Win32,29.89894158,62c50e9c1127f2cd403a315f,0,7,7,7,1,fourthree,,,,,,,,,,,,,,,,,,,,,,,,,,,,,,,,,,,,,,,,,,,,,,,,,,,,,,,,,,,,,,,,,,,,,,,,,,,,,,,,,,,,,,,,,,,,,,,,,,,,,,,,,,,,,,,,,,,,,,,,,,,,,,,,,,,,,,,,,,,,,,,,,,,,,,,,,,,,,
,,,,,,60cb4f111e27b7ab3656e188,62c539f1710891b46175a7cf,2022-07-06_09h33.06.436,Colour_Asymmetry_Pilot,2022.1.3,Win32,29.89894158,62c50e9c1127f2cd403a315f,0,8,8,12,1,threeone,,,,,,,,,,,,,,,,,,,,,,,,,,,,,,,,,,,,,,,,,,,,,,,,,,,,,,,,,,,,,,,,,,,,,,,,,,,,,,,,,,,,,,,,,,,,,,,,,,,,,,,,,,,,,,,,,,,,,,,,,,,,,,,,,,,,,,,,,,,,,,,,,,,,,,,,,,,,,
,,,,,,60cb4f111e27b7ab3656e188,62c539f1710891b46175a7cf,2022-07-06_09h33.06.436,Colour_Asymmetry_Pilot,2022.1.3,Win32,29.89894158,62c50e9c1127f2cd403a315f,0,9,9,102,1,fourtwo,,,,,,,,,,,,,,,,,,,,,,,,,,,,,,,,,,,,,,,,,,,,,,,,,,,,,,,,,,,,,,,,,,,,,,,,,,,,,,,,,,,,,,,,,,,,,,,,,,,,,,,,,,,,,,,,,,,,,,,,,,,,,,,,,,,,,,,,,,,,,,,,,,,,,,,,,,,,,
,,,,,,60cb4f111e27b7ab3656e188,62c539f1710891b46175a7cf,2022-07-06_09h33.06.436,Colour_Asymmetry_Pilot,2022.1.3,Win32,29.89894158,62c50e9c1127f2cd403a315f,0,10,10,86,1,fourtwo,,,,,,,,,,,,,,,,,,,,,,,,,,,,,,,,,,,,,,,,,,,,,,,,,,,,,,,,,,,,,,,,,,,,,,,,,,,,,,,,,,,,,,,,,,,,,,,,,,,,,,,,,,,,,,,,,,,,,,,,,,,,,,,,,,,,,,,,,,,,,,,,,,,,,,,,,,,,,
,,,,,,60cb4f111e27b7ab3656e188,62c539f1710891b46175a7cf,2022-07-06_09h33.06.436,Colour_Asymmetry_Pilot,2022.1.3,Win32,29.89894158,62c50e9c1127f2cd403a315f,0,11,11,132,1,threeone,,,,,,,,,,,,,,,,,,,,,,,,,,,,,,,,,,,,,,,,,,,,,,,,,,,,,,,,,,,,,,,,,,,,,,,,,,,,,,,,,,,,,,,,,,,,,,,,,,,,,,,,,,,,,,,,,,,,,,,,,,,,,,,,,,,,,,,,,,,,,,,,,,,,,,,,,,,,,
,,,,,,60cb4f111e27b7ab3656e188,62c539f1710891b46175a7cf,2022-07-06_09h33.06.436,Colour_Asymmetry_Pilot,2022.1.3,Win32,29.89894158,62c50e9c1127f2cd403a315f,0,12,12,99,1,twofour,,,,,,,,,,,,,,,,,,,,,,,,,,,,,,,,,,,,,,,,,,,,,,,,,,,,,,,,,,,,,,,,,,,,,,,,,,,,,,,,,,,,,,,,,,,,,,,,,,,,,,,,,,,,,,,,,,,,,,,,,,,,,,,,,,,,,,,,,,,,,,,,,,,,,,,,,,,,,
,,,,,,60cb4f111e27b7ab3656e188,62c539f1710891b46175a7cf,2022-07-06_09h33.06.436,Colour_Asymmetry_Pilot,2022.1.3,Win32,29.89894158,62c50e9c1127f2cd403a315f,0,13,13,139,1,twofour,,,,,,,,,,,,,,,,,,,,,,,,,,,,,,,,,,,,,,,,,,,,,,,,,,,,,,,,,,,,,,,,,,,,,,,,,,,,,,,,,,,,,,,,,,,,,,,,,,,,,,,,,,,,,,,,,,,,,,,,,,,,,,,,,,,,,,,,,,,,,,,,,,,,,,,,,,,,,
,,,,,,60cb4f111e27b7ab3656e188,62c539f1710891b46175a7cf,2022-07-06_09h33.06.436,Colour_Asymmetry_Pilot,2022.1.3,Win32,29.89894158,62c50e9c1127f2cd403a315f,0,14,14,31,1,fourthree,,,,,,,,,,,,,,,,,,,,,,,,,,,,,,,,,,,,,,,,,,,,,,,,,,,,,,,,,,,,,,,,,,,,,,,,,,,,,,,,,,,,,,,,,,,,,,,,,,,,,,,,,,,,,,,,,,,,,,,,,,,,,,,,,,,,,,,,,,,,,,,,,,,,,,,,,,,,,
,,,,,,60cb4f111e27b7ab3656e188,62c539f1710891b46175a7cf,2022-07-06_09h33.06.436,Colour_Asymmetry_Pilot,2022.1.3,Win32,29.89894158,62c50e9c1127f2cd403a315f,0,15,15,67,1,twofour,,,,,,,,,,,,,,,,,,,,,,,,,,,,,,,,,,,,,,,,,,,,,,,,,,,,,,,,,,,,,,,,,,,,,,,,,,,,,,,,,,,,,,,,,,,,,,,,,,,,,,,,,,,,,,,,,,,,,,,,,,,,,,,,,,,,,,,,,,,,,,,,,,,,,,,,,,,,,
,,,,,,60cb4f111e27b7ab3656e188,62c539f1710891b46175a7cf,2022-07-06_09h33.06.436,Colour_Asymmetry_Pilot,2022.1.3,Win32,29.89894158,62c50e9c1127f2cd403a315f,0,16,16,119,1,fourthree,,,,,,,,,,,,,,,,,,,,,,,,,,,,,,,,,,,,,,,,,,,,,,,,,,,,,,,,,,,,,,,,,,,,,,,,,,,,,,,,,,,,,,,,,,,,,,,,,,,,,,,,,,,,,,,,,,,,,,,,,,,,,,,,,,,,,,,,,,,,,,,,,,,,,,,,,,,,,
,,,,,,60cb4f111e27b7ab3656e188,62c539f1710891b46175a7cf,2022-07-06_09h33.06.436,Colour_Asymmetry_Pilot,2022.1.3,Win32,29.89894158,62c50e9c1127f2cd403a315f,0,17,17,150,1,fourtwo,,,,,,,,,,,,,,,,,,,,,,,,,,,,,,,,,,,,,,,,,,,,,,,,,,,,,,,,,,,,,,,,,,,,,,,,,,,,,,,,,,,,,,,,,,,,,,,,,,,,,,,,,,,,,,,,,,,,,,,,,,,,,,,,,,,,,,,,,,,,,,,,,,,,,,,,,,,,,
,,,,,,60cb4f111e27b7ab3656e188,62c539f1710891b46175a7cf,2022-07-06_09h33.06.436,Colour_Asymmetry_Pilot,2022.1.3,Win32,29.89894158,62c50e9c1127f2cd403a315f,0,18,18,117,1,threefour,,,,,,,,,,,,,,,,,,,,,,,,,,,,,,,,,,,,,,,,,,,,,,,,,,,,,,,,,,,,,,,,,,,,,,,,,,,,,,,,,,,,,,,,,,,,,,,,,,,,,,,,,,,,,,,,,,,,,,,,,,,,,,,,,,,,,,,,,,,,,,,,,,,,,,,,,,,,,
,,,,,,60cb4f111e27b7ab3656e188,62c539f1710891b46175a7cf,2022-07-06_09h33.06.436,Colour_Asymmetry_Pilot,2022.1.3,Win32,29.89894158,62c50e9c1127f2cd403a315f,0,19,19,68,1,threeone,,,,,,,,,,,,,,,,,,,,,,,,,,,,,,,,,,,,,,,,,,,,,,,,,,,,,,,,,,,,,,,,,,,,,,,,,,,,,,,,,,,,,,,,,,,,,,,,,,,,,,,,,,,,,,,,,,,,,,,,,,,,,,,,,,,,,,,,,,,,,,,,,,,,,,,,,,,,,
,,,,,,60cb4f111e27b7ab3656e188,62c539f1710891b46175a7cf,2022-07-06_09h33.06.436,Colour_Asymmetry_Pilot,2022.1.3,Win32,29.89894158,62c50e9c1127f2cd403a315f,0,20,20,131,1,twofour,,,,,,,,,,,,,,,,,,,,,,,,,,,,,,,,,,,,,,,,,,,,,,,,,,,,,,,,,,,,,,,,,,,,,,,,,,,,,,,,,,,,,,,,,,,,,,,,,,,,,,,,,,,,,,,,,,,,,,,,,,,,,,,,,,,,,,,,,,,,,,,,,,,,,,,,,,,,,
,,,,,,60cb4f111e27b7ab3656e188,62c539f1710891b46175a7cf,2022-07-06_09h33.06.436,Colour_Asymmetry_Pilot,2022.1.3,Win32,29.89894158,62c50e9c1127f2cd403a315f,0,21,21,130,1,twoone,,,,,,,,,,,,,,,,,,,,,,,,,,,,,,,,,,,,,,,,,,,,,,,,,,,,,,,,,,,,,,,,,,,,,,,,,,,,,,,,,,,,,,,,,,,,,,,,,,,,,,,,,,,,,,,,,,,,,,,,,,,,,,,,,,,,,,,,,,,,,,,,,,,,,,,,,,,,,
,,,,,,60cb4f111e27b7ab3656e188,62c539f1710891b46175a7cf,2022-07-06_09h33.06.436,Colour_Asymmetry_Pilot,2022.1.3,Win32,29.89894158,62c50e9c1127f2cd403a315f,0,22,22,53,1,threefour,,,,,,,,,,,,,,,,,,,,,,,,,,,,,,,,,,,,,,,,,,,,,,,,,,,,,,,,,,,,,,,,,,,,,,,,,,,,,,,,,,,,,,,,,,,,,,,,,,,,,,,,,,,,,,,,,,,,,,,,,,,,,,,,,,,,,,,,,,,,,,,,,,,,,,,,,,,,,
,,,,,,60cb4f111e27b7ab3656e188,62c539f1710891b46175a7cf,2022-07-06_09h33.06.436,Colour_Asymmetry_Pilot,2022.1.3,Win32,29.89894158,62c50e9c1127f2cd403a315f,0,23,23,161,1,onethree,,,,,,,,,,,,,,,,,,,,,,,,,,,,,,,,,,,,,,,,,,,,,,,,,,,,,,,,,,,,,,,,,,,,,,,,,,,,,,,,,,,,,,,,,,,,,,,,,,,,,,,,,,,,,,,,,,,,,,,,,,,,,,,,,,,,,,,,,,,,,,,,,,,,,,,,,,,,,
,,,,,,60cb4f111e27b7ab3656e188,62c539f1710891b46175a7cf,2022-07-06_09h33.06.436,Colour_Asymmetry_Pilot,2022.1.3,Win32,29.89894158,62c50e9c1127f2cd403a315f,0,24,24,57,1,onethree,,,,,,,,,,,,,,,,,,,,,,,,,,,,,,,,,,,,,,,,,,,,,,,,,,,,,,,,,,,,,,,,,,,,,,,,,,,,,,,,,,,,,,,,,,,,,,,,,,,,,,,,,,,,,,,,,,,,,,,,,,,,,,,,,,,,,,,,,,,,,,,,,,,,,,,,,,,,,
,,,,,,60cb4f111e27b7ab3656e188,62c539f1710891b46175a7cf,2022-07-06_09h33.06.436,Colour_Asymmetry_Pilot,2022.1.3,Win32,29.89894158,62c50e9c1127f2cd403a315f,0,25,25,144,1,onetwo,,,,,,,,,,,,,,,,,,,,,,,,,,,,,,,,,,,,,,,,,,,,,,,,,,,,,,,,,,,,,,,,,,,,,,,,,,,,,,,,,,,,,,,,,,,,,,,,,,,,,,,,,,,,,,,,,,,,,,,,,,,,,,,,,,,,,,,,,,,,,,,,,,,,,,,,,,,,,
,,,,,,60cb4f111e27b7ab3656e188,62c539f1710891b46175a7cf,2022-07-06_09h33.06.436,Colour_Asymmetry_Pilot,2022.1.3,Win32,29.89894158,62c50e9c1127f2cd403a315f,0,26,26,73,1,onethree,,,,,,,,,,,,,,,,,,,,,,,,,,,,,,,,,,,,,,,,,,,,,,,,,,,,,,,,,,,,,,,,,,,,,,,,,,,,,,,,,,,,,,,,,,,,,,,,,,,,,,,,,,,,,,,,,,,,,,,,,,,,,,,,,,,,,,,,,,,,,,,,,,,,,,,,,,,,,
,,,,,,60cb4f111e27b7ab3656e188,62c539f1710891b46175a7cf,2022-07-06_09h33.06.436,Colour_Asymmetry_Pilot,2022.1.3,Win32,29.89894158,62c50e9c1127f2cd403a315f,0,27,27,13,1,threefour,,,,,,,,,,,,,,,,,,,,,,,,,,,,,,,,,,,,,,,,,,,,,,,,,,,,,,,,,,,,,,,,,,,,,,,,,,,,,,,,,,,,,,,,,,,,,,,,,,,,,,,,,,,,,,,,,,,,,,,,,,,,,,,,,,,,,,,,,,,,,,,,,,,,,,,,,,,,,
,,,,,,60cb4f111e27b7ab3656e188,62c539f1710891b46175a7cf,2022-07-06_09h33.06.436,Colour_Asymmetry_Pilot,2022.1.3,Win32,29.89894158,62c50e9c1127f2cd403a315f,0,28,28,22,1,fourtwo,,,,,,,,,,,,,,,,,,,,,,,,,,,,,,,,,,,,,,,,,,,,,,,,,,,,,,,,,,,,,,,,,,,,,,,,,,,,,,,,,,,,,,,,,,,,,,,,,,,,,,,,,,,,,,,,,,,,,,,,,,,,,,,,,,,,,,,,,,,,,,,,,,,,,,,,,,,,,
,,,,,,60cb4f111e27b7ab3656e188,62c539f1710891b46175a7cf,2022-07-06_09h33.06.436,Colour_Asymmetry_Pilot,2022.1.3,Win32,29.89894158,62c50e9c1127f2cd403a315f,0,29,29,95,1,fourthree,,,,,,,,,,,,,,,,,,,,,,,,,,,,,,,,,,,,,,,,,,,,,,,,,,,,,,,,,,,,,,,,,,,,,,,,,,,,,,,,,,,,,,,,,,,,,,,,,,,,,,,,,,,,,,,,,,,,,,,,,,,,,,,,,,,,,,,,,,,,,,,,,,,,,,,,,,,,,
,,,,,,60cb4f111e27b7ab3656e188,62c539f1710891b46175a7cf,2022-07-06_09h33.06.436,Colour_Asymmetry_Pilot,2022.1.3,Win32,29.89894158,62c50e9c1127f2cd403a315f,0,30,30,156,1,threeone,,,,,,,,,,,,,,,,,,,,,,,,,,,,,,,,,,,,,,,,,,,,,,,,,,,,,,,,,,,,,,,,,,,,,,,,,,,,,,,,,,,,,,,,,,,,,,,,,,,,,,,,,,,,,,,,,,,,,,,,,,,,,,,,,,,,,,,,,,,,,,,,,,,,,,,,,,,,,
,,,,,,60cb4f111e27b7ab3656e188,62c539f1710891b46175a7cf,2022-07-06_09h33.06.436,Colour_Asymmetry_Pilot,2022.1.3,Win32,29.89894158,62c50e9c1127f2cd403a315f,0,31,31,49,1,onethree,,,,,,,,,,,,,,,,,,,,,,,,,,,,,,,,,,,,,,,,,,,,,,,,,,,,,,,,,,,,,,,,,,,,,,,,,,,,,,,,,,,,,,,,,,,,,,,,,,,,,,,,,,,,,,,,,,,,,,,,,,,,,,,,,,,,,,,,,,,,,,,,,,,,,,,,,,,,,
,,,,,,60cb4f111e27b7ab3656e188,62c539f1710891b46175a7cf,2022-07-06_09h33.06.436,Colour_Asymmetry_Pilot,2022.1.3,Win32,29.89894158,62c50e9c1127f2cd403a315f,0,32,32,10,1,twoone,,,,,,,,,,,,,,,,,,,,,,,,,,,,,,,,,,,,,,,,,,,,,,,,,,,,,,,,,,,,,,,,,,,,,,,,,,,,,,,,,,,,,,,,,,,,,,,,,,,,,,,,,,,,,,,,,,,,,,,,,,,,,,,,,,,,,,,,,,,,,,,,,,,,,,,,,,,,,
,,,,,,60cb4f111e27b7ab3656e188,62c539f1710891b46175a7cf,2022-07-06_09h33.06.436,Colour_Asymmetry_Pilot,2022.1.3,Win32,29.89894158,62c50e9c1127f2cd403a315f,0,33,33,129,1,onethree,,,,,,,,,,,,,,,,,,,,,,,,,,,,,,,,,,,,,,,,,,,,,,,,,,,,,,,,,,,,,,,,,,,,,,,,,,,,,,,,,,,,,,,,,,,,,,,,,,,,,,,,,,,,,,,,,,,,,,,,,,,,,,,,,,,,,,,,,,,,,,,,,,,,,,,,,,,,,
,,,,,,60cb4f111e27b7ab3656e188,62c539f1710891b46175a7cf,2022-07-06_09h33.06.436,Colour_Asymmetry_Pilot,2022.1.3,Win32,29.89894158,62c50e9c1127f2cd403a315f,0,34,34,146,1,twoone,,,,,,,,,,,,,,,,,,,,,,,,,,,,,,,,,,,,,,,,,,,,,,,,,,,,,,,,,,,,,,,,,,,,,,,,,,,,,,,,,,,,,,,,,,,,,,,,,,,,,,,,,,,,,,,,,,,,,,,,,,,,,,,,,,,,,,,,,,,,,,,,,,,,,,,,,,,,,
,,,,,,60cb4f111e27b7ab3656e188,62c539f1710891b46175a7cf,2022-07-06_09h33.06.436,Colour_Asymmetry_Pilot,2022.1.3,Win32,29.89894158,62c50e9c1127f2cd403a315f,0,35,35,20,1,threeone,,,,,,,,,,,,,,,,,,,,,,,,,,,,,,,,,,,,,,,,,,,,,,,,,,,,,,,,,,,,,,,,,,,,,,,,,,,,,,,,,,,,,,,,,,,,,,,,,,,,,,,,,,,,,,,,,,,,,,,,,,,,,,,,,,,,,,,,,,,,,,,,,,,,,,,,,,,,,
,,,,,,60cb4f111e27b7ab3656e188,62c539f1710891b46175a7cf,2022-07-06_09h33.06.436,Colour_Asymmetry_Pilot,2022.1.3,Win32,29.89894158,62c50e9c1127f2cd403a315f,0,36,36,118,1,fourtwo,,,,,,,,,,,,,,,,,,,,,,,,,,,,,,,,,,,,,,,,,,,,,,,,,,,,,,,,,,,,,,,,,,,,,,,,,,,,,,,,,,,,,,,,,,,,,,,,,,,,,,,,,,,,,,,,,,,,,,,,,,,,,,,,,,,,,,,,,,,,,,,,,,,,,,,,,,,,,
,,,,,,60cb4f111e27b7ab3656e188,62c539f1710891b46175a7cf,2022-07-06_09h33.06.436,Colour_Asymmetry_Pilot,2022.1.3,Win32,29.89894158,62c50e9c1127f2cd403a315f,0,37,37,110,1,fourtwo,,,,,,,,,,,,,,,,,,,,,,,,,,,,,,,,,,,,,,,,,,,,,,,,,,,,,,,,,,,,,,,,,,,,,,,,,,,,,,,,,,,,,,,,,,,,,,,,,,,,,,,,,,,,,,,,,,,,,,,,,,,,,,,,,,,,,,,,,,,,,,,,,,,,,,,,,,,,,
,,,,,,60cb4f111e27b7ab3656e188,62c539f1710891b46175a7cf,2022-07-06_09h33.06.436,Colour_Asymmetry_Pilot,2022.1.3,Win32,29.89894158,62c50e9c1127f2cd403a315f,0,38,38,34,1,twoone,,,,,,,,,,,,,,,,,,,,,,,,,,,,,,,,,,,,,,,,,,,,,,,,,,,,,,,,,,,,,,,,,,,,,,,,,,,,,,,,,,,,,,,,,,,,,,,,,,,,,,,,,,,,,,,,,,,,,,,,,,,,,,,,,,,,,,,,,,,,,,,,,,,,,,,,,,,,,
,,,,,,60cb4f111e27b7ab3656e188,62c539f1710891b46175a7cf,2022-07-06_09h33.06.436,Colour_Asymmetry_Pilot,2022.1.3,Win32,29.89894158,62c50e9c1127f2cd403a315f,0,39,39,60,1,threeone,,,,,,,,,,,,,,,,,,,,,,,,,,,,,,,,,,,,,,,,,,,,,,,,,,,,,,,,,,,,,,,,,,,,,,,,,,,,,,,,,,,,,,,,,,,,,,,,,,,,,,,,,,,,,,,,,,,,,,,,,,,,,,,,,,,,,,,,,,,,,,,,,,,,,,,,,,,,,
,,,,,,60cb4f111e27b7ab3656e188,62c539f1710891b46175a7cf,2022-07-06_09h33.06.436,Colour_Asymmetry_Pilot,2022.1.3,Win32,29.89894158,62c50e9c1127f2cd403a315f,0,40,40,36,1,threeone,,,,,,,,,,,,,,,,,,,,,,,,,,,,,,,,,,,,,,,,,,,,,,,,,,,,,,,,,,,,,,,,,,,,,,,,,,,,,,,,,,,,,,,,,,,,,,,,,,,,,,,,,,,,,,,,,,,,,,,,,,,,,,,,,,,,,,,,,,,,,,,,,,,,,,,,,,,,,
,,,,,,60cb4f111e27b7ab3656e188,62c539f1710891b46175a7cf,2022-07-06_09h33.06.436,Colour_Asymmetry_Pilot,2022.1.3,Win32,29.89894158,62c50e9c1127f2cd403a315f,0,41,41,148,1,threeone,,,,,,,,,,,,,,,,,,,,,,,,,,,,,,,,,,,,,,,,,,,,,,,,,,,,,,,,,,,,,,,,,,,,,,,,,,,,,,,,,,,,,,,,,,,,,,,,,,,,,,,,,,,,,,,,,,,,,,,,,,,,,,,,,,,,,,,,,,,,,,,,,,,,,,,,,,,,,
,,,,,,60cb4f111e27b7ab3656e188,62c539f1710891b46175a7cf,2022-07-06_09h33.06.436,Colour_Asymmetry_Pilot,2022.1.3,Win32,29.89894158,62c50e9c1127f2cd403a315f,0,42,42,94,1,fourtwo,,,,,,,,,,,,,,,,,,,,,,,,,,,,,,,,,,,,,,,,,,,,,,,,,,,,,,,,,,,,,,,,,,,,,,,,,,,,,,,,,,,,,,,,,,,,,,,,,,,,,,,,,,,,,,,,,,,,,,,,,,,,,,,,,,,,,,,,,,,,,,,,,,,,,,,,,,,,,
,,,,,,60cb4f111e27b7ab3656e188,62c539f1710891b46175a7cf,2022-07-06_09h33.06.436,Colour_Asymmetry_Pilot,2022.1.3,Win32,29.89894158,62c50e9c1127f2cd403a315f,0,43,43,63,1,fourthree,,,,,,,,,,,,,,,,,,,,,,,,,,,,,,,,,,,,,,,,,,,,,,,,,,,,,,,,,,,,,,,,,,,,,,,,,,,,,,,,,,,,,,,,,,,,,,,,,,,,,,,,,,,,,,,,,,,,,,,,,,,,,,,,,,,,,,,,,,,,,,,,,,,,,,,,,,,,,
,,,,,,60cb4f111e27b7ab3656e188,62c539f1710891b46175a7cf,2022-07-06_09h33.06.436,Colour_Asymmetry_Pilot,2022.1.3,Win32,29.89894158,62c50e9c1127f2cd403a315f,0,44,44,2,1,twoone,,,,,,,,,,,,,,,,,,,,,,,,,,,,,,,,,,,,,,,,,,,,,,,,,,,,,,,,,,,,,,,,,,,,,,,,,,,,,,,,,,,,,,,,,,,,,,,,,,,,,,,,,,,,,,,,,,,,,,,,,,,,,,,,,,,,,,,,,,,,,,,,,,,,,,,,,,,,,
,,,,,,60cb4f111e27b7ab3656e188,62c539f1710891b46175a7cf,2022-07-06_09h33.06.436,Colour_Asymmetry_Pilot,2022.1.3,Win32,29.89894158,62c50e9c1127f2cd403a315f,0,45,45,151,1,fourthree,,,,,,,,,,,,,,,,,,,,,,,,,,,,,,,,,,,,,,,,,,,,,,,,,,,,,,,,,,,,,,,,,,,,,,,,,,,,,,,,,,,,,,,,,,,,,,,,,,,,,,,,,,,,,,,,,,,,,,,,,,,,,,,,,,,,,,,,,,,,,,,,,,,,,,,,,,,,,
,,,,,,60cb4f111e27b7ab3656e188,62c539f1710891b46175a7cf,2022-07-06_09h33.06.436,Colour_Asymmetry_Pilot,2022.1.3,Win32,29.89894158,62c50e9c1127f2cd403a315f,0,46,46,80,1,onetwo,,,,,,,,,,,,,,,,,,,,,,,,,,,,,,,,,,,,,,,,,,,,,,,,,,,,,,,,,,,,,,,,,,,,,,,,,,,,,,,,,,,,,,,,,,,,,,,,,,,,,,,,,,,,,,,,,,,,,,,,,,,,,,,,,,,,,,,,,,,,,,,,,,,,,,,,,,,,,
,,,,,,60cb4f111e27b7ab3656e188,62c539f1710891b46175a7cf,2022-07-06_09h33.06.436,Colour_Asymmetry_Pilot,2022.1.3,Win32,29.89894158,62c50e9c1127f2cd403a315f,0,47,47,92,1,threeone,,,,,,,,,,,,,,,,,,,,,,,,,,,,,,,,,,,,,,,,,,,,,,,,,,,,,,,,,,,,,,,,,,,,,,,,,,,,,,,,,,,,,,,,,,,,,,,,,,,,,,,,,,,,,,,,,,,,,,,,,,,,,,,,,,,,,,,,,,,,,,,,,,,,,,,,,,,,,
,,,,,,60cb4f111e27b7ab3656e188,62c539f1710891b46175a7cf,2022-07-06_09h33.06.436,Colour_Asymmetry_Pilot,2022.1.3,Win32,29.89894158,62c50e9c1127f2cd403a315f,0,48,48,136,1,onetwo,,,,,,,,,,,,,,,,,,,,,,,,,,,,,,,,,,,,,,,,,,,,,,,,,,,,,,,,,,,,,,,,,,,,,,,,,,,,,,,,,,,,,,,,,,,,,,,,,,,,,,,,,,,,,,,,,,,,,,,,,,,,,,,,,,,,,,,,,,,,,,,,,,,,,,,,,,,,,
,,,,,,60cb4f111e27b7ab3656e188,62c539f1710891b46175a7cf,2022-07-06_09h33.06.436,Colour_Asymmetry_Pilot,2022.1.3,Win32,29.89894158,62c50e9c1127f2cd403a315f,0,49,49,28,1,threeone,,,,,,,,,,,,,,,,,,,,,,,,,,,,,,,,,,,,,,,,,,,,,,,,,,,,,,,,,,,,,,,,,,,,,,,,,,,,,,,,,,,,,,,,,,,,,,,,,,,,,,,,,,,,,,,,,,,,,,,,,,,,,,,,,,,,,,,,,,,,,,,,,,,,,,,,,,,,,
,,,,,,60cb4f111e27b7ab3656e188,62c539f1710891b46175a7cf,2022-07-06_09h33.06.436,Colour_Asymmetry_Pilot,2022.1.3,Win32,29.89894158,62c50e9c1127f2cd403a315f,0,50,50,103,1,fourthree,,,,,,,,,,,,,,,,,,,,,,,,,,,,,,,,,,,,,,,,,,,,,,,,,,,,,,,,,,,,,,,,,,,,,,,,,,,,,,,,,,,,,,,,,,,,,,,,,,,,,,,,,,,,,,,,,,,,,,,,,,,,,,,,,,,,,,,,,,,,,,,,,,,,,,,,,,,,,
,,,,,,60cb4f111e27b7ab3656e188,62c539f1710891b46175a7cf,2022-07-06_09h33.06.436,Colour_Asymmetry_Pilot,2022.1.3,Win32,29.89894158,62c50e9c1127f2cd403a315f,0,51,51,11,1,twofour,,,,,,,,,,,,,,,,,,,,,,,,,,,,,,,,,,,,,,,,,,,,,,,,,,,,,,,,,,,,,,,,,,,,,,,,,,,,,,,,,,,,,,,,,,,,,,,,,,,,,,,,,,,,,,,,,,,,,,,,,,,,,,,,,,,,,,,,,,,,,,,,,,,,,,,,,,,,,
,,,,,,60cb4f111e27b7ab3656e188,62c539f1710891b46175a7cf,2022-07-06_09h33.06.436,Colour_Asymmetry_Pilot,2022.1.3,Win32,29.89894158,62c50e9c1127f2cd403a315f,0,52,52,64,1,onetwo,,,,,,,,,,,,,,,,,,,,,,,,,,,,,,,,,,,,,,,,,,,,,,,,,,,,,,,,,,,,,,,,,,,,,,,,,,,,,,,,,,,,,,,,,,,,,,,,,,,,,,,,,,,,,,,,,,,,,,,,,,,,,,,,,,,,,,,,,,,,,,,,,,,,,,,,,,,,,
,,,,,,60cb4f111e27b7ab3656e188,62c539f1710891b46175a7cf,2022-07-06_09h33.06.436,Colour_Asymmetry_Pilot,2022.1.3,Win32,29.89894158,62c50e9c1127f2cd403a315f,0,53,53,25,1,onethree,,,,,,,,,,,,,,,,,,,,,,,,,,,,,,,,,,,,,,,,,,,,,,,,,,,,,,,,,,,,,,,,,,,,,,,,,,,,,,,,,,,,,,,,,,,,,,,,,,,,,,,,,,,,,,,,,,,,,,,,,,,,,,,,,,,,,,,,,,,,,,,,,,,,,,,,,,,,,
,,,,,,60cb4f111e27b7ab3656e188,62c539f1710891b46175a7cf,2022-07-06_09h33.06.436,Colour_Asymmetry_Pilot,2022.1.3,Win32,29.89894158,62c50e9c1127f2cd403a315f,0,54,54,33,1,onethree,,,,,,,,,,,,,,,,,,,,,,,,,,,,,,,,,,,,,,,,,,,,,,,,,,,,,,,,,,,,,,,,,,,,,,,,,,,,,,,,,,,,,,,,,,,,,,,,,,,,,,,,,,,,,,,,,,,,,,,,,,,,,,,,,,,,,,,,,,,,,,,,,,,,,,,,,,,,,
,,,,,,60cb4f111e27b7ab3656e188,62c539f1710891b46175a7cf,2022-07-06_09h33.06.436,Colour_Asymmetry_Pilot,2022.1.3,Win32,29.89894158,62c50e9c1127f2cd403a315f,0,55,55,43,1,twofour,,,,,,,,,,,,,,,,,,,,,,,,,,,,,,,,,,,,,,,,,,,,,,,,,,,,,,,,,,,,,,,,,,,,,,,,,,,,,,,,,,,,,,,,,,,,,,,,,,,,,,,,,,,,,,,,,,,,,,,,,,,,,,,,,,,,,,,,,,,,,,,,,,,,,,,,,,,,,
,,,,,,60cb4f111e27b7ab3656e188,62c539f1710891b46175a7cf,2022-07-06_09h33.06.436,Colour_Asymmetry_Pilot,2022.1.3,Win32,29.89894158,62c50e9c1127f2cd403a315f,0,56,56,137,1,onethree,,,,,,,,,,,,,,,,,,,,,,,,,,,,,,,,,,,,,,,,,,,,,,,,,,,,,,,,,,,,,,,,,,,,,,,,,,,,,,,,,,,,,,,,,,,,,,,,,,,,,,,,,,,,,,,,,,,,,,,,,,,,,,,,,,,,,,,,,,,,,,,,,,,,,,,,,,,,,
,,,,,,60cb4f111e27b7ab3656e188,62c539f1710891b46175a7cf,2022-07-06_09h33.06.436,Colour_Asymmetry_Pilot,2022.1.3,Win32,29.89894158,62c50e9c1127f2cd403a315f,0,57,57,143,1,fourthree,,,,,,,,,,,,,,,,,,,,,,,,,,,,,,,,,,,,,,,,,,,,,,,,,,,,,,,,,,,,,,,,,,,,,,,,,,,,,,,,,,,,,,,,,,,,,,,,,,,,,,,,,,,,,,,,,,,,,,,,,,,,,,,,,,,,,,,,,,,,,,,,,,,,,,,,,,,,,
,,,,,,60cb4f111e27b7ab3656e188,62c539f1710891b46175a7cf,2022-07-06_09h33.06.436,Colour_Asymmetry_Pilot,2022.1.3,Win32,29.89894158,62c50e9c1127f2cd403a315f,0,58,58,88,1,onetwo,,,,,,,,,,,,,,,,,,,,,,,,,,,,,,,,,,,,,,,,,,,,,,,,,,,,,,,,,,,,,,,,,,,,,,,,,,,,,,,,,,,,,,,,,,,,,,,,,,,,,,,,,,,,,,,,,,,,,,,,,,,,,,,,,,,,,,,,,,,,,,,,,,,,,,,,,,,,,
,,,,,,60cb4f111e27b7ab3656e188,62c539f1710891b46175a7cf,2022-07-06_09h33.06.436,Colour_Asymmetry_Pilot,2022.1.3,Win32,29.89894158,62c50e9c1127f2cd403a315f,0,59,59,89,1,onethree,,,,,,,,,,,,,,,,,,,,,,,,,,,,,,,,,,,,,,,,,,,,,,,,,,,,,,,,,,,,,,,,,,,,,,,,,,,,,,,,,,,,,,,,,,,,,,,,,,,,,,,,,,,,,,,,,,,,,,,,,,,,,,,,,,,,,,,,,,,,,,,,,,,,,,,,,,,,,
,,,,,,60cb4f111e27b7ab3656e188,62c539f1710891b46175a7cf,2022-07-06_09h33.06.436,Colour_Asymmetry_Pilot,2022.1.3,Win32,29.89894158,62c50e9c1127f2cd403a315f,0,60,60,65,1,onethree,,,,,,,,,,,,,,,,,,,,,,,,,,,,,,,,,,,,,,,,,,,,,,,,,,,,,,,,,,,,,,,,,,,,,,,,,,,,,,,,,,,,,,,,,,,,,,,,,,,,,,,,,,,,,,,,,,,,,,,,,,,,,,,,,,,,,,,,,,,,,,,,,,,,,,,,,,,,,
,,,,,,60cb4f111e27b7ab3656e188,62c539f1710891b46175a7cf,2022-07-06_09h33.06.436,Colour_Asymmetry_Pilot,2022.1.3,Win32,29.89894158,62c50e9c1127f2cd403a315f,0,61,61,152,1,onetwo,,,,,,,,,,,,,,,,,,,,,,,,,,,,,,,,,,,,,,,,,,,,,,,,,,,,,,,,,,,,,,,,,,,,,,,,,,,,,,,,,,,,,,,,,,,,,,,,,,,,,,,,,,,,,,,,,,,,,,,,,,,,,,,,,,,,,,,,,,,,,,,,,,,,,,,,,,,,,
,,,,,,60cb4f111e27b7ab3656e188,62c539f1710891b46175a7cf,2022-07-06_09h33.06.436,Colour_Asymmetry_Pilot,2022.1.3,Win32,29.89894158,62c50e9c1127f2cd403a315f,0,62,62,14,1,fourtwo,,,,,,,,,,,,,,,,,,,,,,,,,,,,,,,,,,,,,,,,,,,,,,,,,,,,,,,,,,,,,,,,,,,,,,,,,,,,,,,,,,,,,,,,,,,,,,,,,,,,,,,,,,,,,,,,,,,,,,,,,,,,,,,,,,,,,,,,,,,,,,,,,,,,,,,,,,,,,
,,,,,,60cb4f111e27b7ab3656e188,62c539f1710891b46175a7cf,2022-07-06_09h33.06.436,Colour_Asymmetry_Pilot,2022.1.3,Win32,29.89894158,62c50e9c1127f2cd403a315f,0,63,63,19,1,twofour,,,,,,,,,,,,,,,,,,,,,,,,,,,,,,,,,,,,,,,,,,,,,,,,,,,,,,,,,,,,,,,,,,,,,,,,,,,,,,,,,,,,,,,,,,,,,,,,,,,,,,,,,,,,,,,,,,,,,,,,,,,,,,,,,,,,,,,,,,,,,,,,,,,,,,,,,,,,,
,,,,,,60cb4f111e27b7ab3656e188,62c539f1710891b46175a7cf,2022-07-06_09h33.06.436,Colour_Asymmetry_Pilot,2022.1.3,Win32,29.89894158,62c50e9c1127f2cd403a315f,0,64,64,87,1,fourthree,,,,,,,,,,,,,,,,,,,,,,,,,,,,,,,,,,,,,,,,,,,,,,,,,,,,,,,,,,,,,,,,,,,,,,,,,,,,,,,,,,,,,,,,,,,,,,,,,,,,,,,,,,,,,,,,,,,,,,,,,,,,,,,,,,,,,,,,,,,,,,,,,,,,,,,,,,,,,
,,,,,,60cb4f111e27b7ab3656e188,62c539f1710891b46175a7cf,2022-07-06_09h33.06.436,Colour_Asymmetry_Pilot,2022.1.3,Win32,29.89894158,62c50e9c1127f2cd403a315f,0,65,65,100,1,threeone,,,,,,,,,,,,,,,,,,,,,,,,,,,,,,,,,,,,,,,,,,,,,,,,,,,,,,,,,,,,,,,,,,,,,,,,,,,,,,,,,,,,,,,,,,,,,,,,,,,,,,,,,,,,,,,,,,,,,,,,,,,,,,,,,,,,,,,,,,,,,,,,,,,,,,,,,,,,,
,,,,,,60cb4f111e27b7ab3656e188,62c539f1710891b46175a7cf,2022-07-06_09h33.06.436,Colour_Asymmetry_Pilot,2022.1.3,Win32,29.89894158,62c50e9c1127f2cd403a315f,0,66,66,50,1,twoone,,,,,,,,,,,,,,,,,,,,,,,,,,,,,,,,,,,,,,,,,,,,,,,,,,,,,,,,,,,,,,,,,,,,,,,,,,,,,,,,,,,,,,,,,,,,,,,,,,,,,,,,,,,,,,,,,,,,,,,,,,,,,,,,,,,,,,,,,,,,,,,,,,,,,,,,,,,,,
,,,,,,60cb4f111e27b7ab3656e188,62c539f1710891b46175a7cf,2022-07-06_09h33.06.436,Colour_Asymmetry_Pilot,2022.1.3,Win32,29.89894158,62c50e9c1127f2cd403a315f,0,67,67,133,1,threefour,,,,,,,,,,,,,,,,,,,,,,,,,,,,,,,,,,,,,,,,,,,,,,,,,,,,,,,,,,,,,,,,,,,,,,,,,,,,,,,,,,,,,,,,,,,,,,,,,,,,,,,,,,,,,,,,,,,,,,,,,,,,,,,,,,,,,,,,,,,,,,,,,,,,,,,,,,,,,
,,,,,,60cb4f111e27b7ab3656e188,62c539f1710891b46175a7cf,2022-07-06_09h33.06.436,Colour_Asymmetry_Pilot,2022.1.3,Win32,29.89894158,62c50e9c1127f2cd403a315f,0,68,68,9,1,onethree,,,,,,,,,,,,,,,,,,,,,,,,,,,,,,,,,,,,,,,,,,,,,,,,,,,,,,,,,,,,,,,,,,,,,,,,,,,,,,,,,,,,,,,,,,,,,,,,,,,,,,,,,,,,,,,,,,,,,,,,,,,,,,,,,,,,,,,,,,,,,,,,,,,,,,,,,,,,,
,,,,,,60cb4f111e27b7ab3656e188,62c539f1710891b46175a7cf,2022-07-06_09h33.06.436,Colour_Asymmetry_Pilot,2022.1.3,Win32,29.89894158,62c50e9c1127f2cd403a315f,0,69,69,46,1,fourtwo,,,,,,,,,,,,,,,,,,,,,,,,,,,,,,,,,,,,,,,,,,,,,,,,,,,,,,,,,,,,,,,,,,,,,,,,,,,,,,,,,,,,,,,,,,,,,,,,,,,,,,,,,,,,,,,,,,,,,,,,,,,,,,,,,,,,,,,,,,,,,,,,,,,,,,,,,,,,,
,,,,,,60cb4f111e27b7ab3656e188,62c539f1710891b46175a7cf,2022-07-06_09h33.06.436,Colour_Asymmetry_Pilot,2022.1.3,Win32,29.89894158,62c50e9c1127f2cd403a315f,0,70,70,35,1,twofour,,,,,,,,,,,,,,,,,,,,,,,,,,,,,,,,,,,,,,,,,,,,,,,,,,,,,,,,,,,,,,,,,,,,,,,,,,,,,,,,,,,,,,,,,,,,,,,,,,,,,,,,,,,,,,,,,,,,,,,,,,,,,,,,,,,,,,,,,,,,,,,,,,,,,,,,,,,,,
,,,,,,60cb4f111e27b7ab3656e188,62c539f1710891b46175a7cf,2022-07-06_09h33.06.436,Colour_Asymmetry_Pilot,2022.1.3,Win32,29.89894158,62c50e9c1127f2cd403a315f,0,71,71,113,1,onethree,,,,,,,,,,,,,,,,,,,,,,,,,,,,,,,,,,,,,,,,,,,,,,,,,,,,,,,,,,,,,,,,,,,,,,,,,,,,,,,,,,,,,,,,,,,,,,,,,,,,,,,,,,,,,,,,,,,,,,,,,,,,,,,,,,,,,,,,,,,,,,,,,,,,,,,,,,,,,
,,,,,,60cb4f111e27b7ab3656e188,62c539f1710891b46175a7cf,2022-07-06_09h33.06.436,Colour_Asymmetry_Pilot,2022.1.3,Win32,29.89894158,62c50e9c1127f2cd403a315f,0,72,72,142,1,fourtwo,,,,,,,,,,,,,,,,,,,,,,,,,,,,,,,,,,,,,,,,,,,,,,,,,,,,,,,,,,,,,,,,,,,,,,,,,,,,,,,,,,,,,,,,,,,,,,,,,,,,,,,,,,,,,,,,,,,,,,,,,,,,,,,,,,,,,,,,,,,,,,,,,,,,,,,,,,,,,
,,,,,,60cb4f111e27b7ab3656e188,62c539f1710891b46175a7cf,2022-07-06_09h33.06.436,Colour_Asymmetry_Pilot,2022.1.3,Win32,29.89894158,62c50e9c1127f2cd403a315f,0,73,73,17,1,onethree,,,,,,,,,,,,,,,,,,,,,,,,,,,,,,,,,,,,,,,,,,,,,,,,,,,,,,,,,,,,,,,,,,,,,,,,,,,,,,,,,,,,,,,,,,,,,,,,,,,,,,,,,,,,,,,,,,,,,,,,,,,,,,,,,,,,,,,,,,,,,,,,,,,,,,,,,,,,,
,,,,,,60cb4f111e27b7ab3656e188,62c539f1710891b46175a7cf,2022-07-06_09h33.06.436,Colour_Asymmetry_Pilot,2022.1.3,Win32,29.89894158,62c50e9c1127f2cd403a315f,0,74,74,122,1,twoone,,,,,,,,,,,,,,,,,,,,,,,,,,,,,,,,,,,,,,,,,,,,,,,,,,,,,,,,,,,,,,,,,,,,,,,,,,,,,,,,,,,,,,,,,,,,,,,,,,,,,,,,,,,,,,,,,,,,,,,,,,,,,,,,,,,,,,,,,,,,,,,,,,,,,,,,,,,,,
,,,,,,60cb4f111e27b7ab3656e188,62c539f1710891b46175a7cf,2022-07-06_09h33.06.436,Colour_Asymmetry_Pilot,2022.1.3,Win32,29.89894158,62c50e9c1127f2cd403a315f,0,75,75,54,1,fourtwo,,,,,,,,,,,,,,,,,,,,,,,,,,,,,,,,,,,,,,,,,,,,,,,,,,,,,,,,,,,,,,,,,,,,,,,,,,,,,,,,,,,,,,,,,,,,,,,,,,,,,,,,,,,,,,,,,,,,,,,,,,,,,,,,,,,,,,,,,,,,,,,,,,,,,,,,,,,,,
,,,,,,60cb4f111e27b7ab3656e188,62c539f1710891b46175a7cf,2022-07-06_09h33.06.436,Colour_Asymmetry_Pilot,2022.1.3,Win32,29.89894158,62c50e9c1127f2cd403a315f,0,76,76,97,1,onethree,,,,,,,,,,,,,,,,,,,,,,,,,,,,,,,,,,,,,,,,,,,,,,,,,,,,,,,,,,,,,,,,,,,,,,,,,,,,,,,,,,,,,,,,,,,,,,,,,,,,,,,,,,,,,,,,,,,,,,,,,,,,,,,,,,,,,,,,,,,,,,,,,,,,,,,,,,,,,
,,,,,,60cb4f111e27b7ab3656e188,62c539f1710891b46175a7cf,2022-07-06_09h33.06.436,Colour_Asymmetry_Pilot,2022.1.3,Win32,29.89894158,62c50e9c1127f2cd403a315f,0,77,77,48,1,onetwo,,,,,,,,,,,,,,,,,,,,,,,,,,,,,,,,,,,,,,,,,,,,,,,,,,,,,,,,,,,,,,,,,,,,,,,,,,,,,,,,,,,,,,,,,,,,,,,,,,,,,,,,,,,,,,,,,,,,,,,,,,,,,,,,,,,,,,,,,,,,,,,,,,,,,,,,,,,,,
,,,,,,60cb4f111e27b7ab3656e188,62c539f1710891b46175a7cf,2022-07-06_09h33.06.436,Colour_Asymmetry_Pilot,2022.1.3,Win32,29.89894158,62c50e9c1127f2cd403a315f,0,78,78,155,1,twofour,,,,,,,,,,,,,,,,,,,,,,,,,,,,,,,,,,,,,,,,,,,,,,,,,,,,,,,,,,,,,,,,,,,,,,,,,,,,,,,,,,,,,,,,,,,,,,,,,,,,,,,,,,,,,,,,,,,,,,,,,,,,,,,,,,,,,,,,,,,,,,,,,,,,,,,,,,,,,
,,,,,,60cb4f111e27b7ab3656e188,62c539f1710891b46175a7cf,2022-07-06_09h33.06.436,Colour_Asymmetry_Pilot,2022.1.3,Win32,29.89894158,62c50e9c1127f2cd403a315f,0,79,79,104,1,onetwo,,,,,,,,,,,,,,,,,,,,,,,,,,,,,,,,,,,,,,,,,,,,,,,,,,,,,,,,,,,,,,,,,,,,,,,,,,,,,,,,,,,,,,,,,,,,,,,,,,,,,,,,,,,,,,,,,,,,,,,,,,,,,,,,,,,,,,,,,,,,,,,,,,,,,,,,,,,,,
,,,,,,60cb4f111e27b7ab3656e188,62c539f1710891b46175a7cf,2022-07-06_09h33.06.436,Colour_Asymmetry_Pilot,2022.1.3,Win32,29.89894158,62c50e9c1127f2cd403a315f,0,80,80,75,1,twofour,,,,,,,,,,,,,,,,,,,,,,,,,,,,,,,,,,,,,,,,,,,,,,,,,,,,,,,,,,,,,,,,,,,,,,,,,,,,,,,,,,,,,,,,,,,,,,,,,,,,,,,,,,,,,,,,,,,,,,,,,,,,,,,,,,,,,,,,,,,,,,,,,,,,,,,,,,,,,
,,,,,,60cb4f111e27b7ab3656e188,62c539f1710891b46175a7cf,2022-07-06_09h33.06.436,Colour_Asymmetry_Pilot,2022.1.3,Win32,29.89894158,62c50e9c1127f2cd403a315f,0,81,81,127,1,fourthree,,,,,,,,,,,,,,,,,,,,,,,,,,,,,,,,,,,,,,,,,,,,,,,,,,,,,,,,,,,,,,,,,,,,,,,,,,,,,,,,,,,,,,,,,,,,,,,,,,,,,,,,,,,,,,,,,,,,,,,,,,,,,,,,,,,,,,,,,,,,,,,,,,,,,,,,,,,,,
,,,,,,60cb4f111e27b7ab3656e188,62c539f1710891b46175a7cf,2022-07-06_09h33.06.436,Colour_Asymmetry_Pilot,2022.1.3,Win32,29.89894158,62c50e9c1127f2cd403a315f,0,82,82,0,1,onetwo,,,,,,,,,,,,,,,,,,,,,,,,,,,,,,,,,,,,,,,,,,,,,,,,,,,,,,,,,,,,,,,,,,,,,,,,,,,,,,,,,,,,,,,,,,,,,,,,,,,,,,,,,,,,,,,,,,,,,,,,,,,,,,,,,,,,,,,,,,,,,,,,,,,,,,,,,,,,,
,,,,,,60cb4f111e27b7ab3656e188,62c539f1710891b46175a7cf,2022-07-06_09h33.06.436,Colour_Asymmetry_Pilot,2022.1.3,Win32,29.89894158,62c50e9c1127f2cd403a315f,0,83,83,72,1,onetwo,,,,,,,,,,,,,,,,,,,,,,,,,,,,,,,,,,,,,,,,,,,,,,,,,,,,,,,,,,,,,,,,,,,,,,,,,,,,,,,,,,,,,,,,,,,,,,,,,,,,,,,,,,,,,,,,,,,,,,,,,,,,,,,,,,,,,,,,,,,,,,,,,,,,,,,,,,,,,
,,,,,,60cb4f111e27b7ab3656e188,62c539f1710891b46175a7cf,2022-07-06_09h33.06.436,Colour_Asymmetry_Pilot,2022.1.3,Win32,29.89894158,62c50e9c1127f2cd403a315f,0,84,84,107,1,twofour,,,,,,,,,,,,,,,,,,,,,,,,,,,,,,,,,,,,,,,,,,,,,,,,,,,,,,,,,,,,,,,,,,,,,,,,,,,,,,,,,,,,,,,,,,,,,,,,,,,,,,,,,,,,,,,,,,,,,,,,,,,,,,,,,,,,,,,,,,,,,,,,,,,,,,,,,,,,,
,,,,,,60cb4f111e27b7ab3656e188,62c539f1710891b46175a7cf,2022-07-06_09h33.06.436,Colour_Asymmetry_Pilot,2022.1.3,Win32,29.89894158,62c50e9c1127f2cd403a315f,0,85,85,5,1,threefour,,,,,,,,,,,,,,,,,,,,,,,,,,,,,,,,,,,,,,,,,,,,,,,,,,,,,,,,,,,,,,,,,,,,,,,,,,,,,,,,,,,,,,,,,,,,,,,,,,,,,,,,,,,,,,,,,,,,,,,,,,,,,,,,,,,,,,,,,,,,,,,,,,,,,,,,,,,,,
,,,,,,60cb4f111e27b7ab3656e188,62c539f1710891b46175a7cf,2022-07-06_09h33.06.436,Colour_Asymmetry_Pilot,2022.1.3,Win32,29.89894158,62c50e9c1127f2cd403a315f,0,86,86,135,1,fourthree,,,,,,,,,,,,,,,,,,,,,,,,,,,,,,,,,,,,,,,,,,,,,,,,,,,,,,,,,,,,,,,,,,,,,,,,,,,,,,,,,,,,,,,,,,,,,,,,,,,,,,,,,,,,,,,,,,,,,,,,,,,,,,,,,,,,,,,,,,,,,,,,,,,,,,,,,,,,,
,,,,,,60cb4f111e27b7ab3656e188,62c539f1710891b46175a7cf,2022-07-06_09h33.06.436,Colour_Asymmetry_Pilot,2022.1.3,Win32,29.89894158,62c50e9c1127f2cd403a315f,0,87,87,145,1,onethree,,,,,,,,,,,,,,,,,,,,,,,,,,,,,,,,,,,,,,,,,,,,,,,,,,,,,,,,,,,,,,,,,,,,,,,,,,,,,,,,,,,,,,,,,,,,,,,,,,,,,,,,,,,,,,,,,,,,,,,,,,,,,,,,,,,,,,,,,,,,,,,,,,,,,,,,,,,,,
,,,,,,60cb4f111e27b7ab3656e188,62c539f1710891b46175a7cf,2022-07-06_09h33.06.436,Colour_Asymmetry_Pilot,2022.1.3,Win32,29.89894158,62c50e9c1127f2cd403a315f,0,88,88,40,1,onetwo,,,,,,,,,,,,,,,,,,,,,,,,,,,,,,,,,,,,,,,,,,,,,,,,,,,,,,,,,,,,,,,,,,,,,,,,,,,,,,,,,,,,,,,,,,,,,,,,,,,,,,,,,,,,,,,,,,,,,,,,,,,,,,,,,,,,,,,,,,,,,,,,,,,,,,,,,,,,,
,,,,,,60cb4f111e27b7ab3656e188,62c539f1710891b46175a7cf,2022-07-06_09h33.06.436,Colour_Asymmetry_Pilot,2022.1.3,Win32,29.89894158,62c50e9c1127f2cd403a315f,0,89,89,44,1,threeone,,,,,,,,,,,,,,,,,,,,,,,,,,,,,,,,,,,,,,,,,,,,,,,,,,,,,,,,,,,,,,,,,,,,,,,,,,,,,,,,,,,,,,,,,,,,,,,,,,,,,,,,,,,,,,,,,,,,,,,,,,,,,,,,,,,,,,,,,,,,,,,,,,,,,,,,,,,,,
,,,,,,60cb4f111e27b7ab3656e188,62c539f1710891b46175a7cf,2022-07-06_09h33.06.436,Colour_Asymmetry_Pilot,2022.1.3,Win32,29.89894158,62c50e9c1127f2cd403a315f,0,90,90,21,1,threefour,,,,,,,,,,,,,,,,,,,,,,,,,,,,,,,,,,,,,,,,,,,,,,,,,,,,,,,,,,,,,,,,,,,,,,,,,,,,,,,,,,,,,,,,,,,,,,,,,,,,,,,,,,,,,,,,,,,,,,,,,,,,,,,,,,,,,,,,,,,,,,,,,,,,,,,,,,,,,
,,,,,,60cb4f111e27b7ab3656e188,62c539f1710891b46175a7cf,2022-07-06_09h33.06.436,Colour_Asymmetry_Pilot,2022.1.3,Win32,29.89894158,62c50e9c1127f2cd403a315f,0,91,91,111,1,fourthree,,,,,,,,,,,,,,,,,,,,,,,,,,,,,,,,,,,,,,,,,,,,,,,,,,,,,,,,,,,,,,,,,,,,,,,,,,,,,,,,,,,,,,,,,,,,,,,,,,,,,,,,,,,,,,,,,,,,,,,,,,,,,,,,,,,,,,,,,,,,,,,,,,,,,,,,,,,,,
,,,,,,60cb4f111e27b7ab3656e188,62c539f1710891b46175a7cf,2022-07-06_09h33.06.436,Colour_Asymmetry_Pilot,2022.1.3,Win32,29.89894158,62c50e9c1127f2cd403a315f,0,92,92,114,1,twoone,,,,,,,,,,,,,,,,,,,,,,,,,,,,,,,,,,,,,,,,,,,,,,,,,,,,,,,,,,,,,,,,,,,,,,,,,,,,,,,,,,,,,,,,,,,,,,,,,,,,,,,,,,,,,,,,,,,,,,,,,,,,,,,,,,,,,,,,,,,,,,,,,,,,,,,,,,,,,
,,,,,,60cb4f111e27b7ab3656e188,62c539f1710891b46175a7cf,2022-07-06_09h33.06.436,Colour_Asymmetry_Pilot,2022.1.3,Win32,29.89894158,62c50e9c1127f2cd403a315f,0,93,93,52,1,threeone,,,,,,,,,,,,,,,,,,,,,,,,,,,,,,,,,,,,,,,,,,,,,,,,,,,,,,,,,,,,,,,,,,,,,,,,,,,,,,,,,,,,,,,,,,,,,,,,,,,,,,,,,,,,,,,,,,,,,,,,,,,,,,,,,,,,,,,,,,,,,,,,,,,,,,,,,,,,,
,,,,,,60cb4f111e27b7ab3656e188,62c539f1710891b46175a7cf,2022-07-06_09h33.06.436,Colour_Asymmetry_Pilot,2022.1.3,Win32,29.89894158,62c50e9c1127f2cd403a315f,0,94,94,37,1,threefour,,,,,,,,,,,,,,,,,,,,,,,,,,,,,,,,,,,,,,,,,,,,,,,,,,,,,,,,,,,,,,,,,,,,,,,,,,,,,,,,,,,,,,,,,,,,,,,,,,,,,,,,,,,,,,,,,,,,,,,,,,,,,,,,,,,,,,,,,,,,,,,,,,,,,,,,,,,,,
,,,,,,60cb4f111e27b7ab3656e188,62c539f1710891b46175a7cf,2022-07-06_09h33.06.436,Colour_Asymmetry_Pilot,2022.1.3,Win32,29.89894158,62c50e9c1127f2cd403a315f,0,95,95,8,1,onetwo,,,,,,,,,,,,,,,,,,,,,,,,,,,,,,,,,,,,,,,,,,,,,,,,,,,,,,,,,,,,,,,,,,,,,,,,,,,,,,,,,,,,,,,,,,,,,,,,,,,,,,,,,,,,,,,,,,,,,,,,,,,,,,,,,,,,,,,,,,,,,,,,,,,,,,,,,,,,,
,,,,,,60cb4f111e27b7ab3656e188,62c539f1710891b46175a7cf,2022-07-06_09h33.06.436,Colour_Asymmetry_Pilot,2022.1.3,Win32,29.89894158,62c50e9c1127f2cd403a315f,0,96,96,108,1,threeone,,,,,,,,,,,,,,,,,,,,,,,,,,,,,,,,,,,,,,,,,,,,,,,,,,,,,,,,,,,,,,,,,,,,,,,,,,,,,,,,,,,,,,,,,,,,,,,,,,,,,,,,,,,,,,,,,,,,,,,,,,,,,,,,,,,,,,,,,,,,,,,,,,,,,,,,,,,,,
,,,,,,60cb4f111e27b7ab3656e188,62c539f1710891b46175a7cf,2022-07-06_09h33.06.436,Colour_Asymmetry_Pilot,2022.1.3,Win32,29.89894158,62c50e9c1127f2cd403a315f,0,97,97,138,1,twoone,,,,,,,,,,,,,,,,,,,,,,,,,,,,,,,,,,,,,,,,,,,,,,,,,,,,,,,,,,,,,,,,,,,,,,,,,,,,,,,,,,,,,,,,,,,,,,,,,,,,,,,,,,,,,,,,,,,,,,,,,,,,,,,,,,,,,,,,,,,,,,,,,,,,,,,,,,,,,
,,,,,,60cb4f111e27b7ab3656e188,62c539f1710891b46175a7cf,2022-07-06_09h33.06.436,Colour_Asymmetry_Pilot,2022.1.3,Win32,29.89894158,62c50e9c1127f2cd403a315f,0,98,98,26,1,twoone,,,,,,,,,,,,,,,,,,,,,,,,,,,,,,,,,,,,,,,,,,,,,,,,,,,,,,,,,,,,,,,,,,,,,,,,,,,,,,,,,,,,,,,,,,,,,,,,,,,,,,,,,,,,,,,,,,,,,,,,,,,,,,,,,,,,,,,,,,,,,,,,,,,,,,,,,,,,,
,,,,,,60cb4f111e27b7ab3656e188,62c539f1710891b46175a7cf,2022-07-06_09h33.06.436,Colour_Asymmetry_Pilot,2022.1.3,Win32,29.89894158,62c50e9c1127f2cd403a315f,0,99,99,42,1,twoone,,,,,,,,,,,,,,,,,,,,,,,,,,,,,,,,,,,,,,,,,,,,,,,,,,,,,,,,,,,,,,,,,,,,,,,,,,,,,,,,,,,,,,,,,,,,,,,,,,,,,,,,,,,,,,,,,,,,,,,,,,,,,,,,,,,,,,,,,,,,,,,,,,,,,,,,,,,,,
,,,,,,60cb4f111e27b7ab3656e188,62c539f1710891b46175a7cf,2022-07-06_09h33.06.436,Colour_Asymmetry_Pilot,2022.1.3,Win32,29.89894158,62c50e9c1127f2cd403a315f,0,100,100,126,1,fourtwo,,,,,,,,,,,,,,,,,,,,,,,,,,,,,,,,,,,,,,,,,,,,,,,,,,,,,,,,,,,,,,,,,,,,,,,,,,,,,,,,,,,,,,,,,,,,,,,,,,,,,,,,,,,,,,,,,,,,,,,,,,,,,,,,,,,,,,,,,,,,,,,,,,,,,,,,,,,,,
,,,,,,60cb4f111e27b7ab3656e188,62c539f1710891b46175a7cf,2022-07-06_09h33.06.436,Colour_Asymmetry_Pilot,2022.1.3,Win32,29.89894158,62c50e9c1127f2cd403a315f,0,101,101,83,1,twofour,,,,,,,,,,,,,,,,,,,,,,,,,,,,,,,,,,,,,,,,,,,,,,,,,,,,,,,,,,,,,,,,,,,,,,,,,,,,,,,,,,,,,,,,,,,,,,,,,,,,,,,,,,,,,,,,,,,,,,,,,,,,,,,,,,,,,,,,,,,,,,,,,,,,,,,,,,,,,
,,,,,,60cb4f111e27b7ab3656e188,62c539f1710891b46175a7cf,2022-07-06_09h33.06.436,Colour_Asymmetry_Pilot,2022.1.3,Win32,29.89894158,62c50e9c1127f2cd403a315f,0,102,102,81,1,onethree,,,,,,,,,,,,,,,,,,,,,,,,,,,,,,,,,,,,,,,,,,,,,,,,,,,,,,,,,,,,,,,,,,,,,,,,,,,,,,,,,,,,,,,,,,,,,,,,,,,,,,,,,,,,,,,,,,,,,,,,,,,,,,,,,,,,,,,,,,,,,,,,,,,,,,,,,,,,,
,,,,,,60cb4f111e27b7ab3656e188,62c539f1710891b46175a7cf,2022-07-06_09h33.06.436,Colour_Asymmetry_Pilot,2022.1.3,Win32,29.89894158,62c50e9c1127f2cd403a315f,0,103,103,47,1,fourthree,,,,,,,,,,,,,,,,,,,,,,,,,,,,,,,,,,,,,,,,,,,,,,,,,,,,,,,,,,,,,,,,,,,,,,,,,,,,,,,,,,,,,,,,,,,,,,,,,,,,,,,,,,,,,,,,,,,,,,,,,,,,,,,,,,,,,,,,,,,,,,,,,,,,,,,,,,,,,
,,,,,,60cb4f111e27b7ab3656e188,62c539f1710891b46175a7cf,2022-07-06_09h33.06.436,Colour_Asymmetry_Pilot,2022.1.3,Win32,29.89894158,62c50e9c1127f2cd403a315f,0,104,104,96,1,onetwo,,,,,,,,,,,,,,,,,,,,,,,,,,,,,,,,,,,,,,,,,,,,,,,,,,,,,,,,,,,,,,,,,,,,,,,,,,,,,,,,,,,,,,,,,,,,,,,,,,,,,,,,,,,,,,,,,,,,,,,,,,,,,,,,,,,,,,,,,,,,,,,,,,,,,,,,,,,,,
,,,,,,60cb4f111e27b7ab3656e188,62c539f1710891b46175a7cf,2022-07-06_09h33.06.436,Colour_Asymmetry_Pilot,2022.1.3,Win32,29.89894158,62c50e9c1127f2cd403a315f,0,105,105,125,1,threefour,,,,,,,,,,,,,,,,,,,,,,,,,,,,,,,,,,,,,,,,,,,,,,,,,,,,,,,,,,,,,,,,,,,,,,,,,,,,,,,,,,,,,,,,,,,,,,,,,,,,,,,,,,,,,,,,,,,,,,,,,,,,,,,,,,,,,,,,,,,,,,,,,,,,,,,,,,,,,
,,,,,,60cb4f111e27b7ab3656e188,62c539f1710891b46175a7cf,2022-07-06_09h33.06.436,Colour_Asymmetry_Pilot,2022.1.3,Win32,29.89894158,62c50e9c1127f2cd403a315f,0,106,106,71,1,fourthree,,,,,,,,,,,,,,,,,,,,,,,,,,,,,,,,,,,,,,,,,,,,,,,,,,,,,,,,,,,,,,,,,,,,,,,,,,,,,,,,,,,,,,,,,,,,,,,,,,,,,,,,,,,,,,,,,,,,,,,,,,,,,,,,,,,,,,,,,,,,,,,,,,,,,,,,,,,,,
,,,,,,60cb4f111e27b7ab3656e188,62c539f1710891b46175a7cf,2022-07-06_09h33.06.436,Colour_Asymmetry_Pilot,2022.1.3,Win32,29.89894158,62c50e9c1127f2cd403a315f,0,107,107,123,1,twofour,,,,,,,,,,,,,,,,,,,,,,,,,,,,,,,,,,,,,,,,,,,,,,,,,,,,,,,,,,,,,,,,,,,,,,,,,,,,,,,,,,,,,,,,,,,,,,,,,,,,,,,,,,,,,,,,,,,,,,,,,,,,,,,,,,,,,,,,,,,,,,,,,,,,,,,,,,,,,
,,,,,,60cb4f111e27b7ab3656e188,62c539f1710891b46175a7cf,2022-07-06_09h33.06.436,Colour_Asymmetry_Pilot,2022.1.3,Win32,29.89894158,62c50e9c1127f2cd403a315f,0,108,108,116,1,threeone,,,,,,,,,,,,,,,,,,,,,,,,,,,,,,,,,,,,,,,,,,,,,,,,,,,,,,,,,,,,,,,,,,,,,,,,,,,,,,,,,,,,,,,,,,,,,,,,,,,,,,,,,,,,,,,,,,,,,,,,,,,,,,,,,,,,,,,,,,,,,,,,,,,,,,,,,,,,,
,,,,,,60cb4f111e27b7ab3656e188,62c539f1710891b46175a7cf,2022-07-06_09h33.06.436,Colour_Asymmetry_Pilot,2022.1.3,Win32,29.89894158,62c50e9c1127f2cd403a315f,0,109,109,27,1,twofour,,,,,,,,,,,,,,,,,,,,,,,,,,,,,,,,,,,,,,,,,,,,,,,,,,,,,,,,,,,,,,,,,,,,,,,,,,,,,,,,,,,,,,,,,,,,,,,,,,,,,,,,,,,,,,,,,,,,,,,,,,,,,,,,,,,,,,,,,,,,,,,,,,,,,,,,,,,,,
,,,,,,60cb4f111e27b7ab3656e188,62c539f1710891b46175a7cf,2022-07-06_09h33.06.436,Colour_Asymmetry_Pilot,2022.1.3,Win32,29.89894158,62c50e9c1127f2cd403a315f,0,110,110,112,1,onetwo,,,,,,,,,,,,,,,,,,,,,,,,,,,,,,,,,,,,,,,,,,,,,,,,,,,,,,,,,,,,,,,,,,,,,,,,,,,,,,,,,,,,,,,,,,,,,,,,,,,,,,,,,,,,,,,,,,,,,,,,,,,,,,,,,,,,,,,,,,,,,,,,,,,,,,,,,,,,,
,,,,,,60cb4f111e27b7ab3656e188,62c539f1710891b46175a7cf,2022-07-06_09h33.06.436,Colour_Asymmetry_Pilot,2022.1.3,Win32,29.89894158,62c50e9c1127f2cd403a315f,0,111,111,91,1,twofour,,,,,,,,,,,,,,,,,,,,,,,,,,,,,,,,,,,,,,,,,,,,,,,,,,,,,,,,,,,,,,,,,,,,,,,,,,,,,,,,,,,,,,,,,,,,,,,,,,,,,,,,,,,,,,,,,,,,,,,,,,,,,,,,,,,,,,,,,,,,,,,,,,,,,,,,,,,,,
,,,,,,60cb4f111e27b7ab3656e188,62c539f1710891b46175a7cf,2022-07-06_09h33.06.436,Colour_Asymmetry_Pilot,2022.1.3,Win32,29.89894158,62c50e9c1127f2cd403a315f,0,112,112,66,1,twoone,,,,,,,,,,,,,,,,,,,,,,,,,,,,,,,,,,,,,,,,,,,,,,,,,,,,,,,,,,,,,,,,,,,,,,,,,,,,,,,,,,,,,,,,,,,,,,,,,,,,,,,,,,,,,,,,,,,,,,,,,,,,,,,,,,,,,,,,,,,,,,,,,,,,,,,,,,,,,
,,,,,,60cb4f111e27b7ab3656e188,62c539f1710891b46175a7cf,2022-07-06_09h33.06.436,Colour_Asymmetry_Pilot,2022.1.3,Win32,29.89894158,62c50e9c1127f2cd403a315f,0,113,113,39,1,fourthree,,,,,,,,,,,,,,,,,,,,,,,,,,,,,,,,,,,,,,,,,,,,,,,,,,,,,,,,,,,,,,,,,,,,,,,,,,,,,,,,,,,,,,,,,,,,,,,,,,,,,,,,,,,,,,,,,,,,,,,,,,,,,,,,,,,,,,,,,,,,,,,,,,,,,,,,,,,,,
,,,,,,60cb4f111e27b7ab3656e188,62c539f1710891b46175a7cf,2022-07-06_09h33.06.436,Colour_Asymmetry_Pilot,2022.1.3,Win32,29.89894158,62c50e9c1127f2cd403a315f,0,114,114,3,1,twofour,,,,,,,,,,,,,,,,,,,,,,,,,,,,,,,,,,,,,,,,,,,,,,,,,,,,,,,,,,,,,,,,,,,,,,,,,,,,,,,,,,,,,,,,,,,,,,,,,,,,,,,,,,,,,,,,,,,,,,,,,,,,,,,,,,,,,,,,,,,,,,,,,,,,,,,,,,,,,
,,,,,,60cb4f111e27b7ab3656e188,62c539f1710891b46175a7cf,2022-07-06_09h33.06.436,Colour_Asymmetry_Pilot,2022.1.3,Win32,29.89894158,62c50e9c1127f2cd403a315f,0,115,115,18,1,twoone,,,,,,,,,,,,,,,,,,,,,,,,,,,,,,,,,,,,,,,,,,,,,,,,,,,,,,,,,,,,,,,,,,,,,,,,,,,,,,,,,,,,,,,,,,,,,,,,,,,,,,,,,,,,,,,,,,,,,,,,,,,,,,,,,,,,,,,,,,,,,,,,,,,,,,,,,,,,,
,,,,,,60cb4f111e27b7ab3656e188,62c539f1710891b46175a7cf,2022-07-06_09h33.06.436,Colour_Asymmetry_Pilot,2022.1.3,Win32,29.89894158,62c50e9c1127f2cd403a315f,0,116,116,82,1,twoone,,,,,,,,,,,,,,,,,,,,,,,,,,,,,,,,,,,,,,,,,,,,,,,,,,,,,,,,,,,,,,,,,,,,,,,,,,,,,,,,,,,,,,,,,,,,,,,,,,,,,,,,,,,,,,,,,,,,,,,,,,,,,,,,,,,,,,,,,,,,,,,,,,,,,,,,,,,,,
,,,,,,60cb4f111e27b7ab3656e188,62c539f1710891b46175a7cf,2022-07-06_09h33.06.436,Colour_Asymmetry_Pilot,2022.1.3,Win32,29.89894158,62c50e9c1127f2cd403a315f,0,117,117,93,1,threefour,,,,,,,,,,,,,,,,,,,,,,,,,,,,,,,,,,,,,,,,,,,,,,,,,,,,,,,,,,,,,,,,,,,,,,,,,,,,,,,,,,,,,,,,,,,,,,,,,,,,,,,,,,,,,,,,,,,,,,,,,,,,,,,,,,,,,,,,,,,,,,,,,,,,,,,,,,,,,
,,,,,,60cb4f111e27b7ab3656e188,62c539f1710891b46175a7cf,2022-07-06_09h33.06.436,Colour_Asymmetry_Pilot,2022.1.3,Win32,29.89894158,62c50e9c1127f2cd403a315f,0,118,118,58,1,twoone,,,,,,,,,,,,,,,,,,,,,,,,,,,,,,,,,,,,,,,,,,,,,,,,,,,,,,,,,,,,,,,,,,,,,,,,,,,,,,,,,,,,,,,,,,,,,,,,,,,,,,,,,,,,,,,,,,,,,,,,,,,,,,,,,,,,,,,,,,,,,,,,,,,,,,,,,,,,,
,,,,,,60cb4f111e27b7ab3656e188,62c539f1710891b46175a7cf,2022-07-06_09h33.06.436,Colour_Asymmetry_Pilot,2022.1.3,Win32,29.89894158,62c50e9c1127f2cd403a315f,0,119,119,78,1,fourtwo,,,,,,,,,,,,,,,,,,,,,,,,,,,,,,,,,,,,,,,,,,,,,,,,,,,,,,,,,,,,,,,,,,,,,,,,,,,,,,,,,,,,,,,,,,,,,,,,,,,,,,,,,,,,,,,,,,,,,,,,,,,,,,,,,,,,,,,,,,,,,,,,,,,,,,,,,,,,,
,,,,,,60cb4f111e27b7ab3656e188,62c539f1710891b46175a7cf,2022-07-06_09h33.06.436,Colour_Asymmetry_Pilot,2022.1.3,Win32,29.89894158,62c50e9c1127f2cd403a315f,0,120,120,157,1,threefour,,,,,,,,,,,,,,,,,,,,,,,,,,,,,,,,,,,,,,,,,,,,,,,,,,,,,,,,,,,,,,,,,,,,,,,,,,,,,,,,,,,,,,,,,,,,,,,,,,,,,,,,,,,,,,,,,,,,,,,,,,,,,,,,,,,,,,,,,,,,,,,,,,,,,,,,,,,,,
,,,,,,60cb4f111e27b7ab3656e188,62c539f1710891b46175a7cf,2022-07-06_09h33.06.436,Colour_Asymmetry_Pilot,2022.1.3,Win32,29.89894158,62c50e9c1127f2cd403a315f,0,121,121,140,1,threeone,,,,,,,,,,,,,,,,,,,,,,,,,,,,,,,,,,,,,,,,,,,,,,,,,,,,,,,,,,,,,,,,,,,,,,,,,,,,,,,,,,,,,,,,,,,,,,,,,,,,,,,,,,,,,,,,,,,,,,,,,,,,,,,,,,,,,,,,,,,,,,,,,,,,,,,,,,,,,
,,,,,,60cb4f111e27b7ab3656e188,62c539f1710891b46175a7cf,2022-07-06_09h33.06.436,Colour_Asymmetry_Pilot,2022.1.3,Win32,29.89894158,62c50e9c1127f2cd403a315f,0,122,122,30,1,fourtwo,,,,,,,,,,,,,,,,,,,,,,,,,,,,,,,,,,,,,,,,,,,,,,,,,,,,,,,,,,,,,,,,,,,,,,,,,,,,,,,,,,,,,,,,,,,,,,,,,,,,,,,,,,,,,,,,,,,,,,,,,,,,,,,,,,,,,,,,,,,,,,,,,,,,,,,,,,,,,
,,,,,,60cb4f111e27b7ab3656e188,62c539f1710891b46175a7cf,2022-07-06_09h33.06.436,Colour_Asymmetry_Pilot,2022.1.3,Win32,29.89894158,62c50e9c1127f2cd403a315f,0,123,123,153,1,onethree,,,,,,,,,,,,,,,,,,,,,,,,,,,,,,,,,,,,,,,,,,,,,,,,,,,,,,,,,,,,,,,,,,,,,,,,,,,,,,,,,,,,,,,,,,,,,,,,,,,,,,,,,,,,,,,,,,,,,,,,,,,,,,,,,,,,,,,,,,,,,,,,,,,,,,,,,,,,,
,,,,,,60cb4f111e27b7ab3656e188,62c539f1710891b46175a7cf,2022-07-06_09h33.06.436,Colour_Asymmetry_Pilot,2022.1.3,Win32,29.89894158,62c50e9c1127f2cd403a315f,0,124,124,4,1,threeone,,,,,,,,,,,,,,,,,,,,,,,,,,,,,,,,,,,,,,,,,,,,,,,,,,,,,,,,,,,,,,,,,,,,,,,,,,,,,,,,,,,,,,,,,,,,,,,,,,,,,,,,,,,,,,,,,,,,,,,,,,,,,,,,,,,,,,,,,,,,,,,,,,,,,,,,,,,,,
,,,,,,60cb4f111e27b7ab3656e188,62c539f1710891b46175a7cf,2022-07-06_09h33.06.436,Colour_Asymmetry_Pilot,2022.1.3,Win32,29.89894158,62c50e9c1127f2cd403a315f,0,125,125,120,1,onetwo,,,,,,,,,,,,,,,,,,,,,,,,,,,,,,,,,,,,,,,,,,,,,,,,,,,,,,,,,,,,,,,,,,,,,,,,,,,,,,,,,,,,,,,,,,,,,,,,,,,,,,,,,,,,,,,,,,,,,,,,,,,,,,,,,,,,,,,,,,,,,,,,,,,,,,,,,,,,,
,,,,,,60cb4f111e27b7ab3656e188,62c539f1710891b46175a7cf,2022-07-06_09h33.06.436,Colour_Asymmetry_Pilot,2022.1.3,Win32,29.89894158,62c50e9c1127f2cd403a315f,0,126,126,115,1,twofour,,,,,,,,,,,,,,,,,,,,,,,,,,,,,,,,,,,,,,,,,,,,,,,,,,,,,,,,,,,,,,,,,,,,,,,,,,,,,,,,,,,,,,,,,,,,,,,,,,,,,,,,,,,,,,,,,,,,,,,,,,,,,,,,,,,,,,,,,,,,,,,,,,,,,,,,,,,,,
,,,,,,60cb4f111e27b7ab3656e188,62c539f1710891b46175a7cf,2022-07-06_09h33.06.436,Colour_Asymmetry_Pilot,2022.1.3,Win32,29.89894158,62c50e9c1127f2cd403a315f,0,127,127,70,1,fourtwo,,,,,,,,,,,,,,,,,,,,,,,,,,,,,,,,,,,,,,,,,,,,,,,,,,,,,,,,,,,,,,,,,,,,,,,,,,,,,,,,,,,,,,,,,,,,,,,,,,,,,,,,,,,,,,,,,,,,,,,,,,,,,,,,,,,,,,,,,,,,,,,,,,,,,,,,,,,,,
,,,,,,60cb4f111e27b7ab3656e188,62c539f1710891b46175a7cf,2022-07-06_09h33.06.436,Colour_Asymmetry_Pilot,2022.1.3,Win32,29.89894158,62c50e9c1127f2cd403a315f,0,128,128,134,1,fourtwo,,,,,,,,,,,,,,,,,,,,,,,,,,,,,,,,,,,,,,,,,,,,,,,,,,,,,,,,,,,,,,,,,,,,,,,,,,,,,,,,,,,,,,,,,,,,,,,,,,,,,,,,,,,,,,,,,,,,,,,,,,,,,,,,,,,,,,,,,,,,,,,,,,,,,,,,,,,,,
,,,,,,60cb4f111e27b7ab3656e188,62c539f1710891b46175a7cf,2022-07-06_09h33.06.436,Colour_Asymmetry_Pilot,2022.1.3,Win32,29.89894158,62c50e9c1127f2cd403a315f,0,129,129,98,1,twoone,,,,,,,,,,,,,,,,,,,,,,,,,,,,,,,,,,,,,,,,,,,,,,,,,,,,,,,,,,,,,,,,,,,,,,,,,,,,,,,,,,,,,,,,,,,,,,,,,,,,,,,,,,,,,,,,,,,,,,,,,,,,,,,,,,,,,,,,,,,,,,,,,,,,,,,,,,,,,
,,,,,,60cb4f111e27b7ab3656e188,62c539f1710891b46175a7cf,2022-07-06_09h33.06.436,Colour_Asymmetry_Pilot,2022.1.3,Win32,29.89894158,62c50e9c1127f2cd403a315f,0,130,130,23,1,fourthree,,,,,,,,,,,,,,,,,,,,,,,,,,,,,,,,,,,,,,,,,,,,,,,,,,,,,,,,,,,,,,,,,,,,,,,,,,,,,,,,,,,,,,,,,,,,,,,,,,,,,,,,,,,,,,,,,,,,,,,,,,,,,,,,,,,,,,,,,,,,,,,,,,,,,,,,,,,,,
,,,,,,60cb4f111e27b7ab3656e188,62c539f1710891b46175a7cf,2022-07-06_09h33.06.436,Colour_Asymmetry_Pilot,2022.1.3,Win32,29.89894158,62c50e9c1127f2cd403a315f,0,131,131,147,1,twofour,,,,,,,,,,,,,,,,,,,,,,,,,,,,,,,,,,,,,,,,,,,,,,,,,,,,,,,,,,,,,,,,,,,,,,,,,,,,,,,,,,,,,,,,,,,,,,,,,,,,,,,,,,,,,,,,,,,,,,,,,,,,,,,,,,,,,,,,,,,,,,,,,,,,,,,,,,,,,
,,,,,,60cb4f111e27b7ab3656e188,62c539f1710891b46175a7cf,2022-07-06_09h33.06.436,Colour_Asymmetry_Pilot,2022.1.3,Win32,29.89894158,62c50e9c1127f2cd403a315f,0,132,132,74,1,twoone,,,,,,,,,,,,,,,,,,,,,,,,,,,,,,,,,,,,,,,,,,,,,,,,,,,,,,,,,,,,,,,,,,,,,,,,,,,,,,,,,,,,,,,,,,,,,,,,,,,,,,,,,,,,,,,,,,,,,,,,,,,,,,,,,,,,,,,,,,,,,,,,,,,,,,,,,,,,,
,,,,,,60cb4f111e27b7ab3656e188,62c539f1710891b46175a7cf,2022-07-06_09h33.06.436,Colour_Asymmetry_Pilot,2022.1.3,Win32,29.89894158,62c50e9c1127f2cd403a315f,0,133,133,1,1,onethree,,,,,,,,,,,,,,,,,,,,,,,,,,,,,,,,,,,,,,,,,,,,,,,,,,,,,,,,,,,,,,,,,,,,,,,,,,,,,,,,,,,,,,,,,,,,,,,,,,,,,,,,,,,,,,,,,,,,,,,,,,,,,,,,,,,,,,,,,,,,,,,,,,,,,,,,,,,,,
,,,,,,60cb4f111e27b7ab3656e188,62c539f1710891b46175a7cf,2022-07-06_09h33.06.436,Colour_Asymmetry_Pilot,2022.1.3,Win32,29.89894158,62c50e9c1127f2cd403a315f,0,134,134,106,1,twoone,,,,,,,,,,,,,,,,,,,,,,,,,,,,,,,,,,,,,,,,,,,,,,,,,,,,,,,,,,,,,,,,,,,,,,,,,,,,,,,,,,,,,,,,,,,,,,,,,,,,,,,,,,,,,,,,,,,,,,,,,,,,,,,,,,,,,,,,,,,,,,,,,,,,,,,,,,,,,
,,,,,,60cb4f111e27b7ab3656e188,62c539f1710891b46175a7cf,2022-07-06_09h33.06.436,Colour_Asymmetry_Pilot,2022.1.3,Win32,29.89894158,62c50e9c1127f2cd403a315f,0,135,135,29,1,threefour,,,,,,,,,,,,,,,,,,,,,,,,,,,,,,,,,,,,,,,,,,,,,,,,,,,,,,,,,,,,,,,,,,,,,,,,,,,,,,,,,,,,,,,,,,,,,,,,,,,,,,,,,,,,,,,,,,,,,,,,,,,,,,,,,,,,,,,,,,,,,,,,,,,,,,,,,,,,,
,,,,,,60cb4f111e27b7ab3656e188,62c539f1710891b46175a7cf,2022-07-06_09h33.06.436,Colour_Asymmetry_Pilot,2022.1.3,Win32,29.89894158,62c50e9c1127f2cd403a315f,0,136,136,79,1,fourthree,,,,,,,,,,,,,,,,,,,,,,,,,,,,,,,,,,,,,,,,,,,,,,,,,,,,,,,,,,,,,,,,,,,,,,,,,,,,,,,,,,,,,,,,,,,,,,,,,,,,,,,,,,,,,,,,,,,,,,,,,,,,,,,,,,,,,,,,,,,,,,,,,,,,,,,,,,,,,
,,,,,,60cb4f111e27b7ab3656e188,62c539f1710891b46175a7cf,2022-07-06_09h33.06.436,Colour_Asymmetry_Pilot,2022.1.3,Win32,29.89894158,62c50e9c1127f2cd403a315f,0,137,137,141,1,threefour,,,,,,,,,,,,,,,,,,,,,,,,,,,,,,,,,,,,,,,,,,,,,,,,,,,,,,,,,,,,,,,,,,,,,,,,,,,,,,,,,,,,,,,,,,,,,,,,,,,,,,,,,,,,,,,,,,,,,,,,,,,,,,,,,,,,,,,,,,,,,,,,,,,,,,,,,,,,,
,,,,,,60cb4f111e27b7ab3656e188,62c539f1710891b46175a7cf,2022-07-06_09h33.06.436,Colour_Asymmetry_Pilot,2022.1.3,Win32,29.89894158,62c50e9c1127f2cd403a315f,0,138,138,109,1,threefour,,,,,,,,,,,,,,,,,,,,,,,,,,,,,,,,,,,,,,,,,,,,,,,,,,,,,,,,,,,,,,,,,,,,,,,,,,,,,,,,,,,,,,,,,,,,,,,,,,,,,,,,,,,,,,,,,,,,,,,,,,,,,,,,,,,,,,,,,,,,,,,,,,,,,,,,,,,,,
,,,,,,60cb4f111e27b7ab3656e188,62c539f1710891b46175a7cf,2022-07-06_09h33.06.436,Colour_Asymmetry_Pilot,2022.1.3,Win32,29.89894158,62c50e9c1127f2cd403a315f,0,139,139,124,1,threeone,,,,,,,,,,,,,,,,,,,,,,,,,,,,,,,,,,,,,,,,,,,,,,,,,,,,,,,,,,,,,,,,,,,,,,,,,,,,,,,,,,,,,,,,,,,,,,,,,,,,,,,,,,,,,,,,,,,,,,,,,,,,,,,,,,,,,,,,,,,,,,,,,,,,,,,,,,,,,
,,,,,,60cb4f111e27b7ab3656e188,62c539f1710891b46175a7cf,2022-07-06_09h33.06.436,Colour_Asymmetry_Pilot,2022.1.3,Win32,29.89894158,62c50e9c1127f2cd403a315f,0,140,140,84,1,threeone,,,,,,,,,,,,,,,,,,,,,,,,,,,,,,,,,,,,,,,,,,,,,,,,,,,,,,,,,,,,,,,,,,,,,,,,,,,,,,,,,,,,,,,,,,,,,,,,,,,,,,,,,,,,,,,,,,,,,,,,,,,,,,,,,,,,,,,,,,,,,,,,,,,,,,,,,,,,,
,,,,,,60cb4f111e27b7ab3656e188,62c539f1710891b46175a7cf,2022-07-06_09h33.06.436,Colour_Asymmetry_Pilot,2022.1.3,Win32,29.89894158,62c50e9c1127f2cd403a315f,0,141,141,90,1,twoone,,,,,,,,,,,,,,,,,,,,,,,,,,,,,,,,,,,,,,,,,,,,,,,,,,,,,,,,,,,,,,,,,,,,,,,,,,,,,,,,,,,,,,,,,,,,,,,,,,,,,,,,,,,,,,,,,,,,,,,,,,,,,,,,,,,,,,,,,,,,,,,,,,,,,,,,,,,,,
,,,,,,60cb4f111e27b7ab3656e188,62c539f1710891b46175a7cf,2022-07-06_09h33.06.436,Colour_Asymmetry_Pilot,2022.1.3,Win32,29.89894158,62c50e9c1127f2cd403a315f,0,142,142,32,1,onetwo,,,,,,,,,,,,,,,,,,,,,,,,,,,,,,,,,,,,,,,,,,,,,,,,,,,,,,,,,,,,,,,,,,,,,,,,,,,,,,,,,,,,,,,,,,,,,,,,,,,,,,,,,,,,,,,,,,,,,,,,,,,,,,,,,,,,,,,,,,,,,,,,,,,,,,,,,,,,,
,,,,,,60cb4f111e27b7ab3656e188,62c539f1710891b46175a7cf,2022-07-06_09h33.06.436,Colour_Asymmetry_Pilot,2022.1.3,Win32,29.89894158,62c50e9c1127f2cd403a315f,0,143,143,76,1,threeone,,,,,,,,,,,,,,,,,,,,,,,,,,,,,,,,,,,,,,,,,,,,,,,,,,,,,,,,,,,,,,,,,,,,,,,,,,,,,,,,,,,,,,,,,,,,,,,,,,,,,,,,,,,,,,,,,,,,,,,,,,,,,,,,,,,,,,,,,,,,,,,,,,,,,,,,,,,,,
,,,,,,60cb4f111e27b7ab3656e188,62c539f1710891b46175a7cf,2022-07-06_09h33.06.436,Colour_Asymmetry_Pilot,2022.1.3,Win32,29.89894158,62c50e9c1127f2cd403a315f,0,144,144,16,1,onetwo,,,,,,,,,,,,,,,,,,,,,,,,,,,,,,,,,,,,,,,,,,,,,,,,,,,,,,,,,,,,,,,,,,,,,,,,,,,,,,,,,,,,,,,,,,,,,,,,,,,,,,,,,,,,,,,,,,,,,,,,,,,,,,,,,,,,,,,,,,,,,,,,,,,,,,,,,,,,,
,,,,,,60cb4f111e27b7ab3656e188,62c539f1710891b46175a7cf,2022-07-06_09h33.06.436,Colour_Asymmetry_Pilot,2022.1.3,Win32,29.89894158,62c50e9c1127f2cd403a315f,0,145,145,61,1,threefour,,,,,,,,,,,,,,,,,,,,,,,,,,,,,,,,,,,,,,,,,,,,,,,,,,,,,,,,,,,,,,,,,,,,,,,,,,,,,,,,,,,,,,,,,,,,,,,,,,,,,,,,,,,,,,,,,,,,,,,,,,,,,,,,,,,,,,,,,,,,,,,,,,,,,,,,,,,,,
,,,,,,60cb4f111e27b7ab3656e188,62c539f1710891b46175a7cf,2022-07-06_09h33.06.436,Colour_Asymmetry_Pilot,2022.1.3,Win32,29.89894158,62c50e9c1127f2cd403a315f,0,146,146,105,1,onethree,,,,,,,,,,,,,,,,,,,,,,,,,,,,,,,,,,,,,,,,,,,,,,,,,,,,,,,,,,,,,,,,,,,,,,,,,,,,,,,,,,,,,,,,,,,,,,,,,,,,,,,,,,,,,,,,,,,,,,,,,,,,,,,,,,,,,,,,,,,,,,,,,,,,,,,,,,,,,
,,,,,,60cb4f111e27b7ab3656e188,62c539f1710891b46175a7cf,2022-07-06_09h33.06.436,Colour_Asymmetry_Pilot,2022.1.3,Win32,29.89894158,62c50e9c1127f2cd403a315f,0,147,147,15,1,fourthree,,,,,,,,,,,,,,,,,,,,,,,,,,,,,,,,,,,,,,,,,,,,,,,,,,,,,,,,,,,,,,,,,,,,,,,,,,,,,,,,,,,,,,,,,,,,,,,,,,,,,,,,,,,,,,,,,,,,,,,,,,,,,,,,,,,,,,,,,,,,,,,,,,,,,,,,,,,,,
,,,,,,60cb4f111e27b7ab3656e188,62c539f1710891b46175a7cf,2022-07-06_09h33.06.436,Colour_Asymmetry_Pilot,2022.1.3,Win32,29.89894158,62c50e9c1127f2cd403a315f,0,148,148,38,1,fourtwo,,,,,,,,,,,,,,,,,,,,,,,,,,,,,,,,,,,,,,,,,,,,,,,,,,,,,,,,,,,,,,,,,,,,,,,,,,,,,,,,,,,,,,,,,,,,,,,,,,,,,,,,,,,,,,,,,,,,,,,,,,,,,,,,,,,,,,,,,,,,,,,,,,,,,,,,,,,,,
,,,,,,60cb4f111e27b7ab3656e188,62c539f1710891b46175a7cf,2022-07-06_09h33.06.436,Colour_Asymmetry_Pilot,2022.1.3,Win32,29.89894158,62c50e9c1127f2cd403a315f,0,149,149,59,1,twofour,,,,,,,,,,,,,,,,,,,,,,,,,,,,,,,,,,,,,,,,,,,,,,,,,,,,,,,,,,,,,,,,,,,,,,,,,,,,,,,,,,,,,,,,,,,,,,,,,,,,,,,,,,,,,,,,,,,,,,,,,,,,,,,,,,,,,,,,,,,,,,,,,,,,,,,,,,,,,
,,,,,,60cb4f111e27b7ab3656e188,62c539f1710891b46175a7cf,2022-07-06_09h33.06.436,Colour_Asymmetry_Pilot,2022.1.3,Win32,29.89894158,62c50e9c1127f2cd403a315f,0,150,150,159,1,fourthree,,,,,,,,,,,,,,,,,,,,,,,,,,,,,,,,,,,,,,,,,,,,,,,,,,,,,,,,,,,,,,,,,,,,,,,,,,,,,,,,,,,,,,,,,,,,,,,,,,,,,,,,,,,,,,,,,,,,,,,,,,,,,,,,,,,,,,,,,,,,,,,,,,,,,,,,,,,,,
,,,,,,60cb4f111e27b7ab3656e188,62c539f1710891b46175a7cf,2022-07-06_09h33.06.436,Colour_Asymmetry_Pilot,2022.1.3,Win32,29.89894158,62c50e9c1127f2cd403a315f,0,151,151,55,1,fourthree,,,,,,,,,,,,,,,,,,,,,,,,,,,,,,,,,,,,,,,,,,,,,,,,,,,,,,,,,,,,,,,,,,,,,,,,,,,,,,,,,,,,,,,,,,,,,,,,,,,,,,,,,,,,,,,,,,,,,,,,,,,,,,,,,,,,,,,,,,,,,,,,,,,,,,,,,,,,,
,,,,,,60cb4f111e27b7ab3656e188,62c539f1710891b46175a7cf,2022-07-06_09h33.06.436,Colour_Asymmetry_Pilot,2022.1.3,Win32,29.89894158,62c50e9c1127f2cd403a315f,0,152,152,41,1,onethree,,,,,,,,,,,,,,,,,,,,,,,,,,,,,,,,,,,,,,,,,,,,,,,,,,,,,,,,,,,,,,,,,,,,,,,,,,,,,,,,,,,,,,,,,,,,,,,,,,,,,,,,,,,,,,,,,,,,,,,,,,,,,,,,,,,,,,,,,,,,,,,,,,,,,,,,,,,,,
,,,,,,60cb4f111e27b7ab3656e188,62c539f1710891b46175a7cf,2022-07-06_09h33.06.436,Colour_Asymmetry_Pilot,2022.1.3,Win32,29.89894158,62c50e9c1127f2cd403a315f,0,153,153,149,1,threefour,,,,,,,,,,,,,,,,,,,,,,,,,,,,,,,,,,,,,,,,,,,,,,,,,,,,,,,,,,,,,,,,,,,,,,,,,,,,,,,,,,,,,,,,,,,,,,,,,,,,,,,,,,,,,,,,,,,,,,,,,,,,,,,,,,,,,,,,,,,,,,,,,,,,,,,,,,,,,
,,,,,,60cb4f111e27b7ab3656e188,62c539f1710891b46175a7cf,2022-07-06_09h33.06.436,Colour_Asymmetry_Pilot,2022.1.3,Win32,29.89894158,62c50e9c1127f2cd403a315f,0,154,154,51,1,twofour,,,,,,,,,,,,,,,,,,,,,,,,,,,,,,,,,,,,,,,,,,,,,,,,,,,,,,,,,,,,,,,,,,,,,,,,,,,,,,,,,,,,,,,,,,,,,,,,,,,,,,,,,,,,,,,,,,,,,,,,,,,,,,,,,,,,,,,,,,,,,,,,,,,,,,,,,,,,,
,,,,,,60cb4f111e27b7ab3656e188,62c539f1710891b46175a7cf,2022-07-06_09h33.06.436,Colour_Asymmetry_Pilot,2022.1.3,Win32,29.89894158,62c50e9c1127f2cd403a315f,0,155,155,24,1,onetwo,,,,,,,,,,,,,,,,,,,,,,,,,,,,,,,,,,,,,,,,,,,,,,,,,,,,,,,,,,,,,,,,,,,,,,,,,,,,,,,,,,,,,,,,,,,,,,,,,,,,,,,,,,,,,,,,,,,,,,,,,,,,,,,,,,,,,,,,,,,,,,,,,,,,,,,,,,,,,
,,,,,,60cb4f111e27b7ab3656e188,62c539f1710891b46175a7cf,2022-07-06_09h33.06.436,Colour_Asymmetry_Pilot,2022.1.3,Win32,29.89894158,62c50e9c1127f2cd403a315f,0,156,156,6,1,fourtwo,,,,,,,,,,,,,,,,,,,,,,,,,,,,,,,,,,,,,,,,,,,,,,,,,,,,,,,,,,,,,,,,,,,,,,,,,,,,,,,,,,,,,,,,,,,,,,,,,,,,,,,,,,,,,,,,,,,,,,,,,,,,,,,,,,,,,,,,,,,,,,,,,,,,,,,,,,,,,
,,,,,,60cb4f111e27b7ab3656e188,62c539f1710891b46175a7cf,2022-07-06_09h33.06.436,Colour_Asymmetry_Pilot,2022.1.3,Win32,29.89894158,62c50e9c1127f2cd403a315f,0,157,157,69,1,threefour,,,,,,,,,,,,,,,,,,,,,,,,,,,,,,,,,,,,,,,,,,,,,,,,,,,,,,,,,,,,,,,,,,,,,,,,,,,,,,,,,,,,,,,,,,,,,,,,,,,,,,,,,,,,,,,,,,,,,,,,,,,,,,,,,,,,,,,,,,,,,,,,,,,,,,,,,,,,,
,,,,,,60cb4f111e27b7ab3656e188,62c539f1710891b46175a7cf,2022-07-06_09h33.06.436,Colour_Asymmetry_Pilot,2022.1.3,Win32,29.89894158,62c50e9c1127f2cd403a315f,0,158,158,56,1,onetwo,,,,,,,,,,,,,,,,,,,,,,,,,,,,,,,,,,,,,,,,,,,,,,,,,,,,,,,,,,,,,,,,,,,,,,,,,,,,,,,,,,,,,,,,,,,,,,,,,,,,,,,,,,,,,,,,,,,,,,,,,,,,,,,,,,,,,,,,,,,,,,,,,,,,,,,,,,,,,
,,,,,,60cb4f111e27b7ab3656e188,62c539f1710891b46175a7cf,2022-07-06_09h33.06.436,Colour_Asymmetry_Pilot,2022.1.3,Win32,29.89894158,62c50e9c1127f2cd403a315f,0,159,159,121,1,onethree,,,,,,,,,,,,,,,,,,,,,,,,,,,,,,,,,,,,,,,,,,,,,,,,,,,,,,,,,,,,,,,,,,,,,,,,,,,,,,,,,,,,,,,,,,,,,,,,,,,,,,,,,,,,,,,,,,,,,,,,,,,,,,,,,,,,,,,,,,,,,,,,,,,,,,,,,,,,,
,,,,,,60cb4f111e27b7ab3656e188,62c539f1710891b46175a7cf,2022-07-06_09h33.06.436,Colour_Asymmetry_Pilot,2022.1.3,Win32,29.89894158,62c50e9c1127f2cd403a315f,0,160,160,158,1,fourtwo,,,,,,,,,,,,,,,,,,,,,,,,,,,,,,,,,,,,,,,,,,,,,,,,,,,,,,,,,,,,,,,,,,,,,,,,,,,,,,,,,,,,,,,,,,,,,,,,,,,,,,,,,,,,,,,,,,,,,,,,,,,,,,,,,,,,,,,,,,,,,,,,,,,,,,,,,,,,,
,,,,,,60cb4f111e27b7ab3656e188,62c539f1710891b46175a7cf,2022-07-06_09h33.06.436,Colour_Asymmetry_Pilot,2022.1.3,Win32,29.89894158,62c50e9c1127f2cd403a315f,0,161,161,160,1,onetwo,,,,,,,,,,,,,,,,,,,,,,,,,,,,,,,,,,,,,,,,,,,,,,,,,,,,,,,,,,,,,,,,,,,,,,,,,,,,,,,,,,,,,,,,,,,,,,,,,,,,,,,,,,,,,,,,,,,,,,,,,,,,,,,,,,,,,,,,,,,,,,,,,,,,,,,,,,,,,
,,,,,,60cb4f111e27b7ab3656e188,62c539f1710891b46175a7cf,2022-07-06_09h33.06.436,Colour_Asymmetry_Pilot,2022.1.3,Win32,29.89894158,62c50e9c1127f2cd403a315f,,,,,,,space,2.465,space,17.5584,space,43.5395,space,15.7215,space,5.1514,space,7.1121,"[-0.17659999999999998,-0.2864,-0.8354]",twoone,"[0.9842,0.7409999999999999,-0.6628000000000001]",-4,32.3385,-66,93,1,0,0,response7disk_5,-16,4,1,0,0,rectangle_8,-16,4,1,0,0,3,-16,4,1,0,0,0,0,0,0,1,,,,,,,,,,,,,,,,,,,,,,,,,,,,,,,,,,,,,,,,,,,,,,,,,,,,,,,,,,,,,,,,,,,,,,,,,,,,,,,,,,,,,,,,,,,,,,,,,,,,,,,,,,,,,,,,
,,,,,,60cb4f111e27b7ab3656e188,62c539f1710891b46175a7cf,2022-07-06_09h33.06.436,Colour_Asymmetry_Pilot,2022.1.3,Win32,29.89894158,62c50e9c1127f2cd403a315f,,,,,,,,,,,,,,,,,,,"[-0.4276,0.0038000000000000256,-0.3256]",onethree,"[0.0351999999999999,0.41159999999999997,0.0038000000000000256]",-2,19.1891,-68,-60,1,0,0,response5disk_5,-12,-5,1,0,0,rectangle_8,81,41,1,0,0,3,-9,0,1,0,0,1,0,1,0,1,response1disk_7,6,rectangle_4,,,,,,,,,,,,,,,,,,,,,,,,,,,,,,,,,,,,,,,,,,,,,,,,,,,,,,,,,,,,,,,,,,,,,,,,,,,,,,,,,,,,,,,,,,,,,,,,,,,,,,,,,,,,,
,,,,,,60cb4f111e27b7ab3656e188,62c539f1710891b46175a7cf,2022-07-06_09h33.06.436,Colour_Asymmetry_Pilot,2022.1.3,Win32,29.89894158,62c50e9c1127f2cd403a315f,,,,,,,,,,,,,,,,,,,"[-0.01980000000000004,-0.5138,-0.38039999999999996]",onetwo,"[0.12939999999999996,-0.2864,0.3253999999999999]",4,49.2293,33,65,1,0,0,response1disk_5,10,8,1,0,0,rectangle_8,91,43,1,0,0,3,-10,-3,1,0,0,2,0,2,0,1,response1disk_7,6,rectangle_4,,,,,,,,,,,,,,,,,,,,,,,,,,,,,,,,,,,,,,,,,,,,,,,,,,,,,,,,,,,,,,,,,,,,,,,,,,,,,,,,,,,,,,,,,,,,,,,,,,,,,,,,,,,,,
,,,,,,60cb4f111e27b7ab3656e188,62c539f1710891b46175a7cf,2022-07-06_09h33.06.436,Colour_Asymmetry_Pilot,2022.1.3,Win32,29.89894158,62c50e9c1127f2cd403a315f,,,,,,,,,,,,,,,,,,,"[0.8115999999999999,-0.0040000000000000036,-0.09819999999999995]",fourtwo,"[0.7646000000000002,0.07440000000000002,0.2704]",-4,4.7516,-47,72,1,0,0,response7disk_5,-4,14,1,0,0,rectangle_8,-4,14,1,0,0,3,-4,14,1,0,0,3,0,3,0,1,,,,,,,,,,,,,,,,,,,,,,,,,,,,,,,,,,,,,,,,,,,,,,,,,,,,,,,,,,,,,,,,,,,,,,,,,,,,,,,,,,,,,,,,,,,,,,,,,,,,,,,,,,,,,,,,
,,,,,,60cb4f111e27b7ab3656e188,62c539f1710891b46175a7cf,2022-07-06_09h33.06.436,Colour_Asymmetry_Pilot,2022.1.3,Win32,29.89894158,62c50e9c1127f2cd403a315f,,,,,,,,,,,,,,,,,,,"[-0.17659999999999998,0.3253999999999999,0.19999999999999996]",fourtwo,"[-0.0040000000000000036,0.02739999999999987,-0.08239999999999992]",-4,2.1995,-28,73,1,0,0,response7disk_5,-26,6,1,0,0,rectangle_8,-26,6,1,0,0,3,-26,6,1,0,0,4,0,4,0,1,,,,,,,,,,,,,,,,,,,,,,,,,,,,,,,,,,,,,,,,,,,,,,,,,,,,,,,,,,,,,,,,,,,,,,,,,,,,,,,,,,,,,,,,,,,,,,,,,,,,,,,,,,,,,,,,
,,,,,,60cb4f111e27b7ab3656e188,62c539f1710891b46175a7cf,2022-07-06_09h33.06.436,Colour_Asymmetry_Pilot,2022.1.3,Win32,29.89894158,62c50e9c1127f2cd403a315f,,,,,,,,,,,,,,,,,,,"[0.4196,0.4665999999999999,0.3568]",onetwo,"[-0.6235999999999999,-0.6786,-0.08239999999999992]",-4,2.726,-51,75,1,0,0,response7disk_5,-16,2,1,0,0,rectangle_8,-16,2,1,0,0,3,-16,2,1,0,0,5,0,5,0,1,,,,,,,,,,,,,,,,,,,,,,,,,,,,,,,,,,,,,,,,,,,,,,,,,,,,,,,,,,,,,,,,,,,,,,,,,,,,,,,,,,,,,,,,,,,,,,,,,,,,,,,,,,,,,,,,
,,,,,,60cb4f111e27b7ab3656e188,62c539f1710891b46175a7cf,2022-07-06_09h33.06.436,Colour_Asymmetry_Pilot,2022.1.3,Win32,29.89894158,62c50e9c1127f2cd403a315f,,,,,,,,,,,,,,,,,,,"[-0.17659999999999998,0.3253999999999999,0.19999999999999996]",threeone,"[0.40379999999999994,0.09000000000000008,0.44300000000000006]",-4,0.9789,-35,85,1,0,0,response7disk_5,-4,7,1,0,0,rectangle_8,-4,7,1,0,0,3,-4,7,1,0,0,6,0,6,0,1,,,,,,,,,,,,,,,,,,,,,,,,,,,,,,,,,,,,,,,,,,,,,,,,,,,,,,,,,,,,,,,,,,,,,,,,,,,,,,,,,,,,,,,,,,,,,,,,,,,,,,,,,,,,,,,,
,,,,,,60cb4f111e27b7ab3656e188,62c539f1710891b46175a7cf,2022-07-06_09h33.06.436,Colour_Asymmetry_Pilot,2022.1.3,Win32,29.89894158,62c50e9c1127f2cd403a315f,,,,,,,,,,,,,,,,,,,,twoone,,-4,1.6242,,,,,,,,,,,,,,,,,,,,,,,,,,,,,,,,space,7.0307,"[-0.9688,-0.7412000000000001,-0.4902000000000001]","[0.34099999999999997,0.12939999999999996,-0.9766]",-45,83,1,0,0,response7disk,-17,2,1,0,0,rectangle,-17,2,1,0,0,,3,0.0042,0,-17,2,1,0,0,0,0,0,113,1,32,second,,,,,,,,,,,,,,,,,,,,,,,,,,,,,,,,,,,,,,,,,,,,,,,,,,,,,,,,,,,,,,,,,,,,,,,,
,,,,,,60cb4f111e27b7ab3656e188,62c539f1710891b46175a7cf,2022-07-06_09h33.06.436,Colour_Asymmetry_Pilot,2022.1.3,Win32,29.89894158,62c50e9c1127f2cd403a315f,,,,,,,,,,,,,,,,,,,,threefour,,-4,0.6148,,,,,,,,,,,,,,,,,,,,,,,,,,,,,,,,,,"[0.3881999999999999,-0.23939999999999995,-0.05040000000000011]","[0.30180000000000007,-0.7884,-0.9844]",-24,87,1,0,0,response7disk,2,2,1,0,0,rectangle,2,2,1,0,0,,2,0.0021,0,2,2,1,0,0,0,1,1,60,1,60,first,,,,,,,,,,,,,,,,,,,,,,,,,,,,,,,,,,,,,,,,,,,,,,,,,,,,,,,,,,,,,,,,,,,,,,,,
,,,,,,60cb4f111e27b7ab3656e188,62c539f1710891b46175a7cf,2022-07-06_09h33.06.436,Colour_Asymmetry_Pilot,2022.1.3,Win32,29.89894158,62c50e9c1127f2cd403a315f,,,,,,,,,,,,,,,,,,,,fourtwo,,-4,0.6539,,,,,,,,,,,,,,,,,,,,,,,,,,,,,,,,,,"[-0.9688,-0.7412000000000001,-0.4902000000000001]","[0.0351999999999999,0.41159999999999997,0.0038000000000000256]",-35,69,1,0,0,response7disk,-24,9,1,0,0,rectangle,-24,9,1,0,0,,2,0.0006,0,-24,9,1,0,0,0,2,2,7,1,7,first,,,,,,,,,,,,,,,,,,,,,,,,,,,,,,,,,,,,,,,,,,,,,,,,,,,,,,,,,,,,,,,,,,,,,,,,
,,,,,,60cb4f111e27b7ab3656e188,62c539f1710891b46175a7cf,2022-07-06_09h33.06.436,Colour_Asymmetry_Pilot,2022.1.3,Win32,29.89894158,62c50e9c1127f2cd403a315f,,,,,,,,,,,,,,,,,,,,onetwo,,-1,1.413,,,,,,,,,,,,,,,,,,,,,,,,,,,,,,,,,,"[-0.9766,-0.6472,0.07440000000000002]","[-0.9688,-0.7412000000000001,-0.4902000000000001]",-55,-107,1,0,0,response5disk,0,-3,1,0,0,rectangle,0,-3,1,0,0,,3,0.0028,0,0,-3,1,0,0,0,3,3,56,1,56,first,,,,,,,,,,,,,,,,,,,,,,,,,,,,,,,,,,,,,,,,,,,,,,,,,,,,,,,,,,,,,,,,,,,,,,,,
,,,,,,60cb4f111e27b7ab3656e188,62c539f1710891b46175a7cf,2022-07-06_09h33.06.436,Colour_Asymmetry_Pilot,2022.1.3,Win32,29.89894158,62c50e9c1127f2cd403a315f,,,,,,,,,,,,,,,,,,,,threefour,,-2,0.9774,,,,,,,,,,,,,,,,,,,,,,,,,,,,,,,,,,"[-0.9766,-0.6472,0.07440000000000002]","[0.11359999999999992,0.6312,0.5213999999999999]",-71,-61,1,0,0,response5disk,-15,-4,1,0,0,rectangle,-15,-4,1,0,0,,3,0.0007,0,-15,-4,1,0,0,0,4,4,2,1,2,first,,,,,,,,,,,,,,,,,,,,,,,,,,,,,,,,,,,,,,,,,,,,,,,,,,,,,,,,,,,,,,,,,,,,,,,,
,,,,,,60cb4f111e27b7ab3656e188,62c539f1710891b46175a7cf,2022-07-06_09h33.06.436,Colour_Asymmetry_Pilot,2022.1.3,Win32,29.89894158,62c50e9c1127f2cd403a315f,,,,,,,,,,,,,,,,,,,,threefour,,-4,0.5435,,,,,,,,,,,,,,,,,,,,,,,,,,,,,,,,,,"[0.6625999999999999,0.4980000000000002,-0.357]","[-0.26280000000000003,-0.2158,-0.3256]",-45,74,1,0,0,response7disk,-18,10,1,0,0,rectangle,-18,10,1,0,0,,3,0.001,0,-18,10,1,0,0,0,5,5,68,1,68,first,,,,,,,,,,,,,,,,,,,,,,,,,,,,,,,,,,,,,,,,,,,,,,,,,,,,,,,,,,,,,,,,,,,,,,,,
,,,,,,60cb4f111e27b7ab3656e188,62c539f1710891b46175a7cf,2022-07-06_09h33.06.436,Colour_Asymmetry_Pilot,2022.1.3,Win32,29.89894158,62c50e9c1127f2cd403a315f,,,,,,,,,,,,,,,,,,,,threefour,,-4,0.6891,,,,,,,,,,,,,,,,,,,,,,,,,,,,,,,,,,"[0.9763999999999999,0.8588,-0.05900000000000005]","[-0.4902000000000001,0.2704,-0.45899999999999996]",-33,66,1,0,0,response7disk,5,1,1,0,0,rectangle,5,1,1,0,0,,1,0.0021,0,5,1,1,0,0,0,6,6,92,1,11,second,,,,,,,,,,,,,,,,,,,,,,,,,,,,,,,,,,,,,,,,,,,,,,,,,,,,,,,,,,,,,,,,,,,,,,,,
,,,,,,60cb4f111e27b7ab3656e188,62c539f1710891b46175a7cf,2022-07-06_09h33.06.436,Colour_Asymmetry_Pilot,2022.1.3,Win32,29.89894158,62c50e9c1127f2cd403a315f,,,,,,,,,,,,,,,,,,,,fourthree,,-4,0.4715,,,,,,,,,,,,,,,,,,,,,,,,,,,,,,,,,,"[-0.2942,-0.7648,-0.7492000000000001]","[-0.9138,-0.5296000000000001,-0.5529999999999999]",-32,77,1,0,0,response7disk,-16,14,1,0,0,rectangle,-16,14,1,0,0,,2,0.0024,0,-16,14,1,0,0,0,7,7,148,1,67,second,,,,,,,,,,,,,,,,,,,,,,,,,,,,,,,,,,,,,,,,,,,,,,,,,,,,,,,,,,,,,,,,,,,,,,,,
,,,,,,60cb4f111e27b7ab3656e188,62c539f1710891b46175a7cf,2022-07-06_09h33.06.436,Colour_Asymmetry_Pilot,2022.1.3,Win32,29.89894158,62c50e9c1127f2cd403a315f,,,,,,,,,,,,,,,,,,,,threeone,,-2,1.7357,,,,,,,,,,,,,,,,,,,,,,,,,,,,,,,,,,"[0.9372,0.9450000000000001,0.8980000000000001]","[-0.9296,-0.12959999999999994,-0.043199999999999905]",-65,-46,1,0,0,response5disk,-1,-5,1,0,0,rectangle,-1,-5,1,0,0,,1,0.0026,0,-1,-5,1,0,0,0,8,8,48,1,48,first,,,,,,,,,,,,,,,,,,,,,,,,,,,,,,,,,,,,,,,,,,,,,,,,,,,,,,,,,,,,,,,,,,,,,,,,
,,,,,,60cb4f111e27b7ab3656e188,62c539f1710891b46175a7cf,2022-07-06_09h33.06.436,Colour_Asymmetry_Pilot,2022.1.3,Win32,29.89894158,62c50e9c1127f2cd403a315f,,,,,,,,,,,,,,,,,,,,fourtwo,,-2,0.9903,,,,,,,,,,,,,,,,,,,,,,,,,,,,,,,,,,"[-0.8118,-0.8198,-0.5452]","[-0.6706000000000001,-0.6157999999999999,-0.6786]",-82,-29,1,0,0,response5disk,-20,0,1,0,0,rectangle,-20,0,1,0,0,,2,0.0021,0,-20,0,1,0,0,0,9,9,5,1,5,first,,,,,,,,,,,,,,,,,,,,,,,,,,,,,,,,,,,,,,,,,,,,,,,,,,,,,,,,,,,,,,,,,,,,,,,,
,,,,,,60cb4f111e27b7ab3656e188,62c539f1710891b46175a7cf,2022-07-06_09h33.06.436,Colour_Asymmetry_Pilot,2022.1.3,Win32,29.89894158,62c50e9c1127f2cd403a315f,,,,,,,,,,,,,,,,,,,,fourtwo,,-4,0.9876,,,,,,,,,,,,,,,,,,,,,,,,,,,,,,,,,,"[-0.0040000000000000036,0.02739999999999987,-0.08239999999999992]","[-0.5452,-0.608,0.2470000000000001]",-37,71,1,0,0,response7disk,-6,1,1,0,0,rectangle,-6,1,1,0,0,,3,0.0021,0,-6,1,1,0,0,0,10,10,70,1,70,first,,,,,,,,,,,,,,,,,,,,,,,,,,,,,,,,,,,,,,,,,,,,,,,,,,,,,,,,,,,,,,,,,,,,,,,,
,,,,,,60cb4f111e27b7ab3656e188,62c539f1710891b46175a7cf,2022-07-06_09h33.06.436,Colour_Asymmetry_Pilot,2022.1.3,Win32,29.89894158,62c50e9c1127f2cd403a315f,,,,,,,,,,,,,,,,,,,,threeone,,-4,0.6228,,,,,,,,,,,,,,,,,,,,,,,,,,,,,,,,,,"[0.09799999999999986,-0.24719999999999998,0.15280000000000005]","[-0.48240000000000005,0.3175999999999999,0.2156]",-27,64,1,0,0,response7disk,-5,3,1,0,0,rectangle,-5,3,1,0,0,,1,0.002,0,-5,3,1,0,0,0,11,11,45,1,45,first,,,,,,,,,,,,,,,,,,,,,,,,,,,,,,,,,,,,,,,,,,,,,,,,,,,,,,,,,,,,,,,,,,,,,,,,
,,,,,,60cb4f111e27b7ab3656e188,62c539f1710891b46175a7cf,2022-07-06_09h33.06.436,Colour_Asymmetry_Pilot,2022.1.3,Win32,29.89894158,62c50e9c1127f2cd403a315f,,,,,,,,,,,,,,,,,,,,twofour,,-4,0.7589,,,,,,,,,,,,,,,,,,,,,,,,,,,,,,,,,,"[-0.5452,-0.608,0.2470000000000001]","[-0.0040000000000000036,0.02739999999999987,-0.08239999999999992]",-40,75,1,0,0,response7disk,-3,-9,1,0,0,rectangle,-3,-9,1,0,0,,1,0.001,0,-3,-9,1,0,0,0,12,12,151,1,70,second,,,,,,,,,,,,,,,,,,,,,,,,,,,,,,,,,,,,,,,,,,,,,,,,,,,,,,,,,,,,,,,,,,,,,,,,
,,,,,,60cb4f111e27b7ab3656e188,62c539f1710891b46175a7cf,2022-07-06_09h33.06.436,Colour_Asymmetry_Pilot,2022.1.3,Win32,29.89894158,62c50e9c1127f2cd403a315f,,,,,,,,,,,,,,,,,,,,twofour,,-4,1.1942,,,,,,,,,,,,,,,,,,,,,,,,,,,,,,,,,,"[0.5449999999999999,-0.31000000000000005,-0.0354000000000001]","[-0.20799999999999996,-0.655,-0.01980000000000004]",-54,97,1,0,0,response7disk,-5,4,1,0,0,rectangle,-5,4,1,0,0,,1,0.0018,0,-5,4,1,0,0,0,13,13,108,1,27,second,,,,,,,,,,,,,,,,,,,,,,,,,,,,,,,,,,,,,,,,,,,,,,,,,,,,,,,,,,,,,,,,,,,,,,,,
,,,,,,60cb4f111e27b7ab3656e188,62c539f1710891b46175a7cf,2022-07-06_09h33.06.436,Colour_Asymmetry_Pilot,2022.1.3,Win32,29.89894158,62c50e9c1127f2cd403a315f,,,,,,,,,,,,,,,,,,,,fourthree,,-4,0.5047,,,,,,,,,,,,,,,,,,,,,,,,,,,,,,,,,,"[0.9763999999999999,0.30979999999999985,-0.6786]","[-0.4668,-0.8746,-0.2942]",-37,71,1,0,0,response7disk,-5,-2,1,0,0,rectangle,-5,-2,1,0,0,,2,0.0023,0,-5,-2,1,0,0,0,14,14,132,1,51,second,,,,,,,,,,,,,,,,,,,,,,,,,,,,,,,,,,,,,,,,,,,,,,,,,,,,,,,,,,,,,,,,,,,,,,,,
,,,,,,60cb4f111e27b7ab3656e188,62c539f1710891b46175a7cf,2022-07-06_09h33.06.436,Colour_Asymmetry_Pilot,2022.1.3,Win32,29.89894158,62c50e9c1127f2cd403a315f,,,,,,,,,,,,,,,,,,,,twofour,,-1,1.4817,,,,,,,,,,,,,,,,,,,,,,,,,,,,,,,,,,"[0.8115999999999999,-0.0040000000000000036,-0.09819999999999995]","[0.6547999999999998,-0.043199999999999905,-0.011800000000000033]",-50,-92,1,0,0,response5disk,12,1,1,0,0,rectangle,12,1,1,0,0,,1,0.0026,0,12,1,1,0,0,0,15,15,93,1,12,second,,,,,,,,,,,,,,,,,,,,,,,,,,,,,,,,,,,,,,,,,,,,,,,,,,,,,,,,,,,,,,,,,,,,,,,,
,,,,,,60cb4f111e27b7ab3656e188,62c539f1710891b46175a7cf,2022-07-06_09h33.06.436,Colour_Asymmetry_Pilot,2022.1.3,Win32,29.89894158,62c50e9c1127f2cd403a315f,,,,,,,,,,,,,,,,,,,,fourthree,,1,1.5949,,,,,,,,,,,,,,,,,,,,,,,,,,,,,,,,,,"[-0.5452,-0.608,0.2470000000000001]","[-0.4982,-0.2942,-0.0354000000000001]",48,-91,1,0,0,response3disk,-15,7,1,0,0,rectangle,-15,7,1,0,0,,2,0.0021,0,-15,7,1,0,0,0,16,16,135,1,54,second,,,,,,,,,,,,,,,,,,,,,,,,,,,,,,,,,,,,,,,,,,,,,,,,,,,,,,,,,,,,,,,,,,,,,,,,
