trials.thisRepN,trials.thisTrialN,trials.thisN,trials.thisIndex,trials.ran,Colourcodes,participant,session,date,expName,psychopyVersion,OS,frameRate,study_id,trials_4.thisRepN,trials_4.thisTrialN,trials_4.thisN,trials_4.thisIndex,trials_4.ran,StimulusPos,key_resp.keys,key_resp.rt,key_resp_2.keys,key_resp_2.rt,key_resp_15.keys,key_resp_15.rt,key_resp_17.keys,key_resp_17.rt,key_resp_9.keys,key_resp_9.rt,key_resp_10.keys,key_resp_10.rt,Circle1_col,Ecc,Circle2_col,similarity,response_time,mouse_5.x,mouse_5.y,mouse_5.leftButton,mouse_5.midButton,mouse_5.rightButton,mouse_5.clicked_name,mouse_10.x,mouse_10.y,mouse_10.leftButton,mouse_10.midButton,mouse_10.rightButton,mouse_10.clicked_name,mouse_7.x,mouse_7.y,mouse_7.leftButton,mouse_7.midButton,mouse_7.rightButton,catchnumberprac,mouse_6.x,mouse_6.y,mouse_6.leftButton,mouse_6.midButton,mouse_6.rightButton,duringprac.thisRepN,duringprac.thisTrialN,duringprac.thisN,duringprac.thisIndex,duringprac.ran,mouse_7.clicked_name,catchprac,mouse_6.clicked_name,key_resp_22.keys,key_resp_22.rt,Circle1_colour,Circle2_colour,mouse.x,mouse.y,mouse.leftButton,mouse.midButton,mouse.rightButton,mouse.clicked_name,mouse_2.x,mouse_2.y,mouse_2.leftButton,mouse_2.midButton,mouse_2.rightButton,mouse_2.clicked_name,mouse_3.x,mouse_3.y,mouse_3.leftButton,mouse_3.midButton,mouse_3.rightButton,catchresponse,catchnumber,response_time_catch,Catch,mouse_11.x,mouse_11.y,mouse_11.leftButton,mouse_11.midButton,mouse_11.rightButton,trials_2.thisRepN,trials_2.thisTrialN,trials_2.thisN,trials_2.thisIndex,trials_2.ran,Colourpair,Temporder,mouse_3.clicked_name,mouse_11.clicked_name,trials_3.thisRepN,trials_3.thisTrialN,trials_3.thisN,trials_3.thisIndex,trials_3.ran,key_resp_instr_Ishi.keys,key_resp_instr_Ishi.rt,Ishi_trial_keyresp.keys,Ishi_textbox.text,Ishi_mouse.x,Ishi_mouse.y,Ishi_mouse.leftButton,Ishi_mouse.midButton,Ishi_mouse.rightButton,Ishi_mouse.clicked_name,Ishi_loop.thisRepN,Ishi_loop.thisTrialN,Ishi_loop.thisN,Ishi_loop.thisIndex,Ishi_loop.ran,imageaddress,textbox.text,mouse_4.x,mouse_4.y,mouse_4.leftButton,mouse_4.midButton,mouse_4.rightButton,mouse_4.clicked_name,textbox_2.text,mouse_8.x,mouse_8.y,mouse_8.leftButton,mouse_8.midButton,mouse_8.rightButton,mouse_8.clicked_name,textbox_3.text,mouse_9.x,mouse_9.y,mouse_9.leftButton,mouse_9.midButton,mouse_9.rightButton,mouse_9.clicked_name,textbox_4.text,mouse_12.x,mouse_12.y,mouse_12.leftButton,mouse_12.midButton,mouse_12.rightButton,mouse_12.clicked_name,textbox_5.text,mouse_13.x,mouse_13.y,mouse_13.leftButton,mouse_13.midButton,mouse_13.rightButton,mouse_13.clicked_name,textbox_6.text,mouse_14.x,mouse_14.y,mouse_14.leftButton,mouse_14.midButton,mouse_14.rightButton,textbox_7.text,mouse_15.x,mouse_15.y,mouse_15.leftButton,mouse_15.midButton,mouse_15.rightButton,mouse_15.clicked_name
0,0,0,53,1,,6159f6b637bab134ea9bb92e,62c539d607160c13dfb487c9,2022-07-06_09h31.38.956,Colour_Asymmetry_Pilot,2022.1.3,Win32,70.60650992,62c50e9c1127f2cd403a315f,,,,,,,,,,,,,,,,,,,,,,,,,,,,,,,,,,,,,,,,,,,,,,,,,,,,,,,,,,,,,,,,,,,,,,,,,,,,,,,,,,,,,,,,,,,,,,,,,,,,,,,,,,,,,,,,,,,,,,,,,,,,,,,,,,,,,,,,,,,,,,,,,,,,,,,,,,,,,,,,,,
0,1,1,12,1,,6159f6b637bab134ea9bb92e,62c539d607160c13dfb487c9,2022-07-06_09h31.38.956,Colour_Asymmetry_Pilot,2022.1.3,Win32,70.60650992,62c50e9c1127f2cd403a315f,,,,,,,,,,,,,,,,,,,,,,,,,,,,,,,,,,,,,,,,,,,,,,,,,,,,,,,,,,,,,,,,,,,,,,,,,,,,,,,,,,,,,,,,,,,,,,,,,,,,,,,,,,,,,,,,,,,,,,,,,,,,,,,,,,,,,,,,,,,,,,,,,,,,,,,,,,,,,,,,,,
0,2,2,54,1,,6159f6b637bab134ea9bb92e,62c539d607160c13dfb487c9,2022-07-06_09h31.38.956,Colour_Asymmetry_Pilot,2022.1.3,Win32,70.60650992,62c50e9c1127f2cd403a315f,,,,,,,,,,,,,,,,,,,,,,,,,,,,,,,,,,,,,,,,,,,,,,,,,,,,,,,,,,,,,,,,,,,,,,,,,,,,,,,,,,,,,,,,,,,,,,,,,,,,,,,,,,,,,,,,,,,,,,,,,,,,,,,,,,,,,,,,,,,,,,,,,,,,,,,,,,,,,,,,,,
0,3,3,11,1,,6159f6b637bab134ea9bb92e,62c539d607160c13dfb487c9,2022-07-06_09h31.38.956,Colour_Asymmetry_Pilot,2022.1.3,Win32,70.60650992,62c50e9c1127f2cd403a315f,,,,,,,,,,,,,,,,,,,,,,,,,,,,,,,,,,,,,,,,,,,,,,,,,,,,,,,,,,,,,,,,,,,,,,,,,,,,,,,,,,,,,,,,,,,,,,,,,,,,,,,,,,,,,,,,,,,,,,,,,,,,,,,,,,,,,,,,,,,,,,,,,,,,,,,,,,,,,,,,,,
0,4,4,21,1,,6159f6b637bab134ea9bb92e,62c539d607160c13dfb487c9,2022-07-06_09h31.38.956,Colour_Asymmetry_Pilot,2022.1.3,Win32,70.60650992,62c50e9c1127f2cd403a315f,,,,,,,,,,,,,,,,,,,,,,,,,,,,,,,,,,,,,,,,,,,,,,,,,,,,,,,,,,,,,,,,,,,,,,,,,,,,,,,,,,,,,,,,,,,,,,,,,,,,,,,,,,,,,,,,,,,,,,,,,,,,,,,,,,,,,,,,,,,,,,,,,,,,,,,,,,,,,,,,,,
0,5,5,57,1,,6159f6b637bab134ea9bb92e,62c539d607160c13dfb487c9,2022-07-06_09h31.38.956,Colour_Asymmetry_Pilot,2022.1.3,Win32,70.60650992,62c50e9c1127f2cd403a315f,,,,,,,,,,,,,,,,,,,,,,,,,,,,,,,,,,,,,,,,,,,,,,,,,,,,,,,,,,,,,,,,,,,,,,,,,,,,,,,,,,,,,,,,,,,,,,,,,,,,,,,,,,,,,,,,,,,,,,,,,,,,,,,,,,,,,,,,,,,,,,,,,,,,,,,,,,,,,,,,,,
0,6,6,92,1,,6159f6b637bab134ea9bb92e,62c539d607160c13dfb487c9,2022-07-06_09h31.38.956,Colour_Asymmetry_Pilot,2022.1.3,Win32,70.60650992,62c50e9c1127f2cd403a315f,,,,,,,,,,,,,,,,,,,,,,,,,,,,,,,,,,,,,,,,,,,,,,,,,,,,,,,,,,,,,,,,,,,,,,,,,,,,,,,,,,,,,,,,,,,,,,,,,,,,,,,,,,,,,,,,,,,,,,,,,,,,,,,,,,,,,,,,,,,,,,,,,,,,,,,,,,,,,,,,,,
0,7,7,52,1,,6159f6b637bab134ea9bb92e,62c539d607160c13dfb487c9,2022-07-06_09h31.38.956,Colour_Asymmetry_Pilot,2022.1.3,Win32,70.60650992,62c50e9c1127f2cd403a315f,,,,,,,,,,,,,,,,,,,,,,,,,,,,,,,,,,,,,,,,,,,,,,,,,,,,,,,,,,,,,,,,,,,,,,,,,,,,,,,,,,,,,,,,,,,,,,,,,,,,,,,,,,,,,,,,,,,,,,,,,,,,,,,,,,,,,,,,,,,,,,,,,,,,,,,,,,,,,,,,,,
0,8,8,29,1,,6159f6b637bab134ea9bb92e,62c539d607160c13dfb487c9,2022-07-06_09h31.38.956,Colour_Asymmetry_Pilot,2022.1.3,Win32,70.60650992,62c50e9c1127f2cd403a315f,,,,,,,,,,,,,,,,,,,,,,,,,,,,,,,,,,,,,,,,,,,,,,,,,,,,,,,,,,,,,,,,,,,,,,,,,,,,,,,,,,,,,,,,,,,,,,,,,,,,,,,,,,,,,,,,,,,,,,,,,,,,,,,,,,,,,,,,,,,,,,,,,,,,,,,,,,,,,,,,,,
0,9,9,76,1,,6159f6b637bab134ea9bb92e,62c539d607160c13dfb487c9,2022-07-06_09h31.38.956,Colour_Asymmetry_Pilot,2022.1.3,Win32,70.60650992,62c50e9c1127f2cd403a315f,,,,,,,,,,,,,,,,,,,,,,,,,,,,,,,,,,,,,,,,,,,,,,,,,,,,,,,,,,,,,,,,,,,,,,,,,,,,,,,,,,,,,,,,,,,,,,,,,,,,,,,,,,,,,,,,,,,,,,,,,,,,,,,,,,,,,,,,,,,,,,,,,,,,,,,,,,,,,,,,,,
0,10,10,50,1,,6159f6b637bab134ea9bb92e,62c539d607160c13dfb487c9,2022-07-06_09h31.38.956,Colour_Asymmetry_Pilot,2022.1.3,Win32,70.60650992,62c50e9c1127f2cd403a315f,,,,,,,,,,,,,,,,,,,,,,,,,,,,,,,,,,,,,,,,,,,,,,,,,,,,,,,,,,,,,,,,,,,,,,,,,,,,,,,,,,,,,,,,,,,,,,,,,,,,,,,,,,,,,,,,,,,,,,,,,,,,,,,,,,,,,,,,,,,,,,,,,,,,,,,,,,,,,,,,,,
0,11,11,55,1,,6159f6b637bab134ea9bb92e,62c539d607160c13dfb487c9,2022-07-06_09h31.38.956,Colour_Asymmetry_Pilot,2022.1.3,Win32,70.60650992,62c50e9c1127f2cd403a315f,,,,,,,,,,,,,,,,,,,,,,,,,,,,,,,,,,,,,,,,,,,,,,,,,,,,,,,,,,,,,,,,,,,,,,,,,,,,,,,,,,,,,,,,,,,,,,,,,,,,,,,,,,,,,,,,,,,,,,,,,,,,,,,,,,,,,,,,,,,,,,,,,,,,,,,,,,,,,,,,,,
0,12,12,73,1,,6159f6b637bab134ea9bb92e,62c539d607160c13dfb487c9,2022-07-06_09h31.38.956,Colour_Asymmetry_Pilot,2022.1.3,Win32,70.60650992,62c50e9c1127f2cd403a315f,,,,,,,,,,,,,,,,,,,,,,,,,,,,,,,,,,,,,,,,,,,,,,,,,,,,,,,,,,,,,,,,,,,,,,,,,,,,,,,,,,,,,,,,,,,,,,,,,,,,,,,,,,,,,,,,,,,,,,,,,,,,,,,,,,,,,,,,,,,,,,,,,,,,,,,,,,,,,,,,,,
0,13,13,20,1,,6159f6b637bab134ea9bb92e,62c539d607160c13dfb487c9,2022-07-06_09h31.38.956,Colour_Asymmetry_Pilot,2022.1.3,Win32,70.60650992,62c50e9c1127f2cd403a315f,,,,,,,,,,,,,,,,,,,,,,,,,,,,,,,,,,,,,,,,,,,,,,,,,,,,,,,,,,,,,,,,,,,,,,,,,,,,,,,,,,,,,,,,,,,,,,,,,,,,,,,,,,,,,,,,,,,,,,,,,,,,,,,,,,,,,,,,,,,,,,,,,,,,,,,,,,,,,,,,,,
0,14,14,82,1,,6159f6b637bab134ea9bb92e,62c539d607160c13dfb487c9,2022-07-06_09h31.38.956,Colour_Asymmetry_Pilot,2022.1.3,Win32,70.60650992,62c50e9c1127f2cd403a315f,,,,,,,,,,,,,,,,,,,,,,,,,,,,,,,,,,,,,,,,,,,,,,,,,,,,,,,,,,,,,,,,,,,,,,,,,,,,,,,,,,,,,,,,,,,,,,,,,,,,,,,,,,,,,,,,,,,,,,,,,,,,,,,,,,,,,,,,,,,,,,,,,,,,,,,,,,,,,,,,,,
0,15,15,33,1,,6159f6b637bab134ea9bb92e,62c539d607160c13dfb487c9,2022-07-06_09h31.38.956,Colour_Asymmetry_Pilot,2022.1.3,Win32,70.60650992,62c50e9c1127f2cd403a315f,,,,,,,,,,,,,,,,,,,,,,,,,,,,,,,,,,,,,,,,,,,,,,,,,,,,,,,,,,,,,,,,,,,,,,,,,,,,,,,,,,,,,,,,,,,,,,,,,,,,,,,,,,,,,,,,,,,,,,,,,,,,,,,,,,,,,,,,,,,,,,,,,,,,,,,,,,,,,,,,,,
0,16,16,63,1,,6159f6b637bab134ea9bb92e,62c539d607160c13dfb487c9,2022-07-06_09h31.38.956,Colour_Asymmetry_Pilot,2022.1.3,Win32,70.60650992,62c50e9c1127f2cd403a315f,,,,,,,,,,,,,,,,,,,,,,,,,,,,,,,,,,,,,,,,,,,,,,,,,,,,,,,,,,,,,,,,,,,,,,,,,,,,,,,,,,,,,,,,,,,,,,,,,,,,,,,,,,,,,,,,,,,,,,,,,,,,,,,,,,,,,,,,,,,,,,,,,,,,,,,,,,,,,,,,,,
0,17,17,3,1,,6159f6b637bab134ea9bb92e,62c539d607160c13dfb487c9,2022-07-06_09h31.38.956,Colour_Asymmetry_Pilot,2022.1.3,Win32,70.60650992,62c50e9c1127f2cd403a315f,,,,,,,,,,,,,,,,,,,,,,,,,,,,,,,,,,,,,,,,,,,,,,,,,,,,,,,,,,,,,,,,,,,,,,,,,,,,,,,,,,,,,,,,,,,,,,,,,,,,,,,,,,,,,,,,,,,,,,,,,,,,,,,,,,,,,,,,,,,,,,,,,,,,,,,,,,,,,,,,,,
0,18,18,91,1,,6159f6b637bab134ea9bb92e,62c539d607160c13dfb487c9,2022-07-06_09h31.38.956,Colour_Asymmetry_Pilot,2022.1.3,Win32,70.60650992,62c50e9c1127f2cd403a315f,,,,,,,,,,,,,,,,,,,,,,,,,,,,,,,,,,,,,,,,,,,,,,,,,,,,,,,,,,,,,,,,,,,,,,,,,,,,,,,,,,,,,,,,,,,,,,,,,,,,,,,,,,,,,,,,,,,,,,,,,,,,,,,,,,,,,,,,,,,,,,,,,,,,,,,,,,,,,,,,,,
0,19,19,62,1,,6159f6b637bab134ea9bb92e,62c539d607160c13dfb487c9,2022-07-06_09h31.38.956,Colour_Asymmetry_Pilot,2022.1.3,Win32,70.60650992,62c50e9c1127f2cd403a315f,,,,,,,,,,,,,,,,,,,,,,,,,,,,,,,,,,,,,,,,,,,,,,,,,,,,,,,,,,,,,,,,,,,,,,,,,,,,,,,,,,,,,,,,,,,,,,,,,,,,,,,,,,,,,,,,,,,,,,,,,,,,,,,,,,,,,,,,,,,,,,,,,,,,,,,,,,,,,,,,,,
0,20,20,35,1,,6159f6b637bab134ea9bb92e,62c539d607160c13dfb487c9,2022-07-06_09h31.38.956,Colour_Asymmetry_Pilot,2022.1.3,Win32,70.60650992,62c50e9c1127f2cd403a315f,,,,,,,,,,,,,,,,,,,,,,,,,,,,,,,,,,,,,,,,,,,,,,,,,,,,,,,,,,,,,,,,,,,,,,,,,,,,,,,,,,,,,,,,,,,,,,,,,,,,,,,,,,,,,,,,,,,,,,,,,,,,,,,,,,,,,,,,,,,,,,,,,,,,,,,,,,,,,,,,,,
0,21,21,0,1,,6159f6b637bab134ea9bb92e,62c539d607160c13dfb487c9,2022-07-06_09h31.38.956,Colour_Asymmetry_Pilot,2022.1.3,Win32,70.60650992,62c50e9c1127f2cd403a315f,,,,,,,,,,,,,,,,,,,,,,,,,,,,,,,,,,,,,,,,,,,,,,,,,,,,,,,,,,,,,,,,,,,,,,,,,,,,,,,,,,,,,,,,,,,,,,,,,,,,,,,,,,,,,,,,,,,,,,,,,,,,,,,,,,,,,,,,,,,,,,,,,,,,,,,,,,,,,,,,,,
0,22,22,85,1,,6159f6b637bab134ea9bb92e,62c539d607160c13dfb487c9,2022-07-06_09h31.38.956,Colour_Asymmetry_Pilot,2022.1.3,Win32,70.60650992,62c50e9c1127f2cd403a315f,,,,,,,,,,,,,,,,,,,,,,,,,,,,,,,,,,,,,,,,,,,,,,,,,,,,,,,,,,,,,,,,,,,,,,,,,,,,,,,,,,,,,,,,,,,,,,,,,,,,,,,,,,,,,,,,,,,,,,,,,,,,,,,,,,,,,,,,,,,,,,,,,,,,,,,,,,,,,,,,,,
0,23,23,2,1,,6159f6b637bab134ea9bb92e,62c539d607160c13dfb487c9,2022-07-06_09h31.38.956,Colour_Asymmetry_Pilot,2022.1.3,Win32,70.60650992,62c50e9c1127f2cd403a315f,,,,,,,,,,,,,,,,,,,,,,,,,,,,,,,,,,,,,,,,,,,,,,,,,,,,,,,,,,,,,,,,,,,,,,,,,,,,,,,,,,,,,,,,,,,,,,,,,,,,,,,,,,,,,,,,,,,,,,,,,,,,,,,,,,,,,,,,,,,,,,,,,,,,,,,,,,,,,,,,,,
0,24,24,10,1,,6159f6b637bab134ea9bb92e,62c539d607160c13dfb487c9,2022-07-06_09h31.38.956,Colour_Asymmetry_Pilot,2022.1.3,Win32,70.60650992,62c50e9c1127f2cd403a315f,,,,,,,,,,,,,,,,,,,,,,,,,,,,,,,,,,,,,,,,,,,,,,,,,,,,,,,,,,,,,,,,,,,,,,,,,,,,,,,,,,,,,,,,,,,,,,,,,,,,,,,,,,,,,,,,,,,,,,,,,,,,,,,,,,,,,,,,,,,,,,,,,,,,,,,,,,,,,,,,,,
0,25,25,44,1,,6159f6b637bab134ea9bb92e,62c539d607160c13dfb487c9,2022-07-06_09h31.38.956,Colour_Asymmetry_Pilot,2022.1.3,Win32,70.60650992,62c50e9c1127f2cd403a315f,,,,,,,,,,,,,,,,,,,,,,,,,,,,,,,,,,,,,,,,,,,,,,,,,,,,,,,,,,,,,,,,,,,,,,,,,,,,,,,,,,,,,,,,,,,,,,,,,,,,,,,,,,,,,,,,,,,,,,,,,,,,,,,,,,,,,,,,,,,,,,,,,,,,,,,,,,,,,,,,,,
0,26,26,59,1,,6159f6b637bab134ea9bb92e,62c539d607160c13dfb487c9,2022-07-06_09h31.38.956,Colour_Asymmetry_Pilot,2022.1.3,Win32,70.60650992,62c50e9c1127f2cd403a315f,,,,,,,,,,,,,,,,,,,,,,,,,,,,,,,,,,,,,,,,,,,,,,,,,,,,,,,,,,,,,,,,,,,,,,,,,,,,,,,,,,,,,,,,,,,,,,,,,,,,,,,,,,,,,,,,,,,,,,,,,,,,,,,,,,,,,,,,,,,,,,,,,,,,,,,,,,,,,,,,,,
0,27,27,15,1,,6159f6b637bab134ea9bb92e,62c539d607160c13dfb487c9,2022-07-06_09h31.38.956,Colour_Asymmetry_Pilot,2022.1.3,Win32,70.60650992,62c50e9c1127f2cd403a315f,,,,,,,,,,,,,,,,,,,,,,,,,,,,,,,,,,,,,,,,,,,,,,,,,,,,,,,,,,,,,,,,,,,,,,,,,,,,,,,,,,,,,,,,,,,,,,,,,,,,,,,,,,,,,,,,,,,,,,,,,,,,,,,,,,,,,,,,,,,,,,,,,,,,,,,,,,,,,,,,,,
0,28,28,86,1,,6159f6b637bab134ea9bb92e,62c539d607160c13dfb487c9,2022-07-06_09h31.38.956,Colour_Asymmetry_Pilot,2022.1.3,Win32,70.60650992,62c50e9c1127f2cd403a315f,,,,,,,,,,,,,,,,,,,,,,,,,,,,,,,,,,,,,,,,,,,,,,,,,,,,,,,,,,,,,,,,,,,,,,,,,,,,,,,,,,,,,,,,,,,,,,,,,,,,,,,,,,,,,,,,,,,,,,,,,,,,,,,,,,,,,,,,,,,,,,,,,,,,,,,,,,,,,,,,,,
0,29,29,25,1,,6159f6b637bab134ea9bb92e,62c539d607160c13dfb487c9,2022-07-06_09h31.38.956,Colour_Asymmetry_Pilot,2022.1.3,Win32,70.60650992,62c50e9c1127f2cd403a315f,,,,,,,,,,,,,,,,,,,,,,,,,,,,,,,,,,,,,,,,,,,,,,,,,,,,,,,,,,,,,,,,,,,,,,,,,,,,,,,,,,,,,,,,,,,,,,,,,,,,,,,,,,,,,,,,,,,,,,,,,,,,,,,,,,,,,,,,,,,,,,,,,,,,,,,,,,,,,,,,,,
0,30,30,69,1,,6159f6b637bab134ea9bb92e,62c539d607160c13dfb487c9,2022-07-06_09h31.38.956,Colour_Asymmetry_Pilot,2022.1.3,Win32,70.60650992,62c50e9c1127f2cd403a315f,,,,,,,,,,,,,,,,,,,,,,,,,,,,,,,,,,,,,,,,,,,,,,,,,,,,,,,,,,,,,,,,,,,,,,,,,,,,,,,,,,,,,,,,,,,,,,,,,,,,,,,,,,,,,,,,,,,,,,,,,,,,,,,,,,,,,,,,,,,,,,,,,,,,,,,,,,,,,,,,,,
0,31,31,6,1,,6159f6b637bab134ea9bb92e,62c539d607160c13dfb487c9,2022-07-06_09h31.38.956,Colour_Asymmetry_Pilot,2022.1.3,Win32,70.60650992,62c50e9c1127f2cd403a315f,,,,,,,,,,,,,,,,,,,,,,,,,,,,,,,,,,,,,,,,,,,,,,,,,,,,,,,,,,,,,,,,,,,,,,,,,,,,,,,,,,,,,,,,,,,,,,,,,,,,,,,,,,,,,,,,,,,,,,,,,,,,,,,,,,,,,,,,,,,,,,,,,,,,,,,,,,,,,,,,,,
0,32,32,4,1,,6159f6b637bab134ea9bb92e,62c539d607160c13dfb487c9,2022-07-06_09h31.38.956,Colour_Asymmetry_Pilot,2022.1.3,Win32,70.60650992,62c50e9c1127f2cd403a315f,,,,,,,,,,,,,,,,,,,,,,,,,,,,,,,,,,,,,,,,,,,,,,,,,,,,,,,,,,,,,,,,,,,,,,,,,,,,,,,,,,,,,,,,,,,,,,,,,,,,,,,,,,,,,,,,,,,,,,,,,,,,,,,,,,,,,,,,,,,,,,,,,,,,,,,,,,,,,,,,,,
0,33,33,70,1,,6159f6b637bab134ea9bb92e,62c539d607160c13dfb487c9,2022-07-06_09h31.38.956,Colour_Asymmetry_Pilot,2022.1.3,Win32,70.60650992,62c50e9c1127f2cd403a315f,,,,,,,,,,,,,,,,,,,,,,,,,,,,,,,,,,,,,,,,,,,,,,,,,,,,,,,,,,,,,,,,,,,,,,,,,,,,,,,,,,,,,,,,,,,,,,,,,,,,,,,,,,,,,,,,,,,,,,,,,,,,,,,,,,,,,,,,,,,,,,,,,,,,,,,,,,,,,,,,,,
0,34,34,28,1,,6159f6b637bab134ea9bb92e,62c539d607160c13dfb487c9,2022-07-06_09h31.38.956,Colour_Asymmetry_Pilot,2022.1.3,Win32,70.60650992,62c50e9c1127f2cd403a315f,,,,,,,,,,,,,,,,,,,,,,,,,,,,,,,,,,,,,,,,,,,,,,,,,,,,,,,,,,,,,,,,,,,,,,,,,,,,,,,,,,,,,,,,,,,,,,,,,,,,,,,,,,,,,,,,,,,,,,,,,,,,,,,,,,,,,,,,,,,,,,,,,,,,,,,,,,,,,,,,,,
0,35,35,58,1,,6159f6b637bab134ea9bb92e,62c539d607160c13dfb487c9,2022-07-06_09h31.38.956,Colour_Asymmetry_Pilot,2022.1.3,Win32,70.60650992,62c50e9c1127f2cd403a315f,,,,,,,,,,,,,,,,,,,,,,,,,,,,,,,,,,,,,,,,,,,,,,,,,,,,,,,,,,,,,,,,,,,,,,,,,,,,,,,,,,,,,,,,,,,,,,,,,,,,,,,,,,,,,,,,,,,,,,,,,,,,,,,,,,,,,,,,,,,,,,,,,,,,,,,,,,,,,,,,,,
0,36,36,56,1,,6159f6b637bab134ea9bb92e,62c539d607160c13dfb487c9,2022-07-06_09h31.38.956,Colour_Asymmetry_Pilot,2022.1.3,Win32,70.60650992,62c50e9c1127f2cd403a315f,,,,,,,,,,,,,,,,,,,,,,,,,,,,,,,,,,,,,,,,,,,,,,,,,,,,,,,,,,,,,,,,,,,,,,,,,,,,,,,,,,,,,,,,,,,,,,,,,,,,,,,,,,,,,,,,,,,,,,,,,,,,,,,,,,,,,,,,,,,,,,,,,,,,,,,,,,,,,,,,,,
0,37,37,75,1,,6159f6b637bab134ea9bb92e,62c539d607160c13dfb487c9,2022-07-06_09h31.38.956,Colour_Asymmetry_Pilot,2022.1.3,Win32,70.60650992,62c50e9c1127f2cd403a315f,,,,,,,,,,,,,,,,,,,,,,,,,,,,,,,,,,,,,,,,,,,,,,,,,,,,,,,,,,,,,,,,,,,,,,,,,,,,,,,,,,,,,,,,,,,,,,,,,,,,,,,,,,,,,,,,,,,,,,,,,,,,,,,,,,,,,,,,,,,,,,,,,,,,,,,,,,,,,,,,,,
0,38,38,78,1,,6159f6b637bab134ea9bb92e,62c539d607160c13dfb487c9,2022-07-06_09h31.38.956,Colour_Asymmetry_Pilot,2022.1.3,Win32,70.60650992,62c50e9c1127f2cd403a315f,,,,,,,,,,,,,,,,,,,,,,,,,,,,,,,,,,,,,,,,,,,,,,,,,,,,,,,,,,,,,,,,,,,,,,,,,,,,,,,,,,,,,,,,,,,,,,,,,,,,,,,,,,,,,,,,,,,,,,,,,,,,,,,,,,,,,,,,,,,,,,,,,,,,,,,,,,,,,,,,,,
0,39,39,68,1,,6159f6b637bab134ea9bb92e,62c539d607160c13dfb487c9,2022-07-06_09h31.38.956,Colour_Asymmetry_Pilot,2022.1.3,Win32,70.60650992,62c50e9c1127f2cd403a315f,,,,,,,,,,,,,,,,,,,,,,,,,,,,,,,,,,,,,,,,,,,,,,,,,,,,,,,,,,,,,,,,,,,,,,,,,,,,,,,,,,,,,,,,,,,,,,,,,,,,,,,,,,,,,,,,,,,,,,,,,,,,,,,,,,,,,,,,,,,,,,,,,,,,,,,,,,,,,,,,,,
0,40,40,61,1,,6159f6b637bab134ea9bb92e,62c539d607160c13dfb487c9,2022-07-06_09h31.38.956,Colour_Asymmetry_Pilot,2022.1.3,Win32,70.60650992,62c50e9c1127f2cd403a315f,,,,,,,,,,,,,,,,,,,,,,,,,,,,,,,,,,,,,,,,,,,,,,,,,,,,,,,,,,,,,,,,,,,,,,,,,,,,,,,,,,,,,,,,,,,,,,,,,,,,,,,,,,,,,,,,,,,,,,,,,,,,,,,,,,,,,,,,,,,,,,,,,,,,,,,,,,,,,,,,,,
0,41,41,64,1,,6159f6b637bab134ea9bb92e,62c539d607160c13dfb487c9,2022-07-06_09h31.38.956,Colour_Asymmetry_Pilot,2022.1.3,Win32,70.60650992,62c50e9c1127f2cd403a315f,,,,,,,,,,,,,,,,,,,,,,,,,,,,,,,,,,,,,,,,,,,,,,,,,,,,,,,,,,,,,,,,,,,,,,,,,,,,,,,,,,,,,,,,,,,,,,,,,,,,,,,,,,,,,,,,,,,,,,,,,,,,,,,,,,,,,,,,,,,,,,,,,,,,,,,,,,,,,,,,,,
0,42,42,30,1,,6159f6b637bab134ea9bb92e,62c539d607160c13dfb487c9,2022-07-06_09h31.38.956,Colour_Asymmetry_Pilot,2022.1.3,Win32,70.60650992,62c50e9c1127f2cd403a315f,,,,,,,,,,,,,,,,,,,,,,,,,,,,,,,,,,,,,,,,,,,,,,,,,,,,,,,,,,,,,,,,,,,,,,,,,,,,,,,,,,,,,,,,,,,,,,,,,,,,,,,,,,,,,,,,,,,,,,,,,,,,,,,,,,,,,,,,,,,,,,,,,,,,,,,,,,,,,,,,,,
0,43,43,66,1,,6159f6b637bab134ea9bb92e,62c539d607160c13dfb487c9,2022-07-06_09h31.38.956,Colour_Asymmetry_Pilot,2022.1.3,Win32,70.60650992,62c50e9c1127f2cd403a315f,,,,,,,,,,,,,,,,,,,,,,,,,,,,,,,,,,,,,,,,,,,,,,,,,,,,,,,,,,,,,,,,,,,,,,,,,,,,,,,,,,,,,,,,,,,,,,,,,,,,,,,,,,,,,,,,,,,,,,,,,,,,,,,,,,,,,,,,,,,,,,,,,,,,,,,,,,,,,,,,,,
0,44,44,17,1,,6159f6b637bab134ea9bb92e,62c539d607160c13dfb487c9,2022-07-06_09h31.38.956,Colour_Asymmetry_Pilot,2022.1.3,Win32,70.60650992,62c50e9c1127f2cd403a315f,,,,,,,,,,,,,,,,,,,,,,,,,,,,,,,,,,,,,,,,,,,,,,,,,,,,,,,,,,,,,,,,,,,,,,,,,,,,,,,,,,,,,,,,,,,,,,,,,,,,,,,,,,,,,,,,,,,,,,,,,,,,,,,,,,,,,,,,,,,,,,,,,,,,,,,,,,,,,,,,,,
0,45,45,27,1,,6159f6b637bab134ea9bb92e,62c539d607160c13dfb487c9,2022-07-06_09h31.38.956,Colour_Asymmetry_Pilot,2022.1.3,Win32,70.60650992,62c50e9c1127f2cd403a315f,,,,,,,,,,,,,,,,,,,,,,,,,,,,,,,,,,,,,,,,,,,,,,,,,,,,,,,,,,,,,,,,,,,,,,,,,,,,,,,,,,,,,,,,,,,,,,,,,,,,,,,,,,,,,,,,,,,,,,,,,,,,,,,,,,,,,,,,,,,,,,,,,,,,,,,,,,,,,,,,,,
0,46,46,19,1,,6159f6b637bab134ea9bb92e,62c539d607160c13dfb487c9,2022-07-06_09h31.38.956,Colour_Asymmetry_Pilot,2022.1.3,Win32,70.60650992,62c50e9c1127f2cd403a315f,,,,,,,,,,,,,,,,,,,,,,,,,,,,,,,,,,,,,,,,,,,,,,,,,,,,,,,,,,,,,,,,,,,,,,,,,,,,,,,,,,,,,,,,,,,,,,,,,,,,,,,,,,,,,,,,,,,,,,,,,,,,,,,,,,,,,,,,,,,,,,,,,,,,,,,,,,,,,,,,,,
0,47,47,8,1,,6159f6b637bab134ea9bb92e,62c539d607160c13dfb487c9,2022-07-06_09h31.38.956,Colour_Asymmetry_Pilot,2022.1.3,Win32,70.60650992,62c50e9c1127f2cd403a315f,,,,,,,,,,,,,,,,,,,,,,,,,,,,,,,,,,,,,,,,,,,,,,,,,,,,,,,,,,,,,,,,,,,,,,,,,,,,,,,,,,,,,,,,,,,,,,,,,,,,,,,,,,,,,,,,,,,,,,,,,,,,,,,,,,,,,,,,,,,,,,,,,,,,,,,,,,,,,,,,,,
0,48,48,81,1,,6159f6b637bab134ea9bb92e,62c539d607160c13dfb487c9,2022-07-06_09h31.38.956,Colour_Asymmetry_Pilot,2022.1.3,Win32,70.60650992,62c50e9c1127f2cd403a315f,,,,,,,,,,,,,,,,,,,,,,,,,,,,,,,,,,,,,,,,,,,,,,,,,,,,,,,,,,,,,,,,,,,,,,,,,,,,,,,,,,,,,,,,,,,,,,,,,,,,,,,,,,,,,,,,,,,,,,,,,,,,,,,,,,,,,,,,,,,,,,,,,,,,,,,,,,,,,,,,,,
0,49,49,24,1,,6159f6b637bab134ea9bb92e,62c539d607160c13dfb487c9,2022-07-06_09h31.38.956,Colour_Asymmetry_Pilot,2022.1.3,Win32,70.60650992,62c50e9c1127f2cd403a315f,,,,,,,,,,,,,,,,,,,,,,,,,,,,,,,,,,,,,,,,,,,,,,,,,,,,,,,,,,,,,,,,,,,,,,,,,,,,,,,,,,,,,,,,,,,,,,,,,,,,,,,,,,,,,,,,,,,,,,,,,,,,,,,,,,,,,,,,,,,,,,,,,,,,,,,,,,,,,,,,,,
0,50,50,67,1,,6159f6b637bab134ea9bb92e,62c539d607160c13dfb487c9,2022-07-06_09h31.38.956,Colour_Asymmetry_Pilot,2022.1.3,Win32,70.60650992,62c50e9c1127f2cd403a315f,,,,,,,,,,,,,,,,,,,,,,,,,,,,,,,,,,,,,,,,,,,,,,,,,,,,,,,,,,,,,,,,,,,,,,,,,,,,,,,,,,,,,,,,,,,,,,,,,,,,,,,,,,,,,,,,,,,,,,,,,,,,,,,,,,,,,,,,,,,,,,,,,,,,,,,,,,,,,,,,,,
0,51,51,72,1,,6159f6b637bab134ea9bb92e,62c539d607160c13dfb487c9,2022-07-06_09h31.38.956,Colour_Asymmetry_Pilot,2022.1.3,Win32,70.60650992,62c50e9c1127f2cd403a315f,,,,,,,,,,,,,,,,,,,,,,,,,,,,,,,,,,,,,,,,,,,,,,,,,,,,,,,,,,,,,,,,,,,,,,,,,,,,,,,,,,,,,,,,,,,,,,,,,,,,,,,,,,,,,,,,,,,,,,,,,,,,,,,,,,,,,,,,,,,,,,,,,,,,,,,,,,,,,,,,,,
0,52,52,42,1,,6159f6b637bab134ea9bb92e,62c539d607160c13dfb487c9,2022-07-06_09h31.38.956,Colour_Asymmetry_Pilot,2022.1.3,Win32,70.60650992,62c50e9c1127f2cd403a315f,,,,,,,,,,,,,,,,,,,,,,,,,,,,,,,,,,,,,,,,,,,,,,,,,,,,,,,,,,,,,,,,,,,,,,,,,,,,,,,,,,,,,,,,,,,,,,,,,,,,,,,,,,,,,,,,,,,,,,,,,,,,,,,,,,,,,,,,,,,,,,,,,,,,,,,,,,,,,,,,,,
0,53,53,37,1,,6159f6b637bab134ea9bb92e,62c539d607160c13dfb487c9,2022-07-06_09h31.38.956,Colour_Asymmetry_Pilot,2022.1.3,Win32,70.60650992,62c50e9c1127f2cd403a315f,,,,,,,,,,,,,,,,,,,,,,,,,,,,,,,,,,,,,,,,,,,,,,,,,,,,,,,,,,,,,,,,,,,,,,,,,,,,,,,,,,,,,,,,,,,,,,,,,,,,,,,,,,,,,,,,,,,,,,,,,,,,,,,,,,,,,,,,,,,,,,,,,,,,,,,,,,,,,,,,,,
0,54,54,31,1,,6159f6b637bab134ea9bb92e,62c539d607160c13dfb487c9,2022-07-06_09h31.38.956,Colour_Asymmetry_Pilot,2022.1.3,Win32,70.60650992,62c50e9c1127f2cd403a315f,,,,,,,,,,,,,,,,,,,,,,,,,,,,,,,,,,,,,,,,,,,,,,,,,,,,,,,,,,,,,,,,,,,,,,,,,,,,,,,,,,,,,,,,,,,,,,,,,,,,,,,,,,,,,,,,,,,,,,,,,,,,,,,,,,,,,,,,,,,,,,,,,,,,,,,,,,,,,,,,,,
0,55,55,60,1,,6159f6b637bab134ea9bb92e,62c539d607160c13dfb487c9,2022-07-06_09h31.38.956,Colour_Asymmetry_Pilot,2022.1.3,Win32,70.60650992,62c50e9c1127f2cd403a315f,,,,,,,,,,,,,,,,,,,,,,,,,,,,,,,,,,,,,,,,,,,,,,,,,,,,,,,,,,,,,,,,,,,,,,,,,,,,,,,,,,,,,,,,,,,,,,,,,,,,,,,,,,,,,,,,,,,,,,,,,,,,,,,,,,,,,,,,,,,,,,,,,,,,,,,,,,,,,,,,,,
0,56,56,46,1,,6159f6b637bab134ea9bb92e,62c539d607160c13dfb487c9,2022-07-06_09h31.38.956,Colour_Asymmetry_Pilot,2022.1.3,Win32,70.60650992,62c50e9c1127f2cd403a315f,,,,,,,,,,,,,,,,,,,,,,,,,,,,,,,,,,,,,,,,,,,,,,,,,,,,,,,,,,,,,,,,,,,,,,,,,,,,,,,,,,,,,,,,,,,,,,,,,,,,,,,,,,,,,,,,,,,,,,,,,,,,,,,,,,,,,,,,,,,,,,,,,,,,,,,,,,,,,,,,,,
0,57,57,48,1,,6159f6b637bab134ea9bb92e,62c539d607160c13dfb487c9,2022-07-06_09h31.38.956,Colour_Asymmetry_Pilot,2022.1.3,Win32,70.60650992,62c50e9c1127f2cd403a315f,,,,,,,,,,,,,,,,,,,,,,,,,,,,,,,,,,,,,,,,,,,,,,,,,,,,,,,,,,,,,,,,,,,,,,,,,,,,,,,,,,,,,,,,,,,,,,,,,,,,,,,,,,,,,,,,,,,,,,,,,,,,,,,,,,,,,,,,,,,,,,,,,,,,,,,,,,,,,,,,,,
0,58,58,90,1,,6159f6b637bab134ea9bb92e,62c539d607160c13dfb487c9,2022-07-06_09h31.38.956,Colour_Asymmetry_Pilot,2022.1.3,Win32,70.60650992,62c50e9c1127f2cd403a315f,,,,,,,,,,,,,,,,,,,,,,,,,,,,,,,,,,,,,,,,,,,,,,,,,,,,,,,,,,,,,,,,,,,,,,,,,,,,,,,,,,,,,,,,,,,,,,,,,,,,,,,,,,,,,,,,,,,,,,,,,,,,,,,,,,,,,,,,,,,,,,,,,,,,,,,,,,,,,,,,,,
0,59,59,9,1,,6159f6b637bab134ea9bb92e,62c539d607160c13dfb487c9,2022-07-06_09h31.38.956,Colour_Asymmetry_Pilot,2022.1.3,Win32,70.60650992,62c50e9c1127f2cd403a315f,,,,,,,,,,,,,,,,,,,,,,,,,,,,,,,,,,,,,,,,,,,,,,,,,,,,,,,,,,,,,,,,,,,,,,,,,,,,,,,,,,,,,,,,,,,,,,,,,,,,,,,,,,,,,,,,,,,,,,,,,,,,,,,,,,,,,,,,,,,,,,,,,,,,,,,,,,,,,,,,,,
0,60,60,23,1,,6159f6b637bab134ea9bb92e,62c539d607160c13dfb487c9,2022-07-06_09h31.38.956,Colour_Asymmetry_Pilot,2022.1.3,Win32,70.60650992,62c50e9c1127f2cd403a315f,,,,,,,,,,,,,,,,,,,,,,,,,,,,,,,,,,,,,,,,,,,,,,,,,,,,,,,,,,,,,,,,,,,,,,,,,,,,,,,,,,,,,,,,,,,,,,,,,,,,,,,,,,,,,,,,,,,,,,,,,,,,,,,,,,,,,,,,,,,,,,,,,,,,,,,,,,,,,,,,,,
0,61,61,40,1,,6159f6b637bab134ea9bb92e,62c539d607160c13dfb487c9,2022-07-06_09h31.38.956,Colour_Asymmetry_Pilot,2022.1.3,Win32,70.60650992,62c50e9c1127f2cd403a315f,,,,,,,,,,,,,,,,,,,,,,,,,,,,,,,,,,,,,,,,,,,,,,,,,,,,,,,,,,,,,,,,,,,,,,,,,,,,,,,,,,,,,,,,,,,,,,,,,,,,,,,,,,,,,,,,,,,,,,,,,,,,,,,,,,,,,,,,,,,,,,,,,,,,,,,,,,,,,,,,,,
0,62,62,1,1,,6159f6b637bab134ea9bb92e,62c539d607160c13dfb487c9,2022-07-06_09h31.38.956,Colour_Asymmetry_Pilot,2022.1.3,Win32,70.60650992,62c50e9c1127f2cd403a315f,,,,,,,,,,,,,,,,,,,,,,,,,,,,,,,,,,,,,,,,,,,,,,,,,,,,,,,,,,,,,,,,,,,,,,,,,,,,,,,,,,,,,,,,,,,,,,,,,,,,,,,,,,,,,,,,,,,,,,,,,,,,,,,,,,,,,,,,,,,,,,,,,,,,,,,,,,,,,,,,,,
0,63,63,71,1,,6159f6b637bab134ea9bb92e,62c539d607160c13dfb487c9,2022-07-06_09h31.38.956,Colour_Asymmetry_Pilot,2022.1.3,Win32,70.60650992,62c50e9c1127f2cd403a315f,,,,,,,,,,,,,,,,,,,,,,,,,,,,,,,,,,,,,,,,,,,,,,,,,,,,,,,,,,,,,,,,,,,,,,,,,,,,,,,,,,,,,,,,,,,,,,,,,,,,,,,,,,,,,,,,,,,,,,,,,,,,,,,,,,,,,,,,,,,,,,,,,,,,,,,,,,,,,,,,,,
0,64,64,89,1,,6159f6b637bab134ea9bb92e,62c539d607160c13dfb487c9,2022-07-06_09h31.38.956,Colour_Asymmetry_Pilot,2022.1.3,Win32,70.60650992,62c50e9c1127f2cd403a315f,,,,,,,,,,,,,,,,,,,,,,,,,,,,,,,,,,,,,,,,,,,,,,,,,,,,,,,,,,,,,,,,,,,,,,,,,,,,,,,,,,,,,,,,,,,,,,,,,,,,,,,,,,,,,,,,,,,,,,,,,,,,,,,,,,,,,,,,,,,,,,,,,,,,,,,,,,,,,,,,,,
0,65,65,77,1,,6159f6b637bab134ea9bb92e,62c539d607160c13dfb487c9,2022-07-06_09h31.38.956,Colour_Asymmetry_Pilot,2022.1.3,Win32,70.60650992,62c50e9c1127f2cd403a315f,,,,,,,,,,,,,,,,,,,,,,,,,,,,,,,,,,,,,,,,,,,,,,,,,,,,,,,,,,,,,,,,,,,,,,,,,,,,,,,,,,,,,,,,,,,,,,,,,,,,,,,,,,,,,,,,,,,,,,,,,,,,,,,,,,,,,,,,,,,,,,,,,,,,,,,,,,,,,,,,,,
0,66,66,22,1,,6159f6b637bab134ea9bb92e,62c539d607160c13dfb487c9,2022-07-06_09h31.38.956,Colour_Asymmetry_Pilot,2022.1.3,Win32,70.60650992,62c50e9c1127f2cd403a315f,,,,,,,,,,,,,,,,,,,,,,,,,,,,,,,,,,,,,,,,,,,,,,,,,,,,,,,,,,,,,,,,,,,,,,,,,,,,,,,,,,,,,,,,,,,,,,,,,,,,,,,,,,,,,,,,,,,,,,,,,,,,,,,,,,,,,,,,,,,,,,,,,,,,,,,,,,,,,,,,,,
0,67,67,18,1,,6159f6b637bab134ea9bb92e,62c539d607160c13dfb487c9,2022-07-06_09h31.38.956,Colour_Asymmetry_Pilot,2022.1.3,Win32,70.60650992,62c50e9c1127f2cd403a315f,,,,,,,,,,,,,,,,,,,,,,,,,,,,,,,,,,,,,,,,,,,,,,,,,,,,,,,,,,,,,,,,,,,,,,,,,,,,,,,,,,,,,,,,,,,,,,,,,,,,,,,,,,,,,,,,,,,,,,,,,,,,,,,,,,,,,,,,,,,,,,,,,,,,,,,,,,,,,,,,,,
0,68,68,84,1,,6159f6b637bab134ea9bb92e,62c539d607160c13dfb487c9,2022-07-06_09h31.38.956,Colour_Asymmetry_Pilot,2022.1.3,Win32,70.60650992,62c50e9c1127f2cd403a315f,,,,,,,,,,,,,,,,,,,,,,,,,,,,,,,,,,,,,,,,,,,,,,,,,,,,,,,,,,,,,,,,,,,,,,,,,,,,,,,,,,,,,,,,,,,,,,,,,,,,,,,,,,,,,,,,,,,,,,,,,,,,,,,,,,,,,,,,,,,,,,,,,,,,,,,,,,,,,,,,,,
0,69,69,45,1,,6159f6b637bab134ea9bb92e,62c539d607160c13dfb487c9,2022-07-06_09h31.38.956,Colour_Asymmetry_Pilot,2022.1.3,Win32,70.60650992,62c50e9c1127f2cd403a315f,,,,,,,,,,,,,,,,,,,,,,,,,,,,,,,,,,,,,,,,,,,,,,,,,,,,,,,,,,,,,,,,,,,,,,,,,,,,,,,,,,,,,,,,,,,,,,,,,,,,,,,,,,,,,,,,,,,,,,,,,,,,,,,,,,,,,,,,,,,,,,,,,,,,,,,,,,,,,,,,,,
0,70,70,79,1,,6159f6b637bab134ea9bb92e,62c539d607160c13dfb487c9,2022-07-06_09h31.38.956,Colour_Asymmetry_Pilot,2022.1.3,Win32,70.60650992,62c50e9c1127f2cd403a315f,,,,,,,,,,,,,,,,,,,,,,,,,,,,,,,,,,,,,,,,,,,,,,,,,,,,,,,,,,,,,,,,,,,,,,,,,,,,,,,,,,,,,,,,,,,,,,,,,,,,,,,,,,,,,,,,,,,,,,,,,,,,,,,,,,,,,,,,,,,,,,,,,,,,,,,,,,,,,,,,,,
0,71,71,74,1,,6159f6b637bab134ea9bb92e,62c539d607160c13dfb487c9,2022-07-06_09h31.38.956,Colour_Asymmetry_Pilot,2022.1.3,Win32,70.60650992,62c50e9c1127f2cd403a315f,,,,,,,,,,,,,,,,,,,,,,,,,,,,,,,,,,,,,,,,,,,,,,,,,,,,,,,,,,,,,,,,,,,,,,,,,,,,,,,,,,,,,,,,,,,,,,,,,,,,,,,,,,,,,,,,,,,,,,,,,,,,,,,,,,,,,,,,,,,,,,,,,,,,,,,,,,,,,,,,,,
0,72,72,26,1,,6159f6b637bab134ea9bb92e,62c539d607160c13dfb487c9,2022-07-06_09h31.38.956,Colour_Asymmetry_Pilot,2022.1.3,Win32,70.60650992,62c50e9c1127f2cd403a315f,,,,,,,,,,,,,,,,,,,,,,,,,,,,,,,,,,,,,,,,,,,,,,,,,,,,,,,,,,,,,,,,,,,,,,,,,,,,,,,,,,,,,,,,,,,,,,,,,,,,,,,,,,,,,,,,,,,,,,,,,,,,,,,,,,,,,,,,,,,,,,,,,,,,,,,,,,,,,,,,,,
0,73,73,16,1,,6159f6b637bab134ea9bb92e,62c539d607160c13dfb487c9,2022-07-06_09h31.38.956,Colour_Asymmetry_Pilot,2022.1.3,Win32,70.60650992,62c50e9c1127f2cd403a315f,,,,,,,,,,,,,,,,,,,,,,,,,,,,,,,,,,,,,,,,,,,,,,,,,,,,,,,,,,,,,,,,,,,,,,,,,,,,,,,,,,,,,,,,,,,,,,,,,,,,,,,,,,,,,,,,,,,,,,,,,,,,,,,,,,,,,,,,,,,,,,,,,,,,,,,,,,,,,,,,,,
0,74,74,34,1,,6159f6b637bab134ea9bb92e,62c539d607160c13dfb487c9,2022-07-06_09h31.38.956,Colour_Asymmetry_Pilot,2022.1.3,Win32,70.60650992,62c50e9c1127f2cd403a315f,,,,,,,,,,,,,,,,,,,,,,,,,,,,,,,,,,,,,,,,,,,,,,,,,,,,,,,,,,,,,,,,,,,,,,,,,,,,,,,,,,,,,,,,,,,,,,,,,,,,,,,,,,,,,,,,,,,,,,,,,,,,,,,,,,,,,,,,,,,,,,,,,,,,,,,,,,,,,,,,,,
0,75,75,38,1,,6159f6b637bab134ea9bb92e,62c539d607160c13dfb487c9,2022-07-06_09h31.38.956,Colour_Asymmetry_Pilot,2022.1.3,Win32,70.60650992,62c50e9c1127f2cd403a315f,,,,,,,,,,,,,,,,,,,,,,,,,,,,,,,,,,,,,,,,,,,,,,,,,,,,,,,,,,,,,,,,,,,,,,,,,,,,,,,,,,,,,,,,,,,,,,,,,,,,,,,,,,,,,,,,,,,,,,,,,,,,,,,,,,,,,,,,,,,,,,,,,,,,,,,,,,,,,,,,,,
0,76,76,43,1,,6159f6b637bab134ea9bb92e,62c539d607160c13dfb487c9,2022-07-06_09h31.38.956,Colour_Asymmetry_Pilot,2022.1.3,Win32,70.60650992,62c50e9c1127f2cd403a315f,,,,,,,,,,,,,,,,,,,,,,,,,,,,,,,,,,,,,,,,,,,,,,,,,,,,,,,,,,,,,,,,,,,,,,,,,,,,,,,,,,,,,,,,,,,,,,,,,,,,,,,,,,,,,,,,,,,,,,,,,,,,,,,,,,,,,,,,,,,,,,,,,,,,,,,,,,,,,,,,,,
0,77,77,13,1,,6159f6b637bab134ea9bb92e,62c539d607160c13dfb487c9,2022-07-06_09h31.38.956,Colour_Asymmetry_Pilot,2022.1.3,Win32,70.60650992,62c50e9c1127f2cd403a315f,,,,,,,,,,,,,,,,,,,,,,,,,,,,,,,,,,,,,,,,,,,,,,,,,,,,,,,,,,,,,,,,,,,,,,,,,,,,,,,,,,,,,,,,,,,,,,,,,,,,,,,,,,,,,,,,,,,,,,,,,,,,,,,,,,,,,,,,,,,,,,,,,,,,,,,,,,,,,,,,,,
0,78,78,49,1,,6159f6b637bab134ea9bb92e,62c539d607160c13dfb487c9,2022-07-06_09h31.38.956,Colour_Asymmetry_Pilot,2022.1.3,Win32,70.60650992,62c50e9c1127f2cd403a315f,,,,,,,,,,,,,,,,,,,,,,,,,,,,,,,,,,,,,,,,,,,,,,,,,,,,,,,,,,,,,,,,,,,,,,,,,,,,,,,,,,,,,,,,,,,,,,,,,,,,,,,,,,,,,,,,,,,,,,,,,,,,,,,,,,,,,,,,,,,,,,,,,,,,,,,,,,,,,,,,,,
0,79,79,88,1,,6159f6b637bab134ea9bb92e,62c539d607160c13dfb487c9,2022-07-06_09h31.38.956,Colour_Asymmetry_Pilot,2022.1.3,Win32,70.60650992,62c50e9c1127f2cd403a315f,,,,,,,,,,,,,,,,,,,,,,,,,,,,,,,,,,,,,,,,,,,,,,,,,,,,,,,,,,,,,,,,,,,,,,,,,,,,,,,,,,,,,,,,,,,,,,,,,,,,,,,,,,,,,,,,,,,,,,,,,,,,,,,,,,,,,,,,,,,,,,,,,,,,,,,,,,,,,,,,,,
0,80,80,7,1,,6159f6b637bab134ea9bb92e,62c539d607160c13dfb487c9,2022-07-06_09h31.38.956,Colour_Asymmetry_Pilot,2022.1.3,Win32,70.60650992,62c50e9c1127f2cd403a315f,,,,,,,,,,,,,,,,,,,,,,,,,,,,,,,,,,,,,,,,,,,,,,,,,,,,,,,,,,,,,,,,,,,,,,,,,,,,,,,,,,,,,,,,,,,,,,,,,,,,,,,,,,,,,,,,,,,,,,,,,,,,,,,,,,,,,,,,,,,,,,,,,,,,,,,,,,,,,,,,,,
0,81,81,39,1,,6159f6b637bab134ea9bb92e,62c539d607160c13dfb487c9,2022-07-06_09h31.38.956,Colour_Asymmetry_Pilot,2022.1.3,Win32,70.60650992,62c50e9c1127f2cd403a315f,,,,,,,,,,,,,,,,,,,,,,,,,,,,,,,,,,,,,,,,,,,,,,,,,,,,,,,,,,,,,,,,,,,,,,,,,,,,,,,,,,,,,,,,,,,,,,,,,,,,,,,,,,,,,,,,,,,,,,,,,,,,,,,,,,,,,,,,,,,,,,,,,,,,,,,,,,,,,,,,,,
0,82,82,41,1,,6159f6b637bab134ea9bb92e,62c539d607160c13dfb487c9,2022-07-06_09h31.38.956,Colour_Asymmetry_Pilot,2022.1.3,Win32,70.60650992,62c50e9c1127f2cd403a315f,,,,,,,,,,,,,,,,,,,,,,,,,,,,,,,,,,,,,,,,,,,,,,,,,,,,,,,,,,,,,,,,,,,,,,,,,,,,,,,,,,,,,,,,,,,,,,,,,,,,,,,,,,,,,,,,,,,,,,,,,,,,,,,,,,,,,,,,,,,,,,,,,,,,,,,,,,,,,,,,,,
0,83,83,51,1,,6159f6b637bab134ea9bb92e,62c539d607160c13dfb487c9,2022-07-06_09h31.38.956,Colour_Asymmetry_Pilot,2022.1.3,Win32,70.60650992,62c50e9c1127f2cd403a315f,,,,,,,,,,,,,,,,,,,,,,,,,,,,,,,,,,,,,,,,,,,,,,,,,,,,,,,,,,,,,,,,,,,,,,,,,,,,,,,,,,,,,,,,,,,,,,,,,,,,,,,,,,,,,,,,,,,,,,,,,,,,,,,,,,,,,,,,,,,,,,,,,,,,,,,,,,,,,,,,,,
0,84,84,65,1,,6159f6b637bab134ea9bb92e,62c539d607160c13dfb487c9,2022-07-06_09h31.38.956,Colour_Asymmetry_Pilot,2022.1.3,Win32,70.60650992,62c50e9c1127f2cd403a315f,,,,,,,,,,,,,,,,,,,,,,,,,,,,,,,,,,,,,,,,,,,,,,,,,,,,,,,,,,,,,,,,,,,,,,,,,,,,,,,,,,,,,,,,,,,,,,,,,,,,,,,,,,,,,,,,,,,,,,,,,,,,,,,,,,,,,,,,,,,,,,,,,,,,,,,,,,,,,,,,,,
0,85,85,80,1,,6159f6b637bab134ea9bb92e,62c539d607160c13dfb487c9,2022-07-06_09h31.38.956,Colour_Asymmetry_Pilot,2022.1.3,Win32,70.60650992,62c50e9c1127f2cd403a315f,,,,,,,,,,,,,,,,,,,,,,,,,,,,,,,,,,,,,,,,,,,,,,,,,,,,,,,,,,,,,,,,,,,,,,,,,,,,,,,,,,,,,,,,,,,,,,,,,,,,,,,,,,,,,,,,,,,,,,,,,,,,,,,,,,,,,,,,,,,,,,,,,,,,,,,,,,,,,,,,,,
0,86,86,32,1,,6159f6b637bab134ea9bb92e,62c539d607160c13dfb487c9,2022-07-06_09h31.38.956,Colour_Asymmetry_Pilot,2022.1.3,Win32,70.60650992,62c50e9c1127f2cd403a315f,,,,,,,,,,,,,,,,,,,,,,,,,,,,,,,,,,,,,,,,,,,,,,,,,,,,,,,,,,,,,,,,,,,,,,,,,,,,,,,,,,,,,,,,,,,,,,,,,,,,,,,,,,,,,,,,,,,,,,,,,,,,,,,,,,,,,,,,,,,,,,,,,,,,,,,,,,,,,,,,,,
0,87,87,83,1,,6159f6b637bab134ea9bb92e,62c539d607160c13dfb487c9,2022-07-06_09h31.38.956,Colour_Asymmetry_Pilot,2022.1.3,Win32,70.60650992,62c50e9c1127f2cd403a315f,,,,,,,,,,,,,,,,,,,,,,,,,,,,,,,,,,,,,,,,,,,,,,,,,,,,,,,,,,,,,,,,,,,,,,,,,,,,,,,,,,,,,,,,,,,,,,,,,,,,,,,,,,,,,,,,,,,,,,,,,,,,,,,,,,,,,,,,,,,,,,,,,,,,,,,,,,,,,,,,,,
0,88,88,14,1,,6159f6b637bab134ea9bb92e,62c539d607160c13dfb487c9,2022-07-06_09h31.38.956,Colour_Asymmetry_Pilot,2022.1.3,Win32,70.60650992,62c50e9c1127f2cd403a315f,,,,,,,,,,,,,,,,,,,,,,,,,,,,,,,,,,,,,,,,,,,,,,,,,,,,,,,,,,,,,,,,,,,,,,,,,,,,,,,,,,,,,,,,,,,,,,,,,,,,,,,,,,,,,,,,,,,,,,,,,,,,,,,,,,,,,,,,,,,,,,,,,,,,,,,,,,,,,,,,,,
0,89,89,87,1,,6159f6b637bab134ea9bb92e,62c539d607160c13dfb487c9,2022-07-06_09h31.38.956,Colour_Asymmetry_Pilot,2022.1.3,Win32,70.60650992,62c50e9c1127f2cd403a315f,,,,,,,,,,,,,,,,,,,,,,,,,,,,,,,,,,,,,,,,,,,,,,,,,,,,,,,,,,,,,,,,,,,,,,,,,,,,,,,,,,,,,,,,,,,,,,,,,,,,,,,,,,,,,,,,,,,,,,,,,,,,,,,,,,,,,,,,,,,,,,,,,,,,,,,,,,,,,,,,,,
0,90,90,5,1,,6159f6b637bab134ea9bb92e,62c539d607160c13dfb487c9,2022-07-06_09h31.38.956,Colour_Asymmetry_Pilot,2022.1.3,Win32,70.60650992,62c50e9c1127f2cd403a315f,,,,,,,,,,,,,,,,,,,,,,,,,,,,,,,,,,,,,,,,,,,,,,,,,,,,,,,,,,,,,,,,,,,,,,,,,,,,,,,,,,,,,,,,,,,,,,,,,,,,,,,,,,,,,,,,,,,,,,,,,,,,,,,,,,,,,,,,,,,,,,,,,,,,,,,,,,,,,,,,,,
0,91,91,47,1,,6159f6b637bab134ea9bb92e,62c539d607160c13dfb487c9,2022-07-06_09h31.38.956,Colour_Asymmetry_Pilot,2022.1.3,Win32,70.60650992,62c50e9c1127f2cd403a315f,,,,,,,,,,,,,,,,,,,,,,,,,,,,,,,,,,,,,,,,,,,,,,,,,,,,,,,,,,,,,,,,,,,,,,,,,,,,,,,,,,,,,,,,,,,,,,,,,,,,,,,,,,,,,,,,,,,,,,,,,,,,,,,,,,,,,,,,,,,,,,,,,,,,,,,,,,,,,,,,,,
0,92,92,36,1,,6159f6b637bab134ea9bb92e,62c539d607160c13dfb487c9,2022-07-06_09h31.38.956,Colour_Asymmetry_Pilot,2022.1.3,Win32,70.60650992,62c50e9c1127f2cd403a315f,,,,,,,,,,,,,,,,,,,,,,,,,,,,,,,,,,,,,,,,,,,,,,,,,,,,,,,,,,,,,,,,,,,,,,,,,,,,,,,,,,,,,,,,,,,,,,,,,,,,,,,,,,,,,,,,,,,,,,,,,,,,,,,,,,,,,,,,,,,,,,,,,,,,,,,,,,,,,,,,,,
,,,,,,6159f6b637bab134ea9bb92e,62c539d607160c13dfb487c9,2022-07-06_09h31.38.956,Colour_Asymmetry_Pilot,2022.1.3,Win32,70.60650992,62c50e9c1127f2cd403a315f,0,0,0,92,1,threeone,,,,,,,,,,,,,,,,,,,,,,,,,,,,,,,,,,,,,,,,,,,,,,,,,,,,,,,,,,,,,,,,,,,,,,,,,,,,,,,,,,,,,,,,,,,,,,,,,,,,,,,,,,,,,,,,,,,,,,,,,,,,,,,,,,,,,,,,,,,,,,,,,,,,,,,,,,,,
,,,,,,6159f6b637bab134ea9bb92e,62c539d607160c13dfb487c9,2022-07-06_09h31.38.956,Colour_Asymmetry_Pilot,2022.1.3,Win32,70.60650992,62c50e9c1127f2cd403a315f,0,1,1,113,1,onethree,,,,,,,,,,,,,,,,,,,,,,,,,,,,,,,,,,,,,,,,,,,,,,,,,,,,,,,,,,,,,,,,,,,,,,,,,,,,,,,,,,,,,,,,,,,,,,,,,,,,,,,,,,,,,,,,,,,,,,,,,,,,,,,,,,,,,,,,,,,,,,,,,,,,,,,,,,,,
,,,,,,6159f6b637bab134ea9bb92e,62c539d607160c13dfb487c9,2022-07-06_09h31.38.956,Colour_Asymmetry_Pilot,2022.1.3,Win32,70.60650992,62c50e9c1127f2cd403a315f,0,2,2,75,1,twofour,,,,,,,,,,,,,,,,,,,,,,,,,,,,,,,,,,,,,,,,,,,,,,,,,,,,,,,,,,,,,,,,,,,,,,,,,,,,,,,,,,,,,,,,,,,,,,,,,,,,,,,,,,,,,,,,,,,,,,,,,,,,,,,,,,,,,,,,,,,,,,,,,,,,,,,,,,,,
,,,,,,6159f6b637bab134ea9bb92e,62c539d607160c13dfb487c9,2022-07-06_09h31.38.956,Colour_Asymmetry_Pilot,2022.1.3,Win32,70.60650992,62c50e9c1127f2cd403a315f,0,3,3,140,1,threeone,,,,,,,,,,,,,,,,,,,,,,,,,,,,,,,,,,,,,,,,,,,,,,,,,,,,,,,,,,,,,,,,,,,,,,,,,,,,,,,,,,,,,,,,,,,,,,,,,,,,,,,,,,,,,,,,,,,,,,,,,,,,,,,,,,,,,,,,,,,,,,,,,,,,,,,,,,,,
,,,,,,6159f6b637bab134ea9bb92e,62c539d607160c13dfb487c9,2022-07-06_09h31.38.956,Colour_Asymmetry_Pilot,2022.1.3,Win32,70.60650992,62c50e9c1127f2cd403a315f,0,4,4,156,1,threeone,,,,,,,,,,,,,,,,,,,,,,,,,,,,,,,,,,,,,,,,,,,,,,,,,,,,,,,,,,,,,,,,,,,,,,,,,,,,,,,,,,,,,,,,,,,,,,,,,,,,,,,,,,,,,,,,,,,,,,,,,,,,,,,,,,,,,,,,,,,,,,,,,,,,,,,,,,,,
,,,,,,6159f6b637bab134ea9bb92e,62c539d607160c13dfb487c9,2022-07-06_09h31.38.956,Colour_Asymmetry_Pilot,2022.1.3,Win32,70.60650992,62c50e9c1127f2cd403a315f,0,5,5,8,1,onetwo,,,,,,,,,,,,,,,,,,,,,,,,,,,,,,,,,,,,,,,,,,,,,,,,,,,,,,,,,,,,,,,,,,,,,,,,,,,,,,,,,,,,,,,,,,,,,,,,,,,,,,,,,,,,,,,,,,,,,,,,,,,,,,,,,,,,,,,,,,,,,,,,,,,,,,,,,,,,
,,,,,,6159f6b637bab134ea9bb92e,62c539d607160c13dfb487c9,2022-07-06_09h31.38.956,Colour_Asymmetry_Pilot,2022.1.3,Win32,70.60650992,62c50e9c1127f2cd403a315f,0,6,6,5,1,threefour,,,,,,,,,,,,,,,,,,,,,,,,,,,,,,,,,,,,,,,,,,,,,,,,,,,,,,,,,,,,,,,,,,,,,,,,,,,,,,,,,,,,,,,,,,,,,,,,,,,,,,,,,,,,,,,,,,,,,,,,,,,,,,,,,,,,,,,,,,,,,,,,,,,,,,,,,,,,
,,,,,,6159f6b637bab134ea9bb92e,62c539d607160c13dfb487c9,2022-07-06_09h31.38.956,Colour_Asymmetry_Pilot,2022.1.3,Win32,70.60650992,62c50e9c1127f2cd403a315f,0,7,7,35,1,twofour,,,,,,,,,,,,,,,,,,,,,,,,,,,,,,,,,,,,,,,,,,,,,,,,,,,,,,,,,,,,,,,,,,,,,,,,,,,,,,,,,,,,,,,,,,,,,,,,,,,,,,,,,,,,,,,,,,,,,,,,,,,,,,,,,,,,,,,,,,,,,,,,,,,,,,,,,,,,
,,,,,,6159f6b637bab134ea9bb92e,62c539d607160c13dfb487c9,2022-07-06_09h31.38.956,Colour_Asymmetry_Pilot,2022.1.3,Win32,70.60650992,62c50e9c1127f2cd403a315f,0,8,8,153,1,onethree,,,,,,,,,,,,,,,,,,,,,,,,,,,,,,,,,,,,,,,,,,,,,,,,,,,,,,,,,,,,,,,,,,,,,,,,,,,,,,,,,,,,,,,,,,,,,,,,,,,,,,,,,,,,,,,,,,,,,,,,,,,,,,,,,,,,,,,,,,,,,,,,,,,,,,,,,,,,
,,,,,,6159f6b637bab134ea9bb92e,62c539d607160c13dfb487c9,2022-07-06_09h31.38.956,Colour_Asymmetry_Pilot,2022.1.3,Win32,70.60650992,62c50e9c1127f2cd403a315f,0,9,9,137,1,onethree,,,,,,,,,,,,,,,,,,,,,,,,,,,,,,,,,,,,,,,,,,,,,,,,,,,,,,,,,,,,,,,,,,,,,,,,,,,,,,,,,,,,,,,,,,,,,,,,,,,,,,,,,,,,,,,,,,,,,,,,,,,,,,,,,,,,,,,,,,,,,,,,,,,,,,,,,,,,
,,,,,,6159f6b637bab134ea9bb92e,62c539d607160c13dfb487c9,2022-07-06_09h31.38.956,Colour_Asymmetry_Pilot,2022.1.3,Win32,70.60650992,62c50e9c1127f2cd403a315f,0,10,10,31,1,fourthree,,,,,,,,,,,,,,,,,,,,,,,,,,,,,,,,,,,,,,,,,,,,,,,,,,,,,,,,,,,,,,,,,,,,,,,,,,,,,,,,,,,,,,,,,,,,,,,,,,,,,,,,,,,,,,,,,,,,,,,,,,,,,,,,,,,,,,,,,,,,,,,,,,,,,,,,,,,,
,,,,,,6159f6b637bab134ea9bb92e,62c539d607160c13dfb487c9,2022-07-06_09h31.38.956,Colour_Asymmetry_Pilot,2022.1.3,Win32,70.60650992,62c50e9c1127f2cd403a315f,0,11,11,157,1,threefour,,,,,,,,,,,,,,,,,,,,,,,,,,,,,,,,,,,,,,,,,,,,,,,,,,,,,,,,,,,,,,,,,,,,,,,,,,,,,,,,,,,,,,,,,,,,,,,,,,,,,,,,,,,,,,,,,,,,,,,,,,,,,,,,,,,,,,,,,,,,,,,,,,,,,,,,,,,,
,,,,,,6159f6b637bab134ea9bb92e,62c539d607160c13dfb487c9,2022-07-06_09h31.38.956,Colour_Asymmetry_Pilot,2022.1.3,Win32,70.60650992,62c50e9c1127f2cd403a315f,0,12,12,25,1,onethree,,,,,,,,,,,,,,,,,,,,,,,,,,,,,,,,,,,,,,,,,,,,,,,,,,,,,,,,,,,,,,,,,,,,,,,,,,,,,,,,,,,,,,,,,,,,,,,,,,,,,,,,,,,,,,,,,,,,,,,,,,,,,,,,,,,,,,,,,,,,,,,,,,,,,,,,,,,,
,,,,,,6159f6b637bab134ea9bb92e,62c539d607160c13dfb487c9,2022-07-06_09h31.38.956,Colour_Asymmetry_Pilot,2022.1.3,Win32,70.60650992,62c50e9c1127f2cd403a315f,0,13,13,88,1,onetwo,,,,,,,,,,,,,,,,,,,,,,,,,,,,,,,,,,,,,,,,,,,,,,,,,,,,,,,,,,,,,,,,,,,,,,,,,,,,,,,,,,,,,,,,,,,,,,,,,,,,,,,,,,,,,,,,,,,,,,,,,,,,,,,,,,,,,,,,,,,,,,,,,,,,,,,,,,,,
,,,,,,6159f6b637bab134ea9bb92e,62c539d607160c13dfb487c9,2022-07-06_09h31.38.956,Colour_Asymmetry_Pilot,2022.1.3,Win32,70.60650992,62c50e9c1127f2cd403a315f,0,14,14,33,1,onethree,,,,,,,,,,,,,,,,,,,,,,,,,,,,,,,,,,,,,,,,,,,,,,,,,,,,,,,,,,,,,,,,,,,,,,,,,,,,,,,,,,,,,,,,,,,,,,,,,,,,,,,,,,,,,,,,,,,,,,,,,,,,,,,,,,,,,,,,,,,,,,,,,,,,,,,,,,,,
,,,,,,6159f6b637bab134ea9bb92e,62c539d607160c13dfb487c9,2022-07-06_09h31.38.956,Colour_Asymmetry_Pilot,2022.1.3,Win32,70.60650992,62c50e9c1127f2cd403a315f,0,15,15,34,1,twoone,,,,,,,,,,,,,,,,,,,,,,,,,,,,,,,,,,,,,,,,,,,,,,,,,,,,,,,,,,,,,,,,,,,,,,,,,,,,,,,,,,,,,,,,,,,,,,,,,,,,,,,,,,,,,,,,,,,,,,,,,,,,,,,,,,,,,,,,,,,,,,,,,,,,,,,,,,,,
,,,,,,6159f6b637bab134ea9bb92e,62c539d607160c13dfb487c9,2022-07-06_09h31.38.956,Colour_Asymmetry_Pilot,2022.1.3,Win32,70.60650992,62c50e9c1127f2cd403a315f,0,16,16,49,1,onethree,,,,,,,,,,,,,,,,,,,,,,,,,,,,,,,,,,,,,,,,,,,,,,,,,,,,,,,,,,,,,,,,,,,,,,,,,,,,,,,,,,,,,,,,,,,,,,,,,,,,,,,,,,,,,,,,,,,,,,,,,,,,,,,,,,,,,,,,,,,,,,,,,,,,,,,,,,,,
,,,,,,6159f6b637bab134ea9bb92e,62c539d607160c13dfb487c9,2022-07-06_09h31.38.956,Colour_Asymmetry_Pilot,2022.1.3,Win32,70.60650992,62c50e9c1127f2cd403a315f,0,17,17,39,1,fourthree,,,,,,,,,,,,,,,,,,,,,,,,,,,,,,,,,,,,,,,,,,,,,,,,,,,,,,,,,,,,,,,,,,,,,,,,,,,,,,,,,,,,,,,,,,,,,,,,,,,,,,,,,,,,,,,,,,,,,,,,,,,,,,,,,,,,,,,,,,,,,,,,,,,,,,,,,,,,
,,,,,,6159f6b637bab134ea9bb92e,62c539d607160c13dfb487c9,2022-07-06_09h31.38.956,Colour_Asymmetry_Pilot,2022.1.3,Win32,70.60650992,62c50e9c1127f2cd403a315f,0,18,18,91,1,twofour,,,,,,,,,,,,,,,,,,,,,,,,,,,,,,,,,,,,,,,,,,,,,,,,,,,,,,,,,,,,,,,,,,,,,,,,,,,,,,,,,,,,,,,,,,,,,,,,,,,,,,,,,,,,,,,,,,,,,,,,,,,,,,,,,,,,,,,,,,,,,,,,,,,,,,,,,,,,
,,,,,,6159f6b637bab134ea9bb92e,62c539d607160c13dfb487c9,2022-07-06_09h31.38.956,Colour_Asymmetry_Pilot,2022.1.3,Win32,70.60650992,62c50e9c1127f2cd403a315f,0,19,19,146,1,twoone,,,,,,,,,,,,,,,,,,,,,,,,,,,,,,,,,,,,,,,,,,,,,,,,,,,,,,,,,,,,,,,,,,,,,,,,,,,,,,,,,,,,,,,,,,,,,,,,,,,,,,,,,,,,,,,,,,,,,,,,,,,,,,,,,,,,,,,,,,,,,,,,,,,,,,,,,,,,
,,,,,,6159f6b637bab134ea9bb92e,62c539d607160c13dfb487c9,2022-07-06_09h31.38.956,Colour_Asymmetry_Pilot,2022.1.3,Win32,70.60650992,62c50e9c1127f2cd403a315f,0,20,20,77,1,threefour,,,,,,,,,,,,,,,,,,,,,,,,,,,,,,,,,,,,,,,,,,,,,,,,,,,,,,,,,,,,,,,,,,,,,,,,,,,,,,,,,,,,,,,,,,,,,,,,,,,,,,,,,,,,,,,,,,,,,,,,,,,,,,,,,,,,,,,,,,,,,,,,,,,,,,,,,,,,
,,,,,,6159f6b637bab134ea9bb92e,62c539d607160c13dfb487c9,2022-07-06_09h31.38.956,Colour_Asymmetry_Pilot,2022.1.3,Win32,70.60650992,62c50e9c1127f2cd403a315f,0,21,21,41,1,onethree,,,,,,,,,,,,,,,,,,,,,,,,,,,,,,,,,,,,,,,,,,,,,,,,,,,,,,,,,,,,,,,,,,,,,,,,,,,,,,,,,,,,,,,,,,,,,,,,,,,,,,,,,,,,,,,,,,,,,,,,,,,,,,,,,,,,,,,,,,,,,,,,,,,,,,,,,,,,
,,,,,,6159f6b637bab134ea9bb92e,62c539d607160c13dfb487c9,2022-07-06_09h31.38.956,Colour_Asymmetry_Pilot,2022.1.3,Win32,70.60650992,62c50e9c1127f2cd403a315f,0,22,22,68,1,threeone,,,,,,,,,,,,,,,,,,,,,,,,,,,,,,,,,,,,,,,,,,,,,,,,,,,,,,,,,,,,,,,,,,,,,,,,,,,,,,,,,,,,,,,,,,,,,,,,,,,,,,,,,,,,,,,,,,,,,,,,,,,,,,,,,,,,,,,,,,,,,,,,,,,,,,,,,,,,
,,,,,,6159f6b637bab134ea9bb92e,62c539d607160c13dfb487c9,2022-07-06_09h31.38.956,Colour_Asymmetry_Pilot,2022.1.3,Win32,70.60650992,62c50e9c1127f2cd403a315f,0,23,23,44,1,threeone,,,,,,,,,,,,,,,,,,,,,,,,,,,,,,,,,,,,,,,,,,,,,,,,,,,,,,,,,,,,,,,,,,,,,,,,,,,,,,,,,,,,,,,,,,,,,,,,,,,,,,,,,,,,,,,,,,,,,,,,,,,,,,,,,,,,,,,,,,,,,,,,,,,,,,,,,,,,
,,,,,,6159f6b637bab134ea9bb92e,62c539d607160c13dfb487c9,2022-07-06_09h31.38.956,Colour_Asymmetry_Pilot,2022.1.3,Win32,70.60650992,62c50e9c1127f2cd403a315f,0,24,24,32,1,onetwo,,,,,,,,,,,,,,,,,,,,,,,,,,,,,,,,,,,,,,,,,,,,,,,,,,,,,,,,,,,,,,,,,,,,,,,,,,,,,,,,,,,,,,,,,,,,,,,,,,,,,,,,,,,,,,,,,,,,,,,,,,,,,,,,,,,,,,,,,,,,,,,,,,,,,,,,,,,,
,,,,,,6159f6b637bab134ea9bb92e,62c539d607160c13dfb487c9,2022-07-06_09h31.38.956,Colour_Asymmetry_Pilot,2022.1.3,Win32,70.60650992,62c50e9c1127f2cd403a315f,0,25,25,107,1,twofour,,,,,,,,,,,,,,,,,,,,,,,,,,,,,,,,,,,,,,,,,,,,,,,,,,,,,,,,,,,,,,,,,,,,,,,,,,,,,,,,,,,,,,,,,,,,,,,,,,,,,,,,,,,,,,,,,,,,,,,,,,,,,,,,,,,,,,,,,,,,,,,,,,,,,,,,,,,,
,,,,,,6159f6b637bab134ea9bb92e,62c539d607160c13dfb487c9,2022-07-06_09h31.38.956,Colour_Asymmetry_Pilot,2022.1.3,Win32,70.60650992,62c50e9c1127f2cd403a315f,0,26,26,51,1,twofour,,,,,,,,,,,,,,,,,,,,,,,,,,,,,,,,,,,,,,,,,,,,,,,,,,,,,,,,,,,,,,,,,,,,,,,,,,,,,,,,,,,,,,,,,,,,,,,,,,,,,,,,,,,,,,,,,,,,,,,,,,,,,,,,,,,,,,,,,,,,,,,,,,,,,,,,,,,,
,,,,,,6159f6b637bab134ea9bb92e,62c539d607160c13dfb487c9,2022-07-06_09h31.38.956,Colour_Asymmetry_Pilot,2022.1.3,Win32,70.60650992,62c50e9c1127f2cd403a315f,0,27,27,42,1,twoone,,,,,,,,,,,,,,,,,,,,,,,,,,,,,,,,,,,,,,,,,,,,,,,,,,,,,,,,,,,,,,,,,,,,,,,,,,,,,,,,,,,,,,,,,,,,,,,,,,,,,,,,,,,,,,,,,,,,,,,,,,,,,,,,,,,,,,,,,,,,,,,,,,,,,,,,,,,,
,,,,,,6159f6b637bab134ea9bb92e,62c539d607160c13dfb487c9,2022-07-06_09h31.38.956,Colour_Asymmetry_Pilot,2022.1.3,Win32,70.60650992,62c50e9c1127f2cd403a315f,0,28,28,4,1,threeone,,,,,,,,,,,,,,,,,,,,,,,,,,,,,,,,,,,,,,,,,,,,,,,,,,,,,,,,,,,,,,,,,,,,,,,,,,,,,,,,,,,,,,,,,,,,,,,,,,,,,,,,,,,,,,,,,,,,,,,,,,,,,,,,,,,,,,,,,,,,,,,,,,,,,,,,,,,,
,,,,,,6159f6b637bab134ea9bb92e,62c539d607160c13dfb487c9,2022-07-06_09h31.38.956,Colour_Asymmetry_Pilot,2022.1.3,Win32,70.60650992,62c50e9c1127f2cd403a315f,0,29,29,9,1,onethree,,,,,,,,,,,,,,,,,,,,,,,,,,,,,,,,,,,,,,,,,,,,,,,,,,,,,,,,,,,,,,,,,,,,,,,,,,,,,,,,,,,,,,,,,,,,,,,,,,,,,,,,,,,,,,,,,,,,,,,,,,,,,,,,,,,,,,,,,,,,,,,,,,,,,,,,,,,,
,,,,,,6159f6b637bab134ea9bb92e,62c539d607160c13dfb487c9,2022-07-06_09h31.38.956,Colour_Asymmetry_Pilot,2022.1.3,Win32,70.60650992,62c50e9c1127f2cd403a315f,0,30,30,109,1,threefour,,,,,,,,,,,,,,,,,,,,,,,,,,,,,,,,,,,,,,,,,,,,,,,,,,,,,,,,,,,,,,,,,,,,,,,,,,,,,,,,,,,,,,,,,,,,,,,,,,,,,,,,,,,,,,,,,,,,,,,,,,,,,,,,,,,,,,,,,,,,,,,,,,,,,,,,,,,,
,,,,,,6159f6b637bab134ea9bb92e,62c539d607160c13dfb487c9,2022-07-06_09h31.38.956,Colour_Asymmetry_Pilot,2022.1.3,Win32,70.60650992,62c50e9c1127f2cd403a315f,0,31,31,105,1,onethree,,,,,,,,,,,,,,,,,,,,,,,,,,,,,,,,,,,,,,,,,,,,,,,,,,,,,,,,,,,,,,,,,,,,,,,,,,,,,,,,,,,,,,,,,,,,,,,,,,,,,,,,,,,,,,,,,,,,,,,,,,,,,,,,,,,,,,,,,,,,,,,,,,,,,,,,,,,,
,,,,,,6159f6b637bab134ea9bb92e,62c539d607160c13dfb487c9,2022-07-06_09h31.38.956,Colour_Asymmetry_Pilot,2022.1.3,Win32,70.60650992,62c50e9c1127f2cd403a315f,0,32,32,55,1,fourthree,,,,,,,,,,,,,,,,,,,,,,,,,,,,,,,,,,,,,,,,,,,,,,,,,,,,,,,,,,,,,,,,,,,,,,,,,,,,,,,,,,,,,,,,,,,,,,,,,,,,,,,,,,,,,,,,,,,,,,,,,,,,,,,,,,,,,,,,,,,,,,,,,,,,,,,,,,,,
,,,,,,6159f6b637bab134ea9bb92e,62c539d607160c13dfb487c9,2022-07-06_09h31.38.956,Colour_Asymmetry_Pilot,2022.1.3,Win32,70.60650992,62c50e9c1127f2cd403a315f,0,33,33,117,1,threefour,,,,,,,,,,,,,,,,,,,,,,,,,,,,,,,,,,,,,,,,,,,,,,,,,,,,,,,,,,,,,,,,,,,,,,,,,,,,,,,,,,,,,,,,,,,,,,,,,,,,,,,,,,,,,,,,,,,,,,,,,,,,,,,,,,,,,,,,,,,,,,,,,,,,,,,,,,,,
,,,,,,6159f6b637bab134ea9bb92e,62c539d607160c13dfb487c9,2022-07-06_09h31.38.956,Colour_Asymmetry_Pilot,2022.1.3,Win32,70.60650992,62c50e9c1127f2cd403a315f,0,34,34,159,1,fourthree,,,,,,,,,,,,,,,,,,,,,,,,,,,,,,,,,,,,,,,,,,,,,,,,,,,,,,,,,,,,,,,,,,,,,,,,,,,,,,,,,,,,,,,,,,,,,,,,,,,,,,,,,,,,,,,,,,,,,,,,,,,,,,,,,,,,,,,,,,,,,,,,,,,,,,,,,,,,
,,,,,,6159f6b637bab134ea9bb92e,62c539d607160c13dfb487c9,2022-07-06_09h31.38.956,Colour_Asymmetry_Pilot,2022.1.3,Win32,70.60650992,62c50e9c1127f2cd403a315f,0,35,35,129,1,onethree,,,,,,,,,,,,,,,,,,,,,,,,,,,,,,,,,,,,,,,,,,,,,,,,,,,,,,,,,,,,,,,,,,,,,,,,,,,,,,,,,,,,,,,,,,,,,,,,,,,,,,,,,,,,,,,,,,,,,,,,,,,,,,,,,,,,,,,,,,,,,,,,,,,,,,,,,,,,
,,,,,,6159f6b637bab134ea9bb92e,62c539d607160c13dfb487c9,2022-07-06_09h31.38.956,Colour_Asymmetry_Pilot,2022.1.3,Win32,70.60650992,62c50e9c1127f2cd403a315f,0,36,36,66,1,twoone,,,,,,,,,,,,,,,,,,,,,,,,,,,,,,,,,,,,,,,,,,,,,,,,,,,,,,,,,,,,,,,,,,,,,,,,,,,,,,,,,,,,,,,,,,,,,,,,,,,,,,,,,,,,,,,,,,,,,,,,,,,,,,,,,,,,,,,,,,,,,,,,,,,,,,,,,,,,
,,,,,,6159f6b637bab134ea9bb92e,62c539d607160c13dfb487c9,2022-07-06_09h31.38.956,Colour_Asymmetry_Pilot,2022.1.3,Win32,70.60650992,62c50e9c1127f2cd403a315f,0,37,37,82,1,twoone,,,,,,,,,,,,,,,,,,,,,,,,,,,,,,,,,,,,,,,,,,,,,,,,,,,,,,,,,,,,,,,,,,,,,,,,,,,,,,,,,,,,,,,,,,,,,,,,,,,,,,,,,,,,,,,,,,,,,,,,,,,,,,,,,,,,,,,,,,,,,,,,,,,,,,,,,,,,
,,,,,,6159f6b637bab134ea9bb92e,62c539d607160c13dfb487c9,2022-07-06_09h31.38.956,Colour_Asymmetry_Pilot,2022.1.3,Win32,70.60650992,62c50e9c1127f2cd403a315f,0,38,38,147,1,twofour,,,,,,,,,,,,,,,,,,,,,,,,,,,,,,,,,,,,,,,,,,,,,,,,,,,,,,,,,,,,,,,,,,,,,,,,,,,,,,,,,,,,,,,,,,,,,,,,,,,,,,,,,,,,,,,,,,,,,,,,,,,,,,,,,,,,,,,,,,,,,,,,,,,,,,,,,,,,
,,,,,,6159f6b637bab134ea9bb92e,62c539d607160c13dfb487c9,2022-07-06_09h31.38.956,Colour_Asymmetry_Pilot,2022.1.3,Win32,70.60650992,62c50e9c1127f2cd403a315f,0,39,39,70,1,fourtwo,,,,,,,,,,,,,,,,,,,,,,,,,,,,,,,,,,,,,,,,,,,,,,,,,,,,,,,,,,,,,,,,,,,,,,,,,,,,,,,,,,,,,,,,,,,,,,,,,,,,,,,,,,,,,,,,,,,,,,,,,,,,,,,,,,,,,,,,,,,,,,,,,,,,,,,,,,,,
,,,,,,6159f6b637bab134ea9bb92e,62c539d607160c13dfb487c9,2022-07-06_09h31.38.956,Colour_Asymmetry_Pilot,2022.1.3,Win32,70.60650992,62c50e9c1127f2cd403a315f,0,40,40,115,1,twofour,,,,,,,,,,,,,,,,,,,,,,,,,,,,,,,,,,,,,,,,,,,,,,,,,,,,,,,,,,,,,,,,,,,,,,,,,,,,,,,,,,,,,,,,,,,,,,,,,,,,,,,,,,,,,,,,,,,,,,,,,,,,,,,,,,,,,,,,,,,,,,,,,,,,,,,,,,,,
,,,,,,6159f6b637bab134ea9bb92e,62c539d607160c13dfb487c9,2022-07-06_09h31.38.956,Colour_Asymmetry_Pilot,2022.1.3,Win32,70.60650992,62c50e9c1127f2cd403a315f,0,41,41,97,1,onethree,,,,,,,,,,,,,,,,,,,,,,,,,,,,,,,,,,,,,,,,,,,,,,,,,,,,,,,,,,,,,,,,,,,,,,,,,,,,,,,,,,,,,,,,,,,,,,,,,,,,,,,,,,,,,,,,,,,,,,,,,,,,,,,,,,,,,,,,,,,,,,,,,,,,,,,,,,,,
,,,,,,6159f6b637bab134ea9bb92e,62c539d607160c13dfb487c9,2022-07-06_09h31.38.956,Colour_Asymmetry_Pilot,2022.1.3,Win32,70.60650992,62c50e9c1127f2cd403a315f,0,42,42,47,1,fourthree,,,,,,,,,,,,,,,,,,,,,,,,,,,,,,,,,,,,,,,,,,,,,,,,,,,,,,,,,,,,,,,,,,,,,,,,,,,,,,,,,,,,,,,,,,,,,,,,,,,,,,,,,,,,,,,,,,,,,,,,,,,,,,,,,,,,,,,,,,,,,,,,,,,,,,,,,,,,
,,,,,,6159f6b637bab134ea9bb92e,62c539d607160c13dfb487c9,2022-07-06_09h31.38.956,Colour_Asymmetry_Pilot,2022.1.3,Win32,70.60650992,62c50e9c1127f2cd403a315f,0,43,43,86,1,fourtwo,,,,,,,,,,,,,,,,,,,,,,,,,,,,,,,,,,,,,,,,,,,,,,,,,,,,,,,,,,,,,,,,,,,,,,,,,,,,,,,,,,,,,,,,,,,,,,,,,,,,,,,,,,,,,,,,,,,,,,,,,,,,,,,,,,,,,,,,,,,,,,,,,,,,,,,,,,,,
,,,,,,6159f6b637bab134ea9bb92e,62c539d607160c13dfb487c9,2022-07-06_09h31.38.956,Colour_Asymmetry_Pilot,2022.1.3,Win32,70.60650992,62c50e9c1127f2cd403a315f,0,44,44,21,1,threefour,,,,,,,,,,,,,,,,,,,,,,,,,,,,,,,,,,,,,,,,,,,,,,,,,,,,,,,,,,,,,,,,,,,,,,,,,,,,,,,,,,,,,,,,,,,,,,,,,,,,,,,,,,,,,,,,,,,,,,,,,,,,,,,,,,,,,,,,,,,,,,,,,,,,,,,,,,,,
,,,,,,6159f6b637bab134ea9bb92e,62c539d607160c13dfb487c9,2022-07-06_09h31.38.956,Colour_Asymmetry_Pilot,2022.1.3,Win32,70.60650992,62c50e9c1127f2cd403a315f,0,45,45,16,1,onetwo,,,,,,,,,,,,,,,,,,,,,,,,,,,,,,,,,,,,,,,,,,,,,,,,,,,,,,,,,,,,,,,,,,,,,,,,,,,,,,,,,,,,,,,,,,,,,,,,,,,,,,,,,,,,,,,,,,,,,,,,,,,,,,,,,,,,,,,,,,,,,,,,,,,,,,,,,,,,
,,,,,,6159f6b637bab134ea9bb92e,62c539d607160c13dfb487c9,2022-07-06_09h31.38.956,Colour_Asymmetry_Pilot,2022.1.3,Win32,70.60650992,62c50e9c1127f2cd403a315f,0,46,46,65,1,onethree,,,,,,,,,,,,,,,,,,,,,,,,,,,,,,,,,,,,,,,,,,,,,,,,,,,,,,,,,,,,,,,,,,,,,,,,,,,,,,,,,,,,,,,,,,,,,,,,,,,,,,,,,,,,,,,,,,,,,,,,,,,,,,,,,,,,,,,,,,,,,,,,,,,,,,,,,,,,
,,,,,,6159f6b637bab134ea9bb92e,62c539d607160c13dfb487c9,2022-07-06_09h31.38.956,Colour_Asymmetry_Pilot,2022.1.3,Win32,70.60650992,62c50e9c1127f2cd403a315f,0,47,47,1,1,onethree,,,,,,,,,,,,,,,,,,,,,,,,,,,,,,,,,,,,,,,,,,,,,,,,,,,,,,,,,,,,,,,,,,,,,,,,,,,,,,,,,,,,,,,,,,,,,,,,,,,,,,,,,,,,,,,,,,,,,,,,,,,,,,,,,,,,,,,,,,,,,,,,,,,,,,,,,,,,
,,,,,,6159f6b637bab134ea9bb92e,62c539d607160c13dfb487c9,2022-07-06_09h31.38.956,Colour_Asymmetry_Pilot,2022.1.3,Win32,70.60650992,62c50e9c1127f2cd403a315f,0,48,48,158,1,fourtwo,,,,,,,,,,,,,,,,,,,,,,,,,,,,,,,,,,,,,,,,,,,,,,,,,,,,,,,,,,,,,,,,,,,,,,,,,,,,,,,,,,,,,,,,,,,,,,,,,,,,,,,,,,,,,,,,,,,,,,,,,,,,,,,,,,,,,,,,,,,,,,,,,,,,,,,,,,,,
,,,,,,6159f6b637bab134ea9bb92e,62c539d607160c13dfb487c9,2022-07-06_09h31.38.956,Colour_Asymmetry_Pilot,2022.1.3,Win32,70.60650992,62c50e9c1127f2cd403a315f,0,49,49,57,1,onethree,,,,,,,,,,,,,,,,,,,,,,,,,,,,,,,,,,,,,,,,,,,,,,,,,,,,,,,,,,,,,,,,,,,,,,,,,,,,,,,,,,,,,,,,,,,,,,,,,,,,,,,,,,,,,,,,,,,,,,,,,,,,,,,,,,,,,,,,,,,,,,,,,,,,,,,,,,,,
,,,,,,6159f6b637bab134ea9bb92e,62c539d607160c13dfb487c9,2022-07-06_09h31.38.956,Colour_Asymmetry_Pilot,2022.1.3,Win32,70.60650992,62c50e9c1127f2cd403a315f,0,50,50,134,1,fourtwo,,,,,,,,,,,,,,,,,,,,,,,,,,,,,,,,,,,,,,,,,,,,,,,,,,,,,,,,,,,,,,,,,,,,,,,,,,,,,,,,,,,,,,,,,,,,,,,,,,,,,,,,,,,,,,,,,,,,,,,,,,,,,,,,,,,,,,,,,,,,,,,,,,,,,,,,,,,,
,,,,,,6159f6b637bab134ea9bb92e,62c539d607160c13dfb487c9,2022-07-06_09h31.38.956,Colour_Asymmetry_Pilot,2022.1.3,Win32,70.60650992,62c50e9c1127f2cd403a315f,0,51,51,23,1,fourthree,,,,,,,,,,,,,,,,,,,,,,,,,,,,,,,,,,,,,,,,,,,,,,,,,,,,,,,,,,,,,,,,,,,,,,,,,,,,,,,,,,,,,,,,,,,,,,,,,,,,,,,,,,,,,,,,,,,,,,,,,,,,,,,,,,,,,,,,,,,,,,,,,,,,,,,,,,,,
,,,,,,6159f6b637bab134ea9bb92e,62c539d607160c13dfb487c9,2022-07-06_09h31.38.956,Colour_Asymmetry_Pilot,2022.1.3,Win32,70.60650992,62c50e9c1127f2cd403a315f,0,52,52,103,1,fourthree,,,,,,,,,,,,,,,,,,,,,,,,,,,,,,,,,,,,,,,,,,,,,,,,,,,,,,,,,,,,,,,,,,,,,,,,,,,,,,,,,,,,,,,,,,,,,,,,,,,,,,,,,,,,,,,,,,,,,,,,,,,,,,,,,,,,,,,,,,,,,,,,,,,,,,,,,,,,
,,,,,,6159f6b637bab134ea9bb92e,62c539d607160c13dfb487c9,2022-07-06_09h31.38.956,Colour_Asymmetry_Pilot,2022.1.3,Win32,70.60650992,62c50e9c1127f2cd403a315f,0,53,53,64,1,onetwo,,,,,,,,,,,,,,,,,,,,,,,,,,,,,,,,,,,,,,,,,,,,,,,,,,,,,,,,,,,,,,,,,,,,,,,,,,,,,,,,,,,,,,,,,,,,,,,,,,,,,,,,,,,,,,,,,,,,,,,,,,,,,,,,,,,,,,,,,,,,,,,,,,,,,,,,,,,,
,,,,,,6159f6b637bab134ea9bb92e,62c539d607160c13dfb487c9,2022-07-06_09h31.38.956,Colour_Asymmetry_Pilot,2022.1.3,Win32,70.60650992,62c50e9c1127f2cd403a315f,0,54,54,144,1,onetwo,,,,,,,,,,,,,,,,,,,,,,,,,,,,,,,,,,,,,,,,,,,,,,,,,,,,,,,,,,,,,,,,,,,,,,,,,,,,,,,,,,,,,,,,,,,,,,,,,,,,,,,,,,,,,,,,,,,,,,,,,,,,,,,,,,,,,,,,,,,,,,,,,,,,,,,,,,,,
,,,,,,6159f6b637bab134ea9bb92e,62c539d607160c13dfb487c9,2022-07-06_09h31.38.956,Colour_Asymmetry_Pilot,2022.1.3,Win32,70.60650992,62c50e9c1127f2cd403a315f,0,55,55,101,1,threefour,,,,,,,,,,,,,,,,,,,,,,,,,,,,,,,,,,,,,,,,,,,,,,,,,,,,,,,,,,,,,,,,,,,,,,,,,,,,,,,,,,,,,,,,,,,,,,,,,,,,,,,,,,,,,,,,,,,,,,,,,,,,,,,,,,,,,,,,,,,,,,,,,,,,,,,,,,,,
,,,,,,6159f6b637bab134ea9bb92e,62c539d607160c13dfb487c9,2022-07-06_09h31.38.956,Colour_Asymmetry_Pilot,2022.1.3,Win32,70.60650992,62c50e9c1127f2cd403a315f,0,56,56,45,1,threefour,,,,,,,,,,,,,,,,,,,,,,,,,,,,,,,,,,,,,,,,,,,,,,,,,,,,,,,,,,,,,,,,,,,,,,,,,,,,,,,,,,,,,,,,,,,,,,,,,,,,,,,,,,,,,,,,,,,,,,,,,,,,,,,,,,,,,,,,,,,,,,,,,,,,,,,,,,,,
,,,,,,6159f6b637bab134ea9bb92e,62c539d607160c13dfb487c9,2022-07-06_09h31.38.956,Colour_Asymmetry_Pilot,2022.1.3,Win32,70.60650992,62c50e9c1127f2cd403a315f,0,57,57,72,1,onetwo,,,,,,,,,,,,,,,,,,,,,,,,,,,,,,,,,,,,,,,,,,,,,,,,,,,,,,,,,,,,,,,,,,,,,,,,,,,,,,,,,,,,,,,,,,,,,,,,,,,,,,,,,,,,,,,,,,,,,,,,,,,,,,,,,,,,,,,,,,,,,,,,,,,,,,,,,,,,
,,,,,,6159f6b637bab134ea9bb92e,62c539d607160c13dfb487c9,2022-07-06_09h31.38.956,Colour_Asymmetry_Pilot,2022.1.3,Win32,70.60650992,62c50e9c1127f2cd403a315f,0,58,58,36,1,threeone,,,,,,,,,,,,,,,,,,,,,,,,,,,,,,,,,,,,,,,,,,,,,,,,,,,,,,,,,,,,,,,,,,,,,,,,,,,,,,,,,,,,,,,,,,,,,,,,,,,,,,,,,,,,,,,,,,,,,,,,,,,,,,,,,,,,,,,,,,,,,,,,,,,,,,,,,,,,
,,,,,,6159f6b637bab134ea9bb92e,62c539d607160c13dfb487c9,2022-07-06_09h31.38.956,Colour_Asymmetry_Pilot,2022.1.3,Win32,70.60650992,62c50e9c1127f2cd403a315f,0,59,59,73,1,onethree,,,,,,,,,,,,,,,,,,,,,,,,,,,,,,,,,,,,,,,,,,,,,,,,,,,,,,,,,,,,,,,,,,,,,,,,,,,,,,,,,,,,,,,,,,,,,,,,,,,,,,,,,,,,,,,,,,,,,,,,,,,,,,,,,,,,,,,,,,,,,,,,,,,,,,,,,,,,
,,,,,,6159f6b637bab134ea9bb92e,62c539d607160c13dfb487c9,2022-07-06_09h31.38.956,Colour_Asymmetry_Pilot,2022.1.3,Win32,70.60650992,62c50e9c1127f2cd403a315f,0,60,60,139,1,twofour,,,,,,,,,,,,,,,,,,,,,,,,,,,,,,,,,,,,,,,,,,,,,,,,,,,,,,,,,,,,,,,,,,,,,,,,,,,,,,,,,,,,,,,,,,,,,,,,,,,,,,,,,,,,,,,,,,,,,,,,,,,,,,,,,,,,,,,,,,,,,,,,,,,,,,,,,,,,
,,,,,,6159f6b637bab134ea9bb92e,62c539d607160c13dfb487c9,2022-07-06_09h31.38.956,Colour_Asymmetry_Pilot,2022.1.3,Win32,70.60650992,62c50e9c1127f2cd403a315f,0,61,61,122,1,twoone,,,,,,,,,,,,,,,,,,,,,,,,,,,,,,,,,,,,,,,,,,,,,,,,,,,,,,,,,,,,,,,,,,,,,,,,,,,,,,,,,,,,,,,,,,,,,,,,,,,,,,,,,,,,,,,,,,,,,,,,,,,,,,,,,,,,,,,,,,,,,,,,,,,,,,,,,,,,
,,,,,,6159f6b637bab134ea9bb92e,62c539d607160c13dfb487c9,2022-07-06_09h31.38.956,Colour_Asymmetry_Pilot,2022.1.3,Win32,70.60650992,62c50e9c1127f2cd403a315f,0,62,62,46,1,fourtwo,,,,,,,,,,,,,,,,,,,,,,,,,,,,,,,,,,,,,,,,,,,,,,,,,,,,,,,,,,,,,,,,,,,,,,,,,,,,,,,,,,,,,,,,,,,,,,,,,,,,,,,,,,,,,,,,,,,,,,,,,,,,,,,,,,,,,,,,,,,,,,,,,,,,,,,,,,,,
,,,,,,6159f6b637bab134ea9bb92e,62c539d607160c13dfb487c9,2022-07-06_09h31.38.956,Colour_Asymmetry_Pilot,2022.1.3,Win32,70.60650992,62c50e9c1127f2cd403a315f,0,63,63,74,1,twoone,,,,,,,,,,,,,,,,,,,,,,,,,,,,,,,,,,,,,,,,,,,,,,,,,,,,,,,,,,,,,,,,,,,,,,,,,,,,,,,,,,,,,,,,,,,,,,,,,,,,,,,,,,,,,,,,,,,,,,,,,,,,,,,,,,,,,,,,,,,,,,,,,,,,,,,,,,,,
,,,,,,6159f6b637bab134ea9bb92e,62c539d607160c13dfb487c9,2022-07-06_09h31.38.956,Colour_Asymmetry_Pilot,2022.1.3,Win32,70.60650992,62c50e9c1127f2cd403a315f,0,64,64,136,1,onetwo,,,,,,,,,,,,,,,,,,,,,,,,,,,,,,,,,,,,,,,,,,,,,,,,,,,,,,,,,,,,,,,,,,,,,,,,,,,,,,,,,,,,,,,,,,,,,,,,,,,,,,,,,,,,,,,,,,,,,,,,,,,,,,,,,,,,,,,,,,,,,,,,,,,,,,,,,,,,
,,,,,,6159f6b637bab134ea9bb92e,62c539d607160c13dfb487c9,2022-07-06_09h31.38.956,Colour_Asymmetry_Pilot,2022.1.3,Win32,70.60650992,62c50e9c1127f2cd403a315f,0,65,65,37,1,threefour,,,,,,,,,,,,,,,,,,,,,,,,,,,,,,,,,,,,,,,,,,,,,,,,,,,,,,,,,,,,,,,,,,,,,,,,,,,,,,,,,,,,,,,,,,,,,,,,,,,,,,,,,,,,,,,,,,,,,,,,,,,,,,,,,,,,,,,,,,,,,,,,,,,,,,,,,,,,
,,,,,,6159f6b637bab134ea9bb92e,62c539d607160c13dfb487c9,2022-07-06_09h31.38.956,Colour_Asymmetry_Pilot,2022.1.3,Win32,70.60650992,62c50e9c1127f2cd403a315f,0,66,66,18,1,twoone,,,,,,,,,,,,,,,,,,,,,,,,,,,,,,,,,,,,,,,,,,,,,,,,,,,,,,,,,,,,,,,,,,,,,,,,,,,,,,,,,,,,,,,,,,,,,,,,,,,,,,,,,,,,,,,,,,,,,,,,,,,,,,,,,,,,,,,,,,,,,,,,,,,,,,,,,,,,
,,,,,,6159f6b637bab134ea9bb92e,62c539d607160c13dfb487c9,2022-07-06_09h31.38.956,Colour_Asymmetry_Pilot,2022.1.3,Win32,70.60650992,62c50e9c1127f2cd403a315f,0,67,67,119,1,fourthree,,,,,,,,,,,,,,,,,,,,,,,,,,,,,,,,,,,,,,,,,,,,,,,,,,,,,,,,,,,,,,,,,,,,,,,,,,,,,,,,,,,,,,,,,,,,,,,,,,,,,,,,,,,,,,,,,,,,,,,,,,,,,,,,,,,,,,,,,,,,,,,,,,,,,,,,,,,,
,,,,,,6159f6b637bab134ea9bb92e,62c539d607160c13dfb487c9,2022-07-06_09h31.38.956,Colour_Asymmetry_Pilot,2022.1.3,Win32,70.60650992,62c50e9c1127f2cd403a315f,0,68,68,0,1,onetwo,,,,,,,,,,,,,,,,,,,,,,,,,,,,,,,,,,,,,,,,,,,,,,,,,,,,,,,,,,,,,,,,,,,,,,,,,,,,,,,,,,,,,,,,,,,,,,,,,,,,,,,,,,,,,,,,,,,,,,,,,,,,,,,,,,,,,,,,,,,,,,,,,,,,,,,,,,,,
,,,,,,6159f6b637bab134ea9bb92e,62c539d607160c13dfb487c9,2022-07-06_09h31.38.956,Colour_Asymmetry_Pilot,2022.1.3,Win32,70.60650992,62c50e9c1127f2cd403a315f,0,69,69,54,1,fourtwo,,,,,,,,,,,,,,,,,,,,,,,,,,,,,,,,,,,,,,,,,,,,,,,,,,,,,,,,,,,,,,,,,,,,,,,,,,,,,,,,,,,,,,,,,,,,,,,,,,,,,,,,,,,,,,,,,,,,,,,,,,,,,,,,,,,,,,,,,,,,,,,,,,,,,,,,,,,,
,,,,,,6159f6b637bab134ea9bb92e,62c539d607160c13dfb487c9,2022-07-06_09h31.38.956,Colour_Asymmetry_Pilot,2022.1.3,Win32,70.60650992,62c50e9c1127f2cd403a315f,0,70,70,78,1,fourtwo,,,,,,,,,,,,,,,,,,,,,,,,,,,,,,,,,,,,,,,,,,,,,,,,,,,,,,,,,,,,,,,,,,,,,,,,,,,,,,,,,,,,,,,,,,,,,,,,,,,,,,,,,,,,,,,,,,,,,,,,,,,,,,,,,,,,,,,,,,,,,,,,,,,,,,,,,,,,
,,,,,,6159f6b637bab134ea9bb92e,62c539d607160c13dfb487c9,2022-07-06_09h31.38.956,Colour_Asymmetry_Pilot,2022.1.3,Win32,70.60650992,62c50e9c1127f2cd403a315f,0,71,71,90,1,twoone,,,,,,,,,,,,,,,,,,,,,,,,,,,,,,,,,,,,,,,,,,,,,,,,,,,,,,,,,,,,,,,,,,,,,,,,,,,,,,,,,,,,,,,,,,,,,,,,,,,,,,,,,,,,,,,,,,,,,,,,,,,,,,,,,,,,,,,,,,,,,,,,,,,,,,,,,,,,
,,,,,,6159f6b637bab134ea9bb92e,62c539d607160c13dfb487c9,2022-07-06_09h31.38.956,Colour_Asymmetry_Pilot,2022.1.3,Win32,70.60650992,62c50e9c1127f2cd403a315f,0,72,72,142,1,fourtwo,,,,,,,,,,,,,,,,,,,,,,,,,,,,,,,,,,,,,,,,,,,,,,,,,,,,,,,,,,,,,,,,,,,,,,,,,,,,,,,,,,,,,,,,,,,,,,,,,,,,,,,,,,,,,,,,,,,,,,,,,,,,,,,,,,,,,,,,,,,,,,,,,,,,,,,,,,,,
,,,,,,6159f6b637bab134ea9bb92e,62c539d607160c13dfb487c9,2022-07-06_09h31.38.956,Colour_Asymmetry_Pilot,2022.1.3,Win32,70.60650992,62c50e9c1127f2cd403a315f,0,73,73,98,1,twoone,,,,,,,,,,,,,,,,,,,,,,,,,,,,,,,,,,,,,,,,,,,,,,,,,,,,,,,,,,,,,,,,,,,,,,,,,,,,,,,,,,,,,,,,,,,,,,,,,,,,,,,,,,,,,,,,,,,,,,,,,,,,,,,,,,,,,,,,,,,,,,,,,,,,,,,,,,,,
,,,,,,6159f6b637bab134ea9bb92e,62c539d607160c13dfb487c9,2022-07-06_09h31.38.956,Colour_Asymmetry_Pilot,2022.1.3,Win32,70.60650992,62c50e9c1127f2cd403a315f,0,74,74,10,1,twoone,,,,,,,,,,,,,,,,,,,,,,,,,,,,,,,,,,,,,,,,,,,,,,,,,,,,,,,,,,,,,,,,,,,,,,,,,,,,,,,,,,,,,,,,,,,,,,,,,,,,,,,,,,,,,,,,,,,,,,,,,,,,,,,,,,,,,,,,,,,,,,,,,,,,,,,,,,,,
,,,,,,6159f6b637bab134ea9bb92e,62c539d607160c13dfb487c9,2022-07-06_09h31.38.956,Colour_Asymmetry_Pilot,2022.1.3,Win32,70.60650992,62c50e9c1127f2cd403a315f,0,75,75,130,1,twoone,,,,,,,,,,,,,,,,,,,,,,,,,,,,,,,,,,,,,,,,,,,,,,,,,,,,,,,,,,,,,,,,,,,,,,,,,,,,,,,,,,,,,,,,,,,,,,,,,,,,,,,,,,,,,,,,,,,,,,,,,,,,,,,,,,,,,,,,,,,,,,,,,,,,,,,,,,,,
,,,,,,6159f6b637bab134ea9bb92e,62c539d607160c13dfb487c9,2022-07-06_09h31.38.956,Colour_Asymmetry_Pilot,2022.1.3,Win32,70.60650992,62c50e9c1127f2cd403a315f,0,76,76,58,1,twoone,,,,,,,,,,,,,,,,,,,,,,,,,,,,,,,,,,,,,,,,,,,,,,,,,,,,,,,,,,,,,,,,,,,,,,,,,,,,,,,,,,,,,,,,,,,,,,,,,,,,,,,,,,,,,,,,,,,,,,,,,,,,,,,,,,,,,,,,,,,,,,,,,,,,,,,,,,,,
,,,,,,6159f6b637bab134ea9bb92e,62c539d607160c13dfb487c9,2022-07-06_09h31.38.956,Colour_Asymmetry_Pilot,2022.1.3,Win32,70.60650992,62c50e9c1127f2cd403a315f,0,77,77,38,1,fourtwo,,,,,,,,,,,,,,,,,,,,,,,,,,,,,,,,,,,,,,,,,,,,,,,,,,,,,,,,,,,,,,,,,,,,,,,,,,,,,,,,,,,,,,,,,,,,,,,,,,,,,,,,,,,,,,,,,,,,,,,,,,,,,,,,,,,,,,,,,,,,,,,,,,,,,,,,,,,,
,,,,,,6159f6b637bab134ea9bb92e,62c539d607160c13dfb487c9,2022-07-06_09h31.38.956,Colour_Asymmetry_Pilot,2022.1.3,Win32,70.60650992,62c50e9c1127f2cd403a315f,0,78,78,11,1,twofour,,,,,,,,,,,,,,,,,,,,,,,,,,,,,,,,,,,,,,,,,,,,,,,,,,,,,,,,,,,,,,,,,,,,,,,,,,,,,,,,,,,,,,,,,,,,,,,,,,,,,,,,,,,,,,,,,,,,,,,,,,,,,,,,,,,,,,,,,,,,,,,,,,,,,,,,,,,,
,,,,,,6159f6b637bab134ea9bb92e,62c539d607160c13dfb487c9,2022-07-06_09h31.38.956,Colour_Asymmetry_Pilot,2022.1.3,Win32,70.60650992,62c50e9c1127f2cd403a315f,0,79,79,79,1,fourthree,,,,,,,,,,,,,,,,,,,,,,,,,,,,,,,,,,,,,,,,,,,,,,,,,,,,,,,,,,,,,,,,,,,,,,,,,,,,,,,,,,,,,,,,,,,,,,,,,,,,,,,,,,,,,,,,,,,,,,,,,,,,,,,,,,,,,,,,,,,,,,,,,,,,,,,,,,,,
,,,,,,6159f6b637bab134ea9bb92e,62c539d607160c13dfb487c9,2022-07-06_09h31.38.956,Colour_Asymmetry_Pilot,2022.1.3,Win32,70.60650992,62c50e9c1127f2cd403a315f,0,80,80,19,1,twofour,,,,,,,,,,,,,,,,,,,,,,,,,,,,,,,,,,,,,,,,,,,,,,,,,,,,,,,,,,,,,,,,,,,,,,,,,,,,,,,,,,,,,,,,,,,,,,,,,,,,,,,,,,,,,,,,,,,,,,,,,,,,,,,,,,,,,,,,,,,,,,,,,,,,,,,,,,,,
,,,,,,6159f6b637bab134ea9bb92e,62c539d607160c13dfb487c9,2022-07-06_09h31.38.956,Colour_Asymmetry_Pilot,2022.1.3,Win32,70.60650992,62c50e9c1127f2cd403a315f,0,81,81,111,1,fourthree,,,,,,,,,,,,,,,,,,,,,,,,,,,,,,,,,,,,,,,,,,,,,,,,,,,,,,,,,,,,,,,,,,,,,,,,,,,,,,,,,,,,,,,,,,,,,,,,,,,,,,,,,,,,,,,,,,,,,,,,,,,,,,,,,,,,,,,,,,,,,,,,,,,,,,,,,,,,
,,,,,,6159f6b637bab134ea9bb92e,62c539d607160c13dfb487c9,2022-07-06_09h31.38.956,Colour_Asymmetry_Pilot,2022.1.3,Win32,70.60650992,62c50e9c1127f2cd403a315f,0,82,82,7,1,fourthree,,,,,,,,,,,,,,,,,,,,,,,,,,,,,,,,,,,,,,,,,,,,,,,,,,,,,,,,,,,,,,,,,,,,,,,,,,,,,,,,,,,,,,,,,,,,,,,,,,,,,,,,,,,,,,,,,,,,,,,,,,,,,,,,,,,,,,,,,,,,,,,,,,,,,,,,,,,,
,,,,,,6159f6b637bab134ea9bb92e,62c539d607160c13dfb487c9,2022-07-06_09h31.38.956,Colour_Asymmetry_Pilot,2022.1.3,Win32,70.60650992,62c50e9c1127f2cd403a315f,0,83,83,132,1,threeone,,,,,,,,,,,,,,,,,,,,,,,,,,,,,,,,,,,,,,,,,,,,,,,,,,,,,,,,,,,,,,,,,,,,,,,,,,,,,,,,,,,,,,,,,,,,,,,,,,,,,,,,,,,,,,,,,,,,,,,,,,,,,,,,,,,,,,,,,,,,,,,,,,,,,,,,,,,,
,,,,,,6159f6b637bab134ea9bb92e,62c539d607160c13dfb487c9,2022-07-06_09h31.38.956,Colour_Asymmetry_Pilot,2022.1.3,Win32,70.60650992,62c50e9c1127f2cd403a315f,0,84,84,20,1,threeone,,,,,,,,,,,,,,,,,,,,,,,,,,,,,,,,,,,,,,,,,,,,,,,,,,,,,,,,,,,,,,,,,,,,,,,,,,,,,,,,,,,,,,,,,,,,,,,,,,,,,,,,,,,,,,,,,,,,,,,,,,,,,,,,,,,,,,,,,,,,,,,,,,,,,,,,,,,,
,,,,,,6159f6b637bab134ea9bb92e,62c539d607160c13dfb487c9,2022-07-06_09h31.38.956,Colour_Asymmetry_Pilot,2022.1.3,Win32,70.60650992,62c50e9c1127f2cd403a315f,0,85,85,138,1,twoone,,,,,,,,,,,,,,,,,,,,,,,,,,,,,,,,,,,,,,,,,,,,,,,,,,,,,,,,,,,,,,,,,,,,,,,,,,,,,,,,,,,,,,,,,,,,,,,,,,,,,,,,,,,,,,,,,,,,,,,,,,,,,,,,,,,,,,,,,,,,,,,,,,,,,,,,,,,,
,,,,,,6159f6b637bab134ea9bb92e,62c539d607160c13dfb487c9,2022-07-06_09h31.38.956,Colour_Asymmetry_Pilot,2022.1.3,Win32,70.60650992,62c50e9c1127f2cd403a315f,0,86,86,106,1,twoone,,,,,,,,,,,,,,,,,,,,,,,,,,,,,,,,,,,,,,,,,,,,,,,,,,,,,,,,,,,,,,,,,,,,,,,,,,,,,,,,,,,,,,,,,,,,,,,,,,,,,,,,,,,,,,,,,,,,,,,,,,,,,,,,,,,,,,,,,,,,,,,,,,,,,,,,,,,,
,,,,,,6159f6b637bab134ea9bb92e,62c539d607160c13dfb487c9,2022-07-06_09h31.38.956,Colour_Asymmetry_Pilot,2022.1.3,Win32,70.60650992,62c50e9c1127f2cd403a315f,0,87,87,61,1,threefour,,,,,,,,,,,,,,,,,,,,,,,,,,,,,,,,,,,,,,,,,,,,,,,,,,,,,,,,,,,,,,,,,,,,,,,,,,,,,,,,,,,,,,,,,,,,,,,,,,,,,,,,,,,,,,,,,,,,,,,,,,,,,,,,,,,,,,,,,,,,,,,,,,,,,,,,,,,,
,,,,,,6159f6b637bab134ea9bb92e,62c539d607160c13dfb487c9,2022-07-06_09h31.38.956,Colour_Asymmetry_Pilot,2022.1.3,Win32,70.60650992,62c50e9c1127f2cd403a315f,0,88,88,69,1,threefour,,,,,,,,,,,,,,,,,,,,,,,,,,,,,,,,,,,,,,,,,,,,,,,,,,,,,,,,,,,,,,,,,,,,,,,,,,,,,,,,,,,,,,,,,,,,,,,,,,,,,,,,,,,,,,,,,,,,,,,,,,,,,,,,,,,,,,,,,,,,,,,,,,,,,,,,,,,,
,,,,,,6159f6b637bab134ea9bb92e,62c539d607160c13dfb487c9,2022-07-06_09h31.38.956,Colour_Asymmetry_Pilot,2022.1.3,Win32,70.60650992,62c50e9c1127f2cd403a315f,0,89,89,123,1,twofour,,,,,,,,,,,,,,,,,,,,,,,,,,,,,,,,,,,,,,,,,,,,,,,,,,,,,,,,,,,,,,,,,,,,,,,,,,,,,,,,,,,,,,,,,,,,,,,,,,,,,,,,,,,,,,,,,,,,,,,,,,,,,,,,,,,,,,,,,,,,,,,,,,,,,,,,,,,,
,,,,,,6159f6b637bab134ea9bb92e,62c539d607160c13dfb487c9,2022-07-06_09h31.38.956,Colour_Asymmetry_Pilot,2022.1.3,Win32,70.60650992,62c50e9c1127f2cd403a315f,0,90,90,100,1,threeone,,,,,,,,,,,,,,,,,,,,,,,,,,,,,,,,,,,,,,,,,,,,,,,,,,,,,,,,,,,,,,,,,,,,,,,,,,,,,,,,,,,,,,,,,,,,,,,,,,,,,,,,,,,,,,,,,,,,,,,,,,,,,,,,,,,,,,,,,,,,,,,,,,,,,,,,,,,,
,,,,,,6159f6b637bab134ea9bb92e,62c539d607160c13dfb487c9,2022-07-06_09h31.38.956,Colour_Asymmetry_Pilot,2022.1.3,Win32,70.60650992,62c50e9c1127f2cd403a315f,0,91,91,96,1,onetwo,,,,,,,,,,,,,,,,,,,,,,,,,,,,,,,,,,,,,,,,,,,,,,,,,,,,,,,,,,,,,,,,,,,,,,,,,,,,,,,,,,,,,,,,,,,,,,,,,,,,,,,,,,,,,,,,,,,,,,,,,,,,,,,,,,,,,,,,,,,,,,,,,,,,,,,,,,,,
,,,,,,6159f6b637bab134ea9bb92e,62c539d607160c13dfb487c9,2022-07-06_09h31.38.956,Colour_Asymmetry_Pilot,2022.1.3,Win32,70.60650992,62c50e9c1127f2cd403a315f,0,92,92,52,1,threeone,,,,,,,,,,,,,,,,,,,,,,,,,,,,,,,,,,,,,,,,,,,,,,,,,,,,,,,,,,,,,,,,,,,,,,,,,,,,,,,,,,,,,,,,,,,,,,,,,,,,,,,,,,,,,,,,,,,,,,,,,,,,,,,,,,,,,,,,,,,,,,,,,,,,,,,,,,,,
,,,,,,6159f6b637bab134ea9bb92e,62c539d607160c13dfb487c9,2022-07-06_09h31.38.956,Colour_Asymmetry_Pilot,2022.1.3,Win32,70.60650992,62c50e9c1127f2cd403a315f,0,93,93,13,1,threefour,,,,,,,,,,,,,,,,,,,,,,,,,,,,,,,,,,,,,,,,,,,,,,,,,,,,,,,,,,,,,,,,,,,,,,,,,,,,,,,,,,,,,,,,,,,,,,,,,,,,,,,,,,,,,,,,,,,,,,,,,,,,,,,,,,,,,,,,,,,,,,,,,,,,,,,,,,,,
,,,,,,6159f6b637bab134ea9bb92e,62c539d607160c13dfb487c9,2022-07-06_09h31.38.956,Colour_Asymmetry_Pilot,2022.1.3,Win32,70.60650992,62c50e9c1127f2cd403a315f,0,94,94,118,1,fourtwo,,,,,,,,,,,,,,,,,,,,,,,,,,,,,,,,,,,,,,,,,,,,,,,,,,,,,,,,,,,,,,,,,,,,,,,,,,,,,,,,,,,,,,,,,,,,,,,,,,,,,,,,,,,,,,,,,,,,,,,,,,,,,,,,,,,,,,,,,,,,,,,,,,,,,,,,,,,,
,,,,,,6159f6b637bab134ea9bb92e,62c539d607160c13dfb487c9,2022-07-06_09h31.38.956,Colour_Asymmetry_Pilot,2022.1.3,Win32,70.60650992,62c50e9c1127f2cd403a315f,0,95,95,43,1,twofour,,,,,,,,,,,,,,,,,,,,,,,,,,,,,,,,,,,,,,,,,,,,,,,,,,,,,,,,,,,,,,,,,,,,,,,,,,,,,,,,,,,,,,,,,,,,,,,,,,,,,,,,,,,,,,,,,,,,,,,,,,,,,,,,,,,,,,,,,,,,,,,,,,,,,,,,,,,,
,,,,,,6159f6b637bab134ea9bb92e,62c539d607160c13dfb487c9,2022-07-06_09h31.38.956,Colour_Asymmetry_Pilot,2022.1.3,Win32,70.60650992,62c50e9c1127f2cd403a315f,0,96,96,152,1,onetwo,,,,,,,,,,,,,,,,,,,,,,,,,,,,,,,,,,,,,,,,,,,,,,,,,,,,,,,,,,,,,,,,,,,,,,,,,,,,,,,,,,,,,,,,,,,,,,,,,,,,,,,,,,,,,,,,,,,,,,,,,,,,,,,,,,,,,,,,,,,,,,,,,,,,,,,,,,,,
,,,,,,6159f6b637bab134ea9bb92e,62c539d607160c13dfb487c9,2022-07-06_09h31.38.956,Colour_Asymmetry_Pilot,2022.1.3,Win32,70.60650992,62c50e9c1127f2cd403a315f,0,97,97,40,1,onetwo,,,,,,,,,,,,,,,,,,,,,,,,,,,,,,,,,,,,,,,,,,,,,,,,,,,,,,,,,,,,,,,,,,,,,,,,,,,,,,,,,,,,,,,,,,,,,,,,,,,,,,,,,,,,,,,,,,,,,,,,,,,,,,,,,,,,,,,,,,,,,,,,,,,,,,,,,,,,
,,,,,,6159f6b637bab134ea9bb92e,62c539d607160c13dfb487c9,2022-07-06_09h31.38.956,Colour_Asymmetry_Pilot,2022.1.3,Win32,70.60650992,62c50e9c1127f2cd403a315f,0,98,98,151,1,fourthree,,,,,,,,,,,,,,,,,,,,,,,,,,,,,,,,,,,,,,,,,,,,,,,,,,,,,,,,,,,,,,,,,,,,,,,,,,,,,,,,,,,,,,,,,,,,,,,,,,,,,,,,,,,,,,,,,,,,,,,,,,,,,,,,,,,,,,,,,,,,,,,,,,,,,,,,,,,,
,,,,,,6159f6b637bab134ea9bb92e,62c539d607160c13dfb487c9,2022-07-06_09h31.38.956,Colour_Asymmetry_Pilot,2022.1.3,Win32,70.60650992,62c50e9c1127f2cd403a315f,0,99,99,120,1,onetwo,,,,,,,,,,,,,,,,,,,,,,,,,,,,,,,,,,,,,,,,,,,,,,,,,,,,,,,,,,,,,,,,,,,,,,,,,,,,,,,,,,,,,,,,,,,,,,,,,,,,,,,,,,,,,,,,,,,,,,,,,,,,,,,,,,,,,,,,,,,,,,,,,,,,,,,,,,,,
,,,,,,6159f6b637bab134ea9bb92e,62c539d607160c13dfb487c9,2022-07-06_09h31.38.956,Colour_Asymmetry_Pilot,2022.1.3,Win32,70.60650992,62c50e9c1127f2cd403a315f,0,100,100,71,1,fourthree,,,,,,,,,,,,,,,,,,,,,,,,,,,,,,,,,,,,,,,,,,,,,,,,,,,,,,,,,,,,,,,,,,,,,,,,,,,,,,,,,,,,,,,,,,,,,,,,,,,,,,,,,,,,,,,,,,,,,,,,,,,,,,,,,,,,,,,,,,,,,,,,,,,,,,,,,,,,
,,,,,,6159f6b637bab134ea9bb92e,62c539d607160c13dfb487c9,2022-07-06_09h31.38.956,Colour_Asymmetry_Pilot,2022.1.3,Win32,70.60650992,62c50e9c1127f2cd403a315f,0,101,101,108,1,threeone,,,,,,,,,,,,,,,,,,,,,,,,,,,,,,,,,,,,,,,,,,,,,,,,,,,,,,,,,,,,,,,,,,,,,,,,,,,,,,,,,,,,,,,,,,,,,,,,,,,,,,,,,,,,,,,,,,,,,,,,,,,,,,,,,,,,,,,,,,,,,,,,,,,,,,,,,,,,
,,,,,,6159f6b637bab134ea9bb92e,62c539d607160c13dfb487c9,2022-07-06_09h31.38.956,Colour_Asymmetry_Pilot,2022.1.3,Win32,70.60650992,62c50e9c1127f2cd403a315f,0,102,102,83,1,twofour,,,,,,,,,,,,,,,,,,,,,,,,,,,,,,,,,,,,,,,,,,,,,,,,,,,,,,,,,,,,,,,,,,,,,,,,,,,,,,,,,,,,,,,,,,,,,,,,,,,,,,,,,,,,,,,,,,,,,,,,,,,,,,,,,,,,,,,,,,,,,,,,,,,,,,,,,,,,
,,,,,,6159f6b637bab134ea9bb92e,62c539d607160c13dfb487c9,2022-07-06_09h31.38.956,Colour_Asymmetry_Pilot,2022.1.3,Win32,70.60650992,62c50e9c1127f2cd403a315f,0,103,103,121,1,onethree,,,,,,,,,,,,,,,,,,,,,,,,,,,,,,,,,,,,,,,,,,,,,,,,,,,,,,,,,,,,,,,,,,,,,,,,,,,,,,,,,,,,,,,,,,,,,,,,,,,,,,,,,,,,,,,,,,,,,,,,,,,,,,,,,,,,,,,,,,,,,,,,,,,,,,,,,,,,
,,,,,,6159f6b637bab134ea9bb92e,62c539d607160c13dfb487c9,2022-07-06_09h31.38.956,Colour_Asymmetry_Pilot,2022.1.3,Win32,70.60650992,62c50e9c1127f2cd403a315f,0,104,104,27,1,twofour,,,,,,,,,,,,,,,,,,,,,,,,,,,,,,,,,,,,,,,,,,,,,,,,,,,,,,,,,,,,,,,,,,,,,,,,,,,,,,,,,,,,,,,,,,,,,,,,,,,,,,,,,,,,,,,,,,,,,,,,,,,,,,,,,,,,,,,,,,,,,,,,,,,,,,,,,,,,
,,,,,,6159f6b637bab134ea9bb92e,62c539d607160c13dfb487c9,2022-07-06_09h31.38.956,Colour_Asymmetry_Pilot,2022.1.3,Win32,70.60650992,62c50e9c1127f2cd403a315f,0,105,105,161,1,onethree,,,,,,,,,,,,,,,,,,,,,,,,,,,,,,,,,,,,,,,,,,,,,,,,,,,,,,,,,,,,,,,,,,,,,,,,,,,,,,,,,,,,,,,,,,,,,,,,,,,,,,,,,,,,,,,,,,,,,,,,,,,,,,,,,,,,,,,,,,,,,,,,,,,,,,,,,,,,
,,,,,,6159f6b637bab134ea9bb92e,62c539d607160c13dfb487c9,2022-07-06_09h31.38.956,Colour_Asymmetry_Pilot,2022.1.3,Win32,70.60650992,62c50e9c1127f2cd403a315f,0,106,106,22,1,fourtwo,,,,,,,,,,,,,,,,,,,,,,,,,,,,,,,,,,,,,,,,,,,,,,,,,,,,,,,,,,,,,,,,,,,,,,,,,,,,,,,,,,,,,,,,,,,,,,,,,,,,,,,,,,,,,,,,,,,,,,,,,,,,,,,,,,,,,,,,,,,,,,,,,,,,,,,,,,,,
,,,,,,6159f6b637bab134ea9bb92e,62c539d607160c13dfb487c9,2022-07-06_09h31.38.956,Colour_Asymmetry_Pilot,2022.1.3,Win32,70.60650992,62c50e9c1127f2cd403a315f,0,107,107,104,1,onetwo,,,,,,,,,,,,,,,,,,,,,,,,,,,,,,,,,,,,,,,,,,,,,,,,,,,,,,,,,,,,,,,,,,,,,,,,,,,,,,,,,,,,,,,,,,,,,,,,,,,,,,,,,,,,,,,,,,,,,,,,,,,,,,,,,,,,,,,,,,,,,,,,,,,,,,,,,,,,
,,,,,,6159f6b637bab134ea9bb92e,62c539d607160c13dfb487c9,2022-07-06_09h31.38.956,Colour_Asymmetry_Pilot,2022.1.3,Win32,70.60650992,62c50e9c1127f2cd403a315f,0,108,108,24,1,onetwo,,,,,,,,,,,,,,,,,,,,,,,,,,,,,,,,,,,,,,,,,,,,,,,,,,,,,,,,,,,,,,,,,,,,,,,,,,,,,,,,,,,,,,,,,,,,,,,,,,,,,,,,,,,,,,,,,,,,,,,,,,,,,,,,,,,,,,,,,,,,,,,,,,,,,,,,,,,,
,,,,,,6159f6b637bab134ea9bb92e,62c539d607160c13dfb487c9,2022-07-06_09h31.38.956,Colour_Asymmetry_Pilot,2022.1.3,Win32,70.60650992,62c50e9c1127f2cd403a315f,0,109,109,126,1,fourtwo,,,,,,,,,,,,,,,,,,,,,,,,,,,,,,,,,,,,,,,,,,,,,,,,,,,,,,,,,,,,,,,,,,,,,,,,,,,,,,,,,,,,,,,,,,,,,,,,,,,,,,,,,,,,,,,,,,,,,,,,,,,,,,,,,,,,,,,,,,,,,,,,,,,,,,,,,,,,
,,,,,,6159f6b637bab134ea9bb92e,62c539d607160c13dfb487c9,2022-07-06_09h31.38.956,Colour_Asymmetry_Pilot,2022.1.3,Win32,70.60650992,62c50e9c1127f2cd403a315f,0,110,110,56,1,onetwo,,,,,,,,,,,,,,,,,,,,,,,,,,,,,,,,,,,,,,,,,,,,,,,,,,,,,,,,,,,,,,,,,,,,,,,,,,,,,,,,,,,,,,,,,,,,,,,,,,,,,,,,,,,,,,,,,,,,,,,,,,,,,,,,,,,,,,,,,,,,,,,,,,,,,,,,,,,,
,,,,,,6159f6b637bab134ea9bb92e,62c539d607160c13dfb487c9,2022-07-06_09h31.38.956,Colour_Asymmetry_Pilot,2022.1.3,Win32,70.60650992,62c50e9c1127f2cd403a315f,0,111,111,125,1,threefour,,,,,,,,,,,,,,,,,,,,,,,,,,,,,,,,,,,,,,,,,,,,,,,,,,,,,,,,,,,,,,,,,,,,,,,,,,,,,,,,,,,,,,,,,,,,,,,,,,,,,,,,,,,,,,,,,,,,,,,,,,,,,,,,,,,,,,,,,,,,,,,,,,,,,,,,,,,,
,,,,,,6159f6b637bab134ea9bb92e,62c539d607160c13dfb487c9,2022-07-06_09h31.38.956,Colour_Asymmetry_Pilot,2022.1.3,Win32,70.60650992,62c50e9c1127f2cd403a315f,0,112,112,94,1,fourtwo,,,,,,,,,,,,,,,,,,,,,,,,,,,,,,,,,,,,,,,,,,,,,,,,,,,,,,,,,,,,,,,,,,,,,,,,,,,,,,,,,,,,,,,,,,,,,,,,,,,,,,,,,,,,,,,,,,,,,,,,,,,,,,,,,,,,,,,,,,,,,,,,,,,,,,,,,,,,
,,,,,,6159f6b637bab134ea9bb92e,62c539d607160c13dfb487c9,2022-07-06_09h31.38.956,Colour_Asymmetry_Pilot,2022.1.3,Win32,70.60650992,62c50e9c1127f2cd403a315f,0,113,113,133,1,threefour,,,,,,,,,,,,,,,,,,,,,,,,,,,,,,,,,,,,,,,,,,,,,,,,,,,,,,,,,,,,,,,,,,,,,,,,,,,,,,,,,,,,,,,,,,,,,,,,,,,,,,,,,,,,,,,,,,,,,,,,,,,,,,,,,,,,,,,,,,,,,,,,,,,,,,,,,,,,
,,,,,,6159f6b637bab134ea9bb92e,62c539d607160c13dfb487c9,2022-07-06_09h31.38.956,Colour_Asymmetry_Pilot,2022.1.3,Win32,70.60650992,62c50e9c1127f2cd403a315f,0,114,114,124,1,threeone,,,,,,,,,,,,,,,,,,,,,,,,,,,,,,,,,,,,,,,,,,,,,,,,,,,,,,,,,,,,,,,,,,,,,,,,,,,,,,,,,,,,,,,,,,,,,,,,,,,,,,,,,,,,,,,,,,,,,,,,,,,,,,,,,,,,,,,,,,,,,,,,,,,,,,,,,,,,
,,,,,,6159f6b637bab134ea9bb92e,62c539d607160c13dfb487c9,2022-07-06_09h31.38.956,Colour_Asymmetry_Pilot,2022.1.3,Win32,70.60650992,62c50e9c1127f2cd403a315f,0,115,115,110,1,fourtwo,,,,,,,,,,,,,,,,,,,,,,,,,,,,,,,,,,,,,,,,,,,,,,,,,,,,,,,,,,,,,,,,,,,,,,,,,,,,,,,,,,,,,,,,,,,,,,,,,,,,,,,,,,,,,,,,,,,,,,,,,,,,,,,,,,,,,,,,,,,,,,,,,,,,,,,,,,,,
,,,,,,6159f6b637bab134ea9bb92e,62c539d607160c13dfb487c9,2022-07-06_09h31.38.956,Colour_Asymmetry_Pilot,2022.1.3,Win32,70.60650992,62c50e9c1127f2cd403a315f,0,116,116,30,1,fourtwo,,,,,,,,,,,,,,,,,,,,,,,,,,,,,,,,,,,,,,,,,,,,,,,,,,,,,,,,,,,,,,,,,,,,,,,,,,,,,,,,,,,,,,,,,,,,,,,,,,,,,,,,,,,,,,,,,,,,,,,,,,,,,,,,,,,,,,,,,,,,,,,,,,,,,,,,,,,,
,,,,,,6159f6b637bab134ea9bb92e,62c539d607160c13dfb487c9,2022-07-06_09h31.38.956,Colour_Asymmetry_Pilot,2022.1.3,Win32,70.60650992,62c50e9c1127f2cd403a315f,0,117,117,53,1,threefour,,,,,,,,,,,,,,,,,,,,,,,,,,,,,,,,,,,,,,,,,,,,,,,,,,,,,,,,,,,,,,,,,,,,,,,,,,,,,,,,,,,,,,,,,,,,,,,,,,,,,,,,,,,,,,,,,,,,,,,,,,,,,,,,,,,,,,,,,,,,,,,,,,,,,,,,,,,,
,,,,,,6159f6b637bab134ea9bb92e,62c539d607160c13dfb487c9,2022-07-06_09h31.38.956,Colour_Asymmetry_Pilot,2022.1.3,Win32,70.60650992,62c50e9c1127f2cd403a315f,0,118,118,6,1,fourtwo,,,,,,,,,,,,,,,,,,,,,,,,,,,,,,,,,,,,,,,,,,,,,,,,,,,,,,,,,,,,,,,,,,,,,,,,,,,,,,,,,,,,,,,,,,,,,,,,,,,,,,,,,,,,,,,,,,,,,,,,,,,,,,,,,,,,,,,,,,,,,,,,,,,,,,,,,,,,
,,,,,,6159f6b637bab134ea9bb92e,62c539d607160c13dfb487c9,2022-07-06_09h31.38.956,Colour_Asymmetry_Pilot,2022.1.3,Win32,70.60650992,62c50e9c1127f2cd403a315f,0,119,119,154,1,twoone,,,,,,,,,,,,,,,,,,,,,,,,,,,,,,,,,,,,,,,,,,,,,,,,,,,,,,,,,,,,,,,,,,,,,,,,,,,,,,,,,,,,,,,,,,,,,,,,,,,,,,,,,,,,,,,,,,,,,,,,,,,,,,,,,,,,,,,,,,,,,,,,,,,,,,,,,,,,
,,,,,,6159f6b637bab134ea9bb92e,62c539d607160c13dfb487c9,2022-07-06_09h31.38.956,Colour_Asymmetry_Pilot,2022.1.3,Win32,70.60650992,62c50e9c1127f2cd403a315f,0,120,120,12,1,threeone,,,,,,,,,,,,,,,,,,,,,,,,,,,,,,,,,,,,,,,,,,,,,,,,,,,,,,,,,,,,,,,,,,,,,,,,,,,,,,,,,,,,,,,,,,,,,,,,,,,,,,,,,,,,,,,,,,,,,,,,,,,,,,,,,,,,,,,,,,,,,,,,,,,,,,,,,,,,
,,,,,,6159f6b637bab134ea9bb92e,62c539d607160c13dfb487c9,2022-07-06_09h31.38.956,Colour_Asymmetry_Pilot,2022.1.3,Win32,70.60650992,62c50e9c1127f2cd403a315f,0,121,121,143,1,fourthree,,,,,,,,,,,,,,,,,,,,,,,,,,,,,,,,,,,,,,,,,,,,,,,,,,,,,,,,,,,,,,,,,,,,,,,,,,,,,,,,,,,,,,,,,,,,,,,,,,,,,,,,,,,,,,,,,,,,,,,,,,,,,,,,,,,,,,,,,,,,,,,,,,,,,,,,,,,,
,,,,,,6159f6b637bab134ea9bb92e,62c539d607160c13dfb487c9,2022-07-06_09h31.38.956,Colour_Asymmetry_Pilot,2022.1.3,Win32,70.60650992,62c50e9c1127f2cd403a315f,0,122,122,17,1,onethree,,,,,,,,,,,,,,,,,,,,,,,,,,,,,,,,,,,,,,,,,,,,,,,,,,,,,,,,,,,,,,,,,,,,,,,,,,,,,,,,,,,,,,,,,,,,,,,,,,,,,,,,,,,,,,,,,,,,,,,,,,,,,,,,,,,,,,,,,,,,,,,,,,,,,,,,,,,,
,,,,,,6159f6b637bab134ea9bb92e,62c539d607160c13dfb487c9,2022-07-06_09h31.38.956,Colour_Asymmetry_Pilot,2022.1.3,Win32,70.60650992,62c50e9c1127f2cd403a315f,0,123,123,28,1,threeone,,,,,,,,,,,,,,,,,,,,,,,,,,,,,,,,,,,,,,,,,,,,,,,,,,,,,,,,,,,,,,,,,,,,,,,,,,,,,,,,,,,,,,,,,,,,,,,,,,,,,,,,,,,,,,,,,,,,,,,,,,,,,,,,,,,,,,,,,,,,,,,,,,,,,,,,,,,,
,,,,,,6159f6b637bab134ea9bb92e,62c539d607160c13dfb487c9,2022-07-06_09h31.38.956,Colour_Asymmetry_Pilot,2022.1.3,Win32,70.60650992,62c50e9c1127f2cd403a315f,0,124,124,145,1,onethree,,,,,,,,,,,,,,,,,,,,,,,,,,,,,,,,,,,,,,,,,,,,,,,,,,,,,,,,,,,,,,,,,,,,,,,,,,,,,,,,,,,,,,,,,,,,,,,,,,,,,,,,,,,,,,,,,,,,,,,,,,,,,,,,,,,,,,,,,,,,,,,,,,,,,,,,,,,,
,,,,,,6159f6b637bab134ea9bb92e,62c539d607160c13dfb487c9,2022-07-06_09h31.38.956,Colour_Asymmetry_Pilot,2022.1.3,Win32,70.60650992,62c50e9c1127f2cd403a315f,0,125,125,67,1,twofour,,,,,,,,,,,,,,,,,,,,,,,,,,,,,,,,,,,,,,,,,,,,,,,,,,,,,,,,,,,,,,,,,,,,,,,,,,,,,,,,,,,,,,,,,,,,,,,,,,,,,,,,,,,,,,,,,,,,,,,,,,,,,,,,,,,,,,,,,,,,,,,,,,,,,,,,,,,,
,,,,,,6159f6b637bab134ea9bb92e,62c539d607160c13dfb487c9,2022-07-06_09h31.38.956,Colour_Asymmetry_Pilot,2022.1.3,Win32,70.60650992,62c50e9c1127f2cd403a315f,0,126,126,50,1,twoone,,,,,,,,,,,,,,,,,,,,,,,,,,,,,,,,,,,,,,,,,,,,,,,,,,,,,,,,,,,,,,,,,,,,,,,,,,,,,,,,,,,,,,,,,,,,,,,,,,,,,,,,,,,,,,,,,,,,,,,,,,,,,,,,,,,,,,,,,,,,,,,,,,,,,,,,,,,,
,,,,,,6159f6b637bab134ea9bb92e,62c539d607160c13dfb487c9,2022-07-06_09h31.38.956,Colour_Asymmetry_Pilot,2022.1.3,Win32,70.60650992,62c50e9c1127f2cd403a315f,0,127,127,60,1,threeone,,,,,,,,,,,,,,,,,,,,,,,,,,,,,,,,,,,,,,,,,,,,,,,,,,,,,,,,,,,,,,,,,,,,,,,,,,,,,,,,,,,,,,,,,,,,,,,,,,,,,,,,,,,,,,,,,,,,,,,,,,,,,,,,,,,,,,,,,,,,,,,,,,,,,,,,,,,,
,,,,,,6159f6b637bab134ea9bb92e,62c539d607160c13dfb487c9,2022-07-06_09h31.38.956,Colour_Asymmetry_Pilot,2022.1.3,Win32,70.60650992,62c50e9c1127f2cd403a315f,0,128,128,116,1,threeone,,,,,,,,,,,,,,,,,,,,,,,,,,,,,,,,,,,,,,,,,,,,,,,,,,,,,,,,,,,,,,,,,,,,,,,,,,,,,,,,,,,,,,,,,,,,,,,,,,,,,,,,,,,,,,,,,,,,,,,,,,,,,,,,,,,,,,,,,,,,,,,,,,,,,,,,,,,,
,,,,,,6159f6b637bab134ea9bb92e,62c539d607160c13dfb487c9,2022-07-06_09h31.38.956,Colour_Asymmetry_Pilot,2022.1.3,Win32,70.60650992,62c50e9c1127f2cd403a315f,0,129,129,127,1,fourthree,,,,,,,,,,,,,,,,,,,,,,,,,,,,,,,,,,,,,,,,,,,,,,,,,,,,,,,,,,,,,,,,,,,,,,,,,,,,,,,,,,,,,,,,,,,,,,,,,,,,,,,,,,,,,,,,,,,,,,,,,,,,,,,,,,,,,,,,,,,,,,,,,,,,,,,,,,,,
,,,,,,6159f6b637bab134ea9bb92e,62c539d607160c13dfb487c9,2022-07-06_09h31.38.956,Colour_Asymmetry_Pilot,2022.1.3,Win32,70.60650992,62c50e9c1127f2cd403a315f,0,130,130,15,1,fourthree,,,,,,,,,,,,,,,,,,,,,,,,,,,,,,,,,,,,,,,,,,,,,,,,,,,,,,,,,,,,,,,,,,,,,,,,,,,,,,,,,,,,,,,,,,,,,,,,,,,,,,,,,,,,,,,,,,,,,,,,,,,,,,,,,,,,,,,,,,,,,,,,,,,,,,,,,,,,
,,,,,,6159f6b637bab134ea9bb92e,62c539d607160c13dfb487c9,2022-07-06_09h31.38.956,Colour_Asymmetry_Pilot,2022.1.3,Win32,70.60650992,62c50e9c1127f2cd403a315f,0,131,131,148,1,threeone,,,,,,,,,,,,,,,,,,,,,,,,,,,,,,,,,,,,,,,,,,,,,,,,,,,,,,,,,,,,,,,,,,,,,,,,,,,,,,,,,,,,,,,,,,,,,,,,,,,,,,,,,,,,,,,,,,,,,,,,,,,,,,,,,,,,,,,,,,,,,,,,,,,,,,,,,,,,
,,,,,,6159f6b637bab134ea9bb92e,62c539d607160c13dfb487c9,2022-07-06_09h31.38.956,Colour_Asymmetry_Pilot,2022.1.3,Win32,70.60650992,62c50e9c1127f2cd403a315f,0,132,132,135,1,fourthree,,,,,,,,,,,,,,,,,,,,,,,,,,,,,,,,,,,,,,,,,,,,,,,,,,,,,,,,,,,,,,,,,,,,,,,,,,,,,,,,,,,,,,,,,,,,,,,,,,,,,,,,,,,,,,,,,,,,,,,,,,,,,,,,,,,,,,,,,,,,,,,,,,,,,,,,,,,,
,,,,,,6159f6b637bab134ea9bb92e,62c539d607160c13dfb487c9,2022-07-06_09h31.38.956,Colour_Asymmetry_Pilot,2022.1.3,Win32,70.60650992,62c50e9c1127f2cd403a315f,0,133,133,112,1,onetwo,,,,,,,,,,,,,,,,,,,,,,,,,,,,,,,,,,,,,,,,,,,,,,,,,,,,,,,,,,,,,,,,,,,,,,,,,,,,,,,,,,,,,,,,,,,,,,,,,,,,,,,,,,,,,,,,,,,,,,,,,,,,,,,,,,,,,,,,,,,,,,,,,,,,,,,,,,,,
,,,,,,6159f6b637bab134ea9bb92e,62c539d607160c13dfb487c9,2022-07-06_09h31.38.956,Colour_Asymmetry_Pilot,2022.1.3,Win32,70.60650992,62c50e9c1127f2cd403a315f,0,134,134,141,1,threefour,,,,,,,,,,,,,,,,,,,,,,,,,,,,,,,,,,,,,,,,,,,,,,,,,,,,,,,,,,,,,,,,,,,,,,,,,,,,,,,,,,,,,,,,,,,,,,,,,,,,,,,,,,,,,,,,,,,,,,,,,,,,,,,,,,,,,,,,,,,,,,,,,,,,,,,,,,,,
,,,,,,6159f6b637bab134ea9bb92e,62c539d607160c13dfb487c9,2022-07-06_09h31.38.956,Colour_Asymmetry_Pilot,2022.1.3,Win32,70.60650992,62c50e9c1127f2cd403a315f,0,135,135,48,1,onetwo,,,,,,,,,,,,,,,,,,,,,,,,,,,,,,,,,,,,,,,,,,,,,,,,,,,,,,,,,,,,,,,,,,,,,,,,,,,,,,,,,,,,,,,,,,,,,,,,,,,,,,,,,,,,,,,,,,,,,,,,,,,,,,,,,,,,,,,,,,,,,,,,,,,,,,,,,,,,
,,,,,,6159f6b637bab134ea9bb92e,62c539d607160c13dfb487c9,2022-07-06_09h31.38.956,Colour_Asymmetry_Pilot,2022.1.3,Win32,70.60650992,62c50e9c1127f2cd403a315f,0,136,136,99,1,twofour,,,,,,,,,,,,,,,,,,,,,,,,,,,,,,,,,,,,,,,,,,,,,,,,,,,,,,,,,,,,,,,,,,,,,,,,,,,,,,,,,,,,,,,,,,,,,,,,,,,,,,,,,,,,,,,,,,,,,,,,,,,,,,,,,,,,,,,,,,,,,,,,,,,,,,,,,,,,
,,,,,,6159f6b637bab134ea9bb92e,62c539d607160c13dfb487c9,2022-07-06_09h31.38.956,Colour_Asymmetry_Pilot,2022.1.3,Win32,70.60650992,62c50e9c1127f2cd403a315f,0,137,137,87,1,fourthree,,,,,,,,,,,,,,,,,,,,,,,,,,,,,,,,,,,,,,,,,,,,,,,,,,,,,,,,,,,,,,,,,,,,,,,,,,,,,,,,,,,,,,,,,,,,,,,,,,,,,,,,,,,,,,,,,,,,,,,,,,,,,,,,,,,,,,,,,,,,,,,,,,,,,,,,,,,,
,,,,,,6159f6b637bab134ea9bb92e,62c539d607160c13dfb487c9,2022-07-06_09h31.38.956,Colour_Asymmetry_Pilot,2022.1.3,Win32,70.60650992,62c50e9c1127f2cd403a315f,0,138,138,160,1,onetwo,,,,,,,,,,,,,,,,,,,,,,,,,,,,,,,,,,,,,,,,,,,,,,,,,,,,,,,,,,,,,,,,,,,,,,,,,,,,,,,,,,,,,,,,,,,,,,,,,,,,,,,,,,,,,,,,,,,,,,,,,,,,,,,,,,,,,,,,,,,,,,,,,,,,,,,,,,,,
,,,,,,6159f6b637bab134ea9bb92e,62c539d607160c13dfb487c9,2022-07-06_09h31.38.956,Colour_Asymmetry_Pilot,2022.1.3,Win32,70.60650992,62c50e9c1127f2cd403a315f,0,139,139,84,1,threeone,,,,,,,,,,,,,,,,,,,,,,,,,,,,,,,,,,,,,,,,,,,,,,,,,,,,,,,,,,,,,,,,,,,,,,,,,,,,,,,,,,,,,,,,,,,,,,,,,,,,,,,,,,,,,,,,,,,,,,,,,,,,,,,,,,,,,,,,,,,,,,,,,,,,,,,,,,,,
,,,,,,6159f6b637bab134ea9bb92e,62c539d607160c13dfb487c9,2022-07-06_09h31.38.956,Colour_Asymmetry_Pilot,2022.1.3,Win32,70.60650992,62c50e9c1127f2cd403a315f,0,140,140,59,1,twofour,,,,,,,,,,,,,,,,,,,,,,,,,,,,,,,,,,,,,,,,,,,,,,,,,,,,,,,,,,,,,,,,,,,,,,,,,,,,,,,,,,,,,,,,,,,,,,,,,,,,,,,,,,,,,,,,,,,,,,,,,,,,,,,,,,,,,,,,,,,,,,,,,,,,,,,,,,,,
,,,,,,6159f6b637bab134ea9bb92e,62c539d607160c13dfb487c9,2022-07-06_09h31.38.956,Colour_Asymmetry_Pilot,2022.1.3,Win32,70.60650992,62c50e9c1127f2cd403a315f,0,141,141,128,1,onetwo,,,,,,,,,,,,,,,,,,,,,,,,,,,,,,,,,,,,,,,,,,,,,,,,,,,,,,,,,,,,,,,,,,,,,,,,,,,,,,,,,,,,,,,,,,,,,,,,,,,,,,,,,,,,,,,,,,,,,,,,,,,,,,,,,,,,,,,,,,,,,,,,,,,,,,,,,,,,
,,,,,,6159f6b637bab134ea9bb92e,62c539d607160c13dfb487c9,2022-07-06_09h31.38.956,Colour_Asymmetry_Pilot,2022.1.3,Win32,70.60650992,62c50e9c1127f2cd403a315f,0,142,142,93,1,threefour,,,,,,,,,,,,,,,,,,,,,,,,,,,,,,,,,,,,,,,,,,,,,,,,,,,,,,,,,,,,,,,,,,,,,,,,,,,,,,,,,,,,,,,,,,,,,,,,,,,,,,,,,,,,,,,,,,,,,,,,,,,,,,,,,,,,,,,,,,,,,,,,,,,,,,,,,,,,
,,,,,,6159f6b637bab134ea9bb92e,62c539d607160c13dfb487c9,2022-07-06_09h31.38.956,Colour_Asymmetry_Pilot,2022.1.3,Win32,70.60650992,62c50e9c1127f2cd403a315f,0,143,143,63,1,fourthree,,,,,,,,,,,,,,,,,,,,,,,,,,,,,,,,,,,,,,,,,,,,,,,,,,,,,,,,,,,,,,,,,,,,,,,,,,,,,,,,,,,,,,,,,,,,,,,,,,,,,,,,,,,,,,,,,,,,,,,,,,,,,,,,,,,,,,,,,,,,,,,,,,,,,,,,,,,,
,,,,,,6159f6b637bab134ea9bb92e,62c539d607160c13dfb487c9,2022-07-06_09h31.38.956,Colour_Asymmetry_Pilot,2022.1.3,Win32,70.60650992,62c50e9c1127f2cd403a315f,0,144,144,102,1,fourtwo,,,,,,,,,,,,,,,,,,,,,,,,,,,,,,,,,,,,,,,,,,,,,,,,,,,,,,,,,,,,,,,,,,,,,,,,,,,,,,,,,,,,,,,,,,,,,,,,,,,,,,,,,,,,,,,,,,,,,,,,,,,,,,,,,,,,,,,,,,,,,,,,,,,,,,,,,,,,
,,,,,,6159f6b637bab134ea9bb92e,62c539d607160c13dfb487c9,2022-07-06_09h31.38.956,Colour_Asymmetry_Pilot,2022.1.3,Win32,70.60650992,62c50e9c1127f2cd403a315f,0,145,145,2,1,twoone,,,,,,,,,,,,,,,,,,,,,,,,,,,,,,,,,,,,,,,,,,,,,,,,,,,,,,,,,,,,,,,,,,,,,,,,,,,,,,,,,,,,,,,,,,,,,,,,,,,,,,,,,,,,,,,,,,,,,,,,,,,,,,,,,,,,,,,,,,,,,,,,,,,,,,,,,,,,
,,,,,,6159f6b637bab134ea9bb92e,62c539d607160c13dfb487c9,2022-07-06_09h31.38.956,Colour_Asymmetry_Pilot,2022.1.3,Win32,70.60650992,62c50e9c1127f2cd403a315f,0,146,146,89,1,onethree,,,,,,,,,,,,,,,,,,,,,,,,,,,,,,,,,,,,,,,,,,,,,,,,,,,,,,,,,,,,,,,,,,,,,,,,,,,,,,,,,,,,,,,,,,,,,,,,,,,,,,,,,,,,,,,,,,,,,,,,,,,,,,,,,,,,,,,,,,,,,,,,,,,,,,,,,,,,
,,,,,,6159f6b637bab134ea9bb92e,62c539d607160c13dfb487c9,2022-07-06_09h31.38.956,Colour_Asymmetry_Pilot,2022.1.3,Win32,70.60650992,62c50e9c1127f2cd403a315f,0,147,147,81,1,onethree,,,,,,,,,,,,,,,,,,,,,,,,,,,,,,,,,,,,,,,,,,,,,,,,,,,,,,,,,,,,,,,,,,,,,,,,,,,,,,,,,,,,,,,,,,,,,,,,,,,,,,,,,,,,,,,,,,,,,,,,,,,,,,,,,,,,,,,,,,,,,,,,,,,,,,,,,,,,
,,,,,,6159f6b637bab134ea9bb92e,62c539d607160c13dfb487c9,2022-07-06_09h31.38.956,Colour_Asymmetry_Pilot,2022.1.3,Win32,70.60650992,62c50e9c1127f2cd403a315f,0,148,148,62,1,fourtwo,,,,,,,,,,,,,,,,,,,,,,,,,,,,,,,,,,,,,,,,,,,,,,,,,,,,,,,,,,,,,,,,,,,,,,,,,,,,,,,,,,,,,,,,,,,,,,,,,,,,,,,,,,,,,,,,,,,,,,,,,,,,,,,,,,,,,,,,,,,,,,,,,,,,,,,,,,,,
,,,,,,6159f6b637bab134ea9bb92e,62c539d607160c13dfb487c9,2022-07-06_09h31.38.956,Colour_Asymmetry_Pilot,2022.1.3,Win32,70.60650992,62c50e9c1127f2cd403a315f,0,149,149,76,1,threeone,,,,,,,,,,,,,,,,,,,,,,,,,,,,,,,,,,,,,,,,,,,,,,,,,,,,,,,,,,,,,,,,,,,,,,,,,,,,,,,,,,,,,,,,,,,,,,,,,,,,,,,,,,,,,,,,,,,,,,,,,,,,,,,,,,,,,,,,,,,,,,,,,,,,,,,,,,,,
,,,,,,6159f6b637bab134ea9bb92e,62c539d607160c13dfb487c9,2022-07-06_09h31.38.956,Colour_Asymmetry_Pilot,2022.1.3,Win32,70.60650992,62c50e9c1127f2cd403a315f,0,150,150,114,1,twoone,,,,,,,,,,,,,,,,,,,,,,,,,,,,,,,,,,,,,,,,,,,,,,,,,,,,,,,,,,,,,,,,,,,,,,,,,,,,,,,,,,,,,,,,,,,,,,,,,,,,,,,,,,,,,,,,,,,,,,,,,,,,,,,,,,,,,,,,,,,,,,,,,,,,,,,,,,,,
,,,,,,6159f6b637bab134ea9bb92e,62c539d607160c13dfb487c9,2022-07-06_09h31.38.956,Colour_Asymmetry_Pilot,2022.1.3,Win32,70.60650992,62c50e9c1127f2cd403a315f,0,151,151,131,1,twofour,,,,,,,,,,,,,,,,,,,,,,,,,,,,,,,,,,,,,,,,,,,,,,,,,,,,,,,,,,,,,,,,,,,,,,,,,,,,,,,,,,,,,,,,,,,,,,,,,,,,,,,,,,,,,,,,,,,,,,,,,,,,,,,,,,,,,,,,,,,,,,,,,,,,,,,,,,,,
,,,,,,6159f6b637bab134ea9bb92e,62c539d607160c13dfb487c9,2022-07-06_09h31.38.956,Colour_Asymmetry_Pilot,2022.1.3,Win32,70.60650992,62c50e9c1127f2cd403a315f,0,152,152,85,1,threefour,,,,,,,,,,,,,,,,,,,,,,,,,,,,,,,,,,,,,,,,,,,,,,,,,,,,,,,,,,,,,,,,,,,,,,,,,,,,,,,,,,,,,,,,,,,,,,,,,,,,,,,,,,,,,,,,,,,,,,,,,,,,,,,,,,,,,,,,,,,,,,,,,,,,,,,,,,,,
,,,,,,6159f6b637bab134ea9bb92e,62c539d607160c13dfb487c9,2022-07-06_09h31.38.956,Colour_Asymmetry_Pilot,2022.1.3,Win32,70.60650992,62c50e9c1127f2cd403a315f,0,153,153,80,1,onetwo,,,,,,,,,,,,,,,,,,,,,,,,,,,,,,,,,,,,,,,,,,,,,,,,,,,,,,,,,,,,,,,,,,,,,,,,,,,,,,,,,,,,,,,,,,,,,,,,,,,,,,,,,,,,,,,,,,,,,,,,,,,,,,,,,,,,,,,,,,,,,,,,,,,,,,,,,,,,
,,,,,,6159f6b637bab134ea9bb92e,62c539d607160c13dfb487c9,2022-07-06_09h31.38.956,Colour_Asymmetry_Pilot,2022.1.3,Win32,70.60650992,62c50e9c1127f2cd403a315f,0,154,154,95,1,fourthree,,,,,,,,,,,,,,,,,,,,,,,,,,,,,,,,,,,,,,,,,,,,,,,,,,,,,,,,,,,,,,,,,,,,,,,,,,,,,,,,,,,,,,,,,,,,,,,,,,,,,,,,,,,,,,,,,,,,,,,,,,,,,,,,,,,,,,,,,,,,,,,,,,,,,,,,,,,,
,,,,,,6159f6b637bab134ea9bb92e,62c539d607160c13dfb487c9,2022-07-06_09h31.38.956,Colour_Asymmetry_Pilot,2022.1.3,Win32,70.60650992,62c50e9c1127f2cd403a315f,0,155,155,149,1,threefour,,,,,,,,,,,,,,,,,,,,,,,,,,,,,,,,,,,,,,,,,,,,,,,,,,,,,,,,,,,,,,,,,,,,,,,,,,,,,,,,,,,,,,,,,,,,,,,,,,,,,,,,,,,,,,,,,,,,,,,,,,,,,,,,,,,,,,,,,,,,,,,,,,,,,,,,,,,,
,,,,,,6159f6b637bab134ea9bb92e,62c539d607160c13dfb487c9,2022-07-06_09h31.38.956,Colour_Asymmetry_Pilot,2022.1.3,Win32,70.60650992,62c50e9c1127f2cd403a315f,0,156,156,14,1,fourtwo,,,,,,,,,,,,,,,,,,,,,,,,,,,,,,,,,,,,,,,,,,,,,,,,,,,,,,,,,,,,,,,,,,,,,,,,,,,,,,,,,,,,,,,,,,,,,,,,,,,,,,,,,,,,,,,,,,,,,,,,,,,,,,,,,,,,,,,,,,,,,,,,,,,,,,,,,,,,
,,,,,,6159f6b637bab134ea9bb92e,62c539d607160c13dfb487c9,2022-07-06_09h31.38.956,Colour_Asymmetry_Pilot,2022.1.3,Win32,70.60650992,62c50e9c1127f2cd403a315f,0,157,157,3,1,twofour,,,,,,,,,,,,,,,,,,,,,,,,,,,,,,,,,,,,,,,,,,,,,,,,,,,,,,,,,,,,,,,,,,,,,,,,,,,,,,,,,,,,,,,,,,,,,,,,,,,,,,,,,,,,,,,,,,,,,,,,,,,,,,,,,,,,,,,,,,,,,,,,,,,,,,,,,,,,
,,,,,,6159f6b637bab134ea9bb92e,62c539d607160c13dfb487c9,2022-07-06_09h31.38.956,Colour_Asymmetry_Pilot,2022.1.3,Win32,70.60650992,62c50e9c1127f2cd403a315f,0,158,158,29,1,threefour,,,,,,,,,,,,,,,,,,,,,,,,,,,,,,,,,,,,,,,,,,,,,,,,,,,,,,,,,,,,,,,,,,,,,,,,,,,,,,,,,,,,,,,,,,,,,,,,,,,,,,,,,,,,,,,,,,,,,,,,,,,,,,,,,,,,,,,,,,,,,,,,,,,,,,,,,,,,
,,,,,,6159f6b637bab134ea9bb92e,62c539d607160c13dfb487c9,2022-07-06_09h31.38.956,Colour_Asymmetry_Pilot,2022.1.3,Win32,70.60650992,62c50e9c1127f2cd403a315f,0,159,159,155,1,twofour,,,,,,,,,,,,,,,,,,,,,,,,,,,,,,,,,,,,,,,,,,,,,,,,,,,,,,,,,,,,,,,,,,,,,,,,,,,,,,,,,,,,,,,,,,,,,,,,,,,,,,,,,,,,,,,,,,,,,,,,,,,,,,,,,,,,,,,,,,,,,,,,,,,,,,,,,,,,
,,,,,,6159f6b637bab134ea9bb92e,62c539d607160c13dfb487c9,2022-07-06_09h31.38.956,Colour_Asymmetry_Pilot,2022.1.3,Win32,70.60650992,62c50e9c1127f2cd403a315f,0,160,160,150,1,fourtwo,,,,,,,,,,,,,,,,,,,,,,,,,,,,,,,,,,,,,,,,,,,,,,,,,,,,,,,,,,,,,,,,,,,,,,,,,,,,,,,,,,,,,,,,,,,,,,,,,,,,,,,,,,,,,,,,,,,,,,,,,,,,,,,,,,,,,,,,,,,,,,,,,,,,,,,,,,,,
,,,,,,6159f6b637bab134ea9bb92e,62c539d607160c13dfb487c9,2022-07-06_09h31.38.956,Colour_Asymmetry_Pilot,2022.1.3,Win32,70.60650992,62c50e9c1127f2cd403a315f,0,161,161,26,1,twoone,,,,,,,,,,,,,,,,,,,,,,,,,,,,,,,,,,,,,,,,,,,,,,,,,,,,,,,,,,,,,,,,,,,,,,,,,,,,,,,,,,,,,,,,,,,,,,,,,,,,,,,,,,,,,,,,,,,,,,,,,,,,,,,,,,,,,,,,,,,,,,,,,,,,,,,,,,,,
,,,,,,6159f6b637bab134ea9bb92e,62c539d607160c13dfb487c9,2022-07-06_09h31.38.956,Colour_Asymmetry_Pilot,2022.1.3,Win32,70.60650992,62c50e9c1127f2cd403a315f,,,,,,,space,4.5005,space,22.2243,space,39.7816,space,67.5361,space,2.3841,space,4.5012,"[-0.20799999999999996,-0.655,-0.01980000000000004]",onetwo,"[-0.01980000000000004,-0.5138,-0.38039999999999996]",3,16.6694,79,38,1,0,0,response1disk_5,-7,0,1,0,0,rectangle_8,-7,0,1,0,0,1,-7,0,1,0,0,0,0,0,0,1,,,,,,,,,,,,,,,,,,,,,,,,,,,,,,,,,,,,,,,,,,,,,,,,,,,,,,,,,,,,,,,,,,,,,,,,,,,,,,,,,,,,,,,,,,,,,,,,,,,,,,,,,,,,,,,
,,,,,,6159f6b637bab134ea9bb92e,62c539d607160c13dfb487c9,2022-07-06_09h31.38.956,Colour_Asymmetry_Pilot,2022.1.3,Win32,70.60650992,62c50e9c1127f2cd403a315f,,,,,,,,,,,,,,,,,,,"[0.3881999999999999,-0.23939999999999995,-0.05040000000000011]",fourthree,"[0.8115999999999999,-0.0040000000000000036,-0.09819999999999995]",-3,16.8128,-72,31,1,0,0,response7disk_5,-1,4,1,0,0,rectangle_8,-1,4,1,0,0,1,-1,4,1,0,0,1,0,1,0,1,,,,,,,,,,,,,,,,,,,,,,,,,,,,,,,,,,,,,,,,,,,,,,,,,,,,,,,,,,,,,,,,,,,,,,,,,,,,,,,,,,,,,,,,,,,,,,,,,,,,,,,,,,,,,,,
,,,,,,6159f6b637bab134ea9bb92e,62c539d607160c13dfb487c9,2022-07-06_09h31.38.956,Colour_Asymmetry_Pilot,2022.1.3,Win32,70.60650992,62c50e9c1127f2cd403a315f,,,,,,,,,,,,,,,,,,,"[-0.8982,-0.37259999999999993,0.2784]",twofour,"[0.3802000000000001,0.19199999999999995,-0.6394]",-4,1.8001,-38,82,1,0,0,response7disk_5,-1,-1,1,0,0,rectangle_8,-1,-1,1,0,0,1,-1,-1,1,0,0,2,0,2,0,1,,,,,,,,,,,,,,,,,,,,,,,,,,,,,,,,,,,,,,,,,,,,,,,,,,,,,,,,,,,,,,,,,,,,,,,,,,,,,,,,,,,,,,,,,,,,,,,,,,,,,,,,,,,,,,,
,,,,,,6159f6b637bab134ea9bb92e,62c539d607160c13dfb487c9,2022-07-06_09h31.38.956,Colour_Asymmetry_Pilot,2022.1.3,Win32,70.60650992,62c50e9c1127f2cd403a315f,,,,,,,,,,,,,,,,,,,"[0.3802000000000001,0.19199999999999995,-0.6394]",onethree,"[0.7018,0.7176,0.6155999999999999]",-4,1.2342,-34,73,1,0,0,response7disk_5,5,2,1,0,0,rectangle_8,5,2,1,0,0,1,5,2,1,0,0,3,0,3,0,1,,,,,,,,,,,,,,,,,,,,,,,,,,,,,,,,,,,,,,,,,,,,,,,,,,,,,,,,,,,,,,,,,,,,,,,,,,,,,,,,,,,,,,,,,,,,,,,,,,,,,,,,,,,,,,,
,,,,,,6159f6b637bab134ea9bb92e,62c539d607160c13dfb487c9,2022-07-06_09h31.38.956,Colour_Asymmetry_Pilot,2022.1.3,Win32,70.60650992,62c50e9c1127f2cd403a315f,,,,,,,,,,,,,,,,,,,"[-0.24719999999999998,0.5213999999999999,-0.12959999999999994]",twoone,"[-0.10599999999999998,-0.15300000000000002,0.15280000000000005]",-4,1.1332,-46,104,1,0,0,response7disk_5,2,1,1,0,0,rectangle_8,54,-85,1,0,0,1,-2,3,1,0,0,4,0,4,0,1,response3disk_7,4,rectangle_4,,,,,,,,,,,,,,,,,,,,,,,,,,,,,,,,,,,,,,,,,,,,,,,,,,,,,,,,,,,,,,,,,,,,,,,,,,,,,,,,,,,,,,,,,,,,,,,,,,,,,,,,,,,,
,,,,,,6159f6b637bab134ea9bb92e,62c539d607160c13dfb487c9,2022-07-06_09h31.38.956,Colour_Asymmetry_Pilot,2022.1.3,Win32,70.60650992,62c50e9c1127f2cd403a315f,,,,,,,,,,,,,,,,,,,"[-0.6942,-0.7648,-0.12959999999999994]",twofour,"[-0.26280000000000003,-0.2158,-0.3256]",-4,3.0663,-39,81,1,0,0,response7disk_5,1,2,1,0,0,rectangle_8,1,2,1,0,0,1,1,2,1,0,0,5,0,5,0,1,,,,,,,,,,,,,,,,,,,,,,,,,,,,,,,,,,,,,,,,,,,,,,,,,,,,,,,,,,,,,,,,,,,,,,,,,,,,,,,,,,,,,,,,,,,,,,,,,,,,,,,,,,,,,,,
,,,,,,6159f6b637bab134ea9bb92e,62c539d607160c13dfb487c9,2022-07-06_09h31.38.956,Colour_Asymmetry_Pilot,2022.1.3,Win32,70.60650992,62c50e9c1127f2cd403a315f,,,,,,,,,,,,,,,,,,,"[-0.5452,-0.608,0.2470000000000001]",twofour,"[0.9686000000000001,0.5763999999999998,0.11359999999999992]",-4,1.0663,-31,77,1,0,0,response7disk_5,2,1,1,0,0,rectangle_8,2,1,1,0,0,1,2,1,1,0,0,6,0,6,0,1,,,,,,,,,,,,,,,,,,,,,,,,,,,,,,,,,,,,,,,,,,,,,,,,,,,,,,,,,,,,,,,,,,,,,,,,,,,,,,,,,,,,,,,,,,,,,,,,,,,,,,,,,,,,,,,
,,,,,,6159f6b637bab134ea9bb92e,62c539d607160c13dfb487c9,2022-07-06_09h31.38.956,Colour_Asymmetry_Pilot,2022.1.3,Win32,70.60650992,62c50e9c1127f2cd403a315f,,,,,,,,,,,,,,,,,,,,threeone,,-1,3.118,,,,,,,,,,,,,,,,,,,,,,,,,,,,,,,,space,3.5001,"[-0.4902000000000001,0.2704,-0.45899999999999996]","[-0.9296,-0.12959999999999994,-0.043199999999999905]",-37,-71,1,0,0,response5disk,7,2,1,0,0,rectangle,7,2,1,0,0,,3,0.0018,0,7,2,1,0,0,0,0,0,103,1,22,second,,,,,,,,,,,,,,,,,,,,,,,,,,,,,,,,,,,,,,,,,,,,,,,,,,,,,,,,,,,,,,,,,,,,,,,
,,,,,,6159f6b637bab134ea9bb92e,62c539d607160c13dfb487c9,2022-07-06_09h31.38.956,Colour_Asymmetry_Pilot,2022.1.3,Win32,70.60650992,62c50e9c1127f2cd403a315f,,,,,,,,,,,,,,,,,,,,onethree,,-4,0.9171,,,,,,,,,,,,,,,,,,,,,,,,,,,,,,,,,,"[0.4196,0.4665999999999999,0.3568]","[0.5449999999999999,-0.31000000000000005,-0.0354000000000001]",-23,63,1,0,0,response7disk,-4,-3,1,0,0,rectangle,-4,-3,1,0,0,,3,0.0002,0,-4,-3,1,0,0,0,1,1,138,1,57,second,,,,,,,,,,,,,,,,,,,,,,,,,,,,,,,,,,,,,,,,,,,,,,,,,,,,,,,,,,,,,,,,,,,,,,,
,,,,,,6159f6b637bab134ea9bb92e,62c539d607160c13dfb487c9,2022-07-06_09h31.38.956,Colour_Asymmetry_Pilot,2022.1.3,Win32,70.60650992,62c50e9c1127f2cd403a315f,,,,,,,,,,,,,,,,,,,,twofour,,-4,0.6494,,,,,,,,,,,,,,,,,,,,,,,,,,,,,,,,,,"[-0.10599999999999998,-0.15300000000000002,0.15280000000000005]","[0.23120000000000007,-0.7726,-0.34120000000000006]",-29,82,1,0,0,response7disk,6,2,1,0,0,rectangle,6,2,1,0,0,,1,0.0011,0,6,2,1,0,0,0,2,2,157,1,76,second,,,,,,,,,,,,,,,,,,,,,,,,,,,,,,,,,,,,,,,,,,,,,,,,,,,,,,,,,,,,,,,,,,,,,,,
,,,,,,6159f6b637bab134ea9bb92e,62c539d607160c13dfb487c9,2022-07-06_09h31.38.956,Colour_Asymmetry_Pilot,2022.1.3,Win32,70.60650992,62c50e9c1127f2cd403a315f,,,,,,,,,,,,,,,,,,,,threeone,,-4,0.7166,,,,,,,,,,,,,,,,,,,,,,,,,,,,,,,,,,"[0.9842,0.7409999999999999,-0.6628000000000001]","[0.7802,-0.23140000000000005,-0.20799999999999996]",-42,62,1,0,0,response7disk,-14,4,1,0,0,rectangle,-14,4,1,0,0,,2,0.0026,0,-14,4,1,0,0,0,3,3,110,1,29,second,,,,,,,,,,,,,,,,,,,,,,,,,,,,,,,,,,,,,,,,,,,,,,,,,,,,,,,,,,,,,,,,,,,,,,,
,,,,,,6159f6b637bab134ea9bb92e,62c539d607160c13dfb487c9,2022-07-06_09h31.38.956,Colour_Asymmetry_Pilot,2022.1.3,Win32,70.60650992,62c50e9c1127f2cd403a315f,,,,,,,,,,,,,,,,,,,,threeone,,-4,0.8335,,,,,,,,,,,,,,,,,,,,,,,,,,,,,,,,,,"[0.34099999999999997,0.5841999999999998,-0.9844]","[-0.9296,-0.12959999999999994,-0.043199999999999905]",-29,64,1,0,0,response7disk,4,2,1,0,0,rectangle,4,2,1,0,0,,1,0.0016,0,4,2,1,0,0,0,4,4,115,1,34,second,,,,,,,,,,,,,,,,,,,,,,,,,,,,,,,,,,,,,,,,,,,,,,,,,,,,,,,,,,,,,,,,,,,,,,,
,,,,,,6159f6b637bab134ea9bb92e,62c539d607160c13dfb487c9,2022-07-06_09h31.38.956,Colour_Asymmetry_Pilot,2022.1.3,Win32,70.60650992,62c50e9c1127f2cd403a315f,,,,,,,,,,,,,,,,,,,,onetwo,,-4,1.1667,,,,,,,,,,,,,,,,,,,,,,,,,,,,,,,,,,"[-0.011800000000000033,-0.906,-0.45100000000000007]","[0.9372,0.9450000000000001,0.8980000000000001]",-40,103,1,0,0,response7disk,-1,6,1,0,0,rectangle,-1,6,1,0,0,,1,0.0003,0,-1,6,1,0,0,0,5,5,23,1,23,first,,,,,,,,,,,,,,,,,,,,,,,,,,,,,,,,,,,,,,,,,,,,,,,,,,,,,,,,,,,,,,,,,,,,,,,
,,,,,,6159f6b637bab134ea9bb92e,62c539d607160c13dfb487c9,2022-07-06_09h31.38.956,Colour_Asymmetry_Pilot,2022.1.3,Win32,70.60650992,62c50e9c1127f2cd403a315f,,,,,,,,,,,,,,,,,,,,threefour,,-4,1.3005,,,,,,,,,,,,,,,,,,,,,,,,,,,,,,,,,,"[-0.8198,-0.5138,-0.7492000000000001]","[-0.6942,-0.7648,-0.12959999999999994]",-35,62,1,0,0,response7disk,-5,3,1,0,0,rectangle,-5,3,1,0,0,,1,0.0016,0,-5,3,1,0,0,0,6,6,7,1,7,first,,,,,,,,,,,,,,,,,,,,,,,,,,,,,,,,,,,,,,,,,,,,,,,,,,,,,,,,,,,,,,,,,,,,,,,
,,,,,,6159f6b637bab134ea9bb92e,62c539d607160c13dfb487c9,2022-07-06_09h31.38.956,Colour_Asymmetry_Pilot,2022.1.3,Win32,70.60650992,62c50e9c1127f2cd403a315f,,,,,,,,,,,,,,,,,,,,twofour,,-4,0.8321,,,,,,,,,,,,,,,,,,,,,,,,,,,,,,,,,,"[-0.6,0.16860000000000008,0.44300000000000006]","[0.9763999999999999,0.30979999999999985,-0.6786]",-33,88,1,0,0,response7disk,-11,4,1,0,0,rectangle,-11,4,1,0,0,,3,0.0011,0,-11,4,1,0,0,0,7,7,13,1,13,first,,,,,,,,,,,,,,,,,,,,,,,,,,,,,,,,,,,,,,,,,,,,,,,,,,,,,,,,,,,,,,,,,,,,,,,
,,,,,,6159f6b637bab134ea9bb92e,62c539d607160c13dfb487c9,2022-07-06_09h31.38.956,Colour_Asymmetry_Pilot,2022.1.3,Win32,70.60650992,62c50e9c1127f2cd403a315f,,,,,,,,,,,,,,,,,,,,onethree,,-4,1.4664,,,,,,,,,,,,,,,,,,,,,,,,,,,,,,,,,,"[0.8115999999999999,-0.0040000000000000036,-0.09819999999999995]","[0.7018,0.7802,-0.16079999999999994]",-47,111,1,0,0,response7disk,0,7,1,0,0,rectangle,0,7,1,0,0,,1,0.0013,0,0,7,1,0,0,0,8,8,44,1,44,first,,,,,,,,,,,,,,,,,,,,,,,,,,,,,,,,,,,,,,,,,,,,,,,,,,,,,,,,,,,,,,,,,,,,,,,
,,,,,,6159f6b637bab134ea9bb92e,62c539d607160c13dfb487c9,2022-07-06_09h31.38.956,Colour_Asymmetry_Pilot,2022.1.3,Win32,70.60650992,62c50e9c1127f2cd403a315f,,,,,,,,,,,,,,,,,,,,onethree,,-4,0.8501,,,,,,,,,,,,,,,,,,,,,,,,,,,,,,,,,,"[-0.01980000000000004,-0.5138,-0.38039999999999996]","[-0.30200000000000005,0.14500000000000002,0.2784]",-26,69,1,0,0,response7disk,3,6,1,0,0,rectangle,3,6,1,0,0,,3,0.0014,0,3,6,1,0,0,0,9,9,47,1,47,first,,,,,,,,,,,,,,,,,,,,,,,,,,,,,,,,,,,,,,,,,,,,,,,,,,,,,,,,,,,,,,,,,,,,,,,
,,,,,,6159f6b637bab134ea9bb92e,62c539d607160c13dfb487c9,2022-07-06_09h31.38.956,Colour_Asymmetry_Pilot,2022.1.3,Win32,70.60650992,62c50e9c1127f2cd403a315f,,,,,,,,,,,,,,,,,,,,fourthree,,-2,1.1172,,,,,,,,,,,,,,,,,,,,,,,,,,,,,,,,,,"[0.8274000000000001,-0.5844,-0.9452]","[0.3802000000000001,0.19199999999999995,-0.6394]",-68,-50,1,0,0,response5disk,-3,-2,1,0,0,rectangle,-3,-2,1,0,0,,1,0.0011,0,-3,-2,1,0,0,0,10,10,48,1,48,first,,,,,,,,,,,,,,,,,,,,,,,,,,,,,,,,,,,,,,,,,,,,,,,,,,,,,,,,,,,,,,,,,,,,,,,
,,,,,,6159f6b637bab134ea9bb92e,62c539d607160c13dfb487c9,2022-07-06_09h31.38.956,Colour_Asymmetry_Pilot,2022.1.3,Win32,70.60650992,62c50e9c1127f2cd403a315f,,,,,,,,,,,,,,,,,,,,threefour,,-4,0.8828,,,,,,,,,,,,,,,,,,,,,,,,,,,,,,,,,,"[-0.2942,-0.24719999999999998,-0.357]","[-0.5922000000000001,-0.7492000000000001,-0.5296000000000001]",-22,80,1,0,0,response7disk,2,8,1,0,0,rectangle,2,8,1,0,0,,2,0.0011,0,2,8,1,0,0,0,11,11,141,1,60,second,,,,,,,,,,,,,,,,,,,,,,,,,,,,,,,,,,,,,,,,,,,,,,,,,,,,,,,,,,,,,,,,,,,,,,,
,,,,,,6159f6b637bab134ea9bb92e,62c539d607160c13dfb487c9,2022-07-06_09h31.38.956,Colour_Asymmetry_Pilot,2022.1.3,Win32,70.60650992,62c50e9c1127f2cd403a315f,,,,,,,,,,,,,,,,,,,,onethree,,-4,0.6838,,,,,,,,,,,,,,,,,,,,,,,,,,,,,,,,,,"[0.9763999999999999,-0.1137999999999999,-0.6314]","[-0.24719999999999998,0.5213999999999999,-0.12959999999999994]",-32,67,1,0,0,response7disk,-1,0,1,0,0,rectangle,-1,0,1,0,0,,3,0.0014,0,-1,0,1,0,0,0,12,12,67,1,67,first,,,,,,,,,,,,,,,,,,,,,,,,,,,,,,,,,,,,,,,,,,,,,,,,,,,,,,,,,,,,,,,,,,,,,,,
,,,,,,6159f6b637bab134ea9bb92e,62c539d607160c13dfb487c9,2022-07-06_09h31.38.956,Colour_Asymmetry_Pilot,2022.1.3,Win32,70.60650992,62c50e9c1127f2cd403a315f,,,,,,,,,,,,,,,,,,,,onetwo,,3,2.5332,,,,,,,,,,,,,,,,,,,,,,,,,,,,,,,,,,"[-0.06680000000000008,-0.45100000000000007,-0.906]","[0.8274000000000001,-0.5844,-0.9452]",92,50,1,0,0,response1disk,3,1,1,0,0,rectangle,3,1,1,0,0,,2,0.0012,0,3,1,1,0,0,0,13,13,49,1,49,first,,,,,,,,,,,,,,,,,,,,,,,,,,,,,,,,,,,,,,,,,,,,,,,,,,,,,,,,,,,,,,,,,,,,,,,
,,,,,,6159f6b637bab134ea9bb92e,62c539d607160c13dfb487c9,2022-07-06_09h31.38.956,Colour_Asymmetry_Pilot,2022.1.3,Win32,70.60650992,62c50e9c1127f2cd403a315f,,,,,,,,,,,,,,,,,,,,onethree,,-1,2.0328,,,,,,,,,,,,,,,,,,,,,,,,,,,,,,,,,,"[-0.5922000000000001,-0.7492000000000001,-0.5296000000000001]","[-0.6942,-0.7648,-0.12959999999999994]",-32,-104,1,0,0,response5disk,17,7,1,0,0,rectangle,17,7,1,0,0,,2,0.0002,0,17,7,1,0,0,0,14,14,45,1,45,first,,,,,,,,,,,,,,,,,,,,,,,,,,,,,,,,,,,,,,,,,,,,,,,,,,,,,,,,,,,,,,,,,,,,,,,
,,,,,,6159f6b637bab134ea9bb92e,62c539d607160c13dfb487c9,2022-07-06_09h31.38.956,Colour_Asymmetry_Pilot,2022.1.3,Win32,70.60650992,62c50e9c1127f2cd403a315f,,,,,,,,,,,,,,,,,,,,twoone,,-3,3.4498,,,,,,,,,,,,,,,,,,,,,,,,,,,,,,,,,,"[0.0351999999999999,0.41159999999999997,0.0038000000000000256]","[-0.45899999999999996,-0.3256,-0.9374]",-60,35,1,0,0,response7disk,-5,1,1,0,0,rectangle,-5,1,1,0,0,,3,0.0012,0,-5,1,1,0,0,0,15,15,82,1,1,second,,,,,,,,,,,,,,,,,,,,,,,,,,,,,,,,,,,,,,,,,,,,,,,,,,,,,,,,,,,,,,,,,,,,,,,
,,,,,,6159f6b637bab134ea9bb92e,62c539d607160c13dfb487c9,2022-07-06_09h31.38.956,Colour_Asymmetry_Pilot,2022.1.3,Win32,70.60650992,62c50e9c1127f2cd403a315f,,,,,,,,,,,,,,,,,,,,onethree,,-4,0.6687,,,,,,,,,,,,,,,,,,,,,,,,,,,,,,,,,,"[-0.24719999999999998,0.5213999999999999,-0.12959999999999994]","[0.9763999999999999,-0.1137999999999999,-0.6314]",-42,56,1,0,0,response7disk,-2,10,1,0,0,rectangle,-2,10,1,0,0,,1,0.0011,0,-2,10,1,0,0,0,16,16,148,1,67,second,,,,,,,,,,,,,,,,,,,,,,,,,,,,,,,,,,,,,,,,,,,,,,,,,,,,,,,,,,,,,,,,,,,,,,,
,,,,,,6159f6b637bab134ea9bb92e,62c539d607160c13dfb487c9,2022-07-06_09h31.38.956,Colour_Asymmetry_Pilot,2022.1.3,Win32,70.60650992,62c50e9c1127f2cd403a315f,,,,,,,,,,,,,,,,,,,,fourthree,,-4,0.7995,,,,,,,,,,,,,,,,,,,,,,,,,,,,,,,,,,"[0.9372,0.20779999999999998,0.2704]","[-0.9138,-0.5296000000000001,-0.5529999999999999]",-38,76,1,0,0,response7disk,-2,8,1,0,0,rectangle,-2,8,1,0,0,,1,0.0001,0,-2,8,1,0,0,0,17,17,39,1,39,first,,,,,,,,,,,,,,,,,,,,,,,,,,,,,,,,,,,,,,,,,,,,,,,,,,,,,,,,,,,,,,,,,,,,,,,
