trials.thisRepN,trials.thisTrialN,trials.thisN,trials.thisIndex,trials.ran,Colourcodes,participant,session,date,expName,psychopyVersion,OS,frameRate,study_id,trials_4.thisRepN,trials_4.thisTrialN,trials_4.thisN,trials_4.thisIndex,trials_4.ran,StimulusPos,key_resp.keys,key_resp.rt,key_resp_2.keys,key_resp_2.rt,key_resp_15.keys,key_resp_15.rt,key_resp_17.keys,key_resp_17.rt,key_resp_9.keys,key_resp_9.rt,key_resp_10.keys,key_resp_10.rt,Circle1_col,Ecc,Circle2_col,similarity,response_time,mouse_5.x,mouse_5.y,mouse_5.leftButton,mouse_5.midButton,mouse_5.rightButton,mouse_5.clicked_name,mouse_10.x,mouse_10.y,mouse_10.leftButton,mouse_10.midButton,mouse_10.rightButton,mouse_10.clicked_name,mouse_7.x,mouse_7.y,mouse_7.leftButton,mouse_7.midButton,mouse_7.rightButton,catchnumberprac,mouse_6.x,mouse_6.y,mouse_6.leftButton,mouse_6.midButton,mouse_6.rightButton,duringprac.thisRepN,duringprac.thisTrialN,duringprac.thisN,duringprac.thisIndex,duringprac.ran,mouse_7.clicked_name,catchprac,mouse_6.clicked_name,key_resp_22.keys,key_resp_22.rt,Circle1_colour,Circle2_colour,mouse.x,mouse.y,mouse.leftButton,mouse.midButton,mouse.rightButton,mouse.clicked_name,mouse_2.x,mouse_2.y,mouse_2.leftButton,mouse_2.midButton,mouse_2.rightButton,mouse_2.clicked_name,mouse_3.x,mouse_3.y,mouse_3.leftButton,mouse_3.midButton,mouse_3.rightButton,catchresponse,catchnumber,response_time_catch,Catch,mouse_11.x,mouse_11.y,mouse_11.leftButton,mouse_11.midButton,mouse_11.rightButton,trials_2.thisRepN,trials_2.thisTrialN,trials_2.thisN,trials_2.thisIndex,trials_2.ran,Colourpair,Temporder,mouse_3.clicked_name,mouse_11.clicked_name,trials_3.thisRepN,trials_3.thisTrialN,trials_3.thisN,trials_3.thisIndex,trials_3.ran,key_resp_instr_Ishi.keys,key_resp_instr_Ishi.rt,Ishi_trial_keyresp.keys,Ishi_textbox.text,Ishi_mouse.x,Ishi_mouse.y,Ishi_mouse.leftButton,Ishi_mouse.midButton,Ishi_mouse.rightButton,Ishi_mouse.clicked_name,Ishi_loop.thisRepN,Ishi_loop.thisTrialN,Ishi_loop.thisN,Ishi_loop.thisIndex,Ishi_loop.ran,imageaddress,textbox.text,mouse_4.x,mouse_4.y,mouse_4.leftButton,mouse_4.midButton,mouse_4.rightButton,mouse_4.clicked_name,textbox_2.text,mouse_8.x,mouse_8.y,mouse_8.leftButton,mouse_8.midButton,mouse_8.rightButton,mouse_8.clicked_name,textbox_3.text,mouse_9.x,mouse_9.y,mouse_9.leftButton,mouse_9.midButton,mouse_9.rightButton,mouse_9.clicked_name,textbox_4.text,mouse_12.x,mouse_12.y,mouse_12.leftButton,mouse_12.midButton,mouse_12.rightButton,mouse_12.clicked_name,textbox_5.text,mouse_13.x,mouse_13.y,mouse_13.leftButton,mouse_13.midButton,mouse_13.rightButton,mouse_13.clicked_name,textbox_6.text,mouse_14.x,mouse_14.y,mouse_14.leftButton,mouse_14.midButton,mouse_14.rightButton,mouse_14.clicked_name,textbox_7.text,mouse_15.x,mouse_15.y,mouse_15.leftButton,mouse_15.midButton,mouse_15.rightButton,mouse_15.clicked_name
0,0,0,70,1,,60d467290ccaa83b5536f47d,62c53a8c54c23d5b03dab9d0,2022-07-06_09h33.54.316,Colour_Asymmetry_Pilot,2022.1.3,Win32,60.11783095,62c50e9c1127f2cd403a315f,,,,,,,,,,,,,,,,,,,,,,,,,,,,,,,,,,,,,,,,,,,,,,,,,,,,,,,,,,,,,,,,,,,,,,,,,,,,,,,,,,,,,,,,,,,,,,,,,,,,,,,,,,,,,,,,,,,,,,,,,,,,,,,,,,,,,,,,,,,,,,,,,,,,,,,,,,,,,,,,,,,
0,1,1,79,1,,60d467290ccaa83b5536f47d,62c53a8c54c23d5b03dab9d0,2022-07-06_09h33.54.316,Colour_Asymmetry_Pilot,2022.1.3,Win32,60.11783095,62c50e9c1127f2cd403a315f,,,,,,,,,,,,,,,,,,,,,,,,,,,,,,,,,,,,,,,,,,,,,,,,,,,,,,,,,,,,,,,,,,,,,,,,,,,,,,,,,,,,,,,,,,,,,,,,,,,,,,,,,,,,,,,,,,,,,,,,,,,,,,,,,,,,,,,,,,,,,,,,,,,,,,,,,,,,,,,,,,,
0,2,2,89,1,,60d467290ccaa83b5536f47d,62c53a8c54c23d5b03dab9d0,2022-07-06_09h33.54.316,Colour_Asymmetry_Pilot,2022.1.3,Win32,60.11783095,62c50e9c1127f2cd403a315f,,,,,,,,,,,,,,,,,,,,,,,,,,,,,,,,,,,,,,,,,,,,,,,,,,,,,,,,,,,,,,,,,,,,,,,,,,,,,,,,,,,,,,,,,,,,,,,,,,,,,,,,,,,,,,,,,,,,,,,,,,,,,,,,,,,,,,,,,,,,,,,,,,,,,,,,,,,,,,,,,,,
0,3,3,56,1,,60d467290ccaa83b5536f47d,62c53a8c54c23d5b03dab9d0,2022-07-06_09h33.54.316,Colour_Asymmetry_Pilot,2022.1.3,Win32,60.11783095,62c50e9c1127f2cd403a315f,,,,,,,,,,,,,,,,,,,,,,,,,,,,,,,,,,,,,,,,,,,,,,,,,,,,,,,,,,,,,,,,,,,,,,,,,,,,,,,,,,,,,,,,,,,,,,,,,,,,,,,,,,,,,,,,,,,,,,,,,,,,,,,,,,,,,,,,,,,,,,,,,,,,,,,,,,,,,,,,,,,
0,4,4,66,1,,60d467290ccaa83b5536f47d,62c53a8c54c23d5b03dab9d0,2022-07-06_09h33.54.316,Colour_Asymmetry_Pilot,2022.1.3,Win32,60.11783095,62c50e9c1127f2cd403a315f,,,,,,,,,,,,,,,,,,,,,,,,,,,,,,,,,,,,,,,,,,,,,,,,,,,,,,,,,,,,,,,,,,,,,,,,,,,,,,,,,,,,,,,,,,,,,,,,,,,,,,,,,,,,,,,,,,,,,,,,,,,,,,,,,,,,,,,,,,,,,,,,,,,,,,,,,,,,,,,,,,,
0,5,5,41,1,,60d467290ccaa83b5536f47d,62c53a8c54c23d5b03dab9d0,2022-07-06_09h33.54.316,Colour_Asymmetry_Pilot,2022.1.3,Win32,60.11783095,62c50e9c1127f2cd403a315f,,,,,,,,,,,,,,,,,,,,,,,,,,,,,,,,,,,,,,,,,,,,,,,,,,,,,,,,,,,,,,,,,,,,,,,,,,,,,,,,,,,,,,,,,,,,,,,,,,,,,,,,,,,,,,,,,,,,,,,,,,,,,,,,,,,,,,,,,,,,,,,,,,,,,,,,,,,,,,,,,,,
0,6,6,58,1,,60d467290ccaa83b5536f47d,62c53a8c54c23d5b03dab9d0,2022-07-06_09h33.54.316,Colour_Asymmetry_Pilot,2022.1.3,Win32,60.11783095,62c50e9c1127f2cd403a315f,,,,,,,,,,,,,,,,,,,,,,,,,,,,,,,,,,,,,,,,,,,,,,,,,,,,,,,,,,,,,,,,,,,,,,,,,,,,,,,,,,,,,,,,,,,,,,,,,,,,,,,,,,,,,,,,,,,,,,,,,,,,,,,,,,,,,,,,,,,,,,,,,,,,,,,,,,,,,,,,,,,
0,7,7,61,1,,60d467290ccaa83b5536f47d,62c53a8c54c23d5b03dab9d0,2022-07-06_09h33.54.316,Colour_Asymmetry_Pilot,2022.1.3,Win32,60.11783095,62c50e9c1127f2cd403a315f,,,,,,,,,,,,,,,,,,,,,,,,,,,,,,,,,,,,,,,,,,,,,,,,,,,,,,,,,,,,,,,,,,,,,,,,,,,,,,,,,,,,,,,,,,,,,,,,,,,,,,,,,,,,,,,,,,,,,,,,,,,,,,,,,,,,,,,,,,,,,,,,,,,,,,,,,,,,,,,,,,,
0,8,8,46,1,,60d467290ccaa83b5536f47d,62c53a8c54c23d5b03dab9d0,2022-07-06_09h33.54.316,Colour_Asymmetry_Pilot,2022.1.3,Win32,60.11783095,62c50e9c1127f2cd403a315f,,,,,,,,,,,,,,,,,,,,,,,,,,,,,,,,,,,,,,,,,,,,,,,,,,,,,,,,,,,,,,,,,,,,,,,,,,,,,,,,,,,,,,,,,,,,,,,,,,,,,,,,,,,,,,,,,,,,,,,,,,,,,,,,,,,,,,,,,,,,,,,,,,,,,,,,,,,,,,,,,,,
0,9,9,25,1,,60d467290ccaa83b5536f47d,62c53a8c54c23d5b03dab9d0,2022-07-06_09h33.54.316,Colour_Asymmetry_Pilot,2022.1.3,Win32,60.11783095,62c50e9c1127f2cd403a315f,,,,,,,,,,,,,,,,,,,,,,,,,,,,,,,,,,,,,,,,,,,,,,,,,,,,,,,,,,,,,,,,,,,,,,,,,,,,,,,,,,,,,,,,,,,,,,,,,,,,,,,,,,,,,,,,,,,,,,,,,,,,,,,,,,,,,,,,,,,,,,,,,,,,,,,,,,,,,,,,,,,
0,10,10,5,1,,60d467290ccaa83b5536f47d,62c53a8c54c23d5b03dab9d0,2022-07-06_09h33.54.316,Colour_Asymmetry_Pilot,2022.1.3,Win32,60.11783095,62c50e9c1127f2cd403a315f,,,,,,,,,,,,,,,,,,,,,,,,,,,,,,,,,,,,,,,,,,,,,,,,,,,,,,,,,,,,,,,,,,,,,,,,,,,,,,,,,,,,,,,,,,,,,,,,,,,,,,,,,,,,,,,,,,,,,,,,,,,,,,,,,,,,,,,,,,,,,,,,,,,,,,,,,,,,,,,,,,,
0,11,11,8,1,,60d467290ccaa83b5536f47d,62c53a8c54c23d5b03dab9d0,2022-07-06_09h33.54.316,Colour_Asymmetry_Pilot,2022.1.3,Win32,60.11783095,62c50e9c1127f2cd403a315f,,,,,,,,,,,,,,,,,,,,,,,,,,,,,,,,,,,,,,,,,,,,,,,,,,,,,,,,,,,,,,,,,,,,,,,,,,,,,,,,,,,,,,,,,,,,,,,,,,,,,,,,,,,,,,,,,,,,,,,,,,,,,,,,,,,,,,,,,,,,,,,,,,,,,,,,,,,,,,,,,,,
0,12,12,21,1,,60d467290ccaa83b5536f47d,62c53a8c54c23d5b03dab9d0,2022-07-06_09h33.54.316,Colour_Asymmetry_Pilot,2022.1.3,Win32,60.11783095,62c50e9c1127f2cd403a315f,,,,,,,,,,,,,,,,,,,,,,,,,,,,,,,,,,,,,,,,,,,,,,,,,,,,,,,,,,,,,,,,,,,,,,,,,,,,,,,,,,,,,,,,,,,,,,,,,,,,,,,,,,,,,,,,,,,,,,,,,,,,,,,,,,,,,,,,,,,,,,,,,,,,,,,,,,,,,,,,,,,
0,13,13,0,1,,60d467290ccaa83b5536f47d,62c53a8c54c23d5b03dab9d0,2022-07-06_09h33.54.316,Colour_Asymmetry_Pilot,2022.1.3,Win32,60.11783095,62c50e9c1127f2cd403a315f,,,,,,,,,,,,,,,,,,,,,,,,,,,,,,,,,,,,,,,,,,,,,,,,,,,,,,,,,,,,,,,,,,,,,,,,,,,,,,,,,,,,,,,,,,,,,,,,,,,,,,,,,,,,,,,,,,,,,,,,,,,,,,,,,,,,,,,,,,,,,,,,,,,,,,,,,,,,,,,,,,,
0,14,14,71,1,,60d467290ccaa83b5536f47d,62c53a8c54c23d5b03dab9d0,2022-07-06_09h33.54.316,Colour_Asymmetry_Pilot,2022.1.3,Win32,60.11783095,62c50e9c1127f2cd403a315f,,,,,,,,,,,,,,,,,,,,,,,,,,,,,,,,,,,,,,,,,,,,,,,,,,,,,,,,,,,,,,,,,,,,,,,,,,,,,,,,,,,,,,,,,,,,,,,,,,,,,,,,,,,,,,,,,,,,,,,,,,,,,,,,,,,,,,,,,,,,,,,,,,,,,,,,,,,,,,,,,,,
0,15,15,32,1,,60d467290ccaa83b5536f47d,62c53a8c54c23d5b03dab9d0,2022-07-06_09h33.54.316,Colour_Asymmetry_Pilot,2022.1.3,Win32,60.11783095,62c50e9c1127f2cd403a315f,,,,,,,,,,,,,,,,,,,,,,,,,,,,,,,,,,,,,,,,,,,,,,,,,,,,,,,,,,,,,,,,,,,,,,,,,,,,,,,,,,,,,,,,,,,,,,,,,,,,,,,,,,,,,,,,,,,,,,,,,,,,,,,,,,,,,,,,,,,,,,,,,,,,,,,,,,,,,,,,,,,
0,16,16,60,1,,60d467290ccaa83b5536f47d,62c53a8c54c23d5b03dab9d0,2022-07-06_09h33.54.316,Colour_Asymmetry_Pilot,2022.1.3,Win32,60.11783095,62c50e9c1127f2cd403a315f,,,,,,,,,,,,,,,,,,,,,,,,,,,,,,,,,,,,,,,,,,,,,,,,,,,,,,,,,,,,,,,,,,,,,,,,,,,,,,,,,,,,,,,,,,,,,,,,,,,,,,,,,,,,,,,,,,,,,,,,,,,,,,,,,,,,,,,,,,,,,,,,,,,,,,,,,,,,,,,,,,,
0,17,17,62,1,,60d467290ccaa83b5536f47d,62c53a8c54c23d5b03dab9d0,2022-07-06_09h33.54.316,Colour_Asymmetry_Pilot,2022.1.3,Win32,60.11783095,62c50e9c1127f2cd403a315f,,,,,,,,,,,,,,,,,,,,,,,,,,,,,,,,,,,,,,,,,,,,,,,,,,,,,,,,,,,,,,,,,,,,,,,,,,,,,,,,,,,,,,,,,,,,,,,,,,,,,,,,,,,,,,,,,,,,,,,,,,,,,,,,,,,,,,,,,,,,,,,,,,,,,,,,,,,,,,,,,,,
0,18,18,11,1,,60d467290ccaa83b5536f47d,62c53a8c54c23d5b03dab9d0,2022-07-06_09h33.54.316,Colour_Asymmetry_Pilot,2022.1.3,Win32,60.11783095,62c50e9c1127f2cd403a315f,,,,,,,,,,,,,,,,,,,,,,,,,,,,,,,,,,,,,,,,,,,,,,,,,,,,,,,,,,,,,,,,,,,,,,,,,,,,,,,,,,,,,,,,,,,,,,,,,,,,,,,,,,,,,,,,,,,,,,,,,,,,,,,,,,,,,,,,,,,,,,,,,,,,,,,,,,,,,,,,,,,
0,19,19,64,1,,60d467290ccaa83b5536f47d,62c53a8c54c23d5b03dab9d0,2022-07-06_09h33.54.316,Colour_Asymmetry_Pilot,2022.1.3,Win32,60.11783095,62c50e9c1127f2cd403a315f,,,,,,,,,,,,,,,,,,,,,,,,,,,,,,,,,,,,,,,,,,,,,,,,,,,,,,,,,,,,,,,,,,,,,,,,,,,,,,,,,,,,,,,,,,,,,,,,,,,,,,,,,,,,,,,,,,,,,,,,,,,,,,,,,,,,,,,,,,,,,,,,,,,,,,,,,,,,,,,,,,,
0,20,20,26,1,,60d467290ccaa83b5536f47d,62c53a8c54c23d5b03dab9d0,2022-07-06_09h33.54.316,Colour_Asymmetry_Pilot,2022.1.3,Win32,60.11783095,62c50e9c1127f2cd403a315f,,,,,,,,,,,,,,,,,,,,,,,,,,,,,,,,,,,,,,,,,,,,,,,,,,,,,,,,,,,,,,,,,,,,,,,,,,,,,,,,,,,,,,,,,,,,,,,,,,,,,,,,,,,,,,,,,,,,,,,,,,,,,,,,,,,,,,,,,,,,,,,,,,,,,,,,,,,,,,,,,,,
0,21,21,38,1,,60d467290ccaa83b5536f47d,62c53a8c54c23d5b03dab9d0,2022-07-06_09h33.54.316,Colour_Asymmetry_Pilot,2022.1.3,Win32,60.11783095,62c50e9c1127f2cd403a315f,,,,,,,,,,,,,,,,,,,,,,,,,,,,,,,,,,,,,,,,,,,,,,,,,,,,,,,,,,,,,,,,,,,,,,,,,,,,,,,,,,,,,,,,,,,,,,,,,,,,,,,,,,,,,,,,,,,,,,,,,,,,,,,,,,,,,,,,,,,,,,,,,,,,,,,,,,,,,,,,,,,
0,22,22,85,1,,60d467290ccaa83b5536f47d,62c53a8c54c23d5b03dab9d0,2022-07-06_09h33.54.316,Colour_Asymmetry_Pilot,2022.1.3,Win32,60.11783095,62c50e9c1127f2cd403a315f,,,,,,,,,,,,,,,,,,,,,,,,,,,,,,,,,,,,,,,,,,,,,,,,,,,,,,,,,,,,,,,,,,,,,,,,,,,,,,,,,,,,,,,,,,,,,,,,,,,,,,,,,,,,,,,,,,,,,,,,,,,,,,,,,,,,,,,,,,,,,,,,,,,,,,,,,,,,,,,,,,,
0,23,23,29,1,,60d467290ccaa83b5536f47d,62c53a8c54c23d5b03dab9d0,2022-07-06_09h33.54.316,Colour_Asymmetry_Pilot,2022.1.3,Win32,60.11783095,62c50e9c1127f2cd403a315f,,,,,,,,,,,,,,,,,,,,,,,,,,,,,,,,,,,,,,,,,,,,,,,,,,,,,,,,,,,,,,,,,,,,,,,,,,,,,,,,,,,,,,,,,,,,,,,,,,,,,,,,,,,,,,,,,,,,,,,,,,,,,,,,,,,,,,,,,,,,,,,,,,,,,,,,,,,,,,,,,,,
0,24,24,83,1,,60d467290ccaa83b5536f47d,62c53a8c54c23d5b03dab9d0,2022-07-06_09h33.54.316,Colour_Asymmetry_Pilot,2022.1.3,Win32,60.11783095,62c50e9c1127f2cd403a315f,,,,,,,,,,,,,,,,,,,,,,,,,,,,,,,,,,,,,,,,,,,,,,,,,,,,,,,,,,,,,,,,,,,,,,,,,,,,,,,,,,,,,,,,,,,,,,,,,,,,,,,,,,,,,,,,,,,,,,,,,,,,,,,,,,,,,,,,,,,,,,,,,,,,,,,,,,,,,,,,,,,
0,25,25,35,1,,60d467290ccaa83b5536f47d,62c53a8c54c23d5b03dab9d0,2022-07-06_09h33.54.316,Colour_Asymmetry_Pilot,2022.1.3,Win32,60.11783095,62c50e9c1127f2cd403a315f,,,,,,,,,,,,,,,,,,,,,,,,,,,,,,,,,,,,,,,,,,,,,,,,,,,,,,,,,,,,,,,,,,,,,,,,,,,,,,,,,,,,,,,,,,,,,,,,,,,,,,,,,,,,,,,,,,,,,,,,,,,,,,,,,,,,,,,,,,,,,,,,,,,,,,,,,,,,,,,,,,,
0,26,26,24,1,,60d467290ccaa83b5536f47d,62c53a8c54c23d5b03dab9d0,2022-07-06_09h33.54.316,Colour_Asymmetry_Pilot,2022.1.3,Win32,60.11783095,62c50e9c1127f2cd403a315f,,,,,,,,,,,,,,,,,,,,,,,,,,,,,,,,,,,,,,,,,,,,,,,,,,,,,,,,,,,,,,,,,,,,,,,,,,,,,,,,,,,,,,,,,,,,,,,,,,,,,,,,,,,,,,,,,,,,,,,,,,,,,,,,,,,,,,,,,,,,,,,,,,,,,,,,,,,,,,,,,,,
0,27,27,2,1,,60d467290ccaa83b5536f47d,62c53a8c54c23d5b03dab9d0,2022-07-06_09h33.54.316,Colour_Asymmetry_Pilot,2022.1.3,Win32,60.11783095,62c50e9c1127f2cd403a315f,,,,,,,,,,,,,,,,,,,,,,,,,,,,,,,,,,,,,,,,,,,,,,,,,,,,,,,,,,,,,,,,,,,,,,,,,,,,,,,,,,,,,,,,,,,,,,,,,,,,,,,,,,,,,,,,,,,,,,,,,,,,,,,,,,,,,,,,,,,,,,,,,,,,,,,,,,,,,,,,,,,
0,28,28,74,1,,60d467290ccaa83b5536f47d,62c53a8c54c23d5b03dab9d0,2022-07-06_09h33.54.316,Colour_Asymmetry_Pilot,2022.1.3,Win32,60.11783095,62c50e9c1127f2cd403a315f,,,,,,,,,,,,,,,,,,,,,,,,,,,,,,,,,,,,,,,,,,,,,,,,,,,,,,,,,,,,,,,,,,,,,,,,,,,,,,,,,,,,,,,,,,,,,,,,,,,,,,,,,,,,,,,,,,,,,,,,,,,,,,,,,,,,,,,,,,,,,,,,,,,,,,,,,,,,,,,,,,,
0,29,29,14,1,,60d467290ccaa83b5536f47d,62c53a8c54c23d5b03dab9d0,2022-07-06_09h33.54.316,Colour_Asymmetry_Pilot,2022.1.3,Win32,60.11783095,62c50e9c1127f2cd403a315f,,,,,,,,,,,,,,,,,,,,,,,,,,,,,,,,,,,,,,,,,,,,,,,,,,,,,,,,,,,,,,,,,,,,,,,,,,,,,,,,,,,,,,,,,,,,,,,,,,,,,,,,,,,,,,,,,,,,,,,,,,,,,,,,,,,,,,,,,,,,,,,,,,,,,,,,,,,,,,,,,,,
0,30,30,45,1,,60d467290ccaa83b5536f47d,62c53a8c54c23d5b03dab9d0,2022-07-06_09h33.54.316,Colour_Asymmetry_Pilot,2022.1.3,Win32,60.11783095,62c50e9c1127f2cd403a315f,,,,,,,,,,,,,,,,,,,,,,,,,,,,,,,,,,,,,,,,,,,,,,,,,,,,,,,,,,,,,,,,,,,,,,,,,,,,,,,,,,,,,,,,,,,,,,,,,,,,,,,,,,,,,,,,,,,,,,,,,,,,,,,,,,,,,,,,,,,,,,,,,,,,,,,,,,,,,,,,,,,
0,31,31,91,1,,60d467290ccaa83b5536f47d,62c53a8c54c23d5b03dab9d0,2022-07-06_09h33.54.316,Colour_Asymmetry_Pilot,2022.1.3,Win32,60.11783095,62c50e9c1127f2cd403a315f,,,,,,,,,,,,,,,,,,,,,,,,,,,,,,,,,,,,,,,,,,,,,,,,,,,,,,,,,,,,,,,,,,,,,,,,,,,,,,,,,,,,,,,,,,,,,,,,,,,,,,,,,,,,,,,,,,,,,,,,,,,,,,,,,,,,,,,,,,,,,,,,,,,,,,,,,,,,,,,,,,,
0,32,32,1,1,,60d467290ccaa83b5536f47d,62c53a8c54c23d5b03dab9d0,2022-07-06_09h33.54.316,Colour_Asymmetry_Pilot,2022.1.3,Win32,60.11783095,62c50e9c1127f2cd403a315f,,,,,,,,,,,,,,,,,,,,,,,,,,,,,,,,,,,,,,,,,,,,,,,,,,,,,,,,,,,,,,,,,,,,,,,,,,,,,,,,,,,,,,,,,,,,,,,,,,,,,,,,,,,,,,,,,,,,,,,,,,,,,,,,,,,,,,,,,,,,,,,,,,,,,,,,,,,,,,,,,,,
0,33,33,86,1,,60d467290ccaa83b5536f47d,62c53a8c54c23d5b03dab9d0,2022-07-06_09h33.54.316,Colour_Asymmetry_Pilot,2022.1.3,Win32,60.11783095,62c50e9c1127f2cd403a315f,,,,,,,,,,,,,,,,,,,,,,,,,,,,,,,,,,,,,,,,,,,,,,,,,,,,,,,,,,,,,,,,,,,,,,,,,,,,,,,,,,,,,,,,,,,,,,,,,,,,,,,,,,,,,,,,,,,,,,,,,,,,,,,,,,,,,,,,,,,,,,,,,,,,,,,,,,,,,,,,,,,
0,34,34,49,1,,60d467290ccaa83b5536f47d,62c53a8c54c23d5b03dab9d0,2022-07-06_09h33.54.316,Colour_Asymmetry_Pilot,2022.1.3,Win32,60.11783095,62c50e9c1127f2cd403a315f,,,,,,,,,,,,,,,,,,,,,,,,,,,,,,,,,,,,,,,,,,,,,,,,,,,,,,,,,,,,,,,,,,,,,,,,,,,,,,,,,,,,,,,,,,,,,,,,,,,,,,,,,,,,,,,,,,,,,,,,,,,,,,,,,,,,,,,,,,,,,,,,,,,,,,,,,,,,,,,,,,,
0,35,35,73,1,,60d467290ccaa83b5536f47d,62c53a8c54c23d5b03dab9d0,2022-07-06_09h33.54.316,Colour_Asymmetry_Pilot,2022.1.3,Win32,60.11783095,62c50e9c1127f2cd403a315f,,,,,,,,,,,,,,,,,,,,,,,,,,,,,,,,,,,,,,,,,,,,,,,,,,,,,,,,,,,,,,,,,,,,,,,,,,,,,,,,,,,,,,,,,,,,,,,,,,,,,,,,,,,,,,,,,,,,,,,,,,,,,,,,,,,,,,,,,,,,,,,,,,,,,,,,,,,,,,,,,,,
0,36,36,55,1,,60d467290ccaa83b5536f47d,62c53a8c54c23d5b03dab9d0,2022-07-06_09h33.54.316,Colour_Asymmetry_Pilot,2022.1.3,Win32,60.11783095,62c50e9c1127f2cd403a315f,,,,,,,,,,,,,,,,,,,,,,,,,,,,,,,,,,,,,,,,,,,,,,,,,,,,,,,,,,,,,,,,,,,,,,,,,,,,,,,,,,,,,,,,,,,,,,,,,,,,,,,,,,,,,,,,,,,,,,,,,,,,,,,,,,,,,,,,,,,,,,,,,,,,,,,,,,,,,,,,,,,
0,37,37,90,1,,60d467290ccaa83b5536f47d,62c53a8c54c23d5b03dab9d0,2022-07-06_09h33.54.316,Colour_Asymmetry_Pilot,2022.1.3,Win32,60.11783095,62c50e9c1127f2cd403a315f,,,,,,,,,,,,,,,,,,,,,,,,,,,,,,,,,,,,,,,,,,,,,,,,,,,,,,,,,,,,,,,,,,,,,,,,,,,,,,,,,,,,,,,,,,,,,,,,,,,,,,,,,,,,,,,,,,,,,,,,,,,,,,,,,,,,,,,,,,,,,,,,,,,,,,,,,,,,,,,,,,,
0,38,38,18,1,,60d467290ccaa83b5536f47d,62c53a8c54c23d5b03dab9d0,2022-07-06_09h33.54.316,Colour_Asymmetry_Pilot,2022.1.3,Win32,60.11783095,62c50e9c1127f2cd403a315f,,,,,,,,,,,,,,,,,,,,,,,,,,,,,,,,,,,,,,,,,,,,,,,,,,,,,,,,,,,,,,,,,,,,,,,,,,,,,,,,,,,,,,,,,,,,,,,,,,,,,,,,,,,,,,,,,,,,,,,,,,,,,,,,,,,,,,,,,,,,,,,,,,,,,,,,,,,,,,,,,,,
0,39,39,39,1,,60d467290ccaa83b5536f47d,62c53a8c54c23d5b03dab9d0,2022-07-06_09h33.54.316,Colour_Asymmetry_Pilot,2022.1.3,Win32,60.11783095,62c50e9c1127f2cd403a315f,,,,,,,,,,,,,,,,,,,,,,,,,,,,,,,,,,,,,,,,,,,,,,,,,,,,,,,,,,,,,,,,,,,,,,,,,,,,,,,,,,,,,,,,,,,,,,,,,,,,,,,,,,,,,,,,,,,,,,,,,,,,,,,,,,,,,,,,,,,,,,,,,,,,,,,,,,,,,,,,,,,
0,40,40,69,1,,60d467290ccaa83b5536f47d,62c53a8c54c23d5b03dab9d0,2022-07-06_09h33.54.316,Colour_Asymmetry_Pilot,2022.1.3,Win32,60.11783095,62c50e9c1127f2cd403a315f,,,,,,,,,,,,,,,,,,,,,,,,,,,,,,,,,,,,,,,,,,,,,,,,,,,,,,,,,,,,,,,,,,,,,,,,,,,,,,,,,,,,,,,,,,,,,,,,,,,,,,,,,,,,,,,,,,,,,,,,,,,,,,,,,,,,,,,,,,,,,,,,,,,,,,,,,,,,,,,,,,,
0,41,41,33,1,,60d467290ccaa83b5536f47d,62c53a8c54c23d5b03dab9d0,2022-07-06_09h33.54.316,Colour_Asymmetry_Pilot,2022.1.3,Win32,60.11783095,62c50e9c1127f2cd403a315f,,,,,,,,,,,,,,,,,,,,,,,,,,,,,,,,,,,,,,,,,,,,,,,,,,,,,,,,,,,,,,,,,,,,,,,,,,,,,,,,,,,,,,,,,,,,,,,,,,,,,,,,,,,,,,,,,,,,,,,,,,,,,,,,,,,,,,,,,,,,,,,,,,,,,,,,,,,,,,,,,,,
0,42,42,37,1,,60d467290ccaa83b5536f47d,62c53a8c54c23d5b03dab9d0,2022-07-06_09h33.54.316,Colour_Asymmetry_Pilot,2022.1.3,Win32,60.11783095,62c50e9c1127f2cd403a315f,,,,,,,,,,,,,,,,,,,,,,,,,,,,,,,,,,,,,,,,,,,,,,,,,,,,,,,,,,,,,,,,,,,,,,,,,,,,,,,,,,,,,,,,,,,,,,,,,,,,,,,,,,,,,,,,,,,,,,,,,,,,,,,,,,,,,,,,,,,,,,,,,,,,,,,,,,,,,,,,,,,
0,43,43,15,1,,60d467290ccaa83b5536f47d,62c53a8c54c23d5b03dab9d0,2022-07-06_09h33.54.316,Colour_Asymmetry_Pilot,2022.1.3,Win32,60.11783095,62c50e9c1127f2cd403a315f,,,,,,,,,,,,,,,,,,,,,,,,,,,,,,,,,,,,,,,,,,,,,,,,,,,,,,,,,,,,,,,,,,,,,,,,,,,,,,,,,,,,,,,,,,,,,,,,,,,,,,,,,,,,,,,,,,,,,,,,,,,,,,,,,,,,,,,,,,,,,,,,,,,,,,,,,,,,,,,,,,,
0,44,44,17,1,,60d467290ccaa83b5536f47d,62c53a8c54c23d5b03dab9d0,2022-07-06_09h33.54.316,Colour_Asymmetry_Pilot,2022.1.3,Win32,60.11783095,62c50e9c1127f2cd403a315f,,,,,,,,,,,,,,,,,,,,,,,,,,,,,,,,,,,,,,,,,,,,,,,,,,,,,,,,,,,,,,,,,,,,,,,,,,,,,,,,,,,,,,,,,,,,,,,,,,,,,,,,,,,,,,,,,,,,,,,,,,,,,,,,,,,,,,,,,,,,,,,,,,,,,,,,,,,,,,,,,,,
0,45,45,7,1,,60d467290ccaa83b5536f47d,62c53a8c54c23d5b03dab9d0,2022-07-06_09h33.54.316,Colour_Asymmetry_Pilot,2022.1.3,Win32,60.11783095,62c50e9c1127f2cd403a315f,,,,,,,,,,,,,,,,,,,,,,,,,,,,,,,,,,,,,,,,,,,,,,,,,,,,,,,,,,,,,,,,,,,,,,,,,,,,,,,,,,,,,,,,,,,,,,,,,,,,,,,,,,,,,,,,,,,,,,,,,,,,,,,,,,,,,,,,,,,,,,,,,,,,,,,,,,,,,,,,,,,
0,46,46,40,1,,60d467290ccaa83b5536f47d,62c53a8c54c23d5b03dab9d0,2022-07-06_09h33.54.316,Colour_Asymmetry_Pilot,2022.1.3,Win32,60.11783095,62c50e9c1127f2cd403a315f,,,,,,,,,,,,,,,,,,,,,,,,,,,,,,,,,,,,,,,,,,,,,,,,,,,,,,,,,,,,,,,,,,,,,,,,,,,,,,,,,,,,,,,,,,,,,,,,,,,,,,,,,,,,,,,,,,,,,,,,,,,,,,,,,,,,,,,,,,,,,,,,,,,,,,,,,,,,,,,,,,,
0,47,47,88,1,,60d467290ccaa83b5536f47d,62c53a8c54c23d5b03dab9d0,2022-07-06_09h33.54.316,Colour_Asymmetry_Pilot,2022.1.3,Win32,60.11783095,62c50e9c1127f2cd403a315f,,,,,,,,,,,,,,,,,,,,,,,,,,,,,,,,,,,,,,,,,,,,,,,,,,,,,,,,,,,,,,,,,,,,,,,,,,,,,,,,,,,,,,,,,,,,,,,,,,,,,,,,,,,,,,,,,,,,,,,,,,,,,,,,,,,,,,,,,,,,,,,,,,,,,,,,,,,,,,,,,,,
0,48,48,47,1,,60d467290ccaa83b5536f47d,62c53a8c54c23d5b03dab9d0,2022-07-06_09h33.54.316,Colour_Asymmetry_Pilot,2022.1.3,Win32,60.11783095,62c50e9c1127f2cd403a315f,,,,,,,,,,,,,,,,,,,,,,,,,,,,,,,,,,,,,,,,,,,,,,,,,,,,,,,,,,,,,,,,,,,,,,,,,,,,,,,,,,,,,,,,,,,,,,,,,,,,,,,,,,,,,,,,,,,,,,,,,,,,,,,,,,,,,,,,,,,,,,,,,,,,,,,,,,,,,,,,,,,
0,49,49,87,1,,60d467290ccaa83b5536f47d,62c53a8c54c23d5b03dab9d0,2022-07-06_09h33.54.316,Colour_Asymmetry_Pilot,2022.1.3,Win32,60.11783095,62c50e9c1127f2cd403a315f,,,,,,,,,,,,,,,,,,,,,,,,,,,,,,,,,,,,,,,,,,,,,,,,,,,,,,,,,,,,,,,,,,,,,,,,,,,,,,,,,,,,,,,,,,,,,,,,,,,,,,,,,,,,,,,,,,,,,,,,,,,,,,,,,,,,,,,,,,,,,,,,,,,,,,,,,,,,,,,,,,,
0,50,50,48,1,,60d467290ccaa83b5536f47d,62c53a8c54c23d5b03dab9d0,2022-07-06_09h33.54.316,Colour_Asymmetry_Pilot,2022.1.3,Win32,60.11783095,62c50e9c1127f2cd403a315f,,,,,,,,,,,,,,,,,,,,,,,,,,,,,,,,,,,,,,,,,,,,,,,,,,,,,,,,,,,,,,,,,,,,,,,,,,,,,,,,,,,,,,,,,,,,,,,,,,,,,,,,,,,,,,,,,,,,,,,,,,,,,,,,,,,,,,,,,,,,,,,,,,,,,,,,,,,,,,,,,,,
0,51,51,59,1,,60d467290ccaa83b5536f47d,62c53a8c54c23d5b03dab9d0,2022-07-06_09h33.54.316,Colour_Asymmetry_Pilot,2022.1.3,Win32,60.11783095,62c50e9c1127f2cd403a315f,,,,,,,,,,,,,,,,,,,,,,,,,,,,,,,,,,,,,,,,,,,,,,,,,,,,,,,,,,,,,,,,,,,,,,,,,,,,,,,,,,,,,,,,,,,,,,,,,,,,,,,,,,,,,,,,,,,,,,,,,,,,,,,,,,,,,,,,,,,,,,,,,,,,,,,,,,,,,,,,,,,
0,52,52,12,1,,60d467290ccaa83b5536f47d,62c53a8c54c23d5b03dab9d0,2022-07-06_09h33.54.316,Colour_Asymmetry_Pilot,2022.1.3,Win32,60.11783095,62c50e9c1127f2cd403a315f,,,,,,,,,,,,,,,,,,,,,,,,,,,,,,,,,,,,,,,,,,,,,,,,,,,,,,,,,,,,,,,,,,,,,,,,,,,,,,,,,,,,,,,,,,,,,,,,,,,,,,,,,,,,,,,,,,,,,,,,,,,,,,,,,,,,,,,,,,,,,,,,,,,,,,,,,,,,,,,,,,,
0,53,53,52,1,,60d467290ccaa83b5536f47d,62c53a8c54c23d5b03dab9d0,2022-07-06_09h33.54.316,Colour_Asymmetry_Pilot,2022.1.3,Win32,60.11783095,62c50e9c1127f2cd403a315f,,,,,,,,,,,,,,,,,,,,,,,,,,,,,,,,,,,,,,,,,,,,,,,,,,,,,,,,,,,,,,,,,,,,,,,,,,,,,,,,,,,,,,,,,,,,,,,,,,,,,,,,,,,,,,,,,,,,,,,,,,,,,,,,,,,,,,,,,,,,,,,,,,,,,,,,,,,,,,,,,,,
0,54,54,82,1,,60d467290ccaa83b5536f47d,62c53a8c54c23d5b03dab9d0,2022-07-06_09h33.54.316,Colour_Asymmetry_Pilot,2022.1.3,Win32,60.11783095,62c50e9c1127f2cd403a315f,,,,,,,,,,,,,,,,,,,,,,,,,,,,,,,,,,,,,,,,,,,,,,,,,,,,,,,,,,,,,,,,,,,,,,,,,,,,,,,,,,,,,,,,,,,,,,,,,,,,,,,,,,,,,,,,,,,,,,,,,,,,,,,,,,,,,,,,,,,,,,,,,,,,,,,,,,,,,,,,,,,
0,55,55,50,1,,60d467290ccaa83b5536f47d,62c53a8c54c23d5b03dab9d0,2022-07-06_09h33.54.316,Colour_Asymmetry_Pilot,2022.1.3,Win32,60.11783095,62c50e9c1127f2cd403a315f,,,,,,,,,,,,,,,,,,,,,,,,,,,,,,,,,,,,,,,,,,,,,,,,,,,,,,,,,,,,,,,,,,,,,,,,,,,,,,,,,,,,,,,,,,,,,,,,,,,,,,,,,,,,,,,,,,,,,,,,,,,,,,,,,,,,,,,,,,,,,,,,,,,,,,,,,,,,,,,,,,,
0,56,56,81,1,,60d467290ccaa83b5536f47d,62c53a8c54c23d5b03dab9d0,2022-07-06_09h33.54.316,Colour_Asymmetry_Pilot,2022.1.3,Win32,60.11783095,62c50e9c1127f2cd403a315f,,,,,,,,,,,,,,,,,,,,,,,,,,,,,,,,,,,,,,,,,,,,,,,,,,,,,,,,,,,,,,,,,,,,,,,,,,,,,,,,,,,,,,,,,,,,,,,,,,,,,,,,,,,,,,,,,,,,,,,,,,,,,,,,,,,,,,,,,,,,,,,,,,,,,,,,,,,,,,,,,,,
0,57,57,80,1,,60d467290ccaa83b5536f47d,62c53a8c54c23d5b03dab9d0,2022-07-06_09h33.54.316,Colour_Asymmetry_Pilot,2022.1.3,Win32,60.11783095,62c50e9c1127f2cd403a315f,,,,,,,,,,,,,,,,,,,,,,,,,,,,,,,,,,,,,,,,,,,,,,,,,,,,,,,,,,,,,,,,,,,,,,,,,,,,,,,,,,,,,,,,,,,,,,,,,,,,,,,,,,,,,,,,,,,,,,,,,,,,,,,,,,,,,,,,,,,,,,,,,,,,,,,,,,,,,,,,,,,
0,58,58,30,1,,60d467290ccaa83b5536f47d,62c53a8c54c23d5b03dab9d0,2022-07-06_09h33.54.316,Colour_Asymmetry_Pilot,2022.1.3,Win32,60.11783095,62c50e9c1127f2cd403a315f,,,,,,,,,,,,,,,,,,,,,,,,,,,,,,,,,,,,,,,,,,,,,,,,,,,,,,,,,,,,,,,,,,,,,,,,,,,,,,,,,,,,,,,,,,,,,,,,,,,,,,,,,,,,,,,,,,,,,,,,,,,,,,,,,,,,,,,,,,,,,,,,,,,,,,,,,,,,,,,,,,,
0,59,59,76,1,,60d467290ccaa83b5536f47d,62c53a8c54c23d5b03dab9d0,2022-07-06_09h33.54.316,Colour_Asymmetry_Pilot,2022.1.3,Win32,60.11783095,62c50e9c1127f2cd403a315f,,,,,,,,,,,,,,,,,,,,,,,,,,,,,,,,,,,,,,,,,,,,,,,,,,,,,,,,,,,,,,,,,,,,,,,,,,,,,,,,,,,,,,,,,,,,,,,,,,,,,,,,,,,,,,,,,,,,,,,,,,,,,,,,,,,,,,,,,,,,,,,,,,,,,,,,,,,,,,,,,,,
0,60,60,51,1,,60d467290ccaa83b5536f47d,62c53a8c54c23d5b03dab9d0,2022-07-06_09h33.54.316,Colour_Asymmetry_Pilot,2022.1.3,Win32,60.11783095,62c50e9c1127f2cd403a315f,,,,,,,,,,,,,,,,,,,,,,,,,,,,,,,,,,,,,,,,,,,,,,,,,,,,,,,,,,,,,,,,,,,,,,,,,,,,,,,,,,,,,,,,,,,,,,,,,,,,,,,,,,,,,,,,,,,,,,,,,,,,,,,,,,,,,,,,,,,,,,,,,,,,,,,,,,,,,,,,,,,
0,61,61,65,1,,60d467290ccaa83b5536f47d,62c53a8c54c23d5b03dab9d0,2022-07-06_09h33.54.316,Colour_Asymmetry_Pilot,2022.1.3,Win32,60.11783095,62c50e9c1127f2cd403a315f,,,,,,,,,,,,,,,,,,,,,,,,,,,,,,,,,,,,,,,,,,,,,,,,,,,,,,,,,,,,,,,,,,,,,,,,,,,,,,,,,,,,,,,,,,,,,,,,,,,,,,,,,,,,,,,,,,,,,,,,,,,,,,,,,,,,,,,,,,,,,,,,,,,,,,,,,,,,,,,,,,,
0,62,62,36,1,,60d467290ccaa83b5536f47d,62c53a8c54c23d5b03dab9d0,2022-07-06_09h33.54.316,Colour_Asymmetry_Pilot,2022.1.3,Win32,60.11783095,62c50e9c1127f2cd403a315f,,,,,,,,,,,,,,,,,,,,,,,,,,,,,,,,,,,,,,,,,,,,,,,,,,,,,,,,,,,,,,,,,,,,,,,,,,,,,,,,,,,,,,,,,,,,,,,,,,,,,,,,,,,,,,,,,,,,,,,,,,,,,,,,,,,,,,,,,,,,,,,,,,,,,,,,,,,,,,,,,,,
0,63,63,57,1,,60d467290ccaa83b5536f47d,62c53a8c54c23d5b03dab9d0,2022-07-06_09h33.54.316,Colour_Asymmetry_Pilot,2022.1.3,Win32,60.11783095,62c50e9c1127f2cd403a315f,,,,,,,,,,,,,,,,,,,,,,,,,,,,,,,,,,,,,,,,,,,,,,,,,,,,,,,,,,,,,,,,,,,,,,,,,,,,,,,,,,,,,,,,,,,,,,,,,,,,,,,,,,,,,,,,,,,,,,,,,,,,,,,,,,,,,,,,,,,,,,,,,,,,,,,,,,,,,,,,,,,
0,64,64,68,1,,60d467290ccaa83b5536f47d,62c53a8c54c23d5b03dab9d0,2022-07-06_09h33.54.316,Colour_Asymmetry_Pilot,2022.1.3,Win32,60.11783095,62c50e9c1127f2cd403a315f,,,,,,,,,,,,,,,,,,,,,,,,,,,,,,,,,,,,,,,,,,,,,,,,,,,,,,,,,,,,,,,,,,,,,,,,,,,,,,,,,,,,,,,,,,,,,,,,,,,,,,,,,,,,,,,,,,,,,,,,,,,,,,,,,,,,,,,,,,,,,,,,,,,,,,,,,,,,,,,,,,,
0,65,65,72,1,,60d467290ccaa83b5536f47d,62c53a8c54c23d5b03dab9d0,2022-07-06_09h33.54.316,Colour_Asymmetry_Pilot,2022.1.3,Win32,60.11783095,62c50e9c1127f2cd403a315f,,,,,,,,,,,,,,,,,,,,,,,,,,,,,,,,,,,,,,,,,,,,,,,,,,,,,,,,,,,,,,,,,,,,,,,,,,,,,,,,,,,,,,,,,,,,,,,,,,,,,,,,,,,,,,,,,,,,,,,,,,,,,,,,,,,,,,,,,,,,,,,,,,,,,,,,,,,,,,,,,,,
0,66,66,3,1,,60d467290ccaa83b5536f47d,62c53a8c54c23d5b03dab9d0,2022-07-06_09h33.54.316,Colour_Asymmetry_Pilot,2022.1.3,Win32,60.11783095,62c50e9c1127f2cd403a315f,,,,,,,,,,,,,,,,,,,,,,,,,,,,,,,,,,,,,,,,,,,,,,,,,,,,,,,,,,,,,,,,,,,,,,,,,,,,,,,,,,,,,,,,,,,,,,,,,,,,,,,,,,,,,,,,,,,,,,,,,,,,,,,,,,,,,,,,,,,,,,,,,,,,,,,,,,,,,,,,,,,
0,67,67,67,1,,60d467290ccaa83b5536f47d,62c53a8c54c23d5b03dab9d0,2022-07-06_09h33.54.316,Colour_Asymmetry_Pilot,2022.1.3,Win32,60.11783095,62c50e9c1127f2cd403a315f,,,,,,,,,,,,,,,,,,,,,,,,,,,,,,,,,,,,,,,,,,,,,,,,,,,,,,,,,,,,,,,,,,,,,,,,,,,,,,,,,,,,,,,,,,,,,,,,,,,,,,,,,,,,,,,,,,,,,,,,,,,,,,,,,,,,,,,,,,,,,,,,,,,,,,,,,,,,,,,,,,,
0,68,68,13,1,,60d467290ccaa83b5536f47d,62c53a8c54c23d5b03dab9d0,2022-07-06_09h33.54.316,Colour_Asymmetry_Pilot,2022.1.3,Win32,60.11783095,62c50e9c1127f2cd403a315f,,,,,,,,,,,,,,,,,,,,,,,,,,,,,,,,,,,,,,,,,,,,,,,,,,,,,,,,,,,,,,,,,,,,,,,,,,,,,,,,,,,,,,,,,,,,,,,,,,,,,,,,,,,,,,,,,,,,,,,,,,,,,,,,,,,,,,,,,,,,,,,,,,,,,,,,,,,,,,,,,,,
0,69,69,6,1,,60d467290ccaa83b5536f47d,62c53a8c54c23d5b03dab9d0,2022-07-06_09h33.54.316,Colour_Asymmetry_Pilot,2022.1.3,Win32,60.11783095,62c50e9c1127f2cd403a315f,,,,,,,,,,,,,,,,,,,,,,,,,,,,,,,,,,,,,,,,,,,,,,,,,,,,,,,,,,,,,,,,,,,,,,,,,,,,,,,,,,,,,,,,,,,,,,,,,,,,,,,,,,,,,,,,,,,,,,,,,,,,,,,,,,,,,,,,,,,,,,,,,,,,,,,,,,,,,,,,,,,
0,70,70,44,1,,60d467290ccaa83b5536f47d,62c53a8c54c23d5b03dab9d0,2022-07-06_09h33.54.316,Colour_Asymmetry_Pilot,2022.1.3,Win32,60.11783095,62c50e9c1127f2cd403a315f,,,,,,,,,,,,,,,,,,,,,,,,,,,,,,,,,,,,,,,,,,,,,,,,,,,,,,,,,,,,,,,,,,,,,,,,,,,,,,,,,,,,,,,,,,,,,,,,,,,,,,,,,,,,,,,,,,,,,,,,,,,,,,,,,,,,,,,,,,,,,,,,,,,,,,,,,,,,,,,,,,,
0,71,71,31,1,,60d467290ccaa83b5536f47d,62c53a8c54c23d5b03dab9d0,2022-07-06_09h33.54.316,Colour_Asymmetry_Pilot,2022.1.3,Win32,60.11783095,62c50e9c1127f2cd403a315f,,,,,,,,,,,,,,,,,,,,,,,,,,,,,,,,,,,,,,,,,,,,,,,,,,,,,,,,,,,,,,,,,,,,,,,,,,,,,,,,,,,,,,,,,,,,,,,,,,,,,,,,,,,,,,,,,,,,,,,,,,,,,,,,,,,,,,,,,,,,,,,,,,,,,,,,,,,,,,,,,,,
0,72,72,42,1,,60d467290ccaa83b5536f47d,62c53a8c54c23d5b03dab9d0,2022-07-06_09h33.54.316,Colour_Asymmetry_Pilot,2022.1.3,Win32,60.11783095,62c50e9c1127f2cd403a315f,,,,,,,,,,,,,,,,,,,,,,,,,,,,,,,,,,,,,,,,,,,,,,,,,,,,,,,,,,,,,,,,,,,,,,,,,,,,,,,,,,,,,,,,,,,,,,,,,,,,,,,,,,,,,,,,,,,,,,,,,,,,,,,,,,,,,,,,,,,,,,,,,,,,,,,,,,,,,,,,,,,
0,73,73,63,1,,60d467290ccaa83b5536f47d,62c53a8c54c23d5b03dab9d0,2022-07-06_09h33.54.316,Colour_Asymmetry_Pilot,2022.1.3,Win32,60.11783095,62c50e9c1127f2cd403a315f,,,,,,,,,,,,,,,,,,,,,,,,,,,,,,,,,,,,,,,,,,,,,,,,,,,,,,,,,,,,,,,,,,,,,,,,,,,,,,,,,,,,,,,,,,,,,,,,,,,,,,,,,,,,,,,,,,,,,,,,,,,,,,,,,,,,,,,,,,,,,,,,,,,,,,,,,,,,,,,,,,,
0,74,74,78,1,,60d467290ccaa83b5536f47d,62c53a8c54c23d5b03dab9d0,2022-07-06_09h33.54.316,Colour_Asymmetry_Pilot,2022.1.3,Win32,60.11783095,62c50e9c1127f2cd403a315f,,,,,,,,,,,,,,,,,,,,,,,,,,,,,,,,,,,,,,,,,,,,,,,,,,,,,,,,,,,,,,,,,,,,,,,,,,,,,,,,,,,,,,,,,,,,,,,,,,,,,,,,,,,,,,,,,,,,,,,,,,,,,,,,,,,,,,,,,,,,,,,,,,,,,,,,,,,,,,,,,,,
0,75,75,16,1,,60d467290ccaa83b5536f47d,62c53a8c54c23d5b03dab9d0,2022-07-06_09h33.54.316,Colour_Asymmetry_Pilot,2022.1.3,Win32,60.11783095,62c50e9c1127f2cd403a315f,,,,,,,,,,,,,,,,,,,,,,,,,,,,,,,,,,,,,,,,,,,,,,,,,,,,,,,,,,,,,,,,,,,,,,,,,,,,,,,,,,,,,,,,,,,,,,,,,,,,,,,,,,,,,,,,,,,,,,,,,,,,,,,,,,,,,,,,,,,,,,,,,,,,,,,,,,,,,,,,,,,
0,76,76,22,1,,60d467290ccaa83b5536f47d,62c53a8c54c23d5b03dab9d0,2022-07-06_09h33.54.316,Colour_Asymmetry_Pilot,2022.1.3,Win32,60.11783095,62c50e9c1127f2cd403a315f,,,,,,,,,,,,,,,,,,,,,,,,,,,,,,,,,,,,,,,,,,,,,,,,,,,,,,,,,,,,,,,,,,,,,,,,,,,,,,,,,,,,,,,,,,,,,,,,,,,,,,,,,,,,,,,,,,,,,,,,,,,,,,,,,,,,,,,,,,,,,,,,,,,,,,,,,,,,,,,,,,,
0,77,77,54,1,,60d467290ccaa83b5536f47d,62c53a8c54c23d5b03dab9d0,2022-07-06_09h33.54.316,Colour_Asymmetry_Pilot,2022.1.3,Win32,60.11783095,62c50e9c1127f2cd403a315f,,,,,,,,,,,,,,,,,,,,,,,,,,,,,,,,,,,,,,,,,,,,,,,,,,,,,,,,,,,,,,,,,,,,,,,,,,,,,,,,,,,,,,,,,,,,,,,,,,,,,,,,,,,,,,,,,,,,,,,,,,,,,,,,,,,,,,,,,,,,,,,,,,,,,,,,,,,,,,,,,,,
0,78,78,75,1,,60d467290ccaa83b5536f47d,62c53a8c54c23d5b03dab9d0,2022-07-06_09h33.54.316,Colour_Asymmetry_Pilot,2022.1.3,Win32,60.11783095,62c50e9c1127f2cd403a315f,,,,,,,,,,,,,,,,,,,,,,,,,,,,,,,,,,,,,,,,,,,,,,,,,,,,,,,,,,,,,,,,,,,,,,,,,,,,,,,,,,,,,,,,,,,,,,,,,,,,,,,,,,,,,,,,,,,,,,,,,,,,,,,,,,,,,,,,,,,,,,,,,,,,,,,,,,,,,,,,,,,
0,79,79,9,1,,60d467290ccaa83b5536f47d,62c53a8c54c23d5b03dab9d0,2022-07-06_09h33.54.316,Colour_Asymmetry_Pilot,2022.1.3,Win32,60.11783095,62c50e9c1127f2cd403a315f,,,,,,,,,,,,,,,,,,,,,,,,,,,,,,,,,,,,,,,,,,,,,,,,,,,,,,,,,,,,,,,,,,,,,,,,,,,,,,,,,,,,,,,,,,,,,,,,,,,,,,,,,,,,,,,,,,,,,,,,,,,,,,,,,,,,,,,,,,,,,,,,,,,,,,,,,,,,,,,,,,,
0,80,80,19,1,,60d467290ccaa83b5536f47d,62c53a8c54c23d5b03dab9d0,2022-07-06_09h33.54.316,Colour_Asymmetry_Pilot,2022.1.3,Win32,60.11783095,62c50e9c1127f2cd403a315f,,,,,,,,,,,,,,,,,,,,,,,,,,,,,,,,,,,,,,,,,,,,,,,,,,,,,,,,,,,,,,,,,,,,,,,,,,,,,,,,,,,,,,,,,,,,,,,,,,,,,,,,,,,,,,,,,,,,,,,,,,,,,,,,,,,,,,,,,,,,,,,,,,,,,,,,,,,,,,,,,,,
0,81,81,4,1,,60d467290ccaa83b5536f47d,62c53a8c54c23d5b03dab9d0,2022-07-06_09h33.54.316,Colour_Asymmetry_Pilot,2022.1.3,Win32,60.11783095,62c50e9c1127f2cd403a315f,,,,,,,,,,,,,,,,,,,,,,,,,,,,,,,,,,,,,,,,,,,,,,,,,,,,,,,,,,,,,,,,,,,,,,,,,,,,,,,,,,,,,,,,,,,,,,,,,,,,,,,,,,,,,,,,,,,,,,,,,,,,,,,,,,,,,,,,,,,,,,,,,,,,,,,,,,,,,,,,,,,
0,82,82,34,1,,60d467290ccaa83b5536f47d,62c53a8c54c23d5b03dab9d0,2022-07-06_09h33.54.316,Colour_Asymmetry_Pilot,2022.1.3,Win32,60.11783095,62c50e9c1127f2cd403a315f,,,,,,,,,,,,,,,,,,,,,,,,,,,,,,,,,,,,,,,,,,,,,,,,,,,,,,,,,,,,,,,,,,,,,,,,,,,,,,,,,,,,,,,,,,,,,,,,,,,,,,,,,,,,,,,,,,,,,,,,,,,,,,,,,,,,,,,,,,,,,,,,,,,,,,,,,,,,,,,,,,,
0,83,83,77,1,,60d467290ccaa83b5536f47d,62c53a8c54c23d5b03dab9d0,2022-07-06_09h33.54.316,Colour_Asymmetry_Pilot,2022.1.3,Win32,60.11783095,62c50e9c1127f2cd403a315f,,,,,,,,,,,,,,,,,,,,,,,,,,,,,,,,,,,,,,,,,,,,,,,,,,,,,,,,,,,,,,,,,,,,,,,,,,,,,,,,,,,,,,,,,,,,,,,,,,,,,,,,,,,,,,,,,,,,,,,,,,,,,,,,,,,,,,,,,,,,,,,,,,,,,,,,,,,,,,,,,,,
0,84,84,23,1,,60d467290ccaa83b5536f47d,62c53a8c54c23d5b03dab9d0,2022-07-06_09h33.54.316,Colour_Asymmetry_Pilot,2022.1.3,Win32,60.11783095,62c50e9c1127f2cd403a315f,,,,,,,,,,,,,,,,,,,,,,,,,,,,,,,,,,,,,,,,,,,,,,,,,,,,,,,,,,,,,,,,,,,,,,,,,,,,,,,,,,,,,,,,,,,,,,,,,,,,,,,,,,,,,,,,,,,,,,,,,,,,,,,,,,,,,,,,,,,,,,,,,,,,,,,,,,,,,,,,,,,
0,85,85,53,1,,60d467290ccaa83b5536f47d,62c53a8c54c23d5b03dab9d0,2022-07-06_09h33.54.316,Colour_Asymmetry_Pilot,2022.1.3,Win32,60.11783095,62c50e9c1127f2cd403a315f,,,,,,,,,,,,,,,,,,,,,,,,,,,,,,,,,,,,,,,,,,,,,,,,,,,,,,,,,,,,,,,,,,,,,,,,,,,,,,,,,,,,,,,,,,,,,,,,,,,,,,,,,,,,,,,,,,,,,,,,,,,,,,,,,,,,,,,,,,,,,,,,,,,,,,,,,,,,,,,,,,,
0,86,86,84,1,,60d467290ccaa83b5536f47d,62c53a8c54c23d5b03dab9d0,2022-07-06_09h33.54.316,Colour_Asymmetry_Pilot,2022.1.3,Win32,60.11783095,62c50e9c1127f2cd403a315f,,,,,,,,,,,,,,,,,,,,,,,,,,,,,,,,,,,,,,,,,,,,,,,,,,,,,,,,,,,,,,,,,,,,,,,,,,,,,,,,,,,,,,,,,,,,,,,,,,,,,,,,,,,,,,,,,,,,,,,,,,,,,,,,,,,,,,,,,,,,,,,,,,,,,,,,,,,,,,,,,,,
0,87,87,92,1,,60d467290ccaa83b5536f47d,62c53a8c54c23d5b03dab9d0,2022-07-06_09h33.54.316,Colour_Asymmetry_Pilot,2022.1.3,Win32,60.11783095,62c50e9c1127f2cd403a315f,,,,,,,,,,,,,,,,,,,,,,,,,,,,,,,,,,,,,,,,,,,,,,,,,,,,,,,,,,,,,,,,,,,,,,,,,,,,,,,,,,,,,,,,,,,,,,,,,,,,,,,,,,,,,,,,,,,,,,,,,,,,,,,,,,,,,,,,,,,,,,,,,,,,,,,,,,,,,,,,,,,
0,88,88,43,1,,60d467290ccaa83b5536f47d,62c53a8c54c23d5b03dab9d0,2022-07-06_09h33.54.316,Colour_Asymmetry_Pilot,2022.1.3,Win32,60.11783095,62c50e9c1127f2cd403a315f,,,,,,,,,,,,,,,,,,,,,,,,,,,,,,,,,,,,,,,,,,,,,,,,,,,,,,,,,,,,,,,,,,,,,,,,,,,,,,,,,,,,,,,,,,,,,,,,,,,,,,,,,,,,,,,,,,,,,,,,,,,,,,,,,,,,,,,,,,,,,,,,,,,,,,,,,,,,,,,,,,,
0,89,89,28,1,,60d467290ccaa83b5536f47d,62c53a8c54c23d5b03dab9d0,2022-07-06_09h33.54.316,Colour_Asymmetry_Pilot,2022.1.3,Win32,60.11783095,62c50e9c1127f2cd403a315f,,,,,,,,,,,,,,,,,,,,,,,,,,,,,,,,,,,,,,,,,,,,,,,,,,,,,,,,,,,,,,,,,,,,,,,,,,,,,,,,,,,,,,,,,,,,,,,,,,,,,,,,,,,,,,,,,,,,,,,,,,,,,,,,,,,,,,,,,,,,,,,,,,,,,,,,,,,,,,,,,,,
0,90,90,20,1,,60d467290ccaa83b5536f47d,62c53a8c54c23d5b03dab9d0,2022-07-06_09h33.54.316,Colour_Asymmetry_Pilot,2022.1.3,Win32,60.11783095,62c50e9c1127f2cd403a315f,,,,,,,,,,,,,,,,,,,,,,,,,,,,,,,,,,,,,,,,,,,,,,,,,,,,,,,,,,,,,,,,,,,,,,,,,,,,,,,,,,,,,,,,,,,,,,,,,,,,,,,,,,,,,,,,,,,,,,,,,,,,,,,,,,,,,,,,,,,,,,,,,,,,,,,,,,,,,,,,,,,
0,91,91,27,1,,60d467290ccaa83b5536f47d,62c53a8c54c23d5b03dab9d0,2022-07-06_09h33.54.316,Colour_Asymmetry_Pilot,2022.1.3,Win32,60.11783095,62c50e9c1127f2cd403a315f,,,,,,,,,,,,,,,,,,,,,,,,,,,,,,,,,,,,,,,,,,,,,,,,,,,,,,,,,,,,,,,,,,,,,,,,,,,,,,,,,,,,,,,,,,,,,,,,,,,,,,,,,,,,,,,,,,,,,,,,,,,,,,,,,,,,,,,,,,,,,,,,,,,,,,,,,,,,,,,,,,,
0,92,92,10,1,,60d467290ccaa83b5536f47d,62c53a8c54c23d5b03dab9d0,2022-07-06_09h33.54.316,Colour_Asymmetry_Pilot,2022.1.3,Win32,60.11783095,62c50e9c1127f2cd403a315f,,,,,,,,,,,,,,,,,,,,,,,,,,,,,,,,,,,,,,,,,,,,,,,,,,,,,,,,,,,,,,,,,,,,,,,,,,,,,,,,,,,,,,,,,,,,,,,,,,,,,,,,,,,,,,,,,,,,,,,,,,,,,,,,,,,,,,,,,,,,,,,,,,,,,,,,,,,,,,,,,,,
,,,,,,60d467290ccaa83b5536f47d,62c53a8c54c23d5b03dab9d0,2022-07-06_09h33.54.316,Colour_Asymmetry_Pilot,2022.1.3,Win32,60.11783095,62c50e9c1127f2cd403a315f,0,0,0,25,1,onethree,,,,,,,,,,,,,,,,,,,,,,,,,,,,,,,,,,,,,,,,,,,,,,,,,,,,,,,,,,,,,,,,,,,,,,,,,,,,,,,,,,,,,,,,,,,,,,,,,,,,,,,,,,,,,,,,,,,,,,,,,,,,,,,,,,,,,,,,,,,,,,,,,,,,,,,,,,,,,
,,,,,,60d467290ccaa83b5536f47d,62c53a8c54c23d5b03dab9d0,2022-07-06_09h33.54.316,Colour_Asymmetry_Pilot,2022.1.3,Win32,60.11783095,62c50e9c1127f2cd403a315f,0,1,1,31,1,fourthree,,,,,,,,,,,,,,,,,,,,,,,,,,,,,,,,,,,,,,,,,,,,,,,,,,,,,,,,,,,,,,,,,,,,,,,,,,,,,,,,,,,,,,,,,,,,,,,,,,,,,,,,,,,,,,,,,,,,,,,,,,,,,,,,,,,,,,,,,,,,,,,,,,,,,,,,,,,,,
,,,,,,60d467290ccaa83b5536f47d,62c53a8c54c23d5b03dab9d0,2022-07-06_09h33.54.316,Colour_Asymmetry_Pilot,2022.1.3,Win32,60.11783095,62c50e9c1127f2cd403a315f,0,2,2,130,1,twoone,,,,,,,,,,,,,,,,,,,,,,,,,,,,,,,,,,,,,,,,,,,,,,,,,,,,,,,,,,,,,,,,,,,,,,,,,,,,,,,,,,,,,,,,,,,,,,,,,,,,,,,,,,,,,,,,,,,,,,,,,,,,,,,,,,,,,,,,,,,,,,,,,,,,,,,,,,,,,
,,,,,,60d467290ccaa83b5536f47d,62c53a8c54c23d5b03dab9d0,2022-07-06_09h33.54.316,Colour_Asymmetry_Pilot,2022.1.3,Win32,60.11783095,62c50e9c1127f2cd403a315f,0,3,3,63,1,fourthree,,,,,,,,,,,,,,,,,,,,,,,,,,,,,,,,,,,,,,,,,,,,,,,,,,,,,,,,,,,,,,,,,,,,,,,,,,,,,,,,,,,,,,,,,,,,,,,,,,,,,,,,,,,,,,,,,,,,,,,,,,,,,,,,,,,,,,,,,,,,,,,,,,,,,,,,,,,,,
,,,,,,60d467290ccaa83b5536f47d,62c53a8c54c23d5b03dab9d0,2022-07-06_09h33.54.316,Colour_Asymmetry_Pilot,2022.1.3,Win32,60.11783095,62c50e9c1127f2cd403a315f,0,4,4,86,1,fourtwo,,,,,,,,,,,,,,,,,,,,,,,,,,,,,,,,,,,,,,,,,,,,,,,,,,,,,,,,,,,,,,,,,,,,,,,,,,,,,,,,,,,,,,,,,,,,,,,,,,,,,,,,,,,,,,,,,,,,,,,,,,,,,,,,,,,,,,,,,,,,,,,,,,,,,,,,,,,,,
,,,,,,60d467290ccaa83b5536f47d,62c53a8c54c23d5b03dab9d0,2022-07-06_09h33.54.316,Colour_Asymmetry_Pilot,2022.1.3,Win32,60.11783095,62c50e9c1127f2cd403a315f,0,5,5,111,1,fourthree,,,,,,,,,,,,,,,,,,,,,,,,,,,,,,,,,,,,,,,,,,,,,,,,,,,,,,,,,,,,,,,,,,,,,,,,,,,,,,,,,,,,,,,,,,,,,,,,,,,,,,,,,,,,,,,,,,,,,,,,,,,,,,,,,,,,,,,,,,,,,,,,,,,,,,,,,,,,,
,,,,,,60d467290ccaa83b5536f47d,62c53a8c54c23d5b03dab9d0,2022-07-06_09h33.54.316,Colour_Asymmetry_Pilot,2022.1.3,Win32,60.11783095,62c50e9c1127f2cd403a315f,0,6,6,60,1,threeone,,,,,,,,,,,,,,,,,,,,,,,,,,,,,,,,,,,,,,,,,,,,,,,,,,,,,,,,,,,,,,,,,,,,,,,,,,,,,,,,,,,,,,,,,,,,,,,,,,,,,,,,,,,,,,,,,,,,,,,,,,,,,,,,,,,,,,,,,,,,,,,,,,,,,,,,,,,,,
,,,,,,60d467290ccaa83b5536f47d,62c53a8c54c23d5b03dab9d0,2022-07-06_09h33.54.316,Colour_Asymmetry_Pilot,2022.1.3,Win32,60.11783095,62c50e9c1127f2cd403a315f,0,7,7,116,1,threeone,,,,,,,,,,,,,,,,,,,,,,,,,,,,,,,,,,,,,,,,,,,,,,,,,,,,,,,,,,,,,,,,,,,,,,,,,,,,,,,,,,,,,,,,,,,,,,,,,,,,,,,,,,,,,,,,,,,,,,,,,,,,,,,,,,,,,,,,,,,,,,,,,,,,,,,,,,,,,
,,,,,,60d467290ccaa83b5536f47d,62c53a8c54c23d5b03dab9d0,2022-07-06_09h33.54.316,Colour_Asymmetry_Pilot,2022.1.3,Win32,60.11783095,62c50e9c1127f2cd403a315f,0,8,8,152,1,onetwo,,,,,,,,,,,,,,,,,,,,,,,,,,,,,,,,,,,,,,,,,,,,,,,,,,,,,,,,,,,,,,,,,,,,,,,,,,,,,,,,,,,,,,,,,,,,,,,,,,,,,,,,,,,,,,,,,,,,,,,,,,,,,,,,,,,,,,,,,,,,,,,,,,,,,,,,,,,,,
,,,,,,60d467290ccaa83b5536f47d,62c53a8c54c23d5b03dab9d0,2022-07-06_09h33.54.316,Colour_Asymmetry_Pilot,2022.1.3,Win32,60.11783095,62c50e9c1127f2cd403a315f,0,9,9,108,1,threeone,,,,,,,,,,,,,,,,,,,,,,,,,,,,,,,,,,,,,,,,,,,,,,,,,,,,,,,,,,,,,,,,,,,,,,,,,,,,,,,,,,,,,,,,,,,,,,,,,,,,,,,,,,,,,,,,,,,,,,,,,,,,,,,,,,,,,,,,,,,,,,,,,,,,,,,,,,,,,
,,,,,,60d467290ccaa83b5536f47d,62c53a8c54c23d5b03dab9d0,2022-07-06_09h33.54.316,Colour_Asymmetry_Pilot,2022.1.3,Win32,60.11783095,62c50e9c1127f2cd403a315f,0,10,10,54,1,fourtwo,,,,,,,,,,,,,,,,,,,,,,,,,,,,,,,,,,,,,,,,,,,,,,,,,,,,,,,,,,,,,,,,,,,,,,,,,,,,,,,,,,,,,,,,,,,,,,,,,,,,,,,,,,,,,,,,,,,,,,,,,,,,,,,,,,,,,,,,,,,,,,,,,,,,,,,,,,,,,
,,,,,,60d467290ccaa83b5536f47d,62c53a8c54c23d5b03dab9d0,2022-07-06_09h33.54.316,Colour_Asymmetry_Pilot,2022.1.3,Win32,60.11783095,62c50e9c1127f2cd403a315f,0,11,11,66,1,twoone,,,,,,,,,,,,,,,,,,,,,,,,,,,,,,,,,,,,,,,,,,,,,,,,,,,,,,,,,,,,,,,,,,,,,,,,,,,,,,,,,,,,,,,,,,,,,,,,,,,,,,,,,,,,,,,,,,,,,,,,,,,,,,,,,,,,,,,,,,,,,,,,,,,,,,,,,,,,,
,,,,,,60d467290ccaa83b5536f47d,62c53a8c54c23d5b03dab9d0,2022-07-06_09h33.54.316,Colour_Asymmetry_Pilot,2022.1.3,Win32,60.11783095,62c50e9c1127f2cd403a315f,0,12,12,121,1,onethree,,,,,,,,,,,,,,,,,,,,,,,,,,,,,,,,,,,,,,,,,,,,,,,,,,,,,,,,,,,,,,,,,,,,,,,,,,,,,,,,,,,,,,,,,,,,,,,,,,,,,,,,,,,,,,,,,,,,,,,,,,,,,,,,,,,,,,,,,,,,,,,,,,,,,,,,,,,,,
,,,,,,60d467290ccaa83b5536f47d,62c53a8c54c23d5b03dab9d0,2022-07-06_09h33.54.316,Colour_Asymmetry_Pilot,2022.1.3,Win32,60.11783095,62c50e9c1127f2cd403a315f,0,13,13,138,1,twoone,,,,,,,,,,,,,,,,,,,,,,,,,,,,,,,,,,,,,,,,,,,,,,,,,,,,,,,,,,,,,,,,,,,,,,,,,,,,,,,,,,,,,,,,,,,,,,,,,,,,,,,,,,,,,,,,,,,,,,,,,,,,,,,,,,,,,,,,,,,,,,,,,,,,,,,,,,,,,
,,,,,,60d467290ccaa83b5536f47d,62c53a8c54c23d5b03dab9d0,2022-07-06_09h33.54.316,Colour_Asymmetry_Pilot,2022.1.3,Win32,60.11783095,62c50e9c1127f2cd403a315f,0,14,14,62,1,fourtwo,,,,,,,,,,,,,,,,,,,,,,,,,,,,,,,,,,,,,,,,,,,,,,,,,,,,,,,,,,,,,,,,,,,,,,,,,,,,,,,,,,,,,,,,,,,,,,,,,,,,,,,,,,,,,,,,,,,,,,,,,,,,,,,,,,,,,,,,,,,,,,,,,,,,,,,,,,,,,
,,,,,,60d467290ccaa83b5536f47d,62c53a8c54c23d5b03dab9d0,2022-07-06_09h33.54.316,Colour_Asymmetry_Pilot,2022.1.3,Win32,60.11783095,62c50e9c1127f2cd403a315f,0,15,15,153,1,onethree,,,,,,,,,,,,,,,,,,,,,,,,,,,,,,,,,,,,,,,,,,,,,,,,,,,,,,,,,,,,,,,,,,,,,,,,,,,,,,,,,,,,,,,,,,,,,,,,,,,,,,,,,,,,,,,,,,,,,,,,,,,,,,,,,,,,,,,,,,,,,,,,,,,,,,,,,,,,,
,,,,,,60d467290ccaa83b5536f47d,62c53a8c54c23d5b03dab9d0,2022-07-06_09h33.54.316,Colour_Asymmetry_Pilot,2022.1.3,Win32,60.11783095,62c50e9c1127f2cd403a315f,0,16,16,28,1,threeone,,,,,,,,,,,,,,,,,,,,,,,,,,,,,,,,,,,,,,,,,,,,,,,,,,,,,,,,,,,,,,,,,,,,,,,,,,,,,,,,,,,,,,,,,,,,,,,,,,,,,,,,,,,,,,,,,,,,,,,,,,,,,,,,,,,,,,,,,,,,,,,,,,,,,,,,,,,,,
,,,,,,60d467290ccaa83b5536f47d,62c53a8c54c23d5b03dab9d0,2022-07-06_09h33.54.316,Colour_Asymmetry_Pilot,2022.1.3,Win32,60.11783095,62c50e9c1127f2cd403a315f,0,17,17,30,1,fourtwo,,,,,,,,,,,,,,,,,,,,,,,,,,,,,,,,,,,,,,,,,,,,,,,,,,,,,,,,,,,,,,,,,,,,,,,,,,,,,,,,,,,,,,,,,,,,,,,,,,,,,,,,,,,,,,,,,,,,,,,,,,,,,,,,,,,,,,,,,,,,,,,,,,,,,,,,,,,,,
,,,,,,60d467290ccaa83b5536f47d,62c53a8c54c23d5b03dab9d0,2022-07-06_09h33.54.316,Colour_Asymmetry_Pilot,2022.1.3,Win32,60.11783095,62c50e9c1127f2cd403a315f,0,18,18,57,1,onethree,,,,,,,,,,,,,,,,,,,,,,,,,,,,,,,,,,,,,,,,,,,,,,,,,,,,,,,,,,,,,,,,,,,,,,,,,,,,,,,,,,,,,,,,,,,,,,,,,,,,,,,,,,,,,,,,,,,,,,,,,,,,,,,,,,,,,,,,,,,,,,,,,,,,,,,,,,,,,
,,,,,,60d467290ccaa83b5536f47d,62c53a8c54c23d5b03dab9d0,2022-07-06_09h33.54.316,Colour_Asymmetry_Pilot,2022.1.3,Win32,60.11783095,62c50e9c1127f2cd403a315f,0,19,19,55,1,fourthree,,,,,,,,,,,,,,,,,,,,,,,,,,,,,,,,,,,,,,,,,,,,,,,,,,,,,,,,,,,,,,,,,,,,,,,,,,,,,,,,,,,,,,,,,,,,,,,,,,,,,,,,,,,,,,,,,,,,,,,,,,,,,,,,,,,,,,,,,,,,,,,,,,,,,,,,,,,,,
,,,,,,60d467290ccaa83b5536f47d,62c53a8c54c23d5b03dab9d0,2022-07-06_09h33.54.316,Colour_Asymmetry_Pilot,2022.1.3,Win32,60.11783095,62c50e9c1127f2cd403a315f,0,20,20,159,1,fourthree,,,,,,,,,,,,,,,,,,,,,,,,,,,,,,,,,,,,,,,,,,,,,,,,,,,,,,,,,,,,,,,,,,,,,,,,,,,,,,,,,,,,,,,,,,,,,,,,,,,,,,,,,,,,,,,,,,,,,,,,,,,,,,,,,,,,,,,,,,,,,,,,,,,,,,,,,,,,,
,,,,,,60d467290ccaa83b5536f47d,62c53a8c54c23d5b03dab9d0,2022-07-06_09h33.54.316,Colour_Asymmetry_Pilot,2022.1.3,Win32,60.11783095,62c50e9c1127f2cd403a315f,0,21,21,161,1,onethree,,,,,,,,,,,,,,,,,,,,,,,,,,,,,,,,,,,,,,,,,,,,,,,,,,,,,,,,,,,,,,,,,,,,,,,,,,,,,,,,,,,,,,,,,,,,,,,,,,,,,,,,,,,,,,,,,,,,,,,,,,,,,,,,,,,,,,,,,,,,,,,,,,,,,,,,,,,,,
,,,,,,60d467290ccaa83b5536f47d,62c53a8c54c23d5b03dab9d0,2022-07-06_09h33.54.316,Colour_Asymmetry_Pilot,2022.1.3,Win32,60.11783095,62c50e9c1127f2cd403a315f,0,22,22,119,1,fourthree,,,,,,,,,,,,,,,,,,,,,,,,,,,,,,,,,,,,,,,,,,,,,,,,,,,,,,,,,,,,,,,,,,,,,,,,,,,,,,,,,,,,,,,,,,,,,,,,,,,,,,,,,,,,,,,,,,,,,,,,,,,,,,,,,,,,,,,,,,,,,,,,,,,,,,,,,,,,,
,,,,,,60d467290ccaa83b5536f47d,62c53a8c54c23d5b03dab9d0,2022-07-06_09h33.54.316,Colour_Asymmetry_Pilot,2022.1.3,Win32,60.11783095,62c50e9c1127f2cd403a315f,0,23,23,88,1,onetwo,,,,,,,,,,,,,,,,,,,,,,,,,,,,,,,,,,,,,,,,,,,,,,,,,,,,,,,,,,,,,,,,,,,,,,,,,,,,,,,,,,,,,,,,,,,,,,,,,,,,,,,,,,,,,,,,,,,,,,,,,,,,,,,,,,,,,,,,,,,,,,,,,,,,,,,,,,,,,
,,,,,,60d467290ccaa83b5536f47d,62c53a8c54c23d5b03dab9d0,2022-07-06_09h33.54.316,Colour_Asymmetry_Pilot,2022.1.3,Win32,60.11783095,62c50e9c1127f2cd403a315f,0,24,24,156,1,threeone,,,,,,,,,,,,,,,,,,,,,,,,,,,,,,,,,,,,,,,,,,,,,,,,,,,,,,,,,,,,,,,,,,,,,,,,,,,,,,,,,,,,,,,,,,,,,,,,,,,,,,,,,,,,,,,,,,,,,,,,,,,,,,,,,,,,,,,,,,,,,,,,,,,,,,,,,,,,,
,,,,,,60d467290ccaa83b5536f47d,62c53a8c54c23d5b03dab9d0,2022-07-06_09h33.54.316,Colour_Asymmetry_Pilot,2022.1.3,Win32,60.11783095,62c50e9c1127f2cd403a315f,0,25,25,4,1,threeone,,,,,,,,,,,,,,,,,,,,,,,,,,,,,,,,,,,,,,,,,,,,,,,,,,,,,,,,,,,,,,,,,,,,,,,,,,,,,,,,,,,,,,,,,,,,,,,,,,,,,,,,,,,,,,,,,,,,,,,,,,,,,,,,,,,,,,,,,,,,,,,,,,,,,,,,,,,,,
,,,,,,60d467290ccaa83b5536f47d,62c53a8c54c23d5b03dab9d0,2022-07-06_09h33.54.316,Colour_Asymmetry_Pilot,2022.1.3,Win32,60.11783095,62c50e9c1127f2cd403a315f,0,26,26,140,1,threeone,,,,,,,,,,,,,,,,,,,,,,,,,,,,,,,,,,,,,,,,,,,,,,,,,,,,,,,,,,,,,,,,,,,,,,,,,,,,,,,,,,,,,,,,,,,,,,,,,,,,,,,,,,,,,,,,,,,,,,,,,,,,,,,,,,,,,,,,,,,,,,,,,,,,,,,,,,,,,
,,,,,,60d467290ccaa83b5536f47d,62c53a8c54c23d5b03dab9d0,2022-07-06_09h33.54.316,Colour_Asymmetry_Pilot,2022.1.3,Win32,60.11783095,62c50e9c1127f2cd403a315f,0,27,27,146,1,twoone,,,,,,,,,,,,,,,,,,,,,,,,,,,,,,,,,,,,,,,,,,,,,,,,,,,,,,,,,,,,,,,,,,,,,,,,,,,,,,,,,,,,,,,,,,,,,,,,,,,,,,,,,,,,,,,,,,,,,,,,,,,,,,,,,,,,,,,,,,,,,,,,,,,,,,,,,,,,,
,,,,,,60d467290ccaa83b5536f47d,62c53a8c54c23d5b03dab9d0,2022-07-06_09h33.54.316,Colour_Asymmetry_Pilot,2022.1.3,Win32,60.11783095,62c50e9c1127f2cd403a315f,0,28,28,64,1,onetwo,,,,,,,,,,,,,,,,,,,,,,,,,,,,,,,,,,,,,,,,,,,,,,,,,,,,,,,,,,,,,,,,,,,,,,,,,,,,,,,,,,,,,,,,,,,,,,,,,,,,,,,,,,,,,,,,,,,,,,,,,,,,,,,,,,,,,,,,,,,,,,,,,,,,,,,,,,,,,
,,,,,,60d467290ccaa83b5536f47d,62c53a8c54c23d5b03dab9d0,2022-07-06_09h33.54.316,Colour_Asymmetry_Pilot,2022.1.3,Win32,60.11783095,62c50e9c1127f2cd403a315f,0,29,29,160,1,onetwo,,,,,,,,,,,,,,,,,,,,,,,,,,,,,,,,,,,,,,,,,,,,,,,,,,,,,,,,,,,,,,,,,,,,,,,,,,,,,,,,,,,,,,,,,,,,,,,,,,,,,,,,,,,,,,,,,,,,,,,,,,,,,,,,,,,,,,,,,,,,,,,,,,,,,,,,,,,,,
,,,,,,60d467290ccaa83b5536f47d,62c53a8c54c23d5b03dab9d0,2022-07-06_09h33.54.316,Colour_Asymmetry_Pilot,2022.1.3,Win32,60.11783095,62c50e9c1127f2cd403a315f,0,30,30,142,1,fourtwo,,,,,,,,,,,,,,,,,,,,,,,,,,,,,,,,,,,,,,,,,,,,,,,,,,,,,,,,,,,,,,,,,,,,,,,,,,,,,,,,,,,,,,,,,,,,,,,,,,,,,,,,,,,,,,,,,,,,,,,,,,,,,,,,,,,,,,,,,,,,,,,,,,,,,,,,,,,,,
,,,,,,60d467290ccaa83b5536f47d,62c53a8c54c23d5b03dab9d0,2022-07-06_09h33.54.316,Colour_Asymmetry_Pilot,2022.1.3,Win32,60.11783095,62c50e9c1127f2cd403a315f,0,31,31,143,1,fourthree,,,,,,,,,,,,,,,,,,,,,,,,,,,,,,,,,,,,,,,,,,,,,,,,,,,,,,,,,,,,,,,,,,,,,,,,,,,,,,,,,,,,,,,,,,,,,,,,,,,,,,,,,,,,,,,,,,,,,,,,,,,,,,,,,,,,,,,,,,,,,,,,,,,,,,,,,,,,,
,,,,,,60d467290ccaa83b5536f47d,62c53a8c54c23d5b03dab9d0,2022-07-06_09h33.54.316,Colour_Asymmetry_Pilot,2022.1.3,Win32,60.11783095,62c50e9c1127f2cd403a315f,0,32,32,124,1,threeone,,,,,,,,,,,,,,,,,,,,,,,,,,,,,,,,,,,,,,,,,,,,,,,,,,,,,,,,,,,,,,,,,,,,,,,,,,,,,,,,,,,,,,,,,,,,,,,,,,,,,,,,,,,,,,,,,,,,,,,,,,,,,,,,,,,,,,,,,,,,,,,,,,,,,,,,,,,,,
,,,,,,60d467290ccaa83b5536f47d,62c53a8c54c23d5b03dab9d0,2022-07-06_09h33.54.316,Colour_Asymmetry_Pilot,2022.1.3,Win32,60.11783095,62c50e9c1127f2cd403a315f,0,33,33,102,1,fourtwo,,,,,,,,,,,,,,,,,,,,,,,,,,,,,,,,,,,,,,,,,,,,,,,,,,,,,,,,,,,,,,,,,,,,,,,,,,,,,,,,,,,,,,,,,,,,,,,,,,,,,,,,,,,,,,,,,,,,,,,,,,,,,,,,,,,,,,,,,,,,,,,,,,,,,,,,,,,,,
,,,,,,60d467290ccaa83b5536f47d,62c53a8c54c23d5b03dab9d0,2022-07-06_09h33.54.316,Colour_Asymmetry_Pilot,2022.1.3,Win32,60.11783095,62c50e9c1127f2cd403a315f,0,34,34,73,1,onethree,,,,,,,,,,,,,,,,,,,,,,,,,,,,,,,,,,,,,,,,,,,,,,,,,,,,,,,,,,,,,,,,,,,,,,,,,,,,,,,,,,,,,,,,,,,,,,,,,,,,,,,,,,,,,,,,,,,,,,,,,,,,,,,,,,,,,,,,,,,,,,,,,,,,,,,,,,,,,
,,,,,,60d467290ccaa83b5536f47d,62c53a8c54c23d5b03dab9d0,2022-07-06_09h33.54.316,Colour_Asymmetry_Pilot,2022.1.3,Win32,60.11783095,62c50e9c1127f2cd403a315f,0,35,35,135,1,fourthree,,,,,,,,,,,,,,,,,,,,,,,,,,,,,,,,,,,,,,,,,,,,,,,,,,,,,,,,,,,,,,,,,,,,,,,,,,,,,,,,,,,,,,,,,,,,,,,,,,,,,,,,,,,,,,,,,,,,,,,,,,,,,,,,,,,,,,,,,,,,,,,,,,,,,,,,,,,,,
,,,,,,60d467290ccaa83b5536f47d,62c53a8c54c23d5b03dab9d0,2022-07-06_09h33.54.316,Colour_Asymmetry_Pilot,2022.1.3,Win32,60.11783095,62c50e9c1127f2cd403a315f,0,36,36,23,1,fourthree,,,,,,,,,,,,,,,,,,,,,,,,,,,,,,,,,,,,,,,,,,,,,,,,,,,,,,,,,,,,,,,,,,,,,,,,,,,,,,,,,,,,,,,,,,,,,,,,,,,,,,,,,,,,,,,,,,,,,,,,,,,,,,,,,,,,,,,,,,,,,,,,,,,,,,,,,,,,,
,,,,,,60d467290ccaa83b5536f47d,62c53a8c54c23d5b03dab9d0,2022-07-06_09h33.54.316,Colour_Asymmetry_Pilot,2022.1.3,Win32,60.11783095,62c50e9c1127f2cd403a315f,0,37,37,33,1,onethree,,,,,,,,,,,,,,,,,,,,,,,,,,,,,,,,,,,,,,,,,,,,,,,,,,,,,,,,,,,,,,,,,,,,,,,,,,,,,,,,,,,,,,,,,,,,,,,,,,,,,,,,,,,,,,,,,,,,,,,,,,,,,,,,,,,,,,,,,,,,,,,,,,,,,,,,,,,,,
,,,,,,60d467290ccaa83b5536f47d,62c53a8c54c23d5b03dab9d0,2022-07-06_09h33.54.316,Colour_Asymmetry_Pilot,2022.1.3,Win32,60.11783095,62c50e9c1127f2cd403a315f,0,38,38,126,1,fourtwo,,,,,,,,,,,,,,,,,,,,,,,,,,,,,,,,,,,,,,,,,,,,,,,,,,,,,,,,,,,,,,,,,,,,,,,,,,,,,,,,,,,,,,,,,,,,,,,,,,,,,,,,,,,,,,,,,,,,,,,,,,,,,,,,,,,,,,,,,,,,,,,,,,,,,,,,,,,,,
,,,,,,60d467290ccaa83b5536f47d,62c53a8c54c23d5b03dab9d0,2022-07-06_09h33.54.316,Colour_Asymmetry_Pilot,2022.1.3,Win32,60.11783095,62c50e9c1127f2cd403a315f,0,39,39,129,1,onethree,,,,,,,,,,,,,,,,,,,,,,,,,,,,,,,,,,,,,,,,,,,,,,,,,,,,,,,,,,,,,,,,,,,,,,,,,,,,,,,,,,,,,,,,,,,,,,,,,,,,,,,,,,,,,,,,,,,,,,,,,,,,,,,,,,,,,,,,,,,,,,,,,,,,,,,,,,,,,
,,,,,,60d467290ccaa83b5536f47d,62c53a8c54c23d5b03dab9d0,2022-07-06_09h33.54.316,Colour_Asymmetry_Pilot,2022.1.3,Win32,60.11783095,62c50e9c1127f2cd403a315f,0,40,40,99,1,twofour,,,,,,,,,,,,,,,,,,,,,,,,,,,,,,,,,,,,,,,,,,,,,,,,,,,,,,,,,,,,,,,,,,,,,,,,,,,,,,,,,,,,,,,,,,,,,,,,,,,,,,,,,,,,,,,,,,,,,,,,,,,,,,,,,,,,,,,,,,,,,,,,,,,,,,,,,,,,,
,,,,,,60d467290ccaa83b5536f47d,62c53a8c54c23d5b03dab9d0,2022-07-06_09h33.54.316,Colour_Asymmetry_Pilot,2022.1.3,Win32,60.11783095,62c50e9c1127f2cd403a315f,0,41,41,76,1,threeone,,,,,,,,,,,,,,,,,,,,,,,,,,,,,,,,,,,,,,,,,,,,,,,,,,,,,,,,,,,,,,,,,,,,,,,,,,,,,,,,,,,,,,,,,,,,,,,,,,,,,,,,,,,,,,,,,,,,,,,,,,,,,,,,,,,,,,,,,,,,,,,,,,,,,,,,,,,,,
,,,,,,60d467290ccaa83b5536f47d,62c53a8c54c23d5b03dab9d0,2022-07-06_09h33.54.316,Colour_Asymmetry_Pilot,2022.1.3,Win32,60.11783095,62c50e9c1127f2cd403a315f,0,42,42,78,1,fourtwo,,,,,,,,,,,,,,,,,,,,,,,,,,,,,,,,,,,,,,,,,,,,,,,,,,,,,,,,,,,,,,,,,,,,,,,,,,,,,,,,,,,,,,,,,,,,,,,,,,,,,,,,,,,,,,,,,,,,,,,,,,,,,,,,,,,,,,,,,,,,,,,,,,,,,,,,,,,,,
,,,,,,60d467290ccaa83b5536f47d,62c53a8c54c23d5b03dab9d0,2022-07-06_09h33.54.316,Colour_Asymmetry_Pilot,2022.1.3,Win32,60.11783095,62c50e9c1127f2cd403a315f,0,43,43,32,1,onetwo,,,,,,,,,,,,,,,,,,,,,,,,,,,,,,,,,,,,,,,,,,,,,,,,,,,,,,,,,,,,,,,,,,,,,,,,,,,,,,,,,,,,,,,,,,,,,,,,,,,,,,,,,,,,,,,,,,,,,,,,,,,,,,,,,,,,,,,,,,,,,,,,,,,,,,,,,,,,,
,,,,,,60d467290ccaa83b5536f47d,62c53a8c54c23d5b03dab9d0,2022-07-06_09h33.54.316,Colour_Asymmetry_Pilot,2022.1.3,Win32,60.11783095,62c50e9c1127f2cd403a315f,0,44,44,100,1,threeone,,,,,,,,,,,,,,,,,,,,,,,,,,,,,,,,,,,,,,,,,,,,,,,,,,,,,,,,,,,,,,,,,,,,,,,,,,,,,,,,,,,,,,,,,,,,,,,,,,,,,,,,,,,,,,,,,,,,,,,,,,,,,,,,,,,,,,,,,,,,,,,,,,,,,,,,,,,,,
,,,,,,60d467290ccaa83b5536f47d,62c53a8c54c23d5b03dab9d0,2022-07-06_09h33.54.316,Colour_Asymmetry_Pilot,2022.1.3,Win32,60.11783095,62c50e9c1127f2cd403a315f,0,45,45,9,1,onethree,,,,,,,,,,,,,,,,,,,,,,,,,,,,,,,,,,,,,,,,,,,,,,,,,,,,,,,,,,,,,,,,,,,,,,,,,,,,,,,,,,,,,,,,,,,,,,,,,,,,,,,,,,,,,,,,,,,,,,,,,,,,,,,,,,,,,,,,,,,,,,,,,,,,,,,,,,,,,
,,,,,,60d467290ccaa83b5536f47d,62c53a8c54c23d5b03dab9d0,2022-07-06_09h33.54.316,Colour_Asymmetry_Pilot,2022.1.3,Win32,60.11783095,62c50e9c1127f2cd403a315f,0,46,46,42,1,twoone,,,,,,,,,,,,,,,,,,,,,,,,,,,,,,,,,,,,,,,,,,,,,,,,,,,,,,,,,,,,,,,,,,,,,,,,,,,,,,,,,,,,,,,,,,,,,,,,,,,,,,,,,,,,,,,,,,,,,,,,,,,,,,,,,,,,,,,,,,,,,,,,,,,,,,,,,,,,,
,,,,,,60d467290ccaa83b5536f47d,62c53a8c54c23d5b03dab9d0,2022-07-06_09h33.54.316,Colour_Asymmetry_Pilot,2022.1.3,Win32,60.11783095,62c50e9c1127f2cd403a315f,0,47,47,38,1,fourtwo,,,,,,,,,,,,,,,,,,,,,,,,,,,,,,,,,,,,,,,,,,,,,,,,,,,,,,,,,,,,,,,,,,,,,,,,,,,,,,,,,,,,,,,,,,,,,,,,,,,,,,,,,,,,,,,,,,,,,,,,,,,,,,,,,,,,,,,,,,,,,,,,,,,,,,,,,,,,,
,,,,,,60d467290ccaa83b5536f47d,62c53a8c54c23d5b03dab9d0,2022-07-06_09h33.54.316,Colour_Asymmetry_Pilot,2022.1.3,Win32,60.11783095,62c50e9c1127f2cd403a315f,0,48,48,91,1,twofour,,,,,,,,,,,,,,,,,,,,,,,,,,,,,,,,,,,,,,,,,,,,,,,,,,,,,,,,,,,,,,,,,,,,,,,,,,,,,,,,,,,,,,,,,,,,,,,,,,,,,,,,,,,,,,,,,,,,,,,,,,,,,,,,,,,,,,,,,,,,,,,,,,,,,,,,,,,,,
,,,,,,60d467290ccaa83b5536f47d,62c53a8c54c23d5b03dab9d0,2022-07-06_09h33.54.316,Colour_Asymmetry_Pilot,2022.1.3,Win32,60.11783095,62c50e9c1127f2cd403a315f,0,49,49,132,1,threeone,,,,,,,,,,,,,,,,,,,,,,,,,,,,,,,,,,,,,,,,,,,,,,,,,,,,,,,,,,,,,,,,,,,,,,,,,,,,,,,,,,,,,,,,,,,,,,,,,,,,,,,,,,,,,,,,,,,,,,,,,,,,,,,,,,,,,,,,,,,,,,,,,,,,,,,,,,,,,
,,,,,,60d467290ccaa83b5536f47d,62c53a8c54c23d5b03dab9d0,2022-07-06_09h33.54.316,Colour_Asymmetry_Pilot,2022.1.3,Win32,60.11783095,62c50e9c1127f2cd403a315f,0,50,50,118,1,fourtwo,,,,,,,,,,,,,,,,,,,,,,,,,,,,,,,,,,,,,,,,,,,,,,,,,,,,,,,,,,,,,,,,,,,,,,,,,,,,,,,,,,,,,,,,,,,,,,,,,,,,,,,,,,,,,,,,,,,,,,,,,,,,,,,,,,,,,,,,,,,,,,,,,,,,,,,,,,,,,
,,,,,,60d467290ccaa83b5536f47d,62c53a8c54c23d5b03dab9d0,2022-07-06_09h33.54.316,Colour_Asymmetry_Pilot,2022.1.3,Win32,60.11783095,62c50e9c1127f2cd403a315f,0,51,51,47,1,fourthree,,,,,,,,,,,,,,,,,,,,,,,,,,,,,,,,,,,,,,,,,,,,,,,,,,,,,,,,,,,,,,,,,,,,,,,,,,,,,,,,,,,,,,,,,,,,,,,,,,,,,,,,,,,,,,,,,,,,,,,,,,,,,,,,,,,,,,,,,,,,,,,,,,,,,,,,,,,,,
,,,,,,60d467290ccaa83b5536f47d,62c53a8c54c23d5b03dab9d0,2022-07-06_09h33.54.316,Colour_Asymmetry_Pilot,2022.1.3,Win32,60.11783095,62c50e9c1127f2cd403a315f,0,52,52,0,1,onetwo,,,,,,,,,,,,,,,,,,,,,,,,,,,,,,,,,,,,,,,,,,,,,,,,,,,,,,,,,,,,,,,,,,,,,,,,,,,,,,,,,,,,,,,,,,,,,,,,,,,,,,,,,,,,,,,,,,,,,,,,,,,,,,,,,,,,,,,,,,,,,,,,,,,,,,,,,,,,,
,,,,,,60d467290ccaa83b5536f47d,62c53a8c54c23d5b03dab9d0,2022-07-06_09h33.54.316,Colour_Asymmetry_Pilot,2022.1.3,Win32,60.11783095,62c50e9c1127f2cd403a315f,0,53,53,106,1,twoone,,,,,,,,,,,,,,,,,,,,,,,,,,,,,,,,,,,,,,,,,,,,,,,,,,,,,,,,,,,,,,,,,,,,,,,,,,,,,,,,,,,,,,,,,,,,,,,,,,,,,,,,,,,,,,,,,,,,,,,,,,,,,,,,,,,,,,,,,,,,,,,,,,,,,,,,,,,,,
,,,,,,60d467290ccaa83b5536f47d,62c53a8c54c23d5b03dab9d0,2022-07-06_09h33.54.316,Colour_Asymmetry_Pilot,2022.1.3,Win32,60.11783095,62c50e9c1127f2cd403a315f,0,54,54,139,1,twofour,,,,,,,,,,,,,,,,,,,,,,,,,,,,,,,,,,,,,,,,,,,,,,,,,,,,,,,,,,,,,,,,,,,,,,,,,,,,,,,,,,,,,,,,,,,,,,,,,,,,,,,,,,,,,,,,,,,,,,,,,,,,,,,,,,,,,,,,,,,,,,,,,,,,,,,,,,,,,
,,,,,,60d467290ccaa83b5536f47d,62c53a8c54c23d5b03dab9d0,2022-07-06_09h33.54.316,Colour_Asymmetry_Pilot,2022.1.3,Win32,60.11783095,62c50e9c1127f2cd403a315f,0,55,55,59,1,twofour,,,,,,,,,,,,,,,,,,,,,,,,,,,,,,,,,,,,,,,,,,,,,,,,,,,,,,,,,,,,,,,,,,,,,,,,,,,,,,,,,,,,,,,,,,,,,,,,,,,,,,,,,,,,,,,,,,,,,,,,,,,,,,,,,,,,,,,,,,,,,,,,,,,,,,,,,,,,,
,,,,,,60d467290ccaa83b5536f47d,62c53a8c54c23d5b03dab9d0,2022-07-06_09h33.54.316,Colour_Asymmetry_Pilot,2022.1.3,Win32,60.11783095,62c50e9c1127f2cd403a315f,0,56,56,39,1,fourthree,,,,,,,,,,,,,,,,,,,,,,,,,,,,,,,,,,,,,,,,,,,,,,,,,,,,,,,,,,,,,,,,,,,,,,,,,,,,,,,,,,,,,,,,,,,,,,,,,,,,,,,,,,,,,,,,,,,,,,,,,,,,,,,,,,,,,,,,,,,,,,,,,,,,,,,,,,,,,
,,,,,,60d467290ccaa83b5536f47d,62c53a8c54c23d5b03dab9d0,2022-07-06_09h33.54.316,Colour_Asymmetry_Pilot,2022.1.3,Win32,60.11783095,62c50e9c1127f2cd403a315f,0,57,57,133,1,threefour,,,,,,,,,,,,,,,,,,,,,,,,,,,,,,,,,,,,,,,,,,,,,,,,,,,,,,,,,,,,,,,,,,,,,,,,,,,,,,,,,,,,,,,,,,,,,,,,,,,,,,,,,,,,,,,,,,,,,,,,,,,,,,,,,,,,,,,,,,,,,,,,,,,,,,,,,,,,,
,,,,,,60d467290ccaa83b5536f47d,62c53a8c54c23d5b03dab9d0,2022-07-06_09h33.54.316,Colour_Asymmetry_Pilot,2022.1.3,Win32,60.11783095,62c50e9c1127f2cd403a315f,0,58,58,13,1,threefour,,,,,,,,,,,,,,,,,,,,,,,,,,,,,,,,,,,,,,,,,,,,,,,,,,,,,,,,,,,,,,,,,,,,,,,,,,,,,,,,,,,,,,,,,,,,,,,,,,,,,,,,,,,,,,,,,,,,,,,,,,,,,,,,,,,,,,,,,,,,,,,,,,,,,,,,,,,,,
,,,,,,60d467290ccaa83b5536f47d,62c53a8c54c23d5b03dab9d0,2022-07-06_09h33.54.316,Colour_Asymmetry_Pilot,2022.1.3,Win32,60.11783095,62c50e9c1127f2cd403a315f,0,59,59,82,1,twoone,,,,,,,,,,,,,,,,,,,,,,,,,,,,,,,,,,,,,,,,,,,,,,,,,,,,,,,,,,,,,,,,,,,,,,,,,,,,,,,,,,,,,,,,,,,,,,,,,,,,,,,,,,,,,,,,,,,,,,,,,,,,,,,,,,,,,,,,,,,,,,,,,,,,,,,,,,,,,
,,,,,,60d467290ccaa83b5536f47d,62c53a8c54c23d5b03dab9d0,2022-07-06_09h33.54.316,Colour_Asymmetry_Pilot,2022.1.3,Win32,60.11783095,62c50e9c1127f2cd403a315f,0,60,60,105,1,onethree,,,,,,,,,,,,,,,,,,,,,,,,,,,,,,,,,,,,,,,,,,,,,,,,,,,,,,,,,,,,,,,,,,,,,,,,,,,,,,,,,,,,,,,,,,,,,,,,,,,,,,,,,,,,,,,,,,,,,,,,,,,,,,,,,,,,,,,,,,,,,,,,,,,,,,,,,,,,,
,,,,,,60d467290ccaa83b5536f47d,62c53a8c54c23d5b03dab9d0,2022-07-06_09h33.54.316,Colour_Asymmetry_Pilot,2022.1.3,Win32,60.11783095,62c50e9c1127f2cd403a315f,0,61,61,74,1,twoone,,,,,,,,,,,,,,,,,,,,,,,,,,,,,,,,,,,,,,,,,,,,,,,,,,,,,,,,,,,,,,,,,,,,,,,,,,,,,,,,,,,,,,,,,,,,,,,,,,,,,,,,,,,,,,,,,,,,,,,,,,,,,,,,,,,,,,,,,,,,,,,,,,,,,,,,,,,,,
,,,,,,60d467290ccaa83b5536f47d,62c53a8c54c23d5b03dab9d0,2022-07-06_09h33.54.316,Colour_Asymmetry_Pilot,2022.1.3,Win32,60.11783095,62c50e9c1127f2cd403a315f,0,62,62,46,1,fourtwo,,,,,,,,,,,,,,,,,,,,,,,,,,,,,,,,,,,,,,,,,,,,,,,,,,,,,,,,,,,,,,,,,,,,,,,,,,,,,,,,,,,,,,,,,,,,,,,,,,,,,,,,,,,,,,,,,,,,,,,,,,,,,,,,,,,,,,,,,,,,,,,,,,,,,,,,,,,,,
,,,,,,60d467290ccaa83b5536f47d,62c53a8c54c23d5b03dab9d0,2022-07-06_09h33.54.316,Colour_Asymmetry_Pilot,2022.1.3,Win32,60.11783095,62c50e9c1127f2cd403a315f,0,63,63,75,1,twofour,,,,,,,,,,,,,,,,,,,,,,,,,,,,,,,,,,,,,,,,,,,,,,,,,,,,,,,,,,,,,,,,,,,,,,,,,,,,,,,,,,,,,,,,,,,,,,,,,,,,,,,,,,,,,,,,,,,,,,,,,,,,,,,,,,,,,,,,,,,,,,,,,,,,,,,,,,,,,
,,,,,,60d467290ccaa83b5536f47d,62c53a8c54c23d5b03dab9d0,2022-07-06_09h33.54.316,Colour_Asymmetry_Pilot,2022.1.3,Win32,60.11783095,62c50e9c1127f2cd403a315f,0,64,64,53,1,threefour,,,,,,,,,,,,,,,,,,,,,,,,,,,,,,,,,,,,,,,,,,,,,,,,,,,,,,,,,,,,,,,,,,,,,,,,,,,,,,,,,,,,,,,,,,,,,,,,,,,,,,,,,,,,,,,,,,,,,,,,,,,,,,,,,,,,,,,,,,,,,,,,,,,,,,,,,,,,,
,,,,,,60d467290ccaa83b5536f47d,62c53a8c54c23d5b03dab9d0,2022-07-06_09h33.54.316,Colour_Asymmetry_Pilot,2022.1.3,Win32,60.11783095,62c50e9c1127f2cd403a315f,0,65,65,1,1,onethree,,,,,,,,,,,,,,,,,,,,,,,,,,,,,,,,,,,,,,,,,,,,,,,,,,,,,,,,,,,,,,,,,,,,,,,,,,,,,,,,,,,,,,,,,,,,,,,,,,,,,,,,,,,,,,,,,,,,,,,,,,,,,,,,,,,,,,,,,,,,,,,,,,,,,,,,,,,,,
,,,,,,60d467290ccaa83b5536f47d,62c53a8c54c23d5b03dab9d0,2022-07-06_09h33.54.316,Colour_Asymmetry_Pilot,2022.1.3,Win32,60.11783095,62c50e9c1127f2cd403a315f,0,66,66,83,1,twofour,,,,,,,,,,,,,,,,,,,,,,,,,,,,,,,,,,,,,,,,,,,,,,,,,,,,,,,,,,,,,,,,,,,,,,,,,,,,,,,,,,,,,,,,,,,,,,,,,,,,,,,,,,,,,,,,,,,,,,,,,,,,,,,,,,,,,,,,,,,,,,,,,,,,,,,,,,,,,
,,,,,,60d467290ccaa83b5536f47d,62c53a8c54c23d5b03dab9d0,2022-07-06_09h33.54.316,Colour_Asymmetry_Pilot,2022.1.3,Win32,60.11783095,62c50e9c1127f2cd403a315f,0,67,67,22,1,fourtwo,,,,,,,,,,,,,,,,,,,,,,,,,,,,,,,,,,,,,,,,,,,,,,,,,,,,,,,,,,,,,,,,,,,,,,,,,,,,,,,,,,,,,,,,,,,,,,,,,,,,,,,,,,,,,,,,,,,,,,,,,,,,,,,,,,,,,,,,,,,,,,,,,,,,,,,,,,,,,
,,,,,,60d467290ccaa83b5536f47d,62c53a8c54c23d5b03dab9d0,2022-07-06_09h33.54.316,Colour_Asymmetry_Pilot,2022.1.3,Win32,60.11783095,62c50e9c1127f2cd403a315f,0,68,68,155,1,twofour,,,,,,,,,,,,,,,,,,,,,,,,,,,,,,,,,,,,,,,,,,,,,,,,,,,,,,,,,,,,,,,,,,,,,,,,,,,,,,,,,,,,,,,,,,,,,,,,,,,,,,,,,,,,,,,,,,,,,,,,,,,,,,,,,,,,,,,,,,,,,,,,,,,,,,,,,,,,,
,,,,,,60d467290ccaa83b5536f47d,62c53a8c54c23d5b03dab9d0,2022-07-06_09h33.54.316,Colour_Asymmetry_Pilot,2022.1.3,Win32,60.11783095,62c50e9c1127f2cd403a315f,0,69,69,48,1,onetwo,,,,,,,,,,,,,,,,,,,,,,,,,,,,,,,,,,,,,,,,,,,,,,,,,,,,,,,,,,,,,,,,,,,,,,,,,,,,,,,,,,,,,,,,,,,,,,,,,,,,,,,,,,,,,,,,,,,,,,,,,,,,,,,,,,,,,,,,,,,,,,,,,,,,,,,,,,,,,
,,,,,,60d467290ccaa83b5536f47d,62c53a8c54c23d5b03dab9d0,2022-07-06_09h33.54.316,Colour_Asymmetry_Pilot,2022.1.3,Win32,60.11783095,62c50e9c1127f2cd403a315f,0,70,70,122,1,twoone,,,,,,,,,,,,,,,,,,,,,,,,,,,,,,,,,,,,,,,,,,,,,,,,,,,,,,,,,,,,,,,,,,,,,,,,,,,,,,,,,,,,,,,,,,,,,,,,,,,,,,,,,,,,,,,,,,,,,,,,,,,,,,,,,,,,,,,,,,,,,,,,,,,,,,,,,,,,,
,,,,,,60d467290ccaa83b5536f47d,62c53a8c54c23d5b03dab9d0,2022-07-06_09h33.54.316,Colour_Asymmetry_Pilot,2022.1.3,Win32,60.11783095,62c50e9c1127f2cd403a315f,0,71,71,112,1,onetwo,,,,,,,,,,,,,,,,,,,,,,,,,,,,,,,,,,,,,,,,,,,,,,,,,,,,,,,,,,,,,,,,,,,,,,,,,,,,,,,,,,,,,,,,,,,,,,,,,,,,,,,,,,,,,,,,,,,,,,,,,,,,,,,,,,,,,,,,,,,,,,,,,,,,,,,,,,,,,
,,,,,,60d467290ccaa83b5536f47d,62c53a8c54c23d5b03dab9d0,2022-07-06_09h33.54.316,Colour_Asymmetry_Pilot,2022.1.3,Win32,60.11783095,62c50e9c1127f2cd403a315f,0,72,72,67,1,twofour,,,,,,,,,,,,,,,,,,,,,,,,,,,,,,,,,,,,,,,,,,,,,,,,,,,,,,,,,,,,,,,,,,,,,,,,,,,,,,,,,,,,,,,,,,,,,,,,,,,,,,,,,,,,,,,,,,,,,,,,,,,,,,,,,,,,,,,,,,,,,,,,,,,,,,,,,,,,,
,,,,,,60d467290ccaa83b5536f47d,62c53a8c54c23d5b03dab9d0,2022-07-06_09h33.54.316,Colour_Asymmetry_Pilot,2022.1.3,Win32,60.11783095,62c50e9c1127f2cd403a315f,0,73,73,52,1,threeone,,,,,,,,,,,,,,,,,,,,,,,,,,,,,,,,,,,,,,,,,,,,,,,,,,,,,,,,,,,,,,,,,,,,,,,,,,,,,,,,,,,,,,,,,,,,,,,,,,,,,,,,,,,,,,,,,,,,,,,,,,,,,,,,,,,,,,,,,,,,,,,,,,,,,,,,,,,,,
,,,,,,60d467290ccaa83b5536f47d,62c53a8c54c23d5b03dab9d0,2022-07-06_09h33.54.316,Colour_Asymmetry_Pilot,2022.1.3,Win32,60.11783095,62c50e9c1127f2cd403a315f,0,74,74,151,1,fourthree,,,,,,,,,,,,,,,,,,,,,,,,,,,,,,,,,,,,,,,,,,,,,,,,,,,,,,,,,,,,,,,,,,,,,,,,,,,,,,,,,,,,,,,,,,,,,,,,,,,,,,,,,,,,,,,,,,,,,,,,,,,,,,,,,,,,,,,,,,,,,,,,,,,,,,,,,,,,,
,,,,,,60d467290ccaa83b5536f47d,62c53a8c54c23d5b03dab9d0,2022-07-06_09h33.54.316,Colour_Asymmetry_Pilot,2022.1.3,Win32,60.11783095,62c50e9c1127f2cd403a315f,0,75,75,103,1,fourthree,,,,,,,,,,,,,,,,,,,,,,,,,,,,,,,,,,,,,,,,,,,,,,,,,,,,,,,,,,,,,,,,,,,,,,,,,,,,,,,,,,,,,,,,,,,,,,,,,,,,,,,,,,,,,,,,,,,,,,,,,,,,,,,,,,,,,,,,,,,,,,,,,,,,,,,,,,,,,
,,,,,,60d467290ccaa83b5536f47d,62c53a8c54c23d5b03dab9d0,2022-07-06_09h33.54.316,Colour_Asymmetry_Pilot,2022.1.3,Win32,60.11783095,62c50e9c1127f2cd403a315f,0,76,76,3,1,twofour,,,,,,,,,,,,,,,,,,,,,,,,,,,,,,,,,,,,,,,,,,,,,,,,,,,,,,,,,,,,,,,,,,,,,,,,,,,,,,,,,,,,,,,,,,,,,,,,,,,,,,,,,,,,,,,,,,,,,,,,,,,,,,,,,,,,,,,,,,,,,,,,,,,,,,,,,,,,,
,,,,,,60d467290ccaa83b5536f47d,62c53a8c54c23d5b03dab9d0,2022-07-06_09h33.54.316,Colour_Asymmetry_Pilot,2022.1.3,Win32,60.11783095,62c50e9c1127f2cd403a315f,0,77,77,114,1,twoone,,,,,,,,,,,,,,,,,,,,,,,,,,,,,,,,,,,,,,,,,,,,,,,,,,,,,,,,,,,,,,,,,,,,,,,,,,,,,,,,,,,,,,,,,,,,,,,,,,,,,,,,,,,,,,,,,,,,,,,,,,,,,,,,,,,,,,,,,,,,,,,,,,,,,,,,,,,,,
,,,,,,60d467290ccaa83b5536f47d,62c53a8c54c23d5b03dab9d0,2022-07-06_09h33.54.316,Colour_Asymmetry_Pilot,2022.1.3,Win32,60.11783095,62c50e9c1127f2cd403a315f,0,78,78,141,1,threefour,,,,,,,,,,,,,,,,,,,,,,,,,,,,,,,,,,,,,,,,,,,,,,,,,,,,,,,,,,,,,,,,,,,,,,,,,,,,,,,,,,,,,,,,,,,,,,,,,,,,,,,,,,,,,,,,,,,,,,,,,,,,,,,,,,,,,,,,,,,,,,,,,,,,,,,,,,,,,
,,,,,,60d467290ccaa83b5536f47d,62c53a8c54c23d5b03dab9d0,2022-07-06_09h33.54.316,Colour_Asymmetry_Pilot,2022.1.3,Win32,60.11783095,62c50e9c1127f2cd403a315f,0,79,79,37,1,threefour,,,,,,,,,,,,,,,,,,,,,,,,,,,,,,,,,,,,,,,,,,,,,,,,,,,,,,,,,,,,,,,,,,,,,,,,,,,,,,,,,,,,,,,,,,,,,,,,,,,,,,,,,,,,,,,,,,,,,,,,,,,,,,,,,,,,,,,,,,,,,,,,,,,,,,,,,,,,,
,,,,,,60d467290ccaa83b5536f47d,62c53a8c54c23d5b03dab9d0,2022-07-06_09h33.54.316,Colour_Asymmetry_Pilot,2022.1.3,Win32,60.11783095,62c50e9c1127f2cd403a315f,0,80,80,94,1,fourtwo,,,,,,,,,,,,,,,,,,,,,,,,,,,,,,,,,,,,,,,,,,,,,,,,,,,,,,,,,,,,,,,,,,,,,,,,,,,,,,,,,,,,,,,,,,,,,,,,,,,,,,,,,,,,,,,,,,,,,,,,,,,,,,,,,,,,,,,,,,,,,,,,,,,,,,,,,,,,,
,,,,,,60d467290ccaa83b5536f47d,62c53a8c54c23d5b03dab9d0,2022-07-06_09h33.54.316,Colour_Asymmetry_Pilot,2022.1.3,Win32,60.11783095,62c50e9c1127f2cd403a315f,0,81,81,104,1,onetwo,,,,,,,,,,,,,,,,,,,,,,,,,,,,,,,,,,,,,,,,,,,,,,,,,,,,,,,,,,,,,,,,,,,,,,,,,,,,,,,,,,,,,,,,,,,,,,,,,,,,,,,,,,,,,,,,,,,,,,,,,,,,,,,,,,,,,,,,,,,,,,,,,,,,,,,,,,,,,
,,,,,,60d467290ccaa83b5536f47d,62c53a8c54c23d5b03dab9d0,2022-07-06_09h33.54.316,Colour_Asymmetry_Pilot,2022.1.3,Win32,60.11783095,62c50e9c1127f2cd403a315f,0,82,82,69,1,threefour,,,,,,,,,,,,,,,,,,,,,,,,,,,,,,,,,,,,,,,,,,,,,,,,,,,,,,,,,,,,,,,,,,,,,,,,,,,,,,,,,,,,,,,,,,,,,,,,,,,,,,,,,,,,,,,,,,,,,,,,,,,,,,,,,,,,,,,,,,,,,,,,,,,,,,,,,,,,,
,,,,,,60d467290ccaa83b5536f47d,62c53a8c54c23d5b03dab9d0,2022-07-06_09h33.54.316,Colour_Asymmetry_Pilot,2022.1.3,Win32,60.11783095,62c50e9c1127f2cd403a315f,0,83,83,15,1,fourthree,,,,,,,,,,,,,,,,,,,,,,,,,,,,,,,,,,,,,,,,,,,,,,,,,,,,,,,,,,,,,,,,,,,,,,,,,,,,,,,,,,,,,,,,,,,,,,,,,,,,,,,,,,,,,,,,,,,,,,,,,,,,,,,,,,,,,,,,,,,,,,,,,,,,,,,,,,,,,
,,,,,,60d467290ccaa83b5536f47d,62c53a8c54c23d5b03dab9d0,2022-07-06_09h33.54.316,Colour_Asymmetry_Pilot,2022.1.3,Win32,60.11783095,62c50e9c1127f2cd403a315f,0,84,84,79,1,fourthree,,,,,,,,,,,,,,,,,,,,,,,,,,,,,,,,,,,,,,,,,,,,,,,,,,,,,,,,,,,,,,,,,,,,,,,,,,,,,,,,,,,,,,,,,,,,,,,,,,,,,,,,,,,,,,,,,,,,,,,,,,,,,,,,,,,,,,,,,,,,,,,,,,,,,,,,,,,,,
,,,,,,60d467290ccaa83b5536f47d,62c53a8c54c23d5b03dab9d0,2022-07-06_09h33.54.316,Colour_Asymmetry_Pilot,2022.1.3,Win32,60.11783095,62c50e9c1127f2cd403a315f,0,85,85,95,1,fourthree,,,,,,,,,,,,,,,,,,,,,,,,,,,,,,,,,,,,,,,,,,,,,,,,,,,,,,,,,,,,,,,,,,,,,,,,,,,,,,,,,,,,,,,,,,,,,,,,,,,,,,,,,,,,,,,,,,,,,,,,,,,,,,,,,,,,,,,,,,,,,,,,,,,,,,,,,,,,,
,,,,,,60d467290ccaa83b5536f47d,62c53a8c54c23d5b03dab9d0,2022-07-06_09h33.54.316,Colour_Asymmetry_Pilot,2022.1.3,Win32,60.11783095,62c50e9c1127f2cd403a315f,0,86,86,107,1,twofour,,,,,,,,,,,,,,,,,,,,,,,,,,,,,,,,,,,,,,,,,,,,,,,,,,,,,,,,,,,,,,,,,,,,,,,,,,,,,,,,,,,,,,,,,,,,,,,,,,,,,,,,,,,,,,,,,,,,,,,,,,,,,,,,,,,,,,,,,,,,,,,,,,,,,,,,,,,,,
,,,,,,60d467290ccaa83b5536f47d,62c53a8c54c23d5b03dab9d0,2022-07-06_09h33.54.316,Colour_Asymmetry_Pilot,2022.1.3,Win32,60.11783095,62c50e9c1127f2cd403a315f,0,87,87,16,1,onetwo,,,,,,,,,,,,,,,,,,,,,,,,,,,,,,,,,,,,,,,,,,,,,,,,,,,,,,,,,,,,,,,,,,,,,,,,,,,,,,,,,,,,,,,,,,,,,,,,,,,,,,,,,,,,,,,,,,,,,,,,,,,,,,,,,,,,,,,,,,,,,,,,,,,,,,,,,,,,,
,,,,,,60d467290ccaa83b5536f47d,62c53a8c54c23d5b03dab9d0,2022-07-06_09h33.54.316,Colour_Asymmetry_Pilot,2022.1.3,Win32,60.11783095,62c50e9c1127f2cd403a315f,0,88,88,10,1,twoone,,,,,,,,,,,,,,,,,,,,,,,,,,,,,,,,,,,,,,,,,,,,,,,,,,,,,,,,,,,,,,,,,,,,,,,,,,,,,,,,,,,,,,,,,,,,,,,,,,,,,,,,,,,,,,,,,,,,,,,,,,,,,,,,,,,,,,,,,,,,,,,,,,,,,,,,,,,,,
,,,,,,60d467290ccaa83b5536f47d,62c53a8c54c23d5b03dab9d0,2022-07-06_09h33.54.316,Colour_Asymmetry_Pilot,2022.1.3,Win32,60.11783095,62c50e9c1127f2cd403a315f,0,89,89,72,1,onetwo,,,,,,,,,,,,,,,,,,,,,,,,,,,,,,,,,,,,,,,,,,,,,,,,,,,,,,,,,,,,,,,,,,,,,,,,,,,,,,,,,,,,,,,,,,,,,,,,,,,,,,,,,,,,,,,,,,,,,,,,,,,,,,,,,,,,,,,,,,,,,,,,,,,,,,,,,,,,,
,,,,,,60d467290ccaa83b5536f47d,62c53a8c54c23d5b03dab9d0,2022-07-06_09h33.54.316,Colour_Asymmetry_Pilot,2022.1.3,Win32,60.11783095,62c50e9c1127f2cd403a315f,0,90,90,14,1,fourtwo,,,,,,,,,,,,,,,,,,,,,,,,,,,,,,,,,,,,,,,,,,,,,,,,,,,,,,,,,,,,,,,,,,,,,,,,,,,,,,,,,,,,,,,,,,,,,,,,,,,,,,,,,,,,,,,,,,,,,,,,,,,,,,,,,,,,,,,,,,,,,,,,,,,,,,,,,,,,,
,,,,,,60d467290ccaa83b5536f47d,62c53a8c54c23d5b03dab9d0,2022-07-06_09h33.54.316,Colour_Asymmetry_Pilot,2022.1.3,Win32,60.11783095,62c50e9c1127f2cd403a315f,0,91,91,90,1,twoone,,,,,,,,,,,,,,,,,,,,,,,,,,,,,,,,,,,,,,,,,,,,,,,,,,,,,,,,,,,,,,,,,,,,,,,,,,,,,,,,,,,,,,,,,,,,,,,,,,,,,,,,,,,,,,,,,,,,,,,,,,,,,,,,,,,,,,,,,,,,,,,,,,,,,,,,,,,,,
,,,,,,60d467290ccaa83b5536f47d,62c53a8c54c23d5b03dab9d0,2022-07-06_09h33.54.316,Colour_Asymmetry_Pilot,2022.1.3,Win32,60.11783095,62c50e9c1127f2cd403a315f,0,92,92,26,1,twoone,,,,,,,,,,,,,,,,,,,,,,,,,,,,,,,,,,,,,,,,,,,,,,,,,,,,,,,,,,,,,,,,,,,,,,,,,,,,,,,,,,,,,,,,,,,,,,,,,,,,,,,,,,,,,,,,,,,,,,,,,,,,,,,,,,,,,,,,,,,,,,,,,,,,,,,,,,,,,
,,,,,,60d467290ccaa83b5536f47d,62c53a8c54c23d5b03dab9d0,2022-07-06_09h33.54.316,Colour_Asymmetry_Pilot,2022.1.3,Win32,60.11783095,62c50e9c1127f2cd403a315f,0,93,93,97,1,onethree,,,,,,,,,,,,,,,,,,,,,,,,,,,,,,,,,,,,,,,,,,,,,,,,,,,,,,,,,,,,,,,,,,,,,,,,,,,,,,,,,,,,,,,,,,,,,,,,,,,,,,,,,,,,,,,,,,,,,,,,,,,,,,,,,,,,,,,,,,,,,,,,,,,,,,,,,,,,,
,,,,,,60d467290ccaa83b5536f47d,62c53a8c54c23d5b03dab9d0,2022-07-06_09h33.54.316,Colour_Asymmetry_Pilot,2022.1.3,Win32,60.11783095,62c50e9c1127f2cd403a315f,0,94,94,35,1,twofour,,,,,,,,,,,,,,,,,,,,,,,,,,,,,,,,,,,,,,,,,,,,,,,,,,,,,,,,,,,,,,,,,,,,,,,,,,,,,,,,,,,,,,,,,,,,,,,,,,,,,,,,,,,,,,,,,,,,,,,,,,,,,,,,,,,,,,,,,,,,,,,,,,,,,,,,,,,,,
,,,,,,60d467290ccaa83b5536f47d,62c53a8c54c23d5b03dab9d0,2022-07-06_09h33.54.316,Colour_Asymmetry_Pilot,2022.1.3,Win32,60.11783095,62c50e9c1127f2cd403a315f,0,95,95,7,1,fourthree,,,,,,,,,,,,,,,,,,,,,,,,,,,,,,,,,,,,,,,,,,,,,,,,,,,,,,,,,,,,,,,,,,,,,,,,,,,,,,,,,,,,,,,,,,,,,,,,,,,,,,,,,,,,,,,,,,,,,,,,,,,,,,,,,,,,,,,,,,,,,,,,,,,,,,,,,,,,,
,,,,,,60d467290ccaa83b5536f47d,62c53a8c54c23d5b03dab9d0,2022-07-06_09h33.54.316,Colour_Asymmetry_Pilot,2022.1.3,Win32,60.11783095,62c50e9c1127f2cd403a315f,0,96,96,158,1,fourtwo,,,,,,,,,,,,,,,,,,,,,,,,,,,,,,,,,,,,,,,,,,,,,,,,,,,,,,,,,,,,,,,,,,,,,,,,,,,,,,,,,,,,,,,,,,,,,,,,,,,,,,,,,,,,,,,,,,,,,,,,,,,,,,,,,,,,,,,,,,,,,,,,,,,,,,,,,,,,,
,,,,,,60d467290ccaa83b5536f47d,62c53a8c54c23d5b03dab9d0,2022-07-06_09h33.54.316,Colour_Asymmetry_Pilot,2022.1.3,Win32,60.11783095,62c50e9c1127f2cd403a315f,0,97,97,87,1,fourthree,,,,,,,,,,,,,,,,,,,,,,,,,,,,,,,,,,,,,,,,,,,,,,,,,,,,,,,,,,,,,,,,,,,,,,,,,,,,,,,,,,,,,,,,,,,,,,,,,,,,,,,,,,,,,,,,,,,,,,,,,,,,,,,,,,,,,,,,,,,,,,,,,,,,,,,,,,,,,
,,,,,,60d467290ccaa83b5536f47d,62c53a8c54c23d5b03dab9d0,2022-07-06_09h33.54.316,Colour_Asymmetry_Pilot,2022.1.3,Win32,60.11783095,62c50e9c1127f2cd403a315f,0,98,98,98,1,twoone,,,,,,,,,,,,,,,,,,,,,,,,,,,,,,,,,,,,,,,,,,,,,,,,,,,,,,,,,,,,,,,,,,,,,,,,,,,,,,,,,,,,,,,,,,,,,,,,,,,,,,,,,,,,,,,,,,,,,,,,,,,,,,,,,,,,,,,,,,,,,,,,,,,,,,,,,,,,,
,,,,,,60d467290ccaa83b5536f47d,62c53a8c54c23d5b03dab9d0,2022-07-06_09h33.54.316,Colour_Asymmetry_Pilot,2022.1.3,Win32,60.11783095,62c50e9c1127f2cd403a315f,0,99,99,84,1,threeone,,,,,,,,,,,,,,,,,,,,,,,,,,,,,,,,,,,,,,,,,,,,,,,,,,,,,,,,,,,,,,,,,,,,,,,,,,,,,,,,,,,,,,,,,,,,,,,,,,,,,,,,,,,,,,,,,,,,,,,,,,,,,,,,,,,,,,,,,,,,,,,,,,,,,,,,,,,,,
,,,,,,60d467290ccaa83b5536f47d,62c53a8c54c23d5b03dab9d0,2022-07-06_09h33.54.316,Colour_Asymmetry_Pilot,2022.1.3,Win32,60.11783095,62c50e9c1127f2cd403a315f,0,100,100,29,1,threefour,,,,,,,,,,,,,,,,,,,,,,,,,,,,,,,,,,,,,,,,,,,,,,,,,,,,,,,,,,,,,,,,,,,,,,,,,,,,,,,,,,,,,,,,,,,,,,,,,,,,,,,,,,,,,,,,,,,,,,,,,,,,,,,,,,,,,,,,,,,,,,,,,,,,,,,,,,,,,
,,,,,,60d467290ccaa83b5536f47d,62c53a8c54c23d5b03dab9d0,2022-07-06_09h33.54.316,Colour_Asymmetry_Pilot,2022.1.3,Win32,60.11783095,62c50e9c1127f2cd403a315f,0,101,101,148,1,threeone,,,,,,,,,,,,,,,,,,,,,,,,,,,,,,,,,,,,,,,,,,,,,,,,,,,,,,,,,,,,,,,,,,,,,,,,,,,,,,,,,,,,,,,,,,,,,,,,,,,,,,,,,,,,,,,,,,,,,,,,,,,,,,,,,,,,,,,,,,,,,,,,,,,,,,,,,,,,,
,,,,,,60d467290ccaa83b5536f47d,62c53a8c54c23d5b03dab9d0,2022-07-06_09h33.54.316,Colour_Asymmetry_Pilot,2022.1.3,Win32,60.11783095,62c50e9c1127f2cd403a315f,0,102,102,68,1,threeone,,,,,,,,,,,,,,,,,,,,,,,,,,,,,,,,,,,,,,,,,,,,,,,,,,,,,,,,,,,,,,,,,,,,,,,,,,,,,,,,,,,,,,,,,,,,,,,,,,,,,,,,,,,,,,,,,,,,,,,,,,,,,,,,,,,,,,,,,,,,,,,,,,,,,,,,,,,,,
,,,,,,60d467290ccaa83b5536f47d,62c53a8c54c23d5b03dab9d0,2022-07-06_09h33.54.316,Colour_Asymmetry_Pilot,2022.1.3,Win32,60.11783095,62c50e9c1127f2cd403a315f,0,103,103,136,1,onetwo,,,,,,,,,,,,,,,,,,,,,,,,,,,,,,,,,,,,,,,,,,,,,,,,,,,,,,,,,,,,,,,,,,,,,,,,,,,,,,,,,,,,,,,,,,,,,,,,,,,,,,,,,,,,,,,,,,,,,,,,,,,,,,,,,,,,,,,,,,,,,,,,,,,,,,,,,,,,,
,,,,,,60d467290ccaa83b5536f47d,62c53a8c54c23d5b03dab9d0,2022-07-06_09h33.54.316,Colour_Asymmetry_Pilot,2022.1.3,Win32,60.11783095,62c50e9c1127f2cd403a315f,0,104,104,131,1,twofour,,,,,,,,,,,,,,,,,,,,,,,,,,,,,,,,,,,,,,,,,,,,,,,,,,,,,,,,,,,,,,,,,,,,,,,,,,,,,,,,,,,,,,,,,,,,,,,,,,,,,,,,,,,,,,,,,,,,,,,,,,,,,,,,,,,,,,,,,,,,,,,,,,,,,,,,,,,,,
,,,,,,60d467290ccaa83b5536f47d,62c53a8c54c23d5b03dab9d0,2022-07-06_09h33.54.316,Colour_Asymmetry_Pilot,2022.1.3,Win32,60.11783095,62c50e9c1127f2cd403a315f,0,105,105,154,1,twoone,,,,,,,,,,,,,,,,,,,,,,,,,,,,,,,,,,,,,,,,,,,,,,,,,,,,,,,,,,,,,,,,,,,,,,,,,,,,,,,,,,,,,,,,,,,,,,,,,,,,,,,,,,,,,,,,,,,,,,,,,,,,,,,,,,,,,,,,,,,,,,,,,,,,,,,,,,,,,
,,,,,,60d467290ccaa83b5536f47d,62c53a8c54c23d5b03dab9d0,2022-07-06_09h33.54.316,Colour_Asymmetry_Pilot,2022.1.3,Win32,60.11783095,62c50e9c1127f2cd403a315f,0,106,106,96,1,onetwo,,,,,,,,,,,,,,,,,,,,,,,,,,,,,,,,,,,,,,,,,,,,,,,,,,,,,,,,,,,,,,,,,,,,,,,,,,,,,,,,,,,,,,,,,,,,,,,,,,,,,,,,,,,,,,,,,,,,,,,,,,,,,,,,,,,,,,,,,,,,,,,,,,,,,,,,,,,,,
,,,,,,60d467290ccaa83b5536f47d,62c53a8c54c23d5b03dab9d0,2022-07-06_09h33.54.316,Colour_Asymmetry_Pilot,2022.1.3,Win32,60.11783095,62c50e9c1127f2cd403a315f,0,107,107,34,1,twoone,,,,,,,,,,,,,,,,,,,,,,,,,,,,,,,,,,,,,,,,,,,,,,,,,,,,,,,,,,,,,,,,,,,,,,,,,,,,,,,,,,,,,,,,,,,,,,,,,,,,,,,,,,,,,,,,,,,,,,,,,,,,,,,,,,,,,,,,,,,,,,,,,,,,,,,,,,,,,
,,,,,,60d467290ccaa83b5536f47d,62c53a8c54c23d5b03dab9d0,2022-07-06_09h33.54.316,Colour_Asymmetry_Pilot,2022.1.3,Win32,60.11783095,62c50e9c1127f2cd403a315f,0,108,108,24,1,onetwo,,,,,,,,,,,,,,,,,,,,,,,,,,,,,,,,,,,,,,,,,,,,,,,,,,,,,,,,,,,,,,,,,,,,,,,,,,,,,,,,,,,,,,,,,,,,,,,,,,,,,,,,,,,,,,,,,,,,,,,,,,,,,,,,,,,,,,,,,,,,,,,,,,,,,,,,,,,,,
,,,,,,60d467290ccaa83b5536f47d,62c53a8c54c23d5b03dab9d0,2022-07-06_09h33.54.316,Colour_Asymmetry_Pilot,2022.1.3,Win32,60.11783095,62c50e9c1127f2cd403a315f,0,109,109,5,1,threefour,,,,,,,,,,,,,,,,,,,,,,,,,,,,,,,,,,,,,,,,,,,,,,,,,,,,,,,,,,,,,,,,,,,,,,,,,,,,,,,,,,,,,,,,,,,,,,,,,,,,,,,,,,,,,,,,,,,,,,,,,,,,,,,,,,,,,,,,,,,,,,,,,,,,,,,,,,,,,
,,,,,,60d467290ccaa83b5536f47d,62c53a8c54c23d5b03dab9d0,2022-07-06_09h33.54.316,Colour_Asymmetry_Pilot,2022.1.3,Win32,60.11783095,62c50e9c1127f2cd403a315f,0,110,110,77,1,threefour,,,,,,,,,,,,,,,,,,,,,,,,,,,,,,,,,,,,,,,,,,,,,,,,,,,,,,,,,,,,,,,,,,,,,,,,,,,,,,,,,,,,,,,,,,,,,,,,,,,,,,,,,,,,,,,,,,,,,,,,,,,,,,,,,,,,,,,,,,,,,,,,,,,,,,,,,,,,,
,,,,,,60d467290ccaa83b5536f47d,62c53a8c54c23d5b03dab9d0,2022-07-06_09h33.54.316,Colour_Asymmetry_Pilot,2022.1.3,Win32,60.11783095,62c50e9c1127f2cd403a315f,0,111,111,145,1,onethree,,,,,,,,,,,,,,,,,,,,,,,,,,,,,,,,,,,,,,,,,,,,,,,,,,,,,,,,,,,,,,,,,,,,,,,,,,,,,,,,,,,,,,,,,,,,,,,,,,,,,,,,,,,,,,,,,,,,,,,,,,,,,,,,,,,,,,,,,,,,,,,,,,,,,,,,,,,,,
,,,,,,60d467290ccaa83b5536f47d,62c53a8c54c23d5b03dab9d0,2022-07-06_09h33.54.316,Colour_Asymmetry_Pilot,2022.1.3,Win32,60.11783095,62c50e9c1127f2cd403a315f,0,112,112,44,1,threeone,,,,,,,,,,,,,,,,,,,,,,,,,,,,,,,,,,,,,,,,,,,,,,,,,,,,,,,,,,,,,,,,,,,,,,,,,,,,,,,,,,,,,,,,,,,,,,,,,,,,,,,,,,,,,,,,,,,,,,,,,,,,,,,,,,,,,,,,,,,,,,,,,,,,,,,,,,,,,
,,,,,,60d467290ccaa83b5536f47d,62c53a8c54c23d5b03dab9d0,2022-07-06_09h33.54.316,Colour_Asymmetry_Pilot,2022.1.3,Win32,60.11783095,62c50e9c1127f2cd403a315f,0,113,113,36,1,threeone,,,,,,,,,,,,,,,,,,,,,,,,,,,,,,,,,,,,,,,,,,,,,,,,,,,,,,,,,,,,,,,,,,,,,,,,,,,,,,,,,,,,,,,,,,,,,,,,,,,,,,,,,,,,,,,,,,,,,,,,,,,,,,,,,,,,,,,,,,,,,,,,,,,,,,,,,,,,,
,,,,,,60d467290ccaa83b5536f47d,62c53a8c54c23d5b03dab9d0,2022-07-06_09h33.54.316,Colour_Asymmetry_Pilot,2022.1.3,Win32,60.11783095,62c50e9c1127f2cd403a315f,0,114,114,49,1,onethree,,,,,,,,,,,,,,,,,,,,,,,,,,,,,,,,,,,,,,,,,,,,,,,,,,,,,,,,,,,,,,,,,,,,,,,,,,,,,,,,,,,,,,,,,,,,,,,,,,,,,,,,,,,,,,,,,,,,,,,,,,,,,,,,,,,,,,,,,,,,,,,,,,,,,,,,,,,,,
,,,,,,60d467290ccaa83b5536f47d,62c53a8c54c23d5b03dab9d0,2022-07-06_09h33.54.316,Colour_Asymmetry_Pilot,2022.1.3,Win32,60.11783095,62c50e9c1127f2cd403a315f,0,115,115,71,1,fourthree,,,,,,,,,,,,,,,,,,,,,,,,,,,,,,,,,,,,,,,,,,,,,,,,,,,,,,,,,,,,,,,,,,,,,,,,,,,,,,,,,,,,,,,,,,,,,,,,,,,,,,,,,,,,,,,,,,,,,,,,,,,,,,,,,,,,,,,,,,,,,,,,,,,,,,,,,,,,,
,,,,,,60d467290ccaa83b5536f47d,62c53a8c54c23d5b03dab9d0,2022-07-06_09h33.54.316,Colour_Asymmetry_Pilot,2022.1.3,Win32,60.11783095,62c50e9c1127f2cd403a315f,0,116,116,6,1,fourtwo,,,,,,,,,,,,,,,,,,,,,,,,,,,,,,,,,,,,,,,,,,,,,,,,,,,,,,,,,,,,,,,,,,,,,,,,,,,,,,,,,,,,,,,,,,,,,,,,,,,,,,,,,,,,,,,,,,,,,,,,,,,,,,,,,,,,,,,,,,,,,,,,,,,,,,,,,,,,,
,,,,,,60d467290ccaa83b5536f47d,62c53a8c54c23d5b03dab9d0,2022-07-06_09h33.54.316,Colour_Asymmetry_Pilot,2022.1.3,Win32,60.11783095,62c50e9c1127f2cd403a315f,0,117,117,81,1,onethree,,,,,,,,,,,,,,,,,,,,,,,,,,,,,,,,,,,,,,,,,,,,,,,,,,,,,,,,,,,,,,,,,,,,,,,,,,,,,,,,,,,,,,,,,,,,,,,,,,,,,,,,,,,,,,,,,,,,,,,,,,,,,,,,,,,,,,,,,,,,,,,,,,,,,,,,,,,,,
,,,,,,60d467290ccaa83b5536f47d,62c53a8c54c23d5b03dab9d0,2022-07-06_09h33.54.316,Colour_Asymmetry_Pilot,2022.1.3,Win32,60.11783095,62c50e9c1127f2cd403a315f,0,118,118,65,1,onethree,,,,,,,,,,,,,,,,,,,,,,,,,,,,,,,,,,,,,,,,,,,,,,,,,,,,,,,,,,,,,,,,,,,,,,,,,,,,,,,,,,,,,,,,,,,,,,,,,,,,,,,,,,,,,,,,,,,,,,,,,,,,,,,,,,,,,,,,,,,,,,,,,,,,,,,,,,,,,
,,,,,,60d467290ccaa83b5536f47d,62c53a8c54c23d5b03dab9d0,2022-07-06_09h33.54.316,Colour_Asymmetry_Pilot,2022.1.3,Win32,60.11783095,62c50e9c1127f2cd403a315f,0,119,119,2,1,twoone,,,,,,,,,,,,,,,,,,,,,,,,,,,,,,,,,,,,,,,,,,,,,,,,,,,,,,,,,,,,,,,,,,,,,,,,,,,,,,,,,,,,,,,,,,,,,,,,,,,,,,,,,,,,,,,,,,,,,,,,,,,,,,,,,,,,,,,,,,,,,,,,,,,,,,,,,,,,,
,,,,,,60d467290ccaa83b5536f47d,62c53a8c54c23d5b03dab9d0,2022-07-06_09h33.54.316,Colour_Asymmetry_Pilot,2022.1.3,Win32,60.11783095,62c50e9c1127f2cd403a315f,0,120,120,21,1,threefour,,,,,,,,,,,,,,,,,,,,,,,,,,,,,,,,,,,,,,,,,,,,,,,,,,,,,,,,,,,,,,,,,,,,,,,,,,,,,,,,,,,,,,,,,,,,,,,,,,,,,,,,,,,,,,,,,,,,,,,,,,,,,,,,,,,,,,,,,,,,,,,,,,,,,,,,,,,,,
,,,,,,60d467290ccaa83b5536f47d,62c53a8c54c23d5b03dab9d0,2022-07-06_09h33.54.316,Colour_Asymmetry_Pilot,2022.1.3,Win32,60.11783095,62c50e9c1127f2cd403a315f,0,121,121,113,1,onethree,,,,,,,,,,,,,,,,,,,,,,,,,,,,,,,,,,,,,,,,,,,,,,,,,,,,,,,,,,,,,,,,,,,,,,,,,,,,,,,,,,,,,,,,,,,,,,,,,,,,,,,,,,,,,,,,,,,,,,,,,,,,,,,,,,,,,,,,,,,,,,,,,,,,,,,,,,,,,
,,,,,,60d467290ccaa83b5536f47d,62c53a8c54c23d5b03dab9d0,2022-07-06_09h33.54.316,Colour_Asymmetry_Pilot,2022.1.3,Win32,60.11783095,62c50e9c1127f2cd403a315f,0,122,122,137,1,onethree,,,,,,,,,,,,,,,,,,,,,,,,,,,,,,,,,,,,,,,,,,,,,,,,,,,,,,,,,,,,,,,,,,,,,,,,,,,,,,,,,,,,,,,,,,,,,,,,,,,,,,,,,,,,,,,,,,,,,,,,,,,,,,,,,,,,,,,,,,,,,,,,,,,,,,,,,,,,,
,,,,,,60d467290ccaa83b5536f47d,62c53a8c54c23d5b03dab9d0,2022-07-06_09h33.54.316,Colour_Asymmetry_Pilot,2022.1.3,Win32,60.11783095,62c50e9c1127f2cd403a315f,0,123,123,125,1,threefour,,,,,,,,,,,,,,,,,,,,,,,,,,,,,,,,,,,,,,,,,,,,,,,,,,,,,,,,,,,,,,,,,,,,,,,,,,,,,,,,,,,,,,,,,,,,,,,,,,,,,,,,,,,,,,,,,,,,,,,,,,,,,,,,,,,,,,,,,,,,,,,,,,,,,,,,,,,,,
,,,,,,60d467290ccaa83b5536f47d,62c53a8c54c23d5b03dab9d0,2022-07-06_09h33.54.316,Colour_Asymmetry_Pilot,2022.1.3,Win32,60.11783095,62c50e9c1127f2cd403a315f,0,124,124,101,1,threefour,,,,,,,,,,,,,,,,,,,,,,,,,,,,,,,,,,,,,,,,,,,,,,,,,,,,,,,,,,,,,,,,,,,,,,,,,,,,,,,,,,,,,,,,,,,,,,,,,,,,,,,,,,,,,,,,,,,,,,,,,,,,,,,,,,,,,,,,,,,,,,,,,,,,,,,,,,,,,
,,,,,,60d467290ccaa83b5536f47d,62c53a8c54c23d5b03dab9d0,2022-07-06_09h33.54.316,Colour_Asymmetry_Pilot,2022.1.3,Win32,60.11783095,62c50e9c1127f2cd403a315f,0,125,125,41,1,onethree,,,,,,,,,,,,,,,,,,,,,,,,,,,,,,,,,,,,,,,,,,,,,,,,,,,,,,,,,,,,,,,,,,,,,,,,,,,,,,,,,,,,,,,,,,,,,,,,,,,,,,,,,,,,,,,,,,,,,,,,,,,,,,,,,,,,,,,,,,,,,,,,,,,,,,,,,,,,,
,,,,,,60d467290ccaa83b5536f47d,62c53a8c54c23d5b03dab9d0,2022-07-06_09h33.54.316,Colour_Asymmetry_Pilot,2022.1.3,Win32,60.11783095,62c50e9c1127f2cd403a315f,0,126,126,17,1,onethree,,,,,,,,,,,,,,,,,,,,,,,,,,,,,,,,,,,,,,,,,,,,,,,,,,,,,,,,,,,,,,,,,,,,,,,,,,,,,,,,,,,,,,,,,,,,,,,,,,,,,,,,,,,,,,,,,,,,,,,,,,,,,,,,,,,,,,,,,,,,,,,,,,,,,,,,,,,,,
,,,,,,60d467290ccaa83b5536f47d,62c53a8c54c23d5b03dab9d0,2022-07-06_09h33.54.316,Colour_Asymmetry_Pilot,2022.1.3,Win32,60.11783095,62c50e9c1127f2cd403a315f,0,127,127,50,1,twoone,,,,,,,,,,,,,,,,,,,,,,,,,,,,,,,,,,,,,,,,,,,,,,,,,,,,,,,,,,,,,,,,,,,,,,,,,,,,,,,,,,,,,,,,,,,,,,,,,,,,,,,,,,,,,,,,,,,,,,,,,,,,,,,,,,,,,,,,,,,,,,,,,,,,,,,,,,,,,
,,,,,,60d467290ccaa83b5536f47d,62c53a8c54c23d5b03dab9d0,2022-07-06_09h33.54.316,Colour_Asymmetry_Pilot,2022.1.3,Win32,60.11783095,62c50e9c1127f2cd403a315f,0,128,128,27,1,twofour,,,,,,,,,,,,,,,,,,,,,,,,,,,,,,,,,,,,,,,,,,,,,,,,,,,,,,,,,,,,,,,,,,,,,,,,,,,,,,,,,,,,,,,,,,,,,,,,,,,,,,,,,,,,,,,,,,,,,,,,,,,,,,,,,,,,,,,,,,,,,,,,,,,,,,,,,,,,,
,,,,,,60d467290ccaa83b5536f47d,62c53a8c54c23d5b03dab9d0,2022-07-06_09h33.54.316,Colour_Asymmetry_Pilot,2022.1.3,Win32,60.11783095,62c50e9c1127f2cd403a315f,0,129,129,51,1,twofour,,,,,,,,,,,,,,,,,,,,,,,,,,,,,,,,,,,,,,,,,,,,,,,,,,,,,,,,,,,,,,,,,,,,,,,,,,,,,,,,,,,,,,,,,,,,,,,,,,,,,,,,,,,,,,,,,,,,,,,,,,,,,,,,,,,,,,,,,,,,,,,,,,,,,,,,,,,,,
,,,,,,60d467290ccaa83b5536f47d,62c53a8c54c23d5b03dab9d0,2022-07-06_09h33.54.316,Colour_Asymmetry_Pilot,2022.1.3,Win32,60.11783095,62c50e9c1127f2cd403a315f,0,130,130,110,1,fourtwo,,,,,,,,,,,,,,,,,,,,,,,,,,,,,,,,,,,,,,,,,,,,,,,,,,,,,,,,,,,,,,,,,,,,,,,,,,,,,,,,,,,,,,,,,,,,,,,,,,,,,,,,,,,,,,,,,,,,,,,,,,,,,,,,,,,,,,,,,,,,,,,,,,,,,,,,,,,,,
,,,,,,60d467290ccaa83b5536f47d,62c53a8c54c23d5b03dab9d0,2022-07-06_09h33.54.316,Colour_Asymmetry_Pilot,2022.1.3,Win32,60.11783095,62c50e9c1127f2cd403a315f,0,131,131,150,1,fourtwo,,,,,,,,,,,,,,,,,,,,,,,,,,,,,,,,,,,,,,,,,,,,,,,,,,,,,,,,,,,,,,,,,,,,,,,,,,,,,,,,,,,,,,,,,,,,,,,,,,,,,,,,,,,,,,,,,,,,,,,,,,,,,,,,,,,,,,,,,,,,,,,,,,,,,,,,,,,,,
,,,,,,60d467290ccaa83b5536f47d,62c53a8c54c23d5b03dab9d0,2022-07-06_09h33.54.316,Colour_Asymmetry_Pilot,2022.1.3,Win32,60.11783095,62c50e9c1127f2cd403a315f,0,132,132,18,1,twoone,,,,,,,,,,,,,,,,,,,,,,,,,,,,,,,,,,,,,,,,,,,,,,,,,,,,,,,,,,,,,,,,,,,,,,,,,,,,,,,,,,,,,,,,,,,,,,,,,,,,,,,,,,,,,,,,,,,,,,,,,,,,,,,,,,,,,,,,,,,,,,,,,,,,,,,,,,,,,
,,,,,,60d467290ccaa83b5536f47d,62c53a8c54c23d5b03dab9d0,2022-07-06_09h33.54.316,Colour_Asymmetry_Pilot,2022.1.3,Win32,60.11783095,62c50e9c1127f2cd403a315f,0,133,133,157,1,threefour,,,,,,,,,,,,,,,,,,,,,,,,,,,,,,,,,,,,,,,,,,,,,,,,,,,,,,,,,,,,,,,,,,,,,,,,,,,,,,,,,,,,,,,,,,,,,,,,,,,,,,,,,,,,,,,,,,,,,,,,,,,,,,,,,,,,,,,,,,,,,,,,,,,,,,,,,,,,,
,,,,,,60d467290ccaa83b5536f47d,62c53a8c54c23d5b03dab9d0,2022-07-06_09h33.54.316,Colour_Asymmetry_Pilot,2022.1.3,Win32,60.11783095,62c50e9c1127f2cd403a315f,0,134,134,128,1,onetwo,,,,,,,,,,,,,,,,,,,,,,,,,,,,,,,,,,,,,,,,,,,,,,,,,,,,,,,,,,,,,,,,,,,,,,,,,,,,,,,,,,,,,,,,,,,,,,,,,,,,,,,,,,,,,,,,,,,,,,,,,,,,,,,,,,,,,,,,,,,,,,,,,,,,,,,,,,,,,
,,,,,,60d467290ccaa83b5536f47d,62c53a8c54c23d5b03dab9d0,2022-07-06_09h33.54.316,Colour_Asymmetry_Pilot,2022.1.3,Win32,60.11783095,62c50e9c1127f2cd403a315f,0,135,135,120,1,onetwo,,,,,,,,,,,,,,,,,,,,,,,,,,,,,,,,,,,,,,,,,,,,,,,,,,,,,,,,,,,,,,,,,,,,,,,,,,,,,,,,,,,,,,,,,,,,,,,,,,,,,,,,,,,,,,,,,,,,,,,,,,,,,,,,,,,,,,,,,,,,,,,,,,,,,,,,,,,,,
,,,,,,60d467290ccaa83b5536f47d,62c53a8c54c23d5b03dab9d0,2022-07-06_09h33.54.316,Colour_Asymmetry_Pilot,2022.1.3,Win32,60.11783095,62c50e9c1127f2cd403a315f,0,136,136,92,1,threeone,,,,,,,,,,,,,,,,,,,,,,,,,,,,,,,,,,,,,,,,,,,,,,,,,,,,,,,,,,,,,,,,,,,,,,,,,,,,,,,,,,,,,,,,,,,,,,,,,,,,,,,,,,,,,,,,,,,,,,,,,,,,,,,,,,,,,,,,,,,,,,,,,,,,,,,,,,,,,
,,,,,,60d467290ccaa83b5536f47d,62c53a8c54c23d5b03dab9d0,2022-07-06_09h33.54.316,Colour_Asymmetry_Pilot,2022.1.3,Win32,60.11783095,62c50e9c1127f2cd403a315f,0,137,137,20,1,threeone,,,,,,,,,,,,,,,,,,,,,,,,,,,,,,,,,,,,,,,,,,,,,,,,,,,,,,,,,,,,,,,,,,,,,,,,,,,,,,,,,,,,,,,,,,,,,,,,,,,,,,,,,,,,,,,,,,,,,,,,,,,,,,,,,,,,,,,,,,,,,,,,,,,,,,,,,,,,,
,,,,,,60d467290ccaa83b5536f47d,62c53a8c54c23d5b03dab9d0,2022-07-06_09h33.54.316,Colour_Asymmetry_Pilot,2022.1.3,Win32,60.11783095,62c50e9c1127f2cd403a315f,0,138,138,85,1,threefour,,,,,,,,,,,,,,,,,,,,,,,,,,,,,,,,,,,,,,,,,,,,,,,,,,,,,,,,,,,,,,,,,,,,,,,,,,,,,,,,,,,,,,,,,,,,,,,,,,,,,,,,,,,,,,,,,,,,,,,,,,,,,,,,,,,,,,,,,,,,,,,,,,,,,,,,,,,,,
,,,,,,60d467290ccaa83b5536f47d,62c53a8c54c23d5b03dab9d0,2022-07-06_09h33.54.316,Colour_Asymmetry_Pilot,2022.1.3,Win32,60.11783095,62c50e9c1127f2cd403a315f,0,139,139,123,1,twofour,,,,,,,,,,,,,,,,,,,,,,,,,,,,,,,,,,,,,,,,,,,,,,,,,,,,,,,,,,,,,,,,,,,,,,,,,,,,,,,,,,,,,,,,,,,,,,,,,,,,,,,,,,,,,,,,,,,,,,,,,,,,,,,,,,,,,,,,,,,,,,,,,,,,,,,,,,,,,
,,,,,,60d467290ccaa83b5536f47d,62c53a8c54c23d5b03dab9d0,2022-07-06_09h33.54.316,Colour_Asymmetry_Pilot,2022.1.3,Win32,60.11783095,62c50e9c1127f2cd403a315f,0,140,140,127,1,fourthree,,,,,,,,,,,,,,,,,,,,,,,,,,,,,,,,,,,,,,,,,,,,,,,,,,,,,,,,,,,,,,,,,,,,,,,,,,,,,,,,,,,,,,,,,,,,,,,,,,,,,,,,,,,,,,,,,,,,,,,,,,,,,,,,,,,,,,,,,,,,,,,,,,,,,,,,,,,,,
,,,,,,60d467290ccaa83b5536f47d,62c53a8c54c23d5b03dab9d0,2022-07-06_09h33.54.316,Colour_Asymmetry_Pilot,2022.1.3,Win32,60.11783095,62c50e9c1127f2cd403a315f,0,141,141,93,1,threefour,,,,,,,,,,,,,,,,,,,,,,,,,,,,,,,,,,,,,,,,,,,,,,,,,,,,,,,,,,,,,,,,,,,,,,,,,,,,,,,,,,,,,,,,,,,,,,,,,,,,,,,,,,,,,,,,,,,,,,,,,,,,,,,,,,,,,,,,,,,,,,,,,,,,,,,,,,,,,
,,,,,,60d467290ccaa83b5536f47d,62c53a8c54c23d5b03dab9d0,2022-07-06_09h33.54.316,Colour_Asymmetry_Pilot,2022.1.3,Win32,60.11783095,62c50e9c1127f2cd403a315f,0,142,142,56,1,onetwo,,,,,,,,,,,,,,,,,,,,,,,,,,,,,,,,,,,,,,,,,,,,,,,,,,,,,,,,,,,,,,,,,,,,,,,,,,,,,,,,,,,,,,,,,,,,,,,,,,,,,,,,,,,,,,,,,,,,,,,,,,,,,,,,,,,,,,,,,,,,,,,,,,,,,,,,,,,,,
,,,,,,60d467290ccaa83b5536f47d,62c53a8c54c23d5b03dab9d0,2022-07-06_09h33.54.316,Colour_Asymmetry_Pilot,2022.1.3,Win32,60.11783095,62c50e9c1127f2cd403a315f,0,143,143,12,1,threeone,,,,,,,,,,,,,,,,,,,,,,,,,,,,,,,,,,,,,,,,,,,,,,,,,,,,,,,,,,,,,,,,,,,,,,,,,,,,,,,,,,,,,,,,,,,,,,,,,,,,,,,,,,,,,,,,,,,,,,,,,,,,,,,,,,,,,,,,,,,,,,,,,,,,,,,,,,,,,
,,,,,,60d467290ccaa83b5536f47d,62c53a8c54c23d5b03dab9d0,2022-07-06_09h33.54.316,Colour_Asymmetry_Pilot,2022.1.3,Win32,60.11783095,62c50e9c1127f2cd403a315f,0,144,144,89,1,onethree,,,,,,,,,,,,,,,,,,,,,,,,,,,,,,,,,,,,,,,,,,,,,,,,,,,,,,,,,,,,,,,,,,,,,,,,,,,,,,,,,,,,,,,,,,,,,,,,,,,,,,,,,,,,,,,,,,,,,,,,,,,,,,,,,,,,,,,,,,,,,,,,,,,,,,,,,,,,,
,,,,,,60d467290ccaa83b5536f47d,62c53a8c54c23d5b03dab9d0,2022-07-06_09h33.54.316,Colour_Asymmetry_Pilot,2022.1.3,Win32,60.11783095,62c50e9c1127f2cd403a315f,0,145,145,115,1,twofour,,,,,,,,,,,,,,,,,,,,,,,,,,,,,,,,,,,,,,,,,,,,,,,,,,,,,,,,,,,,,,,,,,,,,,,,,,,,,,,,,,,,,,,,,,,,,,,,,,,,,,,,,,,,,,,,,,,,,,,,,,,,,,,,,,,,,,,,,,,,,,,,,,,,,,,,,,,,,
,,,,,,60d467290ccaa83b5536f47d,62c53a8c54c23d5b03dab9d0,2022-07-06_09h33.54.316,Colour_Asymmetry_Pilot,2022.1.3,Win32,60.11783095,62c50e9c1127f2cd403a315f,0,146,146,40,1,onetwo,,,,,,,,,,,,,,,,,,,,,,,,,,,,,,,,,,,,,,,,,,,,,,,,,,,,,,,,,,,,,,,,,,,,,,,,,,,,,,,,,,,,,,,,,,,,,,,,,,,,,,,,,,,,,,,,,,,,,,,,,,,,,,,,,,,,,,,,,,,,,,,,,,,,,,,,,,,,,
,,,,,,60d467290ccaa83b5536f47d,62c53a8c54c23d5b03dab9d0,2022-07-06_09h33.54.316,Colour_Asymmetry_Pilot,2022.1.3,Win32,60.11783095,62c50e9c1127f2cd403a315f,0,147,147,134,1,fourtwo,,,,,,,,,,,,,,,,,,,,,,,,,,,,,,,,,,,,,,,,,,,,,,,,,,,,,,,,,,,,,,,,,,,,,,,,,,,,,,,,,,,,,,,,,,,,,,,,,,,,,,,,,,,,,,,,,,,,,,,,,,,,,,,,,,,,,,,,,,,,,,,,,,,,,,,,,,,,,
,,,,,,60d467290ccaa83b5536f47d,62c53a8c54c23d5b03dab9d0,2022-07-06_09h33.54.316,Colour_Asymmetry_Pilot,2022.1.3,Win32,60.11783095,62c50e9c1127f2cd403a315f,0,148,148,70,1,fourtwo,,,,,,,,,,,,,,,,,,,,,,,,,,,,,,,,,,,,,,,,,,,,,,,,,,,,,,,,,,,,,,,,,,,,,,,,,,,,,,,,,,,,,,,,,,,,,,,,,,,,,,,,,,,,,,,,,,,,,,,,,,,,,,,,,,,,,,,,,,,,,,,,,,,,,,,,,,,,,
,,,,,,60d467290ccaa83b5536f47d,62c53a8c54c23d5b03dab9d0,2022-07-06_09h33.54.316,Colour_Asymmetry_Pilot,2022.1.3,Win32,60.11783095,62c50e9c1127f2cd403a315f,0,149,149,8,1,onetwo,,,,,,,,,,,,,,,,,,,,,,,,,,,,,,,,,,,,,,,,,,,,,,,,,,,,,,,,,,,,,,,,,,,,,,,,,,,,,,,,,,,,,,,,,,,,,,,,,,,,,,,,,,,,,,,,,,,,,,,,,,,,,,,,,,,,,,,,,,,,,,,,,,,,,,,,,,,,,
,,,,,,60d467290ccaa83b5536f47d,62c53a8c54c23d5b03dab9d0,2022-07-06_09h33.54.316,Colour_Asymmetry_Pilot,2022.1.3,Win32,60.11783095,62c50e9c1127f2cd403a315f,0,150,150,144,1,onetwo,,,,,,,,,,,,,,,,,,,,,,,,,,,,,,,,,,,,,,,,,,,,,,,,,,,,,,,,,,,,,,,,,,,,,,,,,,,,,,,,,,,,,,,,,,,,,,,,,,,,,,,,,,,,,,,,,,,,,,,,,,,,,,,,,,,,,,,,,,,,,,,,,,,,,,,,,,,,,
,,,,,,60d467290ccaa83b5536f47d,62c53a8c54c23d5b03dab9d0,2022-07-06_09h33.54.316,Colour_Asymmetry_Pilot,2022.1.3,Win32,60.11783095,62c50e9c1127f2cd403a315f,0,151,151,149,1,threefour,,,,,,,,,,,,,,,,,,,,,,,,,,,,,,,,,,,,,,,,,,,,,,,,,,,,,,,,,,,,,,,,,,,,,,,,,,,,,,,,,,,,,,,,,,,,,,,,,,,,,,,,,,,,,,,,,,,,,,,,,,,,,,,,,,,,,,,,,,,,,,,,,,,,,,,,,,,,,
,,,,,,60d467290ccaa83b5536f47d,62c53a8c54c23d5b03dab9d0,2022-07-06_09h33.54.316,Colour_Asymmetry_Pilot,2022.1.3,Win32,60.11783095,62c50e9c1127f2cd403a315f,0,152,152,19,1,twofour,,,,,,,,,,,,,,,,,,,,,,,,,,,,,,,,,,,,,,,,,,,,,,,,,,,,,,,,,,,,,,,,,,,,,,,,,,,,,,,,,,,,,,,,,,,,,,,,,,,,,,,,,,,,,,,,,,,,,,,,,,,,,,,,,,,,,,,,,,,,,,,,,,,,,,,,,,,,,
,,,,,,60d467290ccaa83b5536f47d,62c53a8c54c23d5b03dab9d0,2022-07-06_09h33.54.316,Colour_Asymmetry_Pilot,2022.1.3,Win32,60.11783095,62c50e9c1127f2cd403a315f,0,153,153,58,1,twoone,,,,,,,,,,,,,,,,,,,,,,,,,,,,,,,,,,,,,,,,,,,,,,,,,,,,,,,,,,,,,,,,,,,,,,,,,,,,,,,,,,,,,,,,,,,,,,,,,,,,,,,,,,,,,,,,,,,,,,,,,,,,,,,,,,,,,,,,,,,,,,,,,,,,,,,,,,,,,
,,,,,,60d467290ccaa83b5536f47d,62c53a8c54c23d5b03dab9d0,2022-07-06_09h33.54.316,Colour_Asymmetry_Pilot,2022.1.3,Win32,60.11783095,62c50e9c1127f2cd403a315f,0,154,154,117,1,threefour,,,,,,,,,,,,,,,,,,,,,,,,,,,,,,,,,,,,,,,,,,,,,,,,,,,,,,,,,,,,,,,,,,,,,,,,,,,,,,,,,,,,,,,,,,,,,,,,,,,,,,,,,,,,,,,,,,,,,,,,,,,,,,,,,,,,,,,,,,,,,,,,,,,,,,,,,,,,,
,,,,,,60d467290ccaa83b5536f47d,62c53a8c54c23d5b03dab9d0,2022-07-06_09h33.54.316,Colour_Asymmetry_Pilot,2022.1.3,Win32,60.11783095,62c50e9c1127f2cd403a315f,0,155,155,80,1,onetwo,,,,,,,,,,,,,,,,,,,,,,,,,,,,,,,,,,,,,,,,,,,,,,,,,,,,,,,,,,,,,,,,,,,,,,,,,,,,,,,,,,,,,,,,,,,,,,,,,,,,,,,,,,,,,,,,,,,,,,,,,,,,,,,,,,,,,,,,,,,,,,,,,,,,,,,,,,,,,
,,,,,,60d467290ccaa83b5536f47d,62c53a8c54c23d5b03dab9d0,2022-07-06_09h33.54.316,Colour_Asymmetry_Pilot,2022.1.3,Win32,60.11783095,62c50e9c1127f2cd403a315f,0,156,156,11,1,twofour,,,,,,,,,,,,,,,,,,,,,,,,,,,,,,,,,,,,,,,,,,,,,,,,,,,,,,,,,,,,,,,,,,,,,,,,,,,,,,,,,,,,,,,,,,,,,,,,,,,,,,,,,,,,,,,,,,,,,,,,,,,,,,,,,,,,,,,,,,,,,,,,,,,,,,,,,,,,,
,,,,,,60d467290ccaa83b5536f47d,62c53a8c54c23d5b03dab9d0,2022-07-06_09h33.54.316,Colour_Asymmetry_Pilot,2022.1.3,Win32,60.11783095,62c50e9c1127f2cd403a315f,0,157,157,109,1,threefour,,,,,,,,,,,,,,,,,,,,,,,,,,,,,,,,,,,,,,,,,,,,,,,,,,,,,,,,,,,,,,,,,,,,,,,,,,,,,,,,,,,,,,,,,,,,,,,,,,,,,,,,,,,,,,,,,,,,,,,,,,,,,,,,,,,,,,,,,,,,,,,,,,,,,,,,,,,,,
,,,,,,60d467290ccaa83b5536f47d,62c53a8c54c23d5b03dab9d0,2022-07-06_09h33.54.316,Colour_Asymmetry_Pilot,2022.1.3,Win32,60.11783095,62c50e9c1127f2cd403a315f,0,158,158,43,1,twofour,,,,,,,,,,,,,,,,,,,,,,,,,,,,,,,,,,,,,,,,,,,,,,,,,,,,,,,,,,,,,,,,,,,,,,,,,,,,,,,,,,,,,,,,,,,,,,,,,,,,,,,,,,,,,,,,,,,,,,,,,,,,,,,,,,,,,,,,,,,,,,,,,,,,,,,,,,,,,
,,,,,,60d467290ccaa83b5536f47d,62c53a8c54c23d5b03dab9d0,2022-07-06_09h33.54.316,Colour_Asymmetry_Pilot,2022.1.3,Win32,60.11783095,62c50e9c1127f2cd403a315f,0,159,159,147,1,twofour,,,,,,,,,,,,,,,,,,,,,,,,,,,,,,,,,,,,,,,,,,,,,,,,,,,,,,,,,,,,,,,,,,,,,,,,,,,,,,,,,,,,,,,,,,,,,,,,,,,,,,,,,,,,,,,,,,,,,,,,,,,,,,,,,,,,,,,,,,,,,,,,,,,,,,,,,,,,,
,,,,,,60d467290ccaa83b5536f47d,62c53a8c54c23d5b03dab9d0,2022-07-06_09h33.54.316,Colour_Asymmetry_Pilot,2022.1.3,Win32,60.11783095,62c50e9c1127f2cd403a315f,0,160,160,61,1,threefour,,,,,,,,,,,,,,,,,,,,,,,,,,,,,,,,,,,,,,,,,,,,,,,,,,,,,,,,,,,,,,,,,,,,,,,,,,,,,,,,,,,,,,,,,,,,,,,,,,,,,,,,,,,,,,,,,,,,,,,,,,,,,,,,,,,,,,,,,,,,,,,,,,,,,,,,,,,,,
,,,,,,60d467290ccaa83b5536f47d,62c53a8c54c23d5b03dab9d0,2022-07-06_09h33.54.316,Colour_Asymmetry_Pilot,2022.1.3,Win32,60.11783095,62c50e9c1127f2cd403a315f,0,161,161,45,1,threefour,,,,,,,,,,,,,,,,,,,,,,,,,,,,,,,,,,,,,,,,,,,,,,,,,,,,,,,,,,,,,,,,,,,,,,,,,,,,,,,,,,,,,,,,,,,,,,,,,,,,,,,,,,,,,,,,,,,,,,,,,,,,,,,,,,,,,,,,,,,,,,,,,,,,,,,,,,,,,
,,,,,,60d467290ccaa83b5536f47d,62c53a8c54c23d5b03dab9d0,2022-07-06_09h33.54.316,Colour_Asymmetry_Pilot,2022.1.3,Win32,60.11783095,62c50e9c1127f2cd403a315f,,,,,,,space,32.6623,space,51.8612,space,16.1062,space,49.4756,space,6.9468,space,9.14,"[-0.48240000000000005,0.3175999999999999,0.2156]",twoone,"[0.2862,0.7802,0.3568]",-4,14.5169,-50.39996338,104.7999878,1,0,0,response7disk_5,4.799987793,-10.3999939,1,0,0,rectangle_8,4.799987793,-10.3999939,1,0,0,2,4.799987793,-10.3999939,1,0,0,0,0,0,0,1,,,,,,,,,,,,,,,,,,,,,,,,,,,,,,,,,,,,,,,,,,,,,,,,,,,,,,,,,,,,,,,,,,,,,,,,,,,,,,,,,,,,,,,,,,,,,,,,,,,,,,,,,,,,,,,,
,,,,,,60d467290ccaa83b5536f47d,62c53a8c54c23d5b03dab9d0,2022-07-06_09h33.54.316,Colour_Asymmetry_Pilot,2022.1.3,Win32,60.11783095,62c50e9c1127f2cd403a315f,,,,,,,,,,,,,,,,,,,"[0.7802,-0.23140000000000005,-0.20799999999999996]",fourthree,"[0.5528,0.7409999999999999,-0.71]",-4,0.9666,-51.20001221,105.6000061,1,0,0,response7disk_5,-6.399963379,-2.399993896,1,0,0,rectangle_8,-6.399963379,-2.399993896,1,0,0,2,-6.399963379,-2.399993896,1,0,0,1,0,1,0,1,,,,,,,,,,,,,,,,,,,,,,,,,,,,,,,,,,,,,,,,,,,,,,,,,,,,,,,,,,,,,,,,,,,,,,,,,,,,,,,,,,,,,,,,,,,,,,,,,,,,,,,,,,,,,,,,
,,,,,,60d467290ccaa83b5536f47d,62c53a8c54c23d5b03dab9d0,2022-07-06_09h33.54.316,Colour_Asymmetry_Pilot,2022.1.3,Win32,60.11783095,62c50e9c1127f2cd403a315f,,,,,,,,,,,,,,,,,,,"[0.7176,-0.906,-0.6864]",threeone,"[0.7646000000000002,0.07440000000000002,0.2704]",-3,1.1334,-78.39996338,40.79998779,1,0,0,response7disk_5,-12.79998779,-0.800018311,1,0,0,rectangle_8,110.4000244,-51.20001221,1,0,0,2,-9.599975586,-4,1,0,0,2,0,2,0,1,response3disk_7,5,rectangle_4,,,,,,,,,,,,,,,,,,,,,,,,,,,,,,,,,,,,,,,,,,,,,,,,,,,,,,,,,,,,,,,,,,,,,,,,,,,,,,,,,,,,,,,,,,,,,,,,,,,,,,,,,,,,,
,,,,,,60d467290ccaa83b5536f47d,62c53a8c54c23d5b03dab9d0,2022-07-06_09h33.54.316,Colour_Asymmetry_Pilot,2022.1.3,Win32,60.11783095,62c50e9c1127f2cd403a315f,,,,,,,,,,,,,,,,,,,"[0.19199999999999995,0.18419999999999992,0.5136000000000001]",threeone,"[0.11359999999999992,0.6312,0.5213999999999999]",-2,1.5661,-84,-44.80001831,1,0,0,response5disk_5,-0.799987793,0,1,0,0,rectangle_8,-0.799987793,0,1,0,0,2,-0.799987793,0,1,0,0,3,0,3,0,1,,,,,,,,,,,,,,,,,,,,,,,,,,,,,,,,,,,,,,,,,,,,,,,,,,,,,,,,,,,,,,,,,,,,,,,,,,,,,,,,,,,,,,,,,,,,,,,,,,,,,,,,,,,,,,,,
,,,,,,60d467290ccaa83b5536f47d,62c53a8c54c23d5b03dab9d0,2022-07-06_09h33.54.316,Colour_Asymmetry_Pilot,2022.1.3,Win32,60.11783095,62c50e9c1127f2cd403a315f,,,,,,,,,,,,,,,,,,,"[0.9372,0.9450000000000001,0.8980000000000001]",fourtwo,"[-0.01980000000000004,-0.5138,-0.38039999999999996]",-4,1.3886,-62.39996338,102.3999939,1,0,0,response7disk_5,-17.59997559,3.199981689,1,0,0,rectangle_8,-17.59997559,3.199981689,1,0,0,2,-17.59997559,3.199981689,1,0,0,4,0,4,0,1,,,,,,,,,,,,,,,,,,,,,,,,,,,,,,,,,,,,,,,,,,,,,,,,,,,,,,,,,,,,,,,,,,,,,,,,,,,,,,,,,,,,,,,,,,,,,,,,,,,,,,,,,,,,,,,,
,,,,,,60d467290ccaa83b5536f47d,62c53a8c54c23d5b03dab9d0,2022-07-06_09h33.54.316,Colour_Asymmetry_Pilot,2022.1.3,Win32,60.11783095,62c50e9c1127f2cd403a315f,,,,,,,,,,,,,,,,,,,"[-0.06680000000000008,-0.45100000000000007,-0.906]",fourthree,"[-0.4276,0.0038000000000000256,-0.3256]",-4,1.3489,-33.59997559,72,1,0,0,response7disk_5,-7.200012207,-0.800018311,1,0,0,rectangle_8,74.40002441,-35.20001221,1,0,0,2,-4.799987793,11.19998169,1,0,0,5,0,5,0,1,response3disk_7,5,rectangle_4,,,,,,,,,,,,,,,,,,,,,,,,,,,,,,,,,,,,,,,,,,,,,,,,,,,,,,,,,,,,,,,,,,,,,,,,,,,,,,,,,,,,,,,,,,,,,,,,,,,,,,,,,,,,,
,,,,,,60d467290ccaa83b5536f47d,62c53a8c54c23d5b03dab9d0,2022-07-06_09h33.54.316,Colour_Asymmetry_Pilot,2022.1.3,Win32,60.11783095,62c50e9c1127f2cd403a315f,,,,,,,,,,,,,,,,,,,"[-0.6706000000000001,-0.6157999999999999,-0.6786]",twoone,"[0.22340000000000004,-0.9296,-0.7884]",-4,1.0829,-35.20001221,82.3999939,1,0,0,response7disk_5,-22.39996338,-4.800018311,1,0,0,rectangle_8,-22.39996338,-4.800018311,1,0,0,2,-22.39996338,-4.800018311,1,0,0,6,0,6,0,1,,,,,,,,,,,,,,,,,,,,,,,,,,,,,,,,,,,,,,,,,,,,,,,,,,,,,,,,,,,,,,,,,,,,,,,,,,,,,,,,,,,,,,,,,,,,,,,,,,,,,,,,,,,,,,,,
,,,,,,60d467290ccaa83b5536f47d,62c53a8c54c23d5b03dab9d0,2022-07-06_09h33.54.316,Colour_Asymmetry_Pilot,2022.1.3,Win32,60.11783095,62c50e9c1127f2cd403a315f,,,,,,,,,,,,,,,,,,,,onethree,,-1,4.7196,,,,,,,,,,,,,,,,,,,,,,,,,,,,,,,,space,5.3996,"[1,0.12939999999999996,-1]","[0.8274000000000001,-0.5844,-0.9452]",-67.20001221,-102.4000244,1,0,0,response5disk,-11.20001221,1.600006104,1,0,0,rectangle,-11.20001221,1.600006104,1,0,0,,2,0.0036,0,-11.20001221,1.600006104,1,0,0,0,0,0,44,1,44,first,,,,,,,,,,,,,,,,,,,,,,,,,,,,,,,,,,,,,,,,,,,,,,,,,,,,,,,,,,,,,,,,,,,,,,,,
,,,,,,60d467290ccaa83b5536f47d,62c53a8c54c23d5b03dab9d0,2022-07-06_09h33.54.316,Colour_Asymmetry_Pilot,2022.1.3,Win32,60.11783095,62c50e9c1127f2cd403a315f,,,,,,,,,,,,,,,,,,,,fourthree,,-4,1.1326,,,,,,,,,,,,,,,,,,,,,,,,,,,,,,,,,,"[-0.4668,-0.8746,-0.2942]","[0.23120000000000007,-0.7726,-0.34120000000000006]",-71.20001221,91.19998169,1,0,0,response7disk,0.799987793,9.600006104,1,0,0,rectangle,0.799987793,9.600006104,1,0,0,,3,0.002,0,0.799987793,9.600006104,1,0,0,0,1,1,47,1,47,first,,,,,,,,,,,,,,,,,,,,,,,,,,,,,,,,,,,,,,,,,,,,,,,,,,,,,,,,,,,,,,,,,,,,,,,,
,,,,,,60d467290ccaa83b5536f47d,62c53a8c54c23d5b03dab9d0,2022-07-06_09h33.54.316,Colour_Asymmetry_Pilot,2022.1.3,Win32,60.11783095,62c50e9c1127f2cd403a315f,,,,,,,,,,,,,,,,,,,,twoone,,-1,1.4163,,,,,,,,,,,,,,,,,,,,,,,,,,,,,,,,,,"[0.18419999999999992,-0.4276,-0.404]","[0.7018,0.7802,-0.16079999999999994]",-52,-126.4000244,1,0,0,response5disk,-16,4,1,0,0,rectangle,-16,4,1,0,0,,1,0.0027,0,-16,4,1,0,0,0,2,2,132,1,51,second,,,,,,,,,,,,,,,,,,,,,,,,,,,,,,,,,,,,,,,,,,,,,,,,,,,,,,,,,,,,,,,,,,,,,,,,
,,,,,,60d467290ccaa83b5536f47d,62c53a8c54c23d5b03dab9d0,2022-07-06_09h33.54.316,Colour_Asymmetry_Pilot,2022.1.3,Win32,60.11783095,62c50e9c1127f2cd403a315f,,,,,,,,,,,,,,,,,,,,fourthree,,-4,0.4175,,,,,,,,,,,,,,,,,,,,,,,,,,,,,,,,,,"[-0.6235999999999999,-0.6786,-0.08239999999999992]","[0.9372,0.20779999999999998,0.2704]",-48,93.6000061,1,0,0,response7disk,-17.59997559,-5.600006104,1,0,0,rectangle,-17.59997559,-5.600006104,1,0,0,,1,0.0002,0,-17.59997559,-5.600006104,1,0,0,0,3,3,2,1,2,first,,,,,,,,,,,,,,,,,,,,,,,,,,,,,,,,,,,,,,,,,,,,,,,,,,,,,,,,,,,,,,,,,,,,,,,,
,,,,,,60d467290ccaa83b5536f47d,62c53a8c54c23d5b03dab9d0,2022-07-06_09h33.54.316,Colour_Asymmetry_Pilot,2022.1.3,Win32,60.11783095,62c50e9c1127f2cd403a315f,,,,,,,,,,,,,,,,,,,,fourtwo,,-1,1.6662,,,,,,,,,,,,,,,,,,,,,,,,,,,,,,,,,,"[0.37240000000000006,-0.050999999999999934,-0.5216]","[-0.06680000000000008,-0.45100000000000007,-0.906]",-56.79998779,-95.20001221,1,0,0,response5disk,-20,4,1,0,0,rectangle,-20,4,1,0,0,,3,0.0021,0,-20,4,1,0,0,0,4,4,75,1,75,first,,,,,,,,,,,,,,,,,,,,,,,,,,,,,,,,,,,,,,,,,,,,,,,,,,,,,,,,,,,,,,,,,,,,,,,,
,,,,,,60d467290ccaa83b5536f47d,62c53a8c54c23d5b03dab9d0,2022-07-06_09h33.54.316,Colour_Asymmetry_Pilot,2022.1.3,Win32,60.11783095,62c50e9c1127f2cd403a315f,,,,,,,,,,,,,,,,,,,,fourthree,,-4,0.7325,,,,,,,,,,,,,,,,,,,,,,,,,,,,,,,,,,"[0.09799999999999986,-0.24719999999999998,0.15280000000000005]","[-0.9138,-0.5296000000000001,-0.5529999999999999]",-43.20001221,97.6000061,1,0,0,response7disk,-6.399963379,-1.600006104,1,0,0,rectangle,-6.399963379,-1.600006104,1,0,0,,3,0.0008,0,-6.399963379,-1.600006104,1,0,0,0,5,5,134,1,53,second,,,,,,,,,,,,,,,,,,,,,,,,,,,,,,,,,,,,,,,,,,,,,,,,,,,,,,,,,,,,,,,,,,,,,,,,
,,,,,,60d467290ccaa83b5536f47d,62c53a8c54c23d5b03dab9d0,2022-07-06_09h33.54.316,Colour_Asymmetry_Pilot,2022.1.3,Win32,60.11783095,62c50e9c1127f2cd403a315f,,,,,,,,,,,,,,,,,,,,threeone,,-4,0.8495,,,,,,,,,,,,,,,,,,,,,,,,,,,,,,,,,,"[-0.6235999999999999,-0.6786,-0.08239999999999992]","[0.5449999999999999,-0.31000000000000005,-0.0354000000000001]",-62.39996338,120.7999878,1,0,0,response7disk,-8,7.199981689,1,0,0,rectangle,-8,7.199981689,1,0,0,,1,0.0023,0,-8,7.199981689,1,0,0,0,6,6,89,1,8,second,,,,,,,,,,,,,,,,,,,,,,,,,,,,,,,,,,,,,,,,,,,,,,,,,,,,,,,,,,,,,,,,,,,,,,,,
,,,,,,60d467290ccaa83b5536f47d,62c53a8c54c23d5b03dab9d0,2022-07-06_09h33.54.316,Colour_Asymmetry_Pilot,2022.1.3,Win32,60.11783095,62c50e9c1127f2cd403a315f,,,,,,,,,,,,,,,,,,,,threeone,,-4,0.3663,,,,,,,,,,,,,,,,,,,,,,,,,,,,,,,,,,"[0.5449999999999999,-0.31000000000000005,-0.0354000000000001]","[-0.6235999999999999,-0.6786,-0.08239999999999992]",-54.39996338,102.3999939,1,0,0,response7disk,-3.200012207,-1.600006104,1,0,0,rectangle,-3.200012207,-1.600006104,1,0,0,,1,0.0003,0,-3.200012207,-1.600006104,1,0,0,0,7,7,8,1,8,first,,,,,,,,,,,,,,,,,,,,,,,,,,,,,,,,,,,,,,,,,,,,,,,,,,,,,,,,,,,,,,,,,,,,,,,,
,,,,,,60d467290ccaa83b5536f47d,62c53a8c54c23d5b03dab9d0,2022-07-06_09h33.54.316,Colour_Asymmetry_Pilot,2022.1.3,Win32,60.11783095,62c50e9c1127f2cd403a315f,,,,,,,,,,,,,,,,,,,,onetwo,,-4,0.5999,,,,,,,,,,,,,,,,,,,,,,,,,,,,,,,,,,"[0.9372,0.20779999999999998,0.2704]","[-0.6235999999999999,-0.6786,-0.08239999999999992]",-37.59997559,84,1,0,0,response7disk,2.400024414,0,1,0,0,rectangle,2.400024414,0,1,0,0,,3,0.0025,0,2.400024414,0,1,0,0,0,8,8,83,1,2,second,,,,,,,,,,,,,,,,,,,,,,,,,,,,,,,,,,,,,,,,,,,,,,,,,,,,,,,,,,,,,,,,,,,,,,,,
,,,,,,60d467290ccaa83b5536f47d,62c53a8c54c23d5b03dab9d0,2022-07-06_09h33.54.316,Colour_Asymmetry_Pilot,2022.1.3,Win32,60.11783095,62c50e9c1127f2cd403a315f,,,,,,,,,,,,,,,,,,,,threeone,,-1,1.15,,,,,,,,,,,,,,,,,,,,,,,,,,,,,,,,,,"[0.3568,-0.20799999999999996,-0.9844]","[-0.2942,-0.7648,-0.7492000000000001]",-57.59997559,-92,1,0,0,response5disk,-17.59997559,-6.399993896,1,0,0,rectangle,-17.59997559,-6.399993896,1,0,0,,3,0.0003,0,-17.59997559,-6.399993896,1,0,0,0,9,9,21,1,21,first,,,,,,,,,,,,,,,,,,,,,,,,,,,,,,,,,,,,,,,,,,,,,,,,,,,,,,,,,,,,,,,,,,,,,,,,
,,,,,,60d467290ccaa83b5536f47d,62c53a8c54c23d5b03dab9d0,2022-07-06_09h33.54.316,Colour_Asymmetry_Pilot,2022.1.3,Win32,60.11783095,62c50e9c1127f2cd403a315f,,,,,,,,,,,,,,,,,,,,fourtwo,,-2,2.5654,,,,,,,,,,,,,,,,,,,,,,,,,,,,,,,,,,"[-0.9138,-0.5296000000000001,-0.5529999999999999]","[0.19199999999999995,0.18419999999999992,0.5136000000000001]",-104,-48.80001831,1,0,0,response5disk,-21.59997559,0.799987793,1,0,0,rectangle,-21.59997559,0.799987793,1,0,0,,2,0.0017,0,-21.59997559,0.799987793,1,0,0,0,10,10,106,1,25,second,,,,,,,,,,,,,,,,,,,,,,,,,,,,,,,,,,,,,,,,,,,,,,,,,,,,,,,,,,,,,,,,,,,,,,,,
,,,,,,60d467290ccaa83b5536f47d,62c53a8c54c23d5b03dab9d0,2022-07-06_09h33.54.316,Colour_Asymmetry_Pilot,2022.1.3,Win32,60.11783095,62c50e9c1127f2cd403a315f,,,,,,,,,,,,,,,,,,,,twoone,,-1,1.166,,,,,,,,,,,,,,,,,,,,,,,,,,,,,,,,,,"[0.04299999999999993,0.16060000000000008,-0.6628000000000001]","[-0.9296,-0.12959999999999994,-0.043199999999999905]",-40,-96,1,0,0,response5disk,-18.39996338,-4.800018311,1,0,0,rectangle,-18.39996338,-4.800018311,1,0,0,,2,0.0004,0,-18.39996338,-4.800018311,1,0,0,0,11,11,71,1,71,first,,,,,,,,,,,,,,,,,,,,,,,,,,,,,,,,,,,,,,,,,,,,,,,,,,,,,,,,,,,,,,,,,,,,,,,,
,,,,,,60d467290ccaa83b5536f47d,62c53a8c54c23d5b03dab9d0,2022-07-06_09h33.54.316,Colour_Asymmetry_Pilot,2022.1.3,Win32,60.11783095,62c50e9c1127f2cd403a315f,,,,,,,,,,,,,,,,,,,,onethree,,-1,1.1671,,,,,,,,,,,,,,,,,,,,,,,,,,,,,,,,,,"[-0.10599999999999998,-0.10599999999999998,0.5841999999999998]","[-0.4668,-0.8746,-0.2942]",-53.59997559,-65.6000061,1,0,0,response5disk,-26.39996338,-1.600006104,1,0,0,rectangle,-26.39996338,-1.600006104,1,0,0,,1,0.0021,0,-26.39996338,-1.600006104,1,0,0,0,12,12,88,1,7,second,,,,,,,,,,,,,,,,,,,,,,,,,,,,,,,,,,,,,,,,,,,,,,,,,,,,,,,,,,,,,,,,,,,,,,,,
,,,,,,60d467290ccaa83b5536f47d,62c53a8c54c23d5b03dab9d0,2022-07-06_09h33.54.316,Colour_Asymmetry_Pilot,2022.1.3,Win32,60.11783095,62c50e9c1127f2cd403a315f,,,,,,,,,,,,,,,,,,,,twoone,,-4,0.6106,,,,,,,,,,,,,,,,,,,,,,,,,,,,,,,,,,"[0.796,0.2156,-0.27859999999999996]","[-0.9766,-0.34920000000000007,0.2156]",-32.79998779,116,1,0,0,response7disk,-7.200012207,0.799987793,1,0,0,rectangle,-7.200012207,0.799987793,1,0,0,,2,0.0012,0,-7.200012207,0.799987793,1,0,0,0,13,13,13,1,13,first,,,,,,,,,,,,,,,,,,,,,,,,,,,,,,,,,,,,,,,,,,,,,,,,,,,,,,,,,,,,,,,,,,,,,,,,
,,,,,,60d467290ccaa83b5536f47d,62c53a8c54c23d5b03dab9d0,2022-07-06_09h33.54.316,Colour_Asymmetry_Pilot,2022.1.3,Win32,60.11783095,62c50e9c1127f2cd403a315f,,,,,,,,,,,,,,,,,,,,fourtwo,,-3,1.8488,,,,,,,,,,,,,,,,,,,,,,,,,,,,,,,,,,"[-0.8118,-0.8198,-0.5452]","[0.18419999999999992,-0.4276,-0.404]",-94.39996338,51.19998169,1,0,0,response7disk,-18.39996338,-11.20001221,1,0,0,rectangle,-18.39996338,-11.20001221,1,0,0,,2,0.0002,0,-18.39996338,-11.20001221,1,0,0,0,14,14,114,1,33,second,,,,,,,,,,,,,,,,,,,,,,,,,,,,,,,,,,,,,,,,,,,,,,,,,,,,,,,,,,,,,,,,,,,,,,,,
