trials.thisRepN,trials.thisTrialN,trials.thisN,trials.thisIndex,trials.ran,Colourcodes,participant,session,date,expName,psychopyVersion,OS,frameRate,study_id,trials_4.thisRepN,trials_4.thisTrialN,trials_4.thisN,trials_4.thisIndex,trials_4.ran,StimulusPos,key_resp.keys,key_resp.rt,key_resp_2.keys,key_resp_2.rt,key_resp_15.keys,key_resp_15.rt,key_resp_17.keys,key_resp_17.rt,key_resp_9.keys,key_resp_9.rt,key_resp_10.keys,key_resp_10.rt,Circle1_col,Ecc,Circle2_col,similarity,response_time,mouse_5.x,mouse_5.y,mouse_5.leftButton,mouse_5.midButton,mouse_5.rightButton,mouse_5.clicked_name,mouse_10.x,mouse_10.y,mouse_10.leftButton,mouse_10.midButton,mouse_10.rightButton,mouse_10.clicked_name,mouse_7.x,mouse_7.y,mouse_7.leftButton,mouse_7.midButton,mouse_7.rightButton,catchnumberprac,mouse_6.x,mouse_6.y,mouse_6.leftButton,mouse_6.midButton,mouse_6.rightButton,duringprac.thisRepN,duringprac.thisTrialN,duringprac.thisN,duringprac.thisIndex,duringprac.ran,mouse_7.clicked_name,catchprac,mouse_6.clicked_name,key_resp_22.keys,key_resp_22.rt,Circle1_colour,Circle2_colour,mouse.x,mouse.y,mouse.leftButton,mouse.midButton,mouse.rightButton,mouse.clicked_name,mouse_2.x,mouse_2.y,mouse_2.leftButton,mouse_2.midButton,mouse_2.rightButton,mouse_2.clicked_name,mouse_3.x,mouse_3.y,mouse_3.leftButton,mouse_3.midButton,mouse_3.rightButton,catchresponse,catchnumber,response_time_catch,Catch,mouse_11.x,mouse_11.y,mouse_11.leftButton,mouse_11.midButton,mouse_11.rightButton,trials_2.thisRepN,trials_2.thisTrialN,trials_2.thisN,trials_2.thisIndex,trials_2.ran,Colourpair,Temporder,mouse_3.clicked_name,mouse_11.clicked_name,trials_3.thisRepN,trials_3.thisTrialN,trials_3.thisN,trials_3.thisIndex,trials_3.ran,key_resp_instr_Ishi.keys,key_resp_instr_Ishi.rt,Ishi_trial_keyresp.keys,Ishi_trial_keyresp.rt,Ishi_textbox.text,Ishi_mouse.x,Ishi_mouse.y,Ishi_mouse.leftButton,Ishi_mouse.midButton,Ishi_mouse.rightButton,Ishi_loop.thisRepN,Ishi_loop.thisTrialN,Ishi_loop.thisN,Ishi_loop.thisIndex,Ishi_loop.ran,imageaddress,Ishi_mouse.clicked_name,textbox.text,mouse_4.x,mouse_4.y,mouse_4.leftButton,mouse_4.midButton,mouse_4.rightButton,mouse_4.clicked_name,textbox_2.text,mouse_8.x,mouse_8.y,mouse_8.leftButton,mouse_8.midButton,mouse_8.rightButton,mouse_8.clicked_name,textbox_3.text,mouse_9.x,mouse_9.y,mouse_9.leftButton,mouse_9.midButton,mouse_9.rightButton,mouse_9.clicked_name,textbox_4.text,mouse_12.x,mouse_12.y,mouse_12.leftButton,mouse_12.midButton,mouse_12.rightButton,mouse_12.clicked_name,textbox_5.text,mouse_13.x,mouse_13.y,mouse_13.leftButton,mouse_13.midButton,mouse_13.rightButton,mouse_13.clicked_name,textbox_6.text,mouse_14.x,mouse_14.y,mouse_14.leftButton,mouse_14.midButton,mouse_14.rightButton,mouse_14.clicked_name,textbox_7.text,mouse_15.x,mouse_15.y,mouse_15.leftButton,mouse_15.midButton,mouse_15.rightButton,mouse_15.clicked_name
0,0,0,12,1,,5d36e9bf100e6c00187db8aa,62c5394b05352c4b7cc79222,2022-07-06_08h27.33.358,Colour_Asymmetry_Pilot,2022.1.3,Win32,59.79073244,62c50e9c1127f2cd403a315f,,,,,,,,,,,,,,,,,,,,,,,,,,,,,,,,,,,,,,,,,,,,,,,,,,,,,,,,,,,,,,,,,,,,,,,,,,,,,,,,,,,,,,,,,,,,,,,,,,,,,,,,,,,,,,,,,,,,,,,,,,,,,,,,,,,,,,,,,,,,,,,,,,,,,,,,,,,,,,,,,,,,
0,1,1,48,1,,5d36e9bf100e6c00187db8aa,62c5394b05352c4b7cc79222,2022-07-06_08h27.33.358,Colour_Asymmetry_Pilot,2022.1.3,Win32,59.79073244,62c50e9c1127f2cd403a315f,,,,,,,,,,,,,,,,,,,,,,,,,,,,,,,,,,,,,,,,,,,,,,,,,,,,,,,,,,,,,,,,,,,,,,,,,,,,,,,,,,,,,,,,,,,,,,,,,,,,,,,,,,,,,,,,,,,,,,,,,,,,,,,,,,,,,,,,,,,,,,,,,,,,,,,,,,,,,,,,,,,,
0,2,2,53,1,,5d36e9bf100e6c00187db8aa,62c5394b05352c4b7cc79222,2022-07-06_08h27.33.358,Colour_Asymmetry_Pilot,2022.1.3,Win32,59.79073244,62c50e9c1127f2cd403a315f,,,,,,,,,,,,,,,,,,,,,,,,,,,,,,,,,,,,,,,,,,,,,,,,,,,,,,,,,,,,,,,,,,,,,,,,,,,,,,,,,,,,,,,,,,,,,,,,,,,,,,,,,,,,,,,,,,,,,,,,,,,,,,,,,,,,,,,,,,,,,,,,,,,,,,,,,,,,,,,,,,,,
0,3,3,78,1,,5d36e9bf100e6c00187db8aa,62c5394b05352c4b7cc79222,2022-07-06_08h27.33.358,Colour_Asymmetry_Pilot,2022.1.3,Win32,59.79073244,62c50e9c1127f2cd403a315f,,,,,,,,,,,,,,,,,,,,,,,,,,,,,,,,,,,,,,,,,,,,,,,,,,,,,,,,,,,,,,,,,,,,,,,,,,,,,,,,,,,,,,,,,,,,,,,,,,,,,,,,,,,,,,,,,,,,,,,,,,,,,,,,,,,,,,,,,,,,,,,,,,,,,,,,,,,,,,,,,,,,
0,4,4,41,1,,5d36e9bf100e6c00187db8aa,62c5394b05352c4b7cc79222,2022-07-06_08h27.33.358,Colour_Asymmetry_Pilot,2022.1.3,Win32,59.79073244,62c50e9c1127f2cd403a315f,,,,,,,,,,,,,,,,,,,,,,,,,,,,,,,,,,,,,,,,,,,,,,,,,,,,,,,,,,,,,,,,,,,,,,,,,,,,,,,,,,,,,,,,,,,,,,,,,,,,,,,,,,,,,,,,,,,,,,,,,,,,,,,,,,,,,,,,,,,,,,,,,,,,,,,,,,,,,,,,,,,,
0,5,5,10,1,,5d36e9bf100e6c00187db8aa,62c5394b05352c4b7cc79222,2022-07-06_08h27.33.358,Colour_Asymmetry_Pilot,2022.1.3,Win32,59.79073244,62c50e9c1127f2cd403a315f,,,,,,,,,,,,,,,,,,,,,,,,,,,,,,,,,,,,,,,,,,,,,,,,,,,,,,,,,,,,,,,,,,,,,,,,,,,,,,,,,,,,,,,,,,,,,,,,,,,,,,,,,,,,,,,,,,,,,,,,,,,,,,,,,,,,,,,,,,,,,,,,,,,,,,,,,,,,,,,,,,,,
0,6,6,85,1,,5d36e9bf100e6c00187db8aa,62c5394b05352c4b7cc79222,2022-07-06_08h27.33.358,Colour_Asymmetry_Pilot,2022.1.3,Win32,59.79073244,62c50e9c1127f2cd403a315f,,,,,,,,,,,,,,,,,,,,,,,,,,,,,,,,,,,,,,,,,,,,,,,,,,,,,,,,,,,,,,,,,,,,,,,,,,,,,,,,,,,,,,,,,,,,,,,,,,,,,,,,,,,,,,,,,,,,,,,,,,,,,,,,,,,,,,,,,,,,,,,,,,,,,,,,,,,,,,,,,,,,
0,7,7,77,1,,5d36e9bf100e6c00187db8aa,62c5394b05352c4b7cc79222,2022-07-06_08h27.33.358,Colour_Asymmetry_Pilot,2022.1.3,Win32,59.79073244,62c50e9c1127f2cd403a315f,,,,,,,,,,,,,,,,,,,,,,,,,,,,,,,,,,,,,,,,,,,,,,,,,,,,,,,,,,,,,,,,,,,,,,,,,,,,,,,,,,,,,,,,,,,,,,,,,,,,,,,,,,,,,,,,,,,,,,,,,,,,,,,,,,,,,,,,,,,,,,,,,,,,,,,,,,,,,,,,,,,,
0,8,8,80,1,,5d36e9bf100e6c00187db8aa,62c5394b05352c4b7cc79222,2022-07-06_08h27.33.358,Colour_Asymmetry_Pilot,2022.1.3,Win32,59.79073244,62c50e9c1127f2cd403a315f,,,,,,,,,,,,,,,,,,,,,,,,,,,,,,,,,,,,,,,,,,,,,,,,,,,,,,,,,,,,,,,,,,,,,,,,,,,,,,,,,,,,,,,,,,,,,,,,,,,,,,,,,,,,,,,,,,,,,,,,,,,,,,,,,,,,,,,,,,,,,,,,,,,,,,,,,,,,,,,,,,,,
0,9,9,69,1,,5d36e9bf100e6c00187db8aa,62c5394b05352c4b7cc79222,2022-07-06_08h27.33.358,Colour_Asymmetry_Pilot,2022.1.3,Win32,59.79073244,62c50e9c1127f2cd403a315f,,,,,,,,,,,,,,,,,,,,,,,,,,,,,,,,,,,,,,,,,,,,,,,,,,,,,,,,,,,,,,,,,,,,,,,,,,,,,,,,,,,,,,,,,,,,,,,,,,,,,,,,,,,,,,,,,,,,,,,,,,,,,,,,,,,,,,,,,,,,,,,,,,,,,,,,,,,,,,,,,,,,
0,10,10,21,1,,5d36e9bf100e6c00187db8aa,62c5394b05352c4b7cc79222,2022-07-06_08h27.33.358,Colour_Asymmetry_Pilot,2022.1.3,Win32,59.79073244,62c50e9c1127f2cd403a315f,,,,,,,,,,,,,,,,,,,,,,,,,,,,,,,,,,,,,,,,,,,,,,,,,,,,,,,,,,,,,,,,,,,,,,,,,,,,,,,,,,,,,,,,,,,,,,,,,,,,,,,,,,,,,,,,,,,,,,,,,,,,,,,,,,,,,,,,,,,,,,,,,,,,,,,,,,,,,,,,,,,,
0,11,11,31,1,,5d36e9bf100e6c00187db8aa,62c5394b05352c4b7cc79222,2022-07-06_08h27.33.358,Colour_Asymmetry_Pilot,2022.1.3,Win32,59.79073244,62c50e9c1127f2cd403a315f,,,,,,,,,,,,,,,,,,,,,,,,,,,,,,,,,,,,,,,,,,,,,,,,,,,,,,,,,,,,,,,,,,,,,,,,,,,,,,,,,,,,,,,,,,,,,,,,,,,,,,,,,,,,,,,,,,,,,,,,,,,,,,,,,,,,,,,,,,,,,,,,,,,,,,,,,,,,,,,,,,,,
0,12,12,24,1,,5d36e9bf100e6c00187db8aa,62c5394b05352c4b7cc79222,2022-07-06_08h27.33.358,Colour_Asymmetry_Pilot,2022.1.3,Win32,59.79073244,62c50e9c1127f2cd403a315f,,,,,,,,,,,,,,,,,,,,,,,,,,,,,,,,,,,,,,,,,,,,,,,,,,,,,,,,,,,,,,,,,,,,,,,,,,,,,,,,,,,,,,,,,,,,,,,,,,,,,,,,,,,,,,,,,,,,,,,,,,,,,,,,,,,,,,,,,,,,,,,,,,,,,,,,,,,,,,,,,,,,
0,13,13,56,1,,5d36e9bf100e6c00187db8aa,62c5394b05352c4b7cc79222,2022-07-06_08h27.33.358,Colour_Asymmetry_Pilot,2022.1.3,Win32,59.79073244,62c50e9c1127f2cd403a315f,,,,,,,,,,,,,,,,,,,,,,,,,,,,,,,,,,,,,,,,,,,,,,,,,,,,,,,,,,,,,,,,,,,,,,,,,,,,,,,,,,,,,,,,,,,,,,,,,,,,,,,,,,,,,,,,,,,,,,,,,,,,,,,,,,,,,,,,,,,,,,,,,,,,,,,,,,,,,,,,,,,,
0,14,14,57,1,,5d36e9bf100e6c00187db8aa,62c5394b05352c4b7cc79222,2022-07-06_08h27.33.358,Colour_Asymmetry_Pilot,2022.1.3,Win32,59.79073244,62c50e9c1127f2cd403a315f,,,,,,,,,,,,,,,,,,,,,,,,,,,,,,,,,,,,,,,,,,,,,,,,,,,,,,,,,,,,,,,,,,,,,,,,,,,,,,,,,,,,,,,,,,,,,,,,,,,,,,,,,,,,,,,,,,,,,,,,,,,,,,,,,,,,,,,,,,,,,,,,,,,,,,,,,,,,,,,,,,,,
0,15,15,30,1,,5d36e9bf100e6c00187db8aa,62c5394b05352c4b7cc79222,2022-07-06_08h27.33.358,Colour_Asymmetry_Pilot,2022.1.3,Win32,59.79073244,62c50e9c1127f2cd403a315f,,,,,,,,,,,,,,,,,,,,,,,,,,,,,,,,,,,,,,,,,,,,,,,,,,,,,,,,,,,,,,,,,,,,,,,,,,,,,,,,,,,,,,,,,,,,,,,,,,,,,,,,,,,,,,,,,,,,,,,,,,,,,,,,,,,,,,,,,,,,,,,,,,,,,,,,,,,,,,,,,,,,
0,16,16,20,1,,5d36e9bf100e6c00187db8aa,62c5394b05352c4b7cc79222,2022-07-06_08h27.33.358,Colour_Asymmetry_Pilot,2022.1.3,Win32,59.79073244,62c50e9c1127f2cd403a315f,,,,,,,,,,,,,,,,,,,,,,,,,,,,,,,,,,,,,,,,,,,,,,,,,,,,,,,,,,,,,,,,,,,,,,,,,,,,,,,,,,,,,,,,,,,,,,,,,,,,,,,,,,,,,,,,,,,,,,,,,,,,,,,,,,,,,,,,,,,,,,,,,,,,,,,,,,,,,,,,,,,,
0,17,17,68,1,,5d36e9bf100e6c00187db8aa,62c5394b05352c4b7cc79222,2022-07-06_08h27.33.358,Colour_Asymmetry_Pilot,2022.1.3,Win32,59.79073244,62c50e9c1127f2cd403a315f,,,,,,,,,,,,,,,,,,,,,,,,,,,,,,,,,,,,,,,,,,,,,,,,,,,,,,,,,,,,,,,,,,,,,,,,,,,,,,,,,,,,,,,,,,,,,,,,,,,,,,,,,,,,,,,,,,,,,,,,,,,,,,,,,,,,,,,,,,,,,,,,,,,,,,,,,,,,,,,,,,,,
0,18,18,8,1,,5d36e9bf100e6c00187db8aa,62c5394b05352c4b7cc79222,2022-07-06_08h27.33.358,Colour_Asymmetry_Pilot,2022.1.3,Win32,59.79073244,62c50e9c1127f2cd403a315f,,,,,,,,,,,,,,,,,,,,,,,,,,,,,,,,,,,,,,,,,,,,,,,,,,,,,,,,,,,,,,,,,,,,,,,,,,,,,,,,,,,,,,,,,,,,,,,,,,,,,,,,,,,,,,,,,,,,,,,,,,,,,,,,,,,,,,,,,,,,,,,,,,,,,,,,,,,,,,,,,,,,
0,19,19,82,1,,5d36e9bf100e6c00187db8aa,62c5394b05352c4b7cc79222,2022-07-06_08h27.33.358,Colour_Asymmetry_Pilot,2022.1.3,Win32,59.79073244,62c50e9c1127f2cd403a315f,,,,,,,,,,,,,,,,,,,,,,,,,,,,,,,,,,,,,,,,,,,,,,,,,,,,,,,,,,,,,,,,,,,,,,,,,,,,,,,,,,,,,,,,,,,,,,,,,,,,,,,,,,,,,,,,,,,,,,,,,,,,,,,,,,,,,,,,,,,,,,,,,,,,,,,,,,,,,,,,,,,,
0,20,20,36,1,,5d36e9bf100e6c00187db8aa,62c5394b05352c4b7cc79222,2022-07-06_08h27.33.358,Colour_Asymmetry_Pilot,2022.1.3,Win32,59.79073244,62c50e9c1127f2cd403a315f,,,,,,,,,,,,,,,,,,,,,,,,,,,,,,,,,,,,,,,,,,,,,,,,,,,,,,,,,,,,,,,,,,,,,,,,,,,,,,,,,,,,,,,,,,,,,,,,,,,,,,,,,,,,,,,,,,,,,,,,,,,,,,,,,,,,,,,,,,,,,,,,,,,,,,,,,,,,,,,,,,,,
0,21,21,15,1,,5d36e9bf100e6c00187db8aa,62c5394b05352c4b7cc79222,2022-07-06_08h27.33.358,Colour_Asymmetry_Pilot,2022.1.3,Win32,59.79073244,62c50e9c1127f2cd403a315f,,,,,,,,,,,,,,,,,,,,,,,,,,,,,,,,,,,,,,,,,,,,,,,,,,,,,,,,,,,,,,,,,,,,,,,,,,,,,,,,,,,,,,,,,,,,,,,,,,,,,,,,,,,,,,,,,,,,,,,,,,,,,,,,,,,,,,,,,,,,,,,,,,,,,,,,,,,,,,,,,,,,
0,22,22,6,1,,5d36e9bf100e6c00187db8aa,62c5394b05352c4b7cc79222,2022-07-06_08h27.33.358,Colour_Asymmetry_Pilot,2022.1.3,Win32,59.79073244,62c50e9c1127f2cd403a315f,,,,,,,,,,,,,,,,,,,,,,,,,,,,,,,,,,,,,,,,,,,,,,,,,,,,,,,,,,,,,,,,,,,,,,,,,,,,,,,,,,,,,,,,,,,,,,,,,,,,,,,,,,,,,,,,,,,,,,,,,,,,,,,,,,,,,,,,,,,,,,,,,,,,,,,,,,,,,,,,,,,,
0,23,23,71,1,,5d36e9bf100e6c00187db8aa,62c5394b05352c4b7cc79222,2022-07-06_08h27.33.358,Colour_Asymmetry_Pilot,2022.1.3,Win32,59.79073244,62c50e9c1127f2cd403a315f,,,,,,,,,,,,,,,,,,,,,,,,,,,,,,,,,,,,,,,,,,,,,,,,,,,,,,,,,,,,,,,,,,,,,,,,,,,,,,,,,,,,,,,,,,,,,,,,,,,,,,,,,,,,,,,,,,,,,,,,,,,,,,,,,,,,,,,,,,,,,,,,,,,,,,,,,,,,,,,,,,,,
0,24,24,22,1,,5d36e9bf100e6c00187db8aa,62c5394b05352c4b7cc79222,2022-07-06_08h27.33.358,Colour_Asymmetry_Pilot,2022.1.3,Win32,59.79073244,62c50e9c1127f2cd403a315f,,,,,,,,,,,,,,,,,,,,,,,,,,,,,,,,,,,,,,,,,,,,,,,,,,,,,,,,,,,,,,,,,,,,,,,,,,,,,,,,,,,,,,,,,,,,,,,,,,,,,,,,,,,,,,,,,,,,,,,,,,,,,,,,,,,,,,,,,,,,,,,,,,,,,,,,,,,,,,,,,,,,
0,25,25,14,1,,5d36e9bf100e6c00187db8aa,62c5394b05352c4b7cc79222,2022-07-06_08h27.33.358,Colour_Asymmetry_Pilot,2022.1.3,Win32,59.79073244,62c50e9c1127f2cd403a315f,,,,,,,,,,,,,,,,,,,,,,,,,,,,,,,,,,,,,,,,,,,,,,,,,,,,,,,,,,,,,,,,,,,,,,,,,,,,,,,,,,,,,,,,,,,,,,,,,,,,,,,,,,,,,,,,,,,,,,,,,,,,,,,,,,,,,,,,,,,,,,,,,,,,,,,,,,,,,,,,,,,,
0,26,26,40,1,,5d36e9bf100e6c00187db8aa,62c5394b05352c4b7cc79222,2022-07-06_08h27.33.358,Colour_Asymmetry_Pilot,2022.1.3,Win32,59.79073244,62c50e9c1127f2cd403a315f,,,,,,,,,,,,,,,,,,,,,,,,,,,,,,,,,,,,,,,,,,,,,,,,,,,,,,,,,,,,,,,,,,,,,,,,,,,,,,,,,,,,,,,,,,,,,,,,,,,,,,,,,,,,,,,,,,,,,,,,,,,,,,,,,,,,,,,,,,,,,,,,,,,,,,,,,,,,,,,,,,,,
0,27,27,63,1,,5d36e9bf100e6c00187db8aa,62c5394b05352c4b7cc79222,2022-07-06_08h27.33.358,Colour_Asymmetry_Pilot,2022.1.3,Win32,59.79073244,62c50e9c1127f2cd403a315f,,,,,,,,,,,,,,,,,,,,,,,,,,,,,,,,,,,,,,,,,,,,,,,,,,,,,,,,,,,,,,,,,,,,,,,,,,,,,,,,,,,,,,,,,,,,,,,,,,,,,,,,,,,,,,,,,,,,,,,,,,,,,,,,,,,,,,,,,,,,,,,,,,,,,,,,,,,,,,,,,,,,
0,28,28,72,1,,5d36e9bf100e6c00187db8aa,62c5394b05352c4b7cc79222,2022-07-06_08h27.33.358,Colour_Asymmetry_Pilot,2022.1.3,Win32,59.79073244,62c50e9c1127f2cd403a315f,,,,,,,,,,,,,,,,,,,,,,,,,,,,,,,,,,,,,,,,,,,,,,,,,,,,,,,,,,,,,,,,,,,,,,,,,,,,,,,,,,,,,,,,,,,,,,,,,,,,,,,,,,,,,,,,,,,,,,,,,,,,,,,,,,,,,,,,,,,,,,,,,,,,,,,,,,,,,,,,,,,,
0,29,29,83,1,,5d36e9bf100e6c00187db8aa,62c5394b05352c4b7cc79222,2022-07-06_08h27.33.358,Colour_Asymmetry_Pilot,2022.1.3,Win32,59.79073244,62c50e9c1127f2cd403a315f,,,,,,,,,,,,,,,,,,,,,,,,,,,,,,,,,,,,,,,,,,,,,,,,,,,,,,,,,,,,,,,,,,,,,,,,,,,,,,,,,,,,,,,,,,,,,,,,,,,,,,,,,,,,,,,,,,,,,,,,,,,,,,,,,,,,,,,,,,,,,,,,,,,,,,,,,,,,,,,,,,,,
0,30,30,65,1,,5d36e9bf100e6c00187db8aa,62c5394b05352c4b7cc79222,2022-07-06_08h27.33.358,Colour_Asymmetry_Pilot,2022.1.3,Win32,59.79073244,62c50e9c1127f2cd403a315f,,,,,,,,,,,,,,,,,,,,,,,,,,,,,,,,,,,,,,,,,,,,,,,,,,,,,,,,,,,,,,,,,,,,,,,,,,,,,,,,,,,,,,,,,,,,,,,,,,,,,,,,,,,,,,,,,,,,,,,,,,,,,,,,,,,,,,,,,,,,,,,,,,,,,,,,,,,,,,,,,,,,
0,31,31,79,1,,5d36e9bf100e6c00187db8aa,62c5394b05352c4b7cc79222,2022-07-06_08h27.33.358,Colour_Asymmetry_Pilot,2022.1.3,Win32,59.79073244,62c50e9c1127f2cd403a315f,,,,,,,,,,,,,,,,,,,,,,,,,,,,,,,,,,,,,,,,,,,,,,,,,,,,,,,,,,,,,,,,,,,,,,,,,,,,,,,,,,,,,,,,,,,,,,,,,,,,,,,,,,,,,,,,,,,,,,,,,,,,,,,,,,,,,,,,,,,,,,,,,,,,,,,,,,,,,,,,,,,,
0,32,32,27,1,,5d36e9bf100e6c00187db8aa,62c5394b05352c4b7cc79222,2022-07-06_08h27.33.358,Colour_Asymmetry_Pilot,2022.1.3,Win32,59.79073244,62c50e9c1127f2cd403a315f,,,,,,,,,,,,,,,,,,,,,,,,,,,,,,,,,,,,,,,,,,,,,,,,,,,,,,,,,,,,,,,,,,,,,,,,,,,,,,,,,,,,,,,,,,,,,,,,,,,,,,,,,,,,,,,,,,,,,,,,,,,,,,,,,,,,,,,,,,,,,,,,,,,,,,,,,,,,,,,,,,,,
0,33,33,26,1,,5d36e9bf100e6c00187db8aa,62c5394b05352c4b7cc79222,2022-07-06_08h27.33.358,Colour_Asymmetry_Pilot,2022.1.3,Win32,59.79073244,62c50e9c1127f2cd403a315f,,,,,,,,,,,,,,,,,,,,,,,,,,,,,,,,,,,,,,,,,,,,,,,,,,,,,,,,,,,,,,,,,,,,,,,,,,,,,,,,,,,,,,,,,,,,,,,,,,,,,,,,,,,,,,,,,,,,,,,,,,,,,,,,,,,,,,,,,,,,,,,,,,,,,,,,,,,,,,,,,,,,
0,34,34,17,1,,5d36e9bf100e6c00187db8aa,62c5394b05352c4b7cc79222,2022-07-06_08h27.33.358,Colour_Asymmetry_Pilot,2022.1.3,Win32,59.79073244,62c50e9c1127f2cd403a315f,,,,,,,,,,,,,,,,,,,,,,,,,,,,,,,,,,,,,,,,,,,,,,,,,,,,,,,,,,,,,,,,,,,,,,,,,,,,,,,,,,,,,,,,,,,,,,,,,,,,,,,,,,,,,,,,,,,,,,,,,,,,,,,,,,,,,,,,,,,,,,,,,,,,,,,,,,,,,,,,,,,,
0,35,35,64,1,,5d36e9bf100e6c00187db8aa,62c5394b05352c4b7cc79222,2022-07-06_08h27.33.358,Colour_Asymmetry_Pilot,2022.1.3,Win32,59.79073244,62c50e9c1127f2cd403a315f,,,,,,,,,,,,,,,,,,,,,,,,,,,,,,,,,,,,,,,,,,,,,,,,,,,,,,,,,,,,,,,,,,,,,,,,,,,,,,,,,,,,,,,,,,,,,,,,,,,,,,,,,,,,,,,,,,,,,,,,,,,,,,,,,,,,,,,,,,,,,,,,,,,,,,,,,,,,,,,,,,,,
0,36,36,47,1,,5d36e9bf100e6c00187db8aa,62c5394b05352c4b7cc79222,2022-07-06_08h27.33.358,Colour_Asymmetry_Pilot,2022.1.3,Win32,59.79073244,62c50e9c1127f2cd403a315f,,,,,,,,,,,,,,,,,,,,,,,,,,,,,,,,,,,,,,,,,,,,,,,,,,,,,,,,,,,,,,,,,,,,,,,,,,,,,,,,,,,,,,,,,,,,,,,,,,,,,,,,,,,,,,,,,,,,,,,,,,,,,,,,,,,,,,,,,,,,,,,,,,,,,,,,,,,,,,,,,,,,
0,37,37,61,1,,5d36e9bf100e6c00187db8aa,62c5394b05352c4b7cc79222,2022-07-06_08h27.33.358,Colour_Asymmetry_Pilot,2022.1.3,Win32,59.79073244,62c50e9c1127f2cd403a315f,,,,,,,,,,,,,,,,,,,,,,,,,,,,,,,,,,,,,,,,,,,,,,,,,,,,,,,,,,,,,,,,,,,,,,,,,,,,,,,,,,,,,,,,,,,,,,,,,,,,,,,,,,,,,,,,,,,,,,,,,,,,,,,,,,,,,,,,,,,,,,,,,,,,,,,,,,,,,,,,,,,,
0,38,38,46,1,,5d36e9bf100e6c00187db8aa,62c5394b05352c4b7cc79222,2022-07-06_08h27.33.358,Colour_Asymmetry_Pilot,2022.1.3,Win32,59.79073244,62c50e9c1127f2cd403a315f,,,,,,,,,,,,,,,,,,,,,,,,,,,,,,,,,,,,,,,,,,,,,,,,,,,,,,,,,,,,,,,,,,,,,,,,,,,,,,,,,,,,,,,,,,,,,,,,,,,,,,,,,,,,,,,,,,,,,,,,,,,,,,,,,,,,,,,,,,,,,,,,,,,,,,,,,,,,,,,,,,,,
0,39,39,62,1,,5d36e9bf100e6c00187db8aa,62c5394b05352c4b7cc79222,2022-07-06_08h27.33.358,Colour_Asymmetry_Pilot,2022.1.3,Win32,59.79073244,62c50e9c1127f2cd403a315f,,,,,,,,,,,,,,,,,,,,,,,,,,,,,,,,,,,,,,,,,,,,,,,,,,,,,,,,,,,,,,,,,,,,,,,,,,,,,,,,,,,,,,,,,,,,,,,,,,,,,,,,,,,,,,,,,,,,,,,,,,,,,,,,,,,,,,,,,,,,,,,,,,,,,,,,,,,,,,,,,,,,
0,40,40,34,1,,5d36e9bf100e6c00187db8aa,62c5394b05352c4b7cc79222,2022-07-06_08h27.33.358,Colour_Asymmetry_Pilot,2022.1.3,Win32,59.79073244,62c50e9c1127f2cd403a315f,,,,,,,,,,,,,,,,,,,,,,,,,,,,,,,,,,,,,,,,,,,,,,,,,,,,,,,,,,,,,,,,,,,,,,,,,,,,,,,,,,,,,,,,,,,,,,,,,,,,,,,,,,,,,,,,,,,,,,,,,,,,,,,,,,,,,,,,,,,,,,,,,,,,,,,,,,,,,,,,,,,,
0,41,41,51,1,,5d36e9bf100e6c00187db8aa,62c5394b05352c4b7cc79222,2022-07-06_08h27.33.358,Colour_Asymmetry_Pilot,2022.1.3,Win32,59.79073244,62c50e9c1127f2cd403a315f,,,,,,,,,,,,,,,,,,,,,,,,,,,,,,,,,,,,,,,,,,,,,,,,,,,,,,,,,,,,,,,,,,,,,,,,,,,,,,,,,,,,,,,,,,,,,,,,,,,,,,,,,,,,,,,,,,,,,,,,,,,,,,,,,,,,,,,,,,,,,,,,,,,,,,,,,,,,,,,,,,,,
0,42,42,5,1,,5d36e9bf100e6c00187db8aa,62c5394b05352c4b7cc79222,2022-07-06_08h27.33.358,Colour_Asymmetry_Pilot,2022.1.3,Win32,59.79073244,62c50e9c1127f2cd403a315f,,,,,,,,,,,,,,,,,,,,,,,,,,,,,,,,,,,,,,,,,,,,,,,,,,,,,,,,,,,,,,,,,,,,,,,,,,,,,,,,,,,,,,,,,,,,,,,,,,,,,,,,,,,,,,,,,,,,,,,,,,,,,,,,,,,,,,,,,,,,,,,,,,,,,,,,,,,,,,,,,,,,
0,43,43,73,1,,5d36e9bf100e6c00187db8aa,62c5394b05352c4b7cc79222,2022-07-06_08h27.33.358,Colour_Asymmetry_Pilot,2022.1.3,Win32,59.79073244,62c50e9c1127f2cd403a315f,,,,,,,,,,,,,,,,,,,,,,,,,,,,,,,,,,,,,,,,,,,,,,,,,,,,,,,,,,,,,,,,,,,,,,,,,,,,,,,,,,,,,,,,,,,,,,,,,,,,,,,,,,,,,,,,,,,,,,,,,,,,,,,,,,,,,,,,,,,,,,,,,,,,,,,,,,,,,,,,,,,,
0,44,44,25,1,,5d36e9bf100e6c00187db8aa,62c5394b05352c4b7cc79222,2022-07-06_08h27.33.358,Colour_Asymmetry_Pilot,2022.1.3,Win32,59.79073244,62c50e9c1127f2cd403a315f,,,,,,,,,,,,,,,,,,,,,,,,,,,,,,,,,,,,,,,,,,,,,,,,,,,,,,,,,,,,,,,,,,,,,,,,,,,,,,,,,,,,,,,,,,,,,,,,,,,,,,,,,,,,,,,,,,,,,,,,,,,,,,,,,,,,,,,,,,,,,,,,,,,,,,,,,,,,,,,,,,,,
0,45,45,9,1,,5d36e9bf100e6c00187db8aa,62c5394b05352c4b7cc79222,2022-07-06_08h27.33.358,Colour_Asymmetry_Pilot,2022.1.3,Win32,59.79073244,62c50e9c1127f2cd403a315f,,,,,,,,,,,,,,,,,,,,,,,,,,,,,,,,,,,,,,,,,,,,,,,,,,,,,,,,,,,,,,,,,,,,,,,,,,,,,,,,,,,,,,,,,,,,,,,,,,,,,,,,,,,,,,,,,,,,,,,,,,,,,,,,,,,,,,,,,,,,,,,,,,,,,,,,,,,,,,,,,,,,
0,46,46,19,1,,5d36e9bf100e6c00187db8aa,62c5394b05352c4b7cc79222,2022-07-06_08h27.33.358,Colour_Asymmetry_Pilot,2022.1.3,Win32,59.79073244,62c50e9c1127f2cd403a315f,,,,,,,,,,,,,,,,,,,,,,,,,,,,,,,,,,,,,,,,,,,,,,,,,,,,,,,,,,,,,,,,,,,,,,,,,,,,,,,,,,,,,,,,,,,,,,,,,,,,,,,,,,,,,,,,,,,,,,,,,,,,,,,,,,,,,,,,,,,,,,,,,,,,,,,,,,,,,,,,,,,,
0,47,47,54,1,,5d36e9bf100e6c00187db8aa,62c5394b05352c4b7cc79222,2022-07-06_08h27.33.358,Colour_Asymmetry_Pilot,2022.1.3,Win32,59.79073244,62c50e9c1127f2cd403a315f,,,,,,,,,,,,,,,,,,,,,,,,,,,,,,,,,,,,,,,,,,,,,,,,,,,,,,,,,,,,,,,,,,,,,,,,,,,,,,,,,,,,,,,,,,,,,,,,,,,,,,,,,,,,,,,,,,,,,,,,,,,,,,,,,,,,,,,,,,,,,,,,,,,,,,,,,,,,,,,,,,,,
0,48,48,88,1,,5d36e9bf100e6c00187db8aa,62c5394b05352c4b7cc79222,2022-07-06_08h27.33.358,Colour_Asymmetry_Pilot,2022.1.3,Win32,59.79073244,62c50e9c1127f2cd403a315f,,,,,,,,,,,,,,,,,,,,,,,,,,,,,,,,,,,,,,,,,,,,,,,,,,,,,,,,,,,,,,,,,,,,,,,,,,,,,,,,,,,,,,,,,,,,,,,,,,,,,,,,,,,,,,,,,,,,,,,,,,,,,,,,,,,,,,,,,,,,,,,,,,,,,,,,,,,,,,,,,,,,
0,49,49,35,1,,5d36e9bf100e6c00187db8aa,62c5394b05352c4b7cc79222,2022-07-06_08h27.33.358,Colour_Asymmetry_Pilot,2022.1.3,Win32,59.79073244,62c50e9c1127f2cd403a315f,,,,,,,,,,,,,,,,,,,,,,,,,,,,,,,,,,,,,,,,,,,,,,,,,,,,,,,,,,,,,,,,,,,,,,,,,,,,,,,,,,,,,,,,,,,,,,,,,,,,,,,,,,,,,,,,,,,,,,,,,,,,,,,,,,,,,,,,,,,,,,,,,,,,,,,,,,,,,,,,,,,,
0,50,50,45,1,,5d36e9bf100e6c00187db8aa,62c5394b05352c4b7cc79222,2022-07-06_08h27.33.358,Colour_Asymmetry_Pilot,2022.1.3,Win32,59.79073244,62c50e9c1127f2cd403a315f,,,,,,,,,,,,,,,,,,,,,,,,,,,,,,,,,,,,,,,,,,,,,,,,,,,,,,,,,,,,,,,,,,,,,,,,,,,,,,,,,,,,,,,,,,,,,,,,,,,,,,,,,,,,,,,,,,,,,,,,,,,,,,,,,,,,,,,,,,,,,,,,,,,,,,,,,,,,,,,,,,,,
0,51,51,1,1,,5d36e9bf100e6c00187db8aa,62c5394b05352c4b7cc79222,2022-07-06_08h27.33.358,Colour_Asymmetry_Pilot,2022.1.3,Win32,59.79073244,62c50e9c1127f2cd403a315f,,,,,,,,,,,,,,,,,,,,,,,,,,,,,,,,,,,,,,,,,,,,,,,,,,,,,,,,,,,,,,,,,,,,,,,,,,,,,,,,,,,,,,,,,,,,,,,,,,,,,,,,,,,,,,,,,,,,,,,,,,,,,,,,,,,,,,,,,,,,,,,,,,,,,,,,,,,,,,,,,,,,
0,52,52,89,1,,5d36e9bf100e6c00187db8aa,62c5394b05352c4b7cc79222,2022-07-06_08h27.33.358,Colour_Asymmetry_Pilot,2022.1.3,Win32,59.79073244,62c50e9c1127f2cd403a315f,,,,,,,,,,,,,,,,,,,,,,,,,,,,,,,,,,,,,,,,,,,,,,,,,,,,,,,,,,,,,,,,,,,,,,,,,,,,,,,,,,,,,,,,,,,,,,,,,,,,,,,,,,,,,,,,,,,,,,,,,,,,,,,,,,,,,,,,,,,,,,,,,,,,,,,,,,,,,,,,,,,,
0,53,53,3,1,,5d36e9bf100e6c00187db8aa,62c5394b05352c4b7cc79222,2022-07-06_08h27.33.358,Colour_Asymmetry_Pilot,2022.1.3,Win32,59.79073244,62c50e9c1127f2cd403a315f,,,,,,,,,,,,,,,,,,,,,,,,,,,,,,,,,,,,,,,,,,,,,,,,,,,,,,,,,,,,,,,,,,,,,,,,,,,,,,,,,,,,,,,,,,,,,,,,,,,,,,,,,,,,,,,,,,,,,,,,,,,,,,,,,,,,,,,,,,,,,,,,,,,,,,,,,,,,,,,,,,,,
0,54,54,91,1,,5d36e9bf100e6c00187db8aa,62c5394b05352c4b7cc79222,2022-07-06_08h27.33.358,Colour_Asymmetry_Pilot,2022.1.3,Win32,59.79073244,62c50e9c1127f2cd403a315f,,,,,,,,,,,,,,,,,,,,,,,,,,,,,,,,,,,,,,,,,,,,,,,,,,,,,,,,,,,,,,,,,,,,,,,,,,,,,,,,,,,,,,,,,,,,,,,,,,,,,,,,,,,,,,,,,,,,,,,,,,,,,,,,,,,,,,,,,,,,,,,,,,,,,,,,,,,,,,,,,,,,
0,55,55,43,1,,5d36e9bf100e6c00187db8aa,62c5394b05352c4b7cc79222,2022-07-06_08h27.33.358,Colour_Asymmetry_Pilot,2022.1.3,Win32,59.79073244,62c50e9c1127f2cd403a315f,,,,,,,,,,,,,,,,,,,,,,,,,,,,,,,,,,,,,,,,,,,,,,,,,,,,,,,,,,,,,,,,,,,,,,,,,,,,,,,,,,,,,,,,,,,,,,,,,,,,,,,,,,,,,,,,,,,,,,,,,,,,,,,,,,,,,,,,,,,,,,,,,,,,,,,,,,,,,,,,,,,,
0,56,56,28,1,,5d36e9bf100e6c00187db8aa,62c5394b05352c4b7cc79222,2022-07-06_08h27.33.358,Colour_Asymmetry_Pilot,2022.1.3,Win32,59.79073244,62c50e9c1127f2cd403a315f,,,,,,,,,,,,,,,,,,,,,,,,,,,,,,,,,,,,,,,,,,,,,,,,,,,,,,,,,,,,,,,,,,,,,,,,,,,,,,,,,,,,,,,,,,,,,,,,,,,,,,,,,,,,,,,,,,,,,,,,,,,,,,,,,,,,,,,,,,,,,,,,,,,,,,,,,,,,,,,,,,,,
0,57,57,11,1,,5d36e9bf100e6c00187db8aa,62c5394b05352c4b7cc79222,2022-07-06_08h27.33.358,Colour_Asymmetry_Pilot,2022.1.3,Win32,59.79073244,62c50e9c1127f2cd403a315f,,,,,,,,,,,,,,,,,,,,,,,,,,,,,,,,,,,,,,,,,,,,,,,,,,,,,,,,,,,,,,,,,,,,,,,,,,,,,,,,,,,,,,,,,,,,,,,,,,,,,,,,,,,,,,,,,,,,,,,,,,,,,,,,,,,,,,,,,,,,,,,,,,,,,,,,,,,,,,,,,,,,
0,58,58,18,1,,5d36e9bf100e6c00187db8aa,62c5394b05352c4b7cc79222,2022-07-06_08h27.33.358,Colour_Asymmetry_Pilot,2022.1.3,Win32,59.79073244,62c50e9c1127f2cd403a315f,,,,,,,,,,,,,,,,,,,,,,,,,,,,,,,,,,,,,,,,,,,,,,,,,,,,,,,,,,,,,,,,,,,,,,,,,,,,,,,,,,,,,,,,,,,,,,,,,,,,,,,,,,,,,,,,,,,,,,,,,,,,,,,,,,,,,,,,,,,,,,,,,,,,,,,,,,,,,,,,,,,,
0,59,59,52,1,,5d36e9bf100e6c00187db8aa,62c5394b05352c4b7cc79222,2022-07-06_08h27.33.358,Colour_Asymmetry_Pilot,2022.1.3,Win32,59.79073244,62c50e9c1127f2cd403a315f,,,,,,,,,,,,,,,,,,,,,,,,,,,,,,,,,,,,,,,,,,,,,,,,,,,,,,,,,,,,,,,,,,,,,,,,,,,,,,,,,,,,,,,,,,,,,,,,,,,,,,,,,,,,,,,,,,,,,,,,,,,,,,,,,,,,,,,,,,,,,,,,,,,,,,,,,,,,,,,,,,,,
0,60,60,32,1,,5d36e9bf100e6c00187db8aa,62c5394b05352c4b7cc79222,2022-07-06_08h27.33.358,Colour_Asymmetry_Pilot,2022.1.3,Win32,59.79073244,62c50e9c1127f2cd403a315f,,,,,,,,,,,,,,,,,,,,,,,,,,,,,,,,,,,,,,,,,,,,,,,,,,,,,,,,,,,,,,,,,,,,,,,,,,,,,,,,,,,,,,,,,,,,,,,,,,,,,,,,,,,,,,,,,,,,,,,,,,,,,,,,,,,,,,,,,,,,,,,,,,,,,,,,,,,,,,,,,,,,
0,61,61,59,1,,5d36e9bf100e6c00187db8aa,62c5394b05352c4b7cc79222,2022-07-06_08h27.33.358,Colour_Asymmetry_Pilot,2022.1.3,Win32,59.79073244,62c50e9c1127f2cd403a315f,,,,,,,,,,,,,,,,,,,,,,,,,,,,,,,,,,,,,,,,,,,,,,,,,,,,,,,,,,,,,,,,,,,,,,,,,,,,,,,,,,,,,,,,,,,,,,,,,,,,,,,,,,,,,,,,,,,,,,,,,,,,,,,,,,,,,,,,,,,,,,,,,,,,,,,,,,,,,,,,,,,,
0,62,62,60,1,,5d36e9bf100e6c00187db8aa,62c5394b05352c4b7cc79222,2022-07-06_08h27.33.358,Colour_Asymmetry_Pilot,2022.1.3,Win32,59.79073244,62c50e9c1127f2cd403a315f,,,,,,,,,,,,,,,,,,,,,,,,,,,,,,,,,,,,,,,,,,,,,,,,,,,,,,,,,,,,,,,,,,,,,,,,,,,,,,,,,,,,,,,,,,,,,,,,,,,,,,,,,,,,,,,,,,,,,,,,,,,,,,,,,,,,,,,,,,,,,,,,,,,,,,,,,,,,,,,,,,,,
0,63,63,86,1,,5d36e9bf100e6c00187db8aa,62c5394b05352c4b7cc79222,2022-07-06_08h27.33.358,Colour_Asymmetry_Pilot,2022.1.3,Win32,59.79073244,62c50e9c1127f2cd403a315f,,,,,,,,,,,,,,,,,,,,,,,,,,,,,,,,,,,,,,,,,,,,,,,,,,,,,,,,,,,,,,,,,,,,,,,,,,,,,,,,,,,,,,,,,,,,,,,,,,,,,,,,,,,,,,,,,,,,,,,,,,,,,,,,,,,,,,,,,,,,,,,,,,,,,,,,,,,,,,,,,,,,
0,64,64,70,1,,5d36e9bf100e6c00187db8aa,62c5394b05352c4b7cc79222,2022-07-06_08h27.33.358,Colour_Asymmetry_Pilot,2022.1.3,Win32,59.79073244,62c50e9c1127f2cd403a315f,,,,,,,,,,,,,,,,,,,,,,,,,,,,,,,,,,,,,,,,,,,,,,,,,,,,,,,,,,,,,,,,,,,,,,,,,,,,,,,,,,,,,,,,,,,,,,,,,,,,,,,,,,,,,,,,,,,,,,,,,,,,,,,,,,,,,,,,,,,,,,,,,,,,,,,,,,,,,,,,,,,,
0,65,65,23,1,,5d36e9bf100e6c00187db8aa,62c5394b05352c4b7cc79222,2022-07-06_08h27.33.358,Colour_Asymmetry_Pilot,2022.1.3,Win32,59.79073244,62c50e9c1127f2cd403a315f,,,,,,,,,,,,,,,,,,,,,,,,,,,,,,,,,,,,,,,,,,,,,,,,,,,,,,,,,,,,,,,,,,,,,,,,,,,,,,,,,,,,,,,,,,,,,,,,,,,,,,,,,,,,,,,,,,,,,,,,,,,,,,,,,,,,,,,,,,,,,,,,,,,,,,,,,,,,,,,,,,,,
0,66,66,0,1,,5d36e9bf100e6c00187db8aa,62c5394b05352c4b7cc79222,2022-07-06_08h27.33.358,Colour_Asymmetry_Pilot,2022.1.3,Win32,59.79073244,62c50e9c1127f2cd403a315f,,,,,,,,,,,,,,,,,,,,,,,,,,,,,,,,,,,,,,,,,,,,,,,,,,,,,,,,,,,,,,,,,,,,,,,,,,,,,,,,,,,,,,,,,,,,,,,,,,,,,,,,,,,,,,,,,,,,,,,,,,,,,,,,,,,,,,,,,,,,,,,,,,,,,,,,,,,,,,,,,,,,
0,67,67,29,1,,5d36e9bf100e6c00187db8aa,62c5394b05352c4b7cc79222,2022-07-06_08h27.33.358,Colour_Asymmetry_Pilot,2022.1.3,Win32,59.79073244,62c50e9c1127f2cd403a315f,,,,,,,,,,,,,,,,,,,,,,,,,,,,,,,,,,,,,,,,,,,,,,,,,,,,,,,,,,,,,,,,,,,,,,,,,,,,,,,,,,,,,,,,,,,,,,,,,,,,,,,,,,,,,,,,,,,,,,,,,,,,,,,,,,,,,,,,,,,,,,,,,,,,,,,,,,,,,,,,,,,,
0,68,68,75,1,,5d36e9bf100e6c00187db8aa,62c5394b05352c4b7cc79222,2022-07-06_08h27.33.358,Colour_Asymmetry_Pilot,2022.1.3,Win32,59.79073244,62c50e9c1127f2cd403a315f,,,,,,,,,,,,,,,,,,,,,,,,,,,,,,,,,,,,,,,,,,,,,,,,,,,,,,,,,,,,,,,,,,,,,,,,,,,,,,,,,,,,,,,,,,,,,,,,,,,,,,,,,,,,,,,,,,,,,,,,,,,,,,,,,,,,,,,,,,,,,,,,,,,,,,,,,,,,,,,,,,,,
0,69,69,84,1,,5d36e9bf100e6c00187db8aa,62c5394b05352c4b7cc79222,2022-07-06_08h27.33.358,Colour_Asymmetry_Pilot,2022.1.3,Win32,59.79073244,62c50e9c1127f2cd403a315f,,,,,,,,,,,,,,,,,,,,,,,,,,,,,,,,,,,,,,,,,,,,,,,,,,,,,,,,,,,,,,,,,,,,,,,,,,,,,,,,,,,,,,,,,,,,,,,,,,,,,,,,,,,,,,,,,,,,,,,,,,,,,,,,,,,,,,,,,,,,,,,,,,,,,,,,,,,,,,,,,,,,
0,70,70,58,1,,5d36e9bf100e6c00187db8aa,62c5394b05352c4b7cc79222,2022-07-06_08h27.33.358,Colour_Asymmetry_Pilot,2022.1.3,Win32,59.79073244,62c50e9c1127f2cd403a315f,,,,,,,,,,,,,,,,,,,,,,,,,,,,,,,,,,,,,,,,,,,,,,,,,,,,,,,,,,,,,,,,,,,,,,,,,,,,,,,,,,,,,,,,,,,,,,,,,,,,,,,,,,,,,,,,,,,,,,,,,,,,,,,,,,,,,,,,,,,,,,,,,,,,,,,,,,,,,,,,,,,,
0,71,71,33,1,,5d36e9bf100e6c00187db8aa,62c5394b05352c4b7cc79222,2022-07-06_08h27.33.358,Colour_Asymmetry_Pilot,2022.1.3,Win32,59.79073244,62c50e9c1127f2cd403a315f,,,,,,,,,,,,,,,,,,,,,,,,,,,,,,,,,,,,,,,,,,,,,,,,,,,,,,,,,,,,,,,,,,,,,,,,,,,,,,,,,,,,,,,,,,,,,,,,,,,,,,,,,,,,,,,,,,,,,,,,,,,,,,,,,,,,,,,,,,,,,,,,,,,,,,,,,,,,,,,,,,,,
0,72,72,55,1,,5d36e9bf100e6c00187db8aa,62c5394b05352c4b7cc79222,2022-07-06_08h27.33.358,Colour_Asymmetry_Pilot,2022.1.3,Win32,59.79073244,62c50e9c1127f2cd403a315f,,,,,,,,,,,,,,,,,,,,,,,,,,,,,,,,,,,,,,,,,,,,,,,,,,,,,,,,,,,,,,,,,,,,,,,,,,,,,,,,,,,,,,,,,,,,,,,,,,,,,,,,,,,,,,,,,,,,,,,,,,,,,,,,,,,,,,,,,,,,,,,,,,,,,,,,,,,,,,,,,,,,
0,73,73,90,1,,5d36e9bf100e6c00187db8aa,62c5394b05352c4b7cc79222,2022-07-06_08h27.33.358,Colour_Asymmetry_Pilot,2022.1.3,Win32,59.79073244,62c50e9c1127f2cd403a315f,,,,,,,,,,,,,,,,,,,,,,,,,,,,,,,,,,,,,,,,,,,,,,,,,,,,,,,,,,,,,,,,,,,,,,,,,,,,,,,,,,,,,,,,,,,,,,,,,,,,,,,,,,,,,,,,,,,,,,,,,,,,,,,,,,,,,,,,,,,,,,,,,,,,,,,,,,,,,,,,,,,,
0,74,74,4,1,,5d36e9bf100e6c00187db8aa,62c5394b05352c4b7cc79222,2022-07-06_08h27.33.358,Colour_Asymmetry_Pilot,2022.1.3,Win32,59.79073244,62c50e9c1127f2cd403a315f,,,,,,,,,,,,,,,,,,,,,,,,,,,,,,,,,,,,,,,,,,,,,,,,,,,,,,,,,,,,,,,,,,,,,,,,,,,,,,,,,,,,,,,,,,,,,,,,,,,,,,,,,,,,,,,,,,,,,,,,,,,,,,,,,,,,,,,,,,,,,,,,,,,,,,,,,,,,,,,,,,,,
0,75,75,37,1,,5d36e9bf100e6c00187db8aa,62c5394b05352c4b7cc79222,2022-07-06_08h27.33.358,Colour_Asymmetry_Pilot,2022.1.3,Win32,59.79073244,62c50e9c1127f2cd403a315f,,,,,,,,,,,,,,,,,,,,,,,,,,,,,,,,,,,,,,,,,,,,,,,,,,,,,,,,,,,,,,,,,,,,,,,,,,,,,,,,,,,,,,,,,,,,,,,,,,,,,,,,,,,,,,,,,,,,,,,,,,,,,,,,,,,,,,,,,,,,,,,,,,,,,,,,,,,,,,,,,,,,
0,76,76,16,1,,5d36e9bf100e6c00187db8aa,62c5394b05352c4b7cc79222,2022-07-06_08h27.33.358,Colour_Asymmetry_Pilot,2022.1.3,Win32,59.79073244,62c50e9c1127f2cd403a315f,,,,,,,,,,,,,,,,,,,,,,,,,,,,,,,,,,,,,,,,,,,,,,,,,,,,,,,,,,,,,,,,,,,,,,,,,,,,,,,,,,,,,,,,,,,,,,,,,,,,,,,,,,,,,,,,,,,,,,,,,,,,,,,,,,,,,,,,,,,,,,,,,,,,,,,,,,,,,,,,,,,,
0,77,77,50,1,,5d36e9bf100e6c00187db8aa,62c5394b05352c4b7cc79222,2022-07-06_08h27.33.358,Colour_Asymmetry_Pilot,2022.1.3,Win32,59.79073244,62c50e9c1127f2cd403a315f,,,,,,,,,,,,,,,,,,,,,,,,,,,,,,,,,,,,,,,,,,,,,,,,,,,,,,,,,,,,,,,,,,,,,,,,,,,,,,,,,,,,,,,,,,,,,,,,,,,,,,,,,,,,,,,,,,,,,,,,,,,,,,,,,,,,,,,,,,,,,,,,,,,,,,,,,,,,,,,,,,,,
0,78,78,81,1,,5d36e9bf100e6c00187db8aa,62c5394b05352c4b7cc79222,2022-07-06_08h27.33.358,Colour_Asymmetry_Pilot,2022.1.3,Win32,59.79073244,62c50e9c1127f2cd403a315f,,,,,,,,,,,,,,,,,,,,,,,,,,,,,,,,,,,,,,,,,,,,,,,,,,,,,,,,,,,,,,,,,,,,,,,,,,,,,,,,,,,,,,,,,,,,,,,,,,,,,,,,,,,,,,,,,,,,,,,,,,,,,,,,,,,,,,,,,,,,,,,,,,,,,,,,,,,,,,,,,,,,
0,79,79,66,1,,5d36e9bf100e6c00187db8aa,62c5394b05352c4b7cc79222,2022-07-06_08h27.33.358,Colour_Asymmetry_Pilot,2022.1.3,Win32,59.79073244,62c50e9c1127f2cd403a315f,,,,,,,,,,,,,,,,,,,,,,,,,,,,,,,,,,,,,,,,,,,,,,,,,,,,,,,,,,,,,,,,,,,,,,,,,,,,,,,,,,,,,,,,,,,,,,,,,,,,,,,,,,,,,,,,,,,,,,,,,,,,,,,,,,,,,,,,,,,,,,,,,,,,,,,,,,,,,,,,,,,,
0,80,80,49,1,,5d36e9bf100e6c00187db8aa,62c5394b05352c4b7cc79222,2022-07-06_08h27.33.358,Colour_Asymmetry_Pilot,2022.1.3,Win32,59.79073244,62c50e9c1127f2cd403a315f,,,,,,,,,,,,,,,,,,,,,,,,,,,,,,,,,,,,,,,,,,,,,,,,,,,,,,,,,,,,,,,,,,,,,,,,,,,,,,,,,,,,,,,,,,,,,,,,,,,,,,,,,,,,,,,,,,,,,,,,,,,,,,,,,,,,,,,,,,,,,,,,,,,,,,,,,,,,,,,,,,,,
0,81,81,44,1,,5d36e9bf100e6c00187db8aa,62c5394b05352c4b7cc79222,2022-07-06_08h27.33.358,Colour_Asymmetry_Pilot,2022.1.3,Win32,59.79073244,62c50e9c1127f2cd403a315f,,,,,,,,,,,,,,,,,,,,,,,,,,,,,,,,,,,,,,,,,,,,,,,,,,,,,,,,,,,,,,,,,,,,,,,,,,,,,,,,,,,,,,,,,,,,,,,,,,,,,,,,,,,,,,,,,,,,,,,,,,,,,,,,,,,,,,,,,,,,,,,,,,,,,,,,,,,,,,,,,,,,
0,82,82,92,1,,5d36e9bf100e6c00187db8aa,62c5394b05352c4b7cc79222,2022-07-06_08h27.33.358,Colour_Asymmetry_Pilot,2022.1.3,Win32,59.79073244,62c50e9c1127f2cd403a315f,,,,,,,,,,,,,,,,,,,,,,,,,,,,,,,,,,,,,,,,,,,,,,,,,,,,,,,,,,,,,,,,,,,,,,,,,,,,,,,,,,,,,,,,,,,,,,,,,,,,,,,,,,,,,,,,,,,,,,,,,,,,,,,,,,,,,,,,,,,,,,,,,,,,,,,,,,,,,,,,,,,,
0,83,83,67,1,,5d36e9bf100e6c00187db8aa,62c5394b05352c4b7cc79222,2022-07-06_08h27.33.358,Colour_Asymmetry_Pilot,2022.1.3,Win32,59.79073244,62c50e9c1127f2cd403a315f,,,,,,,,,,,,,,,,,,,,,,,,,,,,,,,,,,,,,,,,,,,,,,,,,,,,,,,,,,,,,,,,,,,,,,,,,,,,,,,,,,,,,,,,,,,,,,,,,,,,,,,,,,,,,,,,,,,,,,,,,,,,,,,,,,,,,,,,,,,,,,,,,,,,,,,,,,,,,,,,,,,,
0,84,84,7,1,,5d36e9bf100e6c00187db8aa,62c5394b05352c4b7cc79222,2022-07-06_08h27.33.358,Colour_Asymmetry_Pilot,2022.1.3,Win32,59.79073244,62c50e9c1127f2cd403a315f,,,,,,,,,,,,,,,,,,,,,,,,,,,,,,,,,,,,,,,,,,,,,,,,,,,,,,,,,,,,,,,,,,,,,,,,,,,,,,,,,,,,,,,,,,,,,,,,,,,,,,,,,,,,,,,,,,,,,,,,,,,,,,,,,,,,,,,,,,,,,,,,,,,,,,,,,,,,,,,,,,,,
0,85,85,38,1,,5d36e9bf100e6c00187db8aa,62c5394b05352c4b7cc79222,2022-07-06_08h27.33.358,Colour_Asymmetry_Pilot,2022.1.3,Win32,59.79073244,62c50e9c1127f2cd403a315f,,,,,,,,,,,,,,,,,,,,,,,,,,,,,,,,,,,,,,,,,,,,,,,,,,,,,,,,,,,,,,,,,,,,,,,,,,,,,,,,,,,,,,,,,,,,,,,,,,,,,,,,,,,,,,,,,,,,,,,,,,,,,,,,,,,,,,,,,,,,,,,,,,,,,,,,,,,,,,,,,,,,
0,86,86,39,1,,5d36e9bf100e6c00187db8aa,62c5394b05352c4b7cc79222,2022-07-06_08h27.33.358,Colour_Asymmetry_Pilot,2022.1.3,Win32,59.79073244,62c50e9c1127f2cd403a315f,,,,,,,,,,,,,,,,,,,,,,,,,,,,,,,,,,,,,,,,,,,,,,,,,,,,,,,,,,,,,,,,,,,,,,,,,,,,,,,,,,,,,,,,,,,,,,,,,,,,,,,,,,,,,,,,,,,,,,,,,,,,,,,,,,,,,,,,,,,,,,,,,,,,,,,,,,,,,,,,,,,,
0,87,87,13,1,,5d36e9bf100e6c00187db8aa,62c5394b05352c4b7cc79222,2022-07-06_08h27.33.358,Colour_Asymmetry_Pilot,2022.1.3,Win32,59.79073244,62c50e9c1127f2cd403a315f,,,,,,,,,,,,,,,,,,,,,,,,,,,,,,,,,,,,,,,,,,,,,,,,,,,,,,,,,,,,,,,,,,,,,,,,,,,,,,,,,,,,,,,,,,,,,,,,,,,,,,,,,,,,,,,,,,,,,,,,,,,,,,,,,,,,,,,,,,,,,,,,,,,,,,,,,,,,,,,,,,,,
0,88,88,74,1,,5d36e9bf100e6c00187db8aa,62c5394b05352c4b7cc79222,2022-07-06_08h27.33.358,Colour_Asymmetry_Pilot,2022.1.3,Win32,59.79073244,62c50e9c1127f2cd403a315f,,,,,,,,,,,,,,,,,,,,,,,,,,,,,,,,,,,,,,,,,,,,,,,,,,,,,,,,,,,,,,,,,,,,,,,,,,,,,,,,,,,,,,,,,,,,,,,,,,,,,,,,,,,,,,,,,,,,,,,,,,,,,,,,,,,,,,,,,,,,,,,,,,,,,,,,,,,,,,,,,,,,
0,89,89,2,1,,5d36e9bf100e6c00187db8aa,62c5394b05352c4b7cc79222,2022-07-06_08h27.33.358,Colour_Asymmetry_Pilot,2022.1.3,Win32,59.79073244,62c50e9c1127f2cd403a315f,,,,,,,,,,,,,,,,,,,,,,,,,,,,,,,,,,,,,,,,,,,,,,,,,,,,,,,,,,,,,,,,,,,,,,,,,,,,,,,,,,,,,,,,,,,,,,,,,,,,,,,,,,,,,,,,,,,,,,,,,,,,,,,,,,,,,,,,,,,,,,,,,,,,,,,,,,,,,,,,,,,,
0,90,90,42,1,,5d36e9bf100e6c00187db8aa,62c5394b05352c4b7cc79222,2022-07-06_08h27.33.358,Colour_Asymmetry_Pilot,2022.1.3,Win32,59.79073244,62c50e9c1127f2cd403a315f,,,,,,,,,,,,,,,,,,,,,,,,,,,,,,,,,,,,,,,,,,,,,,,,,,,,,,,,,,,,,,,,,,,,,,,,,,,,,,,,,,,,,,,,,,,,,,,,,,,,,,,,,,,,,,,,,,,,,,,,,,,,,,,,,,,,,,,,,,,,,,,,,,,,,,,,,,,,,,,,,,,,
0,91,91,87,1,,5d36e9bf100e6c00187db8aa,62c5394b05352c4b7cc79222,2022-07-06_08h27.33.358,Colour_Asymmetry_Pilot,2022.1.3,Win32,59.79073244,62c50e9c1127f2cd403a315f,,,,,,,,,,,,,,,,,,,,,,,,,,,,,,,,,,,,,,,,,,,,,,,,,,,,,,,,,,,,,,,,,,,,,,,,,,,,,,,,,,,,,,,,,,,,,,,,,,,,,,,,,,,,,,,,,,,,,,,,,,,,,,,,,,,,,,,,,,,,,,,,,,,,,,,,,,,,,,,,,,,,
0,92,92,76,1,,5d36e9bf100e6c00187db8aa,62c5394b05352c4b7cc79222,2022-07-06_08h27.33.358,Colour_Asymmetry_Pilot,2022.1.3,Win32,59.79073244,62c50e9c1127f2cd403a315f,,,,,,,,,,,,,,,,,,,,,,,,,,,,,,,,,,,,,,,,,,,,,,,,,,,,,,,,,,,,,,,,,,,,,,,,,,,,,,,,,,,,,,,,,,,,,,,,,,,,,,,,,,,,,,,,,,,,,,,,,,,,,,,,,,,,,,,,,,,,,,,,,,,,,,,,,,,,,,,,,,,,
,,,,,,5d36e9bf100e6c00187db8aa,62c5394b05352c4b7cc79222,2022-07-06_08h27.33.358,Colour_Asymmetry_Pilot,2022.1.3,Win32,59.79073244,62c50e9c1127f2cd403a315f,0,0,0,63,1,fourthree,,,,,,,,,,,,,,,,,,,,,,,,,,,,,,,,,,,,,,,,,,,,,,,,,,,,,,,,,,,,,,,,,,,,,,,,,,,,,,,,,,,,,,,,,,,,,,,,,,,,,,,,,,,,,,,,,,,,,,,,,,,,,,,,,,,,,,,,,,,,,,,,,,,,,,,,,,,,,,
,,,,,,5d36e9bf100e6c00187db8aa,62c5394b05352c4b7cc79222,2022-07-06_08h27.33.358,Colour_Asymmetry_Pilot,2022.1.3,Win32,59.79073244,62c50e9c1127f2cd403a315f,0,1,1,139,1,twofour,,,,,,,,,,,,,,,,,,,,,,,,,,,,,,,,,,,,,,,,,,,,,,,,,,,,,,,,,,,,,,,,,,,,,,,,,,,,,,,,,,,,,,,,,,,,,,,,,,,,,,,,,,,,,,,,,,,,,,,,,,,,,,,,,,,,,,,,,,,,,,,,,,,,,,,,,,,,,,
,,,,,,5d36e9bf100e6c00187db8aa,62c5394b05352c4b7cc79222,2022-07-06_08h27.33.358,Colour_Asymmetry_Pilot,2022.1.3,Win32,59.79073244,62c50e9c1127f2cd403a315f,0,2,2,129,1,onethree,,,,,,,,,,,,,,,,,,,,,,,,,,,,,,,,,,,,,,,,,,,,,,,,,,,,,,,,,,,,,,,,,,,,,,,,,,,,,,,,,,,,,,,,,,,,,,,,,,,,,,,,,,,,,,,,,,,,,,,,,,,,,,,,,,,,,,,,,,,,,,,,,,,,,,,,,,,,,,
,,,,,,5d36e9bf100e6c00187db8aa,62c5394b05352c4b7cc79222,2022-07-06_08h27.33.358,Colour_Asymmetry_Pilot,2022.1.3,Win32,59.79073244,62c50e9c1127f2cd403a315f,0,3,3,152,1,onetwo,,,,,,,,,,,,,,,,,,,,,,,,,,,,,,,,,,,,,,,,,,,,,,,,,,,,,,,,,,,,,,,,,,,,,,,,,,,,,,,,,,,,,,,,,,,,,,,,,,,,,,,,,,,,,,,,,,,,,,,,,,,,,,,,,,,,,,,,,,,,,,,,,,,,,,,,,,,,,,
,,,,,,5d36e9bf100e6c00187db8aa,62c5394b05352c4b7cc79222,2022-07-06_08h27.33.358,Colour_Asymmetry_Pilot,2022.1.3,Win32,59.79073244,62c50e9c1127f2cd403a315f,0,4,4,32,1,onetwo,,,,,,,,,,,,,,,,,,,,,,,,,,,,,,,,,,,,,,,,,,,,,,,,,,,,,,,,,,,,,,,,,,,,,,,,,,,,,,,,,,,,,,,,,,,,,,,,,,,,,,,,,,,,,,,,,,,,,,,,,,,,,,,,,,,,,,,,,,,,,,,,,,,,,,,,,,,,,,
,,,,,,5d36e9bf100e6c00187db8aa,62c5394b05352c4b7cc79222,2022-07-06_08h27.33.358,Colour_Asymmetry_Pilot,2022.1.3,Win32,59.79073244,62c50e9c1127f2cd403a315f,0,5,5,124,1,threeone,,,,,,,,,,,,,,,,,,,,,,,,,,,,,,,,,,,,,,,,,,,,,,,,,,,,,,,,,,,,,,,,,,,,,,,,,,,,,,,,,,,,,,,,,,,,,,,,,,,,,,,,,,,,,,,,,,,,,,,,,,,,,,,,,,,,,,,,,,,,,,,,,,,,,,,,,,,,,,
,,,,,,5d36e9bf100e6c00187db8aa,62c5394b05352c4b7cc79222,2022-07-06_08h27.33.358,Colour_Asymmetry_Pilot,2022.1.3,Win32,59.79073244,62c50e9c1127f2cd403a315f,0,6,6,131,1,twofour,,,,,,,,,,,,,,,,,,,,,,,,,,,,,,,,,,,,,,,,,,,,,,,,,,,,,,,,,,,,,,,,,,,,,,,,,,,,,,,,,,,,,,,,,,,,,,,,,,,,,,,,,,,,,,,,,,,,,,,,,,,,,,,,,,,,,,,,,,,,,,,,,,,,,,,,,,,,,,
,,,,,,5d36e9bf100e6c00187db8aa,62c5394b05352c4b7cc79222,2022-07-06_08h27.33.358,Colour_Asymmetry_Pilot,2022.1.3,Win32,59.79073244,62c50e9c1127f2cd403a315f,0,7,7,30,1,fourtwo,,,,,,,,,,,,,,,,,,,,,,,,,,,,,,,,,,,,,,,,,,,,,,,,,,,,,,,,,,,,,,,,,,,,,,,,,,,,,,,,,,,,,,,,,,,,,,,,,,,,,,,,,,,,,,,,,,,,,,,,,,,,,,,,,,,,,,,,,,,,,,,,,,,,,,,,,,,,,,
,,,,,,5d36e9bf100e6c00187db8aa,62c5394b05352c4b7cc79222,2022-07-06_08h27.33.358,Colour_Asymmetry_Pilot,2022.1.3,Win32,59.79073244,62c50e9c1127f2cd403a315f,0,8,8,102,1,fourtwo,,,,,,,,,,,,,,,,,,,,,,,,,,,,,,,,,,,,,,,,,,,,,,,,,,,,,,,,,,,,,,,,,,,,,,,,,,,,,,,,,,,,,,,,,,,,,,,,,,,,,,,,,,,,,,,,,,,,,,,,,,,,,,,,,,,,,,,,,,,,,,,,,,,,,,,,,,,,,,
,,,,,,5d36e9bf100e6c00187db8aa,62c5394b05352c4b7cc79222,2022-07-06_08h27.33.358,Colour_Asymmetry_Pilot,2022.1.3,Win32,59.79073244,62c50e9c1127f2cd403a315f,0,9,9,38,1,fourtwo,,,,,,,,,,,,,,,,,,,,,,,,,,,,,,,,,,,,,,,,,,,,,,,,,,,,,,,,,,,,,,,,,,,,,,,,,,,,,,,,,,,,,,,,,,,,,,,,,,,,,,,,,,,,,,,,,,,,,,,,,,,,,,,,,,,,,,,,,,,,,,,,,,,,,,,,,,,,,,
,,,,,,5d36e9bf100e6c00187db8aa,62c5394b05352c4b7cc79222,2022-07-06_08h27.33.358,Colour_Asymmetry_Pilot,2022.1.3,Win32,59.79073244,62c50e9c1127f2cd403a315f,0,10,10,59,1,twofour,,,,,,,,,,,,,,,,,,,,,,,,,,,,,,,,,,,,,,,,,,,,,,,,,,,,,,,,,,,,,,,,,,,,,,,,,,,,,,,,,,,,,,,,,,,,,,,,,,,,,,,,,,,,,,,,,,,,,,,,,,,,,,,,,,,,,,,,,,,,,,,,,,,,,,,,,,,,,,
,,,,,,5d36e9bf100e6c00187db8aa,62c5394b05352c4b7cc79222,2022-07-06_08h27.33.358,Colour_Asymmetry_Pilot,2022.1.3,Win32,59.79073244,62c50e9c1127f2cd403a315f,0,11,11,135,1,fourthree,,,,,,,,,,,,,,,,,,,,,,,,,,,,,,,,,,,,,,,,,,,,,,,,,,,,,,,,,,,,,,,,,,,,,,,,,,,,,,,,,,,,,,,,,,,,,,,,,,,,,,,,,,,,,,,,,,,,,,,,,,,,,,,,,,,,,,,,,,,,,,,,,,,,,,,,,,,,,,
,,,,,,5d36e9bf100e6c00187db8aa,62c5394b05352c4b7cc79222,2022-07-06_08h27.33.358,Colour_Asymmetry_Pilot,2022.1.3,Win32,59.79073244,62c50e9c1127f2cd403a315f,0,12,12,145,1,onethree,,,,,,,,,,,,,,,,,,,,,,,,,,,,,,,,,,,,,,,,,,,,,,,,,,,,,,,,,,,,,,,,,,,,,,,,,,,,,,,,,,,,,,,,,,,,,,,,,,,,,,,,,,,,,,,,,,,,,,,,,,,,,,,,,,,,,,,,,,,,,,,,,,,,,,,,,,,,,,
,,,,,,5d36e9bf100e6c00187db8aa,62c5394b05352c4b7cc79222,2022-07-06_08h27.33.358,Colour_Asymmetry_Pilot,2022.1.3,Win32,59.79073244,62c50e9c1127f2cd403a315f,0,13,13,94,1,fourtwo,,,,,,,,,,,,,,,,,,,,,,,,,,,,,,,,,,,,,,,,,,,,,,,,,,,,,,,,,,,,,,,,,,,,,,,,,,,,,,,,,,,,,,,,,,,,,,,,,,,,,,,,,,,,,,,,,,,,,,,,,,,,,,,,,,,,,,,,,,,,,,,,,,,,,,,,,,,,,,
,,,,,,5d36e9bf100e6c00187db8aa,62c5394b05352c4b7cc79222,2022-07-06_08h27.33.358,Colour_Asymmetry_Pilot,2022.1.3,Win32,59.79073244,62c50e9c1127f2cd403a315f,0,14,14,53,1,threefour,,,,,,,,,,,,,,,,,,,,,,,,,,,,,,,,,,,,,,,,,,,,,,,,,,,,,,,,,,,,,,,,,,,,,,,,,,,,,,,,,,,,,,,,,,,,,,,,,,,,,,,,,,,,,,,,,,,,,,,,,,,,,,,,,,,,,,,,,,,,,,,,,,,,,,,,,,,,,,
,,,,,,5d36e9bf100e6c00187db8aa,62c5394b05352c4b7cc79222,2022-07-06_08h27.33.358,Colour_Asymmetry_Pilot,2022.1.3,Win32,59.79073244,62c50e9c1127f2cd403a315f,0,15,15,126,1,fourtwo,,,,,,,,,,,,,,,,,,,,,,,,,,,,,,,,,,,,,,,,,,,,,,,,,,,,,,,,,,,,,,,,,,,,,,,,,,,,,,,,,,,,,,,,,,,,,,,,,,,,,,,,,,,,,,,,,,,,,,,,,,,,,,,,,,,,,,,,,,,,,,,,,,,,,,,,,,,,,,
,,,,,,5d36e9bf100e6c00187db8aa,62c5394b05352c4b7cc79222,2022-07-06_08h27.33.358,Colour_Asymmetry_Pilot,2022.1.3,Win32,59.79073244,62c50e9c1127f2cd403a315f,0,16,16,7,1,fourthree,,,,,,,,,,,,,,,,,,,,,,,,,,,,,,,,,,,,,,,,,,,,,,,,,,,,,,,,,,,,,,,,,,,,,,,,,,,,,,,,,,,,,,,,,,,,,,,,,,,,,,,,,,,,,,,,,,,,,,,,,,,,,,,,,,,,,,,,,,,,,,,,,,,,,,,,,,,,,,
,,,,,,5d36e9bf100e6c00187db8aa,62c5394b05352c4b7cc79222,2022-07-06_08h27.33.358,Colour_Asymmetry_Pilot,2022.1.3,Win32,59.79073244,62c50e9c1127f2cd403a315f,0,17,17,14,1,fourtwo,,,,,,,,,,,,,,,,,,,,,,,,,,,,,,,,,,,,,,,,,,,,,,,,,,,,,,,,,,,,,,,,,,,,,,,,,,,,,,,,,,,,,,,,,,,,,,,,,,,,,,,,,,,,,,,,,,,,,,,,,,,,,,,,,,,,,,,,,,,,,,,,,,,,,,,,,,,,,,
,,,,,,5d36e9bf100e6c00187db8aa,62c5394b05352c4b7cc79222,2022-07-06_08h27.33.358,Colour_Asymmetry_Pilot,2022.1.3,Win32,59.79073244,62c50e9c1127f2cd403a315f,0,18,18,62,1,fourtwo,,,,,,,,,,,,,,,,,,,,,,,,,,,,,,,,,,,,,,,,,,,,,,,,,,,,,,,,,,,,,,,,,,,,,,,,,,,,,,,,,,,,,,,,,,,,,,,,,,,,,,,,,,,,,,,,,,,,,,,,,,,,,,,,,,,,,,,,,,,,,,,,,,,,,,,,,,,,,,
,,,,,,5d36e9bf100e6c00187db8aa,62c5394b05352c4b7cc79222,2022-07-06_08h27.33.358,Colour_Asymmetry_Pilot,2022.1.3,Win32,59.79073244,62c50e9c1127f2cd403a315f,0,19,19,93,1,threefour,,,,,,,,,,,,,,,,,,,,,,,,,,,,,,,,,,,,,,,,,,,,,,,,,,,,,,,,,,,,,,,,,,,,,,,,,,,,,,,,,,,,,,,,,,,,,,,,,,,,,,,,,,,,,,,,,,,,,,,,,,,,,,,,,,,,,,,,,,,,,,,,,,,,,,,,,,,,,,
,,,,,,5d36e9bf100e6c00187db8aa,62c5394b05352c4b7cc79222,2022-07-06_08h27.33.358,Colour_Asymmetry_Pilot,2022.1.3,Win32,59.79073244,62c50e9c1127f2cd403a315f,0,20,20,16,1,onetwo,,,,,,,,,,,,,,,,,,,,,,,,,,,,,,,,,,,,,,,,,,,,,,,,,,,,,,,,,,,,,,,,,,,,,,,,,,,,,,,,,,,,,,,,,,,,,,,,,,,,,,,,,,,,,,,,,,,,,,,,,,,,,,,,,,,,,,,,,,,,,,,,,,,,,,,,,,,,,,
,,,,,,5d36e9bf100e6c00187db8aa,62c5394b05352c4b7cc79222,2022-07-06_08h27.33.358,Colour_Asymmetry_Pilot,2022.1.3,Win32,59.79073244,62c50e9c1127f2cd403a315f,0,21,21,22,1,fourtwo,,,,,,,,,,,,,,,,,,,,,,,,,,,,,,,,,,,,,,,,,,,,,,,,,,,,,,,,,,,,,,,,,,,,,,,,,,,,,,,,,,,,,,,,,,,,,,,,,,,,,,,,,,,,,,,,,,,,,,,,,,,,,,,,,,,,,,,,,,,,,,,,,,,,,,,,,,,,,,
,,,,,,5d36e9bf100e6c00187db8aa,62c5394b05352c4b7cc79222,2022-07-06_08h27.33.358,Colour_Asymmetry_Pilot,2022.1.3,Win32,59.79073244,62c50e9c1127f2cd403a315f,0,22,22,40,1,onetwo,,,,,,,,,,,,,,,,,,,,,,,,,,,,,,,,,,,,,,,,,,,,,,,,,,,,,,,,,,,,,,,,,,,,,,,,,,,,,,,,,,,,,,,,,,,,,,,,,,,,,,,,,,,,,,,,,,,,,,,,,,,,,,,,,,,,,,,,,,,,,,,,,,,,,,,,,,,,,,
,,,,,,5d36e9bf100e6c00187db8aa,62c5394b05352c4b7cc79222,2022-07-06_08h27.33.358,Colour_Asymmetry_Pilot,2022.1.3,Win32,59.79073244,62c50e9c1127f2cd403a315f,0,23,23,89,1,onethree,,,,,,,,,,,,,,,,,,,,,,,,,,,,,,,,,,,,,,,,,,,,,,,,,,,,,,,,,,,,,,,,,,,,,,,,,,,,,,,,,,,,,,,,,,,,,,,,,,,,,,,,,,,,,,,,,,,,,,,,,,,,,,,,,,,,,,,,,,,,,,,,,,,,,,,,,,,,,,
,,,,,,5d36e9bf100e6c00187db8aa,62c5394b05352c4b7cc79222,2022-07-06_08h27.33.358,Colour_Asymmetry_Pilot,2022.1.3,Win32,59.79073244,62c50e9c1127f2cd403a315f,0,24,24,54,1,fourtwo,,,,,,,,,,,,,,,,,,,,,,,,,,,,,,,,,,,,,,,,,,,,,,,,,,,,,,,,,,,,,,,,,,,,,,,,,,,,,,,,,,,,,,,,,,,,,,,,,,,,,,,,,,,,,,,,,,,,,,,,,,,,,,,,,,,,,,,,,,,,,,,,,,,,,,,,,,,,,,
,,,,,,5d36e9bf100e6c00187db8aa,62c5394b05352c4b7cc79222,2022-07-06_08h27.33.358,Colour_Asymmetry_Pilot,2022.1.3,Win32,59.79073244,62c50e9c1127f2cd403a315f,0,25,25,84,1,threeone,,,,,,,,,,,,,,,,,,,,,,,,,,,,,,,,,,,,,,,,,,,,,,,,,,,,,,,,,,,,,,,,,,,,,,,,,,,,,,,,,,,,,,,,,,,,,,,,,,,,,,,,,,,,,,,,,,,,,,,,,,,,,,,,,,,,,,,,,,,,,,,,,,,,,,,,,,,,,,
,,,,,,5d36e9bf100e6c00187db8aa,62c5394b05352c4b7cc79222,2022-07-06_08h27.33.358,Colour_Asymmetry_Pilot,2022.1.3,Win32,59.79073244,62c50e9c1127f2cd403a315f,0,26,26,41,1,onethree,,,,,,,,,,,,,,,,,,,,,,,,,,,,,,,,,,,,,,,,,,,,,,,,,,,,,,,,,,,,,,,,,,,,,,,,,,,,,,,,,,,,,,,,,,,,,,,,,,,,,,,,,,,,,,,,,,,,,,,,,,,,,,,,,,,,,,,,,,,,,,,,,,,,,,,,,,,,,,
,,,,,,5d36e9bf100e6c00187db8aa,62c5394b05352c4b7cc79222,2022-07-06_08h27.33.358,Colour_Asymmetry_Pilot,2022.1.3,Win32,59.79073244,62c50e9c1127f2cd403a315f,0,27,27,101,1,threefour,,,,,,,,,,,,,,,,,,,,,,,,,,,,,,,,,,,,,,,,,,,,,,,,,,,,,,,,,,,,,,,,,,,,,,,,,,,,,,,,,,,,,,,,,,,,,,,,,,,,,,,,,,,,,,,,,,,,,,,,,,,,,,,,,,,,,,,,,,,,,,,,,,,,,,,,,,,,,,
,,,,,,5d36e9bf100e6c00187db8aa,62c5394b05352c4b7cc79222,2022-07-06_08h27.33.358,Colour_Asymmetry_Pilot,2022.1.3,Win32,59.79073244,62c50e9c1127f2cd403a315f,0,28,28,97,1,onethree,,,,,,,,,,,,,,,,,,,,,,,,,,,,,,,,,,,,,,,,,,,,,,,,,,,,,,,,,,,,,,,,,,,,,,,,,,,,,,,,,,,,,,,,,,,,,,,,,,,,,,,,,,,,,,,,,,,,,,,,,,,,,,,,,,,,,,,,,,,,,,,,,,,,,,,,,,,,,,
,,,,,,5d36e9bf100e6c00187db8aa,62c5394b05352c4b7cc79222,2022-07-06_08h27.33.358,Colour_Asymmetry_Pilot,2022.1.3,Win32,59.79073244,62c50e9c1127f2cd403a315f,0,29,29,159,1,fourthree,,,,,,,,,,,,,,,,,,,,,,,,,,,,,,,,,,,,,,,,,,,,,,,,,,,,,,,,,,,,,,,,,,,,,,,,,,,,,,,,,,,,,,,,,,,,,,,,,,,,,,,,,,,,,,,,,,,,,,,,,,,,,,,,,,,,,,,,,,,,,,,,,,,,,,,,,,,,,,
,,,,,,5d36e9bf100e6c00187db8aa,62c5394b05352c4b7cc79222,2022-07-06_08h27.33.358,Colour_Asymmetry_Pilot,2022.1.3,Win32,59.79073244,62c50e9c1127f2cd403a315f,0,30,30,58,1,twoone,,,,,,,,,,,,,,,,,,,,,,,,,,,,,,,,,,,,,,,,,,,,,,,,,,,,,,,,,,,,,,,,,,,,,,,,,,,,,,,,,,,,,,,,,,,,,,,,,,,,,,,,,,,,,,,,,,,,,,,,,,,,,,,,,,,,,,,,,,,,,,,,,,,,,,,,,,,,,,
,,,,,,5d36e9bf100e6c00187db8aa,62c5394b05352c4b7cc79222,2022-07-06_08h27.33.358,Colour_Asymmetry_Pilot,2022.1.3,Win32,59.79073244,62c50e9c1127f2cd403a315f,0,31,31,47,1,fourthree,,,,,,,,,,,,,,,,,,,,,,,,,,,,,,,,,,,,,,,,,,,,,,,,,,,,,,,,,,,,,,,,,,,,,,,,,,,,,,,,,,,,,,,,,,,,,,,,,,,,,,,,,,,,,,,,,,,,,,,,,,,,,,,,,,,,,,,,,,,,,,,,,,,,,,,,,,,,,,
,,,,,,5d36e9bf100e6c00187db8aa,62c5394b05352c4b7cc79222,2022-07-06_08h27.33.358,Colour_Asymmetry_Pilot,2022.1.3,Win32,59.79073244,62c50e9c1127f2cd403a315f,0,32,32,137,1,onethree,,,,,,,,,,,,,,,,,,,,,,,,,,,,,,,,,,,,,,,,,,,,,,,,,,,,,,,,,,,,,,,,,,,,,,,,,,,,,,,,,,,,,,,,,,,,,,,,,,,,,,,,,,,,,,,,,,,,,,,,,,,,,,,,,,,,,,,,,,,,,,,,,,,,,,,,,,,,,,
,,,,,,5d36e9bf100e6c00187db8aa,62c5394b05352c4b7cc79222,2022-07-06_08h27.33.358,Colour_Asymmetry_Pilot,2022.1.3,Win32,59.79073244,62c50e9c1127f2cd403a315f,0,33,33,8,1,onetwo,,,,,,,,,,,,,,,,,,,,,,,,,,,,,,,,,,,,,,,,,,,,,,,,,,,,,,,,,,,,,,,,,,,,,,,,,,,,,,,,,,,,,,,,,,,,,,,,,,,,,,,,,,,,,,,,,,,,,,,,,,,,,,,,,,,,,,,,,,,,,,,,,,,,,,,,,,,,,,
,,,,,,5d36e9bf100e6c00187db8aa,62c5394b05352c4b7cc79222,2022-07-06_08h27.33.358,Colour_Asymmetry_Pilot,2022.1.3,Win32,59.79073244,62c50e9c1127f2cd403a315f,0,34,34,18,1,twoone,,,,,,,,,,,,,,,,,,,,,,,,,,,,,,,,,,,,,,,,,,,,,,,,,,,,,,,,,,,,,,,,,,,,,,,,,,,,,,,,,,,,,,,,,,,,,,,,,,,,,,,,,,,,,,,,,,,,,,,,,,,,,,,,,,,,,,,,,,,,,,,,,,,,,,,,,,,,,,
,,,,,,5d36e9bf100e6c00187db8aa,62c5394b05352c4b7cc79222,2022-07-06_08h27.33.358,Colour_Asymmetry_Pilot,2022.1.3,Win32,59.79073244,62c50e9c1127f2cd403a315f,0,35,35,64,1,onetwo,,,,,,,,,,,,,,,,,,,,,,,,,,,,,,,,,,,,,,,,,,,,,,,,,,,,,,,,,,,,,,,,,,,,,,,,,,,,,,,,,,,,,,,,,,,,,,,,,,,,,,,,,,,,,,,,,,,,,,,,,,,,,,,,,,,,,,,,,,,,,,,,,,,,,,,,,,,,,,
,,,,,,5d36e9bf100e6c00187db8aa,62c5394b05352c4b7cc79222,2022-07-06_08h27.33.358,Colour_Asymmetry_Pilot,2022.1.3,Win32,59.79073244,62c50e9c1127f2cd403a315f,0,36,36,81,1,onethree,,,,,,,,,,,,,,,,,,,,,,,,,,,,,,,,,,,,,,,,,,,,,,,,,,,,,,,,,,,,,,,,,,,,,,,,,,,,,,,,,,,,,,,,,,,,,,,,,,,,,,,,,,,,,,,,,,,,,,,,,,,,,,,,,,,,,,,,,,,,,,,,,,,,,,,,,,,,,,
,,,,,,5d36e9bf100e6c00187db8aa,62c5394b05352c4b7cc79222,2022-07-06_08h27.33.358,Colour_Asymmetry_Pilot,2022.1.3,Win32,59.79073244,62c50e9c1127f2cd403a315f,0,37,37,92,1,threeone,,,,,,,,,,,,,,,,,,,,,,,,,,,,,,,,,,,,,,,,,,,,,,,,,,,,,,,,,,,,,,,,,,,,,,,,,,,,,,,,,,,,,,,,,,,,,,,,,,,,,,,,,,,,,,,,,,,,,,,,,,,,,,,,,,,,,,,,,,,,,,,,,,,,,,,,,,,,,,
,,,,,,5d36e9bf100e6c00187db8aa,62c5394b05352c4b7cc79222,2022-07-06_08h27.33.358,Colour_Asymmetry_Pilot,2022.1.3,Win32,59.79073244,62c50e9c1127f2cd403a315f,0,38,38,155,1,twofour,,,,,,,,,,,,,,,,,,,,,,,,,,,,,,,,,,,,,,,,,,,,,,,,,,,,,,,,,,,,,,,,,,,,,,,,,,,,,,,,,,,,,,,,,,,,,,,,,,,,,,,,,,,,,,,,,,,,,,,,,,,,,,,,,,,,,,,,,,,,,,,,,,,,,,,,,,,,,,
,,,,,,5d36e9bf100e6c00187db8aa,62c5394b05352c4b7cc79222,2022-07-06_08h27.33.358,Colour_Asymmetry_Pilot,2022.1.3,Win32,59.79073244,62c50e9c1127f2cd403a315f,0,39,39,117,1,threefour,,,,,,,,,,,,,,,,,,,,,,,,,,,,,,,,,,,,,,,,,,,,,,,,,,,,,,,,,,,,,,,,,,,,,,,,,,,,,,,,,,,,,,,,,,,,,,,,,,,,,,,,,,,,,,,,,,,,,,,,,,,,,,,,,,,,,,,,,,,,,,,,,,,,,,,,,,,,,,
,,,,,,5d36e9bf100e6c00187db8aa,62c5394b05352c4b7cc79222,2022-07-06_08h27.33.358,Colour_Asymmetry_Pilot,2022.1.3,Win32,59.79073244,62c50e9c1127f2cd403a315f,0,40,40,125,1,threefour,,,,,,,,,,,,,,,,,,,,,,,,,,,,,,,,,,,,,,,,,,,,,,,,,,,,,,,,,,,,,,,,,,,,,,,,,,,,,,,,,,,,,,,,,,,,,,,,,,,,,,,,,,,,,,,,,,,,,,,,,,,,,,,,,,,,,,,,,,,,,,,,,,,,,,,,,,,,,,
,,,,,,5d36e9bf100e6c00187db8aa,62c5394b05352c4b7cc79222,2022-07-06_08h27.33.358,Colour_Asymmetry_Pilot,2022.1.3,Win32,59.79073244,62c50e9c1127f2cd403a315f,0,41,41,35,1,twofour,,,,,,,,,,,,,,,,,,,,,,,,,,,,,,,,,,,,,,,,,,,,,,,,,,,,,,,,,,,,,,,,,,,,,,,,,,,,,,,,,,,,,,,,,,,,,,,,,,,,,,,,,,,,,,,,,,,,,,,,,,,,,,,,,,,,,,,,,,,,,,,,,,,,,,,,,,,,,,
,,,,,,5d36e9bf100e6c00187db8aa,62c5394b05352c4b7cc79222,2022-07-06_08h27.33.358,Colour_Asymmetry_Pilot,2022.1.3,Win32,59.79073244,62c50e9c1127f2cd403a315f,0,42,42,99,1,twofour,,,,,,,,,,,,,,,,,,,,,,,,,,,,,,,,,,,,,,,,,,,,,,,,,,,,,,,,,,,,,,,,,,,,,,,,,,,,,,,,,,,,,,,,,,,,,,,,,,,,,,,,,,,,,,,,,,,,,,,,,,,,,,,,,,,,,,,,,,,,,,,,,,,,,,,,,,,,,,
,,,,,,5d36e9bf100e6c00187db8aa,62c5394b05352c4b7cc79222,2022-07-06_08h27.33.358,Colour_Asymmetry_Pilot,2022.1.3,Win32,59.79073244,62c50e9c1127f2cd403a315f,0,43,43,130,1,twoone,,,,,,,,,,,,,,,,,,,,,,,,,,,,,,,,,,,,,,,,,,,,,,,,,,,,,,,,,,,,,,,,,,,,,,,,,,,,,,,,,,,,,,,,,,,,,,,,,,,,,,,,,,,,,,,,,,,,,,,,,,,,,,,,,,,,,,,,,,,,,,,,,,,,,,,,,,,,,,
,,,,,,5d36e9bf100e6c00187db8aa,62c5394b05352c4b7cc79222,2022-07-06_08h27.33.358,Colour_Asymmetry_Pilot,2022.1.3,Win32,59.79073244,62c50e9c1127f2cd403a315f,0,44,44,90,1,twoone,,,,,,,,,,,,,,,,,,,,,,,,,,,,,,,,,,,,,,,,,,,,,,,,,,,,,,,,,,,,,,,,,,,,,,,,,,,,,,,,,,,,,,,,,,,,,,,,,,,,,,,,,,,,,,,,,,,,,,,,,,,,,,,,,,,,,,,,,,,,,,,,,,,,,,,,,,,,,,
,,,,,,5d36e9bf100e6c00187db8aa,62c5394b05352c4b7cc79222,2022-07-06_08h27.33.358,Colour_Asymmetry_Pilot,2022.1.3,Win32,59.79073244,62c50e9c1127f2cd403a315f,0,45,45,79,1,fourthree,,,,,,,,,,,,,,,,,,,,,,,,,,,,,,,,,,,,,,,,,,,,,,,,,,,,,,,,,,,,,,,,,,,,,,,,,,,,,,,,,,,,,,,,,,,,,,,,,,,,,,,,,,,,,,,,,,,,,,,,,,,,,,,,,,,,,,,,,,,,,,,,,,,,,,,,,,,,,,
,,,,,,5d36e9bf100e6c00187db8aa,62c5394b05352c4b7cc79222,2022-07-06_08h27.33.358,Colour_Asymmetry_Pilot,2022.1.3,Win32,59.79073244,62c50e9c1127f2cd403a315f,0,46,46,27,1,twofour,,,,,,,,,,,,,,,,,,,,,,,,,,,,,,,,,,,,,,,,,,,,,,,,,,,,,,,,,,,,,,,,,,,,,,,,,,,,,,,,,,,,,,,,,,,,,,,,,,,,,,,,,,,,,,,,,,,,,,,,,,,,,,,,,,,,,,,,,,,,,,,,,,,,,,,,,,,,,,
,,,,,,5d36e9bf100e6c00187db8aa,62c5394b05352c4b7cc79222,2022-07-06_08h27.33.358,Colour_Asymmetry_Pilot,2022.1.3,Win32,59.79073244,62c50e9c1127f2cd403a315f,0,47,47,98,1,twoone,,,,,,,,,,,,,,,,,,,,,,,,,,,,,,,,,,,,,,,,,,,,,,,,,,,,,,,,,,,,,,,,,,,,,,,,,,,,,,,,,,,,,,,,,,,,,,,,,,,,,,,,,,,,,,,,,,,,,,,,,,,,,,,,,,,,,,,,,,,,,,,,,,,,,,,,,,,,,,
,,,,,,5d36e9bf100e6c00187db8aa,62c5394b05352c4b7cc79222,2022-07-06_08h27.33.358,Colour_Asymmetry_Pilot,2022.1.3,Win32,59.79073244,62c50e9c1127f2cd403a315f,0,48,48,143,1,fourthree,,,,,,,,,,,,,,,,,,,,,,,,,,,,,,,,,,,,,,,,,,,,,,,,,,,,,,,,,,,,,,,,,,,,,,,,,,,,,,,,,,,,,,,,,,,,,,,,,,,,,,,,,,,,,,,,,,,,,,,,,,,,,,,,,,,,,,,,,,,,,,,,,,,,,,,,,,,,,,
,,,,,,5d36e9bf100e6c00187db8aa,62c5394b05352c4b7cc79222,2022-07-06_08h27.33.358,Colour_Asymmetry_Pilot,2022.1.3,Win32,59.79073244,62c50e9c1127f2cd403a315f,0,49,49,132,1,threeone,,,,,,,,,,,,,,,,,,,,,,,,,,,,,,,,,,,,,,,,,,,,,,,,,,,,,,,,,,,,,,,,,,,,,,,,,,,,,,,,,,,,,,,,,,,,,,,,,,,,,,,,,,,,,,,,,,,,,,,,,,,,,,,,,,,,,,,,,,,,,,,,,,,,,,,,,,,,,,
,,,,,,5d36e9bf100e6c00187db8aa,62c5394b05352c4b7cc79222,2022-07-06_08h27.33.358,Colour_Asymmetry_Pilot,2022.1.3,Win32,59.79073244,62c50e9c1127f2cd403a315f,0,50,50,158,1,fourtwo,,,,,,,,,,,,,,,,,,,,,,,,,,,,,,,,,,,,,,,,,,,,,,,,,,,,,,,,,,,,,,,,,,,,,,,,,,,,,,,,,,,,,,,,,,,,,,,,,,,,,,,,,,,,,,,,,,,,,,,,,,,,,,,,,,,,,,,,,,,,,,,,,,,,,,,,,,,,,,
,,,,,,5d36e9bf100e6c00187db8aa,62c5394b05352c4b7cc79222,2022-07-06_08h27.33.358,Colour_Asymmetry_Pilot,2022.1.3,Win32,59.79073244,62c50e9c1127f2cd403a315f,0,51,51,20,1,threeone,,,,,,,,,,,,,,,,,,,,,,,,,,,,,,,,,,,,,,,,,,,,,,,,,,,,,,,,,,,,,,,,,,,,,,,,,,,,,,,,,,,,,,,,,,,,,,,,,,,,,,,,,,,,,,,,,,,,,,,,,,,,,,,,,,,,,,,,,,,,,,,,,,,,,,,,,,,,,,
,,,,,,5d36e9bf100e6c00187db8aa,62c5394b05352c4b7cc79222,2022-07-06_08h27.33.358,Colour_Asymmetry_Pilot,2022.1.3,Win32,59.79073244,62c50e9c1127f2cd403a315f,0,52,52,156,1,threeone,,,,,,,,,,,,,,,,,,,,,,,,,,,,,,,,,,,,,,,,,,,,,,,,,,,,,,,,,,,,,,,,,,,,,,,,,,,,,,,,,,,,,,,,,,,,,,,,,,,,,,,,,,,,,,,,,,,,,,,,,,,,,,,,,,,,,,,,,,,,,,,,,,,,,,,,,,,,,,
,,,,,,5d36e9bf100e6c00187db8aa,62c5394b05352c4b7cc79222,2022-07-06_08h27.33.358,Colour_Asymmetry_Pilot,2022.1.3,Win32,59.79073244,62c50e9c1127f2cd403a315f,0,53,53,68,1,threeone,,,,,,,,,,,,,,,,,,,,,,,,,,,,,,,,,,,,,,,,,,,,,,,,,,,,,,,,,,,,,,,,,,,,,,,,,,,,,,,,,,,,,,,,,,,,,,,,,,,,,,,,,,,,,,,,,,,,,,,,,,,,,,,,,,,,,,,,,,,,,,,,,,,,,,,,,,,,,,
,,,,,,5d36e9bf100e6c00187db8aa,62c5394b05352c4b7cc79222,2022-07-06_08h27.33.358,Colour_Asymmetry_Pilot,2022.1.3,Win32,59.79073244,62c50e9c1127f2cd403a315f,0,54,54,119,1,fourthree,,,,,,,,,,,,,,,,,,,,,,,,,,,,,,,,,,,,,,,,,,,,,,,,,,,,,,,,,,,,,,,,,,,,,,,,,,,,,,,,,,,,,,,,,,,,,,,,,,,,,,,,,,,,,,,,,,,,,,,,,,,,,,,,,,,,,,,,,,,,,,,,,,,,,,,,,,,,,,
,,,,,,5d36e9bf100e6c00187db8aa,62c5394b05352c4b7cc79222,2022-07-06_08h27.33.358,Colour_Asymmetry_Pilot,2022.1.3,Win32,59.79073244,62c50e9c1127f2cd403a315f,0,55,55,51,1,twofour,,,,,,,,,,,,,,,,,,,,,,,,,,,,,,,,,,,,,,,,,,,,,,,,,,,,,,,,,,,,,,,,,,,,,,,,,,,,,,,,,,,,,,,,,,,,,,,,,,,,,,,,,,,,,,,,,,,,,,,,,,,,,,,,,,,,,,,,,,,,,,,,,,,,,,,,,,,,,,
,,,,,,5d36e9bf100e6c00187db8aa,62c5394b05352c4b7cc79222,2022-07-06_08h27.33.358,Colour_Asymmetry_Pilot,2022.1.3,Win32,59.79073244,62c50e9c1127f2cd403a315f,0,56,56,111,1,fourthree,,,,,,,,,,,,,,,,,,,,,,,,,,,,,,,,,,,,,,,,,,,,,,,,,,,,,,,,,,,,,,,,,,,,,,,,,,,,,,,,,,,,,,,,,,,,,,,,,,,,,,,,,,,,,,,,,,,,,,,,,,,,,,,,,,,,,,,,,,,,,,,,,,,,,,,,,,,,,,
,,,,,,5d36e9bf100e6c00187db8aa,62c5394b05352c4b7cc79222,2022-07-06_08h27.33.358,Colour_Asymmetry_Pilot,2022.1.3,Win32,59.79073244,62c50e9c1127f2cd403a315f,0,57,57,83,1,twofour,,,,,,,,,,,,,,,,,,,,,,,,,,,,,,,,,,,,,,,,,,,,,,,,,,,,,,,,,,,,,,,,,,,,,,,,,,,,,,,,,,,,,,,,,,,,,,,,,,,,,,,,,,,,,,,,,,,,,,,,,,,,,,,,,,,,,,,,,,,,,,,,,,,,,,,,,,,,,,
,,,,,,5d36e9bf100e6c00187db8aa,62c5394b05352c4b7cc79222,2022-07-06_08h27.33.358,Colour_Asymmetry_Pilot,2022.1.3,Win32,59.79073244,62c50e9c1127f2cd403a315f,0,58,58,61,1,threefour,,,,,,,,,,,,,,,,,,,,,,,,,,,,,,,,,,,,,,,,,,,,,,,,,,,,,,,,,,,,,,,,,,,,,,,,,,,,,,,,,,,,,,,,,,,,,,,,,,,,,,,,,,,,,,,,,,,,,,,,,,,,,,,,,,,,,,,,,,,,,,,,,,,,,,,,,,,,,,
,,,,,,5d36e9bf100e6c00187db8aa,62c5394b05352c4b7cc79222,2022-07-06_08h27.33.358,Colour_Asymmetry_Pilot,2022.1.3,Win32,59.79073244,62c50e9c1127f2cd403a315f,0,59,59,151,1,fourthree,,,,,,,,,,,,,,,,,,,,,,,,,,,,,,,,,,,,,,,,,,,,,,,,,,,,,,,,,,,,,,,,,,,,,,,,,,,,,,,,,,,,,,,,,,,,,,,,,,,,,,,,,,,,,,,,,,,,,,,,,,,,,,,,,,,,,,,,,,,,,,,,,,,,,,,,,,,,,,
,,,,,,5d36e9bf100e6c00187db8aa,62c5394b05352c4b7cc79222,2022-07-06_08h27.33.358,Colour_Asymmetry_Pilot,2022.1.3,Win32,59.79073244,62c50e9c1127f2cd403a315f,0,60,60,15,1,fourthree,,,,,,,,,,,,,,,,,,,,,,,,,,,,,,,,,,,,,,,,,,,,,,,,,,,,,,,,,,,,,,,,,,,,,,,,,,,,,,,,,,,,,,,,,,,,,,,,,,,,,,,,,,,,,,,,,,,,,,,,,,,,,,,,,,,,,,,,,,,,,,,,,,,,,,,,,,,,,,
,,,,,,5d36e9bf100e6c00187db8aa,62c5394b05352c4b7cc79222,2022-07-06_08h27.33.358,Colour_Asymmetry_Pilot,2022.1.3,Win32,59.79073244,62c50e9c1127f2cd403a315f,0,61,61,67,1,twofour,,,,,,,,,,,,,,,,,,,,,,,,,,,,,,,,,,,,,,,,,,,,,,,,,,,,,,,,,,,,,,,,,,,,,,,,,,,,,,,,,,,,,,,,,,,,,,,,,,,,,,,,,,,,,,,,,,,,,,,,,,,,,,,,,,,,,,,,,,,,,,,,,,,,,,,,,,,,,,
,,,,,,5d36e9bf100e6c00187db8aa,62c5394b05352c4b7cc79222,2022-07-06_08h27.33.358,Colour_Asymmetry_Pilot,2022.1.3,Win32,59.79073244,62c50e9c1127f2cd403a315f,0,62,62,105,1,onethree,,,,,,,,,,,,,,,,,,,,,,,,,,,,,,,,,,,,,,,,,,,,,,,,,,,,,,,,,,,,,,,,,,,,,,,,,,,,,,,,,,,,,,,,,,,,,,,,,,,,,,,,,,,,,,,,,,,,,,,,,,,,,,,,,,,,,,,,,,,,,,,,,,,,,,,,,,,,,,
,,,,,,5d36e9bf100e6c00187db8aa,62c5394b05352c4b7cc79222,2022-07-06_08h27.33.358,Colour_Asymmetry_Pilot,2022.1.3,Win32,59.79073244,62c50e9c1127f2cd403a315f,0,63,63,121,1,onethree,,,,,,,,,,,,,,,,,,,,,,,,,,,,,,,,,,,,,,,,,,,,,,,,,,,,,,,,,,,,,,,,,,,,,,,,,,,,,,,,,,,,,,,,,,,,,,,,,,,,,,,,,,,,,,,,,,,,,,,,,,,,,,,,,,,,,,,,,,,,,,,,,,,,,,,,,,,,,,
,,,,,,5d36e9bf100e6c00187db8aa,62c5394b05352c4b7cc79222,2022-07-06_08h27.33.358,Colour_Asymmetry_Pilot,2022.1.3,Win32,59.79073244,62c50e9c1127f2cd403a315f,0,64,64,12,1,threeone,,,,,,,,,,,,,,,,,,,,,,,,,,,,,,,,,,,,,,,,,,,,,,,,,,,,,,,,,,,,,,,,,,,,,,,,,,,,,,,,,,,,,,,,,,,,,,,,,,,,,,,,,,,,,,,,,,,,,,,,,,,,,,,,,,,,,,,,,,,,,,,,,,,,,,,,,,,,,,
,,,,,,5d36e9bf100e6c00187db8aa,62c5394b05352c4b7cc79222,2022-07-06_08h27.33.358,Colour_Asymmetry_Pilot,2022.1.3,Win32,59.79073244,62c50e9c1127f2cd403a315f,0,65,65,136,1,onetwo,,,,,,,,,,,,,,,,,,,,,,,,,,,,,,,,,,,,,,,,,,,,,,,,,,,,,,,,,,,,,,,,,,,,,,,,,,,,,,,,,,,,,,,,,,,,,,,,,,,,,,,,,,,,,,,,,,,,,,,,,,,,,,,,,,,,,,,,,,,,,,,,,,,,,,,,,,,,,,
,,,,,,5d36e9bf100e6c00187db8aa,62c5394b05352c4b7cc79222,2022-07-06_08h27.33.358,Colour_Asymmetry_Pilot,2022.1.3,Win32,59.79073244,62c50e9c1127f2cd403a315f,0,66,66,46,1,fourtwo,,,,,,,,,,,,,,,,,,,,,,,,,,,,,,,,,,,,,,,,,,,,,,,,,,,,,,,,,,,,,,,,,,,,,,,,,,,,,,,,,,,,,,,,,,,,,,,,,,,,,,,,,,,,,,,,,,,,,,,,,,,,,,,,,,,,,,,,,,,,,,,,,,,,,,,,,,,,,,
,,,,,,5d36e9bf100e6c00187db8aa,62c5394b05352c4b7cc79222,2022-07-06_08h27.33.358,Colour_Asymmetry_Pilot,2022.1.3,Win32,59.79073244,62c50e9c1127f2cd403a315f,0,67,67,103,1,fourthree,,,,,,,,,,,,,,,,,,,,,,,,,,,,,,,,,,,,,,,,,,,,,,,,,,,,,,,,,,,,,,,,,,,,,,,,,,,,,,,,,,,,,,,,,,,,,,,,,,,,,,,,,,,,,,,,,,,,,,,,,,,,,,,,,,,,,,,,,,,,,,,,,,,,,,,,,,,,,,
,,,,,,5d36e9bf100e6c00187db8aa,62c5394b05352c4b7cc79222,2022-07-06_08h27.33.358,Colour_Asymmetry_Pilot,2022.1.3,Win32,59.79073244,62c50e9c1127f2cd403a315f,0,68,68,1,1,onethree,,,,,,,,,,,,,,,,,,,,,,,,,,,,,,,,,,,,,,,,,,,,,,,,,,,,,,,,,,,,,,,,,,,,,,,,,,,,,,,,,,,,,,,,,,,,,,,,,,,,,,,,,,,,,,,,,,,,,,,,,,,,,,,,,,,,,,,,,,,,,,,,,,,,,,,,,,,,,,
,,,,,,5d36e9bf100e6c00187db8aa,62c5394b05352c4b7cc79222,2022-07-06_08h27.33.358,Colour_Asymmetry_Pilot,2022.1.3,Win32,59.79073244,62c50e9c1127f2cd403a315f,0,69,69,113,1,onethree,,,,,,,,,,,,,,,,,,,,,,,,,,,,,,,,,,,,,,,,,,,,,,,,,,,,,,,,,,,,,,,,,,,,,,,,,,,,,,,,,,,,,,,,,,,,,,,,,,,,,,,,,,,,,,,,,,,,,,,,,,,,,,,,,,,,,,,,,,,,,,,,,,,,,,,,,,,,,,
,,,,,,5d36e9bf100e6c00187db8aa,62c5394b05352c4b7cc79222,2022-07-06_08h27.33.358,Colour_Asymmetry_Pilot,2022.1.3,Win32,59.79073244,62c50e9c1127f2cd403a315f,0,70,70,138,1,twoone,,,,,,,,,,,,,,,,,,,,,,,,,,,,,,,,,,,,,,,,,,,,,,,,,,,,,,,,,,,,,,,,,,,,,,,,,,,,,,,,,,,,,,,,,,,,,,,,,,,,,,,,,,,,,,,,,,,,,,,,,,,,,,,,,,,,,,,,,,,,,,,,,,,,,,,,,,,,,,
,,,,,,5d36e9bf100e6c00187db8aa,62c5394b05352c4b7cc79222,2022-07-06_08h27.33.358,Colour_Asymmetry_Pilot,2022.1.3,Win32,59.79073244,62c50e9c1127f2cd403a315f,0,71,71,104,1,onetwo,,,,,,,,,,,,,,,,,,,,,,,,,,,,,,,,,,,,,,,,,,,,,,,,,,,,,,,,,,,,,,,,,,,,,,,,,,,,,,,,,,,,,,,,,,,,,,,,,,,,,,,,,,,,,,,,,,,,,,,,,,,,,,,,,,,,,,,,,,,,,,,,,,,,,,,,,,,,,,
,,,,,,5d36e9bf100e6c00187db8aa,62c5394b05352c4b7cc79222,2022-07-06_08h27.33.358,Colour_Asymmetry_Pilot,2022.1.3,Win32,59.79073244,62c50e9c1127f2cd403a315f,0,72,72,77,1,threefour,,,,,,,,,,,,,,,,,,,,,,,,,,,,,,,,,,,,,,,,,,,,,,,,,,,,,,,,,,,,,,,,,,,,,,,,,,,,,,,,,,,,,,,,,,,,,,,,,,,,,,,,,,,,,,,,,,,,,,,,,,,,,,,,,,,,,,,,,,,,,,,,,,,,,,,,,,,,,,
,,,,,,5d36e9bf100e6c00187db8aa,62c5394b05352c4b7cc79222,2022-07-06_08h27.33.358,Colour_Asymmetry_Pilot,2022.1.3,Win32,59.79073244,62c50e9c1127f2cd403a315f,0,73,73,28,1,threeone,,,,,,,,,,,,,,,,,,,,,,,,,,,,,,,,,,,,,,,,,,,,,,,,,,,,,,,,,,,,,,,,,,,,,,,,,,,,,,,,,,,,,,,,,,,,,,,,,,,,,,,,,,,,,,,,,,,,,,,,,,,,,,,,,,,,,,,,,,,,,,,,,,,,,,,,,,,,,,
,,,,,,5d36e9bf100e6c00187db8aa,62c5394b05352c4b7cc79222,2022-07-06_08h27.33.358,Colour_Asymmetry_Pilot,2022.1.3,Win32,59.79073244,62c50e9c1127f2cd403a315f,0,74,74,10,1,twoone,,,,,,,,,,,,,,,,,,,,,,,,,,,,,,,,,,,,,,,,,,,,,,,,,,,,,,,,,,,,,,,,,,,,,,,,,,,,,,,,,,,,,,,,,,,,,,,,,,,,,,,,,,,,,,,,,,,,,,,,,,,,,,,,,,,,,,,,,,,,,,,,,,,,,,,,,,,,,,
,,,,,,5d36e9bf100e6c00187db8aa,62c5394b05352c4b7cc79222,2022-07-06_08h27.33.358,Colour_Asymmetry_Pilot,2022.1.3,Win32,59.79073244,62c50e9c1127f2cd403a315f,0,75,75,34,1,twoone,,,,,,,,,,,,,,,,,,,,,,,,,,,,,,,,,,,,,,,,,,,,,,,,,,,,,,,,,,,,,,,,,,,,,,,,,,,,,,,,,,,,,,,,,,,,,,,,,,,,,,,,,,,,,,,,,,,,,,,,,,,,,,,,,,,,,,,,,,,,,,,,,,,,,,,,,,,,,,
,,,,,,5d36e9bf100e6c00187db8aa,62c5394b05352c4b7cc79222,2022-07-06_08h27.33.358,Colour_Asymmetry_Pilot,2022.1.3,Win32,59.79073244,62c50e9c1127f2cd403a315f,0,76,76,109,1,threefour,,,,,,,,,,,,,,,,,,,,,,,,,,,,,,,,,,,,,,,,,,,,,,,,,,,,,,,,,,,,,,,,,,,,,,,,,,,,,,,,,,,,,,,,,,,,,,,,,,,,,,,,,,,,,,,,,,,,,,,,,,,,,,,,,,,,,,,,,,,,,,,,,,,,,,,,,,,,,,
,,,,,,5d36e9bf100e6c00187db8aa,62c5394b05352c4b7cc79222,2022-07-06_08h27.33.358,Colour_Asymmetry_Pilot,2022.1.3,Win32,59.79073244,62c50e9c1127f2cd403a315f,0,77,77,107,1,twofour,,,,,,,,,,,,,,,,,,,,,,,,,,,,,,,,,,,,,,,,,,,,,,,,,,,,,,,,,,,,,,,,,,,,,,,,,,,,,,,,,,,,,,,,,,,,,,,,,,,,,,,,,,,,,,,,,,,,,,,,,,,,,,,,,,,,,,,,,,,,,,,,,,,,,,,,,,,,,,
,,,,,,5d36e9bf100e6c00187db8aa,62c5394b05352c4b7cc79222,2022-07-06_08h27.33.358,Colour_Asymmetry_Pilot,2022.1.3,Win32,59.79073244,62c50e9c1127f2cd403a315f,0,78,78,100,1,threeone,,,,,,,,,,,,,,,,,,,,,,,,,,,,,,,,,,,,,,,,,,,,,,,,,,,,,,,,,,,,,,,,,,,,,,,,,,,,,,,,,,,,,,,,,,,,,,,,,,,,,,,,,,,,,,,,,,,,,,,,,,,,,,,,,,,,,,,,,,,,,,,,,,,,,,,,,,,,,,
,,,,,,5d36e9bf100e6c00187db8aa,62c5394b05352c4b7cc79222,2022-07-06_08h27.33.358,Colour_Asymmetry_Pilot,2022.1.3,Win32,59.79073244,62c50e9c1127f2cd403a315f,0,79,79,154,1,twoone,,,,,,,,,,,,,,,,,,,,,,,,,,,,,,,,,,,,,,,,,,,,,,,,,,,,,,,,,,,,,,,,,,,,,,,,,,,,,,,,,,,,,,,,,,,,,,,,,,,,,,,,,,,,,,,,,,,,,,,,,,,,,,,,,,,,,,,,,,,,,,,,,,,,,,,,,,,,,,
,,,,,,5d36e9bf100e6c00187db8aa,62c5394b05352c4b7cc79222,2022-07-06_08h27.33.358,Colour_Asymmetry_Pilot,2022.1.3,Win32,59.79073244,62c50e9c1127f2cd403a315f,0,80,80,88,1,onetwo,,,,,,,,,,,,,,,,,,,,,,,,,,,,,,,,,,,,,,,,,,,,,,,,,,,,,,,,,,,,,,,,,,,,,,,,,,,,,,,,,,,,,,,,,,,,,,,,,,,,,,,,,,,,,,,,,,,,,,,,,,,,,,,,,,,,,,,,,,,,,,,,,,,,,,,,,,,,,,
,,,,,,5d36e9bf100e6c00187db8aa,62c5394b05352c4b7cc79222,2022-07-06_08h27.33.358,Colour_Asymmetry_Pilot,2022.1.3,Win32,59.79073244,62c50e9c1127f2cd403a315f,0,81,81,74,1,twoone,,,,,,,,,,,,,,,,,,,,,,,,,,,,,,,,,,,,,,,,,,,,,,,,,,,,,,,,,,,,,,,,,,,,,,,,,,,,,,,,,,,,,,,,,,,,,,,,,,,,,,,,,,,,,,,,,,,,,,,,,,,,,,,,,,,,,,,,,,,,,,,,,,,,,,,,,,,,,,
,,,,,,5d36e9bf100e6c00187db8aa,62c5394b05352c4b7cc79222,2022-07-06_08h27.33.358,Colour_Asymmetry_Pilot,2022.1.3,Win32,59.79073244,62c50e9c1127f2cd403a315f,0,82,82,85,1,threefour,,,,,,,,,,,,,,,,,,,,,,,,,,,,,,,,,,,,,,,,,,,,,,,,,,,,,,,,,,,,,,,,,,,,,,,,,,,,,,,,,,,,,,,,,,,,,,,,,,,,,,,,,,,,,,,,,,,,,,,,,,,,,,,,,,,,,,,,,,,,,,,,,,,,,,,,,,,,,,
,,,,,,5d36e9bf100e6c00187db8aa,62c5394b05352c4b7cc79222,2022-07-06_08h27.33.358,Colour_Asymmetry_Pilot,2022.1.3,Win32,59.79073244,62c50e9c1127f2cd403a315f,0,83,83,91,1,twofour,,,,,,,,,,,,,,,,,,,,,,,,,,,,,,,,,,,,,,,,,,,,,,,,,,,,,,,,,,,,,,,,,,,,,,,,,,,,,,,,,,,,,,,,,,,,,,,,,,,,,,,,,,,,,,,,,,,,,,,,,,,,,,,,,,,,,,,,,,,,,,,,,,,,,,,,,,,,,,
,,,,,,5d36e9bf100e6c00187db8aa,62c5394b05352c4b7cc79222,2022-07-06_08h27.33.358,Colour_Asymmetry_Pilot,2022.1.3,Win32,59.79073244,62c50e9c1127f2cd403a315f,0,84,84,114,1,twoone,,,,,,,,,,,,,,,,,,,,,,,,,,,,,,,,,,,,,,,,,,,,,,,,,,,,,,,,,,,,,,,,,,,,,,,,,,,,,,,,,,,,,,,,,,,,,,,,,,,,,,,,,,,,,,,,,,,,,,,,,,,,,,,,,,,,,,,,,,,,,,,,,,,,,,,,,,,,,,
,,,,,,5d36e9bf100e6c00187db8aa,62c5394b05352c4b7cc79222,2022-07-06_08h27.33.358,Colour_Asymmetry_Pilot,2022.1.3,Win32,59.79073244,62c50e9c1127f2cd403a315f,0,85,85,128,1,onetwo,,,,,,,,,,,,,,,,,,,,,,,,,,,,,,,,,,,,,,,,,,,,,,,,,,,,,,,,,,,,,,,,,,,,,,,,,,,,,,,,,,,,,,,,,,,,,,,,,,,,,,,,,,,,,,,,,,,,,,,,,,,,,,,,,,,,,,,,,,,,,,,,,,,,,,,,,,,,,,
,,,,,,5d36e9bf100e6c00187db8aa,62c5394b05352c4b7cc79222,2022-07-06_08h27.33.358,Colour_Asymmetry_Pilot,2022.1.3,Win32,59.79073244,62c50e9c1127f2cd403a315f,0,86,86,123,1,twofour,,,,,,,,,,,,,,,,,,,,,,,,,,,,,,,,,,,,,,,,,,,,,,,,,,,,,,,,,,,,,,,,,,,,,,,,,,,,,,,,,,,,,,,,,,,,,,,,,,,,,,,,,,,,,,,,,,,,,,,,,,,,,,,,,,,,,,,,,,,,,,,,,,,,,,,,,,,,,,
,,,,,,5d36e9bf100e6c00187db8aa,62c5394b05352c4b7cc79222,2022-07-06_08h27.33.358,Colour_Asymmetry_Pilot,2022.1.3,Win32,59.79073244,62c50e9c1127f2cd403a315f,0,87,87,120,1,onetwo,,,,,,,,,,,,,,,,,,,,,,,,,,,,,,,,,,,,,,,,,,,,,,,,,,,,,,,,,,,,,,,,,,,,,,,,,,,,,,,,,,,,,,,,,,,,,,,,,,,,,,,,,,,,,,,,,,,,,,,,,,,,,,,,,,,,,,,,,,,,,,,,,,,,,,,,,,,,,,
,,,,,,5d36e9bf100e6c00187db8aa,62c5394b05352c4b7cc79222,2022-07-06_08h27.33.358,Colour_Asymmetry_Pilot,2022.1.3,Win32,59.79073244,62c50e9c1127f2cd403a315f,0,88,88,127,1,fourthree,,,,,,,,,,,,,,,,,,,,,,,,,,,,,,,,,,,,,,,,,,,,,,,,,,,,,,,,,,,,,,,,,,,,,,,,,,,,,,,,,,,,,,,,,,,,,,,,,,,,,,,,,,,,,,,,,,,,,,,,,,,,,,,,,,,,,,,,,,,,,,,,,,,,,,,,,,,,,,
,,,,,,5d36e9bf100e6c00187db8aa,62c5394b05352c4b7cc79222,2022-07-06_08h27.33.358,Colour_Asymmetry_Pilot,2022.1.3,Win32,59.79073244,62c50e9c1127f2cd403a315f,0,89,89,86,1,fourtwo,,,,,,,,,,,,,,,,,,,,,,,,,,,,,,,,,,,,,,,,,,,,,,,,,,,,,,,,,,,,,,,,,,,,,,,,,,,,,,,,,,,,,,,,,,,,,,,,,,,,,,,,,,,,,,,,,,,,,,,,,,,,,,,,,,,,,,,,,,,,,,,,,,,,,,,,,,,,,,
,,,,,,5d36e9bf100e6c00187db8aa,62c5394b05352c4b7cc79222,2022-07-06_08h27.33.358,Colour_Asymmetry_Pilot,2022.1.3,Win32,59.79073244,62c50e9c1127f2cd403a315f,0,90,90,11,1,twofour,,,,,,,,,,,,,,,,,,,,,,,,,,,,,,,,,,,,,,,,,,,,,,,,,,,,,,,,,,,,,,,,,,,,,,,,,,,,,,,,,,,,,,,,,,,,,,,,,,,,,,,,,,,,,,,,,,,,,,,,,,,,,,,,,,,,,,,,,,,,,,,,,,,,,,,,,,,,,,
,,,,,,5d36e9bf100e6c00187db8aa,62c5394b05352c4b7cc79222,2022-07-06_08h27.33.358,Colour_Asymmetry_Pilot,2022.1.3,Win32,59.79073244,62c50e9c1127f2cd403a315f,0,91,91,45,1,threefour,,,,,,,,,,,,,,,,,,,,,,,,,,,,,,,,,,,,,,,,,,,,,,,,,,,,,,,,,,,,,,,,,,,,,,,,,,,,,,,,,,,,,,,,,,,,,,,,,,,,,,,,,,,,,,,,,,,,,,,,,,,,,,,,,,,,,,,,,,,,,,,,,,,,,,,,,,,,,,
,,,,,,5d36e9bf100e6c00187db8aa,62c5394b05352c4b7cc79222,2022-07-06_08h27.33.358,Colour_Asymmetry_Pilot,2022.1.3,Win32,59.79073244,62c50e9c1127f2cd403a315f,0,92,92,0,1,onetwo,,,,,,,,,,,,,,,,,,,,,,,,,,,,,,,,,,,,,,,,,,,,,,,,,,,,,,,,,,,,,,,,,,,,,,,,,,,,,,,,,,,,,,,,,,,,,,,,,,,,,,,,,,,,,,,,,,,,,,,,,,,,,,,,,,,,,,,,,,,,,,,,,,,,,,,,,,,,,,
,,,,,,5d36e9bf100e6c00187db8aa,62c5394b05352c4b7cc79222,2022-07-06_08h27.33.358,Colour_Asymmetry_Pilot,2022.1.3,Win32,59.79073244,62c50e9c1127f2cd403a315f,0,93,93,153,1,onethree,,,,,,,,,,,,,,,,,,,,,,,,,,,,,,,,,,,,,,,,,,,,,,,,,,,,,,,,,,,,,,,,,,,,,,,,,,,,,,,,,,,,,,,,,,,,,,,,,,,,,,,,,,,,,,,,,,,,,,,,,,,,,,,,,,,,,,,,,,,,,,,,,,,,,,,,,,,,,,
,,,,,,5d36e9bf100e6c00187db8aa,62c5394b05352c4b7cc79222,2022-07-06_08h27.33.358,Colour_Asymmetry_Pilot,2022.1.3,Win32,59.79073244,62c50e9c1127f2cd403a315f,0,94,94,144,1,onetwo,,,,,,,,,,,,,,,,,,,,,,,,,,,,,,,,,,,,,,,,,,,,,,,,,,,,,,,,,,,,,,,,,,,,,,,,,,,,,,,,,,,,,,,,,,,,,,,,,,,,,,,,,,,,,,,,,,,,,,,,,,,,,,,,,,,,,,,,,,,,,,,,,,,,,,,,,,,,,,
,,,,,,5d36e9bf100e6c00187db8aa,62c5394b05352c4b7cc79222,2022-07-06_08h27.33.358,Colour_Asymmetry_Pilot,2022.1.3,Win32,59.79073244,62c50e9c1127f2cd403a315f,0,95,95,66,1,twoone,,,,,,,,,,,,,,,,,,,,,,,,,,,,,,,,,,,,,,,,,,,,,,,,,,,,,,,,,,,,,,,,,,,,,,,,,,,,,,,,,,,,,,,,,,,,,,,,,,,,,,,,,,,,,,,,,,,,,,,,,,,,,,,,,,,,,,,,,,,,,,,,,,,,,,,,,,,,,,
,,,,,,5d36e9bf100e6c00187db8aa,62c5394b05352c4b7cc79222,2022-07-06_08h27.33.358,Colour_Asymmetry_Pilot,2022.1.3,Win32,59.79073244,62c50e9c1127f2cd403a315f,0,96,96,4,1,threeone,,,,,,,,,,,,,,,,,,,,,,,,,,,,,,,,,,,,,,,,,,,,,,,,,,,,,,,,,,,,,,,,,,,,,,,,,,,,,,,,,,,,,,,,,,,,,,,,,,,,,,,,,,,,,,,,,,,,,,,,,,,,,,,,,,,,,,,,,,,,,,,,,,,,,,,,,,,,,,
,,,,,,5d36e9bf100e6c00187db8aa,62c5394b05352c4b7cc79222,2022-07-06_08h27.33.358,Colour_Asymmetry_Pilot,2022.1.3,Win32,59.79073244,62c50e9c1127f2cd403a315f,0,97,97,44,1,threeone,,,,,,,,,,,,,,,,,,,,,,,,,,,,,,,,,,,,,,,,,,,,,,,,,,,,,,,,,,,,,,,,,,,,,,,,,,,,,,,,,,,,,,,,,,,,,,,,,,,,,,,,,,,,,,,,,,,,,,,,,,,,,,,,,,,,,,,,,,,,,,,,,,,,,,,,,,,,,,
,,,,,,5d36e9bf100e6c00187db8aa,62c5394b05352c4b7cc79222,2022-07-06_08h27.33.358,Colour_Asymmetry_Pilot,2022.1.3,Win32,59.79073244,62c50e9c1127f2cd403a315f,0,98,98,108,1,threeone,,,,,,,,,,,,,,,,,,,,,,,,,,,,,,,,,,,,,,,,,,,,,,,,,,,,,,,,,,,,,,,,,,,,,,,,,,,,,,,,,,,,,,,,,,,,,,,,,,,,,,,,,,,,,,,,,,,,,,,,,,,,,,,,,,,,,,,,,,,,,,,,,,,,,,,,,,,,,,
,,,,,,5d36e9bf100e6c00187db8aa,62c5394b05352c4b7cc79222,2022-07-06_08h27.33.358,Colour_Asymmetry_Pilot,2022.1.3,Win32,59.79073244,62c50e9c1127f2cd403a315f,0,99,99,78,1,fourtwo,,,,,,,,,,,,,,,,,,,,,,,,,,,,,,,,,,,,,,,,,,,,,,,,,,,,,,,,,,,,,,,,,,,,,,,,,,,,,,,,,,,,,,,,,,,,,,,,,,,,,,,,,,,,,,,,,,,,,,,,,,,,,,,,,,,,,,,,,,,,,,,,,,,,,,,,,,,,,,
,,,,,,5d36e9bf100e6c00187db8aa,62c5394b05352c4b7cc79222,2022-07-06_08h27.33.358,Colour_Asymmetry_Pilot,2022.1.3,Win32,59.79073244,62c50e9c1127f2cd403a315f,0,100,100,23,1,fourthree,,,,,,,,,,,,,,,,,,,,,,,,,,,,,,,,,,,,,,,,,,,,,,,,,,,,,,,,,,,,,,,,,,,,,,,,,,,,,,,,,,,,,,,,,,,,,,,,,,,,,,,,,,,,,,,,,,,,,,,,,,,,,,,,,,,,,,,,,,,,,,,,,,,,,,,,,,,,,,
,,,,,,5d36e9bf100e6c00187db8aa,62c5394b05352c4b7cc79222,2022-07-06_08h27.33.358,Colour_Asymmetry_Pilot,2022.1.3,Win32,59.79073244,62c50e9c1127f2cd403a315f,0,101,101,9,1,onethree,,,,,,,,,,,,,,,,,,,,,,,,,,,,,,,,,,,,,,,,,,,,,,,,,,,,,,,,,,,,,,,,,,,,,,,,,,,,,,,,,,,,,,,,,,,,,,,,,,,,,,,,,,,,,,,,,,,,,,,,,,,,,,,,,,,,,,,,,,,,,,,,,,,,,,,,,,,,,,
,,,,,,5d36e9bf100e6c00187db8aa,62c5394b05352c4b7cc79222,2022-07-06_08h27.33.358,Colour_Asymmetry_Pilot,2022.1.3,Win32,59.79073244,62c50e9c1127f2cd403a315f,0,102,102,25,1,onethree,,,,,,,,,,,,,,,,,,,,,,,,,,,,,,,,,,,,,,,,,,,,,,,,,,,,,,,,,,,,,,,,,,,,,,,,,,,,,,,,,,,,,,,,,,,,,,,,,,,,,,,,,,,,,,,,,,,,,,,,,,,,,,,,,,,,,,,,,,,,,,,,,,,,,,,,,,,,,,
,,,,,,5d36e9bf100e6c00187db8aa,62c5394b05352c4b7cc79222,2022-07-06_08h27.33.358,Colour_Asymmetry_Pilot,2022.1.3,Win32,59.79073244,62c50e9c1127f2cd403a315f,0,103,103,17,1,onethree,,,,,,,,,,,,,,,,,,,,,,,,,,,,,,,,,,,,,,,,,,,,,,,,,,,,,,,,,,,,,,,,,,,,,,,,,,,,,,,,,,,,,,,,,,,,,,,,,,,,,,,,,,,,,,,,,,,,,,,,,,,,,,,,,,,,,,,,,,,,,,,,,,,,,,,,,,,,,,
,,,,,,5d36e9bf100e6c00187db8aa,62c5394b05352c4b7cc79222,2022-07-06_08h27.33.358,Colour_Asymmetry_Pilot,2022.1.3,Win32,59.79073244,62c50e9c1127f2cd403a315f,0,104,104,52,1,threeone,,,,,,,,,,,,,,,,,,,,,,,,,,,,,,,,,,,,,,,,,,,,,,,,,,,,,,,,,,,,,,,,,,,,,,,,,,,,,,,,,,,,,,,,,,,,,,,,,,,,,,,,,,,,,,,,,,,,,,,,,,,,,,,,,,,,,,,,,,,,,,,,,,,,,,,,,,,,,,
,,,,,,5d36e9bf100e6c00187db8aa,62c5394b05352c4b7cc79222,2022-07-06_08h27.33.358,Colour_Asymmetry_Pilot,2022.1.3,Win32,59.79073244,62c50e9c1127f2cd403a315f,0,105,105,57,1,onethree,,,,,,,,,,,,,,,,,,,,,,,,,,,,,,,,,,,,,,,,,,,,,,,,,,,,,,,,,,,,,,,,,,,,,,,,,,,,,,,,,,,,,,,,,,,,,,,,,,,,,,,,,,,,,,,,,,,,,,,,,,,,,,,,,,,,,,,,,,,,,,,,,,,,,,,,,,,,,,
,,,,,,5d36e9bf100e6c00187db8aa,62c5394b05352c4b7cc79222,2022-07-06_08h27.33.358,Colour_Asymmetry_Pilot,2022.1.3,Win32,59.79073244,62c50e9c1127f2cd403a315f,0,106,106,5,1,threefour,,,,,,,,,,,,,,,,,,,,,,,,,,,,,,,,,,,,,,,,,,,,,,,,,,,,,,,,,,,,,,,,,,,,,,,,,,,,,,,,,,,,,,,,,,,,,,,,,,,,,,,,,,,,,,,,,,,,,,,,,,,,,,,,,,,,,,,,,,,,,,,,,,,,,,,,,,,,,,
,,,,,,5d36e9bf100e6c00187db8aa,62c5394b05352c4b7cc79222,2022-07-06_08h27.33.358,Colour_Asymmetry_Pilot,2022.1.3,Win32,59.79073244,62c50e9c1127f2cd403a315f,0,107,107,56,1,onetwo,,,,,,,,,,,,,,,,,,,,,,,,,,,,,,,,,,,,,,,,,,,,,,,,,,,,,,,,,,,,,,,,,,,,,,,,,,,,,,,,,,,,,,,,,,,,,,,,,,,,,,,,,,,,,,,,,,,,,,,,,,,,,,,,,,,,,,,,,,,,,,,,,,,,,,,,,,,,,,
,,,,,,5d36e9bf100e6c00187db8aa,62c5394b05352c4b7cc79222,2022-07-06_08h27.33.358,Colour_Asymmetry_Pilot,2022.1.3,Win32,59.79073244,62c50e9c1127f2cd403a315f,0,108,108,146,1,twoone,,,,,,,,,,,,,,,,,,,,,,,,,,,,,,,,,,,,,,,,,,,,,,,,,,,,,,,,,,,,,,,,,,,,,,,,,,,,,,,,,,,,,,,,,,,,,,,,,,,,,,,,,,,,,,,,,,,,,,,,,,,,,,,,,,,,,,,,,,,,,,,,,,,,,,,,,,,,,,
,,,,,,5d36e9bf100e6c00187db8aa,62c5394b05352c4b7cc79222,2022-07-06_08h27.33.358,Colour_Asymmetry_Pilot,2022.1.3,Win32,59.79073244,62c50e9c1127f2cd403a315f,0,109,109,95,1,fourthree,,,,,,,,,,,,,,,,,,,,,,,,,,,,,,,,,,,,,,,,,,,,,,,,,,,,,,,,,,,,,,,,,,,,,,,,,,,,,,,,,,,,,,,,,,,,,,,,,,,,,,,,,,,,,,,,,,,,,,,,,,,,,,,,,,,,,,,,,,,,,,,,,,,,,,,,,,,,,,
,,,,,,5d36e9bf100e6c00187db8aa,62c5394b05352c4b7cc79222,2022-07-06_08h27.33.358,Colour_Asymmetry_Pilot,2022.1.3,Win32,59.79073244,62c50e9c1127f2cd403a315f,0,110,110,39,1,fourthree,,,,,,,,,,,,,,,,,,,,,,,,,,,,,,,,,,,,,,,,,,,,,,,,,,,,,,,,,,,,,,,,,,,,,,,,,,,,,,,,,,,,,,,,,,,,,,,,,,,,,,,,,,,,,,,,,,,,,,,,,,,,,,,,,,,,,,,,,,,,,,,,,,,,,,,,,,,,,,
,,,,,,5d36e9bf100e6c00187db8aa,62c5394b05352c4b7cc79222,2022-07-06_08h27.33.358,Colour_Asymmetry_Pilot,2022.1.3,Win32,59.79073244,62c50e9c1127f2cd403a315f,0,111,111,3,1,twofour,,,,,,,,,,,,,,,,,,,,,,,,,,,,,,,,,,,,,,,,,,,,,,,,,,,,,,,,,,,,,,,,,,,,,,,,,,,,,,,,,,,,,,,,,,,,,,,,,,,,,,,,,,,,,,,,,,,,,,,,,,,,,,,,,,,,,,,,,,,,,,,,,,,,,,,,,,,,,,
,,,,,,5d36e9bf100e6c00187db8aa,62c5394b05352c4b7cc79222,2022-07-06_08h27.33.358,Colour_Asymmetry_Pilot,2022.1.3,Win32,59.79073244,62c50e9c1127f2cd403a315f,0,112,112,75,1,twofour,,,,,,,,,,,,,,,,,,,,,,,,,,,,,,,,,,,,,,,,,,,,,,,,,,,,,,,,,,,,,,,,,,,,,,,,,,,,,,,,,,,,,,,,,,,,,,,,,,,,,,,,,,,,,,,,,,,,,,,,,,,,,,,,,,,,,,,,,,,,,,,,,,,,,,,,,,,,,,
,,,,,,5d36e9bf100e6c00187db8aa,62c5394b05352c4b7cc79222,2022-07-06_08h27.33.358,Colour_Asymmetry_Pilot,2022.1.3,Win32,59.79073244,62c50e9c1127f2cd403a315f,0,113,113,115,1,twofour,,,,,,,,,,,,,,,,,,,,,,,,,,,,,,,,,,,,,,,,,,,,,,,,,,,,,,,,,,,,,,,,,,,,,,,,,,,,,,,,,,,,,,,,,,,,,,,,,,,,,,,,,,,,,,,,,,,,,,,,,,,,,,,,,,,,,,,,,,,,,,,,,,,,,,,,,,,,,,
,,,,,,5d36e9bf100e6c00187db8aa,62c5394b05352c4b7cc79222,2022-07-06_08h27.33.358,Colour_Asymmetry_Pilot,2022.1.3,Win32,59.79073244,62c50e9c1127f2cd403a315f,0,114,114,13,1,threefour,,,,,,,,,,,,,,,,,,,,,,,,,,,,,,,,,,,,,,,,,,,,,,,,,,,,,,,,,,,,,,,,,,,,,,,,,,,,,,,,,,,,,,,,,,,,,,,,,,,,,,,,,,,,,,,,,,,,,,,,,,,,,,,,,,,,,,,,,,,,,,,,,,,,,,,,,,,,,,
,,,,,,5d36e9bf100e6c00187db8aa,62c5394b05352c4b7cc79222,2022-07-06_08h27.33.358,Colour_Asymmetry_Pilot,2022.1.3,Win32,59.79073244,62c50e9c1127f2cd403a315f,0,115,115,71,1,fourthree,,,,,,,,,,,,,,,,,,,,,,,,,,,,,,,,,,,,,,,,,,,,,,,,,,,,,,,,,,,,,,,,,,,,,,,,,,,,,,,,,,,,,,,,,,,,,,,,,,,,,,,,,,,,,,,,,,,,,,,,,,,,,,,,,,,,,,,,,,,,,,,,,,,,,,,,,,,,,,
,,,,,,5d36e9bf100e6c00187db8aa,62c5394b05352c4b7cc79222,2022-07-06_08h27.33.358,Colour_Asymmetry_Pilot,2022.1.3,Win32,59.79073244,62c50e9c1127f2cd403a315f,0,116,116,42,1,twoone,,,,,,,,,,,,,,,,,,,,,,,,,,,,,,,,,,,,,,,,,,,,,,,,,,,,,,,,,,,,,,,,,,,,,,,,,,,,,,,,,,,,,,,,,,,,,,,,,,,,,,,,,,,,,,,,,,,,,,,,,,,,,,,,,,,,,,,,,,,,,,,,,,,,,,,,,,,,,,
,,,,,,5d36e9bf100e6c00187db8aa,62c5394b05352c4b7cc79222,2022-07-06_08h27.33.358,Colour_Asymmetry_Pilot,2022.1.3,Win32,59.79073244,62c50e9c1127f2cd403a315f,0,117,117,2,1,twoone,,,,,,,,,,,,,,,,,,,,,,,,,,,,,,,,,,,,,,,,,,,,,,,,,,,,,,,,,,,,,,,,,,,,,,,,,,,,,,,,,,,,,,,,,,,,,,,,,,,,,,,,,,,,,,,,,,,,,,,,,,,,,,,,,,,,,,,,,,,,,,,,,,,,,,,,,,,,,,
,,,,,,5d36e9bf100e6c00187db8aa,62c5394b05352c4b7cc79222,2022-07-06_08h27.33.358,Colour_Asymmetry_Pilot,2022.1.3,Win32,59.79073244,62c50e9c1127f2cd403a315f,0,118,118,73,1,onethree,,,,,,,,,,,,,,,,,,,,,,,,,,,,,,,,,,,,,,,,,,,,,,,,,,,,,,,,,,,,,,,,,,,,,,,,,,,,,,,,,,,,,,,,,,,,,,,,,,,,,,,,,,,,,,,,,,,,,,,,,,,,,,,,,,,,,,,,,,,,,,,,,,,,,,,,,,,,,,
,,,,,,5d36e9bf100e6c00187db8aa,62c5394b05352c4b7cc79222,2022-07-06_08h27.33.358,Colour_Asymmetry_Pilot,2022.1.3,Win32,59.79073244,62c50e9c1127f2cd403a315f,0,119,119,37,1,threefour,,,,,,,,,,,,,,,,,,,,,,,,,,,,,,,,,,,,,,,,,,,,,,,,,,,,,,,,,,,,,,,,,,,,,,,,,,,,,,,,,,,,,,,,,,,,,,,,,,,,,,,,,,,,,,,,,,,,,,,,,,,,,,,,,,,,,,,,,,,,,,,,,,,,,,,,,,,,,,
,,,,,,5d36e9bf100e6c00187db8aa,62c5394b05352c4b7cc79222,2022-07-06_08h27.33.358,Colour_Asymmetry_Pilot,2022.1.3,Win32,59.79073244,62c50e9c1127f2cd403a315f,0,120,120,19,1,twofour,,,,,,,,,,,,,,,,,,,,,,,,,,,,,,,,,,,,,,,,,,,,,,,,,,,,,,,,,,,,,,,,,,,,,,,,,,,,,,,,,,,,,,,,,,,,,,,,,,,,,,,,,,,,,,,,,,,,,,,,,,,,,,,,,,,,,,,,,,,,,,,,,,,,,,,,,,,,,,
,,,,,,5d36e9bf100e6c00187db8aa,62c5394b05352c4b7cc79222,2022-07-06_08h27.33.358,Colour_Asymmetry_Pilot,2022.1.3,Win32,59.79073244,62c50e9c1127f2cd403a315f,0,121,121,141,1,threefour,,,,,,,,,,,,,,,,,,,,,,,,,,,,,,,,,,,,,,,,,,,,,,,,,,,,,,,,,,,,,,,,,,,,,,,,,,,,,,,,,,,,,,,,,,,,,,,,,,,,,,,,,,,,,,,,,,,,,,,,,,,,,,,,,,,,,,,,,,,,,,,,,,,,,,,,,,,,,,
,,,,,,5d36e9bf100e6c00187db8aa,62c5394b05352c4b7cc79222,2022-07-06_08h27.33.358,Colour_Asymmetry_Pilot,2022.1.3,Win32,59.79073244,62c50e9c1127f2cd403a315f,0,122,122,60,1,threeone,,,,,,,,,,,,,,,,,,,,,,,,,,,,,,,,,,,,,,,,,,,,,,,,,,,,,,,,,,,,,,,,,,,,,,,,,,,,,,,,,,,,,,,,,,,,,,,,,,,,,,,,,,,,,,,,,,,,,,,,,,,,,,,,,,,,,,,,,,,,,,,,,,,,,,,,,,,,,,
,,,,,,5d36e9bf100e6c00187db8aa,62c5394b05352c4b7cc79222,2022-07-06_08h27.33.358,Colour_Asymmetry_Pilot,2022.1.3,Win32,59.79073244,62c50e9c1127f2cd403a315f,0,123,123,76,1,threeone,,,,,,,,,,,,,,,,,,,,,,,,,,,,,,,,,,,,,,,,,,,,,,,,,,,,,,,,,,,,,,,,,,,,,,,,,,,,,,,,,,,,,,,,,,,,,,,,,,,,,,,,,,,,,,,,,,,,,,,,,,,,,,,,,,,,,,,,,,,,,,,,,,,,,,,,,,,,,,
,,,,,,5d36e9bf100e6c00187db8aa,62c5394b05352c4b7cc79222,2022-07-06_08h27.33.358,Colour_Asymmetry_Pilot,2022.1.3,Win32,59.79073244,62c50e9c1127f2cd403a315f,0,124,124,133,1,threefour,,,,,,,,,,,,,,,,,,,,,,,,,,,,,,,,,,,,,,,,,,,,,,,,,,,,,,,,,,,,,,,,,,,,,,,,,,,,,,,,,,,,,,,,,,,,,,,,,,,,,,,,,,,,,,,,,,,,,,,,,,,,,,,,,,,,,,,,,,,,,,,,,,,,,,,,,,,,,,
,,,,,,5d36e9bf100e6c00187db8aa,62c5394b05352c4b7cc79222,2022-07-06_08h27.33.358,Colour_Asymmetry_Pilot,2022.1.3,Win32,59.79073244,62c50e9c1127f2cd403a315f,0,125,125,70,1,fourtwo,,,,,,,,,,,,,,,,,,,,,,,,,,,,,,,,,,,,,,,,,,,,,,,,,,,,,,,,,,,,,,,,,,,,,,,,,,,,,,,,,,,,,,,,,,,,,,,,,,,,,,,,,,,,,,,,,,,,,,,,,,,,,,,,,,,,,,,,,,,,,,,,,,,,,,,,,,,,,,
,,,,,,5d36e9bf100e6c00187db8aa,62c5394b05352c4b7cc79222,2022-07-06_08h27.33.358,Colour_Asymmetry_Pilot,2022.1.3,Win32,59.79073244,62c50e9c1127f2cd403a315f,0,126,126,118,1,fourtwo,,,,,,,,,,,,,,,,,,,,,,,,,,,,,,,,,,,,,,,,,,,,,,,,,,,,,,,,,,,,,,,,,,,,,,,,,,,,,,,,,,,,,,,,,,,,,,,,,,,,,,,,,,,,,,,,,,,,,,,,,,,,,,,,,,,,,,,,,,,,,,,,,,,,,,,,,,,,,,
,,,,,,5d36e9bf100e6c00187db8aa,62c5394b05352c4b7cc79222,2022-07-06_08h27.33.358,Colour_Asymmetry_Pilot,2022.1.3,Win32,59.79073244,62c50e9c1127f2cd403a315f,0,127,127,65,1,onethree,,,,,,,,,,,,,,,,,,,,,,,,,,,,,,,,,,,,,,,,,,,,,,,,,,,,,,,,,,,,,,,,,,,,,,,,,,,,,,,,,,,,,,,,,,,,,,,,,,,,,,,,,,,,,,,,,,,,,,,,,,,,,,,,,,,,,,,,,,,,,,,,,,,,,,,,,,,,,,
,,,,,,5d36e9bf100e6c00187db8aa,62c5394b05352c4b7cc79222,2022-07-06_08h27.33.358,Colour_Asymmetry_Pilot,2022.1.3,Win32,59.79073244,62c50e9c1127f2cd403a315f,0,128,128,33,1,onethree,,,,,,,,,,,,,,,,,,,,,,,,,,,,,,,,,,,,,,,,,,,,,,,,,,,,,,,,,,,,,,,,,,,,,,,,,,,,,,,,,,,,,,,,,,,,,,,,,,,,,,,,,,,,,,,,,,,,,,,,,,,,,,,,,,,,,,,,,,,,,,,,,,,,,,,,,,,,,,
,,,,,,5d36e9bf100e6c00187db8aa,62c5394b05352c4b7cc79222,2022-07-06_08h27.33.358,Colour_Asymmetry_Pilot,2022.1.3,Win32,59.79073244,62c50e9c1127f2cd403a315f,0,129,129,122,1,twoone,,,,,,,,,,,,,,,,,,,,,,,,,,,,,,,,,,,,,,,,,,,,,,,,,,,,,,,,,,,,,,,,,,,,,,,,,,,,,,,,,,,,,,,,,,,,,,,,,,,,,,,,,,,,,,,,,,,,,,,,,,,,,,,,,,,,,,,,,,,,,,,,,,,,,,,,,,,,,,
,,,,,,5d36e9bf100e6c00187db8aa,62c5394b05352c4b7cc79222,2022-07-06_08h27.33.358,Colour_Asymmetry_Pilot,2022.1.3,Win32,59.79073244,62c50e9c1127f2cd403a315f,0,130,130,24,1,onetwo,,,,,,,,,,,,,,,,,,,,,,,,,,,,,,,,,,,,,,,,,,,,,,,,,,,,,,,,,,,,,,,,,,,,,,,,,,,,,,,,,,,,,,,,,,,,,,,,,,,,,,,,,,,,,,,,,,,,,,,,,,,,,,,,,,,,,,,,,,,,,,,,,,,,,,,,,,,,,,
,,,,,,5d36e9bf100e6c00187db8aa,62c5394b05352c4b7cc79222,2022-07-06_08h27.33.358,Colour_Asymmetry_Pilot,2022.1.3,Win32,59.79073244,62c50e9c1127f2cd403a315f,0,131,131,48,1,onetwo,,,,,,,,,,,,,,,,,,,,,,,,,,,,,,,,,,,,,,,,,,,,,,,,,,,,,,,,,,,,,,,,,,,,,,,,,,,,,,,,,,,,,,,,,,,,,,,,,,,,,,,,,,,,,,,,,,,,,,,,,,,,,,,,,,,,,,,,,,,,,,,,,,,,,,,,,,,,,,
,,,,,,5d36e9bf100e6c00187db8aa,62c5394b05352c4b7cc79222,2022-07-06_08h27.33.358,Colour_Asymmetry_Pilot,2022.1.3,Win32,59.79073244,62c50e9c1127f2cd403a315f,0,132,132,43,1,twofour,,,,,,,,,,,,,,,,,,,,,,,,,,,,,,,,,,,,,,,,,,,,,,,,,,,,,,,,,,,,,,,,,,,,,,,,,,,,,,,,,,,,,,,,,,,,,,,,,,,,,,,,,,,,,,,,,,,,,,,,,,,,,,,,,,,,,,,,,,,,,,,,,,,,,,,,,,,,,,
,,,,,,5d36e9bf100e6c00187db8aa,62c5394b05352c4b7cc79222,2022-07-06_08h27.33.358,Colour_Asymmetry_Pilot,2022.1.3,Win32,59.79073244,62c50e9c1127f2cd403a315f,0,133,133,21,1,threefour,,,,,,,,,,,,,,,,,,,,,,,,,,,,,,,,,,,,,,,,,,,,,,,,,,,,,,,,,,,,,,,,,,,,,,,,,,,,,,,,,,,,,,,,,,,,,,,,,,,,,,,,,,,,,,,,,,,,,,,,,,,,,,,,,,,,,,,,,,,,,,,,,,,,,,,,,,,,,,
,,,,,,5d36e9bf100e6c00187db8aa,62c5394b05352c4b7cc79222,2022-07-06_08h27.33.358,Colour_Asymmetry_Pilot,2022.1.3,Win32,59.79073244,62c50e9c1127f2cd403a315f,0,134,134,87,1,fourthree,,,,,,,,,,,,,,,,,,,,,,,,,,,,,,,,,,,,,,,,,,,,,,,,,,,,,,,,,,,,,,,,,,,,,,,,,,,,,,,,,,,,,,,,,,,,,,,,,,,,,,,,,,,,,,,,,,,,,,,,,,,,,,,,,,,,,,,,,,,,,,,,,,,,,,,,,,,,,,
,,,,,,5d36e9bf100e6c00187db8aa,62c5394b05352c4b7cc79222,2022-07-06_08h27.33.358,Colour_Asymmetry_Pilot,2022.1.3,Win32,59.79073244,62c50e9c1127f2cd403a315f,0,135,135,49,1,onethree,,,,,,,,,,,,,,,,,,,,,,,,,,,,,,,,,,,,,,,,,,,,,,,,,,,,,,,,,,,,,,,,,,,,,,,,,,,,,,,,,,,,,,,,,,,,,,,,,,,,,,,,,,,,,,,,,,,,,,,,,,,,,,,,,,,,,,,,,,,,,,,,,,,,,,,,,,,,,,
,,,,,,5d36e9bf100e6c00187db8aa,62c5394b05352c4b7cc79222,2022-07-06_08h27.33.358,Colour_Asymmetry_Pilot,2022.1.3,Win32,59.79073244,62c50e9c1127f2cd403a315f,0,136,136,147,1,twofour,,,,,,,,,,,,,,,,,,,,,,,,,,,,,,,,,,,,,,,,,,,,,,,,,,,,,,,,,,,,,,,,,,,,,,,,,,,,,,,,,,,,,,,,,,,,,,,,,,,,,,,,,,,,,,,,,,,,,,,,,,,,,,,,,,,,,,,,,,,,,,,,,,,,,,,,,,,,,,
,,,,,,5d36e9bf100e6c00187db8aa,62c5394b05352c4b7cc79222,2022-07-06_08h27.33.358,Colour_Asymmetry_Pilot,2022.1.3,Win32,59.79073244,62c50e9c1127f2cd403a315f,0,137,137,80,1,onetwo,,,,,,,,,,,,,,,,,,,,,,,,,,,,,,,,,,,,,,,,,,,,,,,,,,,,,,,,,,,,,,,,,,,,,,,,,,,,,,,,,,,,,,,,,,,,,,,,,,,,,,,,,,,,,,,,,,,,,,,,,,,,,,,,,,,,,,,,,,,,,,,,,,,,,,,,,,,,,,
,,,,,,5d36e9bf100e6c00187db8aa,62c5394b05352c4b7cc79222,2022-07-06_08h27.33.358,Colour_Asymmetry_Pilot,2022.1.3,Win32,59.79073244,62c50e9c1127f2cd403a315f,0,138,138,149,1,threefour,,,,,,,,,,,,,,,,,,,,,,,,,,,,,,,,,,,,,,,,,,,,,,,,,,,,,,,,,,,,,,,,,,,,,,,,,,,,,,,,,,,,,,,,,,,,,,,,,,,,,,,,,,,,,,,,,,,,,,,,,,,,,,,,,,,,,,,,,,,,,,,,,,,,,,,,,,,,,,
,,,,,,5d36e9bf100e6c00187db8aa,62c5394b05352c4b7cc79222,2022-07-06_08h27.33.358,Colour_Asymmetry_Pilot,2022.1.3,Win32,59.79073244,62c50e9c1127f2cd403a315f,0,139,139,140,1,threeone,,,,,,,,,,,,,,,,,,,,,,,,,,,,,,,,,,,,,,,,,,,,,,,,,,,,,,,,,,,,,,,,,,,,,,,,,,,,,,,,,,,,,,,,,,,,,,,,,,,,,,,,,,,,,,,,,,,,,,,,,,,,,,,,,,,,,,,,,,,,,,,,,,,,,,,,,,,,,,
,,,,,,5d36e9bf100e6c00187db8aa,62c5394b05352c4b7cc79222,2022-07-06_08h27.33.358,Colour_Asymmetry_Pilot,2022.1.3,Win32,59.79073244,62c50e9c1127f2cd403a315f,0,140,140,142,1,fourtwo,,,,,,,,,,,,,,,,,,,,,,,,,,,,,,,,,,,,,,,,,,,,,,,,,,,,,,,,,,,,,,,,,,,,,,,,,,,,,,,,,,,,,,,,,,,,,,,,,,,,,,,,,,,,,,,,,,,,,,,,,,,,,,,,,,,,,,,,,,,,,,,,,,,,,,,,,,,,,,
,,,,,,5d36e9bf100e6c00187db8aa,62c5394b05352c4b7cc79222,2022-07-06_08h27.33.358,Colour_Asymmetry_Pilot,2022.1.3,Win32,59.79073244,62c50e9c1127f2cd403a315f,0,141,141,96,1,onetwo,,,,,,,,,,,,,,,,,,,,,,,,,,,,,,,,,,,,,,,,,,,,,,,,,,,,,,,,,,,,,,,,,,,,,,,,,,,,,,,,,,,,,,,,,,,,,,,,,,,,,,,,,,,,,,,,,,,,,,,,,,,,,,,,,,,,,,,,,,,,,,,,,,,,,,,,,,,,,,
,,,,,,5d36e9bf100e6c00187db8aa,62c5394b05352c4b7cc79222,2022-07-06_08h27.33.358,Colour_Asymmetry_Pilot,2022.1.3,Win32,59.79073244,62c50e9c1127f2cd403a315f,0,142,142,116,1,threeone,,,,,,,,,,,,,,,,,,,,,,,,,,,,,,,,,,,,,,,,,,,,,,,,,,,,,,,,,,,,,,,,,,,,,,,,,,,,,,,,,,,,,,,,,,,,,,,,,,,,,,,,,,,,,,,,,,,,,,,,,,,,,,,,,,,,,,,,,,,,,,,,,,,,,,,,,,,,,,
,,,,,,5d36e9bf100e6c00187db8aa,62c5394b05352c4b7cc79222,2022-07-06_08h27.33.358,Colour_Asymmetry_Pilot,2022.1.3,Win32,59.79073244,62c50e9c1127f2cd403a315f,0,143,143,36,1,threeone,,,,,,,,,,,,,,,,,,,,,,,,,,,,,,,,,,,,,,,,,,,,,,,,,,,,,,,,,,,,,,,,,,,,,,,,,,,,,,,,,,,,,,,,,,,,,,,,,,,,,,,,,,,,,,,,,,,,,,,,,,,,,,,,,,,,,,,,,,,,,,,,,,,,,,,,,,,,,,
,,,,,,5d36e9bf100e6c00187db8aa,62c5394b05352c4b7cc79222,2022-07-06_08h27.33.358,Colour_Asymmetry_Pilot,2022.1.3,Win32,59.79073244,62c50e9c1127f2cd403a315f,0,144,144,31,1,fourthree,,,,,,,,,,,,,,,,,,,,,,,,,,,,,,,,,,,,,,,,,,,,,,,,,,,,,,,,,,,,,,,,,,,,,,,,,,,,,,,,,,,,,,,,,,,,,,,,,,,,,,,,,,,,,,,,,,,,,,,,,,,,,,,,,,,,,,,,,,,,,,,,,,,,,,,,,,,,,,
,,,,,,5d36e9bf100e6c00187db8aa,62c5394b05352c4b7cc79222,2022-07-06_08h27.33.358,Colour_Asymmetry_Pilot,2022.1.3,Win32,59.79073244,62c50e9c1127f2cd403a315f,0,145,145,161,1,onethree,,,,,,,,,,,,,,,,,,,,,,,,,,,,,,,,,,,,,,,,,,,,,,,,,,,,,,,,,,,,,,,,,,,,,,,,,,,,,,,,,,,,,,,,,,,,,,,,,,,,,,,,,,,,,,,,,,,,,,,,,,,,,,,,,,,,,,,,,,,,,,,,,,,,,,,,,,,,,,
,,,,,,5d36e9bf100e6c00187db8aa,62c5394b05352c4b7cc79222,2022-07-06_08h27.33.358,Colour_Asymmetry_Pilot,2022.1.3,Win32,59.79073244,62c50e9c1127f2cd403a315f,0,146,146,55,1,fourthree,,,,,,,,,,,,,,,,,,,,,,,,,,,,,,,,,,,,,,,,,,,,,,,,,,,,,,,,,,,,,,,,,,,,,,,,,,,,,,,,,,,,,,,,,,,,,,,,,,,,,,,,,,,,,,,,,,,,,,,,,,,,,,,,,,,,,,,,,,,,,,,,,,,,,,,,,,,,,,
,,,,,,5d36e9bf100e6c00187db8aa,62c5394b05352c4b7cc79222,2022-07-06_08h27.33.358,Colour_Asymmetry_Pilot,2022.1.3,Win32,59.79073244,62c50e9c1127f2cd403a315f,0,147,147,82,1,twoone,,,,,,,,,,,,,,,,,,,,,,,,,,,,,,,,,,,,,,,,,,,,,,,,,,,,,,,,,,,,,,,,,,,,,,,,,,,,,,,,,,,,,,,,,,,,,,,,,,,,,,,,,,,,,,,,,,,,,,,,,,,,,,,,,,,,,,,,,,,,,,,,,,,,,,,,,,,,,,
,,,,,,5d36e9bf100e6c00187db8aa,62c5394b05352c4b7cc79222,2022-07-06_08h27.33.358,Colour_Asymmetry_Pilot,2022.1.3,Win32,59.79073244,62c50e9c1127f2cd403a315f,0,148,148,26,1,twoone,,,,,,,,,,,,,,,,,,,,,,,,,,,,,,,,,,,,,,,,,,,,,,,,,,,,,,,,,,,,,,,,,,,,,,,,,,,,,,,,,,,,,,,,,,,,,,,,,,,,,,,,,,,,,,,,,,,,,,,,,,,,,,,,,,,,,,,,,,,,,,,,,,,,,,,,,,,,,,
,,,,,,5d36e9bf100e6c00187db8aa,62c5394b05352c4b7cc79222,2022-07-06_08h27.33.358,Colour_Asymmetry_Pilot,2022.1.3,Win32,59.79073244,62c50e9c1127f2cd403a315f,0,149,149,50,1,twoone,,,,,,,,,,,,,,,,,,,,,,,,,,,,,,,,,,,,,,,,,,,,,,,,,,,,,,,,,,,,,,,,,,,,,,,,,,,,,,,,,,,,,,,,,,,,,,,,,,,,,,,,,,,,,,,,,,,,,,,,,,,,,,,,,,,,,,,,,,,,,,,,,,,,,,,,,,,,,,
,,,,,,5d36e9bf100e6c00187db8aa,62c5394b05352c4b7cc79222,2022-07-06_08h27.33.358,Colour_Asymmetry_Pilot,2022.1.3,Win32,59.79073244,62c50e9c1127f2cd403a315f,0,150,150,29,1,threefour,,,,,,,,,,,,,,,,,,,,,,,,,,,,,,,,,,,,,,,,,,,,,,,,,,,,,,,,,,,,,,,,,,,,,,,,,,,,,,,,,,,,,,,,,,,,,,,,,,,,,,,,,,,,,,,,,,,,,,,,,,,,,,,,,,,,,,,,,,,,,,,,,,,,,,,,,,,,,,
,,,,,,5d36e9bf100e6c00187db8aa,62c5394b05352c4b7cc79222,2022-07-06_08h27.33.358,Colour_Asymmetry_Pilot,2022.1.3,Win32,59.79073244,62c50e9c1127f2cd403a315f,0,151,151,148,1,threeone,,,,,,,,,,,,,,,,,,,,,,,,,,,,,,,,,,,,,,,,,,,,,,,,,,,,,,,,,,,,,,,,,,,,,,,,,,,,,,,,,,,,,,,,,,,,,,,,,,,,,,,,,,,,,,,,,,,,,,,,,,,,,,,,,,,,,,,,,,,,,,,,,,,,,,,,,,,,,,
,,,,,,5d36e9bf100e6c00187db8aa,62c5394b05352c4b7cc79222,2022-07-06_08h27.33.358,Colour_Asymmetry_Pilot,2022.1.3,Win32,59.79073244,62c50e9c1127f2cd403a315f,0,152,152,112,1,onetwo,,,,,,,,,,,,,,,,,,,,,,,,,,,,,,,,,,,,,,,,,,,,,,,,,,,,,,,,,,,,,,,,,,,,,,,,,,,,,,,,,,,,,,,,,,,,,,,,,,,,,,,,,,,,,,,,,,,,,,,,,,,,,,,,,,,,,,,,,,,,,,,,,,,,,,,,,,,,,,
,,,,,,5d36e9bf100e6c00187db8aa,62c5394b05352c4b7cc79222,2022-07-06_08h27.33.358,Colour_Asymmetry_Pilot,2022.1.3,Win32,59.79073244,62c50e9c1127f2cd403a315f,0,153,153,6,1,fourtwo,,,,,,,,,,,,,,,,,,,,,,,,,,,,,,,,,,,,,,,,,,,,,,,,,,,,,,,,,,,,,,,,,,,,,,,,,,,,,,,,,,,,,,,,,,,,,,,,,,,,,,,,,,,,,,,,,,,,,,,,,,,,,,,,,,,,,,,,,,,,,,,,,,,,,,,,,,,,,,
,,,,,,5d36e9bf100e6c00187db8aa,62c5394b05352c4b7cc79222,2022-07-06_08h27.33.358,Colour_Asymmetry_Pilot,2022.1.3,Win32,59.79073244,62c50e9c1127f2cd403a315f,0,154,154,110,1,fourtwo,,,,,,,,,,,,,,,,,,,,,,,,,,,,,,,,,,,,,,,,,,,,,,,,,,,,,,,,,,,,,,,,,,,,,,,,,,,,,,,,,,,,,,,,,,,,,,,,,,,,,,,,,,,,,,,,,,,,,,,,,,,,,,,,,,,,,,,,,,,,,,,,,,,,,,,,,,,,,,
,,,,,,5d36e9bf100e6c00187db8aa,62c5394b05352c4b7cc79222,2022-07-06_08h27.33.358,Colour_Asymmetry_Pilot,2022.1.3,Win32,59.79073244,62c50e9c1127f2cd403a315f,0,155,155,72,1,onetwo,,,,,,,,,,,,,,,,,,,,,,,,,,,,,,,,,,,,,,,,,,,,,,,,,,,,,,,,,,,,,,,,,,,,,,,,,,,,,,,,,,,,,,,,,,,,,,,,,,,,,,,,,,,,,,,,,,,,,,,,,,,,,,,,,,,,,,,,,,,,,,,,,,,,,,,,,,,,,,
,,,,,,5d36e9bf100e6c00187db8aa,62c5394b05352c4b7cc79222,2022-07-06_08h27.33.358,Colour_Asymmetry_Pilot,2022.1.3,Win32,59.79073244,62c50e9c1127f2cd403a315f,0,156,156,150,1,fourtwo,,,,,,,,,,,,,,,,,,,,,,,,,,,,,,,,,,,,,,,,,,,,,,,,,,,,,,,,,,,,,,,,,,,,,,,,,,,,,,,,,,,,,,,,,,,,,,,,,,,,,,,,,,,,,,,,,,,,,,,,,,,,,,,,,,,,,,,,,,,,,,,,,,,,,,,,,,,,,,
,,,,,,5d36e9bf100e6c00187db8aa,62c5394b05352c4b7cc79222,2022-07-06_08h27.33.358,Colour_Asymmetry_Pilot,2022.1.3,Win32,59.79073244,62c50e9c1127f2cd403a315f,0,157,157,106,1,twoone,,,,,,,,,,,,,,,,,,,,,,,,,,,,,,,,,,,,,,,,,,,,,,,,,,,,,,,,,,,,,,,,,,,,,,,,,,,,,,,,,,,,,,,,,,,,,,,,,,,,,,,,,,,,,,,,,,,,,,,,,,,,,,,,,,,,,,,,,,,,,,,,,,,,,,,,,,,,,,
,,,,,,5d36e9bf100e6c00187db8aa,62c5394b05352c4b7cc79222,2022-07-06_08h27.33.358,Colour_Asymmetry_Pilot,2022.1.3,Win32,59.79073244,62c50e9c1127f2cd403a315f,0,158,158,69,1,threefour,,,,,,,,,,,,,,,,,,,,,,,,,,,,,,,,,,,,,,,,,,,,,,,,,,,,,,,,,,,,,,,,,,,,,,,,,,,,,,,,,,,,,,,,,,,,,,,,,,,,,,,,,,,,,,,,,,,,,,,,,,,,,,,,,,,,,,,,,,,,,,,,,,,,,,,,,,,,,,
,,,,,,5d36e9bf100e6c00187db8aa,62c5394b05352c4b7cc79222,2022-07-06_08h27.33.358,Colour_Asymmetry_Pilot,2022.1.3,Win32,59.79073244,62c50e9c1127f2cd403a315f,0,159,159,134,1,fourtwo,,,,,,,,,,,,,,,,,,,,,,,,,,,,,,,,,,,,,,,,,,,,,,,,,,,,,,,,,,,,,,,,,,,,,,,,,,,,,,,,,,,,,,,,,,,,,,,,,,,,,,,,,,,,,,,,,,,,,,,,,,,,,,,,,,,,,,,,,,,,,,,,,,,,,,,,,,,,,,
,,,,,,5d36e9bf100e6c00187db8aa,62c5394b05352c4b7cc79222,2022-07-06_08h27.33.358,Colour_Asymmetry_Pilot,2022.1.3,Win32,59.79073244,62c50e9c1127f2cd403a315f,0,160,160,160,1,onetwo,,,,,,,,,,,,,,,,,,,,,,,,,,,,,,,,,,,,,,,,,,,,,,,,,,,,,,,,,,,,,,,,,,,,,,,,,,,,,,,,,,,,,,,,,,,,,,,,,,,,,,,,,,,,,,,,,,,,,,,,,,,,,,,,,,,,,,,,,,,,,,,,,,,,,,,,,,,,,,
,,,,,,5d36e9bf100e6c00187db8aa,62c5394b05352c4b7cc79222,2022-07-06_08h27.33.358,Colour_Asymmetry_Pilot,2022.1.3,Win32,59.79073244,62c50e9c1127f2cd403a315f,0,161,161,157,1,threefour,,,,,,,,,,,,,,,,,,,,,,,,,,,,,,,,,,,,,,,,,,,,,,,,,,,,,,,,,,,,,,,,,,,,,,,,,,,,,,,,,,,,,,,,,,,,,,,,,,,,,,,,,,,,,,,,,,,,,,,,,,,,,,,,,,,,,,,,,,,,,,,,,,,,,,,,,,,,,,
,,,,,,5d36e9bf100e6c00187db8aa,62c5394b05352c4b7cc79222,2022-07-06_08h27.33.358,Colour_Asymmetry_Pilot,2022.1.3,Win32,59.79073244,62c50e9c1127f2cd403a315f,,,,,,,space,4.9406,space,9.6107,space,30.8194,space,28.6814,space,2.6533,space,2.7344,"[0.3568,-0.20799999999999996,-0.9844]",twoone,"[0.7018,0.7802,-0.16079999999999994]",4,12.0587,62,106,1,0,0,response1disk_5,11,-1,1,0,0,rectangle_8,11,-1,1,0,0,3,11,-1,1,0,0,0,0,0,0,1,,,,,,,,,,,,,,,,,,,,,,,,,,,,,,,,,,,,,,,,,,,,,,,,,,,,,,,,,,,,,,,,,,,,,,,,,,,,,,,,,,,,,,,,,,,,,,,,,,,,,,,,,,,,,,,,,
,,,,,,5d36e9bf100e6c00187db8aa,62c5394b05352c4b7cc79222,2022-07-06_08h27.33.358,Colour_Asymmetry_Pilot,2022.1.3,Win32,59.79073244,62c50e9c1127f2cd403a315f,,,,,,,,,,,,,,,,,,,"[-0.9766,-0.34920000000000007,0.2156]",onethree,"[0.3802000000000001,0.19199999999999995,-0.6394]",-4,11.6479,-37,130,1,0,0,response7disk_5,-8,10,1,0,0,rectangle_8,-8,10,1,0,0,3,-8,10,1,0,0,1,0,1,0,1,,,,,,,,,,,,,,,,,,,,,,,,,,,,,,,,,,,,,,,,,,,,,,,,,,,,,,,,,,,,,,,,,,,,,,,,,,,,,,,,,,,,,,,,,,,,,,,,,,,,,,,,,,,,,,,,,
,,,,,,5d36e9bf100e6c00187db8aa,62c5394b05352c4b7cc79222,2022-07-06_08h27.33.358,Colour_Asymmetry_Pilot,2022.1.3,Win32,59.79073244,62c50e9c1127f2cd403a315f,,,,,,,,,,,,,,,,,,,"[0.34099999999999997,0.5841999999999998,-0.9844]",fourthree,"[0.5449999999999999,-0.31000000000000005,-0.0354000000000001]",-4,1.4023,-61,112,1,0,0,response7disk_5,-32,11,1,0,0,rectangle_8,110,48,1,0,0,3,11,4,1,0,0,2,0,2,0,1,response1disk_7,6,rectangle_4,,,,,,,,,,,,,,,,,,,,,,,,,,,,,,,,,,,,,,,,,,,,,,,,,,,,,,,,,,,,,,,,,,,,,,,,,,,,,,,,,,,,,,,,,,,,,,,,,,,,,,,,,,,,,,
,,,,,,5d36e9bf100e6c00187db8aa,62c5394b05352c4b7cc79222,2022-07-06_08h27.33.358,Colour_Asymmetry_Pilot,2022.1.3,Win32,59.79073244,62c50e9c1127f2cd403a315f,,,,,,,,,,,,,,,,,,,"[-0.6235999999999999,-0.6786,-0.08239999999999992]",fourthree,"[-0.6942,-0.7648,-0.12959999999999994]",4,3.104,54,94,1,0,0,response1disk_5,-2,13,1,0,0,rectangle_8,-2,13,1,0,0,3,-2,13,1,0,0,3,0,3,0,1,,,,,,,,,,,,,,,,,,,,,,,,,,,,,,,,,,,,,,,,,,,,,,,,,,,,,,,,,,,,,,,,,,,,,,,,,,,,,,,,,,,,,,,,,,,,,,,,,,,,,,,,,,,,,,,,,
,,,,,,5d36e9bf100e6c00187db8aa,62c5394b05352c4b7cc79222,2022-07-06_08h27.33.358,Colour_Asymmetry_Pilot,2022.1.3,Win32,59.79073244,62c50e9c1127f2cd403a315f,,,,,,,,,,,,,,,,,,,"[-0.9296,-0.12959999999999994,-0.043199999999999905]",twofour,"[-0.8982,-0.37259999999999993,0.2784]",-4,5.5726,-57,129,1,0,0,response7disk_5,-4,-1,1,0,0,rectangle_8,-4,-1,1,0,0,3,-4,-1,1,0,0,4,0,4,0,1,,,,,,,,,,,,,,,,,,,,,,,,,,,,,,,,,,,,,,,,,,,,,,,,,,,,,,,,,,,,,,,,,,,,,,,,,,,,,,,,,,,,,,,,,,,,,,,,,,,,,,,,,,,,,,,,,
,,,,,,5d36e9bf100e6c00187db8aa,62c5394b05352c4b7cc79222,2022-07-06_08h27.33.358,Colour_Asymmetry_Pilot,2022.1.3,Win32,59.79073244,62c50e9c1127f2cd403a315f,,,,,,,,,,,,,,,,,,,"[-0.9844,-0.9688,-0.9922]",onetwo,"[-0.17659999999999998,-0.2864,-0.8354]",-4,4.4723,-60,106,1,0,0,response7disk_5,-10,9,1,0,0,rectangle_8,124,47,1,0,0,3,-8,4,1,0,0,5,0,5,0,1,response1disk_7,6,rectangle_4,,,,,,,,,,,,,,,,,,,,,,,,,,,,,,,,,,,,,,,,,,,,,,,,,,,,,,,,,,,,,,,,,,,,,,,,,,,,,,,,,,,,,,,,,,,,,,,,,,,,,,,,,,,,,,
,,,,,,5d36e9bf100e6c00187db8aa,62c5394b05352c4b7cc79222,2022-07-06_08h27.33.358,Colour_Asymmetry_Pilot,2022.1.3,Win32,59.79073244,62c50e9c1127f2cd403a315f,,,,,,,,,,,,,,,,,,,"[0.19199999999999995,0.18419999999999992,0.5136000000000001]",fourtwo,"[-0.45899999999999996,-0.3256,-0.9374]",-4,3.053,-53,119,1,0,0,response7disk_5,-46,-1,1,0,0,rectangle_8,-46,-1,1,0,0,3,-46,-1,1,0,0,6,0,6,0,1,,,,,,,,,,,,,,,,,,,,,,,,,,,,,,,,,,,,,,,,,,,,,,,,,,,,,,,,,,,,,,,,,,,,,,,,,,,,,,,,,,,,,,,,,,,,,,,,,,,,,,,,,,,,,,,,,
,,,,,,5d36e9bf100e6c00187db8aa,62c5394b05352c4b7cc79222,2022-07-06_08h27.33.358,Colour_Asymmetry_Pilot,2022.1.3,Win32,59.79073244,62c50e9c1127f2cd403a315f,,,,,,,,,,,,,,,,,,,,fourthree,,-4,2.2699,,,,,,,,,,,,,,,,,,,,,,,,,,,,,,,,space,4.2412,"[0.7176,-0.906,-0.6864]","[-0.9296,-0.12959999999999994,-0.043199999999999905]",-45,111,1,0,0,response7disk,-24,3,1,0,0,rectangle,-24,3,1,0,0,,2,0.0015,0,-24,3,1,0,0,0,0,0,41,1,41,first,,,,,,,,,,,,,,,,,,,,,,,,,,,,,,,,,,,,,,,,,,,,,,,,,,,,,,,,,,,,,,,,,,,,,,,,,
,,,,,,5d36e9bf100e6c00187db8aa,62c5394b05352c4b7cc79222,2022-07-06_08h27.33.358,Colour_Asymmetry_Pilot,2022.1.3,Win32,59.79073244,62c50e9c1127f2cd403a315f,,,,,,,,,,,,,,,,,,,,twofour,,-4,1.4684,,,,,,,,,,,,,,,,,,,,,,,,,,,,,,,,,,"[0.40379999999999994,0.09000000000000008,0.44300000000000006]","[-0.0040000000000000036,0.02739999999999987,-0.08239999999999992]",-51,83,1,0,0,response7disk,-29,2,1,0,0,rectangle,-29,2,1,0,0,,3,0.0009,0,-29,2,1,0,0,0,1,1,99,1,18,second,,,,,,,,,,,,,,,,,,,,,,,,,,,,,,,,,,,,,,,,,,,,,,,,,,,,,,,,,,,,,,,,,,,,,,,,,
,,,,,,5d36e9bf100e6c00187db8aa,62c5394b05352c4b7cc79222,2022-07-06_08h27.33.358,Colour_Asymmetry_Pilot,2022.1.3,Win32,59.79073244,62c50e9c1127f2cd403a315f,,,,,,,,,,,,,,,,,,,,onethree,,-4,4.2883,,,,,,,,,,,,,,,,,,,,,,,,,,,,,,,,,,"[-0.17659999999999998,-0.2864,-0.8354]","[-0.4902000000000001,0.2704,-0.45899999999999996]",-48,104,1,0,0,response7disk,-17,5,1,0,0,rectangle,-17,5,1,0,0,,1,0.0008,0,-17,5,1,0,0,0,2,2,35,1,35,first,,,,,,,,,,,,,,,,,,,,,,,,,,,,,,,,,,,,,,,,,,,,,,,,,,,,,,,,,,,,,,,,,,,,,,,,,
,,,,,,5d36e9bf100e6c00187db8aa,62c5394b05352c4b7cc79222,2022-07-06_08h27.33.358,Colour_Asymmetry_Pilot,2022.1.3,Win32,59.79073244,62c50e9c1127f2cd403a315f,,,,,,,,,,,,,,,,,,,,onetwo,,-4,0.7515,,,,,,,,,,,,,,,,,,,,,,,,,,,,,,,,,,"[0.7018,0.7802,-0.16079999999999994]","[-0.9688,-0.38039999999999996,-0.41979999999999995]",-65,116,1,0,0,response7disk,-22,11,1,0,0,rectangle,-22,11,1,0,0,,2,0.0007,0,-22,11,1,0,0,0,3,3,153,1,72,second,,,,,,,,,,,,,,,,,,,,,,,,,,,,,,,,,,,,,,,,,,,,,,,,,,,,,,,,,,,,,,,,,,,,,,,,,
,,,,,,5d36e9bf100e6c00187db8aa,62c5394b05352c4b7cc79222,2022-07-06_08h27.33.358,Colour_Asymmetry_Pilot,2022.1.3,Win32,59.79073244,62c50e9c1127f2cd403a315f,,,,,,,,,,,,,,,,,,,,onetwo,,-4,0.6011,,,,,,,,,,,,,,,,,,,,,,,,,,,,,,,,,,"[0.05879999999999996,0.2784,0.5841999999999998]","[-0.34920000000000007,-0.702,-0.5216]",-60,116,1,0,0,response7disk,-25,9,1,0,0,rectangle,-25,9,1,0,0,,3,0.0026,0,-25,9,1,0,0,0,4,4,6,1,6,first,,,,,,,,,,,,,,,,,,,,,,,,,,,,,,,,,,,,,,,,,,,,,,,,,,,,,,,,,,,,,,,,,,,,,,,,,
,,,,,,5d36e9bf100e6c00187db8aa,62c5394b05352c4b7cc79222,2022-07-06_08h27.33.358,Colour_Asymmetry_Pilot,2022.1.3,Win32,59.79073244,62c50e9c1127f2cd403a315f,,,,,,,,,,,,,,,,,,,,threeone,,-4,1.0845,,,,,,,,,,,,,,,,,,,,,,,,,,,,,,,,,,"[0.9763999999999999,0.30979999999999985,-0.6786]","[0.18419999999999992,-0.4276,-0.404]",-49,111,1,0,0,response7disk,-21,12,1,0,0,rectangle,-21,12,1,0,0,,3,0.0002,0,-21,12,1,0,0,0,5,5,143,1,62,second,,,,,,,,,,,,,,,,,,,,,,,,,,,,,,,,,,,,,,,,,,,,,,,,,,,,,,,,,,,,,,,,,,,,,,,,,
,,,,,,5d36e9bf100e6c00187db8aa,62c5394b05352c4b7cc79222,2022-07-06_08h27.33.358,Colour_Asymmetry_Pilot,2022.1.3,Win32,59.79073244,62c50e9c1127f2cd403a315f,,,,,,,,,,,,,,,,,,,,twofour,,-4,1.252,,,,,,,,,,,,,,,,,,,,,,,,,,,,,,,,,,"[0.6625999999999999,0.4980000000000002,-0.357]","[0.3568,-0.20799999999999996,-0.9844]",-48,100,1,0,0,response7disk,-25,15,1,0,0,rectangle,-25,15,1,0,0,,2,0.0008,0,-25,15,1,0,0,0,6,6,142,1,61,second,,,,,,,,,,,,,,,,,,,,,,,,,,,,,,,,,,,,,,,,,,,,,,,,,,,,,,,,,,,,,,,,,,,,,,,,,
,,,,,,5d36e9bf100e6c00187db8aa,62c5394b05352c4b7cc79222,2022-07-06_08h27.33.358,Colour_Asymmetry_Pilot,2022.1.3,Win32,59.79073244,62c50e9c1127f2cd403a315f,,,,,,,,,,,,,,,,,,,,fourtwo,,-4,0.5837,,,,,,,,,,,,,,,,,,,,,,,,,,,,,,,,,,"[-0.09019999999999995,0.44300000000000006,0.5371999999999999]","[-0.9138,-0.5296000000000001,-0.5529999999999999]",-72,114,1,0,0,response7disk,-28,13,1,0,0,rectangle,-28,13,1,0,0,,1,0.0009,0,-28,13,1,0,0,0,7,7,26,1,26,first,,,,,,,,,,,,,,,,,,,,,,,,,,,,,,,,,,,,,,,,,,,,,,,,,,,,,,,,,,,,,,,,,,,,,,,,,
,,,,,,5d36e9bf100e6c00187db8aa,62c5394b05352c4b7cc79222,2022-07-06_08h27.33.358,Colour_Asymmetry_Pilot,2022.1.3,Win32,59.79073244,62c50e9c1127f2cd403a315f,,,,,,,,,,,,,,,,,,,,fourtwo,,-4,0.6005,,,,,,,,,,,,,,,,,,,,,,,,,,,,,,,,,,"[-0.5922000000000001,-0.7492000000000001,-0.5296000000000001]","[-0.6,0.16860000000000008,0.44300000000000006]",-66,110,1,0,0,response7disk,-25,9,1,0,0,rectangle,-25,9,1,0,0,,1,9.99999E-05,0,-25,9,1,0,0,0,8,8,110,1,29,second,,,,,,,,,,,,,,,,,,,,,,,,,,,,,,,,,,,,,,,,,,,,,,,,,,,,,,,,,,,,,,,,,,,,,,,,,
,,,,,,5d36e9bf100e6c00187db8aa,62c5394b05352c4b7cc79222,2022-07-06_08h27.33.358,Colour_Asymmetry_Pilot,2022.1.3,Win32,59.79073244,62c50e9c1127f2cd403a315f,,,,,,,,,,,,,,,,,,,,fourtwo,,-4,1.019,,,,,,,,,,,,,,,,,,,,,,,,,,,,,,,,,,"[-0.9766,-0.34920000000000007,0.2156]","[0.9763999999999999,-0.1137999999999999,-0.6314]",-48,90,1,0,0,response7disk,-22,18,1,0,0,rectangle,-22,18,1,0,0,,3,0.0009,0,-22,18,1,0,0,0,9,9,100,1,19,second,,,,,,,,,,,,,,,,,,,,,,,,,,,,,,,,,,,,,,,,,,,,,,,,,,,,,,,,,,,,,,,,,,,,,,,,,
,,,,,,5d36e9bf100e6c00187db8aa,62c5394b05352c4b7cc79222,2022-07-06_08h27.33.358,Colour_Asymmetry_Pilot,2022.1.3,Win32,59.79073244,62c50e9c1127f2cd403a315f,,,,,,,,,,,,,,,,,,,,twofour,,-4,0.3503,,,,,,,,,,,,,,,,,,,,,,,,,,,,,,,,,,"[-0.9844,-0.9688,-0.9922]","[0.0351999999999999,0.41159999999999997,0.0038000000000000256]",-61,110,1,0,0,response7disk,-13,17,1,0,0,rectangle,-13,17,1,0,0,,1,0.0008,0,-13,17,1,0,0,0,10,10,5,1,5,first,,,,,,,,,,,,,,,,,,,,,,,,,,,,,,,,,,,,,,,,,,,,,,,,,,,,,,,,,,,,,,,,,,,,,,,,,
,,,,,,5d36e9bf100e6c00187db8aa,62c5394b05352c4b7cc79222,2022-07-06_08h27.33.358,Colour_Asymmetry_Pilot,2022.1.3,Win32,59.79073244,62c50e9c1127f2cd403a315f,,,,,,,,,,,,,,,,,,,,fourthree,,-4,0.3664,,,,,,,,,,,,,,,,,,,,,,,,,,,,,,,,,,"[-0.9688,-0.7412000000000001,-0.4902000000000001]","[0.37240000000000006,0.4980000000000002,-0.2864]",-54,113,1,0,0,response7disk,-29,13,1,0,0,rectangle,-29,13,1,0,0,,2,0.0014,0,-29,13,1,0,0,0,11,11,152,1,71,second,,,,,,,,,,,,,,,,,,,,,,,,,,,,,,,,,,,,,,,,,,,,,,,,,,,,,,,,,,,,,,,,,,,,,,,,,
,,,,,,5d36e9bf100e6c00187db8aa,62c5394b05352c4b7cc79222,2022-07-06_08h27.33.358,Colour_Asymmetry_Pilot,2022.1.3,Win32,59.79073244,62c50e9c1127f2cd403a315f,,,,,,,,,,,,,,,,,,,,onethree,,-4,0.3838,,,,,,,,,,,,,,,,,,,,,,,,,,,,,,,,,,"[0.09799999999999986,-0.24719999999999998,0.15280000000000005]","[0.23920000000000008,0.2704,0.16060000000000008]",-53,100,1,0,0,response7disk,-19,12,1,0,0,rectangle,-19,12,1,0,0,,1,0.0008,0,-19,12,1,0,0,0,12,12,47,1,47,first,,,,,,,,,,,,,,,,,,,,,,,,,,,,,,,,,,,,,,,,,,,,,,,,,,,,,,,,,,,,,,,,,,,,,,,,,
,,,,,,5d36e9bf100e6c00187db8aa,62c5394b05352c4b7cc79222,2022-07-06_08h27.33.358,Colour_Asymmetry_Pilot,2022.1.3,Win32,59.79073244,62c50e9c1127f2cd403a315f,,,,,,,,,,,,,,,,,,,,fourtwo,,-4,0.3502,,,,,,,,,,,,,,,,,,,,,,,,,,,,,,,,,,"[-0.050999999999999934,-0.6706000000000001,-0.804]","[-0.4668,-0.8746,-0.2942]",-49,103,1,0,0,response7disk,-13,9,1,0,0,rectangle,-13,9,1,0,0,,1,0.0003,0,-13,9,1,0,0,0,13,13,48,1,48,first,,,,,,,,,,,,,,,,,,,,,,,,,,,,,,,,,,,,,,,,,,,,,,,,,,,,,,,,,,,,,,,,,,,,,,,,,
,,,,,,5d36e9bf100e6c00187db8aa,62c5394b05352c4b7cc79222,2022-07-06_08h27.33.358,Colour_Asymmetry_Pilot,2022.1.3,Win32,59.79073244,62c50e9c1127f2cd403a315f,,,,,,,,,,,,,,,,,,,,threefour,,-2,2.0185,,,,,,,,,,,,,,,,,,,,,,,,,,,,,,,,,,"[0.19199999999999995,0.18419999999999992,0.5136000000000001]","[-0.9766,-0.34920000000000007,0.2156]",-111,-50,1,0,0,response5disk,-23,6,1,0,0,rectangle,-23,6,1,0,0,,2,0.0012,0,-23,6,1,0,0,0,14,14,79,1,79,first,,,,,,,,,,,,,,,,,,,,,,,,,,,,,,,,,,,,,,,,,,,,,,,,,,,,,,,,,,,,,,,,,,,,,,,,,
,,,,,,5d36e9bf100e6c00187db8aa,62c5394b05352c4b7cc79222,2022-07-06_08h27.33.358,Colour_Asymmetry_Pilot,2022.1.3,Win32,59.79073244,62c50e9c1127f2cd403a315f,,,,,,,,,,,,,,,,,,,,fourtwo,,-4,0.7839,,,,,,,,,,,,,,,,,,,,,,,,,,,,,,,,,,"[-0.48240000000000005,0.3175999999999999,0.2156]","[0.9372,0.20779999999999998,0.2704]",-68,105,1,0,0,response7disk,-20,4,1,0,0,rectangle,-20,4,1,0,0,,3,0.0011,0,-20,4,1,0,0,0,15,15,73,1,73,first,,,,,,,,,,,,,,,,,,,,,,,,,,,,,,,,,,,,,,,,,,,,,,,,,,,,,,,,,,,,,,,,,,,,,,,,,
,,,,,,5d36e9bf100e6c00187db8aa,62c5394b05352c4b7cc79222,2022-07-06_08h27.33.358,Colour_Asymmetry_Pilot,2022.1.3,Win32,59.79073244,62c50e9c1127f2cd403a315f,,,,,,,,,,,,,,,,,,,,fourthree,,-4,0.3502,,,,,,,,,,,,,,,,,,,,,,,,,,,,,,,,,,"[-0.2942,-0.24719999999999998,-0.357]","[0.12939999999999996,-0.2864,0.3253999999999999]",-52,110,1,0,0,response7disk,-24,13,1,0,0,rectangle,-24,13,1,0,0,,1,0.0013,0,-24,13,1,0,0,0,16,16,83,1,2,second,,,,,,,,,,,,,,,,,,,,,,,,,,,,,,,,,,,,,,,,,,,,,,,,,,,,,,,,,,,,,,,,,,,,,,,,,
