trials.thisRepN,trials.thisTrialN,trials.thisN,trials.thisIndex,trials.ran,Colourcodes,participant,session,date,expName,psychopyVersion,OS,frameRate,study_id,trials_4.thisRepN,trials_4.thisTrialN,trials_4.thisN,trials_4.thisIndex,trials_4.ran,StimulusPos,key_resp.keys,key_resp.rt,key_resp_2.keys,key_resp_2.rt,key_resp_15.keys,key_resp_15.rt,key_resp_17.keys,key_resp_17.rt,key_resp_9.keys,key_resp_9.rt,key_resp_10.keys,key_resp_10.rt,Circle1_col,Ecc,Circle2_col,similarity,response_time,mouse_5.x,mouse_5.y,mouse_5.leftButton,mouse_5.midButton,mouse_5.rightButton,mouse_5.clicked_name,mouse_10.x,mouse_10.y,mouse_10.leftButton,mouse_10.midButton,mouse_10.rightButton,mouse_10.clicked_name,mouse_7.x,mouse_7.y,mouse_7.leftButton,mouse_7.midButton,mouse_7.rightButton,catchnumberprac,mouse_6.x,mouse_6.y,mouse_6.leftButton,mouse_6.midButton,mouse_6.rightButton,duringprac.thisRepN,duringprac.thisTrialN,duringprac.thisN,duringprac.thisIndex,duringprac.ran,mouse_7.clicked_name,catchprac,mouse_6.clicked_name,key_resp_22.keys,key_resp_22.rt,Circle1_colour,Circle2_colour,mouse.x,mouse.y,mouse.leftButton,mouse.midButton,mouse.rightButton,mouse.clicked_name,mouse_2.x,mouse_2.y,mouse_2.leftButton,mouse_2.midButton,mouse_2.rightButton,mouse_2.clicked_name,mouse_3.x,mouse_3.y,mouse_3.leftButton,mouse_3.midButton,mouse_3.rightButton,catchresponse,catchnumber,response_time_catch,Catch,mouse_11.x,mouse_11.y,mouse_11.leftButton,mouse_11.midButton,mouse_11.rightButton,trials_2.thisRepN,trials_2.thisTrialN,trials_2.thisN,trials_2.thisIndex,trials_2.ran,Colourpair,Temporder,mouse_3.clicked_name,mouse_11.clicked_name,trials_3.thisRepN,trials_3.thisTrialN,trials_3.thisN,trials_3.thisIndex,trials_3.ran,key_resp_instr_Ishi.keys,key_resp_instr_Ishi.rt,Ishi_trial_keyresp.keys,Ishi_textbox.text,Ishi_mouse.x,Ishi_mouse.y,Ishi_mouse.leftButton,Ishi_mouse.midButton,Ishi_mouse.rightButton,Ishi_mouse.clicked_name,Ishi_loop.thisRepN,Ishi_loop.thisTrialN,Ishi_loop.thisN,Ishi_loop.thisIndex,Ishi_loop.ran,imageaddress,textbox.text,mouse_4.x,mouse_4.y,mouse_4.leftButton,mouse_4.midButton,mouse_4.rightButton,mouse_4.clicked_name,textbox_2.text,mouse_8.x,mouse_8.y,mouse_8.leftButton,mouse_8.midButton,mouse_8.rightButton,mouse_8.clicked_name,textbox_3.text,mouse_9.x,mouse_9.y,mouse_9.leftButton,mouse_9.midButton,mouse_9.rightButton,mouse_9.clicked_name,textbox_4.text,mouse_12.x,mouse_12.y,mouse_12.leftButton,mouse_12.midButton,mouse_12.rightButton,mouse_12.clicked_name,textbox_5.text,mouse_13.x,mouse_13.y,mouse_13.leftButton,mouse_13.midButton,mouse_13.rightButton,mouse_13.clicked_name,textbox_6.text,mouse_14.x,mouse_14.y,mouse_14.leftButton,mouse_14.midButton,mouse_14.rightButton,mouse_14.clicked_name,textbox_7.text,mouse_15.x,mouse_15.y,mouse_15.leftButton,mouse_15.midButton,mouse_15.rightButton
0,0,0,7,1,,61000423f045809db30f8a5b,62c538da2ab3e642b99fa9d1,2022-07-06_09h25.43.310,Colour_Asymmetry_Pilot,2022.1.3,Win32,59.21013678,62c50e9c1127f2cd403a315f,,,,,,,,,,,,,,,,,,,,,,,,,,,,,,,,,,,,,,,,,,,,,,,,,,,,,,,,,,,,,,,,,,,,,,,,,,,,,,,,,,,,,,,,,,,,,,,,,,,,,,,,,,,,,,,,,,,,,,,,,,,,,,,,,,,,,,,,,,,,,,,,,,,,,,,,,,,,,,,,,,
0,1,1,26,1,,61000423f045809db30f8a5b,62c538da2ab3e642b99fa9d1,2022-07-06_09h25.43.310,Colour_Asymmetry_Pilot,2022.1.3,Win32,59.21013678,62c50e9c1127f2cd403a315f,,,,,,,,,,,,,,,,,,,,,,,,,,,,,,,,,,,,,,,,,,,,,,,,,,,,,,,,,,,,,,,,,,,,,,,,,,,,,,,,,,,,,,,,,,,,,,,,,,,,,,,,,,,,,,,,,,,,,,,,,,,,,,,,,,,,,,,,,,,,,,,,,,,,,,,,,,,,,,,,,,
0,2,2,72,1,,61000423f045809db30f8a5b,62c538da2ab3e642b99fa9d1,2022-07-06_09h25.43.310,Colour_Asymmetry_Pilot,2022.1.3,Win32,59.21013678,62c50e9c1127f2cd403a315f,,,,,,,,,,,,,,,,,,,,,,,,,,,,,,,,,,,,,,,,,,,,,,,,,,,,,,,,,,,,,,,,,,,,,,,,,,,,,,,,,,,,,,,,,,,,,,,,,,,,,,,,,,,,,,,,,,,,,,,,,,,,,,,,,,,,,,,,,,,,,,,,,,,,,,,,,,,,,,,,,,
0,3,3,41,1,,61000423f045809db30f8a5b,62c538da2ab3e642b99fa9d1,2022-07-06_09h25.43.310,Colour_Asymmetry_Pilot,2022.1.3,Win32,59.21013678,62c50e9c1127f2cd403a315f,,,,,,,,,,,,,,,,,,,,,,,,,,,,,,,,,,,,,,,,,,,,,,,,,,,,,,,,,,,,,,,,,,,,,,,,,,,,,,,,,,,,,,,,,,,,,,,,,,,,,,,,,,,,,,,,,,,,,,,,,,,,,,,,,,,,,,,,,,,,,,,,,,,,,,,,,,,,,,,,,,
0,4,4,37,1,,61000423f045809db30f8a5b,62c538da2ab3e642b99fa9d1,2022-07-06_09h25.43.310,Colour_Asymmetry_Pilot,2022.1.3,Win32,59.21013678,62c50e9c1127f2cd403a315f,,,,,,,,,,,,,,,,,,,,,,,,,,,,,,,,,,,,,,,,,,,,,,,,,,,,,,,,,,,,,,,,,,,,,,,,,,,,,,,,,,,,,,,,,,,,,,,,,,,,,,,,,,,,,,,,,,,,,,,,,,,,,,,,,,,,,,,,,,,,,,,,,,,,,,,,,,,,,,,,,,
0,5,5,65,1,,61000423f045809db30f8a5b,62c538da2ab3e642b99fa9d1,2022-07-06_09h25.43.310,Colour_Asymmetry_Pilot,2022.1.3,Win32,59.21013678,62c50e9c1127f2cd403a315f,,,,,,,,,,,,,,,,,,,,,,,,,,,,,,,,,,,,,,,,,,,,,,,,,,,,,,,,,,,,,,,,,,,,,,,,,,,,,,,,,,,,,,,,,,,,,,,,,,,,,,,,,,,,,,,,,,,,,,,,,,,,,,,,,,,,,,,,,,,,,,,,,,,,,,,,,,,,,,,,,,
0,6,6,34,1,,61000423f045809db30f8a5b,62c538da2ab3e642b99fa9d1,2022-07-06_09h25.43.310,Colour_Asymmetry_Pilot,2022.1.3,Win32,59.21013678,62c50e9c1127f2cd403a315f,,,,,,,,,,,,,,,,,,,,,,,,,,,,,,,,,,,,,,,,,,,,,,,,,,,,,,,,,,,,,,,,,,,,,,,,,,,,,,,,,,,,,,,,,,,,,,,,,,,,,,,,,,,,,,,,,,,,,,,,,,,,,,,,,,,,,,,,,,,,,,,,,,,,,,,,,,,,,,,,,,
0,7,7,52,1,,61000423f045809db30f8a5b,62c538da2ab3e642b99fa9d1,2022-07-06_09h25.43.310,Colour_Asymmetry_Pilot,2022.1.3,Win32,59.21013678,62c50e9c1127f2cd403a315f,,,,,,,,,,,,,,,,,,,,,,,,,,,,,,,,,,,,,,,,,,,,,,,,,,,,,,,,,,,,,,,,,,,,,,,,,,,,,,,,,,,,,,,,,,,,,,,,,,,,,,,,,,,,,,,,,,,,,,,,,,,,,,,,,,,,,,,,,,,,,,,,,,,,,,,,,,,,,,,,,,
0,8,8,91,1,,61000423f045809db30f8a5b,62c538da2ab3e642b99fa9d1,2022-07-06_09h25.43.310,Colour_Asymmetry_Pilot,2022.1.3,Win32,59.21013678,62c50e9c1127f2cd403a315f,,,,,,,,,,,,,,,,,,,,,,,,,,,,,,,,,,,,,,,,,,,,,,,,,,,,,,,,,,,,,,,,,,,,,,,,,,,,,,,,,,,,,,,,,,,,,,,,,,,,,,,,,,,,,,,,,,,,,,,,,,,,,,,,,,,,,,,,,,,,,,,,,,,,,,,,,,,,,,,,,,
0,9,9,55,1,,61000423f045809db30f8a5b,62c538da2ab3e642b99fa9d1,2022-07-06_09h25.43.310,Colour_Asymmetry_Pilot,2022.1.3,Win32,59.21013678,62c50e9c1127f2cd403a315f,,,,,,,,,,,,,,,,,,,,,,,,,,,,,,,,,,,,,,,,,,,,,,,,,,,,,,,,,,,,,,,,,,,,,,,,,,,,,,,,,,,,,,,,,,,,,,,,,,,,,,,,,,,,,,,,,,,,,,,,,,,,,,,,,,,,,,,,,,,,,,,,,,,,,,,,,,,,,,,,,,
0,10,10,68,1,,61000423f045809db30f8a5b,62c538da2ab3e642b99fa9d1,2022-07-06_09h25.43.310,Colour_Asymmetry_Pilot,2022.1.3,Win32,59.21013678,62c50e9c1127f2cd403a315f,,,,,,,,,,,,,,,,,,,,,,,,,,,,,,,,,,,,,,,,,,,,,,,,,,,,,,,,,,,,,,,,,,,,,,,,,,,,,,,,,,,,,,,,,,,,,,,,,,,,,,,,,,,,,,,,,,,,,,,,,,,,,,,,,,,,,,,,,,,,,,,,,,,,,,,,,,,,,,,,,,
0,11,11,77,1,,61000423f045809db30f8a5b,62c538da2ab3e642b99fa9d1,2022-07-06_09h25.43.310,Colour_Asymmetry_Pilot,2022.1.3,Win32,59.21013678,62c50e9c1127f2cd403a315f,,,,,,,,,,,,,,,,,,,,,,,,,,,,,,,,,,,,,,,,,,,,,,,,,,,,,,,,,,,,,,,,,,,,,,,,,,,,,,,,,,,,,,,,,,,,,,,,,,,,,,,,,,,,,,,,,,,,,,,,,,,,,,,,,,,,,,,,,,,,,,,,,,,,,,,,,,,,,,,,,,
0,12,12,87,1,,61000423f045809db30f8a5b,62c538da2ab3e642b99fa9d1,2022-07-06_09h25.43.310,Colour_Asymmetry_Pilot,2022.1.3,Win32,59.21013678,62c50e9c1127f2cd403a315f,,,,,,,,,,,,,,,,,,,,,,,,,,,,,,,,,,,,,,,,,,,,,,,,,,,,,,,,,,,,,,,,,,,,,,,,,,,,,,,,,,,,,,,,,,,,,,,,,,,,,,,,,,,,,,,,,,,,,,,,,,,,,,,,,,,,,,,,,,,,,,,,,,,,,,,,,,,,,,,,,,
0,13,13,69,1,,61000423f045809db30f8a5b,62c538da2ab3e642b99fa9d1,2022-07-06_09h25.43.310,Colour_Asymmetry_Pilot,2022.1.3,Win32,59.21013678,62c50e9c1127f2cd403a315f,,,,,,,,,,,,,,,,,,,,,,,,,,,,,,,,,,,,,,,,,,,,,,,,,,,,,,,,,,,,,,,,,,,,,,,,,,,,,,,,,,,,,,,,,,,,,,,,,,,,,,,,,,,,,,,,,,,,,,,,,,,,,,,,,,,,,,,,,,,,,,,,,,,,,,,,,,,,,,,,,,
0,14,14,17,1,,61000423f045809db30f8a5b,62c538da2ab3e642b99fa9d1,2022-07-06_09h25.43.310,Colour_Asymmetry_Pilot,2022.1.3,Win32,59.21013678,62c50e9c1127f2cd403a315f,,,,,,,,,,,,,,,,,,,,,,,,,,,,,,,,,,,,,,,,,,,,,,,,,,,,,,,,,,,,,,,,,,,,,,,,,,,,,,,,,,,,,,,,,,,,,,,,,,,,,,,,,,,,,,,,,,,,,,,,,,,,,,,,,,,,,,,,,,,,,,,,,,,,,,,,,,,,,,,,,,
0,15,15,5,1,,61000423f045809db30f8a5b,62c538da2ab3e642b99fa9d1,2022-07-06_09h25.43.310,Colour_Asymmetry_Pilot,2022.1.3,Win32,59.21013678,62c50e9c1127f2cd403a315f,,,,,,,,,,,,,,,,,,,,,,,,,,,,,,,,,,,,,,,,,,,,,,,,,,,,,,,,,,,,,,,,,,,,,,,,,,,,,,,,,,,,,,,,,,,,,,,,,,,,,,,,,,,,,,,,,,,,,,,,,,,,,,,,,,,,,,,,,,,,,,,,,,,,,,,,,,,,,,,,,,
0,16,16,25,1,,61000423f045809db30f8a5b,62c538da2ab3e642b99fa9d1,2022-07-06_09h25.43.310,Colour_Asymmetry_Pilot,2022.1.3,Win32,59.21013678,62c50e9c1127f2cd403a315f,,,,,,,,,,,,,,,,,,,,,,,,,,,,,,,,,,,,,,,,,,,,,,,,,,,,,,,,,,,,,,,,,,,,,,,,,,,,,,,,,,,,,,,,,,,,,,,,,,,,,,,,,,,,,,,,,,,,,,,,,,,,,,,,,,,,,,,,,,,,,,,,,,,,,,,,,,,,,,,,,,
0,17,17,80,1,,61000423f045809db30f8a5b,62c538da2ab3e642b99fa9d1,2022-07-06_09h25.43.310,Colour_Asymmetry_Pilot,2022.1.3,Win32,59.21013678,62c50e9c1127f2cd403a315f,,,,,,,,,,,,,,,,,,,,,,,,,,,,,,,,,,,,,,,,,,,,,,,,,,,,,,,,,,,,,,,,,,,,,,,,,,,,,,,,,,,,,,,,,,,,,,,,,,,,,,,,,,,,,,,,,,,,,,,,,,,,,,,,,,,,,,,,,,,,,,,,,,,,,,,,,,,,,,,,,,
0,18,18,4,1,,61000423f045809db30f8a5b,62c538da2ab3e642b99fa9d1,2022-07-06_09h25.43.310,Colour_Asymmetry_Pilot,2022.1.3,Win32,59.21013678,62c50e9c1127f2cd403a315f,,,,,,,,,,,,,,,,,,,,,,,,,,,,,,,,,,,,,,,,,,,,,,,,,,,,,,,,,,,,,,,,,,,,,,,,,,,,,,,,,,,,,,,,,,,,,,,,,,,,,,,,,,,,,,,,,,,,,,,,,,,,,,,,,,,,,,,,,,,,,,,,,,,,,,,,,,,,,,,,,,
0,19,19,70,1,,61000423f045809db30f8a5b,62c538da2ab3e642b99fa9d1,2022-07-06_09h25.43.310,Colour_Asymmetry_Pilot,2022.1.3,Win32,59.21013678,62c50e9c1127f2cd403a315f,,,,,,,,,,,,,,,,,,,,,,,,,,,,,,,,,,,,,,,,,,,,,,,,,,,,,,,,,,,,,,,,,,,,,,,,,,,,,,,,,,,,,,,,,,,,,,,,,,,,,,,,,,,,,,,,,,,,,,,,,,,,,,,,,,,,,,,,,,,,,,,,,,,,,,,,,,,,,,,,,,
0,20,20,27,1,,61000423f045809db30f8a5b,62c538da2ab3e642b99fa9d1,2022-07-06_09h25.43.310,Colour_Asymmetry_Pilot,2022.1.3,Win32,59.21013678,62c50e9c1127f2cd403a315f,,,,,,,,,,,,,,,,,,,,,,,,,,,,,,,,,,,,,,,,,,,,,,,,,,,,,,,,,,,,,,,,,,,,,,,,,,,,,,,,,,,,,,,,,,,,,,,,,,,,,,,,,,,,,,,,,,,,,,,,,,,,,,,,,,,,,,,,,,,,,,,,,,,,,,,,,,,,,,,,,,
0,21,21,36,1,,61000423f045809db30f8a5b,62c538da2ab3e642b99fa9d1,2022-07-06_09h25.43.310,Colour_Asymmetry_Pilot,2022.1.3,Win32,59.21013678,62c50e9c1127f2cd403a315f,,,,,,,,,,,,,,,,,,,,,,,,,,,,,,,,,,,,,,,,,,,,,,,,,,,,,,,,,,,,,,,,,,,,,,,,,,,,,,,,,,,,,,,,,,,,,,,,,,,,,,,,,,,,,,,,,,,,,,,,,,,,,,,,,,,,,,,,,,,,,,,,,,,,,,,,,,,,,,,,,,
0,22,22,15,1,,61000423f045809db30f8a5b,62c538da2ab3e642b99fa9d1,2022-07-06_09h25.43.310,Colour_Asymmetry_Pilot,2022.1.3,Win32,59.21013678,62c50e9c1127f2cd403a315f,,,,,,,,,,,,,,,,,,,,,,,,,,,,,,,,,,,,,,,,,,,,,,,,,,,,,,,,,,,,,,,,,,,,,,,,,,,,,,,,,,,,,,,,,,,,,,,,,,,,,,,,,,,,,,,,,,,,,,,,,,,,,,,,,,,,,,,,,,,,,,,,,,,,,,,,,,,,,,,,,,
0,23,23,0,1,,61000423f045809db30f8a5b,62c538da2ab3e642b99fa9d1,2022-07-06_09h25.43.310,Colour_Asymmetry_Pilot,2022.1.3,Win32,59.21013678,62c50e9c1127f2cd403a315f,,,,,,,,,,,,,,,,,,,,,,,,,,,,,,,,,,,,,,,,,,,,,,,,,,,,,,,,,,,,,,,,,,,,,,,,,,,,,,,,,,,,,,,,,,,,,,,,,,,,,,,,,,,,,,,,,,,,,,,,,,,,,,,,,,,,,,,,,,,,,,,,,,,,,,,,,,,,,,,,,,
0,24,24,10,1,,61000423f045809db30f8a5b,62c538da2ab3e642b99fa9d1,2022-07-06_09h25.43.310,Colour_Asymmetry_Pilot,2022.1.3,Win32,59.21013678,62c50e9c1127f2cd403a315f,,,,,,,,,,,,,,,,,,,,,,,,,,,,,,,,,,,,,,,,,,,,,,,,,,,,,,,,,,,,,,,,,,,,,,,,,,,,,,,,,,,,,,,,,,,,,,,,,,,,,,,,,,,,,,,,,,,,,,,,,,,,,,,,,,,,,,,,,,,,,,,,,,,,,,,,,,,,,,,,,,
0,25,25,6,1,,61000423f045809db30f8a5b,62c538da2ab3e642b99fa9d1,2022-07-06_09h25.43.310,Colour_Asymmetry_Pilot,2022.1.3,Win32,59.21013678,62c50e9c1127f2cd403a315f,,,,,,,,,,,,,,,,,,,,,,,,,,,,,,,,,,,,,,,,,,,,,,,,,,,,,,,,,,,,,,,,,,,,,,,,,,,,,,,,,,,,,,,,,,,,,,,,,,,,,,,,,,,,,,,,,,,,,,,,,,,,,,,,,,,,,,,,,,,,,,,,,,,,,,,,,,,,,,,,,,
0,26,26,20,1,,61000423f045809db30f8a5b,62c538da2ab3e642b99fa9d1,2022-07-06_09h25.43.310,Colour_Asymmetry_Pilot,2022.1.3,Win32,59.21013678,62c50e9c1127f2cd403a315f,,,,,,,,,,,,,,,,,,,,,,,,,,,,,,,,,,,,,,,,,,,,,,,,,,,,,,,,,,,,,,,,,,,,,,,,,,,,,,,,,,,,,,,,,,,,,,,,,,,,,,,,,,,,,,,,,,,,,,,,,,,,,,,,,,,,,,,,,,,,,,,,,,,,,,,,,,,,,,,,,,
0,27,27,49,1,,61000423f045809db30f8a5b,62c538da2ab3e642b99fa9d1,2022-07-06_09h25.43.310,Colour_Asymmetry_Pilot,2022.1.3,Win32,59.21013678,62c50e9c1127f2cd403a315f,,,,,,,,,,,,,,,,,,,,,,,,,,,,,,,,,,,,,,,,,,,,,,,,,,,,,,,,,,,,,,,,,,,,,,,,,,,,,,,,,,,,,,,,,,,,,,,,,,,,,,,,,,,,,,,,,,,,,,,,,,,,,,,,,,,,,,,,,,,,,,,,,,,,,,,,,,,,,,,,,,
0,28,28,92,1,,61000423f045809db30f8a5b,62c538da2ab3e642b99fa9d1,2022-07-06_09h25.43.310,Colour_Asymmetry_Pilot,2022.1.3,Win32,59.21013678,62c50e9c1127f2cd403a315f,,,,,,,,,,,,,,,,,,,,,,,,,,,,,,,,,,,,,,,,,,,,,,,,,,,,,,,,,,,,,,,,,,,,,,,,,,,,,,,,,,,,,,,,,,,,,,,,,,,,,,,,,,,,,,,,,,,,,,,,,,,,,,,,,,,,,,,,,,,,,,,,,,,,,,,,,,,,,,,,,,
0,29,29,11,1,,61000423f045809db30f8a5b,62c538da2ab3e642b99fa9d1,2022-07-06_09h25.43.310,Colour_Asymmetry_Pilot,2022.1.3,Win32,59.21013678,62c50e9c1127f2cd403a315f,,,,,,,,,,,,,,,,,,,,,,,,,,,,,,,,,,,,,,,,,,,,,,,,,,,,,,,,,,,,,,,,,,,,,,,,,,,,,,,,,,,,,,,,,,,,,,,,,,,,,,,,,,,,,,,,,,,,,,,,,,,,,,,,,,,,,,,,,,,,,,,,,,,,,,,,,,,,,,,,,,
0,30,30,56,1,,61000423f045809db30f8a5b,62c538da2ab3e642b99fa9d1,2022-07-06_09h25.43.310,Colour_Asymmetry_Pilot,2022.1.3,Win32,59.21013678,62c50e9c1127f2cd403a315f,,,,,,,,,,,,,,,,,,,,,,,,,,,,,,,,,,,,,,,,,,,,,,,,,,,,,,,,,,,,,,,,,,,,,,,,,,,,,,,,,,,,,,,,,,,,,,,,,,,,,,,,,,,,,,,,,,,,,,,,,,,,,,,,,,,,,,,,,,,,,,,,,,,,,,,,,,,,,,,,,,
0,31,31,47,1,,61000423f045809db30f8a5b,62c538da2ab3e642b99fa9d1,2022-07-06_09h25.43.310,Colour_Asymmetry_Pilot,2022.1.3,Win32,59.21013678,62c50e9c1127f2cd403a315f,,,,,,,,,,,,,,,,,,,,,,,,,,,,,,,,,,,,,,,,,,,,,,,,,,,,,,,,,,,,,,,,,,,,,,,,,,,,,,,,,,,,,,,,,,,,,,,,,,,,,,,,,,,,,,,,,,,,,,,,,,,,,,,,,,,,,,,,,,,,,,,,,,,,,,,,,,,,,,,,,,
0,32,32,18,1,,61000423f045809db30f8a5b,62c538da2ab3e642b99fa9d1,2022-07-06_09h25.43.310,Colour_Asymmetry_Pilot,2022.1.3,Win32,59.21013678,62c50e9c1127f2cd403a315f,,,,,,,,,,,,,,,,,,,,,,,,,,,,,,,,,,,,,,,,,,,,,,,,,,,,,,,,,,,,,,,,,,,,,,,,,,,,,,,,,,,,,,,,,,,,,,,,,,,,,,,,,,,,,,,,,,,,,,,,,,,,,,,,,,,,,,,,,,,,,,,,,,,,,,,,,,,,,,,,,,
0,33,33,28,1,,61000423f045809db30f8a5b,62c538da2ab3e642b99fa9d1,2022-07-06_09h25.43.310,Colour_Asymmetry_Pilot,2022.1.3,Win32,59.21013678,62c50e9c1127f2cd403a315f,,,,,,,,,,,,,,,,,,,,,,,,,,,,,,,,,,,,,,,,,,,,,,,,,,,,,,,,,,,,,,,,,,,,,,,,,,,,,,,,,,,,,,,,,,,,,,,,,,,,,,,,,,,,,,,,,,,,,,,,,,,,,,,,,,,,,,,,,,,,,,,,,,,,,,,,,,,,,,,,,,
0,34,34,39,1,,61000423f045809db30f8a5b,62c538da2ab3e642b99fa9d1,2022-07-06_09h25.43.310,Colour_Asymmetry_Pilot,2022.1.3,Win32,59.21013678,62c50e9c1127f2cd403a315f,,,,,,,,,,,,,,,,,,,,,,,,,,,,,,,,,,,,,,,,,,,,,,,,,,,,,,,,,,,,,,,,,,,,,,,,,,,,,,,,,,,,,,,,,,,,,,,,,,,,,,,,,,,,,,,,,,,,,,,,,,,,,,,,,,,,,,,,,,,,,,,,,,,,,,,,,,,,,,,,,,
0,35,35,84,1,,61000423f045809db30f8a5b,62c538da2ab3e642b99fa9d1,2022-07-06_09h25.43.310,Colour_Asymmetry_Pilot,2022.1.3,Win32,59.21013678,62c50e9c1127f2cd403a315f,,,,,,,,,,,,,,,,,,,,,,,,,,,,,,,,,,,,,,,,,,,,,,,,,,,,,,,,,,,,,,,,,,,,,,,,,,,,,,,,,,,,,,,,,,,,,,,,,,,,,,,,,,,,,,,,,,,,,,,,,,,,,,,,,,,,,,,,,,,,,,,,,,,,,,,,,,,,,,,,,,
0,36,36,57,1,,61000423f045809db30f8a5b,62c538da2ab3e642b99fa9d1,2022-07-06_09h25.43.310,Colour_Asymmetry_Pilot,2022.1.3,Win32,59.21013678,62c50e9c1127f2cd403a315f,,,,,,,,,,,,,,,,,,,,,,,,,,,,,,,,,,,,,,,,,,,,,,,,,,,,,,,,,,,,,,,,,,,,,,,,,,,,,,,,,,,,,,,,,,,,,,,,,,,,,,,,,,,,,,,,,,,,,,,,,,,,,,,,,,,,,,,,,,,,,,,,,,,,,,,,,,,,,,,,,,
0,37,37,38,1,,61000423f045809db30f8a5b,62c538da2ab3e642b99fa9d1,2022-07-06_09h25.43.310,Colour_Asymmetry_Pilot,2022.1.3,Win32,59.21013678,62c50e9c1127f2cd403a315f,,,,,,,,,,,,,,,,,,,,,,,,,,,,,,,,,,,,,,,,,,,,,,,,,,,,,,,,,,,,,,,,,,,,,,,,,,,,,,,,,,,,,,,,,,,,,,,,,,,,,,,,,,,,,,,,,,,,,,,,,,,,,,,,,,,,,,,,,,,,,,,,,,,,,,,,,,,,,,,,,,
0,38,38,50,1,,61000423f045809db30f8a5b,62c538da2ab3e642b99fa9d1,2022-07-06_09h25.43.310,Colour_Asymmetry_Pilot,2022.1.3,Win32,59.21013678,62c50e9c1127f2cd403a315f,,,,,,,,,,,,,,,,,,,,,,,,,,,,,,,,,,,,,,,,,,,,,,,,,,,,,,,,,,,,,,,,,,,,,,,,,,,,,,,,,,,,,,,,,,,,,,,,,,,,,,,,,,,,,,,,,,,,,,,,,,,,,,,,,,,,,,,,,,,,,,,,,,,,,,,,,,,,,,,,,,
0,39,39,85,1,,61000423f045809db30f8a5b,62c538da2ab3e642b99fa9d1,2022-07-06_09h25.43.310,Colour_Asymmetry_Pilot,2022.1.3,Win32,59.21013678,62c50e9c1127f2cd403a315f,,,,,,,,,,,,,,,,,,,,,,,,,,,,,,,,,,,,,,,,,,,,,,,,,,,,,,,,,,,,,,,,,,,,,,,,,,,,,,,,,,,,,,,,,,,,,,,,,,,,,,,,,,,,,,,,,,,,,,,,,,,,,,,,,,,,,,,,,,,,,,,,,,,,,,,,,,,,,,,,,,
0,40,40,35,1,,61000423f045809db30f8a5b,62c538da2ab3e642b99fa9d1,2022-07-06_09h25.43.310,Colour_Asymmetry_Pilot,2022.1.3,Win32,59.21013678,62c50e9c1127f2cd403a315f,,,,,,,,,,,,,,,,,,,,,,,,,,,,,,,,,,,,,,,,,,,,,,,,,,,,,,,,,,,,,,,,,,,,,,,,,,,,,,,,,,,,,,,,,,,,,,,,,,,,,,,,,,,,,,,,,,,,,,,,,,,,,,,,,,,,,,,,,,,,,,,,,,,,,,,,,,,,,,,,,,
0,41,41,74,1,,61000423f045809db30f8a5b,62c538da2ab3e642b99fa9d1,2022-07-06_09h25.43.310,Colour_Asymmetry_Pilot,2022.1.3,Win32,59.21013678,62c50e9c1127f2cd403a315f,,,,,,,,,,,,,,,,,,,,,,,,,,,,,,,,,,,,,,,,,,,,,,,,,,,,,,,,,,,,,,,,,,,,,,,,,,,,,,,,,,,,,,,,,,,,,,,,,,,,,,,,,,,,,,,,,,,,,,,,,,,,,,,,,,,,,,,,,,,,,,,,,,,,,,,,,,,,,,,,,,
0,42,42,62,1,,61000423f045809db30f8a5b,62c538da2ab3e642b99fa9d1,2022-07-06_09h25.43.310,Colour_Asymmetry_Pilot,2022.1.3,Win32,59.21013678,62c50e9c1127f2cd403a315f,,,,,,,,,,,,,,,,,,,,,,,,,,,,,,,,,,,,,,,,,,,,,,,,,,,,,,,,,,,,,,,,,,,,,,,,,,,,,,,,,,,,,,,,,,,,,,,,,,,,,,,,,,,,,,,,,,,,,,,,,,,,,,,,,,,,,,,,,,,,,,,,,,,,,,,,,,,,,,,,,,
0,43,43,86,1,,61000423f045809db30f8a5b,62c538da2ab3e642b99fa9d1,2022-07-06_09h25.43.310,Colour_Asymmetry_Pilot,2022.1.3,Win32,59.21013678,62c50e9c1127f2cd403a315f,,,,,,,,,,,,,,,,,,,,,,,,,,,,,,,,,,,,,,,,,,,,,,,,,,,,,,,,,,,,,,,,,,,,,,,,,,,,,,,,,,,,,,,,,,,,,,,,,,,,,,,,,,,,,,,,,,,,,,,,,,,,,,,,,,,,,,,,,,,,,,,,,,,,,,,,,,,,,,,,,,
0,44,44,63,1,,61000423f045809db30f8a5b,62c538da2ab3e642b99fa9d1,2022-07-06_09h25.43.310,Colour_Asymmetry_Pilot,2022.1.3,Win32,59.21013678,62c50e9c1127f2cd403a315f,,,,,,,,,,,,,,,,,,,,,,,,,,,,,,,,,,,,,,,,,,,,,,,,,,,,,,,,,,,,,,,,,,,,,,,,,,,,,,,,,,,,,,,,,,,,,,,,,,,,,,,,,,,,,,,,,,,,,,,,,,,,,,,,,,,,,,,,,,,,,,,,,,,,,,,,,,,,,,,,,,
0,45,45,64,1,,61000423f045809db30f8a5b,62c538da2ab3e642b99fa9d1,2022-07-06_09h25.43.310,Colour_Asymmetry_Pilot,2022.1.3,Win32,59.21013678,62c50e9c1127f2cd403a315f,,,,,,,,,,,,,,,,,,,,,,,,,,,,,,,,,,,,,,,,,,,,,,,,,,,,,,,,,,,,,,,,,,,,,,,,,,,,,,,,,,,,,,,,,,,,,,,,,,,,,,,,,,,,,,,,,,,,,,,,,,,,,,,,,,,,,,,,,,,,,,,,,,,,,,,,,,,,,,,,,,
0,46,46,24,1,,61000423f045809db30f8a5b,62c538da2ab3e642b99fa9d1,2022-07-06_09h25.43.310,Colour_Asymmetry_Pilot,2022.1.3,Win32,59.21013678,62c50e9c1127f2cd403a315f,,,,,,,,,,,,,,,,,,,,,,,,,,,,,,,,,,,,,,,,,,,,,,,,,,,,,,,,,,,,,,,,,,,,,,,,,,,,,,,,,,,,,,,,,,,,,,,,,,,,,,,,,,,,,,,,,,,,,,,,,,,,,,,,,,,,,,,,,,,,,,,,,,,,,,,,,,,,,,,,,,
0,47,47,58,1,,61000423f045809db30f8a5b,62c538da2ab3e642b99fa9d1,2022-07-06_09h25.43.310,Colour_Asymmetry_Pilot,2022.1.3,Win32,59.21013678,62c50e9c1127f2cd403a315f,,,,,,,,,,,,,,,,,,,,,,,,,,,,,,,,,,,,,,,,,,,,,,,,,,,,,,,,,,,,,,,,,,,,,,,,,,,,,,,,,,,,,,,,,,,,,,,,,,,,,,,,,,,,,,,,,,,,,,,,,,,,,,,,,,,,,,,,,,,,,,,,,,,,,,,,,,,,,,,,,,
0,48,48,78,1,,61000423f045809db30f8a5b,62c538da2ab3e642b99fa9d1,2022-07-06_09h25.43.310,Colour_Asymmetry_Pilot,2022.1.3,Win32,59.21013678,62c50e9c1127f2cd403a315f,,,,,,,,,,,,,,,,,,,,,,,,,,,,,,,,,,,,,,,,,,,,,,,,,,,,,,,,,,,,,,,,,,,,,,,,,,,,,,,,,,,,,,,,,,,,,,,,,,,,,,,,,,,,,,,,,,,,,,,,,,,,,,,,,,,,,,,,,,,,,,,,,,,,,,,,,,,,,,,,,,
0,49,49,43,1,,61000423f045809db30f8a5b,62c538da2ab3e642b99fa9d1,2022-07-06_09h25.43.310,Colour_Asymmetry_Pilot,2022.1.3,Win32,59.21013678,62c50e9c1127f2cd403a315f,,,,,,,,,,,,,,,,,,,,,,,,,,,,,,,,,,,,,,,,,,,,,,,,,,,,,,,,,,,,,,,,,,,,,,,,,,,,,,,,,,,,,,,,,,,,,,,,,,,,,,,,,,,,,,,,,,,,,,,,,,,,,,,,,,,,,,,,,,,,,,,,,,,,,,,,,,,,,,,,,,
0,50,50,60,1,,61000423f045809db30f8a5b,62c538da2ab3e642b99fa9d1,2022-07-06_09h25.43.310,Colour_Asymmetry_Pilot,2022.1.3,Win32,59.21013678,62c50e9c1127f2cd403a315f,,,,,,,,,,,,,,,,,,,,,,,,,,,,,,,,,,,,,,,,,,,,,,,,,,,,,,,,,,,,,,,,,,,,,,,,,,,,,,,,,,,,,,,,,,,,,,,,,,,,,,,,,,,,,,,,,,,,,,,,,,,,,,,,,,,,,,,,,,,,,,,,,,,,,,,,,,,,,,,,,,
0,51,51,23,1,,61000423f045809db30f8a5b,62c538da2ab3e642b99fa9d1,2022-07-06_09h25.43.310,Colour_Asymmetry_Pilot,2022.1.3,Win32,59.21013678,62c50e9c1127f2cd403a315f,,,,,,,,,,,,,,,,,,,,,,,,,,,,,,,,,,,,,,,,,,,,,,,,,,,,,,,,,,,,,,,,,,,,,,,,,,,,,,,,,,,,,,,,,,,,,,,,,,,,,,,,,,,,,,,,,,,,,,,,,,,,,,,,,,,,,,,,,,,,,,,,,,,,,,,,,,,,,,,,,,
0,52,52,51,1,,61000423f045809db30f8a5b,62c538da2ab3e642b99fa9d1,2022-07-06_09h25.43.310,Colour_Asymmetry_Pilot,2022.1.3,Win32,59.21013678,62c50e9c1127f2cd403a315f,,,,,,,,,,,,,,,,,,,,,,,,,,,,,,,,,,,,,,,,,,,,,,,,,,,,,,,,,,,,,,,,,,,,,,,,,,,,,,,,,,,,,,,,,,,,,,,,,,,,,,,,,,,,,,,,,,,,,,,,,,,,,,,,,,,,,,,,,,,,,,,,,,,,,,,,,,,,,,,,,,
0,53,53,71,1,,61000423f045809db30f8a5b,62c538da2ab3e642b99fa9d1,2022-07-06_09h25.43.310,Colour_Asymmetry_Pilot,2022.1.3,Win32,59.21013678,62c50e9c1127f2cd403a315f,,,,,,,,,,,,,,,,,,,,,,,,,,,,,,,,,,,,,,,,,,,,,,,,,,,,,,,,,,,,,,,,,,,,,,,,,,,,,,,,,,,,,,,,,,,,,,,,,,,,,,,,,,,,,,,,,,,,,,,,,,,,,,,,,,,,,,,,,,,,,,,,,,,,,,,,,,,,,,,,,,
0,54,54,89,1,,61000423f045809db30f8a5b,62c538da2ab3e642b99fa9d1,2022-07-06_09h25.43.310,Colour_Asymmetry_Pilot,2022.1.3,Win32,59.21013678,62c50e9c1127f2cd403a315f,,,,,,,,,,,,,,,,,,,,,,,,,,,,,,,,,,,,,,,,,,,,,,,,,,,,,,,,,,,,,,,,,,,,,,,,,,,,,,,,,,,,,,,,,,,,,,,,,,,,,,,,,,,,,,,,,,,,,,,,,,,,,,,,,,,,,,,,,,,,,,,,,,,,,,,,,,,,,,,,,,
0,55,55,75,1,,61000423f045809db30f8a5b,62c538da2ab3e642b99fa9d1,2022-07-06_09h25.43.310,Colour_Asymmetry_Pilot,2022.1.3,Win32,59.21013678,62c50e9c1127f2cd403a315f,,,,,,,,,,,,,,,,,,,,,,,,,,,,,,,,,,,,,,,,,,,,,,,,,,,,,,,,,,,,,,,,,,,,,,,,,,,,,,,,,,,,,,,,,,,,,,,,,,,,,,,,,,,,,,,,,,,,,,,,,,,,,,,,,,,,,,,,,,,,,,,,,,,,,,,,,,,,,,,,,,
0,56,56,83,1,,61000423f045809db30f8a5b,62c538da2ab3e642b99fa9d1,2022-07-06_09h25.43.310,Colour_Asymmetry_Pilot,2022.1.3,Win32,59.21013678,62c50e9c1127f2cd403a315f,,,,,,,,,,,,,,,,,,,,,,,,,,,,,,,,,,,,,,,,,,,,,,,,,,,,,,,,,,,,,,,,,,,,,,,,,,,,,,,,,,,,,,,,,,,,,,,,,,,,,,,,,,,,,,,,,,,,,,,,,,,,,,,,,,,,,,,,,,,,,,,,,,,,,,,,,,,,,,,,,,
0,57,57,33,1,,61000423f045809db30f8a5b,62c538da2ab3e642b99fa9d1,2022-07-06_09h25.43.310,Colour_Asymmetry_Pilot,2022.1.3,Win32,59.21013678,62c50e9c1127f2cd403a315f,,,,,,,,,,,,,,,,,,,,,,,,,,,,,,,,,,,,,,,,,,,,,,,,,,,,,,,,,,,,,,,,,,,,,,,,,,,,,,,,,,,,,,,,,,,,,,,,,,,,,,,,,,,,,,,,,,,,,,,,,,,,,,,,,,,,,,,,,,,,,,,,,,,,,,,,,,,,,,,,,,
0,58,58,45,1,,61000423f045809db30f8a5b,62c538da2ab3e642b99fa9d1,2022-07-06_09h25.43.310,Colour_Asymmetry_Pilot,2022.1.3,Win32,59.21013678,62c50e9c1127f2cd403a315f,,,,,,,,,,,,,,,,,,,,,,,,,,,,,,,,,,,,,,,,,,,,,,,,,,,,,,,,,,,,,,,,,,,,,,,,,,,,,,,,,,,,,,,,,,,,,,,,,,,,,,,,,,,,,,,,,,,,,,,,,,,,,,,,,,,,,,,,,,,,,,,,,,,,,,,,,,,,,,,,,,
0,59,59,30,1,,61000423f045809db30f8a5b,62c538da2ab3e642b99fa9d1,2022-07-06_09h25.43.310,Colour_Asymmetry_Pilot,2022.1.3,Win32,59.21013678,62c50e9c1127f2cd403a315f,,,,,,,,,,,,,,,,,,,,,,,,,,,,,,,,,,,,,,,,,,,,,,,,,,,,,,,,,,,,,,,,,,,,,,,,,,,,,,,,,,,,,,,,,,,,,,,,,,,,,,,,,,,,,,,,,,,,,,,,,,,,,,,,,,,,,,,,,,,,,,,,,,,,,,,,,,,,,,,,,,
0,60,60,32,1,,61000423f045809db30f8a5b,62c538da2ab3e642b99fa9d1,2022-07-06_09h25.43.310,Colour_Asymmetry_Pilot,2022.1.3,Win32,59.21013678,62c50e9c1127f2cd403a315f,,,,,,,,,,,,,,,,,,,,,,,,,,,,,,,,,,,,,,,,,,,,,,,,,,,,,,,,,,,,,,,,,,,,,,,,,,,,,,,,,,,,,,,,,,,,,,,,,,,,,,,,,,,,,,,,,,,,,,,,,,,,,,,,,,,,,,,,,,,,,,,,,,,,,,,,,,,,,,,,,,
0,61,61,19,1,,61000423f045809db30f8a5b,62c538da2ab3e642b99fa9d1,2022-07-06_09h25.43.310,Colour_Asymmetry_Pilot,2022.1.3,Win32,59.21013678,62c50e9c1127f2cd403a315f,,,,,,,,,,,,,,,,,,,,,,,,,,,,,,,,,,,,,,,,,,,,,,,,,,,,,,,,,,,,,,,,,,,,,,,,,,,,,,,,,,,,,,,,,,,,,,,,,,,,,,,,,,,,,,,,,,,,,,,,,,,,,,,,,,,,,,,,,,,,,,,,,,,,,,,,,,,,,,,,,,
0,62,62,9,1,,61000423f045809db30f8a5b,62c538da2ab3e642b99fa9d1,2022-07-06_09h25.43.310,Colour_Asymmetry_Pilot,2022.1.3,Win32,59.21013678,62c50e9c1127f2cd403a315f,,,,,,,,,,,,,,,,,,,,,,,,,,,,,,,,,,,,,,,,,,,,,,,,,,,,,,,,,,,,,,,,,,,,,,,,,,,,,,,,,,,,,,,,,,,,,,,,,,,,,,,,,,,,,,,,,,,,,,,,,,,,,,,,,,,,,,,,,,,,,,,,,,,,,,,,,,,,,,,,,,
0,63,63,8,1,,61000423f045809db30f8a5b,62c538da2ab3e642b99fa9d1,2022-07-06_09h25.43.310,Colour_Asymmetry_Pilot,2022.1.3,Win32,59.21013678,62c50e9c1127f2cd403a315f,,,,,,,,,,,,,,,,,,,,,,,,,,,,,,,,,,,,,,,,,,,,,,,,,,,,,,,,,,,,,,,,,,,,,,,,,,,,,,,,,,,,,,,,,,,,,,,,,,,,,,,,,,,,,,,,,,,,,,,,,,,,,,,,,,,,,,,,,,,,,,,,,,,,,,,,,,,,,,,,,,
0,64,64,29,1,,61000423f045809db30f8a5b,62c538da2ab3e642b99fa9d1,2022-07-06_09h25.43.310,Colour_Asymmetry_Pilot,2022.1.3,Win32,59.21013678,62c50e9c1127f2cd403a315f,,,,,,,,,,,,,,,,,,,,,,,,,,,,,,,,,,,,,,,,,,,,,,,,,,,,,,,,,,,,,,,,,,,,,,,,,,,,,,,,,,,,,,,,,,,,,,,,,,,,,,,,,,,,,,,,,,,,,,,,,,,,,,,,,,,,,,,,,,,,,,,,,,,,,,,,,,,,,,,,,,
0,65,65,67,1,,61000423f045809db30f8a5b,62c538da2ab3e642b99fa9d1,2022-07-06_09h25.43.310,Colour_Asymmetry_Pilot,2022.1.3,Win32,59.21013678,62c50e9c1127f2cd403a315f,,,,,,,,,,,,,,,,,,,,,,,,,,,,,,,,,,,,,,,,,,,,,,,,,,,,,,,,,,,,,,,,,,,,,,,,,,,,,,,,,,,,,,,,,,,,,,,,,,,,,,,,,,,,,,,,,,,,,,,,,,,,,,,,,,,,,,,,,,,,,,,,,,,,,,,,,,,,,,,,,,
0,66,66,3,1,,61000423f045809db30f8a5b,62c538da2ab3e642b99fa9d1,2022-07-06_09h25.43.310,Colour_Asymmetry_Pilot,2022.1.3,Win32,59.21013678,62c50e9c1127f2cd403a315f,,,,,,,,,,,,,,,,,,,,,,,,,,,,,,,,,,,,,,,,,,,,,,,,,,,,,,,,,,,,,,,,,,,,,,,,,,,,,,,,,,,,,,,,,,,,,,,,,,,,,,,,,,,,,,,,,,,,,,,,,,,,,,,,,,,,,,,,,,,,,,,,,,,,,,,,,,,,,,,,,,
0,67,67,1,1,,61000423f045809db30f8a5b,62c538da2ab3e642b99fa9d1,2022-07-06_09h25.43.310,Colour_Asymmetry_Pilot,2022.1.3,Win32,59.21013678,62c50e9c1127f2cd403a315f,,,,,,,,,,,,,,,,,,,,,,,,,,,,,,,,,,,,,,,,,,,,,,,,,,,,,,,,,,,,,,,,,,,,,,,,,,,,,,,,,,,,,,,,,,,,,,,,,,,,,,,,,,,,,,,,,,,,,,,,,,,,,,,,,,,,,,,,,,,,,,,,,,,,,,,,,,,,,,,,,,
0,68,68,21,1,,61000423f045809db30f8a5b,62c538da2ab3e642b99fa9d1,2022-07-06_09h25.43.310,Colour_Asymmetry_Pilot,2022.1.3,Win32,59.21013678,62c50e9c1127f2cd403a315f,,,,,,,,,,,,,,,,,,,,,,,,,,,,,,,,,,,,,,,,,,,,,,,,,,,,,,,,,,,,,,,,,,,,,,,,,,,,,,,,,,,,,,,,,,,,,,,,,,,,,,,,,,,,,,,,,,,,,,,,,,,,,,,,,,,,,,,,,,,,,,,,,,,,,,,,,,,,,,,,,,
0,69,69,53,1,,61000423f045809db30f8a5b,62c538da2ab3e642b99fa9d1,2022-07-06_09h25.43.310,Colour_Asymmetry_Pilot,2022.1.3,Win32,59.21013678,62c50e9c1127f2cd403a315f,,,,,,,,,,,,,,,,,,,,,,,,,,,,,,,,,,,,,,,,,,,,,,,,,,,,,,,,,,,,,,,,,,,,,,,,,,,,,,,,,,,,,,,,,,,,,,,,,,,,,,,,,,,,,,,,,,,,,,,,,,,,,,,,,,,,,,,,,,,,,,,,,,,,,,,,,,,,,,,,,,
0,70,70,46,1,,61000423f045809db30f8a5b,62c538da2ab3e642b99fa9d1,2022-07-06_09h25.43.310,Colour_Asymmetry_Pilot,2022.1.3,Win32,59.21013678,62c50e9c1127f2cd403a315f,,,,,,,,,,,,,,,,,,,,,,,,,,,,,,,,,,,,,,,,,,,,,,,,,,,,,,,,,,,,,,,,,,,,,,,,,,,,,,,,,,,,,,,,,,,,,,,,,,,,,,,,,,,,,,,,,,,,,,,,,,,,,,,,,,,,,,,,,,,,,,,,,,,,,,,,,,,,,,,,,,
0,71,71,90,1,,61000423f045809db30f8a5b,62c538da2ab3e642b99fa9d1,2022-07-06_09h25.43.310,Colour_Asymmetry_Pilot,2022.1.3,Win32,59.21013678,62c50e9c1127f2cd403a315f,,,,,,,,,,,,,,,,,,,,,,,,,,,,,,,,,,,,,,,,,,,,,,,,,,,,,,,,,,,,,,,,,,,,,,,,,,,,,,,,,,,,,,,,,,,,,,,,,,,,,,,,,,,,,,,,,,,,,,,,,,,,,,,,,,,,,,,,,,,,,,,,,,,,,,,,,,,,,,,,,,
0,72,72,22,1,,61000423f045809db30f8a5b,62c538da2ab3e642b99fa9d1,2022-07-06_09h25.43.310,Colour_Asymmetry_Pilot,2022.1.3,Win32,59.21013678,62c50e9c1127f2cd403a315f,,,,,,,,,,,,,,,,,,,,,,,,,,,,,,,,,,,,,,,,,,,,,,,,,,,,,,,,,,,,,,,,,,,,,,,,,,,,,,,,,,,,,,,,,,,,,,,,,,,,,,,,,,,,,,,,,,,,,,,,,,,,,,,,,,,,,,,,,,,,,,,,,,,,,,,,,,,,,,,,,,
0,73,73,73,1,,61000423f045809db30f8a5b,62c538da2ab3e642b99fa9d1,2022-07-06_09h25.43.310,Colour_Asymmetry_Pilot,2022.1.3,Win32,59.21013678,62c50e9c1127f2cd403a315f,,,,,,,,,,,,,,,,,,,,,,,,,,,,,,,,,,,,,,,,,,,,,,,,,,,,,,,,,,,,,,,,,,,,,,,,,,,,,,,,,,,,,,,,,,,,,,,,,,,,,,,,,,,,,,,,,,,,,,,,,,,,,,,,,,,,,,,,,,,,,,,,,,,,,,,,,,,,,,,,,,
0,74,74,44,1,,61000423f045809db30f8a5b,62c538da2ab3e642b99fa9d1,2022-07-06_09h25.43.310,Colour_Asymmetry_Pilot,2022.1.3,Win32,59.21013678,62c50e9c1127f2cd403a315f,,,,,,,,,,,,,,,,,,,,,,,,,,,,,,,,,,,,,,,,,,,,,,,,,,,,,,,,,,,,,,,,,,,,,,,,,,,,,,,,,,,,,,,,,,,,,,,,,,,,,,,,,,,,,,,,,,,,,,,,,,,,,,,,,,,,,,,,,,,,,,,,,,,,,,,,,,,,,,,,,,
0,75,75,66,1,,61000423f045809db30f8a5b,62c538da2ab3e642b99fa9d1,2022-07-06_09h25.43.310,Colour_Asymmetry_Pilot,2022.1.3,Win32,59.21013678,62c50e9c1127f2cd403a315f,,,,,,,,,,,,,,,,,,,,,,,,,,,,,,,,,,,,,,,,,,,,,,,,,,,,,,,,,,,,,,,,,,,,,,,,,,,,,,,,,,,,,,,,,,,,,,,,,,,,,,,,,,,,,,,,,,,,,,,,,,,,,,,,,,,,,,,,,,,,,,,,,,,,,,,,,,,,,,,,,,
0,76,76,13,1,,61000423f045809db30f8a5b,62c538da2ab3e642b99fa9d1,2022-07-06_09h25.43.310,Colour_Asymmetry_Pilot,2022.1.3,Win32,59.21013678,62c50e9c1127f2cd403a315f,,,,,,,,,,,,,,,,,,,,,,,,,,,,,,,,,,,,,,,,,,,,,,,,,,,,,,,,,,,,,,,,,,,,,,,,,,,,,,,,,,,,,,,,,,,,,,,,,,,,,,,,,,,,,,,,,,,,,,,,,,,,,,,,,,,,,,,,,,,,,,,,,,,,,,,,,,,,,,,,,,
0,77,77,59,1,,61000423f045809db30f8a5b,62c538da2ab3e642b99fa9d1,2022-07-06_09h25.43.310,Colour_Asymmetry_Pilot,2022.1.3,Win32,59.21013678,62c50e9c1127f2cd403a315f,,,,,,,,,,,,,,,,,,,,,,,,,,,,,,,,,,,,,,,,,,,,,,,,,,,,,,,,,,,,,,,,,,,,,,,,,,,,,,,,,,,,,,,,,,,,,,,,,,,,,,,,,,,,,,,,,,,,,,,,,,,,,,,,,,,,,,,,,,,,,,,,,,,,,,,,,,,,,,,,,,
0,78,78,81,1,,61000423f045809db30f8a5b,62c538da2ab3e642b99fa9d1,2022-07-06_09h25.43.310,Colour_Asymmetry_Pilot,2022.1.3,Win32,59.21013678,62c50e9c1127f2cd403a315f,,,,,,,,,,,,,,,,,,,,,,,,,,,,,,,,,,,,,,,,,,,,,,,,,,,,,,,,,,,,,,,,,,,,,,,,,,,,,,,,,,,,,,,,,,,,,,,,,,,,,,,,,,,,,,,,,,,,,,,,,,,,,,,,,,,,,,,,,,,,,,,,,,,,,,,,,,,,,,,,,,
0,79,79,2,1,,61000423f045809db30f8a5b,62c538da2ab3e642b99fa9d1,2022-07-06_09h25.43.310,Colour_Asymmetry_Pilot,2022.1.3,Win32,59.21013678,62c50e9c1127f2cd403a315f,,,,,,,,,,,,,,,,,,,,,,,,,,,,,,,,,,,,,,,,,,,,,,,,,,,,,,,,,,,,,,,,,,,,,,,,,,,,,,,,,,,,,,,,,,,,,,,,,,,,,,,,,,,,,,,,,,,,,,,,,,,,,,,,,,,,,,,,,,,,,,,,,,,,,,,,,,,,,,,,,,
0,80,80,42,1,,61000423f045809db30f8a5b,62c538da2ab3e642b99fa9d1,2022-07-06_09h25.43.310,Colour_Asymmetry_Pilot,2022.1.3,Win32,59.21013678,62c50e9c1127f2cd403a315f,,,,,,,,,,,,,,,,,,,,,,,,,,,,,,,,,,,,,,,,,,,,,,,,,,,,,,,,,,,,,,,,,,,,,,,,,,,,,,,,,,,,,,,,,,,,,,,,,,,,,,,,,,,,,,,,,,,,,,,,,,,,,,,,,,,,,,,,,,,,,,,,,,,,,,,,,,,,,,,,,,
0,81,81,14,1,,61000423f045809db30f8a5b,62c538da2ab3e642b99fa9d1,2022-07-06_09h25.43.310,Colour_Asymmetry_Pilot,2022.1.3,Win32,59.21013678,62c50e9c1127f2cd403a315f,,,,,,,,,,,,,,,,,,,,,,,,,,,,,,,,,,,,,,,,,,,,,,,,,,,,,,,,,,,,,,,,,,,,,,,,,,,,,,,,,,,,,,,,,,,,,,,,,,,,,,,,,,,,,,,,,,,,,,,,,,,,,,,,,,,,,,,,,,,,,,,,,,,,,,,,,,,,,,,,,,
0,82,82,16,1,,61000423f045809db30f8a5b,62c538da2ab3e642b99fa9d1,2022-07-06_09h25.43.310,Colour_Asymmetry_Pilot,2022.1.3,Win32,59.21013678,62c50e9c1127f2cd403a315f,,,,,,,,,,,,,,,,,,,,,,,,,,,,,,,,,,,,,,,,,,,,,,,,,,,,,,,,,,,,,,,,,,,,,,,,,,,,,,,,,,,,,,,,,,,,,,,,,,,,,,,,,,,,,,,,,,,,,,,,,,,,,,,,,,,,,,,,,,,,,,,,,,,,,,,,,,,,,,,,,,
0,83,83,48,1,,61000423f045809db30f8a5b,62c538da2ab3e642b99fa9d1,2022-07-06_09h25.43.310,Colour_Asymmetry_Pilot,2022.1.3,Win32,59.21013678,62c50e9c1127f2cd403a315f,,,,,,,,,,,,,,,,,,,,,,,,,,,,,,,,,,,,,,,,,,,,,,,,,,,,,,,,,,,,,,,,,,,,,,,,,,,,,,,,,,,,,,,,,,,,,,,,,,,,,,,,,,,,,,,,,,,,,,,,,,,,,,,,,,,,,,,,,,,,,,,,,,,,,,,,,,,,,,,,,,
0,84,84,82,1,,61000423f045809db30f8a5b,62c538da2ab3e642b99fa9d1,2022-07-06_09h25.43.310,Colour_Asymmetry_Pilot,2022.1.3,Win32,59.21013678,62c50e9c1127f2cd403a315f,,,,,,,,,,,,,,,,,,,,,,,,,,,,,,,,,,,,,,,,,,,,,,,,,,,,,,,,,,,,,,,,,,,,,,,,,,,,,,,,,,,,,,,,,,,,,,,,,,,,,,,,,,,,,,,,,,,,,,,,,,,,,,,,,,,,,,,,,,,,,,,,,,,,,,,,,,,,,,,,,,
0,85,85,61,1,,61000423f045809db30f8a5b,62c538da2ab3e642b99fa9d1,2022-07-06_09h25.43.310,Colour_Asymmetry_Pilot,2022.1.3,Win32,59.21013678,62c50e9c1127f2cd403a315f,,,,,,,,,,,,,,,,,,,,,,,,,,,,,,,,,,,,,,,,,,,,,,,,,,,,,,,,,,,,,,,,,,,,,,,,,,,,,,,,,,,,,,,,,,,,,,,,,,,,,,,,,,,,,,,,,,,,,,,,,,,,,,,,,,,,,,,,,,,,,,,,,,,,,,,,,,,,,,,,,,
0,86,86,31,1,,61000423f045809db30f8a5b,62c538da2ab3e642b99fa9d1,2022-07-06_09h25.43.310,Colour_Asymmetry_Pilot,2022.1.3,Win32,59.21013678,62c50e9c1127f2cd403a315f,,,,,,,,,,,,,,,,,,,,,,,,,,,,,,,,,,,,,,,,,,,,,,,,,,,,,,,,,,,,,,,,,,,,,,,,,,,,,,,,,,,,,,,,,,,,,,,,,,,,,,,,,,,,,,,,,,,,,,,,,,,,,,,,,,,,,,,,,,,,,,,,,,,,,,,,,,,,,,,,,,
0,87,87,54,1,,61000423f045809db30f8a5b,62c538da2ab3e642b99fa9d1,2022-07-06_09h25.43.310,Colour_Asymmetry_Pilot,2022.1.3,Win32,59.21013678,62c50e9c1127f2cd403a315f,,,,,,,,,,,,,,,,,,,,,,,,,,,,,,,,,,,,,,,,,,,,,,,,,,,,,,,,,,,,,,,,,,,,,,,,,,,,,,,,,,,,,,,,,,,,,,,,,,,,,,,,,,,,,,,,,,,,,,,,,,,,,,,,,,,,,,,,,,,,,,,,,,,,,,,,,,,,,,,,,,
0,88,88,12,1,,61000423f045809db30f8a5b,62c538da2ab3e642b99fa9d1,2022-07-06_09h25.43.310,Colour_Asymmetry_Pilot,2022.1.3,Win32,59.21013678,62c50e9c1127f2cd403a315f,,,,,,,,,,,,,,,,,,,,,,,,,,,,,,,,,,,,,,,,,,,,,,,,,,,,,,,,,,,,,,,,,,,,,,,,,,,,,,,,,,,,,,,,,,,,,,,,,,,,,,,,,,,,,,,,,,,,,,,,,,,,,,,,,,,,,,,,,,,,,,,,,,,,,,,,,,,,,,,,,,
0,89,89,76,1,,61000423f045809db30f8a5b,62c538da2ab3e642b99fa9d1,2022-07-06_09h25.43.310,Colour_Asymmetry_Pilot,2022.1.3,Win32,59.21013678,62c50e9c1127f2cd403a315f,,,,,,,,,,,,,,,,,,,,,,,,,,,,,,,,,,,,,,,,,,,,,,,,,,,,,,,,,,,,,,,,,,,,,,,,,,,,,,,,,,,,,,,,,,,,,,,,,,,,,,,,,,,,,,,,,,,,,,,,,,,,,,,,,,,,,,,,,,,,,,,,,,,,,,,,,,,,,,,,,,
0,90,90,88,1,,61000423f045809db30f8a5b,62c538da2ab3e642b99fa9d1,2022-07-06_09h25.43.310,Colour_Asymmetry_Pilot,2022.1.3,Win32,59.21013678,62c50e9c1127f2cd403a315f,,,,,,,,,,,,,,,,,,,,,,,,,,,,,,,,,,,,,,,,,,,,,,,,,,,,,,,,,,,,,,,,,,,,,,,,,,,,,,,,,,,,,,,,,,,,,,,,,,,,,,,,,,,,,,,,,,,,,,,,,,,,,,,,,,,,,,,,,,,,,,,,,,,,,,,,,,,,,,,,,,
0,91,91,79,1,,61000423f045809db30f8a5b,62c538da2ab3e642b99fa9d1,2022-07-06_09h25.43.310,Colour_Asymmetry_Pilot,2022.1.3,Win32,59.21013678,62c50e9c1127f2cd403a315f,,,,,,,,,,,,,,,,,,,,,,,,,,,,,,,,,,,,,,,,,,,,,,,,,,,,,,,,,,,,,,,,,,,,,,,,,,,,,,,,,,,,,,,,,,,,,,,,,,,,,,,,,,,,,,,,,,,,,,,,,,,,,,,,,,,,,,,,,,,,,,,,,,,,,,,,,,,,,,,,,,
0,92,92,40,1,,61000423f045809db30f8a5b,62c538da2ab3e642b99fa9d1,2022-07-06_09h25.43.310,Colour_Asymmetry_Pilot,2022.1.3,Win32,59.21013678,62c50e9c1127f2cd403a315f,,,,,,,,,,,,,,,,,,,,,,,,,,,,,,,,,,,,,,,,,,,,,,,,,,,,,,,,,,,,,,,,,,,,,,,,,,,,,,,,,,,,,,,,,,,,,,,,,,,,,,,,,,,,,,,,,,,,,,,,,,,,,,,,,,,,,,,,,,,,,,,,,,,,,,,,,,,,,,,,,,
,,,,,,61000423f045809db30f8a5b,62c538da2ab3e642b99fa9d1,2022-07-06_09h25.43.310,Colour_Asymmetry_Pilot,2022.1.3,Win32,59.21013678,62c50e9c1127f2cd403a315f,0,0,0,112,1,onetwo,,,,,,,,,,,,,,,,,,,,,,,,,,,,,,,,,,,,,,,,,,,,,,,,,,,,,,,,,,,,,,,,,,,,,,,,,,,,,,,,,,,,,,,,,,,,,,,,,,,,,,,,,,,,,,,,,,,,,,,,,,,,,,,,,,,,,,,,,,,,,,,,,,,,,,,,,,,,
,,,,,,61000423f045809db30f8a5b,62c538da2ab3e642b99fa9d1,2022-07-06_09h25.43.310,Colour_Asymmetry_Pilot,2022.1.3,Win32,59.21013678,62c50e9c1127f2cd403a315f,0,1,1,33,1,onethree,,,,,,,,,,,,,,,,,,,,,,,,,,,,,,,,,,,,,,,,,,,,,,,,,,,,,,,,,,,,,,,,,,,,,,,,,,,,,,,,,,,,,,,,,,,,,,,,,,,,,,,,,,,,,,,,,,,,,,,,,,,,,,,,,,,,,,,,,,,,,,,,,,,,,,,,,,,,
,,,,,,61000423f045809db30f8a5b,62c538da2ab3e642b99fa9d1,2022-07-06_09h25.43.310,Colour_Asymmetry_Pilot,2022.1.3,Win32,59.21013678,62c50e9c1127f2cd403a315f,0,2,2,134,1,fourtwo,,,,,,,,,,,,,,,,,,,,,,,,,,,,,,,,,,,,,,,,,,,,,,,,,,,,,,,,,,,,,,,,,,,,,,,,,,,,,,,,,,,,,,,,,,,,,,,,,,,,,,,,,,,,,,,,,,,,,,,,,,,,,,,,,,,,,,,,,,,,,,,,,,,,,,,,,,,,
,,,,,,61000423f045809db30f8a5b,62c538da2ab3e642b99fa9d1,2022-07-06_09h25.43.310,Colour_Asymmetry_Pilot,2022.1.3,Win32,59.21013678,62c50e9c1127f2cd403a315f,0,3,3,78,1,fourtwo,,,,,,,,,,,,,,,,,,,,,,,,,,,,,,,,,,,,,,,,,,,,,,,,,,,,,,,,,,,,,,,,,,,,,,,,,,,,,,,,,,,,,,,,,,,,,,,,,,,,,,,,,,,,,,,,,,,,,,,,,,,,,,,,,,,,,,,,,,,,,,,,,,,,,,,,,,,,
,,,,,,61000423f045809db30f8a5b,62c538da2ab3e642b99fa9d1,2022-07-06_09h25.43.310,Colour_Asymmetry_Pilot,2022.1.3,Win32,59.21013678,62c50e9c1127f2cd403a315f,0,4,4,5,1,threefour,,,,,,,,,,,,,,,,,,,,,,,,,,,,,,,,,,,,,,,,,,,,,,,,,,,,,,,,,,,,,,,,,,,,,,,,,,,,,,,,,,,,,,,,,,,,,,,,,,,,,,,,,,,,,,,,,,,,,,,,,,,,,,,,,,,,,,,,,,,,,,,,,,,,,,,,,,,,
,,,,,,61000423f045809db30f8a5b,62c538da2ab3e642b99fa9d1,2022-07-06_09h25.43.310,Colour_Asymmetry_Pilot,2022.1.3,Win32,59.21013678,62c50e9c1127f2cd403a315f,0,5,5,147,1,twofour,,,,,,,,,,,,,,,,,,,,,,,,,,,,,,,,,,,,,,,,,,,,,,,,,,,,,,,,,,,,,,,,,,,,,,,,,,,,,,,,,,,,,,,,,,,,,,,,,,,,,,,,,,,,,,,,,,,,,,,,,,,,,,,,,,,,,,,,,,,,,,,,,,,,,,,,,,,,
,,,,,,61000423f045809db30f8a5b,62c538da2ab3e642b99fa9d1,2022-07-06_09h25.43.310,Colour_Asymmetry_Pilot,2022.1.3,Win32,59.21013678,62c50e9c1127f2cd403a315f,0,6,6,31,1,fourthree,,,,,,,,,,,,,,,,,,,,,,,,,,,,,,,,,,,,,,,,,,,,,,,,,,,,,,,,,,,,,,,,,,,,,,,,,,,,,,,,,,,,,,,,,,,,,,,,,,,,,,,,,,,,,,,,,,,,,,,,,,,,,,,,,,,,,,,,,,,,,,,,,,,,,,,,,,,,
,,,,,,61000423f045809db30f8a5b,62c538da2ab3e642b99fa9d1,2022-07-06_09h25.43.310,Colour_Asymmetry_Pilot,2022.1.3,Win32,59.21013678,62c50e9c1127f2cd403a315f,0,7,7,38,1,fourtwo,,,,,,,,,,,,,,,,,,,,,,,,,,,,,,,,,,,,,,,,,,,,,,,,,,,,,,,,,,,,,,,,,,,,,,,,,,,,,,,,,,,,,,,,,,,,,,,,,,,,,,,,,,,,,,,,,,,,,,,,,,,,,,,,,,,,,,,,,,,,,,,,,,,,,,,,,,,,
,,,,,,61000423f045809db30f8a5b,62c538da2ab3e642b99fa9d1,2022-07-06_09h25.43.310,Colour_Asymmetry_Pilot,2022.1.3,Win32,59.21013678,62c50e9c1127f2cd403a315f,0,8,8,4,1,threeone,,,,,,,,,,,,,,,,,,,,,,,,,,,,,,,,,,,,,,,,,,,,,,,,,,,,,,,,,,,,,,,,,,,,,,,,,,,,,,,,,,,,,,,,,,,,,,,,,,,,,,,,,,,,,,,,,,,,,,,,,,,,,,,,,,,,,,,,,,,,,,,,,,,,,,,,,,,,
,,,,,,61000423f045809db30f8a5b,62c538da2ab3e642b99fa9d1,2022-07-06_09h25.43.310,Colour_Asymmetry_Pilot,2022.1.3,Win32,59.21013678,62c50e9c1127f2cd403a315f,0,9,9,135,1,fourthree,,,,,,,,,,,,,,,,,,,,,,,,,,,,,,,,,,,,,,,,,,,,,,,,,,,,,,,,,,,,,,,,,,,,,,,,,,,,,,,,,,,,,,,,,,,,,,,,,,,,,,,,,,,,,,,,,,,,,,,,,,,,,,,,,,,,,,,,,,,,,,,,,,,,,,,,,,,,
,,,,,,61000423f045809db30f8a5b,62c538da2ab3e642b99fa9d1,2022-07-06_09h25.43.310,Colour_Asymmetry_Pilot,2022.1.3,Win32,59.21013678,62c50e9c1127f2cd403a315f,0,10,10,150,1,fourtwo,,,,,,,,,,,,,,,,,,,,,,,,,,,,,,,,,,,,,,,,,,,,,,,,,,,,,,,,,,,,,,,,,,,,,,,,,,,,,,,,,,,,,,,,,,,,,,,,,,,,,,,,,,,,,,,,,,,,,,,,,,,,,,,,,,,,,,,,,,,,,,,,,,,,,,,,,,,,
,,,,,,61000423f045809db30f8a5b,62c538da2ab3e642b99fa9d1,2022-07-06_09h25.43.310,Colour_Asymmetry_Pilot,2022.1.3,Win32,59.21013678,62c50e9c1127f2cd403a315f,0,11,11,68,1,threeone,,,,,,,,,,,,,,,,,,,,,,,,,,,,,,,,,,,,,,,,,,,,,,,,,,,,,,,,,,,,,,,,,,,,,,,,,,,,,,,,,,,,,,,,,,,,,,,,,,,,,,,,,,,,,,,,,,,,,,,,,,,,,,,,,,,,,,,,,,,,,,,,,,,,,,,,,,,,
,,,,,,61000423f045809db30f8a5b,62c538da2ab3e642b99fa9d1,2022-07-06_09h25.43.310,Colour_Asymmetry_Pilot,2022.1.3,Win32,59.21013678,62c50e9c1127f2cd403a315f,0,12,12,2,1,twoone,,,,,,,,,,,,,,,,,,,,,,,,,,,,,,,,,,,,,,,,,,,,,,,,,,,,,,,,,,,,,,,,,,,,,,,,,,,,,,,,,,,,,,,,,,,,,,,,,,,,,,,,,,,,,,,,,,,,,,,,,,,,,,,,,,,,,,,,,,,,,,,,,,,,,,,,,,,,
,,,,,,61000423f045809db30f8a5b,62c538da2ab3e642b99fa9d1,2022-07-06_09h25.43.310,Colour_Asymmetry_Pilot,2022.1.3,Win32,59.21013678,62c50e9c1127f2cd403a315f,0,13,13,93,1,threefour,,,,,,,,,,,,,,,,,,,,,,,,,,,,,,,,,,,,,,,,,,,,,,,,,,,,,,,,,,,,,,,,,,,,,,,,,,,,,,,,,,,,,,,,,,,,,,,,,,,,,,,,,,,,,,,,,,,,,,,,,,,,,,,,,,,,,,,,,,,,,,,,,,,,,,,,,,,,
,,,,,,61000423f045809db30f8a5b,62c538da2ab3e642b99fa9d1,2022-07-06_09h25.43.310,Colour_Asymmetry_Pilot,2022.1.3,Win32,59.21013678,62c50e9c1127f2cd403a315f,0,14,14,159,1,fourthree,,,,,,,,,,,,,,,,,,,,,,,,,,,,,,,,,,,,,,,,,,,,,,,,,,,,,,,,,,,,,,,,,,,,,,,,,,,,,,,,,,,,,,,,,,,,,,,,,,,,,,,,,,,,,,,,,,,,,,,,,,,,,,,,,,,,,,,,,,,,,,,,,,,,,,,,,,,,
,,,,,,61000423f045809db30f8a5b,62c538da2ab3e642b99fa9d1,2022-07-06_09h25.43.310,Colour_Asymmetry_Pilot,2022.1.3,Win32,59.21013678,62c50e9c1127f2cd403a315f,0,15,15,110,1,fourtwo,,,,,,,,,,,,,,,,,,,,,,,,,,,,,,,,,,,,,,,,,,,,,,,,,,,,,,,,,,,,,,,,,,,,,,,,,,,,,,,,,,,,,,,,,,,,,,,,,,,,,,,,,,,,,,,,,,,,,,,,,,,,,,,,,,,,,,,,,,,,,,,,,,,,,,,,,,,,
,,,,,,61000423f045809db30f8a5b,62c538da2ab3e642b99fa9d1,2022-07-06_09h25.43.310,Colour_Asymmetry_Pilot,2022.1.3,Win32,59.21013678,62c50e9c1127f2cd403a315f,0,16,16,113,1,onethree,,,,,,,,,,,,,,,,,,,,,,,,,,,,,,,,,,,,,,,,,,,,,,,,,,,,,,,,,,,,,,,,,,,,,,,,,,,,,,,,,,,,,,,,,,,,,,,,,,,,,,,,,,,,,,,,,,,,,,,,,,,,,,,,,,,,,,,,,,,,,,,,,,,,,,,,,,,,
,,,,,,61000423f045809db30f8a5b,62c538da2ab3e642b99fa9d1,2022-07-06_09h25.43.310,Colour_Asymmetry_Pilot,2022.1.3,Win32,59.21013678,62c50e9c1127f2cd403a315f,0,17,17,130,1,twoone,,,,,,,,,,,,,,,,,,,,,,,,,,,,,,,,,,,,,,,,,,,,,,,,,,,,,,,,,,,,,,,,,,,,,,,,,,,,,,,,,,,,,,,,,,,,,,,,,,,,,,,,,,,,,,,,,,,,,,,,,,,,,,,,,,,,,,,,,,,,,,,,,,,,,,,,,,,,
,,,,,,61000423f045809db30f8a5b,62c538da2ab3e642b99fa9d1,2022-07-06_09h25.43.310,Colour_Asymmetry_Pilot,2022.1.3,Win32,59.21013678,62c50e9c1127f2cd403a315f,0,18,18,155,1,twofour,,,,,,,,,,,,,,,,,,,,,,,,,,,,,,,,,,,,,,,,,,,,,,,,,,,,,,,,,,,,,,,,,,,,,,,,,,,,,,,,,,,,,,,,,,,,,,,,,,,,,,,,,,,,,,,,,,,,,,,,,,,,,,,,,,,,,,,,,,,,,,,,,,,,,,,,,,,,
,,,,,,61000423f045809db30f8a5b,62c538da2ab3e642b99fa9d1,2022-07-06_09h25.43.310,Colour_Asymmetry_Pilot,2022.1.3,Win32,59.21013678,62c50e9c1127f2cd403a315f,0,19,19,71,1,fourthree,,,,,,,,,,,,,,,,,,,,,,,,,,,,,,,,,,,,,,,,,,,,,,,,,,,,,,,,,,,,,,,,,,,,,,,,,,,,,,,,,,,,,,,,,,,,,,,,,,,,,,,,,,,,,,,,,,,,,,,,,,,,,,,,,,,,,,,,,,,,,,,,,,,,,,,,,,,,
,,,,,,61000423f045809db30f8a5b,62c538da2ab3e642b99fa9d1,2022-07-06_09h25.43.310,Colour_Asymmetry_Pilot,2022.1.3,Win32,59.21013678,62c50e9c1127f2cd403a315f,0,20,20,62,1,fourtwo,,,,,,,,,,,,,,,,,,,,,,,,,,,,,,,,,,,,,,,,,,,,,,,,,,,,,,,,,,,,,,,,,,,,,,,,,,,,,,,,,,,,,,,,,,,,,,,,,,,,,,,,,,,,,,,,,,,,,,,,,,,,,,,,,,,,,,,,,,,,,,,,,,,,,,,,,,,,
,,,,,,61000423f045809db30f8a5b,62c538da2ab3e642b99fa9d1,2022-07-06_09h25.43.310,Colour_Asymmetry_Pilot,2022.1.3,Win32,59.21013678,62c50e9c1127f2cd403a315f,0,21,21,97,1,onethree,,,,,,,,,,,,,,,,,,,,,,,,,,,,,,,,,,,,,,,,,,,,,,,,,,,,,,,,,,,,,,,,,,,,,,,,,,,,,,,,,,,,,,,,,,,,,,,,,,,,,,,,,,,,,,,,,,,,,,,,,,,,,,,,,,,,,,,,,,,,,,,,,,,,,,,,,,,,
,,,,,,61000423f045809db30f8a5b,62c538da2ab3e642b99fa9d1,2022-07-06_09h25.43.310,Colour_Asymmetry_Pilot,2022.1.3,Win32,59.21013678,62c50e9c1127f2cd403a315f,0,22,22,96,1,onetwo,,,,,,,,,,,,,,,,,,,,,,,,,,,,,,,,,,,,,,,,,,,,,,,,,,,,,,,,,,,,,,,,,,,,,,,,,,,,,,,,,,,,,,,,,,,,,,,,,,,,,,,,,,,,,,,,,,,,,,,,,,,,,,,,,,,,,,,,,,,,,,,,,,,,,,,,,,,,
,,,,,,61000423f045809db30f8a5b,62c538da2ab3e642b99fa9d1,2022-07-06_09h25.43.310,Colour_Asymmetry_Pilot,2022.1.3,Win32,59.21013678,62c50e9c1127f2cd403a315f,0,23,23,86,1,fourtwo,,,,,,,,,,,,,,,,,,,,,,,,,,,,,,,,,,,,,,,,,,,,,,,,,,,,,,,,,,,,,,,,,,,,,,,,,,,,,,,,,,,,,,,,,,,,,,,,,,,,,,,,,,,,,,,,,,,,,,,,,,,,,,,,,,,,,,,,,,,,,,,,,,,,,,,,,,,,
,,,,,,61000423f045809db30f8a5b,62c538da2ab3e642b99fa9d1,2022-07-06_09h25.43.310,Colour_Asymmetry_Pilot,2022.1.3,Win32,59.21013678,62c50e9c1127f2cd403a315f,0,24,24,14,1,fourtwo,,,,,,,,,,,,,,,,,,,,,,,,,,,,,,,,,,,,,,,,,,,,,,,,,,,,,,,,,,,,,,,,,,,,,,,,,,,,,,,,,,,,,,,,,,,,,,,,,,,,,,,,,,,,,,,,,,,,,,,,,,,,,,,,,,,,,,,,,,,,,,,,,,,,,,,,,,,,
,,,,,,61000423f045809db30f8a5b,62c538da2ab3e642b99fa9d1,2022-07-06_09h25.43.310,Colour_Asymmetry_Pilot,2022.1.3,Win32,59.21013678,62c50e9c1127f2cd403a315f,0,25,25,95,1,fourthree,,,,,,,,,,,,,,,,,,,,,,,,,,,,,,,,,,,,,,,,,,,,,,,,,,,,,,,,,,,,,,,,,,,,,,,,,,,,,,,,,,,,,,,,,,,,,,,,,,,,,,,,,,,,,,,,,,,,,,,,,,,,,,,,,,,,,,,,,,,,,,,,,,,,,,,,,,,,
,,,,,,61000423f045809db30f8a5b,62c538da2ab3e642b99fa9d1,2022-07-06_09h25.43.310,Colour_Asymmetry_Pilot,2022.1.3,Win32,59.21013678,62c50e9c1127f2cd403a315f,0,26,26,19,1,twofour,,,,,,,,,,,,,,,,,,,,,,,,,,,,,,,,,,,,,,,,,,,,,,,,,,,,,,,,,,,,,,,,,,,,,,,,,,,,,,,,,,,,,,,,,,,,,,,,,,,,,,,,,,,,,,,,,,,,,,,,,,,,,,,,,,,,,,,,,,,,,,,,,,,,,,,,,,,,
,,,,,,61000423f045809db30f8a5b,62c538da2ab3e642b99fa9d1,2022-07-06_09h25.43.310,Colour_Asymmetry_Pilot,2022.1.3,Win32,59.21013678,62c50e9c1127f2cd403a315f,0,27,27,12,1,threeone,,,,,,,,,,,,,,,,,,,,,,,,,,,,,,,,,,,,,,,,,,,,,,,,,,,,,,,,,,,,,,,,,,,,,,,,,,,,,,,,,,,,,,,,,,,,,,,,,,,,,,,,,,,,,,,,,,,,,,,,,,,,,,,,,,,,,,,,,,,,,,,,,,,,,,,,,,,,
,,,,,,61000423f045809db30f8a5b,62c538da2ab3e642b99fa9d1,2022-07-06_09h25.43.310,Colour_Asymmetry_Pilot,2022.1.3,Win32,59.21013678,62c50e9c1127f2cd403a315f,0,28,28,79,1,fourthree,,,,,,,,,,,,,,,,,,,,,,,,,,,,,,,,,,,,,,,,,,,,,,,,,,,,,,,,,,,,,,,,,,,,,,,,,,,,,,,,,,,,,,,,,,,,,,,,,,,,,,,,,,,,,,,,,,,,,,,,,,,,,,,,,,,,,,,,,,,,,,,,,,,,,,,,,,,,
,,,,,,61000423f045809db30f8a5b,62c538da2ab3e642b99fa9d1,2022-07-06_09h25.43.310,Colour_Asymmetry_Pilot,2022.1.3,Win32,59.21013678,62c50e9c1127f2cd403a315f,0,29,29,49,1,onethree,,,,,,,,,,,,,,,,,,,,,,,,,,,,,,,,,,,,,,,,,,,,,,,,,,,,,,,,,,,,,,,,,,,,,,,,,,,,,,,,,,,,,,,,,,,,,,,,,,,,,,,,,,,,,,,,,,,,,,,,,,,,,,,,,,,,,,,,,,,,,,,,,,,,,,,,,,,,
,,,,,,61000423f045809db30f8a5b,62c538da2ab3e642b99fa9d1,2022-07-06_09h25.43.310,Colour_Asymmetry_Pilot,2022.1.3,Win32,59.21013678,62c50e9c1127f2cd403a315f,0,30,30,69,1,threefour,,,,,,,,,,,,,,,,,,,,,,,,,,,,,,,,,,,,,,,,,,,,,,,,,,,,,,,,,,,,,,,,,,,,,,,,,,,,,,,,,,,,,,,,,,,,,,,,,,,,,,,,,,,,,,,,,,,,,,,,,,,,,,,,,,,,,,,,,,,,,,,,,,,,,,,,,,,,
,,,,,,61000423f045809db30f8a5b,62c538da2ab3e642b99fa9d1,2022-07-06_09h25.43.310,Colour_Asymmetry_Pilot,2022.1.3,Win32,59.21013678,62c50e9c1127f2cd403a315f,0,31,31,22,1,fourtwo,,,,,,,,,,,,,,,,,,,,,,,,,,,,,,,,,,,,,,,,,,,,,,,,,,,,,,,,,,,,,,,,,,,,,,,,,,,,,,,,,,,,,,,,,,,,,,,,,,,,,,,,,,,,,,,,,,,,,,,,,,,,,,,,,,,,,,,,,,,,,,,,,,,,,,,,,,,,
,,,,,,61000423f045809db30f8a5b,62c538da2ab3e642b99fa9d1,2022-07-06_09h25.43.310,Colour_Asymmetry_Pilot,2022.1.3,Win32,59.21013678,62c50e9c1127f2cd403a315f,0,32,32,156,1,threeone,,,,,,,,,,,,,,,,,,,,,,,,,,,,,,,,,,,,,,,,,,,,,,,,,,,,,,,,,,,,,,,,,,,,,,,,,,,,,,,,,,,,,,,,,,,,,,,,,,,,,,,,,,,,,,,,,,,,,,,,,,,,,,,,,,,,,,,,,,,,,,,,,,,,,,,,,,,,
,,,,,,61000423f045809db30f8a5b,62c538da2ab3e642b99fa9d1,2022-07-06_09h25.43.310,Colour_Asymmetry_Pilot,2022.1.3,Win32,59.21013678,62c50e9c1127f2cd403a315f,0,33,33,136,1,onetwo,,,,,,,,,,,,,,,,,,,,,,,,,,,,,,,,,,,,,,,,,,,,,,,,,,,,,,,,,,,,,,,,,,,,,,,,,,,,,,,,,,,,,,,,,,,,,,,,,,,,,,,,,,,,,,,,,,,,,,,,,,,,,,,,,,,,,,,,,,,,,,,,,,,,,,,,,,,,
,,,,,,61000423f045809db30f8a5b,62c538da2ab3e642b99fa9d1,2022-07-06_09h25.43.310,Colour_Asymmetry_Pilot,2022.1.3,Win32,59.21013678,62c50e9c1127f2cd403a315f,0,34,34,109,1,threefour,,,,,,,,,,,,,,,,,,,,,,,,,,,,,,,,,,,,,,,,,,,,,,,,,,,,,,,,,,,,,,,,,,,,,,,,,,,,,,,,,,,,,,,,,,,,,,,,,,,,,,,,,,,,,,,,,,,,,,,,,,,,,,,,,,,,,,,,,,,,,,,,,,,,,,,,,,,,
,,,,,,61000423f045809db30f8a5b,62c538da2ab3e642b99fa9d1,2022-07-06_09h25.43.310,Colour_Asymmetry_Pilot,2022.1.3,Win32,59.21013678,62c50e9c1127f2cd403a315f,0,35,35,102,1,fourtwo,,,,,,,,,,,,,,,,,,,,,,,,,,,,,,,,,,,,,,,,,,,,,,,,,,,,,,,,,,,,,,,,,,,,,,,,,,,,,,,,,,,,,,,,,,,,,,,,,,,,,,,,,,,,,,,,,,,,,,,,,,,,,,,,,,,,,,,,,,,,,,,,,,,,,,,,,,,,
,,,,,,61000423f045809db30f8a5b,62c538da2ab3e642b99fa9d1,2022-07-06_09h25.43.310,Colour_Asymmetry_Pilot,2022.1.3,Win32,59.21013678,62c50e9c1127f2cd403a315f,0,36,36,143,1,fourthree,,,,,,,,,,,,,,,,,,,,,,,,,,,,,,,,,,,,,,,,,,,,,,,,,,,,,,,,,,,,,,,,,,,,,,,,,,,,,,,,,,,,,,,,,,,,,,,,,,,,,,,,,,,,,,,,,,,,,,,,,,,,,,,,,,,,,,,,,,,,,,,,,,,,,,,,,,,,
,,,,,,61000423f045809db30f8a5b,62c538da2ab3e642b99fa9d1,2022-07-06_09h25.43.310,Colour_Asymmetry_Pilot,2022.1.3,Win32,59.21013678,62c50e9c1127f2cd403a315f,0,37,37,76,1,threeone,,,,,,,,,,,,,,,,,,,,,,,,,,,,,,,,,,,,,,,,,,,,,,,,,,,,,,,,,,,,,,,,,,,,,,,,,,,,,,,,,,,,,,,,,,,,,,,,,,,,,,,,,,,,,,,,,,,,,,,,,,,,,,,,,,,,,,,,,,,,,,,,,,,,,,,,,,,,
,,,,,,61000423f045809db30f8a5b,62c538da2ab3e642b99fa9d1,2022-07-06_09h25.43.310,Colour_Asymmetry_Pilot,2022.1.3,Win32,59.21013678,62c50e9c1127f2cd403a315f,0,38,38,132,1,threeone,,,,,,,,,,,,,,,,,,,,,,,,,,,,,,,,,,,,,,,,,,,,,,,,,,,,,,,,,,,,,,,,,,,,,,,,,,,,,,,,,,,,,,,,,,,,,,,,,,,,,,,,,,,,,,,,,,,,,,,,,,,,,,,,,,,,,,,,,,,,,,,,,,,,,,,,,,,,
,,,,,,61000423f045809db30f8a5b,62c538da2ab3e642b99fa9d1,2022-07-06_09h25.43.310,Colour_Asymmetry_Pilot,2022.1.3,Win32,59.21013678,62c50e9c1127f2cd403a315f,0,39,39,50,1,twoone,,,,,,,,,,,,,,,,,,,,,,,,,,,,,,,,,,,,,,,,,,,,,,,,,,,,,,,,,,,,,,,,,,,,,,,,,,,,,,,,,,,,,,,,,,,,,,,,,,,,,,,,,,,,,,,,,,,,,,,,,,,,,,,,,,,,,,,,,,,,,,,,,,,,,,,,,,,,
,,,,,,61000423f045809db30f8a5b,62c538da2ab3e642b99fa9d1,2022-07-06_09h25.43.310,Colour_Asymmetry_Pilot,2022.1.3,Win32,59.21013678,62c50e9c1127f2cd403a315f,0,40,40,142,1,fourtwo,,,,,,,,,,,,,,,,,,,,,,,,,,,,,,,,,,,,,,,,,,,,,,,,,,,,,,,,,,,,,,,,,,,,,,,,,,,,,,,,,,,,,,,,,,,,,,,,,,,,,,,,,,,,,,,,,,,,,,,,,,,,,,,,,,,,,,,,,,,,,,,,,,,,,,,,,,,,
,,,,,,61000423f045809db30f8a5b,62c538da2ab3e642b99fa9d1,2022-07-06_09h25.43.310,Colour_Asymmetry_Pilot,2022.1.3,Win32,59.21013678,62c50e9c1127f2cd403a315f,0,41,41,55,1,fourthree,,,,,,,,,,,,,,,,,,,,,,,,,,,,,,,,,,,,,,,,,,,,,,,,,,,,,,,,,,,,,,,,,,,,,,,,,,,,,,,,,,,,,,,,,,,,,,,,,,,,,,,,,,,,,,,,,,,,,,,,,,,,,,,,,,,,,,,,,,,,,,,,,,,,,,,,,,,,
,,,,,,61000423f045809db30f8a5b,62c538da2ab3e642b99fa9d1,2022-07-06_09h25.43.310,Colour_Asymmetry_Pilot,2022.1.3,Win32,59.21013678,62c50e9c1127f2cd403a315f,0,42,42,84,1,threeone,,,,,,,,,,,,,,,,,,,,,,,,,,,,,,,,,,,,,,,,,,,,,,,,,,,,,,,,,,,,,,,,,,,,,,,,,,,,,,,,,,,,,,,,,,,,,,,,,,,,,,,,,,,,,,,,,,,,,,,,,,,,,,,,,,,,,,,,,,,,,,,,,,,,,,,,,,,,
,,,,,,61000423f045809db30f8a5b,62c538da2ab3e642b99fa9d1,2022-07-06_09h25.43.310,Colour_Asymmetry_Pilot,2022.1.3,Win32,59.21013678,62c50e9c1127f2cd403a315f,0,43,43,34,1,twoone,,,,,,,,,,,,,,,,,,,,,,,,,,,,,,,,,,,,,,,,,,,,,,,,,,,,,,,,,,,,,,,,,,,,,,,,,,,,,,,,,,,,,,,,,,,,,,,,,,,,,,,,,,,,,,,,,,,,,,,,,,,,,,,,,,,,,,,,,,,,,,,,,,,,,,,,,,,,
,,,,,,61000423f045809db30f8a5b,62c538da2ab3e642b99fa9d1,2022-07-06_09h25.43.310,Colour_Asymmetry_Pilot,2022.1.3,Win32,59.21013678,62c50e9c1127f2cd403a315f,0,44,44,81,1,onethree,,,,,,,,,,,,,,,,,,,,,,,,,,,,,,,,,,,,,,,,,,,,,,,,,,,,,,,,,,,,,,,,,,,,,,,,,,,,,,,,,,,,,,,,,,,,,,,,,,,,,,,,,,,,,,,,,,,,,,,,,,,,,,,,,,,,,,,,,,,,,,,,,,,,,,,,,,,,
,,,,,,61000423f045809db30f8a5b,62c538da2ab3e642b99fa9d1,2022-07-06_09h25.43.310,Colour_Asymmetry_Pilot,2022.1.3,Win32,59.21013678,62c50e9c1127f2cd403a315f,0,45,45,115,1,twofour,,,,,,,,,,,,,,,,,,,,,,,,,,,,,,,,,,,,,,,,,,,,,,,,,,,,,,,,,,,,,,,,,,,,,,,,,,,,,,,,,,,,,,,,,,,,,,,,,,,,,,,,,,,,,,,,,,,,,,,,,,,,,,,,,,,,,,,,,,,,,,,,,,,,,,,,,,,,
,,,,,,61000423f045809db30f8a5b,62c538da2ab3e642b99fa9d1,2022-07-06_09h25.43.310,Colour_Asymmetry_Pilot,2022.1.3,Win32,59.21013678,62c50e9c1127f2cd403a315f,0,46,46,32,1,onetwo,,,,,,,,,,,,,,,,,,,,,,,,,,,,,,,,,,,,,,,,,,,,,,,,,,,,,,,,,,,,,,,,,,,,,,,,,,,,,,,,,,,,,,,,,,,,,,,,,,,,,,,,,,,,,,,,,,,,,,,,,,,,,,,,,,,,,,,,,,,,,,,,,,,,,,,,,,,,
,,,,,,61000423f045809db30f8a5b,62c538da2ab3e642b99fa9d1,2022-07-06_09h25.43.310,Colour_Asymmetry_Pilot,2022.1.3,Win32,59.21013678,62c50e9c1127f2cd403a315f,0,47,47,37,1,threefour,,,,,,,,,,,,,,,,,,,,,,,,,,,,,,,,,,,,,,,,,,,,,,,,,,,,,,,,,,,,,,,,,,,,,,,,,,,,,,,,,,,,,,,,,,,,,,,,,,,,,,,,,,,,,,,,,,,,,,,,,,,,,,,,,,,,,,,,,,,,,,,,,,,,,,,,,,,,
,,,,,,61000423f045809db30f8a5b,62c538da2ab3e642b99fa9d1,2022-07-06_09h25.43.310,Colour_Asymmetry_Pilot,2022.1.3,Win32,59.21013678,62c50e9c1127f2cd403a315f,0,48,48,120,1,onetwo,,,,,,,,,,,,,,,,,,,,,,,,,,,,,,,,,,,,,,,,,,,,,,,,,,,,,,,,,,,,,,,,,,,,,,,,,,,,,,,,,,,,,,,,,,,,,,,,,,,,,,,,,,,,,,,,,,,,,,,,,,,,,,,,,,,,,,,,,,,,,,,,,,,,,,,,,,,,
,,,,,,61000423f045809db30f8a5b,62c538da2ab3e642b99fa9d1,2022-07-06_09h25.43.310,Colour_Asymmetry_Pilot,2022.1.3,Win32,59.21013678,62c50e9c1127f2cd403a315f,0,49,49,153,1,onethree,,,,,,,,,,,,,,,,,,,,,,,,,,,,,,,,,,,,,,,,,,,,,,,,,,,,,,,,,,,,,,,,,,,,,,,,,,,,,,,,,,,,,,,,,,,,,,,,,,,,,,,,,,,,,,,,,,,,,,,,,,,,,,,,,,,,,,,,,,,,,,,,,,,,,,,,,,,,
,,,,,,61000423f045809db30f8a5b,62c538da2ab3e642b99fa9d1,2022-07-06_09h25.43.310,Colour_Asymmetry_Pilot,2022.1.3,Win32,59.21013678,62c50e9c1127f2cd403a315f,0,50,50,144,1,onetwo,,,,,,,,,,,,,,,,,,,,,,,,,,,,,,,,,,,,,,,,,,,,,,,,,,,,,,,,,,,,,,,,,,,,,,,,,,,,,,,,,,,,,,,,,,,,,,,,,,,,,,,,,,,,,,,,,,,,,,,,,,,,,,,,,,,,,,,,,,,,,,,,,,,,,,,,,,,,
,,,,,,61000423f045809db30f8a5b,62c538da2ab3e642b99fa9d1,2022-07-06_09h25.43.310,Colour_Asymmetry_Pilot,2022.1.3,Win32,59.21013678,62c50e9c1127f2cd403a315f,0,51,51,90,1,twoone,,,,,,,,,,,,,,,,,,,,,,,,,,,,,,,,,,,,,,,,,,,,,,,,,,,,,,,,,,,,,,,,,,,,,,,,,,,,,,,,,,,,,,,,,,,,,,,,,,,,,,,,,,,,,,,,,,,,,,,,,,,,,,,,,,,,,,,,,,,,,,,,,,,,,,,,,,,,
,,,,,,61000423f045809db30f8a5b,62c538da2ab3e642b99fa9d1,2022-07-06_09h25.43.310,Colour_Asymmetry_Pilot,2022.1.3,Win32,59.21013678,62c50e9c1127f2cd403a315f,0,52,52,56,1,onetwo,,,,,,,,,,,,,,,,,,,,,,,,,,,,,,,,,,,,,,,,,,,,,,,,,,,,,,,,,,,,,,,,,,,,,,,,,,,,,,,,,,,,,,,,,,,,,,,,,,,,,,,,,,,,,,,,,,,,,,,,,,,,,,,,,,,,,,,,,,,,,,,,,,,,,,,,,,,,
,,,,,,61000423f045809db30f8a5b,62c538da2ab3e642b99fa9d1,2022-07-06_09h25.43.310,Colour_Asymmetry_Pilot,2022.1.3,Win32,59.21013678,62c50e9c1127f2cd403a315f,0,53,53,133,1,threefour,,,,,,,,,,,,,,,,,,,,,,,,,,,,,,,,,,,,,,,,,,,,,,,,,,,,,,,,,,,,,,,,,,,,,,,,,,,,,,,,,,,,,,,,,,,,,,,,,,,,,,,,,,,,,,,,,,,,,,,,,,,,,,,,,,,,,,,,,,,,,,,,,,,,,,,,,,,,
,,,,,,61000423f045809db30f8a5b,62c538da2ab3e642b99fa9d1,2022-07-06_09h25.43.310,Colour_Asymmetry_Pilot,2022.1.3,Win32,59.21013678,62c50e9c1127f2cd403a315f,0,54,54,17,1,onethree,,,,,,,,,,,,,,,,,,,,,,,,,,,,,,,,,,,,,,,,,,,,,,,,,,,,,,,,,,,,,,,,,,,,,,,,,,,,,,,,,,,,,,,,,,,,,,,,,,,,,,,,,,,,,,,,,,,,,,,,,,,,,,,,,,,,,,,,,,,,,,,,,,,,,,,,,,,,
,,,,,,61000423f045809db30f8a5b,62c538da2ab3e642b99fa9d1,2022-07-06_09h25.43.310,Colour_Asymmetry_Pilot,2022.1.3,Win32,59.21013678,62c50e9c1127f2cd403a315f,0,55,55,119,1,fourthree,,,,,,,,,,,,,,,,,,,,,,,,,,,,,,,,,,,,,,,,,,,,,,,,,,,,,,,,,,,,,,,,,,,,,,,,,,,,,,,,,,,,,,,,,,,,,,,,,,,,,,,,,,,,,,,,,,,,,,,,,,,,,,,,,,,,,,,,,,,,,,,,,,,,,,,,,,,,
,,,,,,61000423f045809db30f8a5b,62c538da2ab3e642b99fa9d1,2022-07-06_09h25.43.310,Colour_Asymmetry_Pilot,2022.1.3,Win32,59.21013678,62c50e9c1127f2cd403a315f,0,56,56,21,1,threefour,,,,,,,,,,,,,,,,,,,,,,,,,,,,,,,,,,,,,,,,,,,,,,,,,,,,,,,,,,,,,,,,,,,,,,,,,,,,,,,,,,,,,,,,,,,,,,,,,,,,,,,,,,,,,,,,,,,,,,,,,,,,,,,,,,,,,,,,,,,,,,,,,,,,,,,,,,,,
,,,,,,61000423f045809db30f8a5b,62c538da2ab3e642b99fa9d1,2022-07-06_09h25.43.310,Colour_Asymmetry_Pilot,2022.1.3,Win32,59.21013678,62c50e9c1127f2cd403a315f,0,57,57,59,1,twofour,,,,,,,,,,,,,,,,,,,,,,,,,,,,,,,,,,,,,,,,,,,,,,,,,,,,,,,,,,,,,,,,,,,,,,,,,,,,,,,,,,,,,,,,,,,,,,,,,,,,,,,,,,,,,,,,,,,,,,,,,,,,,,,,,,,,,,,,,,,,,,,,,,,,,,,,,,,,
,,,,,,61000423f045809db30f8a5b,62c538da2ab3e642b99fa9d1,2022-07-06_09h25.43.310,Colour_Asymmetry_Pilot,2022.1.3,Win32,59.21013678,62c50e9c1127f2cd403a315f,0,58,58,10,1,twoone,,,,,,,,,,,,,,,,,,,,,,,,,,,,,,,,,,,,,,,,,,,,,,,,,,,,,,,,,,,,,,,,,,,,,,,,,,,,,,,,,,,,,,,,,,,,,,,,,,,,,,,,,,,,,,,,,,,,,,,,,,,,,,,,,,,,,,,,,,,,,,,,,,,,,,,,,,,,
,,,,,,61000423f045809db30f8a5b,62c538da2ab3e642b99fa9d1,2022-07-06_09h25.43.310,Colour_Asymmetry_Pilot,2022.1.3,Win32,59.21013678,62c50e9c1127f2cd403a315f,0,59,59,53,1,threefour,,,,,,,,,,,,,,,,,,,,,,,,,,,,,,,,,,,,,,,,,,,,,,,,,,,,,,,,,,,,,,,,,,,,,,,,,,,,,,,,,,,,,,,,,,,,,,,,,,,,,,,,,,,,,,,,,,,,,,,,,,,,,,,,,,,,,,,,,,,,,,,,,,,,,,,,,,,,
,,,,,,61000423f045809db30f8a5b,62c538da2ab3e642b99fa9d1,2022-07-06_09h25.43.310,Colour_Asymmetry_Pilot,2022.1.3,Win32,59.21013678,62c50e9c1127f2cd403a315f,0,60,60,65,1,onethree,,,,,,,,,,,,,,,,,,,,,,,,,,,,,,,,,,,,,,,,,,,,,,,,,,,,,,,,,,,,,,,,,,,,,,,,,,,,,,,,,,,,,,,,,,,,,,,,,,,,,,,,,,,,,,,,,,,,,,,,,,,,,,,,,,,,,,,,,,,,,,,,,,,,,,,,,,,,
,,,,,,61000423f045809db30f8a5b,62c538da2ab3e642b99fa9d1,2022-07-06_09h25.43.310,Colour_Asymmetry_Pilot,2022.1.3,Win32,59.21013678,62c50e9c1127f2cd403a315f,0,61,61,3,1,twofour,,,,,,,,,,,,,,,,,,,,,,,,,,,,,,,,,,,,,,,,,,,,,,,,,,,,,,,,,,,,,,,,,,,,,,,,,,,,,,,,,,,,,,,,,,,,,,,,,,,,,,,,,,,,,,,,,,,,,,,,,,,,,,,,,,,,,,,,,,,,,,,,,,,,,,,,,,,,
,,,,,,61000423f045809db30f8a5b,62c538da2ab3e642b99fa9d1,2022-07-06_09h25.43.310,Colour_Asymmetry_Pilot,2022.1.3,Win32,59.21013678,62c50e9c1127f2cd403a315f,0,62,62,111,1,fourthree,,,,,,,,,,,,,,,,,,,,,,,,,,,,,,,,,,,,,,,,,,,,,,,,,,,,,,,,,,,,,,,,,,,,,,,,,,,,,,,,,,,,,,,,,,,,,,,,,,,,,,,,,,,,,,,,,,,,,,,,,,,,,,,,,,,,,,,,,,,,,,,,,,,,,,,,,,,,
,,,,,,61000423f045809db30f8a5b,62c538da2ab3e642b99fa9d1,2022-07-06_09h25.43.310,Colour_Asymmetry_Pilot,2022.1.3,Win32,59.21013678,62c50e9c1127f2cd403a315f,0,63,63,151,1,fourthree,,,,,,,,,,,,,,,,,,,,,,,,,,,,,,,,,,,,,,,,,,,,,,,,,,,,,,,,,,,,,,,,,,,,,,,,,,,,,,,,,,,,,,,,,,,,,,,,,,,,,,,,,,,,,,,,,,,,,,,,,,,,,,,,,,,,,,,,,,,,,,,,,,,,,,,,,,,,
,,,,,,61000423f045809db30f8a5b,62c538da2ab3e642b99fa9d1,2022-07-06_09h25.43.310,Colour_Asymmetry_Pilot,2022.1.3,Win32,59.21013678,62c50e9c1127f2cd403a315f,0,64,64,154,1,twoone,,,,,,,,,,,,,,,,,,,,,,,,,,,,,,,,,,,,,,,,,,,,,,,,,,,,,,,,,,,,,,,,,,,,,,,,,,,,,,,,,,,,,,,,,,,,,,,,,,,,,,,,,,,,,,,,,,,,,,,,,,,,,,,,,,,,,,,,,,,,,,,,,,,,,,,,,,,,
,,,,,,61000423f045809db30f8a5b,62c538da2ab3e642b99fa9d1,2022-07-06_09h25.43.310,Colour_Asymmetry_Pilot,2022.1.3,Win32,59.21013678,62c50e9c1127f2cd403a315f,0,65,65,123,1,twofour,,,,,,,,,,,,,,,,,,,,,,,,,,,,,,,,,,,,,,,,,,,,,,,,,,,,,,,,,,,,,,,,,,,,,,,,,,,,,,,,,,,,,,,,,,,,,,,,,,,,,,,,,,,,,,,,,,,,,,,,,,,,,,,,,,,,,,,,,,,,,,,,,,,,,,,,,,,,
,,,,,,61000423f045809db30f8a5b,62c538da2ab3e642b99fa9d1,2022-07-06_09h25.43.310,Colour_Asymmetry_Pilot,2022.1.3,Win32,59.21013678,62c50e9c1127f2cd403a315f,0,66,66,101,1,threefour,,,,,,,,,,,,,,,,,,,,,,,,,,,,,,,,,,,,,,,,,,,,,,,,,,,,,,,,,,,,,,,,,,,,,,,,,,,,,,,,,,,,,,,,,,,,,,,,,,,,,,,,,,,,,,,,,,,,,,,,,,,,,,,,,,,,,,,,,,,,,,,,,,,,,,,,,,,,
,,,,,,61000423f045809db30f8a5b,62c538da2ab3e642b99fa9d1,2022-07-06_09h25.43.310,Colour_Asymmetry_Pilot,2022.1.3,Win32,59.21013678,62c50e9c1127f2cd403a315f,0,67,67,1,1,onethree,,,,,,,,,,,,,,,,,,,,,,,,,,,,,,,,,,,,,,,,,,,,,,,,,,,,,,,,,,,,,,,,,,,,,,,,,,,,,,,,,,,,,,,,,,,,,,,,,,,,,,,,,,,,,,,,,,,,,,,,,,,,,,,,,,,,,,,,,,,,,,,,,,,,,,,,,,,,
,,,,,,61000423f045809db30f8a5b,62c538da2ab3e642b99fa9d1,2022-07-06_09h25.43.310,Colour_Asymmetry_Pilot,2022.1.3,Win32,59.21013678,62c50e9c1127f2cd403a315f,0,68,68,77,1,threefour,,,,,,,,,,,,,,,,,,,,,,,,,,,,,,,,,,,,,,,,,,,,,,,,,,,,,,,,,,,,,,,,,,,,,,,,,,,,,,,,,,,,,,,,,,,,,,,,,,,,,,,,,,,,,,,,,,,,,,,,,,,,,,,,,,,,,,,,,,,,,,,,,,,,,,,,,,,,
,,,,,,61000423f045809db30f8a5b,62c538da2ab3e642b99fa9d1,2022-07-06_09h25.43.310,Colour_Asymmetry_Pilot,2022.1.3,Win32,59.21013678,62c50e9c1127f2cd403a315f,0,69,69,7,1,fourthree,,,,,,,,,,,,,,,,,,,,,,,,,,,,,,,,,,,,,,,,,,,,,,,,,,,,,,,,,,,,,,,,,,,,,,,,,,,,,,,,,,,,,,,,,,,,,,,,,,,,,,,,,,,,,,,,,,,,,,,,,,,,,,,,,,,,,,,,,,,,,,,,,,,,,,,,,,,,
,,,,,,61000423f045809db30f8a5b,62c538da2ab3e642b99fa9d1,2022-07-06_09h25.43.310,Colour_Asymmetry_Pilot,2022.1.3,Win32,59.21013678,62c50e9c1127f2cd403a315f,0,70,70,40,1,onetwo,,,,,,,,,,,,,,,,,,,,,,,,,,,,,,,,,,,,,,,,,,,,,,,,,,,,,,,,,,,,,,,,,,,,,,,,,,,,,,,,,,,,,,,,,,,,,,,,,,,,,,,,,,,,,,,,,,,,,,,,,,,,,,,,,,,,,,,,,,,,,,,,,,,,,,,,,,,,
,,,,,,61000423f045809db30f8a5b,62c538da2ab3e642b99fa9d1,2022-07-06_09h25.43.310,Colour_Asymmetry_Pilot,2022.1.3,Win32,59.21013678,62c50e9c1127f2cd403a315f,0,71,71,73,1,onethree,,,,,,,,,,,,,,,,,,,,,,,,,,,,,,,,,,,,,,,,,,,,,,,,,,,,,,,,,,,,,,,,,,,,,,,,,,,,,,,,,,,,,,,,,,,,,,,,,,,,,,,,,,,,,,,,,,,,,,,,,,,,,,,,,,,,,,,,,,,,,,,,,,,,,,,,,,,,
,,,,,,61000423f045809db30f8a5b,62c538da2ab3e642b99fa9d1,2022-07-06_09h25.43.310,Colour_Asymmetry_Pilot,2022.1.3,Win32,59.21013678,62c50e9c1127f2cd403a315f,0,72,72,125,1,threefour,,,,,,,,,,,,,,,,,,,,,,,,,,,,,,,,,,,,,,,,,,,,,,,,,,,,,,,,,,,,,,,,,,,,,,,,,,,,,,,,,,,,,,,,,,,,,,,,,,,,,,,,,,,,,,,,,,,,,,,,,,,,,,,,,,,,,,,,,,,,,,,,,,,,,,,,,,,,
,,,,,,61000423f045809db30f8a5b,62c538da2ab3e642b99fa9d1,2022-07-06_09h25.43.310,Colour_Asymmetry_Pilot,2022.1.3,Win32,59.21013678,62c50e9c1127f2cd403a315f,0,73,73,127,1,fourthree,,,,,,,,,,,,,,,,,,,,,,,,,,,,,,,,,,,,,,,,,,,,,,,,,,,,,,,,,,,,,,,,,,,,,,,,,,,,,,,,,,,,,,,,,,,,,,,,,,,,,,,,,,,,,,,,,,,,,,,,,,,,,,,,,,,,,,,,,,,,,,,,,,,,,,,,,,,,
,,,,,,61000423f045809db30f8a5b,62c538da2ab3e642b99fa9d1,2022-07-06_09h25.43.310,Colour_Asymmetry_Pilot,2022.1.3,Win32,59.21013678,62c50e9c1127f2cd403a315f,0,74,74,20,1,threeone,,,,,,,,,,,,,,,,,,,,,,,,,,,,,,,,,,,,,,,,,,,,,,,,,,,,,,,,,,,,,,,,,,,,,,,,,,,,,,,,,,,,,,,,,,,,,,,,,,,,,,,,,,,,,,,,,,,,,,,,,,,,,,,,,,,,,,,,,,,,,,,,,,,,,,,,,,,,
,,,,,,61000423f045809db30f8a5b,62c538da2ab3e642b99fa9d1,2022-07-06_09h25.43.310,Colour_Asymmetry_Pilot,2022.1.3,Win32,59.21013678,62c50e9c1127f2cd403a315f,0,75,75,60,1,threeone,,,,,,,,,,,,,,,,,,,,,,,,,,,,,,,,,,,,,,,,,,,,,,,,,,,,,,,,,,,,,,,,,,,,,,,,,,,,,,,,,,,,,,,,,,,,,,,,,,,,,,,,,,,,,,,,,,,,,,,,,,,,,,,,,,,,,,,,,,,,,,,,,,,,,,,,,,,,
,,,,,,61000423f045809db30f8a5b,62c538da2ab3e642b99fa9d1,2022-07-06_09h25.43.310,Colour_Asymmetry_Pilot,2022.1.3,Win32,59.21013678,62c50e9c1127f2cd403a315f,0,76,76,29,1,threefour,,,,,,,,,,,,,,,,,,,,,,,,,,,,,,,,,,,,,,,,,,,,,,,,,,,,,,,,,,,,,,,,,,,,,,,,,,,,,,,,,,,,,,,,,,,,,,,,,,,,,,,,,,,,,,,,,,,,,,,,,,,,,,,,,,,,,,,,,,,,,,,,,,,,,,,,,,,,
,,,,,,61000423f045809db30f8a5b,62c538da2ab3e642b99fa9d1,2022-07-06_09h25.43.310,Colour_Asymmetry_Pilot,2022.1.3,Win32,59.21013678,62c50e9c1127f2cd403a315f,0,77,77,137,1,onethree,,,,,,,,,,,,,,,,,,,,,,,,,,,,,,,,,,,,,,,,,,,,,,,,,,,,,,,,,,,,,,,,,,,,,,,,,,,,,,,,,,,,,,,,,,,,,,,,,,,,,,,,,,,,,,,,,,,,,,,,,,,,,,,,,,,,,,,,,,,,,,,,,,,,,,,,,,,,
,,,,,,61000423f045809db30f8a5b,62c538da2ab3e642b99fa9d1,2022-07-06_09h25.43.310,Colour_Asymmetry_Pilot,2022.1.3,Win32,59.21013678,62c50e9c1127f2cd403a315f,0,78,78,6,1,fourtwo,,,,,,,,,,,,,,,,,,,,,,,,,,,,,,,,,,,,,,,,,,,,,,,,,,,,,,,,,,,,,,,,,,,,,,,,,,,,,,,,,,,,,,,,,,,,,,,,,,,,,,,,,,,,,,,,,,,,,,,,,,,,,,,,,,,,,,,,,,,,,,,,,,,,,,,,,,,,
,,,,,,61000423f045809db30f8a5b,62c538da2ab3e642b99fa9d1,2022-07-06_09h25.43.310,Colour_Asymmetry_Pilot,2022.1.3,Win32,59.21013678,62c50e9c1127f2cd403a315f,0,79,79,48,1,onetwo,,,,,,,,,,,,,,,,,,,,,,,,,,,,,,,,,,,,,,,,,,,,,,,,,,,,,,,,,,,,,,,,,,,,,,,,,,,,,,,,,,,,,,,,,,,,,,,,,,,,,,,,,,,,,,,,,,,,,,,,,,,,,,,,,,,,,,,,,,,,,,,,,,,,,,,,,,,,
,,,,,,61000423f045809db30f8a5b,62c538da2ab3e642b99fa9d1,2022-07-06_09h25.43.310,Colour_Asymmetry_Pilot,2022.1.3,Win32,59.21013678,62c50e9c1127f2cd403a315f,0,80,80,43,1,twofour,,,,,,,,,,,,,,,,,,,,,,,,,,,,,,,,,,,,,,,,,,,,,,,,,,,,,,,,,,,,,,,,,,,,,,,,,,,,,,,,,,,,,,,,,,,,,,,,,,,,,,,,,,,,,,,,,,,,,,,,,,,,,,,,,,,,,,,,,,,,,,,,,,,,,,,,,,,,
,,,,,,61000423f045809db30f8a5b,62c538da2ab3e642b99fa9d1,2022-07-06_09h25.43.310,Colour_Asymmetry_Pilot,2022.1.3,Win32,59.21013678,62c50e9c1127f2cd403a315f,0,81,81,141,1,threefour,,,,,,,,,,,,,,,,,,,,,,,,,,,,,,,,,,,,,,,,,,,,,,,,,,,,,,,,,,,,,,,,,,,,,,,,,,,,,,,,,,,,,,,,,,,,,,,,,,,,,,,,,,,,,,,,,,,,,,,,,,,,,,,,,,,,,,,,,,,,,,,,,,,,,,,,,,,,
,,,,,,61000423f045809db30f8a5b,62c538da2ab3e642b99fa9d1,2022-07-06_09h25.43.310,Colour_Asymmetry_Pilot,2022.1.3,Win32,59.21013678,62c50e9c1127f2cd403a315f,0,82,82,161,1,onethree,,,,,,,,,,,,,,,,,,,,,,,,,,,,,,,,,,,,,,,,,,,,,,,,,,,,,,,,,,,,,,,,,,,,,,,,,,,,,,,,,,,,,,,,,,,,,,,,,,,,,,,,,,,,,,,,,,,,,,,,,,,,,,,,,,,,,,,,,,,,,,,,,,,,,,,,,,,,
,,,,,,61000423f045809db30f8a5b,62c538da2ab3e642b99fa9d1,2022-07-06_09h25.43.310,Colour_Asymmetry_Pilot,2022.1.3,Win32,59.21013678,62c50e9c1127f2cd403a315f,0,83,83,94,1,fourtwo,,,,,,,,,,,,,,,,,,,,,,,,,,,,,,,,,,,,,,,,,,,,,,,,,,,,,,,,,,,,,,,,,,,,,,,,,,,,,,,,,,,,,,,,,,,,,,,,,,,,,,,,,,,,,,,,,,,,,,,,,,,,,,,,,,,,,,,,,,,,,,,,,,,,,,,,,,,,
,,,,,,61000423f045809db30f8a5b,62c538da2ab3e642b99fa9d1,2022-07-06_09h25.43.310,Colour_Asymmetry_Pilot,2022.1.3,Win32,59.21013678,62c50e9c1127f2cd403a315f,0,84,84,47,1,fourthree,,,,,,,,,,,,,,,,,,,,,,,,,,,,,,,,,,,,,,,,,,,,,,,,,,,,,,,,,,,,,,,,,,,,,,,,,,,,,,,,,,,,,,,,,,,,,,,,,,,,,,,,,,,,,,,,,,,,,,,,,,,,,,,,,,,,,,,,,,,,,,,,,,,,,,,,,,,,
,,,,,,61000423f045809db30f8a5b,62c538da2ab3e642b99fa9d1,2022-07-06_09h25.43.310,Colour_Asymmetry_Pilot,2022.1.3,Win32,59.21013678,62c50e9c1127f2cd403a315f,0,85,85,124,1,threeone,,,,,,,,,,,,,,,,,,,,,,,,,,,,,,,,,,,,,,,,,,,,,,,,,,,,,,,,,,,,,,,,,,,,,,,,,,,,,,,,,,,,,,,,,,,,,,,,,,,,,,,,,,,,,,,,,,,,,,,,,,,,,,,,,,,,,,,,,,,,,,,,,,,,,,,,,,,,
,,,,,,61000423f045809db30f8a5b,62c538da2ab3e642b99fa9d1,2022-07-06_09h25.43.310,Colour_Asymmetry_Pilot,2022.1.3,Win32,59.21013678,62c50e9c1127f2cd403a315f,0,86,86,140,1,threeone,,,,,,,,,,,,,,,,,,,,,,,,,,,,,,,,,,,,,,,,,,,,,,,,,,,,,,,,,,,,,,,,,,,,,,,,,,,,,,,,,,,,,,,,,,,,,,,,,,,,,,,,,,,,,,,,,,,,,,,,,,,,,,,,,,,,,,,,,,,,,,,,,,,,,,,,,,,,
,,,,,,61000423f045809db30f8a5b,62c538da2ab3e642b99fa9d1,2022-07-06_09h25.43.310,Colour_Asymmetry_Pilot,2022.1.3,Win32,59.21013678,62c50e9c1127f2cd403a315f,0,87,87,157,1,threefour,,,,,,,,,,,,,,,,,,,,,,,,,,,,,,,,,,,,,,,,,,,,,,,,,,,,,,,,,,,,,,,,,,,,,,,,,,,,,,,,,,,,,,,,,,,,,,,,,,,,,,,,,,,,,,,,,,,,,,,,,,,,,,,,,,,,,,,,,,,,,,,,,,,,,,,,,,,,
,,,,,,61000423f045809db30f8a5b,62c538da2ab3e642b99fa9d1,2022-07-06_09h25.43.310,Colour_Asymmetry_Pilot,2022.1.3,Win32,59.21013678,62c50e9c1127f2cd403a315f,0,88,88,28,1,threeone,,,,,,,,,,,,,,,,,,,,,,,,,,,,,,,,,,,,,,,,,,,,,,,,,,,,,,,,,,,,,,,,,,,,,,,,,,,,,,,,,,,,,,,,,,,,,,,,,,,,,,,,,,,,,,,,,,,,,,,,,,,,,,,,,,,,,,,,,,,,,,,,,,,,,,,,,,,,
,,,,,,61000423f045809db30f8a5b,62c538da2ab3e642b99fa9d1,2022-07-06_09h25.43.310,Colour_Asymmetry_Pilot,2022.1.3,Win32,59.21013678,62c50e9c1127f2cd403a315f,0,89,89,139,1,twofour,,,,,,,,,,,,,,,,,,,,,,,,,,,,,,,,,,,,,,,,,,,,,,,,,,,,,,,,,,,,,,,,,,,,,,,,,,,,,,,,,,,,,,,,,,,,,,,,,,,,,,,,,,,,,,,,,,,,,,,,,,,,,,,,,,,,,,,,,,,,,,,,,,,,,,,,,,,,
,,,,,,61000423f045809db30f8a5b,62c538da2ab3e642b99fa9d1,2022-07-06_09h25.43.310,Colour_Asymmetry_Pilot,2022.1.3,Win32,59.21013678,62c50e9c1127f2cd403a315f,0,90,90,88,1,onetwo,,,,,,,,,,,,,,,,,,,,,,,,,,,,,,,,,,,,,,,,,,,,,,,,,,,,,,,,,,,,,,,,,,,,,,,,,,,,,,,,,,,,,,,,,,,,,,,,,,,,,,,,,,,,,,,,,,,,,,,,,,,,,,,,,,,,,,,,,,,,,,,,,,,,,,,,,,,,
,,,,,,61000423f045809db30f8a5b,62c538da2ab3e642b99fa9d1,2022-07-06_09h25.43.310,Colour_Asymmetry_Pilot,2022.1.3,Win32,59.21013678,62c50e9c1127f2cd403a315f,0,91,91,126,1,fourtwo,,,,,,,,,,,,,,,,,,,,,,,,,,,,,,,,,,,,,,,,,,,,,,,,,,,,,,,,,,,,,,,,,,,,,,,,,,,,,,,,,,,,,,,,,,,,,,,,,,,,,,,,,,,,,,,,,,,,,,,,,,,,,,,,,,,,,,,,,,,,,,,,,,,,,,,,,,,,
,,,,,,61000423f045809db30f8a5b,62c538da2ab3e642b99fa9d1,2022-07-06_09h25.43.310,Colour_Asymmetry_Pilot,2022.1.3,Win32,59.21013678,62c50e9c1127f2cd403a315f,0,92,92,30,1,fourtwo,,,,,,,,,,,,,,,,,,,,,,,,,,,,,,,,,,,,,,,,,,,,,,,,,,,,,,,,,,,,,,,,,,,,,,,,,,,,,,,,,,,,,,,,,,,,,,,,,,,,,,,,,,,,,,,,,,,,,,,,,,,,,,,,,,,,,,,,,,,,,,,,,,,,,,,,,,,,
,,,,,,61000423f045809db30f8a5b,62c538da2ab3e642b99fa9d1,2022-07-06_09h25.43.310,Colour_Asymmetry_Pilot,2022.1.3,Win32,59.21013678,62c50e9c1127f2cd403a315f,0,93,93,0,1,onetwo,,,,,,,,,,,,,,,,,,,,,,,,,,,,,,,,,,,,,,,,,,,,,,,,,,,,,,,,,,,,,,,,,,,,,,,,,,,,,,,,,,,,,,,,,,,,,,,,,,,,,,,,,,,,,,,,,,,,,,,,,,,,,,,,,,,,,,,,,,,,,,,,,,,,,,,,,,,,
,,,,,,61000423f045809db30f8a5b,62c538da2ab3e642b99fa9d1,2022-07-06_09h25.43.310,Colour_Asymmetry_Pilot,2022.1.3,Win32,59.21013678,62c50e9c1127f2cd403a315f,0,94,94,89,1,onethree,,,,,,,,,,,,,,,,,,,,,,,,,,,,,,,,,,,,,,,,,,,,,,,,,,,,,,,,,,,,,,,,,,,,,,,,,,,,,,,,,,,,,,,,,,,,,,,,,,,,,,,,,,,,,,,,,,,,,,,,,,,,,,,,,,,,,,,,,,,,,,,,,,,,,,,,,,,,
,,,,,,61000423f045809db30f8a5b,62c538da2ab3e642b99fa9d1,2022-07-06_09h25.43.310,Colour_Asymmetry_Pilot,2022.1.3,Win32,59.21013678,62c50e9c1127f2cd403a315f,0,95,95,45,1,threefour,,,,,,,,,,,,,,,,,,,,,,,,,,,,,,,,,,,,,,,,,,,,,,,,,,,,,,,,,,,,,,,,,,,,,,,,,,,,,,,,,,,,,,,,,,,,,,,,,,,,,,,,,,,,,,,,,,,,,,,,,,,,,,,,,,,,,,,,,,,,,,,,,,,,,,,,,,,,
,,,,,,61000423f045809db30f8a5b,62c538da2ab3e642b99fa9d1,2022-07-06_09h25.43.310,Colour_Asymmetry_Pilot,2022.1.3,Win32,59.21013678,62c50e9c1127f2cd403a315f,0,96,96,83,1,twofour,,,,,,,,,,,,,,,,,,,,,,,,,,,,,,,,,,,,,,,,,,,,,,,,,,,,,,,,,,,,,,,,,,,,,,,,,,,,,,,,,,,,,,,,,,,,,,,,,,,,,,,,,,,,,,,,,,,,,,,,,,,,,,,,,,,,,,,,,,,,,,,,,,,,,,,,,,,,
,,,,,,61000423f045809db30f8a5b,62c538da2ab3e642b99fa9d1,2022-07-06_09h25.43.310,Colour_Asymmetry_Pilot,2022.1.3,Win32,59.21013678,62c50e9c1127f2cd403a315f,0,97,97,8,1,onetwo,,,,,,,,,,,,,,,,,,,,,,,,,,,,,,,,,,,,,,,,,,,,,,,,,,,,,,,,,,,,,,,,,,,,,,,,,,,,,,,,,,,,,,,,,,,,,,,,,,,,,,,,,,,,,,,,,,,,,,,,,,,,,,,,,,,,,,,,,,,,,,,,,,,,,,,,,,,,
,,,,,,61000423f045809db30f8a5b,62c538da2ab3e642b99fa9d1,2022-07-06_09h25.43.310,Colour_Asymmetry_Pilot,2022.1.3,Win32,59.21013678,62c50e9c1127f2cd403a315f,0,98,98,146,1,twoone,,,,,,,,,,,,,,,,,,,,,,,,,,,,,,,,,,,,,,,,,,,,,,,,,,,,,,,,,,,,,,,,,,,,,,,,,,,,,,,,,,,,,,,,,,,,,,,,,,,,,,,,,,,,,,,,,,,,,,,,,,,,,,,,,,,,,,,,,,,,,,,,,,,,,,,,,,,,
,,,,,,61000423f045809db30f8a5b,62c538da2ab3e642b99fa9d1,2022-07-06_09h25.43.310,Colour_Asymmetry_Pilot,2022.1.3,Win32,59.21013678,62c50e9c1127f2cd403a315f,0,99,99,129,1,onethree,,,,,,,,,,,,,,,,,,,,,,,,,,,,,,,,,,,,,,,,,,,,,,,,,,,,,,,,,,,,,,,,,,,,,,,,,,,,,,,,,,,,,,,,,,,,,,,,,,,,,,,,,,,,,,,,,,,,,,,,,,,,,,,,,,,,,,,,,,,,,,,,,,,,,,,,,,,,
,,,,,,61000423f045809db30f8a5b,62c538da2ab3e642b99fa9d1,2022-07-06_09h25.43.310,Colour_Asymmetry_Pilot,2022.1.3,Win32,59.21013678,62c50e9c1127f2cd403a315f,0,100,100,152,1,onetwo,,,,,,,,,,,,,,,,,,,,,,,,,,,,,,,,,,,,,,,,,,,,,,,,,,,,,,,,,,,,,,,,,,,,,,,,,,,,,,,,,,,,,,,,,,,,,,,,,,,,,,,,,,,,,,,,,,,,,,,,,,,,,,,,,,,,,,,,,,,,,,,,,,,,,,,,,,,,
,,,,,,61000423f045809db30f8a5b,62c538da2ab3e642b99fa9d1,2022-07-06_09h25.43.310,Colour_Asymmetry_Pilot,2022.1.3,Win32,59.21013678,62c50e9c1127f2cd403a315f,0,101,101,67,1,twofour,,,,,,,,,,,,,,,,,,,,,,,,,,,,,,,,,,,,,,,,,,,,,,,,,,,,,,,,,,,,,,,,,,,,,,,,,,,,,,,,,,,,,,,,,,,,,,,,,,,,,,,,,,,,,,,,,,,,,,,,,,,,,,,,,,,,,,,,,,,,,,,,,,,,,,,,,,,,
,,,,,,61000423f045809db30f8a5b,62c538da2ab3e642b99fa9d1,2022-07-06_09h25.43.310,Colour_Asymmetry_Pilot,2022.1.3,Win32,59.21013678,62c50e9c1127f2cd403a315f,0,102,102,117,1,threefour,,,,,,,,,,,,,,,,,,,,,,,,,,,,,,,,,,,,,,,,,,,,,,,,,,,,,,,,,,,,,,,,,,,,,,,,,,,,,,,,,,,,,,,,,,,,,,,,,,,,,,,,,,,,,,,,,,,,,,,,,,,,,,,,,,,,,,,,,,,,,,,,,,,,,,,,,,,,
,,,,,,61000423f045809db30f8a5b,62c538da2ab3e642b99fa9d1,2022-07-06_09h25.43.310,Colour_Asymmetry_Pilot,2022.1.3,Win32,59.21013678,62c50e9c1127f2cd403a315f,0,103,103,18,1,twoone,,,,,,,,,,,,,,,,,,,,,,,,,,,,,,,,,,,,,,,,,,,,,,,,,,,,,,,,,,,,,,,,,,,,,,,,,,,,,,,,,,,,,,,,,,,,,,,,,,,,,,,,,,,,,,,,,,,,,,,,,,,,,,,,,,,,,,,,,,,,,,,,,,,,,,,,,,,,
,,,,,,61000423f045809db30f8a5b,62c538da2ab3e642b99fa9d1,2022-07-06_09h25.43.310,Colour_Asymmetry_Pilot,2022.1.3,Win32,59.21013678,62c50e9c1127f2cd403a315f,0,104,104,116,1,threeone,,,,,,,,,,,,,,,,,,,,,,,,,,,,,,,,,,,,,,,,,,,,,,,,,,,,,,,,,,,,,,,,,,,,,,,,,,,,,,,,,,,,,,,,,,,,,,,,,,,,,,,,,,,,,,,,,,,,,,,,,,,,,,,,,,,,,,,,,,,,,,,,,,,,,,,,,,,,
,,,,,,61000423f045809db30f8a5b,62c538da2ab3e642b99fa9d1,2022-07-06_09h25.43.310,Colour_Asymmetry_Pilot,2022.1.3,Win32,59.21013678,62c50e9c1127f2cd403a315f,0,105,105,11,1,twofour,,,,,,,,,,,,,,,,,,,,,,,,,,,,,,,,,,,,,,,,,,,,,,,,,,,,,,,,,,,,,,,,,,,,,,,,,,,,,,,,,,,,,,,,,,,,,,,,,,,,,,,,,,,,,,,,,,,,,,,,,,,,,,,,,,,,,,,,,,,,,,,,,,,,,,,,,,,,
,,,,,,61000423f045809db30f8a5b,62c538da2ab3e642b99fa9d1,2022-07-06_09h25.43.310,Colour_Asymmetry_Pilot,2022.1.3,Win32,59.21013678,62c50e9c1127f2cd403a315f,0,106,106,114,1,twoone,,,,,,,,,,,,,,,,,,,,,,,,,,,,,,,,,,,,,,,,,,,,,,,,,,,,,,,,,,,,,,,,,,,,,,,,,,,,,,,,,,,,,,,,,,,,,,,,,,,,,,,,,,,,,,,,,,,,,,,,,,,,,,,,,,,,,,,,,,,,,,,,,,,,,,,,,,,,
,,,,,,61000423f045809db30f8a5b,62c538da2ab3e642b99fa9d1,2022-07-06_09h25.43.310,Colour_Asymmetry_Pilot,2022.1.3,Win32,59.21013678,62c50e9c1127f2cd403a315f,0,107,107,106,1,twoone,,,,,,,,,,,,,,,,,,,,,,,,,,,,,,,,,,,,,,,,,,,,,,,,,,,,,,,,,,,,,,,,,,,,,,,,,,,,,,,,,,,,,,,,,,,,,,,,,,,,,,,,,,,,,,,,,,,,,,,,,,,,,,,,,,,,,,,,,,,,,,,,,,,,,,,,,,,,
,,,,,,61000423f045809db30f8a5b,62c538da2ab3e642b99fa9d1,2022-07-06_09h25.43.310,Colour_Asymmetry_Pilot,2022.1.3,Win32,59.21013678,62c50e9c1127f2cd403a315f,0,108,108,91,1,twofour,,,,,,,,,,,,,,,,,,,,,,,,,,,,,,,,,,,,,,,,,,,,,,,,,,,,,,,,,,,,,,,,,,,,,,,,,,,,,,,,,,,,,,,,,,,,,,,,,,,,,,,,,,,,,,,,,,,,,,,,,,,,,,,,,,,,,,,,,,,,,,,,,,,,,,,,,,,,
,,,,,,61000423f045809db30f8a5b,62c538da2ab3e642b99fa9d1,2022-07-06_09h25.43.310,Colour_Asymmetry_Pilot,2022.1.3,Win32,59.21013678,62c50e9c1127f2cd403a315f,0,109,109,75,1,twofour,,,,,,,,,,,,,,,,,,,,,,,,,,,,,,,,,,,,,,,,,,,,,,,,,,,,,,,,,,,,,,,,,,,,,,,,,,,,,,,,,,,,,,,,,,,,,,,,,,,,,,,,,,,,,,,,,,,,,,,,,,,,,,,,,,,,,,,,,,,,,,,,,,,,,,,,,,,,
,,,,,,61000423f045809db30f8a5b,62c538da2ab3e642b99fa9d1,2022-07-06_09h25.43.310,Colour_Asymmetry_Pilot,2022.1.3,Win32,59.21013678,62c50e9c1127f2cd403a315f,0,110,110,82,1,twoone,,,,,,,,,,,,,,,,,,,,,,,,,,,,,,,,,,,,,,,,,,,,,,,,,,,,,,,,,,,,,,,,,,,,,,,,,,,,,,,,,,,,,,,,,,,,,,,,,,,,,,,,,,,,,,,,,,,,,,,,,,,,,,,,,,,,,,,,,,,,,,,,,,,,,,,,,,,,
,,,,,,61000423f045809db30f8a5b,62c538da2ab3e642b99fa9d1,2022-07-06_09h25.43.310,Colour_Asymmetry_Pilot,2022.1.3,Win32,59.21013678,62c50e9c1127f2cd403a315f,0,111,111,92,1,threeone,,,,,,,,,,,,,,,,,,,,,,,,,,,,,,,,,,,,,,,,,,,,,,,,,,,,,,,,,,,,,,,,,,,,,,,,,,,,,,,,,,,,,,,,,,,,,,,,,,,,,,,,,,,,,,,,,,,,,,,,,,,,,,,,,,,,,,,,,,,,,,,,,,,,,,,,,,,,
,,,,,,61000423f045809db30f8a5b,62c538da2ab3e642b99fa9d1,2022-07-06_09h25.43.310,Colour_Asymmetry_Pilot,2022.1.3,Win32,59.21013678,62c50e9c1127f2cd403a315f,0,112,112,41,1,onethree,,,,,,,,,,,,,,,,,,,,,,,,,,,,,,,,,,,,,,,,,,,,,,,,,,,,,,,,,,,,,,,,,,,,,,,,,,,,,,,,,,,,,,,,,,,,,,,,,,,,,,,,,,,,,,,,,,,,,,,,,,,,,,,,,,,,,,,,,,,,,,,,,,,,,,,,,,,,
,,,,,,61000423f045809db30f8a5b,62c538da2ab3e642b99fa9d1,2022-07-06_09h25.43.310,Colour_Asymmetry_Pilot,2022.1.3,Win32,59.21013678,62c50e9c1127f2cd403a315f,0,113,113,26,1,twoone,,,,,,,,,,,,,,,,,,,,,,,,,,,,,,,,,,,,,,,,,,,,,,,,,,,,,,,,,,,,,,,,,,,,,,,,,,,,,,,,,,,,,,,,,,,,,,,,,,,,,,,,,,,,,,,,,,,,,,,,,,,,,,,,,,,,,,,,,,,,,,,,,,,,,,,,,,,,
,,,,,,61000423f045809db30f8a5b,62c538da2ab3e642b99fa9d1,2022-07-06_09h25.43.310,Colour_Asymmetry_Pilot,2022.1.3,Win32,59.21013678,62c50e9c1127f2cd403a315f,0,114,114,131,1,twofour,,,,,,,,,,,,,,,,,,,,,,,,,,,,,,,,,,,,,,,,,,,,,,,,,,,,,,,,,,,,,,,,,,,,,,,,,,,,,,,,,,,,,,,,,,,,,,,,,,,,,,,,,,,,,,,,,,,,,,,,,,,,,,,,,,,,,,,,,,,,,,,,,,,,,,,,,,,,
,,,,,,61000423f045809db30f8a5b,62c538da2ab3e642b99fa9d1,2022-07-06_09h25.43.310,Colour_Asymmetry_Pilot,2022.1.3,Win32,59.21013678,62c50e9c1127f2cd403a315f,0,115,115,105,1,onethree,,,,,,,,,,,,,,,,,,,,,,,,,,,,,,,,,,,,,,,,,,,,,,,,,,,,,,,,,,,,,,,,,,,,,,,,,,,,,,,,,,,,,,,,,,,,,,,,,,,,,,,,,,,,,,,,,,,,,,,,,,,,,,,,,,,,,,,,,,,,,,,,,,,,,,,,,,,,
,,,,,,61000423f045809db30f8a5b,62c538da2ab3e642b99fa9d1,2022-07-06_09h25.43.310,Colour_Asymmetry_Pilot,2022.1.3,Win32,59.21013678,62c50e9c1127f2cd403a315f,0,116,116,35,1,twofour,,,,,,,,,,,,,,,,,,,,,,,,,,,,,,,,,,,,,,,,,,,,,,,,,,,,,,,,,,,,,,,,,,,,,,,,,,,,,,,,,,,,,,,,,,,,,,,,,,,,,,,,,,,,,,,,,,,,,,,,,,,,,,,,,,,,,,,,,,,,,,,,,,,,,,,,,,,,
,,,,,,61000423f045809db30f8a5b,62c538da2ab3e642b99fa9d1,2022-07-06_09h25.43.310,Colour_Asymmetry_Pilot,2022.1.3,Win32,59.21013678,62c50e9c1127f2cd403a315f,0,117,117,66,1,twoone,,,,,,,,,,,,,,,,,,,,,,,,,,,,,,,,,,,,,,,,,,,,,,,,,,,,,,,,,,,,,,,,,,,,,,,,,,,,,,,,,,,,,,,,,,,,,,,,,,,,,,,,,,,,,,,,,,,,,,,,,,,,,,,,,,,,,,,,,,,,,,,,,,,,,,,,,,,,
,,,,,,61000423f045809db30f8a5b,62c538da2ab3e642b99fa9d1,2022-07-06_09h25.43.310,Colour_Asymmetry_Pilot,2022.1.3,Win32,59.21013678,62c50e9c1127f2cd403a315f,0,118,118,70,1,fourtwo,,,,,,,,,,,,,,,,,,,,,,,,,,,,,,,,,,,,,,,,,,,,,,,,,,,,,,,,,,,,,,,,,,,,,,,,,,,,,,,,,,,,,,,,,,,,,,,,,,,,,,,,,,,,,,,,,,,,,,,,,,,,,,,,,,,,,,,,,,,,,,,,,,,,,,,,,,,,
,,,,,,61000423f045809db30f8a5b,62c538da2ab3e642b99fa9d1,2022-07-06_09h25.43.310,Colour_Asymmetry_Pilot,2022.1.3,Win32,59.21013678,62c50e9c1127f2cd403a315f,0,119,119,13,1,threefour,,,,,,,,,,,,,,,,,,,,,,,,,,,,,,,,,,,,,,,,,,,,,,,,,,,,,,,,,,,,,,,,,,,,,,,,,,,,,,,,,,,,,,,,,,,,,,,,,,,,,,,,,,,,,,,,,,,,,,,,,,,,,,,,,,,,,,,,,,,,,,,,,,,,,,,,,,,,
,,,,,,61000423f045809db30f8a5b,62c538da2ab3e642b99fa9d1,2022-07-06_09h25.43.310,Colour_Asymmetry_Pilot,2022.1.3,Win32,59.21013678,62c50e9c1127f2cd403a315f,0,120,120,107,1,twofour,,,,,,,,,,,,,,,,,,,,,,,,,,,,,,,,,,,,,,,,,,,,,,,,,,,,,,,,,,,,,,,,,,,,,,,,,,,,,,,,,,,,,,,,,,,,,,,,,,,,,,,,,,,,,,,,,,,,,,,,,,,,,,,,,,,,,,,,,,,,,,,,,,,,,,,,,,,,
,,,,,,61000423f045809db30f8a5b,62c538da2ab3e642b99fa9d1,2022-07-06_09h25.43.310,Colour_Asymmetry_Pilot,2022.1.3,Win32,59.21013678,62c50e9c1127f2cd403a315f,0,121,121,148,1,threeone,,,,,,,,,,,,,,,,,,,,,,,,,,,,,,,,,,,,,,,,,,,,,,,,,,,,,,,,,,,,,,,,,,,,,,,,,,,,,,,,,,,,,,,,,,,,,,,,,,,,,,,,,,,,,,,,,,,,,,,,,,,,,,,,,,,,,,,,,,,,,,,,,,,,,,,,,,,,
,,,,,,61000423f045809db30f8a5b,62c538da2ab3e642b99fa9d1,2022-07-06_09h25.43.310,Colour_Asymmetry_Pilot,2022.1.3,Win32,59.21013678,62c50e9c1127f2cd403a315f,0,122,122,145,1,onethree,,,,,,,,,,,,,,,,,,,,,,,,,,,,,,,,,,,,,,,,,,,,,,,,,,,,,,,,,,,,,,,,,,,,,,,,,,,,,,,,,,,,,,,,,,,,,,,,,,,,,,,,,,,,,,,,,,,,,,,,,,,,,,,,,,,,,,,,,,,,,,,,,,,,,,,,,,,,
,,,,,,61000423f045809db30f8a5b,62c538da2ab3e642b99fa9d1,2022-07-06_09h25.43.310,Colour_Asymmetry_Pilot,2022.1.3,Win32,59.21013678,62c50e9c1127f2cd403a315f,0,123,123,58,1,twoone,,,,,,,,,,,,,,,,,,,,,,,,,,,,,,,,,,,,,,,,,,,,,,,,,,,,,,,,,,,,,,,,,,,,,,,,,,,,,,,,,,,,,,,,,,,,,,,,,,,,,,,,,,,,,,,,,,,,,,,,,,,,,,,,,,,,,,,,,,,,,,,,,,,,,,,,,,,,
,,,,,,61000423f045809db30f8a5b,62c538da2ab3e642b99fa9d1,2022-07-06_09h25.43.310,Colour_Asymmetry_Pilot,2022.1.3,Win32,59.21013678,62c50e9c1127f2cd403a315f,0,124,124,57,1,onethree,,,,,,,,,,,,,,,,,,,,,,,,,,,,,,,,,,,,,,,,,,,,,,,,,,,,,,,,,,,,,,,,,,,,,,,,,,,,,,,,,,,,,,,,,,,,,,,,,,,,,,,,,,,,,,,,,,,,,,,,,,,,,,,,,,,,,,,,,,,,,,,,,,,,,,,,,,,,
,,,,,,61000423f045809db30f8a5b,62c538da2ab3e642b99fa9d1,2022-07-06_09h25.43.310,Colour_Asymmetry_Pilot,2022.1.3,Win32,59.21013678,62c50e9c1127f2cd403a315f,0,125,125,16,1,onetwo,,,,,,,,,,,,,,,,,,,,,,,,,,,,,,,,,,,,,,,,,,,,,,,,,,,,,,,,,,,,,,,,,,,,,,,,,,,,,,,,,,,,,,,,,,,,,,,,,,,,,,,,,,,,,,,,,,,,,,,,,,,,,,,,,,,,,,,,,,,,,,,,,,,,,,,,,,,,
,,,,,,61000423f045809db30f8a5b,62c538da2ab3e642b99fa9d1,2022-07-06_09h25.43.310,Colour_Asymmetry_Pilot,2022.1.3,Win32,59.21013678,62c50e9c1127f2cd403a315f,0,126,126,108,1,threeone,,,,,,,,,,,,,,,,,,,,,,,,,,,,,,,,,,,,,,,,,,,,,,,,,,,,,,,,,,,,,,,,,,,,,,,,,,,,,,,,,,,,,,,,,,,,,,,,,,,,,,,,,,,,,,,,,,,,,,,,,,,,,,,,,,,,,,,,,,,,,,,,,,,,,,,,,,,,
,,,,,,61000423f045809db30f8a5b,62c538da2ab3e642b99fa9d1,2022-07-06_09h25.43.310,Colour_Asymmetry_Pilot,2022.1.3,Win32,59.21013678,62c50e9c1127f2cd403a315f,0,127,127,52,1,threeone,,,,,,,,,,,,,,,,,,,,,,,,,,,,,,,,,,,,,,,,,,,,,,,,,,,,,,,,,,,,,,,,,,,,,,,,,,,,,,,,,,,,,,,,,,,,,,,,,,,,,,,,,,,,,,,,,,,,,,,,,,,,,,,,,,,,,,,,,,,,,,,,,,,,,,,,,,,,
,,,,,,61000423f045809db30f8a5b,62c538da2ab3e642b99fa9d1,2022-07-06_09h25.43.310,Colour_Asymmetry_Pilot,2022.1.3,Win32,59.21013678,62c50e9c1127f2cd403a315f,0,128,128,44,1,threeone,,,,,,,,,,,,,,,,,,,,,,,,,,,,,,,,,,,,,,,,,,,,,,,,,,,,,,,,,,,,,,,,,,,,,,,,,,,,,,,,,,,,,,,,,,,,,,,,,,,,,,,,,,,,,,,,,,,,,,,,,,,,,,,,,,,,,,,,,,,,,,,,,,,,,,,,,,,,
,,,,,,61000423f045809db30f8a5b,62c538da2ab3e642b99fa9d1,2022-07-06_09h25.43.310,Colour_Asymmetry_Pilot,2022.1.3,Win32,59.21013678,62c50e9c1127f2cd403a315f,0,129,129,103,1,fourthree,,,,,,,,,,,,,,,,,,,,,,,,,,,,,,,,,,,,,,,,,,,,,,,,,,,,,,,,,,,,,,,,,,,,,,,,,,,,,,,,,,,,,,,,,,,,,,,,,,,,,,,,,,,,,,,,,,,,,,,,,,,,,,,,,,,,,,,,,,,,,,,,,,,,,,,,,,,,
,,,,,,61000423f045809db30f8a5b,62c538da2ab3e642b99fa9d1,2022-07-06_09h25.43.310,Colour_Asymmetry_Pilot,2022.1.3,Win32,59.21013678,62c50e9c1127f2cd403a315f,0,130,130,128,1,onetwo,,,,,,,,,,,,,,,,,,,,,,,,,,,,,,,,,,,,,,,,,,,,,,,,,,,,,,,,,,,,,,,,,,,,,,,,,,,,,,,,,,,,,,,,,,,,,,,,,,,,,,,,,,,,,,,,,,,,,,,,,,,,,,,,,,,,,,,,,,,,,,,,,,,,,,,,,,,,
,,,,,,61000423f045809db30f8a5b,62c538da2ab3e642b99fa9d1,2022-07-06_09h25.43.310,Colour_Asymmetry_Pilot,2022.1.3,Win32,59.21013678,62c50e9c1127f2cd403a315f,0,131,131,25,1,onethree,,,,,,,,,,,,,,,,,,,,,,,,,,,,,,,,,,,,,,,,,,,,,,,,,,,,,,,,,,,,,,,,,,,,,,,,,,,,,,,,,,,,,,,,,,,,,,,,,,,,,,,,,,,,,,,,,,,,,,,,,,,,,,,,,,,,,,,,,,,,,,,,,,,,,,,,,,,,
,,,,,,61000423f045809db30f8a5b,62c538da2ab3e642b99fa9d1,2022-07-06_09h25.43.310,Colour_Asymmetry_Pilot,2022.1.3,Win32,59.21013678,62c50e9c1127f2cd403a315f,0,132,132,9,1,onethree,,,,,,,,,,,,,,,,,,,,,,,,,,,,,,,,,,,,,,,,,,,,,,,,,,,,,,,,,,,,,,,,,,,,,,,,,,,,,,,,,,,,,,,,,,,,,,,,,,,,,,,,,,,,,,,,,,,,,,,,,,,,,,,,,,,,,,,,,,,,,,,,,,,,,,,,,,,,
,,,,,,61000423f045809db30f8a5b,62c538da2ab3e642b99fa9d1,2022-07-06_09h25.43.310,Colour_Asymmetry_Pilot,2022.1.3,Win32,59.21013678,62c50e9c1127f2cd403a315f,0,133,133,61,1,threefour,,,,,,,,,,,,,,,,,,,,,,,,,,,,,,,,,,,,,,,,,,,,,,,,,,,,,,,,,,,,,,,,,,,,,,,,,,,,,,,,,,,,,,,,,,,,,,,,,,,,,,,,,,,,,,,,,,,,,,,,,,,,,,,,,,,,,,,,,,,,,,,,,,,,,,,,,,,,
,,,,,,61000423f045809db30f8a5b,62c538da2ab3e642b99fa9d1,2022-07-06_09h25.43.310,Colour_Asymmetry_Pilot,2022.1.3,Win32,59.21013678,62c50e9c1127f2cd403a315f,0,134,134,149,1,threefour,,,,,,,,,,,,,,,,,,,,,,,,,,,,,,,,,,,,,,,,,,,,,,,,,,,,,,,,,,,,,,,,,,,,,,,,,,,,,,,,,,,,,,,,,,,,,,,,,,,,,,,,,,,,,,,,,,,,,,,,,,,,,,,,,,,,,,,,,,,,,,,,,,,,,,,,,,,,
,,,,,,61000423f045809db30f8a5b,62c538da2ab3e642b99fa9d1,2022-07-06_09h25.43.310,Colour_Asymmetry_Pilot,2022.1.3,Win32,59.21013678,62c50e9c1127f2cd403a315f,0,135,135,64,1,onetwo,,,,,,,,,,,,,,,,,,,,,,,,,,,,,,,,,,,,,,,,,,,,,,,,,,,,,,,,,,,,,,,,,,,,,,,,,,,,,,,,,,,,,,,,,,,,,,,,,,,,,,,,,,,,,,,,,,,,,,,,,,,,,,,,,,,,,,,,,,,,,,,,,,,,,,,,,,,,
,,,,,,61000423f045809db30f8a5b,62c538da2ab3e642b99fa9d1,2022-07-06_09h25.43.310,Colour_Asymmetry_Pilot,2022.1.3,Win32,59.21013678,62c50e9c1127f2cd403a315f,0,136,136,27,1,twofour,,,,,,,,,,,,,,,,,,,,,,,,,,,,,,,,,,,,,,,,,,,,,,,,,,,,,,,,,,,,,,,,,,,,,,,,,,,,,,,,,,,,,,,,,,,,,,,,,,,,,,,,,,,,,,,,,,,,,,,,,,,,,,,,,,,,,,,,,,,,,,,,,,,,,,,,,,,,
,,,,,,61000423f045809db30f8a5b,62c538da2ab3e642b99fa9d1,2022-07-06_09h25.43.310,Colour_Asymmetry_Pilot,2022.1.3,Win32,59.21013678,62c50e9c1127f2cd403a315f,0,137,137,160,1,onetwo,,,,,,,,,,,,,,,,,,,,,,,,,,,,,,,,,,,,,,,,,,,,,,,,,,,,,,,,,,,,,,,,,,,,,,,,,,,,,,,,,,,,,,,,,,,,,,,,,,,,,,,,,,,,,,,,,,,,,,,,,,,,,,,,,,,,,,,,,,,,,,,,,,,,,,,,,,,,
,,,,,,61000423f045809db30f8a5b,62c538da2ab3e642b99fa9d1,2022-07-06_09h25.43.310,Colour_Asymmetry_Pilot,2022.1.3,Win32,59.21013678,62c50e9c1127f2cd403a315f,0,138,138,87,1,fourthree,,,,,,,,,,,,,,,,,,,,,,,,,,,,,,,,,,,,,,,,,,,,,,,,,,,,,,,,,,,,,,,,,,,,,,,,,,,,,,,,,,,,,,,,,,,,,,,,,,,,,,,,,,,,,,,,,,,,,,,,,,,,,,,,,,,,,,,,,,,,,,,,,,,,,,,,,,,,
,,,,,,61000423f045809db30f8a5b,62c538da2ab3e642b99fa9d1,2022-07-06_09h25.43.310,Colour_Asymmetry_Pilot,2022.1.3,Win32,59.21013678,62c50e9c1127f2cd403a315f,0,139,139,72,1,onetwo,,,,,,,,,,,,,,,,,,,,,,,,,,,,,,,,,,,,,,,,,,,,,,,,,,,,,,,,,,,,,,,,,,,,,,,,,,,,,,,,,,,,,,,,,,,,,,,,,,,,,,,,,,,,,,,,,,,,,,,,,,,,,,,,,,,,,,,,,,,,,,,,,,,,,,,,,,,,
,,,,,,61000423f045809db30f8a5b,62c538da2ab3e642b99fa9d1,2022-07-06_09h25.43.310,Colour_Asymmetry_Pilot,2022.1.3,Win32,59.21013678,62c50e9c1127f2cd403a315f,0,140,140,23,1,fourthree,,,,,,,,,,,,,,,,,,,,,,,,,,,,,,,,,,,,,,,,,,,,,,,,,,,,,,,,,,,,,,,,,,,,,,,,,,,,,,,,,,,,,,,,,,,,,,,,,,,,,,,,,,,,,,,,,,,,,,,,,,,,,,,,,,,,,,,,,,,,,,,,,,,,,,,,,,,,
,,,,,,61000423f045809db30f8a5b,62c538da2ab3e642b99fa9d1,2022-07-06_09h25.43.310,Colour_Asymmetry_Pilot,2022.1.3,Win32,59.21013678,62c50e9c1127f2cd403a315f,0,141,141,99,1,twofour,,,,,,,,,,,,,,,,,,,,,,,,,,,,,,,,,,,,,,,,,,,,,,,,,,,,,,,,,,,,,,,,,,,,,,,,,,,,,,,,,,,,,,,,,,,,,,,,,,,,,,,,,,,,,,,,,,,,,,,,,,,,,,,,,,,,,,,,,,,,,,,,,,,,,,,,,,,,
,,,,,,61000423f045809db30f8a5b,62c538da2ab3e642b99fa9d1,2022-07-06_09h25.43.310,Colour_Asymmetry_Pilot,2022.1.3,Win32,59.21013678,62c50e9c1127f2cd403a315f,0,142,142,24,1,onetwo,,,,,,,,,,,,,,,,,,,,,,,,,,,,,,,,,,,,,,,,,,,,,,,,,,,,,,,,,,,,,,,,,,,,,,,,,,,,,,,,,,,,,,,,,,,,,,,,,,,,,,,,,,,,,,,,,,,,,,,,,,,,,,,,,,,,,,,,,,,,,,,,,,,,,,,,,,,,
,,,,,,61000423f045809db30f8a5b,62c538da2ab3e642b99fa9d1,2022-07-06_09h25.43.310,Colour_Asymmetry_Pilot,2022.1.3,Win32,59.21013678,62c50e9c1127f2cd403a315f,0,143,143,42,1,twoone,,,,,,,,,,,,,,,,,,,,,,,,,,,,,,,,,,,,,,,,,,,,,,,,,,,,,,,,,,,,,,,,,,,,,,,,,,,,,,,,,,,,,,,,,,,,,,,,,,,,,,,,,,,,,,,,,,,,,,,,,,,,,,,,,,,,,,,,,,,,,,,,,,,,,,,,,,,,
,,,,,,61000423f045809db30f8a5b,62c538da2ab3e642b99fa9d1,2022-07-06_09h25.43.310,Colour_Asymmetry_Pilot,2022.1.3,Win32,59.21013678,62c50e9c1127f2cd403a315f,0,144,144,46,1,fourtwo,,,,,,,,,,,,,,,,,,,,,,,,,,,,,,,,,,,,,,,,,,,,,,,,,,,,,,,,,,,,,,,,,,,,,,,,,,,,,,,,,,,,,,,,,,,,,,,,,,,,,,,,,,,,,,,,,,,,,,,,,,,,,,,,,,,,,,,,,,,,,,,,,,,,,,,,,,,,
,,,,,,61000423f045809db30f8a5b,62c538da2ab3e642b99fa9d1,2022-07-06_09h25.43.310,Colour_Asymmetry_Pilot,2022.1.3,Win32,59.21013678,62c50e9c1127f2cd403a315f,0,145,145,63,1,fourthree,,,,,,,,,,,,,,,,,,,,,,,,,,,,,,,,,,,,,,,,,,,,,,,,,,,,,,,,,,,,,,,,,,,,,,,,,,,,,,,,,,,,,,,,,,,,,,,,,,,,,,,,,,,,,,,,,,,,,,,,,,,,,,,,,,,,,,,,,,,,,,,,,,,,,,,,,,,,
,,,,,,61000423f045809db30f8a5b,62c538da2ab3e642b99fa9d1,2022-07-06_09h25.43.310,Colour_Asymmetry_Pilot,2022.1.3,Win32,59.21013678,62c50e9c1127f2cd403a315f,0,146,146,80,1,onetwo,,,,,,,,,,,,,,,,,,,,,,,,,,,,,,,,,,,,,,,,,,,,,,,,,,,,,,,,,,,,,,,,,,,,,,,,,,,,,,,,,,,,,,,,,,,,,,,,,,,,,,,,,,,,,,,,,,,,,,,,,,,,,,,,,,,,,,,,,,,,,,,,,,,,,,,,,,,,
,,,,,,61000423f045809db30f8a5b,62c538da2ab3e642b99fa9d1,2022-07-06_09h25.43.310,Colour_Asymmetry_Pilot,2022.1.3,Win32,59.21013678,62c50e9c1127f2cd403a315f,0,147,147,118,1,fourtwo,,,,,,,,,,,,,,,,,,,,,,,,,,,,,,,,,,,,,,,,,,,,,,,,,,,,,,,,,,,,,,,,,,,,,,,,,,,,,,,,,,,,,,,,,,,,,,,,,,,,,,,,,,,,,,,,,,,,,,,,,,,,,,,,,,,,,,,,,,,,,,,,,,,,,,,,,,,,
,,,,,,61000423f045809db30f8a5b,62c538da2ab3e642b99fa9d1,2022-07-06_09h25.43.310,Colour_Asymmetry_Pilot,2022.1.3,Win32,59.21013678,62c50e9c1127f2cd403a315f,0,148,148,74,1,twoone,,,,,,,,,,,,,,,,,,,,,,,,,,,,,,,,,,,,,,,,,,,,,,,,,,,,,,,,,,,,,,,,,,,,,,,,,,,,,,,,,,,,,,,,,,,,,,,,,,,,,,,,,,,,,,,,,,,,,,,,,,,,,,,,,,,,,,,,,,,,,,,,,,,,,,,,,,,,
,,,,,,61000423f045809db30f8a5b,62c538da2ab3e642b99fa9d1,2022-07-06_09h25.43.310,Colour_Asymmetry_Pilot,2022.1.3,Win32,59.21013678,62c50e9c1127f2cd403a315f,0,149,149,138,1,twoone,,,,,,,,,,,,,,,,,,,,,,,,,,,,,,,,,,,,,,,,,,,,,,,,,,,,,,,,,,,,,,,,,,,,,,,,,,,,,,,,,,,,,,,,,,,,,,,,,,,,,,,,,,,,,,,,,,,,,,,,,,,,,,,,,,,,,,,,,,,,,,,,,,,,,,,,,,,,
,,,,,,61000423f045809db30f8a5b,62c538da2ab3e642b99fa9d1,2022-07-06_09h25.43.310,Colour_Asymmetry_Pilot,2022.1.3,Win32,59.21013678,62c50e9c1127f2cd403a315f,0,150,150,104,1,onetwo,,,,,,,,,,,,,,,,,,,,,,,,,,,,,,,,,,,,,,,,,,,,,,,,,,,,,,,,,,,,,,,,,,,,,,,,,,,,,,,,,,,,,,,,,,,,,,,,,,,,,,,,,,,,,,,,,,,,,,,,,,,,,,,,,,,,,,,,,,,,,,,,,,,,,,,,,,,,
,,,,,,61000423f045809db30f8a5b,62c538da2ab3e642b99fa9d1,2022-07-06_09h25.43.310,Colour_Asymmetry_Pilot,2022.1.3,Win32,59.21013678,62c50e9c1127f2cd403a315f,0,151,151,122,1,twoone,,,,,,,,,,,,,,,,,,,,,,,,,,,,,,,,,,,,,,,,,,,,,,,,,,,,,,,,,,,,,,,,,,,,,,,,,,,,,,,,,,,,,,,,,,,,,,,,,,,,,,,,,,,,,,,,,,,,,,,,,,,,,,,,,,,,,,,,,,,,,,,,,,,,,,,,,,,,
,,,,,,61000423f045809db30f8a5b,62c538da2ab3e642b99fa9d1,2022-07-06_09h25.43.310,Colour_Asymmetry_Pilot,2022.1.3,Win32,59.21013678,62c50e9c1127f2cd403a315f,0,152,152,36,1,threeone,,,,,,,,,,,,,,,,,,,,,,,,,,,,,,,,,,,,,,,,,,,,,,,,,,,,,,,,,,,,,,,,,,,,,,,,,,,,,,,,,,,,,,,,,,,,,,,,,,,,,,,,,,,,,,,,,,,,,,,,,,,,,,,,,,,,,,,,,,,,,,,,,,,,,,,,,,,,
,,,,,,61000423f045809db30f8a5b,62c538da2ab3e642b99fa9d1,2022-07-06_09h25.43.310,Colour_Asymmetry_Pilot,2022.1.3,Win32,59.21013678,62c50e9c1127f2cd403a315f,0,153,153,39,1,fourthree,,,,,,,,,,,,,,,,,,,,,,,,,,,,,,,,,,,,,,,,,,,,,,,,,,,,,,,,,,,,,,,,,,,,,,,,,,,,,,,,,,,,,,,,,,,,,,,,,,,,,,,,,,,,,,,,,,,,,,,,,,,,,,,,,,,,,,,,,,,,,,,,,,,,,,,,,,,,
,,,,,,61000423f045809db30f8a5b,62c538da2ab3e642b99fa9d1,2022-07-06_09h25.43.310,Colour_Asymmetry_Pilot,2022.1.3,Win32,59.21013678,62c50e9c1127f2cd403a315f,0,154,154,51,1,twofour,,,,,,,,,,,,,,,,,,,,,,,,,,,,,,,,,,,,,,,,,,,,,,,,,,,,,,,,,,,,,,,,,,,,,,,,,,,,,,,,,,,,,,,,,,,,,,,,,,,,,,,,,,,,,,,,,,,,,,,,,,,,,,,,,,,,,,,,,,,,,,,,,,,,,,,,,,,,
,,,,,,61000423f045809db30f8a5b,62c538da2ab3e642b99fa9d1,2022-07-06_09h25.43.310,Colour_Asymmetry_Pilot,2022.1.3,Win32,59.21013678,62c50e9c1127f2cd403a315f,0,155,155,121,1,onethree,,,,,,,,,,,,,,,,,,,,,,,,,,,,,,,,,,,,,,,,,,,,,,,,,,,,,,,,,,,,,,,,,,,,,,,,,,,,,,,,,,,,,,,,,,,,,,,,,,,,,,,,,,,,,,,,,,,,,,,,,,,,,,,,,,,,,,,,,,,,,,,,,,,,,,,,,,,,
,,,,,,61000423f045809db30f8a5b,62c538da2ab3e642b99fa9d1,2022-07-06_09h25.43.310,Colour_Asymmetry_Pilot,2022.1.3,Win32,59.21013678,62c50e9c1127f2cd403a315f,0,156,156,100,1,threeone,,,,,,,,,,,,,,,,,,,,,,,,,,,,,,,,,,,,,,,,,,,,,,,,,,,,,,,,,,,,,,,,,,,,,,,,,,,,,,,,,,,,,,,,,,,,,,,,,,,,,,,,,,,,,,,,,,,,,,,,,,,,,,,,,,,,,,,,,,,,,,,,,,,,,,,,,,,,
,,,,,,61000423f045809db30f8a5b,62c538da2ab3e642b99fa9d1,2022-07-06_09h25.43.310,Colour_Asymmetry_Pilot,2022.1.3,Win32,59.21013678,62c50e9c1127f2cd403a315f,0,157,157,98,1,twoone,,,,,,,,,,,,,,,,,,,,,,,,,,,,,,,,,,,,,,,,,,,,,,,,,,,,,,,,,,,,,,,,,,,,,,,,,,,,,,,,,,,,,,,,,,,,,,,,,,,,,,,,,,,,,,,,,,,,,,,,,,,,,,,,,,,,,,,,,,,,,,,,,,,,,,,,,,,,
,,,,,,61000423f045809db30f8a5b,62c538da2ab3e642b99fa9d1,2022-07-06_09h25.43.310,Colour_Asymmetry_Pilot,2022.1.3,Win32,59.21013678,62c50e9c1127f2cd403a315f,0,158,158,15,1,fourthree,,,,,,,,,,,,,,,,,,,,,,,,,,,,,,,,,,,,,,,,,,,,,,,,,,,,,,,,,,,,,,,,,,,,,,,,,,,,,,,,,,,,,,,,,,,,,,,,,,,,,,,,,,,,,,,,,,,,,,,,,,,,,,,,,,,,,,,,,,,,,,,,,,,,,,,,,,,,
,,,,,,61000423f045809db30f8a5b,62c538da2ab3e642b99fa9d1,2022-07-06_09h25.43.310,Colour_Asymmetry_Pilot,2022.1.3,Win32,59.21013678,62c50e9c1127f2cd403a315f,0,159,159,158,1,fourtwo,,,,,,,,,,,,,,,,,,,,,,,,,,,,,,,,,,,,,,,,,,,,,,,,,,,,,,,,,,,,,,,,,,,,,,,,,,,,,,,,,,,,,,,,,,,,,,,,,,,,,,,,,,,,,,,,,,,,,,,,,,,,,,,,,,,,,,,,,,,,,,,,,,,,,,,,,,,,
,,,,,,61000423f045809db30f8a5b,62c538da2ab3e642b99fa9d1,2022-07-06_09h25.43.310,Colour_Asymmetry_Pilot,2022.1.3,Win32,59.21013678,62c50e9c1127f2cd403a315f,0,160,160,54,1,fourtwo,,,,,,,,,,,,,,,,,,,,,,,,,,,,,,,,,,,,,,,,,,,,,,,,,,,,,,,,,,,,,,,,,,,,,,,,,,,,,,,,,,,,,,,,,,,,,,,,,,,,,,,,,,,,,,,,,,,,,,,,,,,,,,,,,,,,,,,,,,,,,,,,,,,,,,,,,,,,
,,,,,,61000423f045809db30f8a5b,62c538da2ab3e642b99fa9d1,2022-07-06_09h25.43.310,Colour_Asymmetry_Pilot,2022.1.3,Win32,59.21013678,62c50e9c1127f2cd403a315f,0,161,161,85,1,threefour,,,,,,,,,,,,,,,,,,,,,,,,,,,,,,,,,,,,,,,,,,,,,,,,,,,,,,,,,,,,,,,,,,,,,,,,,,,,,,,,,,,,,,,,,,,,,,,,,,,,,,,,,,,,,,,,,,,,,,,,,,,,,,,,,,,,,,,,,,,,,,,,,,,,,,,,,,,,
,,,,,,61000423f045809db30f8a5b,62c538da2ab3e642b99fa9d1,2022-07-06_09h25.43.310,Colour_Asymmetry_Pilot,2022.1.3,Win32,59.21013678,62c50e9c1127f2cd403a315f,,,,,,,space,2.2699,space,23.2814,space,469.4664,space,61.6103,space,2.6456,space,4.3696,"[-0.9688,-0.7412000000000001,-0.4902000000000001]",fourthree,"[-0.9688,-0.4902000000000001,-0.12159999999999993]",3,15.3672,71.33337402,32,1,0,0,response1disk_5,6.666687012,5.333312988,1,0,0,rectangle_8,6.666687012,5.333312988,1,0,0,2,6.666687012,5.333312988,1,0,0,0,0,0,0,1,,,,,,,,,,,,,,,,,,,,,,,,,,,,,,,,,,,,,,,,,,,,,,,,,,,,,,,,,,,,,,,,,,,,,,,,,,,,,,,,,,,,,,,,,,,,,,,,,,,,,,,,,,,,,,,
,,,,,,61000423f045809db30f8a5b,62c538da2ab3e642b99fa9d1,2022-07-06_09h25.43.310,Colour_Asymmetry_Pilot,2022.1.3,Win32,59.21013678,62c50e9c1127f2cd403a315f,,,,,,,,,,,,,,,,,,,"[0.7802,-0.23140000000000005,-0.20799999999999996]",threeone,"[0.34099999999999997,0.5841999999999998,-0.9844]",-4,4.6003,-28,68.66665649,1,0,0,response7disk_5,-30,12.66665649,1,0,0,rectangle_8,-30,12.66665649,1,0,0,2,-30,12.66665649,1,0,0,1,0,1,0,1,,,,,,,,,,,,,,,,,,,,,,,,,,,,,,,,,,,,,,,,,,,,,,,,,,,,,,,,,,,,,,,,,,,,,,,,,,,,,,,,,,,,,,,,,,,,,,,,,,,,,,,,,,,,,,,
,,,,,,61000423f045809db30f8a5b,62c538da2ab3e642b99fa9d1,2022-07-06_09h25.43.310,Colour_Asymmetry_Pilot,2022.1.3,Win32,59.21013678,62c50e9c1127f2cd403a315f,,,,,,,,,,,,,,,,,,,"[0.8274000000000001,-0.5844,-0.9452]",threefour,"[0.796,0.2156,-0.27859999999999996]",-2,5.8834,-96.66662598,-40,1,0,0,response5disk_5,-0.666625977,4.666656494,1,0,0,rectangle_8,44.66668701,-40,1,0,0,2,-28,-5.333343506,1,0,0,2,0,2,0,1,response3disk_7,5,rectangle_4,,,,,,,,,,,,,,,,,,,,,,,,,,,,,,,,,,,,,,,,,,,,,,,,,,,,,,,,,,,,,,,,,,,,,,,,,,,,,,,,,,,,,,,,,,,,,,,,,,,,,,,,,,,,
,,,,,,61000423f045809db30f8a5b,62c538da2ab3e642b99fa9d1,2022-07-06_09h25.43.310,Colour_Asymmetry_Pilot,2022.1.3,Win32,59.21013678,62c50e9c1127f2cd403a315f,,,,,,,,,,,,,,,,,,,"[-0.17659999999999998,0.3253999999999999,0.19999999999999996]",twofour,"[-0.9688,-0.7412000000000001,-0.4902000000000001]",-4,2.2171,-39.33331299,83.33331299,1,0,0,response7disk_5,-6,3.333312988,1,0,0,rectangle_8,54,-28.66668701,1,0,0,2,-6.666625977,-0.666687012,1,0,0,3,0,3,0,1,response3disk_7,5,rectangle_4,,,,,,,,,,,,,,,,,,,,,,,,,,,,,,,,,,,,,,,,,,,,,,,,,,,,,,,,,,,,,,,,,,,,,,,,,,,,,,,,,,,,,,,,,,,,,,,,,,,,,,,,,,,,
,,,,,,61000423f045809db30f8a5b,62c538da2ab3e642b99fa9d1,2022-07-06_09h25.43.310,Colour_Asymmetry_Pilot,2022.1.3,Win32,59.21013678,62c50e9c1127f2cd403a315f,,,,,,,,,,,,,,,,,,,"[0.7018,0.7176,0.6155999999999999]",threefour,"[0.2862,0.7802,0.3568]",-4,1.9,-16,71.33331299,1,0,0,response7disk_5,-4.666625977,4,1,0,0,rectangle_8,-4.666625977,4,1,0,0,2,-4.666625977,4,1,0,0,4,0,4,0,1,,,,,,,,,,,,,,,,,,,,,,,,,,,,,,,,,,,,,,,,,,,,,,,,,,,,,,,,,,,,,,,,,,,,,,,,,,,,,,,,,,,,,,,,,,,,,,,,,,,,,,,,,,,,,,,
,,,,,,61000423f045809db30f8a5b,62c538da2ab3e642b99fa9d1,2022-07-06_09h25.43.310,Colour_Asymmetry_Pilot,2022.1.3,Win32,59.21013678,62c50e9c1127f2cd403a315f,,,,,,,,,,,,,,,,,,,"[-0.6235999999999999,-0.6786,-0.08239999999999992]",threeone,"[-0.4982,-0.2942,-0.0354000000000001]",2,6.3502,94.66668701,-61.33334351,1,0,0,response3disk_5,-17.33331299,-2.666687012,1,0,0,rectangle_8,-17.33331299,-2.666687012,1,0,0,2,-17.33331299,-2.666687012,1,0,0,5,0,5,0,1,,,,,,,,,,,,,,,,,,,,,,,,,,,,,,,,,,,,,,,,,,,,,,,,,,,,,,,,,,,,,,,,,,,,,,,,,,,,,,,,,,,,,,,,,,,,,,,,,,,,,,,,,,,,,,,
,,,,,,61000423f045809db30f8a5b,62c538da2ab3e642b99fa9d1,2022-07-06_09h25.43.310,Colour_Asymmetry_Pilot,2022.1.3,Win32,59.21013678,62c50e9c1127f2cd403a315f,,,,,,,,,,,,,,,,,,,"[-0.8198,-0.5138,-0.7492000000000001]",fourtwo,"[-0.20799999999999996,-0.655,-0.01980000000000004]",-4,1.4189,-23.33331299,76.66665649,1,0,0,response7disk_5,-2.666625977,2,1,0,0,rectangle_8,-2.666625977,2,1,0,0,2,-2.666625977,2,1,0,0,6,0,6,0,1,,,,,,,,,,,,,,,,,,,,,,,,,,,,,,,,,,,,,,,,,,,,,,,,,,,,,,,,,,,,,,,,,,,,,,,,,,,,,,,,,,,,,,,,,,,,,,,,,,,,,,,,,,,,,,,
,,,,,,61000423f045809db30f8a5b,62c538da2ab3e642b99fa9d1,2022-07-06_09h25.43.310,Colour_Asymmetry_Pilot,2022.1.3,Win32,59.21013678,62c50e9c1127f2cd403a315f,,,,,,,,,,,,,,,,,,,,onetwo,,2,2.9999,,,,,,,,,,,,,,,,,,,,,,,,,,,,,,,,space,4.4615,"[0.9213999999999998,0.6391999999999998,-0.9922]","[0.34099999999999997,0.5841999999999998,-0.9844]",74.66668701,-33.33334351,1,0,0,response3disk,3.333374023,-0.666687012,1,0,0,rectangle,3.333374023,-0.666687012,1,0,0,,1,0.0012,0,3.333374023,-0.666687012,1,0,0,0,0,0,123,1,42,second,,,,,,,,,,,,,,,,,,,,,,,,,,,,,,,,,,,,,,,,,,,,,,,,,,,,,,,,,,,,,,,,,,,,,,,
,,,,,,61000423f045809db30f8a5b,62c538da2ab3e642b99fa9d1,2022-07-06_09h25.43.310,Colour_Asymmetry_Pilot,2022.1.3,Win32,59.21013678,62c50e9c1127f2cd403a315f,,,,,,,,,,,,,,,,,,,,onethree,,-4,1.0664,,,,,,,,,,,,,,,,,,,,,,,,,,,,,,,,,,"[0.3881999999999999,-0.23939999999999995,-0.05040000000000011]","[0.34099999999999997,0.12939999999999996,-0.9766]",-33.33331299,68.66665649,1,0,0,response7disk,-14.66662598,-2,1,0,0,rectangle,-14.66662598,-2,1,0,0,,1,0.0003,0,-14.66662598,-2,1,0,0,0,1,1,81,1,0,second,,,,,,,,,,,,,,,,,,,,,,,,,,,,,,,,,,,,,,,,,,,,,,,,,,,,,,,,,,,,,,,,,,,,,,,
,,,,,,61000423f045809db30f8a5b,62c538da2ab3e642b99fa9d1,2022-07-06_09h25.43.310,Colour_Asymmetry_Pilot,2022.1.3,Win32,59.21013678,62c50e9c1127f2cd403a315f,,,,,,,,,,,,,,,,,,,,fourtwo,,-4,0.9003,,,,,,,,,,,,,,,,,,,,,,,,,,,,,,,,,,"[-0.26280000000000003,-0.4746,-0.2158]","[-0.2942,-0.7648,-0.7492000000000001]",-32.66662598,74,1,0,0,response7disk,-18.66662598,0,1,0,0,rectangle,30.66668701,-85.33334351,1,0,0,1,1,4.2849,1,-12,4,1,0,0,0,2,2,55,1,55,first,response3disk_3,rectangle,,,,,,,,,,,,,,,,,,,,,,,,,,,,,,,,,,,,,,,,,,,,,,,,,,,,,,,,,,,,,,,,,,,,,
,,,,,,61000423f045809db30f8a5b,62c538da2ab3e642b99fa9d1,2022-07-06_09h25.43.310,Colour_Asymmetry_Pilot,2022.1.3,Win32,59.21013678,62c50e9c1127f2cd403a315f,,,,,,,,,,,,,,,,,,,,fourtwo,,-4,1.1836,,,,,,,,,,,,,,,,,,,,,,,,,,,,,,,,,,"[0.6625999999999999,0.4980000000000002,-0.357]","[0.8115999999999999,-0.0040000000000000036,-0.09819999999999995]",-31.33331299,59.33331299,1,0,0,response7disk,-15.33331299,-4.666687012,1,0,0,rectangle,-15.33331299,-4.666687012,1,0,0,1,3,0.0007,0,-15.33331299,-4.666687012,1,0,0,0,3,3,17,1,17,first,,,,,,,,,,,,,,,,,,,,,,,,,,,,,,,,,,,,,,,,,,,,,,,,,,,,,,,,,,,,,,,,,,,,,,,
,,,,,,61000423f045809db30f8a5b,62c538da2ab3e642b99fa9d1,2022-07-06_09h25.43.310,Colour_Asymmetry_Pilot,2022.1.3,Win32,59.21013678,62c50e9c1127f2cd403a315f,,,,,,,,,,,,,,,,,,,,threefour,,-4,0.883,,,,,,,,,,,,,,,,,,,,,,,,,,,,,,,,,,"[-0.06680000000000008,-0.45100000000000007,-0.906]","[0.9686000000000001,0.5763999999999998,0.11359999999999992]",-30,60,1,0,0,response7disk,-8,1.333312988,1,0,0,rectangle,-8,1.333312988,1,0,0,1,3,0.0001,0,-8,1.333312988,1,0,0,0,4,4,40,1,40,first,,,,,,,,,,,,,,,,,,,,,,,,,,,,,,,,,,,,,,,,,,,,,,,,,,,,,,,,,,,,,,,,,,,,,,,
,,,,,,61000423f045809db30f8a5b,62c538da2ab3e642b99fa9d1,2022-07-06_09h25.43.310,Colour_Asymmetry_Pilot,2022.1.3,Win32,59.21013678,62c50e9c1127f2cd403a315f,,,,,,,,,,,,,,,,,,,,twofour,,-4,0.6332,,,,,,,,,,,,,,,,,,,,,,,,,,,,,,,,,,"[0.9372,0.20779999999999998,0.2704]","[-0.8982,-0.37259999999999993,0.2784]",-26.66662598,47.33331299,1,0,0,response7disk,-13.33331299,3.333312988,1,0,0,rectangle,-13.33331299,3.333312988,1,0,0,1,3,0.0002,0,-13.33331299,3.333312988,1,0,0,0,5,5,33,1,33,first,,,,,,,,,,,,,,,,,,,,,,,,,,,,,,,,,,,,,,,,,,,,,,,,,,,,,,,,,,,,,,,,,,,,,,,
,,,,,,61000423f045809db30f8a5b,62c538da2ab3e642b99fa9d1,2022-07-06_09h25.43.310,Colour_Asymmetry_Pilot,2022.1.3,Win32,59.21013678,62c50e9c1127f2cd403a315f,,,,,,,,,,,,,,,,,,,,fourthree,,-4,0.65,,,,,,,,,,,,,,,,,,,,,,,,,,,,,,,,,,"[0.9213999999999998,0.6391999999999998,-0.9922]","[0.7646000000000002,0.07440000000000002,0.2704]",-26,68.66665649,1,0,0,response7disk,-16,-0.666687012,1,0,0,rectangle,-16,-0.666687012,1,0,0,1,3,0.0002,0,-16,-0.666687012,1,0,0,0,6,6,99,1,18,second,,,,,,,,,,,,,,,,,,,,,,,,,,,,,,,,,,,,,,,,,,,,,,,,,,,,,,,,,,,,,,,,,,,,,,,
,,,,,,61000423f045809db30f8a5b,62c538da2ab3e642b99fa9d1,2022-07-06_09h25.43.310,Colour_Asymmetry_Pilot,2022.1.3,Win32,59.21013678,62c50e9c1127f2cd403a315f,,,,,,,,,,,,,,,,,,,,fourtwo,,-4,2.517,,,,,,,,,,,,,,,,,,,,,,,,,,,,,,,,,,"[-0.050999999999999934,-0.6706000000000001,-0.804]","[0.9763999999999999,0.8588,-0.05900000000000005]",-26.66662598,53.33331299,1,0,0,response7disk,-10,0,1,0,0,rectangle,-10,0,1,0,0,1,2,0.001,0,-10,0,1,0,0,0,7,7,144,1,63,second,,,,,,,,,,,,,,,,,,,,,,,,,,,,,,,,,,,,,,,,,,,,,,,,,,,,,,,,,,,,,,,,,,,,,,,
,,,,,,61000423f045809db30f8a5b,62c538da2ab3e642b99fa9d1,2022-07-06_09h25.43.310,Colour_Asymmetry_Pilot,2022.1.3,Win32,59.21013678,62c50e9c1127f2cd403a315f,,,,,,,,,,,,,,,,,,,,threeone,,-4,0.6831,,,,,,,,,,,,,,,,,,,,,,,,,,,,,,,,,,"[0.34099999999999997,0.12939999999999996,-0.9766]","[0.3881999999999999,-0.23939999999999995,-0.05040000000000011]",-26,48.66665649,1,0,0,response7disk,-16,4.666656494,1,0,0,rectangle,-16,4.666656494,1,0,0,1,2,0.0001,0,-16,4.666656494,1,0,0,0,8,8,0,1,0,first,,,,,,,,,,,,,,,,,,,,,,,,,,,,,,,,,,,,,,,,,,,,,,,,,,,,,,,,,,,,,,,,,,,,,,,
,,,,,,61000423f045809db30f8a5b,62c538da2ab3e642b99fa9d1,2022-07-06_09h25.43.310,Colour_Asymmetry_Pilot,2022.1.3,Win32,59.21013678,62c50e9c1127f2cd403a315f,,,,,,,,,,,,,,,,,,,,fourthree,,-4,0.6335,,,,,,,,,,,,,,,,,,,,,,,,,,,,,,,,,,"[-0.9766,-0.34920000000000007,0.2156]","[-0.7412000000000001,-0.08239999999999992,-0.6864]",-19.33331299,41.33331299,1,0,0,response7disk,-14,8.666656494,1,0,0,rectangle,-14,8.666656494,1,0,0,1,2,0.001,0,-14,8.666656494,1,0,0,0,9,9,142,1,61,second,,,,,,,,,,,,,,,,,,,,,,,,,,,,,,,,,,,,,,,,,,,,,,,,,,,,,,,,,,,,,,,,,,,,,,,
,,,,,,61000423f045809db30f8a5b,62c538da2ab3e642b99fa9d1,2022-07-06_09h25.43.310,Colour_Asymmetry_Pilot,2022.1.3,Win32,59.21013678,62c50e9c1127f2cd403a315f,,,,,,,,,,,,,,,,,,,,fourtwo,,-4,0.5995,,,,,,,,,,,,,,,,,,,,,,,,,,,,,,,,,,"[0.22340000000000004,-0.9296,-0.7884]","[0.6625999999999999,0.4980000000000002,-0.357]",-19.33331299,43.33331299,1,0,0,response7disk,-10.66662598,-1.333343506,1,0,0,rectangle,56,-35.33334351,1,0,0,2,2,2.8506,1,8.666687012,1.333312988,1,0,0,0,10,10,97,1,16,second,response3disk_3,rectangle,,,,,,,,,,,,,,,,,,,,,,,,,,,,,,,,,,,,,,,,,,,,,,,,,,,,,,,,,,,,,,,,,,,,,
,,,,,,61000423f045809db30f8a5b,62c538da2ab3e642b99fa9d1,2022-07-06_09h25.43.310,Colour_Asymmetry_Pilot,2022.1.3,Win32,59.21013678,62c50e9c1127f2cd403a315f,,,,,,,,,,,,,,,,,,,,threeone,,3,3.0163,,,,,,,,,,,,,,,,,,,,,,,,,,,,,,,,,,"[-0.0040000000000000036,0.02739999999999987,-0.08239999999999992]","[0.04299999999999993,0.16060000000000008,-0.6628000000000001]",86.66668701,28,1,0,0,response1disk,12.66668701,-2,1,0,0,rectangle,12.66668701,-2,1,0,0,2,2,0,0,12.66668701,-2,1,0,0,0,11,11,80,1,80,first,,,,,,,,,,,,,,,,,,,,,,,,,,,,,,,,,,,,,,,,,,,,,,,,,,,,,,,,,,,,,,,,,,,,,,,
,,,,,,61000423f045809db30f8a5b,62c538da2ab3e642b99fa9d1,2022-07-06_09h25.43.310,Colour_Asymmetry_Pilot,2022.1.3,Win32,59.21013678,62c50e9c1127f2cd403a315f,,,,,,,,,,,,,,,,,,,,twoone,,-4,0.6666,,,,,,,,,,,,,,,,,,,,,,,,,,,,,,,,,,"[0.19199999999999995,0.18419999999999992,0.5136000000000001]","[0.2862,0.7802,0.3568]",-38.66662598,58,1,0,0,response7disk,-10,-2.666687012,1,0,0,rectangle,-10,-2.666687012,1,0,0,2,3,0.0006,0,-10,-2.666687012,1,0,0,0,12,12,48,1,48,first,,,,,,,,,,,,,,,,,,,,,,,,,,,,,,,,,,,,,,,,,,,,,,,,,,,,,,,,,,,,,,,,,,,,,,,
,,,,,,61000423f045809db30f8a5b,62c538da2ab3e642b99fa9d1,2022-07-06_09h25.43.310,Colour_Asymmetry_Pilot,2022.1.3,Win32,59.21013678,62c50e9c1127f2cd403a315f,,,,,,,,,,,,,,,,,,,,threefour,,-4,0.5999,,,,,,,,,,,,,,,,,,,,,,,,,,,,,,,,,,"[0.2784,-0.31000000000000005,-0.5452]","[-0.07459999999999989,0.12139999999999995,-0.9922]",-24,58.66665649,1,0,0,response7disk,-8.666625977,-7.333343506,1,0,0,rectangle,-8.666625977,-7.333343506,1,0,0,2,3,0.0001,0,-8.666625977,-7.333343506,1,0,0,0,13,13,108,1,27,second,,,,,,,,,,,,,,,,,,,,,,,,,,,,,,,,,,,,,,,,,,,,,,,,,,,,,,,,,,,,,,,,,,,,,,,
,,,,,,61000423f045809db30f8a5b,62c538da2ab3e642b99fa9d1,2022-07-06_09h25.43.310,Colour_Asymmetry_Pilot,2022.1.3,Win32,59.21013678,62c50e9c1127f2cd403a315f,,,,,,,,,,,,,,,,,,,,fourthree,,-4,0.5336,,,,,,,,,,,,,,,,,,,,,,,,,,,,,,,,,,"[-0.20799999999999996,-0.655,-0.01980000000000004]","[0.7018,0.7802,-0.16079999999999994]",-20.66662598,49.33331299,1,0,0,response7disk,-12.66662598,0.666656494,1,0,0,rectangle,-12.66662598,0.666656494,1,0,0,2,2,0.0009,0,-12.66662598,0.666656494,1,0,0,0,14,14,66,1,66,first,,,,,,,,,,,,,,,,,,,,,,,,,,,,,,,,,,,,,,,,,,,,,,,,,,,,,,,,,,,,,,,,,,,,,,,
,,,,,,61000423f045809db30f8a5b,62c538da2ab3e642b99fa9d1,2022-07-06_09h25.43.310,Colour_Asymmetry_Pilot,2022.1.3,Win32,59.21013678,62c50e9c1127f2cd403a315f,,,,,,,,,,,,,,,,,,,,fourtwo,,-3,0.7506,,,,,,,,,,,,,,,,,,,,,,,,,,,,,,,,,,"[0.2862,0.7802,0.3568]","[0.04299999999999993,0.16060000000000008,-0.6628000000000001]",-42.66662598,17.33331299,1,0,0,response7disk,-7.333312988,-6.666687012,1,0,0,rectangle,-7.333312988,-6.666687012,1,0,0,2,2,9.99999E-05,0,-7.333312988,-6.666687012,1,0,0,0,15,15,111,1,30,second,,,,,,,,,,,,,,,,,,,,,,,,,,,,,,,,,,,,,,,,,,,,,,,,,,,,,,,,,,,,,,,,,,,,,,,
