trials.thisRepN,trials.thisTrialN,trials.thisN,trials.thisIndex,trials.ran,Colourcodes,participant,session,date,expName,psychopyVersion,OS,frameRate,study_id,trials_4.thisRepN,trials_4.thisTrialN,trials_4.thisN,trials_4.thisIndex,trials_4.ran,StimulusPos,key_resp.keys,key_resp.rt,key_resp_2.keys,key_resp_2.rt,key_resp_15.keys,key_resp_15.rt,key_resp_17.keys,key_resp_17.rt,key_resp_9.keys,key_resp_9.rt,key_resp_10.keys,key_resp_10.rt,Circle1_col,Ecc,Circle2_col,similarity,response_time,mouse_5.x,mouse_5.y,mouse_5.leftButton,mouse_5.midButton,mouse_5.rightButton,mouse_5.clicked_name,mouse_10.x,mouse_10.y,mouse_10.leftButton,mouse_10.midButton,mouse_10.rightButton,mouse_10.clicked_name,mouse_7.x,mouse_7.y,mouse_7.leftButton,mouse_7.midButton,mouse_7.rightButton,catchnumberprac,mouse_6.x,mouse_6.y,mouse_6.leftButton,mouse_6.midButton,mouse_6.rightButton,duringprac.thisRepN,duringprac.thisTrialN,duringprac.thisN,duringprac.thisIndex,duringprac.ran,catchprac,mouse_7.clicked_name,mouse_6.clicked_name,key_resp_22.keys,key_resp_22.rt,Circle1_colour,Circle2_colour,mouse.x,mouse.y,mouse.leftButton,mouse.midButton,mouse.rightButton,mouse.clicked_name,mouse_2.x,mouse_2.y,mouse_2.leftButton,mouse_2.midButton,mouse_2.rightButton,mouse_2.clicked_name,mouse_3.x,mouse_3.y,mouse_3.leftButton,mouse_3.midButton,mouse_3.rightButton,catchresponse,catchnumber,response_time_catch,Catch,mouse_11.x,mouse_11.y,mouse_11.leftButton,mouse_11.midButton,mouse_11.rightButton,trials_2.thisRepN,trials_2.thisTrialN,trials_2.thisN,trials_2.thisIndex,trials_2.ran,Colourpair,Temporder,mouse_3.clicked_name,mouse_11.clicked_name,trials_3.thisRepN,trials_3.thisTrialN,trials_3.thisN,trials_3.thisIndex,trials_3.ran,key_resp_instr_Ishi.keys,key_resp_instr_Ishi.rt,Ishi_trial_keyresp.keys,Ishi_textbox.text,Ishi_mouse.x,Ishi_mouse.y,Ishi_mouse.leftButton,Ishi_mouse.midButton,Ishi_mouse.rightButton,Ishi_mouse.clicked_name,Ishi_loop.thisRepN,Ishi_loop.thisTrialN,Ishi_loop.thisN,Ishi_loop.thisIndex,Ishi_loop.ran,imageaddress,textbox.text,mouse_4.x,mouse_4.y,mouse_4.leftButton,mouse_4.midButton,mouse_4.rightButton,mouse_4.clicked_name,textbox_2.text,mouse_8.x,mouse_8.y,mouse_8.leftButton,mouse_8.midButton,mouse_8.rightButton,mouse_8.clicked_name,textbox_3.text,mouse_9.x,mouse_9.y,mouse_9.leftButton,mouse_9.midButton,mouse_9.rightButton,mouse_9.clicked_name,textbox_4.text,mouse_12.x,mouse_12.y,mouse_12.leftButton,mouse_12.midButton,mouse_12.rightButton,mouse_12.clicked_name,textbox_5.text,mouse_13.x,mouse_13.y,mouse_13.leftButton,mouse_13.midButton,mouse_13.rightButton,mouse_13.clicked_name,textbox_6.text,mouse_14.x,mouse_14.y,mouse_14.leftButton,mouse_14.midButton,mouse_14.rightButton,mouse_14.clicked_name,textbox_7.text,mouse_15.x,mouse_15.y,mouse_15.leftButton,mouse_15.midButton,mouse_15.rightButton,mouse_15.clicked_name
0,0,0,74,1,,60dc18e21694539ca0df125a,62c53aa518f098363fc36656,2022-07-06_09h34.23.341,Colour_Asymmetry_Pilot,2022.1.3,Win32,60.31363088,62c50e9c1127f2cd403a315f,,,,,,,,,,,,,,,,,,,,,,,,,,,,,,,,,,,,,,,,,,,,,,,,,,,,,,,,,,,,,,,,,,,,,,,,,,,,,,,,,,,,,,,,,,,,,,,,,,,,,,,,,,,,,,,,,,,,,,,,,,,,,,,,,,,,,,,,,,,,,,,,,,,,,,,,,,,,,,,,,,,
0,1,1,78,1,,60dc18e21694539ca0df125a,62c53aa518f098363fc36656,2022-07-06_09h34.23.341,Colour_Asymmetry_Pilot,2022.1.3,Win32,60.31363088,62c50e9c1127f2cd403a315f,,,,,,,,,,,,,,,,,,,,,,,,,,,,,,,,,,,,,,,,,,,,,,,,,,,,,,,,,,,,,,,,,,,,,,,,,,,,,,,,,,,,,,,,,,,,,,,,,,,,,,,,,,,,,,,,,,,,,,,,,,,,,,,,,,,,,,,,,,,,,,,,,,,,,,,,,,,,,,,,,,,
0,2,2,87,1,,60dc18e21694539ca0df125a,62c53aa518f098363fc36656,2022-07-06_09h34.23.341,Colour_Asymmetry_Pilot,2022.1.3,Win32,60.31363088,62c50e9c1127f2cd403a315f,,,,,,,,,,,,,,,,,,,,,,,,,,,,,,,,,,,,,,,,,,,,,,,,,,,,,,,,,,,,,,,,,,,,,,,,,,,,,,,,,,,,,,,,,,,,,,,,,,,,,,,,,,,,,,,,,,,,,,,,,,,,,,,,,,,,,,,,,,,,,,,,,,,,,,,,,,,,,,,,,,,
0,3,3,24,1,,60dc18e21694539ca0df125a,62c53aa518f098363fc36656,2022-07-06_09h34.23.341,Colour_Asymmetry_Pilot,2022.1.3,Win32,60.31363088,62c50e9c1127f2cd403a315f,,,,,,,,,,,,,,,,,,,,,,,,,,,,,,,,,,,,,,,,,,,,,,,,,,,,,,,,,,,,,,,,,,,,,,,,,,,,,,,,,,,,,,,,,,,,,,,,,,,,,,,,,,,,,,,,,,,,,,,,,,,,,,,,,,,,,,,,,,,,,,,,,,,,,,,,,,,,,,,,,,,
0,4,4,75,1,,60dc18e21694539ca0df125a,62c53aa518f098363fc36656,2022-07-06_09h34.23.341,Colour_Asymmetry_Pilot,2022.1.3,Win32,60.31363088,62c50e9c1127f2cd403a315f,,,,,,,,,,,,,,,,,,,,,,,,,,,,,,,,,,,,,,,,,,,,,,,,,,,,,,,,,,,,,,,,,,,,,,,,,,,,,,,,,,,,,,,,,,,,,,,,,,,,,,,,,,,,,,,,,,,,,,,,,,,,,,,,,,,,,,,,,,,,,,,,,,,,,,,,,,,,,,,,,,,
0,5,5,6,1,,60dc18e21694539ca0df125a,62c53aa518f098363fc36656,2022-07-06_09h34.23.341,Colour_Asymmetry_Pilot,2022.1.3,Win32,60.31363088,62c50e9c1127f2cd403a315f,,,,,,,,,,,,,,,,,,,,,,,,,,,,,,,,,,,,,,,,,,,,,,,,,,,,,,,,,,,,,,,,,,,,,,,,,,,,,,,,,,,,,,,,,,,,,,,,,,,,,,,,,,,,,,,,,,,,,,,,,,,,,,,,,,,,,,,,,,,,,,,,,,,,,,,,,,,,,,,,,,,
0,6,6,2,1,,60dc18e21694539ca0df125a,62c53aa518f098363fc36656,2022-07-06_09h34.23.341,Colour_Asymmetry_Pilot,2022.1.3,Win32,60.31363088,62c50e9c1127f2cd403a315f,,,,,,,,,,,,,,,,,,,,,,,,,,,,,,,,,,,,,,,,,,,,,,,,,,,,,,,,,,,,,,,,,,,,,,,,,,,,,,,,,,,,,,,,,,,,,,,,,,,,,,,,,,,,,,,,,,,,,,,,,,,,,,,,,,,,,,,,,,,,,,,,,,,,,,,,,,,,,,,,,,,
0,7,7,69,1,,60dc18e21694539ca0df125a,62c53aa518f098363fc36656,2022-07-06_09h34.23.341,Colour_Asymmetry_Pilot,2022.1.3,Win32,60.31363088,62c50e9c1127f2cd403a315f,,,,,,,,,,,,,,,,,,,,,,,,,,,,,,,,,,,,,,,,,,,,,,,,,,,,,,,,,,,,,,,,,,,,,,,,,,,,,,,,,,,,,,,,,,,,,,,,,,,,,,,,,,,,,,,,,,,,,,,,,,,,,,,,,,,,,,,,,,,,,,,,,,,,,,,,,,,,,,,,,,,
0,8,8,47,1,,60dc18e21694539ca0df125a,62c53aa518f098363fc36656,2022-07-06_09h34.23.341,Colour_Asymmetry_Pilot,2022.1.3,Win32,60.31363088,62c50e9c1127f2cd403a315f,,,,,,,,,,,,,,,,,,,,,,,,,,,,,,,,,,,,,,,,,,,,,,,,,,,,,,,,,,,,,,,,,,,,,,,,,,,,,,,,,,,,,,,,,,,,,,,,,,,,,,,,,,,,,,,,,,,,,,,,,,,,,,,,,,,,,,,,,,,,,,,,,,,,,,,,,,,,,,,,,,,
0,9,9,77,1,,60dc18e21694539ca0df125a,62c53aa518f098363fc36656,2022-07-06_09h34.23.341,Colour_Asymmetry_Pilot,2022.1.3,Win32,60.31363088,62c50e9c1127f2cd403a315f,,,,,,,,,,,,,,,,,,,,,,,,,,,,,,,,,,,,,,,,,,,,,,,,,,,,,,,,,,,,,,,,,,,,,,,,,,,,,,,,,,,,,,,,,,,,,,,,,,,,,,,,,,,,,,,,,,,,,,,,,,,,,,,,,,,,,,,,,,,,,,,,,,,,,,,,,,,,,,,,,,,
0,10,10,70,1,,60dc18e21694539ca0df125a,62c53aa518f098363fc36656,2022-07-06_09h34.23.341,Colour_Asymmetry_Pilot,2022.1.3,Win32,60.31363088,62c50e9c1127f2cd403a315f,,,,,,,,,,,,,,,,,,,,,,,,,,,,,,,,,,,,,,,,,,,,,,,,,,,,,,,,,,,,,,,,,,,,,,,,,,,,,,,,,,,,,,,,,,,,,,,,,,,,,,,,,,,,,,,,,,,,,,,,,,,,,,,,,,,,,,,,,,,,,,,,,,,,,,,,,,,,,,,,,,,
0,11,11,52,1,,60dc18e21694539ca0df125a,62c53aa518f098363fc36656,2022-07-06_09h34.23.341,Colour_Asymmetry_Pilot,2022.1.3,Win32,60.31363088,62c50e9c1127f2cd403a315f,,,,,,,,,,,,,,,,,,,,,,,,,,,,,,,,,,,,,,,,,,,,,,,,,,,,,,,,,,,,,,,,,,,,,,,,,,,,,,,,,,,,,,,,,,,,,,,,,,,,,,,,,,,,,,,,,,,,,,,,,,,,,,,,,,,,,,,,,,,,,,,,,,,,,,,,,,,,,,,,,,,
0,12,12,35,1,,60dc18e21694539ca0df125a,62c53aa518f098363fc36656,2022-07-06_09h34.23.341,Colour_Asymmetry_Pilot,2022.1.3,Win32,60.31363088,62c50e9c1127f2cd403a315f,,,,,,,,,,,,,,,,,,,,,,,,,,,,,,,,,,,,,,,,,,,,,,,,,,,,,,,,,,,,,,,,,,,,,,,,,,,,,,,,,,,,,,,,,,,,,,,,,,,,,,,,,,,,,,,,,,,,,,,,,,,,,,,,,,,,,,,,,,,,,,,,,,,,,,,,,,,,,,,,,,,
0,13,13,51,1,,60dc18e21694539ca0df125a,62c53aa518f098363fc36656,2022-07-06_09h34.23.341,Colour_Asymmetry_Pilot,2022.1.3,Win32,60.31363088,62c50e9c1127f2cd403a315f,,,,,,,,,,,,,,,,,,,,,,,,,,,,,,,,,,,,,,,,,,,,,,,,,,,,,,,,,,,,,,,,,,,,,,,,,,,,,,,,,,,,,,,,,,,,,,,,,,,,,,,,,,,,,,,,,,,,,,,,,,,,,,,,,,,,,,,,,,,,,,,,,,,,,,,,,,,,,,,,,,,
0,14,14,80,1,,60dc18e21694539ca0df125a,62c53aa518f098363fc36656,2022-07-06_09h34.23.341,Colour_Asymmetry_Pilot,2022.1.3,Win32,60.31363088,62c50e9c1127f2cd403a315f,,,,,,,,,,,,,,,,,,,,,,,,,,,,,,,,,,,,,,,,,,,,,,,,,,,,,,,,,,,,,,,,,,,,,,,,,,,,,,,,,,,,,,,,,,,,,,,,,,,,,,,,,,,,,,,,,,,,,,,,,,,,,,,,,,,,,,,,,,,,,,,,,,,,,,,,,,,,,,,,,,,
0,15,15,37,1,,60dc18e21694539ca0df125a,62c53aa518f098363fc36656,2022-07-06_09h34.23.341,Colour_Asymmetry_Pilot,2022.1.3,Win32,60.31363088,62c50e9c1127f2cd403a315f,,,,,,,,,,,,,,,,,,,,,,,,,,,,,,,,,,,,,,,,,,,,,,,,,,,,,,,,,,,,,,,,,,,,,,,,,,,,,,,,,,,,,,,,,,,,,,,,,,,,,,,,,,,,,,,,,,,,,,,,,,,,,,,,,,,,,,,,,,,,,,,,,,,,,,,,,,,,,,,,,,,
0,16,16,58,1,,60dc18e21694539ca0df125a,62c53aa518f098363fc36656,2022-07-06_09h34.23.341,Colour_Asymmetry_Pilot,2022.1.3,Win32,60.31363088,62c50e9c1127f2cd403a315f,,,,,,,,,,,,,,,,,,,,,,,,,,,,,,,,,,,,,,,,,,,,,,,,,,,,,,,,,,,,,,,,,,,,,,,,,,,,,,,,,,,,,,,,,,,,,,,,,,,,,,,,,,,,,,,,,,,,,,,,,,,,,,,,,,,,,,,,,,,,,,,,,,,,,,,,,,,,,,,,,,,
0,17,17,27,1,,60dc18e21694539ca0df125a,62c53aa518f098363fc36656,2022-07-06_09h34.23.341,Colour_Asymmetry_Pilot,2022.1.3,Win32,60.31363088,62c50e9c1127f2cd403a315f,,,,,,,,,,,,,,,,,,,,,,,,,,,,,,,,,,,,,,,,,,,,,,,,,,,,,,,,,,,,,,,,,,,,,,,,,,,,,,,,,,,,,,,,,,,,,,,,,,,,,,,,,,,,,,,,,,,,,,,,,,,,,,,,,,,,,,,,,,,,,,,,,,,,,,,,,,,,,,,,,,,
0,18,18,10,1,,60dc18e21694539ca0df125a,62c53aa518f098363fc36656,2022-07-06_09h34.23.341,Colour_Asymmetry_Pilot,2022.1.3,Win32,60.31363088,62c50e9c1127f2cd403a315f,,,,,,,,,,,,,,,,,,,,,,,,,,,,,,,,,,,,,,,,,,,,,,,,,,,,,,,,,,,,,,,,,,,,,,,,,,,,,,,,,,,,,,,,,,,,,,,,,,,,,,,,,,,,,,,,,,,,,,,,,,,,,,,,,,,,,,,,,,,,,,,,,,,,,,,,,,,,,,,,,,,
0,19,19,67,1,,60dc18e21694539ca0df125a,62c53aa518f098363fc36656,2022-07-06_09h34.23.341,Colour_Asymmetry_Pilot,2022.1.3,Win32,60.31363088,62c50e9c1127f2cd403a315f,,,,,,,,,,,,,,,,,,,,,,,,,,,,,,,,,,,,,,,,,,,,,,,,,,,,,,,,,,,,,,,,,,,,,,,,,,,,,,,,,,,,,,,,,,,,,,,,,,,,,,,,,,,,,,,,,,,,,,,,,,,,,,,,,,,,,,,,,,,,,,,,,,,,,,,,,,,,,,,,,,,
0,20,20,48,1,,60dc18e21694539ca0df125a,62c53aa518f098363fc36656,2022-07-06_09h34.23.341,Colour_Asymmetry_Pilot,2022.1.3,Win32,60.31363088,62c50e9c1127f2cd403a315f,,,,,,,,,,,,,,,,,,,,,,,,,,,,,,,,,,,,,,,,,,,,,,,,,,,,,,,,,,,,,,,,,,,,,,,,,,,,,,,,,,,,,,,,,,,,,,,,,,,,,,,,,,,,,,,,,,,,,,,,,,,,,,,,,,,,,,,,,,,,,,,,,,,,,,,,,,,,,,,,,,,
0,21,21,40,1,,60dc18e21694539ca0df125a,62c53aa518f098363fc36656,2022-07-06_09h34.23.341,Colour_Asymmetry_Pilot,2022.1.3,Win32,60.31363088,62c50e9c1127f2cd403a315f,,,,,,,,,,,,,,,,,,,,,,,,,,,,,,,,,,,,,,,,,,,,,,,,,,,,,,,,,,,,,,,,,,,,,,,,,,,,,,,,,,,,,,,,,,,,,,,,,,,,,,,,,,,,,,,,,,,,,,,,,,,,,,,,,,,,,,,,,,,,,,,,,,,,,,,,,,,,,,,,,,,
0,22,22,16,1,,60dc18e21694539ca0df125a,62c53aa518f098363fc36656,2022-07-06_09h34.23.341,Colour_Asymmetry_Pilot,2022.1.3,Win32,60.31363088,62c50e9c1127f2cd403a315f,,,,,,,,,,,,,,,,,,,,,,,,,,,,,,,,,,,,,,,,,,,,,,,,,,,,,,,,,,,,,,,,,,,,,,,,,,,,,,,,,,,,,,,,,,,,,,,,,,,,,,,,,,,,,,,,,,,,,,,,,,,,,,,,,,,,,,,,,,,,,,,,,,,,,,,,,,,,,,,,,,,
0,23,23,54,1,,60dc18e21694539ca0df125a,62c53aa518f098363fc36656,2022-07-06_09h34.23.341,Colour_Asymmetry_Pilot,2022.1.3,Win32,60.31363088,62c50e9c1127f2cd403a315f,,,,,,,,,,,,,,,,,,,,,,,,,,,,,,,,,,,,,,,,,,,,,,,,,,,,,,,,,,,,,,,,,,,,,,,,,,,,,,,,,,,,,,,,,,,,,,,,,,,,,,,,,,,,,,,,,,,,,,,,,,,,,,,,,,,,,,,,,,,,,,,,,,,,,,,,,,,,,,,,,,,
0,24,24,13,1,,60dc18e21694539ca0df125a,62c53aa518f098363fc36656,2022-07-06_09h34.23.341,Colour_Asymmetry_Pilot,2022.1.3,Win32,60.31363088,62c50e9c1127f2cd403a315f,,,,,,,,,,,,,,,,,,,,,,,,,,,,,,,,,,,,,,,,,,,,,,,,,,,,,,,,,,,,,,,,,,,,,,,,,,,,,,,,,,,,,,,,,,,,,,,,,,,,,,,,,,,,,,,,,,,,,,,,,,,,,,,,,,,,,,,,,,,,,,,,,,,,,,,,,,,,,,,,,,,
0,25,25,4,1,,60dc18e21694539ca0df125a,62c53aa518f098363fc36656,2022-07-06_09h34.23.341,Colour_Asymmetry_Pilot,2022.1.3,Win32,60.31363088,62c50e9c1127f2cd403a315f,,,,,,,,,,,,,,,,,,,,,,,,,,,,,,,,,,,,,,,,,,,,,,,,,,,,,,,,,,,,,,,,,,,,,,,,,,,,,,,,,,,,,,,,,,,,,,,,,,,,,,,,,,,,,,,,,,,,,,,,,,,,,,,,,,,,,,,,,,,,,,,,,,,,,,,,,,,,,,,,,,,
0,26,26,3,1,,60dc18e21694539ca0df125a,62c53aa518f098363fc36656,2022-07-06_09h34.23.341,Colour_Asymmetry_Pilot,2022.1.3,Win32,60.31363088,62c50e9c1127f2cd403a315f,,,,,,,,,,,,,,,,,,,,,,,,,,,,,,,,,,,,,,,,,,,,,,,,,,,,,,,,,,,,,,,,,,,,,,,,,,,,,,,,,,,,,,,,,,,,,,,,,,,,,,,,,,,,,,,,,,,,,,,,,,,,,,,,,,,,,,,,,,,,,,,,,,,,,,,,,,,,,,,,,,,
0,27,27,89,1,,60dc18e21694539ca0df125a,62c53aa518f098363fc36656,2022-07-06_09h34.23.341,Colour_Asymmetry_Pilot,2022.1.3,Win32,60.31363088,62c50e9c1127f2cd403a315f,,,,,,,,,,,,,,,,,,,,,,,,,,,,,,,,,,,,,,,,,,,,,,,,,,,,,,,,,,,,,,,,,,,,,,,,,,,,,,,,,,,,,,,,,,,,,,,,,,,,,,,,,,,,,,,,,,,,,,,,,,,,,,,,,,,,,,,,,,,,,,,,,,,,,,,,,,,,,,,,,,,
0,28,28,5,1,,60dc18e21694539ca0df125a,62c53aa518f098363fc36656,2022-07-06_09h34.23.341,Colour_Asymmetry_Pilot,2022.1.3,Win32,60.31363088,62c50e9c1127f2cd403a315f,,,,,,,,,,,,,,,,,,,,,,,,,,,,,,,,,,,,,,,,,,,,,,,,,,,,,,,,,,,,,,,,,,,,,,,,,,,,,,,,,,,,,,,,,,,,,,,,,,,,,,,,,,,,,,,,,,,,,,,,,,,,,,,,,,,,,,,,,,,,,,,,,,,,,,,,,,,,,,,,,,,
0,29,29,42,1,,60dc18e21694539ca0df125a,62c53aa518f098363fc36656,2022-07-06_09h34.23.341,Colour_Asymmetry_Pilot,2022.1.3,Win32,60.31363088,62c50e9c1127f2cd403a315f,,,,,,,,,,,,,,,,,,,,,,,,,,,,,,,,,,,,,,,,,,,,,,,,,,,,,,,,,,,,,,,,,,,,,,,,,,,,,,,,,,,,,,,,,,,,,,,,,,,,,,,,,,,,,,,,,,,,,,,,,,,,,,,,,,,,,,,,,,,,,,,,,,,,,,,,,,,,,,,,,,,
0,30,30,33,1,,60dc18e21694539ca0df125a,62c53aa518f098363fc36656,2022-07-06_09h34.23.341,Colour_Asymmetry_Pilot,2022.1.3,Win32,60.31363088,62c50e9c1127f2cd403a315f,,,,,,,,,,,,,,,,,,,,,,,,,,,,,,,,,,,,,,,,,,,,,,,,,,,,,,,,,,,,,,,,,,,,,,,,,,,,,,,,,,,,,,,,,,,,,,,,,,,,,,,,,,,,,,,,,,,,,,,,,,,,,,,,,,,,,,,,,,,,,,,,,,,,,,,,,,,,,,,,,,,
0,31,31,39,1,,60dc18e21694539ca0df125a,62c53aa518f098363fc36656,2022-07-06_09h34.23.341,Colour_Asymmetry_Pilot,2022.1.3,Win32,60.31363088,62c50e9c1127f2cd403a315f,,,,,,,,,,,,,,,,,,,,,,,,,,,,,,,,,,,,,,,,,,,,,,,,,,,,,,,,,,,,,,,,,,,,,,,,,,,,,,,,,,,,,,,,,,,,,,,,,,,,,,,,,,,,,,,,,,,,,,,,,,,,,,,,,,,,,,,,,,,,,,,,,,,,,,,,,,,,,,,,,,,
0,32,32,17,1,,60dc18e21694539ca0df125a,62c53aa518f098363fc36656,2022-07-06_09h34.23.341,Colour_Asymmetry_Pilot,2022.1.3,Win32,60.31363088,62c50e9c1127f2cd403a315f,,,,,,,,,,,,,,,,,,,,,,,,,,,,,,,,,,,,,,,,,,,,,,,,,,,,,,,,,,,,,,,,,,,,,,,,,,,,,,,,,,,,,,,,,,,,,,,,,,,,,,,,,,,,,,,,,,,,,,,,,,,,,,,,,,,,,,,,,,,,,,,,,,,,,,,,,,,,,,,,,,,
0,33,33,44,1,,60dc18e21694539ca0df125a,62c53aa518f098363fc36656,2022-07-06_09h34.23.341,Colour_Asymmetry_Pilot,2022.1.3,Win32,60.31363088,62c50e9c1127f2cd403a315f,,,,,,,,,,,,,,,,,,,,,,,,,,,,,,,,,,,,,,,,,,,,,,,,,,,,,,,,,,,,,,,,,,,,,,,,,,,,,,,,,,,,,,,,,,,,,,,,,,,,,,,,,,,,,,,,,,,,,,,,,,,,,,,,,,,,,,,,,,,,,,,,,,,,,,,,,,,,,,,,,,,
0,34,34,85,1,,60dc18e21694539ca0df125a,62c53aa518f098363fc36656,2022-07-06_09h34.23.341,Colour_Asymmetry_Pilot,2022.1.3,Win32,60.31363088,62c50e9c1127f2cd403a315f,,,,,,,,,,,,,,,,,,,,,,,,,,,,,,,,,,,,,,,,,,,,,,,,,,,,,,,,,,,,,,,,,,,,,,,,,,,,,,,,,,,,,,,,,,,,,,,,,,,,,,,,,,,,,,,,,,,,,,,,,,,,,,,,,,,,,,,,,,,,,,,,,,,,,,,,,,,,,,,,,,,
0,35,35,30,1,,60dc18e21694539ca0df125a,62c53aa518f098363fc36656,2022-07-06_09h34.23.341,Colour_Asymmetry_Pilot,2022.1.3,Win32,60.31363088,62c50e9c1127f2cd403a315f,,,,,,,,,,,,,,,,,,,,,,,,,,,,,,,,,,,,,,,,,,,,,,,,,,,,,,,,,,,,,,,,,,,,,,,,,,,,,,,,,,,,,,,,,,,,,,,,,,,,,,,,,,,,,,,,,,,,,,,,,,,,,,,,,,,,,,,,,,,,,,,,,,,,,,,,,,,,,,,,,,,
0,36,36,15,1,,60dc18e21694539ca0df125a,62c53aa518f098363fc36656,2022-07-06_09h34.23.341,Colour_Asymmetry_Pilot,2022.1.3,Win32,60.31363088,62c50e9c1127f2cd403a315f,,,,,,,,,,,,,,,,,,,,,,,,,,,,,,,,,,,,,,,,,,,,,,,,,,,,,,,,,,,,,,,,,,,,,,,,,,,,,,,,,,,,,,,,,,,,,,,,,,,,,,,,,,,,,,,,,,,,,,,,,,,,,,,,,,,,,,,,,,,,,,,,,,,,,,,,,,,,,,,,,,,
0,37,37,56,1,,60dc18e21694539ca0df125a,62c53aa518f098363fc36656,2022-07-06_09h34.23.341,Colour_Asymmetry_Pilot,2022.1.3,Win32,60.31363088,62c50e9c1127f2cd403a315f,,,,,,,,,,,,,,,,,,,,,,,,,,,,,,,,,,,,,,,,,,,,,,,,,,,,,,,,,,,,,,,,,,,,,,,,,,,,,,,,,,,,,,,,,,,,,,,,,,,,,,,,,,,,,,,,,,,,,,,,,,,,,,,,,,,,,,,,,,,,,,,,,,,,,,,,,,,,,,,,,,,
0,38,38,19,1,,60dc18e21694539ca0df125a,62c53aa518f098363fc36656,2022-07-06_09h34.23.341,Colour_Asymmetry_Pilot,2022.1.3,Win32,60.31363088,62c50e9c1127f2cd403a315f,,,,,,,,,,,,,,,,,,,,,,,,,,,,,,,,,,,,,,,,,,,,,,,,,,,,,,,,,,,,,,,,,,,,,,,,,,,,,,,,,,,,,,,,,,,,,,,,,,,,,,,,,,,,,,,,,,,,,,,,,,,,,,,,,,,,,,,,,,,,,,,,,,,,,,,,,,,,,,,,,,,
0,39,39,26,1,,60dc18e21694539ca0df125a,62c53aa518f098363fc36656,2022-07-06_09h34.23.341,Colour_Asymmetry_Pilot,2022.1.3,Win32,60.31363088,62c50e9c1127f2cd403a315f,,,,,,,,,,,,,,,,,,,,,,,,,,,,,,,,,,,,,,,,,,,,,,,,,,,,,,,,,,,,,,,,,,,,,,,,,,,,,,,,,,,,,,,,,,,,,,,,,,,,,,,,,,,,,,,,,,,,,,,,,,,,,,,,,,,,,,,,,,,,,,,,,,,,,,,,,,,,,,,,,,,
0,40,40,73,1,,60dc18e21694539ca0df125a,62c53aa518f098363fc36656,2022-07-06_09h34.23.341,Colour_Asymmetry_Pilot,2022.1.3,Win32,60.31363088,62c50e9c1127f2cd403a315f,,,,,,,,,,,,,,,,,,,,,,,,,,,,,,,,,,,,,,,,,,,,,,,,,,,,,,,,,,,,,,,,,,,,,,,,,,,,,,,,,,,,,,,,,,,,,,,,,,,,,,,,,,,,,,,,,,,,,,,,,,,,,,,,,,,,,,,,,,,,,,,,,,,,,,,,,,,,,,,,,,,
0,41,41,38,1,,60dc18e21694539ca0df125a,62c53aa518f098363fc36656,2022-07-06_09h34.23.341,Colour_Asymmetry_Pilot,2022.1.3,Win32,60.31363088,62c50e9c1127f2cd403a315f,,,,,,,,,,,,,,,,,,,,,,,,,,,,,,,,,,,,,,,,,,,,,,,,,,,,,,,,,,,,,,,,,,,,,,,,,,,,,,,,,,,,,,,,,,,,,,,,,,,,,,,,,,,,,,,,,,,,,,,,,,,,,,,,,,,,,,,,,,,,,,,,,,,,,,,,,,,,,,,,,,,
0,42,42,45,1,,60dc18e21694539ca0df125a,62c53aa518f098363fc36656,2022-07-06_09h34.23.341,Colour_Asymmetry_Pilot,2022.1.3,Win32,60.31363088,62c50e9c1127f2cd403a315f,,,,,,,,,,,,,,,,,,,,,,,,,,,,,,,,,,,,,,,,,,,,,,,,,,,,,,,,,,,,,,,,,,,,,,,,,,,,,,,,,,,,,,,,,,,,,,,,,,,,,,,,,,,,,,,,,,,,,,,,,,,,,,,,,,,,,,,,,,,,,,,,,,,,,,,,,,,,,,,,,,,
0,43,43,64,1,,60dc18e21694539ca0df125a,62c53aa518f098363fc36656,2022-07-06_09h34.23.341,Colour_Asymmetry_Pilot,2022.1.3,Win32,60.31363088,62c50e9c1127f2cd403a315f,,,,,,,,,,,,,,,,,,,,,,,,,,,,,,,,,,,,,,,,,,,,,,,,,,,,,,,,,,,,,,,,,,,,,,,,,,,,,,,,,,,,,,,,,,,,,,,,,,,,,,,,,,,,,,,,,,,,,,,,,,,,,,,,,,,,,,,,,,,,,,,,,,,,,,,,,,,,,,,,,,,
0,44,44,21,1,,60dc18e21694539ca0df125a,62c53aa518f098363fc36656,2022-07-06_09h34.23.341,Colour_Asymmetry_Pilot,2022.1.3,Win32,60.31363088,62c50e9c1127f2cd403a315f,,,,,,,,,,,,,,,,,,,,,,,,,,,,,,,,,,,,,,,,,,,,,,,,,,,,,,,,,,,,,,,,,,,,,,,,,,,,,,,,,,,,,,,,,,,,,,,,,,,,,,,,,,,,,,,,,,,,,,,,,,,,,,,,,,,,,,,,,,,,,,,,,,,,,,,,,,,,,,,,,,,
0,45,45,81,1,,60dc18e21694539ca0df125a,62c53aa518f098363fc36656,2022-07-06_09h34.23.341,Colour_Asymmetry_Pilot,2022.1.3,Win32,60.31363088,62c50e9c1127f2cd403a315f,,,,,,,,,,,,,,,,,,,,,,,,,,,,,,,,,,,,,,,,,,,,,,,,,,,,,,,,,,,,,,,,,,,,,,,,,,,,,,,,,,,,,,,,,,,,,,,,,,,,,,,,,,,,,,,,,,,,,,,,,,,,,,,,,,,,,,,,,,,,,,,,,,,,,,,,,,,,,,,,,,,
0,46,46,8,1,,60dc18e21694539ca0df125a,62c53aa518f098363fc36656,2022-07-06_09h34.23.341,Colour_Asymmetry_Pilot,2022.1.3,Win32,60.31363088,62c50e9c1127f2cd403a315f,,,,,,,,,,,,,,,,,,,,,,,,,,,,,,,,,,,,,,,,,,,,,,,,,,,,,,,,,,,,,,,,,,,,,,,,,,,,,,,,,,,,,,,,,,,,,,,,,,,,,,,,,,,,,,,,,,,,,,,,,,,,,,,,,,,,,,,,,,,,,,,,,,,,,,,,,,,,,,,,,,,
0,47,47,68,1,,60dc18e21694539ca0df125a,62c53aa518f098363fc36656,2022-07-06_09h34.23.341,Colour_Asymmetry_Pilot,2022.1.3,Win32,60.31363088,62c50e9c1127f2cd403a315f,,,,,,,,,,,,,,,,,,,,,,,,,,,,,,,,,,,,,,,,,,,,,,,,,,,,,,,,,,,,,,,,,,,,,,,,,,,,,,,,,,,,,,,,,,,,,,,,,,,,,,,,,,,,,,,,,,,,,,,,,,,,,,,,,,,,,,,,,,,,,,,,,,,,,,,,,,,,,,,,,,,
0,48,48,88,1,,60dc18e21694539ca0df125a,62c53aa518f098363fc36656,2022-07-06_09h34.23.341,Colour_Asymmetry_Pilot,2022.1.3,Win32,60.31363088,62c50e9c1127f2cd403a315f,,,,,,,,,,,,,,,,,,,,,,,,,,,,,,,,,,,,,,,,,,,,,,,,,,,,,,,,,,,,,,,,,,,,,,,,,,,,,,,,,,,,,,,,,,,,,,,,,,,,,,,,,,,,,,,,,,,,,,,,,,,,,,,,,,,,,,,,,,,,,,,,,,,,,,,,,,,,,,,,,,,
0,49,49,41,1,,60dc18e21694539ca0df125a,62c53aa518f098363fc36656,2022-07-06_09h34.23.341,Colour_Asymmetry_Pilot,2022.1.3,Win32,60.31363088,62c50e9c1127f2cd403a315f,,,,,,,,,,,,,,,,,,,,,,,,,,,,,,,,,,,,,,,,,,,,,,,,,,,,,,,,,,,,,,,,,,,,,,,,,,,,,,,,,,,,,,,,,,,,,,,,,,,,,,,,,,,,,,,,,,,,,,,,,,,,,,,,,,,,,,,,,,,,,,,,,,,,,,,,,,,,,,,,,,,
0,50,50,72,1,,60dc18e21694539ca0df125a,62c53aa518f098363fc36656,2022-07-06_09h34.23.341,Colour_Asymmetry_Pilot,2022.1.3,Win32,60.31363088,62c50e9c1127f2cd403a315f,,,,,,,,,,,,,,,,,,,,,,,,,,,,,,,,,,,,,,,,,,,,,,,,,,,,,,,,,,,,,,,,,,,,,,,,,,,,,,,,,,,,,,,,,,,,,,,,,,,,,,,,,,,,,,,,,,,,,,,,,,,,,,,,,,,,,,,,,,,,,,,,,,,,,,,,,,,,,,,,,,,
0,51,51,57,1,,60dc18e21694539ca0df125a,62c53aa518f098363fc36656,2022-07-06_09h34.23.341,Colour_Asymmetry_Pilot,2022.1.3,Win32,60.31363088,62c50e9c1127f2cd403a315f,,,,,,,,,,,,,,,,,,,,,,,,,,,,,,,,,,,,,,,,,,,,,,,,,,,,,,,,,,,,,,,,,,,,,,,,,,,,,,,,,,,,,,,,,,,,,,,,,,,,,,,,,,,,,,,,,,,,,,,,,,,,,,,,,,,,,,,,,,,,,,,,,,,,,,,,,,,,,,,,,,,
0,52,52,29,1,,60dc18e21694539ca0df125a,62c53aa518f098363fc36656,2022-07-06_09h34.23.341,Colour_Asymmetry_Pilot,2022.1.3,Win32,60.31363088,62c50e9c1127f2cd403a315f,,,,,,,,,,,,,,,,,,,,,,,,,,,,,,,,,,,,,,,,,,,,,,,,,,,,,,,,,,,,,,,,,,,,,,,,,,,,,,,,,,,,,,,,,,,,,,,,,,,,,,,,,,,,,,,,,,,,,,,,,,,,,,,,,,,,,,,,,,,,,,,,,,,,,,,,,,,,,,,,,,,
0,53,53,50,1,,60dc18e21694539ca0df125a,62c53aa518f098363fc36656,2022-07-06_09h34.23.341,Colour_Asymmetry_Pilot,2022.1.3,Win32,60.31363088,62c50e9c1127f2cd403a315f,,,,,,,,,,,,,,,,,,,,,,,,,,,,,,,,,,,,,,,,,,,,,,,,,,,,,,,,,,,,,,,,,,,,,,,,,,,,,,,,,,,,,,,,,,,,,,,,,,,,,,,,,,,,,,,,,,,,,,,,,,,,,,,,,,,,,,,,,,,,,,,,,,,,,,,,,,,,,,,,,,,
0,54,54,76,1,,60dc18e21694539ca0df125a,62c53aa518f098363fc36656,2022-07-06_09h34.23.341,Colour_Asymmetry_Pilot,2022.1.3,Win32,60.31363088,62c50e9c1127f2cd403a315f,,,,,,,,,,,,,,,,,,,,,,,,,,,,,,,,,,,,,,,,,,,,,,,,,,,,,,,,,,,,,,,,,,,,,,,,,,,,,,,,,,,,,,,,,,,,,,,,,,,,,,,,,,,,,,,,,,,,,,,,,,,,,,,,,,,,,,,,,,,,,,,,,,,,,,,,,,,,,,,,,,,
0,55,55,83,1,,60dc18e21694539ca0df125a,62c53aa518f098363fc36656,2022-07-06_09h34.23.341,Colour_Asymmetry_Pilot,2022.1.3,Win32,60.31363088,62c50e9c1127f2cd403a315f,,,,,,,,,,,,,,,,,,,,,,,,,,,,,,,,,,,,,,,,,,,,,,,,,,,,,,,,,,,,,,,,,,,,,,,,,,,,,,,,,,,,,,,,,,,,,,,,,,,,,,,,,,,,,,,,,,,,,,,,,,,,,,,,,,,,,,,,,,,,,,,,,,,,,,,,,,,,,,,,,,,
0,56,56,63,1,,60dc18e21694539ca0df125a,62c53aa518f098363fc36656,2022-07-06_09h34.23.341,Colour_Asymmetry_Pilot,2022.1.3,Win32,60.31363088,62c50e9c1127f2cd403a315f,,,,,,,,,,,,,,,,,,,,,,,,,,,,,,,,,,,,,,,,,,,,,,,,,,,,,,,,,,,,,,,,,,,,,,,,,,,,,,,,,,,,,,,,,,,,,,,,,,,,,,,,,,,,,,,,,,,,,,,,,,,,,,,,,,,,,,,,,,,,,,,,,,,,,,,,,,,,,,,,,,,
0,57,57,61,1,,60dc18e21694539ca0df125a,62c53aa518f098363fc36656,2022-07-06_09h34.23.341,Colour_Asymmetry_Pilot,2022.1.3,Win32,60.31363088,62c50e9c1127f2cd403a315f,,,,,,,,,,,,,,,,,,,,,,,,,,,,,,,,,,,,,,,,,,,,,,,,,,,,,,,,,,,,,,,,,,,,,,,,,,,,,,,,,,,,,,,,,,,,,,,,,,,,,,,,,,,,,,,,,,,,,,,,,,,,,,,,,,,,,,,,,,,,,,,,,,,,,,,,,,,,,,,,,,,
0,58,58,25,1,,60dc18e21694539ca0df125a,62c53aa518f098363fc36656,2022-07-06_09h34.23.341,Colour_Asymmetry_Pilot,2022.1.3,Win32,60.31363088,62c50e9c1127f2cd403a315f,,,,,,,,,,,,,,,,,,,,,,,,,,,,,,,,,,,,,,,,,,,,,,,,,,,,,,,,,,,,,,,,,,,,,,,,,,,,,,,,,,,,,,,,,,,,,,,,,,,,,,,,,,,,,,,,,,,,,,,,,,,,,,,,,,,,,,,,,,,,,,,,,,,,,,,,,,,,,,,,,,,
0,59,59,32,1,,60dc18e21694539ca0df125a,62c53aa518f098363fc36656,2022-07-06_09h34.23.341,Colour_Asymmetry_Pilot,2022.1.3,Win32,60.31363088,62c50e9c1127f2cd403a315f,,,,,,,,,,,,,,,,,,,,,,,,,,,,,,,,,,,,,,,,,,,,,,,,,,,,,,,,,,,,,,,,,,,,,,,,,,,,,,,,,,,,,,,,,,,,,,,,,,,,,,,,,,,,,,,,,,,,,,,,,,,,,,,,,,,,,,,,,,,,,,,,,,,,,,,,,,,,,,,,,,,
0,60,60,66,1,,60dc18e21694539ca0df125a,62c53aa518f098363fc36656,2022-07-06_09h34.23.341,Colour_Asymmetry_Pilot,2022.1.3,Win32,60.31363088,62c50e9c1127f2cd403a315f,,,,,,,,,,,,,,,,,,,,,,,,,,,,,,,,,,,,,,,,,,,,,,,,,,,,,,,,,,,,,,,,,,,,,,,,,,,,,,,,,,,,,,,,,,,,,,,,,,,,,,,,,,,,,,,,,,,,,,,,,,,,,,,,,,,,,,,,,,,,,,,,,,,,,,,,,,,,,,,,,,,
0,61,61,23,1,,60dc18e21694539ca0df125a,62c53aa518f098363fc36656,2022-07-06_09h34.23.341,Colour_Asymmetry_Pilot,2022.1.3,Win32,60.31363088,62c50e9c1127f2cd403a315f,,,,,,,,,,,,,,,,,,,,,,,,,,,,,,,,,,,,,,,,,,,,,,,,,,,,,,,,,,,,,,,,,,,,,,,,,,,,,,,,,,,,,,,,,,,,,,,,,,,,,,,,,,,,,,,,,,,,,,,,,,,,,,,,,,,,,,,,,,,,,,,,,,,,,,,,,,,,,,,,,,,
0,62,62,0,1,,60dc18e21694539ca0df125a,62c53aa518f098363fc36656,2022-07-06_09h34.23.341,Colour_Asymmetry_Pilot,2022.1.3,Win32,60.31363088,62c50e9c1127f2cd403a315f,,,,,,,,,,,,,,,,,,,,,,,,,,,,,,,,,,,,,,,,,,,,,,,,,,,,,,,,,,,,,,,,,,,,,,,,,,,,,,,,,,,,,,,,,,,,,,,,,,,,,,,,,,,,,,,,,,,,,,,,,,,,,,,,,,,,,,,,,,,,,,,,,,,,,,,,,,,,,,,,,,,
0,63,63,79,1,,60dc18e21694539ca0df125a,62c53aa518f098363fc36656,2022-07-06_09h34.23.341,Colour_Asymmetry_Pilot,2022.1.3,Win32,60.31363088,62c50e9c1127f2cd403a315f,,,,,,,,,,,,,,,,,,,,,,,,,,,,,,,,,,,,,,,,,,,,,,,,,,,,,,,,,,,,,,,,,,,,,,,,,,,,,,,,,,,,,,,,,,,,,,,,,,,,,,,,,,,,,,,,,,,,,,,,,,,,,,,,,,,,,,,,,,,,,,,,,,,,,,,,,,,,,,,,,,,
0,64,64,86,1,,60dc18e21694539ca0df125a,62c53aa518f098363fc36656,2022-07-06_09h34.23.341,Colour_Asymmetry_Pilot,2022.1.3,Win32,60.31363088,62c50e9c1127f2cd403a315f,,,,,,,,,,,,,,,,,,,,,,,,,,,,,,,,,,,,,,,,,,,,,,,,,,,,,,,,,,,,,,,,,,,,,,,,,,,,,,,,,,,,,,,,,,,,,,,,,,,,,,,,,,,,,,,,,,,,,,,,,,,,,,,,,,,,,,,,,,,,,,,,,,,,,,,,,,,,,,,,,,,
0,65,65,71,1,,60dc18e21694539ca0df125a,62c53aa518f098363fc36656,2022-07-06_09h34.23.341,Colour_Asymmetry_Pilot,2022.1.3,Win32,60.31363088,62c50e9c1127f2cd403a315f,,,,,,,,,,,,,,,,,,,,,,,,,,,,,,,,,,,,,,,,,,,,,,,,,,,,,,,,,,,,,,,,,,,,,,,,,,,,,,,,,,,,,,,,,,,,,,,,,,,,,,,,,,,,,,,,,,,,,,,,,,,,,,,,,,,,,,,,,,,,,,,,,,,,,,,,,,,,,,,,,,,
0,66,66,28,1,,60dc18e21694539ca0df125a,62c53aa518f098363fc36656,2022-07-06_09h34.23.341,Colour_Asymmetry_Pilot,2022.1.3,Win32,60.31363088,62c50e9c1127f2cd403a315f,,,,,,,,,,,,,,,,,,,,,,,,,,,,,,,,,,,,,,,,,,,,,,,,,,,,,,,,,,,,,,,,,,,,,,,,,,,,,,,,,,,,,,,,,,,,,,,,,,,,,,,,,,,,,,,,,,,,,,,,,,,,,,,,,,,,,,,,,,,,,,,,,,,,,,,,,,,,,,,,,,,
0,67,67,14,1,,60dc18e21694539ca0df125a,62c53aa518f098363fc36656,2022-07-06_09h34.23.341,Colour_Asymmetry_Pilot,2022.1.3,Win32,60.31363088,62c50e9c1127f2cd403a315f,,,,,,,,,,,,,,,,,,,,,,,,,,,,,,,,,,,,,,,,,,,,,,,,,,,,,,,,,,,,,,,,,,,,,,,,,,,,,,,,,,,,,,,,,,,,,,,,,,,,,,,,,,,,,,,,,,,,,,,,,,,,,,,,,,,,,,,,,,,,,,,,,,,,,,,,,,,,,,,,,,,
0,68,68,49,1,,60dc18e21694539ca0df125a,62c53aa518f098363fc36656,2022-07-06_09h34.23.341,Colour_Asymmetry_Pilot,2022.1.3,Win32,60.31363088,62c50e9c1127f2cd403a315f,,,,,,,,,,,,,,,,,,,,,,,,,,,,,,,,,,,,,,,,,,,,,,,,,,,,,,,,,,,,,,,,,,,,,,,,,,,,,,,,,,,,,,,,,,,,,,,,,,,,,,,,,,,,,,,,,,,,,,,,,,,,,,,,,,,,,,,,,,,,,,,,,,,,,,,,,,,,,,,,,,,
0,69,69,18,1,,60dc18e21694539ca0df125a,62c53aa518f098363fc36656,2022-07-06_09h34.23.341,Colour_Asymmetry_Pilot,2022.1.3,Win32,60.31363088,62c50e9c1127f2cd403a315f,,,,,,,,,,,,,,,,,,,,,,,,,,,,,,,,,,,,,,,,,,,,,,,,,,,,,,,,,,,,,,,,,,,,,,,,,,,,,,,,,,,,,,,,,,,,,,,,,,,,,,,,,,,,,,,,,,,,,,,,,,,,,,,,,,,,,,,,,,,,,,,,,,,,,,,,,,,,,,,,,,,
0,70,70,43,1,,60dc18e21694539ca0df125a,62c53aa518f098363fc36656,2022-07-06_09h34.23.341,Colour_Asymmetry_Pilot,2022.1.3,Win32,60.31363088,62c50e9c1127f2cd403a315f,,,,,,,,,,,,,,,,,,,,,,,,,,,,,,,,,,,,,,,,,,,,,,,,,,,,,,,,,,,,,,,,,,,,,,,,,,,,,,,,,,,,,,,,,,,,,,,,,,,,,,,,,,,,,,,,,,,,,,,,,,,,,,,,,,,,,,,,,,,,,,,,,,,,,,,,,,,,,,,,,,,
0,71,71,62,1,,60dc18e21694539ca0df125a,62c53aa518f098363fc36656,2022-07-06_09h34.23.341,Colour_Asymmetry_Pilot,2022.1.3,Win32,60.31363088,62c50e9c1127f2cd403a315f,,,,,,,,,,,,,,,,,,,,,,,,,,,,,,,,,,,,,,,,,,,,,,,,,,,,,,,,,,,,,,,,,,,,,,,,,,,,,,,,,,,,,,,,,,,,,,,,,,,,,,,,,,,,,,,,,,,,,,,,,,,,,,,,,,,,,,,,,,,,,,,,,,,,,,,,,,,,,,,,,,,
0,72,72,92,1,,60dc18e21694539ca0df125a,62c53aa518f098363fc36656,2022-07-06_09h34.23.341,Colour_Asymmetry_Pilot,2022.1.3,Win32,60.31363088,62c50e9c1127f2cd403a315f,,,,,,,,,,,,,,,,,,,,,,,,,,,,,,,,,,,,,,,,,,,,,,,,,,,,,,,,,,,,,,,,,,,,,,,,,,,,,,,,,,,,,,,,,,,,,,,,,,,,,,,,,,,,,,,,,,,,,,,,,,,,,,,,,,,,,,,,,,,,,,,,,,,,,,,,,,,,,,,,,,,
0,73,73,9,1,,60dc18e21694539ca0df125a,62c53aa518f098363fc36656,2022-07-06_09h34.23.341,Colour_Asymmetry_Pilot,2022.1.3,Win32,60.31363088,62c50e9c1127f2cd403a315f,,,,,,,,,,,,,,,,,,,,,,,,,,,,,,,,,,,,,,,,,,,,,,,,,,,,,,,,,,,,,,,,,,,,,,,,,,,,,,,,,,,,,,,,,,,,,,,,,,,,,,,,,,,,,,,,,,,,,,,,,,,,,,,,,,,,,,,,,,,,,,,,,,,,,,,,,,,,,,,,,,,
0,74,74,90,1,,60dc18e21694539ca0df125a,62c53aa518f098363fc36656,2022-07-06_09h34.23.341,Colour_Asymmetry_Pilot,2022.1.3,Win32,60.31363088,62c50e9c1127f2cd403a315f,,,,,,,,,,,,,,,,,,,,,,,,,,,,,,,,,,,,,,,,,,,,,,,,,,,,,,,,,,,,,,,,,,,,,,,,,,,,,,,,,,,,,,,,,,,,,,,,,,,,,,,,,,,,,,,,,,,,,,,,,,,,,,,,,,,,,,,,,,,,,,,,,,,,,,,,,,,,,,,,,,,
0,75,75,91,1,,60dc18e21694539ca0df125a,62c53aa518f098363fc36656,2022-07-06_09h34.23.341,Colour_Asymmetry_Pilot,2022.1.3,Win32,60.31363088,62c50e9c1127f2cd403a315f,,,,,,,,,,,,,,,,,,,,,,,,,,,,,,,,,,,,,,,,,,,,,,,,,,,,,,,,,,,,,,,,,,,,,,,,,,,,,,,,,,,,,,,,,,,,,,,,,,,,,,,,,,,,,,,,,,,,,,,,,,,,,,,,,,,,,,,,,,,,,,,,,,,,,,,,,,,,,,,,,,,
0,76,76,34,1,,60dc18e21694539ca0df125a,62c53aa518f098363fc36656,2022-07-06_09h34.23.341,Colour_Asymmetry_Pilot,2022.1.3,Win32,60.31363088,62c50e9c1127f2cd403a315f,,,,,,,,,,,,,,,,,,,,,,,,,,,,,,,,,,,,,,,,,,,,,,,,,,,,,,,,,,,,,,,,,,,,,,,,,,,,,,,,,,,,,,,,,,,,,,,,,,,,,,,,,,,,,,,,,,,,,,,,,,,,,,,,,,,,,,,,,,,,,,,,,,,,,,,,,,,,,,,,,,,
0,77,77,36,1,,60dc18e21694539ca0df125a,62c53aa518f098363fc36656,2022-07-06_09h34.23.341,Colour_Asymmetry_Pilot,2022.1.3,Win32,60.31363088,62c50e9c1127f2cd403a315f,,,,,,,,,,,,,,,,,,,,,,,,,,,,,,,,,,,,,,,,,,,,,,,,,,,,,,,,,,,,,,,,,,,,,,,,,,,,,,,,,,,,,,,,,,,,,,,,,,,,,,,,,,,,,,,,,,,,,,,,,,,,,,,,,,,,,,,,,,,,,,,,,,,,,,,,,,,,,,,,,,,
0,78,78,60,1,,60dc18e21694539ca0df125a,62c53aa518f098363fc36656,2022-07-06_09h34.23.341,Colour_Asymmetry_Pilot,2022.1.3,Win32,60.31363088,62c50e9c1127f2cd403a315f,,,,,,,,,,,,,,,,,,,,,,,,,,,,,,,,,,,,,,,,,,,,,,,,,,,,,,,,,,,,,,,,,,,,,,,,,,,,,,,,,,,,,,,,,,,,,,,,,,,,,,,,,,,,,,,,,,,,,,,,,,,,,,,,,,,,,,,,,,,,,,,,,,,,,,,,,,,,,,,,,,,
0,79,79,46,1,,60dc18e21694539ca0df125a,62c53aa518f098363fc36656,2022-07-06_09h34.23.341,Colour_Asymmetry_Pilot,2022.1.3,Win32,60.31363088,62c50e9c1127f2cd403a315f,,,,,,,,,,,,,,,,,,,,,,,,,,,,,,,,,,,,,,,,,,,,,,,,,,,,,,,,,,,,,,,,,,,,,,,,,,,,,,,,,,,,,,,,,,,,,,,,,,,,,,,,,,,,,,,,,,,,,,,,,,,,,,,,,,,,,,,,,,,,,,,,,,,,,,,,,,,,,,,,,,,
0,80,80,65,1,,60dc18e21694539ca0df125a,62c53aa518f098363fc36656,2022-07-06_09h34.23.341,Colour_Asymmetry_Pilot,2022.1.3,Win32,60.31363088,62c50e9c1127f2cd403a315f,,,,,,,,,,,,,,,,,,,,,,,,,,,,,,,,,,,,,,,,,,,,,,,,,,,,,,,,,,,,,,,,,,,,,,,,,,,,,,,,,,,,,,,,,,,,,,,,,,,,,,,,,,,,,,,,,,,,,,,,,,,,,,,,,,,,,,,,,,,,,,,,,,,,,,,,,,,,,,,,,,,
0,81,81,84,1,,60dc18e21694539ca0df125a,62c53aa518f098363fc36656,2022-07-06_09h34.23.341,Colour_Asymmetry_Pilot,2022.1.3,Win32,60.31363088,62c50e9c1127f2cd403a315f,,,,,,,,,,,,,,,,,,,,,,,,,,,,,,,,,,,,,,,,,,,,,,,,,,,,,,,,,,,,,,,,,,,,,,,,,,,,,,,,,,,,,,,,,,,,,,,,,,,,,,,,,,,,,,,,,,,,,,,,,,,,,,,,,,,,,,,,,,,,,,,,,,,,,,,,,,,,,,,,,,,
0,82,82,11,1,,60dc18e21694539ca0df125a,62c53aa518f098363fc36656,2022-07-06_09h34.23.341,Colour_Asymmetry_Pilot,2022.1.3,Win32,60.31363088,62c50e9c1127f2cd403a315f,,,,,,,,,,,,,,,,,,,,,,,,,,,,,,,,,,,,,,,,,,,,,,,,,,,,,,,,,,,,,,,,,,,,,,,,,,,,,,,,,,,,,,,,,,,,,,,,,,,,,,,,,,,,,,,,,,,,,,,,,,,,,,,,,,,,,,,,,,,,,,,,,,,,,,,,,,,,,,,,,,,
0,83,83,31,1,,60dc18e21694539ca0df125a,62c53aa518f098363fc36656,2022-07-06_09h34.23.341,Colour_Asymmetry_Pilot,2022.1.3,Win32,60.31363088,62c50e9c1127f2cd403a315f,,,,,,,,,,,,,,,,,,,,,,,,,,,,,,,,,,,,,,,,,,,,,,,,,,,,,,,,,,,,,,,,,,,,,,,,,,,,,,,,,,,,,,,,,,,,,,,,,,,,,,,,,,,,,,,,,,,,,,,,,,,,,,,,,,,,,,,,,,,,,,,,,,,,,,,,,,,,,,,,,,,
0,84,84,1,1,,60dc18e21694539ca0df125a,62c53aa518f098363fc36656,2022-07-06_09h34.23.341,Colour_Asymmetry_Pilot,2022.1.3,Win32,60.31363088,62c50e9c1127f2cd403a315f,,,,,,,,,,,,,,,,,,,,,,,,,,,,,,,,,,,,,,,,,,,,,,,,,,,,,,,,,,,,,,,,,,,,,,,,,,,,,,,,,,,,,,,,,,,,,,,,,,,,,,,,,,,,,,,,,,,,,,,,,,,,,,,,,,,,,,,,,,,,,,,,,,,,,,,,,,,,,,,,,,,
0,85,85,53,1,,60dc18e21694539ca0df125a,62c53aa518f098363fc36656,2022-07-06_09h34.23.341,Colour_Asymmetry_Pilot,2022.1.3,Win32,60.31363088,62c50e9c1127f2cd403a315f,,,,,,,,,,,,,,,,,,,,,,,,,,,,,,,,,,,,,,,,,,,,,,,,,,,,,,,,,,,,,,,,,,,,,,,,,,,,,,,,,,,,,,,,,,,,,,,,,,,,,,,,,,,,,,,,,,,,,,,,,,,,,,,,,,,,,,,,,,,,,,,,,,,,,,,,,,,,,,,,,,,
0,86,86,59,1,,60dc18e21694539ca0df125a,62c53aa518f098363fc36656,2022-07-06_09h34.23.341,Colour_Asymmetry_Pilot,2022.1.3,Win32,60.31363088,62c50e9c1127f2cd403a315f,,,,,,,,,,,,,,,,,,,,,,,,,,,,,,,,,,,,,,,,,,,,,,,,,,,,,,,,,,,,,,,,,,,,,,,,,,,,,,,,,,,,,,,,,,,,,,,,,,,,,,,,,,,,,,,,,,,,,,,,,,,,,,,,,,,,,,,,,,,,,,,,,,,,,,,,,,,,,,,,,,,
0,87,87,12,1,,60dc18e21694539ca0df125a,62c53aa518f098363fc36656,2022-07-06_09h34.23.341,Colour_Asymmetry_Pilot,2022.1.3,Win32,60.31363088,62c50e9c1127f2cd403a315f,,,,,,,,,,,,,,,,,,,,,,,,,,,,,,,,,,,,,,,,,,,,,,,,,,,,,,,,,,,,,,,,,,,,,,,,,,,,,,,,,,,,,,,,,,,,,,,,,,,,,,,,,,,,,,,,,,,,,,,,,,,,,,,,,,,,,,,,,,,,,,,,,,,,,,,,,,,,,,,,,,,
0,88,88,7,1,,60dc18e21694539ca0df125a,62c53aa518f098363fc36656,2022-07-06_09h34.23.341,Colour_Asymmetry_Pilot,2022.1.3,Win32,60.31363088,62c50e9c1127f2cd403a315f,,,,,,,,,,,,,,,,,,,,,,,,,,,,,,,,,,,,,,,,,,,,,,,,,,,,,,,,,,,,,,,,,,,,,,,,,,,,,,,,,,,,,,,,,,,,,,,,,,,,,,,,,,,,,,,,,,,,,,,,,,,,,,,,,,,,,,,,,,,,,,,,,,,,,,,,,,,,,,,,,,,
0,89,89,82,1,,60dc18e21694539ca0df125a,62c53aa518f098363fc36656,2022-07-06_09h34.23.341,Colour_Asymmetry_Pilot,2022.1.3,Win32,60.31363088,62c50e9c1127f2cd403a315f,,,,,,,,,,,,,,,,,,,,,,,,,,,,,,,,,,,,,,,,,,,,,,,,,,,,,,,,,,,,,,,,,,,,,,,,,,,,,,,,,,,,,,,,,,,,,,,,,,,,,,,,,,,,,,,,,,,,,,,,,,,,,,,,,,,,,,,,,,,,,,,,,,,,,,,,,,,,,,,,,,,
0,90,90,22,1,,60dc18e21694539ca0df125a,62c53aa518f098363fc36656,2022-07-06_09h34.23.341,Colour_Asymmetry_Pilot,2022.1.3,Win32,60.31363088,62c50e9c1127f2cd403a315f,,,,,,,,,,,,,,,,,,,,,,,,,,,,,,,,,,,,,,,,,,,,,,,,,,,,,,,,,,,,,,,,,,,,,,,,,,,,,,,,,,,,,,,,,,,,,,,,,,,,,,,,,,,,,,,,,,,,,,,,,,,,,,,,,,,,,,,,,,,,,,,,,,,,,,,,,,,,,,,,,,,
0,91,91,20,1,,60dc18e21694539ca0df125a,62c53aa518f098363fc36656,2022-07-06_09h34.23.341,Colour_Asymmetry_Pilot,2022.1.3,Win32,60.31363088,62c50e9c1127f2cd403a315f,,,,,,,,,,,,,,,,,,,,,,,,,,,,,,,,,,,,,,,,,,,,,,,,,,,,,,,,,,,,,,,,,,,,,,,,,,,,,,,,,,,,,,,,,,,,,,,,,,,,,,,,,,,,,,,,,,,,,,,,,,,,,,,,,,,,,,,,,,,,,,,,,,,,,,,,,,,,,,,,,,,
0,92,92,55,1,,60dc18e21694539ca0df125a,62c53aa518f098363fc36656,2022-07-06_09h34.23.341,Colour_Asymmetry_Pilot,2022.1.3,Win32,60.31363088,62c50e9c1127f2cd403a315f,,,,,,,,,,,,,,,,,,,,,,,,,,,,,,,,,,,,,,,,,,,,,,,,,,,,,,,,,,,,,,,,,,,,,,,,,,,,,,,,,,,,,,,,,,,,,,,,,,,,,,,,,,,,,,,,,,,,,,,,,,,,,,,,,,,,,,,,,,,,,,,,,,,,,,,,,,,,,,,,,,,
,,,,,,60dc18e21694539ca0df125a,62c53aa518f098363fc36656,2022-07-06_09h34.23.341,Colour_Asymmetry_Pilot,2022.1.3,Win32,60.31363088,62c50e9c1127f2cd403a315f,0,0,0,134,1,fourtwo,,,,,,,,,,,,,,,,,,,,,,,,,,,,,,,,,,,,,,,,,,,,,,,,,,,,,,,,,,,,,,,,,,,,,,,,,,,,,,,,,,,,,,,,,,,,,,,,,,,,,,,,,,,,,,,,,,,,,,,,,,,,,,,,,,,,,,,,,,,,,,,,,,,,,,,,,,,,,
,,,,,,60dc18e21694539ca0df125a,62c53aa518f098363fc36656,2022-07-06_09h34.23.341,Colour_Asymmetry_Pilot,2022.1.3,Win32,60.31363088,62c50e9c1127f2cd403a315f,0,1,1,154,1,twoone,,,,,,,,,,,,,,,,,,,,,,,,,,,,,,,,,,,,,,,,,,,,,,,,,,,,,,,,,,,,,,,,,,,,,,,,,,,,,,,,,,,,,,,,,,,,,,,,,,,,,,,,,,,,,,,,,,,,,,,,,,,,,,,,,,,,,,,,,,,,,,,,,,,,,,,,,,,,,
,,,,,,60dc18e21694539ca0df125a,62c53aa518f098363fc36656,2022-07-06_09h34.23.341,Colour_Asymmetry_Pilot,2022.1.3,Win32,60.31363088,62c50e9c1127f2cd403a315f,0,2,2,39,1,fourthree,,,,,,,,,,,,,,,,,,,,,,,,,,,,,,,,,,,,,,,,,,,,,,,,,,,,,,,,,,,,,,,,,,,,,,,,,,,,,,,,,,,,,,,,,,,,,,,,,,,,,,,,,,,,,,,,,,,,,,,,,,,,,,,,,,,,,,,,,,,,,,,,,,,,,,,,,,,,,
,,,,,,60dc18e21694539ca0df125a,62c53aa518f098363fc36656,2022-07-06_09h34.23.341,Colour_Asymmetry_Pilot,2022.1.3,Win32,60.31363088,62c50e9c1127f2cd403a315f,0,3,3,83,1,twofour,,,,,,,,,,,,,,,,,,,,,,,,,,,,,,,,,,,,,,,,,,,,,,,,,,,,,,,,,,,,,,,,,,,,,,,,,,,,,,,,,,,,,,,,,,,,,,,,,,,,,,,,,,,,,,,,,,,,,,,,,,,,,,,,,,,,,,,,,,,,,,,,,,,,,,,,,,,,,
,,,,,,60dc18e21694539ca0df125a,62c53aa518f098363fc36656,2022-07-06_09h34.23.341,Colour_Asymmetry_Pilot,2022.1.3,Win32,60.31363088,62c50e9c1127f2cd403a315f,0,4,4,146,1,twoone,,,,,,,,,,,,,,,,,,,,,,,,,,,,,,,,,,,,,,,,,,,,,,,,,,,,,,,,,,,,,,,,,,,,,,,,,,,,,,,,,,,,,,,,,,,,,,,,,,,,,,,,,,,,,,,,,,,,,,,,,,,,,,,,,,,,,,,,,,,,,,,,,,,,,,,,,,,,,
,,,,,,60dc18e21694539ca0df125a,62c53aa518f098363fc36656,2022-07-06_09h34.23.341,Colour_Asymmetry_Pilot,2022.1.3,Win32,60.31363088,62c50e9c1127f2cd403a315f,0,5,5,141,1,threefour,,,,,,,,,,,,,,,,,,,,,,,,,,,,,,,,,,,,,,,,,,,,,,,,,,,,,,,,,,,,,,,,,,,,,,,,,,,,,,,,,,,,,,,,,,,,,,,,,,,,,,,,,,,,,,,,,,,,,,,,,,,,,,,,,,,,,,,,,,,,,,,,,,,,,,,,,,,,,
,,,,,,60dc18e21694539ca0df125a,62c53aa518f098363fc36656,2022-07-06_09h34.23.341,Colour_Asymmetry_Pilot,2022.1.3,Win32,60.31363088,62c50e9c1127f2cd403a315f,0,6,6,114,1,twoone,,,,,,,,,,,,,,,,,,,,,,,,,,,,,,,,,,,,,,,,,,,,,,,,,,,,,,,,,,,,,,,,,,,,,,,,,,,,,,,,,,,,,,,,,,,,,,,,,,,,,,,,,,,,,,,,,,,,,,,,,,,,,,,,,,,,,,,,,,,,,,,,,,,,,,,,,,,,,
,,,,,,60dc18e21694539ca0df125a,62c53aa518f098363fc36656,2022-07-06_09h34.23.341,Colour_Asymmetry_Pilot,2022.1.3,Win32,60.31363088,62c50e9c1127f2cd403a315f,0,7,7,92,1,threeone,,,,,,,,,,,,,,,,,,,,,,,,,,,,,,,,,,,,,,,,,,,,,,,,,,,,,,,,,,,,,,,,,,,,,,,,,,,,,,,,,,,,,,,,,,,,,,,,,,,,,,,,,,,,,,,,,,,,,,,,,,,,,,,,,,,,,,,,,,,,,,,,,,,,,,,,,,,,,
,,,,,,60dc18e21694539ca0df125a,62c53aa518f098363fc36656,2022-07-06_09h34.23.341,Colour_Asymmetry_Pilot,2022.1.3,Win32,60.31363088,62c50e9c1127f2cd403a315f,0,8,8,152,1,onetwo,,,,,,,,,,,,,,,,,,,,,,,,,,,,,,,,,,,,,,,,,,,,,,,,,,,,,,,,,,,,,,,,,,,,,,,,,,,,,,,,,,,,,,,,,,,,,,,,,,,,,,,,,,,,,,,,,,,,,,,,,,,,,,,,,,,,,,,,,,,,,,,,,,,,,,,,,,,,,
,,,,,,60dc18e21694539ca0df125a,62c53aa518f098363fc36656,2022-07-06_09h34.23.341,Colour_Asymmetry_Pilot,2022.1.3,Win32,60.31363088,62c50e9c1127f2cd403a315f,0,9,9,37,1,threefour,,,,,,,,,,,,,,,,,,,,,,,,,,,,,,,,,,,,,,,,,,,,,,,,,,,,,,,,,,,,,,,,,,,,,,,,,,,,,,,,,,,,,,,,,,,,,,,,,,,,,,,,,,,,,,,,,,,,,,,,,,,,,,,,,,,,,,,,,,,,,,,,,,,,,,,,,,,,,
,,,,,,60dc18e21694539ca0df125a,62c53aa518f098363fc36656,2022-07-06_09h34.23.341,Colour_Asymmetry_Pilot,2022.1.3,Win32,60.31363088,62c50e9c1127f2cd403a315f,0,10,10,66,1,twoone,,,,,,,,,,,,,,,,,,,,,,,,,,,,,,,,,,,,,,,,,,,,,,,,,,,,,,,,,,,,,,,,,,,,,,,,,,,,,,,,,,,,,,,,,,,,,,,,,,,,,,,,,,,,,,,,,,,,,,,,,,,,,,,,,,,,,,,,,,,,,,,,,,,,,,,,,,,,,
,,,,,,60dc18e21694539ca0df125a,62c53aa518f098363fc36656,2022-07-06_09h34.23.341,Colour_Asymmetry_Pilot,2022.1.3,Win32,60.31363088,62c50e9c1127f2cd403a315f,0,11,11,56,1,onetwo,,,,,,,,,,,,,,,,,,,,,,,,,,,,,,,,,,,,,,,,,,,,,,,,,,,,,,,,,,,,,,,,,,,,,,,,,,,,,,,,,,,,,,,,,,,,,,,,,,,,,,,,,,,,,,,,,,,,,,,,,,,,,,,,,,,,,,,,,,,,,,,,,,,,,,,,,,,,,
,,,,,,60dc18e21694539ca0df125a,62c53aa518f098363fc36656,2022-07-06_09h34.23.341,Colour_Asymmetry_Pilot,2022.1.3,Win32,60.31363088,62c50e9c1127f2cd403a315f,0,12,12,64,1,onetwo,,,,,,,,,,,,,,,,,,,,,,,,,,,,,,,,,,,,,,,,,,,,,,,,,,,,,,,,,,,,,,,,,,,,,,,,,,,,,,,,,,,,,,,,,,,,,,,,,,,,,,,,,,,,,,,,,,,,,,,,,,,,,,,,,,,,,,,,,,,,,,,,,,,,,,,,,,,,,
,,,,,,60dc18e21694539ca0df125a,62c53aa518f098363fc36656,2022-07-06_09h34.23.341,Colour_Asymmetry_Pilot,2022.1.3,Win32,60.31363088,62c50e9c1127f2cd403a315f,0,13,13,46,1,fourtwo,,,,,,,,,,,,,,,,,,,,,,,,,,,,,,,,,,,,,,,,,,,,,,,,,,,,,,,,,,,,,,,,,,,,,,,,,,,,,,,,,,,,,,,,,,,,,,,,,,,,,,,,,,,,,,,,,,,,,,,,,,,,,,,,,,,,,,,,,,,,,,,,,,,,,,,,,,,,,
,,,,,,60dc18e21694539ca0df125a,62c53aa518f098363fc36656,2022-07-06_09h34.23.341,Colour_Asymmetry_Pilot,2022.1.3,Win32,60.31363088,62c50e9c1127f2cd403a315f,0,14,14,105,1,onethree,,,,,,,,,,,,,,,,,,,,,,,,,,,,,,,,,,,,,,,,,,,,,,,,,,,,,,,,,,,,,,,,,,,,,,,,,,,,,,,,,,,,,,,,,,,,,,,,,,,,,,,,,,,,,,,,,,,,,,,,,,,,,,,,,,,,,,,,,,,,,,,,,,,,,,,,,,,,,
,,,,,,60dc18e21694539ca0df125a,62c53aa518f098363fc36656,2022-07-06_09h34.23.341,Colour_Asymmetry_Pilot,2022.1.3,Win32,60.31363088,62c50e9c1127f2cd403a315f,0,15,15,147,1,twofour,,,,,,,,,,,,,,,,,,,,,,,,,,,,,,,,,,,,,,,,,,,,,,,,,,,,,,,,,,,,,,,,,,,,,,,,,,,,,,,,,,,,,,,,,,,,,,,,,,,,,,,,,,,,,,,,,,,,,,,,,,,,,,,,,,,,,,,,,,,,,,,,,,,,,,,,,,,,,
,,,,,,60dc18e21694539ca0df125a,62c53aa518f098363fc36656,2022-07-06_09h34.23.341,Colour_Asymmetry_Pilot,2022.1.3,Win32,60.31363088,62c50e9c1127f2cd403a315f,0,16,16,5,1,threefour,,,,,,,,,,,,,,,,,,,,,,,,,,,,,,,,,,,,,,,,,,,,,,,,,,,,,,,,,,,,,,,,,,,,,,,,,,,,,,,,,,,,,,,,,,,,,,,,,,,,,,,,,,,,,,,,,,,,,,,,,,,,,,,,,,,,,,,,,,,,,,,,,,,,,,,,,,,,,
,,,,,,60dc18e21694539ca0df125a,62c53aa518f098363fc36656,2022-07-06_09h34.23.341,Colour_Asymmetry_Pilot,2022.1.3,Win32,60.31363088,62c50e9c1127f2cd403a315f,0,17,17,38,1,fourtwo,,,,,,,,,,,,,,,,,,,,,,,,,,,,,,,,,,,,,,,,,,,,,,,,,,,,,,,,,,,,,,,,,,,,,,,,,,,,,,,,,,,,,,,,,,,,,,,,,,,,,,,,,,,,,,,,,,,,,,,,,,,,,,,,,,,,,,,,,,,,,,,,,,,,,,,,,,,,,
,,,,,,60dc18e21694539ca0df125a,62c53aa518f098363fc36656,2022-07-06_09h34.23.341,Colour_Asymmetry_Pilot,2022.1.3,Win32,60.31363088,62c50e9c1127f2cd403a315f,0,18,18,127,1,fourthree,,,,,,,,,,,,,,,,,,,,,,,,,,,,,,,,,,,,,,,,,,,,,,,,,,,,,,,,,,,,,,,,,,,,,,,,,,,,,,,,,,,,,,,,,,,,,,,,,,,,,,,,,,,,,,,,,,,,,,,,,,,,,,,,,,,,,,,,,,,,,,,,,,,,,,,,,,,,,
,,,,,,60dc18e21694539ca0df125a,62c53aa518f098363fc36656,2022-07-06_09h34.23.341,Colour_Asymmetry_Pilot,2022.1.3,Win32,60.31363088,62c50e9c1127f2cd403a315f,0,19,19,97,1,onethree,,,,,,,,,,,,,,,,,,,,,,,,,,,,,,,,,,,,,,,,,,,,,,,,,,,,,,,,,,,,,,,,,,,,,,,,,,,,,,,,,,,,,,,,,,,,,,,,,,,,,,,,,,,,,,,,,,,,,,,,,,,,,,,,,,,,,,,,,,,,,,,,,,,,,,,,,,,,,
,,,,,,60dc18e21694539ca0df125a,62c53aa518f098363fc36656,2022-07-06_09h34.23.341,Colour_Asymmetry_Pilot,2022.1.3,Win32,60.31363088,62c50e9c1127f2cd403a315f,0,20,20,113,1,onethree,,,,,,,,,,,,,,,,,,,,,,,,,,,,,,,,,,,,,,,,,,,,,,,,,,,,,,,,,,,,,,,,,,,,,,,,,,,,,,,,,,,,,,,,,,,,,,,,,,,,,,,,,,,,,,,,,,,,,,,,,,,,,,,,,,,,,,,,,,,,,,,,,,,,,,,,,,,,,
,,,,,,60dc18e21694539ca0df125a,62c53aa518f098363fc36656,2022-07-06_09h34.23.341,Colour_Asymmetry_Pilot,2022.1.3,Win32,60.31363088,62c50e9c1127f2cd403a315f,0,21,21,27,1,twofour,,,,,,,,,,,,,,,,,,,,,,,,,,,,,,,,,,,,,,,,,,,,,,,,,,,,,,,,,,,,,,,,,,,,,,,,,,,,,,,,,,,,,,,,,,,,,,,,,,,,,,,,,,,,,,,,,,,,,,,,,,,,,,,,,,,,,,,,,,,,,,,,,,,,,,,,,,,,,
,,,,,,60dc18e21694539ca0df125a,62c53aa518f098363fc36656,2022-07-06_09h34.23.341,Colour_Asymmetry_Pilot,2022.1.3,Win32,60.31363088,62c50e9c1127f2cd403a315f,0,22,22,108,1,threeone,,,,,,,,,,,,,,,,,,,,,,,,,,,,,,,,,,,,,,,,,,,,,,,,,,,,,,,,,,,,,,,,,,,,,,,,,,,,,,,,,,,,,,,,,,,,,,,,,,,,,,,,,,,,,,,,,,,,,,,,,,,,,,,,,,,,,,,,,,,,,,,,,,,,,,,,,,,,,
,,,,,,60dc18e21694539ca0df125a,62c53aa518f098363fc36656,2022-07-06_09h34.23.341,Colour_Asymmetry_Pilot,2022.1.3,Win32,60.31363088,62c50e9c1127f2cd403a315f,0,23,23,110,1,fourtwo,,,,,,,,,,,,,,,,,,,,,,,,,,,,,,,,,,,,,,,,,,,,,,,,,,,,,,,,,,,,,,,,,,,,,,,,,,,,,,,,,,,,,,,,,,,,,,,,,,,,,,,,,,,,,,,,,,,,,,,,,,,,,,,,,,,,,,,,,,,,,,,,,,,,,,,,,,,,,
,,,,,,60dc18e21694539ca0df125a,62c53aa518f098363fc36656,2022-07-06_09h34.23.341,Colour_Asymmetry_Pilot,2022.1.3,Win32,60.31363088,62c50e9c1127f2cd403a315f,0,24,24,96,1,onetwo,,,,,,,,,,,,,,,,,,,,,,,,,,,,,,,,,,,,,,,,,,,,,,,,,,,,,,,,,,,,,,,,,,,,,,,,,,,,,,,,,,,,,,,,,,,,,,,,,,,,,,,,,,,,,,,,,,,,,,,,,,,,,,,,,,,,,,,,,,,,,,,,,,,,,,,,,,,,,
,,,,,,60dc18e21694539ca0df125a,62c53aa518f098363fc36656,2022-07-06_09h34.23.341,Colour_Asymmetry_Pilot,2022.1.3,Win32,60.31363088,62c50e9c1127f2cd403a315f,0,25,25,41,1,onethree,,,,,,,,,,,,,,,,,,,,,,,,,,,,,,,,,,,,,,,,,,,,,,,,,,,,,,,,,,,,,,,,,,,,,,,,,,,,,,,,,,,,,,,,,,,,,,,,,,,,,,,,,,,,,,,,,,,,,,,,,,,,,,,,,,,,,,,,,,,,,,,,,,,,,,,,,,,,,
,,,,,,60dc18e21694539ca0df125a,62c53aa518f098363fc36656,2022-07-06_09h34.23.341,Colour_Asymmetry_Pilot,2022.1.3,Win32,60.31363088,62c50e9c1127f2cd403a315f,0,26,26,61,1,threefour,,,,,,,,,,,,,,,,,,,,,,,,,,,,,,,,,,,,,,,,,,,,,,,,,,,,,,,,,,,,,,,,,,,,,,,,,,,,,,,,,,,,,,,,,,,,,,,,,,,,,,,,,,,,,,,,,,,,,,,,,,,,,,,,,,,,,,,,,,,,,,,,,,,,,,,,,,,,,
,,,,,,60dc18e21694539ca0df125a,62c53aa518f098363fc36656,2022-07-06_09h34.23.341,Colour_Asymmetry_Pilot,2022.1.3,Win32,60.31363088,62c50e9c1127f2cd403a315f,0,27,27,9,1,onethree,,,,,,,,,,,,,,,,,,,,,,,,,,,,,,,,,,,,,,,,,,,,,,,,,,,,,,,,,,,,,,,,,,,,,,,,,,,,,,,,,,,,,,,,,,,,,,,,,,,,,,,,,,,,,,,,,,,,,,,,,,,,,,,,,,,,,,,,,,,,,,,,,,,,,,,,,,,,,
,,,,,,60dc18e21694539ca0df125a,62c53aa518f098363fc36656,2022-07-06_09h34.23.341,Colour_Asymmetry_Pilot,2022.1.3,Win32,60.31363088,62c50e9c1127f2cd403a315f,0,28,28,33,1,onethree,,,,,,,,,,,,,,,,,,,,,,,,,,,,,,,,,,,,,,,,,,,,,,,,,,,,,,,,,,,,,,,,,,,,,,,,,,,,,,,,,,,,,,,,,,,,,,,,,,,,,,,,,,,,,,,,,,,,,,,,,,,,,,,,,,,,,,,,,,,,,,,,,,,,,,,,,,,,,
,,,,,,60dc18e21694539ca0df125a,62c53aa518f098363fc36656,2022-07-06_09h34.23.341,Colour_Asymmetry_Pilot,2022.1.3,Win32,60.31363088,62c50e9c1127f2cd403a315f,0,29,29,123,1,twofour,,,,,,,,,,,,,,,,,,,,,,,,,,,,,,,,,,,,,,,,,,,,,,,,,,,,,,,,,,,,,,,,,,,,,,,,,,,,,,,,,,,,,,,,,,,,,,,,,,,,,,,,,,,,,,,,,,,,,,,,,,,,,,,,,,,,,,,,,,,,,,,,,,,,,,,,,,,,,
,,,,,,60dc18e21694539ca0df125a,62c53aa518f098363fc36656,2022-07-06_09h34.23.341,Colour_Asymmetry_Pilot,2022.1.3,Win32,60.31363088,62c50e9c1127f2cd403a315f,0,30,30,7,1,fourthree,,,,,,,,,,,,,,,,,,,,,,,,,,,,,,,,,,,,,,,,,,,,,,,,,,,,,,,,,,,,,,,,,,,,,,,,,,,,,,,,,,,,,,,,,,,,,,,,,,,,,,,,,,,,,,,,,,,,,,,,,,,,,,,,,,,,,,,,,,,,,,,,,,,,,,,,,,,,,
,,,,,,60dc18e21694539ca0df125a,62c53aa518f098363fc36656,2022-07-06_09h34.23.341,Colour_Asymmetry_Pilot,2022.1.3,Win32,60.31363088,62c50e9c1127f2cd403a315f,0,31,31,136,1,onetwo,,,,,,,,,,,,,,,,,,,,,,,,,,,,,,,,,,,,,,,,,,,,,,,,,,,,,,,,,,,,,,,,,,,,,,,,,,,,,,,,,,,,,,,,,,,,,,,,,,,,,,,,,,,,,,,,,,,,,,,,,,,,,,,,,,,,,,,,,,,,,,,,,,,,,,,,,,,,,
,,,,,,60dc18e21694539ca0df125a,62c53aa518f098363fc36656,2022-07-06_09h34.23.341,Colour_Asymmetry_Pilot,2022.1.3,Win32,60.31363088,62c50e9c1127f2cd403a315f,0,32,32,95,1,fourthree,,,,,,,,,,,,,,,,,,,,,,,,,,,,,,,,,,,,,,,,,,,,,,,,,,,,,,,,,,,,,,,,,,,,,,,,,,,,,,,,,,,,,,,,,,,,,,,,,,,,,,,,,,,,,,,,,,,,,,,,,,,,,,,,,,,,,,,,,,,,,,,,,,,,,,,,,,,,,
,,,,,,60dc18e21694539ca0df125a,62c53aa518f098363fc36656,2022-07-06_09h34.23.341,Colour_Asymmetry_Pilot,2022.1.3,Win32,60.31363088,62c50e9c1127f2cd403a315f,0,33,33,25,1,onethree,,,,,,,,,,,,,,,,,,,,,,,,,,,,,,,,,,,,,,,,,,,,,,,,,,,,,,,,,,,,,,,,,,,,,,,,,,,,,,,,,,,,,,,,,,,,,,,,,,,,,,,,,,,,,,,,,,,,,,,,,,,,,,,,,,,,,,,,,,,,,,,,,,,,,,,,,,,,,
,,,,,,60dc18e21694539ca0df125a,62c53aa518f098363fc36656,2022-07-06_09h34.23.341,Colour_Asymmetry_Pilot,2022.1.3,Win32,60.31363088,62c50e9c1127f2cd403a315f,0,34,34,51,1,twofour,,,,,,,,,,,,,,,,,,,,,,,,,,,,,,,,,,,,,,,,,,,,,,,,,,,,,,,,,,,,,,,,,,,,,,,,,,,,,,,,,,,,,,,,,,,,,,,,,,,,,,,,,,,,,,,,,,,,,,,,,,,,,,,,,,,,,,,,,,,,,,,,,,,,,,,,,,,,,
,,,,,,60dc18e21694539ca0df125a,62c53aa518f098363fc36656,2022-07-06_09h34.23.341,Colour_Asymmetry_Pilot,2022.1.3,Win32,60.31363088,62c50e9c1127f2cd403a315f,0,35,35,128,1,onetwo,,,,,,,,,,,,,,,,,,,,,,,,,,,,,,,,,,,,,,,,,,,,,,,,,,,,,,,,,,,,,,,,,,,,,,,,,,,,,,,,,,,,,,,,,,,,,,,,,,,,,,,,,,,,,,,,,,,,,,,,,,,,,,,,,,,,,,,,,,,,,,,,,,,,,,,,,,,,,
,,,,,,60dc18e21694539ca0df125a,62c53aa518f098363fc36656,2022-07-06_09h34.23.341,Colour_Asymmetry_Pilot,2022.1.3,Win32,60.31363088,62c50e9c1127f2cd403a315f,0,36,36,90,1,twoone,,,,,,,,,,,,,,,,,,,,,,,,,,,,,,,,,,,,,,,,,,,,,,,,,,,,,,,,,,,,,,,,,,,,,,,,,,,,,,,,,,,,,,,,,,,,,,,,,,,,,,,,,,,,,,,,,,,,,,,,,,,,,,,,,,,,,,,,,,,,,,,,,,,,,,,,,,,,,
,,,,,,60dc18e21694539ca0df125a,62c53aa518f098363fc36656,2022-07-06_09h34.23.341,Colour_Asymmetry_Pilot,2022.1.3,Win32,60.31363088,62c50e9c1127f2cd403a315f,0,37,37,71,1,fourthree,,,,,,,,,,,,,,,,,,,,,,,,,,,,,,,,,,,,,,,,,,,,,,,,,,,,,,,,,,,,,,,,,,,,,,,,,,,,,,,,,,,,,,,,,,,,,,,,,,,,,,,,,,,,,,,,,,,,,,,,,,,,,,,,,,,,,,,,,,,,,,,,,,,,,,,,,,,,,
,,,,,,60dc18e21694539ca0df125a,62c53aa518f098363fc36656,2022-07-06_09h34.23.341,Colour_Asymmetry_Pilot,2022.1.3,Win32,60.31363088,62c50e9c1127f2cd403a315f,0,38,38,1,1,onethree,,,,,,,,,,,,,,,,,,,,,,,,,,,,,,,,,,,,,,,,,,,,,,,,,,,,,,,,,,,,,,,,,,,,,,,,,,,,,,,,,,,,,,,,,,,,,,,,,,,,,,,,,,,,,,,,,,,,,,,,,,,,,,,,,,,,,,,,,,,,,,,,,,,,,,,,,,,,,
,,,,,,60dc18e21694539ca0df125a,62c53aa518f098363fc36656,2022-07-06_09h34.23.341,Colour_Asymmetry_Pilot,2022.1.3,Win32,60.31363088,62c50e9c1127f2cd403a315f,0,39,39,116,1,threeone,,,,,,,,,,,,,,,,,,,,,,,,,,,,,,,,,,,,,,,,,,,,,,,,,,,,,,,,,,,,,,,,,,,,,,,,,,,,,,,,,,,,,,,,,,,,,,,,,,,,,,,,,,,,,,,,,,,,,,,,,,,,,,,,,,,,,,,,,,,,,,,,,,,,,,,,,,,,,
,,,,,,60dc18e21694539ca0df125a,62c53aa518f098363fc36656,2022-07-06_09h34.23.341,Colour_Asymmetry_Pilot,2022.1.3,Win32,60.31363088,62c50e9c1127f2cd403a315f,0,40,40,80,1,onetwo,,,,,,,,,,,,,,,,,,,,,,,,,,,,,,,,,,,,,,,,,,,,,,,,,,,,,,,,,,,,,,,,,,,,,,,,,,,,,,,,,,,,,,,,,,,,,,,,,,,,,,,,,,,,,,,,,,,,,,,,,,,,,,,,,,,,,,,,,,,,,,,,,,,,,,,,,,,,,
,,,,,,60dc18e21694539ca0df125a,62c53aa518f098363fc36656,2022-07-06_09h34.23.341,Colour_Asymmetry_Pilot,2022.1.3,Win32,60.31363088,62c50e9c1127f2cd403a315f,0,41,41,35,1,twofour,,,,,,,,,,,,,,,,,,,,,,,,,,,,,,,,,,,,,,,,,,,,,,,,,,,,,,,,,,,,,,,,,,,,,,,,,,,,,,,,,,,,,,,,,,,,,,,,,,,,,,,,,,,,,,,,,,,,,,,,,,,,,,,,,,,,,,,,,,,,,,,,,,,,,,,,,,,,,
,,,,,,60dc18e21694539ca0df125a,62c53aa518f098363fc36656,2022-07-06_09h34.23.341,Colour_Asymmetry_Pilot,2022.1.3,Win32,60.31363088,62c50e9c1127f2cd403a315f,0,42,42,125,1,threefour,,,,,,,,,,,,,,,,,,,,,,,,,,,,,,,,,,,,,,,,,,,,,,,,,,,,,,,,,,,,,,,,,,,,,,,,,,,,,,,,,,,,,,,,,,,,,,,,,,,,,,,,,,,,,,,,,,,,,,,,,,,,,,,,,,,,,,,,,,,,,,,,,,,,,,,,,,,,,
,,,,,,60dc18e21694539ca0df125a,62c53aa518f098363fc36656,2022-07-06_09h34.23.341,Colour_Asymmetry_Pilot,2022.1.3,Win32,60.31363088,62c50e9c1127f2cd403a315f,0,43,43,148,1,threeone,,,,,,,,,,,,,,,,,,,,,,,,,,,,,,,,,,,,,,,,,,,,,,,,,,,,,,,,,,,,,,,,,,,,,,,,,,,,,,,,,,,,,,,,,,,,,,,,,,,,,,,,,,,,,,,,,,,,,,,,,,,,,,,,,,,,,,,,,,,,,,,,,,,,,,,,,,,,,
,,,,,,60dc18e21694539ca0df125a,62c53aa518f098363fc36656,2022-07-06_09h34.23.341,Colour_Asymmetry_Pilot,2022.1.3,Win32,60.31363088,62c50e9c1127f2cd403a315f,0,44,44,68,1,threeone,,,,,,,,,,,,,,,,,,,,,,,,,,,,,,,,,,,,,,,,,,,,,,,,,,,,,,,,,,,,,,,,,,,,,,,,,,,,,,,,,,,,,,,,,,,,,,,,,,,,,,,,,,,,,,,,,,,,,,,,,,,,,,,,,,,,,,,,,,,,,,,,,,,,,,,,,,,,,
,,,,,,60dc18e21694539ca0df125a,62c53aa518f098363fc36656,2022-07-06_09h34.23.341,Colour_Asymmetry_Pilot,2022.1.3,Win32,60.31363088,62c50e9c1127f2cd403a315f,0,45,45,12,1,threeone,,,,,,,,,,,,,,,,,,,,,,,,,,,,,,,,,,,,,,,,,,,,,,,,,,,,,,,,,,,,,,,,,,,,,,,,,,,,,,,,,,,,,,,,,,,,,,,,,,,,,,,,,,,,,,,,,,,,,,,,,,,,,,,,,,,,,,,,,,,,,,,,,,,,,,,,,,,,,
,,,,,,60dc18e21694539ca0df125a,62c53aa518f098363fc36656,2022-07-06_09h34.23.341,Colour_Asymmetry_Pilot,2022.1.3,Win32,60.31363088,62c50e9c1127f2cd403a315f,0,46,46,34,1,twoone,,,,,,,,,,,,,,,,,,,,,,,,,,,,,,,,,,,,,,,,,,,,,,,,,,,,,,,,,,,,,,,,,,,,,,,,,,,,,,,,,,,,,,,,,,,,,,,,,,,,,,,,,,,,,,,,,,,,,,,,,,,,,,,,,,,,,,,,,,,,,,,,,,,,,,,,,,,,,
,,,,,,60dc18e21694539ca0df125a,62c53aa518f098363fc36656,2022-07-06_09h34.23.341,Colour_Asymmetry_Pilot,2022.1.3,Win32,60.31363088,62c50e9c1127f2cd403a315f,0,47,47,102,1,fourtwo,,,,,,,,,,,,,,,,,,,,,,,,,,,,,,,,,,,,,,,,,,,,,,,,,,,,,,,,,,,,,,,,,,,,,,,,,,,,,,,,,,,,,,,,,,,,,,,,,,,,,,,,,,,,,,,,,,,,,,,,,,,,,,,,,,,,,,,,,,,,,,,,,,,,,,,,,,,,,
,,,,,,60dc18e21694539ca0df125a,62c53aa518f098363fc36656,2022-07-06_09h34.23.341,Colour_Asymmetry_Pilot,2022.1.3,Win32,60.31363088,62c50e9c1127f2cd403a315f,0,48,48,86,1,fourtwo,,,,,,,,,,,,,,,,,,,,,,,,,,,,,,,,,,,,,,,,,,,,,,,,,,,,,,,,,,,,,,,,,,,,,,,,,,,,,,,,,,,,,,,,,,,,,,,,,,,,,,,,,,,,,,,,,,,,,,,,,,,,,,,,,,,,,,,,,,,,,,,,,,,,,,,,,,,,,
,,,,,,60dc18e21694539ca0df125a,62c53aa518f098363fc36656,2022-07-06_09h34.23.341,Colour_Asymmetry_Pilot,2022.1.3,Win32,60.31363088,62c50e9c1127f2cd403a315f,0,49,49,79,1,fourthree,,,,,,,,,,,,,,,,,,,,,,,,,,,,,,,,,,,,,,,,,,,,,,,,,,,,,,,,,,,,,,,,,,,,,,,,,,,,,,,,,,,,,,,,,,,,,,,,,,,,,,,,,,,,,,,,,,,,,,,,,,,,,,,,,,,,,,,,,,,,,,,,,,,,,,,,,,,,,
,,,,,,60dc18e21694539ca0df125a,62c53aa518f098363fc36656,2022-07-06_09h34.23.341,Colour_Asymmetry_Pilot,2022.1.3,Win32,60.31363088,62c50e9c1127f2cd403a315f,0,50,50,91,1,twofour,,,,,,,,,,,,,,,,,,,,,,,,,,,,,,,,,,,,,,,,,,,,,,,,,,,,,,,,,,,,,,,,,,,,,,,,,,,,,,,,,,,,,,,,,,,,,,,,,,,,,,,,,,,,,,,,,,,,,,,,,,,,,,,,,,,,,,,,,,,,,,,,,,,,,,,,,,,,,
,,,,,,60dc18e21694539ca0df125a,62c53aa518f098363fc36656,2022-07-06_09h34.23.341,Colour_Asymmetry_Pilot,2022.1.3,Win32,60.31363088,62c50e9c1127f2cd403a315f,0,51,51,52,1,threeone,,,,,,,,,,,,,,,,,,,,,,,,,,,,,,,,,,,,,,,,,,,,,,,,,,,,,,,,,,,,,,,,,,,,,,,,,,,,,,,,,,,,,,,,,,,,,,,,,,,,,,,,,,,,,,,,,,,,,,,,,,,,,,,,,,,,,,,,,,,,,,,,,,,,,,,,,,,,,
,,,,,,60dc18e21694539ca0df125a,62c53aa518f098363fc36656,2022-07-06_09h34.23.341,Colour_Asymmetry_Pilot,2022.1.3,Win32,60.31363088,62c50e9c1127f2cd403a315f,0,52,52,132,1,threeone,,,,,,,,,,,,,,,,,,,,,,,,,,,,,,,,,,,,,,,,,,,,,,,,,,,,,,,,,,,,,,,,,,,,,,,,,,,,,,,,,,,,,,,,,,,,,,,,,,,,,,,,,,,,,,,,,,,,,,,,,,,,,,,,,,,,,,,,,,,,,,,,,,,,,,,,,,,,,
,,,,,,60dc18e21694539ca0df125a,62c53aa518f098363fc36656,2022-07-06_09h34.23.341,Colour_Asymmetry_Pilot,2022.1.3,Win32,60.31363088,62c50e9c1127f2cd403a315f,0,53,53,18,1,twoone,,,,,,,,,,,,,,,,,,,,,,,,,,,,,,,,,,,,,,,,,,,,,,,,,,,,,,,,,,,,,,,,,,,,,,,,,,,,,,,,,,,,,,,,,,,,,,,,,,,,,,,,,,,,,,,,,,,,,,,,,,,,,,,,,,,,,,,,,,,,,,,,,,,,,,,,,,,,,
,,,,,,60dc18e21694539ca0df125a,62c53aa518f098363fc36656,2022-07-06_09h34.23.341,Colour_Asymmetry_Pilot,2022.1.3,Win32,60.31363088,62c50e9c1127f2cd403a315f,0,54,54,23,1,fourthree,,,,,,,,,,,,,,,,,,,,,,,,,,,,,,,,,,,,,,,,,,,,,,,,,,,,,,,,,,,,,,,,,,,,,,,,,,,,,,,,,,,,,,,,,,,,,,,,,,,,,,,,,,,,,,,,,,,,,,,,,,,,,,,,,,,,,,,,,,,,,,,,,,,,,,,,,,,,,
,,,,,,60dc18e21694539ca0df125a,62c53aa518f098363fc36656,2022-07-06_09h34.23.341,Colour_Asymmetry_Pilot,2022.1.3,Win32,60.31363088,62c50e9c1127f2cd403a315f,0,55,55,82,1,twoone,,,,,,,,,,,,,,,,,,,,,,,,,,,,,,,,,,,,,,,,,,,,,,,,,,,,,,,,,,,,,,,,,,,,,,,,,,,,,,,,,,,,,,,,,,,,,,,,,,,,,,,,,,,,,,,,,,,,,,,,,,,,,,,,,,,,,,,,,,,,,,,,,,,,,,,,,,,,,
,,,,,,60dc18e21694539ca0df125a,62c53aa518f098363fc36656,2022-07-06_09h34.23.341,Colour_Asymmetry_Pilot,2022.1.3,Win32,60.31363088,62c50e9c1127f2cd403a315f,0,56,56,44,1,threeone,,,,,,,,,,,,,,,,,,,,,,,,,,,,,,,,,,,,,,,,,,,,,,,,,,,,,,,,,,,,,,,,,,,,,,,,,,,,,,,,,,,,,,,,,,,,,,,,,,,,,,,,,,,,,,,,,,,,,,,,,,,,,,,,,,,,,,,,,,,,,,,,,,,,,,,,,,,,,
,,,,,,60dc18e21694539ca0df125a,62c53aa518f098363fc36656,2022-07-06_09h34.23.341,Colour_Asymmetry_Pilot,2022.1.3,Win32,60.31363088,62c50e9c1127f2cd403a315f,0,57,57,131,1,twofour,,,,,,,,,,,,,,,,,,,,,,,,,,,,,,,,,,,,,,,,,,,,,,,,,,,,,,,,,,,,,,,,,,,,,,,,,,,,,,,,,,,,,,,,,,,,,,,,,,,,,,,,,,,,,,,,,,,,,,,,,,,,,,,,,,,,,,,,,,,,,,,,,,,,,,,,,,,,,
,,,,,,60dc18e21694539ca0df125a,62c53aa518f098363fc36656,2022-07-06_09h34.23.341,Colour_Asymmetry_Pilot,2022.1.3,Win32,60.31363088,62c50e9c1127f2cd403a315f,0,58,58,98,1,twoone,,,,,,,,,,,,,,,,,,,,,,,,,,,,,,,,,,,,,,,,,,,,,,,,,,,,,,,,,,,,,,,,,,,,,,,,,,,,,,,,,,,,,,,,,,,,,,,,,,,,,,,,,,,,,,,,,,,,,,,,,,,,,,,,,,,,,,,,,,,,,,,,,,,,,,,,,,,,,
,,,,,,60dc18e21694539ca0df125a,62c53aa518f098363fc36656,2022-07-06_09h34.23.341,Colour_Asymmetry_Pilot,2022.1.3,Win32,60.31363088,62c50e9c1127f2cd403a315f,0,59,59,45,1,threefour,,,,,,,,,,,,,,,,,,,,,,,,,,,,,,,,,,,,,,,,,,,,,,,,,,,,,,,,,,,,,,,,,,,,,,,,,,,,,,,,,,,,,,,,,,,,,,,,,,,,,,,,,,,,,,,,,,,,,,,,,,,,,,,,,,,,,,,,,,,,,,,,,,,,,,,,,,,,,
,,,,,,60dc18e21694539ca0df125a,62c53aa518f098363fc36656,2022-07-06_09h34.23.341,Colour_Asymmetry_Pilot,2022.1.3,Win32,60.31363088,62c50e9c1127f2cd403a315f,0,60,60,22,1,fourtwo,,,,,,,,,,,,,,,,,,,,,,,,,,,,,,,,,,,,,,,,,,,,,,,,,,,,,,,,,,,,,,,,,,,,,,,,,,,,,,,,,,,,,,,,,,,,,,,,,,,,,,,,,,,,,,,,,,,,,,,,,,,,,,,,,,,,,,,,,,,,,,,,,,,,,,,,,,,,,
,,,,,,60dc18e21694539ca0df125a,62c53aa518f098363fc36656,2022-07-06_09h34.23.341,Colour_Asymmetry_Pilot,2022.1.3,Win32,60.31363088,62c50e9c1127f2cd403a315f,0,61,61,124,1,threeone,,,,,,,,,,,,,,,,,,,,,,,,,,,,,,,,,,,,,,,,,,,,,,,,,,,,,,,,,,,,,,,,,,,,,,,,,,,,,,,,,,,,,,,,,,,,,,,,,,,,,,,,,,,,,,,,,,,,,,,,,,,,,,,,,,,,,,,,,,,,,,,,,,,,,,,,,,,,,
,,,,,,60dc18e21694539ca0df125a,62c53aa518f098363fc36656,2022-07-06_09h34.23.341,Colour_Asymmetry_Pilot,2022.1.3,Win32,60.31363088,62c50e9c1127f2cd403a315f,0,62,62,0,1,onetwo,,,,,,,,,,,,,,,,,,,,,,,,,,,,,,,,,,,,,,,,,,,,,,,,,,,,,,,,,,,,,,,,,,,,,,,,,,,,,,,,,,,,,,,,,,,,,,,,,,,,,,,,,,,,,,,,,,,,,,,,,,,,,,,,,,,,,,,,,,,,,,,,,,,,,,,,,,,,,
,,,,,,60dc18e21694539ca0df125a,62c53aa518f098363fc36656,2022-07-06_09h34.23.341,Colour_Asymmetry_Pilot,2022.1.3,Win32,60.31363088,62c50e9c1127f2cd403a315f,0,63,63,88,1,onetwo,,,,,,,,,,,,,,,,,,,,,,,,,,,,,,,,,,,,,,,,,,,,,,,,,,,,,,,,,,,,,,,,,,,,,,,,,,,,,,,,,,,,,,,,,,,,,,,,,,,,,,,,,,,,,,,,,,,,,,,,,,,,,,,,,,,,,,,,,,,,,,,,,,,,,,,,,,,,,
,,,,,,60dc18e21694539ca0df125a,62c53aa518f098363fc36656,2022-07-06_09h34.23.341,Colour_Asymmetry_Pilot,2022.1.3,Win32,60.31363088,62c50e9c1127f2cd403a315f,0,64,64,129,1,onethree,,,,,,,,,,,,,,,,,,,,,,,,,,,,,,,,,,,,,,,,,,,,,,,,,,,,,,,,,,,,,,,,,,,,,,,,,,,,,,,,,,,,,,,,,,,,,,,,,,,,,,,,,,,,,,,,,,,,,,,,,,,,,,,,,,,,,,,,,,,,,,,,,,,,,,,,,,,,,
,,,,,,60dc18e21694539ca0df125a,62c53aa518f098363fc36656,2022-07-06_09h34.23.341,Colour_Asymmetry_Pilot,2022.1.3,Win32,60.31363088,62c50e9c1127f2cd403a315f,0,65,65,135,1,fourthree,,,,,,,,,,,,,,,,,,,,,,,,,,,,,,,,,,,,,,,,,,,,,,,,,,,,,,,,,,,,,,,,,,,,,,,,,,,,,,,,,,,,,,,,,,,,,,,,,,,,,,,,,,,,,,,,,,,,,,,,,,,,,,,,,,,,,,,,,,,,,,,,,,,,,,,,,,,,,
,,,,,,60dc18e21694539ca0df125a,62c53aa518f098363fc36656,2022-07-06_09h34.23.341,Colour_Asymmetry_Pilot,2022.1.3,Win32,60.31363088,62c50e9c1127f2cd403a315f,0,66,66,20,1,threeone,,,,,,,,,,,,,,,,,,,,,,,,,,,,,,,,,,,,,,,,,,,,,,,,,,,,,,,,,,,,,,,,,,,,,,,,,,,,,,,,,,,,,,,,,,,,,,,,,,,,,,,,,,,,,,,,,,,,,,,,,,,,,,,,,,,,,,,,,,,,,,,,,,,,,,,,,,,,,
,,,,,,60dc18e21694539ca0df125a,62c53aa518f098363fc36656,2022-07-06_09h34.23.341,Colour_Asymmetry_Pilot,2022.1.3,Win32,60.31363088,62c50e9c1127f2cd403a315f,0,67,67,138,1,twoone,,,,,,,,,,,,,,,,,,,,,,,,,,,,,,,,,,,,,,,,,,,,,,,,,,,,,,,,,,,,,,,,,,,,,,,,,,,,,,,,,,,,,,,,,,,,,,,,,,,,,,,,,,,,,,,,,,,,,,,,,,,,,,,,,,,,,,,,,,,,,,,,,,,,,,,,,,,,,
,,,,,,60dc18e21694539ca0df125a,62c53aa518f098363fc36656,2022-07-06_09h34.23.341,Colour_Asymmetry_Pilot,2022.1.3,Win32,60.31363088,62c50e9c1127f2cd403a315f,0,68,68,50,1,twoone,,,,,,,,,,,,,,,,,,,,,,,,,,,,,,,,,,,,,,,,,,,,,,,,,,,,,,,,,,,,,,,,,,,,,,,,,,,,,,,,,,,,,,,,,,,,,,,,,,,,,,,,,,,,,,,,,,,,,,,,,,,,,,,,,,,,,,,,,,,,,,,,,,,,,,,,,,,,,
,,,,,,60dc18e21694539ca0df125a,62c53aa518f098363fc36656,2022-07-06_09h34.23.341,Colour_Asymmetry_Pilot,2022.1.3,Win32,60.31363088,62c50e9c1127f2cd403a315f,0,69,69,112,1,onetwo,,,,,,,,,,,,,,,,,,,,,,,,,,,,,,,,,,,,,,,,,,,,,,,,,,,,,,,,,,,,,,,,,,,,,,,,,,,,,,,,,,,,,,,,,,,,,,,,,,,,,,,,,,,,,,,,,,,,,,,,,,,,,,,,,,,,,,,,,,,,,,,,,,,,,,,,,,,,,
,,,,,,60dc18e21694539ca0df125a,62c53aa518f098363fc36656,2022-07-06_09h34.23.341,Colour_Asymmetry_Pilot,2022.1.3,Win32,60.31363088,62c50e9c1127f2cd403a315f,0,70,70,72,1,onetwo,,,,,,,,,,,,,,,,,,,,,,,,,,,,,,,,,,,,,,,,,,,,,,,,,,,,,,,,,,,,,,,,,,,,,,,,,,,,,,,,,,,,,,,,,,,,,,,,,,,,,,,,,,,,,,,,,,,,,,,,,,,,,,,,,,,,,,,,,,,,,,,,,,,,,,,,,,,,,
,,,,,,60dc18e21694539ca0df125a,62c53aa518f098363fc36656,2022-07-06_09h34.23.341,Colour_Asymmetry_Pilot,2022.1.3,Win32,60.31363088,62c50e9c1127f2cd403a315f,0,71,71,104,1,onetwo,,,,,,,,,,,,,,,,,,,,,,,,,,,,,,,,,,,,,,,,,,,,,,,,,,,,,,,,,,,,,,,,,,,,,,,,,,,,,,,,,,,,,,,,,,,,,,,,,,,,,,,,,,,,,,,,,,,,,,,,,,,,,,,,,,,,,,,,,,,,,,,,,,,,,,,,,,,,,
,,,,,,60dc18e21694539ca0df125a,62c53aa518f098363fc36656,2022-07-06_09h34.23.341,Colour_Asymmetry_Pilot,2022.1.3,Win32,60.31363088,62c50e9c1127f2cd403a315f,0,72,72,94,1,fourtwo,,,,,,,,,,,,,,,,,,,,,,,,,,,,,,,,,,,,,,,,,,,,,,,,,,,,,,,,,,,,,,,,,,,,,,,,,,,,,,,,,,,,,,,,,,,,,,,,,,,,,,,,,,,,,,,,,,,,,,,,,,,,,,,,,,,,,,,,,,,,,,,,,,,,,,,,,,,,,
,,,,,,60dc18e21694539ca0df125a,62c53aa518f098363fc36656,2022-07-06_09h34.23.341,Colour_Asymmetry_Pilot,2022.1.3,Win32,60.31363088,62c50e9c1127f2cd403a315f,0,73,73,76,1,threeone,,,,,,,,,,,,,,,,,,,,,,,,,,,,,,,,,,,,,,,,,,,,,,,,,,,,,,,,,,,,,,,,,,,,,,,,,,,,,,,,,,,,,,,,,,,,,,,,,,,,,,,,,,,,,,,,,,,,,,,,,,,,,,,,,,,,,,,,,,,,,,,,,,,,,,,,,,,,,
,,,,,,60dc18e21694539ca0df125a,62c53aa518f098363fc36656,2022-07-06_09h34.23.341,Colour_Asymmetry_Pilot,2022.1.3,Win32,60.31363088,62c50e9c1127f2cd403a315f,0,74,74,81,1,onethree,,,,,,,,,,,,,,,,,,,,,,,,,,,,,,,,,,,,,,,,,,,,,,,,,,,,,,,,,,,,,,,,,,,,,,,,,,,,,,,,,,,,,,,,,,,,,,,,,,,,,,,,,,,,,,,,,,,,,,,,,,,,,,,,,,,,,,,,,,,,,,,,,,,,,,,,,,,,,
,,,,,,60dc18e21694539ca0df125a,62c53aa518f098363fc36656,2022-07-06_09h34.23.341,Colour_Asymmetry_Pilot,2022.1.3,Win32,60.31363088,62c50e9c1127f2cd403a315f,0,75,75,69,1,threefour,,,,,,,,,,,,,,,,,,,,,,,,,,,,,,,,,,,,,,,,,,,,,,,,,,,,,,,,,,,,,,,,,,,,,,,,,,,,,,,,,,,,,,,,,,,,,,,,,,,,,,,,,,,,,,,,,,,,,,,,,,,,,,,,,,,,,,,,,,,,,,,,,,,,,,,,,,,,,
,,,,,,60dc18e21694539ca0df125a,62c53aa518f098363fc36656,2022-07-06_09h34.23.341,Colour_Asymmetry_Pilot,2022.1.3,Win32,60.31363088,62c50e9c1127f2cd403a315f,0,76,76,115,1,twofour,,,,,,,,,,,,,,,,,,,,,,,,,,,,,,,,,,,,,,,,,,,,,,,,,,,,,,,,,,,,,,,,,,,,,,,,,,,,,,,,,,,,,,,,,,,,,,,,,,,,,,,,,,,,,,,,,,,,,,,,,,,,,,,,,,,,,,,,,,,,,,,,,,,,,,,,,,,,,
,,,,,,60dc18e21694539ca0df125a,62c53aa518f098363fc36656,2022-07-06_09h34.23.341,Colour_Asymmetry_Pilot,2022.1.3,Win32,60.31363088,62c50e9c1127f2cd403a315f,0,77,77,117,1,threefour,,,,,,,,,,,,,,,,,,,,,,,,,,,,,,,,,,,,,,,,,,,,,,,,,,,,,,,,,,,,,,,,,,,,,,,,,,,,,,,,,,,,,,,,,,,,,,,,,,,,,,,,,,,,,,,,,,,,,,,,,,,,,,,,,,,,,,,,,,,,,,,,,,,,,,,,,,,,,
,,,,,,60dc18e21694539ca0df125a,62c53aa518f098363fc36656,2022-07-06_09h34.23.341,Colour_Asymmetry_Pilot,2022.1.3,Win32,60.31363088,62c50e9c1127f2cd403a315f,0,78,78,10,1,twoone,,,,,,,,,,,,,,,,,,,,,,,,,,,,,,,,,,,,,,,,,,,,,,,,,,,,,,,,,,,,,,,,,,,,,,,,,,,,,,,,,,,,,,,,,,,,,,,,,,,,,,,,,,,,,,,,,,,,,,,,,,,,,,,,,,,,,,,,,,,,,,,,,,,,,,,,,,,,,
,,,,,,60dc18e21694539ca0df125a,62c53aa518f098363fc36656,2022-07-06_09h34.23.341,Colour_Asymmetry_Pilot,2022.1.3,Win32,60.31363088,62c50e9c1127f2cd403a315f,0,79,79,126,1,fourtwo,,,,,,,,,,,,,,,,,,,,,,,,,,,,,,,,,,,,,,,,,,,,,,,,,,,,,,,,,,,,,,,,,,,,,,,,,,,,,,,,,,,,,,,,,,,,,,,,,,,,,,,,,,,,,,,,,,,,,,,,,,,,,,,,,,,,,,,,,,,,,,,,,,,,,,,,,,,,,
,,,,,,60dc18e21694539ca0df125a,62c53aa518f098363fc36656,2022-07-06_09h34.23.341,Colour_Asymmetry_Pilot,2022.1.3,Win32,60.31363088,62c50e9c1127f2cd403a315f,0,80,80,85,1,threefour,,,,,,,,,,,,,,,,,,,,,,,,,,,,,,,,,,,,,,,,,,,,,,,,,,,,,,,,,,,,,,,,,,,,,,,,,,,,,,,,,,,,,,,,,,,,,,,,,,,,,,,,,,,,,,,,,,,,,,,,,,,,,,,,,,,,,,,,,,,,,,,,,,,,,,,,,,,,,
,,,,,,60dc18e21694539ca0df125a,62c53aa518f098363fc36656,2022-07-06_09h34.23.341,Colour_Asymmetry_Pilot,2022.1.3,Win32,60.31363088,62c50e9c1127f2cd403a315f,0,81,81,67,1,twofour,,,,,,,,,,,,,,,,,,,,,,,,,,,,,,,,,,,,,,,,,,,,,,,,,,,,,,,,,,,,,,,,,,,,,,,,,,,,,,,,,,,,,,,,,,,,,,,,,,,,,,,,,,,,,,,,,,,,,,,,,,,,,,,,,,,,,,,,,,,,,,,,,,,,,,,,,,,,,
,,,,,,60dc18e21694539ca0df125a,62c53aa518f098363fc36656,2022-07-06_09h34.23.341,Colour_Asymmetry_Pilot,2022.1.3,Win32,60.31363088,62c50e9c1127f2cd403a315f,0,82,82,17,1,onethree,,,,,,,,,,,,,,,,,,,,,,,,,,,,,,,,,,,,,,,,,,,,,,,,,,,,,,,,,,,,,,,,,,,,,,,,,,,,,,,,,,,,,,,,,,,,,,,,,,,,,,,,,,,,,,,,,,,,,,,,,,,,,,,,,,,,,,,,,,,,,,,,,,,,,,,,,,,,,
,,,,,,60dc18e21694539ca0df125a,62c53aa518f098363fc36656,2022-07-06_09h34.23.341,Colour_Asymmetry_Pilot,2022.1.3,Win32,60.31363088,62c50e9c1127f2cd403a315f,0,83,83,100,1,threeone,,,,,,,,,,,,,,,,,,,,,,,,,,,,,,,,,,,,,,,,,,,,,,,,,,,,,,,,,,,,,,,,,,,,,,,,,,,,,,,,,,,,,,,,,,,,,,,,,,,,,,,,,,,,,,,,,,,,,,,,,,,,,,,,,,,,,,,,,,,,,,,,,,,,,,,,,,,,,
,,,,,,60dc18e21694539ca0df125a,62c53aa518f098363fc36656,2022-07-06_09h34.23.341,Colour_Asymmetry_Pilot,2022.1.3,Win32,60.31363088,62c50e9c1127f2cd403a315f,0,84,84,142,1,fourtwo,,,,,,,,,,,,,,,,,,,,,,,,,,,,,,,,,,,,,,,,,,,,,,,,,,,,,,,,,,,,,,,,,,,,,,,,,,,,,,,,,,,,,,,,,,,,,,,,,,,,,,,,,,,,,,,,,,,,,,,,,,,,,,,,,,,,,,,,,,,,,,,,,,,,,,,,,,,,,
,,,,,,60dc18e21694539ca0df125a,62c53aa518f098363fc36656,2022-07-06_09h34.23.341,Colour_Asymmetry_Pilot,2022.1.3,Win32,60.31363088,62c50e9c1127f2cd403a315f,0,85,85,101,1,threefour,,,,,,,,,,,,,,,,,,,,,,,,,,,,,,,,,,,,,,,,,,,,,,,,,,,,,,,,,,,,,,,,,,,,,,,,,,,,,,,,,,,,,,,,,,,,,,,,,,,,,,,,,,,,,,,,,,,,,,,,,,,,,,,,,,,,,,,,,,,,,,,,,,,,,,,,,,,,,
,,,,,,60dc18e21694539ca0df125a,62c53aa518f098363fc36656,2022-07-06_09h34.23.341,Colour_Asymmetry_Pilot,2022.1.3,Win32,60.31363088,62c50e9c1127f2cd403a315f,0,86,86,137,1,onethree,,,,,,,,,,,,,,,,,,,,,,,,,,,,,,,,,,,,,,,,,,,,,,,,,,,,,,,,,,,,,,,,,,,,,,,,,,,,,,,,,,,,,,,,,,,,,,,,,,,,,,,,,,,,,,,,,,,,,,,,,,,,,,,,,,,,,,,,,,,,,,,,,,,,,,,,,,,,,
,,,,,,60dc18e21694539ca0df125a,62c53aa518f098363fc36656,2022-07-06_09h34.23.341,Colour_Asymmetry_Pilot,2022.1.3,Win32,60.31363088,62c50e9c1127f2cd403a315f,0,87,87,151,1,fourthree,,,,,,,,,,,,,,,,,,,,,,,,,,,,,,,,,,,,,,,,,,,,,,,,,,,,,,,,,,,,,,,,,,,,,,,,,,,,,,,,,,,,,,,,,,,,,,,,,,,,,,,,,,,,,,,,,,,,,,,,,,,,,,,,,,,,,,,,,,,,,,,,,,,,,,,,,,,,,
,,,,,,60dc18e21694539ca0df125a,62c53aa518f098363fc36656,2022-07-06_09h34.23.341,Colour_Asymmetry_Pilot,2022.1.3,Win32,60.31363088,62c50e9c1127f2cd403a315f,0,88,88,4,1,threeone,,,,,,,,,,,,,,,,,,,,,,,,,,,,,,,,,,,,,,,,,,,,,,,,,,,,,,,,,,,,,,,,,,,,,,,,,,,,,,,,,,,,,,,,,,,,,,,,,,,,,,,,,,,,,,,,,,,,,,,,,,,,,,,,,,,,,,,,,,,,,,,,,,,,,,,,,,,,,
,,,,,,60dc18e21694539ca0df125a,62c53aa518f098363fc36656,2022-07-06_09h34.23.341,Colour_Asymmetry_Pilot,2022.1.3,Win32,60.31363088,62c50e9c1127f2cd403a315f,0,89,89,28,1,threeone,,,,,,,,,,,,,,,,,,,,,,,,,,,,,,,,,,,,,,,,,,,,,,,,,,,,,,,,,,,,,,,,,,,,,,,,,,,,,,,,,,,,,,,,,,,,,,,,,,,,,,,,,,,,,,,,,,,,,,,,,,,,,,,,,,,,,,,,,,,,,,,,,,,,,,,,,,,,,
,,,,,,60dc18e21694539ca0df125a,62c53aa518f098363fc36656,2022-07-06_09h34.23.341,Colour_Asymmetry_Pilot,2022.1.3,Win32,60.31363088,62c50e9c1127f2cd403a315f,0,90,90,159,1,fourthree,,,,,,,,,,,,,,,,,,,,,,,,,,,,,,,,,,,,,,,,,,,,,,,,,,,,,,,,,,,,,,,,,,,,,,,,,,,,,,,,,,,,,,,,,,,,,,,,,,,,,,,,,,,,,,,,,,,,,,,,,,,,,,,,,,,,,,,,,,,,,,,,,,,,,,,,,,,,,
,,,,,,60dc18e21694539ca0df125a,62c53aa518f098363fc36656,2022-07-06_09h34.23.341,Colour_Asymmetry_Pilot,2022.1.3,Win32,60.31363088,62c50e9c1127f2cd403a315f,0,91,91,29,1,threefour,,,,,,,,,,,,,,,,,,,,,,,,,,,,,,,,,,,,,,,,,,,,,,,,,,,,,,,,,,,,,,,,,,,,,,,,,,,,,,,,,,,,,,,,,,,,,,,,,,,,,,,,,,,,,,,,,,,,,,,,,,,,,,,,,,,,,,,,,,,,,,,,,,,,,,,,,,,,,
,,,,,,60dc18e21694539ca0df125a,62c53aa518f098363fc36656,2022-07-06_09h34.23.341,Colour_Asymmetry_Pilot,2022.1.3,Win32,60.31363088,62c50e9c1127f2cd403a315f,0,92,92,140,1,threeone,,,,,,,,,,,,,,,,,,,,,,,,,,,,,,,,,,,,,,,,,,,,,,,,,,,,,,,,,,,,,,,,,,,,,,,,,,,,,,,,,,,,,,,,,,,,,,,,,,,,,,,,,,,,,,,,,,,,,,,,,,,,,,,,,,,,,,,,,,,,,,,,,,,,,,,,,,,,,
,,,,,,60dc18e21694539ca0df125a,62c53aa518f098363fc36656,2022-07-06_09h34.23.341,Colour_Asymmetry_Pilot,2022.1.3,Win32,60.31363088,62c50e9c1127f2cd403a315f,0,93,93,160,1,onetwo,,,,,,,,,,,,,,,,,,,,,,,,,,,,,,,,,,,,,,,,,,,,,,,,,,,,,,,,,,,,,,,,,,,,,,,,,,,,,,,,,,,,,,,,,,,,,,,,,,,,,,,,,,,,,,,,,,,,,,,,,,,,,,,,,,,,,,,,,,,,,,,,,,,,,,,,,,,,,
,,,,,,60dc18e21694539ca0df125a,62c53aa518f098363fc36656,2022-07-06_09h34.23.341,Colour_Asymmetry_Pilot,2022.1.3,Win32,60.31363088,62c50e9c1127f2cd403a315f,0,94,94,93,1,threefour,,,,,,,,,,,,,,,,,,,,,,,,,,,,,,,,,,,,,,,,,,,,,,,,,,,,,,,,,,,,,,,,,,,,,,,,,,,,,,,,,,,,,,,,,,,,,,,,,,,,,,,,,,,,,,,,,,,,,,,,,,,,,,,,,,,,,,,,,,,,,,,,,,,,,,,,,,,,,
,,,,,,60dc18e21694539ca0df125a,62c53aa518f098363fc36656,2022-07-06_09h34.23.341,Colour_Asymmetry_Pilot,2022.1.3,Win32,60.31363088,62c50e9c1127f2cd403a315f,0,95,95,75,1,twofour,,,,,,,,,,,,,,,,,,,,,,,,,,,,,,,,,,,,,,,,,,,,,,,,,,,,,,,,,,,,,,,,,,,,,,,,,,,,,,,,,,,,,,,,,,,,,,,,,,,,,,,,,,,,,,,,,,,,,,,,,,,,,,,,,,,,,,,,,,,,,,,,,,,,,,,,,,,,,
,,,,,,60dc18e21694539ca0df125a,62c53aa518f098363fc36656,2022-07-06_09h34.23.341,Colour_Asymmetry_Pilot,2022.1.3,Win32,60.31363088,62c50e9c1127f2cd403a315f,0,96,96,6,1,fourtwo,,,,,,,,,,,,,,,,,,,,,,,,,,,,,,,,,,,,,,,,,,,,,,,,,,,,,,,,,,,,,,,,,,,,,,,,,,,,,,,,,,,,,,,,,,,,,,,,,,,,,,,,,,,,,,,,,,,,,,,,,,,,,,,,,,,,,,,,,,,,,,,,,,,,,,,,,,,,,
,,,,,,60dc18e21694539ca0df125a,62c53aa518f098363fc36656,2022-07-06_09h34.23.341,Colour_Asymmetry_Pilot,2022.1.3,Win32,60.31363088,62c50e9c1127f2cd403a315f,0,97,97,139,1,twofour,,,,,,,,,,,,,,,,,,,,,,,,,,,,,,,,,,,,,,,,,,,,,,,,,,,,,,,,,,,,,,,,,,,,,,,,,,,,,,,,,,,,,,,,,,,,,,,,,,,,,,,,,,,,,,,,,,,,,,,,,,,,,,,,,,,,,,,,,,,,,,,,,,,,,,,,,,,,,
,,,,,,60dc18e21694539ca0df125a,62c53aa518f098363fc36656,2022-07-06_09h34.23.341,Colour_Asymmetry_Pilot,2022.1.3,Win32,60.31363088,62c50e9c1127f2cd403a315f,0,98,98,15,1,fourthree,,,,,,,,,,,,,,,,,,,,,,,,,,,,,,,,,,,,,,,,,,,,,,,,,,,,,,,,,,,,,,,,,,,,,,,,,,,,,,,,,,,,,,,,,,,,,,,,,,,,,,,,,,,,,,,,,,,,,,,,,,,,,,,,,,,,,,,,,,,,,,,,,,,,,,,,,,,,,
,,,,,,60dc18e21694539ca0df125a,62c53aa518f098363fc36656,2022-07-06_09h34.23.341,Colour_Asymmetry_Pilot,2022.1.3,Win32,60.31363088,62c50e9c1127f2cd403a315f,0,99,99,73,1,onethree,,,,,,,,,,,,,,,,,,,,,,,,,,,,,,,,,,,,,,,,,,,,,,,,,,,,,,,,,,,,,,,,,,,,,,,,,,,,,,,,,,,,,,,,,,,,,,,,,,,,,,,,,,,,,,,,,,,,,,,,,,,,,,,,,,,,,,,,,,,,,,,,,,,,,,,,,,,,,
,,,,,,60dc18e21694539ca0df125a,62c53aa518f098363fc36656,2022-07-06_09h34.23.341,Colour_Asymmetry_Pilot,2022.1.3,Win32,60.31363088,62c50e9c1127f2cd403a315f,0,100,100,130,1,twoone,,,,,,,,,,,,,,,,,,,,,,,,,,,,,,,,,,,,,,,,,,,,,,,,,,,,,,,,,,,,,,,,,,,,,,,,,,,,,,,,,,,,,,,,,,,,,,,,,,,,,,,,,,,,,,,,,,,,,,,,,,,,,,,,,,,,,,,,,,,,,,,,,,,,,,,,,,,,,
,,,,,,60dc18e21694539ca0df125a,62c53aa518f098363fc36656,2022-07-06_09h34.23.341,Colour_Asymmetry_Pilot,2022.1.3,Win32,60.31363088,62c50e9c1127f2cd403a315f,0,101,101,89,1,onethree,,,,,,,,,,,,,,,,,,,,,,,,,,,,,,,,,,,,,,,,,,,,,,,,,,,,,,,,,,,,,,,,,,,,,,,,,,,,,,,,,,,,,,,,,,,,,,,,,,,,,,,,,,,,,,,,,,,,,,,,,,,,,,,,,,,,,,,,,,,,,,,,,,,,,,,,,,,,,
,,,,,,60dc18e21694539ca0df125a,62c53aa518f098363fc36656,2022-07-06_09h34.23.341,Colour_Asymmetry_Pilot,2022.1.3,Win32,60.31363088,62c50e9c1127f2cd403a315f,0,102,102,54,1,fourtwo,,,,,,,,,,,,,,,,,,,,,,,,,,,,,,,,,,,,,,,,,,,,,,,,,,,,,,,,,,,,,,,,,,,,,,,,,,,,,,,,,,,,,,,,,,,,,,,,,,,,,,,,,,,,,,,,,,,,,,,,,,,,,,,,,,,,,,,,,,,,,,,,,,,,,,,,,,,,,
,,,,,,60dc18e21694539ca0df125a,62c53aa518f098363fc36656,2022-07-06_09h34.23.341,Colour_Asymmetry_Pilot,2022.1.3,Win32,60.31363088,62c50e9c1127f2cd403a315f,0,103,103,21,1,threefour,,,,,,,,,,,,,,,,,,,,,,,,,,,,,,,,,,,,,,,,,,,,,,,,,,,,,,,,,,,,,,,,,,,,,,,,,,,,,,,,,,,,,,,,,,,,,,,,,,,,,,,,,,,,,,,,,,,,,,,,,,,,,,,,,,,,,,,,,,,,,,,,,,,,,,,,,,,,,
,,,,,,60dc18e21694539ca0df125a,62c53aa518f098363fc36656,2022-07-06_09h34.23.341,Colour_Asymmetry_Pilot,2022.1.3,Win32,60.31363088,62c50e9c1127f2cd403a315f,0,104,104,32,1,onetwo,,,,,,,,,,,,,,,,,,,,,,,,,,,,,,,,,,,,,,,,,,,,,,,,,,,,,,,,,,,,,,,,,,,,,,,,,,,,,,,,,,,,,,,,,,,,,,,,,,,,,,,,,,,,,,,,,,,,,,,,,,,,,,,,,,,,,,,,,,,,,,,,,,,,,,,,,,,,,
,,,,,,60dc18e21694539ca0df125a,62c53aa518f098363fc36656,2022-07-06_09h34.23.341,Colour_Asymmetry_Pilot,2022.1.3,Win32,60.31363088,62c50e9c1127f2cd403a315f,0,105,105,8,1,onetwo,,,,,,,,,,,,,,,,,,,,,,,,,,,,,,,,,,,,,,,,,,,,,,,,,,,,,,,,,,,,,,,,,,,,,,,,,,,,,,,,,,,,,,,,,,,,,,,,,,,,,,,,,,,,,,,,,,,,,,,,,,,,,,,,,,,,,,,,,,,,,,,,,,,,,,,,,,,,,
,,,,,,60dc18e21694539ca0df125a,62c53aa518f098363fc36656,2022-07-06_09h34.23.341,Colour_Asymmetry_Pilot,2022.1.3,Win32,60.31363088,62c50e9c1127f2cd403a315f,0,106,106,150,1,fourtwo,,,,,,,,,,,,,,,,,,,,,,,,,,,,,,,,,,,,,,,,,,,,,,,,,,,,,,,,,,,,,,,,,,,,,,,,,,,,,,,,,,,,,,,,,,,,,,,,,,,,,,,,,,,,,,,,,,,,,,,,,,,,,,,,,,,,,,,,,,,,,,,,,,,,,,,,,,,,,
,,,,,,60dc18e21694539ca0df125a,62c53aa518f098363fc36656,2022-07-06_09h34.23.341,Colour_Asymmetry_Pilot,2022.1.3,Win32,60.31363088,62c50e9c1127f2cd403a315f,0,107,107,155,1,twofour,,,,,,,,,,,,,,,,,,,,,,,,,,,,,,,,,,,,,,,,,,,,,,,,,,,,,,,,,,,,,,,,,,,,,,,,,,,,,,,,,,,,,,,,,,,,,,,,,,,,,,,,,,,,,,,,,,,,,,,,,,,,,,,,,,,,,,,,,,,,,,,,,,,,,,,,,,,,,
,,,,,,60dc18e21694539ca0df125a,62c53aa518f098363fc36656,2022-07-06_09h34.23.341,Colour_Asymmetry_Pilot,2022.1.3,Win32,60.31363088,62c50e9c1127f2cd403a315f,0,108,108,149,1,threefour,,,,,,,,,,,,,,,,,,,,,,,,,,,,,,,,,,,,,,,,,,,,,,,,,,,,,,,,,,,,,,,,,,,,,,,,,,,,,,,,,,,,,,,,,,,,,,,,,,,,,,,,,,,,,,,,,,,,,,,,,,,,,,,,,,,,,,,,,,,,,,,,,,,,,,,,,,,,,
,,,,,,60dc18e21694539ca0df125a,62c53aa518f098363fc36656,2022-07-06_09h34.23.341,Colour_Asymmetry_Pilot,2022.1.3,Win32,60.31363088,62c50e9c1127f2cd403a315f,0,109,109,2,1,twoone,,,,,,,,,,,,,,,,,,,,,,,,,,,,,,,,,,,,,,,,,,,,,,,,,,,,,,,,,,,,,,,,,,,,,,,,,,,,,,,,,,,,,,,,,,,,,,,,,,,,,,,,,,,,,,,,,,,,,,,,,,,,,,,,,,,,,,,,,,,,,,,,,,,,,,,,,,,,,
,,,,,,60dc18e21694539ca0df125a,62c53aa518f098363fc36656,2022-07-06_09h34.23.341,Colour_Asymmetry_Pilot,2022.1.3,Win32,60.31363088,62c50e9c1127f2cd403a315f,0,110,110,145,1,onethree,,,,,,,,,,,,,,,,,,,,,,,,,,,,,,,,,,,,,,,,,,,,,,,,,,,,,,,,,,,,,,,,,,,,,,,,,,,,,,,,,,,,,,,,,,,,,,,,,,,,,,,,,,,,,,,,,,,,,,,,,,,,,,,,,,,,,,,,,,,,,,,,,,,,,,,,,,,,,
,,,,,,60dc18e21694539ca0df125a,62c53aa518f098363fc36656,2022-07-06_09h34.23.341,Colour_Asymmetry_Pilot,2022.1.3,Win32,60.31363088,62c50e9c1127f2cd403a315f,0,111,111,11,1,twofour,,,,,,,,,,,,,,,,,,,,,,,,,,,,,,,,,,,,,,,,,,,,,,,,,,,,,,,,,,,,,,,,,,,,,,,,,,,,,,,,,,,,,,,,,,,,,,,,,,,,,,,,,,,,,,,,,,,,,,,,,,,,,,,,,,,,,,,,,,,,,,,,,,,,,,,,,,,,,
,,,,,,60dc18e21694539ca0df125a,62c53aa518f098363fc36656,2022-07-06_09h34.23.341,Colour_Asymmetry_Pilot,2022.1.3,Win32,60.31363088,62c50e9c1127f2cd403a315f,0,112,112,13,1,threefour,,,,,,,,,,,,,,,,,,,,,,,,,,,,,,,,,,,,,,,,,,,,,,,,,,,,,,,,,,,,,,,,,,,,,,,,,,,,,,,,,,,,,,,,,,,,,,,,,,,,,,,,,,,,,,,,,,,,,,,,,,,,,,,,,,,,,,,,,,,,,,,,,,,,,,,,,,,,,
,,,,,,60dc18e21694539ca0df125a,62c53aa518f098363fc36656,2022-07-06_09h34.23.341,Colour_Asymmetry_Pilot,2022.1.3,Win32,60.31363088,62c50e9c1127f2cd403a315f,0,113,113,107,1,twofour,,,,,,,,,,,,,,,,,,,,,,,,,,,,,,,,,,,,,,,,,,,,,,,,,,,,,,,,,,,,,,,,,,,,,,,,,,,,,,,,,,,,,,,,,,,,,,,,,,,,,,,,,,,,,,,,,,,,,,,,,,,,,,,,,,,,,,,,,,,,,,,,,,,,,,,,,,,,,
,,,,,,60dc18e21694539ca0df125a,62c53aa518f098363fc36656,2022-07-06_09h34.23.341,Colour_Asymmetry_Pilot,2022.1.3,Win32,60.31363088,62c50e9c1127f2cd403a315f,0,114,114,30,1,fourtwo,,,,,,,,,,,,,,,,,,,,,,,,,,,,,,,,,,,,,,,,,,,,,,,,,,,,,,,,,,,,,,,,,,,,,,,,,,,,,,,,,,,,,,,,,,,,,,,,,,,,,,,,,,,,,,,,,,,,,,,,,,,,,,,,,,,,,,,,,,,,,,,,,,,,,,,,,,,,,
,,,,,,60dc18e21694539ca0df125a,62c53aa518f098363fc36656,2022-07-06_09h34.23.341,Colour_Asymmetry_Pilot,2022.1.3,Win32,60.31363088,62c50e9c1127f2cd403a315f,0,115,115,158,1,fourtwo,,,,,,,,,,,,,,,,,,,,,,,,,,,,,,,,,,,,,,,,,,,,,,,,,,,,,,,,,,,,,,,,,,,,,,,,,,,,,,,,,,,,,,,,,,,,,,,,,,,,,,,,,,,,,,,,,,,,,,,,,,,,,,,,,,,,,,,,,,,,,,,,,,,,,,,,,,,,,
,,,,,,60dc18e21694539ca0df125a,62c53aa518f098363fc36656,2022-07-06_09h34.23.341,Colour_Asymmetry_Pilot,2022.1.3,Win32,60.31363088,62c50e9c1127f2cd403a315f,0,116,116,109,1,threefour,,,,,,,,,,,,,,,,,,,,,,,,,,,,,,,,,,,,,,,,,,,,,,,,,,,,,,,,,,,,,,,,,,,,,,,,,,,,,,,,,,,,,,,,,,,,,,,,,,,,,,,,,,,,,,,,,,,,,,,,,,,,,,,,,,,,,,,,,,,,,,,,,,,,,,,,,,,,,
,,,,,,60dc18e21694539ca0df125a,62c53aa518f098363fc36656,2022-07-06_09h34.23.341,Colour_Asymmetry_Pilot,2022.1.3,Win32,60.31363088,62c50e9c1127f2cd403a315f,0,117,117,31,1,fourthree,,,,,,,,,,,,,,,,,,,,,,,,,,,,,,,,,,,,,,,,,,,,,,,,,,,,,,,,,,,,,,,,,,,,,,,,,,,,,,,,,,,,,,,,,,,,,,,,,,,,,,,,,,,,,,,,,,,,,,,,,,,,,,,,,,,,,,,,,,,,,,,,,,,,,,,,,,,,,
,,,,,,60dc18e21694539ca0df125a,62c53aa518f098363fc36656,2022-07-06_09h34.23.341,Colour_Asymmetry_Pilot,2022.1.3,Win32,60.31363088,62c50e9c1127f2cd403a315f,0,118,118,153,1,onethree,,,,,,,,,,,,,,,,,,,,,,,,,,,,,,,,,,,,,,,,,,,,,,,,,,,,,,,,,,,,,,,,,,,,,,,,,,,,,,,,,,,,,,,,,,,,,,,,,,,,,,,,,,,,,,,,,,,,,,,,,,,,,,,,,,,,,,,,,,,,,,,,,,,,,,,,,,,,,
,,,,,,60dc18e21694539ca0df125a,62c53aa518f098363fc36656,2022-07-06_09h34.23.341,Colour_Asymmetry_Pilot,2022.1.3,Win32,60.31363088,62c50e9c1127f2cd403a315f,0,119,119,63,1,fourthree,,,,,,,,,,,,,,,,,,,,,,,,,,,,,,,,,,,,,,,,,,,,,,,,,,,,,,,,,,,,,,,,,,,,,,,,,,,,,,,,,,,,,,,,,,,,,,,,,,,,,,,,,,,,,,,,,,,,,,,,,,,,,,,,,,,,,,,,,,,,,,,,,,,,,,,,,,,,,
,,,,,,60dc18e21694539ca0df125a,62c53aa518f098363fc36656,2022-07-06_09h34.23.341,Colour_Asymmetry_Pilot,2022.1.3,Win32,60.31363088,62c50e9c1127f2cd403a315f,0,120,120,74,1,twoone,,,,,,,,,,,,,,,,,,,,,,,,,,,,,,,,,,,,,,,,,,,,,,,,,,,,,,,,,,,,,,,,,,,,,,,,,,,,,,,,,,,,,,,,,,,,,,,,,,,,,,,,,,,,,,,,,,,,,,,,,,,,,,,,,,,,,,,,,,,,,,,,,,,,,,,,,,,,,
,,,,,,60dc18e21694539ca0df125a,62c53aa518f098363fc36656,2022-07-06_09h34.23.341,Colour_Asymmetry_Pilot,2022.1.3,Win32,60.31363088,62c50e9c1127f2cd403a315f,0,121,121,120,1,onetwo,,,,,,,,,,,,,,,,,,,,,,,,,,,,,,,,,,,,,,,,,,,,,,,,,,,,,,,,,,,,,,,,,,,,,,,,,,,,,,,,,,,,,,,,,,,,,,,,,,,,,,,,,,,,,,,,,,,,,,,,,,,,,,,,,,,,,,,,,,,,,,,,,,,,,,,,,,,,,
,,,,,,60dc18e21694539ca0df125a,62c53aa518f098363fc36656,2022-07-06_09h34.23.341,Colour_Asymmetry_Pilot,2022.1.3,Win32,60.31363088,62c50e9c1127f2cd403a315f,0,122,122,121,1,onethree,,,,,,,,,,,,,,,,,,,,,,,,,,,,,,,,,,,,,,,,,,,,,,,,,,,,,,,,,,,,,,,,,,,,,,,,,,,,,,,,,,,,,,,,,,,,,,,,,,,,,,,,,,,,,,,,,,,,,,,,,,,,,,,,,,,,,,,,,,,,,,,,,,,,,,,,,,,,,
,,,,,,60dc18e21694539ca0df125a,62c53aa518f098363fc36656,2022-07-06_09h34.23.341,Colour_Asymmetry_Pilot,2022.1.3,Win32,60.31363088,62c50e9c1127f2cd403a315f,0,123,123,78,1,fourtwo,,,,,,,,,,,,,,,,,,,,,,,,,,,,,,,,,,,,,,,,,,,,,,,,,,,,,,,,,,,,,,,,,,,,,,,,,,,,,,,,,,,,,,,,,,,,,,,,,,,,,,,,,,,,,,,,,,,,,,,,,,,,,,,,,,,,,,,,,,,,,,,,,,,,,,,,,,,,,
,,,,,,60dc18e21694539ca0df125a,62c53aa518f098363fc36656,2022-07-06_09h34.23.341,Colour_Asymmetry_Pilot,2022.1.3,Win32,60.31363088,62c50e9c1127f2cd403a315f,0,124,124,48,1,onetwo,,,,,,,,,,,,,,,,,,,,,,,,,,,,,,,,,,,,,,,,,,,,,,,,,,,,,,,,,,,,,,,,,,,,,,,,,,,,,,,,,,,,,,,,,,,,,,,,,,,,,,,,,,,,,,,,,,,,,,,,,,,,,,,,,,,,,,,,,,,,,,,,,,,,,,,,,,,,,
,,,,,,60dc18e21694539ca0df125a,62c53aa518f098363fc36656,2022-07-06_09h34.23.341,Colour_Asymmetry_Pilot,2022.1.3,Win32,60.31363088,62c50e9c1127f2cd403a315f,0,125,125,47,1,fourthree,,,,,,,,,,,,,,,,,,,,,,,,,,,,,,,,,,,,,,,,,,,,,,,,,,,,,,,,,,,,,,,,,,,,,,,,,,,,,,,,,,,,,,,,,,,,,,,,,,,,,,,,,,,,,,,,,,,,,,,,,,,,,,,,,,,,,,,,,,,,,,,,,,,,,,,,,,,,,
,,,,,,60dc18e21694539ca0df125a,62c53aa518f098363fc36656,2022-07-06_09h34.23.341,Colour_Asymmetry_Pilot,2022.1.3,Win32,60.31363088,62c50e9c1127f2cd403a315f,0,126,126,36,1,threeone,,,,,,,,,,,,,,,,,,,,,,,,,,,,,,,,,,,,,,,,,,,,,,,,,,,,,,,,,,,,,,,,,,,,,,,,,,,,,,,,,,,,,,,,,,,,,,,,,,,,,,,,,,,,,,,,,,,,,,,,,,,,,,,,,,,,,,,,,,,,,,,,,,,,,,,,,,,,,
,,,,,,60dc18e21694539ca0df125a,62c53aa518f098363fc36656,2022-07-06_09h34.23.341,Colour_Asymmetry_Pilot,2022.1.3,Win32,60.31363088,62c50e9c1127f2cd403a315f,0,127,127,156,1,threeone,,,,,,,,,,,,,,,,,,,,,,,,,,,,,,,,,,,,,,,,,,,,,,,,,,,,,,,,,,,,,,,,,,,,,,,,,,,,,,,,,,,,,,,,,,,,,,,,,,,,,,,,,,,,,,,,,,,,,,,,,,,,,,,,,,,,,,,,,,,,,,,,,,,,,,,,,,,,,
,,,,,,60dc18e21694539ca0df125a,62c53aa518f098363fc36656,2022-07-06_09h34.23.341,Colour_Asymmetry_Pilot,2022.1.3,Win32,60.31363088,62c50e9c1127f2cd403a315f,0,128,128,144,1,onetwo,,,,,,,,,,,,,,,,,,,,,,,,,,,,,,,,,,,,,,,,,,,,,,,,,,,,,,,,,,,,,,,,,,,,,,,,,,,,,,,,,,,,,,,,,,,,,,,,,,,,,,,,,,,,,,,,,,,,,,,,,,,,,,,,,,,,,,,,,,,,,,,,,,,,,,,,,,,,,
,,,,,,60dc18e21694539ca0df125a,62c53aa518f098363fc36656,2022-07-06_09h34.23.341,Colour_Asymmetry_Pilot,2022.1.3,Win32,60.31363088,62c50e9c1127f2cd403a315f,0,129,129,49,1,onethree,,,,,,,,,,,,,,,,,,,,,,,,,,,,,,,,,,,,,,,,,,,,,,,,,,,,,,,,,,,,,,,,,,,,,,,,,,,,,,,,,,,,,,,,,,,,,,,,,,,,,,,,,,,,,,,,,,,,,,,,,,,,,,,,,,,,,,,,,,,,,,,,,,,,,,,,,,,,,
,,,,,,60dc18e21694539ca0df125a,62c53aa518f098363fc36656,2022-07-06_09h34.23.341,Colour_Asymmetry_Pilot,2022.1.3,Win32,60.31363088,62c50e9c1127f2cd403a315f,0,130,130,65,1,onethree,,,,,,,,,,,,,,,,,,,,,,,,,,,,,,,,,,,,,,,,,,,,,,,,,,,,,,,,,,,,,,,,,,,,,,,,,,,,,,,,,,,,,,,,,,,,,,,,,,,,,,,,,,,,,,,,,,,,,,,,,,,,,,,,,,,,,,,,,,,,,,,,,,,,,,,,,,,,,
,,,,,,60dc18e21694539ca0df125a,62c53aa518f098363fc36656,2022-07-06_09h34.23.341,Colour_Asymmetry_Pilot,2022.1.3,Win32,60.31363088,62c50e9c1127f2cd403a315f,0,131,131,157,1,threefour,,,,,,,,,,,,,,,,,,,,,,,,,,,,,,,,,,,,,,,,,,,,,,,,,,,,,,,,,,,,,,,,,,,,,,,,,,,,,,,,,,,,,,,,,,,,,,,,,,,,,,,,,,,,,,,,,,,,,,,,,,,,,,,,,,,,,,,,,,,,,,,,,,,,,,,,,,,,,
,,,,,,60dc18e21694539ca0df125a,62c53aa518f098363fc36656,2022-07-06_09h34.23.341,Colour_Asymmetry_Pilot,2022.1.3,Win32,60.31363088,62c50e9c1127f2cd403a315f,0,132,132,59,1,twofour,,,,,,,,,,,,,,,,,,,,,,,,,,,,,,,,,,,,,,,,,,,,,,,,,,,,,,,,,,,,,,,,,,,,,,,,,,,,,,,,,,,,,,,,,,,,,,,,,,,,,,,,,,,,,,,,,,,,,,,,,,,,,,,,,,,,,,,,,,,,,,,,,,,,,,,,,,,,,
,,,,,,60dc18e21694539ca0df125a,62c53aa518f098363fc36656,2022-07-06_09h34.23.341,Colour_Asymmetry_Pilot,2022.1.3,Win32,60.31363088,62c50e9c1127f2cd403a315f,0,133,133,62,1,fourtwo,,,,,,,,,,,,,,,,,,,,,,,,,,,,,,,,,,,,,,,,,,,,,,,,,,,,,,,,,,,,,,,,,,,,,,,,,,,,,,,,,,,,,,,,,,,,,,,,,,,,,,,,,,,,,,,,,,,,,,,,,,,,,,,,,,,,,,,,,,,,,,,,,,,,,,,,,,,,,
,,,,,,60dc18e21694539ca0df125a,62c53aa518f098363fc36656,2022-07-06_09h34.23.341,Colour_Asymmetry_Pilot,2022.1.3,Win32,60.31363088,62c50e9c1127f2cd403a315f,0,134,134,53,1,threefour,,,,,,,,,,,,,,,,,,,,,,,,,,,,,,,,,,,,,,,,,,,,,,,,,,,,,,,,,,,,,,,,,,,,,,,,,,,,,,,,,,,,,,,,,,,,,,,,,,,,,,,,,,,,,,,,,,,,,,,,,,,,,,,,,,,,,,,,,,,,,,,,,,,,,,,,,,,,,
,,,,,,60dc18e21694539ca0df125a,62c53aa518f098363fc36656,2022-07-06_09h34.23.341,Colour_Asymmetry_Pilot,2022.1.3,Win32,60.31363088,62c50e9c1127f2cd403a315f,0,135,135,143,1,fourthree,,,,,,,,,,,,,,,,,,,,,,,,,,,,,,,,,,,,,,,,,,,,,,,,,,,,,,,,,,,,,,,,,,,,,,,,,,,,,,,,,,,,,,,,,,,,,,,,,,,,,,,,,,,,,,,,,,,,,,,,,,,,,,,,,,,,,,,,,,,,,,,,,,,,,,,,,,,,,
,,,,,,60dc18e21694539ca0df125a,62c53aa518f098363fc36656,2022-07-06_09h34.23.341,Colour_Asymmetry_Pilot,2022.1.3,Win32,60.31363088,62c50e9c1127f2cd403a315f,0,136,136,55,1,fourthree,,,,,,,,,,,,,,,,,,,,,,,,,,,,,,,,,,,,,,,,,,,,,,,,,,,,,,,,,,,,,,,,,,,,,,,,,,,,,,,,,,,,,,,,,,,,,,,,,,,,,,,,,,,,,,,,,,,,,,,,,,,,,,,,,,,,,,,,,,,,,,,,,,,,,,,,,,,,,
,,,,,,60dc18e21694539ca0df125a,62c53aa518f098363fc36656,2022-07-06_09h34.23.341,Colour_Asymmetry_Pilot,2022.1.3,Win32,60.31363088,62c50e9c1127f2cd403a315f,0,137,137,161,1,onethree,,,,,,,,,,,,,,,,,,,,,,,,,,,,,,,,,,,,,,,,,,,,,,,,,,,,,,,,,,,,,,,,,,,,,,,,,,,,,,,,,,,,,,,,,,,,,,,,,,,,,,,,,,,,,,,,,,,,,,,,,,,,,,,,,,,,,,,,,,,,,,,,,,,,,,,,,,,,,
,,,,,,60dc18e21694539ca0df125a,62c53aa518f098363fc36656,2022-07-06_09h34.23.341,Colour_Asymmetry_Pilot,2022.1.3,Win32,60.31363088,62c50e9c1127f2cd403a315f,0,138,138,118,1,fourtwo,,,,,,,,,,,,,,,,,,,,,,,,,,,,,,,,,,,,,,,,,,,,,,,,,,,,,,,,,,,,,,,,,,,,,,,,,,,,,,,,,,,,,,,,,,,,,,,,,,,,,,,,,,,,,,,,,,,,,,,,,,,,,,,,,,,,,,,,,,,,,,,,,,,,,,,,,,,,,
,,,,,,60dc18e21694539ca0df125a,62c53aa518f098363fc36656,2022-07-06_09h34.23.341,Colour_Asymmetry_Pilot,2022.1.3,Win32,60.31363088,62c50e9c1127f2cd403a315f,0,139,139,26,1,twoone,,,,,,,,,,,,,,,,,,,,,,,,,,,,,,,,,,,,,,,,,,,,,,,,,,,,,,,,,,,,,,,,,,,,,,,,,,,,,,,,,,,,,,,,,,,,,,,,,,,,,,,,,,,,,,,,,,,,,,,,,,,,,,,,,,,,,,,,,,,,,,,,,,,,,,,,,,,,,
,,,,,,60dc18e21694539ca0df125a,62c53aa518f098363fc36656,2022-07-06_09h34.23.341,Colour_Asymmetry_Pilot,2022.1.3,Win32,60.31363088,62c50e9c1127f2cd403a315f,0,140,140,42,1,twoone,,,,,,,,,,,,,,,,,,,,,,,,,,,,,,,,,,,,,,,,,,,,,,,,,,,,,,,,,,,,,,,,,,,,,,,,,,,,,,,,,,,,,,,,,,,,,,,,,,,,,,,,,,,,,,,,,,,,,,,,,,,,,,,,,,,,,,,,,,,,,,,,,,,,,,,,,,,,,
,,,,,,60dc18e21694539ca0df125a,62c53aa518f098363fc36656,2022-07-06_09h34.23.341,Colour_Asymmetry_Pilot,2022.1.3,Win32,60.31363088,62c50e9c1127f2cd403a315f,0,141,141,24,1,onetwo,,,,,,,,,,,,,,,,,,,,,,,,,,,,,,,,,,,,,,,,,,,,,,,,,,,,,,,,,,,,,,,,,,,,,,,,,,,,,,,,,,,,,,,,,,,,,,,,,,,,,,,,,,,,,,,,,,,,,,,,,,,,,,,,,,,,,,,,,,,,,,,,,,,,,,,,,,,,,
,,,,,,60dc18e21694539ca0df125a,62c53aa518f098363fc36656,2022-07-06_09h34.23.341,Colour_Asymmetry_Pilot,2022.1.3,Win32,60.31363088,62c50e9c1127f2cd403a315f,0,142,142,99,1,twofour,,,,,,,,,,,,,,,,,,,,,,,,,,,,,,,,,,,,,,,,,,,,,,,,,,,,,,,,,,,,,,,,,,,,,,,,,,,,,,,,,,,,,,,,,,,,,,,,,,,,,,,,,,,,,,,,,,,,,,,,,,,,,,,,,,,,,,,,,,,,,,,,,,,,,,,,,,,,,
,,,,,,60dc18e21694539ca0df125a,62c53aa518f098363fc36656,2022-07-06_09h34.23.341,Colour_Asymmetry_Pilot,2022.1.3,Win32,60.31363088,62c50e9c1127f2cd403a315f,0,143,143,77,1,threefour,,,,,,,,,,,,,,,,,,,,,,,,,,,,,,,,,,,,,,,,,,,,,,,,,,,,,,,,,,,,,,,,,,,,,,,,,,,,,,,,,,,,,,,,,,,,,,,,,,,,,,,,,,,,,,,,,,,,,,,,,,,,,,,,,,,,,,,,,,,,,,,,,,,,,,,,,,,,,
,,,,,,60dc18e21694539ca0df125a,62c53aa518f098363fc36656,2022-07-06_09h34.23.341,Colour_Asymmetry_Pilot,2022.1.3,Win32,60.31363088,62c50e9c1127f2cd403a315f,0,144,144,43,1,twofour,,,,,,,,,,,,,,,,,,,,,,,,,,,,,,,,,,,,,,,,,,,,,,,,,,,,,,,,,,,,,,,,,,,,,,,,,,,,,,,,,,,,,,,,,,,,,,,,,,,,,,,,,,,,,,,,,,,,,,,,,,,,,,,,,,,,,,,,,,,,,,,,,,,,,,,,,,,,,
,,,,,,60dc18e21694539ca0df125a,62c53aa518f098363fc36656,2022-07-06_09h34.23.341,Colour_Asymmetry_Pilot,2022.1.3,Win32,60.31363088,62c50e9c1127f2cd403a315f,0,145,145,106,1,twoone,,,,,,,,,,,,,,,,,,,,,,,,,,,,,,,,,,,,,,,,,,,,,,,,,,,,,,,,,,,,,,,,,,,,,,,,,,,,,,,,,,,,,,,,,,,,,,,,,,,,,,,,,,,,,,,,,,,,,,,,,,,,,,,,,,,,,,,,,,,,,,,,,,,,,,,,,,,,,
,,,,,,60dc18e21694539ca0df125a,62c53aa518f098363fc36656,2022-07-06_09h34.23.341,Colour_Asymmetry_Pilot,2022.1.3,Win32,60.31363088,62c50e9c1127f2cd403a315f,0,146,146,119,1,fourthree,,,,,,,,,,,,,,,,,,,,,,,,,,,,,,,,,,,,,,,,,,,,,,,,,,,,,,,,,,,,,,,,,,,,,,,,,,,,,,,,,,,,,,,,,,,,,,,,,,,,,,,,,,,,,,,,,,,,,,,,,,,,,,,,,,,,,,,,,,,,,,,,,,,,,,,,,,,,,
,,,,,,60dc18e21694539ca0df125a,62c53aa518f098363fc36656,2022-07-06_09h34.23.341,Colour_Asymmetry_Pilot,2022.1.3,Win32,60.31363088,62c50e9c1127f2cd403a315f,0,147,147,70,1,fourtwo,,,,,,,,,,,,,,,,,,,,,,,,,,,,,,,,,,,,,,,,,,,,,,,,,,,,,,,,,,,,,,,,,,,,,,,,,,,,,,,,,,,,,,,,,,,,,,,,,,,,,,,,,,,,,,,,,,,,,,,,,,,,,,,,,,,,,,,,,,,,,,,,,,,,,,,,,,,,,
,,,,,,60dc18e21694539ca0df125a,62c53aa518f098363fc36656,2022-07-06_09h34.23.341,Colour_Asymmetry_Pilot,2022.1.3,Win32,60.31363088,62c50e9c1127f2cd403a315f,0,148,148,3,1,twofour,,,,,,,,,,,,,,,,,,,,,,,,,,,,,,,,,,,,,,,,,,,,,,,,,,,,,,,,,,,,,,,,,,,,,,,,,,,,,,,,,,,,,,,,,,,,,,,,,,,,,,,,,,,,,,,,,,,,,,,,,,,,,,,,,,,,,,,,,,,,,,,,,,,,,,,,,,,,,
,,,,,,60dc18e21694539ca0df125a,62c53aa518f098363fc36656,2022-07-06_09h34.23.341,Colour_Asymmetry_Pilot,2022.1.3,Win32,60.31363088,62c50e9c1127f2cd403a315f,0,149,149,16,1,onetwo,,,,,,,,,,,,,,,,,,,,,,,,,,,,,,,,,,,,,,,,,,,,,,,,,,,,,,,,,,,,,,,,,,,,,,,,,,,,,,,,,,,,,,,,,,,,,,,,,,,,,,,,,,,,,,,,,,,,,,,,,,,,,,,,,,,,,,,,,,,,,,,,,,,,,,,,,,,,,
,,,,,,60dc18e21694539ca0df125a,62c53aa518f098363fc36656,2022-07-06_09h34.23.341,Colour_Asymmetry_Pilot,2022.1.3,Win32,60.31363088,62c50e9c1127f2cd403a315f,0,150,150,60,1,threeone,,,,,,,,,,,,,,,,,,,,,,,,,,,,,,,,,,,,,,,,,,,,,,,,,,,,,,,,,,,,,,,,,,,,,,,,,,,,,,,,,,,,,,,,,,,,,,,,,,,,,,,,,,,,,,,,,,,,,,,,,,,,,,,,,,,,,,,,,,,,,,,,,,,,,,,,,,,,,
,,,,,,60dc18e21694539ca0df125a,62c53aa518f098363fc36656,2022-07-06_09h34.23.341,Colour_Asymmetry_Pilot,2022.1.3,Win32,60.31363088,62c50e9c1127f2cd403a315f,0,151,151,122,1,twoone,,,,,,,,,,,,,,,,,,,,,,,,,,,,,,,,,,,,,,,,,,,,,,,,,,,,,,,,,,,,,,,,,,,,,,,,,,,,,,,,,,,,,,,,,,,,,,,,,,,,,,,,,,,,,,,,,,,,,,,,,,,,,,,,,,,,,,,,,,,,,,,,,,,,,,,,,,,,,
,,,,,,60dc18e21694539ca0df125a,62c53aa518f098363fc36656,2022-07-06_09h34.23.341,Colour_Asymmetry_Pilot,2022.1.3,Win32,60.31363088,62c50e9c1127f2cd403a315f,0,152,152,14,1,fourtwo,,,,,,,,,,,,,,,,,,,,,,,,,,,,,,,,,,,,,,,,,,,,,,,,,,,,,,,,,,,,,,,,,,,,,,,,,,,,,,,,,,,,,,,,,,,,,,,,,,,,,,,,,,,,,,,,,,,,,,,,,,,,,,,,,,,,,,,,,,,,,,,,,,,,,,,,,,,,,
,,,,,,60dc18e21694539ca0df125a,62c53aa518f098363fc36656,2022-07-06_09h34.23.341,Colour_Asymmetry_Pilot,2022.1.3,Win32,60.31363088,62c50e9c1127f2cd403a315f,0,153,153,84,1,threeone,,,,,,,,,,,,,,,,,,,,,,,,,,,,,,,,,,,,,,,,,,,,,,,,,,,,,,,,,,,,,,,,,,,,,,,,,,,,,,,,,,,,,,,,,,,,,,,,,,,,,,,,,,,,,,,,,,,,,,,,,,,,,,,,,,,,,,,,,,,,,,,,,,,,,,,,,,,,,
,,,,,,60dc18e21694539ca0df125a,62c53aa518f098363fc36656,2022-07-06_09h34.23.341,Colour_Asymmetry_Pilot,2022.1.3,Win32,60.31363088,62c50e9c1127f2cd403a315f,0,154,154,40,1,onetwo,,,,,,,,,,,,,,,,,,,,,,,,,,,,,,,,,,,,,,,,,,,,,,,,,,,,,,,,,,,,,,,,,,,,,,,,,,,,,,,,,,,,,,,,,,,,,,,,,,,,,,,,,,,,,,,,,,,,,,,,,,,,,,,,,,,,,,,,,,,,,,,,,,,,,,,,,,,,,
,,,,,,60dc18e21694539ca0df125a,62c53aa518f098363fc36656,2022-07-06_09h34.23.341,Colour_Asymmetry_Pilot,2022.1.3,Win32,60.31363088,62c50e9c1127f2cd403a315f,0,155,155,133,1,threefour,,,,,,,,,,,,,,,,,,,,,,,,,,,,,,,,,,,,,,,,,,,,,,,,,,,,,,,,,,,,,,,,,,,,,,,,,,,,,,,,,,,,,,,,,,,,,,,,,,,,,,,,,,,,,,,,,,,,,,,,,,,,,,,,,,,,,,,,,,,,,,,,,,,,,,,,,,,,,
,,,,,,60dc18e21694539ca0df125a,62c53aa518f098363fc36656,2022-07-06_09h34.23.341,Colour_Asymmetry_Pilot,2022.1.3,Win32,60.31363088,62c50e9c1127f2cd403a315f,0,156,156,19,1,twofour,,,,,,,,,,,,,,,,,,,,,,,,,,,,,,,,,,,,,,,,,,,,,,,,,,,,,,,,,,,,,,,,,,,,,,,,,,,,,,,,,,,,,,,,,,,,,,,,,,,,,,,,,,,,,,,,,,,,,,,,,,,,,,,,,,,,,,,,,,,,,,,,,,,,,,,,,,,,,
,,,,,,60dc18e21694539ca0df125a,62c53aa518f098363fc36656,2022-07-06_09h34.23.341,Colour_Asymmetry_Pilot,2022.1.3,Win32,60.31363088,62c50e9c1127f2cd403a315f,0,157,157,111,1,fourthree,,,,,,,,,,,,,,,,,,,,,,,,,,,,,,,,,,,,,,,,,,,,,,,,,,,,,,,,,,,,,,,,,,,,,,,,,,,,,,,,,,,,,,,,,,,,,,,,,,,,,,,,,,,,,,,,,,,,,,,,,,,,,,,,,,,,,,,,,,,,,,,,,,,,,,,,,,,,,
,,,,,,60dc18e21694539ca0df125a,62c53aa518f098363fc36656,2022-07-06_09h34.23.341,Colour_Asymmetry_Pilot,2022.1.3,Win32,60.31363088,62c50e9c1127f2cd403a315f,0,158,158,103,1,fourthree,,,,,,,,,,,,,,,,,,,,,,,,,,,,,,,,,,,,,,,,,,,,,,,,,,,,,,,,,,,,,,,,,,,,,,,,,,,,,,,,,,,,,,,,,,,,,,,,,,,,,,,,,,,,,,,,,,,,,,,,,,,,,,,,,,,,,,,,,,,,,,,,,,,,,,,,,,,,,
,,,,,,60dc18e21694539ca0df125a,62c53aa518f098363fc36656,2022-07-06_09h34.23.341,Colour_Asymmetry_Pilot,2022.1.3,Win32,60.31363088,62c50e9c1127f2cd403a315f,0,159,159,57,1,onethree,,,,,,,,,,,,,,,,,,,,,,,,,,,,,,,,,,,,,,,,,,,,,,,,,,,,,,,,,,,,,,,,,,,,,,,,,,,,,,,,,,,,,,,,,,,,,,,,,,,,,,,,,,,,,,,,,,,,,,,,,,,,,,,,,,,,,,,,,,,,,,,,,,,,,,,,,,,,,
,,,,,,60dc18e21694539ca0df125a,62c53aa518f098363fc36656,2022-07-06_09h34.23.341,Colour_Asymmetry_Pilot,2022.1.3,Win32,60.31363088,62c50e9c1127f2cd403a315f,0,160,160,58,1,twoone,,,,,,,,,,,,,,,,,,,,,,,,,,,,,,,,,,,,,,,,,,,,,,,,,,,,,,,,,,,,,,,,,,,,,,,,,,,,,,,,,,,,,,,,,,,,,,,,,,,,,,,,,,,,,,,,,,,,,,,,,,,,,,,,,,,,,,,,,,,,,,,,,,,,,,,,,,,,,
,,,,,,60dc18e21694539ca0df125a,62c53aa518f098363fc36656,2022-07-06_09h34.23.341,Colour_Asymmetry_Pilot,2022.1.3,Win32,60.31363088,62c50e9c1127f2cd403a315f,0,161,161,87,1,fourthree,,,,,,,,,,,,,,,,,,,,,,,,,,,,,,,,,,,,,,,,,,,,,,,,,,,,,,,,,,,,,,,,,,,,,,,,,,,,,,,,,,,,,,,,,,,,,,,,,,,,,,,,,,,,,,,,,,,,,,,,,,,,,,,,,,,,,,,,,,,,,,,,,,,,,,,,,,,,,
,,,,,,60dc18e21694539ca0df125a,62c53aa518f098363fc36656,2022-07-06_09h34.23.341,Colour_Asymmetry_Pilot,2022.1.3,Win32,60.31363088,62c50e9c1127f2cd403a315f,,,,,,,space,12.9305,space,20.715,space,32.1409,space,16.6441,space,1.3682,space,4.2046,"[-0.17659999999999998,0.3253999999999999,0.19999999999999996]",twofour,"[-0.9216,-0.5529999999999999,-0.3962]",3,6.2954,72.79998779,28.79998779,1,0,0,response1disk_5,9.600036621,-4.800018311,1,0,0,rectangle_8,9.600036621,-4.800018311,1,0,0,3,9.600036621,-4.800018311,1,0,0,0,0,0,0,1,,,,,,,,,,,,,,,,,,,,,,,,,,,,,,,,,,,,,,,,,,,,,,,,,,,,,,,,,,,,,,,,,,,,,,,,,,,,,,,,,,,,,,,,,,,,,,,,,,,,,,,,,,,,,,,,
,,,,,,60dc18e21694539ca0df125a,62c53aa518f098363fc36656,2022-07-06_09h34.23.341,Colour_Asymmetry_Pilot,2022.1.3,Win32,60.31363088,62c50e9c1127f2cd403a315f,,,,,,,,,,,,,,,,,,,"[-0.6,0.16860000000000008,0.44300000000000006]",threeone,"[1,0.12939999999999996,-1]",-3,13.4388,-48.79998779,35.19998169,1,0,0,response7disk_5,25.60003662,-13.60003662,1,0,0,rectangle_8,25.60003662,-13.60003662,1,0,0,3,25.60003662,-13.60003662,1,0,0,1,0,1,0,1,5,,,,,,,,,,,,,,,,,,,,,,,,,,,,,,,,,,,,,,,,,,,,,,,,,,,,,,,,,,,,,,,,,,,,,,,,,,,,,,,,,,,,,,,,,,,,,,,,,,,,,,,,,,,,,,,
,,,,,,60dc18e21694539ca0df125a,62c53aa518f098363fc36656,2022-07-06_09h34.23.341,Colour_Asymmetry_Pilot,2022.1.3,Win32,60.31363088,62c50e9c1127f2cd403a315f,,,,,,,,,,,,,,,,,,,"[-0.6706000000000001,-0.6157999999999999,-0.6786]",threeone,"[-0.8982,-0.37259999999999993,0.2784]",-1,6.6073,-35.20001221,-71.20001221,1,0,0,response5disk_5,-2.399963379,3.199981689,1,0,0,rectangle_8,68,24,1,0,0,3,26.40002441,-4.800018311,1,0,0,2,0,2,0,1,6,response1disk_7,rectangle_4,,,,,,,,,,,,,,,,,,,,,,,,,,,,,,,,,,,,,,,,,,,,,,,,,,,,,,,,,,,,,,,,,,,,,,,,,,,,,,,,,,,,,,,,,,,,,,,,,,,,,,,,,,,,,
,,,,,,60dc18e21694539ca0df125a,62c53aa518f098363fc36656,2022-07-06_09h34.23.341,Colour_Asymmetry_Pilot,2022.1.3,Win32,60.31363088,62c50e9c1127f2cd403a315f,,,,,,,,,,,,,,,,,,,"[0.6547999999999998,-0.043199999999999905,-0.011800000000000033]",threefour,"[-0.8982,-0.37259999999999993,0.2784]",-3,1.756,-72.79998779,39.19998169,1,0,0,response7disk_5,2.400024414,-8.800018311,1,0,0,rectangle_8,2.400024414,-8.800018311,1,0,0,3,2.400024414,-8.800018311,1,0,0,3,0,3,0,1,,,,,,,,,,,,,,,,,,,,,,,,,,,,,,,,,,,,,,,,,,,,,,,,,,,,,,,,,,,,,,,,,,,,,,,,,,,,,,,,,,,,,,,,,,,,,,,,,,,,,,,,,,,,,,,,
,,,,,,60dc18e21694539ca0df125a,62c53aa518f098363fc36656,2022-07-06_09h34.23.341,Colour_Asymmetry_Pilot,2022.1.3,Win32,60.31363088,62c50e9c1127f2cd403a315f,,,,,,,,,,,,,,,,,,,"[0.7018,0.7176,0.6155999999999999]",onethree,"[0.05879999999999996,0.2784,0.5841999999999998]",1,2.3342,40,-60.80001831,1,0,0,response3disk_5,0,-11.20001221,1,0,0,rectangle_8,64,34.39996338,1,0,0,3,-27.20001221,-12,1,0,0,4,0,4,0,1,6,response1disk_7,rectangle_4,,,,,,,,,,,,,,,,,,,,,,,,,,,,,,,,,,,,,,,,,,,,,,,,,,,,,,,,,,,,,,,,,,,,,,,,,,,,,,,,,,,,,,,,,,,,,,,,,,,,,,,,,,,,,
,,,,,,60dc18e21694539ca0df125a,62c53aa518f098363fc36656,2022-07-06_09h34.23.341,Colour_Asymmetry_Pilot,2022.1.3,Win32,60.31363088,62c50e9c1127f2cd403a315f,,,,,,,,,,,,,,,,,,,"[-0.9844,-0.9688,-0.9922]",threeone,"[0.23120000000000007,-0.7726,-0.34120000000000006]",-2,1.4518,-51.20001221,-32.80001831,1,0,0,response5disk_5,0.799987793,-4.800018311,1,0,0,rectangle_8,0.799987793,-4.800018311,1,0,0,3,0.799987793,-4.800018311,1,0,0,5,0,5,0,1,,,,,,,,,,,,,,,,,,,,,,,,,,,,,,,,,,,,,,,,,,,,,,,,,,,,,,,,,,,,,,,,,,,,,,,,,,,,,,,,,,,,,,,,,,,,,,,,,,,,,,,,,,,,,,,,
,,,,,,60dc18e21694539ca0df125a,62c53aa518f098363fc36656,2022-07-06_09h34.23.341,Colour_Asymmetry_Pilot,2022.1.3,Win32,60.31363088,62c50e9c1127f2cd403a315f,,,,,,,,,,,,,,,,,,,"[-0.17659999999999998,0.3253999999999999,0.19999999999999996]",twoone,"[-0.5452,-0.608,0.2470000000000001]",3,1.6999,89.60003662,36.79998779,1,0,0,response1disk_5,-5.599975586,-2.399993896,1,0,0,rectangle_8,-5.599975586,-2.399993896,1,0,0,3,-5.599975586,-2.399993896,1,0,0,6,0,6,0,1,,,,,,,,,,,,,,,,,,,,,,,,,,,,,,,,,,,,,,,,,,,,,,,,,,,,,,,,,,,,,,,,,,,,,,,,,,,,,,,,,,,,,,,,,,,,,,,,,,,,,,,,,,,,,,,,
,,,,,,60dc18e21694539ca0df125a,62c53aa518f098363fc36656,2022-07-06_09h34.23.341,Colour_Asymmetry_Pilot,2022.1.3,Win32,60.31363088,62c50e9c1127f2cd403a315f,,,,,,,,,,,,,,,,,,,,fourtwo,,-1,2.1338,,,,,,,,,,,,,,,,,,,,,,,,,,,,,,,,space,3.7257,"[0.3568,-0.20799999999999996,-0.9844]","[-0.9688,-0.38039999999999996,-0.41979999999999995]",-32,-63.20001221,1,0,0,response5disk,10.40002441,2.399993896,1,0,0,rectangle,10.40002441,2.399993896,1,0,0,,3,0.0013,0,10.40002441,2.399993896,1,0,0,0,0,0,84,1,3,second,,,,,,,,,,,,,,,,,,,,,,,,,,,,,,,,,,,,,,,,,,,,,,,,,,,,,,,,,,,,,,,,,,,,,,,,
,,,,,,60dc18e21694539ca0df125a,62c53aa518f098363fc36656,2022-07-06_09h34.23.341,Colour_Asymmetry_Pilot,2022.1.3,Win32,60.31363088,62c50e9c1127f2cd403a315f,,,,,,,,,,,,,,,,,,,,twoone,,4,1.0837,,,,,,,,,,,,,,,,,,,,,,,,,,,,,,,,,,"[-0.9138,-0.5296000000000001,-0.5529999999999999]","[0.0351999999999999,0.41159999999999997,0.0038000000000000256]",30.40002441,60,1,0,0,response1disk,-23.20001221,-7.200012207,1,0,0,rectangle,-23.20001221,-7.200012207,1,0,0,,2,0.0009,0,-23.20001221,-7.200012207,1,0,0,0,1,1,74,1,74,first,,,,,,,,,,,,,,,,,,,,,,,,,,,,,,,,,,,,,,,,,,,,,,,,,,,,,,,,,,,,,,,,,,,,,,,,
,,,,,,60dc18e21694539ca0df125a,62c53aa518f098363fc36656,2022-07-06_09h34.23.341,Colour_Asymmetry_Pilot,2022.1.3,Win32,60.31363088,62c50e9c1127f2cd403a315f,,,,,,,,,,,,,,,,,,,,fourthree,,2,5.1515,,,,,,,,,,,,,,,,,,,,,,,,,,,,,,,,,,"[0.34099999999999997,0.5841999999999998,-0.9844]","[0.6625999999999999,0.4980000000000002,-0.357]",82.40002441,-27.20001221,1,0,0,response3disk,4,3.199981689,1,0,0,rectangle,4,3.199981689,1,0,0,,3,0.0014,0,4,3.199981689,1,0,0,0,2,2,8,1,8,first,,,,,,,,,,,,,,,,,,,,,,,,,,,,,,,,,,,,,,,,,,,,,,,,,,,,,,,,,,,,,,,,,,,,,,,,
,,,,,,60dc18e21694539ca0df125a,62c53aa518f098363fc36656,2022-07-06_09h34.23.341,Colour_Asymmetry_Pilot,2022.1.3,Win32,60.31363088,62c50e9c1127f2cd403a315f,,,,,,,,,,,,,,,,,,,,twofour,,3,1.1663,,,,,,,,,,,,,,,,,,,,,,,,,,,,,,,,,,"[-0.9688,-0.38039999999999996,-0.41979999999999995]","[-0.5922000000000001,-0.7492000000000001,-0.5296000000000001]",53.60003662,30.3999939,1,0,0,response1disk,-16,0,1,0,0,rectangle,-16,0,1,0,0,,1,0.0011,0,-16,0,1,0,0,0,3,3,145,1,64,second,,,,,,,,,,,,,,,,,,,,,,,,,,,,,,,,,,,,,,,,,,,,,,,,,,,,,,,,,,,,,,,,,,,,,,,,
,,,,,,60dc18e21694539ca0df125a,62c53aa518f098363fc36656,2022-07-06_09h34.23.341,Colour_Asymmetry_Pilot,2022.1.3,Win32,60.31363088,62c50e9c1127f2cd403a315f,,,,,,,,,,,,,,,,,,,,twoone,,4,1.016,,,,,,,,,,,,,,,,,,,,,,,,,,,,,,,,,,"[-0.4902000000000001,0.2704,-0.45899999999999996]","[-0.24719999999999998,0.5213999999999999,-0.12959999999999994]",50.40002441,74.3999939,1,0,0,response1disk,12.79998779,-3.200012207,1,0,0,rectangle,12.79998779,-3.200012207,1,0,0,,2,0.0007,0,12.79998779,-3.200012207,1,0,0,0,4,4,152,1,71,second,,,,,,,,,,,,,,,,,,,,,,,,,,,,,,,,,,,,,,,,,,,,,,,,,,,,,,,,,,,,,,,,,,,,,,,,
,,,,,,60dc18e21694539ca0df125a,62c53aa518f098363fc36656,2022-07-06_09h34.23.341,Colour_Asymmetry_Pilot,2022.1.3,Win32,60.31363088,62c50e9c1127f2cd403a315f,,,,,,,,,,,,,,,,,,,,threefour,,-1,1.8336,,,,,,,,,,,,,,,,,,,,,,,,,,,,,,,,,,"[0.2862,0.7802,0.3568]","[0.2784,-0.31000000000000005,-0.5452]",-22.39996338,-69.6000061,1,0,0,response5disk,-6.399963379,4.799987793,1,0,0,rectangle,-6.399963379,4.799987793,1,0,0,,2,0.0002,0,-6.399963379,4.799987793,1,0,0,0,5,5,106,1,25,second,,,,,,,,,,,,,,,,,,,,,,,,,,,,,,,,,,,,,,,,,,,,,,,,,,,,,,,,,,,,,,,,,,,,,,,,
,,,,,,60dc18e21694539ca0df125a,62c53aa518f098363fc36656,2022-07-06_09h34.23.341,Colour_Asymmetry_Pilot,2022.1.3,Win32,60.31363088,62c50e9c1127f2cd403a315f,,,,,,,,,,,,,,,,,,,,twoone,,4,0.9839,,,,,,,,,,,,,,,,,,,,,,,,,,,,,,,,,,"[0.40379999999999994,0.09000000000000008,0.44300000000000006]","[-0.26280000000000003,-0.4746,-0.2158]",42.40002441,78.3999939,1,0,0,response1disk,-0.799987793,-3.200012207,1,0,0,rectangle,-0.799987793,-3.200012207,1,0,0,,3,0.0007,0,-0.799987793,-3.200012207,1,0,0,0,6,6,37,1,37,first,,,,,,,,,,,,,,,,,,,,,,,,,,,,,,,,,,,,,,,,,,,,,,,,,,,,,,,,,,,,,,,,,,,,,,,,
,,,,,,60dc18e21694539ca0df125a,62c53aa518f098363fc36656,2022-07-06_09h34.23.341,Colour_Asymmetry_Pilot,2022.1.3,Win32,60.31363088,62c50e9c1127f2cd403a315f,,,,,,,,,,,,,,,,,,,,threeone,,-2,0.9667,,,,,,,,,,,,,,,,,,,,,,,,,,,,,,,,,,"[-0.9688,-0.38039999999999996,-0.41979999999999995]","[0.30180000000000007,-0.7884,-0.9844]",-49.59997559,-22.40002441,1,0,0,response5disk,23.20001221,4.799987793,1,0,0,rectangle,23.20001221,4.799987793,1,0,0,,1,0.0006,0,23.20001221,4.799987793,1,0,0,0,7,7,49,1,49,first,,,,,,,,,,,,,,,,,,,,,,,,,,,,,,,,,,,,,,,,,,,,,,,,,,,,,,,,,,,,,,,,,,,,,,,,
,,,,,,60dc18e21694539ca0df125a,62c53aa518f098363fc36656,2022-07-06_09h34.23.341,Colour_Asymmetry_Pilot,2022.1.3,Win32,60.31363088,62c50e9c1127f2cd403a315f,,,,,,,,,,,,,,,,,,,,onetwo,,-4,1.0675,,,,,,,,,,,,,,,,,,,,,,,,,,,,,,,,,,"[-0.2942,-0.7648,-0.7492000000000001]","[0.9763999999999999,0.8588,-0.05900000000000005]",-47.20001221,69.59997559,1,0,0,response7disk,-12,4,1,0,0,rectangle,-12,4,1,0,0,,1,0.0003,0,-12,4,1,0,0,0,8,8,119,1,38,second,,,,,,,,,,,,,,,,,,,,,,,,,,,,,,,,,,,,,,,,,,,,,,,,,,,,,,,,,,,,,,,,,,,,,,,,
,,,,,,60dc18e21694539ca0df125a,62c53aa518f098363fc36656,2022-07-06_09h34.23.341,Colour_Asymmetry_Pilot,2022.1.3,Win32,60.31363088,62c50e9c1127f2cd403a315f,,,,,,,,,,,,,,,,,,,,threefour,,1,3.3525,,,,,,,,,,,,,,,,,,,,,,,,,,,,,,,,,,"[0.37240000000000006,-0.050999999999999934,-0.5216]","[0.6625999999999999,0.4980000000000002,-0.357]",56,-65.6000061,1,0,0,response3disk,7.200012207,3.199981689,1,0,0,rectangle,7.200012207,3.199981689,1,0,0,,2,0.0014,0,7.200012207,3.199981689,1,0,0,0,9,9,52,1,52,first,,,,,,,,,,,,,,,,,,,,,,,,,,,,,,,,,,,,,,,,,,,,,,,,,,,,,,,,,,,,,,,,,,,,,,,,
,,,,,,60dc18e21694539ca0df125a,62c53aa518f098363fc36656,2022-07-06_09h34.23.341,Colour_Asymmetry_Pilot,2022.1.3,Win32,60.31363088,62c50e9c1127f2cd403a315f,,,,,,,,,,,,,,,,,,,,twoone,,-2,0.9159,,,,,,,,,,,,,,,,,,,,,,,,,,,,,,,,,,"[0.37240000000000006,-0.050999999999999934,-0.5216]","[-0.4746,-0.0354000000000001,0.5449999999999999]",-59.20001221,-39.20001221,1,0,0,response5disk,2.400024414,1.599975586,1,0,0,rectangle,2.400024414,1.599975586,1,0,0,,2,0.0001,0,2.400024414,1.599975586,1,0,0,0,10,10,14,1,14,first,,,,,,,,,,,,,,,,,,,,,,,,,,,,,,,,,,,,,,,,,,,,,,,,,,,,,,,,,,,,,,,,,,,,,,,,
,,,,,,60dc18e21694539ca0df125a,62c53aa518f098363fc36656,2022-07-06_09h34.23.341,Colour_Asymmetry_Pilot,2022.1.3,Win32,60.31363088,62c50e9c1127f2cd403a315f,,,,,,,,,,,,,,,,,,,,onetwo,,3,1.1173,,,,,,,,,,,,,,,,,,,,,,,,,,,,,,,,,,"[0.9763999999999999,-0.1137999999999999,-0.6314]","[0.30180000000000007,-0.7884,-0.9844]",56.79998779,34.3999939,1,0,0,response1disk,3.200012207,-1.600006104,1,0,0,rectangle,3.200012207,-1.600006104,1,0,0,,3,0.0013,0,3.200012207,-1.600006104,1,0,0,0,11,11,100,1,19,second,,,,,,,,,,,,,,,,,,,,,,,,,,,,,,,,,,,,,,,,,,,,,,,,,,,,,,,,,,,,,,,,,,,,,,,,
,,,,,,60dc18e21694539ca0df125a,62c53aa518f098363fc36656,2022-07-06_09h34.23.341,Colour_Asymmetry_Pilot,2022.1.3,Win32,60.31363088,62c50e9c1127f2cd403a315f,,,,,,,,,,,,,,,,,,,,onetwo,,4,0.8169,,,,,,,,,,,,,,,,,,,,,,,,,,,,,,,,,,"[0.6547999999999998,-0.043199999999999905,-0.011800000000000033]","[0.8115999999999999,-0.0040000000000000036,-0.09819999999999995]",32.79998779,58.3999939,1,0,0,response1disk,19.20001221,0,1,0,0,rectangle,19.20001221,0,1,0,0,,2,0.0009,0,19.20001221,0,1,0,0,0,12,12,138,1,57,second,,,,,,,,,,,,,,,,,,,,,,,,,,,,,,,,,,,,,,,,,,,,,,,,,,,,,,,,,,,,,,,,,,,,,,,,
,,,,,,60dc18e21694539ca0df125a,62c53aa518f098363fc36656,2022-07-06_09h34.23.341,Colour_Asymmetry_Pilot,2022.1.3,Win32,60.31363088,62c50e9c1127f2cd403a315f,,,,,,,,,,,,,,,,,,,,fourtwo,,-2,2.2006,,,,,,,,,,,,,,,,,,,,,,,,,,,,,,,,,,"[-0.24719999999999998,-0.0354000000000001,0.3175999999999999]","[0.9213999999999998,0.6391999999999998,-0.9922]",-61.59997559,-34.40002441,1,0,0,response5disk,-6.399963379,2.399993896,1,0,0,rectangle,-6.399963379,2.399993896,1,0,0,,3,0.001,0,-6.399963379,2.399993896,1,0,0,0,13,13,9,1,9,first,,,,,,,,,,,,,,,,,,,,,,,,,,,,,,,,,,,,,,,,,,,,,,,,,,,,,,,,,,,,,,,,,,,,,,,,
,,,,,,60dc18e21694539ca0df125a,62c53aa518f098363fc36656,2022-07-06_09h34.23.341,Colour_Asymmetry_Pilot,2022.1.3,Win32,60.31363088,62c50e9c1127f2cd403a315f,,,,,,,,,,,,,,,,,,,,onethree,,-3,1.7167,,,,,,,,,,,,,,,,,,,,,,,,,,,,,,,,,,"[-0.8982,-0.37259999999999993,0.2784]","[0.7176,-0.906,-0.6864]",-38.39996338,24,1,0,0,response7disk,-0.799987793,5.599975586,1,0,0,rectangle,-0.799987793,5.599975586,1,0,0,,2,0.0011,0,-0.799987793,5.599975586,1,0,0,0,14,14,78,1,78,first,,,,,,,,,,,,,,,,,,,,,,,,,,,,,,,,,,,,,,,,,,,,,,,,,,,,,,,,,,,,,,,,,,,,,,,,
