trials.thisRepN,trials.thisTrialN,trials.thisN,trials.thisIndex,trials.ran,Colourcodes,participant,session,date,expName,psychopyVersion,OS,frameRate,study_id,trials_4.thisRepN,trials_4.thisTrialN,trials_4.thisN,trials_4.thisIndex,trials_4.ran,StimulusPos,key_resp.keys,key_resp.rt,key_resp_2.keys,key_resp_2.rt,key_resp_15.keys,key_resp_15.rt,key_resp_17.keys,key_resp_17.rt,key_resp_9.keys,key_resp_9.rt,key_resp_10.keys,key_resp_10.rt,Circle1_col,Ecc,Circle2_col,similarity,response_time,mouse_5.x,mouse_5.y,mouse_5.leftButton,mouse_5.midButton,mouse_5.rightButton,mouse_5.clicked_name,mouse_10.x,mouse_10.y,mouse_10.leftButton,mouse_10.midButton,mouse_10.rightButton,mouse_10.clicked_name,mouse_7.x,mouse_7.y,mouse_7.leftButton,mouse_7.midButton,mouse_7.rightButton,catchnumberprac,mouse_6.x,mouse_6.y,mouse_6.leftButton,mouse_6.midButton,mouse_6.rightButton,duringprac.thisRepN,duringprac.thisTrialN,duringprac.thisN,duringprac.thisIndex,duringprac.ran,mouse_7.clicked_name,catchprac,mouse_6.clicked_name,key_resp_22.keys,key_resp_22.rt,Circle1_colour,Circle2_colour,mouse.x,mouse.y,mouse.leftButton,mouse.midButton,mouse.rightButton,mouse.clicked_name,mouse_2.x,mouse_2.y,mouse_2.leftButton,mouse_2.midButton,mouse_2.rightButton,mouse_2.clicked_name,mouse_3.x,mouse_3.y,mouse_3.leftButton,mouse_3.midButton,mouse_3.rightButton,catchresponse,catchnumber,response_time_catch,Catch,mouse_11.x,mouse_11.y,mouse_11.leftButton,mouse_11.midButton,mouse_11.rightButton,trials_2.thisRepN,trials_2.thisTrialN,trials_2.thisN,trials_2.thisIndex,trials_2.ran,Colourpair,Temporder,mouse_3.clicked_name,mouse_11.clicked_name,trials_3.thisRepN,trials_3.thisTrialN,trials_3.thisN,trials_3.thisIndex,trials_3.ran,key_resp_instr_Ishi.keys,key_resp_instr_Ishi.rt,Ishi_trial_keyresp.keys,Ishi_textbox.text,Ishi_mouse.x,Ishi_mouse.y,Ishi_mouse.leftButton,Ishi_mouse.midButton,Ishi_mouse.rightButton,Ishi_mouse.clicked_name,Ishi_loop.thisRepN,Ishi_loop.thisTrialN,Ishi_loop.thisN,Ishi_loop.thisIndex,Ishi_loop.ran,imageaddress,textbox.text,mouse_4.x,mouse_4.y,mouse_4.leftButton,mouse_4.midButton,mouse_4.rightButton,mouse_4.clicked_name,textbox_2.text,mouse_8.x,mouse_8.y,mouse_8.leftButton,mouse_8.midButton,mouse_8.rightButton,mouse_8.clicked_name,textbox_3.text,mouse_9.x,mouse_9.y,mouse_9.leftButton,mouse_9.midButton,mouse_9.rightButton,mouse_9.clicked_name,textbox_4.text,mouse_12.x,mouse_12.y,mouse_12.leftButton,mouse_12.midButton,mouse_12.rightButton,mouse_12.clicked_name,textbox_5.text,mouse_13.x,mouse_13.y,mouse_13.leftButton,mouse_13.midButton,mouse_13.rightButton,mouse_13.clicked_name,textbox_6.text,mouse_14.x,mouse_14.y,mouse_14.leftButton,mouse_14.midButton,mouse_14.rightButton,mouse_14.clicked_name,textbox_7.text,mouse_15.x,mouse_15.y,mouse_15.leftButton,mouse_15.midButton,mouse_15.rightButton,mouse_15.clicked_name
0,0,0,82,1,,5cd98287b0c5ec0001e0965a,62c538d588ef00b1eab487a6,2022-07-06_10h25.31.524,Colour_Asymmetry_Pilot,2022.1.3,Win32,60.04563468,62c50e9c1127f2cd403a315f,,,,,,,,,,,,,,,,,,,,,,,,,,,,,,,,,,,,,,,,,,,,,,,,,,,,,,,,,,,,,,,,,,,,,,,,,,,,,,,,,,,,,,,,,,,,,,,,,,,,,,,,,,,,,,,,,,,,,,,,,,,,,,,,,,,,,,,,,,,,,,,,,,,,,,,,,,,,,,,,,,,
0,1,1,72,1,,5cd98287b0c5ec0001e0965a,62c538d588ef00b1eab487a6,2022-07-06_10h25.31.524,Colour_Asymmetry_Pilot,2022.1.3,Win32,60.04563468,62c50e9c1127f2cd403a315f,,,,,,,,,,,,,,,,,,,,,,,,,,,,,,,,,,,,,,,,,,,,,,,,,,,,,,,,,,,,,,,,,,,,,,,,,,,,,,,,,,,,,,,,,,,,,,,,,,,,,,,,,,,,,,,,,,,,,,,,,,,,,,,,,,,,,,,,,,,,,,,,,,,,,,,,,,,,,,,,,,,
0,2,2,81,1,,5cd98287b0c5ec0001e0965a,62c538d588ef00b1eab487a6,2022-07-06_10h25.31.524,Colour_Asymmetry_Pilot,2022.1.3,Win32,60.04563468,62c50e9c1127f2cd403a315f,,,,,,,,,,,,,,,,,,,,,,,,,,,,,,,,,,,,,,,,,,,,,,,,,,,,,,,,,,,,,,,,,,,,,,,,,,,,,,,,,,,,,,,,,,,,,,,,,,,,,,,,,,,,,,,,,,,,,,,,,,,,,,,,,,,,,,,,,,,,,,,,,,,,,,,,,,,,,,,,,,,
0,3,3,55,1,,5cd98287b0c5ec0001e0965a,62c538d588ef00b1eab487a6,2022-07-06_10h25.31.524,Colour_Asymmetry_Pilot,2022.1.3,Win32,60.04563468,62c50e9c1127f2cd403a315f,,,,,,,,,,,,,,,,,,,,,,,,,,,,,,,,,,,,,,,,,,,,,,,,,,,,,,,,,,,,,,,,,,,,,,,,,,,,,,,,,,,,,,,,,,,,,,,,,,,,,,,,,,,,,,,,,,,,,,,,,,,,,,,,,,,,,,,,,,,,,,,,,,,,,,,,,,,,,,,,,,,
0,4,4,0,1,,5cd98287b0c5ec0001e0965a,62c538d588ef00b1eab487a6,2022-07-06_10h25.31.524,Colour_Asymmetry_Pilot,2022.1.3,Win32,60.04563468,62c50e9c1127f2cd403a315f,,,,,,,,,,,,,,,,,,,,,,,,,,,,,,,,,,,,,,,,,,,,,,,,,,,,,,,,,,,,,,,,,,,,,,,,,,,,,,,,,,,,,,,,,,,,,,,,,,,,,,,,,,,,,,,,,,,,,,,,,,,,,,,,,,,,,,,,,,,,,,,,,,,,,,,,,,,,,,,,,,,
0,5,5,20,1,,5cd98287b0c5ec0001e0965a,62c538d588ef00b1eab487a6,2022-07-06_10h25.31.524,Colour_Asymmetry_Pilot,2022.1.3,Win32,60.04563468,62c50e9c1127f2cd403a315f,,,,,,,,,,,,,,,,,,,,,,,,,,,,,,,,,,,,,,,,,,,,,,,,,,,,,,,,,,,,,,,,,,,,,,,,,,,,,,,,,,,,,,,,,,,,,,,,,,,,,,,,,,,,,,,,,,,,,,,,,,,,,,,,,,,,,,,,,,,,,,,,,,,,,,,,,,,,,,,,,,,
0,6,6,38,1,,5cd98287b0c5ec0001e0965a,62c538d588ef00b1eab487a6,2022-07-06_10h25.31.524,Colour_Asymmetry_Pilot,2022.1.3,Win32,60.04563468,62c50e9c1127f2cd403a315f,,,,,,,,,,,,,,,,,,,,,,,,,,,,,,,,,,,,,,,,,,,,,,,,,,,,,,,,,,,,,,,,,,,,,,,,,,,,,,,,,,,,,,,,,,,,,,,,,,,,,,,,,,,,,,,,,,,,,,,,,,,,,,,,,,,,,,,,,,,,,,,,,,,,,,,,,,,,,,,,,,,
0,7,7,9,1,,5cd98287b0c5ec0001e0965a,62c538d588ef00b1eab487a6,2022-07-06_10h25.31.524,Colour_Asymmetry_Pilot,2022.1.3,Win32,60.04563468,62c50e9c1127f2cd403a315f,,,,,,,,,,,,,,,,,,,,,,,,,,,,,,,,,,,,,,,,,,,,,,,,,,,,,,,,,,,,,,,,,,,,,,,,,,,,,,,,,,,,,,,,,,,,,,,,,,,,,,,,,,,,,,,,,,,,,,,,,,,,,,,,,,,,,,,,,,,,,,,,,,,,,,,,,,,,,,,,,,,
0,8,8,24,1,,5cd98287b0c5ec0001e0965a,62c538d588ef00b1eab487a6,2022-07-06_10h25.31.524,Colour_Asymmetry_Pilot,2022.1.3,Win32,60.04563468,62c50e9c1127f2cd403a315f,,,,,,,,,,,,,,,,,,,,,,,,,,,,,,,,,,,,,,,,,,,,,,,,,,,,,,,,,,,,,,,,,,,,,,,,,,,,,,,,,,,,,,,,,,,,,,,,,,,,,,,,,,,,,,,,,,,,,,,,,,,,,,,,,,,,,,,,,,,,,,,,,,,,,,,,,,,,,,,,,,,
0,9,9,54,1,,5cd98287b0c5ec0001e0965a,62c538d588ef00b1eab487a6,2022-07-06_10h25.31.524,Colour_Asymmetry_Pilot,2022.1.3,Win32,60.04563468,62c50e9c1127f2cd403a315f,,,,,,,,,,,,,,,,,,,,,,,,,,,,,,,,,,,,,,,,,,,,,,,,,,,,,,,,,,,,,,,,,,,,,,,,,,,,,,,,,,,,,,,,,,,,,,,,,,,,,,,,,,,,,,,,,,,,,,,,,,,,,,,,,,,,,,,,,,,,,,,,,,,,,,,,,,,,,,,,,,,
0,10,10,1,1,,5cd98287b0c5ec0001e0965a,62c538d588ef00b1eab487a6,2022-07-06_10h25.31.524,Colour_Asymmetry_Pilot,2022.1.3,Win32,60.04563468,62c50e9c1127f2cd403a315f,,,,,,,,,,,,,,,,,,,,,,,,,,,,,,,,,,,,,,,,,,,,,,,,,,,,,,,,,,,,,,,,,,,,,,,,,,,,,,,,,,,,,,,,,,,,,,,,,,,,,,,,,,,,,,,,,,,,,,,,,,,,,,,,,,,,,,,,,,,,,,,,,,,,,,,,,,,,,,,,,,,
0,11,11,43,1,,5cd98287b0c5ec0001e0965a,62c538d588ef00b1eab487a6,2022-07-06_10h25.31.524,Colour_Asymmetry_Pilot,2022.1.3,Win32,60.04563468,62c50e9c1127f2cd403a315f,,,,,,,,,,,,,,,,,,,,,,,,,,,,,,,,,,,,,,,,,,,,,,,,,,,,,,,,,,,,,,,,,,,,,,,,,,,,,,,,,,,,,,,,,,,,,,,,,,,,,,,,,,,,,,,,,,,,,,,,,,,,,,,,,,,,,,,,,,,,,,,,,,,,,,,,,,,,,,,,,,,
0,12,12,29,1,,5cd98287b0c5ec0001e0965a,62c538d588ef00b1eab487a6,2022-07-06_10h25.31.524,Colour_Asymmetry_Pilot,2022.1.3,Win32,60.04563468,62c50e9c1127f2cd403a315f,,,,,,,,,,,,,,,,,,,,,,,,,,,,,,,,,,,,,,,,,,,,,,,,,,,,,,,,,,,,,,,,,,,,,,,,,,,,,,,,,,,,,,,,,,,,,,,,,,,,,,,,,,,,,,,,,,,,,,,,,,,,,,,,,,,,,,,,,,,,,,,,,,,,,,,,,,,,,,,,,,,
0,13,13,70,1,,5cd98287b0c5ec0001e0965a,62c538d588ef00b1eab487a6,2022-07-06_10h25.31.524,Colour_Asymmetry_Pilot,2022.1.3,Win32,60.04563468,62c50e9c1127f2cd403a315f,,,,,,,,,,,,,,,,,,,,,,,,,,,,,,,,,,,,,,,,,,,,,,,,,,,,,,,,,,,,,,,,,,,,,,,,,,,,,,,,,,,,,,,,,,,,,,,,,,,,,,,,,,,,,,,,,,,,,,,,,,,,,,,,,,,,,,,,,,,,,,,,,,,,,,,,,,,,,,,,,,,
0,14,14,13,1,,5cd98287b0c5ec0001e0965a,62c538d588ef00b1eab487a6,2022-07-06_10h25.31.524,Colour_Asymmetry_Pilot,2022.1.3,Win32,60.04563468,62c50e9c1127f2cd403a315f,,,,,,,,,,,,,,,,,,,,,,,,,,,,,,,,,,,,,,,,,,,,,,,,,,,,,,,,,,,,,,,,,,,,,,,,,,,,,,,,,,,,,,,,,,,,,,,,,,,,,,,,,,,,,,,,,,,,,,,,,,,,,,,,,,,,,,,,,,,,,,,,,,,,,,,,,,,,,,,,,,,
0,15,15,92,1,,5cd98287b0c5ec0001e0965a,62c538d588ef00b1eab487a6,2022-07-06_10h25.31.524,Colour_Asymmetry_Pilot,2022.1.3,Win32,60.04563468,62c50e9c1127f2cd403a315f,,,,,,,,,,,,,,,,,,,,,,,,,,,,,,,,,,,,,,,,,,,,,,,,,,,,,,,,,,,,,,,,,,,,,,,,,,,,,,,,,,,,,,,,,,,,,,,,,,,,,,,,,,,,,,,,,,,,,,,,,,,,,,,,,,,,,,,,,,,,,,,,,,,,,,,,,,,,,,,,,,,
0,16,16,12,1,,5cd98287b0c5ec0001e0965a,62c538d588ef00b1eab487a6,2022-07-06_10h25.31.524,Colour_Asymmetry_Pilot,2022.1.3,Win32,60.04563468,62c50e9c1127f2cd403a315f,,,,,,,,,,,,,,,,,,,,,,,,,,,,,,,,,,,,,,,,,,,,,,,,,,,,,,,,,,,,,,,,,,,,,,,,,,,,,,,,,,,,,,,,,,,,,,,,,,,,,,,,,,,,,,,,,,,,,,,,,,,,,,,,,,,,,,,,,,,,,,,,,,,,,,,,,,,,,,,,,,,
0,17,17,56,1,,5cd98287b0c5ec0001e0965a,62c538d588ef00b1eab487a6,2022-07-06_10h25.31.524,Colour_Asymmetry_Pilot,2022.1.3,Win32,60.04563468,62c50e9c1127f2cd403a315f,,,,,,,,,,,,,,,,,,,,,,,,,,,,,,,,,,,,,,,,,,,,,,,,,,,,,,,,,,,,,,,,,,,,,,,,,,,,,,,,,,,,,,,,,,,,,,,,,,,,,,,,,,,,,,,,,,,,,,,,,,,,,,,,,,,,,,,,,,,,,,,,,,,,,,,,,,,,,,,,,,,
0,18,18,58,1,,5cd98287b0c5ec0001e0965a,62c538d588ef00b1eab487a6,2022-07-06_10h25.31.524,Colour_Asymmetry_Pilot,2022.1.3,Win32,60.04563468,62c50e9c1127f2cd403a315f,,,,,,,,,,,,,,,,,,,,,,,,,,,,,,,,,,,,,,,,,,,,,,,,,,,,,,,,,,,,,,,,,,,,,,,,,,,,,,,,,,,,,,,,,,,,,,,,,,,,,,,,,,,,,,,,,,,,,,,,,,,,,,,,,,,,,,,,,,,,,,,,,,,,,,,,,,,,,,,,,,,
0,19,19,77,1,,5cd98287b0c5ec0001e0965a,62c538d588ef00b1eab487a6,2022-07-06_10h25.31.524,Colour_Asymmetry_Pilot,2022.1.3,Win32,60.04563468,62c50e9c1127f2cd403a315f,,,,,,,,,,,,,,,,,,,,,,,,,,,,,,,,,,,,,,,,,,,,,,,,,,,,,,,,,,,,,,,,,,,,,,,,,,,,,,,,,,,,,,,,,,,,,,,,,,,,,,,,,,,,,,,,,,,,,,,,,,,,,,,,,,,,,,,,,,,,,,,,,,,,,,,,,,,,,,,,,,,
0,20,20,6,1,,5cd98287b0c5ec0001e0965a,62c538d588ef00b1eab487a6,2022-07-06_10h25.31.524,Colour_Asymmetry_Pilot,2022.1.3,Win32,60.04563468,62c50e9c1127f2cd403a315f,,,,,,,,,,,,,,,,,,,,,,,,,,,,,,,,,,,,,,,,,,,,,,,,,,,,,,,,,,,,,,,,,,,,,,,,,,,,,,,,,,,,,,,,,,,,,,,,,,,,,,,,,,,,,,,,,,,,,,,,,,,,,,,,,,,,,,,,,,,,,,,,,,,,,,,,,,,,,,,,,,,
0,21,21,27,1,,5cd98287b0c5ec0001e0965a,62c538d588ef00b1eab487a6,2022-07-06_10h25.31.524,Colour_Asymmetry_Pilot,2022.1.3,Win32,60.04563468,62c50e9c1127f2cd403a315f,,,,,,,,,,,,,,,,,,,,,,,,,,,,,,,,,,,,,,,,,,,,,,,,,,,,,,,,,,,,,,,,,,,,,,,,,,,,,,,,,,,,,,,,,,,,,,,,,,,,,,,,,,,,,,,,,,,,,,,,,,,,,,,,,,,,,,,,,,,,,,,,,,,,,,,,,,,,,,,,,,,
0,22,22,26,1,,5cd98287b0c5ec0001e0965a,62c538d588ef00b1eab487a6,2022-07-06_10h25.31.524,Colour_Asymmetry_Pilot,2022.1.3,Win32,60.04563468,62c50e9c1127f2cd403a315f,,,,,,,,,,,,,,,,,,,,,,,,,,,,,,,,,,,,,,,,,,,,,,,,,,,,,,,,,,,,,,,,,,,,,,,,,,,,,,,,,,,,,,,,,,,,,,,,,,,,,,,,,,,,,,,,,,,,,,,,,,,,,,,,,,,,,,,,,,,,,,,,,,,,,,,,,,,,,,,,,,,
0,23,23,21,1,,5cd98287b0c5ec0001e0965a,62c538d588ef00b1eab487a6,2022-07-06_10h25.31.524,Colour_Asymmetry_Pilot,2022.1.3,Win32,60.04563468,62c50e9c1127f2cd403a315f,,,,,,,,,,,,,,,,,,,,,,,,,,,,,,,,,,,,,,,,,,,,,,,,,,,,,,,,,,,,,,,,,,,,,,,,,,,,,,,,,,,,,,,,,,,,,,,,,,,,,,,,,,,,,,,,,,,,,,,,,,,,,,,,,,,,,,,,,,,,,,,,,,,,,,,,,,,,,,,,,,,
0,24,24,53,1,,5cd98287b0c5ec0001e0965a,62c538d588ef00b1eab487a6,2022-07-06_10h25.31.524,Colour_Asymmetry_Pilot,2022.1.3,Win32,60.04563468,62c50e9c1127f2cd403a315f,,,,,,,,,,,,,,,,,,,,,,,,,,,,,,,,,,,,,,,,,,,,,,,,,,,,,,,,,,,,,,,,,,,,,,,,,,,,,,,,,,,,,,,,,,,,,,,,,,,,,,,,,,,,,,,,,,,,,,,,,,,,,,,,,,,,,,,,,,,,,,,,,,,,,,,,,,,,,,,,,,,
0,25,25,2,1,,5cd98287b0c5ec0001e0965a,62c538d588ef00b1eab487a6,2022-07-06_10h25.31.524,Colour_Asymmetry_Pilot,2022.1.3,Win32,60.04563468,62c50e9c1127f2cd403a315f,,,,,,,,,,,,,,,,,,,,,,,,,,,,,,,,,,,,,,,,,,,,,,,,,,,,,,,,,,,,,,,,,,,,,,,,,,,,,,,,,,,,,,,,,,,,,,,,,,,,,,,,,,,,,,,,,,,,,,,,,,,,,,,,,,,,,,,,,,,,,,,,,,,,,,,,,,,,,,,,,,,
0,26,26,67,1,,5cd98287b0c5ec0001e0965a,62c538d588ef00b1eab487a6,2022-07-06_10h25.31.524,Colour_Asymmetry_Pilot,2022.1.3,Win32,60.04563468,62c50e9c1127f2cd403a315f,,,,,,,,,,,,,,,,,,,,,,,,,,,,,,,,,,,,,,,,,,,,,,,,,,,,,,,,,,,,,,,,,,,,,,,,,,,,,,,,,,,,,,,,,,,,,,,,,,,,,,,,,,,,,,,,,,,,,,,,,,,,,,,,,,,,,,,,,,,,,,,,,,,,,,,,,,,,,,,,,,,
0,27,27,78,1,,5cd98287b0c5ec0001e0965a,62c538d588ef00b1eab487a6,2022-07-06_10h25.31.524,Colour_Asymmetry_Pilot,2022.1.3,Win32,60.04563468,62c50e9c1127f2cd403a315f,,,,,,,,,,,,,,,,,,,,,,,,,,,,,,,,,,,,,,,,,,,,,,,,,,,,,,,,,,,,,,,,,,,,,,,,,,,,,,,,,,,,,,,,,,,,,,,,,,,,,,,,,,,,,,,,,,,,,,,,,,,,,,,,,,,,,,,,,,,,,,,,,,,,,,,,,,,,,,,,,,,
0,28,28,31,1,,5cd98287b0c5ec0001e0965a,62c538d588ef00b1eab487a6,2022-07-06_10h25.31.524,Colour_Asymmetry_Pilot,2022.1.3,Win32,60.04563468,62c50e9c1127f2cd403a315f,,,,,,,,,,,,,,,,,,,,,,,,,,,,,,,,,,,,,,,,,,,,,,,,,,,,,,,,,,,,,,,,,,,,,,,,,,,,,,,,,,,,,,,,,,,,,,,,,,,,,,,,,,,,,,,,,,,,,,,,,,,,,,,,,,,,,,,,,,,,,,,,,,,,,,,,,,,,,,,,,,,
0,29,29,76,1,,5cd98287b0c5ec0001e0965a,62c538d588ef00b1eab487a6,2022-07-06_10h25.31.524,Colour_Asymmetry_Pilot,2022.1.3,Win32,60.04563468,62c50e9c1127f2cd403a315f,,,,,,,,,,,,,,,,,,,,,,,,,,,,,,,,,,,,,,,,,,,,,,,,,,,,,,,,,,,,,,,,,,,,,,,,,,,,,,,,,,,,,,,,,,,,,,,,,,,,,,,,,,,,,,,,,,,,,,,,,,,,,,,,,,,,,,,,,,,,,,,,,,,,,,,,,,,,,,,,,,,
0,30,30,39,1,,5cd98287b0c5ec0001e0965a,62c538d588ef00b1eab487a6,2022-07-06_10h25.31.524,Colour_Asymmetry_Pilot,2022.1.3,Win32,60.04563468,62c50e9c1127f2cd403a315f,,,,,,,,,,,,,,,,,,,,,,,,,,,,,,,,,,,,,,,,,,,,,,,,,,,,,,,,,,,,,,,,,,,,,,,,,,,,,,,,,,,,,,,,,,,,,,,,,,,,,,,,,,,,,,,,,,,,,,,,,,,,,,,,,,,,,,,,,,,,,,,,,,,,,,,,,,,,,,,,,,,
0,31,31,25,1,,5cd98287b0c5ec0001e0965a,62c538d588ef00b1eab487a6,2022-07-06_10h25.31.524,Colour_Asymmetry_Pilot,2022.1.3,Win32,60.04563468,62c50e9c1127f2cd403a315f,,,,,,,,,,,,,,,,,,,,,,,,,,,,,,,,,,,,,,,,,,,,,,,,,,,,,,,,,,,,,,,,,,,,,,,,,,,,,,,,,,,,,,,,,,,,,,,,,,,,,,,,,,,,,,,,,,,,,,,,,,,,,,,,,,,,,,,,,,,,,,,,,,,,,,,,,,,,,,,,,,,
0,32,32,45,1,,5cd98287b0c5ec0001e0965a,62c538d588ef00b1eab487a6,2022-07-06_10h25.31.524,Colour_Asymmetry_Pilot,2022.1.3,Win32,60.04563468,62c50e9c1127f2cd403a315f,,,,,,,,,,,,,,,,,,,,,,,,,,,,,,,,,,,,,,,,,,,,,,,,,,,,,,,,,,,,,,,,,,,,,,,,,,,,,,,,,,,,,,,,,,,,,,,,,,,,,,,,,,,,,,,,,,,,,,,,,,,,,,,,,,,,,,,,,,,,,,,,,,,,,,,,,,,,,,,,,,,
0,33,33,89,1,,5cd98287b0c5ec0001e0965a,62c538d588ef00b1eab487a6,2022-07-06_10h25.31.524,Colour_Asymmetry_Pilot,2022.1.3,Win32,60.04563468,62c50e9c1127f2cd403a315f,,,,,,,,,,,,,,,,,,,,,,,,,,,,,,,,,,,,,,,,,,,,,,,,,,,,,,,,,,,,,,,,,,,,,,,,,,,,,,,,,,,,,,,,,,,,,,,,,,,,,,,,,,,,,,,,,,,,,,,,,,,,,,,,,,,,,,,,,,,,,,,,,,,,,,,,,,,,,,,,,,,
0,34,34,46,1,,5cd98287b0c5ec0001e0965a,62c538d588ef00b1eab487a6,2022-07-06_10h25.31.524,Colour_Asymmetry_Pilot,2022.1.3,Win32,60.04563468,62c50e9c1127f2cd403a315f,,,,,,,,,,,,,,,,,,,,,,,,,,,,,,,,,,,,,,,,,,,,,,,,,,,,,,,,,,,,,,,,,,,,,,,,,,,,,,,,,,,,,,,,,,,,,,,,,,,,,,,,,,,,,,,,,,,,,,,,,,,,,,,,,,,,,,,,,,,,,,,,,,,,,,,,,,,,,,,,,,,
0,35,35,79,1,,5cd98287b0c5ec0001e0965a,62c538d588ef00b1eab487a6,2022-07-06_10h25.31.524,Colour_Asymmetry_Pilot,2022.1.3,Win32,60.04563468,62c50e9c1127f2cd403a315f,,,,,,,,,,,,,,,,,,,,,,,,,,,,,,,,,,,,,,,,,,,,,,,,,,,,,,,,,,,,,,,,,,,,,,,,,,,,,,,,,,,,,,,,,,,,,,,,,,,,,,,,,,,,,,,,,,,,,,,,,,,,,,,,,,,,,,,,,,,,,,,,,,,,,,,,,,,,,,,,,,,
0,36,36,23,1,,5cd98287b0c5ec0001e0965a,62c538d588ef00b1eab487a6,2022-07-06_10h25.31.524,Colour_Asymmetry_Pilot,2022.1.3,Win32,60.04563468,62c50e9c1127f2cd403a315f,,,,,,,,,,,,,,,,,,,,,,,,,,,,,,,,,,,,,,,,,,,,,,,,,,,,,,,,,,,,,,,,,,,,,,,,,,,,,,,,,,,,,,,,,,,,,,,,,,,,,,,,,,,,,,,,,,,,,,,,,,,,,,,,,,,,,,,,,,,,,,,,,,,,,,,,,,,,,,,,,,,
0,37,37,34,1,,5cd98287b0c5ec0001e0965a,62c538d588ef00b1eab487a6,2022-07-06_10h25.31.524,Colour_Asymmetry_Pilot,2022.1.3,Win32,60.04563468,62c50e9c1127f2cd403a315f,,,,,,,,,,,,,,,,,,,,,,,,,,,,,,,,,,,,,,,,,,,,,,,,,,,,,,,,,,,,,,,,,,,,,,,,,,,,,,,,,,,,,,,,,,,,,,,,,,,,,,,,,,,,,,,,,,,,,,,,,,,,,,,,,,,,,,,,,,,,,,,,,,,,,,,,,,,,,,,,,,,
0,38,38,47,1,,5cd98287b0c5ec0001e0965a,62c538d588ef00b1eab487a6,2022-07-06_10h25.31.524,Colour_Asymmetry_Pilot,2022.1.3,Win32,60.04563468,62c50e9c1127f2cd403a315f,,,,,,,,,,,,,,,,,,,,,,,,,,,,,,,,,,,,,,,,,,,,,,,,,,,,,,,,,,,,,,,,,,,,,,,,,,,,,,,,,,,,,,,,,,,,,,,,,,,,,,,,,,,,,,,,,,,,,,,,,,,,,,,,,,,,,,,,,,,,,,,,,,,,,,,,,,,,,,,,,,,
0,39,39,35,1,,5cd98287b0c5ec0001e0965a,62c538d588ef00b1eab487a6,2022-07-06_10h25.31.524,Colour_Asymmetry_Pilot,2022.1.3,Win32,60.04563468,62c50e9c1127f2cd403a315f,,,,,,,,,,,,,,,,,,,,,,,,,,,,,,,,,,,,,,,,,,,,,,,,,,,,,,,,,,,,,,,,,,,,,,,,,,,,,,,,,,,,,,,,,,,,,,,,,,,,,,,,,,,,,,,,,,,,,,,,,,,,,,,,,,,,,,,,,,,,,,,,,,,,,,,,,,,,,,,,,,,
0,40,40,68,1,,5cd98287b0c5ec0001e0965a,62c538d588ef00b1eab487a6,2022-07-06_10h25.31.524,Colour_Asymmetry_Pilot,2022.1.3,Win32,60.04563468,62c50e9c1127f2cd403a315f,,,,,,,,,,,,,,,,,,,,,,,,,,,,,,,,,,,,,,,,,,,,,,,,,,,,,,,,,,,,,,,,,,,,,,,,,,,,,,,,,,,,,,,,,,,,,,,,,,,,,,,,,,,,,,,,,,,,,,,,,,,,,,,,,,,,,,,,,,,,,,,,,,,,,,,,,,,,,,,,,,,
0,41,41,8,1,,5cd98287b0c5ec0001e0965a,62c538d588ef00b1eab487a6,2022-07-06_10h25.31.524,Colour_Asymmetry_Pilot,2022.1.3,Win32,60.04563468,62c50e9c1127f2cd403a315f,,,,,,,,,,,,,,,,,,,,,,,,,,,,,,,,,,,,,,,,,,,,,,,,,,,,,,,,,,,,,,,,,,,,,,,,,,,,,,,,,,,,,,,,,,,,,,,,,,,,,,,,,,,,,,,,,,,,,,,,,,,,,,,,,,,,,,,,,,,,,,,,,,,,,,,,,,,,,,,,,,,
0,42,42,19,1,,5cd98287b0c5ec0001e0965a,62c538d588ef00b1eab487a6,2022-07-06_10h25.31.524,Colour_Asymmetry_Pilot,2022.1.3,Win32,60.04563468,62c50e9c1127f2cd403a315f,,,,,,,,,,,,,,,,,,,,,,,,,,,,,,,,,,,,,,,,,,,,,,,,,,,,,,,,,,,,,,,,,,,,,,,,,,,,,,,,,,,,,,,,,,,,,,,,,,,,,,,,,,,,,,,,,,,,,,,,,,,,,,,,,,,,,,,,,,,,,,,,,,,,,,,,,,,,,,,,,,,
0,43,43,3,1,,5cd98287b0c5ec0001e0965a,62c538d588ef00b1eab487a6,2022-07-06_10h25.31.524,Colour_Asymmetry_Pilot,2022.1.3,Win32,60.04563468,62c50e9c1127f2cd403a315f,,,,,,,,,,,,,,,,,,,,,,,,,,,,,,,,,,,,,,,,,,,,,,,,,,,,,,,,,,,,,,,,,,,,,,,,,,,,,,,,,,,,,,,,,,,,,,,,,,,,,,,,,,,,,,,,,,,,,,,,,,,,,,,,,,,,,,,,,,,,,,,,,,,,,,,,,,,,,,,,,,,
0,44,44,11,1,,5cd98287b0c5ec0001e0965a,62c538d588ef00b1eab487a6,2022-07-06_10h25.31.524,Colour_Asymmetry_Pilot,2022.1.3,Win32,60.04563468,62c50e9c1127f2cd403a315f,,,,,,,,,,,,,,,,,,,,,,,,,,,,,,,,,,,,,,,,,,,,,,,,,,,,,,,,,,,,,,,,,,,,,,,,,,,,,,,,,,,,,,,,,,,,,,,,,,,,,,,,,,,,,,,,,,,,,,,,,,,,,,,,,,,,,,,,,,,,,,,,,,,,,,,,,,,,,,,,,,,
0,45,45,69,1,,5cd98287b0c5ec0001e0965a,62c538d588ef00b1eab487a6,2022-07-06_10h25.31.524,Colour_Asymmetry_Pilot,2022.1.3,Win32,60.04563468,62c50e9c1127f2cd403a315f,,,,,,,,,,,,,,,,,,,,,,,,,,,,,,,,,,,,,,,,,,,,,,,,,,,,,,,,,,,,,,,,,,,,,,,,,,,,,,,,,,,,,,,,,,,,,,,,,,,,,,,,,,,,,,,,,,,,,,,,,,,,,,,,,,,,,,,,,,,,,,,,,,,,,,,,,,,,,,,,,,,
0,46,46,65,1,,5cd98287b0c5ec0001e0965a,62c538d588ef00b1eab487a6,2022-07-06_10h25.31.524,Colour_Asymmetry_Pilot,2022.1.3,Win32,60.04563468,62c50e9c1127f2cd403a315f,,,,,,,,,,,,,,,,,,,,,,,,,,,,,,,,,,,,,,,,,,,,,,,,,,,,,,,,,,,,,,,,,,,,,,,,,,,,,,,,,,,,,,,,,,,,,,,,,,,,,,,,,,,,,,,,,,,,,,,,,,,,,,,,,,,,,,,,,,,,,,,,,,,,,,,,,,,,,,,,,,,
0,47,47,41,1,,5cd98287b0c5ec0001e0965a,62c538d588ef00b1eab487a6,2022-07-06_10h25.31.524,Colour_Asymmetry_Pilot,2022.1.3,Win32,60.04563468,62c50e9c1127f2cd403a315f,,,,,,,,,,,,,,,,,,,,,,,,,,,,,,,,,,,,,,,,,,,,,,,,,,,,,,,,,,,,,,,,,,,,,,,,,,,,,,,,,,,,,,,,,,,,,,,,,,,,,,,,,,,,,,,,,,,,,,,,,,,,,,,,,,,,,,,,,,,,,,,,,,,,,,,,,,,,,,,,,,,
0,48,48,14,1,,5cd98287b0c5ec0001e0965a,62c538d588ef00b1eab487a6,2022-07-06_10h25.31.524,Colour_Asymmetry_Pilot,2022.1.3,Win32,60.04563468,62c50e9c1127f2cd403a315f,,,,,,,,,,,,,,,,,,,,,,,,,,,,,,,,,,,,,,,,,,,,,,,,,,,,,,,,,,,,,,,,,,,,,,,,,,,,,,,,,,,,,,,,,,,,,,,,,,,,,,,,,,,,,,,,,,,,,,,,,,,,,,,,,,,,,,,,,,,,,,,,,,,,,,,,,,,,,,,,,,,
0,49,49,15,1,,5cd98287b0c5ec0001e0965a,62c538d588ef00b1eab487a6,2022-07-06_10h25.31.524,Colour_Asymmetry_Pilot,2022.1.3,Win32,60.04563468,62c50e9c1127f2cd403a315f,,,,,,,,,,,,,,,,,,,,,,,,,,,,,,,,,,,,,,,,,,,,,,,,,,,,,,,,,,,,,,,,,,,,,,,,,,,,,,,,,,,,,,,,,,,,,,,,,,,,,,,,,,,,,,,,,,,,,,,,,,,,,,,,,,,,,,,,,,,,,,,,,,,,,,,,,,,,,,,,,,,
0,50,50,22,1,,5cd98287b0c5ec0001e0965a,62c538d588ef00b1eab487a6,2022-07-06_10h25.31.524,Colour_Asymmetry_Pilot,2022.1.3,Win32,60.04563468,62c50e9c1127f2cd403a315f,,,,,,,,,,,,,,,,,,,,,,,,,,,,,,,,,,,,,,,,,,,,,,,,,,,,,,,,,,,,,,,,,,,,,,,,,,,,,,,,,,,,,,,,,,,,,,,,,,,,,,,,,,,,,,,,,,,,,,,,,,,,,,,,,,,,,,,,,,,,,,,,,,,,,,,,,,,,,,,,,,,
0,51,51,32,1,,5cd98287b0c5ec0001e0965a,62c538d588ef00b1eab487a6,2022-07-06_10h25.31.524,Colour_Asymmetry_Pilot,2022.1.3,Win32,60.04563468,62c50e9c1127f2cd403a315f,,,,,,,,,,,,,,,,,,,,,,,,,,,,,,,,,,,,,,,,,,,,,,,,,,,,,,,,,,,,,,,,,,,,,,,,,,,,,,,,,,,,,,,,,,,,,,,,,,,,,,,,,,,,,,,,,,,,,,,,,,,,,,,,,,,,,,,,,,,,,,,,,,,,,,,,,,,,,,,,,,,
0,52,52,87,1,,5cd98287b0c5ec0001e0965a,62c538d588ef00b1eab487a6,2022-07-06_10h25.31.524,Colour_Asymmetry_Pilot,2022.1.3,Win32,60.04563468,62c50e9c1127f2cd403a315f,,,,,,,,,,,,,,,,,,,,,,,,,,,,,,,,,,,,,,,,,,,,,,,,,,,,,,,,,,,,,,,,,,,,,,,,,,,,,,,,,,,,,,,,,,,,,,,,,,,,,,,,,,,,,,,,,,,,,,,,,,,,,,,,,,,,,,,,,,,,,,,,,,,,,,,,,,,,,,,,,,,
0,53,53,49,1,,5cd98287b0c5ec0001e0965a,62c538d588ef00b1eab487a6,2022-07-06_10h25.31.524,Colour_Asymmetry_Pilot,2022.1.3,Win32,60.04563468,62c50e9c1127f2cd403a315f,,,,,,,,,,,,,,,,,,,,,,,,,,,,,,,,,,,,,,,,,,,,,,,,,,,,,,,,,,,,,,,,,,,,,,,,,,,,,,,,,,,,,,,,,,,,,,,,,,,,,,,,,,,,,,,,,,,,,,,,,,,,,,,,,,,,,,,,,,,,,,,,,,,,,,,,,,,,,,,,,,,
0,54,54,7,1,,5cd98287b0c5ec0001e0965a,62c538d588ef00b1eab487a6,2022-07-06_10h25.31.524,Colour_Asymmetry_Pilot,2022.1.3,Win32,60.04563468,62c50e9c1127f2cd403a315f,,,,,,,,,,,,,,,,,,,,,,,,,,,,,,,,,,,,,,,,,,,,,,,,,,,,,,,,,,,,,,,,,,,,,,,,,,,,,,,,,,,,,,,,,,,,,,,,,,,,,,,,,,,,,,,,,,,,,,,,,,,,,,,,,,,,,,,,,,,,,,,,,,,,,,,,,,,,,,,,,,,
0,55,55,18,1,,5cd98287b0c5ec0001e0965a,62c538d588ef00b1eab487a6,2022-07-06_10h25.31.524,Colour_Asymmetry_Pilot,2022.1.3,Win32,60.04563468,62c50e9c1127f2cd403a315f,,,,,,,,,,,,,,,,,,,,,,,,,,,,,,,,,,,,,,,,,,,,,,,,,,,,,,,,,,,,,,,,,,,,,,,,,,,,,,,,,,,,,,,,,,,,,,,,,,,,,,,,,,,,,,,,,,,,,,,,,,,,,,,,,,,,,,,,,,,,,,,,,,,,,,,,,,,,,,,,,,,
0,56,56,30,1,,5cd98287b0c5ec0001e0965a,62c538d588ef00b1eab487a6,2022-07-06_10h25.31.524,Colour_Asymmetry_Pilot,2022.1.3,Win32,60.04563468,62c50e9c1127f2cd403a315f,,,,,,,,,,,,,,,,,,,,,,,,,,,,,,,,,,,,,,,,,,,,,,,,,,,,,,,,,,,,,,,,,,,,,,,,,,,,,,,,,,,,,,,,,,,,,,,,,,,,,,,,,,,,,,,,,,,,,,,,,,,,,,,,,,,,,,,,,,,,,,,,,,,,,,,,,,,,,,,,,,,
0,57,57,83,1,,5cd98287b0c5ec0001e0965a,62c538d588ef00b1eab487a6,2022-07-06_10h25.31.524,Colour_Asymmetry_Pilot,2022.1.3,Win32,60.04563468,62c50e9c1127f2cd403a315f,,,,,,,,,,,,,,,,,,,,,,,,,,,,,,,,,,,,,,,,,,,,,,,,,,,,,,,,,,,,,,,,,,,,,,,,,,,,,,,,,,,,,,,,,,,,,,,,,,,,,,,,,,,,,,,,,,,,,,,,,,,,,,,,,,,,,,,,,,,,,,,,,,,,,,,,,,,,,,,,,,,
0,58,58,42,1,,5cd98287b0c5ec0001e0965a,62c538d588ef00b1eab487a6,2022-07-06_10h25.31.524,Colour_Asymmetry_Pilot,2022.1.3,Win32,60.04563468,62c50e9c1127f2cd403a315f,,,,,,,,,,,,,,,,,,,,,,,,,,,,,,,,,,,,,,,,,,,,,,,,,,,,,,,,,,,,,,,,,,,,,,,,,,,,,,,,,,,,,,,,,,,,,,,,,,,,,,,,,,,,,,,,,,,,,,,,,,,,,,,,,,,,,,,,,,,,,,,,,,,,,,,,,,,,,,,,,,,
0,59,59,62,1,,5cd98287b0c5ec0001e0965a,62c538d588ef00b1eab487a6,2022-07-06_10h25.31.524,Colour_Asymmetry_Pilot,2022.1.3,Win32,60.04563468,62c50e9c1127f2cd403a315f,,,,,,,,,,,,,,,,,,,,,,,,,,,,,,,,,,,,,,,,,,,,,,,,,,,,,,,,,,,,,,,,,,,,,,,,,,,,,,,,,,,,,,,,,,,,,,,,,,,,,,,,,,,,,,,,,,,,,,,,,,,,,,,,,,,,,,,,,,,,,,,,,,,,,,,,,,,,,,,,,,,
0,60,60,84,1,,5cd98287b0c5ec0001e0965a,62c538d588ef00b1eab487a6,2022-07-06_10h25.31.524,Colour_Asymmetry_Pilot,2022.1.3,Win32,60.04563468,62c50e9c1127f2cd403a315f,,,,,,,,,,,,,,,,,,,,,,,,,,,,,,,,,,,,,,,,,,,,,,,,,,,,,,,,,,,,,,,,,,,,,,,,,,,,,,,,,,,,,,,,,,,,,,,,,,,,,,,,,,,,,,,,,,,,,,,,,,,,,,,,,,,,,,,,,,,,,,,,,,,,,,,,,,,,,,,,,,,
0,61,61,85,1,,5cd98287b0c5ec0001e0965a,62c538d588ef00b1eab487a6,2022-07-06_10h25.31.524,Colour_Asymmetry_Pilot,2022.1.3,Win32,60.04563468,62c50e9c1127f2cd403a315f,,,,,,,,,,,,,,,,,,,,,,,,,,,,,,,,,,,,,,,,,,,,,,,,,,,,,,,,,,,,,,,,,,,,,,,,,,,,,,,,,,,,,,,,,,,,,,,,,,,,,,,,,,,,,,,,,,,,,,,,,,,,,,,,,,,,,,,,,,,,,,,,,,,,,,,,,,,,,,,,,,,
0,62,62,4,1,,5cd98287b0c5ec0001e0965a,62c538d588ef00b1eab487a6,2022-07-06_10h25.31.524,Colour_Asymmetry_Pilot,2022.1.3,Win32,60.04563468,62c50e9c1127f2cd403a315f,,,,,,,,,,,,,,,,,,,,,,,,,,,,,,,,,,,,,,,,,,,,,,,,,,,,,,,,,,,,,,,,,,,,,,,,,,,,,,,,,,,,,,,,,,,,,,,,,,,,,,,,,,,,,,,,,,,,,,,,,,,,,,,,,,,,,,,,,,,,,,,,,,,,,,,,,,,,,,,,,,,
0,63,63,88,1,,5cd98287b0c5ec0001e0965a,62c538d588ef00b1eab487a6,2022-07-06_10h25.31.524,Colour_Asymmetry_Pilot,2022.1.3,Win32,60.04563468,62c50e9c1127f2cd403a315f,,,,,,,,,,,,,,,,,,,,,,,,,,,,,,,,,,,,,,,,,,,,,,,,,,,,,,,,,,,,,,,,,,,,,,,,,,,,,,,,,,,,,,,,,,,,,,,,,,,,,,,,,,,,,,,,,,,,,,,,,,,,,,,,,,,,,,,,,,,,,,,,,,,,,,,,,,,,,,,,,,,
0,64,64,52,1,,5cd98287b0c5ec0001e0965a,62c538d588ef00b1eab487a6,2022-07-06_10h25.31.524,Colour_Asymmetry_Pilot,2022.1.3,Win32,60.04563468,62c50e9c1127f2cd403a315f,,,,,,,,,,,,,,,,,,,,,,,,,,,,,,,,,,,,,,,,,,,,,,,,,,,,,,,,,,,,,,,,,,,,,,,,,,,,,,,,,,,,,,,,,,,,,,,,,,,,,,,,,,,,,,,,,,,,,,,,,,,,,,,,,,,,,,,,,,,,,,,,,,,,,,,,,,,,,,,,,,,
0,65,65,57,1,,5cd98287b0c5ec0001e0965a,62c538d588ef00b1eab487a6,2022-07-06_10h25.31.524,Colour_Asymmetry_Pilot,2022.1.3,Win32,60.04563468,62c50e9c1127f2cd403a315f,,,,,,,,,,,,,,,,,,,,,,,,,,,,,,,,,,,,,,,,,,,,,,,,,,,,,,,,,,,,,,,,,,,,,,,,,,,,,,,,,,,,,,,,,,,,,,,,,,,,,,,,,,,,,,,,,,,,,,,,,,,,,,,,,,,,,,,,,,,,,,,,,,,,,,,,,,,,,,,,,,,
0,66,66,63,1,,5cd98287b0c5ec0001e0965a,62c538d588ef00b1eab487a6,2022-07-06_10h25.31.524,Colour_Asymmetry_Pilot,2022.1.3,Win32,60.04563468,62c50e9c1127f2cd403a315f,,,,,,,,,,,,,,,,,,,,,,,,,,,,,,,,,,,,,,,,,,,,,,,,,,,,,,,,,,,,,,,,,,,,,,,,,,,,,,,,,,,,,,,,,,,,,,,,,,,,,,,,,,,,,,,,,,,,,,,,,,,,,,,,,,,,,,,,,,,,,,,,,,,,,,,,,,,,,,,,,,,
0,67,67,10,1,,5cd98287b0c5ec0001e0965a,62c538d588ef00b1eab487a6,2022-07-06_10h25.31.524,Colour_Asymmetry_Pilot,2022.1.3,Win32,60.04563468,62c50e9c1127f2cd403a315f,,,,,,,,,,,,,,,,,,,,,,,,,,,,,,,,,,,,,,,,,,,,,,,,,,,,,,,,,,,,,,,,,,,,,,,,,,,,,,,,,,,,,,,,,,,,,,,,,,,,,,,,,,,,,,,,,,,,,,,,,,,,,,,,,,,,,,,,,,,,,,,,,,,,,,,,,,,,,,,,,,,
0,68,68,37,1,,5cd98287b0c5ec0001e0965a,62c538d588ef00b1eab487a6,2022-07-06_10h25.31.524,Colour_Asymmetry_Pilot,2022.1.3,Win32,60.04563468,62c50e9c1127f2cd403a315f,,,,,,,,,,,,,,,,,,,,,,,,,,,,,,,,,,,,,,,,,,,,,,,,,,,,,,,,,,,,,,,,,,,,,,,,,,,,,,,,,,,,,,,,,,,,,,,,,,,,,,,,,,,,,,,,,,,,,,,,,,,,,,,,,,,,,,,,,,,,,,,,,,,,,,,,,,,,,,,,,,,
0,69,69,74,1,,5cd98287b0c5ec0001e0965a,62c538d588ef00b1eab487a6,2022-07-06_10h25.31.524,Colour_Asymmetry_Pilot,2022.1.3,Win32,60.04563468,62c50e9c1127f2cd403a315f,,,,,,,,,,,,,,,,,,,,,,,,,,,,,,,,,,,,,,,,,,,,,,,,,,,,,,,,,,,,,,,,,,,,,,,,,,,,,,,,,,,,,,,,,,,,,,,,,,,,,,,,,,,,,,,,,,,,,,,,,,,,,,,,,,,,,,,,,,,,,,,,,,,,,,,,,,,,,,,,,,,
0,70,70,33,1,,5cd98287b0c5ec0001e0965a,62c538d588ef00b1eab487a6,2022-07-06_10h25.31.524,Colour_Asymmetry_Pilot,2022.1.3,Win32,60.04563468,62c50e9c1127f2cd403a315f,,,,,,,,,,,,,,,,,,,,,,,,,,,,,,,,,,,,,,,,,,,,,,,,,,,,,,,,,,,,,,,,,,,,,,,,,,,,,,,,,,,,,,,,,,,,,,,,,,,,,,,,,,,,,,,,,,,,,,,,,,,,,,,,,,,,,,,,,,,,,,,,,,,,,,,,,,,,,,,,,,,
0,71,71,66,1,,5cd98287b0c5ec0001e0965a,62c538d588ef00b1eab487a6,2022-07-06_10h25.31.524,Colour_Asymmetry_Pilot,2022.1.3,Win32,60.04563468,62c50e9c1127f2cd403a315f,,,,,,,,,,,,,,,,,,,,,,,,,,,,,,,,,,,,,,,,,,,,,,,,,,,,,,,,,,,,,,,,,,,,,,,,,,,,,,,,,,,,,,,,,,,,,,,,,,,,,,,,,,,,,,,,,,,,,,,,,,,,,,,,,,,,,,,,,,,,,,,,,,,,,,,,,,,,,,,,,,,
0,72,72,64,1,,5cd98287b0c5ec0001e0965a,62c538d588ef00b1eab487a6,2022-07-06_10h25.31.524,Colour_Asymmetry_Pilot,2022.1.3,Win32,60.04563468,62c50e9c1127f2cd403a315f,,,,,,,,,,,,,,,,,,,,,,,,,,,,,,,,,,,,,,,,,,,,,,,,,,,,,,,,,,,,,,,,,,,,,,,,,,,,,,,,,,,,,,,,,,,,,,,,,,,,,,,,,,,,,,,,,,,,,,,,,,,,,,,,,,,,,,,,,,,,,,,,,,,,,,,,,,,,,,,,,,,
0,73,73,50,1,,5cd98287b0c5ec0001e0965a,62c538d588ef00b1eab487a6,2022-07-06_10h25.31.524,Colour_Asymmetry_Pilot,2022.1.3,Win32,60.04563468,62c50e9c1127f2cd403a315f,,,,,,,,,,,,,,,,,,,,,,,,,,,,,,,,,,,,,,,,,,,,,,,,,,,,,,,,,,,,,,,,,,,,,,,,,,,,,,,,,,,,,,,,,,,,,,,,,,,,,,,,,,,,,,,,,,,,,,,,,,,,,,,,,,,,,,,,,,,,,,,,,,,,,,,,,,,,,,,,,,,
0,74,74,86,1,,5cd98287b0c5ec0001e0965a,62c538d588ef00b1eab487a6,2022-07-06_10h25.31.524,Colour_Asymmetry_Pilot,2022.1.3,Win32,60.04563468,62c50e9c1127f2cd403a315f,,,,,,,,,,,,,,,,,,,,,,,,,,,,,,,,,,,,,,,,,,,,,,,,,,,,,,,,,,,,,,,,,,,,,,,,,,,,,,,,,,,,,,,,,,,,,,,,,,,,,,,,,,,,,,,,,,,,,,,,,,,,,,,,,,,,,,,,,,,,,,,,,,,,,,,,,,,,,,,,,,,
0,75,75,28,1,,5cd98287b0c5ec0001e0965a,62c538d588ef00b1eab487a6,2022-07-06_10h25.31.524,Colour_Asymmetry_Pilot,2022.1.3,Win32,60.04563468,62c50e9c1127f2cd403a315f,,,,,,,,,,,,,,,,,,,,,,,,,,,,,,,,,,,,,,,,,,,,,,,,,,,,,,,,,,,,,,,,,,,,,,,,,,,,,,,,,,,,,,,,,,,,,,,,,,,,,,,,,,,,,,,,,,,,,,,,,,,,,,,,,,,,,,,,,,,,,,,,,,,,,,,,,,,,,,,,,,,
0,76,76,44,1,,5cd98287b0c5ec0001e0965a,62c538d588ef00b1eab487a6,2022-07-06_10h25.31.524,Colour_Asymmetry_Pilot,2022.1.3,Win32,60.04563468,62c50e9c1127f2cd403a315f,,,,,,,,,,,,,,,,,,,,,,,,,,,,,,,,,,,,,,,,,,,,,,,,,,,,,,,,,,,,,,,,,,,,,,,,,,,,,,,,,,,,,,,,,,,,,,,,,,,,,,,,,,,,,,,,,,,,,,,,,,,,,,,,,,,,,,,,,,,,,,,,,,,,,,,,,,,,,,,,,,,
0,77,77,17,1,,5cd98287b0c5ec0001e0965a,62c538d588ef00b1eab487a6,2022-07-06_10h25.31.524,Colour_Asymmetry_Pilot,2022.1.3,Win32,60.04563468,62c50e9c1127f2cd403a315f,,,,,,,,,,,,,,,,,,,,,,,,,,,,,,,,,,,,,,,,,,,,,,,,,,,,,,,,,,,,,,,,,,,,,,,,,,,,,,,,,,,,,,,,,,,,,,,,,,,,,,,,,,,,,,,,,,,,,,,,,,,,,,,,,,,,,,,,,,,,,,,,,,,,,,,,,,,,,,,,,,,
0,78,78,80,1,,5cd98287b0c5ec0001e0965a,62c538d588ef00b1eab487a6,2022-07-06_10h25.31.524,Colour_Asymmetry_Pilot,2022.1.3,Win32,60.04563468,62c50e9c1127f2cd403a315f,,,,,,,,,,,,,,,,,,,,,,,,,,,,,,,,,,,,,,,,,,,,,,,,,,,,,,,,,,,,,,,,,,,,,,,,,,,,,,,,,,,,,,,,,,,,,,,,,,,,,,,,,,,,,,,,,,,,,,,,,,,,,,,,,,,,,,,,,,,,,,,,,,,,,,,,,,,,,,,,,,,
0,79,79,91,1,,5cd98287b0c5ec0001e0965a,62c538d588ef00b1eab487a6,2022-07-06_10h25.31.524,Colour_Asymmetry_Pilot,2022.1.3,Win32,60.04563468,62c50e9c1127f2cd403a315f,,,,,,,,,,,,,,,,,,,,,,,,,,,,,,,,,,,,,,,,,,,,,,,,,,,,,,,,,,,,,,,,,,,,,,,,,,,,,,,,,,,,,,,,,,,,,,,,,,,,,,,,,,,,,,,,,,,,,,,,,,,,,,,,,,,,,,,,,,,,,,,,,,,,,,,,,,,,,,,,,,,
0,80,80,71,1,,5cd98287b0c5ec0001e0965a,62c538d588ef00b1eab487a6,2022-07-06_10h25.31.524,Colour_Asymmetry_Pilot,2022.1.3,Win32,60.04563468,62c50e9c1127f2cd403a315f,,,,,,,,,,,,,,,,,,,,,,,,,,,,,,,,,,,,,,,,,,,,,,,,,,,,,,,,,,,,,,,,,,,,,,,,,,,,,,,,,,,,,,,,,,,,,,,,,,,,,,,,,,,,,,,,,,,,,,,,,,,,,,,,,,,,,,,,,,,,,,,,,,,,,,,,,,,,,,,,,,,
0,81,81,16,1,,5cd98287b0c5ec0001e0965a,62c538d588ef00b1eab487a6,2022-07-06_10h25.31.524,Colour_Asymmetry_Pilot,2022.1.3,Win32,60.04563468,62c50e9c1127f2cd403a315f,,,,,,,,,,,,,,,,,,,,,,,,,,,,,,,,,,,,,,,,,,,,,,,,,,,,,,,,,,,,,,,,,,,,,,,,,,,,,,,,,,,,,,,,,,,,,,,,,,,,,,,,,,,,,,,,,,,,,,,,,,,,,,,,,,,,,,,,,,,,,,,,,,,,,,,,,,,,,,,,,,,
0,82,82,5,1,,5cd98287b0c5ec0001e0965a,62c538d588ef00b1eab487a6,2022-07-06_10h25.31.524,Colour_Asymmetry_Pilot,2022.1.3,Win32,60.04563468,62c50e9c1127f2cd403a315f,,,,,,,,,,,,,,,,,,,,,,,,,,,,,,,,,,,,,,,,,,,,,,,,,,,,,,,,,,,,,,,,,,,,,,,,,,,,,,,,,,,,,,,,,,,,,,,,,,,,,,,,,,,,,,,,,,,,,,,,,,,,,,,,,,,,,,,,,,,,,,,,,,,,,,,,,,,,,,,,,,,
0,83,83,90,1,,5cd98287b0c5ec0001e0965a,62c538d588ef00b1eab487a6,2022-07-06_10h25.31.524,Colour_Asymmetry_Pilot,2022.1.3,Win32,60.04563468,62c50e9c1127f2cd403a315f,,,,,,,,,,,,,,,,,,,,,,,,,,,,,,,,,,,,,,,,,,,,,,,,,,,,,,,,,,,,,,,,,,,,,,,,,,,,,,,,,,,,,,,,,,,,,,,,,,,,,,,,,,,,,,,,,,,,,,,,,,,,,,,,,,,,,,,,,,,,,,,,,,,,,,,,,,,,,,,,,,,
0,84,84,75,1,,5cd98287b0c5ec0001e0965a,62c538d588ef00b1eab487a6,2022-07-06_10h25.31.524,Colour_Asymmetry_Pilot,2022.1.3,Win32,60.04563468,62c50e9c1127f2cd403a315f,,,,,,,,,,,,,,,,,,,,,,,,,,,,,,,,,,,,,,,,,,,,,,,,,,,,,,,,,,,,,,,,,,,,,,,,,,,,,,,,,,,,,,,,,,,,,,,,,,,,,,,,,,,,,,,,,,,,,,,,,,,,,,,,,,,,,,,,,,,,,,,,,,,,,,,,,,,,,,,,,,,
0,85,85,48,1,,5cd98287b0c5ec0001e0965a,62c538d588ef00b1eab487a6,2022-07-06_10h25.31.524,Colour_Asymmetry_Pilot,2022.1.3,Win32,60.04563468,62c50e9c1127f2cd403a315f,,,,,,,,,,,,,,,,,,,,,,,,,,,,,,,,,,,,,,,,,,,,,,,,,,,,,,,,,,,,,,,,,,,,,,,,,,,,,,,,,,,,,,,,,,,,,,,,,,,,,,,,,,,,,,,,,,,,,,,,,,,,,,,,,,,,,,,,,,,,,,,,,,,,,,,,,,,,,,,,,,,
0,86,86,40,1,,5cd98287b0c5ec0001e0965a,62c538d588ef00b1eab487a6,2022-07-06_10h25.31.524,Colour_Asymmetry_Pilot,2022.1.3,Win32,60.04563468,62c50e9c1127f2cd403a315f,,,,,,,,,,,,,,,,,,,,,,,,,,,,,,,,,,,,,,,,,,,,,,,,,,,,,,,,,,,,,,,,,,,,,,,,,,,,,,,,,,,,,,,,,,,,,,,,,,,,,,,,,,,,,,,,,,,,,,,,,,,,,,,,,,,,,,,,,,,,,,,,,,,,,,,,,,,,,,,,,,,
0,87,87,51,1,,5cd98287b0c5ec0001e0965a,62c538d588ef00b1eab487a6,2022-07-06_10h25.31.524,Colour_Asymmetry_Pilot,2022.1.3,Win32,60.04563468,62c50e9c1127f2cd403a315f,,,,,,,,,,,,,,,,,,,,,,,,,,,,,,,,,,,,,,,,,,,,,,,,,,,,,,,,,,,,,,,,,,,,,,,,,,,,,,,,,,,,,,,,,,,,,,,,,,,,,,,,,,,,,,,,,,,,,,,,,,,,,,,,,,,,,,,,,,,,,,,,,,,,,,,,,,,,,,,,,,,
0,88,88,73,1,,5cd98287b0c5ec0001e0965a,62c538d588ef00b1eab487a6,2022-07-06_10h25.31.524,Colour_Asymmetry_Pilot,2022.1.3,Win32,60.04563468,62c50e9c1127f2cd403a315f,,,,,,,,,,,,,,,,,,,,,,,,,,,,,,,,,,,,,,,,,,,,,,,,,,,,,,,,,,,,,,,,,,,,,,,,,,,,,,,,,,,,,,,,,,,,,,,,,,,,,,,,,,,,,,,,,,,,,,,,,,,,,,,,,,,,,,,,,,,,,,,,,,,,,,,,,,,,,,,,,,,
0,89,89,36,1,,5cd98287b0c5ec0001e0965a,62c538d588ef00b1eab487a6,2022-07-06_10h25.31.524,Colour_Asymmetry_Pilot,2022.1.3,Win32,60.04563468,62c50e9c1127f2cd403a315f,,,,,,,,,,,,,,,,,,,,,,,,,,,,,,,,,,,,,,,,,,,,,,,,,,,,,,,,,,,,,,,,,,,,,,,,,,,,,,,,,,,,,,,,,,,,,,,,,,,,,,,,,,,,,,,,,,,,,,,,,,,,,,,,,,,,,,,,,,,,,,,,,,,,,,,,,,,,,,,,,,,
0,90,90,60,1,,5cd98287b0c5ec0001e0965a,62c538d588ef00b1eab487a6,2022-07-06_10h25.31.524,Colour_Asymmetry_Pilot,2022.1.3,Win32,60.04563468,62c50e9c1127f2cd403a315f,,,,,,,,,,,,,,,,,,,,,,,,,,,,,,,,,,,,,,,,,,,,,,,,,,,,,,,,,,,,,,,,,,,,,,,,,,,,,,,,,,,,,,,,,,,,,,,,,,,,,,,,,,,,,,,,,,,,,,,,,,,,,,,,,,,,,,,,,,,,,,,,,,,,,,,,,,,,,,,,,,,
0,91,91,61,1,,5cd98287b0c5ec0001e0965a,62c538d588ef00b1eab487a6,2022-07-06_10h25.31.524,Colour_Asymmetry_Pilot,2022.1.3,Win32,60.04563468,62c50e9c1127f2cd403a315f,,,,,,,,,,,,,,,,,,,,,,,,,,,,,,,,,,,,,,,,,,,,,,,,,,,,,,,,,,,,,,,,,,,,,,,,,,,,,,,,,,,,,,,,,,,,,,,,,,,,,,,,,,,,,,,,,,,,,,,,,,,,,,,,,,,,,,,,,,,,,,,,,,,,,,,,,,,,,,,,,,,
0,92,92,59,1,,5cd98287b0c5ec0001e0965a,62c538d588ef00b1eab487a6,2022-07-06_10h25.31.524,Colour_Asymmetry_Pilot,2022.1.3,Win32,60.04563468,62c50e9c1127f2cd403a315f,,,,,,,,,,,,,,,,,,,,,,,,,,,,,,,,,,,,,,,,,,,,,,,,,,,,,,,,,,,,,,,,,,,,,,,,,,,,,,,,,,,,,,,,,,,,,,,,,,,,,,,,,,,,,,,,,,,,,,,,,,,,,,,,,,,,,,,,,,,,,,,,,,,,,,,,,,,,,,,,,,,
,,,,,,5cd98287b0c5ec0001e0965a,62c538d588ef00b1eab487a6,2022-07-06_10h25.31.524,Colour_Asymmetry_Pilot,2022.1.3,Win32,60.04563468,62c50e9c1127f2cd403a315f,0,0,0,24,1,onetwo,,,,,,,,,,,,,,,,,,,,,,,,,,,,,,,,,,,,,,,,,,,,,,,,,,,,,,,,,,,,,,,,,,,,,,,,,,,,,,,,,,,,,,,,,,,,,,,,,,,,,,,,,,,,,,,,,,,,,,,,,,,,,,,,,,,,,,,,,,,,,,,,,,,,,,,,,,,,,
,,,,,,5cd98287b0c5ec0001e0965a,62c538d588ef00b1eab487a6,2022-07-06_10h25.31.524,Colour_Asymmetry_Pilot,2022.1.3,Win32,60.04563468,62c50e9c1127f2cd403a315f,0,1,1,30,1,fourtwo,,,,,,,,,,,,,,,,,,,,,,,,,,,,,,,,,,,,,,,,,,,,,,,,,,,,,,,,,,,,,,,,,,,,,,,,,,,,,,,,,,,,,,,,,,,,,,,,,,,,,,,,,,,,,,,,,,,,,,,,,,,,,,,,,,,,,,,,,,,,,,,,,,,,,,,,,,,,,
,,,,,,5cd98287b0c5ec0001e0965a,62c538d588ef00b1eab487a6,2022-07-06_10h25.31.524,Colour_Asymmetry_Pilot,2022.1.3,Win32,60.04563468,62c50e9c1127f2cd403a315f,0,2,2,111,1,fourthree,,,,,,,,,,,,,,,,,,,,,,,,,,,,,,,,,,,,,,,,,,,,,,,,,,,,,,,,,,,,,,,,,,,,,,,,,,,,,,,,,,,,,,,,,,,,,,,,,,,,,,,,,,,,,,,,,,,,,,,,,,,,,,,,,,,,,,,,,,,,,,,,,,,,,,,,,,,,,
,,,,,,5cd98287b0c5ec0001e0965a,62c538d588ef00b1eab487a6,2022-07-06_10h25.31.524,Colour_Asymmetry_Pilot,2022.1.3,Win32,60.04563468,62c50e9c1127f2cd403a315f,0,3,3,69,1,threefour,,,,,,,,,,,,,,,,,,,,,,,,,,,,,,,,,,,,,,,,,,,,,,,,,,,,,,,,,,,,,,,,,,,,,,,,,,,,,,,,,,,,,,,,,,,,,,,,,,,,,,,,,,,,,,,,,,,,,,,,,,,,,,,,,,,,,,,,,,,,,,,,,,,,,,,,,,,,,
,,,,,,5cd98287b0c5ec0001e0965a,62c538d588ef00b1eab487a6,2022-07-06_10h25.31.524,Colour_Asymmetry_Pilot,2022.1.3,Win32,60.04563468,62c50e9c1127f2cd403a315f,0,4,4,22,1,fourtwo,,,,,,,,,,,,,,,,,,,,,,,,,,,,,,,,,,,,,,,,,,,,,,,,,,,,,,,,,,,,,,,,,,,,,,,,,,,,,,,,,,,,,,,,,,,,,,,,,,,,,,,,,,,,,,,,,,,,,,,,,,,,,,,,,,,,,,,,,,,,,,,,,,,,,,,,,,,,,
,,,,,,5cd98287b0c5ec0001e0965a,62c538d588ef00b1eab487a6,2022-07-06_10h25.31.524,Colour_Asymmetry_Pilot,2022.1.3,Win32,60.04563468,62c50e9c1127f2cd403a315f,0,5,5,55,1,fourthree,,,,,,,,,,,,,,,,,,,,,,,,,,,,,,,,,,,,,,,,,,,,,,,,,,,,,,,,,,,,,,,,,,,,,,,,,,,,,,,,,,,,,,,,,,,,,,,,,,,,,,,,,,,,,,,,,,,,,,,,,,,,,,,,,,,,,,,,,,,,,,,,,,,,,,,,,,,,,
,,,,,,5cd98287b0c5ec0001e0965a,62c538d588ef00b1eab487a6,2022-07-06_10h25.31.524,Colour_Asymmetry_Pilot,2022.1.3,Win32,60.04563468,62c50e9c1127f2cd403a315f,0,6,6,60,1,threeone,,,,,,,,,,,,,,,,,,,,,,,,,,,,,,,,,,,,,,,,,,,,,,,,,,,,,,,,,,,,,,,,,,,,,,,,,,,,,,,,,,,,,,,,,,,,,,,,,,,,,,,,,,,,,,,,,,,,,,,,,,,,,,,,,,,,,,,,,,,,,,,,,,,,,,,,,,,,,
,,,,,,5cd98287b0c5ec0001e0965a,62c538d588ef00b1eab487a6,2022-07-06_10h25.31.524,Colour_Asymmetry_Pilot,2022.1.3,Win32,60.04563468,62c50e9c1127f2cd403a315f,0,7,7,94,1,fourtwo,,,,,,,,,,,,,,,,,,,,,,,,,,,,,,,,,,,,,,,,,,,,,,,,,,,,,,,,,,,,,,,,,,,,,,,,,,,,,,,,,,,,,,,,,,,,,,,,,,,,,,,,,,,,,,,,,,,,,,,,,,,,,,,,,,,,,,,,,,,,,,,,,,,,,,,,,,,,,
,,,,,,5cd98287b0c5ec0001e0965a,62c538d588ef00b1eab487a6,2022-07-06_10h25.31.524,Colour_Asymmetry_Pilot,2022.1.3,Win32,60.04563468,62c50e9c1127f2cd403a315f,0,8,8,48,1,onetwo,,,,,,,,,,,,,,,,,,,,,,,,,,,,,,,,,,,,,,,,,,,,,,,,,,,,,,,,,,,,,,,,,,,,,,,,,,,,,,,,,,,,,,,,,,,,,,,,,,,,,,,,,,,,,,,,,,,,,,,,,,,,,,,,,,,,,,,,,,,,,,,,,,,,,,,,,,,,,
,,,,,,5cd98287b0c5ec0001e0965a,62c538d588ef00b1eab487a6,2022-07-06_10h25.31.524,Colour_Asymmetry_Pilot,2022.1.3,Win32,60.04563468,62c50e9c1127f2cd403a315f,0,9,9,42,1,twoone,,,,,,,,,,,,,,,,,,,,,,,,,,,,,,,,,,,,,,,,,,,,,,,,,,,,,,,,,,,,,,,,,,,,,,,,,,,,,,,,,,,,,,,,,,,,,,,,,,,,,,,,,,,,,,,,,,,,,,,,,,,,,,,,,,,,,,,,,,,,,,,,,,,,,,,,,,,,,
,,,,,,5cd98287b0c5ec0001e0965a,62c538d588ef00b1eab487a6,2022-07-06_10h25.31.524,Colour_Asymmetry_Pilot,2022.1.3,Win32,60.04563468,62c50e9c1127f2cd403a315f,0,10,10,0,1,onetwo,,,,,,,,,,,,,,,,,,,,,,,,,,,,,,,,,,,,,,,,,,,,,,,,,,,,,,,,,,,,,,,,,,,,,,,,,,,,,,,,,,,,,,,,,,,,,,,,,,,,,,,,,,,,,,,,,,,,,,,,,,,,,,,,,,,,,,,,,,,,,,,,,,,,,,,,,,,,,
,,,,,,5cd98287b0c5ec0001e0965a,62c538d588ef00b1eab487a6,2022-07-06_10h25.31.524,Colour_Asymmetry_Pilot,2022.1.3,Win32,60.04563468,62c50e9c1127f2cd403a315f,0,11,11,66,1,twoone,,,,,,,,,,,,,,,,,,,,,,,,,,,,,,,,,,,,,,,,,,,,,,,,,,,,,,,,,,,,,,,,,,,,,,,,,,,,,,,,,,,,,,,,,,,,,,,,,,,,,,,,,,,,,,,,,,,,,,,,,,,,,,,,,,,,,,,,,,,,,,,,,,,,,,,,,,,,,
,,,,,,5cd98287b0c5ec0001e0965a,62c538d588ef00b1eab487a6,2022-07-06_10h25.31.524,Colour_Asymmetry_Pilot,2022.1.3,Win32,60.04563468,62c50e9c1127f2cd403a315f,0,12,12,82,1,twoone,,,,,,,,,,,,,,,,,,,,,,,,,,,,,,,,,,,,,,,,,,,,,,,,,,,,,,,,,,,,,,,,,,,,,,,,,,,,,,,,,,,,,,,,,,,,,,,,,,,,,,,,,,,,,,,,,,,,,,,,,,,,,,,,,,,,,,,,,,,,,,,,,,,,,,,,,,,,,
,,,,,,5cd98287b0c5ec0001e0965a,62c538d588ef00b1eab487a6,2022-07-06_10h25.31.524,Colour_Asymmetry_Pilot,2022.1.3,Win32,60.04563468,62c50e9c1127f2cd403a315f,0,13,13,12,1,threeone,,,,,,,,,,,,,,,,,,,,,,,,,,,,,,,,,,,,,,,,,,,,,,,,,,,,,,,,,,,,,,,,,,,,,,,,,,,,,,,,,,,,,,,,,,,,,,,,,,,,,,,,,,,,,,,,,,,,,,,,,,,,,,,,,,,,,,,,,,,,,,,,,,,,,,,,,,,,,
,,,,,,5cd98287b0c5ec0001e0965a,62c538d588ef00b1eab487a6,2022-07-06_10h25.31.524,Colour_Asymmetry_Pilot,2022.1.3,Win32,60.04563468,62c50e9c1127f2cd403a315f,0,14,14,78,1,fourtwo,,,,,,,,,,,,,,,,,,,,,,,,,,,,,,,,,,,,,,,,,,,,,,,,,,,,,,,,,,,,,,,,,,,,,,,,,,,,,,,,,,,,,,,,,,,,,,,,,,,,,,,,,,,,,,,,,,,,,,,,,,,,,,,,,,,,,,,,,,,,,,,,,,,,,,,,,,,,,
,,,,,,5cd98287b0c5ec0001e0965a,62c538d588ef00b1eab487a6,2022-07-06_10h25.31.524,Colour_Asymmetry_Pilot,2022.1.3,Win32,60.04563468,62c50e9c1127f2cd403a315f,0,15,15,63,1,fourthree,,,,,,,,,,,,,,,,,,,,,,,,,,,,,,,,,,,,,,,,,,,,,,,,,,,,,,,,,,,,,,,,,,,,,,,,,,,,,,,,,,,,,,,,,,,,,,,,,,,,,,,,,,,,,,,,,,,,,,,,,,,,,,,,,,,,,,,,,,,,,,,,,,,,,,,,,,,,,
,,,,,,5cd98287b0c5ec0001e0965a,62c538d588ef00b1eab487a6,2022-07-06_10h25.31.524,Colour_Asymmetry_Pilot,2022.1.3,Win32,60.04563468,62c50e9c1127f2cd403a315f,0,16,16,108,1,threeone,,,,,,,,,,,,,,,,,,,,,,,,,,,,,,,,,,,,,,,,,,,,,,,,,,,,,,,,,,,,,,,,,,,,,,,,,,,,,,,,,,,,,,,,,,,,,,,,,,,,,,,,,,,,,,,,,,,,,,,,,,,,,,,,,,,,,,,,,,,,,,,,,,,,,,,,,,,,,
,,,,,,5cd98287b0c5ec0001e0965a,62c538d588ef00b1eab487a6,2022-07-06_10h25.31.524,Colour_Asymmetry_Pilot,2022.1.3,Win32,60.04563468,62c50e9c1127f2cd403a315f,0,17,17,92,1,threeone,,,,,,,,,,,,,,,,,,,,,,,,,,,,,,,,,,,,,,,,,,,,,,,,,,,,,,,,,,,,,,,,,,,,,,,,,,,,,,,,,,,,,,,,,,,,,,,,,,,,,,,,,,,,,,,,,,,,,,,,,,,,,,,,,,,,,,,,,,,,,,,,,,,,,,,,,,,,,
,,,,,,5cd98287b0c5ec0001e0965a,62c538d588ef00b1eab487a6,2022-07-06_10h25.31.524,Colour_Asymmetry_Pilot,2022.1.3,Win32,60.04563468,62c50e9c1127f2cd403a315f,0,18,18,123,1,twofour,,,,,,,,,,,,,,,,,,,,,,,,,,,,,,,,,,,,,,,,,,,,,,,,,,,,,,,,,,,,,,,,,,,,,,,,,,,,,,,,,,,,,,,,,,,,,,,,,,,,,,,,,,,,,,,,,,,,,,,,,,,,,,,,,,,,,,,,,,,,,,,,,,,,,,,,,,,,,
,,,,,,5cd98287b0c5ec0001e0965a,62c538d588ef00b1eab487a6,2022-07-06_10h25.31.524,Colour_Asymmetry_Pilot,2022.1.3,Win32,60.04563468,62c50e9c1127f2cd403a315f,0,19,19,100,1,threeone,,,,,,,,,,,,,,,,,,,,,,,,,,,,,,,,,,,,,,,,,,,,,,,,,,,,,,,,,,,,,,,,,,,,,,,,,,,,,,,,,,,,,,,,,,,,,,,,,,,,,,,,,,,,,,,,,,,,,,,,,,,,,,,,,,,,,,,,,,,,,,,,,,,,,,,,,,,,,
,,,,,,5cd98287b0c5ec0001e0965a,62c538d588ef00b1eab487a6,2022-07-06_10h25.31.524,Colour_Asymmetry_Pilot,2022.1.3,Win32,60.04563468,62c50e9c1127f2cd403a315f,0,20,20,25,1,onethree,,,,,,,,,,,,,,,,,,,,,,,,,,,,,,,,,,,,,,,,,,,,,,,,,,,,,,,,,,,,,,,,,,,,,,,,,,,,,,,,,,,,,,,,,,,,,,,,,,,,,,,,,,,,,,,,,,,,,,,,,,,,,,,,,,,,,,,,,,,,,,,,,,,,,,,,,,,,,
,,,,,,5cd98287b0c5ec0001e0965a,62c538d588ef00b1eab487a6,2022-07-06_10h25.31.524,Colour_Asymmetry_Pilot,2022.1.3,Win32,60.04563468,62c50e9c1127f2cd403a315f,0,21,21,51,1,twofour,,,,,,,,,,,,,,,,,,,,,,,,,,,,,,,,,,,,,,,,,,,,,,,,,,,,,,,,,,,,,,,,,,,,,,,,,,,,,,,,,,,,,,,,,,,,,,,,,,,,,,,,,,,,,,,,,,,,,,,,,,,,,,,,,,,,,,,,,,,,,,,,,,,,,,,,,,,,,
,,,,,,5cd98287b0c5ec0001e0965a,62c538d588ef00b1eab487a6,2022-07-06_10h25.31.524,Colour_Asymmetry_Pilot,2022.1.3,Win32,60.04563468,62c50e9c1127f2cd403a315f,0,22,22,95,1,fourthree,,,,,,,,,,,,,,,,,,,,,,,,,,,,,,,,,,,,,,,,,,,,,,,,,,,,,,,,,,,,,,,,,,,,,,,,,,,,,,,,,,,,,,,,,,,,,,,,,,,,,,,,,,,,,,,,,,,,,,,,,,,,,,,,,,,,,,,,,,,,,,,,,,,,,,,,,,,,,
,,,,,,5cd98287b0c5ec0001e0965a,62c538d588ef00b1eab487a6,2022-07-06_10h25.31.524,Colour_Asymmetry_Pilot,2022.1.3,Win32,60.04563468,62c50e9c1127f2cd403a315f,0,23,23,18,1,twoone,,,,,,,,,,,,,,,,,,,,,,,,,,,,,,,,,,,,,,,,,,,,,,,,,,,,,,,,,,,,,,,,,,,,,,,,,,,,,,,,,,,,,,,,,,,,,,,,,,,,,,,,,,,,,,,,,,,,,,,,,,,,,,,,,,,,,,,,,,,,,,,,,,,,,,,,,,,,,
,,,,,,5cd98287b0c5ec0001e0965a,62c538d588ef00b1eab487a6,2022-07-06_10h25.31.524,Colour_Asymmetry_Pilot,2022.1.3,Win32,60.04563468,62c50e9c1127f2cd403a315f,0,24,24,107,1,twofour,,,,,,,,,,,,,,,,,,,,,,,,,,,,,,,,,,,,,,,,,,,,,,,,,,,,,,,,,,,,,,,,,,,,,,,,,,,,,,,,,,,,,,,,,,,,,,,,,,,,,,,,,,,,,,,,,,,,,,,,,,,,,,,,,,,,,,,,,,,,,,,,,,,,,,,,,,,,,
,,,,,,5cd98287b0c5ec0001e0965a,62c538d588ef00b1eab487a6,2022-07-06_10h25.31.524,Colour_Asymmetry_Pilot,2022.1.3,Win32,60.04563468,62c50e9c1127f2cd403a315f,0,25,25,45,1,threefour,,,,,,,,,,,,,,,,,,,,,,,,,,,,,,,,,,,,,,,,,,,,,,,,,,,,,,,,,,,,,,,,,,,,,,,,,,,,,,,,,,,,,,,,,,,,,,,,,,,,,,,,,,,,,,,,,,,,,,,,,,,,,,,,,,,,,,,,,,,,,,,,,,,,,,,,,,,,,
,,,,,,5cd98287b0c5ec0001e0965a,62c538d588ef00b1eab487a6,2022-07-06_10h25.31.524,Colour_Asymmetry_Pilot,2022.1.3,Win32,60.04563468,62c50e9c1127f2cd403a315f,0,26,26,149,1,threefour,,,,,,,,,,,,,,,,,,,,,,,,,,,,,,,,,,,,,,,,,,,,,,,,,,,,,,,,,,,,,,,,,,,,,,,,,,,,,,,,,,,,,,,,,,,,,,,,,,,,,,,,,,,,,,,,,,,,,,,,,,,,,,,,,,,,,,,,,,,,,,,,,,,,,,,,,,,,,
,,,,,,5cd98287b0c5ec0001e0965a,62c538d588ef00b1eab487a6,2022-07-06_10h25.31.524,Colour_Asymmetry_Pilot,2022.1.3,Win32,60.04563468,62c50e9c1127f2cd403a315f,0,27,27,10,1,twoone,,,,,,,,,,,,,,,,,,,,,,,,,,,,,,,,,,,,,,,,,,,,,,,,,,,,,,,,,,,,,,,,,,,,,,,,,,,,,,,,,,,,,,,,,,,,,,,,,,,,,,,,,,,,,,,,,,,,,,,,,,,,,,,,,,,,,,,,,,,,,,,,,,,,,,,,,,,,,
,,,,,,5cd98287b0c5ec0001e0965a,62c538d588ef00b1eab487a6,2022-07-06_10h25.31.524,Colour_Asymmetry_Pilot,2022.1.3,Win32,60.04563468,62c50e9c1127f2cd403a315f,0,28,28,126,1,fourtwo,,,,,,,,,,,,,,,,,,,,,,,,,,,,,,,,,,,,,,,,,,,,,,,,,,,,,,,,,,,,,,,,,,,,,,,,,,,,,,,,,,,,,,,,,,,,,,,,,,,,,,,,,,,,,,,,,,,,,,,,,,,,,,,,,,,,,,,,,,,,,,,,,,,,,,,,,,,,,
,,,,,,5cd98287b0c5ec0001e0965a,62c538d588ef00b1eab487a6,2022-07-06_10h25.31.524,Colour_Asymmetry_Pilot,2022.1.3,Win32,60.04563468,62c50e9c1127f2cd403a315f,0,29,29,7,1,fourthree,,,,,,,,,,,,,,,,,,,,,,,,,,,,,,,,,,,,,,,,,,,,,,,,,,,,,,,,,,,,,,,,,,,,,,,,,,,,,,,,,,,,,,,,,,,,,,,,,,,,,,,,,,,,,,,,,,,,,,,,,,,,,,,,,,,,,,,,,,,,,,,,,,,,,,,,,,,,,
,,,,,,5cd98287b0c5ec0001e0965a,62c538d588ef00b1eab487a6,2022-07-06_10h25.31.524,Colour_Asymmetry_Pilot,2022.1.3,Win32,60.04563468,62c50e9c1127f2cd403a315f,0,30,30,98,1,twoone,,,,,,,,,,,,,,,,,,,,,,,,,,,,,,,,,,,,,,,,,,,,,,,,,,,,,,,,,,,,,,,,,,,,,,,,,,,,,,,,,,,,,,,,,,,,,,,,,,,,,,,,,,,,,,,,,,,,,,,,,,,,,,,,,,,,,,,,,,,,,,,,,,,,,,,,,,,,,
,,,,,,5cd98287b0c5ec0001e0965a,62c538d588ef00b1eab487a6,2022-07-06_10h25.31.524,Colour_Asymmetry_Pilot,2022.1.3,Win32,60.04563468,62c50e9c1127f2cd403a315f,0,31,31,2,1,twoone,,,,,,,,,,,,,,,,,,,,,,,,,,,,,,,,,,,,,,,,,,,,,,,,,,,,,,,,,,,,,,,,,,,,,,,,,,,,,,,,,,,,,,,,,,,,,,,,,,,,,,,,,,,,,,,,,,,,,,,,,,,,,,,,,,,,,,,,,,,,,,,,,,,,,,,,,,,,,
,,,,,,5cd98287b0c5ec0001e0965a,62c538d588ef00b1eab487a6,2022-07-06_10h25.31.524,Colour_Asymmetry_Pilot,2022.1.3,Win32,60.04563468,62c50e9c1127f2cd403a315f,0,32,32,20,1,threeone,,,,,,,,,,,,,,,,,,,,,,,,,,,,,,,,,,,,,,,,,,,,,,,,,,,,,,,,,,,,,,,,,,,,,,,,,,,,,,,,,,,,,,,,,,,,,,,,,,,,,,,,,,,,,,,,,,,,,,,,,,,,,,,,,,,,,,,,,,,,,,,,,,,,,,,,,,,,,
,,,,,,5cd98287b0c5ec0001e0965a,62c538d588ef00b1eab487a6,2022-07-06_10h25.31.524,Colour_Asymmetry_Pilot,2022.1.3,Win32,60.04563468,62c50e9c1127f2cd403a315f,0,33,33,155,1,twofour,,,,,,,,,,,,,,,,,,,,,,,,,,,,,,,,,,,,,,,,,,,,,,,,,,,,,,,,,,,,,,,,,,,,,,,,,,,,,,,,,,,,,,,,,,,,,,,,,,,,,,,,,,,,,,,,,,,,,,,,,,,,,,,,,,,,,,,,,,,,,,,,,,,,,,,,,,,,,
,,,,,,5cd98287b0c5ec0001e0965a,62c538d588ef00b1eab487a6,2022-07-06_10h25.31.524,Colour_Asymmetry_Pilot,2022.1.3,Win32,60.04563468,62c50e9c1127f2cd403a315f,0,34,34,81,1,onethree,,,,,,,,,,,,,,,,,,,,,,,,,,,,,,,,,,,,,,,,,,,,,,,,,,,,,,,,,,,,,,,,,,,,,,,,,,,,,,,,,,,,,,,,,,,,,,,,,,,,,,,,,,,,,,,,,,,,,,,,,,,,,,,,,,,,,,,,,,,,,,,,,,,,,,,,,,,,,
,,,,,,5cd98287b0c5ec0001e0965a,62c538d588ef00b1eab487a6,2022-07-06_10h25.31.524,Colour_Asymmetry_Pilot,2022.1.3,Win32,60.04563468,62c50e9c1127f2cd403a315f,0,35,35,47,1,fourthree,,,,,,,,,,,,,,,,,,,,,,,,,,,,,,,,,,,,,,,,,,,,,,,,,,,,,,,,,,,,,,,,,,,,,,,,,,,,,,,,,,,,,,,,,,,,,,,,,,,,,,,,,,,,,,,,,,,,,,,,,,,,,,,,,,,,,,,,,,,,,,,,,,,,,,,,,,,,,
,,,,,,5cd98287b0c5ec0001e0965a,62c538d588ef00b1eab487a6,2022-07-06_10h25.31.524,Colour_Asymmetry_Pilot,2022.1.3,Win32,60.04563468,62c50e9c1127f2cd403a315f,0,36,36,141,1,threefour,,,,,,,,,,,,,,,,,,,,,,,,,,,,,,,,,,,,,,,,,,,,,,,,,,,,,,,,,,,,,,,,,,,,,,,,,,,,,,,,,,,,,,,,,,,,,,,,,,,,,,,,,,,,,,,,,,,,,,,,,,,,,,,,,,,,,,,,,,,,,,,,,,,,,,,,,,,,,
,,,,,,5cd98287b0c5ec0001e0965a,62c538d588ef00b1eab487a6,2022-07-06_10h25.31.524,Colour_Asymmetry_Pilot,2022.1.3,Win32,60.04563468,62c50e9c1127f2cd403a315f,0,37,37,112,1,onetwo,,,,,,,,,,,,,,,,,,,,,,,,,,,,,,,,,,,,,,,,,,,,,,,,,,,,,,,,,,,,,,,,,,,,,,,,,,,,,,,,,,,,,,,,,,,,,,,,,,,,,,,,,,,,,,,,,,,,,,,,,,,,,,,,,,,,,,,,,,,,,,,,,,,,,,,,,,,,,
,,,,,,5cd98287b0c5ec0001e0965a,62c538d588ef00b1eab487a6,2022-07-06_10h25.31.524,Colour_Asymmetry_Pilot,2022.1.3,Win32,60.04563468,62c50e9c1127f2cd403a315f,0,38,38,99,1,twofour,,,,,,,,,,,,,,,,,,,,,,,,,,,,,,,,,,,,,,,,,,,,,,,,,,,,,,,,,,,,,,,,,,,,,,,,,,,,,,,,,,,,,,,,,,,,,,,,,,,,,,,,,,,,,,,,,,,,,,,,,,,,,,,,,,,,,,,,,,,,,,,,,,,,,,,,,,,,,
,,,,,,5cd98287b0c5ec0001e0965a,62c538d588ef00b1eab487a6,2022-07-06_10h25.31.524,Colour_Asymmetry_Pilot,2022.1.3,Win32,60.04563468,62c50e9c1127f2cd403a315f,0,39,39,31,1,fourthree,,,,,,,,,,,,,,,,,,,,,,,,,,,,,,,,,,,,,,,,,,,,,,,,,,,,,,,,,,,,,,,,,,,,,,,,,,,,,,,,,,,,,,,,,,,,,,,,,,,,,,,,,,,,,,,,,,,,,,,,,,,,,,,,,,,,,,,,,,,,,,,,,,,,,,,,,,,,,
,,,,,,5cd98287b0c5ec0001e0965a,62c538d588ef00b1eab487a6,2022-07-06_10h25.31.524,Colour_Asymmetry_Pilot,2022.1.3,Win32,60.04563468,62c50e9c1127f2cd403a315f,0,40,40,15,1,fourthree,,,,,,,,,,,,,,,,,,,,,,,,,,,,,,,,,,,,,,,,,,,,,,,,,,,,,,,,,,,,,,,,,,,,,,,,,,,,,,,,,,,,,,,,,,,,,,,,,,,,,,,,,,,,,,,,,,,,,,,,,,,,,,,,,,,,,,,,,,,,,,,,,,,,,,,,,,,,,
,,,,,,5cd98287b0c5ec0001e0965a,62c538d588ef00b1eab487a6,2022-07-06_10h25.31.524,Colour_Asymmetry_Pilot,2022.1.3,Win32,60.04563468,62c50e9c1127f2cd403a315f,0,41,41,142,1,fourtwo,,,,,,,,,,,,,,,,,,,,,,,,,,,,,,,,,,,,,,,,,,,,,,,,,,,,,,,,,,,,,,,,,,,,,,,,,,,,,,,,,,,,,,,,,,,,,,,,,,,,,,,,,,,,,,,,,,,,,,,,,,,,,,,,,,,,,,,,,,,,,,,,,,,,,,,,,,,,,
,,,,,,5cd98287b0c5ec0001e0965a,62c538d588ef00b1eab487a6,2022-07-06_10h25.31.524,Colour_Asymmetry_Pilot,2022.1.3,Win32,60.04563468,62c50e9c1127f2cd403a315f,0,42,42,71,1,fourthree,,,,,,,,,,,,,,,,,,,,,,,,,,,,,,,,,,,,,,,,,,,,,,,,,,,,,,,,,,,,,,,,,,,,,,,,,,,,,,,,,,,,,,,,,,,,,,,,,,,,,,,,,,,,,,,,,,,,,,,,,,,,,,,,,,,,,,,,,,,,,,,,,,,,,,,,,,,,,
,,,,,,5cd98287b0c5ec0001e0965a,62c538d588ef00b1eab487a6,2022-07-06_10h25.31.524,Colour_Asymmetry_Pilot,2022.1.3,Win32,60.04563468,62c50e9c1127f2cd403a315f,0,43,43,127,1,fourthree,,,,,,,,,,,,,,,,,,,,,,,,,,,,,,,,,,,,,,,,,,,,,,,,,,,,,,,,,,,,,,,,,,,,,,,,,,,,,,,,,,,,,,,,,,,,,,,,,,,,,,,,,,,,,,,,,,,,,,,,,,,,,,,,,,,,,,,,,,,,,,,,,,,,,,,,,,,,,
,,,,,,5cd98287b0c5ec0001e0965a,62c538d588ef00b1eab487a6,2022-07-06_10h25.31.524,Colour_Asymmetry_Pilot,2022.1.3,Win32,60.04563468,62c50e9c1127f2cd403a315f,0,44,44,138,1,twoone,,,,,,,,,,,,,,,,,,,,,,,,,,,,,,,,,,,,,,,,,,,,,,,,,,,,,,,,,,,,,,,,,,,,,,,,,,,,,,,,,,,,,,,,,,,,,,,,,,,,,,,,,,,,,,,,,,,,,,,,,,,,,,,,,,,,,,,,,,,,,,,,,,,,,,,,,,,,,
,,,,,,5cd98287b0c5ec0001e0965a,62c538d588ef00b1eab487a6,2022-07-06_10h25.31.524,Colour_Asymmetry_Pilot,2022.1.3,Win32,60.04563468,62c50e9c1127f2cd403a315f,0,45,45,19,1,twofour,,,,,,,,,,,,,,,,,,,,,,,,,,,,,,,,,,,,,,,,,,,,,,,,,,,,,,,,,,,,,,,,,,,,,,,,,,,,,,,,,,,,,,,,,,,,,,,,,,,,,,,,,,,,,,,,,,,,,,,,,,,,,,,,,,,,,,,,,,,,,,,,,,,,,,,,,,,,,
,,,,,,5cd98287b0c5ec0001e0965a,62c538d588ef00b1eab487a6,2022-07-06_10h25.31.524,Colour_Asymmetry_Pilot,2022.1.3,Win32,60.04563468,62c50e9c1127f2cd403a315f,0,46,46,49,1,onethree,,,,,,,,,,,,,,,,,,,,,,,,,,,,,,,,,,,,,,,,,,,,,,,,,,,,,,,,,,,,,,,,,,,,,,,,,,,,,,,,,,,,,,,,,,,,,,,,,,,,,,,,,,,,,,,,,,,,,,,,,,,,,,,,,,,,,,,,,,,,,,,,,,,,,,,,,,,,,
,,,,,,5cd98287b0c5ec0001e0965a,62c538d588ef00b1eab487a6,2022-07-06_10h25.31.524,Colour_Asymmetry_Pilot,2022.1.3,Win32,60.04563468,62c50e9c1127f2cd403a315f,0,47,47,5,1,threefour,,,,,,,,,,,,,,,,,,,,,,,,,,,,,,,,,,,,,,,,,,,,,,,,,,,,,,,,,,,,,,,,,,,,,,,,,,,,,,,,,,,,,,,,,,,,,,,,,,,,,,,,,,,,,,,,,,,,,,,,,,,,,,,,,,,,,,,,,,,,,,,,,,,,,,,,,,,,,
,,,,,,5cd98287b0c5ec0001e0965a,62c538d588ef00b1eab487a6,2022-07-06_10h25.31.524,Colour_Asymmetry_Pilot,2022.1.3,Win32,60.04563468,62c50e9c1127f2cd403a315f,0,48,48,56,1,onetwo,,,,,,,,,,,,,,,,,,,,,,,,,,,,,,,,,,,,,,,,,,,,,,,,,,,,,,,,,,,,,,,,,,,,,,,,,,,,,,,,,,,,,,,,,,,,,,,,,,,,,,,,,,,,,,,,,,,,,,,,,,,,,,,,,,,,,,,,,,,,,,,,,,,,,,,,,,,,,
,,,,,,5cd98287b0c5ec0001e0965a,62c538d588ef00b1eab487a6,2022-07-06_10h25.31.524,Colour_Asymmetry_Pilot,2022.1.3,Win32,60.04563468,62c50e9c1127f2cd403a315f,0,49,49,114,1,twoone,,,,,,,,,,,,,,,,,,,,,,,,,,,,,,,,,,,,,,,,,,,,,,,,,,,,,,,,,,,,,,,,,,,,,,,,,,,,,,,,,,,,,,,,,,,,,,,,,,,,,,,,,,,,,,,,,,,,,,,,,,,,,,,,,,,,,,,,,,,,,,,,,,,,,,,,,,,,,
,,,,,,5cd98287b0c5ec0001e0965a,62c538d588ef00b1eab487a6,2022-07-06_10h25.31.524,Colour_Asymmetry_Pilot,2022.1.3,Win32,60.04563468,62c50e9c1127f2cd403a315f,0,50,50,58,1,twoone,,,,,,,,,,,,,,,,,,,,,,,,,,,,,,,,,,,,,,,,,,,,,,,,,,,,,,,,,,,,,,,,,,,,,,,,,,,,,,,,,,,,,,,,,,,,,,,,,,,,,,,,,,,,,,,,,,,,,,,,,,,,,,,,,,,,,,,,,,,,,,,,,,,,,,,,,,,,,
,,,,,,5cd98287b0c5ec0001e0965a,62c538d588ef00b1eab487a6,2022-07-06_10h25.31.524,Colour_Asymmetry_Pilot,2022.1.3,Win32,60.04563468,62c50e9c1127f2cd403a315f,0,51,51,113,1,onethree,,,,,,,,,,,,,,,,,,,,,,,,,,,,,,,,,,,,,,,,,,,,,,,,,,,,,,,,,,,,,,,,,,,,,,,,,,,,,,,,,,,,,,,,,,,,,,,,,,,,,,,,,,,,,,,,,,,,,,,,,,,,,,,,,,,,,,,,,,,,,,,,,,,,,,,,,,,,,
,,,,,,5cd98287b0c5ec0001e0965a,62c538d588ef00b1eab487a6,2022-07-06_10h25.31.524,Colour_Asymmetry_Pilot,2022.1.3,Win32,60.04563468,62c50e9c1127f2cd403a315f,0,52,52,136,1,onetwo,,,,,,,,,,,,,,,,,,,,,,,,,,,,,,,,,,,,,,,,,,,,,,,,,,,,,,,,,,,,,,,,,,,,,,,,,,,,,,,,,,,,,,,,,,,,,,,,,,,,,,,,,,,,,,,,,,,,,,,,,,,,,,,,,,,,,,,,,,,,,,,,,,,,,,,,,,,,,
,,,,,,5cd98287b0c5ec0001e0965a,62c538d588ef00b1eab487a6,2022-07-06_10h25.31.524,Colour_Asymmetry_Pilot,2022.1.3,Win32,60.04563468,62c50e9c1127f2cd403a315f,0,53,53,115,1,twofour,,,,,,,,,,,,,,,,,,,,,,,,,,,,,,,,,,,,,,,,,,,,,,,,,,,,,,,,,,,,,,,,,,,,,,,,,,,,,,,,,,,,,,,,,,,,,,,,,,,,,,,,,,,,,,,,,,,,,,,,,,,,,,,,,,,,,,,,,,,,,,,,,,,,,,,,,,,,,
,,,,,,5cd98287b0c5ec0001e0965a,62c538d588ef00b1eab487a6,2022-07-06_10h25.31.524,Colour_Asymmetry_Pilot,2022.1.3,Win32,60.04563468,62c50e9c1127f2cd403a315f,0,54,54,14,1,fourtwo,,,,,,,,,,,,,,,,,,,,,,,,,,,,,,,,,,,,,,,,,,,,,,,,,,,,,,,,,,,,,,,,,,,,,,,,,,,,,,,,,,,,,,,,,,,,,,,,,,,,,,,,,,,,,,,,,,,,,,,,,,,,,,,,,,,,,,,,,,,,,,,,,,,,,,,,,,,,,
,,,,,,5cd98287b0c5ec0001e0965a,62c538d588ef00b1eab487a6,2022-07-06_10h25.31.524,Colour_Asymmetry_Pilot,2022.1.3,Win32,60.04563468,62c50e9c1127f2cd403a315f,0,55,55,4,1,threeone,,,,,,,,,,,,,,,,,,,,,,,,,,,,,,,,,,,,,,,,,,,,,,,,,,,,,,,,,,,,,,,,,,,,,,,,,,,,,,,,,,,,,,,,,,,,,,,,,,,,,,,,,,,,,,,,,,,,,,,,,,,,,,,,,,,,,,,,,,,,,,,,,,,,,,,,,,,,,
,,,,,,5cd98287b0c5ec0001e0965a,62c538d588ef00b1eab487a6,2022-07-06_10h25.31.524,Colour_Asymmetry_Pilot,2022.1.3,Win32,60.04563468,62c50e9c1127f2cd403a315f,0,56,56,79,1,fourthree,,,,,,,,,,,,,,,,,,,,,,,,,,,,,,,,,,,,,,,,,,,,,,,,,,,,,,,,,,,,,,,,,,,,,,,,,,,,,,,,,,,,,,,,,,,,,,,,,,,,,,,,,,,,,,,,,,,,,,,,,,,,,,,,,,,,,,,,,,,,,,,,,,,,,,,,,,,,,
,,,,,,5cd98287b0c5ec0001e0965a,62c538d588ef00b1eab487a6,2022-07-06_10h25.31.524,Colour_Asymmetry_Pilot,2022.1.3,Win32,60.04563468,62c50e9c1127f2cd403a315f,0,57,57,117,1,threefour,,,,,,,,,,,,,,,,,,,,,,,,,,,,,,,,,,,,,,,,,,,,,,,,,,,,,,,,,,,,,,,,,,,,,,,,,,,,,,,,,,,,,,,,,,,,,,,,,,,,,,,,,,,,,,,,,,,,,,,,,,,,,,,,,,,,,,,,,,,,,,,,,,,,,,,,,,,,,
,,,,,,5cd98287b0c5ec0001e0965a,62c538d588ef00b1eab487a6,2022-07-06_10h25.31.524,Colour_Asymmetry_Pilot,2022.1.3,Win32,60.04563468,62c50e9c1127f2cd403a315f,0,58,58,84,1,threeone,,,,,,,,,,,,,,,,,,,,,,,,,,,,,,,,,,,,,,,,,,,,,,,,,,,,,,,,,,,,,,,,,,,,,,,,,,,,,,,,,,,,,,,,,,,,,,,,,,,,,,,,,,,,,,,,,,,,,,,,,,,,,,,,,,,,,,,,,,,,,,,,,,,,,,,,,,,,,
,,,,,,5cd98287b0c5ec0001e0965a,62c538d588ef00b1eab487a6,2022-07-06_10h25.31.524,Colour_Asymmetry_Pilot,2022.1.3,Win32,60.04563468,62c50e9c1127f2cd403a315f,0,59,59,70,1,fourtwo,,,,,,,,,,,,,,,,,,,,,,,,,,,,,,,,,,,,,,,,,,,,,,,,,,,,,,,,,,,,,,,,,,,,,,,,,,,,,,,,,,,,,,,,,,,,,,,,,,,,,,,,,,,,,,,,,,,,,,,,,,,,,,,,,,,,,,,,,,,,,,,,,,,,,,,,,,,,,
,,,,,,5cd98287b0c5ec0001e0965a,62c538d588ef00b1eab487a6,2022-07-06_10h25.31.524,Colour_Asymmetry_Pilot,2022.1.3,Win32,60.04563468,62c50e9c1127f2cd403a315f,0,60,60,90,1,twoone,,,,,,,,,,,,,,,,,,,,,,,,,,,,,,,,,,,,,,,,,,,,,,,,,,,,,,,,,,,,,,,,,,,,,,,,,,,,,,,,,,,,,,,,,,,,,,,,,,,,,,,,,,,,,,,,,,,,,,,,,,,,,,,,,,,,,,,,,,,,,,,,,,,,,,,,,,,,,
,,,,,,5cd98287b0c5ec0001e0965a,62c538d588ef00b1eab487a6,2022-07-06_10h25.31.524,Colour_Asymmetry_Pilot,2022.1.3,Win32,60.04563468,62c50e9c1127f2cd403a315f,0,61,61,13,1,threefour,,,,,,,,,,,,,,,,,,,,,,,,,,,,,,,,,,,,,,,,,,,,,,,,,,,,,,,,,,,,,,,,,,,,,,,,,,,,,,,,,,,,,,,,,,,,,,,,,,,,,,,,,,,,,,,,,,,,,,,,,,,,,,,,,,,,,,,,,,,,,,,,,,,,,,,,,,,,,
,,,,,,5cd98287b0c5ec0001e0965a,62c538d588ef00b1eab487a6,2022-07-06_10h25.31.524,Colour_Asymmetry_Pilot,2022.1.3,Win32,60.04563468,62c50e9c1127f2cd403a315f,0,62,62,8,1,onetwo,,,,,,,,,,,,,,,,,,,,,,,,,,,,,,,,,,,,,,,,,,,,,,,,,,,,,,,,,,,,,,,,,,,,,,,,,,,,,,,,,,,,,,,,,,,,,,,,,,,,,,,,,,,,,,,,,,,,,,,,,,,,,,,,,,,,,,,,,,,,,,,,,,,,,,,,,,,,,
,,,,,,5cd98287b0c5ec0001e0965a,62c538d588ef00b1eab487a6,2022-07-06_10h25.31.524,Colour_Asymmetry_Pilot,2022.1.3,Win32,60.04563468,62c50e9c1127f2cd403a315f,0,63,63,103,1,fourthree,,,,,,,,,,,,,,,,,,,,,,,,,,,,,,,,,,,,,,,,,,,,,,,,,,,,,,,,,,,,,,,,,,,,,,,,,,,,,,,,,,,,,,,,,,,,,,,,,,,,,,,,,,,,,,,,,,,,,,,,,,,,,,,,,,,,,,,,,,,,,,,,,,,,,,,,,,,,,
,,,,,,5cd98287b0c5ec0001e0965a,62c538d588ef00b1eab487a6,2022-07-06_10h25.31.524,Colour_Asymmetry_Pilot,2022.1.3,Win32,60.04563468,62c50e9c1127f2cd403a315f,0,64,64,118,1,fourtwo,,,,,,,,,,,,,,,,,,,,,,,,,,,,,,,,,,,,,,,,,,,,,,,,,,,,,,,,,,,,,,,,,,,,,,,,,,,,,,,,,,,,,,,,,,,,,,,,,,,,,,,,,,,,,,,,,,,,,,,,,,,,,,,,,,,,,,,,,,,,,,,,,,,,,,,,,,,,,
,,,,,,5cd98287b0c5ec0001e0965a,62c538d588ef00b1eab487a6,2022-07-06_10h25.31.524,Colour_Asymmetry_Pilot,2022.1.3,Win32,60.04563468,62c50e9c1127f2cd403a315f,0,65,65,46,1,fourtwo,,,,,,,,,,,,,,,,,,,,,,,,,,,,,,,,,,,,,,,,,,,,,,,,,,,,,,,,,,,,,,,,,,,,,,,,,,,,,,,,,,,,,,,,,,,,,,,,,,,,,,,,,,,,,,,,,,,,,,,,,,,,,,,,,,,,,,,,,,,,,,,,,,,,,,,,,,,,,
,,,,,,5cd98287b0c5ec0001e0965a,62c538d588ef00b1eab487a6,2022-07-06_10h25.31.524,Colour_Asymmetry_Pilot,2022.1.3,Win32,60.04563468,62c50e9c1127f2cd403a315f,0,66,66,135,1,fourthree,,,,,,,,,,,,,,,,,,,,,,,,,,,,,,,,,,,,,,,,,,,,,,,,,,,,,,,,,,,,,,,,,,,,,,,,,,,,,,,,,,,,,,,,,,,,,,,,,,,,,,,,,,,,,,,,,,,,,,,,,,,,,,,,,,,,,,,,,,,,,,,,,,,,,,,,,,,,,
,,,,,,5cd98287b0c5ec0001e0965a,62c538d588ef00b1eab487a6,2022-07-06_10h25.31.524,Colour_Asymmetry_Pilot,2022.1.3,Win32,60.04563468,62c50e9c1127f2cd403a315f,0,67,67,119,1,fourthree,,,,,,,,,,,,,,,,,,,,,,,,,,,,,,,,,,,,,,,,,,,,,,,,,,,,,,,,,,,,,,,,,,,,,,,,,,,,,,,,,,,,,,,,,,,,,,,,,,,,,,,,,,,,,,,,,,,,,,,,,,,,,,,,,,,,,,,,,,,,,,,,,,,,,,,,,,,,,
,,,,,,5cd98287b0c5ec0001e0965a,62c538d588ef00b1eab487a6,2022-07-06_10h25.31.524,Colour_Asymmetry_Pilot,2022.1.3,Win32,60.04563468,62c50e9c1127f2cd403a315f,0,68,68,122,1,twoone,,,,,,,,,,,,,,,,,,,,,,,,,,,,,,,,,,,,,,,,,,,,,,,,,,,,,,,,,,,,,,,,,,,,,,,,,,,,,,,,,,,,,,,,,,,,,,,,,,,,,,,,,,,,,,,,,,,,,,,,,,,,,,,,,,,,,,,,,,,,,,,,,,,,,,,,,,,,,
,,,,,,5cd98287b0c5ec0001e0965a,62c538d588ef00b1eab487a6,2022-07-06_10h25.31.524,Colour_Asymmetry_Pilot,2022.1.3,Win32,60.04563468,62c50e9c1127f2cd403a315f,0,69,69,140,1,threeone,,,,,,,,,,,,,,,,,,,,,,,,,,,,,,,,,,,,,,,,,,,,,,,,,,,,,,,,,,,,,,,,,,,,,,,,,,,,,,,,,,,,,,,,,,,,,,,,,,,,,,,,,,,,,,,,,,,,,,,,,,,,,,,,,,,,,,,,,,,,,,,,,,,,,,,,,,,,,
,,,,,,5cd98287b0c5ec0001e0965a,62c538d588ef00b1eab487a6,2022-07-06_10h25.31.524,Colour_Asymmetry_Pilot,2022.1.3,Win32,60.04563468,62c50e9c1127f2cd403a315f,0,70,70,131,1,twofour,,,,,,,,,,,,,,,,,,,,,,,,,,,,,,,,,,,,,,,,,,,,,,,,,,,,,,,,,,,,,,,,,,,,,,,,,,,,,,,,,,,,,,,,,,,,,,,,,,,,,,,,,,,,,,,,,,,,,,,,,,,,,,,,,,,,,,,,,,,,,,,,,,,,,,,,,,,,,
,,,,,,5cd98287b0c5ec0001e0965a,62c538d588ef00b1eab487a6,2022-07-06_10h25.31.524,Colour_Asymmetry_Pilot,2022.1.3,Win32,60.04563468,62c50e9c1127f2cd403a315f,0,71,71,35,1,twofour,,,,,,,,,,,,,,,,,,,,,,,,,,,,,,,,,,,,,,,,,,,,,,,,,,,,,,,,,,,,,,,,,,,,,,,,,,,,,,,,,,,,,,,,,,,,,,,,,,,,,,,,,,,,,,,,,,,,,,,,,,,,,,,,,,,,,,,,,,,,,,,,,,,,,,,,,,,,,
,,,,,,5cd98287b0c5ec0001e0965a,62c538d588ef00b1eab487a6,2022-07-06_10h25.31.524,Colour_Asymmetry_Pilot,2022.1.3,Win32,60.04563468,62c50e9c1127f2cd403a315f,0,72,72,73,1,onethree,,,,,,,,,,,,,,,,,,,,,,,,,,,,,,,,,,,,,,,,,,,,,,,,,,,,,,,,,,,,,,,,,,,,,,,,,,,,,,,,,,,,,,,,,,,,,,,,,,,,,,,,,,,,,,,,,,,,,,,,,,,,,,,,,,,,,,,,,,,,,,,,,,,,,,,,,,,,,
,,,,,,5cd98287b0c5ec0001e0965a,62c538d588ef00b1eab487a6,2022-07-06_10h25.31.524,Colour_Asymmetry_Pilot,2022.1.3,Win32,60.04563468,62c50e9c1127f2cd403a315f,0,73,73,72,1,onetwo,,,,,,,,,,,,,,,,,,,,,,,,,,,,,,,,,,,,,,,,,,,,,,,,,,,,,,,,,,,,,,,,,,,,,,,,,,,,,,,,,,,,,,,,,,,,,,,,,,,,,,,,,,,,,,,,,,,,,,,,,,,,,,,,,,,,,,,,,,,,,,,,,,,,,,,,,,,,,
,,,,,,5cd98287b0c5ec0001e0965a,62c538d588ef00b1eab487a6,2022-07-06_10h25.31.524,Colour_Asymmetry_Pilot,2022.1.3,Win32,60.04563468,62c50e9c1127f2cd403a315f,0,74,74,9,1,onethree,,,,,,,,,,,,,,,,,,,,,,,,,,,,,,,,,,,,,,,,,,,,,,,,,,,,,,,,,,,,,,,,,,,,,,,,,,,,,,,,,,,,,,,,,,,,,,,,,,,,,,,,,,,,,,,,,,,,,,,,,,,,,,,,,,,,,,,,,,,,,,,,,,,,,,,,,,,,,
,,,,,,5cd98287b0c5ec0001e0965a,62c538d588ef00b1eab487a6,2022-07-06_10h25.31.524,Colour_Asymmetry_Pilot,2022.1.3,Win32,60.04563468,62c50e9c1127f2cd403a315f,0,75,75,157,1,threefour,,,,,,,,,,,,,,,,,,,,,,,,,,,,,,,,,,,,,,,,,,,,,,,,,,,,,,,,,,,,,,,,,,,,,,,,,,,,,,,,,,,,,,,,,,,,,,,,,,,,,,,,,,,,,,,,,,,,,,,,,,,,,,,,,,,,,,,,,,,,,,,,,,,,,,,,,,,,,
,,,,,,5cd98287b0c5ec0001e0965a,62c538d588ef00b1eab487a6,2022-07-06_10h25.31.524,Colour_Asymmetry_Pilot,2022.1.3,Win32,60.04563468,62c50e9c1127f2cd403a315f,0,76,76,77,1,threefour,,,,,,,,,,,,,,,,,,,,,,,,,,,,,,,,,,,,,,,,,,,,,,,,,,,,,,,,,,,,,,,,,,,,,,,,,,,,,,,,,,,,,,,,,,,,,,,,,,,,,,,,,,,,,,,,,,,,,,,,,,,,,,,,,,,,,,,,,,,,,,,,,,,,,,,,,,,,,
,,,,,,5cd98287b0c5ec0001e0965a,62c538d588ef00b1eab487a6,2022-07-06_10h25.31.524,Colour_Asymmetry_Pilot,2022.1.3,Win32,60.04563468,62c50e9c1127f2cd403a315f,0,77,77,54,1,fourtwo,,,,,,,,,,,,,,,,,,,,,,,,,,,,,,,,,,,,,,,,,,,,,,,,,,,,,,,,,,,,,,,,,,,,,,,,,,,,,,,,,,,,,,,,,,,,,,,,,,,,,,,,,,,,,,,,,,,,,,,,,,,,,,,,,,,,,,,,,,,,,,,,,,,,,,,,,,,,,
,,,,,,5cd98287b0c5ec0001e0965a,62c538d588ef00b1eab487a6,2022-07-06_10h25.31.524,Colour_Asymmetry_Pilot,2022.1.3,Win32,60.04563468,62c50e9c1127f2cd403a315f,0,78,78,50,1,twoone,,,,,,,,,,,,,,,,,,,,,,,,,,,,,,,,,,,,,,,,,,,,,,,,,,,,,,,,,,,,,,,,,,,,,,,,,,,,,,,,,,,,,,,,,,,,,,,,,,,,,,,,,,,,,,,,,,,,,,,,,,,,,,,,,,,,,,,,,,,,,,,,,,,,,,,,,,,,,
,,,,,,5cd98287b0c5ec0001e0965a,62c538d588ef00b1eab487a6,2022-07-06_10h25.31.524,Colour_Asymmetry_Pilot,2022.1.3,Win32,60.04563468,62c50e9c1127f2cd403a315f,0,79,79,36,1,threeone,,,,,,,,,,,,,,,,,,,,,,,,,,,,,,,,,,,,,,,,,,,,,,,,,,,,,,,,,,,,,,,,,,,,,,,,,,,,,,,,,,,,,,,,,,,,,,,,,,,,,,,,,,,,,,,,,,,,,,,,,,,,,,,,,,,,,,,,,,,,,,,,,,,,,,,,,,,,,
,,,,,,5cd98287b0c5ec0001e0965a,62c538d588ef00b1eab487a6,2022-07-06_10h25.31.524,Colour_Asymmetry_Pilot,2022.1.3,Win32,60.04563468,62c50e9c1127f2cd403a315f,0,80,80,65,1,onethree,,,,,,,,,,,,,,,,,,,,,,,,,,,,,,,,,,,,,,,,,,,,,,,,,,,,,,,,,,,,,,,,,,,,,,,,,,,,,,,,,,,,,,,,,,,,,,,,,,,,,,,,,,,,,,,,,,,,,,,,,,,,,,,,,,,,,,,,,,,,,,,,,,,,,,,,,,,,,
,,,,,,5cd98287b0c5ec0001e0965a,62c538d588ef00b1eab487a6,2022-07-06_10h25.31.524,Colour_Asymmetry_Pilot,2022.1.3,Win32,60.04563468,62c50e9c1127f2cd403a315f,0,81,81,154,1,twoone,,,,,,,,,,,,,,,,,,,,,,,,,,,,,,,,,,,,,,,,,,,,,,,,,,,,,,,,,,,,,,,,,,,,,,,,,,,,,,,,,,,,,,,,,,,,,,,,,,,,,,,,,,,,,,,,,,,,,,,,,,,,,,,,,,,,,,,,,,,,,,,,,,,,,,,,,,,,,
,,,,,,5cd98287b0c5ec0001e0965a,62c538d588ef00b1eab487a6,2022-07-06_10h25.31.524,Colour_Asymmetry_Pilot,2022.1.3,Win32,60.04563468,62c50e9c1127f2cd403a315f,0,82,82,147,1,twofour,,,,,,,,,,,,,,,,,,,,,,,,,,,,,,,,,,,,,,,,,,,,,,,,,,,,,,,,,,,,,,,,,,,,,,,,,,,,,,,,,,,,,,,,,,,,,,,,,,,,,,,,,,,,,,,,,,,,,,,,,,,,,,,,,,,,,,,,,,,,,,,,,,,,,,,,,,,,,
,,,,,,5cd98287b0c5ec0001e0965a,62c538d588ef00b1eab487a6,2022-07-06_10h25.31.524,Colour_Asymmetry_Pilot,2022.1.3,Win32,60.04563468,62c50e9c1127f2cd403a315f,0,83,83,144,1,onetwo,,,,,,,,,,,,,,,,,,,,,,,,,,,,,,,,,,,,,,,,,,,,,,,,,,,,,,,,,,,,,,,,,,,,,,,,,,,,,,,,,,,,,,,,,,,,,,,,,,,,,,,,,,,,,,,,,,,,,,,,,,,,,,,,,,,,,,,,,,,,,,,,,,,,,,,,,,,,,
,,,,,,5cd98287b0c5ec0001e0965a,62c538d588ef00b1eab487a6,2022-07-06_10h25.31.524,Colour_Asymmetry_Pilot,2022.1.3,Win32,60.04563468,62c50e9c1127f2cd403a315f,0,84,84,133,1,threefour,,,,,,,,,,,,,,,,,,,,,,,,,,,,,,,,,,,,,,,,,,,,,,,,,,,,,,,,,,,,,,,,,,,,,,,,,,,,,,,,,,,,,,,,,,,,,,,,,,,,,,,,,,,,,,,,,,,,,,,,,,,,,,,,,,,,,,,,,,,,,,,,,,,,,,,,,,,,,
,,,,,,5cd98287b0c5ec0001e0965a,62c538d588ef00b1eab487a6,2022-07-06_10h25.31.524,Colour_Asymmetry_Pilot,2022.1.3,Win32,60.04563468,62c50e9c1127f2cd403a315f,0,85,85,53,1,threefour,,,,,,,,,,,,,,,,,,,,,,,,,,,,,,,,,,,,,,,,,,,,,,,,,,,,,,,,,,,,,,,,,,,,,,,,,,,,,,,,,,,,,,,,,,,,,,,,,,,,,,,,,,,,,,,,,,,,,,,,,,,,,,,,,,,,,,,,,,,,,,,,,,,,,,,,,,,,,
,,,,,,5cd98287b0c5ec0001e0965a,62c538d588ef00b1eab487a6,2022-07-06_10h25.31.524,Colour_Asymmetry_Pilot,2022.1.3,Win32,60.04563468,62c50e9c1127f2cd403a315f,0,86,86,52,1,threeone,,,,,,,,,,,,,,,,,,,,,,,,,,,,,,,,,,,,,,,,,,,,,,,,,,,,,,,,,,,,,,,,,,,,,,,,,,,,,,,,,,,,,,,,,,,,,,,,,,,,,,,,,,,,,,,,,,,,,,,,,,,,,,,,,,,,,,,,,,,,,,,,,,,,,,,,,,,,,
,,,,,,5cd98287b0c5ec0001e0965a,62c538d588ef00b1eab487a6,2022-07-06_10h25.31.524,Colour_Asymmetry_Pilot,2022.1.3,Win32,60.04563468,62c50e9c1127f2cd403a315f,0,87,87,106,1,twoone,,,,,,,,,,,,,,,,,,,,,,,,,,,,,,,,,,,,,,,,,,,,,,,,,,,,,,,,,,,,,,,,,,,,,,,,,,,,,,,,,,,,,,,,,,,,,,,,,,,,,,,,,,,,,,,,,,,,,,,,,,,,,,,,,,,,,,,,,,,,,,,,,,,,,,,,,,,,,
,,,,,,5cd98287b0c5ec0001e0965a,62c538d588ef00b1eab487a6,2022-07-06_10h25.31.524,Colour_Asymmetry_Pilot,2022.1.3,Win32,60.04563468,62c50e9c1127f2cd403a315f,0,88,88,32,1,onetwo,,,,,,,,,,,,,,,,,,,,,,,,,,,,,,,,,,,,,,,,,,,,,,,,,,,,,,,,,,,,,,,,,,,,,,,,,,,,,,,,,,,,,,,,,,,,,,,,,,,,,,,,,,,,,,,,,,,,,,,,,,,,,,,,,,,,,,,,,,,,,,,,,,,,,,,,,,,,,
,,,,,,5cd98287b0c5ec0001e0965a,62c538d588ef00b1eab487a6,2022-07-06_10h25.31.524,Colour_Asymmetry_Pilot,2022.1.3,Win32,60.04563468,62c50e9c1127f2cd403a315f,0,89,89,40,1,onetwo,,,,,,,,,,,,,,,,,,,,,,,,,,,,,,,,,,,,,,,,,,,,,,,,,,,,,,,,,,,,,,,,,,,,,,,,,,,,,,,,,,,,,,,,,,,,,,,,,,,,,,,,,,,,,,,,,,,,,,,,,,,,,,,,,,,,,,,,,,,,,,,,,,,,,,,,,,,,,
,,,,,,5cd98287b0c5ec0001e0965a,62c538d588ef00b1eab487a6,2022-07-06_10h25.31.524,Colour_Asymmetry_Pilot,2022.1.3,Win32,60.04563468,62c50e9c1127f2cd403a315f,0,90,90,44,1,threeone,,,,,,,,,,,,,,,,,,,,,,,,,,,,,,,,,,,,,,,,,,,,,,,,,,,,,,,,,,,,,,,,,,,,,,,,,,,,,,,,,,,,,,,,,,,,,,,,,,,,,,,,,,,,,,,,,,,,,,,,,,,,,,,,,,,,,,,,,,,,,,,,,,,,,,,,,,,,,
,,,,,,5cd98287b0c5ec0001e0965a,62c538d588ef00b1eab487a6,2022-07-06_10h25.31.524,Colour_Asymmetry_Pilot,2022.1.3,Win32,60.04563468,62c50e9c1127f2cd403a315f,0,91,91,80,1,onetwo,,,,,,,,,,,,,,,,,,,,,,,,,,,,,,,,,,,,,,,,,,,,,,,,,,,,,,,,,,,,,,,,,,,,,,,,,,,,,,,,,,,,,,,,,,,,,,,,,,,,,,,,,,,,,,,,,,,,,,,,,,,,,,,,,,,,,,,,,,,,,,,,,,,,,,,,,,,,,
,,,,,,5cd98287b0c5ec0001e0965a,62c538d588ef00b1eab487a6,2022-07-06_10h25.31.524,Colour_Asymmetry_Pilot,2022.1.3,Win32,60.04563468,62c50e9c1127f2cd403a315f,0,92,92,26,1,twoone,,,,,,,,,,,,,,,,,,,,,,,,,,,,,,,,,,,,,,,,,,,,,,,,,,,,,,,,,,,,,,,,,,,,,,,,,,,,,,,,,,,,,,,,,,,,,,,,,,,,,,,,,,,,,,,,,,,,,,,,,,,,,,,,,,,,,,,,,,,,,,,,,,,,,,,,,,,,,
,,,,,,5cd98287b0c5ec0001e0965a,62c538d588ef00b1eab487a6,2022-07-06_10h25.31.524,Colour_Asymmetry_Pilot,2022.1.3,Win32,60.04563468,62c50e9c1127f2cd403a315f,0,93,93,17,1,onethree,,,,,,,,,,,,,,,,,,,,,,,,,,,,,,,,,,,,,,,,,,,,,,,,,,,,,,,,,,,,,,,,,,,,,,,,,,,,,,,,,,,,,,,,,,,,,,,,,,,,,,,,,,,,,,,,,,,,,,,,,,,,,,,,,,,,,,,,,,,,,,,,,,,,,,,,,,,,,
,,,,,,5cd98287b0c5ec0001e0965a,62c538d588ef00b1eab487a6,2022-07-06_10h25.31.524,Colour_Asymmetry_Pilot,2022.1.3,Win32,60.04563468,62c50e9c1127f2cd403a315f,0,94,94,87,1,fourthree,,,,,,,,,,,,,,,,,,,,,,,,,,,,,,,,,,,,,,,,,,,,,,,,,,,,,,,,,,,,,,,,,,,,,,,,,,,,,,,,,,,,,,,,,,,,,,,,,,,,,,,,,,,,,,,,,,,,,,,,,,,,,,,,,,,,,,,,,,,,,,,,,,,,,,,,,,,,,
,,,,,,5cd98287b0c5ec0001e0965a,62c538d588ef00b1eab487a6,2022-07-06_10h25.31.524,Colour_Asymmetry_Pilot,2022.1.3,Win32,60.04563468,62c50e9c1127f2cd403a315f,0,95,95,139,1,twofour,,,,,,,,,,,,,,,,,,,,,,,,,,,,,,,,,,,,,,,,,,,,,,,,,,,,,,,,,,,,,,,,,,,,,,,,,,,,,,,,,,,,,,,,,,,,,,,,,,,,,,,,,,,,,,,,,,,,,,,,,,,,,,,,,,,,,,,,,,,,,,,,,,,,,,,,,,,,,
,,,,,,5cd98287b0c5ec0001e0965a,62c538d588ef00b1eab487a6,2022-07-06_10h25.31.524,Colour_Asymmetry_Pilot,2022.1.3,Win32,60.04563468,62c50e9c1127f2cd403a315f,0,96,96,116,1,threeone,,,,,,,,,,,,,,,,,,,,,,,,,,,,,,,,,,,,,,,,,,,,,,,,,,,,,,,,,,,,,,,,,,,,,,,,,,,,,,,,,,,,,,,,,,,,,,,,,,,,,,,,,,,,,,,,,,,,,,,,,,,,,,,,,,,,,,,,,,,,,,,,,,,,,,,,,,,,,
,,,,,,5cd98287b0c5ec0001e0965a,62c538d588ef00b1eab487a6,2022-07-06_10h25.31.524,Colour_Asymmetry_Pilot,2022.1.3,Win32,60.04563468,62c50e9c1127f2cd403a315f,0,97,97,39,1,fourthree,,,,,,,,,,,,,,,,,,,,,,,,,,,,,,,,,,,,,,,,,,,,,,,,,,,,,,,,,,,,,,,,,,,,,,,,,,,,,,,,,,,,,,,,,,,,,,,,,,,,,,,,,,,,,,,,,,,,,,,,,,,,,,,,,,,,,,,,,,,,,,,,,,,,,,,,,,,,,
,,,,,,5cd98287b0c5ec0001e0965a,62c538d588ef00b1eab487a6,2022-07-06_10h25.31.524,Colour_Asymmetry_Pilot,2022.1.3,Win32,60.04563468,62c50e9c1127f2cd403a315f,0,98,98,33,1,onethree,,,,,,,,,,,,,,,,,,,,,,,,,,,,,,,,,,,,,,,,,,,,,,,,,,,,,,,,,,,,,,,,,,,,,,,,,,,,,,,,,,,,,,,,,,,,,,,,,,,,,,,,,,,,,,,,,,,,,,,,,,,,,,,,,,,,,,,,,,,,,,,,,,,,,,,,,,,,,
,,,,,,5cd98287b0c5ec0001e0965a,62c538d588ef00b1eab487a6,2022-07-06_10h25.31.524,Colour_Asymmetry_Pilot,2022.1.3,Win32,60.04563468,62c50e9c1127f2cd403a315f,0,99,99,16,1,onetwo,,,,,,,,,,,,,,,,,,,,,,,,,,,,,,,,,,,,,,,,,,,,,,,,,,,,,,,,,,,,,,,,,,,,,,,,,,,,,,,,,,,,,,,,,,,,,,,,,,,,,,,,,,,,,,,,,,,,,,,,,,,,,,,,,,,,,,,,,,,,,,,,,,,,,,,,,,,,,
,,,,,,5cd98287b0c5ec0001e0965a,62c538d588ef00b1eab487a6,2022-07-06_10h25.31.524,Colour_Asymmetry_Pilot,2022.1.3,Win32,60.04563468,62c50e9c1127f2cd403a315f,0,100,100,110,1,fourtwo,,,,,,,,,,,,,,,,,,,,,,,,,,,,,,,,,,,,,,,,,,,,,,,,,,,,,,,,,,,,,,,,,,,,,,,,,,,,,,,,,,,,,,,,,,,,,,,,,,,,,,,,,,,,,,,,,,,,,,,,,,,,,,,,,,,,,,,,,,,,,,,,,,,,,,,,,,,,,
,,,,,,5cd98287b0c5ec0001e0965a,62c538d588ef00b1eab487a6,2022-07-06_10h25.31.524,Colour_Asymmetry_Pilot,2022.1.3,Win32,60.04563468,62c50e9c1127f2cd403a315f,0,101,101,57,1,onethree,,,,,,,,,,,,,,,,,,,,,,,,,,,,,,,,,,,,,,,,,,,,,,,,,,,,,,,,,,,,,,,,,,,,,,,,,,,,,,,,,,,,,,,,,,,,,,,,,,,,,,,,,,,,,,,,,,,,,,,,,,,,,,,,,,,,,,,,,,,,,,,,,,,,,,,,,,,,,
,,,,,,5cd98287b0c5ec0001e0965a,62c538d588ef00b1eab487a6,2022-07-06_10h25.31.524,Colour_Asymmetry_Pilot,2022.1.3,Win32,60.04563468,62c50e9c1127f2cd403a315f,0,102,102,152,1,onetwo,,,,,,,,,,,,,,,,,,,,,,,,,,,,,,,,,,,,,,,,,,,,,,,,,,,,,,,,,,,,,,,,,,,,,,,,,,,,,,,,,,,,,,,,,,,,,,,,,,,,,,,,,,,,,,,,,,,,,,,,,,,,,,,,,,,,,,,,,,,,,,,,,,,,,,,,,,,,,
,,,,,,5cd98287b0c5ec0001e0965a,62c538d588ef00b1eab487a6,2022-07-06_10h25.31.524,Colour_Asymmetry_Pilot,2022.1.3,Win32,60.04563468,62c50e9c1127f2cd403a315f,0,103,103,150,1,fourtwo,,,,,,,,,,,,,,,,,,,,,,,,,,,,,,,,,,,,,,,,,,,,,,,,,,,,,,,,,,,,,,,,,,,,,,,,,,,,,,,,,,,,,,,,,,,,,,,,,,,,,,,,,,,,,,,,,,,,,,,,,,,,,,,,,,,,,,,,,,,,,,,,,,,,,,,,,,,,,
,,,,,,5cd98287b0c5ec0001e0965a,62c538d588ef00b1eab487a6,2022-07-06_10h25.31.524,Colour_Asymmetry_Pilot,2022.1.3,Win32,60.04563468,62c50e9c1127f2cd403a315f,0,104,104,43,1,twofour,,,,,,,,,,,,,,,,,,,,,,,,,,,,,,,,,,,,,,,,,,,,,,,,,,,,,,,,,,,,,,,,,,,,,,,,,,,,,,,,,,,,,,,,,,,,,,,,,,,,,,,,,,,,,,,,,,,,,,,,,,,,,,,,,,,,,,,,,,,,,,,,,,,,,,,,,,,,,
,,,,,,5cd98287b0c5ec0001e0965a,62c538d588ef00b1eab487a6,2022-07-06_10h25.31.524,Colour_Asymmetry_Pilot,2022.1.3,Win32,60.04563468,62c50e9c1127f2cd403a315f,0,105,105,67,1,twofour,,,,,,,,,,,,,,,,,,,,,,,,,,,,,,,,,,,,,,,,,,,,,,,,,,,,,,,,,,,,,,,,,,,,,,,,,,,,,,,,,,,,,,,,,,,,,,,,,,,,,,,,,,,,,,,,,,,,,,,,,,,,,,,,,,,,,,,,,,,,,,,,,,,,,,,,,,,,,
,,,,,,5cd98287b0c5ec0001e0965a,62c538d588ef00b1eab487a6,2022-07-06_10h25.31.524,Colour_Asymmetry_Pilot,2022.1.3,Win32,60.04563468,62c50e9c1127f2cd403a315f,0,106,106,153,1,onethree,,,,,,,,,,,,,,,,,,,,,,,,,,,,,,,,,,,,,,,,,,,,,,,,,,,,,,,,,,,,,,,,,,,,,,,,,,,,,,,,,,,,,,,,,,,,,,,,,,,,,,,,,,,,,,,,,,,,,,,,,,,,,,,,,,,,,,,,,,,,,,,,,,,,,,,,,,,,,
,,,,,,5cd98287b0c5ec0001e0965a,62c538d588ef00b1eab487a6,2022-07-06_10h25.31.524,Colour_Asymmetry_Pilot,2022.1.3,Win32,60.04563468,62c50e9c1127f2cd403a315f,0,107,107,34,1,twoone,,,,,,,,,,,,,,,,,,,,,,,,,,,,,,,,,,,,,,,,,,,,,,,,,,,,,,,,,,,,,,,,,,,,,,,,,,,,,,,,,,,,,,,,,,,,,,,,,,,,,,,,,,,,,,,,,,,,,,,,,,,,,,,,,,,,,,,,,,,,,,,,,,,,,,,,,,,,,
,,,,,,5cd98287b0c5ec0001e0965a,62c538d588ef00b1eab487a6,2022-07-06_10h25.31.524,Colour_Asymmetry_Pilot,2022.1.3,Win32,60.04563468,62c50e9c1127f2cd403a315f,0,108,108,129,1,onethree,,,,,,,,,,,,,,,,,,,,,,,,,,,,,,,,,,,,,,,,,,,,,,,,,,,,,,,,,,,,,,,,,,,,,,,,,,,,,,,,,,,,,,,,,,,,,,,,,,,,,,,,,,,,,,,,,,,,,,,,,,,,,,,,,,,,,,,,,,,,,,,,,,,,,,,,,,,,,
,,,,,,5cd98287b0c5ec0001e0965a,62c538d588ef00b1eab487a6,2022-07-06_10h25.31.524,Colour_Asymmetry_Pilot,2022.1.3,Win32,60.04563468,62c50e9c1127f2cd403a315f,0,109,109,104,1,onetwo,,,,,,,,,,,,,,,,,,,,,,,,,,,,,,,,,,,,,,,,,,,,,,,,,,,,,,,,,,,,,,,,,,,,,,,,,,,,,,,,,,,,,,,,,,,,,,,,,,,,,,,,,,,,,,,,,,,,,,,,,,,,,,,,,,,,,,,,,,,,,,,,,,,,,,,,,,,,,
,,,,,,5cd98287b0c5ec0001e0965a,62c538d588ef00b1eab487a6,2022-07-06_10h25.31.524,Colour_Asymmetry_Pilot,2022.1.3,Win32,60.04563468,62c50e9c1127f2cd403a315f,0,110,110,38,1,fourtwo,,,,,,,,,,,,,,,,,,,,,,,,,,,,,,,,,,,,,,,,,,,,,,,,,,,,,,,,,,,,,,,,,,,,,,,,,,,,,,,,,,,,,,,,,,,,,,,,,,,,,,,,,,,,,,,,,,,,,,,,,,,,,,,,,,,,,,,,,,,,,,,,,,,,,,,,,,,,,
,,,,,,5cd98287b0c5ec0001e0965a,62c538d588ef00b1eab487a6,2022-07-06_10h25.31.524,Colour_Asymmetry_Pilot,2022.1.3,Win32,60.04563468,62c50e9c1127f2cd403a315f,0,111,111,1,1,onethree,,,,,,,,,,,,,,,,,,,,,,,,,,,,,,,,,,,,,,,,,,,,,,,,,,,,,,,,,,,,,,,,,,,,,,,,,,,,,,,,,,,,,,,,,,,,,,,,,,,,,,,,,,,,,,,,,,,,,,,,,,,,,,,,,,,,,,,,,,,,,,,,,,,,,,,,,,,,,
,,,,,,5cd98287b0c5ec0001e0965a,62c538d588ef00b1eab487a6,2022-07-06_10h25.31.524,Colour_Asymmetry_Pilot,2022.1.3,Win32,60.04563468,62c50e9c1127f2cd403a315f,0,112,112,27,1,twofour,,,,,,,,,,,,,,,,,,,,,,,,,,,,,,,,,,,,,,,,,,,,,,,,,,,,,,,,,,,,,,,,,,,,,,,,,,,,,,,,,,,,,,,,,,,,,,,,,,,,,,,,,,,,,,,,,,,,,,,,,,,,,,,,,,,,,,,,,,,,,,,,,,,,,,,,,,,,,
,,,,,,5cd98287b0c5ec0001e0965a,62c538d588ef00b1eab487a6,2022-07-06_10h25.31.524,Colour_Asymmetry_Pilot,2022.1.3,Win32,60.04563468,62c50e9c1127f2cd403a315f,0,113,113,102,1,fourtwo,,,,,,,,,,,,,,,,,,,,,,,,,,,,,,,,,,,,,,,,,,,,,,,,,,,,,,,,,,,,,,,,,,,,,,,,,,,,,,,,,,,,,,,,,,,,,,,,,,,,,,,,,,,,,,,,,,,,,,,,,,,,,,,,,,,,,,,,,,,,,,,,,,,,,,,,,,,,,
,,,,,,5cd98287b0c5ec0001e0965a,62c538d588ef00b1eab487a6,2022-07-06_10h25.31.524,Colour_Asymmetry_Pilot,2022.1.3,Win32,60.04563468,62c50e9c1127f2cd403a315f,0,114,114,161,1,onethree,,,,,,,,,,,,,,,,,,,,,,,,,,,,,,,,,,,,,,,,,,,,,,,,,,,,,,,,,,,,,,,,,,,,,,,,,,,,,,,,,,,,,,,,,,,,,,,,,,,,,,,,,,,,,,,,,,,,,,,,,,,,,,,,,,,,,,,,,,,,,,,,,,,,,,,,,,,,,
,,,,,,5cd98287b0c5ec0001e0965a,62c538d588ef00b1eab487a6,2022-07-06_10h25.31.524,Colour_Asymmetry_Pilot,2022.1.3,Win32,60.04563468,62c50e9c1127f2cd403a315f,0,115,115,96,1,onetwo,,,,,,,,,,,,,,,,,,,,,,,,,,,,,,,,,,,,,,,,,,,,,,,,,,,,,,,,,,,,,,,,,,,,,,,,,,,,,,,,,,,,,,,,,,,,,,,,,,,,,,,,,,,,,,,,,,,,,,,,,,,,,,,,,,,,,,,,,,,,,,,,,,,,,,,,,,,,,
,,,,,,5cd98287b0c5ec0001e0965a,62c538d588ef00b1eab487a6,2022-07-06_10h25.31.524,Colour_Asymmetry_Pilot,2022.1.3,Win32,60.04563468,62c50e9c1127f2cd403a315f,0,116,116,97,1,onethree,,,,,,,,,,,,,,,,,,,,,,,,,,,,,,,,,,,,,,,,,,,,,,,,,,,,,,,,,,,,,,,,,,,,,,,,,,,,,,,,,,,,,,,,,,,,,,,,,,,,,,,,,,,,,,,,,,,,,,,,,,,,,,,,,,,,,,,,,,,,,,,,,,,,,,,,,,,,,
,,,,,,5cd98287b0c5ec0001e0965a,62c538d588ef00b1eab487a6,2022-07-06_10h25.31.524,Colour_Asymmetry_Pilot,2022.1.3,Win32,60.04563468,62c50e9c1127f2cd403a315f,0,117,117,156,1,threeone,,,,,,,,,,,,,,,,,,,,,,,,,,,,,,,,,,,,,,,,,,,,,,,,,,,,,,,,,,,,,,,,,,,,,,,,,,,,,,,,,,,,,,,,,,,,,,,,,,,,,,,,,,,,,,,,,,,,,,,,,,,,,,,,,,,,,,,,,,,,,,,,,,,,,,,,,,,,,
,,,,,,5cd98287b0c5ec0001e0965a,62c538d588ef00b1eab487a6,2022-07-06_10h25.31.524,Colour_Asymmetry_Pilot,2022.1.3,Win32,60.04563468,62c50e9c1127f2cd403a315f,0,118,118,148,1,threeone,,,,,,,,,,,,,,,,,,,,,,,,,,,,,,,,,,,,,,,,,,,,,,,,,,,,,,,,,,,,,,,,,,,,,,,,,,,,,,,,,,,,,,,,,,,,,,,,,,,,,,,,,,,,,,,,,,,,,,,,,,,,,,,,,,,,,,,,,,,,,,,,,,,,,,,,,,,,,
,,,,,,5cd98287b0c5ec0001e0965a,62c538d588ef00b1eab487a6,2022-07-06_10h25.31.524,Colour_Asymmetry_Pilot,2022.1.3,Win32,60.04563468,62c50e9c1127f2cd403a315f,0,119,119,109,1,threefour,,,,,,,,,,,,,,,,,,,,,,,,,,,,,,,,,,,,,,,,,,,,,,,,,,,,,,,,,,,,,,,,,,,,,,,,,,,,,,,,,,,,,,,,,,,,,,,,,,,,,,,,,,,,,,,,,,,,,,,,,,,,,,,,,,,,,,,,,,,,,,,,,,,,,,,,,,,,,
,,,,,,5cd98287b0c5ec0001e0965a,62c538d588ef00b1eab487a6,2022-07-06_10h25.31.524,Colour_Asymmetry_Pilot,2022.1.3,Win32,60.04563468,62c50e9c1127f2cd403a315f,0,120,120,145,1,onethree,,,,,,,,,,,,,,,,,,,,,,,,,,,,,,,,,,,,,,,,,,,,,,,,,,,,,,,,,,,,,,,,,,,,,,,,,,,,,,,,,,,,,,,,,,,,,,,,,,,,,,,,,,,,,,,,,,,,,,,,,,,,,,,,,,,,,,,,,,,,,,,,,,,,,,,,,,,,,
,,,,,,5cd98287b0c5ec0001e0965a,62c538d588ef00b1eab487a6,2022-07-06_10h25.31.524,Colour_Asymmetry_Pilot,2022.1.3,Win32,60.04563468,62c50e9c1127f2cd403a315f,0,121,121,41,1,onethree,,,,,,,,,,,,,,,,,,,,,,,,,,,,,,,,,,,,,,,,,,,,,,,,,,,,,,,,,,,,,,,,,,,,,,,,,,,,,,,,,,,,,,,,,,,,,,,,,,,,,,,,,,,,,,,,,,,,,,,,,,,,,,,,,,,,,,,,,,,,,,,,,,,,,,,,,,,,,
,,,,,,5cd98287b0c5ec0001e0965a,62c538d588ef00b1eab487a6,2022-07-06_10h25.31.524,Colour_Asymmetry_Pilot,2022.1.3,Win32,60.04563468,62c50e9c1127f2cd403a315f,0,122,122,85,1,threefour,,,,,,,,,,,,,,,,,,,,,,,,,,,,,,,,,,,,,,,,,,,,,,,,,,,,,,,,,,,,,,,,,,,,,,,,,,,,,,,,,,,,,,,,,,,,,,,,,,,,,,,,,,,,,,,,,,,,,,,,,,,,,,,,,,,,,,,,,,,,,,,,,,,,,,,,,,,,,
,,,,,,5cd98287b0c5ec0001e0965a,62c538d588ef00b1eab487a6,2022-07-06_10h25.31.524,Colour_Asymmetry_Pilot,2022.1.3,Win32,60.04563468,62c50e9c1127f2cd403a315f,0,123,123,151,1,fourthree,,,,,,,,,,,,,,,,,,,,,,,,,,,,,,,,,,,,,,,,,,,,,,,,,,,,,,,,,,,,,,,,,,,,,,,,,,,,,,,,,,,,,,,,,,,,,,,,,,,,,,,,,,,,,,,,,,,,,,,,,,,,,,,,,,,,,,,,,,,,,,,,,,,,,,,,,,,,,
,,,,,,5cd98287b0c5ec0001e0965a,62c538d588ef00b1eab487a6,2022-07-06_10h25.31.524,Colour_Asymmetry_Pilot,2022.1.3,Win32,60.04563468,62c50e9c1127f2cd403a315f,0,124,124,28,1,threeone,,,,,,,,,,,,,,,,,,,,,,,,,,,,,,,,,,,,,,,,,,,,,,,,,,,,,,,,,,,,,,,,,,,,,,,,,,,,,,,,,,,,,,,,,,,,,,,,,,,,,,,,,,,,,,,,,,,,,,,,,,,,,,,,,,,,,,,,,,,,,,,,,,,,,,,,,,,,,
,,,,,,5cd98287b0c5ec0001e0965a,62c538d588ef00b1eab487a6,2022-07-06_10h25.31.524,Colour_Asymmetry_Pilot,2022.1.3,Win32,60.04563468,62c50e9c1127f2cd403a315f,0,125,125,68,1,threeone,,,,,,,,,,,,,,,,,,,,,,,,,,,,,,,,,,,,,,,,,,,,,,,,,,,,,,,,,,,,,,,,,,,,,,,,,,,,,,,,,,,,,,,,,,,,,,,,,,,,,,,,,,,,,,,,,,,,,,,,,,,,,,,,,,,,,,,,,,,,,,,,,,,,,,,,,,,,,
,,,,,,5cd98287b0c5ec0001e0965a,62c538d588ef00b1eab487a6,2022-07-06_10h25.31.524,Colour_Asymmetry_Pilot,2022.1.3,Win32,60.04563468,62c50e9c1127f2cd403a315f,0,126,126,91,1,twofour,,,,,,,,,,,,,,,,,,,,,,,,,,,,,,,,,,,,,,,,,,,,,,,,,,,,,,,,,,,,,,,,,,,,,,,,,,,,,,,,,,,,,,,,,,,,,,,,,,,,,,,,,,,,,,,,,,,,,,,,,,,,,,,,,,,,,,,,,,,,,,,,,,,,,,,,,,,,,
,,,,,,5cd98287b0c5ec0001e0965a,62c538d588ef00b1eab487a6,2022-07-06_10h25.31.524,Colour_Asymmetry_Pilot,2022.1.3,Win32,60.04563468,62c50e9c1127f2cd403a315f,0,127,127,83,1,twofour,,,,,,,,,,,,,,,,,,,,,,,,,,,,,,,,,,,,,,,,,,,,,,,,,,,,,,,,,,,,,,,,,,,,,,,,,,,,,,,,,,,,,,,,,,,,,,,,,,,,,,,,,,,,,,,,,,,,,,,,,,,,,,,,,,,,,,,,,,,,,,,,,,,,,,,,,,,,,
,,,,,,5cd98287b0c5ec0001e0965a,62c538d588ef00b1eab487a6,2022-07-06_10h25.31.524,Colour_Asymmetry_Pilot,2022.1.3,Win32,60.04563468,62c50e9c1127f2cd403a315f,0,128,128,121,1,onethree,,,,,,,,,,,,,,,,,,,,,,,,,,,,,,,,,,,,,,,,,,,,,,,,,,,,,,,,,,,,,,,,,,,,,,,,,,,,,,,,,,,,,,,,,,,,,,,,,,,,,,,,,,,,,,,,,,,,,,,,,,,,,,,,,,,,,,,,,,,,,,,,,,,,,,,,,,,,,
,,,,,,5cd98287b0c5ec0001e0965a,62c538d588ef00b1eab487a6,2022-07-06_10h25.31.524,Colour_Asymmetry_Pilot,2022.1.3,Win32,60.04563468,62c50e9c1127f2cd403a315f,0,129,129,89,1,onethree,,,,,,,,,,,,,,,,,,,,,,,,,,,,,,,,,,,,,,,,,,,,,,,,,,,,,,,,,,,,,,,,,,,,,,,,,,,,,,,,,,,,,,,,,,,,,,,,,,,,,,,,,,,,,,,,,,,,,,,,,,,,,,,,,,,,,,,,,,,,,,,,,,,,,,,,,,,,,
,,,,,,5cd98287b0c5ec0001e0965a,62c538d588ef00b1eab487a6,2022-07-06_10h25.31.524,Colour_Asymmetry_Pilot,2022.1.3,Win32,60.04563468,62c50e9c1127f2cd403a315f,0,130,130,62,1,fourtwo,,,,,,,,,,,,,,,,,,,,,,,,,,,,,,,,,,,,,,,,,,,,,,,,,,,,,,,,,,,,,,,,,,,,,,,,,,,,,,,,,,,,,,,,,,,,,,,,,,,,,,,,,,,,,,,,,,,,,,,,,,,,,,,,,,,,,,,,,,,,,,,,,,,,,,,,,,,,,
,,,,,,5cd98287b0c5ec0001e0965a,62c538d588ef00b1eab487a6,2022-07-06_10h25.31.524,Colour_Asymmetry_Pilot,2022.1.3,Win32,60.04563468,62c50e9c1127f2cd403a315f,0,131,131,37,1,threefour,,,,,,,,,,,,,,,,,,,,,,,,,,,,,,,,,,,,,,,,,,,,,,,,,,,,,,,,,,,,,,,,,,,,,,,,,,,,,,,,,,,,,,,,,,,,,,,,,,,,,,,,,,,,,,,,,,,,,,,,,,,,,,,,,,,,,,,,,,,,,,,,,,,,,,,,,,,,,
,,,,,,5cd98287b0c5ec0001e0965a,62c538d588ef00b1eab487a6,2022-07-06_10h25.31.524,Colour_Asymmetry_Pilot,2022.1.3,Win32,60.04563468,62c50e9c1127f2cd403a315f,0,132,132,93,1,threefour,,,,,,,,,,,,,,,,,,,,,,,,,,,,,,,,,,,,,,,,,,,,,,,,,,,,,,,,,,,,,,,,,,,,,,,,,,,,,,,,,,,,,,,,,,,,,,,,,,,,,,,,,,,,,,,,,,,,,,,,,,,,,,,,,,,,,,,,,,,,,,,,,,,,,,,,,,,,,
,,,,,,5cd98287b0c5ec0001e0965a,62c538d588ef00b1eab487a6,2022-07-06_10h25.31.524,Colour_Asymmetry_Pilot,2022.1.3,Win32,60.04563468,62c50e9c1127f2cd403a315f,0,133,133,76,1,threeone,,,,,,,,,,,,,,,,,,,,,,,,,,,,,,,,,,,,,,,,,,,,,,,,,,,,,,,,,,,,,,,,,,,,,,,,,,,,,,,,,,,,,,,,,,,,,,,,,,,,,,,,,,,,,,,,,,,,,,,,,,,,,,,,,,,,,,,,,,,,,,,,,,,,,,,,,,,,,
,,,,,,5cd98287b0c5ec0001e0965a,62c538d588ef00b1eab487a6,2022-07-06_10h25.31.524,Colour_Asymmetry_Pilot,2022.1.3,Win32,60.04563468,62c50e9c1127f2cd403a315f,0,134,134,21,1,threefour,,,,,,,,,,,,,,,,,,,,,,,,,,,,,,,,,,,,,,,,,,,,,,,,,,,,,,,,,,,,,,,,,,,,,,,,,,,,,,,,,,,,,,,,,,,,,,,,,,,,,,,,,,,,,,,,,,,,,,,,,,,,,,,,,,,,,,,,,,,,,,,,,,,,,,,,,,,,,
,,,,,,5cd98287b0c5ec0001e0965a,62c538d588ef00b1eab487a6,2022-07-06_10h25.31.524,Colour_Asymmetry_Pilot,2022.1.3,Win32,60.04563468,62c50e9c1127f2cd403a315f,0,135,135,124,1,threeone,,,,,,,,,,,,,,,,,,,,,,,,,,,,,,,,,,,,,,,,,,,,,,,,,,,,,,,,,,,,,,,,,,,,,,,,,,,,,,,,,,,,,,,,,,,,,,,,,,,,,,,,,,,,,,,,,,,,,,,,,,,,,,,,,,,,,,,,,,,,,,,,,,,,,,,,,,,,,
,,,,,,5cd98287b0c5ec0001e0965a,62c538d588ef00b1eab487a6,2022-07-06_10h25.31.524,Colour_Asymmetry_Pilot,2022.1.3,Win32,60.04563468,62c50e9c1127f2cd403a315f,0,136,136,75,1,twofour,,,,,,,,,,,,,,,,,,,,,,,,,,,,,,,,,,,,,,,,,,,,,,,,,,,,,,,,,,,,,,,,,,,,,,,,,,,,,,,,,,,,,,,,,,,,,,,,,,,,,,,,,,,,,,,,,,,,,,,,,,,,,,,,,,,,,,,,,,,,,,,,,,,,,,,,,,,,,
,,,,,,5cd98287b0c5ec0001e0965a,62c538d588ef00b1eab487a6,2022-07-06_10h25.31.524,Colour_Asymmetry_Pilot,2022.1.3,Win32,60.04563468,62c50e9c1127f2cd403a315f,0,137,137,88,1,onetwo,,,,,,,,,,,,,,,,,,,,,,,,,,,,,,,,,,,,,,,,,,,,,,,,,,,,,,,,,,,,,,,,,,,,,,,,,,,,,,,,,,,,,,,,,,,,,,,,,,,,,,,,,,,,,,,,,,,,,,,,,,,,,,,,,,,,,,,,,,,,,,,,,,,,,,,,,,,,,
,,,,,,5cd98287b0c5ec0001e0965a,62c538d588ef00b1eab487a6,2022-07-06_10h25.31.524,Colour_Asymmetry_Pilot,2022.1.3,Win32,60.04563468,62c50e9c1127f2cd403a315f,0,138,138,160,1,onetwo,,,,,,,,,,,,,,,,,,,,,,,,,,,,,,,,,,,,,,,,,,,,,,,,,,,,,,,,,,,,,,,,,,,,,,,,,,,,,,,,,,,,,,,,,,,,,,,,,,,,,,,,,,,,,,,,,,,,,,,,,,,,,,,,,,,,,,,,,,,,,,,,,,,,,,,,,,,,,
,,,,,,5cd98287b0c5ec0001e0965a,62c538d588ef00b1eab487a6,2022-07-06_10h25.31.524,Colour_Asymmetry_Pilot,2022.1.3,Win32,60.04563468,62c50e9c1127f2cd403a315f,0,139,139,158,1,fourtwo,,,,,,,,,,,,,,,,,,,,,,,,,,,,,,,,,,,,,,,,,,,,,,,,,,,,,,,,,,,,,,,,,,,,,,,,,,,,,,,,,,,,,,,,,,,,,,,,,,,,,,,,,,,,,,,,,,,,,,,,,,,,,,,,,,,,,,,,,,,,,,,,,,,,,,,,,,,,,
,,,,,,5cd98287b0c5ec0001e0965a,62c538d588ef00b1eab487a6,2022-07-06_10h25.31.524,Colour_Asymmetry_Pilot,2022.1.3,Win32,60.04563468,62c50e9c1127f2cd403a315f,0,140,140,146,1,twoone,,,,,,,,,,,,,,,,,,,,,,,,,,,,,,,,,,,,,,,,,,,,,,,,,,,,,,,,,,,,,,,,,,,,,,,,,,,,,,,,,,,,,,,,,,,,,,,,,,,,,,,,,,,,,,,,,,,,,,,,,,,,,,,,,,,,,,,,,,,,,,,,,,,,,,,,,,,,,
,,,,,,5cd98287b0c5ec0001e0965a,62c538d588ef00b1eab487a6,2022-07-06_10h25.31.524,Colour_Asymmetry_Pilot,2022.1.3,Win32,60.04563468,62c50e9c1127f2cd403a315f,0,141,141,29,1,threefour,,,,,,,,,,,,,,,,,,,,,,,,,,,,,,,,,,,,,,,,,,,,,,,,,,,,,,,,,,,,,,,,,,,,,,,,,,,,,,,,,,,,,,,,,,,,,,,,,,,,,,,,,,,,,,,,,,,,,,,,,,,,,,,,,,,,,,,,,,,,,,,,,,,,,,,,,,,,,
,,,,,,5cd98287b0c5ec0001e0965a,62c538d588ef00b1eab487a6,2022-07-06_10h25.31.524,Colour_Asymmetry_Pilot,2022.1.3,Win32,60.04563468,62c50e9c1127f2cd403a315f,0,142,142,143,1,fourthree,,,,,,,,,,,,,,,,,,,,,,,,,,,,,,,,,,,,,,,,,,,,,,,,,,,,,,,,,,,,,,,,,,,,,,,,,,,,,,,,,,,,,,,,,,,,,,,,,,,,,,,,,,,,,,,,,,,,,,,,,,,,,,,,,,,,,,,,,,,,,,,,,,,,,,,,,,,,,
,,,,,,5cd98287b0c5ec0001e0965a,62c538d588ef00b1eab487a6,2022-07-06_10h25.31.524,Colour_Asymmetry_Pilot,2022.1.3,Win32,60.04563468,62c50e9c1127f2cd403a315f,0,143,143,3,1,twofour,,,,,,,,,,,,,,,,,,,,,,,,,,,,,,,,,,,,,,,,,,,,,,,,,,,,,,,,,,,,,,,,,,,,,,,,,,,,,,,,,,,,,,,,,,,,,,,,,,,,,,,,,,,,,,,,,,,,,,,,,,,,,,,,,,,,,,,,,,,,,,,,,,,,,,,,,,,,,
,,,,,,5cd98287b0c5ec0001e0965a,62c538d588ef00b1eab487a6,2022-07-06_10h25.31.524,Colour_Asymmetry_Pilot,2022.1.3,Win32,60.04563468,62c50e9c1127f2cd403a315f,0,144,144,128,1,onetwo,,,,,,,,,,,,,,,,,,,,,,,,,,,,,,,,,,,,,,,,,,,,,,,,,,,,,,,,,,,,,,,,,,,,,,,,,,,,,,,,,,,,,,,,,,,,,,,,,,,,,,,,,,,,,,,,,,,,,,,,,,,,,,,,,,,,,,,,,,,,,,,,,,,,,,,,,,,,,
,,,,,,5cd98287b0c5ec0001e0965a,62c538d588ef00b1eab487a6,2022-07-06_10h25.31.524,Colour_Asymmetry_Pilot,2022.1.3,Win32,60.04563468,62c50e9c1127f2cd403a315f,0,145,145,137,1,onethree,,,,,,,,,,,,,,,,,,,,,,,,,,,,,,,,,,,,,,,,,,,,,,,,,,,,,,,,,,,,,,,,,,,,,,,,,,,,,,,,,,,,,,,,,,,,,,,,,,,,,,,,,,,,,,,,,,,,,,,,,,,,,,,,,,,,,,,,,,,,,,,,,,,,,,,,,,,,,
,,,,,,5cd98287b0c5ec0001e0965a,62c538d588ef00b1eab487a6,2022-07-06_10h25.31.524,Colour_Asymmetry_Pilot,2022.1.3,Win32,60.04563468,62c50e9c1127f2cd403a315f,0,146,146,125,1,threefour,,,,,,,,,,,,,,,,,,,,,,,,,,,,,,,,,,,,,,,,,,,,,,,,,,,,,,,,,,,,,,,,,,,,,,,,,,,,,,,,,,,,,,,,,,,,,,,,,,,,,,,,,,,,,,,,,,,,,,,,,,,,,,,,,,,,,,,,,,,,,,,,,,,,,,,,,,,,,
,,,,,,5cd98287b0c5ec0001e0965a,62c538d588ef00b1eab487a6,2022-07-06_10h25.31.524,Colour_Asymmetry_Pilot,2022.1.3,Win32,60.04563468,62c50e9c1127f2cd403a315f,0,147,147,86,1,fourtwo,,,,,,,,,,,,,,,,,,,,,,,,,,,,,,,,,,,,,,,,,,,,,,,,,,,,,,,,,,,,,,,,,,,,,,,,,,,,,,,,,,,,,,,,,,,,,,,,,,,,,,,,,,,,,,,,,,,,,,,,,,,,,,,,,,,,,,,,,,,,,,,,,,,,,,,,,,,,,
,,,,,,5cd98287b0c5ec0001e0965a,62c538d588ef00b1eab487a6,2022-07-06_10h25.31.524,Colour_Asymmetry_Pilot,2022.1.3,Win32,60.04563468,62c50e9c1127f2cd403a315f,0,148,148,6,1,fourtwo,,,,,,,,,,,,,,,,,,,,,,,,,,,,,,,,,,,,,,,,,,,,,,,,,,,,,,,,,,,,,,,,,,,,,,,,,,,,,,,,,,,,,,,,,,,,,,,,,,,,,,,,,,,,,,,,,,,,,,,,,,,,,,,,,,,,,,,,,,,,,,,,,,,,,,,,,,,,,
,,,,,,5cd98287b0c5ec0001e0965a,62c538d588ef00b1eab487a6,2022-07-06_10h25.31.524,Colour_Asymmetry_Pilot,2022.1.3,Win32,60.04563468,62c50e9c1127f2cd403a315f,0,149,149,120,1,onetwo,,,,,,,,,,,,,,,,,,,,,,,,,,,,,,,,,,,,,,,,,,,,,,,,,,,,,,,,,,,,,,,,,,,,,,,,,,,,,,,,,,,,,,,,,,,,,,,,,,,,,,,,,,,,,,,,,,,,,,,,,,,,,,,,,,,,,,,,,,,,,,,,,,,,,,,,,,,,,
,,,,,,5cd98287b0c5ec0001e0965a,62c538d588ef00b1eab487a6,2022-07-06_10h25.31.524,Colour_Asymmetry_Pilot,2022.1.3,Win32,60.04563468,62c50e9c1127f2cd403a315f,0,150,150,61,1,threefour,,,,,,,,,,,,,,,,,,,,,,,,,,,,,,,,,,,,,,,,,,,,,,,,,,,,,,,,,,,,,,,,,,,,,,,,,,,,,,,,,,,,,,,,,,,,,,,,,,,,,,,,,,,,,,,,,,,,,,,,,,,,,,,,,,,,,,,,,,,,,,,,,,,,,,,,,,,,,
,,,,,,5cd98287b0c5ec0001e0965a,62c538d588ef00b1eab487a6,2022-07-06_10h25.31.524,Colour_Asymmetry_Pilot,2022.1.3,Win32,60.04563468,62c50e9c1127f2cd403a315f,0,151,151,11,1,twofour,,,,,,,,,,,,,,,,,,,,,,,,,,,,,,,,,,,,,,,,,,,,,,,,,,,,,,,,,,,,,,,,,,,,,,,,,,,,,,,,,,,,,,,,,,,,,,,,,,,,,,,,,,,,,,,,,,,,,,,,,,,,,,,,,,,,,,,,,,,,,,,,,,,,,,,,,,,,,
,,,,,,5cd98287b0c5ec0001e0965a,62c538d588ef00b1eab487a6,2022-07-06_10h25.31.524,Colour_Asymmetry_Pilot,2022.1.3,Win32,60.04563468,62c50e9c1127f2cd403a315f,0,152,152,105,1,onethree,,,,,,,,,,,,,,,,,,,,,,,,,,,,,,,,,,,,,,,,,,,,,,,,,,,,,,,,,,,,,,,,,,,,,,,,,,,,,,,,,,,,,,,,,,,,,,,,,,,,,,,,,,,,,,,,,,,,,,,,,,,,,,,,,,,,,,,,,,,,,,,,,,,,,,,,,,,,,
,,,,,,5cd98287b0c5ec0001e0965a,62c538d588ef00b1eab487a6,2022-07-06_10h25.31.524,Colour_Asymmetry_Pilot,2022.1.3,Win32,60.04563468,62c50e9c1127f2cd403a315f,0,153,153,59,1,twofour,,,,,,,,,,,,,,,,,,,,,,,,,,,,,,,,,,,,,,,,,,,,,,,,,,,,,,,,,,,,,,,,,,,,,,,,,,,,,,,,,,,,,,,,,,,,,,,,,,,,,,,,,,,,,,,,,,,,,,,,,,,,,,,,,,,,,,,,,,,,,,,,,,,,,,,,,,,,,
,,,,,,5cd98287b0c5ec0001e0965a,62c538d588ef00b1eab487a6,2022-07-06_10h25.31.524,Colour_Asymmetry_Pilot,2022.1.3,Win32,60.04563468,62c50e9c1127f2cd403a315f,0,154,154,64,1,onetwo,,,,,,,,,,,,,,,,,,,,,,,,,,,,,,,,,,,,,,,,,,,,,,,,,,,,,,,,,,,,,,,,,,,,,,,,,,,,,,,,,,,,,,,,,,,,,,,,,,,,,,,,,,,,,,,,,,,,,,,,,,,,,,,,,,,,,,,,,,,,,,,,,,,,,,,,,,,,,
,,,,,,5cd98287b0c5ec0001e0965a,62c538d588ef00b1eab487a6,2022-07-06_10h25.31.524,Colour_Asymmetry_Pilot,2022.1.3,Win32,60.04563468,62c50e9c1127f2cd403a315f,0,155,155,134,1,fourtwo,,,,,,,,,,,,,,,,,,,,,,,,,,,,,,,,,,,,,,,,,,,,,,,,,,,,,,,,,,,,,,,,,,,,,,,,,,,,,,,,,,,,,,,,,,,,,,,,,,,,,,,,,,,,,,,,,,,,,,,,,,,,,,,,,,,,,,,,,,,,,,,,,,,,,,,,,,,,,
,,,,,,5cd98287b0c5ec0001e0965a,62c538d588ef00b1eab487a6,2022-07-06_10h25.31.524,Colour_Asymmetry_Pilot,2022.1.3,Win32,60.04563468,62c50e9c1127f2cd403a315f,0,156,156,130,1,twoone,,,,,,,,,,,,,,,,,,,,,,,,,,,,,,,,,,,,,,,,,,,,,,,,,,,,,,,,,,,,,,,,,,,,,,,,,,,,,,,,,,,,,,,,,,,,,,,,,,,,,,,,,,,,,,,,,,,,,,,,,,,,,,,,,,,,,,,,,,,,,,,,,,,,,,,,,,,,,
,,,,,,5cd98287b0c5ec0001e0965a,62c538d588ef00b1eab487a6,2022-07-06_10h25.31.524,Colour_Asymmetry_Pilot,2022.1.3,Win32,60.04563468,62c50e9c1127f2cd403a315f,0,157,157,159,1,fourthree,,,,,,,,,,,,,,,,,,,,,,,,,,,,,,,,,,,,,,,,,,,,,,,,,,,,,,,,,,,,,,,,,,,,,,,,,,,,,,,,,,,,,,,,,,,,,,,,,,,,,,,,,,,,,,,,,,,,,,,,,,,,,,,,,,,,,,,,,,,,,,,,,,,,,,,,,,,,,
,,,,,,5cd98287b0c5ec0001e0965a,62c538d588ef00b1eab487a6,2022-07-06_10h25.31.524,Colour_Asymmetry_Pilot,2022.1.3,Win32,60.04563468,62c50e9c1127f2cd403a315f,0,158,158,132,1,threeone,,,,,,,,,,,,,,,,,,,,,,,,,,,,,,,,,,,,,,,,,,,,,,,,,,,,,,,,,,,,,,,,,,,,,,,,,,,,,,,,,,,,,,,,,,,,,,,,,,,,,,,,,,,,,,,,,,,,,,,,,,,,,,,,,,,,,,,,,,,,,,,,,,,,,,,,,,,,,
,,,,,,5cd98287b0c5ec0001e0965a,62c538d588ef00b1eab487a6,2022-07-06_10h25.31.524,Colour_Asymmetry_Pilot,2022.1.3,Win32,60.04563468,62c50e9c1127f2cd403a315f,0,159,159,101,1,threefour,,,,,,,,,,,,,,,,,,,,,,,,,,,,,,,,,,,,,,,,,,,,,,,,,,,,,,,,,,,,,,,,,,,,,,,,,,,,,,,,,,,,,,,,,,,,,,,,,,,,,,,,,,,,,,,,,,,,,,,,,,,,,,,,,,,,,,,,,,,,,,,,,,,,,,,,,,,,,
,,,,,,5cd98287b0c5ec0001e0965a,62c538d588ef00b1eab487a6,2022-07-06_10h25.31.524,Colour_Asymmetry_Pilot,2022.1.3,Win32,60.04563468,62c50e9c1127f2cd403a315f,0,160,160,74,1,twoone,,,,,,,,,,,,,,,,,,,,,,,,,,,,,,,,,,,,,,,,,,,,,,,,,,,,,,,,,,,,,,,,,,,,,,,,,,,,,,,,,,,,,,,,,,,,,,,,,,,,,,,,,,,,,,,,,,,,,,,,,,,,,,,,,,,,,,,,,,,,,,,,,,,,,,,,,,,,,
,,,,,,5cd98287b0c5ec0001e0965a,62c538d588ef00b1eab487a6,2022-07-06_10h25.31.524,Colour_Asymmetry_Pilot,2022.1.3,Win32,60.04563468,62c50e9c1127f2cd403a315f,0,161,161,23,1,fourthree,,,,,,,,,,,,,,,,,,,,,,,,,,,,,,,,,,,,,,,,,,,,,,,,,,,,,,,,,,,,,,,,,,,,,,,,,,,,,,,,,,,,,,,,,,,,,,,,,,,,,,,,,,,,,,,,,,,,,,,,,,,,,,,,,,,,,,,,,,,,,,,,,,,,,,,,,,,,,
,,,,,,5cd98287b0c5ec0001e0965a,62c538d588ef00b1eab487a6,2022-07-06_10h25.31.524,Colour_Asymmetry_Pilot,2022.1.3,Win32,60.04563468,62c50e9c1127f2cd403a315f,,,,,,,space,1.0814,space,14.1869,space,14.5465,space,15.7012,space,3.2588,space,3.8719,"[0.12939999999999996,-0.2864,0.3253999999999999]",fourthree,"[0.23120000000000007,-0.7726,-0.34120000000000006]",-2,4.2887,-97.59997559,-28.80001831,1,0,0,response5disk_5,-4.799987793,-1.600006104,1,0,0,rectangle_8,-4.799987793,-1.600006104,1,0,0,1,-4.799987793,-1.600006104,1,0,0,0,0,0,0,1,,,,,,,,,,,,,,,,,,,,,,,,,,,,,,,,,,,,,,,,,,,,,,,,,,,,,,,,,,,,,,,,,,,,,,,,,,,,,,,,,,,,,,,,,,,,,,,,,,,,,,,,,,,,,,,,
,,,,,,5cd98287b0c5ec0001e0965a,62c538d588ef00b1eab487a6,2022-07-06_10h25.31.524,Colour_Asymmetry_Pilot,2022.1.3,Win32,60.04563468,62c50e9c1127f2cd403a315f,,,,,,,,,,,,,,,,,,,"[-0.26280000000000003,-0.2158,-0.3256]",onetwo,"[0.6625999999999999,0.4980000000000002,-0.357]",1,4.384,40,-98.40002441,1,0,0,response3disk_5,-0.799987793,-4,1,0,0,rectangle_8,-0.799987793,-4,1,0,0,1,-0.799987793,-4,1,0,0,1,0,1,0,1,,,,,,,,,,,,,,,,,,,,,,,,,,,,,,,,,,,,,,,,,,,,,,,,,,,,,,,,,,,,,,,,,,,,,,,,,,,,,,,,,,,,,,,,,,,,,,,,,,,,,,,,,,,,,,,,
,,,,,,5cd98287b0c5ec0001e0965a,62c538d588ef00b1eab487a6,2022-07-06_10h25.31.524,Colour_Asymmetry_Pilot,2022.1.3,Win32,60.04563468,62c50e9c1127f2cd403a315f,,,,,,,,,,,,,,,,,,,"[0.3568,-0.20799999999999996,-0.9844]",fourtwo,"[0.9763999999999999,0.30979999999999985,-0.6786]",2,2.0627,107.2000122,-50.40002441,1,0,0,response3disk_5,-0.799987793,-1.600006104,1,0,0,rectangle_8,-0.799987793,-1.600006104,1,0,0,1,-0.799987793,-1.600006104,1,0,0,2,0,2,0,1,,,,,,,,,,,,,,,,,,,,,,,,,,,,,,,,,,,,,,,,,,,,,,,,,,,,,,,,,,,,,,,,,,,,,,,,,,,,,,,,,,,,,,,,,,,,,,,,,,,,,,,,,,,,,,,,
,,,,,,5cd98287b0c5ec0001e0965a,62c538d588ef00b1eab487a6,2022-07-06_10h25.31.524,Colour_Asymmetry_Pilot,2022.1.3,Win32,60.04563468,62c50e9c1127f2cd403a315f,,,,,,,,,,,,,,,,,,,"[0.37240000000000006,0.4980000000000002,-0.2864]",threefour,"[0.9372,0.20779999999999998,0.2704]",-4,2.067,-60,88.79998779,1,0,0,response7disk_5,1.600036621,6.399993896,1,0,0,rectangle_8,35.20001221,-113.6000366,1,0,0,1,-9.599975586,4.799987793,1,0,0,3,0,3,0,1,response3disk_7,4,rectangle_4,,,,,,,,,,,,,,,,,,,,,,,,,,,,,,,,,,,,,,,,,,,,,,,,,,,,,,,,,,,,,,,,,,,,,,,,,,,,,,,,,,,,,,,,,,,,,,,,,,,,,,,,,,,,,
,,,,,,5cd98287b0c5ec0001e0965a,62c538d588ef00b1eab487a6,2022-07-06_10h25.31.524,Colour_Asymmetry_Pilot,2022.1.3,Win32,60.04563468,62c50e9c1127f2cd403a315f,,,,,,,,,,,,,,,,,,,"[-0.20799999999999996,-0.655,-0.01980000000000004]",onetwo,"[-0.24719999999999998,0.5213999999999999,-0.12959999999999994]",-3,1.2669,-84.79998779,30.3999939,1,0,0,response7disk_5,2.400024414,0,1,0,0,rectangle_8,2.400024414,0,1,0,0,1,2.400024414,0,1,0,0,4,0,4,0,1,,,,,,,,,,,,,,,,,,,,,,,,,,,,,,,,,,,,,,,,,,,,,,,,,,,,,,,,,,,,,,,,,,,,,,,,,,,,,,,,,,,,,,,,,,,,,,,,,,,,,,,,,,,,,,,,
,,,,,,5cd98287b0c5ec0001e0965a,62c538d588ef00b1eab487a6,2022-07-06_10h25.31.524,Colour_Asymmetry_Pilot,2022.1.3,Win32,60.04563468,62c50e9c1127f2cd403a315f,,,,,,,,,,,,,,,,,,,"[0.8115999999999999,-0.0040000000000000036,-0.09819999999999995]",twoone,"[0.9372,0.9450000000000001,0.8980000000000001]",-2,1.4835,-99.20001221,-28,1,0,0,response5disk_5,28.79998779,-0.800018311,1,0,0,rectangle_8,28.79998779,-0.800018311,1,0,0,1,28.79998779,-0.800018311,1,0,0,5,0,5,0,1,,,,,,,,,,,,,,,,,,,,,,,,,,,,,,,,,,,,,,,,,,,,,,,,,,,,,,,,,,,,,,,,,,,,,,,,,,,,,,,,,,,,,,,,,,,,,,,,,,,,,,,,,,,,,,,,
,,,,,,5cd98287b0c5ec0001e0965a,62c538d588ef00b1eab487a6,2022-07-06_10h25.31.524,Colour_Asymmetry_Pilot,2022.1.3,Win32,60.04563468,62c50e9c1127f2cd403a315f,,,,,,,,,,,,,,,,,,,"[0.5528,0.7409999999999999,-0.71]",onethree,"[-0.011800000000000033,-0.906,-0.45100000000000007]",-4,1.3209,-48.79998779,97.6000061,1,0,0,response7disk_5,-12.79998779,4.799987793,1,0,0,rectangle_8,-12.79998779,4.799987793,1,0,0,1,-12.79998779,4.799987793,1,0,0,6,0,6,0,1,,,,,,,,,,,,,,,,,,,,,,,,,,,,,,,,,,,,,,,,,,,,,,,,,,,,,,,,,,,,,,,,,,,,,,,,,,,,,,,,,,,,,,,,,,,,,,,,,,,,,,,,,,,,,,,,
,,,,,,5cd98287b0c5ec0001e0965a,62c538d588ef00b1eab487a6,2022-07-06_10h25.31.524,Colour_Asymmetry_Pilot,2022.1.3,Win32,60.04563468,62c50e9c1127f2cd403a315f,,,,,,,,,,,,,,,,,,,,onetwo,,-2,1.9668,,,,,,,,,,,,,,,,,,,,,,,,,,,,,,,,space,3.4204,"[-0.9766,-0.6472,0.07440000000000002]","[0.09799999999999986,-0.24719999999999998,0.15280000000000005]",-89.59997559,-50.40002441,1,0,0,response5disk,1.600036621,4,1,0,0,rectangle,1.600036621,4,1,0,0,,3,0.0021,0,1.600036621,4,1,0,0,0,0,0,119,1,38,second,,,,,,,,,,,,,,,,,,,,,,,,,,,,,,,,,,,,,,,,,,,,,,,,,,,,,,,,,,,,,,,,,,,,,,,,
,,,,,,5cd98287b0c5ec0001e0965a,62c538d588ef00b1eab487a6,2022-07-06_10h25.31.524,Colour_Asymmetry_Pilot,2022.1.3,Win32,60.04563468,62c50e9c1127f2cd403a315f,,,,,,,,,,,,,,,,,,,,fourtwo,,-1,1.3849,,,,,,,,,,,,,,,,,,,,,,,,,,,,,,,,,,"[-0.2942,-0.24719999999999998,-0.357]","[-0.10599999999999998,-0.15300000000000002,0.15280000000000005]",-46.39996338,-82.40002441,1,0,0,response5disk,-6.399963379,-1.600006104,1,0,0,rectangle,-6.399963379,-1.600006104,1,0,0,,1,0.0012,0,-6.399963379,-1.600006104,1,0,0,0,1,1,135,1,54,second,,,,,,,,,,,,,,,,,,,,,,,,,,,,,,,,,,,,,,,,,,,,,,,,,,,,,,,,,,,,,,,,,,,,,,,,
,,,,,,5cd98287b0c5ec0001e0965a,62c538d588ef00b1eab487a6,2022-07-06_10h25.31.524,Colour_Asymmetry_Pilot,2022.1.3,Win32,60.04563468,62c50e9c1127f2cd403a315f,,,,,,,,,,,,,,,,,,,,fourthree,,3,1.0661,,,,,,,,,,,,,,,,,,,,,,,,,,,,,,,,,,"[-0.01980000000000004,-0.5138,-0.38039999999999996]","[0.8115999999999999,-0.0040000000000000036,-0.09819999999999995]",83.20001221,24,1,0,0,response1disk,-5.599975586,-9.600006104,1,0,0,rectangle,-5.599975586,-9.600006104,1,0,0,,3,0.0013,0,-5.599975586,-9.600006104,1,0,0,0,2,2,56,1,56,first,,,,,,,,,,,,,,,,,,,,,,,,,,,,,,,,,,,,,,,,,,,,,,,,,,,,,,,,,,,,,,,,,,,,,,,,
,,,,,,5cd98287b0c5ec0001e0965a,62c538d588ef00b1eab487a6,2022-07-06_10h25.31.524,Colour_Asymmetry_Pilot,2022.1.3,Win32,60.04563468,62c50e9c1127f2cd403a315f,,,,,,,,,,,,,,,,,,,,threefour,,-3,1.1,,,,,,,,,,,,,,,,,,,,,,,,,,,,,,,,,,"[-0.38039999999999996,-0.4276,-0.1452]","[0.796,0.2156,-0.27859999999999996]",-111.2000122,37.6000061,1,0,0,response7disk,-5.599975586,-3.200012207,1,0,0,rectangle,-5.599975586,-3.200012207,1,0,0,,1,0.0013,0,-5.599975586,-3.200012207,1,0,0,0,3,3,67,1,67,first,,,,,,,,,,,,,,,,,,,,,,,,,,,,,,,,,,,,,,,,,,,,,,,,,,,,,,,,,,,,,,,,,,,,,,,,
,,,,,,5cd98287b0c5ec0001e0965a,62c538d588ef00b1eab487a6,2022-07-06_10h25.31.524,Colour_Asymmetry_Pilot,2022.1.3,Win32,60.04563468,62c50e9c1127f2cd403a315f,,,,,,,,,,,,,,,,,,,,fourtwo,,2,1.75,,,,,,,,,,,,,,,,,,,,,,,,,,,,,,,,,,"[-0.0040000000000000036,0.02739999999999987,-0.08239999999999992]","[0.11359999999999992,0.6312,0.5213999999999999]",88,-50.40002441,1,0,0,response3disk,-5.599975586,-6.399993896,1,0,0,rectangle,-5.599975586,-6.399993896,1,0,0,,3,0.0011,0,-5.599975586,-6.399993896,1,0,0,0,4,4,143,1,62,second,,,,,,,,,,,,,,,,,,,,,,,,,,,,,,,,,,,,,,,,,,,,,,,,,,,,,,,,,,,,,,,,,,,,,,,,
,,,,,,5cd98287b0c5ec0001e0965a,62c538d588ef00b1eab487a6,2022-07-06_10h25.31.524,Colour_Asymmetry_Pilot,2022.1.3,Win32,60.04563468,62c50e9c1127f2cd403a315f,,,,,,,,,,,,,,,,,,,,fourthree,,1,1.1167,,,,,,,,,,,,,,,,,,,,,,,,,,,,,,,,,,"[-0.4668,-0.8746,-0.2942]","[0.3881999999999999,-0.23939999999999995,-0.05040000000000011]",35.20001221,-86.40002441,1,0,0,response3disk,-18.39996338,-4.800018311,1,0,0,rectangle,-18.39996338,-4.800018311,1,0,0,,3,0.0003,0,-18.39996338,-4.800018311,1,0,0,0,5,5,150,1,69,second,,,,,,,,,,,,,,,,,,,,,,,,,,,,,,,,,,,,,,,,,,,,,,,,,,,,,,,,,,,,,,,,,,,,,,,,
,,,,,,5cd98287b0c5ec0001e0965a,62c538d588ef00b1eab487a6,2022-07-06_10h25.31.524,Colour_Asymmetry_Pilot,2022.1.3,Win32,60.04563468,62c50e9c1127f2cd403a315f,,,,,,,,,,,,,,,,,,,,threeone,,4,1.6337,,,,,,,,,,,,,,,,,,,,,,,,,,,,,,,,,,"[0.18419999999999992,-0.4276,-0.404]","[0.18419999999999992,-0.4276,-0.404]",38.40002441,95.19998169,1,0,0,response1disk,-4.799987793,-1.600006104,1,0,0,rectangle,-4.799987793,-1.600006104,1,0,0,,1,0.0014,0,-4.799987793,-1.600006104,1,0,0,0,6,6,103,1,22,second,,,,,,,,,,,,,,,,,,,,,,,,,,,,,,,,,,,,,,,,,,,,,,,,,,,,,,,,,,,,,,,,,,,,,,,,
,,,,,,5cd98287b0c5ec0001e0965a,62c538d588ef00b1eab487a6,2022-07-06_10h25.31.524,Colour_Asymmetry_Pilot,2022.1.3,Win32,60.04563468,62c50e9c1127f2cd403a315f,,,,,,,,,,,,,,,,,,,,fourtwo,,2,0.8668,,,,,,,,,,,,,,,,,,,,,,,,,,,,,,,,,,"[0.3881999999999999,-0.23939999999999995,-0.05040000000000011]","[0.3568,-0.20799999999999996,-0.9844]",74.40002441,-36,1,0,0,response3disk,-4,-0.800018311,1,0,0,rectangle,-4,-0.800018311,1,0,0,,1,0.0003,0,-4,-0.800018311,1,0,0,0,7,7,115,1,34,second,,,,,,,,,,,,,,,,,,,,,,,,,,,,,,,,,,,,,,,,,,,,,,,,,,,,,,,,,,,,,,,,,,,,,,,,
,,,,,,5cd98287b0c5ec0001e0965a,62c538d588ef00b1eab487a6,2022-07-06_10h25.31.524,Colour_Asymmetry_Pilot,2022.1.3,Win32,60.04563468,62c50e9c1127f2cd403a315f,,,,,,,,,,,,,,,,,,,,onetwo,,-1,1.3336,,,,,,,,,,,,,,,,,,,,,,,,,,,,,,,,,,"[0.5528,0.7409999999999999,-0.71]","[-0.17659999999999998,0.3253999999999999,0.19999999999999996]",-22.39996338,-61.60003662,1,0,0,response5disk,-16.79998779,2.399993896,1,0,0,rectangle,-16.79998779,2.399993896,1,0,0,,3,0.0012,0,-16.79998779,2.399993896,1,0,0,0,8,8,46,1,46,first,,,,,,,,,,,,,,,,,,,,,,,,,,,,,,,,,,,,,,,,,,,,,,,,,,,,,,,,,,,,,,,,,,,,,,,,
,,,,,,5cd98287b0c5ec0001e0965a,62c538d588ef00b1eab487a6,2022-07-06_10h25.31.524,Colour_Asymmetry_Pilot,2022.1.3,Win32,60.04563468,62c50e9c1127f2cd403a315f,,,,,,,,,,,,,,,,,,,,twoone,,-1,1.9502,,,,,,,,,,,,,,,,,,,,,,,,,,,,,,,,,,"[-0.4746,-0.0354000000000001,0.5449999999999999]","[-0.5922000000000001,-0.7492000000000001,-0.5296000000000001]",-28.79998779,-87.20001221,1,0,0,response5disk,-8,-2.399993896,1,0,0,rectangle,-8,-2.399993896,1,0,0,,1,0.0012,0,-8,-2.399993896,1,0,0,0,9,9,33,1,33,first,,,,,,,,,,,,,,,,,,,,,,,,,,,,,,,,,,,,,,,,,,,,,,,,,,,,,,,,,,,,,,,,,,,,,,,,
,,,,,,5cd98287b0c5ec0001e0965a,62c538d588ef00b1eab487a6,2022-07-06_10h25.31.524,Colour_Asymmetry_Pilot,2022.1.3,Win32,60.04563468,62c50e9c1127f2cd403a315f,,,,,,,,,,,,,,,,,,,,onetwo,,-3,1.1002,,,,,,,,,,,,,,,,,,,,,,,,,,,,,,,,,,"[-0.34920000000000007,-0.702,-0.5216]","[0.3802000000000001,0.19199999999999995,-0.6394]",-100.7999878,27.19998169,1,0,0,response7disk,3.200012207,8.799987793,1,0,0,rectangle,3.200012207,8.799987793,1,0,0,,2,0.0011,0,3.200012207,8.799987793,1,0,0,0,10,10,158,1,77,second,,,,,,,,,,,,,,,,,,,,,,,,,,,,,,,,,,,,,,,,,,,,,,,,,,,,,,,,,,,,,,,,,,,,,,,,
,,,,,,5cd98287b0c5ec0001e0965a,62c538d588ef00b1eab487a6,2022-07-06_10h25.31.524,Colour_Asymmetry_Pilot,2022.1.3,Win32,60.04563468,62c50e9c1127f2cd403a315f,,,,,,,,,,,,,,,,,,,,twoone,,-3,0.9002,,,,,,,,,,,,,,,,,,,,,,,,,,,,,,,,,,"[0.9213999999999998,0.6391999999999998,-0.9922]","[0.7646000000000002,0.07440000000000002,0.2704]",-88,29.6000061,1,0,0,response7disk,17.60003662,4.799987793,1,0,0,rectangle,58.40002441,-86.40002441,1,0,0,1,1,1.9662,1,-7.200012207,7.199981689,1,0,0,0,11,11,11,1,11,first,response3disk_3,rectangle,,,,,,,,,,,,,,,,,,,,,,,,,,,,,,,,,,,,,,,,,,,,,,,,,,,,,,,,,,,,,,,,,,,,,,
,,,,,,5cd98287b0c5ec0001e0965a,62c538d588ef00b1eab487a6,2022-07-06_10h25.31.524,Colour_Asymmetry_Pilot,2022.1.3,Win32,60.04563468,62c50e9c1127f2cd403a315f,,,,,,,,,,,,,,,,,,,,twoone,,3,0.9669,,,,,,,,,,,,,,,,,,,,,,,,,,,,,,,,,,"[-0.10599999999999998,-0.10599999999999998,0.5841999999999998]","[-0.38039999999999996,-0.4276,-0.1452]",108,26.3999939,1,0,0,response1disk,4.799987793,11.19998169,1,0,0,rectangle,4.799987793,11.19998169,1,0,0,1,3,0.0014,0,4.799987793,11.19998169,1,0,0,0,12,12,31,1,31,first,,,,,,,,,,,,,,,,,,,,,,,,,,,,,,,,,,,,,,,,,,,,,,,,,,,,,,,,,,,,,,,,,,,,,,,,
,,,,,,5cd98287b0c5ec0001e0965a,62c538d588ef00b1eab487a6,2022-07-06_10h25.31.524,Colour_Asymmetry_Pilot,2022.1.3,Win32,60.04563468,62c50e9c1127f2cd403a315f,,,,,,,,,,,,,,,,,,,,threeone,,-3,0.733,,,,,,,,,,,,,,,,,,,,,,,,,,,,,,,,,,"[-0.07459999999999989,0.12139999999999995,-0.9922]","[-0.6942,-0.7648,-0.12959999999999994]",-52,39.19998169,1,0,0,response7disk,-4,0.799987793,1,0,0,rectangle,-4,0.799987793,1,0,0,1,2,0.001,0,-4,0.799987793,1,0,0,0,13,13,29,1,29,first,,,,,,,,,,,,,,,,,,,,,,,,,,,,,,,,,,,,,,,,,,,,,,,,,,,,,,,,,,,,,,,,,,,,,,,,
,,,,,,5cd98287b0c5ec0001e0965a,62c538d588ef00b1eab487a6,2022-07-06_10h25.31.524,Colour_Asymmetry_Pilot,2022.1.3,Win32,60.04563468,62c50e9c1127f2cd403a315f,,,,,,,,,,,,,,,,,,,,fourtwo,,-4,0.9001,,,,,,,,,,,,,,,,,,,,,,,,,,,,,,,,,,"[0.9763999999999999,0.30979999999999985,-0.6786]","[-0.9688,-0.4902000000000001,-0.12159999999999993]",-39.20001221,80,1,0,0,response7disk,-6.399963379,12.79998779,1,0,0,rectangle,-6.399963379,12.79998779,1,0,0,1,2,0.0003,0,-6.399963379,12.79998779,1,0,0,0,14,14,73,1,73,first,,,,,,,,,,,,,,,,,,,,,,,,,,,,,,,,,,,,,,,,,,,,,,,,,,,,,,,,,,,,,,,,,,,,,,,,
