trials.thisRepN,trials.thisTrialN,trials.thisN,trials.thisIndex,trials.ran,Colourcodes,participant,session,date,expName,psychopyVersion,OS,frameRate,study_id,trials_4.thisRepN,trials_4.thisTrialN,trials_4.thisN,trials_4.thisIndex,trials_4.ran,StimulusPos,key_resp.keys,key_resp.rt,key_resp_2.keys,key_resp_2.rt,key_resp_15.keys,key_resp_15.rt,key_resp_17.keys,key_resp_17.rt,key_resp_9.keys,key_resp_9.rt,key_resp_10.keys,key_resp_10.rt,Circle1_col,Ecc,Circle2_col,similarity,response_time,mouse_5.x,mouse_5.y,mouse_5.leftButton,mouse_5.midButton,mouse_5.rightButton,mouse_5.clicked_name,mouse_10.x,mouse_10.y,mouse_10.leftButton,mouse_10.midButton,mouse_10.rightButton,mouse_10.clicked_name,mouse_7.x,mouse_7.y,mouse_7.leftButton,mouse_7.midButton,mouse_7.rightButton,mouse_7.clicked_name,catchprac,catchnumberprac,mouse_6.x,mouse_6.y,mouse_6.leftButton,mouse_6.midButton,mouse_6.rightButton,mouse_6.clicked_name,duringprac.thisRepN,duringprac.thisTrialN,duringprac.thisN,duringprac.thisIndex,duringprac.ran,key_resp_22.keys,key_resp_22.rt,Circle1_colour,Circle2_colour,mouse.x,mouse.y,mouse.leftButton,mouse.midButton,mouse.rightButton,mouse.clicked_name,mouse_2.x,mouse_2.y,mouse_2.leftButton,mouse_2.midButton,mouse_2.rightButton,mouse_2.clicked_name,mouse_3.x,mouse_3.y,mouse_3.leftButton,mouse_3.midButton,mouse_3.rightButton,catchresponse,catchnumber,response_time_catch,Catch,mouse_11.x,mouse_11.y,mouse_11.leftButton,mouse_11.midButton,mouse_11.rightButton,trials_2.thisRepN,trials_2.thisTrialN,trials_2.thisN,trials_2.thisIndex,trials_2.ran,Colourpair,Temporder,mouse_3.clicked_name,mouse_11.clicked_name,trials_3.thisRepN,trials_3.thisTrialN,trials_3.thisN,trials_3.thisIndex,trials_3.ran,key_resp_instr_Ishi.keys,key_resp_instr_Ishi.rt,Ishi_trial_keyresp.keys,Ishi_textbox.text,Ishi_mouse.x,Ishi_mouse.y,Ishi_mouse.leftButton,Ishi_mouse.midButton,Ishi_mouse.rightButton,Ishi_mouse.clicked_name,Ishi_loop.thisRepN,Ishi_loop.thisTrialN,Ishi_loop.thisN,Ishi_loop.thisIndex,Ishi_loop.ran,imageaddress,textbox.text,mouse_4.x,mouse_4.y,mouse_4.leftButton,mouse_4.midButton,mouse_4.rightButton,mouse_4.clicked_name,textbox_2.text,mouse_8.x,mouse_8.y,mouse_8.leftButton,mouse_8.midButton,mouse_8.rightButton,mouse_8.clicked_name,textbox_3.text,mouse_9.x,mouse_9.y,mouse_9.leftButton,mouse_9.midButton,mouse_9.rightButton,mouse_9.clicked_name,textbox_4.text,mouse_12.x,mouse_12.y,mouse_12.leftButton,mouse_12.midButton,mouse_12.rightButton,mouse_12.clicked_name,textbox_5.text,mouse_13.x,mouse_13.y,mouse_13.leftButton,mouse_13.midButton,mouse_13.rightButton,mouse_13.clicked_name,textbox_6.text,mouse_14.x,mouse_14.y,mouse_14.leftButton,mouse_14.midButton,mouse_14.rightButton,mouse_14.clicked_name,textbox_7.text,mouse_15.x,mouse_15.y,mouse_15.leftButton,mouse_15.midButton,mouse_15.rightButton,mouse_15.clicked_name
0,0,0,4,1,,611d03b822d4c8e041ea0c32,62c53a3926bf6ce20ec814a1,2022-07-06_09h31.51.224,Colour_Asymmetry_Pilot,2022.1.3,Win32,60.22282445,62c50e9c1127f2cd403a315f,,,,,,,,,,,,,,,,,,,,,,,,,,,,,,,,,,,,,,,,,,,,,,,,,,,,,,,,,,,,,,,,,,,,,,,,,,,,,,,,,,,,,,,,,,,,,,,,,,,,,,,,,,,,,,,,,,,,,,,,,,,,,,,,,,,,,,,,,,,,,,,,,,,,,,,,,,,,,,,,,,,
0,1,1,50,1,,611d03b822d4c8e041ea0c32,62c53a3926bf6ce20ec814a1,2022-07-06_09h31.51.224,Colour_Asymmetry_Pilot,2022.1.3,Win32,60.22282445,62c50e9c1127f2cd403a315f,,,,,,,,,,,,,,,,,,,,,,,,,,,,,,,,,,,,,,,,,,,,,,,,,,,,,,,,,,,,,,,,,,,,,,,,,,,,,,,,,,,,,,,,,,,,,,,,,,,,,,,,,,,,,,,,,,,,,,,,,,,,,,,,,,,,,,,,,,,,,,,,,,,,,,,,,,,,,,,,,,,
0,2,2,20,1,,611d03b822d4c8e041ea0c32,62c53a3926bf6ce20ec814a1,2022-07-06_09h31.51.224,Colour_Asymmetry_Pilot,2022.1.3,Win32,60.22282445,62c50e9c1127f2cd403a315f,,,,,,,,,,,,,,,,,,,,,,,,,,,,,,,,,,,,,,,,,,,,,,,,,,,,,,,,,,,,,,,,,,,,,,,,,,,,,,,,,,,,,,,,,,,,,,,,,,,,,,,,,,,,,,,,,,,,,,,,,,,,,,,,,,,,,,,,,,,,,,,,,,,,,,,,,,,,,,,,,,,
0,3,3,86,1,,611d03b822d4c8e041ea0c32,62c53a3926bf6ce20ec814a1,2022-07-06_09h31.51.224,Colour_Asymmetry_Pilot,2022.1.3,Win32,60.22282445,62c50e9c1127f2cd403a315f,,,,,,,,,,,,,,,,,,,,,,,,,,,,,,,,,,,,,,,,,,,,,,,,,,,,,,,,,,,,,,,,,,,,,,,,,,,,,,,,,,,,,,,,,,,,,,,,,,,,,,,,,,,,,,,,,,,,,,,,,,,,,,,,,,,,,,,,,,,,,,,,,,,,,,,,,,,,,,,,,,,
0,4,4,60,1,,611d03b822d4c8e041ea0c32,62c53a3926bf6ce20ec814a1,2022-07-06_09h31.51.224,Colour_Asymmetry_Pilot,2022.1.3,Win32,60.22282445,62c50e9c1127f2cd403a315f,,,,,,,,,,,,,,,,,,,,,,,,,,,,,,,,,,,,,,,,,,,,,,,,,,,,,,,,,,,,,,,,,,,,,,,,,,,,,,,,,,,,,,,,,,,,,,,,,,,,,,,,,,,,,,,,,,,,,,,,,,,,,,,,,,,,,,,,,,,,,,,,,,,,,,,,,,,,,,,,,,,
0,5,5,31,1,,611d03b822d4c8e041ea0c32,62c53a3926bf6ce20ec814a1,2022-07-06_09h31.51.224,Colour_Asymmetry_Pilot,2022.1.3,Win32,60.22282445,62c50e9c1127f2cd403a315f,,,,,,,,,,,,,,,,,,,,,,,,,,,,,,,,,,,,,,,,,,,,,,,,,,,,,,,,,,,,,,,,,,,,,,,,,,,,,,,,,,,,,,,,,,,,,,,,,,,,,,,,,,,,,,,,,,,,,,,,,,,,,,,,,,,,,,,,,,,,,,,,,,,,,,,,,,,,,,,,,,,
0,6,6,43,1,,611d03b822d4c8e041ea0c32,62c53a3926bf6ce20ec814a1,2022-07-06_09h31.51.224,Colour_Asymmetry_Pilot,2022.1.3,Win32,60.22282445,62c50e9c1127f2cd403a315f,,,,,,,,,,,,,,,,,,,,,,,,,,,,,,,,,,,,,,,,,,,,,,,,,,,,,,,,,,,,,,,,,,,,,,,,,,,,,,,,,,,,,,,,,,,,,,,,,,,,,,,,,,,,,,,,,,,,,,,,,,,,,,,,,,,,,,,,,,,,,,,,,,,,,,,,,,,,,,,,,,,
0,7,7,9,1,,611d03b822d4c8e041ea0c32,62c53a3926bf6ce20ec814a1,2022-07-06_09h31.51.224,Colour_Asymmetry_Pilot,2022.1.3,Win32,60.22282445,62c50e9c1127f2cd403a315f,,,,,,,,,,,,,,,,,,,,,,,,,,,,,,,,,,,,,,,,,,,,,,,,,,,,,,,,,,,,,,,,,,,,,,,,,,,,,,,,,,,,,,,,,,,,,,,,,,,,,,,,,,,,,,,,,,,,,,,,,,,,,,,,,,,,,,,,,,,,,,,,,,,,,,,,,,,,,,,,,,,
0,8,8,61,1,,611d03b822d4c8e041ea0c32,62c53a3926bf6ce20ec814a1,2022-07-06_09h31.51.224,Colour_Asymmetry_Pilot,2022.1.3,Win32,60.22282445,62c50e9c1127f2cd403a315f,,,,,,,,,,,,,,,,,,,,,,,,,,,,,,,,,,,,,,,,,,,,,,,,,,,,,,,,,,,,,,,,,,,,,,,,,,,,,,,,,,,,,,,,,,,,,,,,,,,,,,,,,,,,,,,,,,,,,,,,,,,,,,,,,,,,,,,,,,,,,,,,,,,,,,,,,,,,,,,,,,,
0,9,9,63,1,,611d03b822d4c8e041ea0c32,62c53a3926bf6ce20ec814a1,2022-07-06_09h31.51.224,Colour_Asymmetry_Pilot,2022.1.3,Win32,60.22282445,62c50e9c1127f2cd403a315f,,,,,,,,,,,,,,,,,,,,,,,,,,,,,,,,,,,,,,,,,,,,,,,,,,,,,,,,,,,,,,,,,,,,,,,,,,,,,,,,,,,,,,,,,,,,,,,,,,,,,,,,,,,,,,,,,,,,,,,,,,,,,,,,,,,,,,,,,,,,,,,,,,,,,,,,,,,,,,,,,,,
0,10,10,7,1,,611d03b822d4c8e041ea0c32,62c53a3926bf6ce20ec814a1,2022-07-06_09h31.51.224,Colour_Asymmetry_Pilot,2022.1.3,Win32,60.22282445,62c50e9c1127f2cd403a315f,,,,,,,,,,,,,,,,,,,,,,,,,,,,,,,,,,,,,,,,,,,,,,,,,,,,,,,,,,,,,,,,,,,,,,,,,,,,,,,,,,,,,,,,,,,,,,,,,,,,,,,,,,,,,,,,,,,,,,,,,,,,,,,,,,,,,,,,,,,,,,,,,,,,,,,,,,,,,,,,,,,
0,11,11,49,1,,611d03b822d4c8e041ea0c32,62c53a3926bf6ce20ec814a1,2022-07-06_09h31.51.224,Colour_Asymmetry_Pilot,2022.1.3,Win32,60.22282445,62c50e9c1127f2cd403a315f,,,,,,,,,,,,,,,,,,,,,,,,,,,,,,,,,,,,,,,,,,,,,,,,,,,,,,,,,,,,,,,,,,,,,,,,,,,,,,,,,,,,,,,,,,,,,,,,,,,,,,,,,,,,,,,,,,,,,,,,,,,,,,,,,,,,,,,,,,,,,,,,,,,,,,,,,,,,,,,,,,,
0,12,12,56,1,,611d03b822d4c8e041ea0c32,62c53a3926bf6ce20ec814a1,2022-07-06_09h31.51.224,Colour_Asymmetry_Pilot,2022.1.3,Win32,60.22282445,62c50e9c1127f2cd403a315f,,,,,,,,,,,,,,,,,,,,,,,,,,,,,,,,,,,,,,,,,,,,,,,,,,,,,,,,,,,,,,,,,,,,,,,,,,,,,,,,,,,,,,,,,,,,,,,,,,,,,,,,,,,,,,,,,,,,,,,,,,,,,,,,,,,,,,,,,,,,,,,,,,,,,,,,,,,,,,,,,,,
0,13,13,26,1,,611d03b822d4c8e041ea0c32,62c53a3926bf6ce20ec814a1,2022-07-06_09h31.51.224,Colour_Asymmetry_Pilot,2022.1.3,Win32,60.22282445,62c50e9c1127f2cd403a315f,,,,,,,,,,,,,,,,,,,,,,,,,,,,,,,,,,,,,,,,,,,,,,,,,,,,,,,,,,,,,,,,,,,,,,,,,,,,,,,,,,,,,,,,,,,,,,,,,,,,,,,,,,,,,,,,,,,,,,,,,,,,,,,,,,,,,,,,,,,,,,,,,,,,,,,,,,,,,,,,,,,
0,14,14,2,1,,611d03b822d4c8e041ea0c32,62c53a3926bf6ce20ec814a1,2022-07-06_09h31.51.224,Colour_Asymmetry_Pilot,2022.1.3,Win32,60.22282445,62c50e9c1127f2cd403a315f,,,,,,,,,,,,,,,,,,,,,,,,,,,,,,,,,,,,,,,,,,,,,,,,,,,,,,,,,,,,,,,,,,,,,,,,,,,,,,,,,,,,,,,,,,,,,,,,,,,,,,,,,,,,,,,,,,,,,,,,,,,,,,,,,,,,,,,,,,,,,,,,,,,,,,,,,,,,,,,,,,,
0,15,15,68,1,,611d03b822d4c8e041ea0c32,62c53a3926bf6ce20ec814a1,2022-07-06_09h31.51.224,Colour_Asymmetry_Pilot,2022.1.3,Win32,60.22282445,62c50e9c1127f2cd403a315f,,,,,,,,,,,,,,,,,,,,,,,,,,,,,,,,,,,,,,,,,,,,,,,,,,,,,,,,,,,,,,,,,,,,,,,,,,,,,,,,,,,,,,,,,,,,,,,,,,,,,,,,,,,,,,,,,,,,,,,,,,,,,,,,,,,,,,,,,,,,,,,,,,,,,,,,,,,,,,,,,,,
0,16,16,92,1,,611d03b822d4c8e041ea0c32,62c53a3926bf6ce20ec814a1,2022-07-06_09h31.51.224,Colour_Asymmetry_Pilot,2022.1.3,Win32,60.22282445,62c50e9c1127f2cd403a315f,,,,,,,,,,,,,,,,,,,,,,,,,,,,,,,,,,,,,,,,,,,,,,,,,,,,,,,,,,,,,,,,,,,,,,,,,,,,,,,,,,,,,,,,,,,,,,,,,,,,,,,,,,,,,,,,,,,,,,,,,,,,,,,,,,,,,,,,,,,,,,,,,,,,,,,,,,,,,,,,,,,
0,17,17,24,1,,611d03b822d4c8e041ea0c32,62c53a3926bf6ce20ec814a1,2022-07-06_09h31.51.224,Colour_Asymmetry_Pilot,2022.1.3,Win32,60.22282445,62c50e9c1127f2cd403a315f,,,,,,,,,,,,,,,,,,,,,,,,,,,,,,,,,,,,,,,,,,,,,,,,,,,,,,,,,,,,,,,,,,,,,,,,,,,,,,,,,,,,,,,,,,,,,,,,,,,,,,,,,,,,,,,,,,,,,,,,,,,,,,,,,,,,,,,,,,,,,,,,,,,,,,,,,,,,,,,,,,,
0,18,18,65,1,,611d03b822d4c8e041ea0c32,62c53a3926bf6ce20ec814a1,2022-07-06_09h31.51.224,Colour_Asymmetry_Pilot,2022.1.3,Win32,60.22282445,62c50e9c1127f2cd403a315f,,,,,,,,,,,,,,,,,,,,,,,,,,,,,,,,,,,,,,,,,,,,,,,,,,,,,,,,,,,,,,,,,,,,,,,,,,,,,,,,,,,,,,,,,,,,,,,,,,,,,,,,,,,,,,,,,,,,,,,,,,,,,,,,,,,,,,,,,,,,,,,,,,,,,,,,,,,,,,,,,,,
0,19,19,8,1,,611d03b822d4c8e041ea0c32,62c53a3926bf6ce20ec814a1,2022-07-06_09h31.51.224,Colour_Asymmetry_Pilot,2022.1.3,Win32,60.22282445,62c50e9c1127f2cd403a315f,,,,,,,,,,,,,,,,,,,,,,,,,,,,,,,,,,,,,,,,,,,,,,,,,,,,,,,,,,,,,,,,,,,,,,,,,,,,,,,,,,,,,,,,,,,,,,,,,,,,,,,,,,,,,,,,,,,,,,,,,,,,,,,,,,,,,,,,,,,,,,,,,,,,,,,,,,,,,,,,,,,
0,20,20,88,1,,611d03b822d4c8e041ea0c32,62c53a3926bf6ce20ec814a1,2022-07-06_09h31.51.224,Colour_Asymmetry_Pilot,2022.1.3,Win32,60.22282445,62c50e9c1127f2cd403a315f,,,,,,,,,,,,,,,,,,,,,,,,,,,,,,,,,,,,,,,,,,,,,,,,,,,,,,,,,,,,,,,,,,,,,,,,,,,,,,,,,,,,,,,,,,,,,,,,,,,,,,,,,,,,,,,,,,,,,,,,,,,,,,,,,,,,,,,,,,,,,,,,,,,,,,,,,,,,,,,,,,,
0,21,21,83,1,,611d03b822d4c8e041ea0c32,62c53a3926bf6ce20ec814a1,2022-07-06_09h31.51.224,Colour_Asymmetry_Pilot,2022.1.3,Win32,60.22282445,62c50e9c1127f2cd403a315f,,,,,,,,,,,,,,,,,,,,,,,,,,,,,,,,,,,,,,,,,,,,,,,,,,,,,,,,,,,,,,,,,,,,,,,,,,,,,,,,,,,,,,,,,,,,,,,,,,,,,,,,,,,,,,,,,,,,,,,,,,,,,,,,,,,,,,,,,,,,,,,,,,,,,,,,,,,,,,,,,,,
0,22,22,36,1,,611d03b822d4c8e041ea0c32,62c53a3926bf6ce20ec814a1,2022-07-06_09h31.51.224,Colour_Asymmetry_Pilot,2022.1.3,Win32,60.22282445,62c50e9c1127f2cd403a315f,,,,,,,,,,,,,,,,,,,,,,,,,,,,,,,,,,,,,,,,,,,,,,,,,,,,,,,,,,,,,,,,,,,,,,,,,,,,,,,,,,,,,,,,,,,,,,,,,,,,,,,,,,,,,,,,,,,,,,,,,,,,,,,,,,,,,,,,,,,,,,,,,,,,,,,,,,,,,,,,,,,
0,23,23,59,1,,611d03b822d4c8e041ea0c32,62c53a3926bf6ce20ec814a1,2022-07-06_09h31.51.224,Colour_Asymmetry_Pilot,2022.1.3,Win32,60.22282445,62c50e9c1127f2cd403a315f,,,,,,,,,,,,,,,,,,,,,,,,,,,,,,,,,,,,,,,,,,,,,,,,,,,,,,,,,,,,,,,,,,,,,,,,,,,,,,,,,,,,,,,,,,,,,,,,,,,,,,,,,,,,,,,,,,,,,,,,,,,,,,,,,,,,,,,,,,,,,,,,,,,,,,,,,,,,,,,,,,,
0,24,24,40,1,,611d03b822d4c8e041ea0c32,62c53a3926bf6ce20ec814a1,2022-07-06_09h31.51.224,Colour_Asymmetry_Pilot,2022.1.3,Win32,60.22282445,62c50e9c1127f2cd403a315f,,,,,,,,,,,,,,,,,,,,,,,,,,,,,,,,,,,,,,,,,,,,,,,,,,,,,,,,,,,,,,,,,,,,,,,,,,,,,,,,,,,,,,,,,,,,,,,,,,,,,,,,,,,,,,,,,,,,,,,,,,,,,,,,,,,,,,,,,,,,,,,,,,,,,,,,,,,,,,,,,,,
0,25,25,79,1,,611d03b822d4c8e041ea0c32,62c53a3926bf6ce20ec814a1,2022-07-06_09h31.51.224,Colour_Asymmetry_Pilot,2022.1.3,Win32,60.22282445,62c50e9c1127f2cd403a315f,,,,,,,,,,,,,,,,,,,,,,,,,,,,,,,,,,,,,,,,,,,,,,,,,,,,,,,,,,,,,,,,,,,,,,,,,,,,,,,,,,,,,,,,,,,,,,,,,,,,,,,,,,,,,,,,,,,,,,,,,,,,,,,,,,,,,,,,,,,,,,,,,,,,,,,,,,,,,,,,,,,
0,26,26,15,1,,611d03b822d4c8e041ea0c32,62c53a3926bf6ce20ec814a1,2022-07-06_09h31.51.224,Colour_Asymmetry_Pilot,2022.1.3,Win32,60.22282445,62c50e9c1127f2cd403a315f,,,,,,,,,,,,,,,,,,,,,,,,,,,,,,,,,,,,,,,,,,,,,,,,,,,,,,,,,,,,,,,,,,,,,,,,,,,,,,,,,,,,,,,,,,,,,,,,,,,,,,,,,,,,,,,,,,,,,,,,,,,,,,,,,,,,,,,,,,,,,,,,,,,,,,,,,,,,,,,,,,,
0,27,27,28,1,,611d03b822d4c8e041ea0c32,62c53a3926bf6ce20ec814a1,2022-07-06_09h31.51.224,Colour_Asymmetry_Pilot,2022.1.3,Win32,60.22282445,62c50e9c1127f2cd403a315f,,,,,,,,,,,,,,,,,,,,,,,,,,,,,,,,,,,,,,,,,,,,,,,,,,,,,,,,,,,,,,,,,,,,,,,,,,,,,,,,,,,,,,,,,,,,,,,,,,,,,,,,,,,,,,,,,,,,,,,,,,,,,,,,,,,,,,,,,,,,,,,,,,,,,,,,,,,,,,,,,,,
0,28,28,58,1,,611d03b822d4c8e041ea0c32,62c53a3926bf6ce20ec814a1,2022-07-06_09h31.51.224,Colour_Asymmetry_Pilot,2022.1.3,Win32,60.22282445,62c50e9c1127f2cd403a315f,,,,,,,,,,,,,,,,,,,,,,,,,,,,,,,,,,,,,,,,,,,,,,,,,,,,,,,,,,,,,,,,,,,,,,,,,,,,,,,,,,,,,,,,,,,,,,,,,,,,,,,,,,,,,,,,,,,,,,,,,,,,,,,,,,,,,,,,,,,,,,,,,,,,,,,,,,,,,,,,,,,
0,29,29,85,1,,611d03b822d4c8e041ea0c32,62c53a3926bf6ce20ec814a1,2022-07-06_09h31.51.224,Colour_Asymmetry_Pilot,2022.1.3,Win32,60.22282445,62c50e9c1127f2cd403a315f,,,,,,,,,,,,,,,,,,,,,,,,,,,,,,,,,,,,,,,,,,,,,,,,,,,,,,,,,,,,,,,,,,,,,,,,,,,,,,,,,,,,,,,,,,,,,,,,,,,,,,,,,,,,,,,,,,,,,,,,,,,,,,,,,,,,,,,,,,,,,,,,,,,,,,,,,,,,,,,,,,,
0,30,30,30,1,,611d03b822d4c8e041ea0c32,62c53a3926bf6ce20ec814a1,2022-07-06_09h31.51.224,Colour_Asymmetry_Pilot,2022.1.3,Win32,60.22282445,62c50e9c1127f2cd403a315f,,,,,,,,,,,,,,,,,,,,,,,,,,,,,,,,,,,,,,,,,,,,,,,,,,,,,,,,,,,,,,,,,,,,,,,,,,,,,,,,,,,,,,,,,,,,,,,,,,,,,,,,,,,,,,,,,,,,,,,,,,,,,,,,,,,,,,,,,,,,,,,,,,,,,,,,,,,,,,,,,,,
0,31,31,90,1,,611d03b822d4c8e041ea0c32,62c53a3926bf6ce20ec814a1,2022-07-06_09h31.51.224,Colour_Asymmetry_Pilot,2022.1.3,Win32,60.22282445,62c50e9c1127f2cd403a315f,,,,,,,,,,,,,,,,,,,,,,,,,,,,,,,,,,,,,,,,,,,,,,,,,,,,,,,,,,,,,,,,,,,,,,,,,,,,,,,,,,,,,,,,,,,,,,,,,,,,,,,,,,,,,,,,,,,,,,,,,,,,,,,,,,,,,,,,,,,,,,,,,,,,,,,,,,,,,,,,,,,
0,32,32,33,1,,611d03b822d4c8e041ea0c32,62c53a3926bf6ce20ec814a1,2022-07-06_09h31.51.224,Colour_Asymmetry_Pilot,2022.1.3,Win32,60.22282445,62c50e9c1127f2cd403a315f,,,,,,,,,,,,,,,,,,,,,,,,,,,,,,,,,,,,,,,,,,,,,,,,,,,,,,,,,,,,,,,,,,,,,,,,,,,,,,,,,,,,,,,,,,,,,,,,,,,,,,,,,,,,,,,,,,,,,,,,,,,,,,,,,,,,,,,,,,,,,,,,,,,,,,,,,,,,,,,,,,,
0,33,33,34,1,,611d03b822d4c8e041ea0c32,62c53a3926bf6ce20ec814a1,2022-07-06_09h31.51.224,Colour_Asymmetry_Pilot,2022.1.3,Win32,60.22282445,62c50e9c1127f2cd403a315f,,,,,,,,,,,,,,,,,,,,,,,,,,,,,,,,,,,,,,,,,,,,,,,,,,,,,,,,,,,,,,,,,,,,,,,,,,,,,,,,,,,,,,,,,,,,,,,,,,,,,,,,,,,,,,,,,,,,,,,,,,,,,,,,,,,,,,,,,,,,,,,,,,,,,,,,,,,,,,,,,,,
0,34,34,5,1,,611d03b822d4c8e041ea0c32,62c53a3926bf6ce20ec814a1,2022-07-06_09h31.51.224,Colour_Asymmetry_Pilot,2022.1.3,Win32,60.22282445,62c50e9c1127f2cd403a315f,,,,,,,,,,,,,,,,,,,,,,,,,,,,,,,,,,,,,,,,,,,,,,,,,,,,,,,,,,,,,,,,,,,,,,,,,,,,,,,,,,,,,,,,,,,,,,,,,,,,,,,,,,,,,,,,,,,,,,,,,,,,,,,,,,,,,,,,,,,,,,,,,,,,,,,,,,,,,,,,,,,
0,35,35,45,1,,611d03b822d4c8e041ea0c32,62c53a3926bf6ce20ec814a1,2022-07-06_09h31.51.224,Colour_Asymmetry_Pilot,2022.1.3,Win32,60.22282445,62c50e9c1127f2cd403a315f,,,,,,,,,,,,,,,,,,,,,,,,,,,,,,,,,,,,,,,,,,,,,,,,,,,,,,,,,,,,,,,,,,,,,,,,,,,,,,,,,,,,,,,,,,,,,,,,,,,,,,,,,,,,,,,,,,,,,,,,,,,,,,,,,,,,,,,,,,,,,,,,,,,,,,,,,,,,,,,,,,,
0,36,36,39,1,,611d03b822d4c8e041ea0c32,62c53a3926bf6ce20ec814a1,2022-07-06_09h31.51.224,Colour_Asymmetry_Pilot,2022.1.3,Win32,60.22282445,62c50e9c1127f2cd403a315f,,,,,,,,,,,,,,,,,,,,,,,,,,,,,,,,,,,,,,,,,,,,,,,,,,,,,,,,,,,,,,,,,,,,,,,,,,,,,,,,,,,,,,,,,,,,,,,,,,,,,,,,,,,,,,,,,,,,,,,,,,,,,,,,,,,,,,,,,,,,,,,,,,,,,,,,,,,,,,,,,,,
0,37,37,70,1,,611d03b822d4c8e041ea0c32,62c53a3926bf6ce20ec814a1,2022-07-06_09h31.51.224,Colour_Asymmetry_Pilot,2022.1.3,Win32,60.22282445,62c50e9c1127f2cd403a315f,,,,,,,,,,,,,,,,,,,,,,,,,,,,,,,,,,,,,,,,,,,,,,,,,,,,,,,,,,,,,,,,,,,,,,,,,,,,,,,,,,,,,,,,,,,,,,,,,,,,,,,,,,,,,,,,,,,,,,,,,,,,,,,,,,,,,,,,,,,,,,,,,,,,,,,,,,,,,,,,,,,
0,38,38,48,1,,611d03b822d4c8e041ea0c32,62c53a3926bf6ce20ec814a1,2022-07-06_09h31.51.224,Colour_Asymmetry_Pilot,2022.1.3,Win32,60.22282445,62c50e9c1127f2cd403a315f,,,,,,,,,,,,,,,,,,,,,,,,,,,,,,,,,,,,,,,,,,,,,,,,,,,,,,,,,,,,,,,,,,,,,,,,,,,,,,,,,,,,,,,,,,,,,,,,,,,,,,,,,,,,,,,,,,,,,,,,,,,,,,,,,,,,,,,,,,,,,,,,,,,,,,,,,,,,,,,,,,,
0,39,39,23,1,,611d03b822d4c8e041ea0c32,62c53a3926bf6ce20ec814a1,2022-07-06_09h31.51.224,Colour_Asymmetry_Pilot,2022.1.3,Win32,60.22282445,62c50e9c1127f2cd403a315f,,,,,,,,,,,,,,,,,,,,,,,,,,,,,,,,,,,,,,,,,,,,,,,,,,,,,,,,,,,,,,,,,,,,,,,,,,,,,,,,,,,,,,,,,,,,,,,,,,,,,,,,,,,,,,,,,,,,,,,,,,,,,,,,,,,,,,,,,,,,,,,,,,,,,,,,,,,,,,,,,,,
0,40,40,81,1,,611d03b822d4c8e041ea0c32,62c53a3926bf6ce20ec814a1,2022-07-06_09h31.51.224,Colour_Asymmetry_Pilot,2022.1.3,Win32,60.22282445,62c50e9c1127f2cd403a315f,,,,,,,,,,,,,,,,,,,,,,,,,,,,,,,,,,,,,,,,,,,,,,,,,,,,,,,,,,,,,,,,,,,,,,,,,,,,,,,,,,,,,,,,,,,,,,,,,,,,,,,,,,,,,,,,,,,,,,,,,,,,,,,,,,,,,,,,,,,,,,,,,,,,,,,,,,,,,,,,,,,
0,41,41,51,1,,611d03b822d4c8e041ea0c32,62c53a3926bf6ce20ec814a1,2022-07-06_09h31.51.224,Colour_Asymmetry_Pilot,2022.1.3,Win32,60.22282445,62c50e9c1127f2cd403a315f,,,,,,,,,,,,,,,,,,,,,,,,,,,,,,,,,,,,,,,,,,,,,,,,,,,,,,,,,,,,,,,,,,,,,,,,,,,,,,,,,,,,,,,,,,,,,,,,,,,,,,,,,,,,,,,,,,,,,,,,,,,,,,,,,,,,,,,,,,,,,,,,,,,,,,,,,,,,,,,,,,,
0,42,42,37,1,,611d03b822d4c8e041ea0c32,62c53a3926bf6ce20ec814a1,2022-07-06_09h31.51.224,Colour_Asymmetry_Pilot,2022.1.3,Win32,60.22282445,62c50e9c1127f2cd403a315f,,,,,,,,,,,,,,,,,,,,,,,,,,,,,,,,,,,,,,,,,,,,,,,,,,,,,,,,,,,,,,,,,,,,,,,,,,,,,,,,,,,,,,,,,,,,,,,,,,,,,,,,,,,,,,,,,,,,,,,,,,,,,,,,,,,,,,,,,,,,,,,,,,,,,,,,,,,,,,,,,,,
0,43,43,12,1,,611d03b822d4c8e041ea0c32,62c53a3926bf6ce20ec814a1,2022-07-06_09h31.51.224,Colour_Asymmetry_Pilot,2022.1.3,Win32,60.22282445,62c50e9c1127f2cd403a315f,,,,,,,,,,,,,,,,,,,,,,,,,,,,,,,,,,,,,,,,,,,,,,,,,,,,,,,,,,,,,,,,,,,,,,,,,,,,,,,,,,,,,,,,,,,,,,,,,,,,,,,,,,,,,,,,,,,,,,,,,,,,,,,,,,,,,,,,,,,,,,,,,,,,,,,,,,,,,,,,,,,
0,44,44,22,1,,611d03b822d4c8e041ea0c32,62c53a3926bf6ce20ec814a1,2022-07-06_09h31.51.224,Colour_Asymmetry_Pilot,2022.1.3,Win32,60.22282445,62c50e9c1127f2cd403a315f,,,,,,,,,,,,,,,,,,,,,,,,,,,,,,,,,,,,,,,,,,,,,,,,,,,,,,,,,,,,,,,,,,,,,,,,,,,,,,,,,,,,,,,,,,,,,,,,,,,,,,,,,,,,,,,,,,,,,,,,,,,,,,,,,,,,,,,,,,,,,,,,,,,,,,,,,,,,,,,,,,,
0,45,45,35,1,,611d03b822d4c8e041ea0c32,62c53a3926bf6ce20ec814a1,2022-07-06_09h31.51.224,Colour_Asymmetry_Pilot,2022.1.3,Win32,60.22282445,62c50e9c1127f2cd403a315f,,,,,,,,,,,,,,,,,,,,,,,,,,,,,,,,,,,,,,,,,,,,,,,,,,,,,,,,,,,,,,,,,,,,,,,,,,,,,,,,,,,,,,,,,,,,,,,,,,,,,,,,,,,,,,,,,,,,,,,,,,,,,,,,,,,,,,,,,,,,,,,,,,,,,,,,,,,,,,,,,,,
0,46,46,38,1,,611d03b822d4c8e041ea0c32,62c53a3926bf6ce20ec814a1,2022-07-06_09h31.51.224,Colour_Asymmetry_Pilot,2022.1.3,Win32,60.22282445,62c50e9c1127f2cd403a315f,,,,,,,,,,,,,,,,,,,,,,,,,,,,,,,,,,,,,,,,,,,,,,,,,,,,,,,,,,,,,,,,,,,,,,,,,,,,,,,,,,,,,,,,,,,,,,,,,,,,,,,,,,,,,,,,,,,,,,,,,,,,,,,,,,,,,,,,,,,,,,,,,,,,,,,,,,,,,,,,,,,
0,47,47,11,1,,611d03b822d4c8e041ea0c32,62c53a3926bf6ce20ec814a1,2022-07-06_09h31.51.224,Colour_Asymmetry_Pilot,2022.1.3,Win32,60.22282445,62c50e9c1127f2cd403a315f,,,,,,,,,,,,,,,,,,,,,,,,,,,,,,,,,,,,,,,,,,,,,,,,,,,,,,,,,,,,,,,,,,,,,,,,,,,,,,,,,,,,,,,,,,,,,,,,,,,,,,,,,,,,,,,,,,,,,,,,,,,,,,,,,,,,,,,,,,,,,,,,,,,,,,,,,,,,,,,,,,,
0,48,48,76,1,,611d03b822d4c8e041ea0c32,62c53a3926bf6ce20ec814a1,2022-07-06_09h31.51.224,Colour_Asymmetry_Pilot,2022.1.3,Win32,60.22282445,62c50e9c1127f2cd403a315f,,,,,,,,,,,,,,,,,,,,,,,,,,,,,,,,,,,,,,,,,,,,,,,,,,,,,,,,,,,,,,,,,,,,,,,,,,,,,,,,,,,,,,,,,,,,,,,,,,,,,,,,,,,,,,,,,,,,,,,,,,,,,,,,,,,,,,,,,,,,,,,,,,,,,,,,,,,,,,,,,,,
0,49,49,74,1,,611d03b822d4c8e041ea0c32,62c53a3926bf6ce20ec814a1,2022-07-06_09h31.51.224,Colour_Asymmetry_Pilot,2022.1.3,Win32,60.22282445,62c50e9c1127f2cd403a315f,,,,,,,,,,,,,,,,,,,,,,,,,,,,,,,,,,,,,,,,,,,,,,,,,,,,,,,,,,,,,,,,,,,,,,,,,,,,,,,,,,,,,,,,,,,,,,,,,,,,,,,,,,,,,,,,,,,,,,,,,,,,,,,,,,,,,,,,,,,,,,,,,,,,,,,,,,,,,,,,,,,
0,50,50,13,1,,611d03b822d4c8e041ea0c32,62c53a3926bf6ce20ec814a1,2022-07-06_09h31.51.224,Colour_Asymmetry_Pilot,2022.1.3,Win32,60.22282445,62c50e9c1127f2cd403a315f,,,,,,,,,,,,,,,,,,,,,,,,,,,,,,,,,,,,,,,,,,,,,,,,,,,,,,,,,,,,,,,,,,,,,,,,,,,,,,,,,,,,,,,,,,,,,,,,,,,,,,,,,,,,,,,,,,,,,,,,,,,,,,,,,,,,,,,,,,,,,,,,,,,,,,,,,,,,,,,,,,,
0,51,51,91,1,,611d03b822d4c8e041ea0c32,62c53a3926bf6ce20ec814a1,2022-07-06_09h31.51.224,Colour_Asymmetry_Pilot,2022.1.3,Win32,60.22282445,62c50e9c1127f2cd403a315f,,,,,,,,,,,,,,,,,,,,,,,,,,,,,,,,,,,,,,,,,,,,,,,,,,,,,,,,,,,,,,,,,,,,,,,,,,,,,,,,,,,,,,,,,,,,,,,,,,,,,,,,,,,,,,,,,,,,,,,,,,,,,,,,,,,,,,,,,,,,,,,,,,,,,,,,,,,,,,,,,,,
0,52,52,77,1,,611d03b822d4c8e041ea0c32,62c53a3926bf6ce20ec814a1,2022-07-06_09h31.51.224,Colour_Asymmetry_Pilot,2022.1.3,Win32,60.22282445,62c50e9c1127f2cd403a315f,,,,,,,,,,,,,,,,,,,,,,,,,,,,,,,,,,,,,,,,,,,,,,,,,,,,,,,,,,,,,,,,,,,,,,,,,,,,,,,,,,,,,,,,,,,,,,,,,,,,,,,,,,,,,,,,,,,,,,,,,,,,,,,,,,,,,,,,,,,,,,,,,,,,,,,,,,,,,,,,,,,
0,53,53,25,1,,611d03b822d4c8e041ea0c32,62c53a3926bf6ce20ec814a1,2022-07-06_09h31.51.224,Colour_Asymmetry_Pilot,2022.1.3,Win32,60.22282445,62c50e9c1127f2cd403a315f,,,,,,,,,,,,,,,,,,,,,,,,,,,,,,,,,,,,,,,,,,,,,,,,,,,,,,,,,,,,,,,,,,,,,,,,,,,,,,,,,,,,,,,,,,,,,,,,,,,,,,,,,,,,,,,,,,,,,,,,,,,,,,,,,,,,,,,,,,,,,,,,,,,,,,,,,,,,,,,,,,,
0,54,54,21,1,,611d03b822d4c8e041ea0c32,62c53a3926bf6ce20ec814a1,2022-07-06_09h31.51.224,Colour_Asymmetry_Pilot,2022.1.3,Win32,60.22282445,62c50e9c1127f2cd403a315f,,,,,,,,,,,,,,,,,,,,,,,,,,,,,,,,,,,,,,,,,,,,,,,,,,,,,,,,,,,,,,,,,,,,,,,,,,,,,,,,,,,,,,,,,,,,,,,,,,,,,,,,,,,,,,,,,,,,,,,,,,,,,,,,,,,,,,,,,,,,,,,,,,,,,,,,,,,,,,,,,,,
0,55,55,17,1,,611d03b822d4c8e041ea0c32,62c53a3926bf6ce20ec814a1,2022-07-06_09h31.51.224,Colour_Asymmetry_Pilot,2022.1.3,Win32,60.22282445,62c50e9c1127f2cd403a315f,,,,,,,,,,,,,,,,,,,,,,,,,,,,,,,,,,,,,,,,,,,,,,,,,,,,,,,,,,,,,,,,,,,,,,,,,,,,,,,,,,,,,,,,,,,,,,,,,,,,,,,,,,,,,,,,,,,,,,,,,,,,,,,,,,,,,,,,,,,,,,,,,,,,,,,,,,,,,,,,,,,
0,56,56,14,1,,611d03b822d4c8e041ea0c32,62c53a3926bf6ce20ec814a1,2022-07-06_09h31.51.224,Colour_Asymmetry_Pilot,2022.1.3,Win32,60.22282445,62c50e9c1127f2cd403a315f,,,,,,,,,,,,,,,,,,,,,,,,,,,,,,,,,,,,,,,,,,,,,,,,,,,,,,,,,,,,,,,,,,,,,,,,,,,,,,,,,,,,,,,,,,,,,,,,,,,,,,,,,,,,,,,,,,,,,,,,,,,,,,,,,,,,,,,,,,,,,,,,,,,,,,,,,,,,,,,,,,,
0,57,57,19,1,,611d03b822d4c8e041ea0c32,62c53a3926bf6ce20ec814a1,2022-07-06_09h31.51.224,Colour_Asymmetry_Pilot,2022.1.3,Win32,60.22282445,62c50e9c1127f2cd403a315f,,,,,,,,,,,,,,,,,,,,,,,,,,,,,,,,,,,,,,,,,,,,,,,,,,,,,,,,,,,,,,,,,,,,,,,,,,,,,,,,,,,,,,,,,,,,,,,,,,,,,,,,,,,,,,,,,,,,,,,,,,,,,,,,,,,,,,,,,,,,,,,,,,,,,,,,,,,,,,,,,,,
0,58,58,55,1,,611d03b822d4c8e041ea0c32,62c53a3926bf6ce20ec814a1,2022-07-06_09h31.51.224,Colour_Asymmetry_Pilot,2022.1.3,Win32,60.22282445,62c50e9c1127f2cd403a315f,,,,,,,,,,,,,,,,,,,,,,,,,,,,,,,,,,,,,,,,,,,,,,,,,,,,,,,,,,,,,,,,,,,,,,,,,,,,,,,,,,,,,,,,,,,,,,,,,,,,,,,,,,,,,,,,,,,,,,,,,,,,,,,,,,,,,,,,,,,,,,,,,,,,,,,,,,,,,,,,,,,
0,59,59,10,1,,611d03b822d4c8e041ea0c32,62c53a3926bf6ce20ec814a1,2022-07-06_09h31.51.224,Colour_Asymmetry_Pilot,2022.1.3,Win32,60.22282445,62c50e9c1127f2cd403a315f,,,,,,,,,,,,,,,,,,,,,,,,,,,,,,,,,,,,,,,,,,,,,,,,,,,,,,,,,,,,,,,,,,,,,,,,,,,,,,,,,,,,,,,,,,,,,,,,,,,,,,,,,,,,,,,,,,,,,,,,,,,,,,,,,,,,,,,,,,,,,,,,,,,,,,,,,,,,,,,,,,,
0,60,60,54,1,,611d03b822d4c8e041ea0c32,62c53a3926bf6ce20ec814a1,2022-07-06_09h31.51.224,Colour_Asymmetry_Pilot,2022.1.3,Win32,60.22282445,62c50e9c1127f2cd403a315f,,,,,,,,,,,,,,,,,,,,,,,,,,,,,,,,,,,,,,,,,,,,,,,,,,,,,,,,,,,,,,,,,,,,,,,,,,,,,,,,,,,,,,,,,,,,,,,,,,,,,,,,,,,,,,,,,,,,,,,,,,,,,,,,,,,,,,,,,,,,,,,,,,,,,,,,,,,,,,,,,,,
0,61,61,69,1,,611d03b822d4c8e041ea0c32,62c53a3926bf6ce20ec814a1,2022-07-06_09h31.51.224,Colour_Asymmetry_Pilot,2022.1.3,Win32,60.22282445,62c50e9c1127f2cd403a315f,,,,,,,,,,,,,,,,,,,,,,,,,,,,,,,,,,,,,,,,,,,,,,,,,,,,,,,,,,,,,,,,,,,,,,,,,,,,,,,,,,,,,,,,,,,,,,,,,,,,,,,,,,,,,,,,,,,,,,,,,,,,,,,,,,,,,,,,,,,,,,,,,,,,,,,,,,,,,,,,,,,
0,62,62,89,1,,611d03b822d4c8e041ea0c32,62c53a3926bf6ce20ec814a1,2022-07-06_09h31.51.224,Colour_Asymmetry_Pilot,2022.1.3,Win32,60.22282445,62c50e9c1127f2cd403a315f,,,,,,,,,,,,,,,,,,,,,,,,,,,,,,,,,,,,,,,,,,,,,,,,,,,,,,,,,,,,,,,,,,,,,,,,,,,,,,,,,,,,,,,,,,,,,,,,,,,,,,,,,,,,,,,,,,,,,,,,,,,,,,,,,,,,,,,,,,,,,,,,,,,,,,,,,,,,,,,,,,,
0,63,63,53,1,,611d03b822d4c8e041ea0c32,62c53a3926bf6ce20ec814a1,2022-07-06_09h31.51.224,Colour_Asymmetry_Pilot,2022.1.3,Win32,60.22282445,62c50e9c1127f2cd403a315f,,,,,,,,,,,,,,,,,,,,,,,,,,,,,,,,,,,,,,,,,,,,,,,,,,,,,,,,,,,,,,,,,,,,,,,,,,,,,,,,,,,,,,,,,,,,,,,,,,,,,,,,,,,,,,,,,,,,,,,,,,,,,,,,,,,,,,,,,,,,,,,,,,,,,,,,,,,,,,,,,,,
0,64,64,6,1,,611d03b822d4c8e041ea0c32,62c53a3926bf6ce20ec814a1,2022-07-06_09h31.51.224,Colour_Asymmetry_Pilot,2022.1.3,Win32,60.22282445,62c50e9c1127f2cd403a315f,,,,,,,,,,,,,,,,,,,,,,,,,,,,,,,,,,,,,,,,,,,,,,,,,,,,,,,,,,,,,,,,,,,,,,,,,,,,,,,,,,,,,,,,,,,,,,,,,,,,,,,,,,,,,,,,,,,,,,,,,,,,,,,,,,,,,,,,,,,,,,,,,,,,,,,,,,,,,,,,,,,
0,65,65,47,1,,611d03b822d4c8e041ea0c32,62c53a3926bf6ce20ec814a1,2022-07-06_09h31.51.224,Colour_Asymmetry_Pilot,2022.1.3,Win32,60.22282445,62c50e9c1127f2cd403a315f,,,,,,,,,,,,,,,,,,,,,,,,,,,,,,,,,,,,,,,,,,,,,,,,,,,,,,,,,,,,,,,,,,,,,,,,,,,,,,,,,,,,,,,,,,,,,,,,,,,,,,,,,,,,,,,,,,,,,,,,,,,,,,,,,,,,,,,,,,,,,,,,,,,,,,,,,,,,,,,,,,,
0,66,66,67,1,,611d03b822d4c8e041ea0c32,62c53a3926bf6ce20ec814a1,2022-07-06_09h31.51.224,Colour_Asymmetry_Pilot,2022.1.3,Win32,60.22282445,62c50e9c1127f2cd403a315f,,,,,,,,,,,,,,,,,,,,,,,,,,,,,,,,,,,,,,,,,,,,,,,,,,,,,,,,,,,,,,,,,,,,,,,,,,,,,,,,,,,,,,,,,,,,,,,,,,,,,,,,,,,,,,,,,,,,,,,,,,,,,,,,,,,,,,,,,,,,,,,,,,,,,,,,,,,,,,,,,,,
0,67,67,46,1,,611d03b822d4c8e041ea0c32,62c53a3926bf6ce20ec814a1,2022-07-06_09h31.51.224,Colour_Asymmetry_Pilot,2022.1.3,Win32,60.22282445,62c50e9c1127f2cd403a315f,,,,,,,,,,,,,,,,,,,,,,,,,,,,,,,,,,,,,,,,,,,,,,,,,,,,,,,,,,,,,,,,,,,,,,,,,,,,,,,,,,,,,,,,,,,,,,,,,,,,,,,,,,,,,,,,,,,,,,,,,,,,,,,,,,,,,,,,,,,,,,,,,,,,,,,,,,,,,,,,,,,
0,68,68,29,1,,611d03b822d4c8e041ea0c32,62c53a3926bf6ce20ec814a1,2022-07-06_09h31.51.224,Colour_Asymmetry_Pilot,2022.1.3,Win32,60.22282445,62c50e9c1127f2cd403a315f,,,,,,,,,,,,,,,,,,,,,,,,,,,,,,,,,,,,,,,,,,,,,,,,,,,,,,,,,,,,,,,,,,,,,,,,,,,,,,,,,,,,,,,,,,,,,,,,,,,,,,,,,,,,,,,,,,,,,,,,,,,,,,,,,,,,,,,,,,,,,,,,,,,,,,,,,,,,,,,,,,,
0,69,69,84,1,,611d03b822d4c8e041ea0c32,62c53a3926bf6ce20ec814a1,2022-07-06_09h31.51.224,Colour_Asymmetry_Pilot,2022.1.3,Win32,60.22282445,62c50e9c1127f2cd403a315f,,,,,,,,,,,,,,,,,,,,,,,,,,,,,,,,,,,,,,,,,,,,,,,,,,,,,,,,,,,,,,,,,,,,,,,,,,,,,,,,,,,,,,,,,,,,,,,,,,,,,,,,,,,,,,,,,,,,,,,,,,,,,,,,,,,,,,,,,,,,,,,,,,,,,,,,,,,,,,,,,,,
0,70,70,57,1,,611d03b822d4c8e041ea0c32,62c53a3926bf6ce20ec814a1,2022-07-06_09h31.51.224,Colour_Asymmetry_Pilot,2022.1.3,Win32,60.22282445,62c50e9c1127f2cd403a315f,,,,,,,,,,,,,,,,,,,,,,,,,,,,,,,,,,,,,,,,,,,,,,,,,,,,,,,,,,,,,,,,,,,,,,,,,,,,,,,,,,,,,,,,,,,,,,,,,,,,,,,,,,,,,,,,,,,,,,,,,,,,,,,,,,,,,,,,,,,,,,,,,,,,,,,,,,,,,,,,,,,
0,71,71,87,1,,611d03b822d4c8e041ea0c32,62c53a3926bf6ce20ec814a1,2022-07-06_09h31.51.224,Colour_Asymmetry_Pilot,2022.1.3,Win32,60.22282445,62c50e9c1127f2cd403a315f,,,,,,,,,,,,,,,,,,,,,,,,,,,,,,,,,,,,,,,,,,,,,,,,,,,,,,,,,,,,,,,,,,,,,,,,,,,,,,,,,,,,,,,,,,,,,,,,,,,,,,,,,,,,,,,,,,,,,,,,,,,,,,,,,,,,,,,,,,,,,,,,,,,,,,,,,,,,,,,,,,,
0,72,72,71,1,,611d03b822d4c8e041ea0c32,62c53a3926bf6ce20ec814a1,2022-07-06_09h31.51.224,Colour_Asymmetry_Pilot,2022.1.3,Win32,60.22282445,62c50e9c1127f2cd403a315f,,,,,,,,,,,,,,,,,,,,,,,,,,,,,,,,,,,,,,,,,,,,,,,,,,,,,,,,,,,,,,,,,,,,,,,,,,,,,,,,,,,,,,,,,,,,,,,,,,,,,,,,,,,,,,,,,,,,,,,,,,,,,,,,,,,,,,,,,,,,,,,,,,,,,,,,,,,,,,,,,,,
0,73,73,62,1,,611d03b822d4c8e041ea0c32,62c53a3926bf6ce20ec814a1,2022-07-06_09h31.51.224,Colour_Asymmetry_Pilot,2022.1.3,Win32,60.22282445,62c50e9c1127f2cd403a315f,,,,,,,,,,,,,,,,,,,,,,,,,,,,,,,,,,,,,,,,,,,,,,,,,,,,,,,,,,,,,,,,,,,,,,,,,,,,,,,,,,,,,,,,,,,,,,,,,,,,,,,,,,,,,,,,,,,,,,,,,,,,,,,,,,,,,,,,,,,,,,,,,,,,,,,,,,,,,,,,,,,
0,74,74,0,1,,611d03b822d4c8e041ea0c32,62c53a3926bf6ce20ec814a1,2022-07-06_09h31.51.224,Colour_Asymmetry_Pilot,2022.1.3,Win32,60.22282445,62c50e9c1127f2cd403a315f,,,,,,,,,,,,,,,,,,,,,,,,,,,,,,,,,,,,,,,,,,,,,,,,,,,,,,,,,,,,,,,,,,,,,,,,,,,,,,,,,,,,,,,,,,,,,,,,,,,,,,,,,,,,,,,,,,,,,,,,,,,,,,,,,,,,,,,,,,,,,,,,,,,,,,,,,,,,,,,,,,,
0,75,75,52,1,,611d03b822d4c8e041ea0c32,62c53a3926bf6ce20ec814a1,2022-07-06_09h31.51.224,Colour_Asymmetry_Pilot,2022.1.3,Win32,60.22282445,62c50e9c1127f2cd403a315f,,,,,,,,,,,,,,,,,,,,,,,,,,,,,,,,,,,,,,,,,,,,,,,,,,,,,,,,,,,,,,,,,,,,,,,,,,,,,,,,,,,,,,,,,,,,,,,,,,,,,,,,,,,,,,,,,,,,,,,,,,,,,,,,,,,,,,,,,,,,,,,,,,,,,,,,,,,,,,,,,,,
0,76,76,75,1,,611d03b822d4c8e041ea0c32,62c53a3926bf6ce20ec814a1,2022-07-06_09h31.51.224,Colour_Asymmetry_Pilot,2022.1.3,Win32,60.22282445,62c50e9c1127f2cd403a315f,,,,,,,,,,,,,,,,,,,,,,,,,,,,,,,,,,,,,,,,,,,,,,,,,,,,,,,,,,,,,,,,,,,,,,,,,,,,,,,,,,,,,,,,,,,,,,,,,,,,,,,,,,,,,,,,,,,,,,,,,,,,,,,,,,,,,,,,,,,,,,,,,,,,,,,,,,,,,,,,,,,
0,77,77,1,1,,611d03b822d4c8e041ea0c32,62c53a3926bf6ce20ec814a1,2022-07-06_09h31.51.224,Colour_Asymmetry_Pilot,2022.1.3,Win32,60.22282445,62c50e9c1127f2cd403a315f,,,,,,,,,,,,,,,,,,,,,,,,,,,,,,,,,,,,,,,,,,,,,,,,,,,,,,,,,,,,,,,,,,,,,,,,,,,,,,,,,,,,,,,,,,,,,,,,,,,,,,,,,,,,,,,,,,,,,,,,,,,,,,,,,,,,,,,,,,,,,,,,,,,,,,,,,,,,,,,,,,,
0,78,78,44,1,,611d03b822d4c8e041ea0c32,62c53a3926bf6ce20ec814a1,2022-07-06_09h31.51.224,Colour_Asymmetry_Pilot,2022.1.3,Win32,60.22282445,62c50e9c1127f2cd403a315f,,,,,,,,,,,,,,,,,,,,,,,,,,,,,,,,,,,,,,,,,,,,,,,,,,,,,,,,,,,,,,,,,,,,,,,,,,,,,,,,,,,,,,,,,,,,,,,,,,,,,,,,,,,,,,,,,,,,,,,,,,,,,,,,,,,,,,,,,,,,,,,,,,,,,,,,,,,,,,,,,,,
0,79,79,72,1,,611d03b822d4c8e041ea0c32,62c53a3926bf6ce20ec814a1,2022-07-06_09h31.51.224,Colour_Asymmetry_Pilot,2022.1.3,Win32,60.22282445,62c50e9c1127f2cd403a315f,,,,,,,,,,,,,,,,,,,,,,,,,,,,,,,,,,,,,,,,,,,,,,,,,,,,,,,,,,,,,,,,,,,,,,,,,,,,,,,,,,,,,,,,,,,,,,,,,,,,,,,,,,,,,,,,,,,,,,,,,,,,,,,,,,,,,,,,,,,,,,,,,,,,,,,,,,,,,,,,,,,
0,80,80,16,1,,611d03b822d4c8e041ea0c32,62c53a3926bf6ce20ec814a1,2022-07-06_09h31.51.224,Colour_Asymmetry_Pilot,2022.1.3,Win32,60.22282445,62c50e9c1127f2cd403a315f,,,,,,,,,,,,,,,,,,,,,,,,,,,,,,,,,,,,,,,,,,,,,,,,,,,,,,,,,,,,,,,,,,,,,,,,,,,,,,,,,,,,,,,,,,,,,,,,,,,,,,,,,,,,,,,,,,,,,,,,,,,,,,,,,,,,,,,,,,,,,,,,,,,,,,,,,,,,,,,,,,,
0,81,81,78,1,,611d03b822d4c8e041ea0c32,62c53a3926bf6ce20ec814a1,2022-07-06_09h31.51.224,Colour_Asymmetry_Pilot,2022.1.3,Win32,60.22282445,62c50e9c1127f2cd403a315f,,,,,,,,,,,,,,,,,,,,,,,,,,,,,,,,,,,,,,,,,,,,,,,,,,,,,,,,,,,,,,,,,,,,,,,,,,,,,,,,,,,,,,,,,,,,,,,,,,,,,,,,,,,,,,,,,,,,,,,,,,,,,,,,,,,,,,,,,,,,,,,,,,,,,,,,,,,,,,,,,,,
0,82,82,3,1,,611d03b822d4c8e041ea0c32,62c53a3926bf6ce20ec814a1,2022-07-06_09h31.51.224,Colour_Asymmetry_Pilot,2022.1.3,Win32,60.22282445,62c50e9c1127f2cd403a315f,,,,,,,,,,,,,,,,,,,,,,,,,,,,,,,,,,,,,,,,,,,,,,,,,,,,,,,,,,,,,,,,,,,,,,,,,,,,,,,,,,,,,,,,,,,,,,,,,,,,,,,,,,,,,,,,,,,,,,,,,,,,,,,,,,,,,,,,,,,,,,,,,,,,,,,,,,,,,,,,,,,
0,83,83,64,1,,611d03b822d4c8e041ea0c32,62c53a3926bf6ce20ec814a1,2022-07-06_09h31.51.224,Colour_Asymmetry_Pilot,2022.1.3,Win32,60.22282445,62c50e9c1127f2cd403a315f,,,,,,,,,,,,,,,,,,,,,,,,,,,,,,,,,,,,,,,,,,,,,,,,,,,,,,,,,,,,,,,,,,,,,,,,,,,,,,,,,,,,,,,,,,,,,,,,,,,,,,,,,,,,,,,,,,,,,,,,,,,,,,,,,,,,,,,,,,,,,,,,,,,,,,,,,,,,,,,,,,,
0,84,84,41,1,,611d03b822d4c8e041ea0c32,62c53a3926bf6ce20ec814a1,2022-07-06_09h31.51.224,Colour_Asymmetry_Pilot,2022.1.3,Win32,60.22282445,62c50e9c1127f2cd403a315f,,,,,,,,,,,,,,,,,,,,,,,,,,,,,,,,,,,,,,,,,,,,,,,,,,,,,,,,,,,,,,,,,,,,,,,,,,,,,,,,,,,,,,,,,,,,,,,,,,,,,,,,,,,,,,,,,,,,,,,,,,,,,,,,,,,,,,,,,,,,,,,,,,,,,,,,,,,,,,,,,,,
0,85,85,32,1,,611d03b822d4c8e041ea0c32,62c53a3926bf6ce20ec814a1,2022-07-06_09h31.51.224,Colour_Asymmetry_Pilot,2022.1.3,Win32,60.22282445,62c50e9c1127f2cd403a315f,,,,,,,,,,,,,,,,,,,,,,,,,,,,,,,,,,,,,,,,,,,,,,,,,,,,,,,,,,,,,,,,,,,,,,,,,,,,,,,,,,,,,,,,,,,,,,,,,,,,,,,,,,,,,,,,,,,,,,,,,,,,,,,,,,,,,,,,,,,,,,,,,,,,,,,,,,,,,,,,,,,
0,86,86,80,1,,611d03b822d4c8e041ea0c32,62c53a3926bf6ce20ec814a1,2022-07-06_09h31.51.224,Colour_Asymmetry_Pilot,2022.1.3,Win32,60.22282445,62c50e9c1127f2cd403a315f,,,,,,,,,,,,,,,,,,,,,,,,,,,,,,,,,,,,,,,,,,,,,,,,,,,,,,,,,,,,,,,,,,,,,,,,,,,,,,,,,,,,,,,,,,,,,,,,,,,,,,,,,,,,,,,,,,,,,,,,,,,,,,,,,,,,,,,,,,,,,,,,,,,,,,,,,,,,,,,,,,,
0,87,87,82,1,,611d03b822d4c8e041ea0c32,62c53a3926bf6ce20ec814a1,2022-07-06_09h31.51.224,Colour_Asymmetry_Pilot,2022.1.3,Win32,60.22282445,62c50e9c1127f2cd403a315f,,,,,,,,,,,,,,,,,,,,,,,,,,,,,,,,,,,,,,,,,,,,,,,,,,,,,,,,,,,,,,,,,,,,,,,,,,,,,,,,,,,,,,,,,,,,,,,,,,,,,,,,,,,,,,,,,,,,,,,,,,,,,,,,,,,,,,,,,,,,,,,,,,,,,,,,,,,,,,,,,,,
0,88,88,73,1,,611d03b822d4c8e041ea0c32,62c53a3926bf6ce20ec814a1,2022-07-06_09h31.51.224,Colour_Asymmetry_Pilot,2022.1.3,Win32,60.22282445,62c50e9c1127f2cd403a315f,,,,,,,,,,,,,,,,,,,,,,,,,,,,,,,,,,,,,,,,,,,,,,,,,,,,,,,,,,,,,,,,,,,,,,,,,,,,,,,,,,,,,,,,,,,,,,,,,,,,,,,,,,,,,,,,,,,,,,,,,,,,,,,,,,,,,,,,,,,,,,,,,,,,,,,,,,,,,,,,,,,
0,89,89,42,1,,611d03b822d4c8e041ea0c32,62c53a3926bf6ce20ec814a1,2022-07-06_09h31.51.224,Colour_Asymmetry_Pilot,2022.1.3,Win32,60.22282445,62c50e9c1127f2cd403a315f,,,,,,,,,,,,,,,,,,,,,,,,,,,,,,,,,,,,,,,,,,,,,,,,,,,,,,,,,,,,,,,,,,,,,,,,,,,,,,,,,,,,,,,,,,,,,,,,,,,,,,,,,,,,,,,,,,,,,,,,,,,,,,,,,,,,,,,,,,,,,,,,,,,,,,,,,,,,,,,,,,,
0,90,90,66,1,,611d03b822d4c8e041ea0c32,62c53a3926bf6ce20ec814a1,2022-07-06_09h31.51.224,Colour_Asymmetry_Pilot,2022.1.3,Win32,60.22282445,62c50e9c1127f2cd403a315f,,,,,,,,,,,,,,,,,,,,,,,,,,,,,,,,,,,,,,,,,,,,,,,,,,,,,,,,,,,,,,,,,,,,,,,,,,,,,,,,,,,,,,,,,,,,,,,,,,,,,,,,,,,,,,,,,,,,,,,,,,,,,,,,,,,,,,,,,,,,,,,,,,,,,,,,,,,,,,,,,,,
0,91,91,27,1,,611d03b822d4c8e041ea0c32,62c53a3926bf6ce20ec814a1,2022-07-06_09h31.51.224,Colour_Asymmetry_Pilot,2022.1.3,Win32,60.22282445,62c50e9c1127f2cd403a315f,,,,,,,,,,,,,,,,,,,,,,,,,,,,,,,,,,,,,,,,,,,,,,,,,,,,,,,,,,,,,,,,,,,,,,,,,,,,,,,,,,,,,,,,,,,,,,,,,,,,,,,,,,,,,,,,,,,,,,,,,,,,,,,,,,,,,,,,,,,,,,,,,,,,,,,,,,,,,,,,,,,
0,92,92,18,1,,611d03b822d4c8e041ea0c32,62c53a3926bf6ce20ec814a1,2022-07-06_09h31.51.224,Colour_Asymmetry_Pilot,2022.1.3,Win32,60.22282445,62c50e9c1127f2cd403a315f,,,,,,,,,,,,,,,,,,,,,,,,,,,,,,,,,,,,,,,,,,,,,,,,,,,,,,,,,,,,,,,,,,,,,,,,,,,,,,,,,,,,,,,,,,,,,,,,,,,,,,,,,,,,,,,,,,,,,,,,,,,,,,,,,,,,,,,,,,,,,,,,,,,,,,,,,,,,,,,,,,,
,,,,,,611d03b822d4c8e041ea0c32,62c53a3926bf6ce20ec814a1,2022-07-06_09h31.51.224,Colour_Asymmetry_Pilot,2022.1.3,Win32,60.22282445,62c50e9c1127f2cd403a315f,0,0,0,40,1,onetwo,,,,,,,,,,,,,,,,,,,,,,,,,,,,,,,,,,,,,,,,,,,,,,,,,,,,,,,,,,,,,,,,,,,,,,,,,,,,,,,,,,,,,,,,,,,,,,,,,,,,,,,,,,,,,,,,,,,,,,,,,,,,,,,,,,,,,,,,,,,,,,,,,,,,,,,,,,,,,
,,,,,,611d03b822d4c8e041ea0c32,62c53a3926bf6ce20ec814a1,2022-07-06_09h31.51.224,Colour_Asymmetry_Pilot,2022.1.3,Win32,60.22282445,62c50e9c1127f2cd403a315f,0,1,1,91,1,twofour,,,,,,,,,,,,,,,,,,,,,,,,,,,,,,,,,,,,,,,,,,,,,,,,,,,,,,,,,,,,,,,,,,,,,,,,,,,,,,,,,,,,,,,,,,,,,,,,,,,,,,,,,,,,,,,,,,,,,,,,,,,,,,,,,,,,,,,,,,,,,,,,,,,,,,,,,,,,,
,,,,,,611d03b822d4c8e041ea0c32,62c53a3926bf6ce20ec814a1,2022-07-06_09h31.51.224,Colour_Asymmetry_Pilot,2022.1.3,Win32,60.22282445,62c50e9c1127f2cd403a315f,0,2,2,142,1,fourtwo,,,,,,,,,,,,,,,,,,,,,,,,,,,,,,,,,,,,,,,,,,,,,,,,,,,,,,,,,,,,,,,,,,,,,,,,,,,,,,,,,,,,,,,,,,,,,,,,,,,,,,,,,,,,,,,,,,,,,,,,,,,,,,,,,,,,,,,,,,,,,,,,,,,,,,,,,,,,,
,,,,,,611d03b822d4c8e041ea0c32,62c53a3926bf6ce20ec814a1,2022-07-06_09h31.51.224,Colour_Asymmetry_Pilot,2022.1.3,Win32,60.22282445,62c50e9c1127f2cd403a315f,0,3,3,43,1,twofour,,,,,,,,,,,,,,,,,,,,,,,,,,,,,,,,,,,,,,,,,,,,,,,,,,,,,,,,,,,,,,,,,,,,,,,,,,,,,,,,,,,,,,,,,,,,,,,,,,,,,,,,,,,,,,,,,,,,,,,,,,,,,,,,,,,,,,,,,,,,,,,,,,,,,,,,,,,,,
,,,,,,611d03b822d4c8e041ea0c32,62c53a3926bf6ce20ec814a1,2022-07-06_09h31.51.224,Colour_Asymmetry_Pilot,2022.1.3,Win32,60.22282445,62c50e9c1127f2cd403a315f,0,4,4,86,1,fourtwo,,,,,,,,,,,,,,,,,,,,,,,,,,,,,,,,,,,,,,,,,,,,,,,,,,,,,,,,,,,,,,,,,,,,,,,,,,,,,,,,,,,,,,,,,,,,,,,,,,,,,,,,,,,,,,,,,,,,,,,,,,,,,,,,,,,,,,,,,,,,,,,,,,,,,,,,,,,,,
,,,,,,611d03b822d4c8e041ea0c32,62c53a3926bf6ce20ec814a1,2022-07-06_09h31.51.224,Colour_Asymmetry_Pilot,2022.1.3,Win32,60.22282445,62c50e9c1127f2cd403a315f,0,5,5,78,1,fourtwo,,,,,,,,,,,,,,,,,,,,,,,,,,,,,,,,,,,,,,,,,,,,,,,,,,,,,,,,,,,,,,,,,,,,,,,,,,,,,,,,,,,,,,,,,,,,,,,,,,,,,,,,,,,,,,,,,,,,,,,,,,,,,,,,,,,,,,,,,,,,,,,,,,,,,,,,,,,,,
,,,,,,611d03b822d4c8e041ea0c32,62c53a3926bf6ce20ec814a1,2022-07-06_09h31.51.224,Colour_Asymmetry_Pilot,2022.1.3,Win32,60.22282445,62c50e9c1127f2cd403a315f,0,6,6,144,1,onetwo,,,,,,,,,,,,,,,,,,,,,,,,,,,,,,,,,,,,,,,,,,,,,,,,,,,,,,,,,,,,,,,,,,,,,,,,,,,,,,,,,,,,,,,,,,,,,,,,,,,,,,,,,,,,,,,,,,,,,,,,,,,,,,,,,,,,,,,,,,,,,,,,,,,,,,,,,,,,,
,,,,,,611d03b822d4c8e041ea0c32,62c53a3926bf6ce20ec814a1,2022-07-06_09h31.51.224,Colour_Asymmetry_Pilot,2022.1.3,Win32,60.22282445,62c50e9c1127f2cd403a315f,0,7,7,111,1,fourthree,,,,,,,,,,,,,,,,,,,,,,,,,,,,,,,,,,,,,,,,,,,,,,,,,,,,,,,,,,,,,,,,,,,,,,,,,,,,,,,,,,,,,,,,,,,,,,,,,,,,,,,,,,,,,,,,,,,,,,,,,,,,,,,,,,,,,,,,,,,,,,,,,,,,,,,,,,,,,
,,,,,,611d03b822d4c8e041ea0c32,62c53a3926bf6ce20ec814a1,2022-07-06_09h31.51.224,Colour_Asymmetry_Pilot,2022.1.3,Win32,60.22282445,62c50e9c1127f2cd403a315f,0,8,8,106,1,twoone,,,,,,,,,,,,,,,,,,,,,,,,,,,,,,,,,,,,,,,,,,,,,,,,,,,,,,,,,,,,,,,,,,,,,,,,,,,,,,,,,,,,,,,,,,,,,,,,,,,,,,,,,,,,,,,,,,,,,,,,,,,,,,,,,,,,,,,,,,,,,,,,,,,,,,,,,,,,,
,,,,,,611d03b822d4c8e041ea0c32,62c53a3926bf6ce20ec814a1,2022-07-06_09h31.51.224,Colour_Asymmetry_Pilot,2022.1.3,Win32,60.22282445,62c50e9c1127f2cd403a315f,0,9,9,46,1,fourtwo,,,,,,,,,,,,,,,,,,,,,,,,,,,,,,,,,,,,,,,,,,,,,,,,,,,,,,,,,,,,,,,,,,,,,,,,,,,,,,,,,,,,,,,,,,,,,,,,,,,,,,,,,,,,,,,,,,,,,,,,,,,,,,,,,,,,,,,,,,,,,,,,,,,,,,,,,,,,,
,,,,,,611d03b822d4c8e041ea0c32,62c53a3926bf6ce20ec814a1,2022-07-06_09h31.51.224,Colour_Asymmetry_Pilot,2022.1.3,Win32,60.22282445,62c50e9c1127f2cd403a315f,0,10,10,97,1,onethree,,,,,,,,,,,,,,,,,,,,,,,,,,,,,,,,,,,,,,,,,,,,,,,,,,,,,,,,,,,,,,,,,,,,,,,,,,,,,,,,,,,,,,,,,,,,,,,,,,,,,,,,,,,,,,,,,,,,,,,,,,,,,,,,,,,,,,,,,,,,,,,,,,,,,,,,,,,,,
,,,,,,611d03b822d4c8e041ea0c32,62c53a3926bf6ce20ec814a1,2022-07-06_09h31.51.224,Colour_Asymmetry_Pilot,2022.1.3,Win32,60.22282445,62c50e9c1127f2cd403a315f,0,11,11,42,1,twoone,,,,,,,,,,,,,,,,,,,,,,,,,,,,,,,,,,,,,,,,,,,,,,,,,,,,,,,,,,,,,,,,,,,,,,,,,,,,,,,,,,,,,,,,,,,,,,,,,,,,,,,,,,,,,,,,,,,,,,,,,,,,,,,,,,,,,,,,,,,,,,,,,,,,,,,,,,,,,
,,,,,,611d03b822d4c8e041ea0c32,62c53a3926bf6ce20ec814a1,2022-07-06_09h31.51.224,Colour_Asymmetry_Pilot,2022.1.3,Win32,60.22282445,62c50e9c1127f2cd403a315f,0,12,12,119,1,fourthree,,,,,,,,,,,,,,,,,,,,,,,,,,,,,,,,,,,,,,,,,,,,,,,,,,,,,,,,,,,,,,,,,,,,,,,,,,,,,,,,,,,,,,,,,,,,,,,,,,,,,,,,,,,,,,,,,,,,,,,,,,,,,,,,,,,,,,,,,,,,,,,,,,,,,,,,,,,,,
,,,,,,611d03b822d4c8e041ea0c32,62c53a3926bf6ce20ec814a1,2022-07-06_09h31.51.224,Colour_Asymmetry_Pilot,2022.1.3,Win32,60.22282445,62c50e9c1127f2cd403a315f,0,13,13,27,1,twofour,,,,,,,,,,,,,,,,,,,,,,,,,,,,,,,,,,,,,,,,,,,,,,,,,,,,,,,,,,,,,,,,,,,,,,,,,,,,,,,,,,,,,,,,,,,,,,,,,,,,,,,,,,,,,,,,,,,,,,,,,,,,,,,,,,,,,,,,,,,,,,,,,,,,,,,,,,,,,
,,,,,,611d03b822d4c8e041ea0c32,62c53a3926bf6ce20ec814a1,2022-07-06_09h31.51.224,Colour_Asymmetry_Pilot,2022.1.3,Win32,60.22282445,62c50e9c1127f2cd403a315f,0,14,14,13,1,threefour,,,,,,,,,,,,,,,,,,,,,,,,,,,,,,,,,,,,,,,,,,,,,,,,,,,,,,,,,,,,,,,,,,,,,,,,,,,,,,,,,,,,,,,,,,,,,,,,,,,,,,,,,,,,,,,,,,,,,,,,,,,,,,,,,,,,,,,,,,,,,,,,,,,,,,,,,,,,,
,,,,,,611d03b822d4c8e041ea0c32,62c53a3926bf6ce20ec814a1,2022-07-06_09h31.51.224,Colour_Asymmetry_Pilot,2022.1.3,Win32,60.22282445,62c50e9c1127f2cd403a315f,0,15,15,115,1,twofour,,,,,,,,,,,,,,,,,,,,,,,,,,,,,,,,,,,,,,,,,,,,,,,,,,,,,,,,,,,,,,,,,,,,,,,,,,,,,,,,,,,,,,,,,,,,,,,,,,,,,,,,,,,,,,,,,,,,,,,,,,,,,,,,,,,,,,,,,,,,,,,,,,,,,,,,,,,,,
,,,,,,611d03b822d4c8e041ea0c32,62c53a3926bf6ce20ec814a1,2022-07-06_09h31.51.224,Colour_Asymmetry_Pilot,2022.1.3,Win32,60.22282445,62c50e9c1127f2cd403a315f,0,16,16,5,1,threefour,,,,,,,,,,,,,,,,,,,,,,,,,,,,,,,,,,,,,,,,,,,,,,,,,,,,,,,,,,,,,,,,,,,,,,,,,,,,,,,,,,,,,,,,,,,,,,,,,,,,,,,,,,,,,,,,,,,,,,,,,,,,,,,,,,,,,,,,,,,,,,,,,,,,,,,,,,,,,
,,,,,,611d03b822d4c8e041ea0c32,62c53a3926bf6ce20ec814a1,2022-07-06_09h31.51.224,Colour_Asymmetry_Pilot,2022.1.3,Win32,60.22282445,62c50e9c1127f2cd403a315f,0,17,17,96,1,onetwo,,,,,,,,,,,,,,,,,,,,,,,,,,,,,,,,,,,,,,,,,,,,,,,,,,,,,,,,,,,,,,,,,,,,,,,,,,,,,,,,,,,,,,,,,,,,,,,,,,,,,,,,,,,,,,,,,,,,,,,,,,,,,,,,,,,,,,,,,,,,,,,,,,,,,,,,,,,,,
,,,,,,611d03b822d4c8e041ea0c32,62c53a3926bf6ce20ec814a1,2022-07-06_09h31.51.224,Colour_Asymmetry_Pilot,2022.1.3,Win32,60.22282445,62c50e9c1127f2cd403a315f,0,18,18,159,1,fourthree,,,,,,,,,,,,,,,,,,,,,,,,,,,,,,,,,,,,,,,,,,,,,,,,,,,,,,,,,,,,,,,,,,,,,,,,,,,,,,,,,,,,,,,,,,,,,,,,,,,,,,,,,,,,,,,,,,,,,,,,,,,,,,,,,,,,,,,,,,,,,,,,,,,,,,,,,,,,,
,,,,,,611d03b822d4c8e041ea0c32,62c53a3926bf6ce20ec814a1,2022-07-06_09h31.51.224,Colour_Asymmetry_Pilot,2022.1.3,Win32,60.22282445,62c50e9c1127f2cd403a315f,0,19,19,48,1,onetwo,,,,,,,,,,,,,,,,,,,,,,,,,,,,,,,,,,,,,,,,,,,,,,,,,,,,,,,,,,,,,,,,,,,,,,,,,,,,,,,,,,,,,,,,,,,,,,,,,,,,,,,,,,,,,,,,,,,,,,,,,,,,,,,,,,,,,,,,,,,,,,,,,,,,,,,,,,,,,
,,,,,,611d03b822d4c8e041ea0c32,62c53a3926bf6ce20ec814a1,2022-07-06_09h31.51.224,Colour_Asymmetry_Pilot,2022.1.3,Win32,60.22282445,62c50e9c1127f2cd403a315f,0,20,20,29,1,threefour,,,,,,,,,,,,,,,,,,,,,,,,,,,,,,,,,,,,,,,,,,,,,,,,,,,,,,,,,,,,,,,,,,,,,,,,,,,,,,,,,,,,,,,,,,,,,,,,,,,,,,,,,,,,,,,,,,,,,,,,,,,,,,,,,,,,,,,,,,,,,,,,,,,,,,,,,,,,,
,,,,,,611d03b822d4c8e041ea0c32,62c53a3926bf6ce20ec814a1,2022-07-06_09h31.51.224,Colour_Asymmetry_Pilot,2022.1.3,Win32,60.22282445,62c50e9c1127f2cd403a315f,0,21,21,87,1,fourthree,,,,,,,,,,,,,,,,,,,,,,,,,,,,,,,,,,,,,,,,,,,,,,,,,,,,,,,,,,,,,,,,,,,,,,,,,,,,,,,,,,,,,,,,,,,,,,,,,,,,,,,,,,,,,,,,,,,,,,,,,,,,,,,,,,,,,,,,,,,,,,,,,,,,,,,,,,,,,
,,,,,,611d03b822d4c8e041ea0c32,62c53a3926bf6ce20ec814a1,2022-07-06_09h31.51.224,Colour_Asymmetry_Pilot,2022.1.3,Win32,60.22282445,62c50e9c1127f2cd403a315f,0,22,22,141,1,threefour,,,,,,,,,,,,,,,,,,,,,,,,,,,,,,,,,,,,,,,,,,,,,,,,,,,,,,,,,,,,,,,,,,,,,,,,,,,,,,,,,,,,,,,,,,,,,,,,,,,,,,,,,,,,,,,,,,,,,,,,,,,,,,,,,,,,,,,,,,,,,,,,,,,,,,,,,,,,,
,,,,,,611d03b822d4c8e041ea0c32,62c53a3926bf6ce20ec814a1,2022-07-06_09h31.51.224,Colour_Asymmetry_Pilot,2022.1.3,Win32,60.22282445,62c50e9c1127f2cd403a315f,0,23,23,65,1,onethree,,,,,,,,,,,,,,,,,,,,,,,,,,,,,,,,,,,,,,,,,,,,,,,,,,,,,,,,,,,,,,,,,,,,,,,,,,,,,,,,,,,,,,,,,,,,,,,,,,,,,,,,,,,,,,,,,,,,,,,,,,,,,,,,,,,,,,,,,,,,,,,,,,,,,,,,,,,,,
,,,,,,611d03b822d4c8e041ea0c32,62c53a3926bf6ce20ec814a1,2022-07-06_09h31.51.224,Colour_Asymmetry_Pilot,2022.1.3,Win32,60.22282445,62c50e9c1127f2cd403a315f,0,24,24,1,1,onethree,,,,,,,,,,,,,,,,,,,,,,,,,,,,,,,,,,,,,,,,,,,,,,,,,,,,,,,,,,,,,,,,,,,,,,,,,,,,,,,,,,,,,,,,,,,,,,,,,,,,,,,,,,,,,,,,,,,,,,,,,,,,,,,,,,,,,,,,,,,,,,,,,,,,,,,,,,,,,
,,,,,,611d03b822d4c8e041ea0c32,62c53a3926bf6ce20ec814a1,2022-07-06_09h31.51.224,Colour_Asymmetry_Pilot,2022.1.3,Win32,60.22282445,62c50e9c1127f2cd403a315f,0,25,25,32,1,onetwo,,,,,,,,,,,,,,,,,,,,,,,,,,,,,,,,,,,,,,,,,,,,,,,,,,,,,,,,,,,,,,,,,,,,,,,,,,,,,,,,,,,,,,,,,,,,,,,,,,,,,,,,,,,,,,,,,,,,,,,,,,,,,,,,,,,,,,,,,,,,,,,,,,,,,,,,,,,,,
,,,,,,611d03b822d4c8e041ea0c32,62c53a3926bf6ce20ec814a1,2022-07-06_09h31.51.224,Colour_Asymmetry_Pilot,2022.1.3,Win32,60.22282445,62c50e9c1127f2cd403a315f,0,26,26,73,1,onethree,,,,,,,,,,,,,,,,,,,,,,,,,,,,,,,,,,,,,,,,,,,,,,,,,,,,,,,,,,,,,,,,,,,,,,,,,,,,,,,,,,,,,,,,,,,,,,,,,,,,,,,,,,,,,,,,,,,,,,,,,,,,,,,,,,,,,,,,,,,,,,,,,,,,,,,,,,,,,
,,,,,,611d03b822d4c8e041ea0c32,62c53a3926bf6ce20ec814a1,2022-07-06_09h31.51.224,Colour_Asymmetry_Pilot,2022.1.3,Win32,60.22282445,62c50e9c1127f2cd403a315f,0,27,27,10,1,twoone,,,,,,,,,,,,,,,,,,,,,,,,,,,,,,,,,,,,,,,,,,,,,,,,,,,,,,,,,,,,,,,,,,,,,,,,,,,,,,,,,,,,,,,,,,,,,,,,,,,,,,,,,,,,,,,,,,,,,,,,,,,,,,,,,,,,,,,,,,,,,,,,,,,,,,,,,,,,,
,,,,,,611d03b822d4c8e041ea0c32,62c53a3926bf6ce20ec814a1,2022-07-06_09h31.51.224,Colour_Asymmetry_Pilot,2022.1.3,Win32,60.22282445,62c50e9c1127f2cd403a315f,0,28,28,2,1,twoone,,,,,,,,,,,,,,,,,,,,,,,,,,,,,,,,,,,,,,,,,,,,,,,,,,,,,,,,,,,,,,,,,,,,,,,,,,,,,,,,,,,,,,,,,,,,,,,,,,,,,,,,,,,,,,,,,,,,,,,,,,,,,,,,,,,,,,,,,,,,,,,,,,,,,,,,,,,,,
,,,,,,611d03b822d4c8e041ea0c32,62c53a3926bf6ce20ec814a1,2022-07-06_09h31.51.224,Colour_Asymmetry_Pilot,2022.1.3,Win32,60.22282445,62c50e9c1127f2cd403a315f,0,29,29,154,1,twoone,,,,,,,,,,,,,,,,,,,,,,,,,,,,,,,,,,,,,,,,,,,,,,,,,,,,,,,,,,,,,,,,,,,,,,,,,,,,,,,,,,,,,,,,,,,,,,,,,,,,,,,,,,,,,,,,,,,,,,,,,,,,,,,,,,,,,,,,,,,,,,,,,,,,,,,,,,,,,
,,,,,,611d03b822d4c8e041ea0c32,62c53a3926bf6ce20ec814a1,2022-07-06_09h31.51.224,Colour_Asymmetry_Pilot,2022.1.3,Win32,60.22282445,62c50e9c1127f2cd403a315f,0,30,30,74,1,twoone,,,,,,,,,,,,,,,,,,,,,,,,,,,,,,,,,,,,,,,,,,,,,,,,,,,,,,,,,,,,,,,,,,,,,,,,,,,,,,,,,,,,,,,,,,,,,,,,,,,,,,,,,,,,,,,,,,,,,,,,,,,,,,,,,,,,,,,,,,,,,,,,,,,,,,,,,,,,,
,,,,,,611d03b822d4c8e041ea0c32,62c53a3926bf6ce20ec814a1,2022-07-06_09h31.51.224,Colour_Asymmetry_Pilot,2022.1.3,Win32,60.22282445,62c50e9c1127f2cd403a315f,0,31,31,126,1,fourtwo,,,,,,,,,,,,,,,,,,,,,,,,,,,,,,,,,,,,,,,,,,,,,,,,,,,,,,,,,,,,,,,,,,,,,,,,,,,,,,,,,,,,,,,,,,,,,,,,,,,,,,,,,,,,,,,,,,,,,,,,,,,,,,,,,,,,,,,,,,,,,,,,,,,,,,,,,,,,,
,,,,,,611d03b822d4c8e041ea0c32,62c53a3926bf6ce20ec814a1,2022-07-06_09h31.51.224,Colour_Asymmetry_Pilot,2022.1.3,Win32,60.22282445,62c50e9c1127f2cd403a315f,0,32,32,37,1,threefour,,,,,,,,,,,,,,,,,,,,,,,,,,,,,,,,,,,,,,,,,,,,,,,,,,,,,,,,,,,,,,,,,,,,,,,,,,,,,,,,,,,,,,,,,,,,,,,,,,,,,,,,,,,,,,,,,,,,,,,,,,,,,,,,,,,,,,,,,,,,,,,,,,,,,,,,,,,,,
,,,,,,611d03b822d4c8e041ea0c32,62c53a3926bf6ce20ec814a1,2022-07-06_09h31.51.224,Colour_Asymmetry_Pilot,2022.1.3,Win32,60.22282445,62c50e9c1127f2cd403a315f,0,33,33,70,1,fourtwo,,,,,,,,,,,,,,,,,,,,,,,,,,,,,,,,,,,,,,,,,,,,,,,,,,,,,,,,,,,,,,,,,,,,,,,,,,,,,,,,,,,,,,,,,,,,,,,,,,,,,,,,,,,,,,,,,,,,,,,,,,,,,,,,,,,,,,,,,,,,,,,,,,,,,,,,,,,,,
,,,,,,611d03b822d4c8e041ea0c32,62c53a3926bf6ce20ec814a1,2022-07-06_09h31.51.224,Colour_Asymmetry_Pilot,2022.1.3,Win32,60.22282445,62c50e9c1127f2cd403a315f,0,34,34,116,1,threeone,,,,,,,,,,,,,,,,,,,,,,,,,,,,,,,,,,,,,,,,,,,,,,,,,,,,,,,,,,,,,,,,,,,,,,,,,,,,,,,,,,,,,,,,,,,,,,,,,,,,,,,,,,,,,,,,,,,,,,,,,,,,,,,,,,,,,,,,,,,,,,,,,,,,,,,,,,,,,
,,,,,,611d03b822d4c8e041ea0c32,62c53a3926bf6ce20ec814a1,2022-07-06_09h31.51.224,Colour_Asymmetry_Pilot,2022.1.3,Win32,60.22282445,62c50e9c1127f2cd403a315f,0,35,35,153,1,onethree,,,,,,,,,,,,,,,,,,,,,,,,,,,,,,,,,,,,,,,,,,,,,,,,,,,,,,,,,,,,,,,,,,,,,,,,,,,,,,,,,,,,,,,,,,,,,,,,,,,,,,,,,,,,,,,,,,,,,,,,,,,,,,,,,,,,,,,,,,,,,,,,,,,,,,,,,,,,,
,,,,,,611d03b822d4c8e041ea0c32,62c53a3926bf6ce20ec814a1,2022-07-06_09h31.51.224,Colour_Asymmetry_Pilot,2022.1.3,Win32,60.22282445,62c50e9c1127f2cd403a315f,0,36,36,99,1,twofour,,,,,,,,,,,,,,,,,,,,,,,,,,,,,,,,,,,,,,,,,,,,,,,,,,,,,,,,,,,,,,,,,,,,,,,,,,,,,,,,,,,,,,,,,,,,,,,,,,,,,,,,,,,,,,,,,,,,,,,,,,,,,,,,,,,,,,,,,,,,,,,,,,,,,,,,,,,,,
,,,,,,611d03b822d4c8e041ea0c32,62c53a3926bf6ce20ec814a1,2022-07-06_09h31.51.224,Colour_Asymmetry_Pilot,2022.1.3,Win32,60.22282445,62c50e9c1127f2cd403a315f,0,37,37,15,1,fourthree,,,,,,,,,,,,,,,,,,,,,,,,,,,,,,,,,,,,,,,,,,,,,,,,,,,,,,,,,,,,,,,,,,,,,,,,,,,,,,,,,,,,,,,,,,,,,,,,,,,,,,,,,,,,,,,,,,,,,,,,,,,,,,,,,,,,,,,,,,,,,,,,,,,,,,,,,,,,,
,,,,,,611d03b822d4c8e041ea0c32,62c53a3926bf6ce20ec814a1,2022-07-06_09h31.51.224,Colour_Asymmetry_Pilot,2022.1.3,Win32,60.22282445,62c50e9c1127f2cd403a315f,0,38,38,76,1,threeone,,,,,,,,,,,,,,,,,,,,,,,,,,,,,,,,,,,,,,,,,,,,,,,,,,,,,,,,,,,,,,,,,,,,,,,,,,,,,,,,,,,,,,,,,,,,,,,,,,,,,,,,,,,,,,,,,,,,,,,,,,,,,,,,,,,,,,,,,,,,,,,,,,,,,,,,,,,,,
,,,,,,611d03b822d4c8e041ea0c32,62c53a3926bf6ce20ec814a1,2022-07-06_09h31.51.224,Colour_Asymmetry_Pilot,2022.1.3,Win32,60.22282445,62c50e9c1127f2cd403a315f,0,39,39,89,1,onethree,,,,,,,,,,,,,,,,,,,,,,,,,,,,,,,,,,,,,,,,,,,,,,,,,,,,,,,,,,,,,,,,,,,,,,,,,,,,,,,,,,,,,,,,,,,,,,,,,,,,,,,,,,,,,,,,,,,,,,,,,,,,,,,,,,,,,,,,,,,,,,,,,,,,,,,,,,,,,
,,,,,,611d03b822d4c8e041ea0c32,62c53a3926bf6ce20ec814a1,2022-07-06_09h31.51.224,Colour_Asymmetry_Pilot,2022.1.3,Win32,60.22282445,62c50e9c1127f2cd403a315f,0,40,40,69,1,threefour,,,,,,,,,,,,,,,,,,,,,,,,,,,,,,,,,,,,,,,,,,,,,,,,,,,,,,,,,,,,,,,,,,,,,,,,,,,,,,,,,,,,,,,,,,,,,,,,,,,,,,,,,,,,,,,,,,,,,,,,,,,,,,,,,,,,,,,,,,,,,,,,,,,,,,,,,,,,,
,,,,,,611d03b822d4c8e041ea0c32,62c53a3926bf6ce20ec814a1,2022-07-06_09h31.51.224,Colour_Asymmetry_Pilot,2022.1.3,Win32,60.22282445,62c50e9c1127f2cd403a315f,0,41,41,33,1,onethree,,,,,,,,,,,,,,,,,,,,,,,,,,,,,,,,,,,,,,,,,,,,,,,,,,,,,,,,,,,,,,,,,,,,,,,,,,,,,,,,,,,,,,,,,,,,,,,,,,,,,,,,,,,,,,,,,,,,,,,,,,,,,,,,,,,,,,,,,,,,,,,,,,,,,,,,,,,,,
,,,,,,611d03b822d4c8e041ea0c32,62c53a3926bf6ce20ec814a1,2022-07-06_09h31.51.224,Colour_Asymmetry_Pilot,2022.1.3,Win32,60.22282445,62c50e9c1127f2cd403a315f,0,42,42,138,1,twoone,,,,,,,,,,,,,,,,,,,,,,,,,,,,,,,,,,,,,,,,,,,,,,,,,,,,,,,,,,,,,,,,,,,,,,,,,,,,,,,,,,,,,,,,,,,,,,,,,,,,,,,,,,,,,,,,,,,,,,,,,,,,,,,,,,,,,,,,,,,,,,,,,,,,,,,,,,,,,
,,,,,,611d03b822d4c8e041ea0c32,62c53a3926bf6ce20ec814a1,2022-07-06_09h31.51.224,Colour_Asymmetry_Pilot,2022.1.3,Win32,60.22282445,62c50e9c1127f2cd403a315f,0,43,43,63,1,fourthree,,,,,,,,,,,,,,,,,,,,,,,,,,,,,,,,,,,,,,,,,,,,,,,,,,,,,,,,,,,,,,,,,,,,,,,,,,,,,,,,,,,,,,,,,,,,,,,,,,,,,,,,,,,,,,,,,,,,,,,,,,,,,,,,,,,,,,,,,,,,,,,,,,,,,,,,,,,,,
,,,,,,611d03b822d4c8e041ea0c32,62c53a3926bf6ce20ec814a1,2022-07-06_09h31.51.224,Colour_Asymmetry_Pilot,2022.1.3,Win32,60.22282445,62c50e9c1127f2cd403a315f,0,44,44,67,1,twofour,,,,,,,,,,,,,,,,,,,,,,,,,,,,,,,,,,,,,,,,,,,,,,,,,,,,,,,,,,,,,,,,,,,,,,,,,,,,,,,,,,,,,,,,,,,,,,,,,,,,,,,,,,,,,,,,,,,,,,,,,,,,,,,,,,,,,,,,,,,,,,,,,,,,,,,,,,,,,
,,,,,,611d03b822d4c8e041ea0c32,62c53a3926bf6ce20ec814a1,2022-07-06_09h31.51.224,Colour_Asymmetry_Pilot,2022.1.3,Win32,60.22282445,62c50e9c1127f2cd403a315f,0,45,45,35,1,twofour,,,,,,,,,,,,,,,,,,,,,,,,,,,,,,,,,,,,,,,,,,,,,,,,,,,,,,,,,,,,,,,,,,,,,,,,,,,,,,,,,,,,,,,,,,,,,,,,,,,,,,,,,,,,,,,,,,,,,,,,,,,,,,,,,,,,,,,,,,,,,,,,,,,,,,,,,,,,,
,,,,,,611d03b822d4c8e041ea0c32,62c53a3926bf6ce20ec814a1,2022-07-06_09h31.51.224,Colour_Asymmetry_Pilot,2022.1.3,Win32,60.22282445,62c50e9c1127f2cd403a315f,0,46,46,90,1,twoone,,,,,,,,,,,,,,,,,,,,,,,,,,,,,,,,,,,,,,,,,,,,,,,,,,,,,,,,,,,,,,,,,,,,,,,,,,,,,,,,,,,,,,,,,,,,,,,,,,,,,,,,,,,,,,,,,,,,,,,,,,,,,,,,,,,,,,,,,,,,,,,,,,,,,,,,,,,,,
,,,,,,611d03b822d4c8e041ea0c32,62c53a3926bf6ce20ec814a1,2022-07-06_09h31.51.224,Colour_Asymmetry_Pilot,2022.1.3,Win32,60.22282445,62c50e9c1127f2cd403a315f,0,47,47,38,1,fourtwo,,,,,,,,,,,,,,,,,,,,,,,,,,,,,,,,,,,,,,,,,,,,,,,,,,,,,,,,,,,,,,,,,,,,,,,,,,,,,,,,,,,,,,,,,,,,,,,,,,,,,,,,,,,,,,,,,,,,,,,,,,,,,,,,,,,,,,,,,,,,,,,,,,,,,,,,,,,,,
,,,,,,611d03b822d4c8e041ea0c32,62c53a3926bf6ce20ec814a1,2022-07-06_09h31.51.224,Colour_Asymmetry_Pilot,2022.1.3,Win32,60.22282445,62c50e9c1127f2cd403a315f,0,48,48,103,1,fourthree,,,,,,,,,,,,,,,,,,,,,,,,,,,,,,,,,,,,,,,,,,,,,,,,,,,,,,,,,,,,,,,,,,,,,,,,,,,,,,,,,,,,,,,,,,,,,,,,,,,,,,,,,,,,,,,,,,,,,,,,,,,,,,,,,,,,,,,,,,,,,,,,,,,,,,,,,,,,,
,,,,,,611d03b822d4c8e041ea0c32,62c53a3926bf6ce20ec814a1,2022-07-06_09h31.51.224,Colour_Asymmetry_Pilot,2022.1.3,Win32,60.22282445,62c50e9c1127f2cd403a315f,0,49,49,155,1,twofour,,,,,,,,,,,,,,,,,,,,,,,,,,,,,,,,,,,,,,,,,,,,,,,,,,,,,,,,,,,,,,,,,,,,,,,,,,,,,,,,,,,,,,,,,,,,,,,,,,,,,,,,,,,,,,,,,,,,,,,,,,,,,,,,,,,,,,,,,,,,,,,,,,,,,,,,,,,,,
,,,,,,611d03b822d4c8e041ea0c32,62c53a3926bf6ce20ec814a1,2022-07-06_09h31.51.224,Colour_Asymmetry_Pilot,2022.1.3,Win32,60.22282445,62c50e9c1127f2cd403a315f,0,50,50,124,1,threeone,,,,,,,,,,,,,,,,,,,,,,,,,,,,,,,,,,,,,,,,,,,,,,,,,,,,,,,,,,,,,,,,,,,,,,,,,,,,,,,,,,,,,,,,,,,,,,,,,,,,,,,,,,,,,,,,,,,,,,,,,,,,,,,,,,,,,,,,,,,,,,,,,,,,,,,,,,,,,
,,,,,,611d03b822d4c8e041ea0c32,62c53a3926bf6ce20ec814a1,2022-07-06_09h31.51.224,Colour_Asymmetry_Pilot,2022.1.3,Win32,60.22282445,62c50e9c1127f2cd403a315f,0,51,51,134,1,fourtwo,,,,,,,,,,,,,,,,,,,,,,,,,,,,,,,,,,,,,,,,,,,,,,,,,,,,,,,,,,,,,,,,,,,,,,,,,,,,,,,,,,,,,,,,,,,,,,,,,,,,,,,,,,,,,,,,,,,,,,,,,,,,,,,,,,,,,,,,,,,,,,,,,,,,,,,,,,,,,
,,,,,,611d03b822d4c8e041ea0c32,62c53a3926bf6ce20ec814a1,2022-07-06_09h31.51.224,Colour_Asymmetry_Pilot,2022.1.3,Win32,60.22282445,62c50e9c1127f2cd403a315f,0,52,52,24,1,onetwo,,,,,,,,,,,,,,,,,,,,,,,,,,,,,,,,,,,,,,,,,,,,,,,,,,,,,,,,,,,,,,,,,,,,,,,,,,,,,,,,,,,,,,,,,,,,,,,,,,,,,,,,,,,,,,,,,,,,,,,,,,,,,,,,,,,,,,,,,,,,,,,,,,,,,,,,,,,,,
,,,,,,611d03b822d4c8e041ea0c32,62c53a3926bf6ce20ec814a1,2022-07-06_09h31.51.224,Colour_Asymmetry_Pilot,2022.1.3,Win32,60.22282445,62c50e9c1127f2cd403a315f,0,53,53,59,1,twofour,,,,,,,,,,,,,,,,,,,,,,,,,,,,,,,,,,,,,,,,,,,,,,,,,,,,,,,,,,,,,,,,,,,,,,,,,,,,,,,,,,,,,,,,,,,,,,,,,,,,,,,,,,,,,,,,,,,,,,,,,,,,,,,,,,,,,,,,,,,,,,,,,,,,,,,,,,,,,
,,,,,,611d03b822d4c8e041ea0c32,62c53a3926bf6ce20ec814a1,2022-07-06_09h31.51.224,Colour_Asymmetry_Pilot,2022.1.3,Win32,60.22282445,62c50e9c1127f2cd403a315f,0,54,54,44,1,threeone,,,,,,,,,,,,,,,,,,,,,,,,,,,,,,,,,,,,,,,,,,,,,,,,,,,,,,,,,,,,,,,,,,,,,,,,,,,,,,,,,,,,,,,,,,,,,,,,,,,,,,,,,,,,,,,,,,,,,,,,,,,,,,,,,,,,,,,,,,,,,,,,,,,,,,,,,,,,,
,,,,,,611d03b822d4c8e041ea0c32,62c53a3926bf6ce20ec814a1,2022-07-06_09h31.51.224,Colour_Asymmetry_Pilot,2022.1.3,Win32,60.22282445,62c50e9c1127f2cd403a315f,0,55,55,92,1,threeone,,,,,,,,,,,,,,,,,,,,,,,,,,,,,,,,,,,,,,,,,,,,,,,,,,,,,,,,,,,,,,,,,,,,,,,,,,,,,,,,,,,,,,,,,,,,,,,,,,,,,,,,,,,,,,,,,,,,,,,,,,,,,,,,,,,,,,,,,,,,,,,,,,,,,,,,,,,,,
,,,,,,611d03b822d4c8e041ea0c32,62c53a3926bf6ce20ec814a1,2022-07-06_09h31.51.224,Colour_Asymmetry_Pilot,2022.1.3,Win32,60.22282445,62c50e9c1127f2cd403a315f,0,56,56,102,1,fourtwo,,,,,,,,,,,,,,,,,,,,,,,,,,,,,,,,,,,,,,,,,,,,,,,,,,,,,,,,,,,,,,,,,,,,,,,,,,,,,,,,,,,,,,,,,,,,,,,,,,,,,,,,,,,,,,,,,,,,,,,,,,,,,,,,,,,,,,,,,,,,,,,,,,,,,,,,,,,,,
,,,,,,611d03b822d4c8e041ea0c32,62c53a3926bf6ce20ec814a1,2022-07-06_09h31.51.224,Colour_Asymmetry_Pilot,2022.1.3,Win32,60.22282445,62c50e9c1127f2cd403a315f,0,57,57,93,1,threefour,,,,,,,,,,,,,,,,,,,,,,,,,,,,,,,,,,,,,,,,,,,,,,,,,,,,,,,,,,,,,,,,,,,,,,,,,,,,,,,,,,,,,,,,,,,,,,,,,,,,,,,,,,,,,,,,,,,,,,,,,,,,,,,,,,,,,,,,,,,,,,,,,,,,,,,,,,,,,
,,,,,,611d03b822d4c8e041ea0c32,62c53a3926bf6ce20ec814a1,2022-07-06_09h31.51.224,Colour_Asymmetry_Pilot,2022.1.3,Win32,60.22282445,62c50e9c1127f2cd403a315f,0,58,58,21,1,threefour,,,,,,,,,,,,,,,,,,,,,,,,,,,,,,,,,,,,,,,,,,,,,,,,,,,,,,,,,,,,,,,,,,,,,,,,,,,,,,,,,,,,,,,,,,,,,,,,,,,,,,,,,,,,,,,,,,,,,,,,,,,,,,,,,,,,,,,,,,,,,,,,,,,,,,,,,,,,,
,,,,,,611d03b822d4c8e041ea0c32,62c53a3926bf6ce20ec814a1,2022-07-06_09h31.51.224,Colour_Asymmetry_Pilot,2022.1.3,Win32,60.22282445,62c50e9c1127f2cd403a315f,0,59,59,23,1,fourthree,,,,,,,,,,,,,,,,,,,,,,,,,,,,,,,,,,,,,,,,,,,,,,,,,,,,,,,,,,,,,,,,,,,,,,,,,,,,,,,,,,,,,,,,,,,,,,,,,,,,,,,,,,,,,,,,,,,,,,,,,,,,,,,,,,,,,,,,,,,,,,,,,,,,,,,,,,,,,
,,,,,,611d03b822d4c8e041ea0c32,62c53a3926bf6ce20ec814a1,2022-07-06_09h31.51.224,Colour_Asymmetry_Pilot,2022.1.3,Win32,60.22282445,62c50e9c1127f2cd403a315f,0,60,60,18,1,twoone,,,,,,,,,,,,,,,,,,,,,,,,,,,,,,,,,,,,,,,,,,,,,,,,,,,,,,,,,,,,,,,,,,,,,,,,,,,,,,,,,,,,,,,,,,,,,,,,,,,,,,,,,,,,,,,,,,,,,,,,,,,,,,,,,,,,,,,,,,,,,,,,,,,,,,,,,,,,,
,,,,,,611d03b822d4c8e041ea0c32,62c53a3926bf6ce20ec814a1,2022-07-06_09h31.51.224,Colour_Asymmetry_Pilot,2022.1.3,Win32,60.22282445,62c50e9c1127f2cd403a315f,0,61,61,95,1,fourthree,,,,,,,,,,,,,,,,,,,,,,,,,,,,,,,,,,,,,,,,,,,,,,,,,,,,,,,,,,,,,,,,,,,,,,,,,,,,,,,,,,,,,,,,,,,,,,,,,,,,,,,,,,,,,,,,,,,,,,,,,,,,,,,,,,,,,,,,,,,,,,,,,,,,,,,,,,,,,
,,,,,,611d03b822d4c8e041ea0c32,62c53a3926bf6ce20ec814a1,2022-07-06_09h31.51.224,Colour_Asymmetry_Pilot,2022.1.3,Win32,60.22282445,62c50e9c1127f2cd403a315f,0,62,62,45,1,threefour,,,,,,,,,,,,,,,,,,,,,,,,,,,,,,,,,,,,,,,,,,,,,,,,,,,,,,,,,,,,,,,,,,,,,,,,,,,,,,,,,,,,,,,,,,,,,,,,,,,,,,,,,,,,,,,,,,,,,,,,,,,,,,,,,,,,,,,,,,,,,,,,,,,,,,,,,,,,,
,,,,,,611d03b822d4c8e041ea0c32,62c53a3926bf6ce20ec814a1,2022-07-06_09h31.51.224,Colour_Asymmetry_Pilot,2022.1.3,Win32,60.22282445,62c50e9c1127f2cd403a315f,0,63,63,54,1,fourtwo,,,,,,,,,,,,,,,,,,,,,,,,,,,,,,,,,,,,,,,,,,,,,,,,,,,,,,,,,,,,,,,,,,,,,,,,,,,,,,,,,,,,,,,,,,,,,,,,,,,,,,,,,,,,,,,,,,,,,,,,,,,,,,,,,,,,,,,,,,,,,,,,,,,,,,,,,,,,,
,,,,,,611d03b822d4c8e041ea0c32,62c53a3926bf6ce20ec814a1,2022-07-06_09h31.51.224,Colour_Asymmetry_Pilot,2022.1.3,Win32,60.22282445,62c50e9c1127f2cd403a315f,0,64,64,88,1,onetwo,,,,,,,,,,,,,,,,,,,,,,,,,,,,,,,,,,,,,,,,,,,,,,,,,,,,,,,,,,,,,,,,,,,,,,,,,,,,,,,,,,,,,,,,,,,,,,,,,,,,,,,,,,,,,,,,,,,,,,,,,,,,,,,,,,,,,,,,,,,,,,,,,,,,,,,,,,,,,
,,,,,,611d03b822d4c8e041ea0c32,62c53a3926bf6ce20ec814a1,2022-07-06_09h31.51.224,Colour_Asymmetry_Pilot,2022.1.3,Win32,60.22282445,62c50e9c1127f2cd403a315f,0,65,65,34,1,twoone,,,,,,,,,,,,,,,,,,,,,,,,,,,,,,,,,,,,,,,,,,,,,,,,,,,,,,,,,,,,,,,,,,,,,,,,,,,,,,,,,,,,,,,,,,,,,,,,,,,,,,,,,,,,,,,,,,,,,,,,,,,,,,,,,,,,,,,,,,,,,,,,,,,,,,,,,,,,,
,,,,,,611d03b822d4c8e041ea0c32,62c53a3926bf6ce20ec814a1,2022-07-06_09h31.51.224,Colour_Asymmetry_Pilot,2022.1.3,Win32,60.22282445,62c50e9c1127f2cd403a315f,0,66,66,83,1,twofour,,,,,,,,,,,,,,,,,,,,,,,,,,,,,,,,,,,,,,,,,,,,,,,,,,,,,,,,,,,,,,,,,,,,,,,,,,,,,,,,,,,,,,,,,,,,,,,,,,,,,,,,,,,,,,,,,,,,,,,,,,,,,,,,,,,,,,,,,,,,,,,,,,,,,,,,,,,,,
,,,,,,611d03b822d4c8e041ea0c32,62c53a3926bf6ce20ec814a1,2022-07-06_09h31.51.224,Colour_Asymmetry_Pilot,2022.1.3,Win32,60.22282445,62c50e9c1127f2cd403a315f,0,67,67,9,1,onethree,,,,,,,,,,,,,,,,,,,,,,,,,,,,,,,,,,,,,,,,,,,,,,,,,,,,,,,,,,,,,,,,,,,,,,,,,,,,,,,,,,,,,,,,,,,,,,,,,,,,,,,,,,,,,,,,,,,,,,,,,,,,,,,,,,,,,,,,,,,,,,,,,,,,,,,,,,,,,
,,,,,,611d03b822d4c8e041ea0c32,62c53a3926bf6ce20ec814a1,2022-07-06_09h31.51.224,Colour_Asymmetry_Pilot,2022.1.3,Win32,60.22282445,62c50e9c1127f2cd403a315f,0,68,68,139,1,twofour,,,,,,,,,,,,,,,,,,,,,,,,,,,,,,,,,,,,,,,,,,,,,,,,,,,,,,,,,,,,,,,,,,,,,,,,,,,,,,,,,,,,,,,,,,,,,,,,,,,,,,,,,,,,,,,,,,,,,,,,,,,,,,,,,,,,,,,,,,,,,,,,,,,,,,,,,,,,,
,,,,,,611d03b822d4c8e041ea0c32,62c53a3926bf6ce20ec814a1,2022-07-06_09h31.51.224,Colour_Asymmetry_Pilot,2022.1.3,Win32,60.22282445,62c50e9c1127f2cd403a315f,0,69,69,136,1,onetwo,,,,,,,,,,,,,,,,,,,,,,,,,,,,,,,,,,,,,,,,,,,,,,,,,,,,,,,,,,,,,,,,,,,,,,,,,,,,,,,,,,,,,,,,,,,,,,,,,,,,,,,,,,,,,,,,,,,,,,,,,,,,,,,,,,,,,,,,,,,,,,,,,,,,,,,,,,,,,
,,,,,,611d03b822d4c8e041ea0c32,62c53a3926bf6ce20ec814a1,2022-07-06_09h31.51.224,Colour_Asymmetry_Pilot,2022.1.3,Win32,60.22282445,62c50e9c1127f2cd403a315f,0,70,70,71,1,fourthree,,,,,,,,,,,,,,,,,,,,,,,,,,,,,,,,,,,,,,,,,,,,,,,,,,,,,,,,,,,,,,,,,,,,,,,,,,,,,,,,,,,,,,,,,,,,,,,,,,,,,,,,,,,,,,,,,,,,,,,,,,,,,,,,,,,,,,,,,,,,,,,,,,,,,,,,,,,,,
,,,,,,611d03b822d4c8e041ea0c32,62c53a3926bf6ce20ec814a1,2022-07-06_09h31.51.224,Colour_Asymmetry_Pilot,2022.1.3,Win32,60.22282445,62c50e9c1127f2cd403a315f,0,71,71,161,1,onethree,,,,,,,,,,,,,,,,,,,,,,,,,,,,,,,,,,,,,,,,,,,,,,,,,,,,,,,,,,,,,,,,,,,,,,,,,,,,,,,,,,,,,,,,,,,,,,,,,,,,,,,,,,,,,,,,,,,,,,,,,,,,,,,,,,,,,,,,,,,,,,,,,,,,,,,,,,,,,
,,,,,,611d03b822d4c8e041ea0c32,62c53a3926bf6ce20ec814a1,2022-07-06_09h31.51.224,Colour_Asymmetry_Pilot,2022.1.3,Win32,60.22282445,62c50e9c1127f2cd403a315f,0,72,72,17,1,onethree,,,,,,,,,,,,,,,,,,,,,,,,,,,,,,,,,,,,,,,,,,,,,,,,,,,,,,,,,,,,,,,,,,,,,,,,,,,,,,,,,,,,,,,,,,,,,,,,,,,,,,,,,,,,,,,,,,,,,,,,,,,,,,,,,,,,,,,,,,,,,,,,,,,,,,,,,,,,,
,,,,,,611d03b822d4c8e041ea0c32,62c53a3926bf6ce20ec814a1,2022-07-06_09h31.51.224,Colour_Asymmetry_Pilot,2022.1.3,Win32,60.22282445,62c50e9c1127f2cd403a315f,0,73,73,131,1,twofour,,,,,,,,,,,,,,,,,,,,,,,,,,,,,,,,,,,,,,,,,,,,,,,,,,,,,,,,,,,,,,,,,,,,,,,,,,,,,,,,,,,,,,,,,,,,,,,,,,,,,,,,,,,,,,,,,,,,,,,,,,,,,,,,,,,,,,,,,,,,,,,,,,,,,,,,,,,,,
,,,,,,611d03b822d4c8e041ea0c32,62c53a3926bf6ce20ec814a1,2022-07-06_09h31.51.224,Colour_Asymmetry_Pilot,2022.1.3,Win32,60.22282445,62c50e9c1127f2cd403a315f,0,74,74,16,1,onetwo,,,,,,,,,,,,,,,,,,,,,,,,,,,,,,,,,,,,,,,,,,,,,,,,,,,,,,,,,,,,,,,,,,,,,,,,,,,,,,,,,,,,,,,,,,,,,,,,,,,,,,,,,,,,,,,,,,,,,,,,,,,,,,,,,,,,,,,,,,,,,,,,,,,,,,,,,,,,,
,,,,,,611d03b822d4c8e041ea0c32,62c53a3926bf6ce20ec814a1,2022-07-06_09h31.51.224,Colour_Asymmetry_Pilot,2022.1.3,Win32,60.22282445,62c50e9c1127f2cd403a315f,0,75,75,7,1,fourthree,,,,,,,,,,,,,,,,,,,,,,,,,,,,,,,,,,,,,,,,,,,,,,,,,,,,,,,,,,,,,,,,,,,,,,,,,,,,,,,,,,,,,,,,,,,,,,,,,,,,,,,,,,,,,,,,,,,,,,,,,,,,,,,,,,,,,,,,,,,,,,,,,,,,,,,,,,,,,
,,,,,,611d03b822d4c8e041ea0c32,62c53a3926bf6ce20ec814a1,2022-07-06_09h31.51.224,Colour_Asymmetry_Pilot,2022.1.3,Win32,60.22282445,62c50e9c1127f2cd403a315f,0,76,76,52,1,threeone,,,,,,,,,,,,,,,,,,,,,,,,,,,,,,,,,,,,,,,,,,,,,,,,,,,,,,,,,,,,,,,,,,,,,,,,,,,,,,,,,,,,,,,,,,,,,,,,,,,,,,,,,,,,,,,,,,,,,,,,,,,,,,,,,,,,,,,,,,,,,,,,,,,,,,,,,,,,,
,,,,,,611d03b822d4c8e041ea0c32,62c53a3926bf6ce20ec814a1,2022-07-06_09h31.51.224,Colour_Asymmetry_Pilot,2022.1.3,Win32,60.22282445,62c50e9c1127f2cd403a315f,0,77,77,36,1,threeone,,,,,,,,,,,,,,,,,,,,,,,,,,,,,,,,,,,,,,,,,,,,,,,,,,,,,,,,,,,,,,,,,,,,,,,,,,,,,,,,,,,,,,,,,,,,,,,,,,,,,,,,,,,,,,,,,,,,,,,,,,,,,,,,,,,,,,,,,,,,,,,,,,,,,,,,,,,,,
,,,,,,611d03b822d4c8e041ea0c32,62c53a3926bf6ce20ec814a1,2022-07-06_09h31.51.224,Colour_Asymmetry_Pilot,2022.1.3,Win32,60.22282445,62c50e9c1127f2cd403a315f,0,78,78,120,1,onetwo,,,,,,,,,,,,,,,,,,,,,,,,,,,,,,,,,,,,,,,,,,,,,,,,,,,,,,,,,,,,,,,,,,,,,,,,,,,,,,,,,,,,,,,,,,,,,,,,,,,,,,,,,,,,,,,,,,,,,,,,,,,,,,,,,,,,,,,,,,,,,,,,,,,,,,,,,,,,,
,,,,,,611d03b822d4c8e041ea0c32,62c53a3926bf6ce20ec814a1,2022-07-06_09h31.51.224,Colour_Asymmetry_Pilot,2022.1.3,Win32,60.22282445,62c50e9c1127f2cd403a315f,0,79,79,160,1,onetwo,,,,,,,,,,,,,,,,,,,,,,,,,,,,,,,,,,,,,,,,,,,,,,,,,,,,,,,,,,,,,,,,,,,,,,,,,,,,,,,,,,,,,,,,,,,,,,,,,,,,,,,,,,,,,,,,,,,,,,,,,,,,,,,,,,,,,,,,,,,,,,,,,,,,,,,,,,,,,
,,,,,,611d03b822d4c8e041ea0c32,62c53a3926bf6ce20ec814a1,2022-07-06_09h31.51.224,Colour_Asymmetry_Pilot,2022.1.3,Win32,60.22282445,62c50e9c1127f2cd403a315f,0,80,80,12,1,threeone,,,,,,,,,,,,,,,,,,,,,,,,,,,,,,,,,,,,,,,,,,,,,,,,,,,,,,,,,,,,,,,,,,,,,,,,,,,,,,,,,,,,,,,,,,,,,,,,,,,,,,,,,,,,,,,,,,,,,,,,,,,,,,,,,,,,,,,,,,,,,,,,,,,,,,,,,,,,,
,,,,,,611d03b822d4c8e041ea0c32,62c53a3926bf6ce20ec814a1,2022-07-06_09h31.51.224,Colour_Asymmetry_Pilot,2022.1.3,Win32,60.22282445,62c50e9c1127f2cd403a315f,0,81,81,105,1,onethree,,,,,,,,,,,,,,,,,,,,,,,,,,,,,,,,,,,,,,,,,,,,,,,,,,,,,,,,,,,,,,,,,,,,,,,,,,,,,,,,,,,,,,,,,,,,,,,,,,,,,,,,,,,,,,,,,,,,,,,,,,,,,,,,,,,,,,,,,,,,,,,,,,,,,,,,,,,,,
,,,,,,611d03b822d4c8e041ea0c32,62c53a3926bf6ce20ec814a1,2022-07-06_09h31.51.224,Colour_Asymmetry_Pilot,2022.1.3,Win32,60.22282445,62c50e9c1127f2cd403a315f,0,82,82,113,1,onethree,,,,,,,,,,,,,,,,,,,,,,,,,,,,,,,,,,,,,,,,,,,,,,,,,,,,,,,,,,,,,,,,,,,,,,,,,,,,,,,,,,,,,,,,,,,,,,,,,,,,,,,,,,,,,,,,,,,,,,,,,,,,,,,,,,,,,,,,,,,,,,,,,,,,,,,,,,,,,
,,,,,,611d03b822d4c8e041ea0c32,62c53a3926bf6ce20ec814a1,2022-07-06_09h31.51.224,Colour_Asymmetry_Pilot,2022.1.3,Win32,60.22282445,62c50e9c1127f2cd403a315f,0,83,83,3,1,twofour,,,,,,,,,,,,,,,,,,,,,,,,,,,,,,,,,,,,,,,,,,,,,,,,,,,,,,,,,,,,,,,,,,,,,,,,,,,,,,,,,,,,,,,,,,,,,,,,,,,,,,,,,,,,,,,,,,,,,,,,,,,,,,,,,,,,,,,,,,,,,,,,,,,,,,,,,,,,,
,,,,,,611d03b822d4c8e041ea0c32,62c53a3926bf6ce20ec814a1,2022-07-06_09h31.51.224,Colour_Asymmetry_Pilot,2022.1.3,Win32,60.22282445,62c50e9c1127f2cd403a315f,0,84,84,72,1,onetwo,,,,,,,,,,,,,,,,,,,,,,,,,,,,,,,,,,,,,,,,,,,,,,,,,,,,,,,,,,,,,,,,,,,,,,,,,,,,,,,,,,,,,,,,,,,,,,,,,,,,,,,,,,,,,,,,,,,,,,,,,,,,,,,,,,,,,,,,,,,,,,,,,,,,,,,,,,,,,
,,,,,,611d03b822d4c8e041ea0c32,62c53a3926bf6ce20ec814a1,2022-07-06_09h31.51.224,Colour_Asymmetry_Pilot,2022.1.3,Win32,60.22282445,62c50e9c1127f2cd403a315f,0,85,85,28,1,threeone,,,,,,,,,,,,,,,,,,,,,,,,,,,,,,,,,,,,,,,,,,,,,,,,,,,,,,,,,,,,,,,,,,,,,,,,,,,,,,,,,,,,,,,,,,,,,,,,,,,,,,,,,,,,,,,,,,,,,,,,,,,,,,,,,,,,,,,,,,,,,,,,,,,,,,,,,,,,,
,,,,,,611d03b822d4c8e041ea0c32,62c53a3926bf6ce20ec814a1,2022-07-06_09h31.51.224,Colour_Asymmetry_Pilot,2022.1.3,Win32,60.22282445,62c50e9c1127f2cd403a315f,0,86,86,151,1,fourthree,,,,,,,,,,,,,,,,,,,,,,,,,,,,,,,,,,,,,,,,,,,,,,,,,,,,,,,,,,,,,,,,,,,,,,,,,,,,,,,,,,,,,,,,,,,,,,,,,,,,,,,,,,,,,,,,,,,,,,,,,,,,,,,,,,,,,,,,,,,,,,,,,,,,,,,,,,,,,
,,,,,,611d03b822d4c8e041ea0c32,62c53a3926bf6ce20ec814a1,2022-07-06_09h31.51.224,Colour_Asymmetry_Pilot,2022.1.3,Win32,60.22282445,62c50e9c1127f2cd403a315f,0,87,87,77,1,threefour,,,,,,,,,,,,,,,,,,,,,,,,,,,,,,,,,,,,,,,,,,,,,,,,,,,,,,,,,,,,,,,,,,,,,,,,,,,,,,,,,,,,,,,,,,,,,,,,,,,,,,,,,,,,,,,,,,,,,,,,,,,,,,,,,,,,,,,,,,,,,,,,,,,,,,,,,,,,,
,,,,,,611d03b822d4c8e041ea0c32,62c53a3926bf6ce20ec814a1,2022-07-06_09h31.51.224,Colour_Asymmetry_Pilot,2022.1.3,Win32,60.22282445,62c50e9c1127f2cd403a315f,0,88,88,64,1,onetwo,,,,,,,,,,,,,,,,,,,,,,,,,,,,,,,,,,,,,,,,,,,,,,,,,,,,,,,,,,,,,,,,,,,,,,,,,,,,,,,,,,,,,,,,,,,,,,,,,,,,,,,,,,,,,,,,,,,,,,,,,,,,,,,,,,,,,,,,,,,,,,,,,,,,,,,,,,,,,
,,,,,,611d03b822d4c8e041ea0c32,62c53a3926bf6ce20ec814a1,2022-07-06_09h31.51.224,Colour_Asymmetry_Pilot,2022.1.3,Win32,60.22282445,62c50e9c1127f2cd403a315f,0,89,89,61,1,threefour,,,,,,,,,,,,,,,,,,,,,,,,,,,,,,,,,,,,,,,,,,,,,,,,,,,,,,,,,,,,,,,,,,,,,,,,,,,,,,,,,,,,,,,,,,,,,,,,,,,,,,,,,,,,,,,,,,,,,,,,,,,,,,,,,,,,,,,,,,,,,,,,,,,,,,,,,,,,,
,,,,,,611d03b822d4c8e041ea0c32,62c53a3926bf6ce20ec814a1,2022-07-06_09h31.51.224,Colour_Asymmetry_Pilot,2022.1.3,Win32,60.22282445,62c50e9c1127f2cd403a315f,0,90,90,157,1,threefour,,,,,,,,,,,,,,,,,,,,,,,,,,,,,,,,,,,,,,,,,,,,,,,,,,,,,,,,,,,,,,,,,,,,,,,,,,,,,,,,,,,,,,,,,,,,,,,,,,,,,,,,,,,,,,,,,,,,,,,,,,,,,,,,,,,,,,,,,,,,,,,,,,,,,,,,,,,,,
,,,,,,611d03b822d4c8e041ea0c32,62c53a3926bf6ce20ec814a1,2022-07-06_09h31.51.224,Colour_Asymmetry_Pilot,2022.1.3,Win32,60.22282445,62c50e9c1127f2cd403a315f,0,91,91,31,1,fourthree,,,,,,,,,,,,,,,,,,,,,,,,,,,,,,,,,,,,,,,,,,,,,,,,,,,,,,,,,,,,,,,,,,,,,,,,,,,,,,,,,,,,,,,,,,,,,,,,,,,,,,,,,,,,,,,,,,,,,,,,,,,,,,,,,,,,,,,,,,,,,,,,,,,,,,,,,,,,,
,,,,,,611d03b822d4c8e041ea0c32,62c53a3926bf6ce20ec814a1,2022-07-06_09h31.51.224,Colour_Asymmetry_Pilot,2022.1.3,Win32,60.22282445,62c50e9c1127f2cd403a315f,0,92,92,11,1,twofour,,,,,,,,,,,,,,,,,,,,,,,,,,,,,,,,,,,,,,,,,,,,,,,,,,,,,,,,,,,,,,,,,,,,,,,,,,,,,,,,,,,,,,,,,,,,,,,,,,,,,,,,,,,,,,,,,,,,,,,,,,,,,,,,,,,,,,,,,,,,,,,,,,,,,,,,,,,,,
,,,,,,611d03b822d4c8e041ea0c32,62c53a3926bf6ce20ec814a1,2022-07-06_09h31.51.224,Colour_Asymmetry_Pilot,2022.1.3,Win32,60.22282445,62c50e9c1127f2cd403a315f,0,93,93,66,1,twoone,,,,,,,,,,,,,,,,,,,,,,,,,,,,,,,,,,,,,,,,,,,,,,,,,,,,,,,,,,,,,,,,,,,,,,,,,,,,,,,,,,,,,,,,,,,,,,,,,,,,,,,,,,,,,,,,,,,,,,,,,,,,,,,,,,,,,,,,,,,,,,,,,,,,,,,,,,,,,
,,,,,,611d03b822d4c8e041ea0c32,62c53a3926bf6ce20ec814a1,2022-07-06_09h31.51.224,Colour_Asymmetry_Pilot,2022.1.3,Win32,60.22282445,62c50e9c1127f2cd403a315f,0,94,94,152,1,onetwo,,,,,,,,,,,,,,,,,,,,,,,,,,,,,,,,,,,,,,,,,,,,,,,,,,,,,,,,,,,,,,,,,,,,,,,,,,,,,,,,,,,,,,,,,,,,,,,,,,,,,,,,,,,,,,,,,,,,,,,,,,,,,,,,,,,,,,,,,,,,,,,,,,,,,,,,,,,,,
,,,,,,611d03b822d4c8e041ea0c32,62c53a3926bf6ce20ec814a1,2022-07-06_09h31.51.224,Colour_Asymmetry_Pilot,2022.1.3,Win32,60.22282445,62c50e9c1127f2cd403a315f,0,95,95,117,1,threefour,,,,,,,,,,,,,,,,,,,,,,,,,,,,,,,,,,,,,,,,,,,,,,,,,,,,,,,,,,,,,,,,,,,,,,,,,,,,,,,,,,,,,,,,,,,,,,,,,,,,,,,,,,,,,,,,,,,,,,,,,,,,,,,,,,,,,,,,,,,,,,,,,,,,,,,,,,,,,
,,,,,,611d03b822d4c8e041ea0c32,62c53a3926bf6ce20ec814a1,2022-07-06_09h31.51.224,Colour_Asymmetry_Pilot,2022.1.3,Win32,60.22282445,62c50e9c1127f2cd403a315f,0,96,96,133,1,threefour,,,,,,,,,,,,,,,,,,,,,,,,,,,,,,,,,,,,,,,,,,,,,,,,,,,,,,,,,,,,,,,,,,,,,,,,,,,,,,,,,,,,,,,,,,,,,,,,,,,,,,,,,,,,,,,,,,,,,,,,,,,,,,,,,,,,,,,,,,,,,,,,,,,,,,,,,,,,,
,,,,,,611d03b822d4c8e041ea0c32,62c53a3926bf6ce20ec814a1,2022-07-06_09h31.51.224,Colour_Asymmetry_Pilot,2022.1.3,Win32,60.22282445,62c50e9c1127f2cd403a315f,0,97,97,98,1,twoone,,,,,,,,,,,,,,,,,,,,,,,,,,,,,,,,,,,,,,,,,,,,,,,,,,,,,,,,,,,,,,,,,,,,,,,,,,,,,,,,,,,,,,,,,,,,,,,,,,,,,,,,,,,,,,,,,,,,,,,,,,,,,,,,,,,,,,,,,,,,,,,,,,,,,,,,,,,,,
,,,,,,611d03b822d4c8e041ea0c32,62c53a3926bf6ce20ec814a1,2022-07-06_09h31.51.224,Colour_Asymmetry_Pilot,2022.1.3,Win32,60.22282445,62c50e9c1127f2cd403a315f,0,98,98,156,1,threeone,,,,,,,,,,,,,,,,,,,,,,,,,,,,,,,,,,,,,,,,,,,,,,,,,,,,,,,,,,,,,,,,,,,,,,,,,,,,,,,,,,,,,,,,,,,,,,,,,,,,,,,,,,,,,,,,,,,,,,,,,,,,,,,,,,,,,,,,,,,,,,,,,,,,,,,,,,,,,
,,,,,,611d03b822d4c8e041ea0c32,62c53a3926bf6ce20ec814a1,2022-07-06_09h31.51.224,Colour_Asymmetry_Pilot,2022.1.3,Win32,60.22282445,62c50e9c1127f2cd403a315f,0,99,99,60,1,threeone,,,,,,,,,,,,,,,,,,,,,,,,,,,,,,,,,,,,,,,,,,,,,,,,,,,,,,,,,,,,,,,,,,,,,,,,,,,,,,,,,,,,,,,,,,,,,,,,,,,,,,,,,,,,,,,,,,,,,,,,,,,,,,,,,,,,,,,,,,,,,,,,,,,,,,,,,,,,,
,,,,,,611d03b822d4c8e041ea0c32,62c53a3926bf6ce20ec814a1,2022-07-06_09h31.51.224,Colour_Asymmetry_Pilot,2022.1.3,Win32,60.22282445,62c50e9c1127f2cd403a315f,0,100,100,49,1,onethree,,,,,,,,,,,,,,,,,,,,,,,,,,,,,,,,,,,,,,,,,,,,,,,,,,,,,,,,,,,,,,,,,,,,,,,,,,,,,,,,,,,,,,,,,,,,,,,,,,,,,,,,,,,,,,,,,,,,,,,,,,,,,,,,,,,,,,,,,,,,,,,,,,,,,,,,,,,,,
,,,,,,611d03b822d4c8e041ea0c32,62c53a3926bf6ce20ec814a1,2022-07-06_09h31.51.224,Colour_Asymmetry_Pilot,2022.1.3,Win32,60.22282445,62c50e9c1127f2cd403a315f,0,101,101,79,1,fourthree,,,,,,,,,,,,,,,,,,,,,,,,,,,,,,,,,,,,,,,,,,,,,,,,,,,,,,,,,,,,,,,,,,,,,,,,,,,,,,,,,,,,,,,,,,,,,,,,,,,,,,,,,,,,,,,,,,,,,,,,,,,,,,,,,,,,,,,,,,,,,,,,,,,,,,,,,,,,,
,,,,,,611d03b822d4c8e041ea0c32,62c53a3926bf6ce20ec814a1,2022-07-06_09h31.51.224,Colour_Asymmetry_Pilot,2022.1.3,Win32,60.22282445,62c50e9c1127f2cd403a315f,0,102,102,150,1,fourtwo,,,,,,,,,,,,,,,,,,,,,,,,,,,,,,,,,,,,,,,,,,,,,,,,,,,,,,,,,,,,,,,,,,,,,,,,,,,,,,,,,,,,,,,,,,,,,,,,,,,,,,,,,,,,,,,,,,,,,,,,,,,,,,,,,,,,,,,,,,,,,,,,,,,,,,,,,,,,,
,,,,,,611d03b822d4c8e041ea0c32,62c53a3926bf6ce20ec814a1,2022-07-06_09h31.51.224,Colour_Asymmetry_Pilot,2022.1.3,Win32,60.22282445,62c50e9c1127f2cd403a315f,0,103,103,8,1,onetwo,,,,,,,,,,,,,,,,,,,,,,,,,,,,,,,,,,,,,,,,,,,,,,,,,,,,,,,,,,,,,,,,,,,,,,,,,,,,,,,,,,,,,,,,,,,,,,,,,,,,,,,,,,,,,,,,,,,,,,,,,,,,,,,,,,,,,,,,,,,,,,,,,,,,,,,,,,,,,
,,,,,,611d03b822d4c8e041ea0c32,62c53a3926bf6ce20ec814a1,2022-07-06_09h31.51.224,Colour_Asymmetry_Pilot,2022.1.3,Win32,60.22282445,62c50e9c1127f2cd403a315f,0,104,104,101,1,threefour,,,,,,,,,,,,,,,,,,,,,,,,,,,,,,,,,,,,,,,,,,,,,,,,,,,,,,,,,,,,,,,,,,,,,,,,,,,,,,,,,,,,,,,,,,,,,,,,,,,,,,,,,,,,,,,,,,,,,,,,,,,,,,,,,,,,,,,,,,,,,,,,,,,,,,,,,,,,,
,,,,,,611d03b822d4c8e041ea0c32,62c53a3926bf6ce20ec814a1,2022-07-06_09h31.51.224,Colour_Asymmetry_Pilot,2022.1.3,Win32,60.22282445,62c50e9c1127f2cd403a315f,0,105,105,14,1,fourtwo,,,,,,,,,,,,,,,,,,,,,,,,,,,,,,,,,,,,,,,,,,,,,,,,,,,,,,,,,,,,,,,,,,,,,,,,,,,,,,,,,,,,,,,,,,,,,,,,,,,,,,,,,,,,,,,,,,,,,,,,,,,,,,,,,,,,,,,,,,,,,,,,,,,,,,,,,,,,,
,,,,,,611d03b822d4c8e041ea0c32,62c53a3926bf6ce20ec814a1,2022-07-06_09h31.51.224,Colour_Asymmetry_Pilot,2022.1.3,Win32,60.22282445,62c50e9c1127f2cd403a315f,0,106,106,39,1,fourthree,,,,,,,,,,,,,,,,,,,,,,,,,,,,,,,,,,,,,,,,,,,,,,,,,,,,,,,,,,,,,,,,,,,,,,,,,,,,,,,,,,,,,,,,,,,,,,,,,,,,,,,,,,,,,,,,,,,,,,,,,,,,,,,,,,,,,,,,,,,,,,,,,,,,,,,,,,,,,
,,,,,,611d03b822d4c8e041ea0c32,62c53a3926bf6ce20ec814a1,2022-07-06_09h31.51.224,Colour_Asymmetry_Pilot,2022.1.3,Win32,60.22282445,62c50e9c1127f2cd403a315f,0,107,107,158,1,fourtwo,,,,,,,,,,,,,,,,,,,,,,,,,,,,,,,,,,,,,,,,,,,,,,,,,,,,,,,,,,,,,,,,,,,,,,,,,,,,,,,,,,,,,,,,,,,,,,,,,,,,,,,,,,,,,,,,,,,,,,,,,,,,,,,,,,,,,,,,,,,,,,,,,,,,,,,,,,,,,
,,,,,,611d03b822d4c8e041ea0c32,62c53a3926bf6ce20ec814a1,2022-07-06_09h31.51.224,Colour_Asymmetry_Pilot,2022.1.3,Win32,60.22282445,62c50e9c1127f2cd403a315f,0,108,108,47,1,fourthree,,,,,,,,,,,,,,,,,,,,,,,,,,,,,,,,,,,,,,,,,,,,,,,,,,,,,,,,,,,,,,,,,,,,,,,,,,,,,,,,,,,,,,,,,,,,,,,,,,,,,,,,,,,,,,,,,,,,,,,,,,,,,,,,,,,,,,,,,,,,,,,,,,,,,,,,,,,,,
,,,,,,611d03b822d4c8e041ea0c32,62c53a3926bf6ce20ec814a1,2022-07-06_09h31.51.224,Colour_Asymmetry_Pilot,2022.1.3,Win32,60.22282445,62c50e9c1127f2cd403a315f,0,109,109,53,1,threefour,,,,,,,,,,,,,,,,,,,,,,,,,,,,,,,,,,,,,,,,,,,,,,,,,,,,,,,,,,,,,,,,,,,,,,,,,,,,,,,,,,,,,,,,,,,,,,,,,,,,,,,,,,,,,,,,,,,,,,,,,,,,,,,,,,,,,,,,,,,,,,,,,,,,,,,,,,,,,
,,,,,,611d03b822d4c8e041ea0c32,62c53a3926bf6ce20ec814a1,2022-07-06_09h31.51.224,Colour_Asymmetry_Pilot,2022.1.3,Win32,60.22282445,62c50e9c1127f2cd403a315f,0,110,110,50,1,twoone,,,,,,,,,,,,,,,,,,,,,,,,,,,,,,,,,,,,,,,,,,,,,,,,,,,,,,,,,,,,,,,,,,,,,,,,,,,,,,,,,,,,,,,,,,,,,,,,,,,,,,,,,,,,,,,,,,,,,,,,,,,,,,,,,,,,,,,,,,,,,,,,,,,,,,,,,,,,,
,,,,,,611d03b822d4c8e041ea0c32,62c53a3926bf6ce20ec814a1,2022-07-06_09h31.51.224,Colour_Asymmetry_Pilot,2022.1.3,Win32,60.22282445,62c50e9c1127f2cd403a315f,0,111,111,146,1,twoone,,,,,,,,,,,,,,,,,,,,,,,,,,,,,,,,,,,,,,,,,,,,,,,,,,,,,,,,,,,,,,,,,,,,,,,,,,,,,,,,,,,,,,,,,,,,,,,,,,,,,,,,,,,,,,,,,,,,,,,,,,,,,,,,,,,,,,,,,,,,,,,,,,,,,,,,,,,,,
,,,,,,611d03b822d4c8e041ea0c32,62c53a3926bf6ce20ec814a1,2022-07-06_09h31.51.224,Colour_Asymmetry_Pilot,2022.1.3,Win32,60.22282445,62c50e9c1127f2cd403a315f,0,112,112,68,1,threeone,,,,,,,,,,,,,,,,,,,,,,,,,,,,,,,,,,,,,,,,,,,,,,,,,,,,,,,,,,,,,,,,,,,,,,,,,,,,,,,,,,,,,,,,,,,,,,,,,,,,,,,,,,,,,,,,,,,,,,,,,,,,,,,,,,,,,,,,,,,,,,,,,,,,,,,,,,,,,
,,,,,,611d03b822d4c8e041ea0c32,62c53a3926bf6ce20ec814a1,2022-07-06_09h31.51.224,Colour_Asymmetry_Pilot,2022.1.3,Win32,60.22282445,62c50e9c1127f2cd403a315f,0,113,113,129,1,onethree,,,,,,,,,,,,,,,,,,,,,,,,,,,,,,,,,,,,,,,,,,,,,,,,,,,,,,,,,,,,,,,,,,,,,,,,,,,,,,,,,,,,,,,,,,,,,,,,,,,,,,,,,,,,,,,,,,,,,,,,,,,,,,,,,,,,,,,,,,,,,,,,,,,,,,,,,,,,,
,,,,,,611d03b822d4c8e041ea0c32,62c53a3926bf6ce20ec814a1,2022-07-06_09h31.51.224,Colour_Asymmetry_Pilot,2022.1.3,Win32,60.22282445,62c50e9c1127f2cd403a315f,0,114,114,108,1,threeone,,,,,,,,,,,,,,,,,,,,,,,,,,,,,,,,,,,,,,,,,,,,,,,,,,,,,,,,,,,,,,,,,,,,,,,,,,,,,,,,,,,,,,,,,,,,,,,,,,,,,,,,,,,,,,,,,,,,,,,,,,,,,,,,,,,,,,,,,,,,,,,,,,,,,,,,,,,,,
,,,,,,611d03b822d4c8e041ea0c32,62c53a3926bf6ce20ec814a1,2022-07-06_09h31.51.224,Colour_Asymmetry_Pilot,2022.1.3,Win32,60.22282445,62c50e9c1127f2cd403a315f,0,115,115,149,1,threefour,,,,,,,,,,,,,,,,,,,,,,,,,,,,,,,,,,,,,,,,,,,,,,,,,,,,,,,,,,,,,,,,,,,,,,,,,,,,,,,,,,,,,,,,,,,,,,,,,,,,,,,,,,,,,,,,,,,,,,,,,,,,,,,,,,,,,,,,,,,,,,,,,,,,,,,,,,,,,
,,,,,,611d03b822d4c8e041ea0c32,62c53a3926bf6ce20ec814a1,2022-07-06_09h31.51.224,Colour_Asymmetry_Pilot,2022.1.3,Win32,60.22282445,62c50e9c1127f2cd403a315f,0,116,116,132,1,threeone,,,,,,,,,,,,,,,,,,,,,,,,,,,,,,,,,,,,,,,,,,,,,,,,,,,,,,,,,,,,,,,,,,,,,,,,,,,,,,,,,,,,,,,,,,,,,,,,,,,,,,,,,,,,,,,,,,,,,,,,,,,,,,,,,,,,,,,,,,,,,,,,,,,,,,,,,,,,,
,,,,,,611d03b822d4c8e041ea0c32,62c53a3926bf6ce20ec814a1,2022-07-06_09h31.51.224,Colour_Asymmetry_Pilot,2022.1.3,Win32,60.22282445,62c50e9c1127f2cd403a315f,0,117,117,26,1,twoone,,,,,,,,,,,,,,,,,,,,,,,,,,,,,,,,,,,,,,,,,,,,,,,,,,,,,,,,,,,,,,,,,,,,,,,,,,,,,,,,,,,,,,,,,,,,,,,,,,,,,,,,,,,,,,,,,,,,,,,,,,,,,,,,,,,,,,,,,,,,,,,,,,,,,,,,,,,,,
,,,,,,611d03b822d4c8e041ea0c32,62c53a3926bf6ce20ec814a1,2022-07-06_09h31.51.224,Colour_Asymmetry_Pilot,2022.1.3,Win32,60.22282445,62c50e9c1127f2cd403a315f,0,118,118,109,1,threefour,,,,,,,,,,,,,,,,,,,,,,,,,,,,,,,,,,,,,,,,,,,,,,,,,,,,,,,,,,,,,,,,,,,,,,,,,,,,,,,,,,,,,,,,,,,,,,,,,,,,,,,,,,,,,,,,,,,,,,,,,,,,,,,,,,,,,,,,,,,,,,,,,,,,,,,,,,,,,
,,,,,,611d03b822d4c8e041ea0c32,62c53a3926bf6ce20ec814a1,2022-07-06_09h31.51.224,Colour_Asymmetry_Pilot,2022.1.3,Win32,60.22282445,62c50e9c1127f2cd403a315f,0,119,119,135,1,fourthree,,,,,,,,,,,,,,,,,,,,,,,,,,,,,,,,,,,,,,,,,,,,,,,,,,,,,,,,,,,,,,,,,,,,,,,,,,,,,,,,,,,,,,,,,,,,,,,,,,,,,,,,,,,,,,,,,,,,,,,,,,,,,,,,,,,,,,,,,,,,,,,,,,,,,,,,,,,,,
,,,,,,611d03b822d4c8e041ea0c32,62c53a3926bf6ce20ec814a1,2022-07-06_09h31.51.224,Colour_Asymmetry_Pilot,2022.1.3,Win32,60.22282445,62c50e9c1127f2cd403a315f,0,120,120,20,1,threeone,,,,,,,,,,,,,,,,,,,,,,,,,,,,,,,,,,,,,,,,,,,,,,,,,,,,,,,,,,,,,,,,,,,,,,,,,,,,,,,,,,,,,,,,,,,,,,,,,,,,,,,,,,,,,,,,,,,,,,,,,,,,,,,,,,,,,,,,,,,,,,,,,,,,,,,,,,,,,
,,,,,,611d03b822d4c8e041ea0c32,62c53a3926bf6ce20ec814a1,2022-07-06_09h31.51.224,Colour_Asymmetry_Pilot,2022.1.3,Win32,60.22282445,62c50e9c1127f2cd403a315f,0,121,121,127,1,fourthree,,,,,,,,,,,,,,,,,,,,,,,,,,,,,,,,,,,,,,,,,,,,,,,,,,,,,,,,,,,,,,,,,,,,,,,,,,,,,,,,,,,,,,,,,,,,,,,,,,,,,,,,,,,,,,,,,,,,,,,,,,,,,,,,,,,,,,,,,,,,,,,,,,,,,,,,,,,,,
,,,,,,611d03b822d4c8e041ea0c32,62c53a3926bf6ce20ec814a1,2022-07-06_09h31.51.224,Colour_Asymmetry_Pilot,2022.1.3,Win32,60.22282445,62c50e9c1127f2cd403a315f,0,122,122,4,1,threeone,,,,,,,,,,,,,,,,,,,,,,,,,,,,,,,,,,,,,,,,,,,,,,,,,,,,,,,,,,,,,,,,,,,,,,,,,,,,,,,,,,,,,,,,,,,,,,,,,,,,,,,,,,,,,,,,,,,,,,,,,,,,,,,,,,,,,,,,,,,,,,,,,,,,,,,,,,,,,
,,,,,,611d03b822d4c8e041ea0c32,62c53a3926bf6ce20ec814a1,2022-07-06_09h31.51.224,Colour_Asymmetry_Pilot,2022.1.3,Win32,60.22282445,62c50e9c1127f2cd403a315f,0,123,123,148,1,threeone,,,,,,,,,,,,,,,,,,,,,,,,,,,,,,,,,,,,,,,,,,,,,,,,,,,,,,,,,,,,,,,,,,,,,,,,,,,,,,,,,,,,,,,,,,,,,,,,,,,,,,,,,,,,,,,,,,,,,,,,,,,,,,,,,,,,,,,,,,,,,,,,,,,,,,,,,,,,,
,,,,,,611d03b822d4c8e041ea0c32,62c53a3926bf6ce20ec814a1,2022-07-06_09h31.51.224,Colour_Asymmetry_Pilot,2022.1.3,Win32,60.22282445,62c50e9c1127f2cd403a315f,0,124,124,121,1,onethree,,,,,,,,,,,,,,,,,,,,,,,,,,,,,,,,,,,,,,,,,,,,,,,,,,,,,,,,,,,,,,,,,,,,,,,,,,,,,,,,,,,,,,,,,,,,,,,,,,,,,,,,,,,,,,,,,,,,,,,,,,,,,,,,,,,,,,,,,,,,,,,,,,,,,,,,,,,,,
,,,,,,611d03b822d4c8e041ea0c32,62c53a3926bf6ce20ec814a1,2022-07-06_09h31.51.224,Colour_Asymmetry_Pilot,2022.1.3,Win32,60.22282445,62c50e9c1127f2cd403a315f,0,125,125,118,1,fourtwo,,,,,,,,,,,,,,,,,,,,,,,,,,,,,,,,,,,,,,,,,,,,,,,,,,,,,,,,,,,,,,,,,,,,,,,,,,,,,,,,,,,,,,,,,,,,,,,,,,,,,,,,,,,,,,,,,,,,,,,,,,,,,,,,,,,,,,,,,,,,,,,,,,,,,,,,,,,,,
,,,,,,611d03b822d4c8e041ea0c32,62c53a3926bf6ce20ec814a1,2022-07-06_09h31.51.224,Colour_Asymmetry_Pilot,2022.1.3,Win32,60.22282445,62c50e9c1127f2cd403a315f,0,126,126,25,1,onethree,,,,,,,,,,,,,,,,,,,,,,,,,,,,,,,,,,,,,,,,,,,,,,,,,,,,,,,,,,,,,,,,,,,,,,,,,,,,,,,,,,,,,,,,,,,,,,,,,,,,,,,,,,,,,,,,,,,,,,,,,,,,,,,,,,,,,,,,,,,,,,,,,,,,,,,,,,,,,
,,,,,,611d03b822d4c8e041ea0c32,62c53a3926bf6ce20ec814a1,2022-07-06_09h31.51.224,Colour_Asymmetry_Pilot,2022.1.3,Win32,60.22282445,62c50e9c1127f2cd403a315f,0,127,127,6,1,fourtwo,,,,,,,,,,,,,,,,,,,,,,,,,,,,,,,,,,,,,,,,,,,,,,,,,,,,,,,,,,,,,,,,,,,,,,,,,,,,,,,,,,,,,,,,,,,,,,,,,,,,,,,,,,,,,,,,,,,,,,,,,,,,,,,,,,,,,,,,,,,,,,,,,,,,,,,,,,,,,
,,,,,,611d03b822d4c8e041ea0c32,62c53a3926bf6ce20ec814a1,2022-07-06_09h31.51.224,Colour_Asymmetry_Pilot,2022.1.3,Win32,60.22282445,62c50e9c1127f2cd403a315f,0,128,128,122,1,twoone,,,,,,,,,,,,,,,,,,,,,,,,,,,,,,,,,,,,,,,,,,,,,,,,,,,,,,,,,,,,,,,,,,,,,,,,,,,,,,,,,,,,,,,,,,,,,,,,,,,,,,,,,,,,,,,,,,,,,,,,,,,,,,,,,,,,,,,,,,,,,,,,,,,,,,,,,,,,,
,,,,,,611d03b822d4c8e041ea0c32,62c53a3926bf6ce20ec814a1,2022-07-06_09h31.51.224,Colour_Asymmetry_Pilot,2022.1.3,Win32,60.22282445,62c50e9c1127f2cd403a315f,0,129,129,140,1,threeone,,,,,,,,,,,,,,,,,,,,,,,,,,,,,,,,,,,,,,,,,,,,,,,,,,,,,,,,,,,,,,,,,,,,,,,,,,,,,,,,,,,,,,,,,,,,,,,,,,,,,,,,,,,,,,,,,,,,,,,,,,,,,,,,,,,,,,,,,,,,,,,,,,,,,,,,,,,,,
,,,,,,611d03b822d4c8e041ea0c32,62c53a3926bf6ce20ec814a1,2022-07-06_09h31.51.224,Colour_Asymmetry_Pilot,2022.1.3,Win32,60.22282445,62c50e9c1127f2cd403a315f,0,130,130,75,1,twofour,,,,,,,,,,,,,,,,,,,,,,,,,,,,,,,,,,,,,,,,,,,,,,,,,,,,,,,,,,,,,,,,,,,,,,,,,,,,,,,,,,,,,,,,,,,,,,,,,,,,,,,,,,,,,,,,,,,,,,,,,,,,,,,,,,,,,,,,,,,,,,,,,,,,,,,,,,,,,
,,,,,,611d03b822d4c8e041ea0c32,62c53a3926bf6ce20ec814a1,2022-07-06_09h31.51.224,Colour_Asymmetry_Pilot,2022.1.3,Win32,60.22282445,62c50e9c1127f2cd403a315f,0,131,131,143,1,fourthree,,,,,,,,,,,,,,,,,,,,,,,,,,,,,,,,,,,,,,,,,,,,,,,,,,,,,,,,,,,,,,,,,,,,,,,,,,,,,,,,,,,,,,,,,,,,,,,,,,,,,,,,,,,,,,,,,,,,,,,,,,,,,,,,,,,,,,,,,,,,,,,,,,,,,,,,,,,,,
,,,,,,611d03b822d4c8e041ea0c32,62c53a3926bf6ce20ec814a1,2022-07-06_09h31.51.224,Colour_Asymmetry_Pilot,2022.1.3,Win32,60.22282445,62c50e9c1127f2cd403a315f,0,132,132,128,1,onetwo,,,,,,,,,,,,,,,,,,,,,,,,,,,,,,,,,,,,,,,,,,,,,,,,,,,,,,,,,,,,,,,,,,,,,,,,,,,,,,,,,,,,,,,,,,,,,,,,,,,,,,,,,,,,,,,,,,,,,,,,,,,,,,,,,,,,,,,,,,,,,,,,,,,,,,,,,,,,,
,,,,,,611d03b822d4c8e041ea0c32,62c53a3926bf6ce20ec814a1,2022-07-06_09h31.51.224,Colour_Asymmetry_Pilot,2022.1.3,Win32,60.22282445,62c50e9c1127f2cd403a315f,0,133,133,114,1,twoone,,,,,,,,,,,,,,,,,,,,,,,,,,,,,,,,,,,,,,,,,,,,,,,,,,,,,,,,,,,,,,,,,,,,,,,,,,,,,,,,,,,,,,,,,,,,,,,,,,,,,,,,,,,,,,,,,,,,,,,,,,,,,,,,,,,,,,,,,,,,,,,,,,,,,,,,,,,,,
,,,,,,611d03b822d4c8e041ea0c32,62c53a3926bf6ce20ec814a1,2022-07-06_09h31.51.224,Colour_Asymmetry_Pilot,2022.1.3,Win32,60.22282445,62c50e9c1127f2cd403a315f,0,134,134,55,1,fourthree,,,,,,,,,,,,,,,,,,,,,,,,,,,,,,,,,,,,,,,,,,,,,,,,,,,,,,,,,,,,,,,,,,,,,,,,,,,,,,,,,,,,,,,,,,,,,,,,,,,,,,,,,,,,,,,,,,,,,,,,,,,,,,,,,,,,,,,,,,,,,,,,,,,,,,,,,,,,,
,,,,,,611d03b822d4c8e041ea0c32,62c53a3926bf6ce20ec814a1,2022-07-06_09h31.51.224,Colour_Asymmetry_Pilot,2022.1.3,Win32,60.22282445,62c50e9c1127f2cd403a315f,0,135,135,19,1,twofour,,,,,,,,,,,,,,,,,,,,,,,,,,,,,,,,,,,,,,,,,,,,,,,,,,,,,,,,,,,,,,,,,,,,,,,,,,,,,,,,,,,,,,,,,,,,,,,,,,,,,,,,,,,,,,,,,,,,,,,,,,,,,,,,,,,,,,,,,,,,,,,,,,,,,,,,,,,,,
,,,,,,611d03b822d4c8e041ea0c32,62c53a3926bf6ce20ec814a1,2022-07-06_09h31.51.224,Colour_Asymmetry_Pilot,2022.1.3,Win32,60.22282445,62c50e9c1127f2cd403a315f,0,136,136,112,1,onetwo,,,,,,,,,,,,,,,,,,,,,,,,,,,,,,,,,,,,,,,,,,,,,,,,,,,,,,,,,,,,,,,,,,,,,,,,,,,,,,,,,,,,,,,,,,,,,,,,,,,,,,,,,,,,,,,,,,,,,,,,,,,,,,,,,,,,,,,,,,,,,,,,,,,,,,,,,,,,,
,,,,,,611d03b822d4c8e041ea0c32,62c53a3926bf6ce20ec814a1,2022-07-06_09h31.51.224,Colour_Asymmetry_Pilot,2022.1.3,Win32,60.22282445,62c50e9c1127f2cd403a315f,0,137,137,80,1,onetwo,,,,,,,,,,,,,,,,,,,,,,,,,,,,,,,,,,,,,,,,,,,,,,,,,,,,,,,,,,,,,,,,,,,,,,,,,,,,,,,,,,,,,,,,,,,,,,,,,,,,,,,,,,,,,,,,,,,,,,,,,,,,,,,,,,,,,,,,,,,,,,,,,,,,,,,,,,,,,
,,,,,,611d03b822d4c8e041ea0c32,62c53a3926bf6ce20ec814a1,2022-07-06_09h31.51.224,Colour_Asymmetry_Pilot,2022.1.3,Win32,60.22282445,62c50e9c1127f2cd403a315f,0,138,138,147,1,twofour,,,,,,,,,,,,,,,,,,,,,,,,,,,,,,,,,,,,,,,,,,,,,,,,,,,,,,,,,,,,,,,,,,,,,,,,,,,,,,,,,,,,,,,,,,,,,,,,,,,,,,,,,,,,,,,,,,,,,,,,,,,,,,,,,,,,,,,,,,,,,,,,,,,,,,,,,,,,,
,,,,,,611d03b822d4c8e041ea0c32,62c53a3926bf6ce20ec814a1,2022-07-06_09h31.51.224,Colour_Asymmetry_Pilot,2022.1.3,Win32,60.22282445,62c50e9c1127f2cd403a315f,0,139,139,110,1,fourtwo,,,,,,,,,,,,,,,,,,,,,,,,,,,,,,,,,,,,,,,,,,,,,,,,,,,,,,,,,,,,,,,,,,,,,,,,,,,,,,,,,,,,,,,,,,,,,,,,,,,,,,,,,,,,,,,,,,,,,,,,,,,,,,,,,,,,,,,,,,,,,,,,,,,,,,,,,,,,,
,,,,,,611d03b822d4c8e041ea0c32,62c53a3926bf6ce20ec814a1,2022-07-06_09h31.51.224,Colour_Asymmetry_Pilot,2022.1.3,Win32,60.22282445,62c50e9c1127f2cd403a315f,0,140,140,0,1,onetwo,,,,,,,,,,,,,,,,,,,,,,,,,,,,,,,,,,,,,,,,,,,,,,,,,,,,,,,,,,,,,,,,,,,,,,,,,,,,,,,,,,,,,,,,,,,,,,,,,,,,,,,,,,,,,,,,,,,,,,,,,,,,,,,,,,,,,,,,,,,,,,,,,,,,,,,,,,,,,
,,,,,,611d03b822d4c8e041ea0c32,62c53a3926bf6ce20ec814a1,2022-07-06_09h31.51.224,Colour_Asymmetry_Pilot,2022.1.3,Win32,60.22282445,62c50e9c1127f2cd403a315f,0,141,141,94,1,fourtwo,,,,,,,,,,,,,,,,,,,,,,,,,,,,,,,,,,,,,,,,,,,,,,,,,,,,,,,,,,,,,,,,,,,,,,,,,,,,,,,,,,,,,,,,,,,,,,,,,,,,,,,,,,,,,,,,,,,,,,,,,,,,,,,,,,,,,,,,,,,,,,,,,,,,,,,,,,,,,
,,,,,,611d03b822d4c8e041ea0c32,62c53a3926bf6ce20ec814a1,2022-07-06_09h31.51.224,Colour_Asymmetry_Pilot,2022.1.3,Win32,60.22282445,62c50e9c1127f2cd403a315f,0,142,142,85,1,threefour,,,,,,,,,,,,,,,,,,,,,,,,,,,,,,,,,,,,,,,,,,,,,,,,,,,,,,,,,,,,,,,,,,,,,,,,,,,,,,,,,,,,,,,,,,,,,,,,,,,,,,,,,,,,,,,,,,,,,,,,,,,,,,,,,,,,,,,,,,,,,,,,,,,,,,,,,,,,,
,,,,,,611d03b822d4c8e041ea0c32,62c53a3926bf6ce20ec814a1,2022-07-06_09h31.51.224,Colour_Asymmetry_Pilot,2022.1.3,Win32,60.22282445,62c50e9c1127f2cd403a315f,0,143,143,81,1,onethree,,,,,,,,,,,,,,,,,,,,,,,,,,,,,,,,,,,,,,,,,,,,,,,,,,,,,,,,,,,,,,,,,,,,,,,,,,,,,,,,,,,,,,,,,,,,,,,,,,,,,,,,,,,,,,,,,,,,,,,,,,,,,,,,,,,,,,,,,,,,,,,,,,,,,,,,,,,,,
,,,,,,611d03b822d4c8e041ea0c32,62c53a3926bf6ce20ec814a1,2022-07-06_09h31.51.224,Colour_Asymmetry_Pilot,2022.1.3,Win32,60.22282445,62c50e9c1127f2cd403a315f,0,144,144,104,1,onetwo,,,,,,,,,,,,,,,,,,,,,,,,,,,,,,,,,,,,,,,,,,,,,,,,,,,,,,,,,,,,,,,,,,,,,,,,,,,,,,,,,,,,,,,,,,,,,,,,,,,,,,,,,,,,,,,,,,,,,,,,,,,,,,,,,,,,,,,,,,,,,,,,,,,,,,,,,,,,,
,,,,,,611d03b822d4c8e041ea0c32,62c53a3926bf6ce20ec814a1,2022-07-06_09h31.51.224,Colour_Asymmetry_Pilot,2022.1.3,Win32,60.22282445,62c50e9c1127f2cd403a315f,0,145,145,58,1,twoone,,,,,,,,,,,,,,,,,,,,,,,,,,,,,,,,,,,,,,,,,,,,,,,,,,,,,,,,,,,,,,,,,,,,,,,,,,,,,,,,,,,,,,,,,,,,,,,,,,,,,,,,,,,,,,,,,,,,,,,,,,,,,,,,,,,,,,,,,,,,,,,,,,,,,,,,,,,,,
,,,,,,611d03b822d4c8e041ea0c32,62c53a3926bf6ce20ec814a1,2022-07-06_09h31.51.224,Colour_Asymmetry_Pilot,2022.1.3,Win32,60.22282445,62c50e9c1127f2cd403a315f,0,146,146,125,1,threefour,,,,,,,,,,,,,,,,,,,,,,,,,,,,,,,,,,,,,,,,,,,,,,,,,,,,,,,,,,,,,,,,,,,,,,,,,,,,,,,,,,,,,,,,,,,,,,,,,,,,,,,,,,,,,,,,,,,,,,,,,,,,,,,,,,,,,,,,,,,,,,,,,,,,,,,,,,,,,
,,,,,,611d03b822d4c8e041ea0c32,62c53a3926bf6ce20ec814a1,2022-07-06_09h31.51.224,Colour_Asymmetry_Pilot,2022.1.3,Win32,60.22282445,62c50e9c1127f2cd403a315f,0,147,147,51,1,twofour,,,,,,,,,,,,,,,,,,,,,,,,,,,,,,,,,,,,,,,,,,,,,,,,,,,,,,,,,,,,,,,,,,,,,,,,,,,,,,,,,,,,,,,,,,,,,,,,,,,,,,,,,,,,,,,,,,,,,,,,,,,,,,,,,,,,,,,,,,,,,,,,,,,,,,,,,,,,,
,,,,,,611d03b822d4c8e041ea0c32,62c53a3926bf6ce20ec814a1,2022-07-06_09h31.51.224,Colour_Asymmetry_Pilot,2022.1.3,Win32,60.22282445,62c50e9c1127f2cd403a315f,0,148,148,56,1,onetwo,,,,,,,,,,,,,,,,,,,,,,,,,,,,,,,,,,,,,,,,,,,,,,,,,,,,,,,,,,,,,,,,,,,,,,,,,,,,,,,,,,,,,,,,,,,,,,,,,,,,,,,,,,,,,,,,,,,,,,,,,,,,,,,,,,,,,,,,,,,,,,,,,,,,,,,,,,,,,
,,,,,,611d03b822d4c8e041ea0c32,62c53a3926bf6ce20ec814a1,2022-07-06_09h31.51.224,Colour_Asymmetry_Pilot,2022.1.3,Win32,60.22282445,62c50e9c1127f2cd403a315f,0,149,149,82,1,twoone,,,,,,,,,,,,,,,,,,,,,,,,,,,,,,,,,,,,,,,,,,,,,,,,,,,,,,,,,,,,,,,,,,,,,,,,,,,,,,,,,,,,,,,,,,,,,,,,,,,,,,,,,,,,,,,,,,,,,,,,,,,,,,,,,,,,,,,,,,,,,,,,,,,,,,,,,,,,,
,,,,,,611d03b822d4c8e041ea0c32,62c53a3926bf6ce20ec814a1,2022-07-06_09h31.51.224,Colour_Asymmetry_Pilot,2022.1.3,Win32,60.22282445,62c50e9c1127f2cd403a315f,0,150,150,30,1,fourtwo,,,,,,,,,,,,,,,,,,,,,,,,,,,,,,,,,,,,,,,,,,,,,,,,,,,,,,,,,,,,,,,,,,,,,,,,,,,,,,,,,,,,,,,,,,,,,,,,,,,,,,,,,,,,,,,,,,,,,,,,,,,,,,,,,,,,,,,,,,,,,,,,,,,,,,,,,,,,,
,,,,,,611d03b822d4c8e041ea0c32,62c53a3926bf6ce20ec814a1,2022-07-06_09h31.51.224,Colour_Asymmetry_Pilot,2022.1.3,Win32,60.22282445,62c50e9c1127f2cd403a315f,0,151,151,84,1,threeone,,,,,,,,,,,,,,,,,,,,,,,,,,,,,,,,,,,,,,,,,,,,,,,,,,,,,,,,,,,,,,,,,,,,,,,,,,,,,,,,,,,,,,,,,,,,,,,,,,,,,,,,,,,,,,,,,,,,,,,,,,,,,,,,,,,,,,,,,,,,,,,,,,,,,,,,,,,,,
,,,,,,611d03b822d4c8e041ea0c32,62c53a3926bf6ce20ec814a1,2022-07-06_09h31.51.224,Colour_Asymmetry_Pilot,2022.1.3,Win32,60.22282445,62c50e9c1127f2cd403a315f,0,152,152,107,1,twofour,,,,,,,,,,,,,,,,,,,,,,,,,,,,,,,,,,,,,,,,,,,,,,,,,,,,,,,,,,,,,,,,,,,,,,,,,,,,,,,,,,,,,,,,,,,,,,,,,,,,,,,,,,,,,,,,,,,,,,,,,,,,,,,,,,,,,,,,,,,,,,,,,,,,,,,,,,,,,
,,,,,,611d03b822d4c8e041ea0c32,62c53a3926bf6ce20ec814a1,2022-07-06_09h31.51.224,Colour_Asymmetry_Pilot,2022.1.3,Win32,60.22282445,62c50e9c1127f2cd403a315f,0,153,153,130,1,twoone,,,,,,,,,,,,,,,,,,,,,,,,,,,,,,,,,,,,,,,,,,,,,,,,,,,,,,,,,,,,,,,,,,,,,,,,,,,,,,,,,,,,,,,,,,,,,,,,,,,,,,,,,,,,,,,,,,,,,,,,,,,,,,,,,,,,,,,,,,,,,,,,,,,,,,,,,,,,,
,,,,,,611d03b822d4c8e041ea0c32,62c53a3926bf6ce20ec814a1,2022-07-06_09h31.51.224,Colour_Asymmetry_Pilot,2022.1.3,Win32,60.22282445,62c50e9c1127f2cd403a315f,0,154,154,145,1,onethree,,,,,,,,,,,,,,,,,,,,,,,,,,,,,,,,,,,,,,,,,,,,,,,,,,,,,,,,,,,,,,,,,,,,,,,,,,,,,,,,,,,,,,,,,,,,,,,,,,,,,,,,,,,,,,,,,,,,,,,,,,,,,,,,,,,,,,,,,,,,,,,,,,,,,,,,,,,,,
,,,,,,611d03b822d4c8e041ea0c32,62c53a3926bf6ce20ec814a1,2022-07-06_09h31.51.224,Colour_Asymmetry_Pilot,2022.1.3,Win32,60.22282445,62c50e9c1127f2cd403a315f,0,155,155,137,1,onethree,,,,,,,,,,,,,,,,,,,,,,,,,,,,,,,,,,,,,,,,,,,,,,,,,,,,,,,,,,,,,,,,,,,,,,,,,,,,,,,,,,,,,,,,,,,,,,,,,,,,,,,,,,,,,,,,,,,,,,,,,,,,,,,,,,,,,,,,,,,,,,,,,,,,,,,,,,,,,
,,,,,,611d03b822d4c8e041ea0c32,62c53a3926bf6ce20ec814a1,2022-07-06_09h31.51.224,Colour_Asymmetry_Pilot,2022.1.3,Win32,60.22282445,62c50e9c1127f2cd403a315f,0,156,156,57,1,onethree,,,,,,,,,,,,,,,,,,,,,,,,,,,,,,,,,,,,,,,,,,,,,,,,,,,,,,,,,,,,,,,,,,,,,,,,,,,,,,,,,,,,,,,,,,,,,,,,,,,,,,,,,,,,,,,,,,,,,,,,,,,,,,,,,,,,,,,,,,,,,,,,,,,,,,,,,,,,,
,,,,,,611d03b822d4c8e041ea0c32,62c53a3926bf6ce20ec814a1,2022-07-06_09h31.51.224,Colour_Asymmetry_Pilot,2022.1.3,Win32,60.22282445,62c50e9c1127f2cd403a315f,0,157,157,62,1,fourtwo,,,,,,,,,,,,,,,,,,,,,,,,,,,,,,,,,,,,,,,,,,,,,,,,,,,,,,,,,,,,,,,,,,,,,,,,,,,,,,,,,,,,,,,,,,,,,,,,,,,,,,,,,,,,,,,,,,,,,,,,,,,,,,,,,,,,,,,,,,,,,,,,,,,,,,,,,,,,,
,,,,,,611d03b822d4c8e041ea0c32,62c53a3926bf6ce20ec814a1,2022-07-06_09h31.51.224,Colour_Asymmetry_Pilot,2022.1.3,Win32,60.22282445,62c50e9c1127f2cd403a315f,0,158,158,123,1,twofour,,,,,,,,,,,,,,,,,,,,,,,,,,,,,,,,,,,,,,,,,,,,,,,,,,,,,,,,,,,,,,,,,,,,,,,,,,,,,,,,,,,,,,,,,,,,,,,,,,,,,,,,,,,,,,,,,,,,,,,,,,,,,,,,,,,,,,,,,,,,,,,,,,,,,,,,,,,,,
,,,,,,611d03b822d4c8e041ea0c32,62c53a3926bf6ce20ec814a1,2022-07-06_09h31.51.224,Colour_Asymmetry_Pilot,2022.1.3,Win32,60.22282445,62c50e9c1127f2cd403a315f,0,159,159,41,1,onethree,,,,,,,,,,,,,,,,,,,,,,,,,,,,,,,,,,,,,,,,,,,,,,,,,,,,,,,,,,,,,,,,,,,,,,,,,,,,,,,,,,,,,,,,,,,,,,,,,,,,,,,,,,,,,,,,,,,,,,,,,,,,,,,,,,,,,,,,,,,,,,,,,,,,,,,,,,,,,
,,,,,,611d03b822d4c8e041ea0c32,62c53a3926bf6ce20ec814a1,2022-07-06_09h31.51.224,Colour_Asymmetry_Pilot,2022.1.3,Win32,60.22282445,62c50e9c1127f2cd403a315f,0,160,160,100,1,threeone,,,,,,,,,,,,,,,,,,,,,,,,,,,,,,,,,,,,,,,,,,,,,,,,,,,,,,,,,,,,,,,,,,,,,,,,,,,,,,,,,,,,,,,,,,,,,,,,,,,,,,,,,,,,,,,,,,,,,,,,,,,,,,,,,,,,,,,,,,,,,,,,,,,,,,,,,,,,,
,,,,,,611d03b822d4c8e041ea0c32,62c53a3926bf6ce20ec814a1,2022-07-06_09h31.51.224,Colour_Asymmetry_Pilot,2022.1.3,Win32,60.22282445,62c50e9c1127f2cd403a315f,0,161,161,22,1,fourtwo,,,,,,,,,,,,,,,,,,,,,,,,,,,,,,,,,,,,,,,,,,,,,,,,,,,,,,,,,,,,,,,,,,,,,,,,,,,,,,,,,,,,,,,,,,,,,,,,,,,,,,,,,,,,,,,,,,,,,,,,,,,,,,,,,,,,,,,,,,,,,,,,,,,,,,,,,,,,,
,,,,,,611d03b822d4c8e041ea0c32,62c53a3926bf6ce20ec814a1,2022-07-06_09h31.51.224,Colour_Asymmetry_Pilot,2022.1.3,Win32,60.22282445,62c50e9c1127f2cd403a315f,,,,,,,space,6.3552,space,1.0474,space,11.7451,space,4.9987,space,1.8609,space,5.6659,"[0.6547999999999998,-0.043199999999999905,-0.011800000000000033]",threefour,"[-0.9688,-0.7412000000000001,-0.4902000000000001]",2,4.2618,51.20001221,-31.20001221,1,0,0,response3disk_5,-1.599975586,11.19998169,1,0,0,rectangle_8,32.79998779,77.6000061,1,0,0,response1disk_7,7,4,4,-2.399993896,1,0,0,rectangle_4,0,0,0,0,1,,,,,,,,,,,,,,,,,,,,,,,,,,,,,,,,,,,,,,,,,,,,,,,,,,,,,,,,,,,,,,,,,,,,,,,,,,,,,,,,,,,,,,,,,,,,,,,,,,,,,,,,,,,,,
,,,,,,611d03b822d4c8e041ea0c32,62c53a3926bf6ce20ec814a1,2022-07-06_09h31.51.224,Colour_Asymmetry_Pilot,2022.1.3,Win32,60.22282445,62c50e9c1127f2cd403a315f,,,,,,,,,,,,,,,,,,,"[-0.34920000000000007,-0.702,-0.5216]",onetwo,"[0.796,0.2156,-0.27859999999999996]",4,8.1502,36,84,1,0,0,response1disk_5,-4,-7.200012207,1,0,0,rectangle_8,-4,-7.200012207,1,0,0,,,4,-4,-7.200012207,1,0,0,,1,0,1,0,1,,,,,,,,,,,,,,,,,,,,,,,,,,,,,,,,,,,,,,,,,,,,,,,,,,,,,,,,,,,,,,,,,,,,,,,,,,,,,,,,,,,,,,,,,,,,,,,,,,,,,,,,,,,,,
,,,,,,611d03b822d4c8e041ea0c32,62c53a3926bf6ce20ec814a1,2022-07-06_09h31.51.224,Colour_Asymmetry_Pilot,2022.1.3,Win32,60.22282445,62c50e9c1127f2cd403a315f,,,,,,,,,,,,,,,,,,,"[-0.4902000000000001,0.2704,-0.45899999999999996]",threefour,"[-0.8198,-0.5138,-0.7492000000000001]",4,3.9337,26.40002441,72.79998779,1,0,0,response1disk_5,0,8.799987793,1,0,0,rectangle_8,0,8.799987793,1,0,0,,,4,0,8.799987793,1,0,0,,2,0,2,0,1,,,,,,,,,,,,,,,,,,,,,,,,,,,,,,,,,,,,,,,,,,,,,,,,,,,,,,,,,,,,,,,,,,,,,,,,,,,,,,,,,,,,,,,,,,,,,,,,,,,,,,,,,,,,,
,,,,,,611d03b822d4c8e041ea0c32,62c53a3926bf6ce20ec814a1,2022-07-06_09h31.51.224,Colour_Asymmetry_Pilot,2022.1.3,Win32,60.22282445,62c50e9c1127f2cd403a315f,,,,,,,,,,,,,,,,,,,"[-0.9216,-0.5529999999999999,-0.3962]",fourthree,"[0.0351999999999999,0.41159999999999997,0.0038000000000000256]",-4,3.0838,-49.59997559,88.79998779,1,0,0,response7disk_5,-9.599975586,-3.200012207,1,0,0,rectangle_8,-9.599975586,-3.200012207,1,0,0,,,4,-9.599975586,-3.200012207,1,0,0,,3,0,3,0,1,,,,,,,,,,,,,,,,,,,,,,,,,,,,,,,,,,,,,,,,,,,,,,,,,,,,,,,,,,,,,,,,,,,,,,,,,,,,,,,,,,,,,,,,,,,,,,,,,,,,,,,,,,,,,
,,,,,,611d03b822d4c8e041ea0c32,62c53a3926bf6ce20ec814a1,2022-07-06_09h31.51.224,Colour_Asymmetry_Pilot,2022.1.3,Win32,60.22282445,62c50e9c1127f2cd403a315f,,,,,,,,,,,,,,,,,,,"[-0.050999999999999934,-0.6706000000000001,-0.804]",twofour,"[-0.5688,-0.08239999999999992,-0.1844]",-4,3.0171,-27.20001221,75.19998169,1,0,0,response7disk_5,-33.59997559,0.799987793,1,0,0,rectangle_8,-33.59997559,0.799987793,1,0,0,,,4,-33.59997559,0.799987793,1,0,0,,4,0,4,0,1,,,,,,,,,,,,,,,,,,,,,,,,,,,,,,,,,,,,,,,,,,,,,,,,,,,,,,,,,,,,,,,,,,,,,,,,,,,,,,,,,,,,,,,,,,,,,,,,,,,,,,,,,,,,,
,,,,,,611d03b822d4c8e041ea0c32,62c53a3926bf6ce20ec814a1,2022-07-06_09h31.51.224,Colour_Asymmetry_Pilot,2022.1.3,Win32,60.22282445,62c50e9c1127f2cd403a315f,,,,,,,,,,,,,,,,,,,"[-0.10599999999999998,-0.10599999999999998,0.5841999999999998]",threeone,"[-0.48240000000000005,0.3175999999999999,0.2156]",4,2.9681,28.79998779,100,1,0,0,response1disk_5,-8,2.399993896,1,0,0,rectangle_8,-8,2.399993896,1,0,0,,,4,-8,2.399993896,1,0,0,,5,0,5,0,1,,,,,,,,,,,,,,,,,,,,,,,,,,,,,,,,,,,,,,,,,,,,,,,,,,,,,,,,,,,,,,,,,,,,,,,,,,,,,,,,,,,,,,,,,,,,,,,,,,,,,,,,,,,,,
,,,,,,611d03b822d4c8e041ea0c32,62c53a3926bf6ce20ec814a1,2022-07-06_09h31.51.224,Colour_Asymmetry_Pilot,2022.1.3,Win32,60.22282445,62c50e9c1127f2cd403a315f,,,,,,,,,,,,,,,,,,,"[-0.011800000000000033,-0.906,-0.45100000000000007]",fourthree,"[-0.7412000000000001,-0.08239999999999992,-0.6864]",-4,5.7326,-48,78.3999939,1,0,0,response7disk_5,7.200012207,-0.800018311,1,0,0,rectangle_8,7.200012207,-0.800018311,1,0,0,,,4,7.200012207,-0.800018311,1,0,0,,6,0,6,0,1,,,,,,,,,,,,,,,,,,,,,,,,,,,,,,,,,,,,,,,,,,,,,,,,,,,,,,,,,,,,,,,,,,,,,,,,,,,,,,,,,,,,,,,,,,,,,,,,,,,,,,,,,,,,,
,,,,,,611d03b822d4c8e041ea0c32,62c53a3926bf6ce20ec814a1,2022-07-06_09h31.51.224,Colour_Asymmetry_Pilot,2022.1.3,Win32,60.22282445,62c50e9c1127f2cd403a315f,,,,,,,,,,,,,,,,,,,,onetwo,,-4,3.085,,,,,,,,,,,,,,,,,,,,,,,,,,,,,,,,space,258.3826,"[0.9686000000000001,0.3802000000000001,0.19999999999999996]","[0.7018,0.7802,-0.16079999999999994]",-34.39996338,67.19998169,1,0,0,response7disk,1.600036621,-3.200012207,1,0,0,rectangle,1.600036621,-3.200012207,1,0,0,,3,0.0028,0,1.600036621,-3.200012207,1,0,0,0,0,0,69,1,69,first,,,,,,,,,,,,,,,,,,,,,,,,,,,,,,,,,,,,,,,,,,,,,,,,,,,,,,,,,,,,,,,,,,,,,,,,
,,,,,,611d03b822d4c8e041ea0c32,62c53a3926bf6ce20ec814a1,2022-07-06_09h31.51.224,Colour_Asymmetry_Pilot,2022.1.3,Win32,60.22282445,62c50e9c1127f2cd403a315f,,,,,,,,,,,,,,,,,,,,twofour,,-4,4.433,,,,,,,,,,,,,,,,,,,,,,,,,,,,,,,,,,"[0.9372,0.9450000000000001,0.8980000000000001]","[0.9763999999999999,-0.1137999999999999,-0.6314]",-28,71.19998169,1,0,0,response7disk,15.20001221,-3.200012207,1,0,0,rectangle,15.20001221,-3.200012207,1,0,0,,1,0.0021,0,15.20001221,-3.200012207,1,0,0,0,1,1,75,1,75,first,,,,,,,,,,,,,,,,,,,,,,,,,,,,,,,,,,,,,,,,,,,,,,,,,,,,,,,,,,,,,,,,,,,,,,,,
,,,,,,611d03b822d4c8e041ea0c32,62c53a3926bf6ce20ec814a1,2022-07-06_09h31.51.224,Colour_Asymmetry_Pilot,2022.1.3,Win32,60.22282445,62c50e9c1127f2cd403a315f,,,,,,,,,,,,,,,,,,,,fourtwo,,-4,1.8,,,,,,,,,,,,,,,,,,,,,,,,,,,,,,,,,,"[-0.9216,-0.5529999999999999,-0.3962]","[0.22340000000000004,-0.9296,-0.7884]",-32,69.6000061,1,0,0,response7disk,15.20001221,0,1,0,0,rectangle,15.20001221,0,1,0,0,,2,0.0017,0,15.20001221,0,1,0,0,0,2,2,20,1,20,first,,,,,,,,,,,,,,,,,,,,,,,,,,,,,,,,,,,,,,,,,,,,,,,,,,,,,,,,,,,,,,,,,,,,,,,,
,,,,,,611d03b822d4c8e041ea0c32,62c53a3926bf6ce20ec814a1,2022-07-06_09h31.51.224,Colour_Asymmetry_Pilot,2022.1.3,Win32,60.22282445,62c50e9c1127f2cd403a315f,,,,,,,,,,,,,,,,,,,,twofour,,-4,1.7496,,,,,,,,,,,,,,,,,,,,,,,,,,,,,,,,,,"[-0.9688,-0.7412000000000001,-0.4902000000000001]","[0.9763999999999999,-0.1137999999999999,-0.6314]",-40,71.19998169,1,0,0,response7disk,12.79998779,13.6000061,1,0,0,rectangle,26.40002441,-71.20001221,1,0,0,1,1,8.3169,1,0.799987793,0,1,0,0,0,3,3,104,1,23,second,response3disk_3,rectangle,,,,,,,,,,,,,,,,,,,,,,,,,,,,,,,,,,,,,,,,,,,,,,,,,,,,,,,,,,,,,,,,,,,,,,
,,,,,,611d03b822d4c8e041ea0c32,62c53a3926bf6ce20ec814a1,2022-07-06_09h31.51.224,Colour_Asymmetry_Pilot,2022.1.3,Win32,60.22282445,62c50e9c1127f2cd403a315f,,,,,,,,,,,,,,,,,,,,fourtwo,,-4,2.7495,,,,,,,,,,,,,,,,,,,,,,,,,,,,,,,,,,"[-0.01980000000000004,-0.5138,-0.38039999999999996]","[0.796,0.2156,-0.27859999999999996]",-32.79998779,57.6000061,1,0,0,response7disk,-8.799987793,8.799987793,1,0,0,rectangle,-8.799987793,8.799987793,1,0,0,1,2,0.002,0,-8.799987793,8.799987793,1,0,0,0,4,4,37,1,37,first,,,,,,,,,,,,,,,,,,,,,,,,,,,,,,,,,,,,,,,,,,,,,,,,,,,,,,,,,,,,,,,,,,,,,,,,
,,,,,,611d03b822d4c8e041ea0c32,62c53a3926bf6ce20ec814a1,2022-07-06_09h31.51.224,Colour_Asymmetry_Pilot,2022.1.3,Win32,60.22282445,62c50e9c1127f2cd403a315f,,,,,,,,,,,,,,,,,,,,fourtwo,,-4,1.7842,,,,,,,,,,,,,,,,,,,,,,,,,,,,,,,,,,"[-0.17659999999999998,-0.2864,-0.8354]","[0.9686000000000001,0.3802000000000001,0.19999999999999996]",-29.59997559,53.6000061,1,0,0,response7disk,-2.399963379,-4.800018311,1,0,0,rectangle,-2.399963379,-4.800018311,1,0,0,1,3,0.0019,0,-2.399963379,-4.800018311,1,0,0,0,5,5,137,1,56,second,,,,,,,,,,,,,,,,,,,,,,,,,,,,,,,,,,,,,,,,,,,,,,,,,,,,,,,,,,,,,,,,,,,,,,,,
,,,,,,611d03b822d4c8e041ea0c32,62c53a3926bf6ce20ec814a1,2022-07-06_09h31.51.224,Colour_Asymmetry_Pilot,2022.1.3,Win32,60.22282445,62c50e9c1127f2cd403a315f,,,,,,,,,,,,,,,,,,,,onetwo,,-4,1.5994,,,,,,,,,,,,,,,,,,,,,,,,,,,,,,,,,,"[0.9686000000000001,0.3802000000000001,0.19999999999999996]","[-0.5922000000000001,-0.7492000000000001,-0.5296000000000001]",-35.20001221,55.19998169,1,0,0,response7disk,18.40002441,-5.600006104,1,0,0,rectangle,18.40002441,-5.600006104,1,0,0,1,2,0.0017,0,18.40002441,-5.600006104,1,0,0,0,6,6,38,1,38,first,,,,,,,,,,,,,,,,,,,,,,,,,,,,,,,,,,,,,,,,,,,,,,,,,,,,,,,,,,,,,,,,,,,,,,,,
,,,,,,611d03b822d4c8e041ea0c32,62c53a3926bf6ce20ec814a1,2022-07-06_09h31.51.224,Colour_Asymmetry_Pilot,2022.1.3,Win32,60.22282445,62c50e9c1127f2cd403a315f,,,,,,,,,,,,,,,,,,,,fourthree,,-4,3.8368,,,,,,,,,,,,,,,,,,,,,,,,,,,,,,,,,,"[-0.8198,-0.5138,-0.7492000000000001]","[-0.48240000000000005,0.3175999999999999,0.2156]",-26.39996338,61.6000061,1,0,0,response7disk,-11.20001221,-8,1,0,0,rectangle,85.60003662,34.3999939,1,0,0,3,3,3.1828,1,14.40002441,5.600006104,1,0,0,0,7,7,97,1,16,second,response1disk_3,rectangle,,,,,,,,,,,,,,,,,,,,,,,,,,,,,,,,,,,,,,,,,,,,,,,,,,,,,,,,,,,,,,,,,,,,,,
,,,,,,611d03b822d4c8e041ea0c32,62c53a3926bf6ce20ec814a1,2022-07-06_09h31.51.224,Colour_Asymmetry_Pilot,2022.1.3,Win32,60.22282445,62c50e9c1127f2cd403a315f,,,,,,,,,,,,,,,,,,,,twoone,,-4,1.5673,,,,,,,,,,,,,,,,,,,,,,,,,,,,,,,,,,"[0.9686000000000001,0.3802000000000001,0.19999999999999996]","[-0.4902000000000001,0.2704,-0.45899999999999996]",-30.39996338,73.6000061,1,0,0,response7disk,4.799987793,-7.200012207,1,0,0,rectangle,4.799987793,-7.200012207,1,0,0,3,2,0.0015,0,4.799987793,-7.200012207,1,0,0,0,8,8,60,1,60,first,,,,,,,,,,,,,,,,,,,,,,,,,,,,,,,,,,,,,,,,,,,,,,,,,,,,,,,,,,,,,,,,,,,,,,,,
,,,,,,611d03b822d4c8e041ea0c32,62c53a3926bf6ce20ec814a1,2022-07-06_09h31.51.224,Colour_Asymmetry_Pilot,2022.1.3,Win32,60.22282445,62c50e9c1127f2cd403a315f,,,,,,,,,,,,,,,,,,,,fourtwo,,-4,1.2831,,,,,,,,,,,,,,,,,,,,,,,,,,,,,,,,,,"[0.6547999999999998,-0.043199999999999905,-0.011800000000000033]","[-0.34920000000000007,-0.702,-0.5216]",-52,88,1,0,0,response7disk,14.40002441,1.600006104,1,0,0,rectangle,14.40002441,1.600006104,1,0,0,3,2,0.0004,0,14.40002441,1.600006104,1,0,0,0,9,9,10,1,10,first,,,,,,,,,,,,,,,,,,,,,,,,,,,,,,,,,,,,,,,,,,,,,,,,,,,,,,,,,,,,,,,,,,,,,,,,
,,,,,,611d03b822d4c8e041ea0c32,62c53a3926bf6ce20ec814a1,2022-07-06_09h31.51.224,Colour_Asymmetry_Pilot,2022.1.3,Win32,60.22282445,62c50e9c1127f2cd403a315f,,,,,,,,,,,,,,,,,,,,onethree,,-4,0.7338,,,,,,,,,,,,,,,,,,,,,,,,,,,,,,,,,,"[0.34099999999999997,0.5841999999999998,-0.9844]","[-0.5688,-0.08239999999999992,-0.1844]",-34.39996338,75.19998169,1,0,0,response7disk,0.799987793,6.399993896,1,0,0,rectangle,0.799987793,6.399993896,1,0,0,3,1,0.0014,0,0.799987793,6.399993896,1,0,0,0,10,10,24,1,24,first,,,,,,,,,,,,,,,,,,,,,,,,,,,,,,,,,,,,,,,,,,,,,,,,,,,,,,,,,,,,,,,,,,,,,,,,
,,,,,,611d03b822d4c8e041ea0c32,62c53a3926bf6ce20ec814a1,2022-07-06_09h31.51.224,Colour_Asymmetry_Pilot,2022.1.3,Win32,60.22282445,62c50e9c1127f2cd403a315f,,,,,,,,,,,,,,,,,,,,twoone,,-4,0.551,,,,,,,,,,,,,,,,,,,,,,,,,,,,,,,,,,"[-0.6235999999999999,-0.6786,-0.08239999999999992]","[0.30180000000000007,-0.7884,-0.9844]",-31.20001221,48,1,0,0,response7disk,-15.20001221,-14.3999939,1,0,0,rectangle,-15.20001221,-14.3999939,1,0,0,-2,1,0.0004,0,-15.20001221,-14.3999939,1,0,0,0,11,11,93,1,12,second,,,,,,,,,,,,,,,,,,,,,,,,,,,,,,,,,,,,,,,,,,,,,,,,,,,,,,,,,,,,,,,,,,,,,,,,
,,,,,,611d03b822d4c8e041ea0c32,62c53a3926bf6ce20ec814a1,2022-07-06_09h31.51.224,Colour_Asymmetry_Pilot,2022.1.3,Win32,60.22282445,62c50e9c1127f2cd403a315f,,,,,,,,,,,,,,,,,,,,fourthree,,-4,0.6334,,,,,,,,,,,,,,,,,,,,,,,,,,,,,,,,,,"[0.7802,-0.23140000000000005,-0.20799999999999996]","[0.9842,0.7409999999999999,-0.6628000000000001]",-28.79998779,62.3999939,1,0,0,response7disk,-8,7.199981689,1,0,0,rectangle,-8,7.199981689,1,0,0,-2,1,0.0004,0,-8,7.199981689,1,0,0,0,12,12,139,1,58,second,,,,,,,,,,,,,,,,,,,,,,,,,,,,,,,,,,,,,,,,,,,,,,,,,,,,,,,,,,,,,,,,,,,,,,,,
,,,,,,611d03b822d4c8e041ea0c32,62c53a3926bf6ce20ec814a1,2022-07-06_09h31.51.224,Colour_Asymmetry_Pilot,2022.1.3,Win32,60.22282445,62c50e9c1127f2cd403a315f,,,,,,,,,,,,,,,,,,,,twofour,,-4,0.5022,,,,,,,,,,,,,,,,,,,,,,,,,,,,,,,,,,"[0.9763999999999999,-0.1137999999999999,-0.6314]","[-0.6235999999999999,-0.6786,-0.08239999999999992]",-44,70.3999939,1,0,0,response7disk,12,-0.800018311,1,0,0,rectangle,12,-0.800018311,1,0,0,-2,3,0.0015,0,12,-0.800018311,1,0,0,0,13,13,115,1,34,second,,,,,,,,,,,,,,,,,,,,,,,,,,,,,,,,,,,,,,,,,,,,,,,,,,,,,,,,,,,,,,,,,,,,,,,,
,,,,,,611d03b822d4c8e041ea0c32,62c53a3926bf6ce20ec814a1,2022-07-06_09h31.51.224,Colour_Asymmetry_Pilot,2022.1.3,Win32,60.22282445,62c50e9c1127f2cd403a315f,,,,,,,,,,,,,,,,,,,,threefour,,-4,1.2332,,,,,,,,,,,,,,,,,,,,,,,,,,,,,,,,,,"[0.04299999999999993,0.16060000000000008,-0.6628000000000001]","[-0.9766,-0.6472,0.07440000000000002]",-41.59997559,70.3999939,1,0,0,response7disk,-1.599975586,3.199981689,1,0,0,rectangle,-18.39996338,-67.20001221,1,0,0,-1,1,2.149,1,13.60003662,4.799987793,1,0,0,0,14,14,161,1,80,second,response5disk_3,rectangle,,,,,,,,,,,,,,,,,,,,,,,,,,,,,,,,,,,,,,,,,,,,,,,,,,,,,,,,,,,,,,,,,,,,,,
