trials.thisRepN,trials.thisTrialN,trials.thisN,trials.thisIndex,trials.ran,Colourcodes,participant,session,date,expName,psychopyVersion,OS,frameRate,study_id,trials_4.thisRepN,trials_4.thisTrialN,trials_4.thisN,trials_4.thisIndex,trials_4.ran,StimulusPos,key_resp.keys,key_resp.rt,key_resp_2.keys,key_resp_2.rt,key_resp_15.keys,key_resp_15.rt,key_resp_17.keys,key_resp_17.rt,key_resp_9.keys,key_resp_9.rt,key_resp_10.keys,key_resp_10.rt,Circle1_col,Ecc,Circle2_col,similarity,response_time,mouse_5.x,mouse_5.y,mouse_5.leftButton,mouse_5.midButton,mouse_5.rightButton,mouse_5.clicked_name,mouse_10.x,mouse_10.y,mouse_10.leftButton,mouse_10.midButton,mouse_10.rightButton,mouse_10.clicked_name,mouse_7.x,mouse_7.y,mouse_7.leftButton,mouse_7.midButton,mouse_7.rightButton,mouse_7.clicked_name,catchprac,catchnumberprac,mouse_6.x,mouse_6.y,mouse_6.leftButton,mouse_6.midButton,mouse_6.rightButton,mouse_6.clicked_name,duringprac.thisRepN,duringprac.thisTrialN,duringprac.thisN,duringprac.thisIndex,duringprac.ran,key_resp_22.keys,key_resp_22.rt,Circle1_colour,Circle2_colour,mouse.x,mouse.y,mouse.leftButton,mouse.midButton,mouse.rightButton,mouse.clicked_name,mouse_2.x,mouse_2.y,mouse_2.leftButton,mouse_2.midButton,mouse_2.rightButton,mouse_2.clicked_name,mouse_3.x,mouse_3.y,mouse_3.leftButton,mouse_3.midButton,mouse_3.rightButton,catchresponse,catchnumber,response_time_catch,Catch,mouse_11.x,mouse_11.y,mouse_11.leftButton,mouse_11.midButton,mouse_11.rightButton,trials_2.thisRepN,trials_2.thisTrialN,trials_2.thisN,trials_2.thisIndex,trials_2.ran,Colourpair,Temporder,mouse_3.clicked_name,mouse_11.clicked_name,trials_3.thisRepN,trials_3.thisTrialN,trials_3.thisN,trials_3.thisIndex,trials_3.ran,key_resp_instr_Ishi.keys,key_resp_instr_Ishi.rt,Ishi_trial_keyresp.keys,Ishi_textbox.text,Ishi_mouse.x,Ishi_mouse.y,Ishi_mouse.leftButton,Ishi_mouse.midButton,Ishi_mouse.rightButton,Ishi_mouse.clicked_name,Ishi_loop.thisRepN,Ishi_loop.thisTrialN,Ishi_loop.thisN,Ishi_loop.thisIndex,Ishi_loop.ran,imageaddress,textbox.text,mouse_4.x,mouse_4.y,mouse_4.leftButton,mouse_4.midButton,mouse_4.rightButton,mouse_4.clicked_name,textbox_2.text,mouse_8.x,mouse_8.y,mouse_8.leftButton,mouse_8.midButton,mouse_8.rightButton,mouse_8.clicked_name,textbox_3.text,mouse_9.x,mouse_9.y,mouse_9.leftButton,mouse_9.midButton,mouse_9.rightButton,mouse_9.clicked_name,textbox_4.text,mouse_12.x,mouse_12.y,mouse_12.leftButton,mouse_12.midButton,mouse_12.rightButton,mouse_12.clicked_name,textbox_5.text,mouse_13.x,mouse_13.y,mouse_13.leftButton,mouse_13.midButton,mouse_13.rightButton,mouse_13.clicked_name,textbox_6.text,mouse_14.x,mouse_14.y,mouse_14.leftButton,mouse_14.midButton,mouse_14.rightButton,mouse_14.clicked_name,textbox_7.text,mouse_15.x,mouse_15.y,mouse_15.leftButton,mouse_15.midButton,mouse_15.rightButton,mouse_15.clicked_name
0,0,0,82,1,,60ccf2ea70e16324c450f531,62c53891d6dd7e51736dafa5,2022-07-06_09h25.02.466,Colour_Asymmetry_Pilot,2022.1.3,Win32,59.94125757,62c50e9c1127f2cd403a315f,,,,,,,,,,,,,,,,,,,,,,,,,,,,,,,,,,,,,,,,,,,,,,,,,,,,,,,,,,,,,,,,,,,,,,,,,,,,,,,,,,,,,,,,,,,,,,,,,,,,,,,,,,,,,,,,,,,,,,,,,,,,,,,,,,,,,,,,,,,,,,,,,,,,,,,,,,,,,,,,,,,
0,1,1,69,1,,60ccf2ea70e16324c450f531,62c53891d6dd7e51736dafa5,2022-07-06_09h25.02.466,Colour_Asymmetry_Pilot,2022.1.3,Win32,59.94125757,62c50e9c1127f2cd403a315f,,,,,,,,,,,,,,,,,,,,,,,,,,,,,,,,,,,,,,,,,,,,,,,,,,,,,,,,,,,,,,,,,,,,,,,,,,,,,,,,,,,,,,,,,,,,,,,,,,,,,,,,,,,,,,,,,,,,,,,,,,,,,,,,,,,,,,,,,,,,,,,,,,,,,,,,,,,,,,,,,,,
0,2,2,92,1,,60ccf2ea70e16324c450f531,62c53891d6dd7e51736dafa5,2022-07-06_09h25.02.466,Colour_Asymmetry_Pilot,2022.1.3,Win32,59.94125757,62c50e9c1127f2cd403a315f,,,,,,,,,,,,,,,,,,,,,,,,,,,,,,,,,,,,,,,,,,,,,,,,,,,,,,,,,,,,,,,,,,,,,,,,,,,,,,,,,,,,,,,,,,,,,,,,,,,,,,,,,,,,,,,,,,,,,,,,,,,,,,,,,,,,,,,,,,,,,,,,,,,,,,,,,,,,,,,,,,,
0,3,3,80,1,,60ccf2ea70e16324c450f531,62c53891d6dd7e51736dafa5,2022-07-06_09h25.02.466,Colour_Asymmetry_Pilot,2022.1.3,Win32,59.94125757,62c50e9c1127f2cd403a315f,,,,,,,,,,,,,,,,,,,,,,,,,,,,,,,,,,,,,,,,,,,,,,,,,,,,,,,,,,,,,,,,,,,,,,,,,,,,,,,,,,,,,,,,,,,,,,,,,,,,,,,,,,,,,,,,,,,,,,,,,,,,,,,,,,,,,,,,,,,,,,,,,,,,,,,,,,,,,,,,,,,
0,4,4,3,1,,60ccf2ea70e16324c450f531,62c53891d6dd7e51736dafa5,2022-07-06_09h25.02.466,Colour_Asymmetry_Pilot,2022.1.3,Win32,59.94125757,62c50e9c1127f2cd403a315f,,,,,,,,,,,,,,,,,,,,,,,,,,,,,,,,,,,,,,,,,,,,,,,,,,,,,,,,,,,,,,,,,,,,,,,,,,,,,,,,,,,,,,,,,,,,,,,,,,,,,,,,,,,,,,,,,,,,,,,,,,,,,,,,,,,,,,,,,,,,,,,,,,,,,,,,,,,,,,,,,,,
0,5,5,33,1,,60ccf2ea70e16324c450f531,62c53891d6dd7e51736dafa5,2022-07-06_09h25.02.466,Colour_Asymmetry_Pilot,2022.1.3,Win32,59.94125757,62c50e9c1127f2cd403a315f,,,,,,,,,,,,,,,,,,,,,,,,,,,,,,,,,,,,,,,,,,,,,,,,,,,,,,,,,,,,,,,,,,,,,,,,,,,,,,,,,,,,,,,,,,,,,,,,,,,,,,,,,,,,,,,,,,,,,,,,,,,,,,,,,,,,,,,,,,,,,,,,,,,,,,,,,,,,,,,,,,,
0,6,6,17,1,,60ccf2ea70e16324c450f531,62c53891d6dd7e51736dafa5,2022-07-06_09h25.02.466,Colour_Asymmetry_Pilot,2022.1.3,Win32,59.94125757,62c50e9c1127f2cd403a315f,,,,,,,,,,,,,,,,,,,,,,,,,,,,,,,,,,,,,,,,,,,,,,,,,,,,,,,,,,,,,,,,,,,,,,,,,,,,,,,,,,,,,,,,,,,,,,,,,,,,,,,,,,,,,,,,,,,,,,,,,,,,,,,,,,,,,,,,,,,,,,,,,,,,,,,,,,,,,,,,,,,
0,7,7,49,1,,60ccf2ea70e16324c450f531,62c53891d6dd7e51736dafa5,2022-07-06_09h25.02.466,Colour_Asymmetry_Pilot,2022.1.3,Win32,59.94125757,62c50e9c1127f2cd403a315f,,,,,,,,,,,,,,,,,,,,,,,,,,,,,,,,,,,,,,,,,,,,,,,,,,,,,,,,,,,,,,,,,,,,,,,,,,,,,,,,,,,,,,,,,,,,,,,,,,,,,,,,,,,,,,,,,,,,,,,,,,,,,,,,,,,,,,,,,,,,,,,,,,,,,,,,,,,,,,,,,,,
0,8,8,21,1,,60ccf2ea70e16324c450f531,62c53891d6dd7e51736dafa5,2022-07-06_09h25.02.466,Colour_Asymmetry_Pilot,2022.1.3,Win32,59.94125757,62c50e9c1127f2cd403a315f,,,,,,,,,,,,,,,,,,,,,,,,,,,,,,,,,,,,,,,,,,,,,,,,,,,,,,,,,,,,,,,,,,,,,,,,,,,,,,,,,,,,,,,,,,,,,,,,,,,,,,,,,,,,,,,,,,,,,,,,,,,,,,,,,,,,,,,,,,,,,,,,,,,,,,,,,,,,,,,,,,,
0,9,9,41,1,,60ccf2ea70e16324c450f531,62c53891d6dd7e51736dafa5,2022-07-06_09h25.02.466,Colour_Asymmetry_Pilot,2022.1.3,Win32,59.94125757,62c50e9c1127f2cd403a315f,,,,,,,,,,,,,,,,,,,,,,,,,,,,,,,,,,,,,,,,,,,,,,,,,,,,,,,,,,,,,,,,,,,,,,,,,,,,,,,,,,,,,,,,,,,,,,,,,,,,,,,,,,,,,,,,,,,,,,,,,,,,,,,,,,,,,,,,,,,,,,,,,,,,,,,,,,,,,,,,,,,
0,10,10,59,1,,60ccf2ea70e16324c450f531,62c53891d6dd7e51736dafa5,2022-07-06_09h25.02.466,Colour_Asymmetry_Pilot,2022.1.3,Win32,59.94125757,62c50e9c1127f2cd403a315f,,,,,,,,,,,,,,,,,,,,,,,,,,,,,,,,,,,,,,,,,,,,,,,,,,,,,,,,,,,,,,,,,,,,,,,,,,,,,,,,,,,,,,,,,,,,,,,,,,,,,,,,,,,,,,,,,,,,,,,,,,,,,,,,,,,,,,,,,,,,,,,,,,,,,,,,,,,,,,,,,,,
0,11,11,85,1,,60ccf2ea70e16324c450f531,62c53891d6dd7e51736dafa5,2022-07-06_09h25.02.466,Colour_Asymmetry_Pilot,2022.1.3,Win32,59.94125757,62c50e9c1127f2cd403a315f,,,,,,,,,,,,,,,,,,,,,,,,,,,,,,,,,,,,,,,,,,,,,,,,,,,,,,,,,,,,,,,,,,,,,,,,,,,,,,,,,,,,,,,,,,,,,,,,,,,,,,,,,,,,,,,,,,,,,,,,,,,,,,,,,,,,,,,,,,,,,,,,,,,,,,,,,,,,,,,,,,,
0,12,12,88,1,,60ccf2ea70e16324c450f531,62c53891d6dd7e51736dafa5,2022-07-06_09h25.02.466,Colour_Asymmetry_Pilot,2022.1.3,Win32,59.94125757,62c50e9c1127f2cd403a315f,,,,,,,,,,,,,,,,,,,,,,,,,,,,,,,,,,,,,,,,,,,,,,,,,,,,,,,,,,,,,,,,,,,,,,,,,,,,,,,,,,,,,,,,,,,,,,,,,,,,,,,,,,,,,,,,,,,,,,,,,,,,,,,,,,,,,,,,,,,,,,,,,,,,,,,,,,,,,,,,,,,
0,13,13,18,1,,60ccf2ea70e16324c450f531,62c53891d6dd7e51736dafa5,2022-07-06_09h25.02.466,Colour_Asymmetry_Pilot,2022.1.3,Win32,59.94125757,62c50e9c1127f2cd403a315f,,,,,,,,,,,,,,,,,,,,,,,,,,,,,,,,,,,,,,,,,,,,,,,,,,,,,,,,,,,,,,,,,,,,,,,,,,,,,,,,,,,,,,,,,,,,,,,,,,,,,,,,,,,,,,,,,,,,,,,,,,,,,,,,,,,,,,,,,,,,,,,,,,,,,,,,,,,,,,,,,,,
0,14,14,15,1,,60ccf2ea70e16324c450f531,62c53891d6dd7e51736dafa5,2022-07-06_09h25.02.466,Colour_Asymmetry_Pilot,2022.1.3,Win32,59.94125757,62c50e9c1127f2cd403a315f,,,,,,,,,,,,,,,,,,,,,,,,,,,,,,,,,,,,,,,,,,,,,,,,,,,,,,,,,,,,,,,,,,,,,,,,,,,,,,,,,,,,,,,,,,,,,,,,,,,,,,,,,,,,,,,,,,,,,,,,,,,,,,,,,,,,,,,,,,,,,,,,,,,,,,,,,,,,,,,,,,,
0,15,15,91,1,,60ccf2ea70e16324c450f531,62c53891d6dd7e51736dafa5,2022-07-06_09h25.02.466,Colour_Asymmetry_Pilot,2022.1.3,Win32,59.94125757,62c50e9c1127f2cd403a315f,,,,,,,,,,,,,,,,,,,,,,,,,,,,,,,,,,,,,,,,,,,,,,,,,,,,,,,,,,,,,,,,,,,,,,,,,,,,,,,,,,,,,,,,,,,,,,,,,,,,,,,,,,,,,,,,,,,,,,,,,,,,,,,,,,,,,,,,,,,,,,,,,,,,,,,,,,,,,,,,,,,
0,16,16,8,1,,60ccf2ea70e16324c450f531,62c53891d6dd7e51736dafa5,2022-07-06_09h25.02.466,Colour_Asymmetry_Pilot,2022.1.3,Win32,59.94125757,62c50e9c1127f2cd403a315f,,,,,,,,,,,,,,,,,,,,,,,,,,,,,,,,,,,,,,,,,,,,,,,,,,,,,,,,,,,,,,,,,,,,,,,,,,,,,,,,,,,,,,,,,,,,,,,,,,,,,,,,,,,,,,,,,,,,,,,,,,,,,,,,,,,,,,,,,,,,,,,,,,,,,,,,,,,,,,,,,,,
0,17,17,34,1,,60ccf2ea70e16324c450f531,62c53891d6dd7e51736dafa5,2022-07-06_09h25.02.466,Colour_Asymmetry_Pilot,2022.1.3,Win32,59.94125757,62c50e9c1127f2cd403a315f,,,,,,,,,,,,,,,,,,,,,,,,,,,,,,,,,,,,,,,,,,,,,,,,,,,,,,,,,,,,,,,,,,,,,,,,,,,,,,,,,,,,,,,,,,,,,,,,,,,,,,,,,,,,,,,,,,,,,,,,,,,,,,,,,,,,,,,,,,,,,,,,,,,,,,,,,,,,,,,,,,,
0,18,18,43,1,,60ccf2ea70e16324c450f531,62c53891d6dd7e51736dafa5,2022-07-06_09h25.02.466,Colour_Asymmetry_Pilot,2022.1.3,Win32,59.94125757,62c50e9c1127f2cd403a315f,,,,,,,,,,,,,,,,,,,,,,,,,,,,,,,,,,,,,,,,,,,,,,,,,,,,,,,,,,,,,,,,,,,,,,,,,,,,,,,,,,,,,,,,,,,,,,,,,,,,,,,,,,,,,,,,,,,,,,,,,,,,,,,,,,,,,,,,,,,,,,,,,,,,,,,,,,,,,,,,,,,
0,19,19,47,1,,60ccf2ea70e16324c450f531,62c53891d6dd7e51736dafa5,2022-07-06_09h25.02.466,Colour_Asymmetry_Pilot,2022.1.3,Win32,59.94125757,62c50e9c1127f2cd403a315f,,,,,,,,,,,,,,,,,,,,,,,,,,,,,,,,,,,,,,,,,,,,,,,,,,,,,,,,,,,,,,,,,,,,,,,,,,,,,,,,,,,,,,,,,,,,,,,,,,,,,,,,,,,,,,,,,,,,,,,,,,,,,,,,,,,,,,,,,,,,,,,,,,,,,,,,,,,,,,,,,,,
0,20,20,31,1,,60ccf2ea70e16324c450f531,62c53891d6dd7e51736dafa5,2022-07-06_09h25.02.466,Colour_Asymmetry_Pilot,2022.1.3,Win32,59.94125757,62c50e9c1127f2cd403a315f,,,,,,,,,,,,,,,,,,,,,,,,,,,,,,,,,,,,,,,,,,,,,,,,,,,,,,,,,,,,,,,,,,,,,,,,,,,,,,,,,,,,,,,,,,,,,,,,,,,,,,,,,,,,,,,,,,,,,,,,,,,,,,,,,,,,,,,,,,,,,,,,,,,,,,,,,,,,,,,,,,,
0,21,21,29,1,,60ccf2ea70e16324c450f531,62c53891d6dd7e51736dafa5,2022-07-06_09h25.02.466,Colour_Asymmetry_Pilot,2022.1.3,Win32,59.94125757,62c50e9c1127f2cd403a315f,,,,,,,,,,,,,,,,,,,,,,,,,,,,,,,,,,,,,,,,,,,,,,,,,,,,,,,,,,,,,,,,,,,,,,,,,,,,,,,,,,,,,,,,,,,,,,,,,,,,,,,,,,,,,,,,,,,,,,,,,,,,,,,,,,,,,,,,,,,,,,,,,,,,,,,,,,,,,,,,,,,
0,22,22,81,1,,60ccf2ea70e16324c450f531,62c53891d6dd7e51736dafa5,2022-07-06_09h25.02.466,Colour_Asymmetry_Pilot,2022.1.3,Win32,59.94125757,62c50e9c1127f2cd403a315f,,,,,,,,,,,,,,,,,,,,,,,,,,,,,,,,,,,,,,,,,,,,,,,,,,,,,,,,,,,,,,,,,,,,,,,,,,,,,,,,,,,,,,,,,,,,,,,,,,,,,,,,,,,,,,,,,,,,,,,,,,,,,,,,,,,,,,,,,,,,,,,,,,,,,,,,,,,,,,,,,,,
0,23,23,14,1,,60ccf2ea70e16324c450f531,62c53891d6dd7e51736dafa5,2022-07-06_09h25.02.466,Colour_Asymmetry_Pilot,2022.1.3,Win32,59.94125757,62c50e9c1127f2cd403a315f,,,,,,,,,,,,,,,,,,,,,,,,,,,,,,,,,,,,,,,,,,,,,,,,,,,,,,,,,,,,,,,,,,,,,,,,,,,,,,,,,,,,,,,,,,,,,,,,,,,,,,,,,,,,,,,,,,,,,,,,,,,,,,,,,,,,,,,,,,,,,,,,,,,,,,,,,,,,,,,,,,,
0,24,24,87,1,,60ccf2ea70e16324c450f531,62c53891d6dd7e51736dafa5,2022-07-06_09h25.02.466,Colour_Asymmetry_Pilot,2022.1.3,Win32,59.94125757,62c50e9c1127f2cd403a315f,,,,,,,,,,,,,,,,,,,,,,,,,,,,,,,,,,,,,,,,,,,,,,,,,,,,,,,,,,,,,,,,,,,,,,,,,,,,,,,,,,,,,,,,,,,,,,,,,,,,,,,,,,,,,,,,,,,,,,,,,,,,,,,,,,,,,,,,,,,,,,,,,,,,,,,,,,,,,,,,,,,
0,25,25,68,1,,60ccf2ea70e16324c450f531,62c53891d6dd7e51736dafa5,2022-07-06_09h25.02.466,Colour_Asymmetry_Pilot,2022.1.3,Win32,59.94125757,62c50e9c1127f2cd403a315f,,,,,,,,,,,,,,,,,,,,,,,,,,,,,,,,,,,,,,,,,,,,,,,,,,,,,,,,,,,,,,,,,,,,,,,,,,,,,,,,,,,,,,,,,,,,,,,,,,,,,,,,,,,,,,,,,,,,,,,,,,,,,,,,,,,,,,,,,,,,,,,,,,,,,,,,,,,,,,,,,,,
0,26,26,16,1,,60ccf2ea70e16324c450f531,62c53891d6dd7e51736dafa5,2022-07-06_09h25.02.466,Colour_Asymmetry_Pilot,2022.1.3,Win32,59.94125757,62c50e9c1127f2cd403a315f,,,,,,,,,,,,,,,,,,,,,,,,,,,,,,,,,,,,,,,,,,,,,,,,,,,,,,,,,,,,,,,,,,,,,,,,,,,,,,,,,,,,,,,,,,,,,,,,,,,,,,,,,,,,,,,,,,,,,,,,,,,,,,,,,,,,,,,,,,,,,,,,,,,,,,,,,,,,,,,,,,,
0,27,27,90,1,,60ccf2ea70e16324c450f531,62c53891d6dd7e51736dafa5,2022-07-06_09h25.02.466,Colour_Asymmetry_Pilot,2022.1.3,Win32,59.94125757,62c50e9c1127f2cd403a315f,,,,,,,,,,,,,,,,,,,,,,,,,,,,,,,,,,,,,,,,,,,,,,,,,,,,,,,,,,,,,,,,,,,,,,,,,,,,,,,,,,,,,,,,,,,,,,,,,,,,,,,,,,,,,,,,,,,,,,,,,,,,,,,,,,,,,,,,,,,,,,,,,,,,,,,,,,,,,,,,,,,
0,28,28,32,1,,60ccf2ea70e16324c450f531,62c53891d6dd7e51736dafa5,2022-07-06_09h25.02.466,Colour_Asymmetry_Pilot,2022.1.3,Win32,59.94125757,62c50e9c1127f2cd403a315f,,,,,,,,,,,,,,,,,,,,,,,,,,,,,,,,,,,,,,,,,,,,,,,,,,,,,,,,,,,,,,,,,,,,,,,,,,,,,,,,,,,,,,,,,,,,,,,,,,,,,,,,,,,,,,,,,,,,,,,,,,,,,,,,,,,,,,,,,,,,,,,,,,,,,,,,,,,,,,,,,,,
0,29,29,9,1,,60ccf2ea70e16324c450f531,62c53891d6dd7e51736dafa5,2022-07-06_09h25.02.466,Colour_Asymmetry_Pilot,2022.1.3,Win32,59.94125757,62c50e9c1127f2cd403a315f,,,,,,,,,,,,,,,,,,,,,,,,,,,,,,,,,,,,,,,,,,,,,,,,,,,,,,,,,,,,,,,,,,,,,,,,,,,,,,,,,,,,,,,,,,,,,,,,,,,,,,,,,,,,,,,,,,,,,,,,,,,,,,,,,,,,,,,,,,,,,,,,,,,,,,,,,,,,,,,,,,,
0,30,30,11,1,,60ccf2ea70e16324c450f531,62c53891d6dd7e51736dafa5,2022-07-06_09h25.02.466,Colour_Asymmetry_Pilot,2022.1.3,Win32,59.94125757,62c50e9c1127f2cd403a315f,,,,,,,,,,,,,,,,,,,,,,,,,,,,,,,,,,,,,,,,,,,,,,,,,,,,,,,,,,,,,,,,,,,,,,,,,,,,,,,,,,,,,,,,,,,,,,,,,,,,,,,,,,,,,,,,,,,,,,,,,,,,,,,,,,,,,,,,,,,,,,,,,,,,,,,,,,,,,,,,,,,
0,31,31,45,1,,60ccf2ea70e16324c450f531,62c53891d6dd7e51736dafa5,2022-07-06_09h25.02.466,Colour_Asymmetry_Pilot,2022.1.3,Win32,59.94125757,62c50e9c1127f2cd403a315f,,,,,,,,,,,,,,,,,,,,,,,,,,,,,,,,,,,,,,,,,,,,,,,,,,,,,,,,,,,,,,,,,,,,,,,,,,,,,,,,,,,,,,,,,,,,,,,,,,,,,,,,,,,,,,,,,,,,,,,,,,,,,,,,,,,,,,,,,,,,,,,,,,,,,,,,,,,,,,,,,,,
0,32,32,79,1,,60ccf2ea70e16324c450f531,62c53891d6dd7e51736dafa5,2022-07-06_09h25.02.466,Colour_Asymmetry_Pilot,2022.1.3,Win32,59.94125757,62c50e9c1127f2cd403a315f,,,,,,,,,,,,,,,,,,,,,,,,,,,,,,,,,,,,,,,,,,,,,,,,,,,,,,,,,,,,,,,,,,,,,,,,,,,,,,,,,,,,,,,,,,,,,,,,,,,,,,,,,,,,,,,,,,,,,,,,,,,,,,,,,,,,,,,,,,,,,,,,,,,,,,,,,,,,,,,,,,,
0,33,33,37,1,,60ccf2ea70e16324c450f531,62c53891d6dd7e51736dafa5,2022-07-06_09h25.02.466,Colour_Asymmetry_Pilot,2022.1.3,Win32,59.94125757,62c50e9c1127f2cd403a315f,,,,,,,,,,,,,,,,,,,,,,,,,,,,,,,,,,,,,,,,,,,,,,,,,,,,,,,,,,,,,,,,,,,,,,,,,,,,,,,,,,,,,,,,,,,,,,,,,,,,,,,,,,,,,,,,,,,,,,,,,,,,,,,,,,,,,,,,,,,,,,,,,,,,,,,,,,,,,,,,,,,
0,34,34,5,1,,60ccf2ea70e16324c450f531,62c53891d6dd7e51736dafa5,2022-07-06_09h25.02.466,Colour_Asymmetry_Pilot,2022.1.3,Win32,59.94125757,62c50e9c1127f2cd403a315f,,,,,,,,,,,,,,,,,,,,,,,,,,,,,,,,,,,,,,,,,,,,,,,,,,,,,,,,,,,,,,,,,,,,,,,,,,,,,,,,,,,,,,,,,,,,,,,,,,,,,,,,,,,,,,,,,,,,,,,,,,,,,,,,,,,,,,,,,,,,,,,,,,,,,,,,,,,,,,,,,,,
0,35,35,58,1,,60ccf2ea70e16324c450f531,62c53891d6dd7e51736dafa5,2022-07-06_09h25.02.466,Colour_Asymmetry_Pilot,2022.1.3,Win32,59.94125757,62c50e9c1127f2cd403a315f,,,,,,,,,,,,,,,,,,,,,,,,,,,,,,,,,,,,,,,,,,,,,,,,,,,,,,,,,,,,,,,,,,,,,,,,,,,,,,,,,,,,,,,,,,,,,,,,,,,,,,,,,,,,,,,,,,,,,,,,,,,,,,,,,,,,,,,,,,,,,,,,,,,,,,,,,,,,,,,,,,,
0,36,36,65,1,,60ccf2ea70e16324c450f531,62c53891d6dd7e51736dafa5,2022-07-06_09h25.02.466,Colour_Asymmetry_Pilot,2022.1.3,Win32,59.94125757,62c50e9c1127f2cd403a315f,,,,,,,,,,,,,,,,,,,,,,,,,,,,,,,,,,,,,,,,,,,,,,,,,,,,,,,,,,,,,,,,,,,,,,,,,,,,,,,,,,,,,,,,,,,,,,,,,,,,,,,,,,,,,,,,,,,,,,,,,,,,,,,,,,,,,,,,,,,,,,,,,,,,,,,,,,,,,,,,,,,
0,37,37,19,1,,60ccf2ea70e16324c450f531,62c53891d6dd7e51736dafa5,2022-07-06_09h25.02.466,Colour_Asymmetry_Pilot,2022.1.3,Win32,59.94125757,62c50e9c1127f2cd403a315f,,,,,,,,,,,,,,,,,,,,,,,,,,,,,,,,,,,,,,,,,,,,,,,,,,,,,,,,,,,,,,,,,,,,,,,,,,,,,,,,,,,,,,,,,,,,,,,,,,,,,,,,,,,,,,,,,,,,,,,,,,,,,,,,,,,,,,,,,,,,,,,,,,,,,,,,,,,,,,,,,,,
0,38,38,39,1,,60ccf2ea70e16324c450f531,62c53891d6dd7e51736dafa5,2022-07-06_09h25.02.466,Colour_Asymmetry_Pilot,2022.1.3,Win32,59.94125757,62c50e9c1127f2cd403a315f,,,,,,,,,,,,,,,,,,,,,,,,,,,,,,,,,,,,,,,,,,,,,,,,,,,,,,,,,,,,,,,,,,,,,,,,,,,,,,,,,,,,,,,,,,,,,,,,,,,,,,,,,,,,,,,,,,,,,,,,,,,,,,,,,,,,,,,,,,,,,,,,,,,,,,,,,,,,,,,,,,,
0,39,39,2,1,,60ccf2ea70e16324c450f531,62c53891d6dd7e51736dafa5,2022-07-06_09h25.02.466,Colour_Asymmetry_Pilot,2022.1.3,Win32,59.94125757,62c50e9c1127f2cd403a315f,,,,,,,,,,,,,,,,,,,,,,,,,,,,,,,,,,,,,,,,,,,,,,,,,,,,,,,,,,,,,,,,,,,,,,,,,,,,,,,,,,,,,,,,,,,,,,,,,,,,,,,,,,,,,,,,,,,,,,,,,,,,,,,,,,,,,,,,,,,,,,,,,,,,,,,,,,,,,,,,,,,
0,40,40,25,1,,60ccf2ea70e16324c450f531,62c53891d6dd7e51736dafa5,2022-07-06_09h25.02.466,Colour_Asymmetry_Pilot,2022.1.3,Win32,59.94125757,62c50e9c1127f2cd403a315f,,,,,,,,,,,,,,,,,,,,,,,,,,,,,,,,,,,,,,,,,,,,,,,,,,,,,,,,,,,,,,,,,,,,,,,,,,,,,,,,,,,,,,,,,,,,,,,,,,,,,,,,,,,,,,,,,,,,,,,,,,,,,,,,,,,,,,,,,,,,,,,,,,,,,,,,,,,,,,,,,,,
0,41,41,36,1,,60ccf2ea70e16324c450f531,62c53891d6dd7e51736dafa5,2022-07-06_09h25.02.466,Colour_Asymmetry_Pilot,2022.1.3,Win32,59.94125757,62c50e9c1127f2cd403a315f,,,,,,,,,,,,,,,,,,,,,,,,,,,,,,,,,,,,,,,,,,,,,,,,,,,,,,,,,,,,,,,,,,,,,,,,,,,,,,,,,,,,,,,,,,,,,,,,,,,,,,,,,,,,,,,,,,,,,,,,,,,,,,,,,,,,,,,,,,,,,,,,,,,,,,,,,,,,,,,,,,,
0,42,42,52,1,,60ccf2ea70e16324c450f531,62c53891d6dd7e51736dafa5,2022-07-06_09h25.02.466,Colour_Asymmetry_Pilot,2022.1.3,Win32,59.94125757,62c50e9c1127f2cd403a315f,,,,,,,,,,,,,,,,,,,,,,,,,,,,,,,,,,,,,,,,,,,,,,,,,,,,,,,,,,,,,,,,,,,,,,,,,,,,,,,,,,,,,,,,,,,,,,,,,,,,,,,,,,,,,,,,,,,,,,,,,,,,,,,,,,,,,,,,,,,,,,,,,,,,,,,,,,,,,,,,,,,
0,43,43,40,1,,60ccf2ea70e16324c450f531,62c53891d6dd7e51736dafa5,2022-07-06_09h25.02.466,Colour_Asymmetry_Pilot,2022.1.3,Win32,59.94125757,62c50e9c1127f2cd403a315f,,,,,,,,,,,,,,,,,,,,,,,,,,,,,,,,,,,,,,,,,,,,,,,,,,,,,,,,,,,,,,,,,,,,,,,,,,,,,,,,,,,,,,,,,,,,,,,,,,,,,,,,,,,,,,,,,,,,,,,,,,,,,,,,,,,,,,,,,,,,,,,,,,,,,,,,,,,,,,,,,,,
0,44,44,62,1,,60ccf2ea70e16324c450f531,62c53891d6dd7e51736dafa5,2022-07-06_09h25.02.466,Colour_Asymmetry_Pilot,2022.1.3,Win32,59.94125757,62c50e9c1127f2cd403a315f,,,,,,,,,,,,,,,,,,,,,,,,,,,,,,,,,,,,,,,,,,,,,,,,,,,,,,,,,,,,,,,,,,,,,,,,,,,,,,,,,,,,,,,,,,,,,,,,,,,,,,,,,,,,,,,,,,,,,,,,,,,,,,,,,,,,,,,,,,,,,,,,,,,,,,,,,,,,,,,,,,,
0,45,45,75,1,,60ccf2ea70e16324c450f531,62c53891d6dd7e51736dafa5,2022-07-06_09h25.02.466,Colour_Asymmetry_Pilot,2022.1.3,Win32,59.94125757,62c50e9c1127f2cd403a315f,,,,,,,,,,,,,,,,,,,,,,,,,,,,,,,,,,,,,,,,,,,,,,,,,,,,,,,,,,,,,,,,,,,,,,,,,,,,,,,,,,,,,,,,,,,,,,,,,,,,,,,,,,,,,,,,,,,,,,,,,,,,,,,,,,,,,,,,,,,,,,,,,,,,,,,,,,,,,,,,,,,
0,46,46,50,1,,60ccf2ea70e16324c450f531,62c53891d6dd7e51736dafa5,2022-07-06_09h25.02.466,Colour_Asymmetry_Pilot,2022.1.3,Win32,59.94125757,62c50e9c1127f2cd403a315f,,,,,,,,,,,,,,,,,,,,,,,,,,,,,,,,,,,,,,,,,,,,,,,,,,,,,,,,,,,,,,,,,,,,,,,,,,,,,,,,,,,,,,,,,,,,,,,,,,,,,,,,,,,,,,,,,,,,,,,,,,,,,,,,,,,,,,,,,,,,,,,,,,,,,,,,,,,,,,,,,,,
0,47,47,63,1,,60ccf2ea70e16324c450f531,62c53891d6dd7e51736dafa5,2022-07-06_09h25.02.466,Colour_Asymmetry_Pilot,2022.1.3,Win32,59.94125757,62c50e9c1127f2cd403a315f,,,,,,,,,,,,,,,,,,,,,,,,,,,,,,,,,,,,,,,,,,,,,,,,,,,,,,,,,,,,,,,,,,,,,,,,,,,,,,,,,,,,,,,,,,,,,,,,,,,,,,,,,,,,,,,,,,,,,,,,,,,,,,,,,,,,,,,,,,,,,,,,,,,,,,,,,,,,,,,,,,,
0,48,48,77,1,,60ccf2ea70e16324c450f531,62c53891d6dd7e51736dafa5,2022-07-06_09h25.02.466,Colour_Asymmetry_Pilot,2022.1.3,Win32,59.94125757,62c50e9c1127f2cd403a315f,,,,,,,,,,,,,,,,,,,,,,,,,,,,,,,,,,,,,,,,,,,,,,,,,,,,,,,,,,,,,,,,,,,,,,,,,,,,,,,,,,,,,,,,,,,,,,,,,,,,,,,,,,,,,,,,,,,,,,,,,,,,,,,,,,,,,,,,,,,,,,,,,,,,,,,,,,,,,,,,,,,
0,49,49,71,1,,60ccf2ea70e16324c450f531,62c53891d6dd7e51736dafa5,2022-07-06_09h25.02.466,Colour_Asymmetry_Pilot,2022.1.3,Win32,59.94125757,62c50e9c1127f2cd403a315f,,,,,,,,,,,,,,,,,,,,,,,,,,,,,,,,,,,,,,,,,,,,,,,,,,,,,,,,,,,,,,,,,,,,,,,,,,,,,,,,,,,,,,,,,,,,,,,,,,,,,,,,,,,,,,,,,,,,,,,,,,,,,,,,,,,,,,,,,,,,,,,,,,,,,,,,,,,,,,,,,,,
0,50,50,86,1,,60ccf2ea70e16324c450f531,62c53891d6dd7e51736dafa5,2022-07-06_09h25.02.466,Colour_Asymmetry_Pilot,2022.1.3,Win32,59.94125757,62c50e9c1127f2cd403a315f,,,,,,,,,,,,,,,,,,,,,,,,,,,,,,,,,,,,,,,,,,,,,,,,,,,,,,,,,,,,,,,,,,,,,,,,,,,,,,,,,,,,,,,,,,,,,,,,,,,,,,,,,,,,,,,,,,,,,,,,,,,,,,,,,,,,,,,,,,,,,,,,,,,,,,,,,,,,,,,,,,,
0,51,51,53,1,,60ccf2ea70e16324c450f531,62c53891d6dd7e51736dafa5,2022-07-06_09h25.02.466,Colour_Asymmetry_Pilot,2022.1.3,Win32,59.94125757,62c50e9c1127f2cd403a315f,,,,,,,,,,,,,,,,,,,,,,,,,,,,,,,,,,,,,,,,,,,,,,,,,,,,,,,,,,,,,,,,,,,,,,,,,,,,,,,,,,,,,,,,,,,,,,,,,,,,,,,,,,,,,,,,,,,,,,,,,,,,,,,,,,,,,,,,,,,,,,,,,,,,,,,,,,,,,,,,,,,
0,52,52,70,1,,60ccf2ea70e16324c450f531,62c53891d6dd7e51736dafa5,2022-07-06_09h25.02.466,Colour_Asymmetry_Pilot,2022.1.3,Win32,59.94125757,62c50e9c1127f2cd403a315f,,,,,,,,,,,,,,,,,,,,,,,,,,,,,,,,,,,,,,,,,,,,,,,,,,,,,,,,,,,,,,,,,,,,,,,,,,,,,,,,,,,,,,,,,,,,,,,,,,,,,,,,,,,,,,,,,,,,,,,,,,,,,,,,,,,,,,,,,,,,,,,,,,,,,,,,,,,,,,,,,,,
0,53,53,27,1,,60ccf2ea70e16324c450f531,62c53891d6dd7e51736dafa5,2022-07-06_09h25.02.466,Colour_Asymmetry_Pilot,2022.1.3,Win32,59.94125757,62c50e9c1127f2cd403a315f,,,,,,,,,,,,,,,,,,,,,,,,,,,,,,,,,,,,,,,,,,,,,,,,,,,,,,,,,,,,,,,,,,,,,,,,,,,,,,,,,,,,,,,,,,,,,,,,,,,,,,,,,,,,,,,,,,,,,,,,,,,,,,,,,,,,,,,,,,,,,,,,,,,,,,,,,,,,,,,,,,,
0,54,54,51,1,,60ccf2ea70e16324c450f531,62c53891d6dd7e51736dafa5,2022-07-06_09h25.02.466,Colour_Asymmetry_Pilot,2022.1.3,Win32,59.94125757,62c50e9c1127f2cd403a315f,,,,,,,,,,,,,,,,,,,,,,,,,,,,,,,,,,,,,,,,,,,,,,,,,,,,,,,,,,,,,,,,,,,,,,,,,,,,,,,,,,,,,,,,,,,,,,,,,,,,,,,,,,,,,,,,,,,,,,,,,,,,,,,,,,,,,,,,,,,,,,,,,,,,,,,,,,,,,,,,,,,
0,55,55,60,1,,60ccf2ea70e16324c450f531,62c53891d6dd7e51736dafa5,2022-07-06_09h25.02.466,Colour_Asymmetry_Pilot,2022.1.3,Win32,59.94125757,62c50e9c1127f2cd403a315f,,,,,,,,,,,,,,,,,,,,,,,,,,,,,,,,,,,,,,,,,,,,,,,,,,,,,,,,,,,,,,,,,,,,,,,,,,,,,,,,,,,,,,,,,,,,,,,,,,,,,,,,,,,,,,,,,,,,,,,,,,,,,,,,,,,,,,,,,,,,,,,,,,,,,,,,,,,,,,,,,,,
0,56,56,1,1,,60ccf2ea70e16324c450f531,62c53891d6dd7e51736dafa5,2022-07-06_09h25.02.466,Colour_Asymmetry_Pilot,2022.1.3,Win32,59.94125757,62c50e9c1127f2cd403a315f,,,,,,,,,,,,,,,,,,,,,,,,,,,,,,,,,,,,,,,,,,,,,,,,,,,,,,,,,,,,,,,,,,,,,,,,,,,,,,,,,,,,,,,,,,,,,,,,,,,,,,,,,,,,,,,,,,,,,,,,,,,,,,,,,,,,,,,,,,,,,,,,,,,,,,,,,,,,,,,,,,,
0,57,57,23,1,,60ccf2ea70e16324c450f531,62c53891d6dd7e51736dafa5,2022-07-06_09h25.02.466,Colour_Asymmetry_Pilot,2022.1.3,Win32,59.94125757,62c50e9c1127f2cd403a315f,,,,,,,,,,,,,,,,,,,,,,,,,,,,,,,,,,,,,,,,,,,,,,,,,,,,,,,,,,,,,,,,,,,,,,,,,,,,,,,,,,,,,,,,,,,,,,,,,,,,,,,,,,,,,,,,,,,,,,,,,,,,,,,,,,,,,,,,,,,,,,,,,,,,,,,,,,,,,,,,,,,
0,58,58,46,1,,60ccf2ea70e16324c450f531,62c53891d6dd7e51736dafa5,2022-07-06_09h25.02.466,Colour_Asymmetry_Pilot,2022.1.3,Win32,59.94125757,62c50e9c1127f2cd403a315f,,,,,,,,,,,,,,,,,,,,,,,,,,,,,,,,,,,,,,,,,,,,,,,,,,,,,,,,,,,,,,,,,,,,,,,,,,,,,,,,,,,,,,,,,,,,,,,,,,,,,,,,,,,,,,,,,,,,,,,,,,,,,,,,,,,,,,,,,,,,,,,,,,,,,,,,,,,,,,,,,,,
0,59,59,22,1,,60ccf2ea70e16324c450f531,62c53891d6dd7e51736dafa5,2022-07-06_09h25.02.466,Colour_Asymmetry_Pilot,2022.1.3,Win32,59.94125757,62c50e9c1127f2cd403a315f,,,,,,,,,,,,,,,,,,,,,,,,,,,,,,,,,,,,,,,,,,,,,,,,,,,,,,,,,,,,,,,,,,,,,,,,,,,,,,,,,,,,,,,,,,,,,,,,,,,,,,,,,,,,,,,,,,,,,,,,,,,,,,,,,,,,,,,,,,,,,,,,,,,,,,,,,,,,,,,,,,,
0,60,60,66,1,,60ccf2ea70e16324c450f531,62c53891d6dd7e51736dafa5,2022-07-06_09h25.02.466,Colour_Asymmetry_Pilot,2022.1.3,Win32,59.94125757,62c50e9c1127f2cd403a315f,,,,,,,,,,,,,,,,,,,,,,,,,,,,,,,,,,,,,,,,,,,,,,,,,,,,,,,,,,,,,,,,,,,,,,,,,,,,,,,,,,,,,,,,,,,,,,,,,,,,,,,,,,,,,,,,,,,,,,,,,,,,,,,,,,,,,,,,,,,,,,,,,,,,,,,,,,,,,,,,,,,
0,61,61,7,1,,60ccf2ea70e16324c450f531,62c53891d6dd7e51736dafa5,2022-07-06_09h25.02.466,Colour_Asymmetry_Pilot,2022.1.3,Win32,59.94125757,62c50e9c1127f2cd403a315f,,,,,,,,,,,,,,,,,,,,,,,,,,,,,,,,,,,,,,,,,,,,,,,,,,,,,,,,,,,,,,,,,,,,,,,,,,,,,,,,,,,,,,,,,,,,,,,,,,,,,,,,,,,,,,,,,,,,,,,,,,,,,,,,,,,,,,,,,,,,,,,,,,,,,,,,,,,,,,,,,,,
0,62,62,20,1,,60ccf2ea70e16324c450f531,62c53891d6dd7e51736dafa5,2022-07-06_09h25.02.466,Colour_Asymmetry_Pilot,2022.1.3,Win32,59.94125757,62c50e9c1127f2cd403a315f,,,,,,,,,,,,,,,,,,,,,,,,,,,,,,,,,,,,,,,,,,,,,,,,,,,,,,,,,,,,,,,,,,,,,,,,,,,,,,,,,,,,,,,,,,,,,,,,,,,,,,,,,,,,,,,,,,,,,,,,,,,,,,,,,,,,,,,,,,,,,,,,,,,,,,,,,,,,,,,,,,,
0,63,63,57,1,,60ccf2ea70e16324c450f531,62c53891d6dd7e51736dafa5,2022-07-06_09h25.02.466,Colour_Asymmetry_Pilot,2022.1.3,Win32,59.94125757,62c50e9c1127f2cd403a315f,,,,,,,,,,,,,,,,,,,,,,,,,,,,,,,,,,,,,,,,,,,,,,,,,,,,,,,,,,,,,,,,,,,,,,,,,,,,,,,,,,,,,,,,,,,,,,,,,,,,,,,,,,,,,,,,,,,,,,,,,,,,,,,,,,,,,,,,,,,,,,,,,,,,,,,,,,,,,,,,,,,
0,64,64,67,1,,60ccf2ea70e16324c450f531,62c53891d6dd7e51736dafa5,2022-07-06_09h25.02.466,Colour_Asymmetry_Pilot,2022.1.3,Win32,59.94125757,62c50e9c1127f2cd403a315f,,,,,,,,,,,,,,,,,,,,,,,,,,,,,,,,,,,,,,,,,,,,,,,,,,,,,,,,,,,,,,,,,,,,,,,,,,,,,,,,,,,,,,,,,,,,,,,,,,,,,,,,,,,,,,,,,,,,,,,,,,,,,,,,,,,,,,,,,,,,,,,,,,,,,,,,,,,,,,,,,,,
0,65,65,61,1,,60ccf2ea70e16324c450f531,62c53891d6dd7e51736dafa5,2022-07-06_09h25.02.466,Colour_Asymmetry_Pilot,2022.1.3,Win32,59.94125757,62c50e9c1127f2cd403a315f,,,,,,,,,,,,,,,,,,,,,,,,,,,,,,,,,,,,,,,,,,,,,,,,,,,,,,,,,,,,,,,,,,,,,,,,,,,,,,,,,,,,,,,,,,,,,,,,,,,,,,,,,,,,,,,,,,,,,,,,,,,,,,,,,,,,,,,,,,,,,,,,,,,,,,,,,,,,,,,,,,,
0,66,66,28,1,,60ccf2ea70e16324c450f531,62c53891d6dd7e51736dafa5,2022-07-06_09h25.02.466,Colour_Asymmetry_Pilot,2022.1.3,Win32,59.94125757,62c50e9c1127f2cd403a315f,,,,,,,,,,,,,,,,,,,,,,,,,,,,,,,,,,,,,,,,,,,,,,,,,,,,,,,,,,,,,,,,,,,,,,,,,,,,,,,,,,,,,,,,,,,,,,,,,,,,,,,,,,,,,,,,,,,,,,,,,,,,,,,,,,,,,,,,,,,,,,,,,,,,,,,,,,,,,,,,,,,
0,67,67,56,1,,60ccf2ea70e16324c450f531,62c53891d6dd7e51736dafa5,2022-07-06_09h25.02.466,Colour_Asymmetry_Pilot,2022.1.3,Win32,59.94125757,62c50e9c1127f2cd403a315f,,,,,,,,,,,,,,,,,,,,,,,,,,,,,,,,,,,,,,,,,,,,,,,,,,,,,,,,,,,,,,,,,,,,,,,,,,,,,,,,,,,,,,,,,,,,,,,,,,,,,,,,,,,,,,,,,,,,,,,,,,,,,,,,,,,,,,,,,,,,,,,,,,,,,,,,,,,,,,,,,,,
0,68,68,42,1,,60ccf2ea70e16324c450f531,62c53891d6dd7e51736dafa5,2022-07-06_09h25.02.466,Colour_Asymmetry_Pilot,2022.1.3,Win32,59.94125757,62c50e9c1127f2cd403a315f,,,,,,,,,,,,,,,,,,,,,,,,,,,,,,,,,,,,,,,,,,,,,,,,,,,,,,,,,,,,,,,,,,,,,,,,,,,,,,,,,,,,,,,,,,,,,,,,,,,,,,,,,,,,,,,,,,,,,,,,,,,,,,,,,,,,,,,,,,,,,,,,,,,,,,,,,,,,,,,,,,,
0,69,69,76,1,,60ccf2ea70e16324c450f531,62c53891d6dd7e51736dafa5,2022-07-06_09h25.02.466,Colour_Asymmetry_Pilot,2022.1.3,Win32,59.94125757,62c50e9c1127f2cd403a315f,,,,,,,,,,,,,,,,,,,,,,,,,,,,,,,,,,,,,,,,,,,,,,,,,,,,,,,,,,,,,,,,,,,,,,,,,,,,,,,,,,,,,,,,,,,,,,,,,,,,,,,,,,,,,,,,,,,,,,,,,,,,,,,,,,,,,,,,,,,,,,,,,,,,,,,,,,,,,,,,,,,
0,70,70,12,1,,60ccf2ea70e16324c450f531,62c53891d6dd7e51736dafa5,2022-07-06_09h25.02.466,Colour_Asymmetry_Pilot,2022.1.3,Win32,59.94125757,62c50e9c1127f2cd403a315f,,,,,,,,,,,,,,,,,,,,,,,,,,,,,,,,,,,,,,,,,,,,,,,,,,,,,,,,,,,,,,,,,,,,,,,,,,,,,,,,,,,,,,,,,,,,,,,,,,,,,,,,,,,,,,,,,,,,,,,,,,,,,,,,,,,,,,,,,,,,,,,,,,,,,,,,,,,,,,,,,,,
0,71,71,4,1,,60ccf2ea70e16324c450f531,62c53891d6dd7e51736dafa5,2022-07-06_09h25.02.466,Colour_Asymmetry_Pilot,2022.1.3,Win32,59.94125757,62c50e9c1127f2cd403a315f,,,,,,,,,,,,,,,,,,,,,,,,,,,,,,,,,,,,,,,,,,,,,,,,,,,,,,,,,,,,,,,,,,,,,,,,,,,,,,,,,,,,,,,,,,,,,,,,,,,,,,,,,,,,,,,,,,,,,,,,,,,,,,,,,,,,,,,,,,,,,,,,,,,,,,,,,,,,,,,,,,,
0,72,72,83,1,,60ccf2ea70e16324c450f531,62c53891d6dd7e51736dafa5,2022-07-06_09h25.02.466,Colour_Asymmetry_Pilot,2022.1.3,Win32,59.94125757,62c50e9c1127f2cd403a315f,,,,,,,,,,,,,,,,,,,,,,,,,,,,,,,,,,,,,,,,,,,,,,,,,,,,,,,,,,,,,,,,,,,,,,,,,,,,,,,,,,,,,,,,,,,,,,,,,,,,,,,,,,,,,,,,,,,,,,,,,,,,,,,,,,,,,,,,,,,,,,,,,,,,,,,,,,,,,,,,,,,
0,73,73,48,1,,60ccf2ea70e16324c450f531,62c53891d6dd7e51736dafa5,2022-07-06_09h25.02.466,Colour_Asymmetry_Pilot,2022.1.3,Win32,59.94125757,62c50e9c1127f2cd403a315f,,,,,,,,,,,,,,,,,,,,,,,,,,,,,,,,,,,,,,,,,,,,,,,,,,,,,,,,,,,,,,,,,,,,,,,,,,,,,,,,,,,,,,,,,,,,,,,,,,,,,,,,,,,,,,,,,,,,,,,,,,,,,,,,,,,,,,,,,,,,,,,,,,,,,,,,,,,,,,,,,,,
0,74,74,0,1,,60ccf2ea70e16324c450f531,62c53891d6dd7e51736dafa5,2022-07-06_09h25.02.466,Colour_Asymmetry_Pilot,2022.1.3,Win32,59.94125757,62c50e9c1127f2cd403a315f,,,,,,,,,,,,,,,,,,,,,,,,,,,,,,,,,,,,,,,,,,,,,,,,,,,,,,,,,,,,,,,,,,,,,,,,,,,,,,,,,,,,,,,,,,,,,,,,,,,,,,,,,,,,,,,,,,,,,,,,,,,,,,,,,,,,,,,,,,,,,,,,,,,,,,,,,,,,,,,,,,,
0,75,75,35,1,,60ccf2ea70e16324c450f531,62c53891d6dd7e51736dafa5,2022-07-06_09h25.02.466,Colour_Asymmetry_Pilot,2022.1.3,Win32,59.94125757,62c50e9c1127f2cd403a315f,,,,,,,,,,,,,,,,,,,,,,,,,,,,,,,,,,,,,,,,,,,,,,,,,,,,,,,,,,,,,,,,,,,,,,,,,,,,,,,,,,,,,,,,,,,,,,,,,,,,,,,,,,,,,,,,,,,,,,,,,,,,,,,,,,,,,,,,,,,,,,,,,,,,,,,,,,,,,,,,,,,
0,76,76,84,1,,60ccf2ea70e16324c450f531,62c53891d6dd7e51736dafa5,2022-07-06_09h25.02.466,Colour_Asymmetry_Pilot,2022.1.3,Win32,59.94125757,62c50e9c1127f2cd403a315f,,,,,,,,,,,,,,,,,,,,,,,,,,,,,,,,,,,,,,,,,,,,,,,,,,,,,,,,,,,,,,,,,,,,,,,,,,,,,,,,,,,,,,,,,,,,,,,,,,,,,,,,,,,,,,,,,,,,,,,,,,,,,,,,,,,,,,,,,,,,,,,,,,,,,,,,,,,,,,,,,,,
0,77,77,26,1,,60ccf2ea70e16324c450f531,62c53891d6dd7e51736dafa5,2022-07-06_09h25.02.466,Colour_Asymmetry_Pilot,2022.1.3,Win32,59.94125757,62c50e9c1127f2cd403a315f,,,,,,,,,,,,,,,,,,,,,,,,,,,,,,,,,,,,,,,,,,,,,,,,,,,,,,,,,,,,,,,,,,,,,,,,,,,,,,,,,,,,,,,,,,,,,,,,,,,,,,,,,,,,,,,,,,,,,,,,,,,,,,,,,,,,,,,,,,,,,,,,,,,,,,,,,,,,,,,,,,,
0,78,78,54,1,,60ccf2ea70e16324c450f531,62c53891d6dd7e51736dafa5,2022-07-06_09h25.02.466,Colour_Asymmetry_Pilot,2022.1.3,Win32,59.94125757,62c50e9c1127f2cd403a315f,,,,,,,,,,,,,,,,,,,,,,,,,,,,,,,,,,,,,,,,,,,,,,,,,,,,,,,,,,,,,,,,,,,,,,,,,,,,,,,,,,,,,,,,,,,,,,,,,,,,,,,,,,,,,,,,,,,,,,,,,,,,,,,,,,,,,,,,,,,,,,,,,,,,,,,,,,,,,,,,,,,
0,79,79,6,1,,60ccf2ea70e16324c450f531,62c53891d6dd7e51736dafa5,2022-07-06_09h25.02.466,Colour_Asymmetry_Pilot,2022.1.3,Win32,59.94125757,62c50e9c1127f2cd403a315f,,,,,,,,,,,,,,,,,,,,,,,,,,,,,,,,,,,,,,,,,,,,,,,,,,,,,,,,,,,,,,,,,,,,,,,,,,,,,,,,,,,,,,,,,,,,,,,,,,,,,,,,,,,,,,,,,,,,,,,,,,,,,,,,,,,,,,,,,,,,,,,,,,,,,,,,,,,,,,,,,,,
0,80,80,72,1,,60ccf2ea70e16324c450f531,62c53891d6dd7e51736dafa5,2022-07-06_09h25.02.466,Colour_Asymmetry_Pilot,2022.1.3,Win32,59.94125757,62c50e9c1127f2cd403a315f,,,,,,,,,,,,,,,,,,,,,,,,,,,,,,,,,,,,,,,,,,,,,,,,,,,,,,,,,,,,,,,,,,,,,,,,,,,,,,,,,,,,,,,,,,,,,,,,,,,,,,,,,,,,,,,,,,,,,,,,,,,,,,,,,,,,,,,,,,,,,,,,,,,,,,,,,,,,,,,,,,,
0,81,81,38,1,,60ccf2ea70e16324c450f531,62c53891d6dd7e51736dafa5,2022-07-06_09h25.02.466,Colour_Asymmetry_Pilot,2022.1.3,Win32,59.94125757,62c50e9c1127f2cd403a315f,,,,,,,,,,,,,,,,,,,,,,,,,,,,,,,,,,,,,,,,,,,,,,,,,,,,,,,,,,,,,,,,,,,,,,,,,,,,,,,,,,,,,,,,,,,,,,,,,,,,,,,,,,,,,,,,,,,,,,,,,,,,,,,,,,,,,,,,,,,,,,,,,,,,,,,,,,,,,,,,,,,
0,82,82,89,1,,60ccf2ea70e16324c450f531,62c53891d6dd7e51736dafa5,2022-07-06_09h25.02.466,Colour_Asymmetry_Pilot,2022.1.3,Win32,59.94125757,62c50e9c1127f2cd403a315f,,,,,,,,,,,,,,,,,,,,,,,,,,,,,,,,,,,,,,,,,,,,,,,,,,,,,,,,,,,,,,,,,,,,,,,,,,,,,,,,,,,,,,,,,,,,,,,,,,,,,,,,,,,,,,,,,,,,,,,,,,,,,,,,,,,,,,,,,,,,,,,,,,,,,,,,,,,,,,,,,,,
0,83,83,73,1,,60ccf2ea70e16324c450f531,62c53891d6dd7e51736dafa5,2022-07-06_09h25.02.466,Colour_Asymmetry_Pilot,2022.1.3,Win32,59.94125757,62c50e9c1127f2cd403a315f,,,,,,,,,,,,,,,,,,,,,,,,,,,,,,,,,,,,,,,,,,,,,,,,,,,,,,,,,,,,,,,,,,,,,,,,,,,,,,,,,,,,,,,,,,,,,,,,,,,,,,,,,,,,,,,,,,,,,,,,,,,,,,,,,,,,,,,,,,,,,,,,,,,,,,,,,,,,,,,,,,,
0,84,84,44,1,,60ccf2ea70e16324c450f531,62c53891d6dd7e51736dafa5,2022-07-06_09h25.02.466,Colour_Asymmetry_Pilot,2022.1.3,Win32,59.94125757,62c50e9c1127f2cd403a315f,,,,,,,,,,,,,,,,,,,,,,,,,,,,,,,,,,,,,,,,,,,,,,,,,,,,,,,,,,,,,,,,,,,,,,,,,,,,,,,,,,,,,,,,,,,,,,,,,,,,,,,,,,,,,,,,,,,,,,,,,,,,,,,,,,,,,,,,,,,,,,,,,,,,,,,,,,,,,,,,,,,
0,85,85,10,1,,60ccf2ea70e16324c450f531,62c53891d6dd7e51736dafa5,2022-07-06_09h25.02.466,Colour_Asymmetry_Pilot,2022.1.3,Win32,59.94125757,62c50e9c1127f2cd403a315f,,,,,,,,,,,,,,,,,,,,,,,,,,,,,,,,,,,,,,,,,,,,,,,,,,,,,,,,,,,,,,,,,,,,,,,,,,,,,,,,,,,,,,,,,,,,,,,,,,,,,,,,,,,,,,,,,,,,,,,,,,,,,,,,,,,,,,,,,,,,,,,,,,,,,,,,,,,,,,,,,,,
0,86,86,13,1,,60ccf2ea70e16324c450f531,62c53891d6dd7e51736dafa5,2022-07-06_09h25.02.466,Colour_Asymmetry_Pilot,2022.1.3,Win32,59.94125757,62c50e9c1127f2cd403a315f,,,,,,,,,,,,,,,,,,,,,,,,,,,,,,,,,,,,,,,,,,,,,,,,,,,,,,,,,,,,,,,,,,,,,,,,,,,,,,,,,,,,,,,,,,,,,,,,,,,,,,,,,,,,,,,,,,,,,,,,,,,,,,,,,,,,,,,,,,,,,,,,,,,,,,,,,,,,,,,,,,,
0,87,87,64,1,,60ccf2ea70e16324c450f531,62c53891d6dd7e51736dafa5,2022-07-06_09h25.02.466,Colour_Asymmetry_Pilot,2022.1.3,Win32,59.94125757,62c50e9c1127f2cd403a315f,,,,,,,,,,,,,,,,,,,,,,,,,,,,,,,,,,,,,,,,,,,,,,,,,,,,,,,,,,,,,,,,,,,,,,,,,,,,,,,,,,,,,,,,,,,,,,,,,,,,,,,,,,,,,,,,,,,,,,,,,,,,,,,,,,,,,,,,,,,,,,,,,,,,,,,,,,,,,,,,,,,
0,88,88,24,1,,60ccf2ea70e16324c450f531,62c53891d6dd7e51736dafa5,2022-07-06_09h25.02.466,Colour_Asymmetry_Pilot,2022.1.3,Win32,59.94125757,62c50e9c1127f2cd403a315f,,,,,,,,,,,,,,,,,,,,,,,,,,,,,,,,,,,,,,,,,,,,,,,,,,,,,,,,,,,,,,,,,,,,,,,,,,,,,,,,,,,,,,,,,,,,,,,,,,,,,,,,,,,,,,,,,,,,,,,,,,,,,,,,,,,,,,,,,,,,,,,,,,,,,,,,,,,,,,,,,,,
0,89,89,74,1,,60ccf2ea70e16324c450f531,62c53891d6dd7e51736dafa5,2022-07-06_09h25.02.466,Colour_Asymmetry_Pilot,2022.1.3,Win32,59.94125757,62c50e9c1127f2cd403a315f,,,,,,,,,,,,,,,,,,,,,,,,,,,,,,,,,,,,,,,,,,,,,,,,,,,,,,,,,,,,,,,,,,,,,,,,,,,,,,,,,,,,,,,,,,,,,,,,,,,,,,,,,,,,,,,,,,,,,,,,,,,,,,,,,,,,,,,,,,,,,,,,,,,,,,,,,,,,,,,,,,,
0,90,90,78,1,,60ccf2ea70e16324c450f531,62c53891d6dd7e51736dafa5,2022-07-06_09h25.02.466,Colour_Asymmetry_Pilot,2022.1.3,Win32,59.94125757,62c50e9c1127f2cd403a315f,,,,,,,,,,,,,,,,,,,,,,,,,,,,,,,,,,,,,,,,,,,,,,,,,,,,,,,,,,,,,,,,,,,,,,,,,,,,,,,,,,,,,,,,,,,,,,,,,,,,,,,,,,,,,,,,,,,,,,,,,,,,,,,,,,,,,,,,,,,,,,,,,,,,,,,,,,,,,,,,,,,
0,91,91,55,1,,60ccf2ea70e16324c450f531,62c53891d6dd7e51736dafa5,2022-07-06_09h25.02.466,Colour_Asymmetry_Pilot,2022.1.3,Win32,59.94125757,62c50e9c1127f2cd403a315f,,,,,,,,,,,,,,,,,,,,,,,,,,,,,,,,,,,,,,,,,,,,,,,,,,,,,,,,,,,,,,,,,,,,,,,,,,,,,,,,,,,,,,,,,,,,,,,,,,,,,,,,,,,,,,,,,,,,,,,,,,,,,,,,,,,,,,,,,,,,,,,,,,,,,,,,,,,,,,,,,,,
0,92,92,30,1,,60ccf2ea70e16324c450f531,62c53891d6dd7e51736dafa5,2022-07-06_09h25.02.466,Colour_Asymmetry_Pilot,2022.1.3,Win32,59.94125757,62c50e9c1127f2cd403a315f,,,,,,,,,,,,,,,,,,,,,,,,,,,,,,,,,,,,,,,,,,,,,,,,,,,,,,,,,,,,,,,,,,,,,,,,,,,,,,,,,,,,,,,,,,,,,,,,,,,,,,,,,,,,,,,,,,,,,,,,,,,,,,,,,,,,,,,,,,,,,,,,,,,,,,,,,,,,,,,,,,,
,,,,,,60ccf2ea70e16324c450f531,62c53891d6dd7e51736dafa5,2022-07-06_09h25.02.466,Colour_Asymmetry_Pilot,2022.1.3,Win32,59.94125757,62c50e9c1127f2cd403a315f,0,0,0,129,1,onethree,,,,,,,,,,,,,,,,,,,,,,,,,,,,,,,,,,,,,,,,,,,,,,,,,,,,,,,,,,,,,,,,,,,,,,,,,,,,,,,,,,,,,,,,,,,,,,,,,,,,,,,,,,,,,,,,,,,,,,,,,,,,,,,,,,,,,,,,,,,,,,,,,,,,,,,,,,,,,
,,,,,,60ccf2ea70e16324c450f531,62c53891d6dd7e51736dafa5,2022-07-06_09h25.02.466,Colour_Asymmetry_Pilot,2022.1.3,Win32,59.94125757,62c50e9c1127f2cd403a315f,0,1,1,43,1,twofour,,,,,,,,,,,,,,,,,,,,,,,,,,,,,,,,,,,,,,,,,,,,,,,,,,,,,,,,,,,,,,,,,,,,,,,,,,,,,,,,,,,,,,,,,,,,,,,,,,,,,,,,,,,,,,,,,,,,,,,,,,,,,,,,,,,,,,,,,,,,,,,,,,,,,,,,,,,,,
,,,,,,60ccf2ea70e16324c450f531,62c53891d6dd7e51736dafa5,2022-07-06_09h25.02.466,Colour_Asymmetry_Pilot,2022.1.3,Win32,59.94125757,62c50e9c1127f2cd403a315f,0,2,2,112,1,onetwo,,,,,,,,,,,,,,,,,,,,,,,,,,,,,,,,,,,,,,,,,,,,,,,,,,,,,,,,,,,,,,,,,,,,,,,,,,,,,,,,,,,,,,,,,,,,,,,,,,,,,,,,,,,,,,,,,,,,,,,,,,,,,,,,,,,,,,,,,,,,,,,,,,,,,,,,,,,,,
,,,,,,60ccf2ea70e16324c450f531,62c53891d6dd7e51736dafa5,2022-07-06_09h25.02.466,Colour_Asymmetry_Pilot,2022.1.3,Win32,59.94125757,62c50e9c1127f2cd403a315f,0,3,3,152,1,onetwo,,,,,,,,,,,,,,,,,,,,,,,,,,,,,,,,,,,,,,,,,,,,,,,,,,,,,,,,,,,,,,,,,,,,,,,,,,,,,,,,,,,,,,,,,,,,,,,,,,,,,,,,,,,,,,,,,,,,,,,,,,,,,,,,,,,,,,,,,,,,,,,,,,,,,,,,,,,,,
,,,,,,60ccf2ea70e16324c450f531,62c53891d6dd7e51736dafa5,2022-07-06_09h25.02.466,Colour_Asymmetry_Pilot,2022.1.3,Win32,59.94125757,62c50e9c1127f2cd403a315f,0,4,4,44,1,threeone,,,,,,,,,,,,,,,,,,,,,,,,,,,,,,,,,,,,,,,,,,,,,,,,,,,,,,,,,,,,,,,,,,,,,,,,,,,,,,,,,,,,,,,,,,,,,,,,,,,,,,,,,,,,,,,,,,,,,,,,,,,,,,,,,,,,,,,,,,,,,,,,,,,,,,,,,,,,,
,,,,,,60ccf2ea70e16324c450f531,62c53891d6dd7e51736dafa5,2022-07-06_09h25.02.466,Colour_Asymmetry_Pilot,2022.1.3,Win32,59.94125757,62c50e9c1127f2cd403a315f,0,5,5,95,1,fourthree,,,,,,,,,,,,,,,,,,,,,,,,,,,,,,,,,,,,,,,,,,,,,,,,,,,,,,,,,,,,,,,,,,,,,,,,,,,,,,,,,,,,,,,,,,,,,,,,,,,,,,,,,,,,,,,,,,,,,,,,,,,,,,,,,,,,,,,,,,,,,,,,,,,,,,,,,,,,,
,,,,,,60ccf2ea70e16324c450f531,62c53891d6dd7e51736dafa5,2022-07-06_09h25.02.466,Colour_Asymmetry_Pilot,2022.1.3,Win32,59.94125757,62c50e9c1127f2cd403a315f,0,6,6,20,1,threeone,,,,,,,,,,,,,,,,,,,,,,,,,,,,,,,,,,,,,,,,,,,,,,,,,,,,,,,,,,,,,,,,,,,,,,,,,,,,,,,,,,,,,,,,,,,,,,,,,,,,,,,,,,,,,,,,,,,,,,,,,,,,,,,,,,,,,,,,,,,,,,,,,,,,,,,,,,,,,
,,,,,,60ccf2ea70e16324c450f531,62c53891d6dd7e51736dafa5,2022-07-06_09h25.02.466,Colour_Asymmetry_Pilot,2022.1.3,Win32,59.94125757,62c50e9c1127f2cd403a315f,0,7,7,2,1,twoone,,,,,,,,,,,,,,,,,,,,,,,,,,,,,,,,,,,,,,,,,,,,,,,,,,,,,,,,,,,,,,,,,,,,,,,,,,,,,,,,,,,,,,,,,,,,,,,,,,,,,,,,,,,,,,,,,,,,,,,,,,,,,,,,,,,,,,,,,,,,,,,,,,,,,,,,,,,,,
,,,,,,60ccf2ea70e16324c450f531,62c53891d6dd7e51736dafa5,2022-07-06_09h25.02.466,Colour_Asymmetry_Pilot,2022.1.3,Win32,59.94125757,62c50e9c1127f2cd403a315f,0,8,8,131,1,twofour,,,,,,,,,,,,,,,,,,,,,,,,,,,,,,,,,,,,,,,,,,,,,,,,,,,,,,,,,,,,,,,,,,,,,,,,,,,,,,,,,,,,,,,,,,,,,,,,,,,,,,,,,,,,,,,,,,,,,,,,,,,,,,,,,,,,,,,,,,,,,,,,,,,,,,,,,,,,,
,,,,,,60ccf2ea70e16324c450f531,62c53891d6dd7e51736dafa5,2022-07-06_09h25.02.466,Colour_Asymmetry_Pilot,2022.1.3,Win32,59.94125757,62c50e9c1127f2cd403a315f,0,9,9,15,1,fourthree,,,,,,,,,,,,,,,,,,,,,,,,,,,,,,,,,,,,,,,,,,,,,,,,,,,,,,,,,,,,,,,,,,,,,,,,,,,,,,,,,,,,,,,,,,,,,,,,,,,,,,,,,,,,,,,,,,,,,,,,,,,,,,,,,,,,,,,,,,,,,,,,,,,,,,,,,,,,,
,,,,,,60ccf2ea70e16324c450f531,62c53891d6dd7e51736dafa5,2022-07-06_09h25.02.466,Colour_Asymmetry_Pilot,2022.1.3,Win32,59.94125757,62c50e9c1127f2cd403a315f,0,10,10,85,1,threefour,,,,,,,,,,,,,,,,,,,,,,,,,,,,,,,,,,,,,,,,,,,,,,,,,,,,,,,,,,,,,,,,,,,,,,,,,,,,,,,,,,,,,,,,,,,,,,,,,,,,,,,,,,,,,,,,,,,,,,,,,,,,,,,,,,,,,,,,,,,,,,,,,,,,,,,,,,,,,
,,,,,,60ccf2ea70e16324c450f531,62c53891d6dd7e51736dafa5,2022-07-06_09h25.02.466,Colour_Asymmetry_Pilot,2022.1.3,Win32,59.94125757,62c50e9c1127f2cd403a315f,0,11,11,118,1,fourtwo,,,,,,,,,,,,,,,,,,,,,,,,,,,,,,,,,,,,,,,,,,,,,,,,,,,,,,,,,,,,,,,,,,,,,,,,,,,,,,,,,,,,,,,,,,,,,,,,,,,,,,,,,,,,,,,,,,,,,,,,,,,,,,,,,,,,,,,,,,,,,,,,,,,,,,,,,,,,,
,,,,,,60ccf2ea70e16324c450f531,62c53891d6dd7e51736dafa5,2022-07-06_09h25.02.466,Colour_Asymmetry_Pilot,2022.1.3,Win32,59.94125757,62c50e9c1127f2cd403a315f,0,12,12,47,1,fourthree,,,,,,,,,,,,,,,,,,,,,,,,,,,,,,,,,,,,,,,,,,,,,,,,,,,,,,,,,,,,,,,,,,,,,,,,,,,,,,,,,,,,,,,,,,,,,,,,,,,,,,,,,,,,,,,,,,,,,,,,,,,,,,,,,,,,,,,,,,,,,,,,,,,,,,,,,,,,,
,,,,,,60ccf2ea70e16324c450f531,62c53891d6dd7e51736dafa5,2022-07-06_09h25.02.466,Colour_Asymmetry_Pilot,2022.1.3,Win32,59.94125757,62c50e9c1127f2cd403a315f,0,13,13,100,1,threeone,,,,,,,,,,,,,,,,,,,,,,,,,,,,,,,,,,,,,,,,,,,,,,,,,,,,,,,,,,,,,,,,,,,,,,,,,,,,,,,,,,,,,,,,,,,,,,,,,,,,,,,,,,,,,,,,,,,,,,,,,,,,,,,,,,,,,,,,,,,,,,,,,,,,,,,,,,,,,
,,,,,,60ccf2ea70e16324c450f531,62c53891d6dd7e51736dafa5,2022-07-06_09h25.02.466,Colour_Asymmetry_Pilot,2022.1.3,Win32,59.94125757,62c50e9c1127f2cd403a315f,0,14,14,123,1,twofour,,,,,,,,,,,,,,,,,,,,,,,,,,,,,,,,,,,,,,,,,,,,,,,,,,,,,,,,,,,,,,,,,,,,,,,,,,,,,,,,,,,,,,,,,,,,,,,,,,,,,,,,,,,,,,,,,,,,,,,,,,,,,,,,,,,,,,,,,,,,,,,,,,,,,,,,,,,,,
,,,,,,60ccf2ea70e16324c450f531,62c53891d6dd7e51736dafa5,2022-07-06_09h25.02.466,Colour_Asymmetry_Pilot,2022.1.3,Win32,59.94125757,62c50e9c1127f2cd403a315f,0,15,15,136,1,onetwo,,,,,,,,,,,,,,,,,,,,,,,,,,,,,,,,,,,,,,,,,,,,,,,,,,,,,,,,,,,,,,,,,,,,,,,,,,,,,,,,,,,,,,,,,,,,,,,,,,,,,,,,,,,,,,,,,,,,,,,,,,,,,,,,,,,,,,,,,,,,,,,,,,,,,,,,,,,,,
,,,,,,60ccf2ea70e16324c450f531,62c53891d6dd7e51736dafa5,2022-07-06_09h25.02.466,Colour_Asymmetry_Pilot,2022.1.3,Win32,59.94125757,62c50e9c1127f2cd403a315f,0,16,16,50,1,twoone,,,,,,,,,,,,,,,,,,,,,,,,,,,,,,,,,,,,,,,,,,,,,,,,,,,,,,,,,,,,,,,,,,,,,,,,,,,,,,,,,,,,,,,,,,,,,,,,,,,,,,,,,,,,,,,,,,,,,,,,,,,,,,,,,,,,,,,,,,,,,,,,,,,,,,,,,,,,,
,,,,,,60ccf2ea70e16324c450f531,62c53891d6dd7e51736dafa5,2022-07-06_09h25.02.466,Colour_Asymmetry_Pilot,2022.1.3,Win32,59.94125757,62c50e9c1127f2cd403a315f,0,17,17,160,1,onetwo,,,,,,,,,,,,,,,,,,,,,,,,,,,,,,,,,,,,,,,,,,,,,,,,,,,,,,,,,,,,,,,,,,,,,,,,,,,,,,,,,,,,,,,,,,,,,,,,,,,,,,,,,,,,,,,,,,,,,,,,,,,,,,,,,,,,,,,,,,,,,,,,,,,,,,,,,,,,,
,,,,,,60ccf2ea70e16324c450f531,62c53891d6dd7e51736dafa5,2022-07-06_09h25.02.466,Colour_Asymmetry_Pilot,2022.1.3,Win32,59.94125757,62c50e9c1127f2cd403a315f,0,18,18,155,1,twofour,,,,,,,,,,,,,,,,,,,,,,,,,,,,,,,,,,,,,,,,,,,,,,,,,,,,,,,,,,,,,,,,,,,,,,,,,,,,,,,,,,,,,,,,,,,,,,,,,,,,,,,,,,,,,,,,,,,,,,,,,,,,,,,,,,,,,,,,,,,,,,,,,,,,,,,,,,,,,
,,,,,,60ccf2ea70e16324c450f531,62c53891d6dd7e51736dafa5,2022-07-06_09h25.02.466,Colour_Asymmetry_Pilot,2022.1.3,Win32,59.94125757,62c50e9c1127f2cd403a315f,0,19,19,10,1,twoone,,,,,,,,,,,,,,,,,,,,,,,,,,,,,,,,,,,,,,,,,,,,,,,,,,,,,,,,,,,,,,,,,,,,,,,,,,,,,,,,,,,,,,,,,,,,,,,,,,,,,,,,,,,,,,,,,,,,,,,,,,,,,,,,,,,,,,,,,,,,,,,,,,,,,,,,,,,,,
,,,,,,60ccf2ea70e16324c450f531,62c53891d6dd7e51736dafa5,2022-07-06_09h25.02.466,Colour_Asymmetry_Pilot,2022.1.3,Win32,59.94125757,62c50e9c1127f2cd403a315f,0,20,20,49,1,onethree,,,,,,,,,,,,,,,,,,,,,,,,,,,,,,,,,,,,,,,,,,,,,,,,,,,,,,,,,,,,,,,,,,,,,,,,,,,,,,,,,,,,,,,,,,,,,,,,,,,,,,,,,,,,,,,,,,,,,,,,,,,,,,,,,,,,,,,,,,,,,,,,,,,,,,,,,,,,,
,,,,,,60ccf2ea70e16324c450f531,62c53891d6dd7e51736dafa5,2022-07-06_09h25.02.466,Colour_Asymmetry_Pilot,2022.1.3,Win32,59.94125757,62c50e9c1127f2cd403a315f,0,21,21,125,1,threefour,,,,,,,,,,,,,,,,,,,,,,,,,,,,,,,,,,,,,,,,,,,,,,,,,,,,,,,,,,,,,,,,,,,,,,,,,,,,,,,,,,,,,,,,,,,,,,,,,,,,,,,,,,,,,,,,,,,,,,,,,,,,,,,,,,,,,,,,,,,,,,,,,,,,,,,,,,,,,
,,,,,,60ccf2ea70e16324c450f531,62c53891d6dd7e51736dafa5,2022-07-06_09h25.02.466,Colour_Asymmetry_Pilot,2022.1.3,Win32,59.94125757,62c50e9c1127f2cd403a315f,0,22,22,0,1,onetwo,,,,,,,,,,,,,,,,,,,,,,,,,,,,,,,,,,,,,,,,,,,,,,,,,,,,,,,,,,,,,,,,,,,,,,,,,,,,,,,,,,,,,,,,,,,,,,,,,,,,,,,,,,,,,,,,,,,,,,,,,,,,,,,,,,,,,,,,,,,,,,,,,,,,,,,,,,,,,
,,,,,,60ccf2ea70e16324c450f531,62c53891d6dd7e51736dafa5,2022-07-06_09h25.02.466,Colour_Asymmetry_Pilot,2022.1.3,Win32,59.94125757,62c50e9c1127f2cd403a315f,0,23,23,149,1,threefour,,,,,,,,,,,,,,,,,,,,,,,,,,,,,,,,,,,,,,,,,,,,,,,,,,,,,,,,,,,,,,,,,,,,,,,,,,,,,,,,,,,,,,,,,,,,,,,,,,,,,,,,,,,,,,,,,,,,,,,,,,,,,,,,,,,,,,,,,,,,,,,,,,,,,,,,,,,,,
,,,,,,60ccf2ea70e16324c450f531,62c53891d6dd7e51736dafa5,2022-07-06_09h25.02.466,Colour_Asymmetry_Pilot,2022.1.3,Win32,59.94125757,62c50e9c1127f2cd403a315f,0,24,24,94,1,fourtwo,,,,,,,,,,,,,,,,,,,,,,,,,,,,,,,,,,,,,,,,,,,,,,,,,,,,,,,,,,,,,,,,,,,,,,,,,,,,,,,,,,,,,,,,,,,,,,,,,,,,,,,,,,,,,,,,,,,,,,,,,,,,,,,,,,,,,,,,,,,,,,,,,,,,,,,,,,,,,
,,,,,,60ccf2ea70e16324c450f531,62c53891d6dd7e51736dafa5,2022-07-06_09h25.02.466,Colour_Asymmetry_Pilot,2022.1.3,Win32,59.94125757,62c50e9c1127f2cd403a315f,0,25,25,42,1,twoone,,,,,,,,,,,,,,,,,,,,,,,,,,,,,,,,,,,,,,,,,,,,,,,,,,,,,,,,,,,,,,,,,,,,,,,,,,,,,,,,,,,,,,,,,,,,,,,,,,,,,,,,,,,,,,,,,,,,,,,,,,,,,,,,,,,,,,,,,,,,,,,,,,,,,,,,,,,,,
,,,,,,60ccf2ea70e16324c450f531,62c53891d6dd7e51736dafa5,2022-07-06_09h25.02.466,Colour_Asymmetry_Pilot,2022.1.3,Win32,59.94125757,62c50e9c1127f2cd403a315f,0,26,26,63,1,fourthree,,,,,,,,,,,,,,,,,,,,,,,,,,,,,,,,,,,,,,,,,,,,,,,,,,,,,,,,,,,,,,,,,,,,,,,,,,,,,,,,,,,,,,,,,,,,,,,,,,,,,,,,,,,,,,,,,,,,,,,,,,,,,,,,,,,,,,,,,,,,,,,,,,,,,,,,,,,,,
,,,,,,60ccf2ea70e16324c450f531,62c53891d6dd7e51736dafa5,2022-07-06_09h25.02.466,Colour_Asymmetry_Pilot,2022.1.3,Win32,59.94125757,62c50e9c1127f2cd403a315f,0,27,27,104,1,onetwo,,,,,,,,,,,,,,,,,,,,,,,,,,,,,,,,,,,,,,,,,,,,,,,,,,,,,,,,,,,,,,,,,,,,,,,,,,,,,,,,,,,,,,,,,,,,,,,,,,,,,,,,,,,,,,,,,,,,,,,,,,,,,,,,,,,,,,,,,,,,,,,,,,,,,,,,,,,,,
,,,,,,60ccf2ea70e16324c450f531,62c53891d6dd7e51736dafa5,2022-07-06_09h25.02.466,Colour_Asymmetry_Pilot,2022.1.3,Win32,59.94125757,62c50e9c1127f2cd403a315f,0,28,28,86,1,fourtwo,,,,,,,,,,,,,,,,,,,,,,,,,,,,,,,,,,,,,,,,,,,,,,,,,,,,,,,,,,,,,,,,,,,,,,,,,,,,,,,,,,,,,,,,,,,,,,,,,,,,,,,,,,,,,,,,,,,,,,,,,,,,,,,,,,,,,,,,,,,,,,,,,,,,,,,,,,,,,
,,,,,,60ccf2ea70e16324c450f531,62c53891d6dd7e51736dafa5,2022-07-06_09h25.02.466,Colour_Asymmetry_Pilot,2022.1.3,Win32,59.94125757,62c50e9c1127f2cd403a315f,0,29,29,159,1,fourthree,,,,,,,,,,,,,,,,,,,,,,,,,,,,,,,,,,,,,,,,,,,,,,,,,,,,,,,,,,,,,,,,,,,,,,,,,,,,,,,,,,,,,,,,,,,,,,,,,,,,,,,,,,,,,,,,,,,,,,,,,,,,,,,,,,,,,,,,,,,,,,,,,,,,,,,,,,,,,
,,,,,,60ccf2ea70e16324c450f531,62c53891d6dd7e51736dafa5,2022-07-06_09h25.02.466,Colour_Asymmetry_Pilot,2022.1.3,Win32,59.94125757,62c50e9c1127f2cd403a315f,0,30,30,21,1,threefour,,,,,,,,,,,,,,,,,,,,,,,,,,,,,,,,,,,,,,,,,,,,,,,,,,,,,,,,,,,,,,,,,,,,,,,,,,,,,,,,,,,,,,,,,,,,,,,,,,,,,,,,,,,,,,,,,,,,,,,,,,,,,,,,,,,,,,,,,,,,,,,,,,,,,,,,,,,,,
,,,,,,60ccf2ea70e16324c450f531,62c53891d6dd7e51736dafa5,2022-07-06_09h25.02.466,Colour_Asymmetry_Pilot,2022.1.3,Win32,59.94125757,62c50e9c1127f2cd403a315f,0,31,31,34,1,twoone,,,,,,,,,,,,,,,,,,,,,,,,,,,,,,,,,,,,,,,,,,,,,,,,,,,,,,,,,,,,,,,,,,,,,,,,,,,,,,,,,,,,,,,,,,,,,,,,,,,,,,,,,,,,,,,,,,,,,,,,,,,,,,,,,,,,,,,,,,,,,,,,,,,,,,,,,,,,,
,,,,,,60ccf2ea70e16324c450f531,62c53891d6dd7e51736dafa5,2022-07-06_09h25.02.466,Colour_Asymmetry_Pilot,2022.1.3,Win32,59.94125757,62c50e9c1127f2cd403a315f,0,32,32,11,1,twofour,,,,,,,,,,,,,,,,,,,,,,,,,,,,,,,,,,,,,,,,,,,,,,,,,,,,,,,,,,,,,,,,,,,,,,,,,,,,,,,,,,,,,,,,,,,,,,,,,,,,,,,,,,,,,,,,,,,,,,,,,,,,,,,,,,,,,,,,,,,,,,,,,,,,,,,,,,,,,
,,,,,,60ccf2ea70e16324c450f531,62c53891d6dd7e51736dafa5,2022-07-06_09h25.02.466,Colour_Asymmetry_Pilot,2022.1.3,Win32,59.94125757,62c50e9c1127f2cd403a315f,0,33,33,60,1,threeone,,,,,,,,,,,,,,,,,,,,,,,,,,,,,,,,,,,,,,,,,,,,,,,,,,,,,,,,,,,,,,,,,,,,,,,,,,,,,,,,,,,,,,,,,,,,,,,,,,,,,,,,,,,,,,,,,,,,,,,,,,,,,,,,,,,,,,,,,,,,,,,,,,,,,,,,,,,,,
,,,,,,60ccf2ea70e16324c450f531,62c53891d6dd7e51736dafa5,2022-07-06_09h25.02.466,Colour_Asymmetry_Pilot,2022.1.3,Win32,59.94125757,62c50e9c1127f2cd403a315f,0,34,34,53,1,threefour,,,,,,,,,,,,,,,,,,,,,,,,,,,,,,,,,,,,,,,,,,,,,,,,,,,,,,,,,,,,,,,,,,,,,,,,,,,,,,,,,,,,,,,,,,,,,,,,,,,,,,,,,,,,,,,,,,,,,,,,,,,,,,,,,,,,,,,,,,,,,,,,,,,,,,,,,,,,,
,,,,,,60ccf2ea70e16324c450f531,62c53891d6dd7e51736dafa5,2022-07-06_09h25.02.466,Colour_Asymmetry_Pilot,2022.1.3,Win32,59.94125757,62c50e9c1127f2cd403a315f,0,35,35,142,1,fourtwo,,,,,,,,,,,,,,,,,,,,,,,,,,,,,,,,,,,,,,,,,,,,,,,,,,,,,,,,,,,,,,,,,,,,,,,,,,,,,,,,,,,,,,,,,,,,,,,,,,,,,,,,,,,,,,,,,,,,,,,,,,,,,,,,,,,,,,,,,,,,,,,,,,,,,,,,,,,,,
,,,,,,60ccf2ea70e16324c450f531,62c53891d6dd7e51736dafa5,2022-07-06_09h25.02.466,Colour_Asymmetry_Pilot,2022.1.3,Win32,59.94125757,62c50e9c1127f2cd403a315f,0,36,36,62,1,fourtwo,,,,,,,,,,,,,,,,,,,,,,,,,,,,,,,,,,,,,,,,,,,,,,,,,,,,,,,,,,,,,,,,,,,,,,,,,,,,,,,,,,,,,,,,,,,,,,,,,,,,,,,,,,,,,,,,,,,,,,,,,,,,,,,,,,,,,,,,,,,,,,,,,,,,,,,,,,,,,
,,,,,,60ccf2ea70e16324c450f531,62c53891d6dd7e51736dafa5,2022-07-06_09h25.02.466,Colour_Asymmetry_Pilot,2022.1.3,Win32,59.94125757,62c50e9c1127f2cd403a315f,0,37,37,101,1,threefour,,,,,,,,,,,,,,,,,,,,,,,,,,,,,,,,,,,,,,,,,,,,,,,,,,,,,,,,,,,,,,,,,,,,,,,,,,,,,,,,,,,,,,,,,,,,,,,,,,,,,,,,,,,,,,,,,,,,,,,,,,,,,,,,,,,,,,,,,,,,,,,,,,,,,,,,,,,,,
,,,,,,60ccf2ea70e16324c450f531,62c53891d6dd7e51736dafa5,2022-07-06_09h25.02.466,Colour_Asymmetry_Pilot,2022.1.3,Win32,59.94125757,62c50e9c1127f2cd403a315f,0,38,38,82,1,twoone,,,,,,,,,,,,,,,,,,,,,,,,,,,,,,,,,,,,,,,,,,,,,,,,,,,,,,,,,,,,,,,,,,,,,,,,,,,,,,,,,,,,,,,,,,,,,,,,,,,,,,,,,,,,,,,,,,,,,,,,,,,,,,,,,,,,,,,,,,,,,,,,,,,,,,,,,,,,,
,,,,,,60ccf2ea70e16324c450f531,62c53891d6dd7e51736dafa5,2022-07-06_09h25.02.466,Colour_Asymmetry_Pilot,2022.1.3,Win32,59.94125757,62c50e9c1127f2cd403a315f,0,39,39,1,1,onethree,,,,,,,,,,,,,,,,,,,,,,,,,,,,,,,,,,,,,,,,,,,,,,,,,,,,,,,,,,,,,,,,,,,,,,,,,,,,,,,,,,,,,,,,,,,,,,,,,,,,,,,,,,,,,,,,,,,,,,,,,,,,,,,,,,,,,,,,,,,,,,,,,,,,,,,,,,,,,
,,,,,,60ccf2ea70e16324c450f531,62c53891d6dd7e51736dafa5,2022-07-06_09h25.02.466,Colour_Asymmetry_Pilot,2022.1.3,Win32,59.94125757,62c50e9c1127f2cd403a315f,0,40,40,66,1,twoone,,,,,,,,,,,,,,,,,,,,,,,,,,,,,,,,,,,,,,,,,,,,,,,,,,,,,,,,,,,,,,,,,,,,,,,,,,,,,,,,,,,,,,,,,,,,,,,,,,,,,,,,,,,,,,,,,,,,,,,,,,,,,,,,,,,,,,,,,,,,,,,,,,,,,,,,,,,,,
,,,,,,60ccf2ea70e16324c450f531,62c53891d6dd7e51736dafa5,2022-07-06_09h25.02.466,Colour_Asymmetry_Pilot,2022.1.3,Win32,59.94125757,62c50e9c1127f2cd403a315f,0,41,41,115,1,twofour,,,,,,,,,,,,,,,,,,,,,,,,,,,,,,,,,,,,,,,,,,,,,,,,,,,,,,,,,,,,,,,,,,,,,,,,,,,,,,,,,,,,,,,,,,,,,,,,,,,,,,,,,,,,,,,,,,,,,,,,,,,,,,,,,,,,,,,,,,,,,,,,,,,,,,,,,,,,,
,,,,,,60ccf2ea70e16324c450f531,62c53891d6dd7e51736dafa5,2022-07-06_09h25.02.466,Colour_Asymmetry_Pilot,2022.1.3,Win32,59.94125757,62c50e9c1127f2cd403a315f,0,42,42,124,1,threeone,,,,,,,,,,,,,,,,,,,,,,,,,,,,,,,,,,,,,,,,,,,,,,,,,,,,,,,,,,,,,,,,,,,,,,,,,,,,,,,,,,,,,,,,,,,,,,,,,,,,,,,,,,,,,,,,,,,,,,,,,,,,,,,,,,,,,,,,,,,,,,,,,,,,,,,,,,,,,
,,,,,,60ccf2ea70e16324c450f531,62c53891d6dd7e51736dafa5,2022-07-06_09h25.02.466,Colour_Asymmetry_Pilot,2022.1.3,Win32,59.94125757,62c50e9c1127f2cd403a315f,0,43,43,33,1,onethree,,,,,,,,,,,,,,,,,,,,,,,,,,,,,,,,,,,,,,,,,,,,,,,,,,,,,,,,,,,,,,,,,,,,,,,,,,,,,,,,,,,,,,,,,,,,,,,,,,,,,,,,,,,,,,,,,,,,,,,,,,,,,,,,,,,,,,,,,,,,,,,,,,,,,,,,,,,,,
,,,,,,60ccf2ea70e16324c450f531,62c53891d6dd7e51736dafa5,2022-07-06_09h25.02.466,Colour_Asymmetry_Pilot,2022.1.3,Win32,59.94125757,62c50e9c1127f2cd403a315f,0,44,44,25,1,onethree,,,,,,,,,,,,,,,,,,,,,,,,,,,,,,,,,,,,,,,,,,,,,,,,,,,,,,,,,,,,,,,,,,,,,,,,,,,,,,,,,,,,,,,,,,,,,,,,,,,,,,,,,,,,,,,,,,,,,,,,,,,,,,,,,,,,,,,,,,,,,,,,,,,,,,,,,,,,,
,,,,,,60ccf2ea70e16324c450f531,62c53891d6dd7e51736dafa5,2022-07-06_09h25.02.466,Colour_Asymmetry_Pilot,2022.1.3,Win32,59.94125757,62c50e9c1127f2cd403a315f,0,45,45,16,1,onetwo,,,,,,,,,,,,,,,,,,,,,,,,,,,,,,,,,,,,,,,,,,,,,,,,,,,,,,,,,,,,,,,,,,,,,,,,,,,,,,,,,,,,,,,,,,,,,,,,,,,,,,,,,,,,,,,,,,,,,,,,,,,,,,,,,,,,,,,,,,,,,,,,,,,,,,,,,,,,,
,,,,,,60ccf2ea70e16324c450f531,62c53891d6dd7e51736dafa5,2022-07-06_09h25.02.466,Colour_Asymmetry_Pilot,2022.1.3,Win32,59.94125757,62c50e9c1127f2cd403a315f,0,46,46,128,1,onetwo,,,,,,,,,,,,,,,,,,,,,,,,,,,,,,,,,,,,,,,,,,,,,,,,,,,,,,,,,,,,,,,,,,,,,,,,,,,,,,,,,,,,,,,,,,,,,,,,,,,,,,,,,,,,,,,,,,,,,,,,,,,,,,,,,,,,,,,,,,,,,,,,,,,,,,,,,,,,,
,,,,,,60ccf2ea70e16324c450f531,62c53891d6dd7e51736dafa5,2022-07-06_09h25.02.466,Colour_Asymmetry_Pilot,2022.1.3,Win32,59.94125757,62c50e9c1127f2cd403a315f,0,47,47,92,1,threeone,,,,,,,,,,,,,,,,,,,,,,,,,,,,,,,,,,,,,,,,,,,,,,,,,,,,,,,,,,,,,,,,,,,,,,,,,,,,,,,,,,,,,,,,,,,,,,,,,,,,,,,,,,,,,,,,,,,,,,,,,,,,,,,,,,,,,,,,,,,,,,,,,,,,,,,,,,,,,
,,,,,,60ccf2ea70e16324c450f531,62c53891d6dd7e51736dafa5,2022-07-06_09h25.02.466,Colour_Asymmetry_Pilot,2022.1.3,Win32,59.94125757,62c50e9c1127f2cd403a315f,0,48,48,98,1,twoone,,,,,,,,,,,,,,,,,,,,,,,,,,,,,,,,,,,,,,,,,,,,,,,,,,,,,,,,,,,,,,,,,,,,,,,,,,,,,,,,,,,,,,,,,,,,,,,,,,,,,,,,,,,,,,,,,,,,,,,,,,,,,,,,,,,,,,,,,,,,,,,,,,,,,,,,,,,,,
,,,,,,60ccf2ea70e16324c450f531,62c53891d6dd7e51736dafa5,2022-07-06_09h25.02.466,Colour_Asymmetry_Pilot,2022.1.3,Win32,59.94125757,62c50e9c1127f2cd403a315f,0,49,49,87,1,fourthree,,,,,,,,,,,,,,,,,,,,,,,,,,,,,,,,,,,,,,,,,,,,,,,,,,,,,,,,,,,,,,,,,,,,,,,,,,,,,,,,,,,,,,,,,,,,,,,,,,,,,,,,,,,,,,,,,,,,,,,,,,,,,,,,,,,,,,,,,,,,,,,,,,,,,,,,,,,,,
,,,,,,60ccf2ea70e16324c450f531,62c53891d6dd7e51736dafa5,2022-07-06_09h25.02.466,Colour_Asymmetry_Pilot,2022.1.3,Win32,59.94125757,62c50e9c1127f2cd403a315f,0,50,50,150,1,fourtwo,,,,,,,,,,,,,,,,,,,,,,,,,,,,,,,,,,,,,,,,,,,,,,,,,,,,,,,,,,,,,,,,,,,,,,,,,,,,,,,,,,,,,,,,,,,,,,,,,,,,,,,,,,,,,,,,,,,,,,,,,,,,,,,,,,,,,,,,,,,,,,,,,,,,,,,,,,,,,
,,,,,,60ccf2ea70e16324c450f531,62c53891d6dd7e51736dafa5,2022-07-06_09h25.02.466,Colour_Asymmetry_Pilot,2022.1.3,Win32,59.94125757,62c50e9c1127f2cd403a315f,0,51,51,13,1,threefour,,,,,,,,,,,,,,,,,,,,,,,,,,,,,,,,,,,,,,,,,,,,,,,,,,,,,,,,,,,,,,,,,,,,,,,,,,,,,,,,,,,,,,,,,,,,,,,,,,,,,,,,,,,,,,,,,,,,,,,,,,,,,,,,,,,,,,,,,,,,,,,,,,,,,,,,,,,,,
,,,,,,60ccf2ea70e16324c450f531,62c53891d6dd7e51736dafa5,2022-07-06_09h25.02.466,Colour_Asymmetry_Pilot,2022.1.3,Win32,59.94125757,62c50e9c1127f2cd403a315f,0,52,52,161,1,onethree,,,,,,,,,,,,,,,,,,,,,,,,,,,,,,,,,,,,,,,,,,,,,,,,,,,,,,,,,,,,,,,,,,,,,,,,,,,,,,,,,,,,,,,,,,,,,,,,,,,,,,,,,,,,,,,,,,,,,,,,,,,,,,,,,,,,,,,,,,,,,,,,,,,,,,,,,,,,,
,,,,,,60ccf2ea70e16324c450f531,62c53891d6dd7e51736dafa5,2022-07-06_09h25.02.466,Colour_Asymmetry_Pilot,2022.1.3,Win32,59.94125757,62c50e9c1127f2cd403a315f,0,53,53,19,1,twofour,,,,,,,,,,,,,,,,,,,,,,,,,,,,,,,,,,,,,,,,,,,,,,,,,,,,,,,,,,,,,,,,,,,,,,,,,,,,,,,,,,,,,,,,,,,,,,,,,,,,,,,,,,,,,,,,,,,,,,,,,,,,,,,,,,,,,,,,,,,,,,,,,,,,,,,,,,,,,
,,,,,,60ccf2ea70e16324c450f531,62c53891d6dd7e51736dafa5,2022-07-06_09h25.02.466,Colour_Asymmetry_Pilot,2022.1.3,Win32,59.94125757,62c50e9c1127f2cd403a315f,0,54,54,5,1,threefour,,,,,,,,,,,,,,,,,,,,,,,,,,,,,,,,,,,,,,,,,,,,,,,,,,,,,,,,,,,,,,,,,,,,,,,,,,,,,,,,,,,,,,,,,,,,,,,,,,,,,,,,,,,,,,,,,,,,,,,,,,,,,,,,,,,,,,,,,,,,,,,,,,,,,,,,,,,,,
,,,,,,60ccf2ea70e16324c450f531,62c53891d6dd7e51736dafa5,2022-07-06_09h25.02.466,Colour_Asymmetry_Pilot,2022.1.3,Win32,59.94125757,62c50e9c1127f2cd403a315f,0,55,55,127,1,fourthree,,,,,,,,,,,,,,,,,,,,,,,,,,,,,,,,,,,,,,,,,,,,,,,,,,,,,,,,,,,,,,,,,,,,,,,,,,,,,,,,,,,,,,,,,,,,,,,,,,,,,,,,,,,,,,,,,,,,,,,,,,,,,,,,,,,,,,,,,,,,,,,,,,,,,,,,,,,,,
,,,,,,60ccf2ea70e16324c450f531,62c53891d6dd7e51736dafa5,2022-07-06_09h25.02.466,Colour_Asymmetry_Pilot,2022.1.3,Win32,59.94125757,62c50e9c1127f2cd403a315f,0,56,56,137,1,onethree,,,,,,,,,,,,,,,,,,,,,,,,,,,,,,,,,,,,,,,,,,,,,,,,,,,,,,,,,,,,,,,,,,,,,,,,,,,,,,,,,,,,,,,,,,,,,,,,,,,,,,,,,,,,,,,,,,,,,,,,,,,,,,,,,,,,,,,,,,,,,,,,,,,,,,,,,,,,,
,,,,,,60ccf2ea70e16324c450f531,62c53891d6dd7e51736dafa5,2022-07-06_09h25.02.466,Colour_Asymmetry_Pilot,2022.1.3,Win32,59.94125757,62c50e9c1127f2cd403a315f,0,57,57,146,1,twoone,,,,,,,,,,,,,,,,,,,,,,,,,,,,,,,,,,,,,,,,,,,,,,,,,,,,,,,,,,,,,,,,,,,,,,,,,,,,,,,,,,,,,,,,,,,,,,,,,,,,,,,,,,,,,,,,,,,,,,,,,,,,,,,,,,,,,,,,,,,,,,,,,,,,,,,,,,,,,
,,,,,,60ccf2ea70e16324c450f531,62c53891d6dd7e51736dafa5,2022-07-06_09h25.02.466,Colour_Asymmetry_Pilot,2022.1.3,Win32,59.94125757,62c50e9c1127f2cd403a315f,0,58,58,122,1,twoone,,,,,,,,,,,,,,,,,,,,,,,,,,,,,,,,,,,,,,,,,,,,,,,,,,,,,,,,,,,,,,,,,,,,,,,,,,,,,,,,,,,,,,,,,,,,,,,,,,,,,,,,,,,,,,,,,,,,,,,,,,,,,,,,,,,,,,,,,,,,,,,,,,,,,,,,,,,,,
,,,,,,60ccf2ea70e16324c450f531,62c53891d6dd7e51736dafa5,2022-07-06_09h25.02.466,Colour_Asymmetry_Pilot,2022.1.3,Win32,59.94125757,62c50e9c1127f2cd403a315f,0,59,59,65,1,onethree,,,,,,,,,,,,,,,,,,,,,,,,,,,,,,,,,,,,,,,,,,,,,,,,,,,,,,,,,,,,,,,,,,,,,,,,,,,,,,,,,,,,,,,,,,,,,,,,,,,,,,,,,,,,,,,,,,,,,,,,,,,,,,,,,,,,,,,,,,,,,,,,,,,,,,,,,,,,,
,,,,,,60ccf2ea70e16324c450f531,62c53891d6dd7e51736dafa5,2022-07-06_09h25.02.466,Colour_Asymmetry_Pilot,2022.1.3,Win32,59.94125757,62c50e9c1127f2cd403a315f,0,60,60,54,1,fourtwo,,,,,,,,,,,,,,,,,,,,,,,,,,,,,,,,,,,,,,,,,,,,,,,,,,,,,,,,,,,,,,,,,,,,,,,,,,,,,,,,,,,,,,,,,,,,,,,,,,,,,,,,,,,,,,,,,,,,,,,,,,,,,,,,,,,,,,,,,,,,,,,,,,,,,,,,,,,,,
,,,,,,60ccf2ea70e16324c450f531,62c53891d6dd7e51736dafa5,2022-07-06_09h25.02.466,Colour_Asymmetry_Pilot,2022.1.3,Win32,59.94125757,62c50e9c1127f2cd403a315f,0,61,61,80,1,onetwo,,,,,,,,,,,,,,,,,,,,,,,,,,,,,,,,,,,,,,,,,,,,,,,,,,,,,,,,,,,,,,,,,,,,,,,,,,,,,,,,,,,,,,,,,,,,,,,,,,,,,,,,,,,,,,,,,,,,,,,,,,,,,,,,,,,,,,,,,,,,,,,,,,,,,,,,,,,,,
,,,,,,60ccf2ea70e16324c450f531,62c53891d6dd7e51736dafa5,2022-07-06_09h25.02.466,Colour_Asymmetry_Pilot,2022.1.3,Win32,59.94125757,62c50e9c1127f2cd403a315f,0,62,62,141,1,threefour,,,,,,,,,,,,,,,,,,,,,,,,,,,,,,,,,,,,,,,,,,,,,,,,,,,,,,,,,,,,,,,,,,,,,,,,,,,,,,,,,,,,,,,,,,,,,,,,,,,,,,,,,,,,,,,,,,,,,,,,,,,,,,,,,,,,,,,,,,,,,,,,,,,,,,,,,,,,,
,,,,,,60ccf2ea70e16324c450f531,62c53891d6dd7e51736dafa5,2022-07-06_09h25.02.466,Colour_Asymmetry_Pilot,2022.1.3,Win32,59.94125757,62c50e9c1127f2cd403a315f,0,63,63,64,1,onetwo,,,,,,,,,,,,,,,,,,,,,,,,,,,,,,,,,,,,,,,,,,,,,,,,,,,,,,,,,,,,,,,,,,,,,,,,,,,,,,,,,,,,,,,,,,,,,,,,,,,,,,,,,,,,,,,,,,,,,,,,,,,,,,,,,,,,,,,,,,,,,,,,,,,,,,,,,,,,,
,,,,,,60ccf2ea70e16324c450f531,62c53891d6dd7e51736dafa5,2022-07-06_09h25.02.466,Colour_Asymmetry_Pilot,2022.1.3,Win32,59.94125757,62c50e9c1127f2cd403a315f,0,64,64,134,1,fourtwo,,,,,,,,,,,,,,,,,,,,,,,,,,,,,,,,,,,,,,,,,,,,,,,,,,,,,,,,,,,,,,,,,,,,,,,,,,,,,,,,,,,,,,,,,,,,,,,,,,,,,,,,,,,,,,,,,,,,,,,,,,,,,,,,,,,,,,,,,,,,,,,,,,,,,,,,,,,,,
,,,,,,60ccf2ea70e16324c450f531,62c53891d6dd7e51736dafa5,2022-07-06_09h25.02.466,Colour_Asymmetry_Pilot,2022.1.3,Win32,59.94125757,62c50e9c1127f2cd403a315f,0,65,65,96,1,onetwo,,,,,,,,,,,,,,,,,,,,,,,,,,,,,,,,,,,,,,,,,,,,,,,,,,,,,,,,,,,,,,,,,,,,,,,,,,,,,,,,,,,,,,,,,,,,,,,,,,,,,,,,,,,,,,,,,,,,,,,,,,,,,,,,,,,,,,,,,,,,,,,,,,,,,,,,,,,,,
,,,,,,60ccf2ea70e16324c450f531,62c53891d6dd7e51736dafa5,2022-07-06_09h25.02.466,Colour_Asymmetry_Pilot,2022.1.3,Win32,59.94125757,62c50e9c1127f2cd403a315f,0,66,66,126,1,fourtwo,,,,,,,,,,,,,,,,,,,,,,,,,,,,,,,,,,,,,,,,,,,,,,,,,,,,,,,,,,,,,,,,,,,,,,,,,,,,,,,,,,,,,,,,,,,,,,,,,,,,,,,,,,,,,,,,,,,,,,,,,,,,,,,,,,,,,,,,,,,,,,,,,,,,,,,,,,,,,
,,,,,,60ccf2ea70e16324c450f531,62c53891d6dd7e51736dafa5,2022-07-06_09h25.02.466,Colour_Asymmetry_Pilot,2022.1.3,Win32,59.94125757,62c50e9c1127f2cd403a315f,0,67,67,157,1,threefour,,,,,,,,,,,,,,,,,,,,,,,,,,,,,,,,,,,,,,,,,,,,,,,,,,,,,,,,,,,,,,,,,,,,,,,,,,,,,,,,,,,,,,,,,,,,,,,,,,,,,,,,,,,,,,,,,,,,,,,,,,,,,,,,,,,,,,,,,,,,,,,,,,,,,,,,,,,,,
,,,,,,60ccf2ea70e16324c450f531,62c53891d6dd7e51736dafa5,2022-07-06_09h25.02.466,Colour_Asymmetry_Pilot,2022.1.3,Win32,59.94125757,62c50e9c1127f2cd403a315f,0,68,68,55,1,fourthree,,,,,,,,,,,,,,,,,,,,,,,,,,,,,,,,,,,,,,,,,,,,,,,,,,,,,,,,,,,,,,,,,,,,,,,,,,,,,,,,,,,,,,,,,,,,,,,,,,,,,,,,,,,,,,,,,,,,,,,,,,,,,,,,,,,,,,,,,,,,,,,,,,,,,,,,,,,,,
,,,,,,60ccf2ea70e16324c450f531,62c53891d6dd7e51736dafa5,2022-07-06_09h25.02.466,Colour_Asymmetry_Pilot,2022.1.3,Win32,59.94125757,62c50e9c1127f2cd403a315f,0,69,69,29,1,threefour,,,,,,,,,,,,,,,,,,,,,,,,,,,,,,,,,,,,,,,,,,,,,,,,,,,,,,,,,,,,,,,,,,,,,,,,,,,,,,,,,,,,,,,,,,,,,,,,,,,,,,,,,,,,,,,,,,,,,,,,,,,,,,,,,,,,,,,,,,,,,,,,,,,,,,,,,,,,,
,,,,,,60ccf2ea70e16324c450f531,62c53891d6dd7e51736dafa5,2022-07-06_09h25.02.466,Colour_Asymmetry_Pilot,2022.1.3,Win32,59.94125757,62c50e9c1127f2cd403a315f,0,70,70,147,1,twofour,,,,,,,,,,,,,,,,,,,,,,,,,,,,,,,,,,,,,,,,,,,,,,,,,,,,,,,,,,,,,,,,,,,,,,,,,,,,,,,,,,,,,,,,,,,,,,,,,,,,,,,,,,,,,,,,,,,,,,,,,,,,,,,,,,,,,,,,,,,,,,,,,,,,,,,,,,,,,
,,,,,,60ccf2ea70e16324c450f531,62c53891d6dd7e51736dafa5,2022-07-06_09h25.02.466,Colour_Asymmetry_Pilot,2022.1.3,Win32,59.94125757,62c50e9c1127f2cd403a315f,0,71,71,41,1,onethree,,,,,,,,,,,,,,,,,,,,,,,,,,,,,,,,,,,,,,,,,,,,,,,,,,,,,,,,,,,,,,,,,,,,,,,,,,,,,,,,,,,,,,,,,,,,,,,,,,,,,,,,,,,,,,,,,,,,,,,,,,,,,,,,,,,,,,,,,,,,,,,,,,,,,,,,,,,,,
,,,,,,60ccf2ea70e16324c450f531,62c53891d6dd7e51736dafa5,2022-07-06_09h25.02.466,Colour_Asymmetry_Pilot,2022.1.3,Win32,59.94125757,62c50e9c1127f2cd403a315f,0,72,72,24,1,onetwo,,,,,,,,,,,,,,,,,,,,,,,,,,,,,,,,,,,,,,,,,,,,,,,,,,,,,,,,,,,,,,,,,,,,,,,,,,,,,,,,,,,,,,,,,,,,,,,,,,,,,,,,,,,,,,,,,,,,,,,,,,,,,,,,,,,,,,,,,,,,,,,,,,,,,,,,,,,,,
,,,,,,60ccf2ea70e16324c450f531,62c53891d6dd7e51736dafa5,2022-07-06_09h25.02.466,Colour_Asymmetry_Pilot,2022.1.3,Win32,59.94125757,62c50e9c1127f2cd403a315f,0,73,73,52,1,threeone,,,,,,,,,,,,,,,,,,,,,,,,,,,,,,,,,,,,,,,,,,,,,,,,,,,,,,,,,,,,,,,,,,,,,,,,,,,,,,,,,,,,,,,,,,,,,,,,,,,,,,,,,,,,,,,,,,,,,,,,,,,,,,,,,,,,,,,,,,,,,,,,,,,,,,,,,,,,,
,,,,,,60ccf2ea70e16324c450f531,62c53891d6dd7e51736dafa5,2022-07-06_09h25.02.466,Colour_Asymmetry_Pilot,2022.1.3,Win32,59.94125757,62c50e9c1127f2cd403a315f,0,74,74,158,1,fourtwo,,,,,,,,,,,,,,,,,,,,,,,,,,,,,,,,,,,,,,,,,,,,,,,,,,,,,,,,,,,,,,,,,,,,,,,,,,,,,,,,,,,,,,,,,,,,,,,,,,,,,,,,,,,,,,,,,,,,,,,,,,,,,,,,,,,,,,,,,,,,,,,,,,,,,,,,,,,,,
,,,,,,60ccf2ea70e16324c450f531,62c53891d6dd7e51736dafa5,2022-07-06_09h25.02.466,Colour_Asymmetry_Pilot,2022.1.3,Win32,59.94125757,62c50e9c1127f2cd403a315f,0,75,75,81,1,onethree,,,,,,,,,,,,,,,,,,,,,,,,,,,,,,,,,,,,,,,,,,,,,,,,,,,,,,,,,,,,,,,,,,,,,,,,,,,,,,,,,,,,,,,,,,,,,,,,,,,,,,,,,,,,,,,,,,,,,,,,,,,,,,,,,,,,,,,,,,,,,,,,,,,,,,,,,,,,,
,,,,,,60ccf2ea70e16324c450f531,62c53891d6dd7e51736dafa5,2022-07-06_09h25.02.466,Colour_Asymmetry_Pilot,2022.1.3,Win32,59.94125757,62c50e9c1127f2cd403a315f,0,76,76,9,1,onethree,,,,,,,,,,,,,,,,,,,,,,,,,,,,,,,,,,,,,,,,,,,,,,,,,,,,,,,,,,,,,,,,,,,,,,,,,,,,,,,,,,,,,,,,,,,,,,,,,,,,,,,,,,,,,,,,,,,,,,,,,,,,,,,,,,,,,,,,,,,,,,,,,,,,,,,,,,,,,
,,,,,,60ccf2ea70e16324c450f531,62c53891d6dd7e51736dafa5,2022-07-06_09h25.02.466,Colour_Asymmetry_Pilot,2022.1.3,Win32,59.94125757,62c50e9c1127f2cd403a315f,0,77,77,58,1,twoone,,,,,,,,,,,,,,,,,,,,,,,,,,,,,,,,,,,,,,,,,,,,,,,,,,,,,,,,,,,,,,,,,,,,,,,,,,,,,,,,,,,,,,,,,,,,,,,,,,,,,,,,,,,,,,,,,,,,,,,,,,,,,,,,,,,,,,,,,,,,,,,,,,,,,,,,,,,,,
,,,,,,60ccf2ea70e16324c450f531,62c53891d6dd7e51736dafa5,2022-07-06_09h25.02.466,Colour_Asymmetry_Pilot,2022.1.3,Win32,59.94125757,62c50e9c1127f2cd403a315f,0,78,78,93,1,threefour,,,,,,,,,,,,,,,,,,,,,,,,,,,,,,,,,,,,,,,,,,,,,,,,,,,,,,,,,,,,,,,,,,,,,,,,,,,,,,,,,,,,,,,,,,,,,,,,,,,,,,,,,,,,,,,,,,,,,,,,,,,,,,,,,,,,,,,,,,,,,,,,,,,,,,,,,,,,,
,,,,,,60ccf2ea70e16324c450f531,62c53891d6dd7e51736dafa5,2022-07-06_09h25.02.466,Colour_Asymmetry_Pilot,2022.1.3,Win32,59.94125757,62c50e9c1127f2cd403a315f,0,79,79,105,1,onethree,,,,,,,,,,,,,,,,,,,,,,,,,,,,,,,,,,,,,,,,,,,,,,,,,,,,,,,,,,,,,,,,,,,,,,,,,,,,,,,,,,,,,,,,,,,,,,,,,,,,,,,,,,,,,,,,,,,,,,,,,,,,,,,,,,,,,,,,,,,,,,,,,,,,,,,,,,,,,
,,,,,,60ccf2ea70e16324c450f531,62c53891d6dd7e51736dafa5,2022-07-06_09h25.02.466,Colour_Asymmetry_Pilot,2022.1.3,Win32,59.94125757,62c50e9c1127f2cd403a315f,0,80,80,120,1,onetwo,,,,,,,,,,,,,,,,,,,,,,,,,,,,,,,,,,,,,,,,,,,,,,,,,,,,,,,,,,,,,,,,,,,,,,,,,,,,,,,,,,,,,,,,,,,,,,,,,,,,,,,,,,,,,,,,,,,,,,,,,,,,,,,,,,,,,,,,,,,,,,,,,,,,,,,,,,,,,
,,,,,,60ccf2ea70e16324c450f531,62c53891d6dd7e51736dafa5,2022-07-06_09h25.02.466,Colour_Asymmetry_Pilot,2022.1.3,Win32,59.94125757,62c50e9c1127f2cd403a315f,0,81,81,57,1,onethree,,,,,,,,,,,,,,,,,,,,,,,,,,,,,,,,,,,,,,,,,,,,,,,,,,,,,,,,,,,,,,,,,,,,,,,,,,,,,,,,,,,,,,,,,,,,,,,,,,,,,,,,,,,,,,,,,,,,,,,,,,,,,,,,,,,,,,,,,,,,,,,,,,,,,,,,,,,,,
,,,,,,60ccf2ea70e16324c450f531,62c53891d6dd7e51736dafa5,2022-07-06_09h25.02.466,Colour_Asymmetry_Pilot,2022.1.3,Win32,59.94125757,62c50e9c1127f2cd403a315f,0,82,82,31,1,fourthree,,,,,,,,,,,,,,,,,,,,,,,,,,,,,,,,,,,,,,,,,,,,,,,,,,,,,,,,,,,,,,,,,,,,,,,,,,,,,,,,,,,,,,,,,,,,,,,,,,,,,,,,,,,,,,,,,,,,,,,,,,,,,,,,,,,,,,,,,,,,,,,,,,,,,,,,,,,,,
,,,,,,60ccf2ea70e16324c450f531,62c53891d6dd7e51736dafa5,2022-07-06_09h25.02.466,Colour_Asymmetry_Pilot,2022.1.3,Win32,59.94125757,62c50e9c1127f2cd403a315f,0,83,83,116,1,threeone,,,,,,,,,,,,,,,,,,,,,,,,,,,,,,,,,,,,,,,,,,,,,,,,,,,,,,,,,,,,,,,,,,,,,,,,,,,,,,,,,,,,,,,,,,,,,,,,,,,,,,,,,,,,,,,,,,,,,,,,,,,,,,,,,,,,,,,,,,,,,,,,,,,,,,,,,,,,,
,,,,,,60ccf2ea70e16324c450f531,62c53891d6dd7e51736dafa5,2022-07-06_09h25.02.466,Colour_Asymmetry_Pilot,2022.1.3,Win32,59.94125757,62c50e9c1127f2cd403a315f,0,84,84,102,1,fourtwo,,,,,,,,,,,,,,,,,,,,,,,,,,,,,,,,,,,,,,,,,,,,,,,,,,,,,,,,,,,,,,,,,,,,,,,,,,,,,,,,,,,,,,,,,,,,,,,,,,,,,,,,,,,,,,,,,,,,,,,,,,,,,,,,,,,,,,,,,,,,,,,,,,,,,,,,,,,,,
,,,,,,60ccf2ea70e16324c450f531,62c53891d6dd7e51736dafa5,2022-07-06_09h25.02.466,Colour_Asymmetry_Pilot,2022.1.3,Win32,59.94125757,62c50e9c1127f2cd403a315f,0,85,85,77,1,threefour,,,,,,,,,,,,,,,,,,,,,,,,,,,,,,,,,,,,,,,,,,,,,,,,,,,,,,,,,,,,,,,,,,,,,,,,,,,,,,,,,,,,,,,,,,,,,,,,,,,,,,,,,,,,,,,,,,,,,,,,,,,,,,,,,,,,,,,,,,,,,,,,,,,,,,,,,,,,,
,,,,,,60ccf2ea70e16324c450f531,62c53891d6dd7e51736dafa5,2022-07-06_09h25.02.466,Colour_Asymmetry_Pilot,2022.1.3,Win32,59.94125757,62c50e9c1127f2cd403a315f,0,86,86,109,1,threefour,,,,,,,,,,,,,,,,,,,,,,,,,,,,,,,,,,,,,,,,,,,,,,,,,,,,,,,,,,,,,,,,,,,,,,,,,,,,,,,,,,,,,,,,,,,,,,,,,,,,,,,,,,,,,,,,,,,,,,,,,,,,,,,,,,,,,,,,,,,,,,,,,,,,,,,,,,,,,
,,,,,,60ccf2ea70e16324c450f531,62c53891d6dd7e51736dafa5,2022-07-06_09h25.02.466,Colour_Asymmetry_Pilot,2022.1.3,Win32,59.94125757,62c50e9c1127f2cd403a315f,0,87,87,26,1,twoone,,,,,,,,,,,,,,,,,,,,,,,,,,,,,,,,,,,,,,,,,,,,,,,,,,,,,,,,,,,,,,,,,,,,,,,,,,,,,,,,,,,,,,,,,,,,,,,,,,,,,,,,,,,,,,,,,,,,,,,,,,,,,,,,,,,,,,,,,,,,,,,,,,,,,,,,,,,,,
,,,,,,60ccf2ea70e16324c450f531,62c53891d6dd7e51736dafa5,2022-07-06_09h25.02.466,Colour_Asymmetry_Pilot,2022.1.3,Win32,59.94125757,62c50e9c1127f2cd403a315f,0,88,88,148,1,threeone,,,,,,,,,,,,,,,,,,,,,,,,,,,,,,,,,,,,,,,,,,,,,,,,,,,,,,,,,,,,,,,,,,,,,,,,,,,,,,,,,,,,,,,,,,,,,,,,,,,,,,,,,,,,,,,,,,,,,,,,,,,,,,,,,,,,,,,,,,,,,,,,,,,,,,,,,,,,,
,,,,,,60ccf2ea70e16324c450f531,62c53891d6dd7e51736dafa5,2022-07-06_09h25.02.466,Colour_Asymmetry_Pilot,2022.1.3,Win32,59.94125757,62c50e9c1127f2cd403a315f,0,89,89,51,1,twofour,,,,,,,,,,,,,,,,,,,,,,,,,,,,,,,,,,,,,,,,,,,,,,,,,,,,,,,,,,,,,,,,,,,,,,,,,,,,,,,,,,,,,,,,,,,,,,,,,,,,,,,,,,,,,,,,,,,,,,,,,,,,,,,,,,,,,,,,,,,,,,,,,,,,,,,,,,,,,
,,,,,,60ccf2ea70e16324c450f531,62c53891d6dd7e51736dafa5,2022-07-06_09h25.02.466,Colour_Asymmetry_Pilot,2022.1.3,Win32,59.94125757,62c50e9c1127f2cd403a315f,0,90,90,84,1,threeone,,,,,,,,,,,,,,,,,,,,,,,,,,,,,,,,,,,,,,,,,,,,,,,,,,,,,,,,,,,,,,,,,,,,,,,,,,,,,,,,,,,,,,,,,,,,,,,,,,,,,,,,,,,,,,,,,,,,,,,,,,,,,,,,,,,,,,,,,,,,,,,,,,,,,,,,,,,,,
,,,,,,60ccf2ea70e16324c450f531,62c53891d6dd7e51736dafa5,2022-07-06_09h25.02.466,Colour_Asymmetry_Pilot,2022.1.3,Win32,59.94125757,62c50e9c1127f2cd403a315f,0,91,91,106,1,twoone,,,,,,,,,,,,,,,,,,,,,,,,,,,,,,,,,,,,,,,,,,,,,,,,,,,,,,,,,,,,,,,,,,,,,,,,,,,,,,,,,,,,,,,,,,,,,,,,,,,,,,,,,,,,,,,,,,,,,,,,,,,,,,,,,,,,,,,,,,,,,,,,,,,,,,,,,,,,,
,,,,,,60ccf2ea70e16324c450f531,62c53891d6dd7e51736dafa5,2022-07-06_09h25.02.466,Colour_Asymmetry_Pilot,2022.1.3,Win32,59.94125757,62c50e9c1127f2cd403a315f,0,92,92,38,1,fourtwo,,,,,,,,,,,,,,,,,,,,,,,,,,,,,,,,,,,,,,,,,,,,,,,,,,,,,,,,,,,,,,,,,,,,,,,,,,,,,,,,,,,,,,,,,,,,,,,,,,,,,,,,,,,,,,,,,,,,,,,,,,,,,,,,,,,,,,,,,,,,,,,,,,,,,,,,,,,,,
,,,,,,60ccf2ea70e16324c450f531,62c53891d6dd7e51736dafa5,2022-07-06_09h25.02.466,Colour_Asymmetry_Pilot,2022.1.3,Win32,59.94125757,62c50e9c1127f2cd403a315f,0,93,93,75,1,twofour,,,,,,,,,,,,,,,,,,,,,,,,,,,,,,,,,,,,,,,,,,,,,,,,,,,,,,,,,,,,,,,,,,,,,,,,,,,,,,,,,,,,,,,,,,,,,,,,,,,,,,,,,,,,,,,,,,,,,,,,,,,,,,,,,,,,,,,,,,,,,,,,,,,,,,,,,,,,,
,,,,,,60ccf2ea70e16324c450f531,62c53891d6dd7e51736dafa5,2022-07-06_09h25.02.466,Colour_Asymmetry_Pilot,2022.1.3,Win32,59.94125757,62c50e9c1127f2cd403a315f,0,94,94,74,1,twoone,,,,,,,,,,,,,,,,,,,,,,,,,,,,,,,,,,,,,,,,,,,,,,,,,,,,,,,,,,,,,,,,,,,,,,,,,,,,,,,,,,,,,,,,,,,,,,,,,,,,,,,,,,,,,,,,,,,,,,,,,,,,,,,,,,,,,,,,,,,,,,,,,,,,,,,,,,,,,
,,,,,,60ccf2ea70e16324c450f531,62c53891d6dd7e51736dafa5,2022-07-06_09h25.02.466,Colour_Asymmetry_Pilot,2022.1.3,Win32,59.94125757,62c50e9c1127f2cd403a315f,0,95,95,135,1,fourthree,,,,,,,,,,,,,,,,,,,,,,,,,,,,,,,,,,,,,,,,,,,,,,,,,,,,,,,,,,,,,,,,,,,,,,,,,,,,,,,,,,,,,,,,,,,,,,,,,,,,,,,,,,,,,,,,,,,,,,,,,,,,,,,,,,,,,,,,,,,,,,,,,,,,,,,,,,,,,
,,,,,,60ccf2ea70e16324c450f531,62c53891d6dd7e51736dafa5,2022-07-06_09h25.02.466,Colour_Asymmetry_Pilot,2022.1.3,Win32,59.94125757,62c50e9c1127f2cd403a315f,0,96,96,89,1,onethree,,,,,,,,,,,,,,,,,,,,,,,,,,,,,,,,,,,,,,,,,,,,,,,,,,,,,,,,,,,,,,,,,,,,,,,,,,,,,,,,,,,,,,,,,,,,,,,,,,,,,,,,,,,,,,,,,,,,,,,,,,,,,,,,,,,,,,,,,,,,,,,,,,,,,,,,,,,,,
,,,,,,60ccf2ea70e16324c450f531,62c53891d6dd7e51736dafa5,2022-07-06_09h25.02.466,Colour_Asymmetry_Pilot,2022.1.3,Win32,59.94125757,62c50e9c1127f2cd403a315f,0,97,97,68,1,threeone,,,,,,,,,,,,,,,,,,,,,,,,,,,,,,,,,,,,,,,,,,,,,,,,,,,,,,,,,,,,,,,,,,,,,,,,,,,,,,,,,,,,,,,,,,,,,,,,,,,,,,,,,,,,,,,,,,,,,,,,,,,,,,,,,,,,,,,,,,,,,,,,,,,,,,,,,,,,,
,,,,,,60ccf2ea70e16324c450f531,62c53891d6dd7e51736dafa5,2022-07-06_09h25.02.466,Colour_Asymmetry_Pilot,2022.1.3,Win32,59.94125757,62c50e9c1127f2cd403a315f,0,98,98,30,1,fourtwo,,,,,,,,,,,,,,,,,,,,,,,,,,,,,,,,,,,,,,,,,,,,,,,,,,,,,,,,,,,,,,,,,,,,,,,,,,,,,,,,,,,,,,,,,,,,,,,,,,,,,,,,,,,,,,,,,,,,,,,,,,,,,,,,,,,,,,,,,,,,,,,,,,,,,,,,,,,,,
,,,,,,60ccf2ea70e16324c450f531,62c53891d6dd7e51736dafa5,2022-07-06_09h25.02.466,Colour_Asymmetry_Pilot,2022.1.3,Win32,59.94125757,62c50e9c1127f2cd403a315f,0,99,99,14,1,fourtwo,,,,,,,,,,,,,,,,,,,,,,,,,,,,,,,,,,,,,,,,,,,,,,,,,,,,,,,,,,,,,,,,,,,,,,,,,,,,,,,,,,,,,,,,,,,,,,,,,,,,,,,,,,,,,,,,,,,,,,,,,,,,,,,,,,,,,,,,,,,,,,,,,,,,,,,,,,,,,
,,,,,,60ccf2ea70e16324c450f531,62c53891d6dd7e51736dafa5,2022-07-06_09h25.02.466,Colour_Asymmetry_Pilot,2022.1.3,Win32,59.94125757,62c50e9c1127f2cd403a315f,0,100,100,76,1,threeone,,,,,,,,,,,,,,,,,,,,,,,,,,,,,,,,,,,,,,,,,,,,,,,,,,,,,,,,,,,,,,,,,,,,,,,,,,,,,,,,,,,,,,,,,,,,,,,,,,,,,,,,,,,,,,,,,,,,,,,,,,,,,,,,,,,,,,,,,,,,,,,,,,,,,,,,,,,,,
,,,,,,60ccf2ea70e16324c450f531,62c53891d6dd7e51736dafa5,2022-07-06_09h25.02.466,Colour_Asymmetry_Pilot,2022.1.3,Win32,59.94125757,62c50e9c1127f2cd403a315f,0,101,101,48,1,onetwo,,,,,,,,,,,,,,,,,,,,,,,,,,,,,,,,,,,,,,,,,,,,,,,,,,,,,,,,,,,,,,,,,,,,,,,,,,,,,,,,,,,,,,,,,,,,,,,,,,,,,,,,,,,,,,,,,,,,,,,,,,,,,,,,,,,,,,,,,,,,,,,,,,,,,,,,,,,,,
,,,,,,60ccf2ea70e16324c450f531,62c53891d6dd7e51736dafa5,2022-07-06_09h25.02.466,Colour_Asymmetry_Pilot,2022.1.3,Win32,59.94125757,62c50e9c1127f2cd403a315f,0,102,102,117,1,threefour,,,,,,,,,,,,,,,,,,,,,,,,,,,,,,,,,,,,,,,,,,,,,,,,,,,,,,,,,,,,,,,,,,,,,,,,,,,,,,,,,,,,,,,,,,,,,,,,,,,,,,,,,,,,,,,,,,,,,,,,,,,,,,,,,,,,,,,,,,,,,,,,,,,,,,,,,,,,,
,,,,,,60ccf2ea70e16324c450f531,62c53891d6dd7e51736dafa5,2022-07-06_09h25.02.466,Colour_Asymmetry_Pilot,2022.1.3,Win32,59.94125757,62c50e9c1127f2cd403a315f,0,103,103,32,1,onetwo,,,,,,,,,,,,,,,,,,,,,,,,,,,,,,,,,,,,,,,,,,,,,,,,,,,,,,,,,,,,,,,,,,,,,,,,,,,,,,,,,,,,,,,,,,,,,,,,,,,,,,,,,,,,,,,,,,,,,,,,,,,,,,,,,,,,,,,,,,,,,,,,,,,,,,,,,,,,,
,,,,,,60ccf2ea70e16324c450f531,62c53891d6dd7e51736dafa5,2022-07-06_09h25.02.466,Colour_Asymmetry_Pilot,2022.1.3,Win32,59.94125757,62c50e9c1127f2cd403a315f,0,104,104,3,1,twofour,,,,,,,,,,,,,,,,,,,,,,,,,,,,,,,,,,,,,,,,,,,,,,,,,,,,,,,,,,,,,,,,,,,,,,,,,,,,,,,,,,,,,,,,,,,,,,,,,,,,,,,,,,,,,,,,,,,,,,,,,,,,,,,,,,,,,,,,,,,,,,,,,,,,,,,,,,,,,
,,,,,,60ccf2ea70e16324c450f531,62c53891d6dd7e51736dafa5,2022-07-06_09h25.02.466,Colour_Asymmetry_Pilot,2022.1.3,Win32,59.94125757,62c50e9c1127f2cd403a315f,0,105,105,35,1,twofour,,,,,,,,,,,,,,,,,,,,,,,,,,,,,,,,,,,,,,,,,,,,,,,,,,,,,,,,,,,,,,,,,,,,,,,,,,,,,,,,,,,,,,,,,,,,,,,,,,,,,,,,,,,,,,,,,,,,,,,,,,,,,,,,,,,,,,,,,,,,,,,,,,,,,,,,,,,,,
,,,,,,60ccf2ea70e16324c450f531,62c53891d6dd7e51736dafa5,2022-07-06_09h25.02.466,Colour_Asymmetry_Pilot,2022.1.3,Win32,59.94125757,62c50e9c1127f2cd403a315f,0,106,106,113,1,onethree,,,,,,,,,,,,,,,,,,,,,,,,,,,,,,,,,,,,,,,,,,,,,,,,,,,,,,,,,,,,,,,,,,,,,,,,,,,,,,,,,,,,,,,,,,,,,,,,,,,,,,,,,,,,,,,,,,,,,,,,,,,,,,,,,,,,,,,,,,,,,,,,,,,,,,,,,,,,,
,,,,,,60ccf2ea70e16324c450f531,62c53891d6dd7e51736dafa5,2022-07-06_09h25.02.466,Colour_Asymmetry_Pilot,2022.1.3,Win32,59.94125757,62c50e9c1127f2cd403a315f,0,107,107,111,1,fourthree,,,,,,,,,,,,,,,,,,,,,,,,,,,,,,,,,,,,,,,,,,,,,,,,,,,,,,,,,,,,,,,,,,,,,,,,,,,,,,,,,,,,,,,,,,,,,,,,,,,,,,,,,,,,,,,,,,,,,,,,,,,,,,,,,,,,,,,,,,,,,,,,,,,,,,,,,,,,,
,,,,,,60ccf2ea70e16324c450f531,62c53891d6dd7e51736dafa5,2022-07-06_09h25.02.466,Colour_Asymmetry_Pilot,2022.1.3,Win32,59.94125757,62c50e9c1127f2cd403a315f,0,108,108,151,1,fourthree,,,,,,,,,,,,,,,,,,,,,,,,,,,,,,,,,,,,,,,,,,,,,,,,,,,,,,,,,,,,,,,,,,,,,,,,,,,,,,,,,,,,,,,,,,,,,,,,,,,,,,,,,,,,,,,,,,,,,,,,,,,,,,,,,,,,,,,,,,,,,,,,,,,,,,,,,,,,,
,,,,,,60ccf2ea70e16324c450f531,62c53891d6dd7e51736dafa5,2022-07-06_09h25.02.466,Colour_Asymmetry_Pilot,2022.1.3,Win32,59.94125757,62c50e9c1127f2cd403a315f,0,109,109,71,1,fourthree,,,,,,,,,,,,,,,,,,,,,,,,,,,,,,,,,,,,,,,,,,,,,,,,,,,,,,,,,,,,,,,,,,,,,,,,,,,,,,,,,,,,,,,,,,,,,,,,,,,,,,,,,,,,,,,,,,,,,,,,,,,,,,,,,,,,,,,,,,,,,,,,,,,,,,,,,,,,,
,,,,,,60ccf2ea70e16324c450f531,62c53891d6dd7e51736dafa5,2022-07-06_09h25.02.466,Colour_Asymmetry_Pilot,2022.1.3,Win32,59.94125757,62c50e9c1127f2cd403a315f,0,110,110,18,1,twoone,,,,,,,,,,,,,,,,,,,,,,,,,,,,,,,,,,,,,,,,,,,,,,,,,,,,,,,,,,,,,,,,,,,,,,,,,,,,,,,,,,,,,,,,,,,,,,,,,,,,,,,,,,,,,,,,,,,,,,,,,,,,,,,,,,,,,,,,,,,,,,,,,,,,,,,,,,,,,
,,,,,,60ccf2ea70e16324c450f531,62c53891d6dd7e51736dafa5,2022-07-06_09h25.02.466,Colour_Asymmetry_Pilot,2022.1.3,Win32,59.94125757,62c50e9c1127f2cd403a315f,0,111,111,6,1,fourtwo,,,,,,,,,,,,,,,,,,,,,,,,,,,,,,,,,,,,,,,,,,,,,,,,,,,,,,,,,,,,,,,,,,,,,,,,,,,,,,,,,,,,,,,,,,,,,,,,,,,,,,,,,,,,,,,,,,,,,,,,,,,,,,,,,,,,,,,,,,,,,,,,,,,,,,,,,,,,,
,,,,,,60ccf2ea70e16324c450f531,62c53891d6dd7e51736dafa5,2022-07-06_09h25.02.466,Colour_Asymmetry_Pilot,2022.1.3,Win32,59.94125757,62c50e9c1127f2cd403a315f,0,112,112,88,1,onetwo,,,,,,,,,,,,,,,,,,,,,,,,,,,,,,,,,,,,,,,,,,,,,,,,,,,,,,,,,,,,,,,,,,,,,,,,,,,,,,,,,,,,,,,,,,,,,,,,,,,,,,,,,,,,,,,,,,,,,,,,,,,,,,,,,,,,,,,,,,,,,,,,,,,,,,,,,,,,,
,,,,,,60ccf2ea70e16324c450f531,62c53891d6dd7e51736dafa5,2022-07-06_09h25.02.466,Colour_Asymmetry_Pilot,2022.1.3,Win32,59.94125757,62c50e9c1127f2cd403a315f,0,113,113,7,1,fourthree,,,,,,,,,,,,,,,,,,,,,,,,,,,,,,,,,,,,,,,,,,,,,,,,,,,,,,,,,,,,,,,,,,,,,,,,,,,,,,,,,,,,,,,,,,,,,,,,,,,,,,,,,,,,,,,,,,,,,,,,,,,,,,,,,,,,,,,,,,,,,,,,,,,,,,,,,,,,,
,,,,,,60ccf2ea70e16324c450f531,62c53891d6dd7e51736dafa5,2022-07-06_09h25.02.466,Colour_Asymmetry_Pilot,2022.1.3,Win32,59.94125757,62c50e9c1127f2cd403a315f,0,114,114,99,1,twofour,,,,,,,,,,,,,,,,,,,,,,,,,,,,,,,,,,,,,,,,,,,,,,,,,,,,,,,,,,,,,,,,,,,,,,,,,,,,,,,,,,,,,,,,,,,,,,,,,,,,,,,,,,,,,,,,,,,,,,,,,,,,,,,,,,,,,,,,,,,,,,,,,,,,,,,,,,,,,
,,,,,,60ccf2ea70e16324c450f531,62c53891d6dd7e51736dafa5,2022-07-06_09h25.02.466,Colour_Asymmetry_Pilot,2022.1.3,Win32,59.94125757,62c50e9c1127f2cd403a315f,0,115,115,72,1,onetwo,,,,,,,,,,,,,,,,,,,,,,,,,,,,,,,,,,,,,,,,,,,,,,,,,,,,,,,,,,,,,,,,,,,,,,,,,,,,,,,,,,,,,,,,,,,,,,,,,,,,,,,,,,,,,,,,,,,,,,,,,,,,,,,,,,,,,,,,,,,,,,,,,,,,,,,,,,,,,
,,,,,,60ccf2ea70e16324c450f531,62c53891d6dd7e51736dafa5,2022-07-06_09h25.02.466,Colour_Asymmetry_Pilot,2022.1.3,Win32,59.94125757,62c50e9c1127f2cd403a315f,0,116,116,73,1,onethree,,,,,,,,,,,,,,,,,,,,,,,,,,,,,,,,,,,,,,,,,,,,,,,,,,,,,,,,,,,,,,,,,,,,,,,,,,,,,,,,,,,,,,,,,,,,,,,,,,,,,,,,,,,,,,,,,,,,,,,,,,,,,,,,,,,,,,,,,,,,,,,,,,,,,,,,,,,,,
,,,,,,60ccf2ea70e16324c450f531,62c53891d6dd7e51736dafa5,2022-07-06_09h25.02.466,Colour_Asymmetry_Pilot,2022.1.3,Win32,59.94125757,62c50e9c1127f2cd403a315f,0,117,117,110,1,fourtwo,,,,,,,,,,,,,,,,,,,,,,,,,,,,,,,,,,,,,,,,,,,,,,,,,,,,,,,,,,,,,,,,,,,,,,,,,,,,,,,,,,,,,,,,,,,,,,,,,,,,,,,,,,,,,,,,,,,,,,,,,,,,,,,,,,,,,,,,,,,,,,,,,,,,,,,,,,,,,
,,,,,,60ccf2ea70e16324c450f531,62c53891d6dd7e51736dafa5,2022-07-06_09h25.02.466,Colour_Asymmetry_Pilot,2022.1.3,Win32,59.94125757,62c50e9c1127f2cd403a315f,0,118,118,28,1,threeone,,,,,,,,,,,,,,,,,,,,,,,,,,,,,,,,,,,,,,,,,,,,,,,,,,,,,,,,,,,,,,,,,,,,,,,,,,,,,,,,,,,,,,,,,,,,,,,,,,,,,,,,,,,,,,,,,,,,,,,,,,,,,,,,,,,,,,,,,,,,,,,,,,,,,,,,,,,,,
,,,,,,60ccf2ea70e16324c450f531,62c53891d6dd7e51736dafa5,2022-07-06_09h25.02.466,Colour_Asymmetry_Pilot,2022.1.3,Win32,59.94125757,62c50e9c1127f2cd403a315f,0,119,119,133,1,threefour,,,,,,,,,,,,,,,,,,,,,,,,,,,,,,,,,,,,,,,,,,,,,,,,,,,,,,,,,,,,,,,,,,,,,,,,,,,,,,,,,,,,,,,,,,,,,,,,,,,,,,,,,,,,,,,,,,,,,,,,,,,,,,,,,,,,,,,,,,,,,,,,,,,,,,,,,,,,,
,,,,,,60ccf2ea70e16324c450f531,62c53891d6dd7e51736dafa5,2022-07-06_09h25.02.466,Colour_Asymmetry_Pilot,2022.1.3,Win32,59.94125757,62c50e9c1127f2cd403a315f,0,120,120,23,1,fourthree,,,,,,,,,,,,,,,,,,,,,,,,,,,,,,,,,,,,,,,,,,,,,,,,,,,,,,,,,,,,,,,,,,,,,,,,,,,,,,,,,,,,,,,,,,,,,,,,,,,,,,,,,,,,,,,,,,,,,,,,,,,,,,,,,,,,,,,,,,,,,,,,,,,,,,,,,,,,,
,,,,,,60ccf2ea70e16324c450f531,62c53891d6dd7e51736dafa5,2022-07-06_09h25.02.466,Colour_Asymmetry_Pilot,2022.1.3,Win32,59.94125757,62c50e9c1127f2cd403a315f,0,121,121,27,1,twofour,,,,,,,,,,,,,,,,,,,,,,,,,,,,,,,,,,,,,,,,,,,,,,,,,,,,,,,,,,,,,,,,,,,,,,,,,,,,,,,,,,,,,,,,,,,,,,,,,,,,,,,,,,,,,,,,,,,,,,,,,,,,,,,,,,,,,,,,,,,,,,,,,,,,,,,,,,,,,
,,,,,,60ccf2ea70e16324c450f531,62c53891d6dd7e51736dafa5,2022-07-06_09h25.02.466,Colour_Asymmetry_Pilot,2022.1.3,Win32,59.94125757,62c50e9c1127f2cd403a315f,0,122,122,61,1,threefour,,,,,,,,,,,,,,,,,,,,,,,,,,,,,,,,,,,,,,,,,,,,,,,,,,,,,,,,,,,,,,,,,,,,,,,,,,,,,,,,,,,,,,,,,,,,,,,,,,,,,,,,,,,,,,,,,,,,,,,,,,,,,,,,,,,,,,,,,,,,,,,,,,,,,,,,,,,,,
,,,,,,60ccf2ea70e16324c450f531,62c53891d6dd7e51736dafa5,2022-07-06_09h25.02.466,Colour_Asymmetry_Pilot,2022.1.3,Win32,59.94125757,62c50e9c1127f2cd403a315f,0,123,123,17,1,onethree,,,,,,,,,,,,,,,,,,,,,,,,,,,,,,,,,,,,,,,,,,,,,,,,,,,,,,,,,,,,,,,,,,,,,,,,,,,,,,,,,,,,,,,,,,,,,,,,,,,,,,,,,,,,,,,,,,,,,,,,,,,,,,,,,,,,,,,,,,,,,,,,,,,,,,,,,,,,,
,,,,,,60ccf2ea70e16324c450f531,62c53891d6dd7e51736dafa5,2022-07-06_09h25.02.466,Colour_Asymmetry_Pilot,2022.1.3,Win32,59.94125757,62c50e9c1127f2cd403a315f,0,124,124,4,1,threeone,,,,,,,,,,,,,,,,,,,,,,,,,,,,,,,,,,,,,,,,,,,,,,,,,,,,,,,,,,,,,,,,,,,,,,,,,,,,,,,,,,,,,,,,,,,,,,,,,,,,,,,,,,,,,,,,,,,,,,,,,,,,,,,,,,,,,,,,,,,,,,,,,,,,,,,,,,,,,
,,,,,,60ccf2ea70e16324c450f531,62c53891d6dd7e51736dafa5,2022-07-06_09h25.02.466,Colour_Asymmetry_Pilot,2022.1.3,Win32,59.94125757,62c50e9c1127f2cd403a315f,0,125,125,156,1,threeone,,,,,,,,,,,,,,,,,,,,,,,,,,,,,,,,,,,,,,,,,,,,,,,,,,,,,,,,,,,,,,,,,,,,,,,,,,,,,,,,,,,,,,,,,,,,,,,,,,,,,,,,,,,,,,,,,,,,,,,,,,,,,,,,,,,,,,,,,,,,,,,,,,,,,,,,,,,,,
,,,,,,60ccf2ea70e16324c450f531,62c53891d6dd7e51736dafa5,2022-07-06_09h25.02.466,Colour_Asymmetry_Pilot,2022.1.3,Win32,59.94125757,62c50e9c1127f2cd403a315f,0,126,126,140,1,threeone,,,,,,,,,,,,,,,,,,,,,,,,,,,,,,,,,,,,,,,,,,,,,,,,,,,,,,,,,,,,,,,,,,,,,,,,,,,,,,,,,,,,,,,,,,,,,,,,,,,,,,,,,,,,,,,,,,,,,,,,,,,,,,,,,,,,,,,,,,,,,,,,,,,,,,,,,,,,,
,,,,,,60ccf2ea70e16324c450f531,62c53891d6dd7e51736dafa5,2022-07-06_09h25.02.466,Colour_Asymmetry_Pilot,2022.1.3,Win32,59.94125757,62c50e9c1127f2cd403a315f,0,127,127,130,1,twoone,,,,,,,,,,,,,,,,,,,,,,,,,,,,,,,,,,,,,,,,,,,,,,,,,,,,,,,,,,,,,,,,,,,,,,,,,,,,,,,,,,,,,,,,,,,,,,,,,,,,,,,,,,,,,,,,,,,,,,,,,,,,,,,,,,,,,,,,,,,,,,,,,,,,,,,,,,,,,
,,,,,,60ccf2ea70e16324c450f531,62c53891d6dd7e51736dafa5,2022-07-06_09h25.02.466,Colour_Asymmetry_Pilot,2022.1.3,Win32,59.94125757,62c50e9c1127f2cd403a315f,0,128,128,46,1,fourtwo,,,,,,,,,,,,,,,,,,,,,,,,,,,,,,,,,,,,,,,,,,,,,,,,,,,,,,,,,,,,,,,,,,,,,,,,,,,,,,,,,,,,,,,,,,,,,,,,,,,,,,,,,,,,,,,,,,,,,,,,,,,,,,,,,,,,,,,,,,,,,,,,,,,,,,,,,,,,,
,,,,,,60ccf2ea70e16324c450f531,62c53891d6dd7e51736dafa5,2022-07-06_09h25.02.466,Colour_Asymmetry_Pilot,2022.1.3,Win32,59.94125757,62c50e9c1127f2cd403a315f,0,129,129,79,1,fourthree,,,,,,,,,,,,,,,,,,,,,,,,,,,,,,,,,,,,,,,,,,,,,,,,,,,,,,,,,,,,,,,,,,,,,,,,,,,,,,,,,,,,,,,,,,,,,,,,,,,,,,,,,,,,,,,,,,,,,,,,,,,,,,,,,,,,,,,,,,,,,,,,,,,,,,,,,,,,,
,,,,,,60ccf2ea70e16324c450f531,62c53891d6dd7e51736dafa5,2022-07-06_09h25.02.466,Colour_Asymmetry_Pilot,2022.1.3,Win32,59.94125757,62c50e9c1127f2cd403a315f,0,130,130,39,1,fourthree,,,,,,,,,,,,,,,,,,,,,,,,,,,,,,,,,,,,,,,,,,,,,,,,,,,,,,,,,,,,,,,,,,,,,,,,,,,,,,,,,,,,,,,,,,,,,,,,,,,,,,,,,,,,,,,,,,,,,,,,,,,,,,,,,,,,,,,,,,,,,,,,,,,,,,,,,,,,,
,,,,,,60ccf2ea70e16324c450f531,62c53891d6dd7e51736dafa5,2022-07-06_09h25.02.466,Colour_Asymmetry_Pilot,2022.1.3,Win32,59.94125757,62c50e9c1127f2cd403a315f,0,131,131,8,1,onetwo,,,,,,,,,,,,,,,,,,,,,,,,,,,,,,,,,,,,,,,,,,,,,,,,,,,,,,,,,,,,,,,,,,,,,,,,,,,,,,,,,,,,,,,,,,,,,,,,,,,,,,,,,,,,,,,,,,,,,,,,,,,,,,,,,,,,,,,,,,,,,,,,,,,,,,,,,,,,,
,,,,,,60ccf2ea70e16324c450f531,62c53891d6dd7e51736dafa5,2022-07-06_09h25.02.466,Colour_Asymmetry_Pilot,2022.1.3,Win32,59.94125757,62c50e9c1127f2cd403a315f,0,132,132,153,1,onethree,,,,,,,,,,,,,,,,,,,,,,,,,,,,,,,,,,,,,,,,,,,,,,,,,,,,,,,,,,,,,,,,,,,,,,,,,,,,,,,,,,,,,,,,,,,,,,,,,,,,,,,,,,,,,,,,,,,,,,,,,,,,,,,,,,,,,,,,,,,,,,,,,,,,,,,,,,,,,
,,,,,,60ccf2ea70e16324c450f531,62c53891d6dd7e51736dafa5,2022-07-06_09h25.02.466,Colour_Asymmetry_Pilot,2022.1.3,Win32,59.94125757,62c50e9c1127f2cd403a315f,0,133,133,138,1,twoone,,,,,,,,,,,,,,,,,,,,,,,,,,,,,,,,,,,,,,,,,,,,,,,,,,,,,,,,,,,,,,,,,,,,,,,,,,,,,,,,,,,,,,,,,,,,,,,,,,,,,,,,,,,,,,,,,,,,,,,,,,,,,,,,,,,,,,,,,,,,,,,,,,,,,,,,,,,,,
,,,,,,60ccf2ea70e16324c450f531,62c53891d6dd7e51736dafa5,2022-07-06_09h25.02.466,Colour_Asymmetry_Pilot,2022.1.3,Win32,59.94125757,62c50e9c1127f2cd403a315f,0,134,134,78,1,fourtwo,,,,,,,,,,,,,,,,,,,,,,,,,,,,,,,,,,,,,,,,,,,,,,,,,,,,,,,,,,,,,,,,,,,,,,,,,,,,,,,,,,,,,,,,,,,,,,,,,,,,,,,,,,,,,,,,,,,,,,,,,,,,,,,,,,,,,,,,,,,,,,,,,,,,,,,,,,,,,
,,,,,,60ccf2ea70e16324c450f531,62c53891d6dd7e51736dafa5,2022-07-06_09h25.02.466,Colour_Asymmetry_Pilot,2022.1.3,Win32,59.94125757,62c50e9c1127f2cd403a315f,0,135,135,145,1,onethree,,,,,,,,,,,,,,,,,,,,,,,,,,,,,,,,,,,,,,,,,,,,,,,,,,,,,,,,,,,,,,,,,,,,,,,,,,,,,,,,,,,,,,,,,,,,,,,,,,,,,,,,,,,,,,,,,,,,,,,,,,,,,,,,,,,,,,,,,,,,,,,,,,,,,,,,,,,,,
,,,,,,60ccf2ea70e16324c450f531,62c53891d6dd7e51736dafa5,2022-07-06_09h25.02.466,Colour_Asymmetry_Pilot,2022.1.3,Win32,59.94125757,62c50e9c1127f2cd403a315f,0,136,136,70,1,fourtwo,,,,,,,,,,,,,,,,,,,,,,,,,,,,,,,,,,,,,,,,,,,,,,,,,,,,,,,,,,,,,,,,,,,,,,,,,,,,,,,,,,,,,,,,,,,,,,,,,,,,,,,,,,,,,,,,,,,,,,,,,,,,,,,,,,,,,,,,,,,,,,,,,,,,,,,,,,,,,
,,,,,,60ccf2ea70e16324c450f531,62c53891d6dd7e51736dafa5,2022-07-06_09h25.02.466,Colour_Asymmetry_Pilot,2022.1.3,Win32,59.94125757,62c50e9c1127f2cd403a315f,0,137,137,36,1,threeone,,,,,,,,,,,,,,,,,,,,,,,,,,,,,,,,,,,,,,,,,,,,,,,,,,,,,,,,,,,,,,,,,,,,,,,,,,,,,,,,,,,,,,,,,,,,,,,,,,,,,,,,,,,,,,,,,,,,,,,,,,,,,,,,,,,,,,,,,,,,,,,,,,,,,,,,,,,,,
,,,,,,60ccf2ea70e16324c450f531,62c53891d6dd7e51736dafa5,2022-07-06_09h25.02.466,Colour_Asymmetry_Pilot,2022.1.3,Win32,59.94125757,62c50e9c1127f2cd403a315f,0,138,138,139,1,twofour,,,,,,,,,,,,,,,,,,,,,,,,,,,,,,,,,,,,,,,,,,,,,,,,,,,,,,,,,,,,,,,,,,,,,,,,,,,,,,,,,,,,,,,,,,,,,,,,,,,,,,,,,,,,,,,,,,,,,,,,,,,,,,,,,,,,,,,,,,,,,,,,,,,,,,,,,,,,,
,,,,,,60ccf2ea70e16324c450f531,62c53891d6dd7e51736dafa5,2022-07-06_09h25.02.466,Colour_Asymmetry_Pilot,2022.1.3,Win32,59.94125757,62c50e9c1127f2cd403a315f,0,139,139,143,1,fourthree,,,,,,,,,,,,,,,,,,,,,,,,,,,,,,,,,,,,,,,,,,,,,,,,,,,,,,,,,,,,,,,,,,,,,,,,,,,,,,,,,,,,,,,,,,,,,,,,,,,,,,,,,,,,,,,,,,,,,,,,,,,,,,,,,,,,,,,,,,,,,,,,,,,,,,,,,,,,,
,,,,,,60ccf2ea70e16324c450f531,62c53891d6dd7e51736dafa5,2022-07-06_09h25.02.466,Colour_Asymmetry_Pilot,2022.1.3,Win32,59.94125757,62c50e9c1127f2cd403a315f,0,140,140,154,1,twoone,,,,,,,,,,,,,,,,,,,,,,,,,,,,,,,,,,,,,,,,,,,,,,,,,,,,,,,,,,,,,,,,,,,,,,,,,,,,,,,,,,,,,,,,,,,,,,,,,,,,,,,,,,,,,,,,,,,,,,,,,,,,,,,,,,,,,,,,,,,,,,,,,,,,,,,,,,,,,
,,,,,,60ccf2ea70e16324c450f531,62c53891d6dd7e51736dafa5,2022-07-06_09h25.02.466,Colour_Asymmetry_Pilot,2022.1.3,Win32,59.94125757,62c50e9c1127f2cd403a315f,0,141,141,107,1,twofour,,,,,,,,,,,,,,,,,,,,,,,,,,,,,,,,,,,,,,,,,,,,,,,,,,,,,,,,,,,,,,,,,,,,,,,,,,,,,,,,,,,,,,,,,,,,,,,,,,,,,,,,,,,,,,,,,,,,,,,,,,,,,,,,,,,,,,,,,,,,,,,,,,,,,,,,,,,,,
,,,,,,60ccf2ea70e16324c450f531,62c53891d6dd7e51736dafa5,2022-07-06_09h25.02.466,Colour_Asymmetry_Pilot,2022.1.3,Win32,59.94125757,62c50e9c1127f2cd403a315f,0,142,142,114,1,twoone,,,,,,,,,,,,,,,,,,,,,,,,,,,,,,,,,,,,,,,,,,,,,,,,,,,,,,,,,,,,,,,,,,,,,,,,,,,,,,,,,,,,,,,,,,,,,,,,,,,,,,,,,,,,,,,,,,,,,,,,,,,,,,,,,,,,,,,,,,,,,,,,,,,,,,,,,,,,,
,,,,,,60ccf2ea70e16324c450f531,62c53891d6dd7e51736dafa5,2022-07-06_09h25.02.466,Colour_Asymmetry_Pilot,2022.1.3,Win32,59.94125757,62c50e9c1127f2cd403a315f,0,143,143,97,1,onethree,,,,,,,,,,,,,,,,,,,,,,,,,,,,,,,,,,,,,,,,,,,,,,,,,,,,,,,,,,,,,,,,,,,,,,,,,,,,,,,,,,,,,,,,,,,,,,,,,,,,,,,,,,,,,,,,,,,,,,,,,,,,,,,,,,,,,,,,,,,,,,,,,,,,,,,,,,,,,
,,,,,,60ccf2ea70e16324c450f531,62c53891d6dd7e51736dafa5,2022-07-06_09h25.02.466,Colour_Asymmetry_Pilot,2022.1.3,Win32,59.94125757,62c50e9c1127f2cd403a315f,0,144,144,119,1,fourthree,,,,,,,,,,,,,,,,,,,,,,,,,,,,,,,,,,,,,,,,,,,,,,,,,,,,,,,,,,,,,,,,,,,,,,,,,,,,,,,,,,,,,,,,,,,,,,,,,,,,,,,,,,,,,,,,,,,,,,,,,,,,,,,,,,,,,,,,,,,,,,,,,,,,,,,,,,,,,
,,,,,,60ccf2ea70e16324c450f531,62c53891d6dd7e51736dafa5,2022-07-06_09h25.02.466,Colour_Asymmetry_Pilot,2022.1.3,Win32,59.94125757,62c50e9c1127f2cd403a315f,0,145,145,59,1,twofour,,,,,,,,,,,,,,,,,,,,,,,,,,,,,,,,,,,,,,,,,,,,,,,,,,,,,,,,,,,,,,,,,,,,,,,,,,,,,,,,,,,,,,,,,,,,,,,,,,,,,,,,,,,,,,,,,,,,,,,,,,,,,,,,,,,,,,,,,,,,,,,,,,,,,,,,,,,,,
,,,,,,60ccf2ea70e16324c450f531,62c53891d6dd7e51736dafa5,2022-07-06_09h25.02.466,Colour_Asymmetry_Pilot,2022.1.3,Win32,59.94125757,62c50e9c1127f2cd403a315f,0,146,146,83,1,twofour,,,,,,,,,,,,,,,,,,,,,,,,,,,,,,,,,,,,,,,,,,,,,,,,,,,,,,,,,,,,,,,,,,,,,,,,,,,,,,,,,,,,,,,,,,,,,,,,,,,,,,,,,,,,,,,,,,,,,,,,,,,,,,,,,,,,,,,,,,,,,,,,,,,,,,,,,,,,,
,,,,,,60ccf2ea70e16324c450f531,62c53891d6dd7e51736dafa5,2022-07-06_09h25.02.466,Colour_Asymmetry_Pilot,2022.1.3,Win32,59.94125757,62c50e9c1127f2cd403a315f,0,147,147,132,1,threeone,,,,,,,,,,,,,,,,,,,,,,,,,,,,,,,,,,,,,,,,,,,,,,,,,,,,,,,,,,,,,,,,,,,,,,,,,,,,,,,,,,,,,,,,,,,,,,,,,,,,,,,,,,,,,,,,,,,,,,,,,,,,,,,,,,,,,,,,,,,,,,,,,,,,,,,,,,,,,
,,,,,,60ccf2ea70e16324c450f531,62c53891d6dd7e51736dafa5,2022-07-06_09h25.02.466,Colour_Asymmetry_Pilot,2022.1.3,Win32,59.94125757,62c50e9c1127f2cd403a315f,0,148,148,69,1,threefour,,,,,,,,,,,,,,,,,,,,,,,,,,,,,,,,,,,,,,,,,,,,,,,,,,,,,,,,,,,,,,,,,,,,,,,,,,,,,,,,,,,,,,,,,,,,,,,,,,,,,,,,,,,,,,,,,,,,,,,,,,,,,,,,,,,,,,,,,,,,,,,,,,,,,,,,,,,,,
,,,,,,60ccf2ea70e16324c450f531,62c53891d6dd7e51736dafa5,2022-07-06_09h25.02.466,Colour_Asymmetry_Pilot,2022.1.3,Win32,59.94125757,62c50e9c1127f2cd403a315f,0,149,149,103,1,fourthree,,,,,,,,,,,,,,,,,,,,,,,,,,,,,,,,,,,,,,,,,,,,,,,,,,,,,,,,,,,,,,,,,,,,,,,,,,,,,,,,,,,,,,,,,,,,,,,,,,,,,,,,,,,,,,,,,,,,,,,,,,,,,,,,,,,,,,,,,,,,,,,,,,,,,,,,,,,,,
,,,,,,60ccf2ea70e16324c450f531,62c53891d6dd7e51736dafa5,2022-07-06_09h25.02.466,Colour_Asymmetry_Pilot,2022.1.3,Win32,59.94125757,62c50e9c1127f2cd403a315f,0,150,150,121,1,onethree,,,,,,,,,,,,,,,,,,,,,,,,,,,,,,,,,,,,,,,,,,,,,,,,,,,,,,,,,,,,,,,,,,,,,,,,,,,,,,,,,,,,,,,,,,,,,,,,,,,,,,,,,,,,,,,,,,,,,,,,,,,,,,,,,,,,,,,,,,,,,,,,,,,,,,,,,,,,,
,,,,,,60ccf2ea70e16324c450f531,62c53891d6dd7e51736dafa5,2022-07-06_09h25.02.466,Colour_Asymmetry_Pilot,2022.1.3,Win32,59.94125757,62c50e9c1127f2cd403a315f,0,151,151,22,1,fourtwo,,,,,,,,,,,,,,,,,,,,,,,,,,,,,,,,,,,,,,,,,,,,,,,,,,,,,,,,,,,,,,,,,,,,,,,,,,,,,,,,,,,,,,,,,,,,,,,,,,,,,,,,,,,,,,,,,,,,,,,,,,,,,,,,,,,,,,,,,,,,,,,,,,,,,,,,,,,,,
,,,,,,60ccf2ea70e16324c450f531,62c53891d6dd7e51736dafa5,2022-07-06_09h25.02.466,Colour_Asymmetry_Pilot,2022.1.3,Win32,59.94125757,62c50e9c1127f2cd403a315f,0,152,152,37,1,threefour,,,,,,,,,,,,,,,,,,,,,,,,,,,,,,,,,,,,,,,,,,,,,,,,,,,,,,,,,,,,,,,,,,,,,,,,,,,,,,,,,,,,,,,,,,,,,,,,,,,,,,,,,,,,,,,,,,,,,,,,,,,,,,,,,,,,,,,,,,,,,,,,,,,,,,,,,,,,,
,,,,,,60ccf2ea70e16324c450f531,62c53891d6dd7e51736dafa5,2022-07-06_09h25.02.466,Colour_Asymmetry_Pilot,2022.1.3,Win32,59.94125757,62c50e9c1127f2cd403a315f,0,153,153,67,1,twofour,,,,,,,,,,,,,,,,,,,,,,,,,,,,,,,,,,,,,,,,,,,,,,,,,,,,,,,,,,,,,,,,,,,,,,,,,,,,,,,,,,,,,,,,,,,,,,,,,,,,,,,,,,,,,,,,,,,,,,,,,,,,,,,,,,,,,,,,,,,,,,,,,,,,,,,,,,,,,
,,,,,,60ccf2ea70e16324c450f531,62c53891d6dd7e51736dafa5,2022-07-06_09h25.02.466,Colour_Asymmetry_Pilot,2022.1.3,Win32,59.94125757,62c50e9c1127f2cd403a315f,0,154,154,45,1,threefour,,,,,,,,,,,,,,,,,,,,,,,,,,,,,,,,,,,,,,,,,,,,,,,,,,,,,,,,,,,,,,,,,,,,,,,,,,,,,,,,,,,,,,,,,,,,,,,,,,,,,,,,,,,,,,,,,,,,,,,,,,,,,,,,,,,,,,,,,,,,,,,,,,,,,,,,,,,,,
,,,,,,60ccf2ea70e16324c450f531,62c53891d6dd7e51736dafa5,2022-07-06_09h25.02.466,Colour_Asymmetry_Pilot,2022.1.3,Win32,59.94125757,62c50e9c1127f2cd403a315f,0,155,155,56,1,onetwo,,,,,,,,,,,,,,,,,,,,,,,,,,,,,,,,,,,,,,,,,,,,,,,,,,,,,,,,,,,,,,,,,,,,,,,,,,,,,,,,,,,,,,,,,,,,,,,,,,,,,,,,,,,,,,,,,,,,,,,,,,,,,,,,,,,,,,,,,,,,,,,,,,,,,,,,,,,,,
,,,,,,60ccf2ea70e16324c450f531,62c53891d6dd7e51736dafa5,2022-07-06_09h25.02.466,Colour_Asymmetry_Pilot,2022.1.3,Win32,59.94125757,62c50e9c1127f2cd403a315f,0,156,156,108,1,threeone,,,,,,,,,,,,,,,,,,,,,,,,,,,,,,,,,,,,,,,,,,,,,,,,,,,,,,,,,,,,,,,,,,,,,,,,,,,,,,,,,,,,,,,,,,,,,,,,,,,,,,,,,,,,,,,,,,,,,,,,,,,,,,,,,,,,,,,,,,,,,,,,,,,,,,,,,,,,,
,,,,,,60ccf2ea70e16324c450f531,62c53891d6dd7e51736dafa5,2022-07-06_09h25.02.466,Colour_Asymmetry_Pilot,2022.1.3,Win32,59.94125757,62c50e9c1127f2cd403a315f,0,157,157,40,1,onetwo,,,,,,,,,,,,,,,,,,,,,,,,,,,,,,,,,,,,,,,,,,,,,,,,,,,,,,,,,,,,,,,,,,,,,,,,,,,,,,,,,,,,,,,,,,,,,,,,,,,,,,,,,,,,,,,,,,,,,,,,,,,,,,,,,,,,,,,,,,,,,,,,,,,,,,,,,,,,,
,,,,,,60ccf2ea70e16324c450f531,62c53891d6dd7e51736dafa5,2022-07-06_09h25.02.466,Colour_Asymmetry_Pilot,2022.1.3,Win32,59.94125757,62c50e9c1127f2cd403a315f,0,158,158,144,1,onetwo,,,,,,,,,,,,,,,,,,,,,,,,,,,,,,,,,,,,,,,,,,,,,,,,,,,,,,,,,,,,,,,,,,,,,,,,,,,,,,,,,,,,,,,,,,,,,,,,,,,,,,,,,,,,,,,,,,,,,,,,,,,,,,,,,,,,,,,,,,,,,,,,,,,,,,,,,,,,,
,,,,,,60ccf2ea70e16324c450f531,62c53891d6dd7e51736dafa5,2022-07-06_09h25.02.466,Colour_Asymmetry_Pilot,2022.1.3,Win32,59.94125757,62c50e9c1127f2cd403a315f,0,159,159,12,1,threeone,,,,,,,,,,,,,,,,,,,,,,,,,,,,,,,,,,,,,,,,,,,,,,,,,,,,,,,,,,,,,,,,,,,,,,,,,,,,,,,,,,,,,,,,,,,,,,,,,,,,,,,,,,,,,,,,,,,,,,,,,,,,,,,,,,,,,,,,,,,,,,,,,,,,,,,,,,,,,
,,,,,,60ccf2ea70e16324c450f531,62c53891d6dd7e51736dafa5,2022-07-06_09h25.02.466,Colour_Asymmetry_Pilot,2022.1.3,Win32,59.94125757,62c50e9c1127f2cd403a315f,0,160,160,91,1,twofour,,,,,,,,,,,,,,,,,,,,,,,,,,,,,,,,,,,,,,,,,,,,,,,,,,,,,,,,,,,,,,,,,,,,,,,,,,,,,,,,,,,,,,,,,,,,,,,,,,,,,,,,,,,,,,,,,,,,,,,,,,,,,,,,,,,,,,,,,,,,,,,,,,,,,,,,,,,,,
,,,,,,60ccf2ea70e16324c450f531,62c53891d6dd7e51736dafa5,2022-07-06_09h25.02.466,Colour_Asymmetry_Pilot,2022.1.3,Win32,59.94125757,62c50e9c1127f2cd403a315f,0,161,161,90,1,twoone,,,,,,,,,,,,,,,,,,,,,,,,,,,,,,,,,,,,,,,,,,,,,,,,,,,,,,,,,,,,,,,,,,,,,,,,,,,,,,,,,,,,,,,,,,,,,,,,,,,,,,,,,,,,,,,,,,,,,,,,,,,,,,,,,,,,,,,,,,,,,,,,,,,,,,,,,,,,,
,,,,,,60ccf2ea70e16324c450f531,62c53891d6dd7e51736dafa5,2022-07-06_09h25.02.466,Colour_Asymmetry_Pilot,2022.1.3,Win32,59.94125757,62c50e9c1127f2cd403a315f,,,,,,,space,21.5989,space,152.2708,space,198.8859,space,21.3417,space,4.9009,space,5.5573,"[0.04299999999999993,0.16060000000000008,-0.6628000000000001]",fourtwo,"[0.3881999999999999,-0.23939999999999995,-0.05040000000000011]",-4,61.6605,-38,101,1,0,0,response7disk_5,1,3,1,0,0,rectangle_8,41,93,1,0,0,response1disk_7,7,4,-5,-1,1,0,0,rectangle_4,0,0,0,0,1,,,,,,,,,,,,,,,,,,,,,,,,,,,,,,,,,,,,,,,,,,,,,,,,,,,,,,,,,,,,,,,,,,,,,,,,,,,,,,,,,,,,,,,,,,,,,,,,,,,,,,,,,,,,,
,,,,,,60ccf2ea70e16324c450f531,62c53891d6dd7e51736dafa5,2022-07-06_09h25.02.466,Colour_Asymmetry_Pilot,2022.1.3,Win32,59.94125757,62c50e9c1127f2cd403a315f,,,,,,,,,,,,,,,,,,,"[-0.4668,-0.8746,-0.2942]",threeone,"[-0.9688,-0.7412000000000001,-0.4902000000000001]",-4,5.1729,-41,92,1,0,0,response7disk_5,-4,-3,1,0,0,rectangle_8,-4,-3,1,0,0,,,4,-4,-3,1,0,0,,1,0,1,0,1,,,,,,,,,,,,,,,,,,,,,,,,,,,,,,,,,,,,,,,,,,,,,,,,,,,,,,,,,,,,,,,,,,,,,,,,,,,,,,,,,,,,,,,,,,,,,,,,,,,,,,,,,,,,,
,,,,,,60ccf2ea70e16324c450f531,62c53891d6dd7e51736dafa5,2022-07-06_09h25.02.466,Colour_Asymmetry_Pilot,2022.1.3,Win32,59.94125757,62c50e9c1127f2cd403a315f,,,,,,,,,,,,,,,,,,,"[0.19199999999999995,0.18419999999999992,0.5136000000000001]",threefour,"[0.5528,0.7409999999999999,-0.71]",-4,2.769,-38,85,1,0,0,response7disk_5,-10,7,1,0,0,rectangle_8,-10,7,1,0,0,,,4,-10,7,1,0,0,,2,0,2,0,1,,,,,,,,,,,,,,,,,,,,,,,,,,,,,,,,,,,,,,,,,,,,,,,,,,,,,,,,,,,,,,,,,,,,,,,,,,,,,,,,,,,,,,,,,,,,,,,,,,,,,,,,,,,,,
,,,,,,60ccf2ea70e16324c450f531,62c53891d6dd7e51736dafa5,2022-07-06_09h25.02.466,Colour_Asymmetry_Pilot,2022.1.3,Win32,59.94125757,62c50e9c1127f2cd403a315f,,,,,,,,,,,,,,,,,,,"[-0.17659999999999998,-0.2864,-0.8354]",fourthree,"[0.11359999999999992,0.6312,0.5213999999999999]",-3,3.3529,-72,36,1,0,0,response7disk_5,-2,-3,1,0,0,rectangle_8,-2,-3,1,0,0,,,4,-2,-3,1,0,0,,3,0,3,0,1,,,,,,,,,,,,,,,,,,,,,,,,,,,,,,,,,,,,,,,,,,,,,,,,,,,,,,,,,,,,,,,,,,,,,,,,,,,,,,,,,,,,,,,,,,,,,,,,,,,,,,,,,,,,,
,,,,,,60ccf2ea70e16324c450f531,62c53891d6dd7e51736dafa5,2022-07-06_09h25.02.466,Colour_Asymmetry_Pilot,2022.1.3,Win32,59.94125757,62c50e9c1127f2cd403a315f,,,,,,,,,,,,,,,,,,,"[-0.6235999999999999,-0.6786,-0.08239999999999992]",fourtwo,"[0.7802,-0.23140000000000005,-0.20799999999999996]",-3,3.2845,-93,28,1,0,0,response7disk_5,-5,6,1,0,0,rectangle_8,45,86,1,0,0,response1disk_7,7,4,-13,4,1,0,0,rectangle_4,4,0,4,0,1,,,,,,,,,,,,,,,,,,,,,,,,,,,,,,,,,,,,,,,,,,,,,,,,,,,,,,,,,,,,,,,,,,,,,,,,,,,,,,,,,,,,,,,,,,,,,,,,,,,,,,,,,,,,,
,,,,,,60ccf2ea70e16324c450f531,62c53891d6dd7e51736dafa5,2022-07-06_09h25.02.466,Colour_Asymmetry_Pilot,2022.1.3,Win32,59.94125757,62c50e9c1127f2cd403a315f,,,,,,,,,,,,,,,,,,,"[0.3568,-0.20799999999999996,-0.9844]",fourtwo,"[-0.26280000000000003,-0.4746,-0.2158]",-4,2.9049,-53,91,1,0,0,response7disk_5,14,0,1,0,0,rectangle_8,14,0,1,0,0,,,4,14,0,1,0,0,,5,0,5,0,1,,,,,,,,,,,,,,,,,,,,,,,,,,,,,,,,,,,,,,,,,,,,,,,,,,,,,,,,,,,,,,,,,,,,,,,,,,,,,,,,,,,,,,,,,,,,,,,,,,,,,,,,,,,,,
,,,,,,60ccf2ea70e16324c450f531,62c53891d6dd7e51736dafa5,2022-07-06_09h25.02.466,Colour_Asymmetry_Pilot,2022.1.3,Win32,59.94125757,62c50e9c1127f2cd403a315f,,,,,,,,,,,,,,,,,,,"[0.7018,0.7176,0.6155999999999999]",onetwo,"[0.9842,0.7409999999999999,-0.6628000000000001]",-2,3.9671,-97,-47,1,0,0,response5disk_5,-2,5,1,0,0,rectangle_8,-2,5,1,0,0,,,4,-2,5,1,0,0,,6,0,6,0,1,,,,,,,,,,,,,,,,,,,,,,,,,,,,,,,,,,,,,,,,,,,,,,,,,,,,,,,,,,,,,,,,,,,,,,,,,,,,,,,,,,,,,,,,,,,,,,,,,,,,,,,,,,,,,
,,,,,,60ccf2ea70e16324c450f531,62c53891d6dd7e51736dafa5,2022-07-06_09h25.02.466,Colour_Asymmetry_Pilot,2022.1.3,Win32,59.94125757,62c50e9c1127f2cd403a315f,,,,,,,,,,,,,,,,,,,,onethree,,-3,3.9213,,,,,,,,,,,,,,,,,,,,,,,,,,,,,,,,space,4.7314,"[-0.0040000000000000036,0.02739999999999987,-0.08239999999999992]","[0.9686000000000001,0.5763999999999998,0.11359999999999992]",-68,38,1,0,0,response7disk,-6,-2,1,0,0,rectangle,-6,-2,1,0,0,,2,0.0042,0,-6,-2,1,0,0,0,0,0,45,1,45,first,,,,,,,,,,,,,,,,,,,,,,,,,,,,,,,,,,,,,,,,,,,,,,,,,,,,,,,,,,,,,,,,,,,,,,,,
,,,,,,60ccf2ea70e16324c450f531,62c53891d6dd7e51736dafa5,2022-07-06_09h25.02.466,Colour_Asymmetry_Pilot,2022.1.3,Win32,59.94125757,62c50e9c1127f2cd403a315f,,,,,,,,,,,,,,,,,,,,twofour,,-4,2.5888,,,,,,,,,,,,,,,,,,,,,,,,,,,,,,,,,,"[0.11359999999999992,0.6312,0.5213999999999999]","[0.9686000000000001,0.3802000000000001,0.19999999999999996]",-37,108,1,0,0,response7disk,-16,-7,1,0,0,rectangle,93,-46,1,0,0,2,2,5.637,1,-17,-1,1,0,0,0,1,1,159,1,78,second,response3disk_3,rectangle,,,,,,,,,,,,,,,,,,,,,,,,,,,,,,,,,,,,,,,,,,,,,,,,,,,,,,,,,,,,,,,,,,,,,,
,,,,,,60ccf2ea70e16324c450f531,62c53891d6dd7e51736dafa5,2022-07-06_09h25.02.466,Colour_Asymmetry_Pilot,2022.1.3,Win32,59.94125757,62c50e9c1127f2cd403a315f,,,,,,,,,,,,,,,,,,,,onetwo,,-4,2.0851,,,,,,,,,,,,,,,,,,,,,,,,,,,,,,,,,,"[-0.9766,-0.6472,0.07440000000000002]","[0.7018,0.7176,0.6155999999999999]",-42,77,1,0,0,response7disk,-5,-1,1,0,0,rectangle,-5,-1,1,0,0,2,2,0.0006,0,-5,-1,1,0,0,0,2,2,131,1,50,second,,,,,,,,,,,,,,,,,,,,,,,,,,,,,,,,,,,,,,,,,,,,,,,,,,,,,,,,,,,,,,,,,,,,,,,,
,,,,,,60ccf2ea70e16324c450f531,62c53891d6dd7e51736dafa5,2022-07-06_09h25.02.466,Colour_Asymmetry_Pilot,2022.1.3,Win32,59.94125757,62c50e9c1127f2cd403a315f,,,,,,,,,,,,,,,,,,,,onetwo,,-4,4.2031,,,,,,,,,,,,,,,,,,,,,,,,,,,,,,,,,,"[0.9686000000000001,0.5763999999999998,0.11359999999999992]","[-0.0040000000000000036,0.02739999999999987,-0.08239999999999992]",-40,103,1,0,0,response7disk,-5,-2,1,0,0,rectangle,-5,-2,1,0,0,2,1,0.0044,0,-5,-2,1,0,0,0,3,3,126,1,45,second,,,,,,,,,,,,,,,,,,,,,,,,,,,,,,,,,,,,,,,,,,,,,,,,,,,,,,,,,,,,,,,,,,,,,,,,
,,,,,,60ccf2ea70e16324c450f531,62c53891d6dd7e51736dafa5,2022-07-06_09h25.02.466,Colour_Asymmetry_Pilot,2022.1.3,Win32,59.94125757,62c50e9c1127f2cd403a315f,,,,,,,,,,,,,,,,,,,,threeone,,-4,1.4676,,,,,,,,,,,,,,,,,,,,,,,,,,,,,,,,,,"[0.05879999999999996,0.2784,0.5841999999999998]","[-0.24719999999999998,0.5213999999999999,-0.12959999999999994]",-47,81,1,0,0,response7disk,-20,11,1,0,0,rectangle,-20,11,1,0,0,2,3,0.0028,0,-20,11,1,0,0,0,4,4,17,1,17,first,,,,,,,,,,,,,,,,,,,,,,,,,,,,,,,,,,,,,,,,,,,,,,,,,,,,,,,,,,,,,,,,,,,,,,,,
,,,,,,60ccf2ea70e16324c450f531,62c53891d6dd7e51736dafa5,2022-07-06_09h25.02.466,Colour_Asymmetry_Pilot,2022.1.3,Win32,59.94125757,62c50e9c1127f2cd403a315f,,,,,,,,,,,,,,,,,,,,fourthree,,-2,2.5853,,,,,,,,,,,,,,,,,,,,,,,,,,,,,,,,,,"[-0.30200000000000005,0.14500000000000002,0.2784]","[-0.8198,-0.5138,-0.7492000000000001]",-86,-30,1,0,0,response5disk,4,5,1,0,0,rectangle,4,5,1,0,0,2,2,0.0024,0,4,5,1,0,0,0,5,5,99,1,18,second,,,,,,,,,,,,,,,,,,,,,,,,,,,,,,,,,,,,,,,,,,,,,,,,,,,,,,,,,,,,,,,,,,,,,,,,
,,,,,,60ccf2ea70e16324c450f531,62c53891d6dd7e51736dafa5,2022-07-06_09h25.02.466,Colour_Asymmetry_Pilot,2022.1.3,Win32,59.94125757,62c50e9c1127f2cd403a315f,,,,,,,,,,,,,,,,,,,,threeone,,-3,2.523,,,,,,,,,,,,,,,,,,,,,,,,,,,,,,,,,,"[0.7176,-0.906,-0.6864]","[-0.10599999999999998,-0.10599999999999998,0.5841999999999998]",-87,44,1,0,0,response7disk,-9,-6,1,0,0,rectangle,-9,-6,1,0,0,2,1,0.0048,0,-9,-6,1,0,0,0,6,6,130,1,49,second,,,,,,,,,,,,,,,,,,,,,,,,,,,,,,,,,,,,,,,,,,,,,,,,,,,,,,,,,,,,,,,,,,,,,,,,
,,,,,,60ccf2ea70e16324c450f531,62c53891d6dd7e51736dafa5,2022-07-06_09h25.02.466,Colour_Asymmetry_Pilot,2022.1.3,Win32,59.94125757,62c50e9c1127f2cd403a315f,,,,,,,,,,,,,,,,,,,,twoone,,-3,1.5536,,,,,,,,,,,,,,,,,,,,,,,,,,,,,,,,,,"[0.9842,0.7409999999999999,-0.6628000000000001]","[0.09799999999999986,-0.24719999999999998,0.15280000000000005]",-78,44,1,0,0,response7disk,-11,-9,1,0,0,rectangle,-11,-9,1,0,0,2,1,0.0006,0,-11,-9,1,0,0,0,7,7,139,1,58,second,,,,,,,,,,,,,,,,,,,,,,,,,,,,,,,,,,,,,,,,,,,,,,,,,,,,,,,,,,,,,,,,,,,,,,,,
,,,,,,60ccf2ea70e16324c450f531,62c53891d6dd7e51736dafa5,2022-07-06_09h25.02.466,Colour_Asymmetry_Pilot,2022.1.3,Win32,59.94125757,62c50e9c1127f2cd403a315f,,,,,,,,,,,,,,,,,,,,twofour,,-2,3.4285,,,,,,,,,,,,,,,,,,,,,,,,,,,,,,,,,,"[-0.48240000000000005,0.3175999999999999,0.2156]","[-0.10599999999999998,-0.15300000000000002,0.15280000000000005]",-72,-44,1,0,0,response5disk,-3,2,1,0,0,rectangle,-3,2,1,0,0,2,1,0.0008,0,-3,2,1,0,0,0,8,8,79,1,79,first,,,,,,,,,,,,,,,,,,,,,,,,,,,,,,,,,,,,,,,,,,,,,,,,,,,,,,,,,,,,,,,,,,,,,,,,
,,,,,,60ccf2ea70e16324c450f531,62c53891d6dd7e51736dafa5,2022-07-06_09h25.02.466,Colour_Asymmetry_Pilot,2022.1.3,Win32,59.94125757,62c50e9c1127f2cd403a315f,,,,,,,,,,,,,,,,,,,,fourthree,,1,2.8204,,,,,,,,,,,,,,,,,,,,,,,,,,,,,,,,,,"[0.12939999999999996,-0.2864,0.3253999999999999]","[-0.5452,-0.608,0.2470000000000001]",26,-91,1,0,0,response3disk,-14,10,1,0,0,rectangle,-14,10,1,0,0,2,3,0.0025,0,-14,10,1,0,0,0,9,9,108,1,27,second,,,,,,,,,,,,,,,,,,,,,,,,,,,,,,,,,,,,,,,,,,,,,,,,,,,,,,,,,,,,,,,,,,,,,,,,
,,,,,,60ccf2ea70e16324c450f531,62c53891d6dd7e51736dafa5,2022-07-06_09h25.02.466,Colour_Asymmetry_Pilot,2022.1.3,Win32,59.94125757,62c50e9c1127f2cd403a315f,,,,,,,,,,,,,,,,,,,,threefour,,3,3.5712,,,,,,,,,,,,,,,,,,,,,,,,,,,,,,,,,,"[-0.7412000000000001,-0.08239999999999992,-0.6864]","[-0.2942,-0.24719999999999998,-0.357]",83,34,1,0,0,response1disk,-6,6,1,0,0,rectangle,-6,6,1,0,0,2,2,0.0026,0,-6,6,1,0,0,0,10,10,83,1,2,second,,,,,,,,,,,,,,,,,,,,,,,,,,,,,,,,,,,,,,,,,,,,,,,,,,,,,,,,,,,,,,,,,,,,,,,,
,,,,,,60ccf2ea70e16324c450f531,62c53891d6dd7e51736dafa5,2022-07-06_09h25.02.466,Colour_Asymmetry_Pilot,2022.1.3,Win32,59.94125757,62c50e9c1127f2cd403a315f,,,,,,,,,,,,,,,,,,,,fourtwo,,1,1.02,,,,,,,,,,,,,,,,,,,,,,,,,,,,,,,,,,"[-0.17659999999999998,0.3253999999999999,0.19999999999999996]","[-0.7412000000000001,-0.08239999999999992,-0.6864]",52,-87,1,0,0,response3disk,-2,-9,1,0,0,rectangle,-2,-9,1,0,0,2,3,0.0025,0,-2,-9,1,0,0,0,11,11,86,1,5,second,,,,,,,,,,,,,,,,,,,,,,,,,,,,,,,,,,,,,,,,,,,,,,,,,,,,,,,,,,,,,,,,,,,,,,,,
,,,,,,60ccf2ea70e16324c450f531,62c53891d6dd7e51736dafa5,2022-07-06_09h25.02.466,Colour_Asymmetry_Pilot,2022.1.3,Win32,59.94125757,62c50e9c1127f2cd403a315f,,,,,,,,,,,,,,,,,,,,fourthree,,-3,3.1378,,,,,,,,,,,,,,,,,,,,,,,,,,,,,,,,,,"[-0.34920000000000007,-0.702,-0.5216]","[-0.4746,-0.0354000000000001,0.5449999999999999]",-73,53,1,0,0,response7disk,-16,2,1,0,0,rectangle,-16,2,1,0,0,2,1,0.0026,0,-16,2,1,0,0,0,12,12,80,1,80,first,,,,,,,,,,,,,,,,,,,,,,,,,,,,,,,,,,,,,,,,,,,,,,,,,,,,,,,,,,,,,,,,,,,,,,,,
,,,,,,60ccf2ea70e16324c450f531,62c53891d6dd7e51736dafa5,2022-07-06_09h25.02.466,Colour_Asymmetry_Pilot,2022.1.3,Win32,59.94125757,62c50e9c1127f2cd403a315f,,,,,,,,,,,,,,,,,,,,threeone,,-4,2.2701,,,,,,,,,,,,,,,,,,,,,,,,,,,,,,,,,,"[0.796,0.2156,-0.27859999999999996]","[-0.9138,-0.5296000000000001,-0.5529999999999999]",-47,66,1,0,0,response7disk,-17,7,1,0,0,rectangle,-17,7,1,0,0,2,1,0.0007,0,-17,7,1,0,0,0,13,13,109,1,28,second,,,,,,,,,,,,,,,,,,,,,,,,,,,,,,,,,,,,,,,,,,,,,,,,,,,,,,,,,,,,,,,,,,,,,,,,
,,,,,,60ccf2ea70e16324c450f531,62c53891d6dd7e51736dafa5,2022-07-06_09h25.02.466,Colour_Asymmetry_Pilot,2022.1.3,Win32,59.94125757,62c50e9c1127f2cd403a315f,,,,,,,,,,,,,,,,,,,,twofour,,2,1.4013,,,,,,,,,,,,,,,,,,,,,,,,,,,,,,,,,,"[-0.2942,-0.7648,-0.7492000000000001]","[-0.26280000000000003,-0.2158,-0.3256]",74,-37,1,0,0,response3disk,-6,3,1,0,0,rectangle,-6,3,1,0,0,2,1,0.0007,0,-6,3,1,0,0,0,14,14,90,1,9,second,,,,,,,,,,,,,,,,,,,,,,,,,,,,,,,,,,,,,,,,,,,,,,,,,,,,,,,,,,,,,,,,,,,,,,,,
,,,,,,60ccf2ea70e16324c450f531,62c53891d6dd7e51736dafa5,2022-07-06_09h25.02.466,Colour_Asymmetry_Pilot,2022.1.3,Win32,59.94125757,62c50e9c1127f2cd403a315f,,,,,,,,,,,,,,,,,,,,onetwo,,-3,2.7472,,,,,,,,,,,,,,,,,,,,,,,,,,,,,,,,,,"[0.7018,0.7176,0.6155999999999999]","[-0.9766,-0.6472,0.07440000000000002]",-80,38,1,0,0,response7disk,-11,2,1,0,0,rectangle,-11,2,1,0,0,2,1,0.0005,0,-11,2,1,0,0,0,15,15,50,1,50,first,,,,,,,,,,,,,,,,,,,,,,,,,,,,,,,,,,,,,,,,,,,,,,,,,,,,,,,,,,,,,,,,,,,,,,,,
,,,,,,60ccf2ea70e16324c450f531,62c53891d6dd7e51736dafa5,2022-07-06_09h25.02.466,Colour_Asymmetry_Pilot,2022.1.3,Win32,59.94125757,62c50e9c1127f2cd403a315f,,,,,,,,,,,,,,,,,,,,twoone,,-3,1.2183,,,,,,,,,,,,,,,,,,,,,,,,,,,,,,,,,,"[0.8274000000000001,-0.5844,-0.9452]","[-0.9688,-0.38039999999999996,-0.41979999999999995]",-79,53,1,0,0,response7disk,-14,4,1,0,0,rectangle,-14,4,1,0,0,2,2,0.0033,0,-14,4,1,0,0,0,16,16,10,1,10,first,,,,,,,,,,,,,,,,,,,,,,,,,,,,,,,,,,,,,,,,,,,,,,,,,,,,,,,,,,,,,,,,,,,,,,,,
,,,,,,60ccf2ea70e16324c450f531,62c53891d6dd7e51736dafa5,2022-07-06_09h25.02.466,Colour_Asymmetry_Pilot,2022.1.3,Win32,59.94125757,62c50e9c1127f2cd403a315f,,,,,,,,,,,,,,,,,,,,onetwo,,-4,2.204,,,,,,,,,,,,,,,,,,,,,,,,,,,,,,,,,,"[-0.8198,-0.5138,-0.7492000000000001]","[0.7018,0.7802,-0.16079999999999994]",-40,78,1,0,0,response7disk,-15,7,1,0,0,rectangle,-15,7,1,0,0,2,2,0.0004,0,-15,7,1,0,0,0,17,17,132,1,51,second,,,,,,,,,,,,,,,,,,,,,,,,,,,,,,,,,,,,,,,,,,,,,,,,,,,,,,,,,,,,,,,,,,,,,,,,
