trials.thisRepN,trials.thisTrialN,trials.thisN,trials.thisIndex,trials.ran,Colourcodes,participant,session,date,expName,psychopyVersion,OS,frameRate,study_id,trials_4.thisRepN,trials_4.thisTrialN,trials_4.thisN,trials_4.thisIndex,trials_4.ran,StimulusPos,key_resp.keys,key_resp.rt,key_resp_2.keys,key_resp_2.rt,key_resp_15.keys,key_resp_15.rt,key_resp_17.keys,key_resp_17.rt,key_resp_9.keys,key_resp_9.rt,key_resp_10.keys,key_resp_10.rt,Circle1_col,Ecc,Circle2_col,similarity,response_time,mouse_5.x,mouse_5.y,mouse_5.leftButton,mouse_5.midButton,mouse_5.rightButton,mouse_5.clicked_name,mouse_10.x,mouse_10.y,mouse_10.leftButton,mouse_10.midButton,mouse_10.rightButton,mouse_10.clicked_name,mouse_7.x,mouse_7.y,mouse_7.leftButton,mouse_7.midButton,mouse_7.rightButton,catchnumberprac,mouse_6.x,mouse_6.y,mouse_6.leftButton,mouse_6.midButton,mouse_6.rightButton,duringprac.thisRepN,duringprac.thisTrialN,duringprac.thisN,duringprac.thisIndex,duringprac.ran,mouse_7.clicked_name,catchprac,mouse_6.clicked_name,key_resp_22.keys,key_resp_22.rt,Circle1_colour,Circle2_colour,mouse.x,mouse.y,mouse.leftButton,mouse.midButton,mouse.rightButton,mouse.clicked_name,mouse_2.x,mouse_2.y,mouse_2.leftButton,mouse_2.midButton,mouse_2.rightButton,mouse_2.clicked_name,mouse_3.x,mouse_3.y,mouse_3.leftButton,mouse_3.midButton,mouse_3.rightButton,catchresponse,catchnumber,response_time_catch,Catch,mouse_11.x,mouse_11.y,mouse_11.leftButton,mouse_11.midButton,mouse_11.rightButton,trials_2.thisRepN,trials_2.thisTrialN,trials_2.thisN,trials_2.thisIndex,trials_2.ran,Colourpair,Temporder,mouse_3.clicked_name,mouse_11.clicked_name,trials_3.thisRepN,trials_3.thisTrialN,trials_3.thisN,trials_3.thisIndex,trials_3.ran,key_resp_instr_Ishi.keys,key_resp_instr_Ishi.rt,Ishi_trial_keyresp.keys,Ishi_textbox.text,Ishi_mouse.x,Ishi_mouse.y,Ishi_mouse.leftButton,Ishi_mouse.midButton,Ishi_mouse.rightButton,Ishi_mouse.clicked_name,Ishi_loop.thisRepN,Ishi_loop.thisTrialN,Ishi_loop.thisN,Ishi_loop.thisIndex,Ishi_loop.ran,imageaddress,Ishi_trial_keyresp.rt,textbox.text,mouse_4.x,mouse_4.y,mouse_4.leftButton,mouse_4.midButton,mouse_4.rightButton,mouse_4.clicked_name,textbox_2.text,mouse_8.x,mouse_8.y,mouse_8.leftButton,mouse_8.midButton,mouse_8.rightButton,mouse_8.clicked_name,textbox_3.text,mouse_9.x,mouse_9.y,mouse_9.leftButton,mouse_9.midButton,mouse_9.rightButton,mouse_9.clicked_name,textbox_4.text,mouse_12.x,mouse_12.y,mouse_12.leftButton,mouse_12.midButton,mouse_12.rightButton,mouse_12.clicked_name,textbox_5.text,mouse_13.x,mouse_13.y,mouse_13.leftButton,mouse_13.midButton,mouse_13.rightButton,mouse_13.clicked_name,textbox_6.text,mouse_14.x,mouse_14.y,mouse_14.leftButton,mouse_14.midButton,mouse_14.rightButton,mouse_14.clicked_name,textbox_7.text,mouse_15.x,mouse_15.y,mouse_15.leftButton,mouse_15.midButton,mouse_15.rightButton,mouse_15.clicked_name
0,0,0,55,1,,612e4052693c39ad35debf4f,62c53a6165f3d02f28d9d114,2022-07-06_09h34.38.780,Colour_Asymmetry_Pilot,2022.1.3,Win32,60.61340769,62c50e9c1127f2cd403a315f,,,,,,,,,,,,,,,,,,,,,,,,,,,,,,,,,,,,,,,,,,,,,,,,,,,,,,,,,,,,,,,,,,,,,,,,,,,,,,,,,,,,,,,,,,,,,,,,,,,,,,,,,,,,,,,,,,,,,,,,,,,,,,,,,,,,,,,,,,,,,,,,,,,,,,,,,,,,,,,,,,,,
0,1,1,51,1,,612e4052693c39ad35debf4f,62c53a6165f3d02f28d9d114,2022-07-06_09h34.38.780,Colour_Asymmetry_Pilot,2022.1.3,Win32,60.61340769,62c50e9c1127f2cd403a315f,,,,,,,,,,,,,,,,,,,,,,,,,,,,,,,,,,,,,,,,,,,,,,,,,,,,,,,,,,,,,,,,,,,,,,,,,,,,,,,,,,,,,,,,,,,,,,,,,,,,,,,,,,,,,,,,,,,,,,,,,,,,,,,,,,,,,,,,,,,,,,,,,,,,,,,,,,,,,,,,,,,,
0,2,2,2,1,,612e4052693c39ad35debf4f,62c53a6165f3d02f28d9d114,2022-07-06_09h34.38.780,Colour_Asymmetry_Pilot,2022.1.3,Win32,60.61340769,62c50e9c1127f2cd403a315f,,,,,,,,,,,,,,,,,,,,,,,,,,,,,,,,,,,,,,,,,,,,,,,,,,,,,,,,,,,,,,,,,,,,,,,,,,,,,,,,,,,,,,,,,,,,,,,,,,,,,,,,,,,,,,,,,,,,,,,,,,,,,,,,,,,,,,,,,,,,,,,,,,,,,,,,,,,,,,,,,,,,
0,3,3,14,1,,612e4052693c39ad35debf4f,62c53a6165f3d02f28d9d114,2022-07-06_09h34.38.780,Colour_Asymmetry_Pilot,2022.1.3,Win32,60.61340769,62c50e9c1127f2cd403a315f,,,,,,,,,,,,,,,,,,,,,,,,,,,,,,,,,,,,,,,,,,,,,,,,,,,,,,,,,,,,,,,,,,,,,,,,,,,,,,,,,,,,,,,,,,,,,,,,,,,,,,,,,,,,,,,,,,,,,,,,,,,,,,,,,,,,,,,,,,,,,,,,,,,,,,,,,,,,,,,,,,,,
0,4,4,91,1,,612e4052693c39ad35debf4f,62c53a6165f3d02f28d9d114,2022-07-06_09h34.38.780,Colour_Asymmetry_Pilot,2022.1.3,Win32,60.61340769,62c50e9c1127f2cd403a315f,,,,,,,,,,,,,,,,,,,,,,,,,,,,,,,,,,,,,,,,,,,,,,,,,,,,,,,,,,,,,,,,,,,,,,,,,,,,,,,,,,,,,,,,,,,,,,,,,,,,,,,,,,,,,,,,,,,,,,,,,,,,,,,,,,,,,,,,,,,,,,,,,,,,,,,,,,,,,,,,,,,,
0,5,5,25,1,,612e4052693c39ad35debf4f,62c53a6165f3d02f28d9d114,2022-07-06_09h34.38.780,Colour_Asymmetry_Pilot,2022.1.3,Win32,60.61340769,62c50e9c1127f2cd403a315f,,,,,,,,,,,,,,,,,,,,,,,,,,,,,,,,,,,,,,,,,,,,,,,,,,,,,,,,,,,,,,,,,,,,,,,,,,,,,,,,,,,,,,,,,,,,,,,,,,,,,,,,,,,,,,,,,,,,,,,,,,,,,,,,,,,,,,,,,,,,,,,,,,,,,,,,,,,,,,,,,,,,
0,6,6,11,1,,612e4052693c39ad35debf4f,62c53a6165f3d02f28d9d114,2022-07-06_09h34.38.780,Colour_Asymmetry_Pilot,2022.1.3,Win32,60.61340769,62c50e9c1127f2cd403a315f,,,,,,,,,,,,,,,,,,,,,,,,,,,,,,,,,,,,,,,,,,,,,,,,,,,,,,,,,,,,,,,,,,,,,,,,,,,,,,,,,,,,,,,,,,,,,,,,,,,,,,,,,,,,,,,,,,,,,,,,,,,,,,,,,,,,,,,,,,,,,,,,,,,,,,,,,,,,,,,,,,,,
0,7,7,43,1,,612e4052693c39ad35debf4f,62c53a6165f3d02f28d9d114,2022-07-06_09h34.38.780,Colour_Asymmetry_Pilot,2022.1.3,Win32,60.61340769,62c50e9c1127f2cd403a315f,,,,,,,,,,,,,,,,,,,,,,,,,,,,,,,,,,,,,,,,,,,,,,,,,,,,,,,,,,,,,,,,,,,,,,,,,,,,,,,,,,,,,,,,,,,,,,,,,,,,,,,,,,,,,,,,,,,,,,,,,,,,,,,,,,,,,,,,,,,,,,,,,,,,,,,,,,,,,,,,,,,,
0,8,8,1,1,,612e4052693c39ad35debf4f,62c53a6165f3d02f28d9d114,2022-07-06_09h34.38.780,Colour_Asymmetry_Pilot,2022.1.3,Win32,60.61340769,62c50e9c1127f2cd403a315f,,,,,,,,,,,,,,,,,,,,,,,,,,,,,,,,,,,,,,,,,,,,,,,,,,,,,,,,,,,,,,,,,,,,,,,,,,,,,,,,,,,,,,,,,,,,,,,,,,,,,,,,,,,,,,,,,,,,,,,,,,,,,,,,,,,,,,,,,,,,,,,,,,,,,,,,,,,,,,,,,,,,
0,9,9,31,1,,612e4052693c39ad35debf4f,62c53a6165f3d02f28d9d114,2022-07-06_09h34.38.780,Colour_Asymmetry_Pilot,2022.1.3,Win32,60.61340769,62c50e9c1127f2cd403a315f,,,,,,,,,,,,,,,,,,,,,,,,,,,,,,,,,,,,,,,,,,,,,,,,,,,,,,,,,,,,,,,,,,,,,,,,,,,,,,,,,,,,,,,,,,,,,,,,,,,,,,,,,,,,,,,,,,,,,,,,,,,,,,,,,,,,,,,,,,,,,,,,,,,,,,,,,,,,,,,,,,,,
0,10,10,92,1,,612e4052693c39ad35debf4f,62c53a6165f3d02f28d9d114,2022-07-06_09h34.38.780,Colour_Asymmetry_Pilot,2022.1.3,Win32,60.61340769,62c50e9c1127f2cd403a315f,,,,,,,,,,,,,,,,,,,,,,,,,,,,,,,,,,,,,,,,,,,,,,,,,,,,,,,,,,,,,,,,,,,,,,,,,,,,,,,,,,,,,,,,,,,,,,,,,,,,,,,,,,,,,,,,,,,,,,,,,,,,,,,,,,,,,,,,,,,,,,,,,,,,,,,,,,,,,,,,,,,,
0,11,11,3,1,,612e4052693c39ad35debf4f,62c53a6165f3d02f28d9d114,2022-07-06_09h34.38.780,Colour_Asymmetry_Pilot,2022.1.3,Win32,60.61340769,62c50e9c1127f2cd403a315f,,,,,,,,,,,,,,,,,,,,,,,,,,,,,,,,,,,,,,,,,,,,,,,,,,,,,,,,,,,,,,,,,,,,,,,,,,,,,,,,,,,,,,,,,,,,,,,,,,,,,,,,,,,,,,,,,,,,,,,,,,,,,,,,,,,,,,,,,,,,,,,,,,,,,,,,,,,,,,,,,,,,
0,12,12,61,1,,612e4052693c39ad35debf4f,62c53a6165f3d02f28d9d114,2022-07-06_09h34.38.780,Colour_Asymmetry_Pilot,2022.1.3,Win32,60.61340769,62c50e9c1127f2cd403a315f,,,,,,,,,,,,,,,,,,,,,,,,,,,,,,,,,,,,,,,,,,,,,,,,,,,,,,,,,,,,,,,,,,,,,,,,,,,,,,,,,,,,,,,,,,,,,,,,,,,,,,,,,,,,,,,,,,,,,,,,,,,,,,,,,,,,,,,,,,,,,,,,,,,,,,,,,,,,,,,,,,,,
0,13,13,26,1,,612e4052693c39ad35debf4f,62c53a6165f3d02f28d9d114,2022-07-06_09h34.38.780,Colour_Asymmetry_Pilot,2022.1.3,Win32,60.61340769,62c50e9c1127f2cd403a315f,,,,,,,,,,,,,,,,,,,,,,,,,,,,,,,,,,,,,,,,,,,,,,,,,,,,,,,,,,,,,,,,,,,,,,,,,,,,,,,,,,,,,,,,,,,,,,,,,,,,,,,,,,,,,,,,,,,,,,,,,,,,,,,,,,,,,,,,,,,,,,,,,,,,,,,,,,,,,,,,,,,,
0,14,14,19,1,,612e4052693c39ad35debf4f,62c53a6165f3d02f28d9d114,2022-07-06_09h34.38.780,Colour_Asymmetry_Pilot,2022.1.3,Win32,60.61340769,62c50e9c1127f2cd403a315f,,,,,,,,,,,,,,,,,,,,,,,,,,,,,,,,,,,,,,,,,,,,,,,,,,,,,,,,,,,,,,,,,,,,,,,,,,,,,,,,,,,,,,,,,,,,,,,,,,,,,,,,,,,,,,,,,,,,,,,,,,,,,,,,,,,,,,,,,,,,,,,,,,,,,,,,,,,,,,,,,,,,
0,15,15,73,1,,612e4052693c39ad35debf4f,62c53a6165f3d02f28d9d114,2022-07-06_09h34.38.780,Colour_Asymmetry_Pilot,2022.1.3,Win32,60.61340769,62c50e9c1127f2cd403a315f,,,,,,,,,,,,,,,,,,,,,,,,,,,,,,,,,,,,,,,,,,,,,,,,,,,,,,,,,,,,,,,,,,,,,,,,,,,,,,,,,,,,,,,,,,,,,,,,,,,,,,,,,,,,,,,,,,,,,,,,,,,,,,,,,,,,,,,,,,,,,,,,,,,,,,,,,,,,,,,,,,,,
0,16,16,27,1,,612e4052693c39ad35debf4f,62c53a6165f3d02f28d9d114,2022-07-06_09h34.38.780,Colour_Asymmetry_Pilot,2022.1.3,Win32,60.61340769,62c50e9c1127f2cd403a315f,,,,,,,,,,,,,,,,,,,,,,,,,,,,,,,,,,,,,,,,,,,,,,,,,,,,,,,,,,,,,,,,,,,,,,,,,,,,,,,,,,,,,,,,,,,,,,,,,,,,,,,,,,,,,,,,,,,,,,,,,,,,,,,,,,,,,,,,,,,,,,,,,,,,,,,,,,,,,,,,,,,,
0,17,17,49,1,,612e4052693c39ad35debf4f,62c53a6165f3d02f28d9d114,2022-07-06_09h34.38.780,Colour_Asymmetry_Pilot,2022.1.3,Win32,60.61340769,62c50e9c1127f2cd403a315f,,,,,,,,,,,,,,,,,,,,,,,,,,,,,,,,,,,,,,,,,,,,,,,,,,,,,,,,,,,,,,,,,,,,,,,,,,,,,,,,,,,,,,,,,,,,,,,,,,,,,,,,,,,,,,,,,,,,,,,,,,,,,,,,,,,,,,,,,,,,,,,,,,,,,,,,,,,,,,,,,,,,
0,18,18,69,1,,612e4052693c39ad35debf4f,62c53a6165f3d02f28d9d114,2022-07-06_09h34.38.780,Colour_Asymmetry_Pilot,2022.1.3,Win32,60.61340769,62c50e9c1127f2cd403a315f,,,,,,,,,,,,,,,,,,,,,,,,,,,,,,,,,,,,,,,,,,,,,,,,,,,,,,,,,,,,,,,,,,,,,,,,,,,,,,,,,,,,,,,,,,,,,,,,,,,,,,,,,,,,,,,,,,,,,,,,,,,,,,,,,,,,,,,,,,,,,,,,,,,,,,,,,,,,,,,,,,,,
0,19,19,36,1,,612e4052693c39ad35debf4f,62c53a6165f3d02f28d9d114,2022-07-06_09h34.38.780,Colour_Asymmetry_Pilot,2022.1.3,Win32,60.61340769,62c50e9c1127f2cd403a315f,,,,,,,,,,,,,,,,,,,,,,,,,,,,,,,,,,,,,,,,,,,,,,,,,,,,,,,,,,,,,,,,,,,,,,,,,,,,,,,,,,,,,,,,,,,,,,,,,,,,,,,,,,,,,,,,,,,,,,,,,,,,,,,,,,,,,,,,,,,,,,,,,,,,,,,,,,,,,,,,,,,,
0,20,20,86,1,,612e4052693c39ad35debf4f,62c53a6165f3d02f28d9d114,2022-07-06_09h34.38.780,Colour_Asymmetry_Pilot,2022.1.3,Win32,60.61340769,62c50e9c1127f2cd403a315f,,,,,,,,,,,,,,,,,,,,,,,,,,,,,,,,,,,,,,,,,,,,,,,,,,,,,,,,,,,,,,,,,,,,,,,,,,,,,,,,,,,,,,,,,,,,,,,,,,,,,,,,,,,,,,,,,,,,,,,,,,,,,,,,,,,,,,,,,,,,,,,,,,,,,,,,,,,,,,,,,,,,
0,21,21,59,1,,612e4052693c39ad35debf4f,62c53a6165f3d02f28d9d114,2022-07-06_09h34.38.780,Colour_Asymmetry_Pilot,2022.1.3,Win32,60.61340769,62c50e9c1127f2cd403a315f,,,,,,,,,,,,,,,,,,,,,,,,,,,,,,,,,,,,,,,,,,,,,,,,,,,,,,,,,,,,,,,,,,,,,,,,,,,,,,,,,,,,,,,,,,,,,,,,,,,,,,,,,,,,,,,,,,,,,,,,,,,,,,,,,,,,,,,,,,,,,,,,,,,,,,,,,,,,,,,,,,,,
0,22,22,83,1,,612e4052693c39ad35debf4f,62c53a6165f3d02f28d9d114,2022-07-06_09h34.38.780,Colour_Asymmetry_Pilot,2022.1.3,Win32,60.61340769,62c50e9c1127f2cd403a315f,,,,,,,,,,,,,,,,,,,,,,,,,,,,,,,,,,,,,,,,,,,,,,,,,,,,,,,,,,,,,,,,,,,,,,,,,,,,,,,,,,,,,,,,,,,,,,,,,,,,,,,,,,,,,,,,,,,,,,,,,,,,,,,,,,,,,,,,,,,,,,,,,,,,,,,,,,,,,,,,,,,,
0,23,23,24,1,,612e4052693c39ad35debf4f,62c53a6165f3d02f28d9d114,2022-07-06_09h34.38.780,Colour_Asymmetry_Pilot,2022.1.3,Win32,60.61340769,62c50e9c1127f2cd403a315f,,,,,,,,,,,,,,,,,,,,,,,,,,,,,,,,,,,,,,,,,,,,,,,,,,,,,,,,,,,,,,,,,,,,,,,,,,,,,,,,,,,,,,,,,,,,,,,,,,,,,,,,,,,,,,,,,,,,,,,,,,,,,,,,,,,,,,,,,,,,,,,,,,,,,,,,,,,,,,,,,,,,
0,24,24,48,1,,612e4052693c39ad35debf4f,62c53a6165f3d02f28d9d114,2022-07-06_09h34.38.780,Colour_Asymmetry_Pilot,2022.1.3,Win32,60.61340769,62c50e9c1127f2cd403a315f,,,,,,,,,,,,,,,,,,,,,,,,,,,,,,,,,,,,,,,,,,,,,,,,,,,,,,,,,,,,,,,,,,,,,,,,,,,,,,,,,,,,,,,,,,,,,,,,,,,,,,,,,,,,,,,,,,,,,,,,,,,,,,,,,,,,,,,,,,,,,,,,,,,,,,,,,,,,,,,,,,,,
0,25,25,33,1,,612e4052693c39ad35debf4f,62c53a6165f3d02f28d9d114,2022-07-06_09h34.38.780,Colour_Asymmetry_Pilot,2022.1.3,Win32,60.61340769,62c50e9c1127f2cd403a315f,,,,,,,,,,,,,,,,,,,,,,,,,,,,,,,,,,,,,,,,,,,,,,,,,,,,,,,,,,,,,,,,,,,,,,,,,,,,,,,,,,,,,,,,,,,,,,,,,,,,,,,,,,,,,,,,,,,,,,,,,,,,,,,,,,,,,,,,,,,,,,,,,,,,,,,,,,,,,,,,,,,,
0,26,26,87,1,,612e4052693c39ad35debf4f,62c53a6165f3d02f28d9d114,2022-07-06_09h34.38.780,Colour_Asymmetry_Pilot,2022.1.3,Win32,60.61340769,62c50e9c1127f2cd403a315f,,,,,,,,,,,,,,,,,,,,,,,,,,,,,,,,,,,,,,,,,,,,,,,,,,,,,,,,,,,,,,,,,,,,,,,,,,,,,,,,,,,,,,,,,,,,,,,,,,,,,,,,,,,,,,,,,,,,,,,,,,,,,,,,,,,,,,,,,,,,,,,,,,,,,,,,,,,,,,,,,,,,
0,27,27,38,1,,612e4052693c39ad35debf4f,62c53a6165f3d02f28d9d114,2022-07-06_09h34.38.780,Colour_Asymmetry_Pilot,2022.1.3,Win32,60.61340769,62c50e9c1127f2cd403a315f,,,,,,,,,,,,,,,,,,,,,,,,,,,,,,,,,,,,,,,,,,,,,,,,,,,,,,,,,,,,,,,,,,,,,,,,,,,,,,,,,,,,,,,,,,,,,,,,,,,,,,,,,,,,,,,,,,,,,,,,,,,,,,,,,,,,,,,,,,,,,,,,,,,,,,,,,,,,,,,,,,,,
0,28,28,63,1,,612e4052693c39ad35debf4f,62c53a6165f3d02f28d9d114,2022-07-06_09h34.38.780,Colour_Asymmetry_Pilot,2022.1.3,Win32,60.61340769,62c50e9c1127f2cd403a315f,,,,,,,,,,,,,,,,,,,,,,,,,,,,,,,,,,,,,,,,,,,,,,,,,,,,,,,,,,,,,,,,,,,,,,,,,,,,,,,,,,,,,,,,,,,,,,,,,,,,,,,,,,,,,,,,,,,,,,,,,,,,,,,,,,,,,,,,,,,,,,,,,,,,,,,,,,,,,,,,,,,,
0,29,29,9,1,,612e4052693c39ad35debf4f,62c53a6165f3d02f28d9d114,2022-07-06_09h34.38.780,Colour_Asymmetry_Pilot,2022.1.3,Win32,60.61340769,62c50e9c1127f2cd403a315f,,,,,,,,,,,,,,,,,,,,,,,,,,,,,,,,,,,,,,,,,,,,,,,,,,,,,,,,,,,,,,,,,,,,,,,,,,,,,,,,,,,,,,,,,,,,,,,,,,,,,,,,,,,,,,,,,,,,,,,,,,,,,,,,,,,,,,,,,,,,,,,,,,,,,,,,,,,,,,,,,,,,
0,30,30,30,1,,612e4052693c39ad35debf4f,62c53a6165f3d02f28d9d114,2022-07-06_09h34.38.780,Colour_Asymmetry_Pilot,2022.1.3,Win32,60.61340769,62c50e9c1127f2cd403a315f,,,,,,,,,,,,,,,,,,,,,,,,,,,,,,,,,,,,,,,,,,,,,,,,,,,,,,,,,,,,,,,,,,,,,,,,,,,,,,,,,,,,,,,,,,,,,,,,,,,,,,,,,,,,,,,,,,,,,,,,,,,,,,,,,,,,,,,,,,,,,,,,,,,,,,,,,,,,,,,,,,,,
0,31,31,88,1,,612e4052693c39ad35debf4f,62c53a6165f3d02f28d9d114,2022-07-06_09h34.38.780,Colour_Asymmetry_Pilot,2022.1.3,Win32,60.61340769,62c50e9c1127f2cd403a315f,,,,,,,,,,,,,,,,,,,,,,,,,,,,,,,,,,,,,,,,,,,,,,,,,,,,,,,,,,,,,,,,,,,,,,,,,,,,,,,,,,,,,,,,,,,,,,,,,,,,,,,,,,,,,,,,,,,,,,,,,,,,,,,,,,,,,,,,,,,,,,,,,,,,,,,,,,,,,,,,,,,,
0,32,32,40,1,,612e4052693c39ad35debf4f,62c53a6165f3d02f28d9d114,2022-07-06_09h34.38.780,Colour_Asymmetry_Pilot,2022.1.3,Win32,60.61340769,62c50e9c1127f2cd403a315f,,,,,,,,,,,,,,,,,,,,,,,,,,,,,,,,,,,,,,,,,,,,,,,,,,,,,,,,,,,,,,,,,,,,,,,,,,,,,,,,,,,,,,,,,,,,,,,,,,,,,,,,,,,,,,,,,,,,,,,,,,,,,,,,,,,,,,,,,,,,,,,,,,,,,,,,,,,,,,,,,,,,
0,33,33,13,1,,612e4052693c39ad35debf4f,62c53a6165f3d02f28d9d114,2022-07-06_09h34.38.780,Colour_Asymmetry_Pilot,2022.1.3,Win32,60.61340769,62c50e9c1127f2cd403a315f,,,,,,,,,,,,,,,,,,,,,,,,,,,,,,,,,,,,,,,,,,,,,,,,,,,,,,,,,,,,,,,,,,,,,,,,,,,,,,,,,,,,,,,,,,,,,,,,,,,,,,,,,,,,,,,,,,,,,,,,,,,,,,,,,,,,,,,,,,,,,,,,,,,,,,,,,,,,,,,,,,,,
0,34,34,85,1,,612e4052693c39ad35debf4f,62c53a6165f3d02f28d9d114,2022-07-06_09h34.38.780,Colour_Asymmetry_Pilot,2022.1.3,Win32,60.61340769,62c50e9c1127f2cd403a315f,,,,,,,,,,,,,,,,,,,,,,,,,,,,,,,,,,,,,,,,,,,,,,,,,,,,,,,,,,,,,,,,,,,,,,,,,,,,,,,,,,,,,,,,,,,,,,,,,,,,,,,,,,,,,,,,,,,,,,,,,,,,,,,,,,,,,,,,,,,,,,,,,,,,,,,,,,,,,,,,,,,,
0,35,35,8,1,,612e4052693c39ad35debf4f,62c53a6165f3d02f28d9d114,2022-07-06_09h34.38.780,Colour_Asymmetry_Pilot,2022.1.3,Win32,60.61340769,62c50e9c1127f2cd403a315f,,,,,,,,,,,,,,,,,,,,,,,,,,,,,,,,,,,,,,,,,,,,,,,,,,,,,,,,,,,,,,,,,,,,,,,,,,,,,,,,,,,,,,,,,,,,,,,,,,,,,,,,,,,,,,,,,,,,,,,,,,,,,,,,,,,,,,,,,,,,,,,,,,,,,,,,,,,,,,,,,,,,
0,36,36,10,1,,612e4052693c39ad35debf4f,62c53a6165f3d02f28d9d114,2022-07-06_09h34.38.780,Colour_Asymmetry_Pilot,2022.1.3,Win32,60.61340769,62c50e9c1127f2cd403a315f,,,,,,,,,,,,,,,,,,,,,,,,,,,,,,,,,,,,,,,,,,,,,,,,,,,,,,,,,,,,,,,,,,,,,,,,,,,,,,,,,,,,,,,,,,,,,,,,,,,,,,,,,,,,,,,,,,,,,,,,,,,,,,,,,,,,,,,,,,,,,,,,,,,,,,,,,,,,,,,,,,,,
0,37,37,21,1,,612e4052693c39ad35debf4f,62c53a6165f3d02f28d9d114,2022-07-06_09h34.38.780,Colour_Asymmetry_Pilot,2022.1.3,Win32,60.61340769,62c50e9c1127f2cd403a315f,,,,,,,,,,,,,,,,,,,,,,,,,,,,,,,,,,,,,,,,,,,,,,,,,,,,,,,,,,,,,,,,,,,,,,,,,,,,,,,,,,,,,,,,,,,,,,,,,,,,,,,,,,,,,,,,,,,,,,,,,,,,,,,,,,,,,,,,,,,,,,,,,,,,,,,,,,,,,,,,,,,,
0,38,38,81,1,,612e4052693c39ad35debf4f,62c53a6165f3d02f28d9d114,2022-07-06_09h34.38.780,Colour_Asymmetry_Pilot,2022.1.3,Win32,60.61340769,62c50e9c1127f2cd403a315f,,,,,,,,,,,,,,,,,,,,,,,,,,,,,,,,,,,,,,,,,,,,,,,,,,,,,,,,,,,,,,,,,,,,,,,,,,,,,,,,,,,,,,,,,,,,,,,,,,,,,,,,,,,,,,,,,,,,,,,,,,,,,,,,,,,,,,,,,,,,,,,,,,,,,,,,,,,,,,,,,,,,
0,39,39,58,1,,612e4052693c39ad35debf4f,62c53a6165f3d02f28d9d114,2022-07-06_09h34.38.780,Colour_Asymmetry_Pilot,2022.1.3,Win32,60.61340769,62c50e9c1127f2cd403a315f,,,,,,,,,,,,,,,,,,,,,,,,,,,,,,,,,,,,,,,,,,,,,,,,,,,,,,,,,,,,,,,,,,,,,,,,,,,,,,,,,,,,,,,,,,,,,,,,,,,,,,,,,,,,,,,,,,,,,,,,,,,,,,,,,,,,,,,,,,,,,,,,,,,,,,,,,,,,,,,,,,,,
0,40,40,62,1,,612e4052693c39ad35debf4f,62c53a6165f3d02f28d9d114,2022-07-06_09h34.38.780,Colour_Asymmetry_Pilot,2022.1.3,Win32,60.61340769,62c50e9c1127f2cd403a315f,,,,,,,,,,,,,,,,,,,,,,,,,,,,,,,,,,,,,,,,,,,,,,,,,,,,,,,,,,,,,,,,,,,,,,,,,,,,,,,,,,,,,,,,,,,,,,,,,,,,,,,,,,,,,,,,,,,,,,,,,,,,,,,,,,,,,,,,,,,,,,,,,,,,,,,,,,,,,,,,,,,,
0,41,41,90,1,,612e4052693c39ad35debf4f,62c53a6165f3d02f28d9d114,2022-07-06_09h34.38.780,Colour_Asymmetry_Pilot,2022.1.3,Win32,60.61340769,62c50e9c1127f2cd403a315f,,,,,,,,,,,,,,,,,,,,,,,,,,,,,,,,,,,,,,,,,,,,,,,,,,,,,,,,,,,,,,,,,,,,,,,,,,,,,,,,,,,,,,,,,,,,,,,,,,,,,,,,,,,,,,,,,,,,,,,,,,,,,,,,,,,,,,,,,,,,,,,,,,,,,,,,,,,,,,,,,,,,
0,42,42,74,1,,612e4052693c39ad35debf4f,62c53a6165f3d02f28d9d114,2022-07-06_09h34.38.780,Colour_Asymmetry_Pilot,2022.1.3,Win32,60.61340769,62c50e9c1127f2cd403a315f,,,,,,,,,,,,,,,,,,,,,,,,,,,,,,,,,,,,,,,,,,,,,,,,,,,,,,,,,,,,,,,,,,,,,,,,,,,,,,,,,,,,,,,,,,,,,,,,,,,,,,,,,,,,,,,,,,,,,,,,,,,,,,,,,,,,,,,,,,,,,,,,,,,,,,,,,,,,,,,,,,,,
0,43,43,0,1,,612e4052693c39ad35debf4f,62c53a6165f3d02f28d9d114,2022-07-06_09h34.38.780,Colour_Asymmetry_Pilot,2022.1.3,Win32,60.61340769,62c50e9c1127f2cd403a315f,,,,,,,,,,,,,,,,,,,,,,,,,,,,,,,,,,,,,,,,,,,,,,,,,,,,,,,,,,,,,,,,,,,,,,,,,,,,,,,,,,,,,,,,,,,,,,,,,,,,,,,,,,,,,,,,,,,,,,,,,,,,,,,,,,,,,,,,,,,,,,,,,,,,,,,,,,,,,,,,,,,,
0,44,44,32,1,,612e4052693c39ad35debf4f,62c53a6165f3d02f28d9d114,2022-07-06_09h34.38.780,Colour_Asymmetry_Pilot,2022.1.3,Win32,60.61340769,62c50e9c1127f2cd403a315f,,,,,,,,,,,,,,,,,,,,,,,,,,,,,,,,,,,,,,,,,,,,,,,,,,,,,,,,,,,,,,,,,,,,,,,,,,,,,,,,,,,,,,,,,,,,,,,,,,,,,,,,,,,,,,,,,,,,,,,,,,,,,,,,,,,,,,,,,,,,,,,,,,,,,,,,,,,,,,,,,,,,
0,45,45,45,1,,612e4052693c39ad35debf4f,62c53a6165f3d02f28d9d114,2022-07-06_09h34.38.780,Colour_Asymmetry_Pilot,2022.1.3,Win32,60.61340769,62c50e9c1127f2cd403a315f,,,,,,,,,,,,,,,,,,,,,,,,,,,,,,,,,,,,,,,,,,,,,,,,,,,,,,,,,,,,,,,,,,,,,,,,,,,,,,,,,,,,,,,,,,,,,,,,,,,,,,,,,,,,,,,,,,,,,,,,,,,,,,,,,,,,,,,,,,,,,,,,,,,,,,,,,,,,,,,,,,,,
0,46,46,37,1,,612e4052693c39ad35debf4f,62c53a6165f3d02f28d9d114,2022-07-06_09h34.38.780,Colour_Asymmetry_Pilot,2022.1.3,Win32,60.61340769,62c50e9c1127f2cd403a315f,,,,,,,,,,,,,,,,,,,,,,,,,,,,,,,,,,,,,,,,,,,,,,,,,,,,,,,,,,,,,,,,,,,,,,,,,,,,,,,,,,,,,,,,,,,,,,,,,,,,,,,,,,,,,,,,,,,,,,,,,,,,,,,,,,,,,,,,,,,,,,,,,,,,,,,,,,,,,,,,,,,,
0,47,47,18,1,,612e4052693c39ad35debf4f,62c53a6165f3d02f28d9d114,2022-07-06_09h34.38.780,Colour_Asymmetry_Pilot,2022.1.3,Win32,60.61340769,62c50e9c1127f2cd403a315f,,,,,,,,,,,,,,,,,,,,,,,,,,,,,,,,,,,,,,,,,,,,,,,,,,,,,,,,,,,,,,,,,,,,,,,,,,,,,,,,,,,,,,,,,,,,,,,,,,,,,,,,,,,,,,,,,,,,,,,,,,,,,,,,,,,,,,,,,,,,,,,,,,,,,,,,,,,,,,,,,,,,
0,48,48,71,1,,612e4052693c39ad35debf4f,62c53a6165f3d02f28d9d114,2022-07-06_09h34.38.780,Colour_Asymmetry_Pilot,2022.1.3,Win32,60.61340769,62c50e9c1127f2cd403a315f,,,,,,,,,,,,,,,,,,,,,,,,,,,,,,,,,,,,,,,,,,,,,,,,,,,,,,,,,,,,,,,,,,,,,,,,,,,,,,,,,,,,,,,,,,,,,,,,,,,,,,,,,,,,,,,,,,,,,,,,,,,,,,,,,,,,,,,,,,,,,,,,,,,,,,,,,,,,,,,,,,,,
0,49,49,79,1,,612e4052693c39ad35debf4f,62c53a6165f3d02f28d9d114,2022-07-06_09h34.38.780,Colour_Asymmetry_Pilot,2022.1.3,Win32,60.61340769,62c50e9c1127f2cd403a315f,,,,,,,,,,,,,,,,,,,,,,,,,,,,,,,,,,,,,,,,,,,,,,,,,,,,,,,,,,,,,,,,,,,,,,,,,,,,,,,,,,,,,,,,,,,,,,,,,,,,,,,,,,,,,,,,,,,,,,,,,,,,,,,,,,,,,,,,,,,,,,,,,,,,,,,,,,,,,,,,,,,,
0,50,50,35,1,,612e4052693c39ad35debf4f,62c53a6165f3d02f28d9d114,2022-07-06_09h34.38.780,Colour_Asymmetry_Pilot,2022.1.3,Win32,60.61340769,62c50e9c1127f2cd403a315f,,,,,,,,,,,,,,,,,,,,,,,,,,,,,,,,,,,,,,,,,,,,,,,,,,,,,,,,,,,,,,,,,,,,,,,,,,,,,,,,,,,,,,,,,,,,,,,,,,,,,,,,,,,,,,,,,,,,,,,,,,,,,,,,,,,,,,,,,,,,,,,,,,,,,,,,,,,,,,,,,,,,
0,51,51,60,1,,612e4052693c39ad35debf4f,62c53a6165f3d02f28d9d114,2022-07-06_09h34.38.780,Colour_Asymmetry_Pilot,2022.1.3,Win32,60.61340769,62c50e9c1127f2cd403a315f,,,,,,,,,,,,,,,,,,,,,,,,,,,,,,,,,,,,,,,,,,,,,,,,,,,,,,,,,,,,,,,,,,,,,,,,,,,,,,,,,,,,,,,,,,,,,,,,,,,,,,,,,,,,,,,,,,,,,,,,,,,,,,,,,,,,,,,,,,,,,,,,,,,,,,,,,,,,,,,,,,,,
0,52,52,89,1,,612e4052693c39ad35debf4f,62c53a6165f3d02f28d9d114,2022-07-06_09h34.38.780,Colour_Asymmetry_Pilot,2022.1.3,Win32,60.61340769,62c50e9c1127f2cd403a315f,,,,,,,,,,,,,,,,,,,,,,,,,,,,,,,,,,,,,,,,,,,,,,,,,,,,,,,,,,,,,,,,,,,,,,,,,,,,,,,,,,,,,,,,,,,,,,,,,,,,,,,,,,,,,,,,,,,,,,,,,,,,,,,,,,,,,,,,,,,,,,,,,,,,,,,,,,,,,,,,,,,,
0,53,53,80,1,,612e4052693c39ad35debf4f,62c53a6165f3d02f28d9d114,2022-07-06_09h34.38.780,Colour_Asymmetry_Pilot,2022.1.3,Win32,60.61340769,62c50e9c1127f2cd403a315f,,,,,,,,,,,,,,,,,,,,,,,,,,,,,,,,,,,,,,,,,,,,,,,,,,,,,,,,,,,,,,,,,,,,,,,,,,,,,,,,,,,,,,,,,,,,,,,,,,,,,,,,,,,,,,,,,,,,,,,,,,,,,,,,,,,,,,,,,,,,,,,,,,,,,,,,,,,,,,,,,,,,
0,54,54,64,1,,612e4052693c39ad35debf4f,62c53a6165f3d02f28d9d114,2022-07-06_09h34.38.780,Colour_Asymmetry_Pilot,2022.1.3,Win32,60.61340769,62c50e9c1127f2cd403a315f,,,,,,,,,,,,,,,,,,,,,,,,,,,,,,,,,,,,,,,,,,,,,,,,,,,,,,,,,,,,,,,,,,,,,,,,,,,,,,,,,,,,,,,,,,,,,,,,,,,,,,,,,,,,,,,,,,,,,,,,,,,,,,,,,,,,,,,,,,,,,,,,,,,,,,,,,,,,,,,,,,,,
0,55,55,4,1,,612e4052693c39ad35debf4f,62c53a6165f3d02f28d9d114,2022-07-06_09h34.38.780,Colour_Asymmetry_Pilot,2022.1.3,Win32,60.61340769,62c50e9c1127f2cd403a315f,,,,,,,,,,,,,,,,,,,,,,,,,,,,,,,,,,,,,,,,,,,,,,,,,,,,,,,,,,,,,,,,,,,,,,,,,,,,,,,,,,,,,,,,,,,,,,,,,,,,,,,,,,,,,,,,,,,,,,,,,,,,,,,,,,,,,,,,,,,,,,,,,,,,,,,,,,,,,,,,,,,,
0,56,56,72,1,,612e4052693c39ad35debf4f,62c53a6165f3d02f28d9d114,2022-07-06_09h34.38.780,Colour_Asymmetry_Pilot,2022.1.3,Win32,60.61340769,62c50e9c1127f2cd403a315f,,,,,,,,,,,,,,,,,,,,,,,,,,,,,,,,,,,,,,,,,,,,,,,,,,,,,,,,,,,,,,,,,,,,,,,,,,,,,,,,,,,,,,,,,,,,,,,,,,,,,,,,,,,,,,,,,,,,,,,,,,,,,,,,,,,,,,,,,,,,,,,,,,,,,,,,,,,,,,,,,,,,
0,57,57,46,1,,612e4052693c39ad35debf4f,62c53a6165f3d02f28d9d114,2022-07-06_09h34.38.780,Colour_Asymmetry_Pilot,2022.1.3,Win32,60.61340769,62c50e9c1127f2cd403a315f,,,,,,,,,,,,,,,,,,,,,,,,,,,,,,,,,,,,,,,,,,,,,,,,,,,,,,,,,,,,,,,,,,,,,,,,,,,,,,,,,,,,,,,,,,,,,,,,,,,,,,,,,,,,,,,,,,,,,,,,,,,,,,,,,,,,,,,,,,,,,,,,,,,,,,,,,,,,,,,,,,,,
0,58,58,41,1,,612e4052693c39ad35debf4f,62c53a6165f3d02f28d9d114,2022-07-06_09h34.38.780,Colour_Asymmetry_Pilot,2022.1.3,Win32,60.61340769,62c50e9c1127f2cd403a315f,,,,,,,,,,,,,,,,,,,,,,,,,,,,,,,,,,,,,,,,,,,,,,,,,,,,,,,,,,,,,,,,,,,,,,,,,,,,,,,,,,,,,,,,,,,,,,,,,,,,,,,,,,,,,,,,,,,,,,,,,,,,,,,,,,,,,,,,,,,,,,,,,,,,,,,,,,,,,,,,,,,,
0,59,59,16,1,,612e4052693c39ad35debf4f,62c53a6165f3d02f28d9d114,2022-07-06_09h34.38.780,Colour_Asymmetry_Pilot,2022.1.3,Win32,60.61340769,62c50e9c1127f2cd403a315f,,,,,,,,,,,,,,,,,,,,,,,,,,,,,,,,,,,,,,,,,,,,,,,,,,,,,,,,,,,,,,,,,,,,,,,,,,,,,,,,,,,,,,,,,,,,,,,,,,,,,,,,,,,,,,,,,,,,,,,,,,,,,,,,,,,,,,,,,,,,,,,,,,,,,,,,,,,,,,,,,,,,
0,60,60,42,1,,612e4052693c39ad35debf4f,62c53a6165f3d02f28d9d114,2022-07-06_09h34.38.780,Colour_Asymmetry_Pilot,2022.1.3,Win32,60.61340769,62c50e9c1127f2cd403a315f,,,,,,,,,,,,,,,,,,,,,,,,,,,,,,,,,,,,,,,,,,,,,,,,,,,,,,,,,,,,,,,,,,,,,,,,,,,,,,,,,,,,,,,,,,,,,,,,,,,,,,,,,,,,,,,,,,,,,,,,,,,,,,,,,,,,,,,,,,,,,,,,,,,,,,,,,,,,,,,,,,,,
0,61,61,57,1,,612e4052693c39ad35debf4f,62c53a6165f3d02f28d9d114,2022-07-06_09h34.38.780,Colour_Asymmetry_Pilot,2022.1.3,Win32,60.61340769,62c50e9c1127f2cd403a315f,,,,,,,,,,,,,,,,,,,,,,,,,,,,,,,,,,,,,,,,,,,,,,,,,,,,,,,,,,,,,,,,,,,,,,,,,,,,,,,,,,,,,,,,,,,,,,,,,,,,,,,,,,,,,,,,,,,,,,,,,,,,,,,,,,,,,,,,,,,,,,,,,,,,,,,,,,,,,,,,,,,,
0,62,62,17,1,,612e4052693c39ad35debf4f,62c53a6165f3d02f28d9d114,2022-07-06_09h34.38.780,Colour_Asymmetry_Pilot,2022.1.3,Win32,60.61340769,62c50e9c1127f2cd403a315f,,,,,,,,,,,,,,,,,,,,,,,,,,,,,,,,,,,,,,,,,,,,,,,,,,,,,,,,,,,,,,,,,,,,,,,,,,,,,,,,,,,,,,,,,,,,,,,,,,,,,,,,,,,,,,,,,,,,,,,,,,,,,,,,,,,,,,,,,,,,,,,,,,,,,,,,,,,,,,,,,,,,
0,63,63,28,1,,612e4052693c39ad35debf4f,62c53a6165f3d02f28d9d114,2022-07-06_09h34.38.780,Colour_Asymmetry_Pilot,2022.1.3,Win32,60.61340769,62c50e9c1127f2cd403a315f,,,,,,,,,,,,,,,,,,,,,,,,,,,,,,,,,,,,,,,,,,,,,,,,,,,,,,,,,,,,,,,,,,,,,,,,,,,,,,,,,,,,,,,,,,,,,,,,,,,,,,,,,,,,,,,,,,,,,,,,,,,,,,,,,,,,,,,,,,,,,,,,,,,,,,,,,,,,,,,,,,,,
0,64,64,44,1,,612e4052693c39ad35debf4f,62c53a6165f3d02f28d9d114,2022-07-06_09h34.38.780,Colour_Asymmetry_Pilot,2022.1.3,Win32,60.61340769,62c50e9c1127f2cd403a315f,,,,,,,,,,,,,,,,,,,,,,,,,,,,,,,,,,,,,,,,,,,,,,,,,,,,,,,,,,,,,,,,,,,,,,,,,,,,,,,,,,,,,,,,,,,,,,,,,,,,,,,,,,,,,,,,,,,,,,,,,,,,,,,,,,,,,,,,,,,,,,,,,,,,,,,,,,,,,,,,,,,,
0,65,65,39,1,,612e4052693c39ad35debf4f,62c53a6165f3d02f28d9d114,2022-07-06_09h34.38.780,Colour_Asymmetry_Pilot,2022.1.3,Win32,60.61340769,62c50e9c1127f2cd403a315f,,,,,,,,,,,,,,,,,,,,,,,,,,,,,,,,,,,,,,,,,,,,,,,,,,,,,,,,,,,,,,,,,,,,,,,,,,,,,,,,,,,,,,,,,,,,,,,,,,,,,,,,,,,,,,,,,,,,,,,,,,,,,,,,,,,,,,,,,,,,,,,,,,,,,,,,,,,,,,,,,,,,
0,66,66,53,1,,612e4052693c39ad35debf4f,62c53a6165f3d02f28d9d114,2022-07-06_09h34.38.780,Colour_Asymmetry_Pilot,2022.1.3,Win32,60.61340769,62c50e9c1127f2cd403a315f,,,,,,,,,,,,,,,,,,,,,,,,,,,,,,,,,,,,,,,,,,,,,,,,,,,,,,,,,,,,,,,,,,,,,,,,,,,,,,,,,,,,,,,,,,,,,,,,,,,,,,,,,,,,,,,,,,,,,,,,,,,,,,,,,,,,,,,,,,,,,,,,,,,,,,,,,,,,,,,,,,,,
0,67,67,29,1,,612e4052693c39ad35debf4f,62c53a6165f3d02f28d9d114,2022-07-06_09h34.38.780,Colour_Asymmetry_Pilot,2022.1.3,Win32,60.61340769,62c50e9c1127f2cd403a315f,,,,,,,,,,,,,,,,,,,,,,,,,,,,,,,,,,,,,,,,,,,,,,,,,,,,,,,,,,,,,,,,,,,,,,,,,,,,,,,,,,,,,,,,,,,,,,,,,,,,,,,,,,,,,,,,,,,,,,,,,,,,,,,,,,,,,,,,,,,,,,,,,,,,,,,,,,,,,,,,,,,,
0,68,68,82,1,,612e4052693c39ad35debf4f,62c53a6165f3d02f28d9d114,2022-07-06_09h34.38.780,Colour_Asymmetry_Pilot,2022.1.3,Win32,60.61340769,62c50e9c1127f2cd403a315f,,,,,,,,,,,,,,,,,,,,,,,,,,,,,,,,,,,,,,,,,,,,,,,,,,,,,,,,,,,,,,,,,,,,,,,,,,,,,,,,,,,,,,,,,,,,,,,,,,,,,,,,,,,,,,,,,,,,,,,,,,,,,,,,,,,,,,,,,,,,,,,,,,,,,,,,,,,,,,,,,,,,
0,69,69,68,1,,612e4052693c39ad35debf4f,62c53a6165f3d02f28d9d114,2022-07-06_09h34.38.780,Colour_Asymmetry_Pilot,2022.1.3,Win32,60.61340769,62c50e9c1127f2cd403a315f,,,,,,,,,,,,,,,,,,,,,,,,,,,,,,,,,,,,,,,,,,,,,,,,,,,,,,,,,,,,,,,,,,,,,,,,,,,,,,,,,,,,,,,,,,,,,,,,,,,,,,,,,,,,,,,,,,,,,,,,,,,,,,,,,,,,,,,,,,,,,,,,,,,,,,,,,,,,,,,,,,,,
0,70,70,5,1,,612e4052693c39ad35debf4f,62c53a6165f3d02f28d9d114,2022-07-06_09h34.38.780,Colour_Asymmetry_Pilot,2022.1.3,Win32,60.61340769,62c50e9c1127f2cd403a315f,,,,,,,,,,,,,,,,,,,,,,,,,,,,,,,,,,,,,,,,,,,,,,,,,,,,,,,,,,,,,,,,,,,,,,,,,,,,,,,,,,,,,,,,,,,,,,,,,,,,,,,,,,,,,,,,,,,,,,,,,,,,,,,,,,,,,,,,,,,,,,,,,,,,,,,,,,,,,,,,,,,,
0,71,71,54,1,,612e4052693c39ad35debf4f,62c53a6165f3d02f28d9d114,2022-07-06_09h34.38.780,Colour_Asymmetry_Pilot,2022.1.3,Win32,60.61340769,62c50e9c1127f2cd403a315f,,,,,,,,,,,,,,,,,,,,,,,,,,,,,,,,,,,,,,,,,,,,,,,,,,,,,,,,,,,,,,,,,,,,,,,,,,,,,,,,,,,,,,,,,,,,,,,,,,,,,,,,,,,,,,,,,,,,,,,,,,,,,,,,,,,,,,,,,,,,,,,,,,,,,,,,,,,,,,,,,,,,
0,72,72,56,1,,612e4052693c39ad35debf4f,62c53a6165f3d02f28d9d114,2022-07-06_09h34.38.780,Colour_Asymmetry_Pilot,2022.1.3,Win32,60.61340769,62c50e9c1127f2cd403a315f,,,,,,,,,,,,,,,,,,,,,,,,,,,,,,,,,,,,,,,,,,,,,,,,,,,,,,,,,,,,,,,,,,,,,,,,,,,,,,,,,,,,,,,,,,,,,,,,,,,,,,,,,,,,,,,,,,,,,,,,,,,,,,,,,,,,,,,,,,,,,,,,,,,,,,,,,,,,,,,,,,,,
0,73,73,6,1,,612e4052693c39ad35debf4f,62c53a6165f3d02f28d9d114,2022-07-06_09h34.38.780,Colour_Asymmetry_Pilot,2022.1.3,Win32,60.61340769,62c50e9c1127f2cd403a315f,,,,,,,,,,,,,,,,,,,,,,,,,,,,,,,,,,,,,,,,,,,,,,,,,,,,,,,,,,,,,,,,,,,,,,,,,,,,,,,,,,,,,,,,,,,,,,,,,,,,,,,,,,,,,,,,,,,,,,,,,,,,,,,,,,,,,,,,,,,,,,,,,,,,,,,,,,,,,,,,,,,,
0,74,74,12,1,,612e4052693c39ad35debf4f,62c53a6165f3d02f28d9d114,2022-07-06_09h34.38.780,Colour_Asymmetry_Pilot,2022.1.3,Win32,60.61340769,62c50e9c1127f2cd403a315f,,,,,,,,,,,,,,,,,,,,,,,,,,,,,,,,,,,,,,,,,,,,,,,,,,,,,,,,,,,,,,,,,,,,,,,,,,,,,,,,,,,,,,,,,,,,,,,,,,,,,,,,,,,,,,,,,,,,,,,,,,,,,,,,,,,,,,,,,,,,,,,,,,,,,,,,,,,,,,,,,,,,
0,75,75,52,1,,612e4052693c39ad35debf4f,62c53a6165f3d02f28d9d114,2022-07-06_09h34.38.780,Colour_Asymmetry_Pilot,2022.1.3,Win32,60.61340769,62c50e9c1127f2cd403a315f,,,,,,,,,,,,,,,,,,,,,,,,,,,,,,,,,,,,,,,,,,,,,,,,,,,,,,,,,,,,,,,,,,,,,,,,,,,,,,,,,,,,,,,,,,,,,,,,,,,,,,,,,,,,,,,,,,,,,,,,,,,,,,,,,,,,,,,,,,,,,,,,,,,,,,,,,,,,,,,,,,,,
0,76,76,66,1,,612e4052693c39ad35debf4f,62c53a6165f3d02f28d9d114,2022-07-06_09h34.38.780,Colour_Asymmetry_Pilot,2022.1.3,Win32,60.61340769,62c50e9c1127f2cd403a315f,,,,,,,,,,,,,,,,,,,,,,,,,,,,,,,,,,,,,,,,,,,,,,,,,,,,,,,,,,,,,,,,,,,,,,,,,,,,,,,,,,,,,,,,,,,,,,,,,,,,,,,,,,,,,,,,,,,,,,,,,,,,,,,,,,,,,,,,,,,,,,,,,,,,,,,,,,,,,,,,,,,,
0,77,77,23,1,,612e4052693c39ad35debf4f,62c53a6165f3d02f28d9d114,2022-07-06_09h34.38.780,Colour_Asymmetry_Pilot,2022.1.3,Win32,60.61340769,62c50e9c1127f2cd403a315f,,,,,,,,,,,,,,,,,,,,,,,,,,,,,,,,,,,,,,,,,,,,,,,,,,,,,,,,,,,,,,,,,,,,,,,,,,,,,,,,,,,,,,,,,,,,,,,,,,,,,,,,,,,,,,,,,,,,,,,,,,,,,,,,,,,,,,,,,,,,,,,,,,,,,,,,,,,,,,,,,,,,
0,78,78,34,1,,612e4052693c39ad35debf4f,62c53a6165f3d02f28d9d114,2022-07-06_09h34.38.780,Colour_Asymmetry_Pilot,2022.1.3,Win32,60.61340769,62c50e9c1127f2cd403a315f,,,,,,,,,,,,,,,,,,,,,,,,,,,,,,,,,,,,,,,,,,,,,,,,,,,,,,,,,,,,,,,,,,,,,,,,,,,,,,,,,,,,,,,,,,,,,,,,,,,,,,,,,,,,,,,,,,,,,,,,,,,,,,,,,,,,,,,,,,,,,,,,,,,,,,,,,,,,,,,,,,,,
0,79,79,67,1,,612e4052693c39ad35debf4f,62c53a6165f3d02f28d9d114,2022-07-06_09h34.38.780,Colour_Asymmetry_Pilot,2022.1.3,Win32,60.61340769,62c50e9c1127f2cd403a315f,,,,,,,,,,,,,,,,,,,,,,,,,,,,,,,,,,,,,,,,,,,,,,,,,,,,,,,,,,,,,,,,,,,,,,,,,,,,,,,,,,,,,,,,,,,,,,,,,,,,,,,,,,,,,,,,,,,,,,,,,,,,,,,,,,,,,,,,,,,,,,,,,,,,,,,,,,,,,,,,,,,,
0,80,80,70,1,,612e4052693c39ad35debf4f,62c53a6165f3d02f28d9d114,2022-07-06_09h34.38.780,Colour_Asymmetry_Pilot,2022.1.3,Win32,60.61340769,62c50e9c1127f2cd403a315f,,,,,,,,,,,,,,,,,,,,,,,,,,,,,,,,,,,,,,,,,,,,,,,,,,,,,,,,,,,,,,,,,,,,,,,,,,,,,,,,,,,,,,,,,,,,,,,,,,,,,,,,,,,,,,,,,,,,,,,,,,,,,,,,,,,,,,,,,,,,,,,,,,,,,,,,,,,,,,,,,,,,
0,81,81,77,1,,612e4052693c39ad35debf4f,62c53a6165f3d02f28d9d114,2022-07-06_09h34.38.780,Colour_Asymmetry_Pilot,2022.1.3,Win32,60.61340769,62c50e9c1127f2cd403a315f,,,,,,,,,,,,,,,,,,,,,,,,,,,,,,,,,,,,,,,,,,,,,,,,,,,,,,,,,,,,,,,,,,,,,,,,,,,,,,,,,,,,,,,,,,,,,,,,,,,,,,,,,,,,,,,,,,,,,,,,,,,,,,,,,,,,,,,,,,,,,,,,,,,,,,,,,,,,,,,,,,,,
0,82,82,78,1,,612e4052693c39ad35debf4f,62c53a6165f3d02f28d9d114,2022-07-06_09h34.38.780,Colour_Asymmetry_Pilot,2022.1.3,Win32,60.61340769,62c50e9c1127f2cd403a315f,,,,,,,,,,,,,,,,,,,,,,,,,,,,,,,,,,,,,,,,,,,,,,,,,,,,,,,,,,,,,,,,,,,,,,,,,,,,,,,,,,,,,,,,,,,,,,,,,,,,,,,,,,,,,,,,,,,,,,,,,,,,,,,,,,,,,,,,,,,,,,,,,,,,,,,,,,,,,,,,,,,,
0,83,83,84,1,,612e4052693c39ad35debf4f,62c53a6165f3d02f28d9d114,2022-07-06_09h34.38.780,Colour_Asymmetry_Pilot,2022.1.3,Win32,60.61340769,62c50e9c1127f2cd403a315f,,,,,,,,,,,,,,,,,,,,,,,,,,,,,,,,,,,,,,,,,,,,,,,,,,,,,,,,,,,,,,,,,,,,,,,,,,,,,,,,,,,,,,,,,,,,,,,,,,,,,,,,,,,,,,,,,,,,,,,,,,,,,,,,,,,,,,,,,,,,,,,,,,,,,,,,,,,,,,,,,,,,
0,84,84,20,1,,612e4052693c39ad35debf4f,62c53a6165f3d02f28d9d114,2022-07-06_09h34.38.780,Colour_Asymmetry_Pilot,2022.1.3,Win32,60.61340769,62c50e9c1127f2cd403a315f,,,,,,,,,,,,,,,,,,,,,,,,,,,,,,,,,,,,,,,,,,,,,,,,,,,,,,,,,,,,,,,,,,,,,,,,,,,,,,,,,,,,,,,,,,,,,,,,,,,,,,,,,,,,,,,,,,,,,,,,,,,,,,,,,,,,,,,,,,,,,,,,,,,,,,,,,,,,,,,,,,,,
0,85,85,47,1,,612e4052693c39ad35debf4f,62c53a6165f3d02f28d9d114,2022-07-06_09h34.38.780,Colour_Asymmetry_Pilot,2022.1.3,Win32,60.61340769,62c50e9c1127f2cd403a315f,,,,,,,,,,,,,,,,,,,,,,,,,,,,,,,,,,,,,,,,,,,,,,,,,,,,,,,,,,,,,,,,,,,,,,,,,,,,,,,,,,,,,,,,,,,,,,,,,,,,,,,,,,,,,,,,,,,,,,,,,,,,,,,,,,,,,,,,,,,,,,,,,,,,,,,,,,,,,,,,,,,,
0,86,86,15,1,,612e4052693c39ad35debf4f,62c53a6165f3d02f28d9d114,2022-07-06_09h34.38.780,Colour_Asymmetry_Pilot,2022.1.3,Win32,60.61340769,62c50e9c1127f2cd403a315f,,,,,,,,,,,,,,,,,,,,,,,,,,,,,,,,,,,,,,,,,,,,,,,,,,,,,,,,,,,,,,,,,,,,,,,,,,,,,,,,,,,,,,,,,,,,,,,,,,,,,,,,,,,,,,,,,,,,,,,,,,,,,,,,,,,,,,,,,,,,,,,,,,,,,,,,,,,,,,,,,,,,
0,87,87,75,1,,612e4052693c39ad35debf4f,62c53a6165f3d02f28d9d114,2022-07-06_09h34.38.780,Colour_Asymmetry_Pilot,2022.1.3,Win32,60.61340769,62c50e9c1127f2cd403a315f,,,,,,,,,,,,,,,,,,,,,,,,,,,,,,,,,,,,,,,,,,,,,,,,,,,,,,,,,,,,,,,,,,,,,,,,,,,,,,,,,,,,,,,,,,,,,,,,,,,,,,,,,,,,,,,,,,,,,,,,,,,,,,,,,,,,,,,,,,,,,,,,,,,,,,,,,,,,,,,,,,,,
0,88,88,50,1,,612e4052693c39ad35debf4f,62c53a6165f3d02f28d9d114,2022-07-06_09h34.38.780,Colour_Asymmetry_Pilot,2022.1.3,Win32,60.61340769,62c50e9c1127f2cd403a315f,,,,,,,,,,,,,,,,,,,,,,,,,,,,,,,,,,,,,,,,,,,,,,,,,,,,,,,,,,,,,,,,,,,,,,,,,,,,,,,,,,,,,,,,,,,,,,,,,,,,,,,,,,,,,,,,,,,,,,,,,,,,,,,,,,,,,,,,,,,,,,,,,,,,,,,,,,,,,,,,,,,,
0,89,89,65,1,,612e4052693c39ad35debf4f,62c53a6165f3d02f28d9d114,2022-07-06_09h34.38.780,Colour_Asymmetry_Pilot,2022.1.3,Win32,60.61340769,62c50e9c1127f2cd403a315f,,,,,,,,,,,,,,,,,,,,,,,,,,,,,,,,,,,,,,,,,,,,,,,,,,,,,,,,,,,,,,,,,,,,,,,,,,,,,,,,,,,,,,,,,,,,,,,,,,,,,,,,,,,,,,,,,,,,,,,,,,,,,,,,,,,,,,,,,,,,,,,,,,,,,,,,,,,,,,,,,,,,
0,90,90,7,1,,612e4052693c39ad35debf4f,62c53a6165f3d02f28d9d114,2022-07-06_09h34.38.780,Colour_Asymmetry_Pilot,2022.1.3,Win32,60.61340769,62c50e9c1127f2cd403a315f,,,,,,,,,,,,,,,,,,,,,,,,,,,,,,,,,,,,,,,,,,,,,,,,,,,,,,,,,,,,,,,,,,,,,,,,,,,,,,,,,,,,,,,,,,,,,,,,,,,,,,,,,,,,,,,,,,,,,,,,,,,,,,,,,,,,,,,,,,,,,,,,,,,,,,,,,,,,,,,,,,,,
0,91,91,76,1,,612e4052693c39ad35debf4f,62c53a6165f3d02f28d9d114,2022-07-06_09h34.38.780,Colour_Asymmetry_Pilot,2022.1.3,Win32,60.61340769,62c50e9c1127f2cd403a315f,,,,,,,,,,,,,,,,,,,,,,,,,,,,,,,,,,,,,,,,,,,,,,,,,,,,,,,,,,,,,,,,,,,,,,,,,,,,,,,,,,,,,,,,,,,,,,,,,,,,,,,,,,,,,,,,,,,,,,,,,,,,,,,,,,,,,,,,,,,,,,,,,,,,,,,,,,,,,,,,,,,,
0,92,92,22,1,,612e4052693c39ad35debf4f,62c53a6165f3d02f28d9d114,2022-07-06_09h34.38.780,Colour_Asymmetry_Pilot,2022.1.3,Win32,60.61340769,62c50e9c1127f2cd403a315f,,,,,,,,,,,,,,,,,,,,,,,,,,,,,,,,,,,,,,,,,,,,,,,,,,,,,,,,,,,,,,,,,,,,,,,,,,,,,,,,,,,,,,,,,,,,,,,,,,,,,,,,,,,,,,,,,,,,,,,,,,,,,,,,,,,,,,,,,,,,,,,,,,,,,,,,,,,,,,,,,,,,
,,,,,,612e4052693c39ad35debf4f,62c53a6165f3d02f28d9d114,2022-07-06_09h34.38.780,Colour_Asymmetry_Pilot,2022.1.3,Win32,60.61340769,62c50e9c1127f2cd403a315f,0,0,0,84,1,threeone,,,,,,,,,,,,,,,,,,,,,,,,,,,,,,,,,,,,,,,,,,,,,,,,,,,,,,,,,,,,,,,,,,,,,,,,,,,,,,,,,,,,,,,,,,,,,,,,,,,,,,,,,,,,,,,,,,,,,,,,,,,,,,,,,,,,,,,,,,,,,,,,,,,,,,,,,,,,,,
,,,,,,612e4052693c39ad35debf4f,62c53a6165f3d02f28d9d114,2022-07-06_09h34.38.780,Colour_Asymmetry_Pilot,2022.1.3,Win32,60.61340769,62c50e9c1127f2cd403a315f,0,1,1,57,1,onethree,,,,,,,,,,,,,,,,,,,,,,,,,,,,,,,,,,,,,,,,,,,,,,,,,,,,,,,,,,,,,,,,,,,,,,,,,,,,,,,,,,,,,,,,,,,,,,,,,,,,,,,,,,,,,,,,,,,,,,,,,,,,,,,,,,,,,,,,,,,,,,,,,,,,,,,,,,,,,,
,,,,,,612e4052693c39ad35debf4f,62c53a6165f3d02f28d9d114,2022-07-06_09h34.38.780,Colour_Asymmetry_Pilot,2022.1.3,Win32,60.61340769,62c50e9c1127f2cd403a315f,0,2,2,144,1,onetwo,,,,,,,,,,,,,,,,,,,,,,,,,,,,,,,,,,,,,,,,,,,,,,,,,,,,,,,,,,,,,,,,,,,,,,,,,,,,,,,,,,,,,,,,,,,,,,,,,,,,,,,,,,,,,,,,,,,,,,,,,,,,,,,,,,,,,,,,,,,,,,,,,,,,,,,,,,,,,,
,,,,,,612e4052693c39ad35debf4f,62c53a6165f3d02f28d9d114,2022-07-06_09h34.38.780,Colour_Asymmetry_Pilot,2022.1.3,Win32,60.61340769,62c50e9c1127f2cd403a315f,0,3,3,83,1,twofour,,,,,,,,,,,,,,,,,,,,,,,,,,,,,,,,,,,,,,,,,,,,,,,,,,,,,,,,,,,,,,,,,,,,,,,,,,,,,,,,,,,,,,,,,,,,,,,,,,,,,,,,,,,,,,,,,,,,,,,,,,,,,,,,,,,,,,,,,,,,,,,,,,,,,,,,,,,,,,
,,,,,,612e4052693c39ad35debf4f,62c53a6165f3d02f28d9d114,2022-07-06_09h34.38.780,Colour_Asymmetry_Pilot,2022.1.3,Win32,60.61340769,62c50e9c1127f2cd403a315f,0,4,4,113,1,onethree,,,,,,,,,,,,,,,,,,,,,,,,,,,,,,,,,,,,,,,,,,,,,,,,,,,,,,,,,,,,,,,,,,,,,,,,,,,,,,,,,,,,,,,,,,,,,,,,,,,,,,,,,,,,,,,,,,,,,,,,,,,,,,,,,,,,,,,,,,,,,,,,,,,,,,,,,,,,,,
,,,,,,612e4052693c39ad35debf4f,62c53a6165f3d02f28d9d114,2022-07-06_09h34.38.780,Colour_Asymmetry_Pilot,2022.1.3,Win32,60.61340769,62c50e9c1127f2cd403a315f,0,5,5,100,1,threeone,,,,,,,,,,,,,,,,,,,,,,,,,,,,,,,,,,,,,,,,,,,,,,,,,,,,,,,,,,,,,,,,,,,,,,,,,,,,,,,,,,,,,,,,,,,,,,,,,,,,,,,,,,,,,,,,,,,,,,,,,,,,,,,,,,,,,,,,,,,,,,,,,,,,,,,,,,,,,,
,,,,,,612e4052693c39ad35debf4f,62c53a6165f3d02f28d9d114,2022-07-06_09h34.38.780,Colour_Asymmetry_Pilot,2022.1.3,Win32,60.61340769,62c50e9c1127f2cd403a315f,0,6,6,9,1,onethree,,,,,,,,,,,,,,,,,,,,,,,,,,,,,,,,,,,,,,,,,,,,,,,,,,,,,,,,,,,,,,,,,,,,,,,,,,,,,,,,,,,,,,,,,,,,,,,,,,,,,,,,,,,,,,,,,,,,,,,,,,,,,,,,,,,,,,,,,,,,,,,,,,,,,,,,,,,,,,
,,,,,,612e4052693c39ad35debf4f,62c53a6165f3d02f28d9d114,2022-07-06_09h34.38.780,Colour_Asymmetry_Pilot,2022.1.3,Win32,60.61340769,62c50e9c1127f2cd403a315f,0,7,7,102,1,fourtwo,,,,,,,,,,,,,,,,,,,,,,,,,,,,,,,,,,,,,,,,,,,,,,,,,,,,,,,,,,,,,,,,,,,,,,,,,,,,,,,,,,,,,,,,,,,,,,,,,,,,,,,,,,,,,,,,,,,,,,,,,,,,,,,,,,,,,,,,,,,,,,,,,,,,,,,,,,,,,,
,,,,,,612e4052693c39ad35debf4f,62c53a6165f3d02f28d9d114,2022-07-06_09h34.38.780,Colour_Asymmetry_Pilot,2022.1.3,Win32,60.61340769,62c50e9c1127f2cd403a315f,0,8,8,112,1,onetwo,,,,,,,,,,,,,,,,,,,,,,,,,,,,,,,,,,,,,,,,,,,,,,,,,,,,,,,,,,,,,,,,,,,,,,,,,,,,,,,,,,,,,,,,,,,,,,,,,,,,,,,,,,,,,,,,,,,,,,,,,,,,,,,,,,,,,,,,,,,,,,,,,,,,,,,,,,,,,,
,,,,,,612e4052693c39ad35debf4f,62c53a6165f3d02f28d9d114,2022-07-06_09h34.38.780,Colour_Asymmetry_Pilot,2022.1.3,Win32,60.61340769,62c50e9c1127f2cd403a315f,0,9,9,79,1,fourthree,,,,,,,,,,,,,,,,,,,,,,,,,,,,,,,,,,,,,,,,,,,,,,,,,,,,,,,,,,,,,,,,,,,,,,,,,,,,,,,,,,,,,,,,,,,,,,,,,,,,,,,,,,,,,,,,,,,,,,,,,,,,,,,,,,,,,,,,,,,,,,,,,,,,,,,,,,,,,,
,,,,,,612e4052693c39ad35debf4f,62c53a6165f3d02f28d9d114,2022-07-06_09h34.38.780,Colour_Asymmetry_Pilot,2022.1.3,Win32,60.61340769,62c50e9c1127f2cd403a315f,0,10,10,142,1,fourtwo,,,,,,,,,,,,,,,,,,,,,,,,,,,,,,,,,,,,,,,,,,,,,,,,,,,,,,,,,,,,,,,,,,,,,,,,,,,,,,,,,,,,,,,,,,,,,,,,,,,,,,,,,,,,,,,,,,,,,,,,,,,,,,,,,,,,,,,,,,,,,,,,,,,,,,,,,,,,,,
,,,,,,612e4052693c39ad35debf4f,62c53a6165f3d02f28d9d114,2022-07-06_09h34.38.780,Colour_Asymmetry_Pilot,2022.1.3,Win32,60.61340769,62c50e9c1127f2cd403a315f,0,11,11,39,1,fourthree,,,,,,,,,,,,,,,,,,,,,,,,,,,,,,,,,,,,,,,,,,,,,,,,,,,,,,,,,,,,,,,,,,,,,,,,,,,,,,,,,,,,,,,,,,,,,,,,,,,,,,,,,,,,,,,,,,,,,,,,,,,,,,,,,,,,,,,,,,,,,,,,,,,,,,,,,,,,,,
,,,,,,612e4052693c39ad35debf4f,62c53a6165f3d02f28d9d114,2022-07-06_09h34.38.780,Colour_Asymmetry_Pilot,2022.1.3,Win32,60.61340769,62c50e9c1127f2cd403a315f,0,12,12,146,1,twoone,,,,,,,,,,,,,,,,,,,,,,,,,,,,,,,,,,,,,,,,,,,,,,,,,,,,,,,,,,,,,,,,,,,,,,,,,,,,,,,,,,,,,,,,,,,,,,,,,,,,,,,,,,,,,,,,,,,,,,,,,,,,,,,,,,,,,,,,,,,,,,,,,,,,,,,,,,,,,,
,,,,,,612e4052693c39ad35debf4f,62c53a6165f3d02f28d9d114,2022-07-06_09h34.38.780,Colour_Asymmetry_Pilot,2022.1.3,Win32,60.61340769,62c50e9c1127f2cd403a315f,0,13,13,135,1,fourthree,,,,,,,,,,,,,,,,,,,,,,,,,,,,,,,,,,,,,,,,,,,,,,,,,,,,,,,,,,,,,,,,,,,,,,,,,,,,,,,,,,,,,,,,,,,,,,,,,,,,,,,,,,,,,,,,,,,,,,,,,,,,,,,,,,,,,,,,,,,,,,,,,,,,,,,,,,,,,,
,,,,,,612e4052693c39ad35debf4f,62c53a6165f3d02f28d9d114,2022-07-06_09h34.38.780,Colour_Asymmetry_Pilot,2022.1.3,Win32,60.61340769,62c50e9c1127f2cd403a315f,0,14,14,2,1,twoone,,,,,,,,,,,,,,,,,,,,,,,,,,,,,,,,,,,,,,,,,,,,,,,,,,,,,,,,,,,,,,,,,,,,,,,,,,,,,,,,,,,,,,,,,,,,,,,,,,,,,,,,,,,,,,,,,,,,,,,,,,,,,,,,,,,,,,,,,,,,,,,,,,,,,,,,,,,,,,
,,,,,,612e4052693c39ad35debf4f,62c53a6165f3d02f28d9d114,2022-07-06_09h34.38.780,Colour_Asymmetry_Pilot,2022.1.3,Win32,60.61340769,62c50e9c1127f2cd403a315f,0,15,15,60,1,threeone,,,,,,,,,,,,,,,,,,,,,,,,,,,,,,,,,,,,,,,,,,,,,,,,,,,,,,,,,,,,,,,,,,,,,,,,,,,,,,,,,,,,,,,,,,,,,,,,,,,,,,,,,,,,,,,,,,,,,,,,,,,,,,,,,,,,,,,,,,,,,,,,,,,,,,,,,,,,,,
,,,,,,612e4052693c39ad35debf4f,62c53a6165f3d02f28d9d114,2022-07-06_09h34.38.780,Colour_Asymmetry_Pilot,2022.1.3,Win32,60.61340769,62c50e9c1127f2cd403a315f,0,16,16,32,1,onetwo,,,,,,,,,,,,,,,,,,,,,,,,,,,,,,,,,,,,,,,,,,,,,,,,,,,,,,,,,,,,,,,,,,,,,,,,,,,,,,,,,,,,,,,,,,,,,,,,,,,,,,,,,,,,,,,,,,,,,,,,,,,,,,,,,,,,,,,,,,,,,,,,,,,,,,,,,,,,,,
,,,,,,612e4052693c39ad35debf4f,62c53a6165f3d02f28d9d114,2022-07-06_09h34.38.780,Colour_Asymmetry_Pilot,2022.1.3,Win32,60.61340769,62c50e9c1127f2cd403a315f,0,17,17,114,1,twoone,,,,,,,,,,,,,,,,,,,,,,,,,,,,,,,,,,,,,,,,,,,,,,,,,,,,,,,,,,,,,,,,,,,,,,,,,,,,,,,,,,,,,,,,,,,,,,,,,,,,,,,,,,,,,,,,,,,,,,,,,,,,,,,,,,,,,,,,,,,,,,,,,,,,,,,,,,,,,,
,,,,,,612e4052693c39ad35debf4f,62c53a6165f3d02f28d9d114,2022-07-06_09h34.38.780,Colour_Asymmetry_Pilot,2022.1.3,Win32,60.61340769,62c50e9c1127f2cd403a315f,0,18,18,157,1,threefour,,,,,,,,,,,,,,,,,,,,,,,,,,,,,,,,,,,,,,,,,,,,,,,,,,,,,,,,,,,,,,,,,,,,,,,,,,,,,,,,,,,,,,,,,,,,,,,,,,,,,,,,,,,,,,,,,,,,,,,,,,,,,,,,,,,,,,,,,,,,,,,,,,,,,,,,,,,,,,
,,,,,,612e4052693c39ad35debf4f,62c53a6165f3d02f28d9d114,2022-07-06_09h34.38.780,Colour_Asymmetry_Pilot,2022.1.3,Win32,60.61340769,62c50e9c1127f2cd403a315f,0,19,19,66,1,twoone,,,,,,,,,,,,,,,,,,,,,,,,,,,,,,,,,,,,,,,,,,,,,,,,,,,,,,,,,,,,,,,,,,,,,,,,,,,,,,,,,,,,,,,,,,,,,,,,,,,,,,,,,,,,,,,,,,,,,,,,,,,,,,,,,,,,,,,,,,,,,,,,,,,,,,,,,,,,,,
,,,,,,612e4052693c39ad35debf4f,62c53a6165f3d02f28d9d114,2022-07-06_09h34.38.780,Colour_Asymmetry_Pilot,2022.1.3,Win32,60.61340769,62c50e9c1127f2cd403a315f,0,20,20,87,1,fourthree,,,,,,,,,,,,,,,,,,,,,,,,,,,,,,,,,,,,,,,,,,,,,,,,,,,,,,,,,,,,,,,,,,,,,,,,,,,,,,,,,,,,,,,,,,,,,,,,,,,,,,,,,,,,,,,,,,,,,,,,,,,,,,,,,,,,,,,,,,,,,,,,,,,,,,,,,,,,,,
,,,,,,612e4052693c39ad35debf4f,62c53a6165f3d02f28d9d114,2022-07-06_09h34.38.780,Colour_Asymmetry_Pilot,2022.1.3,Win32,60.61340769,62c50e9c1127f2cd403a315f,0,21,21,23,1,fourthree,,,,,,,,,,,,,,,,,,,,,,,,,,,,,,,,,,,,,,,,,,,,,,,,,,,,,,,,,,,,,,,,,,,,,,,,,,,,,,,,,,,,,,,,,,,,,,,,,,,,,,,,,,,,,,,,,,,,,,,,,,,,,,,,,,,,,,,,,,,,,,,,,,,,,,,,,,,,,,
,,,,,,612e4052693c39ad35debf4f,62c53a6165f3d02f28d9d114,2022-07-06_09h34.38.780,Colour_Asymmetry_Pilot,2022.1.3,Win32,60.61340769,62c50e9c1127f2cd403a315f,0,22,22,28,1,threeone,,,,,,,,,,,,,,,,,,,,,,,,,,,,,,,,,,,,,,,,,,,,,,,,,,,,,,,,,,,,,,,,,,,,,,,,,,,,,,,,,,,,,,,,,,,,,,,,,,,,,,,,,,,,,,,,,,,,,,,,,,,,,,,,,,,,,,,,,,,,,,,,,,,,,,,,,,,,,,
,,,,,,612e4052693c39ad35debf4f,62c53a6165f3d02f28d9d114,2022-07-06_09h34.38.780,Colour_Asymmetry_Pilot,2022.1.3,Win32,60.61340769,62c50e9c1127f2cd403a315f,0,23,23,74,1,twoone,,,,,,,,,,,,,,,,,,,,,,,,,,,,,,,,,,,,,,,,,,,,,,,,,,,,,,,,,,,,,,,,,,,,,,,,,,,,,,,,,,,,,,,,,,,,,,,,,,,,,,,,,,,,,,,,,,,,,,,,,,,,,,,,,,,,,,,,,,,,,,,,,,,,,,,,,,,,,,
,,,,,,612e4052693c39ad35debf4f,62c53a6165f3d02f28d9d114,2022-07-06_09h34.38.780,Colour_Asymmetry_Pilot,2022.1.3,Win32,60.61340769,62c50e9c1127f2cd403a315f,0,24,24,136,1,onetwo,,,,,,,,,,,,,,,,,,,,,,,,,,,,,,,,,,,,,,,,,,,,,,,,,,,,,,,,,,,,,,,,,,,,,,,,,,,,,,,,,,,,,,,,,,,,,,,,,,,,,,,,,,,,,,,,,,,,,,,,,,,,,,,,,,,,,,,,,,,,,,,,,,,,,,,,,,,,,,
,,,,,,612e4052693c39ad35debf4f,62c53a6165f3d02f28d9d114,2022-07-06_09h34.38.780,Colour_Asymmetry_Pilot,2022.1.3,Win32,60.61340769,62c50e9c1127f2cd403a315f,0,25,25,73,1,onethree,,,,,,,,,,,,,,,,,,,,,,,,,,,,,,,,,,,,,,,,,,,,,,,,,,,,,,,,,,,,,,,,,,,,,,,,,,,,,,,,,,,,,,,,,,,,,,,,,,,,,,,,,,,,,,,,,,,,,,,,,,,,,,,,,,,,,,,,,,,,,,,,,,,,,,,,,,,,,,
,,,,,,612e4052693c39ad35debf4f,62c53a6165f3d02f28d9d114,2022-07-06_09h34.38.780,Colour_Asymmetry_Pilot,2022.1.3,Win32,60.61340769,62c50e9c1127f2cd403a315f,0,26,26,140,1,threeone,,,,,,,,,,,,,,,,,,,,,,,,,,,,,,,,,,,,,,,,,,,,,,,,,,,,,,,,,,,,,,,,,,,,,,,,,,,,,,,,,,,,,,,,,,,,,,,,,,,,,,,,,,,,,,,,,,,,,,,,,,,,,,,,,,,,,,,,,,,,,,,,,,,,,,,,,,,,,,
,,,,,,612e4052693c39ad35debf4f,62c53a6165f3d02f28d9d114,2022-07-06_09h34.38.780,Colour_Asymmetry_Pilot,2022.1.3,Win32,60.61340769,62c50e9c1127f2cd403a315f,0,27,27,26,1,twoone,,,,,,,,,,,,,,,,,,,,,,,,,,,,,,,,,,,,,,,,,,,,,,,,,,,,,,,,,,,,,,,,,,,,,,,,,,,,,,,,,,,,,,,,,,,,,,,,,,,,,,,,,,,,,,,,,,,,,,,,,,,,,,,,,,,,,,,,,,,,,,,,,,,,,,,,,,,,,,
,,,,,,612e4052693c39ad35debf4f,62c53a6165f3d02f28d9d114,2022-07-06_09h34.38.780,Colour_Asymmetry_Pilot,2022.1.3,Win32,60.61340769,62c50e9c1127f2cd403a315f,0,28,28,42,1,twoone,,,,,,,,,,,,,,,,,,,,,,,,,,,,,,,,,,,,,,,,,,,,,,,,,,,,,,,,,,,,,,,,,,,,,,,,,,,,,,,,,,,,,,,,,,,,,,,,,,,,,,,,,,,,,,,,,,,,,,,,,,,,,,,,,,,,,,,,,,,,,,,,,,,,,,,,,,,,,,
,,,,,,612e4052693c39ad35debf4f,62c53a6165f3d02f28d9d114,2022-07-06_09h34.38.780,Colour_Asymmetry_Pilot,2022.1.3,Win32,60.61340769,62c50e9c1127f2cd403a315f,0,29,29,53,1,threefour,,,,,,,,,,,,,,,,,,,,,,,,,,,,,,,,,,,,,,,,,,,,,,,,,,,,,,,,,,,,,,,,,,,,,,,,,,,,,,,,,,,,,,,,,,,,,,,,,,,,,,,,,,,,,,,,,,,,,,,,,,,,,,,,,,,,,,,,,,,,,,,,,,,,,,,,,,,,,,
,,,,,,612e4052693c39ad35debf4f,62c53a6165f3d02f28d9d114,2022-07-06_09h34.38.780,Colour_Asymmetry_Pilot,2022.1.3,Win32,60.61340769,62c50e9c1127f2cd403a315f,0,30,30,13,1,threefour,,,,,,,,,,,,,,,,,,,,,,,,,,,,,,,,,,,,,,,,,,,,,,,,,,,,,,,,,,,,,,,,,,,,,,,,,,,,,,,,,,,,,,,,,,,,,,,,,,,,,,,,,,,,,,,,,,,,,,,,,,,,,,,,,,,,,,,,,,,,,,,,,,,,,,,,,,,,,,
,,,,,,612e4052693c39ad35debf4f,62c53a6165f3d02f28d9d114,2022-07-06_09h34.38.780,Colour_Asymmetry_Pilot,2022.1.3,Win32,60.61340769,62c50e9c1127f2cd403a315f,0,31,31,36,1,threeone,,,,,,,,,,,,,,,,,,,,,,,,,,,,,,,,,,,,,,,,,,,,,,,,,,,,,,,,,,,,,,,,,,,,,,,,,,,,,,,,,,,,,,,,,,,,,,,,,,,,,,,,,,,,,,,,,,,,,,,,,,,,,,,,,,,,,,,,,,,,,,,,,,,,,,,,,,,,,,
,,,,,,612e4052693c39ad35debf4f,62c53a6165f3d02f28d9d114,2022-07-06_09h34.38.780,Colour_Asymmetry_Pilot,2022.1.3,Win32,60.61340769,62c50e9c1127f2cd403a315f,0,32,32,126,1,fourtwo,,,,,,,,,,,,,,,,,,,,,,,,,,,,,,,,,,,,,,,,,,,,,,,,,,,,,,,,,,,,,,,,,,,,,,,,,,,,,,,,,,,,,,,,,,,,,,,,,,,,,,,,,,,,,,,,,,,,,,,,,,,,,,,,,,,,,,,,,,,,,,,,,,,,,,,,,,,,,,
,,,,,,612e4052693c39ad35debf4f,62c53a6165f3d02f28d9d114,2022-07-06_09h34.38.780,Colour_Asymmetry_Pilot,2022.1.3,Win32,60.61340769,62c50e9c1127f2cd403a315f,0,33,33,108,1,threeone,,,,,,,,,,,,,,,,,,,,,,,,,,,,,,,,,,,,,,,,,,,,,,,,,,,,,,,,,,,,,,,,,,,,,,,,,,,,,,,,,,,,,,,,,,,,,,,,,,,,,,,,,,,,,,,,,,,,,,,,,,,,,,,,,,,,,,,,,,,,,,,,,,,,,,,,,,,,,,
,,,,,,612e4052693c39ad35debf4f,62c53a6165f3d02f28d9d114,2022-07-06_09h34.38.780,Colour_Asymmetry_Pilot,2022.1.3,Win32,60.61340769,62c50e9c1127f2cd403a315f,0,34,34,98,1,twoone,,,,,,,,,,,,,,,,,,,,,,,,,,,,,,,,,,,,,,,,,,,,,,,,,,,,,,,,,,,,,,,,,,,,,,,,,,,,,,,,,,,,,,,,,,,,,,,,,,,,,,,,,,,,,,,,,,,,,,,,,,,,,,,,,,,,,,,,,,,,,,,,,,,,,,,,,,,,,,
,,,,,,612e4052693c39ad35debf4f,62c53a6165f3d02f28d9d114,2022-07-06_09h34.38.780,Colour_Asymmetry_Pilot,2022.1.3,Win32,60.61340769,62c50e9c1127f2cd403a315f,0,35,35,27,1,twofour,,,,,,,,,,,,,,,,,,,,,,,,,,,,,,,,,,,,,,,,,,,,,,,,,,,,,,,,,,,,,,,,,,,,,,,,,,,,,,,,,,,,,,,,,,,,,,,,,,,,,,,,,,,,,,,,,,,,,,,,,,,,,,,,,,,,,,,,,,,,,,,,,,,,,,,,,,,,,,
,,,,,,612e4052693c39ad35debf4f,62c53a6165f3d02f28d9d114,2022-07-06_09h34.38.780,Colour_Asymmetry_Pilot,2022.1.3,Win32,60.61340769,62c50e9c1127f2cd403a315f,0,36,36,161,1,onethree,,,,,,,,,,,,,,,,,,,,,,,,,,,,,,,,,,,,,,,,,,,,,,,,,,,,,,,,,,,,,,,,,,,,,,,,,,,,,,,,,,,,,,,,,,,,,,,,,,,,,,,,,,,,,,,,,,,,,,,,,,,,,,,,,,,,,,,,,,,,,,,,,,,,,,,,,,,,,,
,,,,,,612e4052693c39ad35debf4f,62c53a6165f3d02f28d9d114,2022-07-06_09h34.38.780,Colour_Asymmetry_Pilot,2022.1.3,Win32,60.61340769,62c50e9c1127f2cd403a315f,0,37,37,17,1,onethree,,,,,,,,,,,,,,,,,,,,,,,,,,,,,,,,,,,,,,,,,,,,,,,,,,,,,,,,,,,,,,,,,,,,,,,,,,,,,,,,,,,,,,,,,,,,,,,,,,,,,,,,,,,,,,,,,,,,,,,,,,,,,,,,,,,,,,,,,,,,,,,,,,,,,,,,,,,,,,
,,,,,,612e4052693c39ad35debf4f,62c53a6165f3d02f28d9d114,2022-07-06_09h34.38.780,Colour_Asymmetry_Pilot,2022.1.3,Win32,60.61340769,62c50e9c1127f2cd403a315f,0,38,38,132,1,threeone,,,,,,,,,,,,,,,,,,,,,,,,,,,,,,,,,,,,,,,,,,,,,,,,,,,,,,,,,,,,,,,,,,,,,,,,,,,,,,,,,,,,,,,,,,,,,,,,,,,,,,,,,,,,,,,,,,,,,,,,,,,,,,,,,,,,,,,,,,,,,,,,,,,,,,,,,,,,,,
,,,,,,612e4052693c39ad35debf4f,62c53a6165f3d02f28d9d114,2022-07-06_09h34.38.780,Colour_Asymmetry_Pilot,2022.1.3,Win32,60.61340769,62c50e9c1127f2cd403a315f,0,39,39,109,1,threefour,,,,,,,,,,,,,,,,,,,,,,,,,,,,,,,,,,,,,,,,,,,,,,,,,,,,,,,,,,,,,,,,,,,,,,,,,,,,,,,,,,,,,,,,,,,,,,,,,,,,,,,,,,,,,,,,,,,,,,,,,,,,,,,,,,,,,,,,,,,,,,,,,,,,,,,,,,,,,,
,,,,,,612e4052693c39ad35debf4f,62c53a6165f3d02f28d9d114,2022-07-06_09h34.38.780,Colour_Asymmetry_Pilot,2022.1.3,Win32,60.61340769,62c50e9c1127f2cd403a315f,0,40,40,147,1,twofour,,,,,,,,,,,,,,,,,,,,,,,,,,,,,,,,,,,,,,,,,,,,,,,,,,,,,,,,,,,,,,,,,,,,,,,,,,,,,,,,,,,,,,,,,,,,,,,,,,,,,,,,,,,,,,,,,,,,,,,,,,,,,,,,,,,,,,,,,,,,,,,,,,,,,,,,,,,,,,
,,,,,,612e4052693c39ad35debf4f,62c53a6165f3d02f28d9d114,2022-07-06_09h34.38.780,Colour_Asymmetry_Pilot,2022.1.3,Win32,60.61340769,62c50e9c1127f2cd403a315f,0,41,41,145,1,onethree,,,,,,,,,,,,,,,,,,,,,,,,,,,,,,,,,,,,,,,,,,,,,,,,,,,,,,,,,,,,,,,,,,,,,,,,,,,,,,,,,,,,,,,,,,,,,,,,,,,,,,,,,,,,,,,,,,,,,,,,,,,,,,,,,,,,,,,,,,,,,,,,,,,,,,,,,,,,,,
,,,,,,612e4052693c39ad35debf4f,62c53a6165f3d02f28d9d114,2022-07-06_09h34.38.780,Colour_Asymmetry_Pilot,2022.1.3,Win32,60.61340769,62c50e9c1127f2cd403a315f,0,42,42,82,1,twoone,,,,,,,,,,,,,,,,,,,,,,,,,,,,,,,,,,,,,,,,,,,,,,,,,,,,,,,,,,,,,,,,,,,,,,,,,,,,,,,,,,,,,,,,,,,,,,,,,,,,,,,,,,,,,,,,,,,,,,,,,,,,,,,,,,,,,,,,,,,,,,,,,,,,,,,,,,,,,,
,,,,,,612e4052693c39ad35debf4f,62c53a6165f3d02f28d9d114,2022-07-06_09h34.38.780,Colour_Asymmetry_Pilot,2022.1.3,Win32,60.61340769,62c50e9c1127f2cd403a315f,0,43,43,121,1,onethree,,,,,,,,,,,,,,,,,,,,,,,,,,,,,,,,,,,,,,,,,,,,,,,,,,,,,,,,,,,,,,,,,,,,,,,,,,,,,,,,,,,,,,,,,,,,,,,,,,,,,,,,,,,,,,,,,,,,,,,,,,,,,,,,,,,,,,,,,,,,,,,,,,,,,,,,,,,,,,
,,,,,,612e4052693c39ad35debf4f,62c53a6165f3d02f28d9d114,2022-07-06_09h34.38.780,Colour_Asymmetry_Pilot,2022.1.3,Win32,60.61340769,62c50e9c1127f2cd403a315f,0,44,44,116,1,threeone,,,,,,,,,,,,,,,,,,,,,,,,,,,,,,,,,,,,,,,,,,,,,,,,,,,,,,,,,,,,,,,,,,,,,,,,,,,,,,,,,,,,,,,,,,,,,,,,,,,,,,,,,,,,,,,,,,,,,,,,,,,,,,,,,,,,,,,,,,,,,,,,,,,,,,,,,,,,,,
,,,,,,612e4052693c39ad35debf4f,62c53a6165f3d02f28d9d114,2022-07-06_09h34.38.780,Colour_Asymmetry_Pilot,2022.1.3,Win32,60.61340769,62c50e9c1127f2cd403a315f,0,45,45,61,1,threefour,,,,,,,,,,,,,,,,,,,,,,,,,,,,,,,,,,,,,,,,,,,,,,,,,,,,,,,,,,,,,,,,,,,,,,,,,,,,,,,,,,,,,,,,,,,,,,,,,,,,,,,,,,,,,,,,,,,,,,,,,,,,,,,,,,,,,,,,,,,,,,,,,,,,,,,,,,,,,,
,,,,,,612e4052693c39ad35debf4f,62c53a6165f3d02f28d9d114,2022-07-06_09h34.38.780,Colour_Asymmetry_Pilot,2022.1.3,Win32,60.61340769,62c50e9c1127f2cd403a315f,0,46,46,85,1,threefour,,,,,,,,,,,,,,,,,,,,,,,,,,,,,,,,,,,,,,,,,,,,,,,,,,,,,,,,,,,,,,,,,,,,,,,,,,,,,,,,,,,,,,,,,,,,,,,,,,,,,,,,,,,,,,,,,,,,,,,,,,,,,,,,,,,,,,,,,,,,,,,,,,,,,,,,,,,,,,
,,,,,,612e4052693c39ad35debf4f,62c53a6165f3d02f28d9d114,2022-07-06_09h34.38.780,Colour_Asymmetry_Pilot,2022.1.3,Win32,60.61340769,62c50e9c1127f2cd403a315f,0,47,47,70,1,fourtwo,,,,,,,,,,,,,,,,,,,,,,,,,,,,,,,,,,,,,,,,,,,,,,,,,,,,,,,,,,,,,,,,,,,,,,,,,,,,,,,,,,,,,,,,,,,,,,,,,,,,,,,,,,,,,,,,,,,,,,,,,,,,,,,,,,,,,,,,,,,,,,,,,,,,,,,,,,,,,,
,,,,,,612e4052693c39ad35debf4f,62c53a6165f3d02f28d9d114,2022-07-06_09h34.38.780,Colour_Asymmetry_Pilot,2022.1.3,Win32,60.61340769,62c50e9c1127f2cd403a315f,0,48,48,11,1,twofour,,,,,,,,,,,,,,,,,,,,,,,,,,,,,,,,,,,,,,,,,,,,,,,,,,,,,,,,,,,,,,,,,,,,,,,,,,,,,,,,,,,,,,,,,,,,,,,,,,,,,,,,,,,,,,,,,,,,,,,,,,,,,,,,,,,,,,,,,,,,,,,,,,,,,,,,,,,,,,
,,,,,,612e4052693c39ad35debf4f,62c53a6165f3d02f28d9d114,2022-07-06_09h34.38.780,Colour_Asymmetry_Pilot,2022.1.3,Win32,60.61340769,62c50e9c1127f2cd403a315f,0,49,49,91,1,twofour,,,,,,,,,,,,,,,,,,,,,,,,,,,,,,,,,,,,,,,,,,,,,,,,,,,,,,,,,,,,,,,,,,,,,,,,,,,,,,,,,,,,,,,,,,,,,,,,,,,,,,,,,,,,,,,,,,,,,,,,,,,,,,,,,,,,,,,,,,,,,,,,,,,,,,,,,,,,,,
,,,,,,612e4052693c39ad35debf4f,62c53a6165f3d02f28d9d114,2022-07-06_09h34.38.780,Colour_Asymmetry_Pilot,2022.1.3,Win32,60.61340769,62c50e9c1127f2cd403a315f,0,50,50,107,1,twofour,,,,,,,,,,,,,,,,,,,,,,,,,,,,,,,,,,,,,,,,,,,,,,,,,,,,,,,,,,,,,,,,,,,,,,,,,,,,,,,,,,,,,,,,,,,,,,,,,,,,,,,,,,,,,,,,,,,,,,,,,,,,,,,,,,,,,,,,,,,,,,,,,,,,,,,,,,,,,,
,,,,,,612e4052693c39ad35debf4f,62c53a6165f3d02f28d9d114,2022-07-06_09h34.38.780,Colour_Asymmetry_Pilot,2022.1.3,Win32,60.61340769,62c50e9c1127f2cd403a315f,0,51,51,152,1,onetwo,,,,,,,,,,,,,,,,,,,,,,,,,,,,,,,,,,,,,,,,,,,,,,,,,,,,,,,,,,,,,,,,,,,,,,,,,,,,,,,,,,,,,,,,,,,,,,,,,,,,,,,,,,,,,,,,,,,,,,,,,,,,,,,,,,,,,,,,,,,,,,,,,,,,,,,,,,,,,,
,,,,,,612e4052693c39ad35debf4f,62c53a6165f3d02f28d9d114,2022-07-06_09h34.38.780,Colour_Asymmetry_Pilot,2022.1.3,Win32,60.61340769,62c50e9c1127f2cd403a315f,0,52,52,67,1,twofour,,,,,,,,,,,,,,,,,,,,,,,,,,,,,,,,,,,,,,,,,,,,,,,,,,,,,,,,,,,,,,,,,,,,,,,,,,,,,,,,,,,,,,,,,,,,,,,,,,,,,,,,,,,,,,,,,,,,,,,,,,,,,,,,,,,,,,,,,,,,,,,,,,,,,,,,,,,,,,
,,,,,,612e4052693c39ad35debf4f,62c53a6165f3d02f28d9d114,2022-07-06_09h34.38.780,Colour_Asymmetry_Pilot,2022.1.3,Win32,60.61340769,62c50e9c1127f2cd403a315f,0,53,53,138,1,twoone,,,,,,,,,,,,,,,,,,,,,,,,,,,,,,,,,,,,,,,,,,,,,,,,,,,,,,,,,,,,,,,,,,,,,,,,,,,,,,,,,,,,,,,,,,,,,,,,,,,,,,,,,,,,,,,,,,,,,,,,,,,,,,,,,,,,,,,,,,,,,,,,,,,,,,,,,,,,,,
,,,,,,612e4052693c39ad35debf4f,62c53a6165f3d02f28d9d114,2022-07-06_09h34.38.780,Colour_Asymmetry_Pilot,2022.1.3,Win32,60.61340769,62c50e9c1127f2cd403a315f,0,54,54,18,1,twoone,,,,,,,,,,,,,,,,,,,,,,,,,,,,,,,,,,,,,,,,,,,,,,,,,,,,,,,,,,,,,,,,,,,,,,,,,,,,,,,,,,,,,,,,,,,,,,,,,,,,,,,,,,,,,,,,,,,,,,,,,,,,,,,,,,,,,,,,,,,,,,,,,,,,,,,,,,,,,,
,,,,,,612e4052693c39ad35debf4f,62c53a6165f3d02f28d9d114,2022-07-06_09h34.38.780,Colour_Asymmetry_Pilot,2022.1.3,Win32,60.61340769,62c50e9c1127f2cd403a315f,0,55,55,143,1,fourthree,,,,,,,,,,,,,,,,,,,,,,,,,,,,,,,,,,,,,,,,,,,,,,,,,,,,,,,,,,,,,,,,,,,,,,,,,,,,,,,,,,,,,,,,,,,,,,,,,,,,,,,,,,,,,,,,,,,,,,,,,,,,,,,,,,,,,,,,,,,,,,,,,,,,,,,,,,,,,,
,,,,,,612e4052693c39ad35debf4f,62c53a6165f3d02f28d9d114,2022-07-06_09h34.38.780,Colour_Asymmetry_Pilot,2022.1.3,Win32,60.61340769,62c50e9c1127f2cd403a315f,0,56,56,22,1,fourtwo,,,,,,,,,,,,,,,,,,,,,,,,,,,,,,,,,,,,,,,,,,,,,,,,,,,,,,,,,,,,,,,,,,,,,,,,,,,,,,,,,,,,,,,,,,,,,,,,,,,,,,,,,,,,,,,,,,,,,,,,,,,,,,,,,,,,,,,,,,,,,,,,,,,,,,,,,,,,,,
,,,,,,612e4052693c39ad35debf4f,62c53a6165f3d02f28d9d114,2022-07-06_09h34.38.780,Colour_Asymmetry_Pilot,2022.1.3,Win32,60.61340769,62c50e9c1127f2cd403a315f,0,57,57,44,1,threeone,,,,,,,,,,,,,,,,,,,,,,,,,,,,,,,,,,,,,,,,,,,,,,,,,,,,,,,,,,,,,,,,,,,,,,,,,,,,,,,,,,,,,,,,,,,,,,,,,,,,,,,,,,,,,,,,,,,,,,,,,,,,,,,,,,,,,,,,,,,,,,,,,,,,,,,,,,,,,,
,,,,,,612e4052693c39ad35debf4f,62c53a6165f3d02f28d9d114,2022-07-06_09h34.38.780,Colour_Asymmetry_Pilot,2022.1.3,Win32,60.61340769,62c50e9c1127f2cd403a315f,0,58,58,88,1,onetwo,,,,,,,,,,,,,,,,,,,,,,,,,,,,,,,,,,,,,,,,,,,,,,,,,,,,,,,,,,,,,,,,,,,,,,,,,,,,,,,,,,,,,,,,,,,,,,,,,,,,,,,,,,,,,,,,,,,,,,,,,,,,,,,,,,,,,,,,,,,,,,,,,,,,,,,,,,,,,,
,,,,,,612e4052693c39ad35debf4f,62c53a6165f3d02f28d9d114,2022-07-06_09h34.38.780,Colour_Asymmetry_Pilot,2022.1.3,Win32,60.61340769,62c50e9c1127f2cd403a315f,0,59,59,14,1,fourtwo,,,,,,,,,,,,,,,,,,,,,,,,,,,,,,,,,,,,,,,,,,,,,,,,,,,,,,,,,,,,,,,,,,,,,,,,,,,,,,,,,,,,,,,,,,,,,,,,,,,,,,,,,,,,,,,,,,,,,,,,,,,,,,,,,,,,,,,,,,,,,,,,,,,,,,,,,,,,,,
,,,,,,612e4052693c39ad35debf4f,62c53a6165f3d02f28d9d114,2022-07-06_09h34.38.780,Colour_Asymmetry_Pilot,2022.1.3,Win32,60.61340769,62c50e9c1127f2cd403a315f,0,60,60,31,1,fourthree,,,,,,,,,,,,,,,,,,,,,,,,,,,,,,,,,,,,,,,,,,,,,,,,,,,,,,,,,,,,,,,,,,,,,,,,,,,,,,,,,,,,,,,,,,,,,,,,,,,,,,,,,,,,,,,,,,,,,,,,,,,,,,,,,,,,,,,,,,,,,,,,,,,,,,,,,,,,,,
,,,,,,612e4052693c39ad35debf4f,62c53a6165f3d02f28d9d114,2022-07-06_09h34.38.780,Colour_Asymmetry_Pilot,2022.1.3,Win32,60.61340769,62c50e9c1127f2cd403a315f,0,61,61,8,1,onetwo,,,,,,,,,,,,,,,,,,,,,,,,,,,,,,,,,,,,,,,,,,,,,,,,,,,,,,,,,,,,,,,,,,,,,,,,,,,,,,,,,,,,,,,,,,,,,,,,,,,,,,,,,,,,,,,,,,,,,,,,,,,,,,,,,,,,,,,,,,,,,,,,,,,,,,,,,,,,,,
,,,,,,612e4052693c39ad35debf4f,62c53a6165f3d02f28d9d114,2022-07-06_09h34.38.780,Colour_Asymmetry_Pilot,2022.1.3,Win32,60.61340769,62c50e9c1127f2cd403a315f,0,62,62,16,1,onetwo,,,,,,,,,,,,,,,,,,,,,,,,,,,,,,,,,,,,,,,,,,,,,,,,,,,,,,,,,,,,,,,,,,,,,,,,,,,,,,,,,,,,,,,,,,,,,,,,,,,,,,,,,,,,,,,,,,,,,,,,,,,,,,,,,,,,,,,,,,,,,,,,,,,,,,,,,,,,,,
,,,,,,612e4052693c39ad35debf4f,62c53a6165f3d02f28d9d114,2022-07-06_09h34.38.780,Colour_Asymmetry_Pilot,2022.1.3,Win32,60.61340769,62c50e9c1127f2cd403a315f,0,63,63,21,1,threefour,,,,,,,,,,,,,,,,,,,,,,,,,,,,,,,,,,,,,,,,,,,,,,,,,,,,,,,,,,,,,,,,,,,,,,,,,,,,,,,,,,,,,,,,,,,,,,,,,,,,,,,,,,,,,,,,,,,,,,,,,,,,,,,,,,,,,,,,,,,,,,,,,,,,,,,,,,,,,,
,,,,,,612e4052693c39ad35debf4f,62c53a6165f3d02f28d9d114,2022-07-06_09h34.38.780,Colour_Asymmetry_Pilot,2022.1.3,Win32,60.61340769,62c50e9c1127f2cd403a315f,0,64,64,65,1,onethree,,,,,,,,,,,,,,,,,,,,,,,,,,,,,,,,,,,,,,,,,,,,,,,,,,,,,,,,,,,,,,,,,,,,,,,,,,,,,,,,,,,,,,,,,,,,,,,,,,,,,,,,,,,,,,,,,,,,,,,,,,,,,,,,,,,,,,,,,,,,,,,,,,,,,,,,,,,,,,
,,,,,,612e4052693c39ad35debf4f,62c53a6165f3d02f28d9d114,2022-07-06_09h34.38.780,Colour_Asymmetry_Pilot,2022.1.3,Win32,60.61340769,62c50e9c1127f2cd403a315f,0,65,65,150,1,fourtwo,,,,,,,,,,,,,,,,,,,,,,,,,,,,,,,,,,,,,,,,,,,,,,,,,,,,,,,,,,,,,,,,,,,,,,,,,,,,,,,,,,,,,,,,,,,,,,,,,,,,,,,,,,,,,,,,,,,,,,,,,,,,,,,,,,,,,,,,,,,,,,,,,,,,,,,,,,,,,,
,,,,,,612e4052693c39ad35debf4f,62c53a6165f3d02f28d9d114,2022-07-06_09h34.38.780,Colour_Asymmetry_Pilot,2022.1.3,Win32,60.61340769,62c50e9c1127f2cd403a315f,0,66,66,54,1,fourtwo,,,,,,,,,,,,,,,,,,,,,,,,,,,,,,,,,,,,,,,,,,,,,,,,,,,,,,,,,,,,,,,,,,,,,,,,,,,,,,,,,,,,,,,,,,,,,,,,,,,,,,,,,,,,,,,,,,,,,,,,,,,,,,,,,,,,,,,,,,,,,,,,,,,,,,,,,,,,,,
,,,,,,612e4052693c39ad35debf4f,62c53a6165f3d02f28d9d114,2022-07-06_09h34.38.780,Colour_Asymmetry_Pilot,2022.1.3,Win32,60.61340769,62c50e9c1127f2cd403a315f,0,67,67,96,1,onetwo,,,,,,,,,,,,,,,,,,,,,,,,,,,,,,,,,,,,,,,,,,,,,,,,,,,,,,,,,,,,,,,,,,,,,,,,,,,,,,,,,,,,,,,,,,,,,,,,,,,,,,,,,,,,,,,,,,,,,,,,,,,,,,,,,,,,,,,,,,,,,,,,,,,,,,,,,,,,,,
,,,,,,612e4052693c39ad35debf4f,62c53a6165f3d02f28d9d114,2022-07-06_09h34.38.780,Colour_Asymmetry_Pilot,2022.1.3,Win32,60.61340769,62c50e9c1127f2cd403a315f,0,68,68,156,1,threeone,,,,,,,,,,,,,,,,,,,,,,,,,,,,,,,,,,,,,,,,,,,,,,,,,,,,,,,,,,,,,,,,,,,,,,,,,,,,,,,,,,,,,,,,,,,,,,,,,,,,,,,,,,,,,,,,,,,,,,,,,,,,,,,,,,,,,,,,,,,,,,,,,,,,,,,,,,,,,,
,,,,,,612e4052693c39ad35debf4f,62c53a6165f3d02f28d9d114,2022-07-06_09h34.38.780,Colour_Asymmetry_Pilot,2022.1.3,Win32,60.61340769,62c50e9c1127f2cd403a315f,0,69,69,35,1,twofour,,,,,,,,,,,,,,,,,,,,,,,,,,,,,,,,,,,,,,,,,,,,,,,,,,,,,,,,,,,,,,,,,,,,,,,,,,,,,,,,,,,,,,,,,,,,,,,,,,,,,,,,,,,,,,,,,,,,,,,,,,,,,,,,,,,,,,,,,,,,,,,,,,,,,,,,,,,,,,
,,,,,,612e4052693c39ad35debf4f,62c53a6165f3d02f28d9d114,2022-07-06_09h34.38.780,Colour_Asymmetry_Pilot,2022.1.3,Win32,60.61340769,62c50e9c1127f2cd403a315f,0,70,70,134,1,fourtwo,,,,,,,,,,,,,,,,,,,,,,,,,,,,,,,,,,,,,,,,,,,,,,,,,,,,,,,,,,,,,,,,,,,,,,,,,,,,,,,,,,,,,,,,,,,,,,,,,,,,,,,,,,,,,,,,,,,,,,,,,,,,,,,,,,,,,,,,,,,,,,,,,,,,,,,,,,,,,,
,,,,,,612e4052693c39ad35debf4f,62c53a6165f3d02f28d9d114,2022-07-06_09h34.38.780,Colour_Asymmetry_Pilot,2022.1.3,Win32,60.61340769,62c50e9c1127f2cd403a315f,0,71,71,123,1,twofour,,,,,,,,,,,,,,,,,,,,,,,,,,,,,,,,,,,,,,,,,,,,,,,,,,,,,,,,,,,,,,,,,,,,,,,,,,,,,,,,,,,,,,,,,,,,,,,,,,,,,,,,,,,,,,,,,,,,,,,,,,,,,,,,,,,,,,,,,,,,,,,,,,,,,,,,,,,,,,
,,,,,,612e4052693c39ad35debf4f,62c53a6165f3d02f28d9d114,2022-07-06_09h34.38.780,Colour_Asymmetry_Pilot,2022.1.3,Win32,60.61340769,62c50e9c1127f2cd403a315f,0,72,72,159,1,fourthree,,,,,,,,,,,,,,,,,,,,,,,,,,,,,,,,,,,,,,,,,,,,,,,,,,,,,,,,,,,,,,,,,,,,,,,,,,,,,,,,,,,,,,,,,,,,,,,,,,,,,,,,,,,,,,,,,,,,,,,,,,,,,,,,,,,,,,,,,,,,,,,,,,,,,,,,,,,,,,
,,,,,,612e4052693c39ad35debf4f,62c53a6165f3d02f28d9d114,2022-07-06_09h34.38.780,Colour_Asymmetry_Pilot,2022.1.3,Win32,60.61340769,62c50e9c1127f2cd403a315f,0,73,73,120,1,onetwo,,,,,,,,,,,,,,,,,,,,,,,,,,,,,,,,,,,,,,,,,,,,,,,,,,,,,,,,,,,,,,,,,,,,,,,,,,,,,,,,,,,,,,,,,,,,,,,,,,,,,,,,,,,,,,,,,,,,,,,,,,,,,,,,,,,,,,,,,,,,,,,,,,,,,,,,,,,,,,
,,,,,,612e4052693c39ad35debf4f,62c53a6165f3d02f28d9d114,2022-07-06_09h34.38.780,Colour_Asymmetry_Pilot,2022.1.3,Win32,60.61340769,62c50e9c1127f2cd403a315f,0,74,74,49,1,onethree,,,,,,,,,,,,,,,,,,,,,,,,,,,,,,,,,,,,,,,,,,,,,,,,,,,,,,,,,,,,,,,,,,,,,,,,,,,,,,,,,,,,,,,,,,,,,,,,,,,,,,,,,,,,,,,,,,,,,,,,,,,,,,,,,,,,,,,,,,,,,,,,,,,,,,,,,,,,,,
,,,,,,612e4052693c39ad35debf4f,62c53a6165f3d02f28d9d114,2022-07-06_09h34.38.780,Colour_Asymmetry_Pilot,2022.1.3,Win32,60.61340769,62c50e9c1127f2cd403a315f,0,75,75,33,1,onethree,,,,,,,,,,,,,,,,,,,,,,,,,,,,,,,,,,,,,,,,,,,,,,,,,,,,,,,,,,,,,,,,,,,,,,,,,,,,,,,,,,,,,,,,,,,,,,,,,,,,,,,,,,,,,,,,,,,,,,,,,,,,,,,,,,,,,,,,,,,,,,,,,,,,,,,,,,,,,,
,,,,,,612e4052693c39ad35debf4f,62c53a6165f3d02f28d9d114,2022-07-06_09h34.38.780,Colour_Asymmetry_Pilot,2022.1.3,Win32,60.61340769,62c50e9c1127f2cd403a315f,0,76,76,89,1,onethree,,,,,,,,,,,,,,,,,,,,,,,,,,,,,,,,,,,,,,,,,,,,,,,,,,,,,,,,,,,,,,,,,,,,,,,,,,,,,,,,,,,,,,,,,,,,,,,,,,,,,,,,,,,,,,,,,,,,,,,,,,,,,,,,,,,,,,,,,,,,,,,,,,,,,,,,,,,,,,
,,,,,,612e4052693c39ad35debf4f,62c53a6165f3d02f28d9d114,2022-07-06_09h34.38.780,Colour_Asymmetry_Pilot,2022.1.3,Win32,60.61340769,62c50e9c1127f2cd403a315f,0,77,77,151,1,fourthree,,,,,,,,,,,,,,,,,,,,,,,,,,,,,,,,,,,,,,,,,,,,,,,,,,,,,,,,,,,,,,,,,,,,,,,,,,,,,,,,,,,,,,,,,,,,,,,,,,,,,,,,,,,,,,,,,,,,,,,,,,,,,,,,,,,,,,,,,,,,,,,,,,,,,,,,,,,,,,
,,,,,,612e4052693c39ad35debf4f,62c53a6165f3d02f28d9d114,2022-07-06_09h34.38.780,Colour_Asymmetry_Pilot,2022.1.3,Win32,60.61340769,62c50e9c1127f2cd403a315f,0,78,78,72,1,onetwo,,,,,,,,,,,,,,,,,,,,,,,,,,,,,,,,,,,,,,,,,,,,,,,,,,,,,,,,,,,,,,,,,,,,,,,,,,,,,,,,,,,,,,,,,,,,,,,,,,,,,,,,,,,,,,,,,,,,,,,,,,,,,,,,,,,,,,,,,,,,,,,,,,,,,,,,,,,,,,
,,,,,,612e4052693c39ad35debf4f,62c53a6165f3d02f28d9d114,2022-07-06_09h34.38.780,Colour_Asymmetry_Pilot,2022.1.3,Win32,60.61340769,62c50e9c1127f2cd403a315f,0,79,79,154,1,twoone,,,,,,,,,,,,,,,,,,,,,,,,,,,,,,,,,,,,,,,,,,,,,,,,,,,,,,,,,,,,,,,,,,,,,,,,,,,,,,,,,,,,,,,,,,,,,,,,,,,,,,,,,,,,,,,,,,,,,,,,,,,,,,,,,,,,,,,,,,,,,,,,,,,,,,,,,,,,,,
,,,,,,612e4052693c39ad35debf4f,62c53a6165f3d02f28d9d114,2022-07-06_09h34.38.780,Colour_Asymmetry_Pilot,2022.1.3,Win32,60.61340769,62c50e9c1127f2cd403a315f,0,80,80,24,1,onetwo,,,,,,,,,,,,,,,,,,,,,,,,,,,,,,,,,,,,,,,,,,,,,,,,,,,,,,,,,,,,,,,,,,,,,,,,,,,,,,,,,,,,,,,,,,,,,,,,,,,,,,,,,,,,,,,,,,,,,,,,,,,,,,,,,,,,,,,,,,,,,,,,,,,,,,,,,,,,,,
,,,,,,612e4052693c39ad35debf4f,62c53a6165f3d02f28d9d114,2022-07-06_09h34.38.780,Colour_Asymmetry_Pilot,2022.1.3,Win32,60.61340769,62c50e9c1127f2cd403a315f,0,81,81,122,1,twoone,,,,,,,,,,,,,,,,,,,,,,,,,,,,,,,,,,,,,,,,,,,,,,,,,,,,,,,,,,,,,,,,,,,,,,,,,,,,,,,,,,,,,,,,,,,,,,,,,,,,,,,,,,,,,,,,,,,,,,,,,,,,,,,,,,,,,,,,,,,,,,,,,,,,,,,,,,,,,,
,,,,,,612e4052693c39ad35debf4f,62c53a6165f3d02f28d9d114,2022-07-06_09h34.38.780,Colour_Asymmetry_Pilot,2022.1.3,Win32,60.61340769,62c50e9c1127f2cd403a315f,0,82,82,90,1,twoone,,,,,,,,,,,,,,,,,,,,,,,,,,,,,,,,,,,,,,,,,,,,,,,,,,,,,,,,,,,,,,,,,,,,,,,,,,,,,,,,,,,,,,,,,,,,,,,,,,,,,,,,,,,,,,,,,,,,,,,,,,,,,,,,,,,,,,,,,,,,,,,,,,,,,,,,,,,,,,
,,,,,,612e4052693c39ad35debf4f,62c53a6165f3d02f28d9d114,2022-07-06_09h34.38.780,Colour_Asymmetry_Pilot,2022.1.3,Win32,60.61340769,62c50e9c1127f2cd403a315f,0,83,83,155,1,twofour,,,,,,,,,,,,,,,,,,,,,,,,,,,,,,,,,,,,,,,,,,,,,,,,,,,,,,,,,,,,,,,,,,,,,,,,,,,,,,,,,,,,,,,,,,,,,,,,,,,,,,,,,,,,,,,,,,,,,,,,,,,,,,,,,,,,,,,,,,,,,,,,,,,,,,,,,,,,,,
,,,,,,612e4052693c39ad35debf4f,62c53a6165f3d02f28d9d114,2022-07-06_09h34.38.780,Colour_Asymmetry_Pilot,2022.1.3,Win32,60.61340769,62c50e9c1127f2cd403a315f,0,84,84,29,1,threefour,,,,,,,,,,,,,,,,,,,,,,,,,,,,,,,,,,,,,,,,,,,,,,,,,,,,,,,,,,,,,,,,,,,,,,,,,,,,,,,,,,,,,,,,,,,,,,,,,,,,,,,,,,,,,,,,,,,,,,,,,,,,,,,,,,,,,,,,,,,,,,,,,,,,,,,,,,,,,,
,,,,,,612e4052693c39ad35debf4f,62c53a6165f3d02f28d9d114,2022-07-06_09h34.38.780,Colour_Asymmetry_Pilot,2022.1.3,Win32,60.61340769,62c50e9c1127f2cd403a315f,0,85,85,64,1,onetwo,,,,,,,,,,,,,,,,,,,,,,,,,,,,,,,,,,,,,,,,,,,,,,,,,,,,,,,,,,,,,,,,,,,,,,,,,,,,,,,,,,,,,,,,,,,,,,,,,,,,,,,,,,,,,,,,,,,,,,,,,,,,,,,,,,,,,,,,,,,,,,,,,,,,,,,,,,,,,,
,,,,,,612e4052693c39ad35debf4f,62c53a6165f3d02f28d9d114,2022-07-06_09h34.38.780,Colour_Asymmetry_Pilot,2022.1.3,Win32,60.61340769,62c50e9c1127f2cd403a315f,0,86,86,95,1,fourthree,,,,,,,,,,,,,,,,,,,,,,,,,,,,,,,,,,,,,,,,,,,,,,,,,,,,,,,,,,,,,,,,,,,,,,,,,,,,,,,,,,,,,,,,,,,,,,,,,,,,,,,,,,,,,,,,,,,,,,,,,,,,,,,,,,,,,,,,,,,,,,,,,,,,,,,,,,,,,,
,,,,,,612e4052693c39ad35debf4f,62c53a6165f3d02f28d9d114,2022-07-06_09h34.38.780,Colour_Asymmetry_Pilot,2022.1.3,Win32,60.61340769,62c50e9c1127f2cd403a315f,0,87,87,106,1,twoone,,,,,,,,,,,,,,,,,,,,,,,,,,,,,,,,,,,,,,,,,,,,,,,,,,,,,,,,,,,,,,,,,,,,,,,,,,,,,,,,,,,,,,,,,,,,,,,,,,,,,,,,,,,,,,,,,,,,,,,,,,,,,,,,,,,,,,,,,,,,,,,,,,,,,,,,,,,,,,
,,,,,,612e4052693c39ad35debf4f,62c53a6165f3d02f28d9d114,2022-07-06_09h34.38.780,Colour_Asymmetry_Pilot,2022.1.3,Win32,60.61340769,62c50e9c1127f2cd403a315f,0,88,88,41,1,onethree,,,,,,,,,,,,,,,,,,,,,,,,,,,,,,,,,,,,,,,,,,,,,,,,,,,,,,,,,,,,,,,,,,,,,,,,,,,,,,,,,,,,,,,,,,,,,,,,,,,,,,,,,,,,,,,,,,,,,,,,,,,,,,,,,,,,,,,,,,,,,,,,,,,,,,,,,,,,,,
,,,,,,612e4052693c39ad35debf4f,62c53a6165f3d02f28d9d114,2022-07-06_09h34.38.780,Colour_Asymmetry_Pilot,2022.1.3,Win32,60.61340769,62c50e9c1127f2cd403a315f,0,89,89,160,1,onetwo,,,,,,,,,,,,,,,,,,,,,,,,,,,,,,,,,,,,,,,,,,,,,,,,,,,,,,,,,,,,,,,,,,,,,,,,,,,,,,,,,,,,,,,,,,,,,,,,,,,,,,,,,,,,,,,,,,,,,,,,,,,,,,,,,,,,,,,,,,,,,,,,,,,,,,,,,,,,,,
,,,,,,612e4052693c39ad35debf4f,62c53a6165f3d02f28d9d114,2022-07-06_09h34.38.780,Colour_Asymmetry_Pilot,2022.1.3,Win32,60.61340769,62c50e9c1127f2cd403a315f,0,90,90,50,1,twoone,,,,,,,,,,,,,,,,,,,,,,,,,,,,,,,,,,,,,,,,,,,,,,,,,,,,,,,,,,,,,,,,,,,,,,,,,,,,,,,,,,,,,,,,,,,,,,,,,,,,,,,,,,,,,,,,,,,,,,,,,,,,,,,,,,,,,,,,,,,,,,,,,,,,,,,,,,,,,,
,,,,,,612e4052693c39ad35debf4f,62c53a6165f3d02f28d9d114,2022-07-06_09h34.38.780,Colour_Asymmetry_Pilot,2022.1.3,Win32,60.61340769,62c50e9c1127f2cd403a315f,0,91,91,153,1,onethree,,,,,,,,,,,,,,,,,,,,,,,,,,,,,,,,,,,,,,,,,,,,,,,,,,,,,,,,,,,,,,,,,,,,,,,,,,,,,,,,,,,,,,,,,,,,,,,,,,,,,,,,,,,,,,,,,,,,,,,,,,,,,,,,,,,,,,,,,,,,,,,,,,,,,,,,,,,,,,
,,,,,,612e4052693c39ad35debf4f,62c53a6165f3d02f28d9d114,2022-07-06_09h34.38.780,Colour_Asymmetry_Pilot,2022.1.3,Win32,60.61340769,62c50e9c1127f2cd403a315f,0,92,92,69,1,threefour,,,,,,,,,,,,,,,,,,,,,,,,,,,,,,,,,,,,,,,,,,,,,,,,,,,,,,,,,,,,,,,,,,,,,,,,,,,,,,,,,,,,,,,,,,,,,,,,,,,,,,,,,,,,,,,,,,,,,,,,,,,,,,,,,,,,,,,,,,,,,,,,,,,,,,,,,,,,,,
,,,,,,612e4052693c39ad35debf4f,62c53a6165f3d02f28d9d114,2022-07-06_09h34.38.780,Colour_Asymmetry_Pilot,2022.1.3,Win32,60.61340769,62c50e9c1127f2cd403a315f,0,93,93,149,1,threefour,,,,,,,,,,,,,,,,,,,,,,,,,,,,,,,,,,,,,,,,,,,,,,,,,,,,,,,,,,,,,,,,,,,,,,,,,,,,,,,,,,,,,,,,,,,,,,,,,,,,,,,,,,,,,,,,,,,,,,,,,,,,,,,,,,,,,,,,,,,,,,,,,,,,,,,,,,,,,,
,,,,,,612e4052693c39ad35debf4f,62c53a6165f3d02f28d9d114,2022-07-06_09h34.38.780,Colour_Asymmetry_Pilot,2022.1.3,Win32,60.61340769,62c50e9c1127f2cd403a315f,0,94,94,63,1,fourthree,,,,,,,,,,,,,,,,,,,,,,,,,,,,,,,,,,,,,,,,,,,,,,,,,,,,,,,,,,,,,,,,,,,,,,,,,,,,,,,,,,,,,,,,,,,,,,,,,,,,,,,,,,,,,,,,,,,,,,,,,,,,,,,,,,,,,,,,,,,,,,,,,,,,,,,,,,,,,,
,,,,,,612e4052693c39ad35debf4f,62c53a6165f3d02f28d9d114,2022-07-06_09h34.38.780,Colour_Asymmetry_Pilot,2022.1.3,Win32,60.61340769,62c50e9c1127f2cd403a315f,0,95,95,40,1,onetwo,,,,,,,,,,,,,,,,,,,,,,,,,,,,,,,,,,,,,,,,,,,,,,,,,,,,,,,,,,,,,,,,,,,,,,,,,,,,,,,,,,,,,,,,,,,,,,,,,,,,,,,,,,,,,,,,,,,,,,,,,,,,,,,,,,,,,,,,,,,,,,,,,,,,,,,,,,,,,,
,,,,,,612e4052693c39ad35debf4f,62c53a6165f3d02f28d9d114,2022-07-06_09h34.38.780,Colour_Asymmetry_Pilot,2022.1.3,Win32,60.61340769,62c50e9c1127f2cd403a315f,0,96,96,94,1,fourtwo,,,,,,,,,,,,,,,,,,,,,,,,,,,,,,,,,,,,,,,,,,,,,,,,,,,,,,,,,,,,,,,,,,,,,,,,,,,,,,,,,,,,,,,,,,,,,,,,,,,,,,,,,,,,,,,,,,,,,,,,,,,,,,,,,,,,,,,,,,,,,,,,,,,,,,,,,,,,,,
,,,,,,612e4052693c39ad35debf4f,62c53a6165f3d02f28d9d114,2022-07-06_09h34.38.780,Colour_Asymmetry_Pilot,2022.1.3,Win32,60.61340769,62c50e9c1127f2cd403a315f,0,97,97,118,1,fourtwo,,,,,,,,,,,,,,,,,,,,,,,,,,,,,,,,,,,,,,,,,,,,,,,,,,,,,,,,,,,,,,,,,,,,,,,,,,,,,,,,,,,,,,,,,,,,,,,,,,,,,,,,,,,,,,,,,,,,,,,,,,,,,,,,,,,,,,,,,,,,,,,,,,,,,,,,,,,,,,
,,,,,,612e4052693c39ad35debf4f,62c53a6165f3d02f28d9d114,2022-07-06_09h34.38.780,Colour_Asymmetry_Pilot,2022.1.3,Win32,60.61340769,62c50e9c1127f2cd403a315f,0,98,98,131,1,twofour,,,,,,,,,,,,,,,,,,,,,,,,,,,,,,,,,,,,,,,,,,,,,,,,,,,,,,,,,,,,,,,,,,,,,,,,,,,,,,,,,,,,,,,,,,,,,,,,,,,,,,,,,,,,,,,,,,,,,,,,,,,,,,,,,,,,,,,,,,,,,,,,,,,,,,,,,,,,,,
,,,,,,612e4052693c39ad35debf4f,62c53a6165f3d02f28d9d114,2022-07-06_09h34.38.780,Colour_Asymmetry_Pilot,2022.1.3,Win32,60.61340769,62c50e9c1127f2cd403a315f,0,99,99,38,1,fourtwo,,,,,,,,,,,,,,,,,,,,,,,,,,,,,,,,,,,,,,,,,,,,,,,,,,,,,,,,,,,,,,,,,,,,,,,,,,,,,,,,,,,,,,,,,,,,,,,,,,,,,,,,,,,,,,,,,,,,,,,,,,,,,,,,,,,,,,,,,,,,,,,,,,,,,,,,,,,,,,
,,,,,,612e4052693c39ad35debf4f,62c53a6165f3d02f28d9d114,2022-07-06_09h34.38.780,Colour_Asymmetry_Pilot,2022.1.3,Win32,60.61340769,62c50e9c1127f2cd403a315f,0,100,100,34,1,twoone,,,,,,,,,,,,,,,,,,,,,,,,,,,,,,,,,,,,,,,,,,,,,,,,,,,,,,,,,,,,,,,,,,,,,,,,,,,,,,,,,,,,,,,,,,,,,,,,,,,,,,,,,,,,,,,,,,,,,,,,,,,,,,,,,,,,,,,,,,,,,,,,,,,,,,,,,,,,,,
,,,,,,612e4052693c39ad35debf4f,62c53a6165f3d02f28d9d114,2022-07-06_09h34.38.780,Colour_Asymmetry_Pilot,2022.1.3,Win32,60.61340769,62c50e9c1127f2cd403a315f,0,101,101,62,1,fourtwo,,,,,,,,,,,,,,,,,,,,,,,,,,,,,,,,,,,,,,,,,,,,,,,,,,,,,,,,,,,,,,,,,,,,,,,,,,,,,,,,,,,,,,,,,,,,,,,,,,,,,,,,,,,,,,,,,,,,,,,,,,,,,,,,,,,,,,,,,,,,,,,,,,,,,,,,,,,,,,
,,,,,,612e4052693c39ad35debf4f,62c53a6165f3d02f28d9d114,2022-07-06_09h34.38.780,Colour_Asymmetry_Pilot,2022.1.3,Win32,60.61340769,62c50e9c1127f2cd403a315f,0,102,102,51,1,twofour,,,,,,,,,,,,,,,,,,,,,,,,,,,,,,,,,,,,,,,,,,,,,,,,,,,,,,,,,,,,,,,,,,,,,,,,,,,,,,,,,,,,,,,,,,,,,,,,,,,,,,,,,,,,,,,,,,,,,,,,,,,,,,,,,,,,,,,,,,,,,,,,,,,,,,,,,,,,,,
,,,,,,612e4052693c39ad35debf4f,62c53a6165f3d02f28d9d114,2022-07-06_09h34.38.780,Colour_Asymmetry_Pilot,2022.1.3,Win32,60.61340769,62c50e9c1127f2cd403a315f,0,103,103,137,1,onethree,,,,,,,,,,,,,,,,,,,,,,,,,,,,,,,,,,,,,,,,,,,,,,,,,,,,,,,,,,,,,,,,,,,,,,,,,,,,,,,,,,,,,,,,,,,,,,,,,,,,,,,,,,,,,,,,,,,,,,,,,,,,,,,,,,,,,,,,,,,,,,,,,,,,,,,,,,,,,,
,,,,,,612e4052693c39ad35debf4f,62c53a6165f3d02f28d9d114,2022-07-06_09h34.38.780,Colour_Asymmetry_Pilot,2022.1.3,Win32,60.61340769,62c50e9c1127f2cd403a315f,0,104,104,3,1,twofour,,,,,,,,,,,,,,,,,,,,,,,,,,,,,,,,,,,,,,,,,,,,,,,,,,,,,,,,,,,,,,,,,,,,,,,,,,,,,,,,,,,,,,,,,,,,,,,,,,,,,,,,,,,,,,,,,,,,,,,,,,,,,,,,,,,,,,,,,,,,,,,,,,,,,,,,,,,,,,
,,,,,,612e4052693c39ad35debf4f,62c53a6165f3d02f28d9d114,2022-07-06_09h34.38.780,Colour_Asymmetry_Pilot,2022.1.3,Win32,60.61340769,62c50e9c1127f2cd403a315f,0,105,105,110,1,fourtwo,,,,,,,,,,,,,,,,,,,,,,,,,,,,,,,,,,,,,,,,,,,,,,,,,,,,,,,,,,,,,,,,,,,,,,,,,,,,,,,,,,,,,,,,,,,,,,,,,,,,,,,,,,,,,,,,,,,,,,,,,,,,,,,,,,,,,,,,,,,,,,,,,,,,,,,,,,,,,,
,,,,,,612e4052693c39ad35debf4f,62c53a6165f3d02f28d9d114,2022-07-06_09h34.38.780,Colour_Asymmetry_Pilot,2022.1.3,Win32,60.61340769,62c50e9c1127f2cd403a315f,0,106,106,77,1,threefour,,,,,,,,,,,,,,,,,,,,,,,,,,,,,,,,,,,,,,,,,,,,,,,,,,,,,,,,,,,,,,,,,,,,,,,,,,,,,,,,,,,,,,,,,,,,,,,,,,,,,,,,,,,,,,,,,,,,,,,,,,,,,,,,,,,,,,,,,,,,,,,,,,,,,,,,,,,,,,
,,,,,,612e4052693c39ad35debf4f,62c53a6165f3d02f28d9d114,2022-07-06_09h34.38.780,Colour_Asymmetry_Pilot,2022.1.3,Win32,60.61340769,62c50e9c1127f2cd403a315f,0,107,107,1,1,onethree,,,,,,,,,,,,,,,,,,,,,,,,,,,,,,,,,,,,,,,,,,,,,,,,,,,,,,,,,,,,,,,,,,,,,,,,,,,,,,,,,,,,,,,,,,,,,,,,,,,,,,,,,,,,,,,,,,,,,,,,,,,,,,,,,,,,,,,,,,,,,,,,,,,,,,,,,,,,,,
,,,,,,612e4052693c39ad35debf4f,62c53a6165f3d02f28d9d114,2022-07-06_09h34.38.780,Colour_Asymmetry_Pilot,2022.1.3,Win32,60.61340769,62c50e9c1127f2cd403a315f,0,108,108,97,1,onethree,,,,,,,,,,,,,,,,,,,,,,,,,,,,,,,,,,,,,,,,,,,,,,,,,,,,,,,,,,,,,,,,,,,,,,,,,,,,,,,,,,,,,,,,,,,,,,,,,,,,,,,,,,,,,,,,,,,,,,,,,,,,,,,,,,,,,,,,,,,,,,,,,,,,,,,,,,,,,,
,,,,,,612e4052693c39ad35debf4f,62c53a6165f3d02f28d9d114,2022-07-06_09h34.38.780,Colour_Asymmetry_Pilot,2022.1.3,Win32,60.61340769,62c50e9c1127f2cd403a315f,0,109,109,47,1,fourthree,,,,,,,,,,,,,,,,,,,,,,,,,,,,,,,,,,,,,,,,,,,,,,,,,,,,,,,,,,,,,,,,,,,,,,,,,,,,,,,,,,,,,,,,,,,,,,,,,,,,,,,,,,,,,,,,,,,,,,,,,,,,,,,,,,,,,,,,,,,,,,,,,,,,,,,,,,,,,,
,,,,,,612e4052693c39ad35debf4f,62c53a6165f3d02f28d9d114,2022-07-06_09h34.38.780,Colour_Asymmetry_Pilot,2022.1.3,Win32,60.61340769,62c50e9c1127f2cd403a315f,0,110,110,6,1,fourtwo,,,,,,,,,,,,,,,,,,,,,,,,,,,,,,,,,,,,,,,,,,,,,,,,,,,,,,,,,,,,,,,,,,,,,,,,,,,,,,,,,,,,,,,,,,,,,,,,,,,,,,,,,,,,,,,,,,,,,,,,,,,,,,,,,,,,,,,,,,,,,,,,,,,,,,,,,,,,,,
,,,,,,612e4052693c39ad35debf4f,62c53a6165f3d02f28d9d114,2022-07-06_09h34.38.780,Colour_Asymmetry_Pilot,2022.1.3,Win32,60.61340769,62c50e9c1127f2cd403a315f,0,111,111,30,1,fourtwo,,,,,,,,,,,,,,,,,,,,,,,,,,,,,,,,,,,,,,,,,,,,,,,,,,,,,,,,,,,,,,,,,,,,,,,,,,,,,,,,,,,,,,,,,,,,,,,,,,,,,,,,,,,,,,,,,,,,,,,,,,,,,,,,,,,,,,,,,,,,,,,,,,,,,,,,,,,,,,
,,,,,,612e4052693c39ad35debf4f,62c53a6165f3d02f28d9d114,2022-07-06_09h34.38.780,Colour_Asymmetry_Pilot,2022.1.3,Win32,60.61340769,62c50e9c1127f2cd403a315f,0,112,112,19,1,twofour,,,,,,,,,,,,,,,,,,,,,,,,,,,,,,,,,,,,,,,,,,,,,,,,,,,,,,,,,,,,,,,,,,,,,,,,,,,,,,,,,,,,,,,,,,,,,,,,,,,,,,,,,,,,,,,,,,,,,,,,,,,,,,,,,,,,,,,,,,,,,,,,,,,,,,,,,,,,,,
,,,,,,612e4052693c39ad35debf4f,62c53a6165f3d02f28d9d114,2022-07-06_09h34.38.780,Colour_Asymmetry_Pilot,2022.1.3,Win32,60.61340769,62c50e9c1127f2cd403a315f,0,113,113,80,1,onetwo,,,,,,,,,,,,,,,,,,,,,,,,,,,,,,,,,,,,,,,,,,,,,,,,,,,,,,,,,,,,,,,,,,,,,,,,,,,,,,,,,,,,,,,,,,,,,,,,,,,,,,,,,,,,,,,,,,,,,,,,,,,,,,,,,,,,,,,,,,,,,,,,,,,,,,,,,,,,,,
,,,,,,612e4052693c39ad35debf4f,62c53a6165f3d02f28d9d114,2022-07-06_09h34.38.780,Colour_Asymmetry_Pilot,2022.1.3,Win32,60.61340769,62c50e9c1127f2cd403a315f,0,114,114,43,1,twofour,,,,,,,,,,,,,,,,,,,,,,,,,,,,,,,,,,,,,,,,,,,,,,,,,,,,,,,,,,,,,,,,,,,,,,,,,,,,,,,,,,,,,,,,,,,,,,,,,,,,,,,,,,,,,,,,,,,,,,,,,,,,,,,,,,,,,,,,,,,,,,,,,,,,,,,,,,,,,,
,,,,,,612e4052693c39ad35debf4f,62c53a6165f3d02f28d9d114,2022-07-06_09h34.38.780,Colour_Asymmetry_Pilot,2022.1.3,Win32,60.61340769,62c50e9c1127f2cd403a315f,0,115,115,7,1,fourthree,,,,,,,,,,,,,,,,,,,,,,,,,,,,,,,,,,,,,,,,,,,,,,,,,,,,,,,,,,,,,,,,,,,,,,,,,,,,,,,,,,,,,,,,,,,,,,,,,,,,,,,,,,,,,,,,,,,,,,,,,,,,,,,,,,,,,,,,,,,,,,,,,,,,,,,,,,,,,,
,,,,,,612e4052693c39ad35debf4f,62c53a6165f3d02f28d9d114,2022-07-06_09h34.38.780,Colour_Asymmetry_Pilot,2022.1.3,Win32,60.61340769,62c50e9c1127f2cd403a315f,0,116,116,119,1,fourthree,,,,,,,,,,,,,,,,,,,,,,,,,,,,,,,,,,,,,,,,,,,,,,,,,,,,,,,,,,,,,,,,,,,,,,,,,,,,,,,,,,,,,,,,,,,,,,,,,,,,,,,,,,,,,,,,,,,,,,,,,,,,,,,,,,,,,,,,,,,,,,,,,,,,,,,,,,,,,,
,,,,,,612e4052693c39ad35debf4f,62c53a6165f3d02f28d9d114,2022-07-06_09h34.38.780,Colour_Asymmetry_Pilot,2022.1.3,Win32,60.61340769,62c50e9c1127f2cd403a315f,0,117,117,58,1,twoone,,,,,,,,,,,,,,,,,,,,,,,,,,,,,,,,,,,,,,,,,,,,,,,,,,,,,,,,,,,,,,,,,,,,,,,,,,,,,,,,,,,,,,,,,,,,,,,,,,,,,,,,,,,,,,,,,,,,,,,,,,,,,,,,,,,,,,,,,,,,,,,,,,,,,,,,,,,,,,
,,,,,,612e4052693c39ad35debf4f,62c53a6165f3d02f28d9d114,2022-07-06_09h34.38.780,Colour_Asymmetry_Pilot,2022.1.3,Win32,60.61340769,62c50e9c1127f2cd403a315f,0,118,118,5,1,threefour,,,,,,,,,,,,,,,,,,,,,,,,,,,,,,,,,,,,,,,,,,,,,,,,,,,,,,,,,,,,,,,,,,,,,,,,,,,,,,,,,,,,,,,,,,,,,,,,,,,,,,,,,,,,,,,,,,,,,,,,,,,,,,,,,,,,,,,,,,,,,,,,,,,,,,,,,,,,,,
,,,,,,612e4052693c39ad35debf4f,62c53a6165f3d02f28d9d114,2022-07-06_09h34.38.780,Colour_Asymmetry_Pilot,2022.1.3,Win32,60.61340769,62c50e9c1127f2cd403a315f,0,119,119,59,1,twofour,,,,,,,,,,,,,,,,,,,,,,,,,,,,,,,,,,,,,,,,,,,,,,,,,,,,,,,,,,,,,,,,,,,,,,,,,,,,,,,,,,,,,,,,,,,,,,,,,,,,,,,,,,,,,,,,,,,,,,,,,,,,,,,,,,,,,,,,,,,,,,,,,,,,,,,,,,,,,,
,,,,,,612e4052693c39ad35debf4f,62c53a6165f3d02f28d9d114,2022-07-06_09h34.38.780,Colour_Asymmetry_Pilot,2022.1.3,Win32,60.61340769,62c50e9c1127f2cd403a315f,0,120,120,117,1,threefour,,,,,,,,,,,,,,,,,,,,,,,,,,,,,,,,,,,,,,,,,,,,,,,,,,,,,,,,,,,,,,,,,,,,,,,,,,,,,,,,,,,,,,,,,,,,,,,,,,,,,,,,,,,,,,,,,,,,,,,,,,,,,,,,,,,,,,,,,,,,,,,,,,,,,,,,,,,,,,
,,,,,,612e4052693c39ad35debf4f,62c53a6165f3d02f28d9d114,2022-07-06_09h34.38.780,Colour_Asymmetry_Pilot,2022.1.3,Win32,60.61340769,62c50e9c1127f2cd403a315f,0,121,121,12,1,threeone,,,,,,,,,,,,,,,,,,,,,,,,,,,,,,,,,,,,,,,,,,,,,,,,,,,,,,,,,,,,,,,,,,,,,,,,,,,,,,,,,,,,,,,,,,,,,,,,,,,,,,,,,,,,,,,,,,,,,,,,,,,,,,,,,,,,,,,,,,,,,,,,,,,,,,,,,,,,,,
,,,,,,612e4052693c39ad35debf4f,62c53a6165f3d02f28d9d114,2022-07-06_09h34.38.780,Colour_Asymmetry_Pilot,2022.1.3,Win32,60.61340769,62c50e9c1127f2cd403a315f,0,122,122,129,1,onethree,,,,,,,,,,,,,,,,,,,,,,,,,,,,,,,,,,,,,,,,,,,,,,,,,,,,,,,,,,,,,,,,,,,,,,,,,,,,,,,,,,,,,,,,,,,,,,,,,,,,,,,,,,,,,,,,,,,,,,,,,,,,,,,,,,,,,,,,,,,,,,,,,,,,,,,,,,,,,,
,,,,,,612e4052693c39ad35debf4f,62c53a6165f3d02f28d9d114,2022-07-06_09h34.38.780,Colour_Asymmetry_Pilot,2022.1.3,Win32,60.61340769,62c50e9c1127f2cd403a315f,0,123,123,86,1,fourtwo,,,,,,,,,,,,,,,,,,,,,,,,,,,,,,,,,,,,,,,,,,,,,,,,,,,,,,,,,,,,,,,,,,,,,,,,,,,,,,,,,,,,,,,,,,,,,,,,,,,,,,,,,,,,,,,,,,,,,,,,,,,,,,,,,,,,,,,,,,,,,,,,,,,,,,,,,,,,,,
,,,,,,612e4052693c39ad35debf4f,62c53a6165f3d02f28d9d114,2022-07-06_09h34.38.780,Colour_Asymmetry_Pilot,2022.1.3,Win32,60.61340769,62c50e9c1127f2cd403a315f,0,124,124,76,1,threeone,,,,,,,,,,,,,,,,,,,,,,,,,,,,,,,,,,,,,,,,,,,,,,,,,,,,,,,,,,,,,,,,,,,,,,,,,,,,,,,,,,,,,,,,,,,,,,,,,,,,,,,,,,,,,,,,,,,,,,,,,,,,,,,,,,,,,,,,,,,,,,,,,,,,,,,,,,,,,,
,,,,,,612e4052693c39ad35debf4f,62c53a6165f3d02f28d9d114,2022-07-06_09h34.38.780,Colour_Asymmetry_Pilot,2022.1.3,Win32,60.61340769,62c50e9c1127f2cd403a315f,0,125,125,37,1,threefour,,,,,,,,,,,,,,,,,,,,,,,,,,,,,,,,,,,,,,,,,,,,,,,,,,,,,,,,,,,,,,,,,,,,,,,,,,,,,,,,,,,,,,,,,,,,,,,,,,,,,,,,,,,,,,,,,,,,,,,,,,,,,,,,,,,,,,,,,,,,,,,,,,,,,,,,,,,,,,
,,,,,,612e4052693c39ad35debf4f,62c53a6165f3d02f28d9d114,2022-07-06_09h34.38.780,Colour_Asymmetry_Pilot,2022.1.3,Win32,60.61340769,62c50e9c1127f2cd403a315f,0,126,126,25,1,onethree,,,,,,,,,,,,,,,,,,,,,,,,,,,,,,,,,,,,,,,,,,,,,,,,,,,,,,,,,,,,,,,,,,,,,,,,,,,,,,,,,,,,,,,,,,,,,,,,,,,,,,,,,,,,,,,,,,,,,,,,,,,,,,,,,,,,,,,,,,,,,,,,,,,,,,,,,,,,,,
,,,,,,612e4052693c39ad35debf4f,62c53a6165f3d02f28d9d114,2022-07-06_09h34.38.780,Colour_Asymmetry_Pilot,2022.1.3,Win32,60.61340769,62c50e9c1127f2cd403a315f,0,127,127,101,1,threefour,,,,,,,,,,,,,,,,,,,,,,,,,,,,,,,,,,,,,,,,,,,,,,,,,,,,,,,,,,,,,,,,,,,,,,,,,,,,,,,,,,,,,,,,,,,,,,,,,,,,,,,,,,,,,,,,,,,,,,,,,,,,,,,,,,,,,,,,,,,,,,,,,,,,,,,,,,,,,,
,,,,,,612e4052693c39ad35debf4f,62c53a6165f3d02f28d9d114,2022-07-06_09h34.38.780,Colour_Asymmetry_Pilot,2022.1.3,Win32,60.61340769,62c50e9c1127f2cd403a315f,0,128,128,68,1,threeone,,,,,,,,,,,,,,,,,,,,,,,,,,,,,,,,,,,,,,,,,,,,,,,,,,,,,,,,,,,,,,,,,,,,,,,,,,,,,,,,,,,,,,,,,,,,,,,,,,,,,,,,,,,,,,,,,,,,,,,,,,,,,,,,,,,,,,,,,,,,,,,,,,,,,,,,,,,,,,
,,,,,,612e4052693c39ad35debf4f,62c53a6165f3d02f28d9d114,2022-07-06_09h34.38.780,Colour_Asymmetry_Pilot,2022.1.3,Win32,60.61340769,62c50e9c1127f2cd403a315f,0,129,129,128,1,onetwo,,,,,,,,,,,,,,,,,,,,,,,,,,,,,,,,,,,,,,,,,,,,,,,,,,,,,,,,,,,,,,,,,,,,,,,,,,,,,,,,,,,,,,,,,,,,,,,,,,,,,,,,,,,,,,,,,,,,,,,,,,,,,,,,,,,,,,,,,,,,,,,,,,,,,,,,,,,,,,
,,,,,,612e4052693c39ad35debf4f,62c53a6165f3d02f28d9d114,2022-07-06_09h34.38.780,Colour_Asymmetry_Pilot,2022.1.3,Win32,60.61340769,62c50e9c1127f2cd403a315f,0,130,130,139,1,twofour,,,,,,,,,,,,,,,,,,,,,,,,,,,,,,,,,,,,,,,,,,,,,,,,,,,,,,,,,,,,,,,,,,,,,,,,,,,,,,,,,,,,,,,,,,,,,,,,,,,,,,,,,,,,,,,,,,,,,,,,,,,,,,,,,,,,,,,,,,,,,,,,,,,,,,,,,,,,,,
,,,,,,612e4052693c39ad35debf4f,62c53a6165f3d02f28d9d114,2022-07-06_09h34.38.780,Colour_Asymmetry_Pilot,2022.1.3,Win32,60.61340769,62c50e9c1127f2cd403a315f,0,131,131,52,1,threeone,,,,,,,,,,,,,,,,,,,,,,,,,,,,,,,,,,,,,,,,,,,,,,,,,,,,,,,,,,,,,,,,,,,,,,,,,,,,,,,,,,,,,,,,,,,,,,,,,,,,,,,,,,,,,,,,,,,,,,,,,,,,,,,,,,,,,,,,,,,,,,,,,,,,,,,,,,,,,,
,,,,,,612e4052693c39ad35debf4f,62c53a6165f3d02f28d9d114,2022-07-06_09h34.38.780,Colour_Asymmetry_Pilot,2022.1.3,Win32,60.61340769,62c50e9c1127f2cd403a315f,0,132,132,130,1,twoone,,,,,,,,,,,,,,,,,,,,,,,,,,,,,,,,,,,,,,,,,,,,,,,,,,,,,,,,,,,,,,,,,,,,,,,,,,,,,,,,,,,,,,,,,,,,,,,,,,,,,,,,,,,,,,,,,,,,,,,,,,,,,,,,,,,,,,,,,,,,,,,,,,,,,,,,,,,,,,
,,,,,,612e4052693c39ad35debf4f,62c53a6165f3d02f28d9d114,2022-07-06_09h34.38.780,Colour_Asymmetry_Pilot,2022.1.3,Win32,60.61340769,62c50e9c1127f2cd403a315f,0,133,133,148,1,threeone,,,,,,,,,,,,,,,,,,,,,,,,,,,,,,,,,,,,,,,,,,,,,,,,,,,,,,,,,,,,,,,,,,,,,,,,,,,,,,,,,,,,,,,,,,,,,,,,,,,,,,,,,,,,,,,,,,,,,,,,,,,,,,,,,,,,,,,,,,,,,,,,,,,,,,,,,,,,,,
,,,,,,612e4052693c39ad35debf4f,62c53a6165f3d02f28d9d114,2022-07-06_09h34.38.780,Colour_Asymmetry_Pilot,2022.1.3,Win32,60.61340769,62c50e9c1127f2cd403a315f,0,134,134,48,1,onetwo,,,,,,,,,,,,,,,,,,,,,,,,,,,,,,,,,,,,,,,,,,,,,,,,,,,,,,,,,,,,,,,,,,,,,,,,,,,,,,,,,,,,,,,,,,,,,,,,,,,,,,,,,,,,,,,,,,,,,,,,,,,,,,,,,,,,,,,,,,,,,,,,,,,,,,,,,,,,,,
,,,,,,612e4052693c39ad35debf4f,62c53a6165f3d02f28d9d114,2022-07-06_09h34.38.780,Colour_Asymmetry_Pilot,2022.1.3,Win32,60.61340769,62c50e9c1127f2cd403a315f,0,135,135,46,1,fourtwo,,,,,,,,,,,,,,,,,,,,,,,,,,,,,,,,,,,,,,,,,,,,,,,,,,,,,,,,,,,,,,,,,,,,,,,,,,,,,,,,,,,,,,,,,,,,,,,,,,,,,,,,,,,,,,,,,,,,,,,,,,,,,,,,,,,,,,,,,,,,,,,,,,,,,,,,,,,,,,
,,,,,,612e4052693c39ad35debf4f,62c53a6165f3d02f28d9d114,2022-07-06_09h34.38.780,Colour_Asymmetry_Pilot,2022.1.3,Win32,60.61340769,62c50e9c1127f2cd403a315f,0,136,136,133,1,threefour,,,,,,,,,,,,,,,,,,,,,,,,,,,,,,,,,,,,,,,,,,,,,,,,,,,,,,,,,,,,,,,,,,,,,,,,,,,,,,,,,,,,,,,,,,,,,,,,,,,,,,,,,,,,,,,,,,,,,,,,,,,,,,,,,,,,,,,,,,,,,,,,,,,,,,,,,,,,,,
,,,,,,612e4052693c39ad35debf4f,62c53a6165f3d02f28d9d114,2022-07-06_09h34.38.780,Colour_Asymmetry_Pilot,2022.1.3,Win32,60.61340769,62c50e9c1127f2cd403a315f,0,137,137,92,1,threeone,,,,,,,,,,,,,,,,,,,,,,,,,,,,,,,,,,,,,,,,,,,,,,,,,,,,,,,,,,,,,,,,,,,,,,,,,,,,,,,,,,,,,,,,,,,,,,,,,,,,,,,,,,,,,,,,,,,,,,,,,,,,,,,,,,,,,,,,,,,,,,,,,,,,,,,,,,,,,,
,,,,,,612e4052693c39ad35debf4f,62c53a6165f3d02f28d9d114,2022-07-06_09h34.38.780,Colour_Asymmetry_Pilot,2022.1.3,Win32,60.61340769,62c50e9c1127f2cd403a315f,0,138,138,4,1,threeone,,,,,,,,,,,,,,,,,,,,,,,,,,,,,,,,,,,,,,,,,,,,,,,,,,,,,,,,,,,,,,,,,,,,,,,,,,,,,,,,,,,,,,,,,,,,,,,,,,,,,,,,,,,,,,,,,,,,,,,,,,,,,,,,,,,,,,,,,,,,,,,,,,,,,,,,,,,,,,
,,,,,,612e4052693c39ad35debf4f,62c53a6165f3d02f28d9d114,2022-07-06_09h34.38.780,Colour_Asymmetry_Pilot,2022.1.3,Win32,60.61340769,62c50e9c1127f2cd403a315f,0,139,139,78,1,fourtwo,,,,,,,,,,,,,,,,,,,,,,,,,,,,,,,,,,,,,,,,,,,,,,,,,,,,,,,,,,,,,,,,,,,,,,,,,,,,,,,,,,,,,,,,,,,,,,,,,,,,,,,,,,,,,,,,,,,,,,,,,,,,,,,,,,,,,,,,,,,,,,,,,,,,,,,,,,,,,,
,,,,,,612e4052693c39ad35debf4f,62c53a6165f3d02f28d9d114,2022-07-06_09h34.38.780,Colour_Asymmetry_Pilot,2022.1.3,Win32,60.61340769,62c50e9c1127f2cd403a315f,0,140,140,111,1,fourthree,,,,,,,,,,,,,,,,,,,,,,,,,,,,,,,,,,,,,,,,,,,,,,,,,,,,,,,,,,,,,,,,,,,,,,,,,,,,,,,,,,,,,,,,,,,,,,,,,,,,,,,,,,,,,,,,,,,,,,,,,,,,,,,,,,,,,,,,,,,,,,,,,,,,,,,,,,,,,,
,,,,,,612e4052693c39ad35debf4f,62c53a6165f3d02f28d9d114,2022-07-06_09h34.38.780,Colour_Asymmetry_Pilot,2022.1.3,Win32,60.61340769,62c50e9c1127f2cd403a315f,0,141,141,56,1,onetwo,,,,,,,,,,,,,,,,,,,,,,,,,,,,,,,,,,,,,,,,,,,,,,,,,,,,,,,,,,,,,,,,,,,,,,,,,,,,,,,,,,,,,,,,,,,,,,,,,,,,,,,,,,,,,,,,,,,,,,,,,,,,,,,,,,,,,,,,,,,,,,,,,,,,,,,,,,,,,,
,,,,,,612e4052693c39ad35debf4f,62c53a6165f3d02f28d9d114,2022-07-06_09h34.38.780,Colour_Asymmetry_Pilot,2022.1.3,Win32,60.61340769,62c50e9c1127f2cd403a315f,0,142,142,10,1,twoone,,,,,,,,,,,,,,,,,,,,,,,,,,,,,,,,,,,,,,,,,,,,,,,,,,,,,,,,,,,,,,,,,,,,,,,,,,,,,,,,,,,,,,,,,,,,,,,,,,,,,,,,,,,,,,,,,,,,,,,,,,,,,,,,,,,,,,,,,,,,,,,,,,,,,,,,,,,,,,
,,,,,,612e4052693c39ad35debf4f,62c53a6165f3d02f28d9d114,2022-07-06_09h34.38.780,Colour_Asymmetry_Pilot,2022.1.3,Win32,60.61340769,62c50e9c1127f2cd403a315f,0,143,143,105,1,onethree,,,,,,,,,,,,,,,,,,,,,,,,,,,,,,,,,,,,,,,,,,,,,,,,,,,,,,,,,,,,,,,,,,,,,,,,,,,,,,,,,,,,,,,,,,,,,,,,,,,,,,,,,,,,,,,,,,,,,,,,,,,,,,,,,,,,,,,,,,,,,,,,,,,,,,,,,,,,,,
,,,,,,612e4052693c39ad35debf4f,62c53a6165f3d02f28d9d114,2022-07-06_09h34.38.780,Colour_Asymmetry_Pilot,2022.1.3,Win32,60.61340769,62c50e9c1127f2cd403a315f,0,144,144,20,1,threeone,,,,,,,,,,,,,,,,,,,,,,,,,,,,,,,,,,,,,,,,,,,,,,,,,,,,,,,,,,,,,,,,,,,,,,,,,,,,,,,,,,,,,,,,,,,,,,,,,,,,,,,,,,,,,,,,,,,,,,,,,,,,,,,,,,,,,,,,,,,,,,,,,,,,,,,,,,,,,,
,,,,,,612e4052693c39ad35debf4f,62c53a6165f3d02f28d9d114,2022-07-06_09h34.38.780,Colour_Asymmetry_Pilot,2022.1.3,Win32,60.61340769,62c50e9c1127f2cd403a315f,0,145,145,158,1,fourtwo,,,,,,,,,,,,,,,,,,,,,,,,,,,,,,,,,,,,,,,,,,,,,,,,,,,,,,,,,,,,,,,,,,,,,,,,,,,,,,,,,,,,,,,,,,,,,,,,,,,,,,,,,,,,,,,,,,,,,,,,,,,,,,,,,,,,,,,,,,,,,,,,,,,,,,,,,,,,,,
,,,,,,612e4052693c39ad35debf4f,62c53a6165f3d02f28d9d114,2022-07-06_09h34.38.780,Colour_Asymmetry_Pilot,2022.1.3,Win32,60.61340769,62c50e9c1127f2cd403a315f,0,146,146,71,1,fourthree,,,,,,,,,,,,,,,,,,,,,,,,,,,,,,,,,,,,,,,,,,,,,,,,,,,,,,,,,,,,,,,,,,,,,,,,,,,,,,,,,,,,,,,,,,,,,,,,,,,,,,,,,,,,,,,,,,,,,,,,,,,,,,,,,,,,,,,,,,,,,,,,,,,,,,,,,,,,,,
,,,,,,612e4052693c39ad35debf4f,62c53a6165f3d02f28d9d114,2022-07-06_09h34.38.780,Colour_Asymmetry_Pilot,2022.1.3,Win32,60.61340769,62c50e9c1127f2cd403a315f,0,147,147,93,1,threefour,,,,,,,,,,,,,,,,,,,,,,,,,,,,,,,,,,,,,,,,,,,,,,,,,,,,,,,,,,,,,,,,,,,,,,,,,,,,,,,,,,,,,,,,,,,,,,,,,,,,,,,,,,,,,,,,,,,,,,,,,,,,,,,,,,,,,,,,,,,,,,,,,,,,,,,,,,,,,,
,,,,,,612e4052693c39ad35debf4f,62c53a6165f3d02f28d9d114,2022-07-06_09h34.38.780,Colour_Asymmetry_Pilot,2022.1.3,Win32,60.61340769,62c50e9c1127f2cd403a315f,0,148,148,75,1,twofour,,,,,,,,,,,,,,,,,,,,,,,,,,,,,,,,,,,,,,,,,,,,,,,,,,,,,,,,,,,,,,,,,,,,,,,,,,,,,,,,,,,,,,,,,,,,,,,,,,,,,,,,,,,,,,,,,,,,,,,,,,,,,,,,,,,,,,,,,,,,,,,,,,,,,,,,,,,,,,
,,,,,,612e4052693c39ad35debf4f,62c53a6165f3d02f28d9d114,2022-07-06_09h34.38.780,Colour_Asymmetry_Pilot,2022.1.3,Win32,60.61340769,62c50e9c1127f2cd403a315f,0,149,149,15,1,fourthree,,,,,,,,,,,,,,,,,,,,,,,,,,,,,,,,,,,,,,,,,,,,,,,,,,,,,,,,,,,,,,,,,,,,,,,,,,,,,,,,,,,,,,,,,,,,,,,,,,,,,,,,,,,,,,,,,,,,,,,,,,,,,,,,,,,,,,,,,,,,,,,,,,,,,,,,,,,,,,
,,,,,,612e4052693c39ad35debf4f,62c53a6165f3d02f28d9d114,2022-07-06_09h34.38.780,Colour_Asymmetry_Pilot,2022.1.3,Win32,60.61340769,62c50e9c1127f2cd403a315f,0,150,150,45,1,threefour,,,,,,,,,,,,,,,,,,,,,,,,,,,,,,,,,,,,,,,,,,,,,,,,,,,,,,,,,,,,,,,,,,,,,,,,,,,,,,,,,,,,,,,,,,,,,,,,,,,,,,,,,,,,,,,,,,,,,,,,,,,,,,,,,,,,,,,,,,,,,,,,,,,,,,,,,,,,,,
,,,,,,612e4052693c39ad35debf4f,62c53a6165f3d02f28d9d114,2022-07-06_09h34.38.780,Colour_Asymmetry_Pilot,2022.1.3,Win32,60.61340769,62c50e9c1127f2cd403a315f,0,151,151,115,1,twofour,,,,,,,,,,,,,,,,,,,,,,,,,,,,,,,,,,,,,,,,,,,,,,,,,,,,,,,,,,,,,,,,,,,,,,,,,,,,,,,,,,,,,,,,,,,,,,,,,,,,,,,,,,,,,,,,,,,,,,,,,,,,,,,,,,,,,,,,,,,,,,,,,,,,,,,,,,,,,,
,,,,,,612e4052693c39ad35debf4f,62c53a6165f3d02f28d9d114,2022-07-06_09h34.38.780,Colour_Asymmetry_Pilot,2022.1.3,Win32,60.61340769,62c50e9c1127f2cd403a315f,0,152,152,81,1,onethree,,,,,,,,,,,,,,,,,,,,,,,,,,,,,,,,,,,,,,,,,,,,,,,,,,,,,,,,,,,,,,,,,,,,,,,,,,,,,,,,,,,,,,,,,,,,,,,,,,,,,,,,,,,,,,,,,,,,,,,,,,,,,,,,,,,,,,,,,,,,,,,,,,,,,,,,,,,,,,
,,,,,,612e4052693c39ad35debf4f,62c53a6165f3d02f28d9d114,2022-07-06_09h34.38.780,Colour_Asymmetry_Pilot,2022.1.3,Win32,60.61340769,62c50e9c1127f2cd403a315f,0,153,153,127,1,fourthree,,,,,,,,,,,,,,,,,,,,,,,,,,,,,,,,,,,,,,,,,,,,,,,,,,,,,,,,,,,,,,,,,,,,,,,,,,,,,,,,,,,,,,,,,,,,,,,,,,,,,,,,,,,,,,,,,,,,,,,,,,,,,,,,,,,,,,,,,,,,,,,,,,,,,,,,,,,,,,
,,,,,,612e4052693c39ad35debf4f,62c53a6165f3d02f28d9d114,2022-07-06_09h34.38.780,Colour_Asymmetry_Pilot,2022.1.3,Win32,60.61340769,62c50e9c1127f2cd403a315f,0,154,154,103,1,fourthree,,,,,,,,,,,,,,,,,,,,,,,,,,,,,,,,,,,,,,,,,,,,,,,,,,,,,,,,,,,,,,,,,,,,,,,,,,,,,,,,,,,,,,,,,,,,,,,,,,,,,,,,,,,,,,,,,,,,,,,,,,,,,,,,,,,,,,,,,,,,,,,,,,,,,,,,,,,,,,
,,,,,,612e4052693c39ad35debf4f,62c53a6165f3d02f28d9d114,2022-07-06_09h34.38.780,Colour_Asymmetry_Pilot,2022.1.3,Win32,60.61340769,62c50e9c1127f2cd403a315f,0,155,155,99,1,twofour,,,,,,,,,,,,,,,,,,,,,,,,,,,,,,,,,,,,,,,,,,,,,,,,,,,,,,,,,,,,,,,,,,,,,,,,,,,,,,,,,,,,,,,,,,,,,,,,,,,,,,,,,,,,,,,,,,,,,,,,,,,,,,,,,,,,,,,,,,,,,,,,,,,,,,,,,,,,,,
,,,,,,612e4052693c39ad35debf4f,62c53a6165f3d02f28d9d114,2022-07-06_09h34.38.780,Colour_Asymmetry_Pilot,2022.1.3,Win32,60.61340769,62c50e9c1127f2cd403a315f,0,156,156,141,1,threefour,,,,,,,,,,,,,,,,,,,,,,,,,,,,,,,,,,,,,,,,,,,,,,,,,,,,,,,,,,,,,,,,,,,,,,,,,,,,,,,,,,,,,,,,,,,,,,,,,,,,,,,,,,,,,,,,,,,,,,,,,,,,,,,,,,,,,,,,,,,,,,,,,,,,,,,,,,,,,,
,,,,,,612e4052693c39ad35debf4f,62c53a6165f3d02f28d9d114,2022-07-06_09h34.38.780,Colour_Asymmetry_Pilot,2022.1.3,Win32,60.61340769,62c50e9c1127f2cd403a315f,0,157,157,0,1,onetwo,,,,,,,,,,,,,,,,,,,,,,,,,,,,,,,,,,,,,,,,,,,,,,,,,,,,,,,,,,,,,,,,,,,,,,,,,,,,,,,,,,,,,,,,,,,,,,,,,,,,,,,,,,,,,,,,,,,,,,,,,,,,,,,,,,,,,,,,,,,,,,,,,,,,,,,,,,,,,,
,,,,,,612e4052693c39ad35debf4f,62c53a6165f3d02f28d9d114,2022-07-06_09h34.38.780,Colour_Asymmetry_Pilot,2022.1.3,Win32,60.61340769,62c50e9c1127f2cd403a315f,0,158,158,55,1,fourthree,,,,,,,,,,,,,,,,,,,,,,,,,,,,,,,,,,,,,,,,,,,,,,,,,,,,,,,,,,,,,,,,,,,,,,,,,,,,,,,,,,,,,,,,,,,,,,,,,,,,,,,,,,,,,,,,,,,,,,,,,,,,,,,,,,,,,,,,,,,,,,,,,,,,,,,,,,,,,,
,,,,,,612e4052693c39ad35debf4f,62c53a6165f3d02f28d9d114,2022-07-06_09h34.38.780,Colour_Asymmetry_Pilot,2022.1.3,Win32,60.61340769,62c50e9c1127f2cd403a315f,0,159,159,104,1,onetwo,,,,,,,,,,,,,,,,,,,,,,,,,,,,,,,,,,,,,,,,,,,,,,,,,,,,,,,,,,,,,,,,,,,,,,,,,,,,,,,,,,,,,,,,,,,,,,,,,,,,,,,,,,,,,,,,,,,,,,,,,,,,,,,,,,,,,,,,,,,,,,,,,,,,,,,,,,,,,,
,,,,,,612e4052693c39ad35debf4f,62c53a6165f3d02f28d9d114,2022-07-06_09h34.38.780,Colour_Asymmetry_Pilot,2022.1.3,Win32,60.61340769,62c50e9c1127f2cd403a315f,0,160,160,125,1,threefour,,,,,,,,,,,,,,,,,,,,,,,,,,,,,,,,,,,,,,,,,,,,,,,,,,,,,,,,,,,,,,,,,,,,,,,,,,,,,,,,,,,,,,,,,,,,,,,,,,,,,,,,,,,,,,,,,,,,,,,,,,,,,,,,,,,,,,,,,,,,,,,,,,,,,,,,,,,,,,
,,,,,,612e4052693c39ad35debf4f,62c53a6165f3d02f28d9d114,2022-07-06_09h34.38.780,Colour_Asymmetry_Pilot,2022.1.3,Win32,60.61340769,62c50e9c1127f2cd403a315f,0,161,161,124,1,threeone,,,,,,,,,,,,,,,,,,,,,,,,,,,,,,,,,,,,,,,,,,,,,,,,,,,,,,,,,,,,,,,,,,,,,,,,,,,,,,,,,,,,,,,,,,,,,,,,,,,,,,,,,,,,,,,,,,,,,,,,,,,,,,,,,,,,,,,,,,,,,,,,,,,,,,,,,,,,,,
,,,,,,612e4052693c39ad35debf4f,62c53a6165f3d02f28d9d114,2022-07-06_09h34.38.780,Colour_Asymmetry_Pilot,2022.1.3,Win32,60.61340769,62c50e9c1127f2cd403a315f,,,,,,,space,9.1185,space,11.4288,space,26.4316,space,14.6401,space,9.3559,space,2.965,"[0.11359999999999992,0.6312,0.5213999999999999]",threeone,"[-0.2942,-0.24719999999999998,-0.357]",-2,9.1156,-78.66662598,-36.66668701,1,0,0,response5disk_5,-2,10,1,0,0,rectangle_8,-2,10,1,0,0,3,-2,10,1,0,0,0,0,0,0,1,,,,,,,,,,,,,,,,,,,,,,,,,,,,,,,,,,,,,,,,,,,,,,,,,,,,,,,,,,,,,,,,,,,,,,,,,,,,,,,,,,,,,,,,,,,,,,,,,,,,,,,,,,,,,,,,,
,,,,,,612e4052693c39ad35debf4f,62c53a6165f3d02f28d9d114,2022-07-06_09h34.38.780,Colour_Asymmetry_Pilot,2022.1.3,Win32,60.61340769,62c50e9c1127f2cd403a315f,,,,,,,,,,,,,,,,,,,"[-0.9688,-0.4902000000000001,-0.12159999999999993]",twoone,"[-0.9844,-0.9688,-0.9922]",-4,1.8487,-32,88.66665649,1,0,0,response7disk_5,-2,2,1,0,0,rectangle_8,-2,2,1,0,0,3,-2,2,1,0,0,1,0,1,0,1,,,,,,,,,,,,,,,,,,,,,,,,,,,,,,,,,,,,,,,,,,,,,,,,,,,,,,,,,,,,,,,,,,,,,,,,,,,,,,,,,,,,,,,,,,,,,,,,,,,,,,,,,,,,,,,,,
,,,,,,612e4052693c39ad35debf4f,62c53a6165f3d02f28d9d114,2022-07-06_09h34.38.780,Colour_Asymmetry_Pilot,2022.1.3,Win32,60.61340769,62c50e9c1127f2cd403a315f,,,,,,,,,,,,,,,,,,,"[0.9763999999999999,0.30979999999999985,-0.6786]",fourthree,"[-0.26280000000000003,-0.4746,-0.2158]",-3,5.262,-80,23.33331299,1,0,0,response7disk_5,6.666687012,3.333312988,1,0,0,rectangle_8,92.66668701,29.33331299,1,0,0,3,10,7.333312988,1,0,0,2,0,2,0,1,response1disk_7,6,rectangle_4,,,,,,,,,,,,,,,,,,,,,,,,,,,,,,,,,,,,,,,,,,,,,,,,,,,,,,,,,,,,,,,,,,,,,,,,,,,,,,,,,,,,,,,,,,,,,,,,,,,,,,,,,,,,,,
,,,,,,612e4052693c39ad35debf4f,62c53a6165f3d02f28d9d114,2022-07-06_09h34.38.780,Colour_Asymmetry_Pilot,2022.1.3,Win32,60.61340769,62c50e9c1127f2cd403a315f,,,,,,,,,,,,,,,,,,,"[-0.6235999999999999,-0.6786,-0.08239999999999992]",onetwo,"[0.9686000000000001,0.5763999999999998,0.11359999999999992]",-4,1.3647,-33.33331299,54,1,0,0,response7disk_5,2.666687012,2.666656494,1,0,0,rectangle_8,90,30.66665649,1,0,0,3,-4.666625977,2,1,0,0,3,0,3,0,1,response1disk_7,6,rectangle_4,,,,,,,,,,,,,,,,,,,,,,,,,,,,,,,,,,,,,,,,,,,,,,,,,,,,,,,,,,,,,,,,,,,,,,,,,,,,,,,,,,,,,,,,,,,,,,,,,,,,,,,,,,,,,,
,,,,,,612e4052693c39ad35debf4f,62c53a6165f3d02f28d9d114,2022-07-06_09h34.38.780,Colour_Asymmetry_Pilot,2022.1.3,Win32,60.61340769,62c50e9c1127f2cd403a315f,,,,,,,,,,,,,,,,,,,"[-0.5452,-0.608,0.2470000000000001]",threeone,"[0.34099999999999997,0.5841999999999998,-0.9844]",-3,2.0649,-84.66662598,36.66665649,1,0,0,response7disk_5,18.66668701,-2,1,0,0,rectangle_8,18.66668701,-2,1,0,0,3,18.66668701,-2,1,0,0,4,0,4,0,1,,,,,,,,,,,,,,,,,,,,,,,,,,,,,,,,,,,,,,,,,,,,,,,,,,,,,,,,,,,,,,,,,,,,,,,,,,,,,,,,,,,,,,,,,,,,,,,,,,,,,,,,,,,,,,,,,
,,,,,,612e4052693c39ad35debf4f,62c53a6165f3d02f28d9d114,2022-07-06_09h34.38.780,Colour_Asymmetry_Pilot,2022.1.3,Win32,60.61340769,62c50e9c1127f2cd403a315f,,,,,,,,,,,,,,,,,,,"[0.3802000000000001,0.19199999999999995,-0.6394]",threeone,"[0.18419999999999992,-0.4276,-0.404]",-2,2.3324,-53.33331299,-34.66668701,1,0,0,response5disk_5,14,0,1,0,0,rectangle_8,14,0,1,0,0,3,14,0,1,0,0,5,0,5,0,1,,,,,,,,,,,,,,,,,,,,,,,,,,,,,,,,,,,,,,,,,,,,,,,,,,,,,,,,,,,,,,,,,,,,,,,,,,,,,,,,,,,,,,,,,,,,,,,,,,,,,,,,,,,,,,,,,
,,,,,,612e4052693c39ad35debf4f,62c53a6165f3d02f28d9d114,2022-07-06_09h34.38.780,Colour_Asymmetry_Pilot,2022.1.3,Win32,60.61340769,62c50e9c1127f2cd403a315f,,,,,,,,,,,,,,,,,,,"[-0.5688,-0.08239999999999992,-0.1844]",onethree,"[0.9213999999999998,0.6391999999999998,-0.9922]",-4,1.2148,-57.33331299,102,1,0,0,response7disk_5,0.666687012,1.333312988,1,0,0,rectangle_8,0.666687012,1.333312988,1,0,0,3,0.666687012,1.333312988,1,0,0,6,0,6,0,1,,,,,,,,,,,,,,,,,,,,,,,,,,,,,,,,,,,,,,,,,,,,,,,,,,,,,,,,,,,,,,,,,,,,,,,,,,,,,,,,,,,,,,,,,,,,,,,,,,,,,,,,,,,,,,,,,
,,,,,,612e4052693c39ad35debf4f,62c53a6165f3d02f28d9d114,2022-07-06_09h34.38.780,Colour_Asymmetry_Pilot,2022.1.3,Win32,60.61340769,62c50e9c1127f2cd403a315f,,,,,,,,,,,,,,,,,,,,threeone,,-1,1.9825,,,,,,,,,,,,,,,,,,,,,,,,,,,,,,,,space,3.6191,"[-0.4668,-0.8746,-0.2942]","[0.7646000000000002,0.07440000000000002,0.2704]",-21.33331299,-85.33334351,1,0,0,response5disk,3.333374023,4.666656494,1,0,0,rectangle,3.333374023,4.666656494,1,0,0,,3,0.0035,0,3.333374023,4.666656494,1,0,0,0,0,0,109,1,28,second,,,,,,,,,,,,,,,,,,,,,,,,,,,,,,,,,,,,,,,,,,,,,,,,,,,,,,,,,,,,,,,,,,,,,,,,,
,,,,,,612e4052693c39ad35debf4f,62c53a6165f3d02f28d9d114,2022-07-06_09h34.38.780,Colour_Asymmetry_Pilot,2022.1.3,Win32,60.61340769,62c50e9c1127f2cd403a315f,,,,,,,,,,,,,,,,,,,,onethree,,-4,2.1816,,,,,,,,,,,,,,,,,,,,,,,,,,,,,,,,,,"[-0.9844,-0.9688,-0.9922]","[0.19199999999999995,0.18419999999999992,0.5136000000000001]",-46,64,1,0,0,response7disk,8.666687012,10,1,0,0,rectangle,8.666687012,10,1,0,0,,1,0.0024,0,8.666687012,10,1,0,0,0,1,1,89,1,8,second,,,,,,,,,,,,,,,,,,,,,,,,,,,,,,,,,,,,,,,,,,,,,,,,,,,,,,,,,,,,,,,,,,,,,,,,,
,,,,,,612e4052693c39ad35debf4f,62c53a6165f3d02f28d9d114,2022-07-06_09h34.38.780,Colour_Asymmetry_Pilot,2022.1.3,Win32,60.61340769,62c50e9c1127f2cd403a315f,,,,,,,,,,,,,,,,,,,,onetwo,,-4,2.7972,,,,,,,,,,,,,,,,,,,,,,,,,,,,,,,,,,"[0.19199999999999995,0.18419999999999992,0.5136000000000001]","[-0.9844,-0.9688,-0.9922]",-45.33331299,83.33331299,1,0,0,response7disk,-18.66662598,0,1,0,0,rectangle,-18.66662598,0,1,0,0,,2,0.0031,0,-18.66662598,0,1,0,0,0,2,2,8,1,8,first,,,,,,,,,,,,,,,,,,,,,,,,,,,,,,,,,,,,,,,,,,,,,,,,,,,,,,,,,,,,,,,,,,,,,,,,,
,,,,,,612e4052693c39ad35debf4f,62c53a6165f3d02f28d9d114,2022-07-06_09h34.38.780,Colour_Asymmetry_Pilot,2022.1.3,Win32,60.61340769,62c50e9c1127f2cd403a315f,,,,,,,,,,,,,,,,,,,,twofour,,-3,1.0672,,,,,,,,,,,,,,,,,,,,,,,,,,,,,,,,,,"[-0.45899999999999996,-0.3256,-0.9374]","[-0.10599999999999998,-0.15300000000000002,0.15280000000000005]",-76.66662598,34,1,0,0,response7disk,0,-2,1,0,0,rectangle,0,-2,1,0,0,,2,0.0002,0,0,-2,1,0,0,0,3,3,39,1,39,first,,,,,,,,,,,,,,,,,,,,,,,,,,,,,,,,,,,,,,,,,,,,,,,,,,,,,,,,,,,,,,,,,,,,,,,,,
,,,,,,612e4052693c39ad35debf4f,62c53a6165f3d02f28d9d114,2022-07-06_09h34.38.780,Colour_Asymmetry_Pilot,2022.1.3,Win32,60.61340769,62c50e9c1127f2cd403a315f,,,,,,,,,,,,,,,,,,,,onethree,,-1,1.2319,,,,,,,,,,,,,,,,,,,,,,,,,,,,,,,,,,"[0.19199999999999995,0.18419999999999992,0.5136000000000001]","[-0.30200000000000005,0.14500000000000002,0.2784]",-36.66662598,-80.66668701,1,0,0,response5disk,0,2,1,0,0,rectangle,0,2,1,0,0,,1,0.0015,0,0,2,1,0,0,0,4,4,99,1,18,second,,,,,,,,,,,,,,,,,,,,,,,,,,,,,,,,,,,,,,,,,,,,,,,,,,,,,,,,,,,,,,,,,,,,,,,,,
,,,,,,612e4052693c39ad35debf4f,62c53a6165f3d02f28d9d114,2022-07-06_09h34.38.780,Colour_Asymmetry_Pilot,2022.1.3,Win32,60.61340769,62c50e9c1127f2cd403a315f,,,,,,,,,,,,,,,,,,,,threeone,,3,2.5485,,,,,,,,,,,,,,,,,,,,,,,,,,,,,,,,,,"[-0.4276,0.0038000000000000256,-0.3256]","[-0.45899999999999996,-0.3256,-0.9374]",96.66668701,36,1,0,0,response1disk,7.333374023,-2,1,0,0,rectangle,7.333374023,-2,1,0,0,,3,0.002,0,7.333374023,-2,1,0,0,0,5,5,98,1,17,second,,,,,,,,,,,,,,,,,,,,,,,,,,,,,,,,,,,,,,,,,,,,,,,,,,,,,,,,,,,,,,,,,,,,,,,,,
,,,,,,612e4052693c39ad35debf4f,62c53a6165f3d02f28d9d114,2022-07-06_09h34.38.780,Colour_Asymmetry_Pilot,2022.1.3,Win32,60.61340769,62c50e9c1127f2cd403a315f,,,,,,,,,,,,,,,,,,,,onethree,,3,2.814,,,,,,,,,,,,,,,,,,,,,,,,,,,,,,,,,,"[-0.8118,-0.8198,-0.5452]","[-0.9766,-0.6472,0.07440000000000002]",83.33337402,28.66665649,1,0,0,response1disk,-10.66662598,-8.666687012,1,0,0,rectangle,-10.66662598,-8.666687012,1,0,0,,3,0.0002,0,-10.66662598,-8.666687012,1,0,0,0,6,6,82,1,1,second,,,,,,,,,,,,,,,,,,,,,,,,,,,,,,,,,,,,,,,,,,,,,,,,,,,,,,,,,,,,,,,,,,,,,,,,,
,,,,,,612e4052693c39ad35debf4f,62c53a6165f3d02f28d9d114,2022-07-06_09h34.38.780,Colour_Asymmetry_Pilot,2022.1.3,Win32,60.61340769,62c50e9c1127f2cd403a315f,,,,,,,,,,,,,,,,,,,,fourtwo,,-1,1.2161,,,,,,,,,,,,,,,,,,,,,,,,,,,,,,,,,,"[0.23120000000000007,-0.7726,-0.34120000000000006]","[0.2784,-0.31000000000000005,-0.5452]",-48.66662598,-78.66668701,1,0,0,response5disk,-6,4.666656494,1,0,0,rectangle,-6,4.666656494,1,0,0,,1,0.0017,0,-6,4.666656494,1,0,0,0,7,7,108,1,27,second,,,,,,,,,,,,,,,,,,,,,,,,,,,,,,,,,,,,,,,,,,,,,,,,,,,,,,,,,,,,,,,,,,,,,,,,,
,,,,,,612e4052693c39ad35debf4f,62c53a6165f3d02f28d9d114,2022-07-06_09h34.38.780,Colour_Asymmetry_Pilot,2022.1.3,Win32,60.61340769,62c50e9c1127f2cd403a315f,,,,,,,,,,,,,,,,,,,,onetwo,,3,4.2134,,,,,,,,,,,,,,,,,,,,,,,,,,,,,,,,,,"[-0.5922000000000001,-0.7492000000000001,-0.5296000000000001]","[-0.8982,-0.37259999999999993,0.2784]",73.33337402,32,1,0,0,response1disk,-11.33331299,11.33331299,1,0,0,rectangle,-11.33331299,11.33331299,1,0,0,,1,0.0001,0,-11.33331299,11.33331299,1,0,0,0,8,8,155,1,74,second,,,,,,,,,,,,,,,,,,,,,,,,,,,,,,,,,,,,,,,,,,,,,,,,,,,,,,,,,,,,,,,,,,,,,,,,,
,,,,,,612e4052693c39ad35debf4f,62c53a6165f3d02f28d9d114,2022-07-06_09h34.38.780,Colour_Asymmetry_Pilot,2022.1.3,Win32,60.61340769,62c50e9c1127f2cd403a315f,,,,,,,,,,,,,,,,,,,,fourthree,,-4,1.265,,,,,,,,,,,,,,,,,,,,,,,,,,,,,,,,,,"[0.8274000000000001,-0.5844,-0.9452]","[-0.8982,-0.37259999999999993,0.2784]",-42,67.33331299,1,0,0,response7disk,2,-8,1,0,0,rectangle,2,-8,1,0,0,,3,0.0024,0,2,-8,1,0,0,0,9,9,125,1,44,second,,,,,,,,,,,,,,,,,,,,,,,,,,,,,,,,,,,,,,,,,,,,,,,,,,,,,,,,,,,,,,,,,,,,,,,,,
,,,,,,612e4052693c39ad35debf4f,62c53a6165f3d02f28d9d114,2022-07-06_09h34.38.780,Colour_Asymmetry_Pilot,2022.1.3,Win32,60.61340769,62c50e9c1127f2cd403a315f,,,,,,,,,,,,,,,,,,,,fourtwo,,-4,0.8819,,,,,,,,,,,,,,,,,,,,,,,,,,,,,,,,,,"[0.18419999999999992,-0.4276,-0.404]","[-0.38039999999999996,-0.4276,-0.1452]",-32,72.66665649,1,0,0,response7disk,-10.66662598,10.66665649,1,0,0,rectangle,-10.66662598,10.66665649,1,0,0,,3,0.0001,0,-10.66662598,10.66665649,1,0,0,0,10,10,145,1,64,second,,,,,,,,,,,,,,,,,,,,,,,,,,,,,,,,,,,,,,,,,,,,,,,,,,,,,,,,,,,,,,,,,,,,,,,,,
,,,,,,612e4052693c39ad35debf4f,62c53a6165f3d02f28d9d114,2022-07-06_09h34.38.780,Colour_Asymmetry_Pilot,2022.1.3,Win32,60.61340769,62c50e9c1127f2cd403a315f,,,,,,,,,,,,,,,,,,,,fourthree,,2,1.9153,,,,,,,,,,,,,,,,,,,,,,,,,,,,,,,,,,"[-0.6,0.16860000000000008,0.44300000000000006]","[-0.4982,-0.2942,-0.0354000000000001]",88,-41.33334351,1,0,0,response3disk,-14,9.333312988,1,0,0,rectangle,-14,9.333312988,1,0,0,,2,0.001,0,-14,9.333312988,1,0,0,0,11,11,31,1,31,first,,,,,,,,,,,,,,,,,,,,,,,,,,,,,,,,,,,,,,,,,,,,,,,,,,,,,,,,,,,,,,,,,,,,,,,,,
,,,,,,612e4052693c39ad35debf4f,62c53a6165f3d02f28d9d114,2022-07-06_09h34.38.780,Colour_Asymmetry_Pilot,2022.1.3,Win32,60.61340769,62c50e9c1127f2cd403a315f,,,,,,,,,,,,,,,,,,,,twoone,,-1,1.1669,,,,,,,,,,,,,,,,,,,,,,,,,,,,,,,,,,"[0.9372,0.9450000000000001,0.8980000000000001]","[0.7018,0.7802,-0.16079999999999994]",-50.66662598,-73.33334351,1,0,0,response5disk,-0.666625977,-6.666687012,1,0,0,rectangle,-0.666625977,-6.666687012,1,0,0,,1,0.0021,0,-0.666625977,-6.666687012,1,0,0,0,12,12,84,1,3,second,,,,,,,,,,,,,,,,,,,,,,,,,,,,,,,,,,,,,,,,,,,,,,,,,,,,,,,,,,,,,,,,,,,,,,,,,
,,,,,,612e4052693c39ad35debf4f,62c53a6165f3d02f28d9d114,2022-07-06_09h34.38.780,Colour_Asymmetry_Pilot,2022.1.3,Win32,60.61340769,62c50e9c1127f2cd403a315f,,,,,,,,,,,,,,,,,,,,fourthree,,1,1.6985,,,,,,,,,,,,,,,,,,,,,,,,,,,,,,,,,,"[-0.09019999999999995,0.44300000000000006,0.5371999999999999]","[-0.9216,-0.5529999999999999,-0.3962]",38,-78.66668701,1,0,0,response3disk,-6,-2,1,0,0,rectangle,-6,-2,1,0,0,,1,0.0004,0,-6,-2,1,0,0,0,13,13,133,1,52,second,,,,,,,,,,,,,,,,,,,,,,,,,,,,,,,,,,,,,,,,,,,,,,,,,,,,,,,,,,,,,,,,,,,,,,,,,
,,,,,,612e4052693c39ad35debf4f,62c53a6165f3d02f28d9d114,2022-07-06_09h34.38.780,Colour_Asymmetry_Pilot,2022.1.3,Win32,60.61340769,62c50e9c1127f2cd403a315f,,,,,,,,,,,,,,,,,,,,twoone,,-4,0.6648,,,,,,,,,,,,,,,,,,,,,,,,,,,,,,,,,,"[0.9686000000000001,0.5763999999999998,0.11359999999999992]","[-0.8198,-0.5138,-0.7492000000000001]",-35.33331299,72.66665649,1,0,0,response7disk,-6,0.666656494,1,0,0,rectangle,-6,0.666656494,1,0,0,,2,0.0023,0,-6,0.666656494,1,0,0,0,14,14,30,1,30,first,,,,,,,,,,,,,,,,,,,,,,,,,,,,,,,,,,,,,,,,,,,,,,,,,,,,,,,,,,,,,,,,,,,,,,,,,
,,,,,,612e4052693c39ad35debf4f,62c53a6165f3d02f28d9d114,2022-07-06_09h34.38.780,Colour_Asymmetry_Pilot,2022.1.3,Win32,60.61340769,62c50e9c1127f2cd403a315f,,,,,,,,,,,,,,,,,,,,threeone,,4,1.4831,,,,,,,,,,,,,,,,,,,,,,,,,,,,,,,,,,"[0.7018,0.7802,-0.16079999999999994]","[0.5528,0.7409999999999999,-0.71]",74.66668701,93.33331299,1,0,0,response1disk,2.666687012,2,1,0,0,rectangle,95.33337402,34,1,0,0,3,3,4.433,1,-4,0,1,0,0,0,15,15,76,1,76,first,response1disk_3,rectangle,,,,,,,,,,,,,,,,,,,,,,,,,,,,,,,,,,,,,,,,,,,,,,,,,,,,,,,,,,,,,,,,,,,,,,,
