trials.thisRepN,trials.thisTrialN,trials.thisN,trials.thisIndex,trials.ran,Colourcodes,participant,session,date,expName,psychopyVersion,OS,frameRate,study_id,trials_4.thisRepN,trials_4.thisTrialN,trials_4.thisN,trials_4.thisIndex,trials_4.ran,StimulusPos,key_resp.keys,key_resp.rt,key_resp_2.keys,key_resp_2.rt,key_resp_15.keys,key_resp_15.rt,key_resp_17.keys,key_resp_17.rt,key_resp_9.keys,key_resp_9.rt,key_resp_10.keys,key_resp_10.rt,Circle1_col,Ecc,Circle2_col,similarity,response_time,mouse_5.x,mouse_5.y,mouse_5.leftButton,mouse_5.midButton,mouse_5.rightButton,mouse_5.clicked_name,mouse_10.x,mouse_10.y,mouse_10.leftButton,mouse_10.midButton,mouse_10.rightButton,mouse_10.clicked_name,mouse_7.x,mouse_7.y,mouse_7.leftButton,mouse_7.midButton,mouse_7.rightButton,catchnumberprac,mouse_6.x,mouse_6.y,mouse_6.leftButton,mouse_6.midButton,mouse_6.rightButton,duringprac.thisRepN,duringprac.thisTrialN,duringprac.thisN,duringprac.thisIndex,duringprac.ran,mouse_7.clicked_name,catchprac,mouse_6.clicked_name,key_resp_22.keys,key_resp_22.rt,Circle1_colour,Circle2_colour,mouse.x,mouse.y,mouse.leftButton,mouse.midButton,mouse.rightButton,mouse.clicked_name,mouse_2.x,mouse_2.y,mouse_2.leftButton,mouse_2.midButton,mouse_2.rightButton,mouse_2.clicked_name,mouse_3.x,mouse_3.y,mouse_3.leftButton,mouse_3.midButton,mouse_3.rightButton,catchresponse,catchnumber,response_time_catch,Catch,mouse_11.x,mouse_11.y,mouse_11.leftButton,mouse_11.midButton,mouse_11.rightButton,trials_2.thisRepN,trials_2.thisTrialN,trials_2.thisN,trials_2.thisIndex,trials_2.ran,Colourpair,Temporder,mouse_3.clicked_name,mouse_11.clicked_name,trials_3.thisRepN,trials_3.thisTrialN,trials_3.thisN,trials_3.thisIndex,trials_3.ran,key_resp_instr_Ishi.keys,key_resp_instr_Ishi.rt,Ishi_trial_keyresp.keys,Ishi_textbox.text,Ishi_mouse.x,Ishi_mouse.y,Ishi_mouse.leftButton,Ishi_mouse.midButton,Ishi_mouse.rightButton,Ishi_mouse.clicked_name,Ishi_loop.thisRepN,Ishi_loop.thisTrialN,Ishi_loop.thisN,Ishi_loop.thisIndex,Ishi_loop.ran,imageaddress,textbox.text,mouse_4.x,mouse_4.y,mouse_4.leftButton,mouse_4.midButton,mouse_4.rightButton,mouse_4.clicked_name,textbox_2.text,mouse_8.x,mouse_8.y,mouse_8.leftButton,mouse_8.midButton,mouse_8.rightButton,mouse_8.clicked_name,textbox_3.text,mouse_9.x,mouse_9.y,mouse_9.leftButton,mouse_9.midButton,mouse_9.rightButton,mouse_9.clicked_name,textbox_4.text,mouse_12.x,mouse_12.y,mouse_12.leftButton,mouse_12.midButton,mouse_12.rightButton,mouse_12.clicked_name,textbox_5.text,mouse_13.x,mouse_13.y,mouse_13.leftButton,mouse_13.midButton,mouse_13.rightButton,mouse_13.clicked_name,textbox_6.text,mouse_14.x,mouse_14.y,mouse_14.leftButton,mouse_14.midButton,mouse_14.rightButton,mouse_14.clicked_name,textbox_7.text,mouse_15.x,mouse_15.y,mouse_15.leftButton,mouse_15.midButton,mouse_15.rightButton,mouse_15.clicked_name
0,0,0,21,1,,5ed772653b309d023ca48655,62c53a3be964c2dd719fa9a0,2022-07-06_09h31.51.954,Colour_Asymmetry_Pilot,2022.1.3,Win32,143.8228103,62c50e9c1127f2cd403a315f,,,,,,,,,,,,,,,,,,,,,,,,,,,,,,,,,,,,,,,,,,,,,,,,,,,,,,,,,,,,,,,,,,,,,,,,,,,,,,,,,,,,,,,,,,,,,,,,,,,,,,,,,,,,,,,,,,,,,,,,,,,,,,,,,,,,,,,,,,,,,,,,,,,,,,,,,,,,,,,,,,,
0,1,1,50,1,,5ed772653b309d023ca48655,62c53a3be964c2dd719fa9a0,2022-07-06_09h31.51.954,Colour_Asymmetry_Pilot,2022.1.3,Win32,143.8228103,62c50e9c1127f2cd403a315f,,,,,,,,,,,,,,,,,,,,,,,,,,,,,,,,,,,,,,,,,,,,,,,,,,,,,,,,,,,,,,,,,,,,,,,,,,,,,,,,,,,,,,,,,,,,,,,,,,,,,,,,,,,,,,,,,,,,,,,,,,,,,,,,,,,,,,,,,,,,,,,,,,,,,,,,,,,,,,,,,,,
0,2,2,7,1,,5ed772653b309d023ca48655,62c53a3be964c2dd719fa9a0,2022-07-06_09h31.51.954,Colour_Asymmetry_Pilot,2022.1.3,Win32,143.8228103,62c50e9c1127f2cd403a315f,,,,,,,,,,,,,,,,,,,,,,,,,,,,,,,,,,,,,,,,,,,,,,,,,,,,,,,,,,,,,,,,,,,,,,,,,,,,,,,,,,,,,,,,,,,,,,,,,,,,,,,,,,,,,,,,,,,,,,,,,,,,,,,,,,,,,,,,,,,,,,,,,,,,,,,,,,,,,,,,,,,
0,3,3,38,1,,5ed772653b309d023ca48655,62c53a3be964c2dd719fa9a0,2022-07-06_09h31.51.954,Colour_Asymmetry_Pilot,2022.1.3,Win32,143.8228103,62c50e9c1127f2cd403a315f,,,,,,,,,,,,,,,,,,,,,,,,,,,,,,,,,,,,,,,,,,,,,,,,,,,,,,,,,,,,,,,,,,,,,,,,,,,,,,,,,,,,,,,,,,,,,,,,,,,,,,,,,,,,,,,,,,,,,,,,,,,,,,,,,,,,,,,,,,,,,,,,,,,,,,,,,,,,,,,,,,,
0,4,4,60,1,,5ed772653b309d023ca48655,62c53a3be964c2dd719fa9a0,2022-07-06_09h31.51.954,Colour_Asymmetry_Pilot,2022.1.3,Win32,143.8228103,62c50e9c1127f2cd403a315f,,,,,,,,,,,,,,,,,,,,,,,,,,,,,,,,,,,,,,,,,,,,,,,,,,,,,,,,,,,,,,,,,,,,,,,,,,,,,,,,,,,,,,,,,,,,,,,,,,,,,,,,,,,,,,,,,,,,,,,,,,,,,,,,,,,,,,,,,,,,,,,,,,,,,,,,,,,,,,,,,,,
0,5,5,23,1,,5ed772653b309d023ca48655,62c53a3be964c2dd719fa9a0,2022-07-06_09h31.51.954,Colour_Asymmetry_Pilot,2022.1.3,Win32,143.8228103,62c50e9c1127f2cd403a315f,,,,,,,,,,,,,,,,,,,,,,,,,,,,,,,,,,,,,,,,,,,,,,,,,,,,,,,,,,,,,,,,,,,,,,,,,,,,,,,,,,,,,,,,,,,,,,,,,,,,,,,,,,,,,,,,,,,,,,,,,,,,,,,,,,,,,,,,,,,,,,,,,,,,,,,,,,,,,,,,,,,
0,6,6,9,1,,5ed772653b309d023ca48655,62c53a3be964c2dd719fa9a0,2022-07-06_09h31.51.954,Colour_Asymmetry_Pilot,2022.1.3,Win32,143.8228103,62c50e9c1127f2cd403a315f,,,,,,,,,,,,,,,,,,,,,,,,,,,,,,,,,,,,,,,,,,,,,,,,,,,,,,,,,,,,,,,,,,,,,,,,,,,,,,,,,,,,,,,,,,,,,,,,,,,,,,,,,,,,,,,,,,,,,,,,,,,,,,,,,,,,,,,,,,,,,,,,,,,,,,,,,,,,,,,,,,,
0,7,7,64,1,,5ed772653b309d023ca48655,62c53a3be964c2dd719fa9a0,2022-07-06_09h31.51.954,Colour_Asymmetry_Pilot,2022.1.3,Win32,143.8228103,62c50e9c1127f2cd403a315f,,,,,,,,,,,,,,,,,,,,,,,,,,,,,,,,,,,,,,,,,,,,,,,,,,,,,,,,,,,,,,,,,,,,,,,,,,,,,,,,,,,,,,,,,,,,,,,,,,,,,,,,,,,,,,,,,,,,,,,,,,,,,,,,,,,,,,,,,,,,,,,,,,,,,,,,,,,,,,,,,,,
0,8,8,71,1,,5ed772653b309d023ca48655,62c53a3be964c2dd719fa9a0,2022-07-06_09h31.51.954,Colour_Asymmetry_Pilot,2022.1.3,Win32,143.8228103,62c50e9c1127f2cd403a315f,,,,,,,,,,,,,,,,,,,,,,,,,,,,,,,,,,,,,,,,,,,,,,,,,,,,,,,,,,,,,,,,,,,,,,,,,,,,,,,,,,,,,,,,,,,,,,,,,,,,,,,,,,,,,,,,,,,,,,,,,,,,,,,,,,,,,,,,,,,,,,,,,,,,,,,,,,,,,,,,,,,
0,9,9,83,1,,5ed772653b309d023ca48655,62c53a3be964c2dd719fa9a0,2022-07-06_09h31.51.954,Colour_Asymmetry_Pilot,2022.1.3,Win32,143.8228103,62c50e9c1127f2cd403a315f,,,,,,,,,,,,,,,,,,,,,,,,,,,,,,,,,,,,,,,,,,,,,,,,,,,,,,,,,,,,,,,,,,,,,,,,,,,,,,,,,,,,,,,,,,,,,,,,,,,,,,,,,,,,,,,,,,,,,,,,,,,,,,,,,,,,,,,,,,,,,,,,,,,,,,,,,,,,,,,,,,,
0,10,10,67,1,,5ed772653b309d023ca48655,62c53a3be964c2dd719fa9a0,2022-07-06_09h31.51.954,Colour_Asymmetry_Pilot,2022.1.3,Win32,143.8228103,62c50e9c1127f2cd403a315f,,,,,,,,,,,,,,,,,,,,,,,,,,,,,,,,,,,,,,,,,,,,,,,,,,,,,,,,,,,,,,,,,,,,,,,,,,,,,,,,,,,,,,,,,,,,,,,,,,,,,,,,,,,,,,,,,,,,,,,,,,,,,,,,,,,,,,,,,,,,,,,,,,,,,,,,,,,,,,,,,,,
0,11,11,81,1,,5ed772653b309d023ca48655,62c53a3be964c2dd719fa9a0,2022-07-06_09h31.51.954,Colour_Asymmetry_Pilot,2022.1.3,Win32,143.8228103,62c50e9c1127f2cd403a315f,,,,,,,,,,,,,,,,,,,,,,,,,,,,,,,,,,,,,,,,,,,,,,,,,,,,,,,,,,,,,,,,,,,,,,,,,,,,,,,,,,,,,,,,,,,,,,,,,,,,,,,,,,,,,,,,,,,,,,,,,,,,,,,,,,,,,,,,,,,,,,,,,,,,,,,,,,,,,,,,,,,
0,12,12,59,1,,5ed772653b309d023ca48655,62c53a3be964c2dd719fa9a0,2022-07-06_09h31.51.954,Colour_Asymmetry_Pilot,2022.1.3,Win32,143.8228103,62c50e9c1127f2cd403a315f,,,,,,,,,,,,,,,,,,,,,,,,,,,,,,,,,,,,,,,,,,,,,,,,,,,,,,,,,,,,,,,,,,,,,,,,,,,,,,,,,,,,,,,,,,,,,,,,,,,,,,,,,,,,,,,,,,,,,,,,,,,,,,,,,,,,,,,,,,,,,,,,,,,,,,,,,,,,,,,,,,,
0,13,13,32,1,,5ed772653b309d023ca48655,62c53a3be964c2dd719fa9a0,2022-07-06_09h31.51.954,Colour_Asymmetry_Pilot,2022.1.3,Win32,143.8228103,62c50e9c1127f2cd403a315f,,,,,,,,,,,,,,,,,,,,,,,,,,,,,,,,,,,,,,,,,,,,,,,,,,,,,,,,,,,,,,,,,,,,,,,,,,,,,,,,,,,,,,,,,,,,,,,,,,,,,,,,,,,,,,,,,,,,,,,,,,,,,,,,,,,,,,,,,,,,,,,,,,,,,,,,,,,,,,,,,,,
0,14,14,43,1,,5ed772653b309d023ca48655,62c53a3be964c2dd719fa9a0,2022-07-06_09h31.51.954,Colour_Asymmetry_Pilot,2022.1.3,Win32,143.8228103,62c50e9c1127f2cd403a315f,,,,,,,,,,,,,,,,,,,,,,,,,,,,,,,,,,,,,,,,,,,,,,,,,,,,,,,,,,,,,,,,,,,,,,,,,,,,,,,,,,,,,,,,,,,,,,,,,,,,,,,,,,,,,,,,,,,,,,,,,,,,,,,,,,,,,,,,,,,,,,,,,,,,,,,,,,,,,,,,,,,
0,15,15,28,1,,5ed772653b309d023ca48655,62c53a3be964c2dd719fa9a0,2022-07-06_09h31.51.954,Colour_Asymmetry_Pilot,2022.1.3,Win32,143.8228103,62c50e9c1127f2cd403a315f,,,,,,,,,,,,,,,,,,,,,,,,,,,,,,,,,,,,,,,,,,,,,,,,,,,,,,,,,,,,,,,,,,,,,,,,,,,,,,,,,,,,,,,,,,,,,,,,,,,,,,,,,,,,,,,,,,,,,,,,,,,,,,,,,,,,,,,,,,,,,,,,,,,,,,,,,,,,,,,,,,,
0,16,16,92,1,,5ed772653b309d023ca48655,62c53a3be964c2dd719fa9a0,2022-07-06_09h31.51.954,Colour_Asymmetry_Pilot,2022.1.3,Win32,143.8228103,62c50e9c1127f2cd403a315f,,,,,,,,,,,,,,,,,,,,,,,,,,,,,,,,,,,,,,,,,,,,,,,,,,,,,,,,,,,,,,,,,,,,,,,,,,,,,,,,,,,,,,,,,,,,,,,,,,,,,,,,,,,,,,,,,,,,,,,,,,,,,,,,,,,,,,,,,,,,,,,,,,,,,,,,,,,,,,,,,,,
0,17,17,88,1,,5ed772653b309d023ca48655,62c53a3be964c2dd719fa9a0,2022-07-06_09h31.51.954,Colour_Asymmetry_Pilot,2022.1.3,Win32,143.8228103,62c50e9c1127f2cd403a315f,,,,,,,,,,,,,,,,,,,,,,,,,,,,,,,,,,,,,,,,,,,,,,,,,,,,,,,,,,,,,,,,,,,,,,,,,,,,,,,,,,,,,,,,,,,,,,,,,,,,,,,,,,,,,,,,,,,,,,,,,,,,,,,,,,,,,,,,,,,,,,,,,,,,,,,,,,,,,,,,,,,
0,18,18,69,1,,5ed772653b309d023ca48655,62c53a3be964c2dd719fa9a0,2022-07-06_09h31.51.954,Colour_Asymmetry_Pilot,2022.1.3,Win32,143.8228103,62c50e9c1127f2cd403a315f,,,,,,,,,,,,,,,,,,,,,,,,,,,,,,,,,,,,,,,,,,,,,,,,,,,,,,,,,,,,,,,,,,,,,,,,,,,,,,,,,,,,,,,,,,,,,,,,,,,,,,,,,,,,,,,,,,,,,,,,,,,,,,,,,,,,,,,,,,,,,,,,,,,,,,,,,,,,,,,,,,,
0,19,19,4,1,,5ed772653b309d023ca48655,62c53a3be964c2dd719fa9a0,2022-07-06_09h31.51.954,Colour_Asymmetry_Pilot,2022.1.3,Win32,143.8228103,62c50e9c1127f2cd403a315f,,,,,,,,,,,,,,,,,,,,,,,,,,,,,,,,,,,,,,,,,,,,,,,,,,,,,,,,,,,,,,,,,,,,,,,,,,,,,,,,,,,,,,,,,,,,,,,,,,,,,,,,,,,,,,,,,,,,,,,,,,,,,,,,,,,,,,,,,,,,,,,,,,,,,,,,,,,,,,,,,,,
0,20,20,2,1,,5ed772653b309d023ca48655,62c53a3be964c2dd719fa9a0,2022-07-06_09h31.51.954,Colour_Asymmetry_Pilot,2022.1.3,Win32,143.8228103,62c50e9c1127f2cd403a315f,,,,,,,,,,,,,,,,,,,,,,,,,,,,,,,,,,,,,,,,,,,,,,,,,,,,,,,,,,,,,,,,,,,,,,,,,,,,,,,,,,,,,,,,,,,,,,,,,,,,,,,,,,,,,,,,,,,,,,,,,,,,,,,,,,,,,,,,,,,,,,,,,,,,,,,,,,,,,,,,,,,
0,21,21,31,1,,5ed772653b309d023ca48655,62c53a3be964c2dd719fa9a0,2022-07-06_09h31.51.954,Colour_Asymmetry_Pilot,2022.1.3,Win32,143.8228103,62c50e9c1127f2cd403a315f,,,,,,,,,,,,,,,,,,,,,,,,,,,,,,,,,,,,,,,,,,,,,,,,,,,,,,,,,,,,,,,,,,,,,,,,,,,,,,,,,,,,,,,,,,,,,,,,,,,,,,,,,,,,,,,,,,,,,,,,,,,,,,,,,,,,,,,,,,,,,,,,,,,,,,,,,,,,,,,,,,,
0,22,22,15,1,,5ed772653b309d023ca48655,62c53a3be964c2dd719fa9a0,2022-07-06_09h31.51.954,Colour_Asymmetry_Pilot,2022.1.3,Win32,143.8228103,62c50e9c1127f2cd403a315f,,,,,,,,,,,,,,,,,,,,,,,,,,,,,,,,,,,,,,,,,,,,,,,,,,,,,,,,,,,,,,,,,,,,,,,,,,,,,,,,,,,,,,,,,,,,,,,,,,,,,,,,,,,,,,,,,,,,,,,,,,,,,,,,,,,,,,,,,,,,,,,,,,,,,,,,,,,,,,,,,,,
0,23,23,45,1,,5ed772653b309d023ca48655,62c53a3be964c2dd719fa9a0,2022-07-06_09h31.51.954,Colour_Asymmetry_Pilot,2022.1.3,Win32,143.8228103,62c50e9c1127f2cd403a315f,,,,,,,,,,,,,,,,,,,,,,,,,,,,,,,,,,,,,,,,,,,,,,,,,,,,,,,,,,,,,,,,,,,,,,,,,,,,,,,,,,,,,,,,,,,,,,,,,,,,,,,,,,,,,,,,,,,,,,,,,,,,,,,,,,,,,,,,,,,,,,,,,,,,,,,,,,,,,,,,,,,
0,24,24,84,1,,5ed772653b309d023ca48655,62c53a3be964c2dd719fa9a0,2022-07-06_09h31.51.954,Colour_Asymmetry_Pilot,2022.1.3,Win32,143.8228103,62c50e9c1127f2cd403a315f,,,,,,,,,,,,,,,,,,,,,,,,,,,,,,,,,,,,,,,,,,,,,,,,,,,,,,,,,,,,,,,,,,,,,,,,,,,,,,,,,,,,,,,,,,,,,,,,,,,,,,,,,,,,,,,,,,,,,,,,,,,,,,,,,,,,,,,,,,,,,,,,,,,,,,,,,,,,,,,,,,,
0,25,25,63,1,,5ed772653b309d023ca48655,62c53a3be964c2dd719fa9a0,2022-07-06_09h31.51.954,Colour_Asymmetry_Pilot,2022.1.3,Win32,143.8228103,62c50e9c1127f2cd403a315f,,,,,,,,,,,,,,,,,,,,,,,,,,,,,,,,,,,,,,,,,,,,,,,,,,,,,,,,,,,,,,,,,,,,,,,,,,,,,,,,,,,,,,,,,,,,,,,,,,,,,,,,,,,,,,,,,,,,,,,,,,,,,,,,,,,,,,,,,,,,,,,,,,,,,,,,,,,,,,,,,,,
0,26,26,27,1,,5ed772653b309d023ca48655,62c53a3be964c2dd719fa9a0,2022-07-06_09h31.51.954,Colour_Asymmetry_Pilot,2022.1.3,Win32,143.8228103,62c50e9c1127f2cd403a315f,,,,,,,,,,,,,,,,,,,,,,,,,,,,,,,,,,,,,,,,,,,,,,,,,,,,,,,,,,,,,,,,,,,,,,,,,,,,,,,,,,,,,,,,,,,,,,,,,,,,,,,,,,,,,,,,,,,,,,,,,,,,,,,,,,,,,,,,,,,,,,,,,,,,,,,,,,,,,,,,,,,
0,27,27,51,1,,5ed772653b309d023ca48655,62c53a3be964c2dd719fa9a0,2022-07-06_09h31.51.954,Colour_Asymmetry_Pilot,2022.1.3,Win32,143.8228103,62c50e9c1127f2cd403a315f,,,,,,,,,,,,,,,,,,,,,,,,,,,,,,,,,,,,,,,,,,,,,,,,,,,,,,,,,,,,,,,,,,,,,,,,,,,,,,,,,,,,,,,,,,,,,,,,,,,,,,,,,,,,,,,,,,,,,,,,,,,,,,,,,,,,,,,,,,,,,,,,,,,,,,,,,,,,,,,,,,,
0,28,28,77,1,,5ed772653b309d023ca48655,62c53a3be964c2dd719fa9a0,2022-07-06_09h31.51.954,Colour_Asymmetry_Pilot,2022.1.3,Win32,143.8228103,62c50e9c1127f2cd403a315f,,,,,,,,,,,,,,,,,,,,,,,,,,,,,,,,,,,,,,,,,,,,,,,,,,,,,,,,,,,,,,,,,,,,,,,,,,,,,,,,,,,,,,,,,,,,,,,,,,,,,,,,,,,,,,,,,,,,,,,,,,,,,,,,,,,,,,,,,,,,,,,,,,,,,,,,,,,,,,,,,,,
0,29,29,52,1,,5ed772653b309d023ca48655,62c53a3be964c2dd719fa9a0,2022-07-06_09h31.51.954,Colour_Asymmetry_Pilot,2022.1.3,Win32,143.8228103,62c50e9c1127f2cd403a315f,,,,,,,,,,,,,,,,,,,,,,,,,,,,,,,,,,,,,,,,,,,,,,,,,,,,,,,,,,,,,,,,,,,,,,,,,,,,,,,,,,,,,,,,,,,,,,,,,,,,,,,,,,,,,,,,,,,,,,,,,,,,,,,,,,,,,,,,,,,,,,,,,,,,,,,,,,,,,,,,,,,
0,30,30,75,1,,5ed772653b309d023ca48655,62c53a3be964c2dd719fa9a0,2022-07-06_09h31.51.954,Colour_Asymmetry_Pilot,2022.1.3,Win32,143.8228103,62c50e9c1127f2cd403a315f,,,,,,,,,,,,,,,,,,,,,,,,,,,,,,,,,,,,,,,,,,,,,,,,,,,,,,,,,,,,,,,,,,,,,,,,,,,,,,,,,,,,,,,,,,,,,,,,,,,,,,,,,,,,,,,,,,,,,,,,,,,,,,,,,,,,,,,,,,,,,,,,,,,,,,,,,,,,,,,,,,,
0,31,31,17,1,,5ed772653b309d023ca48655,62c53a3be964c2dd719fa9a0,2022-07-06_09h31.51.954,Colour_Asymmetry_Pilot,2022.1.3,Win32,143.8228103,62c50e9c1127f2cd403a315f,,,,,,,,,,,,,,,,,,,,,,,,,,,,,,,,,,,,,,,,,,,,,,,,,,,,,,,,,,,,,,,,,,,,,,,,,,,,,,,,,,,,,,,,,,,,,,,,,,,,,,,,,,,,,,,,,,,,,,,,,,,,,,,,,,,,,,,,,,,,,,,,,,,,,,,,,,,,,,,,,,,
0,32,32,78,1,,5ed772653b309d023ca48655,62c53a3be964c2dd719fa9a0,2022-07-06_09h31.51.954,Colour_Asymmetry_Pilot,2022.1.3,Win32,143.8228103,62c50e9c1127f2cd403a315f,,,,,,,,,,,,,,,,,,,,,,,,,,,,,,,,,,,,,,,,,,,,,,,,,,,,,,,,,,,,,,,,,,,,,,,,,,,,,,,,,,,,,,,,,,,,,,,,,,,,,,,,,,,,,,,,,,,,,,,,,,,,,,,,,,,,,,,,,,,,,,,,,,,,,,,,,,,,,,,,,,,
0,33,33,33,1,,5ed772653b309d023ca48655,62c53a3be964c2dd719fa9a0,2022-07-06_09h31.51.954,Colour_Asymmetry_Pilot,2022.1.3,Win32,143.8228103,62c50e9c1127f2cd403a315f,,,,,,,,,,,,,,,,,,,,,,,,,,,,,,,,,,,,,,,,,,,,,,,,,,,,,,,,,,,,,,,,,,,,,,,,,,,,,,,,,,,,,,,,,,,,,,,,,,,,,,,,,,,,,,,,,,,,,,,,,,,,,,,,,,,,,,,,,,,,,,,,,,,,,,,,,,,,,,,,,,,
0,34,34,35,1,,5ed772653b309d023ca48655,62c53a3be964c2dd719fa9a0,2022-07-06_09h31.51.954,Colour_Asymmetry_Pilot,2022.1.3,Win32,143.8228103,62c50e9c1127f2cd403a315f,,,,,,,,,,,,,,,,,,,,,,,,,,,,,,,,,,,,,,,,,,,,,,,,,,,,,,,,,,,,,,,,,,,,,,,,,,,,,,,,,,,,,,,,,,,,,,,,,,,,,,,,,,,,,,,,,,,,,,,,,,,,,,,,,,,,,,,,,,,,,,,,,,,,,,,,,,,,,,,,,,,
0,35,35,5,1,,5ed772653b309d023ca48655,62c53a3be964c2dd719fa9a0,2022-07-06_09h31.51.954,Colour_Asymmetry_Pilot,2022.1.3,Win32,143.8228103,62c50e9c1127f2cd403a315f,,,,,,,,,,,,,,,,,,,,,,,,,,,,,,,,,,,,,,,,,,,,,,,,,,,,,,,,,,,,,,,,,,,,,,,,,,,,,,,,,,,,,,,,,,,,,,,,,,,,,,,,,,,,,,,,,,,,,,,,,,,,,,,,,,,,,,,,,,,,,,,,,,,,,,,,,,,,,,,,,,,
0,36,36,58,1,,5ed772653b309d023ca48655,62c53a3be964c2dd719fa9a0,2022-07-06_09h31.51.954,Colour_Asymmetry_Pilot,2022.1.3,Win32,143.8228103,62c50e9c1127f2cd403a315f,,,,,,,,,,,,,,,,,,,,,,,,,,,,,,,,,,,,,,,,,,,,,,,,,,,,,,,,,,,,,,,,,,,,,,,,,,,,,,,,,,,,,,,,,,,,,,,,,,,,,,,,,,,,,,,,,,,,,,,,,,,,,,,,,,,,,,,,,,,,,,,,,,,,,,,,,,,,,,,,,,,
0,37,37,3,1,,5ed772653b309d023ca48655,62c53a3be964c2dd719fa9a0,2022-07-06_09h31.51.954,Colour_Asymmetry_Pilot,2022.1.3,Win32,143.8228103,62c50e9c1127f2cd403a315f,,,,,,,,,,,,,,,,,,,,,,,,,,,,,,,,,,,,,,,,,,,,,,,,,,,,,,,,,,,,,,,,,,,,,,,,,,,,,,,,,,,,,,,,,,,,,,,,,,,,,,,,,,,,,,,,,,,,,,,,,,,,,,,,,,,,,,,,,,,,,,,,,,,,,,,,,,,,,,,,,,,
0,38,38,89,1,,5ed772653b309d023ca48655,62c53a3be964c2dd719fa9a0,2022-07-06_09h31.51.954,Colour_Asymmetry_Pilot,2022.1.3,Win32,143.8228103,62c50e9c1127f2cd403a315f,,,,,,,,,,,,,,,,,,,,,,,,,,,,,,,,,,,,,,,,,,,,,,,,,,,,,,,,,,,,,,,,,,,,,,,,,,,,,,,,,,,,,,,,,,,,,,,,,,,,,,,,,,,,,,,,,,,,,,,,,,,,,,,,,,,,,,,,,,,,,,,,,,,,,,,,,,,,,,,,,,,
0,39,39,65,1,,5ed772653b309d023ca48655,62c53a3be964c2dd719fa9a0,2022-07-06_09h31.51.954,Colour_Asymmetry_Pilot,2022.1.3,Win32,143.8228103,62c50e9c1127f2cd403a315f,,,,,,,,,,,,,,,,,,,,,,,,,,,,,,,,,,,,,,,,,,,,,,,,,,,,,,,,,,,,,,,,,,,,,,,,,,,,,,,,,,,,,,,,,,,,,,,,,,,,,,,,,,,,,,,,,,,,,,,,,,,,,,,,,,,,,,,,,,,,,,,,,,,,,,,,,,,,,,,,,,,
0,40,40,12,1,,5ed772653b309d023ca48655,62c53a3be964c2dd719fa9a0,2022-07-06_09h31.51.954,Colour_Asymmetry_Pilot,2022.1.3,Win32,143.8228103,62c50e9c1127f2cd403a315f,,,,,,,,,,,,,,,,,,,,,,,,,,,,,,,,,,,,,,,,,,,,,,,,,,,,,,,,,,,,,,,,,,,,,,,,,,,,,,,,,,,,,,,,,,,,,,,,,,,,,,,,,,,,,,,,,,,,,,,,,,,,,,,,,,,,,,,,,,,,,,,,,,,,,,,,,,,,,,,,,,,
0,41,41,87,1,,5ed772653b309d023ca48655,62c53a3be964c2dd719fa9a0,2022-07-06_09h31.51.954,Colour_Asymmetry_Pilot,2022.1.3,Win32,143.8228103,62c50e9c1127f2cd403a315f,,,,,,,,,,,,,,,,,,,,,,,,,,,,,,,,,,,,,,,,,,,,,,,,,,,,,,,,,,,,,,,,,,,,,,,,,,,,,,,,,,,,,,,,,,,,,,,,,,,,,,,,,,,,,,,,,,,,,,,,,,,,,,,,,,,,,,,,,,,,,,,,,,,,,,,,,,,,,,,,,,,
0,42,42,20,1,,5ed772653b309d023ca48655,62c53a3be964c2dd719fa9a0,2022-07-06_09h31.51.954,Colour_Asymmetry_Pilot,2022.1.3,Win32,143.8228103,62c50e9c1127f2cd403a315f,,,,,,,,,,,,,,,,,,,,,,,,,,,,,,,,,,,,,,,,,,,,,,,,,,,,,,,,,,,,,,,,,,,,,,,,,,,,,,,,,,,,,,,,,,,,,,,,,,,,,,,,,,,,,,,,,,,,,,,,,,,,,,,,,,,,,,,,,,,,,,,,,,,,,,,,,,,,,,,,,,,
0,43,43,25,1,,5ed772653b309d023ca48655,62c53a3be964c2dd719fa9a0,2022-07-06_09h31.51.954,Colour_Asymmetry_Pilot,2022.1.3,Win32,143.8228103,62c50e9c1127f2cd403a315f,,,,,,,,,,,,,,,,,,,,,,,,,,,,,,,,,,,,,,,,,,,,,,,,,,,,,,,,,,,,,,,,,,,,,,,,,,,,,,,,,,,,,,,,,,,,,,,,,,,,,,,,,,,,,,,,,,,,,,,,,,,,,,,,,,,,,,,,,,,,,,,,,,,,,,,,,,,,,,,,,,,
0,44,44,42,1,,5ed772653b309d023ca48655,62c53a3be964c2dd719fa9a0,2022-07-06_09h31.51.954,Colour_Asymmetry_Pilot,2022.1.3,Win32,143.8228103,62c50e9c1127f2cd403a315f,,,,,,,,,,,,,,,,,,,,,,,,,,,,,,,,,,,,,,,,,,,,,,,,,,,,,,,,,,,,,,,,,,,,,,,,,,,,,,,,,,,,,,,,,,,,,,,,,,,,,,,,,,,,,,,,,,,,,,,,,,,,,,,,,,,,,,,,,,,,,,,,,,,,,,,,,,,,,,,,,,,
0,45,45,36,1,,5ed772653b309d023ca48655,62c53a3be964c2dd719fa9a0,2022-07-06_09h31.51.954,Colour_Asymmetry_Pilot,2022.1.3,Win32,143.8228103,62c50e9c1127f2cd403a315f,,,,,,,,,,,,,,,,,,,,,,,,,,,,,,,,,,,,,,,,,,,,,,,,,,,,,,,,,,,,,,,,,,,,,,,,,,,,,,,,,,,,,,,,,,,,,,,,,,,,,,,,,,,,,,,,,,,,,,,,,,,,,,,,,,,,,,,,,,,,,,,,,,,,,,,,,,,,,,,,,,,
0,46,46,73,1,,5ed772653b309d023ca48655,62c53a3be964c2dd719fa9a0,2022-07-06_09h31.51.954,Colour_Asymmetry_Pilot,2022.1.3,Win32,143.8228103,62c50e9c1127f2cd403a315f,,,,,,,,,,,,,,,,,,,,,,,,,,,,,,,,,,,,,,,,,,,,,,,,,,,,,,,,,,,,,,,,,,,,,,,,,,,,,,,,,,,,,,,,,,,,,,,,,,,,,,,,,,,,,,,,,,,,,,,,,,,,,,,,,,,,,,,,,,,,,,,,,,,,,,,,,,,,,,,,,,,
0,47,47,72,1,,5ed772653b309d023ca48655,62c53a3be964c2dd719fa9a0,2022-07-06_09h31.51.954,Colour_Asymmetry_Pilot,2022.1.3,Win32,143.8228103,62c50e9c1127f2cd403a315f,,,,,,,,,,,,,,,,,,,,,,,,,,,,,,,,,,,,,,,,,,,,,,,,,,,,,,,,,,,,,,,,,,,,,,,,,,,,,,,,,,,,,,,,,,,,,,,,,,,,,,,,,,,,,,,,,,,,,,,,,,,,,,,,,,,,,,,,,,,,,,,,,,,,,,,,,,,,,,,,,,,
0,48,48,13,1,,5ed772653b309d023ca48655,62c53a3be964c2dd719fa9a0,2022-07-06_09h31.51.954,Colour_Asymmetry_Pilot,2022.1.3,Win32,143.8228103,62c50e9c1127f2cd403a315f,,,,,,,,,,,,,,,,,,,,,,,,,,,,,,,,,,,,,,,,,,,,,,,,,,,,,,,,,,,,,,,,,,,,,,,,,,,,,,,,,,,,,,,,,,,,,,,,,,,,,,,,,,,,,,,,,,,,,,,,,,,,,,,,,,,,,,,,,,,,,,,,,,,,,,,,,,,,,,,,,,,
0,49,49,74,1,,5ed772653b309d023ca48655,62c53a3be964c2dd719fa9a0,2022-07-06_09h31.51.954,Colour_Asymmetry_Pilot,2022.1.3,Win32,143.8228103,62c50e9c1127f2cd403a315f,,,,,,,,,,,,,,,,,,,,,,,,,,,,,,,,,,,,,,,,,,,,,,,,,,,,,,,,,,,,,,,,,,,,,,,,,,,,,,,,,,,,,,,,,,,,,,,,,,,,,,,,,,,,,,,,,,,,,,,,,,,,,,,,,,,,,,,,,,,,,,,,,,,,,,,,,,,,,,,,,,,
0,50,50,68,1,,5ed772653b309d023ca48655,62c53a3be964c2dd719fa9a0,2022-07-06_09h31.51.954,Colour_Asymmetry_Pilot,2022.1.3,Win32,143.8228103,62c50e9c1127f2cd403a315f,,,,,,,,,,,,,,,,,,,,,,,,,,,,,,,,,,,,,,,,,,,,,,,,,,,,,,,,,,,,,,,,,,,,,,,,,,,,,,,,,,,,,,,,,,,,,,,,,,,,,,,,,,,,,,,,,,,,,,,,,,,,,,,,,,,,,,,,,,,,,,,,,,,,,,,,,,,,,,,,,,,
0,51,51,10,1,,5ed772653b309d023ca48655,62c53a3be964c2dd719fa9a0,2022-07-06_09h31.51.954,Colour_Asymmetry_Pilot,2022.1.3,Win32,143.8228103,62c50e9c1127f2cd403a315f,,,,,,,,,,,,,,,,,,,,,,,,,,,,,,,,,,,,,,,,,,,,,,,,,,,,,,,,,,,,,,,,,,,,,,,,,,,,,,,,,,,,,,,,,,,,,,,,,,,,,,,,,,,,,,,,,,,,,,,,,,,,,,,,,,,,,,,,,,,,,,,,,,,,,,,,,,,,,,,,,,,
0,52,52,19,1,,5ed772653b309d023ca48655,62c53a3be964c2dd719fa9a0,2022-07-06_09h31.51.954,Colour_Asymmetry_Pilot,2022.1.3,Win32,143.8228103,62c50e9c1127f2cd403a315f,,,,,,,,,,,,,,,,,,,,,,,,,,,,,,,,,,,,,,,,,,,,,,,,,,,,,,,,,,,,,,,,,,,,,,,,,,,,,,,,,,,,,,,,,,,,,,,,,,,,,,,,,,,,,,,,,,,,,,,,,,,,,,,,,,,,,,,,,,,,,,,,,,,,,,,,,,,,,,,,,,,
0,53,53,90,1,,5ed772653b309d023ca48655,62c53a3be964c2dd719fa9a0,2022-07-06_09h31.51.954,Colour_Asymmetry_Pilot,2022.1.3,Win32,143.8228103,62c50e9c1127f2cd403a315f,,,,,,,,,,,,,,,,,,,,,,,,,,,,,,,,,,,,,,,,,,,,,,,,,,,,,,,,,,,,,,,,,,,,,,,,,,,,,,,,,,,,,,,,,,,,,,,,,,,,,,,,,,,,,,,,,,,,,,,,,,,,,,,,,,,,,,,,,,,,,,,,,,,,,,,,,,,,,,,,,,,
0,54,54,57,1,,5ed772653b309d023ca48655,62c53a3be964c2dd719fa9a0,2022-07-06_09h31.51.954,Colour_Asymmetry_Pilot,2022.1.3,Win32,143.8228103,62c50e9c1127f2cd403a315f,,,,,,,,,,,,,,,,,,,,,,,,,,,,,,,,,,,,,,,,,,,,,,,,,,,,,,,,,,,,,,,,,,,,,,,,,,,,,,,,,,,,,,,,,,,,,,,,,,,,,,,,,,,,,,,,,,,,,,,,,,,,,,,,,,,,,,,,,,,,,,,,,,,,,,,,,,,,,,,,,,,
0,55,55,0,1,,5ed772653b309d023ca48655,62c53a3be964c2dd719fa9a0,2022-07-06_09h31.51.954,Colour_Asymmetry_Pilot,2022.1.3,Win32,143.8228103,62c50e9c1127f2cd403a315f,,,,,,,,,,,,,,,,,,,,,,,,,,,,,,,,,,,,,,,,,,,,,,,,,,,,,,,,,,,,,,,,,,,,,,,,,,,,,,,,,,,,,,,,,,,,,,,,,,,,,,,,,,,,,,,,,,,,,,,,,,,,,,,,,,,,,,,,,,,,,,,,,,,,,,,,,,,,,,,,,,,
0,56,56,6,1,,5ed772653b309d023ca48655,62c53a3be964c2dd719fa9a0,2022-07-06_09h31.51.954,Colour_Asymmetry_Pilot,2022.1.3,Win32,143.8228103,62c50e9c1127f2cd403a315f,,,,,,,,,,,,,,,,,,,,,,,,,,,,,,,,,,,,,,,,,,,,,,,,,,,,,,,,,,,,,,,,,,,,,,,,,,,,,,,,,,,,,,,,,,,,,,,,,,,,,,,,,,,,,,,,,,,,,,,,,,,,,,,,,,,,,,,,,,,,,,,,,,,,,,,,,,,,,,,,,,,
0,57,57,26,1,,5ed772653b309d023ca48655,62c53a3be964c2dd719fa9a0,2022-07-06_09h31.51.954,Colour_Asymmetry_Pilot,2022.1.3,Win32,143.8228103,62c50e9c1127f2cd403a315f,,,,,,,,,,,,,,,,,,,,,,,,,,,,,,,,,,,,,,,,,,,,,,,,,,,,,,,,,,,,,,,,,,,,,,,,,,,,,,,,,,,,,,,,,,,,,,,,,,,,,,,,,,,,,,,,,,,,,,,,,,,,,,,,,,,,,,,,,,,,,,,,,,,,,,,,,,,,,,,,,,,
0,58,58,82,1,,5ed772653b309d023ca48655,62c53a3be964c2dd719fa9a0,2022-07-06_09h31.51.954,Colour_Asymmetry_Pilot,2022.1.3,Win32,143.8228103,62c50e9c1127f2cd403a315f,,,,,,,,,,,,,,,,,,,,,,,,,,,,,,,,,,,,,,,,,,,,,,,,,,,,,,,,,,,,,,,,,,,,,,,,,,,,,,,,,,,,,,,,,,,,,,,,,,,,,,,,,,,,,,,,,,,,,,,,,,,,,,,,,,,,,,,,,,,,,,,,,,,,,,,,,,,,,,,,,,,
0,59,59,1,1,,5ed772653b309d023ca48655,62c53a3be964c2dd719fa9a0,2022-07-06_09h31.51.954,Colour_Asymmetry_Pilot,2022.1.3,Win32,143.8228103,62c50e9c1127f2cd403a315f,,,,,,,,,,,,,,,,,,,,,,,,,,,,,,,,,,,,,,,,,,,,,,,,,,,,,,,,,,,,,,,,,,,,,,,,,,,,,,,,,,,,,,,,,,,,,,,,,,,,,,,,,,,,,,,,,,,,,,,,,,,,,,,,,,,,,,,,,,,,,,,,,,,,,,,,,,,,,,,,,,,
0,60,60,40,1,,5ed772653b309d023ca48655,62c53a3be964c2dd719fa9a0,2022-07-06_09h31.51.954,Colour_Asymmetry_Pilot,2022.1.3,Win32,143.8228103,62c50e9c1127f2cd403a315f,,,,,,,,,,,,,,,,,,,,,,,,,,,,,,,,,,,,,,,,,,,,,,,,,,,,,,,,,,,,,,,,,,,,,,,,,,,,,,,,,,,,,,,,,,,,,,,,,,,,,,,,,,,,,,,,,,,,,,,,,,,,,,,,,,,,,,,,,,,,,,,,,,,,,,,,,,,,,,,,,,,
0,61,61,46,1,,5ed772653b309d023ca48655,62c53a3be964c2dd719fa9a0,2022-07-06_09h31.51.954,Colour_Asymmetry_Pilot,2022.1.3,Win32,143.8228103,62c50e9c1127f2cd403a315f,,,,,,,,,,,,,,,,,,,,,,,,,,,,,,,,,,,,,,,,,,,,,,,,,,,,,,,,,,,,,,,,,,,,,,,,,,,,,,,,,,,,,,,,,,,,,,,,,,,,,,,,,,,,,,,,,,,,,,,,,,,,,,,,,,,,,,,,,,,,,,,,,,,,,,,,,,,,,,,,,,,
0,62,62,8,1,,5ed772653b309d023ca48655,62c53a3be964c2dd719fa9a0,2022-07-06_09h31.51.954,Colour_Asymmetry_Pilot,2022.1.3,Win32,143.8228103,62c50e9c1127f2cd403a315f,,,,,,,,,,,,,,,,,,,,,,,,,,,,,,,,,,,,,,,,,,,,,,,,,,,,,,,,,,,,,,,,,,,,,,,,,,,,,,,,,,,,,,,,,,,,,,,,,,,,,,,,,,,,,,,,,,,,,,,,,,,,,,,,,,,,,,,,,,,,,,,,,,,,,,,,,,,,,,,,,,,
0,63,63,49,1,,5ed772653b309d023ca48655,62c53a3be964c2dd719fa9a0,2022-07-06_09h31.51.954,Colour_Asymmetry_Pilot,2022.1.3,Win32,143.8228103,62c50e9c1127f2cd403a315f,,,,,,,,,,,,,,,,,,,,,,,,,,,,,,,,,,,,,,,,,,,,,,,,,,,,,,,,,,,,,,,,,,,,,,,,,,,,,,,,,,,,,,,,,,,,,,,,,,,,,,,,,,,,,,,,,,,,,,,,,,,,,,,,,,,,,,,,,,,,,,,,,,,,,,,,,,,,,,,,,,,
0,64,64,29,1,,5ed772653b309d023ca48655,62c53a3be964c2dd719fa9a0,2022-07-06_09h31.51.954,Colour_Asymmetry_Pilot,2022.1.3,Win32,143.8228103,62c50e9c1127f2cd403a315f,,,,,,,,,,,,,,,,,,,,,,,,,,,,,,,,,,,,,,,,,,,,,,,,,,,,,,,,,,,,,,,,,,,,,,,,,,,,,,,,,,,,,,,,,,,,,,,,,,,,,,,,,,,,,,,,,,,,,,,,,,,,,,,,,,,,,,,,,,,,,,,,,,,,,,,,,,,,,,,,,,,
0,65,65,44,1,,5ed772653b309d023ca48655,62c53a3be964c2dd719fa9a0,2022-07-06_09h31.51.954,Colour_Asymmetry_Pilot,2022.1.3,Win32,143.8228103,62c50e9c1127f2cd403a315f,,,,,,,,,,,,,,,,,,,,,,,,,,,,,,,,,,,,,,,,,,,,,,,,,,,,,,,,,,,,,,,,,,,,,,,,,,,,,,,,,,,,,,,,,,,,,,,,,,,,,,,,,,,,,,,,,,,,,,,,,,,,,,,,,,,,,,,,,,,,,,,,,,,,,,,,,,,,,,,,,,,
0,66,66,66,1,,5ed772653b309d023ca48655,62c53a3be964c2dd719fa9a0,2022-07-06_09h31.51.954,Colour_Asymmetry_Pilot,2022.1.3,Win32,143.8228103,62c50e9c1127f2cd403a315f,,,,,,,,,,,,,,,,,,,,,,,,,,,,,,,,,,,,,,,,,,,,,,,,,,,,,,,,,,,,,,,,,,,,,,,,,,,,,,,,,,,,,,,,,,,,,,,,,,,,,,,,,,,,,,,,,,,,,,,,,,,,,,,,,,,,,,,,,,,,,,,,,,,,,,,,,,,,,,,,,,,
0,67,67,56,1,,5ed772653b309d023ca48655,62c53a3be964c2dd719fa9a0,2022-07-06_09h31.51.954,Colour_Asymmetry_Pilot,2022.1.3,Win32,143.8228103,62c50e9c1127f2cd403a315f,,,,,,,,,,,,,,,,,,,,,,,,,,,,,,,,,,,,,,,,,,,,,,,,,,,,,,,,,,,,,,,,,,,,,,,,,,,,,,,,,,,,,,,,,,,,,,,,,,,,,,,,,,,,,,,,,,,,,,,,,,,,,,,,,,,,,,,,,,,,,,,,,,,,,,,,,,,,,,,,,,,
0,68,68,62,1,,5ed772653b309d023ca48655,62c53a3be964c2dd719fa9a0,2022-07-06_09h31.51.954,Colour_Asymmetry_Pilot,2022.1.3,Win32,143.8228103,62c50e9c1127f2cd403a315f,,,,,,,,,,,,,,,,,,,,,,,,,,,,,,,,,,,,,,,,,,,,,,,,,,,,,,,,,,,,,,,,,,,,,,,,,,,,,,,,,,,,,,,,,,,,,,,,,,,,,,,,,,,,,,,,,,,,,,,,,,,,,,,,,,,,,,,,,,,,,,,,,,,,,,,,,,,,,,,,,,,
0,69,69,79,1,,5ed772653b309d023ca48655,62c53a3be964c2dd719fa9a0,2022-07-06_09h31.51.954,Colour_Asymmetry_Pilot,2022.1.3,Win32,143.8228103,62c50e9c1127f2cd403a315f,,,,,,,,,,,,,,,,,,,,,,,,,,,,,,,,,,,,,,,,,,,,,,,,,,,,,,,,,,,,,,,,,,,,,,,,,,,,,,,,,,,,,,,,,,,,,,,,,,,,,,,,,,,,,,,,,,,,,,,,,,,,,,,,,,,,,,,,,,,,,,,,,,,,,,,,,,,,,,,,,,,
0,70,70,86,1,,5ed772653b309d023ca48655,62c53a3be964c2dd719fa9a0,2022-07-06_09h31.51.954,Colour_Asymmetry_Pilot,2022.1.3,Win32,143.8228103,62c50e9c1127f2cd403a315f,,,,,,,,,,,,,,,,,,,,,,,,,,,,,,,,,,,,,,,,,,,,,,,,,,,,,,,,,,,,,,,,,,,,,,,,,,,,,,,,,,,,,,,,,,,,,,,,,,,,,,,,,,,,,,,,,,,,,,,,,,,,,,,,,,,,,,,,,,,,,,,,,,,,,,,,,,,,,,,,,,,
0,71,71,14,1,,5ed772653b309d023ca48655,62c53a3be964c2dd719fa9a0,2022-07-06_09h31.51.954,Colour_Asymmetry_Pilot,2022.1.3,Win32,143.8228103,62c50e9c1127f2cd403a315f,,,,,,,,,,,,,,,,,,,,,,,,,,,,,,,,,,,,,,,,,,,,,,,,,,,,,,,,,,,,,,,,,,,,,,,,,,,,,,,,,,,,,,,,,,,,,,,,,,,,,,,,,,,,,,,,,,,,,,,,,,,,,,,,,,,,,,,,,,,,,,,,,,,,,,,,,,,,,,,,,,,
0,72,72,48,1,,5ed772653b309d023ca48655,62c53a3be964c2dd719fa9a0,2022-07-06_09h31.51.954,Colour_Asymmetry_Pilot,2022.1.3,Win32,143.8228103,62c50e9c1127f2cd403a315f,,,,,,,,,,,,,,,,,,,,,,,,,,,,,,,,,,,,,,,,,,,,,,,,,,,,,,,,,,,,,,,,,,,,,,,,,,,,,,,,,,,,,,,,,,,,,,,,,,,,,,,,,,,,,,,,,,,,,,,,,,,,,,,,,,,,,,,,,,,,,,,,,,,,,,,,,,,,,,,,,,,
0,73,73,34,1,,5ed772653b309d023ca48655,62c53a3be964c2dd719fa9a0,2022-07-06_09h31.51.954,Colour_Asymmetry_Pilot,2022.1.3,Win32,143.8228103,62c50e9c1127f2cd403a315f,,,,,,,,,,,,,,,,,,,,,,,,,,,,,,,,,,,,,,,,,,,,,,,,,,,,,,,,,,,,,,,,,,,,,,,,,,,,,,,,,,,,,,,,,,,,,,,,,,,,,,,,,,,,,,,,,,,,,,,,,,,,,,,,,,,,,,,,,,,,,,,,,,,,,,,,,,,,,,,,,,,
0,74,74,55,1,,5ed772653b309d023ca48655,62c53a3be964c2dd719fa9a0,2022-07-06_09h31.51.954,Colour_Asymmetry_Pilot,2022.1.3,Win32,143.8228103,62c50e9c1127f2cd403a315f,,,,,,,,,,,,,,,,,,,,,,,,,,,,,,,,,,,,,,,,,,,,,,,,,,,,,,,,,,,,,,,,,,,,,,,,,,,,,,,,,,,,,,,,,,,,,,,,,,,,,,,,,,,,,,,,,,,,,,,,,,,,,,,,,,,,,,,,,,,,,,,,,,,,,,,,,,,,,,,,,,,
0,75,75,53,1,,5ed772653b309d023ca48655,62c53a3be964c2dd719fa9a0,2022-07-06_09h31.51.954,Colour_Asymmetry_Pilot,2022.1.3,Win32,143.8228103,62c50e9c1127f2cd403a315f,,,,,,,,,,,,,,,,,,,,,,,,,,,,,,,,,,,,,,,,,,,,,,,,,,,,,,,,,,,,,,,,,,,,,,,,,,,,,,,,,,,,,,,,,,,,,,,,,,,,,,,,,,,,,,,,,,,,,,,,,,,,,,,,,,,,,,,,,,,,,,,,,,,,,,,,,,,,,,,,,,,
0,76,76,85,1,,5ed772653b309d023ca48655,62c53a3be964c2dd719fa9a0,2022-07-06_09h31.51.954,Colour_Asymmetry_Pilot,2022.1.3,Win32,143.8228103,62c50e9c1127f2cd403a315f,,,,,,,,,,,,,,,,,,,,,,,,,,,,,,,,,,,,,,,,,,,,,,,,,,,,,,,,,,,,,,,,,,,,,,,,,,,,,,,,,,,,,,,,,,,,,,,,,,,,,,,,,,,,,,,,,,,,,,,,,,,,,,,,,,,,,,,,,,,,,,,,,,,,,,,,,,,,,,,,,,,
0,77,77,47,1,,5ed772653b309d023ca48655,62c53a3be964c2dd719fa9a0,2022-07-06_09h31.51.954,Colour_Asymmetry_Pilot,2022.1.3,Win32,143.8228103,62c50e9c1127f2cd403a315f,,,,,,,,,,,,,,,,,,,,,,,,,,,,,,,,,,,,,,,,,,,,,,,,,,,,,,,,,,,,,,,,,,,,,,,,,,,,,,,,,,,,,,,,,,,,,,,,,,,,,,,,,,,,,,,,,,,,,,,,,,,,,,,,,,,,,,,,,,,,,,,,,,,,,,,,,,,,,,,,,,,
0,78,78,24,1,,5ed772653b309d023ca48655,62c53a3be964c2dd719fa9a0,2022-07-06_09h31.51.954,Colour_Asymmetry_Pilot,2022.1.3,Win32,143.8228103,62c50e9c1127f2cd403a315f,,,,,,,,,,,,,,,,,,,,,,,,,,,,,,,,,,,,,,,,,,,,,,,,,,,,,,,,,,,,,,,,,,,,,,,,,,,,,,,,,,,,,,,,,,,,,,,,,,,,,,,,,,,,,,,,,,,,,,,,,,,,,,,,,,,,,,,,,,,,,,,,,,,,,,,,,,,,,,,,,,,
0,79,79,37,1,,5ed772653b309d023ca48655,62c53a3be964c2dd719fa9a0,2022-07-06_09h31.51.954,Colour_Asymmetry_Pilot,2022.1.3,Win32,143.8228103,62c50e9c1127f2cd403a315f,,,,,,,,,,,,,,,,,,,,,,,,,,,,,,,,,,,,,,,,,,,,,,,,,,,,,,,,,,,,,,,,,,,,,,,,,,,,,,,,,,,,,,,,,,,,,,,,,,,,,,,,,,,,,,,,,,,,,,,,,,,,,,,,,,,,,,,,,,,,,,,,,,,,,,,,,,,,,,,,,,,
0,80,80,54,1,,5ed772653b309d023ca48655,62c53a3be964c2dd719fa9a0,2022-07-06_09h31.51.954,Colour_Asymmetry_Pilot,2022.1.3,Win32,143.8228103,62c50e9c1127f2cd403a315f,,,,,,,,,,,,,,,,,,,,,,,,,,,,,,,,,,,,,,,,,,,,,,,,,,,,,,,,,,,,,,,,,,,,,,,,,,,,,,,,,,,,,,,,,,,,,,,,,,,,,,,,,,,,,,,,,,,,,,,,,,,,,,,,,,,,,,,,,,,,,,,,,,,,,,,,,,,,,,,,,,,
0,81,81,80,1,,5ed772653b309d023ca48655,62c53a3be964c2dd719fa9a0,2022-07-06_09h31.51.954,Colour_Asymmetry_Pilot,2022.1.3,Win32,143.8228103,62c50e9c1127f2cd403a315f,,,,,,,,,,,,,,,,,,,,,,,,,,,,,,,,,,,,,,,,,,,,,,,,,,,,,,,,,,,,,,,,,,,,,,,,,,,,,,,,,,,,,,,,,,,,,,,,,,,,,,,,,,,,,,,,,,,,,,,,,,,,,,,,,,,,,,,,,,,,,,,,,,,,,,,,,,,,,,,,,,,
0,82,82,30,1,,5ed772653b309d023ca48655,62c53a3be964c2dd719fa9a0,2022-07-06_09h31.51.954,Colour_Asymmetry_Pilot,2022.1.3,Win32,143.8228103,62c50e9c1127f2cd403a315f,,,,,,,,,,,,,,,,,,,,,,,,,,,,,,,,,,,,,,,,,,,,,,,,,,,,,,,,,,,,,,,,,,,,,,,,,,,,,,,,,,,,,,,,,,,,,,,,,,,,,,,,,,,,,,,,,,,,,,,,,,,,,,,,,,,,,,,,,,,,,,,,,,,,,,,,,,,,,,,,,,,
0,83,83,22,1,,5ed772653b309d023ca48655,62c53a3be964c2dd719fa9a0,2022-07-06_09h31.51.954,Colour_Asymmetry_Pilot,2022.1.3,Win32,143.8228103,62c50e9c1127f2cd403a315f,,,,,,,,,,,,,,,,,,,,,,,,,,,,,,,,,,,,,,,,,,,,,,,,,,,,,,,,,,,,,,,,,,,,,,,,,,,,,,,,,,,,,,,,,,,,,,,,,,,,,,,,,,,,,,,,,,,,,,,,,,,,,,,,,,,,,,,,,,,,,,,,,,,,,,,,,,,,,,,,,,,
0,84,84,61,1,,5ed772653b309d023ca48655,62c53a3be964c2dd719fa9a0,2022-07-06_09h31.51.954,Colour_Asymmetry_Pilot,2022.1.3,Win32,143.8228103,62c50e9c1127f2cd403a315f,,,,,,,,,,,,,,,,,,,,,,,,,,,,,,,,,,,,,,,,,,,,,,,,,,,,,,,,,,,,,,,,,,,,,,,,,,,,,,,,,,,,,,,,,,,,,,,,,,,,,,,,,,,,,,,,,,,,,,,,,,,,,,,,,,,,,,,,,,,,,,,,,,,,,,,,,,,,,,,,,,,
0,85,85,39,1,,5ed772653b309d023ca48655,62c53a3be964c2dd719fa9a0,2022-07-06_09h31.51.954,Colour_Asymmetry_Pilot,2022.1.3,Win32,143.8228103,62c50e9c1127f2cd403a315f,,,,,,,,,,,,,,,,,,,,,,,,,,,,,,,,,,,,,,,,,,,,,,,,,,,,,,,,,,,,,,,,,,,,,,,,,,,,,,,,,,,,,,,,,,,,,,,,,,,,,,,,,,,,,,,,,,,,,,,,,,,,,,,,,,,,,,,,,,,,,,,,,,,,,,,,,,,,,,,,,,,
0,86,86,91,1,,5ed772653b309d023ca48655,62c53a3be964c2dd719fa9a0,2022-07-06_09h31.51.954,Colour_Asymmetry_Pilot,2022.1.3,Win32,143.8228103,62c50e9c1127f2cd403a315f,,,,,,,,,,,,,,,,,,,,,,,,,,,,,,,,,,,,,,,,,,,,,,,,,,,,,,,,,,,,,,,,,,,,,,,,,,,,,,,,,,,,,,,,,,,,,,,,,,,,,,,,,,,,,,,,,,,,,,,,,,,,,,,,,,,,,,,,,,,,,,,,,,,,,,,,,,,,,,,,,,,
0,87,87,76,1,,5ed772653b309d023ca48655,62c53a3be964c2dd719fa9a0,2022-07-06_09h31.51.954,Colour_Asymmetry_Pilot,2022.1.3,Win32,143.8228103,62c50e9c1127f2cd403a315f,,,,,,,,,,,,,,,,,,,,,,,,,,,,,,,,,,,,,,,,,,,,,,,,,,,,,,,,,,,,,,,,,,,,,,,,,,,,,,,,,,,,,,,,,,,,,,,,,,,,,,,,,,,,,,,,,,,,,,,,,,,,,,,,,,,,,,,,,,,,,,,,,,,,,,,,,,,,,,,,,,,
0,88,88,11,1,,5ed772653b309d023ca48655,62c53a3be964c2dd719fa9a0,2022-07-06_09h31.51.954,Colour_Asymmetry_Pilot,2022.1.3,Win32,143.8228103,62c50e9c1127f2cd403a315f,,,,,,,,,,,,,,,,,,,,,,,,,,,,,,,,,,,,,,,,,,,,,,,,,,,,,,,,,,,,,,,,,,,,,,,,,,,,,,,,,,,,,,,,,,,,,,,,,,,,,,,,,,,,,,,,,,,,,,,,,,,,,,,,,,,,,,,,,,,,,,,,,,,,,,,,,,,,,,,,,,,
0,89,89,16,1,,5ed772653b309d023ca48655,62c53a3be964c2dd719fa9a0,2022-07-06_09h31.51.954,Colour_Asymmetry_Pilot,2022.1.3,Win32,143.8228103,62c50e9c1127f2cd403a315f,,,,,,,,,,,,,,,,,,,,,,,,,,,,,,,,,,,,,,,,,,,,,,,,,,,,,,,,,,,,,,,,,,,,,,,,,,,,,,,,,,,,,,,,,,,,,,,,,,,,,,,,,,,,,,,,,,,,,,,,,,,,,,,,,,,,,,,,,,,,,,,,,,,,,,,,,,,,,,,,,,,
0,90,90,41,1,,5ed772653b309d023ca48655,62c53a3be964c2dd719fa9a0,2022-07-06_09h31.51.954,Colour_Asymmetry_Pilot,2022.1.3,Win32,143.8228103,62c50e9c1127f2cd403a315f,,,,,,,,,,,,,,,,,,,,,,,,,,,,,,,,,,,,,,,,,,,,,,,,,,,,,,,,,,,,,,,,,,,,,,,,,,,,,,,,,,,,,,,,,,,,,,,,,,,,,,,,,,,,,,,,,,,,,,,,,,,,,,,,,,,,,,,,,,,,,,,,,,,,,,,,,,,,,,,,,,,
0,91,91,18,1,,5ed772653b309d023ca48655,62c53a3be964c2dd719fa9a0,2022-07-06_09h31.51.954,Colour_Asymmetry_Pilot,2022.1.3,Win32,143.8228103,62c50e9c1127f2cd403a315f,,,,,,,,,,,,,,,,,,,,,,,,,,,,,,,,,,,,,,,,,,,,,,,,,,,,,,,,,,,,,,,,,,,,,,,,,,,,,,,,,,,,,,,,,,,,,,,,,,,,,,,,,,,,,,,,,,,,,,,,,,,,,,,,,,,,,,,,,,,,,,,,,,,,,,,,,,,,,,,,,,,
0,92,92,70,1,,5ed772653b309d023ca48655,62c53a3be964c2dd719fa9a0,2022-07-06_09h31.51.954,Colour_Asymmetry_Pilot,2022.1.3,Win32,143.8228103,62c50e9c1127f2cd403a315f,,,,,,,,,,,,,,,,,,,,,,,,,,,,,,,,,,,,,,,,,,,,,,,,,,,,,,,,,,,,,,,,,,,,,,,,,,,,,,,,,,,,,,,,,,,,,,,,,,,,,,,,,,,,,,,,,,,,,,,,,,,,,,,,,,,,,,,,,,,,,,,,,,,,,,,,,,,,,,,,,,,
,,,,,,5ed772653b309d023ca48655,62c53a3be964c2dd719fa9a0,2022-07-06_09h31.51.954,Colour_Asymmetry_Pilot,2022.1.3,Win32,143.8228103,62c50e9c1127f2cd403a315f,0,0,0,97,1,onethree,,,,,,,,,,,,,,,,,,,,,,,,,,,,,,,,,,,,,,,,,,,,,,,,,,,,,,,,,,,,,,,,,,,,,,,,,,,,,,,,,,,,,,,,,,,,,,,,,,,,,,,,,,,,,,,,,,,,,,,,,,,,,,,,,,,,,,,,,,,,,,,,,,,,,,,,,,,,,
,,,,,,5ed772653b309d023ca48655,62c53a3be964c2dd719fa9a0,2022-07-06_09h31.51.954,Colour_Asymmetry_Pilot,2022.1.3,Win32,143.8228103,62c50e9c1127f2cd403a315f,0,1,1,58,1,twoone,,,,,,,,,,,,,,,,,,,,,,,,,,,,,,,,,,,,,,,,,,,,,,,,,,,,,,,,,,,,,,,,,,,,,,,,,,,,,,,,,,,,,,,,,,,,,,,,,,,,,,,,,,,,,,,,,,,,,,,,,,,,,,,,,,,,,,,,,,,,,,,,,,,,,,,,,,,,,
,,,,,,5ed772653b309d023ca48655,62c53a3be964c2dd719fa9a0,2022-07-06_09h31.51.954,Colour_Asymmetry_Pilot,2022.1.3,Win32,143.8228103,62c50e9c1127f2cd403a315f,0,2,2,128,1,onetwo,,,,,,,,,,,,,,,,,,,,,,,,,,,,,,,,,,,,,,,,,,,,,,,,,,,,,,,,,,,,,,,,,,,,,,,,,,,,,,,,,,,,,,,,,,,,,,,,,,,,,,,,,,,,,,,,,,,,,,,,,,,,,,,,,,,,,,,,,,,,,,,,,,,,,,,,,,,,,
,,,,,,5ed772653b309d023ca48655,62c53a3be964c2dd719fa9a0,2022-07-06_09h31.51.954,Colour_Asymmetry_Pilot,2022.1.3,Win32,143.8228103,62c50e9c1127f2cd403a315f,0,3,3,158,1,fourtwo,,,,,,,,,,,,,,,,,,,,,,,,,,,,,,,,,,,,,,,,,,,,,,,,,,,,,,,,,,,,,,,,,,,,,,,,,,,,,,,,,,,,,,,,,,,,,,,,,,,,,,,,,,,,,,,,,,,,,,,,,,,,,,,,,,,,,,,,,,,,,,,,,,,,,,,,,,,,,
,,,,,,5ed772653b309d023ca48655,62c53a3be964c2dd719fa9a0,2022-07-06_09h31.51.954,Colour_Asymmetry_Pilot,2022.1.3,Win32,143.8228103,62c50e9c1127f2cd403a315f,0,4,4,111,1,fourthree,,,,,,,,,,,,,,,,,,,,,,,,,,,,,,,,,,,,,,,,,,,,,,,,,,,,,,,,,,,,,,,,,,,,,,,,,,,,,,,,,,,,,,,,,,,,,,,,,,,,,,,,,,,,,,,,,,,,,,,,,,,,,,,,,,,,,,,,,,,,,,,,,,,,,,,,,,,,,
,,,,,,5ed772653b309d023ca48655,62c53a3be964c2dd719fa9a0,2022-07-06_09h31.51.954,Colour_Asymmetry_Pilot,2022.1.3,Win32,143.8228103,62c50e9c1127f2cd403a315f,0,5,5,115,1,twofour,,,,,,,,,,,,,,,,,,,,,,,,,,,,,,,,,,,,,,,,,,,,,,,,,,,,,,,,,,,,,,,,,,,,,,,,,,,,,,,,,,,,,,,,,,,,,,,,,,,,,,,,,,,,,,,,,,,,,,,,,,,,,,,,,,,,,,,,,,,,,,,,,,,,,,,,,,,,,
,,,,,,5ed772653b309d023ca48655,62c53a3be964c2dd719fa9a0,2022-07-06_09h31.51.954,Colour_Asymmetry_Pilot,2022.1.3,Win32,143.8228103,62c50e9c1127f2cd403a315f,0,6,6,46,1,fourtwo,,,,,,,,,,,,,,,,,,,,,,,,,,,,,,,,,,,,,,,,,,,,,,,,,,,,,,,,,,,,,,,,,,,,,,,,,,,,,,,,,,,,,,,,,,,,,,,,,,,,,,,,,,,,,,,,,,,,,,,,,,,,,,,,,,,,,,,,,,,,,,,,,,,,,,,,,,,,,
,,,,,,5ed772653b309d023ca48655,62c53a3be964c2dd719fa9a0,2022-07-06_09h31.51.954,Colour_Asymmetry_Pilot,2022.1.3,Win32,143.8228103,62c50e9c1127f2cd403a315f,0,7,7,126,1,fourtwo,,,,,,,,,,,,,,,,,,,,,,,,,,,,,,,,,,,,,,,,,,,,,,,,,,,,,,,,,,,,,,,,,,,,,,,,,,,,,,,,,,,,,,,,,,,,,,,,,,,,,,,,,,,,,,,,,,,,,,,,,,,,,,,,,,,,,,,,,,,,,,,,,,,,,,,,,,,,,
,,,,,,5ed772653b309d023ca48655,62c53a3be964c2dd719fa9a0,2022-07-06_09h31.51.954,Colour_Asymmetry_Pilot,2022.1.3,Win32,143.8228103,62c50e9c1127f2cd403a315f,0,8,8,96,1,onetwo,,,,,,,,,,,,,,,,,,,,,,,,,,,,,,,,,,,,,,,,,,,,,,,,,,,,,,,,,,,,,,,,,,,,,,,,,,,,,,,,,,,,,,,,,,,,,,,,,,,,,,,,,,,,,,,,,,,,,,,,,,,,,,,,,,,,,,,,,,,,,,,,,,,,,,,,,,,,,
,,,,,,5ed772653b309d023ca48655,62c53a3be964c2dd719fa9a0,2022-07-06_09h31.51.954,Colour_Asymmetry_Pilot,2022.1.3,Win32,143.8228103,62c50e9c1127f2cd403a315f,0,9,9,85,1,threefour,,,,,,,,,,,,,,,,,,,,,,,,,,,,,,,,,,,,,,,,,,,,,,,,,,,,,,,,,,,,,,,,,,,,,,,,,,,,,,,,,,,,,,,,,,,,,,,,,,,,,,,,,,,,,,,,,,,,,,,,,,,,,,,,,,,,,,,,,,,,,,,,,,,,,,,,,,,,,
,,,,,,5ed772653b309d023ca48655,62c53a3be964c2dd719fa9a0,2022-07-06_09h31.51.954,Colour_Asymmetry_Pilot,2022.1.3,Win32,143.8228103,62c50e9c1127f2cd403a315f,0,10,10,9,1,onethree,,,,,,,,,,,,,,,,,,,,,,,,,,,,,,,,,,,,,,,,,,,,,,,,,,,,,,,,,,,,,,,,,,,,,,,,,,,,,,,,,,,,,,,,,,,,,,,,,,,,,,,,,,,,,,,,,,,,,,,,,,,,,,,,,,,,,,,,,,,,,,,,,,,,,,,,,,,,,
,,,,,,5ed772653b309d023ca48655,62c53a3be964c2dd719fa9a0,2022-07-06_09h31.51.954,Colour_Asymmetry_Pilot,2022.1.3,Win32,143.8228103,62c50e9c1127f2cd403a315f,0,11,11,140,1,threeone,,,,,,,,,,,,,,,,,,,,,,,,,,,,,,,,,,,,,,,,,,,,,,,,,,,,,,,,,,,,,,,,,,,,,,,,,,,,,,,,,,,,,,,,,,,,,,,,,,,,,,,,,,,,,,,,,,,,,,,,,,,,,,,,,,,,,,,,,,,,,,,,,,,,,,,,,,,,,
,,,,,,5ed772653b309d023ca48655,62c53a3be964c2dd719fa9a0,2022-07-06_09h31.51.954,Colour_Asymmetry_Pilot,2022.1.3,Win32,143.8228103,62c50e9c1127f2cd403a315f,0,12,12,88,1,onetwo,,,,,,,,,,,,,,,,,,,,,,,,,,,,,,,,,,,,,,,,,,,,,,,,,,,,,,,,,,,,,,,,,,,,,,,,,,,,,,,,,,,,,,,,,,,,,,,,,,,,,,,,,,,,,,,,,,,,,,,,,,,,,,,,,,,,,,,,,,,,,,,,,,,,,,,,,,,,,
,,,,,,5ed772653b309d023ca48655,62c53a3be964c2dd719fa9a0,2022-07-06_09h31.51.954,Colour_Asymmetry_Pilot,2022.1.3,Win32,143.8228103,62c50e9c1127f2cd403a315f,0,13,13,91,1,twofour,,,,,,,,,,,,,,,,,,,,,,,,,,,,,,,,,,,,,,,,,,,,,,,,,,,,,,,,,,,,,,,,,,,,,,,,,,,,,,,,,,,,,,,,,,,,,,,,,,,,,,,,,,,,,,,,,,,,,,,,,,,,,,,,,,,,,,,,,,,,,,,,,,,,,,,,,,,,,
,,,,,,5ed772653b309d023ca48655,62c53a3be964c2dd719fa9a0,2022-07-06_09h31.51.954,Colour_Asymmetry_Pilot,2022.1.3,Win32,143.8228103,62c50e9c1127f2cd403a315f,0,14,14,112,1,onetwo,,,,,,,,,,,,,,,,,,,,,,,,,,,,,,,,,,,,,,,,,,,,,,,,,,,,,,,,,,,,,,,,,,,,,,,,,,,,,,,,,,,,,,,,,,,,,,,,,,,,,,,,,,,,,,,,,,,,,,,,,,,,,,,,,,,,,,,,,,,,,,,,,,,,,,,,,,,,,
,,,,,,5ed772653b309d023ca48655,62c53a3be964c2dd719fa9a0,2022-07-06_09h31.51.954,Colour_Asymmetry_Pilot,2022.1.3,Win32,143.8228103,62c50e9c1127f2cd403a315f,0,15,15,76,1,threeone,,,,,,,,,,,,,,,,,,,,,,,,,,,,,,,,,,,,,,,,,,,,,,,,,,,,,,,,,,,,,,,,,,,,,,,,,,,,,,,,,,,,,,,,,,,,,,,,,,,,,,,,,,,,,,,,,,,,,,,,,,,,,,,,,,,,,,,,,,,,,,,,,,,,,,,,,,,,,
,,,,,,5ed772653b309d023ca48655,62c53a3be964c2dd719fa9a0,2022-07-06_09h31.51.954,Colour_Asymmetry_Pilot,2022.1.3,Win32,143.8228103,62c50e9c1127f2cd403a315f,0,16,16,109,1,threefour,,,,,,,,,,,,,,,,,,,,,,,,,,,,,,,,,,,,,,,,,,,,,,,,,,,,,,,,,,,,,,,,,,,,,,,,,,,,,,,,,,,,,,,,,,,,,,,,,,,,,,,,,,,,,,,,,,,,,,,,,,,,,,,,,,,,,,,,,,,,,,,,,,,,,,,,,,,,,
,,,,,,5ed772653b309d023ca48655,62c53a3be964c2dd719fa9a0,2022-07-06_09h31.51.954,Colour_Asymmetry_Pilot,2022.1.3,Win32,143.8228103,62c50e9c1127f2cd403a315f,0,17,17,81,1,onethree,,,,,,,,,,,,,,,,,,,,,,,,,,,,,,,,,,,,,,,,,,,,,,,,,,,,,,,,,,,,,,,,,,,,,,,,,,,,,,,,,,,,,,,,,,,,,,,,,,,,,,,,,,,,,,,,,,,,,,,,,,,,,,,,,,,,,,,,,,,,,,,,,,,,,,,,,,,,,
,,,,,,5ed772653b309d023ca48655,62c53a3be964c2dd719fa9a0,2022-07-06_09h31.51.954,Colour_Asymmetry_Pilot,2022.1.3,Win32,143.8228103,62c50e9c1127f2cd403a315f,0,18,18,44,1,threeone,,,,,,,,,,,,,,,,,,,,,,,,,,,,,,,,,,,,,,,,,,,,,,,,,,,,,,,,,,,,,,,,,,,,,,,,,,,,,,,,,,,,,,,,,,,,,,,,,,,,,,,,,,,,,,,,,,,,,,,,,,,,,,,,,,,,,,,,,,,,,,,,,,,,,,,,,,,,,
,,,,,,5ed772653b309d023ca48655,62c53a3be964c2dd719fa9a0,2022-07-06_09h31.51.954,Colour_Asymmetry_Pilot,2022.1.3,Win32,143.8228103,62c50e9c1127f2cd403a315f,0,19,19,105,1,onethree,,,,,,,,,,,,,,,,,,,,,,,,,,,,,,,,,,,,,,,,,,,,,,,,,,,,,,,,,,,,,,,,,,,,,,,,,,,,,,,,,,,,,,,,,,,,,,,,,,,,,,,,,,,,,,,,,,,,,,,,,,,,,,,,,,,,,,,,,,,,,,,,,,,,,,,,,,,,,
,,,,,,5ed772653b309d023ca48655,62c53a3be964c2dd719fa9a0,2022-07-06_09h31.51.954,Colour_Asymmetry_Pilot,2022.1.3,Win32,143.8228103,62c50e9c1127f2cd403a315f,0,20,20,154,1,twoone,,,,,,,,,,,,,,,,,,,,,,,,,,,,,,,,,,,,,,,,,,,,,,,,,,,,,,,,,,,,,,,,,,,,,,,,,,,,,,,,,,,,,,,,,,,,,,,,,,,,,,,,,,,,,,,,,,,,,,,,,,,,,,,,,,,,,,,,,,,,,,,,,,,,,,,,,,,,,
,,,,,,5ed772653b309d023ca48655,62c53a3be964c2dd719fa9a0,2022-07-06_09h31.51.954,Colour_Asymmetry_Pilot,2022.1.3,Win32,143.8228103,62c50e9c1127f2cd403a315f,0,21,21,156,1,threeone,,,,,,,,,,,,,,,,,,,,,,,,,,,,,,,,,,,,,,,,,,,,,,,,,,,,,,,,,,,,,,,,,,,,,,,,,,,,,,,,,,,,,,,,,,,,,,,,,,,,,,,,,,,,,,,,,,,,,,,,,,,,,,,,,,,,,,,,,,,,,,,,,,,,,,,,,,,,,
,,,,,,5ed772653b309d023ca48655,62c53a3be964c2dd719fa9a0,2022-07-06_09h31.51.954,Colour_Asymmetry_Pilot,2022.1.3,Win32,143.8228103,62c50e9c1127f2cd403a315f,0,22,22,2,1,twoone,,,,,,,,,,,,,,,,,,,,,,,,,,,,,,,,,,,,,,,,,,,,,,,,,,,,,,,,,,,,,,,,,,,,,,,,,,,,,,,,,,,,,,,,,,,,,,,,,,,,,,,,,,,,,,,,,,,,,,,,,,,,,,,,,,,,,,,,,,,,,,,,,,,,,,,,,,,,,
,,,,,,5ed772653b309d023ca48655,62c53a3be964c2dd719fa9a0,2022-07-06_09h31.51.954,Colour_Asymmetry_Pilot,2022.1.3,Win32,143.8228103,62c50e9c1127f2cd403a315f,0,23,23,16,1,onetwo,,,,,,,,,,,,,,,,,,,,,,,,,,,,,,,,,,,,,,,,,,,,,,,,,,,,,,,,,,,,,,,,,,,,,,,,,,,,,,,,,,,,,,,,,,,,,,,,,,,,,,,,,,,,,,,,,,,,,,,,,,,,,,,,,,,,,,,,,,,,,,,,,,,,,,,,,,,,,
,,,,,,5ed772653b309d023ca48655,62c53a3be964c2dd719fa9a0,2022-07-06_09h31.51.954,Colour_Asymmetry_Pilot,2022.1.3,Win32,143.8228103,62c50e9c1127f2cd403a315f,0,24,24,84,1,threeone,,,,,,,,,,,,,,,,,,,,,,,,,,,,,,,,,,,,,,,,,,,,,,,,,,,,,,,,,,,,,,,,,,,,,,,,,,,,,,,,,,,,,,,,,,,,,,,,,,,,,,,,,,,,,,,,,,,,,,,,,,,,,,,,,,,,,,,,,,,,,,,,,,,,,,,,,,,,,
,,,,,,5ed772653b309d023ca48655,62c53a3be964c2dd719fa9a0,2022-07-06_09h31.51.954,Colour_Asymmetry_Pilot,2022.1.3,Win32,143.8228103,62c50e9c1127f2cd403a315f,0,25,25,14,1,fourtwo,,,,,,,,,,,,,,,,,,,,,,,,,,,,,,,,,,,,,,,,,,,,,,,,,,,,,,,,,,,,,,,,,,,,,,,,,,,,,,,,,,,,,,,,,,,,,,,,,,,,,,,,,,,,,,,,,,,,,,,,,,,,,,,,,,,,,,,,,,,,,,,,,,,,,,,,,,,,,
,,,,,,5ed772653b309d023ca48655,62c53a3be964c2dd719fa9a0,2022-07-06_09h31.51.954,Colour_Asymmetry_Pilot,2022.1.3,Win32,143.8228103,62c50e9c1127f2cd403a315f,0,26,26,71,1,fourthree,,,,,,,,,,,,,,,,,,,,,,,,,,,,,,,,,,,,,,,,,,,,,,,,,,,,,,,,,,,,,,,,,,,,,,,,,,,,,,,,,,,,,,,,,,,,,,,,,,,,,,,,,,,,,,,,,,,,,,,,,,,,,,,,,,,,,,,,,,,,,,,,,,,,,,,,,,,,,
,,,,,,5ed772653b309d023ca48655,62c53a3be964c2dd719fa9a0,2022-07-06_09h31.51.954,Colour_Asymmetry_Pilot,2022.1.3,Win32,143.8228103,62c50e9c1127f2cd403a315f,0,27,27,125,1,threefour,,,,,,,,,,,,,,,,,,,,,,,,,,,,,,,,,,,,,,,,,,,,,,,,,,,,,,,,,,,,,,,,,,,,,,,,,,,,,,,,,,,,,,,,,,,,,,,,,,,,,,,,,,,,,,,,,,,,,,,,,,,,,,,,,,,,,,,,,,,,,,,,,,,,,,,,,,,,,
,,,,,,5ed772653b309d023ca48655,62c53a3be964c2dd719fa9a0,2022-07-06_09h31.51.954,Colour_Asymmetry_Pilot,2022.1.3,Win32,143.8228103,62c50e9c1127f2cd403a315f,0,28,28,67,1,twofour,,,,,,,,,,,,,,,,,,,,,,,,,,,,,,,,,,,,,,,,,,,,,,,,,,,,,,,,,,,,,,,,,,,,,,,,,,,,,,,,,,,,,,,,,,,,,,,,,,,,,,,,,,,,,,,,,,,,,,,,,,,,,,,,,,,,,,,,,,,,,,,,,,,,,,,,,,,,,
,,,,,,5ed772653b309d023ca48655,62c53a3be964c2dd719fa9a0,2022-07-06_09h31.51.954,Colour_Asymmetry_Pilot,2022.1.3,Win32,143.8228103,62c50e9c1127f2cd403a315f,0,29,29,113,1,onethree,,,,,,,,,,,,,,,,,,,,,,,,,,,,,,,,,,,,,,,,,,,,,,,,,,,,,,,,,,,,,,,,,,,,,,,,,,,,,,,,,,,,,,,,,,,,,,,,,,,,,,,,,,,,,,,,,,,,,,,,,,,,,,,,,,,,,,,,,,,,,,,,,,,,,,,,,,,,,
,,,,,,5ed772653b309d023ca48655,62c53a3be964c2dd719fa9a0,2022-07-06_09h31.51.954,Colour_Asymmetry_Pilot,2022.1.3,Win32,143.8228103,62c50e9c1127f2cd403a315f,0,30,30,94,1,fourtwo,,,,,,,,,,,,,,,,,,,,,,,,,,,,,,,,,,,,,,,,,,,,,,,,,,,,,,,,,,,,,,,,,,,,,,,,,,,,,,,,,,,,,,,,,,,,,,,,,,,,,,,,,,,,,,,,,,,,,,,,,,,,,,,,,,,,,,,,,,,,,,,,,,,,,,,,,,,,,
,,,,,,5ed772653b309d023ca48655,62c53a3be964c2dd719fa9a0,2022-07-06_09h31.51.954,Colour_Asymmetry_Pilot,2022.1.3,Win32,143.8228103,62c50e9c1127f2cd403a315f,0,31,31,3,1,twofour,,,,,,,,,,,,,,,,,,,,,,,,,,,,,,,,,,,,,,,,,,,,,,,,,,,,,,,,,,,,,,,,,,,,,,,,,,,,,,,,,,,,,,,,,,,,,,,,,,,,,,,,,,,,,,,,,,,,,,,,,,,,,,,,,,,,,,,,,,,,,,,,,,,,,,,,,,,,,
,,,,,,5ed772653b309d023ca48655,62c53a3be964c2dd719fa9a0,2022-07-06_09h31.51.954,Colour_Asymmetry_Pilot,2022.1.3,Win32,143.8228103,62c50e9c1127f2cd403a315f,0,32,32,18,1,twoone,,,,,,,,,,,,,,,,,,,,,,,,,,,,,,,,,,,,,,,,,,,,,,,,,,,,,,,,,,,,,,,,,,,,,,,,,,,,,,,,,,,,,,,,,,,,,,,,,,,,,,,,,,,,,,,,,,,,,,,,,,,,,,,,,,,,,,,,,,,,,,,,,,,,,,,,,,,,,
,,,,,,5ed772653b309d023ca48655,62c53a3be964c2dd719fa9a0,2022-07-06_09h31.51.954,Colour_Asymmetry_Pilot,2022.1.3,Win32,143.8228103,62c50e9c1127f2cd403a315f,0,33,33,151,1,fourthree,,,,,,,,,,,,,,,,,,,,,,,,,,,,,,,,,,,,,,,,,,,,,,,,,,,,,,,,,,,,,,,,,,,,,,,,,,,,,,,,,,,,,,,,,,,,,,,,,,,,,,,,,,,,,,,,,,,,,,,,,,,,,,,,,,,,,,,,,,,,,,,,,,,,,,,,,,,,,
,,,,,,5ed772653b309d023ca48655,62c53a3be964c2dd719fa9a0,2022-07-06_09h31.51.954,Colour_Asymmetry_Pilot,2022.1.3,Win32,143.8228103,62c50e9c1127f2cd403a315f,0,34,34,69,1,threefour,,,,,,,,,,,,,,,,,,,,,,,,,,,,,,,,,,,,,,,,,,,,,,,,,,,,,,,,,,,,,,,,,,,,,,,,,,,,,,,,,,,,,,,,,,,,,,,,,,,,,,,,,,,,,,,,,,,,,,,,,,,,,,,,,,,,,,,,,,,,,,,,,,,,,,,,,,,,,
,,,,,,5ed772653b309d023ca48655,62c53a3be964c2dd719fa9a0,2022-07-06_09h31.51.954,Colour_Asymmetry_Pilot,2022.1.3,Win32,143.8228103,62c50e9c1127f2cd403a315f,0,35,35,160,1,onetwo,,,,,,,,,,,,,,,,,,,,,,,,,,,,,,,,,,,,,,,,,,,,,,,,,,,,,,,,,,,,,,,,,,,,,,,,,,,,,,,,,,,,,,,,,,,,,,,,,,,,,,,,,,,,,,,,,,,,,,,,,,,,,,,,,,,,,,,,,,,,,,,,,,,,,,,,,,,,,
,,,,,,5ed772653b309d023ca48655,62c53a3be964c2dd719fa9a0,2022-07-06_09h31.51.954,Colour_Asymmetry_Pilot,2022.1.3,Win32,143.8228103,62c50e9c1127f2cd403a315f,0,36,36,50,1,twoone,,,,,,,,,,,,,,,,,,,,,,,,,,,,,,,,,,,,,,,,,,,,,,,,,,,,,,,,,,,,,,,,,,,,,,,,,,,,,,,,,,,,,,,,,,,,,,,,,,,,,,,,,,,,,,,,,,,,,,,,,,,,,,,,,,,,,,,,,,,,,,,,,,,,,,,,,,,,,
,,,,,,5ed772653b309d023ca48655,62c53a3be964c2dd719fa9a0,2022-07-06_09h31.51.954,Colour_Asymmetry_Pilot,2022.1.3,Win32,143.8228103,62c50e9c1127f2cd403a315f,0,37,37,24,1,onetwo,,,,,,,,,,,,,,,,,,,,,,,,,,,,,,,,,,,,,,,,,,,,,,,,,,,,,,,,,,,,,,,,,,,,,,,,,,,,,,,,,,,,,,,,,,,,,,,,,,,,,,,,,,,,,,,,,,,,,,,,,,,,,,,,,,,,,,,,,,,,,,,,,,,,,,,,,,,,,
,,,,,,5ed772653b309d023ca48655,62c53a3be964c2dd719fa9a0,2022-07-06_09h31.51.954,Colour_Asymmetry_Pilot,2022.1.3,Win32,143.8228103,62c50e9c1127f2cd403a315f,0,38,38,26,1,twoone,,,,,,,,,,,,,,,,,,,,,,,,,,,,,,,,,,,,,,,,,,,,,,,,,,,,,,,,,,,,,,,,,,,,,,,,,,,,,,,,,,,,,,,,,,,,,,,,,,,,,,,,,,,,,,,,,,,,,,,,,,,,,,,,,,,,,,,,,,,,,,,,,,,,,,,,,,,,,
,,,,,,5ed772653b309d023ca48655,62c53a3be964c2dd719fa9a0,2022-07-06_09h31.51.954,Colour_Asymmetry_Pilot,2022.1.3,Win32,143.8228103,62c50e9c1127f2cd403a315f,0,39,39,98,1,twoone,,,,,,,,,,,,,,,,,,,,,,,,,,,,,,,,,,,,,,,,,,,,,,,,,,,,,,,,,,,,,,,,,,,,,,,,,,,,,,,,,,,,,,,,,,,,,,,,,,,,,,,,,,,,,,,,,,,,,,,,,,,,,,,,,,,,,,,,,,,,,,,,,,,,,,,,,,,,,
,,,,,,5ed772653b309d023ca48655,62c53a3be964c2dd719fa9a0,2022-07-06_09h31.51.954,Colour_Asymmetry_Pilot,2022.1.3,Win32,143.8228103,62c50e9c1127f2cd403a315f,0,40,40,130,1,twoone,,,,,,,,,,,,,,,,,,,,,,,,,,,,,,,,,,,,,,,,,,,,,,,,,,,,,,,,,,,,,,,,,,,,,,,,,,,,,,,,,,,,,,,,,,,,,,,,,,,,,,,,,,,,,,,,,,,,,,,,,,,,,,,,,,,,,,,,,,,,,,,,,,,,,,,,,,,,,
,,,,,,5ed772653b309d023ca48655,62c53a3be964c2dd719fa9a0,2022-07-06_09h31.51.954,Colour_Asymmetry_Pilot,2022.1.3,Win32,143.8228103,62c50e9c1127f2cd403a315f,0,41,41,21,1,threefour,,,,,,,,,,,,,,,,,,,,,,,,,,,,,,,,,,,,,,,,,,,,,,,,,,,,,,,,,,,,,,,,,,,,,,,,,,,,,,,,,,,,,,,,,,,,,,,,,,,,,,,,,,,,,,,,,,,,,,,,,,,,,,,,,,,,,,,,,,,,,,,,,,,,,,,,,,,,,
,,,,,,5ed772653b309d023ca48655,62c53a3be964c2dd719fa9a0,2022-07-06_09h31.51.954,Colour_Asymmetry_Pilot,2022.1.3,Win32,143.8228103,62c50e9c1127f2cd403a315f,0,42,42,34,1,twoone,,,,,,,,,,,,,,,,,,,,,,,,,,,,,,,,,,,,,,,,,,,,,,,,,,,,,,,,,,,,,,,,,,,,,,,,,,,,,,,,,,,,,,,,,,,,,,,,,,,,,,,,,,,,,,,,,,,,,,,,,,,,,,,,,,,,,,,,,,,,,,,,,,,,,,,,,,,,,
,,,,,,5ed772653b309d023ca48655,62c53a3be964c2dd719fa9a0,2022-07-06_09h31.51.954,Colour_Asymmetry_Pilot,2022.1.3,Win32,143.8228103,62c50e9c1127f2cd403a315f,0,43,43,159,1,fourthree,,,,,,,,,,,,,,,,,,,,,,,,,,,,,,,,,,,,,,,,,,,,,,,,,,,,,,,,,,,,,,,,,,,,,,,,,,,,,,,,,,,,,,,,,,,,,,,,,,,,,,,,,,,,,,,,,,,,,,,,,,,,,,,,,,,,,,,,,,,,,,,,,,,,,,,,,,,,,
,,,,,,5ed772653b309d023ca48655,62c53a3be964c2dd719fa9a0,2022-07-06_09h31.51.954,Colour_Asymmetry_Pilot,2022.1.3,Win32,143.8228103,62c50e9c1127f2cd403a315f,0,44,44,148,1,threeone,,,,,,,,,,,,,,,,,,,,,,,,,,,,,,,,,,,,,,,,,,,,,,,,,,,,,,,,,,,,,,,,,,,,,,,,,,,,,,,,,,,,,,,,,,,,,,,,,,,,,,,,,,,,,,,,,,,,,,,,,,,,,,,,,,,,,,,,,,,,,,,,,,,,,,,,,,,,,
,,,,,,5ed772653b309d023ca48655,62c53a3be964c2dd719fa9a0,2022-07-06_09h31.51.954,Colour_Asymmetry_Pilot,2022.1.3,Win32,143.8228103,62c50e9c1127f2cd403a315f,0,45,45,15,1,fourthree,,,,,,,,,,,,,,,,,,,,,,,,,,,,,,,,,,,,,,,,,,,,,,,,,,,,,,,,,,,,,,,,,,,,,,,,,,,,,,,,,,,,,,,,,,,,,,,,,,,,,,,,,,,,,,,,,,,,,,,,,,,,,,,,,,,,,,,,,,,,,,,,,,,,,,,,,,,,,
,,,,,,5ed772653b309d023ca48655,62c53a3be964c2dd719fa9a0,2022-07-06_09h31.51.954,Colour_Asymmetry_Pilot,2022.1.3,Win32,143.8228103,62c50e9c1127f2cd403a315f,0,46,46,93,1,threefour,,,,,,,,,,,,,,,,,,,,,,,,,,,,,,,,,,,,,,,,,,,,,,,,,,,,,,,,,,,,,,,,,,,,,,,,,,,,,,,,,,,,,,,,,,,,,,,,,,,,,,,,,,,,,,,,,,,,,,,,,,,,,,,,,,,,,,,,,,,,,,,,,,,,,,,,,,,,,
,,,,,,5ed772653b309d023ca48655,62c53a3be964c2dd719fa9a0,2022-07-06_09h31.51.954,Colour_Asymmetry_Pilot,2022.1.3,Win32,143.8228103,62c50e9c1127f2cd403a315f,0,47,47,68,1,threeone,,,,,,,,,,,,,,,,,,,,,,,,,,,,,,,,,,,,,,,,,,,,,,,,,,,,,,,,,,,,,,,,,,,,,,,,,,,,,,,,,,,,,,,,,,,,,,,,,,,,,,,,,,,,,,,,,,,,,,,,,,,,,,,,,,,,,,,,,,,,,,,,,,,,,,,,,,,,,
,,,,,,5ed772653b309d023ca48655,62c53a3be964c2dd719fa9a0,2022-07-06_09h31.51.954,Colour_Asymmetry_Pilot,2022.1.3,Win32,143.8228103,62c50e9c1127f2cd403a315f,0,48,48,33,1,onethree,,,,,,,,,,,,,,,,,,,,,,,,,,,,,,,,,,,,,,,,,,,,,,,,,,,,,,,,,,,,,,,,,,,,,,,,,,,,,,,,,,,,,,,,,,,,,,,,,,,,,,,,,,,,,,,,,,,,,,,,,,,,,,,,,,,,,,,,,,,,,,,,,,,,,,,,,,,,,
,,,,,,5ed772653b309d023ca48655,62c53a3be964c2dd719fa9a0,2022-07-06_09h31.51.954,Colour_Asymmetry_Pilot,2022.1.3,Win32,143.8228103,62c50e9c1127f2cd403a315f,0,49,49,118,1,fourtwo,,,,,,,,,,,,,,,,,,,,,,,,,,,,,,,,,,,,,,,,,,,,,,,,,,,,,,,,,,,,,,,,,,,,,,,,,,,,,,,,,,,,,,,,,,,,,,,,,,,,,,,,,,,,,,,,,,,,,,,,,,,,,,,,,,,,,,,,,,,,,,,,,,,,,,,,,,,,,
,,,,,,5ed772653b309d023ca48655,62c53a3be964c2dd719fa9a0,2022-07-06_09h31.51.954,Colour_Asymmetry_Pilot,2022.1.3,Win32,143.8228103,62c50e9c1127f2cd403a315f,0,50,50,121,1,onethree,,,,,,,,,,,,,,,,,,,,,,,,,,,,,,,,,,,,,,,,,,,,,,,,,,,,,,,,,,,,,,,,,,,,,,,,,,,,,,,,,,,,,,,,,,,,,,,,,,,,,,,,,,,,,,,,,,,,,,,,,,,,,,,,,,,,,,,,,,,,,,,,,,,,,,,,,,,,,
,,,,,,5ed772653b309d023ca48655,62c53a3be964c2dd719fa9a0,2022-07-06_09h31.51.954,Colour_Asymmetry_Pilot,2022.1.3,Win32,143.8228103,62c50e9c1127f2cd403a315f,0,51,51,138,1,twoone,,,,,,,,,,,,,,,,,,,,,,,,,,,,,,,,,,,,,,,,,,,,,,,,,,,,,,,,,,,,,,,,,,,,,,,,,,,,,,,,,,,,,,,,,,,,,,,,,,,,,,,,,,,,,,,,,,,,,,,,,,,,,,,,,,,,,,,,,,,,,,,,,,,,,,,,,,,,,
,,,,,,5ed772653b309d023ca48655,62c53a3be964c2dd719fa9a0,2022-07-06_09h31.51.954,Colour_Asymmetry_Pilot,2022.1.3,Win32,143.8228103,62c50e9c1127f2cd403a315f,0,52,52,139,1,twofour,,,,,,,,,,,,,,,,,,,,,,,,,,,,,,,,,,,,,,,,,,,,,,,,,,,,,,,,,,,,,,,,,,,,,,,,,,,,,,,,,,,,,,,,,,,,,,,,,,,,,,,,,,,,,,,,,,,,,,,,,,,,,,,,,,,,,,,,,,,,,,,,,,,,,,,,,,,,,
,,,,,,5ed772653b309d023ca48655,62c53a3be964c2dd719fa9a0,2022-07-06_09h31.51.954,Colour_Asymmetry_Pilot,2022.1.3,Win32,143.8228103,62c50e9c1127f2cd403a315f,0,53,53,60,1,threeone,,,,,,,,,,,,,,,,,,,,,,,,,,,,,,,,,,,,,,,,,,,,,,,,,,,,,,,,,,,,,,,,,,,,,,,,,,,,,,,,,,,,,,,,,,,,,,,,,,,,,,,,,,,,,,,,,,,,,,,,,,,,,,,,,,,,,,,,,,,,,,,,,,,,,,,,,,,,,
,,,,,,5ed772653b309d023ca48655,62c53a3be964c2dd719fa9a0,2022-07-06_09h31.51.954,Colour_Asymmetry_Pilot,2022.1.3,Win32,143.8228103,62c50e9c1127f2cd403a315f,0,54,54,42,1,twoone,,,,,,,,,,,,,,,,,,,,,,,,,,,,,,,,,,,,,,,,,,,,,,,,,,,,,,,,,,,,,,,,,,,,,,,,,,,,,,,,,,,,,,,,,,,,,,,,,,,,,,,,,,,,,,,,,,,,,,,,,,,,,,,,,,,,,,,,,,,,,,,,,,,,,,,,,,,,,
,,,,,,5ed772653b309d023ca48655,62c53a3be964c2dd719fa9a0,2022-07-06_09h31.51.954,Colour_Asymmetry_Pilot,2022.1.3,Win32,143.8228103,62c50e9c1127f2cd403a315f,0,55,55,6,1,fourtwo,,,,,,,,,,,,,,,,,,,,,,,,,,,,,,,,,,,,,,,,,,,,,,,,,,,,,,,,,,,,,,,,,,,,,,,,,,,,,,,,,,,,,,,,,,,,,,,,,,,,,,,,,,,,,,,,,,,,,,,,,,,,,,,,,,,,,,,,,,,,,,,,,,,,,,,,,,,,,
,,,,,,5ed772653b309d023ca48655,62c53a3be964c2dd719fa9a0,2022-07-06_09h31.51.954,Colour_Asymmetry_Pilot,2022.1.3,Win32,143.8228103,62c50e9c1127f2cd403a315f,0,56,56,20,1,threeone,,,,,,,,,,,,,,,,,,,,,,,,,,,,,,,,,,,,,,,,,,,,,,,,,,,,,,,,,,,,,,,,,,,,,,,,,,,,,,,,,,,,,,,,,,,,,,,,,,,,,,,,,,,,,,,,,,,,,,,,,,,,,,,,,,,,,,,,,,,,,,,,,,,,,,,,,,,,,
,,,,,,5ed772653b309d023ca48655,62c53a3be964c2dd719fa9a0,2022-07-06_09h31.51.954,Colour_Asymmetry_Pilot,2022.1.3,Win32,143.8228103,62c50e9c1127f2cd403a315f,0,57,57,32,1,onetwo,,,,,,,,,,,,,,,,,,,,,,,,,,,,,,,,,,,,,,,,,,,,,,,,,,,,,,,,,,,,,,,,,,,,,,,,,,,,,,,,,,,,,,,,,,,,,,,,,,,,,,,,,,,,,,,,,,,,,,,,,,,,,,,,,,,,,,,,,,,,,,,,,,,,,,,,,,,,,
,,,,,,5ed772653b309d023ca48655,62c53a3be964c2dd719fa9a0,2022-07-06_09h31.51.954,Colour_Asymmetry_Pilot,2022.1.3,Win32,143.8228103,62c50e9c1127f2cd403a315f,0,58,58,101,1,threefour,,,,,,,,,,,,,,,,,,,,,,,,,,,,,,,,,,,,,,,,,,,,,,,,,,,,,,,,,,,,,,,,,,,,,,,,,,,,,,,,,,,,,,,,,,,,,,,,,,,,,,,,,,,,,,,,,,,,,,,,,,,,,,,,,,,,,,,,,,,,,,,,,,,,,,,,,,,,,
,,,,,,5ed772653b309d023ca48655,62c53a3be964c2dd719fa9a0,2022-07-06_09h31.51.954,Colour_Asymmetry_Pilot,2022.1.3,Win32,143.8228103,62c50e9c1127f2cd403a315f,0,59,59,119,1,fourthree,,,,,,,,,,,,,,,,,,,,,,,,,,,,,,,,,,,,,,,,,,,,,,,,,,,,,,,,,,,,,,,,,,,,,,,,,,,,,,,,,,,,,,,,,,,,,,,,,,,,,,,,,,,,,,,,,,,,,,,,,,,,,,,,,,,,,,,,,,,,,,,,,,,,,,,,,,,,,
,,,,,,5ed772653b309d023ca48655,62c53a3be964c2dd719fa9a0,2022-07-06_09h31.51.954,Colour_Asymmetry_Pilot,2022.1.3,Win32,143.8228103,62c50e9c1127f2cd403a315f,0,60,60,49,1,onethree,,,,,,,,,,,,,,,,,,,,,,,,,,,,,,,,,,,,,,,,,,,,,,,,,,,,,,,,,,,,,,,,,,,,,,,,,,,,,,,,,,,,,,,,,,,,,,,,,,,,,,,,,,,,,,,,,,,,,,,,,,,,,,,,,,,,,,,,,,,,,,,,,,,,,,,,,,,,,
,,,,,,5ed772653b309d023ca48655,62c53a3be964c2dd719fa9a0,2022-07-06_09h31.51.954,Colour_Asymmetry_Pilot,2022.1.3,Win32,143.8228103,62c50e9c1127f2cd403a315f,0,61,61,74,1,twoone,,,,,,,,,,,,,,,,,,,,,,,,,,,,,,,,,,,,,,,,,,,,,,,,,,,,,,,,,,,,,,,,,,,,,,,,,,,,,,,,,,,,,,,,,,,,,,,,,,,,,,,,,,,,,,,,,,,,,,,,,,,,,,,,,,,,,,,,,,,,,,,,,,,,,,,,,,,,,
,,,,,,5ed772653b309d023ca48655,62c53a3be964c2dd719fa9a0,2022-07-06_09h31.51.954,Colour_Asymmetry_Pilot,2022.1.3,Win32,143.8228103,62c50e9c1127f2cd403a315f,0,62,62,75,1,twofour,,,,,,,,,,,,,,,,,,,,,,,,,,,,,,,,,,,,,,,,,,,,,,,,,,,,,,,,,,,,,,,,,,,,,,,,,,,,,,,,,,,,,,,,,,,,,,,,,,,,,,,,,,,,,,,,,,,,,,,,,,,,,,,,,,,,,,,,,,,,,,,,,,,,,,,,,,,,,
,,,,,,5ed772653b309d023ca48655,62c53a3be964c2dd719fa9a0,2022-07-06_09h31.51.954,Colour_Asymmetry_Pilot,2022.1.3,Win32,143.8228103,62c50e9c1127f2cd403a315f,0,63,63,63,1,fourthree,,,,,,,,,,,,,,,,,,,,,,,,,,,,,,,,,,,,,,,,,,,,,,,,,,,,,,,,,,,,,,,,,,,,,,,,,,,,,,,,,,,,,,,,,,,,,,,,,,,,,,,,,,,,,,,,,,,,,,,,,,,,,,,,,,,,,,,,,,,,,,,,,,,,,,,,,,,,,
,,,,,,5ed772653b309d023ca48655,62c53a3be964c2dd719fa9a0,2022-07-06_09h31.51.954,Colour_Asymmetry_Pilot,2022.1.3,Win32,143.8228103,62c50e9c1127f2cd403a315f,0,64,64,87,1,fourthree,,,,,,,,,,,,,,,,,,,,,,,,,,,,,,,,,,,,,,,,,,,,,,,,,,,,,,,,,,,,,,,,,,,,,,,,,,,,,,,,,,,,,,,,,,,,,,,,,,,,,,,,,,,,,,,,,,,,,,,,,,,,,,,,,,,,,,,,,,,,,,,,,,,,,,,,,,,,,
,,,,,,5ed772653b309d023ca48655,62c53a3be964c2dd719fa9a0,2022-07-06_09h31.51.954,Colour_Asymmetry_Pilot,2022.1.3,Win32,143.8228103,62c50e9c1127f2cd403a315f,0,65,65,108,1,threeone,,,,,,,,,,,,,,,,,,,,,,,,,,,,,,,,,,,,,,,,,,,,,,,,,,,,,,,,,,,,,,,,,,,,,,,,,,,,,,,,,,,,,,,,,,,,,,,,,,,,,,,,,,,,,,,,,,,,,,,,,,,,,,,,,,,,,,,,,,,,,,,,,,,,,,,,,,,,,
,,,,,,5ed772653b309d023ca48655,62c53a3be964c2dd719fa9a0,2022-07-06_09h31.51.954,Colour_Asymmetry_Pilot,2022.1.3,Win32,143.8228103,62c50e9c1127f2cd403a315f,0,66,66,90,1,twoone,,,,,,,,,,,,,,,,,,,,,,,,,,,,,,,,,,,,,,,,,,,,,,,,,,,,,,,,,,,,,,,,,,,,,,,,,,,,,,,,,,,,,,,,,,,,,,,,,,,,,,,,,,,,,,,,,,,,,,,,,,,,,,,,,,,,,,,,,,,,,,,,,,,,,,,,,,,,,
,,,,,,5ed772653b309d023ca48655,62c53a3be964c2dd719fa9a0,2022-07-06_09h31.51.954,Colour_Asymmetry_Pilot,2022.1.3,Win32,143.8228103,62c50e9c1127f2cd403a315f,0,67,67,48,1,onetwo,,,,,,,,,,,,,,,,,,,,,,,,,,,,,,,,,,,,,,,,,,,,,,,,,,,,,,,,,,,,,,,,,,,,,,,,,,,,,,,,,,,,,,,,,,,,,,,,,,,,,,,,,,,,,,,,,,,,,,,,,,,,,,,,,,,,,,,,,,,,,,,,,,,,,,,,,,,,,
,,,,,,5ed772653b309d023ca48655,62c53a3be964c2dd719fa9a0,2022-07-06_09h31.51.954,Colour_Asymmetry_Pilot,2022.1.3,Win32,143.8228103,62c50e9c1127f2cd403a315f,0,68,68,77,1,threefour,,,,,,,,,,,,,,,,,,,,,,,,,,,,,,,,,,,,,,,,,,,,,,,,,,,,,,,,,,,,,,,,,,,,,,,,,,,,,,,,,,,,,,,,,,,,,,,,,,,,,,,,,,,,,,,,,,,,,,,,,,,,,,,,,,,,,,,,,,,,,,,,,,,,,,,,,,,,,
,,,,,,5ed772653b309d023ca48655,62c53a3be964c2dd719fa9a0,2022-07-06_09h31.51.954,Colour_Asymmetry_Pilot,2022.1.3,Win32,143.8228103,62c50e9c1127f2cd403a315f,0,69,69,19,1,twofour,,,,,,,,,,,,,,,,,,,,,,,,,,,,,,,,,,,,,,,,,,,,,,,,,,,,,,,,,,,,,,,,,,,,,,,,,,,,,,,,,,,,,,,,,,,,,,,,,,,,,,,,,,,,,,,,,,,,,,,,,,,,,,,,,,,,,,,,,,,,,,,,,,,,,,,,,,,,,
,,,,,,5ed772653b309d023ca48655,62c53a3be964c2dd719fa9a0,2022-07-06_09h31.51.954,Colour_Asymmetry_Pilot,2022.1.3,Win32,143.8228103,62c50e9c1127f2cd403a315f,0,70,70,152,1,onetwo,,,,,,,,,,,,,,,,,,,,,,,,,,,,,,,,,,,,,,,,,,,,,,,,,,,,,,,,,,,,,,,,,,,,,,,,,,,,,,,,,,,,,,,,,,,,,,,,,,,,,,,,,,,,,,,,,,,,,,,,,,,,,,,,,,,,,,,,,,,,,,,,,,,,,,,,,,,,,
,,,,,,5ed772653b309d023ca48655,62c53a3be964c2dd719fa9a0,2022-07-06_09h31.51.954,Colour_Asymmetry_Pilot,2022.1.3,Win32,143.8228103,62c50e9c1127f2cd403a315f,0,71,71,100,1,threeone,,,,,,,,,,,,,,,,,,,,,,,,,,,,,,,,,,,,,,,,,,,,,,,,,,,,,,,,,,,,,,,,,,,,,,,,,,,,,,,,,,,,,,,,,,,,,,,,,,,,,,,,,,,,,,,,,,,,,,,,,,,,,,,,,,,,,,,,,,,,,,,,,,,,,,,,,,,,,
,,,,,,5ed772653b309d023ca48655,62c53a3be964c2dd719fa9a0,2022-07-06_09h31.51.954,Colour_Asymmetry_Pilot,2022.1.3,Win32,143.8228103,62c50e9c1127f2cd403a315f,0,72,72,43,1,twofour,,,,,,,,,,,,,,,,,,,,,,,,,,,,,,,,,,,,,,,,,,,,,,,,,,,,,,,,,,,,,,,,,,,,,,,,,,,,,,,,,,,,,,,,,,,,,,,,,,,,,,,,,,,,,,,,,,,,,,,,,,,,,,,,,,,,,,,,,,,,,,,,,,,,,,,,,,,,,
,,,,,,5ed772653b309d023ca48655,62c53a3be964c2dd719fa9a0,2022-07-06_09h31.51.954,Colour_Asymmetry_Pilot,2022.1.3,Win32,143.8228103,62c50e9c1127f2cd403a315f,0,73,73,17,1,onethree,,,,,,,,,,,,,,,,,,,,,,,,,,,,,,,,,,,,,,,,,,,,,,,,,,,,,,,,,,,,,,,,,,,,,,,,,,,,,,,,,,,,,,,,,,,,,,,,,,,,,,,,,,,,,,,,,,,,,,,,,,,,,,,,,,,,,,,,,,,,,,,,,,,,,,,,,,,,,
,,,,,,5ed772653b309d023ca48655,62c53a3be964c2dd719fa9a0,2022-07-06_09h31.51.954,Colour_Asymmetry_Pilot,2022.1.3,Win32,143.8228103,62c50e9c1127f2cd403a315f,0,74,74,53,1,threefour,,,,,,,,,,,,,,,,,,,,,,,,,,,,,,,,,,,,,,,,,,,,,,,,,,,,,,,,,,,,,,,,,,,,,,,,,,,,,,,,,,,,,,,,,,,,,,,,,,,,,,,,,,,,,,,,,,,,,,,,,,,,,,,,,,,,,,,,,,,,,,,,,,,,,,,,,,,,,
,,,,,,5ed772653b309d023ca48655,62c53a3be964c2dd719fa9a0,2022-07-06_09h31.51.954,Colour_Asymmetry_Pilot,2022.1.3,Win32,143.8228103,62c50e9c1127f2cd403a315f,0,75,75,45,1,threefour,,,,,,,,,,,,,,,,,,,,,,,,,,,,,,,,,,,,,,,,,,,,,,,,,,,,,,,,,,,,,,,,,,,,,,,,,,,,,,,,,,,,,,,,,,,,,,,,,,,,,,,,,,,,,,,,,,,,,,,,,,,,,,,,,,,,,,,,,,,,,,,,,,,,,,,,,,,,,
,,,,,,5ed772653b309d023ca48655,62c53a3be964c2dd719fa9a0,2022-07-06_09h31.51.954,Colour_Asymmetry_Pilot,2022.1.3,Win32,143.8228103,62c50e9c1127f2cd403a315f,0,76,76,54,1,fourtwo,,,,,,,,,,,,,,,,,,,,,,,,,,,,,,,,,,,,,,,,,,,,,,,,,,,,,,,,,,,,,,,,,,,,,,,,,,,,,,,,,,,,,,,,,,,,,,,,,,,,,,,,,,,,,,,,,,,,,,,,,,,,,,,,,,,,,,,,,,,,,,,,,,,,,,,,,,,,,
,,,,,,5ed772653b309d023ca48655,62c53a3be964c2dd719fa9a0,2022-07-06_09h31.51.954,Colour_Asymmetry_Pilot,2022.1.3,Win32,143.8228103,62c50e9c1127f2cd403a315f,0,77,77,13,1,threefour,,,,,,,,,,,,,,,,,,,,,,,,,,,,,,,,,,,,,,,,,,,,,,,,,,,,,,,,,,,,,,,,,,,,,,,,,,,,,,,,,,,,,,,,,,,,,,,,,,,,,,,,,,,,,,,,,,,,,,,,,,,,,,,,,,,,,,,,,,,,,,,,,,,,,,,,,,,,,
,,,,,,5ed772653b309d023ca48655,62c53a3be964c2dd719fa9a0,2022-07-06_09h31.51.954,Colour_Asymmetry_Pilot,2022.1.3,Win32,143.8228103,62c50e9c1127f2cd403a315f,0,78,78,55,1,fourthree,,,,,,,,,,,,,,,,,,,,,,,,,,,,,,,,,,,,,,,,,,,,,,,,,,,,,,,,,,,,,,,,,,,,,,,,,,,,,,,,,,,,,,,,,,,,,,,,,,,,,,,,,,,,,,,,,,,,,,,,,,,,,,,,,,,,,,,,,,,,,,,,,,,,,,,,,,,,,
,,,,,,5ed772653b309d023ca48655,62c53a3be964c2dd719fa9a0,2022-07-06_09h31.51.954,Colour_Asymmetry_Pilot,2022.1.3,Win32,143.8228103,62c50e9c1127f2cd403a315f,0,79,79,155,1,twofour,,,,,,,,,,,,,,,,,,,,,,,,,,,,,,,,,,,,,,,,,,,,,,,,,,,,,,,,,,,,,,,,,,,,,,,,,,,,,,,,,,,,,,,,,,,,,,,,,,,,,,,,,,,,,,,,,,,,,,,,,,,,,,,,,,,,,,,,,,,,,,,,,,,,,,,,,,,,,
,,,,,,5ed772653b309d023ca48655,62c53a3be964c2dd719fa9a0,2022-07-06_09h31.51.954,Colour_Asymmetry_Pilot,2022.1.3,Win32,143.8228103,62c50e9c1127f2cd403a315f,0,80,80,59,1,twofour,,,,,,,,,,,,,,,,,,,,,,,,,,,,,,,,,,,,,,,,,,,,,,,,,,,,,,,,,,,,,,,,,,,,,,,,,,,,,,,,,,,,,,,,,,,,,,,,,,,,,,,,,,,,,,,,,,,,,,,,,,,,,,,,,,,,,,,,,,,,,,,,,,,,,,,,,,,,,
,,,,,,5ed772653b309d023ca48655,62c53a3be964c2dd719fa9a0,2022-07-06_09h31.51.954,Colour_Asymmetry_Pilot,2022.1.3,Win32,143.8228103,62c50e9c1127f2cd403a315f,0,81,81,124,1,threeone,,,,,,,,,,,,,,,,,,,,,,,,,,,,,,,,,,,,,,,,,,,,,,,,,,,,,,,,,,,,,,,,,,,,,,,,,,,,,,,,,,,,,,,,,,,,,,,,,,,,,,,,,,,,,,,,,,,,,,,,,,,,,,,,,,,,,,,,,,,,,,,,,,,,,,,,,,,,,
,,,,,,5ed772653b309d023ca48655,62c53a3be964c2dd719fa9a0,2022-07-06_09h31.51.954,Colour_Asymmetry_Pilot,2022.1.3,Win32,143.8228103,62c50e9c1127f2cd403a315f,0,82,82,36,1,threeone,,,,,,,,,,,,,,,,,,,,,,,,,,,,,,,,,,,,,,,,,,,,,,,,,,,,,,,,,,,,,,,,,,,,,,,,,,,,,,,,,,,,,,,,,,,,,,,,,,,,,,,,,,,,,,,,,,,,,,,,,,,,,,,,,,,,,,,,,,,,,,,,,,,,,,,,,,,,,
,,,,,,5ed772653b309d023ca48655,62c53a3be964c2dd719fa9a0,2022-07-06_09h31.51.954,Colour_Asymmetry_Pilot,2022.1.3,Win32,143.8228103,62c50e9c1127f2cd403a315f,0,83,83,79,1,fourthree,,,,,,,,,,,,,,,,,,,,,,,,,,,,,,,,,,,,,,,,,,,,,,,,,,,,,,,,,,,,,,,,,,,,,,,,,,,,,,,,,,,,,,,,,,,,,,,,,,,,,,,,,,,,,,,,,,,,,,,,,,,,,,,,,,,,,,,,,,,,,,,,,,,,,,,,,,,,,
,,,,,,5ed772653b309d023ca48655,62c53a3be964c2dd719fa9a0,2022-07-06_09h31.51.954,Colour_Asymmetry_Pilot,2022.1.3,Win32,143.8228103,62c50e9c1127f2cd403a315f,0,84,84,83,1,twofour,,,,,,,,,,,,,,,,,,,,,,,,,,,,,,,,,,,,,,,,,,,,,,,,,,,,,,,,,,,,,,,,,,,,,,,,,,,,,,,,,,,,,,,,,,,,,,,,,,,,,,,,,,,,,,,,,,,,,,,,,,,,,,,,,,,,,,,,,,,,,,,,,,,,,,,,,,,,,
,,,,,,5ed772653b309d023ca48655,62c53a3be964c2dd719fa9a0,2022-07-06_09h31.51.954,Colour_Asymmetry_Pilot,2022.1.3,Win32,143.8228103,62c50e9c1127f2cd403a315f,0,85,85,135,1,fourthree,,,,,,,,,,,,,,,,,,,,,,,,,,,,,,,,,,,,,,,,,,,,,,,,,,,,,,,,,,,,,,,,,,,,,,,,,,,,,,,,,,,,,,,,,,,,,,,,,,,,,,,,,,,,,,,,,,,,,,,,,,,,,,,,,,,,,,,,,,,,,,,,,,,,,,,,,,,,,
,,,,,,5ed772653b309d023ca48655,62c53a3be964c2dd719fa9a0,2022-07-06_09h31.51.954,Colour_Asymmetry_Pilot,2022.1.3,Win32,143.8228103,62c50e9c1127f2cd403a315f,0,86,86,123,1,twofour,,,,,,,,,,,,,,,,,,,,,,,,,,,,,,,,,,,,,,,,,,,,,,,,,,,,,,,,,,,,,,,,,,,,,,,,,,,,,,,,,,,,,,,,,,,,,,,,,,,,,,,,,,,,,,,,,,,,,,,,,,,,,,,,,,,,,,,,,,,,,,,,,,,,,,,,,,,,,
,,,,,,5ed772653b309d023ca48655,62c53a3be964c2dd719fa9a0,2022-07-06_09h31.51.954,Colour_Asymmetry_Pilot,2022.1.3,Win32,143.8228103,62c50e9c1127f2cd403a315f,0,87,87,142,1,fourtwo,,,,,,,,,,,,,,,,,,,,,,,,,,,,,,,,,,,,,,,,,,,,,,,,,,,,,,,,,,,,,,,,,,,,,,,,,,,,,,,,,,,,,,,,,,,,,,,,,,,,,,,,,,,,,,,,,,,,,,,,,,,,,,,,,,,,,,,,,,,,,,,,,,,,,,,,,,,,,
,,,,,,5ed772653b309d023ca48655,62c53a3be964c2dd719fa9a0,2022-07-06_09h31.51.954,Colour_Asymmetry_Pilot,2022.1.3,Win32,143.8228103,62c50e9c1127f2cd403a315f,0,88,88,39,1,fourthree,,,,,,,,,,,,,,,,,,,,,,,,,,,,,,,,,,,,,,,,,,,,,,,,,,,,,,,,,,,,,,,,,,,,,,,,,,,,,,,,,,,,,,,,,,,,,,,,,,,,,,,,,,,,,,,,,,,,,,,,,,,,,,,,,,,,,,,,,,,,,,,,,,,,,,,,,,,,,
,,,,,,5ed772653b309d023ca48655,62c53a3be964c2dd719fa9a0,2022-07-06_09h31.51.954,Colour_Asymmetry_Pilot,2022.1.3,Win32,143.8228103,62c50e9c1127f2cd403a315f,0,89,89,89,1,onethree,,,,,,,,,,,,,,,,,,,,,,,,,,,,,,,,,,,,,,,,,,,,,,,,,,,,,,,,,,,,,,,,,,,,,,,,,,,,,,,,,,,,,,,,,,,,,,,,,,,,,,,,,,,,,,,,,,,,,,,,,,,,,,,,,,,,,,,,,,,,,,,,,,,,,,,,,,,,,
,,,,,,5ed772653b309d023ca48655,62c53a3be964c2dd719fa9a0,2022-07-06_09h31.51.954,Colour_Asymmetry_Pilot,2022.1.3,Win32,143.8228103,62c50e9c1127f2cd403a315f,0,90,90,145,1,onethree,,,,,,,,,,,,,,,,,,,,,,,,,,,,,,,,,,,,,,,,,,,,,,,,,,,,,,,,,,,,,,,,,,,,,,,,,,,,,,,,,,,,,,,,,,,,,,,,,,,,,,,,,,,,,,,,,,,,,,,,,,,,,,,,,,,,,,,,,,,,,,,,,,,,,,,,,,,,,
,,,,,,5ed772653b309d023ca48655,62c53a3be964c2dd719fa9a0,2022-07-06_09h31.51.954,Colour_Asymmetry_Pilot,2022.1.3,Win32,143.8228103,62c50e9c1127f2cd403a315f,0,91,91,92,1,threeone,,,,,,,,,,,,,,,,,,,,,,,,,,,,,,,,,,,,,,,,,,,,,,,,,,,,,,,,,,,,,,,,,,,,,,,,,,,,,,,,,,,,,,,,,,,,,,,,,,,,,,,,,,,,,,,,,,,,,,,,,,,,,,,,,,,,,,,,,,,,,,,,,,,,,,,,,,,,,
,,,,,,5ed772653b309d023ca48655,62c53a3be964c2dd719fa9a0,2022-07-06_09h31.51.954,Colour_Asymmetry_Pilot,2022.1.3,Win32,143.8228103,62c50e9c1127f2cd403a315f,0,92,92,110,1,fourtwo,,,,,,,,,,,,,,,,,,,,,,,,,,,,,,,,,,,,,,,,,,,,,,,,,,,,,,,,,,,,,,,,,,,,,,,,,,,,,,,,,,,,,,,,,,,,,,,,,,,,,,,,,,,,,,,,,,,,,,,,,,,,,,,,,,,,,,,,,,,,,,,,,,,,,,,,,,,,,
,,,,,,5ed772653b309d023ca48655,62c53a3be964c2dd719fa9a0,2022-07-06_09h31.51.954,Colour_Asymmetry_Pilot,2022.1.3,Win32,143.8228103,62c50e9c1127f2cd403a315f,0,93,93,104,1,onetwo,,,,,,,,,,,,,,,,,,,,,,,,,,,,,,,,,,,,,,,,,,,,,,,,,,,,,,,,,,,,,,,,,,,,,,,,,,,,,,,,,,,,,,,,,,,,,,,,,,,,,,,,,,,,,,,,,,,,,,,,,,,,,,,,,,,,,,,,,,,,,,,,,,,,,,,,,,,,,
,,,,,,5ed772653b309d023ca48655,62c53a3be964c2dd719fa9a0,2022-07-06_09h31.51.954,Colour_Asymmetry_Pilot,2022.1.3,Win32,143.8228103,62c50e9c1127f2cd403a315f,0,94,94,106,1,twoone,,,,,,,,,,,,,,,,,,,,,,,,,,,,,,,,,,,,,,,,,,,,,,,,,,,,,,,,,,,,,,,,,,,,,,,,,,,,,,,,,,,,,,,,,,,,,,,,,,,,,,,,,,,,,,,,,,,,,,,,,,,,,,,,,,,,,,,,,,,,,,,,,,,,,,,,,,,,,
,,,,,,5ed772653b309d023ca48655,62c53a3be964c2dd719fa9a0,2022-07-06_09h31.51.954,Colour_Asymmetry_Pilot,2022.1.3,Win32,143.8228103,62c50e9c1127f2cd403a315f,0,95,95,22,1,fourtwo,,,,,,,,,,,,,,,,,,,,,,,,,,,,,,,,,,,,,,,,,,,,,,,,,,,,,,,,,,,,,,,,,,,,,,,,,,,,,,,,,,,,,,,,,,,,,,,,,,,,,,,,,,,,,,,,,,,,,,,,,,,,,,,,,,,,,,,,,,,,,,,,,,,,,,,,,,,,,
,,,,,,5ed772653b309d023ca48655,62c53a3be964c2dd719fa9a0,2022-07-06_09h31.51.954,Colour_Asymmetry_Pilot,2022.1.3,Win32,143.8228103,62c50e9c1127f2cd403a315f,0,96,96,107,1,twofour,,,,,,,,,,,,,,,,,,,,,,,,,,,,,,,,,,,,,,,,,,,,,,,,,,,,,,,,,,,,,,,,,,,,,,,,,,,,,,,,,,,,,,,,,,,,,,,,,,,,,,,,,,,,,,,,,,,,,,,,,,,,,,,,,,,,,,,,,,,,,,,,,,,,,,,,,,,,,
,,,,,,5ed772653b309d023ca48655,62c53a3be964c2dd719fa9a0,2022-07-06_09h31.51.954,Colour_Asymmetry_Pilot,2022.1.3,Win32,143.8228103,62c50e9c1127f2cd403a315f,0,97,97,25,1,onethree,,,,,,,,,,,,,,,,,,,,,,,,,,,,,,,,,,,,,,,,,,,,,,,,,,,,,,,,,,,,,,,,,,,,,,,,,,,,,,,,,,,,,,,,,,,,,,,,,,,,,,,,,,,,,,,,,,,,,,,,,,,,,,,,,,,,,,,,,,,,,,,,,,,,,,,,,,,,,
,,,,,,5ed772653b309d023ca48655,62c53a3be964c2dd719fa9a0,2022-07-06_09h31.51.954,Colour_Asymmetry_Pilot,2022.1.3,Win32,143.8228103,62c50e9c1127f2cd403a315f,0,98,98,27,1,twofour,,,,,,,,,,,,,,,,,,,,,,,,,,,,,,,,,,,,,,,,,,,,,,,,,,,,,,,,,,,,,,,,,,,,,,,,,,,,,,,,,,,,,,,,,,,,,,,,,,,,,,,,,,,,,,,,,,,,,,,,,,,,,,,,,,,,,,,,,,,,,,,,,,,,,,,,,,,,,
,,,,,,5ed772653b309d023ca48655,62c53a3be964c2dd719fa9a0,2022-07-06_09h31.51.954,Colour_Asymmetry_Pilot,2022.1.3,Win32,143.8228103,62c50e9c1127f2cd403a315f,0,99,99,57,1,onethree,,,,,,,,,,,,,,,,,,,,,,,,,,,,,,,,,,,,,,,,,,,,,,,,,,,,,,,,,,,,,,,,,,,,,,,,,,,,,,,,,,,,,,,,,,,,,,,,,,,,,,,,,,,,,,,,,,,,,,,,,,,,,,,,,,,,,,,,,,,,,,,,,,,,,,,,,,,,,
,,,,,,5ed772653b309d023ca48655,62c53a3be964c2dd719fa9a0,2022-07-06_09h31.51.954,Colour_Asymmetry_Pilot,2022.1.3,Win32,143.8228103,62c50e9c1127f2cd403a315f,0,100,100,78,1,fourtwo,,,,,,,,,,,,,,,,,,,,,,,,,,,,,,,,,,,,,,,,,,,,,,,,,,,,,,,,,,,,,,,,,,,,,,,,,,,,,,,,,,,,,,,,,,,,,,,,,,,,,,,,,,,,,,,,,,,,,,,,,,,,,,,,,,,,,,,,,,,,,,,,,,,,,,,,,,,,,
,,,,,,5ed772653b309d023ca48655,62c53a3be964c2dd719fa9a0,2022-07-06_09h31.51.954,Colour_Asymmetry_Pilot,2022.1.3,Win32,143.8228103,62c50e9c1127f2cd403a315f,0,101,101,82,1,twoone,,,,,,,,,,,,,,,,,,,,,,,,,,,,,,,,,,,,,,,,,,,,,,,,,,,,,,,,,,,,,,,,,,,,,,,,,,,,,,,,,,,,,,,,,,,,,,,,,,,,,,,,,,,,,,,,,,,,,,,,,,,,,,,,,,,,,,,,,,,,,,,,,,,,,,,,,,,,,
,,,,,,5ed772653b309d023ca48655,62c53a3be964c2dd719fa9a0,2022-07-06_09h31.51.954,Colour_Asymmetry_Pilot,2022.1.3,Win32,143.8228103,62c50e9c1127f2cd403a315f,0,102,102,47,1,fourthree,,,,,,,,,,,,,,,,,,,,,,,,,,,,,,,,,,,,,,,,,,,,,,,,,,,,,,,,,,,,,,,,,,,,,,,,,,,,,,,,,,,,,,,,,,,,,,,,,,,,,,,,,,,,,,,,,,,,,,,,,,,,,,,,,,,,,,,,,,,,,,,,,,,,,,,,,,,,,
,,,,,,5ed772653b309d023ca48655,62c53a3be964c2dd719fa9a0,2022-07-06_09h31.51.954,Colour_Asymmetry_Pilot,2022.1.3,Win32,143.8228103,62c50e9c1127f2cd403a315f,0,103,103,64,1,onetwo,,,,,,,,,,,,,,,,,,,,,,,,,,,,,,,,,,,,,,,,,,,,,,,,,,,,,,,,,,,,,,,,,,,,,,,,,,,,,,,,,,,,,,,,,,,,,,,,,,,,,,,,,,,,,,,,,,,,,,,,,,,,,,,,,,,,,,,,,,,,,,,,,,,,,,,,,,,,,
,,,,,,5ed772653b309d023ca48655,62c53a3be964c2dd719fa9a0,2022-07-06_09h31.51.954,Colour_Asymmetry_Pilot,2022.1.3,Win32,143.8228103,62c50e9c1127f2cd403a315f,0,104,104,12,1,threeone,,,,,,,,,,,,,,,,,,,,,,,,,,,,,,,,,,,,,,,,,,,,,,,,,,,,,,,,,,,,,,,,,,,,,,,,,,,,,,,,,,,,,,,,,,,,,,,,,,,,,,,,,,,,,,,,,,,,,,,,,,,,,,,,,,,,,,,,,,,,,,,,,,,,,,,,,,,,,
,,,,,,5ed772653b309d023ca48655,62c53a3be964c2dd719fa9a0,2022-07-06_09h31.51.954,Colour_Asymmetry_Pilot,2022.1.3,Win32,143.8228103,62c50e9c1127f2cd403a315f,0,105,105,5,1,threefour,,,,,,,,,,,,,,,,,,,,,,,,,,,,,,,,,,,,,,,,,,,,,,,,,,,,,,,,,,,,,,,,,,,,,,,,,,,,,,,,,,,,,,,,,,,,,,,,,,,,,,,,,,,,,,,,,,,,,,,,,,,,,,,,,,,,,,,,,,,,,,,,,,,,,,,,,,,,,
,,,,,,5ed772653b309d023ca48655,62c53a3be964c2dd719fa9a0,2022-07-06_09h31.51.954,Colour_Asymmetry_Pilot,2022.1.3,Win32,143.8228103,62c50e9c1127f2cd403a315f,0,106,106,129,1,onethree,,,,,,,,,,,,,,,,,,,,,,,,,,,,,,,,,,,,,,,,,,,,,,,,,,,,,,,,,,,,,,,,,,,,,,,,,,,,,,,,,,,,,,,,,,,,,,,,,,,,,,,,,,,,,,,,,,,,,,,,,,,,,,,,,,,,,,,,,,,,,,,,,,,,,,,,,,,,,
,,,,,,5ed772653b309d023ca48655,62c53a3be964c2dd719fa9a0,2022-07-06_09h31.51.954,Colour_Asymmetry_Pilot,2022.1.3,Win32,143.8228103,62c50e9c1127f2cd403a315f,0,107,107,122,1,twoone,,,,,,,,,,,,,,,,,,,,,,,,,,,,,,,,,,,,,,,,,,,,,,,,,,,,,,,,,,,,,,,,,,,,,,,,,,,,,,,,,,,,,,,,,,,,,,,,,,,,,,,,,,,,,,,,,,,,,,,,,,,,,,,,,,,,,,,,,,,,,,,,,,,,,,,,,,,,,
,,,,,,5ed772653b309d023ca48655,62c53a3be964c2dd719fa9a0,2022-07-06_09h31.51.954,Colour_Asymmetry_Pilot,2022.1.3,Win32,143.8228103,62c50e9c1127f2cd403a315f,0,108,108,95,1,fourthree,,,,,,,,,,,,,,,,,,,,,,,,,,,,,,,,,,,,,,,,,,,,,,,,,,,,,,,,,,,,,,,,,,,,,,,,,,,,,,,,,,,,,,,,,,,,,,,,,,,,,,,,,,,,,,,,,,,,,,,,,,,,,,,,,,,,,,,,,,,,,,,,,,,,,,,,,,,,,
,,,,,,5ed772653b309d023ca48655,62c53a3be964c2dd719fa9a0,2022-07-06_09h31.51.954,Colour_Asymmetry_Pilot,2022.1.3,Win32,143.8228103,62c50e9c1127f2cd403a315f,0,109,109,157,1,threefour,,,,,,,,,,,,,,,,,,,,,,,,,,,,,,,,,,,,,,,,,,,,,,,,,,,,,,,,,,,,,,,,,,,,,,,,,,,,,,,,,,,,,,,,,,,,,,,,,,,,,,,,,,,,,,,,,,,,,,,,,,,,,,,,,,,,,,,,,,,,,,,,,,,,,,,,,,,,,
,,,,,,5ed772653b309d023ca48655,62c53a3be964c2dd719fa9a0,2022-07-06_09h31.51.954,Colour_Asymmetry_Pilot,2022.1.3,Win32,143.8228103,62c50e9c1127f2cd403a315f,0,110,110,132,1,threeone,,,,,,,,,,,,,,,,,,,,,,,,,,,,,,,,,,,,,,,,,,,,,,,,,,,,,,,,,,,,,,,,,,,,,,,,,,,,,,,,,,,,,,,,,,,,,,,,,,,,,,,,,,,,,,,,,,,,,,,,,,,,,,,,,,,,,,,,,,,,,,,,,,,,,,,,,,,,,
,,,,,,5ed772653b309d023ca48655,62c53a3be964c2dd719fa9a0,2022-07-06_09h31.51.954,Colour_Asymmetry_Pilot,2022.1.3,Win32,143.8228103,62c50e9c1127f2cd403a315f,0,111,111,143,1,fourthree,,,,,,,,,,,,,,,,,,,,,,,,,,,,,,,,,,,,,,,,,,,,,,,,,,,,,,,,,,,,,,,,,,,,,,,,,,,,,,,,,,,,,,,,,,,,,,,,,,,,,,,,,,,,,,,,,,,,,,,,,,,,,,,,,,,,,,,,,,,,,,,,,,,,,,,,,,,,,
,,,,,,5ed772653b309d023ca48655,62c53a3be964c2dd719fa9a0,2022-07-06_09h31.51.954,Colour_Asymmetry_Pilot,2022.1.3,Win32,143.8228103,62c50e9c1127f2cd403a315f,0,112,112,73,1,onethree,,,,,,,,,,,,,,,,,,,,,,,,,,,,,,,,,,,,,,,,,,,,,,,,,,,,,,,,,,,,,,,,,,,,,,,,,,,,,,,,,,,,,,,,,,,,,,,,,,,,,,,,,,,,,,,,,,,,,,,,,,,,,,,,,,,,,,,,,,,,,,,,,,,,,,,,,,,,,
,,,,,,5ed772653b309d023ca48655,62c53a3be964c2dd719fa9a0,2022-07-06_09h31.51.954,Colour_Asymmetry_Pilot,2022.1.3,Win32,143.8228103,62c50e9c1127f2cd403a315f,0,113,113,133,1,threefour,,,,,,,,,,,,,,,,,,,,,,,,,,,,,,,,,,,,,,,,,,,,,,,,,,,,,,,,,,,,,,,,,,,,,,,,,,,,,,,,,,,,,,,,,,,,,,,,,,,,,,,,,,,,,,,,,,,,,,,,,,,,,,,,,,,,,,,,,,,,,,,,,,,,,,,,,,,,,
,,,,,,5ed772653b309d023ca48655,62c53a3be964c2dd719fa9a0,2022-07-06_09h31.51.954,Colour_Asymmetry_Pilot,2022.1.3,Win32,143.8228103,62c50e9c1127f2cd403a315f,0,114,114,4,1,threeone,,,,,,,,,,,,,,,,,,,,,,,,,,,,,,,,,,,,,,,,,,,,,,,,,,,,,,,,,,,,,,,,,,,,,,,,,,,,,,,,,,,,,,,,,,,,,,,,,,,,,,,,,,,,,,,,,,,,,,,,,,,,,,,,,,,,,,,,,,,,,,,,,,,,,,,,,,,,,
,,,,,,5ed772653b309d023ca48655,62c53a3be964c2dd719fa9a0,2022-07-06_09h31.51.954,Colour_Asymmetry_Pilot,2022.1.3,Win32,143.8228103,62c50e9c1127f2cd403a315f,0,115,115,11,1,twofour,,,,,,,,,,,,,,,,,,,,,,,,,,,,,,,,,,,,,,,,,,,,,,,,,,,,,,,,,,,,,,,,,,,,,,,,,,,,,,,,,,,,,,,,,,,,,,,,,,,,,,,,,,,,,,,,,,,,,,,,,,,,,,,,,,,,,,,,,,,,,,,,,,,,,,,,,,,,,
,,,,,,5ed772653b309d023ca48655,62c53a3be964c2dd719fa9a0,2022-07-06_09h31.51.954,Colour_Asymmetry_Pilot,2022.1.3,Win32,143.8228103,62c50e9c1127f2cd403a315f,0,116,116,141,1,threefour,,,,,,,,,,,,,,,,,,,,,,,,,,,,,,,,,,,,,,,,,,,,,,,,,,,,,,,,,,,,,,,,,,,,,,,,,,,,,,,,,,,,,,,,,,,,,,,,,,,,,,,,,,,,,,,,,,,,,,,,,,,,,,,,,,,,,,,,,,,,,,,,,,,,,,,,,,,,,
,,,,,,5ed772653b309d023ca48655,62c53a3be964c2dd719fa9a0,2022-07-06_09h31.51.954,Colour_Asymmetry_Pilot,2022.1.3,Win32,143.8228103,62c50e9c1127f2cd403a315f,0,117,117,70,1,fourtwo,,,,,,,,,,,,,,,,,,,,,,,,,,,,,,,,,,,,,,,,,,,,,,,,,,,,,,,,,,,,,,,,,,,,,,,,,,,,,,,,,,,,,,,,,,,,,,,,,,,,,,,,,,,,,,,,,,,,,,,,,,,,,,,,,,,,,,,,,,,,,,,,,,,,,,,,,,,,,
,,,,,,5ed772653b309d023ca48655,62c53a3be964c2dd719fa9a0,2022-07-06_09h31.51.954,Colour_Asymmetry_Pilot,2022.1.3,Win32,143.8228103,62c50e9c1127f2cd403a315f,0,118,118,7,1,fourthree,,,,,,,,,,,,,,,,,,,,,,,,,,,,,,,,,,,,,,,,,,,,,,,,,,,,,,,,,,,,,,,,,,,,,,,,,,,,,,,,,,,,,,,,,,,,,,,,,,,,,,,,,,,,,,,,,,,,,,,,,,,,,,,,,,,,,,,,,,,,,,,,,,,,,,,,,,,,,
,,,,,,5ed772653b309d023ca48655,62c53a3be964c2dd719fa9a0,2022-07-06_09h31.51.954,Colour_Asymmetry_Pilot,2022.1.3,Win32,143.8228103,62c50e9c1127f2cd403a315f,0,119,119,29,1,threefour,,,,,,,,,,,,,,,,,,,,,,,,,,,,,,,,,,,,,,,,,,,,,,,,,,,,,,,,,,,,,,,,,,,,,,,,,,,,,,,,,,,,,,,,,,,,,,,,,,,,,,,,,,,,,,,,,,,,,,,,,,,,,,,,,,,,,,,,,,,,,,,,,,,,,,,,,,,,,
,,,,,,5ed772653b309d023ca48655,62c53a3be964c2dd719fa9a0,2022-07-06_09h31.51.954,Colour_Asymmetry_Pilot,2022.1.3,Win32,143.8228103,62c50e9c1127f2cd403a315f,0,120,120,134,1,fourtwo,,,,,,,,,,,,,,,,,,,,,,,,,,,,,,,,,,,,,,,,,,,,,,,,,,,,,,,,,,,,,,,,,,,,,,,,,,,,,,,,,,,,,,,,,,,,,,,,,,,,,,,,,,,,,,,,,,,,,,,,,,,,,,,,,,,,,,,,,,,,,,,,,,,,,,,,,,,,,
,,,,,,5ed772653b309d023ca48655,62c53a3be964c2dd719fa9a0,2022-07-06_09h31.51.954,Colour_Asymmetry_Pilot,2022.1.3,Win32,143.8228103,62c50e9c1127f2cd403a315f,0,121,121,114,1,twoone,,,,,,,,,,,,,,,,,,,,,,,,,,,,,,,,,,,,,,,,,,,,,,,,,,,,,,,,,,,,,,,,,,,,,,,,,,,,,,,,,,,,,,,,,,,,,,,,,,,,,,,,,,,,,,,,,,,,,,,,,,,,,,,,,,,,,,,,,,,,,,,,,,,,,,,,,,,,,
,,,,,,5ed772653b309d023ca48655,62c53a3be964c2dd719fa9a0,2022-07-06_09h31.51.954,Colour_Asymmetry_Pilot,2022.1.3,Win32,143.8228103,62c50e9c1127f2cd403a315f,0,122,122,120,1,onetwo,,,,,,,,,,,,,,,,,,,,,,,,,,,,,,,,,,,,,,,,,,,,,,,,,,,,,,,,,,,,,,,,,,,,,,,,,,,,,,,,,,,,,,,,,,,,,,,,,,,,,,,,,,,,,,,,,,,,,,,,,,,,,,,,,,,,,,,,,,,,,,,,,,,,,,,,,,,,,
,,,,,,5ed772653b309d023ca48655,62c53a3be964c2dd719fa9a0,2022-07-06_09h31.51.954,Colour_Asymmetry_Pilot,2022.1.3,Win32,143.8228103,62c50e9c1127f2cd403a315f,0,123,123,146,1,twoone,,,,,,,,,,,,,,,,,,,,,,,,,,,,,,,,,,,,,,,,,,,,,,,,,,,,,,,,,,,,,,,,,,,,,,,,,,,,,,,,,,,,,,,,,,,,,,,,,,,,,,,,,,,,,,,,,,,,,,,,,,,,,,,,,,,,,,,,,,,,,,,,,,,,,,,,,,,,,
,,,,,,5ed772653b309d023ca48655,62c53a3be964c2dd719fa9a0,2022-07-06_09h31.51.954,Colour_Asymmetry_Pilot,2022.1.3,Win32,143.8228103,62c50e9c1127f2cd403a315f,0,124,124,131,1,twofour,,,,,,,,,,,,,,,,,,,,,,,,,,,,,,,,,,,,,,,,,,,,,,,,,,,,,,,,,,,,,,,,,,,,,,,,,,,,,,,,,,,,,,,,,,,,,,,,,,,,,,,,,,,,,,,,,,,,,,,,,,,,,,,,,,,,,,,,,,,,,,,,,,,,,,,,,,,,,
,,,,,,5ed772653b309d023ca48655,62c53a3be964c2dd719fa9a0,2022-07-06_09h31.51.954,Colour_Asymmetry_Pilot,2022.1.3,Win32,143.8228103,62c50e9c1127f2cd403a315f,0,125,125,10,1,twoone,,,,,,,,,,,,,,,,,,,,,,,,,,,,,,,,,,,,,,,,,,,,,,,,,,,,,,,,,,,,,,,,,,,,,,,,,,,,,,,,,,,,,,,,,,,,,,,,,,,,,,,,,,,,,,,,,,,,,,,,,,,,,,,,,,,,,,,,,,,,,,,,,,,,,,,,,,,,,
,,,,,,5ed772653b309d023ca48655,62c53a3be964c2dd719fa9a0,2022-07-06_09h31.51.954,Colour_Asymmetry_Pilot,2022.1.3,Win32,143.8228103,62c50e9c1127f2cd403a315f,0,126,126,72,1,onetwo,,,,,,,,,,,,,,,,,,,,,,,,,,,,,,,,,,,,,,,,,,,,,,,,,,,,,,,,,,,,,,,,,,,,,,,,,,,,,,,,,,,,,,,,,,,,,,,,,,,,,,,,,,,,,,,,,,,,,,,,,,,,,,,,,,,,,,,,,,,,,,,,,,,,,,,,,,,,,
,,,,,,5ed772653b309d023ca48655,62c53a3be964c2dd719fa9a0,2022-07-06_09h31.51.954,Colour_Asymmetry_Pilot,2022.1.3,Win32,143.8228103,62c50e9c1127f2cd403a315f,0,127,127,65,1,onethree,,,,,,,,,,,,,,,,,,,,,,,,,,,,,,,,,,,,,,,,,,,,,,,,,,,,,,,,,,,,,,,,,,,,,,,,,,,,,,,,,,,,,,,,,,,,,,,,,,,,,,,,,,,,,,,,,,,,,,,,,,,,,,,,,,,,,,,,,,,,,,,,,,,,,,,,,,,,,
,,,,,,5ed772653b309d023ca48655,62c53a3be964c2dd719fa9a0,2022-07-06_09h31.51.954,Colour_Asymmetry_Pilot,2022.1.3,Win32,143.8228103,62c50e9c1127f2cd403a315f,0,128,128,61,1,threefour,,,,,,,,,,,,,,,,,,,,,,,,,,,,,,,,,,,,,,,,,,,,,,,,,,,,,,,,,,,,,,,,,,,,,,,,,,,,,,,,,,,,,,,,,,,,,,,,,,,,,,,,,,,,,,,,,,,,,,,,,,,,,,,,,,,,,,,,,,,,,,,,,,,,,,,,,,,,,
,,,,,,5ed772653b309d023ca48655,62c53a3be964c2dd719fa9a0,2022-07-06_09h31.51.954,Colour_Asymmetry_Pilot,2022.1.3,Win32,143.8228103,62c50e9c1127f2cd403a315f,0,129,129,35,1,twofour,,,,,,,,,,,,,,,,,,,,,,,,,,,,,,,,,,,,,,,,,,,,,,,,,,,,,,,,,,,,,,,,,,,,,,,,,,,,,,,,,,,,,,,,,,,,,,,,,,,,,,,,,,,,,,,,,,,,,,,,,,,,,,,,,,,,,,,,,,,,,,,,,,,,,,,,,,,,,
,,,,,,5ed772653b309d023ca48655,62c53a3be964c2dd719fa9a0,2022-07-06_09h31.51.954,Colour_Asymmetry_Pilot,2022.1.3,Win32,143.8228103,62c50e9c1127f2cd403a315f,0,130,130,40,1,onetwo,,,,,,,,,,,,,,,,,,,,,,,,,,,,,,,,,,,,,,,,,,,,,,,,,,,,,,,,,,,,,,,,,,,,,,,,,,,,,,,,,,,,,,,,,,,,,,,,,,,,,,,,,,,,,,,,,,,,,,,,,,,,,,,,,,,,,,,,,,,,,,,,,,,,,,,,,,,,,
,,,,,,5ed772653b309d023ca48655,62c53a3be964c2dd719fa9a0,2022-07-06_09h31.51.954,Colour_Asymmetry_Pilot,2022.1.3,Win32,143.8228103,62c50e9c1127f2cd403a315f,0,131,131,62,1,fourtwo,,,,,,,,,,,,,,,,,,,,,,,,,,,,,,,,,,,,,,,,,,,,,,,,,,,,,,,,,,,,,,,,,,,,,,,,,,,,,,,,,,,,,,,,,,,,,,,,,,,,,,,,,,,,,,,,,,,,,,,,,,,,,,,,,,,,,,,,,,,,,,,,,,,,,,,,,,,,,
,,,,,,5ed772653b309d023ca48655,62c53a3be964c2dd719fa9a0,2022-07-06_09h31.51.954,Colour_Asymmetry_Pilot,2022.1.3,Win32,143.8228103,62c50e9c1127f2cd403a315f,0,132,132,38,1,fourtwo,,,,,,,,,,,,,,,,,,,,,,,,,,,,,,,,,,,,,,,,,,,,,,,,,,,,,,,,,,,,,,,,,,,,,,,,,,,,,,,,,,,,,,,,,,,,,,,,,,,,,,,,,,,,,,,,,,,,,,,,,,,,,,,,,,,,,,,,,,,,,,,,,,,,,,,,,,,,,
,,,,,,5ed772653b309d023ca48655,62c53a3be964c2dd719fa9a0,2022-07-06_09h31.51.954,Colour_Asymmetry_Pilot,2022.1.3,Win32,143.8228103,62c50e9c1127f2cd403a315f,0,133,133,127,1,fourthree,,,,,,,,,,,,,,,,,,,,,,,,,,,,,,,,,,,,,,,,,,,,,,,,,,,,,,,,,,,,,,,,,,,,,,,,,,,,,,,,,,,,,,,,,,,,,,,,,,,,,,,,,,,,,,,,,,,,,,,,,,,,,,,,,,,,,,,,,,,,,,,,,,,,,,,,,,,,,
,,,,,,5ed772653b309d023ca48655,62c53a3be964c2dd719fa9a0,2022-07-06_09h31.51.954,Colour_Asymmetry_Pilot,2022.1.3,Win32,143.8228103,62c50e9c1127f2cd403a315f,0,134,134,86,1,fourtwo,,,,,,,,,,,,,,,,,,,,,,,,,,,,,,,,,,,,,,,,,,,,,,,,,,,,,,,,,,,,,,,,,,,,,,,,,,,,,,,,,,,,,,,,,,,,,,,,,,,,,,,,,,,,,,,,,,,,,,,,,,,,,,,,,,,,,,,,,,,,,,,,,,,,,,,,,,,,,
,,,,,,5ed772653b309d023ca48655,62c53a3be964c2dd719fa9a0,2022-07-06_09h31.51.954,Colour_Asymmetry_Pilot,2022.1.3,Win32,143.8228103,62c50e9c1127f2cd403a315f,0,135,135,23,1,fourthree,,,,,,,,,,,,,,,,,,,,,,,,,,,,,,,,,,,,,,,,,,,,,,,,,,,,,,,,,,,,,,,,,,,,,,,,,,,,,,,,,,,,,,,,,,,,,,,,,,,,,,,,,,,,,,,,,,,,,,,,,,,,,,,,,,,,,,,,,,,,,,,,,,,,,,,,,,,,,
,,,,,,5ed772653b309d023ca48655,62c53a3be964c2dd719fa9a0,2022-07-06_09h31.51.954,Colour_Asymmetry_Pilot,2022.1.3,Win32,143.8228103,62c50e9c1127f2cd403a315f,0,136,136,56,1,onetwo,,,,,,,,,,,,,,,,,,,,,,,,,,,,,,,,,,,,,,,,,,,,,,,,,,,,,,,,,,,,,,,,,,,,,,,,,,,,,,,,,,,,,,,,,,,,,,,,,,,,,,,,,,,,,,,,,,,,,,,,,,,,,,,,,,,,,,,,,,,,,,,,,,,,,,,,,,,,,
,,,,,,5ed772653b309d023ca48655,62c53a3be964c2dd719fa9a0,2022-07-06_09h31.51.954,Colour_Asymmetry_Pilot,2022.1.3,Win32,143.8228103,62c50e9c1127f2cd403a315f,0,137,137,99,1,twofour,,,,,,,,,,,,,,,,,,,,,,,,,,,,,,,,,,,,,,,,,,,,,,,,,,,,,,,,,,,,,,,,,,,,,,,,,,,,,,,,,,,,,,,,,,,,,,,,,,,,,,,,,,,,,,,,,,,,,,,,,,,,,,,,,,,,,,,,,,,,,,,,,,,,,,,,,,,,,
,,,,,,5ed772653b309d023ca48655,62c53a3be964c2dd719fa9a0,2022-07-06_09h31.51.954,Colour_Asymmetry_Pilot,2022.1.3,Win32,143.8228103,62c50e9c1127f2cd403a315f,0,138,138,30,1,fourtwo,,,,,,,,,,,,,,,,,,,,,,,,,,,,,,,,,,,,,,,,,,,,,,,,,,,,,,,,,,,,,,,,,,,,,,,,,,,,,,,,,,,,,,,,,,,,,,,,,,,,,,,,,,,,,,,,,,,,,,,,,,,,,,,,,,,,,,,,,,,,,,,,,,,,,,,,,,,,,
,,,,,,5ed772653b309d023ca48655,62c53a3be964c2dd719fa9a0,2022-07-06_09h31.51.954,Colour_Asymmetry_Pilot,2022.1.3,Win32,143.8228103,62c50e9c1127f2cd403a315f,0,139,139,103,1,fourthree,,,,,,,,,,,,,,,,,,,,,,,,,,,,,,,,,,,,,,,,,,,,,,,,,,,,,,,,,,,,,,,,,,,,,,,,,,,,,,,,,,,,,,,,,,,,,,,,,,,,,,,,,,,,,,,,,,,,,,,,,,,,,,,,,,,,,,,,,,,,,,,,,,,,,,,,,,,,,
,,,,,,5ed772653b309d023ca48655,62c53a3be964c2dd719fa9a0,2022-07-06_09h31.51.954,Colour_Asymmetry_Pilot,2022.1.3,Win32,143.8228103,62c50e9c1127f2cd403a315f,0,140,140,51,1,twofour,,,,,,,,,,,,,,,,,,,,,,,,,,,,,,,,,,,,,,,,,,,,,,,,,,,,,,,,,,,,,,,,,,,,,,,,,,,,,,,,,,,,,,,,,,,,,,,,,,,,,,,,,,,,,,,,,,,,,,,,,,,,,,,,,,,,,,,,,,,,,,,,,,,,,,,,,,,,,
,,,,,,5ed772653b309d023ca48655,62c53a3be964c2dd719fa9a0,2022-07-06_09h31.51.954,Colour_Asymmetry_Pilot,2022.1.3,Win32,143.8228103,62c50e9c1127f2cd403a315f,0,141,141,116,1,threeone,,,,,,,,,,,,,,,,,,,,,,,,,,,,,,,,,,,,,,,,,,,,,,,,,,,,,,,,,,,,,,,,,,,,,,,,,,,,,,,,,,,,,,,,,,,,,,,,,,,,,,,,,,,,,,,,,,,,,,,,,,,,,,,,,,,,,,,,,,,,,,,,,,,,,,,,,,,,,
,,,,,,5ed772653b309d023ca48655,62c53a3be964c2dd719fa9a0,2022-07-06_09h31.51.954,Colour_Asymmetry_Pilot,2022.1.3,Win32,143.8228103,62c50e9c1127f2cd403a315f,0,142,142,52,1,threeone,,,,,,,,,,,,,,,,,,,,,,,,,,,,,,,,,,,,,,,,,,,,,,,,,,,,,,,,,,,,,,,,,,,,,,,,,,,,,,,,,,,,,,,,,,,,,,,,,,,,,,,,,,,,,,,,,,,,,,,,,,,,,,,,,,,,,,,,,,,,,,,,,,,,,,,,,,,,,
,,,,,,5ed772653b309d023ca48655,62c53a3be964c2dd719fa9a0,2022-07-06_09h31.51.954,Colour_Asymmetry_Pilot,2022.1.3,Win32,143.8228103,62c50e9c1127f2cd403a315f,0,143,143,144,1,onetwo,,,,,,,,,,,,,,,,,,,,,,,,,,,,,,,,,,,,,,,,,,,,,,,,,,,,,,,,,,,,,,,,,,,,,,,,,,,,,,,,,,,,,,,,,,,,,,,,,,,,,,,,,,,,,,,,,,,,,,,,,,,,,,,,,,,,,,,,,,,,,,,,,,,,,,,,,,,,,
,,,,,,5ed772653b309d023ca48655,62c53a3be964c2dd719fa9a0,2022-07-06_09h31.51.954,Colour_Asymmetry_Pilot,2022.1.3,Win32,143.8228103,62c50e9c1127f2cd403a315f,0,144,144,28,1,threeone,,,,,,,,,,,,,,,,,,,,,,,,,,,,,,,,,,,,,,,,,,,,,,,,,,,,,,,,,,,,,,,,,,,,,,,,,,,,,,,,,,,,,,,,,,,,,,,,,,,,,,,,,,,,,,,,,,,,,,,,,,,,,,,,,,,,,,,,,,,,,,,,,,,,,,,,,,,,,
,,,,,,5ed772653b309d023ca48655,62c53a3be964c2dd719fa9a0,2022-07-06_09h31.51.954,Colour_Asymmetry_Pilot,2022.1.3,Win32,143.8228103,62c50e9c1127f2cd403a315f,0,145,145,66,1,twoone,,,,,,,,,,,,,,,,,,,,,,,,,,,,,,,,,,,,,,,,,,,,,,,,,,,,,,,,,,,,,,,,,,,,,,,,,,,,,,,,,,,,,,,,,,,,,,,,,,,,,,,,,,,,,,,,,,,,,,,,,,,,,,,,,,,,,,,,,,,,,,,,,,,,,,,,,,,,,
,,,,,,5ed772653b309d023ca48655,62c53a3be964c2dd719fa9a0,2022-07-06_09h31.51.954,Colour_Asymmetry_Pilot,2022.1.3,Win32,143.8228103,62c50e9c1127f2cd403a315f,0,146,146,80,1,onetwo,,,,,,,,,,,,,,,,,,,,,,,,,,,,,,,,,,,,,,,,,,,,,,,,,,,,,,,,,,,,,,,,,,,,,,,,,,,,,,,,,,,,,,,,,,,,,,,,,,,,,,,,,,,,,,,,,,,,,,,,,,,,,,,,,,,,,,,,,,,,,,,,,,,,,,,,,,,,,
,,,,,,5ed772653b309d023ca48655,62c53a3be964c2dd719fa9a0,2022-07-06_09h31.51.954,Colour_Asymmetry_Pilot,2022.1.3,Win32,143.8228103,62c50e9c1127f2cd403a315f,0,147,147,137,1,onethree,,,,,,,,,,,,,,,,,,,,,,,,,,,,,,,,,,,,,,,,,,,,,,,,,,,,,,,,,,,,,,,,,,,,,,,,,,,,,,,,,,,,,,,,,,,,,,,,,,,,,,,,,,,,,,,,,,,,,,,,,,,,,,,,,,,,,,,,,,,,,,,,,,,,,,,,,,,,,
,,,,,,5ed772653b309d023ca48655,62c53a3be964c2dd719fa9a0,2022-07-06_09h31.51.954,Colour_Asymmetry_Pilot,2022.1.3,Win32,143.8228103,62c50e9c1127f2cd403a315f,0,148,148,31,1,fourthree,,,,,,,,,,,,,,,,,,,,,,,,,,,,,,,,,,,,,,,,,,,,,,,,,,,,,,,,,,,,,,,,,,,,,,,,,,,,,,,,,,,,,,,,,,,,,,,,,,,,,,,,,,,,,,,,,,,,,,,,,,,,,,,,,,,,,,,,,,,,,,,,,,,,,,,,,,,,,
,,,,,,5ed772653b309d023ca48655,62c53a3be964c2dd719fa9a0,2022-07-06_09h31.51.954,Colour_Asymmetry_Pilot,2022.1.3,Win32,143.8228103,62c50e9c1127f2cd403a315f,0,149,149,41,1,onethree,,,,,,,,,,,,,,,,,,,,,,,,,,,,,,,,,,,,,,,,,,,,,,,,,,,,,,,,,,,,,,,,,,,,,,,,,,,,,,,,,,,,,,,,,,,,,,,,,,,,,,,,,,,,,,,,,,,,,,,,,,,,,,,,,,,,,,,,,,,,,,,,,,,,,,,,,,,,,
,,,,,,5ed772653b309d023ca48655,62c53a3be964c2dd719fa9a0,2022-07-06_09h31.51.954,Colour_Asymmetry_Pilot,2022.1.3,Win32,143.8228103,62c50e9c1127f2cd403a315f,0,150,150,147,1,twofour,,,,,,,,,,,,,,,,,,,,,,,,,,,,,,,,,,,,,,,,,,,,,,,,,,,,,,,,,,,,,,,,,,,,,,,,,,,,,,,,,,,,,,,,,,,,,,,,,,,,,,,,,,,,,,,,,,,,,,,,,,,,,,,,,,,,,,,,,,,,,,,,,,,,,,,,,,,,,
,,,,,,5ed772653b309d023ca48655,62c53a3be964c2dd719fa9a0,2022-07-06_09h31.51.954,Colour_Asymmetry_Pilot,2022.1.3,Win32,143.8228103,62c50e9c1127f2cd403a315f,0,151,151,102,1,fourtwo,,,,,,,,,,,,,,,,,,,,,,,,,,,,,,,,,,,,,,,,,,,,,,,,,,,,,,,,,,,,,,,,,,,,,,,,,,,,,,,,,,,,,,,,,,,,,,,,,,,,,,,,,,,,,,,,,,,,,,,,,,,,,,,,,,,,,,,,,,,,,,,,,,,,,,,,,,,,,
,,,,,,5ed772653b309d023ca48655,62c53a3be964c2dd719fa9a0,2022-07-06_09h31.51.954,Colour_Asymmetry_Pilot,2022.1.3,Win32,143.8228103,62c50e9c1127f2cd403a315f,0,152,152,8,1,onetwo,,,,,,,,,,,,,,,,,,,,,,,,,,,,,,,,,,,,,,,,,,,,,,,,,,,,,,,,,,,,,,,,,,,,,,,,,,,,,,,,,,,,,,,,,,,,,,,,,,,,,,,,,,,,,,,,,,,,,,,,,,,,,,,,,,,,,,,,,,,,,,,,,,,,,,,,,,,,,
,,,,,,5ed772653b309d023ca48655,62c53a3be964c2dd719fa9a0,2022-07-06_09h31.51.954,Colour_Asymmetry_Pilot,2022.1.3,Win32,143.8228103,62c50e9c1127f2cd403a315f,0,153,153,1,1,onethree,,,,,,,,,,,,,,,,,,,,,,,,,,,,,,,,,,,,,,,,,,,,,,,,,,,,,,,,,,,,,,,,,,,,,,,,,,,,,,,,,,,,,,,,,,,,,,,,,,,,,,,,,,,,,,,,,,,,,,,,,,,,,,,,,,,,,,,,,,,,,,,,,,,,,,,,,,,,,
,,,,,,5ed772653b309d023ca48655,62c53a3be964c2dd719fa9a0,2022-07-06_09h31.51.954,Colour_Asymmetry_Pilot,2022.1.3,Win32,143.8228103,62c50e9c1127f2cd403a315f,0,154,154,150,1,fourtwo,,,,,,,,,,,,,,,,,,,,,,,,,,,,,,,,,,,,,,,,,,,,,,,,,,,,,,,,,,,,,,,,,,,,,,,,,,,,,,,,,,,,,,,,,,,,,,,,,,,,,,,,,,,,,,,,,,,,,,,,,,,,,,,,,,,,,,,,,,,,,,,,,,,,,,,,,,,,,
,,,,,,5ed772653b309d023ca48655,62c53a3be964c2dd719fa9a0,2022-07-06_09h31.51.954,Colour_Asymmetry_Pilot,2022.1.3,Win32,143.8228103,62c50e9c1127f2cd403a315f,0,155,155,0,1,onetwo,,,,,,,,,,,,,,,,,,,,,,,,,,,,,,,,,,,,,,,,,,,,,,,,,,,,,,,,,,,,,,,,,,,,,,,,,,,,,,,,,,,,,,,,,,,,,,,,,,,,,,,,,,,,,,,,,,,,,,,,,,,,,,,,,,,,,,,,,,,,,,,,,,,,,,,,,,,,,
,,,,,,5ed772653b309d023ca48655,62c53a3be964c2dd719fa9a0,2022-07-06_09h31.51.954,Colour_Asymmetry_Pilot,2022.1.3,Win32,143.8228103,62c50e9c1127f2cd403a315f,0,156,156,117,1,threefour,,,,,,,,,,,,,,,,,,,,,,,,,,,,,,,,,,,,,,,,,,,,,,,,,,,,,,,,,,,,,,,,,,,,,,,,,,,,,,,,,,,,,,,,,,,,,,,,,,,,,,,,,,,,,,,,,,,,,,,,,,,,,,,,,,,,,,,,,,,,,,,,,,,,,,,,,,,,,
,,,,,,5ed772653b309d023ca48655,62c53a3be964c2dd719fa9a0,2022-07-06_09h31.51.954,Colour_Asymmetry_Pilot,2022.1.3,Win32,143.8228103,62c50e9c1127f2cd403a315f,0,157,157,136,1,onetwo,,,,,,,,,,,,,,,,,,,,,,,,,,,,,,,,,,,,,,,,,,,,,,,,,,,,,,,,,,,,,,,,,,,,,,,,,,,,,,,,,,,,,,,,,,,,,,,,,,,,,,,,,,,,,,,,,,,,,,,,,,,,,,,,,,,,,,,,,,,,,,,,,,,,,,,,,,,,,
,,,,,,5ed772653b309d023ca48655,62c53a3be964c2dd719fa9a0,2022-07-06_09h31.51.954,Colour_Asymmetry_Pilot,2022.1.3,Win32,143.8228103,62c50e9c1127f2cd403a315f,0,158,158,37,1,threefour,,,,,,,,,,,,,,,,,,,,,,,,,,,,,,,,,,,,,,,,,,,,,,,,,,,,,,,,,,,,,,,,,,,,,,,,,,,,,,,,,,,,,,,,,,,,,,,,,,,,,,,,,,,,,,,,,,,,,,,,,,,,,,,,,,,,,,,,,,,,,,,,,,,,,,,,,,,,,
,,,,,,5ed772653b309d023ca48655,62c53a3be964c2dd719fa9a0,2022-07-06_09h31.51.954,Colour_Asymmetry_Pilot,2022.1.3,Win32,143.8228103,62c50e9c1127f2cd403a315f,0,159,159,149,1,threefour,,,,,,,,,,,,,,,,,,,,,,,,,,,,,,,,,,,,,,,,,,,,,,,,,,,,,,,,,,,,,,,,,,,,,,,,,,,,,,,,,,,,,,,,,,,,,,,,,,,,,,,,,,,,,,,,,,,,,,,,,,,,,,,,,,,,,,,,,,,,,,,,,,,,,,,,,,,,,
,,,,,,5ed772653b309d023ca48655,62c53a3be964c2dd719fa9a0,2022-07-06_09h31.51.954,Colour_Asymmetry_Pilot,2022.1.3,Win32,143.8228103,62c50e9c1127f2cd403a315f,0,160,160,161,1,onethree,,,,,,,,,,,,,,,,,,,,,,,,,,,,,,,,,,,,,,,,,,,,,,,,,,,,,,,,,,,,,,,,,,,,,,,,,,,,,,,,,,,,,,,,,,,,,,,,,,,,,,,,,,,,,,,,,,,,,,,,,,,,,,,,,,,,,,,,,,,,,,,,,,,,,,,,,,,,,
,,,,,,5ed772653b309d023ca48655,62c53a3be964c2dd719fa9a0,2022-07-06_09h31.51.954,Colour_Asymmetry_Pilot,2022.1.3,Win32,143.8228103,62c50e9c1127f2cd403a315f,0,161,161,153,1,onethree,,,,,,,,,,,,,,,,,,,,,,,,,,,,,,,,,,,,,,,,,,,,,,,,,,,,,,,,,,,,,,,,,,,,,,,,,,,,,,,,,,,,,,,,,,,,,,,,,,,,,,,,,,,,,,,,,,,,,,,,,,,,,,,,,,,,,,,,,,,,,,,,,,,,,,,,,,,,,
,,,,,,5ed772653b309d023ca48655,62c53a3be964c2dd719fa9a0,2022-07-06_09h31.51.954,Colour_Asymmetry_Pilot,2022.1.3,Win32,143.8228103,62c50e9c1127f2cd403a315f,,,,,,,space,1.8564,space,3.1067,space,71.0473,space,12.721,space,1.5653,space,5.9988,"[-0.01980000000000004,-0.5138,-0.38039999999999996]",twoone,"[0.9213999999999998,0.6391999999999998,-0.9922]",4,12.2983,36,132,1,0,0,response1disk_5,-5,0,1,0,0,rectangle_8,-5,0,1,0,0,4,-5,0,1,0,0,0,0,0,0,1,,,,,,,,,,,,,,,,,,,,,,,,,,,,,,,,,,,,,,,,,,,,,,,,,,,,,,,,,,,,,,,,,,,,,,,,,,,,,,,,,,,,,,,,,,,,,,,,,,,,,,,,,,,,,,,,
,,,,,,5ed772653b309d023ca48655,62c53a3be964c2dd719fa9a0,2022-07-06_09h31.51.954,Colour_Asymmetry_Pilot,2022.1.3,Win32,143.8228103,62c50e9c1127f2cd403a315f,,,,,,,,,,,,,,,,,,,"[0.7646000000000002,0.07440000000000002,0.2704]",fourtwo,"[-0.8198,-0.5138,-0.7492000000000001]",-4,6.0068,-57,121,1,0,0,response7disk_5,6,10,1,0,0,rectangle_8,6,10,1,0,0,4,6,10,1,0,0,1,0,1,0,1,,,,,,,,,,,,,,,,,,,,,,,,,,,,,,,,,,,,,,,,,,,,,,,,,,,,,,,,,,,,,,,,,,,,,,,,,,,,,,,,,,,,,,,,,,,,,,,,,,,,,,,,,,,,,,,,
,,,,,,5ed772653b309d023ca48655,62c53a3be964c2dd719fa9a0,2022-07-06_09h31.51.954,Colour_Asymmetry_Pilot,2022.1.3,Win32,143.8228103,62c50e9c1127f2cd403a315f,,,,,,,,,,,,,,,,,,,"[-0.38039999999999996,-0.4276,-0.1452]",threefour,"[-0.5452,-0.608,0.2470000000000001]",3,3.8611,128,44,1,0,0,response1disk_5,-7,6,1,0,0,rectangle_8,-7,6,1,0,0,4,-7,6,1,0,0,2,0,2,0,1,,,,,,,,,,,,,,,,,,,,,,,,,,,,,,,,,,,,,,,,,,,,,,,,,,,,,,,,,,,,,,,,,,,,,,,,,,,,,,,,,,,,,,,,,,,,,,,,,,,,,,,,,,,,,,,,
,,,,,,5ed772653b309d023ca48655,62c53a3be964c2dd719fa9a0,2022-07-06_09h31.51.954,Colour_Asymmetry_Pilot,2022.1.3,Win32,143.8228103,62c50e9c1127f2cd403a315f,,,,,,,,,,,,,,,,,,,"[-0.050999999999999934,-0.6706000000000001,-0.804]",threeone,"[-0.17659999999999998,-0.2864,-0.8354]",2,2.0903,127,-37,1,0,0,response3disk_5,4,2,1,0,0,rectangle_8,4,2,1,0,0,4,4,2,1,0,0,3,0,3,0,1,,,,,,,,,,,,,,,,,,,,,,,,,,,,,,,,,,,,,,,,,,,,,,,,,,,,,,,,,,,,,,,,,,,,,,,,,,,,,,,,,,,,,,,,,,,,,,,,,,,,,,,,,,,,,,,,
,,,,,,5ed772653b309d023ca48655,62c53a3be964c2dd719fa9a0,2022-07-06_09h31.51.954,Colour_Asymmetry_Pilot,2022.1.3,Win32,143.8228103,62c50e9c1127f2cd403a315f,,,,,,,,,,,,,,,,,,,"[-0.06680000000000008,-0.45100000000000007,-0.906]",fourthree,"[0.12939999999999996,-0.2864,0.3253999999999999]",-1,1.2569,-62,-102,1,0,0,response5disk_5,-3,-4,1,0,0,rectangle_8,-3,-4,1,0,0,4,-3,-4,1,0,0,4,0,4,0,1,,,,,,,,,,,,,,,,,,,,,,,,,,,,,,,,,,,,,,,,,,,,,,,,,,,,,,,,,,,,,,,,,,,,,,,,,,,,,,,,,,,,,,,,,,,,,,,,,,,,,,,,,,,,,,,,
,,,,,,5ed772653b309d023ca48655,62c53a3be964c2dd719fa9a0,2022-07-06_09h31.51.954,Colour_Asymmetry_Pilot,2022.1.3,Win32,143.8228103,62c50e9c1127f2cd403a315f,,,,,,,,,,,,,,,,,,,"[-0.2942,-0.7648,-0.7492000000000001]",threeone,"[0.23920000000000008,0.2704,0.16060000000000008]",-4,1.7431,-57,142,1,0,0,response7disk_5,-2,-9,1,0,0,rectangle_8,65,127,1,0,0,4,17,1,1,0,0,5,0,5,0,1,response1disk_7,7,rectangle_4,,,,,,,,,,,,,,,,,,,,,,,,,,,,,,,,,,,,,,,,,,,,,,,,,,,,,,,,,,,,,,,,,,,,,,,,,,,,,,,,,,,,,,,,,,,,,,,,,,,,,,,,,,,,,
,,,,,,5ed772653b309d023ca48655,62c53a3be964c2dd719fa9a0,2022-07-06_09h31.51.954,Colour_Asymmetry_Pilot,2022.1.3,Win32,143.8228103,62c50e9c1127f2cd403a315f,,,,,,,,,,,,,,,,,,,"[0.34099999999999997,0.12939999999999996,-0.9766]",fourthree,"[-0.4668,-0.8746,-0.2942]",-1,2.1804,-46,-122,1,0,0,response5disk_5,-11,-3,1,0,0,rectangle_8,-11,-3,1,0,0,4,-11,-3,1,0,0,6,0,6,0,1,,,,,,,,,,,,,,,,,,,,,,,,,,,,,,,,,,,,,,,,,,,,,,,,,,,,,,,,,,,,,,,,,,,,,,,,,,,,,,,,,,,,,,,,,,,,,,,,,,,,,,,,,,,,,,,,
,,,,,,5ed772653b309d023ca48655,62c53a3be964c2dd719fa9a0,2022-07-06_09h31.51.954,Colour_Asymmetry_Pilot,2022.1.3,Win32,143.8228103,62c50e9c1127f2cd403a315f,,,,,,,,,,,,,,,,,,,,onethree,,-2,1.125,,,,,,,,,,,,,,,,,,,,,,,,,,,,,,,,space,4.1799,"[-0.9688,-0.7412000000000001,-0.4902000000000001]","[0.9686000000000001,0.3802000000000001,0.19999999999999996]",-104,-55,1,0,0,response5disk,-2,-4,1,0,0,rectangle,-2,-4,1,0,0,,2,0.0008,0,-2,-4,1,0,0,0,0,0,142,1,61,second,,,,,,,,,,,,,,,,,,,,,,,,,,,,,,,,,,,,,,,,,,,,,,,,,,,,,,,,,,,,,,,,,,,,,,,,
,,,,,,5ed772653b309d023ca48655,62c53a3be964c2dd719fa9a0,2022-07-06_09h31.51.954,Colour_Asymmetry_Pilot,2022.1.3,Win32,143.8228103,62c50e9c1127f2cd403a315f,,,,,,,,,,,,,,,,,,,,twoone,,-2,4.7151,,,,,,,,,,,,,,,,,,,,,,,,,,,,,,,,,,"[0.2862,0.7802,0.3568]","[0.9686000000000001,0.3802000000000001,0.19999999999999996]",-126,-42,1,0,0,response5disk,0,-2,1,0,0,rectangle,0,-2,1,0,0,,1,0.0006,0,0,-2,1,0,0,0,1,1,118,1,37,second,,,,,,,,,,,,,,,,,,,,,,,,,,,,,,,,,,,,,,,,,,,,,,,,,,,,,,,,,,,,,,,,,,,,,,,,
,,,,,,5ed772653b309d023ca48655,62c53a3be964c2dd719fa9a0,2022-07-06_09h31.51.954,Colour_Asymmetry_Pilot,2022.1.3,Win32,143.8228103,62c50e9c1127f2cd403a315f,,,,,,,,,,,,,,,,,,,,onetwo,,-3,4.3613,,,,,,,,,,,,,,,,,,,,,,,,,,,,,,,,,,"[0.9213999999999998,0.6391999999999998,-0.9922]","[0.7646000000000002,0.07440000000000002,0.2704]",-119,52,1,0,0,response7disk,3,-5,1,0,0,rectangle,3,-5,1,0,0,,1,0,0,3,-5,1,0,0,0,2,2,59,1,59,first,,,,,,,,,,,,,,,,,,,,,,,,,,,,,,,,,,,,,,,,,,,,,,,,,,,,,,,,,,,,,,,,,,,,,,,,
,,,,,,5ed772653b309d023ca48655,62c53a3be964c2dd719fa9a0,2022-07-06_09h31.51.954,Colour_Asymmetry_Pilot,2022.1.3,Win32,143.8228103,62c50e9c1127f2cd403a315f,,,,,,,,,,,,,,,,,,,,fourtwo,,4,0.8818,,,,,,,,,,,,,,,,,,,,,,,,,,,,,,,,,,"[-0.9766,-0.34920000000000007,0.2156]","[-0.4746,-0.0354000000000001,0.5449999999999999]",51,118,1,0,0,response1disk,0,-1,1,0,0,rectangle,111,50,1,0,0,3,3,4.2987,1,-5,-4,1,0,0,0,3,3,55,1,55,first,response1disk_3,rectangle,,,,,,,,,,,,,,,,,,,,,,,,,,,,,,,,,,,,,,,,,,,,,,,,,,,,,,,,,,,,,,,,,,,,,,
,,,,,,5ed772653b309d023ca48655,62c53a3be964c2dd719fa9a0,2022-07-06_09h31.51.954,Colour_Asymmetry_Pilot,2022.1.3,Win32,143.8228103,62c50e9c1127f2cd403a315f,,,,,,,,,,,,,,,,,,,,fourthree,,-2,2.4445,,,,,,,,,,,,,,,,,,,,,,,,,,,,,,,,,,"[-0.48240000000000005,0.3175999999999999,0.2156]","[0.6547999999999998,-0.043199999999999905,-0.011800000000000033]",-111,-48,1,0,0,response5disk,-7,11,1,0,0,rectangle,-7,11,1,0,0,3,3,0.0002,0,-7,11,1,0,0,0,4,4,4,1,4,first,,,,,,,,,,,,,,,,,,,,,,,,,,,,,,,,,,,,,,,,,,,,,,,,,,,,,,,,,,,,,,,,,,,,,,,,
,,,,,,5ed772653b309d023ca48655,62c53a3be964c2dd719fa9a0,2022-07-06_09h31.51.954,Colour_Asymmetry_Pilot,2022.1.3,Win32,143.8228103,62c50e9c1127f2cd403a315f,,,,,,,,,,,,,,,,,,,,twofour,,1,2.2154,,,,,,,,,,,,,,,,,,,,,,,,,,,,,,,,,,"[1,0.12939999999999996,-1]","[0.9372,0.20779999999999998,0.2704]",56,-120,1,0,0,response3disk,-8,-6,1,0,0,rectangle,-8,-6,1,0,0,3,2,0.0007,0,-8,-6,1,0,0,0,5,5,13,1,13,first,,,,,,,,,,,,,,,,,,,,,,,,,,,,,,,,,,,,,,,,,,,,,,,,,,,,,,,,,,,,,,,,,,,,,,,,
,,,,,,5ed772653b309d023ca48655,62c53a3be964c2dd719fa9a0,2022-07-06_09h31.51.954,Colour_Asymmetry_Pilot,2022.1.3,Win32,143.8228103,62c50e9c1127f2cd403a315f,,,,,,,,,,,,,,,,,,,,fourtwo,,-2,2.2777,,,,,,,,,,,,,,,,,,,,,,,,,,,,,,,,,,"[0.9763999999999999,0.8588,-0.05900000000000005]","[0.22340000000000004,-0.9296,-0.7884]",-108,-49,1,0,0,response5disk,-8,0,1,0,0,rectangle,-8,0,1,0,0,3,1,0.0005,0,-8,0,1,0,0,0,6,6,30,1,30,first,,,,,,,,,,,,,,,,,,,,,,,,,,,,,,,,,,,,,,,,,,,,,,,,,,,,,,,,,,,,,,,,,,,,,,,,
,,,,,,5ed772653b309d023ca48655,62c53a3be964c2dd719fa9a0,2022-07-06_09h31.51.954,Colour_Asymmetry_Pilot,2022.1.3,Win32,143.8228103,62c50e9c1127f2cd403a315f,,,,,,,,,,,,,,,,,,,,fourtwo,,2,5.8194,,,,,,,,,,,,,,,,,,,,,,,,,,,,,,,,,,"[0.6547999999999998,-0.043199999999999905,-0.011800000000000033]","[1,0.12939999999999996,-1]",112,-80,1,0,0,response3disk,-11,5,1,0,0,rectangle,-11,5,1,0,0,3,1,0.0001,0,-11,5,1,0,0,0,7,7,134,1,53,second,,,,,,,,,,,,,,,,,,,,,,,,,,,,,,,,,,,,,,,,,,,,,,,,,,,,,,,,,,,,,,,,,,,,,,,,
,,,,,,5ed772653b309d023ca48655,62c53a3be964c2dd719fa9a0,2022-07-06_09h31.51.954,Colour_Asymmetry_Pilot,2022.1.3,Win32,143.8228103,62c50e9c1127f2cd403a315f,,,,,,,,,,,,,,,,,,,,onetwo,,2,1.0485,,,,,,,,,,,,,,,,,,,,,,,,,,,,,,,,,,"[-0.8198,-0.5138,-0.7492000000000001]","[0.2862,0.7802,0.3568]",110,-47,1,0,0,response3disk,9,-11,1,0,0,rectangle,9,-11,1,0,0,3,3,0.0005,0,9,-11,1,0,0,0,8,8,15,1,15,first,,,,,,,,,,,,,,,,,,,,,,,,,,,,,,,,,,,,,,,,,,,,,,,,,,,,,,,,,,,,,,,,,,,,,,,,
,,,,,,5ed772653b309d023ca48655,62c53a3be964c2dd719fa9a0,2022-07-06_09h31.51.954,Colour_Asymmetry_Pilot,2022.1.3,Win32,143.8228103,62c50e9c1127f2cd403a315f,,,,,,,,,,,,,,,,,,,,threefour,,1,1.0763,,,,,,,,,,,,,,,,,,,,,,,,,,,,,,,,,,"[-0.4982,-0.2942,-0.0354000000000001]","[-0.7412000000000001,-0.08239999999999992,-0.6864]",37,-112,1,0,0,response3disk,-3,-6,1,0,0,rectangle,-3,-6,1,0,0,3,2,0.0005,0,-3,-6,1,0,0,0,9,9,150,1,69,second,,,,,,,,,,,,,,,,,,,,,,,,,,,,,,,,,,,,,,,,,,,,,,,,,,,,,,,,,,,,,,,,,,,,,,,,
,,,,,,5ed772653b309d023ca48655,62c53a3be964c2dd719fa9a0,2022-07-06_09h31.51.954,Colour_Asymmetry_Pilot,2022.1.3,Win32,143.8228103,62c50e9c1127f2cd403a315f,,,,,,,,,,,,,,,,,,,,onethree,,1,3.0902,,,,,,,,,,,,,,,,,,,,,,,,,,,,,,,,,,"[-0.6235999999999999,-0.6786,-0.08239999999999992]","[0.19199999999999995,0.18419999999999992,0.5136000000000001]",62,-122,1,0,0,response3disk,-4,7,1,0,0,rectangle,-4,7,1,0,0,3,1,0.0004,0,-4,7,1,0,0,0,10,10,49,1,49,first,,,,,,,,,,,,,,,,,,,,,,,,,,,,,,,,,,,,,,,,,,,,,,,,,,,,,,,,,,,,,,,,,,,,,,,,
,,,,,,5ed772653b309d023ca48655,62c53a3be964c2dd719fa9a0,2022-07-06_09h31.51.954,Colour_Asymmetry_Pilot,2022.1.3,Win32,143.8228103,62c50e9c1127f2cd403a315f,,,,,,,,,,,,,,,,,,,,threeone,,-2,2.2777,,,,,,,,,,,,,,,,,,,,,,,,,,,,,,,,,,"[0.9686000000000001,0.3802000000000001,0.19999999999999996]","[0.2862,0.7802,0.3568]",-139,-48,1,0,0,response5disk,-14,-2,1,0,0,rectangle,-14,-2,1,0,0,3,3,0.0004,0,-14,-2,1,0,0,0,11,11,37,1,37,first,,,,,,,,,,,,,,,,,,,,,,,,,,,,,,,,,,,,,,,,,,,,,,,,,,,,,,,,,,,,,,,,,,,,,,,,
,,,,,,5ed772653b309d023ca48655,62c53a3be964c2dd719fa9a0,2022-07-06_09h31.51.954,Colour_Asymmetry_Pilot,2022.1.3,Win32,143.8228103,62c50e9c1127f2cd403a315f,,,,,,,,,,,,,,,,,,,,onetwo,,1,2.6249,,,,,,,,,,,,,,,,,,,,,,,,,,,,,,,,,,"[0.7176,-0.906,-0.6864]","[0.9763999999999999,0.30979999999999985,-0.6786]",68,-131,1,0,0,response3disk,6,-2,1,0,0,rectangle,6,-2,1,0,0,3,3,0,0,6,-2,1,0,0,0,12,12,50,1,50,first,,,,,,,,,,,,,,,,,,,,,,,,,,,,,,,,,,,,,,,,,,,,,,,,,,,,,,,,,,,,,,,,,,,,,,,,
,,,,,,5ed772653b309d023ca48655,62c53a3be964c2dd719fa9a0,2022-07-06_09h31.51.954,Colour_Asymmetry_Pilot,2022.1.3,Win32,143.8228103,62c50e9c1127f2cd403a315f,,,,,,,,,,,,,,,,,,,,twofour,,2,0.8749,,,,,,,,,,,,,,,,,,,,,,,,,,,,,,,,,,"[0.796,0.2156,-0.27859999999999996]","[0.2784,-0.31000000000000005,-0.5452]",117,-36,1,0,0,response3disk,-6,7,1,0,0,rectangle,-6,7,1,0,0,3,3,0.0002,0,-6,7,1,0,0,0,13,13,92,1,11,second,,,,,,,,,,,,,,,,,,,,,,,,,,,,,,,,,,,,,,,,,,,,,,,,,,,,,,,,,,,,,,,,,,,,,,,,
,,,,,,5ed772653b309d023ca48655,62c53a3be964c2dd719fa9a0,2022-07-06_09h31.51.954,Colour_Asymmetry_Pilot,2022.1.3,Win32,143.8228103,62c50e9c1127f2cd403a315f,,,,,,,,,,,,,,,,,,,,onetwo,,-3,1.8892,,,,,,,,,,,,,,,,,,,,,,,,,,,,,,,,,,"[0.09799999999999986,-0.24719999999999998,0.15280000000000005]","[-0.9138,-0.5296000000000001,-0.5529999999999999]",-126,58,1,0,0,response7disk,-26,7,1,0,0,rectangle,-26,7,1,0,0,3,3,0,0,-26,7,1,0,0,0,14,14,112,1,31,second,,,,,,,,,,,,,,,,,,,,,,,,,,,,,,,,,,,,,,,,,,,,,,,,,,,,,,,,,,,,,,,,,,,,,,,,
,,,,,,5ed772653b309d023ca48655,62c53a3be964c2dd719fa9a0,2022-07-06_09h31.51.954,Colour_Asymmetry_Pilot,2022.1.3,Win32,143.8228103,62c50e9c1127f2cd403a315f,,,,,,,,,,,,,,,,,,,,threeone,,-2,2.3333,,,,,,,,,,,,,,,,,,,,,,,,,,,,,,,,,,"[0.6547999999999998,-0.043199999999999905,-0.011800000000000033]","[0.8274000000000001,-0.5844,-0.9452]",-111,-48,1,0,0,response5disk,15,-2,1,0,0,rectangle,15,-2,1,0,0,3,3,0.0001,0,15,-2,1,0,0,0,15,15,117,1,36,second,,,,,,,,,,,,,,,,,,,,,,,,,,,,,,,,,,,,,,,,,,,,,,,,,,,,,,,,,,,,,,,,,,,,,,,,
,,,,,,5ed772653b309d023ca48655,62c53a3be964c2dd719fa9a0,2022-07-06_09h31.51.954,Colour_Asymmetry_Pilot,2022.1.3,Win32,143.8228103,62c50e9c1127f2cd403a315f,,,,,,,,,,,,,,,,,,,,threefour,,1,0.9028,,,,,,,,,,,,,,,,,,,,,,,,,,,,,,,,,,"[-0.5688,-0.08239999999999992,-0.1844]","[0.05879999999999996,0.2784,0.5841999999999998]",60,-124,1,0,0,response3disk,9,-6,1,0,0,rectangle,9,-6,1,0,0,3,3,0.0001,0,9,-6,1,0,0,0,16,16,109,1,28,second,,,,,,,,,,,,,,,,,,,,,,,,,,,,,,,,,,,,,,,,,,,,,,,,,,,,,,,,,,,,,,,,,,,,,,,,
,,,,,,5ed772653b309d023ca48655,62c53a3be964c2dd719fa9a0,2022-07-06_09h31.51.954,Colour_Asymmetry_Pilot,2022.1.3,Win32,143.8228103,62c50e9c1127f2cd403a315f,,,,,,,,,,,,,,,,,,,,onethree,,-1,1.132,,,,,,,,,,,,,,,,,,,,,,,,,,,,,,,,,,"[0.09799999999999986,-0.24719999999999998,0.15280000000000005]","[-0.8118,-0.8198,-0.5452]",-63,-130,1,0,0,response5disk,-5,-1,1,0,0,rectangle,-5,-1,1,0,0,3,1,0.0005,0,-5,-1,1,0,0,0,17,17,100,1,19,second,,,,,,,,,,,,,,,,,,,,,,,,,,,,,,,,,,,,,,,,,,,,,,,,,,,,,,,,,,,,,,,,,,,,,,,,
