trials.thisRepN,trials.thisTrialN,trials.thisN,trials.thisIndex,trials.ran,Colourcodes,participant,session,date,expName,psychopyVersion,OS,frameRate,study_id,trials_4.thisRepN,trials_4.thisTrialN,trials_4.thisN,trials_4.thisIndex,trials_4.ran,StimulusPos,key_resp.keys,key_resp.rt,key_resp_2.keys,key_resp_2.rt,key_resp_15.keys,key_resp_15.rt,key_resp_17.keys,key_resp_17.rt,key_resp_9.keys,key_resp_9.rt,key_resp_10.keys,key_resp_10.rt,Circle1_col,Ecc,Circle2_col,similarity,response_time,mouse_5.x,mouse_5.y,mouse_5.leftButton,mouse_5.midButton,mouse_5.rightButton,mouse_5.clicked_name,mouse_10.x,mouse_10.y,mouse_10.leftButton,mouse_10.midButton,mouse_10.rightButton,mouse_10.clicked_name,mouse_7.x,mouse_7.y,mouse_7.leftButton,mouse_7.midButton,mouse_7.rightButton,catchnumberprac,mouse_6.x,mouse_6.y,mouse_6.leftButton,mouse_6.midButton,mouse_6.rightButton,duringprac.thisRepN,duringprac.thisTrialN,duringprac.thisN,duringprac.thisIndex,duringprac.ran,mouse_7.clicked_name,catchprac,mouse_6.clicked_name,key_resp_22.keys,key_resp_22.rt,Circle1_colour,Circle2_colour,mouse.x,mouse.y,mouse.leftButton,mouse.midButton,mouse.rightButton,mouse.clicked_name,mouse_2.x,mouse_2.y,mouse_2.leftButton,mouse_2.midButton,mouse_2.rightButton,mouse_2.clicked_name,mouse_3.x,mouse_3.y,mouse_3.leftButton,mouse_3.midButton,mouse_3.rightButton,catchresponse,catchnumber,response_time_catch,Catch,mouse_11.x,mouse_11.y,mouse_11.leftButton,mouse_11.midButton,mouse_11.rightButton,trials_2.thisRepN,trials_2.thisTrialN,trials_2.thisN,trials_2.thisIndex,trials_2.ran,Colourpair,Temporder,mouse_3.clicked_name,mouse_11.clicked_name,trials_3.thisRepN,trials_3.thisTrialN,trials_3.thisN,trials_3.thisIndex,trials_3.ran,key_resp_instr_Ishi.keys,key_resp_instr_Ishi.rt,Ishi_trial_keyresp.keys,Ishi_textbox.text,Ishi_mouse.x,Ishi_mouse.y,Ishi_mouse.leftButton,Ishi_mouse.midButton,Ishi_mouse.rightButton,Ishi_mouse.clicked_name,Ishi_loop.thisRepN,Ishi_loop.thisTrialN,Ishi_loop.thisN,Ishi_loop.thisIndex,Ishi_loop.ran,imageaddress,textbox.text,mouse_4.x,mouse_4.y,mouse_4.leftButton,mouse_4.midButton,mouse_4.rightButton,mouse_4.clicked_name,textbox_2.text,mouse_8.x,mouse_8.y,mouse_8.leftButton,mouse_8.midButton,mouse_8.rightButton,mouse_8.clicked_name,textbox_3.text,mouse_9.x,mouse_9.y,mouse_9.leftButton,mouse_9.midButton,mouse_9.rightButton,mouse_9.clicked_name,textbox_4.text,mouse_12.x,mouse_12.y,mouse_12.leftButton,mouse_12.midButton,mouse_12.rightButton,mouse_12.clicked_name,textbox_5.text,mouse_13.x,mouse_13.y,mouse_13.leftButton,mouse_13.midButton,mouse_13.rightButton,mouse_13.clicked_name,textbox_6.text,mouse_14.x,mouse_14.y,mouse_14.leftButton,mouse_14.midButton,mouse_14.rightButton,mouse_14.clicked_name,textbox_7.text,mouse_15.x,mouse_15.y,mouse_15.leftButton,mouse_15.midButton,mouse_15.rightButton,mouse_15.clicked_name
0,0,0,32,1,,616fd6aac8d209bdcd631c2a,62c53964b92f20b2d77b8cc9,2022-07-06_09h29.36.324,Colour_Asymmetry_Pilot,2022.1.3,Win32,59.64807635,62c50e9c1127f2cd403a315f,,,,,,,,,,,,,,,,,,,,,,,,,,,,,,,,,,,,,,,,,,,,,,,,,,,,,,,,,,,,,,,,,,,,,,,,,,,,,,,,,,,,,,,,,,,,,,,,,,,,,,,,,,,,,,,,,,,,,,,,,,,,,,,,,,,,,,,,,,,,,,,,,,,,,,,,,,,,,,,,,,,
0,1,1,40,1,,616fd6aac8d209bdcd631c2a,62c53964b92f20b2d77b8cc9,2022-07-06_09h29.36.324,Colour_Asymmetry_Pilot,2022.1.3,Win32,59.64807635,62c50e9c1127f2cd403a315f,,,,,,,,,,,,,,,,,,,,,,,,,,,,,,,,,,,,,,,,,,,,,,,,,,,,,,,,,,,,,,,,,,,,,,,,,,,,,,,,,,,,,,,,,,,,,,,,,,,,,,,,,,,,,,,,,,,,,,,,,,,,,,,,,,,,,,,,,,,,,,,,,,,,,,,,,,,,,,,,,,,
0,2,2,57,1,,616fd6aac8d209bdcd631c2a,62c53964b92f20b2d77b8cc9,2022-07-06_09h29.36.324,Colour_Asymmetry_Pilot,2022.1.3,Win32,59.64807635,62c50e9c1127f2cd403a315f,,,,,,,,,,,,,,,,,,,,,,,,,,,,,,,,,,,,,,,,,,,,,,,,,,,,,,,,,,,,,,,,,,,,,,,,,,,,,,,,,,,,,,,,,,,,,,,,,,,,,,,,,,,,,,,,,,,,,,,,,,,,,,,,,,,,,,,,,,,,,,,,,,,,,,,,,,,,,,,,,,,
0,3,3,30,1,,616fd6aac8d209bdcd631c2a,62c53964b92f20b2d77b8cc9,2022-07-06_09h29.36.324,Colour_Asymmetry_Pilot,2022.1.3,Win32,59.64807635,62c50e9c1127f2cd403a315f,,,,,,,,,,,,,,,,,,,,,,,,,,,,,,,,,,,,,,,,,,,,,,,,,,,,,,,,,,,,,,,,,,,,,,,,,,,,,,,,,,,,,,,,,,,,,,,,,,,,,,,,,,,,,,,,,,,,,,,,,,,,,,,,,,,,,,,,,,,,,,,,,,,,,,,,,,,,,,,,,,,
0,4,4,1,1,,616fd6aac8d209bdcd631c2a,62c53964b92f20b2d77b8cc9,2022-07-06_09h29.36.324,Colour_Asymmetry_Pilot,2022.1.3,Win32,59.64807635,62c50e9c1127f2cd403a315f,,,,,,,,,,,,,,,,,,,,,,,,,,,,,,,,,,,,,,,,,,,,,,,,,,,,,,,,,,,,,,,,,,,,,,,,,,,,,,,,,,,,,,,,,,,,,,,,,,,,,,,,,,,,,,,,,,,,,,,,,,,,,,,,,,,,,,,,,,,,,,,,,,,,,,,,,,,,,,,,,,,
0,5,5,56,1,,616fd6aac8d209bdcd631c2a,62c53964b92f20b2d77b8cc9,2022-07-06_09h29.36.324,Colour_Asymmetry_Pilot,2022.1.3,Win32,59.64807635,62c50e9c1127f2cd403a315f,,,,,,,,,,,,,,,,,,,,,,,,,,,,,,,,,,,,,,,,,,,,,,,,,,,,,,,,,,,,,,,,,,,,,,,,,,,,,,,,,,,,,,,,,,,,,,,,,,,,,,,,,,,,,,,,,,,,,,,,,,,,,,,,,,,,,,,,,,,,,,,,,,,,,,,,,,,,,,,,,,,
0,6,6,61,1,,616fd6aac8d209bdcd631c2a,62c53964b92f20b2d77b8cc9,2022-07-06_09h29.36.324,Colour_Asymmetry_Pilot,2022.1.3,Win32,59.64807635,62c50e9c1127f2cd403a315f,,,,,,,,,,,,,,,,,,,,,,,,,,,,,,,,,,,,,,,,,,,,,,,,,,,,,,,,,,,,,,,,,,,,,,,,,,,,,,,,,,,,,,,,,,,,,,,,,,,,,,,,,,,,,,,,,,,,,,,,,,,,,,,,,,,,,,,,,,,,,,,,,,,,,,,,,,,,,,,,,,,
0,7,7,76,1,,616fd6aac8d209bdcd631c2a,62c53964b92f20b2d77b8cc9,2022-07-06_09h29.36.324,Colour_Asymmetry_Pilot,2022.1.3,Win32,59.64807635,62c50e9c1127f2cd403a315f,,,,,,,,,,,,,,,,,,,,,,,,,,,,,,,,,,,,,,,,,,,,,,,,,,,,,,,,,,,,,,,,,,,,,,,,,,,,,,,,,,,,,,,,,,,,,,,,,,,,,,,,,,,,,,,,,,,,,,,,,,,,,,,,,,,,,,,,,,,,,,,,,,,,,,,,,,,,,,,,,,,
0,8,8,77,1,,616fd6aac8d209bdcd631c2a,62c53964b92f20b2d77b8cc9,2022-07-06_09h29.36.324,Colour_Asymmetry_Pilot,2022.1.3,Win32,59.64807635,62c50e9c1127f2cd403a315f,,,,,,,,,,,,,,,,,,,,,,,,,,,,,,,,,,,,,,,,,,,,,,,,,,,,,,,,,,,,,,,,,,,,,,,,,,,,,,,,,,,,,,,,,,,,,,,,,,,,,,,,,,,,,,,,,,,,,,,,,,,,,,,,,,,,,,,,,,,,,,,,,,,,,,,,,,,,,,,,,,,
0,9,9,53,1,,616fd6aac8d209bdcd631c2a,62c53964b92f20b2d77b8cc9,2022-07-06_09h29.36.324,Colour_Asymmetry_Pilot,2022.1.3,Win32,59.64807635,62c50e9c1127f2cd403a315f,,,,,,,,,,,,,,,,,,,,,,,,,,,,,,,,,,,,,,,,,,,,,,,,,,,,,,,,,,,,,,,,,,,,,,,,,,,,,,,,,,,,,,,,,,,,,,,,,,,,,,,,,,,,,,,,,,,,,,,,,,,,,,,,,,,,,,,,,,,,,,,,,,,,,,,,,,,,,,,,,,,
0,10,10,89,1,,616fd6aac8d209bdcd631c2a,62c53964b92f20b2d77b8cc9,2022-07-06_09h29.36.324,Colour_Asymmetry_Pilot,2022.1.3,Win32,59.64807635,62c50e9c1127f2cd403a315f,,,,,,,,,,,,,,,,,,,,,,,,,,,,,,,,,,,,,,,,,,,,,,,,,,,,,,,,,,,,,,,,,,,,,,,,,,,,,,,,,,,,,,,,,,,,,,,,,,,,,,,,,,,,,,,,,,,,,,,,,,,,,,,,,,,,,,,,,,,,,,,,,,,,,,,,,,,,,,,,,,,
0,11,11,41,1,,616fd6aac8d209bdcd631c2a,62c53964b92f20b2d77b8cc9,2022-07-06_09h29.36.324,Colour_Asymmetry_Pilot,2022.1.3,Win32,59.64807635,62c50e9c1127f2cd403a315f,,,,,,,,,,,,,,,,,,,,,,,,,,,,,,,,,,,,,,,,,,,,,,,,,,,,,,,,,,,,,,,,,,,,,,,,,,,,,,,,,,,,,,,,,,,,,,,,,,,,,,,,,,,,,,,,,,,,,,,,,,,,,,,,,,,,,,,,,,,,,,,,,,,,,,,,,,,,,,,,,,,
0,12,12,58,1,,616fd6aac8d209bdcd631c2a,62c53964b92f20b2d77b8cc9,2022-07-06_09h29.36.324,Colour_Asymmetry_Pilot,2022.1.3,Win32,59.64807635,62c50e9c1127f2cd403a315f,,,,,,,,,,,,,,,,,,,,,,,,,,,,,,,,,,,,,,,,,,,,,,,,,,,,,,,,,,,,,,,,,,,,,,,,,,,,,,,,,,,,,,,,,,,,,,,,,,,,,,,,,,,,,,,,,,,,,,,,,,,,,,,,,,,,,,,,,,,,,,,,,,,,,,,,,,,,,,,,,,,
0,13,13,12,1,,616fd6aac8d209bdcd631c2a,62c53964b92f20b2d77b8cc9,2022-07-06_09h29.36.324,Colour_Asymmetry_Pilot,2022.1.3,Win32,59.64807635,62c50e9c1127f2cd403a315f,,,,,,,,,,,,,,,,,,,,,,,,,,,,,,,,,,,,,,,,,,,,,,,,,,,,,,,,,,,,,,,,,,,,,,,,,,,,,,,,,,,,,,,,,,,,,,,,,,,,,,,,,,,,,,,,,,,,,,,,,,,,,,,,,,,,,,,,,,,,,,,,,,,,,,,,,,,,,,,,,,,
0,14,14,46,1,,616fd6aac8d209bdcd631c2a,62c53964b92f20b2d77b8cc9,2022-07-06_09h29.36.324,Colour_Asymmetry_Pilot,2022.1.3,Win32,59.64807635,62c50e9c1127f2cd403a315f,,,,,,,,,,,,,,,,,,,,,,,,,,,,,,,,,,,,,,,,,,,,,,,,,,,,,,,,,,,,,,,,,,,,,,,,,,,,,,,,,,,,,,,,,,,,,,,,,,,,,,,,,,,,,,,,,,,,,,,,,,,,,,,,,,,,,,,,,,,,,,,,,,,,,,,,,,,,,,,,,,,
0,15,15,74,1,,616fd6aac8d209bdcd631c2a,62c53964b92f20b2d77b8cc9,2022-07-06_09h29.36.324,Colour_Asymmetry_Pilot,2022.1.3,Win32,59.64807635,62c50e9c1127f2cd403a315f,,,,,,,,,,,,,,,,,,,,,,,,,,,,,,,,,,,,,,,,,,,,,,,,,,,,,,,,,,,,,,,,,,,,,,,,,,,,,,,,,,,,,,,,,,,,,,,,,,,,,,,,,,,,,,,,,,,,,,,,,,,,,,,,,,,,,,,,,,,,,,,,,,,,,,,,,,,,,,,,,,,
0,16,16,49,1,,616fd6aac8d209bdcd631c2a,62c53964b92f20b2d77b8cc9,2022-07-06_09h29.36.324,Colour_Asymmetry_Pilot,2022.1.3,Win32,59.64807635,62c50e9c1127f2cd403a315f,,,,,,,,,,,,,,,,,,,,,,,,,,,,,,,,,,,,,,,,,,,,,,,,,,,,,,,,,,,,,,,,,,,,,,,,,,,,,,,,,,,,,,,,,,,,,,,,,,,,,,,,,,,,,,,,,,,,,,,,,,,,,,,,,,,,,,,,,,,,,,,,,,,,,,,,,,,,,,,,,,,
0,17,17,79,1,,616fd6aac8d209bdcd631c2a,62c53964b92f20b2d77b8cc9,2022-07-06_09h29.36.324,Colour_Asymmetry_Pilot,2022.1.3,Win32,59.64807635,62c50e9c1127f2cd403a315f,,,,,,,,,,,,,,,,,,,,,,,,,,,,,,,,,,,,,,,,,,,,,,,,,,,,,,,,,,,,,,,,,,,,,,,,,,,,,,,,,,,,,,,,,,,,,,,,,,,,,,,,,,,,,,,,,,,,,,,,,,,,,,,,,,,,,,,,,,,,,,,,,,,,,,,,,,,,,,,,,,,
0,18,18,68,1,,616fd6aac8d209bdcd631c2a,62c53964b92f20b2d77b8cc9,2022-07-06_09h29.36.324,Colour_Asymmetry_Pilot,2022.1.3,Win32,59.64807635,62c50e9c1127f2cd403a315f,,,,,,,,,,,,,,,,,,,,,,,,,,,,,,,,,,,,,,,,,,,,,,,,,,,,,,,,,,,,,,,,,,,,,,,,,,,,,,,,,,,,,,,,,,,,,,,,,,,,,,,,,,,,,,,,,,,,,,,,,,,,,,,,,,,,,,,,,,,,,,,,,,,,,,,,,,,,,,,,,,,
0,19,19,2,1,,616fd6aac8d209bdcd631c2a,62c53964b92f20b2d77b8cc9,2022-07-06_09h29.36.324,Colour_Asymmetry_Pilot,2022.1.3,Win32,59.64807635,62c50e9c1127f2cd403a315f,,,,,,,,,,,,,,,,,,,,,,,,,,,,,,,,,,,,,,,,,,,,,,,,,,,,,,,,,,,,,,,,,,,,,,,,,,,,,,,,,,,,,,,,,,,,,,,,,,,,,,,,,,,,,,,,,,,,,,,,,,,,,,,,,,,,,,,,,,,,,,,,,,,,,,,,,,,,,,,,,,,
0,20,20,63,1,,616fd6aac8d209bdcd631c2a,62c53964b92f20b2d77b8cc9,2022-07-06_09h29.36.324,Colour_Asymmetry_Pilot,2022.1.3,Win32,59.64807635,62c50e9c1127f2cd403a315f,,,,,,,,,,,,,,,,,,,,,,,,,,,,,,,,,,,,,,,,,,,,,,,,,,,,,,,,,,,,,,,,,,,,,,,,,,,,,,,,,,,,,,,,,,,,,,,,,,,,,,,,,,,,,,,,,,,,,,,,,,,,,,,,,,,,,,,,,,,,,,,,,,,,,,,,,,,,,,,,,,,
0,21,21,25,1,,616fd6aac8d209bdcd631c2a,62c53964b92f20b2d77b8cc9,2022-07-06_09h29.36.324,Colour_Asymmetry_Pilot,2022.1.3,Win32,59.64807635,62c50e9c1127f2cd403a315f,,,,,,,,,,,,,,,,,,,,,,,,,,,,,,,,,,,,,,,,,,,,,,,,,,,,,,,,,,,,,,,,,,,,,,,,,,,,,,,,,,,,,,,,,,,,,,,,,,,,,,,,,,,,,,,,,,,,,,,,,,,,,,,,,,,,,,,,,,,,,,,,,,,,,,,,,,,,,,,,,,,
0,22,22,15,1,,616fd6aac8d209bdcd631c2a,62c53964b92f20b2d77b8cc9,2022-07-06_09h29.36.324,Colour_Asymmetry_Pilot,2022.1.3,Win32,59.64807635,62c50e9c1127f2cd403a315f,,,,,,,,,,,,,,,,,,,,,,,,,,,,,,,,,,,,,,,,,,,,,,,,,,,,,,,,,,,,,,,,,,,,,,,,,,,,,,,,,,,,,,,,,,,,,,,,,,,,,,,,,,,,,,,,,,,,,,,,,,,,,,,,,,,,,,,,,,,,,,,,,,,,,,,,,,,,,,,,,,,
0,23,23,10,1,,616fd6aac8d209bdcd631c2a,62c53964b92f20b2d77b8cc9,2022-07-06_09h29.36.324,Colour_Asymmetry_Pilot,2022.1.3,Win32,59.64807635,62c50e9c1127f2cd403a315f,,,,,,,,,,,,,,,,,,,,,,,,,,,,,,,,,,,,,,,,,,,,,,,,,,,,,,,,,,,,,,,,,,,,,,,,,,,,,,,,,,,,,,,,,,,,,,,,,,,,,,,,,,,,,,,,,,,,,,,,,,,,,,,,,,,,,,,,,,,,,,,,,,,,,,,,,,,,,,,,,,,
0,24,24,78,1,,616fd6aac8d209bdcd631c2a,62c53964b92f20b2d77b8cc9,2022-07-06_09h29.36.324,Colour_Asymmetry_Pilot,2022.1.3,Win32,59.64807635,62c50e9c1127f2cd403a315f,,,,,,,,,,,,,,,,,,,,,,,,,,,,,,,,,,,,,,,,,,,,,,,,,,,,,,,,,,,,,,,,,,,,,,,,,,,,,,,,,,,,,,,,,,,,,,,,,,,,,,,,,,,,,,,,,,,,,,,,,,,,,,,,,,,,,,,,,,,,,,,,,,,,,,,,,,,,,,,,,,,
0,25,25,83,1,,616fd6aac8d209bdcd631c2a,62c53964b92f20b2d77b8cc9,2022-07-06_09h29.36.324,Colour_Asymmetry_Pilot,2022.1.3,Win32,59.64807635,62c50e9c1127f2cd403a315f,,,,,,,,,,,,,,,,,,,,,,,,,,,,,,,,,,,,,,,,,,,,,,,,,,,,,,,,,,,,,,,,,,,,,,,,,,,,,,,,,,,,,,,,,,,,,,,,,,,,,,,,,,,,,,,,,,,,,,,,,,,,,,,,,,,,,,,,,,,,,,,,,,,,,,,,,,,,,,,,,,,
0,26,26,38,1,,616fd6aac8d209bdcd631c2a,62c53964b92f20b2d77b8cc9,2022-07-06_09h29.36.324,Colour_Asymmetry_Pilot,2022.1.3,Win32,59.64807635,62c50e9c1127f2cd403a315f,,,,,,,,,,,,,,,,,,,,,,,,,,,,,,,,,,,,,,,,,,,,,,,,,,,,,,,,,,,,,,,,,,,,,,,,,,,,,,,,,,,,,,,,,,,,,,,,,,,,,,,,,,,,,,,,,,,,,,,,,,,,,,,,,,,,,,,,,,,,,,,,,,,,,,,,,,,,,,,,,,,
0,27,27,13,1,,616fd6aac8d209bdcd631c2a,62c53964b92f20b2d77b8cc9,2022-07-06_09h29.36.324,Colour_Asymmetry_Pilot,2022.1.3,Win32,59.64807635,62c50e9c1127f2cd403a315f,,,,,,,,,,,,,,,,,,,,,,,,,,,,,,,,,,,,,,,,,,,,,,,,,,,,,,,,,,,,,,,,,,,,,,,,,,,,,,,,,,,,,,,,,,,,,,,,,,,,,,,,,,,,,,,,,,,,,,,,,,,,,,,,,,,,,,,,,,,,,,,,,,,,,,,,,,,,,,,,,,,
0,28,28,43,1,,616fd6aac8d209bdcd631c2a,62c53964b92f20b2d77b8cc9,2022-07-06_09h29.36.324,Colour_Asymmetry_Pilot,2022.1.3,Win32,59.64807635,62c50e9c1127f2cd403a315f,,,,,,,,,,,,,,,,,,,,,,,,,,,,,,,,,,,,,,,,,,,,,,,,,,,,,,,,,,,,,,,,,,,,,,,,,,,,,,,,,,,,,,,,,,,,,,,,,,,,,,,,,,,,,,,,,,,,,,,,,,,,,,,,,,,,,,,,,,,,,,,,,,,,,,,,,,,,,,,,,,,
0,29,29,70,1,,616fd6aac8d209bdcd631c2a,62c53964b92f20b2d77b8cc9,2022-07-06_09h29.36.324,Colour_Asymmetry_Pilot,2022.1.3,Win32,59.64807635,62c50e9c1127f2cd403a315f,,,,,,,,,,,,,,,,,,,,,,,,,,,,,,,,,,,,,,,,,,,,,,,,,,,,,,,,,,,,,,,,,,,,,,,,,,,,,,,,,,,,,,,,,,,,,,,,,,,,,,,,,,,,,,,,,,,,,,,,,,,,,,,,,,,,,,,,,,,,,,,,,,,,,,,,,,,,,,,,,,,
0,30,30,86,1,,616fd6aac8d209bdcd631c2a,62c53964b92f20b2d77b8cc9,2022-07-06_09h29.36.324,Colour_Asymmetry_Pilot,2022.1.3,Win32,59.64807635,62c50e9c1127f2cd403a315f,,,,,,,,,,,,,,,,,,,,,,,,,,,,,,,,,,,,,,,,,,,,,,,,,,,,,,,,,,,,,,,,,,,,,,,,,,,,,,,,,,,,,,,,,,,,,,,,,,,,,,,,,,,,,,,,,,,,,,,,,,,,,,,,,,,,,,,,,,,,,,,,,,,,,,,,,,,,,,,,,,,
0,31,31,65,1,,616fd6aac8d209bdcd631c2a,62c53964b92f20b2d77b8cc9,2022-07-06_09h29.36.324,Colour_Asymmetry_Pilot,2022.1.3,Win32,59.64807635,62c50e9c1127f2cd403a315f,,,,,,,,,,,,,,,,,,,,,,,,,,,,,,,,,,,,,,,,,,,,,,,,,,,,,,,,,,,,,,,,,,,,,,,,,,,,,,,,,,,,,,,,,,,,,,,,,,,,,,,,,,,,,,,,,,,,,,,,,,,,,,,,,,,,,,,,,,,,,,,,,,,,,,,,,,,,,,,,,,,
0,32,32,75,1,,616fd6aac8d209bdcd631c2a,62c53964b92f20b2d77b8cc9,2022-07-06_09h29.36.324,Colour_Asymmetry_Pilot,2022.1.3,Win32,59.64807635,62c50e9c1127f2cd403a315f,,,,,,,,,,,,,,,,,,,,,,,,,,,,,,,,,,,,,,,,,,,,,,,,,,,,,,,,,,,,,,,,,,,,,,,,,,,,,,,,,,,,,,,,,,,,,,,,,,,,,,,,,,,,,,,,,,,,,,,,,,,,,,,,,,,,,,,,,,,,,,,,,,,,,,,,,,,,,,,,,,,
0,33,33,33,1,,616fd6aac8d209bdcd631c2a,62c53964b92f20b2d77b8cc9,2022-07-06_09h29.36.324,Colour_Asymmetry_Pilot,2022.1.3,Win32,59.64807635,62c50e9c1127f2cd403a315f,,,,,,,,,,,,,,,,,,,,,,,,,,,,,,,,,,,,,,,,,,,,,,,,,,,,,,,,,,,,,,,,,,,,,,,,,,,,,,,,,,,,,,,,,,,,,,,,,,,,,,,,,,,,,,,,,,,,,,,,,,,,,,,,,,,,,,,,,,,,,,,,,,,,,,,,,,,,,,,,,,,
0,34,34,18,1,,616fd6aac8d209bdcd631c2a,62c53964b92f20b2d77b8cc9,2022-07-06_09h29.36.324,Colour_Asymmetry_Pilot,2022.1.3,Win32,59.64807635,62c50e9c1127f2cd403a315f,,,,,,,,,,,,,,,,,,,,,,,,,,,,,,,,,,,,,,,,,,,,,,,,,,,,,,,,,,,,,,,,,,,,,,,,,,,,,,,,,,,,,,,,,,,,,,,,,,,,,,,,,,,,,,,,,,,,,,,,,,,,,,,,,,,,,,,,,,,,,,,,,,,,,,,,,,,,,,,,,,,
0,35,35,21,1,,616fd6aac8d209bdcd631c2a,62c53964b92f20b2d77b8cc9,2022-07-06_09h29.36.324,Colour_Asymmetry_Pilot,2022.1.3,Win32,59.64807635,62c50e9c1127f2cd403a315f,,,,,,,,,,,,,,,,,,,,,,,,,,,,,,,,,,,,,,,,,,,,,,,,,,,,,,,,,,,,,,,,,,,,,,,,,,,,,,,,,,,,,,,,,,,,,,,,,,,,,,,,,,,,,,,,,,,,,,,,,,,,,,,,,,,,,,,,,,,,,,,,,,,,,,,,,,,,,,,,,,,
0,36,36,8,1,,616fd6aac8d209bdcd631c2a,62c53964b92f20b2d77b8cc9,2022-07-06_09h29.36.324,Colour_Asymmetry_Pilot,2022.1.3,Win32,59.64807635,62c50e9c1127f2cd403a315f,,,,,,,,,,,,,,,,,,,,,,,,,,,,,,,,,,,,,,,,,,,,,,,,,,,,,,,,,,,,,,,,,,,,,,,,,,,,,,,,,,,,,,,,,,,,,,,,,,,,,,,,,,,,,,,,,,,,,,,,,,,,,,,,,,,,,,,,,,,,,,,,,,,,,,,,,,,,,,,,,,,
0,37,37,59,1,,616fd6aac8d209bdcd631c2a,62c53964b92f20b2d77b8cc9,2022-07-06_09h29.36.324,Colour_Asymmetry_Pilot,2022.1.3,Win32,59.64807635,62c50e9c1127f2cd403a315f,,,,,,,,,,,,,,,,,,,,,,,,,,,,,,,,,,,,,,,,,,,,,,,,,,,,,,,,,,,,,,,,,,,,,,,,,,,,,,,,,,,,,,,,,,,,,,,,,,,,,,,,,,,,,,,,,,,,,,,,,,,,,,,,,,,,,,,,,,,,,,,,,,,,,,,,,,,,,,,,,,,
0,38,38,52,1,,616fd6aac8d209bdcd631c2a,62c53964b92f20b2d77b8cc9,2022-07-06_09h29.36.324,Colour_Asymmetry_Pilot,2022.1.3,Win32,59.64807635,62c50e9c1127f2cd403a315f,,,,,,,,,,,,,,,,,,,,,,,,,,,,,,,,,,,,,,,,,,,,,,,,,,,,,,,,,,,,,,,,,,,,,,,,,,,,,,,,,,,,,,,,,,,,,,,,,,,,,,,,,,,,,,,,,,,,,,,,,,,,,,,,,,,,,,,,,,,,,,,,,,,,,,,,,,,,,,,,,,,
0,39,39,9,1,,616fd6aac8d209bdcd631c2a,62c53964b92f20b2d77b8cc9,2022-07-06_09h29.36.324,Colour_Asymmetry_Pilot,2022.1.3,Win32,59.64807635,62c50e9c1127f2cd403a315f,,,,,,,,,,,,,,,,,,,,,,,,,,,,,,,,,,,,,,,,,,,,,,,,,,,,,,,,,,,,,,,,,,,,,,,,,,,,,,,,,,,,,,,,,,,,,,,,,,,,,,,,,,,,,,,,,,,,,,,,,,,,,,,,,,,,,,,,,,,,,,,,,,,,,,,,,,,,,,,,,,,
0,40,40,64,1,,616fd6aac8d209bdcd631c2a,62c53964b92f20b2d77b8cc9,2022-07-06_09h29.36.324,Colour_Asymmetry_Pilot,2022.1.3,Win32,59.64807635,62c50e9c1127f2cd403a315f,,,,,,,,,,,,,,,,,,,,,,,,,,,,,,,,,,,,,,,,,,,,,,,,,,,,,,,,,,,,,,,,,,,,,,,,,,,,,,,,,,,,,,,,,,,,,,,,,,,,,,,,,,,,,,,,,,,,,,,,,,,,,,,,,,,,,,,,,,,,,,,,,,,,,,,,,,,,,,,,,,,
0,41,41,20,1,,616fd6aac8d209bdcd631c2a,62c53964b92f20b2d77b8cc9,2022-07-06_09h29.36.324,Colour_Asymmetry_Pilot,2022.1.3,Win32,59.64807635,62c50e9c1127f2cd403a315f,,,,,,,,,,,,,,,,,,,,,,,,,,,,,,,,,,,,,,,,,,,,,,,,,,,,,,,,,,,,,,,,,,,,,,,,,,,,,,,,,,,,,,,,,,,,,,,,,,,,,,,,,,,,,,,,,,,,,,,,,,,,,,,,,,,,,,,,,,,,,,,,,,,,,,,,,,,,,,,,,,,
0,42,42,14,1,,616fd6aac8d209bdcd631c2a,62c53964b92f20b2d77b8cc9,2022-07-06_09h29.36.324,Colour_Asymmetry_Pilot,2022.1.3,Win32,59.64807635,62c50e9c1127f2cd403a315f,,,,,,,,,,,,,,,,,,,,,,,,,,,,,,,,,,,,,,,,,,,,,,,,,,,,,,,,,,,,,,,,,,,,,,,,,,,,,,,,,,,,,,,,,,,,,,,,,,,,,,,,,,,,,,,,,,,,,,,,,,,,,,,,,,,,,,,,,,,,,,,,,,,,,,,,,,,,,,,,,,,
0,43,43,22,1,,616fd6aac8d209bdcd631c2a,62c53964b92f20b2d77b8cc9,2022-07-06_09h29.36.324,Colour_Asymmetry_Pilot,2022.1.3,Win32,59.64807635,62c50e9c1127f2cd403a315f,,,,,,,,,,,,,,,,,,,,,,,,,,,,,,,,,,,,,,,,,,,,,,,,,,,,,,,,,,,,,,,,,,,,,,,,,,,,,,,,,,,,,,,,,,,,,,,,,,,,,,,,,,,,,,,,,,,,,,,,,,,,,,,,,,,,,,,,,,,,,,,,,,,,,,,,,,,,,,,,,,,
0,44,44,67,1,,616fd6aac8d209bdcd631c2a,62c53964b92f20b2d77b8cc9,2022-07-06_09h29.36.324,Colour_Asymmetry_Pilot,2022.1.3,Win32,59.64807635,62c50e9c1127f2cd403a315f,,,,,,,,,,,,,,,,,,,,,,,,,,,,,,,,,,,,,,,,,,,,,,,,,,,,,,,,,,,,,,,,,,,,,,,,,,,,,,,,,,,,,,,,,,,,,,,,,,,,,,,,,,,,,,,,,,,,,,,,,,,,,,,,,,,,,,,,,,,,,,,,,,,,,,,,,,,,,,,,,,,
0,45,45,48,1,,616fd6aac8d209bdcd631c2a,62c53964b92f20b2d77b8cc9,2022-07-06_09h29.36.324,Colour_Asymmetry_Pilot,2022.1.3,Win32,59.64807635,62c50e9c1127f2cd403a315f,,,,,,,,,,,,,,,,,,,,,,,,,,,,,,,,,,,,,,,,,,,,,,,,,,,,,,,,,,,,,,,,,,,,,,,,,,,,,,,,,,,,,,,,,,,,,,,,,,,,,,,,,,,,,,,,,,,,,,,,,,,,,,,,,,,,,,,,,,,,,,,,,,,,,,,,,,,,,,,,,,,
0,46,46,31,1,,616fd6aac8d209bdcd631c2a,62c53964b92f20b2d77b8cc9,2022-07-06_09h29.36.324,Colour_Asymmetry_Pilot,2022.1.3,Win32,59.64807635,62c50e9c1127f2cd403a315f,,,,,,,,,,,,,,,,,,,,,,,,,,,,,,,,,,,,,,,,,,,,,,,,,,,,,,,,,,,,,,,,,,,,,,,,,,,,,,,,,,,,,,,,,,,,,,,,,,,,,,,,,,,,,,,,,,,,,,,,,,,,,,,,,,,,,,,,,,,,,,,,,,,,,,,,,,,,,,,,,,,
0,47,47,29,1,,616fd6aac8d209bdcd631c2a,62c53964b92f20b2d77b8cc9,2022-07-06_09h29.36.324,Colour_Asymmetry_Pilot,2022.1.3,Win32,59.64807635,62c50e9c1127f2cd403a315f,,,,,,,,,,,,,,,,,,,,,,,,,,,,,,,,,,,,,,,,,,,,,,,,,,,,,,,,,,,,,,,,,,,,,,,,,,,,,,,,,,,,,,,,,,,,,,,,,,,,,,,,,,,,,,,,,,,,,,,,,,,,,,,,,,,,,,,,,,,,,,,,,,,,,,,,,,,,,,,,,,,
0,48,48,50,1,,616fd6aac8d209bdcd631c2a,62c53964b92f20b2d77b8cc9,2022-07-06_09h29.36.324,Colour_Asymmetry_Pilot,2022.1.3,Win32,59.64807635,62c50e9c1127f2cd403a315f,,,,,,,,,,,,,,,,,,,,,,,,,,,,,,,,,,,,,,,,,,,,,,,,,,,,,,,,,,,,,,,,,,,,,,,,,,,,,,,,,,,,,,,,,,,,,,,,,,,,,,,,,,,,,,,,,,,,,,,,,,,,,,,,,,,,,,,,,,,,,,,,,,,,,,,,,,,,,,,,,,,
0,49,49,60,1,,616fd6aac8d209bdcd631c2a,62c53964b92f20b2d77b8cc9,2022-07-06_09h29.36.324,Colour_Asymmetry_Pilot,2022.1.3,Win32,59.64807635,62c50e9c1127f2cd403a315f,,,,,,,,,,,,,,,,,,,,,,,,,,,,,,,,,,,,,,,,,,,,,,,,,,,,,,,,,,,,,,,,,,,,,,,,,,,,,,,,,,,,,,,,,,,,,,,,,,,,,,,,,,,,,,,,,,,,,,,,,,,,,,,,,,,,,,,,,,,,,,,,,,,,,,,,,,,,,,,,,,,
0,50,50,5,1,,616fd6aac8d209bdcd631c2a,62c53964b92f20b2d77b8cc9,2022-07-06_09h29.36.324,Colour_Asymmetry_Pilot,2022.1.3,Win32,59.64807635,62c50e9c1127f2cd403a315f,,,,,,,,,,,,,,,,,,,,,,,,,,,,,,,,,,,,,,,,,,,,,,,,,,,,,,,,,,,,,,,,,,,,,,,,,,,,,,,,,,,,,,,,,,,,,,,,,,,,,,,,,,,,,,,,,,,,,,,,,,,,,,,,,,,,,,,,,,,,,,,,,,,,,,,,,,,,,,,,,,,
0,51,51,4,1,,616fd6aac8d209bdcd631c2a,62c53964b92f20b2d77b8cc9,2022-07-06_09h29.36.324,Colour_Asymmetry_Pilot,2022.1.3,Win32,59.64807635,62c50e9c1127f2cd403a315f,,,,,,,,,,,,,,,,,,,,,,,,,,,,,,,,,,,,,,,,,,,,,,,,,,,,,,,,,,,,,,,,,,,,,,,,,,,,,,,,,,,,,,,,,,,,,,,,,,,,,,,,,,,,,,,,,,,,,,,,,,,,,,,,,,,,,,,,,,,,,,,,,,,,,,,,,,,,,,,,,,,
0,52,52,91,1,,616fd6aac8d209bdcd631c2a,62c53964b92f20b2d77b8cc9,2022-07-06_09h29.36.324,Colour_Asymmetry_Pilot,2022.1.3,Win32,59.64807635,62c50e9c1127f2cd403a315f,,,,,,,,,,,,,,,,,,,,,,,,,,,,,,,,,,,,,,,,,,,,,,,,,,,,,,,,,,,,,,,,,,,,,,,,,,,,,,,,,,,,,,,,,,,,,,,,,,,,,,,,,,,,,,,,,,,,,,,,,,,,,,,,,,,,,,,,,,,,,,,,,,,,,,,,,,,,,,,,,,,
0,53,53,90,1,,616fd6aac8d209bdcd631c2a,62c53964b92f20b2d77b8cc9,2022-07-06_09h29.36.324,Colour_Asymmetry_Pilot,2022.1.3,Win32,59.64807635,62c50e9c1127f2cd403a315f,,,,,,,,,,,,,,,,,,,,,,,,,,,,,,,,,,,,,,,,,,,,,,,,,,,,,,,,,,,,,,,,,,,,,,,,,,,,,,,,,,,,,,,,,,,,,,,,,,,,,,,,,,,,,,,,,,,,,,,,,,,,,,,,,,,,,,,,,,,,,,,,,,,,,,,,,,,,,,,,,,,
0,54,54,84,1,,616fd6aac8d209bdcd631c2a,62c53964b92f20b2d77b8cc9,2022-07-06_09h29.36.324,Colour_Asymmetry_Pilot,2022.1.3,Win32,59.64807635,62c50e9c1127f2cd403a315f,,,,,,,,,,,,,,,,,,,,,,,,,,,,,,,,,,,,,,,,,,,,,,,,,,,,,,,,,,,,,,,,,,,,,,,,,,,,,,,,,,,,,,,,,,,,,,,,,,,,,,,,,,,,,,,,,,,,,,,,,,,,,,,,,,,,,,,,,,,,,,,,,,,,,,,,,,,,,,,,,,,
0,55,55,44,1,,616fd6aac8d209bdcd631c2a,62c53964b92f20b2d77b8cc9,2022-07-06_09h29.36.324,Colour_Asymmetry_Pilot,2022.1.3,Win32,59.64807635,62c50e9c1127f2cd403a315f,,,,,,,,,,,,,,,,,,,,,,,,,,,,,,,,,,,,,,,,,,,,,,,,,,,,,,,,,,,,,,,,,,,,,,,,,,,,,,,,,,,,,,,,,,,,,,,,,,,,,,,,,,,,,,,,,,,,,,,,,,,,,,,,,,,,,,,,,,,,,,,,,,,,,,,,,,,,,,,,,,,
0,56,56,45,1,,616fd6aac8d209bdcd631c2a,62c53964b92f20b2d77b8cc9,2022-07-06_09h29.36.324,Colour_Asymmetry_Pilot,2022.1.3,Win32,59.64807635,62c50e9c1127f2cd403a315f,,,,,,,,,,,,,,,,,,,,,,,,,,,,,,,,,,,,,,,,,,,,,,,,,,,,,,,,,,,,,,,,,,,,,,,,,,,,,,,,,,,,,,,,,,,,,,,,,,,,,,,,,,,,,,,,,,,,,,,,,,,,,,,,,,,,,,,,,,,,,,,,,,,,,,,,,,,,,,,,,,,
0,57,57,62,1,,616fd6aac8d209bdcd631c2a,62c53964b92f20b2d77b8cc9,2022-07-06_09h29.36.324,Colour_Asymmetry_Pilot,2022.1.3,Win32,59.64807635,62c50e9c1127f2cd403a315f,,,,,,,,,,,,,,,,,,,,,,,,,,,,,,,,,,,,,,,,,,,,,,,,,,,,,,,,,,,,,,,,,,,,,,,,,,,,,,,,,,,,,,,,,,,,,,,,,,,,,,,,,,,,,,,,,,,,,,,,,,,,,,,,,,,,,,,,,,,,,,,,,,,,,,,,,,,,,,,,,,,
0,58,58,92,1,,616fd6aac8d209bdcd631c2a,62c53964b92f20b2d77b8cc9,2022-07-06_09h29.36.324,Colour_Asymmetry_Pilot,2022.1.3,Win32,59.64807635,62c50e9c1127f2cd403a315f,,,,,,,,,,,,,,,,,,,,,,,,,,,,,,,,,,,,,,,,,,,,,,,,,,,,,,,,,,,,,,,,,,,,,,,,,,,,,,,,,,,,,,,,,,,,,,,,,,,,,,,,,,,,,,,,,,,,,,,,,,,,,,,,,,,,,,,,,,,,,,,,,,,,,,,,,,,,,,,,,,,
0,59,59,69,1,,616fd6aac8d209bdcd631c2a,62c53964b92f20b2d77b8cc9,2022-07-06_09h29.36.324,Colour_Asymmetry_Pilot,2022.1.3,Win32,59.64807635,62c50e9c1127f2cd403a315f,,,,,,,,,,,,,,,,,,,,,,,,,,,,,,,,,,,,,,,,,,,,,,,,,,,,,,,,,,,,,,,,,,,,,,,,,,,,,,,,,,,,,,,,,,,,,,,,,,,,,,,,,,,,,,,,,,,,,,,,,,,,,,,,,,,,,,,,,,,,,,,,,,,,,,,,,,,,,,,,,,,
0,60,60,16,1,,616fd6aac8d209bdcd631c2a,62c53964b92f20b2d77b8cc9,2022-07-06_09h29.36.324,Colour_Asymmetry_Pilot,2022.1.3,Win32,59.64807635,62c50e9c1127f2cd403a315f,,,,,,,,,,,,,,,,,,,,,,,,,,,,,,,,,,,,,,,,,,,,,,,,,,,,,,,,,,,,,,,,,,,,,,,,,,,,,,,,,,,,,,,,,,,,,,,,,,,,,,,,,,,,,,,,,,,,,,,,,,,,,,,,,,,,,,,,,,,,,,,,,,,,,,,,,,,,,,,,,,,
0,61,61,3,1,,616fd6aac8d209bdcd631c2a,62c53964b92f20b2d77b8cc9,2022-07-06_09h29.36.324,Colour_Asymmetry_Pilot,2022.1.3,Win32,59.64807635,62c50e9c1127f2cd403a315f,,,,,,,,,,,,,,,,,,,,,,,,,,,,,,,,,,,,,,,,,,,,,,,,,,,,,,,,,,,,,,,,,,,,,,,,,,,,,,,,,,,,,,,,,,,,,,,,,,,,,,,,,,,,,,,,,,,,,,,,,,,,,,,,,,,,,,,,,,,,,,,,,,,,,,,,,,,,,,,,,,,
0,62,62,37,1,,616fd6aac8d209bdcd631c2a,62c53964b92f20b2d77b8cc9,2022-07-06_09h29.36.324,Colour_Asymmetry_Pilot,2022.1.3,Win32,59.64807635,62c50e9c1127f2cd403a315f,,,,,,,,,,,,,,,,,,,,,,,,,,,,,,,,,,,,,,,,,,,,,,,,,,,,,,,,,,,,,,,,,,,,,,,,,,,,,,,,,,,,,,,,,,,,,,,,,,,,,,,,,,,,,,,,,,,,,,,,,,,,,,,,,,,,,,,,,,,,,,,,,,,,,,,,,,,,,,,,,,,
0,63,63,87,1,,616fd6aac8d209bdcd631c2a,62c53964b92f20b2d77b8cc9,2022-07-06_09h29.36.324,Colour_Asymmetry_Pilot,2022.1.3,Win32,59.64807635,62c50e9c1127f2cd403a315f,,,,,,,,,,,,,,,,,,,,,,,,,,,,,,,,,,,,,,,,,,,,,,,,,,,,,,,,,,,,,,,,,,,,,,,,,,,,,,,,,,,,,,,,,,,,,,,,,,,,,,,,,,,,,,,,,,,,,,,,,,,,,,,,,,,,,,,,,,,,,,,,,,,,,,,,,,,,,,,,,,,
0,64,64,82,1,,616fd6aac8d209bdcd631c2a,62c53964b92f20b2d77b8cc9,2022-07-06_09h29.36.324,Colour_Asymmetry_Pilot,2022.1.3,Win32,59.64807635,62c50e9c1127f2cd403a315f,,,,,,,,,,,,,,,,,,,,,,,,,,,,,,,,,,,,,,,,,,,,,,,,,,,,,,,,,,,,,,,,,,,,,,,,,,,,,,,,,,,,,,,,,,,,,,,,,,,,,,,,,,,,,,,,,,,,,,,,,,,,,,,,,,,,,,,,,,,,,,,,,,,,,,,,,,,,,,,,,,,
0,65,65,81,1,,616fd6aac8d209bdcd631c2a,62c53964b92f20b2d77b8cc9,2022-07-06_09h29.36.324,Colour_Asymmetry_Pilot,2022.1.3,Win32,59.64807635,62c50e9c1127f2cd403a315f,,,,,,,,,,,,,,,,,,,,,,,,,,,,,,,,,,,,,,,,,,,,,,,,,,,,,,,,,,,,,,,,,,,,,,,,,,,,,,,,,,,,,,,,,,,,,,,,,,,,,,,,,,,,,,,,,,,,,,,,,,,,,,,,,,,,,,,,,,,,,,,,,,,,,,,,,,,,,,,,,,,
0,66,66,55,1,,616fd6aac8d209bdcd631c2a,62c53964b92f20b2d77b8cc9,2022-07-06_09h29.36.324,Colour_Asymmetry_Pilot,2022.1.3,Win32,59.64807635,62c50e9c1127f2cd403a315f,,,,,,,,,,,,,,,,,,,,,,,,,,,,,,,,,,,,,,,,,,,,,,,,,,,,,,,,,,,,,,,,,,,,,,,,,,,,,,,,,,,,,,,,,,,,,,,,,,,,,,,,,,,,,,,,,,,,,,,,,,,,,,,,,,,,,,,,,,,,,,,,,,,,,,,,,,,,,,,,,,,
0,67,67,26,1,,616fd6aac8d209bdcd631c2a,62c53964b92f20b2d77b8cc9,2022-07-06_09h29.36.324,Colour_Asymmetry_Pilot,2022.1.3,Win32,59.64807635,62c50e9c1127f2cd403a315f,,,,,,,,,,,,,,,,,,,,,,,,,,,,,,,,,,,,,,,,,,,,,,,,,,,,,,,,,,,,,,,,,,,,,,,,,,,,,,,,,,,,,,,,,,,,,,,,,,,,,,,,,,,,,,,,,,,,,,,,,,,,,,,,,,,,,,,,,,,,,,,,,,,,,,,,,,,,,,,,,,,
0,68,68,34,1,,616fd6aac8d209bdcd631c2a,62c53964b92f20b2d77b8cc9,2022-07-06_09h29.36.324,Colour_Asymmetry_Pilot,2022.1.3,Win32,59.64807635,62c50e9c1127f2cd403a315f,,,,,,,,,,,,,,,,,,,,,,,,,,,,,,,,,,,,,,,,,,,,,,,,,,,,,,,,,,,,,,,,,,,,,,,,,,,,,,,,,,,,,,,,,,,,,,,,,,,,,,,,,,,,,,,,,,,,,,,,,,,,,,,,,,,,,,,,,,,,,,,,,,,,,,,,,,,,,,,,,,,
0,69,69,11,1,,616fd6aac8d209bdcd631c2a,62c53964b92f20b2d77b8cc9,2022-07-06_09h29.36.324,Colour_Asymmetry_Pilot,2022.1.3,Win32,59.64807635,62c50e9c1127f2cd403a315f,,,,,,,,,,,,,,,,,,,,,,,,,,,,,,,,,,,,,,,,,,,,,,,,,,,,,,,,,,,,,,,,,,,,,,,,,,,,,,,,,,,,,,,,,,,,,,,,,,,,,,,,,,,,,,,,,,,,,,,,,,,,,,,,,,,,,,,,,,,,,,,,,,,,,,,,,,,,,,,,,,,
0,70,70,85,1,,616fd6aac8d209bdcd631c2a,62c53964b92f20b2d77b8cc9,2022-07-06_09h29.36.324,Colour_Asymmetry_Pilot,2022.1.3,Win32,59.64807635,62c50e9c1127f2cd403a315f,,,,,,,,,,,,,,,,,,,,,,,,,,,,,,,,,,,,,,,,,,,,,,,,,,,,,,,,,,,,,,,,,,,,,,,,,,,,,,,,,,,,,,,,,,,,,,,,,,,,,,,,,,,,,,,,,,,,,,,,,,,,,,,,,,,,,,,,,,,,,,,,,,,,,,,,,,,,,,,,,,,
0,71,71,51,1,,616fd6aac8d209bdcd631c2a,62c53964b92f20b2d77b8cc9,2022-07-06_09h29.36.324,Colour_Asymmetry_Pilot,2022.1.3,Win32,59.64807635,62c50e9c1127f2cd403a315f,,,,,,,,,,,,,,,,,,,,,,,,,,,,,,,,,,,,,,,,,,,,,,,,,,,,,,,,,,,,,,,,,,,,,,,,,,,,,,,,,,,,,,,,,,,,,,,,,,,,,,,,,,,,,,,,,,,,,,,,,,,,,,,,,,,,,,,,,,,,,,,,,,,,,,,,,,,,,,,,,,,
0,72,72,36,1,,616fd6aac8d209bdcd631c2a,62c53964b92f20b2d77b8cc9,2022-07-06_09h29.36.324,Colour_Asymmetry_Pilot,2022.1.3,Win32,59.64807635,62c50e9c1127f2cd403a315f,,,,,,,,,,,,,,,,,,,,,,,,,,,,,,,,,,,,,,,,,,,,,,,,,,,,,,,,,,,,,,,,,,,,,,,,,,,,,,,,,,,,,,,,,,,,,,,,,,,,,,,,,,,,,,,,,,,,,,,,,,,,,,,,,,,,,,,,,,,,,,,,,,,,,,,,,,,,,,,,,,,
0,73,73,39,1,,616fd6aac8d209bdcd631c2a,62c53964b92f20b2d77b8cc9,2022-07-06_09h29.36.324,Colour_Asymmetry_Pilot,2022.1.3,Win32,59.64807635,62c50e9c1127f2cd403a315f,,,,,,,,,,,,,,,,,,,,,,,,,,,,,,,,,,,,,,,,,,,,,,,,,,,,,,,,,,,,,,,,,,,,,,,,,,,,,,,,,,,,,,,,,,,,,,,,,,,,,,,,,,,,,,,,,,,,,,,,,,,,,,,,,,,,,,,,,,,,,,,,,,,,,,,,,,,,,,,,,,,
0,74,74,19,1,,616fd6aac8d209bdcd631c2a,62c53964b92f20b2d77b8cc9,2022-07-06_09h29.36.324,Colour_Asymmetry_Pilot,2022.1.3,Win32,59.64807635,62c50e9c1127f2cd403a315f,,,,,,,,,,,,,,,,,,,,,,,,,,,,,,,,,,,,,,,,,,,,,,,,,,,,,,,,,,,,,,,,,,,,,,,,,,,,,,,,,,,,,,,,,,,,,,,,,,,,,,,,,,,,,,,,,,,,,,,,,,,,,,,,,,,,,,,,,,,,,,,,,,,,,,,,,,,,,,,,,,,
0,75,75,80,1,,616fd6aac8d209bdcd631c2a,62c53964b92f20b2d77b8cc9,2022-07-06_09h29.36.324,Colour_Asymmetry_Pilot,2022.1.3,Win32,59.64807635,62c50e9c1127f2cd403a315f,,,,,,,,,,,,,,,,,,,,,,,,,,,,,,,,,,,,,,,,,,,,,,,,,,,,,,,,,,,,,,,,,,,,,,,,,,,,,,,,,,,,,,,,,,,,,,,,,,,,,,,,,,,,,,,,,,,,,,,,,,,,,,,,,,,,,,,,,,,,,,,,,,,,,,,,,,,,,,,,,,,
0,76,76,71,1,,616fd6aac8d209bdcd631c2a,62c53964b92f20b2d77b8cc9,2022-07-06_09h29.36.324,Colour_Asymmetry_Pilot,2022.1.3,Win32,59.64807635,62c50e9c1127f2cd403a315f,,,,,,,,,,,,,,,,,,,,,,,,,,,,,,,,,,,,,,,,,,,,,,,,,,,,,,,,,,,,,,,,,,,,,,,,,,,,,,,,,,,,,,,,,,,,,,,,,,,,,,,,,,,,,,,,,,,,,,,,,,,,,,,,,,,,,,,,,,,,,,,,,,,,,,,,,,,,,,,,,,,
0,77,77,7,1,,616fd6aac8d209bdcd631c2a,62c53964b92f20b2d77b8cc9,2022-07-06_09h29.36.324,Colour_Asymmetry_Pilot,2022.1.3,Win32,59.64807635,62c50e9c1127f2cd403a315f,,,,,,,,,,,,,,,,,,,,,,,,,,,,,,,,,,,,,,,,,,,,,,,,,,,,,,,,,,,,,,,,,,,,,,,,,,,,,,,,,,,,,,,,,,,,,,,,,,,,,,,,,,,,,,,,,,,,,,,,,,,,,,,,,,,,,,,,,,,,,,,,,,,,,,,,,,,,,,,,,,,
0,78,78,24,1,,616fd6aac8d209bdcd631c2a,62c53964b92f20b2d77b8cc9,2022-07-06_09h29.36.324,Colour_Asymmetry_Pilot,2022.1.3,Win32,59.64807635,62c50e9c1127f2cd403a315f,,,,,,,,,,,,,,,,,,,,,,,,,,,,,,,,,,,,,,,,,,,,,,,,,,,,,,,,,,,,,,,,,,,,,,,,,,,,,,,,,,,,,,,,,,,,,,,,,,,,,,,,,,,,,,,,,,,,,,,,,,,,,,,,,,,,,,,,,,,,,,,,,,,,,,,,,,,,,,,,,,,
0,79,79,0,1,,616fd6aac8d209bdcd631c2a,62c53964b92f20b2d77b8cc9,2022-07-06_09h29.36.324,Colour_Asymmetry_Pilot,2022.1.3,Win32,59.64807635,62c50e9c1127f2cd403a315f,,,,,,,,,,,,,,,,,,,,,,,,,,,,,,,,,,,,,,,,,,,,,,,,,,,,,,,,,,,,,,,,,,,,,,,,,,,,,,,,,,,,,,,,,,,,,,,,,,,,,,,,,,,,,,,,,,,,,,,,,,,,,,,,,,,,,,,,,,,,,,,,,,,,,,,,,,,,,,,,,,,
0,80,80,47,1,,616fd6aac8d209bdcd631c2a,62c53964b92f20b2d77b8cc9,2022-07-06_09h29.36.324,Colour_Asymmetry_Pilot,2022.1.3,Win32,59.64807635,62c50e9c1127f2cd403a315f,,,,,,,,,,,,,,,,,,,,,,,,,,,,,,,,,,,,,,,,,,,,,,,,,,,,,,,,,,,,,,,,,,,,,,,,,,,,,,,,,,,,,,,,,,,,,,,,,,,,,,,,,,,,,,,,,,,,,,,,,,,,,,,,,,,,,,,,,,,,,,,,,,,,,,,,,,,,,,,,,,,
0,81,81,42,1,,616fd6aac8d209bdcd631c2a,62c53964b92f20b2d77b8cc9,2022-07-06_09h29.36.324,Colour_Asymmetry_Pilot,2022.1.3,Win32,59.64807635,62c50e9c1127f2cd403a315f,,,,,,,,,,,,,,,,,,,,,,,,,,,,,,,,,,,,,,,,,,,,,,,,,,,,,,,,,,,,,,,,,,,,,,,,,,,,,,,,,,,,,,,,,,,,,,,,,,,,,,,,,,,,,,,,,,,,,,,,,,,,,,,,,,,,,,,,,,,,,,,,,,,,,,,,,,,,,,,,,,,
0,82,82,27,1,,616fd6aac8d209bdcd631c2a,62c53964b92f20b2d77b8cc9,2022-07-06_09h29.36.324,Colour_Asymmetry_Pilot,2022.1.3,Win32,59.64807635,62c50e9c1127f2cd403a315f,,,,,,,,,,,,,,,,,,,,,,,,,,,,,,,,,,,,,,,,,,,,,,,,,,,,,,,,,,,,,,,,,,,,,,,,,,,,,,,,,,,,,,,,,,,,,,,,,,,,,,,,,,,,,,,,,,,,,,,,,,,,,,,,,,,,,,,,,,,,,,,,,,,,,,,,,,,,,,,,,,,
0,83,83,35,1,,616fd6aac8d209bdcd631c2a,62c53964b92f20b2d77b8cc9,2022-07-06_09h29.36.324,Colour_Asymmetry_Pilot,2022.1.3,Win32,59.64807635,62c50e9c1127f2cd403a315f,,,,,,,,,,,,,,,,,,,,,,,,,,,,,,,,,,,,,,,,,,,,,,,,,,,,,,,,,,,,,,,,,,,,,,,,,,,,,,,,,,,,,,,,,,,,,,,,,,,,,,,,,,,,,,,,,,,,,,,,,,,,,,,,,,,,,,,,,,,,,,,,,,,,,,,,,,,,,,,,,,,
0,84,84,73,1,,616fd6aac8d209bdcd631c2a,62c53964b92f20b2d77b8cc9,2022-07-06_09h29.36.324,Colour_Asymmetry_Pilot,2022.1.3,Win32,59.64807635,62c50e9c1127f2cd403a315f,,,,,,,,,,,,,,,,,,,,,,,,,,,,,,,,,,,,,,,,,,,,,,,,,,,,,,,,,,,,,,,,,,,,,,,,,,,,,,,,,,,,,,,,,,,,,,,,,,,,,,,,,,,,,,,,,,,,,,,,,,,,,,,,,,,,,,,,,,,,,,,,,,,,,,,,,,,,,,,,,,,
0,85,85,72,1,,616fd6aac8d209bdcd631c2a,62c53964b92f20b2d77b8cc9,2022-07-06_09h29.36.324,Colour_Asymmetry_Pilot,2022.1.3,Win32,59.64807635,62c50e9c1127f2cd403a315f,,,,,,,,,,,,,,,,,,,,,,,,,,,,,,,,,,,,,,,,,,,,,,,,,,,,,,,,,,,,,,,,,,,,,,,,,,,,,,,,,,,,,,,,,,,,,,,,,,,,,,,,,,,,,,,,,,,,,,,,,,,,,,,,,,,,,,,,,,,,,,,,,,,,,,,,,,,,,,,,,,,
0,86,86,66,1,,616fd6aac8d209bdcd631c2a,62c53964b92f20b2d77b8cc9,2022-07-06_09h29.36.324,Colour_Asymmetry_Pilot,2022.1.3,Win32,59.64807635,62c50e9c1127f2cd403a315f,,,,,,,,,,,,,,,,,,,,,,,,,,,,,,,,,,,,,,,,,,,,,,,,,,,,,,,,,,,,,,,,,,,,,,,,,,,,,,,,,,,,,,,,,,,,,,,,,,,,,,,,,,,,,,,,,,,,,,,,,,,,,,,,,,,,,,,,,,,,,,,,,,,,,,,,,,,,,,,,,,,
0,87,87,17,1,,616fd6aac8d209bdcd631c2a,62c53964b92f20b2d77b8cc9,2022-07-06_09h29.36.324,Colour_Asymmetry_Pilot,2022.1.3,Win32,59.64807635,62c50e9c1127f2cd403a315f,,,,,,,,,,,,,,,,,,,,,,,,,,,,,,,,,,,,,,,,,,,,,,,,,,,,,,,,,,,,,,,,,,,,,,,,,,,,,,,,,,,,,,,,,,,,,,,,,,,,,,,,,,,,,,,,,,,,,,,,,,,,,,,,,,,,,,,,,,,,,,,,,,,,,,,,,,,,,,,,,,,
0,88,88,54,1,,616fd6aac8d209bdcd631c2a,62c53964b92f20b2d77b8cc9,2022-07-06_09h29.36.324,Colour_Asymmetry_Pilot,2022.1.3,Win32,59.64807635,62c50e9c1127f2cd403a315f,,,,,,,,,,,,,,,,,,,,,,,,,,,,,,,,,,,,,,,,,,,,,,,,,,,,,,,,,,,,,,,,,,,,,,,,,,,,,,,,,,,,,,,,,,,,,,,,,,,,,,,,,,,,,,,,,,,,,,,,,,,,,,,,,,,,,,,,,,,,,,,,,,,,,,,,,,,,,,,,,,,
0,89,89,28,1,,616fd6aac8d209bdcd631c2a,62c53964b92f20b2d77b8cc9,2022-07-06_09h29.36.324,Colour_Asymmetry_Pilot,2022.1.3,Win32,59.64807635,62c50e9c1127f2cd403a315f,,,,,,,,,,,,,,,,,,,,,,,,,,,,,,,,,,,,,,,,,,,,,,,,,,,,,,,,,,,,,,,,,,,,,,,,,,,,,,,,,,,,,,,,,,,,,,,,,,,,,,,,,,,,,,,,,,,,,,,,,,,,,,,,,,,,,,,,,,,,,,,,,,,,,,,,,,,,,,,,,,,
0,90,90,6,1,,616fd6aac8d209bdcd631c2a,62c53964b92f20b2d77b8cc9,2022-07-06_09h29.36.324,Colour_Asymmetry_Pilot,2022.1.3,Win32,59.64807635,62c50e9c1127f2cd403a315f,,,,,,,,,,,,,,,,,,,,,,,,,,,,,,,,,,,,,,,,,,,,,,,,,,,,,,,,,,,,,,,,,,,,,,,,,,,,,,,,,,,,,,,,,,,,,,,,,,,,,,,,,,,,,,,,,,,,,,,,,,,,,,,,,,,,,,,,,,,,,,,,,,,,,,,,,,,,,,,,,,,
0,91,91,88,1,,616fd6aac8d209bdcd631c2a,62c53964b92f20b2d77b8cc9,2022-07-06_09h29.36.324,Colour_Asymmetry_Pilot,2022.1.3,Win32,59.64807635,62c50e9c1127f2cd403a315f,,,,,,,,,,,,,,,,,,,,,,,,,,,,,,,,,,,,,,,,,,,,,,,,,,,,,,,,,,,,,,,,,,,,,,,,,,,,,,,,,,,,,,,,,,,,,,,,,,,,,,,,,,,,,,,,,,,,,,,,,,,,,,,,,,,,,,,,,,,,,,,,,,,,,,,,,,,,,,,,,,,
0,92,92,23,1,,616fd6aac8d209bdcd631c2a,62c53964b92f20b2d77b8cc9,2022-07-06_09h29.36.324,Colour_Asymmetry_Pilot,2022.1.3,Win32,59.64807635,62c50e9c1127f2cd403a315f,,,,,,,,,,,,,,,,,,,,,,,,,,,,,,,,,,,,,,,,,,,,,,,,,,,,,,,,,,,,,,,,,,,,,,,,,,,,,,,,,,,,,,,,,,,,,,,,,,,,,,,,,,,,,,,,,,,,,,,,,,,,,,,,,,,,,,,,,,,,,,,,,,,,,,,,,,,,,,,,,,,
,,,,,,616fd6aac8d209bdcd631c2a,62c53964b92f20b2d77b8cc9,2022-07-06_09h29.36.324,Colour_Asymmetry_Pilot,2022.1.3,Win32,59.64807635,62c50e9c1127f2cd403a315f,0,0,0,78,1,fourtwo,,,,,,,,,,,,,,,,,,,,,,,,,,,,,,,,,,,,,,,,,,,,,,,,,,,,,,,,,,,,,,,,,,,,,,,,,,,,,,,,,,,,,,,,,,,,,,,,,,,,,,,,,,,,,,,,,,,,,,,,,,,,,,,,,,,,,,,,,,,,,,,,,,,,,,,,,,,,,
,,,,,,616fd6aac8d209bdcd631c2a,62c53964b92f20b2d77b8cc9,2022-07-06_09h29.36.324,Colour_Asymmetry_Pilot,2022.1.3,Win32,59.64807635,62c50e9c1127f2cd403a315f,0,1,1,125,1,threefour,,,,,,,,,,,,,,,,,,,,,,,,,,,,,,,,,,,,,,,,,,,,,,,,,,,,,,,,,,,,,,,,,,,,,,,,,,,,,,,,,,,,,,,,,,,,,,,,,,,,,,,,,,,,,,,,,,,,,,,,,,,,,,,,,,,,,,,,,,,,,,,,,,,,,,,,,,,,,
,,,,,,616fd6aac8d209bdcd631c2a,62c53964b92f20b2d77b8cc9,2022-07-06_09h29.36.324,Colour_Asymmetry_Pilot,2022.1.3,Win32,59.64807635,62c50e9c1127f2cd403a315f,0,2,2,145,1,onethree,,,,,,,,,,,,,,,,,,,,,,,,,,,,,,,,,,,,,,,,,,,,,,,,,,,,,,,,,,,,,,,,,,,,,,,,,,,,,,,,,,,,,,,,,,,,,,,,,,,,,,,,,,,,,,,,,,,,,,,,,,,,,,,,,,,,,,,,,,,,,,,,,,,,,,,,,,,,,
,,,,,,616fd6aac8d209bdcd631c2a,62c53964b92f20b2d77b8cc9,2022-07-06_09h29.36.324,Colour_Asymmetry_Pilot,2022.1.3,Win32,59.64807635,62c50e9c1127f2cd403a315f,0,3,3,147,1,twofour,,,,,,,,,,,,,,,,,,,,,,,,,,,,,,,,,,,,,,,,,,,,,,,,,,,,,,,,,,,,,,,,,,,,,,,,,,,,,,,,,,,,,,,,,,,,,,,,,,,,,,,,,,,,,,,,,,,,,,,,,,,,,,,,,,,,,,,,,,,,,,,,,,,,,,,,,,,,,
,,,,,,616fd6aac8d209bdcd631c2a,62c53964b92f20b2d77b8cc9,2022-07-06_09h29.36.324,Colour_Asymmetry_Pilot,2022.1.3,Win32,59.64807635,62c50e9c1127f2cd403a315f,0,4,4,109,1,threefour,,,,,,,,,,,,,,,,,,,,,,,,,,,,,,,,,,,,,,,,,,,,,,,,,,,,,,,,,,,,,,,,,,,,,,,,,,,,,,,,,,,,,,,,,,,,,,,,,,,,,,,,,,,,,,,,,,,,,,,,,,,,,,,,,,,,,,,,,,,,,,,,,,,,,,,,,,,,,
,,,,,,616fd6aac8d209bdcd631c2a,62c53964b92f20b2d77b8cc9,2022-07-06_09h29.36.324,Colour_Asymmetry_Pilot,2022.1.3,Win32,59.64807635,62c50e9c1127f2cd403a315f,0,5,5,27,1,twofour,,,,,,,,,,,,,,,,,,,,,,,,,,,,,,,,,,,,,,,,,,,,,,,,,,,,,,,,,,,,,,,,,,,,,,,,,,,,,,,,,,,,,,,,,,,,,,,,,,,,,,,,,,,,,,,,,,,,,,,,,,,,,,,,,,,,,,,,,,,,,,,,,,,,,,,,,,,,,
,,,,,,616fd6aac8d209bdcd631c2a,62c53964b92f20b2d77b8cc9,2022-07-06_09h29.36.324,Colour_Asymmetry_Pilot,2022.1.3,Win32,59.64807635,62c50e9c1127f2cd403a315f,0,6,6,15,1,fourthree,,,,,,,,,,,,,,,,,,,,,,,,,,,,,,,,,,,,,,,,,,,,,,,,,,,,,,,,,,,,,,,,,,,,,,,,,,,,,,,,,,,,,,,,,,,,,,,,,,,,,,,,,,,,,,,,,,,,,,,,,,,,,,,,,,,,,,,,,,,,,,,,,,,,,,,,,,,,,
,,,,,,616fd6aac8d209bdcd631c2a,62c53964b92f20b2d77b8cc9,2022-07-06_09h29.36.324,Colour_Asymmetry_Pilot,2022.1.3,Win32,59.64807635,62c50e9c1127f2cd403a315f,0,7,7,33,1,onethree,,,,,,,,,,,,,,,,,,,,,,,,,,,,,,,,,,,,,,,,,,,,,,,,,,,,,,,,,,,,,,,,,,,,,,,,,,,,,,,,,,,,,,,,,,,,,,,,,,,,,,,,,,,,,,,,,,,,,,,,,,,,,,,,,,,,,,,,,,,,,,,,,,,,,,,,,,,,,
,,,,,,616fd6aac8d209bdcd631c2a,62c53964b92f20b2d77b8cc9,2022-07-06_09h29.36.324,Colour_Asymmetry_Pilot,2022.1.3,Win32,59.64807635,62c50e9c1127f2cd403a315f,0,8,8,4,1,threeone,,,,,,,,,,,,,,,,,,,,,,,,,,,,,,,,,,,,,,,,,,,,,,,,,,,,,,,,,,,,,,,,,,,,,,,,,,,,,,,,,,,,,,,,,,,,,,,,,,,,,,,,,,,,,,,,,,,,,,,,,,,,,,,,,,,,,,,,,,,,,,,,,,,,,,,,,,,,,
,,,,,,616fd6aac8d209bdcd631c2a,62c53964b92f20b2d77b8cc9,2022-07-06_09h29.36.324,Colour_Asymmetry_Pilot,2022.1.3,Win32,59.64807635,62c50e9c1127f2cd403a315f,0,9,9,123,1,twofour,,,,,,,,,,,,,,,,,,,,,,,,,,,,,,,,,,,,,,,,,,,,,,,,,,,,,,,,,,,,,,,,,,,,,,,,,,,,,,,,,,,,,,,,,,,,,,,,,,,,,,,,,,,,,,,,,,,,,,,,,,,,,,,,,,,,,,,,,,,,,,,,,,,,,,,,,,,,,
,,,,,,616fd6aac8d209bdcd631c2a,62c53964b92f20b2d77b8cc9,2022-07-06_09h29.36.324,Colour_Asymmetry_Pilot,2022.1.3,Win32,59.64807635,62c50e9c1127f2cd403a315f,0,10,10,59,1,twofour,,,,,,,,,,,,,,,,,,,,,,,,,,,,,,,,,,,,,,,,,,,,,,,,,,,,,,,,,,,,,,,,,,,,,,,,,,,,,,,,,,,,,,,,,,,,,,,,,,,,,,,,,,,,,,,,,,,,,,,,,,,,,,,,,,,,,,,,,,,,,,,,,,,,,,,,,,,,,
,,,,,,616fd6aac8d209bdcd631c2a,62c53964b92f20b2d77b8cc9,2022-07-06_09h29.36.324,Colour_Asymmetry_Pilot,2022.1.3,Win32,59.64807635,62c50e9c1127f2cd403a315f,0,11,11,38,1,fourtwo,,,,,,,,,,,,,,,,,,,,,,,,,,,,,,,,,,,,,,,,,,,,,,,,,,,,,,,,,,,,,,,,,,,,,,,,,,,,,,,,,,,,,,,,,,,,,,,,,,,,,,,,,,,,,,,,,,,,,,,,,,,,,,,,,,,,,,,,,,,,,,,,,,,,,,,,,,,,,
,,,,,,616fd6aac8d209bdcd631c2a,62c53964b92f20b2d77b8cc9,2022-07-06_09h29.36.324,Colour_Asymmetry_Pilot,2022.1.3,Win32,59.64807635,62c50e9c1127f2cd403a315f,0,12,12,20,1,threeone,,,,,,,,,,,,,,,,,,,,,,,,,,,,,,,,,,,,,,,,,,,,,,,,,,,,,,,,,,,,,,,,,,,,,,,,,,,,,,,,,,,,,,,,,,,,,,,,,,,,,,,,,,,,,,,,,,,,,,,,,,,,,,,,,,,,,,,,,,,,,,,,,,,,,,,,,,,,,
,,,,,,616fd6aac8d209bdcd631c2a,62c53964b92f20b2d77b8cc9,2022-07-06_09h29.36.324,Colour_Asymmetry_Pilot,2022.1.3,Win32,59.64807635,62c50e9c1127f2cd403a315f,0,13,13,23,1,fourthree,,,,,,,,,,,,,,,,,,,,,,,,,,,,,,,,,,,,,,,,,,,,,,,,,,,,,,,,,,,,,,,,,,,,,,,,,,,,,,,,,,,,,,,,,,,,,,,,,,,,,,,,,,,,,,,,,,,,,,,,,,,,,,,,,,,,,,,,,,,,,,,,,,,,,,,,,,,,,
,,,,,,616fd6aac8d209bdcd631c2a,62c53964b92f20b2d77b8cc9,2022-07-06_09h29.36.324,Colour_Asymmetry_Pilot,2022.1.3,Win32,59.64807635,62c50e9c1127f2cd403a315f,0,14,14,141,1,threefour,,,,,,,,,,,,,,,,,,,,,,,,,,,,,,,,,,,,,,,,,,,,,,,,,,,,,,,,,,,,,,,,,,,,,,,,,,,,,,,,,,,,,,,,,,,,,,,,,,,,,,,,,,,,,,,,,,,,,,,,,,,,,,,,,,,,,,,,,,,,,,,,,,,,,,,,,,,,,
,,,,,,616fd6aac8d209bdcd631c2a,62c53964b92f20b2d77b8cc9,2022-07-06_09h29.36.324,Colour_Asymmetry_Pilot,2022.1.3,Win32,59.64807635,62c50e9c1127f2cd403a315f,0,15,15,64,1,onetwo,,,,,,,,,,,,,,,,,,,,,,,,,,,,,,,,,,,,,,,,,,,,,,,,,,,,,,,,,,,,,,,,,,,,,,,,,,,,,,,,,,,,,,,,,,,,,,,,,,,,,,,,,,,,,,,,,,,,,,,,,,,,,,,,,,,,,,,,,,,,,,,,,,,,,,,,,,,,,
,,,,,,616fd6aac8d209bdcd631c2a,62c53964b92f20b2d77b8cc9,2022-07-06_09h29.36.324,Colour_Asymmetry_Pilot,2022.1.3,Win32,59.64807635,62c50e9c1127f2cd403a315f,0,16,16,153,1,onethree,,,,,,,,,,,,,,,,,,,,,,,,,,,,,,,,,,,,,,,,,,,,,,,,,,,,,,,,,,,,,,,,,,,,,,,,,,,,,,,,,,,,,,,,,,,,,,,,,,,,,,,,,,,,,,,,,,,,,,,,,,,,,,,,,,,,,,,,,,,,,,,,,,,,,,,,,,,,,
,,,,,,616fd6aac8d209bdcd631c2a,62c53964b92f20b2d77b8cc9,2022-07-06_09h29.36.324,Colour_Asymmetry_Pilot,2022.1.3,Win32,59.64807635,62c50e9c1127f2cd403a315f,0,17,17,99,1,twofour,,,,,,,,,,,,,,,,,,,,,,,,,,,,,,,,,,,,,,,,,,,,,,,,,,,,,,,,,,,,,,,,,,,,,,,,,,,,,,,,,,,,,,,,,,,,,,,,,,,,,,,,,,,,,,,,,,,,,,,,,,,,,,,,,,,,,,,,,,,,,,,,,,,,,,,,,,,,,
,,,,,,616fd6aac8d209bdcd631c2a,62c53964b92f20b2d77b8cc9,2022-07-06_09h29.36.324,Colour_Asymmetry_Pilot,2022.1.3,Win32,59.64807635,62c50e9c1127f2cd403a315f,0,18,18,94,1,fourtwo,,,,,,,,,,,,,,,,,,,,,,,,,,,,,,,,,,,,,,,,,,,,,,,,,,,,,,,,,,,,,,,,,,,,,,,,,,,,,,,,,,,,,,,,,,,,,,,,,,,,,,,,,,,,,,,,,,,,,,,,,,,,,,,,,,,,,,,,,,,,,,,,,,,,,,,,,,,,,
,,,,,,616fd6aac8d209bdcd631c2a,62c53964b92f20b2d77b8cc9,2022-07-06_09h29.36.324,Colour_Asymmetry_Pilot,2022.1.3,Win32,59.64807635,62c50e9c1127f2cd403a315f,0,19,19,92,1,threeone,,,,,,,,,,,,,,,,,,,,,,,,,,,,,,,,,,,,,,,,,,,,,,,,,,,,,,,,,,,,,,,,,,,,,,,,,,,,,,,,,,,,,,,,,,,,,,,,,,,,,,,,,,,,,,,,,,,,,,,,,,,,,,,,,,,,,,,,,,,,,,,,,,,,,,,,,,,,,
,,,,,,616fd6aac8d209bdcd631c2a,62c53964b92f20b2d77b8cc9,2022-07-06_09h29.36.324,Colour_Asymmetry_Pilot,2022.1.3,Win32,59.64807635,62c50e9c1127f2cd403a315f,0,20,20,2,1,twoone,,,,,,,,,,,,,,,,,,,,,,,,,,,,,,,,,,,,,,,,,,,,,,,,,,,,,,,,,,,,,,,,,,,,,,,,,,,,,,,,,,,,,,,,,,,,,,,,,,,,,,,,,,,,,,,,,,,,,,,,,,,,,,,,,,,,,,,,,,,,,,,,,,,,,,,,,,,,,
,,,,,,616fd6aac8d209bdcd631c2a,62c53964b92f20b2d77b8cc9,2022-07-06_09h29.36.324,Colour_Asymmetry_Pilot,2022.1.3,Win32,59.64807635,62c50e9c1127f2cd403a315f,0,21,21,51,1,twofour,,,,,,,,,,,,,,,,,,,,,,,,,,,,,,,,,,,,,,,,,,,,,,,,,,,,,,,,,,,,,,,,,,,,,,,,,,,,,,,,,,,,,,,,,,,,,,,,,,,,,,,,,,,,,,,,,,,,,,,,,,,,,,,,,,,,,,,,,,,,,,,,,,,,,,,,,,,,,
,,,,,,616fd6aac8d209bdcd631c2a,62c53964b92f20b2d77b8cc9,2022-07-06_09h29.36.324,Colour_Asymmetry_Pilot,2022.1.3,Win32,59.64807635,62c50e9c1127f2cd403a315f,0,22,22,110,1,fourtwo,,,,,,,,,,,,,,,,,,,,,,,,,,,,,,,,,,,,,,,,,,,,,,,,,,,,,,,,,,,,,,,,,,,,,,,,,,,,,,,,,,,,,,,,,,,,,,,,,,,,,,,,,,,,,,,,,,,,,,,,,,,,,,,,,,,,,,,,,,,,,,,,,,,,,,,,,,,,,
,,,,,,616fd6aac8d209bdcd631c2a,62c53964b92f20b2d77b8cc9,2022-07-06_09h29.36.324,Colour_Asymmetry_Pilot,2022.1.3,Win32,59.64807635,62c50e9c1127f2cd403a315f,0,23,23,0,1,onetwo,,,,,,,,,,,,,,,,,,,,,,,,,,,,,,,,,,,,,,,,,,,,,,,,,,,,,,,,,,,,,,,,,,,,,,,,,,,,,,,,,,,,,,,,,,,,,,,,,,,,,,,,,,,,,,,,,,,,,,,,,,,,,,,,,,,,,,,,,,,,,,,,,,,,,,,,,,,,,
,,,,,,616fd6aac8d209bdcd631c2a,62c53964b92f20b2d77b8cc9,2022-07-06_09h29.36.324,Colour_Asymmetry_Pilot,2022.1.3,Win32,59.64807635,62c50e9c1127f2cd403a315f,0,24,24,57,1,onethree,,,,,,,,,,,,,,,,,,,,,,,,,,,,,,,,,,,,,,,,,,,,,,,,,,,,,,,,,,,,,,,,,,,,,,,,,,,,,,,,,,,,,,,,,,,,,,,,,,,,,,,,,,,,,,,,,,,,,,,,,,,,,,,,,,,,,,,,,,,,,,,,,,,,,,,,,,,,,
,,,,,,616fd6aac8d209bdcd631c2a,62c53964b92f20b2d77b8cc9,2022-07-06_09h29.36.324,Colour_Asymmetry_Pilot,2022.1.3,Win32,59.64807635,62c50e9c1127f2cd403a315f,0,25,25,103,1,fourthree,,,,,,,,,,,,,,,,,,,,,,,,,,,,,,,,,,,,,,,,,,,,,,,,,,,,,,,,,,,,,,,,,,,,,,,,,,,,,,,,,,,,,,,,,,,,,,,,,,,,,,,,,,,,,,,,,,,,,,,,,,,,,,,,,,,,,,,,,,,,,,,,,,,,,,,,,,,,,
,,,,,,616fd6aac8d209bdcd631c2a,62c53964b92f20b2d77b8cc9,2022-07-06_09h29.36.324,Colour_Asymmetry_Pilot,2022.1.3,Win32,59.64807635,62c50e9c1127f2cd403a315f,0,26,26,61,1,threefour,,,,,,,,,,,,,,,,,,,,,,,,,,,,,,,,,,,,,,,,,,,,,,,,,,,,,,,,,,,,,,,,,,,,,,,,,,,,,,,,,,,,,,,,,,,,,,,,,,,,,,,,,,,,,,,,,,,,,,,,,,,,,,,,,,,,,,,,,,,,,,,,,,,,,,,,,,,,,
,,,,,,616fd6aac8d209bdcd631c2a,62c53964b92f20b2d77b8cc9,2022-07-06_09h29.36.324,Colour_Asymmetry_Pilot,2022.1.3,Win32,59.64807635,62c50e9c1127f2cd403a315f,0,27,27,106,1,twoone,,,,,,,,,,,,,,,,,,,,,,,,,,,,,,,,,,,,,,,,,,,,,,,,,,,,,,,,,,,,,,,,,,,,,,,,,,,,,,,,,,,,,,,,,,,,,,,,,,,,,,,,,,,,,,,,,,,,,,,,,,,,,,,,,,,,,,,,,,,,,,,,,,,,,,,,,,,,,
,,,,,,616fd6aac8d209bdcd631c2a,62c53964b92f20b2d77b8cc9,2022-07-06_09h29.36.324,Colour_Asymmetry_Pilot,2022.1.3,Win32,59.64807635,62c50e9c1127f2cd403a315f,0,28,28,5,1,threefour,,,,,,,,,,,,,,,,,,,,,,,,,,,,,,,,,,,,,,,,,,,,,,,,,,,,,,,,,,,,,,,,,,,,,,,,,,,,,,,,,,,,,,,,,,,,,,,,,,,,,,,,,,,,,,,,,,,,,,,,,,,,,,,,,,,,,,,,,,,,,,,,,,,,,,,,,,,,,
,,,,,,616fd6aac8d209bdcd631c2a,62c53964b92f20b2d77b8cc9,2022-07-06_09h29.36.324,Colour_Asymmetry_Pilot,2022.1.3,Win32,59.64807635,62c50e9c1127f2cd403a315f,0,29,29,12,1,threeone,,,,,,,,,,,,,,,,,,,,,,,,,,,,,,,,,,,,,,,,,,,,,,,,,,,,,,,,,,,,,,,,,,,,,,,,,,,,,,,,,,,,,,,,,,,,,,,,,,,,,,,,,,,,,,,,,,,,,,,,,,,,,,,,,,,,,,,,,,,,,,,,,,,,,,,,,,,,,
,,,,,,616fd6aac8d209bdcd631c2a,62c53964b92f20b2d77b8cc9,2022-07-06_09h29.36.324,Colour_Asymmetry_Pilot,2022.1.3,Win32,59.64807635,62c50e9c1127f2cd403a315f,0,30,30,31,1,fourthree,,,,,,,,,,,,,,,,,,,,,,,,,,,,,,,,,,,,,,,,,,,,,,,,,,,,,,,,,,,,,,,,,,,,,,,,,,,,,,,,,,,,,,,,,,,,,,,,,,,,,,,,,,,,,,,,,,,,,,,,,,,,,,,,,,,,,,,,,,,,,,,,,,,,,,,,,,,,,
,,,,,,616fd6aac8d209bdcd631c2a,62c53964b92f20b2d77b8cc9,2022-07-06_09h29.36.324,Colour_Asymmetry_Pilot,2022.1.3,Win32,59.64807635,62c50e9c1127f2cd403a315f,0,31,31,53,1,threefour,,,,,,,,,,,,,,,,,,,,,,,,,,,,,,,,,,,,,,,,,,,,,,,,,,,,,,,,,,,,,,,,,,,,,,,,,,,,,,,,,,,,,,,,,,,,,,,,,,,,,,,,,,,,,,,,,,,,,,,,,,,,,,,,,,,,,,,,,,,,,,,,,,,,,,,,,,,,,
,,,,,,616fd6aac8d209bdcd631c2a,62c53964b92f20b2d77b8cc9,2022-07-06_09h29.36.324,Colour_Asymmetry_Pilot,2022.1.3,Win32,59.64807635,62c50e9c1127f2cd403a315f,0,32,32,32,1,onetwo,,,,,,,,,,,,,,,,,,,,,,,,,,,,,,,,,,,,,,,,,,,,,,,,,,,,,,,,,,,,,,,,,,,,,,,,,,,,,,,,,,,,,,,,,,,,,,,,,,,,,,,,,,,,,,,,,,,,,,,,,,,,,,,,,,,,,,,,,,,,,,,,,,,,,,,,,,,,,
,,,,,,616fd6aac8d209bdcd631c2a,62c53964b92f20b2d77b8cc9,2022-07-06_09h29.36.324,Colour_Asymmetry_Pilot,2022.1.3,Win32,59.64807635,62c50e9c1127f2cd403a315f,0,33,33,150,1,fourtwo,,,,,,,,,,,,,,,,,,,,,,,,,,,,,,,,,,,,,,,,,,,,,,,,,,,,,,,,,,,,,,,,,,,,,,,,,,,,,,,,,,,,,,,,,,,,,,,,,,,,,,,,,,,,,,,,,,,,,,,,,,,,,,,,,,,,,,,,,,,,,,,,,,,,,,,,,,,,,
,,,,,,616fd6aac8d209bdcd631c2a,62c53964b92f20b2d77b8cc9,2022-07-06_09h29.36.324,Colour_Asymmetry_Pilot,2022.1.3,Win32,59.64807635,62c50e9c1127f2cd403a315f,0,34,34,107,1,twofour,,,,,,,,,,,,,,,,,,,,,,,,,,,,,,,,,,,,,,,,,,,,,,,,,,,,,,,,,,,,,,,,,,,,,,,,,,,,,,,,,,,,,,,,,,,,,,,,,,,,,,,,,,,,,,,,,,,,,,,,,,,,,,,,,,,,,,,,,,,,,,,,,,,,,,,,,,,,,
,,,,,,616fd6aac8d209bdcd631c2a,62c53964b92f20b2d77b8cc9,2022-07-06_09h29.36.324,Colour_Asymmetry_Pilot,2022.1.3,Win32,59.64807635,62c50e9c1127f2cd403a315f,0,35,35,131,1,twofour,,,,,,,,,,,,,,,,,,,,,,,,,,,,,,,,,,,,,,,,,,,,,,,,,,,,,,,,,,,,,,,,,,,,,,,,,,,,,,,,,,,,,,,,,,,,,,,,,,,,,,,,,,,,,,,,,,,,,,,,,,,,,,,,,,,,,,,,,,,,,,,,,,,,,,,,,,,,,
,,,,,,616fd6aac8d209bdcd631c2a,62c53964b92f20b2d77b8cc9,2022-07-06_09h29.36.324,Colour_Asymmetry_Pilot,2022.1.3,Win32,59.64807635,62c50e9c1127f2cd403a315f,0,36,36,118,1,fourtwo,,,,,,,,,,,,,,,,,,,,,,,,,,,,,,,,,,,,,,,,,,,,,,,,,,,,,,,,,,,,,,,,,,,,,,,,,,,,,,,,,,,,,,,,,,,,,,,,,,,,,,,,,,,,,,,,,,,,,,,,,,,,,,,,,,,,,,,,,,,,,,,,,,,,,,,,,,,,,
,,,,,,616fd6aac8d209bdcd631c2a,62c53964b92f20b2d77b8cc9,2022-07-06_09h29.36.324,Colour_Asymmetry_Pilot,2022.1.3,Win32,59.64807635,62c50e9c1127f2cd403a315f,0,37,37,37,1,threefour,,,,,,,,,,,,,,,,,,,,,,,,,,,,,,,,,,,,,,,,,,,,,,,,,,,,,,,,,,,,,,,,,,,,,,,,,,,,,,,,,,,,,,,,,,,,,,,,,,,,,,,,,,,,,,,,,,,,,,,,,,,,,,,,,,,,,,,,,,,,,,,,,,,,,,,,,,,,,
,,,,,,616fd6aac8d209bdcd631c2a,62c53964b92f20b2d77b8cc9,2022-07-06_09h29.36.324,Colour_Asymmetry_Pilot,2022.1.3,Win32,59.64807635,62c50e9c1127f2cd403a315f,0,38,38,93,1,threefour,,,,,,,,,,,,,,,,,,,,,,,,,,,,,,,,,,,,,,,,,,,,,,,,,,,,,,,,,,,,,,,,,,,,,,,,,,,,,,,,,,,,,,,,,,,,,,,,,,,,,,,,,,,,,,,,,,,,,,,,,,,,,,,,,,,,,,,,,,,,,,,,,,,,,,,,,,,,,
,,,,,,616fd6aac8d209bdcd631c2a,62c53964b92f20b2d77b8cc9,2022-07-06_09h29.36.324,Colour_Asymmetry_Pilot,2022.1.3,Win32,59.64807635,62c50e9c1127f2cd403a315f,0,39,39,149,1,threefour,,,,,,,,,,,,,,,,,,,,,,,,,,,,,,,,,,,,,,,,,,,,,,,,,,,,,,,,,,,,,,,,,,,,,,,,,,,,,,,,,,,,,,,,,,,,,,,,,,,,,,,,,,,,,,,,,,,,,,,,,,,,,,,,,,,,,,,,,,,,,,,,,,,,,,,,,,,,,
,,,,,,616fd6aac8d209bdcd631c2a,62c53964b92f20b2d77b8cc9,2022-07-06_09h29.36.324,Colour_Asymmetry_Pilot,2022.1.3,Win32,59.64807635,62c50e9c1127f2cd403a315f,0,40,40,132,1,threeone,,,,,,,,,,,,,,,,,,,,,,,,,,,,,,,,,,,,,,,,,,,,,,,,,,,,,,,,,,,,,,,,,,,,,,,,,,,,,,,,,,,,,,,,,,,,,,,,,,,,,,,,,,,,,,,,,,,,,,,,,,,,,,,,,,,,,,,,,,,,,,,,,,,,,,,,,,,,,
,,,,,,616fd6aac8d209bdcd631c2a,62c53964b92f20b2d77b8cc9,2022-07-06_09h29.36.324,Colour_Asymmetry_Pilot,2022.1.3,Win32,59.64807635,62c50e9c1127f2cd403a315f,0,41,41,122,1,twoone,,,,,,,,,,,,,,,,,,,,,,,,,,,,,,,,,,,,,,,,,,,,,,,,,,,,,,,,,,,,,,,,,,,,,,,,,,,,,,,,,,,,,,,,,,,,,,,,,,,,,,,,,,,,,,,,,,,,,,,,,,,,,,,,,,,,,,,,,,,,,,,,,,,,,,,,,,,,,
,,,,,,616fd6aac8d209bdcd631c2a,62c53964b92f20b2d77b8cc9,2022-07-06_09h29.36.324,Colour_Asymmetry_Pilot,2022.1.3,Win32,59.64807635,62c50e9c1127f2cd403a315f,0,42,42,102,1,fourtwo,,,,,,,,,,,,,,,,,,,,,,,,,,,,,,,,,,,,,,,,,,,,,,,,,,,,,,,,,,,,,,,,,,,,,,,,,,,,,,,,,,,,,,,,,,,,,,,,,,,,,,,,,,,,,,,,,,,,,,,,,,,,,,,,,,,,,,,,,,,,,,,,,,,,,,,,,,,,,
,,,,,,616fd6aac8d209bdcd631c2a,62c53964b92f20b2d77b8cc9,2022-07-06_09h29.36.324,Colour_Asymmetry_Pilot,2022.1.3,Win32,59.64807635,62c50e9c1127f2cd403a315f,0,43,43,74,1,twoone,,,,,,,,,,,,,,,,,,,,,,,,,,,,,,,,,,,,,,,,,,,,,,,,,,,,,,,,,,,,,,,,,,,,,,,,,,,,,,,,,,,,,,,,,,,,,,,,,,,,,,,,,,,,,,,,,,,,,,,,,,,,,,,,,,,,,,,,,,,,,,,,,,,,,,,,,,,,,
,,,,,,616fd6aac8d209bdcd631c2a,62c53964b92f20b2d77b8cc9,2022-07-06_09h29.36.324,Colour_Asymmetry_Pilot,2022.1.3,Win32,59.64807635,62c50e9c1127f2cd403a315f,0,44,44,67,1,twofour,,,,,,,,,,,,,,,,,,,,,,,,,,,,,,,,,,,,,,,,,,,,,,,,,,,,,,,,,,,,,,,,,,,,,,,,,,,,,,,,,,,,,,,,,,,,,,,,,,,,,,,,,,,,,,,,,,,,,,,,,,,,,,,,,,,,,,,,,,,,,,,,,,,,,,,,,,,,,
,,,,,,616fd6aac8d209bdcd631c2a,62c53964b92f20b2d77b8cc9,2022-07-06_09h29.36.324,Colour_Asymmetry_Pilot,2022.1.3,Win32,59.64807635,62c50e9c1127f2cd403a315f,0,45,45,144,1,onetwo,,,,,,,,,,,,,,,,,,,,,,,,,,,,,,,,,,,,,,,,,,,,,,,,,,,,,,,,,,,,,,,,,,,,,,,,,,,,,,,,,,,,,,,,,,,,,,,,,,,,,,,,,,,,,,,,,,,,,,,,,,,,,,,,,,,,,,,,,,,,,,,,,,,,,,,,,,,,,
,,,,,,616fd6aac8d209bdcd631c2a,62c53964b92f20b2d77b8cc9,2022-07-06_09h29.36.324,Colour_Asymmetry_Pilot,2022.1.3,Win32,59.64807635,62c50e9c1127f2cd403a315f,0,46,46,121,1,onethree,,,,,,,,,,,,,,,,,,,,,,,,,,,,,,,,,,,,,,,,,,,,,,,,,,,,,,,,,,,,,,,,,,,,,,,,,,,,,,,,,,,,,,,,,,,,,,,,,,,,,,,,,,,,,,,,,,,,,,,,,,,,,,,,,,,,,,,,,,,,,,,,,,,,,,,,,,,,,
,,,,,,616fd6aac8d209bdcd631c2a,62c53964b92f20b2d77b8cc9,2022-07-06_09h29.36.324,Colour_Asymmetry_Pilot,2022.1.3,Win32,59.64807635,62c50e9c1127f2cd403a315f,0,47,47,138,1,twoone,,,,,,,,,,,,,,,,,,,,,,,,,,,,,,,,,,,,,,,,,,,,,,,,,,,,,,,,,,,,,,,,,,,,,,,,,,,,,,,,,,,,,,,,,,,,,,,,,,,,,,,,,,,,,,,,,,,,,,,,,,,,,,,,,,,,,,,,,,,,,,,,,,,,,,,,,,,,,
,,,,,,616fd6aac8d209bdcd631c2a,62c53964b92f20b2d77b8cc9,2022-07-06_09h29.36.324,Colour_Asymmetry_Pilot,2022.1.3,Win32,59.64807635,62c50e9c1127f2cd403a315f,0,48,48,36,1,threeone,,,,,,,,,,,,,,,,,,,,,,,,,,,,,,,,,,,,,,,,,,,,,,,,,,,,,,,,,,,,,,,,,,,,,,,,,,,,,,,,,,,,,,,,,,,,,,,,,,,,,,,,,,,,,,,,,,,,,,,,,,,,,,,,,,,,,,,,,,,,,,,,,,,,,,,,,,,,,
,,,,,,616fd6aac8d209bdcd631c2a,62c53964b92f20b2d77b8cc9,2022-07-06_09h29.36.324,Colour_Asymmetry_Pilot,2022.1.3,Win32,59.64807635,62c50e9c1127f2cd403a315f,0,49,49,136,1,onetwo,,,,,,,,,,,,,,,,,,,,,,,,,,,,,,,,,,,,,,,,,,,,,,,,,,,,,,,,,,,,,,,,,,,,,,,,,,,,,,,,,,,,,,,,,,,,,,,,,,,,,,,,,,,,,,,,,,,,,,,,,,,,,,,,,,,,,,,,,,,,,,,,,,,,,,,,,,,,,
,,,,,,616fd6aac8d209bdcd631c2a,62c53964b92f20b2d77b8cc9,2022-07-06_09h29.36.324,Colour_Asymmetry_Pilot,2022.1.3,Win32,59.64807635,62c50e9c1127f2cd403a315f,0,50,50,97,1,onethree,,,,,,,,,,,,,,,,,,,,,,,,,,,,,,,,,,,,,,,,,,,,,,,,,,,,,,,,,,,,,,,,,,,,,,,,,,,,,,,,,,,,,,,,,,,,,,,,,,,,,,,,,,,,,,,,,,,,,,,,,,,,,,,,,,,,,,,,,,,,,,,,,,,,,,,,,,,,,
,,,,,,616fd6aac8d209bdcd631c2a,62c53964b92f20b2d77b8cc9,2022-07-06_09h29.36.324,Colour_Asymmetry_Pilot,2022.1.3,Win32,59.64807635,62c50e9c1127f2cd403a315f,0,51,51,119,1,fourthree,,,,,,,,,,,,,,,,,,,,,,,,,,,,,,,,,,,,,,,,,,,,,,,,,,,,,,,,,,,,,,,,,,,,,,,,,,,,,,,,,,,,,,,,,,,,,,,,,,,,,,,,,,,,,,,,,,,,,,,,,,,,,,,,,,,,,,,,,,,,,,,,,,,,,,,,,,,,,
,,,,,,616fd6aac8d209bdcd631c2a,62c53964b92f20b2d77b8cc9,2022-07-06_09h29.36.324,Colour_Asymmetry_Pilot,2022.1.3,Win32,59.64807635,62c50e9c1127f2cd403a315f,0,52,52,129,1,onethree,,,,,,,,,,,,,,,,,,,,,,,,,,,,,,,,,,,,,,,,,,,,,,,,,,,,,,,,,,,,,,,,,,,,,,,,,,,,,,,,,,,,,,,,,,,,,,,,,,,,,,,,,,,,,,,,,,,,,,,,,,,,,,,,,,,,,,,,,,,,,,,,,,,,,,,,,,,,,
,,,,,,616fd6aac8d209bdcd631c2a,62c53964b92f20b2d77b8cc9,2022-07-06_09h29.36.324,Colour_Asymmetry_Pilot,2022.1.3,Win32,59.64807635,62c50e9c1127f2cd403a315f,0,53,53,91,1,twofour,,,,,,,,,,,,,,,,,,,,,,,,,,,,,,,,,,,,,,,,,,,,,,,,,,,,,,,,,,,,,,,,,,,,,,,,,,,,,,,,,,,,,,,,,,,,,,,,,,,,,,,,,,,,,,,,,,,,,,,,,,,,,,,,,,,,,,,,,,,,,,,,,,,,,,,,,,,,,
,,,,,,616fd6aac8d209bdcd631c2a,62c53964b92f20b2d77b8cc9,2022-07-06_09h29.36.324,Colour_Asymmetry_Pilot,2022.1.3,Win32,59.64807635,62c50e9c1127f2cd403a315f,0,54,54,41,1,onethree,,,,,,,,,,,,,,,,,,,,,,,,,,,,,,,,,,,,,,,,,,,,,,,,,,,,,,,,,,,,,,,,,,,,,,,,,,,,,,,,,,,,,,,,,,,,,,,,,,,,,,,,,,,,,,,,,,,,,,,,,,,,,,,,,,,,,,,,,,,,,,,,,,,,,,,,,,,,,
,,,,,,616fd6aac8d209bdcd631c2a,62c53964b92f20b2d77b8cc9,2022-07-06_09h29.36.324,Colour_Asymmetry_Pilot,2022.1.3,Win32,59.64807635,62c50e9c1127f2cd403a315f,0,55,55,14,1,fourtwo,,,,,,,,,,,,,,,,,,,,,,,,,,,,,,,,,,,,,,,,,,,,,,,,,,,,,,,,,,,,,,,,,,,,,,,,,,,,,,,,,,,,,,,,,,,,,,,,,,,,,,,,,,,,,,,,,,,,,,,,,,,,,,,,,,,,,,,,,,,,,,,,,,,,,,,,,,,,,
,,,,,,616fd6aac8d209bdcd631c2a,62c53964b92f20b2d77b8cc9,2022-07-06_09h29.36.324,Colour_Asymmetry_Pilot,2022.1.3,Win32,59.64807635,62c50e9c1127f2cd403a315f,0,56,56,113,1,onethree,,,,,,,,,,,,,,,,,,,,,,,,,,,,,,,,,,,,,,,,,,,,,,,,,,,,,,,,,,,,,,,,,,,,,,,,,,,,,,,,,,,,,,,,,,,,,,,,,,,,,,,,,,,,,,,,,,,,,,,,,,,,,,,,,,,,,,,,,,,,,,,,,,,,,,,,,,,,,
,,,,,,616fd6aac8d209bdcd631c2a,62c53964b92f20b2d77b8cc9,2022-07-06_09h29.36.324,Colour_Asymmetry_Pilot,2022.1.3,Win32,59.64807635,62c50e9c1127f2cd403a315f,0,57,57,9,1,onethree,,,,,,,,,,,,,,,,,,,,,,,,,,,,,,,,,,,,,,,,,,,,,,,,,,,,,,,,,,,,,,,,,,,,,,,,,,,,,,,,,,,,,,,,,,,,,,,,,,,,,,,,,,,,,,,,,,,,,,,,,,,,,,,,,,,,,,,,,,,,,,,,,,,,,,,,,,,,,
,,,,,,616fd6aac8d209bdcd631c2a,62c53964b92f20b2d77b8cc9,2022-07-06_09h29.36.324,Colour_Asymmetry_Pilot,2022.1.3,Win32,59.64807635,62c50e9c1127f2cd403a315f,0,58,58,146,1,twoone,,,,,,,,,,,,,,,,,,,,,,,,,,,,,,,,,,,,,,,,,,,,,,,,,,,,,,,,,,,,,,,,,,,,,,,,,,,,,,,,,,,,,,,,,,,,,,,,,,,,,,,,,,,,,,,,,,,,,,,,,,,,,,,,,,,,,,,,,,,,,,,,,,,,,,,,,,,,,
,,,,,,616fd6aac8d209bdcd631c2a,62c53964b92f20b2d77b8cc9,2022-07-06_09h29.36.324,Colour_Asymmetry_Pilot,2022.1.3,Win32,59.64807635,62c50e9c1127f2cd403a315f,0,59,59,54,1,fourtwo,,,,,,,,,,,,,,,,,,,,,,,,,,,,,,,,,,,,,,,,,,,,,,,,,,,,,,,,,,,,,,,,,,,,,,,,,,,,,,,,,,,,,,,,,,,,,,,,,,,,,,,,,,,,,,,,,,,,,,,,,,,,,,,,,,,,,,,,,,,,,,,,,,,,,,,,,,,,,
,,,,,,616fd6aac8d209bdcd631c2a,62c53964b92f20b2d77b8cc9,2022-07-06_09h29.36.324,Colour_Asymmetry_Pilot,2022.1.3,Win32,59.64807635,62c50e9c1127f2cd403a315f,0,60,60,60,1,threeone,,,,,,,,,,,,,,,,,,,,,,,,,,,,,,,,,,,,,,,,,,,,,,,,,,,,,,,,,,,,,,,,,,,,,,,,,,,,,,,,,,,,,,,,,,,,,,,,,,,,,,,,,,,,,,,,,,,,,,,,,,,,,,,,,,,,,,,,,,,,,,,,,,,,,,,,,,,,,
,,,,,,616fd6aac8d209bdcd631c2a,62c53964b92f20b2d77b8cc9,2022-07-06_09h29.36.324,Colour_Asymmetry_Pilot,2022.1.3,Win32,59.64807635,62c50e9c1127f2cd403a315f,0,61,61,49,1,onethree,,,,,,,,,,,,,,,,,,,,,,,,,,,,,,,,,,,,,,,,,,,,,,,,,,,,,,,,,,,,,,,,,,,,,,,,,,,,,,,,,,,,,,,,,,,,,,,,,,,,,,,,,,,,,,,,,,,,,,,,,,,,,,,,,,,,,,,,,,,,,,,,,,,,,,,,,,,,,
,,,,,,616fd6aac8d209bdcd631c2a,62c53964b92f20b2d77b8cc9,2022-07-06_09h29.36.324,Colour_Asymmetry_Pilot,2022.1.3,Win32,59.64807635,62c50e9c1127f2cd403a315f,0,62,62,134,1,fourtwo,,,,,,,,,,,,,,,,,,,,,,,,,,,,,,,,,,,,,,,,,,,,,,,,,,,,,,,,,,,,,,,,,,,,,,,,,,,,,,,,,,,,,,,,,,,,,,,,,,,,,,,,,,,,,,,,,,,,,,,,,,,,,,,,,,,,,,,,,,,,,,,,,,,,,,,,,,,,,
,,,,,,616fd6aac8d209bdcd631c2a,62c53964b92f20b2d77b8cc9,2022-07-06_09h29.36.324,Colour_Asymmetry_Pilot,2022.1.3,Win32,59.64807635,62c50e9c1127f2cd403a315f,0,63,63,66,1,twoone,,,,,,,,,,,,,,,,,,,,,,,,,,,,,,,,,,,,,,,,,,,,,,,,,,,,,,,,,,,,,,,,,,,,,,,,,,,,,,,,,,,,,,,,,,,,,,,,,,,,,,,,,,,,,,,,,,,,,,,,,,,,,,,,,,,,,,,,,,,,,,,,,,,,,,,,,,,,,
,,,,,,616fd6aac8d209bdcd631c2a,62c53964b92f20b2d77b8cc9,2022-07-06_09h29.36.324,Colour_Asymmetry_Pilot,2022.1.3,Win32,59.64807635,62c50e9c1127f2cd403a315f,0,64,64,116,1,threeone,,,,,,,,,,,,,,,,,,,,,,,,,,,,,,,,,,,,,,,,,,,,,,,,,,,,,,,,,,,,,,,,,,,,,,,,,,,,,,,,,,,,,,,,,,,,,,,,,,,,,,,,,,,,,,,,,,,,,,,,,,,,,,,,,,,,,,,,,,,,,,,,,,,,,,,,,,,,,
,,,,,,616fd6aac8d209bdcd631c2a,62c53964b92f20b2d77b8cc9,2022-07-06_09h29.36.324,Colour_Asymmetry_Pilot,2022.1.3,Win32,59.64807635,62c50e9c1127f2cd403a315f,0,65,65,48,1,onetwo,,,,,,,,,,,,,,,,,,,,,,,,,,,,,,,,,,,,,,,,,,,,,,,,,,,,,,,,,,,,,,,,,,,,,,,,,,,,,,,,,,,,,,,,,,,,,,,,,,,,,,,,,,,,,,,,,,,,,,,,,,,,,,,,,,,,,,,,,,,,,,,,,,,,,,,,,,,,,
,,,,,,616fd6aac8d209bdcd631c2a,62c53964b92f20b2d77b8cc9,2022-07-06_09h29.36.324,Colour_Asymmetry_Pilot,2022.1.3,Win32,59.64807635,62c50e9c1127f2cd403a315f,0,66,66,21,1,threefour,,,,,,,,,,,,,,,,,,,,,,,,,,,,,,,,,,,,,,,,,,,,,,,,,,,,,,,,,,,,,,,,,,,,,,,,,,,,,,,,,,,,,,,,,,,,,,,,,,,,,,,,,,,,,,,,,,,,,,,,,,,,,,,,,,,,,,,,,,,,,,,,,,,,,,,,,,,,,
,,,,,,616fd6aac8d209bdcd631c2a,62c53964b92f20b2d77b8cc9,2022-07-06_09h29.36.324,Colour_Asymmetry_Pilot,2022.1.3,Win32,59.64807635,62c50e9c1127f2cd403a315f,0,67,67,80,1,onetwo,,,,,,,,,,,,,,,,,,,,,,,,,,,,,,,,,,,,,,,,,,,,,,,,,,,,,,,,,,,,,,,,,,,,,,,,,,,,,,,,,,,,,,,,,,,,,,,,,,,,,,,,,,,,,,,,,,,,,,,,,,,,,,,,,,,,,,,,,,,,,,,,,,,,,,,,,,,,,
,,,,,,616fd6aac8d209bdcd631c2a,62c53964b92f20b2d77b8cc9,2022-07-06_09h29.36.324,Colour_Asymmetry_Pilot,2022.1.3,Win32,59.64807635,62c50e9c1127f2cd403a315f,0,68,68,124,1,threeone,,,,,,,,,,,,,,,,,,,,,,,,,,,,,,,,,,,,,,,,,,,,,,,,,,,,,,,,,,,,,,,,,,,,,,,,,,,,,,,,,,,,,,,,,,,,,,,,,,,,,,,,,,,,,,,,,,,,,,,,,,,,,,,,,,,,,,,,,,,,,,,,,,,,,,,,,,,,,
,,,,,,616fd6aac8d209bdcd631c2a,62c53964b92f20b2d77b8cc9,2022-07-06_09h29.36.324,Colour_Asymmetry_Pilot,2022.1.3,Win32,59.64807635,62c50e9c1127f2cd403a315f,0,69,69,95,1,fourthree,,,,,,,,,,,,,,,,,,,,,,,,,,,,,,,,,,,,,,,,,,,,,,,,,,,,,,,,,,,,,,,,,,,,,,,,,,,,,,,,,,,,,,,,,,,,,,,,,,,,,,,,,,,,,,,,,,,,,,,,,,,,,,,,,,,,,,,,,,,,,,,,,,,,,,,,,,,,,
,,,,,,616fd6aac8d209bdcd631c2a,62c53964b92f20b2d77b8cc9,2022-07-06_09h29.36.324,Colour_Asymmetry_Pilot,2022.1.3,Win32,59.64807635,62c50e9c1127f2cd403a315f,0,70,70,90,1,twoone,,,,,,,,,,,,,,,,,,,,,,,,,,,,,,,,,,,,,,,,,,,,,,,,,,,,,,,,,,,,,,,,,,,,,,,,,,,,,,,,,,,,,,,,,,,,,,,,,,,,,,,,,,,,,,,,,,,,,,,,,,,,,,,,,,,,,,,,,,,,,,,,,,,,,,,,,,,,,
,,,,,,616fd6aac8d209bdcd631c2a,62c53964b92f20b2d77b8cc9,2022-07-06_09h29.36.324,Colour_Asymmetry_Pilot,2022.1.3,Win32,59.64807635,62c50e9c1127f2cd403a315f,0,71,71,151,1,fourthree,,,,,,,,,,,,,,,,,,,,,,,,,,,,,,,,,,,,,,,,,,,,,,,,,,,,,,,,,,,,,,,,,,,,,,,,,,,,,,,,,,,,,,,,,,,,,,,,,,,,,,,,,,,,,,,,,,,,,,,,,,,,,,,,,,,,,,,,,,,,,,,,,,,,,,,,,,,,,
,,,,,,616fd6aac8d209bdcd631c2a,62c53964b92f20b2d77b8cc9,2022-07-06_09h29.36.324,Colour_Asymmetry_Pilot,2022.1.3,Win32,59.64807635,62c50e9c1127f2cd403a315f,0,72,72,89,1,onethree,,,,,,,,,,,,,,,,,,,,,,,,,,,,,,,,,,,,,,,,,,,,,,,,,,,,,,,,,,,,,,,,,,,,,,,,,,,,,,,,,,,,,,,,,,,,,,,,,,,,,,,,,,,,,,,,,,,,,,,,,,,,,,,,,,,,,,,,,,,,,,,,,,,,,,,,,,,,,
,,,,,,616fd6aac8d209bdcd631c2a,62c53964b92f20b2d77b8cc9,2022-07-06_09h29.36.324,Colour_Asymmetry_Pilot,2022.1.3,Win32,59.64807635,62c50e9c1127f2cd403a315f,0,73,73,24,1,onetwo,,,,,,,,,,,,,,,,,,,,,,,,,,,,,,,,,,,,,,,,,,,,,,,,,,,,,,,,,,,,,,,,,,,,,,,,,,,,,,,,,,,,,,,,,,,,,,,,,,,,,,,,,,,,,,,,,,,,,,,,,,,,,,,,,,,,,,,,,,,,,,,,,,,,,,,,,,,,,
,,,,,,616fd6aac8d209bdcd631c2a,62c53964b92f20b2d77b8cc9,2022-07-06_09h29.36.324,Colour_Asymmetry_Pilot,2022.1.3,Win32,59.64807635,62c50e9c1127f2cd403a315f,0,74,74,157,1,threefour,,,,,,,,,,,,,,,,,,,,,,,,,,,,,,,,,,,,,,,,,,,,,,,,,,,,,,,,,,,,,,,,,,,,,,,,,,,,,,,,,,,,,,,,,,,,,,,,,,,,,,,,,,,,,,,,,,,,,,,,,,,,,,,,,,,,,,,,,,,,,,,,,,,,,,,,,,,,,
,,,,,,616fd6aac8d209bdcd631c2a,62c53964b92f20b2d77b8cc9,2022-07-06_09h29.36.324,Colour_Asymmetry_Pilot,2022.1.3,Win32,59.64807635,62c50e9c1127f2cd403a315f,0,75,75,19,1,twofour,,,,,,,,,,,,,,,,,,,,,,,,,,,,,,,,,,,,,,,,,,,,,,,,,,,,,,,,,,,,,,,,,,,,,,,,,,,,,,,,,,,,,,,,,,,,,,,,,,,,,,,,,,,,,,,,,,,,,,,,,,,,,,,,,,,,,,,,,,,,,,,,,,,,,,,,,,,,,
,,,,,,616fd6aac8d209bdcd631c2a,62c53964b92f20b2d77b8cc9,2022-07-06_09h29.36.324,Colour_Asymmetry_Pilot,2022.1.3,Win32,59.64807635,62c50e9c1127f2cd403a315f,0,76,76,133,1,threefour,,,,,,,,,,,,,,,,,,,,,,,,,,,,,,,,,,,,,,,,,,,,,,,,,,,,,,,,,,,,,,,,,,,,,,,,,,,,,,,,,,,,,,,,,,,,,,,,,,,,,,,,,,,,,,,,,,,,,,,,,,,,,,,,,,,,,,,,,,,,,,,,,,,,,,,,,,,,,
,,,,,,616fd6aac8d209bdcd631c2a,62c53964b92f20b2d77b8cc9,2022-07-06_09h29.36.324,Colour_Asymmetry_Pilot,2022.1.3,Win32,59.64807635,62c50e9c1127f2cd403a315f,0,77,77,130,1,twoone,,,,,,,,,,,,,,,,,,,,,,,,,,,,,,,,,,,,,,,,,,,,,,,,,,,,,,,,,,,,,,,,,,,,,,,,,,,,,,,,,,,,,,,,,,,,,,,,,,,,,,,,,,,,,,,,,,,,,,,,,,,,,,,,,,,,,,,,,,,,,,,,,,,,,,,,,,,,,
,,,,,,616fd6aac8d209bdcd631c2a,62c53964b92f20b2d77b8cc9,2022-07-06_09h29.36.324,Colour_Asymmetry_Pilot,2022.1.3,Win32,59.64807635,62c50e9c1127f2cd403a315f,0,78,78,10,1,twoone,,,,,,,,,,,,,,,,,,,,,,,,,,,,,,,,,,,,,,,,,,,,,,,,,,,,,,,,,,,,,,,,,,,,,,,,,,,,,,,,,,,,,,,,,,,,,,,,,,,,,,,,,,,,,,,,,,,,,,,,,,,,,,,,,,,,,,,,,,,,,,,,,,,,,,,,,,,,,
,,,,,,616fd6aac8d209bdcd631c2a,62c53964b92f20b2d77b8cc9,2022-07-06_09h29.36.324,Colour_Asymmetry_Pilot,2022.1.3,Win32,59.64807635,62c50e9c1127f2cd403a315f,0,79,79,137,1,onethree,,,,,,,,,,,,,,,,,,,,,,,,,,,,,,,,,,,,,,,,,,,,,,,,,,,,,,,,,,,,,,,,,,,,,,,,,,,,,,,,,,,,,,,,,,,,,,,,,,,,,,,,,,,,,,,,,,,,,,,,,,,,,,,,,,,,,,,,,,,,,,,,,,,,,,,,,,,,,
,,,,,,616fd6aac8d209bdcd631c2a,62c53964b92f20b2d77b8cc9,2022-07-06_09h29.36.324,Colour_Asymmetry_Pilot,2022.1.3,Win32,59.64807635,62c50e9c1127f2cd403a315f,0,80,80,8,1,onetwo,,,,,,,,,,,,,,,,,,,,,,,,,,,,,,,,,,,,,,,,,,,,,,,,,,,,,,,,,,,,,,,,,,,,,,,,,,,,,,,,,,,,,,,,,,,,,,,,,,,,,,,,,,,,,,,,,,,,,,,,,,,,,,,,,,,,,,,,,,,,,,,,,,,,,,,,,,,,,
,,,,,,616fd6aac8d209bdcd631c2a,62c53964b92f20b2d77b8cc9,2022-07-06_09h29.36.324,Colour_Asymmetry_Pilot,2022.1.3,Win32,59.64807635,62c50e9c1127f2cd403a315f,0,81,81,42,1,twoone,,,,,,,,,,,,,,,,,,,,,,,,,,,,,,,,,,,,,,,,,,,,,,,,,,,,,,,,,,,,,,,,,,,,,,,,,,,,,,,,,,,,,,,,,,,,,,,,,,,,,,,,,,,,,,,,,,,,,,,,,,,,,,,,,,,,,,,,,,,,,,,,,,,,,,,,,,,,,
,,,,,,616fd6aac8d209bdcd631c2a,62c53964b92f20b2d77b8cc9,2022-07-06_09h29.36.324,Colour_Asymmetry_Pilot,2022.1.3,Win32,59.64807635,62c50e9c1127f2cd403a315f,0,82,82,44,1,threeone,,,,,,,,,,,,,,,,,,,,,,,,,,,,,,,,,,,,,,,,,,,,,,,,,,,,,,,,,,,,,,,,,,,,,,,,,,,,,,,,,,,,,,,,,,,,,,,,,,,,,,,,,,,,,,,,,,,,,,,,,,,,,,,,,,,,,,,,,,,,,,,,,,,,,,,,,,,,,
,,,,,,616fd6aac8d209bdcd631c2a,62c53964b92f20b2d77b8cc9,2022-07-06_09h29.36.324,Colour_Asymmetry_Pilot,2022.1.3,Win32,59.64807635,62c50e9c1127f2cd403a315f,0,83,83,25,1,onethree,,,,,,,,,,,,,,,,,,,,,,,,,,,,,,,,,,,,,,,,,,,,,,,,,,,,,,,,,,,,,,,,,,,,,,,,,,,,,,,,,,,,,,,,,,,,,,,,,,,,,,,,,,,,,,,,,,,,,,,,,,,,,,,,,,,,,,,,,,,,,,,,,,,,,,,,,,,,,
,,,,,,616fd6aac8d209bdcd631c2a,62c53964b92f20b2d77b8cc9,2022-07-06_09h29.36.324,Colour_Asymmetry_Pilot,2022.1.3,Win32,59.64807635,62c50e9c1127f2cd403a315f,0,84,84,117,1,threefour,,,,,,,,,,,,,,,,,,,,,,,,,,,,,,,,,,,,,,,,,,,,,,,,,,,,,,,,,,,,,,,,,,,,,,,,,,,,,,,,,,,,,,,,,,,,,,,,,,,,,,,,,,,,,,,,,,,,,,,,,,,,,,,,,,,,,,,,,,,,,,,,,,,,,,,,,,,,,
,,,,,,616fd6aac8d209bdcd631c2a,62c53964b92f20b2d77b8cc9,2022-07-06_09h29.36.324,Colour_Asymmetry_Pilot,2022.1.3,Win32,59.64807635,62c50e9c1127f2cd403a315f,0,85,85,83,1,twofour,,,,,,,,,,,,,,,,,,,,,,,,,,,,,,,,,,,,,,,,,,,,,,,,,,,,,,,,,,,,,,,,,,,,,,,,,,,,,,,,,,,,,,,,,,,,,,,,,,,,,,,,,,,,,,,,,,,,,,,,,,,,,,,,,,,,,,,,,,,,,,,,,,,,,,,,,,,,,
,,,,,,616fd6aac8d209bdcd631c2a,62c53964b92f20b2d77b8cc9,2022-07-06_09h29.36.324,Colour_Asymmetry_Pilot,2022.1.3,Win32,59.64807635,62c50e9c1127f2cd403a315f,0,86,86,115,1,twofour,,,,,,,,,,,,,,,,,,,,,,,,,,,,,,,,,,,,,,,,,,,,,,,,,,,,,,,,,,,,,,,,,,,,,,,,,,,,,,,,,,,,,,,,,,,,,,,,,,,,,,,,,,,,,,,,,,,,,,,,,,,,,,,,,,,,,,,,,,,,,,,,,,,,,,,,,,,,,
,,,,,,616fd6aac8d209bdcd631c2a,62c53964b92f20b2d77b8cc9,2022-07-06_09h29.36.324,Colour_Asymmetry_Pilot,2022.1.3,Win32,59.64807635,62c50e9c1127f2cd403a315f,0,87,87,63,1,fourthree,,,,,,,,,,,,,,,,,,,,,,,,,,,,,,,,,,,,,,,,,,,,,,,,,,,,,,,,,,,,,,,,,,,,,,,,,,,,,,,,,,,,,,,,,,,,,,,,,,,,,,,,,,,,,,,,,,,,,,,,,,,,,,,,,,,,,,,,,,,,,,,,,,,,,,,,,,,,,
,,,,,,616fd6aac8d209bdcd631c2a,62c53964b92f20b2d77b8cc9,2022-07-06_09h29.36.324,Colour_Asymmetry_Pilot,2022.1.3,Win32,59.64807635,62c50e9c1127f2cd403a315f,0,88,88,17,1,onethree,,,,,,,,,,,,,,,,,,,,,,,,,,,,,,,,,,,,,,,,,,,,,,,,,,,,,,,,,,,,,,,,,,,,,,,,,,,,,,,,,,,,,,,,,,,,,,,,,,,,,,,,,,,,,,,,,,,,,,,,,,,,,,,,,,,,,,,,,,,,,,,,,,,,,,,,,,,,,
,,,,,,616fd6aac8d209bdcd631c2a,62c53964b92f20b2d77b8cc9,2022-07-06_09h29.36.324,Colour_Asymmetry_Pilot,2022.1.3,Win32,59.64807635,62c50e9c1127f2cd403a315f,0,89,89,114,1,twoone,,,,,,,,,,,,,,,,,,,,,,,,,,,,,,,,,,,,,,,,,,,,,,,,,,,,,,,,,,,,,,,,,,,,,,,,,,,,,,,,,,,,,,,,,,,,,,,,,,,,,,,,,,,,,,,,,,,,,,,,,,,,,,,,,,,,,,,,,,,,,,,,,,,,,,,,,,,,,
,,,,,,616fd6aac8d209bdcd631c2a,62c53964b92f20b2d77b8cc9,2022-07-06_09h29.36.324,Colour_Asymmetry_Pilot,2022.1.3,Win32,59.64807635,62c50e9c1127f2cd403a315f,0,90,90,120,1,onetwo,,,,,,,,,,,,,,,,,,,,,,,,,,,,,,,,,,,,,,,,,,,,,,,,,,,,,,,,,,,,,,,,,,,,,,,,,,,,,,,,,,,,,,,,,,,,,,,,,,,,,,,,,,,,,,,,,,,,,,,,,,,,,,,,,,,,,,,,,,,,,,,,,,,,,,,,,,,,,
,,,,,,616fd6aac8d209bdcd631c2a,62c53964b92f20b2d77b8cc9,2022-07-06_09h29.36.324,Colour_Asymmetry_Pilot,2022.1.3,Win32,59.64807635,62c50e9c1127f2cd403a315f,0,91,91,73,1,onethree,,,,,,,,,,,,,,,,,,,,,,,,,,,,,,,,,,,,,,,,,,,,,,,,,,,,,,,,,,,,,,,,,,,,,,,,,,,,,,,,,,,,,,,,,,,,,,,,,,,,,,,,,,,,,,,,,,,,,,,,,,,,,,,,,,,,,,,,,,,,,,,,,,,,,,,,,,,,,
,,,,,,616fd6aac8d209bdcd631c2a,62c53964b92f20b2d77b8cc9,2022-07-06_09h29.36.324,Colour_Asymmetry_Pilot,2022.1.3,Win32,59.64807635,62c50e9c1127f2cd403a315f,0,92,92,50,1,twoone,,,,,,,,,,,,,,,,,,,,,,,,,,,,,,,,,,,,,,,,,,,,,,,,,,,,,,,,,,,,,,,,,,,,,,,,,,,,,,,,,,,,,,,,,,,,,,,,,,,,,,,,,,,,,,,,,,,,,,,,,,,,,,,,,,,,,,,,,,,,,,,,,,,,,,,,,,,,,
,,,,,,616fd6aac8d209bdcd631c2a,62c53964b92f20b2d77b8cc9,2022-07-06_09h29.36.324,Colour_Asymmetry_Pilot,2022.1.3,Win32,59.64807635,62c50e9c1127f2cd403a315f,0,93,93,40,1,onetwo,,,,,,,,,,,,,,,,,,,,,,,,,,,,,,,,,,,,,,,,,,,,,,,,,,,,,,,,,,,,,,,,,,,,,,,,,,,,,,,,,,,,,,,,,,,,,,,,,,,,,,,,,,,,,,,,,,,,,,,,,,,,,,,,,,,,,,,,,,,,,,,,,,,,,,,,,,,,,
,,,,,,616fd6aac8d209bdcd631c2a,62c53964b92f20b2d77b8cc9,2022-07-06_09h29.36.324,Colour_Asymmetry_Pilot,2022.1.3,Win32,59.64807635,62c50e9c1127f2cd403a315f,0,94,94,77,1,threefour,,,,,,,,,,,,,,,,,,,,,,,,,,,,,,,,,,,,,,,,,,,,,,,,,,,,,,,,,,,,,,,,,,,,,,,,,,,,,,,,,,,,,,,,,,,,,,,,,,,,,,,,,,,,,,,,,,,,,,,,,,,,,,,,,,,,,,,,,,,,,,,,,,,,,,,,,,,,,
,,,,,,616fd6aac8d209bdcd631c2a,62c53964b92f20b2d77b8cc9,2022-07-06_09h29.36.324,Colour_Asymmetry_Pilot,2022.1.3,Win32,59.64807635,62c50e9c1127f2cd403a315f,0,95,95,39,1,fourthree,,,,,,,,,,,,,,,,,,,,,,,,,,,,,,,,,,,,,,,,,,,,,,,,,,,,,,,,,,,,,,,,,,,,,,,,,,,,,,,,,,,,,,,,,,,,,,,,,,,,,,,,,,,,,,,,,,,,,,,,,,,,,,,,,,,,,,,,,,,,,,,,,,,,,,,,,,,,,
,,,,,,616fd6aac8d209bdcd631c2a,62c53964b92f20b2d77b8cc9,2022-07-06_09h29.36.324,Colour_Asymmetry_Pilot,2022.1.3,Win32,59.64807635,62c50e9c1127f2cd403a315f,0,96,96,35,1,twofour,,,,,,,,,,,,,,,,,,,,,,,,,,,,,,,,,,,,,,,,,,,,,,,,,,,,,,,,,,,,,,,,,,,,,,,,,,,,,,,,,,,,,,,,,,,,,,,,,,,,,,,,,,,,,,,,,,,,,,,,,,,,,,,,,,,,,,,,,,,,,,,,,,,,,,,,,,,,,
,,,,,,616fd6aac8d209bdcd631c2a,62c53964b92f20b2d77b8cc9,2022-07-06_09h29.36.324,Colour_Asymmetry_Pilot,2022.1.3,Win32,59.64807635,62c50e9c1127f2cd403a315f,0,97,97,56,1,onetwo,,,,,,,,,,,,,,,,,,,,,,,,,,,,,,,,,,,,,,,,,,,,,,,,,,,,,,,,,,,,,,,,,,,,,,,,,,,,,,,,,,,,,,,,,,,,,,,,,,,,,,,,,,,,,,,,,,,,,,,,,,,,,,,,,,,,,,,,,,,,,,,,,,,,,,,,,,,,,
,,,,,,616fd6aac8d209bdcd631c2a,62c53964b92f20b2d77b8cc9,2022-07-06_09h29.36.324,Colour_Asymmetry_Pilot,2022.1.3,Win32,59.64807635,62c50e9c1127f2cd403a315f,0,98,98,161,1,onethree,,,,,,,,,,,,,,,,,,,,,,,,,,,,,,,,,,,,,,,,,,,,,,,,,,,,,,,,,,,,,,,,,,,,,,,,,,,,,,,,,,,,,,,,,,,,,,,,,,,,,,,,,,,,,,,,,,,,,,,,,,,,,,,,,,,,,,,,,,,,,,,,,,,,,,,,,,,,,
,,,,,,616fd6aac8d209bdcd631c2a,62c53964b92f20b2d77b8cc9,2022-07-06_09h29.36.324,Colour_Asymmetry_Pilot,2022.1.3,Win32,59.64807635,62c50e9c1127f2cd403a315f,0,99,99,65,1,onethree,,,,,,,,,,,,,,,,,,,,,,,,,,,,,,,,,,,,,,,,,,,,,,,,,,,,,,,,,,,,,,,,,,,,,,,,,,,,,,,,,,,,,,,,,,,,,,,,,,,,,,,,,,,,,,,,,,,,,,,,,,,,,,,,,,,,,,,,,,,,,,,,,,,,,,,,,,,,,
,,,,,,616fd6aac8d209bdcd631c2a,62c53964b92f20b2d77b8cc9,2022-07-06_09h29.36.324,Colour_Asymmetry_Pilot,2022.1.3,Win32,59.64807635,62c50e9c1127f2cd403a315f,0,100,100,128,1,onetwo,,,,,,,,,,,,,,,,,,,,,,,,,,,,,,,,,,,,,,,,,,,,,,,,,,,,,,,,,,,,,,,,,,,,,,,,,,,,,,,,,,,,,,,,,,,,,,,,,,,,,,,,,,,,,,,,,,,,,,,,,,,,,,,,,,,,,,,,,,,,,,,,,,,,,,,,,,,,,
,,,,,,616fd6aac8d209bdcd631c2a,62c53964b92f20b2d77b8cc9,2022-07-06_09h29.36.324,Colour_Asymmetry_Pilot,2022.1.3,Win32,59.64807635,62c50e9c1127f2cd403a315f,0,101,101,81,1,onethree,,,,,,,,,,,,,,,,,,,,,,,,,,,,,,,,,,,,,,,,,,,,,,,,,,,,,,,,,,,,,,,,,,,,,,,,,,,,,,,,,,,,,,,,,,,,,,,,,,,,,,,,,,,,,,,,,,,,,,,,,,,,,,,,,,,,,,,,,,,,,,,,,,,,,,,,,,,,,
,,,,,,616fd6aac8d209bdcd631c2a,62c53964b92f20b2d77b8cc9,2022-07-06_09h29.36.324,Colour_Asymmetry_Pilot,2022.1.3,Win32,59.64807635,62c50e9c1127f2cd403a315f,0,102,102,135,1,fourthree,,,,,,,,,,,,,,,,,,,,,,,,,,,,,,,,,,,,,,,,,,,,,,,,,,,,,,,,,,,,,,,,,,,,,,,,,,,,,,,,,,,,,,,,,,,,,,,,,,,,,,,,,,,,,,,,,,,,,,,,,,,,,,,,,,,,,,,,,,,,,,,,,,,,,,,,,,,,,
,,,,,,616fd6aac8d209bdcd631c2a,62c53964b92f20b2d77b8cc9,2022-07-06_09h29.36.324,Colour_Asymmetry_Pilot,2022.1.3,Win32,59.64807635,62c50e9c1127f2cd403a315f,0,103,103,28,1,threeone,,,,,,,,,,,,,,,,,,,,,,,,,,,,,,,,,,,,,,,,,,,,,,,,,,,,,,,,,,,,,,,,,,,,,,,,,,,,,,,,,,,,,,,,,,,,,,,,,,,,,,,,,,,,,,,,,,,,,,,,,,,,,,,,,,,,,,,,,,,,,,,,,,,,,,,,,,,,,
,,,,,,616fd6aac8d209bdcd631c2a,62c53964b92f20b2d77b8cc9,2022-07-06_09h29.36.324,Colour_Asymmetry_Pilot,2022.1.3,Win32,59.64807635,62c50e9c1127f2cd403a315f,0,104,104,62,1,fourtwo,,,,,,,,,,,,,,,,,,,,,,,,,,,,,,,,,,,,,,,,,,,,,,,,,,,,,,,,,,,,,,,,,,,,,,,,,,,,,,,,,,,,,,,,,,,,,,,,,,,,,,,,,,,,,,,,,,,,,,,,,,,,,,,,,,,,,,,,,,,,,,,,,,,,,,,,,,,,,
,,,,,,616fd6aac8d209bdcd631c2a,62c53964b92f20b2d77b8cc9,2022-07-06_09h29.36.324,Colour_Asymmetry_Pilot,2022.1.3,Win32,59.64807635,62c50e9c1127f2cd403a315f,0,105,105,79,1,fourthree,,,,,,,,,,,,,,,,,,,,,,,,,,,,,,,,,,,,,,,,,,,,,,,,,,,,,,,,,,,,,,,,,,,,,,,,,,,,,,,,,,,,,,,,,,,,,,,,,,,,,,,,,,,,,,,,,,,,,,,,,,,,,,,,,,,,,,,,,,,,,,,,,,,,,,,,,,,,,
,,,,,,616fd6aac8d209bdcd631c2a,62c53964b92f20b2d77b8cc9,2022-07-06_09h29.36.324,Colour_Asymmetry_Pilot,2022.1.3,Win32,59.64807635,62c50e9c1127f2cd403a315f,0,106,106,43,1,twofour,,,,,,,,,,,,,,,,,,,,,,,,,,,,,,,,,,,,,,,,,,,,,,,,,,,,,,,,,,,,,,,,,,,,,,,,,,,,,,,,,,,,,,,,,,,,,,,,,,,,,,,,,,,,,,,,,,,,,,,,,,,,,,,,,,,,,,,,,,,,,,,,,,,,,,,,,,,,,
,,,,,,616fd6aac8d209bdcd631c2a,62c53964b92f20b2d77b8cc9,2022-07-06_09h29.36.324,Colour_Asymmetry_Pilot,2022.1.3,Win32,59.64807635,62c50e9c1127f2cd403a315f,0,107,107,82,1,twoone,,,,,,,,,,,,,,,,,,,,,,,,,,,,,,,,,,,,,,,,,,,,,,,,,,,,,,,,,,,,,,,,,,,,,,,,,,,,,,,,,,,,,,,,,,,,,,,,,,,,,,,,,,,,,,,,,,,,,,,,,,,,,,,,,,,,,,,,,,,,,,,,,,,,,,,,,,,,,
,,,,,,616fd6aac8d209bdcd631c2a,62c53964b92f20b2d77b8cc9,2022-07-06_09h29.36.324,Colour_Asymmetry_Pilot,2022.1.3,Win32,59.64807635,62c50e9c1127f2cd403a315f,0,108,108,148,1,threeone,,,,,,,,,,,,,,,,,,,,,,,,,,,,,,,,,,,,,,,,,,,,,,,,,,,,,,,,,,,,,,,,,,,,,,,,,,,,,,,,,,,,,,,,,,,,,,,,,,,,,,,,,,,,,,,,,,,,,,,,,,,,,,,,,,,,,,,,,,,,,,,,,,,,,,,,,,,,,
,,,,,,616fd6aac8d209bdcd631c2a,62c53964b92f20b2d77b8cc9,2022-07-06_09h29.36.324,Colour_Asymmetry_Pilot,2022.1.3,Win32,59.64807635,62c50e9c1127f2cd403a315f,0,109,109,69,1,threefour,,,,,,,,,,,,,,,,,,,,,,,,,,,,,,,,,,,,,,,,,,,,,,,,,,,,,,,,,,,,,,,,,,,,,,,,,,,,,,,,,,,,,,,,,,,,,,,,,,,,,,,,,,,,,,,,,,,,,,,,,,,,,,,,,,,,,,,,,,,,,,,,,,,,,,,,,,,,,
,,,,,,616fd6aac8d209bdcd631c2a,62c53964b92f20b2d77b8cc9,2022-07-06_09h29.36.324,Colour_Asymmetry_Pilot,2022.1.3,Win32,59.64807635,62c50e9c1127f2cd403a315f,0,110,110,84,1,threeone,,,,,,,,,,,,,,,,,,,,,,,,,,,,,,,,,,,,,,,,,,,,,,,,,,,,,,,,,,,,,,,,,,,,,,,,,,,,,,,,,,,,,,,,,,,,,,,,,,,,,,,,,,,,,,,,,,,,,,,,,,,,,,,,,,,,,,,,,,,,,,,,,,,,,,,,,,,,,
,,,,,,616fd6aac8d209bdcd631c2a,62c53964b92f20b2d77b8cc9,2022-07-06_09h29.36.324,Colour_Asymmetry_Pilot,2022.1.3,Win32,59.64807635,62c50e9c1127f2cd403a315f,0,111,111,105,1,onethree,,,,,,,,,,,,,,,,,,,,,,,,,,,,,,,,,,,,,,,,,,,,,,,,,,,,,,,,,,,,,,,,,,,,,,,,,,,,,,,,,,,,,,,,,,,,,,,,,,,,,,,,,,,,,,,,,,,,,,,,,,,,,,,,,,,,,,,,,,,,,,,,,,,,,,,,,,,,,
,,,,,,616fd6aac8d209bdcd631c2a,62c53964b92f20b2d77b8cc9,2022-07-06_09h29.36.324,Colour_Asymmetry_Pilot,2022.1.3,Win32,59.64807635,62c50e9c1127f2cd403a315f,0,112,112,18,1,twoone,,,,,,,,,,,,,,,,,,,,,,,,,,,,,,,,,,,,,,,,,,,,,,,,,,,,,,,,,,,,,,,,,,,,,,,,,,,,,,,,,,,,,,,,,,,,,,,,,,,,,,,,,,,,,,,,,,,,,,,,,,,,,,,,,,,,,,,,,,,,,,,,,,,,,,,,,,,,,
,,,,,,616fd6aac8d209bdcd631c2a,62c53964b92f20b2d77b8cc9,2022-07-06_09h29.36.324,Colour_Asymmetry_Pilot,2022.1.3,Win32,59.64807635,62c50e9c1127f2cd403a315f,0,113,113,108,1,threeone,,,,,,,,,,,,,,,,,,,,,,,,,,,,,,,,,,,,,,,,,,,,,,,,,,,,,,,,,,,,,,,,,,,,,,,,,,,,,,,,,,,,,,,,,,,,,,,,,,,,,,,,,,,,,,,,,,,,,,,,,,,,,,,,,,,,,,,,,,,,,,,,,,,,,,,,,,,,,
,,,,,,616fd6aac8d209bdcd631c2a,62c53964b92f20b2d77b8cc9,2022-07-06_09h29.36.324,Colour_Asymmetry_Pilot,2022.1.3,Win32,59.64807635,62c50e9c1127f2cd403a315f,0,114,114,72,1,onetwo,,,,,,,,,,,,,,,,,,,,,,,,,,,,,,,,,,,,,,,,,,,,,,,,,,,,,,,,,,,,,,,,,,,,,,,,,,,,,,,,,,,,,,,,,,,,,,,,,,,,,,,,,,,,,,,,,,,,,,,,,,,,,,,,,,,,,,,,,,,,,,,,,,,,,,,,,,,,,
,,,,,,616fd6aac8d209bdcd631c2a,62c53964b92f20b2d77b8cc9,2022-07-06_09h29.36.324,Colour_Asymmetry_Pilot,2022.1.3,Win32,59.64807635,62c50e9c1127f2cd403a315f,0,115,115,29,1,threefour,,,,,,,,,,,,,,,,,,,,,,,,,,,,,,,,,,,,,,,,,,,,,,,,,,,,,,,,,,,,,,,,,,,,,,,,,,,,,,,,,,,,,,,,,,,,,,,,,,,,,,,,,,,,,,,,,,,,,,,,,,,,,,,,,,,,,,,,,,,,,,,,,,,,,,,,,,,,,
,,,,,,616fd6aac8d209bdcd631c2a,62c53964b92f20b2d77b8cc9,2022-07-06_09h29.36.324,Colour_Asymmetry_Pilot,2022.1.3,Win32,59.64807635,62c50e9c1127f2cd403a315f,0,116,116,3,1,twofour,,,,,,,,,,,,,,,,,,,,,,,,,,,,,,,,,,,,,,,,,,,,,,,,,,,,,,,,,,,,,,,,,,,,,,,,,,,,,,,,,,,,,,,,,,,,,,,,,,,,,,,,,,,,,,,,,,,,,,,,,,,,,,,,,,,,,,,,,,,,,,,,,,,,,,,,,,,,,
,,,,,,616fd6aac8d209bdcd631c2a,62c53964b92f20b2d77b8cc9,2022-07-06_09h29.36.324,Colour_Asymmetry_Pilot,2022.1.3,Win32,59.64807635,62c50e9c1127f2cd403a315f,0,117,117,160,1,onetwo,,,,,,,,,,,,,,,,,,,,,,,,,,,,,,,,,,,,,,,,,,,,,,,,,,,,,,,,,,,,,,,,,,,,,,,,,,,,,,,,,,,,,,,,,,,,,,,,,,,,,,,,,,,,,,,,,,,,,,,,,,,,,,,,,,,,,,,,,,,,,,,,,,,,,,,,,,,,,
,,,,,,616fd6aac8d209bdcd631c2a,62c53964b92f20b2d77b8cc9,2022-07-06_09h29.36.324,Colour_Asymmetry_Pilot,2022.1.3,Win32,59.64807635,62c50e9c1127f2cd403a315f,0,118,118,70,1,fourtwo,,,,,,,,,,,,,,,,,,,,,,,,,,,,,,,,,,,,,,,,,,,,,,,,,,,,,,,,,,,,,,,,,,,,,,,,,,,,,,,,,,,,,,,,,,,,,,,,,,,,,,,,,,,,,,,,,,,,,,,,,,,,,,,,,,,,,,,,,,,,,,,,,,,,,,,,,,,,,
,,,,,,616fd6aac8d209bdcd631c2a,62c53964b92f20b2d77b8cc9,2022-07-06_09h29.36.324,Colour_Asymmetry_Pilot,2022.1.3,Win32,59.64807635,62c50e9c1127f2cd403a315f,0,119,119,159,1,fourthree,,,,,,,,,,,,,,,,,,,,,,,,,,,,,,,,,,,,,,,,,,,,,,,,,,,,,,,,,,,,,,,,,,,,,,,,,,,,,,,,,,,,,,,,,,,,,,,,,,,,,,,,,,,,,,,,,,,,,,,,,,,,,,,,,,,,,,,,,,,,,,,,,,,,,,,,,,,,,
,,,,,,616fd6aac8d209bdcd631c2a,62c53964b92f20b2d77b8cc9,2022-07-06_09h29.36.324,Colour_Asymmetry_Pilot,2022.1.3,Win32,59.64807635,62c50e9c1127f2cd403a315f,0,120,120,142,1,fourtwo,,,,,,,,,,,,,,,,,,,,,,,,,,,,,,,,,,,,,,,,,,,,,,,,,,,,,,,,,,,,,,,,,,,,,,,,,,,,,,,,,,,,,,,,,,,,,,,,,,,,,,,,,,,,,,,,,,,,,,,,,,,,,,,,,,,,,,,,,,,,,,,,,,,,,,,,,,,,,
,,,,,,616fd6aac8d209bdcd631c2a,62c53964b92f20b2d77b8cc9,2022-07-06_09h29.36.324,Colour_Asymmetry_Pilot,2022.1.3,Win32,59.64807635,62c50e9c1127f2cd403a315f,0,121,121,46,1,fourtwo,,,,,,,,,,,,,,,,,,,,,,,,,,,,,,,,,,,,,,,,,,,,,,,,,,,,,,,,,,,,,,,,,,,,,,,,,,,,,,,,,,,,,,,,,,,,,,,,,,,,,,,,,,,,,,,,,,,,,,,,,,,,,,,,,,,,,,,,,,,,,,,,,,,,,,,,,,,,,
,,,,,,616fd6aac8d209bdcd631c2a,62c53964b92f20b2d77b8cc9,2022-07-06_09h29.36.324,Colour_Asymmetry_Pilot,2022.1.3,Win32,59.64807635,62c50e9c1127f2cd403a315f,0,122,122,6,1,fourtwo,,,,,,,,,,,,,,,,,,,,,,,,,,,,,,,,,,,,,,,,,,,,,,,,,,,,,,,,,,,,,,,,,,,,,,,,,,,,,,,,,,,,,,,,,,,,,,,,,,,,,,,,,,,,,,,,,,,,,,,,,,,,,,,,,,,,,,,,,,,,,,,,,,,,,,,,,,,,,
,,,,,,616fd6aac8d209bdcd631c2a,62c53964b92f20b2d77b8cc9,2022-07-06_09h29.36.324,Colour_Asymmetry_Pilot,2022.1.3,Win32,59.64807635,62c50e9c1127f2cd403a315f,0,123,123,87,1,fourthree,,,,,,,,,,,,,,,,,,,,,,,,,,,,,,,,,,,,,,,,,,,,,,,,,,,,,,,,,,,,,,,,,,,,,,,,,,,,,,,,,,,,,,,,,,,,,,,,,,,,,,,,,,,,,,,,,,,,,,,,,,,,,,,,,,,,,,,,,,,,,,,,,,,,,,,,,,,,,
,,,,,,616fd6aac8d209bdcd631c2a,62c53964b92f20b2d77b8cc9,2022-07-06_09h29.36.324,Colour_Asymmetry_Pilot,2022.1.3,Win32,59.64807635,62c50e9c1127f2cd403a315f,0,124,124,26,1,twoone,,,,,,,,,,,,,,,,,,,,,,,,,,,,,,,,,,,,,,,,,,,,,,,,,,,,,,,,,,,,,,,,,,,,,,,,,,,,,,,,,,,,,,,,,,,,,,,,,,,,,,,,,,,,,,,,,,,,,,,,,,,,,,,,,,,,,,,,,,,,,,,,,,,,,,,,,,,,,
,,,,,,616fd6aac8d209bdcd631c2a,62c53964b92f20b2d77b8cc9,2022-07-06_09h29.36.324,Colour_Asymmetry_Pilot,2022.1.3,Win32,59.64807635,62c50e9c1127f2cd403a315f,0,125,125,143,1,fourthree,,,,,,,,,,,,,,,,,,,,,,,,,,,,,,,,,,,,,,,,,,,,,,,,,,,,,,,,,,,,,,,,,,,,,,,,,,,,,,,,,,,,,,,,,,,,,,,,,,,,,,,,,,,,,,,,,,,,,,,,,,,,,,,,,,,,,,,,,,,,,,,,,,,,,,,,,,,,,
,,,,,,616fd6aac8d209bdcd631c2a,62c53964b92f20b2d77b8cc9,2022-07-06_09h29.36.324,Colour_Asymmetry_Pilot,2022.1.3,Win32,59.64807635,62c50e9c1127f2cd403a315f,0,126,126,16,1,onetwo,,,,,,,,,,,,,,,,,,,,,,,,,,,,,,,,,,,,,,,,,,,,,,,,,,,,,,,,,,,,,,,,,,,,,,,,,,,,,,,,,,,,,,,,,,,,,,,,,,,,,,,,,,,,,,,,,,,,,,,,,,,,,,,,,,,,,,,,,,,,,,,,,,,,,,,,,,,,,
,,,,,,616fd6aac8d209bdcd631c2a,62c53964b92f20b2d77b8cc9,2022-07-06_09h29.36.324,Colour_Asymmetry_Pilot,2022.1.3,Win32,59.64807635,62c50e9c1127f2cd403a315f,0,127,127,111,1,fourthree,,,,,,,,,,,,,,,,,,,,,,,,,,,,,,,,,,,,,,,,,,,,,,,,,,,,,,,,,,,,,,,,,,,,,,,,,,,,,,,,,,,,,,,,,,,,,,,,,,,,,,,,,,,,,,,,,,,,,,,,,,,,,,,,,,,,,,,,,,,,,,,,,,,,,,,,,,,,,
,,,,,,616fd6aac8d209bdcd631c2a,62c53964b92f20b2d77b8cc9,2022-07-06_09h29.36.324,Colour_Asymmetry_Pilot,2022.1.3,Win32,59.64807635,62c50e9c1127f2cd403a315f,0,128,128,11,1,twofour,,,,,,,,,,,,,,,,,,,,,,,,,,,,,,,,,,,,,,,,,,,,,,,,,,,,,,,,,,,,,,,,,,,,,,,,,,,,,,,,,,,,,,,,,,,,,,,,,,,,,,,,,,,,,,,,,,,,,,,,,,,,,,,,,,,,,,,,,,,,,,,,,,,,,,,,,,,,,
,,,,,,616fd6aac8d209bdcd631c2a,62c53964b92f20b2d77b8cc9,2022-07-06_09h29.36.324,Colour_Asymmetry_Pilot,2022.1.3,Win32,59.64807635,62c50e9c1127f2cd403a315f,0,129,129,126,1,fourtwo,,,,,,,,,,,,,,,,,,,,,,,,,,,,,,,,,,,,,,,,,,,,,,,,,,,,,,,,,,,,,,,,,,,,,,,,,,,,,,,,,,,,,,,,,,,,,,,,,,,,,,,,,,,,,,,,,,,,,,,,,,,,,,,,,,,,,,,,,,,,,,,,,,,,,,,,,,,,,
,,,,,,616fd6aac8d209bdcd631c2a,62c53964b92f20b2d77b8cc9,2022-07-06_09h29.36.324,Colour_Asymmetry_Pilot,2022.1.3,Win32,59.64807635,62c50e9c1127f2cd403a315f,0,130,130,88,1,onetwo,,,,,,,,,,,,,,,,,,,,,,,,,,,,,,,,,,,,,,,,,,,,,,,,,,,,,,,,,,,,,,,,,,,,,,,,,,,,,,,,,,,,,,,,,,,,,,,,,,,,,,,,,,,,,,,,,,,,,,,,,,,,,,,,,,,,,,,,,,,,,,,,,,,,,,,,,,,,,
,,,,,,616fd6aac8d209bdcd631c2a,62c53964b92f20b2d77b8cc9,2022-07-06_09h29.36.324,Colour_Asymmetry_Pilot,2022.1.3,Win32,59.64807635,62c50e9c1127f2cd403a315f,0,131,131,152,1,onetwo,,,,,,,,,,,,,,,,,,,,,,,,,,,,,,,,,,,,,,,,,,,,,,,,,,,,,,,,,,,,,,,,,,,,,,,,,,,,,,,,,,,,,,,,,,,,,,,,,,,,,,,,,,,,,,,,,,,,,,,,,,,,,,,,,,,,,,,,,,,,,,,,,,,,,,,,,,,,,
,,,,,,616fd6aac8d209bdcd631c2a,62c53964b92f20b2d77b8cc9,2022-07-06_09h29.36.324,Colour_Asymmetry_Pilot,2022.1.3,Win32,59.64807635,62c50e9c1127f2cd403a315f,0,132,132,52,1,threeone,,,,,,,,,,,,,,,,,,,,,,,,,,,,,,,,,,,,,,,,,,,,,,,,,,,,,,,,,,,,,,,,,,,,,,,,,,,,,,,,,,,,,,,,,,,,,,,,,,,,,,,,,,,,,,,,,,,,,,,,,,,,,,,,,,,,,,,,,,,,,,,,,,,,,,,,,,,,,
,,,,,,616fd6aac8d209bdcd631c2a,62c53964b92f20b2d77b8cc9,2022-07-06_09h29.36.324,Colour_Asymmetry_Pilot,2022.1.3,Win32,59.64807635,62c50e9c1127f2cd403a315f,0,133,133,112,1,onetwo,,,,,,,,,,,,,,,,,,,,,,,,,,,,,,,,,,,,,,,,,,,,,,,,,,,,,,,,,,,,,,,,,,,,,,,,,,,,,,,,,,,,,,,,,,,,,,,,,,,,,,,,,,,,,,,,,,,,,,,,,,,,,,,,,,,,,,,,,,,,,,,,,,,,,,,,,,,,,
,,,,,,616fd6aac8d209bdcd631c2a,62c53964b92f20b2d77b8cc9,2022-07-06_09h29.36.324,Colour_Asymmetry_Pilot,2022.1.3,Win32,59.64807635,62c50e9c1127f2cd403a315f,0,134,134,76,1,threeone,,,,,,,,,,,,,,,,,,,,,,,,,,,,,,,,,,,,,,,,,,,,,,,,,,,,,,,,,,,,,,,,,,,,,,,,,,,,,,,,,,,,,,,,,,,,,,,,,,,,,,,,,,,,,,,,,,,,,,,,,,,,,,,,,,,,,,,,,,,,,,,,,,,,,,,,,,,,,
,,,,,,616fd6aac8d209bdcd631c2a,62c53964b92f20b2d77b8cc9,2022-07-06_09h29.36.324,Colour_Asymmetry_Pilot,2022.1.3,Win32,59.64807635,62c50e9c1127f2cd403a315f,0,135,135,13,1,threefour,,,,,,,,,,,,,,,,,,,,,,,,,,,,,,,,,,,,,,,,,,,,,,,,,,,,,,,,,,,,,,,,,,,,,,,,,,,,,,,,,,,,,,,,,,,,,,,,,,,,,,,,,,,,,,,,,,,,,,,,,,,,,,,,,,,,,,,,,,,,,,,,,,,,,,,,,,,,,
,,,,,,616fd6aac8d209bdcd631c2a,62c53964b92f20b2d77b8cc9,2022-07-06_09h29.36.324,Colour_Asymmetry_Pilot,2022.1.3,Win32,59.64807635,62c50e9c1127f2cd403a315f,0,136,136,86,1,fourtwo,,,,,,,,,,,,,,,,,,,,,,,,,,,,,,,,,,,,,,,,,,,,,,,,,,,,,,,,,,,,,,,,,,,,,,,,,,,,,,,,,,,,,,,,,,,,,,,,,,,,,,,,,,,,,,,,,,,,,,,,,,,,,,,,,,,,,,,,,,,,,,,,,,,,,,,,,,,,,
,,,,,,616fd6aac8d209bdcd631c2a,62c53964b92f20b2d77b8cc9,2022-07-06_09h29.36.324,Colour_Asymmetry_Pilot,2022.1.3,Win32,59.64807635,62c50e9c1127f2cd403a315f,0,137,137,68,1,threeone,,,,,,,,,,,,,,,,,,,,,,,,,,,,,,,,,,,,,,,,,,,,,,,,,,,,,,,,,,,,,,,,,,,,,,,,,,,,,,,,,,,,,,,,,,,,,,,,,,,,,,,,,,,,,,,,,,,,,,,,,,,,,,,,,,,,,,,,,,,,,,,,,,,,,,,,,,,,,
,,,,,,616fd6aac8d209bdcd631c2a,62c53964b92f20b2d77b8cc9,2022-07-06_09h29.36.324,Colour_Asymmetry_Pilot,2022.1.3,Win32,59.64807635,62c50e9c1127f2cd403a315f,0,138,138,155,1,twofour,,,,,,,,,,,,,,,,,,,,,,,,,,,,,,,,,,,,,,,,,,,,,,,,,,,,,,,,,,,,,,,,,,,,,,,,,,,,,,,,,,,,,,,,,,,,,,,,,,,,,,,,,,,,,,,,,,,,,,,,,,,,,,,,,,,,,,,,,,,,,,,,,,,,,,,,,,,,,
,,,,,,616fd6aac8d209bdcd631c2a,62c53964b92f20b2d77b8cc9,2022-07-06_09h29.36.324,Colour_Asymmetry_Pilot,2022.1.3,Win32,59.64807635,62c50e9c1127f2cd403a315f,0,139,139,98,1,twoone,,,,,,,,,,,,,,,,,,,,,,,,,,,,,,,,,,,,,,,,,,,,,,,,,,,,,,,,,,,,,,,,,,,,,,,,,,,,,,,,,,,,,,,,,,,,,,,,,,,,,,,,,,,,,,,,,,,,,,,,,,,,,,,,,,,,,,,,,,,,,,,,,,,,,,,,,,,,,
,,,,,,616fd6aac8d209bdcd631c2a,62c53964b92f20b2d77b8cc9,2022-07-06_09h29.36.324,Colour_Asymmetry_Pilot,2022.1.3,Win32,59.64807635,62c50e9c1127f2cd403a315f,0,140,140,22,1,fourtwo,,,,,,,,,,,,,,,,,,,,,,,,,,,,,,,,,,,,,,,,,,,,,,,,,,,,,,,,,,,,,,,,,,,,,,,,,,,,,,,,,,,,,,,,,,,,,,,,,,,,,,,,,,,,,,,,,,,,,,,,,,,,,,,,,,,,,,,,,,,,,,,,,,,,,,,,,,,,,
,,,,,,616fd6aac8d209bdcd631c2a,62c53964b92f20b2d77b8cc9,2022-07-06_09h29.36.324,Colour_Asymmetry_Pilot,2022.1.3,Win32,59.64807635,62c50e9c1127f2cd403a315f,0,141,141,58,1,twoone,,,,,,,,,,,,,,,,,,,,,,,,,,,,,,,,,,,,,,,,,,,,,,,,,,,,,,,,,,,,,,,,,,,,,,,,,,,,,,,,,,,,,,,,,,,,,,,,,,,,,,,,,,,,,,,,,,,,,,,,,,,,,,,,,,,,,,,,,,,,,,,,,,,,,,,,,,,,,
,,,,,,616fd6aac8d209bdcd631c2a,62c53964b92f20b2d77b8cc9,2022-07-06_09h29.36.324,Colour_Asymmetry_Pilot,2022.1.3,Win32,59.64807635,62c50e9c1127f2cd403a315f,0,142,142,104,1,onetwo,,,,,,,,,,,,,,,,,,,,,,,,,,,,,,,,,,,,,,,,,,,,,,,,,,,,,,,,,,,,,,,,,,,,,,,,,,,,,,,,,,,,,,,,,,,,,,,,,,,,,,,,,,,,,,,,,,,,,,,,,,,,,,,,,,,,,,,,,,,,,,,,,,,,,,,,,,,,,
,,,,,,616fd6aac8d209bdcd631c2a,62c53964b92f20b2d77b8cc9,2022-07-06_09h29.36.324,Colour_Asymmetry_Pilot,2022.1.3,Win32,59.64807635,62c50e9c1127f2cd403a315f,0,143,143,140,1,threeone,,,,,,,,,,,,,,,,,,,,,,,,,,,,,,,,,,,,,,,,,,,,,,,,,,,,,,,,,,,,,,,,,,,,,,,,,,,,,,,,,,,,,,,,,,,,,,,,,,,,,,,,,,,,,,,,,,,,,,,,,,,,,,,,,,,,,,,,,,,,,,,,,,,,,,,,,,,,,
,,,,,,616fd6aac8d209bdcd631c2a,62c53964b92f20b2d77b8cc9,2022-07-06_09h29.36.324,Colour_Asymmetry_Pilot,2022.1.3,Win32,59.64807635,62c50e9c1127f2cd403a315f,0,144,144,101,1,threefour,,,,,,,,,,,,,,,,,,,,,,,,,,,,,,,,,,,,,,,,,,,,,,,,,,,,,,,,,,,,,,,,,,,,,,,,,,,,,,,,,,,,,,,,,,,,,,,,,,,,,,,,,,,,,,,,,,,,,,,,,,,,,,,,,,,,,,,,,,,,,,,,,,,,,,,,,,,,,
,,,,,,616fd6aac8d209bdcd631c2a,62c53964b92f20b2d77b8cc9,2022-07-06_09h29.36.324,Colour_Asymmetry_Pilot,2022.1.3,Win32,59.64807635,62c50e9c1127f2cd403a315f,0,145,145,96,1,onetwo,,,,,,,,,,,,,,,,,,,,,,,,,,,,,,,,,,,,,,,,,,,,,,,,,,,,,,,,,,,,,,,,,,,,,,,,,,,,,,,,,,,,,,,,,,,,,,,,,,,,,,,,,,,,,,,,,,,,,,,,,,,,,,,,,,,,,,,,,,,,,,,,,,,,,,,,,,,,,
,,,,,,616fd6aac8d209bdcd631c2a,62c53964b92f20b2d77b8cc9,2022-07-06_09h29.36.324,Colour_Asymmetry_Pilot,2022.1.3,Win32,59.64807635,62c50e9c1127f2cd403a315f,0,146,146,45,1,threefour,,,,,,,,,,,,,,,,,,,,,,,,,,,,,,,,,,,,,,,,,,,,,,,,,,,,,,,,,,,,,,,,,,,,,,,,,,,,,,,,,,,,,,,,,,,,,,,,,,,,,,,,,,,,,,,,,,,,,,,,,,,,,,,,,,,,,,,,,,,,,,,,,,,,,,,,,,,,,
,,,,,,616fd6aac8d209bdcd631c2a,62c53964b92f20b2d77b8cc9,2022-07-06_09h29.36.324,Colour_Asymmetry_Pilot,2022.1.3,Win32,59.64807635,62c50e9c1127f2cd403a315f,0,147,147,75,1,twofour,,,,,,,,,,,,,,,,,,,,,,,,,,,,,,,,,,,,,,,,,,,,,,,,,,,,,,,,,,,,,,,,,,,,,,,,,,,,,,,,,,,,,,,,,,,,,,,,,,,,,,,,,,,,,,,,,,,,,,,,,,,,,,,,,,,,,,,,,,,,,,,,,,,,,,,,,,,,,
,,,,,,616fd6aac8d209bdcd631c2a,62c53964b92f20b2d77b8cc9,2022-07-06_09h29.36.324,Colour_Asymmetry_Pilot,2022.1.3,Win32,59.64807635,62c50e9c1127f2cd403a315f,0,148,148,139,1,twofour,,,,,,,,,,,,,,,,,,,,,,,,,,,,,,,,,,,,,,,,,,,,,,,,,,,,,,,,,,,,,,,,,,,,,,,,,,,,,,,,,,,,,,,,,,,,,,,,,,,,,,,,,,,,,,,,,,,,,,,,,,,,,,,,,,,,,,,,,,,,,,,,,,,,,,,,,,,,,
,,,,,,616fd6aac8d209bdcd631c2a,62c53964b92f20b2d77b8cc9,2022-07-06_09h29.36.324,Colour_Asymmetry_Pilot,2022.1.3,Win32,59.64807635,62c50e9c1127f2cd403a315f,0,149,149,100,1,threeone,,,,,,,,,,,,,,,,,,,,,,,,,,,,,,,,,,,,,,,,,,,,,,,,,,,,,,,,,,,,,,,,,,,,,,,,,,,,,,,,,,,,,,,,,,,,,,,,,,,,,,,,,,,,,,,,,,,,,,,,,,,,,,,,,,,,,,,,,,,,,,,,,,,,,,,,,,,,,
,,,,,,616fd6aac8d209bdcd631c2a,62c53964b92f20b2d77b8cc9,2022-07-06_09h29.36.324,Colour_Asymmetry_Pilot,2022.1.3,Win32,59.64807635,62c50e9c1127f2cd403a315f,0,150,150,158,1,fourtwo,,,,,,,,,,,,,,,,,,,,,,,,,,,,,,,,,,,,,,,,,,,,,,,,,,,,,,,,,,,,,,,,,,,,,,,,,,,,,,,,,,,,,,,,,,,,,,,,,,,,,,,,,,,,,,,,,,,,,,,,,,,,,,,,,,,,,,,,,,,,,,,,,,,,,,,,,,,,,
,,,,,,616fd6aac8d209bdcd631c2a,62c53964b92f20b2d77b8cc9,2022-07-06_09h29.36.324,Colour_Asymmetry_Pilot,2022.1.3,Win32,59.64807635,62c50e9c1127f2cd403a315f,0,151,151,47,1,fourthree,,,,,,,,,,,,,,,,,,,,,,,,,,,,,,,,,,,,,,,,,,,,,,,,,,,,,,,,,,,,,,,,,,,,,,,,,,,,,,,,,,,,,,,,,,,,,,,,,,,,,,,,,,,,,,,,,,,,,,,,,,,,,,,,,,,,,,,,,,,,,,,,,,,,,,,,,,,,,
,,,,,,616fd6aac8d209bdcd631c2a,62c53964b92f20b2d77b8cc9,2022-07-06_09h29.36.324,Colour_Asymmetry_Pilot,2022.1.3,Win32,59.64807635,62c50e9c1127f2cd403a315f,0,152,152,7,1,fourthree,,,,,,,,,,,,,,,,,,,,,,,,,,,,,,,,,,,,,,,,,,,,,,,,,,,,,,,,,,,,,,,,,,,,,,,,,,,,,,,,,,,,,,,,,,,,,,,,,,,,,,,,,,,,,,,,,,,,,,,,,,,,,,,,,,,,,,,,,,,,,,,,,,,,,,,,,,,,,
,,,,,,616fd6aac8d209bdcd631c2a,62c53964b92f20b2d77b8cc9,2022-07-06_09h29.36.324,Colour_Asymmetry_Pilot,2022.1.3,Win32,59.64807635,62c50e9c1127f2cd403a315f,0,153,153,156,1,threeone,,,,,,,,,,,,,,,,,,,,,,,,,,,,,,,,,,,,,,,,,,,,,,,,,,,,,,,,,,,,,,,,,,,,,,,,,,,,,,,,,,,,,,,,,,,,,,,,,,,,,,,,,,,,,,,,,,,,,,,,,,,,,,,,,,,,,,,,,,,,,,,,,,,,,,,,,,,,,
,,,,,,616fd6aac8d209bdcd631c2a,62c53964b92f20b2d77b8cc9,2022-07-06_09h29.36.324,Colour_Asymmetry_Pilot,2022.1.3,Win32,59.64807635,62c50e9c1127f2cd403a315f,0,154,154,154,1,twoone,,,,,,,,,,,,,,,,,,,,,,,,,,,,,,,,,,,,,,,,,,,,,,,,,,,,,,,,,,,,,,,,,,,,,,,,,,,,,,,,,,,,,,,,,,,,,,,,,,,,,,,,,,,,,,,,,,,,,,,,,,,,,,,,,,,,,,,,,,,,,,,,,,,,,,,,,,,,,
,,,,,,616fd6aac8d209bdcd631c2a,62c53964b92f20b2d77b8cc9,2022-07-06_09h29.36.324,Colour_Asymmetry_Pilot,2022.1.3,Win32,59.64807635,62c50e9c1127f2cd403a315f,0,155,155,1,1,onethree,,,,,,,,,,,,,,,,,,,,,,,,,,,,,,,,,,,,,,,,,,,,,,,,,,,,,,,,,,,,,,,,,,,,,,,,,,,,,,,,,,,,,,,,,,,,,,,,,,,,,,,,,,,,,,,,,,,,,,,,,,,,,,,,,,,,,,,,,,,,,,,,,,,,,,,,,,,,,
,,,,,,616fd6aac8d209bdcd631c2a,62c53964b92f20b2d77b8cc9,2022-07-06_09h29.36.324,Colour_Asymmetry_Pilot,2022.1.3,Win32,59.64807635,62c50e9c1127f2cd403a315f,0,156,156,71,1,fourthree,,,,,,,,,,,,,,,,,,,,,,,,,,,,,,,,,,,,,,,,,,,,,,,,,,,,,,,,,,,,,,,,,,,,,,,,,,,,,,,,,,,,,,,,,,,,,,,,,,,,,,,,,,,,,,,,,,,,,,,,,,,,,,,,,,,,,,,,,,,,,,,,,,,,,,,,,,,,,
,,,,,,616fd6aac8d209bdcd631c2a,62c53964b92f20b2d77b8cc9,2022-07-06_09h29.36.324,Colour_Asymmetry_Pilot,2022.1.3,Win32,59.64807635,62c50e9c1127f2cd403a315f,0,157,157,127,1,fourthree,,,,,,,,,,,,,,,,,,,,,,,,,,,,,,,,,,,,,,,,,,,,,,,,,,,,,,,,,,,,,,,,,,,,,,,,,,,,,,,,,,,,,,,,,,,,,,,,,,,,,,,,,,,,,,,,,,,,,,,,,,,,,,,,,,,,,,,,,,,,,,,,,,,,,,,,,,,,,
,,,,,,616fd6aac8d209bdcd631c2a,62c53964b92f20b2d77b8cc9,2022-07-06_09h29.36.324,Colour_Asymmetry_Pilot,2022.1.3,Win32,59.64807635,62c50e9c1127f2cd403a315f,0,158,158,55,1,fourthree,,,,,,,,,,,,,,,,,,,,,,,,,,,,,,,,,,,,,,,,,,,,,,,,,,,,,,,,,,,,,,,,,,,,,,,,,,,,,,,,,,,,,,,,,,,,,,,,,,,,,,,,,,,,,,,,,,,,,,,,,,,,,,,,,,,,,,,,,,,,,,,,,,,,,,,,,,,,,
,,,,,,616fd6aac8d209bdcd631c2a,62c53964b92f20b2d77b8cc9,2022-07-06_09h29.36.324,Colour_Asymmetry_Pilot,2022.1.3,Win32,59.64807635,62c50e9c1127f2cd403a315f,0,159,159,85,1,threefour,,,,,,,,,,,,,,,,,,,,,,,,,,,,,,,,,,,,,,,,,,,,,,,,,,,,,,,,,,,,,,,,,,,,,,,,,,,,,,,,,,,,,,,,,,,,,,,,,,,,,,,,,,,,,,,,,,,,,,,,,,,,,,,,,,,,,,,,,,,,,,,,,,,,,,,,,,,,,
,,,,,,616fd6aac8d209bdcd631c2a,62c53964b92f20b2d77b8cc9,2022-07-06_09h29.36.324,Colour_Asymmetry_Pilot,2022.1.3,Win32,59.64807635,62c50e9c1127f2cd403a315f,0,160,160,34,1,twoone,,,,,,,,,,,,,,,,,,,,,,,,,,,,,,,,,,,,,,,,,,,,,,,,,,,,,,,,,,,,,,,,,,,,,,,,,,,,,,,,,,,,,,,,,,,,,,,,,,,,,,,,,,,,,,,,,,,,,,,,,,,,,,,,,,,,,,,,,,,,,,,,,,,,,,,,,,,,,
,,,,,,616fd6aac8d209bdcd631c2a,62c53964b92f20b2d77b8cc9,2022-07-06_09h29.36.324,Colour_Asymmetry_Pilot,2022.1.3,Win32,59.64807635,62c50e9c1127f2cd403a315f,0,161,161,30,1,fourtwo,,,,,,,,,,,,,,,,,,,,,,,,,,,,,,,,,,,,,,,,,,,,,,,,,,,,,,,,,,,,,,,,,,,,,,,,,,,,,,,,,,,,,,,,,,,,,,,,,,,,,,,,,,,,,,,,,,,,,,,,,,,,,,,,,,,,,,,,,,,,,,,,,,,,,,,,,,,,,
,,,,,,616fd6aac8d209bdcd631c2a,62c53964b92f20b2d77b8cc9,2022-07-06_09h29.36.324,Colour_Asymmetry_Pilot,2022.1.3,Win32,59.64807635,62c50e9c1127f2cd403a315f,,,,,,,space,47.8952,space,27.501,space,126.2355,space,53.862,space,4.1462,space,6.9225,"[0.9763999999999999,-0.1137999999999999,-0.6314]",threeone,"[0.22340000000000004,-0.9296,-0.7884]",3,8.6406,65,57.5,1,0,0,response1disk_5,-18,5.5,1,0,0,rectangle_8,-18,5.5,1,0,0,4,-18,5.5,1,0,0,0,0,0,0,1,,,,,,,,,,,,,,,,,,,,,,,,,,,,,,,,,,,,,,,,,,,,,,,,,,,,,,,,,,,,,,,,,,,,,,,,,,,,,,,,,,,,,,,,,,,,,,,,,,,,,,,,,,,,,,,,
,,,,,,616fd6aac8d209bdcd631c2a,62c53964b92f20b2d77b8cc9,2022-07-06_09h29.36.324,Colour_Asymmetry_Pilot,2022.1.3,Win32,59.64807635,62c50e9c1127f2cd403a315f,,,,,,,,,,,,,,,,,,,"[-0.38039999999999996,-0.4276,-0.1452]",threeone,"[-0.4982,-0.2942,-0.0354000000000001]",2,6.3399,85,-63.5,1,0,0,response3disk_5,-4,4.5,1,0,0,rectangle_8,-4,4.5,1,0,0,4,-4,4.5,1,0,0,1,0,1,0,1,,,,,,,,,,,,,,,,,,,,,,,,,,,,,,,,,,,,,,,,,,,,,,,,,,,,,,,,,,,,,,,,,,,,,,,,,,,,,,,,,,,,,,,,,,,,,,,,,,,,,,,,,,,,,,,,
,,,,,,616fd6aac8d209bdcd631c2a,62c53964b92f20b2d77b8cc9,2022-07-06_09h29.36.324,Colour_Asymmetry_Pilot,2022.1.3,Win32,59.64807635,62c50e9c1127f2cd403a315f,,,,,,,,,,,,,,,,,,,"[-0.9766,-0.6472,0.07440000000000002]",twofour,"[-0.4902000000000001,0.2704,-0.45899999999999996]",-2,4.118,-64,-38.5,1,0,0,response5disk_5,-8,3.5,1,0,0,rectangle_8,-8,3.5,1,0,0,4,-8,3.5,1,0,0,2,0,2,0,1,,,,,,,,,,,,,,,,,,,,,,,,,,,,,,,,,,,,,,,,,,,,,,,,,,,,,,,,,,,,,,,,,,,,,,,,,,,,,,,,,,,,,,,,,,,,,,,,,,,,,,,,,,,,,,,,
,,,,,,616fd6aac8d209bdcd631c2a,62c53964b92f20b2d77b8cc9,2022-07-06_09h29.36.324,Colour_Asymmetry_Pilot,2022.1.3,Win32,59.64807635,62c50e9c1127f2cd403a315f,,,,,,,,,,,,,,,,,,,"[0.7176,-0.906,-0.6864]",fourthree,"[-0.5688,-0.08239999999999992,-0.1844]",-4,2.1305,-52,65.5,1,0,0,response7disk_5,4,0.5,1,0,0,rectangle_8,46,82.5,1,0,0,4,12,3.5,1,0,0,3,0,3,0,1,response1disk_7,7,rectangle_4,,,,,,,,,,,,,,,,,,,,,,,,,,,,,,,,,,,,,,,,,,,,,,,,,,,,,,,,,,,,,,,,,,,,,,,,,,,,,,,,,,,,,,,,,,,,,,,,,,,,,,,,,,,,,
,,,,,,616fd6aac8d209bdcd631c2a,62c53964b92f20b2d77b8cc9,2022-07-06_09h29.36.324,Colour_Asymmetry_Pilot,2022.1.3,Win32,59.64807635,62c50e9c1127f2cd403a315f,,,,,,,,,,,,,,,,,,,"[-0.26280000000000003,-0.2158,-0.3256]",threeone,"[-0.5452,-0.608,0.2470000000000001]",-1,3.9038,-74,-75.5,1,0,0,response5disk_5,-2,4.5,1,0,0,rectangle_8,-2,4.5,1,0,0,4,-2,4.5,1,0,0,4,0,4,0,1,,,,,,,,,,,,,,,,,,,,,,,,,,,,,,,,,,,,,,,,,,,,,,,,,,,,,,,,,,,,,,,,,,,,,,,,,,,,,,,,,,,,,,,,,,,,,,,,,,,,,,,,,,,,,,,,
,,,,,,616fd6aac8d209bdcd631c2a,62c53964b92f20b2d77b8cc9,2022-07-06_09h29.36.324,Colour_Asymmetry_Pilot,2022.1.3,Win32,59.64807635,62c50e9c1127f2cd403a315f,,,,,,,,,,,,,,,,,,,"[-0.011800000000000033,-0.906,-0.45100000000000007]",fourthree,"[-0.5688,-0.08239999999999992,-0.1844]",-4,1.49,-48,54.5,1,0,0,response7disk_5,-5,1.5,1,0,0,rectangle_8,-5,1.5,1,0,0,4,-5,1.5,1,0,0,5,0,5,0,1,,,,,,,,,,,,,,,,,,,,,,,,,,,,,,,,,,,,,,,,,,,,,,,,,,,,,,,,,,,,,,,,,,,,,,,,,,,,,,,,,,,,,,,,,,,,,,,,,,,,,,,,,,,,,,,,
,,,,,,616fd6aac8d209bdcd631c2a,62c53964b92f20b2d77b8cc9,2022-07-06_09h29.36.324,Colour_Asymmetry_Pilot,2022.1.3,Win32,59.64807635,62c50e9c1127f2cd403a315f,,,,,,,,,,,,,,,,,,,"[-0.9688,-0.38039999999999996,-0.41979999999999995]",twofour,"[0.7176,-0.906,-0.6864]",-4,1.3421,-48,53.5,1,0,0,response7disk_5,19,3.5,1,0,0,rectangle_8,19,3.5,1,0,0,4,19,3.5,1,0,0,6,0,6,0,1,,,,,,,,,,,,,,,,,,,,,,,,,,,,,,,,,,,,,,,,,,,,,,,,,,,,,,,,,,,,,,,,,,,,,,,,,,,,,,,,,,,,,,,,,,,,,,,,,,,,,,,,,,,,,,,,
,,,,,,616fd6aac8d209bdcd631c2a,62c53964b92f20b2d77b8cc9,2022-07-06_09h29.36.324,Colour_Asymmetry_Pilot,2022.1.3,Win32,59.64807635,62c50e9c1127f2cd403a315f,,,,,,,,,,,,,,,,,,,,fourtwo,,4,1.4585,,,,,,,,,,,,,,,,,,,,,,,,,,,,,,,,space,178.0002,"[-0.9138,-0.5296000000000001,-0.5529999999999999]","[-0.9688,-0.38039999999999996,-0.41979999999999995]",48,56.5,1,0,0,response1disk,0,6.5,1,0,0,rectangle,0,6.5,1,0,0,,1,0.0041,0,0,6.5,1,0,0,0,0,0,124,1,43,second,,,,,,,,,,,,,,,,,,,,,,,,,,,,,,,,,,,,,,,,,,,,,,,,,,,,,,,,,,,,,,,,,,,,,,,,
,,,,,,616fd6aac8d209bdcd631c2a,62c53964b92f20b2d77b8cc9,2022-07-06_09h29.36.324,Colour_Asymmetry_Pilot,2022.1.3,Win32,59.64807635,62c50e9c1127f2cd403a315f,,,,,,,,,,,,,,,,,,,,threefour,,1,7.5102,,,,,,,,,,,,,,,,,,,,,,,,,,,,,,,,,,"[-0.0040000000000000036,0.02739999999999987,-0.08239999999999992]","[0.2862,0.7802,0.3568]",54,-66.5,1,0,0,response3disk,9,4.5,1,0,0,rectangle,9,4.5,1,0,0,,3,0.0049,0,9,4.5,1,0,0,0,1,1,13,1,13,first,,,,,,,,,,,,,,,,,,,,,,,,,,,,,,,,,,,,,,,,,,,,,,,,,,,,,,,,,,,,,,,,,,,,,,,,
,,,,,,616fd6aac8d209bdcd631c2a,62c53964b92f20b2d77b8cc9,2022-07-06_09h29.36.324,Colour_Asymmetry_Pilot,2022.1.3,Win32,59.64807635,62c50e9c1127f2cd403a315f,,,,,,,,,,,,,,,,,,,,onethree,,4,2.3862,,,,,,,,,,,,,,,,,,,,,,,,,,,,,,,,,,"[0.7176,-0.906,-0.6864]","[-0.01980000000000004,-0.5138,-0.38039999999999996]",88,104.5,1,0,0,response1disk,-13,7.5,1,0,0,rectangle,-13,7.5,1,0,0,,3,0.0004,0,-13,7.5,1,0,0,0,2,2,75,1,75,first,,,,,,,,,,,,,,,,,,,,,,,,,,,,,,,,,,,,,,,,,,,,,,,,,,,,,,,,,,,,,,,,,,,,,,,,
,,,,,,616fd6aac8d209bdcd631c2a,62c53964b92f20b2d77b8cc9,2022-07-06_09h29.36.324,Colour_Asymmetry_Pilot,2022.1.3,Win32,59.64807635,62c50e9c1127f2cd403a315f,,,,,,,,,,,,,,,,,,,,twofour,,2,1.3546,,,,,,,,,,,,,,,,,,,,,,,,,,,,,,,,,,"[0.19199999999999995,0.18419999999999992,0.5136000000000001]","[-0.9216,-0.5529999999999999,-0.3962]",79,-58.5,1,0,0,response3disk,-7,-0.5,1,0,0,rectangle,-7,-0.5,1,0,0,,2,0.0062,0,-7,-0.5,1,0,0,0,3,3,119,1,38,second,,,,,,,,,,,,,,,,,,,,,,,,,,,,,,,,,,,,,,,,,,,,,,,,,,,,,,,,,,,,,,,,,,,,,,,,
,,,,,,616fd6aac8d209bdcd631c2a,62c53964b92f20b2d77b8cc9,2022-07-06_09h29.36.324,Colour_Asymmetry_Pilot,2022.1.3,Win32,59.64807635,62c50e9c1127f2cd403a315f,,,,,,,,,,,,,,,,,,,,threefour,,-3,0.9522,,,,,,,,,,,,,,,,,,,,,,,,,,,,,,,,,,"[-0.6235999999999999,-0.6786,-0.08239999999999992]","[-0.7412000000000001,-0.08239999999999992,-0.6864]",-50,40.5,1,0,0,response7disk,4,2.5,1,0,0,rectangle,4,2.5,1,0,0,,2,0.0003,0,4,2.5,1,0,0,0,4,4,154,1,73,second,,,,,,,,,,,,,,,,,,,,,,,,,,,,,,,,,,,,,,,,,,,,,,,,,,,,,,,,,,,,,,,,,,,,,,,,
,,,,,,616fd6aac8d209bdcd631c2a,62c53964b92f20b2d77b8cc9,2022-07-06_09h29.36.324,Colour_Asymmetry_Pilot,2022.1.3,Win32,59.64807635,62c50e9c1127f2cd403a315f,,,,,,,,,,,,,,,,,,,,twofour,,-4,0.8058,,,,,,,,,,,,,,,,,,,,,,,,,,,,,,,,,,"[0.30180000000000007,-0.7884,-0.9844]","[-0.5688,-0.08239999999999992,-0.1844]",-52,80.5,1,0,0,response7disk,-2,-4.5,1,0,0,rectangle,-2,-4.5,1,0,0,,3,0.0054,0,-2,-4.5,1,0,0,0,5,5,62,1,62,first,,,,,,,,,,,,,,,,,,,,,,,,,,,,,,,,,,,,,,,,,,,,,,,,,,,,,,,,,,,,,,,,,,,,,,,,
,,,,,,616fd6aac8d209bdcd631c2a,62c53964b92f20b2d77b8cc9,2022-07-06_09h29.36.324,Colour_Asymmetry_Pilot,2022.1.3,Win32,59.64807635,62c50e9c1127f2cd403a315f,,,,,,,,,,,,,,,,,,,,fourthree,,-4,1.2935,,,,,,,,,,,,,,,,,,,,,,,,,,,,,,,,,,"[0.37240000000000006,0.4980000000000002,-0.2864]","[-0.6235999999999999,-0.6786,-0.08239999999999992]",-49,91.5,1,0,0,response7disk,-6,5.5,1,0,0,rectangle,-6,5.5,1,0,0,,3,0.0003,0,-6,5.5,1,0,0,0,6,6,116,1,35,second,,,,,,,,,,,,,,,,,,,,,,,,,,,,,,,,,,,,,,,,,,,,,,,,,,,,,,,,,,,,,,,,,,,,,,,,
,,,,,,616fd6aac8d209bdcd631c2a,62c53964b92f20b2d77b8cc9,2022-07-06_09h29.36.324,Colour_Asymmetry_Pilot,2022.1.3,Win32,59.64807635,62c50e9c1127f2cd403a315f,,,,,,,,,,,,,,,,,,,,onethree,,-3,0.7335,,,,,,,,,,,,,,,,,,,,,,,,,,,,,,,,,,"[-0.5452,-0.608,0.2470000000000001]","[-0.24719999999999998,0.5213999999999999,-0.12959999999999994]",-30,25.5,1,0,0,response7disk,-5,6.5,1,0,0,rectangle,-5,6.5,1,0,0,,1,0.004,0,-5,6.5,1,0,0,0,7,7,117,1,36,second,,,,,,,,,,,,,,,,,,,,,,,,,,,,,,,,,,,,,,,,,,,,,,,,,,,,,,,,,,,,,,,,,,,,,,,,
,,,,,,616fd6aac8d209bdcd631c2a,62c53964b92f20b2d77b8cc9,2022-07-06_09h29.36.324,Colour_Asymmetry_Pilot,2022.1.3,Win32,59.64807635,62c50e9c1127f2cd403a315f,,,,,,,,,,,,,,,,,,,,threeone,,-4,0.7703,,,,,,,,,,,,,,,,,,,,,,,,,,,,,,,,,,"[-0.8198,-0.5138,-0.7492000000000001]","[0.9213999999999998,0.6391999999999998,-0.9922]",-42,51.5,1,0,0,response7disk,-6,9.5,1,0,0,rectangle,-6,9.5,1,0,0,,1,0.0004,0,-6,9.5,1,0,0,0,8,8,149,1,68,second,,,,,,,,,,,,,,,,,,,,,,,,,,,,,,,,,,,,,,,,,,,,,,,,,,,,,,,,,,,,,,,,,,,,,,,,
,,,,,,616fd6aac8d209bdcd631c2a,62c53964b92f20b2d77b8cc9,2022-07-06_09h29.36.324,Colour_Asymmetry_Pilot,2022.1.3,Win32,59.64807635,62c50e9c1127f2cd403a315f,,,,,,,,,,,,,,,,,,,,twofour,,-4,0.8903,,,,,,,,,,,,,,,,,,,,,,,,,,,,,,,,,,"[0.34099999999999997,0.12939999999999996,-0.9766]","[0.9372,0.20779999999999998,0.2704]",-33,50.5,1,0,0,response7disk,-7,8.5,1,0,0,rectangle,-7,8.5,1,0,0,,3,0.002,0,-7,8.5,1,0,0,0,9,9,82,1,1,second,,,,,,,,,,,,,,,,,,,,,,,,,,,,,,,,,,,,,,,,,,,,,,,,,,,,,,,,,,,,,,,,,,,,,,,,
,,,,,,616fd6aac8d209bdcd631c2a,62c53964b92f20b2d77b8cc9,2022-07-06_09h29.36.324,Colour_Asymmetry_Pilot,2022.1.3,Win32,59.64807635,62c50e9c1127f2cd403a315f,,,,,,,,,,,,,,,,,,,,twofour,,-3,19.873,,,,,,,,,,,,,,,,,,,,,,,,,,,,,,,,,,"[-0.6235999999999999,-0.6786,-0.08239999999999992]","[0.37240000000000006,0.4980000000000002,-0.2864]",-59,55.5,1,0,0,response7disk,1,5.5,1,0,0,rectangle,1,5.5,1,0,0,,2,0.002,0,1,5.5,1,0,0,0,10,10,35,1,35,first,,,,,,,,,,,,,,,,,,,,,,,,,,,,,,,,,,,,,,,,,,,,,,,,,,,,,,,,,,,,,,,,,,,,,,,,
,,,,,,616fd6aac8d209bdcd631c2a,62c53964b92f20b2d77b8cc9,2022-07-06_09h29.36.324,Colour_Asymmetry_Pilot,2022.1.3,Win32,59.64807635,62c50e9c1127f2cd403a315f,,,,,,,,,,,,,,,,,,,,fourtwo,,3,2.9006,,,,,,,,,,,,,,,,,,,,,,,,,,,,,,,,,,"[-0.6942,-0.7648,-0.12959999999999994]","[-0.9688,-0.4902000000000001,-0.12159999999999993]",80,59.5,1,0,0,response1disk,2,3.5,1,0,0,rectangle,2,3.5,1,0,0,,2,0.0002,0,2,3.5,1,0,0,0,11,11,121,1,40,second,,,,,,,,,,,,,,,,,,,,,,,,,,,,,,,,,,,,,,,,,,,,,,,,,,,,,,,,,,,,,,,,,,,,,,,,
,,,,,,616fd6aac8d209bdcd631c2a,62c53964b92f20b2d77b8cc9,2022-07-06_09h29.36.324,Colour_Asymmetry_Pilot,2022.1.3,Win32,59.64807635,62c50e9c1127f2cd403a315f,,,,,,,,,,,,,,,,,,,,threeone,,-3,2.8324,,,,,,,,,,,,,,,,,,,,,,,,,,,,,,,,,,"[0.6547999999999998,-0.043199999999999905,-0.011800000000000033]","[0.7018,0.7176,0.6155999999999999]",-52,50.5,1,0,0,response7disk,-9,0.5,1,0,0,rectangle,-9,0.5,1,0,0,,3,0.0043,0,-9,0.5,1,0,0,0,12,12,32,1,32,first,,,,,,,,,,,,,,,,,,,,,,,,,,,,,,,,,,,,,,,,,,,,,,,,,,,,,,,,,,,,,,,,,,,,,,,,
,,,,,,616fd6aac8d209bdcd631c2a,62c53964b92f20b2d77b8cc9,2022-07-06_09h29.36.324,Colour_Asymmetry_Pilot,2022.1.3,Win32,59.64807635,62c50e9c1127f2cd403a315f,,,,,,,,,,,,,,,,,,,,fourthree,,-4,1.5558,,,,,,,,,,,,,,,,,,,,,,,,,,,,,,,,,,"[0.23920000000000008,0.2704,0.16060000000000008]","[-0.24719999999999998,-0.0354000000000001,0.3175999999999999]",-61,62.5,1,0,0,response7disk,-10,4.5,1,0,0,rectangle,-10,4.5,1,0,0,,1,0.0022,0,-10,4.5,1,0,0,0,13,13,48,1,48,first,,,,,,,,,,,,,,,,,,,,,,,,,,,,,,,,,,,,,,,,,,,,,,,,,,,,,,,,,,,,,,,,,,,,,,,,
,,,,,,616fd6aac8d209bdcd631c2a,62c53964b92f20b2d77b8cc9,2022-07-06_09h29.36.324,Colour_Asymmetry_Pilot,2022.1.3,Win32,59.64807635,62c50e9c1127f2cd403a315f,,,,,,,,,,,,,,,,,,,,threefour,,-4,1.3837,,,,,,,,,,,,,,,,,,,,,,,,,,,,,,,,,,"[-0.6,0.16860000000000008,0.44300000000000006]","[-0.26280000000000003,-0.2158,-0.3256]",-46,81.5,1,0,0,response7disk,-2,-5.5,1,0,0,rectangle,-2,-5.5,1,0,0,,3,0.0021,0,-2,-5.5,1,0,0,0,14,14,6,1,6,first,,,,,,,,,,,,,,,,,,,,,,,,,,,,,,,,,,,,,,,,,,,,,,,,,,,,,,,,,,,,,,,,,,,,,,,,
,,,,,,616fd6aac8d209bdcd631c2a,62c53964b92f20b2d77b8cc9,2022-07-06_09h29.36.324,Colour_Asymmetry_Pilot,2022.1.3,Win32,59.64807635,62c50e9c1127f2cd403a315f,,,,,,,,,,,,,,,,,,,,onetwo,,-4,1.7186,,,,,,,,,,,,,,,,,,,,,,,,,,,,,,,,,,"[0.12939999999999996,-0.2864,0.3253999999999999]","[-0.011800000000000033,-0.906,-0.45100000000000007]",-54,116.5,1,0,0,response7disk,-5,5.5,1,0,0,rectangle,-5,5.5,1,0,0,,3,0.0002,0,-5,5.5,1,0,0,0,15,15,148,1,67,second,,,,,,,,,,,,,,,,,,,,,,,,,,,,,,,,,,,,,,,,,,,,,,,,,,,,,,,,,,,,,,,,,,,,,,,,
,,,,,,616fd6aac8d209bdcd631c2a,62c53964b92f20b2d77b8cc9,2022-07-06_09h29.36.324,Colour_Asymmetry_Pilot,2022.1.3,Win32,59.64807635,62c50e9c1127f2cd403a315f,,,,,,,,,,,,,,,,,,,,onethree,,-4,1.5188,,,,,,,,,,,,,,,,,,,,,,,,,,,,,,,,,,"[0.9372,0.20779999999999998,0.2704]","[0.11359999999999992,0.6312,0.5213999999999999]",-58,66.5,1,0,0,response7disk,-8,-0.5,1,0,0,rectangle,-8,-0.5,1,0,0,,1,0.0032,0,-8,-0.5,1,0,0,0,16,16,122,1,41,second,,,,,,,,,,,,,,,,,,,,,,,,,,,,,,,,,,,,,,,,,,,,,,,,,,,,,,,,,,,,,,,,,,,,,,,,
,,,,,,616fd6aac8d209bdcd631c2a,62c53964b92f20b2d77b8cc9,2022-07-06_09h29.36.324,Colour_Asymmetry_Pilot,2022.1.3,Win32,59.64807635,62c50e9c1127f2cd403a315f,,,,,,,,,,,,,,,,,,,,twofour,,-4,24.6517,,,,,,,,,,,,,,,,,,,,,,,,,,,,,,,,,,"[-0.4746,-0.0354000000000001,0.5449999999999999]","[-0.5922000000000001,-0.7492000000000001,-0.5296000000000001]",-43,68.5,1,0,0,response7disk,4,4.5,1,0,0,rectangle,4,4.5,1,0,0,,1,0.0003,0,4,4.5,1,0,0,0,17,17,138,1,57,second,,,,,,,,,,,,,,,,,,,,,,,,,,,,,,,,,,,,,,,,,,,,,,,,,,,,,,,,,,,,,,,,,,,,,,,,
