trials.thisRepN,trials.thisTrialN,trials.thisN,trials.thisIndex,trials.ran,Colourcodes,participant,session,date,expName,psychopyVersion,OS,frameRate,study_id,trials_4.thisRepN,trials_4.thisTrialN,trials_4.thisN,trials_4.thisIndex,trials_4.ran,StimulusPos,key_resp.keys,key_resp.rt,key_resp_2.keys,key_resp_2.rt,key_resp_15.keys,key_resp_15.rt,key_resp_17.keys,key_resp_17.rt,key_resp_9.keys,key_resp_9.rt,key_resp_10.keys,key_resp_10.rt,Circle1_col,Ecc,Circle2_col,similarity,response_time,mouse_5.x,mouse_5.y,mouse_5.leftButton,mouse_5.midButton,mouse_5.rightButton,mouse_5.clicked_name,mouse_10.x,mouse_10.y,mouse_10.leftButton,mouse_10.midButton,mouse_10.rightButton,mouse_10.clicked_name,mouse_7.x,mouse_7.y,mouse_7.leftButton,mouse_7.midButton,mouse_7.rightButton,catchnumberprac,mouse_6.x,mouse_6.y,mouse_6.leftButton,mouse_6.midButton,mouse_6.rightButton,duringprac.thisRepN,duringprac.thisTrialN,duringprac.thisN,duringprac.thisIndex,duringprac.ran,mouse_7.clicked_name,catchprac,mouse_6.clicked_name,key_resp_22.keys,key_resp_22.rt,Circle1_colour,Circle2_colour,mouse.x,mouse.y,mouse.leftButton,mouse.midButton,mouse.rightButton,mouse.clicked_name,mouse_2.x,mouse_2.y,mouse_2.leftButton,mouse_2.midButton,mouse_2.rightButton,mouse_2.clicked_name,mouse_3.x,mouse_3.y,mouse_3.leftButton,mouse_3.midButton,mouse_3.rightButton,catchresponse,catchnumber,response_time_catch,Catch,mouse_11.x,mouse_11.y,mouse_11.leftButton,mouse_11.midButton,mouse_11.rightButton,trials_2.thisRepN,trials_2.thisTrialN,trials_2.thisN,trials_2.thisIndex,trials_2.ran,Colourpair,Temporder,mouse_3.clicked_name,mouse_11.clicked_name,trials_3.thisRepN,trials_3.thisTrialN,trials_3.thisN,trials_3.thisIndex,trials_3.ran,key_resp_instr_Ishi.keys,key_resp_instr_Ishi.rt,Ishi_trial_keyresp.keys,Ishi_textbox.text,Ishi_mouse.x,Ishi_mouse.y,Ishi_mouse.leftButton,Ishi_mouse.midButton,Ishi_mouse.rightButton,Ishi_mouse.clicked_name,Ishi_loop.thisRepN,Ishi_loop.thisTrialN,Ishi_loop.thisN,Ishi_loop.thisIndex,Ishi_loop.ran,imageaddress,textbox.text,mouse_4.x,mouse_4.y,mouse_4.leftButton,mouse_4.midButton,mouse_4.rightButton,mouse_4.clicked_name,textbox_2.text,mouse_8.x,mouse_8.y,mouse_8.leftButton,mouse_8.midButton,mouse_8.rightButton,mouse_8.clicked_name,textbox_3.text,mouse_9.x,mouse_9.y,mouse_9.leftButton,mouse_9.midButton,mouse_9.rightButton,mouse_9.clicked_name,textbox_4.text,mouse_12.x,mouse_12.y,mouse_12.leftButton,mouse_12.midButton,mouse_12.rightButton,mouse_12.clicked_name,textbox_5.text,mouse_13.x,mouse_13.y,mouse_13.leftButton,mouse_13.midButton,mouse_13.rightButton,mouse_13.clicked_name,textbox_6.text,mouse_14.x,mouse_14.y,mouse_14.leftButton,mouse_14.midButton,mouse_14.rightButton,mouse_14.clicked_name,textbox_7.text,mouse_15.x,mouse_15.y,mouse_15.leftButton,mouse_15.midButton,mouse_15.rightButton,mouse_15.clicked_name
0,0,0,16,1,,5d1463c5d40c1b00167822a8,62c539d918e773dc848437f4,2022-07-06_02h31.54.356,Colour_Asymmetry_Pilot,2022.1.3,Win32,71.90623427,62c50e9c1127f2cd403a315f,,,,,,,,,,,,,,,,,,,,,,,,,,,,,,,,,,,,,,,,,,,,,,,,,,,,,,,,,,,,,,,,,,,,,,,,,,,,,,,,,,,,,,,,,,,,,,,,,,,,,,,,,,,,,,,,,,,,,,,,,,,,,,,,,,,,,,,,,,,,,,,,,,,,,,,,,,,,,,,,,,,
0,1,1,40,1,,5d1463c5d40c1b00167822a8,62c539d918e773dc848437f4,2022-07-06_02h31.54.356,Colour_Asymmetry_Pilot,2022.1.3,Win32,71.90623427,62c50e9c1127f2cd403a315f,,,,,,,,,,,,,,,,,,,,,,,,,,,,,,,,,,,,,,,,,,,,,,,,,,,,,,,,,,,,,,,,,,,,,,,,,,,,,,,,,,,,,,,,,,,,,,,,,,,,,,,,,,,,,,,,,,,,,,,,,,,,,,,,,,,,,,,,,,,,,,,,,,,,,,,,,,,,,,,,,,,
0,2,2,53,1,,5d1463c5d40c1b00167822a8,62c539d918e773dc848437f4,2022-07-06_02h31.54.356,Colour_Asymmetry_Pilot,2022.1.3,Win32,71.90623427,62c50e9c1127f2cd403a315f,,,,,,,,,,,,,,,,,,,,,,,,,,,,,,,,,,,,,,,,,,,,,,,,,,,,,,,,,,,,,,,,,,,,,,,,,,,,,,,,,,,,,,,,,,,,,,,,,,,,,,,,,,,,,,,,,,,,,,,,,,,,,,,,,,,,,,,,,,,,,,,,,,,,,,,,,,,,,,,,,,,
0,3,3,19,1,,5d1463c5d40c1b00167822a8,62c539d918e773dc848437f4,2022-07-06_02h31.54.356,Colour_Asymmetry_Pilot,2022.1.3,Win32,71.90623427,62c50e9c1127f2cd403a315f,,,,,,,,,,,,,,,,,,,,,,,,,,,,,,,,,,,,,,,,,,,,,,,,,,,,,,,,,,,,,,,,,,,,,,,,,,,,,,,,,,,,,,,,,,,,,,,,,,,,,,,,,,,,,,,,,,,,,,,,,,,,,,,,,,,,,,,,,,,,,,,,,,,,,,,,,,,,,,,,,,,
0,4,4,91,1,,5d1463c5d40c1b00167822a8,62c539d918e773dc848437f4,2022-07-06_02h31.54.356,Colour_Asymmetry_Pilot,2022.1.3,Win32,71.90623427,62c50e9c1127f2cd403a315f,,,,,,,,,,,,,,,,,,,,,,,,,,,,,,,,,,,,,,,,,,,,,,,,,,,,,,,,,,,,,,,,,,,,,,,,,,,,,,,,,,,,,,,,,,,,,,,,,,,,,,,,,,,,,,,,,,,,,,,,,,,,,,,,,,,,,,,,,,,,,,,,,,,,,,,,,,,,,,,,,,,
0,5,5,77,1,,5d1463c5d40c1b00167822a8,62c539d918e773dc848437f4,2022-07-06_02h31.54.356,Colour_Asymmetry_Pilot,2022.1.3,Win32,71.90623427,62c50e9c1127f2cd403a315f,,,,,,,,,,,,,,,,,,,,,,,,,,,,,,,,,,,,,,,,,,,,,,,,,,,,,,,,,,,,,,,,,,,,,,,,,,,,,,,,,,,,,,,,,,,,,,,,,,,,,,,,,,,,,,,,,,,,,,,,,,,,,,,,,,,,,,,,,,,,,,,,,,,,,,,,,,,,,,,,,,,
0,6,6,84,1,,5d1463c5d40c1b00167822a8,62c539d918e773dc848437f4,2022-07-06_02h31.54.356,Colour_Asymmetry_Pilot,2022.1.3,Win32,71.90623427,62c50e9c1127f2cd403a315f,,,,,,,,,,,,,,,,,,,,,,,,,,,,,,,,,,,,,,,,,,,,,,,,,,,,,,,,,,,,,,,,,,,,,,,,,,,,,,,,,,,,,,,,,,,,,,,,,,,,,,,,,,,,,,,,,,,,,,,,,,,,,,,,,,,,,,,,,,,,,,,,,,,,,,,,,,,,,,,,,,,
0,7,7,85,1,,5d1463c5d40c1b00167822a8,62c539d918e773dc848437f4,2022-07-06_02h31.54.356,Colour_Asymmetry_Pilot,2022.1.3,Win32,71.90623427,62c50e9c1127f2cd403a315f,,,,,,,,,,,,,,,,,,,,,,,,,,,,,,,,,,,,,,,,,,,,,,,,,,,,,,,,,,,,,,,,,,,,,,,,,,,,,,,,,,,,,,,,,,,,,,,,,,,,,,,,,,,,,,,,,,,,,,,,,,,,,,,,,,,,,,,,,,,,,,,,,,,,,,,,,,,,,,,,,,,
0,8,8,33,1,,5d1463c5d40c1b00167822a8,62c539d918e773dc848437f4,2022-07-06_02h31.54.356,Colour_Asymmetry_Pilot,2022.1.3,Win32,71.90623427,62c50e9c1127f2cd403a315f,,,,,,,,,,,,,,,,,,,,,,,,,,,,,,,,,,,,,,,,,,,,,,,,,,,,,,,,,,,,,,,,,,,,,,,,,,,,,,,,,,,,,,,,,,,,,,,,,,,,,,,,,,,,,,,,,,,,,,,,,,,,,,,,,,,,,,,,,,,,,,,,,,,,,,,,,,,,,,,,,,,
0,9,9,61,1,,5d1463c5d40c1b00167822a8,62c539d918e773dc848437f4,2022-07-06_02h31.54.356,Colour_Asymmetry_Pilot,2022.1.3,Win32,71.90623427,62c50e9c1127f2cd403a315f,,,,,,,,,,,,,,,,,,,,,,,,,,,,,,,,,,,,,,,,,,,,,,,,,,,,,,,,,,,,,,,,,,,,,,,,,,,,,,,,,,,,,,,,,,,,,,,,,,,,,,,,,,,,,,,,,,,,,,,,,,,,,,,,,,,,,,,,,,,,,,,,,,,,,,,,,,,,,,,,,,,
0,10,10,21,1,,5d1463c5d40c1b00167822a8,62c539d918e773dc848437f4,2022-07-06_02h31.54.356,Colour_Asymmetry_Pilot,2022.1.3,Win32,71.90623427,62c50e9c1127f2cd403a315f,,,,,,,,,,,,,,,,,,,,,,,,,,,,,,,,,,,,,,,,,,,,,,,,,,,,,,,,,,,,,,,,,,,,,,,,,,,,,,,,,,,,,,,,,,,,,,,,,,,,,,,,,,,,,,,,,,,,,,,,,,,,,,,,,,,,,,,,,,,,,,,,,,,,,,,,,,,,,,,,,,,
0,11,11,78,1,,5d1463c5d40c1b00167822a8,62c539d918e773dc848437f4,2022-07-06_02h31.54.356,Colour_Asymmetry_Pilot,2022.1.3,Win32,71.90623427,62c50e9c1127f2cd403a315f,,,,,,,,,,,,,,,,,,,,,,,,,,,,,,,,,,,,,,,,,,,,,,,,,,,,,,,,,,,,,,,,,,,,,,,,,,,,,,,,,,,,,,,,,,,,,,,,,,,,,,,,,,,,,,,,,,,,,,,,,,,,,,,,,,,,,,,,,,,,,,,,,,,,,,,,,,,,,,,,,,,
0,12,12,86,1,,5d1463c5d40c1b00167822a8,62c539d918e773dc848437f4,2022-07-06_02h31.54.356,Colour_Asymmetry_Pilot,2022.1.3,Win32,71.90623427,62c50e9c1127f2cd403a315f,,,,,,,,,,,,,,,,,,,,,,,,,,,,,,,,,,,,,,,,,,,,,,,,,,,,,,,,,,,,,,,,,,,,,,,,,,,,,,,,,,,,,,,,,,,,,,,,,,,,,,,,,,,,,,,,,,,,,,,,,,,,,,,,,,,,,,,,,,,,,,,,,,,,,,,,,,,,,,,,,,,
0,13,13,66,1,,5d1463c5d40c1b00167822a8,62c539d918e773dc848437f4,2022-07-06_02h31.54.356,Colour_Asymmetry_Pilot,2022.1.3,Win32,71.90623427,62c50e9c1127f2cd403a315f,,,,,,,,,,,,,,,,,,,,,,,,,,,,,,,,,,,,,,,,,,,,,,,,,,,,,,,,,,,,,,,,,,,,,,,,,,,,,,,,,,,,,,,,,,,,,,,,,,,,,,,,,,,,,,,,,,,,,,,,,,,,,,,,,,,,,,,,,,,,,,,,,,,,,,,,,,,,,,,,,,,
0,14,14,3,1,,5d1463c5d40c1b00167822a8,62c539d918e773dc848437f4,2022-07-06_02h31.54.356,Colour_Asymmetry_Pilot,2022.1.3,Win32,71.90623427,62c50e9c1127f2cd403a315f,,,,,,,,,,,,,,,,,,,,,,,,,,,,,,,,,,,,,,,,,,,,,,,,,,,,,,,,,,,,,,,,,,,,,,,,,,,,,,,,,,,,,,,,,,,,,,,,,,,,,,,,,,,,,,,,,,,,,,,,,,,,,,,,,,,,,,,,,,,,,,,,,,,,,,,,,,,,,,,,,,,
0,15,15,48,1,,5d1463c5d40c1b00167822a8,62c539d918e773dc848437f4,2022-07-06_02h31.54.356,Colour_Asymmetry_Pilot,2022.1.3,Win32,71.90623427,62c50e9c1127f2cd403a315f,,,,,,,,,,,,,,,,,,,,,,,,,,,,,,,,,,,,,,,,,,,,,,,,,,,,,,,,,,,,,,,,,,,,,,,,,,,,,,,,,,,,,,,,,,,,,,,,,,,,,,,,,,,,,,,,,,,,,,,,,,,,,,,,,,,,,,,,,,,,,,,,,,,,,,,,,,,,,,,,,,,
0,16,16,44,1,,5d1463c5d40c1b00167822a8,62c539d918e773dc848437f4,2022-07-06_02h31.54.356,Colour_Asymmetry_Pilot,2022.1.3,Win32,71.90623427,62c50e9c1127f2cd403a315f,,,,,,,,,,,,,,,,,,,,,,,,,,,,,,,,,,,,,,,,,,,,,,,,,,,,,,,,,,,,,,,,,,,,,,,,,,,,,,,,,,,,,,,,,,,,,,,,,,,,,,,,,,,,,,,,,,,,,,,,,,,,,,,,,,,,,,,,,,,,,,,,,,,,,,,,,,,,,,,,,,,
0,17,17,20,1,,5d1463c5d40c1b00167822a8,62c539d918e773dc848437f4,2022-07-06_02h31.54.356,Colour_Asymmetry_Pilot,2022.1.3,Win32,71.90623427,62c50e9c1127f2cd403a315f,,,,,,,,,,,,,,,,,,,,,,,,,,,,,,,,,,,,,,,,,,,,,,,,,,,,,,,,,,,,,,,,,,,,,,,,,,,,,,,,,,,,,,,,,,,,,,,,,,,,,,,,,,,,,,,,,,,,,,,,,,,,,,,,,,,,,,,,,,,,,,,,,,,,,,,,,,,,,,,,,,,
0,18,18,80,1,,5d1463c5d40c1b00167822a8,62c539d918e773dc848437f4,2022-07-06_02h31.54.356,Colour_Asymmetry_Pilot,2022.1.3,Win32,71.90623427,62c50e9c1127f2cd403a315f,,,,,,,,,,,,,,,,,,,,,,,,,,,,,,,,,,,,,,,,,,,,,,,,,,,,,,,,,,,,,,,,,,,,,,,,,,,,,,,,,,,,,,,,,,,,,,,,,,,,,,,,,,,,,,,,,,,,,,,,,,,,,,,,,,,,,,,,,,,,,,,,,,,,,,,,,,,,,,,,,,,
0,19,19,0,1,,5d1463c5d40c1b00167822a8,62c539d918e773dc848437f4,2022-07-06_02h31.54.356,Colour_Asymmetry_Pilot,2022.1.3,Win32,71.90623427,62c50e9c1127f2cd403a315f,,,,,,,,,,,,,,,,,,,,,,,,,,,,,,,,,,,,,,,,,,,,,,,,,,,,,,,,,,,,,,,,,,,,,,,,,,,,,,,,,,,,,,,,,,,,,,,,,,,,,,,,,,,,,,,,,,,,,,,,,,,,,,,,,,,,,,,,,,,,,,,,,,,,,,,,,,,,,,,,,,,
0,20,20,88,1,,5d1463c5d40c1b00167822a8,62c539d918e773dc848437f4,2022-07-06_02h31.54.356,Colour_Asymmetry_Pilot,2022.1.3,Win32,71.90623427,62c50e9c1127f2cd403a315f,,,,,,,,,,,,,,,,,,,,,,,,,,,,,,,,,,,,,,,,,,,,,,,,,,,,,,,,,,,,,,,,,,,,,,,,,,,,,,,,,,,,,,,,,,,,,,,,,,,,,,,,,,,,,,,,,,,,,,,,,,,,,,,,,,,,,,,,,,,,,,,,,,,,,,,,,,,,,,,,,,,
0,21,21,9,1,,5d1463c5d40c1b00167822a8,62c539d918e773dc848437f4,2022-07-06_02h31.54.356,Colour_Asymmetry_Pilot,2022.1.3,Win32,71.90623427,62c50e9c1127f2cd403a315f,,,,,,,,,,,,,,,,,,,,,,,,,,,,,,,,,,,,,,,,,,,,,,,,,,,,,,,,,,,,,,,,,,,,,,,,,,,,,,,,,,,,,,,,,,,,,,,,,,,,,,,,,,,,,,,,,,,,,,,,,,,,,,,,,,,,,,,,,,,,,,,,,,,,,,,,,,,,,,,,,,,
0,22,22,81,1,,5d1463c5d40c1b00167822a8,62c539d918e773dc848437f4,2022-07-06_02h31.54.356,Colour_Asymmetry_Pilot,2022.1.3,Win32,71.90623427,62c50e9c1127f2cd403a315f,,,,,,,,,,,,,,,,,,,,,,,,,,,,,,,,,,,,,,,,,,,,,,,,,,,,,,,,,,,,,,,,,,,,,,,,,,,,,,,,,,,,,,,,,,,,,,,,,,,,,,,,,,,,,,,,,,,,,,,,,,,,,,,,,,,,,,,,,,,,,,,,,,,,,,,,,,,,,,,,,,,
0,23,23,12,1,,5d1463c5d40c1b00167822a8,62c539d918e773dc848437f4,2022-07-06_02h31.54.356,Colour_Asymmetry_Pilot,2022.1.3,Win32,71.90623427,62c50e9c1127f2cd403a315f,,,,,,,,,,,,,,,,,,,,,,,,,,,,,,,,,,,,,,,,,,,,,,,,,,,,,,,,,,,,,,,,,,,,,,,,,,,,,,,,,,,,,,,,,,,,,,,,,,,,,,,,,,,,,,,,,,,,,,,,,,,,,,,,,,,,,,,,,,,,,,,,,,,,,,,,,,,,,,,,,,,
0,24,24,10,1,,5d1463c5d40c1b00167822a8,62c539d918e773dc848437f4,2022-07-06_02h31.54.356,Colour_Asymmetry_Pilot,2022.1.3,Win32,71.90623427,62c50e9c1127f2cd403a315f,,,,,,,,,,,,,,,,,,,,,,,,,,,,,,,,,,,,,,,,,,,,,,,,,,,,,,,,,,,,,,,,,,,,,,,,,,,,,,,,,,,,,,,,,,,,,,,,,,,,,,,,,,,,,,,,,,,,,,,,,,,,,,,,,,,,,,,,,,,,,,,,,,,,,,,,,,,,,,,,,,,
0,25,25,24,1,,5d1463c5d40c1b00167822a8,62c539d918e773dc848437f4,2022-07-06_02h31.54.356,Colour_Asymmetry_Pilot,2022.1.3,Win32,71.90623427,62c50e9c1127f2cd403a315f,,,,,,,,,,,,,,,,,,,,,,,,,,,,,,,,,,,,,,,,,,,,,,,,,,,,,,,,,,,,,,,,,,,,,,,,,,,,,,,,,,,,,,,,,,,,,,,,,,,,,,,,,,,,,,,,,,,,,,,,,,,,,,,,,,,,,,,,,,,,,,,,,,,,,,,,,,,,,,,,,,,
0,26,26,83,1,,5d1463c5d40c1b00167822a8,62c539d918e773dc848437f4,2022-07-06_02h31.54.356,Colour_Asymmetry_Pilot,2022.1.3,Win32,71.90623427,62c50e9c1127f2cd403a315f,,,,,,,,,,,,,,,,,,,,,,,,,,,,,,,,,,,,,,,,,,,,,,,,,,,,,,,,,,,,,,,,,,,,,,,,,,,,,,,,,,,,,,,,,,,,,,,,,,,,,,,,,,,,,,,,,,,,,,,,,,,,,,,,,,,,,,,,,,,,,,,,,,,,,,,,,,,,,,,,,,,
0,27,27,54,1,,5d1463c5d40c1b00167822a8,62c539d918e773dc848437f4,2022-07-06_02h31.54.356,Colour_Asymmetry_Pilot,2022.1.3,Win32,71.90623427,62c50e9c1127f2cd403a315f,,,,,,,,,,,,,,,,,,,,,,,,,,,,,,,,,,,,,,,,,,,,,,,,,,,,,,,,,,,,,,,,,,,,,,,,,,,,,,,,,,,,,,,,,,,,,,,,,,,,,,,,,,,,,,,,,,,,,,,,,,,,,,,,,,,,,,,,,,,,,,,,,,,,,,,,,,,,,,,,,,,
0,28,28,22,1,,5d1463c5d40c1b00167822a8,62c539d918e773dc848437f4,2022-07-06_02h31.54.356,Colour_Asymmetry_Pilot,2022.1.3,Win32,71.90623427,62c50e9c1127f2cd403a315f,,,,,,,,,,,,,,,,,,,,,,,,,,,,,,,,,,,,,,,,,,,,,,,,,,,,,,,,,,,,,,,,,,,,,,,,,,,,,,,,,,,,,,,,,,,,,,,,,,,,,,,,,,,,,,,,,,,,,,,,,,,,,,,,,,,,,,,,,,,,,,,,,,,,,,,,,,,,,,,,,,,
0,29,29,25,1,,5d1463c5d40c1b00167822a8,62c539d918e773dc848437f4,2022-07-06_02h31.54.356,Colour_Asymmetry_Pilot,2022.1.3,Win32,71.90623427,62c50e9c1127f2cd403a315f,,,,,,,,,,,,,,,,,,,,,,,,,,,,,,,,,,,,,,,,,,,,,,,,,,,,,,,,,,,,,,,,,,,,,,,,,,,,,,,,,,,,,,,,,,,,,,,,,,,,,,,,,,,,,,,,,,,,,,,,,,,,,,,,,,,,,,,,,,,,,,,,,,,,,,,,,,,,,,,,,,,
0,30,30,23,1,,5d1463c5d40c1b00167822a8,62c539d918e773dc848437f4,2022-07-06_02h31.54.356,Colour_Asymmetry_Pilot,2022.1.3,Win32,71.90623427,62c50e9c1127f2cd403a315f,,,,,,,,,,,,,,,,,,,,,,,,,,,,,,,,,,,,,,,,,,,,,,,,,,,,,,,,,,,,,,,,,,,,,,,,,,,,,,,,,,,,,,,,,,,,,,,,,,,,,,,,,,,,,,,,,,,,,,,,,,,,,,,,,,,,,,,,,,,,,,,,,,,,,,,,,,,,,,,,,,,
0,31,31,17,1,,5d1463c5d40c1b00167822a8,62c539d918e773dc848437f4,2022-07-06_02h31.54.356,Colour_Asymmetry_Pilot,2022.1.3,Win32,71.90623427,62c50e9c1127f2cd403a315f,,,,,,,,,,,,,,,,,,,,,,,,,,,,,,,,,,,,,,,,,,,,,,,,,,,,,,,,,,,,,,,,,,,,,,,,,,,,,,,,,,,,,,,,,,,,,,,,,,,,,,,,,,,,,,,,,,,,,,,,,,,,,,,,,,,,,,,,,,,,,,,,,,,,,,,,,,,,,,,,,,,
0,32,32,13,1,,5d1463c5d40c1b00167822a8,62c539d918e773dc848437f4,2022-07-06_02h31.54.356,Colour_Asymmetry_Pilot,2022.1.3,Win32,71.90623427,62c50e9c1127f2cd403a315f,,,,,,,,,,,,,,,,,,,,,,,,,,,,,,,,,,,,,,,,,,,,,,,,,,,,,,,,,,,,,,,,,,,,,,,,,,,,,,,,,,,,,,,,,,,,,,,,,,,,,,,,,,,,,,,,,,,,,,,,,,,,,,,,,,,,,,,,,,,,,,,,,,,,,,,,,,,,,,,,,,,
0,33,33,79,1,,5d1463c5d40c1b00167822a8,62c539d918e773dc848437f4,2022-07-06_02h31.54.356,Colour_Asymmetry_Pilot,2022.1.3,Win32,71.90623427,62c50e9c1127f2cd403a315f,,,,,,,,,,,,,,,,,,,,,,,,,,,,,,,,,,,,,,,,,,,,,,,,,,,,,,,,,,,,,,,,,,,,,,,,,,,,,,,,,,,,,,,,,,,,,,,,,,,,,,,,,,,,,,,,,,,,,,,,,,,,,,,,,,,,,,,,,,,,,,,,,,,,,,,,,,,,,,,,,,,
0,34,34,28,1,,5d1463c5d40c1b00167822a8,62c539d918e773dc848437f4,2022-07-06_02h31.54.356,Colour_Asymmetry_Pilot,2022.1.3,Win32,71.90623427,62c50e9c1127f2cd403a315f,,,,,,,,,,,,,,,,,,,,,,,,,,,,,,,,,,,,,,,,,,,,,,,,,,,,,,,,,,,,,,,,,,,,,,,,,,,,,,,,,,,,,,,,,,,,,,,,,,,,,,,,,,,,,,,,,,,,,,,,,,,,,,,,,,,,,,,,,,,,,,,,,,,,,,,,,,,,,,,,,,,
0,35,35,43,1,,5d1463c5d40c1b00167822a8,62c539d918e773dc848437f4,2022-07-06_02h31.54.356,Colour_Asymmetry_Pilot,2022.1.3,Win32,71.90623427,62c50e9c1127f2cd403a315f,,,,,,,,,,,,,,,,,,,,,,,,,,,,,,,,,,,,,,,,,,,,,,,,,,,,,,,,,,,,,,,,,,,,,,,,,,,,,,,,,,,,,,,,,,,,,,,,,,,,,,,,,,,,,,,,,,,,,,,,,,,,,,,,,,,,,,,,,,,,,,,,,,,,,,,,,,,,,,,,,,,
0,36,36,71,1,,5d1463c5d40c1b00167822a8,62c539d918e773dc848437f4,2022-07-06_02h31.54.356,Colour_Asymmetry_Pilot,2022.1.3,Win32,71.90623427,62c50e9c1127f2cd403a315f,,,,,,,,,,,,,,,,,,,,,,,,,,,,,,,,,,,,,,,,,,,,,,,,,,,,,,,,,,,,,,,,,,,,,,,,,,,,,,,,,,,,,,,,,,,,,,,,,,,,,,,,,,,,,,,,,,,,,,,,,,,,,,,,,,,,,,,,,,,,,,,,,,,,,,,,,,,,,,,,,,,
0,37,37,56,1,,5d1463c5d40c1b00167822a8,62c539d918e773dc848437f4,2022-07-06_02h31.54.356,Colour_Asymmetry_Pilot,2022.1.3,Win32,71.90623427,62c50e9c1127f2cd403a315f,,,,,,,,,,,,,,,,,,,,,,,,,,,,,,,,,,,,,,,,,,,,,,,,,,,,,,,,,,,,,,,,,,,,,,,,,,,,,,,,,,,,,,,,,,,,,,,,,,,,,,,,,,,,,,,,,,,,,,,,,,,,,,,,,,,,,,,,,,,,,,,,,,,,,,,,,,,,,,,,,,,
0,38,38,57,1,,5d1463c5d40c1b00167822a8,62c539d918e773dc848437f4,2022-07-06_02h31.54.356,Colour_Asymmetry_Pilot,2022.1.3,Win32,71.90623427,62c50e9c1127f2cd403a315f,,,,,,,,,,,,,,,,,,,,,,,,,,,,,,,,,,,,,,,,,,,,,,,,,,,,,,,,,,,,,,,,,,,,,,,,,,,,,,,,,,,,,,,,,,,,,,,,,,,,,,,,,,,,,,,,,,,,,,,,,,,,,,,,,,,,,,,,,,,,,,,,,,,,,,,,,,,,,,,,,,,
0,39,39,89,1,,5d1463c5d40c1b00167822a8,62c539d918e773dc848437f4,2022-07-06_02h31.54.356,Colour_Asymmetry_Pilot,2022.1.3,Win32,71.90623427,62c50e9c1127f2cd403a315f,,,,,,,,,,,,,,,,,,,,,,,,,,,,,,,,,,,,,,,,,,,,,,,,,,,,,,,,,,,,,,,,,,,,,,,,,,,,,,,,,,,,,,,,,,,,,,,,,,,,,,,,,,,,,,,,,,,,,,,,,,,,,,,,,,,,,,,,,,,,,,,,,,,,,,,,,,,,,,,,,,,
0,40,40,26,1,,5d1463c5d40c1b00167822a8,62c539d918e773dc848437f4,2022-07-06_02h31.54.356,Colour_Asymmetry_Pilot,2022.1.3,Win32,71.90623427,62c50e9c1127f2cd403a315f,,,,,,,,,,,,,,,,,,,,,,,,,,,,,,,,,,,,,,,,,,,,,,,,,,,,,,,,,,,,,,,,,,,,,,,,,,,,,,,,,,,,,,,,,,,,,,,,,,,,,,,,,,,,,,,,,,,,,,,,,,,,,,,,,,,,,,,,,,,,,,,,,,,,,,,,,,,,,,,,,,,
0,41,41,4,1,,5d1463c5d40c1b00167822a8,62c539d918e773dc848437f4,2022-07-06_02h31.54.356,Colour_Asymmetry_Pilot,2022.1.3,Win32,71.90623427,62c50e9c1127f2cd403a315f,,,,,,,,,,,,,,,,,,,,,,,,,,,,,,,,,,,,,,,,,,,,,,,,,,,,,,,,,,,,,,,,,,,,,,,,,,,,,,,,,,,,,,,,,,,,,,,,,,,,,,,,,,,,,,,,,,,,,,,,,,,,,,,,,,,,,,,,,,,,,,,,,,,,,,,,,,,,,,,,,,,
0,42,42,59,1,,5d1463c5d40c1b00167822a8,62c539d918e773dc848437f4,2022-07-06_02h31.54.356,Colour_Asymmetry_Pilot,2022.1.3,Win32,71.90623427,62c50e9c1127f2cd403a315f,,,,,,,,,,,,,,,,,,,,,,,,,,,,,,,,,,,,,,,,,,,,,,,,,,,,,,,,,,,,,,,,,,,,,,,,,,,,,,,,,,,,,,,,,,,,,,,,,,,,,,,,,,,,,,,,,,,,,,,,,,,,,,,,,,,,,,,,,,,,,,,,,,,,,,,,,,,,,,,,,,,
0,43,43,65,1,,5d1463c5d40c1b00167822a8,62c539d918e773dc848437f4,2022-07-06_02h31.54.356,Colour_Asymmetry_Pilot,2022.1.3,Win32,71.90623427,62c50e9c1127f2cd403a315f,,,,,,,,,,,,,,,,,,,,,,,,,,,,,,,,,,,,,,,,,,,,,,,,,,,,,,,,,,,,,,,,,,,,,,,,,,,,,,,,,,,,,,,,,,,,,,,,,,,,,,,,,,,,,,,,,,,,,,,,,,,,,,,,,,,,,,,,,,,,,,,,,,,,,,,,,,,,,,,,,,,
0,44,44,36,1,,5d1463c5d40c1b00167822a8,62c539d918e773dc848437f4,2022-07-06_02h31.54.356,Colour_Asymmetry_Pilot,2022.1.3,Win32,71.90623427,62c50e9c1127f2cd403a315f,,,,,,,,,,,,,,,,,,,,,,,,,,,,,,,,,,,,,,,,,,,,,,,,,,,,,,,,,,,,,,,,,,,,,,,,,,,,,,,,,,,,,,,,,,,,,,,,,,,,,,,,,,,,,,,,,,,,,,,,,,,,,,,,,,,,,,,,,,,,,,,,,,,,,,,,,,,,,,,,,,,
0,45,45,63,1,,5d1463c5d40c1b00167822a8,62c539d918e773dc848437f4,2022-07-06_02h31.54.356,Colour_Asymmetry_Pilot,2022.1.3,Win32,71.90623427,62c50e9c1127f2cd403a315f,,,,,,,,,,,,,,,,,,,,,,,,,,,,,,,,,,,,,,,,,,,,,,,,,,,,,,,,,,,,,,,,,,,,,,,,,,,,,,,,,,,,,,,,,,,,,,,,,,,,,,,,,,,,,,,,,,,,,,,,,,,,,,,,,,,,,,,,,,,,,,,,,,,,,,,,,,,,,,,,,,,
0,46,46,45,1,,5d1463c5d40c1b00167822a8,62c539d918e773dc848437f4,2022-07-06_02h31.54.356,Colour_Asymmetry_Pilot,2022.1.3,Win32,71.90623427,62c50e9c1127f2cd403a315f,,,,,,,,,,,,,,,,,,,,,,,,,,,,,,,,,,,,,,,,,,,,,,,,,,,,,,,,,,,,,,,,,,,,,,,,,,,,,,,,,,,,,,,,,,,,,,,,,,,,,,,,,,,,,,,,,,,,,,,,,,,,,,,,,,,,,,,,,,,,,,,,,,,,,,,,,,,,,,,,,,,
0,47,47,67,1,,5d1463c5d40c1b00167822a8,62c539d918e773dc848437f4,2022-07-06_02h31.54.356,Colour_Asymmetry_Pilot,2022.1.3,Win32,71.90623427,62c50e9c1127f2cd403a315f,,,,,,,,,,,,,,,,,,,,,,,,,,,,,,,,,,,,,,,,,,,,,,,,,,,,,,,,,,,,,,,,,,,,,,,,,,,,,,,,,,,,,,,,,,,,,,,,,,,,,,,,,,,,,,,,,,,,,,,,,,,,,,,,,,,,,,,,,,,,,,,,,,,,,,,,,,,,,,,,,,,
0,48,48,14,1,,5d1463c5d40c1b00167822a8,62c539d918e773dc848437f4,2022-07-06_02h31.54.356,Colour_Asymmetry_Pilot,2022.1.3,Win32,71.90623427,62c50e9c1127f2cd403a315f,,,,,,,,,,,,,,,,,,,,,,,,,,,,,,,,,,,,,,,,,,,,,,,,,,,,,,,,,,,,,,,,,,,,,,,,,,,,,,,,,,,,,,,,,,,,,,,,,,,,,,,,,,,,,,,,,,,,,,,,,,,,,,,,,,,,,,,,,,,,,,,,,,,,,,,,,,,,,,,,,,,
0,49,49,8,1,,5d1463c5d40c1b00167822a8,62c539d918e773dc848437f4,2022-07-06_02h31.54.356,Colour_Asymmetry_Pilot,2022.1.3,Win32,71.90623427,62c50e9c1127f2cd403a315f,,,,,,,,,,,,,,,,,,,,,,,,,,,,,,,,,,,,,,,,,,,,,,,,,,,,,,,,,,,,,,,,,,,,,,,,,,,,,,,,,,,,,,,,,,,,,,,,,,,,,,,,,,,,,,,,,,,,,,,,,,,,,,,,,,,,,,,,,,,,,,,,,,,,,,,,,,,,,,,,,,,
0,50,50,60,1,,5d1463c5d40c1b00167822a8,62c539d918e773dc848437f4,2022-07-06_02h31.54.356,Colour_Asymmetry_Pilot,2022.1.3,Win32,71.90623427,62c50e9c1127f2cd403a315f,,,,,,,,,,,,,,,,,,,,,,,,,,,,,,,,,,,,,,,,,,,,,,,,,,,,,,,,,,,,,,,,,,,,,,,,,,,,,,,,,,,,,,,,,,,,,,,,,,,,,,,,,,,,,,,,,,,,,,,,,,,,,,,,,,,,,,,,,,,,,,,,,,,,,,,,,,,,,,,,,,,
0,51,51,38,1,,5d1463c5d40c1b00167822a8,62c539d918e773dc848437f4,2022-07-06_02h31.54.356,Colour_Asymmetry_Pilot,2022.1.3,Win32,71.90623427,62c50e9c1127f2cd403a315f,,,,,,,,,,,,,,,,,,,,,,,,,,,,,,,,,,,,,,,,,,,,,,,,,,,,,,,,,,,,,,,,,,,,,,,,,,,,,,,,,,,,,,,,,,,,,,,,,,,,,,,,,,,,,,,,,,,,,,,,,,,,,,,,,,,,,,,,,,,,,,,,,,,,,,,,,,,,,,,,,,,
0,52,52,6,1,,5d1463c5d40c1b00167822a8,62c539d918e773dc848437f4,2022-07-06_02h31.54.356,Colour_Asymmetry_Pilot,2022.1.3,Win32,71.90623427,62c50e9c1127f2cd403a315f,,,,,,,,,,,,,,,,,,,,,,,,,,,,,,,,,,,,,,,,,,,,,,,,,,,,,,,,,,,,,,,,,,,,,,,,,,,,,,,,,,,,,,,,,,,,,,,,,,,,,,,,,,,,,,,,,,,,,,,,,,,,,,,,,,,,,,,,,,,,,,,,,,,,,,,,,,,,,,,,,,,
0,53,53,18,1,,5d1463c5d40c1b00167822a8,62c539d918e773dc848437f4,2022-07-06_02h31.54.356,Colour_Asymmetry_Pilot,2022.1.3,Win32,71.90623427,62c50e9c1127f2cd403a315f,,,,,,,,,,,,,,,,,,,,,,,,,,,,,,,,,,,,,,,,,,,,,,,,,,,,,,,,,,,,,,,,,,,,,,,,,,,,,,,,,,,,,,,,,,,,,,,,,,,,,,,,,,,,,,,,,,,,,,,,,,,,,,,,,,,,,,,,,,,,,,,,,,,,,,,,,,,,,,,,,,,
0,54,54,92,1,,5d1463c5d40c1b00167822a8,62c539d918e773dc848437f4,2022-07-06_02h31.54.356,Colour_Asymmetry_Pilot,2022.1.3,Win32,71.90623427,62c50e9c1127f2cd403a315f,,,,,,,,,,,,,,,,,,,,,,,,,,,,,,,,,,,,,,,,,,,,,,,,,,,,,,,,,,,,,,,,,,,,,,,,,,,,,,,,,,,,,,,,,,,,,,,,,,,,,,,,,,,,,,,,,,,,,,,,,,,,,,,,,,,,,,,,,,,,,,,,,,,,,,,,,,,,,,,,,,,
0,55,55,90,1,,5d1463c5d40c1b00167822a8,62c539d918e773dc848437f4,2022-07-06_02h31.54.356,Colour_Asymmetry_Pilot,2022.1.3,Win32,71.90623427,62c50e9c1127f2cd403a315f,,,,,,,,,,,,,,,,,,,,,,,,,,,,,,,,,,,,,,,,,,,,,,,,,,,,,,,,,,,,,,,,,,,,,,,,,,,,,,,,,,,,,,,,,,,,,,,,,,,,,,,,,,,,,,,,,,,,,,,,,,,,,,,,,,,,,,,,,,,,,,,,,,,,,,,,,,,,,,,,,,,
0,56,56,29,1,,5d1463c5d40c1b00167822a8,62c539d918e773dc848437f4,2022-07-06_02h31.54.356,Colour_Asymmetry_Pilot,2022.1.3,Win32,71.90623427,62c50e9c1127f2cd403a315f,,,,,,,,,,,,,,,,,,,,,,,,,,,,,,,,,,,,,,,,,,,,,,,,,,,,,,,,,,,,,,,,,,,,,,,,,,,,,,,,,,,,,,,,,,,,,,,,,,,,,,,,,,,,,,,,,,,,,,,,,,,,,,,,,,,,,,,,,,,,,,,,,,,,,,,,,,,,,,,,,,,
0,57,57,55,1,,5d1463c5d40c1b00167822a8,62c539d918e773dc848437f4,2022-07-06_02h31.54.356,Colour_Asymmetry_Pilot,2022.1.3,Win32,71.90623427,62c50e9c1127f2cd403a315f,,,,,,,,,,,,,,,,,,,,,,,,,,,,,,,,,,,,,,,,,,,,,,,,,,,,,,,,,,,,,,,,,,,,,,,,,,,,,,,,,,,,,,,,,,,,,,,,,,,,,,,,,,,,,,,,,,,,,,,,,,,,,,,,,,,,,,,,,,,,,,,,,,,,,,,,,,,,,,,,,,,
0,58,58,73,1,,5d1463c5d40c1b00167822a8,62c539d918e773dc848437f4,2022-07-06_02h31.54.356,Colour_Asymmetry_Pilot,2022.1.3,Win32,71.90623427,62c50e9c1127f2cd403a315f,,,,,,,,,,,,,,,,,,,,,,,,,,,,,,,,,,,,,,,,,,,,,,,,,,,,,,,,,,,,,,,,,,,,,,,,,,,,,,,,,,,,,,,,,,,,,,,,,,,,,,,,,,,,,,,,,,,,,,,,,,,,,,,,,,,,,,,,,,,,,,,,,,,,,,,,,,,,,,,,,,,
0,59,59,64,1,,5d1463c5d40c1b00167822a8,62c539d918e773dc848437f4,2022-07-06_02h31.54.356,Colour_Asymmetry_Pilot,2022.1.3,Win32,71.90623427,62c50e9c1127f2cd403a315f,,,,,,,,,,,,,,,,,,,,,,,,,,,,,,,,,,,,,,,,,,,,,,,,,,,,,,,,,,,,,,,,,,,,,,,,,,,,,,,,,,,,,,,,,,,,,,,,,,,,,,,,,,,,,,,,,,,,,,,,,,,,,,,,,,,,,,,,,,,,,,,,,,,,,,,,,,,,,,,,,,,
0,60,60,82,1,,5d1463c5d40c1b00167822a8,62c539d918e773dc848437f4,2022-07-06_02h31.54.356,Colour_Asymmetry_Pilot,2022.1.3,Win32,71.90623427,62c50e9c1127f2cd403a315f,,,,,,,,,,,,,,,,,,,,,,,,,,,,,,,,,,,,,,,,,,,,,,,,,,,,,,,,,,,,,,,,,,,,,,,,,,,,,,,,,,,,,,,,,,,,,,,,,,,,,,,,,,,,,,,,,,,,,,,,,,,,,,,,,,,,,,,,,,,,,,,,,,,,,,,,,,,,,,,,,,,
0,61,61,27,1,,5d1463c5d40c1b00167822a8,62c539d918e773dc848437f4,2022-07-06_02h31.54.356,Colour_Asymmetry_Pilot,2022.1.3,Win32,71.90623427,62c50e9c1127f2cd403a315f,,,,,,,,,,,,,,,,,,,,,,,,,,,,,,,,,,,,,,,,,,,,,,,,,,,,,,,,,,,,,,,,,,,,,,,,,,,,,,,,,,,,,,,,,,,,,,,,,,,,,,,,,,,,,,,,,,,,,,,,,,,,,,,,,,,,,,,,,,,,,,,,,,,,,,,,,,,,,,,,,,,
0,62,62,52,1,,5d1463c5d40c1b00167822a8,62c539d918e773dc848437f4,2022-07-06_02h31.54.356,Colour_Asymmetry_Pilot,2022.1.3,Win32,71.90623427,62c50e9c1127f2cd403a315f,,,,,,,,,,,,,,,,,,,,,,,,,,,,,,,,,,,,,,,,,,,,,,,,,,,,,,,,,,,,,,,,,,,,,,,,,,,,,,,,,,,,,,,,,,,,,,,,,,,,,,,,,,,,,,,,,,,,,,,,,,,,,,,,,,,,,,,,,,,,,,,,,,,,,,,,,,,,,,,,,,,
0,63,63,1,1,,5d1463c5d40c1b00167822a8,62c539d918e773dc848437f4,2022-07-06_02h31.54.356,Colour_Asymmetry_Pilot,2022.1.3,Win32,71.90623427,62c50e9c1127f2cd403a315f,,,,,,,,,,,,,,,,,,,,,,,,,,,,,,,,,,,,,,,,,,,,,,,,,,,,,,,,,,,,,,,,,,,,,,,,,,,,,,,,,,,,,,,,,,,,,,,,,,,,,,,,,,,,,,,,,,,,,,,,,,,,,,,,,,,,,,,,,,,,,,,,,,,,,,,,,,,,,,,,,,,
0,64,64,87,1,,5d1463c5d40c1b00167822a8,62c539d918e773dc848437f4,2022-07-06_02h31.54.356,Colour_Asymmetry_Pilot,2022.1.3,Win32,71.90623427,62c50e9c1127f2cd403a315f,,,,,,,,,,,,,,,,,,,,,,,,,,,,,,,,,,,,,,,,,,,,,,,,,,,,,,,,,,,,,,,,,,,,,,,,,,,,,,,,,,,,,,,,,,,,,,,,,,,,,,,,,,,,,,,,,,,,,,,,,,,,,,,,,,,,,,,,,,,,,,,,,,,,,,,,,,,,,,,,,,,
0,65,65,47,1,,5d1463c5d40c1b00167822a8,62c539d918e773dc848437f4,2022-07-06_02h31.54.356,Colour_Asymmetry_Pilot,2022.1.3,Win32,71.90623427,62c50e9c1127f2cd403a315f,,,,,,,,,,,,,,,,,,,,,,,,,,,,,,,,,,,,,,,,,,,,,,,,,,,,,,,,,,,,,,,,,,,,,,,,,,,,,,,,,,,,,,,,,,,,,,,,,,,,,,,,,,,,,,,,,,,,,,,,,,,,,,,,,,,,,,,,,,,,,,,,,,,,,,,,,,,,,,,,,,,
0,66,66,30,1,,5d1463c5d40c1b00167822a8,62c539d918e773dc848437f4,2022-07-06_02h31.54.356,Colour_Asymmetry_Pilot,2022.1.3,Win32,71.90623427,62c50e9c1127f2cd403a315f,,,,,,,,,,,,,,,,,,,,,,,,,,,,,,,,,,,,,,,,,,,,,,,,,,,,,,,,,,,,,,,,,,,,,,,,,,,,,,,,,,,,,,,,,,,,,,,,,,,,,,,,,,,,,,,,,,,,,,,,,,,,,,,,,,,,,,,,,,,,,,,,,,,,,,,,,,,,,,,,,,,
0,67,67,75,1,,5d1463c5d40c1b00167822a8,62c539d918e773dc848437f4,2022-07-06_02h31.54.356,Colour_Asymmetry_Pilot,2022.1.3,Win32,71.90623427,62c50e9c1127f2cd403a315f,,,,,,,,,,,,,,,,,,,,,,,,,,,,,,,,,,,,,,,,,,,,,,,,,,,,,,,,,,,,,,,,,,,,,,,,,,,,,,,,,,,,,,,,,,,,,,,,,,,,,,,,,,,,,,,,,,,,,,,,,,,,,,,,,,,,,,,,,,,,,,,,,,,,,,,,,,,,,,,,,,,
0,68,68,58,1,,5d1463c5d40c1b00167822a8,62c539d918e773dc848437f4,2022-07-06_02h31.54.356,Colour_Asymmetry_Pilot,2022.1.3,Win32,71.90623427,62c50e9c1127f2cd403a315f,,,,,,,,,,,,,,,,,,,,,,,,,,,,,,,,,,,,,,,,,,,,,,,,,,,,,,,,,,,,,,,,,,,,,,,,,,,,,,,,,,,,,,,,,,,,,,,,,,,,,,,,,,,,,,,,,,,,,,,,,,,,,,,,,,,,,,,,,,,,,,,,,,,,,,,,,,,,,,,,,,,
0,69,69,32,1,,5d1463c5d40c1b00167822a8,62c539d918e773dc848437f4,2022-07-06_02h31.54.356,Colour_Asymmetry_Pilot,2022.1.3,Win32,71.90623427,62c50e9c1127f2cd403a315f,,,,,,,,,,,,,,,,,,,,,,,,,,,,,,,,,,,,,,,,,,,,,,,,,,,,,,,,,,,,,,,,,,,,,,,,,,,,,,,,,,,,,,,,,,,,,,,,,,,,,,,,,,,,,,,,,,,,,,,,,,,,,,,,,,,,,,,,,,,,,,,,,,,,,,,,,,,,,,,,,,,
0,70,70,69,1,,5d1463c5d40c1b00167822a8,62c539d918e773dc848437f4,2022-07-06_02h31.54.356,Colour_Asymmetry_Pilot,2022.1.3,Win32,71.90623427,62c50e9c1127f2cd403a315f,,,,,,,,,,,,,,,,,,,,,,,,,,,,,,,,,,,,,,,,,,,,,,,,,,,,,,,,,,,,,,,,,,,,,,,,,,,,,,,,,,,,,,,,,,,,,,,,,,,,,,,,,,,,,,,,,,,,,,,,,,,,,,,,,,,,,,,,,,,,,,,,,,,,,,,,,,,,,,,,,,,
0,71,71,46,1,,5d1463c5d40c1b00167822a8,62c539d918e773dc848437f4,2022-07-06_02h31.54.356,Colour_Asymmetry_Pilot,2022.1.3,Win32,71.90623427,62c50e9c1127f2cd403a315f,,,,,,,,,,,,,,,,,,,,,,,,,,,,,,,,,,,,,,,,,,,,,,,,,,,,,,,,,,,,,,,,,,,,,,,,,,,,,,,,,,,,,,,,,,,,,,,,,,,,,,,,,,,,,,,,,,,,,,,,,,,,,,,,,,,,,,,,,,,,,,,,,,,,,,,,,,,,,,,,,,,
0,72,72,2,1,,5d1463c5d40c1b00167822a8,62c539d918e773dc848437f4,2022-07-06_02h31.54.356,Colour_Asymmetry_Pilot,2022.1.3,Win32,71.90623427,62c50e9c1127f2cd403a315f,,,,,,,,,,,,,,,,,,,,,,,,,,,,,,,,,,,,,,,,,,,,,,,,,,,,,,,,,,,,,,,,,,,,,,,,,,,,,,,,,,,,,,,,,,,,,,,,,,,,,,,,,,,,,,,,,,,,,,,,,,,,,,,,,,,,,,,,,,,,,,,,,,,,,,,,,,,,,,,,,,,
0,73,73,39,1,,5d1463c5d40c1b00167822a8,62c539d918e773dc848437f4,2022-07-06_02h31.54.356,Colour_Asymmetry_Pilot,2022.1.3,Win32,71.90623427,62c50e9c1127f2cd403a315f,,,,,,,,,,,,,,,,,,,,,,,,,,,,,,,,,,,,,,,,,,,,,,,,,,,,,,,,,,,,,,,,,,,,,,,,,,,,,,,,,,,,,,,,,,,,,,,,,,,,,,,,,,,,,,,,,,,,,,,,,,,,,,,,,,,,,,,,,,,,,,,,,,,,,,,,,,,,,,,,,,,
0,74,74,35,1,,5d1463c5d40c1b00167822a8,62c539d918e773dc848437f4,2022-07-06_02h31.54.356,Colour_Asymmetry_Pilot,2022.1.3,Win32,71.90623427,62c50e9c1127f2cd403a315f,,,,,,,,,,,,,,,,,,,,,,,,,,,,,,,,,,,,,,,,,,,,,,,,,,,,,,,,,,,,,,,,,,,,,,,,,,,,,,,,,,,,,,,,,,,,,,,,,,,,,,,,,,,,,,,,,,,,,,,,,,,,,,,,,,,,,,,,,,,,,,,,,,,,,,,,,,,,,,,,,,,
0,75,75,5,1,,5d1463c5d40c1b00167822a8,62c539d918e773dc848437f4,2022-07-06_02h31.54.356,Colour_Asymmetry_Pilot,2022.1.3,Win32,71.90623427,62c50e9c1127f2cd403a315f,,,,,,,,,,,,,,,,,,,,,,,,,,,,,,,,,,,,,,,,,,,,,,,,,,,,,,,,,,,,,,,,,,,,,,,,,,,,,,,,,,,,,,,,,,,,,,,,,,,,,,,,,,,,,,,,,,,,,,,,,,,,,,,,,,,,,,,,,,,,,,,,,,,,,,,,,,,,,,,,,,,
0,76,76,74,1,,5d1463c5d40c1b00167822a8,62c539d918e773dc848437f4,2022-07-06_02h31.54.356,Colour_Asymmetry_Pilot,2022.1.3,Win32,71.90623427,62c50e9c1127f2cd403a315f,,,,,,,,,,,,,,,,,,,,,,,,,,,,,,,,,,,,,,,,,,,,,,,,,,,,,,,,,,,,,,,,,,,,,,,,,,,,,,,,,,,,,,,,,,,,,,,,,,,,,,,,,,,,,,,,,,,,,,,,,,,,,,,,,,,,,,,,,,,,,,,,,,,,,,,,,,,,,,,,,,,
0,77,77,34,1,,5d1463c5d40c1b00167822a8,62c539d918e773dc848437f4,2022-07-06_02h31.54.356,Colour_Asymmetry_Pilot,2022.1.3,Win32,71.90623427,62c50e9c1127f2cd403a315f,,,,,,,,,,,,,,,,,,,,,,,,,,,,,,,,,,,,,,,,,,,,,,,,,,,,,,,,,,,,,,,,,,,,,,,,,,,,,,,,,,,,,,,,,,,,,,,,,,,,,,,,,,,,,,,,,,,,,,,,,,,,,,,,,,,,,,,,,,,,,,,,,,,,,,,,,,,,,,,,,,,
0,78,78,62,1,,5d1463c5d40c1b00167822a8,62c539d918e773dc848437f4,2022-07-06_02h31.54.356,Colour_Asymmetry_Pilot,2022.1.3,Win32,71.90623427,62c50e9c1127f2cd403a315f,,,,,,,,,,,,,,,,,,,,,,,,,,,,,,,,,,,,,,,,,,,,,,,,,,,,,,,,,,,,,,,,,,,,,,,,,,,,,,,,,,,,,,,,,,,,,,,,,,,,,,,,,,,,,,,,,,,,,,,,,,,,,,,,,,,,,,,,,,,,,,,,,,,,,,,,,,,,,,,,,,,
0,79,79,37,1,,5d1463c5d40c1b00167822a8,62c539d918e773dc848437f4,2022-07-06_02h31.54.356,Colour_Asymmetry_Pilot,2022.1.3,Win32,71.90623427,62c50e9c1127f2cd403a315f,,,,,,,,,,,,,,,,,,,,,,,,,,,,,,,,,,,,,,,,,,,,,,,,,,,,,,,,,,,,,,,,,,,,,,,,,,,,,,,,,,,,,,,,,,,,,,,,,,,,,,,,,,,,,,,,,,,,,,,,,,,,,,,,,,,,,,,,,,,,,,,,,,,,,,,,,,,,,,,,,,,
0,80,80,70,1,,5d1463c5d40c1b00167822a8,62c539d918e773dc848437f4,2022-07-06_02h31.54.356,Colour_Asymmetry_Pilot,2022.1.3,Win32,71.90623427,62c50e9c1127f2cd403a315f,,,,,,,,,,,,,,,,,,,,,,,,,,,,,,,,,,,,,,,,,,,,,,,,,,,,,,,,,,,,,,,,,,,,,,,,,,,,,,,,,,,,,,,,,,,,,,,,,,,,,,,,,,,,,,,,,,,,,,,,,,,,,,,,,,,,,,,,,,,,,,,,,,,,,,,,,,,,,,,,,,,
0,81,81,76,1,,5d1463c5d40c1b00167822a8,62c539d918e773dc848437f4,2022-07-06_02h31.54.356,Colour_Asymmetry_Pilot,2022.1.3,Win32,71.90623427,62c50e9c1127f2cd403a315f,,,,,,,,,,,,,,,,,,,,,,,,,,,,,,,,,,,,,,,,,,,,,,,,,,,,,,,,,,,,,,,,,,,,,,,,,,,,,,,,,,,,,,,,,,,,,,,,,,,,,,,,,,,,,,,,,,,,,,,,,,,,,,,,,,,,,,,,,,,,,,,,,,,,,,,,,,,,,,,,,,,
0,82,82,68,1,,5d1463c5d40c1b00167822a8,62c539d918e773dc848437f4,2022-07-06_02h31.54.356,Colour_Asymmetry_Pilot,2022.1.3,Win32,71.90623427,62c50e9c1127f2cd403a315f,,,,,,,,,,,,,,,,,,,,,,,,,,,,,,,,,,,,,,,,,,,,,,,,,,,,,,,,,,,,,,,,,,,,,,,,,,,,,,,,,,,,,,,,,,,,,,,,,,,,,,,,,,,,,,,,,,,,,,,,,,,,,,,,,,,,,,,,,,,,,,,,,,,,,,,,,,,,,,,,,,,
0,83,83,7,1,,5d1463c5d40c1b00167822a8,62c539d918e773dc848437f4,2022-07-06_02h31.54.356,Colour_Asymmetry_Pilot,2022.1.3,Win32,71.90623427,62c50e9c1127f2cd403a315f,,,,,,,,,,,,,,,,,,,,,,,,,,,,,,,,,,,,,,,,,,,,,,,,,,,,,,,,,,,,,,,,,,,,,,,,,,,,,,,,,,,,,,,,,,,,,,,,,,,,,,,,,,,,,,,,,,,,,,,,,,,,,,,,,,,,,,,,,,,,,,,,,,,,,,,,,,,,,,,,,,,
0,84,84,41,1,,5d1463c5d40c1b00167822a8,62c539d918e773dc848437f4,2022-07-06_02h31.54.356,Colour_Asymmetry_Pilot,2022.1.3,Win32,71.90623427,62c50e9c1127f2cd403a315f,,,,,,,,,,,,,,,,,,,,,,,,,,,,,,,,,,,,,,,,,,,,,,,,,,,,,,,,,,,,,,,,,,,,,,,,,,,,,,,,,,,,,,,,,,,,,,,,,,,,,,,,,,,,,,,,,,,,,,,,,,,,,,,,,,,,,,,,,,,,,,,,,,,,,,,,,,,,,,,,,,,
0,85,85,51,1,,5d1463c5d40c1b00167822a8,62c539d918e773dc848437f4,2022-07-06_02h31.54.356,Colour_Asymmetry_Pilot,2022.1.3,Win32,71.90623427,62c50e9c1127f2cd403a315f,,,,,,,,,,,,,,,,,,,,,,,,,,,,,,,,,,,,,,,,,,,,,,,,,,,,,,,,,,,,,,,,,,,,,,,,,,,,,,,,,,,,,,,,,,,,,,,,,,,,,,,,,,,,,,,,,,,,,,,,,,,,,,,,,,,,,,,,,,,,,,,,,,,,,,,,,,,,,,,,,,,
0,86,86,15,1,,5d1463c5d40c1b00167822a8,62c539d918e773dc848437f4,2022-07-06_02h31.54.356,Colour_Asymmetry_Pilot,2022.1.3,Win32,71.90623427,62c50e9c1127f2cd403a315f,,,,,,,,,,,,,,,,,,,,,,,,,,,,,,,,,,,,,,,,,,,,,,,,,,,,,,,,,,,,,,,,,,,,,,,,,,,,,,,,,,,,,,,,,,,,,,,,,,,,,,,,,,,,,,,,,,,,,,,,,,,,,,,,,,,,,,,,,,,,,,,,,,,,,,,,,,,,,,,,,,,
0,87,87,31,1,,5d1463c5d40c1b00167822a8,62c539d918e773dc848437f4,2022-07-06_02h31.54.356,Colour_Asymmetry_Pilot,2022.1.3,Win32,71.90623427,62c50e9c1127f2cd403a315f,,,,,,,,,,,,,,,,,,,,,,,,,,,,,,,,,,,,,,,,,,,,,,,,,,,,,,,,,,,,,,,,,,,,,,,,,,,,,,,,,,,,,,,,,,,,,,,,,,,,,,,,,,,,,,,,,,,,,,,,,,,,,,,,,,,,,,,,,,,,,,,,,,,,,,,,,,,,,,,,,,,
0,88,88,42,1,,5d1463c5d40c1b00167822a8,62c539d918e773dc848437f4,2022-07-06_02h31.54.356,Colour_Asymmetry_Pilot,2022.1.3,Win32,71.90623427,62c50e9c1127f2cd403a315f,,,,,,,,,,,,,,,,,,,,,,,,,,,,,,,,,,,,,,,,,,,,,,,,,,,,,,,,,,,,,,,,,,,,,,,,,,,,,,,,,,,,,,,,,,,,,,,,,,,,,,,,,,,,,,,,,,,,,,,,,,,,,,,,,,,,,,,,,,,,,,,,,,,,,,,,,,,,,,,,,,,
0,89,89,11,1,,5d1463c5d40c1b00167822a8,62c539d918e773dc848437f4,2022-07-06_02h31.54.356,Colour_Asymmetry_Pilot,2022.1.3,Win32,71.90623427,62c50e9c1127f2cd403a315f,,,,,,,,,,,,,,,,,,,,,,,,,,,,,,,,,,,,,,,,,,,,,,,,,,,,,,,,,,,,,,,,,,,,,,,,,,,,,,,,,,,,,,,,,,,,,,,,,,,,,,,,,,,,,,,,,,,,,,,,,,,,,,,,,,,,,,,,,,,,,,,,,,,,,,,,,,,,,,,,,,,
0,90,90,50,1,,5d1463c5d40c1b00167822a8,62c539d918e773dc848437f4,2022-07-06_02h31.54.356,Colour_Asymmetry_Pilot,2022.1.3,Win32,71.90623427,62c50e9c1127f2cd403a315f,,,,,,,,,,,,,,,,,,,,,,,,,,,,,,,,,,,,,,,,,,,,,,,,,,,,,,,,,,,,,,,,,,,,,,,,,,,,,,,,,,,,,,,,,,,,,,,,,,,,,,,,,,,,,,,,,,,,,,,,,,,,,,,,,,,,,,,,,,,,,,,,,,,,,,,,,,,,,,,,,,,
0,91,91,72,1,,5d1463c5d40c1b00167822a8,62c539d918e773dc848437f4,2022-07-06_02h31.54.356,Colour_Asymmetry_Pilot,2022.1.3,Win32,71.90623427,62c50e9c1127f2cd403a315f,,,,,,,,,,,,,,,,,,,,,,,,,,,,,,,,,,,,,,,,,,,,,,,,,,,,,,,,,,,,,,,,,,,,,,,,,,,,,,,,,,,,,,,,,,,,,,,,,,,,,,,,,,,,,,,,,,,,,,,,,,,,,,,,,,,,,,,,,,,,,,,,,,,,,,,,,,,,,,,,,,,
0,92,92,49,1,,5d1463c5d40c1b00167822a8,62c539d918e773dc848437f4,2022-07-06_02h31.54.356,Colour_Asymmetry_Pilot,2022.1.3,Win32,71.90623427,62c50e9c1127f2cd403a315f,,,,,,,,,,,,,,,,,,,,,,,,,,,,,,,,,,,,,,,,,,,,,,,,,,,,,,,,,,,,,,,,,,,,,,,,,,,,,,,,,,,,,,,,,,,,,,,,,,,,,,,,,,,,,,,,,,,,,,,,,,,,,,,,,,,,,,,,,,,,,,,,,,,,,,,,,,,,,,,,,,,
,,,,,,5d1463c5d40c1b00167822a8,62c539d918e773dc848437f4,2022-07-06_02h31.54.356,Colour_Asymmetry_Pilot,2022.1.3,Win32,71.90623427,62c50e9c1127f2cd403a315f,0,0,0,8,1,onetwo,,,,,,,,,,,,,,,,,,,,,,,,,,,,,,,,,,,,,,,,,,,,,,,,,,,,,,,,,,,,,,,,,,,,,,,,,,,,,,,,,,,,,,,,,,,,,,,,,,,,,,,,,,,,,,,,,,,,,,,,,,,,,,,,,,,,,,,,,,,,,,,,,,,,,,,,,,,,,
,,,,,,5d1463c5d40c1b00167822a8,62c539d918e773dc848437f4,2022-07-06_02h31.54.356,Colour_Asymmetry_Pilot,2022.1.3,Win32,71.90623427,62c50e9c1127f2cd403a315f,0,1,1,56,1,onetwo,,,,,,,,,,,,,,,,,,,,,,,,,,,,,,,,,,,,,,,,,,,,,,,,,,,,,,,,,,,,,,,,,,,,,,,,,,,,,,,,,,,,,,,,,,,,,,,,,,,,,,,,,,,,,,,,,,,,,,,,,,,,,,,,,,,,,,,,,,,,,,,,,,,,,,,,,,,,,
,,,,,,5d1463c5d40c1b00167822a8,62c539d918e773dc848437f4,2022-07-06_02h31.54.356,Colour_Asymmetry_Pilot,2022.1.3,Win32,71.90623427,62c50e9c1127f2cd403a315f,0,2,2,94,1,fourtwo,,,,,,,,,,,,,,,,,,,,,,,,,,,,,,,,,,,,,,,,,,,,,,,,,,,,,,,,,,,,,,,,,,,,,,,,,,,,,,,,,,,,,,,,,,,,,,,,,,,,,,,,,,,,,,,,,,,,,,,,,,,,,,,,,,,,,,,,,,,,,,,,,,,,,,,,,,,,,
,,,,,,5d1463c5d40c1b00167822a8,62c539d918e773dc848437f4,2022-07-06_02h31.54.356,Colour_Asymmetry_Pilot,2022.1.3,Win32,71.90623427,62c50e9c1127f2cd403a315f,0,3,3,37,1,threefour,,,,,,,,,,,,,,,,,,,,,,,,,,,,,,,,,,,,,,,,,,,,,,,,,,,,,,,,,,,,,,,,,,,,,,,,,,,,,,,,,,,,,,,,,,,,,,,,,,,,,,,,,,,,,,,,,,,,,,,,,,,,,,,,,,,,,,,,,,,,,,,,,,,,,,,,,,,,,
,,,,,,5d1463c5d40c1b00167822a8,62c539d918e773dc848437f4,2022-07-06_02h31.54.356,Colour_Asymmetry_Pilot,2022.1.3,Win32,71.90623427,62c50e9c1127f2cd403a315f,0,4,4,50,1,twoone,,,,,,,,,,,,,,,,,,,,,,,,,,,,,,,,,,,,,,,,,,,,,,,,,,,,,,,,,,,,,,,,,,,,,,,,,,,,,,,,,,,,,,,,,,,,,,,,,,,,,,,,,,,,,,,,,,,,,,,,,,,,,,,,,,,,,,,,,,,,,,,,,,,,,,,,,,,,,
,,,,,,5d1463c5d40c1b00167822a8,62c539d918e773dc848437f4,2022-07-06_02h31.54.356,Colour_Asymmetry_Pilot,2022.1.3,Win32,71.90623427,62c50e9c1127f2cd403a315f,0,5,5,14,1,fourtwo,,,,,,,,,,,,,,,,,,,,,,,,,,,,,,,,,,,,,,,,,,,,,,,,,,,,,,,,,,,,,,,,,,,,,,,,,,,,,,,,,,,,,,,,,,,,,,,,,,,,,,,,,,,,,,,,,,,,,,,,,,,,,,,,,,,,,,,,,,,,,,,,,,,,,,,,,,,,,
,,,,,,5d1463c5d40c1b00167822a8,62c539d918e773dc848437f4,2022-07-06_02h31.54.356,Colour_Asymmetry_Pilot,2022.1.3,Win32,71.90623427,62c50e9c1127f2cd403a315f,0,6,6,155,1,twofour,,,,,,,,,,,,,,,,,,,,,,,,,,,,,,,,,,,,,,,,,,,,,,,,,,,,,,,,,,,,,,,,,,,,,,,,,,,,,,,,,,,,,,,,,,,,,,,,,,,,,,,,,,,,,,,,,,,,,,,,,,,,,,,,,,,,,,,,,,,,,,,,,,,,,,,,,,,,,
,,,,,,5d1463c5d40c1b00167822a8,62c539d918e773dc848437f4,2022-07-06_02h31.54.356,Colour_Asymmetry_Pilot,2022.1.3,Win32,71.90623427,62c50e9c1127f2cd403a315f,0,7,7,95,1,fourthree,,,,,,,,,,,,,,,,,,,,,,,,,,,,,,,,,,,,,,,,,,,,,,,,,,,,,,,,,,,,,,,,,,,,,,,,,,,,,,,,,,,,,,,,,,,,,,,,,,,,,,,,,,,,,,,,,,,,,,,,,,,,,,,,,,,,,,,,,,,,,,,,,,,,,,,,,,,,,
,,,,,,5d1463c5d40c1b00167822a8,62c539d918e773dc848437f4,2022-07-06_02h31.54.356,Colour_Asymmetry_Pilot,2022.1.3,Win32,71.90623427,62c50e9c1127f2cd403a315f,0,8,8,97,1,onethree,,,,,,,,,,,,,,,,,,,,,,,,,,,,,,,,,,,,,,,,,,,,,,,,,,,,,,,,,,,,,,,,,,,,,,,,,,,,,,,,,,,,,,,,,,,,,,,,,,,,,,,,,,,,,,,,,,,,,,,,,,,,,,,,,,,,,,,,,,,,,,,,,,,,,,,,,,,,,
,,,,,,5d1463c5d40c1b00167822a8,62c539d918e773dc848437f4,2022-07-06_02h31.54.356,Colour_Asymmetry_Pilot,2022.1.3,Win32,71.90623427,62c50e9c1127f2cd403a315f,0,9,9,109,1,threefour,,,,,,,,,,,,,,,,,,,,,,,,,,,,,,,,,,,,,,,,,,,,,,,,,,,,,,,,,,,,,,,,,,,,,,,,,,,,,,,,,,,,,,,,,,,,,,,,,,,,,,,,,,,,,,,,,,,,,,,,,,,,,,,,,,,,,,,,,,,,,,,,,,,,,,,,,,,,,
,,,,,,5d1463c5d40c1b00167822a8,62c539d918e773dc848437f4,2022-07-06_02h31.54.356,Colour_Asymmetry_Pilot,2022.1.3,Win32,71.90623427,62c50e9c1127f2cd403a315f,0,10,10,71,1,fourthree,,,,,,,,,,,,,,,,,,,,,,,,,,,,,,,,,,,,,,,,,,,,,,,,,,,,,,,,,,,,,,,,,,,,,,,,,,,,,,,,,,,,,,,,,,,,,,,,,,,,,,,,,,,,,,,,,,,,,,,,,,,,,,,,,,,,,,,,,,,,,,,,,,,,,,,,,,,,,
,,,,,,5d1463c5d40c1b00167822a8,62c539d918e773dc848437f4,2022-07-06_02h31.54.356,Colour_Asymmetry_Pilot,2022.1.3,Win32,71.90623427,62c50e9c1127f2cd403a315f,0,11,11,3,1,twofour,,,,,,,,,,,,,,,,,,,,,,,,,,,,,,,,,,,,,,,,,,,,,,,,,,,,,,,,,,,,,,,,,,,,,,,,,,,,,,,,,,,,,,,,,,,,,,,,,,,,,,,,,,,,,,,,,,,,,,,,,,,,,,,,,,,,,,,,,,,,,,,,,,,,,,,,,,,,,
,,,,,,5d1463c5d40c1b00167822a8,62c539d918e773dc848437f4,2022-07-06_02h31.54.356,Colour_Asymmetry_Pilot,2022.1.3,Win32,71.90623427,62c50e9c1127f2cd403a315f,0,12,12,19,1,twofour,,,,,,,,,,,,,,,,,,,,,,,,,,,,,,,,,,,,,,,,,,,,,,,,,,,,,,,,,,,,,,,,,,,,,,,,,,,,,,,,,,,,,,,,,,,,,,,,,,,,,,,,,,,,,,,,,,,,,,,,,,,,,,,,,,,,,,,,,,,,,,,,,,,,,,,,,,,,,
,,,,,,5d1463c5d40c1b00167822a8,62c539d918e773dc848437f4,2022-07-06_02h31.54.356,Colour_Asymmetry_Pilot,2022.1.3,Win32,71.90623427,62c50e9c1127f2cd403a315f,0,13,13,110,1,fourtwo,,,,,,,,,,,,,,,,,,,,,,,,,,,,,,,,,,,,,,,,,,,,,,,,,,,,,,,,,,,,,,,,,,,,,,,,,,,,,,,,,,,,,,,,,,,,,,,,,,,,,,,,,,,,,,,,,,,,,,,,,,,,,,,,,,,,,,,,,,,,,,,,,,,,,,,,,,,,,
,,,,,,5d1463c5d40c1b00167822a8,62c539d918e773dc848437f4,2022-07-06_02h31.54.356,Colour_Asymmetry_Pilot,2022.1.3,Win32,71.90623427,62c50e9c1127f2cd403a315f,0,14,14,42,1,twoone,,,,,,,,,,,,,,,,,,,,,,,,,,,,,,,,,,,,,,,,,,,,,,,,,,,,,,,,,,,,,,,,,,,,,,,,,,,,,,,,,,,,,,,,,,,,,,,,,,,,,,,,,,,,,,,,,,,,,,,,,,,,,,,,,,,,,,,,,,,,,,,,,,,,,,,,,,,,,
,,,,,,5d1463c5d40c1b00167822a8,62c539d918e773dc848437f4,2022-07-06_02h31.54.356,Colour_Asymmetry_Pilot,2022.1.3,Win32,71.90623427,62c50e9c1127f2cd403a315f,0,15,15,151,1,fourthree,,,,,,,,,,,,,,,,,,,,,,,,,,,,,,,,,,,,,,,,,,,,,,,,,,,,,,,,,,,,,,,,,,,,,,,,,,,,,,,,,,,,,,,,,,,,,,,,,,,,,,,,,,,,,,,,,,,,,,,,,,,,,,,,,,,,,,,,,,,,,,,,,,,,,,,,,,,,,
,,,,,,5d1463c5d40c1b00167822a8,62c539d918e773dc848437f4,2022-07-06_02h31.54.356,Colour_Asymmetry_Pilot,2022.1.3,Win32,71.90623427,62c50e9c1127f2cd403a315f,0,16,16,138,1,twoone,,,,,,,,,,,,,,,,,,,,,,,,,,,,,,,,,,,,,,,,,,,,,,,,,,,,,,,,,,,,,,,,,,,,,,,,,,,,,,,,,,,,,,,,,,,,,,,,,,,,,,,,,,,,,,,,,,,,,,,,,,,,,,,,,,,,,,,,,,,,,,,,,,,,,,,,,,,,,
,,,,,,5d1463c5d40c1b00167822a8,62c539d918e773dc848437f4,2022-07-06_02h31.54.356,Colour_Asymmetry_Pilot,2022.1.3,Win32,71.90623427,62c50e9c1127f2cd403a315f,0,17,17,60,1,threeone,,,,,,,,,,,,,,,,,,,,,,,,,,,,,,,,,,,,,,,,,,,,,,,,,,,,,,,,,,,,,,,,,,,,,,,,,,,,,,,,,,,,,,,,,,,,,,,,,,,,,,,,,,,,,,,,,,,,,,,,,,,,,,,,,,,,,,,,,,,,,,,,,,,,,,,,,,,,,
,,,,,,5d1463c5d40c1b00167822a8,62c539d918e773dc848437f4,2022-07-06_02h31.54.356,Colour_Asymmetry_Pilot,2022.1.3,Win32,71.90623427,62c50e9c1127f2cd403a315f,0,18,18,9,1,onethree,,,,,,,,,,,,,,,,,,,,,,,,,,,,,,,,,,,,,,,,,,,,,,,,,,,,,,,,,,,,,,,,,,,,,,,,,,,,,,,,,,,,,,,,,,,,,,,,,,,,,,,,,,,,,,,,,,,,,,,,,,,,,,,,,,,,,,,,,,,,,,,,,,,,,,,,,,,,,
,,,,,,5d1463c5d40c1b00167822a8,62c539d918e773dc848437f4,2022-07-06_02h31.54.356,Colour_Asymmetry_Pilot,2022.1.3,Win32,71.90623427,62c50e9c1127f2cd403a315f,0,19,19,141,1,threefour,,,,,,,,,,,,,,,,,,,,,,,,,,,,,,,,,,,,,,,,,,,,,,,,,,,,,,,,,,,,,,,,,,,,,,,,,,,,,,,,,,,,,,,,,,,,,,,,,,,,,,,,,,,,,,,,,,,,,,,,,,,,,,,,,,,,,,,,,,,,,,,,,,,,,,,,,,,,,
,,,,,,5d1463c5d40c1b00167822a8,62c539d918e773dc848437f4,2022-07-06_02h31.54.356,Colour_Asymmetry_Pilot,2022.1.3,Win32,71.90623427,62c50e9c1127f2cd403a315f,0,20,20,152,1,onetwo,,,,,,,,,,,,,,,,,,,,,,,,,,,,,,,,,,,,,,,,,,,,,,,,,,,,,,,,,,,,,,,,,,,,,,,,,,,,,,,,,,,,,,,,,,,,,,,,,,,,,,,,,,,,,,,,,,,,,,,,,,,,,,,,,,,,,,,,,,,,,,,,,,,,,,,,,,,,,
,,,,,,5d1463c5d40c1b00167822a8,62c539d918e773dc848437f4,2022-07-06_02h31.54.356,Colour_Asymmetry_Pilot,2022.1.3,Win32,71.90623427,62c50e9c1127f2cd403a315f,0,21,21,38,1,fourtwo,,,,,,,,,,,,,,,,,,,,,,,,,,,,,,,,,,,,,,,,,,,,,,,,,,,,,,,,,,,,,,,,,,,,,,,,,,,,,,,,,,,,,,,,,,,,,,,,,,,,,,,,,,,,,,,,,,,,,,,,,,,,,,,,,,,,,,,,,,,,,,,,,,,,,,,,,,,,,
,,,,,,5d1463c5d40c1b00167822a8,62c539d918e773dc848437f4,2022-07-06_02h31.54.356,Colour_Asymmetry_Pilot,2022.1.3,Win32,71.90623427,62c50e9c1127f2cd403a315f,0,22,22,145,1,onethree,,,,,,,,,,,,,,,,,,,,,,,,,,,,,,,,,,,,,,,,,,,,,,,,,,,,,,,,,,,,,,,,,,,,,,,,,,,,,,,,,,,,,,,,,,,,,,,,,,,,,,,,,,,,,,,,,,,,,,,,,,,,,,,,,,,,,,,,,,,,,,,,,,,,,,,,,,,,,
,,,,,,5d1463c5d40c1b00167822a8,62c539d918e773dc848437f4,2022-07-06_02h31.54.356,Colour_Asymmetry_Pilot,2022.1.3,Win32,71.90623427,62c50e9c1127f2cd403a315f,0,23,23,153,1,onethree,,,,,,,,,,,,,,,,,,,,,,,,,,,,,,,,,,,,,,,,,,,,,,,,,,,,,,,,,,,,,,,,,,,,,,,,,,,,,,,,,,,,,,,,,,,,,,,,,,,,,,,,,,,,,,,,,,,,,,,,,,,,,,,,,,,,,,,,,,,,,,,,,,,,,,,,,,,,,
,,,,,,5d1463c5d40c1b00167822a8,62c539d918e773dc848437f4,2022-07-06_02h31.54.356,Colour_Asymmetry_Pilot,2022.1.3,Win32,71.90623427,62c50e9c1127f2cd403a315f,0,24,24,157,1,threefour,,,,,,,,,,,,,,,,,,,,,,,,,,,,,,,,,,,,,,,,,,,,,,,,,,,,,,,,,,,,,,,,,,,,,,,,,,,,,,,,,,,,,,,,,,,,,,,,,,,,,,,,,,,,,,,,,,,,,,,,,,,,,,,,,,,,,,,,,,,,,,,,,,,,,,,,,,,,,
,,,,,,5d1463c5d40c1b00167822a8,62c539d918e773dc848437f4,2022-07-06_02h31.54.356,Colour_Asymmetry_Pilot,2022.1.3,Win32,71.90623427,62c50e9c1127f2cd403a315f,0,25,25,161,1,onethree,,,,,,,,,,,,,,,,,,,,,,,,,,,,,,,,,,,,,,,,,,,,,,,,,,,,,,,,,,,,,,,,,,,,,,,,,,,,,,,,,,,,,,,,,,,,,,,,,,,,,,,,,,,,,,,,,,,,,,,,,,,,,,,,,,,,,,,,,,,,,,,,,,,,,,,,,,,,,
,,,,,,5d1463c5d40c1b00167822a8,62c539d918e773dc848437f4,2022-07-06_02h31.54.356,Colour_Asymmetry_Pilot,2022.1.3,Win32,71.90623427,62c50e9c1127f2cd403a315f,0,26,26,7,1,fourthree,,,,,,,,,,,,,,,,,,,,,,,,,,,,,,,,,,,,,,,,,,,,,,,,,,,,,,,,,,,,,,,,,,,,,,,,,,,,,,,,,,,,,,,,,,,,,,,,,,,,,,,,,,,,,,,,,,,,,,,,,,,,,,,,,,,,,,,,,,,,,,,,,,,,,,,,,,,,,
,,,,,,5d1463c5d40c1b00167822a8,62c539d918e773dc848437f4,2022-07-06_02h31.54.356,Colour_Asymmetry_Pilot,2022.1.3,Win32,71.90623427,62c50e9c1127f2cd403a315f,0,27,27,16,1,onetwo,,,,,,,,,,,,,,,,,,,,,,,,,,,,,,,,,,,,,,,,,,,,,,,,,,,,,,,,,,,,,,,,,,,,,,,,,,,,,,,,,,,,,,,,,,,,,,,,,,,,,,,,,,,,,,,,,,,,,,,,,,,,,,,,,,,,,,,,,,,,,,,,,,,,,,,,,,,,,
,,,,,,5d1463c5d40c1b00167822a8,62c539d918e773dc848437f4,2022-07-06_02h31.54.356,Colour_Asymmetry_Pilot,2022.1.3,Win32,71.90623427,62c50e9c1127f2cd403a315f,0,28,28,115,1,twofour,,,,,,,,,,,,,,,,,,,,,,,,,,,,,,,,,,,,,,,,,,,,,,,,,,,,,,,,,,,,,,,,,,,,,,,,,,,,,,,,,,,,,,,,,,,,,,,,,,,,,,,,,,,,,,,,,,,,,,,,,,,,,,,,,,,,,,,,,,,,,,,,,,,,,,,,,,,,,
,,,,,,5d1463c5d40c1b00167822a8,62c539d918e773dc848437f4,2022-07-06_02h31.54.356,Colour_Asymmetry_Pilot,2022.1.3,Win32,71.90623427,62c50e9c1127f2cd403a315f,0,29,29,117,1,threefour,,,,,,,,,,,,,,,,,,,,,,,,,,,,,,,,,,,,,,,,,,,,,,,,,,,,,,,,,,,,,,,,,,,,,,,,,,,,,,,,,,,,,,,,,,,,,,,,,,,,,,,,,,,,,,,,,,,,,,,,,,,,,,,,,,,,,,,,,,,,,,,,,,,,,,,,,,,,,
,,,,,,5d1463c5d40c1b00167822a8,62c539d918e773dc848437f4,2022-07-06_02h31.54.356,Colour_Asymmetry_Pilot,2022.1.3,Win32,71.90623427,62c50e9c1127f2cd403a315f,0,30,30,129,1,onethree,,,,,,,,,,,,,,,,,,,,,,,,,,,,,,,,,,,,,,,,,,,,,,,,,,,,,,,,,,,,,,,,,,,,,,,,,,,,,,,,,,,,,,,,,,,,,,,,,,,,,,,,,,,,,,,,,,,,,,,,,,,,,,,,,,,,,,,,,,,,,,,,,,,,,,,,,,,,,
,,,,,,5d1463c5d40c1b00167822a8,62c539d918e773dc848437f4,2022-07-06_02h31.54.356,Colour_Asymmetry_Pilot,2022.1.3,Win32,71.90623427,62c50e9c1127f2cd403a315f,0,31,31,92,1,threeone,,,,,,,,,,,,,,,,,,,,,,,,,,,,,,,,,,,,,,,,,,,,,,,,,,,,,,,,,,,,,,,,,,,,,,,,,,,,,,,,,,,,,,,,,,,,,,,,,,,,,,,,,,,,,,,,,,,,,,,,,,,,,,,,,,,,,,,,,,,,,,,,,,,,,,,,,,,,,
,,,,,,5d1463c5d40c1b00167822a8,62c539d918e773dc848437f4,2022-07-06_02h31.54.356,Colour_Asymmetry_Pilot,2022.1.3,Win32,71.90623427,62c50e9c1127f2cd403a315f,0,32,32,43,1,twofour,,,,,,,,,,,,,,,,,,,,,,,,,,,,,,,,,,,,,,,,,,,,,,,,,,,,,,,,,,,,,,,,,,,,,,,,,,,,,,,,,,,,,,,,,,,,,,,,,,,,,,,,,,,,,,,,,,,,,,,,,,,,,,,,,,,,,,,,,,,,,,,,,,,,,,,,,,,,,
,,,,,,5d1463c5d40c1b00167822a8,62c539d918e773dc848437f4,2022-07-06_02h31.54.356,Colour_Asymmetry_Pilot,2022.1.3,Win32,71.90623427,62c50e9c1127f2cd403a315f,0,33,33,17,1,onethree,,,,,,,,,,,,,,,,,,,,,,,,,,,,,,,,,,,,,,,,,,,,,,,,,,,,,,,,,,,,,,,,,,,,,,,,,,,,,,,,,,,,,,,,,,,,,,,,,,,,,,,,,,,,,,,,,,,,,,,,,,,,,,,,,,,,,,,,,,,,,,,,,,,,,,,,,,,,,
,,,,,,5d1463c5d40c1b00167822a8,62c539d918e773dc848437f4,2022-07-06_02h31.54.356,Colour_Asymmetry_Pilot,2022.1.3,Win32,71.90623427,62c50e9c1127f2cd403a315f,0,34,34,135,1,fourthree,,,,,,,,,,,,,,,,,,,,,,,,,,,,,,,,,,,,,,,,,,,,,,,,,,,,,,,,,,,,,,,,,,,,,,,,,,,,,,,,,,,,,,,,,,,,,,,,,,,,,,,,,,,,,,,,,,,,,,,,,,,,,,,,,,,,,,,,,,,,,,,,,,,,,,,,,,,,,
,,,,,,5d1463c5d40c1b00167822a8,62c539d918e773dc848437f4,2022-07-06_02h31.54.356,Colour_Asymmetry_Pilot,2022.1.3,Win32,71.90623427,62c50e9c1127f2cd403a315f,0,35,35,53,1,threefour,,,,,,,,,,,,,,,,,,,,,,,,,,,,,,,,,,,,,,,,,,,,,,,,,,,,,,,,,,,,,,,,,,,,,,,,,,,,,,,,,,,,,,,,,,,,,,,,,,,,,,,,,,,,,,,,,,,,,,,,,,,,,,,,,,,,,,,,,,,,,,,,,,,,,,,,,,,,,
,,,,,,5d1463c5d40c1b00167822a8,62c539d918e773dc848437f4,2022-07-06_02h31.54.356,Colour_Asymmetry_Pilot,2022.1.3,Win32,71.90623427,62c50e9c1127f2cd403a315f,0,36,36,128,1,onetwo,,,,,,,,,,,,,,,,,,,,,,,,,,,,,,,,,,,,,,,,,,,,,,,,,,,,,,,,,,,,,,,,,,,,,,,,,,,,,,,,,,,,,,,,,,,,,,,,,,,,,,,,,,,,,,,,,,,,,,,,,,,,,,,,,,,,,,,,,,,,,,,,,,,,,,,,,,,,,
,,,,,,5d1463c5d40c1b00167822a8,62c539d918e773dc848437f4,2022-07-06_02h31.54.356,Colour_Asymmetry_Pilot,2022.1.3,Win32,71.90623427,62c50e9c1127f2cd403a315f,0,37,37,139,1,twofour,,,,,,,,,,,,,,,,,,,,,,,,,,,,,,,,,,,,,,,,,,,,,,,,,,,,,,,,,,,,,,,,,,,,,,,,,,,,,,,,,,,,,,,,,,,,,,,,,,,,,,,,,,,,,,,,,,,,,,,,,,,,,,,,,,,,,,,,,,,,,,,,,,,,,,,,,,,,,
,,,,,,5d1463c5d40c1b00167822a8,62c539d918e773dc848437f4,2022-07-06_02h31.54.356,Colour_Asymmetry_Pilot,2022.1.3,Win32,71.90623427,62c50e9c1127f2cd403a315f,0,38,38,61,1,threefour,,,,,,,,,,,,,,,,,,,,,,,,,,,,,,,,,,,,,,,,,,,,,,,,,,,,,,,,,,,,,,,,,,,,,,,,,,,,,,,,,,,,,,,,,,,,,,,,,,,,,,,,,,,,,,,,,,,,,,,,,,,,,,,,,,,,,,,,,,,,,,,,,,,,,,,,,,,,,
,,,,,,5d1463c5d40c1b00167822a8,62c539d918e773dc848437f4,2022-07-06_02h31.54.356,Colour_Asymmetry_Pilot,2022.1.3,Win32,71.90623427,62c50e9c1127f2cd403a315f,0,39,39,160,1,onetwo,,,,,,,,,,,,,,,,,,,,,,,,,,,,,,,,,,,,,,,,,,,,,,,,,,,,,,,,,,,,,,,,,,,,,,,,,,,,,,,,,,,,,,,,,,,,,,,,,,,,,,,,,,,,,,,,,,,,,,,,,,,,,,,,,,,,,,,,,,,,,,,,,,,,,,,,,,,,,
,,,,,,5d1463c5d40c1b00167822a8,62c539d918e773dc848437f4,2022-07-06_02h31.54.356,Colour_Asymmetry_Pilot,2022.1.3,Win32,71.90623427,62c50e9c1127f2cd403a315f,0,40,40,123,1,twofour,,,,,,,,,,,,,,,,,,,,,,,,,,,,,,,,,,,,,,,,,,,,,,,,,,,,,,,,,,,,,,,,,,,,,,,,,,,,,,,,,,,,,,,,,,,,,,,,,,,,,,,,,,,,,,,,,,,,,,,,,,,,,,,,,,,,,,,,,,,,,,,,,,,,,,,,,,,,,
,,,,,,5d1463c5d40c1b00167822a8,62c539d918e773dc848437f4,2022-07-06_02h31.54.356,Colour_Asymmetry_Pilot,2022.1.3,Win32,71.90623427,62c50e9c1127f2cd403a315f,0,41,41,40,1,onetwo,,,,,,,,,,,,,,,,,,,,,,,,,,,,,,,,,,,,,,,,,,,,,,,,,,,,,,,,,,,,,,,,,,,,,,,,,,,,,,,,,,,,,,,,,,,,,,,,,,,,,,,,,,,,,,,,,,,,,,,,,,,,,,,,,,,,,,,,,,,,,,,,,,,,,,,,,,,,,
,,,,,,5d1463c5d40c1b00167822a8,62c539d918e773dc848437f4,2022-07-06_02h31.54.356,Colour_Asymmetry_Pilot,2022.1.3,Win32,71.90623427,62c50e9c1127f2cd403a315f,0,42,42,158,1,fourtwo,,,,,,,,,,,,,,,,,,,,,,,,,,,,,,,,,,,,,,,,,,,,,,,,,,,,,,,,,,,,,,,,,,,,,,,,,,,,,,,,,,,,,,,,,,,,,,,,,,,,,,,,,,,,,,,,,,,,,,,,,,,,,,,,,,,,,,,,,,,,,,,,,,,,,,,,,,,,,
,,,,,,5d1463c5d40c1b00167822a8,62c539d918e773dc848437f4,2022-07-06_02h31.54.356,Colour_Asymmetry_Pilot,2022.1.3,Win32,71.90623427,62c50e9c1127f2cd403a315f,0,43,43,105,1,onethree,,,,,,,,,,,,,,,,,,,,,,,,,,,,,,,,,,,,,,,,,,,,,,,,,,,,,,,,,,,,,,,,,,,,,,,,,,,,,,,,,,,,,,,,,,,,,,,,,,,,,,,,,,,,,,,,,,,,,,,,,,,,,,,,,,,,,,,,,,,,,,,,,,,,,,,,,,,,,
,,,,,,5d1463c5d40c1b00167822a8,62c539d918e773dc848437f4,2022-07-06_02h31.54.356,Colour_Asymmetry_Pilot,2022.1.3,Win32,71.90623427,62c50e9c1127f2cd403a315f,0,44,44,78,1,fourtwo,,,,,,,,,,,,,,,,,,,,,,,,,,,,,,,,,,,,,,,,,,,,,,,,,,,,,,,,,,,,,,,,,,,,,,,,,,,,,,,,,,,,,,,,,,,,,,,,,,,,,,,,,,,,,,,,,,,,,,,,,,,,,,,,,,,,,,,,,,,,,,,,,,,,,,,,,,,,,
,,,,,,5d1463c5d40c1b00167822a8,62c539d918e773dc848437f4,2022-07-06_02h31.54.356,Colour_Asymmetry_Pilot,2022.1.3,Win32,71.90623427,62c50e9c1127f2cd403a315f,0,45,45,21,1,threefour,,,,,,,,,,,,,,,,,,,,,,,,,,,,,,,,,,,,,,,,,,,,,,,,,,,,,,,,,,,,,,,,,,,,,,,,,,,,,,,,,,,,,,,,,,,,,,,,,,,,,,,,,,,,,,,,,,,,,,,,,,,,,,,,,,,,,,,,,,,,,,,,,,,,,,,,,,,,,
,,,,,,5d1463c5d40c1b00167822a8,62c539d918e773dc848437f4,2022-07-06_02h31.54.356,Colour_Asymmetry_Pilot,2022.1.3,Win32,71.90623427,62c50e9c1127f2cd403a315f,0,46,46,140,1,threeone,,,,,,,,,,,,,,,,,,,,,,,,,,,,,,,,,,,,,,,,,,,,,,,,,,,,,,,,,,,,,,,,,,,,,,,,,,,,,,,,,,,,,,,,,,,,,,,,,,,,,,,,,,,,,,,,,,,,,,,,,,,,,,,,,,,,,,,,,,,,,,,,,,,,,,,,,,,,,
,,,,,,5d1463c5d40c1b00167822a8,62c539d918e773dc848437f4,2022-07-06_02h31.54.356,Colour_Asymmetry_Pilot,2022.1.3,Win32,71.90623427,62c50e9c1127f2cd403a315f,0,47,47,44,1,threeone,,,,,,,,,,,,,,,,,,,,,,,,,,,,,,,,,,,,,,,,,,,,,,,,,,,,,,,,,,,,,,,,,,,,,,,,,,,,,,,,,,,,,,,,,,,,,,,,,,,,,,,,,,,,,,,,,,,,,,,,,,,,,,,,,,,,,,,,,,,,,,,,,,,,,,,,,,,,,
,,,,,,5d1463c5d40c1b00167822a8,62c539d918e773dc848437f4,2022-07-06_02h31.54.356,Colour_Asymmetry_Pilot,2022.1.3,Win32,71.90623427,62c50e9c1127f2cd403a315f,0,48,48,36,1,threeone,,,,,,,,,,,,,,,,,,,,,,,,,,,,,,,,,,,,,,,,,,,,,,,,,,,,,,,,,,,,,,,,,,,,,,,,,,,,,,,,,,,,,,,,,,,,,,,,,,,,,,,,,,,,,,,,,,,,,,,,,,,,,,,,,,,,,,,,,,,,,,,,,,,,,,,,,,,,,
,,,,,,5d1463c5d40c1b00167822a8,62c539d918e773dc848437f4,2022-07-06_02h31.54.356,Colour_Asymmetry_Pilot,2022.1.3,Win32,71.90623427,62c50e9c1127f2cd403a315f,0,49,49,11,1,twofour,,,,,,,,,,,,,,,,,,,,,,,,,,,,,,,,,,,,,,,,,,,,,,,,,,,,,,,,,,,,,,,,,,,,,,,,,,,,,,,,,,,,,,,,,,,,,,,,,,,,,,,,,,,,,,,,,,,,,,,,,,,,,,,,,,,,,,,,,,,,,,,,,,,,,,,,,,,,,
,,,,,,5d1463c5d40c1b00167822a8,62c539d918e773dc848437f4,2022-07-06_02h31.54.356,Colour_Asymmetry_Pilot,2022.1.3,Win32,71.90623427,62c50e9c1127f2cd403a315f,0,50,50,66,1,twoone,,,,,,,,,,,,,,,,,,,,,,,,,,,,,,,,,,,,,,,,,,,,,,,,,,,,,,,,,,,,,,,,,,,,,,,,,,,,,,,,,,,,,,,,,,,,,,,,,,,,,,,,,,,,,,,,,,,,,,,,,,,,,,,,,,,,,,,,,,,,,,,,,,,,,,,,,,,,,
,,,,,,5d1463c5d40c1b00167822a8,62c539d918e773dc848437f4,2022-07-06_02h31.54.356,Colour_Asymmetry_Pilot,2022.1.3,Win32,71.90623427,62c50e9c1127f2cd403a315f,0,51,51,13,1,threefour,,,,,,,,,,,,,,,,,,,,,,,,,,,,,,,,,,,,,,,,,,,,,,,,,,,,,,,,,,,,,,,,,,,,,,,,,,,,,,,,,,,,,,,,,,,,,,,,,,,,,,,,,,,,,,,,,,,,,,,,,,,,,,,,,,,,,,,,,,,,,,,,,,,,,,,,,,,,,
,,,,,,5d1463c5d40c1b00167822a8,62c539d918e773dc848437f4,2022-07-06_02h31.54.356,Colour_Asymmetry_Pilot,2022.1.3,Win32,71.90623427,62c50e9c1127f2cd403a315f,0,52,52,51,1,twofour,,,,,,,,,,,,,,,,,,,,,,,,,,,,,,,,,,,,,,,,,,,,,,,,,,,,,,,,,,,,,,,,,,,,,,,,,,,,,,,,,,,,,,,,,,,,,,,,,,,,,,,,,,,,,,,,,,,,,,,,,,,,,,,,,,,,,,,,,,,,,,,,,,,,,,,,,,,,,
,,,,,,5d1463c5d40c1b00167822a8,62c539d918e773dc848437f4,2022-07-06_02h31.54.356,Colour_Asymmetry_Pilot,2022.1.3,Win32,71.90623427,62c50e9c1127f2cd403a315f,0,53,53,23,1,fourthree,,,,,,,,,,,,,,,,,,,,,,,,,,,,,,,,,,,,,,,,,,,,,,,,,,,,,,,,,,,,,,,,,,,,,,,,,,,,,,,,,,,,,,,,,,,,,,,,,,,,,,,,,,,,,,,,,,,,,,,,,,,,,,,,,,,,,,,,,,,,,,,,,,,,,,,,,,,,,
,,,,,,5d1463c5d40c1b00167822a8,62c539d918e773dc848437f4,2022-07-06_02h31.54.356,Colour_Asymmetry_Pilot,2022.1.3,Win32,71.90623427,62c50e9c1127f2cd403a315f,0,54,54,93,1,threefour,,,,,,,,,,,,,,,,,,,,,,,,,,,,,,,,,,,,,,,,,,,,,,,,,,,,,,,,,,,,,,,,,,,,,,,,,,,,,,,,,,,,,,,,,,,,,,,,,,,,,,,,,,,,,,,,,,,,,,,,,,,,,,,,,,,,,,,,,,,,,,,,,,,,,,,,,,,,,
,,,,,,5d1463c5d40c1b00167822a8,62c539d918e773dc848437f4,2022-07-06_02h31.54.356,Colour_Asymmetry_Pilot,2022.1.3,Win32,71.90623427,62c50e9c1127f2cd403a315f,0,55,55,41,1,onethree,,,,,,,,,,,,,,,,,,,,,,,,,,,,,,,,,,,,,,,,,,,,,,,,,,,,,,,,,,,,,,,,,,,,,,,,,,,,,,,,,,,,,,,,,,,,,,,,,,,,,,,,,,,,,,,,,,,,,,,,,,,,,,,,,,,,,,,,,,,,,,,,,,,,,,,,,,,,,
,,,,,,5d1463c5d40c1b00167822a8,62c539d918e773dc848437f4,2022-07-06_02h31.54.356,Colour_Asymmetry_Pilot,2022.1.3,Win32,71.90623427,62c50e9c1127f2cd403a315f,0,56,56,63,1,fourthree,,,,,,,,,,,,,,,,,,,,,,,,,,,,,,,,,,,,,,,,,,,,,,,,,,,,,,,,,,,,,,,,,,,,,,,,,,,,,,,,,,,,,,,,,,,,,,,,,,,,,,,,,,,,,,,,,,,,,,,,,,,,,,,,,,,,,,,,,,,,,,,,,,,,,,,,,,,,,
,,,,,,5d1463c5d40c1b00167822a8,62c539d918e773dc848437f4,2022-07-06_02h31.54.356,Colour_Asymmetry_Pilot,2022.1.3,Win32,71.90623427,62c50e9c1127f2cd403a315f,0,57,57,133,1,threefour,,,,,,,,,,,,,,,,,,,,,,,,,,,,,,,,,,,,,,,,,,,,,,,,,,,,,,,,,,,,,,,,,,,,,,,,,,,,,,,,,,,,,,,,,,,,,,,,,,,,,,,,,,,,,,,,,,,,,,,,,,,,,,,,,,,,,,,,,,,,,,,,,,,,,,,,,,,,,
,,,,,,5d1463c5d40c1b00167822a8,62c539d918e773dc848437f4,2022-07-06_02h31.54.356,Colour_Asymmetry_Pilot,2022.1.3,Win32,71.90623427,62c50e9c1127f2cd403a315f,0,58,58,156,1,threeone,,,,,,,,,,,,,,,,,,,,,,,,,,,,,,,,,,,,,,,,,,,,,,,,,,,,,,,,,,,,,,,,,,,,,,,,,,,,,,,,,,,,,,,,,,,,,,,,,,,,,,,,,,,,,,,,,,,,,,,,,,,,,,,,,,,,,,,,,,,,,,,,,,,,,,,,,,,,,
,,,,,,5d1463c5d40c1b00167822a8,62c539d918e773dc848437f4,2022-07-06_02h31.54.356,Colour_Asymmetry_Pilot,2022.1.3,Win32,71.90623427,62c50e9c1127f2cd403a315f,0,59,59,116,1,threeone,,,,,,,,,,,,,,,,,,,,,,,,,,,,,,,,,,,,,,,,,,,,,,,,,,,,,,,,,,,,,,,,,,,,,,,,,,,,,,,,,,,,,,,,,,,,,,,,,,,,,,,,,,,,,,,,,,,,,,,,,,,,,,,,,,,,,,,,,,,,,,,,,,,,,,,,,,,,,
,,,,,,5d1463c5d40c1b00167822a8,62c539d918e773dc848437f4,2022-07-06_02h31.54.356,Colour_Asymmetry_Pilot,2022.1.3,Win32,71.90623427,62c50e9c1127f2cd403a315f,0,60,60,39,1,fourthree,,,,,,,,,,,,,,,,,,,,,,,,,,,,,,,,,,,,,,,,,,,,,,,,,,,,,,,,,,,,,,,,,,,,,,,,,,,,,,,,,,,,,,,,,,,,,,,,,,,,,,,,,,,,,,,,,,,,,,,,,,,,,,,,,,,,,,,,,,,,,,,,,,,,,,,,,,,,,
,,,,,,5d1463c5d40c1b00167822a8,62c539d918e773dc848437f4,2022-07-06_02h31.54.356,Colour_Asymmetry_Pilot,2022.1.3,Win32,71.90623427,62c50e9c1127f2cd403a315f,0,61,61,147,1,twofour,,,,,,,,,,,,,,,,,,,,,,,,,,,,,,,,,,,,,,,,,,,,,,,,,,,,,,,,,,,,,,,,,,,,,,,,,,,,,,,,,,,,,,,,,,,,,,,,,,,,,,,,,,,,,,,,,,,,,,,,,,,,,,,,,,,,,,,,,,,,,,,,,,,,,,,,,,,,,
,,,,,,5d1463c5d40c1b00167822a8,62c539d918e773dc848437f4,2022-07-06_02h31.54.356,Colour_Asymmetry_Pilot,2022.1.3,Win32,71.90623427,62c50e9c1127f2cd403a315f,0,62,62,68,1,threeone,,,,,,,,,,,,,,,,,,,,,,,,,,,,,,,,,,,,,,,,,,,,,,,,,,,,,,,,,,,,,,,,,,,,,,,,,,,,,,,,,,,,,,,,,,,,,,,,,,,,,,,,,,,,,,,,,,,,,,,,,,,,,,,,,,,,,,,,,,,,,,,,,,,,,,,,,,,,,
,,,,,,5d1463c5d40c1b00167822a8,62c539d918e773dc848437f4,2022-07-06_02h31.54.356,Colour_Asymmetry_Pilot,2022.1.3,Win32,71.90623427,62c50e9c1127f2cd403a315f,0,63,63,34,1,twoone,,,,,,,,,,,,,,,,,,,,,,,,,,,,,,,,,,,,,,,,,,,,,,,,,,,,,,,,,,,,,,,,,,,,,,,,,,,,,,,,,,,,,,,,,,,,,,,,,,,,,,,,,,,,,,,,,,,,,,,,,,,,,,,,,,,,,,,,,,,,,,,,,,,,,,,,,,,,,
,,,,,,5d1463c5d40c1b00167822a8,62c539d918e773dc848437f4,2022-07-06_02h31.54.356,Colour_Asymmetry_Pilot,2022.1.3,Win32,71.90623427,62c50e9c1127f2cd403a315f,0,64,64,130,1,twoone,,,,,,,,,,,,,,,,,,,,,,,,,,,,,,,,,,,,,,,,,,,,,,,,,,,,,,,,,,,,,,,,,,,,,,,,,,,,,,,,,,,,,,,,,,,,,,,,,,,,,,,,,,,,,,,,,,,,,,,,,,,,,,,,,,,,,,,,,,,,,,,,,,,,,,,,,,,,,
,,,,,,5d1463c5d40c1b00167822a8,62c539d918e773dc848437f4,2022-07-06_02h31.54.356,Colour_Asymmetry_Pilot,2022.1.3,Win32,71.90623427,62c50e9c1127f2cd403a315f,0,65,65,6,1,fourtwo,,,,,,,,,,,,,,,,,,,,,,,,,,,,,,,,,,,,,,,,,,,,,,,,,,,,,,,,,,,,,,,,,,,,,,,,,,,,,,,,,,,,,,,,,,,,,,,,,,,,,,,,,,,,,,,,,,,,,,,,,,,,,,,,,,,,,,,,,,,,,,,,,,,,,,,,,,,,,
,,,,,,5d1463c5d40c1b00167822a8,62c539d918e773dc848437f4,2022-07-06_02h31.54.356,Colour_Asymmetry_Pilot,2022.1.3,Win32,71.90623427,62c50e9c1127f2cd403a315f,0,66,66,67,1,twofour,,,,,,,,,,,,,,,,,,,,,,,,,,,,,,,,,,,,,,,,,,,,,,,,,,,,,,,,,,,,,,,,,,,,,,,,,,,,,,,,,,,,,,,,,,,,,,,,,,,,,,,,,,,,,,,,,,,,,,,,,,,,,,,,,,,,,,,,,,,,,,,,,,,,,,,,,,,,,
,,,,,,5d1463c5d40c1b00167822a8,62c539d918e773dc848437f4,2022-07-06_02h31.54.356,Colour_Asymmetry_Pilot,2022.1.3,Win32,71.90623427,62c50e9c1127f2cd403a315f,0,67,67,132,1,threeone,,,,,,,,,,,,,,,,,,,,,,,,,,,,,,,,,,,,,,,,,,,,,,,,,,,,,,,,,,,,,,,,,,,,,,,,,,,,,,,,,,,,,,,,,,,,,,,,,,,,,,,,,,,,,,,,,,,,,,,,,,,,,,,,,,,,,,,,,,,,,,,,,,,,,,,,,,,,,
,,,,,,5d1463c5d40c1b00167822a8,62c539d918e773dc848437f4,2022-07-06_02h31.54.356,Colour_Asymmetry_Pilot,2022.1.3,Win32,71.90623427,62c50e9c1127f2cd403a315f,0,68,68,48,1,onetwo,,,,,,,,,,,,,,,,,,,,,,,,,,,,,,,,,,,,,,,,,,,,,,,,,,,,,,,,,,,,,,,,,,,,,,,,,,,,,,,,,,,,,,,,,,,,,,,,,,,,,,,,,,,,,,,,,,,,,,,,,,,,,,,,,,,,,,,,,,,,,,,,,,,,,,,,,,,,,
,,,,,,5d1463c5d40c1b00167822a8,62c539d918e773dc848437f4,2022-07-06_02h31.54.356,Colour_Asymmetry_Pilot,2022.1.3,Win32,71.90623427,62c50e9c1127f2cd403a315f,0,69,69,104,1,onetwo,,,,,,,,,,,,,,,,,,,,,,,,,,,,,,,,,,,,,,,,,,,,,,,,,,,,,,,,,,,,,,,,,,,,,,,,,,,,,,,,,,,,,,,,,,,,,,,,,,,,,,,,,,,,,,,,,,,,,,,,,,,,,,,,,,,,,,,,,,,,,,,,,,,,,,,,,,,,,
,,,,,,5d1463c5d40c1b00167822a8,62c539d918e773dc848437f4,2022-07-06_02h31.54.356,Colour_Asymmetry_Pilot,2022.1.3,Win32,71.90623427,62c50e9c1127f2cd403a315f,0,70,70,91,1,twofour,,,,,,,,,,,,,,,,,,,,,,,,,,,,,,,,,,,,,,,,,,,,,,,,,,,,,,,,,,,,,,,,,,,,,,,,,,,,,,,,,,,,,,,,,,,,,,,,,,,,,,,,,,,,,,,,,,,,,,,,,,,,,,,,,,,,,,,,,,,,,,,,,,,,,,,,,,,,,
,,,,,,5d1463c5d40c1b00167822a8,62c539d918e773dc848437f4,2022-07-06_02h31.54.356,Colour_Asymmetry_Pilot,2022.1.3,Win32,71.90623427,62c50e9c1127f2cd403a315f,0,71,71,20,1,threeone,,,,,,,,,,,,,,,,,,,,,,,,,,,,,,,,,,,,,,,,,,,,,,,,,,,,,,,,,,,,,,,,,,,,,,,,,,,,,,,,,,,,,,,,,,,,,,,,,,,,,,,,,,,,,,,,,,,,,,,,,,,,,,,,,,,,,,,,,,,,,,,,,,,,,,,,,,,,,
,,,,,,5d1463c5d40c1b00167822a8,62c539d918e773dc848437f4,2022-07-06_02h31.54.356,Colour_Asymmetry_Pilot,2022.1.3,Win32,71.90623427,62c50e9c1127f2cd403a315f,0,72,72,55,1,fourthree,,,,,,,,,,,,,,,,,,,,,,,,,,,,,,,,,,,,,,,,,,,,,,,,,,,,,,,,,,,,,,,,,,,,,,,,,,,,,,,,,,,,,,,,,,,,,,,,,,,,,,,,,,,,,,,,,,,,,,,,,,,,,,,,,,,,,,,,,,,,,,,,,,,,,,,,,,,,,
,,,,,,5d1463c5d40c1b00167822a8,62c539d918e773dc848437f4,2022-07-06_02h31.54.356,Colour_Asymmetry_Pilot,2022.1.3,Win32,71.90623427,62c50e9c1127f2cd403a315f,0,73,73,114,1,twoone,,,,,,,,,,,,,,,,,,,,,,,,,,,,,,,,,,,,,,,,,,,,,,,,,,,,,,,,,,,,,,,,,,,,,,,,,,,,,,,,,,,,,,,,,,,,,,,,,,,,,,,,,,,,,,,,,,,,,,,,,,,,,,,,,,,,,,,,,,,,,,,,,,,,,,,,,,,,,
,,,,,,5d1463c5d40c1b00167822a8,62c539d918e773dc848437f4,2022-07-06_02h31.54.356,Colour_Asymmetry_Pilot,2022.1.3,Win32,71.90623427,62c50e9c1127f2cd403a315f,0,74,74,64,1,onetwo,,,,,,,,,,,,,,,,,,,,,,,,,,,,,,,,,,,,,,,,,,,,,,,,,,,,,,,,,,,,,,,,,,,,,,,,,,,,,,,,,,,,,,,,,,,,,,,,,,,,,,,,,,,,,,,,,,,,,,,,,,,,,,,,,,,,,,,,,,,,,,,,,,,,,,,,,,,,,
,,,,,,5d1463c5d40c1b00167822a8,62c539d918e773dc848437f4,2022-07-06_02h31.54.356,Colour_Asymmetry_Pilot,2022.1.3,Win32,71.90623427,62c50e9c1127f2cd403a315f,0,75,75,4,1,threeone,,,,,,,,,,,,,,,,,,,,,,,,,,,,,,,,,,,,,,,,,,,,,,,,,,,,,,,,,,,,,,,,,,,,,,,,,,,,,,,,,,,,,,,,,,,,,,,,,,,,,,,,,,,,,,,,,,,,,,,,,,,,,,,,,,,,,,,,,,,,,,,,,,,,,,,,,,,,,
,,,,,,5d1463c5d40c1b00167822a8,62c539d918e773dc848437f4,2022-07-06_02h31.54.356,Colour_Asymmetry_Pilot,2022.1.3,Win32,71.90623427,62c50e9c1127f2cd403a315f,0,76,76,58,1,twoone,,,,,,,,,,,,,,,,,,,,,,,,,,,,,,,,,,,,,,,,,,,,,,,,,,,,,,,,,,,,,,,,,,,,,,,,,,,,,,,,,,,,,,,,,,,,,,,,,,,,,,,,,,,,,,,,,,,,,,,,,,,,,,,,,,,,,,,,,,,,,,,,,,,,,,,,,,,,,
,,,,,,5d1463c5d40c1b00167822a8,62c539d918e773dc848437f4,2022-07-06_02h31.54.356,Colour_Asymmetry_Pilot,2022.1.3,Win32,71.90623427,62c50e9c1127f2cd403a315f,0,77,77,46,1,fourtwo,,,,,,,,,,,,,,,,,,,,,,,,,,,,,,,,,,,,,,,,,,,,,,,,,,,,,,,,,,,,,,,,,,,,,,,,,,,,,,,,,,,,,,,,,,,,,,,,,,,,,,,,,,,,,,,,,,,,,,,,,,,,,,,,,,,,,,,,,,,,,,,,,,,,,,,,,,,,,
,,,,,,5d1463c5d40c1b00167822a8,62c539d918e773dc848437f4,2022-07-06_02h31.54.356,Colour_Asymmetry_Pilot,2022.1.3,Win32,71.90623427,62c50e9c1127f2cd403a315f,0,78,78,154,1,twoone,,,,,,,,,,,,,,,,,,,,,,,,,,,,,,,,,,,,,,,,,,,,,,,,,,,,,,,,,,,,,,,,,,,,,,,,,,,,,,,,,,,,,,,,,,,,,,,,,,,,,,,,,,,,,,,,,,,,,,,,,,,,,,,,,,,,,,,,,,,,,,,,,,,,,,,,,,,,,
,,,,,,5d1463c5d40c1b00167822a8,62c539d918e773dc848437f4,2022-07-06_02h31.54.356,Colour_Asymmetry_Pilot,2022.1.3,Win32,71.90623427,62c50e9c1127f2cd403a315f,0,79,79,72,1,onetwo,,,,,,,,,,,,,,,,,,,,,,,,,,,,,,,,,,,,,,,,,,,,,,,,,,,,,,,,,,,,,,,,,,,,,,,,,,,,,,,,,,,,,,,,,,,,,,,,,,,,,,,,,,,,,,,,,,,,,,,,,,,,,,,,,,,,,,,,,,,,,,,,,,,,,,,,,,,,,
,,,,,,5d1463c5d40c1b00167822a8,62c539d918e773dc848437f4,2022-07-06_02h31.54.356,Colour_Asymmetry_Pilot,2022.1.3,Win32,71.90623427,62c50e9c1127f2cd403a315f,0,80,80,18,1,twoone,,,,,,,,,,,,,,,,,,,,,,,,,,,,,,,,,,,,,,,,,,,,,,,,,,,,,,,,,,,,,,,,,,,,,,,,,,,,,,,,,,,,,,,,,,,,,,,,,,,,,,,,,,,,,,,,,,,,,,,,,,,,,,,,,,,,,,,,,,,,,,,,,,,,,,,,,,,,,
,,,,,,5d1463c5d40c1b00167822a8,62c539d918e773dc848437f4,2022-07-06_02h31.54.356,Colour_Asymmetry_Pilot,2022.1.3,Win32,71.90623427,62c50e9c1127f2cd403a315f,0,81,81,29,1,threefour,,,,,,,,,,,,,,,,,,,,,,,,,,,,,,,,,,,,,,,,,,,,,,,,,,,,,,,,,,,,,,,,,,,,,,,,,,,,,,,,,,,,,,,,,,,,,,,,,,,,,,,,,,,,,,,,,,,,,,,,,,,,,,,,,,,,,,,,,,,,,,,,,,,,,,,,,,,,,
,,,,,,5d1463c5d40c1b00167822a8,62c539d918e773dc848437f4,2022-07-06_02h31.54.356,Colour_Asymmetry_Pilot,2022.1.3,Win32,71.90623427,62c50e9c1127f2cd403a315f,0,82,82,148,1,threeone,,,,,,,,,,,,,,,,,,,,,,,,,,,,,,,,,,,,,,,,,,,,,,,,,,,,,,,,,,,,,,,,,,,,,,,,,,,,,,,,,,,,,,,,,,,,,,,,,,,,,,,,,,,,,,,,,,,,,,,,,,,,,,,,,,,,,,,,,,,,,,,,,,,,,,,,,,,,,
,,,,,,5d1463c5d40c1b00167822a8,62c539d918e773dc848437f4,2022-07-06_02h31.54.356,Colour_Asymmetry_Pilot,2022.1.3,Win32,71.90623427,62c50e9c1127f2cd403a315f,0,83,83,5,1,threefour,,,,,,,,,,,,,,,,,,,,,,,,,,,,,,,,,,,,,,,,,,,,,,,,,,,,,,,,,,,,,,,,,,,,,,,,,,,,,,,,,,,,,,,,,,,,,,,,,,,,,,,,,,,,,,,,,,,,,,,,,,,,,,,,,,,,,,,,,,,,,,,,,,,,,,,,,,,,,
,,,,,,5d1463c5d40c1b00167822a8,62c539d918e773dc848437f4,2022-07-06_02h31.54.356,Colour_Asymmetry_Pilot,2022.1.3,Win32,71.90623427,62c50e9c1127f2cd403a315f,0,84,84,96,1,onetwo,,,,,,,,,,,,,,,,,,,,,,,,,,,,,,,,,,,,,,,,,,,,,,,,,,,,,,,,,,,,,,,,,,,,,,,,,,,,,,,,,,,,,,,,,,,,,,,,,,,,,,,,,,,,,,,,,,,,,,,,,,,,,,,,,,,,,,,,,,,,,,,,,,,,,,,,,,,,,
,,,,,,5d1463c5d40c1b00167822a8,62c539d918e773dc848437f4,2022-07-06_02h31.54.356,Colour_Asymmetry_Pilot,2022.1.3,Win32,71.90623427,62c50e9c1127f2cd403a315f,0,85,85,47,1,fourthree,,,,,,,,,,,,,,,,,,,,,,,,,,,,,,,,,,,,,,,,,,,,,,,,,,,,,,,,,,,,,,,,,,,,,,,,,,,,,,,,,,,,,,,,,,,,,,,,,,,,,,,,,,,,,,,,,,,,,,,,,,,,,,,,,,,,,,,,,,,,,,,,,,,,,,,,,,,,,
,,,,,,5d1463c5d40c1b00167822a8,62c539d918e773dc848437f4,2022-07-06_02h31.54.356,Colour_Asymmetry_Pilot,2022.1.3,Win32,71.90623427,62c50e9c1127f2cd403a315f,0,86,86,1,1,onethree,,,,,,,,,,,,,,,,,,,,,,,,,,,,,,,,,,,,,,,,,,,,,,,,,,,,,,,,,,,,,,,,,,,,,,,,,,,,,,,,,,,,,,,,,,,,,,,,,,,,,,,,,,,,,,,,,,,,,,,,,,,,,,,,,,,,,,,,,,,,,,,,,,,,,,,,,,,,,
,,,,,,5d1463c5d40c1b00167822a8,62c539d918e773dc848437f4,2022-07-06_02h31.54.356,Colour_Asymmetry_Pilot,2022.1.3,Win32,71.90623427,62c50e9c1127f2cd403a315f,0,87,87,10,1,twoone,,,,,,,,,,,,,,,,,,,,,,,,,,,,,,,,,,,,,,,,,,,,,,,,,,,,,,,,,,,,,,,,,,,,,,,,,,,,,,,,,,,,,,,,,,,,,,,,,,,,,,,,,,,,,,,,,,,,,,,,,,,,,,,,,,,,,,,,,,,,,,,,,,,,,,,,,,,,,
,,,,,,5d1463c5d40c1b00167822a8,62c539d918e773dc848437f4,2022-07-06_02h31.54.356,Colour_Asymmetry_Pilot,2022.1.3,Win32,71.90623427,62c50e9c1127f2cd403a315f,0,88,88,62,1,fourtwo,,,,,,,,,,,,,,,,,,,,,,,,,,,,,,,,,,,,,,,,,,,,,,,,,,,,,,,,,,,,,,,,,,,,,,,,,,,,,,,,,,,,,,,,,,,,,,,,,,,,,,,,,,,,,,,,,,,,,,,,,,,,,,,,,,,,,,,,,,,,,,,,,,,,,,,,,,,,,
,,,,,,5d1463c5d40c1b00167822a8,62c539d918e773dc848437f4,2022-07-06_02h31.54.356,Colour_Asymmetry_Pilot,2022.1.3,Win32,71.90623427,62c50e9c1127f2cd403a315f,0,89,89,146,1,twoone,,,,,,,,,,,,,,,,,,,,,,,,,,,,,,,,,,,,,,,,,,,,,,,,,,,,,,,,,,,,,,,,,,,,,,,,,,,,,,,,,,,,,,,,,,,,,,,,,,,,,,,,,,,,,,,,,,,,,,,,,,,,,,,,,,,,,,,,,,,,,,,,,,,,,,,,,,,,,
,,,,,,5d1463c5d40c1b00167822a8,62c539d918e773dc848437f4,2022-07-06_02h31.54.356,Colour_Asymmetry_Pilot,2022.1.3,Win32,71.90623427,62c50e9c1127f2cd403a315f,0,90,90,27,1,twofour,,,,,,,,,,,,,,,,,,,,,,,,,,,,,,,,,,,,,,,,,,,,,,,,,,,,,,,,,,,,,,,,,,,,,,,,,,,,,,,,,,,,,,,,,,,,,,,,,,,,,,,,,,,,,,,,,,,,,,,,,,,,,,,,,,,,,,,,,,,,,,,,,,,,,,,,,,,,,
,,,,,,5d1463c5d40c1b00167822a8,62c539d918e773dc848437f4,2022-07-06_02h31.54.356,Colour_Asymmetry_Pilot,2022.1.3,Win32,71.90623427,62c50e9c1127f2cd403a315f,0,91,91,82,1,twoone,,,,,,,,,,,,,,,,,,,,,,,,,,,,,,,,,,,,,,,,,,,,,,,,,,,,,,,,,,,,,,,,,,,,,,,,,,,,,,,,,,,,,,,,,,,,,,,,,,,,,,,,,,,,,,,,,,,,,,,,,,,,,,,,,,,,,,,,,,,,,,,,,,,,,,,,,,,,,
,,,,,,5d1463c5d40c1b00167822a8,62c539d918e773dc848437f4,2022-07-06_02h31.54.356,Colour_Asymmetry_Pilot,2022.1.3,Win32,71.90623427,62c50e9c1127f2cd403a315f,0,92,92,52,1,threeone,,,,,,,,,,,,,,,,,,,,,,,,,,,,,,,,,,,,,,,,,,,,,,,,,,,,,,,,,,,,,,,,,,,,,,,,,,,,,,,,,,,,,,,,,,,,,,,,,,,,,,,,,,,,,,,,,,,,,,,,,,,,,,,,,,,,,,,,,,,,,,,,,,,,,,,,,,,,,
,,,,,,5d1463c5d40c1b00167822a8,62c539d918e773dc848437f4,2022-07-06_02h31.54.356,Colour_Asymmetry_Pilot,2022.1.3,Win32,71.90623427,62c50e9c1127f2cd403a315f,0,93,93,136,1,onetwo,,,,,,,,,,,,,,,,,,,,,,,,,,,,,,,,,,,,,,,,,,,,,,,,,,,,,,,,,,,,,,,,,,,,,,,,,,,,,,,,,,,,,,,,,,,,,,,,,,,,,,,,,,,,,,,,,,,,,,,,,,,,,,,,,,,,,,,,,,,,,,,,,,,,,,,,,,,,,
,,,,,,5d1463c5d40c1b00167822a8,62c539d918e773dc848437f4,2022-07-06_02h31.54.356,Colour_Asymmetry_Pilot,2022.1.3,Win32,71.90623427,62c50e9c1127f2cd403a315f,0,94,94,77,1,threefour,,,,,,,,,,,,,,,,,,,,,,,,,,,,,,,,,,,,,,,,,,,,,,,,,,,,,,,,,,,,,,,,,,,,,,,,,,,,,,,,,,,,,,,,,,,,,,,,,,,,,,,,,,,,,,,,,,,,,,,,,,,,,,,,,,,,,,,,,,,,,,,,,,,,,,,,,,,,,
,,,,,,5d1463c5d40c1b00167822a8,62c539d918e773dc848437f4,2022-07-06_02h31.54.356,Colour_Asymmetry_Pilot,2022.1.3,Win32,71.90623427,62c50e9c1127f2cd403a315f,0,95,95,22,1,fourtwo,,,,,,,,,,,,,,,,,,,,,,,,,,,,,,,,,,,,,,,,,,,,,,,,,,,,,,,,,,,,,,,,,,,,,,,,,,,,,,,,,,,,,,,,,,,,,,,,,,,,,,,,,,,,,,,,,,,,,,,,,,,,,,,,,,,,,,,,,,,,,,,,,,,,,,,,,,,,,
,,,,,,5d1463c5d40c1b00167822a8,62c539d918e773dc848437f4,2022-07-06_02h31.54.356,Colour_Asymmetry_Pilot,2022.1.3,Win32,71.90623427,62c50e9c1127f2cd403a315f,0,96,96,119,1,fourthree,,,,,,,,,,,,,,,,,,,,,,,,,,,,,,,,,,,,,,,,,,,,,,,,,,,,,,,,,,,,,,,,,,,,,,,,,,,,,,,,,,,,,,,,,,,,,,,,,,,,,,,,,,,,,,,,,,,,,,,,,,,,,,,,,,,,,,,,,,,,,,,,,,,,,,,,,,,,,
,,,,,,5d1463c5d40c1b00167822a8,62c539d918e773dc848437f4,2022-07-06_02h31.54.356,Colour_Asymmetry_Pilot,2022.1.3,Win32,71.90623427,62c50e9c1127f2cd403a315f,0,97,97,33,1,onethree,,,,,,,,,,,,,,,,,,,,,,,,,,,,,,,,,,,,,,,,,,,,,,,,,,,,,,,,,,,,,,,,,,,,,,,,,,,,,,,,,,,,,,,,,,,,,,,,,,,,,,,,,,,,,,,,,,,,,,,,,,,,,,,,,,,,,,,,,,,,,,,,,,,,,,,,,,,,,
,,,,,,5d1463c5d40c1b00167822a8,62c539d918e773dc848437f4,2022-07-06_02h31.54.356,Colour_Asymmetry_Pilot,2022.1.3,Win32,71.90623427,62c50e9c1127f2cd403a315f,0,98,98,26,1,twoone,,,,,,,,,,,,,,,,,,,,,,,,,,,,,,,,,,,,,,,,,,,,,,,,,,,,,,,,,,,,,,,,,,,,,,,,,,,,,,,,,,,,,,,,,,,,,,,,,,,,,,,,,,,,,,,,,,,,,,,,,,,,,,,,,,,,,,,,,,,,,,,,,,,,,,,,,,,,,
,,,,,,5d1463c5d40c1b00167822a8,62c539d918e773dc848437f4,2022-07-06_02h31.54.356,Colour_Asymmetry_Pilot,2022.1.3,Win32,71.90623427,62c50e9c1127f2cd403a315f,0,99,99,99,1,twofour,,,,,,,,,,,,,,,,,,,,,,,,,,,,,,,,,,,,,,,,,,,,,,,,,,,,,,,,,,,,,,,,,,,,,,,,,,,,,,,,,,,,,,,,,,,,,,,,,,,,,,,,,,,,,,,,,,,,,,,,,,,,,,,,,,,,,,,,,,,,,,,,,,,,,,,,,,,,,
,,,,,,5d1463c5d40c1b00167822a8,62c539d918e773dc848437f4,2022-07-06_02h31.54.356,Colour_Asymmetry_Pilot,2022.1.3,Win32,71.90623427,62c50e9c1127f2cd403a315f,0,100,100,144,1,onetwo,,,,,,,,,,,,,,,,,,,,,,,,,,,,,,,,,,,,,,,,,,,,,,,,,,,,,,,,,,,,,,,,,,,,,,,,,,,,,,,,,,,,,,,,,,,,,,,,,,,,,,,,,,,,,,,,,,,,,,,,,,,,,,,,,,,,,,,,,,,,,,,,,,,,,,,,,,,,,
,,,,,,5d1463c5d40c1b00167822a8,62c539d918e773dc848437f4,2022-07-06_02h31.54.356,Colour_Asymmetry_Pilot,2022.1.3,Win32,71.90623427,62c50e9c1127f2cd403a315f,0,101,101,88,1,onetwo,,,,,,,,,,,,,,,,,,,,,,,,,,,,,,,,,,,,,,,,,,,,,,,,,,,,,,,,,,,,,,,,,,,,,,,,,,,,,,,,,,,,,,,,,,,,,,,,,,,,,,,,,,,,,,,,,,,,,,,,,,,,,,,,,,,,,,,,,,,,,,,,,,,,,,,,,,,,,
,,,,,,5d1463c5d40c1b00167822a8,62c539d918e773dc848437f4,2022-07-06_02h31.54.356,Colour_Asymmetry_Pilot,2022.1.3,Win32,71.90623427,62c50e9c1127f2cd403a315f,0,102,102,137,1,onethree,,,,,,,,,,,,,,,,,,,,,,,,,,,,,,,,,,,,,,,,,,,,,,,,,,,,,,,,,,,,,,,,,,,,,,,,,,,,,,,,,,,,,,,,,,,,,,,,,,,,,,,,,,,,,,,,,,,,,,,,,,,,,,,,,,,,,,,,,,,,,,,,,,,,,,,,,,,,,
,,,,,,5d1463c5d40c1b00167822a8,62c539d918e773dc848437f4,2022-07-06_02h31.54.356,Colour_Asymmetry_Pilot,2022.1.3,Win32,71.90623427,62c50e9c1127f2cd403a315f,0,103,103,127,1,fourthree,,,,,,,,,,,,,,,,,,,,,,,,,,,,,,,,,,,,,,,,,,,,,,,,,,,,,,,,,,,,,,,,,,,,,,,,,,,,,,,,,,,,,,,,,,,,,,,,,,,,,,,,,,,,,,,,,,,,,,,,,,,,,,,,,,,,,,,,,,,,,,,,,,,,,,,,,,,,,
,,,,,,5d1463c5d40c1b00167822a8,62c539d918e773dc848437f4,2022-07-06_02h31.54.356,Colour_Asymmetry_Pilot,2022.1.3,Win32,71.90623427,62c50e9c1127f2cd403a315f,0,104,104,108,1,threeone,,,,,,,,,,,,,,,,,,,,,,,,,,,,,,,,,,,,,,,,,,,,,,,,,,,,,,,,,,,,,,,,,,,,,,,,,,,,,,,,,,,,,,,,,,,,,,,,,,,,,,,,,,,,,,,,,,,,,,,,,,,,,,,,,,,,,,,,,,,,,,,,,,,,,,,,,,,,,
,,,,,,5d1463c5d40c1b00167822a8,62c539d918e773dc848437f4,2022-07-06_02h31.54.356,Colour_Asymmetry_Pilot,2022.1.3,Win32,71.90623427,62c50e9c1127f2cd403a315f,0,105,105,83,1,twofour,,,,,,,,,,,,,,,,,,,,,,,,,,,,,,,,,,,,,,,,,,,,,,,,,,,,,,,,,,,,,,,,,,,,,,,,,,,,,,,,,,,,,,,,,,,,,,,,,,,,,,,,,,,,,,,,,,,,,,,,,,,,,,,,,,,,,,,,,,,,,,,,,,,,,,,,,,,,,
,,,,,,5d1463c5d40c1b00167822a8,62c539d918e773dc848437f4,2022-07-06_02h31.54.356,Colour_Asymmetry_Pilot,2022.1.3,Win32,71.90623427,62c50e9c1127f2cd403a315f,0,106,106,2,1,twoone,,,,,,,,,,,,,,,,,,,,,,,,,,,,,,,,,,,,,,,,,,,,,,,,,,,,,,,,,,,,,,,,,,,,,,,,,,,,,,,,,,,,,,,,,,,,,,,,,,,,,,,,,,,,,,,,,,,,,,,,,,,,,,,,,,,,,,,,,,,,,,,,,,,,,,,,,,,,,
,,,,,,5d1463c5d40c1b00167822a8,62c539d918e773dc848437f4,2022-07-06_02h31.54.356,Colour_Asymmetry_Pilot,2022.1.3,Win32,71.90623427,62c50e9c1127f2cd403a315f,0,107,107,131,1,twofour,,,,,,,,,,,,,,,,,,,,,,,,,,,,,,,,,,,,,,,,,,,,,,,,,,,,,,,,,,,,,,,,,,,,,,,,,,,,,,,,,,,,,,,,,,,,,,,,,,,,,,,,,,,,,,,,,,,,,,,,,,,,,,,,,,,,,,,,,,,,,,,,,,,,,,,,,,,,,
,,,,,,5d1463c5d40c1b00167822a8,62c539d918e773dc848437f4,2022-07-06_02h31.54.356,Colour_Asymmetry_Pilot,2022.1.3,Win32,71.90623427,62c50e9c1127f2cd403a315f,0,108,108,65,1,onethree,,,,,,,,,,,,,,,,,,,,,,,,,,,,,,,,,,,,,,,,,,,,,,,,,,,,,,,,,,,,,,,,,,,,,,,,,,,,,,,,,,,,,,,,,,,,,,,,,,,,,,,,,,,,,,,,,,,,,,,,,,,,,,,,,,,,,,,,,,,,,,,,,,,,,,,,,,,,,
,,,,,,5d1463c5d40c1b00167822a8,62c539d918e773dc848437f4,2022-07-06_02h31.54.356,Colour_Asymmetry_Pilot,2022.1.3,Win32,71.90623427,62c50e9c1127f2cd403a315f,0,109,109,30,1,fourtwo,,,,,,,,,,,,,,,,,,,,,,,,,,,,,,,,,,,,,,,,,,,,,,,,,,,,,,,,,,,,,,,,,,,,,,,,,,,,,,,,,,,,,,,,,,,,,,,,,,,,,,,,,,,,,,,,,,,,,,,,,,,,,,,,,,,,,,,,,,,,,,,,,,,,,,,,,,,,,
,,,,,,5d1463c5d40c1b00167822a8,62c539d918e773dc848437f4,2022-07-06_02h31.54.356,Colour_Asymmetry_Pilot,2022.1.3,Win32,71.90623427,62c50e9c1127f2cd403a315f,0,110,110,113,1,onethree,,,,,,,,,,,,,,,,,,,,,,,,,,,,,,,,,,,,,,,,,,,,,,,,,,,,,,,,,,,,,,,,,,,,,,,,,,,,,,,,,,,,,,,,,,,,,,,,,,,,,,,,,,,,,,,,,,,,,,,,,,,,,,,,,,,,,,,,,,,,,,,,,,,,,,,,,,,,,
,,,,,,5d1463c5d40c1b00167822a8,62c539d918e773dc848437f4,2022-07-06_02h31.54.356,Colour_Asymmetry_Pilot,2022.1.3,Win32,71.90623427,62c50e9c1127f2cd403a315f,0,111,111,118,1,fourtwo,,,,,,,,,,,,,,,,,,,,,,,,,,,,,,,,,,,,,,,,,,,,,,,,,,,,,,,,,,,,,,,,,,,,,,,,,,,,,,,,,,,,,,,,,,,,,,,,,,,,,,,,,,,,,,,,,,,,,,,,,,,,,,,,,,,,,,,,,,,,,,,,,,,,,,,,,,,,,
,,,,,,5d1463c5d40c1b00167822a8,62c539d918e773dc848437f4,2022-07-06_02h31.54.356,Colour_Asymmetry_Pilot,2022.1.3,Win32,71.90623427,62c50e9c1127f2cd403a315f,0,112,112,45,1,threefour,,,,,,,,,,,,,,,,,,,,,,,,,,,,,,,,,,,,,,,,,,,,,,,,,,,,,,,,,,,,,,,,,,,,,,,,,,,,,,,,,,,,,,,,,,,,,,,,,,,,,,,,,,,,,,,,,,,,,,,,,,,,,,,,,,,,,,,,,,,,,,,,,,,,,,,,,,,,,
,,,,,,5d1463c5d40c1b00167822a8,62c539d918e773dc848437f4,2022-07-06_02h31.54.356,Colour_Asymmetry_Pilot,2022.1.3,Win32,71.90623427,62c50e9c1127f2cd403a315f,0,113,113,149,1,threefour,,,,,,,,,,,,,,,,,,,,,,,,,,,,,,,,,,,,,,,,,,,,,,,,,,,,,,,,,,,,,,,,,,,,,,,,,,,,,,,,,,,,,,,,,,,,,,,,,,,,,,,,,,,,,,,,,,,,,,,,,,,,,,,,,,,,,,,,,,,,,,,,,,,,,,,,,,,,,
,,,,,,5d1463c5d40c1b00167822a8,62c539d918e773dc848437f4,2022-07-06_02h31.54.356,Colour_Asymmetry_Pilot,2022.1.3,Win32,71.90623427,62c50e9c1127f2cd403a315f,0,114,114,85,1,threefour,,,,,,,,,,,,,,,,,,,,,,,,,,,,,,,,,,,,,,,,,,,,,,,,,,,,,,,,,,,,,,,,,,,,,,,,,,,,,,,,,,,,,,,,,,,,,,,,,,,,,,,,,,,,,,,,,,,,,,,,,,,,,,,,,,,,,,,,,,,,,,,,,,,,,,,,,,,,,
,,,,,,5d1463c5d40c1b00167822a8,62c539d918e773dc848437f4,2022-07-06_02h31.54.356,Colour_Asymmetry_Pilot,2022.1.3,Win32,71.90623427,62c50e9c1127f2cd403a315f,0,115,115,90,1,twoone,,,,,,,,,,,,,,,,,,,,,,,,,,,,,,,,,,,,,,,,,,,,,,,,,,,,,,,,,,,,,,,,,,,,,,,,,,,,,,,,,,,,,,,,,,,,,,,,,,,,,,,,,,,,,,,,,,,,,,,,,,,,,,,,,,,,,,,,,,,,,,,,,,,,,,,,,,,,,
,,,,,,5d1463c5d40c1b00167822a8,62c539d918e773dc848437f4,2022-07-06_02h31.54.356,Colour_Asymmetry_Pilot,2022.1.3,Win32,71.90623427,62c50e9c1127f2cd403a315f,0,116,116,121,1,onethree,,,,,,,,,,,,,,,,,,,,,,,,,,,,,,,,,,,,,,,,,,,,,,,,,,,,,,,,,,,,,,,,,,,,,,,,,,,,,,,,,,,,,,,,,,,,,,,,,,,,,,,,,,,,,,,,,,,,,,,,,,,,,,,,,,,,,,,,,,,,,,,,,,,,,,,,,,,,,
,,,,,,5d1463c5d40c1b00167822a8,62c539d918e773dc848437f4,2022-07-06_02h31.54.356,Colour_Asymmetry_Pilot,2022.1.3,Win32,71.90623427,62c50e9c1127f2cd403a315f,0,117,117,35,1,twofour,,,,,,,,,,,,,,,,,,,,,,,,,,,,,,,,,,,,,,,,,,,,,,,,,,,,,,,,,,,,,,,,,,,,,,,,,,,,,,,,,,,,,,,,,,,,,,,,,,,,,,,,,,,,,,,,,,,,,,,,,,,,,,,,,,,,,,,,,,,,,,,,,,,,,,,,,,,,,
,,,,,,5d1463c5d40c1b00167822a8,62c539d918e773dc848437f4,2022-07-06_02h31.54.356,Colour_Asymmetry_Pilot,2022.1.3,Win32,71.90623427,62c50e9c1127f2cd403a315f,0,118,118,28,1,threeone,,,,,,,,,,,,,,,,,,,,,,,,,,,,,,,,,,,,,,,,,,,,,,,,,,,,,,,,,,,,,,,,,,,,,,,,,,,,,,,,,,,,,,,,,,,,,,,,,,,,,,,,,,,,,,,,,,,,,,,,,,,,,,,,,,,,,,,,,,,,,,,,,,,,,,,,,,,,,
,,,,,,5d1463c5d40c1b00167822a8,62c539d918e773dc848437f4,2022-07-06_02h31.54.356,Colour_Asymmetry_Pilot,2022.1.3,Win32,71.90623427,62c50e9c1127f2cd403a315f,0,119,119,69,1,threefour,,,,,,,,,,,,,,,,,,,,,,,,,,,,,,,,,,,,,,,,,,,,,,,,,,,,,,,,,,,,,,,,,,,,,,,,,,,,,,,,,,,,,,,,,,,,,,,,,,,,,,,,,,,,,,,,,,,,,,,,,,,,,,,,,,,,,,,,,,,,,,,,,,,,,,,,,,,,,
,,,,,,5d1463c5d40c1b00167822a8,62c539d918e773dc848437f4,2022-07-06_02h31.54.356,Colour_Asymmetry_Pilot,2022.1.3,Win32,71.90623427,62c50e9c1127f2cd403a315f,0,120,120,12,1,threeone,,,,,,,,,,,,,,,,,,,,,,,,,,,,,,,,,,,,,,,,,,,,,,,,,,,,,,,,,,,,,,,,,,,,,,,,,,,,,,,,,,,,,,,,,,,,,,,,,,,,,,,,,,,,,,,,,,,,,,,,,,,,,,,,,,,,,,,,,,,,,,,,,,,,,,,,,,,,,
,,,,,,5d1463c5d40c1b00167822a8,62c539d918e773dc848437f4,2022-07-06_02h31.54.356,Colour_Asymmetry_Pilot,2022.1.3,Win32,71.90623427,62c50e9c1127f2cd403a315f,0,121,121,54,1,fourtwo,,,,,,,,,,,,,,,,,,,,,,,,,,,,,,,,,,,,,,,,,,,,,,,,,,,,,,,,,,,,,,,,,,,,,,,,,,,,,,,,,,,,,,,,,,,,,,,,,,,,,,,,,,,,,,,,,,,,,,,,,,,,,,,,,,,,,,,,,,,,,,,,,,,,,,,,,,,,,
,,,,,,5d1463c5d40c1b00167822a8,62c539d918e773dc848437f4,2022-07-06_02h31.54.356,Colour_Asymmetry_Pilot,2022.1.3,Win32,71.90623427,62c50e9c1127f2cd403a315f,0,122,122,24,1,onetwo,,,,,,,,,,,,,,,,,,,,,,,,,,,,,,,,,,,,,,,,,,,,,,,,,,,,,,,,,,,,,,,,,,,,,,,,,,,,,,,,,,,,,,,,,,,,,,,,,,,,,,,,,,,,,,,,,,,,,,,,,,,,,,,,,,,,,,,,,,,,,,,,,,,,,,,,,,,,,
,,,,,,5d1463c5d40c1b00167822a8,62c539d918e773dc848437f4,2022-07-06_02h31.54.356,Colour_Asymmetry_Pilot,2022.1.3,Win32,71.90623427,62c50e9c1127f2cd403a315f,0,123,123,84,1,threeone,,,,,,,,,,,,,,,,,,,,,,,,,,,,,,,,,,,,,,,,,,,,,,,,,,,,,,,,,,,,,,,,,,,,,,,,,,,,,,,,,,,,,,,,,,,,,,,,,,,,,,,,,,,,,,,,,,,,,,,,,,,,,,,,,,,,,,,,,,,,,,,,,,,,,,,,,,,,,
,,,,,,5d1463c5d40c1b00167822a8,62c539d918e773dc848437f4,2022-07-06_02h31.54.356,Colour_Asymmetry_Pilot,2022.1.3,Win32,71.90623427,62c50e9c1127f2cd403a315f,0,124,124,159,1,fourthree,,,,,,,,,,,,,,,,,,,,,,,,,,,,,,,,,,,,,,,,,,,,,,,,,,,,,,,,,,,,,,,,,,,,,,,,,,,,,,,,,,,,,,,,,,,,,,,,,,,,,,,,,,,,,,,,,,,,,,,,,,,,,,,,,,,,,,,,,,,,,,,,,,,,,,,,,,,,,
,,,,,,5d1463c5d40c1b00167822a8,62c539d918e773dc848437f4,2022-07-06_02h31.54.356,Colour_Asymmetry_Pilot,2022.1.3,Win32,71.90623427,62c50e9c1127f2cd403a315f,0,125,125,0,1,onetwo,,,,,,,,,,,,,,,,,,,,,,,,,,,,,,,,,,,,,,,,,,,,,,,,,,,,,,,,,,,,,,,,,,,,,,,,,,,,,,,,,,,,,,,,,,,,,,,,,,,,,,,,,,,,,,,,,,,,,,,,,,,,,,,,,,,,,,,,,,,,,,,,,,,,,,,,,,,,,
,,,,,,5d1463c5d40c1b00167822a8,62c539d918e773dc848437f4,2022-07-06_02h31.54.356,Colour_Asymmetry_Pilot,2022.1.3,Win32,71.90623427,62c50e9c1127f2cd403a315f,0,126,126,32,1,onetwo,,,,,,,,,,,,,,,,,,,,,,,,,,,,,,,,,,,,,,,,,,,,,,,,,,,,,,,,,,,,,,,,,,,,,,,,,,,,,,,,,,,,,,,,,,,,,,,,,,,,,,,,,,,,,,,,,,,,,,,,,,,,,,,,,,,,,,,,,,,,,,,,,,,,,,,,,,,,,
,,,,,,5d1463c5d40c1b00167822a8,62c539d918e773dc848437f4,2022-07-06_02h31.54.356,Colour_Asymmetry_Pilot,2022.1.3,Win32,71.90623427,62c50e9c1127f2cd403a315f,0,127,127,120,1,onetwo,,,,,,,,,,,,,,,,,,,,,,,,,,,,,,,,,,,,,,,,,,,,,,,,,,,,,,,,,,,,,,,,,,,,,,,,,,,,,,,,,,,,,,,,,,,,,,,,,,,,,,,,,,,,,,,,,,,,,,,,,,,,,,,,,,,,,,,,,,,,,,,,,,,,,,,,,,,,,
,,,,,,5d1463c5d40c1b00167822a8,62c539d918e773dc848437f4,2022-07-06_02h31.54.356,Colour_Asymmetry_Pilot,2022.1.3,Win32,71.90623427,62c50e9c1127f2cd403a315f,0,128,128,106,1,twoone,,,,,,,,,,,,,,,,,,,,,,,,,,,,,,,,,,,,,,,,,,,,,,,,,,,,,,,,,,,,,,,,,,,,,,,,,,,,,,,,,,,,,,,,,,,,,,,,,,,,,,,,,,,,,,,,,,,,,,,,,,,,,,,,,,,,,,,,,,,,,,,,,,,,,,,,,,,,,
,,,,,,5d1463c5d40c1b00167822a8,62c539d918e773dc848437f4,2022-07-06_02h31.54.356,Colour_Asymmetry_Pilot,2022.1.3,Win32,71.90623427,62c50e9c1127f2cd403a315f,0,129,129,101,1,threefour,,,,,,,,,,,,,,,,,,,,,,,,,,,,,,,,,,,,,,,,,,,,,,,,,,,,,,,,,,,,,,,,,,,,,,,,,,,,,,,,,,,,,,,,,,,,,,,,,,,,,,,,,,,,,,,,,,,,,,,,,,,,,,,,,,,,,,,,,,,,,,,,,,,,,,,,,,,,,
,,,,,,5d1463c5d40c1b00167822a8,62c539d918e773dc848437f4,2022-07-06_02h31.54.356,Colour_Asymmetry_Pilot,2022.1.3,Win32,71.90623427,62c50e9c1127f2cd403a315f,0,130,130,81,1,onethree,,,,,,,,,,,,,,,,,,,,,,,,,,,,,,,,,,,,,,,,,,,,,,,,,,,,,,,,,,,,,,,,,,,,,,,,,,,,,,,,,,,,,,,,,,,,,,,,,,,,,,,,,,,,,,,,,,,,,,,,,,,,,,,,,,,,,,,,,,,,,,,,,,,,,,,,,,,,,
,,,,,,5d1463c5d40c1b00167822a8,62c539d918e773dc848437f4,2022-07-06_02h31.54.356,Colour_Asymmetry_Pilot,2022.1.3,Win32,71.90623427,62c50e9c1127f2cd403a315f,0,131,131,122,1,twoone,,,,,,,,,,,,,,,,,,,,,,,,,,,,,,,,,,,,,,,,,,,,,,,,,,,,,,,,,,,,,,,,,,,,,,,,,,,,,,,,,,,,,,,,,,,,,,,,,,,,,,,,,,,,,,,,,,,,,,,,,,,,,,,,,,,,,,,,,,,,,,,,,,,,,,,,,,,,,
,,,,,,5d1463c5d40c1b00167822a8,62c539d918e773dc848437f4,2022-07-06_02h31.54.356,Colour_Asymmetry_Pilot,2022.1.3,Win32,71.90623427,62c50e9c1127f2cd403a315f,0,132,132,142,1,fourtwo,,,,,,,,,,,,,,,,,,,,,,,,,,,,,,,,,,,,,,,,,,,,,,,,,,,,,,,,,,,,,,,,,,,,,,,,,,,,,,,,,,,,,,,,,,,,,,,,,,,,,,,,,,,,,,,,,,,,,,,,,,,,,,,,,,,,,,,,,,,,,,,,,,,,,,,,,,,,,
,,,,,,5d1463c5d40c1b00167822a8,62c539d918e773dc848437f4,2022-07-06_02h31.54.356,Colour_Asymmetry_Pilot,2022.1.3,Win32,71.90623427,62c50e9c1127f2cd403a315f,0,133,133,102,1,fourtwo,,,,,,,,,,,,,,,,,,,,,,,,,,,,,,,,,,,,,,,,,,,,,,,,,,,,,,,,,,,,,,,,,,,,,,,,,,,,,,,,,,,,,,,,,,,,,,,,,,,,,,,,,,,,,,,,,,,,,,,,,,,,,,,,,,,,,,,,,,,,,,,,,,,,,,,,,,,,,
,,,,,,5d1463c5d40c1b00167822a8,62c539d918e773dc848437f4,2022-07-06_02h31.54.356,Colour_Asymmetry_Pilot,2022.1.3,Win32,71.90623427,62c50e9c1127f2cd403a315f,0,134,134,59,1,twofour,,,,,,,,,,,,,,,,,,,,,,,,,,,,,,,,,,,,,,,,,,,,,,,,,,,,,,,,,,,,,,,,,,,,,,,,,,,,,,,,,,,,,,,,,,,,,,,,,,,,,,,,,,,,,,,,,,,,,,,,,,,,,,,,,,,,,,,,,,,,,,,,,,,,,,,,,,,,,
,,,,,,5d1463c5d40c1b00167822a8,62c539d918e773dc848437f4,2022-07-06_02h31.54.356,Colour_Asymmetry_Pilot,2022.1.3,Win32,71.90623427,62c50e9c1127f2cd403a315f,0,135,135,98,1,twoone,,,,,,,,,,,,,,,,,,,,,,,,,,,,,,,,,,,,,,,,,,,,,,,,,,,,,,,,,,,,,,,,,,,,,,,,,,,,,,,,,,,,,,,,,,,,,,,,,,,,,,,,,,,,,,,,,,,,,,,,,,,,,,,,,,,,,,,,,,,,,,,,,,,,,,,,,,,,,
,,,,,,5d1463c5d40c1b00167822a8,62c539d918e773dc848437f4,2022-07-06_02h31.54.356,Colour_Asymmetry_Pilot,2022.1.3,Win32,71.90623427,62c50e9c1127f2cd403a315f,0,136,136,57,1,onethree,,,,,,,,,,,,,,,,,,,,,,,,,,,,,,,,,,,,,,,,,,,,,,,,,,,,,,,,,,,,,,,,,,,,,,,,,,,,,,,,,,,,,,,,,,,,,,,,,,,,,,,,,,,,,,,,,,,,,,,,,,,,,,,,,,,,,,,,,,,,,,,,,,,,,,,,,,,,,
,,,,,,5d1463c5d40c1b00167822a8,62c539d918e773dc848437f4,2022-07-06_02h31.54.356,Colour_Asymmetry_Pilot,2022.1.3,Win32,71.90623427,62c50e9c1127f2cd403a315f,0,137,137,143,1,fourthree,,,,,,,,,,,,,,,,,,,,,,,,,,,,,,,,,,,,,,,,,,,,,,,,,,,,,,,,,,,,,,,,,,,,,,,,,,,,,,,,,,,,,,,,,,,,,,,,,,,,,,,,,,,,,,,,,,,,,,,,,,,,,,,,,,,,,,,,,,,,,,,,,,,,,,,,,,,,,
,,,,,,5d1463c5d40c1b00167822a8,62c539d918e773dc848437f4,2022-07-06_02h31.54.356,Colour_Asymmetry_Pilot,2022.1.3,Win32,71.90623427,62c50e9c1127f2cd403a315f,0,138,138,100,1,threeone,,,,,,,,,,,,,,,,,,,,,,,,,,,,,,,,,,,,,,,,,,,,,,,,,,,,,,,,,,,,,,,,,,,,,,,,,,,,,,,,,,,,,,,,,,,,,,,,,,,,,,,,,,,,,,,,,,,,,,,,,,,,,,,,,,,,,,,,,,,,,,,,,,,,,,,,,,,,,
,,,,,,5d1463c5d40c1b00167822a8,62c539d918e773dc848437f4,2022-07-06_02h31.54.356,Colour_Asymmetry_Pilot,2022.1.3,Win32,71.90623427,62c50e9c1127f2cd403a315f,0,139,139,70,1,fourtwo,,,,,,,,,,,,,,,,,,,,,,,,,,,,,,,,,,,,,,,,,,,,,,,,,,,,,,,,,,,,,,,,,,,,,,,,,,,,,,,,,,,,,,,,,,,,,,,,,,,,,,,,,,,,,,,,,,,,,,,,,,,,,,,,,,,,,,,,,,,,,,,,,,,,,,,,,,,,,
,,,,,,5d1463c5d40c1b00167822a8,62c539d918e773dc848437f4,2022-07-06_02h31.54.356,Colour_Asymmetry_Pilot,2022.1.3,Win32,71.90623427,62c50e9c1127f2cd403a315f,0,140,140,49,1,onethree,,,,,,,,,,,,,,,,,,,,,,,,,,,,,,,,,,,,,,,,,,,,,,,,,,,,,,,,,,,,,,,,,,,,,,,,,,,,,,,,,,,,,,,,,,,,,,,,,,,,,,,,,,,,,,,,,,,,,,,,,,,,,,,,,,,,,,,,,,,,,,,,,,,,,,,,,,,,,
,,,,,,5d1463c5d40c1b00167822a8,62c539d918e773dc848437f4,2022-07-06_02h31.54.356,Colour_Asymmetry_Pilot,2022.1.3,Win32,71.90623427,62c50e9c1127f2cd403a315f,0,141,141,126,1,fourtwo,,,,,,,,,,,,,,,,,,,,,,,,,,,,,,,,,,,,,,,,,,,,,,,,,,,,,,,,,,,,,,,,,,,,,,,,,,,,,,,,,,,,,,,,,,,,,,,,,,,,,,,,,,,,,,,,,,,,,,,,,,,,,,,,,,,,,,,,,,,,,,,,,,,,,,,,,,,,,
,,,,,,5d1463c5d40c1b00167822a8,62c539d918e773dc848437f4,2022-07-06_02h31.54.356,Colour_Asymmetry_Pilot,2022.1.3,Win32,71.90623427,62c50e9c1127f2cd403a315f,0,142,142,89,1,onethree,,,,,,,,,,,,,,,,,,,,,,,,,,,,,,,,,,,,,,,,,,,,,,,,,,,,,,,,,,,,,,,,,,,,,,,,,,,,,,,,,,,,,,,,,,,,,,,,,,,,,,,,,,,,,,,,,,,,,,,,,,,,,,,,,,,,,,,,,,,,,,,,,,,,,,,,,,,,,
,,,,,,5d1463c5d40c1b00167822a8,62c539d918e773dc848437f4,2022-07-06_02h31.54.356,Colour_Asymmetry_Pilot,2022.1.3,Win32,71.90623427,62c50e9c1127f2cd403a315f,0,143,143,80,1,onetwo,,,,,,,,,,,,,,,,,,,,,,,,,,,,,,,,,,,,,,,,,,,,,,,,,,,,,,,,,,,,,,,,,,,,,,,,,,,,,,,,,,,,,,,,,,,,,,,,,,,,,,,,,,,,,,,,,,,,,,,,,,,,,,,,,,,,,,,,,,,,,,,,,,,,,,,,,,,,,
,,,,,,5d1463c5d40c1b00167822a8,62c539d918e773dc848437f4,2022-07-06_02h31.54.356,Colour_Asymmetry_Pilot,2022.1.3,Win32,71.90623427,62c50e9c1127f2cd403a315f,0,144,144,125,1,threefour,,,,,,,,,,,,,,,,,,,,,,,,,,,,,,,,,,,,,,,,,,,,,,,,,,,,,,,,,,,,,,,,,,,,,,,,,,,,,,,,,,,,,,,,,,,,,,,,,,,,,,,,,,,,,,,,,,,,,,,,,,,,,,,,,,,,,,,,,,,,,,,,,,,,,,,,,,,,,
,,,,,,5d1463c5d40c1b00167822a8,62c539d918e773dc848437f4,2022-07-06_02h31.54.356,Colour_Asymmetry_Pilot,2022.1.3,Win32,71.90623427,62c50e9c1127f2cd403a315f,0,145,145,15,1,fourthree,,,,,,,,,,,,,,,,,,,,,,,,,,,,,,,,,,,,,,,,,,,,,,,,,,,,,,,,,,,,,,,,,,,,,,,,,,,,,,,,,,,,,,,,,,,,,,,,,,,,,,,,,,,,,,,,,,,,,,,,,,,,,,,,,,,,,,,,,,,,,,,,,,,,,,,,,,,,,
,,,,,,5d1463c5d40c1b00167822a8,62c539d918e773dc848437f4,2022-07-06_02h31.54.356,Colour_Asymmetry_Pilot,2022.1.3,Win32,71.90623427,62c50e9c1127f2cd403a315f,0,146,146,124,1,threeone,,,,,,,,,,,,,,,,,,,,,,,,,,,,,,,,,,,,,,,,,,,,,,,,,,,,,,,,,,,,,,,,,,,,,,,,,,,,,,,,,,,,,,,,,,,,,,,,,,,,,,,,,,,,,,,,,,,,,,,,,,,,,,,,,,,,,,,,,,,,,,,,,,,,,,,,,,,,,
,,,,,,5d1463c5d40c1b00167822a8,62c539d918e773dc848437f4,2022-07-06_02h31.54.356,Colour_Asymmetry_Pilot,2022.1.3,Win32,71.90623427,62c50e9c1127f2cd403a315f,0,147,147,73,1,onethree,,,,,,,,,,,,,,,,,,,,,,,,,,,,,,,,,,,,,,,,,,,,,,,,,,,,,,,,,,,,,,,,,,,,,,,,,,,,,,,,,,,,,,,,,,,,,,,,,,,,,,,,,,,,,,,,,,,,,,,,,,,,,,,,,,,,,,,,,,,,,,,,,,,,,,,,,,,,,
,,,,,,5d1463c5d40c1b00167822a8,62c539d918e773dc848437f4,2022-07-06_02h31.54.356,Colour_Asymmetry_Pilot,2022.1.3,Win32,71.90623427,62c50e9c1127f2cd403a315f,0,148,148,75,1,twofour,,,,,,,,,,,,,,,,,,,,,,,,,,,,,,,,,,,,,,,,,,,,,,,,,,,,,,,,,,,,,,,,,,,,,,,,,,,,,,,,,,,,,,,,,,,,,,,,,,,,,,,,,,,,,,,,,,,,,,,,,,,,,,,,,,,,,,,,,,,,,,,,,,,,,,,,,,,,,
,,,,,,5d1463c5d40c1b00167822a8,62c539d918e773dc848437f4,2022-07-06_02h31.54.356,Colour_Asymmetry_Pilot,2022.1.3,Win32,71.90623427,62c50e9c1127f2cd403a315f,0,149,149,112,1,onetwo,,,,,,,,,,,,,,,,,,,,,,,,,,,,,,,,,,,,,,,,,,,,,,,,,,,,,,,,,,,,,,,,,,,,,,,,,,,,,,,,,,,,,,,,,,,,,,,,,,,,,,,,,,,,,,,,,,,,,,,,,,,,,,,,,,,,,,,,,,,,,,,,,,,,,,,,,,,,,
,,,,,,5d1463c5d40c1b00167822a8,62c539d918e773dc848437f4,2022-07-06_02h31.54.356,Colour_Asymmetry_Pilot,2022.1.3,Win32,71.90623427,62c50e9c1127f2cd403a315f,0,150,150,150,1,fourtwo,,,,,,,,,,,,,,,,,,,,,,,,,,,,,,,,,,,,,,,,,,,,,,,,,,,,,,,,,,,,,,,,,,,,,,,,,,,,,,,,,,,,,,,,,,,,,,,,,,,,,,,,,,,,,,,,,,,,,,,,,,,,,,,,,,,,,,,,,,,,,,,,,,,,,,,,,,,,,
,,,,,,5d1463c5d40c1b00167822a8,62c539d918e773dc848437f4,2022-07-06_02h31.54.356,Colour_Asymmetry_Pilot,2022.1.3,Win32,71.90623427,62c50e9c1127f2cd403a315f,0,151,151,134,1,fourtwo,,,,,,,,,,,,,,,,,,,,,,,,,,,,,,,,,,,,,,,,,,,,,,,,,,,,,,,,,,,,,,,,,,,,,,,,,,,,,,,,,,,,,,,,,,,,,,,,,,,,,,,,,,,,,,,,,,,,,,,,,,,,,,,,,,,,,,,,,,,,,,,,,,,,,,,,,,,,,
,,,,,,5d1463c5d40c1b00167822a8,62c539d918e773dc848437f4,2022-07-06_02h31.54.356,Colour_Asymmetry_Pilot,2022.1.3,Win32,71.90623427,62c50e9c1127f2cd403a315f,0,152,152,74,1,twoone,,,,,,,,,,,,,,,,,,,,,,,,,,,,,,,,,,,,,,,,,,,,,,,,,,,,,,,,,,,,,,,,,,,,,,,,,,,,,,,,,,,,,,,,,,,,,,,,,,,,,,,,,,,,,,,,,,,,,,,,,,,,,,,,,,,,,,,,,,,,,,,,,,,,,,,,,,,,,
,,,,,,5d1463c5d40c1b00167822a8,62c539d918e773dc848437f4,2022-07-06_02h31.54.356,Colour_Asymmetry_Pilot,2022.1.3,Win32,71.90623427,62c50e9c1127f2cd403a315f,0,153,153,86,1,fourtwo,,,,,,,,,,,,,,,,,,,,,,,,,,,,,,,,,,,,,,,,,,,,,,,,,,,,,,,,,,,,,,,,,,,,,,,,,,,,,,,,,,,,,,,,,,,,,,,,,,,,,,,,,,,,,,,,,,,,,,,,,,,,,,,,,,,,,,,,,,,,,,,,,,,,,,,,,,,,,
,,,,,,5d1463c5d40c1b00167822a8,62c539d918e773dc848437f4,2022-07-06_02h31.54.356,Colour_Asymmetry_Pilot,2022.1.3,Win32,71.90623427,62c50e9c1127f2cd403a315f,0,154,154,25,1,onethree,,,,,,,,,,,,,,,,,,,,,,,,,,,,,,,,,,,,,,,,,,,,,,,,,,,,,,,,,,,,,,,,,,,,,,,,,,,,,,,,,,,,,,,,,,,,,,,,,,,,,,,,,,,,,,,,,,,,,,,,,,,,,,,,,,,,,,,,,,,,,,,,,,,,,,,,,,,,,
,,,,,,5d1463c5d40c1b00167822a8,62c539d918e773dc848437f4,2022-07-06_02h31.54.356,Colour_Asymmetry_Pilot,2022.1.3,Win32,71.90623427,62c50e9c1127f2cd403a315f,0,155,155,87,1,fourthree,,,,,,,,,,,,,,,,,,,,,,,,,,,,,,,,,,,,,,,,,,,,,,,,,,,,,,,,,,,,,,,,,,,,,,,,,,,,,,,,,,,,,,,,,,,,,,,,,,,,,,,,,,,,,,,,,,,,,,,,,,,,,,,,,,,,,,,,,,,,,,,,,,,,,,,,,,,,,
,,,,,,5d1463c5d40c1b00167822a8,62c539d918e773dc848437f4,2022-07-06_02h31.54.356,Colour_Asymmetry_Pilot,2022.1.3,Win32,71.90623427,62c50e9c1127f2cd403a315f,0,156,156,107,1,twofour,,,,,,,,,,,,,,,,,,,,,,,,,,,,,,,,,,,,,,,,,,,,,,,,,,,,,,,,,,,,,,,,,,,,,,,,,,,,,,,,,,,,,,,,,,,,,,,,,,,,,,,,,,,,,,,,,,,,,,,,,,,,,,,,,,,,,,,,,,,,,,,,,,,,,,,,,,,,,
,,,,,,5d1463c5d40c1b00167822a8,62c539d918e773dc848437f4,2022-07-06_02h31.54.356,Colour_Asymmetry_Pilot,2022.1.3,Win32,71.90623427,62c50e9c1127f2cd403a315f,0,157,157,111,1,fourthree,,,,,,,,,,,,,,,,,,,,,,,,,,,,,,,,,,,,,,,,,,,,,,,,,,,,,,,,,,,,,,,,,,,,,,,,,,,,,,,,,,,,,,,,,,,,,,,,,,,,,,,,,,,,,,,,,,,,,,,,,,,,,,,,,,,,,,,,,,,,,,,,,,,,,,,,,,,,,
,,,,,,5d1463c5d40c1b00167822a8,62c539d918e773dc848437f4,2022-07-06_02h31.54.356,Colour_Asymmetry_Pilot,2022.1.3,Win32,71.90623427,62c50e9c1127f2cd403a315f,0,158,158,31,1,fourthree,,,,,,,,,,,,,,,,,,,,,,,,,,,,,,,,,,,,,,,,,,,,,,,,,,,,,,,,,,,,,,,,,,,,,,,,,,,,,,,,,,,,,,,,,,,,,,,,,,,,,,,,,,,,,,,,,,,,,,,,,,,,,,,,,,,,,,,,,,,,,,,,,,,,,,,,,,,,,
,,,,,,5d1463c5d40c1b00167822a8,62c539d918e773dc848437f4,2022-07-06_02h31.54.356,Colour_Asymmetry_Pilot,2022.1.3,Win32,71.90623427,62c50e9c1127f2cd403a315f,0,159,159,79,1,fourthree,,,,,,,,,,,,,,,,,,,,,,,,,,,,,,,,,,,,,,,,,,,,,,,,,,,,,,,,,,,,,,,,,,,,,,,,,,,,,,,,,,,,,,,,,,,,,,,,,,,,,,,,,,,,,,,,,,,,,,,,,,,,,,,,,,,,,,,,,,,,,,,,,,,,,,,,,,,,,
,,,,,,5d1463c5d40c1b00167822a8,62c539d918e773dc848437f4,2022-07-06_02h31.54.356,Colour_Asymmetry_Pilot,2022.1.3,Win32,71.90623427,62c50e9c1127f2cd403a315f,0,160,160,76,1,threeone,,,,,,,,,,,,,,,,,,,,,,,,,,,,,,,,,,,,,,,,,,,,,,,,,,,,,,,,,,,,,,,,,,,,,,,,,,,,,,,,,,,,,,,,,,,,,,,,,,,,,,,,,,,,,,,,,,,,,,,,,,,,,,,,,,,,,,,,,,,,,,,,,,,,,,,,,,,,,
,,,,,,5d1463c5d40c1b00167822a8,62c539d918e773dc848437f4,2022-07-06_02h31.54.356,Colour_Asymmetry_Pilot,2022.1.3,Win32,71.90623427,62c50e9c1127f2cd403a315f,0,161,161,103,1,fourthree,,,,,,,,,,,,,,,,,,,,,,,,,,,,,,,,,,,,,,,,,,,,,,,,,,,,,,,,,,,,,,,,,,,,,,,,,,,,,,,,,,,,,,,,,,,,,,,,,,,,,,,,,,,,,,,,,,,,,,,,,,,,,,,,,,,,,,,,,,,,,,,,,,,,,,,,,,,,,
,,,,,,5d1463c5d40c1b00167822a8,62c539d918e773dc848437f4,2022-07-06_02h31.54.356,Colour_Asymmetry_Pilot,2022.1.3,Win32,71.90623427,62c50e9c1127f2cd403a315f,,,,,,,space,31.4692,space,68.3637,space,75.2481,space,38.2955,space,2.2564,space,3.0111,"[0.9686000000000001,0.3802000000000001,0.19999999999999996]",threeone,"[0.9372,0.20779999999999998,0.2704]",3,7.2443,131,24,1,0,0,response1disk_5,-8,4,1,0,0,rectangle_8,-8,4,1,0,0,3,-8,4,1,0,0,0,0,0,0,1,,,,,,,,,,,,,,,,,,,,,,,,,,,,,,,,,,,,,,,,,,,,,,,,,,,,,,,,,,,,,,,,,,,,,,,,,,,,,,,,,,,,,,,,,,,,,,,,,,,,,,,,,,,,,,,,
,,,,,,5d1463c5d40c1b00167822a8,62c539d918e773dc848437f4,2022-07-06_02h31.54.356,Colour_Asymmetry_Pilot,2022.1.3,Win32,71.90623427,62c50e9c1127f2cd403a315f,,,,,,,,,,,,,,,,,,,"[-0.8198,-0.5138,-0.7492000000000001]",threeone,"[0.7176,-0.906,-0.6864]",-4,3.3437,-57,87,1,0,0,response7disk_5,-8,-6,1,0,0,rectangle_8,-8,-6,1,0,0,3,-8,-6,1,0,0,1,0,1,0,1,,,,,,,,,,,,,,,,,,,,,,,,,,,,,,,,,,,,,,,,,,,,,,,,,,,,,,,,,,,,,,,,,,,,,,,,,,,,,,,,,,,,,,,,,,,,,,,,,,,,,,,,,,,,,,,,
,,,,,,5d1463c5d40c1b00167822a8,62c539d918e773dc848437f4,2022-07-06_02h31.54.356,Colour_Asymmetry_Pilot,2022.1.3,Win32,71.90623427,62c50e9c1127f2cd403a315f,,,,,,,,,,,,,,,,,,,"[-0.45899999999999996,-0.3256,-0.9374]",threefour,"[0.19199999999999995,0.18419999999999992,0.5136000000000001]",1,3.3787,39,-117,1,0,0,response3disk_5,-17,0,1,0,0,rectangle_8,-17,0,1,0,0,3,-17,0,1,0,0,2,0,2,0,1,,,,,,,,,,,,,,,,,,,,,,,,,,,,,,,,,,,,,,,,,,,,,,,,,,,,,,,,,,,,,,,,,,,,,,,,,,,,,,,,,,,,,,,,,,,,,,,,,,,,,,,,,,,,,,,,
,,,,,,5d1463c5d40c1b00167822a8,62c539d918e773dc848437f4,2022-07-06_02h31.54.356,Colour_Asymmetry_Pilot,2022.1.3,Win32,71.90623427,62c50e9c1127f2cd403a315f,,,,,,,,,,,,,,,,,,,"[-0.09019999999999995,0.44300000000000006,0.5371999999999999]",onetwo,"[-0.26280000000000003,-0.2158,-0.3256]",1,2.8668,44,-142,1,0,0,response3disk_5,-6,-8,1,0,0,rectangle_8,112,41,1,0,0,3,-3,17,1,0,0,3,0,3,0,1,response1disk_7,6,rectangle_4,,,,,,,,,,,,,,,,,,,,,,,,,,,,,,,,,,,,,,,,,,,,,,,,,,,,,,,,,,,,,,,,,,,,,,,,,,,,,,,,,,,,,,,,,,,,,,,,,,,,,,,,,,,,,
,,,,,,5d1463c5d40c1b00167822a8,62c539d918e773dc848437f4,2022-07-06_02h31.54.356,Colour_Asymmetry_Pilot,2022.1.3,Win32,71.90623427,62c50e9c1127f2cd403a315f,,,,,,,,,,,,,,,,,,,"[-0.24719999999999998,0.5213999999999999,-0.12959999999999994]",threefour,"[-0.9688,-0.38039999999999996,-0.41979999999999995]",2,2.3023,134,-48,1,0,0,response3disk_5,-1,-1,1,0,0,rectangle_8,-1,-1,1,0,0,3,-1,-1,1,0,0,4,0,4,0,1,,,,,,,,,,,,,,,,,,,,,,,,,,,,,,,,,,,,,,,,,,,,,,,,,,,,,,,,,,,,,,,,,,,,,,,,,,,,,,,,,,,,,,,,,,,,,,,,,,,,,,,,,,,,,,,,
,,,,,,5d1463c5d40c1b00167822a8,62c539d918e773dc848437f4,2022-07-06_02h31.54.356,Colour_Asymmetry_Pilot,2022.1.3,Win32,71.90623427,62c50e9c1127f2cd403a315f,,,,,,,,,,,,,,,,,,,"[-0.8118,-0.8198,-0.5452]",onetwo,"[0.3802000000000001,0.19199999999999995,-0.6394]",-3,3.3578,-99,66,1,0,0,response7disk_5,14,-4,1,0,0,rectangle_8,96,42,1,0,0,3,-14,-9,1,0,0,5,0,5,0,1,response1disk_7,6,rectangle_4,,,,,,,,,,,,,,,,,,,,,,,,,,,,,,,,,,,,,,,,,,,,,,,,,,,,,,,,,,,,,,,,,,,,,,,,,,,,,,,,,,,,,,,,,,,,,,,,,,,,,,,,,,,,,
,,,,,,5d1463c5d40c1b00167822a8,62c539d918e773dc848437f4,2022-07-06_02h31.54.356,Colour_Asymmetry_Pilot,2022.1.3,Win32,71.90623427,62c50e9c1127f2cd403a315f,,,,,,,,,,,,,,,,,,,"[0.5449999999999999,-0.31000000000000005,-0.0354000000000001]",fourthree,"[-0.7412000000000001,-0.08239999999999992,-0.6864]",-3,3.7448,-119,38,1,0,0,response7disk_5,-14,-2,1,0,0,rectangle_8,-14,-2,1,0,0,3,-14,-2,1,0,0,6,0,6,0,1,,,,,,,,,,,,,,,,,,,,,,,,,,,,,,,,,,,,,,,,,,,,,,,,,,,,,,,,,,,,,,,,,,,,,,,,,,,,,,,,,,,,,,,,,,,,,,,,,,,,,,,,,,,,,,,,
,,,,,,5d1463c5d40c1b00167822a8,62c539d918e773dc848437f4,2022-07-06_02h31.54.356,Colour_Asymmetry_Pilot,2022.1.3,Win32,71.90623427,62c50e9c1127f2cd403a315f,,,,,,,,,,,,,,,,,,,,onetwo,,2,2.4761,,,,,,,,,,,,,,,,,,,,,,,,,,,,,,,,space,3.4333,"[-0.06680000000000008,-0.45100000000000007,-0.906]","[-0.01980000000000004,-0.5138,-0.38039999999999996]",108,-100,1,0,0,response3disk,-5,-9,1,0,0,rectangle,-5,-9,1,0,0,,3,0.0013,0,-5,-9,1,0,0,0,0,0,132,1,51,second,,,,,,,,,,,,,,,,,,,,,,,,,,,,,,,,,,,,,,,,,,,,,,,,,,,,,,,,,,,,,,,,,,,,,,,,
,,,,,,5d1463c5d40c1b00167822a8,62c539d918e773dc848437f4,2022-07-06_02h31.54.356,Colour_Asymmetry_Pilot,2022.1.3,Win32,71.90623427,62c50e9c1127f2cd403a315f,,,,,,,,,,,,,,,,,,,,onetwo,,-1,1.9916,,,,,,,,,,,,,,,,,,,,,,,,,,,,,,,,,,"[0.7018,0.7802,-0.16079999999999994]","[0.6547999999999998,-0.043199999999999905,-0.011800000000000033]",-28,-124,1,0,0,response5disk,2,-8,1,0,0,rectangle,126,46,1,0,0,3,3,2.2102,1,10,1,1,0,0,0,1,1,161,1,80,second,response1disk_3,rectangle,,,,,,,,,,,,,,,,,,,,,,,,,,,,,,,,,,,,,,,,,,,,,,,,,,,,,,,,,,,,,,,,,,,,,,
,,,,,,5d1463c5d40c1b00167822a8,62c539d918e773dc848437f4,2022-07-06_02h31.54.356,Colour_Asymmetry_Pilot,2022.1.3,Win32,71.90623427,62c50e9c1127f2cd403a315f,,,,,,,,,,,,,,,,,,,,fourtwo,,-4,2.7436,,,,,,,,,,,,,,,,,,,,,,,,,,,,,,,,,,"[0.9763999999999999,0.30979999999999985,-0.6786]","[-0.9844,-0.9688,-0.9922]",-58,125,1,0,0,response7disk,-19,1,1,0,0,rectangle,-19,1,1,0,0,3,2,0.0009,0,-19,1,1,0,0,0,2,2,16,1,16,first,,,,,,,,,,,,,,,,,,,,,,,,,,,,,,,,,,,,,,,,,,,,,,,,,,,,,,,,,,,,,,,,,,,,,,,,
,,,,,,5d1463c5d40c1b00167822a8,62c539d918e773dc848437f4,2022-07-06_02h31.54.356,Colour_Asymmetry_Pilot,2022.1.3,Win32,71.90623427,62c50e9c1127f2cd403a315f,,,,,,,,,,,,,,,,,,,,threefour,,-1,1.9853,,,,,,,,,,,,,,,,,,,,,,,,,,,,,,,,,,"[0.796,0.2156,-0.27859999999999996]","[-0.9296,-0.12959999999999994,-0.043199999999999905]",-35,-136,1,0,0,response5disk,-17,12,1,0,0,rectangle,-17,12,1,0,0,3,2,0.0009,0,-17,12,1,0,0,0,3,3,119,1,38,second,,,,,,,,,,,,,,,,,,,,,,,,,,,,,,,,,,,,,,,,,,,,,,,,,,,,,,,,,,,,,,,,,,,,,,,,
,,,,,,5d1463c5d40c1b00167822a8,62c539d918e773dc848437f4,2022-07-06_02h31.54.356,Colour_Asymmetry_Pilot,2022.1.3,Win32,71.90623427,62c50e9c1127f2cd403a315f,,,,,,,,,,,,,,,,,,,,twoone,,-2,1.4633,,,,,,,,,,,,,,,,,,,,,,,,,,,,,,,,,,"[-0.30200000000000005,0.14500000000000002,0.2784]","[1,0.12939999999999996,-1]",-110,-42,1,0,0,response5disk,-11,-9,1,0,0,rectangle,-11,-9,1,0,0,3,3,0.0007,0,-11,-9,1,0,0,0,4,4,50,1,50,first,,,,,,,,,,,,,,,,,,,,,,,,,,,,,,,,,,,,,,,,,,,,,,,,,,,,,,,,,,,,,,,,,,,,,,,,
,,,,,,5d1463c5d40c1b00167822a8,62c539d918e773dc848437f4,2022-07-06_02h31.54.356,Colour_Asymmetry_Pilot,2022.1.3,Win32,71.90623427,62c50e9c1127f2cd403a315f,,,,,,,,,,,,,,,,,,,,fourtwo,,-2,2.3955,,,,,,,,,,,,,,,,,,,,,,,,,,,,,,,,,,"[-0.45899999999999996,-0.3256,-0.9374]","[0.5449999999999999,-0.31000000000000005,-0.0354000000000001]",-90,-50,1,0,0,response5disk,-13,8,1,0,0,rectangle,-13,8,1,0,0,3,2,0.0005,0,-13,8,1,0,0,0,5,5,127,1,46,second,,,,,,,,,,,,,,,,,,,,,,,,,,,,,,,,,,,,,,,,,,,,,,,,,,,,,,,,,,,,,,,,,,,,,,,,
,,,,,,5d1463c5d40c1b00167822a8,62c539d918e773dc848437f4,2022-07-06_02h31.54.356,Colour_Asymmetry_Pilot,2022.1.3,Win32,71.90623427,62c50e9c1127f2cd403a315f,,,,,,,,,,,,,,,,,,,,twofour,,-4,0.9812,,,,,,,,,,,,,,,,,,,,,,,,,,,,,,,,,,"[0.7018,0.7176,0.6155999999999999]","[-0.2942,-0.7648,-0.7492000000000001]",-66,93,1,0,0,response7disk,-9,-1,1,0,0,rectangle,-9,-1,1,0,0,3,2,0.0002,0,-9,-1,1,0,0,0,6,6,2,1,2,first,,,,,,,,,,,,,,,,,,,,,,,,,,,,,,,,,,,,,,,,,,,,,,,,,,,,,,,,,,,,,,,,,,,,,,,,
,,,,,,5d1463c5d40c1b00167822a8,62c539d918e773dc848437f4,2022-07-06_02h31.54.356,Colour_Asymmetry_Pilot,2022.1.3,Win32,71.90623427,62c50e9c1127f2cd403a315f,,,,,,,,,,,,,,,,,,,,fourthree,,-1,2.055,,,,,,,,,,,,,,,,,,,,,,,,,,,,,,,,,,"[-0.6706000000000001,-0.6157999999999999,-0.6786]","[0.05879999999999996,0.2784,0.5841999999999998]",-63,-100,1,0,0,response5disk,-5,-9,1,0,0,rectangle,-5,-9,1,0,0,3,3,0.0005,0,-5,-9,1,0,0,0,7,7,152,1,71,second,,,,,,,,,,,,,,,,,,,,,,,,,,,,,,,,,,,,,,,,,,,,,,,,,,,,,,,,,,,,,,,,,,,,,,,,
,,,,,,5d1463c5d40c1b00167822a8,62c539d918e773dc848437f4,2022-07-06_02h31.54.356,Colour_Asymmetry_Pilot,2022.1.3,Win32,71.90623427,62c50e9c1127f2cd403a315f,,,,,,,,,,,,,,,,,,,,onethree,,-3,0.9661,,,,,,,,,,,,,,,,,,,,,,,,,,,,,,,,,,"[-0.45899999999999996,-0.3256,-0.9374]","[0.7176,-0.906,-0.6864]",-99,32,1,0,0,response7disk,-7,-4,1,0,0,rectangle,-7,-4,1,0,0,3,1,0.0005,0,-7,-4,1,0,0,0,8,8,142,1,61,second,,,,,,,,,,,,,,,,,,,,,,,,,,,,,,,,,,,,,,,,,,,,,,,,,,,,,,,,,,,,,,,,,,,,,,,,
,,,,,,5d1463c5d40c1b00167822a8,62c539d918e773dc848437f4,2022-07-06_02h31.54.356,Colour_Asymmetry_Pilot,2022.1.3,Win32,71.90623427,62c50e9c1127f2cd403a315f,,,,,,,,,,,,,,,,,,,,threefour,,2,1.4902,,,,,,,,,,,,,,,,,,,,,,,,,,,,,,,,,,"[0.7018,0.7176,0.6155999999999999]","[-0.4902000000000001,0.2704,-0.45899999999999996]",112,-88,1,0,0,response3disk,-11,5,1,0,0,rectangle,-11,5,1,0,0,3,2,0.0006,0,-11,5,1,0,0,0,9,9,1,1,1,first,,,,,,,,,,,,,,,,,,,,,,,,,,,,,,,,,,,,,,,,,,,,,,,,,,,,,,,,,,,,,,,,,,,,,,,,
,,,,,,5d1463c5d40c1b00167822a8,62c539d918e773dc848437f4,2022-07-06_02h31.54.356,Colour_Asymmetry_Pilot,2022.1.3,Win32,71.90623427,62c50e9c1127f2cd403a315f,,,,,,,,,,,,,,,,,,,,fourthree,,1,2.8304,,,,,,,,,,,,,,,,,,,,,,,,,,,,,,,,,,"[-0.0040000000000000036,0.02739999999999987,-0.08239999999999992]","[0.9763999999999999,0.8588,-0.05900000000000005]",69,-108,1,0,0,response3disk,-23,3,1,0,0,rectangle,130,-59,1,0,0,2,2,3.7618,1,12,0,1,0,0,0,10,10,11,1,11,first,response3disk_3,rectangle,,,,,,,,,,,,,,,,,,,,,,,,,,,,,,,,,,,,,,,,,,,,,,,,,,,,,,,,,,,,,,,,,,,,,,
,,,,,,5d1463c5d40c1b00167822a8,62c539d918e773dc848437f4,2022-07-06_02h31.54.356,Colour_Asymmetry_Pilot,2022.1.3,Win32,71.90623427,62c50e9c1127f2cd403a315f,,,,,,,,,,,,,,,,,,,,twofour,,3,2.5638,,,,,,,,,,,,,,,,,,,,,,,,,,,,,,,,,,"[-0.9688,-0.7412000000000001,-0.4902000000000001]","[-0.30200000000000005,0.14500000000000002,0.2784]",133,95,1,0,0,response1disk,8,-4,1,0,0,rectangle,8,-4,1,0,0,2,1,0.0005,0,8,-4,1,0,0,0,11,11,33,1,33,first,,,,,,,,,,,,,,,,,,,,,,,,,,,,,,,,,,,,,,,,,,,,,,,,,,,,,,,,,,,,,,,,,,,,,,,,
,,,,,,5d1463c5d40c1b00167822a8,62c539d918e773dc848437f4,2022-07-06_02h31.54.356,Colour_Asymmetry_Pilot,2022.1.3,Win32,71.90623427,62c50e9c1127f2cd403a315f,,,,,,,,,,,,,,,,,,,,twofour,,-1,1.5185,,,,,,,,,,,,,,,,,,,,,,,,,,,,,,,,,,"[-0.9296,-0.12959999999999994,-0.043199999999999905]","[0.796,0.2156,-0.27859999999999996]",-25,-123,1,0,0,response5disk,8,2,1,0,0,rectangle,8,2,1,0,0,2,1,0.0002,0,8,2,1,0,0,0,12,12,38,1,38,first,,,,,,,,,,,,,,,,,,,,,,,,,,,,,,,,,,,,,,,,,,,,,,,,,,,,,,,,,,,,,,,,,,,,,,,,
,,,,,,5d1463c5d40c1b00167822a8,62c539d918e773dc848437f4,2022-07-06_02h31.54.356,Colour_Asymmetry_Pilot,2022.1.3,Win32,71.90623427,62c50e9c1127f2cd403a315f,,,,,,,,,,,,,,,,,,,,fourtwo,,-2,1.3181,,,,,,,,,,,,,,,,,,,,,,,,,,,,,,,,,,"[0.6547999999999998,-0.043199999999999905,-0.011800000000000033]","[-0.9766,-0.34920000000000007,0.2156]",-124,-40,1,0,0,response5disk,1,-8,1,0,0,rectangle,1,-8,1,0,0,2,1,0.0001,0,1,-8,1,0,0,0,13,13,139,1,58,second,,,,,,,,,,,,,,,,,,,,,,,,,,,,,,,,,,,,,,,,,,,,,,,,,,,,,,,,,,,,,,,,,,,,,,,,
,,,,,,5d1463c5d40c1b00167822a8,62c539d918e773dc848437f4,2022-07-06_02h31.54.356,Colour_Asymmetry_Pilot,2022.1.3,Win32,71.90623427,62c50e9c1127f2cd403a315f,,,,,,,,,,,,,,,,,,,,twoone,,-2,1.2493,,,,,,,,,,,,,,,,,,,,,,,,,,,,,,,,,,"[-0.34920000000000007,-0.702,-0.5216]","[-0.4276,0.0038000000000000256,-0.3256]",-105,-62,1,0,0,response5disk,-11,-12,1,0,0,rectangle,-11,-12,1,0,0,2,1,0.0001,0,-11,-12,1,0,0,0,14,14,27,1,27,first,,,,,,,,,,,,,,,,,,,,,,,,,,,,,,,,,,,,,,,,,,,,,,,,,,,,,,,,,,,,,,,,,,,,,,,,
,,,,,,5d1463c5d40c1b00167822a8,62c539d918e773dc848437f4,2022-07-06_02h31.54.356,Colour_Asymmetry_Pilot,2022.1.3,Win32,71.90623427,62c50e9c1127f2cd403a315f,,,,,,,,,,,,,,,,,,,,fourthree,,-4,0.6009,,,,,,,,,,,,,,,,,,,,,,,,,,,,,,,,,,"[-0.06680000000000008,-0.45100000000000007,-0.906]","[0.9372,0.9450000000000001,0.8980000000000001]",-72,125,1,0,0,response7disk,3,-8,1,0,0,rectangle,3,-8,1,0,0,2,1,0.0001,0,3,-8,1,0,0,0,15,15,98,1,17,second,,,,,,,,,,,,,,,,,,,,,,,,,,,,,,,,,,,,,,,,,,,,,,,,,,,,,,,,,,,,,,,,,,,,,,,,
,,,,,,5d1463c5d40c1b00167822a8,62c539d918e773dc848437f4,2022-07-06_02h31.54.356,Colour_Asymmetry_Pilot,2022.1.3,Win32,71.90623427,62c50e9c1127f2cd403a315f,,,,,,,,,,,,,,,,,,,,twoone,,-1,3.3331,,,,,,,,,,,,,,,,,,,,,,,,,,,,,,,,,,"[0.19199999999999995,0.18419999999999992,0.5136000000000001]","[-0.9216,-0.5529999999999999,-0.3962]",-24,-89,1,0,0,response5disk,0,6,1,0,0,rectangle,0,6,1,0,0,2,1,0.0001,0,0,6,1,0,0,0,16,16,3,1,3,first,,,,,,,,,,,,,,,,,,,,,,,,,,,,,,,,,,,,,,,,,,,,,,,,,,,,,,,,,,,,,,,,,,,,,,,,
,,,,,,5d1463c5d40c1b00167822a8,62c539d918e773dc848437f4,2022-07-06_02h31.54.356,Colour_Asymmetry_Pilot,2022.1.3,Win32,71.90623427,62c50e9c1127f2cd403a315f,,,,,,,,,,,,,,,,,,,,threeone,,-2,3.2208,,,,,,,,,,,,,,,,,,,,,,,,,,,,,,,,,,"[0.7018,0.7176,0.6155999999999999]","[-0.6942,-0.7648,-0.12959999999999994]",-83,-28,1,0,0,response5disk,-8,-9,1,0,0,rectangle,-8,-9,1,0,0,2,2,0.0008,0,-8,-9,1,0,0,0,17,17,81,1,0,second,,,,,,,,,,,,,,,,,,,,,,,,,,,,,,,,,,,,,,,,,,,,,,,,,,,,,,,,,,,,,,,,,,,,,,,,
