trials.thisRepN,trials.thisTrialN,trials.thisN,trials.thisIndex,trials.ran,Colourcodes,participant,session,date,expName,psychopyVersion,OS,frameRate,study_id,trials_4.thisRepN,trials_4.thisTrialN,trials_4.thisN,trials_4.thisIndex,trials_4.ran,StimulusPos,key_resp.keys,key_resp.rt,key_resp_2.keys,key_resp_2.rt,key_resp_15.keys,key_resp_15.rt,key_resp_17.keys,key_resp_17.rt,key_resp_9.keys,key_resp_9.rt,key_resp_10.keys,key_resp_10.rt,Circle1_col,Ecc,Circle2_col,similarity,response_time,mouse_5.x,mouse_5.y,mouse_5.leftButton,mouse_5.midButton,mouse_5.rightButton,mouse_5.clicked_name,mouse_10.x,mouse_10.y,mouse_10.leftButton,mouse_10.midButton,mouse_10.rightButton,mouse_10.clicked_name,mouse_7.x,mouse_7.y,mouse_7.leftButton,mouse_7.midButton,mouse_7.rightButton,mouse_7.clicked_name,catchprac,catchnumberprac,mouse_6.x,mouse_6.y,mouse_6.leftButton,mouse_6.midButton,mouse_6.rightButton,mouse_6.clicked_name,duringprac.thisRepN,duringprac.thisTrialN,duringprac.thisN,duringprac.thisIndex,duringprac.ran,key_resp_22.keys,key_resp_22.rt,Circle1_colour,Circle2_colour,mouse.x,mouse.y,mouse.leftButton,mouse.midButton,mouse.rightButton,mouse.clicked_name,mouse_2.x,mouse_2.y,mouse_2.leftButton,mouse_2.midButton,mouse_2.rightButton,mouse_2.clicked_name,mouse_3.x,mouse_3.y,mouse_3.leftButton,mouse_3.midButton,mouse_3.rightButton,catchresponse,catchnumber,response_time_catch,Catch,mouse_11.x,mouse_11.y,mouse_11.leftButton,mouse_11.midButton,mouse_11.rightButton,trials_2.thisRepN,trials_2.thisTrialN,trials_2.thisN,trials_2.thisIndex,trials_2.ran,Colourpair,Temporder,mouse_3.clicked_name,mouse_11.clicked_name,trials_3.thisRepN,trials_3.thisTrialN,trials_3.thisN,trials_3.thisIndex,trials_3.ran,key_resp_instr_Ishi.keys,key_resp_instr_Ishi.rt,Ishi_trial_keyresp.keys,Ishi_trial_keyresp.rt,Ishi_textbox.text,Ishi_mouse.x,Ishi_mouse.y,Ishi_mouse.leftButton,Ishi_mouse.midButton,Ishi_mouse.rightButton,Ishi_loop.thisRepN,Ishi_loop.thisTrialN,Ishi_loop.thisN,Ishi_loop.thisIndex,Ishi_loop.ran,imageaddress,textbox.text,mouse_4.x,mouse_4.y,mouse_4.leftButton,mouse_4.midButton,mouse_4.rightButton,mouse_4.clicked_name,textbox_2.text,mouse_8.x,mouse_8.y,mouse_8.leftButton,mouse_8.midButton,mouse_8.rightButton,mouse_8.clicked_name,textbox_3.text,mouse_9.x,mouse_9.y,mouse_9.leftButton,mouse_9.midButton,mouse_9.rightButton,mouse_9.clicked_name,textbox_4.text,mouse_12.x,mouse_12.y,mouse_12.leftButton,mouse_12.midButton,mouse_12.rightButton,mouse_12.clicked_name,textbox_5.text,mouse_13.x,mouse_13.y,mouse_13.leftButton,mouse_13.midButton,mouse_13.rightButton,mouse_13.clicked_name,textbox_6.text,mouse_14.x,mouse_14.y,mouse_14.leftButton,mouse_14.midButton,mouse_14.rightButton,textbox_7.text,mouse_15.x,mouse_15.y,mouse_15.leftButton,mouse_15.midButton,mouse_15.rightButton,mouse_15.clicked_name
0,0,0,51,1,,6081bf53d3c45fe4c8fd3ea3,62c538b636daf98b3ef3eecb,2022-07-06_09h04.10.279,Colour_Asymmetry_Pilot,2022.1.3,Win32,60.04924038,62c50e9c1127f2cd403a315f,,,,,,,,,,,,,,,,,,,,,,,,,,,,,,,,,,,,,,,,,,,,,,,,,,,,,,,,,,,,,,,,,,,,,,,,,,,,,,,,,,,,,,,,,,,,,,,,,,,,,,,,,,,,,,,,,,,,,,,,,,,,,,,,,,,,,,,,,,,,,,,,,,,,,,,,,,,,,,,,,,
0,1,1,10,1,,6081bf53d3c45fe4c8fd3ea3,62c538b636daf98b3ef3eecb,2022-07-06_09h04.10.279,Colour_Asymmetry_Pilot,2022.1.3,Win32,60.04924038,62c50e9c1127f2cd403a315f,,,,,,,,,,,,,,,,,,,,,,,,,,,,,,,,,,,,,,,,,,,,,,,,,,,,,,,,,,,,,,,,,,,,,,,,,,,,,,,,,,,,,,,,,,,,,,,,,,,,,,,,,,,,,,,,,,,,,,,,,,,,,,,,,,,,,,,,,,,,,,,,,,,,,,,,,,,,,,,,,,
0,2,2,92,1,,6081bf53d3c45fe4c8fd3ea3,62c538b636daf98b3ef3eecb,2022-07-06_09h04.10.279,Colour_Asymmetry_Pilot,2022.1.3,Win32,60.04924038,62c50e9c1127f2cd403a315f,,,,,,,,,,,,,,,,,,,,,,,,,,,,,,,,,,,,,,,,,,,,,,,,,,,,,,,,,,,,,,,,,,,,,,,,,,,,,,,,,,,,,,,,,,,,,,,,,,,,,,,,,,,,,,,,,,,,,,,,,,,,,,,,,,,,,,,,,,,,,,,,,,,,,,,,,,,,,,,,,,
0,3,3,66,1,,6081bf53d3c45fe4c8fd3ea3,62c538b636daf98b3ef3eecb,2022-07-06_09h04.10.279,Colour_Asymmetry_Pilot,2022.1.3,Win32,60.04924038,62c50e9c1127f2cd403a315f,,,,,,,,,,,,,,,,,,,,,,,,,,,,,,,,,,,,,,,,,,,,,,,,,,,,,,,,,,,,,,,,,,,,,,,,,,,,,,,,,,,,,,,,,,,,,,,,,,,,,,,,,,,,,,,,,,,,,,,,,,,,,,,,,,,,,,,,,,,,,,,,,,,,,,,,,,,,,,,,,,
0,4,4,23,1,,6081bf53d3c45fe4c8fd3ea3,62c538b636daf98b3ef3eecb,2022-07-06_09h04.10.279,Colour_Asymmetry_Pilot,2022.1.3,Win32,60.04924038,62c50e9c1127f2cd403a315f,,,,,,,,,,,,,,,,,,,,,,,,,,,,,,,,,,,,,,,,,,,,,,,,,,,,,,,,,,,,,,,,,,,,,,,,,,,,,,,,,,,,,,,,,,,,,,,,,,,,,,,,,,,,,,,,,,,,,,,,,,,,,,,,,,,,,,,,,,,,,,,,,,,,,,,,,,,,,,,,,,
0,5,5,36,1,,6081bf53d3c45fe4c8fd3ea3,62c538b636daf98b3ef3eecb,2022-07-06_09h04.10.279,Colour_Asymmetry_Pilot,2022.1.3,Win32,60.04924038,62c50e9c1127f2cd403a315f,,,,,,,,,,,,,,,,,,,,,,,,,,,,,,,,,,,,,,,,,,,,,,,,,,,,,,,,,,,,,,,,,,,,,,,,,,,,,,,,,,,,,,,,,,,,,,,,,,,,,,,,,,,,,,,,,,,,,,,,,,,,,,,,,,,,,,,,,,,,,,,,,,,,,,,,,,,,,,,,,,
0,6,6,91,1,,6081bf53d3c45fe4c8fd3ea3,62c538b636daf98b3ef3eecb,2022-07-06_09h04.10.279,Colour_Asymmetry_Pilot,2022.1.3,Win32,60.04924038,62c50e9c1127f2cd403a315f,,,,,,,,,,,,,,,,,,,,,,,,,,,,,,,,,,,,,,,,,,,,,,,,,,,,,,,,,,,,,,,,,,,,,,,,,,,,,,,,,,,,,,,,,,,,,,,,,,,,,,,,,,,,,,,,,,,,,,,,,,,,,,,,,,,,,,,,,,,,,,,,,,,,,,,,,,,,,,,,,,
0,7,7,57,1,,6081bf53d3c45fe4c8fd3ea3,62c538b636daf98b3ef3eecb,2022-07-06_09h04.10.279,Colour_Asymmetry_Pilot,2022.1.3,Win32,60.04924038,62c50e9c1127f2cd403a315f,,,,,,,,,,,,,,,,,,,,,,,,,,,,,,,,,,,,,,,,,,,,,,,,,,,,,,,,,,,,,,,,,,,,,,,,,,,,,,,,,,,,,,,,,,,,,,,,,,,,,,,,,,,,,,,,,,,,,,,,,,,,,,,,,,,,,,,,,,,,,,,,,,,,,,,,,,,,,,,,,,
0,8,8,53,1,,6081bf53d3c45fe4c8fd3ea3,62c538b636daf98b3ef3eecb,2022-07-06_09h04.10.279,Colour_Asymmetry_Pilot,2022.1.3,Win32,60.04924038,62c50e9c1127f2cd403a315f,,,,,,,,,,,,,,,,,,,,,,,,,,,,,,,,,,,,,,,,,,,,,,,,,,,,,,,,,,,,,,,,,,,,,,,,,,,,,,,,,,,,,,,,,,,,,,,,,,,,,,,,,,,,,,,,,,,,,,,,,,,,,,,,,,,,,,,,,,,,,,,,,,,,,,,,,,,,,,,,,,
0,9,9,86,1,,6081bf53d3c45fe4c8fd3ea3,62c538b636daf98b3ef3eecb,2022-07-06_09h04.10.279,Colour_Asymmetry_Pilot,2022.1.3,Win32,60.04924038,62c50e9c1127f2cd403a315f,,,,,,,,,,,,,,,,,,,,,,,,,,,,,,,,,,,,,,,,,,,,,,,,,,,,,,,,,,,,,,,,,,,,,,,,,,,,,,,,,,,,,,,,,,,,,,,,,,,,,,,,,,,,,,,,,,,,,,,,,,,,,,,,,,,,,,,,,,,,,,,,,,,,,,,,,,,,,,,,,,
0,10,10,47,1,,6081bf53d3c45fe4c8fd3ea3,62c538b636daf98b3ef3eecb,2022-07-06_09h04.10.279,Colour_Asymmetry_Pilot,2022.1.3,Win32,60.04924038,62c50e9c1127f2cd403a315f,,,,,,,,,,,,,,,,,,,,,,,,,,,,,,,,,,,,,,,,,,,,,,,,,,,,,,,,,,,,,,,,,,,,,,,,,,,,,,,,,,,,,,,,,,,,,,,,,,,,,,,,,,,,,,,,,,,,,,,,,,,,,,,,,,,,,,,,,,,,,,,,,,,,,,,,,,,,,,,,,,
0,11,11,5,1,,6081bf53d3c45fe4c8fd3ea3,62c538b636daf98b3ef3eecb,2022-07-06_09h04.10.279,Colour_Asymmetry_Pilot,2022.1.3,Win32,60.04924038,62c50e9c1127f2cd403a315f,,,,,,,,,,,,,,,,,,,,,,,,,,,,,,,,,,,,,,,,,,,,,,,,,,,,,,,,,,,,,,,,,,,,,,,,,,,,,,,,,,,,,,,,,,,,,,,,,,,,,,,,,,,,,,,,,,,,,,,,,,,,,,,,,,,,,,,,,,,,,,,,,,,,,,,,,,,,,,,,,,
0,12,12,39,1,,6081bf53d3c45fe4c8fd3ea3,62c538b636daf98b3ef3eecb,2022-07-06_09h04.10.279,Colour_Asymmetry_Pilot,2022.1.3,Win32,60.04924038,62c50e9c1127f2cd403a315f,,,,,,,,,,,,,,,,,,,,,,,,,,,,,,,,,,,,,,,,,,,,,,,,,,,,,,,,,,,,,,,,,,,,,,,,,,,,,,,,,,,,,,,,,,,,,,,,,,,,,,,,,,,,,,,,,,,,,,,,,,,,,,,,,,,,,,,,,,,,,,,,,,,,,,,,,,,,,,,,,,
0,13,13,38,1,,6081bf53d3c45fe4c8fd3ea3,62c538b636daf98b3ef3eecb,2022-07-06_09h04.10.279,Colour_Asymmetry_Pilot,2022.1.3,Win32,60.04924038,62c50e9c1127f2cd403a315f,,,,,,,,,,,,,,,,,,,,,,,,,,,,,,,,,,,,,,,,,,,,,,,,,,,,,,,,,,,,,,,,,,,,,,,,,,,,,,,,,,,,,,,,,,,,,,,,,,,,,,,,,,,,,,,,,,,,,,,,,,,,,,,,,,,,,,,,,,,,,,,,,,,,,,,,,,,,,,,,,,
0,14,14,54,1,,6081bf53d3c45fe4c8fd3ea3,62c538b636daf98b3ef3eecb,2022-07-06_09h04.10.279,Colour_Asymmetry_Pilot,2022.1.3,Win32,60.04924038,62c50e9c1127f2cd403a315f,,,,,,,,,,,,,,,,,,,,,,,,,,,,,,,,,,,,,,,,,,,,,,,,,,,,,,,,,,,,,,,,,,,,,,,,,,,,,,,,,,,,,,,,,,,,,,,,,,,,,,,,,,,,,,,,,,,,,,,,,,,,,,,,,,,,,,,,,,,,,,,,,,,,,,,,,,,,,,,,,,
0,15,15,72,1,,6081bf53d3c45fe4c8fd3ea3,62c538b636daf98b3ef3eecb,2022-07-06_09h04.10.279,Colour_Asymmetry_Pilot,2022.1.3,Win32,60.04924038,62c50e9c1127f2cd403a315f,,,,,,,,,,,,,,,,,,,,,,,,,,,,,,,,,,,,,,,,,,,,,,,,,,,,,,,,,,,,,,,,,,,,,,,,,,,,,,,,,,,,,,,,,,,,,,,,,,,,,,,,,,,,,,,,,,,,,,,,,,,,,,,,,,,,,,,,,,,,,,,,,,,,,,,,,,,,,,,,,,
0,16,16,22,1,,6081bf53d3c45fe4c8fd3ea3,62c538b636daf98b3ef3eecb,2022-07-06_09h04.10.279,Colour_Asymmetry_Pilot,2022.1.3,Win32,60.04924038,62c50e9c1127f2cd403a315f,,,,,,,,,,,,,,,,,,,,,,,,,,,,,,,,,,,,,,,,,,,,,,,,,,,,,,,,,,,,,,,,,,,,,,,,,,,,,,,,,,,,,,,,,,,,,,,,,,,,,,,,,,,,,,,,,,,,,,,,,,,,,,,,,,,,,,,,,,,,,,,,,,,,,,,,,,,,,,,,,,
0,17,17,78,1,,6081bf53d3c45fe4c8fd3ea3,62c538b636daf98b3ef3eecb,2022-07-06_09h04.10.279,Colour_Asymmetry_Pilot,2022.1.3,Win32,60.04924038,62c50e9c1127f2cd403a315f,,,,,,,,,,,,,,,,,,,,,,,,,,,,,,,,,,,,,,,,,,,,,,,,,,,,,,,,,,,,,,,,,,,,,,,,,,,,,,,,,,,,,,,,,,,,,,,,,,,,,,,,,,,,,,,,,,,,,,,,,,,,,,,,,,,,,,,,,,,,,,,,,,,,,,,,,,,,,,,,,,
0,18,18,76,1,,6081bf53d3c45fe4c8fd3ea3,62c538b636daf98b3ef3eecb,2022-07-06_09h04.10.279,Colour_Asymmetry_Pilot,2022.1.3,Win32,60.04924038,62c50e9c1127f2cd403a315f,,,,,,,,,,,,,,,,,,,,,,,,,,,,,,,,,,,,,,,,,,,,,,,,,,,,,,,,,,,,,,,,,,,,,,,,,,,,,,,,,,,,,,,,,,,,,,,,,,,,,,,,,,,,,,,,,,,,,,,,,,,,,,,,,,,,,,,,,,,,,,,,,,,,,,,,,,,,,,,,,,
0,19,19,63,1,,6081bf53d3c45fe4c8fd3ea3,62c538b636daf98b3ef3eecb,2022-07-06_09h04.10.279,Colour_Asymmetry_Pilot,2022.1.3,Win32,60.04924038,62c50e9c1127f2cd403a315f,,,,,,,,,,,,,,,,,,,,,,,,,,,,,,,,,,,,,,,,,,,,,,,,,,,,,,,,,,,,,,,,,,,,,,,,,,,,,,,,,,,,,,,,,,,,,,,,,,,,,,,,,,,,,,,,,,,,,,,,,,,,,,,,,,,,,,,,,,,,,,,,,,,,,,,,,,,,,,,,,,
0,20,20,33,1,,6081bf53d3c45fe4c8fd3ea3,62c538b636daf98b3ef3eecb,2022-07-06_09h04.10.279,Colour_Asymmetry_Pilot,2022.1.3,Win32,60.04924038,62c50e9c1127f2cd403a315f,,,,,,,,,,,,,,,,,,,,,,,,,,,,,,,,,,,,,,,,,,,,,,,,,,,,,,,,,,,,,,,,,,,,,,,,,,,,,,,,,,,,,,,,,,,,,,,,,,,,,,,,,,,,,,,,,,,,,,,,,,,,,,,,,,,,,,,,,,,,,,,,,,,,,,,,,,,,,,,,,,
0,21,21,77,1,,6081bf53d3c45fe4c8fd3ea3,62c538b636daf98b3ef3eecb,2022-07-06_09h04.10.279,Colour_Asymmetry_Pilot,2022.1.3,Win32,60.04924038,62c50e9c1127f2cd403a315f,,,,,,,,,,,,,,,,,,,,,,,,,,,,,,,,,,,,,,,,,,,,,,,,,,,,,,,,,,,,,,,,,,,,,,,,,,,,,,,,,,,,,,,,,,,,,,,,,,,,,,,,,,,,,,,,,,,,,,,,,,,,,,,,,,,,,,,,,,,,,,,,,,,,,,,,,,,,,,,,,,
0,22,22,43,1,,6081bf53d3c45fe4c8fd3ea3,62c538b636daf98b3ef3eecb,2022-07-06_09h04.10.279,Colour_Asymmetry_Pilot,2022.1.3,Win32,60.04924038,62c50e9c1127f2cd403a315f,,,,,,,,,,,,,,,,,,,,,,,,,,,,,,,,,,,,,,,,,,,,,,,,,,,,,,,,,,,,,,,,,,,,,,,,,,,,,,,,,,,,,,,,,,,,,,,,,,,,,,,,,,,,,,,,,,,,,,,,,,,,,,,,,,,,,,,,,,,,,,,,,,,,,,,,,,,,,,,,,,
0,23,23,9,1,,6081bf53d3c45fe4c8fd3ea3,62c538b636daf98b3ef3eecb,2022-07-06_09h04.10.279,Colour_Asymmetry_Pilot,2022.1.3,Win32,60.04924038,62c50e9c1127f2cd403a315f,,,,,,,,,,,,,,,,,,,,,,,,,,,,,,,,,,,,,,,,,,,,,,,,,,,,,,,,,,,,,,,,,,,,,,,,,,,,,,,,,,,,,,,,,,,,,,,,,,,,,,,,,,,,,,,,,,,,,,,,,,,,,,,,,,,,,,,,,,,,,,,,,,,,,,,,,,,,,,,,,,
0,24,24,42,1,,6081bf53d3c45fe4c8fd3ea3,62c538b636daf98b3ef3eecb,2022-07-06_09h04.10.279,Colour_Asymmetry_Pilot,2022.1.3,Win32,60.04924038,62c50e9c1127f2cd403a315f,,,,,,,,,,,,,,,,,,,,,,,,,,,,,,,,,,,,,,,,,,,,,,,,,,,,,,,,,,,,,,,,,,,,,,,,,,,,,,,,,,,,,,,,,,,,,,,,,,,,,,,,,,,,,,,,,,,,,,,,,,,,,,,,,,,,,,,,,,,,,,,,,,,,,,,,,,,,,,,,,,
0,25,25,20,1,,6081bf53d3c45fe4c8fd3ea3,62c538b636daf98b3ef3eecb,2022-07-06_09h04.10.279,Colour_Asymmetry_Pilot,2022.1.3,Win32,60.04924038,62c50e9c1127f2cd403a315f,,,,,,,,,,,,,,,,,,,,,,,,,,,,,,,,,,,,,,,,,,,,,,,,,,,,,,,,,,,,,,,,,,,,,,,,,,,,,,,,,,,,,,,,,,,,,,,,,,,,,,,,,,,,,,,,,,,,,,,,,,,,,,,,,,,,,,,,,,,,,,,,,,,,,,,,,,,,,,,,,,
0,26,26,45,1,,6081bf53d3c45fe4c8fd3ea3,62c538b636daf98b3ef3eecb,2022-07-06_09h04.10.279,Colour_Asymmetry_Pilot,2022.1.3,Win32,60.04924038,62c50e9c1127f2cd403a315f,,,,,,,,,,,,,,,,,,,,,,,,,,,,,,,,,,,,,,,,,,,,,,,,,,,,,,,,,,,,,,,,,,,,,,,,,,,,,,,,,,,,,,,,,,,,,,,,,,,,,,,,,,,,,,,,,,,,,,,,,,,,,,,,,,,,,,,,,,,,,,,,,,,,,,,,,,,,,,,,,,
0,27,27,61,1,,6081bf53d3c45fe4c8fd3ea3,62c538b636daf98b3ef3eecb,2022-07-06_09h04.10.279,Colour_Asymmetry_Pilot,2022.1.3,Win32,60.04924038,62c50e9c1127f2cd403a315f,,,,,,,,,,,,,,,,,,,,,,,,,,,,,,,,,,,,,,,,,,,,,,,,,,,,,,,,,,,,,,,,,,,,,,,,,,,,,,,,,,,,,,,,,,,,,,,,,,,,,,,,,,,,,,,,,,,,,,,,,,,,,,,,,,,,,,,,,,,,,,,,,,,,,,,,,,,,,,,,,,
0,28,28,14,1,,6081bf53d3c45fe4c8fd3ea3,62c538b636daf98b3ef3eecb,2022-07-06_09h04.10.279,Colour_Asymmetry_Pilot,2022.1.3,Win32,60.04924038,62c50e9c1127f2cd403a315f,,,,,,,,,,,,,,,,,,,,,,,,,,,,,,,,,,,,,,,,,,,,,,,,,,,,,,,,,,,,,,,,,,,,,,,,,,,,,,,,,,,,,,,,,,,,,,,,,,,,,,,,,,,,,,,,,,,,,,,,,,,,,,,,,,,,,,,,,,,,,,,,,,,,,,,,,,,,,,,,,,
0,29,29,69,1,,6081bf53d3c45fe4c8fd3ea3,62c538b636daf98b3ef3eecb,2022-07-06_09h04.10.279,Colour_Asymmetry_Pilot,2022.1.3,Win32,60.04924038,62c50e9c1127f2cd403a315f,,,,,,,,,,,,,,,,,,,,,,,,,,,,,,,,,,,,,,,,,,,,,,,,,,,,,,,,,,,,,,,,,,,,,,,,,,,,,,,,,,,,,,,,,,,,,,,,,,,,,,,,,,,,,,,,,,,,,,,,,,,,,,,,,,,,,,,,,,,,,,,,,,,,,,,,,,,,,,,,,,
0,30,30,81,1,,6081bf53d3c45fe4c8fd3ea3,62c538b636daf98b3ef3eecb,2022-07-06_09h04.10.279,Colour_Asymmetry_Pilot,2022.1.3,Win32,60.04924038,62c50e9c1127f2cd403a315f,,,,,,,,,,,,,,,,,,,,,,,,,,,,,,,,,,,,,,,,,,,,,,,,,,,,,,,,,,,,,,,,,,,,,,,,,,,,,,,,,,,,,,,,,,,,,,,,,,,,,,,,,,,,,,,,,,,,,,,,,,,,,,,,,,,,,,,,,,,,,,,,,,,,,,,,,,,,,,,,,,
0,31,31,83,1,,6081bf53d3c45fe4c8fd3ea3,62c538b636daf98b3ef3eecb,2022-07-06_09h04.10.279,Colour_Asymmetry_Pilot,2022.1.3,Win32,60.04924038,62c50e9c1127f2cd403a315f,,,,,,,,,,,,,,,,,,,,,,,,,,,,,,,,,,,,,,,,,,,,,,,,,,,,,,,,,,,,,,,,,,,,,,,,,,,,,,,,,,,,,,,,,,,,,,,,,,,,,,,,,,,,,,,,,,,,,,,,,,,,,,,,,,,,,,,,,,,,,,,,,,,,,,,,,,,,,,,,,,
0,32,32,30,1,,6081bf53d3c45fe4c8fd3ea3,62c538b636daf98b3ef3eecb,2022-07-06_09h04.10.279,Colour_Asymmetry_Pilot,2022.1.3,Win32,60.04924038,62c50e9c1127f2cd403a315f,,,,,,,,,,,,,,,,,,,,,,,,,,,,,,,,,,,,,,,,,,,,,,,,,,,,,,,,,,,,,,,,,,,,,,,,,,,,,,,,,,,,,,,,,,,,,,,,,,,,,,,,,,,,,,,,,,,,,,,,,,,,,,,,,,,,,,,,,,,,,,,,,,,,,,,,,,,,,,,,,,
0,33,33,75,1,,6081bf53d3c45fe4c8fd3ea3,62c538b636daf98b3ef3eecb,2022-07-06_09h04.10.279,Colour_Asymmetry_Pilot,2022.1.3,Win32,60.04924038,62c50e9c1127f2cd403a315f,,,,,,,,,,,,,,,,,,,,,,,,,,,,,,,,,,,,,,,,,,,,,,,,,,,,,,,,,,,,,,,,,,,,,,,,,,,,,,,,,,,,,,,,,,,,,,,,,,,,,,,,,,,,,,,,,,,,,,,,,,,,,,,,,,,,,,,,,,,,,,,,,,,,,,,,,,,,,,,,,,
0,34,34,21,1,,6081bf53d3c45fe4c8fd3ea3,62c538b636daf98b3ef3eecb,2022-07-06_09h04.10.279,Colour_Asymmetry_Pilot,2022.1.3,Win32,60.04924038,62c50e9c1127f2cd403a315f,,,,,,,,,,,,,,,,,,,,,,,,,,,,,,,,,,,,,,,,,,,,,,,,,,,,,,,,,,,,,,,,,,,,,,,,,,,,,,,,,,,,,,,,,,,,,,,,,,,,,,,,,,,,,,,,,,,,,,,,,,,,,,,,,,,,,,,,,,,,,,,,,,,,,,,,,,,,,,,,,,
0,35,35,58,1,,6081bf53d3c45fe4c8fd3ea3,62c538b636daf98b3ef3eecb,2022-07-06_09h04.10.279,Colour_Asymmetry_Pilot,2022.1.3,Win32,60.04924038,62c50e9c1127f2cd403a315f,,,,,,,,,,,,,,,,,,,,,,,,,,,,,,,,,,,,,,,,,,,,,,,,,,,,,,,,,,,,,,,,,,,,,,,,,,,,,,,,,,,,,,,,,,,,,,,,,,,,,,,,,,,,,,,,,,,,,,,,,,,,,,,,,,,,,,,,,,,,,,,,,,,,,,,,,,,,,,,,,,
0,36,36,11,1,,6081bf53d3c45fe4c8fd3ea3,62c538b636daf98b3ef3eecb,2022-07-06_09h04.10.279,Colour_Asymmetry_Pilot,2022.1.3,Win32,60.04924038,62c50e9c1127f2cd403a315f,,,,,,,,,,,,,,,,,,,,,,,,,,,,,,,,,,,,,,,,,,,,,,,,,,,,,,,,,,,,,,,,,,,,,,,,,,,,,,,,,,,,,,,,,,,,,,,,,,,,,,,,,,,,,,,,,,,,,,,,,,,,,,,,,,,,,,,,,,,,,,,,,,,,,,,,,,,,,,,,,,
0,37,37,50,1,,6081bf53d3c45fe4c8fd3ea3,62c538b636daf98b3ef3eecb,2022-07-06_09h04.10.279,Colour_Asymmetry_Pilot,2022.1.3,Win32,60.04924038,62c50e9c1127f2cd403a315f,,,,,,,,,,,,,,,,,,,,,,,,,,,,,,,,,,,,,,,,,,,,,,,,,,,,,,,,,,,,,,,,,,,,,,,,,,,,,,,,,,,,,,,,,,,,,,,,,,,,,,,,,,,,,,,,,,,,,,,,,,,,,,,,,,,,,,,,,,,,,,,,,,,,,,,,,,,,,,,,,,
0,38,38,46,1,,6081bf53d3c45fe4c8fd3ea3,62c538b636daf98b3ef3eecb,2022-07-06_09h04.10.279,Colour_Asymmetry_Pilot,2022.1.3,Win32,60.04924038,62c50e9c1127f2cd403a315f,,,,,,,,,,,,,,,,,,,,,,,,,,,,,,,,,,,,,,,,,,,,,,,,,,,,,,,,,,,,,,,,,,,,,,,,,,,,,,,,,,,,,,,,,,,,,,,,,,,,,,,,,,,,,,,,,,,,,,,,,,,,,,,,,,,,,,,,,,,,,,,,,,,,,,,,,,,,,,,,,,
0,39,39,70,1,,6081bf53d3c45fe4c8fd3ea3,62c538b636daf98b3ef3eecb,2022-07-06_09h04.10.279,Colour_Asymmetry_Pilot,2022.1.3,Win32,60.04924038,62c50e9c1127f2cd403a315f,,,,,,,,,,,,,,,,,,,,,,,,,,,,,,,,,,,,,,,,,,,,,,,,,,,,,,,,,,,,,,,,,,,,,,,,,,,,,,,,,,,,,,,,,,,,,,,,,,,,,,,,,,,,,,,,,,,,,,,,,,,,,,,,,,,,,,,,,,,,,,,,,,,,,,,,,,,,,,,,,,
0,40,40,15,1,,6081bf53d3c45fe4c8fd3ea3,62c538b636daf98b3ef3eecb,2022-07-06_09h04.10.279,Colour_Asymmetry_Pilot,2022.1.3,Win32,60.04924038,62c50e9c1127f2cd403a315f,,,,,,,,,,,,,,,,,,,,,,,,,,,,,,,,,,,,,,,,,,,,,,,,,,,,,,,,,,,,,,,,,,,,,,,,,,,,,,,,,,,,,,,,,,,,,,,,,,,,,,,,,,,,,,,,,,,,,,,,,,,,,,,,,,,,,,,,,,,,,,,,,,,,,,,,,,,,,,,,,,
0,41,41,41,1,,6081bf53d3c45fe4c8fd3ea3,62c538b636daf98b3ef3eecb,2022-07-06_09h04.10.279,Colour_Asymmetry_Pilot,2022.1.3,Win32,60.04924038,62c50e9c1127f2cd403a315f,,,,,,,,,,,,,,,,,,,,,,,,,,,,,,,,,,,,,,,,,,,,,,,,,,,,,,,,,,,,,,,,,,,,,,,,,,,,,,,,,,,,,,,,,,,,,,,,,,,,,,,,,,,,,,,,,,,,,,,,,,,,,,,,,,,,,,,,,,,,,,,,,,,,,,,,,,,,,,,,,,
0,42,42,64,1,,6081bf53d3c45fe4c8fd3ea3,62c538b636daf98b3ef3eecb,2022-07-06_09h04.10.279,Colour_Asymmetry_Pilot,2022.1.3,Win32,60.04924038,62c50e9c1127f2cd403a315f,,,,,,,,,,,,,,,,,,,,,,,,,,,,,,,,,,,,,,,,,,,,,,,,,,,,,,,,,,,,,,,,,,,,,,,,,,,,,,,,,,,,,,,,,,,,,,,,,,,,,,,,,,,,,,,,,,,,,,,,,,,,,,,,,,,,,,,,,,,,,,,,,,,,,,,,,,,,,,,,,,
0,43,43,2,1,,6081bf53d3c45fe4c8fd3ea3,62c538b636daf98b3ef3eecb,2022-07-06_09h04.10.279,Colour_Asymmetry_Pilot,2022.1.3,Win32,60.04924038,62c50e9c1127f2cd403a315f,,,,,,,,,,,,,,,,,,,,,,,,,,,,,,,,,,,,,,,,,,,,,,,,,,,,,,,,,,,,,,,,,,,,,,,,,,,,,,,,,,,,,,,,,,,,,,,,,,,,,,,,,,,,,,,,,,,,,,,,,,,,,,,,,,,,,,,,,,,,,,,,,,,,,,,,,,,,,,,,,,
0,44,44,28,1,,6081bf53d3c45fe4c8fd3ea3,62c538b636daf98b3ef3eecb,2022-07-06_09h04.10.279,Colour_Asymmetry_Pilot,2022.1.3,Win32,60.04924038,62c50e9c1127f2cd403a315f,,,,,,,,,,,,,,,,,,,,,,,,,,,,,,,,,,,,,,,,,,,,,,,,,,,,,,,,,,,,,,,,,,,,,,,,,,,,,,,,,,,,,,,,,,,,,,,,,,,,,,,,,,,,,,,,,,,,,,,,,,,,,,,,,,,,,,,,,,,,,,,,,,,,,,,,,,,,,,,,,,
0,45,45,31,1,,6081bf53d3c45fe4c8fd3ea3,62c538b636daf98b3ef3eecb,2022-07-06_09h04.10.279,Colour_Asymmetry_Pilot,2022.1.3,Win32,60.04924038,62c50e9c1127f2cd403a315f,,,,,,,,,,,,,,,,,,,,,,,,,,,,,,,,,,,,,,,,,,,,,,,,,,,,,,,,,,,,,,,,,,,,,,,,,,,,,,,,,,,,,,,,,,,,,,,,,,,,,,,,,,,,,,,,,,,,,,,,,,,,,,,,,,,,,,,,,,,,,,,,,,,,,,,,,,,,,,,,,,
0,46,46,6,1,,6081bf53d3c45fe4c8fd3ea3,62c538b636daf98b3ef3eecb,2022-07-06_09h04.10.279,Colour_Asymmetry_Pilot,2022.1.3,Win32,60.04924038,62c50e9c1127f2cd403a315f,,,,,,,,,,,,,,,,,,,,,,,,,,,,,,,,,,,,,,,,,,,,,,,,,,,,,,,,,,,,,,,,,,,,,,,,,,,,,,,,,,,,,,,,,,,,,,,,,,,,,,,,,,,,,,,,,,,,,,,,,,,,,,,,,,,,,,,,,,,,,,,,,,,,,,,,,,,,,,,,,,
0,47,47,19,1,,6081bf53d3c45fe4c8fd3ea3,62c538b636daf98b3ef3eecb,2022-07-06_09h04.10.279,Colour_Asymmetry_Pilot,2022.1.3,Win32,60.04924038,62c50e9c1127f2cd403a315f,,,,,,,,,,,,,,,,,,,,,,,,,,,,,,,,,,,,,,,,,,,,,,,,,,,,,,,,,,,,,,,,,,,,,,,,,,,,,,,,,,,,,,,,,,,,,,,,,,,,,,,,,,,,,,,,,,,,,,,,,,,,,,,,,,,,,,,,,,,,,,,,,,,,,,,,,,,,,,,,,,
0,48,48,48,1,,6081bf53d3c45fe4c8fd3ea3,62c538b636daf98b3ef3eecb,2022-07-06_09h04.10.279,Colour_Asymmetry_Pilot,2022.1.3,Win32,60.04924038,62c50e9c1127f2cd403a315f,,,,,,,,,,,,,,,,,,,,,,,,,,,,,,,,,,,,,,,,,,,,,,,,,,,,,,,,,,,,,,,,,,,,,,,,,,,,,,,,,,,,,,,,,,,,,,,,,,,,,,,,,,,,,,,,,,,,,,,,,,,,,,,,,,,,,,,,,,,,,,,,,,,,,,,,,,,,,,,,,,
0,49,49,8,1,,6081bf53d3c45fe4c8fd3ea3,62c538b636daf98b3ef3eecb,2022-07-06_09h04.10.279,Colour_Asymmetry_Pilot,2022.1.3,Win32,60.04924038,62c50e9c1127f2cd403a315f,,,,,,,,,,,,,,,,,,,,,,,,,,,,,,,,,,,,,,,,,,,,,,,,,,,,,,,,,,,,,,,,,,,,,,,,,,,,,,,,,,,,,,,,,,,,,,,,,,,,,,,,,,,,,,,,,,,,,,,,,,,,,,,,,,,,,,,,,,,,,,,,,,,,,,,,,,,,,,,,,,
0,50,50,12,1,,6081bf53d3c45fe4c8fd3ea3,62c538b636daf98b3ef3eecb,2022-07-06_09h04.10.279,Colour_Asymmetry_Pilot,2022.1.3,Win32,60.04924038,62c50e9c1127f2cd403a315f,,,,,,,,,,,,,,,,,,,,,,,,,,,,,,,,,,,,,,,,,,,,,,,,,,,,,,,,,,,,,,,,,,,,,,,,,,,,,,,,,,,,,,,,,,,,,,,,,,,,,,,,,,,,,,,,,,,,,,,,,,,,,,,,,,,,,,,,,,,,,,,,,,,,,,,,,,,,,,,,,,
0,51,51,0,1,,6081bf53d3c45fe4c8fd3ea3,62c538b636daf98b3ef3eecb,2022-07-06_09h04.10.279,Colour_Asymmetry_Pilot,2022.1.3,Win32,60.04924038,62c50e9c1127f2cd403a315f,,,,,,,,,,,,,,,,,,,,,,,,,,,,,,,,,,,,,,,,,,,,,,,,,,,,,,,,,,,,,,,,,,,,,,,,,,,,,,,,,,,,,,,,,,,,,,,,,,,,,,,,,,,,,,,,,,,,,,,,,,,,,,,,,,,,,,,,,,,,,,,,,,,,,,,,,,,,,,,,,,
0,52,52,60,1,,6081bf53d3c45fe4c8fd3ea3,62c538b636daf98b3ef3eecb,2022-07-06_09h04.10.279,Colour_Asymmetry_Pilot,2022.1.3,Win32,60.04924038,62c50e9c1127f2cd403a315f,,,,,,,,,,,,,,,,,,,,,,,,,,,,,,,,,,,,,,,,,,,,,,,,,,,,,,,,,,,,,,,,,,,,,,,,,,,,,,,,,,,,,,,,,,,,,,,,,,,,,,,,,,,,,,,,,,,,,,,,,,,,,,,,,,,,,,,,,,,,,,,,,,,,,,,,,,,,,,,,,,
0,53,53,55,1,,6081bf53d3c45fe4c8fd3ea3,62c538b636daf98b3ef3eecb,2022-07-06_09h04.10.279,Colour_Asymmetry_Pilot,2022.1.3,Win32,60.04924038,62c50e9c1127f2cd403a315f,,,,,,,,,,,,,,,,,,,,,,,,,,,,,,,,,,,,,,,,,,,,,,,,,,,,,,,,,,,,,,,,,,,,,,,,,,,,,,,,,,,,,,,,,,,,,,,,,,,,,,,,,,,,,,,,,,,,,,,,,,,,,,,,,,,,,,,,,,,,,,,,,,,,,,,,,,,,,,,,,,
0,54,54,32,1,,6081bf53d3c45fe4c8fd3ea3,62c538b636daf98b3ef3eecb,2022-07-06_09h04.10.279,Colour_Asymmetry_Pilot,2022.1.3,Win32,60.04924038,62c50e9c1127f2cd403a315f,,,,,,,,,,,,,,,,,,,,,,,,,,,,,,,,,,,,,,,,,,,,,,,,,,,,,,,,,,,,,,,,,,,,,,,,,,,,,,,,,,,,,,,,,,,,,,,,,,,,,,,,,,,,,,,,,,,,,,,,,,,,,,,,,,,,,,,,,,,,,,,,,,,,,,,,,,,,,,,,,,
0,55,55,59,1,,6081bf53d3c45fe4c8fd3ea3,62c538b636daf98b3ef3eecb,2022-07-06_09h04.10.279,Colour_Asymmetry_Pilot,2022.1.3,Win32,60.04924038,62c50e9c1127f2cd403a315f,,,,,,,,,,,,,,,,,,,,,,,,,,,,,,,,,,,,,,,,,,,,,,,,,,,,,,,,,,,,,,,,,,,,,,,,,,,,,,,,,,,,,,,,,,,,,,,,,,,,,,,,,,,,,,,,,,,,,,,,,,,,,,,,,,,,,,,,,,,,,,,,,,,,,,,,,,,,,,,,,,
0,56,56,34,1,,6081bf53d3c45fe4c8fd3ea3,62c538b636daf98b3ef3eecb,2022-07-06_09h04.10.279,Colour_Asymmetry_Pilot,2022.1.3,Win32,60.04924038,62c50e9c1127f2cd403a315f,,,,,,,,,,,,,,,,,,,,,,,,,,,,,,,,,,,,,,,,,,,,,,,,,,,,,,,,,,,,,,,,,,,,,,,,,,,,,,,,,,,,,,,,,,,,,,,,,,,,,,,,,,,,,,,,,,,,,,,,,,,,,,,,,,,,,,,,,,,,,,,,,,,,,,,,,,,,,,,,,,
0,57,57,52,1,,6081bf53d3c45fe4c8fd3ea3,62c538b636daf98b3ef3eecb,2022-07-06_09h04.10.279,Colour_Asymmetry_Pilot,2022.1.3,Win32,60.04924038,62c50e9c1127f2cd403a315f,,,,,,,,,,,,,,,,,,,,,,,,,,,,,,,,,,,,,,,,,,,,,,,,,,,,,,,,,,,,,,,,,,,,,,,,,,,,,,,,,,,,,,,,,,,,,,,,,,,,,,,,,,,,,,,,,,,,,,,,,,,,,,,,,,,,,,,,,,,,,,,,,,,,,,,,,,,,,,,,,,
0,58,58,80,1,,6081bf53d3c45fe4c8fd3ea3,62c538b636daf98b3ef3eecb,2022-07-06_09h04.10.279,Colour_Asymmetry_Pilot,2022.1.3,Win32,60.04924038,62c50e9c1127f2cd403a315f,,,,,,,,,,,,,,,,,,,,,,,,,,,,,,,,,,,,,,,,,,,,,,,,,,,,,,,,,,,,,,,,,,,,,,,,,,,,,,,,,,,,,,,,,,,,,,,,,,,,,,,,,,,,,,,,,,,,,,,,,,,,,,,,,,,,,,,,,,,,,,,,,,,,,,,,,,,,,,,,,,
0,59,59,26,1,,6081bf53d3c45fe4c8fd3ea3,62c538b636daf98b3ef3eecb,2022-07-06_09h04.10.279,Colour_Asymmetry_Pilot,2022.1.3,Win32,60.04924038,62c50e9c1127f2cd403a315f,,,,,,,,,,,,,,,,,,,,,,,,,,,,,,,,,,,,,,,,,,,,,,,,,,,,,,,,,,,,,,,,,,,,,,,,,,,,,,,,,,,,,,,,,,,,,,,,,,,,,,,,,,,,,,,,,,,,,,,,,,,,,,,,,,,,,,,,,,,,,,,,,,,,,,,,,,,,,,,,,,
0,60,60,88,1,,6081bf53d3c45fe4c8fd3ea3,62c538b636daf98b3ef3eecb,2022-07-06_09h04.10.279,Colour_Asymmetry_Pilot,2022.1.3,Win32,60.04924038,62c50e9c1127f2cd403a315f,,,,,,,,,,,,,,,,,,,,,,,,,,,,,,,,,,,,,,,,,,,,,,,,,,,,,,,,,,,,,,,,,,,,,,,,,,,,,,,,,,,,,,,,,,,,,,,,,,,,,,,,,,,,,,,,,,,,,,,,,,,,,,,,,,,,,,,,,,,,,,,,,,,,,,,,,,,,,,,,,,
0,61,61,79,1,,6081bf53d3c45fe4c8fd3ea3,62c538b636daf98b3ef3eecb,2022-07-06_09h04.10.279,Colour_Asymmetry_Pilot,2022.1.3,Win32,60.04924038,62c50e9c1127f2cd403a315f,,,,,,,,,,,,,,,,,,,,,,,,,,,,,,,,,,,,,,,,,,,,,,,,,,,,,,,,,,,,,,,,,,,,,,,,,,,,,,,,,,,,,,,,,,,,,,,,,,,,,,,,,,,,,,,,,,,,,,,,,,,,,,,,,,,,,,,,,,,,,,,,,,,,,,,,,,,,,,,,,,
0,62,62,35,1,,6081bf53d3c45fe4c8fd3ea3,62c538b636daf98b3ef3eecb,2022-07-06_09h04.10.279,Colour_Asymmetry_Pilot,2022.1.3,Win32,60.04924038,62c50e9c1127f2cd403a315f,,,,,,,,,,,,,,,,,,,,,,,,,,,,,,,,,,,,,,,,,,,,,,,,,,,,,,,,,,,,,,,,,,,,,,,,,,,,,,,,,,,,,,,,,,,,,,,,,,,,,,,,,,,,,,,,,,,,,,,,,,,,,,,,,,,,,,,,,,,,,,,,,,,,,,,,,,,,,,,,,,
0,63,63,73,1,,6081bf53d3c45fe4c8fd3ea3,62c538b636daf98b3ef3eecb,2022-07-06_09h04.10.279,Colour_Asymmetry_Pilot,2022.1.3,Win32,60.04924038,62c50e9c1127f2cd403a315f,,,,,,,,,,,,,,,,,,,,,,,,,,,,,,,,,,,,,,,,,,,,,,,,,,,,,,,,,,,,,,,,,,,,,,,,,,,,,,,,,,,,,,,,,,,,,,,,,,,,,,,,,,,,,,,,,,,,,,,,,,,,,,,,,,,,,,,,,,,,,,,,,,,,,,,,,,,,,,,,,,
0,64,64,4,1,,6081bf53d3c45fe4c8fd3ea3,62c538b636daf98b3ef3eecb,2022-07-06_09h04.10.279,Colour_Asymmetry_Pilot,2022.1.3,Win32,60.04924038,62c50e9c1127f2cd403a315f,,,,,,,,,,,,,,,,,,,,,,,,,,,,,,,,,,,,,,,,,,,,,,,,,,,,,,,,,,,,,,,,,,,,,,,,,,,,,,,,,,,,,,,,,,,,,,,,,,,,,,,,,,,,,,,,,,,,,,,,,,,,,,,,,,,,,,,,,,,,,,,,,,,,,,,,,,,,,,,,,,
0,65,65,49,1,,6081bf53d3c45fe4c8fd3ea3,62c538b636daf98b3ef3eecb,2022-07-06_09h04.10.279,Colour_Asymmetry_Pilot,2022.1.3,Win32,60.04924038,62c50e9c1127f2cd403a315f,,,,,,,,,,,,,,,,,,,,,,,,,,,,,,,,,,,,,,,,,,,,,,,,,,,,,,,,,,,,,,,,,,,,,,,,,,,,,,,,,,,,,,,,,,,,,,,,,,,,,,,,,,,,,,,,,,,,,,,,,,,,,,,,,,,,,,,,,,,,,,,,,,,,,,,,,,,,,,,,,,
0,66,66,1,1,,6081bf53d3c45fe4c8fd3ea3,62c538b636daf98b3ef3eecb,2022-07-06_09h04.10.279,Colour_Asymmetry_Pilot,2022.1.3,Win32,60.04924038,62c50e9c1127f2cd403a315f,,,,,,,,,,,,,,,,,,,,,,,,,,,,,,,,,,,,,,,,,,,,,,,,,,,,,,,,,,,,,,,,,,,,,,,,,,,,,,,,,,,,,,,,,,,,,,,,,,,,,,,,,,,,,,,,,,,,,,,,,,,,,,,,,,,,,,,,,,,,,,,,,,,,,,,,,,,,,,,,,,
0,67,67,17,1,,6081bf53d3c45fe4c8fd3ea3,62c538b636daf98b3ef3eecb,2022-07-06_09h04.10.279,Colour_Asymmetry_Pilot,2022.1.3,Win32,60.04924038,62c50e9c1127f2cd403a315f,,,,,,,,,,,,,,,,,,,,,,,,,,,,,,,,,,,,,,,,,,,,,,,,,,,,,,,,,,,,,,,,,,,,,,,,,,,,,,,,,,,,,,,,,,,,,,,,,,,,,,,,,,,,,,,,,,,,,,,,,,,,,,,,,,,,,,,,,,,,,,,,,,,,,,,,,,,,,,,,,,
0,68,68,29,1,,6081bf53d3c45fe4c8fd3ea3,62c538b636daf98b3ef3eecb,2022-07-06_09h04.10.279,Colour_Asymmetry_Pilot,2022.1.3,Win32,60.04924038,62c50e9c1127f2cd403a315f,,,,,,,,,,,,,,,,,,,,,,,,,,,,,,,,,,,,,,,,,,,,,,,,,,,,,,,,,,,,,,,,,,,,,,,,,,,,,,,,,,,,,,,,,,,,,,,,,,,,,,,,,,,,,,,,,,,,,,,,,,,,,,,,,,,,,,,,,,,,,,,,,,,,,,,,,,,,,,,,,,
0,69,69,87,1,,6081bf53d3c45fe4c8fd3ea3,62c538b636daf98b3ef3eecb,2022-07-06_09h04.10.279,Colour_Asymmetry_Pilot,2022.1.3,Win32,60.04924038,62c50e9c1127f2cd403a315f,,,,,,,,,,,,,,,,,,,,,,,,,,,,,,,,,,,,,,,,,,,,,,,,,,,,,,,,,,,,,,,,,,,,,,,,,,,,,,,,,,,,,,,,,,,,,,,,,,,,,,,,,,,,,,,,,,,,,,,,,,,,,,,,,,,,,,,,,,,,,,,,,,,,,,,,,,,,,,,,,,
0,70,70,71,1,,6081bf53d3c45fe4c8fd3ea3,62c538b636daf98b3ef3eecb,2022-07-06_09h04.10.279,Colour_Asymmetry_Pilot,2022.1.3,Win32,60.04924038,62c50e9c1127f2cd403a315f,,,,,,,,,,,,,,,,,,,,,,,,,,,,,,,,,,,,,,,,,,,,,,,,,,,,,,,,,,,,,,,,,,,,,,,,,,,,,,,,,,,,,,,,,,,,,,,,,,,,,,,,,,,,,,,,,,,,,,,,,,,,,,,,,,,,,,,,,,,,,,,,,,,,,,,,,,,,,,,,,,
0,71,71,24,1,,6081bf53d3c45fe4c8fd3ea3,62c538b636daf98b3ef3eecb,2022-07-06_09h04.10.279,Colour_Asymmetry_Pilot,2022.1.3,Win32,60.04924038,62c50e9c1127f2cd403a315f,,,,,,,,,,,,,,,,,,,,,,,,,,,,,,,,,,,,,,,,,,,,,,,,,,,,,,,,,,,,,,,,,,,,,,,,,,,,,,,,,,,,,,,,,,,,,,,,,,,,,,,,,,,,,,,,,,,,,,,,,,,,,,,,,,,,,,,,,,,,,,,,,,,,,,,,,,,,,,,,,,
0,72,72,16,1,,6081bf53d3c45fe4c8fd3ea3,62c538b636daf98b3ef3eecb,2022-07-06_09h04.10.279,Colour_Asymmetry_Pilot,2022.1.3,Win32,60.04924038,62c50e9c1127f2cd403a315f,,,,,,,,,,,,,,,,,,,,,,,,,,,,,,,,,,,,,,,,,,,,,,,,,,,,,,,,,,,,,,,,,,,,,,,,,,,,,,,,,,,,,,,,,,,,,,,,,,,,,,,,,,,,,,,,,,,,,,,,,,,,,,,,,,,,,,,,,,,,,,,,,,,,,,,,,,,,,,,,,,
0,73,73,67,1,,6081bf53d3c45fe4c8fd3ea3,62c538b636daf98b3ef3eecb,2022-07-06_09h04.10.279,Colour_Asymmetry_Pilot,2022.1.3,Win32,60.04924038,62c50e9c1127f2cd403a315f,,,,,,,,,,,,,,,,,,,,,,,,,,,,,,,,,,,,,,,,,,,,,,,,,,,,,,,,,,,,,,,,,,,,,,,,,,,,,,,,,,,,,,,,,,,,,,,,,,,,,,,,,,,,,,,,,,,,,,,,,,,,,,,,,,,,,,,,,,,,,,,,,,,,,,,,,,,,,,,,,,
0,74,74,18,1,,6081bf53d3c45fe4c8fd3ea3,62c538b636daf98b3ef3eecb,2022-07-06_09h04.10.279,Colour_Asymmetry_Pilot,2022.1.3,Win32,60.04924038,62c50e9c1127f2cd403a315f,,,,,,,,,,,,,,,,,,,,,,,,,,,,,,,,,,,,,,,,,,,,,,,,,,,,,,,,,,,,,,,,,,,,,,,,,,,,,,,,,,,,,,,,,,,,,,,,,,,,,,,,,,,,,,,,,,,,,,,,,,,,,,,,,,,,,,,,,,,,,,,,,,,,,,,,,,,,,,,,,,
0,75,75,3,1,,6081bf53d3c45fe4c8fd3ea3,62c538b636daf98b3ef3eecb,2022-07-06_09h04.10.279,Colour_Asymmetry_Pilot,2022.1.3,Win32,60.04924038,62c50e9c1127f2cd403a315f,,,,,,,,,,,,,,,,,,,,,,,,,,,,,,,,,,,,,,,,,,,,,,,,,,,,,,,,,,,,,,,,,,,,,,,,,,,,,,,,,,,,,,,,,,,,,,,,,,,,,,,,,,,,,,,,,,,,,,,,,,,,,,,,,,,,,,,,,,,,,,,,,,,,,,,,,,,,,,,,,,
0,76,76,74,1,,6081bf53d3c45fe4c8fd3ea3,62c538b636daf98b3ef3eecb,2022-07-06_09h04.10.279,Colour_Asymmetry_Pilot,2022.1.3,Win32,60.04924038,62c50e9c1127f2cd403a315f,,,,,,,,,,,,,,,,,,,,,,,,,,,,,,,,,,,,,,,,,,,,,,,,,,,,,,,,,,,,,,,,,,,,,,,,,,,,,,,,,,,,,,,,,,,,,,,,,,,,,,,,,,,,,,,,,,,,,,,,,,,,,,,,,,,,,,,,,,,,,,,,,,,,,,,,,,,,,,,,,,
0,77,77,7,1,,6081bf53d3c45fe4c8fd3ea3,62c538b636daf98b3ef3eecb,2022-07-06_09h04.10.279,Colour_Asymmetry_Pilot,2022.1.3,Win32,60.04924038,62c50e9c1127f2cd403a315f,,,,,,,,,,,,,,,,,,,,,,,,,,,,,,,,,,,,,,,,,,,,,,,,,,,,,,,,,,,,,,,,,,,,,,,,,,,,,,,,,,,,,,,,,,,,,,,,,,,,,,,,,,,,,,,,,,,,,,,,,,,,,,,,,,,,,,,,,,,,,,,,,,,,,,,,,,,,,,,,,,
0,78,78,68,1,,6081bf53d3c45fe4c8fd3ea3,62c538b636daf98b3ef3eecb,2022-07-06_09h04.10.279,Colour_Asymmetry_Pilot,2022.1.3,Win32,60.04924038,62c50e9c1127f2cd403a315f,,,,,,,,,,,,,,,,,,,,,,,,,,,,,,,,,,,,,,,,,,,,,,,,,,,,,,,,,,,,,,,,,,,,,,,,,,,,,,,,,,,,,,,,,,,,,,,,,,,,,,,,,,,,,,,,,,,,,,,,,,,,,,,,,,,,,,,,,,,,,,,,,,,,,,,,,,,,,,,,,,
0,79,79,84,1,,6081bf53d3c45fe4c8fd3ea3,62c538b636daf98b3ef3eecb,2022-07-06_09h04.10.279,Colour_Asymmetry_Pilot,2022.1.3,Win32,60.04924038,62c50e9c1127f2cd403a315f,,,,,,,,,,,,,,,,,,,,,,,,,,,,,,,,,,,,,,,,,,,,,,,,,,,,,,,,,,,,,,,,,,,,,,,,,,,,,,,,,,,,,,,,,,,,,,,,,,,,,,,,,,,,,,,,,,,,,,,,,,,,,,,,,,,,,,,,,,,,,,,,,,,,,,,,,,,,,,,,,,
0,80,80,62,1,,6081bf53d3c45fe4c8fd3ea3,62c538b636daf98b3ef3eecb,2022-07-06_09h04.10.279,Colour_Asymmetry_Pilot,2022.1.3,Win32,60.04924038,62c50e9c1127f2cd403a315f,,,,,,,,,,,,,,,,,,,,,,,,,,,,,,,,,,,,,,,,,,,,,,,,,,,,,,,,,,,,,,,,,,,,,,,,,,,,,,,,,,,,,,,,,,,,,,,,,,,,,,,,,,,,,,,,,,,,,,,,,,,,,,,,,,,,,,,,,,,,,,,,,,,,,,,,,,,,,,,,,,
0,81,81,65,1,,6081bf53d3c45fe4c8fd3ea3,62c538b636daf98b3ef3eecb,2022-07-06_09h04.10.279,Colour_Asymmetry_Pilot,2022.1.3,Win32,60.04924038,62c50e9c1127f2cd403a315f,,,,,,,,,,,,,,,,,,,,,,,,,,,,,,,,,,,,,,,,,,,,,,,,,,,,,,,,,,,,,,,,,,,,,,,,,,,,,,,,,,,,,,,,,,,,,,,,,,,,,,,,,,,,,,,,,,,,,,,,,,,,,,,,,,,,,,,,,,,,,,,,,,,,,,,,,,,,,,,,,,
0,82,82,25,1,,6081bf53d3c45fe4c8fd3ea3,62c538b636daf98b3ef3eecb,2022-07-06_09h04.10.279,Colour_Asymmetry_Pilot,2022.1.3,Win32,60.04924038,62c50e9c1127f2cd403a315f,,,,,,,,,,,,,,,,,,,,,,,,,,,,,,,,,,,,,,,,,,,,,,,,,,,,,,,,,,,,,,,,,,,,,,,,,,,,,,,,,,,,,,,,,,,,,,,,,,,,,,,,,,,,,,,,,,,,,,,,,,,,,,,,,,,,,,,,,,,,,,,,,,,,,,,,,,,,,,,,,,
0,83,83,85,1,,6081bf53d3c45fe4c8fd3ea3,62c538b636daf98b3ef3eecb,2022-07-06_09h04.10.279,Colour_Asymmetry_Pilot,2022.1.3,Win32,60.04924038,62c50e9c1127f2cd403a315f,,,,,,,,,,,,,,,,,,,,,,,,,,,,,,,,,,,,,,,,,,,,,,,,,,,,,,,,,,,,,,,,,,,,,,,,,,,,,,,,,,,,,,,,,,,,,,,,,,,,,,,,,,,,,,,,,,,,,,,,,,,,,,,,,,,,,,,,,,,,,,,,,,,,,,,,,,,,,,,,,,
0,84,84,44,1,,6081bf53d3c45fe4c8fd3ea3,62c538b636daf98b3ef3eecb,2022-07-06_09h04.10.279,Colour_Asymmetry_Pilot,2022.1.3,Win32,60.04924038,62c50e9c1127f2cd403a315f,,,,,,,,,,,,,,,,,,,,,,,,,,,,,,,,,,,,,,,,,,,,,,,,,,,,,,,,,,,,,,,,,,,,,,,,,,,,,,,,,,,,,,,,,,,,,,,,,,,,,,,,,,,,,,,,,,,,,,,,,,,,,,,,,,,,,,,,,,,,,,,,,,,,,,,,,,,,,,,,,,
0,85,85,90,1,,6081bf53d3c45fe4c8fd3ea3,62c538b636daf98b3ef3eecb,2022-07-06_09h04.10.279,Colour_Asymmetry_Pilot,2022.1.3,Win32,60.04924038,62c50e9c1127f2cd403a315f,,,,,,,,,,,,,,,,,,,,,,,,,,,,,,,,,,,,,,,,,,,,,,,,,,,,,,,,,,,,,,,,,,,,,,,,,,,,,,,,,,,,,,,,,,,,,,,,,,,,,,,,,,,,,,,,,,,,,,,,,,,,,,,,,,,,,,,,,,,,,,,,,,,,,,,,,,,,,,,,,,
0,86,86,13,1,,6081bf53d3c45fe4c8fd3ea3,62c538b636daf98b3ef3eecb,2022-07-06_09h04.10.279,Colour_Asymmetry_Pilot,2022.1.3,Win32,60.04924038,62c50e9c1127f2cd403a315f,,,,,,,,,,,,,,,,,,,,,,,,,,,,,,,,,,,,,,,,,,,,,,,,,,,,,,,,,,,,,,,,,,,,,,,,,,,,,,,,,,,,,,,,,,,,,,,,,,,,,,,,,,,,,,,,,,,,,,,,,,,,,,,,,,,,,,,,,,,,,,,,,,,,,,,,,,,,,,,,,,
0,87,87,27,1,,6081bf53d3c45fe4c8fd3ea3,62c538b636daf98b3ef3eecb,2022-07-06_09h04.10.279,Colour_Asymmetry_Pilot,2022.1.3,Win32,60.04924038,62c50e9c1127f2cd403a315f,,,,,,,,,,,,,,,,,,,,,,,,,,,,,,,,,,,,,,,,,,,,,,,,,,,,,,,,,,,,,,,,,,,,,,,,,,,,,,,,,,,,,,,,,,,,,,,,,,,,,,,,,,,,,,,,,,,,,,,,,,,,,,,,,,,,,,,,,,,,,,,,,,,,,,,,,,,,,,,,,,
0,88,88,56,1,,6081bf53d3c45fe4c8fd3ea3,62c538b636daf98b3ef3eecb,2022-07-06_09h04.10.279,Colour_Asymmetry_Pilot,2022.1.3,Win32,60.04924038,62c50e9c1127f2cd403a315f,,,,,,,,,,,,,,,,,,,,,,,,,,,,,,,,,,,,,,,,,,,,,,,,,,,,,,,,,,,,,,,,,,,,,,,,,,,,,,,,,,,,,,,,,,,,,,,,,,,,,,,,,,,,,,,,,,,,,,,,,,,,,,,,,,,,,,,,,,,,,,,,,,,,,,,,,,,,,,,,,,
0,89,89,82,1,,6081bf53d3c45fe4c8fd3ea3,62c538b636daf98b3ef3eecb,2022-07-06_09h04.10.279,Colour_Asymmetry_Pilot,2022.1.3,Win32,60.04924038,62c50e9c1127f2cd403a315f,,,,,,,,,,,,,,,,,,,,,,,,,,,,,,,,,,,,,,,,,,,,,,,,,,,,,,,,,,,,,,,,,,,,,,,,,,,,,,,,,,,,,,,,,,,,,,,,,,,,,,,,,,,,,,,,,,,,,,,,,,,,,,,,,,,,,,,,,,,,,,,,,,,,,,,,,,,,,,,,,,
0,90,90,89,1,,6081bf53d3c45fe4c8fd3ea3,62c538b636daf98b3ef3eecb,2022-07-06_09h04.10.279,Colour_Asymmetry_Pilot,2022.1.3,Win32,60.04924038,62c50e9c1127f2cd403a315f,,,,,,,,,,,,,,,,,,,,,,,,,,,,,,,,,,,,,,,,,,,,,,,,,,,,,,,,,,,,,,,,,,,,,,,,,,,,,,,,,,,,,,,,,,,,,,,,,,,,,,,,,,,,,,,,,,,,,,,,,,,,,,,,,,,,,,,,,,,,,,,,,,,,,,,,,,,,,,,,,,
0,91,91,40,1,,6081bf53d3c45fe4c8fd3ea3,62c538b636daf98b3ef3eecb,2022-07-06_09h04.10.279,Colour_Asymmetry_Pilot,2022.1.3,Win32,60.04924038,62c50e9c1127f2cd403a315f,,,,,,,,,,,,,,,,,,,,,,,,,,,,,,,,,,,,,,,,,,,,,,,,,,,,,,,,,,,,,,,,,,,,,,,,,,,,,,,,,,,,,,,,,,,,,,,,,,,,,,,,,,,,,,,,,,,,,,,,,,,,,,,,,,,,,,,,,,,,,,,,,,,,,,,,,,,,,,,,,,
0,92,92,37,1,,6081bf53d3c45fe4c8fd3ea3,62c538b636daf98b3ef3eecb,2022-07-06_09h04.10.279,Colour_Asymmetry_Pilot,2022.1.3,Win32,60.04924038,62c50e9c1127f2cd403a315f,,,,,,,,,,,,,,,,,,,,,,,,,,,,,,,,,,,,,,,,,,,,,,,,,,,,,,,,,,,,,,,,,,,,,,,,,,,,,,,,,,,,,,,,,,,,,,,,,,,,,,,,,,,,,,,,,,,,,,,,,,,,,,,,,,,,,,,,,,,,,,,,,,,,,,,,,,,,,,,,,,
,,,,,,6081bf53d3c45fe4c8fd3ea3,62c538b636daf98b3ef3eecb,2022-07-06_09h04.10.279,Colour_Asymmetry_Pilot,2022.1.3,Win32,60.04924038,62c50e9c1127f2cd403a315f,0,0,0,79,1,fourthree,,,,,,,,,,,,,,,,,,,,,,,,,,,,,,,,,,,,,,,,,,,,,,,,,,,,,,,,,,,,,,,,,,,,,,,,,,,,,,,,,,,,,,,,,,,,,,,,,,,,,,,,,,,,,,,,,,,,,,,,,,,,,,,,,,,,,,,,,,,,,,,,,,,,,,,,,,,,
,,,,,,6081bf53d3c45fe4c8fd3ea3,62c538b636daf98b3ef3eecb,2022-07-06_09h04.10.279,Colour_Asymmetry_Pilot,2022.1.3,Win32,60.04924038,62c50e9c1127f2cd403a315f,0,1,1,95,1,fourthree,,,,,,,,,,,,,,,,,,,,,,,,,,,,,,,,,,,,,,,,,,,,,,,,,,,,,,,,,,,,,,,,,,,,,,,,,,,,,,,,,,,,,,,,,,,,,,,,,,,,,,,,,,,,,,,,,,,,,,,,,,,,,,,,,,,,,,,,,,,,,,,,,,,,,,,,,,,,
,,,,,,6081bf53d3c45fe4c8fd3ea3,62c538b636daf98b3ef3eecb,2022-07-06_09h04.10.279,Colour_Asymmetry_Pilot,2022.1.3,Win32,60.04924038,62c50e9c1127f2cd403a315f,0,2,2,103,1,fourthree,,,,,,,,,,,,,,,,,,,,,,,,,,,,,,,,,,,,,,,,,,,,,,,,,,,,,,,,,,,,,,,,,,,,,,,,,,,,,,,,,,,,,,,,,,,,,,,,,,,,,,,,,,,,,,,,,,,,,,,,,,,,,,,,,,,,,,,,,,,,,,,,,,,,,,,,,,,,
,,,,,,6081bf53d3c45fe4c8fd3ea3,62c538b636daf98b3ef3eecb,2022-07-06_09h04.10.279,Colour_Asymmetry_Pilot,2022.1.3,Win32,60.04924038,62c50e9c1127f2cd403a315f,0,3,3,89,1,onethree,,,,,,,,,,,,,,,,,,,,,,,,,,,,,,,,,,,,,,,,,,,,,,,,,,,,,,,,,,,,,,,,,,,,,,,,,,,,,,,,,,,,,,,,,,,,,,,,,,,,,,,,,,,,,,,,,,,,,,,,,,,,,,,,,,,,,,,,,,,,,,,,,,,,,,,,,,,,
,,,,,,6081bf53d3c45fe4c8fd3ea3,62c538b636daf98b3ef3eecb,2022-07-06_09h04.10.279,Colour_Asymmetry_Pilot,2022.1.3,Win32,60.04924038,62c50e9c1127f2cd403a315f,0,4,4,161,1,onethree,,,,,,,,,,,,,,,,,,,,,,,,,,,,,,,,,,,,,,,,,,,,,,,,,,,,,,,,,,,,,,,,,,,,,,,,,,,,,,,,,,,,,,,,,,,,,,,,,,,,,,,,,,,,,,,,,,,,,,,,,,,,,,,,,,,,,,,,,,,,,,,,,,,,,,,,,,,,
,,,,,,6081bf53d3c45fe4c8fd3ea3,62c538b636daf98b3ef3eecb,2022-07-06_09h04.10.279,Colour_Asymmetry_Pilot,2022.1.3,Win32,60.04924038,62c50e9c1127f2cd403a315f,0,5,5,14,1,fourtwo,,,,,,,,,,,,,,,,,,,,,,,,,,,,,,,,,,,,,,,,,,,,,,,,,,,,,,,,,,,,,,,,,,,,,,,,,,,,,,,,,,,,,,,,,,,,,,,,,,,,,,,,,,,,,,,,,,,,,,,,,,,,,,,,,,,,,,,,,,,,,,,,,,,,,,,,,,,,
,,,,,,6081bf53d3c45fe4c8fd3ea3,62c538b636daf98b3ef3eecb,2022-07-06_09h04.10.279,Colour_Asymmetry_Pilot,2022.1.3,Win32,60.04924038,62c50e9c1127f2cd403a315f,0,6,6,126,1,fourtwo,,,,,,,,,,,,,,,,,,,,,,,,,,,,,,,,,,,,,,,,,,,,,,,,,,,,,,,,,,,,,,,,,,,,,,,,,,,,,,,,,,,,,,,,,,,,,,,,,,,,,,,,,,,,,,,,,,,,,,,,,,,,,,,,,,,,,,,,,,,,,,,,,,,,,,,,,,,,
,,,,,,6081bf53d3c45fe4c8fd3ea3,62c538b636daf98b3ef3eecb,2022-07-06_09h04.10.279,Colour_Asymmetry_Pilot,2022.1.3,Win32,60.04924038,62c50e9c1127f2cd403a315f,0,7,7,15,1,fourthree,,,,,,,,,,,,,,,,,,,,,,,,,,,,,,,,,,,,,,,,,,,,,,,,,,,,,,,,,,,,,,,,,,,,,,,,,,,,,,,,,,,,,,,,,,,,,,,,,,,,,,,,,,,,,,,,,,,,,,,,,,,,,,,,,,,,,,,,,,,,,,,,,,,,,,,,,,,,
,,,,,,6081bf53d3c45fe4c8fd3ea3,62c538b636daf98b3ef3eecb,2022-07-06_09h04.10.279,Colour_Asymmetry_Pilot,2022.1.3,Win32,60.04924038,62c50e9c1127f2cd403a315f,0,8,8,1,1,onethree,,,,,,,,,,,,,,,,,,,,,,,,,,,,,,,,,,,,,,,,,,,,,,,,,,,,,,,,,,,,,,,,,,,,,,,,,,,,,,,,,,,,,,,,,,,,,,,,,,,,,,,,,,,,,,,,,,,,,,,,,,,,,,,,,,,,,,,,,,,,,,,,,,,,,,,,,,,,
,,,,,,6081bf53d3c45fe4c8fd3ea3,62c538b636daf98b3ef3eecb,2022-07-06_09h04.10.279,Colour_Asymmetry_Pilot,2022.1.3,Win32,60.04924038,62c50e9c1127f2cd403a315f,0,9,9,136,1,onetwo,,,,,,,,,,,,,,,,,,,,,,,,,,,,,,,,,,,,,,,,,,,,,,,,,,,,,,,,,,,,,,,,,,,,,,,,,,,,,,,,,,,,,,,,,,,,,,,,,,,,,,,,,,,,,,,,,,,,,,,,,,,,,,,,,,,,,,,,,,,,,,,,,,,,,,,,,,,,
,,,,,,6081bf53d3c45fe4c8fd3ea3,62c538b636daf98b3ef3eecb,2022-07-06_09h04.10.279,Colour_Asymmetry_Pilot,2022.1.3,Win32,60.04924038,62c50e9c1127f2cd403a315f,0,10,10,28,1,threeone,,,,,,,,,,,,,,,,,,,,,,,,,,,,,,,,,,,,,,,,,,,,,,,,,,,,,,,,,,,,,,,,,,,,,,,,,,,,,,,,,,,,,,,,,,,,,,,,,,,,,,,,,,,,,,,,,,,,,,,,,,,,,,,,,,,,,,,,,,,,,,,,,,,,,,,,,,,,
,,,,,,6081bf53d3c45fe4c8fd3ea3,62c538b636daf98b3ef3eecb,2022-07-06_09h04.10.279,Colour_Asymmetry_Pilot,2022.1.3,Win32,60.04924038,62c50e9c1127f2cd403a315f,0,11,11,112,1,onetwo,,,,,,,,,,,,,,,,,,,,,,,,,,,,,,,,,,,,,,,,,,,,,,,,,,,,,,,,,,,,,,,,,,,,,,,,,,,,,,,,,,,,,,,,,,,,,,,,,,,,,,,,,,,,,,,,,,,,,,,,,,,,,,,,,,,,,,,,,,,,,,,,,,,,,,,,,,,,
,,,,,,6081bf53d3c45fe4c8fd3ea3,62c538b636daf98b3ef3eecb,2022-07-06_09h04.10.279,Colour_Asymmetry_Pilot,2022.1.3,Win32,60.04924038,62c50e9c1127f2cd403a315f,0,12,12,94,1,fourtwo,,,,,,,,,,,,,,,,,,,,,,,,,,,,,,,,,,,,,,,,,,,,,,,,,,,,,,,,,,,,,,,,,,,,,,,,,,,,,,,,,,,,,,,,,,,,,,,,,,,,,,,,,,,,,,,,,,,,,,,,,,,,,,,,,,,,,,,,,,,,,,,,,,,,,,,,,,,,
,,,,,,6081bf53d3c45fe4c8fd3ea3,62c538b636daf98b3ef3eecb,2022-07-06_09h04.10.279,Colour_Asymmetry_Pilot,2022.1.3,Win32,60.04924038,62c50e9c1127f2cd403a315f,0,13,13,157,1,threefour,,,,,,,,,,,,,,,,,,,,,,,,,,,,,,,,,,,,,,,,,,,,,,,,,,,,,,,,,,,,,,,,,,,,,,,,,,,,,,,,,,,,,,,,,,,,,,,,,,,,,,,,,,,,,,,,,,,,,,,,,,,,,,,,,,,,,,,,,,,,,,,,,,,,,,,,,,,,
,,,,,,6081bf53d3c45fe4c8fd3ea3,62c538b636daf98b3ef3eecb,2022-07-06_09h04.10.279,Colour_Asymmetry_Pilot,2022.1.3,Win32,60.04924038,62c50e9c1127f2cd403a315f,0,14,14,45,1,threefour,,,,,,,,,,,,,,,,,,,,,,,,,,,,,,,,,,,,,,,,,,,,,,,,,,,,,,,,,,,,,,,,,,,,,,,,,,,,,,,,,,,,,,,,,,,,,,,,,,,,,,,,,,,,,,,,,,,,,,,,,,,,,,,,,,,,,,,,,,,,,,,,,,,,,,,,,,,,
,,,,,,6081bf53d3c45fe4c8fd3ea3,62c538b636daf98b3ef3eecb,2022-07-06_09h04.10.279,Colour_Asymmetry_Pilot,2022.1.3,Win32,60.04924038,62c50e9c1127f2cd403a315f,0,15,15,68,1,threeone,,,,,,,,,,,,,,,,,,,,,,,,,,,,,,,,,,,,,,,,,,,,,,,,,,,,,,,,,,,,,,,,,,,,,,,,,,,,,,,,,,,,,,,,,,,,,,,,,,,,,,,,,,,,,,,,,,,,,,,,,,,,,,,,,,,,,,,,,,,,,,,,,,,,,,,,,,,,
,,,,,,6081bf53d3c45fe4c8fd3ea3,62c538b636daf98b3ef3eecb,2022-07-06_09h04.10.279,Colour_Asymmetry_Pilot,2022.1.3,Win32,60.04924038,62c50e9c1127f2cd403a315f,0,16,16,130,1,twoone,,,,,,,,,,,,,,,,,,,,,,,,,,,,,,,,,,,,,,,,,,,,,,,,,,,,,,,,,,,,,,,,,,,,,,,,,,,,,,,,,,,,,,,,,,,,,,,,,,,,,,,,,,,,,,,,,,,,,,,,,,,,,,,,,,,,,,,,,,,,,,,,,,,,,,,,,,,,
,,,,,,6081bf53d3c45fe4c8fd3ea3,62c538b636daf98b3ef3eecb,2022-07-06_09h04.10.279,Colour_Asymmetry_Pilot,2022.1.3,Win32,60.04924038,62c50e9c1127f2cd403a315f,0,17,17,77,1,threefour,,,,,,,,,,,,,,,,,,,,,,,,,,,,,,,,,,,,,,,,,,,,,,,,,,,,,,,,,,,,,,,,,,,,,,,,,,,,,,,,,,,,,,,,,,,,,,,,,,,,,,,,,,,,,,,,,,,,,,,,,,,,,,,,,,,,,,,,,,,,,,,,,,,,,,,,,,,,
,,,,,,6081bf53d3c45fe4c8fd3ea3,62c538b636daf98b3ef3eecb,2022-07-06_09h04.10.279,Colour_Asymmetry_Pilot,2022.1.3,Win32,60.04924038,62c50e9c1127f2cd403a315f,0,18,18,105,1,onethree,,,,,,,,,,,,,,,,,,,,,,,,,,,,,,,,,,,,,,,,,,,,,,,,,,,,,,,,,,,,,,,,,,,,,,,,,,,,,,,,,,,,,,,,,,,,,,,,,,,,,,,,,,,,,,,,,,,,,,,,,,,,,,,,,,,,,,,,,,,,,,,,,,,,,,,,,,,,
,,,,,,6081bf53d3c45fe4c8fd3ea3,62c538b636daf98b3ef3eecb,2022-07-06_09h04.10.279,Colour_Asymmetry_Pilot,2022.1.3,Win32,60.04924038,62c50e9c1127f2cd403a315f,0,19,19,47,1,fourthree,,,,,,,,,,,,,,,,,,,,,,,,,,,,,,,,,,,,,,,,,,,,,,,,,,,,,,,,,,,,,,,,,,,,,,,,,,,,,,,,,,,,,,,,,,,,,,,,,,,,,,,,,,,,,,,,,,,,,,,,,,,,,,,,,,,,,,,,,,,,,,,,,,,,,,,,,,,,
,,,,,,6081bf53d3c45fe4c8fd3ea3,62c538b636daf98b3ef3eecb,2022-07-06_09h04.10.279,Colour_Asymmetry_Pilot,2022.1.3,Win32,60.04924038,62c50e9c1127f2cd403a315f,0,20,20,11,1,twofour,,,,,,,,,,,,,,,,,,,,,,,,,,,,,,,,,,,,,,,,,,,,,,,,,,,,,,,,,,,,,,,,,,,,,,,,,,,,,,,,,,,,,,,,,,,,,,,,,,,,,,,,,,,,,,,,,,,,,,,,,,,,,,,,,,,,,,,,,,,,,,,,,,,,,,,,,,,,
,,,,,,6081bf53d3c45fe4c8fd3ea3,62c538b636daf98b3ef3eecb,2022-07-06_09h04.10.279,Colour_Asymmetry_Pilot,2022.1.3,Win32,60.04924038,62c50e9c1127f2cd403a315f,0,21,21,132,1,threeone,,,,,,,,,,,,,,,,,,,,,,,,,,,,,,,,,,,,,,,,,,,,,,,,,,,,,,,,,,,,,,,,,,,,,,,,,,,,,,,,,,,,,,,,,,,,,,,,,,,,,,,,,,,,,,,,,,,,,,,,,,,,,,,,,,,,,,,,,,,,,,,,,,,,,,,,,,,,
,,,,,,6081bf53d3c45fe4c8fd3ea3,62c538b636daf98b3ef3eecb,2022-07-06_09h04.10.279,Colour_Asymmetry_Pilot,2022.1.3,Win32,60.04924038,62c50e9c1127f2cd403a315f,0,22,22,160,1,onetwo,,,,,,,,,,,,,,,,,,,,,,,,,,,,,,,,,,,,,,,,,,,,,,,,,,,,,,,,,,,,,,,,,,,,,,,,,,,,,,,,,,,,,,,,,,,,,,,,,,,,,,,,,,,,,,,,,,,,,,,,,,,,,,,,,,,,,,,,,,,,,,,,,,,,,,,,,,,,
,,,,,,6081bf53d3c45fe4c8fd3ea3,62c538b636daf98b3ef3eecb,2022-07-06_09h04.10.279,Colour_Asymmetry_Pilot,2022.1.3,Win32,60.04924038,62c50e9c1127f2cd403a315f,0,23,23,19,1,twofour,,,,,,,,,,,,,,,,,,,,,,,,,,,,,,,,,,,,,,,,,,,,,,,,,,,,,,,,,,,,,,,,,,,,,,,,,,,,,,,,,,,,,,,,,,,,,,,,,,,,,,,,,,,,,,,,,,,,,,,,,,,,,,,,,,,,,,,,,,,,,,,,,,,,,,,,,,,,
,,,,,,6081bf53d3c45fe4c8fd3ea3,62c538b636daf98b3ef3eecb,2022-07-06_09h04.10.279,Colour_Asymmetry_Pilot,2022.1.3,Win32,60.04924038,62c50e9c1127f2cd403a315f,0,24,24,69,1,threefour,,,,,,,,,,,,,,,,,,,,,,,,,,,,,,,,,,,,,,,,,,,,,,,,,,,,,,,,,,,,,,,,,,,,,,,,,,,,,,,,,,,,,,,,,,,,,,,,,,,,,,,,,,,,,,,,,,,,,,,,,,,,,,,,,,,,,,,,,,,,,,,,,,,,,,,,,,,,
,,,,,,6081bf53d3c45fe4c8fd3ea3,62c538b636daf98b3ef3eecb,2022-07-06_09h04.10.279,Colour_Asymmetry_Pilot,2022.1.3,Win32,60.04924038,62c50e9c1127f2cd403a315f,0,25,25,97,1,onethree,,,,,,,,,,,,,,,,,,,,,,,,,,,,,,,,,,,,,,,,,,,,,,,,,,,,,,,,,,,,,,,,,,,,,,,,,,,,,,,,,,,,,,,,,,,,,,,,,,,,,,,,,,,,,,,,,,,,,,,,,,,,,,,,,,,,,,,,,,,,,,,,,,,,,,,,,,,,
,,,,,,6081bf53d3c45fe4c8fd3ea3,62c538b636daf98b3ef3eecb,2022-07-06_09h04.10.279,Colour_Asymmetry_Pilot,2022.1.3,Win32,60.04924038,62c50e9c1127f2cd403a315f,0,26,26,32,1,onetwo,,,,,,,,,,,,,,,,,,,,,,,,,,,,,,,,,,,,,,,,,,,,,,,,,,,,,,,,,,,,,,,,,,,,,,,,,,,,,,,,,,,,,,,,,,,,,,,,,,,,,,,,,,,,,,,,,,,,,,,,,,,,,,,,,,,,,,,,,,,,,,,,,,,,,,,,,,,,
,,,,,,6081bf53d3c45fe4c8fd3ea3,62c538b636daf98b3ef3eecb,2022-07-06_09h04.10.279,Colour_Asymmetry_Pilot,2022.1.3,Win32,60.04924038,62c50e9c1127f2cd403a315f,0,27,27,70,1,fourtwo,,,,,,,,,,,,,,,,,,,,,,,,,,,,,,,,,,,,,,,,,,,,,,,,,,,,,,,,,,,,,,,,,,,,,,,,,,,,,,,,,,,,,,,,,,,,,,,,,,,,,,,,,,,,,,,,,,,,,,,,,,,,,,,,,,,,,,,,,,,,,,,,,,,,,,,,,,,,
,,,,,,6081bf53d3c45fe4c8fd3ea3,62c538b636daf98b3ef3eecb,2022-07-06_09h04.10.279,Colour_Asymmetry_Pilot,2022.1.3,Win32,60.04924038,62c50e9c1127f2cd403a315f,0,28,28,123,1,twofour,,,,,,,,,,,,,,,,,,,,,,,,,,,,,,,,,,,,,,,,,,,,,,,,,,,,,,,,,,,,,,,,,,,,,,,,,,,,,,,,,,,,,,,,,,,,,,,,,,,,,,,,,,,,,,,,,,,,,,,,,,,,,,,,,,,,,,,,,,,,,,,,,,,,,,,,,,,,
,,,,,,6081bf53d3c45fe4c8fd3ea3,62c538b636daf98b3ef3eecb,2022-07-06_09h04.10.279,Colour_Asymmetry_Pilot,2022.1.3,Win32,60.04924038,62c50e9c1127f2cd403a315f,0,29,29,116,1,threeone,,,,,,,,,,,,,,,,,,,,,,,,,,,,,,,,,,,,,,,,,,,,,,,,,,,,,,,,,,,,,,,,,,,,,,,,,,,,,,,,,,,,,,,,,,,,,,,,,,,,,,,,,,,,,,,,,,,,,,,,,,,,,,,,,,,,,,,,,,,,,,,,,,,,,,,,,,,,
,,,,,,6081bf53d3c45fe4c8fd3ea3,62c538b636daf98b3ef3eecb,2022-07-06_09h04.10.279,Colour_Asymmetry_Pilot,2022.1.3,Win32,60.04924038,62c50e9c1127f2cd403a315f,0,30,30,10,1,twoone,,,,,,,,,,,,,,,,,,,,,,,,,,,,,,,,,,,,,,,,,,,,,,,,,,,,,,,,,,,,,,,,,,,,,,,,,,,,,,,,,,,,,,,,,,,,,,,,,,,,,,,,,,,,,,,,,,,,,,,,,,,,,,,,,,,,,,,,,,,,,,,,,,,,,,,,,,,,
,,,,,,6081bf53d3c45fe4c8fd3ea3,62c538b636daf98b3ef3eecb,2022-07-06_09h04.10.279,Colour_Asymmetry_Pilot,2022.1.3,Win32,60.04924038,62c50e9c1127f2cd403a315f,0,31,31,101,1,threefour,,,,,,,,,,,,,,,,,,,,,,,,,,,,,,,,,,,,,,,,,,,,,,,,,,,,,,,,,,,,,,,,,,,,,,,,,,,,,,,,,,,,,,,,,,,,,,,,,,,,,,,,,,,,,,,,,,,,,,,,,,,,,,,,,,,,,,,,,,,,,,,,,,,,,,,,,,,,
,,,,,,6081bf53d3c45fe4c8fd3ea3,62c538b636daf98b3ef3eecb,2022-07-06_09h04.10.279,Colour_Asymmetry_Pilot,2022.1.3,Win32,60.04924038,62c50e9c1127f2cd403a315f,0,32,32,151,1,fourthree,,,,,,,,,,,,,,,,,,,,,,,,,,,,,,,,,,,,,,,,,,,,,,,,,,,,,,,,,,,,,,,,,,,,,,,,,,,,,,,,,,,,,,,,,,,,,,,,,,,,,,,,,,,,,,,,,,,,,,,,,,,,,,,,,,,,,,,,,,,,,,,,,,,,,,,,,,,,
,,,,,,6081bf53d3c45fe4c8fd3ea3,62c538b636daf98b3ef3eecb,2022-07-06_09h04.10.279,Colour_Asymmetry_Pilot,2022.1.3,Win32,60.04924038,62c50e9c1127f2cd403a315f,0,33,33,6,1,fourtwo,,,,,,,,,,,,,,,,,,,,,,,,,,,,,,,,,,,,,,,,,,,,,,,,,,,,,,,,,,,,,,,,,,,,,,,,,,,,,,,,,,,,,,,,,,,,,,,,,,,,,,,,,,,,,,,,,,,,,,,,,,,,,,,,,,,,,,,,,,,,,,,,,,,,,,,,,,,,
,,,,,,6081bf53d3c45fe4c8fd3ea3,62c538b636daf98b3ef3eecb,2022-07-06_09h04.10.279,Colour_Asymmetry_Pilot,2022.1.3,Win32,60.04924038,62c50e9c1127f2cd403a315f,0,34,34,149,1,threefour,,,,,,,,,,,,,,,,,,,,,,,,,,,,,,,,,,,,,,,,,,,,,,,,,,,,,,,,,,,,,,,,,,,,,,,,,,,,,,,,,,,,,,,,,,,,,,,,,,,,,,,,,,,,,,,,,,,,,,,,,,,,,,,,,,,,,,,,,,,,,,,,,,,,,,,,,,,,
,,,,,,6081bf53d3c45fe4c8fd3ea3,62c538b636daf98b3ef3eecb,2022-07-06_09h04.10.279,Colour_Asymmetry_Pilot,2022.1.3,Win32,60.04924038,62c50e9c1127f2cd403a315f,0,35,35,71,1,fourthree,,,,,,,,,,,,,,,,,,,,,,,,,,,,,,,,,,,,,,,,,,,,,,,,,,,,,,,,,,,,,,,,,,,,,,,,,,,,,,,,,,,,,,,,,,,,,,,,,,,,,,,,,,,,,,,,,,,,,,,,,,,,,,,,,,,,,,,,,,,,,,,,,,,,,,,,,,,,
,,,,,,6081bf53d3c45fe4c8fd3ea3,62c538b636daf98b3ef3eecb,2022-07-06_09h04.10.279,Colour_Asymmetry_Pilot,2022.1.3,Win32,60.04924038,62c50e9c1127f2cd403a315f,0,36,36,67,1,twofour,,,,,,,,,,,,,,,,,,,,,,,,,,,,,,,,,,,,,,,,,,,,,,,,,,,,,,,,,,,,,,,,,,,,,,,,,,,,,,,,,,,,,,,,,,,,,,,,,,,,,,,,,,,,,,,,,,,,,,,,,,,,,,,,,,,,,,,,,,,,,,,,,,,,,,,,,,,,
,,,,,,6081bf53d3c45fe4c8fd3ea3,62c538b636daf98b3ef3eecb,2022-07-06_09h04.10.279,Colour_Asymmetry_Pilot,2022.1.3,Win32,60.04924038,62c50e9c1127f2cd403a315f,0,37,37,34,1,twoone,,,,,,,,,,,,,,,,,,,,,,,,,,,,,,,,,,,,,,,,,,,,,,,,,,,,,,,,,,,,,,,,,,,,,,,,,,,,,,,,,,,,,,,,,,,,,,,,,,,,,,,,,,,,,,,,,,,,,,,,,,,,,,,,,,,,,,,,,,,,,,,,,,,,,,,,,,,,
,,,,,,6081bf53d3c45fe4c8fd3ea3,62c538b636daf98b3ef3eecb,2022-07-06_09h04.10.279,Colour_Asymmetry_Pilot,2022.1.3,Win32,60.04924038,62c50e9c1127f2cd403a315f,0,38,38,86,1,fourtwo,,,,,,,,,,,,,,,,,,,,,,,,,,,,,,,,,,,,,,,,,,,,,,,,,,,,,,,,,,,,,,,,,,,,,,,,,,,,,,,,,,,,,,,,,,,,,,,,,,,,,,,,,,,,,,,,,,,,,,,,,,,,,,,,,,,,,,,,,,,,,,,,,,,,,,,,,,,,
,,,,,,6081bf53d3c45fe4c8fd3ea3,62c538b636daf98b3ef3eecb,2022-07-06_09h04.10.279,Colour_Asymmetry_Pilot,2022.1.3,Win32,60.04924038,62c50e9c1127f2cd403a315f,0,39,39,122,1,twoone,,,,,,,,,,,,,,,,,,,,,,,,,,,,,,,,,,,,,,,,,,,,,,,,,,,,,,,,,,,,,,,,,,,,,,,,,,,,,,,,,,,,,,,,,,,,,,,,,,,,,,,,,,,,,,,,,,,,,,,,,,,,,,,,,,,,,,,,,,,,,,,,,,,,,,,,,,,,
,,,,,,6081bf53d3c45fe4c8fd3ea3,62c538b636daf98b3ef3eecb,2022-07-06_09h04.10.279,Colour_Asymmetry_Pilot,2022.1.3,Win32,60.04924038,62c50e9c1127f2cd403a315f,0,40,40,106,1,twoone,,,,,,,,,,,,,,,,,,,,,,,,,,,,,,,,,,,,,,,,,,,,,,,,,,,,,,,,,,,,,,,,,,,,,,,,,,,,,,,,,,,,,,,,,,,,,,,,,,,,,,,,,,,,,,,,,,,,,,,,,,,,,,,,,,,,,,,,,,,,,,,,,,,,,,,,,,,,
,,,,,,6081bf53d3c45fe4c8fd3ea3,62c538b636daf98b3ef3eecb,2022-07-06_09h04.10.279,Colour_Asymmetry_Pilot,2022.1.3,Win32,60.04924038,62c50e9c1127f2cd403a315f,0,41,41,117,1,threefour,,,,,,,,,,,,,,,,,,,,,,,,,,,,,,,,,,,,,,,,,,,,,,,,,,,,,,,,,,,,,,,,,,,,,,,,,,,,,,,,,,,,,,,,,,,,,,,,,,,,,,,,,,,,,,,,,,,,,,,,,,,,,,,,,,,,,,,,,,,,,,,,,,,,,,,,,,,,
,,,,,,6081bf53d3c45fe4c8fd3ea3,62c538b636daf98b3ef3eecb,2022-07-06_09h04.10.279,Colour_Asymmetry_Pilot,2022.1.3,Win32,60.04924038,62c50e9c1127f2cd403a315f,0,42,42,128,1,onetwo,,,,,,,,,,,,,,,,,,,,,,,,,,,,,,,,,,,,,,,,,,,,,,,,,,,,,,,,,,,,,,,,,,,,,,,,,,,,,,,,,,,,,,,,,,,,,,,,,,,,,,,,,,,,,,,,,,,,,,,,,,,,,,,,,,,,,,,,,,,,,,,,,,,,,,,,,,,,
,,,,,,6081bf53d3c45fe4c8fd3ea3,62c538b636daf98b3ef3eecb,2022-07-06_09h04.10.279,Colour_Asymmetry_Pilot,2022.1.3,Win32,60.04924038,62c50e9c1127f2cd403a315f,0,43,43,9,1,onethree,,,,,,,,,,,,,,,,,,,,,,,,,,,,,,,,,,,,,,,,,,,,,,,,,,,,,,,,,,,,,,,,,,,,,,,,,,,,,,,,,,,,,,,,,,,,,,,,,,,,,,,,,,,,,,,,,,,,,,,,,,,,,,,,,,,,,,,,,,,,,,,,,,,,,,,,,,,,
,,,,,,6081bf53d3c45fe4c8fd3ea3,62c538b636daf98b3ef3eecb,2022-07-06_09h04.10.279,Colour_Asymmetry_Pilot,2022.1.3,Win32,60.04924038,62c50e9c1127f2cd403a315f,0,44,44,131,1,twofour,,,,,,,,,,,,,,,,,,,,,,,,,,,,,,,,,,,,,,,,,,,,,,,,,,,,,,,,,,,,,,,,,,,,,,,,,,,,,,,,,,,,,,,,,,,,,,,,,,,,,,,,,,,,,,,,,,,,,,,,,,,,,,,,,,,,,,,,,,,,,,,,,,,,,,,,,,,,
,,,,,,6081bf53d3c45fe4c8fd3ea3,62c538b636daf98b3ef3eecb,2022-07-06_09h04.10.279,Colour_Asymmetry_Pilot,2022.1.3,Win32,60.04924038,62c50e9c1127f2cd403a315f,0,45,45,143,1,fourthree,,,,,,,,,,,,,,,,,,,,,,,,,,,,,,,,,,,,,,,,,,,,,,,,,,,,,,,,,,,,,,,,,,,,,,,,,,,,,,,,,,,,,,,,,,,,,,,,,,,,,,,,,,,,,,,,,,,,,,,,,,,,,,,,,,,,,,,,,,,,,,,,,,,,,,,,,,,,
,,,,,,6081bf53d3c45fe4c8fd3ea3,62c538b636daf98b3ef3eecb,2022-07-06_09h04.10.279,Colour_Asymmetry_Pilot,2022.1.3,Win32,60.04924038,62c50e9c1127f2cd403a315f,0,46,46,129,1,onethree,,,,,,,,,,,,,,,,,,,,,,,,,,,,,,,,,,,,,,,,,,,,,,,,,,,,,,,,,,,,,,,,,,,,,,,,,,,,,,,,,,,,,,,,,,,,,,,,,,,,,,,,,,,,,,,,,,,,,,,,,,,,,,,,,,,,,,,,,,,,,,,,,,,,,,,,,,,,
,,,,,,6081bf53d3c45fe4c8fd3ea3,62c538b636daf98b3ef3eecb,2022-07-06_09h04.10.279,Colour_Asymmetry_Pilot,2022.1.3,Win32,60.04924038,62c50e9c1127f2cd403a315f,0,47,47,13,1,threefour,,,,,,,,,,,,,,,,,,,,,,,,,,,,,,,,,,,,,,,,,,,,,,,,,,,,,,,,,,,,,,,,,,,,,,,,,,,,,,,,,,,,,,,,,,,,,,,,,,,,,,,,,,,,,,,,,,,,,,,,,,,,,,,,,,,,,,,,,,,,,,,,,,,,,,,,,,,,
,,,,,,6081bf53d3c45fe4c8fd3ea3,62c538b636daf98b3ef3eecb,2022-07-06_09h04.10.279,Colour_Asymmetry_Pilot,2022.1.3,Win32,60.04924038,62c50e9c1127f2cd403a315f,0,48,48,110,1,fourtwo,,,,,,,,,,,,,,,,,,,,,,,,,,,,,,,,,,,,,,,,,,,,,,,,,,,,,,,,,,,,,,,,,,,,,,,,,,,,,,,,,,,,,,,,,,,,,,,,,,,,,,,,,,,,,,,,,,,,,,,,,,,,,,,,,,,,,,,,,,,,,,,,,,,,,,,,,,,,
,,,,,,6081bf53d3c45fe4c8fd3ea3,62c538b636daf98b3ef3eecb,2022-07-06_09h04.10.279,Colour_Asymmetry_Pilot,2022.1.3,Win32,60.04924038,62c50e9c1127f2cd403a315f,0,49,49,38,1,fourtwo,,,,,,,,,,,,,,,,,,,,,,,,,,,,,,,,,,,,,,,,,,,,,,,,,,,,,,,,,,,,,,,,,,,,,,,,,,,,,,,,,,,,,,,,,,,,,,,,,,,,,,,,,,,,,,,,,,,,,,,,,,,,,,,,,,,,,,,,,,,,,,,,,,,,,,,,,,,,
,,,,,,6081bf53d3c45fe4c8fd3ea3,62c538b636daf98b3ef3eecb,2022-07-06_09h04.10.279,Colour_Asymmetry_Pilot,2022.1.3,Win32,60.04924038,62c50e9c1127f2cd403a315f,0,50,50,21,1,threefour,,,,,,,,,,,,,,,,,,,,,,,,,,,,,,,,,,,,,,,,,,,,,,,,,,,,,,,,,,,,,,,,,,,,,,,,,,,,,,,,,,,,,,,,,,,,,,,,,,,,,,,,,,,,,,,,,,,,,,,,,,,,,,,,,,,,,,,,,,,,,,,,,,,,,,,,,,,,
,,,,,,6081bf53d3c45fe4c8fd3ea3,62c538b636daf98b3ef3eecb,2022-07-06_09h04.10.279,Colour_Asymmetry_Pilot,2022.1.3,Win32,60.04924038,62c50e9c1127f2cd403a315f,0,51,51,139,1,twofour,,,,,,,,,,,,,,,,,,,,,,,,,,,,,,,,,,,,,,,,,,,,,,,,,,,,,,,,,,,,,,,,,,,,,,,,,,,,,,,,,,,,,,,,,,,,,,,,,,,,,,,,,,,,,,,,,,,,,,,,,,,,,,,,,,,,,,,,,,,,,,,,,,,,,,,,,,,,
,,,,,,6081bf53d3c45fe4c8fd3ea3,62c538b636daf98b3ef3eecb,2022-07-06_09h04.10.279,Colour_Asymmetry_Pilot,2022.1.3,Win32,60.04924038,62c50e9c1127f2cd403a315f,0,52,52,85,1,threefour,,,,,,,,,,,,,,,,,,,,,,,,,,,,,,,,,,,,,,,,,,,,,,,,,,,,,,,,,,,,,,,,,,,,,,,,,,,,,,,,,,,,,,,,,,,,,,,,,,,,,,,,,,,,,,,,,,,,,,,,,,,,,,,,,,,,,,,,,,,,,,,,,,,,,,,,,,,,
,,,,,,6081bf53d3c45fe4c8fd3ea3,62c538b636daf98b3ef3eecb,2022-07-06_09h04.10.279,Colour_Asymmetry_Pilot,2022.1.3,Win32,60.04924038,62c50e9c1127f2cd403a315f,0,53,53,46,1,fourtwo,,,,,,,,,,,,,,,,,,,,,,,,,,,,,,,,,,,,,,,,,,,,,,,,,,,,,,,,,,,,,,,,,,,,,,,,,,,,,,,,,,,,,,,,,,,,,,,,,,,,,,,,,,,,,,,,,,,,,,,,,,,,,,,,,,,,,,,,,,,,,,,,,,,,,,,,,,,,
,,,,,,6081bf53d3c45fe4c8fd3ea3,62c538b636daf98b3ef3eecb,2022-07-06_09h04.10.279,Colour_Asymmetry_Pilot,2022.1.3,Win32,60.04924038,62c50e9c1127f2cd403a315f,0,54,54,17,1,onethree,,,,,,,,,,,,,,,,,,,,,,,,,,,,,,,,,,,,,,,,,,,,,,,,,,,,,,,,,,,,,,,,,,,,,,,,,,,,,,,,,,,,,,,,,,,,,,,,,,,,,,,,,,,,,,,,,,,,,,,,,,,,,,,,,,,,,,,,,,,,,,,,,,,,,,,,,,,,
,,,,,,6081bf53d3c45fe4c8fd3ea3,62c538b636daf98b3ef3eecb,2022-07-06_09h04.10.279,Colour_Asymmetry_Pilot,2022.1.3,Win32,60.04924038,62c50e9c1127f2cd403a315f,0,55,55,52,1,threeone,,,,,,,,,,,,,,,,,,,,,,,,,,,,,,,,,,,,,,,,,,,,,,,,,,,,,,,,,,,,,,,,,,,,,,,,,,,,,,,,,,,,,,,,,,,,,,,,,,,,,,,,,,,,,,,,,,,,,,,,,,,,,,,,,,,,,,,,,,,,,,,,,,,,,,,,,,,,
,,,,,,6081bf53d3c45fe4c8fd3ea3,62c538b636daf98b3ef3eecb,2022-07-06_09h04.10.279,Colour_Asymmetry_Pilot,2022.1.3,Win32,60.04924038,62c50e9c1127f2cd403a315f,0,56,56,133,1,threefour,,,,,,,,,,,,,,,,,,,,,,,,,,,,,,,,,,,,,,,,,,,,,,,,,,,,,,,,,,,,,,,,,,,,,,,,,,,,,,,,,,,,,,,,,,,,,,,,,,,,,,,,,,,,,,,,,,,,,,,,,,,,,,,,,,,,,,,,,,,,,,,,,,,,,,,,,,,,
,,,,,,6081bf53d3c45fe4c8fd3ea3,62c538b636daf98b3ef3eecb,2022-07-06_09h04.10.279,Colour_Asymmetry_Pilot,2022.1.3,Win32,60.04924038,62c50e9c1127f2cd403a315f,0,57,57,33,1,onethree,,,,,,,,,,,,,,,,,,,,,,,,,,,,,,,,,,,,,,,,,,,,,,,,,,,,,,,,,,,,,,,,,,,,,,,,,,,,,,,,,,,,,,,,,,,,,,,,,,,,,,,,,,,,,,,,,,,,,,,,,,,,,,,,,,,,,,,,,,,,,,,,,,,,,,,,,,,,
,,,,,,6081bf53d3c45fe4c8fd3ea3,62c538b636daf98b3ef3eecb,2022-07-06_09h04.10.279,Colour_Asymmetry_Pilot,2022.1.3,Win32,60.04924038,62c50e9c1127f2cd403a315f,0,58,58,120,1,onetwo,,,,,,,,,,,,,,,,,,,,,,,,,,,,,,,,,,,,,,,,,,,,,,,,,,,,,,,,,,,,,,,,,,,,,,,,,,,,,,,,,,,,,,,,,,,,,,,,,,,,,,,,,,,,,,,,,,,,,,,,,,,,,,,,,,,,,,,,,,,,,,,,,,,,,,,,,,,,
,,,,,,6081bf53d3c45fe4c8fd3ea3,62c538b636daf98b3ef3eecb,2022-07-06_09h04.10.279,Colour_Asymmetry_Pilot,2022.1.3,Win32,60.04924038,62c50e9c1127f2cd403a315f,0,59,59,22,1,fourtwo,,,,,,,,,,,,,,,,,,,,,,,,,,,,,,,,,,,,,,,,,,,,,,,,,,,,,,,,,,,,,,,,,,,,,,,,,,,,,,,,,,,,,,,,,,,,,,,,,,,,,,,,,,,,,,,,,,,,,,,,,,,,,,,,,,,,,,,,,,,,,,,,,,,,,,,,,,,,
,,,,,,6081bf53d3c45fe4c8fd3ea3,62c538b636daf98b3ef3eecb,2022-07-06_09h04.10.279,Colour_Asymmetry_Pilot,2022.1.3,Win32,60.04924038,62c50e9c1127f2cd403a315f,0,60,60,148,1,threeone,,,,,,,,,,,,,,,,,,,,,,,,,,,,,,,,,,,,,,,,,,,,,,,,,,,,,,,,,,,,,,,,,,,,,,,,,,,,,,,,,,,,,,,,,,,,,,,,,,,,,,,,,,,,,,,,,,,,,,,,,,,,,,,,,,,,,,,,,,,,,,,,,,,,,,,,,,,,
,,,,,,6081bf53d3c45fe4c8fd3ea3,62c538b636daf98b3ef3eecb,2022-07-06_09h04.10.279,Colour_Asymmetry_Pilot,2022.1.3,Win32,60.04924038,62c50e9c1127f2cd403a315f,0,61,61,35,1,twofour,,,,,,,,,,,,,,,,,,,,,,,,,,,,,,,,,,,,,,,,,,,,,,,,,,,,,,,,,,,,,,,,,,,,,,,,,,,,,,,,,,,,,,,,,,,,,,,,,,,,,,,,,,,,,,,,,,,,,,,,,,,,,,,,,,,,,,,,,,,,,,,,,,,,,,,,,,,,
,,,,,,6081bf53d3c45fe4c8fd3ea3,62c538b636daf98b3ef3eecb,2022-07-06_09h04.10.279,Colour_Asymmetry_Pilot,2022.1.3,Win32,60.04924038,62c50e9c1127f2cd403a315f,0,62,62,87,1,fourthree,,,,,,,,,,,,,,,,,,,,,,,,,,,,,,,,,,,,,,,,,,,,,,,,,,,,,,,,,,,,,,,,,,,,,,,,,,,,,,,,,,,,,,,,,,,,,,,,,,,,,,,,,,,,,,,,,,,,,,,,,,,,,,,,,,,,,,,,,,,,,,,,,,,,,,,,,,,,
,,,,,,6081bf53d3c45fe4c8fd3ea3,62c538b636daf98b3ef3eecb,2022-07-06_09h04.10.279,Colour_Asymmetry_Pilot,2022.1.3,Win32,60.04924038,62c50e9c1127f2cd403a315f,0,63,63,59,1,twofour,,,,,,,,,,,,,,,,,,,,,,,,,,,,,,,,,,,,,,,,,,,,,,,,,,,,,,,,,,,,,,,,,,,,,,,,,,,,,,,,,,,,,,,,,,,,,,,,,,,,,,,,,,,,,,,,,,,,,,,,,,,,,,,,,,,,,,,,,,,,,,,,,,,,,,,,,,,,
,,,,,,6081bf53d3c45fe4c8fd3ea3,62c538b636daf98b3ef3eecb,2022-07-06_09h04.10.279,Colour_Asymmetry_Pilot,2022.1.3,Win32,60.04924038,62c50e9c1127f2cd403a315f,0,64,64,127,1,fourthree,,,,,,,,,,,,,,,,,,,,,,,,,,,,,,,,,,,,,,,,,,,,,,,,,,,,,,,,,,,,,,,,,,,,,,,,,,,,,,,,,,,,,,,,,,,,,,,,,,,,,,,,,,,,,,,,,,,,,,,,,,,,,,,,,,,,,,,,,,,,,,,,,,,,,,,,,,,,
,,,,,,6081bf53d3c45fe4c8fd3ea3,62c538b636daf98b3ef3eecb,2022-07-06_09h04.10.279,Colour_Asymmetry_Pilot,2022.1.3,Win32,60.04924038,62c50e9c1127f2cd403a315f,0,65,65,26,1,twoone,,,,,,,,,,,,,,,,,,,,,,,,,,,,,,,,,,,,,,,,,,,,,,,,,,,,,,,,,,,,,,,,,,,,,,,,,,,,,,,,,,,,,,,,,,,,,,,,,,,,,,,,,,,,,,,,,,,,,,,,,,,,,,,,,,,,,,,,,,,,,,,,,,,,,,,,,,,,
,,,,,,6081bf53d3c45fe4c8fd3ea3,62c538b636daf98b3ef3eecb,2022-07-06_09h04.10.279,Colour_Asymmetry_Pilot,2022.1.3,Win32,60.04924038,62c50e9c1127f2cd403a315f,0,66,66,27,1,twofour,,,,,,,,,,,,,,,,,,,,,,,,,,,,,,,,,,,,,,,,,,,,,,,,,,,,,,,,,,,,,,,,,,,,,,,,,,,,,,,,,,,,,,,,,,,,,,,,,,,,,,,,,,,,,,,,,,,,,,,,,,,,,,,,,,,,,,,,,,,,,,,,,,,,,,,,,,,,
,,,,,,6081bf53d3c45fe4c8fd3ea3,62c538b636daf98b3ef3eecb,2022-07-06_09h04.10.279,Colour_Asymmetry_Pilot,2022.1.3,Win32,60.04924038,62c50e9c1127f2cd403a315f,0,67,67,5,1,threefour,,,,,,,,,,,,,,,,,,,,,,,,,,,,,,,,,,,,,,,,,,,,,,,,,,,,,,,,,,,,,,,,,,,,,,,,,,,,,,,,,,,,,,,,,,,,,,,,,,,,,,,,,,,,,,,,,,,,,,,,,,,,,,,,,,,,,,,,,,,,,,,,,,,,,,,,,,,,
,,,,,,6081bf53d3c45fe4c8fd3ea3,62c538b636daf98b3ef3eecb,2022-07-06_09h04.10.279,Colour_Asymmetry_Pilot,2022.1.3,Win32,60.04924038,62c50e9c1127f2cd403a315f,0,68,68,58,1,twoone,,,,,,,,,,,,,,,,,,,,,,,,,,,,,,,,,,,,,,,,,,,,,,,,,,,,,,,,,,,,,,,,,,,,,,,,,,,,,,,,,,,,,,,,,,,,,,,,,,,,,,,,,,,,,,,,,,,,,,,,,,,,,,,,,,,,,,,,,,,,,,,,,,,,,,,,,,,,
,,,,,,6081bf53d3c45fe4c8fd3ea3,62c538b636daf98b3ef3eecb,2022-07-06_09h04.10.279,Colour_Asymmetry_Pilot,2022.1.3,Win32,60.04924038,62c50e9c1127f2cd403a315f,0,69,69,134,1,fourtwo,,,,,,,,,,,,,,,,,,,,,,,,,,,,,,,,,,,,,,,,,,,,,,,,,,,,,,,,,,,,,,,,,,,,,,,,,,,,,,,,,,,,,,,,,,,,,,,,,,,,,,,,,,,,,,,,,,,,,,,,,,,,,,,,,,,,,,,,,,,,,,,,,,,,,,,,,,,,
,,,,,,6081bf53d3c45fe4c8fd3ea3,62c538b636daf98b3ef3eecb,2022-07-06_09h04.10.279,Colour_Asymmetry_Pilot,2022.1.3,Win32,60.04924038,62c50e9c1127f2cd403a315f,0,70,70,20,1,threeone,,,,,,,,,,,,,,,,,,,,,,,,,,,,,,,,,,,,,,,,,,,,,,,,,,,,,,,,,,,,,,,,,,,,,,,,,,,,,,,,,,,,,,,,,,,,,,,,,,,,,,,,,,,,,,,,,,,,,,,,,,,,,,,,,,,,,,,,,,,,,,,,,,,,,,,,,,,,
,,,,,,6081bf53d3c45fe4c8fd3ea3,62c538b636daf98b3ef3eecb,2022-07-06_09h04.10.279,Colour_Asymmetry_Pilot,2022.1.3,Win32,60.04924038,62c50e9c1127f2cd403a315f,0,71,71,150,1,fourtwo,,,,,,,,,,,,,,,,,,,,,,,,,,,,,,,,,,,,,,,,,,,,,,,,,,,,,,,,,,,,,,,,,,,,,,,,,,,,,,,,,,,,,,,,,,,,,,,,,,,,,,,,,,,,,,,,,,,,,,,,,,,,,,,,,,,,,,,,,,,,,,,,,,,,,,,,,,,,
,,,,,,6081bf53d3c45fe4c8fd3ea3,62c538b636daf98b3ef3eecb,2022-07-06_09h04.10.279,Colour_Asymmetry_Pilot,2022.1.3,Win32,60.04924038,62c50e9c1127f2cd403a315f,0,72,72,84,1,threeone,,,,,,,,,,,,,,,,,,,,,,,,,,,,,,,,,,,,,,,,,,,,,,,,,,,,,,,,,,,,,,,,,,,,,,,,,,,,,,,,,,,,,,,,,,,,,,,,,,,,,,,,,,,,,,,,,,,,,,,,,,,,,,,,,,,,,,,,,,,,,,,,,,,,,,,,,,,,
,,,,,,6081bf53d3c45fe4c8fd3ea3,62c538b636daf98b3ef3eecb,2022-07-06_09h04.10.279,Colour_Asymmetry_Pilot,2022.1.3,Win32,60.04924038,62c50e9c1127f2cd403a315f,0,73,73,104,1,onetwo,,,,,,,,,,,,,,,,,,,,,,,,,,,,,,,,,,,,,,,,,,,,,,,,,,,,,,,,,,,,,,,,,,,,,,,,,,,,,,,,,,,,,,,,,,,,,,,,,,,,,,,,,,,,,,,,,,,,,,,,,,,,,,,,,,,,,,,,,,,,,,,,,,,,,,,,,,,,
,,,,,,6081bf53d3c45fe4c8fd3ea3,62c538b636daf98b3ef3eecb,2022-07-06_09h04.10.279,Colour_Asymmetry_Pilot,2022.1.3,Win32,60.04924038,62c50e9c1127f2cd403a315f,0,74,74,119,1,fourthree,,,,,,,,,,,,,,,,,,,,,,,,,,,,,,,,,,,,,,,,,,,,,,,,,,,,,,,,,,,,,,,,,,,,,,,,,,,,,,,,,,,,,,,,,,,,,,,,,,,,,,,,,,,,,,,,,,,,,,,,,,,,,,,,,,,,,,,,,,,,,,,,,,,,,,,,,,,,
,,,,,,6081bf53d3c45fe4c8fd3ea3,62c538b636daf98b3ef3eecb,2022-07-06_09h04.10.279,Colour_Asymmetry_Pilot,2022.1.3,Win32,60.04924038,62c50e9c1127f2cd403a315f,0,75,75,4,1,threeone,,,,,,,,,,,,,,,,,,,,,,,,,,,,,,,,,,,,,,,,,,,,,,,,,,,,,,,,,,,,,,,,,,,,,,,,,,,,,,,,,,,,,,,,,,,,,,,,,,,,,,,,,,,,,,,,,,,,,,,,,,,,,,,,,,,,,,,,,,,,,,,,,,,,,,,,,,,,
,,,,,,6081bf53d3c45fe4c8fd3ea3,62c538b636daf98b3ef3eecb,2022-07-06_09h04.10.279,Colour_Asymmetry_Pilot,2022.1.3,Win32,60.04924038,62c50e9c1127f2cd403a315f,0,76,76,108,1,threeone,,,,,,,,,,,,,,,,,,,,,,,,,,,,,,,,,,,,,,,,,,,,,,,,,,,,,,,,,,,,,,,,,,,,,,,,,,,,,,,,,,,,,,,,,,,,,,,,,,,,,,,,,,,,,,,,,,,,,,,,,,,,,,,,,,,,,,,,,,,,,,,,,,,,,,,,,,,,
,,,,,,6081bf53d3c45fe4c8fd3ea3,62c538b636daf98b3ef3eecb,2022-07-06_09h04.10.279,Colour_Asymmetry_Pilot,2022.1.3,Win32,60.04924038,62c50e9c1127f2cd403a315f,0,77,77,37,1,threefour,,,,,,,,,,,,,,,,,,,,,,,,,,,,,,,,,,,,,,,,,,,,,,,,,,,,,,,,,,,,,,,,,,,,,,,,,,,,,,,,,,,,,,,,,,,,,,,,,,,,,,,,,,,,,,,,,,,,,,,,,,,,,,,,,,,,,,,,,,,,,,,,,,,,,,,,,,,,
,,,,,,6081bf53d3c45fe4c8fd3ea3,62c538b636daf98b3ef3eecb,2022-07-06_09h04.10.279,Colour_Asymmetry_Pilot,2022.1.3,Win32,60.04924038,62c50e9c1127f2cd403a315f,0,78,78,39,1,fourthree,,,,,,,,,,,,,,,,,,,,,,,,,,,,,,,,,,,,,,,,,,,,,,,,,,,,,,,,,,,,,,,,,,,,,,,,,,,,,,,,,,,,,,,,,,,,,,,,,,,,,,,,,,,,,,,,,,,,,,,,,,,,,,,,,,,,,,,,,,,,,,,,,,,,,,,,,,,,
,,,,,,6081bf53d3c45fe4c8fd3ea3,62c538b636daf98b3ef3eecb,2022-07-06_09h04.10.279,Colour_Asymmetry_Pilot,2022.1.3,Win32,60.04924038,62c50e9c1127f2cd403a315f,0,79,79,137,1,onethree,,,,,,,,,,,,,,,,,,,,,,,,,,,,,,,,,,,,,,,,,,,,,,,,,,,,,,,,,,,,,,,,,,,,,,,,,,,,,,,,,,,,,,,,,,,,,,,,,,,,,,,,,,,,,,,,,,,,,,,,,,,,,,,,,,,,,,,,,,,,,,,,,,,,,,,,,,,,
,,,,,,6081bf53d3c45fe4c8fd3ea3,62c538b636daf98b3ef3eecb,2022-07-06_09h04.10.279,Colour_Asymmetry_Pilot,2022.1.3,Win32,60.04924038,62c50e9c1127f2cd403a315f,0,80,80,53,1,threefour,,,,,,,,,,,,,,,,,,,,,,,,,,,,,,,,,,,,,,,,,,,,,,,,,,,,,,,,,,,,,,,,,,,,,,,,,,,,,,,,,,,,,,,,,,,,,,,,,,,,,,,,,,,,,,,,,,,,,,,,,,,,,,,,,,,,,,,,,,,,,,,,,,,,,,,,,,,,
,,,,,,6081bf53d3c45fe4c8fd3ea3,62c538b636daf98b3ef3eecb,2022-07-06_09h04.10.279,Colour_Asymmetry_Pilot,2022.1.3,Win32,60.04924038,62c50e9c1127f2cd403a315f,0,81,81,7,1,fourthree,,,,,,,,,,,,,,,,,,,,,,,,,,,,,,,,,,,,,,,,,,,,,,,,,,,,,,,,,,,,,,,,,,,,,,,,,,,,,,,,,,,,,,,,,,,,,,,,,,,,,,,,,,,,,,,,,,,,,,,,,,,,,,,,,,,,,,,,,,,,,,,,,,,,,,,,,,,,
,,,,,,6081bf53d3c45fe4c8fd3ea3,62c538b636daf98b3ef3eecb,2022-07-06_09h04.10.279,Colour_Asymmetry_Pilot,2022.1.3,Win32,60.04924038,62c50e9c1127f2cd403a315f,0,82,82,144,1,onetwo,,,,,,,,,,,,,,,,,,,,,,,,,,,,,,,,,,,,,,,,,,,,,,,,,,,,,,,,,,,,,,,,,,,,,,,,,,,,,,,,,,,,,,,,,,,,,,,,,,,,,,,,,,,,,,,,,,,,,,,,,,,,,,,,,,,,,,,,,,,,,,,,,,,,,,,,,,,,
,,,,,,6081bf53d3c45fe4c8fd3ea3,62c538b636daf98b3ef3eecb,2022-07-06_09h04.10.279,Colour_Asymmetry_Pilot,2022.1.3,Win32,60.04924038,62c50e9c1127f2cd403a315f,0,83,83,51,1,twofour,,,,,,,,,,,,,,,,,,,,,,,,,,,,,,,,,,,,,,,,,,,,,,,,,,,,,,,,,,,,,,,,,,,,,,,,,,,,,,,,,,,,,,,,,,,,,,,,,,,,,,,,,,,,,,,,,,,,,,,,,,,,,,,,,,,,,,,,,,,,,,,,,,,,,,,,,,,,
,,,,,,6081bf53d3c45fe4c8fd3ea3,62c538b636daf98b3ef3eecb,2022-07-06_09h04.10.279,Colour_Asymmetry_Pilot,2022.1.3,Win32,60.04924038,62c50e9c1127f2cd403a315f,0,84,84,55,1,fourthree,,,,,,,,,,,,,,,,,,,,,,,,,,,,,,,,,,,,,,,,,,,,,,,,,,,,,,,,,,,,,,,,,,,,,,,,,,,,,,,,,,,,,,,,,,,,,,,,,,,,,,,,,,,,,,,,,,,,,,,,,,,,,,,,,,,,,,,,,,,,,,,,,,,,,,,,,,,,
,,,,,,6081bf53d3c45fe4c8fd3ea3,62c538b636daf98b3ef3eecb,2022-07-06_09h04.10.279,Colour_Asymmetry_Pilot,2022.1.3,Win32,60.04924038,62c50e9c1127f2cd403a315f,0,85,85,49,1,onethree,,,,,,,,,,,,,,,,,,,,,,,,,,,,,,,,,,,,,,,,,,,,,,,,,,,,,,,,,,,,,,,,,,,,,,,,,,,,,,,,,,,,,,,,,,,,,,,,,,,,,,,,,,,,,,,,,,,,,,,,,,,,,,,,,,,,,,,,,,,,,,,,,,,,,,,,,,,,
,,,,,,6081bf53d3c45fe4c8fd3ea3,62c538b636daf98b3ef3eecb,2022-07-06_09h04.10.279,Colour_Asymmetry_Pilot,2022.1.3,Win32,60.04924038,62c50e9c1127f2cd403a315f,0,86,86,118,1,fourtwo,,,,,,,,,,,,,,,,,,,,,,,,,,,,,,,,,,,,,,,,,,,,,,,,,,,,,,,,,,,,,,,,,,,,,,,,,,,,,,,,,,,,,,,,,,,,,,,,,,,,,,,,,,,,,,,,,,,,,,,,,,,,,,,,,,,,,,,,,,,,,,,,,,,,,,,,,,,,
,,,,,,6081bf53d3c45fe4c8fd3ea3,62c538b636daf98b3ef3eecb,2022-07-06_09h04.10.279,Colour_Asymmetry_Pilot,2022.1.3,Win32,60.04924038,62c50e9c1127f2cd403a315f,0,87,87,135,1,fourthree,,,,,,,,,,,,,,,,,,,,,,,,,,,,,,,,,,,,,,,,,,,,,,,,,,,,,,,,,,,,,,,,,,,,,,,,,,,,,,,,,,,,,,,,,,,,,,,,,,,,,,,,,,,,,,,,,,,,,,,,,,,,,,,,,,,,,,,,,,,,,,,,,,,,,,,,,,,,
,,,,,,6081bf53d3c45fe4c8fd3ea3,62c538b636daf98b3ef3eecb,2022-07-06_09h04.10.279,Colour_Asymmetry_Pilot,2022.1.3,Win32,60.04924038,62c50e9c1127f2cd403a315f,0,88,88,140,1,threeone,,,,,,,,,,,,,,,,,,,,,,,,,,,,,,,,,,,,,,,,,,,,,,,,,,,,,,,,,,,,,,,,,,,,,,,,,,,,,,,,,,,,,,,,,,,,,,,,,,,,,,,,,,,,,,,,,,,,,,,,,,,,,,,,,,,,,,,,,,,,,,,,,,,,,,,,,,,,
,,,,,,6081bf53d3c45fe4c8fd3ea3,62c538b636daf98b3ef3eecb,2022-07-06_09h04.10.279,Colour_Asymmetry_Pilot,2022.1.3,Win32,60.04924038,62c50e9c1127f2cd403a315f,0,89,89,2,1,twoone,,,,,,,,,,,,,,,,,,,,,,,,,,,,,,,,,,,,,,,,,,,,,,,,,,,,,,,,,,,,,,,,,,,,,,,,,,,,,,,,,,,,,,,,,,,,,,,,,,,,,,,,,,,,,,,,,,,,,,,,,,,,,,,,,,,,,,,,,,,,,,,,,,,,,,,,,,,,
,,,,,,6081bf53d3c45fe4c8fd3ea3,62c538b636daf98b3ef3eecb,2022-07-06_09h04.10.279,Colour_Asymmetry_Pilot,2022.1.3,Win32,60.04924038,62c50e9c1127f2cd403a315f,0,90,90,141,1,threefour,,,,,,,,,,,,,,,,,,,,,,,,,,,,,,,,,,,,,,,,,,,,,,,,,,,,,,,,,,,,,,,,,,,,,,,,,,,,,,,,,,,,,,,,,,,,,,,,,,,,,,,,,,,,,,,,,,,,,,,,,,,,,,,,,,,,,,,,,,,,,,,,,,,,,,,,,,,,
,,,,,,6081bf53d3c45fe4c8fd3ea3,62c538b636daf98b3ef3eecb,2022-07-06_09h04.10.279,Colour_Asymmetry_Pilot,2022.1.3,Win32,60.04924038,62c50e9c1127f2cd403a315f,0,91,91,142,1,fourtwo,,,,,,,,,,,,,,,,,,,,,,,,,,,,,,,,,,,,,,,,,,,,,,,,,,,,,,,,,,,,,,,,,,,,,,,,,,,,,,,,,,,,,,,,,,,,,,,,,,,,,,,,,,,,,,,,,,,,,,,,,,,,,,,,,,,,,,,,,,,,,,,,,,,,,,,,,,,,
,,,,,,6081bf53d3c45fe4c8fd3ea3,62c538b636daf98b3ef3eecb,2022-07-06_09h04.10.279,Colour_Asymmetry_Pilot,2022.1.3,Win32,60.04924038,62c50e9c1127f2cd403a315f,0,92,92,107,1,twofour,,,,,,,,,,,,,,,,,,,,,,,,,,,,,,,,,,,,,,,,,,,,,,,,,,,,,,,,,,,,,,,,,,,,,,,,,,,,,,,,,,,,,,,,,,,,,,,,,,,,,,,,,,,,,,,,,,,,,,,,,,,,,,,,,,,,,,,,,,,,,,,,,,,,,,,,,,,,
,,,,,,6081bf53d3c45fe4c8fd3ea3,62c538b636daf98b3ef3eecb,2022-07-06_09h04.10.279,Colour_Asymmetry_Pilot,2022.1.3,Win32,60.04924038,62c50e9c1127f2cd403a315f,0,93,93,75,1,twofour,,,,,,,,,,,,,,,,,,,,,,,,,,,,,,,,,,,,,,,,,,,,,,,,,,,,,,,,,,,,,,,,,,,,,,,,,,,,,,,,,,,,,,,,,,,,,,,,,,,,,,,,,,,,,,,,,,,,,,,,,,,,,,,,,,,,,,,,,,,,,,,,,,,,,,,,,,,,
,,,,,,6081bf53d3c45fe4c8fd3ea3,62c538b636daf98b3ef3eecb,2022-07-06_09h04.10.279,Colour_Asymmetry_Pilot,2022.1.3,Win32,60.04924038,62c50e9c1127f2cd403a315f,0,94,94,124,1,threeone,,,,,,,,,,,,,,,,,,,,,,,,,,,,,,,,,,,,,,,,,,,,,,,,,,,,,,,,,,,,,,,,,,,,,,,,,,,,,,,,,,,,,,,,,,,,,,,,,,,,,,,,,,,,,,,,,,,,,,,,,,,,,,,,,,,,,,,,,,,,,,,,,,,,,,,,,,,,
,,,,,,6081bf53d3c45fe4c8fd3ea3,62c538b636daf98b3ef3eecb,2022-07-06_09h04.10.279,Colour_Asymmetry_Pilot,2022.1.3,Win32,60.04924038,62c50e9c1127f2cd403a315f,0,95,95,153,1,onethree,,,,,,,,,,,,,,,,,,,,,,,,,,,,,,,,,,,,,,,,,,,,,,,,,,,,,,,,,,,,,,,,,,,,,,,,,,,,,,,,,,,,,,,,,,,,,,,,,,,,,,,,,,,,,,,,,,,,,,,,,,,,,,,,,,,,,,,,,,,,,,,,,,,,,,,,,,,,
,,,,,,6081bf53d3c45fe4c8fd3ea3,62c538b636daf98b3ef3eecb,2022-07-06_09h04.10.279,Colour_Asymmetry_Pilot,2022.1.3,Win32,60.04924038,62c50e9c1127f2cd403a315f,0,96,96,0,1,onetwo,,,,,,,,,,,,,,,,,,,,,,,,,,,,,,,,,,,,,,,,,,,,,,,,,,,,,,,,,,,,,,,,,,,,,,,,,,,,,,,,,,,,,,,,,,,,,,,,,,,,,,,,,,,,,,,,,,,,,,,,,,,,,,,,,,,,,,,,,,,,,,,,,,,,,,,,,,,,
,,,,,,6081bf53d3c45fe4c8fd3ea3,62c538b636daf98b3ef3eecb,2022-07-06_09h04.10.279,Colour_Asymmetry_Pilot,2022.1.3,Win32,60.04924038,62c50e9c1127f2cd403a315f,0,97,97,18,1,twoone,,,,,,,,,,,,,,,,,,,,,,,,,,,,,,,,,,,,,,,,,,,,,,,,,,,,,,,,,,,,,,,,,,,,,,,,,,,,,,,,,,,,,,,,,,,,,,,,,,,,,,,,,,,,,,,,,,,,,,,,,,,,,,,,,,,,,,,,,,,,,,,,,,,,,,,,,,,,
,,,,,,6081bf53d3c45fe4c8fd3ea3,62c538b636daf98b3ef3eecb,2022-07-06_09h04.10.279,Colour_Asymmetry_Pilot,2022.1.3,Win32,60.04924038,62c50e9c1127f2cd403a315f,0,98,98,24,1,onetwo,,,,,,,,,,,,,,,,,,,,,,,,,,,,,,,,,,,,,,,,,,,,,,,,,,,,,,,,,,,,,,,,,,,,,,,,,,,,,,,,,,,,,,,,,,,,,,,,,,,,,,,,,,,,,,,,,,,,,,,,,,,,,,,,,,,,,,,,,,,,,,,,,,,,,,,,,,,,
,,,,,,6081bf53d3c45fe4c8fd3ea3,62c538b636daf98b3ef3eecb,2022-07-06_09h04.10.279,Colour_Asymmetry_Pilot,2022.1.3,Win32,60.04924038,62c50e9c1127f2cd403a315f,0,99,99,82,1,twoone,,,,,,,,,,,,,,,,,,,,,,,,,,,,,,,,,,,,,,,,,,,,,,,,,,,,,,,,,,,,,,,,,,,,,,,,,,,,,,,,,,,,,,,,,,,,,,,,,,,,,,,,,,,,,,,,,,,,,,,,,,,,,,,,,,,,,,,,,,,,,,,,,,,,,,,,,,,,
,,,,,,6081bf53d3c45fe4c8fd3ea3,62c538b636daf98b3ef3eecb,2022-07-06_09h04.10.279,Colour_Asymmetry_Pilot,2022.1.3,Win32,60.04924038,62c50e9c1127f2cd403a315f,0,100,100,111,1,fourthree,,,,,,,,,,,,,,,,,,,,,,,,,,,,,,,,,,,,,,,,,,,,,,,,,,,,,,,,,,,,,,,,,,,,,,,,,,,,,,,,,,,,,,,,,,,,,,,,,,,,,,,,,,,,,,,,,,,,,,,,,,,,,,,,,,,,,,,,,,,,,,,,,,,,,,,,,,,,
,,,,,,6081bf53d3c45fe4c8fd3ea3,62c538b636daf98b3ef3eecb,2022-07-06_09h04.10.279,Colour_Asymmetry_Pilot,2022.1.3,Win32,60.04924038,62c50e9c1127f2cd403a315f,0,101,101,12,1,threeone,,,,,,,,,,,,,,,,,,,,,,,,,,,,,,,,,,,,,,,,,,,,,,,,,,,,,,,,,,,,,,,,,,,,,,,,,,,,,,,,,,,,,,,,,,,,,,,,,,,,,,,,,,,,,,,,,,,,,,,,,,,,,,,,,,,,,,,,,,,,,,,,,,,,,,,,,,,,
,,,,,,6081bf53d3c45fe4c8fd3ea3,62c538b636daf98b3ef3eecb,2022-07-06_09h04.10.279,Colour_Asymmetry_Pilot,2022.1.3,Win32,60.04924038,62c50e9c1127f2cd403a315f,0,102,102,8,1,onetwo,,,,,,,,,,,,,,,,,,,,,,,,,,,,,,,,,,,,,,,,,,,,,,,,,,,,,,,,,,,,,,,,,,,,,,,,,,,,,,,,,,,,,,,,,,,,,,,,,,,,,,,,,,,,,,,,,,,,,,,,,,,,,,,,,,,,,,,,,,,,,,,,,,,,,,,,,,,,
,,,,,,6081bf53d3c45fe4c8fd3ea3,62c538b636daf98b3ef3eecb,2022-07-06_09h04.10.279,Colour_Asymmetry_Pilot,2022.1.3,Win32,60.04924038,62c50e9c1127f2cd403a315f,0,103,103,25,1,onethree,,,,,,,,,,,,,,,,,,,,,,,,,,,,,,,,,,,,,,,,,,,,,,,,,,,,,,,,,,,,,,,,,,,,,,,,,,,,,,,,,,,,,,,,,,,,,,,,,,,,,,,,,,,,,,,,,,,,,,,,,,,,,,,,,,,,,,,,,,,,,,,,,,,,,,,,,,,,
,,,,,,6081bf53d3c45fe4c8fd3ea3,62c538b636daf98b3ef3eecb,2022-07-06_09h04.10.279,Colour_Asymmetry_Pilot,2022.1.3,Win32,60.04924038,62c50e9c1127f2cd403a315f,0,104,104,66,1,twoone,,,,,,,,,,,,,,,,,,,,,,,,,,,,,,,,,,,,,,,,,,,,,,,,,,,,,,,,,,,,,,,,,,,,,,,,,,,,,,,,,,,,,,,,,,,,,,,,,,,,,,,,,,,,,,,,,,,,,,,,,,,,,,,,,,,,,,,,,,,,,,,,,,,,,,,,,,,,
,,,,,,6081bf53d3c45fe4c8fd3ea3,62c538b636daf98b3ef3eecb,2022-07-06_09h04.10.279,Colour_Asymmetry_Pilot,2022.1.3,Win32,60.04924038,62c50e9c1127f2cd403a315f,0,105,105,155,1,twofour,,,,,,,,,,,,,,,,,,,,,,,,,,,,,,,,,,,,,,,,,,,,,,,,,,,,,,,,,,,,,,,,,,,,,,,,,,,,,,,,,,,,,,,,,,,,,,,,,,,,,,,,,,,,,,,,,,,,,,,,,,,,,,,,,,,,,,,,,,,,,,,,,,,,,,,,,,,,
,,,,,,6081bf53d3c45fe4c8fd3ea3,62c538b636daf98b3ef3eecb,2022-07-06_09h04.10.279,Colour_Asymmetry_Pilot,2022.1.3,Win32,60.04924038,62c50e9c1127f2cd403a315f,0,106,106,3,1,twofour,,,,,,,,,,,,,,,,,,,,,,,,,,,,,,,,,,,,,,,,,,,,,,,,,,,,,,,,,,,,,,,,,,,,,,,,,,,,,,,,,,,,,,,,,,,,,,,,,,,,,,,,,,,,,,,,,,,,,,,,,,,,,,,,,,,,,,,,,,,,,,,,,,,,,,,,,,,,
,,,,,,6081bf53d3c45fe4c8fd3ea3,62c538b636daf98b3ef3eecb,2022-07-06_09h04.10.279,Colour_Asymmetry_Pilot,2022.1.3,Win32,60.04924038,62c50e9c1127f2cd403a315f,0,107,107,42,1,twoone,,,,,,,,,,,,,,,,,,,,,,,,,,,,,,,,,,,,,,,,,,,,,,,,,,,,,,,,,,,,,,,,,,,,,,,,,,,,,,,,,,,,,,,,,,,,,,,,,,,,,,,,,,,,,,,,,,,,,,,,,,,,,,,,,,,,,,,,,,,,,,,,,,,,,,,,,,,,
,,,,,,6081bf53d3c45fe4c8fd3ea3,62c538b636daf98b3ef3eecb,2022-07-06_09h04.10.279,Colour_Asymmetry_Pilot,2022.1.3,Win32,60.04924038,62c50e9c1127f2cd403a315f,0,108,108,76,1,threeone,,,,,,,,,,,,,,,,,,,,,,,,,,,,,,,,,,,,,,,,,,,,,,,,,,,,,,,,,,,,,,,,,,,,,,,,,,,,,,,,,,,,,,,,,,,,,,,,,,,,,,,,,,,,,,,,,,,,,,,,,,,,,,,,,,,,,,,,,,,,,,,,,,,,,,,,,,,,
,,,,,,6081bf53d3c45fe4c8fd3ea3,62c538b636daf98b3ef3eecb,2022-07-06_09h04.10.279,Colour_Asymmetry_Pilot,2022.1.3,Win32,60.04924038,62c50e9c1127f2cd403a315f,0,109,109,74,1,twoone,,,,,,,,,,,,,,,,,,,,,,,,,,,,,,,,,,,,,,,,,,,,,,,,,,,,,,,,,,,,,,,,,,,,,,,,,,,,,,,,,,,,,,,,,,,,,,,,,,,,,,,,,,,,,,,,,,,,,,,,,,,,,,,,,,,,,,,,,,,,,,,,,,,,,,,,,,,,
,,,,,,6081bf53d3c45fe4c8fd3ea3,62c538b636daf98b3ef3eecb,2022-07-06_09h04.10.279,Colour_Asymmetry_Pilot,2022.1.3,Win32,60.04924038,62c50e9c1127f2cd403a315f,0,110,110,114,1,twoone,,,,,,,,,,,,,,,,,,,,,,,,,,,,,,,,,,,,,,,,,,,,,,,,,,,,,,,,,,,,,,,,,,,,,,,,,,,,,,,,,,,,,,,,,,,,,,,,,,,,,,,,,,,,,,,,,,,,,,,,,,,,,,,,,,,,,,,,,,,,,,,,,,,,,,,,,,,,
,,,,,,6081bf53d3c45fe4c8fd3ea3,62c538b636daf98b3ef3eecb,2022-07-06_09h04.10.279,Colour_Asymmetry_Pilot,2022.1.3,Win32,60.04924038,62c50e9c1127f2cd403a315f,0,111,111,147,1,twofour,,,,,,,,,,,,,,,,,,,,,,,,,,,,,,,,,,,,,,,,,,,,,,,,,,,,,,,,,,,,,,,,,,,,,,,,,,,,,,,,,,,,,,,,,,,,,,,,,,,,,,,,,,,,,,,,,,,,,,,,,,,,,,,,,,,,,,,,,,,,,,,,,,,,,,,,,,,,
,,,,,,6081bf53d3c45fe4c8fd3ea3,62c538b636daf98b3ef3eecb,2022-07-06_09h04.10.279,Colour_Asymmetry_Pilot,2022.1.3,Win32,60.04924038,62c50e9c1127f2cd403a315f,0,112,112,154,1,twoone,,,,,,,,,,,,,,,,,,,,,,,,,,,,,,,,,,,,,,,,,,,,,,,,,,,,,,,,,,,,,,,,,,,,,,,,,,,,,,,,,,,,,,,,,,,,,,,,,,,,,,,,,,,,,,,,,,,,,,,,,,,,,,,,,,,,,,,,,,,,,,,,,,,,,,,,,,,,
,,,,,,6081bf53d3c45fe4c8fd3ea3,62c538b636daf98b3ef3eecb,2022-07-06_09h04.10.279,Colour_Asymmetry_Pilot,2022.1.3,Win32,60.04924038,62c50e9c1127f2cd403a315f,0,113,113,98,1,twoone,,,,,,,,,,,,,,,,,,,,,,,,,,,,,,,,,,,,,,,,,,,,,,,,,,,,,,,,,,,,,,,,,,,,,,,,,,,,,,,,,,,,,,,,,,,,,,,,,,,,,,,,,,,,,,,,,,,,,,,,,,,,,,,,,,,,,,,,,,,,,,,,,,,,,,,,,,,,
,,,,,,6081bf53d3c45fe4c8fd3ea3,62c538b636daf98b3ef3eecb,2022-07-06_09h04.10.279,Colour_Asymmetry_Pilot,2022.1.3,Win32,60.04924038,62c50e9c1127f2cd403a315f,0,114,114,152,1,onetwo,,,,,,,,,,,,,,,,,,,,,,,,,,,,,,,,,,,,,,,,,,,,,,,,,,,,,,,,,,,,,,,,,,,,,,,,,,,,,,,,,,,,,,,,,,,,,,,,,,,,,,,,,,,,,,,,,,,,,,,,,,,,,,,,,,,,,,,,,,,,,,,,,,,,,,,,,,,,
,,,,,,6081bf53d3c45fe4c8fd3ea3,62c538b636daf98b3ef3eecb,2022-07-06_09h04.10.279,Colour_Asymmetry_Pilot,2022.1.3,Win32,60.04924038,62c50e9c1127f2cd403a315f,0,115,115,43,1,twofour,,,,,,,,,,,,,,,,,,,,,,,,,,,,,,,,,,,,,,,,,,,,,,,,,,,,,,,,,,,,,,,,,,,,,,,,,,,,,,,,,,,,,,,,,,,,,,,,,,,,,,,,,,,,,,,,,,,,,,,,,,,,,,,,,,,,,,,,,,,,,,,,,,,,,,,,,,,,
,,,,,,6081bf53d3c45fe4c8fd3ea3,62c538b636daf98b3ef3eecb,2022-07-06_09h04.10.279,Colour_Asymmetry_Pilot,2022.1.3,Win32,60.04924038,62c50e9c1127f2cd403a315f,0,116,116,99,1,twofour,,,,,,,,,,,,,,,,,,,,,,,,,,,,,,,,,,,,,,,,,,,,,,,,,,,,,,,,,,,,,,,,,,,,,,,,,,,,,,,,,,,,,,,,,,,,,,,,,,,,,,,,,,,,,,,,,,,,,,,,,,,,,,,,,,,,,,,,,,,,,,,,,,,,,,,,,,,,
,,,,,,6081bf53d3c45fe4c8fd3ea3,62c538b636daf98b3ef3eecb,2022-07-06_09h04.10.279,Colour_Asymmetry_Pilot,2022.1.3,Win32,60.04924038,62c50e9c1127f2cd403a315f,0,117,117,78,1,fourtwo,,,,,,,,,,,,,,,,,,,,,,,,,,,,,,,,,,,,,,,,,,,,,,,,,,,,,,,,,,,,,,,,,,,,,,,,,,,,,,,,,,,,,,,,,,,,,,,,,,,,,,,,,,,,,,,,,,,,,,,,,,,,,,,,,,,,,,,,,,,,,,,,,,,,,,,,,,,,
,,,,,,6081bf53d3c45fe4c8fd3ea3,62c538b636daf98b3ef3eecb,2022-07-06_09h04.10.279,Colour_Asymmetry_Pilot,2022.1.3,Win32,60.04924038,62c50e9c1127f2cd403a315f,0,118,118,64,1,onetwo,,,,,,,,,,,,,,,,,,,,,,,,,,,,,,,,,,,,,,,,,,,,,,,,,,,,,,,,,,,,,,,,,,,,,,,,,,,,,,,,,,,,,,,,,,,,,,,,,,,,,,,,,,,,,,,,,,,,,,,,,,,,,,,,,,,,,,,,,,,,,,,,,,,,,,,,,,,,
,,,,,,6081bf53d3c45fe4c8fd3ea3,62c538b636daf98b3ef3eecb,2022-07-06_09h04.10.279,Colour_Asymmetry_Pilot,2022.1.3,Win32,60.04924038,62c50e9c1127f2cd403a315f,0,119,119,88,1,onetwo,,,,,,,,,,,,,,,,,,,,,,,,,,,,,,,,,,,,,,,,,,,,,,,,,,,,,,,,,,,,,,,,,,,,,,,,,,,,,,,,,,,,,,,,,,,,,,,,,,,,,,,,,,,,,,,,,,,,,,,,,,,,,,,,,,,,,,,,,,,,,,,,,,,,,,,,,,,,
,,,,,,6081bf53d3c45fe4c8fd3ea3,62c538b636daf98b3ef3eecb,2022-07-06_09h04.10.279,Colour_Asymmetry_Pilot,2022.1.3,Win32,60.04924038,62c50e9c1127f2cd403a315f,0,120,120,36,1,threeone,,,,,,,,,,,,,,,,,,,,,,,,,,,,,,,,,,,,,,,,,,,,,,,,,,,,,,,,,,,,,,,,,,,,,,,,,,,,,,,,,,,,,,,,,,,,,,,,,,,,,,,,,,,,,,,,,,,,,,,,,,,,,,,,,,,,,,,,,,,,,,,,,,,,,,,,,,,,
,,,,,,6081bf53d3c45fe4c8fd3ea3,62c538b636daf98b3ef3eecb,2022-07-06_09h04.10.279,Colour_Asymmetry_Pilot,2022.1.3,Win32,60.04924038,62c50e9c1127f2cd403a315f,0,121,121,73,1,onethree,,,,,,,,,,,,,,,,,,,,,,,,,,,,,,,,,,,,,,,,,,,,,,,,,,,,,,,,,,,,,,,,,,,,,,,,,,,,,,,,,,,,,,,,,,,,,,,,,,,,,,,,,,,,,,,,,,,,,,,,,,,,,,,,,,,,,,,,,,,,,,,,,,,,,,,,,,,,
,,,,,,6081bf53d3c45fe4c8fd3ea3,62c538b636daf98b3ef3eecb,2022-07-06_09h04.10.279,Colour_Asymmetry_Pilot,2022.1.3,Win32,60.04924038,62c50e9c1127f2cd403a315f,0,122,122,50,1,twoone,,,,,,,,,,,,,,,,,,,,,,,,,,,,,,,,,,,,,,,,,,,,,,,,,,,,,,,,,,,,,,,,,,,,,,,,,,,,,,,,,,,,,,,,,,,,,,,,,,,,,,,,,,,,,,,,,,,,,,,,,,,,,,,,,,,,,,,,,,,,,,,,,,,,,,,,,,,,
,,,,,,6081bf53d3c45fe4c8fd3ea3,62c538b636daf98b3ef3eecb,2022-07-06_09h04.10.279,Colour_Asymmetry_Pilot,2022.1.3,Win32,60.04924038,62c50e9c1127f2cd403a315f,0,123,123,125,1,threefour,,,,,,,,,,,,,,,,,,,,,,,,,,,,,,,,,,,,,,,,,,,,,,,,,,,,,,,,,,,,,,,,,,,,,,,,,,,,,,,,,,,,,,,,,,,,,,,,,,,,,,,,,,,,,,,,,,,,,,,,,,,,,,,,,,,,,,,,,,,,,,,,,,,,,,,,,,,,
,,,,,,6081bf53d3c45fe4c8fd3ea3,62c538b636daf98b3ef3eecb,2022-07-06_09h04.10.279,Colour_Asymmetry_Pilot,2022.1.3,Win32,60.04924038,62c50e9c1127f2cd403a315f,0,124,124,61,1,threefour,,,,,,,,,,,,,,,,,,,,,,,,,,,,,,,,,,,,,,,,,,,,,,,,,,,,,,,,,,,,,,,,,,,,,,,,,,,,,,,,,,,,,,,,,,,,,,,,,,,,,,,,,,,,,,,,,,,,,,,,,,,,,,,,,,,,,,,,,,,,,,,,,,,,,,,,,,,,
,,,,,,6081bf53d3c45fe4c8fd3ea3,62c538b636daf98b3ef3eecb,2022-07-06_09h04.10.279,Colour_Asymmetry_Pilot,2022.1.3,Win32,60.04924038,62c50e9c1127f2cd403a315f,0,125,125,65,1,onethree,,,,,,,,,,,,,,,,,,,,,,,,,,,,,,,,,,,,,,,,,,,,,,,,,,,,,,,,,,,,,,,,,,,,,,,,,,,,,,,,,,,,,,,,,,,,,,,,,,,,,,,,,,,,,,,,,,,,,,,,,,,,,,,,,,,,,,,,,,,,,,,,,,,,,,,,,,,,
,,,,,,6081bf53d3c45fe4c8fd3ea3,62c538b636daf98b3ef3eecb,2022-07-06_09h04.10.279,Colour_Asymmetry_Pilot,2022.1.3,Win32,60.04924038,62c50e9c1127f2cd403a315f,0,126,126,81,1,onethree,,,,,,,,,,,,,,,,,,,,,,,,,,,,,,,,,,,,,,,,,,,,,,,,,,,,,,,,,,,,,,,,,,,,,,,,,,,,,,,,,,,,,,,,,,,,,,,,,,,,,,,,,,,,,,,,,,,,,,,,,,,,,,,,,,,,,,,,,,,,,,,,,,,,,,,,,,,,
,,,,,,6081bf53d3c45fe4c8fd3ea3,62c538b636daf98b3ef3eecb,2022-07-06_09h04.10.279,Colour_Asymmetry_Pilot,2022.1.3,Win32,60.04924038,62c50e9c1127f2cd403a315f,0,127,127,121,1,onethree,,,,,,,,,,,,,,,,,,,,,,,,,,,,,,,,,,,,,,,,,,,,,,,,,,,,,,,,,,,,,,,,,,,,,,,,,,,,,,,,,,,,,,,,,,,,,,,,,,,,,,,,,,,,,,,,,,,,,,,,,,,,,,,,,,,,,,,,,,,,,,,,,,,,,,,,,,,,
,,,,,,6081bf53d3c45fe4c8fd3ea3,62c538b636daf98b3ef3eecb,2022-07-06_09h04.10.279,Colour_Asymmetry_Pilot,2022.1.3,Win32,60.04924038,62c50e9c1127f2cd403a315f,0,128,128,54,1,fourtwo,,,,,,,,,,,,,,,,,,,,,,,,,,,,,,,,,,,,,,,,,,,,,,,,,,,,,,,,,,,,,,,,,,,,,,,,,,,,,,,,,,,,,,,,,,,,,,,,,,,,,,,,,,,,,,,,,,,,,,,,,,,,,,,,,,,,,,,,,,,,,,,,,,,,,,,,,,,,
,,,,,,6081bf53d3c45fe4c8fd3ea3,62c538b636daf98b3ef3eecb,2022-07-06_09h04.10.279,Colour_Asymmetry_Pilot,2022.1.3,Win32,60.04924038,62c50e9c1127f2cd403a315f,0,129,129,29,1,threefour,,,,,,,,,,,,,,,,,,,,,,,,,,,,,,,,,,,,,,,,,,,,,,,,,,,,,,,,,,,,,,,,,,,,,,,,,,,,,,,,,,,,,,,,,,,,,,,,,,,,,,,,,,,,,,,,,,,,,,,,,,,,,,,,,,,,,,,,,,,,,,,,,,,,,,,,,,,,
,,,,,,6081bf53d3c45fe4c8fd3ea3,62c538b636daf98b3ef3eecb,2022-07-06_09h04.10.279,Colour_Asymmetry_Pilot,2022.1.3,Win32,60.04924038,62c50e9c1127f2cd403a315f,0,130,130,145,1,onethree,,,,,,,,,,,,,,,,,,,,,,,,,,,,,,,,,,,,,,,,,,,,,,,,,,,,,,,,,,,,,,,,,,,,,,,,,,,,,,,,,,,,,,,,,,,,,,,,,,,,,,,,,,,,,,,,,,,,,,,,,,,,,,,,,,,,,,,,,,,,,,,,,,,,,,,,,,,,
,,,,,,6081bf53d3c45fe4c8fd3ea3,62c538b636daf98b3ef3eecb,2022-07-06_09h04.10.279,Colour_Asymmetry_Pilot,2022.1.3,Win32,60.04924038,62c50e9c1127f2cd403a315f,0,131,131,72,1,onetwo,,,,,,,,,,,,,,,,,,,,,,,,,,,,,,,,,,,,,,,,,,,,,,,,,,,,,,,,,,,,,,,,,,,,,,,,,,,,,,,,,,,,,,,,,,,,,,,,,,,,,,,,,,,,,,,,,,,,,,,,,,,,,,,,,,,,,,,,,,,,,,,,,,,,,,,,,,,,
,,,,,,6081bf53d3c45fe4c8fd3ea3,62c538b636daf98b3ef3eecb,2022-07-06_09h04.10.279,Colour_Asymmetry_Pilot,2022.1.3,Win32,60.04924038,62c50e9c1127f2cd403a315f,0,132,132,56,1,onetwo,,,,,,,,,,,,,,,,,,,,,,,,,,,,,,,,,,,,,,,,,,,,,,,,,,,,,,,,,,,,,,,,,,,,,,,,,,,,,,,,,,,,,,,,,,,,,,,,,,,,,,,,,,,,,,,,,,,,,,,,,,,,,,,,,,,,,,,,,,,,,,,,,,,,,,,,,,,,
,,,,,,6081bf53d3c45fe4c8fd3ea3,62c538b636daf98b3ef3eecb,2022-07-06_09h04.10.279,Colour_Asymmetry_Pilot,2022.1.3,Win32,60.04924038,62c50e9c1127f2cd403a315f,0,133,133,109,1,threefour,,,,,,,,,,,,,,,,,,,,,,,,,,,,,,,,,,,,,,,,,,,,,,,,,,,,,,,,,,,,,,,,,,,,,,,,,,,,,,,,,,,,,,,,,,,,,,,,,,,,,,,,,,,,,,,,,,,,,,,,,,,,,,,,,,,,,,,,,,,,,,,,,,,,,,,,,,,,
,,,,,,6081bf53d3c45fe4c8fd3ea3,62c538b636daf98b3ef3eecb,2022-07-06_09h04.10.279,Colour_Asymmetry_Pilot,2022.1.3,Win32,60.04924038,62c50e9c1127f2cd403a315f,0,134,134,62,1,fourtwo,,,,,,,,,,,,,,,,,,,,,,,,,,,,,,,,,,,,,,,,,,,,,,,,,,,,,,,,,,,,,,,,,,,,,,,,,,,,,,,,,,,,,,,,,,,,,,,,,,,,,,,,,,,,,,,,,,,,,,,,,,,,,,,,,,,,,,,,,,,,,,,,,,,,,,,,,,,,
,,,,,,6081bf53d3c45fe4c8fd3ea3,62c538b636daf98b3ef3eecb,2022-07-06_09h04.10.279,Colour_Asymmetry_Pilot,2022.1.3,Win32,60.04924038,62c50e9c1127f2cd403a315f,0,135,135,48,1,onetwo,,,,,,,,,,,,,,,,,,,,,,,,,,,,,,,,,,,,,,,,,,,,,,,,,,,,,,,,,,,,,,,,,,,,,,,,,,,,,,,,,,,,,,,,,,,,,,,,,,,,,,,,,,,,,,,,,,,,,,,,,,,,,,,,,,,,,,,,,,,,,,,,,,,,,,,,,,,,
,,,,,,6081bf53d3c45fe4c8fd3ea3,62c538b636daf98b3ef3eecb,2022-07-06_09h04.10.279,Colour_Asymmetry_Pilot,2022.1.3,Win32,60.04924038,62c50e9c1127f2cd403a315f,0,136,136,23,1,fourthree,,,,,,,,,,,,,,,,,,,,,,,,,,,,,,,,,,,,,,,,,,,,,,,,,,,,,,,,,,,,,,,,,,,,,,,,,,,,,,,,,,,,,,,,,,,,,,,,,,,,,,,,,,,,,,,,,,,,,,,,,,,,,,,,,,,,,,,,,,,,,,,,,,,,,,,,,,,,
,,,,,,6081bf53d3c45fe4c8fd3ea3,62c538b636daf98b3ef3eecb,2022-07-06_09h04.10.279,Colour_Asymmetry_Pilot,2022.1.3,Win32,60.04924038,62c50e9c1127f2cd403a315f,0,137,137,40,1,onetwo,,,,,,,,,,,,,,,,,,,,,,,,,,,,,,,,,,,,,,,,,,,,,,,,,,,,,,,,,,,,,,,,,,,,,,,,,,,,,,,,,,,,,,,,,,,,,,,,,,,,,,,,,,,,,,,,,,,,,,,,,,,,,,,,,,,,,,,,,,,,,,,,,,,,,,,,,,,,
,,,,,,6081bf53d3c45fe4c8fd3ea3,62c538b636daf98b3ef3eecb,2022-07-06_09h04.10.279,Colour_Asymmetry_Pilot,2022.1.3,Win32,60.04924038,62c50e9c1127f2cd403a315f,0,138,138,16,1,onetwo,,,,,,,,,,,,,,,,,,,,,,,,,,,,,,,,,,,,,,,,,,,,,,,,,,,,,,,,,,,,,,,,,,,,,,,,,,,,,,,,,,,,,,,,,,,,,,,,,,,,,,,,,,,,,,,,,,,,,,,,,,,,,,,,,,,,,,,,,,,,,,,,,,,,,,,,,,,,
,,,,,,6081bf53d3c45fe4c8fd3ea3,62c538b636daf98b3ef3eecb,2022-07-06_09h04.10.279,Colour_Asymmetry_Pilot,2022.1.3,Win32,60.04924038,62c50e9c1127f2cd403a315f,0,139,139,138,1,twoone,,,,,,,,,,,,,,,,,,,,,,,,,,,,,,,,,,,,,,,,,,,,,,,,,,,,,,,,,,,,,,,,,,,,,,,,,,,,,,,,,,,,,,,,,,,,,,,,,,,,,,,,,,,,,,,,,,,,,,,,,,,,,,,,,,,,,,,,,,,,,,,,,,,,,,,,,,,,
,,,,,,6081bf53d3c45fe4c8fd3ea3,62c538b636daf98b3ef3eecb,2022-07-06_09h04.10.279,Colour_Asymmetry_Pilot,2022.1.3,Win32,60.04924038,62c50e9c1127f2cd403a315f,0,140,140,96,1,onetwo,,,,,,,,,,,,,,,,,,,,,,,,,,,,,,,,,,,,,,,,,,,,,,,,,,,,,,,,,,,,,,,,,,,,,,,,,,,,,,,,,,,,,,,,,,,,,,,,,,,,,,,,,,,,,,,,,,,,,,,,,,,,,,,,,,,,,,,,,,,,,,,,,,,,,,,,,,,,
,,,,,,6081bf53d3c45fe4c8fd3ea3,62c538b636daf98b3ef3eecb,2022-07-06_09h04.10.279,Colour_Asymmetry_Pilot,2022.1.3,Win32,60.04924038,62c50e9c1127f2cd403a315f,0,141,141,44,1,threeone,,,,,,,,,,,,,,,,,,,,,,,,,,,,,,,,,,,,,,,,,,,,,,,,,,,,,,,,,,,,,,,,,,,,,,,,,,,,,,,,,,,,,,,,,,,,,,,,,,,,,,,,,,,,,,,,,,,,,,,,,,,,,,,,,,,,,,,,,,,,,,,,,,,,,,,,,,,,
,,,,,,6081bf53d3c45fe4c8fd3ea3,62c538b636daf98b3ef3eecb,2022-07-06_09h04.10.279,Colour_Asymmetry_Pilot,2022.1.3,Win32,60.04924038,62c50e9c1127f2cd403a315f,0,142,142,92,1,threeone,,,,,,,,,,,,,,,,,,,,,,,,,,,,,,,,,,,,,,,,,,,,,,,,,,,,,,,,,,,,,,,,,,,,,,,,,,,,,,,,,,,,,,,,,,,,,,,,,,,,,,,,,,,,,,,,,,,,,,,,,,,,,,,,,,,,,,,,,,,,,,,,,,,,,,,,,,,,
,,,,,,6081bf53d3c45fe4c8fd3ea3,62c538b636daf98b3ef3eecb,2022-07-06_09h04.10.279,Colour_Asymmetry_Pilot,2022.1.3,Win32,60.04924038,62c50e9c1127f2cd403a315f,0,143,143,31,1,fourthree,,,,,,,,,,,,,,,,,,,,,,,,,,,,,,,,,,,,,,,,,,,,,,,,,,,,,,,,,,,,,,,,,,,,,,,,,,,,,,,,,,,,,,,,,,,,,,,,,,,,,,,,,,,,,,,,,,,,,,,,,,,,,,,,,,,,,,,,,,,,,,,,,,,,,,,,,,,,
,,,,,,6081bf53d3c45fe4c8fd3ea3,62c538b636daf98b3ef3eecb,2022-07-06_09h04.10.279,Colour_Asymmetry_Pilot,2022.1.3,Win32,60.04924038,62c50e9c1127f2cd403a315f,0,144,144,158,1,fourtwo,,,,,,,,,,,,,,,,,,,,,,,,,,,,,,,,,,,,,,,,,,,,,,,,,,,,,,,,,,,,,,,,,,,,,,,,,,,,,,,,,,,,,,,,,,,,,,,,,,,,,,,,,,,,,,,,,,,,,,,,,,,,,,,,,,,,,,,,,,,,,,,,,,,,,,,,,,,,
,,,,,,6081bf53d3c45fe4c8fd3ea3,62c538b636daf98b3ef3eecb,2022-07-06_09h04.10.279,Colour_Asymmetry_Pilot,2022.1.3,Win32,60.04924038,62c50e9c1127f2cd403a315f,0,145,145,90,1,twoone,,,,,,,,,,,,,,,,,,,,,,,,,,,,,,,,,,,,,,,,,,,,,,,,,,,,,,,,,,,,,,,,,,,,,,,,,,,,,,,,,,,,,,,,,,,,,,,,,,,,,,,,,,,,,,,,,,,,,,,,,,,,,,,,,,,,,,,,,,,,,,,,,,,,,,,,,,,,
,,,,,,6081bf53d3c45fe4c8fd3ea3,62c538b636daf98b3ef3eecb,2022-07-06_09h04.10.279,Colour_Asymmetry_Pilot,2022.1.3,Win32,60.04924038,62c50e9c1127f2cd403a315f,0,146,146,41,1,onethree,,,,,,,,,,,,,,,,,,,,,,,,,,,,,,,,,,,,,,,,,,,,,,,,,,,,,,,,,,,,,,,,,,,,,,,,,,,,,,,,,,,,,,,,,,,,,,,,,,,,,,,,,,,,,,,,,,,,,,,,,,,,,,,,,,,,,,,,,,,,,,,,,,,,,,,,,,,,
,,,,,,6081bf53d3c45fe4c8fd3ea3,62c538b636daf98b3ef3eecb,2022-07-06_09h04.10.279,Colour_Asymmetry_Pilot,2022.1.3,Win32,60.04924038,62c50e9c1127f2cd403a315f,0,147,147,93,1,threefour,,,,,,,,,,,,,,,,,,,,,,,,,,,,,,,,,,,,,,,,,,,,,,,,,,,,,,,,,,,,,,,,,,,,,,,,,,,,,,,,,,,,,,,,,,,,,,,,,,,,,,,,,,,,,,,,,,,,,,,,,,,,,,,,,,,,,,,,,,,,,,,,,,,,,,,,,,,,
,,,,,,6081bf53d3c45fe4c8fd3ea3,62c538b636daf98b3ef3eecb,2022-07-06_09h04.10.279,Colour_Asymmetry_Pilot,2022.1.3,Win32,60.04924038,62c50e9c1127f2cd403a315f,0,148,148,156,1,threeone,,,,,,,,,,,,,,,,,,,,,,,,,,,,,,,,,,,,,,,,,,,,,,,,,,,,,,,,,,,,,,,,,,,,,,,,,,,,,,,,,,,,,,,,,,,,,,,,,,,,,,,,,,,,,,,,,,,,,,,,,,,,,,,,,,,,,,,,,,,,,,,,,,,,,,,,,,,,
,,,,,,6081bf53d3c45fe4c8fd3ea3,62c538b636daf98b3ef3eecb,2022-07-06_09h04.10.279,Colour_Asymmetry_Pilot,2022.1.3,Win32,60.04924038,62c50e9c1127f2cd403a315f,0,149,149,113,1,onethree,,,,,,,,,,,,,,,,,,,,,,,,,,,,,,,,,,,,,,,,,,,,,,,,,,,,,,,,,,,,,,,,,,,,,,,,,,,,,,,,,,,,,,,,,,,,,,,,,,,,,,,,,,,,,,,,,,,,,,,,,,,,,,,,,,,,,,,,,,,,,,,,,,,,,,,,,,,,
,,,,,,6081bf53d3c45fe4c8fd3ea3,62c538b636daf98b3ef3eecb,2022-07-06_09h04.10.279,Colour_Asymmetry_Pilot,2022.1.3,Win32,60.04924038,62c50e9c1127f2cd403a315f,0,150,150,30,1,fourtwo,,,,,,,,,,,,,,,,,,,,,,,,,,,,,,,,,,,,,,,,,,,,,,,,,,,,,,,,,,,,,,,,,,,,,,,,,,,,,,,,,,,,,,,,,,,,,,,,,,,,,,,,,,,,,,,,,,,,,,,,,,,,,,,,,,,,,,,,,,,,,,,,,,,,,,,,,,,,
,,,,,,6081bf53d3c45fe4c8fd3ea3,62c538b636daf98b3ef3eecb,2022-07-06_09h04.10.279,Colour_Asymmetry_Pilot,2022.1.3,Win32,60.04924038,62c50e9c1127f2cd403a315f,0,151,151,146,1,twoone,,,,,,,,,,,,,,,,,,,,,,,,,,,,,,,,,,,,,,,,,,,,,,,,,,,,,,,,,,,,,,,,,,,,,,,,,,,,,,,,,,,,,,,,,,,,,,,,,,,,,,,,,,,,,,,,,,,,,,,,,,,,,,,,,,,,,,,,,,,,,,,,,,,,,,,,,,,,
,,,,,,6081bf53d3c45fe4c8fd3ea3,62c538b636daf98b3ef3eecb,2022-07-06_09h04.10.279,Colour_Asymmetry_Pilot,2022.1.3,Win32,60.04924038,62c50e9c1127f2cd403a315f,0,152,152,57,1,onethree,,,,,,,,,,,,,,,,,,,,,,,,,,,,,,,,,,,,,,,,,,,,,,,,,,,,,,,,,,,,,,,,,,,,,,,,,,,,,,,,,,,,,,,,,,,,,,,,,,,,,,,,,,,,,,,,,,,,,,,,,,,,,,,,,,,,,,,,,,,,,,,,,,,,,,,,,,,,
,,,,,,6081bf53d3c45fe4c8fd3ea3,62c538b636daf98b3ef3eecb,2022-07-06_09h04.10.279,Colour_Asymmetry_Pilot,2022.1.3,Win32,60.04924038,62c50e9c1127f2cd403a315f,0,153,153,159,1,fourthree,,,,,,,,,,,,,,,,,,,,,,,,,,,,,,,,,,,,,,,,,,,,,,,,,,,,,,,,,,,,,,,,,,,,,,,,,,,,,,,,,,,,,,,,,,,,,,,,,,,,,,,,,,,,,,,,,,,,,,,,,,,,,,,,,,,,,,,,,,,,,,,,,,,,,,,,,,,,
,,,,,,6081bf53d3c45fe4c8fd3ea3,62c538b636daf98b3ef3eecb,2022-07-06_09h04.10.279,Colour_Asymmetry_Pilot,2022.1.3,Win32,60.04924038,62c50e9c1127f2cd403a315f,0,154,154,100,1,threeone,,,,,,,,,,,,,,,,,,,,,,,,,,,,,,,,,,,,,,,,,,,,,,,,,,,,,,,,,,,,,,,,,,,,,,,,,,,,,,,,,,,,,,,,,,,,,,,,,,,,,,,,,,,,,,,,,,,,,,,,,,,,,,,,,,,,,,,,,,,,,,,,,,,,,,,,,,,,
,,,,,,6081bf53d3c45fe4c8fd3ea3,62c538b636daf98b3ef3eecb,2022-07-06_09h04.10.279,Colour_Asymmetry_Pilot,2022.1.3,Win32,60.04924038,62c50e9c1127f2cd403a315f,0,155,155,60,1,threeone,,,,,,,,,,,,,,,,,,,,,,,,,,,,,,,,,,,,,,,,,,,,,,,,,,,,,,,,,,,,,,,,,,,,,,,,,,,,,,,,,,,,,,,,,,,,,,,,,,,,,,,,,,,,,,,,,,,,,,,,,,,,,,,,,,,,,,,,,,,,,,,,,,,,,,,,,,,,
,,,,,,6081bf53d3c45fe4c8fd3ea3,62c538b636daf98b3ef3eecb,2022-07-06_09h04.10.279,Colour_Asymmetry_Pilot,2022.1.3,Win32,60.04924038,62c50e9c1127f2cd403a315f,0,156,156,83,1,twofour,,,,,,,,,,,,,,,,,,,,,,,,,,,,,,,,,,,,,,,,,,,,,,,,,,,,,,,,,,,,,,,,,,,,,,,,,,,,,,,,,,,,,,,,,,,,,,,,,,,,,,,,,,,,,,,,,,,,,,,,,,,,,,,,,,,,,,,,,,,,,,,,,,,,,,,,,,,,
,,,,,,6081bf53d3c45fe4c8fd3ea3,62c538b636daf98b3ef3eecb,2022-07-06_09h04.10.279,Colour_Asymmetry_Pilot,2022.1.3,Win32,60.04924038,62c50e9c1127f2cd403a315f,0,157,157,102,1,fourtwo,,,,,,,,,,,,,,,,,,,,,,,,,,,,,,,,,,,,,,,,,,,,,,,,,,,,,,,,,,,,,,,,,,,,,,,,,,,,,,,,,,,,,,,,,,,,,,,,,,,,,,,,,,,,,,,,,,,,,,,,,,,,,,,,,,,,,,,,,,,,,,,,,,,,,,,,,,,,
,,,,,,6081bf53d3c45fe4c8fd3ea3,62c538b636daf98b3ef3eecb,2022-07-06_09h04.10.279,Colour_Asymmetry_Pilot,2022.1.3,Win32,60.04924038,62c50e9c1127f2cd403a315f,0,158,158,115,1,twofour,,,,,,,,,,,,,,,,,,,,,,,,,,,,,,,,,,,,,,,,,,,,,,,,,,,,,,,,,,,,,,,,,,,,,,,,,,,,,,,,,,,,,,,,,,,,,,,,,,,,,,,,,,,,,,,,,,,,,,,,,,,,,,,,,,,,,,,,,,,,,,,,,,,,,,,,,,,,
,,,,,,6081bf53d3c45fe4c8fd3ea3,62c538b636daf98b3ef3eecb,2022-07-06_09h04.10.279,Colour_Asymmetry_Pilot,2022.1.3,Win32,60.04924038,62c50e9c1127f2cd403a315f,0,159,159,80,1,onetwo,,,,,,,,,,,,,,,,,,,,,,,,,,,,,,,,,,,,,,,,,,,,,,,,,,,,,,,,,,,,,,,,,,,,,,,,,,,,,,,,,,,,,,,,,,,,,,,,,,,,,,,,,,,,,,,,,,,,,,,,,,,,,,,,,,,,,,,,,,,,,,,,,,,,,,,,,,,,
,,,,,,6081bf53d3c45fe4c8fd3ea3,62c538b636daf98b3ef3eecb,2022-07-06_09h04.10.279,Colour_Asymmetry_Pilot,2022.1.3,Win32,60.04924038,62c50e9c1127f2cd403a315f,0,160,160,63,1,fourthree,,,,,,,,,,,,,,,,,,,,,,,,,,,,,,,,,,,,,,,,,,,,,,,,,,,,,,,,,,,,,,,,,,,,,,,,,,,,,,,,,,,,,,,,,,,,,,,,,,,,,,,,,,,,,,,,,,,,,,,,,,,,,,,,,,,,,,,,,,,,,,,,,,,,,,,,,,,,
,,,,,,6081bf53d3c45fe4c8fd3ea3,62c538b636daf98b3ef3eecb,2022-07-06_09h04.10.279,Colour_Asymmetry_Pilot,2022.1.3,Win32,60.04924038,62c50e9c1127f2cd403a315f,0,161,161,91,1,twofour,,,,,,,,,,,,,,,,,,,,,,,,,,,,,,,,,,,,,,,,,,,,,,,,,,,,,,,,,,,,,,,,,,,,,,,,,,,,,,,,,,,,,,,,,,,,,,,,,,,,,,,,,,,,,,,,,,,,,,,,,,,,,,,,,,,,,,,,,,,,,,,,,,,,,,,,,,,,
,,,,,,6081bf53d3c45fe4c8fd3ea3,62c538b636daf98b3ef3eecb,2022-07-06_09h04.10.279,Colour_Asymmetry_Pilot,2022.1.3,Win32,60.04924038,62c50e9c1127f2cd403a315f,,,,,,,space,0.951,space,0.5568,space,1.0995,space,0.9325,space,1.9815,space,0.7512,"[0.05879999999999996,0.2784,0.5841999999999998]",twofour,"[-0.4668,-0.8746,-0.2942]",2,1,67,-36,1,0,0,response3disk_5,5,-10,1,0,0,rectangle_8,29,-114,1,0,0,response3disk_7,4,1,1,1,1,0,0,rectangle_4,0,0,0,0,1,,,,,,,,,,,,,,,,,,,,,,,,,,,,,,,,,,,,,,,,,,,,,,,,,,,,,,,,,,,,,,,,,,,,,,,,,,,,,,,,,,,,,,,,,,,,,,,,,,,,,,,,,,,,
,,,,,,6081bf53d3c45fe4c8fd3ea3,62c538b636daf98b3ef3eecb,2022-07-06_09h04.10.279,Colour_Asymmetry_Pilot,2022.1.3,Win32,60.04924038,62c50e9c1127f2cd403a315f,,,,,,,,,,,,,,,,,,,"[-0.01980000000000004,-0.5138,-0.38039999999999996]",fourtwo,"[0.0351999999999999,0.41159999999999997,0.0038000000000000256]",-2,1.2501,-45,-33,1,0,0,response5disk_5,-11,13,1,0,0,rectangle_8,-11,13,1,0,0,,,1,-11,13,1,0,0,,1,0,1,0,1,,,,,,,,,,,,,,,,,,,,,,,,,,,,,,,,,,,,,,,,,,,,,,,,,,,,,,,,,,,,,,,,,,,,,,,,,,,,,,,,,,,,,,,,,,,,,,,,,,,,,,,,,,,,
,,,,,,6081bf53d3c45fe4c8fd3ea3,62c538b636daf98b3ef3eecb,2022-07-06_09h04.10.279,Colour_Asymmetry_Pilot,2022.1.3,Win32,60.04924038,62c50e9c1127f2cd403a315f,,,,,,,,,,,,,,,,,,,"[-0.9216,-0.5529999999999999,-0.3962]",onethree,"[0.7802,-0.23140000000000005,-0.20799999999999996]",-3,0.6384,-56,33,1,0,0,response7disk_5,-4,-5,1,0,0,rectangle_8,-4,-5,1,0,0,,,1,-4,-5,1,0,0,,2,0,2,0,1,,,,,,,,,,,,,,,,,,,,,,,,,,,,,,,,,,,,,,,,,,,,,,,,,,,,,,,,,,,,,,,,,,,,,,,,,,,,,,,,,,,,,,,,,,,,,,,,,,,,,,,,,,,,
,,,,,,6081bf53d3c45fe4c8fd3ea3,62c538b636daf98b3ef3eecb,2022-07-06_09h04.10.279,Colour_Asymmetry_Pilot,2022.1.3,Win32,60.04924038,62c50e9c1127f2cd403a315f,,,,,,,,,,,,,,,,,,,"[-0.011800000000000033,-0.906,-0.45100000000000007]",twoone,"[0.23120000000000007,-0.7726,-0.34120000000000006]",4,0.5746,47,71,1,0,0,response1disk_5,12,-2,1,0,0,rectangle_8,12,-2,1,0,0,,,1,12,-2,1,0,0,,3,0,3,0,1,,,,,,,,,,,,,,,,,,,,,,,,,,,,,,,,,,,,,,,,,,,,,,,,,,,,,,,,,,,,,,,,,,,,,,,,,,,,,,,,,,,,,,,,,,,,,,,,,,,,,,,,,,,,
,,,,,,6081bf53d3c45fe4c8fd3ea3,62c538b636daf98b3ef3eecb,2022-07-06_09h04.10.279,Colour_Asymmetry_Pilot,2022.1.3,Win32,60.04924038,62c50e9c1127f2cd403a315f,,,,,,,,,,,,,,,,,,,"[0.5449999999999999,-0.31000000000000005,-0.0354000000000001]",threefour,"[0.0351999999999999,0.41159999999999997,0.0038000000000000256]",-1,0.7179,-40,-47,1,0,0,response5disk_5,22,8,1,0,0,rectangle_8,22,8,1,0,0,,,1,22,8,1,0,0,,4,0,4,0,1,,,,,,,,,,,,,,,,,,,,,,,,,,,,,,,,,,,,,,,,,,,,,,,,,,,,,,,,,,,,,,,,,,,,,,,,,,,,,,,,,,,,,,,,,,,,,,,,,,,,,,,,,,,,
,,,,,,6081bf53d3c45fe4c8fd3ea3,62c538b636daf98b3ef3eecb,2022-07-06_09h04.10.279,Colour_Asymmetry_Pilot,2022.1.3,Win32,60.04924038,62c50e9c1127f2cd403a315f,,,,,,,,,,,,,,,,,,,"[-0.20799999999999996,-0.655,-0.01980000000000004]",onethree,"[-0.9688,-0.38039999999999996,-0.41979999999999995]",-3,0.6015,-95,54,1,0,0,response7disk_5,-4,-6,1,0,0,rectangle_8,-4,-6,1,0,0,,,1,-4,-6,1,0,0,,5,0,5,0,1,,,,,,,,,,,,,,,,,,,,,,,,,,,,,,,,,,,,,,,,,,,,,,,,,,,,,,,,,,,,,,,,,,,,,,,,,,,,,,,,,,,,,,,,,,,,,,,,,,,,,,,,,,,,
,,,,,,6081bf53d3c45fe4c8fd3ea3,62c538b636daf98b3ef3eecb,2022-07-06_09h04.10.279,Colour_Asymmetry_Pilot,2022.1.3,Win32,60.04924038,62c50e9c1127f2cd403a315f,,,,,,,,,,,,,,,,,,,"[-0.9296,-0.12959999999999994,-0.043199999999999905]",threefour,"[0.0351999999999999,0.41159999999999997,0.0038000000000000256]",2,0.4545,61,-38,1,0,0,response3disk_5,-9,0,1,0,0,rectangle_8,-9,0,1,0,0,,,1,-9,0,1,0,0,,6,0,6,0,1,,,,,,,,,,,,,,,,,,,,,,,,,,,,,,,,,,,,,,,,,,,,,,,,,,,,,,,,,,,,,,,,,,,,,,,,,,,,,,,,,,,,,,,,,,,,,,,,,,,,,,,,,,,,
,,,,,,6081bf53d3c45fe4c8fd3ea3,62c538b636daf98b3ef3eecb,2022-07-06_09h04.10.279,Colour_Asymmetry_Pilot,2022.1.3,Win32,60.04924038,62c50e9c1127f2cd403a315f,,,,,,,,,,,,,,,,,,,,fourthree,,-1,2.9341,,,,,,,,,,,,,,,,,,,,,,,,,,,,,,,,space,0.8033,"[0.7646000000000002,0.07440000000000002,0.2704]","[-0.30200000000000005,0.14500000000000002,0.2784]",-26,-40,1,0,0,response5disk,-9,-6,1,0,0,rectangle,-9,-6,1,0,0,,1,0.0019,0,-9,-6,1,0,0,0,0,0,134,1,53,second,,,,,,,,,,,,,,,,,,,,,,,,,,,,,,,,,,,,,,,,,,,,,,,,,,,,,,,,,,,,,,,,,,,,,,,
,,,,,,6081bf53d3c45fe4c8fd3ea3,62c538b636daf98b3ef3eecb,2022-07-06_09h04.10.279,Colour_Asymmetry_Pilot,2022.1.3,Win32,60.04924038,62c50e9c1127f2cd403a315f,,,,,,,,,,,,,,,,,,,,fourthree,,-4,0.4832,,,,,,,,,,,,,,,,,,,,,,,,,,,,,,,,,,"[0.9763999999999999,0.30979999999999985,-0.6786]","[-0.9138,-0.5296000000000001,-0.5529999999999999]",-47,48,1,0,0,response7disk,-4,-12,1,0,0,rectangle,-4,-12,1,0,0,,3,0.0025,0,-4,-12,1,0,0,0,1,1,16,1,16,first,,,,,,,,,,,,,,,,,,,,,,,,,,,,,,,,,,,,,,,,,,,,,,,,,,,,,,,,,,,,,,,,,,,,,,,
,,,,,,6081bf53d3c45fe4c8fd3ea3,62c538b636daf98b3ef3eecb,2022-07-06_09h04.10.279,Colour_Asymmetry_Pilot,2022.1.3,Win32,60.04924038,62c50e9c1127f2cd403a315f,,,,,,,,,,,,,,,,,,,,fourthree,,-3,0.3495,,,,,,,,,,,,,,,,,,,,,,,,,,,,,,,,,,"[-0.10599999999999998,-0.15300000000000002,0.15280000000000005]","[0.5528,0.7409999999999999,-0.71]",-61,58,1,0,0,response7disk,-3,15,1,0,0,rectangle,-3,15,1,0,0,,3,0.0006,0,-3,15,1,0,0,0,2,2,52,1,52,first,,,,,,,,,,,,,,,,,,,,,,,,,,,,,,,,,,,,,,,,,,,,,,,,,,,,,,,,,,,,,,,,,,,,,,,
,,,,,,6081bf53d3c45fe4c8fd3ea3,62c538b636daf98b3ef3eecb,2022-07-06_09h04.10.279,Colour_Asymmetry_Pilot,2022.1.3,Win32,60.04924038,62c50e9c1127f2cd403a315f,,,,,,,,,,,,,,,,,,,,onethree,,-4,0.3995,,,,,,,,,,,,,,,,,,,,,,,,,,,,,,,,,,"[-0.09019999999999995,0.44300000000000006,0.5371999999999999]","[1,0.12939999999999996,-1]",-31,33,1,0,0,response7disk,-10,10,1,0,0,rectangle,-10,10,1,0,0,,1,0.0032,0,-10,10,1,0,0,0,3,3,21,1,21,first,,,,,,,,,,,,,,,,,,,,,,,,,,,,,,,,,,,,,,,,,,,,,,,,,,,,,,,,,,,,,,,,,,,,,,,
,,,,,,6081bf53d3c45fe4c8fd3ea3,62c538b636daf98b3ef3eecb,2022-07-06_09h04.10.279,Colour_Asymmetry_Pilot,2022.1.3,Win32,60.04924038,62c50e9c1127f2cd403a315f,,,,,,,,,,,,,,,,,,,,onethree,,3,0.3002,,,,,,,,,,,,,,,,,,,,,,,,,,,,,,,,,,"[-0.7412000000000001,-0.08239999999999992,-0.6864]","[0.04299999999999993,0.16060000000000008,-0.6628000000000001]",87,54,1,0,0,response1disk,27,8,1,0,0,rectangle,27,8,1,0,0,,3,0.0022,0,27,8,1,0,0,0,4,4,68,1,68,first,,,,,,,,,,,,,,,,,,,,,,,,,,,,,,,,,,,,,,,,,,,,,,,,,,,,,,,,,,,,,,,,,,,,,,,
,,,,,,6081bf53d3c45fe4c8fd3ea3,62c538b636daf98b3ef3eecb,2022-07-06_09h04.10.279,Colour_Asymmetry_Pilot,2022.1.3,Win32,60.04924038,62c50e9c1127f2cd403a315f,,,,,,,,,,,,,,,,,,,,fourtwo,,2,0.317,,,,,,,,,,,,,,,,,,,,,,,,,,,,,,,,,,"[0.3802000000000001,0.19199999999999995,-0.6394]","[0.8115999999999999,-0.0040000000000000036,-0.09819999999999995]",49,-33,1,0,0,response3disk,17,-14,1,0,0,rectangle,17,-14,1,0,0,,2,0.0034,0,17,-14,1,0,0,0,5,5,90,1,9,second,,,,,,,,,,,,,,,,,,,,,,,,,,,,,,,,,,,,,,,,,,,,,,,,,,,,,,,,,,,,,,,,,,,,,,,
,,,,,,6081bf53d3c45fe4c8fd3ea3,62c538b636daf98b3ef3eecb,2022-07-06_09h04.10.279,Colour_Asymmetry_Pilot,2022.1.3,Win32,60.04924038,62c50e9c1127f2cd403a315f,,,,,,,,,,,,,,,,,,,,fourtwo,,-3,0.7001,,,,,,,,,,,,,,,,,,,,,,,,,,,,,,,,,,"[0.2784,-0.31000000000000005,-0.5452]","[0.05879999999999996,0.2784,0.5841999999999998]",-74,56,1,0,0,response7disk,-21,14,1,0,0,rectangle,-21,14,1,0,0,,1,0.0024,0,-21,14,1,0,0,0,6,6,144,1,63,second,,,,,,,,,,,,,,,,,,,,,,,,,,,,,,,,,,,,,,,,,,,,,,,,,,,,,,,,,,,,,,,,,,,,,,,
,,,,,,6081bf53d3c45fe4c8fd3ea3,62c538b636daf98b3ef3eecb,2022-07-06_09h04.10.279,Colour_Asymmetry_Pilot,2022.1.3,Win32,60.04924038,62c50e9c1127f2cd403a315f,,,,,,,,,,,,,,,,,,,,fourthree,,-4,0.283,,,,,,,,,,,,,,,,,,,,,,,,,,,,,,,,,,"[0.2784,-0.31000000000000005,-0.5452]","[-0.9766,-0.6472,0.07440000000000002]",-63,66,1,0,0,response7disk,18,-1,1,0,0,rectangle,18,-1,1,0,0,,3,0.0029,0,18,-1,1,0,0,0,7,7,88,1,7,second,,,,,,,,,,,,,,,,,,,,,,,,,,,,,,,,,,,,,,,,,,,,,,,,,,,,,,,,,,,,,,,,,,,,,,,
,,,,,,6081bf53d3c45fe4c8fd3ea3,62c538b636daf98b3ef3eecb,2022-07-06_09h04.10.279,Colour_Asymmetry_Pilot,2022.1.3,Win32,60.04924038,62c50e9c1127f2cd403a315f,,,,,,,,,,,,,,,,,,,,onethree,,2,0.5339,,,,,,,,,,,,,,,,,,,,,,,,,,,,,,,,,,"[-0.17659999999999998,0.3253999999999999,0.19999999999999996]","[0.7018,0.7802,-0.16079999999999994]",31,-25,1,0,0,response3disk,-1,-2,1,0,0,rectangle,-1,-2,1,0,0,,1,0.0024,0,-1,-2,1,0,0,0,8,8,6,1,6,first,,,,,,,,,,,,,,,,,,,,,,,,,,,,,,,,,,,,,,,,,,,,,,,,,,,,,,,,,,,,,,,,,,,,,,,
,,,,,,6081bf53d3c45fe4c8fd3ea3,62c538b636daf98b3ef3eecb,2022-07-06_09h04.10.279,Colour_Asymmetry_Pilot,2022.1.3,Win32,60.04924038,62c50e9c1127f2cd403a315f,,,,,,,,,,,,,,,,,,,,onetwo,,-1,1.4658,,,,,,,,,,,,,,,,,,,,,,,,,,,,,,,,,,"[-0.24719999999999998,0.5213999999999999,-0.12959999999999994]","[-0.34920000000000007,-0.702,-0.5216]",-45,-49,1,0,0,response5disk,-7,-12,1,0,0,rectangle,-7,-12,1,0,0,,2,0.0024,0,-7,-12,1,0,0,0,9,9,70,1,70,first,,,,,,,,,,,,,,,,,,,,,,,,,,,,,,,,,,,,,,,,,,,,,,,,,,,,,,,,,,,,,,,,,,,,,,,
,,,,,,6081bf53d3c45fe4c8fd3ea3,62c538b636daf98b3ef3eecb,2022-07-06_09h04.10.279,Colour_Asymmetry_Pilot,2022.1.3,Win32,60.04924038,62c50e9c1127f2cd403a315f,,,,,,,,,,,,,,,,,,,,threeone,,1,0.4163,,,,,,,,,,,,,,,,,,,,,,,,,,,,,,,,,,"[0.796,0.2156,-0.27859999999999996]","[0.23120000000000007,-0.7726,-0.34120000000000006]",17,-25,1,0,0,response3disk,-1,-2,1,0,0,rectangle,-1,-2,1,0,0,,1,0.0021,0,-1,-2,1,0,0,0,10,10,29,1,29,first,,,,,,,,,,,,,,,,,,,,,,,,,,,,,,,,,,,,,,,,,,,,,,,,,,,,,,,,,,,,,,,,,,,,,,,
,,,,,,6081bf53d3c45fe4c8fd3ea3,62c538b636daf98b3ef3eecb,2022-07-06_09h04.10.279,Colour_Asymmetry_Pilot,2022.1.3,Win32,60.04924038,62c50e9c1127f2cd403a315f,,,,,,,,,,,,,,,,,,,,onetwo,,3,1.8657,,,,,,,,,,,,,,,,,,,,,,,,,,,,,,,,,,"[-0.7412000000000001,-0.08239999999999992,-0.6864]","[-0.10599999999999998,-0.15300000000000002,0.15280000000000005]",34,15,1,0,0,response1disk,21,9,1,0,0,rectangle,21,9,1,0,0,,1,0.0003,0,21,9,1,0,0,0,11,11,33,1,33,first,,,,,,,,,,,,,,,,,,,,,,,,,,,,,,,,,,,,,,,,,,,,,,,,,,,,,,,,,,,,,,,,,,,,,,,
,,,,,,6081bf53d3c45fe4c8fd3ea3,62c538b636daf98b3ef3eecb,2022-07-06_09h04.10.279,Colour_Asymmetry_Pilot,2022.1.3,Win32,60.04924038,62c50e9c1127f2cd403a315f,,,,,,,,,,,,,,,,,,,,fourtwo,,-3,1.3156,,,,,,,,,,,,,,,,,,,,,,,,,,,,,,,,,,"[0.3568,-0.20799999999999996,-0.9844]","[0.19199999999999995,0.18419999999999992,0.5136000000000001]",-56,34,1,0,0,response7disk,25,2,1,0,0,rectangle,25,2,1,0,0,,2,0.002,0,25,2,1,0,0,0,12,12,157,1,76,second,,,,,,,,,,,,,,,,,,,,,,,,,,,,,,,,,,,,,,,,,,,,,,,,,,,,,,,,,,,,,,,,,,,,,,,
,,,,,,6081bf53d3c45fe4c8fd3ea3,62c538b636daf98b3ef3eecb,2022-07-06_09h04.10.279,Colour_Asymmetry_Pilot,2022.1.3,Win32,60.04924038,62c50e9c1127f2cd403a315f,,,,,,,,,,,,,,,,,,,,threefour,,-1,1.1624,,,,,,,,,,,,,,,,,,,,,,,,,,,,,,,,,,"[-0.20799999999999996,-0.655,-0.01980000000000004]","[-0.0040000000000000036,0.02739999999999987,-0.08239999999999992]",-32,-51,1,0,0,response5disk,-5,-7,1,0,0,rectangle,-5,-7,1,0,0,,3,0.0011,0,-5,-7,1,0,0,0,13,13,120,1,39,second,,,,,,,,,,,,,,,,,,,,,,,,,,,,,,,,,,,,,,,,,,,,,,,,,,,,,,,,,,,,,,,,,,,,,,,
,,,,,,6081bf53d3c45fe4c8fd3ea3,62c538b636daf98b3ef3eecb,2022-07-06_09h04.10.279,Colour_Asymmetry_Pilot,2022.1.3,Win32,60.04924038,62c50e9c1127f2cd403a315f,,,,,,,,,,,,,,,,,,,,threefour,,-2,0.317,,,,,,,,,,,,,,,,,,,,,,,,,,,,,,,,,,"[-0.9766,-0.6472,0.07440000000000002]","[0.2784,-0.31000000000000005,-0.5452]",-75,-53,1,0,0,response5disk,-5,11,1,0,0,rectangle,-5,11,1,0,0,,1,0.0008,0,-5,11,1,0,0,0,14,14,7,1,7,first,,,,,,,,,,,,,,,,,,,,,,,,,,,,,,,,,,,,,,,,,,,,,,,,,,,,,,,,,,,,,,,,,,,,,,,
,,,,,,6081bf53d3c45fe4c8fd3ea3,62c538b636daf98b3ef3eecb,2022-07-06_09h04.10.279,Colour_Asymmetry_Pilot,2022.1.3,Win32,60.04924038,62c50e9c1127f2cd403a315f,,,,,,,,,,,,,,,,,,,,threeone,,-3,0.561,,,,,,,,,,,,,,,,,,,,,,,,,,,,,,,,,,"[0.6625999999999999,0.4980000000000002,-0.357]","[-0.48240000000000005,0.3175999999999999,0.2156]",-48,37,1,0,0,response7disk,15,7,1,0,0,rectangle,15,7,1,0,0,,3,0.0011,0,15,7,1,0,0,0,15,15,154,1,73,second,,,,,,,,,,,,,,,,,,,,,,,,,,,,,,,,,,,,,,,,,,,,,,,,,,,,,,,,,,,,,,,,,,,,,,,
,,,,,,6081bf53d3c45fe4c8fd3ea3,62c538b636daf98b3ef3eecb,2022-07-06_09h04.10.279,Colour_Asymmetry_Pilot,2022.1.3,Win32,60.04924038,62c50e9c1127f2cd403a315f,,,,,,,,,,,,,,,,,,,,twoone,,1,0.6993,,,,,,,,,,,,,,,,,,,,,,,,,,,,,,,,,,"[0.4196,0.4665999999999999,0.3568]","[-0.38039999999999996,-0.4276,-0.1452]",40,-66,1,0,0,response3disk,-16,0,1,0,0,rectangle,-16,0,1,0,0,,1,0.0008,0,-16,0,1,0,0,0,16,16,103,1,22,second,,,,,,,,,,,,,,,,,,,,,,,,,,,,,,,,,,,,,,,,,,,,,,,,,,,,,,,,,,,,,,,,,,,,,,,
,,,,,,6081bf53d3c45fe4c8fd3ea3,62c538b636daf98b3ef3eecb,2022-07-06_09h04.10.279,Colour_Asymmetry_Pilot,2022.1.3,Win32,60.04924038,62c50e9c1127f2cd403a315f,,,,,,,,,,,,,,,,,,,,threefour,,-1,7.8641,,,,,,,,,,,,,,,,,,,,,,,,,,,,,,,,,,"[0.34099999999999997,0.5841999999999998,-0.9844]","[-0.10599999999999998,-0.10599999999999998,0.5841999999999998]",-35,-48,1,0,0,response5disk,24,10,1,0,0,rectangle,24,10,1,0,0,,2,0.0016,0,24,10,1,0,0,0,17,17,93,1,12,second,,,,,,,,,,,,,,,,,,,,,,,,,,,,,,,,,,,,,,,,,,,,,,,,,,,,,,,,,,,,,,,,,,,,,,,
