trials.thisRepN,trials.thisTrialN,trials.thisN,trials.thisIndex,trials.ran,Colourcodes,participant,session,date,expName,psychopyVersion,OS,frameRate,study_id,trials_4.thisRepN,trials_4.thisTrialN,trials_4.thisN,trials_4.thisIndex,trials_4.ran,StimulusPos,key_resp.keys,key_resp.rt,key_resp_2.keys,key_resp_2.rt,key_resp_15.keys,key_resp_15.rt,key_resp_17.keys,key_resp_17.rt,key_resp_9.keys,key_resp_9.rt,key_resp_10.keys,key_resp_10.rt,Circle1_col,Ecc,Circle2_col,similarity,response_time,mouse_5.x,mouse_5.y,mouse_5.leftButton,mouse_5.midButton,mouse_5.rightButton,mouse_5.clicked_name,mouse_10.x,mouse_10.y,mouse_10.leftButton,mouse_10.midButton,mouse_10.rightButton,mouse_10.clicked_name,mouse_7.x,mouse_7.y,mouse_7.leftButton,mouse_7.midButton,mouse_7.rightButton,catchnumberprac,mouse_6.x,mouse_6.y,mouse_6.leftButton,mouse_6.midButton,mouse_6.rightButton,duringprac.thisRepN,duringprac.thisTrialN,duringprac.thisN,duringprac.thisIndex,duringprac.ran,mouse_7.clicked_name,catchprac,mouse_6.clicked_name,key_resp_22.keys,key_resp_22.rt,Circle1_colour,Circle2_colour,mouse.x,mouse.y,mouse.leftButton,mouse.midButton,mouse.rightButton,mouse.clicked_name,mouse_2.x,mouse_2.y,mouse_2.leftButton,mouse_2.midButton,mouse_2.rightButton,mouse_2.clicked_name,mouse_3.x,mouse_3.y,mouse_3.leftButton,mouse_3.midButton,mouse_3.rightButton,catchresponse,catchnumber,response_time_catch,Catch,mouse_11.x,mouse_11.y,mouse_11.leftButton,mouse_11.midButton,mouse_11.rightButton,trials_2.thisRepN,trials_2.thisTrialN,trials_2.thisN,trials_2.thisIndex,trials_2.ran,Colourpair,Temporder,mouse_3.clicked_name,mouse_11.clicked_name,trials_3.thisRepN,trials_3.thisTrialN,trials_3.thisN,trials_3.thisIndex,trials_3.ran,key_resp_instr_Ishi.keys,key_resp_instr_Ishi.rt,Ishi_trial_keyresp.keys,Ishi_trial_keyresp.rt,Ishi_textbox.text,Ishi_mouse.x,Ishi_mouse.y,Ishi_mouse.leftButton,Ishi_mouse.midButton,Ishi_mouse.rightButton,Ishi_loop.thisRepN,Ishi_loop.thisTrialN,Ishi_loop.thisN,Ishi_loop.thisIndex,Ishi_loop.ran,imageaddress,textbox.text,mouse_4.x,mouse_4.y,mouse_4.leftButton,mouse_4.midButton,mouse_4.rightButton,mouse_4.clicked_name,textbox_2.text,mouse_8.x,mouse_8.y,mouse_8.leftButton,mouse_8.midButton,mouse_8.rightButton,mouse_8.clicked_name,textbox_3.text,mouse_9.x,mouse_9.y,mouse_9.leftButton,mouse_9.midButton,mouse_9.rightButton,mouse_9.clicked_name,textbox_4.text,mouse_12.x,mouse_12.y,mouse_12.leftButton,mouse_12.midButton,mouse_12.rightButton,mouse_12.clicked_name,textbox_5.text,mouse_13.x,mouse_13.y,mouse_13.leftButton,mouse_13.midButton,mouse_13.rightButton,mouse_13.clicked_name,textbox_6.text,mouse_14.x,mouse_14.y,mouse_14.leftButton,mouse_14.midButton,mouse_14.rightButton,mouse_14.clicked_name,textbox_7.text,mouse_15.x,mouse_15.y,mouse_15.leftButton,mouse_15.midButton,mouse_15.rightButton,mouse_15.clicked_name
0,0,0,66,1,,60ce3ac4d251ea55f805b485,62c5394cc5861622af3fff54,2022-07-06_09h27.34.672,Colour_Asymmetry_Pilot,2022.1.3,Win32,60.29544769,62c50e9c1127f2cd403a315f,,,,,,,,,,,,,,,,,,,,,,,,,,,,,,,,,,,,,,,,,,,,,,,,,,,,,,,,,,,,,,,,,,,,,,,,,,,,,,,,,,,,,,,,,,,,,,,,,,,,,,,,,,,,,,,,,,,,,,,,,,,,,,,,,,,,,,,,,,,,,,,,,,,,,,,,,,,,,,,,,,,
0,1,1,61,1,,60ce3ac4d251ea55f805b485,62c5394cc5861622af3fff54,2022-07-06_09h27.34.672,Colour_Asymmetry_Pilot,2022.1.3,Win32,60.29544769,62c50e9c1127f2cd403a315f,,,,,,,,,,,,,,,,,,,,,,,,,,,,,,,,,,,,,,,,,,,,,,,,,,,,,,,,,,,,,,,,,,,,,,,,,,,,,,,,,,,,,,,,,,,,,,,,,,,,,,,,,,,,,,,,,,,,,,,,,,,,,,,,,,,,,,,,,,,,,,,,,,,,,,,,,,,,,,,,,,,
0,2,2,33,1,,60ce3ac4d251ea55f805b485,62c5394cc5861622af3fff54,2022-07-06_09h27.34.672,Colour_Asymmetry_Pilot,2022.1.3,Win32,60.29544769,62c50e9c1127f2cd403a315f,,,,,,,,,,,,,,,,,,,,,,,,,,,,,,,,,,,,,,,,,,,,,,,,,,,,,,,,,,,,,,,,,,,,,,,,,,,,,,,,,,,,,,,,,,,,,,,,,,,,,,,,,,,,,,,,,,,,,,,,,,,,,,,,,,,,,,,,,,,,,,,,,,,,,,,,,,,,,,,,,,,
0,3,3,56,1,,60ce3ac4d251ea55f805b485,62c5394cc5861622af3fff54,2022-07-06_09h27.34.672,Colour_Asymmetry_Pilot,2022.1.3,Win32,60.29544769,62c50e9c1127f2cd403a315f,,,,,,,,,,,,,,,,,,,,,,,,,,,,,,,,,,,,,,,,,,,,,,,,,,,,,,,,,,,,,,,,,,,,,,,,,,,,,,,,,,,,,,,,,,,,,,,,,,,,,,,,,,,,,,,,,,,,,,,,,,,,,,,,,,,,,,,,,,,,,,,,,,,,,,,,,,,,,,,,,,,
0,4,4,5,1,,60ce3ac4d251ea55f805b485,62c5394cc5861622af3fff54,2022-07-06_09h27.34.672,Colour_Asymmetry_Pilot,2022.1.3,Win32,60.29544769,62c50e9c1127f2cd403a315f,,,,,,,,,,,,,,,,,,,,,,,,,,,,,,,,,,,,,,,,,,,,,,,,,,,,,,,,,,,,,,,,,,,,,,,,,,,,,,,,,,,,,,,,,,,,,,,,,,,,,,,,,,,,,,,,,,,,,,,,,,,,,,,,,,,,,,,,,,,,,,,,,,,,,,,,,,,,,,,,,,,
0,5,5,19,1,,60ce3ac4d251ea55f805b485,62c5394cc5861622af3fff54,2022-07-06_09h27.34.672,Colour_Asymmetry_Pilot,2022.1.3,Win32,60.29544769,62c50e9c1127f2cd403a315f,,,,,,,,,,,,,,,,,,,,,,,,,,,,,,,,,,,,,,,,,,,,,,,,,,,,,,,,,,,,,,,,,,,,,,,,,,,,,,,,,,,,,,,,,,,,,,,,,,,,,,,,,,,,,,,,,,,,,,,,,,,,,,,,,,,,,,,,,,,,,,,,,,,,,,,,,,,,,,,,,,,
0,6,6,43,1,,60ce3ac4d251ea55f805b485,62c5394cc5861622af3fff54,2022-07-06_09h27.34.672,Colour_Asymmetry_Pilot,2022.1.3,Win32,60.29544769,62c50e9c1127f2cd403a315f,,,,,,,,,,,,,,,,,,,,,,,,,,,,,,,,,,,,,,,,,,,,,,,,,,,,,,,,,,,,,,,,,,,,,,,,,,,,,,,,,,,,,,,,,,,,,,,,,,,,,,,,,,,,,,,,,,,,,,,,,,,,,,,,,,,,,,,,,,,,,,,,,,,,,,,,,,,,,,,,,,,
0,7,7,11,1,,60ce3ac4d251ea55f805b485,62c5394cc5861622af3fff54,2022-07-06_09h27.34.672,Colour_Asymmetry_Pilot,2022.1.3,Win32,60.29544769,62c50e9c1127f2cd403a315f,,,,,,,,,,,,,,,,,,,,,,,,,,,,,,,,,,,,,,,,,,,,,,,,,,,,,,,,,,,,,,,,,,,,,,,,,,,,,,,,,,,,,,,,,,,,,,,,,,,,,,,,,,,,,,,,,,,,,,,,,,,,,,,,,,,,,,,,,,,,,,,,,,,,,,,,,,,,,,,,,,,
0,8,8,42,1,,60ce3ac4d251ea55f805b485,62c5394cc5861622af3fff54,2022-07-06_09h27.34.672,Colour_Asymmetry_Pilot,2022.1.3,Win32,60.29544769,62c50e9c1127f2cd403a315f,,,,,,,,,,,,,,,,,,,,,,,,,,,,,,,,,,,,,,,,,,,,,,,,,,,,,,,,,,,,,,,,,,,,,,,,,,,,,,,,,,,,,,,,,,,,,,,,,,,,,,,,,,,,,,,,,,,,,,,,,,,,,,,,,,,,,,,,,,,,,,,,,,,,,,,,,,,,,,,,,,,
0,9,9,4,1,,60ce3ac4d251ea55f805b485,62c5394cc5861622af3fff54,2022-07-06_09h27.34.672,Colour_Asymmetry_Pilot,2022.1.3,Win32,60.29544769,62c50e9c1127f2cd403a315f,,,,,,,,,,,,,,,,,,,,,,,,,,,,,,,,,,,,,,,,,,,,,,,,,,,,,,,,,,,,,,,,,,,,,,,,,,,,,,,,,,,,,,,,,,,,,,,,,,,,,,,,,,,,,,,,,,,,,,,,,,,,,,,,,,,,,,,,,,,,,,,,,,,,,,,,,,,,,,,,,,,
0,10,10,41,1,,60ce3ac4d251ea55f805b485,62c5394cc5861622af3fff54,2022-07-06_09h27.34.672,Colour_Asymmetry_Pilot,2022.1.3,Win32,60.29544769,62c50e9c1127f2cd403a315f,,,,,,,,,,,,,,,,,,,,,,,,,,,,,,,,,,,,,,,,,,,,,,,,,,,,,,,,,,,,,,,,,,,,,,,,,,,,,,,,,,,,,,,,,,,,,,,,,,,,,,,,,,,,,,,,,,,,,,,,,,,,,,,,,,,,,,,,,,,,,,,,,,,,,,,,,,,,,,,,,,,
0,11,11,75,1,,60ce3ac4d251ea55f805b485,62c5394cc5861622af3fff54,2022-07-06_09h27.34.672,Colour_Asymmetry_Pilot,2022.1.3,Win32,60.29544769,62c50e9c1127f2cd403a315f,,,,,,,,,,,,,,,,,,,,,,,,,,,,,,,,,,,,,,,,,,,,,,,,,,,,,,,,,,,,,,,,,,,,,,,,,,,,,,,,,,,,,,,,,,,,,,,,,,,,,,,,,,,,,,,,,,,,,,,,,,,,,,,,,,,,,,,,,,,,,,,,,,,,,,,,,,,,,,,,,,,
0,12,12,18,1,,60ce3ac4d251ea55f805b485,62c5394cc5861622af3fff54,2022-07-06_09h27.34.672,Colour_Asymmetry_Pilot,2022.1.3,Win32,60.29544769,62c50e9c1127f2cd403a315f,,,,,,,,,,,,,,,,,,,,,,,,,,,,,,,,,,,,,,,,,,,,,,,,,,,,,,,,,,,,,,,,,,,,,,,,,,,,,,,,,,,,,,,,,,,,,,,,,,,,,,,,,,,,,,,,,,,,,,,,,,,,,,,,,,,,,,,,,,,,,,,,,,,,,,,,,,,,,,,,,,,
0,13,13,31,1,,60ce3ac4d251ea55f805b485,62c5394cc5861622af3fff54,2022-07-06_09h27.34.672,Colour_Asymmetry_Pilot,2022.1.3,Win32,60.29544769,62c50e9c1127f2cd403a315f,,,,,,,,,,,,,,,,,,,,,,,,,,,,,,,,,,,,,,,,,,,,,,,,,,,,,,,,,,,,,,,,,,,,,,,,,,,,,,,,,,,,,,,,,,,,,,,,,,,,,,,,,,,,,,,,,,,,,,,,,,,,,,,,,,,,,,,,,,,,,,,,,,,,,,,,,,,,,,,,,,,
0,14,14,8,1,,60ce3ac4d251ea55f805b485,62c5394cc5861622af3fff54,2022-07-06_09h27.34.672,Colour_Asymmetry_Pilot,2022.1.3,Win32,60.29544769,62c50e9c1127f2cd403a315f,,,,,,,,,,,,,,,,,,,,,,,,,,,,,,,,,,,,,,,,,,,,,,,,,,,,,,,,,,,,,,,,,,,,,,,,,,,,,,,,,,,,,,,,,,,,,,,,,,,,,,,,,,,,,,,,,,,,,,,,,,,,,,,,,,,,,,,,,,,,,,,,,,,,,,,,,,,,,,,,,,,
0,15,15,35,1,,60ce3ac4d251ea55f805b485,62c5394cc5861622af3fff54,2022-07-06_09h27.34.672,Colour_Asymmetry_Pilot,2022.1.3,Win32,60.29544769,62c50e9c1127f2cd403a315f,,,,,,,,,,,,,,,,,,,,,,,,,,,,,,,,,,,,,,,,,,,,,,,,,,,,,,,,,,,,,,,,,,,,,,,,,,,,,,,,,,,,,,,,,,,,,,,,,,,,,,,,,,,,,,,,,,,,,,,,,,,,,,,,,,,,,,,,,,,,,,,,,,,,,,,,,,,,,,,,,,,
0,16,16,59,1,,60ce3ac4d251ea55f805b485,62c5394cc5861622af3fff54,2022-07-06_09h27.34.672,Colour_Asymmetry_Pilot,2022.1.3,Win32,60.29544769,62c50e9c1127f2cd403a315f,,,,,,,,,,,,,,,,,,,,,,,,,,,,,,,,,,,,,,,,,,,,,,,,,,,,,,,,,,,,,,,,,,,,,,,,,,,,,,,,,,,,,,,,,,,,,,,,,,,,,,,,,,,,,,,,,,,,,,,,,,,,,,,,,,,,,,,,,,,,,,,,,,,,,,,,,,,,,,,,,,,
0,17,17,12,1,,60ce3ac4d251ea55f805b485,62c5394cc5861622af3fff54,2022-07-06_09h27.34.672,Colour_Asymmetry_Pilot,2022.1.3,Win32,60.29544769,62c50e9c1127f2cd403a315f,,,,,,,,,,,,,,,,,,,,,,,,,,,,,,,,,,,,,,,,,,,,,,,,,,,,,,,,,,,,,,,,,,,,,,,,,,,,,,,,,,,,,,,,,,,,,,,,,,,,,,,,,,,,,,,,,,,,,,,,,,,,,,,,,,,,,,,,,,,,,,,,,,,,,,,,,,,,,,,,,,,
0,18,18,54,1,,60ce3ac4d251ea55f805b485,62c5394cc5861622af3fff54,2022-07-06_09h27.34.672,Colour_Asymmetry_Pilot,2022.1.3,Win32,60.29544769,62c50e9c1127f2cd403a315f,,,,,,,,,,,,,,,,,,,,,,,,,,,,,,,,,,,,,,,,,,,,,,,,,,,,,,,,,,,,,,,,,,,,,,,,,,,,,,,,,,,,,,,,,,,,,,,,,,,,,,,,,,,,,,,,,,,,,,,,,,,,,,,,,,,,,,,,,,,,,,,,,,,,,,,,,,,,,,,,,,,
0,19,19,46,1,,60ce3ac4d251ea55f805b485,62c5394cc5861622af3fff54,2022-07-06_09h27.34.672,Colour_Asymmetry_Pilot,2022.1.3,Win32,60.29544769,62c50e9c1127f2cd403a315f,,,,,,,,,,,,,,,,,,,,,,,,,,,,,,,,,,,,,,,,,,,,,,,,,,,,,,,,,,,,,,,,,,,,,,,,,,,,,,,,,,,,,,,,,,,,,,,,,,,,,,,,,,,,,,,,,,,,,,,,,,,,,,,,,,,,,,,,,,,,,,,,,,,,,,,,,,,,,,,,,,,
0,20,20,57,1,,60ce3ac4d251ea55f805b485,62c5394cc5861622af3fff54,2022-07-06_09h27.34.672,Colour_Asymmetry_Pilot,2022.1.3,Win32,60.29544769,62c50e9c1127f2cd403a315f,,,,,,,,,,,,,,,,,,,,,,,,,,,,,,,,,,,,,,,,,,,,,,,,,,,,,,,,,,,,,,,,,,,,,,,,,,,,,,,,,,,,,,,,,,,,,,,,,,,,,,,,,,,,,,,,,,,,,,,,,,,,,,,,,,,,,,,,,,,,,,,,,,,,,,,,,,,,,,,,,,,
0,21,21,16,1,,60ce3ac4d251ea55f805b485,62c5394cc5861622af3fff54,2022-07-06_09h27.34.672,Colour_Asymmetry_Pilot,2022.1.3,Win32,60.29544769,62c50e9c1127f2cd403a315f,,,,,,,,,,,,,,,,,,,,,,,,,,,,,,,,,,,,,,,,,,,,,,,,,,,,,,,,,,,,,,,,,,,,,,,,,,,,,,,,,,,,,,,,,,,,,,,,,,,,,,,,,,,,,,,,,,,,,,,,,,,,,,,,,,,,,,,,,,,,,,,,,,,,,,,,,,,,,,,,,,,
0,22,22,28,1,,60ce3ac4d251ea55f805b485,62c5394cc5861622af3fff54,2022-07-06_09h27.34.672,Colour_Asymmetry_Pilot,2022.1.3,Win32,60.29544769,62c50e9c1127f2cd403a315f,,,,,,,,,,,,,,,,,,,,,,,,,,,,,,,,,,,,,,,,,,,,,,,,,,,,,,,,,,,,,,,,,,,,,,,,,,,,,,,,,,,,,,,,,,,,,,,,,,,,,,,,,,,,,,,,,,,,,,,,,,,,,,,,,,,,,,,,,,,,,,,,,,,,,,,,,,,,,,,,,,,
0,23,23,26,1,,60ce3ac4d251ea55f805b485,62c5394cc5861622af3fff54,2022-07-06_09h27.34.672,Colour_Asymmetry_Pilot,2022.1.3,Win32,60.29544769,62c50e9c1127f2cd403a315f,,,,,,,,,,,,,,,,,,,,,,,,,,,,,,,,,,,,,,,,,,,,,,,,,,,,,,,,,,,,,,,,,,,,,,,,,,,,,,,,,,,,,,,,,,,,,,,,,,,,,,,,,,,,,,,,,,,,,,,,,,,,,,,,,,,,,,,,,,,,,,,,,,,,,,,,,,,,,,,,,,,
0,24,24,58,1,,60ce3ac4d251ea55f805b485,62c5394cc5861622af3fff54,2022-07-06_09h27.34.672,Colour_Asymmetry_Pilot,2022.1.3,Win32,60.29544769,62c50e9c1127f2cd403a315f,,,,,,,,,,,,,,,,,,,,,,,,,,,,,,,,,,,,,,,,,,,,,,,,,,,,,,,,,,,,,,,,,,,,,,,,,,,,,,,,,,,,,,,,,,,,,,,,,,,,,,,,,,,,,,,,,,,,,,,,,,,,,,,,,,,,,,,,,,,,,,,,,,,,,,,,,,,,,,,,,,,
0,25,25,17,1,,60ce3ac4d251ea55f805b485,62c5394cc5861622af3fff54,2022-07-06_09h27.34.672,Colour_Asymmetry_Pilot,2022.1.3,Win32,60.29544769,62c50e9c1127f2cd403a315f,,,,,,,,,,,,,,,,,,,,,,,,,,,,,,,,,,,,,,,,,,,,,,,,,,,,,,,,,,,,,,,,,,,,,,,,,,,,,,,,,,,,,,,,,,,,,,,,,,,,,,,,,,,,,,,,,,,,,,,,,,,,,,,,,,,,,,,,,,,,,,,,,,,,,,,,,,,,,,,,,,,
0,26,26,91,1,,60ce3ac4d251ea55f805b485,62c5394cc5861622af3fff54,2022-07-06_09h27.34.672,Colour_Asymmetry_Pilot,2022.1.3,Win32,60.29544769,62c50e9c1127f2cd403a315f,,,,,,,,,,,,,,,,,,,,,,,,,,,,,,,,,,,,,,,,,,,,,,,,,,,,,,,,,,,,,,,,,,,,,,,,,,,,,,,,,,,,,,,,,,,,,,,,,,,,,,,,,,,,,,,,,,,,,,,,,,,,,,,,,,,,,,,,,,,,,,,,,,,,,,,,,,,,,,,,,,,
0,27,27,32,1,,60ce3ac4d251ea55f805b485,62c5394cc5861622af3fff54,2022-07-06_09h27.34.672,Colour_Asymmetry_Pilot,2022.1.3,Win32,60.29544769,62c50e9c1127f2cd403a315f,,,,,,,,,,,,,,,,,,,,,,,,,,,,,,,,,,,,,,,,,,,,,,,,,,,,,,,,,,,,,,,,,,,,,,,,,,,,,,,,,,,,,,,,,,,,,,,,,,,,,,,,,,,,,,,,,,,,,,,,,,,,,,,,,,,,,,,,,,,,,,,,,,,,,,,,,,,,,,,,,,,
0,28,28,65,1,,60ce3ac4d251ea55f805b485,62c5394cc5861622af3fff54,2022-07-06_09h27.34.672,Colour_Asymmetry_Pilot,2022.1.3,Win32,60.29544769,62c50e9c1127f2cd403a315f,,,,,,,,,,,,,,,,,,,,,,,,,,,,,,,,,,,,,,,,,,,,,,,,,,,,,,,,,,,,,,,,,,,,,,,,,,,,,,,,,,,,,,,,,,,,,,,,,,,,,,,,,,,,,,,,,,,,,,,,,,,,,,,,,,,,,,,,,,,,,,,,,,,,,,,,,,,,,,,,,,,
0,29,29,67,1,,60ce3ac4d251ea55f805b485,62c5394cc5861622af3fff54,2022-07-06_09h27.34.672,Colour_Asymmetry_Pilot,2022.1.3,Win32,60.29544769,62c50e9c1127f2cd403a315f,,,,,,,,,,,,,,,,,,,,,,,,,,,,,,,,,,,,,,,,,,,,,,,,,,,,,,,,,,,,,,,,,,,,,,,,,,,,,,,,,,,,,,,,,,,,,,,,,,,,,,,,,,,,,,,,,,,,,,,,,,,,,,,,,,,,,,,,,,,,,,,,,,,,,,,,,,,,,,,,,,,
0,30,30,45,1,,60ce3ac4d251ea55f805b485,62c5394cc5861622af3fff54,2022-07-06_09h27.34.672,Colour_Asymmetry_Pilot,2022.1.3,Win32,60.29544769,62c50e9c1127f2cd403a315f,,,,,,,,,,,,,,,,,,,,,,,,,,,,,,,,,,,,,,,,,,,,,,,,,,,,,,,,,,,,,,,,,,,,,,,,,,,,,,,,,,,,,,,,,,,,,,,,,,,,,,,,,,,,,,,,,,,,,,,,,,,,,,,,,,,,,,,,,,,,,,,,,,,,,,,,,,,,,,,,,,,
0,31,31,62,1,,60ce3ac4d251ea55f805b485,62c5394cc5861622af3fff54,2022-07-06_09h27.34.672,Colour_Asymmetry_Pilot,2022.1.3,Win32,60.29544769,62c50e9c1127f2cd403a315f,,,,,,,,,,,,,,,,,,,,,,,,,,,,,,,,,,,,,,,,,,,,,,,,,,,,,,,,,,,,,,,,,,,,,,,,,,,,,,,,,,,,,,,,,,,,,,,,,,,,,,,,,,,,,,,,,,,,,,,,,,,,,,,,,,,,,,,,,,,,,,,,,,,,,,,,,,,,,,,,,,,
0,32,32,90,1,,60ce3ac4d251ea55f805b485,62c5394cc5861622af3fff54,2022-07-06_09h27.34.672,Colour_Asymmetry_Pilot,2022.1.3,Win32,60.29544769,62c50e9c1127f2cd403a315f,,,,,,,,,,,,,,,,,,,,,,,,,,,,,,,,,,,,,,,,,,,,,,,,,,,,,,,,,,,,,,,,,,,,,,,,,,,,,,,,,,,,,,,,,,,,,,,,,,,,,,,,,,,,,,,,,,,,,,,,,,,,,,,,,,,,,,,,,,,,,,,,,,,,,,,,,,,,,,,,,,,
0,33,33,70,1,,60ce3ac4d251ea55f805b485,62c5394cc5861622af3fff54,2022-07-06_09h27.34.672,Colour_Asymmetry_Pilot,2022.1.3,Win32,60.29544769,62c50e9c1127f2cd403a315f,,,,,,,,,,,,,,,,,,,,,,,,,,,,,,,,,,,,,,,,,,,,,,,,,,,,,,,,,,,,,,,,,,,,,,,,,,,,,,,,,,,,,,,,,,,,,,,,,,,,,,,,,,,,,,,,,,,,,,,,,,,,,,,,,,,,,,,,,,,,,,,,,,,,,,,,,,,,,,,,,,,
0,34,34,48,1,,60ce3ac4d251ea55f805b485,62c5394cc5861622af3fff54,2022-07-06_09h27.34.672,Colour_Asymmetry_Pilot,2022.1.3,Win32,60.29544769,62c50e9c1127f2cd403a315f,,,,,,,,,,,,,,,,,,,,,,,,,,,,,,,,,,,,,,,,,,,,,,,,,,,,,,,,,,,,,,,,,,,,,,,,,,,,,,,,,,,,,,,,,,,,,,,,,,,,,,,,,,,,,,,,,,,,,,,,,,,,,,,,,,,,,,,,,,,,,,,,,,,,,,,,,,,,,,,,,,,
0,35,35,44,1,,60ce3ac4d251ea55f805b485,62c5394cc5861622af3fff54,2022-07-06_09h27.34.672,Colour_Asymmetry_Pilot,2022.1.3,Win32,60.29544769,62c50e9c1127f2cd403a315f,,,,,,,,,,,,,,,,,,,,,,,,,,,,,,,,,,,,,,,,,,,,,,,,,,,,,,,,,,,,,,,,,,,,,,,,,,,,,,,,,,,,,,,,,,,,,,,,,,,,,,,,,,,,,,,,,,,,,,,,,,,,,,,,,,,,,,,,,,,,,,,,,,,,,,,,,,,,,,,,,,,
0,36,36,47,1,,60ce3ac4d251ea55f805b485,62c5394cc5861622af3fff54,2022-07-06_09h27.34.672,Colour_Asymmetry_Pilot,2022.1.3,Win32,60.29544769,62c50e9c1127f2cd403a315f,,,,,,,,,,,,,,,,,,,,,,,,,,,,,,,,,,,,,,,,,,,,,,,,,,,,,,,,,,,,,,,,,,,,,,,,,,,,,,,,,,,,,,,,,,,,,,,,,,,,,,,,,,,,,,,,,,,,,,,,,,,,,,,,,,,,,,,,,,,,,,,,,,,,,,,,,,,,,,,,,,,
0,37,37,63,1,,60ce3ac4d251ea55f805b485,62c5394cc5861622af3fff54,2022-07-06_09h27.34.672,Colour_Asymmetry_Pilot,2022.1.3,Win32,60.29544769,62c50e9c1127f2cd403a315f,,,,,,,,,,,,,,,,,,,,,,,,,,,,,,,,,,,,,,,,,,,,,,,,,,,,,,,,,,,,,,,,,,,,,,,,,,,,,,,,,,,,,,,,,,,,,,,,,,,,,,,,,,,,,,,,,,,,,,,,,,,,,,,,,,,,,,,,,,,,,,,,,,,,,,,,,,,,,,,,,,,
0,38,38,25,1,,60ce3ac4d251ea55f805b485,62c5394cc5861622af3fff54,2022-07-06_09h27.34.672,Colour_Asymmetry_Pilot,2022.1.3,Win32,60.29544769,62c50e9c1127f2cd403a315f,,,,,,,,,,,,,,,,,,,,,,,,,,,,,,,,,,,,,,,,,,,,,,,,,,,,,,,,,,,,,,,,,,,,,,,,,,,,,,,,,,,,,,,,,,,,,,,,,,,,,,,,,,,,,,,,,,,,,,,,,,,,,,,,,,,,,,,,,,,,,,,,,,,,,,,,,,,,,,,,,,,
0,39,39,55,1,,60ce3ac4d251ea55f805b485,62c5394cc5861622af3fff54,2022-07-06_09h27.34.672,Colour_Asymmetry_Pilot,2022.1.3,Win32,60.29544769,62c50e9c1127f2cd403a315f,,,,,,,,,,,,,,,,,,,,,,,,,,,,,,,,,,,,,,,,,,,,,,,,,,,,,,,,,,,,,,,,,,,,,,,,,,,,,,,,,,,,,,,,,,,,,,,,,,,,,,,,,,,,,,,,,,,,,,,,,,,,,,,,,,,,,,,,,,,,,,,,,,,,,,,,,,,,,,,,,,,
0,40,40,10,1,,60ce3ac4d251ea55f805b485,62c5394cc5861622af3fff54,2022-07-06_09h27.34.672,Colour_Asymmetry_Pilot,2022.1.3,Win32,60.29544769,62c50e9c1127f2cd403a315f,,,,,,,,,,,,,,,,,,,,,,,,,,,,,,,,,,,,,,,,,,,,,,,,,,,,,,,,,,,,,,,,,,,,,,,,,,,,,,,,,,,,,,,,,,,,,,,,,,,,,,,,,,,,,,,,,,,,,,,,,,,,,,,,,,,,,,,,,,,,,,,,,,,,,,,,,,,,,,,,,,,
0,41,41,36,1,,60ce3ac4d251ea55f805b485,62c5394cc5861622af3fff54,2022-07-06_09h27.34.672,Colour_Asymmetry_Pilot,2022.1.3,Win32,60.29544769,62c50e9c1127f2cd403a315f,,,,,,,,,,,,,,,,,,,,,,,,,,,,,,,,,,,,,,,,,,,,,,,,,,,,,,,,,,,,,,,,,,,,,,,,,,,,,,,,,,,,,,,,,,,,,,,,,,,,,,,,,,,,,,,,,,,,,,,,,,,,,,,,,,,,,,,,,,,,,,,,,,,,,,,,,,,,,,,,,,,
0,42,42,30,1,,60ce3ac4d251ea55f805b485,62c5394cc5861622af3fff54,2022-07-06_09h27.34.672,Colour_Asymmetry_Pilot,2022.1.3,Win32,60.29544769,62c50e9c1127f2cd403a315f,,,,,,,,,,,,,,,,,,,,,,,,,,,,,,,,,,,,,,,,,,,,,,,,,,,,,,,,,,,,,,,,,,,,,,,,,,,,,,,,,,,,,,,,,,,,,,,,,,,,,,,,,,,,,,,,,,,,,,,,,,,,,,,,,,,,,,,,,,,,,,,,,,,,,,,,,,,,,,,,,,,
0,43,43,60,1,,60ce3ac4d251ea55f805b485,62c5394cc5861622af3fff54,2022-07-06_09h27.34.672,Colour_Asymmetry_Pilot,2022.1.3,Win32,60.29544769,62c50e9c1127f2cd403a315f,,,,,,,,,,,,,,,,,,,,,,,,,,,,,,,,,,,,,,,,,,,,,,,,,,,,,,,,,,,,,,,,,,,,,,,,,,,,,,,,,,,,,,,,,,,,,,,,,,,,,,,,,,,,,,,,,,,,,,,,,,,,,,,,,,,,,,,,,,,,,,,,,,,,,,,,,,,,,,,,,,,
0,44,44,52,1,,60ce3ac4d251ea55f805b485,62c5394cc5861622af3fff54,2022-07-06_09h27.34.672,Colour_Asymmetry_Pilot,2022.1.3,Win32,60.29544769,62c50e9c1127f2cd403a315f,,,,,,,,,,,,,,,,,,,,,,,,,,,,,,,,,,,,,,,,,,,,,,,,,,,,,,,,,,,,,,,,,,,,,,,,,,,,,,,,,,,,,,,,,,,,,,,,,,,,,,,,,,,,,,,,,,,,,,,,,,,,,,,,,,,,,,,,,,,,,,,,,,,,,,,,,,,,,,,,,,,
0,45,45,69,1,,60ce3ac4d251ea55f805b485,62c5394cc5861622af3fff54,2022-07-06_09h27.34.672,Colour_Asymmetry_Pilot,2022.1.3,Win32,60.29544769,62c50e9c1127f2cd403a315f,,,,,,,,,,,,,,,,,,,,,,,,,,,,,,,,,,,,,,,,,,,,,,,,,,,,,,,,,,,,,,,,,,,,,,,,,,,,,,,,,,,,,,,,,,,,,,,,,,,,,,,,,,,,,,,,,,,,,,,,,,,,,,,,,,,,,,,,,,,,,,,,,,,,,,,,,,,,,,,,,,,
0,46,46,24,1,,60ce3ac4d251ea55f805b485,62c5394cc5861622af3fff54,2022-07-06_09h27.34.672,Colour_Asymmetry_Pilot,2022.1.3,Win32,60.29544769,62c50e9c1127f2cd403a315f,,,,,,,,,,,,,,,,,,,,,,,,,,,,,,,,,,,,,,,,,,,,,,,,,,,,,,,,,,,,,,,,,,,,,,,,,,,,,,,,,,,,,,,,,,,,,,,,,,,,,,,,,,,,,,,,,,,,,,,,,,,,,,,,,,,,,,,,,,,,,,,,,,,,,,,,,,,,,,,,,,,
0,47,47,27,1,,60ce3ac4d251ea55f805b485,62c5394cc5861622af3fff54,2022-07-06_09h27.34.672,Colour_Asymmetry_Pilot,2022.1.3,Win32,60.29544769,62c50e9c1127f2cd403a315f,,,,,,,,,,,,,,,,,,,,,,,,,,,,,,,,,,,,,,,,,,,,,,,,,,,,,,,,,,,,,,,,,,,,,,,,,,,,,,,,,,,,,,,,,,,,,,,,,,,,,,,,,,,,,,,,,,,,,,,,,,,,,,,,,,,,,,,,,,,,,,,,,,,,,,,,,,,,,,,,,,,
0,48,48,83,1,,60ce3ac4d251ea55f805b485,62c5394cc5861622af3fff54,2022-07-06_09h27.34.672,Colour_Asymmetry_Pilot,2022.1.3,Win32,60.29544769,62c50e9c1127f2cd403a315f,,,,,,,,,,,,,,,,,,,,,,,,,,,,,,,,,,,,,,,,,,,,,,,,,,,,,,,,,,,,,,,,,,,,,,,,,,,,,,,,,,,,,,,,,,,,,,,,,,,,,,,,,,,,,,,,,,,,,,,,,,,,,,,,,,,,,,,,,,,,,,,,,,,,,,,,,,,,,,,,,,,
0,49,49,64,1,,60ce3ac4d251ea55f805b485,62c5394cc5861622af3fff54,2022-07-06_09h27.34.672,Colour_Asymmetry_Pilot,2022.1.3,Win32,60.29544769,62c50e9c1127f2cd403a315f,,,,,,,,,,,,,,,,,,,,,,,,,,,,,,,,,,,,,,,,,,,,,,,,,,,,,,,,,,,,,,,,,,,,,,,,,,,,,,,,,,,,,,,,,,,,,,,,,,,,,,,,,,,,,,,,,,,,,,,,,,,,,,,,,,,,,,,,,,,,,,,,,,,,,,,,,,,,,,,,,,,
0,50,50,22,1,,60ce3ac4d251ea55f805b485,62c5394cc5861622af3fff54,2022-07-06_09h27.34.672,Colour_Asymmetry_Pilot,2022.1.3,Win32,60.29544769,62c50e9c1127f2cd403a315f,,,,,,,,,,,,,,,,,,,,,,,,,,,,,,,,,,,,,,,,,,,,,,,,,,,,,,,,,,,,,,,,,,,,,,,,,,,,,,,,,,,,,,,,,,,,,,,,,,,,,,,,,,,,,,,,,,,,,,,,,,,,,,,,,,,,,,,,,,,,,,,,,,,,,,,,,,,,,,,,,,,
0,51,51,9,1,,60ce3ac4d251ea55f805b485,62c5394cc5861622af3fff54,2022-07-06_09h27.34.672,Colour_Asymmetry_Pilot,2022.1.3,Win32,60.29544769,62c50e9c1127f2cd403a315f,,,,,,,,,,,,,,,,,,,,,,,,,,,,,,,,,,,,,,,,,,,,,,,,,,,,,,,,,,,,,,,,,,,,,,,,,,,,,,,,,,,,,,,,,,,,,,,,,,,,,,,,,,,,,,,,,,,,,,,,,,,,,,,,,,,,,,,,,,,,,,,,,,,,,,,,,,,,,,,,,,,
0,52,52,68,1,,60ce3ac4d251ea55f805b485,62c5394cc5861622af3fff54,2022-07-06_09h27.34.672,Colour_Asymmetry_Pilot,2022.1.3,Win32,60.29544769,62c50e9c1127f2cd403a315f,,,,,,,,,,,,,,,,,,,,,,,,,,,,,,,,,,,,,,,,,,,,,,,,,,,,,,,,,,,,,,,,,,,,,,,,,,,,,,,,,,,,,,,,,,,,,,,,,,,,,,,,,,,,,,,,,,,,,,,,,,,,,,,,,,,,,,,,,,,,,,,,,,,,,,,,,,,,,,,,,,,
0,53,53,1,1,,60ce3ac4d251ea55f805b485,62c5394cc5861622af3fff54,2022-07-06_09h27.34.672,Colour_Asymmetry_Pilot,2022.1.3,Win32,60.29544769,62c50e9c1127f2cd403a315f,,,,,,,,,,,,,,,,,,,,,,,,,,,,,,,,,,,,,,,,,,,,,,,,,,,,,,,,,,,,,,,,,,,,,,,,,,,,,,,,,,,,,,,,,,,,,,,,,,,,,,,,,,,,,,,,,,,,,,,,,,,,,,,,,,,,,,,,,,,,,,,,,,,,,,,,,,,,,,,,,,,
0,54,54,3,1,,60ce3ac4d251ea55f805b485,62c5394cc5861622af3fff54,2022-07-06_09h27.34.672,Colour_Asymmetry_Pilot,2022.1.3,Win32,60.29544769,62c50e9c1127f2cd403a315f,,,,,,,,,,,,,,,,,,,,,,,,,,,,,,,,,,,,,,,,,,,,,,,,,,,,,,,,,,,,,,,,,,,,,,,,,,,,,,,,,,,,,,,,,,,,,,,,,,,,,,,,,,,,,,,,,,,,,,,,,,,,,,,,,,,,,,,,,,,,,,,,,,,,,,,,,,,,,,,,,,,
0,55,55,34,1,,60ce3ac4d251ea55f805b485,62c5394cc5861622af3fff54,2022-07-06_09h27.34.672,Colour_Asymmetry_Pilot,2022.1.3,Win32,60.29544769,62c50e9c1127f2cd403a315f,,,,,,,,,,,,,,,,,,,,,,,,,,,,,,,,,,,,,,,,,,,,,,,,,,,,,,,,,,,,,,,,,,,,,,,,,,,,,,,,,,,,,,,,,,,,,,,,,,,,,,,,,,,,,,,,,,,,,,,,,,,,,,,,,,,,,,,,,,,,,,,,,,,,,,,,,,,,,,,,,,,
0,56,56,20,1,,60ce3ac4d251ea55f805b485,62c5394cc5861622af3fff54,2022-07-06_09h27.34.672,Colour_Asymmetry_Pilot,2022.1.3,Win32,60.29544769,62c50e9c1127f2cd403a315f,,,,,,,,,,,,,,,,,,,,,,,,,,,,,,,,,,,,,,,,,,,,,,,,,,,,,,,,,,,,,,,,,,,,,,,,,,,,,,,,,,,,,,,,,,,,,,,,,,,,,,,,,,,,,,,,,,,,,,,,,,,,,,,,,,,,,,,,,,,,,,,,,,,,,,,,,,,,,,,,,,,
0,57,57,0,1,,60ce3ac4d251ea55f805b485,62c5394cc5861622af3fff54,2022-07-06_09h27.34.672,Colour_Asymmetry_Pilot,2022.1.3,Win32,60.29544769,62c50e9c1127f2cd403a315f,,,,,,,,,,,,,,,,,,,,,,,,,,,,,,,,,,,,,,,,,,,,,,,,,,,,,,,,,,,,,,,,,,,,,,,,,,,,,,,,,,,,,,,,,,,,,,,,,,,,,,,,,,,,,,,,,,,,,,,,,,,,,,,,,,,,,,,,,,,,,,,,,,,,,,,,,,,,,,,,,,,
0,58,58,37,1,,60ce3ac4d251ea55f805b485,62c5394cc5861622af3fff54,2022-07-06_09h27.34.672,Colour_Asymmetry_Pilot,2022.1.3,Win32,60.29544769,62c50e9c1127f2cd403a315f,,,,,,,,,,,,,,,,,,,,,,,,,,,,,,,,,,,,,,,,,,,,,,,,,,,,,,,,,,,,,,,,,,,,,,,,,,,,,,,,,,,,,,,,,,,,,,,,,,,,,,,,,,,,,,,,,,,,,,,,,,,,,,,,,,,,,,,,,,,,,,,,,,,,,,,,,,,,,,,,,,,
0,59,59,23,1,,60ce3ac4d251ea55f805b485,62c5394cc5861622af3fff54,2022-07-06_09h27.34.672,Colour_Asymmetry_Pilot,2022.1.3,Win32,60.29544769,62c50e9c1127f2cd403a315f,,,,,,,,,,,,,,,,,,,,,,,,,,,,,,,,,,,,,,,,,,,,,,,,,,,,,,,,,,,,,,,,,,,,,,,,,,,,,,,,,,,,,,,,,,,,,,,,,,,,,,,,,,,,,,,,,,,,,,,,,,,,,,,,,,,,,,,,,,,,,,,,,,,,,,,,,,,,,,,,,,,
0,60,60,84,1,,60ce3ac4d251ea55f805b485,62c5394cc5861622af3fff54,2022-07-06_09h27.34.672,Colour_Asymmetry_Pilot,2022.1.3,Win32,60.29544769,62c50e9c1127f2cd403a315f,,,,,,,,,,,,,,,,,,,,,,,,,,,,,,,,,,,,,,,,,,,,,,,,,,,,,,,,,,,,,,,,,,,,,,,,,,,,,,,,,,,,,,,,,,,,,,,,,,,,,,,,,,,,,,,,,,,,,,,,,,,,,,,,,,,,,,,,,,,,,,,,,,,,,,,,,,,,,,,,,,,
0,61,61,7,1,,60ce3ac4d251ea55f805b485,62c5394cc5861622af3fff54,2022-07-06_09h27.34.672,Colour_Asymmetry_Pilot,2022.1.3,Win32,60.29544769,62c50e9c1127f2cd403a315f,,,,,,,,,,,,,,,,,,,,,,,,,,,,,,,,,,,,,,,,,,,,,,,,,,,,,,,,,,,,,,,,,,,,,,,,,,,,,,,,,,,,,,,,,,,,,,,,,,,,,,,,,,,,,,,,,,,,,,,,,,,,,,,,,,,,,,,,,,,,,,,,,,,,,,,,,,,,,,,,,,,
0,62,62,80,1,,60ce3ac4d251ea55f805b485,62c5394cc5861622af3fff54,2022-07-06_09h27.34.672,Colour_Asymmetry_Pilot,2022.1.3,Win32,60.29544769,62c50e9c1127f2cd403a315f,,,,,,,,,,,,,,,,,,,,,,,,,,,,,,,,,,,,,,,,,,,,,,,,,,,,,,,,,,,,,,,,,,,,,,,,,,,,,,,,,,,,,,,,,,,,,,,,,,,,,,,,,,,,,,,,,,,,,,,,,,,,,,,,,,,,,,,,,,,,,,,,,,,,,,,,,,,,,,,,,,,
0,63,63,87,1,,60ce3ac4d251ea55f805b485,62c5394cc5861622af3fff54,2022-07-06_09h27.34.672,Colour_Asymmetry_Pilot,2022.1.3,Win32,60.29544769,62c50e9c1127f2cd403a315f,,,,,,,,,,,,,,,,,,,,,,,,,,,,,,,,,,,,,,,,,,,,,,,,,,,,,,,,,,,,,,,,,,,,,,,,,,,,,,,,,,,,,,,,,,,,,,,,,,,,,,,,,,,,,,,,,,,,,,,,,,,,,,,,,,,,,,,,,,,,,,,,,,,,,,,,,,,,,,,,,,,
0,64,64,79,1,,60ce3ac4d251ea55f805b485,62c5394cc5861622af3fff54,2022-07-06_09h27.34.672,Colour_Asymmetry_Pilot,2022.1.3,Win32,60.29544769,62c50e9c1127f2cd403a315f,,,,,,,,,,,,,,,,,,,,,,,,,,,,,,,,,,,,,,,,,,,,,,,,,,,,,,,,,,,,,,,,,,,,,,,,,,,,,,,,,,,,,,,,,,,,,,,,,,,,,,,,,,,,,,,,,,,,,,,,,,,,,,,,,,,,,,,,,,,,,,,,,,,,,,,,,,,,,,,,,,,
0,65,65,13,1,,60ce3ac4d251ea55f805b485,62c5394cc5861622af3fff54,2022-07-06_09h27.34.672,Colour_Asymmetry_Pilot,2022.1.3,Win32,60.29544769,62c50e9c1127f2cd403a315f,,,,,,,,,,,,,,,,,,,,,,,,,,,,,,,,,,,,,,,,,,,,,,,,,,,,,,,,,,,,,,,,,,,,,,,,,,,,,,,,,,,,,,,,,,,,,,,,,,,,,,,,,,,,,,,,,,,,,,,,,,,,,,,,,,,,,,,,,,,,,,,,,,,,,,,,,,,,,,,,,,,
0,66,66,78,1,,60ce3ac4d251ea55f805b485,62c5394cc5861622af3fff54,2022-07-06_09h27.34.672,Colour_Asymmetry_Pilot,2022.1.3,Win32,60.29544769,62c50e9c1127f2cd403a315f,,,,,,,,,,,,,,,,,,,,,,,,,,,,,,,,,,,,,,,,,,,,,,,,,,,,,,,,,,,,,,,,,,,,,,,,,,,,,,,,,,,,,,,,,,,,,,,,,,,,,,,,,,,,,,,,,,,,,,,,,,,,,,,,,,,,,,,,,,,,,,,,,,,,,,,,,,,,,,,,,,,
0,67,67,89,1,,60ce3ac4d251ea55f805b485,62c5394cc5861622af3fff54,2022-07-06_09h27.34.672,Colour_Asymmetry_Pilot,2022.1.3,Win32,60.29544769,62c50e9c1127f2cd403a315f,,,,,,,,,,,,,,,,,,,,,,,,,,,,,,,,,,,,,,,,,,,,,,,,,,,,,,,,,,,,,,,,,,,,,,,,,,,,,,,,,,,,,,,,,,,,,,,,,,,,,,,,,,,,,,,,,,,,,,,,,,,,,,,,,,,,,,,,,,,,,,,,,,,,,,,,,,,,,,,,,,,
0,68,68,74,1,,60ce3ac4d251ea55f805b485,62c5394cc5861622af3fff54,2022-07-06_09h27.34.672,Colour_Asymmetry_Pilot,2022.1.3,Win32,60.29544769,62c50e9c1127f2cd403a315f,,,,,,,,,,,,,,,,,,,,,,,,,,,,,,,,,,,,,,,,,,,,,,,,,,,,,,,,,,,,,,,,,,,,,,,,,,,,,,,,,,,,,,,,,,,,,,,,,,,,,,,,,,,,,,,,,,,,,,,,,,,,,,,,,,,,,,,,,,,,,,,,,,,,,,,,,,,,,,,,,,,
0,69,69,49,1,,60ce3ac4d251ea55f805b485,62c5394cc5861622af3fff54,2022-07-06_09h27.34.672,Colour_Asymmetry_Pilot,2022.1.3,Win32,60.29544769,62c50e9c1127f2cd403a315f,,,,,,,,,,,,,,,,,,,,,,,,,,,,,,,,,,,,,,,,,,,,,,,,,,,,,,,,,,,,,,,,,,,,,,,,,,,,,,,,,,,,,,,,,,,,,,,,,,,,,,,,,,,,,,,,,,,,,,,,,,,,,,,,,,,,,,,,,,,,,,,,,,,,,,,,,,,,,,,,,,,
0,70,70,6,1,,60ce3ac4d251ea55f805b485,62c5394cc5861622af3fff54,2022-07-06_09h27.34.672,Colour_Asymmetry_Pilot,2022.1.3,Win32,60.29544769,62c50e9c1127f2cd403a315f,,,,,,,,,,,,,,,,,,,,,,,,,,,,,,,,,,,,,,,,,,,,,,,,,,,,,,,,,,,,,,,,,,,,,,,,,,,,,,,,,,,,,,,,,,,,,,,,,,,,,,,,,,,,,,,,,,,,,,,,,,,,,,,,,,,,,,,,,,,,,,,,,,,,,,,,,,,,,,,,,,,
0,71,71,2,1,,60ce3ac4d251ea55f805b485,62c5394cc5861622af3fff54,2022-07-06_09h27.34.672,Colour_Asymmetry_Pilot,2022.1.3,Win32,60.29544769,62c50e9c1127f2cd403a315f,,,,,,,,,,,,,,,,,,,,,,,,,,,,,,,,,,,,,,,,,,,,,,,,,,,,,,,,,,,,,,,,,,,,,,,,,,,,,,,,,,,,,,,,,,,,,,,,,,,,,,,,,,,,,,,,,,,,,,,,,,,,,,,,,,,,,,,,,,,,,,,,,,,,,,,,,,,,,,,,,,,
0,72,72,15,1,,60ce3ac4d251ea55f805b485,62c5394cc5861622af3fff54,2022-07-06_09h27.34.672,Colour_Asymmetry_Pilot,2022.1.3,Win32,60.29544769,62c50e9c1127f2cd403a315f,,,,,,,,,,,,,,,,,,,,,,,,,,,,,,,,,,,,,,,,,,,,,,,,,,,,,,,,,,,,,,,,,,,,,,,,,,,,,,,,,,,,,,,,,,,,,,,,,,,,,,,,,,,,,,,,,,,,,,,,,,,,,,,,,,,,,,,,,,,,,,,,,,,,,,,,,,,,,,,,,,,
0,73,73,73,1,,60ce3ac4d251ea55f805b485,62c5394cc5861622af3fff54,2022-07-06_09h27.34.672,Colour_Asymmetry_Pilot,2022.1.3,Win32,60.29544769,62c50e9c1127f2cd403a315f,,,,,,,,,,,,,,,,,,,,,,,,,,,,,,,,,,,,,,,,,,,,,,,,,,,,,,,,,,,,,,,,,,,,,,,,,,,,,,,,,,,,,,,,,,,,,,,,,,,,,,,,,,,,,,,,,,,,,,,,,,,,,,,,,,,,,,,,,,,,,,,,,,,,,,,,,,,,,,,,,,,
0,74,74,81,1,,60ce3ac4d251ea55f805b485,62c5394cc5861622af3fff54,2022-07-06_09h27.34.672,Colour_Asymmetry_Pilot,2022.1.3,Win32,60.29544769,62c50e9c1127f2cd403a315f,,,,,,,,,,,,,,,,,,,,,,,,,,,,,,,,,,,,,,,,,,,,,,,,,,,,,,,,,,,,,,,,,,,,,,,,,,,,,,,,,,,,,,,,,,,,,,,,,,,,,,,,,,,,,,,,,,,,,,,,,,,,,,,,,,,,,,,,,,,,,,,,,,,,,,,,,,,,,,,,,,,
0,75,75,85,1,,60ce3ac4d251ea55f805b485,62c5394cc5861622af3fff54,2022-07-06_09h27.34.672,Colour_Asymmetry_Pilot,2022.1.3,Win32,60.29544769,62c50e9c1127f2cd403a315f,,,,,,,,,,,,,,,,,,,,,,,,,,,,,,,,,,,,,,,,,,,,,,,,,,,,,,,,,,,,,,,,,,,,,,,,,,,,,,,,,,,,,,,,,,,,,,,,,,,,,,,,,,,,,,,,,,,,,,,,,,,,,,,,,,,,,,,,,,,,,,,,,,,,,,,,,,,,,,,,,,,
0,76,76,29,1,,60ce3ac4d251ea55f805b485,62c5394cc5861622af3fff54,2022-07-06_09h27.34.672,Colour_Asymmetry_Pilot,2022.1.3,Win32,60.29544769,62c50e9c1127f2cd403a315f,,,,,,,,,,,,,,,,,,,,,,,,,,,,,,,,,,,,,,,,,,,,,,,,,,,,,,,,,,,,,,,,,,,,,,,,,,,,,,,,,,,,,,,,,,,,,,,,,,,,,,,,,,,,,,,,,,,,,,,,,,,,,,,,,,,,,,,,,,,,,,,,,,,,,,,,,,,,,,,,,,,
0,77,77,86,1,,60ce3ac4d251ea55f805b485,62c5394cc5861622af3fff54,2022-07-06_09h27.34.672,Colour_Asymmetry_Pilot,2022.1.3,Win32,60.29544769,62c50e9c1127f2cd403a315f,,,,,,,,,,,,,,,,,,,,,,,,,,,,,,,,,,,,,,,,,,,,,,,,,,,,,,,,,,,,,,,,,,,,,,,,,,,,,,,,,,,,,,,,,,,,,,,,,,,,,,,,,,,,,,,,,,,,,,,,,,,,,,,,,,,,,,,,,,,,,,,,,,,,,,,,,,,,,,,,,,,
0,78,78,39,1,,60ce3ac4d251ea55f805b485,62c5394cc5861622af3fff54,2022-07-06_09h27.34.672,Colour_Asymmetry_Pilot,2022.1.3,Win32,60.29544769,62c50e9c1127f2cd403a315f,,,,,,,,,,,,,,,,,,,,,,,,,,,,,,,,,,,,,,,,,,,,,,,,,,,,,,,,,,,,,,,,,,,,,,,,,,,,,,,,,,,,,,,,,,,,,,,,,,,,,,,,,,,,,,,,,,,,,,,,,,,,,,,,,,,,,,,,,,,,,,,,,,,,,,,,,,,,,,,,,,,
0,79,79,14,1,,60ce3ac4d251ea55f805b485,62c5394cc5861622af3fff54,2022-07-06_09h27.34.672,Colour_Asymmetry_Pilot,2022.1.3,Win32,60.29544769,62c50e9c1127f2cd403a315f,,,,,,,,,,,,,,,,,,,,,,,,,,,,,,,,,,,,,,,,,,,,,,,,,,,,,,,,,,,,,,,,,,,,,,,,,,,,,,,,,,,,,,,,,,,,,,,,,,,,,,,,,,,,,,,,,,,,,,,,,,,,,,,,,,,,,,,,,,,,,,,,,,,,,,,,,,,,,,,,,,,
0,80,80,21,1,,60ce3ac4d251ea55f805b485,62c5394cc5861622af3fff54,2022-07-06_09h27.34.672,Colour_Asymmetry_Pilot,2022.1.3,Win32,60.29544769,62c50e9c1127f2cd403a315f,,,,,,,,,,,,,,,,,,,,,,,,,,,,,,,,,,,,,,,,,,,,,,,,,,,,,,,,,,,,,,,,,,,,,,,,,,,,,,,,,,,,,,,,,,,,,,,,,,,,,,,,,,,,,,,,,,,,,,,,,,,,,,,,,,,,,,,,,,,,,,,,,,,,,,,,,,,,,,,,,,,
0,81,81,88,1,,60ce3ac4d251ea55f805b485,62c5394cc5861622af3fff54,2022-07-06_09h27.34.672,Colour_Asymmetry_Pilot,2022.1.3,Win32,60.29544769,62c50e9c1127f2cd403a315f,,,,,,,,,,,,,,,,,,,,,,,,,,,,,,,,,,,,,,,,,,,,,,,,,,,,,,,,,,,,,,,,,,,,,,,,,,,,,,,,,,,,,,,,,,,,,,,,,,,,,,,,,,,,,,,,,,,,,,,,,,,,,,,,,,,,,,,,,,,,,,,,,,,,,,,,,,,,,,,,,,,
0,82,82,50,1,,60ce3ac4d251ea55f805b485,62c5394cc5861622af3fff54,2022-07-06_09h27.34.672,Colour_Asymmetry_Pilot,2022.1.3,Win32,60.29544769,62c50e9c1127f2cd403a315f,,,,,,,,,,,,,,,,,,,,,,,,,,,,,,,,,,,,,,,,,,,,,,,,,,,,,,,,,,,,,,,,,,,,,,,,,,,,,,,,,,,,,,,,,,,,,,,,,,,,,,,,,,,,,,,,,,,,,,,,,,,,,,,,,,,,,,,,,,,,,,,,,,,,,,,,,,,,,,,,,,,
0,83,83,40,1,,60ce3ac4d251ea55f805b485,62c5394cc5861622af3fff54,2022-07-06_09h27.34.672,Colour_Asymmetry_Pilot,2022.1.3,Win32,60.29544769,62c50e9c1127f2cd403a315f,,,,,,,,,,,,,,,,,,,,,,,,,,,,,,,,,,,,,,,,,,,,,,,,,,,,,,,,,,,,,,,,,,,,,,,,,,,,,,,,,,,,,,,,,,,,,,,,,,,,,,,,,,,,,,,,,,,,,,,,,,,,,,,,,,,,,,,,,,,,,,,,,,,,,,,,,,,,,,,,,,,
0,84,84,51,1,,60ce3ac4d251ea55f805b485,62c5394cc5861622af3fff54,2022-07-06_09h27.34.672,Colour_Asymmetry_Pilot,2022.1.3,Win32,60.29544769,62c50e9c1127f2cd403a315f,,,,,,,,,,,,,,,,,,,,,,,,,,,,,,,,,,,,,,,,,,,,,,,,,,,,,,,,,,,,,,,,,,,,,,,,,,,,,,,,,,,,,,,,,,,,,,,,,,,,,,,,,,,,,,,,,,,,,,,,,,,,,,,,,,,,,,,,,,,,,,,,,,,,,,,,,,,,,,,,,,,
0,85,85,72,1,,60ce3ac4d251ea55f805b485,62c5394cc5861622af3fff54,2022-07-06_09h27.34.672,Colour_Asymmetry_Pilot,2022.1.3,Win32,60.29544769,62c50e9c1127f2cd403a315f,,,,,,,,,,,,,,,,,,,,,,,,,,,,,,,,,,,,,,,,,,,,,,,,,,,,,,,,,,,,,,,,,,,,,,,,,,,,,,,,,,,,,,,,,,,,,,,,,,,,,,,,,,,,,,,,,,,,,,,,,,,,,,,,,,,,,,,,,,,,,,,,,,,,,,,,,,,,,,,,,,,
0,86,86,77,1,,60ce3ac4d251ea55f805b485,62c5394cc5861622af3fff54,2022-07-06_09h27.34.672,Colour_Asymmetry_Pilot,2022.1.3,Win32,60.29544769,62c50e9c1127f2cd403a315f,,,,,,,,,,,,,,,,,,,,,,,,,,,,,,,,,,,,,,,,,,,,,,,,,,,,,,,,,,,,,,,,,,,,,,,,,,,,,,,,,,,,,,,,,,,,,,,,,,,,,,,,,,,,,,,,,,,,,,,,,,,,,,,,,,,,,,,,,,,,,,,,,,,,,,,,,,,,,,,,,,,
0,87,87,82,1,,60ce3ac4d251ea55f805b485,62c5394cc5861622af3fff54,2022-07-06_09h27.34.672,Colour_Asymmetry_Pilot,2022.1.3,Win32,60.29544769,62c50e9c1127f2cd403a315f,,,,,,,,,,,,,,,,,,,,,,,,,,,,,,,,,,,,,,,,,,,,,,,,,,,,,,,,,,,,,,,,,,,,,,,,,,,,,,,,,,,,,,,,,,,,,,,,,,,,,,,,,,,,,,,,,,,,,,,,,,,,,,,,,,,,,,,,,,,,,,,,,,,,,,,,,,,,,,,,,,,
0,88,88,71,1,,60ce3ac4d251ea55f805b485,62c5394cc5861622af3fff54,2022-07-06_09h27.34.672,Colour_Asymmetry_Pilot,2022.1.3,Win32,60.29544769,62c50e9c1127f2cd403a315f,,,,,,,,,,,,,,,,,,,,,,,,,,,,,,,,,,,,,,,,,,,,,,,,,,,,,,,,,,,,,,,,,,,,,,,,,,,,,,,,,,,,,,,,,,,,,,,,,,,,,,,,,,,,,,,,,,,,,,,,,,,,,,,,,,,,,,,,,,,,,,,,,,,,,,,,,,,,,,,,,,,
0,89,89,38,1,,60ce3ac4d251ea55f805b485,62c5394cc5861622af3fff54,2022-07-06_09h27.34.672,Colour_Asymmetry_Pilot,2022.1.3,Win32,60.29544769,62c50e9c1127f2cd403a315f,,,,,,,,,,,,,,,,,,,,,,,,,,,,,,,,,,,,,,,,,,,,,,,,,,,,,,,,,,,,,,,,,,,,,,,,,,,,,,,,,,,,,,,,,,,,,,,,,,,,,,,,,,,,,,,,,,,,,,,,,,,,,,,,,,,,,,,,,,,,,,,,,,,,,,,,,,,,,,,,,,,
0,90,90,92,1,,60ce3ac4d251ea55f805b485,62c5394cc5861622af3fff54,2022-07-06_09h27.34.672,Colour_Asymmetry_Pilot,2022.1.3,Win32,60.29544769,62c50e9c1127f2cd403a315f,,,,,,,,,,,,,,,,,,,,,,,,,,,,,,,,,,,,,,,,,,,,,,,,,,,,,,,,,,,,,,,,,,,,,,,,,,,,,,,,,,,,,,,,,,,,,,,,,,,,,,,,,,,,,,,,,,,,,,,,,,,,,,,,,,,,,,,,,,,,,,,,,,,,,,,,,,,,,,,,,,,
0,91,91,76,1,,60ce3ac4d251ea55f805b485,62c5394cc5861622af3fff54,2022-07-06_09h27.34.672,Colour_Asymmetry_Pilot,2022.1.3,Win32,60.29544769,62c50e9c1127f2cd403a315f,,,,,,,,,,,,,,,,,,,,,,,,,,,,,,,,,,,,,,,,,,,,,,,,,,,,,,,,,,,,,,,,,,,,,,,,,,,,,,,,,,,,,,,,,,,,,,,,,,,,,,,,,,,,,,,,,,,,,,,,,,,,,,,,,,,,,,,,,,,,,,,,,,,,,,,,,,,,,,,,,,,
0,92,92,53,1,,60ce3ac4d251ea55f805b485,62c5394cc5861622af3fff54,2022-07-06_09h27.34.672,Colour_Asymmetry_Pilot,2022.1.3,Win32,60.29544769,62c50e9c1127f2cd403a315f,,,,,,,,,,,,,,,,,,,,,,,,,,,,,,,,,,,,,,,,,,,,,,,,,,,,,,,,,,,,,,,,,,,,,,,,,,,,,,,,,,,,,,,,,,,,,,,,,,,,,,,,,,,,,,,,,,,,,,,,,,,,,,,,,,,,,,,,,,,,,,,,,,,,,,,,,,,,,,,,,,,
,,,,,,60ce3ac4d251ea55f805b485,62c5394cc5861622af3fff54,2022-07-06_09h27.34.672,Colour_Asymmetry_Pilot,2022.1.3,Win32,60.29544769,62c50e9c1127f2cd403a315f,0,0,0,103,1,fourthree,,,,,,,,,,,,,,,,,,,,,,,,,,,,,,,,,,,,,,,,,,,,,,,,,,,,,,,,,,,,,,,,,,,,,,,,,,,,,,,,,,,,,,,,,,,,,,,,,,,,,,,,,,,,,,,,,,,,,,,,,,,,,,,,,,,,,,,,,,,,,,,,,,,,,,,,,,,,,
,,,,,,60ce3ac4d251ea55f805b485,62c5394cc5861622af3fff54,2022-07-06_09h27.34.672,Colour_Asymmetry_Pilot,2022.1.3,Win32,60.29544769,62c50e9c1127f2cd403a315f,0,1,1,116,1,threeone,,,,,,,,,,,,,,,,,,,,,,,,,,,,,,,,,,,,,,,,,,,,,,,,,,,,,,,,,,,,,,,,,,,,,,,,,,,,,,,,,,,,,,,,,,,,,,,,,,,,,,,,,,,,,,,,,,,,,,,,,,,,,,,,,,,,,,,,,,,,,,,,,,,,,,,,,,,,,
,,,,,,60ce3ac4d251ea55f805b485,62c5394cc5861622af3fff54,2022-07-06_09h27.34.672,Colour_Asymmetry_Pilot,2022.1.3,Win32,60.29544769,62c50e9c1127f2cd403a315f,0,2,2,91,1,twofour,,,,,,,,,,,,,,,,,,,,,,,,,,,,,,,,,,,,,,,,,,,,,,,,,,,,,,,,,,,,,,,,,,,,,,,,,,,,,,,,,,,,,,,,,,,,,,,,,,,,,,,,,,,,,,,,,,,,,,,,,,,,,,,,,,,,,,,,,,,,,,,,,,,,,,,,,,,,,
,,,,,,60ce3ac4d251ea55f805b485,62c5394cc5861622af3fff54,2022-07-06_09h27.34.672,Colour_Asymmetry_Pilot,2022.1.3,Win32,60.29544769,62c50e9c1127f2cd403a315f,0,3,3,149,1,threefour,,,,,,,,,,,,,,,,,,,,,,,,,,,,,,,,,,,,,,,,,,,,,,,,,,,,,,,,,,,,,,,,,,,,,,,,,,,,,,,,,,,,,,,,,,,,,,,,,,,,,,,,,,,,,,,,,,,,,,,,,,,,,,,,,,,,,,,,,,,,,,,,,,,,,,,,,,,,,
,,,,,,60ce3ac4d251ea55f805b485,62c5394cc5861622af3fff54,2022-07-06_09h27.34.672,Colour_Asymmetry_Pilot,2022.1.3,Win32,60.29544769,62c50e9c1127f2cd403a315f,0,4,4,20,1,threeone,,,,,,,,,,,,,,,,,,,,,,,,,,,,,,,,,,,,,,,,,,,,,,,,,,,,,,,,,,,,,,,,,,,,,,,,,,,,,,,,,,,,,,,,,,,,,,,,,,,,,,,,,,,,,,,,,,,,,,,,,,,,,,,,,,,,,,,,,,,,,,,,,,,,,,,,,,,,,
,,,,,,60ce3ac4d251ea55f805b485,62c5394cc5861622af3fff54,2022-07-06_09h27.34.672,Colour_Asymmetry_Pilot,2022.1.3,Win32,60.29544769,62c50e9c1127f2cd403a315f,0,5,5,51,1,twofour,,,,,,,,,,,,,,,,,,,,,,,,,,,,,,,,,,,,,,,,,,,,,,,,,,,,,,,,,,,,,,,,,,,,,,,,,,,,,,,,,,,,,,,,,,,,,,,,,,,,,,,,,,,,,,,,,,,,,,,,,,,,,,,,,,,,,,,,,,,,,,,,,,,,,,,,,,,,,
,,,,,,60ce3ac4d251ea55f805b485,62c5394cc5861622af3fff54,2022-07-06_09h27.34.672,Colour_Asymmetry_Pilot,2022.1.3,Win32,60.29544769,62c50e9c1127f2cd403a315f,0,6,6,82,1,twoone,,,,,,,,,,,,,,,,,,,,,,,,,,,,,,,,,,,,,,,,,,,,,,,,,,,,,,,,,,,,,,,,,,,,,,,,,,,,,,,,,,,,,,,,,,,,,,,,,,,,,,,,,,,,,,,,,,,,,,,,,,,,,,,,,,,,,,,,,,,,,,,,,,,,,,,,,,,,,
,,,,,,60ce3ac4d251ea55f805b485,62c5394cc5861622af3fff54,2022-07-06_09h27.34.672,Colour_Asymmetry_Pilot,2022.1.3,Win32,60.29544769,62c50e9c1127f2cd403a315f,0,7,7,113,1,onethree,,,,,,,,,,,,,,,,,,,,,,,,,,,,,,,,,,,,,,,,,,,,,,,,,,,,,,,,,,,,,,,,,,,,,,,,,,,,,,,,,,,,,,,,,,,,,,,,,,,,,,,,,,,,,,,,,,,,,,,,,,,,,,,,,,,,,,,,,,,,,,,,,,,,,,,,,,,,,
,,,,,,60ce3ac4d251ea55f805b485,62c5394cc5861622af3fff54,2022-07-06_09h27.34.672,Colour_Asymmetry_Pilot,2022.1.3,Win32,60.29544769,62c50e9c1127f2cd403a315f,0,8,8,114,1,twoone,,,,,,,,,,,,,,,,,,,,,,,,,,,,,,,,,,,,,,,,,,,,,,,,,,,,,,,,,,,,,,,,,,,,,,,,,,,,,,,,,,,,,,,,,,,,,,,,,,,,,,,,,,,,,,,,,,,,,,,,,,,,,,,,,,,,,,,,,,,,,,,,,,,,,,,,,,,,,
,,,,,,60ce3ac4d251ea55f805b485,62c5394cc5861622af3fff54,2022-07-06_09h27.34.672,Colour_Asymmetry_Pilot,2022.1.3,Win32,60.29544769,62c50e9c1127f2cd403a315f,0,9,9,88,1,onetwo,,,,,,,,,,,,,,,,,,,,,,,,,,,,,,,,,,,,,,,,,,,,,,,,,,,,,,,,,,,,,,,,,,,,,,,,,,,,,,,,,,,,,,,,,,,,,,,,,,,,,,,,,,,,,,,,,,,,,,,,,,,,,,,,,,,,,,,,,,,,,,,,,,,,,,,,,,,,,
,,,,,,60ce3ac4d251ea55f805b485,62c5394cc5861622af3fff54,2022-07-06_09h27.34.672,Colour_Asymmetry_Pilot,2022.1.3,Win32,60.29544769,62c50e9c1127f2cd403a315f,0,10,10,147,1,twofour,,,,,,,,,,,,,,,,,,,,,,,,,,,,,,,,,,,,,,,,,,,,,,,,,,,,,,,,,,,,,,,,,,,,,,,,,,,,,,,,,,,,,,,,,,,,,,,,,,,,,,,,,,,,,,,,,,,,,,,,,,,,,,,,,,,,,,,,,,,,,,,,,,,,,,,,,,,,,
,,,,,,60ce3ac4d251ea55f805b485,62c5394cc5861622af3fff54,2022-07-06_09h27.34.672,Colour_Asymmetry_Pilot,2022.1.3,Win32,60.29544769,62c50e9c1127f2cd403a315f,0,11,11,141,1,threefour,,,,,,,,,,,,,,,,,,,,,,,,,,,,,,,,,,,,,,,,,,,,,,,,,,,,,,,,,,,,,,,,,,,,,,,,,,,,,,,,,,,,,,,,,,,,,,,,,,,,,,,,,,,,,,,,,,,,,,,,,,,,,,,,,,,,,,,,,,,,,,,,,,,,,,,,,,,,,
,,,,,,60ce3ac4d251ea55f805b485,62c5394cc5861622af3fff54,2022-07-06_09h27.34.672,Colour_Asymmetry_Pilot,2022.1.3,Win32,60.29544769,62c50e9c1127f2cd403a315f,0,12,12,145,1,onethree,,,,,,,,,,,,,,,,,,,,,,,,,,,,,,,,,,,,,,,,,,,,,,,,,,,,,,,,,,,,,,,,,,,,,,,,,,,,,,,,,,,,,,,,,,,,,,,,,,,,,,,,,,,,,,,,,,,,,,,,,,,,,,,,,,,,,,,,,,,,,,,,,,,,,,,,,,,,,
,,,,,,60ce3ac4d251ea55f805b485,62c5394cc5861622af3fff54,2022-07-06_09h27.34.672,Colour_Asymmetry_Pilot,2022.1.3,Win32,60.29544769,62c50e9c1127f2cd403a315f,0,13,13,0,1,onetwo,,,,,,,,,,,,,,,,,,,,,,,,,,,,,,,,,,,,,,,,,,,,,,,,,,,,,,,,,,,,,,,,,,,,,,,,,,,,,,,,,,,,,,,,,,,,,,,,,,,,,,,,,,,,,,,,,,,,,,,,,,,,,,,,,,,,,,,,,,,,,,,,,,,,,,,,,,,,,
,,,,,,60ce3ac4d251ea55f805b485,62c5394cc5861622af3fff54,2022-07-06_09h27.34.672,Colour_Asymmetry_Pilot,2022.1.3,Win32,60.29544769,62c50e9c1127f2cd403a315f,0,14,14,1,1,onethree,,,,,,,,,,,,,,,,,,,,,,,,,,,,,,,,,,,,,,,,,,,,,,,,,,,,,,,,,,,,,,,,,,,,,,,,,,,,,,,,,,,,,,,,,,,,,,,,,,,,,,,,,,,,,,,,,,,,,,,,,,,,,,,,,,,,,,,,,,,,,,,,,,,,,,,,,,,,,
,,,,,,60ce3ac4d251ea55f805b485,62c5394cc5861622af3fff54,2022-07-06_09h27.34.672,Colour_Asymmetry_Pilot,2022.1.3,Win32,60.29544769,62c50e9c1127f2cd403a315f,0,15,15,108,1,threeone,,,,,,,,,,,,,,,,,,,,,,,,,,,,,,,,,,,,,,,,,,,,,,,,,,,,,,,,,,,,,,,,,,,,,,,,,,,,,,,,,,,,,,,,,,,,,,,,,,,,,,,,,,,,,,,,,,,,,,,,,,,,,,,,,,,,,,,,,,,,,,,,,,,,,,,,,,,,,
,,,,,,60ce3ac4d251ea55f805b485,62c5394cc5861622af3fff54,2022-07-06_09h27.34.672,Colour_Asymmetry_Pilot,2022.1.3,Win32,60.29544769,62c50e9c1127f2cd403a315f,0,16,16,137,1,onethree,,,,,,,,,,,,,,,,,,,,,,,,,,,,,,,,,,,,,,,,,,,,,,,,,,,,,,,,,,,,,,,,,,,,,,,,,,,,,,,,,,,,,,,,,,,,,,,,,,,,,,,,,,,,,,,,,,,,,,,,,,,,,,,,,,,,,,,,,,,,,,,,,,,,,,,,,,,,,
,,,,,,60ce3ac4d251ea55f805b485,62c5394cc5861622af3fff54,2022-07-06_09h27.34.672,Colour_Asymmetry_Pilot,2022.1.3,Win32,60.29544769,62c50e9c1127f2cd403a315f,0,17,17,18,1,twoone,,,,,,,,,,,,,,,,,,,,,,,,,,,,,,,,,,,,,,,,,,,,,,,,,,,,,,,,,,,,,,,,,,,,,,,,,,,,,,,,,,,,,,,,,,,,,,,,,,,,,,,,,,,,,,,,,,,,,,,,,,,,,,,,,,,,,,,,,,,,,,,,,,,,,,,,,,,,,
,,,,,,60ce3ac4d251ea55f805b485,62c5394cc5861622af3fff54,2022-07-06_09h27.34.672,Colour_Asymmetry_Pilot,2022.1.3,Win32,60.29544769,62c50e9c1127f2cd403a315f,0,18,18,56,1,onetwo,,,,,,,,,,,,,,,,,,,,,,,,,,,,,,,,,,,,,,,,,,,,,,,,,,,,,,,,,,,,,,,,,,,,,,,,,,,,,,,,,,,,,,,,,,,,,,,,,,,,,,,,,,,,,,,,,,,,,,,,,,,,,,,,,,,,,,,,,,,,,,,,,,,,,,,,,,,,,
,,,,,,60ce3ac4d251ea55f805b485,62c5394cc5861622af3fff54,2022-07-06_09h27.34.672,Colour_Asymmetry_Pilot,2022.1.3,Win32,60.29544769,62c50e9c1127f2cd403a315f,0,19,19,66,1,twoone,,,,,,,,,,,,,,,,,,,,,,,,,,,,,,,,,,,,,,,,,,,,,,,,,,,,,,,,,,,,,,,,,,,,,,,,,,,,,,,,,,,,,,,,,,,,,,,,,,,,,,,,,,,,,,,,,,,,,,,,,,,,,,,,,,,,,,,,,,,,,,,,,,,,,,,,,,,,,
,,,,,,60ce3ac4d251ea55f805b485,62c5394cc5861622af3fff54,2022-07-06_09h27.34.672,Colour_Asymmetry_Pilot,2022.1.3,Win32,60.29544769,62c50e9c1127f2cd403a315f,0,20,20,49,1,onethree,,,,,,,,,,,,,,,,,,,,,,,,,,,,,,,,,,,,,,,,,,,,,,,,,,,,,,,,,,,,,,,,,,,,,,,,,,,,,,,,,,,,,,,,,,,,,,,,,,,,,,,,,,,,,,,,,,,,,,,,,,,,,,,,,,,,,,,,,,,,,,,,,,,,,,,,,,,,,
,,,,,,60ce3ac4d251ea55f805b485,62c5394cc5861622af3fff54,2022-07-06_09h27.34.672,Colour_Asymmetry_Pilot,2022.1.3,Win32,60.29544769,62c50e9c1127f2cd403a315f,0,21,21,23,1,fourthree,,,,,,,,,,,,,,,,,,,,,,,,,,,,,,,,,,,,,,,,,,,,,,,,,,,,,,,,,,,,,,,,,,,,,,,,,,,,,,,,,,,,,,,,,,,,,,,,,,,,,,,,,,,,,,,,,,,,,,,,,,,,,,,,,,,,,,,,,,,,,,,,,,,,,,,,,,,,,
,,,,,,60ce3ac4d251ea55f805b485,62c5394cc5861622af3fff54,2022-07-06_09h27.34.672,Colour_Asymmetry_Pilot,2022.1.3,Win32,60.29544769,62c50e9c1127f2cd403a315f,0,22,22,93,1,threefour,,,,,,,,,,,,,,,,,,,,,,,,,,,,,,,,,,,,,,,,,,,,,,,,,,,,,,,,,,,,,,,,,,,,,,,,,,,,,,,,,,,,,,,,,,,,,,,,,,,,,,,,,,,,,,,,,,,,,,,,,,,,,,,,,,,,,,,,,,,,,,,,,,,,,,,,,,,,,
,,,,,,60ce3ac4d251ea55f805b485,62c5394cc5861622af3fff54,2022-07-06_09h27.34.672,Colour_Asymmetry_Pilot,2022.1.3,Win32,60.29544769,62c50e9c1127f2cd403a315f,0,23,23,96,1,onetwo,,,,,,,,,,,,,,,,,,,,,,,,,,,,,,,,,,,,,,,,,,,,,,,,,,,,,,,,,,,,,,,,,,,,,,,,,,,,,,,,,,,,,,,,,,,,,,,,,,,,,,,,,,,,,,,,,,,,,,,,,,,,,,,,,,,,,,,,,,,,,,,,,,,,,,,,,,,,,
,,,,,,60ce3ac4d251ea55f805b485,62c5394cc5861622af3fff54,2022-07-06_09h27.34.672,Colour_Asymmetry_Pilot,2022.1.3,Win32,60.29544769,62c50e9c1127f2cd403a315f,0,24,24,115,1,twofour,,,,,,,,,,,,,,,,,,,,,,,,,,,,,,,,,,,,,,,,,,,,,,,,,,,,,,,,,,,,,,,,,,,,,,,,,,,,,,,,,,,,,,,,,,,,,,,,,,,,,,,,,,,,,,,,,,,,,,,,,,,,,,,,,,,,,,,,,,,,,,,,,,,,,,,,,,,,,
,,,,,,60ce3ac4d251ea55f805b485,62c5394cc5861622af3fff54,2022-07-06_09h27.34.672,Colour_Asymmetry_Pilot,2022.1.3,Win32,60.29544769,62c50e9c1127f2cd403a315f,0,25,25,58,1,twoone,,,,,,,,,,,,,,,,,,,,,,,,,,,,,,,,,,,,,,,,,,,,,,,,,,,,,,,,,,,,,,,,,,,,,,,,,,,,,,,,,,,,,,,,,,,,,,,,,,,,,,,,,,,,,,,,,,,,,,,,,,,,,,,,,,,,,,,,,,,,,,,,,,,,,,,,,,,,,
,,,,,,60ce3ac4d251ea55f805b485,62c5394cc5861622af3fff54,2022-07-06_09h27.34.672,Colour_Asymmetry_Pilot,2022.1.3,Win32,60.29544769,62c50e9c1127f2cd403a315f,0,26,26,139,1,twofour,,,,,,,,,,,,,,,,,,,,,,,,,,,,,,,,,,,,,,,,,,,,,,,,,,,,,,,,,,,,,,,,,,,,,,,,,,,,,,,,,,,,,,,,,,,,,,,,,,,,,,,,,,,,,,,,,,,,,,,,,,,,,,,,,,,,,,,,,,,,,,,,,,,,,,,,,,,,,
,,,,,,60ce3ac4d251ea55f805b485,62c5394cc5861622af3fff54,2022-07-06_09h27.34.672,Colour_Asymmetry_Pilot,2022.1.3,Win32,60.29544769,62c50e9c1127f2cd403a315f,0,27,27,7,1,fourthree,,,,,,,,,,,,,,,,,,,,,,,,,,,,,,,,,,,,,,,,,,,,,,,,,,,,,,,,,,,,,,,,,,,,,,,,,,,,,,,,,,,,,,,,,,,,,,,,,,,,,,,,,,,,,,,,,,,,,,,,,,,,,,,,,,,,,,,,,,,,,,,,,,,,,,,,,,,,,
,,,,,,60ce3ac4d251ea55f805b485,62c5394cc5861622af3fff54,2022-07-06_09h27.34.672,Colour_Asymmetry_Pilot,2022.1.3,Win32,60.29544769,62c50e9c1127f2cd403a315f,0,28,28,63,1,fourthree,,,,,,,,,,,,,,,,,,,,,,,,,,,,,,,,,,,,,,,,,,,,,,,,,,,,,,,,,,,,,,,,,,,,,,,,,,,,,,,,,,,,,,,,,,,,,,,,,,,,,,,,,,,,,,,,,,,,,,,,,,,,,,,,,,,,,,,,,,,,,,,,,,,,,,,,,,,,,
,,,,,,60ce3ac4d251ea55f805b485,62c5394cc5861622af3fff54,2022-07-06_09h27.34.672,Colour_Asymmetry_Pilot,2022.1.3,Win32,60.29544769,62c50e9c1127f2cd403a315f,0,29,29,48,1,onetwo,,,,,,,,,,,,,,,,,,,,,,,,,,,,,,,,,,,,,,,,,,,,,,,,,,,,,,,,,,,,,,,,,,,,,,,,,,,,,,,,,,,,,,,,,,,,,,,,,,,,,,,,,,,,,,,,,,,,,,,,,,,,,,,,,,,,,,,,,,,,,,,,,,,,,,,,,,,,,
,,,,,,60ce3ac4d251ea55f805b485,62c5394cc5861622af3fff54,2022-07-06_09h27.34.672,Colour_Asymmetry_Pilot,2022.1.3,Win32,60.29544769,62c50e9c1127f2cd403a315f,0,30,30,26,1,twoone,,,,,,,,,,,,,,,,,,,,,,,,,,,,,,,,,,,,,,,,,,,,,,,,,,,,,,,,,,,,,,,,,,,,,,,,,,,,,,,,,,,,,,,,,,,,,,,,,,,,,,,,,,,,,,,,,,,,,,,,,,,,,,,,,,,,,,,,,,,,,,,,,,,,,,,,,,,,,
,,,,,,60ce3ac4d251ea55f805b485,62c5394cc5861622af3fff54,2022-07-06_09h27.34.672,Colour_Asymmetry_Pilot,2022.1.3,Win32,60.29544769,62c50e9c1127f2cd403a315f,0,31,31,160,1,onetwo,,,,,,,,,,,,,,,,,,,,,,,,,,,,,,,,,,,,,,,,,,,,,,,,,,,,,,,,,,,,,,,,,,,,,,,,,,,,,,,,,,,,,,,,,,,,,,,,,,,,,,,,,,,,,,,,,,,,,,,,,,,,,,,,,,,,,,,,,,,,,,,,,,,,,,,,,,,,,
,,,,,,60ce3ac4d251ea55f805b485,62c5394cc5861622af3fff54,2022-07-06_09h27.34.672,Colour_Asymmetry_Pilot,2022.1.3,Win32,60.29544769,62c50e9c1127f2cd403a315f,0,32,32,107,1,twofour,,,,,,,,,,,,,,,,,,,,,,,,,,,,,,,,,,,,,,,,,,,,,,,,,,,,,,,,,,,,,,,,,,,,,,,,,,,,,,,,,,,,,,,,,,,,,,,,,,,,,,,,,,,,,,,,,,,,,,,,,,,,,,,,,,,,,,,,,,,,,,,,,,,,,,,,,,,,,
,,,,,,60ce3ac4d251ea55f805b485,62c5394cc5861622af3fff54,2022-07-06_09h27.34.672,Colour_Asymmetry_Pilot,2022.1.3,Win32,60.29544769,62c50e9c1127f2cd403a315f,0,33,33,97,1,onethree,,,,,,,,,,,,,,,,,,,,,,,,,,,,,,,,,,,,,,,,,,,,,,,,,,,,,,,,,,,,,,,,,,,,,,,,,,,,,,,,,,,,,,,,,,,,,,,,,,,,,,,,,,,,,,,,,,,,,,,,,,,,,,,,,,,,,,,,,,,,,,,,,,,,,,,,,,,,,
,,,,,,60ce3ac4d251ea55f805b485,62c5394cc5861622af3fff54,2022-07-06_09h27.34.672,Colour_Asymmetry_Pilot,2022.1.3,Win32,60.29544769,62c50e9c1127f2cd403a315f,0,34,34,39,1,fourthree,,,,,,,,,,,,,,,,,,,,,,,,,,,,,,,,,,,,,,,,,,,,,,,,,,,,,,,,,,,,,,,,,,,,,,,,,,,,,,,,,,,,,,,,,,,,,,,,,,,,,,,,,,,,,,,,,,,,,,,,,,,,,,,,,,,,,,,,,,,,,,,,,,,,,,,,,,,,,
,,,,,,60ce3ac4d251ea55f805b485,62c5394cc5861622af3fff54,2022-07-06_09h27.34.672,Colour_Asymmetry_Pilot,2022.1.3,Win32,60.29544769,62c50e9c1127f2cd403a315f,0,35,35,57,1,onethree,,,,,,,,,,,,,,,,,,,,,,,,,,,,,,,,,,,,,,,,,,,,,,,,,,,,,,,,,,,,,,,,,,,,,,,,,,,,,,,,,,,,,,,,,,,,,,,,,,,,,,,,,,,,,,,,,,,,,,,,,,,,,,,,,,,,,,,,,,,,,,,,,,,,,,,,,,,,,
,,,,,,60ce3ac4d251ea55f805b485,62c5394cc5861622af3fff54,2022-07-06_09h27.34.672,Colour_Asymmetry_Pilot,2022.1.3,Win32,60.29544769,62c50e9c1127f2cd403a315f,0,36,36,100,1,threeone,,,,,,,,,,,,,,,,,,,,,,,,,,,,,,,,,,,,,,,,,,,,,,,,,,,,,,,,,,,,,,,,,,,,,,,,,,,,,,,,,,,,,,,,,,,,,,,,,,,,,,,,,,,,,,,,,,,,,,,,,,,,,,,,,,,,,,,,,,,,,,,,,,,,,,,,,,,,,
,,,,,,60ce3ac4d251ea55f805b485,62c5394cc5861622af3fff54,2022-07-06_09h27.34.672,Colour_Asymmetry_Pilot,2022.1.3,Win32,60.29544769,62c50e9c1127f2cd403a315f,0,37,37,67,1,twofour,,,,,,,,,,,,,,,,,,,,,,,,,,,,,,,,,,,,,,,,,,,,,,,,,,,,,,,,,,,,,,,,,,,,,,,,,,,,,,,,,,,,,,,,,,,,,,,,,,,,,,,,,,,,,,,,,,,,,,,,,,,,,,,,,,,,,,,,,,,,,,,,,,,,,,,,,,,,,
,,,,,,60ce3ac4d251ea55f805b485,62c5394cc5861622af3fff54,2022-07-06_09h27.34.672,Colour_Asymmetry_Pilot,2022.1.3,Win32,60.29544769,62c50e9c1127f2cd403a315f,0,38,38,74,1,twoone,,,,,,,,,,,,,,,,,,,,,,,,,,,,,,,,,,,,,,,,,,,,,,,,,,,,,,,,,,,,,,,,,,,,,,,,,,,,,,,,,,,,,,,,,,,,,,,,,,,,,,,,,,,,,,,,,,,,,,,,,,,,,,,,,,,,,,,,,,,,,,,,,,,,,,,,,,,,,
,,,,,,60ce3ac4d251ea55f805b485,62c5394cc5861622af3fff54,2022-07-06_09h27.34.672,Colour_Asymmetry_Pilot,2022.1.3,Win32,60.29544769,62c50e9c1127f2cd403a315f,0,39,39,98,1,twoone,,,,,,,,,,,,,,,,,,,,,,,,,,,,,,,,,,,,,,,,,,,,,,,,,,,,,,,,,,,,,,,,,,,,,,,,,,,,,,,,,,,,,,,,,,,,,,,,,,,,,,,,,,,,,,,,,,,,,,,,,,,,,,,,,,,,,,,,,,,,,,,,,,,,,,,,,,,,,
,,,,,,60ce3ac4d251ea55f805b485,62c5394cc5861622af3fff54,2022-07-06_09h27.34.672,Colour_Asymmetry_Pilot,2022.1.3,Win32,60.29544769,62c50e9c1127f2cd403a315f,0,40,40,43,1,twofour,,,,,,,,,,,,,,,,,,,,,,,,,,,,,,,,,,,,,,,,,,,,,,,,,,,,,,,,,,,,,,,,,,,,,,,,,,,,,,,,,,,,,,,,,,,,,,,,,,,,,,,,,,,,,,,,,,,,,,,,,,,,,,,,,,,,,,,,,,,,,,,,,,,,,,,,,,,,,
,,,,,,60ce3ac4d251ea55f805b485,62c5394cc5861622af3fff54,2022-07-06_09h27.34.672,Colour_Asymmetry_Pilot,2022.1.3,Win32,60.29544769,62c50e9c1127f2cd403a315f,0,41,41,161,1,onethree,,,,,,,,,,,,,,,,,,,,,,,,,,,,,,,,,,,,,,,,,,,,,,,,,,,,,,,,,,,,,,,,,,,,,,,,,,,,,,,,,,,,,,,,,,,,,,,,,,,,,,,,,,,,,,,,,,,,,,,,,,,,,,,,,,,,,,,,,,,,,,,,,,,,,,,,,,,,,
,,,,,,60ce3ac4d251ea55f805b485,62c5394cc5861622af3fff54,2022-07-06_09h27.34.672,Colour_Asymmetry_Pilot,2022.1.3,Win32,60.29544769,62c50e9c1127f2cd403a315f,0,42,42,99,1,twofour,,,,,,,,,,,,,,,,,,,,,,,,,,,,,,,,,,,,,,,,,,,,,,,,,,,,,,,,,,,,,,,,,,,,,,,,,,,,,,,,,,,,,,,,,,,,,,,,,,,,,,,,,,,,,,,,,,,,,,,,,,,,,,,,,,,,,,,,,,,,,,,,,,,,,,,,,,,,,
,,,,,,60ce3ac4d251ea55f805b485,62c5394cc5861622af3fff54,2022-07-06_09h27.34.672,Colour_Asymmetry_Pilot,2022.1.3,Win32,60.29544769,62c50e9c1127f2cd403a315f,0,43,43,64,1,onetwo,,,,,,,,,,,,,,,,,,,,,,,,,,,,,,,,,,,,,,,,,,,,,,,,,,,,,,,,,,,,,,,,,,,,,,,,,,,,,,,,,,,,,,,,,,,,,,,,,,,,,,,,,,,,,,,,,,,,,,,,,,,,,,,,,,,,,,,,,,,,,,,,,,,,,,,,,,,,,
,,,,,,60ce3ac4d251ea55f805b485,62c5394cc5861622af3fff54,2022-07-06_09h27.34.672,Colour_Asymmetry_Pilot,2022.1.3,Win32,60.29544769,62c50e9c1127f2cd403a315f,0,44,44,152,1,onetwo,,,,,,,,,,,,,,,,,,,,,,,,,,,,,,,,,,,,,,,,,,,,,,,,,,,,,,,,,,,,,,,,,,,,,,,,,,,,,,,,,,,,,,,,,,,,,,,,,,,,,,,,,,,,,,,,,,,,,,,,,,,,,,,,,,,,,,,,,,,,,,,,,,,,,,,,,,,,,
,,,,,,60ce3ac4d251ea55f805b485,62c5394cc5861622af3fff54,2022-07-06_09h27.34.672,Colour_Asymmetry_Pilot,2022.1.3,Win32,60.29544769,62c50e9c1127f2cd403a315f,0,45,45,65,1,onethree,,,,,,,,,,,,,,,,,,,,,,,,,,,,,,,,,,,,,,,,,,,,,,,,,,,,,,,,,,,,,,,,,,,,,,,,,,,,,,,,,,,,,,,,,,,,,,,,,,,,,,,,,,,,,,,,,,,,,,,,,,,,,,,,,,,,,,,,,,,,,,,,,,,,,,,,,,,,,
,,,,,,60ce3ac4d251ea55f805b485,62c5394cc5861622af3fff54,2022-07-06_09h27.34.672,Colour_Asymmetry_Pilot,2022.1.3,Win32,60.29544769,62c50e9c1127f2cd403a315f,0,46,46,61,1,threefour,,,,,,,,,,,,,,,,,,,,,,,,,,,,,,,,,,,,,,,,,,,,,,,,,,,,,,,,,,,,,,,,,,,,,,,,,,,,,,,,,,,,,,,,,,,,,,,,,,,,,,,,,,,,,,,,,,,,,,,,,,,,,,,,,,,,,,,,,,,,,,,,,,,,,,,,,,,,,
,,,,,,60ce3ac4d251ea55f805b485,62c5394cc5861622af3fff54,2022-07-06_09h27.34.672,Colour_Asymmetry_Pilot,2022.1.3,Win32,60.29544769,62c50e9c1127f2cd403a315f,0,47,47,6,1,fourtwo,,,,,,,,,,,,,,,,,,,,,,,,,,,,,,,,,,,,,,,,,,,,,,,,,,,,,,,,,,,,,,,,,,,,,,,,,,,,,,,,,,,,,,,,,,,,,,,,,,,,,,,,,,,,,,,,,,,,,,,,,,,,,,,,,,,,,,,,,,,,,,,,,,,,,,,,,,,,,
,,,,,,60ce3ac4d251ea55f805b485,62c5394cc5861622af3fff54,2022-07-06_09h27.34.672,Colour_Asymmetry_Pilot,2022.1.3,Win32,60.29544769,62c50e9c1127f2cd403a315f,0,48,48,27,1,twofour,,,,,,,,,,,,,,,,,,,,,,,,,,,,,,,,,,,,,,,,,,,,,,,,,,,,,,,,,,,,,,,,,,,,,,,,,,,,,,,,,,,,,,,,,,,,,,,,,,,,,,,,,,,,,,,,,,,,,,,,,,,,,,,,,,,,,,,,,,,,,,,,,,,,,,,,,,,,,
,,,,,,60ce3ac4d251ea55f805b485,62c5394cc5861622af3fff54,2022-07-06_09h27.34.672,Colour_Asymmetry_Pilot,2022.1.3,Win32,60.29544769,62c50e9c1127f2cd403a315f,0,49,49,13,1,threefour,,,,,,,,,,,,,,,,,,,,,,,,,,,,,,,,,,,,,,,,,,,,,,,,,,,,,,,,,,,,,,,,,,,,,,,,,,,,,,,,,,,,,,,,,,,,,,,,,,,,,,,,,,,,,,,,,,,,,,,,,,,,,,,,,,,,,,,,,,,,,,,,,,,,,,,,,,,,,
,,,,,,60ce3ac4d251ea55f805b485,62c5394cc5861622af3fff54,2022-07-06_09h27.34.672,Colour_Asymmetry_Pilot,2022.1.3,Win32,60.29544769,62c50e9c1127f2cd403a315f,0,50,50,134,1,fourtwo,,,,,,,,,,,,,,,,,,,,,,,,,,,,,,,,,,,,,,,,,,,,,,,,,,,,,,,,,,,,,,,,,,,,,,,,,,,,,,,,,,,,,,,,,,,,,,,,,,,,,,,,,,,,,,,,,,,,,,,,,,,,,,,,,,,,,,,,,,,,,,,,,,,,,,,,,,,,,
,,,,,,60ce3ac4d251ea55f805b485,62c5394cc5861622af3fff54,2022-07-06_09h27.34.672,Colour_Asymmetry_Pilot,2022.1.3,Win32,60.29544769,62c50e9c1127f2cd403a315f,0,51,51,124,1,threeone,,,,,,,,,,,,,,,,,,,,,,,,,,,,,,,,,,,,,,,,,,,,,,,,,,,,,,,,,,,,,,,,,,,,,,,,,,,,,,,,,,,,,,,,,,,,,,,,,,,,,,,,,,,,,,,,,,,,,,,,,,,,,,,,,,,,,,,,,,,,,,,,,,,,,,,,,,,,,
,,,,,,60ce3ac4d251ea55f805b485,62c5394cc5861622af3fff54,2022-07-06_09h27.34.672,Colour_Asymmetry_Pilot,2022.1.3,Win32,60.29544769,62c50e9c1127f2cd403a315f,0,52,52,9,1,onethree,,,,,,,,,,,,,,,,,,,,,,,,,,,,,,,,,,,,,,,,,,,,,,,,,,,,,,,,,,,,,,,,,,,,,,,,,,,,,,,,,,,,,,,,,,,,,,,,,,,,,,,,,,,,,,,,,,,,,,,,,,,,,,,,,,,,,,,,,,,,,,,,,,,,,,,,,,,,,
,,,,,,60ce3ac4d251ea55f805b485,62c5394cc5861622af3fff54,2022-07-06_09h27.34.672,Colour_Asymmetry_Pilot,2022.1.3,Win32,60.29544769,62c50e9c1127f2cd403a315f,0,53,53,73,1,onethree,,,,,,,,,,,,,,,,,,,,,,,,,,,,,,,,,,,,,,,,,,,,,,,,,,,,,,,,,,,,,,,,,,,,,,,,,,,,,,,,,,,,,,,,,,,,,,,,,,,,,,,,,,,,,,,,,,,,,,,,,,,,,,,,,,,,,,,,,,,,,,,,,,,,,,,,,,,,,
,,,,,,60ce3ac4d251ea55f805b485,62c5394cc5861622af3fff54,2022-07-06_09h27.34.672,Colour_Asymmetry_Pilot,2022.1.3,Win32,60.29544769,62c50e9c1127f2cd403a315f,0,54,54,76,1,threeone,,,,,,,,,,,,,,,,,,,,,,,,,,,,,,,,,,,,,,,,,,,,,,,,,,,,,,,,,,,,,,,,,,,,,,,,,,,,,,,,,,,,,,,,,,,,,,,,,,,,,,,,,,,,,,,,,,,,,,,,,,,,,,,,,,,,,,,,,,,,,,,,,,,,,,,,,,,,,
,,,,,,60ce3ac4d251ea55f805b485,62c5394cc5861622af3fff54,2022-07-06_09h27.34.672,Colour_Asymmetry_Pilot,2022.1.3,Win32,60.29544769,62c50e9c1127f2cd403a315f,0,55,55,85,1,threefour,,,,,,,,,,,,,,,,,,,,,,,,,,,,,,,,,,,,,,,,,,,,,,,,,,,,,,,,,,,,,,,,,,,,,,,,,,,,,,,,,,,,,,,,,,,,,,,,,,,,,,,,,,,,,,,,,,,,,,,,,,,,,,,,,,,,,,,,,,,,,,,,,,,,,,,,,,,,,
,,,,,,60ce3ac4d251ea55f805b485,62c5394cc5861622af3fff54,2022-07-06_09h27.34.672,Colour_Asymmetry_Pilot,2022.1.3,Win32,60.29544769,62c50e9c1127f2cd403a315f,0,56,56,102,1,fourtwo,,,,,,,,,,,,,,,,,,,,,,,,,,,,,,,,,,,,,,,,,,,,,,,,,,,,,,,,,,,,,,,,,,,,,,,,,,,,,,,,,,,,,,,,,,,,,,,,,,,,,,,,,,,,,,,,,,,,,,,,,,,,,,,,,,,,,,,,,,,,,,,,,,,,,,,,,,,,,
,,,,,,60ce3ac4d251ea55f805b485,62c5394cc5861622af3fff54,2022-07-06_09h27.34.672,Colour_Asymmetry_Pilot,2022.1.3,Win32,60.29544769,62c50e9c1127f2cd403a315f,0,57,57,14,1,fourtwo,,,,,,,,,,,,,,,,,,,,,,,,,,,,,,,,,,,,,,,,,,,,,,,,,,,,,,,,,,,,,,,,,,,,,,,,,,,,,,,,,,,,,,,,,,,,,,,,,,,,,,,,,,,,,,,,,,,,,,,,,,,,,,,,,,,,,,,,,,,,,,,,,,,,,,,,,,,,,
,,,,,,60ce3ac4d251ea55f805b485,62c5394cc5861622af3fff54,2022-07-06_09h27.34.672,Colour_Asymmetry_Pilot,2022.1.3,Win32,60.29544769,62c50e9c1127f2cd403a315f,0,58,58,90,1,twoone,,,,,,,,,,,,,,,,,,,,,,,,,,,,,,,,,,,,,,,,,,,,,,,,,,,,,,,,,,,,,,,,,,,,,,,,,,,,,,,,,,,,,,,,,,,,,,,,,,,,,,,,,,,,,,,,,,,,,,,,,,,,,,,,,,,,,,,,,,,,,,,,,,,,,,,,,,,,,
,,,,,,60ce3ac4d251ea55f805b485,62c5394cc5861622af3fff54,2022-07-06_09h27.34.672,Colour_Asymmetry_Pilot,2022.1.3,Win32,60.29544769,62c50e9c1127f2cd403a315f,0,59,59,84,1,threeone,,,,,,,,,,,,,,,,,,,,,,,,,,,,,,,,,,,,,,,,,,,,,,,,,,,,,,,,,,,,,,,,,,,,,,,,,,,,,,,,,,,,,,,,,,,,,,,,,,,,,,,,,,,,,,,,,,,,,,,,,,,,,,,,,,,,,,,,,,,,,,,,,,,,,,,,,,,,,
,,,,,,60ce3ac4d251ea55f805b485,62c5394cc5861622af3fff54,2022-07-06_09h27.34.672,Colour_Asymmetry_Pilot,2022.1.3,Win32,60.29544769,62c50e9c1127f2cd403a315f,0,60,60,34,1,twoone,,,,,,,,,,,,,,,,,,,,,,,,,,,,,,,,,,,,,,,,,,,,,,,,,,,,,,,,,,,,,,,,,,,,,,,,,,,,,,,,,,,,,,,,,,,,,,,,,,,,,,,,,,,,,,,,,,,,,,,,,,,,,,,,,,,,,,,,,,,,,,,,,,,,,,,,,,,,,
,,,,,,60ce3ac4d251ea55f805b485,62c5394cc5861622af3fff54,2022-07-06_09h27.34.672,Colour_Asymmetry_Pilot,2022.1.3,Win32,60.29544769,62c50e9c1127f2cd403a315f,0,61,61,77,1,threefour,,,,,,,,,,,,,,,,,,,,,,,,,,,,,,,,,,,,,,,,,,,,,,,,,,,,,,,,,,,,,,,,,,,,,,,,,,,,,,,,,,,,,,,,,,,,,,,,,,,,,,,,,,,,,,,,,,,,,,,,,,,,,,,,,,,,,,,,,,,,,,,,,,,,,,,,,,,,,
,,,,,,60ce3ac4d251ea55f805b485,62c5394cc5861622af3fff54,2022-07-06_09h27.34.672,Colour_Asymmetry_Pilot,2022.1.3,Win32,60.29544769,62c50e9c1127f2cd403a315f,0,62,62,83,1,twofour,,,,,,,,,,,,,,,,,,,,,,,,,,,,,,,,,,,,,,,,,,,,,,,,,,,,,,,,,,,,,,,,,,,,,,,,,,,,,,,,,,,,,,,,,,,,,,,,,,,,,,,,,,,,,,,,,,,,,,,,,,,,,,,,,,,,,,,,,,,,,,,,,,,,,,,,,,,,,
,,,,,,60ce3ac4d251ea55f805b485,62c5394cc5861622af3fff54,2022-07-06_09h27.34.672,Colour_Asymmetry_Pilot,2022.1.3,Win32,60.29544769,62c50e9c1127f2cd403a315f,0,63,63,148,1,threeone,,,,,,,,,,,,,,,,,,,,,,,,,,,,,,,,,,,,,,,,,,,,,,,,,,,,,,,,,,,,,,,,,,,,,,,,,,,,,,,,,,,,,,,,,,,,,,,,,,,,,,,,,,,,,,,,,,,,,,,,,,,,,,,,,,,,,,,,,,,,,,,,,,,,,,,,,,,,,
,,,,,,60ce3ac4d251ea55f805b485,62c5394cc5861622af3fff54,2022-07-06_09h27.34.672,Colour_Asymmetry_Pilot,2022.1.3,Win32,60.29544769,62c50e9c1127f2cd403a315f,0,64,64,157,1,threefour,,,,,,,,,,,,,,,,,,,,,,,,,,,,,,,,,,,,,,,,,,,,,,,,,,,,,,,,,,,,,,,,,,,,,,,,,,,,,,,,,,,,,,,,,,,,,,,,,,,,,,,,,,,,,,,,,,,,,,,,,,,,,,,,,,,,,,,,,,,,,,,,,,,,,,,,,,,,,
,,,,,,60ce3ac4d251ea55f805b485,62c5394cc5861622af3fff54,2022-07-06_09h27.34.672,Colour_Asymmetry_Pilot,2022.1.3,Win32,60.29544769,62c50e9c1127f2cd403a315f,0,65,65,142,1,fourtwo,,,,,,,,,,,,,,,,,,,,,,,,,,,,,,,,,,,,,,,,,,,,,,,,,,,,,,,,,,,,,,,,,,,,,,,,,,,,,,,,,,,,,,,,,,,,,,,,,,,,,,,,,,,,,,,,,,,,,,,,,,,,,,,,,,,,,,,,,,,,,,,,,,,,,,,,,,,,,
,,,,,,60ce3ac4d251ea55f805b485,62c5394cc5861622af3fff54,2022-07-06_09h27.34.672,Colour_Asymmetry_Pilot,2022.1.3,Win32,60.29544769,62c50e9c1127f2cd403a315f,0,66,66,8,1,onetwo,,,,,,,,,,,,,,,,,,,,,,,,,,,,,,,,,,,,,,,,,,,,,,,,,,,,,,,,,,,,,,,,,,,,,,,,,,,,,,,,,,,,,,,,,,,,,,,,,,,,,,,,,,,,,,,,,,,,,,,,,,,,,,,,,,,,,,,,,,,,,,,,,,,,,,,,,,,,,
,,,,,,60ce3ac4d251ea55f805b485,62c5394cc5861622af3fff54,2022-07-06_09h27.34.672,Colour_Asymmetry_Pilot,2022.1.3,Win32,60.29544769,62c50e9c1127f2cd403a315f,0,67,67,135,1,fourthree,,,,,,,,,,,,,,,,,,,,,,,,,,,,,,,,,,,,,,,,,,,,,,,,,,,,,,,,,,,,,,,,,,,,,,,,,,,,,,,,,,,,,,,,,,,,,,,,,,,,,,,,,,,,,,,,,,,,,,,,,,,,,,,,,,,,,,,,,,,,,,,,,,,,,,,,,,,,,
,,,,,,60ce3ac4d251ea55f805b485,62c5394cc5861622af3fff54,2022-07-06_09h27.34.672,Colour_Asymmetry_Pilot,2022.1.3,Win32,60.29544769,62c50e9c1127f2cd403a315f,0,68,68,104,1,onetwo,,,,,,,,,,,,,,,,,,,,,,,,,,,,,,,,,,,,,,,,,,,,,,,,,,,,,,,,,,,,,,,,,,,,,,,,,,,,,,,,,,,,,,,,,,,,,,,,,,,,,,,,,,,,,,,,,,,,,,,,,,,,,,,,,,,,,,,,,,,,,,,,,,,,,,,,,,,,,
,,,,,,60ce3ac4d251ea55f805b485,62c5394cc5861622af3fff54,2022-07-06_09h27.34.672,Colour_Asymmetry_Pilot,2022.1.3,Win32,60.29544769,62c50e9c1127f2cd403a315f,0,69,69,25,1,onethree,,,,,,,,,,,,,,,,,,,,,,,,,,,,,,,,,,,,,,,,,,,,,,,,,,,,,,,,,,,,,,,,,,,,,,,,,,,,,,,,,,,,,,,,,,,,,,,,,,,,,,,,,,,,,,,,,,,,,,,,,,,,,,,,,,,,,,,,,,,,,,,,,,,,,,,,,,,,,
,,,,,,60ce3ac4d251ea55f805b485,62c5394cc5861622af3fff54,2022-07-06_09h27.34.672,Colour_Asymmetry_Pilot,2022.1.3,Win32,60.29544769,62c50e9c1127f2cd403a315f,0,70,70,52,1,threeone,,,,,,,,,,,,,,,,,,,,,,,,,,,,,,,,,,,,,,,,,,,,,,,,,,,,,,,,,,,,,,,,,,,,,,,,,,,,,,,,,,,,,,,,,,,,,,,,,,,,,,,,,,,,,,,,,,,,,,,,,,,,,,,,,,,,,,,,,,,,,,,,,,,,,,,,,,,,,
,,,,,,60ce3ac4d251ea55f805b485,62c5394cc5861622af3fff54,2022-07-06_09h27.34.672,Colour_Asymmetry_Pilot,2022.1.3,Win32,60.29544769,62c50e9c1127f2cd403a315f,0,71,71,153,1,onethree,,,,,,,,,,,,,,,,,,,,,,,,,,,,,,,,,,,,,,,,,,,,,,,,,,,,,,,,,,,,,,,,,,,,,,,,,,,,,,,,,,,,,,,,,,,,,,,,,,,,,,,,,,,,,,,,,,,,,,,,,,,,,,,,,,,,,,,,,,,,,,,,,,,,,,,,,,,,,
,,,,,,60ce3ac4d251ea55f805b485,62c5394cc5861622af3fff54,2022-07-06_09h27.34.672,Colour_Asymmetry_Pilot,2022.1.3,Win32,60.29544769,62c50e9c1127f2cd403a315f,0,72,72,12,1,threeone,,,,,,,,,,,,,,,,,,,,,,,,,,,,,,,,,,,,,,,,,,,,,,,,,,,,,,,,,,,,,,,,,,,,,,,,,,,,,,,,,,,,,,,,,,,,,,,,,,,,,,,,,,,,,,,,,,,,,,,,,,,,,,,,,,,,,,,,,,,,,,,,,,,,,,,,,,,,,
,,,,,,60ce3ac4d251ea55f805b485,62c5394cc5861622af3fff54,2022-07-06_09h27.34.672,Colour_Asymmetry_Pilot,2022.1.3,Win32,60.29544769,62c50e9c1127f2cd403a315f,0,73,73,72,1,onetwo,,,,,,,,,,,,,,,,,,,,,,,,,,,,,,,,,,,,,,,,,,,,,,,,,,,,,,,,,,,,,,,,,,,,,,,,,,,,,,,,,,,,,,,,,,,,,,,,,,,,,,,,,,,,,,,,,,,,,,,,,,,,,,,,,,,,,,,,,,,,,,,,,,,,,,,,,,,,,
,,,,,,60ce3ac4d251ea55f805b485,62c5394cc5861622af3fff54,2022-07-06_09h27.34.672,Colour_Asymmetry_Pilot,2022.1.3,Win32,60.29544769,62c50e9c1127f2cd403a315f,0,74,74,46,1,fourtwo,,,,,,,,,,,,,,,,,,,,,,,,,,,,,,,,,,,,,,,,,,,,,,,,,,,,,,,,,,,,,,,,,,,,,,,,,,,,,,,,,,,,,,,,,,,,,,,,,,,,,,,,,,,,,,,,,,,,,,,,,,,,,,,,,,,,,,,,,,,,,,,,,,,,,,,,,,,,,
,,,,,,60ce3ac4d251ea55f805b485,62c5394cc5861622af3fff54,2022-07-06_09h27.34.672,Colour_Asymmetry_Pilot,2022.1.3,Win32,60.29544769,62c50e9c1127f2cd403a315f,0,75,75,140,1,threeone,,,,,,,,,,,,,,,,,,,,,,,,,,,,,,,,,,,,,,,,,,,,,,,,,,,,,,,,,,,,,,,,,,,,,,,,,,,,,,,,,,,,,,,,,,,,,,,,,,,,,,,,,,,,,,,,,,,,,,,,,,,,,,,,,,,,,,,,,,,,,,,,,,,,,,,,,,,,,
,,,,,,60ce3ac4d251ea55f805b485,62c5394cc5861622af3fff54,2022-07-06_09h27.34.672,Colour_Asymmetry_Pilot,2022.1.3,Win32,60.29544769,62c50e9c1127f2cd403a315f,0,76,76,70,1,fourtwo,,,,,,,,,,,,,,,,,,,,,,,,,,,,,,,,,,,,,,,,,,,,,,,,,,,,,,,,,,,,,,,,,,,,,,,,,,,,,,,,,,,,,,,,,,,,,,,,,,,,,,,,,,,,,,,,,,,,,,,,,,,,,,,,,,,,,,,,,,,,,,,,,,,,,,,,,,,,,
,,,,,,60ce3ac4d251ea55f805b485,62c5394cc5861622af3fff54,2022-07-06_09h27.34.672,Colour_Asymmetry_Pilot,2022.1.3,Win32,60.29544769,62c50e9c1127f2cd403a315f,0,77,77,158,1,fourtwo,,,,,,,,,,,,,,,,,,,,,,,,,,,,,,,,,,,,,,,,,,,,,,,,,,,,,,,,,,,,,,,,,,,,,,,,,,,,,,,,,,,,,,,,,,,,,,,,,,,,,,,,,,,,,,,,,,,,,,,,,,,,,,,,,,,,,,,,,,,,,,,,,,,,,,,,,,,,,
,,,,,,60ce3ac4d251ea55f805b485,62c5394cc5861622af3fff54,2022-07-06_09h27.34.672,Colour_Asymmetry_Pilot,2022.1.3,Win32,60.29544769,62c50e9c1127f2cd403a315f,0,78,78,105,1,onethree,,,,,,,,,,,,,,,,,,,,,,,,,,,,,,,,,,,,,,,,,,,,,,,,,,,,,,,,,,,,,,,,,,,,,,,,,,,,,,,,,,,,,,,,,,,,,,,,,,,,,,,,,,,,,,,,,,,,,,,,,,,,,,,,,,,,,,,,,,,,,,,,,,,,,,,,,,,,,
,,,,,,60ce3ac4d251ea55f805b485,62c5394cc5861622af3fff54,2022-07-06_09h27.34.672,Colour_Asymmetry_Pilot,2022.1.3,Win32,60.29544769,62c50e9c1127f2cd403a315f,0,79,79,110,1,fourtwo,,,,,,,,,,,,,,,,,,,,,,,,,,,,,,,,,,,,,,,,,,,,,,,,,,,,,,,,,,,,,,,,,,,,,,,,,,,,,,,,,,,,,,,,,,,,,,,,,,,,,,,,,,,,,,,,,,,,,,,,,,,,,,,,,,,,,,,,,,,,,,,,,,,,,,,,,,,,,
,,,,,,60ce3ac4d251ea55f805b485,62c5394cc5861622af3fff54,2022-07-06_09h27.34.672,Colour_Asymmetry_Pilot,2022.1.3,Win32,60.29544769,62c50e9c1127f2cd403a315f,0,80,80,111,1,fourthree,,,,,,,,,,,,,,,,,,,,,,,,,,,,,,,,,,,,,,,,,,,,,,,,,,,,,,,,,,,,,,,,,,,,,,,,,,,,,,,,,,,,,,,,,,,,,,,,,,,,,,,,,,,,,,,,,,,,,,,,,,,,,,,,,,,,,,,,,,,,,,,,,,,,,,,,,,,,,
,,,,,,60ce3ac4d251ea55f805b485,62c5394cc5861622af3fff54,2022-07-06_09h27.34.672,Colour_Asymmetry_Pilot,2022.1.3,Win32,60.29544769,62c50e9c1127f2cd403a315f,0,81,81,75,1,twofour,,,,,,,,,,,,,,,,,,,,,,,,,,,,,,,,,,,,,,,,,,,,,,,,,,,,,,,,,,,,,,,,,,,,,,,,,,,,,,,,,,,,,,,,,,,,,,,,,,,,,,,,,,,,,,,,,,,,,,,,,,,,,,,,,,,,,,,,,,,,,,,,,,,,,,,,,,,,,
,,,,,,60ce3ac4d251ea55f805b485,62c5394cc5861622af3fff54,2022-07-06_09h27.34.672,Colour_Asymmetry_Pilot,2022.1.3,Win32,60.29544769,62c50e9c1127f2cd403a315f,0,82,82,10,1,twoone,,,,,,,,,,,,,,,,,,,,,,,,,,,,,,,,,,,,,,,,,,,,,,,,,,,,,,,,,,,,,,,,,,,,,,,,,,,,,,,,,,,,,,,,,,,,,,,,,,,,,,,,,,,,,,,,,,,,,,,,,,,,,,,,,,,,,,,,,,,,,,,,,,,,,,,,,,,,,
,,,,,,60ce3ac4d251ea55f805b485,62c5394cc5861622af3fff54,2022-07-06_09h27.34.672,Colour_Asymmetry_Pilot,2022.1.3,Win32,60.29544769,62c50e9c1127f2cd403a315f,0,83,83,133,1,threefour,,,,,,,,,,,,,,,,,,,,,,,,,,,,,,,,,,,,,,,,,,,,,,,,,,,,,,,,,,,,,,,,,,,,,,,,,,,,,,,,,,,,,,,,,,,,,,,,,,,,,,,,,,,,,,,,,,,,,,,,,,,,,,,,,,,,,,,,,,,,,,,,,,,,,,,,,,,,,
,,,,,,60ce3ac4d251ea55f805b485,62c5394cc5861622af3fff54,2022-07-06_09h27.34.672,Colour_Asymmetry_Pilot,2022.1.3,Win32,60.29544769,62c50e9c1127f2cd403a315f,0,84,84,150,1,fourtwo,,,,,,,,,,,,,,,,,,,,,,,,,,,,,,,,,,,,,,,,,,,,,,,,,,,,,,,,,,,,,,,,,,,,,,,,,,,,,,,,,,,,,,,,,,,,,,,,,,,,,,,,,,,,,,,,,,,,,,,,,,,,,,,,,,,,,,,,,,,,,,,,,,,,,,,,,,,,,
,,,,,,60ce3ac4d251ea55f805b485,62c5394cc5861622af3fff54,2022-07-06_09h27.34.672,Colour_Asymmetry_Pilot,2022.1.3,Win32,60.29544769,62c50e9c1127f2cd403a315f,0,85,85,78,1,fourtwo,,,,,,,,,,,,,,,,,,,,,,,,,,,,,,,,,,,,,,,,,,,,,,,,,,,,,,,,,,,,,,,,,,,,,,,,,,,,,,,,,,,,,,,,,,,,,,,,,,,,,,,,,,,,,,,,,,,,,,,,,,,,,,,,,,,,,,,,,,,,,,,,,,,,,,,,,,,,,
,,,,,,60ce3ac4d251ea55f805b485,62c5394cc5861622af3fff54,2022-07-06_09h27.34.672,Colour_Asymmetry_Pilot,2022.1.3,Win32,60.29544769,62c50e9c1127f2cd403a315f,0,86,86,62,1,fourtwo,,,,,,,,,,,,,,,,,,,,,,,,,,,,,,,,,,,,,,,,,,,,,,,,,,,,,,,,,,,,,,,,,,,,,,,,,,,,,,,,,,,,,,,,,,,,,,,,,,,,,,,,,,,,,,,,,,,,,,,,,,,,,,,,,,,,,,,,,,,,,,,,,,,,,,,,,,,,,
,,,,,,60ce3ac4d251ea55f805b485,62c5394cc5861622af3fff54,2022-07-06_09h27.34.672,Colour_Asymmetry_Pilot,2022.1.3,Win32,60.29544769,62c50e9c1127f2cd403a315f,0,87,87,123,1,twofour,,,,,,,,,,,,,,,,,,,,,,,,,,,,,,,,,,,,,,,,,,,,,,,,,,,,,,,,,,,,,,,,,,,,,,,,,,,,,,,,,,,,,,,,,,,,,,,,,,,,,,,,,,,,,,,,,,,,,,,,,,,,,,,,,,,,,,,,,,,,,,,,,,,,,,,,,,,,,
,,,,,,60ce3ac4d251ea55f805b485,62c5394cc5861622af3fff54,2022-07-06_09h27.34.672,Colour_Asymmetry_Pilot,2022.1.3,Win32,60.29544769,62c50e9c1127f2cd403a315f,0,88,88,37,1,threefour,,,,,,,,,,,,,,,,,,,,,,,,,,,,,,,,,,,,,,,,,,,,,,,,,,,,,,,,,,,,,,,,,,,,,,,,,,,,,,,,,,,,,,,,,,,,,,,,,,,,,,,,,,,,,,,,,,,,,,,,,,,,,,,,,,,,,,,,,,,,,,,,,,,,,,,,,,,,,
,,,,,,60ce3ac4d251ea55f805b485,62c5394cc5861622af3fff54,2022-07-06_09h27.34.672,Colour_Asymmetry_Pilot,2022.1.3,Win32,60.29544769,62c50e9c1127f2cd403a315f,0,89,89,131,1,twofour,,,,,,,,,,,,,,,,,,,,,,,,,,,,,,,,,,,,,,,,,,,,,,,,,,,,,,,,,,,,,,,,,,,,,,,,,,,,,,,,,,,,,,,,,,,,,,,,,,,,,,,,,,,,,,,,,,,,,,,,,,,,,,,,,,,,,,,,,,,,,,,,,,,,,,,,,,,,,
,,,,,,60ce3ac4d251ea55f805b485,62c5394cc5861622af3fff54,2022-07-06_09h27.34.672,Colour_Asymmetry_Pilot,2022.1.3,Win32,60.29544769,62c50e9c1127f2cd403a315f,0,90,90,155,1,twofour,,,,,,,,,,,,,,,,,,,,,,,,,,,,,,,,,,,,,,,,,,,,,,,,,,,,,,,,,,,,,,,,,,,,,,,,,,,,,,,,,,,,,,,,,,,,,,,,,,,,,,,,,,,,,,,,,,,,,,,,,,,,,,,,,,,,,,,,,,,,,,,,,,,,,,,,,,,,,
,,,,,,60ce3ac4d251ea55f805b485,62c5394cc5861622af3fff54,2022-07-06_09h27.34.672,Colour_Asymmetry_Pilot,2022.1.3,Win32,60.29544769,62c50e9c1127f2cd403a315f,0,91,91,154,1,twoone,,,,,,,,,,,,,,,,,,,,,,,,,,,,,,,,,,,,,,,,,,,,,,,,,,,,,,,,,,,,,,,,,,,,,,,,,,,,,,,,,,,,,,,,,,,,,,,,,,,,,,,,,,,,,,,,,,,,,,,,,,,,,,,,,,,,,,,,,,,,,,,,,,,,,,,,,,,,,
,,,,,,60ce3ac4d251ea55f805b485,62c5394cc5861622af3fff54,2022-07-06_09h27.34.672,Colour_Asymmetry_Pilot,2022.1.3,Win32,60.29544769,62c50e9c1127f2cd403a315f,0,92,92,40,1,onetwo,,,,,,,,,,,,,,,,,,,,,,,,,,,,,,,,,,,,,,,,,,,,,,,,,,,,,,,,,,,,,,,,,,,,,,,,,,,,,,,,,,,,,,,,,,,,,,,,,,,,,,,,,,,,,,,,,,,,,,,,,,,,,,,,,,,,,,,,,,,,,,,,,,,,,,,,,,,,,
,,,,,,60ce3ac4d251ea55f805b485,62c5394cc5861622af3fff54,2022-07-06_09h27.34.672,Colour_Asymmetry_Pilot,2022.1.3,Win32,60.29544769,62c50e9c1127f2cd403a315f,0,93,93,35,1,twofour,,,,,,,,,,,,,,,,,,,,,,,,,,,,,,,,,,,,,,,,,,,,,,,,,,,,,,,,,,,,,,,,,,,,,,,,,,,,,,,,,,,,,,,,,,,,,,,,,,,,,,,,,,,,,,,,,,,,,,,,,,,,,,,,,,,,,,,,,,,,,,,,,,,,,,,,,,,,,
,,,,,,60ce3ac4d251ea55f805b485,62c5394cc5861622af3fff54,2022-07-06_09h27.34.672,Colour_Asymmetry_Pilot,2022.1.3,Win32,60.29544769,62c50e9c1127f2cd403a315f,0,94,94,31,1,fourthree,,,,,,,,,,,,,,,,,,,,,,,,,,,,,,,,,,,,,,,,,,,,,,,,,,,,,,,,,,,,,,,,,,,,,,,,,,,,,,,,,,,,,,,,,,,,,,,,,,,,,,,,,,,,,,,,,,,,,,,,,,,,,,,,,,,,,,,,,,,,,,,,,,,,,,,,,,,,,
,,,,,,60ce3ac4d251ea55f805b485,62c5394cc5861622af3fff54,2022-07-06_09h27.34.672,Colour_Asymmetry_Pilot,2022.1.3,Win32,60.29544769,62c50e9c1127f2cd403a315f,0,95,95,156,1,threeone,,,,,,,,,,,,,,,,,,,,,,,,,,,,,,,,,,,,,,,,,,,,,,,,,,,,,,,,,,,,,,,,,,,,,,,,,,,,,,,,,,,,,,,,,,,,,,,,,,,,,,,,,,,,,,,,,,,,,,,,,,,,,,,,,,,,,,,,,,,,,,,,,,,,,,,,,,,,,
,,,,,,60ce3ac4d251ea55f805b485,62c5394cc5861622af3fff54,2022-07-06_09h27.34.672,Colour_Asymmetry_Pilot,2022.1.3,Win32,60.29544769,62c50e9c1127f2cd403a315f,0,96,96,71,1,fourthree,,,,,,,,,,,,,,,,,,,,,,,,,,,,,,,,,,,,,,,,,,,,,,,,,,,,,,,,,,,,,,,,,,,,,,,,,,,,,,,,,,,,,,,,,,,,,,,,,,,,,,,,,,,,,,,,,,,,,,,,,,,,,,,,,,,,,,,,,,,,,,,,,,,,,,,,,,,,,
,,,,,,60ce3ac4d251ea55f805b485,62c5394cc5861622af3fff54,2022-07-06_09h27.34.672,Colour_Asymmetry_Pilot,2022.1.3,Win32,60.29544769,62c50e9c1127f2cd403a315f,0,97,97,53,1,threefour,,,,,,,,,,,,,,,,,,,,,,,,,,,,,,,,,,,,,,,,,,,,,,,,,,,,,,,,,,,,,,,,,,,,,,,,,,,,,,,,,,,,,,,,,,,,,,,,,,,,,,,,,,,,,,,,,,,,,,,,,,,,,,,,,,,,,,,,,,,,,,,,,,,,,,,,,,,,,
,,,,,,60ce3ac4d251ea55f805b485,62c5394cc5861622af3fff54,2022-07-06_09h27.34.672,Colour_Asymmetry_Pilot,2022.1.3,Win32,60.29544769,62c50e9c1127f2cd403a315f,0,98,98,118,1,fourtwo,,,,,,,,,,,,,,,,,,,,,,,,,,,,,,,,,,,,,,,,,,,,,,,,,,,,,,,,,,,,,,,,,,,,,,,,,,,,,,,,,,,,,,,,,,,,,,,,,,,,,,,,,,,,,,,,,,,,,,,,,,,,,,,,,,,,,,,,,,,,,,,,,,,,,,,,,,,,,
,,,,,,60ce3ac4d251ea55f805b485,62c5394cc5861622af3fff54,2022-07-06_09h27.34.672,Colour_Asymmetry_Pilot,2022.1.3,Win32,60.29544769,62c50e9c1127f2cd403a315f,0,99,99,5,1,threefour,,,,,,,,,,,,,,,,,,,,,,,,,,,,,,,,,,,,,,,,,,,,,,,,,,,,,,,,,,,,,,,,,,,,,,,,,,,,,,,,,,,,,,,,,,,,,,,,,,,,,,,,,,,,,,,,,,,,,,,,,,,,,,,,,,,,,,,,,,,,,,,,,,,,,,,,,,,,,
,,,,,,60ce3ac4d251ea55f805b485,62c5394cc5861622af3fff54,2022-07-06_09h27.34.672,Colour_Asymmetry_Pilot,2022.1.3,Win32,60.29544769,62c50e9c1127f2cd403a315f,0,100,100,54,1,fourtwo,,,,,,,,,,,,,,,,,,,,,,,,,,,,,,,,,,,,,,,,,,,,,,,,,,,,,,,,,,,,,,,,,,,,,,,,,,,,,,,,,,,,,,,,,,,,,,,,,,,,,,,,,,,,,,,,,,,,,,,,,,,,,,,,,,,,,,,,,,,,,,,,,,,,,,,,,,,,,
,,,,,,60ce3ac4d251ea55f805b485,62c5394cc5861622af3fff54,2022-07-06_09h27.34.672,Colour_Asymmetry_Pilot,2022.1.3,Win32,60.29544769,62c50e9c1127f2cd403a315f,0,101,101,86,1,fourtwo,,,,,,,,,,,,,,,,,,,,,,,,,,,,,,,,,,,,,,,,,,,,,,,,,,,,,,,,,,,,,,,,,,,,,,,,,,,,,,,,,,,,,,,,,,,,,,,,,,,,,,,,,,,,,,,,,,,,,,,,,,,,,,,,,,,,,,,,,,,,,,,,,,,,,,,,,,,,,
,,,,,,60ce3ac4d251ea55f805b485,62c5394cc5861622af3fff54,2022-07-06_09h27.34.672,Colour_Asymmetry_Pilot,2022.1.3,Win32,60.29544769,62c50e9c1127f2cd403a315f,0,102,102,32,1,onetwo,,,,,,,,,,,,,,,,,,,,,,,,,,,,,,,,,,,,,,,,,,,,,,,,,,,,,,,,,,,,,,,,,,,,,,,,,,,,,,,,,,,,,,,,,,,,,,,,,,,,,,,,,,,,,,,,,,,,,,,,,,,,,,,,,,,,,,,,,,,,,,,,,,,,,,,,,,,,,
,,,,,,60ce3ac4d251ea55f805b485,62c5394cc5861622af3fff54,2022-07-06_09h27.34.672,Colour_Asymmetry_Pilot,2022.1.3,Win32,60.29544769,62c50e9c1127f2cd403a315f,0,103,103,94,1,fourtwo,,,,,,,,,,,,,,,,,,,,,,,,,,,,,,,,,,,,,,,,,,,,,,,,,,,,,,,,,,,,,,,,,,,,,,,,,,,,,,,,,,,,,,,,,,,,,,,,,,,,,,,,,,,,,,,,,,,,,,,,,,,,,,,,,,,,,,,,,,,,,,,,,,,,,,,,,,,,,
,,,,,,60ce3ac4d251ea55f805b485,62c5394cc5861622af3fff54,2022-07-06_09h27.34.672,Colour_Asymmetry_Pilot,2022.1.3,Win32,60.29544769,62c50e9c1127f2cd403a315f,0,104,104,21,1,threefour,,,,,,,,,,,,,,,,,,,,,,,,,,,,,,,,,,,,,,,,,,,,,,,,,,,,,,,,,,,,,,,,,,,,,,,,,,,,,,,,,,,,,,,,,,,,,,,,,,,,,,,,,,,,,,,,,,,,,,,,,,,,,,,,,,,,,,,,,,,,,,,,,,,,,,,,,,,,,
,,,,,,60ce3ac4d251ea55f805b485,62c5394cc5861622af3fff54,2022-07-06_09h27.34.672,Colour_Asymmetry_Pilot,2022.1.3,Win32,60.29544769,62c50e9c1127f2cd403a315f,0,105,105,138,1,twoone,,,,,,,,,,,,,,,,,,,,,,,,,,,,,,,,,,,,,,,,,,,,,,,,,,,,,,,,,,,,,,,,,,,,,,,,,,,,,,,,,,,,,,,,,,,,,,,,,,,,,,,,,,,,,,,,,,,,,,,,,,,,,,,,,,,,,,,,,,,,,,,,,,,,,,,,,,,,,
,,,,,,60ce3ac4d251ea55f805b485,62c5394cc5861622af3fff54,2022-07-06_09h27.34.672,Colour_Asymmetry_Pilot,2022.1.3,Win32,60.29544769,62c50e9c1127f2cd403a315f,0,106,106,33,1,onethree,,,,,,,,,,,,,,,,,,,,,,,,,,,,,,,,,,,,,,,,,,,,,,,,,,,,,,,,,,,,,,,,,,,,,,,,,,,,,,,,,,,,,,,,,,,,,,,,,,,,,,,,,,,,,,,,,,,,,,,,,,,,,,,,,,,,,,,,,,,,,,,,,,,,,,,,,,,,,
,,,,,,60ce3ac4d251ea55f805b485,62c5394cc5861622af3fff54,2022-07-06_09h27.34.672,Colour_Asymmetry_Pilot,2022.1.3,Win32,60.29544769,62c50e9c1127f2cd403a315f,0,107,107,4,1,threeone,,,,,,,,,,,,,,,,,,,,,,,,,,,,,,,,,,,,,,,,,,,,,,,,,,,,,,,,,,,,,,,,,,,,,,,,,,,,,,,,,,,,,,,,,,,,,,,,,,,,,,,,,,,,,,,,,,,,,,,,,,,,,,,,,,,,,,,,,,,,,,,,,,,,,,,,,,,,,
,,,,,,60ce3ac4d251ea55f805b485,62c5394cc5861622af3fff54,2022-07-06_09h27.34.672,Colour_Asymmetry_Pilot,2022.1.3,Win32,60.29544769,62c50e9c1127f2cd403a315f,0,108,108,80,1,onetwo,,,,,,,,,,,,,,,,,,,,,,,,,,,,,,,,,,,,,,,,,,,,,,,,,,,,,,,,,,,,,,,,,,,,,,,,,,,,,,,,,,,,,,,,,,,,,,,,,,,,,,,,,,,,,,,,,,,,,,,,,,,,,,,,,,,,,,,,,,,,,,,,,,,,,,,,,,,,,
,,,,,,60ce3ac4d251ea55f805b485,62c5394cc5861622af3fff54,2022-07-06_09h27.34.672,Colour_Asymmetry_Pilot,2022.1.3,Win32,60.29544769,62c50e9c1127f2cd403a315f,0,109,109,106,1,twoone,,,,,,,,,,,,,,,,,,,,,,,,,,,,,,,,,,,,,,,,,,,,,,,,,,,,,,,,,,,,,,,,,,,,,,,,,,,,,,,,,,,,,,,,,,,,,,,,,,,,,,,,,,,,,,,,,,,,,,,,,,,,,,,,,,,,,,,,,,,,,,,,,,,,,,,,,,,,,
,,,,,,60ce3ac4d251ea55f805b485,62c5394cc5861622af3fff54,2022-07-06_09h27.34.672,Colour_Asymmetry_Pilot,2022.1.3,Win32,60.29544769,62c50e9c1127f2cd403a315f,0,110,110,89,1,onethree,,,,,,,,,,,,,,,,,,,,,,,,,,,,,,,,,,,,,,,,,,,,,,,,,,,,,,,,,,,,,,,,,,,,,,,,,,,,,,,,,,,,,,,,,,,,,,,,,,,,,,,,,,,,,,,,,,,,,,,,,,,,,,,,,,,,,,,,,,,,,,,,,,,,,,,,,,,,,
,,,,,,60ce3ac4d251ea55f805b485,62c5394cc5861622af3fff54,2022-07-06_09h27.34.672,Colour_Asymmetry_Pilot,2022.1.3,Win32,60.29544769,62c50e9c1127f2cd403a315f,0,111,111,11,1,twofour,,,,,,,,,,,,,,,,,,,,,,,,,,,,,,,,,,,,,,,,,,,,,,,,,,,,,,,,,,,,,,,,,,,,,,,,,,,,,,,,,,,,,,,,,,,,,,,,,,,,,,,,,,,,,,,,,,,,,,,,,,,,,,,,,,,,,,,,,,,,,,,,,,,,,,,,,,,,,
,,,,,,60ce3ac4d251ea55f805b485,62c5394cc5861622af3fff54,2022-07-06_09h27.34.672,Colour_Asymmetry_Pilot,2022.1.3,Win32,60.29544769,62c50e9c1127f2cd403a315f,0,112,112,143,1,fourthree,,,,,,,,,,,,,,,,,,,,,,,,,,,,,,,,,,,,,,,,,,,,,,,,,,,,,,,,,,,,,,,,,,,,,,,,,,,,,,,,,,,,,,,,,,,,,,,,,,,,,,,,,,,,,,,,,,,,,,,,,,,,,,,,,,,,,,,,,,,,,,,,,,,,,,,,,,,,,
,,,,,,60ce3ac4d251ea55f805b485,62c5394cc5861622af3fff54,2022-07-06_09h27.34.672,Colour_Asymmetry_Pilot,2022.1.3,Win32,60.29544769,62c50e9c1127f2cd403a315f,0,113,113,44,1,threeone,,,,,,,,,,,,,,,,,,,,,,,,,,,,,,,,,,,,,,,,,,,,,,,,,,,,,,,,,,,,,,,,,,,,,,,,,,,,,,,,,,,,,,,,,,,,,,,,,,,,,,,,,,,,,,,,,,,,,,,,,,,,,,,,,,,,,,,,,,,,,,,,,,,,,,,,,,,,,
,,,,,,60ce3ac4d251ea55f805b485,62c5394cc5861622af3fff54,2022-07-06_09h27.34.672,Colour_Asymmetry_Pilot,2022.1.3,Win32,60.29544769,62c50e9c1127f2cd403a315f,0,114,114,132,1,threeone,,,,,,,,,,,,,,,,,,,,,,,,,,,,,,,,,,,,,,,,,,,,,,,,,,,,,,,,,,,,,,,,,,,,,,,,,,,,,,,,,,,,,,,,,,,,,,,,,,,,,,,,,,,,,,,,,,,,,,,,,,,,,,,,,,,,,,,,,,,,,,,,,,,,,,,,,,,,,
,,,,,,60ce3ac4d251ea55f805b485,62c5394cc5861622af3fff54,2022-07-06_09h27.34.672,Colour_Asymmetry_Pilot,2022.1.3,Win32,60.29544769,62c50e9c1127f2cd403a315f,0,115,115,29,1,threefour,,,,,,,,,,,,,,,,,,,,,,,,,,,,,,,,,,,,,,,,,,,,,,,,,,,,,,,,,,,,,,,,,,,,,,,,,,,,,,,,,,,,,,,,,,,,,,,,,,,,,,,,,,,,,,,,,,,,,,,,,,,,,,,,,,,,,,,,,,,,,,,,,,,,,,,,,,,,,
,,,,,,60ce3ac4d251ea55f805b485,62c5394cc5861622af3fff54,2022-07-06_09h27.34.672,Colour_Asymmetry_Pilot,2022.1.3,Win32,60.29544769,62c50e9c1127f2cd403a315f,0,116,116,69,1,threefour,,,,,,,,,,,,,,,,,,,,,,,,,,,,,,,,,,,,,,,,,,,,,,,,,,,,,,,,,,,,,,,,,,,,,,,,,,,,,,,,,,,,,,,,,,,,,,,,,,,,,,,,,,,,,,,,,,,,,,,,,,,,,,,,,,,,,,,,,,,,,,,,,,,,,,,,,,,,,
,,,,,,60ce3ac4d251ea55f805b485,62c5394cc5861622af3fff54,2022-07-06_09h27.34.672,Colour_Asymmetry_Pilot,2022.1.3,Win32,60.29544769,62c50e9c1127f2cd403a315f,0,117,117,144,1,onetwo,,,,,,,,,,,,,,,,,,,,,,,,,,,,,,,,,,,,,,,,,,,,,,,,,,,,,,,,,,,,,,,,,,,,,,,,,,,,,,,,,,,,,,,,,,,,,,,,,,,,,,,,,,,,,,,,,,,,,,,,,,,,,,,,,,,,,,,,,,,,,,,,,,,,,,,,,,,,,
,,,,,,60ce3ac4d251ea55f805b485,62c5394cc5861622af3fff54,2022-07-06_09h27.34.672,Colour_Asymmetry_Pilot,2022.1.3,Win32,60.29544769,62c50e9c1127f2cd403a315f,0,118,118,119,1,fourthree,,,,,,,,,,,,,,,,,,,,,,,,,,,,,,,,,,,,,,,,,,,,,,,,,,,,,,,,,,,,,,,,,,,,,,,,,,,,,,,,,,,,,,,,,,,,,,,,,,,,,,,,,,,,,,,,,,,,,,,,,,,,,,,,,,,,,,,,,,,,,,,,,,,,,,,,,,,,,
,,,,,,60ce3ac4d251ea55f805b485,62c5394cc5861622af3fff54,2022-07-06_09h27.34.672,Colour_Asymmetry_Pilot,2022.1.3,Win32,60.29544769,62c50e9c1127f2cd403a315f,0,119,119,120,1,onetwo,,,,,,,,,,,,,,,,,,,,,,,,,,,,,,,,,,,,,,,,,,,,,,,,,,,,,,,,,,,,,,,,,,,,,,,,,,,,,,,,,,,,,,,,,,,,,,,,,,,,,,,,,,,,,,,,,,,,,,,,,,,,,,,,,,,,,,,,,,,,,,,,,,,,,,,,,,,,,
,,,,,,60ce3ac4d251ea55f805b485,62c5394cc5861622af3fff54,2022-07-06_09h27.34.672,Colour_Asymmetry_Pilot,2022.1.3,Win32,60.29544769,62c50e9c1127f2cd403a315f,0,120,120,79,1,fourthree,,,,,,,,,,,,,,,,,,,,,,,,,,,,,,,,,,,,,,,,,,,,,,,,,,,,,,,,,,,,,,,,,,,,,,,,,,,,,,,,,,,,,,,,,,,,,,,,,,,,,,,,,,,,,,,,,,,,,,,,,,,,,,,,,,,,,,,,,,,,,,,,,,,,,,,,,,,,,
,,,,,,60ce3ac4d251ea55f805b485,62c5394cc5861622af3fff54,2022-07-06_09h27.34.672,Colour_Asymmetry_Pilot,2022.1.3,Win32,60.29544769,62c50e9c1127f2cd403a315f,0,121,121,19,1,twofour,,,,,,,,,,,,,,,,,,,,,,,,,,,,,,,,,,,,,,,,,,,,,,,,,,,,,,,,,,,,,,,,,,,,,,,,,,,,,,,,,,,,,,,,,,,,,,,,,,,,,,,,,,,,,,,,,,,,,,,,,,,,,,,,,,,,,,,,,,,,,,,,,,,,,,,,,,,,,
,,,,,,60ce3ac4d251ea55f805b485,62c5394cc5861622af3fff54,2022-07-06_09h27.34.672,Colour_Asymmetry_Pilot,2022.1.3,Win32,60.29544769,62c50e9c1127f2cd403a315f,0,122,122,2,1,twoone,,,,,,,,,,,,,,,,,,,,,,,,,,,,,,,,,,,,,,,,,,,,,,,,,,,,,,,,,,,,,,,,,,,,,,,,,,,,,,,,,,,,,,,,,,,,,,,,,,,,,,,,,,,,,,,,,,,,,,,,,,,,,,,,,,,,,,,,,,,,,,,,,,,,,,,,,,,,,
,,,,,,60ce3ac4d251ea55f805b485,62c5394cc5861622af3fff54,2022-07-06_09h27.34.672,Colour_Asymmetry_Pilot,2022.1.3,Win32,60.29544769,62c50e9c1127f2cd403a315f,0,123,123,68,1,threeone,,,,,,,,,,,,,,,,,,,,,,,,,,,,,,,,,,,,,,,,,,,,,,,,,,,,,,,,,,,,,,,,,,,,,,,,,,,,,,,,,,,,,,,,,,,,,,,,,,,,,,,,,,,,,,,,,,,,,,,,,,,,,,,,,,,,,,,,,,,,,,,,,,,,,,,,,,,,,
,,,,,,60ce3ac4d251ea55f805b485,62c5394cc5861622af3fff54,2022-07-06_09h27.34.672,Colour_Asymmetry_Pilot,2022.1.3,Win32,60.29544769,62c50e9c1127f2cd403a315f,0,124,124,129,1,onethree,,,,,,,,,,,,,,,,,,,,,,,,,,,,,,,,,,,,,,,,,,,,,,,,,,,,,,,,,,,,,,,,,,,,,,,,,,,,,,,,,,,,,,,,,,,,,,,,,,,,,,,,,,,,,,,,,,,,,,,,,,,,,,,,,,,,,,,,,,,,,,,,,,,,,,,,,,,,,
,,,,,,60ce3ac4d251ea55f805b485,62c5394cc5861622af3fff54,2022-07-06_09h27.34.672,Colour_Asymmetry_Pilot,2022.1.3,Win32,60.29544769,62c50e9c1127f2cd403a315f,0,125,125,36,1,threeone,,,,,,,,,,,,,,,,,,,,,,,,,,,,,,,,,,,,,,,,,,,,,,,,,,,,,,,,,,,,,,,,,,,,,,,,,,,,,,,,,,,,,,,,,,,,,,,,,,,,,,,,,,,,,,,,,,,,,,,,,,,,,,,,,,,,,,,,,,,,,,,,,,,,,,,,,,,,,
,,,,,,60ce3ac4d251ea55f805b485,62c5394cc5861622af3fff54,2022-07-06_09h27.34.672,Colour_Asymmetry_Pilot,2022.1.3,Win32,60.29544769,62c50e9c1127f2cd403a315f,0,126,126,109,1,threefour,,,,,,,,,,,,,,,,,,,,,,,,,,,,,,,,,,,,,,,,,,,,,,,,,,,,,,,,,,,,,,,,,,,,,,,,,,,,,,,,,,,,,,,,,,,,,,,,,,,,,,,,,,,,,,,,,,,,,,,,,,,,,,,,,,,,,,,,,,,,,,,,,,,,,,,,,,,,,
,,,,,,60ce3ac4d251ea55f805b485,62c5394cc5861622af3fff54,2022-07-06_09h27.34.672,Colour_Asymmetry_Pilot,2022.1.3,Win32,60.29544769,62c50e9c1127f2cd403a315f,0,127,127,125,1,threefour,,,,,,,,,,,,,,,,,,,,,,,,,,,,,,,,,,,,,,,,,,,,,,,,,,,,,,,,,,,,,,,,,,,,,,,,,,,,,,,,,,,,,,,,,,,,,,,,,,,,,,,,,,,,,,,,,,,,,,,,,,,,,,,,,,,,,,,,,,,,,,,,,,,,,,,,,,,,,
,,,,,,60ce3ac4d251ea55f805b485,62c5394cc5861622af3fff54,2022-07-06_09h27.34.672,Colour_Asymmetry_Pilot,2022.1.3,Win32,60.29544769,62c50e9c1127f2cd403a315f,0,128,128,59,1,twofour,,,,,,,,,,,,,,,,,,,,,,,,,,,,,,,,,,,,,,,,,,,,,,,,,,,,,,,,,,,,,,,,,,,,,,,,,,,,,,,,,,,,,,,,,,,,,,,,,,,,,,,,,,,,,,,,,,,,,,,,,,,,,,,,,,,,,,,,,,,,,,,,,,,,,,,,,,,,,
,,,,,,60ce3ac4d251ea55f805b485,62c5394cc5861622af3fff54,2022-07-06_09h27.34.672,Colour_Asymmetry_Pilot,2022.1.3,Win32,60.29544769,62c50e9c1127f2cd403a315f,0,129,129,30,1,fourtwo,,,,,,,,,,,,,,,,,,,,,,,,,,,,,,,,,,,,,,,,,,,,,,,,,,,,,,,,,,,,,,,,,,,,,,,,,,,,,,,,,,,,,,,,,,,,,,,,,,,,,,,,,,,,,,,,,,,,,,,,,,,,,,,,,,,,,,,,,,,,,,,,,,,,,,,,,,,,,
,,,,,,60ce3ac4d251ea55f805b485,62c5394cc5861622af3fff54,2022-07-06_09h27.34.672,Colour_Asymmetry_Pilot,2022.1.3,Win32,60.29544769,62c50e9c1127f2cd403a315f,0,130,130,101,1,threefour,,,,,,,,,,,,,,,,,,,,,,,,,,,,,,,,,,,,,,,,,,,,,,,,,,,,,,,,,,,,,,,,,,,,,,,,,,,,,,,,,,,,,,,,,,,,,,,,,,,,,,,,,,,,,,,,,,,,,,,,,,,,,,,,,,,,,,,,,,,,,,,,,,,,,,,,,,,,,
,,,,,,60ce3ac4d251ea55f805b485,62c5394cc5861622af3fff54,2022-07-06_09h27.34.672,Colour_Asymmetry_Pilot,2022.1.3,Win32,60.29544769,62c50e9c1127f2cd403a315f,0,131,131,3,1,twofour,,,,,,,,,,,,,,,,,,,,,,,,,,,,,,,,,,,,,,,,,,,,,,,,,,,,,,,,,,,,,,,,,,,,,,,,,,,,,,,,,,,,,,,,,,,,,,,,,,,,,,,,,,,,,,,,,,,,,,,,,,,,,,,,,,,,,,,,,,,,,,,,,,,,,,,,,,,,,
,,,,,,60ce3ac4d251ea55f805b485,62c5394cc5861622af3fff54,2022-07-06_09h27.34.672,Colour_Asymmetry_Pilot,2022.1.3,Win32,60.29544769,62c50e9c1127f2cd403a315f,0,132,132,16,1,onetwo,,,,,,,,,,,,,,,,,,,,,,,,,,,,,,,,,,,,,,,,,,,,,,,,,,,,,,,,,,,,,,,,,,,,,,,,,,,,,,,,,,,,,,,,,,,,,,,,,,,,,,,,,,,,,,,,,,,,,,,,,,,,,,,,,,,,,,,,,,,,,,,,,,,,,,,,,,,,,
,,,,,,60ce3ac4d251ea55f805b485,62c5394cc5861622af3fff54,2022-07-06_09h27.34.672,Colour_Asymmetry_Pilot,2022.1.3,Win32,60.29544769,62c50e9c1127f2cd403a315f,0,133,133,121,1,onethree,,,,,,,,,,,,,,,,,,,,,,,,,,,,,,,,,,,,,,,,,,,,,,,,,,,,,,,,,,,,,,,,,,,,,,,,,,,,,,,,,,,,,,,,,,,,,,,,,,,,,,,,,,,,,,,,,,,,,,,,,,,,,,,,,,,,,,,,,,,,,,,,,,,,,,,,,,,,,
,,,,,,60ce3ac4d251ea55f805b485,62c5394cc5861622af3fff54,2022-07-06_09h27.34.672,Colour_Asymmetry_Pilot,2022.1.3,Win32,60.29544769,62c50e9c1127f2cd403a315f,0,134,134,87,1,fourthree,,,,,,,,,,,,,,,,,,,,,,,,,,,,,,,,,,,,,,,,,,,,,,,,,,,,,,,,,,,,,,,,,,,,,,,,,,,,,,,,,,,,,,,,,,,,,,,,,,,,,,,,,,,,,,,,,,,,,,,,,,,,,,,,,,,,,,,,,,,,,,,,,,,,,,,,,,,,,
,,,,,,60ce3ac4d251ea55f805b485,62c5394cc5861622af3fff54,2022-07-06_09h27.34.672,Colour_Asymmetry_Pilot,2022.1.3,Win32,60.29544769,62c50e9c1127f2cd403a315f,0,135,135,117,1,threefour,,,,,,,,,,,,,,,,,,,,,,,,,,,,,,,,,,,,,,,,,,,,,,,,,,,,,,,,,,,,,,,,,,,,,,,,,,,,,,,,,,,,,,,,,,,,,,,,,,,,,,,,,,,,,,,,,,,,,,,,,,,,,,,,,,,,,,,,,,,,,,,,,,,,,,,,,,,,,
,,,,,,60ce3ac4d251ea55f805b485,62c5394cc5861622af3fff54,2022-07-06_09h27.34.672,Colour_Asymmetry_Pilot,2022.1.3,Win32,60.29544769,62c50e9c1127f2cd403a315f,0,136,136,95,1,fourthree,,,,,,,,,,,,,,,,,,,,,,,,,,,,,,,,,,,,,,,,,,,,,,,,,,,,,,,,,,,,,,,,,,,,,,,,,,,,,,,,,,,,,,,,,,,,,,,,,,,,,,,,,,,,,,,,,,,,,,,,,,,,,,,,,,,,,,,,,,,,,,,,,,,,,,,,,,,,,
,,,,,,60ce3ac4d251ea55f805b485,62c5394cc5861622af3fff54,2022-07-06_09h27.34.672,Colour_Asymmetry_Pilot,2022.1.3,Win32,60.29544769,62c50e9c1127f2cd403a315f,0,137,137,146,1,twoone,,,,,,,,,,,,,,,,,,,,,,,,,,,,,,,,,,,,,,,,,,,,,,,,,,,,,,,,,,,,,,,,,,,,,,,,,,,,,,,,,,,,,,,,,,,,,,,,,,,,,,,,,,,,,,,,,,,,,,,,,,,,,,,,,,,,,,,,,,,,,,,,,,,,,,,,,,,,,
,,,,,,60ce3ac4d251ea55f805b485,62c5394cc5861622af3fff54,2022-07-06_09h27.34.672,Colour_Asymmetry_Pilot,2022.1.3,Win32,60.29544769,62c50e9c1127f2cd403a315f,0,138,138,17,1,onethree,,,,,,,,,,,,,,,,,,,,,,,,,,,,,,,,,,,,,,,,,,,,,,,,,,,,,,,,,,,,,,,,,,,,,,,,,,,,,,,,,,,,,,,,,,,,,,,,,,,,,,,,,,,,,,,,,,,,,,,,,,,,,,,,,,,,,,,,,,,,,,,,,,,,,,,,,,,,,
,,,,,,60ce3ac4d251ea55f805b485,62c5394cc5861622af3fff54,2022-07-06_09h27.34.672,Colour_Asymmetry_Pilot,2022.1.3,Win32,60.29544769,62c50e9c1127f2cd403a315f,0,139,139,128,1,onetwo,,,,,,,,,,,,,,,,,,,,,,,,,,,,,,,,,,,,,,,,,,,,,,,,,,,,,,,,,,,,,,,,,,,,,,,,,,,,,,,,,,,,,,,,,,,,,,,,,,,,,,,,,,,,,,,,,,,,,,,,,,,,,,,,,,,,,,,,,,,,,,,,,,,,,,,,,,,,,
,,,,,,60ce3ac4d251ea55f805b485,62c5394cc5861622af3fff54,2022-07-06_09h27.34.672,Colour_Asymmetry_Pilot,2022.1.3,Win32,60.29544769,62c50e9c1127f2cd403a315f,0,140,140,127,1,fourthree,,,,,,,,,,,,,,,,,,,,,,,,,,,,,,,,,,,,,,,,,,,,,,,,,,,,,,,,,,,,,,,,,,,,,,,,,,,,,,,,,,,,,,,,,,,,,,,,,,,,,,,,,,,,,,,,,,,,,,,,,,,,,,,,,,,,,,,,,,,,,,,,,,,,,,,,,,,,,
,,,,,,60ce3ac4d251ea55f805b485,62c5394cc5861622af3fff54,2022-07-06_09h27.34.672,Colour_Asymmetry_Pilot,2022.1.3,Win32,60.29544769,62c50e9c1127f2cd403a315f,0,141,141,22,1,fourtwo,,,,,,,,,,,,,,,,,,,,,,,,,,,,,,,,,,,,,,,,,,,,,,,,,,,,,,,,,,,,,,,,,,,,,,,,,,,,,,,,,,,,,,,,,,,,,,,,,,,,,,,,,,,,,,,,,,,,,,,,,,,,,,,,,,,,,,,,,,,,,,,,,,,,,,,,,,,,,
,,,,,,60ce3ac4d251ea55f805b485,62c5394cc5861622af3fff54,2022-07-06_09h27.34.672,Colour_Asymmetry_Pilot,2022.1.3,Win32,60.29544769,62c50e9c1127f2cd403a315f,0,142,142,126,1,fourtwo,,,,,,,,,,,,,,,,,,,,,,,,,,,,,,,,,,,,,,,,,,,,,,,,,,,,,,,,,,,,,,,,,,,,,,,,,,,,,,,,,,,,,,,,,,,,,,,,,,,,,,,,,,,,,,,,,,,,,,,,,,,,,,,,,,,,,,,,,,,,,,,,,,,,,,,,,,,,,
,,,,,,60ce3ac4d251ea55f805b485,62c5394cc5861622af3fff54,2022-07-06_09h27.34.672,Colour_Asymmetry_Pilot,2022.1.3,Win32,60.29544769,62c50e9c1127f2cd403a315f,0,143,143,60,1,threeone,,,,,,,,,,,,,,,,,,,,,,,,,,,,,,,,,,,,,,,,,,,,,,,,,,,,,,,,,,,,,,,,,,,,,,,,,,,,,,,,,,,,,,,,,,,,,,,,,,,,,,,,,,,,,,,,,,,,,,,,,,,,,,,,,,,,,,,,,,,,,,,,,,,,,,,,,,,,,
,,,,,,60ce3ac4d251ea55f805b485,62c5394cc5861622af3fff54,2022-07-06_09h27.34.672,Colour_Asymmetry_Pilot,2022.1.3,Win32,60.29544769,62c50e9c1127f2cd403a315f,0,144,144,112,1,onetwo,,,,,,,,,,,,,,,,,,,,,,,,,,,,,,,,,,,,,,,,,,,,,,,,,,,,,,,,,,,,,,,,,,,,,,,,,,,,,,,,,,,,,,,,,,,,,,,,,,,,,,,,,,,,,,,,,,,,,,,,,,,,,,,,,,,,,,,,,,,,,,,,,,,,,,,,,,,,,
,,,,,,60ce3ac4d251ea55f805b485,62c5394cc5861622af3fff54,2022-07-06_09h27.34.672,Colour_Asymmetry_Pilot,2022.1.3,Win32,60.29544769,62c50e9c1127f2cd403a315f,0,145,145,81,1,onethree,,,,,,,,,,,,,,,,,,,,,,,,,,,,,,,,,,,,,,,,,,,,,,,,,,,,,,,,,,,,,,,,,,,,,,,,,,,,,,,,,,,,,,,,,,,,,,,,,,,,,,,,,,,,,,,,,,,,,,,,,,,,,,,,,,,,,,,,,,,,,,,,,,,,,,,,,,,,,
,,,,,,60ce3ac4d251ea55f805b485,62c5394cc5861622af3fff54,2022-07-06_09h27.34.672,Colour_Asymmetry_Pilot,2022.1.3,Win32,60.29544769,62c50e9c1127f2cd403a315f,0,146,146,136,1,onetwo,,,,,,,,,,,,,,,,,,,,,,,,,,,,,,,,,,,,,,,,,,,,,,,,,,,,,,,,,,,,,,,,,,,,,,,,,,,,,,,,,,,,,,,,,,,,,,,,,,,,,,,,,,,,,,,,,,,,,,,,,,,,,,,,,,,,,,,,,,,,,,,,,,,,,,,,,,,,,
,,,,,,60ce3ac4d251ea55f805b485,62c5394cc5861622af3fff54,2022-07-06_09h27.34.672,Colour_Asymmetry_Pilot,2022.1.3,Win32,60.29544769,62c50e9c1127f2cd403a315f,0,147,147,42,1,twoone,,,,,,,,,,,,,,,,,,,,,,,,,,,,,,,,,,,,,,,,,,,,,,,,,,,,,,,,,,,,,,,,,,,,,,,,,,,,,,,,,,,,,,,,,,,,,,,,,,,,,,,,,,,,,,,,,,,,,,,,,,,,,,,,,,,,,,,,,,,,,,,,,,,,,,,,,,,,,
,,,,,,60ce3ac4d251ea55f805b485,62c5394cc5861622af3fff54,2022-07-06_09h27.34.672,Colour_Asymmetry_Pilot,2022.1.3,Win32,60.29544769,62c50e9c1127f2cd403a315f,0,148,148,92,1,threeone,,,,,,,,,,,,,,,,,,,,,,,,,,,,,,,,,,,,,,,,,,,,,,,,,,,,,,,,,,,,,,,,,,,,,,,,,,,,,,,,,,,,,,,,,,,,,,,,,,,,,,,,,,,,,,,,,,,,,,,,,,,,,,,,,,,,,,,,,,,,,,,,,,,,,,,,,,,,,
,,,,,,60ce3ac4d251ea55f805b485,62c5394cc5861622af3fff54,2022-07-06_09h27.34.672,Colour_Asymmetry_Pilot,2022.1.3,Win32,60.29544769,62c50e9c1127f2cd403a315f,0,149,149,55,1,fourthree,,,,,,,,,,,,,,,,,,,,,,,,,,,,,,,,,,,,,,,,,,,,,,,,,,,,,,,,,,,,,,,,,,,,,,,,,,,,,,,,,,,,,,,,,,,,,,,,,,,,,,,,,,,,,,,,,,,,,,,,,,,,,,,,,,,,,,,,,,,,,,,,,,,,,,,,,,,,,
,,,,,,60ce3ac4d251ea55f805b485,62c5394cc5861622af3fff54,2022-07-06_09h27.34.672,Colour_Asymmetry_Pilot,2022.1.3,Win32,60.29544769,62c50e9c1127f2cd403a315f,0,150,150,41,1,onethree,,,,,,,,,,,,,,,,,,,,,,,,,,,,,,,,,,,,,,,,,,,,,,,,,,,,,,,,,,,,,,,,,,,,,,,,,,,,,,,,,,,,,,,,,,,,,,,,,,,,,,,,,,,,,,,,,,,,,,,,,,,,,,,,,,,,,,,,,,,,,,,,,,,,,,,,,,,,,
,,,,,,60ce3ac4d251ea55f805b485,62c5394cc5861622af3fff54,2022-07-06_09h27.34.672,Colour_Asymmetry_Pilot,2022.1.3,Win32,60.29544769,62c50e9c1127f2cd403a315f,0,151,151,130,1,twoone,,,,,,,,,,,,,,,,,,,,,,,,,,,,,,,,,,,,,,,,,,,,,,,,,,,,,,,,,,,,,,,,,,,,,,,,,,,,,,,,,,,,,,,,,,,,,,,,,,,,,,,,,,,,,,,,,,,,,,,,,,,,,,,,,,,,,,,,,,,,,,,,,,,,,,,,,,,,,
,,,,,,60ce3ac4d251ea55f805b485,62c5394cc5861622af3fff54,2022-07-06_09h27.34.672,Colour_Asymmetry_Pilot,2022.1.3,Win32,60.29544769,62c50e9c1127f2cd403a315f,0,152,152,159,1,fourthree,,,,,,,,,,,,,,,,,,,,,,,,,,,,,,,,,,,,,,,,,,,,,,,,,,,,,,,,,,,,,,,,,,,,,,,,,,,,,,,,,,,,,,,,,,,,,,,,,,,,,,,,,,,,,,,,,,,,,,,,,,,,,,,,,,,,,,,,,,,,,,,,,,,,,,,,,,,,,
,,,,,,60ce3ac4d251ea55f805b485,62c5394cc5861622af3fff54,2022-07-06_09h27.34.672,Colour_Asymmetry_Pilot,2022.1.3,Win32,60.29544769,62c50e9c1127f2cd403a315f,0,153,153,47,1,fourthree,,,,,,,,,,,,,,,,,,,,,,,,,,,,,,,,,,,,,,,,,,,,,,,,,,,,,,,,,,,,,,,,,,,,,,,,,,,,,,,,,,,,,,,,,,,,,,,,,,,,,,,,,,,,,,,,,,,,,,,,,,,,,,,,,,,,,,,,,,,,,,,,,,,,,,,,,,,,,
,,,,,,60ce3ac4d251ea55f805b485,62c5394cc5861622af3fff54,2022-07-06_09h27.34.672,Colour_Asymmetry_Pilot,2022.1.3,Win32,60.29544769,62c50e9c1127f2cd403a315f,0,154,154,15,1,fourthree,,,,,,,,,,,,,,,,,,,,,,,,,,,,,,,,,,,,,,,,,,,,,,,,,,,,,,,,,,,,,,,,,,,,,,,,,,,,,,,,,,,,,,,,,,,,,,,,,,,,,,,,,,,,,,,,,,,,,,,,,,,,,,,,,,,,,,,,,,,,,,,,,,,,,,,,,,,,,
,,,,,,60ce3ac4d251ea55f805b485,62c5394cc5861622af3fff54,2022-07-06_09h27.34.672,Colour_Asymmetry_Pilot,2022.1.3,Win32,60.29544769,62c50e9c1127f2cd403a315f,0,155,155,50,1,twoone,,,,,,,,,,,,,,,,,,,,,,,,,,,,,,,,,,,,,,,,,,,,,,,,,,,,,,,,,,,,,,,,,,,,,,,,,,,,,,,,,,,,,,,,,,,,,,,,,,,,,,,,,,,,,,,,,,,,,,,,,,,,,,,,,,,,,,,,,,,,,,,,,,,,,,,,,,,,,
,,,,,,60ce3ac4d251ea55f805b485,62c5394cc5861622af3fff54,2022-07-06_09h27.34.672,Colour_Asymmetry_Pilot,2022.1.3,Win32,60.29544769,62c50e9c1127f2cd403a315f,0,156,156,28,1,threeone,,,,,,,,,,,,,,,,,,,,,,,,,,,,,,,,,,,,,,,,,,,,,,,,,,,,,,,,,,,,,,,,,,,,,,,,,,,,,,,,,,,,,,,,,,,,,,,,,,,,,,,,,,,,,,,,,,,,,,,,,,,,,,,,,,,,,,,,,,,,,,,,,,,,,,,,,,,,,
,,,,,,60ce3ac4d251ea55f805b485,62c5394cc5861622af3fff54,2022-07-06_09h27.34.672,Colour_Asymmetry_Pilot,2022.1.3,Win32,60.29544769,62c50e9c1127f2cd403a315f,0,157,157,24,1,onetwo,,,,,,,,,,,,,,,,,,,,,,,,,,,,,,,,,,,,,,,,,,,,,,,,,,,,,,,,,,,,,,,,,,,,,,,,,,,,,,,,,,,,,,,,,,,,,,,,,,,,,,,,,,,,,,,,,,,,,,,,,,,,,,,,,,,,,,,,,,,,,,,,,,,,,,,,,,,,,
,,,,,,60ce3ac4d251ea55f805b485,62c5394cc5861622af3fff54,2022-07-06_09h27.34.672,Colour_Asymmetry_Pilot,2022.1.3,Win32,60.29544769,62c50e9c1127f2cd403a315f,0,158,158,38,1,fourtwo,,,,,,,,,,,,,,,,,,,,,,,,,,,,,,,,,,,,,,,,,,,,,,,,,,,,,,,,,,,,,,,,,,,,,,,,,,,,,,,,,,,,,,,,,,,,,,,,,,,,,,,,,,,,,,,,,,,,,,,,,,,,,,,,,,,,,,,,,,,,,,,,,,,,,,,,,,,,,
,,,,,,60ce3ac4d251ea55f805b485,62c5394cc5861622af3fff54,2022-07-06_09h27.34.672,Colour_Asymmetry_Pilot,2022.1.3,Win32,60.29544769,62c50e9c1127f2cd403a315f,0,159,159,45,1,threefour,,,,,,,,,,,,,,,,,,,,,,,,,,,,,,,,,,,,,,,,,,,,,,,,,,,,,,,,,,,,,,,,,,,,,,,,,,,,,,,,,,,,,,,,,,,,,,,,,,,,,,,,,,,,,,,,,,,,,,,,,,,,,,,,,,,,,,,,,,,,,,,,,,,,,,,,,,,,,
,,,,,,60ce3ac4d251ea55f805b485,62c5394cc5861622af3fff54,2022-07-06_09h27.34.672,Colour_Asymmetry_Pilot,2022.1.3,Win32,60.29544769,62c50e9c1127f2cd403a315f,0,160,160,151,1,fourthree,,,,,,,,,,,,,,,,,,,,,,,,,,,,,,,,,,,,,,,,,,,,,,,,,,,,,,,,,,,,,,,,,,,,,,,,,,,,,,,,,,,,,,,,,,,,,,,,,,,,,,,,,,,,,,,,,,,,,,,,,,,,,,,,,,,,,,,,,,,,,,,,,,,,,,,,,,,,,
,,,,,,60ce3ac4d251ea55f805b485,62c5394cc5861622af3fff54,2022-07-06_09h27.34.672,Colour_Asymmetry_Pilot,2022.1.3,Win32,60.29544769,62c50e9c1127f2cd403a315f,0,161,161,122,1,twoone,,,,,,,,,,,,,,,,,,,,,,,,,,,,,,,,,,,,,,,,,,,,,,,,,,,,,,,,,,,,,,,,,,,,,,,,,,,,,,,,,,,,,,,,,,,,,,,,,,,,,,,,,,,,,,,,,,,,,,,,,,,,,,,,,,,,,,,,,,,,,,,,,,,,,,,,,,,,,
,,,,,,60ce3ac4d251ea55f805b485,62c5394cc5861622af3fff54,2022-07-06_09h27.34.672,Colour_Asymmetry_Pilot,2022.1.3,Win32,60.29544769,62c50e9c1127f2cd403a315f,,,,,,,space,10.8529,space,13.1926,space,61.3654,space,15.1221,space,23.745,space,16.9593,"[0.12939999999999996,-0.2864,0.3253999999999999]",twoone,"[-0.06680000000000008,-0.45100000000000007,-0.906]",-4,7.0842,-16,49,1,0,0,response7disk_5,6,1,1,0,0,rectangle_8,6,1,1,0,0,2,6,1,1,0,0,0,0,0,0,1,,,,,,,,,,,,,,,,,,,,,,,,,,,,,,,,,,,,,,,,,,,,,,,,,,,,,,,,,,,,,,,,,,,,,,,,,,,,,,,,,,,,,,,,,,,,,,,,,,,,,,,,,,,,,,,,
,,,,,,60ce3ac4d251ea55f805b485,62c5394cc5861622af3fff54,2022-07-06_09h27.34.672,Colour_Asymmetry_Pilot,2022.1.3,Win32,60.29544769,62c50e9c1127f2cd403a315f,,,,,,,,,,,,,,,,,,,"[-0.9138,-0.5296000000000001,-0.5529999999999999]",threefour,"[0.22340000000000004,-0.9296,-0.7884]",-4,2.6317,-24,61,1,0,0,response7disk_5,2,0,1,0,0,rectangle_8,52,-22,1,0,0,2,2,3,1,0,0,1,0,1,0,1,response3disk_7,5,rectangle_4,,,,,,,,,,,,,,,,,,,,,,,,,,,,,,,,,,,,,,,,,,,,,,,,,,,,,,,,,,,,,,,,,,,,,,,,,,,,,,,,,,,,,,,,,,,,,,,,,,,,,,,,,,,,,
,,,,,,60ce3ac4d251ea55f805b485,62c5394cc5861622af3fff54,2022-07-06_09h27.34.672,Colour_Asymmetry_Pilot,2022.1.3,Win32,60.29544769,62c50e9c1127f2cd403a315f,,,,,,,,,,,,,,,,,,,"[0.7646000000000002,0.07440000000000002,0.2704]",fourtwo,"[-0.26280000000000003,-0.2158,-0.3256]",-4,2.3487,-33,56,1,0,0,response7disk_5,-5,5,1,0,0,rectangle_8,-5,5,1,0,0,2,-5,5,1,0,0,2,0,2,0,1,,,,,,,,,,,,,,,,,,,,,,,,,,,,,,,,,,,,,,,,,,,,,,,,,,,,,,,,,,,,,,,,,,,,,,,,,,,,,,,,,,,,,,,,,,,,,,,,,,,,,,,,,,,,,,,,
,,,,,,60ce3ac4d251ea55f805b485,62c5394cc5861622af3fff54,2022-07-06_09h27.34.672,Colour_Asymmetry_Pilot,2022.1.3,Win32,60.29544769,62c50e9c1127f2cd403a315f,,,,,,,,,,,,,,,,,,,"[0.2784,-0.31000000000000005,-0.5452]",onethree,"[0.22340000000000004,-0.9296,-0.7884]",-4,2.6154,-17,30,1,0,0,response7disk_5,-4,2,1,0,0,rectangle_8,-4,2,1,0,0,2,-4,2,1,0,0,3,0,3,0,1,,,,,,,,,,,,,,,,,,,,,,,,,,,,,,,,,,,,,,,,,,,,,,,,,,,,,,,,,,,,,,,,,,,,,,,,,,,,,,,,,,,,,,,,,,,,,,,,,,,,,,,,,,,,,,,,
,,,,,,60ce3ac4d251ea55f805b485,62c5394cc5861622af3fff54,2022-07-06_09h27.34.672,Colour_Asymmetry_Pilot,2022.1.3,Win32,60.29544769,62c50e9c1127f2cd403a315f,,,,,,,,,,,,,,,,,,,"[-0.38039999999999996,-0.4276,-0.1452]",onetwo,"[-0.30200000000000005,0.14500000000000002,0.2784]",-4,1.349,-25,44,1,0,0,response7disk_5,0,6,1,0,0,rectangle_8,54,-30,1,0,0,2,-2,1,1,0,0,4,0,4,0,1,response3disk_7,5,rectangle_4,,,,,,,,,,,,,,,,,,,,,,,,,,,,,,,,,,,,,,,,,,,,,,,,,,,,,,,,,,,,,,,,,,,,,,,,,,,,,,,,,,,,,,,,,,,,,,,,,,,,,,,,,,,,,
,,,,,,60ce3ac4d251ea55f805b485,62c5394cc5861622af3fff54,2022-07-06_09h27.34.672,Colour_Asymmetry_Pilot,2022.1.3,Win32,60.29544769,62c50e9c1127f2cd403a315f,,,,,,,,,,,,,,,,,,,"[0.6625999999999999,0.4980000000000002,-0.357]",onethree,"[0.9213999999999998,0.6391999999999998,-0.9922]",4,1.5827,27,53,1,0,0,response1disk_5,4,0,1,0,0,rectangle_8,4,0,1,0,0,2,4,0,1,0,0,5,0,5,0,1,,,,,,,,,,,,,,,,,,,,,,,,,,,,,,,,,,,,,,,,,,,,,,,,,,,,,,,,,,,,,,,,,,,,,,,,,,,,,,,,,,,,,,,,,,,,,,,,,,,,,,,,,,,,,,,,
,,,,,,60ce3ac4d251ea55f805b485,62c5394cc5861622af3fff54,2022-07-06_09h27.34.672,Colour_Asymmetry_Pilot,2022.1.3,Win32,60.29544769,62c50e9c1127f2cd403a315f,,,,,,,,,,,,,,,,,,,"[0.18419999999999992,-0.4276,-0.404]",fourtwo,"[-0.17659999999999998,0.3253999999999999,0.19999999999999996]",-4,1.0655,-34,59,1,0,0,response7disk_5,0,4,1,0,0,rectangle_8,0,4,1,0,0,2,0,4,1,0,0,6,0,6,0,1,,,,,,,,,,,,,,,,,,,,,,,,,,,,,,,,,,,,,,,,,,,,,,,,,,,,,,,,,,,,,,,,,,,,,,,,,,,,,,,,,,,,,,,,,,,,,,,,,,,,,,,,,,,,,,,,
,,,,,,60ce3ac4d251ea55f805b485,62c5394cc5861622af3fff54,2022-07-06_09h27.34.672,Colour_Asymmetry_Pilot,2022.1.3,Win32,60.29544769,62c50e9c1127f2cd403a315f,,,,,,,,,,,,,,,,,,,,fourthree,,-4,1.0984,,,,,,,,,,,,,,,,,,,,,,,,,,,,,,,,space,24.8085,"[-0.8982,-0.37259999999999993,0.2784]","[0.18419999999999992,-0.4276,-0.404]",-22,60,1,0,0,response7disk,-12,4,1,0,0,rectangle,-12,4,1,0,0,,2,0.0009,0,-12,4,1,0,0,0,0,0,113,1,32,second,,,,,,,,,,,,,,,,,,,,,,,,,,,,,,,,,,,,,,,,,,,,,,,,,,,,,,,,,,,,,,,,,,,,,,,,
,,,,,,60ce3ac4d251ea55f805b485,62c5394cc5861622af3fff54,2022-07-06_09h27.34.672,Colour_Asymmetry_Pilot,2022.1.3,Win32,60.29544769,62c50e9c1127f2cd403a315f,,,,,,,,,,,,,,,,,,,,threeone,,-4,0.5492,,,,,,,,,,,,,,,,,,,,,,,,,,,,,,,,,,"[1,0.12939999999999996,-1]","[-0.09019999999999995,0.44300000000000006,0.5371999999999999]",-26,50,1,0,0,response7disk,-3,3,1,0,0,rectangle,-3,3,1,0,0,,3,0.001,0,-3,3,1,0,0,0,1,1,19,1,19,first,,,,,,,,,,,,,,,,,,,,,,,,,,,,,,,,,,,,,,,,,,,,,,,,,,,,,,,,,,,,,,,,,,,,,,,,
,,,,,,60ce3ac4d251ea55f805b485,62c5394cc5861622af3fff54,2022-07-06_09h27.34.672,Colour_Asymmetry_Pilot,2022.1.3,Win32,60.29544769,62c50e9c1127f2cd403a315f,,,,,,,,,,,,,,,,,,,,twofour,,-4,0.6993,,,,,,,,,,,,,,,,,,,,,,,,,,,,,,,,,,"[0.37240000000000006,0.4980000000000002,-0.2864]","[-0.34920000000000007,-0.702,-0.5216]",-24,39,1,0,0,response7disk,0,-3,1,0,0,rectangle,0,-3,1,0,0,,3,0.0004,0,0,-3,1,0,0,0,2,2,112,1,31,second,,,,,,,,,,,,,,,,,,,,,,,,,,,,,,,,,,,,,,,,,,,,,,,,,,,,,,,,,,,,,,,,,,,,,,,,
,,,,,,60ce3ac4d251ea55f805b485,62c5394cc5861622af3fff54,2022-07-06_09h27.34.672,Colour_Asymmetry_Pilot,2022.1.3,Win32,60.29544769,62c50e9c1127f2cd403a315f,,,,,,,,,,,,,,,,,,,,threefour,,3,5.381,,,,,,,,,,,,,,,,,,,,,,,,,,,,,,,,,,"[0.3802000000000001,0.19199999999999995,-0.6394]","[0.9763999999999999,0.8588,-0.05900000000000005]",42,22,1,0,0,response1disk,-4,4,1,0,0,rectangle,-4,4,1,0,0,,2,0.0018,0,-4,4,1,0,0,0,3,3,83,1,2,second,,,,,,,,,,,,,,,,,,,,,,,,,,,,,,,,,,,,,,,,,,,,,,,,,,,,,,,,,,,,,,,,,,,,,,,,
,,,,,,60ce3ac4d251ea55f805b485,62c5394cc5861622af3fff54,2022-07-06_09h27.34.672,Colour_Asymmetry_Pilot,2022.1.3,Win32,60.29544769,62c50e9c1127f2cd403a315f,,,,,,,,,,,,,,,,,,,,threeone,,-4,12.4628,,,,,,,,,,,,,,,,,,,,,,,,,,,,,,,,,,"[-0.0040000000000000036,0.02739999999999987,-0.08239999999999992]","[1,0.12939999999999996,-1]",-17,34,1,0,0,response7disk,-1,-4,1,0,0,rectangle,-1,-4,1,0,0,,1,0.0008,0,-1,-4,1,0,0,0,4,4,118,1,37,second,,,,,,,,,,,,,,,,,,,,,,,,,,,,,,,,,,,,,,,,,,,,,,,,,,,,,,,,,,,,,,,,,,,,,,,,
,,,,,,60ce3ac4d251ea55f805b485,62c5394cc5861622af3fff54,2022-07-06_09h27.34.672,Colour_Asymmetry_Pilot,2022.1.3,Win32,60.29544769,62c50e9c1127f2cd403a315f,,,,,,,,,,,,,,,,,,,,twofour,,-4,0.9991,,,,,,,,,,,,,,,,,,,,,,,,,,,,,,,,,,"[-0.9844,-0.9688,-0.9922]","[-0.5922000000000001,-0.7492000000000001,-0.5296000000000001]",-18,40,1,0,0,response7disk,-7,4,1,0,0,rectangle,-7,4,1,0,0,,1,0.0002,0,-7,4,1,0,0,0,5,5,140,1,59,second,,,,,,,,,,,,,,,,,,,,,,,,,,,,,,,,,,,,,,,,,,,,,,,,,,,,,,,,,,,,,,,,,,,,,,,,
,,,,,,60ce3ac4d251ea55f805b485,62c5394cc5861622af3fff54,2022-07-06_09h27.34.672,Colour_Asymmetry_Pilot,2022.1.3,Win32,60.29544769,62c50e9c1127f2cd403a315f,,,,,,,,,,,,,,,,,,,,twoone,,2,6.6473,,,,,,,,,,,,,,,,,,,,,,,,,,,,,,,,,,"[-0.4276,0.0038000000000000256,-0.3256]","[-0.6706000000000001,-0.6157999999999999,-0.6786]",57,-32,1,0,0,response3disk,-10,9,1,0,0,rectangle,-10,9,1,0,0,-3,1,0,0,-10,9,1,0,0,0,6,6,62,1,62,first,,,,,,,,,,,,,,,,,,,,,,,,,,,,,,,,,,,,,,,,,,,,,,,,,,,,,,,,,,,,,,,,,,,,,,,,
,,,,,,60ce3ac4d251ea55f805b485,62c5394cc5861622af3fff54,2022-07-06_09h27.34.672,Colour_Asymmetry_Pilot,2022.1.3,Win32,60.29544769,62c50e9c1127f2cd403a315f,,,,,,,,,,,,,,,,,,,,onethree,,-4,0.7801,,,,,,,,,,,,,,,,,,,,,,,,,,,,,,,,,,"[0.05879999999999996,0.2784,0.5841999999999998]","[0.23920000000000008,0.2704,0.16060000000000008]",-30,49,1,0,0,response7disk,-8,5,1,0,0,rectangle,-8,5,1,0,0,-3,1,0.0002,0,-8,5,1,0,0,0,7,7,39,1,39,first,,,,,,,,,,,,,,,,,,,,,,,,,,,,,,,,,,,,,,,,,,,,,,,,,,,,,,,,,,,,,,,,,,,,,,,,
,,,,,,60ce3ac4d251ea55f805b485,62c5394cc5861622af3fff54,2022-07-06_09h27.34.672,Colour_Asymmetry_Pilot,2022.1.3,Win32,60.29544769,62c50e9c1127f2cd403a315f,,,,,,,,,,,,,,,,,,,,twoone,,-4,0.7491,,,,,,,,,,,,,,,,,,,,,,,,,,,,,,,,,,"[0.37240000000000006,-0.050999999999999934,-0.5216]","[-0.9688,-0.4902000000000001,-0.12159999999999993]",-18,34,1,0,0,response7disk,-6,8,1,0,0,rectangle,-6,8,1,0,0,-3,1,0,0,-6,8,1,0,0,0,8,8,129,1,48,second,,,,,,,,,,,,,,,,,,,,,,,,,,,,,,,,,,,,,,,,,,,,,,,,,,,,,,,,,,,,,,,,,,,,,,,,
,,,,,,60ce3ac4d251ea55f805b485,62c5394cc5861622af3fff54,2022-07-06_09h27.34.672,Colour_Asymmetry_Pilot,2022.1.3,Win32,60.29544769,62c50e9c1127f2cd403a315f,,,,,,,,,,,,,,,,,,,,onetwo,,-4,0.8658,,,,,,,,,,,,,,,,,,,,,,,,,,,,,,,,,,"[0.18419999999999992,-0.4276,-0.404]","[-0.9688,-0.7412000000000001,-0.4902000000000001]",-26,50,1,0,0,response7disk,-5,6,1,0,0,rectangle,-5,6,1,0,0,-3,3,0.0009,0,-5,6,1,0,0,0,9,9,101,1,20,second,,,,,,,,,,,,,,,,,,,,,,,,,,,,,,,,,,,,,,,,,,,,,,,,,,,,,,,,,,,,,,,,,,,,,,,,
,,,,,,60ce3ac4d251ea55f805b485,62c5394cc5861622af3fff54,2022-07-06_09h27.34.672,Colour_Asymmetry_Pilot,2022.1.3,Win32,60.29544769,62c50e9c1127f2cd403a315f,,,,,,,,,,,,,,,,,,,,twofour,,-4,4.7316,,,,,,,,,,,,,,,,,,,,,,,,,,,,,,,,,,"[-0.9138,-0.5296000000000001,-0.5529999999999999]","[-0.4902000000000001,0.2704,-0.45899999999999996]",-17,36,1,0,0,response7disk,6,4,1,0,0,rectangle,6,4,1,0,0,-3,1,0.0017,0,6,4,1,0,0,0,10,10,26,1,26,first,,,,,,,,,,,,,,,,,,,,,,,,,,,,,,,,,,,,,,,,,,,,,,,,,,,,,,,,,,,,,,,,,,,,,,,,
,,,,,,60ce3ac4d251ea55f805b485,62c5394cc5861622af3fff54,2022-07-06_09h27.34.672,Colour_Asymmetry_Pilot,2022.1.3,Win32,60.29544769,62c50e9c1127f2cd403a315f,,,,,,,,,,,,,,,,,,,,threefour,,-4,0.6831,,,,,,,,,,,,,,,,,,,,,,,,,,,,,,,,,,"[-0.26280000000000003,-0.2158,-0.3256]","[0.30180000000000007,-0.7884,-0.9844]",-22,47,1,0,0,response7disk,2,6,1,0,0,rectangle,2,6,1,0,0,-3,2,0.0016,0,2,6,1,0,0,0,11,11,27,1,27,first,,,,,,,,,,,,,,,,,,,,,,,,,,,,,,,,,,,,,,,,,,,,,,,,,,,,,,,,,,,,,,,,,,,,,,,,
,,,,,,60ce3ac4d251ea55f805b485,62c5394cc5861622af3fff54,2022-07-06_09h27.34.672,Colour_Asymmetry_Pilot,2022.1.3,Win32,60.29544769,62c50e9c1127f2cd403a315f,,,,,,,,,,,,,,,,,,,,onethree,,-4,0.5995,,,,,,,,,,,,,,,,,,,,,,,,,,,,,,,,,,"[-0.10599999999999998,-0.15300000000000002,0.15280000000000005]","[0.9213999999999998,0.6391999999999998,-0.9922]",-28,43,1,0,0,response7disk,-14,7,1,0,0,rectangle,-14,7,1,0,0,-3,2,0.0001,0,-14,7,1,0,0,0,12,12,125,1,44,second,,,,,,,,,,,,,,,,,,,,,,,,,,,,,,,,,,,,,,,,,,,,,,,,,,,,,,,,,,,,,,,,,,,,,,,,
,,,,,,60ce3ac4d251ea55f805b485,62c5394cc5861622af3fff54,2022-07-06_09h27.34.672,Colour_Asymmetry_Pilot,2022.1.3,Win32,60.29544769,62c50e9c1127f2cd403a315f,,,,,,,,,,,,,,,,,,,,onetwo,,-4,0.6824,,,,,,,,,,,,,,,,,,,,,,,,,,,,,,,,,,"[0.18419999999999992,-0.4276,-0.404]","[0.9686000000000001,0.5763999999999998,0.11359999999999992]",-26,41,1,0,0,response7disk,0,1,1,0,0,rectangle,0,1,1,0,0,-3,3,0.001,0,0,1,1,0,0,0,13,13,91,1,10,second,,,,,,,,,,,,,,,,,,,,,,,,,,,,,,,,,,,,,,,,,,,,,,,,,,,,,,,,,,,,,,,,,,,,,,,,
,,,,,,60ce3ac4d251ea55f805b485,62c5394cc5861622af3fff54,2022-07-06_09h27.34.672,Colour_Asymmetry_Pilot,2022.1.3,Win32,60.29544769,62c50e9c1127f2cd403a315f,,,,,,,,,,,,,,,,,,,,onethree,,-4,0.449,,,,,,,,,,,,,,,,,,,,,,,,,,,,,,,,,,"[-0.34920000000000007,-0.702,-0.5216]","[-0.9844,-0.9688,-0.9922]",-26,46,1,0,0,response7disk,-8,7,1,0,0,rectangle,-8,7,1,0,0,-3,2,0.0008,0,-8,7,1,0,0,0,14,14,131,1,50,second,,,,,,,,,,,,,,,,,,,,,,,,,,,,,,,,,,,,,,,,,,,,,,,,,,,,,,,,,,,,,,,,,,,,,,,,
,,,,,,60ce3ac4d251ea55f805b485,62c5394cc5861622af3fff54,2022-07-06_09h27.34.672,Colour_Asymmetry_Pilot,2022.1.3,Win32,60.29544769,62c50e9c1127f2cd403a315f,,,,,,,,,,,,,,,,,,,,threeone,,-4,0.7323,,,,,,,,,,,,,,,,,,,,,,,,,,,,,,,,,,"[0.7646000000000002,0.07440000000000002,0.2704]","[0.30180000000000007,-0.7884,-0.9844]",-33,47,1,0,0,response7disk,-3,1,1,0,0,rectangle,-3,1,1,0,0,-3,1,0.0007,0,-3,1,1,0,0,0,15,15,158,1,77,second,,,,,,,,,,,,,,,,,,,,,,,,,,,,,,,,,,,,,,,,,,,,,,,,,,,,,,,,,,,,,,,,,,,,,,,,
,,,,,,60ce3ac4d251ea55f805b485,62c5394cc5861622af3fff54,2022-07-06_09h27.34.672,Colour_Asymmetry_Pilot,2022.1.3,Win32,60.29544769,62c50e9c1127f2cd403a315f,,,,,,,,,,,,,,,,,,,,onethree,,-3,3.2815,,,,,,,,,,,,,,,,,,,,,,,,,,,,,,,,,,"[0.8115999999999999,-0.0040000000000000036,-0.09819999999999995]","[0.18419999999999992,-0.4276,-0.404]",-46,21,1,0,0,response7disk,-2,5,1,0,0,rectangle,-2,5,1,0,0,-3,1,0.0002,0,-2,5,1,0,0,0,16,16,116,1,35,second,,,,,,,,,,,,,,,,,,,,,,,,,,,,,,,,,,,,,,,,,,,,,,,,,,,,,,,,,,,,,,,,,,,,,,,,
,,,,,,60ce3ac4d251ea55f805b485,62c5394cc5861622af3fff54,2022-07-06_09h27.34.672,Colour_Asymmetry_Pilot,2022.1.3,Win32,60.29544769,62c50e9c1127f2cd403a315f,,,,,,,,,,,,,,,,,,,,twoone,,-4,1.2156,,,,,,,,,,,,,,,,,,,,,,,,,,,,,,,,,,"[0.18419999999999992,-0.4276,-0.404]","[0.8115999999999999,-0.0040000000000000036,-0.09819999999999995]",-33,46,1,0,0,response7disk,-8,5,1,0,0,rectangle,-8,5,1,0,0,-3,2,0.0017,0,-8,5,1,0,0,0,17,17,35,1,35,first,,,,,,,,,,,,,,,,,,,,,,,,,,,,,,,,,,,,,,,,,,,,,,,,,,,,,,,,,,,,,,,,,,,,,,,,
