trials.thisRepN,trials.thisTrialN,trials.thisN,trials.thisIndex,trials.ran,Colourcodes,participant,session,date,expName,psychopyVersion,OS,frameRate,study_id,trials_4.thisRepN,trials_4.thisTrialN,trials_4.thisN,trials_4.thisIndex,trials_4.ran,StimulusPos,key_resp.keys,key_resp.rt,key_resp_2.keys,key_resp_2.rt,key_resp_15.keys,key_resp_15.rt,key_resp_17.keys,key_resp_17.rt,key_resp_9.keys,key_resp_9.rt,key_resp_10.keys,key_resp_10.rt,Circle1_col,Ecc,Circle2_col,similarity,response_time,mouse_5.x,mouse_5.y,mouse_5.leftButton,mouse_5.midButton,mouse_5.rightButton,mouse_5.clicked_name,mouse_10.x,mouse_10.y,mouse_10.leftButton,mouse_10.midButton,mouse_10.rightButton,mouse_10.clicked_name,mouse_7.x,mouse_7.y,mouse_7.leftButton,mouse_7.midButton,mouse_7.rightButton,catchnumberprac,mouse_6.x,mouse_6.y,mouse_6.leftButton,mouse_6.midButton,mouse_6.rightButton,duringprac.thisRepN,duringprac.thisTrialN,duringprac.thisN,duringprac.thisIndex,duringprac.ran,mouse_7.clicked_name,catchprac,mouse_6.clicked_name,key_resp_22.keys,key_resp_22.rt,Circle1_colour,Circle2_colour,mouse.x,mouse.y,mouse.leftButton,mouse.midButton,mouse.rightButton,mouse.clicked_name,mouse_2.x,mouse_2.y,mouse_2.leftButton,mouse_2.midButton,mouse_2.rightButton,mouse_2.clicked_name,mouse_3.x,mouse_3.y,mouse_3.leftButton,mouse_3.midButton,mouse_3.rightButton,catchresponse,catchnumber,response_time_catch,Catch,mouse_11.x,mouse_11.y,mouse_11.leftButton,mouse_11.midButton,mouse_11.rightButton,trials_2.thisRepN,trials_2.thisTrialN,trials_2.thisN,trials_2.thisIndex,trials_2.ran,Colourpair,Temporder,mouse_3.clicked_name,mouse_11.clicked_name,trials_3.thisRepN,trials_3.thisTrialN,trials_3.thisN,trials_3.thisIndex,trials_3.ran,key_resp_instr_Ishi.keys,key_resp_instr_Ishi.rt,Ishi_trial_keyresp.keys,Ishi_textbox.text,Ishi_mouse.x,Ishi_mouse.y,Ishi_mouse.leftButton,Ishi_mouse.midButton,Ishi_mouse.rightButton,Ishi_mouse.clicked_name,Ishi_loop.thisRepN,Ishi_loop.thisTrialN,Ishi_loop.thisN,Ishi_loop.thisIndex,Ishi_loop.ran,imageaddress,textbox.text,mouse_4.x,mouse_4.y,mouse_4.leftButton,mouse_4.midButton,mouse_4.rightButton,mouse_4.clicked_name,textbox_2.text,mouse_8.x,mouse_8.y,mouse_8.leftButton,mouse_8.midButton,mouse_8.rightButton,mouse_8.clicked_name,textbox_3.text,mouse_9.x,mouse_9.y,mouse_9.leftButton,mouse_9.midButton,mouse_9.rightButton,mouse_9.clicked_name,textbox_4.text,mouse_12.x,mouse_12.y,mouse_12.leftButton,mouse_12.midButton,mouse_12.rightButton,mouse_12.clicked_name,textbox_5.text,mouse_13.x,mouse_13.y,mouse_13.leftButton,mouse_13.midButton,mouse_13.rightButton,mouse_13.clicked_name,textbox_6.text,mouse_14.x,mouse_14.y,mouse_14.leftButton,mouse_14.midButton,mouse_14.rightButton,mouse_14.clicked_name,textbox_7.text,mouse_15.x,mouse_15.y,mouse_15.leftButton,mouse_15.midButton,mouse_15.rightButton,mouse_15.clicked_name
0,0,0,55,1,,610ae3ea1341878837b4e646,62c53a13b7009b49e4ba96d6,2022-07-06_10h30.52.216,Colour_Asymmetry_Pilot,2022.1.3,Win32,60.0132029,62c50e9c1127f2cd403a315f,,,,,,,,,,,,,,,,,,,,,,,,,,,,,,,,,,,,,,,,,,,,,,,,,,,,,,,,,,,,,,,,,,,,,,,,,,,,,,,,,,,,,,,,,,,,,,,,,,,,,,,,,,,,,,,,,,,,,,,,,,,,,,,,,,,,,,,,,,,,,,,,,,,,,,,,,,,,,,,,,,,
0,1,1,3,1,,610ae3ea1341878837b4e646,62c53a13b7009b49e4ba96d6,2022-07-06_10h30.52.216,Colour_Asymmetry_Pilot,2022.1.3,Win32,60.0132029,62c50e9c1127f2cd403a315f,,,,,,,,,,,,,,,,,,,,,,,,,,,,,,,,,,,,,,,,,,,,,,,,,,,,,,,,,,,,,,,,,,,,,,,,,,,,,,,,,,,,,,,,,,,,,,,,,,,,,,,,,,,,,,,,,,,,,,,,,,,,,,,,,,,,,,,,,,,,,,,,,,,,,,,,,,,,,,,,,,,
0,2,2,12,1,,610ae3ea1341878837b4e646,62c53a13b7009b49e4ba96d6,2022-07-06_10h30.52.216,Colour_Asymmetry_Pilot,2022.1.3,Win32,60.0132029,62c50e9c1127f2cd403a315f,,,,,,,,,,,,,,,,,,,,,,,,,,,,,,,,,,,,,,,,,,,,,,,,,,,,,,,,,,,,,,,,,,,,,,,,,,,,,,,,,,,,,,,,,,,,,,,,,,,,,,,,,,,,,,,,,,,,,,,,,,,,,,,,,,,,,,,,,,,,,,,,,,,,,,,,,,,,,,,,,,,
0,3,3,67,1,,610ae3ea1341878837b4e646,62c53a13b7009b49e4ba96d6,2022-07-06_10h30.52.216,Colour_Asymmetry_Pilot,2022.1.3,Win32,60.0132029,62c50e9c1127f2cd403a315f,,,,,,,,,,,,,,,,,,,,,,,,,,,,,,,,,,,,,,,,,,,,,,,,,,,,,,,,,,,,,,,,,,,,,,,,,,,,,,,,,,,,,,,,,,,,,,,,,,,,,,,,,,,,,,,,,,,,,,,,,,,,,,,,,,,,,,,,,,,,,,,,,,,,,,,,,,,,,,,,,,,
0,4,4,79,1,,610ae3ea1341878837b4e646,62c53a13b7009b49e4ba96d6,2022-07-06_10h30.52.216,Colour_Asymmetry_Pilot,2022.1.3,Win32,60.0132029,62c50e9c1127f2cd403a315f,,,,,,,,,,,,,,,,,,,,,,,,,,,,,,,,,,,,,,,,,,,,,,,,,,,,,,,,,,,,,,,,,,,,,,,,,,,,,,,,,,,,,,,,,,,,,,,,,,,,,,,,,,,,,,,,,,,,,,,,,,,,,,,,,,,,,,,,,,,,,,,,,,,,,,,,,,,,,,,,,,,
0,5,5,81,1,,610ae3ea1341878837b4e646,62c53a13b7009b49e4ba96d6,2022-07-06_10h30.52.216,Colour_Asymmetry_Pilot,2022.1.3,Win32,60.0132029,62c50e9c1127f2cd403a315f,,,,,,,,,,,,,,,,,,,,,,,,,,,,,,,,,,,,,,,,,,,,,,,,,,,,,,,,,,,,,,,,,,,,,,,,,,,,,,,,,,,,,,,,,,,,,,,,,,,,,,,,,,,,,,,,,,,,,,,,,,,,,,,,,,,,,,,,,,,,,,,,,,,,,,,,,,,,,,,,,,,
0,6,6,57,1,,610ae3ea1341878837b4e646,62c53a13b7009b49e4ba96d6,2022-07-06_10h30.52.216,Colour_Asymmetry_Pilot,2022.1.3,Win32,60.0132029,62c50e9c1127f2cd403a315f,,,,,,,,,,,,,,,,,,,,,,,,,,,,,,,,,,,,,,,,,,,,,,,,,,,,,,,,,,,,,,,,,,,,,,,,,,,,,,,,,,,,,,,,,,,,,,,,,,,,,,,,,,,,,,,,,,,,,,,,,,,,,,,,,,,,,,,,,,,,,,,,,,,,,,,,,,,,,,,,,,,
0,7,7,51,1,,610ae3ea1341878837b4e646,62c53a13b7009b49e4ba96d6,2022-07-06_10h30.52.216,Colour_Asymmetry_Pilot,2022.1.3,Win32,60.0132029,62c50e9c1127f2cd403a315f,,,,,,,,,,,,,,,,,,,,,,,,,,,,,,,,,,,,,,,,,,,,,,,,,,,,,,,,,,,,,,,,,,,,,,,,,,,,,,,,,,,,,,,,,,,,,,,,,,,,,,,,,,,,,,,,,,,,,,,,,,,,,,,,,,,,,,,,,,,,,,,,,,,,,,,,,,,,,,,,,,,
0,8,8,74,1,,610ae3ea1341878837b4e646,62c53a13b7009b49e4ba96d6,2022-07-06_10h30.52.216,Colour_Asymmetry_Pilot,2022.1.3,Win32,60.0132029,62c50e9c1127f2cd403a315f,,,,,,,,,,,,,,,,,,,,,,,,,,,,,,,,,,,,,,,,,,,,,,,,,,,,,,,,,,,,,,,,,,,,,,,,,,,,,,,,,,,,,,,,,,,,,,,,,,,,,,,,,,,,,,,,,,,,,,,,,,,,,,,,,,,,,,,,,,,,,,,,,,,,,,,,,,,,,,,,,,,
0,9,9,18,1,,610ae3ea1341878837b4e646,62c53a13b7009b49e4ba96d6,2022-07-06_10h30.52.216,Colour_Asymmetry_Pilot,2022.1.3,Win32,60.0132029,62c50e9c1127f2cd403a315f,,,,,,,,,,,,,,,,,,,,,,,,,,,,,,,,,,,,,,,,,,,,,,,,,,,,,,,,,,,,,,,,,,,,,,,,,,,,,,,,,,,,,,,,,,,,,,,,,,,,,,,,,,,,,,,,,,,,,,,,,,,,,,,,,,,,,,,,,,,,,,,,,,,,,,,,,,,,,,,,,,,
0,10,10,54,1,,610ae3ea1341878837b4e646,62c53a13b7009b49e4ba96d6,2022-07-06_10h30.52.216,Colour_Asymmetry_Pilot,2022.1.3,Win32,60.0132029,62c50e9c1127f2cd403a315f,,,,,,,,,,,,,,,,,,,,,,,,,,,,,,,,,,,,,,,,,,,,,,,,,,,,,,,,,,,,,,,,,,,,,,,,,,,,,,,,,,,,,,,,,,,,,,,,,,,,,,,,,,,,,,,,,,,,,,,,,,,,,,,,,,,,,,,,,,,,,,,,,,,,,,,,,,,,,,,,,,,
0,11,11,19,1,,610ae3ea1341878837b4e646,62c53a13b7009b49e4ba96d6,2022-07-06_10h30.52.216,Colour_Asymmetry_Pilot,2022.1.3,Win32,60.0132029,62c50e9c1127f2cd403a315f,,,,,,,,,,,,,,,,,,,,,,,,,,,,,,,,,,,,,,,,,,,,,,,,,,,,,,,,,,,,,,,,,,,,,,,,,,,,,,,,,,,,,,,,,,,,,,,,,,,,,,,,,,,,,,,,,,,,,,,,,,,,,,,,,,,,,,,,,,,,,,,,,,,,,,,,,,,,,,,,,,,
0,12,12,11,1,,610ae3ea1341878837b4e646,62c53a13b7009b49e4ba96d6,2022-07-06_10h30.52.216,Colour_Asymmetry_Pilot,2022.1.3,Win32,60.0132029,62c50e9c1127f2cd403a315f,,,,,,,,,,,,,,,,,,,,,,,,,,,,,,,,,,,,,,,,,,,,,,,,,,,,,,,,,,,,,,,,,,,,,,,,,,,,,,,,,,,,,,,,,,,,,,,,,,,,,,,,,,,,,,,,,,,,,,,,,,,,,,,,,,,,,,,,,,,,,,,,,,,,,,,,,,,,,,,,,,,
0,13,13,38,1,,610ae3ea1341878837b4e646,62c53a13b7009b49e4ba96d6,2022-07-06_10h30.52.216,Colour_Asymmetry_Pilot,2022.1.3,Win32,60.0132029,62c50e9c1127f2cd403a315f,,,,,,,,,,,,,,,,,,,,,,,,,,,,,,,,,,,,,,,,,,,,,,,,,,,,,,,,,,,,,,,,,,,,,,,,,,,,,,,,,,,,,,,,,,,,,,,,,,,,,,,,,,,,,,,,,,,,,,,,,,,,,,,,,,,,,,,,,,,,,,,,,,,,,,,,,,,,,,,,,,,
0,14,14,16,1,,610ae3ea1341878837b4e646,62c53a13b7009b49e4ba96d6,2022-07-06_10h30.52.216,Colour_Asymmetry_Pilot,2022.1.3,Win32,60.0132029,62c50e9c1127f2cd403a315f,,,,,,,,,,,,,,,,,,,,,,,,,,,,,,,,,,,,,,,,,,,,,,,,,,,,,,,,,,,,,,,,,,,,,,,,,,,,,,,,,,,,,,,,,,,,,,,,,,,,,,,,,,,,,,,,,,,,,,,,,,,,,,,,,,,,,,,,,,,,,,,,,,,,,,,,,,,,,,,,,,,
0,15,15,72,1,,610ae3ea1341878837b4e646,62c53a13b7009b49e4ba96d6,2022-07-06_10h30.52.216,Colour_Asymmetry_Pilot,2022.1.3,Win32,60.0132029,62c50e9c1127f2cd403a315f,,,,,,,,,,,,,,,,,,,,,,,,,,,,,,,,,,,,,,,,,,,,,,,,,,,,,,,,,,,,,,,,,,,,,,,,,,,,,,,,,,,,,,,,,,,,,,,,,,,,,,,,,,,,,,,,,,,,,,,,,,,,,,,,,,,,,,,,,,,,,,,,,,,,,,,,,,,,,,,,,,,
0,16,16,89,1,,610ae3ea1341878837b4e646,62c53a13b7009b49e4ba96d6,2022-07-06_10h30.52.216,Colour_Asymmetry_Pilot,2022.1.3,Win32,60.0132029,62c50e9c1127f2cd403a315f,,,,,,,,,,,,,,,,,,,,,,,,,,,,,,,,,,,,,,,,,,,,,,,,,,,,,,,,,,,,,,,,,,,,,,,,,,,,,,,,,,,,,,,,,,,,,,,,,,,,,,,,,,,,,,,,,,,,,,,,,,,,,,,,,,,,,,,,,,,,,,,,,,,,,,,,,,,,,,,,,,,
0,17,17,86,1,,610ae3ea1341878837b4e646,62c53a13b7009b49e4ba96d6,2022-07-06_10h30.52.216,Colour_Asymmetry_Pilot,2022.1.3,Win32,60.0132029,62c50e9c1127f2cd403a315f,,,,,,,,,,,,,,,,,,,,,,,,,,,,,,,,,,,,,,,,,,,,,,,,,,,,,,,,,,,,,,,,,,,,,,,,,,,,,,,,,,,,,,,,,,,,,,,,,,,,,,,,,,,,,,,,,,,,,,,,,,,,,,,,,,,,,,,,,,,,,,,,,,,,,,,,,,,,,,,,,,,
0,18,18,59,1,,610ae3ea1341878837b4e646,62c53a13b7009b49e4ba96d6,2022-07-06_10h30.52.216,Colour_Asymmetry_Pilot,2022.1.3,Win32,60.0132029,62c50e9c1127f2cd403a315f,,,,,,,,,,,,,,,,,,,,,,,,,,,,,,,,,,,,,,,,,,,,,,,,,,,,,,,,,,,,,,,,,,,,,,,,,,,,,,,,,,,,,,,,,,,,,,,,,,,,,,,,,,,,,,,,,,,,,,,,,,,,,,,,,,,,,,,,,,,,,,,,,,,,,,,,,,,,,,,,,,,
0,19,19,70,1,,610ae3ea1341878837b4e646,62c53a13b7009b49e4ba96d6,2022-07-06_10h30.52.216,Colour_Asymmetry_Pilot,2022.1.3,Win32,60.0132029,62c50e9c1127f2cd403a315f,,,,,,,,,,,,,,,,,,,,,,,,,,,,,,,,,,,,,,,,,,,,,,,,,,,,,,,,,,,,,,,,,,,,,,,,,,,,,,,,,,,,,,,,,,,,,,,,,,,,,,,,,,,,,,,,,,,,,,,,,,,,,,,,,,,,,,,,,,,,,,,,,,,,,,,,,,,,,,,,,,,
0,20,20,53,1,,610ae3ea1341878837b4e646,62c53a13b7009b49e4ba96d6,2022-07-06_10h30.52.216,Colour_Asymmetry_Pilot,2022.1.3,Win32,60.0132029,62c50e9c1127f2cd403a315f,,,,,,,,,,,,,,,,,,,,,,,,,,,,,,,,,,,,,,,,,,,,,,,,,,,,,,,,,,,,,,,,,,,,,,,,,,,,,,,,,,,,,,,,,,,,,,,,,,,,,,,,,,,,,,,,,,,,,,,,,,,,,,,,,,,,,,,,,,,,,,,,,,,,,,,,,,,,,,,,,,,
0,21,21,25,1,,610ae3ea1341878837b4e646,62c53a13b7009b49e4ba96d6,2022-07-06_10h30.52.216,Colour_Asymmetry_Pilot,2022.1.3,Win32,60.0132029,62c50e9c1127f2cd403a315f,,,,,,,,,,,,,,,,,,,,,,,,,,,,,,,,,,,,,,,,,,,,,,,,,,,,,,,,,,,,,,,,,,,,,,,,,,,,,,,,,,,,,,,,,,,,,,,,,,,,,,,,,,,,,,,,,,,,,,,,,,,,,,,,,,,,,,,,,,,,,,,,,,,,,,,,,,,,,,,,,,,
0,22,22,90,1,,610ae3ea1341878837b4e646,62c53a13b7009b49e4ba96d6,2022-07-06_10h30.52.216,Colour_Asymmetry_Pilot,2022.1.3,Win32,60.0132029,62c50e9c1127f2cd403a315f,,,,,,,,,,,,,,,,,,,,,,,,,,,,,,,,,,,,,,,,,,,,,,,,,,,,,,,,,,,,,,,,,,,,,,,,,,,,,,,,,,,,,,,,,,,,,,,,,,,,,,,,,,,,,,,,,,,,,,,,,,,,,,,,,,,,,,,,,,,,,,,,,,,,,,,,,,,,,,,,,,,
0,23,23,76,1,,610ae3ea1341878837b4e646,62c53a13b7009b49e4ba96d6,2022-07-06_10h30.52.216,Colour_Asymmetry_Pilot,2022.1.3,Win32,60.0132029,62c50e9c1127f2cd403a315f,,,,,,,,,,,,,,,,,,,,,,,,,,,,,,,,,,,,,,,,,,,,,,,,,,,,,,,,,,,,,,,,,,,,,,,,,,,,,,,,,,,,,,,,,,,,,,,,,,,,,,,,,,,,,,,,,,,,,,,,,,,,,,,,,,,,,,,,,,,,,,,,,,,,,,,,,,,,,,,,,,,
0,24,24,71,1,,610ae3ea1341878837b4e646,62c53a13b7009b49e4ba96d6,2022-07-06_10h30.52.216,Colour_Asymmetry_Pilot,2022.1.3,Win32,60.0132029,62c50e9c1127f2cd403a315f,,,,,,,,,,,,,,,,,,,,,,,,,,,,,,,,,,,,,,,,,,,,,,,,,,,,,,,,,,,,,,,,,,,,,,,,,,,,,,,,,,,,,,,,,,,,,,,,,,,,,,,,,,,,,,,,,,,,,,,,,,,,,,,,,,,,,,,,,,,,,,,,,,,,,,,,,,,,,,,,,,,
0,25,25,61,1,,610ae3ea1341878837b4e646,62c53a13b7009b49e4ba96d6,2022-07-06_10h30.52.216,Colour_Asymmetry_Pilot,2022.1.3,Win32,60.0132029,62c50e9c1127f2cd403a315f,,,,,,,,,,,,,,,,,,,,,,,,,,,,,,,,,,,,,,,,,,,,,,,,,,,,,,,,,,,,,,,,,,,,,,,,,,,,,,,,,,,,,,,,,,,,,,,,,,,,,,,,,,,,,,,,,,,,,,,,,,,,,,,,,,,,,,,,,,,,,,,,,,,,,,,,,,,,,,,,,,,
0,26,26,88,1,,610ae3ea1341878837b4e646,62c53a13b7009b49e4ba96d6,2022-07-06_10h30.52.216,Colour_Asymmetry_Pilot,2022.1.3,Win32,60.0132029,62c50e9c1127f2cd403a315f,,,,,,,,,,,,,,,,,,,,,,,,,,,,,,,,,,,,,,,,,,,,,,,,,,,,,,,,,,,,,,,,,,,,,,,,,,,,,,,,,,,,,,,,,,,,,,,,,,,,,,,,,,,,,,,,,,,,,,,,,,,,,,,,,,,,,,,,,,,,,,,,,,,,,,,,,,,,,,,,,,,
0,27,27,21,1,,610ae3ea1341878837b4e646,62c53a13b7009b49e4ba96d6,2022-07-06_10h30.52.216,Colour_Asymmetry_Pilot,2022.1.3,Win32,60.0132029,62c50e9c1127f2cd403a315f,,,,,,,,,,,,,,,,,,,,,,,,,,,,,,,,,,,,,,,,,,,,,,,,,,,,,,,,,,,,,,,,,,,,,,,,,,,,,,,,,,,,,,,,,,,,,,,,,,,,,,,,,,,,,,,,,,,,,,,,,,,,,,,,,,,,,,,,,,,,,,,,,,,,,,,,,,,,,,,,,,,
0,28,28,92,1,,610ae3ea1341878837b4e646,62c53a13b7009b49e4ba96d6,2022-07-06_10h30.52.216,Colour_Asymmetry_Pilot,2022.1.3,Win32,60.0132029,62c50e9c1127f2cd403a315f,,,,,,,,,,,,,,,,,,,,,,,,,,,,,,,,,,,,,,,,,,,,,,,,,,,,,,,,,,,,,,,,,,,,,,,,,,,,,,,,,,,,,,,,,,,,,,,,,,,,,,,,,,,,,,,,,,,,,,,,,,,,,,,,,,,,,,,,,,,,,,,,,,,,,,,,,,,,,,,,,,,
0,29,29,20,1,,610ae3ea1341878837b4e646,62c53a13b7009b49e4ba96d6,2022-07-06_10h30.52.216,Colour_Asymmetry_Pilot,2022.1.3,Win32,60.0132029,62c50e9c1127f2cd403a315f,,,,,,,,,,,,,,,,,,,,,,,,,,,,,,,,,,,,,,,,,,,,,,,,,,,,,,,,,,,,,,,,,,,,,,,,,,,,,,,,,,,,,,,,,,,,,,,,,,,,,,,,,,,,,,,,,,,,,,,,,,,,,,,,,,,,,,,,,,,,,,,,,,,,,,,,,,,,,,,,,,,
0,30,30,85,1,,610ae3ea1341878837b4e646,62c53a13b7009b49e4ba96d6,2022-07-06_10h30.52.216,Colour_Asymmetry_Pilot,2022.1.3,Win32,60.0132029,62c50e9c1127f2cd403a315f,,,,,,,,,,,,,,,,,,,,,,,,,,,,,,,,,,,,,,,,,,,,,,,,,,,,,,,,,,,,,,,,,,,,,,,,,,,,,,,,,,,,,,,,,,,,,,,,,,,,,,,,,,,,,,,,,,,,,,,,,,,,,,,,,,,,,,,,,,,,,,,,,,,,,,,,,,,,,,,,,,,
0,31,31,35,1,,610ae3ea1341878837b4e646,62c53a13b7009b49e4ba96d6,2022-07-06_10h30.52.216,Colour_Asymmetry_Pilot,2022.1.3,Win32,60.0132029,62c50e9c1127f2cd403a315f,,,,,,,,,,,,,,,,,,,,,,,,,,,,,,,,,,,,,,,,,,,,,,,,,,,,,,,,,,,,,,,,,,,,,,,,,,,,,,,,,,,,,,,,,,,,,,,,,,,,,,,,,,,,,,,,,,,,,,,,,,,,,,,,,,,,,,,,,,,,,,,,,,,,,,,,,,,,,,,,,,,
0,32,32,82,1,,610ae3ea1341878837b4e646,62c53a13b7009b49e4ba96d6,2022-07-06_10h30.52.216,Colour_Asymmetry_Pilot,2022.1.3,Win32,60.0132029,62c50e9c1127f2cd403a315f,,,,,,,,,,,,,,,,,,,,,,,,,,,,,,,,,,,,,,,,,,,,,,,,,,,,,,,,,,,,,,,,,,,,,,,,,,,,,,,,,,,,,,,,,,,,,,,,,,,,,,,,,,,,,,,,,,,,,,,,,,,,,,,,,,,,,,,,,,,,,,,,,,,,,,,,,,,,,,,,,,,
0,33,33,46,1,,610ae3ea1341878837b4e646,62c53a13b7009b49e4ba96d6,2022-07-06_10h30.52.216,Colour_Asymmetry_Pilot,2022.1.3,Win32,60.0132029,62c50e9c1127f2cd403a315f,,,,,,,,,,,,,,,,,,,,,,,,,,,,,,,,,,,,,,,,,,,,,,,,,,,,,,,,,,,,,,,,,,,,,,,,,,,,,,,,,,,,,,,,,,,,,,,,,,,,,,,,,,,,,,,,,,,,,,,,,,,,,,,,,,,,,,,,,,,,,,,,,,,,,,,,,,,,,,,,,,,
0,34,34,84,1,,610ae3ea1341878837b4e646,62c53a13b7009b49e4ba96d6,2022-07-06_10h30.52.216,Colour_Asymmetry_Pilot,2022.1.3,Win32,60.0132029,62c50e9c1127f2cd403a315f,,,,,,,,,,,,,,,,,,,,,,,,,,,,,,,,,,,,,,,,,,,,,,,,,,,,,,,,,,,,,,,,,,,,,,,,,,,,,,,,,,,,,,,,,,,,,,,,,,,,,,,,,,,,,,,,,,,,,,,,,,,,,,,,,,,,,,,,,,,,,,,,,,,,,,,,,,,,,,,,,,,
0,35,35,32,1,,610ae3ea1341878837b4e646,62c53a13b7009b49e4ba96d6,2022-07-06_10h30.52.216,Colour_Asymmetry_Pilot,2022.1.3,Win32,60.0132029,62c50e9c1127f2cd403a315f,,,,,,,,,,,,,,,,,,,,,,,,,,,,,,,,,,,,,,,,,,,,,,,,,,,,,,,,,,,,,,,,,,,,,,,,,,,,,,,,,,,,,,,,,,,,,,,,,,,,,,,,,,,,,,,,,,,,,,,,,,,,,,,,,,,,,,,,,,,,,,,,,,,,,,,,,,,,,,,,,,,
0,36,36,41,1,,610ae3ea1341878837b4e646,62c53a13b7009b49e4ba96d6,2022-07-06_10h30.52.216,Colour_Asymmetry_Pilot,2022.1.3,Win32,60.0132029,62c50e9c1127f2cd403a315f,,,,,,,,,,,,,,,,,,,,,,,,,,,,,,,,,,,,,,,,,,,,,,,,,,,,,,,,,,,,,,,,,,,,,,,,,,,,,,,,,,,,,,,,,,,,,,,,,,,,,,,,,,,,,,,,,,,,,,,,,,,,,,,,,,,,,,,,,,,,,,,,,,,,,,,,,,,,,,,,,,,
0,37,37,44,1,,610ae3ea1341878837b4e646,62c53a13b7009b49e4ba96d6,2022-07-06_10h30.52.216,Colour_Asymmetry_Pilot,2022.1.3,Win32,60.0132029,62c50e9c1127f2cd403a315f,,,,,,,,,,,,,,,,,,,,,,,,,,,,,,,,,,,,,,,,,,,,,,,,,,,,,,,,,,,,,,,,,,,,,,,,,,,,,,,,,,,,,,,,,,,,,,,,,,,,,,,,,,,,,,,,,,,,,,,,,,,,,,,,,,,,,,,,,,,,,,,,,,,,,,,,,,,,,,,,,,,
0,38,38,0,1,,610ae3ea1341878837b4e646,62c53a13b7009b49e4ba96d6,2022-07-06_10h30.52.216,Colour_Asymmetry_Pilot,2022.1.3,Win32,60.0132029,62c50e9c1127f2cd403a315f,,,,,,,,,,,,,,,,,,,,,,,,,,,,,,,,,,,,,,,,,,,,,,,,,,,,,,,,,,,,,,,,,,,,,,,,,,,,,,,,,,,,,,,,,,,,,,,,,,,,,,,,,,,,,,,,,,,,,,,,,,,,,,,,,,,,,,,,,,,,,,,,,,,,,,,,,,,,,,,,,,,
0,39,39,29,1,,610ae3ea1341878837b4e646,62c53a13b7009b49e4ba96d6,2022-07-06_10h30.52.216,Colour_Asymmetry_Pilot,2022.1.3,Win32,60.0132029,62c50e9c1127f2cd403a315f,,,,,,,,,,,,,,,,,,,,,,,,,,,,,,,,,,,,,,,,,,,,,,,,,,,,,,,,,,,,,,,,,,,,,,,,,,,,,,,,,,,,,,,,,,,,,,,,,,,,,,,,,,,,,,,,,,,,,,,,,,,,,,,,,,,,,,,,,,,,,,,,,,,,,,,,,,,,,,,,,,,
0,40,40,56,1,,610ae3ea1341878837b4e646,62c53a13b7009b49e4ba96d6,2022-07-06_10h30.52.216,Colour_Asymmetry_Pilot,2022.1.3,Win32,60.0132029,62c50e9c1127f2cd403a315f,,,,,,,,,,,,,,,,,,,,,,,,,,,,,,,,,,,,,,,,,,,,,,,,,,,,,,,,,,,,,,,,,,,,,,,,,,,,,,,,,,,,,,,,,,,,,,,,,,,,,,,,,,,,,,,,,,,,,,,,,,,,,,,,,,,,,,,,,,,,,,,,,,,,,,,,,,,,,,,,,,,
0,41,41,58,1,,610ae3ea1341878837b4e646,62c53a13b7009b49e4ba96d6,2022-07-06_10h30.52.216,Colour_Asymmetry_Pilot,2022.1.3,Win32,60.0132029,62c50e9c1127f2cd403a315f,,,,,,,,,,,,,,,,,,,,,,,,,,,,,,,,,,,,,,,,,,,,,,,,,,,,,,,,,,,,,,,,,,,,,,,,,,,,,,,,,,,,,,,,,,,,,,,,,,,,,,,,,,,,,,,,,,,,,,,,,,,,,,,,,,,,,,,,,,,,,,,,,,,,,,,,,,,,,,,,,,,
0,42,42,77,1,,610ae3ea1341878837b4e646,62c53a13b7009b49e4ba96d6,2022-07-06_10h30.52.216,Colour_Asymmetry_Pilot,2022.1.3,Win32,60.0132029,62c50e9c1127f2cd403a315f,,,,,,,,,,,,,,,,,,,,,,,,,,,,,,,,,,,,,,,,,,,,,,,,,,,,,,,,,,,,,,,,,,,,,,,,,,,,,,,,,,,,,,,,,,,,,,,,,,,,,,,,,,,,,,,,,,,,,,,,,,,,,,,,,,,,,,,,,,,,,,,,,,,,,,,,,,,,,,,,,,,
0,43,43,83,1,,610ae3ea1341878837b4e646,62c53a13b7009b49e4ba96d6,2022-07-06_10h30.52.216,Colour_Asymmetry_Pilot,2022.1.3,Win32,60.0132029,62c50e9c1127f2cd403a315f,,,,,,,,,,,,,,,,,,,,,,,,,,,,,,,,,,,,,,,,,,,,,,,,,,,,,,,,,,,,,,,,,,,,,,,,,,,,,,,,,,,,,,,,,,,,,,,,,,,,,,,,,,,,,,,,,,,,,,,,,,,,,,,,,,,,,,,,,,,,,,,,,,,,,,,,,,,,,,,,,,,
0,44,44,39,1,,610ae3ea1341878837b4e646,62c53a13b7009b49e4ba96d6,2022-07-06_10h30.52.216,Colour_Asymmetry_Pilot,2022.1.3,Win32,60.0132029,62c50e9c1127f2cd403a315f,,,,,,,,,,,,,,,,,,,,,,,,,,,,,,,,,,,,,,,,,,,,,,,,,,,,,,,,,,,,,,,,,,,,,,,,,,,,,,,,,,,,,,,,,,,,,,,,,,,,,,,,,,,,,,,,,,,,,,,,,,,,,,,,,,,,,,,,,,,,,,,,,,,,,,,,,,,,,,,,,,,
0,45,45,78,1,,610ae3ea1341878837b4e646,62c53a13b7009b49e4ba96d6,2022-07-06_10h30.52.216,Colour_Asymmetry_Pilot,2022.1.3,Win32,60.0132029,62c50e9c1127f2cd403a315f,,,,,,,,,,,,,,,,,,,,,,,,,,,,,,,,,,,,,,,,,,,,,,,,,,,,,,,,,,,,,,,,,,,,,,,,,,,,,,,,,,,,,,,,,,,,,,,,,,,,,,,,,,,,,,,,,,,,,,,,,,,,,,,,,,,,,,,,,,,,,,,,,,,,,,,,,,,,,,,,,,,
0,46,46,52,1,,610ae3ea1341878837b4e646,62c53a13b7009b49e4ba96d6,2022-07-06_10h30.52.216,Colour_Asymmetry_Pilot,2022.1.3,Win32,60.0132029,62c50e9c1127f2cd403a315f,,,,,,,,,,,,,,,,,,,,,,,,,,,,,,,,,,,,,,,,,,,,,,,,,,,,,,,,,,,,,,,,,,,,,,,,,,,,,,,,,,,,,,,,,,,,,,,,,,,,,,,,,,,,,,,,,,,,,,,,,,,,,,,,,,,,,,,,,,,,,,,,,,,,,,,,,,,,,,,,,,,
0,47,47,60,1,,610ae3ea1341878837b4e646,62c53a13b7009b49e4ba96d6,2022-07-06_10h30.52.216,Colour_Asymmetry_Pilot,2022.1.3,Win32,60.0132029,62c50e9c1127f2cd403a315f,,,,,,,,,,,,,,,,,,,,,,,,,,,,,,,,,,,,,,,,,,,,,,,,,,,,,,,,,,,,,,,,,,,,,,,,,,,,,,,,,,,,,,,,,,,,,,,,,,,,,,,,,,,,,,,,,,,,,,,,,,,,,,,,,,,,,,,,,,,,,,,,,,,,,,,,,,,,,,,,,,,
0,48,48,40,1,,610ae3ea1341878837b4e646,62c53a13b7009b49e4ba96d6,2022-07-06_10h30.52.216,Colour_Asymmetry_Pilot,2022.1.3,Win32,60.0132029,62c50e9c1127f2cd403a315f,,,,,,,,,,,,,,,,,,,,,,,,,,,,,,,,,,,,,,,,,,,,,,,,,,,,,,,,,,,,,,,,,,,,,,,,,,,,,,,,,,,,,,,,,,,,,,,,,,,,,,,,,,,,,,,,,,,,,,,,,,,,,,,,,,,,,,,,,,,,,,,,,,,,,,,,,,,,,,,,,,,
0,49,49,91,1,,610ae3ea1341878837b4e646,62c53a13b7009b49e4ba96d6,2022-07-06_10h30.52.216,Colour_Asymmetry_Pilot,2022.1.3,Win32,60.0132029,62c50e9c1127f2cd403a315f,,,,,,,,,,,,,,,,,,,,,,,,,,,,,,,,,,,,,,,,,,,,,,,,,,,,,,,,,,,,,,,,,,,,,,,,,,,,,,,,,,,,,,,,,,,,,,,,,,,,,,,,,,,,,,,,,,,,,,,,,,,,,,,,,,,,,,,,,,,,,,,,,,,,,,,,,,,,,,,,,,,
0,50,50,15,1,,610ae3ea1341878837b4e646,62c53a13b7009b49e4ba96d6,2022-07-06_10h30.52.216,Colour_Asymmetry_Pilot,2022.1.3,Win32,60.0132029,62c50e9c1127f2cd403a315f,,,,,,,,,,,,,,,,,,,,,,,,,,,,,,,,,,,,,,,,,,,,,,,,,,,,,,,,,,,,,,,,,,,,,,,,,,,,,,,,,,,,,,,,,,,,,,,,,,,,,,,,,,,,,,,,,,,,,,,,,,,,,,,,,,,,,,,,,,,,,,,,,,,,,,,,,,,,,,,,,,,
0,51,51,10,1,,610ae3ea1341878837b4e646,62c53a13b7009b49e4ba96d6,2022-07-06_10h30.52.216,Colour_Asymmetry_Pilot,2022.1.3,Win32,60.0132029,62c50e9c1127f2cd403a315f,,,,,,,,,,,,,,,,,,,,,,,,,,,,,,,,,,,,,,,,,,,,,,,,,,,,,,,,,,,,,,,,,,,,,,,,,,,,,,,,,,,,,,,,,,,,,,,,,,,,,,,,,,,,,,,,,,,,,,,,,,,,,,,,,,,,,,,,,,,,,,,,,,,,,,,,,,,,,,,,,,,
0,52,52,45,1,,610ae3ea1341878837b4e646,62c53a13b7009b49e4ba96d6,2022-07-06_10h30.52.216,Colour_Asymmetry_Pilot,2022.1.3,Win32,60.0132029,62c50e9c1127f2cd403a315f,,,,,,,,,,,,,,,,,,,,,,,,,,,,,,,,,,,,,,,,,,,,,,,,,,,,,,,,,,,,,,,,,,,,,,,,,,,,,,,,,,,,,,,,,,,,,,,,,,,,,,,,,,,,,,,,,,,,,,,,,,,,,,,,,,,,,,,,,,,,,,,,,,,,,,,,,,,,,,,,,,,
0,53,53,75,1,,610ae3ea1341878837b4e646,62c53a13b7009b49e4ba96d6,2022-07-06_10h30.52.216,Colour_Asymmetry_Pilot,2022.1.3,Win32,60.0132029,62c50e9c1127f2cd403a315f,,,,,,,,,,,,,,,,,,,,,,,,,,,,,,,,,,,,,,,,,,,,,,,,,,,,,,,,,,,,,,,,,,,,,,,,,,,,,,,,,,,,,,,,,,,,,,,,,,,,,,,,,,,,,,,,,,,,,,,,,,,,,,,,,,,,,,,,,,,,,,,,,,,,,,,,,,,,,,,,,,,
0,54,54,33,1,,610ae3ea1341878837b4e646,62c53a13b7009b49e4ba96d6,2022-07-06_10h30.52.216,Colour_Asymmetry_Pilot,2022.1.3,Win32,60.0132029,62c50e9c1127f2cd403a315f,,,,,,,,,,,,,,,,,,,,,,,,,,,,,,,,,,,,,,,,,,,,,,,,,,,,,,,,,,,,,,,,,,,,,,,,,,,,,,,,,,,,,,,,,,,,,,,,,,,,,,,,,,,,,,,,,,,,,,,,,,,,,,,,,,,,,,,,,,,,,,,,,,,,,,,,,,,,,,,,,,,
0,55,55,36,1,,610ae3ea1341878837b4e646,62c53a13b7009b49e4ba96d6,2022-07-06_10h30.52.216,Colour_Asymmetry_Pilot,2022.1.3,Win32,60.0132029,62c50e9c1127f2cd403a315f,,,,,,,,,,,,,,,,,,,,,,,,,,,,,,,,,,,,,,,,,,,,,,,,,,,,,,,,,,,,,,,,,,,,,,,,,,,,,,,,,,,,,,,,,,,,,,,,,,,,,,,,,,,,,,,,,,,,,,,,,,,,,,,,,,,,,,,,,,,,,,,,,,,,,,,,,,,,,,,,,,,
0,56,56,13,1,,610ae3ea1341878837b4e646,62c53a13b7009b49e4ba96d6,2022-07-06_10h30.52.216,Colour_Asymmetry_Pilot,2022.1.3,Win32,60.0132029,62c50e9c1127f2cd403a315f,,,,,,,,,,,,,,,,,,,,,,,,,,,,,,,,,,,,,,,,,,,,,,,,,,,,,,,,,,,,,,,,,,,,,,,,,,,,,,,,,,,,,,,,,,,,,,,,,,,,,,,,,,,,,,,,,,,,,,,,,,,,,,,,,,,,,,,,,,,,,,,,,,,,,,,,,,,,,,,,,,,
0,57,57,49,1,,610ae3ea1341878837b4e646,62c53a13b7009b49e4ba96d6,2022-07-06_10h30.52.216,Colour_Asymmetry_Pilot,2022.1.3,Win32,60.0132029,62c50e9c1127f2cd403a315f,,,,,,,,,,,,,,,,,,,,,,,,,,,,,,,,,,,,,,,,,,,,,,,,,,,,,,,,,,,,,,,,,,,,,,,,,,,,,,,,,,,,,,,,,,,,,,,,,,,,,,,,,,,,,,,,,,,,,,,,,,,,,,,,,,,,,,,,,,,,,,,,,,,,,,,,,,,,,,,,,,,
0,58,58,63,1,,610ae3ea1341878837b4e646,62c53a13b7009b49e4ba96d6,2022-07-06_10h30.52.216,Colour_Asymmetry_Pilot,2022.1.3,Win32,60.0132029,62c50e9c1127f2cd403a315f,,,,,,,,,,,,,,,,,,,,,,,,,,,,,,,,,,,,,,,,,,,,,,,,,,,,,,,,,,,,,,,,,,,,,,,,,,,,,,,,,,,,,,,,,,,,,,,,,,,,,,,,,,,,,,,,,,,,,,,,,,,,,,,,,,,,,,,,,,,,,,,,,,,,,,,,,,,,,,,,,,,
0,59,59,37,1,,610ae3ea1341878837b4e646,62c53a13b7009b49e4ba96d6,2022-07-06_10h30.52.216,Colour_Asymmetry_Pilot,2022.1.3,Win32,60.0132029,62c50e9c1127f2cd403a315f,,,,,,,,,,,,,,,,,,,,,,,,,,,,,,,,,,,,,,,,,,,,,,,,,,,,,,,,,,,,,,,,,,,,,,,,,,,,,,,,,,,,,,,,,,,,,,,,,,,,,,,,,,,,,,,,,,,,,,,,,,,,,,,,,,,,,,,,,,,,,,,,,,,,,,,,,,,,,,,,,,,
0,60,60,87,1,,610ae3ea1341878837b4e646,62c53a13b7009b49e4ba96d6,2022-07-06_10h30.52.216,Colour_Asymmetry_Pilot,2022.1.3,Win32,60.0132029,62c50e9c1127f2cd403a315f,,,,,,,,,,,,,,,,,,,,,,,,,,,,,,,,,,,,,,,,,,,,,,,,,,,,,,,,,,,,,,,,,,,,,,,,,,,,,,,,,,,,,,,,,,,,,,,,,,,,,,,,,,,,,,,,,,,,,,,,,,,,,,,,,,,,,,,,,,,,,,,,,,,,,,,,,,,,,,,,,,,
0,61,61,28,1,,610ae3ea1341878837b4e646,62c53a13b7009b49e4ba96d6,2022-07-06_10h30.52.216,Colour_Asymmetry_Pilot,2022.1.3,Win32,60.0132029,62c50e9c1127f2cd403a315f,,,,,,,,,,,,,,,,,,,,,,,,,,,,,,,,,,,,,,,,,,,,,,,,,,,,,,,,,,,,,,,,,,,,,,,,,,,,,,,,,,,,,,,,,,,,,,,,,,,,,,,,,,,,,,,,,,,,,,,,,,,,,,,,,,,,,,,,,,,,,,,,,,,,,,,,,,,,,,,,,,,
0,62,62,62,1,,610ae3ea1341878837b4e646,62c53a13b7009b49e4ba96d6,2022-07-06_10h30.52.216,Colour_Asymmetry_Pilot,2022.1.3,Win32,60.0132029,62c50e9c1127f2cd403a315f,,,,,,,,,,,,,,,,,,,,,,,,,,,,,,,,,,,,,,,,,,,,,,,,,,,,,,,,,,,,,,,,,,,,,,,,,,,,,,,,,,,,,,,,,,,,,,,,,,,,,,,,,,,,,,,,,,,,,,,,,,,,,,,,,,,,,,,,,,,,,,,,,,,,,,,,,,,,,,,,,,,
0,63,63,69,1,,610ae3ea1341878837b4e646,62c53a13b7009b49e4ba96d6,2022-07-06_10h30.52.216,Colour_Asymmetry_Pilot,2022.1.3,Win32,60.0132029,62c50e9c1127f2cd403a315f,,,,,,,,,,,,,,,,,,,,,,,,,,,,,,,,,,,,,,,,,,,,,,,,,,,,,,,,,,,,,,,,,,,,,,,,,,,,,,,,,,,,,,,,,,,,,,,,,,,,,,,,,,,,,,,,,,,,,,,,,,,,,,,,,,,,,,,,,,,,,,,,,,,,,,,,,,,,,,,,,,,
0,64,64,31,1,,610ae3ea1341878837b4e646,62c53a13b7009b49e4ba96d6,2022-07-06_10h30.52.216,Colour_Asymmetry_Pilot,2022.1.3,Win32,60.0132029,62c50e9c1127f2cd403a315f,,,,,,,,,,,,,,,,,,,,,,,,,,,,,,,,,,,,,,,,,,,,,,,,,,,,,,,,,,,,,,,,,,,,,,,,,,,,,,,,,,,,,,,,,,,,,,,,,,,,,,,,,,,,,,,,,,,,,,,,,,,,,,,,,,,,,,,,,,,,,,,,,,,,,,,,,,,,,,,,,,,
0,65,65,23,1,,610ae3ea1341878837b4e646,62c53a13b7009b49e4ba96d6,2022-07-06_10h30.52.216,Colour_Asymmetry_Pilot,2022.1.3,Win32,60.0132029,62c50e9c1127f2cd403a315f,,,,,,,,,,,,,,,,,,,,,,,,,,,,,,,,,,,,,,,,,,,,,,,,,,,,,,,,,,,,,,,,,,,,,,,,,,,,,,,,,,,,,,,,,,,,,,,,,,,,,,,,,,,,,,,,,,,,,,,,,,,,,,,,,,,,,,,,,,,,,,,,,,,,,,,,,,,,,,,,,,,
0,66,66,68,1,,610ae3ea1341878837b4e646,62c53a13b7009b49e4ba96d6,2022-07-06_10h30.52.216,Colour_Asymmetry_Pilot,2022.1.3,Win32,60.0132029,62c50e9c1127f2cd403a315f,,,,,,,,,,,,,,,,,,,,,,,,,,,,,,,,,,,,,,,,,,,,,,,,,,,,,,,,,,,,,,,,,,,,,,,,,,,,,,,,,,,,,,,,,,,,,,,,,,,,,,,,,,,,,,,,,,,,,,,,,,,,,,,,,,,,,,,,,,,,,,,,,,,,,,,,,,,,,,,,,,,
0,67,67,50,1,,610ae3ea1341878837b4e646,62c53a13b7009b49e4ba96d6,2022-07-06_10h30.52.216,Colour_Asymmetry_Pilot,2022.1.3,Win32,60.0132029,62c50e9c1127f2cd403a315f,,,,,,,,,,,,,,,,,,,,,,,,,,,,,,,,,,,,,,,,,,,,,,,,,,,,,,,,,,,,,,,,,,,,,,,,,,,,,,,,,,,,,,,,,,,,,,,,,,,,,,,,,,,,,,,,,,,,,,,,,,,,,,,,,,,,,,,,,,,,,,,,,,,,,,,,,,,,,,,,,,,
0,68,68,9,1,,610ae3ea1341878837b4e646,62c53a13b7009b49e4ba96d6,2022-07-06_10h30.52.216,Colour_Asymmetry_Pilot,2022.1.3,Win32,60.0132029,62c50e9c1127f2cd403a315f,,,,,,,,,,,,,,,,,,,,,,,,,,,,,,,,,,,,,,,,,,,,,,,,,,,,,,,,,,,,,,,,,,,,,,,,,,,,,,,,,,,,,,,,,,,,,,,,,,,,,,,,,,,,,,,,,,,,,,,,,,,,,,,,,,,,,,,,,,,,,,,,,,,,,,,,,,,,,,,,,,,
0,69,69,17,1,,610ae3ea1341878837b4e646,62c53a13b7009b49e4ba96d6,2022-07-06_10h30.52.216,Colour_Asymmetry_Pilot,2022.1.3,Win32,60.0132029,62c50e9c1127f2cd403a315f,,,,,,,,,,,,,,,,,,,,,,,,,,,,,,,,,,,,,,,,,,,,,,,,,,,,,,,,,,,,,,,,,,,,,,,,,,,,,,,,,,,,,,,,,,,,,,,,,,,,,,,,,,,,,,,,,,,,,,,,,,,,,,,,,,,,,,,,,,,,,,,,,,,,,,,,,,,,,,,,,,,
0,70,70,26,1,,610ae3ea1341878837b4e646,62c53a13b7009b49e4ba96d6,2022-07-06_10h30.52.216,Colour_Asymmetry_Pilot,2022.1.3,Win32,60.0132029,62c50e9c1127f2cd403a315f,,,,,,,,,,,,,,,,,,,,,,,,,,,,,,,,,,,,,,,,,,,,,,,,,,,,,,,,,,,,,,,,,,,,,,,,,,,,,,,,,,,,,,,,,,,,,,,,,,,,,,,,,,,,,,,,,,,,,,,,,,,,,,,,,,,,,,,,,,,,,,,,,,,,,,,,,,,,,,,,,,,
0,71,71,1,1,,610ae3ea1341878837b4e646,62c53a13b7009b49e4ba96d6,2022-07-06_10h30.52.216,Colour_Asymmetry_Pilot,2022.1.3,Win32,60.0132029,62c50e9c1127f2cd403a315f,,,,,,,,,,,,,,,,,,,,,,,,,,,,,,,,,,,,,,,,,,,,,,,,,,,,,,,,,,,,,,,,,,,,,,,,,,,,,,,,,,,,,,,,,,,,,,,,,,,,,,,,,,,,,,,,,,,,,,,,,,,,,,,,,,,,,,,,,,,,,,,,,,,,,,,,,,,,,,,,,,,
0,72,72,22,1,,610ae3ea1341878837b4e646,62c53a13b7009b49e4ba96d6,2022-07-06_10h30.52.216,Colour_Asymmetry_Pilot,2022.1.3,Win32,60.0132029,62c50e9c1127f2cd403a315f,,,,,,,,,,,,,,,,,,,,,,,,,,,,,,,,,,,,,,,,,,,,,,,,,,,,,,,,,,,,,,,,,,,,,,,,,,,,,,,,,,,,,,,,,,,,,,,,,,,,,,,,,,,,,,,,,,,,,,,,,,,,,,,,,,,,,,,,,,,,,,,,,,,,,,,,,,,,,,,,,,,
0,73,73,14,1,,610ae3ea1341878837b4e646,62c53a13b7009b49e4ba96d6,2022-07-06_10h30.52.216,Colour_Asymmetry_Pilot,2022.1.3,Win32,60.0132029,62c50e9c1127f2cd403a315f,,,,,,,,,,,,,,,,,,,,,,,,,,,,,,,,,,,,,,,,,,,,,,,,,,,,,,,,,,,,,,,,,,,,,,,,,,,,,,,,,,,,,,,,,,,,,,,,,,,,,,,,,,,,,,,,,,,,,,,,,,,,,,,,,,,,,,,,,,,,,,,,,,,,,,,,,,,,,,,,,,,
0,74,74,2,1,,610ae3ea1341878837b4e646,62c53a13b7009b49e4ba96d6,2022-07-06_10h30.52.216,Colour_Asymmetry_Pilot,2022.1.3,Win32,60.0132029,62c50e9c1127f2cd403a315f,,,,,,,,,,,,,,,,,,,,,,,,,,,,,,,,,,,,,,,,,,,,,,,,,,,,,,,,,,,,,,,,,,,,,,,,,,,,,,,,,,,,,,,,,,,,,,,,,,,,,,,,,,,,,,,,,,,,,,,,,,,,,,,,,,,,,,,,,,,,,,,,,,,,,,,,,,,,,,,,,,,
0,75,75,43,1,,610ae3ea1341878837b4e646,62c53a13b7009b49e4ba96d6,2022-07-06_10h30.52.216,Colour_Asymmetry_Pilot,2022.1.3,Win32,60.0132029,62c50e9c1127f2cd403a315f,,,,,,,,,,,,,,,,,,,,,,,,,,,,,,,,,,,,,,,,,,,,,,,,,,,,,,,,,,,,,,,,,,,,,,,,,,,,,,,,,,,,,,,,,,,,,,,,,,,,,,,,,,,,,,,,,,,,,,,,,,,,,,,,,,,,,,,,,,,,,,,,,,,,,,,,,,,,,,,,,,,
0,76,76,7,1,,610ae3ea1341878837b4e646,62c53a13b7009b49e4ba96d6,2022-07-06_10h30.52.216,Colour_Asymmetry_Pilot,2022.1.3,Win32,60.0132029,62c50e9c1127f2cd403a315f,,,,,,,,,,,,,,,,,,,,,,,,,,,,,,,,,,,,,,,,,,,,,,,,,,,,,,,,,,,,,,,,,,,,,,,,,,,,,,,,,,,,,,,,,,,,,,,,,,,,,,,,,,,,,,,,,,,,,,,,,,,,,,,,,,,,,,,,,,,,,,,,,,,,,,,,,,,,,,,,,,,
0,77,77,4,1,,610ae3ea1341878837b4e646,62c53a13b7009b49e4ba96d6,2022-07-06_10h30.52.216,Colour_Asymmetry_Pilot,2022.1.3,Win32,60.0132029,62c50e9c1127f2cd403a315f,,,,,,,,,,,,,,,,,,,,,,,,,,,,,,,,,,,,,,,,,,,,,,,,,,,,,,,,,,,,,,,,,,,,,,,,,,,,,,,,,,,,,,,,,,,,,,,,,,,,,,,,,,,,,,,,,,,,,,,,,,,,,,,,,,,,,,,,,,,,,,,,,,,,,,,,,,,,,,,,,,,
0,78,78,6,1,,610ae3ea1341878837b4e646,62c53a13b7009b49e4ba96d6,2022-07-06_10h30.52.216,Colour_Asymmetry_Pilot,2022.1.3,Win32,60.0132029,62c50e9c1127f2cd403a315f,,,,,,,,,,,,,,,,,,,,,,,,,,,,,,,,,,,,,,,,,,,,,,,,,,,,,,,,,,,,,,,,,,,,,,,,,,,,,,,,,,,,,,,,,,,,,,,,,,,,,,,,,,,,,,,,,,,,,,,,,,,,,,,,,,,,,,,,,,,,,,,,,,,,,,,,,,,,,,,,,,,
0,79,79,27,1,,610ae3ea1341878837b4e646,62c53a13b7009b49e4ba96d6,2022-07-06_10h30.52.216,Colour_Asymmetry_Pilot,2022.1.3,Win32,60.0132029,62c50e9c1127f2cd403a315f,,,,,,,,,,,,,,,,,,,,,,,,,,,,,,,,,,,,,,,,,,,,,,,,,,,,,,,,,,,,,,,,,,,,,,,,,,,,,,,,,,,,,,,,,,,,,,,,,,,,,,,,,,,,,,,,,,,,,,,,,,,,,,,,,,,,,,,,,,,,,,,,,,,,,,,,,,,,,,,,,,,
0,80,80,47,1,,610ae3ea1341878837b4e646,62c53a13b7009b49e4ba96d6,2022-07-06_10h30.52.216,Colour_Asymmetry_Pilot,2022.1.3,Win32,60.0132029,62c50e9c1127f2cd403a315f,,,,,,,,,,,,,,,,,,,,,,,,,,,,,,,,,,,,,,,,,,,,,,,,,,,,,,,,,,,,,,,,,,,,,,,,,,,,,,,,,,,,,,,,,,,,,,,,,,,,,,,,,,,,,,,,,,,,,,,,,,,,,,,,,,,,,,,,,,,,,,,,,,,,,,,,,,,,,,,,,,,
0,81,81,8,1,,610ae3ea1341878837b4e646,62c53a13b7009b49e4ba96d6,2022-07-06_10h30.52.216,Colour_Asymmetry_Pilot,2022.1.3,Win32,60.0132029,62c50e9c1127f2cd403a315f,,,,,,,,,,,,,,,,,,,,,,,,,,,,,,,,,,,,,,,,,,,,,,,,,,,,,,,,,,,,,,,,,,,,,,,,,,,,,,,,,,,,,,,,,,,,,,,,,,,,,,,,,,,,,,,,,,,,,,,,,,,,,,,,,,,,,,,,,,,,,,,,,,,,,,,,,,,,,,,,,,,
0,82,82,30,1,,610ae3ea1341878837b4e646,62c53a13b7009b49e4ba96d6,2022-07-06_10h30.52.216,Colour_Asymmetry_Pilot,2022.1.3,Win32,60.0132029,62c50e9c1127f2cd403a315f,,,,,,,,,,,,,,,,,,,,,,,,,,,,,,,,,,,,,,,,,,,,,,,,,,,,,,,,,,,,,,,,,,,,,,,,,,,,,,,,,,,,,,,,,,,,,,,,,,,,,,,,,,,,,,,,,,,,,,,,,,,,,,,,,,,,,,,,,,,,,,,,,,,,,,,,,,,,,,,,,,,
0,83,83,80,1,,610ae3ea1341878837b4e646,62c53a13b7009b49e4ba96d6,2022-07-06_10h30.52.216,Colour_Asymmetry_Pilot,2022.1.3,Win32,60.0132029,62c50e9c1127f2cd403a315f,,,,,,,,,,,,,,,,,,,,,,,,,,,,,,,,,,,,,,,,,,,,,,,,,,,,,,,,,,,,,,,,,,,,,,,,,,,,,,,,,,,,,,,,,,,,,,,,,,,,,,,,,,,,,,,,,,,,,,,,,,,,,,,,,,,,,,,,,,,,,,,,,,,,,,,,,,,,,,,,,,,
0,84,84,34,1,,610ae3ea1341878837b4e646,62c53a13b7009b49e4ba96d6,2022-07-06_10h30.52.216,Colour_Asymmetry_Pilot,2022.1.3,Win32,60.0132029,62c50e9c1127f2cd403a315f,,,,,,,,,,,,,,,,,,,,,,,,,,,,,,,,,,,,,,,,,,,,,,,,,,,,,,,,,,,,,,,,,,,,,,,,,,,,,,,,,,,,,,,,,,,,,,,,,,,,,,,,,,,,,,,,,,,,,,,,,,,,,,,,,,,,,,,,,,,,,,,,,,,,,,,,,,,,,,,,,,,
0,85,85,64,1,,610ae3ea1341878837b4e646,62c53a13b7009b49e4ba96d6,2022-07-06_10h30.52.216,Colour_Asymmetry_Pilot,2022.1.3,Win32,60.0132029,62c50e9c1127f2cd403a315f,,,,,,,,,,,,,,,,,,,,,,,,,,,,,,,,,,,,,,,,,,,,,,,,,,,,,,,,,,,,,,,,,,,,,,,,,,,,,,,,,,,,,,,,,,,,,,,,,,,,,,,,,,,,,,,,,,,,,,,,,,,,,,,,,,,,,,,,,,,,,,,,,,,,,,,,,,,,,,,,,,,
0,86,86,5,1,,610ae3ea1341878837b4e646,62c53a13b7009b49e4ba96d6,2022-07-06_10h30.52.216,Colour_Asymmetry_Pilot,2022.1.3,Win32,60.0132029,62c50e9c1127f2cd403a315f,,,,,,,,,,,,,,,,,,,,,,,,,,,,,,,,,,,,,,,,,,,,,,,,,,,,,,,,,,,,,,,,,,,,,,,,,,,,,,,,,,,,,,,,,,,,,,,,,,,,,,,,,,,,,,,,,,,,,,,,,,,,,,,,,,,,,,,,,,,,,,,,,,,,,,,,,,,,,,,,,,,
0,87,87,24,1,,610ae3ea1341878837b4e646,62c53a13b7009b49e4ba96d6,2022-07-06_10h30.52.216,Colour_Asymmetry_Pilot,2022.1.3,Win32,60.0132029,62c50e9c1127f2cd403a315f,,,,,,,,,,,,,,,,,,,,,,,,,,,,,,,,,,,,,,,,,,,,,,,,,,,,,,,,,,,,,,,,,,,,,,,,,,,,,,,,,,,,,,,,,,,,,,,,,,,,,,,,,,,,,,,,,,,,,,,,,,,,,,,,,,,,,,,,,,,,,,,,,,,,,,,,,,,,,,,,,,,
0,88,88,48,1,,610ae3ea1341878837b4e646,62c53a13b7009b49e4ba96d6,2022-07-06_10h30.52.216,Colour_Asymmetry_Pilot,2022.1.3,Win32,60.0132029,62c50e9c1127f2cd403a315f,,,,,,,,,,,,,,,,,,,,,,,,,,,,,,,,,,,,,,,,,,,,,,,,,,,,,,,,,,,,,,,,,,,,,,,,,,,,,,,,,,,,,,,,,,,,,,,,,,,,,,,,,,,,,,,,,,,,,,,,,,,,,,,,,,,,,,,,,,,,,,,,,,,,,,,,,,,,,,,,,,,
0,89,89,73,1,,610ae3ea1341878837b4e646,62c53a13b7009b49e4ba96d6,2022-07-06_10h30.52.216,Colour_Asymmetry_Pilot,2022.1.3,Win32,60.0132029,62c50e9c1127f2cd403a315f,,,,,,,,,,,,,,,,,,,,,,,,,,,,,,,,,,,,,,,,,,,,,,,,,,,,,,,,,,,,,,,,,,,,,,,,,,,,,,,,,,,,,,,,,,,,,,,,,,,,,,,,,,,,,,,,,,,,,,,,,,,,,,,,,,,,,,,,,,,,,,,,,,,,,,,,,,,,,,,,,,,
0,90,90,42,1,,610ae3ea1341878837b4e646,62c53a13b7009b49e4ba96d6,2022-07-06_10h30.52.216,Colour_Asymmetry_Pilot,2022.1.3,Win32,60.0132029,62c50e9c1127f2cd403a315f,,,,,,,,,,,,,,,,,,,,,,,,,,,,,,,,,,,,,,,,,,,,,,,,,,,,,,,,,,,,,,,,,,,,,,,,,,,,,,,,,,,,,,,,,,,,,,,,,,,,,,,,,,,,,,,,,,,,,,,,,,,,,,,,,,,,,,,,,,,,,,,,,,,,,,,,,,,,,,,,,,,
0,91,91,66,1,,610ae3ea1341878837b4e646,62c53a13b7009b49e4ba96d6,2022-07-06_10h30.52.216,Colour_Asymmetry_Pilot,2022.1.3,Win32,60.0132029,62c50e9c1127f2cd403a315f,,,,,,,,,,,,,,,,,,,,,,,,,,,,,,,,,,,,,,,,,,,,,,,,,,,,,,,,,,,,,,,,,,,,,,,,,,,,,,,,,,,,,,,,,,,,,,,,,,,,,,,,,,,,,,,,,,,,,,,,,,,,,,,,,,,,,,,,,,,,,,,,,,,,,,,,,,,,,,,,,,,
0,92,92,65,1,,610ae3ea1341878837b4e646,62c53a13b7009b49e4ba96d6,2022-07-06_10h30.52.216,Colour_Asymmetry_Pilot,2022.1.3,Win32,60.0132029,62c50e9c1127f2cd403a315f,,,,,,,,,,,,,,,,,,,,,,,,,,,,,,,,,,,,,,,,,,,,,,,,,,,,,,,,,,,,,,,,,,,,,,,,,,,,,,,,,,,,,,,,,,,,,,,,,,,,,,,,,,,,,,,,,,,,,,,,,,,,,,,,,,,,,,,,,,,,,,,,,,,,,,,,,,,,,,,,,,,
,,,,,,610ae3ea1341878837b4e646,62c53a13b7009b49e4ba96d6,2022-07-06_10h30.52.216,Colour_Asymmetry_Pilot,2022.1.3,Win32,60.0132029,62c50e9c1127f2cd403a315f,0,0,0,153,1,onethree,,,,,,,,,,,,,,,,,,,,,,,,,,,,,,,,,,,,,,,,,,,,,,,,,,,,,,,,,,,,,,,,,,,,,,,,,,,,,,,,,,,,,,,,,,,,,,,,,,,,,,,,,,,,,,,,,,,,,,,,,,,,,,,,,,,,,,,,,,,,,,,,,,,,,,,,,,,,,
,,,,,,610ae3ea1341878837b4e646,62c53a13b7009b49e4ba96d6,2022-07-06_10h30.52.216,Colour_Asymmetry_Pilot,2022.1.3,Win32,60.0132029,62c50e9c1127f2cd403a315f,0,1,1,66,1,twoone,,,,,,,,,,,,,,,,,,,,,,,,,,,,,,,,,,,,,,,,,,,,,,,,,,,,,,,,,,,,,,,,,,,,,,,,,,,,,,,,,,,,,,,,,,,,,,,,,,,,,,,,,,,,,,,,,,,,,,,,,,,,,,,,,,,,,,,,,,,,,,,,,,,,,,,,,,,,,
,,,,,,610ae3ea1341878837b4e646,62c53a13b7009b49e4ba96d6,2022-07-06_10h30.52.216,Colour_Asymmetry_Pilot,2022.1.3,Win32,60.0132029,62c50e9c1127f2cd403a315f,0,2,2,101,1,threefour,,,,,,,,,,,,,,,,,,,,,,,,,,,,,,,,,,,,,,,,,,,,,,,,,,,,,,,,,,,,,,,,,,,,,,,,,,,,,,,,,,,,,,,,,,,,,,,,,,,,,,,,,,,,,,,,,,,,,,,,,,,,,,,,,,,,,,,,,,,,,,,,,,,,,,,,,,,,,
,,,,,,610ae3ea1341878837b4e646,62c53a13b7009b49e4ba96d6,2022-07-06_10h30.52.216,Colour_Asymmetry_Pilot,2022.1.3,Win32,60.0132029,62c50e9c1127f2cd403a315f,0,3,3,158,1,fourtwo,,,,,,,,,,,,,,,,,,,,,,,,,,,,,,,,,,,,,,,,,,,,,,,,,,,,,,,,,,,,,,,,,,,,,,,,,,,,,,,,,,,,,,,,,,,,,,,,,,,,,,,,,,,,,,,,,,,,,,,,,,,,,,,,,,,,,,,,,,,,,,,,,,,,,,,,,,,,,
,,,,,,610ae3ea1341878837b4e646,62c53a13b7009b49e4ba96d6,2022-07-06_10h30.52.216,Colour_Asymmetry_Pilot,2022.1.3,Win32,60.0132029,62c50e9c1127f2cd403a315f,0,4,4,78,1,fourtwo,,,,,,,,,,,,,,,,,,,,,,,,,,,,,,,,,,,,,,,,,,,,,,,,,,,,,,,,,,,,,,,,,,,,,,,,,,,,,,,,,,,,,,,,,,,,,,,,,,,,,,,,,,,,,,,,,,,,,,,,,,,,,,,,,,,,,,,,,,,,,,,,,,,,,,,,,,,,,
,,,,,,610ae3ea1341878837b4e646,62c53a13b7009b49e4ba96d6,2022-07-06_10h30.52.216,Colour_Asymmetry_Pilot,2022.1.3,Win32,60.0132029,62c50e9c1127f2cd403a315f,0,5,5,98,1,twoone,,,,,,,,,,,,,,,,,,,,,,,,,,,,,,,,,,,,,,,,,,,,,,,,,,,,,,,,,,,,,,,,,,,,,,,,,,,,,,,,,,,,,,,,,,,,,,,,,,,,,,,,,,,,,,,,,,,,,,,,,,,,,,,,,,,,,,,,,,,,,,,,,,,,,,,,,,,,,
,,,,,,610ae3ea1341878837b4e646,62c53a13b7009b49e4ba96d6,2022-07-06_10h30.52.216,Colour_Asymmetry_Pilot,2022.1.3,Win32,60.0132029,62c50e9c1127f2cd403a315f,0,6,6,74,1,twoone,,,,,,,,,,,,,,,,,,,,,,,,,,,,,,,,,,,,,,,,,,,,,,,,,,,,,,,,,,,,,,,,,,,,,,,,,,,,,,,,,,,,,,,,,,,,,,,,,,,,,,,,,,,,,,,,,,,,,,,,,,,,,,,,,,,,,,,,,,,,,,,,,,,,,,,,,,,,,
,,,,,,610ae3ea1341878837b4e646,62c53a13b7009b49e4ba96d6,2022-07-06_10h30.52.216,Colour_Asymmetry_Pilot,2022.1.3,Win32,60.0132029,62c50e9c1127f2cd403a315f,0,7,7,76,1,threeone,,,,,,,,,,,,,,,,,,,,,,,,,,,,,,,,,,,,,,,,,,,,,,,,,,,,,,,,,,,,,,,,,,,,,,,,,,,,,,,,,,,,,,,,,,,,,,,,,,,,,,,,,,,,,,,,,,,,,,,,,,,,,,,,,,,,,,,,,,,,,,,,,,,,,,,,,,,,,
,,,,,,610ae3ea1341878837b4e646,62c53a13b7009b49e4ba96d6,2022-07-06_10h30.52.216,Colour_Asymmetry_Pilot,2022.1.3,Win32,60.0132029,62c50e9c1127f2cd403a315f,0,8,8,40,1,onetwo,,,,,,,,,,,,,,,,,,,,,,,,,,,,,,,,,,,,,,,,,,,,,,,,,,,,,,,,,,,,,,,,,,,,,,,,,,,,,,,,,,,,,,,,,,,,,,,,,,,,,,,,,,,,,,,,,,,,,,,,,,,,,,,,,,,,,,,,,,,,,,,,,,,,,,,,,,,,,
,,,,,,610ae3ea1341878837b4e646,62c53a13b7009b49e4ba96d6,2022-07-06_10h30.52.216,Colour_Asymmetry_Pilot,2022.1.3,Win32,60.0132029,62c50e9c1127f2cd403a315f,0,9,9,123,1,twofour,,,,,,,,,,,,,,,,,,,,,,,,,,,,,,,,,,,,,,,,,,,,,,,,,,,,,,,,,,,,,,,,,,,,,,,,,,,,,,,,,,,,,,,,,,,,,,,,,,,,,,,,,,,,,,,,,,,,,,,,,,,,,,,,,,,,,,,,,,,,,,,,,,,,,,,,,,,,,
,,,,,,610ae3ea1341878837b4e646,62c53a13b7009b49e4ba96d6,2022-07-06_10h30.52.216,Colour_Asymmetry_Pilot,2022.1.3,Win32,60.0132029,62c50e9c1127f2cd403a315f,0,10,10,94,1,fourtwo,,,,,,,,,,,,,,,,,,,,,,,,,,,,,,,,,,,,,,,,,,,,,,,,,,,,,,,,,,,,,,,,,,,,,,,,,,,,,,,,,,,,,,,,,,,,,,,,,,,,,,,,,,,,,,,,,,,,,,,,,,,,,,,,,,,,,,,,,,,,,,,,,,,,,,,,,,,,,
,,,,,,610ae3ea1341878837b4e646,62c53a13b7009b49e4ba96d6,2022-07-06_10h30.52.216,Colour_Asymmetry_Pilot,2022.1.3,Win32,60.0132029,62c50e9c1127f2cd403a315f,0,11,11,148,1,threeone,,,,,,,,,,,,,,,,,,,,,,,,,,,,,,,,,,,,,,,,,,,,,,,,,,,,,,,,,,,,,,,,,,,,,,,,,,,,,,,,,,,,,,,,,,,,,,,,,,,,,,,,,,,,,,,,,,,,,,,,,,,,,,,,,,,,,,,,,,,,,,,,,,,,,,,,,,,,,
,,,,,,610ae3ea1341878837b4e646,62c53a13b7009b49e4ba96d6,2022-07-06_10h30.52.216,Colour_Asymmetry_Pilot,2022.1.3,Win32,60.0132029,62c50e9c1127f2cd403a315f,0,12,12,51,1,twofour,,,,,,,,,,,,,,,,,,,,,,,,,,,,,,,,,,,,,,,,,,,,,,,,,,,,,,,,,,,,,,,,,,,,,,,,,,,,,,,,,,,,,,,,,,,,,,,,,,,,,,,,,,,,,,,,,,,,,,,,,,,,,,,,,,,,,,,,,,,,,,,,,,,,,,,,,,,,,
,,,,,,610ae3ea1341878837b4e646,62c53a13b7009b49e4ba96d6,2022-07-06_10h30.52.216,Colour_Asymmetry_Pilot,2022.1.3,Win32,60.0132029,62c50e9c1127f2cd403a315f,0,13,13,114,1,twoone,,,,,,,,,,,,,,,,,,,,,,,,,,,,,,,,,,,,,,,,,,,,,,,,,,,,,,,,,,,,,,,,,,,,,,,,,,,,,,,,,,,,,,,,,,,,,,,,,,,,,,,,,,,,,,,,,,,,,,,,,,,,,,,,,,,,,,,,,,,,,,,,,,,,,,,,,,,,,
,,,,,,610ae3ea1341878837b4e646,62c53a13b7009b49e4ba96d6,2022-07-06_10h30.52.216,Colour_Asymmetry_Pilot,2022.1.3,Win32,60.0132029,62c50e9c1127f2cd403a315f,0,14,14,4,1,threeone,,,,,,,,,,,,,,,,,,,,,,,,,,,,,,,,,,,,,,,,,,,,,,,,,,,,,,,,,,,,,,,,,,,,,,,,,,,,,,,,,,,,,,,,,,,,,,,,,,,,,,,,,,,,,,,,,,,,,,,,,,,,,,,,,,,,,,,,,,,,,,,,,,,,,,,,,,,,,
,,,,,,610ae3ea1341878837b4e646,62c53a13b7009b49e4ba96d6,2022-07-06_10h30.52.216,Colour_Asymmetry_Pilot,2022.1.3,Win32,60.0132029,62c50e9c1127f2cd403a315f,0,15,15,44,1,threeone,,,,,,,,,,,,,,,,,,,,,,,,,,,,,,,,,,,,,,,,,,,,,,,,,,,,,,,,,,,,,,,,,,,,,,,,,,,,,,,,,,,,,,,,,,,,,,,,,,,,,,,,,,,,,,,,,,,,,,,,,,,,,,,,,,,,,,,,,,,,,,,,,,,,,,,,,,,,,
,,,,,,610ae3ea1341878837b4e646,62c53a13b7009b49e4ba96d6,2022-07-06_10h30.52.216,Colour_Asymmetry_Pilot,2022.1.3,Win32,60.0132029,62c50e9c1127f2cd403a315f,0,16,16,64,1,onetwo,,,,,,,,,,,,,,,,,,,,,,,,,,,,,,,,,,,,,,,,,,,,,,,,,,,,,,,,,,,,,,,,,,,,,,,,,,,,,,,,,,,,,,,,,,,,,,,,,,,,,,,,,,,,,,,,,,,,,,,,,,,,,,,,,,,,,,,,,,,,,,,,,,,,,,,,,,,,,
,,,,,,610ae3ea1341878837b4e646,62c53a13b7009b49e4ba96d6,2022-07-06_10h30.52.216,Colour_Asymmetry_Pilot,2022.1.3,Win32,60.0132029,62c50e9c1127f2cd403a315f,0,17,17,28,1,threeone,,,,,,,,,,,,,,,,,,,,,,,,,,,,,,,,,,,,,,,,,,,,,,,,,,,,,,,,,,,,,,,,,,,,,,,,,,,,,,,,,,,,,,,,,,,,,,,,,,,,,,,,,,,,,,,,,,,,,,,,,,,,,,,,,,,,,,,,,,,,,,,,,,,,,,,,,,,,,
,,,,,,610ae3ea1341878837b4e646,62c53a13b7009b49e4ba96d6,2022-07-06_10h30.52.216,Colour_Asymmetry_Pilot,2022.1.3,Win32,60.0132029,62c50e9c1127f2cd403a315f,0,18,18,102,1,fourtwo,,,,,,,,,,,,,,,,,,,,,,,,,,,,,,,,,,,,,,,,,,,,,,,,,,,,,,,,,,,,,,,,,,,,,,,,,,,,,,,,,,,,,,,,,,,,,,,,,,,,,,,,,,,,,,,,,,,,,,,,,,,,,,,,,,,,,,,,,,,,,,,,,,,,,,,,,,,,,
,,,,,,610ae3ea1341878837b4e646,62c53a13b7009b49e4ba96d6,2022-07-06_10h30.52.216,Colour_Asymmetry_Pilot,2022.1.3,Win32,60.0132029,62c50e9c1127f2cd403a315f,0,19,19,88,1,onetwo,,,,,,,,,,,,,,,,,,,,,,,,,,,,,,,,,,,,,,,,,,,,,,,,,,,,,,,,,,,,,,,,,,,,,,,,,,,,,,,,,,,,,,,,,,,,,,,,,,,,,,,,,,,,,,,,,,,,,,,,,,,,,,,,,,,,,,,,,,,,,,,,,,,,,,,,,,,,,
,,,,,,610ae3ea1341878837b4e646,62c53a13b7009b49e4ba96d6,2022-07-06_10h30.52.216,Colour_Asymmetry_Pilot,2022.1.3,Win32,60.0132029,62c50e9c1127f2cd403a315f,0,20,20,5,1,threefour,,,,,,,,,,,,,,,,,,,,,,,,,,,,,,,,,,,,,,,,,,,,,,,,,,,,,,,,,,,,,,,,,,,,,,,,,,,,,,,,,,,,,,,,,,,,,,,,,,,,,,,,,,,,,,,,,,,,,,,,,,,,,,,,,,,,,,,,,,,,,,,,,,,,,,,,,,,,,
,,,,,,610ae3ea1341878837b4e646,62c53a13b7009b49e4ba96d6,2022-07-06_10h30.52.216,Colour_Asymmetry_Pilot,2022.1.3,Win32,60.0132029,62c50e9c1127f2cd403a315f,0,21,21,134,1,fourtwo,,,,,,,,,,,,,,,,,,,,,,,,,,,,,,,,,,,,,,,,,,,,,,,,,,,,,,,,,,,,,,,,,,,,,,,,,,,,,,,,,,,,,,,,,,,,,,,,,,,,,,,,,,,,,,,,,,,,,,,,,,,,,,,,,,,,,,,,,,,,,,,,,,,,,,,,,,,,,
,,,,,,610ae3ea1341878837b4e646,62c53a13b7009b49e4ba96d6,2022-07-06_10h30.52.216,Colour_Asymmetry_Pilot,2022.1.3,Win32,60.0132029,62c50e9c1127f2cd403a315f,0,22,22,107,1,twofour,,,,,,,,,,,,,,,,,,,,,,,,,,,,,,,,,,,,,,,,,,,,,,,,,,,,,,,,,,,,,,,,,,,,,,,,,,,,,,,,,,,,,,,,,,,,,,,,,,,,,,,,,,,,,,,,,,,,,,,,,,,,,,,,,,,,,,,,,,,,,,,,,,,,,,,,,,,,,
,,,,,,610ae3ea1341878837b4e646,62c53a13b7009b49e4ba96d6,2022-07-06_10h30.52.216,Colour_Asymmetry_Pilot,2022.1.3,Win32,60.0132029,62c50e9c1127f2cd403a315f,0,23,23,41,1,onethree,,,,,,,,,,,,,,,,,,,,,,,,,,,,,,,,,,,,,,,,,,,,,,,,,,,,,,,,,,,,,,,,,,,,,,,,,,,,,,,,,,,,,,,,,,,,,,,,,,,,,,,,,,,,,,,,,,,,,,,,,,,,,,,,,,,,,,,,,,,,,,,,,,,,,,,,,,,,,
,,,,,,610ae3ea1341878837b4e646,62c53a13b7009b49e4ba96d6,2022-07-06_10h30.52.216,Colour_Asymmetry_Pilot,2022.1.3,Win32,60.0132029,62c50e9c1127f2cd403a315f,0,24,24,108,1,threeone,,,,,,,,,,,,,,,,,,,,,,,,,,,,,,,,,,,,,,,,,,,,,,,,,,,,,,,,,,,,,,,,,,,,,,,,,,,,,,,,,,,,,,,,,,,,,,,,,,,,,,,,,,,,,,,,,,,,,,,,,,,,,,,,,,,,,,,,,,,,,,,,,,,,,,,,,,,,,
,,,,,,610ae3ea1341878837b4e646,62c53a13b7009b49e4ba96d6,2022-07-06_10h30.52.216,Colour_Asymmetry_Pilot,2022.1.3,Win32,60.0132029,62c50e9c1127f2cd403a315f,0,25,25,132,1,threeone,,,,,,,,,,,,,,,,,,,,,,,,,,,,,,,,,,,,,,,,,,,,,,,,,,,,,,,,,,,,,,,,,,,,,,,,,,,,,,,,,,,,,,,,,,,,,,,,,,,,,,,,,,,,,,,,,,,,,,,,,,,,,,,,,,,,,,,,,,,,,,,,,,,,,,,,,,,,,
,,,,,,610ae3ea1341878837b4e646,62c53a13b7009b49e4ba96d6,2022-07-06_10h30.52.216,Colour_Asymmetry_Pilot,2022.1.3,Win32,60.0132029,62c50e9c1127f2cd403a315f,0,26,26,19,1,twofour,,,,,,,,,,,,,,,,,,,,,,,,,,,,,,,,,,,,,,,,,,,,,,,,,,,,,,,,,,,,,,,,,,,,,,,,,,,,,,,,,,,,,,,,,,,,,,,,,,,,,,,,,,,,,,,,,,,,,,,,,,,,,,,,,,,,,,,,,,,,,,,,,,,,,,,,,,,,,
,,,,,,610ae3ea1341878837b4e646,62c53a13b7009b49e4ba96d6,2022-07-06_10h30.52.216,Colour_Asymmetry_Pilot,2022.1.3,Win32,60.0132029,62c50e9c1127f2cd403a315f,0,27,27,142,1,fourtwo,,,,,,,,,,,,,,,,,,,,,,,,,,,,,,,,,,,,,,,,,,,,,,,,,,,,,,,,,,,,,,,,,,,,,,,,,,,,,,,,,,,,,,,,,,,,,,,,,,,,,,,,,,,,,,,,,,,,,,,,,,,,,,,,,,,,,,,,,,,,,,,,,,,,,,,,,,,,,
,,,,,,610ae3ea1341878837b4e646,62c53a13b7009b49e4ba96d6,2022-07-06_10h30.52.216,Colour_Asymmetry_Pilot,2022.1.3,Win32,60.0132029,62c50e9c1127f2cd403a315f,0,28,28,103,1,fourthree,,,,,,,,,,,,,,,,,,,,,,,,,,,,,,,,,,,,,,,,,,,,,,,,,,,,,,,,,,,,,,,,,,,,,,,,,,,,,,,,,,,,,,,,,,,,,,,,,,,,,,,,,,,,,,,,,,,,,,,,,,,,,,,,,,,,,,,,,,,,,,,,,,,,,,,,,,,,,
,,,,,,610ae3ea1341878837b4e646,62c53a13b7009b49e4ba96d6,2022-07-06_10h30.52.216,Colour_Asymmetry_Pilot,2022.1.3,Win32,60.0132029,62c50e9c1127f2cd403a315f,0,29,29,33,1,onethree,,,,,,,,,,,,,,,,,,,,,,,,,,,,,,,,,,,,,,,,,,,,,,,,,,,,,,,,,,,,,,,,,,,,,,,,,,,,,,,,,,,,,,,,,,,,,,,,,,,,,,,,,,,,,,,,,,,,,,,,,,,,,,,,,,,,,,,,,,,,,,,,,,,,,,,,,,,,,
,,,,,,610ae3ea1341878837b4e646,62c53a13b7009b49e4ba96d6,2022-07-06_10h30.52.216,Colour_Asymmetry_Pilot,2022.1.3,Win32,60.0132029,62c50e9c1127f2cd403a315f,0,30,30,67,1,twofour,,,,,,,,,,,,,,,,,,,,,,,,,,,,,,,,,,,,,,,,,,,,,,,,,,,,,,,,,,,,,,,,,,,,,,,,,,,,,,,,,,,,,,,,,,,,,,,,,,,,,,,,,,,,,,,,,,,,,,,,,,,,,,,,,,,,,,,,,,,,,,,,,,,,,,,,,,,,,
,,,,,,610ae3ea1341878837b4e646,62c53a13b7009b49e4ba96d6,2022-07-06_10h30.52.216,Colour_Asymmetry_Pilot,2022.1.3,Win32,60.0132029,62c50e9c1127f2cd403a315f,0,31,31,97,1,onethree,,,,,,,,,,,,,,,,,,,,,,,,,,,,,,,,,,,,,,,,,,,,,,,,,,,,,,,,,,,,,,,,,,,,,,,,,,,,,,,,,,,,,,,,,,,,,,,,,,,,,,,,,,,,,,,,,,,,,,,,,,,,,,,,,,,,,,,,,,,,,,,,,,,,,,,,,,,,,
,,,,,,610ae3ea1341878837b4e646,62c53a13b7009b49e4ba96d6,2022-07-06_10h30.52.216,Colour_Asymmetry_Pilot,2022.1.3,Win32,60.0132029,62c50e9c1127f2cd403a315f,0,32,32,161,1,onethree,,,,,,,,,,,,,,,,,,,,,,,,,,,,,,,,,,,,,,,,,,,,,,,,,,,,,,,,,,,,,,,,,,,,,,,,,,,,,,,,,,,,,,,,,,,,,,,,,,,,,,,,,,,,,,,,,,,,,,,,,,,,,,,,,,,,,,,,,,,,,,,,,,,,,,,,,,,,,
,,,,,,610ae3ea1341878837b4e646,62c53a13b7009b49e4ba96d6,2022-07-06_10h30.52.216,Colour_Asymmetry_Pilot,2022.1.3,Win32,60.0132029,62c50e9c1127f2cd403a315f,0,33,33,37,1,threefour,,,,,,,,,,,,,,,,,,,,,,,,,,,,,,,,,,,,,,,,,,,,,,,,,,,,,,,,,,,,,,,,,,,,,,,,,,,,,,,,,,,,,,,,,,,,,,,,,,,,,,,,,,,,,,,,,,,,,,,,,,,,,,,,,,,,,,,,,,,,,,,,,,,,,,,,,,,,,
,,,,,,610ae3ea1341878837b4e646,62c53a13b7009b49e4ba96d6,2022-07-06_10h30.52.216,Colour_Asymmetry_Pilot,2022.1.3,Win32,60.0132029,62c50e9c1127f2cd403a315f,0,34,34,77,1,threefour,,,,,,,,,,,,,,,,,,,,,,,,,,,,,,,,,,,,,,,,,,,,,,,,,,,,,,,,,,,,,,,,,,,,,,,,,,,,,,,,,,,,,,,,,,,,,,,,,,,,,,,,,,,,,,,,,,,,,,,,,,,,,,,,,,,,,,,,,,,,,,,,,,,,,,,,,,,,,
,,,,,,610ae3ea1341878837b4e646,62c53a13b7009b49e4ba96d6,2022-07-06_10h30.52.216,Colour_Asymmetry_Pilot,2022.1.3,Win32,60.0132029,62c50e9c1127f2cd403a315f,0,35,35,146,1,twoone,,,,,,,,,,,,,,,,,,,,,,,,,,,,,,,,,,,,,,,,,,,,,,,,,,,,,,,,,,,,,,,,,,,,,,,,,,,,,,,,,,,,,,,,,,,,,,,,,,,,,,,,,,,,,,,,,,,,,,,,,,,,,,,,,,,,,,,,,,,,,,,,,,,,,,,,,,,,,
,,,,,,610ae3ea1341878837b4e646,62c53a13b7009b49e4ba96d6,2022-07-06_10h30.52.216,Colour_Asymmetry_Pilot,2022.1.3,Win32,60.0132029,62c50e9c1127f2cd403a315f,0,36,36,133,1,threefour,,,,,,,,,,,,,,,,,,,,,,,,,,,,,,,,,,,,,,,,,,,,,,,,,,,,,,,,,,,,,,,,,,,,,,,,,,,,,,,,,,,,,,,,,,,,,,,,,,,,,,,,,,,,,,,,,,,,,,,,,,,,,,,,,,,,,,,,,,,,,,,,,,,,,,,,,,,,,
,,,,,,610ae3ea1341878837b4e646,62c53a13b7009b49e4ba96d6,2022-07-06_10h30.52.216,Colour_Asymmetry_Pilot,2022.1.3,Win32,60.0132029,62c50e9c1127f2cd403a315f,0,37,37,129,1,onethree,,,,,,,,,,,,,,,,,,,,,,,,,,,,,,,,,,,,,,,,,,,,,,,,,,,,,,,,,,,,,,,,,,,,,,,,,,,,,,,,,,,,,,,,,,,,,,,,,,,,,,,,,,,,,,,,,,,,,,,,,,,,,,,,,,,,,,,,,,,,,,,,,,,,,,,,,,,,,
,,,,,,610ae3ea1341878837b4e646,62c53a13b7009b49e4ba96d6,2022-07-06_10h30.52.216,Colour_Asymmetry_Pilot,2022.1.3,Win32,60.0132029,62c50e9c1127f2cd403a315f,0,38,38,89,1,onethree,,,,,,,,,,,,,,,,,,,,,,,,,,,,,,,,,,,,,,,,,,,,,,,,,,,,,,,,,,,,,,,,,,,,,,,,,,,,,,,,,,,,,,,,,,,,,,,,,,,,,,,,,,,,,,,,,,,,,,,,,,,,,,,,,,,,,,,,,,,,,,,,,,,,,,,,,,,,,
,,,,,,610ae3ea1341878837b4e646,62c53a13b7009b49e4ba96d6,2022-07-06_10h30.52.216,Colour_Asymmetry_Pilot,2022.1.3,Win32,60.0132029,62c50e9c1127f2cd403a315f,0,39,39,11,1,twofour,,,,,,,,,,,,,,,,,,,,,,,,,,,,,,,,,,,,,,,,,,,,,,,,,,,,,,,,,,,,,,,,,,,,,,,,,,,,,,,,,,,,,,,,,,,,,,,,,,,,,,,,,,,,,,,,,,,,,,,,,,,,,,,,,,,,,,,,,,,,,,,,,,,,,,,,,,,,,
,,,,,,610ae3ea1341878837b4e646,62c53a13b7009b49e4ba96d6,2022-07-06_10h30.52.216,Colour_Asymmetry_Pilot,2022.1.3,Win32,60.0132029,62c50e9c1127f2cd403a315f,0,40,40,20,1,threeone,,,,,,,,,,,,,,,,,,,,,,,,,,,,,,,,,,,,,,,,,,,,,,,,,,,,,,,,,,,,,,,,,,,,,,,,,,,,,,,,,,,,,,,,,,,,,,,,,,,,,,,,,,,,,,,,,,,,,,,,,,,,,,,,,,,,,,,,,,,,,,,,,,,,,,,,,,,,,
,,,,,,610ae3ea1341878837b4e646,62c53a13b7009b49e4ba96d6,2022-07-06_10h30.52.216,Colour_Asymmetry_Pilot,2022.1.3,Win32,60.0132029,62c50e9c1127f2cd403a315f,0,41,41,36,1,threeone,,,,,,,,,,,,,,,,,,,,,,,,,,,,,,,,,,,,,,,,,,,,,,,,,,,,,,,,,,,,,,,,,,,,,,,,,,,,,,,,,,,,,,,,,,,,,,,,,,,,,,,,,,,,,,,,,,,,,,,,,,,,,,,,,,,,,,,,,,,,,,,,,,,,,,,,,,,,,
,,,,,,610ae3ea1341878837b4e646,62c53a13b7009b49e4ba96d6,2022-07-06_10h30.52.216,Colour_Asymmetry_Pilot,2022.1.3,Win32,60.0132029,62c50e9c1127f2cd403a315f,0,42,42,155,1,twofour,,,,,,,,,,,,,,,,,,,,,,,,,,,,,,,,,,,,,,,,,,,,,,,,,,,,,,,,,,,,,,,,,,,,,,,,,,,,,,,,,,,,,,,,,,,,,,,,,,,,,,,,,,,,,,,,,,,,,,,,,,,,,,,,,,,,,,,,,,,,,,,,,,,,,,,,,,,,,
,,,,,,610ae3ea1341878837b4e646,62c53a13b7009b49e4ba96d6,2022-07-06_10h30.52.216,Colour_Asymmetry_Pilot,2022.1.3,Win32,60.0132029,62c50e9c1127f2cd403a315f,0,43,43,14,1,fourtwo,,,,,,,,,,,,,,,,,,,,,,,,,,,,,,,,,,,,,,,,,,,,,,,,,,,,,,,,,,,,,,,,,,,,,,,,,,,,,,,,,,,,,,,,,,,,,,,,,,,,,,,,,,,,,,,,,,,,,,,,,,,,,,,,,,,,,,,,,,,,,,,,,,,,,,,,,,,,,
,,,,,,610ae3ea1341878837b4e646,62c53a13b7009b49e4ba96d6,2022-07-06_10h30.52.216,Colour_Asymmetry_Pilot,2022.1.3,Win32,60.0132029,62c50e9c1127f2cd403a315f,0,44,44,63,1,fourthree,,,,,,,,,,,,,,,,,,,,,,,,,,,,,,,,,,,,,,,,,,,,,,,,,,,,,,,,,,,,,,,,,,,,,,,,,,,,,,,,,,,,,,,,,,,,,,,,,,,,,,,,,,,,,,,,,,,,,,,,,,,,,,,,,,,,,,,,,,,,,,,,,,,,,,,,,,,,,
,,,,,,610ae3ea1341878837b4e646,62c53a13b7009b49e4ba96d6,2022-07-06_10h30.52.216,Colour_Asymmetry_Pilot,2022.1.3,Win32,60.0132029,62c50e9c1127f2cd403a315f,0,45,45,58,1,twoone,,,,,,,,,,,,,,,,,,,,,,,,,,,,,,,,,,,,,,,,,,,,,,,,,,,,,,,,,,,,,,,,,,,,,,,,,,,,,,,,,,,,,,,,,,,,,,,,,,,,,,,,,,,,,,,,,,,,,,,,,,,,,,,,,,,,,,,,,,,,,,,,,,,,,,,,,,,,,
,,,,,,610ae3ea1341878837b4e646,62c53a13b7009b49e4ba96d6,2022-07-06_10h30.52.216,Colour_Asymmetry_Pilot,2022.1.3,Win32,60.0132029,62c50e9c1127f2cd403a315f,0,46,46,16,1,onetwo,,,,,,,,,,,,,,,,,,,,,,,,,,,,,,,,,,,,,,,,,,,,,,,,,,,,,,,,,,,,,,,,,,,,,,,,,,,,,,,,,,,,,,,,,,,,,,,,,,,,,,,,,,,,,,,,,,,,,,,,,,,,,,,,,,,,,,,,,,,,,,,,,,,,,,,,,,,,,
,,,,,,610ae3ea1341878837b4e646,62c53a13b7009b49e4ba96d6,2022-07-06_10h30.52.216,Colour_Asymmetry_Pilot,2022.1.3,Win32,60.0132029,62c50e9c1127f2cd403a315f,0,47,47,75,1,twofour,,,,,,,,,,,,,,,,,,,,,,,,,,,,,,,,,,,,,,,,,,,,,,,,,,,,,,,,,,,,,,,,,,,,,,,,,,,,,,,,,,,,,,,,,,,,,,,,,,,,,,,,,,,,,,,,,,,,,,,,,,,,,,,,,,,,,,,,,,,,,,,,,,,,,,,,,,,,,
,,,,,,610ae3ea1341878837b4e646,62c53a13b7009b49e4ba96d6,2022-07-06_10h30.52.216,Colour_Asymmetry_Pilot,2022.1.3,Win32,60.0132029,62c50e9c1127f2cd403a315f,0,48,48,30,1,fourtwo,,,,,,,,,,,,,,,,,,,,,,,,,,,,,,,,,,,,,,,,,,,,,,,,,,,,,,,,,,,,,,,,,,,,,,,,,,,,,,,,,,,,,,,,,,,,,,,,,,,,,,,,,,,,,,,,,,,,,,,,,,,,,,,,,,,,,,,,,,,,,,,,,,,,,,,,,,,,,
,,,,,,610ae3ea1341878837b4e646,62c53a13b7009b49e4ba96d6,2022-07-06_10h30.52.216,Colour_Asymmetry_Pilot,2022.1.3,Win32,60.0132029,62c50e9c1127f2cd403a315f,0,49,49,1,1,onethree,,,,,,,,,,,,,,,,,,,,,,,,,,,,,,,,,,,,,,,,,,,,,,,,,,,,,,,,,,,,,,,,,,,,,,,,,,,,,,,,,,,,,,,,,,,,,,,,,,,,,,,,,,,,,,,,,,,,,,,,,,,,,,,,,,,,,,,,,,,,,,,,,,,,,,,,,,,,,
,,,,,,610ae3ea1341878837b4e646,62c53a13b7009b49e4ba96d6,2022-07-06_10h30.52.216,Colour_Asymmetry_Pilot,2022.1.3,Win32,60.0132029,62c50e9c1127f2cd403a315f,0,50,50,95,1,fourthree,,,,,,,,,,,,,,,,,,,,,,,,,,,,,,,,,,,,,,,,,,,,,,,,,,,,,,,,,,,,,,,,,,,,,,,,,,,,,,,,,,,,,,,,,,,,,,,,,,,,,,,,,,,,,,,,,,,,,,,,,,,,,,,,,,,,,,,,,,,,,,,,,,,,,,,,,,,,,
,,,,,,610ae3ea1341878837b4e646,62c53a13b7009b49e4ba96d6,2022-07-06_10h30.52.216,Colour_Asymmetry_Pilot,2022.1.3,Win32,60.0132029,62c50e9c1127f2cd403a315f,0,51,51,143,1,fourthree,,,,,,,,,,,,,,,,,,,,,,,,,,,,,,,,,,,,,,,,,,,,,,,,,,,,,,,,,,,,,,,,,,,,,,,,,,,,,,,,,,,,,,,,,,,,,,,,,,,,,,,,,,,,,,,,,,,,,,,,,,,,,,,,,,,,,,,,,,,,,,,,,,,,,,,,,,,,,
,,,,,,610ae3ea1341878837b4e646,62c53a13b7009b49e4ba96d6,2022-07-06_10h30.52.216,Colour_Asymmetry_Pilot,2022.1.3,Win32,60.0132029,62c50e9c1127f2cd403a315f,0,52,52,111,1,fourthree,,,,,,,,,,,,,,,,,,,,,,,,,,,,,,,,,,,,,,,,,,,,,,,,,,,,,,,,,,,,,,,,,,,,,,,,,,,,,,,,,,,,,,,,,,,,,,,,,,,,,,,,,,,,,,,,,,,,,,,,,,,,,,,,,,,,,,,,,,,,,,,,,,,,,,,,,,,,,
,,,,,,610ae3ea1341878837b4e646,62c53a13b7009b49e4ba96d6,2022-07-06_10h30.52.216,Colour_Asymmetry_Pilot,2022.1.3,Win32,60.0132029,62c50e9c1127f2cd403a315f,0,53,53,8,1,onetwo,,,,,,,,,,,,,,,,,,,,,,,,,,,,,,,,,,,,,,,,,,,,,,,,,,,,,,,,,,,,,,,,,,,,,,,,,,,,,,,,,,,,,,,,,,,,,,,,,,,,,,,,,,,,,,,,,,,,,,,,,,,,,,,,,,,,,,,,,,,,,,,,,,,,,,,,,,,,,
,,,,,,610ae3ea1341878837b4e646,62c53a13b7009b49e4ba96d6,2022-07-06_10h30.52.216,Colour_Asymmetry_Pilot,2022.1.3,Win32,60.0132029,62c50e9c1127f2cd403a315f,0,54,54,115,1,twofour,,,,,,,,,,,,,,,,,,,,,,,,,,,,,,,,,,,,,,,,,,,,,,,,,,,,,,,,,,,,,,,,,,,,,,,,,,,,,,,,,,,,,,,,,,,,,,,,,,,,,,,,,,,,,,,,,,,,,,,,,,,,,,,,,,,,,,,,,,,,,,,,,,,,,,,,,,,,,
,,,,,,610ae3ea1341878837b4e646,62c53a13b7009b49e4ba96d6,2022-07-06_10h30.52.216,Colour_Asymmetry_Pilot,2022.1.3,Win32,60.0132029,62c50e9c1127f2cd403a315f,0,55,55,136,1,onetwo,,,,,,,,,,,,,,,,,,,,,,,,,,,,,,,,,,,,,,,,,,,,,,,,,,,,,,,,,,,,,,,,,,,,,,,,,,,,,,,,,,,,,,,,,,,,,,,,,,,,,,,,,,,,,,,,,,,,,,,,,,,,,,,,,,,,,,,,,,,,,,,,,,,,,,,,,,,,,
,,,,,,610ae3ea1341878837b4e646,62c53a13b7009b49e4ba96d6,2022-07-06_10h30.52.216,Colour_Asymmetry_Pilot,2022.1.3,Win32,60.0132029,62c50e9c1127f2cd403a315f,0,56,56,54,1,fourtwo,,,,,,,,,,,,,,,,,,,,,,,,,,,,,,,,,,,,,,,,,,,,,,,,,,,,,,,,,,,,,,,,,,,,,,,,,,,,,,,,,,,,,,,,,,,,,,,,,,,,,,,,,,,,,,,,,,,,,,,,,,,,,,,,,,,,,,,,,,,,,,,,,,,,,,,,,,,,,
,,,,,,610ae3ea1341878837b4e646,62c53a13b7009b49e4ba96d6,2022-07-06_10h30.52.216,Colour_Asymmetry_Pilot,2022.1.3,Win32,60.0132029,62c50e9c1127f2cd403a315f,0,57,57,139,1,twofour,,,,,,,,,,,,,,,,,,,,,,,,,,,,,,,,,,,,,,,,,,,,,,,,,,,,,,,,,,,,,,,,,,,,,,,,,,,,,,,,,,,,,,,,,,,,,,,,,,,,,,,,,,,,,,,,,,,,,,,,,,,,,,,,,,,,,,,,,,,,,,,,,,,,,,,,,,,,,
,,,,,,610ae3ea1341878837b4e646,62c53a13b7009b49e4ba96d6,2022-07-06_10h30.52.216,Colour_Asymmetry_Pilot,2022.1.3,Win32,60.0132029,62c50e9c1127f2cd403a315f,0,58,58,56,1,onetwo,,,,,,,,,,,,,,,,,,,,,,,,,,,,,,,,,,,,,,,,,,,,,,,,,,,,,,,,,,,,,,,,,,,,,,,,,,,,,,,,,,,,,,,,,,,,,,,,,,,,,,,,,,,,,,,,,,,,,,,,,,,,,,,,,,,,,,,,,,,,,,,,,,,,,,,,,,,,,
,,,,,,610ae3ea1341878837b4e646,62c53a13b7009b49e4ba96d6,2022-07-06_10h30.52.216,Colour_Asymmetry_Pilot,2022.1.3,Win32,60.0132029,62c50e9c1127f2cd403a315f,0,59,59,84,1,threeone,,,,,,,,,,,,,,,,,,,,,,,,,,,,,,,,,,,,,,,,,,,,,,,,,,,,,,,,,,,,,,,,,,,,,,,,,,,,,,,,,,,,,,,,,,,,,,,,,,,,,,,,,,,,,,,,,,,,,,,,,,,,,,,,,,,,,,,,,,,,,,,,,,,,,,,,,,,,,
,,,,,,610ae3ea1341878837b4e646,62c53a13b7009b49e4ba96d6,2022-07-06_10h30.52.216,Colour_Asymmetry_Pilot,2022.1.3,Win32,60.0132029,62c50e9c1127f2cd403a315f,0,60,60,138,1,twoone,,,,,,,,,,,,,,,,,,,,,,,,,,,,,,,,,,,,,,,,,,,,,,,,,,,,,,,,,,,,,,,,,,,,,,,,,,,,,,,,,,,,,,,,,,,,,,,,,,,,,,,,,,,,,,,,,,,,,,,,,,,,,,,,,,,,,,,,,,,,,,,,,,,,,,,,,,,,,
,,,,,,610ae3ea1341878837b4e646,62c53a13b7009b49e4ba96d6,2022-07-06_10h30.52.216,Colour_Asymmetry_Pilot,2022.1.3,Win32,60.0132029,62c50e9c1127f2cd403a315f,0,61,61,145,1,onethree,,,,,,,,,,,,,,,,,,,,,,,,,,,,,,,,,,,,,,,,,,,,,,,,,,,,,,,,,,,,,,,,,,,,,,,,,,,,,,,,,,,,,,,,,,,,,,,,,,,,,,,,,,,,,,,,,,,,,,,,,,,,,,,,,,,,,,,,,,,,,,,,,,,,,,,,,,,,,
,,,,,,610ae3ea1341878837b4e646,62c53a13b7009b49e4ba96d6,2022-07-06_10h30.52.216,Colour_Asymmetry_Pilot,2022.1.3,Win32,60.0132029,62c50e9c1127f2cd403a315f,0,62,62,110,1,fourtwo,,,,,,,,,,,,,,,,,,,,,,,,,,,,,,,,,,,,,,,,,,,,,,,,,,,,,,,,,,,,,,,,,,,,,,,,,,,,,,,,,,,,,,,,,,,,,,,,,,,,,,,,,,,,,,,,,,,,,,,,,,,,,,,,,,,,,,,,,,,,,,,,,,,,,,,,,,,,,
,,,,,,610ae3ea1341878837b4e646,62c53a13b7009b49e4ba96d6,2022-07-06_10h30.52.216,Colour_Asymmetry_Pilot,2022.1.3,Win32,60.0132029,62c50e9c1127f2cd403a315f,0,63,63,46,1,fourtwo,,,,,,,,,,,,,,,,,,,,,,,,,,,,,,,,,,,,,,,,,,,,,,,,,,,,,,,,,,,,,,,,,,,,,,,,,,,,,,,,,,,,,,,,,,,,,,,,,,,,,,,,,,,,,,,,,,,,,,,,,,,,,,,,,,,,,,,,,,,,,,,,,,,,,,,,,,,,,
,,,,,,610ae3ea1341878837b4e646,62c53a13b7009b49e4ba96d6,2022-07-06_10h30.52.216,Colour_Asymmetry_Pilot,2022.1.3,Win32,60.0132029,62c50e9c1127f2cd403a315f,0,64,64,85,1,threefour,,,,,,,,,,,,,,,,,,,,,,,,,,,,,,,,,,,,,,,,,,,,,,,,,,,,,,,,,,,,,,,,,,,,,,,,,,,,,,,,,,,,,,,,,,,,,,,,,,,,,,,,,,,,,,,,,,,,,,,,,,,,,,,,,,,,,,,,,,,,,,,,,,,,,,,,,,,,,
,,,,,,610ae3ea1341878837b4e646,62c53a13b7009b49e4ba96d6,2022-07-06_10h30.52.216,Colour_Asymmetry_Pilot,2022.1.3,Win32,60.0132029,62c50e9c1127f2cd403a315f,0,65,65,15,1,fourthree,,,,,,,,,,,,,,,,,,,,,,,,,,,,,,,,,,,,,,,,,,,,,,,,,,,,,,,,,,,,,,,,,,,,,,,,,,,,,,,,,,,,,,,,,,,,,,,,,,,,,,,,,,,,,,,,,,,,,,,,,,,,,,,,,,,,,,,,,,,,,,,,,,,,,,,,,,,,,
,,,,,,610ae3ea1341878837b4e646,62c53a13b7009b49e4ba96d6,2022-07-06_10h30.52.216,Colour_Asymmetry_Pilot,2022.1.3,Win32,60.0132029,62c50e9c1127f2cd403a315f,0,66,66,99,1,twofour,,,,,,,,,,,,,,,,,,,,,,,,,,,,,,,,,,,,,,,,,,,,,,,,,,,,,,,,,,,,,,,,,,,,,,,,,,,,,,,,,,,,,,,,,,,,,,,,,,,,,,,,,,,,,,,,,,,,,,,,,,,,,,,,,,,,,,,,,,,,,,,,,,,,,,,,,,,,,
,,,,,,610ae3ea1341878837b4e646,62c53a13b7009b49e4ba96d6,2022-07-06_10h30.52.216,Colour_Asymmetry_Pilot,2022.1.3,Win32,60.0132029,62c50e9c1127f2cd403a315f,0,67,67,92,1,threeone,,,,,,,,,,,,,,,,,,,,,,,,,,,,,,,,,,,,,,,,,,,,,,,,,,,,,,,,,,,,,,,,,,,,,,,,,,,,,,,,,,,,,,,,,,,,,,,,,,,,,,,,,,,,,,,,,,,,,,,,,,,,,,,,,,,,,,,,,,,,,,,,,,,,,,,,,,,,,
,,,,,,610ae3ea1341878837b4e646,62c53a13b7009b49e4ba96d6,2022-07-06_10h30.52.216,Colour_Asymmetry_Pilot,2022.1.3,Win32,60.0132029,62c50e9c1127f2cd403a315f,0,68,68,140,1,threeone,,,,,,,,,,,,,,,,,,,,,,,,,,,,,,,,,,,,,,,,,,,,,,,,,,,,,,,,,,,,,,,,,,,,,,,,,,,,,,,,,,,,,,,,,,,,,,,,,,,,,,,,,,,,,,,,,,,,,,,,,,,,,,,,,,,,,,,,,,,,,,,,,,,,,,,,,,,,,
,,,,,,610ae3ea1341878837b4e646,62c53a13b7009b49e4ba96d6,2022-07-06_10h30.52.216,Colour_Asymmetry_Pilot,2022.1.3,Win32,60.0132029,62c50e9c1127f2cd403a315f,0,69,69,156,1,threeone,,,,,,,,,,,,,,,,,,,,,,,,,,,,,,,,,,,,,,,,,,,,,,,,,,,,,,,,,,,,,,,,,,,,,,,,,,,,,,,,,,,,,,,,,,,,,,,,,,,,,,,,,,,,,,,,,,,,,,,,,,,,,,,,,,,,,,,,,,,,,,,,,,,,,,,,,,,,,
,,,,,,610ae3ea1341878837b4e646,62c53a13b7009b49e4ba96d6,2022-07-06_10h30.52.216,Colour_Asymmetry_Pilot,2022.1.3,Win32,60.0132029,62c50e9c1127f2cd403a315f,0,70,70,35,1,twofour,,,,,,,,,,,,,,,,,,,,,,,,,,,,,,,,,,,,,,,,,,,,,,,,,,,,,,,,,,,,,,,,,,,,,,,,,,,,,,,,,,,,,,,,,,,,,,,,,,,,,,,,,,,,,,,,,,,,,,,,,,,,,,,,,,,,,,,,,,,,,,,,,,,,,,,,,,,,,
,,,,,,610ae3ea1341878837b4e646,62c53a13b7009b49e4ba96d6,2022-07-06_10h30.52.216,Colour_Asymmetry_Pilot,2022.1.3,Win32,60.0132029,62c50e9c1127f2cd403a315f,0,71,71,113,1,onethree,,,,,,,,,,,,,,,,,,,,,,,,,,,,,,,,,,,,,,,,,,,,,,,,,,,,,,,,,,,,,,,,,,,,,,,,,,,,,,,,,,,,,,,,,,,,,,,,,,,,,,,,,,,,,,,,,,,,,,,,,,,,,,,,,,,,,,,,,,,,,,,,,,,,,,,,,,,,,
,,,,,,610ae3ea1341878837b4e646,62c53a13b7009b49e4ba96d6,2022-07-06_10h30.52.216,Colour_Asymmetry_Pilot,2022.1.3,Win32,60.0132029,62c50e9c1127f2cd403a315f,0,72,72,83,1,twofour,,,,,,,,,,,,,,,,,,,,,,,,,,,,,,,,,,,,,,,,,,,,,,,,,,,,,,,,,,,,,,,,,,,,,,,,,,,,,,,,,,,,,,,,,,,,,,,,,,,,,,,,,,,,,,,,,,,,,,,,,,,,,,,,,,,,,,,,,,,,,,,,,,,,,,,,,,,,,
,,,,,,610ae3ea1341878837b4e646,62c53a13b7009b49e4ba96d6,2022-07-06_10h30.52.216,Colour_Asymmetry_Pilot,2022.1.3,Win32,60.0132029,62c50e9c1127f2cd403a315f,0,73,73,25,1,onethree,,,,,,,,,,,,,,,,,,,,,,,,,,,,,,,,,,,,,,,,,,,,,,,,,,,,,,,,,,,,,,,,,,,,,,,,,,,,,,,,,,,,,,,,,,,,,,,,,,,,,,,,,,,,,,,,,,,,,,,,,,,,,,,,,,,,,,,,,,,,,,,,,,,,,,,,,,,,,
,,,,,,610ae3ea1341878837b4e646,62c53a13b7009b49e4ba96d6,2022-07-06_10h30.52.216,Colour_Asymmetry_Pilot,2022.1.3,Win32,60.0132029,62c50e9c1127f2cd403a315f,0,74,74,38,1,fourtwo,,,,,,,,,,,,,,,,,,,,,,,,,,,,,,,,,,,,,,,,,,,,,,,,,,,,,,,,,,,,,,,,,,,,,,,,,,,,,,,,,,,,,,,,,,,,,,,,,,,,,,,,,,,,,,,,,,,,,,,,,,,,,,,,,,,,,,,,,,,,,,,,,,,,,,,,,,,,,
,,,,,,610ae3ea1341878837b4e646,62c53a13b7009b49e4ba96d6,2022-07-06_10h30.52.216,Colour_Asymmetry_Pilot,2022.1.3,Win32,60.0132029,62c50e9c1127f2cd403a315f,0,75,75,48,1,onetwo,,,,,,,,,,,,,,,,,,,,,,,,,,,,,,,,,,,,,,,,,,,,,,,,,,,,,,,,,,,,,,,,,,,,,,,,,,,,,,,,,,,,,,,,,,,,,,,,,,,,,,,,,,,,,,,,,,,,,,,,,,,,,,,,,,,,,,,,,,,,,,,,,,,,,,,,,,,,,
,,,,,,610ae3ea1341878837b4e646,62c53a13b7009b49e4ba96d6,2022-07-06_10h30.52.216,Colour_Asymmetry_Pilot,2022.1.3,Win32,60.0132029,62c50e9c1127f2cd403a315f,0,76,76,141,1,threefour,,,,,,,,,,,,,,,,,,,,,,,,,,,,,,,,,,,,,,,,,,,,,,,,,,,,,,,,,,,,,,,,,,,,,,,,,,,,,,,,,,,,,,,,,,,,,,,,,,,,,,,,,,,,,,,,,,,,,,,,,,,,,,,,,,,,,,,,,,,,,,,,,,,,,,,,,,,,,
,,,,,,610ae3ea1341878837b4e646,62c53a13b7009b49e4ba96d6,2022-07-06_10h30.52.216,Colour_Asymmetry_Pilot,2022.1.3,Win32,60.0132029,62c50e9c1127f2cd403a315f,0,77,77,149,1,threefour,,,,,,,,,,,,,,,,,,,,,,,,,,,,,,,,,,,,,,,,,,,,,,,,,,,,,,,,,,,,,,,,,,,,,,,,,,,,,,,,,,,,,,,,,,,,,,,,,,,,,,,,,,,,,,,,,,,,,,,,,,,,,,,,,,,,,,,,,,,,,,,,,,,,,,,,,,,,,
,,,,,,610ae3ea1341878837b4e646,62c53a13b7009b49e4ba96d6,2022-07-06_10h30.52.216,Colour_Asymmetry_Pilot,2022.1.3,Win32,60.0132029,62c50e9c1127f2cd403a315f,0,78,78,87,1,fourthree,,,,,,,,,,,,,,,,,,,,,,,,,,,,,,,,,,,,,,,,,,,,,,,,,,,,,,,,,,,,,,,,,,,,,,,,,,,,,,,,,,,,,,,,,,,,,,,,,,,,,,,,,,,,,,,,,,,,,,,,,,,,,,,,,,,,,,,,,,,,,,,,,,,,,,,,,,,,,
,,,,,,610ae3ea1341878837b4e646,62c53a13b7009b49e4ba96d6,2022-07-06_10h30.52.216,Colour_Asymmetry_Pilot,2022.1.3,Win32,60.0132029,62c50e9c1127f2cd403a315f,0,79,79,9,1,onethree,,,,,,,,,,,,,,,,,,,,,,,,,,,,,,,,,,,,,,,,,,,,,,,,,,,,,,,,,,,,,,,,,,,,,,,,,,,,,,,,,,,,,,,,,,,,,,,,,,,,,,,,,,,,,,,,,,,,,,,,,,,,,,,,,,,,,,,,,,,,,,,,,,,,,,,,,,,,,
,,,,,,610ae3ea1341878837b4e646,62c53a13b7009b49e4ba96d6,2022-07-06_10h30.52.216,Colour_Asymmetry_Pilot,2022.1.3,Win32,60.0132029,62c50e9c1127f2cd403a315f,0,80,80,109,1,threefour,,,,,,,,,,,,,,,,,,,,,,,,,,,,,,,,,,,,,,,,,,,,,,,,,,,,,,,,,,,,,,,,,,,,,,,,,,,,,,,,,,,,,,,,,,,,,,,,,,,,,,,,,,,,,,,,,,,,,,,,,,,,,,,,,,,,,,,,,,,,,,,,,,,,,,,,,,,,,
,,,,,,610ae3ea1341878837b4e646,62c53a13b7009b49e4ba96d6,2022-07-06_10h30.52.216,Colour_Asymmetry_Pilot,2022.1.3,Win32,60.0132029,62c50e9c1127f2cd403a315f,0,81,81,70,1,fourtwo,,,,,,,,,,,,,,,,,,,,,,,,,,,,,,,,,,,,,,,,,,,,,,,,,,,,,,,,,,,,,,,,,,,,,,,,,,,,,,,,,,,,,,,,,,,,,,,,,,,,,,,,,,,,,,,,,,,,,,,,,,,,,,,,,,,,,,,,,,,,,,,,,,,,,,,,,,,,,
,,,,,,610ae3ea1341878837b4e646,62c53a13b7009b49e4ba96d6,2022-07-06_10h30.52.216,Colour_Asymmetry_Pilot,2022.1.3,Win32,60.0132029,62c50e9c1127f2cd403a315f,0,82,82,112,1,onetwo,,,,,,,,,,,,,,,,,,,,,,,,,,,,,,,,,,,,,,,,,,,,,,,,,,,,,,,,,,,,,,,,,,,,,,,,,,,,,,,,,,,,,,,,,,,,,,,,,,,,,,,,,,,,,,,,,,,,,,,,,,,,,,,,,,,,,,,,,,,,,,,,,,,,,,,,,,,,,
,,,,,,610ae3ea1341878837b4e646,62c53a13b7009b49e4ba96d6,2022-07-06_10h30.52.216,Colour_Asymmetry_Pilot,2022.1.3,Win32,60.0132029,62c50e9c1127f2cd403a315f,0,83,83,68,1,threeone,,,,,,,,,,,,,,,,,,,,,,,,,,,,,,,,,,,,,,,,,,,,,,,,,,,,,,,,,,,,,,,,,,,,,,,,,,,,,,,,,,,,,,,,,,,,,,,,,,,,,,,,,,,,,,,,,,,,,,,,,,,,,,,,,,,,,,,,,,,,,,,,,,,,,,,,,,,,,
,,,,,,610ae3ea1341878837b4e646,62c53a13b7009b49e4ba96d6,2022-07-06_10h30.52.216,Colour_Asymmetry_Pilot,2022.1.3,Win32,60.0132029,62c50e9c1127f2cd403a315f,0,84,84,24,1,onetwo,,,,,,,,,,,,,,,,,,,,,,,,,,,,,,,,,,,,,,,,,,,,,,,,,,,,,,,,,,,,,,,,,,,,,,,,,,,,,,,,,,,,,,,,,,,,,,,,,,,,,,,,,,,,,,,,,,,,,,,,,,,,,,,,,,,,,,,,,,,,,,,,,,,,,,,,,,,,,
,,,,,,610ae3ea1341878837b4e646,62c53a13b7009b49e4ba96d6,2022-07-06_10h30.52.216,Colour_Asymmetry_Pilot,2022.1.3,Win32,60.0132029,62c50e9c1127f2cd403a315f,0,85,85,71,1,fourthree,,,,,,,,,,,,,,,,,,,,,,,,,,,,,,,,,,,,,,,,,,,,,,,,,,,,,,,,,,,,,,,,,,,,,,,,,,,,,,,,,,,,,,,,,,,,,,,,,,,,,,,,,,,,,,,,,,,,,,,,,,,,,,,,,,,,,,,,,,,,,,,,,,,,,,,,,,,,,
,,,,,,610ae3ea1341878837b4e646,62c53a13b7009b49e4ba96d6,2022-07-06_10h30.52.216,Colour_Asymmetry_Pilot,2022.1.3,Win32,60.0132029,62c50e9c1127f2cd403a315f,0,86,86,126,1,fourtwo,,,,,,,,,,,,,,,,,,,,,,,,,,,,,,,,,,,,,,,,,,,,,,,,,,,,,,,,,,,,,,,,,,,,,,,,,,,,,,,,,,,,,,,,,,,,,,,,,,,,,,,,,,,,,,,,,,,,,,,,,,,,,,,,,,,,,,,,,,,,,,,,,,,,,,,,,,,,,
,,,,,,610ae3ea1341878837b4e646,62c53a13b7009b49e4ba96d6,2022-07-06_10h30.52.216,Colour_Asymmetry_Pilot,2022.1.3,Win32,60.0132029,62c50e9c1127f2cd403a315f,0,87,87,159,1,fourthree,,,,,,,,,,,,,,,,,,,,,,,,,,,,,,,,,,,,,,,,,,,,,,,,,,,,,,,,,,,,,,,,,,,,,,,,,,,,,,,,,,,,,,,,,,,,,,,,,,,,,,,,,,,,,,,,,,,,,,,,,,,,,,,,,,,,,,,,,,,,,,,,,,,,,,,,,,,,,
,,,,,,610ae3ea1341878837b4e646,62c53a13b7009b49e4ba96d6,2022-07-06_10h30.52.216,Colour_Asymmetry_Pilot,2022.1.3,Win32,60.0132029,62c50e9c1127f2cd403a315f,0,88,88,157,1,threefour,,,,,,,,,,,,,,,,,,,,,,,,,,,,,,,,,,,,,,,,,,,,,,,,,,,,,,,,,,,,,,,,,,,,,,,,,,,,,,,,,,,,,,,,,,,,,,,,,,,,,,,,,,,,,,,,,,,,,,,,,,,,,,,,,,,,,,,,,,,,,,,,,,,,,,,,,,,,,
,,,,,,610ae3ea1341878837b4e646,62c53a13b7009b49e4ba96d6,2022-07-06_10h30.52.216,Colour_Asymmetry_Pilot,2022.1.3,Win32,60.0132029,62c50e9c1127f2cd403a315f,0,89,89,23,1,fourthree,,,,,,,,,,,,,,,,,,,,,,,,,,,,,,,,,,,,,,,,,,,,,,,,,,,,,,,,,,,,,,,,,,,,,,,,,,,,,,,,,,,,,,,,,,,,,,,,,,,,,,,,,,,,,,,,,,,,,,,,,,,,,,,,,,,,,,,,,,,,,,,,,,,,,,,,,,,,,
,,,,,,610ae3ea1341878837b4e646,62c53a13b7009b49e4ba96d6,2022-07-06_10h30.52.216,Colour_Asymmetry_Pilot,2022.1.3,Win32,60.0132029,62c50e9c1127f2cd403a315f,0,90,90,32,1,onetwo,,,,,,,,,,,,,,,,,,,,,,,,,,,,,,,,,,,,,,,,,,,,,,,,,,,,,,,,,,,,,,,,,,,,,,,,,,,,,,,,,,,,,,,,,,,,,,,,,,,,,,,,,,,,,,,,,,,,,,,,,,,,,,,,,,,,,,,,,,,,,,,,,,,,,,,,,,,,,
,,,,,,610ae3ea1341878837b4e646,62c53a13b7009b49e4ba96d6,2022-07-06_10h30.52.216,Colour_Asymmetry_Pilot,2022.1.3,Win32,60.0132029,62c50e9c1127f2cd403a315f,0,91,91,91,1,twofour,,,,,,,,,,,,,,,,,,,,,,,,,,,,,,,,,,,,,,,,,,,,,,,,,,,,,,,,,,,,,,,,,,,,,,,,,,,,,,,,,,,,,,,,,,,,,,,,,,,,,,,,,,,,,,,,,,,,,,,,,,,,,,,,,,,,,,,,,,,,,,,,,,,,,,,,,,,,,
,,,,,,610ae3ea1341878837b4e646,62c53a13b7009b49e4ba96d6,2022-07-06_10h30.52.216,Colour_Asymmetry_Pilot,2022.1.3,Win32,60.0132029,62c50e9c1127f2cd403a315f,0,92,92,128,1,onetwo,,,,,,,,,,,,,,,,,,,,,,,,,,,,,,,,,,,,,,,,,,,,,,,,,,,,,,,,,,,,,,,,,,,,,,,,,,,,,,,,,,,,,,,,,,,,,,,,,,,,,,,,,,,,,,,,,,,,,,,,,,,,,,,,,,,,,,,,,,,,,,,,,,,,,,,,,,,,,
,,,,,,610ae3ea1341878837b4e646,62c53a13b7009b49e4ba96d6,2022-07-06_10h30.52.216,Colour_Asymmetry_Pilot,2022.1.3,Win32,60.0132029,62c50e9c1127f2cd403a315f,0,93,93,131,1,twofour,,,,,,,,,,,,,,,,,,,,,,,,,,,,,,,,,,,,,,,,,,,,,,,,,,,,,,,,,,,,,,,,,,,,,,,,,,,,,,,,,,,,,,,,,,,,,,,,,,,,,,,,,,,,,,,,,,,,,,,,,,,,,,,,,,,,,,,,,,,,,,,,,,,,,,,,,,,,,
,,,,,,610ae3ea1341878837b4e646,62c53a13b7009b49e4ba96d6,2022-07-06_10h30.52.216,Colour_Asymmetry_Pilot,2022.1.3,Win32,60.0132029,62c50e9c1127f2cd403a315f,0,94,94,154,1,twoone,,,,,,,,,,,,,,,,,,,,,,,,,,,,,,,,,,,,,,,,,,,,,,,,,,,,,,,,,,,,,,,,,,,,,,,,,,,,,,,,,,,,,,,,,,,,,,,,,,,,,,,,,,,,,,,,,,,,,,,,,,,,,,,,,,,,,,,,,,,,,,,,,,,,,,,,,,,,,
,,,,,,610ae3ea1341878837b4e646,62c53a13b7009b49e4ba96d6,2022-07-06_10h30.52.216,Colour_Asymmetry_Pilot,2022.1.3,Win32,60.0132029,62c50e9c1127f2cd403a315f,0,95,95,121,1,onethree,,,,,,,,,,,,,,,,,,,,,,,,,,,,,,,,,,,,,,,,,,,,,,,,,,,,,,,,,,,,,,,,,,,,,,,,,,,,,,,,,,,,,,,,,,,,,,,,,,,,,,,,,,,,,,,,,,,,,,,,,,,,,,,,,,,,,,,,,,,,,,,,,,,,,,,,,,,,,
,,,,,,610ae3ea1341878837b4e646,62c53a13b7009b49e4ba96d6,2022-07-06_10h30.52.216,Colour_Asymmetry_Pilot,2022.1.3,Win32,60.0132029,62c50e9c1127f2cd403a315f,0,96,96,122,1,twoone,,,,,,,,,,,,,,,,,,,,,,,,,,,,,,,,,,,,,,,,,,,,,,,,,,,,,,,,,,,,,,,,,,,,,,,,,,,,,,,,,,,,,,,,,,,,,,,,,,,,,,,,,,,,,,,,,,,,,,,,,,,,,,,,,,,,,,,,,,,,,,,,,,,,,,,,,,,,,
,,,,,,610ae3ea1341878837b4e646,62c53a13b7009b49e4ba96d6,2022-07-06_10h30.52.216,Colour_Asymmetry_Pilot,2022.1.3,Win32,60.0132029,62c50e9c1127f2cd403a315f,0,97,97,160,1,onetwo,,,,,,,,,,,,,,,,,,,,,,,,,,,,,,,,,,,,,,,,,,,,,,,,,,,,,,,,,,,,,,,,,,,,,,,,,,,,,,,,,,,,,,,,,,,,,,,,,,,,,,,,,,,,,,,,,,,,,,,,,,,,,,,,,,,,,,,,,,,,,,,,,,,,,,,,,,,,,
,,,,,,610ae3ea1341878837b4e646,62c53a13b7009b49e4ba96d6,2022-07-06_10h30.52.216,Colour_Asymmetry_Pilot,2022.1.3,Win32,60.0132029,62c50e9c1127f2cd403a315f,0,98,98,49,1,onethree,,,,,,,,,,,,,,,,,,,,,,,,,,,,,,,,,,,,,,,,,,,,,,,,,,,,,,,,,,,,,,,,,,,,,,,,,,,,,,,,,,,,,,,,,,,,,,,,,,,,,,,,,,,,,,,,,,,,,,,,,,,,,,,,,,,,,,,,,,,,,,,,,,,,,,,,,,,,,
,,,,,,610ae3ea1341878837b4e646,62c53a13b7009b49e4ba96d6,2022-07-06_10h30.52.216,Colour_Asymmetry_Pilot,2022.1.3,Win32,60.0132029,62c50e9c1127f2cd403a315f,0,99,99,21,1,threefour,,,,,,,,,,,,,,,,,,,,,,,,,,,,,,,,,,,,,,,,,,,,,,,,,,,,,,,,,,,,,,,,,,,,,,,,,,,,,,,,,,,,,,,,,,,,,,,,,,,,,,,,,,,,,,,,,,,,,,,,,,,,,,,,,,,,,,,,,,,,,,,,,,,,,,,,,,,,,
,,,,,,610ae3ea1341878837b4e646,62c53a13b7009b49e4ba96d6,2022-07-06_10h30.52.216,Colour_Asymmetry_Pilot,2022.1.3,Win32,60.0132029,62c50e9c1127f2cd403a315f,0,100,100,130,1,twoone,,,,,,,,,,,,,,,,,,,,,,,,,,,,,,,,,,,,,,,,,,,,,,,,,,,,,,,,,,,,,,,,,,,,,,,,,,,,,,,,,,,,,,,,,,,,,,,,,,,,,,,,,,,,,,,,,,,,,,,,,,,,,,,,,,,,,,,,,,,,,,,,,,,,,,,,,,,,,
,,,,,,610ae3ea1341878837b4e646,62c53a13b7009b49e4ba96d6,2022-07-06_10h30.52.216,Colour_Asymmetry_Pilot,2022.1.3,Win32,60.0132029,62c50e9c1127f2cd403a315f,0,101,101,81,1,onethree,,,,,,,,,,,,,,,,,,,,,,,,,,,,,,,,,,,,,,,,,,,,,,,,,,,,,,,,,,,,,,,,,,,,,,,,,,,,,,,,,,,,,,,,,,,,,,,,,,,,,,,,,,,,,,,,,,,,,,,,,,,,,,,,,,,,,,,,,,,,,,,,,,,,,,,,,,,,,
,,,,,,610ae3ea1341878837b4e646,62c53a13b7009b49e4ba96d6,2022-07-06_10h30.52.216,Colour_Asymmetry_Pilot,2022.1.3,Win32,60.0132029,62c50e9c1127f2cd403a315f,0,102,102,86,1,fourtwo,,,,,,,,,,,,,,,,,,,,,,,,,,,,,,,,,,,,,,,,,,,,,,,,,,,,,,,,,,,,,,,,,,,,,,,,,,,,,,,,,,,,,,,,,,,,,,,,,,,,,,,,,,,,,,,,,,,,,,,,,,,,,,,,,,,,,,,,,,,,,,,,,,,,,,,,,,,,,
,,,,,,610ae3ea1341878837b4e646,62c53a13b7009b49e4ba96d6,2022-07-06_10h30.52.216,Colour_Asymmetry_Pilot,2022.1.3,Win32,60.0132029,62c50e9c1127f2cd403a315f,0,103,103,104,1,onetwo,,,,,,,,,,,,,,,,,,,,,,,,,,,,,,,,,,,,,,,,,,,,,,,,,,,,,,,,,,,,,,,,,,,,,,,,,,,,,,,,,,,,,,,,,,,,,,,,,,,,,,,,,,,,,,,,,,,,,,,,,,,,,,,,,,,,,,,,,,,,,,,,,,,,,,,,,,,,,
,,,,,,610ae3ea1341878837b4e646,62c53a13b7009b49e4ba96d6,2022-07-06_10h30.52.216,Colour_Asymmetry_Pilot,2022.1.3,Win32,60.0132029,62c50e9c1127f2cd403a315f,0,104,104,137,1,onethree,,,,,,,,,,,,,,,,,,,,,,,,,,,,,,,,,,,,,,,,,,,,,,,,,,,,,,,,,,,,,,,,,,,,,,,,,,,,,,,,,,,,,,,,,,,,,,,,,,,,,,,,,,,,,,,,,,,,,,,,,,,,,,,,,,,,,,,,,,,,,,,,,,,,,,,,,,,,,
,,,,,,610ae3ea1341878837b4e646,62c53a13b7009b49e4ba96d6,2022-07-06_10h30.52.216,Colour_Asymmetry_Pilot,2022.1.3,Win32,60.0132029,62c50e9c1127f2cd403a315f,0,105,105,147,1,twofour,,,,,,,,,,,,,,,,,,,,,,,,,,,,,,,,,,,,,,,,,,,,,,,,,,,,,,,,,,,,,,,,,,,,,,,,,,,,,,,,,,,,,,,,,,,,,,,,,,,,,,,,,,,,,,,,,,,,,,,,,,,,,,,,,,,,,,,,,,,,,,,,,,,,,,,,,,,,,
,,,,,,610ae3ea1341878837b4e646,62c53a13b7009b49e4ba96d6,2022-07-06_10h30.52.216,Colour_Asymmetry_Pilot,2022.1.3,Win32,60.0132029,62c50e9c1127f2cd403a315f,0,106,106,17,1,onethree,,,,,,,,,,,,,,,,,,,,,,,,,,,,,,,,,,,,,,,,,,,,,,,,,,,,,,,,,,,,,,,,,,,,,,,,,,,,,,,,,,,,,,,,,,,,,,,,,,,,,,,,,,,,,,,,,,,,,,,,,,,,,,,,,,,,,,,,,,,,,,,,,,,,,,,,,,,,,
,,,,,,610ae3ea1341878837b4e646,62c53a13b7009b49e4ba96d6,2022-07-06_10h30.52.216,Colour_Asymmetry_Pilot,2022.1.3,Win32,60.0132029,62c50e9c1127f2cd403a315f,0,107,107,29,1,threefour,,,,,,,,,,,,,,,,,,,,,,,,,,,,,,,,,,,,,,,,,,,,,,,,,,,,,,,,,,,,,,,,,,,,,,,,,,,,,,,,,,,,,,,,,,,,,,,,,,,,,,,,,,,,,,,,,,,,,,,,,,,,,,,,,,,,,,,,,,,,,,,,,,,,,,,,,,,,,
,,,,,,610ae3ea1341878837b4e646,62c53a13b7009b49e4ba96d6,2022-07-06_10h30.52.216,Colour_Asymmetry_Pilot,2022.1.3,Win32,60.0132029,62c50e9c1127f2cd403a315f,0,108,108,10,1,twoone,,,,,,,,,,,,,,,,,,,,,,,,,,,,,,,,,,,,,,,,,,,,,,,,,,,,,,,,,,,,,,,,,,,,,,,,,,,,,,,,,,,,,,,,,,,,,,,,,,,,,,,,,,,,,,,,,,,,,,,,,,,,,,,,,,,,,,,,,,,,,,,,,,,,,,,,,,,,,
,,,,,,610ae3ea1341878837b4e646,62c53a13b7009b49e4ba96d6,2022-07-06_10h30.52.216,Colour_Asymmetry_Pilot,2022.1.3,Win32,60.0132029,62c50e9c1127f2cd403a315f,0,109,109,124,1,threeone,,,,,,,,,,,,,,,,,,,,,,,,,,,,,,,,,,,,,,,,,,,,,,,,,,,,,,,,,,,,,,,,,,,,,,,,,,,,,,,,,,,,,,,,,,,,,,,,,,,,,,,,,,,,,,,,,,,,,,,,,,,,,,,,,,,,,,,,,,,,,,,,,,,,,,,,,,,,,
,,,,,,610ae3ea1341878837b4e646,62c53a13b7009b49e4ba96d6,2022-07-06_10h30.52.216,Colour_Asymmetry_Pilot,2022.1.3,Win32,60.0132029,62c50e9c1127f2cd403a315f,0,110,110,106,1,twoone,,,,,,,,,,,,,,,,,,,,,,,,,,,,,,,,,,,,,,,,,,,,,,,,,,,,,,,,,,,,,,,,,,,,,,,,,,,,,,,,,,,,,,,,,,,,,,,,,,,,,,,,,,,,,,,,,,,,,,,,,,,,,,,,,,,,,,,,,,,,,,,,,,,,,,,,,,,,,
,,,,,,610ae3ea1341878837b4e646,62c53a13b7009b49e4ba96d6,2022-07-06_10h30.52.216,Colour_Asymmetry_Pilot,2022.1.3,Win32,60.0132029,62c50e9c1127f2cd403a315f,0,111,111,152,1,onetwo,,,,,,,,,,,,,,,,,,,,,,,,,,,,,,,,,,,,,,,,,,,,,,,,,,,,,,,,,,,,,,,,,,,,,,,,,,,,,,,,,,,,,,,,,,,,,,,,,,,,,,,,,,,,,,,,,,,,,,,,,,,,,,,,,,,,,,,,,,,,,,,,,,,,,,,,,,,,,
,,,,,,610ae3ea1341878837b4e646,62c53a13b7009b49e4ba96d6,2022-07-06_10h30.52.216,Colour_Asymmetry_Pilot,2022.1.3,Win32,60.0132029,62c50e9c1127f2cd403a315f,0,112,112,52,1,threeone,,,,,,,,,,,,,,,,,,,,,,,,,,,,,,,,,,,,,,,,,,,,,,,,,,,,,,,,,,,,,,,,,,,,,,,,,,,,,,,,,,,,,,,,,,,,,,,,,,,,,,,,,,,,,,,,,,,,,,,,,,,,,,,,,,,,,,,,,,,,,,,,,,,,,,,,,,,,,
,,,,,,610ae3ea1341878837b4e646,62c53a13b7009b49e4ba96d6,2022-07-06_10h30.52.216,Colour_Asymmetry_Pilot,2022.1.3,Win32,60.0132029,62c50e9c1127f2cd403a315f,0,113,113,105,1,onethree,,,,,,,,,,,,,,,,,,,,,,,,,,,,,,,,,,,,,,,,,,,,,,,,,,,,,,,,,,,,,,,,,,,,,,,,,,,,,,,,,,,,,,,,,,,,,,,,,,,,,,,,,,,,,,,,,,,,,,,,,,,,,,,,,,,,,,,,,,,,,,,,,,,,,,,,,,,,,
,,,,,,610ae3ea1341878837b4e646,62c53a13b7009b49e4ba96d6,2022-07-06_10h30.52.216,Colour_Asymmetry_Pilot,2022.1.3,Win32,60.0132029,62c50e9c1127f2cd403a315f,0,114,114,80,1,onetwo,,,,,,,,,,,,,,,,,,,,,,,,,,,,,,,,,,,,,,,,,,,,,,,,,,,,,,,,,,,,,,,,,,,,,,,,,,,,,,,,,,,,,,,,,,,,,,,,,,,,,,,,,,,,,,,,,,,,,,,,,,,,,,,,,,,,,,,,,,,,,,,,,,,,,,,,,,,,,
,,,,,,610ae3ea1341878837b4e646,62c53a13b7009b49e4ba96d6,2022-07-06_10h30.52.216,Colour_Asymmetry_Pilot,2022.1.3,Win32,60.0132029,62c50e9c1127f2cd403a315f,0,115,115,0,1,onetwo,,,,,,,,,,,,,,,,,,,,,,,,,,,,,,,,,,,,,,,,,,,,,,,,,,,,,,,,,,,,,,,,,,,,,,,,,,,,,,,,,,,,,,,,,,,,,,,,,,,,,,,,,,,,,,,,,,,,,,,,,,,,,,,,,,,,,,,,,,,,,,,,,,,,,,,,,,,,,
,,,,,,610ae3ea1341878837b4e646,62c53a13b7009b49e4ba96d6,2022-07-06_10h30.52.216,Colour_Asymmetry_Pilot,2022.1.3,Win32,60.0132029,62c50e9c1127f2cd403a315f,0,116,116,55,1,fourthree,,,,,,,,,,,,,,,,,,,,,,,,,,,,,,,,,,,,,,,,,,,,,,,,,,,,,,,,,,,,,,,,,,,,,,,,,,,,,,,,,,,,,,,,,,,,,,,,,,,,,,,,,,,,,,,,,,,,,,,,,,,,,,,,,,,,,,,,,,,,,,,,,,,,,,,,,,,,,
,,,,,,610ae3ea1341878837b4e646,62c53a13b7009b49e4ba96d6,2022-07-06_10h30.52.216,Colour_Asymmetry_Pilot,2022.1.3,Win32,60.0132029,62c50e9c1127f2cd403a315f,0,117,117,53,1,threefour,,,,,,,,,,,,,,,,,,,,,,,,,,,,,,,,,,,,,,,,,,,,,,,,,,,,,,,,,,,,,,,,,,,,,,,,,,,,,,,,,,,,,,,,,,,,,,,,,,,,,,,,,,,,,,,,,,,,,,,,,,,,,,,,,,,,,,,,,,,,,,,,,,,,,,,,,,,,,
,,,,,,610ae3ea1341878837b4e646,62c53a13b7009b49e4ba96d6,2022-07-06_10h30.52.216,Colour_Asymmetry_Pilot,2022.1.3,Win32,60.0132029,62c50e9c1127f2cd403a315f,0,118,118,2,1,twoone,,,,,,,,,,,,,,,,,,,,,,,,,,,,,,,,,,,,,,,,,,,,,,,,,,,,,,,,,,,,,,,,,,,,,,,,,,,,,,,,,,,,,,,,,,,,,,,,,,,,,,,,,,,,,,,,,,,,,,,,,,,,,,,,,,,,,,,,,,,,,,,,,,,,,,,,,,,,,
,,,,,,610ae3ea1341878837b4e646,62c53a13b7009b49e4ba96d6,2022-07-06_10h30.52.216,Colour_Asymmetry_Pilot,2022.1.3,Win32,60.0132029,62c50e9c1127f2cd403a315f,0,119,119,120,1,onetwo,,,,,,,,,,,,,,,,,,,,,,,,,,,,,,,,,,,,,,,,,,,,,,,,,,,,,,,,,,,,,,,,,,,,,,,,,,,,,,,,,,,,,,,,,,,,,,,,,,,,,,,,,,,,,,,,,,,,,,,,,,,,,,,,,,,,,,,,,,,,,,,,,,,,,,,,,,,,,
,,,,,,610ae3ea1341878837b4e646,62c53a13b7009b49e4ba96d6,2022-07-06_10h30.52.216,Colour_Asymmetry_Pilot,2022.1.3,Win32,60.0132029,62c50e9c1127f2cd403a315f,0,120,120,151,1,fourthree,,,,,,,,,,,,,,,,,,,,,,,,,,,,,,,,,,,,,,,,,,,,,,,,,,,,,,,,,,,,,,,,,,,,,,,,,,,,,,,,,,,,,,,,,,,,,,,,,,,,,,,,,,,,,,,,,,,,,,,,,,,,,,,,,,,,,,,,,,,,,,,,,,,,,,,,,,,,,
,,,,,,610ae3ea1341878837b4e646,62c53a13b7009b49e4ba96d6,2022-07-06_10h30.52.216,Colour_Asymmetry_Pilot,2022.1.3,Win32,60.0132029,62c50e9c1127f2cd403a315f,0,121,121,6,1,fourtwo,,,,,,,,,,,,,,,,,,,,,,,,,,,,,,,,,,,,,,,,,,,,,,,,,,,,,,,,,,,,,,,,,,,,,,,,,,,,,,,,,,,,,,,,,,,,,,,,,,,,,,,,,,,,,,,,,,,,,,,,,,,,,,,,,,,,,,,,,,,,,,,,,,,,,,,,,,,,,
,,,,,,610ae3ea1341878837b4e646,62c53a13b7009b49e4ba96d6,2022-07-06_10h30.52.216,Colour_Asymmetry_Pilot,2022.1.3,Win32,60.0132029,62c50e9c1127f2cd403a315f,0,122,122,144,1,onetwo,,,,,,,,,,,,,,,,,,,,,,,,,,,,,,,,,,,,,,,,,,,,,,,,,,,,,,,,,,,,,,,,,,,,,,,,,,,,,,,,,,,,,,,,,,,,,,,,,,,,,,,,,,,,,,,,,,,,,,,,,,,,,,,,,,,,,,,,,,,,,,,,,,,,,,,,,,,,,
,,,,,,610ae3ea1341878837b4e646,62c53a13b7009b49e4ba96d6,2022-07-06_10h30.52.216,Colour_Asymmetry_Pilot,2022.1.3,Win32,60.0132029,62c50e9c1127f2cd403a315f,0,123,123,12,1,threeone,,,,,,,,,,,,,,,,,,,,,,,,,,,,,,,,,,,,,,,,,,,,,,,,,,,,,,,,,,,,,,,,,,,,,,,,,,,,,,,,,,,,,,,,,,,,,,,,,,,,,,,,,,,,,,,,,,,,,,,,,,,,,,,,,,,,,,,,,,,,,,,,,,,,,,,,,,,,,
,,,,,,610ae3ea1341878837b4e646,62c53a13b7009b49e4ba96d6,2022-07-06_10h30.52.216,Colour_Asymmetry_Pilot,2022.1.3,Win32,60.0132029,62c50e9c1127f2cd403a315f,0,124,124,43,1,twofour,,,,,,,,,,,,,,,,,,,,,,,,,,,,,,,,,,,,,,,,,,,,,,,,,,,,,,,,,,,,,,,,,,,,,,,,,,,,,,,,,,,,,,,,,,,,,,,,,,,,,,,,,,,,,,,,,,,,,,,,,,,,,,,,,,,,,,,,,,,,,,,,,,,,,,,,,,,,,
,,,,,,610ae3ea1341878837b4e646,62c53a13b7009b49e4ba96d6,2022-07-06_10h30.52.216,Colour_Asymmetry_Pilot,2022.1.3,Win32,60.0132029,62c50e9c1127f2cd403a315f,0,125,125,47,1,fourthree,,,,,,,,,,,,,,,,,,,,,,,,,,,,,,,,,,,,,,,,,,,,,,,,,,,,,,,,,,,,,,,,,,,,,,,,,,,,,,,,,,,,,,,,,,,,,,,,,,,,,,,,,,,,,,,,,,,,,,,,,,,,,,,,,,,,,,,,,,,,,,,,,,,,,,,,,,,,,
,,,,,,610ae3ea1341878837b4e646,62c53a13b7009b49e4ba96d6,2022-07-06_10h30.52.216,Colour_Asymmetry_Pilot,2022.1.3,Win32,60.0132029,62c50e9c1127f2cd403a315f,0,126,126,42,1,twoone,,,,,,,,,,,,,,,,,,,,,,,,,,,,,,,,,,,,,,,,,,,,,,,,,,,,,,,,,,,,,,,,,,,,,,,,,,,,,,,,,,,,,,,,,,,,,,,,,,,,,,,,,,,,,,,,,,,,,,,,,,,,,,,,,,,,,,,,,,,,,,,,,,,,,,,,,,,,,
,,,,,,610ae3ea1341878837b4e646,62c53a13b7009b49e4ba96d6,2022-07-06_10h30.52.216,Colour_Asymmetry_Pilot,2022.1.3,Win32,60.0132029,62c50e9c1127f2cd403a315f,0,127,127,57,1,onethree,,,,,,,,,,,,,,,,,,,,,,,,,,,,,,,,,,,,,,,,,,,,,,,,,,,,,,,,,,,,,,,,,,,,,,,,,,,,,,,,,,,,,,,,,,,,,,,,,,,,,,,,,,,,,,,,,,,,,,,,,,,,,,,,,,,,,,,,,,,,,,,,,,,,,,,,,,,,,
,,,,,,610ae3ea1341878837b4e646,62c53a13b7009b49e4ba96d6,2022-07-06_10h30.52.216,Colour_Asymmetry_Pilot,2022.1.3,Win32,60.0132029,62c50e9c1127f2cd403a315f,0,128,128,22,1,fourtwo,,,,,,,,,,,,,,,,,,,,,,,,,,,,,,,,,,,,,,,,,,,,,,,,,,,,,,,,,,,,,,,,,,,,,,,,,,,,,,,,,,,,,,,,,,,,,,,,,,,,,,,,,,,,,,,,,,,,,,,,,,,,,,,,,,,,,,,,,,,,,,,,,,,,,,,,,,,,,
,,,,,,610ae3ea1341878837b4e646,62c53a13b7009b49e4ba96d6,2022-07-06_10h30.52.216,Colour_Asymmetry_Pilot,2022.1.3,Win32,60.0132029,62c50e9c1127f2cd403a315f,0,129,129,100,1,threeone,,,,,,,,,,,,,,,,,,,,,,,,,,,,,,,,,,,,,,,,,,,,,,,,,,,,,,,,,,,,,,,,,,,,,,,,,,,,,,,,,,,,,,,,,,,,,,,,,,,,,,,,,,,,,,,,,,,,,,,,,,,,,,,,,,,,,,,,,,,,,,,,,,,,,,,,,,,,,
,,,,,,610ae3ea1341878837b4e646,62c53a13b7009b49e4ba96d6,2022-07-06_10h30.52.216,Colour_Asymmetry_Pilot,2022.1.3,Win32,60.0132029,62c50e9c1127f2cd403a315f,0,130,130,45,1,threefour,,,,,,,,,,,,,,,,,,,,,,,,,,,,,,,,,,,,,,,,,,,,,,,,,,,,,,,,,,,,,,,,,,,,,,,,,,,,,,,,,,,,,,,,,,,,,,,,,,,,,,,,,,,,,,,,,,,,,,,,,,,,,,,,,,,,,,,,,,,,,,,,,,,,,,,,,,,,,
,,,,,,610ae3ea1341878837b4e646,62c53a13b7009b49e4ba96d6,2022-07-06_10h30.52.216,Colour_Asymmetry_Pilot,2022.1.3,Win32,60.0132029,62c50e9c1127f2cd403a315f,0,131,131,65,1,onethree,,,,,,,,,,,,,,,,,,,,,,,,,,,,,,,,,,,,,,,,,,,,,,,,,,,,,,,,,,,,,,,,,,,,,,,,,,,,,,,,,,,,,,,,,,,,,,,,,,,,,,,,,,,,,,,,,,,,,,,,,,,,,,,,,,,,,,,,,,,,,,,,,,,,,,,,,,,,,
,,,,,,610ae3ea1341878837b4e646,62c53a13b7009b49e4ba96d6,2022-07-06_10h30.52.216,Colour_Asymmetry_Pilot,2022.1.3,Win32,60.0132029,62c50e9c1127f2cd403a315f,0,132,132,150,1,fourtwo,,,,,,,,,,,,,,,,,,,,,,,,,,,,,,,,,,,,,,,,,,,,,,,,,,,,,,,,,,,,,,,,,,,,,,,,,,,,,,,,,,,,,,,,,,,,,,,,,,,,,,,,,,,,,,,,,,,,,,,,,,,,,,,,,,,,,,,,,,,,,,,,,,,,,,,,,,,,,
,,,,,,610ae3ea1341878837b4e646,62c53a13b7009b49e4ba96d6,2022-07-06_10h30.52.216,Colour_Asymmetry_Pilot,2022.1.3,Win32,60.0132029,62c50e9c1127f2cd403a315f,0,133,133,135,1,fourthree,,,,,,,,,,,,,,,,,,,,,,,,,,,,,,,,,,,,,,,,,,,,,,,,,,,,,,,,,,,,,,,,,,,,,,,,,,,,,,,,,,,,,,,,,,,,,,,,,,,,,,,,,,,,,,,,,,,,,,,,,,,,,,,,,,,,,,,,,,,,,,,,,,,,,,,,,,,,,
,,,,,,610ae3ea1341878837b4e646,62c53a13b7009b49e4ba96d6,2022-07-06_10h30.52.216,Colour_Asymmetry_Pilot,2022.1.3,Win32,60.0132029,62c50e9c1127f2cd403a315f,0,134,134,18,1,twoone,,,,,,,,,,,,,,,,,,,,,,,,,,,,,,,,,,,,,,,,,,,,,,,,,,,,,,,,,,,,,,,,,,,,,,,,,,,,,,,,,,,,,,,,,,,,,,,,,,,,,,,,,,,,,,,,,,,,,,,,,,,,,,,,,,,,,,,,,,,,,,,,,,,,,,,,,,,,,
,,,,,,610ae3ea1341878837b4e646,62c53a13b7009b49e4ba96d6,2022-07-06_10h30.52.216,Colour_Asymmetry_Pilot,2022.1.3,Win32,60.0132029,62c50e9c1127f2cd403a315f,0,135,135,31,1,fourthree,,,,,,,,,,,,,,,,,,,,,,,,,,,,,,,,,,,,,,,,,,,,,,,,,,,,,,,,,,,,,,,,,,,,,,,,,,,,,,,,,,,,,,,,,,,,,,,,,,,,,,,,,,,,,,,,,,,,,,,,,,,,,,,,,,,,,,,,,,,,,,,,,,,,,,,,,,,,,
,,,,,,610ae3ea1341878837b4e646,62c53a13b7009b49e4ba96d6,2022-07-06_10h30.52.216,Colour_Asymmetry_Pilot,2022.1.3,Win32,60.0132029,62c50e9c1127f2cd403a315f,0,136,136,93,1,threefour,,,,,,,,,,,,,,,,,,,,,,,,,,,,,,,,,,,,,,,,,,,,,,,,,,,,,,,,,,,,,,,,,,,,,,,,,,,,,,,,,,,,,,,,,,,,,,,,,,,,,,,,,,,,,,,,,,,,,,,,,,,,,,,,,,,,,,,,,,,,,,,,,,,,,,,,,,,,,
,,,,,,610ae3ea1341878837b4e646,62c53a13b7009b49e4ba96d6,2022-07-06_10h30.52.216,Colour_Asymmetry_Pilot,2022.1.3,Win32,60.0132029,62c50e9c1127f2cd403a315f,0,137,137,27,1,twofour,,,,,,,,,,,,,,,,,,,,,,,,,,,,,,,,,,,,,,,,,,,,,,,,,,,,,,,,,,,,,,,,,,,,,,,,,,,,,,,,,,,,,,,,,,,,,,,,,,,,,,,,,,,,,,,,,,,,,,,,,,,,,,,,,,,,,,,,,,,,,,,,,,,,,,,,,,,,,
,,,,,,610ae3ea1341878837b4e646,62c53a13b7009b49e4ba96d6,2022-07-06_10h30.52.216,Colour_Asymmetry_Pilot,2022.1.3,Win32,60.0132029,62c50e9c1127f2cd403a315f,0,138,138,59,1,twofour,,,,,,,,,,,,,,,,,,,,,,,,,,,,,,,,,,,,,,,,,,,,,,,,,,,,,,,,,,,,,,,,,,,,,,,,,,,,,,,,,,,,,,,,,,,,,,,,,,,,,,,,,,,,,,,,,,,,,,,,,,,,,,,,,,,,,,,,,,,,,,,,,,,,,,,,,,,,,
,,,,,,610ae3ea1341878837b4e646,62c53a13b7009b49e4ba96d6,2022-07-06_10h30.52.216,Colour_Asymmetry_Pilot,2022.1.3,Win32,60.0132029,62c50e9c1127f2cd403a315f,0,139,139,116,1,threeone,,,,,,,,,,,,,,,,,,,,,,,,,,,,,,,,,,,,,,,,,,,,,,,,,,,,,,,,,,,,,,,,,,,,,,,,,,,,,,,,,,,,,,,,,,,,,,,,,,,,,,,,,,,,,,,,,,,,,,,,,,,,,,,,,,,,,,,,,,,,,,,,,,,,,,,,,,,,,
,,,,,,610ae3ea1341878837b4e646,62c53a13b7009b49e4ba96d6,2022-07-06_10h30.52.216,Colour_Asymmetry_Pilot,2022.1.3,Win32,60.0132029,62c50e9c1127f2cd403a315f,0,140,140,50,1,twoone,,,,,,,,,,,,,,,,,,,,,,,,,,,,,,,,,,,,,,,,,,,,,,,,,,,,,,,,,,,,,,,,,,,,,,,,,,,,,,,,,,,,,,,,,,,,,,,,,,,,,,,,,,,,,,,,,,,,,,,,,,,,,,,,,,,,,,,,,,,,,,,,,,,,,,,,,,,,,
,,,,,,610ae3ea1341878837b4e646,62c53a13b7009b49e4ba96d6,2022-07-06_10h30.52.216,Colour_Asymmetry_Pilot,2022.1.3,Win32,60.0132029,62c50e9c1127f2cd403a315f,0,141,141,119,1,fourthree,,,,,,,,,,,,,,,,,,,,,,,,,,,,,,,,,,,,,,,,,,,,,,,,,,,,,,,,,,,,,,,,,,,,,,,,,,,,,,,,,,,,,,,,,,,,,,,,,,,,,,,,,,,,,,,,,,,,,,,,,,,,,,,,,,,,,,,,,,,,,,,,,,,,,,,,,,,,,
,,,,,,610ae3ea1341878837b4e646,62c53a13b7009b49e4ba96d6,2022-07-06_10h30.52.216,Colour_Asymmetry_Pilot,2022.1.3,Win32,60.0132029,62c50e9c1127f2cd403a315f,0,142,142,72,1,onetwo,,,,,,,,,,,,,,,,,,,,,,,,,,,,,,,,,,,,,,,,,,,,,,,,,,,,,,,,,,,,,,,,,,,,,,,,,,,,,,,,,,,,,,,,,,,,,,,,,,,,,,,,,,,,,,,,,,,,,,,,,,,,,,,,,,,,,,,,,,,,,,,,,,,,,,,,,,,,,
,,,,,,610ae3ea1341878837b4e646,62c53a13b7009b49e4ba96d6,2022-07-06_10h30.52.216,Colour_Asymmetry_Pilot,2022.1.3,Win32,60.0132029,62c50e9c1127f2cd403a315f,0,143,143,34,1,twoone,,,,,,,,,,,,,,,,,,,,,,,,,,,,,,,,,,,,,,,,,,,,,,,,,,,,,,,,,,,,,,,,,,,,,,,,,,,,,,,,,,,,,,,,,,,,,,,,,,,,,,,,,,,,,,,,,,,,,,,,,,,,,,,,,,,,,,,,,,,,,,,,,,,,,,,,,,,,,
,,,,,,610ae3ea1341878837b4e646,62c53a13b7009b49e4ba96d6,2022-07-06_10h30.52.216,Colour_Asymmetry_Pilot,2022.1.3,Win32,60.0132029,62c50e9c1127f2cd403a315f,0,144,144,118,1,fourtwo,,,,,,,,,,,,,,,,,,,,,,,,,,,,,,,,,,,,,,,,,,,,,,,,,,,,,,,,,,,,,,,,,,,,,,,,,,,,,,,,,,,,,,,,,,,,,,,,,,,,,,,,,,,,,,,,,,,,,,,,,,,,,,,,,,,,,,,,,,,,,,,,,,,,,,,,,,,,,
,,,,,,610ae3ea1341878837b4e646,62c53a13b7009b49e4ba96d6,2022-07-06_10h30.52.216,Colour_Asymmetry_Pilot,2022.1.3,Win32,60.0132029,62c50e9c1127f2cd403a315f,0,145,145,82,1,twoone,,,,,,,,,,,,,,,,,,,,,,,,,,,,,,,,,,,,,,,,,,,,,,,,,,,,,,,,,,,,,,,,,,,,,,,,,,,,,,,,,,,,,,,,,,,,,,,,,,,,,,,,,,,,,,,,,,,,,,,,,,,,,,,,,,,,,,,,,,,,,,,,,,,,,,,,,,,,,
,,,,,,610ae3ea1341878837b4e646,62c53a13b7009b49e4ba96d6,2022-07-06_10h30.52.216,Colour_Asymmetry_Pilot,2022.1.3,Win32,60.0132029,62c50e9c1127f2cd403a315f,0,146,146,79,1,fourthree,,,,,,,,,,,,,,,,,,,,,,,,,,,,,,,,,,,,,,,,,,,,,,,,,,,,,,,,,,,,,,,,,,,,,,,,,,,,,,,,,,,,,,,,,,,,,,,,,,,,,,,,,,,,,,,,,,,,,,,,,,,,,,,,,,,,,,,,,,,,,,,,,,,,,,,,,,,,,
,,,,,,610ae3ea1341878837b4e646,62c53a13b7009b49e4ba96d6,2022-07-06_10h30.52.216,Colour_Asymmetry_Pilot,2022.1.3,Win32,60.0132029,62c50e9c1127f2cd403a315f,0,147,147,60,1,threeone,,,,,,,,,,,,,,,,,,,,,,,,,,,,,,,,,,,,,,,,,,,,,,,,,,,,,,,,,,,,,,,,,,,,,,,,,,,,,,,,,,,,,,,,,,,,,,,,,,,,,,,,,,,,,,,,,,,,,,,,,,,,,,,,,,,,,,,,,,,,,,,,,,,,,,,,,,,,,
,,,,,,610ae3ea1341878837b4e646,62c53a13b7009b49e4ba96d6,2022-07-06_10h30.52.216,Colour_Asymmetry_Pilot,2022.1.3,Win32,60.0132029,62c50e9c1127f2cd403a315f,0,148,148,7,1,fourthree,,,,,,,,,,,,,,,,,,,,,,,,,,,,,,,,,,,,,,,,,,,,,,,,,,,,,,,,,,,,,,,,,,,,,,,,,,,,,,,,,,,,,,,,,,,,,,,,,,,,,,,,,,,,,,,,,,,,,,,,,,,,,,,,,,,,,,,,,,,,,,,,,,,,,,,,,,,,,
,,,,,,610ae3ea1341878837b4e646,62c53a13b7009b49e4ba96d6,2022-07-06_10h30.52.216,Colour_Asymmetry_Pilot,2022.1.3,Win32,60.0132029,62c50e9c1127f2cd403a315f,0,149,149,117,1,threefour,,,,,,,,,,,,,,,,,,,,,,,,,,,,,,,,,,,,,,,,,,,,,,,,,,,,,,,,,,,,,,,,,,,,,,,,,,,,,,,,,,,,,,,,,,,,,,,,,,,,,,,,,,,,,,,,,,,,,,,,,,,,,,,,,,,,,,,,,,,,,,,,,,,,,,,,,,,,,
,,,,,,610ae3ea1341878837b4e646,62c53a13b7009b49e4ba96d6,2022-07-06_10h30.52.216,Colour_Asymmetry_Pilot,2022.1.3,Win32,60.0132029,62c50e9c1127f2cd403a315f,0,150,150,96,1,onetwo,,,,,,,,,,,,,,,,,,,,,,,,,,,,,,,,,,,,,,,,,,,,,,,,,,,,,,,,,,,,,,,,,,,,,,,,,,,,,,,,,,,,,,,,,,,,,,,,,,,,,,,,,,,,,,,,,,,,,,,,,,,,,,,,,,,,,,,,,,,,,,,,,,,,,,,,,,,,,
,,,,,,610ae3ea1341878837b4e646,62c53a13b7009b49e4ba96d6,2022-07-06_10h30.52.216,Colour_Asymmetry_Pilot,2022.1.3,Win32,60.0132029,62c50e9c1127f2cd403a315f,0,151,151,13,1,threefour,,,,,,,,,,,,,,,,,,,,,,,,,,,,,,,,,,,,,,,,,,,,,,,,,,,,,,,,,,,,,,,,,,,,,,,,,,,,,,,,,,,,,,,,,,,,,,,,,,,,,,,,,,,,,,,,,,,,,,,,,,,,,,,,,,,,,,,,,,,,,,,,,,,,,,,,,,,,,
,,,,,,610ae3ea1341878837b4e646,62c53a13b7009b49e4ba96d6,2022-07-06_10h30.52.216,Colour_Asymmetry_Pilot,2022.1.3,Win32,60.0132029,62c50e9c1127f2cd403a315f,0,152,152,69,1,threefour,,,,,,,,,,,,,,,,,,,,,,,,,,,,,,,,,,,,,,,,,,,,,,,,,,,,,,,,,,,,,,,,,,,,,,,,,,,,,,,,,,,,,,,,,,,,,,,,,,,,,,,,,,,,,,,,,,,,,,,,,,,,,,,,,,,,,,,,,,,,,,,,,,,,,,,,,,,,,
,,,,,,610ae3ea1341878837b4e646,62c53a13b7009b49e4ba96d6,2022-07-06_10h30.52.216,Colour_Asymmetry_Pilot,2022.1.3,Win32,60.0132029,62c50e9c1127f2cd403a315f,0,153,153,61,1,threefour,,,,,,,,,,,,,,,,,,,,,,,,,,,,,,,,,,,,,,,,,,,,,,,,,,,,,,,,,,,,,,,,,,,,,,,,,,,,,,,,,,,,,,,,,,,,,,,,,,,,,,,,,,,,,,,,,,,,,,,,,,,,,,,,,,,,,,,,,,,,,,,,,,,,,,,,,,,,,
,,,,,,610ae3ea1341878837b4e646,62c53a13b7009b49e4ba96d6,2022-07-06_10h30.52.216,Colour_Asymmetry_Pilot,2022.1.3,Win32,60.0132029,62c50e9c1127f2cd403a315f,0,154,154,26,1,twoone,,,,,,,,,,,,,,,,,,,,,,,,,,,,,,,,,,,,,,,,,,,,,,,,,,,,,,,,,,,,,,,,,,,,,,,,,,,,,,,,,,,,,,,,,,,,,,,,,,,,,,,,,,,,,,,,,,,,,,,,,,,,,,,,,,,,,,,,,,,,,,,,,,,,,,,,,,,,,
,,,,,,610ae3ea1341878837b4e646,62c53a13b7009b49e4ba96d6,2022-07-06_10h30.52.216,Colour_Asymmetry_Pilot,2022.1.3,Win32,60.0132029,62c50e9c1127f2cd403a315f,0,155,155,125,1,threefour,,,,,,,,,,,,,,,,,,,,,,,,,,,,,,,,,,,,,,,,,,,,,,,,,,,,,,,,,,,,,,,,,,,,,,,,,,,,,,,,,,,,,,,,,,,,,,,,,,,,,,,,,,,,,,,,,,,,,,,,,,,,,,,,,,,,,,,,,,,,,,,,,,,,,,,,,,,,,
,,,,,,610ae3ea1341878837b4e646,62c53a13b7009b49e4ba96d6,2022-07-06_10h30.52.216,Colour_Asymmetry_Pilot,2022.1.3,Win32,60.0132029,62c50e9c1127f2cd403a315f,0,156,156,3,1,twofour,,,,,,,,,,,,,,,,,,,,,,,,,,,,,,,,,,,,,,,,,,,,,,,,,,,,,,,,,,,,,,,,,,,,,,,,,,,,,,,,,,,,,,,,,,,,,,,,,,,,,,,,,,,,,,,,,,,,,,,,,,,,,,,,,,,,,,,,,,,,,,,,,,,,,,,,,,,,,
,,,,,,610ae3ea1341878837b4e646,62c53a13b7009b49e4ba96d6,2022-07-06_10h30.52.216,Colour_Asymmetry_Pilot,2022.1.3,Win32,60.0132029,62c50e9c1127f2cd403a315f,0,157,157,127,1,fourthree,,,,,,,,,,,,,,,,,,,,,,,,,,,,,,,,,,,,,,,,,,,,,,,,,,,,,,,,,,,,,,,,,,,,,,,,,,,,,,,,,,,,,,,,,,,,,,,,,,,,,,,,,,,,,,,,,,,,,,,,,,,,,,,,,,,,,,,,,,,,,,,,,,,,,,,,,,,,,
,,,,,,610ae3ea1341878837b4e646,62c53a13b7009b49e4ba96d6,2022-07-06_10h30.52.216,Colour_Asymmetry_Pilot,2022.1.3,Win32,60.0132029,62c50e9c1127f2cd403a315f,0,158,158,90,1,twoone,,,,,,,,,,,,,,,,,,,,,,,,,,,,,,,,,,,,,,,,,,,,,,,,,,,,,,,,,,,,,,,,,,,,,,,,,,,,,,,,,,,,,,,,,,,,,,,,,,,,,,,,,,,,,,,,,,,,,,,,,,,,,,,,,,,,,,,,,,,,,,,,,,,,,,,,,,,,,
,,,,,,610ae3ea1341878837b4e646,62c53a13b7009b49e4ba96d6,2022-07-06_10h30.52.216,Colour_Asymmetry_Pilot,2022.1.3,Win32,60.0132029,62c50e9c1127f2cd403a315f,0,159,159,73,1,onethree,,,,,,,,,,,,,,,,,,,,,,,,,,,,,,,,,,,,,,,,,,,,,,,,,,,,,,,,,,,,,,,,,,,,,,,,,,,,,,,,,,,,,,,,,,,,,,,,,,,,,,,,,,,,,,,,,,,,,,,,,,,,,,,,,,,,,,,,,,,,,,,,,,,,,,,,,,,,,
,,,,,,610ae3ea1341878837b4e646,62c53a13b7009b49e4ba96d6,2022-07-06_10h30.52.216,Colour_Asymmetry_Pilot,2022.1.3,Win32,60.0132029,62c50e9c1127f2cd403a315f,0,160,160,39,1,fourthree,,,,,,,,,,,,,,,,,,,,,,,,,,,,,,,,,,,,,,,,,,,,,,,,,,,,,,,,,,,,,,,,,,,,,,,,,,,,,,,,,,,,,,,,,,,,,,,,,,,,,,,,,,,,,,,,,,,,,,,,,,,,,,,,,,,,,,,,,,,,,,,,,,,,,,,,,,,,,
,,,,,,610ae3ea1341878837b4e646,62c53a13b7009b49e4ba96d6,2022-07-06_10h30.52.216,Colour_Asymmetry_Pilot,2022.1.3,Win32,60.0132029,62c50e9c1127f2cd403a315f,0,161,161,62,1,fourtwo,,,,,,,,,,,,,,,,,,,,,,,,,,,,,,,,,,,,,,,,,,,,,,,,,,,,,,,,,,,,,,,,,,,,,,,,,,,,,,,,,,,,,,,,,,,,,,,,,,,,,,,,,,,,,,,,,,,,,,,,,,,,,,,,,,,,,,,,,,,,,,,,,,,,,,,,,,,,,
,,,,,,610ae3ea1341878837b4e646,62c53a13b7009b49e4ba96d6,2022-07-06_10h30.52.216,Colour_Asymmetry_Pilot,2022.1.3,Win32,60.0132029,62c50e9c1127f2cd403a315f,,,,,,,space,2.7217,space,24.8401,space,84.4513,space,21.9352,space,6.8279,space,5.5072,"[0.9686000000000001,0.3802000000000001,0.19999999999999996]",onethree,"[0.3802000000000001,0.19199999999999995,-0.6394]",1,16.269,27,-116,1,0,0,response3disk_5,-8,-5,1,0,0,rectangle_8,-8,-5,1,0,0,2,-8,-5,1,0,0,0,0,0,0,1,,,,,,,,,,,,,,,,,,,,,,,,,,,,,,,,,,,,,,,,,,,,,,,,,,,,,,,,,,,,,,,,,,,,,,,,,,,,,,,,,,,,,,,,,,,,,,,,,,,,,,,,,,,,,,,,
,,,,,,610ae3ea1341878837b4e646,62c53a13b7009b49e4ba96d6,2022-07-06_10h30.52.216,Colour_Asymmetry_Pilot,2022.1.3,Win32,60.0132029,62c50e9c1127f2cd403a315f,,,,,,,,,,,,,,,,,,,"[1,0.12939999999999996,-1]",twofour,"[-0.07459999999999989,0.12139999999999995,-0.9922]",-4,3.5344,-63,95,1,0,0,response7disk_5,-6,-3,1,0,0,rectangle_8,-6,-3,1,0,0,2,-6,-3,1,0,0,1,0,1,0,1,,,,,,,,,,,,,,,,,,,,,,,,,,,,,,,,,,,,,,,,,,,,,,,,,,,,,,,,,,,,,,,,,,,,,,,,,,,,,,,,,,,,,,,,,,,,,,,,,,,,,,,,,,,,,,,,
,,,,,,610ae3ea1341878837b4e646,62c53a13b7009b49e4ba96d6,2022-07-06_10h30.52.216,Colour_Asymmetry_Pilot,2022.1.3,Win32,60.0132029,62c50e9c1127f2cd403a315f,,,,,,,,,,,,,,,,,,,"[0.37240000000000006,-0.050999999999999934,-0.5216]",onetwo,"[-0.09019999999999995,0.44300000000000006,0.5371999999999999]",-4,0.7839,-62,85,1,0,0,response7disk_5,-7,2,1,0,0,rectangle_8,119,-54,1,0,0,2,-10,-5,1,0,0,2,0,2,0,1,response3disk_7,5,rectangle_4,,,,,,,,,,,,,,,,,,,,,,,,,,,,,,,,,,,,,,,,,,,,,,,,,,,,,,,,,,,,,,,,,,,,,,,,,,,,,,,,,,,,,,,,,,,,,,,,,,,,,,,,,,,,,
,,,,,,610ae3ea1341878837b4e646,62c53a13b7009b49e4ba96d6,2022-07-06_10h30.52.216,Colour_Asymmetry_Pilot,2022.1.3,Win32,60.0132029,62c50e9c1127f2cd403a315f,,,,,,,,,,,,,,,,,,,"[0.9686000000000001,0.3802000000000001,0.19999999999999996]",threefour,"[0.12939999999999996,-0.2864,0.3253999999999999]",-3,2.0337,-88,37,1,0,0,response7disk_5,-11,-1,1,0,0,rectangle_8,-11,-1,1,0,0,2,-11,-1,1,0,0,3,0,3,0,1,,,,,,,,,,,,,,,,,,,,,,,,,,,,,,,,,,,,,,,,,,,,,,,,,,,,,,,,,,,,,,,,,,,,,,,,,,,,,,,,,,,,,,,,,,,,,,,,,,,,,,,,,,,,,,,,
,,,,,,610ae3ea1341878837b4e646,62c53a13b7009b49e4ba96d6,2022-07-06_10h30.52.216,Colour_Asymmetry_Pilot,2022.1.3,Win32,60.0132029,62c50e9c1127f2cd403a315f,,,,,,,,,,,,,,,,,,,"[0.9686000000000001,0.3802000000000001,0.19999999999999996]",twofour,"[-0.17659999999999998,0.3253999999999999,0.19999999999999996]",-4,1.1669,-57,88,1,0,0,response7disk_5,-5,3,1,0,0,rectangle_8,-5,3,1,0,0,2,-5,3,1,0,0,4,0,4,0,1,,,,,,,,,,,,,,,,,,,,,,,,,,,,,,,,,,,,,,,,,,,,,,,,,,,,,,,,,,,,,,,,,,,,,,,,,,,,,,,,,,,,,,,,,,,,,,,,,,,,,,,,,,,,,,,,
,,,,,,610ae3ea1341878837b4e646,62c53a13b7009b49e4ba96d6,2022-07-06_10h30.52.216,Colour_Asymmetry_Pilot,2022.1.3,Win32,60.0132029,62c50e9c1127f2cd403a315f,,,,,,,,,,,,,,,,,,,"[0.09799999999999986,-0.24719999999999998,0.15280000000000005]",threeone,"[-0.9688,-0.38039999999999996,-0.41979999999999995]",-2,1.5836,-96,-38,1,0,0,response5disk_5,-8,-8,1,0,0,rectangle_8,-8,-8,1,0,0,2,-8,-8,1,0,0,5,0,5,0,1,,,,,,,,,,,,,,,,,,,,,,,,,,,,,,,,,,,,,,,,,,,,,,,,,,,,,,,,,,,,,,,,,,,,,,,,,,,,,,,,,,,,,,,,,,,,,,,,,,,,,,,,,,,,,,,,
,,,,,,610ae3ea1341878837b4e646,62c53a13b7009b49e4ba96d6,2022-07-06_10h30.52.216,Colour_Asymmetry_Pilot,2022.1.3,Win32,60.0132029,62c50e9c1127f2cd403a315f,,,,,,,,,,,,,,,,,,,"[0.7802,-0.23140000000000005,-0.20799999999999996]",fourthree,"[0.34099999999999997,0.12939999999999996,-0.9766]",-2,1.9333,-76,-36,1,0,0,response5disk_5,-1,-2,1,0,0,rectangle_8,-1,-2,1,0,0,2,-1,-2,1,0,0,6,0,6,0,1,,,,,,,,,,,,,,,,,,,,,,,,,,,,,,,,,,,,,,,,,,,,,,,,,,,,,,,,,,,,,,,,,,,,,,,,,,,,,,,,,,,,,,,,,,,,,,,,,,,,,,,,,,,,,,,,
,,,,,,610ae3ea1341878837b4e646,62c53a13b7009b49e4ba96d6,2022-07-06_10h30.52.216,Colour_Asymmetry_Pilot,2022.1.3,Win32,60.0132029,62c50e9c1127f2cd403a315f,,,,,,,,,,,,,,,,,,,,onethree,,-2,1.3502,,,,,,,,,,,,,,,,,,,,,,,,,,,,,,,,space,5.1179,"[-0.24719999999999998,-0.0354000000000001,0.3175999999999999]","[0.37240000000000006,0.4980000000000002,-0.2864]",-100,-73,1,0,0,response5disk,-10,-3,1,0,0,rectangle,-10,-3,1,0,0,,1,0.0037,0,-10,-3,1,0,0,0,0,0,113,1,32,second,,,,,,,,,,,,,,,,,,,,,,,,,,,,,,,,,,,,,,,,,,,,,,,,,,,,,,,,,,,,,,,,,,,,,,,,
,,,,,,610ae3ea1341878837b4e646,62c53a13b7009b49e4ba96d6,2022-07-06_10h30.52.216,Colour_Asymmetry_Pilot,2022.1.3,Win32,60.0132029,62c50e9c1127f2cd403a315f,,,,,,,,,,,,,,,,,,,,twoone,,-2,1.6503,,,,,,,,,,,,,,,,,,,,,,,,,,,,,,,,,,"[0.7802,-0.23140000000000005,-0.20799999999999996]","[0.5528,0.7409999999999999,-0.71]",-73,-35,1,0,0,response5disk,0,-6,1,0,0,rectangle,0,-6,1,0,0,,2,0.0019,0,0,-6,1,0,0,0,1,1,126,1,45,second,,,,,,,,,,,,,,,,,,,,,,,,,,,,,,,,,,,,,,,,,,,,,,,,,,,,,,,,,,,,,,,,,,,,,,,,
,,,,,,610ae3ea1341878837b4e646,62c53a13b7009b49e4ba96d6,2022-07-06_10h30.52.216,Colour_Asymmetry_Pilot,2022.1.3,Win32,60.0132029,62c50e9c1127f2cd403a315f,,,,,,,,,,,,,,,,,,,,threefour,,-3,0.6169,,,,,,,,,,,,,,,,,,,,,,,,,,,,,,,,,,"[0.05879999999999996,0.2784,0.5841999999999998]","[0.796,0.2156,-0.27859999999999996]",-70,29,1,0,0,response7disk,1,-6,1,0,0,rectangle,1,-6,1,0,0,,3,0.0013,0,1,-6,1,0,0,0,2,2,144,1,63,second,,,,,,,,,,,,,,,,,,,,,,,,,,,,,,,,,,,,,,,,,,,,,,,,,,,,,,,,,,,,,,,,,,,,,,,,
,,,,,,610ae3ea1341878837b4e646,62c53a13b7009b49e4ba96d6,2022-07-06_10h30.52.216,Colour_Asymmetry_Pilot,2022.1.3,Win32,60.0132029,62c50e9c1127f2cd403a315f,,,,,,,,,,,,,,,,,,,,fourtwo,,-3,0.7172,,,,,,,,,,,,,,,,,,,,,,,,,,,,,,,,,,"[0.9763999999999999,0.30979999999999985,-0.6786]","[-0.5688,-0.08239999999999992,-0.1844]",-84,31,1,0,0,response7disk,-4,-1,1,0,0,rectangle,-4,-1,1,0,0,,1,0.0024,0,-4,-1,1,0,0,0,3,3,44,1,44,first,,,,,,,,,,,,,,,,,,,,,,,,,,,,,,,,,,,,,,,,,,,,,,,,,,,,,,,,,,,,,,,,,,,,,,,,
,,,,,,610ae3ea1341878837b4e646,62c53a13b7009b49e4ba96d6,2022-07-06_10h30.52.216,Colour_Asymmetry_Pilot,2022.1.3,Win32,60.0132029,62c50e9c1127f2cd403a315f,,,,,,,,,,,,,,,,,,,,fourtwo,,-2,2.1664,,,,,,,,,,,,,,,,,,,,,,,,,,,,,,,,,,"[0.23920000000000008,0.2704,0.16060000000000008]","[-0.24719999999999998,-0.0354000000000001,0.3175999999999999]",-90,-55,1,0,0,response5disk,-8,-6,1,0,0,rectangle,-8,-6,1,0,0,,1,0.0005,0,-8,-6,1,0,0,0,4,4,22,1,22,first,,,,,,,,,,,,,,,,,,,,,,,,,,,,,,,,,,,,,,,,,,,,,,,,,,,,,,,,,,,,,,,,,,,,,,,,
,,,,,,610ae3ea1341878837b4e646,62c53a13b7009b49e4ba96d6,2022-07-06_10h30.52.216,Colour_Asymmetry_Pilot,2022.1.3,Win32,60.0132029,62c50e9c1127f2cd403a315f,,,,,,,,,,,,,,,,,,,,twoone,,-2,3.2342,,,,,,,,,,,,,,,,,,,,,,,,,,,,,,,,,,"[-0.5922000000000001,-0.7492000000000001,-0.5296000000000001]","[0.23920000000000008,0.2704,0.16060000000000008]",-93,-63,1,0,0,response5disk,1,-8,1,0,0,rectangle,1,-8,1,0,0,,2,0.0022,0,1,-8,1,0,0,0,5,5,92,1,11,second,,,,,,,,,,,,,,,,,,,,,,,,,,,,,,,,,,,,,,,,,,,,,,,,,,,,,,,,,,,,,,,,,,,,,,,,
,,,,,,610ae3ea1341878837b4e646,62c53a13b7009b49e4ba96d6,2022-07-06_10h30.52.216,Colour_Asymmetry_Pilot,2022.1.3,Win32,60.0132029,62c50e9c1127f2cd403a315f,,,,,,,,,,,,,,,,,,,,twoone,,1,1.8326,,,,,,,,,,,,,,,,,,,,,,,,,,,,,,,,,,"[0.7176,-0.906,-0.6864]","[0.9686000000000001,0.3802000000000001,0.19999999999999996]",37,-75,1,0,0,response3disk,-6,-7,1,0,0,rectangle,-6,-7,1,0,0,,3,0.0012,0,-6,-7,1,0,0,0,6,6,9,1,9,first,,,,,,,,,,,,,,,,,,,,,,,,,,,,,,,,,,,,,,,,,,,,,,,,,,,,,,,,,,,,,,,,,,,,,,,,
,,,,,,610ae3ea1341878837b4e646,62c53a13b7009b49e4ba96d6,2022-07-06_10h30.52.216,Colour_Asymmetry_Pilot,2022.1.3,Win32,60.0132029,62c50e9c1127f2cd403a315f,,,,,,,,,,,,,,,,,,,,threeone,,-2,1.2682,,,,,,,,,,,,,,,,,,,,,,,,,,,,,,,,,,"[-0.10599999999999998,-0.10599999999999998,0.5841999999999998]","[0.7646000000000002,0.07440000000000002,0.2704]",-100,-39,1,0,0,response5disk,-19,-3,1,0,0,rectangle,-19,-3,1,0,0,,3,0,0,-19,-3,1,0,0,0,7,7,54,1,54,first,,,,,,,,,,,,,,,,,,,,,,,,,,,,,,,,,,,,,,,,,,,,,,,,,,,,,,,,,,,,,,,,,,,,,,,,
,,,,,,610ae3ea1341878837b4e646,62c53a13b7009b49e4ba96d6,2022-07-06_10h30.52.216,Colour_Asymmetry_Pilot,2022.1.3,Win32,60.0132029,62c50e9c1127f2cd403a315f,,,,,,,,,,,,,,,,,,,,onetwo,,2,1.4006,,,,,,,,,,,,,,,,,,,,,,,,,,,,,,,,,,"[1,0.12939999999999996,-1]","[0.9372,0.20779999999999998,0.2704]",105,-39,1,0,0,response3disk,-7,-6,1,0,0,rectangle,-7,-6,1,0,0,,1,0.0011,0,-7,-6,1,0,0,0,8,8,28,1,28,first,,,,,,,,,,,,,,,,,,,,,,,,,,,,,,,,,,,,,,,,,,,,,,,,,,,,,,,,,,,,,,,,,,,,,,,,
,,,,,,610ae3ea1341878837b4e646,62c53a13b7009b49e4ba96d6,2022-07-06_10h30.52.216,Colour_Asymmetry_Pilot,2022.1.3,Win32,60.0132029,62c50e9c1127f2cd403a315f,,,,,,,,,,,,,,,,,,,,twofour,,-2,1.7171,,,,,,,,,,,,,,,,,,,,,,,,,,,,,,,,,,"[-0.9766,-0.34920000000000007,0.2156]","[0.2784,-0.31000000000000005,-0.5452]",-97,-35,1,0,0,response5disk,-17,-6,1,0,0,rectangle,-17,-6,1,0,0,,2,0.001,0,-17,-6,1,0,0,0,9,9,137,1,56,second,,,,,,,,,,,,,,,,,,,,,,,,,,,,,,,,,,,,,,,,,,,,,,,,,,,,,,,,,,,,,,,,,,,,,,,,
,,,,,,610ae3ea1341878837b4e646,62c53a13b7009b49e4ba96d6,2022-07-06_10h30.52.216,Colour_Asymmetry_Pilot,2022.1.3,Win32,60.0132029,62c50e9c1127f2cd403a315f,,,,,,,,,,,,,,,,,,,,fourtwo,,-3,1.6858,,,,,,,,,,,,,,,,,,,,,,,,,,,,,,,,,,"[0.7802,-0.23140000000000005,-0.20799999999999996]","[-0.8118,-0.8198,-0.5452]",-79,39,1,0,0,response7disk,-5,0,1,0,0,rectangle,-5,0,1,0,0,,3,0.0006,0,-5,0,1,0,0,0,10,10,8,1,8,first,,,,,,,,,,,,,,,,,,,,,,,,,,,,,,,,,,,,,,,,,,,,,,,,,,,,,,,,,,,,,,,,,,,,,,,,
,,,,,,610ae3ea1341878837b4e646,62c53a13b7009b49e4ba96d6,2022-07-06_10h30.52.216,Colour_Asymmetry_Pilot,2022.1.3,Win32,60.0132029,62c50e9c1127f2cd403a315f,,,,,,,,,,,,,,,,,,,,threeone,,-2,1.8336,,,,,,,,,,,,,,,,,,,,,,,,,,,,,,,,,,"[0.5528,0.7409999999999999,-0.71]","[0.7802,-0.23140000000000005,-0.20799999999999996]",-92,-57,1,0,0,response5disk,-8,-2,1,0,0,rectangle,-8,-2,1,0,0,,2,0.0005,0,-8,-2,1,0,0,0,11,11,45,1,45,first,,,,,,,,,,,,,,,,,,,,,,,,,,,,,,,,,,,,,,,,,,,,,,,,,,,,,,,,,,,,,,,,,,,,,,,,
,,,,,,610ae3ea1341878837b4e646,62c53a13b7009b49e4ba96d6,2022-07-06_10h30.52.216,Colour_Asymmetry_Pilot,2022.1.3,Win32,60.0132029,62c50e9c1127f2cd403a315f,,,,,,,,,,,,,,,,,,,,twofour,,3,1.8507,,,,,,,,,,,,,,,,,,,,,,,,,,,,,,,,,,"[-0.10599999999999998,-0.10599999999999998,0.5841999999999998]","[-0.9766,-0.34920000000000007,0.2156]",56,39,1,0,0,response1disk,-25,-11,1,0,0,rectangle,-25,-11,1,0,0,,2,0.0009,0,-25,-11,1,0,0,0,12,12,27,1,27,first,,,,,,,,,,,,,,,,,,,,,,,,,,,,,,,,,,,,,,,,,,,,,,,,,,,,,,,,,,,,,,,,,,,,,,,,
,,,,,,610ae3ea1341878837b4e646,62c53a13b7009b49e4ba96d6,2022-07-06_10h30.52.216,Colour_Asymmetry_Pilot,2022.1.3,Win32,60.0132029,62c50e9c1127f2cd403a315f,,,,,,,,,,,,,,,,,,,,twoone,,-4,0.8501,,,,,,,,,,,,,,,,,,,,,,,,,,,,,,,,,,"[-0.9766,-0.6472,0.07440000000000002]","[0.9372,0.20779999999999998,0.2704]",-45,55,1,0,0,response7disk,-10,-2,1,0,0,rectangle,-10,-2,1,0,0,,2,0.0007,0,-10,-2,1,0,0,0,13,13,59,1,59,first,,,,,,,,,,,,,,,,,,,,,,,,,,,,,,,,,,,,,,,,,,,,,,,,,,,,,,,,,,,,,,,,,,,,,,,,
,,,,,,610ae3ea1341878837b4e646,62c53a13b7009b49e4ba96d6,2022-07-06_10h30.52.216,Colour_Asymmetry_Pilot,2022.1.3,Win32,60.0132029,62c50e9c1127f2cd403a315f,,,,,,,,,,,,,,,,,,,,threeone,,-4,1.1851,,,,,,,,,,,,,,,,,,,,,,,,,,,,,,,,,,"[0.7018,0.7802,-0.16079999999999994]","[-0.9766,-0.6472,0.07440000000000002]",-42,62,1,0,0,response7disk,1,-4,1,0,0,rectangle,1,-4,1,0,0,,1,0.001,0,1,-4,1,0,0,0,14,14,65,1,65,first,,,,,,,,,,,,,,,,,,,,,,,,,,,,,,,,,,,,,,,,,,,,,,,,,,,,,,,,,,,,,,,,,,,,,,,,
,,,,,,610ae3ea1341878837b4e646,62c53a13b7009b49e4ba96d6,2022-07-06_10h30.52.216,Colour_Asymmetry_Pilot,2022.1.3,Win32,60.0132029,62c50e9c1127f2cd403a315f,,,,,,,,,,,,,,,,,,,,threeone,,-3,1.2167,,,,,,,,,,,,,,,,,,,,,,,,,,,,,,,,,,"[-0.5452,-0.608,0.2470000000000001]","[-0.26280000000000003,-0.2158,-0.3256]",-100,53,1,0,0,response7disk,-8,2,1,0,0,rectangle,-8,2,1,0,0,,1,0.0004,0,-8,2,1,0,0,0,15,15,153,1,72,second,,,,,,,,,,,,,,,,,,,,,,,,,,,,,,,,,,,,,,,,,,,,,,,,,,,,,,,,,,,,,,,,,,,,,,,,
,,,,,,610ae3ea1341878837b4e646,62c53a13b7009b49e4ba96d6,2022-07-06_10h30.52.216,Colour_Asymmetry_Pilot,2022.1.3,Win32,60.0132029,62c50e9c1127f2cd403a315f,,,,,,,,,,,,,,,,,,,,onetwo,,1,1.1002,,,,,,,,,,,,,,,,,,,,,,,,,,,,,,,,,,"[-0.6,0.16860000000000008,0.44300000000000006]","[-0.6235999999999999,-0.6786,-0.08239999999999992]",51,-71,1,0,0,response3disk,-8,-4,1,0,0,rectangle,-8,-4,1,0,0,,1,0.0003,0,-8,-4,1,0,0,0,16,16,43,1,43,first,,,,,,,,,,,,,,,,,,,,,,,,,,,,,,,,,,,,,,,,,,,,,,,,,,,,,,,,,,,,,,,,,,,,,,,,
,,,,,,610ae3ea1341878837b4e646,62c53a13b7009b49e4ba96d6,2022-07-06_10h30.52.216,Colour_Asymmetry_Pilot,2022.1.3,Win32,60.0132029,62c50e9c1127f2cd403a315f,,,,,,,,,,,,,,,,,,,,threeone,,-4,0.5476,,,,,,,,,,,,,,,,,,,,,,,,,,,,,,,,,,"[-0.4276,0.0038000000000000256,-0.3256]","[0.40379999999999994,0.09000000000000008,0.44300000000000006]",-62,94,1,0,0,response7disk,-5,-11,1,0,0,rectangle,-5,-11,1,0,0,,1,0.0003,0,-5,-11,1,0,0,0,17,17,106,1,25,second,,,,,,,,,,,,,,,,,,,,,,,,,,,,,,,,,,,,,,,,,,,,,,,,,,,,,,,,,,,,,,,,,,,,,,,,
