trials.thisRepN,trials.thisTrialN,trials.thisN,trials.thisIndex,trials.ran,Colourcodes,participant,session,date,expName,psychopyVersion,OS,frameRate,study_id,trials_4.thisRepN,trials_4.thisTrialN,trials_4.thisN,trials_4.thisIndex,trials_4.ran,StimulusPos,key_resp.keys,key_resp.rt,key_resp_2.keys,key_resp_2.rt,key_resp_15.keys,key_resp_15.rt,key_resp_17.keys,key_resp_17.rt,key_resp_9.keys,key_resp_9.rt,key_resp_10.keys,key_resp_10.rt,Circle1_col,Ecc,Circle2_col,similarity,response_time,mouse_5.x,mouse_5.y,mouse_5.leftButton,mouse_5.midButton,mouse_5.rightButton,mouse_5.clicked_name,mouse_10.x,mouse_10.y,mouse_10.leftButton,mouse_10.midButton,mouse_10.rightButton,mouse_10.clicked_name,mouse_7.x,mouse_7.y,mouse_7.leftButton,mouse_7.midButton,mouse_7.rightButton,mouse_7.clicked_name,catchprac,catchnumberprac,mouse_6.x,mouse_6.y,mouse_6.leftButton,mouse_6.midButton,mouse_6.rightButton,mouse_6.clicked_name,duringprac.thisRepN,duringprac.thisTrialN,duringprac.thisN,duringprac.thisIndex,duringprac.ran,key_resp_22.keys,key_resp_22.rt,Circle1_colour,Circle2_colour,mouse.x,mouse.y,mouse.leftButton,mouse.midButton,mouse.rightButton,mouse.clicked_name,mouse_2.x,mouse_2.y,mouse_2.leftButton,mouse_2.midButton,mouse_2.rightButton,mouse_2.clicked_name,mouse_3.x,mouse_3.y,mouse_3.leftButton,mouse_3.midButton,mouse_3.rightButton,catchresponse,catchnumber,response_time_catch,Catch,mouse_11.x,mouse_11.y,mouse_11.leftButton,mouse_11.midButton,mouse_11.rightButton,trials_2.thisRepN,trials_2.thisTrialN,trials_2.thisN,trials_2.thisIndex,trials_2.ran,Colourpair,Temporder,mouse_3.clicked_name,mouse_11.clicked_name,trials_3.thisRepN,trials_3.thisTrialN,trials_3.thisN,trials_3.thisIndex,trials_3.ran,key_resp_instr_Ishi.keys,key_resp_instr_Ishi.rt,Ishi_trial_keyresp.keys,Ishi_textbox.text,Ishi_mouse.x,Ishi_mouse.y,Ishi_mouse.leftButton,Ishi_mouse.midButton,Ishi_mouse.rightButton,Ishi_mouse.clicked_name,Ishi_loop.thisRepN,Ishi_loop.thisTrialN,Ishi_loop.thisN,Ishi_loop.thisIndex,Ishi_loop.ran,imageaddress,textbox.text,mouse_4.x,mouse_4.y,mouse_4.leftButton,mouse_4.midButton,mouse_4.rightButton,mouse_4.clicked_name,textbox_2.text,mouse_8.x,mouse_8.y,mouse_8.leftButton,mouse_8.midButton,mouse_8.rightButton,mouse_8.clicked_name,textbox_3.text,mouse_9.x,mouse_9.y,mouse_9.leftButton,mouse_9.midButton,mouse_9.rightButton,mouse_9.clicked_name,textbox_4.text,mouse_12.x,mouse_12.y,mouse_12.leftButton,mouse_12.midButton,mouse_12.rightButton,mouse_12.clicked_name,textbox_5.text,mouse_13.x,mouse_13.y,mouse_13.leftButton,mouse_13.midButton,mouse_13.rightButton,mouse_13.clicked_name,textbox_6.text,mouse_14.x,mouse_14.y,mouse_14.leftButton,mouse_14.midButton,mouse_14.rightButton,mouse_14.clicked_name,textbox_7.text,mouse_15.x,mouse_15.y,mouse_15.leftButton,mouse_15.midButton,mouse_15.rightButton,mouse_15.clicked_name
0,0,0,85,1,,5bbfeaeb785edb0001fac427,62c53a74db91906583b6b51b,2022-07-06_02h33.57.648,Colour_Asymmetry_Pilot,2022.1.3,Win32,39.51319741,62c50e9c1127f2cd403a315f,,,,,,,,,,,,,,,,,,,,,,,,,,,,,,,,,,,,,,,,,,,,,,,,,,,,,,,,,,,,,,,,,,,,,,,,,,,,,,,,,,,,,,,,,,,,,,,,,,,,,,,,,,,,,,,,,,,,,,,,,,,,,,,,,,,,,,,,,,,,,,,,,,,,,,,,,,,,,,,,,,,
0,1,1,23,1,,5bbfeaeb785edb0001fac427,62c53a74db91906583b6b51b,2022-07-06_02h33.57.648,Colour_Asymmetry_Pilot,2022.1.3,Win32,39.51319741,62c50e9c1127f2cd403a315f,,,,,,,,,,,,,,,,,,,,,,,,,,,,,,,,,,,,,,,,,,,,,,,,,,,,,,,,,,,,,,,,,,,,,,,,,,,,,,,,,,,,,,,,,,,,,,,,,,,,,,,,,,,,,,,,,,,,,,,,,,,,,,,,,,,,,,,,,,,,,,,,,,,,,,,,,,,,,,,,,,,
0,2,2,40,1,,5bbfeaeb785edb0001fac427,62c53a74db91906583b6b51b,2022-07-06_02h33.57.648,Colour_Asymmetry_Pilot,2022.1.3,Win32,39.51319741,62c50e9c1127f2cd403a315f,,,,,,,,,,,,,,,,,,,,,,,,,,,,,,,,,,,,,,,,,,,,,,,,,,,,,,,,,,,,,,,,,,,,,,,,,,,,,,,,,,,,,,,,,,,,,,,,,,,,,,,,,,,,,,,,,,,,,,,,,,,,,,,,,,,,,,,,,,,,,,,,,,,,,,,,,,,,,,,,,,,
0,3,3,31,1,,5bbfeaeb785edb0001fac427,62c53a74db91906583b6b51b,2022-07-06_02h33.57.648,Colour_Asymmetry_Pilot,2022.1.3,Win32,39.51319741,62c50e9c1127f2cd403a315f,,,,,,,,,,,,,,,,,,,,,,,,,,,,,,,,,,,,,,,,,,,,,,,,,,,,,,,,,,,,,,,,,,,,,,,,,,,,,,,,,,,,,,,,,,,,,,,,,,,,,,,,,,,,,,,,,,,,,,,,,,,,,,,,,,,,,,,,,,,,,,,,,,,,,,,,,,,,,,,,,,,
0,4,4,89,1,,5bbfeaeb785edb0001fac427,62c53a74db91906583b6b51b,2022-07-06_02h33.57.648,Colour_Asymmetry_Pilot,2022.1.3,Win32,39.51319741,62c50e9c1127f2cd403a315f,,,,,,,,,,,,,,,,,,,,,,,,,,,,,,,,,,,,,,,,,,,,,,,,,,,,,,,,,,,,,,,,,,,,,,,,,,,,,,,,,,,,,,,,,,,,,,,,,,,,,,,,,,,,,,,,,,,,,,,,,,,,,,,,,,,,,,,,,,,,,,,,,,,,,,,,,,,,,,,,,,,
0,5,5,63,1,,5bbfeaeb785edb0001fac427,62c53a74db91906583b6b51b,2022-07-06_02h33.57.648,Colour_Asymmetry_Pilot,2022.1.3,Win32,39.51319741,62c50e9c1127f2cd403a315f,,,,,,,,,,,,,,,,,,,,,,,,,,,,,,,,,,,,,,,,,,,,,,,,,,,,,,,,,,,,,,,,,,,,,,,,,,,,,,,,,,,,,,,,,,,,,,,,,,,,,,,,,,,,,,,,,,,,,,,,,,,,,,,,,,,,,,,,,,,,,,,,,,,,,,,,,,,,,,,,,,,
0,6,6,28,1,,5bbfeaeb785edb0001fac427,62c53a74db91906583b6b51b,2022-07-06_02h33.57.648,Colour_Asymmetry_Pilot,2022.1.3,Win32,39.51319741,62c50e9c1127f2cd403a315f,,,,,,,,,,,,,,,,,,,,,,,,,,,,,,,,,,,,,,,,,,,,,,,,,,,,,,,,,,,,,,,,,,,,,,,,,,,,,,,,,,,,,,,,,,,,,,,,,,,,,,,,,,,,,,,,,,,,,,,,,,,,,,,,,,,,,,,,,,,,,,,,,,,,,,,,,,,,,,,,,,,
0,7,7,11,1,,5bbfeaeb785edb0001fac427,62c53a74db91906583b6b51b,2022-07-06_02h33.57.648,Colour_Asymmetry_Pilot,2022.1.3,Win32,39.51319741,62c50e9c1127f2cd403a315f,,,,,,,,,,,,,,,,,,,,,,,,,,,,,,,,,,,,,,,,,,,,,,,,,,,,,,,,,,,,,,,,,,,,,,,,,,,,,,,,,,,,,,,,,,,,,,,,,,,,,,,,,,,,,,,,,,,,,,,,,,,,,,,,,,,,,,,,,,,,,,,,,,,,,,,,,,,,,,,,,,,
0,8,8,79,1,,5bbfeaeb785edb0001fac427,62c53a74db91906583b6b51b,2022-07-06_02h33.57.648,Colour_Asymmetry_Pilot,2022.1.3,Win32,39.51319741,62c50e9c1127f2cd403a315f,,,,,,,,,,,,,,,,,,,,,,,,,,,,,,,,,,,,,,,,,,,,,,,,,,,,,,,,,,,,,,,,,,,,,,,,,,,,,,,,,,,,,,,,,,,,,,,,,,,,,,,,,,,,,,,,,,,,,,,,,,,,,,,,,,,,,,,,,,,,,,,,,,,,,,,,,,,,,,,,,,,
0,9,9,48,1,,5bbfeaeb785edb0001fac427,62c53a74db91906583b6b51b,2022-07-06_02h33.57.648,Colour_Asymmetry_Pilot,2022.1.3,Win32,39.51319741,62c50e9c1127f2cd403a315f,,,,,,,,,,,,,,,,,,,,,,,,,,,,,,,,,,,,,,,,,,,,,,,,,,,,,,,,,,,,,,,,,,,,,,,,,,,,,,,,,,,,,,,,,,,,,,,,,,,,,,,,,,,,,,,,,,,,,,,,,,,,,,,,,,,,,,,,,,,,,,,,,,,,,,,,,,,,,,,,,,,
0,10,10,13,1,,5bbfeaeb785edb0001fac427,62c53a74db91906583b6b51b,2022-07-06_02h33.57.648,Colour_Asymmetry_Pilot,2022.1.3,Win32,39.51319741,62c50e9c1127f2cd403a315f,,,,,,,,,,,,,,,,,,,,,,,,,,,,,,,,,,,,,,,,,,,,,,,,,,,,,,,,,,,,,,,,,,,,,,,,,,,,,,,,,,,,,,,,,,,,,,,,,,,,,,,,,,,,,,,,,,,,,,,,,,,,,,,,,,,,,,,,,,,,,,,,,,,,,,,,,,,,,,,,,,,
0,11,11,4,1,,5bbfeaeb785edb0001fac427,62c53a74db91906583b6b51b,2022-07-06_02h33.57.648,Colour_Asymmetry_Pilot,2022.1.3,Win32,39.51319741,62c50e9c1127f2cd403a315f,,,,,,,,,,,,,,,,,,,,,,,,,,,,,,,,,,,,,,,,,,,,,,,,,,,,,,,,,,,,,,,,,,,,,,,,,,,,,,,,,,,,,,,,,,,,,,,,,,,,,,,,,,,,,,,,,,,,,,,,,,,,,,,,,,,,,,,,,,,,,,,,,,,,,,,,,,,,,,,,,,,
0,12,12,80,1,,5bbfeaeb785edb0001fac427,62c53a74db91906583b6b51b,2022-07-06_02h33.57.648,Colour_Asymmetry_Pilot,2022.1.3,Win32,39.51319741,62c50e9c1127f2cd403a315f,,,,,,,,,,,,,,,,,,,,,,,,,,,,,,,,,,,,,,,,,,,,,,,,,,,,,,,,,,,,,,,,,,,,,,,,,,,,,,,,,,,,,,,,,,,,,,,,,,,,,,,,,,,,,,,,,,,,,,,,,,,,,,,,,,,,,,,,,,,,,,,,,,,,,,,,,,,,,,,,,,,
0,13,13,10,1,,5bbfeaeb785edb0001fac427,62c53a74db91906583b6b51b,2022-07-06_02h33.57.648,Colour_Asymmetry_Pilot,2022.1.3,Win32,39.51319741,62c50e9c1127f2cd403a315f,,,,,,,,,,,,,,,,,,,,,,,,,,,,,,,,,,,,,,,,,,,,,,,,,,,,,,,,,,,,,,,,,,,,,,,,,,,,,,,,,,,,,,,,,,,,,,,,,,,,,,,,,,,,,,,,,,,,,,,,,,,,,,,,,,,,,,,,,,,,,,,,,,,,,,,,,,,,,,,,,,,
0,14,14,59,1,,5bbfeaeb785edb0001fac427,62c53a74db91906583b6b51b,2022-07-06_02h33.57.648,Colour_Asymmetry_Pilot,2022.1.3,Win32,39.51319741,62c50e9c1127f2cd403a315f,,,,,,,,,,,,,,,,,,,,,,,,,,,,,,,,,,,,,,,,,,,,,,,,,,,,,,,,,,,,,,,,,,,,,,,,,,,,,,,,,,,,,,,,,,,,,,,,,,,,,,,,,,,,,,,,,,,,,,,,,,,,,,,,,,,,,,,,,,,,,,,,,,,,,,,,,,,,,,,,,,,
0,15,15,70,1,,5bbfeaeb785edb0001fac427,62c53a74db91906583b6b51b,2022-07-06_02h33.57.648,Colour_Asymmetry_Pilot,2022.1.3,Win32,39.51319741,62c50e9c1127f2cd403a315f,,,,,,,,,,,,,,,,,,,,,,,,,,,,,,,,,,,,,,,,,,,,,,,,,,,,,,,,,,,,,,,,,,,,,,,,,,,,,,,,,,,,,,,,,,,,,,,,,,,,,,,,,,,,,,,,,,,,,,,,,,,,,,,,,,,,,,,,,,,,,,,,,,,,,,,,,,,,,,,,,,,
0,16,16,30,1,,5bbfeaeb785edb0001fac427,62c53a74db91906583b6b51b,2022-07-06_02h33.57.648,Colour_Asymmetry_Pilot,2022.1.3,Win32,39.51319741,62c50e9c1127f2cd403a315f,,,,,,,,,,,,,,,,,,,,,,,,,,,,,,,,,,,,,,,,,,,,,,,,,,,,,,,,,,,,,,,,,,,,,,,,,,,,,,,,,,,,,,,,,,,,,,,,,,,,,,,,,,,,,,,,,,,,,,,,,,,,,,,,,,,,,,,,,,,,,,,,,,,,,,,,,,,,,,,,,,,
0,17,17,1,1,,5bbfeaeb785edb0001fac427,62c53a74db91906583b6b51b,2022-07-06_02h33.57.648,Colour_Asymmetry_Pilot,2022.1.3,Win32,39.51319741,62c50e9c1127f2cd403a315f,,,,,,,,,,,,,,,,,,,,,,,,,,,,,,,,,,,,,,,,,,,,,,,,,,,,,,,,,,,,,,,,,,,,,,,,,,,,,,,,,,,,,,,,,,,,,,,,,,,,,,,,,,,,,,,,,,,,,,,,,,,,,,,,,,,,,,,,,,,,,,,,,,,,,,,,,,,,,,,,,,,
0,18,18,87,1,,5bbfeaeb785edb0001fac427,62c53a74db91906583b6b51b,2022-07-06_02h33.57.648,Colour_Asymmetry_Pilot,2022.1.3,Win32,39.51319741,62c50e9c1127f2cd403a315f,,,,,,,,,,,,,,,,,,,,,,,,,,,,,,,,,,,,,,,,,,,,,,,,,,,,,,,,,,,,,,,,,,,,,,,,,,,,,,,,,,,,,,,,,,,,,,,,,,,,,,,,,,,,,,,,,,,,,,,,,,,,,,,,,,,,,,,,,,,,,,,,,,,,,,,,,,,,,,,,,,,
0,19,19,86,1,,5bbfeaeb785edb0001fac427,62c53a74db91906583b6b51b,2022-07-06_02h33.57.648,Colour_Asymmetry_Pilot,2022.1.3,Win32,39.51319741,62c50e9c1127f2cd403a315f,,,,,,,,,,,,,,,,,,,,,,,,,,,,,,,,,,,,,,,,,,,,,,,,,,,,,,,,,,,,,,,,,,,,,,,,,,,,,,,,,,,,,,,,,,,,,,,,,,,,,,,,,,,,,,,,,,,,,,,,,,,,,,,,,,,,,,,,,,,,,,,,,,,,,,,,,,,,,,,,,,,
0,20,20,8,1,,5bbfeaeb785edb0001fac427,62c53a74db91906583b6b51b,2022-07-06_02h33.57.648,Colour_Asymmetry_Pilot,2022.1.3,Win32,39.51319741,62c50e9c1127f2cd403a315f,,,,,,,,,,,,,,,,,,,,,,,,,,,,,,,,,,,,,,,,,,,,,,,,,,,,,,,,,,,,,,,,,,,,,,,,,,,,,,,,,,,,,,,,,,,,,,,,,,,,,,,,,,,,,,,,,,,,,,,,,,,,,,,,,,,,,,,,,,,,,,,,,,,,,,,,,,,,,,,,,,,
0,21,21,27,1,,5bbfeaeb785edb0001fac427,62c53a74db91906583b6b51b,2022-07-06_02h33.57.648,Colour_Asymmetry_Pilot,2022.1.3,Win32,39.51319741,62c50e9c1127f2cd403a315f,,,,,,,,,,,,,,,,,,,,,,,,,,,,,,,,,,,,,,,,,,,,,,,,,,,,,,,,,,,,,,,,,,,,,,,,,,,,,,,,,,,,,,,,,,,,,,,,,,,,,,,,,,,,,,,,,,,,,,,,,,,,,,,,,,,,,,,,,,,,,,,,,,,,,,,,,,,,,,,,,,,
0,22,22,84,1,,5bbfeaeb785edb0001fac427,62c53a74db91906583b6b51b,2022-07-06_02h33.57.648,Colour_Asymmetry_Pilot,2022.1.3,Win32,39.51319741,62c50e9c1127f2cd403a315f,,,,,,,,,,,,,,,,,,,,,,,,,,,,,,,,,,,,,,,,,,,,,,,,,,,,,,,,,,,,,,,,,,,,,,,,,,,,,,,,,,,,,,,,,,,,,,,,,,,,,,,,,,,,,,,,,,,,,,,,,,,,,,,,,,,,,,,,,,,,,,,,,,,,,,,,,,,,,,,,,,,
0,23,23,26,1,,5bbfeaeb785edb0001fac427,62c53a74db91906583b6b51b,2022-07-06_02h33.57.648,Colour_Asymmetry_Pilot,2022.1.3,Win32,39.51319741,62c50e9c1127f2cd403a315f,,,,,,,,,,,,,,,,,,,,,,,,,,,,,,,,,,,,,,,,,,,,,,,,,,,,,,,,,,,,,,,,,,,,,,,,,,,,,,,,,,,,,,,,,,,,,,,,,,,,,,,,,,,,,,,,,,,,,,,,,,,,,,,,,,,,,,,,,,,,,,,,,,,,,,,,,,,,,,,,,,,
0,24,24,90,1,,5bbfeaeb785edb0001fac427,62c53a74db91906583b6b51b,2022-07-06_02h33.57.648,Colour_Asymmetry_Pilot,2022.1.3,Win32,39.51319741,62c50e9c1127f2cd403a315f,,,,,,,,,,,,,,,,,,,,,,,,,,,,,,,,,,,,,,,,,,,,,,,,,,,,,,,,,,,,,,,,,,,,,,,,,,,,,,,,,,,,,,,,,,,,,,,,,,,,,,,,,,,,,,,,,,,,,,,,,,,,,,,,,,,,,,,,,,,,,,,,,,,,,,,,,,,,,,,,,,,
0,25,25,52,1,,5bbfeaeb785edb0001fac427,62c53a74db91906583b6b51b,2022-07-06_02h33.57.648,Colour_Asymmetry_Pilot,2022.1.3,Win32,39.51319741,62c50e9c1127f2cd403a315f,,,,,,,,,,,,,,,,,,,,,,,,,,,,,,,,,,,,,,,,,,,,,,,,,,,,,,,,,,,,,,,,,,,,,,,,,,,,,,,,,,,,,,,,,,,,,,,,,,,,,,,,,,,,,,,,,,,,,,,,,,,,,,,,,,,,,,,,,,,,,,,,,,,,,,,,,,,,,,,,,,,
0,26,26,65,1,,5bbfeaeb785edb0001fac427,62c53a74db91906583b6b51b,2022-07-06_02h33.57.648,Colour_Asymmetry_Pilot,2022.1.3,Win32,39.51319741,62c50e9c1127f2cd403a315f,,,,,,,,,,,,,,,,,,,,,,,,,,,,,,,,,,,,,,,,,,,,,,,,,,,,,,,,,,,,,,,,,,,,,,,,,,,,,,,,,,,,,,,,,,,,,,,,,,,,,,,,,,,,,,,,,,,,,,,,,,,,,,,,,,,,,,,,,,,,,,,,,,,,,,,,,,,,,,,,,,,
0,27,27,36,1,,5bbfeaeb785edb0001fac427,62c53a74db91906583b6b51b,2022-07-06_02h33.57.648,Colour_Asymmetry_Pilot,2022.1.3,Win32,39.51319741,62c50e9c1127f2cd403a315f,,,,,,,,,,,,,,,,,,,,,,,,,,,,,,,,,,,,,,,,,,,,,,,,,,,,,,,,,,,,,,,,,,,,,,,,,,,,,,,,,,,,,,,,,,,,,,,,,,,,,,,,,,,,,,,,,,,,,,,,,,,,,,,,,,,,,,,,,,,,,,,,,,,,,,,,,,,,,,,,,,,
0,28,28,32,1,,5bbfeaeb785edb0001fac427,62c53a74db91906583b6b51b,2022-07-06_02h33.57.648,Colour_Asymmetry_Pilot,2022.1.3,Win32,39.51319741,62c50e9c1127f2cd403a315f,,,,,,,,,,,,,,,,,,,,,,,,,,,,,,,,,,,,,,,,,,,,,,,,,,,,,,,,,,,,,,,,,,,,,,,,,,,,,,,,,,,,,,,,,,,,,,,,,,,,,,,,,,,,,,,,,,,,,,,,,,,,,,,,,,,,,,,,,,,,,,,,,,,,,,,,,,,,,,,,,,,
0,29,29,6,1,,5bbfeaeb785edb0001fac427,62c53a74db91906583b6b51b,2022-07-06_02h33.57.648,Colour_Asymmetry_Pilot,2022.1.3,Win32,39.51319741,62c50e9c1127f2cd403a315f,,,,,,,,,,,,,,,,,,,,,,,,,,,,,,,,,,,,,,,,,,,,,,,,,,,,,,,,,,,,,,,,,,,,,,,,,,,,,,,,,,,,,,,,,,,,,,,,,,,,,,,,,,,,,,,,,,,,,,,,,,,,,,,,,,,,,,,,,,,,,,,,,,,,,,,,,,,,,,,,,,,
0,30,30,92,1,,5bbfeaeb785edb0001fac427,62c53a74db91906583b6b51b,2022-07-06_02h33.57.648,Colour_Asymmetry_Pilot,2022.1.3,Win32,39.51319741,62c50e9c1127f2cd403a315f,,,,,,,,,,,,,,,,,,,,,,,,,,,,,,,,,,,,,,,,,,,,,,,,,,,,,,,,,,,,,,,,,,,,,,,,,,,,,,,,,,,,,,,,,,,,,,,,,,,,,,,,,,,,,,,,,,,,,,,,,,,,,,,,,,,,,,,,,,,,,,,,,,,,,,,,,,,,,,,,,,,
0,31,31,15,1,,5bbfeaeb785edb0001fac427,62c53a74db91906583b6b51b,2022-07-06_02h33.57.648,Colour_Asymmetry_Pilot,2022.1.3,Win32,39.51319741,62c50e9c1127f2cd403a315f,,,,,,,,,,,,,,,,,,,,,,,,,,,,,,,,,,,,,,,,,,,,,,,,,,,,,,,,,,,,,,,,,,,,,,,,,,,,,,,,,,,,,,,,,,,,,,,,,,,,,,,,,,,,,,,,,,,,,,,,,,,,,,,,,,,,,,,,,,,,,,,,,,,,,,,,,,,,,,,,,,,
0,32,32,91,1,,5bbfeaeb785edb0001fac427,62c53a74db91906583b6b51b,2022-07-06_02h33.57.648,Colour_Asymmetry_Pilot,2022.1.3,Win32,39.51319741,62c50e9c1127f2cd403a315f,,,,,,,,,,,,,,,,,,,,,,,,,,,,,,,,,,,,,,,,,,,,,,,,,,,,,,,,,,,,,,,,,,,,,,,,,,,,,,,,,,,,,,,,,,,,,,,,,,,,,,,,,,,,,,,,,,,,,,,,,,,,,,,,,,,,,,,,,,,,,,,,,,,,,,,,,,,,,,,,,,,
0,33,33,71,1,,5bbfeaeb785edb0001fac427,62c53a74db91906583b6b51b,2022-07-06_02h33.57.648,Colour_Asymmetry_Pilot,2022.1.3,Win32,39.51319741,62c50e9c1127f2cd403a315f,,,,,,,,,,,,,,,,,,,,,,,,,,,,,,,,,,,,,,,,,,,,,,,,,,,,,,,,,,,,,,,,,,,,,,,,,,,,,,,,,,,,,,,,,,,,,,,,,,,,,,,,,,,,,,,,,,,,,,,,,,,,,,,,,,,,,,,,,,,,,,,,,,,,,,,,,,,,,,,,,,,
0,34,34,17,1,,5bbfeaeb785edb0001fac427,62c53a74db91906583b6b51b,2022-07-06_02h33.57.648,Colour_Asymmetry_Pilot,2022.1.3,Win32,39.51319741,62c50e9c1127f2cd403a315f,,,,,,,,,,,,,,,,,,,,,,,,,,,,,,,,,,,,,,,,,,,,,,,,,,,,,,,,,,,,,,,,,,,,,,,,,,,,,,,,,,,,,,,,,,,,,,,,,,,,,,,,,,,,,,,,,,,,,,,,,,,,,,,,,,,,,,,,,,,,,,,,,,,,,,,,,,,,,,,,,,,
0,35,35,73,1,,5bbfeaeb785edb0001fac427,62c53a74db91906583b6b51b,2022-07-06_02h33.57.648,Colour_Asymmetry_Pilot,2022.1.3,Win32,39.51319741,62c50e9c1127f2cd403a315f,,,,,,,,,,,,,,,,,,,,,,,,,,,,,,,,,,,,,,,,,,,,,,,,,,,,,,,,,,,,,,,,,,,,,,,,,,,,,,,,,,,,,,,,,,,,,,,,,,,,,,,,,,,,,,,,,,,,,,,,,,,,,,,,,,,,,,,,,,,,,,,,,,,,,,,,,,,,,,,,,,,
0,36,36,46,1,,5bbfeaeb785edb0001fac427,62c53a74db91906583b6b51b,2022-07-06_02h33.57.648,Colour_Asymmetry_Pilot,2022.1.3,Win32,39.51319741,62c50e9c1127f2cd403a315f,,,,,,,,,,,,,,,,,,,,,,,,,,,,,,,,,,,,,,,,,,,,,,,,,,,,,,,,,,,,,,,,,,,,,,,,,,,,,,,,,,,,,,,,,,,,,,,,,,,,,,,,,,,,,,,,,,,,,,,,,,,,,,,,,,,,,,,,,,,,,,,,,,,,,,,,,,,,,,,,,,,
0,37,37,38,1,,5bbfeaeb785edb0001fac427,62c53a74db91906583b6b51b,2022-07-06_02h33.57.648,Colour_Asymmetry_Pilot,2022.1.3,Win32,39.51319741,62c50e9c1127f2cd403a315f,,,,,,,,,,,,,,,,,,,,,,,,,,,,,,,,,,,,,,,,,,,,,,,,,,,,,,,,,,,,,,,,,,,,,,,,,,,,,,,,,,,,,,,,,,,,,,,,,,,,,,,,,,,,,,,,,,,,,,,,,,,,,,,,,,,,,,,,,,,,,,,,,,,,,,,,,,,,,,,,,,,
0,38,38,60,1,,5bbfeaeb785edb0001fac427,62c53a74db91906583b6b51b,2022-07-06_02h33.57.648,Colour_Asymmetry_Pilot,2022.1.3,Win32,39.51319741,62c50e9c1127f2cd403a315f,,,,,,,,,,,,,,,,,,,,,,,,,,,,,,,,,,,,,,,,,,,,,,,,,,,,,,,,,,,,,,,,,,,,,,,,,,,,,,,,,,,,,,,,,,,,,,,,,,,,,,,,,,,,,,,,,,,,,,,,,,,,,,,,,,,,,,,,,,,,,,,,,,,,,,,,,,,,,,,,,,,
0,39,39,25,1,,5bbfeaeb785edb0001fac427,62c53a74db91906583b6b51b,2022-07-06_02h33.57.648,Colour_Asymmetry_Pilot,2022.1.3,Win32,39.51319741,62c50e9c1127f2cd403a315f,,,,,,,,,,,,,,,,,,,,,,,,,,,,,,,,,,,,,,,,,,,,,,,,,,,,,,,,,,,,,,,,,,,,,,,,,,,,,,,,,,,,,,,,,,,,,,,,,,,,,,,,,,,,,,,,,,,,,,,,,,,,,,,,,,,,,,,,,,,,,,,,,,,,,,,,,,,,,,,,,,,
0,40,40,49,1,,5bbfeaeb785edb0001fac427,62c53a74db91906583b6b51b,2022-07-06_02h33.57.648,Colour_Asymmetry_Pilot,2022.1.3,Win32,39.51319741,62c50e9c1127f2cd403a315f,,,,,,,,,,,,,,,,,,,,,,,,,,,,,,,,,,,,,,,,,,,,,,,,,,,,,,,,,,,,,,,,,,,,,,,,,,,,,,,,,,,,,,,,,,,,,,,,,,,,,,,,,,,,,,,,,,,,,,,,,,,,,,,,,,,,,,,,,,,,,,,,,,,,,,,,,,,,,,,,,,,
0,41,41,3,1,,5bbfeaeb785edb0001fac427,62c53a74db91906583b6b51b,2022-07-06_02h33.57.648,Colour_Asymmetry_Pilot,2022.1.3,Win32,39.51319741,62c50e9c1127f2cd403a315f,,,,,,,,,,,,,,,,,,,,,,,,,,,,,,,,,,,,,,,,,,,,,,,,,,,,,,,,,,,,,,,,,,,,,,,,,,,,,,,,,,,,,,,,,,,,,,,,,,,,,,,,,,,,,,,,,,,,,,,,,,,,,,,,,,,,,,,,,,,,,,,,,,,,,,,,,,,,,,,,,,,
0,42,42,82,1,,5bbfeaeb785edb0001fac427,62c53a74db91906583b6b51b,2022-07-06_02h33.57.648,Colour_Asymmetry_Pilot,2022.1.3,Win32,39.51319741,62c50e9c1127f2cd403a315f,,,,,,,,,,,,,,,,,,,,,,,,,,,,,,,,,,,,,,,,,,,,,,,,,,,,,,,,,,,,,,,,,,,,,,,,,,,,,,,,,,,,,,,,,,,,,,,,,,,,,,,,,,,,,,,,,,,,,,,,,,,,,,,,,,,,,,,,,,,,,,,,,,,,,,,,,,,,,,,,,,,
0,43,43,76,1,,5bbfeaeb785edb0001fac427,62c53a74db91906583b6b51b,2022-07-06_02h33.57.648,Colour_Asymmetry_Pilot,2022.1.3,Win32,39.51319741,62c50e9c1127f2cd403a315f,,,,,,,,,,,,,,,,,,,,,,,,,,,,,,,,,,,,,,,,,,,,,,,,,,,,,,,,,,,,,,,,,,,,,,,,,,,,,,,,,,,,,,,,,,,,,,,,,,,,,,,,,,,,,,,,,,,,,,,,,,,,,,,,,,,,,,,,,,,,,,,,,,,,,,,,,,,,,,,,,,,
0,44,44,56,1,,5bbfeaeb785edb0001fac427,62c53a74db91906583b6b51b,2022-07-06_02h33.57.648,Colour_Asymmetry_Pilot,2022.1.3,Win32,39.51319741,62c50e9c1127f2cd403a315f,,,,,,,,,,,,,,,,,,,,,,,,,,,,,,,,,,,,,,,,,,,,,,,,,,,,,,,,,,,,,,,,,,,,,,,,,,,,,,,,,,,,,,,,,,,,,,,,,,,,,,,,,,,,,,,,,,,,,,,,,,,,,,,,,,,,,,,,,,,,,,,,,,,,,,,,,,,,,,,,,,,
0,45,45,37,1,,5bbfeaeb785edb0001fac427,62c53a74db91906583b6b51b,2022-07-06_02h33.57.648,Colour_Asymmetry_Pilot,2022.1.3,Win32,39.51319741,62c50e9c1127f2cd403a315f,,,,,,,,,,,,,,,,,,,,,,,,,,,,,,,,,,,,,,,,,,,,,,,,,,,,,,,,,,,,,,,,,,,,,,,,,,,,,,,,,,,,,,,,,,,,,,,,,,,,,,,,,,,,,,,,,,,,,,,,,,,,,,,,,,,,,,,,,,,,,,,,,,,,,,,,,,,,,,,,,,,
0,46,46,2,1,,5bbfeaeb785edb0001fac427,62c53a74db91906583b6b51b,2022-07-06_02h33.57.648,Colour_Asymmetry_Pilot,2022.1.3,Win32,39.51319741,62c50e9c1127f2cd403a315f,,,,,,,,,,,,,,,,,,,,,,,,,,,,,,,,,,,,,,,,,,,,,,,,,,,,,,,,,,,,,,,,,,,,,,,,,,,,,,,,,,,,,,,,,,,,,,,,,,,,,,,,,,,,,,,,,,,,,,,,,,,,,,,,,,,,,,,,,,,,,,,,,,,,,,,,,,,,,,,,,,,
0,47,47,72,1,,5bbfeaeb785edb0001fac427,62c53a74db91906583b6b51b,2022-07-06_02h33.57.648,Colour_Asymmetry_Pilot,2022.1.3,Win32,39.51319741,62c50e9c1127f2cd403a315f,,,,,,,,,,,,,,,,,,,,,,,,,,,,,,,,,,,,,,,,,,,,,,,,,,,,,,,,,,,,,,,,,,,,,,,,,,,,,,,,,,,,,,,,,,,,,,,,,,,,,,,,,,,,,,,,,,,,,,,,,,,,,,,,,,,,,,,,,,,,,,,,,,,,,,,,,,,,,,,,,,,
0,48,48,83,1,,5bbfeaeb785edb0001fac427,62c53a74db91906583b6b51b,2022-07-06_02h33.57.648,Colour_Asymmetry_Pilot,2022.1.3,Win32,39.51319741,62c50e9c1127f2cd403a315f,,,,,,,,,,,,,,,,,,,,,,,,,,,,,,,,,,,,,,,,,,,,,,,,,,,,,,,,,,,,,,,,,,,,,,,,,,,,,,,,,,,,,,,,,,,,,,,,,,,,,,,,,,,,,,,,,,,,,,,,,,,,,,,,,,,,,,,,,,,,,,,,,,,,,,,,,,,,,,,,,,,
0,49,49,34,1,,5bbfeaeb785edb0001fac427,62c53a74db91906583b6b51b,2022-07-06_02h33.57.648,Colour_Asymmetry_Pilot,2022.1.3,Win32,39.51319741,62c50e9c1127f2cd403a315f,,,,,,,,,,,,,,,,,,,,,,,,,,,,,,,,,,,,,,,,,,,,,,,,,,,,,,,,,,,,,,,,,,,,,,,,,,,,,,,,,,,,,,,,,,,,,,,,,,,,,,,,,,,,,,,,,,,,,,,,,,,,,,,,,,,,,,,,,,,,,,,,,,,,,,,,,,,,,,,,,,,
0,50,50,81,1,,5bbfeaeb785edb0001fac427,62c53a74db91906583b6b51b,2022-07-06_02h33.57.648,Colour_Asymmetry_Pilot,2022.1.3,Win32,39.51319741,62c50e9c1127f2cd403a315f,,,,,,,,,,,,,,,,,,,,,,,,,,,,,,,,,,,,,,,,,,,,,,,,,,,,,,,,,,,,,,,,,,,,,,,,,,,,,,,,,,,,,,,,,,,,,,,,,,,,,,,,,,,,,,,,,,,,,,,,,,,,,,,,,,,,,,,,,,,,,,,,,,,,,,,,,,,,,,,,,,,
0,51,51,0,1,,5bbfeaeb785edb0001fac427,62c53a74db91906583b6b51b,2022-07-06_02h33.57.648,Colour_Asymmetry_Pilot,2022.1.3,Win32,39.51319741,62c50e9c1127f2cd403a315f,,,,,,,,,,,,,,,,,,,,,,,,,,,,,,,,,,,,,,,,,,,,,,,,,,,,,,,,,,,,,,,,,,,,,,,,,,,,,,,,,,,,,,,,,,,,,,,,,,,,,,,,,,,,,,,,,,,,,,,,,,,,,,,,,,,,,,,,,,,,,,,,,,,,,,,,,,,,,,,,,,,
0,52,52,53,1,,5bbfeaeb785edb0001fac427,62c53a74db91906583b6b51b,2022-07-06_02h33.57.648,Colour_Asymmetry_Pilot,2022.1.3,Win32,39.51319741,62c50e9c1127f2cd403a315f,,,,,,,,,,,,,,,,,,,,,,,,,,,,,,,,,,,,,,,,,,,,,,,,,,,,,,,,,,,,,,,,,,,,,,,,,,,,,,,,,,,,,,,,,,,,,,,,,,,,,,,,,,,,,,,,,,,,,,,,,,,,,,,,,,,,,,,,,,,,,,,,,,,,,,,,,,,,,,,,,,,
0,53,53,45,1,,5bbfeaeb785edb0001fac427,62c53a74db91906583b6b51b,2022-07-06_02h33.57.648,Colour_Asymmetry_Pilot,2022.1.3,Win32,39.51319741,62c50e9c1127f2cd403a315f,,,,,,,,,,,,,,,,,,,,,,,,,,,,,,,,,,,,,,,,,,,,,,,,,,,,,,,,,,,,,,,,,,,,,,,,,,,,,,,,,,,,,,,,,,,,,,,,,,,,,,,,,,,,,,,,,,,,,,,,,,,,,,,,,,,,,,,,,,,,,,,,,,,,,,,,,,,,,,,,,,,
0,54,54,24,1,,5bbfeaeb785edb0001fac427,62c53a74db91906583b6b51b,2022-07-06_02h33.57.648,Colour_Asymmetry_Pilot,2022.1.3,Win32,39.51319741,62c50e9c1127f2cd403a315f,,,,,,,,,,,,,,,,,,,,,,,,,,,,,,,,,,,,,,,,,,,,,,,,,,,,,,,,,,,,,,,,,,,,,,,,,,,,,,,,,,,,,,,,,,,,,,,,,,,,,,,,,,,,,,,,,,,,,,,,,,,,,,,,,,,,,,,,,,,,,,,,,,,,,,,,,,,,,,,,,,,
0,55,55,5,1,,5bbfeaeb785edb0001fac427,62c53a74db91906583b6b51b,2022-07-06_02h33.57.648,Colour_Asymmetry_Pilot,2022.1.3,Win32,39.51319741,62c50e9c1127f2cd403a315f,,,,,,,,,,,,,,,,,,,,,,,,,,,,,,,,,,,,,,,,,,,,,,,,,,,,,,,,,,,,,,,,,,,,,,,,,,,,,,,,,,,,,,,,,,,,,,,,,,,,,,,,,,,,,,,,,,,,,,,,,,,,,,,,,,,,,,,,,,,,,,,,,,,,,,,,,,,,,,,,,,,
0,56,56,51,1,,5bbfeaeb785edb0001fac427,62c53a74db91906583b6b51b,2022-07-06_02h33.57.648,Colour_Asymmetry_Pilot,2022.1.3,Win32,39.51319741,62c50e9c1127f2cd403a315f,,,,,,,,,,,,,,,,,,,,,,,,,,,,,,,,,,,,,,,,,,,,,,,,,,,,,,,,,,,,,,,,,,,,,,,,,,,,,,,,,,,,,,,,,,,,,,,,,,,,,,,,,,,,,,,,,,,,,,,,,,,,,,,,,,,,,,,,,,,,,,,,,,,,,,,,,,,,,,,,,,,
0,57,57,12,1,,5bbfeaeb785edb0001fac427,62c53a74db91906583b6b51b,2022-07-06_02h33.57.648,Colour_Asymmetry_Pilot,2022.1.3,Win32,39.51319741,62c50e9c1127f2cd403a315f,,,,,,,,,,,,,,,,,,,,,,,,,,,,,,,,,,,,,,,,,,,,,,,,,,,,,,,,,,,,,,,,,,,,,,,,,,,,,,,,,,,,,,,,,,,,,,,,,,,,,,,,,,,,,,,,,,,,,,,,,,,,,,,,,,,,,,,,,,,,,,,,,,,,,,,,,,,,,,,,,,,
0,58,58,44,1,,5bbfeaeb785edb0001fac427,62c53a74db91906583b6b51b,2022-07-06_02h33.57.648,Colour_Asymmetry_Pilot,2022.1.3,Win32,39.51319741,62c50e9c1127f2cd403a315f,,,,,,,,,,,,,,,,,,,,,,,,,,,,,,,,,,,,,,,,,,,,,,,,,,,,,,,,,,,,,,,,,,,,,,,,,,,,,,,,,,,,,,,,,,,,,,,,,,,,,,,,,,,,,,,,,,,,,,,,,,,,,,,,,,,,,,,,,,,,,,,,,,,,,,,,,,,,,,,,,,,
0,59,59,67,1,,5bbfeaeb785edb0001fac427,62c53a74db91906583b6b51b,2022-07-06_02h33.57.648,Colour_Asymmetry_Pilot,2022.1.3,Win32,39.51319741,62c50e9c1127f2cd403a315f,,,,,,,,,,,,,,,,,,,,,,,,,,,,,,,,,,,,,,,,,,,,,,,,,,,,,,,,,,,,,,,,,,,,,,,,,,,,,,,,,,,,,,,,,,,,,,,,,,,,,,,,,,,,,,,,,,,,,,,,,,,,,,,,,,,,,,,,,,,,,,,,,,,,,,,,,,,,,,,,,,,
0,60,60,43,1,,5bbfeaeb785edb0001fac427,62c53a74db91906583b6b51b,2022-07-06_02h33.57.648,Colour_Asymmetry_Pilot,2022.1.3,Win32,39.51319741,62c50e9c1127f2cd403a315f,,,,,,,,,,,,,,,,,,,,,,,,,,,,,,,,,,,,,,,,,,,,,,,,,,,,,,,,,,,,,,,,,,,,,,,,,,,,,,,,,,,,,,,,,,,,,,,,,,,,,,,,,,,,,,,,,,,,,,,,,,,,,,,,,,,,,,,,,,,,,,,,,,,,,,,,,,,,,,,,,,,
0,61,61,54,1,,5bbfeaeb785edb0001fac427,62c53a74db91906583b6b51b,2022-07-06_02h33.57.648,Colour_Asymmetry_Pilot,2022.1.3,Win32,39.51319741,62c50e9c1127f2cd403a315f,,,,,,,,,,,,,,,,,,,,,,,,,,,,,,,,,,,,,,,,,,,,,,,,,,,,,,,,,,,,,,,,,,,,,,,,,,,,,,,,,,,,,,,,,,,,,,,,,,,,,,,,,,,,,,,,,,,,,,,,,,,,,,,,,,,,,,,,,,,,,,,,,,,,,,,,,,,,,,,,,,,
0,62,62,33,1,,5bbfeaeb785edb0001fac427,62c53a74db91906583b6b51b,2022-07-06_02h33.57.648,Colour_Asymmetry_Pilot,2022.1.3,Win32,39.51319741,62c50e9c1127f2cd403a315f,,,,,,,,,,,,,,,,,,,,,,,,,,,,,,,,,,,,,,,,,,,,,,,,,,,,,,,,,,,,,,,,,,,,,,,,,,,,,,,,,,,,,,,,,,,,,,,,,,,,,,,,,,,,,,,,,,,,,,,,,,,,,,,,,,,,,,,,,,,,,,,,,,,,,,,,,,,,,,,,,,,
0,63,63,74,1,,5bbfeaeb785edb0001fac427,62c53a74db91906583b6b51b,2022-07-06_02h33.57.648,Colour_Asymmetry_Pilot,2022.1.3,Win32,39.51319741,62c50e9c1127f2cd403a315f,,,,,,,,,,,,,,,,,,,,,,,,,,,,,,,,,,,,,,,,,,,,,,,,,,,,,,,,,,,,,,,,,,,,,,,,,,,,,,,,,,,,,,,,,,,,,,,,,,,,,,,,,,,,,,,,,,,,,,,,,,,,,,,,,,,,,,,,,,,,,,,,,,,,,,,,,,,,,,,,,,,
0,64,64,47,1,,5bbfeaeb785edb0001fac427,62c53a74db91906583b6b51b,2022-07-06_02h33.57.648,Colour_Asymmetry_Pilot,2022.1.3,Win32,39.51319741,62c50e9c1127f2cd403a315f,,,,,,,,,,,,,,,,,,,,,,,,,,,,,,,,,,,,,,,,,,,,,,,,,,,,,,,,,,,,,,,,,,,,,,,,,,,,,,,,,,,,,,,,,,,,,,,,,,,,,,,,,,,,,,,,,,,,,,,,,,,,,,,,,,,,,,,,,,,,,,,,,,,,,,,,,,,,,,,,,,,
0,65,65,19,1,,5bbfeaeb785edb0001fac427,62c53a74db91906583b6b51b,2022-07-06_02h33.57.648,Colour_Asymmetry_Pilot,2022.1.3,Win32,39.51319741,62c50e9c1127f2cd403a315f,,,,,,,,,,,,,,,,,,,,,,,,,,,,,,,,,,,,,,,,,,,,,,,,,,,,,,,,,,,,,,,,,,,,,,,,,,,,,,,,,,,,,,,,,,,,,,,,,,,,,,,,,,,,,,,,,,,,,,,,,,,,,,,,,,,,,,,,,,,,,,,,,,,,,,,,,,,,,,,,,,,
0,66,66,16,1,,5bbfeaeb785edb0001fac427,62c53a74db91906583b6b51b,2022-07-06_02h33.57.648,Colour_Asymmetry_Pilot,2022.1.3,Win32,39.51319741,62c50e9c1127f2cd403a315f,,,,,,,,,,,,,,,,,,,,,,,,,,,,,,,,,,,,,,,,,,,,,,,,,,,,,,,,,,,,,,,,,,,,,,,,,,,,,,,,,,,,,,,,,,,,,,,,,,,,,,,,,,,,,,,,,,,,,,,,,,,,,,,,,,,,,,,,,,,,,,,,,,,,,,,,,,,,,,,,,,,
0,67,67,75,1,,5bbfeaeb785edb0001fac427,62c53a74db91906583b6b51b,2022-07-06_02h33.57.648,Colour_Asymmetry_Pilot,2022.1.3,Win32,39.51319741,62c50e9c1127f2cd403a315f,,,,,,,,,,,,,,,,,,,,,,,,,,,,,,,,,,,,,,,,,,,,,,,,,,,,,,,,,,,,,,,,,,,,,,,,,,,,,,,,,,,,,,,,,,,,,,,,,,,,,,,,,,,,,,,,,,,,,,,,,,,,,,,,,,,,,,,,,,,,,,,,,,,,,,,,,,,,,,,,,,,
0,68,68,57,1,,5bbfeaeb785edb0001fac427,62c53a74db91906583b6b51b,2022-07-06_02h33.57.648,Colour_Asymmetry_Pilot,2022.1.3,Win32,39.51319741,62c50e9c1127f2cd403a315f,,,,,,,,,,,,,,,,,,,,,,,,,,,,,,,,,,,,,,,,,,,,,,,,,,,,,,,,,,,,,,,,,,,,,,,,,,,,,,,,,,,,,,,,,,,,,,,,,,,,,,,,,,,,,,,,,,,,,,,,,,,,,,,,,,,,,,,,,,,,,,,,,,,,,,,,,,,,,,,,,,,
0,69,69,39,1,,5bbfeaeb785edb0001fac427,62c53a74db91906583b6b51b,2022-07-06_02h33.57.648,Colour_Asymmetry_Pilot,2022.1.3,Win32,39.51319741,62c50e9c1127f2cd403a315f,,,,,,,,,,,,,,,,,,,,,,,,,,,,,,,,,,,,,,,,,,,,,,,,,,,,,,,,,,,,,,,,,,,,,,,,,,,,,,,,,,,,,,,,,,,,,,,,,,,,,,,,,,,,,,,,,,,,,,,,,,,,,,,,,,,,,,,,,,,,,,,,,,,,,,,,,,,,,,,,,,,
0,70,70,78,1,,5bbfeaeb785edb0001fac427,62c53a74db91906583b6b51b,2022-07-06_02h33.57.648,Colour_Asymmetry_Pilot,2022.1.3,Win32,39.51319741,62c50e9c1127f2cd403a315f,,,,,,,,,,,,,,,,,,,,,,,,,,,,,,,,,,,,,,,,,,,,,,,,,,,,,,,,,,,,,,,,,,,,,,,,,,,,,,,,,,,,,,,,,,,,,,,,,,,,,,,,,,,,,,,,,,,,,,,,,,,,,,,,,,,,,,,,,,,,,,,,,,,,,,,,,,,,,,,,,,,
0,71,71,64,1,,5bbfeaeb785edb0001fac427,62c53a74db91906583b6b51b,2022-07-06_02h33.57.648,Colour_Asymmetry_Pilot,2022.1.3,Win32,39.51319741,62c50e9c1127f2cd403a315f,,,,,,,,,,,,,,,,,,,,,,,,,,,,,,,,,,,,,,,,,,,,,,,,,,,,,,,,,,,,,,,,,,,,,,,,,,,,,,,,,,,,,,,,,,,,,,,,,,,,,,,,,,,,,,,,,,,,,,,,,,,,,,,,,,,,,,,,,,,,,,,,,,,,,,,,,,,,,,,,,,,
0,72,72,58,1,,5bbfeaeb785edb0001fac427,62c53a74db91906583b6b51b,2022-07-06_02h33.57.648,Colour_Asymmetry_Pilot,2022.1.3,Win32,39.51319741,62c50e9c1127f2cd403a315f,,,,,,,,,,,,,,,,,,,,,,,,,,,,,,,,,,,,,,,,,,,,,,,,,,,,,,,,,,,,,,,,,,,,,,,,,,,,,,,,,,,,,,,,,,,,,,,,,,,,,,,,,,,,,,,,,,,,,,,,,,,,,,,,,,,,,,,,,,,,,,,,,,,,,,,,,,,,,,,,,,,
0,73,73,35,1,,5bbfeaeb785edb0001fac427,62c53a74db91906583b6b51b,2022-07-06_02h33.57.648,Colour_Asymmetry_Pilot,2022.1.3,Win32,39.51319741,62c50e9c1127f2cd403a315f,,,,,,,,,,,,,,,,,,,,,,,,,,,,,,,,,,,,,,,,,,,,,,,,,,,,,,,,,,,,,,,,,,,,,,,,,,,,,,,,,,,,,,,,,,,,,,,,,,,,,,,,,,,,,,,,,,,,,,,,,,,,,,,,,,,,,,,,,,,,,,,,,,,,,,,,,,,,,,,,,,,
0,74,74,62,1,,5bbfeaeb785edb0001fac427,62c53a74db91906583b6b51b,2022-07-06_02h33.57.648,Colour_Asymmetry_Pilot,2022.1.3,Win32,39.51319741,62c50e9c1127f2cd403a315f,,,,,,,,,,,,,,,,,,,,,,,,,,,,,,,,,,,,,,,,,,,,,,,,,,,,,,,,,,,,,,,,,,,,,,,,,,,,,,,,,,,,,,,,,,,,,,,,,,,,,,,,,,,,,,,,,,,,,,,,,,,,,,,,,,,,,,,,,,,,,,,,,,,,,,,,,,,,,,,,,,,
0,75,75,14,1,,5bbfeaeb785edb0001fac427,62c53a74db91906583b6b51b,2022-07-06_02h33.57.648,Colour_Asymmetry_Pilot,2022.1.3,Win32,39.51319741,62c50e9c1127f2cd403a315f,,,,,,,,,,,,,,,,,,,,,,,,,,,,,,,,,,,,,,,,,,,,,,,,,,,,,,,,,,,,,,,,,,,,,,,,,,,,,,,,,,,,,,,,,,,,,,,,,,,,,,,,,,,,,,,,,,,,,,,,,,,,,,,,,,,,,,,,,,,,,,,,,,,,,,,,,,,,,,,,,,,
0,76,76,61,1,,5bbfeaeb785edb0001fac427,62c53a74db91906583b6b51b,2022-07-06_02h33.57.648,Colour_Asymmetry_Pilot,2022.1.3,Win32,39.51319741,62c50e9c1127f2cd403a315f,,,,,,,,,,,,,,,,,,,,,,,,,,,,,,,,,,,,,,,,,,,,,,,,,,,,,,,,,,,,,,,,,,,,,,,,,,,,,,,,,,,,,,,,,,,,,,,,,,,,,,,,,,,,,,,,,,,,,,,,,,,,,,,,,,,,,,,,,,,,,,,,,,,,,,,,,,,,,,,,,,,
0,77,77,69,1,,5bbfeaeb785edb0001fac427,62c53a74db91906583b6b51b,2022-07-06_02h33.57.648,Colour_Asymmetry_Pilot,2022.1.3,Win32,39.51319741,62c50e9c1127f2cd403a315f,,,,,,,,,,,,,,,,,,,,,,,,,,,,,,,,,,,,,,,,,,,,,,,,,,,,,,,,,,,,,,,,,,,,,,,,,,,,,,,,,,,,,,,,,,,,,,,,,,,,,,,,,,,,,,,,,,,,,,,,,,,,,,,,,,,,,,,,,,,,,,,,,,,,,,,,,,,,,,,,,,,
0,78,78,55,1,,5bbfeaeb785edb0001fac427,62c53a74db91906583b6b51b,2022-07-06_02h33.57.648,Colour_Asymmetry_Pilot,2022.1.3,Win32,39.51319741,62c50e9c1127f2cd403a315f,,,,,,,,,,,,,,,,,,,,,,,,,,,,,,,,,,,,,,,,,,,,,,,,,,,,,,,,,,,,,,,,,,,,,,,,,,,,,,,,,,,,,,,,,,,,,,,,,,,,,,,,,,,,,,,,,,,,,,,,,,,,,,,,,,,,,,,,,,,,,,,,,,,,,,,,,,,,,,,,,,,
0,79,79,18,1,,5bbfeaeb785edb0001fac427,62c53a74db91906583b6b51b,2022-07-06_02h33.57.648,Colour_Asymmetry_Pilot,2022.1.3,Win32,39.51319741,62c50e9c1127f2cd403a315f,,,,,,,,,,,,,,,,,,,,,,,,,,,,,,,,,,,,,,,,,,,,,,,,,,,,,,,,,,,,,,,,,,,,,,,,,,,,,,,,,,,,,,,,,,,,,,,,,,,,,,,,,,,,,,,,,,,,,,,,,,,,,,,,,,,,,,,,,,,,,,,,,,,,,,,,,,,,,,,,,,,
0,80,80,22,1,,5bbfeaeb785edb0001fac427,62c53a74db91906583b6b51b,2022-07-06_02h33.57.648,Colour_Asymmetry_Pilot,2022.1.3,Win32,39.51319741,62c50e9c1127f2cd403a315f,,,,,,,,,,,,,,,,,,,,,,,,,,,,,,,,,,,,,,,,,,,,,,,,,,,,,,,,,,,,,,,,,,,,,,,,,,,,,,,,,,,,,,,,,,,,,,,,,,,,,,,,,,,,,,,,,,,,,,,,,,,,,,,,,,,,,,,,,,,,,,,,,,,,,,,,,,,,,,,,,,,
0,81,81,66,1,,5bbfeaeb785edb0001fac427,62c53a74db91906583b6b51b,2022-07-06_02h33.57.648,Colour_Asymmetry_Pilot,2022.1.3,Win32,39.51319741,62c50e9c1127f2cd403a315f,,,,,,,,,,,,,,,,,,,,,,,,,,,,,,,,,,,,,,,,,,,,,,,,,,,,,,,,,,,,,,,,,,,,,,,,,,,,,,,,,,,,,,,,,,,,,,,,,,,,,,,,,,,,,,,,,,,,,,,,,,,,,,,,,,,,,,,,,,,,,,,,,,,,,,,,,,,,,,,,,,,
0,82,82,77,1,,5bbfeaeb785edb0001fac427,62c53a74db91906583b6b51b,2022-07-06_02h33.57.648,Colour_Asymmetry_Pilot,2022.1.3,Win32,39.51319741,62c50e9c1127f2cd403a315f,,,,,,,,,,,,,,,,,,,,,,,,,,,,,,,,,,,,,,,,,,,,,,,,,,,,,,,,,,,,,,,,,,,,,,,,,,,,,,,,,,,,,,,,,,,,,,,,,,,,,,,,,,,,,,,,,,,,,,,,,,,,,,,,,,,,,,,,,,,,,,,,,,,,,,,,,,,,,,,,,,,
0,83,83,9,1,,5bbfeaeb785edb0001fac427,62c53a74db91906583b6b51b,2022-07-06_02h33.57.648,Colour_Asymmetry_Pilot,2022.1.3,Win32,39.51319741,62c50e9c1127f2cd403a315f,,,,,,,,,,,,,,,,,,,,,,,,,,,,,,,,,,,,,,,,,,,,,,,,,,,,,,,,,,,,,,,,,,,,,,,,,,,,,,,,,,,,,,,,,,,,,,,,,,,,,,,,,,,,,,,,,,,,,,,,,,,,,,,,,,,,,,,,,,,,,,,,,,,,,,,,,,,,,,,,,,,
0,84,84,41,1,,5bbfeaeb785edb0001fac427,62c53a74db91906583b6b51b,2022-07-06_02h33.57.648,Colour_Asymmetry_Pilot,2022.1.3,Win32,39.51319741,62c50e9c1127f2cd403a315f,,,,,,,,,,,,,,,,,,,,,,,,,,,,,,,,,,,,,,,,,,,,,,,,,,,,,,,,,,,,,,,,,,,,,,,,,,,,,,,,,,,,,,,,,,,,,,,,,,,,,,,,,,,,,,,,,,,,,,,,,,,,,,,,,,,,,,,,,,,,,,,,,,,,,,,,,,,,,,,,,,,
0,85,85,50,1,,5bbfeaeb785edb0001fac427,62c53a74db91906583b6b51b,2022-07-06_02h33.57.648,Colour_Asymmetry_Pilot,2022.1.3,Win32,39.51319741,62c50e9c1127f2cd403a315f,,,,,,,,,,,,,,,,,,,,,,,,,,,,,,,,,,,,,,,,,,,,,,,,,,,,,,,,,,,,,,,,,,,,,,,,,,,,,,,,,,,,,,,,,,,,,,,,,,,,,,,,,,,,,,,,,,,,,,,,,,,,,,,,,,,,,,,,,,,,,,,,,,,,,,,,,,,,,,,,,,,
0,86,86,21,1,,5bbfeaeb785edb0001fac427,62c53a74db91906583b6b51b,2022-07-06_02h33.57.648,Colour_Asymmetry_Pilot,2022.1.3,Win32,39.51319741,62c50e9c1127f2cd403a315f,,,,,,,,,,,,,,,,,,,,,,,,,,,,,,,,,,,,,,,,,,,,,,,,,,,,,,,,,,,,,,,,,,,,,,,,,,,,,,,,,,,,,,,,,,,,,,,,,,,,,,,,,,,,,,,,,,,,,,,,,,,,,,,,,,,,,,,,,,,,,,,,,,,,,,,,,,,,,,,,,,,
0,87,87,42,1,,5bbfeaeb785edb0001fac427,62c53a74db91906583b6b51b,2022-07-06_02h33.57.648,Colour_Asymmetry_Pilot,2022.1.3,Win32,39.51319741,62c50e9c1127f2cd403a315f,,,,,,,,,,,,,,,,,,,,,,,,,,,,,,,,,,,,,,,,,,,,,,,,,,,,,,,,,,,,,,,,,,,,,,,,,,,,,,,,,,,,,,,,,,,,,,,,,,,,,,,,,,,,,,,,,,,,,,,,,,,,,,,,,,,,,,,,,,,,,,,,,,,,,,,,,,,,,,,,,,,
0,88,88,88,1,,5bbfeaeb785edb0001fac427,62c53a74db91906583b6b51b,2022-07-06_02h33.57.648,Colour_Asymmetry_Pilot,2022.1.3,Win32,39.51319741,62c50e9c1127f2cd403a315f,,,,,,,,,,,,,,,,,,,,,,,,,,,,,,,,,,,,,,,,,,,,,,,,,,,,,,,,,,,,,,,,,,,,,,,,,,,,,,,,,,,,,,,,,,,,,,,,,,,,,,,,,,,,,,,,,,,,,,,,,,,,,,,,,,,,,,,,,,,,,,,,,,,,,,,,,,,,,,,,,,,
0,89,89,20,1,,5bbfeaeb785edb0001fac427,62c53a74db91906583b6b51b,2022-07-06_02h33.57.648,Colour_Asymmetry_Pilot,2022.1.3,Win32,39.51319741,62c50e9c1127f2cd403a315f,,,,,,,,,,,,,,,,,,,,,,,,,,,,,,,,,,,,,,,,,,,,,,,,,,,,,,,,,,,,,,,,,,,,,,,,,,,,,,,,,,,,,,,,,,,,,,,,,,,,,,,,,,,,,,,,,,,,,,,,,,,,,,,,,,,,,,,,,,,,,,,,,,,,,,,,,,,,,,,,,,,
0,90,90,29,1,,5bbfeaeb785edb0001fac427,62c53a74db91906583b6b51b,2022-07-06_02h33.57.648,Colour_Asymmetry_Pilot,2022.1.3,Win32,39.51319741,62c50e9c1127f2cd403a315f,,,,,,,,,,,,,,,,,,,,,,,,,,,,,,,,,,,,,,,,,,,,,,,,,,,,,,,,,,,,,,,,,,,,,,,,,,,,,,,,,,,,,,,,,,,,,,,,,,,,,,,,,,,,,,,,,,,,,,,,,,,,,,,,,,,,,,,,,,,,,,,,,,,,,,,,,,,,,,,,,,,
0,91,91,7,1,,5bbfeaeb785edb0001fac427,62c53a74db91906583b6b51b,2022-07-06_02h33.57.648,Colour_Asymmetry_Pilot,2022.1.3,Win32,39.51319741,62c50e9c1127f2cd403a315f,,,,,,,,,,,,,,,,,,,,,,,,,,,,,,,,,,,,,,,,,,,,,,,,,,,,,,,,,,,,,,,,,,,,,,,,,,,,,,,,,,,,,,,,,,,,,,,,,,,,,,,,,,,,,,,,,,,,,,,,,,,,,,,,,,,,,,,,,,,,,,,,,,,,,,,,,,,,,,,,,,,
0,92,92,68,1,,5bbfeaeb785edb0001fac427,62c53a74db91906583b6b51b,2022-07-06_02h33.57.648,Colour_Asymmetry_Pilot,2022.1.3,Win32,39.51319741,62c50e9c1127f2cd403a315f,,,,,,,,,,,,,,,,,,,,,,,,,,,,,,,,,,,,,,,,,,,,,,,,,,,,,,,,,,,,,,,,,,,,,,,,,,,,,,,,,,,,,,,,,,,,,,,,,,,,,,,,,,,,,,,,,,,,,,,,,,,,,,,,,,,,,,,,,,,,,,,,,,,,,,,,,,,,,,,,,,,
,,,,,,5bbfeaeb785edb0001fac427,62c53a74db91906583b6b51b,2022-07-06_02h33.57.648,Colour_Asymmetry_Pilot,2022.1.3,Win32,39.51319741,62c50e9c1127f2cd403a315f,0,0,0,68,1,threeone,,,,,,,,,,,,,,,,,,,,,,,,,,,,,,,,,,,,,,,,,,,,,,,,,,,,,,,,,,,,,,,,,,,,,,,,,,,,,,,,,,,,,,,,,,,,,,,,,,,,,,,,,,,,,,,,,,,,,,,,,,,,,,,,,,,,,,,,,,,,,,,,,,,,,,,,,,,,,
,,,,,,5bbfeaeb785edb0001fac427,62c53a74db91906583b6b51b,2022-07-06_02h33.57.648,Colour_Asymmetry_Pilot,2022.1.3,Win32,39.51319741,62c50e9c1127f2cd403a315f,0,1,1,146,1,twoone,,,,,,,,,,,,,,,,,,,,,,,,,,,,,,,,,,,,,,,,,,,,,,,,,,,,,,,,,,,,,,,,,,,,,,,,,,,,,,,,,,,,,,,,,,,,,,,,,,,,,,,,,,,,,,,,,,,,,,,,,,,,,,,,,,,,,,,,,,,,,,,,,,,,,,,,,,,,,
,,,,,,5bbfeaeb785edb0001fac427,62c53a74db91906583b6b51b,2022-07-06_02h33.57.648,Colour_Asymmetry_Pilot,2022.1.3,Win32,39.51319741,62c50e9c1127f2cd403a315f,0,2,2,113,1,onethree,,,,,,,,,,,,,,,,,,,,,,,,,,,,,,,,,,,,,,,,,,,,,,,,,,,,,,,,,,,,,,,,,,,,,,,,,,,,,,,,,,,,,,,,,,,,,,,,,,,,,,,,,,,,,,,,,,,,,,,,,,,,,,,,,,,,,,,,,,,,,,,,,,,,,,,,,,,,,
,,,,,,5bbfeaeb785edb0001fac427,62c53a74db91906583b6b51b,2022-07-06_02h33.57.648,Colour_Asymmetry_Pilot,2022.1.3,Win32,39.51319741,62c50e9c1127f2cd403a315f,0,3,3,95,1,fourthree,,,,,,,,,,,,,,,,,,,,,,,,,,,,,,,,,,,,,,,,,,,,,,,,,,,,,,,,,,,,,,,,,,,,,,,,,,,,,,,,,,,,,,,,,,,,,,,,,,,,,,,,,,,,,,,,,,,,,,,,,,,,,,,,,,,,,,,,,,,,,,,,,,,,,,,,,,,,,
,,,,,,5bbfeaeb785edb0001fac427,62c53a74db91906583b6b51b,2022-07-06_02h33.57.648,Colour_Asymmetry_Pilot,2022.1.3,Win32,39.51319741,62c50e9c1127f2cd403a315f,0,4,4,82,1,twoone,,,,,,,,,,,,,,,,,,,,,,,,,,,,,,,,,,,,,,,,,,,,,,,,,,,,,,,,,,,,,,,,,,,,,,,,,,,,,,,,,,,,,,,,,,,,,,,,,,,,,,,,,,,,,,,,,,,,,,,,,,,,,,,,,,,,,,,,,,,,,,,,,,,,,,,,,,,,,
,,,,,,5bbfeaeb785edb0001fac427,62c53a74db91906583b6b51b,2022-07-06_02h33.57.648,Colour_Asymmetry_Pilot,2022.1.3,Win32,39.51319741,62c50e9c1127f2cd403a315f,0,5,5,143,1,fourthree,,,,,,,,,,,,,,,,,,,,,,,,,,,,,,,,,,,,,,,,,,,,,,,,,,,,,,,,,,,,,,,,,,,,,,,,,,,,,,,,,,,,,,,,,,,,,,,,,,,,,,,,,,,,,,,,,,,,,,,,,,,,,,,,,,,,,,,,,,,,,,,,,,,,,,,,,,,,,
,,,,,,5bbfeaeb785edb0001fac427,62c53a74db91906583b6b51b,2022-07-06_02h33.57.648,Colour_Asymmetry_Pilot,2022.1.3,Win32,39.51319741,62c50e9c1127f2cd403a315f,0,6,6,126,1,fourtwo,,,,,,,,,,,,,,,,,,,,,,,,,,,,,,,,,,,,,,,,,,,,,,,,,,,,,,,,,,,,,,,,,,,,,,,,,,,,,,,,,,,,,,,,,,,,,,,,,,,,,,,,,,,,,,,,,,,,,,,,,,,,,,,,,,,,,,,,,,,,,,,,,,,,,,,,,,,,,
,,,,,,5bbfeaeb785edb0001fac427,62c53a74db91906583b6b51b,2022-07-06_02h33.57.648,Colour_Asymmetry_Pilot,2022.1.3,Win32,39.51319741,62c50e9c1127f2cd403a315f,0,7,7,31,1,fourthree,,,,,,,,,,,,,,,,,,,,,,,,,,,,,,,,,,,,,,,,,,,,,,,,,,,,,,,,,,,,,,,,,,,,,,,,,,,,,,,,,,,,,,,,,,,,,,,,,,,,,,,,,,,,,,,,,,,,,,,,,,,,,,,,,,,,,,,,,,,,,,,,,,,,,,,,,,,,,
,,,,,,5bbfeaeb785edb0001fac427,62c53a74db91906583b6b51b,2022-07-06_02h33.57.648,Colour_Asymmetry_Pilot,2022.1.3,Win32,39.51319741,62c50e9c1127f2cd403a315f,0,8,8,144,1,onetwo,,,,,,,,,,,,,,,,,,,,,,,,,,,,,,,,,,,,,,,,,,,,,,,,,,,,,,,,,,,,,,,,,,,,,,,,,,,,,,,,,,,,,,,,,,,,,,,,,,,,,,,,,,,,,,,,,,,,,,,,,,,,,,,,,,,,,,,,,,,,,,,,,,,,,,,,,,,,,
,,,,,,5bbfeaeb785edb0001fac427,62c53a74db91906583b6b51b,2022-07-06_02h33.57.648,Colour_Asymmetry_Pilot,2022.1.3,Win32,39.51319741,62c50e9c1127f2cd403a315f,0,9,9,89,1,onethree,,,,,,,,,,,,,,,,,,,,,,,,,,,,,,,,,,,,,,,,,,,,,,,,,,,,,,,,,,,,,,,,,,,,,,,,,,,,,,,,,,,,,,,,,,,,,,,,,,,,,,,,,,,,,,,,,,,,,,,,,,,,,,,,,,,,,,,,,,,,,,,,,,,,,,,,,,,,,
,,,,,,5bbfeaeb785edb0001fac427,62c53a74db91906583b6b51b,2022-07-06_02h33.57.648,Colour_Asymmetry_Pilot,2022.1.3,Win32,39.51319741,62c50e9c1127f2cd403a315f,0,10,10,62,1,fourtwo,,,,,,,,,,,,,,,,,,,,,,,,,,,,,,,,,,,,,,,,,,,,,,,,,,,,,,,,,,,,,,,,,,,,,,,,,,,,,,,,,,,,,,,,,,,,,,,,,,,,,,,,,,,,,,,,,,,,,,,,,,,,,,,,,,,,,,,,,,,,,,,,,,,,,,,,,,,,,
,,,,,,5bbfeaeb785edb0001fac427,62c53a74db91906583b6b51b,2022-07-06_02h33.57.648,Colour_Asymmetry_Pilot,2022.1.3,Win32,39.51319741,62c50e9c1127f2cd403a315f,0,11,11,156,1,threeone,,,,,,,,,,,,,,,,,,,,,,,,,,,,,,,,,,,,,,,,,,,,,,,,,,,,,,,,,,,,,,,,,,,,,,,,,,,,,,,,,,,,,,,,,,,,,,,,,,,,,,,,,,,,,,,,,,,,,,,,,,,,,,,,,,,,,,,,,,,,,,,,,,,,,,,,,,,,,
,,,,,,5bbfeaeb785edb0001fac427,62c53a74db91906583b6b51b,2022-07-06_02h33.57.648,Colour_Asymmetry_Pilot,2022.1.3,Win32,39.51319741,62c50e9c1127f2cd403a315f,0,12,12,14,1,fourtwo,,,,,,,,,,,,,,,,,,,,,,,,,,,,,,,,,,,,,,,,,,,,,,,,,,,,,,,,,,,,,,,,,,,,,,,,,,,,,,,,,,,,,,,,,,,,,,,,,,,,,,,,,,,,,,,,,,,,,,,,,,,,,,,,,,,,,,,,,,,,,,,,,,,,,,,,,,,,,
,,,,,,5bbfeaeb785edb0001fac427,62c53a74db91906583b6b51b,2022-07-06_02h33.57.648,Colour_Asymmetry_Pilot,2022.1.3,Win32,39.51319741,62c50e9c1127f2cd403a315f,0,13,13,107,1,twofour,,,,,,,,,,,,,,,,,,,,,,,,,,,,,,,,,,,,,,,,,,,,,,,,,,,,,,,,,,,,,,,,,,,,,,,,,,,,,,,,,,,,,,,,,,,,,,,,,,,,,,,,,,,,,,,,,,,,,,,,,,,,,,,,,,,,,,,,,,,,,,,,,,,,,,,,,,,,,
,,,,,,5bbfeaeb785edb0001fac427,62c53a74db91906583b6b51b,2022-07-06_02h33.57.648,Colour_Asymmetry_Pilot,2022.1.3,Win32,39.51319741,62c50e9c1127f2cd403a315f,0,14,14,65,1,onethree,,,,,,,,,,,,,,,,,,,,,,,,,,,,,,,,,,,,,,,,,,,,,,,,,,,,,,,,,,,,,,,,,,,,,,,,,,,,,,,,,,,,,,,,,,,,,,,,,,,,,,,,,,,,,,,,,,,,,,,,,,,,,,,,,,,,,,,,,,,,,,,,,,,,,,,,,,,,,
,,,,,,5bbfeaeb785edb0001fac427,62c53a74db91906583b6b51b,2022-07-06_02h33.57.648,Colour_Asymmetry_Pilot,2022.1.3,Win32,39.51319741,62c50e9c1127f2cd403a315f,0,15,15,98,1,twoone,,,,,,,,,,,,,,,,,,,,,,,,,,,,,,,,,,,,,,,,,,,,,,,,,,,,,,,,,,,,,,,,,,,,,,,,,,,,,,,,,,,,,,,,,,,,,,,,,,,,,,,,,,,,,,,,,,,,,,,,,,,,,,,,,,,,,,,,,,,,,,,,,,,,,,,,,,,,,
,,,,,,5bbfeaeb785edb0001fac427,62c53a74db91906583b6b51b,2022-07-06_02h33.57.648,Colour_Asymmetry_Pilot,2022.1.3,Win32,39.51319741,62c50e9c1127f2cd403a315f,0,16,16,7,1,fourthree,,,,,,,,,,,,,,,,,,,,,,,,,,,,,,,,,,,,,,,,,,,,,,,,,,,,,,,,,,,,,,,,,,,,,,,,,,,,,,,,,,,,,,,,,,,,,,,,,,,,,,,,,,,,,,,,,,,,,,,,,,,,,,,,,,,,,,,,,,,,,,,,,,,,,,,,,,,,,
,,,,,,5bbfeaeb785edb0001fac427,62c53a74db91906583b6b51b,2022-07-06_02h33.57.648,Colour_Asymmetry_Pilot,2022.1.3,Win32,39.51319741,62c50e9c1127f2cd403a315f,0,17,17,157,1,threefour,,,,,,,,,,,,,,,,,,,,,,,,,,,,,,,,,,,,,,,,,,,,,,,,,,,,,,,,,,,,,,,,,,,,,,,,,,,,,,,,,,,,,,,,,,,,,,,,,,,,,,,,,,,,,,,,,,,,,,,,,,,,,,,,,,,,,,,,,,,,,,,,,,,,,,,,,,,,,
,,,,,,5bbfeaeb785edb0001fac427,62c53a74db91906583b6b51b,2022-07-06_02h33.57.648,Colour_Asymmetry_Pilot,2022.1.3,Win32,39.51319741,62c50e9c1127f2cd403a315f,0,18,18,112,1,onetwo,,,,,,,,,,,,,,,,,,,,,,,,,,,,,,,,,,,,,,,,,,,,,,,,,,,,,,,,,,,,,,,,,,,,,,,,,,,,,,,,,,,,,,,,,,,,,,,,,,,,,,,,,,,,,,,,,,,,,,,,,,,,,,,,,,,,,,,,,,,,,,,,,,,,,,,,,,,,,
,,,,,,5bbfeaeb785edb0001fac427,62c53a74db91906583b6b51b,2022-07-06_02h33.57.648,Colour_Asymmetry_Pilot,2022.1.3,Win32,39.51319741,62c50e9c1127f2cd403a315f,0,19,19,46,1,fourtwo,,,,,,,,,,,,,,,,,,,,,,,,,,,,,,,,,,,,,,,,,,,,,,,,,,,,,,,,,,,,,,,,,,,,,,,,,,,,,,,,,,,,,,,,,,,,,,,,,,,,,,,,,,,,,,,,,,,,,,,,,,,,,,,,,,,,,,,,,,,,,,,,,,,,,,,,,,,,,
,,,,,,5bbfeaeb785edb0001fac427,62c53a74db91906583b6b51b,2022-07-06_02h33.57.648,Colour_Asymmetry_Pilot,2022.1.3,Win32,39.51319741,62c50e9c1127f2cd403a315f,0,20,20,90,1,twoone,,,,,,,,,,,,,,,,,,,,,,,,,,,,,,,,,,,,,,,,,,,,,,,,,,,,,,,,,,,,,,,,,,,,,,,,,,,,,,,,,,,,,,,,,,,,,,,,,,,,,,,,,,,,,,,,,,,,,,,,,,,,,,,,,,,,,,,,,,,,,,,,,,,,,,,,,,,,,
,,,,,,5bbfeaeb785edb0001fac427,62c53a74db91906583b6b51b,2022-07-06_02h33.57.648,Colour_Asymmetry_Pilot,2022.1.3,Win32,39.51319741,62c50e9c1127f2cd403a315f,0,21,21,30,1,fourtwo,,,,,,,,,,,,,,,,,,,,,,,,,,,,,,,,,,,,,,,,,,,,,,,,,,,,,,,,,,,,,,,,,,,,,,,,,,,,,,,,,,,,,,,,,,,,,,,,,,,,,,,,,,,,,,,,,,,,,,,,,,,,,,,,,,,,,,,,,,,,,,,,,,,,,,,,,,,,,
,,,,,,5bbfeaeb785edb0001fac427,62c53a74db91906583b6b51b,2022-07-06_02h33.57.648,Colour_Asymmetry_Pilot,2022.1.3,Win32,39.51319741,62c50e9c1127f2cd403a315f,0,22,22,122,1,twoone,,,,,,,,,,,,,,,,,,,,,,,,,,,,,,,,,,,,,,,,,,,,,,,,,,,,,,,,,,,,,,,,,,,,,,,,,,,,,,,,,,,,,,,,,,,,,,,,,,,,,,,,,,,,,,,,,,,,,,,,,,,,,,,,,,,,,,,,,,,,,,,,,,,,,,,,,,,,,
,,,,,,5bbfeaeb785edb0001fac427,62c53a74db91906583b6b51b,2022-07-06_02h33.57.648,Colour_Asymmetry_Pilot,2022.1.3,Win32,39.51319741,62c50e9c1127f2cd403a315f,0,23,23,16,1,onetwo,,,,,,,,,,,,,,,,,,,,,,,,,,,,,,,,,,,,,,,,,,,,,,,,,,,,,,,,,,,,,,,,,,,,,,,,,,,,,,,,,,,,,,,,,,,,,,,,,,,,,,,,,,,,,,,,,,,,,,,,,,,,,,,,,,,,,,,,,,,,,,,,,,,,,,,,,,,,,
,,,,,,5bbfeaeb785edb0001fac427,62c53a74db91906583b6b51b,2022-07-06_02h33.57.648,Colour_Asymmetry_Pilot,2022.1.3,Win32,39.51319741,62c50e9c1127f2cd403a315f,0,24,24,97,1,onethree,,,,,,,,,,,,,,,,,,,,,,,,,,,,,,,,,,,,,,,,,,,,,,,,,,,,,,,,,,,,,,,,,,,,,,,,,,,,,,,,,,,,,,,,,,,,,,,,,,,,,,,,,,,,,,,,,,,,,,,,,,,,,,,,,,,,,,,,,,,,,,,,,,,,,,,,,,,,,
,,,,,,5bbfeaeb785edb0001fac427,62c53a74db91906583b6b51b,2022-07-06_02h33.57.648,Colour_Asymmetry_Pilot,2022.1.3,Win32,39.51319741,62c50e9c1127f2cd403a315f,0,25,25,99,1,twofour,,,,,,,,,,,,,,,,,,,,,,,,,,,,,,,,,,,,,,,,,,,,,,,,,,,,,,,,,,,,,,,,,,,,,,,,,,,,,,,,,,,,,,,,,,,,,,,,,,,,,,,,,,,,,,,,,,,,,,,,,,,,,,,,,,,,,,,,,,,,,,,,,,,,,,,,,,,,,
,,,,,,5bbfeaeb785edb0001fac427,62c53a74db91906583b6b51b,2022-07-06_02h33.57.648,Colour_Asymmetry_Pilot,2022.1.3,Win32,39.51319741,62c50e9c1127f2cd403a315f,0,26,26,148,1,threeone,,,,,,,,,,,,,,,,,,,,,,,,,,,,,,,,,,,,,,,,,,,,,,,,,,,,,,,,,,,,,,,,,,,,,,,,,,,,,,,,,,,,,,,,,,,,,,,,,,,,,,,,,,,,,,,,,,,,,,,,,,,,,,,,,,,,,,,,,,,,,,,,,,,,,,,,,,,,,
,,,,,,5bbfeaeb785edb0001fac427,62c53a74db91906583b6b51b,2022-07-06_02h33.57.648,Colour_Asymmetry_Pilot,2022.1.3,Win32,39.51319741,62c50e9c1127f2cd403a315f,0,27,27,51,1,twofour,,,,,,,,,,,,,,,,,,,,,,,,,,,,,,,,,,,,,,,,,,,,,,,,,,,,,,,,,,,,,,,,,,,,,,,,,,,,,,,,,,,,,,,,,,,,,,,,,,,,,,,,,,,,,,,,,,,,,,,,,,,,,,,,,,,,,,,,,,,,,,,,,,,,,,,,,,,,,
,,,,,,5bbfeaeb785edb0001fac427,62c53a74db91906583b6b51b,2022-07-06_02h33.57.648,Colour_Asymmetry_Pilot,2022.1.3,Win32,39.51319741,62c50e9c1127f2cd403a315f,0,28,28,6,1,fourtwo,,,,,,,,,,,,,,,,,,,,,,,,,,,,,,,,,,,,,,,,,,,,,,,,,,,,,,,,,,,,,,,,,,,,,,,,,,,,,,,,,,,,,,,,,,,,,,,,,,,,,,,,,,,,,,,,,,,,,,,,,,,,,,,,,,,,,,,,,,,,,,,,,,,,,,,,,,,,,
,,,,,,5bbfeaeb785edb0001fac427,62c53a74db91906583b6b51b,2022-07-06_02h33.57.648,Colour_Asymmetry_Pilot,2022.1.3,Win32,39.51319741,62c50e9c1127f2cd403a315f,0,29,29,61,1,threefour,,,,,,,,,,,,,,,,,,,,,,,,,,,,,,,,,,,,,,,,,,,,,,,,,,,,,,,,,,,,,,,,,,,,,,,,,,,,,,,,,,,,,,,,,,,,,,,,,,,,,,,,,,,,,,,,,,,,,,,,,,,,,,,,,,,,,,,,,,,,,,,,,,,,,,,,,,,,,
,,,,,,5bbfeaeb785edb0001fac427,62c53a74db91906583b6b51b,2022-07-06_02h33.57.648,Colour_Asymmetry_Pilot,2022.1.3,Win32,39.51319741,62c50e9c1127f2cd403a315f,0,30,30,69,1,threefour,,,,,,,,,,,,,,,,,,,,,,,,,,,,,,,,,,,,,,,,,,,,,,,,,,,,,,,,,,,,,,,,,,,,,,,,,,,,,,,,,,,,,,,,,,,,,,,,,,,,,,,,,,,,,,,,,,,,,,,,,,,,,,,,,,,,,,,,,,,,,,,,,,,,,,,,,,,,,
,,,,,,5bbfeaeb785edb0001fac427,62c53a74db91906583b6b51b,2022-07-06_02h33.57.648,Colour_Asymmetry_Pilot,2022.1.3,Win32,39.51319741,62c50e9c1127f2cd403a315f,0,31,31,131,1,twofour,,,,,,,,,,,,,,,,,,,,,,,,,,,,,,,,,,,,,,,,,,,,,,,,,,,,,,,,,,,,,,,,,,,,,,,,,,,,,,,,,,,,,,,,,,,,,,,,,,,,,,,,,,,,,,,,,,,,,,,,,,,,,,,,,,,,,,,,,,,,,,,,,,,,,,,,,,,,,
,,,,,,5bbfeaeb785edb0001fac427,62c53a74db91906583b6b51b,2022-07-06_02h33.57.648,Colour_Asymmetry_Pilot,2022.1.3,Win32,39.51319741,62c50e9c1127f2cd403a315f,0,32,32,96,1,onetwo,,,,,,,,,,,,,,,,,,,,,,,,,,,,,,,,,,,,,,,,,,,,,,,,,,,,,,,,,,,,,,,,,,,,,,,,,,,,,,,,,,,,,,,,,,,,,,,,,,,,,,,,,,,,,,,,,,,,,,,,,,,,,,,,,,,,,,,,,,,,,,,,,,,,,,,,,,,,,
,,,,,,5bbfeaeb785edb0001fac427,62c53a74db91906583b6b51b,2022-07-06_02h33.57.648,Colour_Asymmetry_Pilot,2022.1.3,Win32,39.51319741,62c50e9c1127f2cd403a315f,0,33,33,3,1,twofour,,,,,,,,,,,,,,,,,,,,,,,,,,,,,,,,,,,,,,,,,,,,,,,,,,,,,,,,,,,,,,,,,,,,,,,,,,,,,,,,,,,,,,,,,,,,,,,,,,,,,,,,,,,,,,,,,,,,,,,,,,,,,,,,,,,,,,,,,,,,,,,,,,,,,,,,,,,,,
,,,,,,5bbfeaeb785edb0001fac427,62c53a74db91906583b6b51b,2022-07-06_02h33.57.648,Colour_Asymmetry_Pilot,2022.1.3,Win32,39.51319741,62c50e9c1127f2cd403a315f,0,34,34,109,1,threefour,,,,,,,,,,,,,,,,,,,,,,,,,,,,,,,,,,,,,,,,,,,,,,,,,,,,,,,,,,,,,,,,,,,,,,,,,,,,,,,,,,,,,,,,,,,,,,,,,,,,,,,,,,,,,,,,,,,,,,,,,,,,,,,,,,,,,,,,,,,,,,,,,,,,,,,,,,,,,
,,,,,,5bbfeaeb785edb0001fac427,62c53a74db91906583b6b51b,2022-07-06_02h33.57.648,Colour_Asymmetry_Pilot,2022.1.3,Win32,39.51319741,62c50e9c1127f2cd403a315f,0,35,35,137,1,onethree,,,,,,,,,,,,,,,,,,,,,,,,,,,,,,,,,,,,,,,,,,,,,,,,,,,,,,,,,,,,,,,,,,,,,,,,,,,,,,,,,,,,,,,,,,,,,,,,,,,,,,,,,,,,,,,,,,,,,,,,,,,,,,,,,,,,,,,,,,,,,,,,,,,,,,,,,,,,,
,,,,,,5bbfeaeb785edb0001fac427,62c53a74db91906583b6b51b,2022-07-06_02h33.57.648,Colour_Asymmetry_Pilot,2022.1.3,Win32,39.51319741,62c50e9c1127f2cd403a315f,0,36,36,52,1,threeone,,,,,,,,,,,,,,,,,,,,,,,,,,,,,,,,,,,,,,,,,,,,,,,,,,,,,,,,,,,,,,,,,,,,,,,,,,,,,,,,,,,,,,,,,,,,,,,,,,,,,,,,,,,,,,,,,,,,,,,,,,,,,,,,,,,,,,,,,,,,,,,,,,,,,,,,,,,,,
,,,,,,5bbfeaeb785edb0001fac427,62c53a74db91906583b6b51b,2022-07-06_02h33.57.648,Colour_Asymmetry_Pilot,2022.1.3,Win32,39.51319741,62c50e9c1127f2cd403a315f,0,37,37,160,1,onetwo,,,,,,,,,,,,,,,,,,,,,,,,,,,,,,,,,,,,,,,,,,,,,,,,,,,,,,,,,,,,,,,,,,,,,,,,,,,,,,,,,,,,,,,,,,,,,,,,,,,,,,,,,,,,,,,,,,,,,,,,,,,,,,,,,,,,,,,,,,,,,,,,,,,,,,,,,,,,,
,,,,,,5bbfeaeb785edb0001fac427,62c53a74db91906583b6b51b,2022-07-06_02h33.57.648,Colour_Asymmetry_Pilot,2022.1.3,Win32,39.51319741,62c50e9c1127f2cd403a315f,0,38,38,60,1,threeone,,,,,,,,,,,,,,,,,,,,,,,,,,,,,,,,,,,,,,,,,,,,,,,,,,,,,,,,,,,,,,,,,,,,,,,,,,,,,,,,,,,,,,,,,,,,,,,,,,,,,,,,,,,,,,,,,,,,,,,,,,,,,,,,,,,,,,,,,,,,,,,,,,,,,,,,,,,,,
,,,,,,5bbfeaeb785edb0001fac427,62c53a74db91906583b6b51b,2022-07-06_02h33.57.648,Colour_Asymmetry_Pilot,2022.1.3,Win32,39.51319741,62c50e9c1127f2cd403a315f,0,39,39,72,1,onetwo,,,,,,,,,,,,,,,,,,,,,,,,,,,,,,,,,,,,,,,,,,,,,,,,,,,,,,,,,,,,,,,,,,,,,,,,,,,,,,,,,,,,,,,,,,,,,,,,,,,,,,,,,,,,,,,,,,,,,,,,,,,,,,,,,,,,,,,,,,,,,,,,,,,,,,,,,,,,,
,,,,,,5bbfeaeb785edb0001fac427,62c53a74db91906583b6b51b,2022-07-06_02h33.57.648,Colour_Asymmetry_Pilot,2022.1.3,Win32,39.51319741,62c50e9c1127f2cd403a315f,0,40,40,77,1,threefour,,,,,,,,,,,,,,,,,,,,,,,,,,,,,,,,,,,,,,,,,,,,,,,,,,,,,,,,,,,,,,,,,,,,,,,,,,,,,,,,,,,,,,,,,,,,,,,,,,,,,,,,,,,,,,,,,,,,,,,,,,,,,,,,,,,,,,,,,,,,,,,,,,,,,,,,,,,,,
,,,,,,5bbfeaeb785edb0001fac427,62c53a74db91906583b6b51b,2022-07-06_02h33.57.648,Colour_Asymmetry_Pilot,2022.1.3,Win32,39.51319741,62c50e9c1127f2cd403a315f,0,41,41,32,1,onetwo,,,,,,,,,,,,,,,,,,,,,,,,,,,,,,,,,,,,,,,,,,,,,,,,,,,,,,,,,,,,,,,,,,,,,,,,,,,,,,,,,,,,,,,,,,,,,,,,,,,,,,,,,,,,,,,,,,,,,,,,,,,,,,,,,,,,,,,,,,,,,,,,,,,,,,,,,,,,,
,,,,,,5bbfeaeb785edb0001fac427,62c53a74db91906583b6b51b,2022-07-06_02h33.57.648,Colour_Asymmetry_Pilot,2022.1.3,Win32,39.51319741,62c50e9c1127f2cd403a315f,0,42,42,70,1,fourtwo,,,,,,,,,,,,,,,,,,,,,,,,,,,,,,,,,,,,,,,,,,,,,,,,,,,,,,,,,,,,,,,,,,,,,,,,,,,,,,,,,,,,,,,,,,,,,,,,,,,,,,,,,,,,,,,,,,,,,,,,,,,,,,,,,,,,,,,,,,,,,,,,,,,,,,,,,,,,,
,,,,,,5bbfeaeb785edb0001fac427,62c53a74db91906583b6b51b,2022-07-06_02h33.57.648,Colour_Asymmetry_Pilot,2022.1.3,Win32,39.51319741,62c50e9c1127f2cd403a315f,0,43,43,81,1,onethree,,,,,,,,,,,,,,,,,,,,,,,,,,,,,,,,,,,,,,,,,,,,,,,,,,,,,,,,,,,,,,,,,,,,,,,,,,,,,,,,,,,,,,,,,,,,,,,,,,,,,,,,,,,,,,,,,,,,,,,,,,,,,,,,,,,,,,,,,,,,,,,,,,,,,,,,,,,,,
,,,,,,5bbfeaeb785edb0001fac427,62c53a74db91906583b6b51b,2022-07-06_02h33.57.648,Colour_Asymmetry_Pilot,2022.1.3,Win32,39.51319741,62c50e9c1127f2cd403a315f,0,44,44,56,1,onetwo,,,,,,,,,,,,,,,,,,,,,,,,,,,,,,,,,,,,,,,,,,,,,,,,,,,,,,,,,,,,,,,,,,,,,,,,,,,,,,,,,,,,,,,,,,,,,,,,,,,,,,,,,,,,,,,,,,,,,,,,,,,,,,,,,,,,,,,,,,,,,,,,,,,,,,,,,,,,,
,,,,,,5bbfeaeb785edb0001fac427,62c53a74db91906583b6b51b,2022-07-06_02h33.57.648,Colour_Asymmetry_Pilot,2022.1.3,Win32,39.51319741,62c50e9c1127f2cd403a315f,0,45,45,87,1,fourthree,,,,,,,,,,,,,,,,,,,,,,,,,,,,,,,,,,,,,,,,,,,,,,,,,,,,,,,,,,,,,,,,,,,,,,,,,,,,,,,,,,,,,,,,,,,,,,,,,,,,,,,,,,,,,,,,,,,,,,,,,,,,,,,,,,,,,,,,,,,,,,,,,,,,,,,,,,,,,
,,,,,,5bbfeaeb785edb0001fac427,62c53a74db91906583b6b51b,2022-07-06_02h33.57.648,Colour_Asymmetry_Pilot,2022.1.3,Win32,39.51319741,62c50e9c1127f2cd403a315f,0,46,46,106,1,twoone,,,,,,,,,,,,,,,,,,,,,,,,,,,,,,,,,,,,,,,,,,,,,,,,,,,,,,,,,,,,,,,,,,,,,,,,,,,,,,,,,,,,,,,,,,,,,,,,,,,,,,,,,,,,,,,,,,,,,,,,,,,,,,,,,,,,,,,,,,,,,,,,,,,,,,,,,,,,,
,,,,,,5bbfeaeb785edb0001fac427,62c53a74db91906583b6b51b,2022-07-06_02h33.57.648,Colour_Asymmetry_Pilot,2022.1.3,Win32,39.51319741,62c50e9c1127f2cd403a315f,0,47,47,59,1,twofour,,,,,,,,,,,,,,,,,,,,,,,,,,,,,,,,,,,,,,,,,,,,,,,,,,,,,,,,,,,,,,,,,,,,,,,,,,,,,,,,,,,,,,,,,,,,,,,,,,,,,,,,,,,,,,,,,,,,,,,,,,,,,,,,,,,,,,,,,,,,,,,,,,,,,,,,,,,,,
,,,,,,5bbfeaeb785edb0001fac427,62c53a74db91906583b6b51b,2022-07-06_02h33.57.648,Colour_Asymmetry_Pilot,2022.1.3,Win32,39.51319741,62c50e9c1127f2cd403a315f,0,48,48,152,1,onetwo,,,,,,,,,,,,,,,,,,,,,,,,,,,,,,,,,,,,,,,,,,,,,,,,,,,,,,,,,,,,,,,,,,,,,,,,,,,,,,,,,,,,,,,,,,,,,,,,,,,,,,,,,,,,,,,,,,,,,,,,,,,,,,,,,,,,,,,,,,,,,,,,,,,,,,,,,,,,,
,,,,,,5bbfeaeb785edb0001fac427,62c53a74db91906583b6b51b,2022-07-06_02h33.57.648,Colour_Asymmetry_Pilot,2022.1.3,Win32,39.51319741,62c50e9c1127f2cd403a315f,0,49,49,115,1,twofour,,,,,,,,,,,,,,,,,,,,,,,,,,,,,,,,,,,,,,,,,,,,,,,,,,,,,,,,,,,,,,,,,,,,,,,,,,,,,,,,,,,,,,,,,,,,,,,,,,,,,,,,,,,,,,,,,,,,,,,,,,,,,,,,,,,,,,,,,,,,,,,,,,,,,,,,,,,,,
,,,,,,5bbfeaeb785edb0001fac427,62c53a74db91906583b6b51b,2022-07-06_02h33.57.648,Colour_Asymmetry_Pilot,2022.1.3,Win32,39.51319741,62c50e9c1127f2cd403a315f,0,50,50,29,1,threefour,,,,,,,,,,,,,,,,,,,,,,,,,,,,,,,,,,,,,,,,,,,,,,,,,,,,,,,,,,,,,,,,,,,,,,,,,,,,,,,,,,,,,,,,,,,,,,,,,,,,,,,,,,,,,,,,,,,,,,,,,,,,,,,,,,,,,,,,,,,,,,,,,,,,,,,,,,,,,
,,,,,,5bbfeaeb785edb0001fac427,62c53a74db91906583b6b51b,2022-07-06_02h33.57.648,Colour_Asymmetry_Pilot,2022.1.3,Win32,39.51319741,62c50e9c1127f2cd403a315f,0,51,51,15,1,fourthree,,,,,,,,,,,,,,,,,,,,,,,,,,,,,,,,,,,,,,,,,,,,,,,,,,,,,,,,,,,,,,,,,,,,,,,,,,,,,,,,,,,,,,,,,,,,,,,,,,,,,,,,,,,,,,,,,,,,,,,,,,,,,,,,,,,,,,,,,,,,,,,,,,,,,,,,,,,,,
,,,,,,5bbfeaeb785edb0001fac427,62c53a74db91906583b6b51b,2022-07-06_02h33.57.648,Colour_Asymmetry_Pilot,2022.1.3,Win32,39.51319741,62c50e9c1127f2cd403a315f,0,52,52,33,1,onethree,,,,,,,,,,,,,,,,,,,,,,,,,,,,,,,,,,,,,,,,,,,,,,,,,,,,,,,,,,,,,,,,,,,,,,,,,,,,,,,,,,,,,,,,,,,,,,,,,,,,,,,,,,,,,,,,,,,,,,,,,,,,,,,,,,,,,,,,,,,,,,,,,,,,,,,,,,,,,
,,,,,,5bbfeaeb785edb0001fac427,62c53a74db91906583b6b51b,2022-07-06_02h33.57.648,Colour_Asymmetry_Pilot,2022.1.3,Win32,39.51319741,62c50e9c1127f2cd403a315f,0,53,53,27,1,twofour,,,,,,,,,,,,,,,,,,,,,,,,,,,,,,,,,,,,,,,,,,,,,,,,,,,,,,,,,,,,,,,,,,,,,,,,,,,,,,,,,,,,,,,,,,,,,,,,,,,,,,,,,,,,,,,,,,,,,,,,,,,,,,,,,,,,,,,,,,,,,,,,,,,,,,,,,,,,,
,,,,,,5bbfeaeb785edb0001fac427,62c53a74db91906583b6b51b,2022-07-06_02h33.57.648,Colour_Asymmetry_Pilot,2022.1.3,Win32,39.51319741,62c50e9c1127f2cd403a315f,0,54,54,67,1,twofour,,,,,,,,,,,,,,,,,,,,,,,,,,,,,,,,,,,,,,,,,,,,,,,,,,,,,,,,,,,,,,,,,,,,,,,,,,,,,,,,,,,,,,,,,,,,,,,,,,,,,,,,,,,,,,,,,,,,,,,,,,,,,,,,,,,,,,,,,,,,,,,,,,,,,,,,,,,,,
,,,,,,5bbfeaeb785edb0001fac427,62c53a74db91906583b6b51b,2022-07-06_02h33.57.648,Colour_Asymmetry_Pilot,2022.1.3,Win32,39.51319741,62c50e9c1127f2cd403a315f,0,55,55,125,1,threefour,,,,,,,,,,,,,,,,,,,,,,,,,,,,,,,,,,,,,,,,,,,,,,,,,,,,,,,,,,,,,,,,,,,,,,,,,,,,,,,,,,,,,,,,,,,,,,,,,,,,,,,,,,,,,,,,,,,,,,,,,,,,,,,,,,,,,,,,,,,,,,,,,,,,,,,,,,,,,
,,,,,,5bbfeaeb785edb0001fac427,62c53a74db91906583b6b51b,2022-07-06_02h33.57.648,Colour_Asymmetry_Pilot,2022.1.3,Win32,39.51319741,62c50e9c1127f2cd403a315f,0,56,56,35,1,twofour,,,,,,,,,,,,,,,,,,,,,,,,,,,,,,,,,,,,,,,,,,,,,,,,,,,,,,,,,,,,,,,,,,,,,,,,,,,,,,,,,,,,,,,,,,,,,,,,,,,,,,,,,,,,,,,,,,,,,,,,,,,,,,,,,,,,,,,,,,,,,,,,,,,,,,,,,,,,,
,,,,,,5bbfeaeb785edb0001fac427,62c53a74db91906583b6b51b,2022-07-06_02h33.57.648,Colour_Asymmetry_Pilot,2022.1.3,Win32,39.51319741,62c50e9c1127f2cd403a315f,0,57,57,24,1,onetwo,,,,,,,,,,,,,,,,,,,,,,,,,,,,,,,,,,,,,,,,,,,,,,,,,,,,,,,,,,,,,,,,,,,,,,,,,,,,,,,,,,,,,,,,,,,,,,,,,,,,,,,,,,,,,,,,,,,,,,,,,,,,,,,,,,,,,,,,,,,,,,,,,,,,,,,,,,,,,
,,,,,,5bbfeaeb785edb0001fac427,62c53a74db91906583b6b51b,2022-07-06_02h33.57.648,Colour_Asymmetry_Pilot,2022.1.3,Win32,39.51319741,62c50e9c1127f2cd403a315f,0,58,58,10,1,twoone,,,,,,,,,,,,,,,,,,,,,,,,,,,,,,,,,,,,,,,,,,,,,,,,,,,,,,,,,,,,,,,,,,,,,,,,,,,,,,,,,,,,,,,,,,,,,,,,,,,,,,,,,,,,,,,,,,,,,,,,,,,,,,,,,,,,,,,,,,,,,,,,,,,,,,,,,,,,,
,,,,,,5bbfeaeb785edb0001fac427,62c53a74db91906583b6b51b,2022-07-06_02h33.57.648,Colour_Asymmetry_Pilot,2022.1.3,Win32,39.51319741,62c50e9c1127f2cd403a315f,0,59,59,114,1,twoone,,,,,,,,,,,,,,,,,,,,,,,,,,,,,,,,,,,,,,,,,,,,,,,,,,,,,,,,,,,,,,,,,,,,,,,,,,,,,,,,,,,,,,,,,,,,,,,,,,,,,,,,,,,,,,,,,,,,,,,,,,,,,,,,,,,,,,,,,,,,,,,,,,,,,,,,,,,,,
,,,,,,5bbfeaeb785edb0001fac427,62c53a74db91906583b6b51b,2022-07-06_02h33.57.648,Colour_Asymmetry_Pilot,2022.1.3,Win32,39.51319741,62c50e9c1127f2cd403a315f,0,60,60,84,1,threeone,,,,,,,,,,,,,,,,,,,,,,,,,,,,,,,,,,,,,,,,,,,,,,,,,,,,,,,,,,,,,,,,,,,,,,,,,,,,,,,,,,,,,,,,,,,,,,,,,,,,,,,,,,,,,,,,,,,,,,,,,,,,,,,,,,,,,,,,,,,,,,,,,,,,,,,,,,,,,
,,,,,,5bbfeaeb785edb0001fac427,62c53a74db91906583b6b51b,2022-07-06_02h33.57.648,Colour_Asymmetry_Pilot,2022.1.3,Win32,39.51319741,62c50e9c1127f2cd403a315f,0,61,61,2,1,twoone,,,,,,,,,,,,,,,,,,,,,,,,,,,,,,,,,,,,,,,,,,,,,,,,,,,,,,,,,,,,,,,,,,,,,,,,,,,,,,,,,,,,,,,,,,,,,,,,,,,,,,,,,,,,,,,,,,,,,,,,,,,,,,,,,,,,,,,,,,,,,,,,,,,,,,,,,,,,,
,,,,,,5bbfeaeb785edb0001fac427,62c53a74db91906583b6b51b,2022-07-06_02h33.57.648,Colour_Asymmetry_Pilot,2022.1.3,Win32,39.51319741,62c50e9c1127f2cd403a315f,0,62,62,121,1,onethree,,,,,,,,,,,,,,,,,,,,,,,,,,,,,,,,,,,,,,,,,,,,,,,,,,,,,,,,,,,,,,,,,,,,,,,,,,,,,,,,,,,,,,,,,,,,,,,,,,,,,,,,,,,,,,,,,,,,,,,,,,,,,,,,,,,,,,,,,,,,,,,,,,,,,,,,,,,,,
,,,,,,5bbfeaeb785edb0001fac427,62c53a74db91906583b6b51b,2022-07-06_02h33.57.648,Colour_Asymmetry_Pilot,2022.1.3,Win32,39.51319741,62c50e9c1127f2cd403a315f,0,63,63,57,1,onethree,,,,,,,,,,,,,,,,,,,,,,,,,,,,,,,,,,,,,,,,,,,,,,,,,,,,,,,,,,,,,,,,,,,,,,,,,,,,,,,,,,,,,,,,,,,,,,,,,,,,,,,,,,,,,,,,,,,,,,,,,,,,,,,,,,,,,,,,,,,,,,,,,,,,,,,,,,,,,
,,,,,,5bbfeaeb785edb0001fac427,62c53a74db91906583b6b51b,2022-07-06_02h33.57.648,Colour_Asymmetry_Pilot,2022.1.3,Win32,39.51319741,62c50e9c1127f2cd403a315f,0,64,64,134,1,fourtwo,,,,,,,,,,,,,,,,,,,,,,,,,,,,,,,,,,,,,,,,,,,,,,,,,,,,,,,,,,,,,,,,,,,,,,,,,,,,,,,,,,,,,,,,,,,,,,,,,,,,,,,,,,,,,,,,,,,,,,,,,,,,,,,,,,,,,,,,,,,,,,,,,,,,,,,,,,,,,
,,,,,,5bbfeaeb785edb0001fac427,62c53a74db91906583b6b51b,2022-07-06_02h33.57.648,Colour_Asymmetry_Pilot,2022.1.3,Win32,39.51319741,62c50e9c1127f2cd403a315f,0,65,65,123,1,twofour,,,,,,,,,,,,,,,,,,,,,,,,,,,,,,,,,,,,,,,,,,,,,,,,,,,,,,,,,,,,,,,,,,,,,,,,,,,,,,,,,,,,,,,,,,,,,,,,,,,,,,,,,,,,,,,,,,,,,,,,,,,,,,,,,,,,,,,,,,,,,,,,,,,,,,,,,,,,,
,,,,,,5bbfeaeb785edb0001fac427,62c53a74db91906583b6b51b,2022-07-06_02h33.57.648,Colour_Asymmetry_Pilot,2022.1.3,Win32,39.51319741,62c50e9c1127f2cd403a315f,0,66,66,53,1,threefour,,,,,,,,,,,,,,,,,,,,,,,,,,,,,,,,,,,,,,,,,,,,,,,,,,,,,,,,,,,,,,,,,,,,,,,,,,,,,,,,,,,,,,,,,,,,,,,,,,,,,,,,,,,,,,,,,,,,,,,,,,,,,,,,,,,,,,,,,,,,,,,,,,,,,,,,,,,,,
,,,,,,5bbfeaeb785edb0001fac427,62c53a74db91906583b6b51b,2022-07-06_02h33.57.648,Colour_Asymmetry_Pilot,2022.1.3,Win32,39.51319741,62c50e9c1127f2cd403a315f,0,67,67,141,1,threefour,,,,,,,,,,,,,,,,,,,,,,,,,,,,,,,,,,,,,,,,,,,,,,,,,,,,,,,,,,,,,,,,,,,,,,,,,,,,,,,,,,,,,,,,,,,,,,,,,,,,,,,,,,,,,,,,,,,,,,,,,,,,,,,,,,,,,,,,,,,,,,,,,,,,,,,,,,,,,
,,,,,,5bbfeaeb785edb0001fac427,62c53a74db91906583b6b51b,2022-07-06_02h33.57.648,Colour_Asymmetry_Pilot,2022.1.3,Win32,39.51319741,62c50e9c1127f2cd403a315f,0,68,68,161,1,onethree,,,,,,,,,,,,,,,,,,,,,,,,,,,,,,,,,,,,,,,,,,,,,,,,,,,,,,,,,,,,,,,,,,,,,,,,,,,,,,,,,,,,,,,,,,,,,,,,,,,,,,,,,,,,,,,,,,,,,,,,,,,,,,,,,,,,,,,,,,,,,,,,,,,,,,,,,,,,,
,,,,,,5bbfeaeb785edb0001fac427,62c53a74db91906583b6b51b,2022-07-06_02h33.57.648,Colour_Asymmetry_Pilot,2022.1.3,Win32,39.51319741,62c50e9c1127f2cd403a315f,0,69,69,117,1,threefour,,,,,,,,,,,,,,,,,,,,,,,,,,,,,,,,,,,,,,,,,,,,,,,,,,,,,,,,,,,,,,,,,,,,,,,,,,,,,,,,,,,,,,,,,,,,,,,,,,,,,,,,,,,,,,,,,,,,,,,,,,,,,,,,,,,,,,,,,,,,,,,,,,,,,,,,,,,,,
,,,,,,5bbfeaeb785edb0001fac427,62c53a74db91906583b6b51b,2022-07-06_02h33.57.648,Colour_Asymmetry_Pilot,2022.1.3,Win32,39.51319741,62c50e9c1127f2cd403a315f,0,70,70,12,1,threeone,,,,,,,,,,,,,,,,,,,,,,,,,,,,,,,,,,,,,,,,,,,,,,,,,,,,,,,,,,,,,,,,,,,,,,,,,,,,,,,,,,,,,,,,,,,,,,,,,,,,,,,,,,,,,,,,,,,,,,,,,,,,,,,,,,,,,,,,,,,,,,,,,,,,,,,,,,,,,
,,,,,,5bbfeaeb785edb0001fac427,62c53a74db91906583b6b51b,2022-07-06_02h33.57.648,Colour_Asymmetry_Pilot,2022.1.3,Win32,39.51319741,62c50e9c1127f2cd403a315f,0,71,71,45,1,threefour,,,,,,,,,,,,,,,,,,,,,,,,,,,,,,,,,,,,,,,,,,,,,,,,,,,,,,,,,,,,,,,,,,,,,,,,,,,,,,,,,,,,,,,,,,,,,,,,,,,,,,,,,,,,,,,,,,,,,,,,,,,,,,,,,,,,,,,,,,,,,,,,,,,,,,,,,,,,,
,,,,,,5bbfeaeb785edb0001fac427,62c53a74db91906583b6b51b,2022-07-06_02h33.57.648,Colour_Asymmetry_Pilot,2022.1.3,Win32,39.51319741,62c50e9c1127f2cd403a315f,0,72,72,110,1,fourtwo,,,,,,,,,,,,,,,,,,,,,,,,,,,,,,,,,,,,,,,,,,,,,,,,,,,,,,,,,,,,,,,,,,,,,,,,,,,,,,,,,,,,,,,,,,,,,,,,,,,,,,,,,,,,,,,,,,,,,,,,,,,,,,,,,,,,,,,,,,,,,,,,,,,,,,,,,,,,,
,,,,,,5bbfeaeb785edb0001fac427,62c53a74db91906583b6b51b,2022-07-06_02h33.57.648,Colour_Asymmetry_Pilot,2022.1.3,Win32,39.51319741,62c50e9c1127f2cd403a315f,0,73,73,42,1,twoone,,,,,,,,,,,,,,,,,,,,,,,,,,,,,,,,,,,,,,,,,,,,,,,,,,,,,,,,,,,,,,,,,,,,,,,,,,,,,,,,,,,,,,,,,,,,,,,,,,,,,,,,,,,,,,,,,,,,,,,,,,,,,,,,,,,,,,,,,,,,,,,,,,,,,,,,,,,,,
,,,,,,5bbfeaeb785edb0001fac427,62c53a74db91906583b6b51b,2022-07-06_02h33.57.648,Colour_Asymmetry_Pilot,2022.1.3,Win32,39.51319741,62c50e9c1127f2cd403a315f,0,74,74,63,1,fourthree,,,,,,,,,,,,,,,,,,,,,,,,,,,,,,,,,,,,,,,,,,,,,,,,,,,,,,,,,,,,,,,,,,,,,,,,,,,,,,,,,,,,,,,,,,,,,,,,,,,,,,,,,,,,,,,,,,,,,,,,,,,,,,,,,,,,,,,,,,,,,,,,,,,,,,,,,,,,,
,,,,,,5bbfeaeb785edb0001fac427,62c53a74db91906583b6b51b,2022-07-06_02h33.57.648,Colour_Asymmetry_Pilot,2022.1.3,Win32,39.51319741,62c50e9c1127f2cd403a315f,0,75,75,4,1,threeone,,,,,,,,,,,,,,,,,,,,,,,,,,,,,,,,,,,,,,,,,,,,,,,,,,,,,,,,,,,,,,,,,,,,,,,,,,,,,,,,,,,,,,,,,,,,,,,,,,,,,,,,,,,,,,,,,,,,,,,,,,,,,,,,,,,,,,,,,,,,,,,,,,,,,,,,,,,,,
,,,,,,5bbfeaeb785edb0001fac427,62c53a74db91906583b6b51b,2022-07-06_02h33.57.648,Colour_Asymmetry_Pilot,2022.1.3,Win32,39.51319741,62c50e9c1127f2cd403a315f,0,76,76,105,1,onethree,,,,,,,,,,,,,,,,,,,,,,,,,,,,,,,,,,,,,,,,,,,,,,,,,,,,,,,,,,,,,,,,,,,,,,,,,,,,,,,,,,,,,,,,,,,,,,,,,,,,,,,,,,,,,,,,,,,,,,,,,,,,,,,,,,,,,,,,,,,,,,,,,,,,,,,,,,,,,
,,,,,,5bbfeaeb785edb0001fac427,62c53a74db91906583b6b51b,2022-07-06_02h33.57.648,Colour_Asymmetry_Pilot,2022.1.3,Win32,39.51319741,62c50e9c1127f2cd403a315f,0,77,77,28,1,threeone,,,,,,,,,,,,,,,,,,,,,,,,,,,,,,,,,,,,,,,,,,,,,,,,,,,,,,,,,,,,,,,,,,,,,,,,,,,,,,,,,,,,,,,,,,,,,,,,,,,,,,,,,,,,,,,,,,,,,,,,,,,,,,,,,,,,,,,,,,,,,,,,,,,,,,,,,,,,,
,,,,,,5bbfeaeb785edb0001fac427,62c53a74db91906583b6b51b,2022-07-06_02h33.57.648,Colour_Asymmetry_Pilot,2022.1.3,Win32,39.51319741,62c50e9c1127f2cd403a315f,0,78,78,44,1,threeone,,,,,,,,,,,,,,,,,,,,,,,,,,,,,,,,,,,,,,,,,,,,,,,,,,,,,,,,,,,,,,,,,,,,,,,,,,,,,,,,,,,,,,,,,,,,,,,,,,,,,,,,,,,,,,,,,,,,,,,,,,,,,,,,,,,,,,,,,,,,,,,,,,,,,,,,,,,,,
,,,,,,5bbfeaeb785edb0001fac427,62c53a74db91906583b6b51b,2022-07-06_02h33.57.648,Colour_Asymmetry_Pilot,2022.1.3,Win32,39.51319741,62c50e9c1127f2cd403a315f,0,79,79,1,1,onethree,,,,,,,,,,,,,,,,,,,,,,,,,,,,,,,,,,,,,,,,,,,,,,,,,,,,,,,,,,,,,,,,,,,,,,,,,,,,,,,,,,,,,,,,,,,,,,,,,,,,,,,,,,,,,,,,,,,,,,,,,,,,,,,,,,,,,,,,,,,,,,,,,,,,,,,,,,,,,
,,,,,,5bbfeaeb785edb0001fac427,62c53a74db91906583b6b51b,2022-07-06_02h33.57.648,Colour_Asymmetry_Pilot,2022.1.3,Win32,39.51319741,62c50e9c1127f2cd403a315f,0,80,80,78,1,fourtwo,,,,,,,,,,,,,,,,,,,,,,,,,,,,,,,,,,,,,,,,,,,,,,,,,,,,,,,,,,,,,,,,,,,,,,,,,,,,,,,,,,,,,,,,,,,,,,,,,,,,,,,,,,,,,,,,,,,,,,,,,,,,,,,,,,,,,,,,,,,,,,,,,,,,,,,,,,,,,
,,,,,,5bbfeaeb785edb0001fac427,62c53a74db91906583b6b51b,2022-07-06_02h33.57.648,Colour_Asymmetry_Pilot,2022.1.3,Win32,39.51319741,62c50e9c1127f2cd403a315f,0,81,81,138,1,twoone,,,,,,,,,,,,,,,,,,,,,,,,,,,,,,,,,,,,,,,,,,,,,,,,,,,,,,,,,,,,,,,,,,,,,,,,,,,,,,,,,,,,,,,,,,,,,,,,,,,,,,,,,,,,,,,,,,,,,,,,,,,,,,,,,,,,,,,,,,,,,,,,,,,,,,,,,,,,,
,,,,,,5bbfeaeb785edb0001fac427,62c53a74db91906583b6b51b,2022-07-06_02h33.57.648,Colour_Asymmetry_Pilot,2022.1.3,Win32,39.51319741,62c50e9c1127f2cd403a315f,0,82,82,155,1,twofour,,,,,,,,,,,,,,,,,,,,,,,,,,,,,,,,,,,,,,,,,,,,,,,,,,,,,,,,,,,,,,,,,,,,,,,,,,,,,,,,,,,,,,,,,,,,,,,,,,,,,,,,,,,,,,,,,,,,,,,,,,,,,,,,,,,,,,,,,,,,,,,,,,,,,,,,,,,,,
,,,,,,5bbfeaeb785edb0001fac427,62c53a74db91906583b6b51b,2022-07-06_02h33.57.648,Colour_Asymmetry_Pilot,2022.1.3,Win32,39.51319741,62c50e9c1127f2cd403a315f,0,83,83,36,1,threeone,,,,,,,,,,,,,,,,,,,,,,,,,,,,,,,,,,,,,,,,,,,,,,,,,,,,,,,,,,,,,,,,,,,,,,,,,,,,,,,,,,,,,,,,,,,,,,,,,,,,,,,,,,,,,,,,,,,,,,,,,,,,,,,,,,,,,,,,,,,,,,,,,,,,,,,,,,,,,
,,,,,,5bbfeaeb785edb0001fac427,62c53a74db91906583b6b51b,2022-07-06_02h33.57.648,Colour_Asymmetry_Pilot,2022.1.3,Win32,39.51319741,62c50e9c1127f2cd403a315f,0,84,84,149,1,threefour,,,,,,,,,,,,,,,,,,,,,,,,,,,,,,,,,,,,,,,,,,,,,,,,,,,,,,,,,,,,,,,,,,,,,,,,,,,,,,,,,,,,,,,,,,,,,,,,,,,,,,,,,,,,,,,,,,,,,,,,,,,,,,,,,,,,,,,,,,,,,,,,,,,,,,,,,,,,,
,,,,,,5bbfeaeb785edb0001fac427,62c53a74db91906583b6b51b,2022-07-06_02h33.57.648,Colour_Asymmetry_Pilot,2022.1.3,Win32,39.51319741,62c50e9c1127f2cd403a315f,0,85,85,73,1,onethree,,,,,,,,,,,,,,,,,,,,,,,,,,,,,,,,,,,,,,,,,,,,,,,,,,,,,,,,,,,,,,,,,,,,,,,,,,,,,,,,,,,,,,,,,,,,,,,,,,,,,,,,,,,,,,,,,,,,,,,,,,,,,,,,,,,,,,,,,,,,,,,,,,,,,,,,,,,,,
,,,,,,5bbfeaeb785edb0001fac427,62c53a74db91906583b6b51b,2022-07-06_02h33.57.648,Colour_Asymmetry_Pilot,2022.1.3,Win32,39.51319741,62c50e9c1127f2cd403a315f,0,86,86,8,1,onetwo,,,,,,,,,,,,,,,,,,,,,,,,,,,,,,,,,,,,,,,,,,,,,,,,,,,,,,,,,,,,,,,,,,,,,,,,,,,,,,,,,,,,,,,,,,,,,,,,,,,,,,,,,,,,,,,,,,,,,,,,,,,,,,,,,,,,,,,,,,,,,,,,,,,,,,,,,,,,,
,,,,,,5bbfeaeb785edb0001fac427,62c53a74db91906583b6b51b,2022-07-06_02h33.57.648,Colour_Asymmetry_Pilot,2022.1.3,Win32,39.51319741,62c50e9c1127f2cd403a315f,0,87,87,132,1,threeone,,,,,,,,,,,,,,,,,,,,,,,,,,,,,,,,,,,,,,,,,,,,,,,,,,,,,,,,,,,,,,,,,,,,,,,,,,,,,,,,,,,,,,,,,,,,,,,,,,,,,,,,,,,,,,,,,,,,,,,,,,,,,,,,,,,,,,,,,,,,,,,,,,,,,,,,,,,,,
,,,,,,5bbfeaeb785edb0001fac427,62c53a74db91906583b6b51b,2022-07-06_02h33.57.648,Colour_Asymmetry_Pilot,2022.1.3,Win32,39.51319741,62c50e9c1127f2cd403a315f,0,88,88,39,1,fourthree,,,,,,,,,,,,,,,,,,,,,,,,,,,,,,,,,,,,,,,,,,,,,,,,,,,,,,,,,,,,,,,,,,,,,,,,,,,,,,,,,,,,,,,,,,,,,,,,,,,,,,,,,,,,,,,,,,,,,,,,,,,,,,,,,,,,,,,,,,,,,,,,,,,,,,,,,,,,,
,,,,,,5bbfeaeb785edb0001fac427,62c53a74db91906583b6b51b,2022-07-06_02h33.57.648,Colour_Asymmetry_Pilot,2022.1.3,Win32,39.51319741,62c50e9c1127f2cd403a315f,0,89,89,103,1,fourthree,,,,,,,,,,,,,,,,,,,,,,,,,,,,,,,,,,,,,,,,,,,,,,,,,,,,,,,,,,,,,,,,,,,,,,,,,,,,,,,,,,,,,,,,,,,,,,,,,,,,,,,,,,,,,,,,,,,,,,,,,,,,,,,,,,,,,,,,,,,,,,,,,,,,,,,,,,,,,
,,,,,,5bbfeaeb785edb0001fac427,62c53a74db91906583b6b51b,2022-07-06_02h33.57.648,Colour_Asymmetry_Pilot,2022.1.3,Win32,39.51319741,62c50e9c1127f2cd403a315f,0,90,90,128,1,onetwo,,,,,,,,,,,,,,,,,,,,,,,,,,,,,,,,,,,,,,,,,,,,,,,,,,,,,,,,,,,,,,,,,,,,,,,,,,,,,,,,,,,,,,,,,,,,,,,,,,,,,,,,,,,,,,,,,,,,,,,,,,,,,,,,,,,,,,,,,,,,,,,,,,,,,,,,,,,,,
,,,,,,5bbfeaeb785edb0001fac427,62c53a74db91906583b6b51b,2022-07-06_02h33.57.648,Colour_Asymmetry_Pilot,2022.1.3,Win32,39.51319741,62c50e9c1127f2cd403a315f,0,91,91,151,1,fourthree,,,,,,,,,,,,,,,,,,,,,,,,,,,,,,,,,,,,,,,,,,,,,,,,,,,,,,,,,,,,,,,,,,,,,,,,,,,,,,,,,,,,,,,,,,,,,,,,,,,,,,,,,,,,,,,,,,,,,,,,,,,,,,,,,,,,,,,,,,,,,,,,,,,,,,,,,,,,,
,,,,,,5bbfeaeb785edb0001fac427,62c53a74db91906583b6b51b,2022-07-06_02h33.57.648,Colour_Asymmetry_Pilot,2022.1.3,Win32,39.51319741,62c50e9c1127f2cd403a315f,0,92,92,136,1,onetwo,,,,,,,,,,,,,,,,,,,,,,,,,,,,,,,,,,,,,,,,,,,,,,,,,,,,,,,,,,,,,,,,,,,,,,,,,,,,,,,,,,,,,,,,,,,,,,,,,,,,,,,,,,,,,,,,,,,,,,,,,,,,,,,,,,,,,,,,,,,,,,,,,,,,,,,,,,,,,
,,,,,,5bbfeaeb785edb0001fac427,62c53a74db91906583b6b51b,2022-07-06_02h33.57.648,Colour_Asymmetry_Pilot,2022.1.3,Win32,39.51319741,62c50e9c1127f2cd403a315f,0,93,93,43,1,twofour,,,,,,,,,,,,,,,,,,,,,,,,,,,,,,,,,,,,,,,,,,,,,,,,,,,,,,,,,,,,,,,,,,,,,,,,,,,,,,,,,,,,,,,,,,,,,,,,,,,,,,,,,,,,,,,,,,,,,,,,,,,,,,,,,,,,,,,,,,,,,,,,,,,,,,,,,,,,,
,,,,,,5bbfeaeb785edb0001fac427,62c53a74db91906583b6b51b,2022-07-06_02h33.57.648,Colour_Asymmetry_Pilot,2022.1.3,Win32,39.51319741,62c50e9c1127f2cd403a315f,0,94,94,64,1,onetwo,,,,,,,,,,,,,,,,,,,,,,,,,,,,,,,,,,,,,,,,,,,,,,,,,,,,,,,,,,,,,,,,,,,,,,,,,,,,,,,,,,,,,,,,,,,,,,,,,,,,,,,,,,,,,,,,,,,,,,,,,,,,,,,,,,,,,,,,,,,,,,,,,,,,,,,,,,,,,
,,,,,,5bbfeaeb785edb0001fac427,62c53a74db91906583b6b51b,2022-07-06_02h33.57.648,Colour_Asymmetry_Pilot,2022.1.3,Win32,39.51319741,62c50e9c1127f2cd403a315f,0,95,95,9,1,onethree,,,,,,,,,,,,,,,,,,,,,,,,,,,,,,,,,,,,,,,,,,,,,,,,,,,,,,,,,,,,,,,,,,,,,,,,,,,,,,,,,,,,,,,,,,,,,,,,,,,,,,,,,,,,,,,,,,,,,,,,,,,,,,,,,,,,,,,,,,,,,,,,,,,,,,,,,,,,,
,,,,,,5bbfeaeb785edb0001fac427,62c53a74db91906583b6b51b,2022-07-06_02h33.57.648,Colour_Asymmetry_Pilot,2022.1.3,Win32,39.51319741,62c50e9c1127f2cd403a315f,0,96,96,118,1,fourtwo,,,,,,,,,,,,,,,,,,,,,,,,,,,,,,,,,,,,,,,,,,,,,,,,,,,,,,,,,,,,,,,,,,,,,,,,,,,,,,,,,,,,,,,,,,,,,,,,,,,,,,,,,,,,,,,,,,,,,,,,,,,,,,,,,,,,,,,,,,,,,,,,,,,,,,,,,,,,,
,,,,,,5bbfeaeb785edb0001fac427,62c53a74db91906583b6b51b,2022-07-06_02h33.57.648,Colour_Asymmetry_Pilot,2022.1.3,Win32,39.51319741,62c50e9c1127f2cd403a315f,0,97,97,120,1,onetwo,,,,,,,,,,,,,,,,,,,,,,,,,,,,,,,,,,,,,,,,,,,,,,,,,,,,,,,,,,,,,,,,,,,,,,,,,,,,,,,,,,,,,,,,,,,,,,,,,,,,,,,,,,,,,,,,,,,,,,,,,,,,,,,,,,,,,,,,,,,,,,,,,,,,,,,,,,,,,
,,,,,,5bbfeaeb785edb0001fac427,62c53a74db91906583b6b51b,2022-07-06_02h33.57.648,Colour_Asymmetry_Pilot,2022.1.3,Win32,39.51319741,62c50e9c1127f2cd403a315f,0,98,98,150,1,fourtwo,,,,,,,,,,,,,,,,,,,,,,,,,,,,,,,,,,,,,,,,,,,,,,,,,,,,,,,,,,,,,,,,,,,,,,,,,,,,,,,,,,,,,,,,,,,,,,,,,,,,,,,,,,,,,,,,,,,,,,,,,,,,,,,,,,,,,,,,,,,,,,,,,,,,,,,,,,,,,
,,,,,,5bbfeaeb785edb0001fac427,62c53a74db91906583b6b51b,2022-07-06_02h33.57.648,Colour_Asymmetry_Pilot,2022.1.3,Win32,39.51319741,62c50e9c1127f2cd403a315f,0,99,99,21,1,threefour,,,,,,,,,,,,,,,,,,,,,,,,,,,,,,,,,,,,,,,,,,,,,,,,,,,,,,,,,,,,,,,,,,,,,,,,,,,,,,,,,,,,,,,,,,,,,,,,,,,,,,,,,,,,,,,,,,,,,,,,,,,,,,,,,,,,,,,,,,,,,,,,,,,,,,,,,,,,,
,,,,,,5bbfeaeb785edb0001fac427,62c53a74db91906583b6b51b,2022-07-06_02h33.57.648,Colour_Asymmetry_Pilot,2022.1.3,Win32,39.51319741,62c50e9c1127f2cd403a315f,0,100,100,18,1,twoone,,,,,,,,,,,,,,,,,,,,,,,,,,,,,,,,,,,,,,,,,,,,,,,,,,,,,,,,,,,,,,,,,,,,,,,,,,,,,,,,,,,,,,,,,,,,,,,,,,,,,,,,,,,,,,,,,,,,,,,,,,,,,,,,,,,,,,,,,,,,,,,,,,,,,,,,,,,,,
,,,,,,5bbfeaeb785edb0001fac427,62c53a74db91906583b6b51b,2022-07-06_02h33.57.648,Colour_Asymmetry_Pilot,2022.1.3,Win32,39.51319741,62c50e9c1127f2cd403a315f,0,101,101,100,1,threeone,,,,,,,,,,,,,,,,,,,,,,,,,,,,,,,,,,,,,,,,,,,,,,,,,,,,,,,,,,,,,,,,,,,,,,,,,,,,,,,,,,,,,,,,,,,,,,,,,,,,,,,,,,,,,,,,,,,,,,,,,,,,,,,,,,,,,,,,,,,,,,,,,,,,,,,,,,,,,
,,,,,,5bbfeaeb785edb0001fac427,62c53a74db91906583b6b51b,2022-07-06_02h33.57.648,Colour_Asymmetry_Pilot,2022.1.3,Win32,39.51319741,62c50e9c1127f2cd403a315f,0,102,102,92,1,threeone,,,,,,,,,,,,,,,,,,,,,,,,,,,,,,,,,,,,,,,,,,,,,,,,,,,,,,,,,,,,,,,,,,,,,,,,,,,,,,,,,,,,,,,,,,,,,,,,,,,,,,,,,,,,,,,,,,,,,,,,,,,,,,,,,,,,,,,,,,,,,,,,,,,,,,,,,,,,,
,,,,,,5bbfeaeb785edb0001fac427,62c53a74db91906583b6b51b,2022-07-06_02h33.57.648,Colour_Asymmetry_Pilot,2022.1.3,Win32,39.51319741,62c50e9c1127f2cd403a315f,0,103,103,83,1,twofour,,,,,,,,,,,,,,,,,,,,,,,,,,,,,,,,,,,,,,,,,,,,,,,,,,,,,,,,,,,,,,,,,,,,,,,,,,,,,,,,,,,,,,,,,,,,,,,,,,,,,,,,,,,,,,,,,,,,,,,,,,,,,,,,,,,,,,,,,,,,,,,,,,,,,,,,,,,,,
,,,,,,5bbfeaeb785edb0001fac427,62c53a74db91906583b6b51b,2022-07-06_02h33.57.648,Colour_Asymmetry_Pilot,2022.1.3,Win32,39.51319741,62c50e9c1127f2cd403a315f,0,104,104,142,1,fourtwo,,,,,,,,,,,,,,,,,,,,,,,,,,,,,,,,,,,,,,,,,,,,,,,,,,,,,,,,,,,,,,,,,,,,,,,,,,,,,,,,,,,,,,,,,,,,,,,,,,,,,,,,,,,,,,,,,,,,,,,,,,,,,,,,,,,,,,,,,,,,,,,,,,,,,,,,,,,,,
,,,,,,5bbfeaeb785edb0001fac427,62c53a74db91906583b6b51b,2022-07-06_02h33.57.648,Colour_Asymmetry_Pilot,2022.1.3,Win32,39.51319741,62c50e9c1127f2cd403a315f,0,105,105,130,1,twoone,,,,,,,,,,,,,,,,,,,,,,,,,,,,,,,,,,,,,,,,,,,,,,,,,,,,,,,,,,,,,,,,,,,,,,,,,,,,,,,,,,,,,,,,,,,,,,,,,,,,,,,,,,,,,,,,,,,,,,,,,,,,,,,,,,,,,,,,,,,,,,,,,,,,,,,,,,,,,
,,,,,,5bbfeaeb785edb0001fac427,62c53a74db91906583b6b51b,2022-07-06_02h33.57.648,Colour_Asymmetry_Pilot,2022.1.3,Win32,39.51319741,62c50e9c1127f2cd403a315f,0,106,106,26,1,twoone,,,,,,,,,,,,,,,,,,,,,,,,,,,,,,,,,,,,,,,,,,,,,,,,,,,,,,,,,,,,,,,,,,,,,,,,,,,,,,,,,,,,,,,,,,,,,,,,,,,,,,,,,,,,,,,,,,,,,,,,,,,,,,,,,,,,,,,,,,,,,,,,,,,,,,,,,,,,,
,,,,,,5bbfeaeb785edb0001fac427,62c53a74db91906583b6b51b,2022-07-06_02h33.57.648,Colour_Asymmetry_Pilot,2022.1.3,Win32,39.51319741,62c50e9c1127f2cd403a315f,0,107,107,41,1,onethree,,,,,,,,,,,,,,,,,,,,,,,,,,,,,,,,,,,,,,,,,,,,,,,,,,,,,,,,,,,,,,,,,,,,,,,,,,,,,,,,,,,,,,,,,,,,,,,,,,,,,,,,,,,,,,,,,,,,,,,,,,,,,,,,,,,,,,,,,,,,,,,,,,,,,,,,,,,,,
,,,,,,5bbfeaeb785edb0001fac427,62c53a74db91906583b6b51b,2022-07-06_02h33.57.648,Colour_Asymmetry_Pilot,2022.1.3,Win32,39.51319741,62c50e9c1127f2cd403a315f,0,108,108,55,1,fourthree,,,,,,,,,,,,,,,,,,,,,,,,,,,,,,,,,,,,,,,,,,,,,,,,,,,,,,,,,,,,,,,,,,,,,,,,,,,,,,,,,,,,,,,,,,,,,,,,,,,,,,,,,,,,,,,,,,,,,,,,,,,,,,,,,,,,,,,,,,,,,,,,,,,,,,,,,,,,,
,,,,,,5bbfeaeb785edb0001fac427,62c53a74db91906583b6b51b,2022-07-06_02h33.57.648,Colour_Asymmetry_Pilot,2022.1.3,Win32,39.51319741,62c50e9c1127f2cd403a315f,0,109,109,119,1,fourthree,,,,,,,,,,,,,,,,,,,,,,,,,,,,,,,,,,,,,,,,,,,,,,,,,,,,,,,,,,,,,,,,,,,,,,,,,,,,,,,,,,,,,,,,,,,,,,,,,,,,,,,,,,,,,,,,,,,,,,,,,,,,,,,,,,,,,,,,,,,,,,,,,,,,,,,,,,,,,
,,,,,,5bbfeaeb785edb0001fac427,62c53a74db91906583b6b51b,2022-07-06_02h33.57.648,Colour_Asymmetry_Pilot,2022.1.3,Win32,39.51319741,62c50e9c1127f2cd403a315f,0,110,110,19,1,twofour,,,,,,,,,,,,,,,,,,,,,,,,,,,,,,,,,,,,,,,,,,,,,,,,,,,,,,,,,,,,,,,,,,,,,,,,,,,,,,,,,,,,,,,,,,,,,,,,,,,,,,,,,,,,,,,,,,,,,,,,,,,,,,,,,,,,,,,,,,,,,,,,,,,,,,,,,,,,,
,,,,,,5bbfeaeb785edb0001fac427,62c53a74db91906583b6b51b,2022-07-06_02h33.57.648,Colour_Asymmetry_Pilot,2022.1.3,Win32,39.51319741,62c50e9c1127f2cd403a315f,0,111,111,127,1,fourthree,,,,,,,,,,,,,,,,,,,,,,,,,,,,,,,,,,,,,,,,,,,,,,,,,,,,,,,,,,,,,,,,,,,,,,,,,,,,,,,,,,,,,,,,,,,,,,,,,,,,,,,,,,,,,,,,,,,,,,,,,,,,,,,,,,,,,,,,,,,,,,,,,,,,,,,,,,,,,
,,,,,,5bbfeaeb785edb0001fac427,62c53a74db91906583b6b51b,2022-07-06_02h33.57.648,Colour_Asymmetry_Pilot,2022.1.3,Win32,39.51319741,62c50e9c1127f2cd403a315f,0,112,112,58,1,twoone,,,,,,,,,,,,,,,,,,,,,,,,,,,,,,,,,,,,,,,,,,,,,,,,,,,,,,,,,,,,,,,,,,,,,,,,,,,,,,,,,,,,,,,,,,,,,,,,,,,,,,,,,,,,,,,,,,,,,,,,,,,,,,,,,,,,,,,,,,,,,,,,,,,,,,,,,,,,,
,,,,,,5bbfeaeb785edb0001fac427,62c53a74db91906583b6b51b,2022-07-06_02h33.57.648,Colour_Asymmetry_Pilot,2022.1.3,Win32,39.51319741,62c50e9c1127f2cd403a315f,0,113,113,34,1,twoone,,,,,,,,,,,,,,,,,,,,,,,,,,,,,,,,,,,,,,,,,,,,,,,,,,,,,,,,,,,,,,,,,,,,,,,,,,,,,,,,,,,,,,,,,,,,,,,,,,,,,,,,,,,,,,,,,,,,,,,,,,,,,,,,,,,,,,,,,,,,,,,,,,,,,,,,,,,,,
,,,,,,5bbfeaeb785edb0001fac427,62c53a74db91906583b6b51b,2022-07-06_02h33.57.648,Colour_Asymmetry_Pilot,2022.1.3,Win32,39.51319741,62c50e9c1127f2cd403a315f,0,114,114,17,1,onethree,,,,,,,,,,,,,,,,,,,,,,,,,,,,,,,,,,,,,,,,,,,,,,,,,,,,,,,,,,,,,,,,,,,,,,,,,,,,,,,,,,,,,,,,,,,,,,,,,,,,,,,,,,,,,,,,,,,,,,,,,,,,,,,,,,,,,,,,,,,,,,,,,,,,,,,,,,,,,
,,,,,,5bbfeaeb785edb0001fac427,62c53a74db91906583b6b51b,2022-07-06_02h33.57.648,Colour_Asymmetry_Pilot,2022.1.3,Win32,39.51319741,62c50e9c1127f2cd403a315f,0,115,115,104,1,onetwo,,,,,,,,,,,,,,,,,,,,,,,,,,,,,,,,,,,,,,,,,,,,,,,,,,,,,,,,,,,,,,,,,,,,,,,,,,,,,,,,,,,,,,,,,,,,,,,,,,,,,,,,,,,,,,,,,,,,,,,,,,,,,,,,,,,,,,,,,,,,,,,,,,,,,,,,,,,,,
,,,,,,5bbfeaeb785edb0001fac427,62c53a74db91906583b6b51b,2022-07-06_02h33.57.648,Colour_Asymmetry_Pilot,2022.1.3,Win32,39.51319741,62c50e9c1127f2cd403a315f,0,116,116,80,1,onetwo,,,,,,,,,,,,,,,,,,,,,,,,,,,,,,,,,,,,,,,,,,,,,,,,,,,,,,,,,,,,,,,,,,,,,,,,,,,,,,,,,,,,,,,,,,,,,,,,,,,,,,,,,,,,,,,,,,,,,,,,,,,,,,,,,,,,,,,,,,,,,,,,,,,,,,,,,,,,,
,,,,,,5bbfeaeb785edb0001fac427,62c53a74db91906583b6b51b,2022-07-06_02h33.57.648,Colour_Asymmetry_Pilot,2022.1.3,Win32,39.51319741,62c50e9c1127f2cd403a315f,0,117,117,37,1,threefour,,,,,,,,,,,,,,,,,,,,,,,,,,,,,,,,,,,,,,,,,,,,,,,,,,,,,,,,,,,,,,,,,,,,,,,,,,,,,,,,,,,,,,,,,,,,,,,,,,,,,,,,,,,,,,,,,,,,,,,,,,,,,,,,,,,,,,,,,,,,,,,,,,,,,,,,,,,,,
,,,,,,5bbfeaeb785edb0001fac427,62c53a74db91906583b6b51b,2022-07-06_02h33.57.648,Colour_Asymmetry_Pilot,2022.1.3,Win32,39.51319741,62c50e9c1127f2cd403a315f,0,118,118,13,1,threefour,,,,,,,,,,,,,,,,,,,,,,,,,,,,,,,,,,,,,,,,,,,,,,,,,,,,,,,,,,,,,,,,,,,,,,,,,,,,,,,,,,,,,,,,,,,,,,,,,,,,,,,,,,,,,,,,,,,,,,,,,,,,,,,,,,,,,,,,,,,,,,,,,,,,,,,,,,,,,
,,,,,,5bbfeaeb785edb0001fac427,62c53a74db91906583b6b51b,2022-07-06_02h33.57.648,Colour_Asymmetry_Pilot,2022.1.3,Win32,39.51319741,62c50e9c1127f2cd403a315f,0,119,119,154,1,twoone,,,,,,,,,,,,,,,,,,,,,,,,,,,,,,,,,,,,,,,,,,,,,,,,,,,,,,,,,,,,,,,,,,,,,,,,,,,,,,,,,,,,,,,,,,,,,,,,,,,,,,,,,,,,,,,,,,,,,,,,,,,,,,,,,,,,,,,,,,,,,,,,,,,,,,,,,,,,,
,,,,,,5bbfeaeb785edb0001fac427,62c53a74db91906583b6b51b,2022-07-06_02h33.57.648,Colour_Asymmetry_Pilot,2022.1.3,Win32,39.51319741,62c50e9c1127f2cd403a315f,0,120,120,11,1,twofour,,,,,,,,,,,,,,,,,,,,,,,,,,,,,,,,,,,,,,,,,,,,,,,,,,,,,,,,,,,,,,,,,,,,,,,,,,,,,,,,,,,,,,,,,,,,,,,,,,,,,,,,,,,,,,,,,,,,,,,,,,,,,,,,,,,,,,,,,,,,,,,,,,,,,,,,,,,,,
,,,,,,5bbfeaeb785edb0001fac427,62c53a74db91906583b6b51b,2022-07-06_02h33.57.648,Colour_Asymmetry_Pilot,2022.1.3,Win32,39.51319741,62c50e9c1127f2cd403a315f,0,121,121,116,1,threeone,,,,,,,,,,,,,,,,,,,,,,,,,,,,,,,,,,,,,,,,,,,,,,,,,,,,,,,,,,,,,,,,,,,,,,,,,,,,,,,,,,,,,,,,,,,,,,,,,,,,,,,,,,,,,,,,,,,,,,,,,,,,,,,,,,,,,,,,,,,,,,,,,,,,,,,,,,,,,
,,,,,,5bbfeaeb785edb0001fac427,62c53a74db91906583b6b51b,2022-07-06_02h33.57.648,Colour_Asymmetry_Pilot,2022.1.3,Win32,39.51319741,62c50e9c1127f2cd403a315f,0,122,122,129,1,onethree,,,,,,,,,,,,,,,,,,,,,,,,,,,,,,,,,,,,,,,,,,,,,,,,,,,,,,,,,,,,,,,,,,,,,,,,,,,,,,,,,,,,,,,,,,,,,,,,,,,,,,,,,,,,,,,,,,,,,,,,,,,,,,,,,,,,,,,,,,,,,,,,,,,,,,,,,,,,,
,,,,,,5bbfeaeb785edb0001fac427,62c53a74db91906583b6b51b,2022-07-06_02h33.57.648,Colour_Asymmetry_Pilot,2022.1.3,Win32,39.51319741,62c50e9c1127f2cd403a315f,0,123,123,91,1,twofour,,,,,,,,,,,,,,,,,,,,,,,,,,,,,,,,,,,,,,,,,,,,,,,,,,,,,,,,,,,,,,,,,,,,,,,,,,,,,,,,,,,,,,,,,,,,,,,,,,,,,,,,,,,,,,,,,,,,,,,,,,,,,,,,,,,,,,,,,,,,,,,,,,,,,,,,,,,,,
,,,,,,5bbfeaeb785edb0001fac427,62c53a74db91906583b6b51b,2022-07-06_02h33.57.648,Colour_Asymmetry_Pilot,2022.1.3,Win32,39.51319741,62c50e9c1127f2cd403a315f,0,124,124,50,1,twoone,,,,,,,,,,,,,,,,,,,,,,,,,,,,,,,,,,,,,,,,,,,,,,,,,,,,,,,,,,,,,,,,,,,,,,,,,,,,,,,,,,,,,,,,,,,,,,,,,,,,,,,,,,,,,,,,,,,,,,,,,,,,,,,,,,,,,,,,,,,,,,,,,,,,,,,,,,,,,
,,,,,,5bbfeaeb785edb0001fac427,62c53a74db91906583b6b51b,2022-07-06_02h33.57.648,Colour_Asymmetry_Pilot,2022.1.3,Win32,39.51319741,62c50e9c1127f2cd403a315f,0,125,125,5,1,threefour,,,,,,,,,,,,,,,,,,,,,,,,,,,,,,,,,,,,,,,,,,,,,,,,,,,,,,,,,,,,,,,,,,,,,,,,,,,,,,,,,,,,,,,,,,,,,,,,,,,,,,,,,,,,,,,,,,,,,,,,,,,,,,,,,,,,,,,,,,,,,,,,,,,,,,,,,,,,,
,,,,,,5bbfeaeb785edb0001fac427,62c53a74db91906583b6b51b,2022-07-06_02h33.57.648,Colour_Asymmetry_Pilot,2022.1.3,Win32,39.51319741,62c50e9c1127f2cd403a315f,0,126,126,85,1,threefour,,,,,,,,,,,,,,,,,,,,,,,,,,,,,,,,,,,,,,,,,,,,,,,,,,,,,,,,,,,,,,,,,,,,,,,,,,,,,,,,,,,,,,,,,,,,,,,,,,,,,,,,,,,,,,,,,,,,,,,,,,,,,,,,,,,,,,,,,,,,,,,,,,,,,,,,,,,,,
,,,,,,5bbfeaeb785edb0001fac427,62c53a74db91906583b6b51b,2022-07-06_02h33.57.648,Colour_Asymmetry_Pilot,2022.1.3,Win32,39.51319741,62c50e9c1127f2cd403a315f,0,127,127,140,1,threeone,,,,,,,,,,,,,,,,,,,,,,,,,,,,,,,,,,,,,,,,,,,,,,,,,,,,,,,,,,,,,,,,,,,,,,,,,,,,,,,,,,,,,,,,,,,,,,,,,,,,,,,,,,,,,,,,,,,,,,,,,,,,,,,,,,,,,,,,,,,,,,,,,,,,,,,,,,,,,
,,,,,,5bbfeaeb785edb0001fac427,62c53a74db91906583b6b51b,2022-07-06_02h33.57.648,Colour_Asymmetry_Pilot,2022.1.3,Win32,39.51319741,62c50e9c1127f2cd403a315f,0,128,128,135,1,fourthree,,,,,,,,,,,,,,,,,,,,,,,,,,,,,,,,,,,,,,,,,,,,,,,,,,,,,,,,,,,,,,,,,,,,,,,,,,,,,,,,,,,,,,,,,,,,,,,,,,,,,,,,,,,,,,,,,,,,,,,,,,,,,,,,,,,,,,,,,,,,,,,,,,,,,,,,,,,,,
,,,,,,5bbfeaeb785edb0001fac427,62c53a74db91906583b6b51b,2022-07-06_02h33.57.648,Colour_Asymmetry_Pilot,2022.1.3,Win32,39.51319741,62c50e9c1127f2cd403a315f,0,129,129,47,1,fourthree,,,,,,,,,,,,,,,,,,,,,,,,,,,,,,,,,,,,,,,,,,,,,,,,,,,,,,,,,,,,,,,,,,,,,,,,,,,,,,,,,,,,,,,,,,,,,,,,,,,,,,,,,,,,,,,,,,,,,,,,,,,,,,,,,,,,,,,,,,,,,,,,,,,,,,,,,,,,,
,,,,,,5bbfeaeb785edb0001fac427,62c53a74db91906583b6b51b,2022-07-06_02h33.57.648,Colour_Asymmetry_Pilot,2022.1.3,Win32,39.51319741,62c50e9c1127f2cd403a315f,0,130,130,133,1,threefour,,,,,,,,,,,,,,,,,,,,,,,,,,,,,,,,,,,,,,,,,,,,,,,,,,,,,,,,,,,,,,,,,,,,,,,,,,,,,,,,,,,,,,,,,,,,,,,,,,,,,,,,,,,,,,,,,,,,,,,,,,,,,,,,,,,,,,,,,,,,,,,,,,,,,,,,,,,,,
,,,,,,5bbfeaeb785edb0001fac427,62c53a74db91906583b6b51b,2022-07-06_02h33.57.648,Colour_Asymmetry_Pilot,2022.1.3,Win32,39.51319741,62c50e9c1127f2cd403a315f,0,131,131,108,1,threeone,,,,,,,,,,,,,,,,,,,,,,,,,,,,,,,,,,,,,,,,,,,,,,,,,,,,,,,,,,,,,,,,,,,,,,,,,,,,,,,,,,,,,,,,,,,,,,,,,,,,,,,,,,,,,,,,,,,,,,,,,,,,,,,,,,,,,,,,,,,,,,,,,,,,,,,,,,,,,
,,,,,,5bbfeaeb785edb0001fac427,62c53a74db91906583b6b51b,2022-07-06_02h33.57.648,Colour_Asymmetry_Pilot,2022.1.3,Win32,39.51319741,62c50e9c1127f2cd403a315f,0,132,132,86,1,fourtwo,,,,,,,,,,,,,,,,,,,,,,,,,,,,,,,,,,,,,,,,,,,,,,,,,,,,,,,,,,,,,,,,,,,,,,,,,,,,,,,,,,,,,,,,,,,,,,,,,,,,,,,,,,,,,,,,,,,,,,,,,,,,,,,,,,,,,,,,,,,,,,,,,,,,,,,,,,,,,
,,,,,,5bbfeaeb785edb0001fac427,62c53a74db91906583b6b51b,2022-07-06_02h33.57.648,Colour_Asymmetry_Pilot,2022.1.3,Win32,39.51319741,62c50e9c1127f2cd403a315f,0,133,133,49,1,onethree,,,,,,,,,,,,,,,,,,,,,,,,,,,,,,,,,,,,,,,,,,,,,,,,,,,,,,,,,,,,,,,,,,,,,,,,,,,,,,,,,,,,,,,,,,,,,,,,,,,,,,,,,,,,,,,,,,,,,,,,,,,,,,,,,,,,,,,,,,,,,,,,,,,,,,,,,,,,,
,,,,,,5bbfeaeb785edb0001fac427,62c53a74db91906583b6b51b,2022-07-06_02h33.57.648,Colour_Asymmetry_Pilot,2022.1.3,Win32,39.51319741,62c50e9c1127f2cd403a315f,0,134,134,93,1,threefour,,,,,,,,,,,,,,,,,,,,,,,,,,,,,,,,,,,,,,,,,,,,,,,,,,,,,,,,,,,,,,,,,,,,,,,,,,,,,,,,,,,,,,,,,,,,,,,,,,,,,,,,,,,,,,,,,,,,,,,,,,,,,,,,,,,,,,,,,,,,,,,,,,,,,,,,,,,,,
,,,,,,5bbfeaeb785edb0001fac427,62c53a74db91906583b6b51b,2022-07-06_02h33.57.648,Colour_Asymmetry_Pilot,2022.1.3,Win32,39.51319741,62c50e9c1127f2cd403a315f,0,135,135,102,1,fourtwo,,,,,,,,,,,,,,,,,,,,,,,,,,,,,,,,,,,,,,,,,,,,,,,,,,,,,,,,,,,,,,,,,,,,,,,,,,,,,,,,,,,,,,,,,,,,,,,,,,,,,,,,,,,,,,,,,,,,,,,,,,,,,,,,,,,,,,,,,,,,,,,,,,,,,,,,,,,,,
,,,,,,5bbfeaeb785edb0001fac427,62c53a74db91906583b6b51b,2022-07-06_02h33.57.648,Colour_Asymmetry_Pilot,2022.1.3,Win32,39.51319741,62c50e9c1127f2cd403a315f,0,136,136,101,1,threefour,,,,,,,,,,,,,,,,,,,,,,,,,,,,,,,,,,,,,,,,,,,,,,,,,,,,,,,,,,,,,,,,,,,,,,,,,,,,,,,,,,,,,,,,,,,,,,,,,,,,,,,,,,,,,,,,,,,,,,,,,,,,,,,,,,,,,,,,,,,,,,,,,,,,,,,,,,,,,
,,,,,,5bbfeaeb785edb0001fac427,62c53a74db91906583b6b51b,2022-07-06_02h33.57.648,Colour_Asymmetry_Pilot,2022.1.3,Win32,39.51319741,62c50e9c1127f2cd403a315f,0,137,137,0,1,onetwo,,,,,,,,,,,,,,,,,,,,,,,,,,,,,,,,,,,,,,,,,,,,,,,,,,,,,,,,,,,,,,,,,,,,,,,,,,,,,,,,,,,,,,,,,,,,,,,,,,,,,,,,,,,,,,,,,,,,,,,,,,,,,,,,,,,,,,,,,,,,,,,,,,,,,,,,,,,,,
,,,,,,5bbfeaeb785edb0001fac427,62c53a74db91906583b6b51b,2022-07-06_02h33.57.648,Colour_Asymmetry_Pilot,2022.1.3,Win32,39.51319741,62c50e9c1127f2cd403a315f,0,138,138,74,1,twoone,,,,,,,,,,,,,,,,,,,,,,,,,,,,,,,,,,,,,,,,,,,,,,,,,,,,,,,,,,,,,,,,,,,,,,,,,,,,,,,,,,,,,,,,,,,,,,,,,,,,,,,,,,,,,,,,,,,,,,,,,,,,,,,,,,,,,,,,,,,,,,,,,,,,,,,,,,,,,
,,,,,,5bbfeaeb785edb0001fac427,62c53a74db91906583b6b51b,2022-07-06_02h33.57.648,Colour_Asymmetry_Pilot,2022.1.3,Win32,39.51319741,62c50e9c1127f2cd403a315f,0,139,139,71,1,fourthree,,,,,,,,,,,,,,,,,,,,,,,,,,,,,,,,,,,,,,,,,,,,,,,,,,,,,,,,,,,,,,,,,,,,,,,,,,,,,,,,,,,,,,,,,,,,,,,,,,,,,,,,,,,,,,,,,,,,,,,,,,,,,,,,,,,,,,,,,,,,,,,,,,,,,,,,,,,,,
,,,,,,5bbfeaeb785edb0001fac427,62c53a74db91906583b6b51b,2022-07-06_02h33.57.648,Colour_Asymmetry_Pilot,2022.1.3,Win32,39.51319741,62c50e9c1127f2cd403a315f,0,140,140,25,1,onethree,,,,,,,,,,,,,,,,,,,,,,,,,,,,,,,,,,,,,,,,,,,,,,,,,,,,,,,,,,,,,,,,,,,,,,,,,,,,,,,,,,,,,,,,,,,,,,,,,,,,,,,,,,,,,,,,,,,,,,,,,,,,,,,,,,,,,,,,,,,,,,,,,,,,,,,,,,,,,
,,,,,,5bbfeaeb785edb0001fac427,62c53a74db91906583b6b51b,2022-07-06_02h33.57.648,Colour_Asymmetry_Pilot,2022.1.3,Win32,39.51319741,62c50e9c1127f2cd403a315f,0,141,141,20,1,threeone,,,,,,,,,,,,,,,,,,,,,,,,,,,,,,,,,,,,,,,,,,,,,,,,,,,,,,,,,,,,,,,,,,,,,,,,,,,,,,,,,,,,,,,,,,,,,,,,,,,,,,,,,,,,,,,,,,,,,,,,,,,,,,,,,,,,,,,,,,,,,,,,,,,,,,,,,,,,,
,,,,,,5bbfeaeb785edb0001fac427,62c53a74db91906583b6b51b,2022-07-06_02h33.57.648,Colour_Asymmetry_Pilot,2022.1.3,Win32,39.51319741,62c50e9c1127f2cd403a315f,0,142,142,139,1,twofour,,,,,,,,,,,,,,,,,,,,,,,,,,,,,,,,,,,,,,,,,,,,,,,,,,,,,,,,,,,,,,,,,,,,,,,,,,,,,,,,,,,,,,,,,,,,,,,,,,,,,,,,,,,,,,,,,,,,,,,,,,,,,,,,,,,,,,,,,,,,,,,,,,,,,,,,,,,,,
,,,,,,5bbfeaeb785edb0001fac427,62c53a74db91906583b6b51b,2022-07-06_02h33.57.648,Colour_Asymmetry_Pilot,2022.1.3,Win32,39.51319741,62c50e9c1127f2cd403a315f,0,143,143,23,1,fourthree,,,,,,,,,,,,,,,,,,,,,,,,,,,,,,,,,,,,,,,,,,,,,,,,,,,,,,,,,,,,,,,,,,,,,,,,,,,,,,,,,,,,,,,,,,,,,,,,,,,,,,,,,,,,,,,,,,,,,,,,,,,,,,,,,,,,,,,,,,,,,,,,,,,,,,,,,,,,,
,,,,,,5bbfeaeb785edb0001fac427,62c53a74db91906583b6b51b,2022-07-06_02h33.57.648,Colour_Asymmetry_Pilot,2022.1.3,Win32,39.51319741,62c50e9c1127f2cd403a315f,0,144,144,76,1,threeone,,,,,,,,,,,,,,,,,,,,,,,,,,,,,,,,,,,,,,,,,,,,,,,,,,,,,,,,,,,,,,,,,,,,,,,,,,,,,,,,,,,,,,,,,,,,,,,,,,,,,,,,,,,,,,,,,,,,,,,,,,,,,,,,,,,,,,,,,,,,,,,,,,,,,,,,,,,,,
,,,,,,5bbfeaeb785edb0001fac427,62c53a74db91906583b6b51b,2022-07-06_02h33.57.648,Colour_Asymmetry_Pilot,2022.1.3,Win32,39.51319741,62c50e9c1127f2cd403a315f,0,145,145,153,1,onethree,,,,,,,,,,,,,,,,,,,,,,,,,,,,,,,,,,,,,,,,,,,,,,,,,,,,,,,,,,,,,,,,,,,,,,,,,,,,,,,,,,,,,,,,,,,,,,,,,,,,,,,,,,,,,,,,,,,,,,,,,,,,,,,,,,,,,,,,,,,,,,,,,,,,,,,,,,,,,
,,,,,,5bbfeaeb785edb0001fac427,62c53a74db91906583b6b51b,2022-07-06_02h33.57.648,Colour_Asymmetry_Pilot,2022.1.3,Win32,39.51319741,62c50e9c1127f2cd403a315f,0,146,146,145,1,onethree,,,,,,,,,,,,,,,,,,,,,,,,,,,,,,,,,,,,,,,,,,,,,,,,,,,,,,,,,,,,,,,,,,,,,,,,,,,,,,,,,,,,,,,,,,,,,,,,,,,,,,,,,,,,,,,,,,,,,,,,,,,,,,,,,,,,,,,,,,,,,,,,,,,,,,,,,,,,,
,,,,,,5bbfeaeb785edb0001fac427,62c53a74db91906583b6b51b,2022-07-06_02h33.57.648,Colour_Asymmetry_Pilot,2022.1.3,Win32,39.51319741,62c50e9c1127f2cd403a315f,0,147,147,48,1,onetwo,,,,,,,,,,,,,,,,,,,,,,,,,,,,,,,,,,,,,,,,,,,,,,,,,,,,,,,,,,,,,,,,,,,,,,,,,,,,,,,,,,,,,,,,,,,,,,,,,,,,,,,,,,,,,,,,,,,,,,,,,,,,,,,,,,,,,,,,,,,,,,,,,,,,,,,,,,,,,
,,,,,,5bbfeaeb785edb0001fac427,62c53a74db91906583b6b51b,2022-07-06_02h33.57.648,Colour_Asymmetry_Pilot,2022.1.3,Win32,39.51319741,62c50e9c1127f2cd403a315f,0,148,148,159,1,fourthree,,,,,,,,,,,,,,,,,,,,,,,,,,,,,,,,,,,,,,,,,,,,,,,,,,,,,,,,,,,,,,,,,,,,,,,,,,,,,,,,,,,,,,,,,,,,,,,,,,,,,,,,,,,,,,,,,,,,,,,,,,,,,,,,,,,,,,,,,,,,,,,,,,,,,,,,,,,,,
,,,,,,5bbfeaeb785edb0001fac427,62c53a74db91906583b6b51b,2022-07-06_02h33.57.648,Colour_Asymmetry_Pilot,2022.1.3,Win32,39.51319741,62c50e9c1127f2cd403a315f,0,149,149,22,1,fourtwo,,,,,,,,,,,,,,,,,,,,,,,,,,,,,,,,,,,,,,,,,,,,,,,,,,,,,,,,,,,,,,,,,,,,,,,,,,,,,,,,,,,,,,,,,,,,,,,,,,,,,,,,,,,,,,,,,,,,,,,,,,,,,,,,,,,,,,,,,,,,,,,,,,,,,,,,,,,,,
,,,,,,5bbfeaeb785edb0001fac427,62c53a74db91906583b6b51b,2022-07-06_02h33.57.648,Colour_Asymmetry_Pilot,2022.1.3,Win32,39.51319741,62c50e9c1127f2cd403a315f,0,150,150,147,1,twofour,,,,,,,,,,,,,,,,,,,,,,,,,,,,,,,,,,,,,,,,,,,,,,,,,,,,,,,,,,,,,,,,,,,,,,,,,,,,,,,,,,,,,,,,,,,,,,,,,,,,,,,,,,,,,,,,,,,,,,,,,,,,,,,,,,,,,,,,,,,,,,,,,,,,,,,,,,,,,
,,,,,,5bbfeaeb785edb0001fac427,62c53a74db91906583b6b51b,2022-07-06_02h33.57.648,Colour_Asymmetry_Pilot,2022.1.3,Win32,39.51319741,62c50e9c1127f2cd403a315f,0,151,151,88,1,onetwo,,,,,,,,,,,,,,,,,,,,,,,,,,,,,,,,,,,,,,,,,,,,,,,,,,,,,,,,,,,,,,,,,,,,,,,,,,,,,,,,,,,,,,,,,,,,,,,,,,,,,,,,,,,,,,,,,,,,,,,,,,,,,,,,,,,,,,,,,,,,,,,,,,,,,,,,,,,,,
,,,,,,5bbfeaeb785edb0001fac427,62c53a74db91906583b6b51b,2022-07-06_02h33.57.648,Colour_Asymmetry_Pilot,2022.1.3,Win32,39.51319741,62c50e9c1127f2cd403a315f,0,152,152,79,1,fourthree,,,,,,,,,,,,,,,,,,,,,,,,,,,,,,,,,,,,,,,,,,,,,,,,,,,,,,,,,,,,,,,,,,,,,,,,,,,,,,,,,,,,,,,,,,,,,,,,,,,,,,,,,,,,,,,,,,,,,,,,,,,,,,,,,,,,,,,,,,,,,,,,,,,,,,,,,,,,,
,,,,,,5bbfeaeb785edb0001fac427,62c53a74db91906583b6b51b,2022-07-06_02h33.57.648,Colour_Asymmetry_Pilot,2022.1.3,Win32,39.51319741,62c50e9c1127f2cd403a315f,0,153,153,40,1,onetwo,,,,,,,,,,,,,,,,,,,,,,,,,,,,,,,,,,,,,,,,,,,,,,,,,,,,,,,,,,,,,,,,,,,,,,,,,,,,,,,,,,,,,,,,,,,,,,,,,,,,,,,,,,,,,,,,,,,,,,,,,,,,,,,,,,,,,,,,,,,,,,,,,,,,,,,,,,,,,
,,,,,,5bbfeaeb785edb0001fac427,62c53a74db91906583b6b51b,2022-07-06_02h33.57.648,Colour_Asymmetry_Pilot,2022.1.3,Win32,39.51319741,62c50e9c1127f2cd403a315f,0,154,154,75,1,twofour,,,,,,,,,,,,,,,,,,,,,,,,,,,,,,,,,,,,,,,,,,,,,,,,,,,,,,,,,,,,,,,,,,,,,,,,,,,,,,,,,,,,,,,,,,,,,,,,,,,,,,,,,,,,,,,,,,,,,,,,,,,,,,,,,,,,,,,,,,,,,,,,,,,,,,,,,,,,,
,,,,,,5bbfeaeb785edb0001fac427,62c53a74db91906583b6b51b,2022-07-06_02h33.57.648,Colour_Asymmetry_Pilot,2022.1.3,Win32,39.51319741,62c50e9c1127f2cd403a315f,0,155,155,38,1,fourtwo,,,,,,,,,,,,,,,,,,,,,,,,,,,,,,,,,,,,,,,,,,,,,,,,,,,,,,,,,,,,,,,,,,,,,,,,,,,,,,,,,,,,,,,,,,,,,,,,,,,,,,,,,,,,,,,,,,,,,,,,,,,,,,,,,,,,,,,,,,,,,,,,,,,,,,,,,,,,,
,,,,,,5bbfeaeb785edb0001fac427,62c53a74db91906583b6b51b,2022-07-06_02h33.57.648,Colour_Asymmetry_Pilot,2022.1.3,Win32,39.51319741,62c50e9c1127f2cd403a315f,0,156,156,158,1,fourtwo,,,,,,,,,,,,,,,,,,,,,,,,,,,,,,,,,,,,,,,,,,,,,,,,,,,,,,,,,,,,,,,,,,,,,,,,,,,,,,,,,,,,,,,,,,,,,,,,,,,,,,,,,,,,,,,,,,,,,,,,,,,,,,,,,,,,,,,,,,,,,,,,,,,,,,,,,,,,,
,,,,,,5bbfeaeb785edb0001fac427,62c53a74db91906583b6b51b,2022-07-06_02h33.57.648,Colour_Asymmetry_Pilot,2022.1.3,Win32,39.51319741,62c50e9c1127f2cd403a315f,0,157,157,94,1,fourtwo,,,,,,,,,,,,,,,,,,,,,,,,,,,,,,,,,,,,,,,,,,,,,,,,,,,,,,,,,,,,,,,,,,,,,,,,,,,,,,,,,,,,,,,,,,,,,,,,,,,,,,,,,,,,,,,,,,,,,,,,,,,,,,,,,,,,,,,,,,,,,,,,,,,,,,,,,,,,,
,,,,,,5bbfeaeb785edb0001fac427,62c53a74db91906583b6b51b,2022-07-06_02h33.57.648,Colour_Asymmetry_Pilot,2022.1.3,Win32,39.51319741,62c50e9c1127f2cd403a315f,0,158,158,54,1,fourtwo,,,,,,,,,,,,,,,,,,,,,,,,,,,,,,,,,,,,,,,,,,,,,,,,,,,,,,,,,,,,,,,,,,,,,,,,,,,,,,,,,,,,,,,,,,,,,,,,,,,,,,,,,,,,,,,,,,,,,,,,,,,,,,,,,,,,,,,,,,,,,,,,,,,,,,,,,,,,,
,,,,,,5bbfeaeb785edb0001fac427,62c53a74db91906583b6b51b,2022-07-06_02h33.57.648,Colour_Asymmetry_Pilot,2022.1.3,Win32,39.51319741,62c50e9c1127f2cd403a315f,0,159,159,124,1,threeone,,,,,,,,,,,,,,,,,,,,,,,,,,,,,,,,,,,,,,,,,,,,,,,,,,,,,,,,,,,,,,,,,,,,,,,,,,,,,,,,,,,,,,,,,,,,,,,,,,,,,,,,,,,,,,,,,,,,,,,,,,,,,,,,,,,,,,,,,,,,,,,,,,,,,,,,,,,,,
,,,,,,5bbfeaeb785edb0001fac427,62c53a74db91906583b6b51b,2022-07-06_02h33.57.648,Colour_Asymmetry_Pilot,2022.1.3,Win32,39.51319741,62c50e9c1127f2cd403a315f,0,160,160,111,1,fourthree,,,,,,,,,,,,,,,,,,,,,,,,,,,,,,,,,,,,,,,,,,,,,,,,,,,,,,,,,,,,,,,,,,,,,,,,,,,,,,,,,,,,,,,,,,,,,,,,,,,,,,,,,,,,,,,,,,,,,,,,,,,,,,,,,,,,,,,,,,,,,,,,,,,,,,,,,,,,,
,,,,,,5bbfeaeb785edb0001fac427,62c53a74db91906583b6b51b,2022-07-06_02h33.57.648,Colour_Asymmetry_Pilot,2022.1.3,Win32,39.51319741,62c50e9c1127f2cd403a315f,0,161,161,66,1,twoone,,,,,,,,,,,,,,,,,,,,,,,,,,,,,,,,,,,,,,,,,,,,,,,,,,,,,,,,,,,,,,,,,,,,,,,,,,,,,,,,,,,,,,,,,,,,,,,,,,,,,,,,,,,,,,,,,,,,,,,,,,,,,,,,,,,,,,,,,,,,,,,,,,,,,,,,,,,,,
,,,,,,5bbfeaeb785edb0001fac427,62c53a74db91906583b6b51b,2022-07-06_02h33.57.648,Colour_Asymmetry_Pilot,2022.1.3,Win32,39.51319741,62c50e9c1127f2cd403a315f,,,,,,,space,3.0351,space,8.1682,space,26.3242,left,2.967,space,3.7621,space,5.4204,"[0.0351999999999999,0.41159999999999997,0.0038000000000000256]",fourthree,"[-0.9688,-0.4902000000000001,-0.12159999999999993]",-4,5.7,-36,81,1,0,0,response7disk_5,-7,5,1,0,0,rectangle_8,37,-98,1,0,0,response3disk_7,4,1,10,10,1,0,0,rectangle_4,0,0,0,0,1,,,,,,,,,,,,,,,,,,,,,,,,,,,,,,,,,,,,,,,,,,,,,,,,,,,,,,,,,,,,,,,,,,,,,,,,,,,,,,,,,,,,,,,,,,,,,,,,,,,,,,,,,,,,,
,,,,,,5bbfeaeb785edb0001fac427,62c53a74db91906583b6b51b,2022-07-06_02h33.57.648,Colour_Asymmetry_Pilot,2022.1.3,Win32,39.51319741,62c50e9c1127f2cd403a315f,,,,,,,,,,,,,,,,,,,"[-0.5922000000000001,-0.7492000000000001,-0.5296000000000001]",onetwo,"[0.9372,0.9450000000000001,0.8980000000000001]",-4,1.6553,-42,63,1,0,0,response7disk_5,3,4,1,0,0,rectangle_8,3,4,1,0,0,,,1,3,4,1,0,0,,1,0,1,0,1,,,,,,,,,,,,,,,,,,,,,,,,,,,,,,,,,,,,,,,,,,,,,,,,,,,,,,,,,,,,,,,,,,,,,,,,,,,,,,,,,,,,,,,,,,,,,,,,,,,,,,,,,,,,,
,,,,,,5bbfeaeb785edb0001fac427,62c53a74db91906583b6b51b,2022-07-06_02h33.57.648,Colour_Asymmetry_Pilot,2022.1.3,Win32,39.51319741,62c50e9c1127f2cd403a315f,,,,,,,,,,,,,,,,,,,"[-0.7412000000000001,-0.08239999999999992,-0.6864]",threefour,"[0.9372,0.20779999999999998,0.2704]",-3,2.883,-82,46,1,0,0,response7disk_5,-30,4,1,0,0,rectangle_8,-30,4,1,0,0,,,1,-30,4,1,0,0,,2,0,2,0,1,,,,,,,,,,,,,,,,,,,,,,,,,,,,,,,,,,,,,,,,,,,,,,,,,,,,,,,,,,,,,,,,,,,,,,,,,,,,,,,,,,,,,,,,,,,,,,,,,,,,,,,,,,,,,
,,,,,,5bbfeaeb785edb0001fac427,62c53a74db91906583b6b51b,2022-07-06_02h33.57.648,Colour_Asymmetry_Pilot,2022.1.3,Win32,39.51319741,62c50e9c1127f2cd403a315f,,,,,,,,,,,,,,,,,,,"[-0.06680000000000008,-0.45100000000000007,-0.906]",onetwo,"[0.04299999999999993,0.16060000000000008,-0.6628000000000001]",1,2.9578,43,-98,1,0,0,response3disk_5,-8,-5,1,0,0,rectangle_8,-8,-5,1,0,0,,,1,-8,-5,1,0,0,,3,0,3,0,1,,,,,,,,,,,,,,,,,,,,,,,,,,,,,,,,,,,,,,,,,,,,,,,,,,,,,,,,,,,,,,,,,,,,,,,,,,,,,,,,,,,,,,,,,,,,,,,,,,,,,,,,,,,,,
,,,,,,5bbfeaeb785edb0001fac427,62c53a74db91906583b6b51b,2022-07-06_02h33.57.648,Colour_Asymmetry_Pilot,2022.1.3,Win32,39.51319741,62c50e9c1127f2cd403a315f,,,,,,,,,,,,,,,,,,,"[0.2862,0.7802,0.3568]",threeone,"[0.0351999999999999,0.41159999999999997,0.0038000000000000256]",-1,2.632,-43,-84,1,0,0,response5disk_5,0,-6,1,0,0,rectangle_8,0,-6,1,0,0,,,1,0,-6,1,0,0,,4,0,4,0,1,,,,,,,,,,,,,,,,,,,,,,,,,,,,,,,,,,,,,,,,,,,,,,,,,,,,,,,,,,,,,,,,,,,,,,,,,,,,,,,,,,,,,,,,,,,,,,,,,,,,,,,,,,,,,
,,,,,,5bbfeaeb785edb0001fac427,62c53a74db91906583b6b51b,2022-07-06_02h33.57.648,Colour_Asymmetry_Pilot,2022.1.3,Win32,39.51319741,62c50e9c1127f2cd403a315f,,,,,,,,,,,,,,,,,,,"[-0.4982,-0.2942,-0.0354000000000001]",twoone,"[-0.8982,-0.37259999999999993,0.2784]",2,2.4814,86,-34,1,0,0,response3disk_5,-12,-10,1,0,0,rectangle_8,-12,-10,1,0,0,,,1,-12,-10,1,0,0,,5,0,5,0,1,,,,,,,,,,,,,,,,,,,,,,,,,,,,,,,,,,,,,,,,,,,,,,,,,,,,,,,,,,,,,,,,,,,,,,,,,,,,,,,,,,,,,,,,,,,,,,,,,,,,,,,,,,,,,
,,,,,,5bbfeaeb785edb0001fac427,62c53a74db91906583b6b51b,2022-07-06_02h33.57.648,Colour_Asymmetry_Pilot,2022.1.3,Win32,39.51319741,62c50e9c1127f2cd403a315f,,,,,,,,,,,,,,,,,,,"[0.5528,0.7409999999999999,-0.71]",twoone,"[0.9763999999999999,0.30979999999999985,-0.6786]",2,3.0593,71,-38,1,0,0,response3disk_5,-11,-5,1,0,0,rectangle_8,-11,-5,1,0,0,,,1,-11,-5,1,0,0,,6,0,6,0,1,,,,,,,,,,,,,,,,,,,,,,,,,,,,,,,,,,,,,,,,,,,,,,,,,,,,,,,,,,,,,,,,,,,,,,,,,,,,,,,,,,,,,,,,,,,,,,,,,,,,,,,,,,,,,
,,,,,,5bbfeaeb785edb0001fac427,62c53a74db91906583b6b51b,2022-07-06_02h33.57.648,Colour_Asymmetry_Pilot,2022.1.3,Win32,39.51319741,62c50e9c1127f2cd403a315f,,,,,,,,,,,,,,,,,,,,threeone,,-4,1.9479,,,,,,,,,,,,,,,,,,,,,,,,,,,,,,,,space,4.9266,"[-0.9216,-0.5529999999999999,-0.3962]","[0.9686000000000001,0.5763999999999998,0.11359999999999992]",-49,70,1,0,0,response7disk,-2,-8,1,0,0,rectangle,-2,-8,1,0,0,,3,0.0028,0,-2,-8,1,0,0,0,0,0,45,1,45,first,,,,,,,,,,,,,,,,,,,,,,,,,,,,,,,,,,,,,,,,,,,,,,,,,,,,,,,,,,,,,,,,,,,,,,,,
,,,,,,5bbfeaeb785edb0001fac427,62c53a74db91906583b6b51b,2022-07-06_02h33.57.648,Colour_Asymmetry_Pilot,2022.1.3,Win32,39.51319741,62c50e9c1127f2cd403a315f,,,,,,,,,,,,,,,,,,,,twoone,,-4,3.2595,,,,,,,,,,,,,,,,,,,,,,,,,,,,,,,,,,"[-0.9844,-0.9688,-0.9922]","[-0.0040000000000000036,0.02739999999999987,-0.08239999999999992]",-38,97,1,0,0,response7disk,6,-9,1,0,0,rectangle,6,-9,1,0,0,,2,0.0011,0,6,-9,1,0,0,0,1,1,54,1,54,first,,,,,,,,,,,,,,,,,,,,,,,,,,,,,,,,,,,,,,,,,,,,,,,,,,,,,,,,,,,,,,,,,,,,,,,,
,,,,,,5bbfeaeb785edb0001fac427,62c53a74db91906583b6b51b,2022-07-06_02h33.57.648,Colour_Asymmetry_Pilot,2022.1.3,Win32,39.51319741,62c50e9c1127f2cd403a315f,,,,,,,,,,,,,,,,,,,,onethree,,1,1.2298,,,,,,,,,,,,,,,,,,,,,,,,,,,,,,,,,,"[0.3881999999999999,-0.23939999999999995,-0.05040000000000011]","[-0.6,0.16860000000000008,0.44300000000000006]",50,-65,1,0,0,response3disk,8,-10,1,0,0,rectangle,8,-10,1,0,0,,3,0.001,0,8,-10,1,0,0,0,2,2,21,1,21,first,,,,,,,,,,,,,,,,,,,,,,,,,,,,,,,,,,,,,,,,,,,,,,,,,,,,,,,,,,,,,,,,,,,,,,,,
,,,,,,5bbfeaeb785edb0001fac427,62c53a74db91906583b6b51b,2022-07-06_02h33.57.648,Colour_Asymmetry_Pilot,2022.1.3,Win32,39.51319741,62c50e9c1127f2cd403a315f,,,,,,,,,,,,,,,,,,,,fourthree,,3,1.8815,,,,,,,,,,,,,,,,,,,,,,,,,,,,,,,,,,"[0.9763999999999999,0.30979999999999985,-0.6786]","[0.9763999999999999,0.30979999999999985,-0.6786]",92,40,1,0,0,response1disk,-9,-2,1,0,0,rectangle,-9,-2,1,0,0,,2,0.001,0,-9,-2,1,0,0,0,3,3,152,1,71,second,,,,,,,,,,,,,,,,,,,,,,,,,,,,,,,,,,,,,,,,,,,,,,,,,,,,,,,,,,,,,,,,,,,,,,,,
,,,,,,5bbfeaeb785edb0001fac427,62c53a74db91906583b6b51b,2022-07-06_02h33.57.648,Colour_Asymmetry_Pilot,2022.1.3,Win32,39.51319741,62c50e9c1127f2cd403a315f,,,,,,,,,,,,,,,,,,,,twoone,,-1,3.2595,,,,,,,,,,,,,,,,,,,,,,,,,,,,,,,,,,"[-0.0040000000000000036,0.02739999999999987,-0.08239999999999992]","[-0.9844,-0.9688,-0.9922]",-30,-86,1,0,0,response5disk,-26,8,1,0,0,rectangle,-26,8,1,0,0,,1,0.0012,0,-26,8,1,0,0,0,4,4,135,1,54,second,,,,,,,,,,,,,,,,,,,,,,,,,,,,,,,,,,,,,,,,,,,,,,,,,,,,,,,,,,,,,,,,,,,,,,,,
,,,,,,5bbfeaeb785edb0001fac427,62c53a74db91906583b6b51b,2022-07-06_02h33.57.648,Colour_Asymmetry_Pilot,2022.1.3,Win32,39.51319741,62c50e9c1127f2cd403a315f,,,,,,,,,,,,,,,,,,,,fourthree,,-4,0.7268,,,,,,,,,,,,,,,,,,,,,,,,,,,,,,,,,,"[-0.06680000000000008,-0.45100000000000007,-0.906]","[-0.09019999999999995,0.44300000000000006,0.5371999999999999]",-59,101,1,0,0,response7disk,-1,1,1,0,0,rectangle,-1,1,1,0,0,,1,0.0003,0,-1,1,1,0,0,0,5,5,156,1,75,second,,,,,,,,,,,,,,,,,,,,,,,,,,,,,,,,,,,,,,,,,,,,,,,,,,,,,,,,,,,,,,,,,,,,,,,,
,,,,,,5bbfeaeb785edb0001fac427,62c53a74db91906583b6b51b,2022-07-06_02h33.57.648,Colour_Asymmetry_Pilot,2022.1.3,Win32,39.51319741,62c50e9c1127f2cd403a315f,,,,,,,,,,,,,,,,,,,,fourtwo,,3,1.4785,,,,,,,,,,,,,,,,,,,,,,,,,,,,,,,,,,"[0.4196,0.4665999999999999,0.3568]","[-0.17659999999999998,0.3253999999999999,0.19999999999999996]",74,39,1,0,0,response1disk,-13,-1,1,0,0,rectangle,-13,-1,1,0,0,,3,0.0012,0,-13,-1,1,0,0,0,6,6,48,1,48,first,,,,,,,,,,,,,,,,,,,,,,,,,,,,,,,,,,,,,,,,,,,,,,,,,,,,,,,,,,,,,,,,,,,,,,,,
,,,,,,5bbfeaeb785edb0001fac427,62c53a74db91906583b6b51b,2022-07-06_02h33.57.648,Colour_Asymmetry_Pilot,2022.1.3,Win32,39.51319741,62c50e9c1127f2cd403a315f,,,,,,,,,,,,,,,,,,,,fourthree,,-2,1.2038,,,,,,,,,,,,,,,,,,,,,,,,,,,,,,,,,,"[0.05879999999999996,0.2784,0.5841999999999998]","[-0.9688,-0.4902000000000001,-0.12159999999999993]",-79,-33,1,0,0,response5disk,-24,-2,1,0,0,rectangle,-24,-2,1,0,0,,1,0.0018,0,-24,-2,1,0,0,0,7,7,109,1,28,second,,,,,,,,,,,,,,,,,,,,,,,,,,,,,,,,,,,,,,,,,,,,,,,,,,,,,,,,,,,,,,,,,,,,,,,,
,,,,,,5bbfeaeb785edb0001fac427,62c53a74db91906583b6b51b,2022-07-06_02h33.57.648,Colour_Asymmetry_Pilot,2022.1.3,Win32,39.51319741,62c50e9c1127f2cd403a315f,,,,,,,,,,,,,,,,,,,,onetwo,,-2,2.1315,,,,,,,,,,,,,,,,,,,,,,,,,,,,,,,,,,"[0.9763999999999999,-0.1137999999999999,-0.6314]","[-0.06680000000000008,-0.45100000000000007,-0.906]",-85,-56,1,0,0,response5disk,-31,-11,1,0,0,rectangle,-31,-11,1,0,0,,2,0.0014,0,-31,-11,1,0,0,0,8,8,142,1,61,second,,,,,,,,,,,,,,,,,,,,,,,,,,,,,,,,,,,,,,,,,,,,,,,,,,,,,,,,,,,,,,,,,,,,,,,,
,,,,,,5bbfeaeb785edb0001fac427,62c53a74db91906583b6b51b,2022-07-06_02h33.57.648,Colour_Asymmetry_Pilot,2022.1.3,Win32,39.51319741,62c50e9c1127f2cd403a315f,,,,,,,,,,,,,,,,,,,,onethree,,-4,0.9533,,,,,,,,,,,,,,,,,,,,,,,,,,,,,,,,,,"[0.34099999999999997,0.5841999999999998,-0.9844]","[-0.6,0.16860000000000008,0.44300000000000006]",-31,100,1,0,0,response7disk,0,2,1,0,0,rectangle,0,2,1,0,0,,3,0.0011,0,0,2,1,0,0,0,9,9,140,1,59,second,,,,,,,,,,,,,,,,,,,,,,,,,,,,,,,,,,,,,,,,,,,,,,,,,,,,,,,,,,,,,,,,,,,,,,,,
,,,,,,5bbfeaeb785edb0001fac427,62c53a74db91906583b6b51b,2022-07-06_02h33.57.648,Colour_Asymmetry_Pilot,2022.1.3,Win32,39.51319741,62c50e9c1127f2cd403a315f,,,,,,,,,,,,,,,,,,,,fourtwo,,-4,0.9779,,,,,,,,,,,,,,,,,,,,,,,,,,,,,,,,,,"[-0.07459999999999989,0.12139999999999995,-0.9922]","[0.11359999999999992,0.6312,0.5213999999999999]",-48,68,1,0,0,response7disk,-7,-12,1,0,0,rectangle,-7,-12,1,0,0,,2,0.0011,0,-7,-12,1,0,0,0,10,10,111,1,30,second,,,,,,,,,,,,,,,,,,,,,,,,,,,,,,,,,,,,,,,,,,,,,,,,,,,,,,,,,,,,,,,,,,,,,,,,
,,,,,,5bbfeaeb785edb0001fac427,62c53a74db91906583b6b51b,2022-07-06_02h33.57.648,Colour_Asymmetry_Pilot,2022.1.3,Win32,39.51319741,62c50e9c1127f2cd403a315f,,,,,,,,,,,,,,,,,,,,threeone,,-4,0.6015,,,,,,,,,,,,,,,,,,,,,,,,,,,,,,,,,,"[0.9686000000000001,0.3802000000000001,0.19999999999999996]","[-0.17659999999999998,-0.2864,-0.8354]",-42,73,1,0,0,response7disk,-7,5,1,0,0,rectangle,-7,5,1,0,0,,2,0.0002,0,-7,5,1,0,0,0,11,11,110,1,29,second,,,,,,,,,,,,,,,,,,,,,,,,,,,,,,,,,,,,,,,,,,,,,,,,,,,,,,,,,,,,,,,,,,,,,,,,
,,,,,,5bbfeaeb785edb0001fac427,62c53a74db91906583b6b51b,2022-07-06_02h33.57.648,Colour_Asymmetry_Pilot,2022.1.3,Win32,39.51319741,62c50e9c1127f2cd403a315f,,,,,,,,,,,,,,,,,,,,fourtwo,,3,0.8285,,,,,,,,,,,,,,,,,,,,,,,,,,,,,,,,,,"[-0.4982,-0.2942,-0.0354000000000001]","[0.09799999999999986,-0.24719999999999998,0.15280000000000005]",85,38,1,0,0,response1disk,-2,-5,1,0,0,rectangle,-2,-5,1,0,0,,1,0.0011,0,-2,-5,1,0,0,0,12,12,5,1,5,first,,,,,,,,,,,,,,,,,,,,,,,,,,,,,,,,,,,,,,,,,,,,,,,,,,,,,,,,,,,,,,,,,,,,,,,,
,,,,,,5bbfeaeb785edb0001fac427,62c53a74db91906583b6b51b,2022-07-06_02h33.57.648,Colour_Asymmetry_Pilot,2022.1.3,Win32,39.51319741,62c50e9c1127f2cd403a315f,,,,,,,,,,,,,,,,,,,,twofour,,4,0.7018,,,,,,,,,,,,,,,,,,,,,,,,,,,,,,,,,,"[-0.01980000000000004,-0.5138,-0.38039999999999996]","[-0.26280000000000003,-0.2158,-0.3256]",40,97,1,0,0,response1disk,-12,-1,1,0,0,rectangle,-12,-1,1,0,0,,1,0.0004,0,-12,-1,1,0,0,0,13,13,53,1,53,first,,,,,,,,,,,,,,,,,,,,,,,,,,,,,,,,,,,,,,,,,,,,,,,,,,,,,,,,,,,,,,,,,,,,,,,,
,,,,,,5bbfeaeb785edb0001fac427,62c53a74db91906583b6b51b,2022-07-06_02h33.57.648,Colour_Asymmetry_Pilot,2022.1.3,Win32,39.51319741,62c50e9c1127f2cd403a315f,,,,,,,,,,,,,,,,,,,,onethree,,-4,1.1283,,,,,,,,,,,,,,,,,,,,,,,,,,,,,,,,,,"[-0.7412000000000001,-0.08239999999999992,-0.6864]","[-0.8118,-0.8198,-0.5452]",-48,91,1,0,0,response7disk,-5,3,1,0,0,rectangle,-5,3,1,0,0,,1,0.0002,0,-5,3,1,0,0,0,14,14,106,1,25,second,,,,,,,,,,,,,,,,,,,,,,,,,,,,,,,,,,,,,,,,,,,,,,,,,,,,,,,,,,,,,,,,,,,,,,,,
,,,,,,5bbfeaeb785edb0001fac427,62c53a74db91906583b6b51b,2022-07-06_02h33.57.648,Colour_Asymmetry_Pilot,2022.1.3,Win32,39.51319741,62c50e9c1127f2cd403a315f,,,,,,,,,,,,,,,,,,,,twoone,,-4,0.4518,,,,,,,,,,,,,,,,,,,,,,,,,,,,,,,,,,"[0.37240000000000006,0.4980000000000002,-0.2864]","[-0.9688,-0.7412000000000001,-0.4902000000000001]",-40,88,1,0,0,response7disk,0,-1,1,0,0,rectangle,0,-1,1,0,0,,2,0.0012,0,0,-1,1,0,0,0,15,15,158,1,77,second,,,,,,,,,,,,,,,,,,,,,,,,,,,,,,,,,,,,,,,,,,,,,,,,,,,,,,,,,,,,,,,,,,,,,,,,
,,,,,,5bbfeaeb785edb0001fac427,62c53a74db91906583b6b51b,2022-07-06_02h33.57.648,Colour_Asymmetry_Pilot,2022.1.3,Win32,39.51319741,62c50e9c1127f2cd403a315f,,,,,,,,,,,,,,,,,,,,fourthree,,-3,1.1028,,,,,,,,,,,,,,,,,,,,,,,,,,,,,,,,,,"[0.3568,-0.20799999999999996,-0.9844]","[0.0351999999999999,0.41159999999999997,0.0038000000000000256]",-89,24,1,0,0,response7disk,-4,0,1,0,0,rectangle,-4,0,1,0,0,,2,0.0002,0,-4,0,1,0,0,0,16,16,145,1,64,second,,,,,,,,,,,,,,,,,,,,,,,,,,,,,,,,,,,,,,,,,,,,,,,,,,,,,,,,,,,,,,,,,,,,,,,,
,,,,,,5bbfeaeb785edb0001fac427,62c53a74db91906583b6b51b,2022-07-06_02h33.57.648,Colour_Asymmetry_Pilot,2022.1.3,Win32,39.51319741,62c50e9c1127f2cd403a315f,,,,,,,,,,,,,,,,,,,,threefour,,-4,0.551,,,,,,,,,,,,,,,,,,,,,,,,,,,,,,,,,,"[0.6625999999999999,0.4980000000000002,-0.357]","[-0.38039999999999996,-0.4276,-0.1452]",-47,64,1,0,0,response7disk,-9,-11,1,0,0,rectangle,-9,-11,1,0,0,,3,0.001,0,-9,-11,1,0,0,0,17,17,56,1,56,first,,,,,,,,,,,,,,,,,,,,,,,,,,,,,,,,,,,,,,,,,,,,,,,,,,,,,,,,,,,,,,,,,,,,,,,,
