trials.thisRepN,trials.thisTrialN,trials.thisN,trials.thisIndex,trials.ran,Colourcodes,participant,session,date,expName,psychopyVersion,OS,frameRate,study_id,trials_4.thisRepN,trials_4.thisTrialN,trials_4.thisN,trials_4.thisIndex,trials_4.ran,StimulusPos,key_resp.keys,key_resp.rt,key_resp_2.keys,key_resp_2.rt,key_resp_15.keys,key_resp_15.rt,key_resp_17.keys,key_resp_17.rt,key_resp_9.keys,key_resp_9.rt,key_resp_10.keys,key_resp_10.rt,Circle1_col,Ecc,Circle2_col,similarity,response_time,mouse_5.x,mouse_5.y,mouse_5.leftButton,mouse_5.midButton,mouse_5.rightButton,mouse_5.clicked_name,mouse_10.x,mouse_10.y,mouse_10.leftButton,mouse_10.midButton,mouse_10.rightButton,mouse_10.clicked_name,mouse_7.x,mouse_7.y,mouse_7.leftButton,mouse_7.midButton,mouse_7.rightButton,catchnumberprac,mouse_6.x,mouse_6.y,mouse_6.leftButton,mouse_6.midButton,mouse_6.rightButton,duringprac.thisRepN,duringprac.thisTrialN,duringprac.thisN,duringprac.thisIndex,duringprac.ran,mouse_7.clicked_name,catchprac,mouse_6.clicked_name,key_resp_22.keys,key_resp_22.rt,Circle1_colour,Circle2_colour,mouse.x,mouse.y,mouse.leftButton,mouse.midButton,mouse.rightButton,mouse.clicked_name,mouse_2.x,mouse_2.y,mouse_2.leftButton,mouse_2.midButton,mouse_2.rightButton,mouse_2.clicked_name,mouse_3.x,mouse_3.y,mouse_3.leftButton,mouse_3.midButton,mouse_3.rightButton,catchresponse,catchnumber,response_time_catch,Catch,mouse_11.x,mouse_11.y,mouse_11.leftButton,mouse_11.midButton,mouse_11.rightButton,trials_2.thisRepN,trials_2.thisTrialN,trials_2.thisN,trials_2.thisIndex,trials_2.ran,Colourpair,Temporder,mouse_3.clicked_name,mouse_11.clicked_name,trials_3.thisRepN,trials_3.thisTrialN,trials_3.thisN,trials_3.thisIndex,trials_3.ran,key_resp_instr_Ishi.keys,key_resp_instr_Ishi.rt,Ishi_trial_keyresp.keys,Ishi_trial_keyresp.rt,Ishi_textbox.text,Ishi_mouse.x,Ishi_mouse.y,Ishi_mouse.leftButton,Ishi_mouse.midButton,Ishi_mouse.rightButton,Ishi_loop.thisRepN,Ishi_loop.thisTrialN,Ishi_loop.thisN,Ishi_loop.thisIndex,Ishi_loop.ran,imageaddress,textbox.text,mouse_4.x,mouse_4.y,mouse_4.leftButton,mouse_4.midButton,mouse_4.rightButton,mouse_4.clicked_name,textbox_2.text,mouse_8.x,mouse_8.y,mouse_8.leftButton,mouse_8.midButton,mouse_8.rightButton,mouse_8.clicked_name,textbox_3.text,mouse_9.x,mouse_9.y,mouse_9.leftButton,mouse_9.midButton,mouse_9.rightButton,mouse_9.clicked_name,textbox_4.text,mouse_12.x,mouse_12.y,mouse_12.leftButton,mouse_12.midButton,mouse_12.rightButton,mouse_12.clicked_name,textbox_5.text,mouse_13.x,mouse_13.y,mouse_13.leftButton,mouse_13.midButton,mouse_13.rightButton,mouse_13.clicked_name,textbox_6.text,mouse_14.x,mouse_14.y,mouse_14.leftButton,mouse_14.midButton,mouse_14.rightButton,mouse_14.clicked_name,textbox_7.text,mouse_15.x,mouse_15.y,mouse_15.leftButton,mouse_15.midButton,mouse_15.rightButton,mouse_15.clicked_name
0,0,0,78,1,,60b29948c3753b3707dffe90,62c5384d34d8ca7f2ad01cdd,2022-07-06_09h23.41.366,Colour_Asymmetry_Pilot,2022.1.3,Win32,59.97361161,62c50e9c1127f2cd403a315f,,,,,,,,,,,,,,,,,,,,,,,,,,,,,,,,,,,,,,,,,,,,,,,,,,,,,,,,,,,,,,,,,,,,,,,,,,,,,,,,,,,,,,,,,,,,,,,,,,,,,,,,,,,,,,,,,,,,,,,,,,,,,,,,,,,,,,,,,,,,,,,,,,,,,,,,,,,,,,,,,,,
0,1,1,92,1,,60b29948c3753b3707dffe90,62c5384d34d8ca7f2ad01cdd,2022-07-06_09h23.41.366,Colour_Asymmetry_Pilot,2022.1.3,Win32,59.97361161,62c50e9c1127f2cd403a315f,,,,,,,,,,,,,,,,,,,,,,,,,,,,,,,,,,,,,,,,,,,,,,,,,,,,,,,,,,,,,,,,,,,,,,,,,,,,,,,,,,,,,,,,,,,,,,,,,,,,,,,,,,,,,,,,,,,,,,,,,,,,,,,,,,,,,,,,,,,,,,,,,,,,,,,,,,,,,,,,,,,
0,2,2,32,1,,60b29948c3753b3707dffe90,62c5384d34d8ca7f2ad01cdd,2022-07-06_09h23.41.366,Colour_Asymmetry_Pilot,2022.1.3,Win32,59.97361161,62c50e9c1127f2cd403a315f,,,,,,,,,,,,,,,,,,,,,,,,,,,,,,,,,,,,,,,,,,,,,,,,,,,,,,,,,,,,,,,,,,,,,,,,,,,,,,,,,,,,,,,,,,,,,,,,,,,,,,,,,,,,,,,,,,,,,,,,,,,,,,,,,,,,,,,,,,,,,,,,,,,,,,,,,,,,,,,,,,,
0,3,3,58,1,,60b29948c3753b3707dffe90,62c5384d34d8ca7f2ad01cdd,2022-07-06_09h23.41.366,Colour_Asymmetry_Pilot,2022.1.3,Win32,59.97361161,62c50e9c1127f2cd403a315f,,,,,,,,,,,,,,,,,,,,,,,,,,,,,,,,,,,,,,,,,,,,,,,,,,,,,,,,,,,,,,,,,,,,,,,,,,,,,,,,,,,,,,,,,,,,,,,,,,,,,,,,,,,,,,,,,,,,,,,,,,,,,,,,,,,,,,,,,,,,,,,,,,,,,,,,,,,,,,,,,,,
0,4,4,64,1,,60b29948c3753b3707dffe90,62c5384d34d8ca7f2ad01cdd,2022-07-06_09h23.41.366,Colour_Asymmetry_Pilot,2022.1.3,Win32,59.97361161,62c50e9c1127f2cd403a315f,,,,,,,,,,,,,,,,,,,,,,,,,,,,,,,,,,,,,,,,,,,,,,,,,,,,,,,,,,,,,,,,,,,,,,,,,,,,,,,,,,,,,,,,,,,,,,,,,,,,,,,,,,,,,,,,,,,,,,,,,,,,,,,,,,,,,,,,,,,,,,,,,,,,,,,,,,,,,,,,,,,
0,5,5,3,1,,60b29948c3753b3707dffe90,62c5384d34d8ca7f2ad01cdd,2022-07-06_09h23.41.366,Colour_Asymmetry_Pilot,2022.1.3,Win32,59.97361161,62c50e9c1127f2cd403a315f,,,,,,,,,,,,,,,,,,,,,,,,,,,,,,,,,,,,,,,,,,,,,,,,,,,,,,,,,,,,,,,,,,,,,,,,,,,,,,,,,,,,,,,,,,,,,,,,,,,,,,,,,,,,,,,,,,,,,,,,,,,,,,,,,,,,,,,,,,,,,,,,,,,,,,,,,,,,,,,,,,,
0,6,6,91,1,,60b29948c3753b3707dffe90,62c5384d34d8ca7f2ad01cdd,2022-07-06_09h23.41.366,Colour_Asymmetry_Pilot,2022.1.3,Win32,59.97361161,62c50e9c1127f2cd403a315f,,,,,,,,,,,,,,,,,,,,,,,,,,,,,,,,,,,,,,,,,,,,,,,,,,,,,,,,,,,,,,,,,,,,,,,,,,,,,,,,,,,,,,,,,,,,,,,,,,,,,,,,,,,,,,,,,,,,,,,,,,,,,,,,,,,,,,,,,,,,,,,,,,,,,,,,,,,,,,,,,,,
0,7,7,62,1,,60b29948c3753b3707dffe90,62c5384d34d8ca7f2ad01cdd,2022-07-06_09h23.41.366,Colour_Asymmetry_Pilot,2022.1.3,Win32,59.97361161,62c50e9c1127f2cd403a315f,,,,,,,,,,,,,,,,,,,,,,,,,,,,,,,,,,,,,,,,,,,,,,,,,,,,,,,,,,,,,,,,,,,,,,,,,,,,,,,,,,,,,,,,,,,,,,,,,,,,,,,,,,,,,,,,,,,,,,,,,,,,,,,,,,,,,,,,,,,,,,,,,,,,,,,,,,,,,,,,,,,
0,8,8,68,1,,60b29948c3753b3707dffe90,62c5384d34d8ca7f2ad01cdd,2022-07-06_09h23.41.366,Colour_Asymmetry_Pilot,2022.1.3,Win32,59.97361161,62c50e9c1127f2cd403a315f,,,,,,,,,,,,,,,,,,,,,,,,,,,,,,,,,,,,,,,,,,,,,,,,,,,,,,,,,,,,,,,,,,,,,,,,,,,,,,,,,,,,,,,,,,,,,,,,,,,,,,,,,,,,,,,,,,,,,,,,,,,,,,,,,,,,,,,,,,,,,,,,,,,,,,,,,,,,,,,,,,,
0,9,9,36,1,,60b29948c3753b3707dffe90,62c5384d34d8ca7f2ad01cdd,2022-07-06_09h23.41.366,Colour_Asymmetry_Pilot,2022.1.3,Win32,59.97361161,62c50e9c1127f2cd403a315f,,,,,,,,,,,,,,,,,,,,,,,,,,,,,,,,,,,,,,,,,,,,,,,,,,,,,,,,,,,,,,,,,,,,,,,,,,,,,,,,,,,,,,,,,,,,,,,,,,,,,,,,,,,,,,,,,,,,,,,,,,,,,,,,,,,,,,,,,,,,,,,,,,,,,,,,,,,,,,,,,,,
0,10,10,48,1,,60b29948c3753b3707dffe90,62c5384d34d8ca7f2ad01cdd,2022-07-06_09h23.41.366,Colour_Asymmetry_Pilot,2022.1.3,Win32,59.97361161,62c50e9c1127f2cd403a315f,,,,,,,,,,,,,,,,,,,,,,,,,,,,,,,,,,,,,,,,,,,,,,,,,,,,,,,,,,,,,,,,,,,,,,,,,,,,,,,,,,,,,,,,,,,,,,,,,,,,,,,,,,,,,,,,,,,,,,,,,,,,,,,,,,,,,,,,,,,,,,,,,,,,,,,,,,,,,,,,,,,
0,11,11,85,1,,60b29948c3753b3707dffe90,62c5384d34d8ca7f2ad01cdd,2022-07-06_09h23.41.366,Colour_Asymmetry_Pilot,2022.1.3,Win32,59.97361161,62c50e9c1127f2cd403a315f,,,,,,,,,,,,,,,,,,,,,,,,,,,,,,,,,,,,,,,,,,,,,,,,,,,,,,,,,,,,,,,,,,,,,,,,,,,,,,,,,,,,,,,,,,,,,,,,,,,,,,,,,,,,,,,,,,,,,,,,,,,,,,,,,,,,,,,,,,,,,,,,,,,,,,,,,,,,,,,,,,,
0,12,12,45,1,,60b29948c3753b3707dffe90,62c5384d34d8ca7f2ad01cdd,2022-07-06_09h23.41.366,Colour_Asymmetry_Pilot,2022.1.3,Win32,59.97361161,62c50e9c1127f2cd403a315f,,,,,,,,,,,,,,,,,,,,,,,,,,,,,,,,,,,,,,,,,,,,,,,,,,,,,,,,,,,,,,,,,,,,,,,,,,,,,,,,,,,,,,,,,,,,,,,,,,,,,,,,,,,,,,,,,,,,,,,,,,,,,,,,,,,,,,,,,,,,,,,,,,,,,,,,,,,,,,,,,,,
0,13,13,15,1,,60b29948c3753b3707dffe90,62c5384d34d8ca7f2ad01cdd,2022-07-06_09h23.41.366,Colour_Asymmetry_Pilot,2022.1.3,Win32,59.97361161,62c50e9c1127f2cd403a315f,,,,,,,,,,,,,,,,,,,,,,,,,,,,,,,,,,,,,,,,,,,,,,,,,,,,,,,,,,,,,,,,,,,,,,,,,,,,,,,,,,,,,,,,,,,,,,,,,,,,,,,,,,,,,,,,,,,,,,,,,,,,,,,,,,,,,,,,,,,,,,,,,,,,,,,,,,,,,,,,,,,
0,14,14,72,1,,60b29948c3753b3707dffe90,62c5384d34d8ca7f2ad01cdd,2022-07-06_09h23.41.366,Colour_Asymmetry_Pilot,2022.1.3,Win32,59.97361161,62c50e9c1127f2cd403a315f,,,,,,,,,,,,,,,,,,,,,,,,,,,,,,,,,,,,,,,,,,,,,,,,,,,,,,,,,,,,,,,,,,,,,,,,,,,,,,,,,,,,,,,,,,,,,,,,,,,,,,,,,,,,,,,,,,,,,,,,,,,,,,,,,,,,,,,,,,,,,,,,,,,,,,,,,,,,,,,,,,,
0,15,15,81,1,,60b29948c3753b3707dffe90,62c5384d34d8ca7f2ad01cdd,2022-07-06_09h23.41.366,Colour_Asymmetry_Pilot,2022.1.3,Win32,59.97361161,62c50e9c1127f2cd403a315f,,,,,,,,,,,,,,,,,,,,,,,,,,,,,,,,,,,,,,,,,,,,,,,,,,,,,,,,,,,,,,,,,,,,,,,,,,,,,,,,,,,,,,,,,,,,,,,,,,,,,,,,,,,,,,,,,,,,,,,,,,,,,,,,,,,,,,,,,,,,,,,,,,,,,,,,,,,,,,,,,,,
0,16,16,14,1,,60b29948c3753b3707dffe90,62c5384d34d8ca7f2ad01cdd,2022-07-06_09h23.41.366,Colour_Asymmetry_Pilot,2022.1.3,Win32,59.97361161,62c50e9c1127f2cd403a315f,,,,,,,,,,,,,,,,,,,,,,,,,,,,,,,,,,,,,,,,,,,,,,,,,,,,,,,,,,,,,,,,,,,,,,,,,,,,,,,,,,,,,,,,,,,,,,,,,,,,,,,,,,,,,,,,,,,,,,,,,,,,,,,,,,,,,,,,,,,,,,,,,,,,,,,,,,,,,,,,,,,
0,17,17,10,1,,60b29948c3753b3707dffe90,62c5384d34d8ca7f2ad01cdd,2022-07-06_09h23.41.366,Colour_Asymmetry_Pilot,2022.1.3,Win32,59.97361161,62c50e9c1127f2cd403a315f,,,,,,,,,,,,,,,,,,,,,,,,,,,,,,,,,,,,,,,,,,,,,,,,,,,,,,,,,,,,,,,,,,,,,,,,,,,,,,,,,,,,,,,,,,,,,,,,,,,,,,,,,,,,,,,,,,,,,,,,,,,,,,,,,,,,,,,,,,,,,,,,,,,,,,,,,,,,,,,,,,,
0,18,18,90,1,,60b29948c3753b3707dffe90,62c5384d34d8ca7f2ad01cdd,2022-07-06_09h23.41.366,Colour_Asymmetry_Pilot,2022.1.3,Win32,59.97361161,62c50e9c1127f2cd403a315f,,,,,,,,,,,,,,,,,,,,,,,,,,,,,,,,,,,,,,,,,,,,,,,,,,,,,,,,,,,,,,,,,,,,,,,,,,,,,,,,,,,,,,,,,,,,,,,,,,,,,,,,,,,,,,,,,,,,,,,,,,,,,,,,,,,,,,,,,,,,,,,,,,,,,,,,,,,,,,,,,,,
0,19,19,23,1,,60b29948c3753b3707dffe90,62c5384d34d8ca7f2ad01cdd,2022-07-06_09h23.41.366,Colour_Asymmetry_Pilot,2022.1.3,Win32,59.97361161,62c50e9c1127f2cd403a315f,,,,,,,,,,,,,,,,,,,,,,,,,,,,,,,,,,,,,,,,,,,,,,,,,,,,,,,,,,,,,,,,,,,,,,,,,,,,,,,,,,,,,,,,,,,,,,,,,,,,,,,,,,,,,,,,,,,,,,,,,,,,,,,,,,,,,,,,,,,,,,,,,,,,,,,,,,,,,,,,,,,
0,20,20,84,1,,60b29948c3753b3707dffe90,62c5384d34d8ca7f2ad01cdd,2022-07-06_09h23.41.366,Colour_Asymmetry_Pilot,2022.1.3,Win32,59.97361161,62c50e9c1127f2cd403a315f,,,,,,,,,,,,,,,,,,,,,,,,,,,,,,,,,,,,,,,,,,,,,,,,,,,,,,,,,,,,,,,,,,,,,,,,,,,,,,,,,,,,,,,,,,,,,,,,,,,,,,,,,,,,,,,,,,,,,,,,,,,,,,,,,,,,,,,,,,,,,,,,,,,,,,,,,,,,,,,,,,,
0,21,21,34,1,,60b29948c3753b3707dffe90,62c5384d34d8ca7f2ad01cdd,2022-07-06_09h23.41.366,Colour_Asymmetry_Pilot,2022.1.3,Win32,59.97361161,62c50e9c1127f2cd403a315f,,,,,,,,,,,,,,,,,,,,,,,,,,,,,,,,,,,,,,,,,,,,,,,,,,,,,,,,,,,,,,,,,,,,,,,,,,,,,,,,,,,,,,,,,,,,,,,,,,,,,,,,,,,,,,,,,,,,,,,,,,,,,,,,,,,,,,,,,,,,,,,,,,,,,,,,,,,,,,,,,,,
0,22,22,27,1,,60b29948c3753b3707dffe90,62c5384d34d8ca7f2ad01cdd,2022-07-06_09h23.41.366,Colour_Asymmetry_Pilot,2022.1.3,Win32,59.97361161,62c50e9c1127f2cd403a315f,,,,,,,,,,,,,,,,,,,,,,,,,,,,,,,,,,,,,,,,,,,,,,,,,,,,,,,,,,,,,,,,,,,,,,,,,,,,,,,,,,,,,,,,,,,,,,,,,,,,,,,,,,,,,,,,,,,,,,,,,,,,,,,,,,,,,,,,,,,,,,,,,,,,,,,,,,,,,,,,,,,
0,23,23,43,1,,60b29948c3753b3707dffe90,62c5384d34d8ca7f2ad01cdd,2022-07-06_09h23.41.366,Colour_Asymmetry_Pilot,2022.1.3,Win32,59.97361161,62c50e9c1127f2cd403a315f,,,,,,,,,,,,,,,,,,,,,,,,,,,,,,,,,,,,,,,,,,,,,,,,,,,,,,,,,,,,,,,,,,,,,,,,,,,,,,,,,,,,,,,,,,,,,,,,,,,,,,,,,,,,,,,,,,,,,,,,,,,,,,,,,,,,,,,,,,,,,,,,,,,,,,,,,,,,,,,,,,,
0,24,24,33,1,,60b29948c3753b3707dffe90,62c5384d34d8ca7f2ad01cdd,2022-07-06_09h23.41.366,Colour_Asymmetry_Pilot,2022.1.3,Win32,59.97361161,62c50e9c1127f2cd403a315f,,,,,,,,,,,,,,,,,,,,,,,,,,,,,,,,,,,,,,,,,,,,,,,,,,,,,,,,,,,,,,,,,,,,,,,,,,,,,,,,,,,,,,,,,,,,,,,,,,,,,,,,,,,,,,,,,,,,,,,,,,,,,,,,,,,,,,,,,,,,,,,,,,,,,,,,,,,,,,,,,,,
0,25,25,12,1,,60b29948c3753b3707dffe90,62c5384d34d8ca7f2ad01cdd,2022-07-06_09h23.41.366,Colour_Asymmetry_Pilot,2022.1.3,Win32,59.97361161,62c50e9c1127f2cd403a315f,,,,,,,,,,,,,,,,,,,,,,,,,,,,,,,,,,,,,,,,,,,,,,,,,,,,,,,,,,,,,,,,,,,,,,,,,,,,,,,,,,,,,,,,,,,,,,,,,,,,,,,,,,,,,,,,,,,,,,,,,,,,,,,,,,,,,,,,,,,,,,,,,,,,,,,,,,,,,,,,,,,
0,26,26,29,1,,60b29948c3753b3707dffe90,62c5384d34d8ca7f2ad01cdd,2022-07-06_09h23.41.366,Colour_Asymmetry_Pilot,2022.1.3,Win32,59.97361161,62c50e9c1127f2cd403a315f,,,,,,,,,,,,,,,,,,,,,,,,,,,,,,,,,,,,,,,,,,,,,,,,,,,,,,,,,,,,,,,,,,,,,,,,,,,,,,,,,,,,,,,,,,,,,,,,,,,,,,,,,,,,,,,,,,,,,,,,,,,,,,,,,,,,,,,,,,,,,,,,,,,,,,,,,,,,,,,,,,,
0,27,27,59,1,,60b29948c3753b3707dffe90,62c5384d34d8ca7f2ad01cdd,2022-07-06_09h23.41.366,Colour_Asymmetry_Pilot,2022.1.3,Win32,59.97361161,62c50e9c1127f2cd403a315f,,,,,,,,,,,,,,,,,,,,,,,,,,,,,,,,,,,,,,,,,,,,,,,,,,,,,,,,,,,,,,,,,,,,,,,,,,,,,,,,,,,,,,,,,,,,,,,,,,,,,,,,,,,,,,,,,,,,,,,,,,,,,,,,,,,,,,,,,,,,,,,,,,,,,,,,,,,,,,,,,,,
0,28,28,51,1,,60b29948c3753b3707dffe90,62c5384d34d8ca7f2ad01cdd,2022-07-06_09h23.41.366,Colour_Asymmetry_Pilot,2022.1.3,Win32,59.97361161,62c50e9c1127f2cd403a315f,,,,,,,,,,,,,,,,,,,,,,,,,,,,,,,,,,,,,,,,,,,,,,,,,,,,,,,,,,,,,,,,,,,,,,,,,,,,,,,,,,,,,,,,,,,,,,,,,,,,,,,,,,,,,,,,,,,,,,,,,,,,,,,,,,,,,,,,,,,,,,,,,,,,,,,,,,,,,,,,,,,
0,29,29,37,1,,60b29948c3753b3707dffe90,62c5384d34d8ca7f2ad01cdd,2022-07-06_09h23.41.366,Colour_Asymmetry_Pilot,2022.1.3,Win32,59.97361161,62c50e9c1127f2cd403a315f,,,,,,,,,,,,,,,,,,,,,,,,,,,,,,,,,,,,,,,,,,,,,,,,,,,,,,,,,,,,,,,,,,,,,,,,,,,,,,,,,,,,,,,,,,,,,,,,,,,,,,,,,,,,,,,,,,,,,,,,,,,,,,,,,,,,,,,,,,,,,,,,,,,,,,,,,,,,,,,,,,,
0,30,30,83,1,,60b29948c3753b3707dffe90,62c5384d34d8ca7f2ad01cdd,2022-07-06_09h23.41.366,Colour_Asymmetry_Pilot,2022.1.3,Win32,59.97361161,62c50e9c1127f2cd403a315f,,,,,,,,,,,,,,,,,,,,,,,,,,,,,,,,,,,,,,,,,,,,,,,,,,,,,,,,,,,,,,,,,,,,,,,,,,,,,,,,,,,,,,,,,,,,,,,,,,,,,,,,,,,,,,,,,,,,,,,,,,,,,,,,,,,,,,,,,,,,,,,,,,,,,,,,,,,,,,,,,,,
0,31,31,41,1,,60b29948c3753b3707dffe90,62c5384d34d8ca7f2ad01cdd,2022-07-06_09h23.41.366,Colour_Asymmetry_Pilot,2022.1.3,Win32,59.97361161,62c50e9c1127f2cd403a315f,,,,,,,,,,,,,,,,,,,,,,,,,,,,,,,,,,,,,,,,,,,,,,,,,,,,,,,,,,,,,,,,,,,,,,,,,,,,,,,,,,,,,,,,,,,,,,,,,,,,,,,,,,,,,,,,,,,,,,,,,,,,,,,,,,,,,,,,,,,,,,,,,,,,,,,,,,,,,,,,,,,
0,32,32,60,1,,60b29948c3753b3707dffe90,62c5384d34d8ca7f2ad01cdd,2022-07-06_09h23.41.366,Colour_Asymmetry_Pilot,2022.1.3,Win32,59.97361161,62c50e9c1127f2cd403a315f,,,,,,,,,,,,,,,,,,,,,,,,,,,,,,,,,,,,,,,,,,,,,,,,,,,,,,,,,,,,,,,,,,,,,,,,,,,,,,,,,,,,,,,,,,,,,,,,,,,,,,,,,,,,,,,,,,,,,,,,,,,,,,,,,,,,,,,,,,,,,,,,,,,,,,,,,,,,,,,,,,,
0,33,33,19,1,,60b29948c3753b3707dffe90,62c5384d34d8ca7f2ad01cdd,2022-07-06_09h23.41.366,Colour_Asymmetry_Pilot,2022.1.3,Win32,59.97361161,62c50e9c1127f2cd403a315f,,,,,,,,,,,,,,,,,,,,,,,,,,,,,,,,,,,,,,,,,,,,,,,,,,,,,,,,,,,,,,,,,,,,,,,,,,,,,,,,,,,,,,,,,,,,,,,,,,,,,,,,,,,,,,,,,,,,,,,,,,,,,,,,,,,,,,,,,,,,,,,,,,,,,,,,,,,,,,,,,,,
0,34,34,67,1,,60b29948c3753b3707dffe90,62c5384d34d8ca7f2ad01cdd,2022-07-06_09h23.41.366,Colour_Asymmetry_Pilot,2022.1.3,Win32,59.97361161,62c50e9c1127f2cd403a315f,,,,,,,,,,,,,,,,,,,,,,,,,,,,,,,,,,,,,,,,,,,,,,,,,,,,,,,,,,,,,,,,,,,,,,,,,,,,,,,,,,,,,,,,,,,,,,,,,,,,,,,,,,,,,,,,,,,,,,,,,,,,,,,,,,,,,,,,,,,,,,,,,,,,,,,,,,,,,,,,,,,
0,35,35,25,1,,60b29948c3753b3707dffe90,62c5384d34d8ca7f2ad01cdd,2022-07-06_09h23.41.366,Colour_Asymmetry_Pilot,2022.1.3,Win32,59.97361161,62c50e9c1127f2cd403a315f,,,,,,,,,,,,,,,,,,,,,,,,,,,,,,,,,,,,,,,,,,,,,,,,,,,,,,,,,,,,,,,,,,,,,,,,,,,,,,,,,,,,,,,,,,,,,,,,,,,,,,,,,,,,,,,,,,,,,,,,,,,,,,,,,,,,,,,,,,,,,,,,,,,,,,,,,,,,,,,,,,,
0,36,36,0,1,,60b29948c3753b3707dffe90,62c5384d34d8ca7f2ad01cdd,2022-07-06_09h23.41.366,Colour_Asymmetry_Pilot,2022.1.3,Win32,59.97361161,62c50e9c1127f2cd403a315f,,,,,,,,,,,,,,,,,,,,,,,,,,,,,,,,,,,,,,,,,,,,,,,,,,,,,,,,,,,,,,,,,,,,,,,,,,,,,,,,,,,,,,,,,,,,,,,,,,,,,,,,,,,,,,,,,,,,,,,,,,,,,,,,,,,,,,,,,,,,,,,,,,,,,,,,,,,,,,,,,,,
0,37,37,26,1,,60b29948c3753b3707dffe90,62c5384d34d8ca7f2ad01cdd,2022-07-06_09h23.41.366,Colour_Asymmetry_Pilot,2022.1.3,Win32,59.97361161,62c50e9c1127f2cd403a315f,,,,,,,,,,,,,,,,,,,,,,,,,,,,,,,,,,,,,,,,,,,,,,,,,,,,,,,,,,,,,,,,,,,,,,,,,,,,,,,,,,,,,,,,,,,,,,,,,,,,,,,,,,,,,,,,,,,,,,,,,,,,,,,,,,,,,,,,,,,,,,,,,,,,,,,,,,,,,,,,,,,
0,38,38,55,1,,60b29948c3753b3707dffe90,62c5384d34d8ca7f2ad01cdd,2022-07-06_09h23.41.366,Colour_Asymmetry_Pilot,2022.1.3,Win32,59.97361161,62c50e9c1127f2cd403a315f,,,,,,,,,,,,,,,,,,,,,,,,,,,,,,,,,,,,,,,,,,,,,,,,,,,,,,,,,,,,,,,,,,,,,,,,,,,,,,,,,,,,,,,,,,,,,,,,,,,,,,,,,,,,,,,,,,,,,,,,,,,,,,,,,,,,,,,,,,,,,,,,,,,,,,,,,,,,,,,,,,,
0,39,39,89,1,,60b29948c3753b3707dffe90,62c5384d34d8ca7f2ad01cdd,2022-07-06_09h23.41.366,Colour_Asymmetry_Pilot,2022.1.3,Win32,59.97361161,62c50e9c1127f2cd403a315f,,,,,,,,,,,,,,,,,,,,,,,,,,,,,,,,,,,,,,,,,,,,,,,,,,,,,,,,,,,,,,,,,,,,,,,,,,,,,,,,,,,,,,,,,,,,,,,,,,,,,,,,,,,,,,,,,,,,,,,,,,,,,,,,,,,,,,,,,,,,,,,,,,,,,,,,,,,,,,,,,,,
0,40,40,8,1,,60b29948c3753b3707dffe90,62c5384d34d8ca7f2ad01cdd,2022-07-06_09h23.41.366,Colour_Asymmetry_Pilot,2022.1.3,Win32,59.97361161,62c50e9c1127f2cd403a315f,,,,,,,,,,,,,,,,,,,,,,,,,,,,,,,,,,,,,,,,,,,,,,,,,,,,,,,,,,,,,,,,,,,,,,,,,,,,,,,,,,,,,,,,,,,,,,,,,,,,,,,,,,,,,,,,,,,,,,,,,,,,,,,,,,,,,,,,,,,,,,,,,,,,,,,,,,,,,,,,,,,
0,41,41,44,1,,60b29948c3753b3707dffe90,62c5384d34d8ca7f2ad01cdd,2022-07-06_09h23.41.366,Colour_Asymmetry_Pilot,2022.1.3,Win32,59.97361161,62c50e9c1127f2cd403a315f,,,,,,,,,,,,,,,,,,,,,,,,,,,,,,,,,,,,,,,,,,,,,,,,,,,,,,,,,,,,,,,,,,,,,,,,,,,,,,,,,,,,,,,,,,,,,,,,,,,,,,,,,,,,,,,,,,,,,,,,,,,,,,,,,,,,,,,,,,,,,,,,,,,,,,,,,,,,,,,,,,,
0,42,42,71,1,,60b29948c3753b3707dffe90,62c5384d34d8ca7f2ad01cdd,2022-07-06_09h23.41.366,Colour_Asymmetry_Pilot,2022.1.3,Win32,59.97361161,62c50e9c1127f2cd403a315f,,,,,,,,,,,,,,,,,,,,,,,,,,,,,,,,,,,,,,,,,,,,,,,,,,,,,,,,,,,,,,,,,,,,,,,,,,,,,,,,,,,,,,,,,,,,,,,,,,,,,,,,,,,,,,,,,,,,,,,,,,,,,,,,,,,,,,,,,,,,,,,,,,,,,,,,,,,,,,,,,,,
0,43,43,80,1,,60b29948c3753b3707dffe90,62c5384d34d8ca7f2ad01cdd,2022-07-06_09h23.41.366,Colour_Asymmetry_Pilot,2022.1.3,Win32,59.97361161,62c50e9c1127f2cd403a315f,,,,,,,,,,,,,,,,,,,,,,,,,,,,,,,,,,,,,,,,,,,,,,,,,,,,,,,,,,,,,,,,,,,,,,,,,,,,,,,,,,,,,,,,,,,,,,,,,,,,,,,,,,,,,,,,,,,,,,,,,,,,,,,,,,,,,,,,,,,,,,,,,,,,,,,,,,,,,,,,,,,
0,44,44,73,1,,60b29948c3753b3707dffe90,62c5384d34d8ca7f2ad01cdd,2022-07-06_09h23.41.366,Colour_Asymmetry_Pilot,2022.1.3,Win32,59.97361161,62c50e9c1127f2cd403a315f,,,,,,,,,,,,,,,,,,,,,,,,,,,,,,,,,,,,,,,,,,,,,,,,,,,,,,,,,,,,,,,,,,,,,,,,,,,,,,,,,,,,,,,,,,,,,,,,,,,,,,,,,,,,,,,,,,,,,,,,,,,,,,,,,,,,,,,,,,,,,,,,,,,,,,,,,,,,,,,,,,,
0,45,45,61,1,,60b29948c3753b3707dffe90,62c5384d34d8ca7f2ad01cdd,2022-07-06_09h23.41.366,Colour_Asymmetry_Pilot,2022.1.3,Win32,59.97361161,62c50e9c1127f2cd403a315f,,,,,,,,,,,,,,,,,,,,,,,,,,,,,,,,,,,,,,,,,,,,,,,,,,,,,,,,,,,,,,,,,,,,,,,,,,,,,,,,,,,,,,,,,,,,,,,,,,,,,,,,,,,,,,,,,,,,,,,,,,,,,,,,,,,,,,,,,,,,,,,,,,,,,,,,,,,,,,,,,,,
0,46,46,11,1,,60b29948c3753b3707dffe90,62c5384d34d8ca7f2ad01cdd,2022-07-06_09h23.41.366,Colour_Asymmetry_Pilot,2022.1.3,Win32,59.97361161,62c50e9c1127f2cd403a315f,,,,,,,,,,,,,,,,,,,,,,,,,,,,,,,,,,,,,,,,,,,,,,,,,,,,,,,,,,,,,,,,,,,,,,,,,,,,,,,,,,,,,,,,,,,,,,,,,,,,,,,,,,,,,,,,,,,,,,,,,,,,,,,,,,,,,,,,,,,,,,,,,,,,,,,,,,,,,,,,,,,
0,47,47,5,1,,60b29948c3753b3707dffe90,62c5384d34d8ca7f2ad01cdd,2022-07-06_09h23.41.366,Colour_Asymmetry_Pilot,2022.1.3,Win32,59.97361161,62c50e9c1127f2cd403a315f,,,,,,,,,,,,,,,,,,,,,,,,,,,,,,,,,,,,,,,,,,,,,,,,,,,,,,,,,,,,,,,,,,,,,,,,,,,,,,,,,,,,,,,,,,,,,,,,,,,,,,,,,,,,,,,,,,,,,,,,,,,,,,,,,,,,,,,,,,,,,,,,,,,,,,,,,,,,,,,,,,,
0,48,48,57,1,,60b29948c3753b3707dffe90,62c5384d34d8ca7f2ad01cdd,2022-07-06_09h23.41.366,Colour_Asymmetry_Pilot,2022.1.3,Win32,59.97361161,62c50e9c1127f2cd403a315f,,,,,,,,,,,,,,,,,,,,,,,,,,,,,,,,,,,,,,,,,,,,,,,,,,,,,,,,,,,,,,,,,,,,,,,,,,,,,,,,,,,,,,,,,,,,,,,,,,,,,,,,,,,,,,,,,,,,,,,,,,,,,,,,,,,,,,,,,,,,,,,,,,,,,,,,,,,,,,,,,,,
0,49,49,75,1,,60b29948c3753b3707dffe90,62c5384d34d8ca7f2ad01cdd,2022-07-06_09h23.41.366,Colour_Asymmetry_Pilot,2022.1.3,Win32,59.97361161,62c50e9c1127f2cd403a315f,,,,,,,,,,,,,,,,,,,,,,,,,,,,,,,,,,,,,,,,,,,,,,,,,,,,,,,,,,,,,,,,,,,,,,,,,,,,,,,,,,,,,,,,,,,,,,,,,,,,,,,,,,,,,,,,,,,,,,,,,,,,,,,,,,,,,,,,,,,,,,,,,,,,,,,,,,,,,,,,,,,
0,50,50,24,1,,60b29948c3753b3707dffe90,62c5384d34d8ca7f2ad01cdd,2022-07-06_09h23.41.366,Colour_Asymmetry_Pilot,2022.1.3,Win32,59.97361161,62c50e9c1127f2cd403a315f,,,,,,,,,,,,,,,,,,,,,,,,,,,,,,,,,,,,,,,,,,,,,,,,,,,,,,,,,,,,,,,,,,,,,,,,,,,,,,,,,,,,,,,,,,,,,,,,,,,,,,,,,,,,,,,,,,,,,,,,,,,,,,,,,,,,,,,,,,,,,,,,,,,,,,,,,,,,,,,,,,,
0,51,51,18,1,,60b29948c3753b3707dffe90,62c5384d34d8ca7f2ad01cdd,2022-07-06_09h23.41.366,Colour_Asymmetry_Pilot,2022.1.3,Win32,59.97361161,62c50e9c1127f2cd403a315f,,,,,,,,,,,,,,,,,,,,,,,,,,,,,,,,,,,,,,,,,,,,,,,,,,,,,,,,,,,,,,,,,,,,,,,,,,,,,,,,,,,,,,,,,,,,,,,,,,,,,,,,,,,,,,,,,,,,,,,,,,,,,,,,,,,,,,,,,,,,,,,,,,,,,,,,,,,,,,,,,,,
0,52,52,87,1,,60b29948c3753b3707dffe90,62c5384d34d8ca7f2ad01cdd,2022-07-06_09h23.41.366,Colour_Asymmetry_Pilot,2022.1.3,Win32,59.97361161,62c50e9c1127f2cd403a315f,,,,,,,,,,,,,,,,,,,,,,,,,,,,,,,,,,,,,,,,,,,,,,,,,,,,,,,,,,,,,,,,,,,,,,,,,,,,,,,,,,,,,,,,,,,,,,,,,,,,,,,,,,,,,,,,,,,,,,,,,,,,,,,,,,,,,,,,,,,,,,,,,,,,,,,,,,,,,,,,,,,
0,53,53,6,1,,60b29948c3753b3707dffe90,62c5384d34d8ca7f2ad01cdd,2022-07-06_09h23.41.366,Colour_Asymmetry_Pilot,2022.1.3,Win32,59.97361161,62c50e9c1127f2cd403a315f,,,,,,,,,,,,,,,,,,,,,,,,,,,,,,,,,,,,,,,,,,,,,,,,,,,,,,,,,,,,,,,,,,,,,,,,,,,,,,,,,,,,,,,,,,,,,,,,,,,,,,,,,,,,,,,,,,,,,,,,,,,,,,,,,,,,,,,,,,,,,,,,,,,,,,,,,,,,,,,,,,,
0,54,54,22,1,,60b29948c3753b3707dffe90,62c5384d34d8ca7f2ad01cdd,2022-07-06_09h23.41.366,Colour_Asymmetry_Pilot,2022.1.3,Win32,59.97361161,62c50e9c1127f2cd403a315f,,,,,,,,,,,,,,,,,,,,,,,,,,,,,,,,,,,,,,,,,,,,,,,,,,,,,,,,,,,,,,,,,,,,,,,,,,,,,,,,,,,,,,,,,,,,,,,,,,,,,,,,,,,,,,,,,,,,,,,,,,,,,,,,,,,,,,,,,,,,,,,,,,,,,,,,,,,,,,,,,,,
0,55,55,42,1,,60b29948c3753b3707dffe90,62c5384d34d8ca7f2ad01cdd,2022-07-06_09h23.41.366,Colour_Asymmetry_Pilot,2022.1.3,Win32,59.97361161,62c50e9c1127f2cd403a315f,,,,,,,,,,,,,,,,,,,,,,,,,,,,,,,,,,,,,,,,,,,,,,,,,,,,,,,,,,,,,,,,,,,,,,,,,,,,,,,,,,,,,,,,,,,,,,,,,,,,,,,,,,,,,,,,,,,,,,,,,,,,,,,,,,,,,,,,,,,,,,,,,,,,,,,,,,,,,,,,,,,
0,56,56,1,1,,60b29948c3753b3707dffe90,62c5384d34d8ca7f2ad01cdd,2022-07-06_09h23.41.366,Colour_Asymmetry_Pilot,2022.1.3,Win32,59.97361161,62c50e9c1127f2cd403a315f,,,,,,,,,,,,,,,,,,,,,,,,,,,,,,,,,,,,,,,,,,,,,,,,,,,,,,,,,,,,,,,,,,,,,,,,,,,,,,,,,,,,,,,,,,,,,,,,,,,,,,,,,,,,,,,,,,,,,,,,,,,,,,,,,,,,,,,,,,,,,,,,,,,,,,,,,,,,,,,,,,,
0,57,57,46,1,,60b29948c3753b3707dffe90,62c5384d34d8ca7f2ad01cdd,2022-07-06_09h23.41.366,Colour_Asymmetry_Pilot,2022.1.3,Win32,59.97361161,62c50e9c1127f2cd403a315f,,,,,,,,,,,,,,,,,,,,,,,,,,,,,,,,,,,,,,,,,,,,,,,,,,,,,,,,,,,,,,,,,,,,,,,,,,,,,,,,,,,,,,,,,,,,,,,,,,,,,,,,,,,,,,,,,,,,,,,,,,,,,,,,,,,,,,,,,,,,,,,,,,,,,,,,,,,,,,,,,,,
0,58,58,28,1,,60b29948c3753b3707dffe90,62c5384d34d8ca7f2ad01cdd,2022-07-06_09h23.41.366,Colour_Asymmetry_Pilot,2022.1.3,Win32,59.97361161,62c50e9c1127f2cd403a315f,,,,,,,,,,,,,,,,,,,,,,,,,,,,,,,,,,,,,,,,,,,,,,,,,,,,,,,,,,,,,,,,,,,,,,,,,,,,,,,,,,,,,,,,,,,,,,,,,,,,,,,,,,,,,,,,,,,,,,,,,,,,,,,,,,,,,,,,,,,,,,,,,,,,,,,,,,,,,,,,,,,
0,59,59,76,1,,60b29948c3753b3707dffe90,62c5384d34d8ca7f2ad01cdd,2022-07-06_09h23.41.366,Colour_Asymmetry_Pilot,2022.1.3,Win32,59.97361161,62c50e9c1127f2cd403a315f,,,,,,,,,,,,,,,,,,,,,,,,,,,,,,,,,,,,,,,,,,,,,,,,,,,,,,,,,,,,,,,,,,,,,,,,,,,,,,,,,,,,,,,,,,,,,,,,,,,,,,,,,,,,,,,,,,,,,,,,,,,,,,,,,,,,,,,,,,,,,,,,,,,,,,,,,,,,,,,,,,,
0,60,60,2,1,,60b29948c3753b3707dffe90,62c5384d34d8ca7f2ad01cdd,2022-07-06_09h23.41.366,Colour_Asymmetry_Pilot,2022.1.3,Win32,59.97361161,62c50e9c1127f2cd403a315f,,,,,,,,,,,,,,,,,,,,,,,,,,,,,,,,,,,,,,,,,,,,,,,,,,,,,,,,,,,,,,,,,,,,,,,,,,,,,,,,,,,,,,,,,,,,,,,,,,,,,,,,,,,,,,,,,,,,,,,,,,,,,,,,,,,,,,,,,,,,,,,,,,,,,,,,,,,,,,,,,,,
0,61,61,38,1,,60b29948c3753b3707dffe90,62c5384d34d8ca7f2ad01cdd,2022-07-06_09h23.41.366,Colour_Asymmetry_Pilot,2022.1.3,Win32,59.97361161,62c50e9c1127f2cd403a315f,,,,,,,,,,,,,,,,,,,,,,,,,,,,,,,,,,,,,,,,,,,,,,,,,,,,,,,,,,,,,,,,,,,,,,,,,,,,,,,,,,,,,,,,,,,,,,,,,,,,,,,,,,,,,,,,,,,,,,,,,,,,,,,,,,,,,,,,,,,,,,,,,,,,,,,,,,,,,,,,,,,
0,62,62,20,1,,60b29948c3753b3707dffe90,62c5384d34d8ca7f2ad01cdd,2022-07-06_09h23.41.366,Colour_Asymmetry_Pilot,2022.1.3,Win32,59.97361161,62c50e9c1127f2cd403a315f,,,,,,,,,,,,,,,,,,,,,,,,,,,,,,,,,,,,,,,,,,,,,,,,,,,,,,,,,,,,,,,,,,,,,,,,,,,,,,,,,,,,,,,,,,,,,,,,,,,,,,,,,,,,,,,,,,,,,,,,,,,,,,,,,,,,,,,,,,,,,,,,,,,,,,,,,,,,,,,,,,,
0,63,63,74,1,,60b29948c3753b3707dffe90,62c5384d34d8ca7f2ad01cdd,2022-07-06_09h23.41.366,Colour_Asymmetry_Pilot,2022.1.3,Win32,59.97361161,62c50e9c1127f2cd403a315f,,,,,,,,,,,,,,,,,,,,,,,,,,,,,,,,,,,,,,,,,,,,,,,,,,,,,,,,,,,,,,,,,,,,,,,,,,,,,,,,,,,,,,,,,,,,,,,,,,,,,,,,,,,,,,,,,,,,,,,,,,,,,,,,,,,,,,,,,,,,,,,,,,,,,,,,,,,,,,,,,,,
0,64,64,31,1,,60b29948c3753b3707dffe90,62c5384d34d8ca7f2ad01cdd,2022-07-06_09h23.41.366,Colour_Asymmetry_Pilot,2022.1.3,Win32,59.97361161,62c50e9c1127f2cd403a315f,,,,,,,,,,,,,,,,,,,,,,,,,,,,,,,,,,,,,,,,,,,,,,,,,,,,,,,,,,,,,,,,,,,,,,,,,,,,,,,,,,,,,,,,,,,,,,,,,,,,,,,,,,,,,,,,,,,,,,,,,,,,,,,,,,,,,,,,,,,,,,,,,,,,,,,,,,,,,,,,,,,
0,65,65,35,1,,60b29948c3753b3707dffe90,62c5384d34d8ca7f2ad01cdd,2022-07-06_09h23.41.366,Colour_Asymmetry_Pilot,2022.1.3,Win32,59.97361161,62c50e9c1127f2cd403a315f,,,,,,,,,,,,,,,,,,,,,,,,,,,,,,,,,,,,,,,,,,,,,,,,,,,,,,,,,,,,,,,,,,,,,,,,,,,,,,,,,,,,,,,,,,,,,,,,,,,,,,,,,,,,,,,,,,,,,,,,,,,,,,,,,,,,,,,,,,,,,,,,,,,,,,,,,,,,,,,,,,,
0,66,66,39,1,,60b29948c3753b3707dffe90,62c5384d34d8ca7f2ad01cdd,2022-07-06_09h23.41.366,Colour_Asymmetry_Pilot,2022.1.3,Win32,59.97361161,62c50e9c1127f2cd403a315f,,,,,,,,,,,,,,,,,,,,,,,,,,,,,,,,,,,,,,,,,,,,,,,,,,,,,,,,,,,,,,,,,,,,,,,,,,,,,,,,,,,,,,,,,,,,,,,,,,,,,,,,,,,,,,,,,,,,,,,,,,,,,,,,,,,,,,,,,,,,,,,,,,,,,,,,,,,,,,,,,,,
0,67,67,53,1,,60b29948c3753b3707dffe90,62c5384d34d8ca7f2ad01cdd,2022-07-06_09h23.41.366,Colour_Asymmetry_Pilot,2022.1.3,Win32,59.97361161,62c50e9c1127f2cd403a315f,,,,,,,,,,,,,,,,,,,,,,,,,,,,,,,,,,,,,,,,,,,,,,,,,,,,,,,,,,,,,,,,,,,,,,,,,,,,,,,,,,,,,,,,,,,,,,,,,,,,,,,,,,,,,,,,,,,,,,,,,,,,,,,,,,,,,,,,,,,,,,,,,,,,,,,,,,,,,,,,,,,
0,68,68,49,1,,60b29948c3753b3707dffe90,62c5384d34d8ca7f2ad01cdd,2022-07-06_09h23.41.366,Colour_Asymmetry_Pilot,2022.1.3,Win32,59.97361161,62c50e9c1127f2cd403a315f,,,,,,,,,,,,,,,,,,,,,,,,,,,,,,,,,,,,,,,,,,,,,,,,,,,,,,,,,,,,,,,,,,,,,,,,,,,,,,,,,,,,,,,,,,,,,,,,,,,,,,,,,,,,,,,,,,,,,,,,,,,,,,,,,,,,,,,,,,,,,,,,,,,,,,,,,,,,,,,,,,,
0,69,69,66,1,,60b29948c3753b3707dffe90,62c5384d34d8ca7f2ad01cdd,2022-07-06_09h23.41.366,Colour_Asymmetry_Pilot,2022.1.3,Win32,59.97361161,62c50e9c1127f2cd403a315f,,,,,,,,,,,,,,,,,,,,,,,,,,,,,,,,,,,,,,,,,,,,,,,,,,,,,,,,,,,,,,,,,,,,,,,,,,,,,,,,,,,,,,,,,,,,,,,,,,,,,,,,,,,,,,,,,,,,,,,,,,,,,,,,,,,,,,,,,,,,,,,,,,,,,,,,,,,,,,,,,,,
0,70,70,70,1,,60b29948c3753b3707dffe90,62c5384d34d8ca7f2ad01cdd,2022-07-06_09h23.41.366,Colour_Asymmetry_Pilot,2022.1.3,Win32,59.97361161,62c50e9c1127f2cd403a315f,,,,,,,,,,,,,,,,,,,,,,,,,,,,,,,,,,,,,,,,,,,,,,,,,,,,,,,,,,,,,,,,,,,,,,,,,,,,,,,,,,,,,,,,,,,,,,,,,,,,,,,,,,,,,,,,,,,,,,,,,,,,,,,,,,,,,,,,,,,,,,,,,,,,,,,,,,,,,,,,,,,
0,71,71,13,1,,60b29948c3753b3707dffe90,62c5384d34d8ca7f2ad01cdd,2022-07-06_09h23.41.366,Colour_Asymmetry_Pilot,2022.1.3,Win32,59.97361161,62c50e9c1127f2cd403a315f,,,,,,,,,,,,,,,,,,,,,,,,,,,,,,,,,,,,,,,,,,,,,,,,,,,,,,,,,,,,,,,,,,,,,,,,,,,,,,,,,,,,,,,,,,,,,,,,,,,,,,,,,,,,,,,,,,,,,,,,,,,,,,,,,,,,,,,,,,,,,,,,,,,,,,,,,,,,,,,,,,,
0,72,72,56,1,,60b29948c3753b3707dffe90,62c5384d34d8ca7f2ad01cdd,2022-07-06_09h23.41.366,Colour_Asymmetry_Pilot,2022.1.3,Win32,59.97361161,62c50e9c1127f2cd403a315f,,,,,,,,,,,,,,,,,,,,,,,,,,,,,,,,,,,,,,,,,,,,,,,,,,,,,,,,,,,,,,,,,,,,,,,,,,,,,,,,,,,,,,,,,,,,,,,,,,,,,,,,,,,,,,,,,,,,,,,,,,,,,,,,,,,,,,,,,,,,,,,,,,,,,,,,,,,,,,,,,,,
0,73,73,16,1,,60b29948c3753b3707dffe90,62c5384d34d8ca7f2ad01cdd,2022-07-06_09h23.41.366,Colour_Asymmetry_Pilot,2022.1.3,Win32,59.97361161,62c50e9c1127f2cd403a315f,,,,,,,,,,,,,,,,,,,,,,,,,,,,,,,,,,,,,,,,,,,,,,,,,,,,,,,,,,,,,,,,,,,,,,,,,,,,,,,,,,,,,,,,,,,,,,,,,,,,,,,,,,,,,,,,,,,,,,,,,,,,,,,,,,,,,,,,,,,,,,,,,,,,,,,,,,,,,,,,,,,
0,74,74,30,1,,60b29948c3753b3707dffe90,62c5384d34d8ca7f2ad01cdd,2022-07-06_09h23.41.366,Colour_Asymmetry_Pilot,2022.1.3,Win32,59.97361161,62c50e9c1127f2cd403a315f,,,,,,,,,,,,,,,,,,,,,,,,,,,,,,,,,,,,,,,,,,,,,,,,,,,,,,,,,,,,,,,,,,,,,,,,,,,,,,,,,,,,,,,,,,,,,,,,,,,,,,,,,,,,,,,,,,,,,,,,,,,,,,,,,,,,,,,,,,,,,,,,,,,,,,,,,,,,,,,,,,,
0,75,75,4,1,,60b29948c3753b3707dffe90,62c5384d34d8ca7f2ad01cdd,2022-07-06_09h23.41.366,Colour_Asymmetry_Pilot,2022.1.3,Win32,59.97361161,62c50e9c1127f2cd403a315f,,,,,,,,,,,,,,,,,,,,,,,,,,,,,,,,,,,,,,,,,,,,,,,,,,,,,,,,,,,,,,,,,,,,,,,,,,,,,,,,,,,,,,,,,,,,,,,,,,,,,,,,,,,,,,,,,,,,,,,,,,,,,,,,,,,,,,,,,,,,,,,,,,,,,,,,,,,,,,,,,,,
0,76,76,63,1,,60b29948c3753b3707dffe90,62c5384d34d8ca7f2ad01cdd,2022-07-06_09h23.41.366,Colour_Asymmetry_Pilot,2022.1.3,Win32,59.97361161,62c50e9c1127f2cd403a315f,,,,,,,,,,,,,,,,,,,,,,,,,,,,,,,,,,,,,,,,,,,,,,,,,,,,,,,,,,,,,,,,,,,,,,,,,,,,,,,,,,,,,,,,,,,,,,,,,,,,,,,,,,,,,,,,,,,,,,,,,,,,,,,,,,,,,,,,,,,,,,,,,,,,,,,,,,,,,,,,,,,
0,77,77,50,1,,60b29948c3753b3707dffe90,62c5384d34d8ca7f2ad01cdd,2022-07-06_09h23.41.366,Colour_Asymmetry_Pilot,2022.1.3,Win32,59.97361161,62c50e9c1127f2cd403a315f,,,,,,,,,,,,,,,,,,,,,,,,,,,,,,,,,,,,,,,,,,,,,,,,,,,,,,,,,,,,,,,,,,,,,,,,,,,,,,,,,,,,,,,,,,,,,,,,,,,,,,,,,,,,,,,,,,,,,,,,,,,,,,,,,,,,,,,,,,,,,,,,,,,,,,,,,,,,,,,,,,,
0,78,78,88,1,,60b29948c3753b3707dffe90,62c5384d34d8ca7f2ad01cdd,2022-07-06_09h23.41.366,Colour_Asymmetry_Pilot,2022.1.3,Win32,59.97361161,62c50e9c1127f2cd403a315f,,,,,,,,,,,,,,,,,,,,,,,,,,,,,,,,,,,,,,,,,,,,,,,,,,,,,,,,,,,,,,,,,,,,,,,,,,,,,,,,,,,,,,,,,,,,,,,,,,,,,,,,,,,,,,,,,,,,,,,,,,,,,,,,,,,,,,,,,,,,,,,,,,,,,,,,,,,,,,,,,,,
0,79,79,17,1,,60b29948c3753b3707dffe90,62c5384d34d8ca7f2ad01cdd,2022-07-06_09h23.41.366,Colour_Asymmetry_Pilot,2022.1.3,Win32,59.97361161,62c50e9c1127f2cd403a315f,,,,,,,,,,,,,,,,,,,,,,,,,,,,,,,,,,,,,,,,,,,,,,,,,,,,,,,,,,,,,,,,,,,,,,,,,,,,,,,,,,,,,,,,,,,,,,,,,,,,,,,,,,,,,,,,,,,,,,,,,,,,,,,,,,,,,,,,,,,,,,,,,,,,,,,,,,,,,,,,,,,
0,80,80,9,1,,60b29948c3753b3707dffe90,62c5384d34d8ca7f2ad01cdd,2022-07-06_09h23.41.366,Colour_Asymmetry_Pilot,2022.1.3,Win32,59.97361161,62c50e9c1127f2cd403a315f,,,,,,,,,,,,,,,,,,,,,,,,,,,,,,,,,,,,,,,,,,,,,,,,,,,,,,,,,,,,,,,,,,,,,,,,,,,,,,,,,,,,,,,,,,,,,,,,,,,,,,,,,,,,,,,,,,,,,,,,,,,,,,,,,,,,,,,,,,,,,,,,,,,,,,,,,,,,,,,,,,,
0,81,81,54,1,,60b29948c3753b3707dffe90,62c5384d34d8ca7f2ad01cdd,2022-07-06_09h23.41.366,Colour_Asymmetry_Pilot,2022.1.3,Win32,59.97361161,62c50e9c1127f2cd403a315f,,,,,,,,,,,,,,,,,,,,,,,,,,,,,,,,,,,,,,,,,,,,,,,,,,,,,,,,,,,,,,,,,,,,,,,,,,,,,,,,,,,,,,,,,,,,,,,,,,,,,,,,,,,,,,,,,,,,,,,,,,,,,,,,,,,,,,,,,,,,,,,,,,,,,,,,,,,,,,,,,,,
0,82,82,79,1,,60b29948c3753b3707dffe90,62c5384d34d8ca7f2ad01cdd,2022-07-06_09h23.41.366,Colour_Asymmetry_Pilot,2022.1.3,Win32,59.97361161,62c50e9c1127f2cd403a315f,,,,,,,,,,,,,,,,,,,,,,,,,,,,,,,,,,,,,,,,,,,,,,,,,,,,,,,,,,,,,,,,,,,,,,,,,,,,,,,,,,,,,,,,,,,,,,,,,,,,,,,,,,,,,,,,,,,,,,,,,,,,,,,,,,,,,,,,,,,,,,,,,,,,,,,,,,,,,,,,,,,
0,83,83,7,1,,60b29948c3753b3707dffe90,62c5384d34d8ca7f2ad01cdd,2022-07-06_09h23.41.366,Colour_Asymmetry_Pilot,2022.1.3,Win32,59.97361161,62c50e9c1127f2cd403a315f,,,,,,,,,,,,,,,,,,,,,,,,,,,,,,,,,,,,,,,,,,,,,,,,,,,,,,,,,,,,,,,,,,,,,,,,,,,,,,,,,,,,,,,,,,,,,,,,,,,,,,,,,,,,,,,,,,,,,,,,,,,,,,,,,,,,,,,,,,,,,,,,,,,,,,,,,,,,,,,,,,,
0,84,84,82,1,,60b29948c3753b3707dffe90,62c5384d34d8ca7f2ad01cdd,2022-07-06_09h23.41.366,Colour_Asymmetry_Pilot,2022.1.3,Win32,59.97361161,62c50e9c1127f2cd403a315f,,,,,,,,,,,,,,,,,,,,,,,,,,,,,,,,,,,,,,,,,,,,,,,,,,,,,,,,,,,,,,,,,,,,,,,,,,,,,,,,,,,,,,,,,,,,,,,,,,,,,,,,,,,,,,,,,,,,,,,,,,,,,,,,,,,,,,,,,,,,,,,,,,,,,,,,,,,,,,,,,,,
0,85,85,86,1,,60b29948c3753b3707dffe90,62c5384d34d8ca7f2ad01cdd,2022-07-06_09h23.41.366,Colour_Asymmetry_Pilot,2022.1.3,Win32,59.97361161,62c50e9c1127f2cd403a315f,,,,,,,,,,,,,,,,,,,,,,,,,,,,,,,,,,,,,,,,,,,,,,,,,,,,,,,,,,,,,,,,,,,,,,,,,,,,,,,,,,,,,,,,,,,,,,,,,,,,,,,,,,,,,,,,,,,,,,,,,,,,,,,,,,,,,,,,,,,,,,,,,,,,,,,,,,,,,,,,,,,
0,86,86,40,1,,60b29948c3753b3707dffe90,62c5384d34d8ca7f2ad01cdd,2022-07-06_09h23.41.366,Colour_Asymmetry_Pilot,2022.1.3,Win32,59.97361161,62c50e9c1127f2cd403a315f,,,,,,,,,,,,,,,,,,,,,,,,,,,,,,,,,,,,,,,,,,,,,,,,,,,,,,,,,,,,,,,,,,,,,,,,,,,,,,,,,,,,,,,,,,,,,,,,,,,,,,,,,,,,,,,,,,,,,,,,,,,,,,,,,,,,,,,,,,,,,,,,,,,,,,,,,,,,,,,,,,,
0,87,87,77,1,,60b29948c3753b3707dffe90,62c5384d34d8ca7f2ad01cdd,2022-07-06_09h23.41.366,Colour_Asymmetry_Pilot,2022.1.3,Win32,59.97361161,62c50e9c1127f2cd403a315f,,,,,,,,,,,,,,,,,,,,,,,,,,,,,,,,,,,,,,,,,,,,,,,,,,,,,,,,,,,,,,,,,,,,,,,,,,,,,,,,,,,,,,,,,,,,,,,,,,,,,,,,,,,,,,,,,,,,,,,,,,,,,,,,,,,,,,,,,,,,,,,,,,,,,,,,,,,,,,,,,,,
0,88,88,52,1,,60b29948c3753b3707dffe90,62c5384d34d8ca7f2ad01cdd,2022-07-06_09h23.41.366,Colour_Asymmetry_Pilot,2022.1.3,Win32,59.97361161,62c50e9c1127f2cd403a315f,,,,,,,,,,,,,,,,,,,,,,,,,,,,,,,,,,,,,,,,,,,,,,,,,,,,,,,,,,,,,,,,,,,,,,,,,,,,,,,,,,,,,,,,,,,,,,,,,,,,,,,,,,,,,,,,,,,,,,,,,,,,,,,,,,,,,,,,,,,,,,,,,,,,,,,,,,,,,,,,,,,
0,89,89,21,1,,60b29948c3753b3707dffe90,62c5384d34d8ca7f2ad01cdd,2022-07-06_09h23.41.366,Colour_Asymmetry_Pilot,2022.1.3,Win32,59.97361161,62c50e9c1127f2cd403a315f,,,,,,,,,,,,,,,,,,,,,,,,,,,,,,,,,,,,,,,,,,,,,,,,,,,,,,,,,,,,,,,,,,,,,,,,,,,,,,,,,,,,,,,,,,,,,,,,,,,,,,,,,,,,,,,,,,,,,,,,,,,,,,,,,,,,,,,,,,,,,,,,,,,,,,,,,,,,,,,,,,,
0,90,90,69,1,,60b29948c3753b3707dffe90,62c5384d34d8ca7f2ad01cdd,2022-07-06_09h23.41.366,Colour_Asymmetry_Pilot,2022.1.3,Win32,59.97361161,62c50e9c1127f2cd403a315f,,,,,,,,,,,,,,,,,,,,,,,,,,,,,,,,,,,,,,,,,,,,,,,,,,,,,,,,,,,,,,,,,,,,,,,,,,,,,,,,,,,,,,,,,,,,,,,,,,,,,,,,,,,,,,,,,,,,,,,,,,,,,,,,,,,,,,,,,,,,,,,,,,,,,,,,,,,,,,,,,,,
0,91,91,65,1,,60b29948c3753b3707dffe90,62c5384d34d8ca7f2ad01cdd,2022-07-06_09h23.41.366,Colour_Asymmetry_Pilot,2022.1.3,Win32,59.97361161,62c50e9c1127f2cd403a315f,,,,,,,,,,,,,,,,,,,,,,,,,,,,,,,,,,,,,,,,,,,,,,,,,,,,,,,,,,,,,,,,,,,,,,,,,,,,,,,,,,,,,,,,,,,,,,,,,,,,,,,,,,,,,,,,,,,,,,,,,,,,,,,,,,,,,,,,,,,,,,,,,,,,,,,,,,,,,,,,,,,
0,92,92,47,1,,60b29948c3753b3707dffe90,62c5384d34d8ca7f2ad01cdd,2022-07-06_09h23.41.366,Colour_Asymmetry_Pilot,2022.1.3,Win32,59.97361161,62c50e9c1127f2cd403a315f,,,,,,,,,,,,,,,,,,,,,,,,,,,,,,,,,,,,,,,,,,,,,,,,,,,,,,,,,,,,,,,,,,,,,,,,,,,,,,,,,,,,,,,,,,,,,,,,,,,,,,,,,,,,,,,,,,,,,,,,,,,,,,,,,,,,,,,,,,,,,,,,,,,,,,,,,,,,,,,,,,,
,,,,,,60b29948c3753b3707dffe90,62c5384d34d8ca7f2ad01cdd,2022-07-06_09h23.41.366,Colour_Asymmetry_Pilot,2022.1.3,Win32,59.97361161,62c50e9c1127f2cd403a315f,0,0,0,86,1,fourtwo,,,,,,,,,,,,,,,,,,,,,,,,,,,,,,,,,,,,,,,,,,,,,,,,,,,,,,,,,,,,,,,,,,,,,,,,,,,,,,,,,,,,,,,,,,,,,,,,,,,,,,,,,,,,,,,,,,,,,,,,,,,,,,,,,,,,,,,,,,,,,,,,,,,,,,,,,,,,,
,,,,,,60b29948c3753b3707dffe90,62c5384d34d8ca7f2ad01cdd,2022-07-06_09h23.41.366,Colour_Asymmetry_Pilot,2022.1.3,Win32,59.97361161,62c50e9c1127f2cd403a315f,0,1,1,75,1,twofour,,,,,,,,,,,,,,,,,,,,,,,,,,,,,,,,,,,,,,,,,,,,,,,,,,,,,,,,,,,,,,,,,,,,,,,,,,,,,,,,,,,,,,,,,,,,,,,,,,,,,,,,,,,,,,,,,,,,,,,,,,,,,,,,,,,,,,,,,,,,,,,,,,,,,,,,,,,,,
,,,,,,60b29948c3753b3707dffe90,62c5384d34d8ca7f2ad01cdd,2022-07-06_09h23.41.366,Colour_Asymmetry_Pilot,2022.1.3,Win32,59.97361161,62c50e9c1127f2cd403a315f,0,2,2,103,1,fourthree,,,,,,,,,,,,,,,,,,,,,,,,,,,,,,,,,,,,,,,,,,,,,,,,,,,,,,,,,,,,,,,,,,,,,,,,,,,,,,,,,,,,,,,,,,,,,,,,,,,,,,,,,,,,,,,,,,,,,,,,,,,,,,,,,,,,,,,,,,,,,,,,,,,,,,,,,,,,,
,,,,,,60b29948c3753b3707dffe90,62c5384d34d8ca7f2ad01cdd,2022-07-06_09h23.41.366,Colour_Asymmetry_Pilot,2022.1.3,Win32,59.97361161,62c50e9c1127f2cd403a315f,0,3,3,69,1,threefour,,,,,,,,,,,,,,,,,,,,,,,,,,,,,,,,,,,,,,,,,,,,,,,,,,,,,,,,,,,,,,,,,,,,,,,,,,,,,,,,,,,,,,,,,,,,,,,,,,,,,,,,,,,,,,,,,,,,,,,,,,,,,,,,,,,,,,,,,,,,,,,,,,,,,,,,,,,,,
,,,,,,60b29948c3753b3707dffe90,62c5384d34d8ca7f2ad01cdd,2022-07-06_09h23.41.366,Colour_Asymmetry_Pilot,2022.1.3,Win32,59.97361161,62c50e9c1127f2cd403a315f,0,4,4,119,1,fourthree,,,,,,,,,,,,,,,,,,,,,,,,,,,,,,,,,,,,,,,,,,,,,,,,,,,,,,,,,,,,,,,,,,,,,,,,,,,,,,,,,,,,,,,,,,,,,,,,,,,,,,,,,,,,,,,,,,,,,,,,,,,,,,,,,,,,,,,,,,,,,,,,,,,,,,,,,,,,,
,,,,,,60b29948c3753b3707dffe90,62c5384d34d8ca7f2ad01cdd,2022-07-06_09h23.41.366,Colour_Asymmetry_Pilot,2022.1.3,Win32,59.97361161,62c50e9c1127f2cd403a315f,0,5,5,113,1,onethree,,,,,,,,,,,,,,,,,,,,,,,,,,,,,,,,,,,,,,,,,,,,,,,,,,,,,,,,,,,,,,,,,,,,,,,,,,,,,,,,,,,,,,,,,,,,,,,,,,,,,,,,,,,,,,,,,,,,,,,,,,,,,,,,,,,,,,,,,,,,,,,,,,,,,,,,,,,,,
,,,,,,60b29948c3753b3707dffe90,62c5384d34d8ca7f2ad01cdd,2022-07-06_09h23.41.366,Colour_Asymmetry_Pilot,2022.1.3,Win32,59.97361161,62c50e9c1127f2cd403a315f,0,6,6,122,1,twoone,,,,,,,,,,,,,,,,,,,,,,,,,,,,,,,,,,,,,,,,,,,,,,,,,,,,,,,,,,,,,,,,,,,,,,,,,,,,,,,,,,,,,,,,,,,,,,,,,,,,,,,,,,,,,,,,,,,,,,,,,,,,,,,,,,,,,,,,,,,,,,,,,,,,,,,,,,,,,
,,,,,,60b29948c3753b3707dffe90,62c5384d34d8ca7f2ad01cdd,2022-07-06_09h23.41.366,Colour_Asymmetry_Pilot,2022.1.3,Win32,59.97361161,62c50e9c1127f2cd403a315f,0,7,7,17,1,onethree,,,,,,,,,,,,,,,,,,,,,,,,,,,,,,,,,,,,,,,,,,,,,,,,,,,,,,,,,,,,,,,,,,,,,,,,,,,,,,,,,,,,,,,,,,,,,,,,,,,,,,,,,,,,,,,,,,,,,,,,,,,,,,,,,,,,,,,,,,,,,,,,,,,,,,,,,,,,,
,,,,,,60b29948c3753b3707dffe90,62c5384d34d8ca7f2ad01cdd,2022-07-06_09h23.41.366,Colour_Asymmetry_Pilot,2022.1.3,Win32,59.97361161,62c50e9c1127f2cd403a315f,0,8,8,106,1,twoone,,,,,,,,,,,,,,,,,,,,,,,,,,,,,,,,,,,,,,,,,,,,,,,,,,,,,,,,,,,,,,,,,,,,,,,,,,,,,,,,,,,,,,,,,,,,,,,,,,,,,,,,,,,,,,,,,,,,,,,,,,,,,,,,,,,,,,,,,,,,,,,,,,,,,,,,,,,,,
,,,,,,60b29948c3753b3707dffe90,62c5384d34d8ca7f2ad01cdd,2022-07-06_09h23.41.366,Colour_Asymmetry_Pilot,2022.1.3,Win32,59.97361161,62c50e9c1127f2cd403a315f,0,9,9,114,1,twoone,,,,,,,,,,,,,,,,,,,,,,,,,,,,,,,,,,,,,,,,,,,,,,,,,,,,,,,,,,,,,,,,,,,,,,,,,,,,,,,,,,,,,,,,,,,,,,,,,,,,,,,,,,,,,,,,,,,,,,,,,,,,,,,,,,,,,,,,,,,,,,,,,,,,,,,,,,,,,
,,,,,,60b29948c3753b3707dffe90,62c5384d34d8ca7f2ad01cdd,2022-07-06_09h23.41.366,Colour_Asymmetry_Pilot,2022.1.3,Win32,59.97361161,62c50e9c1127f2cd403a315f,0,10,10,121,1,onethree,,,,,,,,,,,,,,,,,,,,,,,,,,,,,,,,,,,,,,,,,,,,,,,,,,,,,,,,,,,,,,,,,,,,,,,,,,,,,,,,,,,,,,,,,,,,,,,,,,,,,,,,,,,,,,,,,,,,,,,,,,,,,,,,,,,,,,,,,,,,,,,,,,,,,,,,,,,,,
,,,,,,60b29948c3753b3707dffe90,62c5384d34d8ca7f2ad01cdd,2022-07-06_09h23.41.366,Colour_Asymmetry_Pilot,2022.1.3,Win32,59.97361161,62c50e9c1127f2cd403a315f,0,11,11,115,1,twofour,,,,,,,,,,,,,,,,,,,,,,,,,,,,,,,,,,,,,,,,,,,,,,,,,,,,,,,,,,,,,,,,,,,,,,,,,,,,,,,,,,,,,,,,,,,,,,,,,,,,,,,,,,,,,,,,,,,,,,,,,,,,,,,,,,,,,,,,,,,,,,,,,,,,,,,,,,,,,
,,,,,,60b29948c3753b3707dffe90,62c5384d34d8ca7f2ad01cdd,2022-07-06_09h23.41.366,Colour_Asymmetry_Pilot,2022.1.3,Win32,59.97361161,62c50e9c1127f2cd403a315f,0,12,12,150,1,fourtwo,,,,,,,,,,,,,,,,,,,,,,,,,,,,,,,,,,,,,,,,,,,,,,,,,,,,,,,,,,,,,,,,,,,,,,,,,,,,,,,,,,,,,,,,,,,,,,,,,,,,,,,,,,,,,,,,,,,,,,,,,,,,,,,,,,,,,,,,,,,,,,,,,,,,,,,,,,,,,
,,,,,,60b29948c3753b3707dffe90,62c5384d34d8ca7f2ad01cdd,2022-07-06_09h23.41.366,Colour_Asymmetry_Pilot,2022.1.3,Win32,59.97361161,62c50e9c1127f2cd403a315f,0,13,13,144,1,onetwo,,,,,,,,,,,,,,,,,,,,,,,,,,,,,,,,,,,,,,,,,,,,,,,,,,,,,,,,,,,,,,,,,,,,,,,,,,,,,,,,,,,,,,,,,,,,,,,,,,,,,,,,,,,,,,,,,,,,,,,,,,,,,,,,,,,,,,,,,,,,,,,,,,,,,,,,,,,,,
,,,,,,60b29948c3753b3707dffe90,62c5384d34d8ca7f2ad01cdd,2022-07-06_09h23.41.366,Colour_Asymmetry_Pilot,2022.1.3,Win32,59.97361161,62c50e9c1127f2cd403a315f,0,14,14,65,1,onethree,,,,,,,,,,,,,,,,,,,,,,,,,,,,,,,,,,,,,,,,,,,,,,,,,,,,,,,,,,,,,,,,,,,,,,,,,,,,,,,,,,,,,,,,,,,,,,,,,,,,,,,,,,,,,,,,,,,,,,,,,,,,,,,,,,,,,,,,,,,,,,,,,,,,,,,,,,,,,
,,,,,,60b29948c3753b3707dffe90,62c5384d34d8ca7f2ad01cdd,2022-07-06_09h23.41.366,Colour_Asymmetry_Pilot,2022.1.3,Win32,59.97361161,62c50e9c1127f2cd403a315f,0,15,15,19,1,twofour,,,,,,,,,,,,,,,,,,,,,,,,,,,,,,,,,,,,,,,,,,,,,,,,,,,,,,,,,,,,,,,,,,,,,,,,,,,,,,,,,,,,,,,,,,,,,,,,,,,,,,,,,,,,,,,,,,,,,,,,,,,,,,,,,,,,,,,,,,,,,,,,,,,,,,,,,,,,,
,,,,,,60b29948c3753b3707dffe90,62c5384d34d8ca7f2ad01cdd,2022-07-06_09h23.41.366,Colour_Asymmetry_Pilot,2022.1.3,Win32,59.97361161,62c50e9c1127f2cd403a315f,0,16,16,123,1,twofour,,,,,,,,,,,,,,,,,,,,,,,,,,,,,,,,,,,,,,,,,,,,,,,,,,,,,,,,,,,,,,,,,,,,,,,,,,,,,,,,,,,,,,,,,,,,,,,,,,,,,,,,,,,,,,,,,,,,,,,,,,,,,,,,,,,,,,,,,,,,,,,,,,,,,,,,,,,,,
,,,,,,60b29948c3753b3707dffe90,62c5384d34d8ca7f2ad01cdd,2022-07-06_09h23.41.366,Colour_Asymmetry_Pilot,2022.1.3,Win32,59.97361161,62c50e9c1127f2cd403a315f,0,17,17,52,1,threeone,,,,,,,,,,,,,,,,,,,,,,,,,,,,,,,,,,,,,,,,,,,,,,,,,,,,,,,,,,,,,,,,,,,,,,,,,,,,,,,,,,,,,,,,,,,,,,,,,,,,,,,,,,,,,,,,,,,,,,,,,,,,,,,,,,,,,,,,,,,,,,,,,,,,,,,,,,,,,
,,,,,,60b29948c3753b3707dffe90,62c5384d34d8ca7f2ad01cdd,2022-07-06_09h23.41.366,Colour_Asymmetry_Pilot,2022.1.3,Win32,59.97361161,62c50e9c1127f2cd403a315f,0,18,18,18,1,twoone,,,,,,,,,,,,,,,,,,,,,,,,,,,,,,,,,,,,,,,,,,,,,,,,,,,,,,,,,,,,,,,,,,,,,,,,,,,,,,,,,,,,,,,,,,,,,,,,,,,,,,,,,,,,,,,,,,,,,,,,,,,,,,,,,,,,,,,,,,,,,,,,,,,,,,,,,,,,,
,,,,,,60b29948c3753b3707dffe90,62c5384d34d8ca7f2ad01cdd,2022-07-06_09h23.41.366,Colour_Asymmetry_Pilot,2022.1.3,Win32,59.97361161,62c50e9c1127f2cd403a315f,0,19,19,132,1,threeone,,,,,,,,,,,,,,,,,,,,,,,,,,,,,,,,,,,,,,,,,,,,,,,,,,,,,,,,,,,,,,,,,,,,,,,,,,,,,,,,,,,,,,,,,,,,,,,,,,,,,,,,,,,,,,,,,,,,,,,,,,,,,,,,,,,,,,,,,,,,,,,,,,,,,,,,,,,,,
,,,,,,60b29948c3753b3707dffe90,62c5384d34d8ca7f2ad01cdd,2022-07-06_09h23.41.366,Colour_Asymmetry_Pilot,2022.1.3,Win32,59.97361161,62c50e9c1127f2cd403a315f,0,20,20,45,1,threefour,,,,,,,,,,,,,,,,,,,,,,,,,,,,,,,,,,,,,,,,,,,,,,,,,,,,,,,,,,,,,,,,,,,,,,,,,,,,,,,,,,,,,,,,,,,,,,,,,,,,,,,,,,,,,,,,,,,,,,,,,,,,,,,,,,,,,,,,,,,,,,,,,,,,,,,,,,,,,
,,,,,,60b29948c3753b3707dffe90,62c5384d34d8ca7f2ad01cdd,2022-07-06_09h23.41.366,Colour_Asymmetry_Pilot,2022.1.3,Win32,59.97361161,62c50e9c1127f2cd403a315f,0,21,21,138,1,twoone,,,,,,,,,,,,,,,,,,,,,,,,,,,,,,,,,,,,,,,,,,,,,,,,,,,,,,,,,,,,,,,,,,,,,,,,,,,,,,,,,,,,,,,,,,,,,,,,,,,,,,,,,,,,,,,,,,,,,,,,,,,,,,,,,,,,,,,,,,,,,,,,,,,,,,,,,,,,,
,,,,,,60b29948c3753b3707dffe90,62c5384d34d8ca7f2ad01cdd,2022-07-06_09h23.41.366,Colour_Asymmetry_Pilot,2022.1.3,Win32,59.97361161,62c50e9c1127f2cd403a315f,0,22,22,79,1,fourthree,,,,,,,,,,,,,,,,,,,,,,,,,,,,,,,,,,,,,,,,,,,,,,,,,,,,,,,,,,,,,,,,,,,,,,,,,,,,,,,,,,,,,,,,,,,,,,,,,,,,,,,,,,,,,,,,,,,,,,,,,,,,,,,,,,,,,,,,,,,,,,,,,,,,,,,,,,,,,
,,,,,,60b29948c3753b3707dffe90,62c5384d34d8ca7f2ad01cdd,2022-07-06_09h23.41.366,Colour_Asymmetry_Pilot,2022.1.3,Win32,59.97361161,62c50e9c1127f2cd403a315f,0,23,23,2,1,twoone,,,,,,,,,,,,,,,,,,,,,,,,,,,,,,,,,,,,,,,,,,,,,,,,,,,,,,,,,,,,,,,,,,,,,,,,,,,,,,,,,,,,,,,,,,,,,,,,,,,,,,,,,,,,,,,,,,,,,,,,,,,,,,,,,,,,,,,,,,,,,,,,,,,,,,,,,,,,,
,,,,,,60b29948c3753b3707dffe90,62c5384d34d8ca7f2ad01cdd,2022-07-06_09h23.41.366,Colour_Asymmetry_Pilot,2022.1.3,Win32,59.97361161,62c50e9c1127f2cd403a315f,0,24,24,127,1,fourthree,,,,,,,,,,,,,,,,,,,,,,,,,,,,,,,,,,,,,,,,,,,,,,,,,,,,,,,,,,,,,,,,,,,,,,,,,,,,,,,,,,,,,,,,,,,,,,,,,,,,,,,,,,,,,,,,,,,,,,,,,,,,,,,,,,,,,,,,,,,,,,,,,,,,,,,,,,,,,
,,,,,,60b29948c3753b3707dffe90,62c5384d34d8ca7f2ad01cdd,2022-07-06_09h23.41.366,Colour_Asymmetry_Pilot,2022.1.3,Win32,59.97361161,62c50e9c1127f2cd403a315f,0,25,25,145,1,onethree,,,,,,,,,,,,,,,,,,,,,,,,,,,,,,,,,,,,,,,,,,,,,,,,,,,,,,,,,,,,,,,,,,,,,,,,,,,,,,,,,,,,,,,,,,,,,,,,,,,,,,,,,,,,,,,,,,,,,,,,,,,,,,,,,,,,,,,,,,,,,,,,,,,,,,,,,,,,,
,,,,,,60b29948c3753b3707dffe90,62c5384d34d8ca7f2ad01cdd,2022-07-06_09h23.41.366,Colour_Asymmetry_Pilot,2022.1.3,Win32,59.97361161,62c50e9c1127f2cd403a315f,0,26,26,64,1,onetwo,,,,,,,,,,,,,,,,,,,,,,,,,,,,,,,,,,,,,,,,,,,,,,,,,,,,,,,,,,,,,,,,,,,,,,,,,,,,,,,,,,,,,,,,,,,,,,,,,,,,,,,,,,,,,,,,,,,,,,,,,,,,,,,,,,,,,,,,,,,,,,,,,,,,,,,,,,,,,
,,,,,,60b29948c3753b3707dffe90,62c5384d34d8ca7f2ad01cdd,2022-07-06_09h23.41.366,Colour_Asymmetry_Pilot,2022.1.3,Win32,59.97361161,62c50e9c1127f2cd403a315f,0,27,27,94,1,fourtwo,,,,,,,,,,,,,,,,,,,,,,,,,,,,,,,,,,,,,,,,,,,,,,,,,,,,,,,,,,,,,,,,,,,,,,,,,,,,,,,,,,,,,,,,,,,,,,,,,,,,,,,,,,,,,,,,,,,,,,,,,,,,,,,,,,,,,,,,,,,,,,,,,,,,,,,,,,,,,
,,,,,,60b29948c3753b3707dffe90,62c5384d34d8ca7f2ad01cdd,2022-07-06_09h23.41.366,Colour_Asymmetry_Pilot,2022.1.3,Win32,59.97361161,62c50e9c1127f2cd403a315f,0,28,28,105,1,onethree,,,,,,,,,,,,,,,,,,,,,,,,,,,,,,,,,,,,,,,,,,,,,,,,,,,,,,,,,,,,,,,,,,,,,,,,,,,,,,,,,,,,,,,,,,,,,,,,,,,,,,,,,,,,,,,,,,,,,,,,,,,,,,,,,,,,,,,,,,,,,,,,,,,,,,,,,,,,,
,,,,,,60b29948c3753b3707dffe90,62c5384d34d8ca7f2ad01cdd,2022-07-06_09h23.41.366,Colour_Asymmetry_Pilot,2022.1.3,Win32,59.97361161,62c50e9c1127f2cd403a315f,0,29,29,6,1,fourtwo,,,,,,,,,,,,,,,,,,,,,,,,,,,,,,,,,,,,,,,,,,,,,,,,,,,,,,,,,,,,,,,,,,,,,,,,,,,,,,,,,,,,,,,,,,,,,,,,,,,,,,,,,,,,,,,,,,,,,,,,,,,,,,,,,,,,,,,,,,,,,,,,,,,,,,,,,,,,,
,,,,,,60b29948c3753b3707dffe90,62c5384d34d8ca7f2ad01cdd,2022-07-06_09h23.41.366,Colour_Asymmetry_Pilot,2022.1.3,Win32,59.97361161,62c50e9c1127f2cd403a315f,0,30,30,155,1,twofour,,,,,,,,,,,,,,,,,,,,,,,,,,,,,,,,,,,,,,,,,,,,,,,,,,,,,,,,,,,,,,,,,,,,,,,,,,,,,,,,,,,,,,,,,,,,,,,,,,,,,,,,,,,,,,,,,,,,,,,,,,,,,,,,,,,,,,,,,,,,,,,,,,,,,,,,,,,,,
,,,,,,60b29948c3753b3707dffe90,62c5384d34d8ca7f2ad01cdd,2022-07-06_09h23.41.366,Colour_Asymmetry_Pilot,2022.1.3,Win32,59.97361161,62c50e9c1127f2cd403a315f,0,31,31,30,1,fourtwo,,,,,,,,,,,,,,,,,,,,,,,,,,,,,,,,,,,,,,,,,,,,,,,,,,,,,,,,,,,,,,,,,,,,,,,,,,,,,,,,,,,,,,,,,,,,,,,,,,,,,,,,,,,,,,,,,,,,,,,,,,,,,,,,,,,,,,,,,,,,,,,,,,,,,,,,,,,,,
,,,,,,60b29948c3753b3707dffe90,62c5384d34d8ca7f2ad01cdd,2022-07-06_09h23.41.366,Colour_Asymmetry_Pilot,2022.1.3,Win32,59.97361161,62c50e9c1127f2cd403a315f,0,32,32,129,1,onethree,,,,,,,,,,,,,,,,,,,,,,,,,,,,,,,,,,,,,,,,,,,,,,,,,,,,,,,,,,,,,,,,,,,,,,,,,,,,,,,,,,,,,,,,,,,,,,,,,,,,,,,,,,,,,,,,,,,,,,,,,,,,,,,,,,,,,,,,,,,,,,,,,,,,,,,,,,,,,
,,,,,,60b29948c3753b3707dffe90,62c5384d34d8ca7f2ad01cdd,2022-07-06_09h23.41.366,Colour_Asymmetry_Pilot,2022.1.3,Win32,59.97361161,62c50e9c1127f2cd403a315f,0,33,33,92,1,threeone,,,,,,,,,,,,,,,,,,,,,,,,,,,,,,,,,,,,,,,,,,,,,,,,,,,,,,,,,,,,,,,,,,,,,,,,,,,,,,,,,,,,,,,,,,,,,,,,,,,,,,,,,,,,,,,,,,,,,,,,,,,,,,,,,,,,,,,,,,,,,,,,,,,,,,,,,,,,,
,,,,,,60b29948c3753b3707dffe90,62c5384d34d8ca7f2ad01cdd,2022-07-06_09h23.41.366,Colour_Asymmetry_Pilot,2022.1.3,Win32,59.97361161,62c50e9c1127f2cd403a315f,0,34,34,161,1,onethree,,,,,,,,,,,,,,,,,,,,,,,,,,,,,,,,,,,,,,,,,,,,,,,,,,,,,,,,,,,,,,,,,,,,,,,,,,,,,,,,,,,,,,,,,,,,,,,,,,,,,,,,,,,,,,,,,,,,,,,,,,,,,,,,,,,,,,,,,,,,,,,,,,,,,,,,,,,,,
,,,,,,60b29948c3753b3707dffe90,62c5384d34d8ca7f2ad01cdd,2022-07-06_09h23.41.366,Colour_Asymmetry_Pilot,2022.1.3,Win32,59.97361161,62c50e9c1127f2cd403a315f,0,35,35,23,1,fourthree,,,,,,,,,,,,,,,,,,,,,,,,,,,,,,,,,,,,,,,,,,,,,,,,,,,,,,,,,,,,,,,,,,,,,,,,,,,,,,,,,,,,,,,,,,,,,,,,,,,,,,,,,,,,,,,,,,,,,,,,,,,,,,,,,,,,,,,,,,,,,,,,,,,,,,,,,,,,,
,,,,,,60b29948c3753b3707dffe90,62c5384d34d8ca7f2ad01cdd,2022-07-06_09h23.41.366,Colour_Asymmetry_Pilot,2022.1.3,Win32,59.97361161,62c50e9c1127f2cd403a315f,0,36,36,16,1,onetwo,,,,,,,,,,,,,,,,,,,,,,,,,,,,,,,,,,,,,,,,,,,,,,,,,,,,,,,,,,,,,,,,,,,,,,,,,,,,,,,,,,,,,,,,,,,,,,,,,,,,,,,,,,,,,,,,,,,,,,,,,,,,,,,,,,,,,,,,,,,,,,,,,,,,,,,,,,,,,
,,,,,,60b29948c3753b3707dffe90,62c5384d34d8ca7f2ad01cdd,2022-07-06_09h23.41.366,Colour_Asymmetry_Pilot,2022.1.3,Win32,59.97361161,62c50e9c1127f2cd403a315f,0,37,37,125,1,threefour,,,,,,,,,,,,,,,,,,,,,,,,,,,,,,,,,,,,,,,,,,,,,,,,,,,,,,,,,,,,,,,,,,,,,,,,,,,,,,,,,,,,,,,,,,,,,,,,,,,,,,,,,,,,,,,,,,,,,,,,,,,,,,,,,,,,,,,,,,,,,,,,,,,,,,,,,,,,,
,,,,,,60b29948c3753b3707dffe90,62c5384d34d8ca7f2ad01cdd,2022-07-06_09h23.41.366,Colour_Asymmetry_Pilot,2022.1.3,Win32,59.97361161,62c50e9c1127f2cd403a315f,0,38,38,41,1,onethree,,,,,,,,,,,,,,,,,,,,,,,,,,,,,,,,,,,,,,,,,,,,,,,,,,,,,,,,,,,,,,,,,,,,,,,,,,,,,,,,,,,,,,,,,,,,,,,,,,,,,,,,,,,,,,,,,,,,,,,,,,,,,,,,,,,,,,,,,,,,,,,,,,,,,,,,,,,,,
,,,,,,60b29948c3753b3707dffe90,62c5384d34d8ca7f2ad01cdd,2022-07-06_09h23.41.366,Colour_Asymmetry_Pilot,2022.1.3,Win32,59.97361161,62c50e9c1127f2cd403a315f,0,39,39,109,1,threefour,,,,,,,,,,,,,,,,,,,,,,,,,,,,,,,,,,,,,,,,,,,,,,,,,,,,,,,,,,,,,,,,,,,,,,,,,,,,,,,,,,,,,,,,,,,,,,,,,,,,,,,,,,,,,,,,,,,,,,,,,,,,,,,,,,,,,,,,,,,,,,,,,,,,,,,,,,,,,
,,,,,,60b29948c3753b3707dffe90,62c5384d34d8ca7f2ad01cdd,2022-07-06_09h23.41.366,Colour_Asymmetry_Pilot,2022.1.3,Win32,59.97361161,62c50e9c1127f2cd403a315f,0,40,40,73,1,onethree,,,,,,,,,,,,,,,,,,,,,,,,,,,,,,,,,,,,,,,,,,,,,,,,,,,,,,,,,,,,,,,,,,,,,,,,,,,,,,,,,,,,,,,,,,,,,,,,,,,,,,,,,,,,,,,,,,,,,,,,,,,,,,,,,,,,,,,,,,,,,,,,,,,,,,,,,,,,,
,,,,,,60b29948c3753b3707dffe90,62c5384d34d8ca7f2ad01cdd,2022-07-06_09h23.41.366,Colour_Asymmetry_Pilot,2022.1.3,Win32,59.97361161,62c50e9c1127f2cd403a315f,0,41,41,142,1,fourtwo,,,,,,,,,,,,,,,,,,,,,,,,,,,,,,,,,,,,,,,,,,,,,,,,,,,,,,,,,,,,,,,,,,,,,,,,,,,,,,,,,,,,,,,,,,,,,,,,,,,,,,,,,,,,,,,,,,,,,,,,,,,,,,,,,,,,,,,,,,,,,,,,,,,,,,,,,,,,,
,,,,,,60b29948c3753b3707dffe90,62c5384d34d8ca7f2ad01cdd,2022-07-06_09h23.41.366,Colour_Asymmetry_Pilot,2022.1.3,Win32,59.97361161,62c50e9c1127f2cd403a315f,0,42,42,151,1,fourthree,,,,,,,,,,,,,,,,,,,,,,,,,,,,,,,,,,,,,,,,,,,,,,,,,,,,,,,,,,,,,,,,,,,,,,,,,,,,,,,,,,,,,,,,,,,,,,,,,,,,,,,,,,,,,,,,,,,,,,,,,,,,,,,,,,,,,,,,,,,,,,,,,,,,,,,,,,,,,
,,,,,,60b29948c3753b3707dffe90,62c5384d34d8ca7f2ad01cdd,2022-07-06_09h23.41.366,Colour_Asymmetry_Pilot,2022.1.3,Win32,59.97361161,62c50e9c1127f2cd403a315f,0,43,43,43,1,twofour,,,,,,,,,,,,,,,,,,,,,,,,,,,,,,,,,,,,,,,,,,,,,,,,,,,,,,,,,,,,,,,,,,,,,,,,,,,,,,,,,,,,,,,,,,,,,,,,,,,,,,,,,,,,,,,,,,,,,,,,,,,,,,,,,,,,,,,,,,,,,,,,,,,,,,,,,,,,,
,,,,,,60b29948c3753b3707dffe90,62c5384d34d8ca7f2ad01cdd,2022-07-06_09h23.41.366,Colour_Asymmetry_Pilot,2022.1.3,Win32,59.97361161,62c50e9c1127f2cd403a315f,0,44,44,88,1,onetwo,,,,,,,,,,,,,,,,,,,,,,,,,,,,,,,,,,,,,,,,,,,,,,,,,,,,,,,,,,,,,,,,,,,,,,,,,,,,,,,,,,,,,,,,,,,,,,,,,,,,,,,,,,,,,,,,,,,,,,,,,,,,,,,,,,,,,,,,,,,,,,,,,,,,,,,,,,,,,
,,,,,,60b29948c3753b3707dffe90,62c5384d34d8ca7f2ad01cdd,2022-07-06_09h23.41.366,Colour_Asymmetry_Pilot,2022.1.3,Win32,59.97361161,62c50e9c1127f2cd403a315f,0,45,45,74,1,twoone,,,,,,,,,,,,,,,,,,,,,,,,,,,,,,,,,,,,,,,,,,,,,,,,,,,,,,,,,,,,,,,,,,,,,,,,,,,,,,,,,,,,,,,,,,,,,,,,,,,,,,,,,,,,,,,,,,,,,,,,,,,,,,,,,,,,,,,,,,,,,,,,,,,,,,,,,,,,,
,,,,,,60b29948c3753b3707dffe90,62c5384d34d8ca7f2ad01cdd,2022-07-06_09h23.41.366,Colour_Asymmetry_Pilot,2022.1.3,Win32,59.97361161,62c50e9c1127f2cd403a315f,0,46,46,116,1,threeone,,,,,,,,,,,,,,,,,,,,,,,,,,,,,,,,,,,,,,,,,,,,,,,,,,,,,,,,,,,,,,,,,,,,,,,,,,,,,,,,,,,,,,,,,,,,,,,,,,,,,,,,,,,,,,,,,,,,,,,,,,,,,,,,,,,,,,,,,,,,,,,,,,,,,,,,,,,,,
,,,,,,60b29948c3753b3707dffe90,62c5384d34d8ca7f2ad01cdd,2022-07-06_09h23.41.366,Colour_Asymmetry_Pilot,2022.1.3,Win32,59.97361161,62c50e9c1127f2cd403a315f,0,47,47,48,1,onetwo,,,,,,,,,,,,,,,,,,,,,,,,,,,,,,,,,,,,,,,,,,,,,,,,,,,,,,,,,,,,,,,,,,,,,,,,,,,,,,,,,,,,,,,,,,,,,,,,,,,,,,,,,,,,,,,,,,,,,,,,,,,,,,,,,,,,,,,,,,,,,,,,,,,,,,,,,,,,,
,,,,,,60b29948c3753b3707dffe90,62c5384d34d8ca7f2ad01cdd,2022-07-06_09h23.41.366,Colour_Asymmetry_Pilot,2022.1.3,Win32,59.97361161,62c50e9c1127f2cd403a315f,0,48,48,93,1,threefour,,,,,,,,,,,,,,,,,,,,,,,,,,,,,,,,,,,,,,,,,,,,,,,,,,,,,,,,,,,,,,,,,,,,,,,,,,,,,,,,,,,,,,,,,,,,,,,,,,,,,,,,,,,,,,,,,,,,,,,,,,,,,,,,,,,,,,,,,,,,,,,,,,,,,,,,,,,,,
,,,,,,60b29948c3753b3707dffe90,62c5384d34d8ca7f2ad01cdd,2022-07-06_09h23.41.366,Colour_Asymmetry_Pilot,2022.1.3,Win32,59.97361161,62c50e9c1127f2cd403a315f,0,49,49,136,1,onetwo,,,,,,,,,,,,,,,,,,,,,,,,,,,,,,,,,,,,,,,,,,,,,,,,,,,,,,,,,,,,,,,,,,,,,,,,,,,,,,,,,,,,,,,,,,,,,,,,,,,,,,,,,,,,,,,,,,,,,,,,,,,,,,,,,,,,,,,,,,,,,,,,,,,,,,,,,,,,,
,,,,,,60b29948c3753b3707dffe90,62c5384d34d8ca7f2ad01cdd,2022-07-06_09h23.41.366,Colour_Asymmetry_Pilot,2022.1.3,Win32,59.97361161,62c50e9c1127f2cd403a315f,0,50,50,67,1,twofour,,,,,,,,,,,,,,,,,,,,,,,,,,,,,,,,,,,,,,,,,,,,,,,,,,,,,,,,,,,,,,,,,,,,,,,,,,,,,,,,,,,,,,,,,,,,,,,,,,,,,,,,,,,,,,,,,,,,,,,,,,,,,,,,,,,,,,,,,,,,,,,,,,,,,,,,,,,,,
,,,,,,60b29948c3753b3707dffe90,62c5384d34d8ca7f2ad01cdd,2022-07-06_09h23.41.366,Colour_Asymmetry_Pilot,2022.1.3,Win32,59.97361161,62c50e9c1127f2cd403a315f,0,51,51,89,1,onethree,,,,,,,,,,,,,,,,,,,,,,,,,,,,,,,,,,,,,,,,,,,,,,,,,,,,,,,,,,,,,,,,,,,,,,,,,,,,,,,,,,,,,,,,,,,,,,,,,,,,,,,,,,,,,,,,,,,,,,,,,,,,,,,,,,,,,,,,,,,,,,,,,,,,,,,,,,,,,
,,,,,,60b29948c3753b3707dffe90,62c5384d34d8ca7f2ad01cdd,2022-07-06_09h23.41.366,Colour_Asymmetry_Pilot,2022.1.3,Win32,59.97361161,62c50e9c1127f2cd403a315f,0,52,52,25,1,onethree,,,,,,,,,,,,,,,,,,,,,,,,,,,,,,,,,,,,,,,,,,,,,,,,,,,,,,,,,,,,,,,,,,,,,,,,,,,,,,,,,,,,,,,,,,,,,,,,,,,,,,,,,,,,,,,,,,,,,,,,,,,,,,,,,,,,,,,,,,,,,,,,,,,,,,,,,,,,,
,,,,,,60b29948c3753b3707dffe90,62c5384d34d8ca7f2ad01cdd,2022-07-06_09h23.41.366,Colour_Asymmetry_Pilot,2022.1.3,Win32,59.97361161,62c50e9c1127f2cd403a315f,0,53,53,57,1,onethree,,,,,,,,,,,,,,,,,,,,,,,,,,,,,,,,,,,,,,,,,,,,,,,,,,,,,,,,,,,,,,,,,,,,,,,,,,,,,,,,,,,,,,,,,,,,,,,,,,,,,,,,,,,,,,,,,,,,,,,,,,,,,,,,,,,,,,,,,,,,,,,,,,,,,,,,,,,,,
,,,,,,60b29948c3753b3707dffe90,62c5384d34d8ca7f2ad01cdd,2022-07-06_09h23.41.366,Colour_Asymmetry_Pilot,2022.1.3,Win32,59.97361161,62c50e9c1127f2cd403a315f,0,54,54,1,1,onethree,,,,,,,,,,,,,,,,,,,,,,,,,,,,,,,,,,,,,,,,,,,,,,,,,,,,,,,,,,,,,,,,,,,,,,,,,,,,,,,,,,,,,,,,,,,,,,,,,,,,,,,,,,,,,,,,,,,,,,,,,,,,,,,,,,,,,,,,,,,,,,,,,,,,,,,,,,,,,
,,,,,,60b29948c3753b3707dffe90,62c5384d34d8ca7f2ad01cdd,2022-07-06_09h23.41.366,Colour_Asymmetry_Pilot,2022.1.3,Win32,59.97361161,62c50e9c1127f2cd403a315f,0,55,55,77,1,threefour,,,,,,,,,,,,,,,,,,,,,,,,,,,,,,,,,,,,,,,,,,,,,,,,,,,,,,,,,,,,,,,,,,,,,,,,,,,,,,,,,,,,,,,,,,,,,,,,,,,,,,,,,,,,,,,,,,,,,,,,,,,,,,,,,,,,,,,,,,,,,,,,,,,,,,,,,,,,,
,,,,,,60b29948c3753b3707dffe90,62c5384d34d8ca7f2ad01cdd,2022-07-06_09h23.41.366,Colour_Asymmetry_Pilot,2022.1.3,Win32,59.97361161,62c50e9c1127f2cd403a315f,0,56,56,54,1,fourtwo,,,,,,,,,,,,,,,,,,,,,,,,,,,,,,,,,,,,,,,,,,,,,,,,,,,,,,,,,,,,,,,,,,,,,,,,,,,,,,,,,,,,,,,,,,,,,,,,,,,,,,,,,,,,,,,,,,,,,,,,,,,,,,,,,,,,,,,,,,,,,,,,,,,,,,,,,,,,,
,,,,,,60b29948c3753b3707dffe90,62c5384d34d8ca7f2ad01cdd,2022-07-06_09h23.41.366,Colour_Asymmetry_Pilot,2022.1.3,Win32,59.97361161,62c50e9c1127f2cd403a315f,0,57,57,100,1,threeone,,,,,,,,,,,,,,,,,,,,,,,,,,,,,,,,,,,,,,,,,,,,,,,,,,,,,,,,,,,,,,,,,,,,,,,,,,,,,,,,,,,,,,,,,,,,,,,,,,,,,,,,,,,,,,,,,,,,,,,,,,,,,,,,,,,,,,,,,,,,,,,,,,,,,,,,,,,,,
,,,,,,60b29948c3753b3707dffe90,62c5384d34d8ca7f2ad01cdd,2022-07-06_09h23.41.366,Colour_Asymmetry_Pilot,2022.1.3,Win32,59.97361161,62c50e9c1127f2cd403a315f,0,58,58,11,1,twofour,,,,,,,,,,,,,,,,,,,,,,,,,,,,,,,,,,,,,,,,,,,,,,,,,,,,,,,,,,,,,,,,,,,,,,,,,,,,,,,,,,,,,,,,,,,,,,,,,,,,,,,,,,,,,,,,,,,,,,,,,,,,,,,,,,,,,,,,,,,,,,,,,,,,,,,,,,,,,
,,,,,,60b29948c3753b3707dffe90,62c5384d34d8ca7f2ad01cdd,2022-07-06_09h23.41.366,Colour_Asymmetry_Pilot,2022.1.3,Win32,59.97361161,62c50e9c1127f2cd403a315f,0,59,59,13,1,threefour,,,,,,,,,,,,,,,,,,,,,,,,,,,,,,,,,,,,,,,,,,,,,,,,,,,,,,,,,,,,,,,,,,,,,,,,,,,,,,,,,,,,,,,,,,,,,,,,,,,,,,,,,,,,,,,,,,,,,,,,,,,,,,,,,,,,,,,,,,,,,,,,,,,,,,,,,,,,,
,,,,,,60b29948c3753b3707dffe90,62c5384d34d8ca7f2ad01cdd,2022-07-06_09h23.41.366,Colour_Asymmetry_Pilot,2022.1.3,Win32,59.97361161,62c50e9c1127f2cd403a315f,0,60,60,128,1,onetwo,,,,,,,,,,,,,,,,,,,,,,,,,,,,,,,,,,,,,,,,,,,,,,,,,,,,,,,,,,,,,,,,,,,,,,,,,,,,,,,,,,,,,,,,,,,,,,,,,,,,,,,,,,,,,,,,,,,,,,,,,,,,,,,,,,,,,,,,,,,,,,,,,,,,,,,,,,,,,
,,,,,,60b29948c3753b3707dffe90,62c5384d34d8ca7f2ad01cdd,2022-07-06_09h23.41.366,Colour_Asymmetry_Pilot,2022.1.3,Win32,59.97361161,62c50e9c1127f2cd403a315f,0,61,61,146,1,twoone,,,,,,,,,,,,,,,,,,,,,,,,,,,,,,,,,,,,,,,,,,,,,,,,,,,,,,,,,,,,,,,,,,,,,,,,,,,,,,,,,,,,,,,,,,,,,,,,,,,,,,,,,,,,,,,,,,,,,,,,,,,,,,,,,,,,,,,,,,,,,,,,,,,,,,,,,,,,,
,,,,,,60b29948c3753b3707dffe90,62c5384d34d8ca7f2ad01cdd,2022-07-06_09h23.41.366,Colour_Asymmetry_Pilot,2022.1.3,Win32,59.97361161,62c50e9c1127f2cd403a315f,0,62,62,32,1,onetwo,,,,,,,,,,,,,,,,,,,,,,,,,,,,,,,,,,,,,,,,,,,,,,,,,,,,,,,,,,,,,,,,,,,,,,,,,,,,,,,,,,,,,,,,,,,,,,,,,,,,,,,,,,,,,,,,,,,,,,,,,,,,,,,,,,,,,,,,,,,,,,,,,,,,,,,,,,,,,
,,,,,,60b29948c3753b3707dffe90,62c5384d34d8ca7f2ad01cdd,2022-07-06_09h23.41.366,Colour_Asymmetry_Pilot,2022.1.3,Win32,59.97361161,62c50e9c1127f2cd403a315f,0,63,63,154,1,twoone,,,,,,,,,,,,,,,,,,,,,,,,,,,,,,,,,,,,,,,,,,,,,,,,,,,,,,,,,,,,,,,,,,,,,,,,,,,,,,,,,,,,,,,,,,,,,,,,,,,,,,,,,,,,,,,,,,,,,,,,,,,,,,,,,,,,,,,,,,,,,,,,,,,,,,,,,,,,,
,,,,,,60b29948c3753b3707dffe90,62c5384d34d8ca7f2ad01cdd,2022-07-06_09h23.41.366,Colour_Asymmetry_Pilot,2022.1.3,Win32,59.97361161,62c50e9c1127f2cd403a315f,0,64,64,153,1,onethree,,,,,,,,,,,,,,,,,,,,,,,,,,,,,,,,,,,,,,,,,,,,,,,,,,,,,,,,,,,,,,,,,,,,,,,,,,,,,,,,,,,,,,,,,,,,,,,,,,,,,,,,,,,,,,,,,,,,,,,,,,,,,,,,,,,,,,,,,,,,,,,,,,,,,,,,,,,,,
,,,,,,60b29948c3753b3707dffe90,62c5384d34d8ca7f2ad01cdd,2022-07-06_09h23.41.366,Colour_Asymmetry_Pilot,2022.1.3,Win32,59.97361161,62c50e9c1127f2cd403a315f,0,65,65,61,1,threefour,,,,,,,,,,,,,,,,,,,,,,,,,,,,,,,,,,,,,,,,,,,,,,,,,,,,,,,,,,,,,,,,,,,,,,,,,,,,,,,,,,,,,,,,,,,,,,,,,,,,,,,,,,,,,,,,,,,,,,,,,,,,,,,,,,,,,,,,,,,,,,,,,,,,,,,,,,,,,
,,,,,,60b29948c3753b3707dffe90,62c5384d34d8ca7f2ad01cdd,2022-07-06_09h23.41.366,Colour_Asymmetry_Pilot,2022.1.3,Win32,59.97361161,62c50e9c1127f2cd403a315f,0,66,66,84,1,threeone,,,,,,,,,,,,,,,,,,,,,,,,,,,,,,,,,,,,,,,,,,,,,,,,,,,,,,,,,,,,,,,,,,,,,,,,,,,,,,,,,,,,,,,,,,,,,,,,,,,,,,,,,,,,,,,,,,,,,,,,,,,,,,,,,,,,,,,,,,,,,,,,,,,,,,,,,,,,,
,,,,,,60b29948c3753b3707dffe90,62c5384d34d8ca7f2ad01cdd,2022-07-06_09h23.41.366,Colour_Asymmetry_Pilot,2022.1.3,Win32,59.97361161,62c50e9c1127f2cd403a315f,0,67,67,59,1,twofour,,,,,,,,,,,,,,,,,,,,,,,,,,,,,,,,,,,,,,,,,,,,,,,,,,,,,,,,,,,,,,,,,,,,,,,,,,,,,,,,,,,,,,,,,,,,,,,,,,,,,,,,,,,,,,,,,,,,,,,,,,,,,,,,,,,,,,,,,,,,,,,,,,,,,,,,,,,,,
,,,,,,60b29948c3753b3707dffe90,62c5384d34d8ca7f2ad01cdd,2022-07-06_09h23.41.366,Colour_Asymmetry_Pilot,2022.1.3,Win32,59.97361161,62c50e9c1127f2cd403a315f,0,68,68,117,1,threefour,,,,,,,,,,,,,,,,,,,,,,,,,,,,,,,,,,,,,,,,,,,,,,,,,,,,,,,,,,,,,,,,,,,,,,,,,,,,,,,,,,,,,,,,,,,,,,,,,,,,,,,,,,,,,,,,,,,,,,,,,,,,,,,,,,,,,,,,,,,,,,,,,,,,,,,,,,,,,
,,,,,,60b29948c3753b3707dffe90,62c5384d34d8ca7f2ad01cdd,2022-07-06_09h23.41.366,Colour_Asymmetry_Pilot,2022.1.3,Win32,59.97361161,62c50e9c1127f2cd403a315f,0,69,69,4,1,threeone,,,,,,,,,,,,,,,,,,,,,,,,,,,,,,,,,,,,,,,,,,,,,,,,,,,,,,,,,,,,,,,,,,,,,,,,,,,,,,,,,,,,,,,,,,,,,,,,,,,,,,,,,,,,,,,,,,,,,,,,,,,,,,,,,,,,,,,,,,,,,,,,,,,,,,,,,,,,,
,,,,,,60b29948c3753b3707dffe90,62c5384d34d8ca7f2ad01cdd,2022-07-06_09h23.41.366,Colour_Asymmetry_Pilot,2022.1.3,Win32,59.97361161,62c50e9c1127f2cd403a315f,0,70,70,139,1,twofour,,,,,,,,,,,,,,,,,,,,,,,,,,,,,,,,,,,,,,,,,,,,,,,,,,,,,,,,,,,,,,,,,,,,,,,,,,,,,,,,,,,,,,,,,,,,,,,,,,,,,,,,,,,,,,,,,,,,,,,,,,,,,,,,,,,,,,,,,,,,,,,,,,,,,,,,,,,,,
,,,,,,60b29948c3753b3707dffe90,62c5384d34d8ca7f2ad01cdd,2022-07-06_09h23.41.366,Colour_Asymmetry_Pilot,2022.1.3,Win32,59.97361161,62c50e9c1127f2cd403a315f,0,71,71,148,1,threeone,,,,,,,,,,,,,,,,,,,,,,,,,,,,,,,,,,,,,,,,,,,,,,,,,,,,,,,,,,,,,,,,,,,,,,,,,,,,,,,,,,,,,,,,,,,,,,,,,,,,,,,,,,,,,,,,,,,,,,,,,,,,,,,,,,,,,,,,,,,,,,,,,,,,,,,,,,,,,
,,,,,,60b29948c3753b3707dffe90,62c5384d34d8ca7f2ad01cdd,2022-07-06_09h23.41.366,Colour_Asymmetry_Pilot,2022.1.3,Win32,59.97361161,62c50e9c1127f2cd403a315f,0,72,72,71,1,fourthree,,,,,,,,,,,,,,,,,,,,,,,,,,,,,,,,,,,,,,,,,,,,,,,,,,,,,,,,,,,,,,,,,,,,,,,,,,,,,,,,,,,,,,,,,,,,,,,,,,,,,,,,,,,,,,,,,,,,,,,,,,,,,,,,,,,,,,,,,,,,,,,,,,,,,,,,,,,,,
,,,,,,60b29948c3753b3707dffe90,62c5384d34d8ca7f2ad01cdd,2022-07-06_09h23.41.366,Colour_Asymmetry_Pilot,2022.1.3,Win32,59.97361161,62c50e9c1127f2cd403a315f,0,73,73,102,1,fourtwo,,,,,,,,,,,,,,,,,,,,,,,,,,,,,,,,,,,,,,,,,,,,,,,,,,,,,,,,,,,,,,,,,,,,,,,,,,,,,,,,,,,,,,,,,,,,,,,,,,,,,,,,,,,,,,,,,,,,,,,,,,,,,,,,,,,,,,,,,,,,,,,,,,,,,,,,,,,,,
,,,,,,60b29948c3753b3707dffe90,62c5384d34d8ca7f2ad01cdd,2022-07-06_09h23.41.366,Colour_Asymmetry_Pilot,2022.1.3,Win32,59.97361161,62c50e9c1127f2cd403a315f,0,74,74,97,1,onethree,,,,,,,,,,,,,,,,,,,,,,,,,,,,,,,,,,,,,,,,,,,,,,,,,,,,,,,,,,,,,,,,,,,,,,,,,,,,,,,,,,,,,,,,,,,,,,,,,,,,,,,,,,,,,,,,,,,,,,,,,,,,,,,,,,,,,,,,,,,,,,,,,,,,,,,,,,,,,
,,,,,,60b29948c3753b3707dffe90,62c5384d34d8ca7f2ad01cdd,2022-07-06_09h23.41.366,Colour_Asymmetry_Pilot,2022.1.3,Win32,59.97361161,62c50e9c1127f2cd403a315f,0,75,75,35,1,twofour,,,,,,,,,,,,,,,,,,,,,,,,,,,,,,,,,,,,,,,,,,,,,,,,,,,,,,,,,,,,,,,,,,,,,,,,,,,,,,,,,,,,,,,,,,,,,,,,,,,,,,,,,,,,,,,,,,,,,,,,,,,,,,,,,,,,,,,,,,,,,,,,,,,,,,,,,,,,,
,,,,,,60b29948c3753b3707dffe90,62c5384d34d8ca7f2ad01cdd,2022-07-06_09h23.41.366,Colour_Asymmetry_Pilot,2022.1.3,Win32,59.97361161,62c50e9c1127f2cd403a315f,0,76,76,149,1,threefour,,,,,,,,,,,,,,,,,,,,,,,,,,,,,,,,,,,,,,,,,,,,,,,,,,,,,,,,,,,,,,,,,,,,,,,,,,,,,,,,,,,,,,,,,,,,,,,,,,,,,,,,,,,,,,,,,,,,,,,,,,,,,,,,,,,,,,,,,,,,,,,,,,,,,,,,,,,,,
,,,,,,60b29948c3753b3707dffe90,62c5384d34d8ca7f2ad01cdd,2022-07-06_09h23.41.366,Colour_Asymmetry_Pilot,2022.1.3,Win32,59.97361161,62c50e9c1127f2cd403a315f,0,77,77,158,1,fourtwo,,,,,,,,,,,,,,,,,,,,,,,,,,,,,,,,,,,,,,,,,,,,,,,,,,,,,,,,,,,,,,,,,,,,,,,,,,,,,,,,,,,,,,,,,,,,,,,,,,,,,,,,,,,,,,,,,,,,,,,,,,,,,,,,,,,,,,,,,,,,,,,,,,,,,,,,,,,,,
,,,,,,60b29948c3753b3707dffe90,62c5384d34d8ca7f2ad01cdd,2022-07-06_09h23.41.366,Colour_Asymmetry_Pilot,2022.1.3,Win32,59.97361161,62c50e9c1127f2cd403a315f,0,78,78,20,1,threeone,,,,,,,,,,,,,,,,,,,,,,,,,,,,,,,,,,,,,,,,,,,,,,,,,,,,,,,,,,,,,,,,,,,,,,,,,,,,,,,,,,,,,,,,,,,,,,,,,,,,,,,,,,,,,,,,,,,,,,,,,,,,,,,,,,,,,,,,,,,,,,,,,,,,,,,,,,,,,
,,,,,,60b29948c3753b3707dffe90,62c5384d34d8ca7f2ad01cdd,2022-07-06_09h23.41.366,Colour_Asymmetry_Pilot,2022.1.3,Win32,59.97361161,62c50e9c1127f2cd403a315f,0,79,79,83,1,twofour,,,,,,,,,,,,,,,,,,,,,,,,,,,,,,,,,,,,,,,,,,,,,,,,,,,,,,,,,,,,,,,,,,,,,,,,,,,,,,,,,,,,,,,,,,,,,,,,,,,,,,,,,,,,,,,,,,,,,,,,,,,,,,,,,,,,,,,,,,,,,,,,,,,,,,,,,,,,,
,,,,,,60b29948c3753b3707dffe90,62c5384d34d8ca7f2ad01cdd,2022-07-06_09h23.41.366,Colour_Asymmetry_Pilot,2022.1.3,Win32,59.97361161,62c50e9c1127f2cd403a315f,0,80,80,107,1,twofour,,,,,,,,,,,,,,,,,,,,,,,,,,,,,,,,,,,,,,,,,,,,,,,,,,,,,,,,,,,,,,,,,,,,,,,,,,,,,,,,,,,,,,,,,,,,,,,,,,,,,,,,,,,,,,,,,,,,,,,,,,,,,,,,,,,,,,,,,,,,,,,,,,,,,,,,,,,,,
,,,,,,60b29948c3753b3707dffe90,62c5384d34d8ca7f2ad01cdd,2022-07-06_09h23.41.366,Colour_Asymmetry_Pilot,2022.1.3,Win32,59.97361161,62c50e9c1127f2cd403a315f,0,81,81,14,1,fourtwo,,,,,,,,,,,,,,,,,,,,,,,,,,,,,,,,,,,,,,,,,,,,,,,,,,,,,,,,,,,,,,,,,,,,,,,,,,,,,,,,,,,,,,,,,,,,,,,,,,,,,,,,,,,,,,,,,,,,,,,,,,,,,,,,,,,,,,,,,,,,,,,,,,,,,,,,,,,,,
,,,,,,60b29948c3753b3707dffe90,62c5384d34d8ca7f2ad01cdd,2022-07-06_09h23.41.366,Colour_Asymmetry_Pilot,2022.1.3,Win32,59.97361161,62c50e9c1127f2cd403a315f,0,82,82,27,1,twofour,,,,,,,,,,,,,,,,,,,,,,,,,,,,,,,,,,,,,,,,,,,,,,,,,,,,,,,,,,,,,,,,,,,,,,,,,,,,,,,,,,,,,,,,,,,,,,,,,,,,,,,,,,,,,,,,,,,,,,,,,,,,,,,,,,,,,,,,,,,,,,,,,,,,,,,,,,,,,
,,,,,,60b29948c3753b3707dffe90,62c5384d34d8ca7f2ad01cdd,2022-07-06_09h23.41.366,Colour_Asymmetry_Pilot,2022.1.3,Win32,59.97361161,62c50e9c1127f2cd403a315f,0,83,83,68,1,threeone,,,,,,,,,,,,,,,,,,,,,,,,,,,,,,,,,,,,,,,,,,,,,,,,,,,,,,,,,,,,,,,,,,,,,,,,,,,,,,,,,,,,,,,,,,,,,,,,,,,,,,,,,,,,,,,,,,,,,,,,,,,,,,,,,,,,,,,,,,,,,,,,,,,,,,,,,,,,,
,,,,,,60b29948c3753b3707dffe90,62c5384d34d8ca7f2ad01cdd,2022-07-06_09h23.41.366,Colour_Asymmetry_Pilot,2022.1.3,Win32,59.97361161,62c50e9c1127f2cd403a315f,0,84,84,118,1,fourtwo,,,,,,,,,,,,,,,,,,,,,,,,,,,,,,,,,,,,,,,,,,,,,,,,,,,,,,,,,,,,,,,,,,,,,,,,,,,,,,,,,,,,,,,,,,,,,,,,,,,,,,,,,,,,,,,,,,,,,,,,,,,,,,,,,,,,,,,,,,,,,,,,,,,,,,,,,,,,,
,,,,,,60b29948c3753b3707dffe90,62c5384d34d8ca7f2ad01cdd,2022-07-06_09h23.41.366,Colour_Asymmetry_Pilot,2022.1.3,Win32,59.97361161,62c50e9c1127f2cd403a315f,0,85,85,37,1,threefour,,,,,,,,,,,,,,,,,,,,,,,,,,,,,,,,,,,,,,,,,,,,,,,,,,,,,,,,,,,,,,,,,,,,,,,,,,,,,,,,,,,,,,,,,,,,,,,,,,,,,,,,,,,,,,,,,,,,,,,,,,,,,,,,,,,,,,,,,,,,,,,,,,,,,,,,,,,,,
,,,,,,60b29948c3753b3707dffe90,62c5384d34d8ca7f2ad01cdd,2022-07-06_09h23.41.366,Colour_Asymmetry_Pilot,2022.1.3,Win32,59.97361161,62c50e9c1127f2cd403a315f,0,86,86,157,1,threefour,,,,,,,,,,,,,,,,,,,,,,,,,,,,,,,,,,,,,,,,,,,,,,,,,,,,,,,,,,,,,,,,,,,,,,,,,,,,,,,,,,,,,,,,,,,,,,,,,,,,,,,,,,,,,,,,,,,,,,,,,,,,,,,,,,,,,,,,,,,,,,,,,,,,,,,,,,,,,
,,,,,,60b29948c3753b3707dffe90,62c5384d34d8ca7f2ad01cdd,2022-07-06_09h23.41.366,Colour_Asymmetry_Pilot,2022.1.3,Win32,59.97361161,62c50e9c1127f2cd403a315f,0,87,87,96,1,onetwo,,,,,,,,,,,,,,,,,,,,,,,,,,,,,,,,,,,,,,,,,,,,,,,,,,,,,,,,,,,,,,,,,,,,,,,,,,,,,,,,,,,,,,,,,,,,,,,,,,,,,,,,,,,,,,,,,,,,,,,,,,,,,,,,,,,,,,,,,,,,,,,,,,,,,,,,,,,,,
,,,,,,60b29948c3753b3707dffe90,62c5384d34d8ca7f2ad01cdd,2022-07-06_09h23.41.366,Colour_Asymmetry_Pilot,2022.1.3,Win32,59.97361161,62c50e9c1127f2cd403a315f,0,88,88,44,1,threeone,,,,,,,,,,,,,,,,,,,,,,,,,,,,,,,,,,,,,,,,,,,,,,,,,,,,,,,,,,,,,,,,,,,,,,,,,,,,,,,,,,,,,,,,,,,,,,,,,,,,,,,,,,,,,,,,,,,,,,,,,,,,,,,,,,,,,,,,,,,,,,,,,,,,,,,,,,,,,
,,,,,,60b29948c3753b3707dffe90,62c5384d34d8ca7f2ad01cdd,2022-07-06_09h23.41.366,Colour_Asymmetry_Pilot,2022.1.3,Win32,59.97361161,62c50e9c1127f2cd403a315f,0,89,89,70,1,fourtwo,,,,,,,,,,,,,,,,,,,,,,,,,,,,,,,,,,,,,,,,,,,,,,,,,,,,,,,,,,,,,,,,,,,,,,,,,,,,,,,,,,,,,,,,,,,,,,,,,,,,,,,,,,,,,,,,,,,,,,,,,,,,,,,,,,,,,,,,,,,,,,,,,,,,,,,,,,,,,
,,,,,,60b29948c3753b3707dffe90,62c5384d34d8ca7f2ad01cdd,2022-07-06_09h23.41.366,Colour_Asymmetry_Pilot,2022.1.3,Win32,59.97361161,62c50e9c1127f2cd403a315f,0,90,90,76,1,threeone,,,,,,,,,,,,,,,,,,,,,,,,,,,,,,,,,,,,,,,,,,,,,,,,,,,,,,,,,,,,,,,,,,,,,,,,,,,,,,,,,,,,,,,,,,,,,,,,,,,,,,,,,,,,,,,,,,,,,,,,,,,,,,,,,,,,,,,,,,,,,,,,,,,,,,,,,,,,,
,,,,,,60b29948c3753b3707dffe90,62c5384d34d8ca7f2ad01cdd,2022-07-06_09h23.41.366,Colour_Asymmetry_Pilot,2022.1.3,Win32,59.97361161,62c50e9c1127f2cd403a315f,0,91,91,137,1,onethree,,,,,,,,,,,,,,,,,,,,,,,,,,,,,,,,,,,,,,,,,,,,,,,,,,,,,,,,,,,,,,,,,,,,,,,,,,,,,,,,,,,,,,,,,,,,,,,,,,,,,,,,,,,,,,,,,,,,,,,,,,,,,,,,,,,,,,,,,,,,,,,,,,,,,,,,,,,,,
,,,,,,60b29948c3753b3707dffe90,62c5384d34d8ca7f2ad01cdd,2022-07-06_09h23.41.366,Colour_Asymmetry_Pilot,2022.1.3,Win32,59.97361161,62c50e9c1127f2cd403a315f,0,92,92,21,1,threefour,,,,,,,,,,,,,,,,,,,,,,,,,,,,,,,,,,,,,,,,,,,,,,,,,,,,,,,,,,,,,,,,,,,,,,,,,,,,,,,,,,,,,,,,,,,,,,,,,,,,,,,,,,,,,,,,,,,,,,,,,,,,,,,,,,,,,,,,,,,,,,,,,,,,,,,,,,,,,
,,,,,,60b29948c3753b3707dffe90,62c5384d34d8ca7f2ad01cdd,2022-07-06_09h23.41.366,Colour_Asymmetry_Pilot,2022.1.3,Win32,59.97361161,62c50e9c1127f2cd403a315f,0,93,93,39,1,fourthree,,,,,,,,,,,,,,,,,,,,,,,,,,,,,,,,,,,,,,,,,,,,,,,,,,,,,,,,,,,,,,,,,,,,,,,,,,,,,,,,,,,,,,,,,,,,,,,,,,,,,,,,,,,,,,,,,,,,,,,,,,,,,,,,,,,,,,,,,,,,,,,,,,,,,,,,,,,,,
,,,,,,60b29948c3753b3707dffe90,62c5384d34d8ca7f2ad01cdd,2022-07-06_09h23.41.366,Colour_Asymmetry_Pilot,2022.1.3,Win32,59.97361161,62c50e9c1127f2cd403a315f,0,94,94,124,1,threeone,,,,,,,,,,,,,,,,,,,,,,,,,,,,,,,,,,,,,,,,,,,,,,,,,,,,,,,,,,,,,,,,,,,,,,,,,,,,,,,,,,,,,,,,,,,,,,,,,,,,,,,,,,,,,,,,,,,,,,,,,,,,,,,,,,,,,,,,,,,,,,,,,,,,,,,,,,,,,
,,,,,,60b29948c3753b3707dffe90,62c5384d34d8ca7f2ad01cdd,2022-07-06_09h23.41.366,Colour_Asymmetry_Pilot,2022.1.3,Win32,59.97361161,62c50e9c1127f2cd403a315f,0,95,95,87,1,fourthree,,,,,,,,,,,,,,,,,,,,,,,,,,,,,,,,,,,,,,,,,,,,,,,,,,,,,,,,,,,,,,,,,,,,,,,,,,,,,,,,,,,,,,,,,,,,,,,,,,,,,,,,,,,,,,,,,,,,,,,,,,,,,,,,,,,,,,,,,,,,,,,,,,,,,,,,,,,,,
,,,,,,60b29948c3753b3707dffe90,62c5384d34d8ca7f2ad01cdd,2022-07-06_09h23.41.366,Colour_Asymmetry_Pilot,2022.1.3,Win32,59.97361161,62c50e9c1127f2cd403a315f,0,96,96,156,1,threeone,,,,,,,,,,,,,,,,,,,,,,,,,,,,,,,,,,,,,,,,,,,,,,,,,,,,,,,,,,,,,,,,,,,,,,,,,,,,,,,,,,,,,,,,,,,,,,,,,,,,,,,,,,,,,,,,,,,,,,,,,,,,,,,,,,,,,,,,,,,,,,,,,,,,,,,,,,,,,
,,,,,,60b29948c3753b3707dffe90,62c5384d34d8ca7f2ad01cdd,2022-07-06_09h23.41.366,Colour_Asymmetry_Pilot,2022.1.3,Win32,59.97361161,62c50e9c1127f2cd403a315f,0,97,97,85,1,threefour,,,,,,,,,,,,,,,,,,,,,,,,,,,,,,,,,,,,,,,,,,,,,,,,,,,,,,,,,,,,,,,,,,,,,,,,,,,,,,,,,,,,,,,,,,,,,,,,,,,,,,,,,,,,,,,,,,,,,,,,,,,,,,,,,,,,,,,,,,,,,,,,,,,,,,,,,,,,,
,,,,,,60b29948c3753b3707dffe90,62c5384d34d8ca7f2ad01cdd,2022-07-06_09h23.41.366,Colour_Asymmetry_Pilot,2022.1.3,Win32,59.97361161,62c50e9c1127f2cd403a315f,0,98,98,135,1,fourthree,,,,,,,,,,,,,,,,,,,,,,,,,,,,,,,,,,,,,,,,,,,,,,,,,,,,,,,,,,,,,,,,,,,,,,,,,,,,,,,,,,,,,,,,,,,,,,,,,,,,,,,,,,,,,,,,,,,,,,,,,,,,,,,,,,,,,,,,,,,,,,,,,,,,,,,,,,,,,
,,,,,,60b29948c3753b3707dffe90,62c5384d34d8ca7f2ad01cdd,2022-07-06_09h23.41.366,Colour_Asymmetry_Pilot,2022.1.3,Win32,59.97361161,62c50e9c1127f2cd403a315f,0,99,99,40,1,onetwo,,,,,,,,,,,,,,,,,,,,,,,,,,,,,,,,,,,,,,,,,,,,,,,,,,,,,,,,,,,,,,,,,,,,,,,,,,,,,,,,,,,,,,,,,,,,,,,,,,,,,,,,,,,,,,,,,,,,,,,,,,,,,,,,,,,,,,,,,,,,,,,,,,,,,,,,,,,,,
,,,,,,60b29948c3753b3707dffe90,62c5384d34d8ca7f2ad01cdd,2022-07-06_09h23.41.366,Colour_Asymmetry_Pilot,2022.1.3,Win32,59.97361161,62c50e9c1127f2cd403a315f,0,100,100,160,1,onetwo,,,,,,,,,,,,,,,,,,,,,,,,,,,,,,,,,,,,,,,,,,,,,,,,,,,,,,,,,,,,,,,,,,,,,,,,,,,,,,,,,,,,,,,,,,,,,,,,,,,,,,,,,,,,,,,,,,,,,,,,,,,,,,,,,,,,,,,,,,,,,,,,,,,,,,,,,,,,,
,,,,,,60b29948c3753b3707dffe90,62c5384d34d8ca7f2ad01cdd,2022-07-06_09h23.41.366,Colour_Asymmetry_Pilot,2022.1.3,Win32,59.97361161,62c50e9c1127f2cd403a315f,0,101,101,62,1,fourtwo,,,,,,,,,,,,,,,,,,,,,,,,,,,,,,,,,,,,,,,,,,,,,,,,,,,,,,,,,,,,,,,,,,,,,,,,,,,,,,,,,,,,,,,,,,,,,,,,,,,,,,,,,,,,,,,,,,,,,,,,,,,,,,,,,,,,,,,,,,,,,,,,,,,,,,,,,,,,,
,,,,,,60b29948c3753b3707dffe90,62c5384d34d8ca7f2ad01cdd,2022-07-06_09h23.41.366,Colour_Asymmetry_Pilot,2022.1.3,Win32,59.97361161,62c50e9c1127f2cd403a315f,0,102,102,130,1,twoone,,,,,,,,,,,,,,,,,,,,,,,,,,,,,,,,,,,,,,,,,,,,,,,,,,,,,,,,,,,,,,,,,,,,,,,,,,,,,,,,,,,,,,,,,,,,,,,,,,,,,,,,,,,,,,,,,,,,,,,,,,,,,,,,,,,,,,,,,,,,,,,,,,,,,,,,,,,,,
,,,,,,60b29948c3753b3707dffe90,62c5384d34d8ca7f2ad01cdd,2022-07-06_09h23.41.366,Colour_Asymmetry_Pilot,2022.1.3,Win32,59.97361161,62c50e9c1127f2cd403a315f,0,103,103,15,1,fourthree,,,,,,,,,,,,,,,,,,,,,,,,,,,,,,,,,,,,,,,,,,,,,,,,,,,,,,,,,,,,,,,,,,,,,,,,,,,,,,,,,,,,,,,,,,,,,,,,,,,,,,,,,,,,,,,,,,,,,,,,,,,,,,,,,,,,,,,,,,,,,,,,,,,,,,,,,,,,,
,,,,,,60b29948c3753b3707dffe90,62c5384d34d8ca7f2ad01cdd,2022-07-06_09h23.41.366,Colour_Asymmetry_Pilot,2022.1.3,Win32,59.97361161,62c50e9c1127f2cd403a315f,0,104,104,133,1,threefour,,,,,,,,,,,,,,,,,,,,,,,,,,,,,,,,,,,,,,,,,,,,,,,,,,,,,,,,,,,,,,,,,,,,,,,,,,,,,,,,,,,,,,,,,,,,,,,,,,,,,,,,,,,,,,,,,,,,,,,,,,,,,,,,,,,,,,,,,,,,,,,,,,,,,,,,,,,,,
,,,,,,60b29948c3753b3707dffe90,62c5384d34d8ca7f2ad01cdd,2022-07-06_09h23.41.366,Colour_Asymmetry_Pilot,2022.1.3,Win32,59.97361161,62c50e9c1127f2cd403a315f,0,105,105,10,1,twoone,,,,,,,,,,,,,,,,,,,,,,,,,,,,,,,,,,,,,,,,,,,,,,,,,,,,,,,,,,,,,,,,,,,,,,,,,,,,,,,,,,,,,,,,,,,,,,,,,,,,,,,,,,,,,,,,,,,,,,,,,,,,,,,,,,,,,,,,,,,,,,,,,,,,,,,,,,,,,
,,,,,,60b29948c3753b3707dffe90,62c5384d34d8ca7f2ad01cdd,2022-07-06_09h23.41.366,Colour_Asymmetry_Pilot,2022.1.3,Win32,59.97361161,62c50e9c1127f2cd403a315f,0,106,106,42,1,twoone,,,,,,,,,,,,,,,,,,,,,,,,,,,,,,,,,,,,,,,,,,,,,,,,,,,,,,,,,,,,,,,,,,,,,,,,,,,,,,,,,,,,,,,,,,,,,,,,,,,,,,,,,,,,,,,,,,,,,,,,,,,,,,,,,,,,,,,,,,,,,,,,,,,,,,,,,,,,,
,,,,,,60b29948c3753b3707dffe90,62c5384d34d8ca7f2ad01cdd,2022-07-06_09h23.41.366,Colour_Asymmetry_Pilot,2022.1.3,Win32,59.97361161,62c50e9c1127f2cd403a315f,0,107,107,49,1,onethree,,,,,,,,,,,,,,,,,,,,,,,,,,,,,,,,,,,,,,,,,,,,,,,,,,,,,,,,,,,,,,,,,,,,,,,,,,,,,,,,,,,,,,,,,,,,,,,,,,,,,,,,,,,,,,,,,,,,,,,,,,,,,,,,,,,,,,,,,,,,,,,,,,,,,,,,,,,,,
,,,,,,60b29948c3753b3707dffe90,62c5384d34d8ca7f2ad01cdd,2022-07-06_09h23.41.366,Colour_Asymmetry_Pilot,2022.1.3,Win32,59.97361161,62c50e9c1127f2cd403a315f,0,108,108,60,1,threeone,,,,,,,,,,,,,,,,,,,,,,,,,,,,,,,,,,,,,,,,,,,,,,,,,,,,,,,,,,,,,,,,,,,,,,,,,,,,,,,,,,,,,,,,,,,,,,,,,,,,,,,,,,,,,,,,,,,,,,,,,,,,,,,,,,,,,,,,,,,,,,,,,,,,,,,,,,,,,
,,,,,,60b29948c3753b3707dffe90,62c5384d34d8ca7f2ad01cdd,2022-07-06_09h23.41.366,Colour_Asymmetry_Pilot,2022.1.3,Win32,59.97361161,62c50e9c1127f2cd403a315f,0,109,109,126,1,fourtwo,,,,,,,,,,,,,,,,,,,,,,,,,,,,,,,,,,,,,,,,,,,,,,,,,,,,,,,,,,,,,,,,,,,,,,,,,,,,,,,,,,,,,,,,,,,,,,,,,,,,,,,,,,,,,,,,,,,,,,,,,,,,,,,,,,,,,,,,,,,,,,,,,,,,,,,,,,,,,
,,,,,,60b29948c3753b3707dffe90,62c5384d34d8ca7f2ad01cdd,2022-07-06_09h23.41.366,Colour_Asymmetry_Pilot,2022.1.3,Win32,59.97361161,62c50e9c1127f2cd403a315f,0,110,110,26,1,twoone,,,,,,,,,,,,,,,,,,,,,,,,,,,,,,,,,,,,,,,,,,,,,,,,,,,,,,,,,,,,,,,,,,,,,,,,,,,,,,,,,,,,,,,,,,,,,,,,,,,,,,,,,,,,,,,,,,,,,,,,,,,,,,,,,,,,,,,,,,,,,,,,,,,,,,,,,,,,,
,,,,,,60b29948c3753b3707dffe90,62c5384d34d8ca7f2ad01cdd,2022-07-06_09h23.41.366,Colour_Asymmetry_Pilot,2022.1.3,Win32,59.97361161,62c50e9c1127f2cd403a315f,0,111,111,55,1,fourthree,,,,,,,,,,,,,,,,,,,,,,,,,,,,,,,,,,,,,,,,,,,,,,,,,,,,,,,,,,,,,,,,,,,,,,,,,,,,,,,,,,,,,,,,,,,,,,,,,,,,,,,,,,,,,,,,,,,,,,,,,,,,,,,,,,,,,,,,,,,,,,,,,,,,,,,,,,,,,
,,,,,,60b29948c3753b3707dffe90,62c5384d34d8ca7f2ad01cdd,2022-07-06_09h23.41.366,Colour_Asymmetry_Pilot,2022.1.3,Win32,59.97361161,62c50e9c1127f2cd403a315f,0,112,112,82,1,twoone,,,,,,,,,,,,,,,,,,,,,,,,,,,,,,,,,,,,,,,,,,,,,,,,,,,,,,,,,,,,,,,,,,,,,,,,,,,,,,,,,,,,,,,,,,,,,,,,,,,,,,,,,,,,,,,,,,,,,,,,,,,,,,,,,,,,,,,,,,,,,,,,,,,,,,,,,,,,,
,,,,,,60b29948c3753b3707dffe90,62c5384d34d8ca7f2ad01cdd,2022-07-06_09h23.41.366,Colour_Asymmetry_Pilot,2022.1.3,Win32,59.97361161,62c50e9c1127f2cd403a315f,0,113,113,143,1,fourthree,,,,,,,,,,,,,,,,,,,,,,,,,,,,,,,,,,,,,,,,,,,,,,,,,,,,,,,,,,,,,,,,,,,,,,,,,,,,,,,,,,,,,,,,,,,,,,,,,,,,,,,,,,,,,,,,,,,,,,,,,,,,,,,,,,,,,,,,,,,,,,,,,,,,,,,,,,,,,
,,,,,,60b29948c3753b3707dffe90,62c5384d34d8ca7f2ad01cdd,2022-07-06_09h23.41.366,Colour_Asymmetry_Pilot,2022.1.3,Win32,59.97361161,62c50e9c1127f2cd403a315f,0,114,114,80,1,onetwo,,,,,,,,,,,,,,,,,,,,,,,,,,,,,,,,,,,,,,,,,,,,,,,,,,,,,,,,,,,,,,,,,,,,,,,,,,,,,,,,,,,,,,,,,,,,,,,,,,,,,,,,,,,,,,,,,,,,,,,,,,,,,,,,,,,,,,,,,,,,,,,,,,,,,,,,,,,,,
,,,,,,60b29948c3753b3707dffe90,62c5384d34d8ca7f2ad01cdd,2022-07-06_09h23.41.366,Colour_Asymmetry_Pilot,2022.1.3,Win32,59.97361161,62c50e9c1127f2cd403a315f,0,115,115,53,1,threefour,,,,,,,,,,,,,,,,,,,,,,,,,,,,,,,,,,,,,,,,,,,,,,,,,,,,,,,,,,,,,,,,,,,,,,,,,,,,,,,,,,,,,,,,,,,,,,,,,,,,,,,,,,,,,,,,,,,,,,,,,,,,,,,,,,,,,,,,,,,,,,,,,,,,,,,,,,,,,
,,,,,,60b29948c3753b3707dffe90,62c5384d34d8ca7f2ad01cdd,2022-07-06_09h23.41.366,Colour_Asymmetry_Pilot,2022.1.3,Win32,59.97361161,62c50e9c1127f2cd403a315f,0,116,116,24,1,onetwo,,,,,,,,,,,,,,,,,,,,,,,,,,,,,,,,,,,,,,,,,,,,,,,,,,,,,,,,,,,,,,,,,,,,,,,,,,,,,,,,,,,,,,,,,,,,,,,,,,,,,,,,,,,,,,,,,,,,,,,,,,,,,,,,,,,,,,,,,,,,,,,,,,,,,,,,,,,,,
,,,,,,60b29948c3753b3707dffe90,62c5384d34d8ca7f2ad01cdd,2022-07-06_09h23.41.366,Colour_Asymmetry_Pilot,2022.1.3,Win32,59.97361161,62c50e9c1127f2cd403a315f,0,117,117,38,1,fourtwo,,,,,,,,,,,,,,,,,,,,,,,,,,,,,,,,,,,,,,,,,,,,,,,,,,,,,,,,,,,,,,,,,,,,,,,,,,,,,,,,,,,,,,,,,,,,,,,,,,,,,,,,,,,,,,,,,,,,,,,,,,,,,,,,,,,,,,,,,,,,,,,,,,,,,,,,,,,,,
,,,,,,60b29948c3753b3707dffe90,62c5384d34d8ca7f2ad01cdd,2022-07-06_09h23.41.366,Colour_Asymmetry_Pilot,2022.1.3,Win32,59.97361161,62c50e9c1127f2cd403a315f,0,118,118,90,1,twoone,,,,,,,,,,,,,,,,,,,,,,,,,,,,,,,,,,,,,,,,,,,,,,,,,,,,,,,,,,,,,,,,,,,,,,,,,,,,,,,,,,,,,,,,,,,,,,,,,,,,,,,,,,,,,,,,,,,,,,,,,,,,,,,,,,,,,,,,,,,,,,,,,,,,,,,,,,,,,
,,,,,,60b29948c3753b3707dffe90,62c5384d34d8ca7f2ad01cdd,2022-07-06_09h23.41.366,Colour_Asymmetry_Pilot,2022.1.3,Win32,59.97361161,62c50e9c1127f2cd403a315f,0,119,119,152,1,onetwo,,,,,,,,,,,,,,,,,,,,,,,,,,,,,,,,,,,,,,,,,,,,,,,,,,,,,,,,,,,,,,,,,,,,,,,,,,,,,,,,,,,,,,,,,,,,,,,,,,,,,,,,,,,,,,,,,,,,,,,,,,,,,,,,,,,,,,,,,,,,,,,,,,,,,,,,,,,,,
,,,,,,60b29948c3753b3707dffe90,62c5384d34d8ca7f2ad01cdd,2022-07-06_09h23.41.366,Colour_Asymmetry_Pilot,2022.1.3,Win32,59.97361161,62c50e9c1127f2cd403a315f,0,120,120,91,1,twofour,,,,,,,,,,,,,,,,,,,,,,,,,,,,,,,,,,,,,,,,,,,,,,,,,,,,,,,,,,,,,,,,,,,,,,,,,,,,,,,,,,,,,,,,,,,,,,,,,,,,,,,,,,,,,,,,,,,,,,,,,,,,,,,,,,,,,,,,,,,,,,,,,,,,,,,,,,,,,
,,,,,,60b29948c3753b3707dffe90,62c5384d34d8ca7f2ad01cdd,2022-07-06_09h23.41.366,Colour_Asymmetry_Pilot,2022.1.3,Win32,59.97361161,62c50e9c1127f2cd403a315f,0,121,121,95,1,fourthree,,,,,,,,,,,,,,,,,,,,,,,,,,,,,,,,,,,,,,,,,,,,,,,,,,,,,,,,,,,,,,,,,,,,,,,,,,,,,,,,,,,,,,,,,,,,,,,,,,,,,,,,,,,,,,,,,,,,,,,,,,,,,,,,,,,,,,,,,,,,,,,,,,,,,,,,,,,,,
,,,,,,60b29948c3753b3707dffe90,62c5384d34d8ca7f2ad01cdd,2022-07-06_09h23.41.366,Colour_Asymmetry_Pilot,2022.1.3,Win32,59.97361161,62c50e9c1127f2cd403a315f,0,122,122,31,1,fourthree,,,,,,,,,,,,,,,,,,,,,,,,,,,,,,,,,,,,,,,,,,,,,,,,,,,,,,,,,,,,,,,,,,,,,,,,,,,,,,,,,,,,,,,,,,,,,,,,,,,,,,,,,,,,,,,,,,,,,,,,,,,,,,,,,,,,,,,,,,,,,,,,,,,,,,,,,,,,,
,,,,,,60b29948c3753b3707dffe90,62c5384d34d8ca7f2ad01cdd,2022-07-06_09h23.41.366,Colour_Asymmetry_Pilot,2022.1.3,Win32,59.97361161,62c50e9c1127f2cd403a315f,0,123,123,81,1,onethree,,,,,,,,,,,,,,,,,,,,,,,,,,,,,,,,,,,,,,,,,,,,,,,,,,,,,,,,,,,,,,,,,,,,,,,,,,,,,,,,,,,,,,,,,,,,,,,,,,,,,,,,,,,,,,,,,,,,,,,,,,,,,,,,,,,,,,,,,,,,,,,,,,,,,,,,,,,,,
,,,,,,60b29948c3753b3707dffe90,62c5384d34d8ca7f2ad01cdd,2022-07-06_09h23.41.366,Colour_Asymmetry_Pilot,2022.1.3,Win32,59.97361161,62c50e9c1127f2cd403a315f,0,124,124,0,1,onetwo,,,,,,,,,,,,,,,,,,,,,,,,,,,,,,,,,,,,,,,,,,,,,,,,,,,,,,,,,,,,,,,,,,,,,,,,,,,,,,,,,,,,,,,,,,,,,,,,,,,,,,,,,,,,,,,,,,,,,,,,,,,,,,,,,,,,,,,,,,,,,,,,,,,,,,,,,,,,,
,,,,,,60b29948c3753b3707dffe90,62c5384d34d8ca7f2ad01cdd,2022-07-06_09h23.41.366,Colour_Asymmetry_Pilot,2022.1.3,Win32,59.97361161,62c50e9c1127f2cd403a315f,0,125,125,29,1,threefour,,,,,,,,,,,,,,,,,,,,,,,,,,,,,,,,,,,,,,,,,,,,,,,,,,,,,,,,,,,,,,,,,,,,,,,,,,,,,,,,,,,,,,,,,,,,,,,,,,,,,,,,,,,,,,,,,,,,,,,,,,,,,,,,,,,,,,,,,,,,,,,,,,,,,,,,,,,,,
,,,,,,60b29948c3753b3707dffe90,62c5384d34d8ca7f2ad01cdd,2022-07-06_09h23.41.366,Colour_Asymmetry_Pilot,2022.1.3,Win32,59.97361161,62c50e9c1127f2cd403a315f,0,126,126,22,1,fourtwo,,,,,,,,,,,,,,,,,,,,,,,,,,,,,,,,,,,,,,,,,,,,,,,,,,,,,,,,,,,,,,,,,,,,,,,,,,,,,,,,,,,,,,,,,,,,,,,,,,,,,,,,,,,,,,,,,,,,,,,,,,,,,,,,,,,,,,,,,,,,,,,,,,,,,,,,,,,,,
,,,,,,60b29948c3753b3707dffe90,62c5384d34d8ca7f2ad01cdd,2022-07-06_09h23.41.366,Colour_Asymmetry_Pilot,2022.1.3,Win32,59.97361161,62c50e9c1127f2cd403a315f,0,127,127,101,1,threefour,,,,,,,,,,,,,,,,,,,,,,,,,,,,,,,,,,,,,,,,,,,,,,,,,,,,,,,,,,,,,,,,,,,,,,,,,,,,,,,,,,,,,,,,,,,,,,,,,,,,,,,,,,,,,,,,,,,,,,,,,,,,,,,,,,,,,,,,,,,,,,,,,,,,,,,,,,,,,
,,,,,,60b29948c3753b3707dffe90,62c5384d34d8ca7f2ad01cdd,2022-07-06_09h23.41.366,Colour_Asymmetry_Pilot,2022.1.3,Win32,59.97361161,62c50e9c1127f2cd403a315f,0,128,128,147,1,twofour,,,,,,,,,,,,,,,,,,,,,,,,,,,,,,,,,,,,,,,,,,,,,,,,,,,,,,,,,,,,,,,,,,,,,,,,,,,,,,,,,,,,,,,,,,,,,,,,,,,,,,,,,,,,,,,,,,,,,,,,,,,,,,,,,,,,,,,,,,,,,,,,,,,,,,,,,,,,,
,,,,,,60b29948c3753b3707dffe90,62c5384d34d8ca7f2ad01cdd,2022-07-06_09h23.41.366,Colour_Asymmetry_Pilot,2022.1.3,Win32,59.97361161,62c50e9c1127f2cd403a315f,0,129,129,5,1,threefour,,,,,,,,,,,,,,,,,,,,,,,,,,,,,,,,,,,,,,,,,,,,,,,,,,,,,,,,,,,,,,,,,,,,,,,,,,,,,,,,,,,,,,,,,,,,,,,,,,,,,,,,,,,,,,,,,,,,,,,,,,,,,,,,,,,,,,,,,,,,,,,,,,,,,,,,,,,,,
,,,,,,60b29948c3753b3707dffe90,62c5384d34d8ca7f2ad01cdd,2022-07-06_09h23.41.366,Colour_Asymmetry_Pilot,2022.1.3,Win32,59.97361161,62c50e9c1127f2cd403a315f,0,130,130,36,1,threeone,,,,,,,,,,,,,,,,,,,,,,,,,,,,,,,,,,,,,,,,,,,,,,,,,,,,,,,,,,,,,,,,,,,,,,,,,,,,,,,,,,,,,,,,,,,,,,,,,,,,,,,,,,,,,,,,,,,,,,,,,,,,,,,,,,,,,,,,,,,,,,,,,,,,,,,,,,,,,
,,,,,,60b29948c3753b3707dffe90,62c5384d34d8ca7f2ad01cdd,2022-07-06_09h23.41.366,Colour_Asymmetry_Pilot,2022.1.3,Win32,59.97361161,62c50e9c1127f2cd403a315f,0,131,131,108,1,threeone,,,,,,,,,,,,,,,,,,,,,,,,,,,,,,,,,,,,,,,,,,,,,,,,,,,,,,,,,,,,,,,,,,,,,,,,,,,,,,,,,,,,,,,,,,,,,,,,,,,,,,,,,,,,,,,,,,,,,,,,,,,,,,,,,,,,,,,,,,,,,,,,,,,,,,,,,,,,,
,,,,,,60b29948c3753b3707dffe90,62c5384d34d8ca7f2ad01cdd,2022-07-06_09h23.41.366,Colour_Asymmetry_Pilot,2022.1.3,Win32,59.97361161,62c50e9c1127f2cd403a315f,0,132,132,58,1,twoone,,,,,,,,,,,,,,,,,,,,,,,,,,,,,,,,,,,,,,,,,,,,,,,,,,,,,,,,,,,,,,,,,,,,,,,,,,,,,,,,,,,,,,,,,,,,,,,,,,,,,,,,,,,,,,,,,,,,,,,,,,,,,,,,,,,,,,,,,,,,,,,,,,,,,,,,,,,,,
,,,,,,60b29948c3753b3707dffe90,62c5384d34d8ca7f2ad01cdd,2022-07-06_09h23.41.366,Colour_Asymmetry_Pilot,2022.1.3,Win32,59.97361161,62c50e9c1127f2cd403a315f,0,133,133,159,1,fourthree,,,,,,,,,,,,,,,,,,,,,,,,,,,,,,,,,,,,,,,,,,,,,,,,,,,,,,,,,,,,,,,,,,,,,,,,,,,,,,,,,,,,,,,,,,,,,,,,,,,,,,,,,,,,,,,,,,,,,,,,,,,,,,,,,,,,,,,,,,,,,,,,,,,,,,,,,,,,,
,,,,,,60b29948c3753b3707dffe90,62c5384d34d8ca7f2ad01cdd,2022-07-06_09h23.41.366,Colour_Asymmetry_Pilot,2022.1.3,Win32,59.97361161,62c50e9c1127f2cd403a315f,0,134,134,134,1,fourtwo,,,,,,,,,,,,,,,,,,,,,,,,,,,,,,,,,,,,,,,,,,,,,,,,,,,,,,,,,,,,,,,,,,,,,,,,,,,,,,,,,,,,,,,,,,,,,,,,,,,,,,,,,,,,,,,,,,,,,,,,,,,,,,,,,,,,,,,,,,,,,,,,,,,,,,,,,,,,,
,,,,,,60b29948c3753b3707dffe90,62c5384d34d8ca7f2ad01cdd,2022-07-06_09h23.41.366,Colour_Asymmetry_Pilot,2022.1.3,Win32,59.97361161,62c50e9c1127f2cd403a315f,0,135,135,141,1,threefour,,,,,,,,,,,,,,,,,,,,,,,,,,,,,,,,,,,,,,,,,,,,,,,,,,,,,,,,,,,,,,,,,,,,,,,,,,,,,,,,,,,,,,,,,,,,,,,,,,,,,,,,,,,,,,,,,,,,,,,,,,,,,,,,,,,,,,,,,,,,,,,,,,,,,,,,,,,,,
,,,,,,60b29948c3753b3707dffe90,62c5384d34d8ca7f2ad01cdd,2022-07-06_09h23.41.366,Colour_Asymmetry_Pilot,2022.1.3,Win32,59.97361161,62c50e9c1127f2cd403a315f,0,136,136,111,1,fourthree,,,,,,,,,,,,,,,,,,,,,,,,,,,,,,,,,,,,,,,,,,,,,,,,,,,,,,,,,,,,,,,,,,,,,,,,,,,,,,,,,,,,,,,,,,,,,,,,,,,,,,,,,,,,,,,,,,,,,,,,,,,,,,,,,,,,,,,,,,,,,,,,,,,,,,,,,,,,,
,,,,,,60b29948c3753b3707dffe90,62c5384d34d8ca7f2ad01cdd,2022-07-06_09h23.41.366,Colour_Asymmetry_Pilot,2022.1.3,Win32,59.97361161,62c50e9c1127f2cd403a315f,0,137,137,28,1,threeone,,,,,,,,,,,,,,,,,,,,,,,,,,,,,,,,,,,,,,,,,,,,,,,,,,,,,,,,,,,,,,,,,,,,,,,,,,,,,,,,,,,,,,,,,,,,,,,,,,,,,,,,,,,,,,,,,,,,,,,,,,,,,,,,,,,,,,,,,,,,,,,,,,,,,,,,,,,,,
,,,,,,60b29948c3753b3707dffe90,62c5384d34d8ca7f2ad01cdd,2022-07-06_09h23.41.366,Colour_Asymmetry_Pilot,2022.1.3,Win32,59.97361161,62c50e9c1127f2cd403a315f,0,138,138,12,1,threeone,,,,,,,,,,,,,,,,,,,,,,,,,,,,,,,,,,,,,,,,,,,,,,,,,,,,,,,,,,,,,,,,,,,,,,,,,,,,,,,,,,,,,,,,,,,,,,,,,,,,,,,,,,,,,,,,,,,,,,,,,,,,,,,,,,,,,,,,,,,,,,,,,,,,,,,,,,,,,
,,,,,,60b29948c3753b3707dffe90,62c5384d34d8ca7f2ad01cdd,2022-07-06_09h23.41.366,Colour_Asymmetry_Pilot,2022.1.3,Win32,59.97361161,62c50e9c1127f2cd403a315f,0,139,139,50,1,twoone,,,,,,,,,,,,,,,,,,,,,,,,,,,,,,,,,,,,,,,,,,,,,,,,,,,,,,,,,,,,,,,,,,,,,,,,,,,,,,,,,,,,,,,,,,,,,,,,,,,,,,,,,,,,,,,,,,,,,,,,,,,,,,,,,,,,,,,,,,,,,,,,,,,,,,,,,,,,,
,,,,,,60b29948c3753b3707dffe90,62c5384d34d8ca7f2ad01cdd,2022-07-06_09h23.41.366,Colour_Asymmetry_Pilot,2022.1.3,Win32,59.97361161,62c50e9c1127f2cd403a315f,0,140,140,56,1,onetwo,,,,,,,,,,,,,,,,,,,,,,,,,,,,,,,,,,,,,,,,,,,,,,,,,,,,,,,,,,,,,,,,,,,,,,,,,,,,,,,,,,,,,,,,,,,,,,,,,,,,,,,,,,,,,,,,,,,,,,,,,,,,,,,,,,,,,,,,,,,,,,,,,,,,,,,,,,,,,
,,,,,,60b29948c3753b3707dffe90,62c5384d34d8ca7f2ad01cdd,2022-07-06_09h23.41.366,Colour_Asymmetry_Pilot,2022.1.3,Win32,59.97361161,62c50e9c1127f2cd403a315f,0,141,141,47,1,fourthree,,,,,,,,,,,,,,,,,,,,,,,,,,,,,,,,,,,,,,,,,,,,,,,,,,,,,,,,,,,,,,,,,,,,,,,,,,,,,,,,,,,,,,,,,,,,,,,,,,,,,,,,,,,,,,,,,,,,,,,,,,,,,,,,,,,,,,,,,,,,,,,,,,,,,,,,,,,,,
,,,,,,60b29948c3753b3707dffe90,62c5384d34d8ca7f2ad01cdd,2022-07-06_09h23.41.366,Colour_Asymmetry_Pilot,2022.1.3,Win32,59.97361161,62c50e9c1127f2cd403a315f,0,142,142,120,1,onetwo,,,,,,,,,,,,,,,,,,,,,,,,,,,,,,,,,,,,,,,,,,,,,,,,,,,,,,,,,,,,,,,,,,,,,,,,,,,,,,,,,,,,,,,,,,,,,,,,,,,,,,,,,,,,,,,,,,,,,,,,,,,,,,,,,,,,,,,,,,,,,,,,,,,,,,,,,,,,,
,,,,,,60b29948c3753b3707dffe90,62c5384d34d8ca7f2ad01cdd,2022-07-06_09h23.41.366,Colour_Asymmetry_Pilot,2022.1.3,Win32,59.97361161,62c50e9c1127f2cd403a315f,0,143,143,66,1,twoone,,,,,,,,,,,,,,,,,,,,,,,,,,,,,,,,,,,,,,,,,,,,,,,,,,,,,,,,,,,,,,,,,,,,,,,,,,,,,,,,,,,,,,,,,,,,,,,,,,,,,,,,,,,,,,,,,,,,,,,,,,,,,,,,,,,,,,,,,,,,,,,,,,,,,,,,,,,,,
,,,,,,60b29948c3753b3707dffe90,62c5384d34d8ca7f2ad01cdd,2022-07-06_09h23.41.366,Colour_Asymmetry_Pilot,2022.1.3,Win32,59.97361161,62c50e9c1127f2cd403a315f,0,144,144,33,1,onethree,,,,,,,,,,,,,,,,,,,,,,,,,,,,,,,,,,,,,,,,,,,,,,,,,,,,,,,,,,,,,,,,,,,,,,,,,,,,,,,,,,,,,,,,,,,,,,,,,,,,,,,,,,,,,,,,,,,,,,,,,,,,,,,,,,,,,,,,,,,,,,,,,,,,,,,,,,,,,
,,,,,,60b29948c3753b3707dffe90,62c5384d34d8ca7f2ad01cdd,2022-07-06_09h23.41.366,Colour_Asymmetry_Pilot,2022.1.3,Win32,59.97361161,62c50e9c1127f2cd403a315f,0,145,145,104,1,onetwo,,,,,,,,,,,,,,,,,,,,,,,,,,,,,,,,,,,,,,,,,,,,,,,,,,,,,,,,,,,,,,,,,,,,,,,,,,,,,,,,,,,,,,,,,,,,,,,,,,,,,,,,,,,,,,,,,,,,,,,,,,,,,,,,,,,,,,,,,,,,,,,,,,,,,,,,,,,,,
,,,,,,60b29948c3753b3707dffe90,62c5384d34d8ca7f2ad01cdd,2022-07-06_09h23.41.366,Colour_Asymmetry_Pilot,2022.1.3,Win32,59.97361161,62c50e9c1127f2cd403a315f,0,146,146,9,1,onethree,,,,,,,,,,,,,,,,,,,,,,,,,,,,,,,,,,,,,,,,,,,,,,,,,,,,,,,,,,,,,,,,,,,,,,,,,,,,,,,,,,,,,,,,,,,,,,,,,,,,,,,,,,,,,,,,,,,,,,,,,,,,,,,,,,,,,,,,,,,,,,,,,,,,,,,,,,,,,
,,,,,,60b29948c3753b3707dffe90,62c5384d34d8ca7f2ad01cdd,2022-07-06_09h23.41.366,Colour_Asymmetry_Pilot,2022.1.3,Win32,59.97361161,62c50e9c1127f2cd403a315f,0,147,147,140,1,threeone,,,,,,,,,,,,,,,,,,,,,,,,,,,,,,,,,,,,,,,,,,,,,,,,,,,,,,,,,,,,,,,,,,,,,,,,,,,,,,,,,,,,,,,,,,,,,,,,,,,,,,,,,,,,,,,,,,,,,,,,,,,,,,,,,,,,,,,,,,,,,,,,,,,,,,,,,,,,,
,,,,,,60b29948c3753b3707dffe90,62c5384d34d8ca7f2ad01cdd,2022-07-06_09h23.41.366,Colour_Asymmetry_Pilot,2022.1.3,Win32,59.97361161,62c50e9c1127f2cd403a315f,0,148,148,72,1,onetwo,,,,,,,,,,,,,,,,,,,,,,,,,,,,,,,,,,,,,,,,,,,,,,,,,,,,,,,,,,,,,,,,,,,,,,,,,,,,,,,,,,,,,,,,,,,,,,,,,,,,,,,,,,,,,,,,,,,,,,,,,,,,,,,,,,,,,,,,,,,,,,,,,,,,,,,,,,,,,
,,,,,,60b29948c3753b3707dffe90,62c5384d34d8ca7f2ad01cdd,2022-07-06_09h23.41.366,Colour_Asymmetry_Pilot,2022.1.3,Win32,59.97361161,62c50e9c1127f2cd403a315f,0,149,149,7,1,fourthree,,,,,,,,,,,,,,,,,,,,,,,,,,,,,,,,,,,,,,,,,,,,,,,,,,,,,,,,,,,,,,,,,,,,,,,,,,,,,,,,,,,,,,,,,,,,,,,,,,,,,,,,,,,,,,,,,,,,,,,,,,,,,,,,,,,,,,,,,,,,,,,,,,,,,,,,,,,,,
,,,,,,60b29948c3753b3707dffe90,62c5384d34d8ca7f2ad01cdd,2022-07-06_09h23.41.366,Colour_Asymmetry_Pilot,2022.1.3,Win32,59.97361161,62c50e9c1127f2cd403a315f,0,150,150,51,1,twofour,,,,,,,,,,,,,,,,,,,,,,,,,,,,,,,,,,,,,,,,,,,,,,,,,,,,,,,,,,,,,,,,,,,,,,,,,,,,,,,,,,,,,,,,,,,,,,,,,,,,,,,,,,,,,,,,,,,,,,,,,,,,,,,,,,,,,,,,,,,,,,,,,,,,,,,,,,,,,
,,,,,,60b29948c3753b3707dffe90,62c5384d34d8ca7f2ad01cdd,2022-07-06_09h23.41.366,Colour_Asymmetry_Pilot,2022.1.3,Win32,59.97361161,62c50e9c1127f2cd403a315f,0,151,151,46,1,fourtwo,,,,,,,,,,,,,,,,,,,,,,,,,,,,,,,,,,,,,,,,,,,,,,,,,,,,,,,,,,,,,,,,,,,,,,,,,,,,,,,,,,,,,,,,,,,,,,,,,,,,,,,,,,,,,,,,,,,,,,,,,,,,,,,,,,,,,,,,,,,,,,,,,,,,,,,,,,,,,
,,,,,,60b29948c3753b3707dffe90,62c5384d34d8ca7f2ad01cdd,2022-07-06_09h23.41.366,Colour_Asymmetry_Pilot,2022.1.3,Win32,59.97361161,62c50e9c1127f2cd403a315f,0,152,152,131,1,twofour,,,,,,,,,,,,,,,,,,,,,,,,,,,,,,,,,,,,,,,,,,,,,,,,,,,,,,,,,,,,,,,,,,,,,,,,,,,,,,,,,,,,,,,,,,,,,,,,,,,,,,,,,,,,,,,,,,,,,,,,,,,,,,,,,,,,,,,,,,,,,,,,,,,,,,,,,,,,,
,,,,,,60b29948c3753b3707dffe90,62c5384d34d8ca7f2ad01cdd,2022-07-06_09h23.41.366,Colour_Asymmetry_Pilot,2022.1.3,Win32,59.97361161,62c50e9c1127f2cd403a315f,0,153,153,98,1,twoone,,,,,,,,,,,,,,,,,,,,,,,,,,,,,,,,,,,,,,,,,,,,,,,,,,,,,,,,,,,,,,,,,,,,,,,,,,,,,,,,,,,,,,,,,,,,,,,,,,,,,,,,,,,,,,,,,,,,,,,,,,,,,,,,,,,,,,,,,,,,,,,,,,,,,,,,,,,,,
,,,,,,60b29948c3753b3707dffe90,62c5384d34d8ca7f2ad01cdd,2022-07-06_09h23.41.366,Colour_Asymmetry_Pilot,2022.1.3,Win32,59.97361161,62c50e9c1127f2cd403a315f,0,154,154,78,1,fourtwo,,,,,,,,,,,,,,,,,,,,,,,,,,,,,,,,,,,,,,,,,,,,,,,,,,,,,,,,,,,,,,,,,,,,,,,,,,,,,,,,,,,,,,,,,,,,,,,,,,,,,,,,,,,,,,,,,,,,,,,,,,,,,,,,,,,,,,,,,,,,,,,,,,,,,,,,,,,,,
,,,,,,60b29948c3753b3707dffe90,62c5384d34d8ca7f2ad01cdd,2022-07-06_09h23.41.366,Colour_Asymmetry_Pilot,2022.1.3,Win32,59.97361161,62c50e9c1127f2cd403a315f,0,155,155,99,1,twofour,,,,,,,,,,,,,,,,,,,,,,,,,,,,,,,,,,,,,,,,,,,,,,,,,,,,,,,,,,,,,,,,,,,,,,,,,,,,,,,,,,,,,,,,,,,,,,,,,,,,,,,,,,,,,,,,,,,,,,,,,,,,,,,,,,,,,,,,,,,,,,,,,,,,,,,,,,,,,
,,,,,,60b29948c3753b3707dffe90,62c5384d34d8ca7f2ad01cdd,2022-07-06_09h23.41.366,Colour_Asymmetry_Pilot,2022.1.3,Win32,59.97361161,62c50e9c1127f2cd403a315f,0,156,156,63,1,fourthree,,,,,,,,,,,,,,,,,,,,,,,,,,,,,,,,,,,,,,,,,,,,,,,,,,,,,,,,,,,,,,,,,,,,,,,,,,,,,,,,,,,,,,,,,,,,,,,,,,,,,,,,,,,,,,,,,,,,,,,,,,,,,,,,,,,,,,,,,,,,,,,,,,,,,,,,,,,,,
,,,,,,60b29948c3753b3707dffe90,62c5384d34d8ca7f2ad01cdd,2022-07-06_09h23.41.366,Colour_Asymmetry_Pilot,2022.1.3,Win32,59.97361161,62c50e9c1127f2cd403a315f,0,157,157,112,1,onetwo,,,,,,,,,,,,,,,,,,,,,,,,,,,,,,,,,,,,,,,,,,,,,,,,,,,,,,,,,,,,,,,,,,,,,,,,,,,,,,,,,,,,,,,,,,,,,,,,,,,,,,,,,,,,,,,,,,,,,,,,,,,,,,,,,,,,,,,,,,,,,,,,,,,,,,,,,,,,,
,,,,,,60b29948c3753b3707dffe90,62c5384d34d8ca7f2ad01cdd,2022-07-06_09h23.41.366,Colour_Asymmetry_Pilot,2022.1.3,Win32,59.97361161,62c50e9c1127f2cd403a315f,0,158,158,34,1,twoone,,,,,,,,,,,,,,,,,,,,,,,,,,,,,,,,,,,,,,,,,,,,,,,,,,,,,,,,,,,,,,,,,,,,,,,,,,,,,,,,,,,,,,,,,,,,,,,,,,,,,,,,,,,,,,,,,,,,,,,,,,,,,,,,,,,,,,,,,,,,,,,,,,,,,,,,,,,,,
,,,,,,60b29948c3753b3707dffe90,62c5384d34d8ca7f2ad01cdd,2022-07-06_09h23.41.366,Colour_Asymmetry_Pilot,2022.1.3,Win32,59.97361161,62c50e9c1127f2cd403a315f,0,159,159,3,1,twofour,,,,,,,,,,,,,,,,,,,,,,,,,,,,,,,,,,,,,,,,,,,,,,,,,,,,,,,,,,,,,,,,,,,,,,,,,,,,,,,,,,,,,,,,,,,,,,,,,,,,,,,,,,,,,,,,,,,,,,,,,,,,,,,,,,,,,,,,,,,,,,,,,,,,,,,,,,,,,
,,,,,,60b29948c3753b3707dffe90,62c5384d34d8ca7f2ad01cdd,2022-07-06_09h23.41.366,Colour_Asymmetry_Pilot,2022.1.3,Win32,59.97361161,62c50e9c1127f2cd403a315f,0,160,160,110,1,fourtwo,,,,,,,,,,,,,,,,,,,,,,,,,,,,,,,,,,,,,,,,,,,,,,,,,,,,,,,,,,,,,,,,,,,,,,,,,,,,,,,,,,,,,,,,,,,,,,,,,,,,,,,,,,,,,,,,,,,,,,,,,,,,,,,,,,,,,,,,,,,,,,,,,,,,,,,,,,,,,
,,,,,,60b29948c3753b3707dffe90,62c5384d34d8ca7f2ad01cdd,2022-07-06_09h23.41.366,Colour_Asymmetry_Pilot,2022.1.3,Win32,59.97361161,62c50e9c1127f2cd403a315f,0,161,161,8,1,onetwo,,,,,,,,,,,,,,,,,,,,,,,,,,,,,,,,,,,,,,,,,,,,,,,,,,,,,,,,,,,,,,,,,,,,,,,,,,,,,,,,,,,,,,,,,,,,,,,,,,,,,,,,,,,,,,,,,,,,,,,,,,,,,,,,,,,,,,,,,,,,,,,,,,,,,,,,,,,,,
,,,,,,60b29948c3753b3707dffe90,62c5384d34d8ca7f2ad01cdd,2022-07-06_09h23.41.366,Colour_Asymmetry_Pilot,2022.1.3,Win32,59.97361161,62c50e9c1127f2cd403a315f,,,,,,,space,6.3552,space,32.2755,space,53.3836,space,18.8962,space,5.2831,space,23.4724,"[-0.4276,0.0038000000000000256,-0.3256]",fourtwo,"[0.9686000000000001,0.3802000000000001,0.19999999999999996]",-2,18.0672,-121,-53,1,0,0,response5disk_5,-13,4,1,0,0,rectangle_8,-13,4,1,0,0,2,-13,4,1,0,0,0,0,0,0,1,,,,,,,,,,,,,,,,,,,,,,,,,,,,,,,,,,,,,,,,,,,,,,,,,,,,,,,,,,,,,,,,,,,,,,,,,,,,,,,,,,,,,,,,,,,,,,,,,,,,,,,,,,,,,,,,
,,,,,,60b29948c3753b3707dffe90,62c5384d34d8ca7f2ad01cdd,2022-07-06_09h23.41.366,Colour_Asymmetry_Pilot,2022.1.3,Win32,59.97361161,62c50e9c1127f2cd403a315f,,,,,,,,,,,,,,,,,,,"[0.7646000000000002,0.07440000000000002,0.2704]",threefour,"[0.37240000000000006,0.4980000000000002,-0.2864]",-1,4.3521,-58,-131,1,0,0,response5disk_5,6,1,1,0,0,rectangle_8,6,1,1,0,0,2,6,1,1,0,0,1,0,1,0,1,,,,,,,,,,,,,,,,,,,,,,,,,,,,,,,,,,,,,,,,,,,,,,,,,,,,,,,,,,,,,,,,,,,,,,,,,,,,,,,,,,,,,,,,,,,,,,,,,,,,,,,,,,,,,,,,
,,,,,,60b29948c3753b3707dffe90,62c5384d34d8ca7f2ad01cdd,2022-07-06_09h23.41.366,Colour_Asymmetry_Pilot,2022.1.3,Win32,59.97361161,62c50e9c1127f2cd403a315f,,,,,,,,,,,,,,,,,,,"[0.796,0.2156,-0.27859999999999996]",twofour,"[0.3568,-0.20799999999999996,-0.9844]",3,6.3337,145,64,1,0,0,response1disk_5,15,16,1,0,0,rectangle_8,135,-54,1,0,0,2,24,-2,1,0,0,2,0,2,0,1,response3disk_7,5,rectangle_4,,,,,,,,,,,,,,,,,,,,,,,,,,,,,,,,,,,,,,,,,,,,,,,,,,,,,,,,,,,,,,,,,,,,,,,,,,,,,,,,,,,,,,,,,,,,,,,,,,,,,,,,,,,,,
,,,,,,60b29948c3753b3707dffe90,62c5384d34d8ca7f2ad01cdd,2022-07-06_09h23.41.366,Colour_Asymmetry_Pilot,2022.1.3,Win32,59.97361161,62c50e9c1127f2cd403a315f,,,,,,,,,,,,,,,,,,,"[0.5449999999999999,-0.31000000000000005,-0.0354000000000001]",twofour,"[0.04299999999999993,0.16060000000000008,-0.6628000000000001]",-4,2.4179,-40,89,1,0,0,response7disk_5,-1,-17,1,0,0,rectangle_8,-1,-17,1,0,0,2,-1,-17,1,0,0,3,0,3,0,1,,,,,,,,,,,,,,,,,,,,,,,,,,,,,,,,,,,,,,,,,,,,,,,,,,,,,,,,,,,,,,,,,,,,,,,,,,,,,,,,,,,,,,,,,,,,,,,,,,,,,,,,,,,,,,,,
,,,,,,60b29948c3753b3707dffe90,62c5384d34d8ca7f2ad01cdd,2022-07-06_09h23.41.366,Colour_Asymmetry_Pilot,2022.1.3,Win32,59.97361161,62c50e9c1127f2cd403a315f,,,,,,,,,,,,,,,,,,,"[-0.4746,-0.0354000000000001,0.5449999999999999]",fourtwo,"[0.23920000000000008,0.2704,0.16060000000000008]",-4,2.5499,-43,127,1,0,0,response7disk_5,-5,-13,1,0,0,rectangle_8,-5,-13,1,0,0,2,-5,-13,1,0,0,4,0,4,0,1,,,,,,,,,,,,,,,,,,,,,,,,,,,,,,,,,,,,,,,,,,,,,,,,,,,,,,,,,,,,,,,,,,,,,,,,,,,,,,,,,,,,,,,,,,,,,,,,,,,,,,,,,,,,,,,,
,,,,,,60b29948c3753b3707dffe90,62c5384d34d8ca7f2ad01cdd,2022-07-06_09h23.41.366,Colour_Asymmetry_Pilot,2022.1.3,Win32,59.97361161,62c50e9c1127f2cd403a315f,,,,,,,,,,,,,,,,,,,"[0.6625999999999999,0.4980000000000002,-0.357]",twoone,"[0.9372,0.20779999999999998,0.2704]",-3,2.1663,-100,58,1,0,0,response7disk_5,-16,-10,1,0,0,rectangle_8,-16,-10,1,0,0,2,-16,-10,1,0,0,5,0,5,0,1,,,,,,,,,,,,,,,,,,,,,,,,,,,,,,,,,,,,,,,,,,,,,,,,,,,,,,,,,,,,,,,,,,,,,,,,,,,,,,,,,,,,,,,,,,,,,,,,,,,,,,,,,,,,,,,,
,,,,,,60b29948c3753b3707dffe90,62c5384d34d8ca7f2ad01cdd,2022-07-06_09h23.41.366,Colour_Asymmetry_Pilot,2022.1.3,Win32,59.97361161,62c50e9c1127f2cd403a315f,,,,,,,,,,,,,,,,,,,"[0.34099999999999997,0.5841999999999998,-0.9844]",twoone,"[-0.8198,-0.5138,-0.7492000000000001]",1,3.0503,61,-148,1,0,0,response3disk_5,-28,-8,1,0,0,rectangle_8,-28,-8,1,0,0,2,-28,-8,1,0,0,6,0,6,0,1,,,,,,,,,,,,,,,,,,,,,,,,,,,,,,,,,,,,,,,,,,,,,,,,,,,,,,,,,,,,,,,,,,,,,,,,,,,,,,,,,,,,,,,,,,,,,,,,,,,,,,,,,,,,,,,,
,,,,,,60b29948c3753b3707dffe90,62c5384d34d8ca7f2ad01cdd,2022-07-06_09h23.41.366,Colour_Asymmetry_Pilot,2022.1.3,Win32,59.97361161,62c50e9c1127f2cd403a315f,,,,,,,,,,,,,,,,,,,,fourtwo,,-3,2.1665,,,,,,,,,,,,,,,,,,,,,,,,,,,,,,,,space,4.9473,"[0.37240000000000006,0.4980000000000002,-0.2864]","[0.18419999999999992,-0.4276,-0.404]",-108,39,1,0,0,response7disk,-5,-12,1,0,0,rectangle,-5,-12,1,0,0,,3,0.0017,0,-5,-12,1,0,0,0,0,0,7,1,7,first,,,,,,,,,,,,,,,,,,,,,,,,,,,,,,,,,,,,,,,,,,,,,,,,,,,,,,,,,,,,,,,,,,,,,,,,
,,,,,,60b29948c3753b3707dffe90,62c5384d34d8ca7f2ad01cdd,2022-07-06_09h23.41.366,Colour_Asymmetry_Pilot,2022.1.3,Win32,59.97361161,62c50e9c1127f2cd403a315f,,,,,,,,,,,,,,,,,,,,twofour,,-3,2.0502,,,,,,,,,,,,,,,,,,,,,,,,,,,,,,,,,,"[0.6547999999999998,-0.043199999999999905,-0.011800000000000033]","[-0.17659999999999998,-0.2864,-0.8354]",-112,49,1,0,0,response7disk,-29,-1,1,0,0,rectangle,-29,-1,1,0,0,,1,0.0012,0,-29,-1,1,0,0,0,1,1,129,1,48,second,,,,,,,,,,,,,,,,,,,,,,,,,,,,,,,,,,,,,,,,,,,,,,,,,,,,,,,,,,,,,,,,,,,,,,,,
,,,,,,60b29948c3753b3707dffe90,62c5384d34d8ca7f2ad01cdd,2022-07-06_09h23.41.366,Colour_Asymmetry_Pilot,2022.1.3,Win32,59.97361161,62c50e9c1127f2cd403a315f,,,,,,,,,,,,,,,,,,,,fourthree,,3,1.3322,,,,,,,,,,,,,,,,,,,,,,,,,,,,,,,,,,"[0.22340000000000004,-0.9296,-0.7884]","[-0.2942,-0.7648,-0.7492000000000001]",128,46,1,0,0,response1disk,10,-6,1,0,0,rectangle,10,-6,1,0,0,,3,0.0019,0,10,-6,1,0,0,0,2,2,30,1,30,first,,,,,,,,,,,,,,,,,,,,,,,,,,,,,,,,,,,,,,,,,,,,,,,,,,,,,,,,,,,,,,,,,,,,,,,,
,,,,,,60b29948c3753b3707dffe90,62c5384d34d8ca7f2ad01cdd,2022-07-06_09h23.41.366,Colour_Asymmetry_Pilot,2022.1.3,Win32,59.97361161,62c50e9c1127f2cd403a315f,,,,,,,,,,,,,,,,,,,,threefour,,-4,1.3318,,,,,,,,,,,,,,,,,,,,,,,,,,,,,,,,,,"[0.4196,0.4665999999999999,0.3568]","[0.8274000000000001,-0.5844,-0.9452]",-54,73,1,0,0,response7disk,-16,-14,1,0,0,rectangle,-16,-14,1,0,0,,1,0.0016,0,-16,-14,1,0,0,0,3,3,106,1,25,second,,,,,,,,,,,,,,,,,,,,,,,,,,,,,,,,,,,,,,,,,,,,,,,,,,,,,,,,,,,,,,,,,,,,,,,,
,,,,,,60b29948c3753b3707dffe90,62c5384d34d8ca7f2ad01cdd,2022-07-06_09h23.41.366,Colour_Asymmetry_Pilot,2022.1.3,Win32,59.97361161,62c50e9c1127f2cd403a315f,,,,,,,,,,,,,,,,,,,,fourthree,,-4,1.2999,,,,,,,,,,,,,,,,,,,,,,,,,,,,,,,,,,"[-0.6942,-0.7648,-0.12959999999999994]","[0.0351999999999999,0.41159999999999997,0.0038000000000000256]",-50,76,1,0,0,response7disk,14,-8,1,0,0,rectangle,14,-8,1,0,0,,1,0.0002,0,14,-8,1,0,0,0,4,4,118,1,37,second,,,,,,,,,,,,,,,,,,,,,,,,,,,,,,,,,,,,,,,,,,,,,,,,,,,,,,,,,,,,,,,,,,,,,,,,
,,,,,,60b29948c3753b3707dffe90,62c5384d34d8ca7f2ad01cdd,2022-07-06_09h23.41.366,Colour_Asymmetry_Pilot,2022.1.3,Win32,59.97361161,62c50e9c1127f2cd403a315f,,,,,,,,,,,,,,,,,,,,onethree,,-4,0.7834,,,,,,,,,,,,,,,,,,,,,,,,,,,,,,,,,,"[0.9763999999999999,0.30979999999999985,-0.6786]","[0.5449999999999999,-0.31000000000000005,-0.0354000000000001]",-43,88,1,0,0,response7disk,0,-8,1,0,0,rectangle,0,-8,1,0,0,,3,0.0015,0,0,-8,1,0,0,0,5,5,53,1,53,first,,,,,,,,,,,,,,,,,,,,,,,,,,,,,,,,,,,,,,,,,,,,,,,,,,,,,,,,,,,,,,,,,,,,,,,,
,,,,,,60b29948c3753b3707dffe90,62c5384d34d8ca7f2ad01cdd,2022-07-06_09h23.41.366,Colour_Asymmetry_Pilot,2022.1.3,Win32,59.97361161,62c50e9c1127f2cd403a315f,,,,,,,,,,,,,,,,,,,,twoone,,3,1.0848,,,,,,,,,,,,,,,,,,,,,,,,,,,,,,,,,,"[0.5528,0.7409999999999999,-0.71]","[0.9842,0.7409999999999999,-0.6628000000000001]",93,74,1,0,0,response1disk,36,19,1,0,0,rectangle,36,19,1,0,0,,1,0.002,0,36,19,1,0,0,0,6,6,158,1,77,second,,,,,,,,,,,,,,,,,,,,,,,,,,,,,,,,,,,,,,,,,,,,,,,,,,,,,,,,,,,,,,,,,,,,,,,,
,,,,,,60b29948c3753b3707dffe90,62c5384d34d8ca7f2ad01cdd,2022-07-06_09h23.41.366,Colour_Asymmetry_Pilot,2022.1.3,Win32,59.97361161,62c50e9c1127f2cd403a315f,,,,,,,,,,,,,,,,,,,,onethree,,-4,0.7502,,,,,,,,,,,,,,,,,,,,,,,,,,,,,,,,,,"[0.7802,-0.23140000000000005,-0.20799999999999996]","[-0.9688,-0.38039999999999996,-0.41979999999999995]",-70,96,1,0,0,response7disk,-16,-2,1,0,0,rectangle,-16,-2,1,0,0,,3,0.0025,0,-16,-2,1,0,0,0,7,7,150,1,69,second,,,,,,,,,,,,,,,,,,,,,,,,,,,,,,,,,,,,,,,,,,,,,,,,,,,,,,,,,,,,,,,,,,,,,,,,
,,,,,,60b29948c3753b3707dffe90,62c5384d34d8ca7f2ad01cdd,2022-07-06_09h23.41.366,Colour_Asymmetry_Pilot,2022.1.3,Win32,59.97361161,62c50e9c1127f2cd403a315f,,,,,,,,,,,,,,,,,,,,twoone,,-4,0.6177,,,,,,,,,,,,,,,,,,,,,,,,,,,,,,,,,,"[0.7018,0.7802,-0.16079999999999994]","[-0.6235999999999999,-0.6786,-0.08239999999999992]",-71,137,1,0,0,response7disk,-1,-10,1,0,0,rectangle,-1,-10,1,0,0,,1,0.0018,0,-1,-10,1,0,0,0,8,8,85,1,4,second,,,,,,,,,,,,,,,,,,,,,,,,,,,,,,,,,,,,,,,,,,,,,,,,,,,,,,,,,,,,,,,,,,,,,,,,
,,,,,,60b29948c3753b3707dffe90,62c5384d34d8ca7f2ad01cdd,2022-07-06_09h23.41.366,Colour_Asymmetry_Pilot,2022.1.3,Win32,59.97361161,62c50e9c1127f2cd403a315f,,,,,,,,,,,,,,,,,,,,twoone,,3,1.2161,,,,,,,,,,,,,,,,,,,,,,,,,,,,,,,,,,"[0.22340000000000004,-0.9296,-0.7884]","[0.30180000000000007,-0.7884,-0.9844]",125,50,1,0,0,response1disk,27,-5,1,0,0,rectangle,27,-5,1,0,0,,1,0.0003,0,27,-5,1,0,0,0,9,9,79,1,79,first,,,,,,,,,,,,,,,,,,,,,,,,,,,,,,,,,,,,,,,,,,,,,,,,,,,,,,,,,,,,,,,,,,,,,,,,
,,,,,,60b29948c3753b3707dffe90,62c5384d34d8ca7f2ad01cdd,2022-07-06_09h23.41.366,Colour_Asymmetry_Pilot,2022.1.3,Win32,59.97361161,62c50e9c1127f2cd403a315f,,,,,,,,,,,,,,,,,,,,onethree,,3,0.6163,,,,,,,,,,,,,,,,,,,,,,,,,,,,,,,,,,"[-0.2942,-0.24719999999999998,-0.357]","[-0.07459999999999989,0.12139999999999995,-0.9922]",104,40,1,0,0,response1disk,-13,-11,1,0,0,rectangle,126,-70,1,0,0,2,2,4.4807,1,15,-11,1,0,0,0,10,10,104,1,23,second,response3disk_3,rectangle,,,,,,,,,,,,,,,,,,,,,,,,,,,,,,,,,,,,,,,,,,,,,,,,,,,,,,,,,,,,,,,,,,,,,,
,,,,,,60b29948c3753b3707dffe90,62c5384d34d8ca7f2ad01cdd,2022-07-06_09h23.41.366,Colour_Asymmetry_Pilot,2022.1.3,Win32,59.97361161,62c50e9c1127f2cd403a315f,,,,,,,,,,,,,,,,,,,,twofour,,-3,1.1339,,,,,,,,,,,,,,,,,,,,,,,,,,,,,,,,,,"[-0.9688,-0.38039999999999996,-0.41979999999999995]","[0.7802,-0.23140000000000005,-0.20799999999999996]",-114,56,1,0,0,response7disk,-7,-8,1,0,0,rectangle,-7,-8,1,0,0,2,1,0.0014,0,-7,-8,1,0,0,0,11,11,69,1,69,first,,,,,,,,,,,,,,,,,,,,,,,,,,,,,,,,,,,,,,,,,,,,,,,,,,,,,,,,,,,,,,,,,,,,,,,,
,,,,,,60b29948c3753b3707dffe90,62c5384d34d8ca7f2ad01cdd,2022-07-06_09h23.41.366,Colour_Asymmetry_Pilot,2022.1.3,Win32,59.97361161,62c50e9c1127f2cd403a315f,,,,,,,,,,,,,,,,,,,,fourtwo,,1,1.1994,,,,,,,,,,,,,,,,,,,,,,,,,,,,,,,,,,"[-0.4276,0.0038000000000000256,-0.3256]","[-0.2942,-0.24719999999999998,-0.357]",46,-126,1,0,0,response3disk,8,-7,1,0,0,rectangle,8,-7,1,0,0,2,3,0.0014,0,8,-7,1,0,0,0,12,12,103,1,22,second,,,,,,,,,,,,,,,,,,,,,,,,,,,,,,,,,,,,,,,,,,,,,,,,,,,,,,,,,,,,,,,,,,,,,,,,
,,,,,,60b29948c3753b3707dffe90,62c5384d34d8ca7f2ad01cdd,2022-07-06_09h23.41.366,Colour_Asymmetry_Pilot,2022.1.3,Win32,59.97361161,62c50e9c1127f2cd403a315f,,,,,,,,,,,,,,,,,,,,onetwo,,-4,0.4993,,,,,,,,,,,,,,,,,,,,,,,,,,,,,,,,,,"[0.6547999999999998,-0.043199999999999905,-0.011800000000000033]","[-0.9766,-0.34920000000000007,0.2156]",-67,100,1,0,0,response7disk,5,-10,1,0,0,rectangle,5,-10,1,0,0,2,3,0.0001,0,5,-10,1,0,0,0,13,13,80,1,80,first,,,,,,,,,,,,,,,,,,,,,,,,,,,,,,,,,,,,,,,,,,,,,,,,,,,,,,,,,,,,,,,,,,,,,,,,
,,,,,,60b29948c3753b3707dffe90,62c5384d34d8ca7f2ad01cdd,2022-07-06_09h23.41.366,Colour_Asymmetry_Pilot,2022.1.3,Win32,59.97361161,62c50e9c1127f2cd403a315f,,,,,,,,,,,,,,,,,,,,onethree,,-4,0.5328,,,,,,,,,,,,,,,,,,,,,,,,,,,,,,,,,,"[0.37240000000000006,0.4980000000000002,-0.2864]","[0.7802,-0.23140000000000005,-0.20799999999999996]",-50,82,1,0,0,response7disk,11,-7,1,0,0,rectangle,11,-7,1,0,0,2,3,0.0002,0,11,-7,1,0,0,0,14,14,27,1,27,first,,,,,,,,,,,,,,,,,,,,,,,,,,,,,,,,,,,,,,,,,,,,,,,,,,,,,,,,,,,,,,,,,,,,,,,,
,,,,,,60b29948c3753b3707dffe90,62c5384d34d8ca7f2ad01cdd,2022-07-06_09h23.41.366,Colour_Asymmetry_Pilot,2022.1.3,Win32,59.97361161,62c50e9c1127f2cd403a315f,,,,,,,,,,,,,,,,,,,,twofour,,-4,0.5001,,,,,,,,,,,,,,,,,,,,,,,,,,,,,,,,,,"[0.0351999999999999,0.41159999999999997,0.0038000000000000256]","[-0.8118,-0.8198,-0.5452]",-42,119,1,0,0,response7disk,-10,4,1,0,0,rectangle,-10,4,1,0,0,2,2,0.0024,0,-10,4,1,0,0,0,15,15,78,1,78,first,,,,,,,,,,,,,,,,,,,,,,,,,,,,,,,,,,,,,,,,,,,,,,,,,,,,,,,,,,,,,,,,,,,,,,,,
,,,,,,60b29948c3753b3707dffe90,62c5384d34d8ca7f2ad01cdd,2022-07-06_09h23.41.366,Colour_Asymmetry_Pilot,2022.1.3,Win32,59.97361161,62c50e9c1127f2cd403a315f,,,,,,,,,,,,,,,,,,,,twofour,,-1,2.4828,,,,,,,,,,,,,,,,,,,,,,,,,,,,,,,,,,"[0.19199999999999995,0.18419999999999992,0.5136000000000001]","[-0.9688,-0.4902000000000001,-0.12159999999999993]",-45,-123,1,0,0,response5disk,-12,-4,1,0,0,rectangle,-12,-4,1,0,0,2,1,0.0014,0,-12,-4,1,0,0,0,16,16,92,1,11,second,,,,,,,,,,,,,,,,,,,,,,,,,,,,,,,,,,,,,,,,,,,,,,,,,,,,,,,,,,,,,,,,,,,,,,,,
,,,,,,60b29948c3753b3707dffe90,62c5384d34d8ca7f2ad01cdd,2022-07-06_09h23.41.366,Colour_Asymmetry_Pilot,2022.1.3,Win32,59.97361161,62c50e9c1127f2cd403a315f,,,,,,,,,,,,,,,,,,,,threeone,,-4,0.6359,,,,,,,,,,,,,,,,,,,,,,,,,,,,,,,,,,"[-0.6235999999999999,-0.6786,-0.08239999999999992]","[0.7018,0.7802,-0.16079999999999994]",-44,82,1,0,0,response7disk,-5,3,1,0,0,rectangle,-5,3,1,0,0,2,3,0.0013,0,-5,3,1,0,0,0,17,17,4,1,4,first,,,,,,,,,,,,,,,,,,,,,,,,,,,,,,,,,,,,,,,,,,,,,,,,,,,,,,,,,,,,,,,,,,,,,,,,
