trials.thisRepN,trials.thisTrialN,trials.thisN,trials.thisIndex,trials.ran,Colourcodes,participant,session,date,expName,psychopyVersion,OS,frameRate,study_id,trials_4.thisRepN,trials_4.thisTrialN,trials_4.thisN,trials_4.thisIndex,trials_4.ran,StimulusPos,key_resp.keys,key_resp.rt,key_resp_2.keys,key_resp_2.rt,key_resp_15.keys,key_resp_15.rt,key_resp_17.keys,key_resp_17.rt,key_resp_9.keys,key_resp_9.rt,key_resp_10.keys,key_resp_10.rt,Circle1_col,Ecc,Circle2_col,similarity,response_time,mouse_5.x,mouse_5.y,mouse_5.leftButton,mouse_5.midButton,mouse_5.rightButton,mouse_5.clicked_name,mouse_10.x,mouse_10.y,mouse_10.leftButton,mouse_10.midButton,mouse_10.rightButton,mouse_10.clicked_name,mouse_7.x,mouse_7.y,mouse_7.leftButton,mouse_7.midButton,mouse_7.rightButton,mouse_7.clicked_name,catchprac,catchnumberprac,mouse_6.x,mouse_6.y,mouse_6.leftButton,mouse_6.midButton,mouse_6.rightButton,mouse_6.clicked_name,duringprac.thisRepN,duringprac.thisTrialN,duringprac.thisN,duringprac.thisIndex,duringprac.ran,key_resp_22.keys,key_resp_22.rt,Circle1_colour,Circle2_colour,mouse.x,mouse.y,mouse.leftButton,mouse.midButton,mouse.rightButton,mouse.clicked_name,mouse_2.x,mouse_2.y,mouse_2.leftButton,mouse_2.midButton,mouse_2.rightButton,mouse_2.clicked_name,mouse_3.x,mouse_3.y,mouse_3.leftButton,mouse_3.midButton,mouse_3.rightButton,catchresponse,catchnumber,response_time_catch,Catch,mouse_11.x,mouse_11.y,mouse_11.leftButton,mouse_11.midButton,mouse_11.rightButton,trials_2.thisRepN,trials_2.thisTrialN,trials_2.thisN,trials_2.thisIndex,trials_2.ran,Colourpair,Temporder,mouse_3.clicked_name,mouse_11.clicked_name,trials_3.thisRepN,trials_3.thisTrialN,trials_3.thisN,trials_3.thisIndex,trials_3.ran,key_resp_instr_Ishi.keys,key_resp_instr_Ishi.rt,Ishi_trial_keyresp.keys,Ishi_textbox.text,Ishi_mouse.x,Ishi_mouse.y,Ishi_mouse.leftButton,Ishi_mouse.midButton,Ishi_mouse.rightButton,Ishi_mouse.clicked_name,Ishi_loop.thisRepN,Ishi_loop.thisTrialN,Ishi_loop.thisN,Ishi_loop.thisIndex,Ishi_loop.ran,imageaddress,textbox.text,mouse_4.x,mouse_4.y,mouse_4.leftButton,mouse_4.midButton,mouse_4.rightButton,mouse_4.clicked_name,textbox_2.text,mouse_8.x,mouse_8.y,mouse_8.leftButton,mouse_8.midButton,mouse_8.rightButton,mouse_8.clicked_name,textbox_3.text,mouse_9.x,mouse_9.y,mouse_9.leftButton,mouse_9.midButton,mouse_9.rightButton,mouse_9.clicked_name,textbox_4.text,mouse_12.x,mouse_12.y,mouse_12.leftButton,mouse_12.midButton,mouse_12.rightButton,mouse_12.clicked_name,textbox_5.text,mouse_13.x,mouse_13.y,mouse_13.leftButton,mouse_13.midButton,mouse_13.rightButton,mouse_13.clicked_name,textbox_6.text,mouse_14.x,mouse_14.y,mouse_14.leftButton,mouse_14.midButton,mouse_14.rightButton,mouse_14.clicked_name,textbox_7.text,mouse_15.x,mouse_15.y,mouse_15.leftButton,mouse_15.midButton,mouse_15.rightButton,mouse_15.clicked_name
0,0,0,7,1,,60ede6577c93b8e4d7f6bbdf,62c538d74f260ff71db91f20,2022-07-06_08h25.40.070,Colour_Asymmetry_Pilot,2022.1.3,Win32,143.5544071,62c50e9c1127f2cd403a315f,,,,,,,,,,,,,,,,,,,,,,,,,,,,,,,,,,,,,,,,,,,,,,,,,,,,,,,,,,,,,,,,,,,,,,,,,,,,,,,,,,,,,,,,,,,,,,,,,,,,,,,,,,,,,,,,,,,,,,,,,,,,,,,,,,,,,,,,,,,,,,,,,,,,,,,,,,,,,,,,,,,
0,1,1,69,1,,60ede6577c93b8e4d7f6bbdf,62c538d74f260ff71db91f20,2022-07-06_08h25.40.070,Colour_Asymmetry_Pilot,2022.1.3,Win32,143.5544071,62c50e9c1127f2cd403a315f,,,,,,,,,,,,,,,,,,,,,,,,,,,,,,,,,,,,,,,,,,,,,,,,,,,,,,,,,,,,,,,,,,,,,,,,,,,,,,,,,,,,,,,,,,,,,,,,,,,,,,,,,,,,,,,,,,,,,,,,,,,,,,,,,,,,,,,,,,,,,,,,,,,,,,,,,,,,,,,,,,,
0,2,2,22,1,,60ede6577c93b8e4d7f6bbdf,62c538d74f260ff71db91f20,2022-07-06_08h25.40.070,Colour_Asymmetry_Pilot,2022.1.3,Win32,143.5544071,62c50e9c1127f2cd403a315f,,,,,,,,,,,,,,,,,,,,,,,,,,,,,,,,,,,,,,,,,,,,,,,,,,,,,,,,,,,,,,,,,,,,,,,,,,,,,,,,,,,,,,,,,,,,,,,,,,,,,,,,,,,,,,,,,,,,,,,,,,,,,,,,,,,,,,,,,,,,,,,,,,,,,,,,,,,,,,,,,,,
0,3,3,91,1,,60ede6577c93b8e4d7f6bbdf,62c538d74f260ff71db91f20,2022-07-06_08h25.40.070,Colour_Asymmetry_Pilot,2022.1.3,Win32,143.5544071,62c50e9c1127f2cd403a315f,,,,,,,,,,,,,,,,,,,,,,,,,,,,,,,,,,,,,,,,,,,,,,,,,,,,,,,,,,,,,,,,,,,,,,,,,,,,,,,,,,,,,,,,,,,,,,,,,,,,,,,,,,,,,,,,,,,,,,,,,,,,,,,,,,,,,,,,,,,,,,,,,,,,,,,,,,,,,,,,,,,
0,4,4,55,1,,60ede6577c93b8e4d7f6bbdf,62c538d74f260ff71db91f20,2022-07-06_08h25.40.070,Colour_Asymmetry_Pilot,2022.1.3,Win32,143.5544071,62c50e9c1127f2cd403a315f,,,,,,,,,,,,,,,,,,,,,,,,,,,,,,,,,,,,,,,,,,,,,,,,,,,,,,,,,,,,,,,,,,,,,,,,,,,,,,,,,,,,,,,,,,,,,,,,,,,,,,,,,,,,,,,,,,,,,,,,,,,,,,,,,,,,,,,,,,,,,,,,,,,,,,,,,,,,,,,,,,,
0,5,5,9,1,,60ede6577c93b8e4d7f6bbdf,62c538d74f260ff71db91f20,2022-07-06_08h25.40.070,Colour_Asymmetry_Pilot,2022.1.3,Win32,143.5544071,62c50e9c1127f2cd403a315f,,,,,,,,,,,,,,,,,,,,,,,,,,,,,,,,,,,,,,,,,,,,,,,,,,,,,,,,,,,,,,,,,,,,,,,,,,,,,,,,,,,,,,,,,,,,,,,,,,,,,,,,,,,,,,,,,,,,,,,,,,,,,,,,,,,,,,,,,,,,,,,,,,,,,,,,,,,,,,,,,,,
0,6,6,81,1,,60ede6577c93b8e4d7f6bbdf,62c538d74f260ff71db91f20,2022-07-06_08h25.40.070,Colour_Asymmetry_Pilot,2022.1.3,Win32,143.5544071,62c50e9c1127f2cd403a315f,,,,,,,,,,,,,,,,,,,,,,,,,,,,,,,,,,,,,,,,,,,,,,,,,,,,,,,,,,,,,,,,,,,,,,,,,,,,,,,,,,,,,,,,,,,,,,,,,,,,,,,,,,,,,,,,,,,,,,,,,,,,,,,,,,,,,,,,,,,,,,,,,,,,,,,,,,,,,,,,,,,
0,7,7,40,1,,60ede6577c93b8e4d7f6bbdf,62c538d74f260ff71db91f20,2022-07-06_08h25.40.070,Colour_Asymmetry_Pilot,2022.1.3,Win32,143.5544071,62c50e9c1127f2cd403a315f,,,,,,,,,,,,,,,,,,,,,,,,,,,,,,,,,,,,,,,,,,,,,,,,,,,,,,,,,,,,,,,,,,,,,,,,,,,,,,,,,,,,,,,,,,,,,,,,,,,,,,,,,,,,,,,,,,,,,,,,,,,,,,,,,,,,,,,,,,,,,,,,,,,,,,,,,,,,,,,,,,,
0,8,8,64,1,,60ede6577c93b8e4d7f6bbdf,62c538d74f260ff71db91f20,2022-07-06_08h25.40.070,Colour_Asymmetry_Pilot,2022.1.3,Win32,143.5544071,62c50e9c1127f2cd403a315f,,,,,,,,,,,,,,,,,,,,,,,,,,,,,,,,,,,,,,,,,,,,,,,,,,,,,,,,,,,,,,,,,,,,,,,,,,,,,,,,,,,,,,,,,,,,,,,,,,,,,,,,,,,,,,,,,,,,,,,,,,,,,,,,,,,,,,,,,,,,,,,,,,,,,,,,,,,,,,,,,,,
0,9,9,67,1,,60ede6577c93b8e4d7f6bbdf,62c538d74f260ff71db91f20,2022-07-06_08h25.40.070,Colour_Asymmetry_Pilot,2022.1.3,Win32,143.5544071,62c50e9c1127f2cd403a315f,,,,,,,,,,,,,,,,,,,,,,,,,,,,,,,,,,,,,,,,,,,,,,,,,,,,,,,,,,,,,,,,,,,,,,,,,,,,,,,,,,,,,,,,,,,,,,,,,,,,,,,,,,,,,,,,,,,,,,,,,,,,,,,,,,,,,,,,,,,,,,,,,,,,,,,,,,,,,,,,,,,
0,10,10,4,1,,60ede6577c93b8e4d7f6bbdf,62c538d74f260ff71db91f20,2022-07-06_08h25.40.070,Colour_Asymmetry_Pilot,2022.1.3,Win32,143.5544071,62c50e9c1127f2cd403a315f,,,,,,,,,,,,,,,,,,,,,,,,,,,,,,,,,,,,,,,,,,,,,,,,,,,,,,,,,,,,,,,,,,,,,,,,,,,,,,,,,,,,,,,,,,,,,,,,,,,,,,,,,,,,,,,,,,,,,,,,,,,,,,,,,,,,,,,,,,,,,,,,,,,,,,,,,,,,,,,,,,,
0,11,11,36,1,,60ede6577c93b8e4d7f6bbdf,62c538d74f260ff71db91f20,2022-07-06_08h25.40.070,Colour_Asymmetry_Pilot,2022.1.3,Win32,143.5544071,62c50e9c1127f2cd403a315f,,,,,,,,,,,,,,,,,,,,,,,,,,,,,,,,,,,,,,,,,,,,,,,,,,,,,,,,,,,,,,,,,,,,,,,,,,,,,,,,,,,,,,,,,,,,,,,,,,,,,,,,,,,,,,,,,,,,,,,,,,,,,,,,,,,,,,,,,,,,,,,,,,,,,,,,,,,,,,,,,,,
0,12,12,66,1,,60ede6577c93b8e4d7f6bbdf,62c538d74f260ff71db91f20,2022-07-06_08h25.40.070,Colour_Asymmetry_Pilot,2022.1.3,Win32,143.5544071,62c50e9c1127f2cd403a315f,,,,,,,,,,,,,,,,,,,,,,,,,,,,,,,,,,,,,,,,,,,,,,,,,,,,,,,,,,,,,,,,,,,,,,,,,,,,,,,,,,,,,,,,,,,,,,,,,,,,,,,,,,,,,,,,,,,,,,,,,,,,,,,,,,,,,,,,,,,,,,,,,,,,,,,,,,,,,,,,,,,
0,13,13,12,1,,60ede6577c93b8e4d7f6bbdf,62c538d74f260ff71db91f20,2022-07-06_08h25.40.070,Colour_Asymmetry_Pilot,2022.1.3,Win32,143.5544071,62c50e9c1127f2cd403a315f,,,,,,,,,,,,,,,,,,,,,,,,,,,,,,,,,,,,,,,,,,,,,,,,,,,,,,,,,,,,,,,,,,,,,,,,,,,,,,,,,,,,,,,,,,,,,,,,,,,,,,,,,,,,,,,,,,,,,,,,,,,,,,,,,,,,,,,,,,,,,,,,,,,,,,,,,,,,,,,,,,,
0,14,14,60,1,,60ede6577c93b8e4d7f6bbdf,62c538d74f260ff71db91f20,2022-07-06_08h25.40.070,Colour_Asymmetry_Pilot,2022.1.3,Win32,143.5544071,62c50e9c1127f2cd403a315f,,,,,,,,,,,,,,,,,,,,,,,,,,,,,,,,,,,,,,,,,,,,,,,,,,,,,,,,,,,,,,,,,,,,,,,,,,,,,,,,,,,,,,,,,,,,,,,,,,,,,,,,,,,,,,,,,,,,,,,,,,,,,,,,,,,,,,,,,,,,,,,,,,,,,,,,,,,,,,,,,,,
0,15,15,21,1,,60ede6577c93b8e4d7f6bbdf,62c538d74f260ff71db91f20,2022-07-06_08h25.40.070,Colour_Asymmetry_Pilot,2022.1.3,Win32,143.5544071,62c50e9c1127f2cd403a315f,,,,,,,,,,,,,,,,,,,,,,,,,,,,,,,,,,,,,,,,,,,,,,,,,,,,,,,,,,,,,,,,,,,,,,,,,,,,,,,,,,,,,,,,,,,,,,,,,,,,,,,,,,,,,,,,,,,,,,,,,,,,,,,,,,,,,,,,,,,,,,,,,,,,,,,,,,,,,,,,,,,
0,16,16,89,1,,60ede6577c93b8e4d7f6bbdf,62c538d74f260ff71db91f20,2022-07-06_08h25.40.070,Colour_Asymmetry_Pilot,2022.1.3,Win32,143.5544071,62c50e9c1127f2cd403a315f,,,,,,,,,,,,,,,,,,,,,,,,,,,,,,,,,,,,,,,,,,,,,,,,,,,,,,,,,,,,,,,,,,,,,,,,,,,,,,,,,,,,,,,,,,,,,,,,,,,,,,,,,,,,,,,,,,,,,,,,,,,,,,,,,,,,,,,,,,,,,,,,,,,,,,,,,,,,,,,,,,,
0,17,17,78,1,,60ede6577c93b8e4d7f6bbdf,62c538d74f260ff71db91f20,2022-07-06_08h25.40.070,Colour_Asymmetry_Pilot,2022.1.3,Win32,143.5544071,62c50e9c1127f2cd403a315f,,,,,,,,,,,,,,,,,,,,,,,,,,,,,,,,,,,,,,,,,,,,,,,,,,,,,,,,,,,,,,,,,,,,,,,,,,,,,,,,,,,,,,,,,,,,,,,,,,,,,,,,,,,,,,,,,,,,,,,,,,,,,,,,,,,,,,,,,,,,,,,,,,,,,,,,,,,,,,,,,,,
0,18,18,70,1,,60ede6577c93b8e4d7f6bbdf,62c538d74f260ff71db91f20,2022-07-06_08h25.40.070,Colour_Asymmetry_Pilot,2022.1.3,Win32,143.5544071,62c50e9c1127f2cd403a315f,,,,,,,,,,,,,,,,,,,,,,,,,,,,,,,,,,,,,,,,,,,,,,,,,,,,,,,,,,,,,,,,,,,,,,,,,,,,,,,,,,,,,,,,,,,,,,,,,,,,,,,,,,,,,,,,,,,,,,,,,,,,,,,,,,,,,,,,,,,,,,,,,,,,,,,,,,,,,,,,,,,
0,19,19,14,1,,60ede6577c93b8e4d7f6bbdf,62c538d74f260ff71db91f20,2022-07-06_08h25.40.070,Colour_Asymmetry_Pilot,2022.1.3,Win32,143.5544071,62c50e9c1127f2cd403a315f,,,,,,,,,,,,,,,,,,,,,,,,,,,,,,,,,,,,,,,,,,,,,,,,,,,,,,,,,,,,,,,,,,,,,,,,,,,,,,,,,,,,,,,,,,,,,,,,,,,,,,,,,,,,,,,,,,,,,,,,,,,,,,,,,,,,,,,,,,,,,,,,,,,,,,,,,,,,,,,,,,,
0,20,20,65,1,,60ede6577c93b8e4d7f6bbdf,62c538d74f260ff71db91f20,2022-07-06_08h25.40.070,Colour_Asymmetry_Pilot,2022.1.3,Win32,143.5544071,62c50e9c1127f2cd403a315f,,,,,,,,,,,,,,,,,,,,,,,,,,,,,,,,,,,,,,,,,,,,,,,,,,,,,,,,,,,,,,,,,,,,,,,,,,,,,,,,,,,,,,,,,,,,,,,,,,,,,,,,,,,,,,,,,,,,,,,,,,,,,,,,,,,,,,,,,,,,,,,,,,,,,,,,,,,,,,,,,,,
0,21,21,11,1,,60ede6577c93b8e4d7f6bbdf,62c538d74f260ff71db91f20,2022-07-06_08h25.40.070,Colour_Asymmetry_Pilot,2022.1.3,Win32,143.5544071,62c50e9c1127f2cd403a315f,,,,,,,,,,,,,,,,,,,,,,,,,,,,,,,,,,,,,,,,,,,,,,,,,,,,,,,,,,,,,,,,,,,,,,,,,,,,,,,,,,,,,,,,,,,,,,,,,,,,,,,,,,,,,,,,,,,,,,,,,,,,,,,,,,,,,,,,,,,,,,,,,,,,,,,,,,,,,,,,,,,
0,22,22,92,1,,60ede6577c93b8e4d7f6bbdf,62c538d74f260ff71db91f20,2022-07-06_08h25.40.070,Colour_Asymmetry_Pilot,2022.1.3,Win32,143.5544071,62c50e9c1127f2cd403a315f,,,,,,,,,,,,,,,,,,,,,,,,,,,,,,,,,,,,,,,,,,,,,,,,,,,,,,,,,,,,,,,,,,,,,,,,,,,,,,,,,,,,,,,,,,,,,,,,,,,,,,,,,,,,,,,,,,,,,,,,,,,,,,,,,,,,,,,,,,,,,,,,,,,,,,,,,,,,,,,,,,,
0,23,23,13,1,,60ede6577c93b8e4d7f6bbdf,62c538d74f260ff71db91f20,2022-07-06_08h25.40.070,Colour_Asymmetry_Pilot,2022.1.3,Win32,143.5544071,62c50e9c1127f2cd403a315f,,,,,,,,,,,,,,,,,,,,,,,,,,,,,,,,,,,,,,,,,,,,,,,,,,,,,,,,,,,,,,,,,,,,,,,,,,,,,,,,,,,,,,,,,,,,,,,,,,,,,,,,,,,,,,,,,,,,,,,,,,,,,,,,,,,,,,,,,,,,,,,,,,,,,,,,,,,,,,,,,,,
0,24,24,75,1,,60ede6577c93b8e4d7f6bbdf,62c538d74f260ff71db91f20,2022-07-06_08h25.40.070,Colour_Asymmetry_Pilot,2022.1.3,Win32,143.5544071,62c50e9c1127f2cd403a315f,,,,,,,,,,,,,,,,,,,,,,,,,,,,,,,,,,,,,,,,,,,,,,,,,,,,,,,,,,,,,,,,,,,,,,,,,,,,,,,,,,,,,,,,,,,,,,,,,,,,,,,,,,,,,,,,,,,,,,,,,,,,,,,,,,,,,,,,,,,,,,,,,,,,,,,,,,,,,,,,,,,
0,25,25,29,1,,60ede6577c93b8e4d7f6bbdf,62c538d74f260ff71db91f20,2022-07-06_08h25.40.070,Colour_Asymmetry_Pilot,2022.1.3,Win32,143.5544071,62c50e9c1127f2cd403a315f,,,,,,,,,,,,,,,,,,,,,,,,,,,,,,,,,,,,,,,,,,,,,,,,,,,,,,,,,,,,,,,,,,,,,,,,,,,,,,,,,,,,,,,,,,,,,,,,,,,,,,,,,,,,,,,,,,,,,,,,,,,,,,,,,,,,,,,,,,,,,,,,,,,,,,,,,,,,,,,,,,,
0,26,26,17,1,,60ede6577c93b8e4d7f6bbdf,62c538d74f260ff71db91f20,2022-07-06_08h25.40.070,Colour_Asymmetry_Pilot,2022.1.3,Win32,143.5544071,62c50e9c1127f2cd403a315f,,,,,,,,,,,,,,,,,,,,,,,,,,,,,,,,,,,,,,,,,,,,,,,,,,,,,,,,,,,,,,,,,,,,,,,,,,,,,,,,,,,,,,,,,,,,,,,,,,,,,,,,,,,,,,,,,,,,,,,,,,,,,,,,,,,,,,,,,,,,,,,,,,,,,,,,,,,,,,,,,,,
0,27,27,73,1,,60ede6577c93b8e4d7f6bbdf,62c538d74f260ff71db91f20,2022-07-06_08h25.40.070,Colour_Asymmetry_Pilot,2022.1.3,Win32,143.5544071,62c50e9c1127f2cd403a315f,,,,,,,,,,,,,,,,,,,,,,,,,,,,,,,,,,,,,,,,,,,,,,,,,,,,,,,,,,,,,,,,,,,,,,,,,,,,,,,,,,,,,,,,,,,,,,,,,,,,,,,,,,,,,,,,,,,,,,,,,,,,,,,,,,,,,,,,,,,,,,,,,,,,,,,,,,,,,,,,,,,
0,28,28,30,1,,60ede6577c93b8e4d7f6bbdf,62c538d74f260ff71db91f20,2022-07-06_08h25.40.070,Colour_Asymmetry_Pilot,2022.1.3,Win32,143.5544071,62c50e9c1127f2cd403a315f,,,,,,,,,,,,,,,,,,,,,,,,,,,,,,,,,,,,,,,,,,,,,,,,,,,,,,,,,,,,,,,,,,,,,,,,,,,,,,,,,,,,,,,,,,,,,,,,,,,,,,,,,,,,,,,,,,,,,,,,,,,,,,,,,,,,,,,,,,,,,,,,,,,,,,,,,,,,,,,,,,,
0,29,29,28,1,,60ede6577c93b8e4d7f6bbdf,62c538d74f260ff71db91f20,2022-07-06_08h25.40.070,Colour_Asymmetry_Pilot,2022.1.3,Win32,143.5544071,62c50e9c1127f2cd403a315f,,,,,,,,,,,,,,,,,,,,,,,,,,,,,,,,,,,,,,,,,,,,,,,,,,,,,,,,,,,,,,,,,,,,,,,,,,,,,,,,,,,,,,,,,,,,,,,,,,,,,,,,,,,,,,,,,,,,,,,,,,,,,,,,,,,,,,,,,,,,,,,,,,,,,,,,,,,,,,,,,,,
0,30,30,51,1,,60ede6577c93b8e4d7f6bbdf,62c538d74f260ff71db91f20,2022-07-06_08h25.40.070,Colour_Asymmetry_Pilot,2022.1.3,Win32,143.5544071,62c50e9c1127f2cd403a315f,,,,,,,,,,,,,,,,,,,,,,,,,,,,,,,,,,,,,,,,,,,,,,,,,,,,,,,,,,,,,,,,,,,,,,,,,,,,,,,,,,,,,,,,,,,,,,,,,,,,,,,,,,,,,,,,,,,,,,,,,,,,,,,,,,,,,,,,,,,,,,,,,,,,,,,,,,,,,,,,,,,
0,31,31,5,1,,60ede6577c93b8e4d7f6bbdf,62c538d74f260ff71db91f20,2022-07-06_08h25.40.070,Colour_Asymmetry_Pilot,2022.1.3,Win32,143.5544071,62c50e9c1127f2cd403a315f,,,,,,,,,,,,,,,,,,,,,,,,,,,,,,,,,,,,,,,,,,,,,,,,,,,,,,,,,,,,,,,,,,,,,,,,,,,,,,,,,,,,,,,,,,,,,,,,,,,,,,,,,,,,,,,,,,,,,,,,,,,,,,,,,,,,,,,,,,,,,,,,,,,,,,,,,,,,,,,,,,,
0,32,32,80,1,,60ede6577c93b8e4d7f6bbdf,62c538d74f260ff71db91f20,2022-07-06_08h25.40.070,Colour_Asymmetry_Pilot,2022.1.3,Win32,143.5544071,62c50e9c1127f2cd403a315f,,,,,,,,,,,,,,,,,,,,,,,,,,,,,,,,,,,,,,,,,,,,,,,,,,,,,,,,,,,,,,,,,,,,,,,,,,,,,,,,,,,,,,,,,,,,,,,,,,,,,,,,,,,,,,,,,,,,,,,,,,,,,,,,,,,,,,,,,,,,,,,,,,,,,,,,,,,,,,,,,,,
0,33,33,38,1,,60ede6577c93b8e4d7f6bbdf,62c538d74f260ff71db91f20,2022-07-06_08h25.40.070,Colour_Asymmetry_Pilot,2022.1.3,Win32,143.5544071,62c50e9c1127f2cd403a315f,,,,,,,,,,,,,,,,,,,,,,,,,,,,,,,,,,,,,,,,,,,,,,,,,,,,,,,,,,,,,,,,,,,,,,,,,,,,,,,,,,,,,,,,,,,,,,,,,,,,,,,,,,,,,,,,,,,,,,,,,,,,,,,,,,,,,,,,,,,,,,,,,,,,,,,,,,,,,,,,,,,
0,34,34,10,1,,60ede6577c93b8e4d7f6bbdf,62c538d74f260ff71db91f20,2022-07-06_08h25.40.070,Colour_Asymmetry_Pilot,2022.1.3,Win32,143.5544071,62c50e9c1127f2cd403a315f,,,,,,,,,,,,,,,,,,,,,,,,,,,,,,,,,,,,,,,,,,,,,,,,,,,,,,,,,,,,,,,,,,,,,,,,,,,,,,,,,,,,,,,,,,,,,,,,,,,,,,,,,,,,,,,,,,,,,,,,,,,,,,,,,,,,,,,,,,,,,,,,,,,,,,,,,,,,,,,,,,,
0,35,35,83,1,,60ede6577c93b8e4d7f6bbdf,62c538d74f260ff71db91f20,2022-07-06_08h25.40.070,Colour_Asymmetry_Pilot,2022.1.3,Win32,143.5544071,62c50e9c1127f2cd403a315f,,,,,,,,,,,,,,,,,,,,,,,,,,,,,,,,,,,,,,,,,,,,,,,,,,,,,,,,,,,,,,,,,,,,,,,,,,,,,,,,,,,,,,,,,,,,,,,,,,,,,,,,,,,,,,,,,,,,,,,,,,,,,,,,,,,,,,,,,,,,,,,,,,,,,,,,,,,,,,,,,,,
0,36,36,86,1,,60ede6577c93b8e4d7f6bbdf,62c538d74f260ff71db91f20,2022-07-06_08h25.40.070,Colour_Asymmetry_Pilot,2022.1.3,Win32,143.5544071,62c50e9c1127f2cd403a315f,,,,,,,,,,,,,,,,,,,,,,,,,,,,,,,,,,,,,,,,,,,,,,,,,,,,,,,,,,,,,,,,,,,,,,,,,,,,,,,,,,,,,,,,,,,,,,,,,,,,,,,,,,,,,,,,,,,,,,,,,,,,,,,,,,,,,,,,,,,,,,,,,,,,,,,,,,,,,,,,,,,
0,37,37,16,1,,60ede6577c93b8e4d7f6bbdf,62c538d74f260ff71db91f20,2022-07-06_08h25.40.070,Colour_Asymmetry_Pilot,2022.1.3,Win32,143.5544071,62c50e9c1127f2cd403a315f,,,,,,,,,,,,,,,,,,,,,,,,,,,,,,,,,,,,,,,,,,,,,,,,,,,,,,,,,,,,,,,,,,,,,,,,,,,,,,,,,,,,,,,,,,,,,,,,,,,,,,,,,,,,,,,,,,,,,,,,,,,,,,,,,,,,,,,,,,,,,,,,,,,,,,,,,,,,,,,,,,,
0,38,38,61,1,,60ede6577c93b8e4d7f6bbdf,62c538d74f260ff71db91f20,2022-07-06_08h25.40.070,Colour_Asymmetry_Pilot,2022.1.3,Win32,143.5544071,62c50e9c1127f2cd403a315f,,,,,,,,,,,,,,,,,,,,,,,,,,,,,,,,,,,,,,,,,,,,,,,,,,,,,,,,,,,,,,,,,,,,,,,,,,,,,,,,,,,,,,,,,,,,,,,,,,,,,,,,,,,,,,,,,,,,,,,,,,,,,,,,,,,,,,,,,,,,,,,,,,,,,,,,,,,,,,,,,,,
0,39,39,43,1,,60ede6577c93b8e4d7f6bbdf,62c538d74f260ff71db91f20,2022-07-06_08h25.40.070,Colour_Asymmetry_Pilot,2022.1.3,Win32,143.5544071,62c50e9c1127f2cd403a315f,,,,,,,,,,,,,,,,,,,,,,,,,,,,,,,,,,,,,,,,,,,,,,,,,,,,,,,,,,,,,,,,,,,,,,,,,,,,,,,,,,,,,,,,,,,,,,,,,,,,,,,,,,,,,,,,,,,,,,,,,,,,,,,,,,,,,,,,,,,,,,,,,,,,,,,,,,,,,,,,,,,
0,40,40,77,1,,60ede6577c93b8e4d7f6bbdf,62c538d74f260ff71db91f20,2022-07-06_08h25.40.070,Colour_Asymmetry_Pilot,2022.1.3,Win32,143.5544071,62c50e9c1127f2cd403a315f,,,,,,,,,,,,,,,,,,,,,,,,,,,,,,,,,,,,,,,,,,,,,,,,,,,,,,,,,,,,,,,,,,,,,,,,,,,,,,,,,,,,,,,,,,,,,,,,,,,,,,,,,,,,,,,,,,,,,,,,,,,,,,,,,,,,,,,,,,,,,,,,,,,,,,,,,,,,,,,,,,,
0,41,41,76,1,,60ede6577c93b8e4d7f6bbdf,62c538d74f260ff71db91f20,2022-07-06_08h25.40.070,Colour_Asymmetry_Pilot,2022.1.3,Win32,143.5544071,62c50e9c1127f2cd403a315f,,,,,,,,,,,,,,,,,,,,,,,,,,,,,,,,,,,,,,,,,,,,,,,,,,,,,,,,,,,,,,,,,,,,,,,,,,,,,,,,,,,,,,,,,,,,,,,,,,,,,,,,,,,,,,,,,,,,,,,,,,,,,,,,,,,,,,,,,,,,,,,,,,,,,,,,,,,,,,,,,,,
0,42,42,54,1,,60ede6577c93b8e4d7f6bbdf,62c538d74f260ff71db91f20,2022-07-06_08h25.40.070,Colour_Asymmetry_Pilot,2022.1.3,Win32,143.5544071,62c50e9c1127f2cd403a315f,,,,,,,,,,,,,,,,,,,,,,,,,,,,,,,,,,,,,,,,,,,,,,,,,,,,,,,,,,,,,,,,,,,,,,,,,,,,,,,,,,,,,,,,,,,,,,,,,,,,,,,,,,,,,,,,,,,,,,,,,,,,,,,,,,,,,,,,,,,,,,,,,,,,,,,,,,,,,,,,,,,
0,43,43,19,1,,60ede6577c93b8e4d7f6bbdf,62c538d74f260ff71db91f20,2022-07-06_08h25.40.070,Colour_Asymmetry_Pilot,2022.1.3,Win32,143.5544071,62c50e9c1127f2cd403a315f,,,,,,,,,,,,,,,,,,,,,,,,,,,,,,,,,,,,,,,,,,,,,,,,,,,,,,,,,,,,,,,,,,,,,,,,,,,,,,,,,,,,,,,,,,,,,,,,,,,,,,,,,,,,,,,,,,,,,,,,,,,,,,,,,,,,,,,,,,,,,,,,,,,,,,,,,,,,,,,,,,,
0,44,44,87,1,,60ede6577c93b8e4d7f6bbdf,62c538d74f260ff71db91f20,2022-07-06_08h25.40.070,Colour_Asymmetry_Pilot,2022.1.3,Win32,143.5544071,62c50e9c1127f2cd403a315f,,,,,,,,,,,,,,,,,,,,,,,,,,,,,,,,,,,,,,,,,,,,,,,,,,,,,,,,,,,,,,,,,,,,,,,,,,,,,,,,,,,,,,,,,,,,,,,,,,,,,,,,,,,,,,,,,,,,,,,,,,,,,,,,,,,,,,,,,,,,,,,,,,,,,,,,,,,,,,,,,,,
0,45,45,74,1,,60ede6577c93b8e4d7f6bbdf,62c538d74f260ff71db91f20,2022-07-06_08h25.40.070,Colour_Asymmetry_Pilot,2022.1.3,Win32,143.5544071,62c50e9c1127f2cd403a315f,,,,,,,,,,,,,,,,,,,,,,,,,,,,,,,,,,,,,,,,,,,,,,,,,,,,,,,,,,,,,,,,,,,,,,,,,,,,,,,,,,,,,,,,,,,,,,,,,,,,,,,,,,,,,,,,,,,,,,,,,,,,,,,,,,,,,,,,,,,,,,,,,,,,,,,,,,,,,,,,,,,
0,46,46,88,1,,60ede6577c93b8e4d7f6bbdf,62c538d74f260ff71db91f20,2022-07-06_08h25.40.070,Colour_Asymmetry_Pilot,2022.1.3,Win32,143.5544071,62c50e9c1127f2cd403a315f,,,,,,,,,,,,,,,,,,,,,,,,,,,,,,,,,,,,,,,,,,,,,,,,,,,,,,,,,,,,,,,,,,,,,,,,,,,,,,,,,,,,,,,,,,,,,,,,,,,,,,,,,,,,,,,,,,,,,,,,,,,,,,,,,,,,,,,,,,,,,,,,,,,,,,,,,,,,,,,,,,,
0,47,47,32,1,,60ede6577c93b8e4d7f6bbdf,62c538d74f260ff71db91f20,2022-07-06_08h25.40.070,Colour_Asymmetry_Pilot,2022.1.3,Win32,143.5544071,62c50e9c1127f2cd403a315f,,,,,,,,,,,,,,,,,,,,,,,,,,,,,,,,,,,,,,,,,,,,,,,,,,,,,,,,,,,,,,,,,,,,,,,,,,,,,,,,,,,,,,,,,,,,,,,,,,,,,,,,,,,,,,,,,,,,,,,,,,,,,,,,,,,,,,,,,,,,,,,,,,,,,,,,,,,,,,,,,,,
0,48,48,85,1,,60ede6577c93b8e4d7f6bbdf,62c538d74f260ff71db91f20,2022-07-06_08h25.40.070,Colour_Asymmetry_Pilot,2022.1.3,Win32,143.5544071,62c50e9c1127f2cd403a315f,,,,,,,,,,,,,,,,,,,,,,,,,,,,,,,,,,,,,,,,,,,,,,,,,,,,,,,,,,,,,,,,,,,,,,,,,,,,,,,,,,,,,,,,,,,,,,,,,,,,,,,,,,,,,,,,,,,,,,,,,,,,,,,,,,,,,,,,,,,,,,,,,,,,,,,,,,,,,,,,,,,
0,49,49,39,1,,60ede6577c93b8e4d7f6bbdf,62c538d74f260ff71db91f20,2022-07-06_08h25.40.070,Colour_Asymmetry_Pilot,2022.1.3,Win32,143.5544071,62c50e9c1127f2cd403a315f,,,,,,,,,,,,,,,,,,,,,,,,,,,,,,,,,,,,,,,,,,,,,,,,,,,,,,,,,,,,,,,,,,,,,,,,,,,,,,,,,,,,,,,,,,,,,,,,,,,,,,,,,,,,,,,,,,,,,,,,,,,,,,,,,,,,,,,,,,,,,,,,,,,,,,,,,,,,,,,,,,,
0,50,50,58,1,,60ede6577c93b8e4d7f6bbdf,62c538d74f260ff71db91f20,2022-07-06_08h25.40.070,Colour_Asymmetry_Pilot,2022.1.3,Win32,143.5544071,62c50e9c1127f2cd403a315f,,,,,,,,,,,,,,,,,,,,,,,,,,,,,,,,,,,,,,,,,,,,,,,,,,,,,,,,,,,,,,,,,,,,,,,,,,,,,,,,,,,,,,,,,,,,,,,,,,,,,,,,,,,,,,,,,,,,,,,,,,,,,,,,,,,,,,,,,,,,,,,,,,,,,,,,,,,,,,,,,,,
0,51,51,84,1,,60ede6577c93b8e4d7f6bbdf,62c538d74f260ff71db91f20,2022-07-06_08h25.40.070,Colour_Asymmetry_Pilot,2022.1.3,Win32,143.5544071,62c50e9c1127f2cd403a315f,,,,,,,,,,,,,,,,,,,,,,,,,,,,,,,,,,,,,,,,,,,,,,,,,,,,,,,,,,,,,,,,,,,,,,,,,,,,,,,,,,,,,,,,,,,,,,,,,,,,,,,,,,,,,,,,,,,,,,,,,,,,,,,,,,,,,,,,,,,,,,,,,,,,,,,,,,,,,,,,,,,
0,52,52,25,1,,60ede6577c93b8e4d7f6bbdf,62c538d74f260ff71db91f20,2022-07-06_08h25.40.070,Colour_Asymmetry_Pilot,2022.1.3,Win32,143.5544071,62c50e9c1127f2cd403a315f,,,,,,,,,,,,,,,,,,,,,,,,,,,,,,,,,,,,,,,,,,,,,,,,,,,,,,,,,,,,,,,,,,,,,,,,,,,,,,,,,,,,,,,,,,,,,,,,,,,,,,,,,,,,,,,,,,,,,,,,,,,,,,,,,,,,,,,,,,,,,,,,,,,,,,,,,,,,,,,,,,,
0,53,53,50,1,,60ede6577c93b8e4d7f6bbdf,62c538d74f260ff71db91f20,2022-07-06_08h25.40.070,Colour_Asymmetry_Pilot,2022.1.3,Win32,143.5544071,62c50e9c1127f2cd403a315f,,,,,,,,,,,,,,,,,,,,,,,,,,,,,,,,,,,,,,,,,,,,,,,,,,,,,,,,,,,,,,,,,,,,,,,,,,,,,,,,,,,,,,,,,,,,,,,,,,,,,,,,,,,,,,,,,,,,,,,,,,,,,,,,,,,,,,,,,,,,,,,,,,,,,,,,,,,,,,,,,,,
0,54,54,47,1,,60ede6577c93b8e4d7f6bbdf,62c538d74f260ff71db91f20,2022-07-06_08h25.40.070,Colour_Asymmetry_Pilot,2022.1.3,Win32,143.5544071,62c50e9c1127f2cd403a315f,,,,,,,,,,,,,,,,,,,,,,,,,,,,,,,,,,,,,,,,,,,,,,,,,,,,,,,,,,,,,,,,,,,,,,,,,,,,,,,,,,,,,,,,,,,,,,,,,,,,,,,,,,,,,,,,,,,,,,,,,,,,,,,,,,,,,,,,,,,,,,,,,,,,,,,,,,,,,,,,,,,
0,55,55,79,1,,60ede6577c93b8e4d7f6bbdf,62c538d74f260ff71db91f20,2022-07-06_08h25.40.070,Colour_Asymmetry_Pilot,2022.1.3,Win32,143.5544071,62c50e9c1127f2cd403a315f,,,,,,,,,,,,,,,,,,,,,,,,,,,,,,,,,,,,,,,,,,,,,,,,,,,,,,,,,,,,,,,,,,,,,,,,,,,,,,,,,,,,,,,,,,,,,,,,,,,,,,,,,,,,,,,,,,,,,,,,,,,,,,,,,,,,,,,,,,,,,,,,,,,,,,,,,,,,,,,,,,,
0,56,56,26,1,,60ede6577c93b8e4d7f6bbdf,62c538d74f260ff71db91f20,2022-07-06_08h25.40.070,Colour_Asymmetry_Pilot,2022.1.3,Win32,143.5544071,62c50e9c1127f2cd403a315f,,,,,,,,,,,,,,,,,,,,,,,,,,,,,,,,,,,,,,,,,,,,,,,,,,,,,,,,,,,,,,,,,,,,,,,,,,,,,,,,,,,,,,,,,,,,,,,,,,,,,,,,,,,,,,,,,,,,,,,,,,,,,,,,,,,,,,,,,,,,,,,,,,,,,,,,,,,,,,,,,,,
0,57,57,90,1,,60ede6577c93b8e4d7f6bbdf,62c538d74f260ff71db91f20,2022-07-06_08h25.40.070,Colour_Asymmetry_Pilot,2022.1.3,Win32,143.5544071,62c50e9c1127f2cd403a315f,,,,,,,,,,,,,,,,,,,,,,,,,,,,,,,,,,,,,,,,,,,,,,,,,,,,,,,,,,,,,,,,,,,,,,,,,,,,,,,,,,,,,,,,,,,,,,,,,,,,,,,,,,,,,,,,,,,,,,,,,,,,,,,,,,,,,,,,,,,,,,,,,,,,,,,,,,,,,,,,,,,
0,58,58,59,1,,60ede6577c93b8e4d7f6bbdf,62c538d74f260ff71db91f20,2022-07-06_08h25.40.070,Colour_Asymmetry_Pilot,2022.1.3,Win32,143.5544071,62c50e9c1127f2cd403a315f,,,,,,,,,,,,,,,,,,,,,,,,,,,,,,,,,,,,,,,,,,,,,,,,,,,,,,,,,,,,,,,,,,,,,,,,,,,,,,,,,,,,,,,,,,,,,,,,,,,,,,,,,,,,,,,,,,,,,,,,,,,,,,,,,,,,,,,,,,,,,,,,,,,,,,,,,,,,,,,,,,,
0,59,59,24,1,,60ede6577c93b8e4d7f6bbdf,62c538d74f260ff71db91f20,2022-07-06_08h25.40.070,Colour_Asymmetry_Pilot,2022.1.3,Win32,143.5544071,62c50e9c1127f2cd403a315f,,,,,,,,,,,,,,,,,,,,,,,,,,,,,,,,,,,,,,,,,,,,,,,,,,,,,,,,,,,,,,,,,,,,,,,,,,,,,,,,,,,,,,,,,,,,,,,,,,,,,,,,,,,,,,,,,,,,,,,,,,,,,,,,,,,,,,,,,,,,,,,,,,,,,,,,,,,,,,,,,,,
0,60,60,8,1,,60ede6577c93b8e4d7f6bbdf,62c538d74f260ff71db91f20,2022-07-06_08h25.40.070,Colour_Asymmetry_Pilot,2022.1.3,Win32,143.5544071,62c50e9c1127f2cd403a315f,,,,,,,,,,,,,,,,,,,,,,,,,,,,,,,,,,,,,,,,,,,,,,,,,,,,,,,,,,,,,,,,,,,,,,,,,,,,,,,,,,,,,,,,,,,,,,,,,,,,,,,,,,,,,,,,,,,,,,,,,,,,,,,,,,,,,,,,,,,,,,,,,,,,,,,,,,,,,,,,,,,
0,61,61,48,1,,60ede6577c93b8e4d7f6bbdf,62c538d74f260ff71db91f20,2022-07-06_08h25.40.070,Colour_Asymmetry_Pilot,2022.1.3,Win32,143.5544071,62c50e9c1127f2cd403a315f,,,,,,,,,,,,,,,,,,,,,,,,,,,,,,,,,,,,,,,,,,,,,,,,,,,,,,,,,,,,,,,,,,,,,,,,,,,,,,,,,,,,,,,,,,,,,,,,,,,,,,,,,,,,,,,,,,,,,,,,,,,,,,,,,,,,,,,,,,,,,,,,,,,,,,,,,,,,,,,,,,,
0,62,62,57,1,,60ede6577c93b8e4d7f6bbdf,62c538d74f260ff71db91f20,2022-07-06_08h25.40.070,Colour_Asymmetry_Pilot,2022.1.3,Win32,143.5544071,62c50e9c1127f2cd403a315f,,,,,,,,,,,,,,,,,,,,,,,,,,,,,,,,,,,,,,,,,,,,,,,,,,,,,,,,,,,,,,,,,,,,,,,,,,,,,,,,,,,,,,,,,,,,,,,,,,,,,,,,,,,,,,,,,,,,,,,,,,,,,,,,,,,,,,,,,,,,,,,,,,,,,,,,,,,,,,,,,,,
0,63,63,53,1,,60ede6577c93b8e4d7f6bbdf,62c538d74f260ff71db91f20,2022-07-06_08h25.40.070,Colour_Asymmetry_Pilot,2022.1.3,Win32,143.5544071,62c50e9c1127f2cd403a315f,,,,,,,,,,,,,,,,,,,,,,,,,,,,,,,,,,,,,,,,,,,,,,,,,,,,,,,,,,,,,,,,,,,,,,,,,,,,,,,,,,,,,,,,,,,,,,,,,,,,,,,,,,,,,,,,,,,,,,,,,,,,,,,,,,,,,,,,,,,,,,,,,,,,,,,,,,,,,,,,,,,
0,64,64,71,1,,60ede6577c93b8e4d7f6bbdf,62c538d74f260ff71db91f20,2022-07-06_08h25.40.070,Colour_Asymmetry_Pilot,2022.1.3,Win32,143.5544071,62c50e9c1127f2cd403a315f,,,,,,,,,,,,,,,,,,,,,,,,,,,,,,,,,,,,,,,,,,,,,,,,,,,,,,,,,,,,,,,,,,,,,,,,,,,,,,,,,,,,,,,,,,,,,,,,,,,,,,,,,,,,,,,,,,,,,,,,,,,,,,,,,,,,,,,,,,,,,,,,,,,,,,,,,,,,,,,,,,,
0,65,65,44,1,,60ede6577c93b8e4d7f6bbdf,62c538d74f260ff71db91f20,2022-07-06_08h25.40.070,Colour_Asymmetry_Pilot,2022.1.3,Win32,143.5544071,62c50e9c1127f2cd403a315f,,,,,,,,,,,,,,,,,,,,,,,,,,,,,,,,,,,,,,,,,,,,,,,,,,,,,,,,,,,,,,,,,,,,,,,,,,,,,,,,,,,,,,,,,,,,,,,,,,,,,,,,,,,,,,,,,,,,,,,,,,,,,,,,,,,,,,,,,,,,,,,,,,,,,,,,,,,,,,,,,,,
0,66,66,31,1,,60ede6577c93b8e4d7f6bbdf,62c538d74f260ff71db91f20,2022-07-06_08h25.40.070,Colour_Asymmetry_Pilot,2022.1.3,Win32,143.5544071,62c50e9c1127f2cd403a315f,,,,,,,,,,,,,,,,,,,,,,,,,,,,,,,,,,,,,,,,,,,,,,,,,,,,,,,,,,,,,,,,,,,,,,,,,,,,,,,,,,,,,,,,,,,,,,,,,,,,,,,,,,,,,,,,,,,,,,,,,,,,,,,,,,,,,,,,,,,,,,,,,,,,,,,,,,,,,,,,,,,
0,67,67,63,1,,60ede6577c93b8e4d7f6bbdf,62c538d74f260ff71db91f20,2022-07-06_08h25.40.070,Colour_Asymmetry_Pilot,2022.1.3,Win32,143.5544071,62c50e9c1127f2cd403a315f,,,,,,,,,,,,,,,,,,,,,,,,,,,,,,,,,,,,,,,,,,,,,,,,,,,,,,,,,,,,,,,,,,,,,,,,,,,,,,,,,,,,,,,,,,,,,,,,,,,,,,,,,,,,,,,,,,,,,,,,,,,,,,,,,,,,,,,,,,,,,,,,,,,,,,,,,,,,,,,,,,,
0,68,68,45,1,,60ede6577c93b8e4d7f6bbdf,62c538d74f260ff71db91f20,2022-07-06_08h25.40.070,Colour_Asymmetry_Pilot,2022.1.3,Win32,143.5544071,62c50e9c1127f2cd403a315f,,,,,,,,,,,,,,,,,,,,,,,,,,,,,,,,,,,,,,,,,,,,,,,,,,,,,,,,,,,,,,,,,,,,,,,,,,,,,,,,,,,,,,,,,,,,,,,,,,,,,,,,,,,,,,,,,,,,,,,,,,,,,,,,,,,,,,,,,,,,,,,,,,,,,,,,,,,,,,,,,,,
0,69,69,27,1,,60ede6577c93b8e4d7f6bbdf,62c538d74f260ff71db91f20,2022-07-06_08h25.40.070,Colour_Asymmetry_Pilot,2022.1.3,Win32,143.5544071,62c50e9c1127f2cd403a315f,,,,,,,,,,,,,,,,,,,,,,,,,,,,,,,,,,,,,,,,,,,,,,,,,,,,,,,,,,,,,,,,,,,,,,,,,,,,,,,,,,,,,,,,,,,,,,,,,,,,,,,,,,,,,,,,,,,,,,,,,,,,,,,,,,,,,,,,,,,,,,,,,,,,,,,,,,,,,,,,,,,
0,70,70,42,1,,60ede6577c93b8e4d7f6bbdf,62c538d74f260ff71db91f20,2022-07-06_08h25.40.070,Colour_Asymmetry_Pilot,2022.1.3,Win32,143.5544071,62c50e9c1127f2cd403a315f,,,,,,,,,,,,,,,,,,,,,,,,,,,,,,,,,,,,,,,,,,,,,,,,,,,,,,,,,,,,,,,,,,,,,,,,,,,,,,,,,,,,,,,,,,,,,,,,,,,,,,,,,,,,,,,,,,,,,,,,,,,,,,,,,,,,,,,,,,,,,,,,,,,,,,,,,,,,,,,,,,,
0,71,71,23,1,,60ede6577c93b8e4d7f6bbdf,62c538d74f260ff71db91f20,2022-07-06_08h25.40.070,Colour_Asymmetry_Pilot,2022.1.3,Win32,143.5544071,62c50e9c1127f2cd403a315f,,,,,,,,,,,,,,,,,,,,,,,,,,,,,,,,,,,,,,,,,,,,,,,,,,,,,,,,,,,,,,,,,,,,,,,,,,,,,,,,,,,,,,,,,,,,,,,,,,,,,,,,,,,,,,,,,,,,,,,,,,,,,,,,,,,,,,,,,,,,,,,,,,,,,,,,,,,,,,,,,,,
0,72,72,18,1,,60ede6577c93b8e4d7f6bbdf,62c538d74f260ff71db91f20,2022-07-06_08h25.40.070,Colour_Asymmetry_Pilot,2022.1.3,Win32,143.5544071,62c50e9c1127f2cd403a315f,,,,,,,,,,,,,,,,,,,,,,,,,,,,,,,,,,,,,,,,,,,,,,,,,,,,,,,,,,,,,,,,,,,,,,,,,,,,,,,,,,,,,,,,,,,,,,,,,,,,,,,,,,,,,,,,,,,,,,,,,,,,,,,,,,,,,,,,,,,,,,,,,,,,,,,,,,,,,,,,,,,
0,73,73,37,1,,60ede6577c93b8e4d7f6bbdf,62c538d74f260ff71db91f20,2022-07-06_08h25.40.070,Colour_Asymmetry_Pilot,2022.1.3,Win32,143.5544071,62c50e9c1127f2cd403a315f,,,,,,,,,,,,,,,,,,,,,,,,,,,,,,,,,,,,,,,,,,,,,,,,,,,,,,,,,,,,,,,,,,,,,,,,,,,,,,,,,,,,,,,,,,,,,,,,,,,,,,,,,,,,,,,,,,,,,,,,,,,,,,,,,,,,,,,,,,,,,,,,,,,,,,,,,,,,,,,,,,,
0,74,74,82,1,,60ede6577c93b8e4d7f6bbdf,62c538d74f260ff71db91f20,2022-07-06_08h25.40.070,Colour_Asymmetry_Pilot,2022.1.3,Win32,143.5544071,62c50e9c1127f2cd403a315f,,,,,,,,,,,,,,,,,,,,,,,,,,,,,,,,,,,,,,,,,,,,,,,,,,,,,,,,,,,,,,,,,,,,,,,,,,,,,,,,,,,,,,,,,,,,,,,,,,,,,,,,,,,,,,,,,,,,,,,,,,,,,,,,,,,,,,,,,,,,,,,,,,,,,,,,,,,,,,,,,,,
0,75,75,6,1,,60ede6577c93b8e4d7f6bbdf,62c538d74f260ff71db91f20,2022-07-06_08h25.40.070,Colour_Asymmetry_Pilot,2022.1.3,Win32,143.5544071,62c50e9c1127f2cd403a315f,,,,,,,,,,,,,,,,,,,,,,,,,,,,,,,,,,,,,,,,,,,,,,,,,,,,,,,,,,,,,,,,,,,,,,,,,,,,,,,,,,,,,,,,,,,,,,,,,,,,,,,,,,,,,,,,,,,,,,,,,,,,,,,,,,,,,,,,,,,,,,,,,,,,,,,,,,,,,,,,,,,
0,76,76,46,1,,60ede6577c93b8e4d7f6bbdf,62c538d74f260ff71db91f20,2022-07-06_08h25.40.070,Colour_Asymmetry_Pilot,2022.1.3,Win32,143.5544071,62c50e9c1127f2cd403a315f,,,,,,,,,,,,,,,,,,,,,,,,,,,,,,,,,,,,,,,,,,,,,,,,,,,,,,,,,,,,,,,,,,,,,,,,,,,,,,,,,,,,,,,,,,,,,,,,,,,,,,,,,,,,,,,,,,,,,,,,,,,,,,,,,,,,,,,,,,,,,,,,,,,,,,,,,,,,,,,,,,,
0,77,77,62,1,,60ede6577c93b8e4d7f6bbdf,62c538d74f260ff71db91f20,2022-07-06_08h25.40.070,Colour_Asymmetry_Pilot,2022.1.3,Win32,143.5544071,62c50e9c1127f2cd403a315f,,,,,,,,,,,,,,,,,,,,,,,,,,,,,,,,,,,,,,,,,,,,,,,,,,,,,,,,,,,,,,,,,,,,,,,,,,,,,,,,,,,,,,,,,,,,,,,,,,,,,,,,,,,,,,,,,,,,,,,,,,,,,,,,,,,,,,,,,,,,,,,,,,,,,,,,,,,,,,,,,,,
0,78,78,52,1,,60ede6577c93b8e4d7f6bbdf,62c538d74f260ff71db91f20,2022-07-06_08h25.40.070,Colour_Asymmetry_Pilot,2022.1.3,Win32,143.5544071,62c50e9c1127f2cd403a315f,,,,,,,,,,,,,,,,,,,,,,,,,,,,,,,,,,,,,,,,,,,,,,,,,,,,,,,,,,,,,,,,,,,,,,,,,,,,,,,,,,,,,,,,,,,,,,,,,,,,,,,,,,,,,,,,,,,,,,,,,,,,,,,,,,,,,,,,,,,,,,,,,,,,,,,,,,,,,,,,,,,
0,79,79,35,1,,60ede6577c93b8e4d7f6bbdf,62c538d74f260ff71db91f20,2022-07-06_08h25.40.070,Colour_Asymmetry_Pilot,2022.1.3,Win32,143.5544071,62c50e9c1127f2cd403a315f,,,,,,,,,,,,,,,,,,,,,,,,,,,,,,,,,,,,,,,,,,,,,,,,,,,,,,,,,,,,,,,,,,,,,,,,,,,,,,,,,,,,,,,,,,,,,,,,,,,,,,,,,,,,,,,,,,,,,,,,,,,,,,,,,,,,,,,,,,,,,,,,,,,,,,,,,,,,,,,,,,,
0,80,80,49,1,,60ede6577c93b8e4d7f6bbdf,62c538d74f260ff71db91f20,2022-07-06_08h25.40.070,Colour_Asymmetry_Pilot,2022.1.3,Win32,143.5544071,62c50e9c1127f2cd403a315f,,,,,,,,,,,,,,,,,,,,,,,,,,,,,,,,,,,,,,,,,,,,,,,,,,,,,,,,,,,,,,,,,,,,,,,,,,,,,,,,,,,,,,,,,,,,,,,,,,,,,,,,,,,,,,,,,,,,,,,,,,,,,,,,,,,,,,,,,,,,,,,,,,,,,,,,,,,,,,,,,,,
0,81,81,20,1,,60ede6577c93b8e4d7f6bbdf,62c538d74f260ff71db91f20,2022-07-06_08h25.40.070,Colour_Asymmetry_Pilot,2022.1.3,Win32,143.5544071,62c50e9c1127f2cd403a315f,,,,,,,,,,,,,,,,,,,,,,,,,,,,,,,,,,,,,,,,,,,,,,,,,,,,,,,,,,,,,,,,,,,,,,,,,,,,,,,,,,,,,,,,,,,,,,,,,,,,,,,,,,,,,,,,,,,,,,,,,,,,,,,,,,,,,,,,,,,,,,,,,,,,,,,,,,,,,,,,,,,
0,82,82,68,1,,60ede6577c93b8e4d7f6bbdf,62c538d74f260ff71db91f20,2022-07-06_08h25.40.070,Colour_Asymmetry_Pilot,2022.1.3,Win32,143.5544071,62c50e9c1127f2cd403a315f,,,,,,,,,,,,,,,,,,,,,,,,,,,,,,,,,,,,,,,,,,,,,,,,,,,,,,,,,,,,,,,,,,,,,,,,,,,,,,,,,,,,,,,,,,,,,,,,,,,,,,,,,,,,,,,,,,,,,,,,,,,,,,,,,,,,,,,,,,,,,,,,,,,,,,,,,,,,,,,,,,,
0,83,83,72,1,,60ede6577c93b8e4d7f6bbdf,62c538d74f260ff71db91f20,2022-07-06_08h25.40.070,Colour_Asymmetry_Pilot,2022.1.3,Win32,143.5544071,62c50e9c1127f2cd403a315f,,,,,,,,,,,,,,,,,,,,,,,,,,,,,,,,,,,,,,,,,,,,,,,,,,,,,,,,,,,,,,,,,,,,,,,,,,,,,,,,,,,,,,,,,,,,,,,,,,,,,,,,,,,,,,,,,,,,,,,,,,,,,,,,,,,,,,,,,,,,,,,,,,,,,,,,,,,,,,,,,,,
0,84,84,15,1,,60ede6577c93b8e4d7f6bbdf,62c538d74f260ff71db91f20,2022-07-06_08h25.40.070,Colour_Asymmetry_Pilot,2022.1.3,Win32,143.5544071,62c50e9c1127f2cd403a315f,,,,,,,,,,,,,,,,,,,,,,,,,,,,,,,,,,,,,,,,,,,,,,,,,,,,,,,,,,,,,,,,,,,,,,,,,,,,,,,,,,,,,,,,,,,,,,,,,,,,,,,,,,,,,,,,,,,,,,,,,,,,,,,,,,,,,,,,,,,,,,,,,,,,,,,,,,,,,,,,,,,
0,85,85,2,1,,60ede6577c93b8e4d7f6bbdf,62c538d74f260ff71db91f20,2022-07-06_08h25.40.070,Colour_Asymmetry_Pilot,2022.1.3,Win32,143.5544071,62c50e9c1127f2cd403a315f,,,,,,,,,,,,,,,,,,,,,,,,,,,,,,,,,,,,,,,,,,,,,,,,,,,,,,,,,,,,,,,,,,,,,,,,,,,,,,,,,,,,,,,,,,,,,,,,,,,,,,,,,,,,,,,,,,,,,,,,,,,,,,,,,,,,,,,,,,,,,,,,,,,,,,,,,,,,,,,,,,,
0,86,86,41,1,,60ede6577c93b8e4d7f6bbdf,62c538d74f260ff71db91f20,2022-07-06_08h25.40.070,Colour_Asymmetry_Pilot,2022.1.3,Win32,143.5544071,62c50e9c1127f2cd403a315f,,,,,,,,,,,,,,,,,,,,,,,,,,,,,,,,,,,,,,,,,,,,,,,,,,,,,,,,,,,,,,,,,,,,,,,,,,,,,,,,,,,,,,,,,,,,,,,,,,,,,,,,,,,,,,,,,,,,,,,,,,,,,,,,,,,,,,,,,,,,,,,,,,,,,,,,,,,,,,,,,,,
0,87,87,56,1,,60ede6577c93b8e4d7f6bbdf,62c538d74f260ff71db91f20,2022-07-06_08h25.40.070,Colour_Asymmetry_Pilot,2022.1.3,Win32,143.5544071,62c50e9c1127f2cd403a315f,,,,,,,,,,,,,,,,,,,,,,,,,,,,,,,,,,,,,,,,,,,,,,,,,,,,,,,,,,,,,,,,,,,,,,,,,,,,,,,,,,,,,,,,,,,,,,,,,,,,,,,,,,,,,,,,,,,,,,,,,,,,,,,,,,,,,,,,,,,,,,,,,,,,,,,,,,,,,,,,,,,
0,88,88,3,1,,60ede6577c93b8e4d7f6bbdf,62c538d74f260ff71db91f20,2022-07-06_08h25.40.070,Colour_Asymmetry_Pilot,2022.1.3,Win32,143.5544071,62c50e9c1127f2cd403a315f,,,,,,,,,,,,,,,,,,,,,,,,,,,,,,,,,,,,,,,,,,,,,,,,,,,,,,,,,,,,,,,,,,,,,,,,,,,,,,,,,,,,,,,,,,,,,,,,,,,,,,,,,,,,,,,,,,,,,,,,,,,,,,,,,,,,,,,,,,,,,,,,,,,,,,,,,,,,,,,,,,,
0,89,89,33,1,,60ede6577c93b8e4d7f6bbdf,62c538d74f260ff71db91f20,2022-07-06_08h25.40.070,Colour_Asymmetry_Pilot,2022.1.3,Win32,143.5544071,62c50e9c1127f2cd403a315f,,,,,,,,,,,,,,,,,,,,,,,,,,,,,,,,,,,,,,,,,,,,,,,,,,,,,,,,,,,,,,,,,,,,,,,,,,,,,,,,,,,,,,,,,,,,,,,,,,,,,,,,,,,,,,,,,,,,,,,,,,,,,,,,,,,,,,,,,,,,,,,,,,,,,,,,,,,,,,,,,,,
0,90,90,0,1,,60ede6577c93b8e4d7f6bbdf,62c538d74f260ff71db91f20,2022-07-06_08h25.40.070,Colour_Asymmetry_Pilot,2022.1.3,Win32,143.5544071,62c50e9c1127f2cd403a315f,,,,,,,,,,,,,,,,,,,,,,,,,,,,,,,,,,,,,,,,,,,,,,,,,,,,,,,,,,,,,,,,,,,,,,,,,,,,,,,,,,,,,,,,,,,,,,,,,,,,,,,,,,,,,,,,,,,,,,,,,,,,,,,,,,,,,,,,,,,,,,,,,,,,,,,,,,,,,,,,,,,
0,91,91,1,1,,60ede6577c93b8e4d7f6bbdf,62c538d74f260ff71db91f20,2022-07-06_08h25.40.070,Colour_Asymmetry_Pilot,2022.1.3,Win32,143.5544071,62c50e9c1127f2cd403a315f,,,,,,,,,,,,,,,,,,,,,,,,,,,,,,,,,,,,,,,,,,,,,,,,,,,,,,,,,,,,,,,,,,,,,,,,,,,,,,,,,,,,,,,,,,,,,,,,,,,,,,,,,,,,,,,,,,,,,,,,,,,,,,,,,,,,,,,,,,,,,,,,,,,,,,,,,,,,,,,,,,,
0,92,92,34,1,,60ede6577c93b8e4d7f6bbdf,62c538d74f260ff71db91f20,2022-07-06_08h25.40.070,Colour_Asymmetry_Pilot,2022.1.3,Win32,143.5544071,62c50e9c1127f2cd403a315f,,,,,,,,,,,,,,,,,,,,,,,,,,,,,,,,,,,,,,,,,,,,,,,,,,,,,,,,,,,,,,,,,,,,,,,,,,,,,,,,,,,,,,,,,,,,,,,,,,,,,,,,,,,,,,,,,,,,,,,,,,,,,,,,,,,,,,,,,,,,,,,,,,,,,,,,,,,,,,,,,,,
,,,,,,60ede6577c93b8e4d7f6bbdf,62c538d74f260ff71db91f20,2022-07-06_08h25.40.070,Colour_Asymmetry_Pilot,2022.1.3,Win32,143.5544071,62c50e9c1127f2cd403a315f,0,0,0,133,1,threefour,,,,,,,,,,,,,,,,,,,,,,,,,,,,,,,,,,,,,,,,,,,,,,,,,,,,,,,,,,,,,,,,,,,,,,,,,,,,,,,,,,,,,,,,,,,,,,,,,,,,,,,,,,,,,,,,,,,,,,,,,,,,,,,,,,,,,,,,,,,,,,,,,,,,,,,,,,,,,
,,,,,,60ede6577c93b8e4d7f6bbdf,62c538d74f260ff71db91f20,2022-07-06_08h25.40.070,Colour_Asymmetry_Pilot,2022.1.3,Win32,143.5544071,62c50e9c1127f2cd403a315f,0,1,1,130,1,twoone,,,,,,,,,,,,,,,,,,,,,,,,,,,,,,,,,,,,,,,,,,,,,,,,,,,,,,,,,,,,,,,,,,,,,,,,,,,,,,,,,,,,,,,,,,,,,,,,,,,,,,,,,,,,,,,,,,,,,,,,,,,,,,,,,,,,,,,,,,,,,,,,,,,,,,,,,,,,,
,,,,,,60ede6577c93b8e4d7f6bbdf,62c538d74f260ff71db91f20,2022-07-06_08h25.40.070,Colour_Asymmetry_Pilot,2022.1.3,Win32,143.5544071,62c50e9c1127f2cd403a315f,0,2,2,27,1,twofour,,,,,,,,,,,,,,,,,,,,,,,,,,,,,,,,,,,,,,,,,,,,,,,,,,,,,,,,,,,,,,,,,,,,,,,,,,,,,,,,,,,,,,,,,,,,,,,,,,,,,,,,,,,,,,,,,,,,,,,,,,,,,,,,,,,,,,,,,,,,,,,,,,,,,,,,,,,,,
,,,,,,60ede6577c93b8e4d7f6bbdf,62c538d74f260ff71db91f20,2022-07-06_08h25.40.070,Colour_Asymmetry_Pilot,2022.1.3,Win32,143.5544071,62c50e9c1127f2cd403a315f,0,3,3,44,1,threeone,,,,,,,,,,,,,,,,,,,,,,,,,,,,,,,,,,,,,,,,,,,,,,,,,,,,,,,,,,,,,,,,,,,,,,,,,,,,,,,,,,,,,,,,,,,,,,,,,,,,,,,,,,,,,,,,,,,,,,,,,,,,,,,,,,,,,,,,,,,,,,,,,,,,,,,,,,,,,
,,,,,,60ede6577c93b8e4d7f6bbdf,62c538d74f260ff71db91f20,2022-07-06_08h25.40.070,Colour_Asymmetry_Pilot,2022.1.3,Win32,143.5544071,62c50e9c1127f2cd403a315f,0,4,4,60,1,threeone,,,,,,,,,,,,,,,,,,,,,,,,,,,,,,,,,,,,,,,,,,,,,,,,,,,,,,,,,,,,,,,,,,,,,,,,,,,,,,,,,,,,,,,,,,,,,,,,,,,,,,,,,,,,,,,,,,,,,,,,,,,,,,,,,,,,,,,,,,,,,,,,,,,,,,,,,,,,,
,,,,,,60ede6577c93b8e4d7f6bbdf,62c538d74f260ff71db91f20,2022-07-06_08h25.40.070,Colour_Asymmetry_Pilot,2022.1.3,Win32,143.5544071,62c50e9c1127f2cd403a315f,0,5,5,135,1,fourthree,,,,,,,,,,,,,,,,,,,,,,,,,,,,,,,,,,,,,,,,,,,,,,,,,,,,,,,,,,,,,,,,,,,,,,,,,,,,,,,,,,,,,,,,,,,,,,,,,,,,,,,,,,,,,,,,,,,,,,,,,,,,,,,,,,,,,,,,,,,,,,,,,,,,,,,,,,,,,
,,,,,,60ede6577c93b8e4d7f6bbdf,62c538d74f260ff71db91f20,2022-07-06_08h25.40.070,Colour_Asymmetry_Pilot,2022.1.3,Win32,143.5544071,62c50e9c1127f2cd403a315f,0,6,6,113,1,onethree,,,,,,,,,,,,,,,,,,,,,,,,,,,,,,,,,,,,,,,,,,,,,,,,,,,,,,,,,,,,,,,,,,,,,,,,,,,,,,,,,,,,,,,,,,,,,,,,,,,,,,,,,,,,,,,,,,,,,,,,,,,,,,,,,,,,,,,,,,,,,,,,,,,,,,,,,,,,,
,,,,,,60ede6577c93b8e4d7f6bbdf,62c538d74f260ff71db91f20,2022-07-06_08h25.40.070,Colour_Asymmetry_Pilot,2022.1.3,Win32,143.5544071,62c50e9c1127f2cd403a315f,0,7,7,98,1,twoone,,,,,,,,,,,,,,,,,,,,,,,,,,,,,,,,,,,,,,,,,,,,,,,,,,,,,,,,,,,,,,,,,,,,,,,,,,,,,,,,,,,,,,,,,,,,,,,,,,,,,,,,,,,,,,,,,,,,,,,,,,,,,,,,,,,,,,,,,,,,,,,,,,,,,,,,,,,,,
,,,,,,60ede6577c93b8e4d7f6bbdf,62c538d74f260ff71db91f20,2022-07-06_08h25.40.070,Colour_Asymmetry_Pilot,2022.1.3,Win32,143.5544071,62c50e9c1127f2cd403a315f,0,8,8,80,1,onetwo,,,,,,,,,,,,,,,,,,,,,,,,,,,,,,,,,,,,,,,,,,,,,,,,,,,,,,,,,,,,,,,,,,,,,,,,,,,,,,,,,,,,,,,,,,,,,,,,,,,,,,,,,,,,,,,,,,,,,,,,,,,,,,,,,,,,,,,,,,,,,,,,,,,,,,,,,,,,,
,,,,,,60ede6577c93b8e4d7f6bbdf,62c538d74f260ff71db91f20,2022-07-06_08h25.40.070,Colour_Asymmetry_Pilot,2022.1.3,Win32,143.5544071,62c50e9c1127f2cd403a315f,0,9,9,149,1,threefour,,,,,,,,,,,,,,,,,,,,,,,,,,,,,,,,,,,,,,,,,,,,,,,,,,,,,,,,,,,,,,,,,,,,,,,,,,,,,,,,,,,,,,,,,,,,,,,,,,,,,,,,,,,,,,,,,,,,,,,,,,,,,,,,,,,,,,,,,,,,,,,,,,,,,,,,,,,,,
,,,,,,60ede6577c93b8e4d7f6bbdf,62c538d74f260ff71db91f20,2022-07-06_08h25.40.070,Colour_Asymmetry_Pilot,2022.1.3,Win32,143.5544071,62c50e9c1127f2cd403a315f,0,10,10,87,1,fourthree,,,,,,,,,,,,,,,,,,,,,,,,,,,,,,,,,,,,,,,,,,,,,,,,,,,,,,,,,,,,,,,,,,,,,,,,,,,,,,,,,,,,,,,,,,,,,,,,,,,,,,,,,,,,,,,,,,,,,,,,,,,,,,,,,,,,,,,,,,,,,,,,,,,,,,,,,,,,,
,,,,,,60ede6577c93b8e4d7f6bbdf,62c538d74f260ff71db91f20,2022-07-06_08h25.40.070,Colour_Asymmetry_Pilot,2022.1.3,Win32,143.5544071,62c50e9c1127f2cd403a315f,0,11,11,161,1,onethree,,,,,,,,,,,,,,,,,,,,,,,,,,,,,,,,,,,,,,,,,,,,,,,,,,,,,,,,,,,,,,,,,,,,,,,,,,,,,,,,,,,,,,,,,,,,,,,,,,,,,,,,,,,,,,,,,,,,,,,,,,,,,,,,,,,,,,,,,,,,,,,,,,,,,,,,,,,,,
,,,,,,60ede6577c93b8e4d7f6bbdf,62c538d74f260ff71db91f20,2022-07-06_08h25.40.070,Colour_Asymmetry_Pilot,2022.1.3,Win32,143.5544071,62c50e9c1127f2cd403a315f,0,12,12,146,1,twoone,,,,,,,,,,,,,,,,,,,,,,,,,,,,,,,,,,,,,,,,,,,,,,,,,,,,,,,,,,,,,,,,,,,,,,,,,,,,,,,,,,,,,,,,,,,,,,,,,,,,,,,,,,,,,,,,,,,,,,,,,,,,,,,,,,,,,,,,,,,,,,,,,,,,,,,,,,,,,
,,,,,,60ede6577c93b8e4d7f6bbdf,62c538d74f260ff71db91f20,2022-07-06_08h25.40.070,Colour_Asymmetry_Pilot,2022.1.3,Win32,143.5544071,62c50e9c1127f2cd403a315f,0,13,13,142,1,fourtwo,,,,,,,,,,,,,,,,,,,,,,,,,,,,,,,,,,,,,,,,,,,,,,,,,,,,,,,,,,,,,,,,,,,,,,,,,,,,,,,,,,,,,,,,,,,,,,,,,,,,,,,,,,,,,,,,,,,,,,,,,,,,,,,,,,,,,,,,,,,,,,,,,,,,,,,,,,,,,
,,,,,,60ede6577c93b8e4d7f6bbdf,62c538d74f260ff71db91f20,2022-07-06_08h25.40.070,Colour_Asymmetry_Pilot,2022.1.3,Win32,143.5544071,62c50e9c1127f2cd403a315f,0,14,14,114,1,twoone,,,,,,,,,,,,,,,,,,,,,,,,,,,,,,,,,,,,,,,,,,,,,,,,,,,,,,,,,,,,,,,,,,,,,,,,,,,,,,,,,,,,,,,,,,,,,,,,,,,,,,,,,,,,,,,,,,,,,,,,,,,,,,,,,,,,,,,,,,,,,,,,,,,,,,,,,,,,,
,,,,,,60ede6577c93b8e4d7f6bbdf,62c538d74f260ff71db91f20,2022-07-06_08h25.40.070,Colour_Asymmetry_Pilot,2022.1.3,Win32,143.5544071,62c50e9c1127f2cd403a315f,0,15,15,155,1,twofour,,,,,,,,,,,,,,,,,,,,,,,,,,,,,,,,,,,,,,,,,,,,,,,,,,,,,,,,,,,,,,,,,,,,,,,,,,,,,,,,,,,,,,,,,,,,,,,,,,,,,,,,,,,,,,,,,,,,,,,,,,,,,,,,,,,,,,,,,,,,,,,,,,,,,,,,,,,,,
,,,,,,60ede6577c93b8e4d7f6bbdf,62c538d74f260ff71db91f20,2022-07-06_08h25.40.070,Colour_Asymmetry_Pilot,2022.1.3,Win32,143.5544071,62c50e9c1127f2cd403a315f,0,16,16,69,1,threefour,,,,,,,,,,,,,,,,,,,,,,,,,,,,,,,,,,,,,,,,,,,,,,,,,,,,,,,,,,,,,,,,,,,,,,,,,,,,,,,,,,,,,,,,,,,,,,,,,,,,,,,,,,,,,,,,,,,,,,,,,,,,,,,,,,,,,,,,,,,,,,,,,,,,,,,,,,,,,
,,,,,,60ede6577c93b8e4d7f6bbdf,62c538d74f260ff71db91f20,2022-07-06_08h25.40.070,Colour_Asymmetry_Pilot,2022.1.3,Win32,143.5544071,62c50e9c1127f2cd403a315f,0,17,17,78,1,fourtwo,,,,,,,,,,,,,,,,,,,,,,,,,,,,,,,,,,,,,,,,,,,,,,,,,,,,,,,,,,,,,,,,,,,,,,,,,,,,,,,,,,,,,,,,,,,,,,,,,,,,,,,,,,,,,,,,,,,,,,,,,,,,,,,,,,,,,,,,,,,,,,,,,,,,,,,,,,,,,
,,,,,,60ede6577c93b8e4d7f6bbdf,62c538d74f260ff71db91f20,2022-07-06_08h25.40.070,Colour_Asymmetry_Pilot,2022.1.3,Win32,143.5544071,62c50e9c1127f2cd403a315f,0,18,18,41,1,onethree,,,,,,,,,,,,,,,,,,,,,,,,,,,,,,,,,,,,,,,,,,,,,,,,,,,,,,,,,,,,,,,,,,,,,,,,,,,,,,,,,,,,,,,,,,,,,,,,,,,,,,,,,,,,,,,,,,,,,,,,,,,,,,,,,,,,,,,,,,,,,,,,,,,,,,,,,,,,,
,,,,,,60ede6577c93b8e4d7f6bbdf,62c538d74f260ff71db91f20,2022-07-06_08h25.40.070,Colour_Asymmetry_Pilot,2022.1.3,Win32,143.5544071,62c50e9c1127f2cd403a315f,0,19,19,38,1,fourtwo,,,,,,,,,,,,,,,,,,,,,,,,,,,,,,,,,,,,,,,,,,,,,,,,,,,,,,,,,,,,,,,,,,,,,,,,,,,,,,,,,,,,,,,,,,,,,,,,,,,,,,,,,,,,,,,,,,,,,,,,,,,,,,,,,,,,,,,,,,,,,,,,,,,,,,,,,,,,,
,,,,,,60ede6577c93b8e4d7f6bbdf,62c538d74f260ff71db91f20,2022-07-06_08h25.40.070,Colour_Asymmetry_Pilot,2022.1.3,Win32,143.5544071,62c50e9c1127f2cd403a315f,0,20,20,46,1,fourtwo,,,,,,,,,,,,,,,,,,,,,,,,,,,,,,,,,,,,,,,,,,,,,,,,,,,,,,,,,,,,,,,,,,,,,,,,,,,,,,,,,,,,,,,,,,,,,,,,,,,,,,,,,,,,,,,,,,,,,,,,,,,,,,,,,,,,,,,,,,,,,,,,,,,,,,,,,,,,,
,,,,,,60ede6577c93b8e4d7f6bbdf,62c538d74f260ff71db91f20,2022-07-06_08h25.40.070,Colour_Asymmetry_Pilot,2022.1.3,Win32,143.5544071,62c50e9c1127f2cd403a315f,0,21,21,140,1,threeone,,,,,,,,,,,,,,,,,,,,,,,,,,,,,,,,,,,,,,,,,,,,,,,,,,,,,,,,,,,,,,,,,,,,,,,,,,,,,,,,,,,,,,,,,,,,,,,,,,,,,,,,,,,,,,,,,,,,,,,,,,,,,,,,,,,,,,,,,,,,,,,,,,,,,,,,,,,,,
,,,,,,60ede6577c93b8e4d7f6bbdf,62c538d74f260ff71db91f20,2022-07-06_08h25.40.070,Colour_Asymmetry_Pilot,2022.1.3,Win32,143.5544071,62c50e9c1127f2cd403a315f,0,22,22,123,1,twofour,,,,,,,,,,,,,,,,,,,,,,,,,,,,,,,,,,,,,,,,,,,,,,,,,,,,,,,,,,,,,,,,,,,,,,,,,,,,,,,,,,,,,,,,,,,,,,,,,,,,,,,,,,,,,,,,,,,,,,,,,,,,,,,,,,,,,,,,,,,,,,,,,,,,,,,,,,,,,
,,,,,,60ede6577c93b8e4d7f6bbdf,62c538d74f260ff71db91f20,2022-07-06_08h25.40.070,Colour_Asymmetry_Pilot,2022.1.3,Win32,143.5544071,62c50e9c1127f2cd403a315f,0,23,23,3,1,twofour,,,,,,,,,,,,,,,,,,,,,,,,,,,,,,,,,,,,,,,,,,,,,,,,,,,,,,,,,,,,,,,,,,,,,,,,,,,,,,,,,,,,,,,,,,,,,,,,,,,,,,,,,,,,,,,,,,,,,,,,,,,,,,,,,,,,,,,,,,,,,,,,,,,,,,,,,,,,,
,,,,,,60ede6577c93b8e4d7f6bbdf,62c538d74f260ff71db91f20,2022-07-06_08h25.40.070,Colour_Asymmetry_Pilot,2022.1.3,Win32,143.5544071,62c50e9c1127f2cd403a315f,0,24,24,92,1,threeone,,,,,,,,,,,,,,,,,,,,,,,,,,,,,,,,,,,,,,,,,,,,,,,,,,,,,,,,,,,,,,,,,,,,,,,,,,,,,,,,,,,,,,,,,,,,,,,,,,,,,,,,,,,,,,,,,,,,,,,,,,,,,,,,,,,,,,,,,,,,,,,,,,,,,,,,,,,,,
,,,,,,60ede6577c93b8e4d7f6bbdf,62c538d74f260ff71db91f20,2022-07-06_08h25.40.070,Colour_Asymmetry_Pilot,2022.1.3,Win32,143.5544071,62c50e9c1127f2cd403a315f,0,25,25,136,1,onetwo,,,,,,,,,,,,,,,,,,,,,,,,,,,,,,,,,,,,,,,,,,,,,,,,,,,,,,,,,,,,,,,,,,,,,,,,,,,,,,,,,,,,,,,,,,,,,,,,,,,,,,,,,,,,,,,,,,,,,,,,,,,,,,,,,,,,,,,,,,,,,,,,,,,,,,,,,,,,,
,,,,,,60ede6577c93b8e4d7f6bbdf,62c538d74f260ff71db91f20,2022-07-06_08h25.40.070,Colour_Asymmetry_Pilot,2022.1.3,Win32,143.5544071,62c50e9c1127f2cd403a315f,0,26,26,0,1,onetwo,,,,,,,,,,,,,,,,,,,,,,,,,,,,,,,,,,,,,,,,,,,,,,,,,,,,,,,,,,,,,,,,,,,,,,,,,,,,,,,,,,,,,,,,,,,,,,,,,,,,,,,,,,,,,,,,,,,,,,,,,,,,,,,,,,,,,,,,,,,,,,,,,,,,,,,,,,,,,
,,,,,,60ede6577c93b8e4d7f6bbdf,62c538d74f260ff71db91f20,2022-07-06_08h25.40.070,Colour_Asymmetry_Pilot,2022.1.3,Win32,143.5544071,62c50e9c1127f2cd403a315f,0,27,27,117,1,threefour,,,,,,,,,,,,,,,,,,,,,,,,,,,,,,,,,,,,,,,,,,,,,,,,,,,,,,,,,,,,,,,,,,,,,,,,,,,,,,,,,,,,,,,,,,,,,,,,,,,,,,,,,,,,,,,,,,,,,,,,,,,,,,,,,,,,,,,,,,,,,,,,,,,,,,,,,,,,,
,,,,,,60ede6577c93b8e4d7f6bbdf,62c538d74f260ff71db91f20,2022-07-06_08h25.40.070,Colour_Asymmetry_Pilot,2022.1.3,Win32,143.5544071,62c50e9c1127f2cd403a315f,0,28,28,19,1,twofour,,,,,,,,,,,,,,,,,,,,,,,,,,,,,,,,,,,,,,,,,,,,,,,,,,,,,,,,,,,,,,,,,,,,,,,,,,,,,,,,,,,,,,,,,,,,,,,,,,,,,,,,,,,,,,,,,,,,,,,,,,,,,,,,,,,,,,,,,,,,,,,,,,,,,,,,,,,,,
,,,,,,60ede6577c93b8e4d7f6bbdf,62c538d74f260ff71db91f20,2022-07-06_08h25.40.070,Colour_Asymmetry_Pilot,2022.1.3,Win32,143.5544071,62c50e9c1127f2cd403a315f,0,29,29,21,1,threefour,,,,,,,,,,,,,,,,,,,,,,,,,,,,,,,,,,,,,,,,,,,,,,,,,,,,,,,,,,,,,,,,,,,,,,,,,,,,,,,,,,,,,,,,,,,,,,,,,,,,,,,,,,,,,,,,,,,,,,,,,,,,,,,,,,,,,,,,,,,,,,,,,,,,,,,,,,,,,
,,,,,,60ede6577c93b8e4d7f6bbdf,62c538d74f260ff71db91f20,2022-07-06_08h25.40.070,Colour_Asymmetry_Pilot,2022.1.3,Win32,143.5544071,62c50e9c1127f2cd403a315f,0,30,30,34,1,twoone,,,,,,,,,,,,,,,,,,,,,,,,,,,,,,,,,,,,,,,,,,,,,,,,,,,,,,,,,,,,,,,,,,,,,,,,,,,,,,,,,,,,,,,,,,,,,,,,,,,,,,,,,,,,,,,,,,,,,,,,,,,,,,,,,,,,,,,,,,,,,,,,,,,,,,,,,,,,,
,,,,,,60ede6577c93b8e4d7f6bbdf,62c538d74f260ff71db91f20,2022-07-06_08h25.40.070,Colour_Asymmetry_Pilot,2022.1.3,Win32,143.5544071,62c50e9c1127f2cd403a315f,0,31,31,111,1,fourthree,,,,,,,,,,,,,,,,,,,,,,,,,,,,,,,,,,,,,,,,,,,,,,,,,,,,,,,,,,,,,,,,,,,,,,,,,,,,,,,,,,,,,,,,,,,,,,,,,,,,,,,,,,,,,,,,,,,,,,,,,,,,,,,,,,,,,,,,,,,,,,,,,,,,,,,,,,,,,
,,,,,,60ede6577c93b8e4d7f6bbdf,62c538d74f260ff71db91f20,2022-07-06_08h25.40.070,Colour_Asymmetry_Pilot,2022.1.3,Win32,143.5544071,62c50e9c1127f2cd403a315f,0,32,32,66,1,twoone,,,,,,,,,,,,,,,,,,,,,,,,,,,,,,,,,,,,,,,,,,,,,,,,,,,,,,,,,,,,,,,,,,,,,,,,,,,,,,,,,,,,,,,,,,,,,,,,,,,,,,,,,,,,,,,,,,,,,,,,,,,,,,,,,,,,,,,,,,,,,,,,,,,,,,,,,,,,,
,,,,,,60ede6577c93b8e4d7f6bbdf,62c538d74f260ff71db91f20,2022-07-06_08h25.40.070,Colour_Asymmetry_Pilot,2022.1.3,Win32,143.5544071,62c50e9c1127f2cd403a315f,0,33,33,9,1,onethree,,,,,,,,,,,,,,,,,,,,,,,,,,,,,,,,,,,,,,,,,,,,,,,,,,,,,,,,,,,,,,,,,,,,,,,,,,,,,,,,,,,,,,,,,,,,,,,,,,,,,,,,,,,,,,,,,,,,,,,,,,,,,,,,,,,,,,,,,,,,,,,,,,,,,,,,,,,,,
,,,,,,60ede6577c93b8e4d7f6bbdf,62c538d74f260ff71db91f20,2022-07-06_08h25.40.070,Colour_Asymmetry_Pilot,2022.1.3,Win32,143.5544071,62c50e9c1127f2cd403a315f,0,34,34,12,1,threeone,,,,,,,,,,,,,,,,,,,,,,,,,,,,,,,,,,,,,,,,,,,,,,,,,,,,,,,,,,,,,,,,,,,,,,,,,,,,,,,,,,,,,,,,,,,,,,,,,,,,,,,,,,,,,,,,,,,,,,,,,,,,,,,,,,,,,,,,,,,,,,,,,,,,,,,,,,,,,
,,,,,,60ede6577c93b8e4d7f6bbdf,62c538d74f260ff71db91f20,2022-07-06_08h25.40.070,Colour_Asymmetry_Pilot,2022.1.3,Win32,143.5544071,62c50e9c1127f2cd403a315f,0,35,35,102,1,fourtwo,,,,,,,,,,,,,,,,,,,,,,,,,,,,,,,,,,,,,,,,,,,,,,,,,,,,,,,,,,,,,,,,,,,,,,,,,,,,,,,,,,,,,,,,,,,,,,,,,,,,,,,,,,,,,,,,,,,,,,,,,,,,,,,,,,,,,,,,,,,,,,,,,,,,,,,,,,,,,
,,,,,,60ede6577c93b8e4d7f6bbdf,62c538d74f260ff71db91f20,2022-07-06_08h25.40.070,Colour_Asymmetry_Pilot,2022.1.3,Win32,143.5544071,62c50e9c1127f2cd403a315f,0,36,36,119,1,fourthree,,,,,,,,,,,,,,,,,,,,,,,,,,,,,,,,,,,,,,,,,,,,,,,,,,,,,,,,,,,,,,,,,,,,,,,,,,,,,,,,,,,,,,,,,,,,,,,,,,,,,,,,,,,,,,,,,,,,,,,,,,,,,,,,,,,,,,,,,,,,,,,,,,,,,,,,,,,,,
,,,,,,60ede6577c93b8e4d7f6bbdf,62c538d74f260ff71db91f20,2022-07-06_08h25.40.070,Colour_Asymmetry_Pilot,2022.1.3,Win32,143.5544071,62c50e9c1127f2cd403a315f,0,37,37,70,1,fourtwo,,,,,,,,,,,,,,,,,,,,,,,,,,,,,,,,,,,,,,,,,,,,,,,,,,,,,,,,,,,,,,,,,,,,,,,,,,,,,,,,,,,,,,,,,,,,,,,,,,,,,,,,,,,,,,,,,,,,,,,,,,,,,,,,,,,,,,,,,,,,,,,,,,,,,,,,,,,,,
,,,,,,60ede6577c93b8e4d7f6bbdf,62c538d74f260ff71db91f20,2022-07-06_08h25.40.070,Colour_Asymmetry_Pilot,2022.1.3,Win32,143.5544071,62c50e9c1127f2cd403a315f,0,38,38,17,1,onethree,,,,,,,,,,,,,,,,,,,,,,,,,,,,,,,,,,,,,,,,,,,,,,,,,,,,,,,,,,,,,,,,,,,,,,,,,,,,,,,,,,,,,,,,,,,,,,,,,,,,,,,,,,,,,,,,,,,,,,,,,,,,,,,,,,,,,,,,,,,,,,,,,,,,,,,,,,,,,
,,,,,,60ede6577c93b8e4d7f6bbdf,62c538d74f260ff71db91f20,2022-07-06_08h25.40.070,Colour_Asymmetry_Pilot,2022.1.3,Win32,143.5544071,62c50e9c1127f2cd403a315f,0,39,39,79,1,fourthree,,,,,,,,,,,,,,,,,,,,,,,,,,,,,,,,,,,,,,,,,,,,,,,,,,,,,,,,,,,,,,,,,,,,,,,,,,,,,,,,,,,,,,,,,,,,,,,,,,,,,,,,,,,,,,,,,,,,,,,,,,,,,,,,,,,,,,,,,,,,,,,,,,,,,,,,,,,,,
,,,,,,60ede6577c93b8e4d7f6bbdf,62c538d74f260ff71db91f20,2022-07-06_08h25.40.070,Colour_Asymmetry_Pilot,2022.1.3,Win32,143.5544071,62c50e9c1127f2cd403a315f,0,40,40,132,1,threeone,,,,,,,,,,,,,,,,,,,,,,,,,,,,,,,,,,,,,,,,,,,,,,,,,,,,,,,,,,,,,,,,,,,,,,,,,,,,,,,,,,,,,,,,,,,,,,,,,,,,,,,,,,,,,,,,,,,,,,,,,,,,,,,,,,,,,,,,,,,,,,,,,,,,,,,,,,,,,
,,,,,,60ede6577c93b8e4d7f6bbdf,62c538d74f260ff71db91f20,2022-07-06_08h25.40.070,Colour_Asymmetry_Pilot,2022.1.3,Win32,143.5544071,62c50e9c1127f2cd403a315f,0,41,41,35,1,twofour,,,,,,,,,,,,,,,,,,,,,,,,,,,,,,,,,,,,,,,,,,,,,,,,,,,,,,,,,,,,,,,,,,,,,,,,,,,,,,,,,,,,,,,,,,,,,,,,,,,,,,,,,,,,,,,,,,,,,,,,,,,,,,,,,,,,,,,,,,,,,,,,,,,,,,,,,,,,,
,,,,,,60ede6577c93b8e4d7f6bbdf,62c538d74f260ff71db91f20,2022-07-06_08h25.40.070,Colour_Asymmetry_Pilot,2022.1.3,Win32,143.5544071,62c50e9c1127f2cd403a315f,0,42,42,115,1,twofour,,,,,,,,,,,,,,,,,,,,,,,,,,,,,,,,,,,,,,,,,,,,,,,,,,,,,,,,,,,,,,,,,,,,,,,,,,,,,,,,,,,,,,,,,,,,,,,,,,,,,,,,,,,,,,,,,,,,,,,,,,,,,,,,,,,,,,,,,,,,,,,,,,,,,,,,,,,,,
,,,,,,60ede6577c93b8e4d7f6bbdf,62c538d74f260ff71db91f20,2022-07-06_08h25.40.070,Colour_Asymmetry_Pilot,2022.1.3,Win32,143.5544071,62c50e9c1127f2cd403a315f,0,43,43,20,1,threeone,,,,,,,,,,,,,,,,,,,,,,,,,,,,,,,,,,,,,,,,,,,,,,,,,,,,,,,,,,,,,,,,,,,,,,,,,,,,,,,,,,,,,,,,,,,,,,,,,,,,,,,,,,,,,,,,,,,,,,,,,,,,,,,,,,,,,,,,,,,,,,,,,,,,,,,,,,,,,
,,,,,,60ede6577c93b8e4d7f6bbdf,62c538d74f260ff71db91f20,2022-07-06_08h25.40.070,Colour_Asymmetry_Pilot,2022.1.3,Win32,143.5544071,62c50e9c1127f2cd403a315f,0,44,44,124,1,threeone,,,,,,,,,,,,,,,,,,,,,,,,,,,,,,,,,,,,,,,,,,,,,,,,,,,,,,,,,,,,,,,,,,,,,,,,,,,,,,,,,,,,,,,,,,,,,,,,,,,,,,,,,,,,,,,,,,,,,,,,,,,,,,,,,,,,,,,,,,,,,,,,,,,,,,,,,,,,,
,,,,,,60ede6577c93b8e4d7f6bbdf,62c538d74f260ff71db91f20,2022-07-06_08h25.40.070,Colour_Asymmetry_Pilot,2022.1.3,Win32,143.5544071,62c50e9c1127f2cd403a315f,0,45,45,71,1,fourthree,,,,,,,,,,,,,,,,,,,,,,,,,,,,,,,,,,,,,,,,,,,,,,,,,,,,,,,,,,,,,,,,,,,,,,,,,,,,,,,,,,,,,,,,,,,,,,,,,,,,,,,,,,,,,,,,,,,,,,,,,,,,,,,,,,,,,,,,,,,,,,,,,,,,,,,,,,,,,
,,,,,,60ede6577c93b8e4d7f6bbdf,62c538d74f260ff71db91f20,2022-07-06_08h25.40.070,Colour_Asymmetry_Pilot,2022.1.3,Win32,143.5544071,62c50e9c1127f2cd403a315f,0,46,46,62,1,fourtwo,,,,,,,,,,,,,,,,,,,,,,,,,,,,,,,,,,,,,,,,,,,,,,,,,,,,,,,,,,,,,,,,,,,,,,,,,,,,,,,,,,,,,,,,,,,,,,,,,,,,,,,,,,,,,,,,,,,,,,,,,,,,,,,,,,,,,,,,,,,,,,,,,,,,,,,,,,,,,
,,,,,,60ede6577c93b8e4d7f6bbdf,62c538d74f260ff71db91f20,2022-07-06_08h25.40.070,Colour_Asymmetry_Pilot,2022.1.3,Win32,143.5544071,62c50e9c1127f2cd403a315f,0,47,47,141,1,threefour,,,,,,,,,,,,,,,,,,,,,,,,,,,,,,,,,,,,,,,,,,,,,,,,,,,,,,,,,,,,,,,,,,,,,,,,,,,,,,,,,,,,,,,,,,,,,,,,,,,,,,,,,,,,,,,,,,,,,,,,,,,,,,,,,,,,,,,,,,,,,,,,,,,,,,,,,,,,,
,,,,,,60ede6577c93b8e4d7f6bbdf,62c538d74f260ff71db91f20,2022-07-06_08h25.40.070,Colour_Asymmetry_Pilot,2022.1.3,Win32,143.5544071,62c50e9c1127f2cd403a315f,0,48,48,126,1,fourtwo,,,,,,,,,,,,,,,,,,,,,,,,,,,,,,,,,,,,,,,,,,,,,,,,,,,,,,,,,,,,,,,,,,,,,,,,,,,,,,,,,,,,,,,,,,,,,,,,,,,,,,,,,,,,,,,,,,,,,,,,,,,,,,,,,,,,,,,,,,,,,,,,,,,,,,,,,,,,,
,,,,,,60ede6577c93b8e4d7f6bbdf,62c538d74f260ff71db91f20,2022-07-06_08h25.40.070,Colour_Asymmetry_Pilot,2022.1.3,Win32,143.5544071,62c50e9c1127f2cd403a315f,0,49,49,23,1,fourthree,,,,,,,,,,,,,,,,,,,,,,,,,,,,,,,,,,,,,,,,,,,,,,,,,,,,,,,,,,,,,,,,,,,,,,,,,,,,,,,,,,,,,,,,,,,,,,,,,,,,,,,,,,,,,,,,,,,,,,,,,,,,,,,,,,,,,,,,,,,,,,,,,,,,,,,,,,,,,
,,,,,,60ede6577c93b8e4d7f6bbdf,62c538d74f260ff71db91f20,2022-07-06_08h25.40.070,Colour_Asymmetry_Pilot,2022.1.3,Win32,143.5544071,62c50e9c1127f2cd403a315f,0,50,50,25,1,onethree,,,,,,,,,,,,,,,,,,,,,,,,,,,,,,,,,,,,,,,,,,,,,,,,,,,,,,,,,,,,,,,,,,,,,,,,,,,,,,,,,,,,,,,,,,,,,,,,,,,,,,,,,,,,,,,,,,,,,,,,,,,,,,,,,,,,,,,,,,,,,,,,,,,,,,,,,,,,,
,,,,,,60ede6577c93b8e4d7f6bbdf,62c538d74f260ff71db91f20,2022-07-06_08h25.40.070,Colour_Asymmetry_Pilot,2022.1.3,Win32,143.5544071,62c50e9c1127f2cd403a315f,0,51,51,16,1,onetwo,,,,,,,,,,,,,,,,,,,,,,,,,,,,,,,,,,,,,,,,,,,,,,,,,,,,,,,,,,,,,,,,,,,,,,,,,,,,,,,,,,,,,,,,,,,,,,,,,,,,,,,,,,,,,,,,,,,,,,,,,,,,,,,,,,,,,,,,,,,,,,,,,,,,,,,,,,,,,
,,,,,,60ede6577c93b8e4d7f6bbdf,62c538d74f260ff71db91f20,2022-07-06_08h25.40.070,Colour_Asymmetry_Pilot,2022.1.3,Win32,143.5544071,62c50e9c1127f2cd403a315f,0,52,52,4,1,threeone,,,,,,,,,,,,,,,,,,,,,,,,,,,,,,,,,,,,,,,,,,,,,,,,,,,,,,,,,,,,,,,,,,,,,,,,,,,,,,,,,,,,,,,,,,,,,,,,,,,,,,,,,,,,,,,,,,,,,,,,,,,,,,,,,,,,,,,,,,,,,,,,,,,,,,,,,,,,,
,,,,,,60ede6577c93b8e4d7f6bbdf,62c538d74f260ff71db91f20,2022-07-06_08h25.40.070,Colour_Asymmetry_Pilot,2022.1.3,Win32,143.5544071,62c50e9c1127f2cd403a315f,0,53,53,134,1,fourtwo,,,,,,,,,,,,,,,,,,,,,,,,,,,,,,,,,,,,,,,,,,,,,,,,,,,,,,,,,,,,,,,,,,,,,,,,,,,,,,,,,,,,,,,,,,,,,,,,,,,,,,,,,,,,,,,,,,,,,,,,,,,,,,,,,,,,,,,,,,,,,,,,,,,,,,,,,,,,,
,,,,,,60ede6577c93b8e4d7f6bbdf,62c538d74f260ff71db91f20,2022-07-06_08h25.40.070,Colour_Asymmetry_Pilot,2022.1.3,Win32,143.5544071,62c50e9c1127f2cd403a315f,0,54,54,32,1,onetwo,,,,,,,,,,,,,,,,,,,,,,,,,,,,,,,,,,,,,,,,,,,,,,,,,,,,,,,,,,,,,,,,,,,,,,,,,,,,,,,,,,,,,,,,,,,,,,,,,,,,,,,,,,,,,,,,,,,,,,,,,,,,,,,,,,,,,,,,,,,,,,,,,,,,,,,,,,,,,
,,,,,,60ede6577c93b8e4d7f6bbdf,62c538d74f260ff71db91f20,2022-07-06_08h25.40.070,Colour_Asymmetry_Pilot,2022.1.3,Win32,143.5544071,62c50e9c1127f2cd403a315f,0,55,55,153,1,onethree,,,,,,,,,,,,,,,,,,,,,,,,,,,,,,,,,,,,,,,,,,,,,,,,,,,,,,,,,,,,,,,,,,,,,,,,,,,,,,,,,,,,,,,,,,,,,,,,,,,,,,,,,,,,,,,,,,,,,,,,,,,,,,,,,,,,,,,,,,,,,,,,,,,,,,,,,,,,,
,,,,,,60ede6577c93b8e4d7f6bbdf,62c538d74f260ff71db91f20,2022-07-06_08h25.40.070,Colour_Asymmetry_Pilot,2022.1.3,Win32,143.5544071,62c50e9c1127f2cd403a315f,0,56,56,24,1,onetwo,,,,,,,,,,,,,,,,,,,,,,,,,,,,,,,,,,,,,,,,,,,,,,,,,,,,,,,,,,,,,,,,,,,,,,,,,,,,,,,,,,,,,,,,,,,,,,,,,,,,,,,,,,,,,,,,,,,,,,,,,,,,,,,,,,,,,,,,,,,,,,,,,,,,,,,,,,,,,
,,,,,,60ede6577c93b8e4d7f6bbdf,62c538d74f260ff71db91f20,2022-07-06_08h25.40.070,Colour_Asymmetry_Pilot,2022.1.3,Win32,143.5544071,62c50e9c1127f2cd403a315f,0,57,57,137,1,onethree,,,,,,,,,,,,,,,,,,,,,,,,,,,,,,,,,,,,,,,,,,,,,,,,,,,,,,,,,,,,,,,,,,,,,,,,,,,,,,,,,,,,,,,,,,,,,,,,,,,,,,,,,,,,,,,,,,,,,,,,,,,,,,,,,,,,,,,,,,,,,,,,,,,,,,,,,,,,,
,,,,,,60ede6577c93b8e4d7f6bbdf,62c538d74f260ff71db91f20,2022-07-06_08h25.40.070,Colour_Asymmetry_Pilot,2022.1.3,Win32,143.5544071,62c50e9c1127f2cd403a315f,0,58,58,30,1,fourtwo,,,,,,,,,,,,,,,,,,,,,,,,,,,,,,,,,,,,,,,,,,,,,,,,,,,,,,,,,,,,,,,,,,,,,,,,,,,,,,,,,,,,,,,,,,,,,,,,,,,,,,,,,,,,,,,,,,,,,,,,,,,,,,,,,,,,,,,,,,,,,,,,,,,,,,,,,,,,,
,,,,,,60ede6577c93b8e4d7f6bbdf,62c538d74f260ff71db91f20,2022-07-06_08h25.40.070,Colour_Asymmetry_Pilot,2022.1.3,Win32,143.5544071,62c50e9c1127f2cd403a315f,0,59,59,127,1,fourthree,,,,,,,,,,,,,,,,,,,,,,,,,,,,,,,,,,,,,,,,,,,,,,,,,,,,,,,,,,,,,,,,,,,,,,,,,,,,,,,,,,,,,,,,,,,,,,,,,,,,,,,,,,,,,,,,,,,,,,,,,,,,,,,,,,,,,,,,,,,,,,,,,,,,,,,,,,,,,
,,,,,,60ede6577c93b8e4d7f6bbdf,62c538d74f260ff71db91f20,2022-07-06_08h25.40.070,Colour_Asymmetry_Pilot,2022.1.3,Win32,143.5544071,62c50e9c1127f2cd403a315f,0,60,60,128,1,onetwo,,,,,,,,,,,,,,,,,,,,,,,,,,,,,,,,,,,,,,,,,,,,,,,,,,,,,,,,,,,,,,,,,,,,,,,,,,,,,,,,,,,,,,,,,,,,,,,,,,,,,,,,,,,,,,,,,,,,,,,,,,,,,,,,,,,,,,,,,,,,,,,,,,,,,,,,,,,,,
,,,,,,60ede6577c93b8e4d7f6bbdf,62c538d74f260ff71db91f20,2022-07-06_08h25.40.070,Colour_Asymmetry_Pilot,2022.1.3,Win32,143.5544071,62c50e9c1127f2cd403a315f,0,61,61,152,1,onetwo,,,,,,,,,,,,,,,,,,,,,,,,,,,,,,,,,,,,,,,,,,,,,,,,,,,,,,,,,,,,,,,,,,,,,,,,,,,,,,,,,,,,,,,,,,,,,,,,,,,,,,,,,,,,,,,,,,,,,,,,,,,,,,,,,,,,,,,,,,,,,,,,,,,,,,,,,,,,,
,,,,,,60ede6577c93b8e4d7f6bbdf,62c538d74f260ff71db91f20,2022-07-06_08h25.40.070,Colour_Asymmetry_Pilot,2022.1.3,Win32,143.5544071,62c50e9c1127f2cd403a315f,0,62,62,144,1,onetwo,,,,,,,,,,,,,,,,,,,,,,,,,,,,,,,,,,,,,,,,,,,,,,,,,,,,,,,,,,,,,,,,,,,,,,,,,,,,,,,,,,,,,,,,,,,,,,,,,,,,,,,,,,,,,,,,,,,,,,,,,,,,,,,,,,,,,,,,,,,,,,,,,,,,,,,,,,,,,
,,,,,,60ede6577c93b8e4d7f6bbdf,62c538d74f260ff71db91f20,2022-07-06_08h25.40.070,Colour_Asymmetry_Pilot,2022.1.3,Win32,143.5544071,62c50e9c1127f2cd403a315f,0,63,63,56,1,onetwo,,,,,,,,,,,,,,,,,,,,,,,,,,,,,,,,,,,,,,,,,,,,,,,,,,,,,,,,,,,,,,,,,,,,,,,,,,,,,,,,,,,,,,,,,,,,,,,,,,,,,,,,,,,,,,,,,,,,,,,,,,,,,,,,,,,,,,,,,,,,,,,,,,,,,,,,,,,,,
,,,,,,60ede6577c93b8e4d7f6bbdf,62c538d74f260ff71db91f20,2022-07-06_08h25.40.070,Colour_Asymmetry_Pilot,2022.1.3,Win32,143.5544071,62c50e9c1127f2cd403a315f,0,64,64,121,1,onethree,,,,,,,,,,,,,,,,,,,,,,,,,,,,,,,,,,,,,,,,,,,,,,,,,,,,,,,,,,,,,,,,,,,,,,,,,,,,,,,,,,,,,,,,,,,,,,,,,,,,,,,,,,,,,,,,,,,,,,,,,,,,,,,,,,,,,,,,,,,,,,,,,,,,,,,,,,,,,
,,,,,,60ede6577c93b8e4d7f6bbdf,62c538d74f260ff71db91f20,2022-07-06_08h25.40.070,Colour_Asymmetry_Pilot,2022.1.3,Win32,143.5544071,62c50e9c1127f2cd403a315f,0,65,65,112,1,onetwo,,,,,,,,,,,,,,,,,,,,,,,,,,,,,,,,,,,,,,,,,,,,,,,,,,,,,,,,,,,,,,,,,,,,,,,,,,,,,,,,,,,,,,,,,,,,,,,,,,,,,,,,,,,,,,,,,,,,,,,,,,,,,,,,,,,,,,,,,,,,,,,,,,,,,,,,,,,,,
,,,,,,60ede6577c93b8e4d7f6bbdf,62c538d74f260ff71db91f20,2022-07-06_08h25.40.070,Colour_Asymmetry_Pilot,2022.1.3,Win32,143.5544071,62c50e9c1127f2cd403a315f,0,66,66,90,1,twoone,,,,,,,,,,,,,,,,,,,,,,,,,,,,,,,,,,,,,,,,,,,,,,,,,,,,,,,,,,,,,,,,,,,,,,,,,,,,,,,,,,,,,,,,,,,,,,,,,,,,,,,,,,,,,,,,,,,,,,,,,,,,,,,,,,,,,,,,,,,,,,,,,,,,,,,,,,,,,
,,,,,,60ede6577c93b8e4d7f6bbdf,62c538d74f260ff71db91f20,2022-07-06_08h25.40.070,Colour_Asymmetry_Pilot,2022.1.3,Win32,143.5544071,62c50e9c1127f2cd403a315f,0,67,67,52,1,threeone,,,,,,,,,,,,,,,,,,,,,,,,,,,,,,,,,,,,,,,,,,,,,,,,,,,,,,,,,,,,,,,,,,,,,,,,,,,,,,,,,,,,,,,,,,,,,,,,,,,,,,,,,,,,,,,,,,,,,,,,,,,,,,,,,,,,,,,,,,,,,,,,,,,,,,,,,,,,,
,,,,,,60ede6577c93b8e4d7f6bbdf,62c538d74f260ff71db91f20,2022-07-06_08h25.40.070,Colour_Asymmetry_Pilot,2022.1.3,Win32,143.5544071,62c50e9c1127f2cd403a315f,0,68,68,8,1,onetwo,,,,,,,,,,,,,,,,,,,,,,,,,,,,,,,,,,,,,,,,,,,,,,,,,,,,,,,,,,,,,,,,,,,,,,,,,,,,,,,,,,,,,,,,,,,,,,,,,,,,,,,,,,,,,,,,,,,,,,,,,,,,,,,,,,,,,,,,,,,,,,,,,,,,,,,,,,,,,
,,,,,,60ede6577c93b8e4d7f6bbdf,62c538d74f260ff71db91f20,2022-07-06_08h25.40.070,Colour_Asymmetry_Pilot,2022.1.3,Win32,143.5544071,62c50e9c1127f2cd403a315f,0,69,69,65,1,onethree,,,,,,,,,,,,,,,,,,,,,,,,,,,,,,,,,,,,,,,,,,,,,,,,,,,,,,,,,,,,,,,,,,,,,,,,,,,,,,,,,,,,,,,,,,,,,,,,,,,,,,,,,,,,,,,,,,,,,,,,,,,,,,,,,,,,,,,,,,,,,,,,,,,,,,,,,,,,,
,,,,,,60ede6577c93b8e4d7f6bbdf,62c538d74f260ff71db91f20,2022-07-06_08h25.40.070,Colour_Asymmetry_Pilot,2022.1.3,Win32,143.5544071,62c50e9c1127f2cd403a315f,0,70,70,160,1,onetwo,,,,,,,,,,,,,,,,,,,,,,,,,,,,,,,,,,,,,,,,,,,,,,,,,,,,,,,,,,,,,,,,,,,,,,,,,,,,,,,,,,,,,,,,,,,,,,,,,,,,,,,,,,,,,,,,,,,,,,,,,,,,,,,,,,,,,,,,,,,,,,,,,,,,,,,,,,,,,
,,,,,,60ede6577c93b8e4d7f6bbdf,62c538d74f260ff71db91f20,2022-07-06_08h25.40.070,Colour_Asymmetry_Pilot,2022.1.3,Win32,143.5544071,62c50e9c1127f2cd403a315f,0,71,71,37,1,threefour,,,,,,,,,,,,,,,,,,,,,,,,,,,,,,,,,,,,,,,,,,,,,,,,,,,,,,,,,,,,,,,,,,,,,,,,,,,,,,,,,,,,,,,,,,,,,,,,,,,,,,,,,,,,,,,,,,,,,,,,,,,,,,,,,,,,,,,,,,,,,,,,,,,,,,,,,,,,,
,,,,,,60ede6577c93b8e4d7f6bbdf,62c538d74f260ff71db91f20,2022-07-06_08h25.40.070,Colour_Asymmetry_Pilot,2022.1.3,Win32,143.5544071,62c50e9c1127f2cd403a315f,0,72,72,118,1,fourtwo,,,,,,,,,,,,,,,,,,,,,,,,,,,,,,,,,,,,,,,,,,,,,,,,,,,,,,,,,,,,,,,,,,,,,,,,,,,,,,,,,,,,,,,,,,,,,,,,,,,,,,,,,,,,,,,,,,,,,,,,,,,,,,,,,,,,,,,,,,,,,,,,,,,,,,,,,,,,,
,,,,,,60ede6577c93b8e4d7f6bbdf,62c538d74f260ff71db91f20,2022-07-06_08h25.40.070,Colour_Asymmetry_Pilot,2022.1.3,Win32,143.5544071,62c50e9c1127f2cd403a315f,0,73,73,93,1,threefour,,,,,,,,,,,,,,,,,,,,,,,,,,,,,,,,,,,,,,,,,,,,,,,,,,,,,,,,,,,,,,,,,,,,,,,,,,,,,,,,,,,,,,,,,,,,,,,,,,,,,,,,,,,,,,,,,,,,,,,,,,,,,,,,,,,,,,,,,,,,,,,,,,,,,,,,,,,,,
,,,,,,60ede6577c93b8e4d7f6bbdf,62c538d74f260ff71db91f20,2022-07-06_08h25.40.070,Colour_Asymmetry_Pilot,2022.1.3,Win32,143.5544071,62c50e9c1127f2cd403a315f,0,74,74,39,1,fourthree,,,,,,,,,,,,,,,,,,,,,,,,,,,,,,,,,,,,,,,,,,,,,,,,,,,,,,,,,,,,,,,,,,,,,,,,,,,,,,,,,,,,,,,,,,,,,,,,,,,,,,,,,,,,,,,,,,,,,,,,,,,,,,,,,,,,,,,,,,,,,,,,,,,,,,,,,,,,,
,,,,,,60ede6577c93b8e4d7f6bbdf,62c538d74f260ff71db91f20,2022-07-06_08h25.40.070,Colour_Asymmetry_Pilot,2022.1.3,Win32,143.5544071,62c50e9c1127f2cd403a315f,0,75,75,100,1,threeone,,,,,,,,,,,,,,,,,,,,,,,,,,,,,,,,,,,,,,,,,,,,,,,,,,,,,,,,,,,,,,,,,,,,,,,,,,,,,,,,,,,,,,,,,,,,,,,,,,,,,,,,,,,,,,,,,,,,,,,,,,,,,,,,,,,,,,,,,,,,,,,,,,,,,,,,,,,,,
,,,,,,60ede6577c93b8e4d7f6bbdf,62c538d74f260ff71db91f20,2022-07-06_08h25.40.070,Colour_Asymmetry_Pilot,2022.1.3,Win32,143.5544071,62c50e9c1127f2cd403a315f,0,76,76,10,1,twoone,,,,,,,,,,,,,,,,,,,,,,,,,,,,,,,,,,,,,,,,,,,,,,,,,,,,,,,,,,,,,,,,,,,,,,,,,,,,,,,,,,,,,,,,,,,,,,,,,,,,,,,,,,,,,,,,,,,,,,,,,,,,,,,,,,,,,,,,,,,,,,,,,,,,,,,,,,,,,
,,,,,,60ede6577c93b8e4d7f6bbdf,62c538d74f260ff71db91f20,2022-07-06_08h25.40.070,Colour_Asymmetry_Pilot,2022.1.3,Win32,143.5544071,62c50e9c1127f2cd403a315f,0,77,77,54,1,fourtwo,,,,,,,,,,,,,,,,,,,,,,,,,,,,,,,,,,,,,,,,,,,,,,,,,,,,,,,,,,,,,,,,,,,,,,,,,,,,,,,,,,,,,,,,,,,,,,,,,,,,,,,,,,,,,,,,,,,,,,,,,,,,,,,,,,,,,,,,,,,,,,,,,,,,,,,,,,,,,
,,,,,,60ede6577c93b8e4d7f6bbdf,62c538d74f260ff71db91f20,2022-07-06_08h25.40.070,Colour_Asymmetry_Pilot,2022.1.3,Win32,143.5544071,62c50e9c1127f2cd403a315f,0,78,78,88,1,onetwo,,,,,,,,,,,,,,,,,,,,,,,,,,,,,,,,,,,,,,,,,,,,,,,,,,,,,,,,,,,,,,,,,,,,,,,,,,,,,,,,,,,,,,,,,,,,,,,,,,,,,,,,,,,,,,,,,,,,,,,,,,,,,,,,,,,,,,,,,,,,,,,,,,,,,,,,,,,,,
,,,,,,60ede6577c93b8e4d7f6bbdf,62c538d74f260ff71db91f20,2022-07-06_08h25.40.070,Colour_Asymmetry_Pilot,2022.1.3,Win32,143.5544071,62c50e9c1127f2cd403a315f,0,79,79,151,1,fourthree,,,,,,,,,,,,,,,,,,,,,,,,,,,,,,,,,,,,,,,,,,,,,,,,,,,,,,,,,,,,,,,,,,,,,,,,,,,,,,,,,,,,,,,,,,,,,,,,,,,,,,,,,,,,,,,,,,,,,,,,,,,,,,,,,,,,,,,,,,,,,,,,,,,,,,,,,,,,,
,,,,,,60ede6577c93b8e4d7f6bbdf,62c538d74f260ff71db91f20,2022-07-06_08h25.40.070,Colour_Asymmetry_Pilot,2022.1.3,Win32,143.5544071,62c50e9c1127f2cd403a315f,0,80,80,67,1,twofour,,,,,,,,,,,,,,,,,,,,,,,,,,,,,,,,,,,,,,,,,,,,,,,,,,,,,,,,,,,,,,,,,,,,,,,,,,,,,,,,,,,,,,,,,,,,,,,,,,,,,,,,,,,,,,,,,,,,,,,,,,,,,,,,,,,,,,,,,,,,,,,,,,,,,,,,,,,,,
,,,,,,60ede6577c93b8e4d7f6bbdf,62c538d74f260ff71db91f20,2022-07-06_08h25.40.070,Colour_Asymmetry_Pilot,2022.1.3,Win32,143.5544071,62c50e9c1127f2cd403a315f,0,81,81,15,1,fourthree,,,,,,,,,,,,,,,,,,,,,,,,,,,,,,,,,,,,,,,,,,,,,,,,,,,,,,,,,,,,,,,,,,,,,,,,,,,,,,,,,,,,,,,,,,,,,,,,,,,,,,,,,,,,,,,,,,,,,,,,,,,,,,,,,,,,,,,,,,,,,,,,,,,,,,,,,,,,,
,,,,,,60ede6577c93b8e4d7f6bbdf,62c538d74f260ff71db91f20,2022-07-06_08h25.40.070,Colour_Asymmetry_Pilot,2022.1.3,Win32,143.5544071,62c50e9c1127f2cd403a315f,0,82,82,26,1,twoone,,,,,,,,,,,,,,,,,,,,,,,,,,,,,,,,,,,,,,,,,,,,,,,,,,,,,,,,,,,,,,,,,,,,,,,,,,,,,,,,,,,,,,,,,,,,,,,,,,,,,,,,,,,,,,,,,,,,,,,,,,,,,,,,,,,,,,,,,,,,,,,,,,,,,,,,,,,,,
,,,,,,60ede6577c93b8e4d7f6bbdf,62c538d74f260ff71db91f20,2022-07-06_08h25.40.070,Colour_Asymmetry_Pilot,2022.1.3,Win32,143.5544071,62c50e9c1127f2cd403a315f,0,83,83,7,1,fourthree,,,,,,,,,,,,,,,,,,,,,,,,,,,,,,,,,,,,,,,,,,,,,,,,,,,,,,,,,,,,,,,,,,,,,,,,,,,,,,,,,,,,,,,,,,,,,,,,,,,,,,,,,,,,,,,,,,,,,,,,,,,,,,,,,,,,,,,,,,,,,,,,,,,,,,,,,,,,,
,,,,,,60ede6577c93b8e4d7f6bbdf,62c538d74f260ff71db91f20,2022-07-06_08h25.40.070,Colour_Asymmetry_Pilot,2022.1.3,Win32,143.5544071,62c50e9c1127f2cd403a315f,0,84,84,57,1,onethree,,,,,,,,,,,,,,,,,,,,,,,,,,,,,,,,,,,,,,,,,,,,,,,,,,,,,,,,,,,,,,,,,,,,,,,,,,,,,,,,,,,,,,,,,,,,,,,,,,,,,,,,,,,,,,,,,,,,,,,,,,,,,,,,,,,,,,,,,,,,,,,,,,,,,,,,,,,,,
,,,,,,60ede6577c93b8e4d7f6bbdf,62c538d74f260ff71db91f20,2022-07-06_08h25.40.070,Colour_Asymmetry_Pilot,2022.1.3,Win32,143.5544071,62c50e9c1127f2cd403a315f,0,85,85,138,1,twoone,,,,,,,,,,,,,,,,,,,,,,,,,,,,,,,,,,,,,,,,,,,,,,,,,,,,,,,,,,,,,,,,,,,,,,,,,,,,,,,,,,,,,,,,,,,,,,,,,,,,,,,,,,,,,,,,,,,,,,,,,,,,,,,,,,,,,,,,,,,,,,,,,,,,,,,,,,,,,
,,,,,,60ede6577c93b8e4d7f6bbdf,62c538d74f260ff71db91f20,2022-07-06_08h25.40.070,Colour_Asymmetry_Pilot,2022.1.3,Win32,143.5544071,62c50e9c1127f2cd403a315f,0,86,86,74,1,twoone,,,,,,,,,,,,,,,,,,,,,,,,,,,,,,,,,,,,,,,,,,,,,,,,,,,,,,,,,,,,,,,,,,,,,,,,,,,,,,,,,,,,,,,,,,,,,,,,,,,,,,,,,,,,,,,,,,,,,,,,,,,,,,,,,,,,,,,,,,,,,,,,,,,,,,,,,,,,,
,,,,,,60ede6577c93b8e4d7f6bbdf,62c538d74f260ff71db91f20,2022-07-06_08h25.40.070,Colour_Asymmetry_Pilot,2022.1.3,Win32,143.5544071,62c50e9c1127f2cd403a315f,0,87,87,157,1,threefour,,,,,,,,,,,,,,,,,,,,,,,,,,,,,,,,,,,,,,,,,,,,,,,,,,,,,,,,,,,,,,,,,,,,,,,,,,,,,,,,,,,,,,,,,,,,,,,,,,,,,,,,,,,,,,,,,,,,,,,,,,,,,,,,,,,,,,,,,,,,,,,,,,,,,,,,,,,,,
,,,,,,60ede6577c93b8e4d7f6bbdf,62c538d74f260ff71db91f20,2022-07-06_08h25.40.070,Colour_Asymmetry_Pilot,2022.1.3,Win32,143.5544071,62c50e9c1127f2cd403a315f,0,88,88,145,1,onethree,,,,,,,,,,,,,,,,,,,,,,,,,,,,,,,,,,,,,,,,,,,,,,,,,,,,,,,,,,,,,,,,,,,,,,,,,,,,,,,,,,,,,,,,,,,,,,,,,,,,,,,,,,,,,,,,,,,,,,,,,,,,,,,,,,,,,,,,,,,,,,,,,,,,,,,,,,,,,
,,,,,,60ede6577c93b8e4d7f6bbdf,62c538d74f260ff71db91f20,2022-07-06_08h25.40.070,Colour_Asymmetry_Pilot,2022.1.3,Win32,143.5544071,62c50e9c1127f2cd403a315f,0,89,89,2,1,twoone,,,,,,,,,,,,,,,,,,,,,,,,,,,,,,,,,,,,,,,,,,,,,,,,,,,,,,,,,,,,,,,,,,,,,,,,,,,,,,,,,,,,,,,,,,,,,,,,,,,,,,,,,,,,,,,,,,,,,,,,,,,,,,,,,,,,,,,,,,,,,,,,,,,,,,,,,,,,,
,,,,,,60ede6577c93b8e4d7f6bbdf,62c538d74f260ff71db91f20,2022-07-06_08h25.40.070,Colour_Asymmetry_Pilot,2022.1.3,Win32,143.5544071,62c50e9c1127f2cd403a315f,0,90,90,94,1,fourtwo,,,,,,,,,,,,,,,,,,,,,,,,,,,,,,,,,,,,,,,,,,,,,,,,,,,,,,,,,,,,,,,,,,,,,,,,,,,,,,,,,,,,,,,,,,,,,,,,,,,,,,,,,,,,,,,,,,,,,,,,,,,,,,,,,,,,,,,,,,,,,,,,,,,,,,,,,,,,,
,,,,,,60ede6577c93b8e4d7f6bbdf,62c538d74f260ff71db91f20,2022-07-06_08h25.40.070,Colour_Asymmetry_Pilot,2022.1.3,Win32,143.5544071,62c50e9c1127f2cd403a315f,0,91,91,158,1,fourtwo,,,,,,,,,,,,,,,,,,,,,,,,,,,,,,,,,,,,,,,,,,,,,,,,,,,,,,,,,,,,,,,,,,,,,,,,,,,,,,,,,,,,,,,,,,,,,,,,,,,,,,,,,,,,,,,,,,,,,,,,,,,,,,,,,,,,,,,,,,,,,,,,,,,,,,,,,,,,,
,,,,,,60ede6577c93b8e4d7f6bbdf,62c538d74f260ff71db91f20,2022-07-06_08h25.40.070,Colour_Asymmetry_Pilot,2022.1.3,Win32,143.5544071,62c50e9c1127f2cd403a315f,0,92,92,29,1,threefour,,,,,,,,,,,,,,,,,,,,,,,,,,,,,,,,,,,,,,,,,,,,,,,,,,,,,,,,,,,,,,,,,,,,,,,,,,,,,,,,,,,,,,,,,,,,,,,,,,,,,,,,,,,,,,,,,,,,,,,,,,,,,,,,,,,,,,,,,,,,,,,,,,,,,,,,,,,,,
,,,,,,60ede6577c93b8e4d7f6bbdf,62c538d74f260ff71db91f20,2022-07-06_08h25.40.070,Colour_Asymmetry_Pilot,2022.1.3,Win32,143.5544071,62c50e9c1127f2cd403a315f,0,93,93,22,1,fourtwo,,,,,,,,,,,,,,,,,,,,,,,,,,,,,,,,,,,,,,,,,,,,,,,,,,,,,,,,,,,,,,,,,,,,,,,,,,,,,,,,,,,,,,,,,,,,,,,,,,,,,,,,,,,,,,,,,,,,,,,,,,,,,,,,,,,,,,,,,,,,,,,,,,,,,,,,,,,,,
,,,,,,60ede6577c93b8e4d7f6bbdf,62c538d74f260ff71db91f20,2022-07-06_08h25.40.070,Colour_Asymmetry_Pilot,2022.1.3,Win32,143.5544071,62c50e9c1127f2cd403a315f,0,94,94,83,1,twofour,,,,,,,,,,,,,,,,,,,,,,,,,,,,,,,,,,,,,,,,,,,,,,,,,,,,,,,,,,,,,,,,,,,,,,,,,,,,,,,,,,,,,,,,,,,,,,,,,,,,,,,,,,,,,,,,,,,,,,,,,,,,,,,,,,,,,,,,,,,,,,,,,,,,,,,,,,,,,
,,,,,,60ede6577c93b8e4d7f6bbdf,62c538d74f260ff71db91f20,2022-07-06_08h25.40.070,Colour_Asymmetry_Pilot,2022.1.3,Win32,143.5544071,62c50e9c1127f2cd403a315f,0,95,95,11,1,twofour,,,,,,,,,,,,,,,,,,,,,,,,,,,,,,,,,,,,,,,,,,,,,,,,,,,,,,,,,,,,,,,,,,,,,,,,,,,,,,,,,,,,,,,,,,,,,,,,,,,,,,,,,,,,,,,,,,,,,,,,,,,,,,,,,,,,,,,,,,,,,,,,,,,,,,,,,,,,,
,,,,,,60ede6577c93b8e4d7f6bbdf,62c538d74f260ff71db91f20,2022-07-06_08h25.40.070,Colour_Asymmetry_Pilot,2022.1.3,Win32,143.5544071,62c50e9c1127f2cd403a315f,0,96,96,95,1,fourthree,,,,,,,,,,,,,,,,,,,,,,,,,,,,,,,,,,,,,,,,,,,,,,,,,,,,,,,,,,,,,,,,,,,,,,,,,,,,,,,,,,,,,,,,,,,,,,,,,,,,,,,,,,,,,,,,,,,,,,,,,,,,,,,,,,,,,,,,,,,,,,,,,,,,,,,,,,,,,
,,,,,,60ede6577c93b8e4d7f6bbdf,62c538d74f260ff71db91f20,2022-07-06_08h25.40.070,Colour_Asymmetry_Pilot,2022.1.3,Win32,143.5544071,62c50e9c1127f2cd403a315f,0,97,97,51,1,twofour,,,,,,,,,,,,,,,,,,,,,,,,,,,,,,,,,,,,,,,,,,,,,,,,,,,,,,,,,,,,,,,,,,,,,,,,,,,,,,,,,,,,,,,,,,,,,,,,,,,,,,,,,,,,,,,,,,,,,,,,,,,,,,,,,,,,,,,,,,,,,,,,,,,,,,,,,,,,,
,,,,,,60ede6577c93b8e4d7f6bbdf,62c538d74f260ff71db91f20,2022-07-06_08h25.40.070,Colour_Asymmetry_Pilot,2022.1.3,Win32,143.5544071,62c50e9c1127f2cd403a315f,0,98,98,82,1,twoone,,,,,,,,,,,,,,,,,,,,,,,,,,,,,,,,,,,,,,,,,,,,,,,,,,,,,,,,,,,,,,,,,,,,,,,,,,,,,,,,,,,,,,,,,,,,,,,,,,,,,,,,,,,,,,,,,,,,,,,,,,,,,,,,,,,,,,,,,,,,,,,,,,,,,,,,,,,,,
,,,,,,60ede6577c93b8e4d7f6bbdf,62c538d74f260ff71db91f20,2022-07-06_08h25.40.070,Colour_Asymmetry_Pilot,2022.1.3,Win32,143.5544071,62c50e9c1127f2cd403a315f,0,99,99,75,1,twofour,,,,,,,,,,,,,,,,,,,,,,,,,,,,,,,,,,,,,,,,,,,,,,,,,,,,,,,,,,,,,,,,,,,,,,,,,,,,,,,,,,,,,,,,,,,,,,,,,,,,,,,,,,,,,,,,,,,,,,,,,,,,,,,,,,,,,,,,,,,,,,,,,,,,,,,,,,,,,
,,,,,,60ede6577c93b8e4d7f6bbdf,62c538d74f260ff71db91f20,2022-07-06_08h25.40.070,Colour_Asymmetry_Pilot,2022.1.3,Win32,143.5544071,62c50e9c1127f2cd403a315f,0,100,100,156,1,threeone,,,,,,,,,,,,,,,,,,,,,,,,,,,,,,,,,,,,,,,,,,,,,,,,,,,,,,,,,,,,,,,,,,,,,,,,,,,,,,,,,,,,,,,,,,,,,,,,,,,,,,,,,,,,,,,,,,,,,,,,,,,,,,,,,,,,,,,,,,,,,,,,,,,,,,,,,,,,,
,,,,,,60ede6577c93b8e4d7f6bbdf,62c538d74f260ff71db91f20,2022-07-06_08h25.40.070,Colour_Asymmetry_Pilot,2022.1.3,Win32,143.5544071,62c50e9c1127f2cd403a315f,0,101,101,55,1,fourthree,,,,,,,,,,,,,,,,,,,,,,,,,,,,,,,,,,,,,,,,,,,,,,,,,,,,,,,,,,,,,,,,,,,,,,,,,,,,,,,,,,,,,,,,,,,,,,,,,,,,,,,,,,,,,,,,,,,,,,,,,,,,,,,,,,,,,,,,,,,,,,,,,,,,,,,,,,,,,
,,,,,,60ede6577c93b8e4d7f6bbdf,62c538d74f260ff71db91f20,2022-07-06_08h25.40.070,Colour_Asymmetry_Pilot,2022.1.3,Win32,143.5544071,62c50e9c1127f2cd403a315f,0,102,102,86,1,fourtwo,,,,,,,,,,,,,,,,,,,,,,,,,,,,,,,,,,,,,,,,,,,,,,,,,,,,,,,,,,,,,,,,,,,,,,,,,,,,,,,,,,,,,,,,,,,,,,,,,,,,,,,,,,,,,,,,,,,,,,,,,,,,,,,,,,,,,,,,,,,,,,,,,,,,,,,,,,,,,
,,,,,,60ede6577c93b8e4d7f6bbdf,62c538d74f260ff71db91f20,2022-07-06_08h25.40.070,Colour_Asymmetry_Pilot,2022.1.3,Win32,143.5544071,62c50e9c1127f2cd403a315f,0,103,103,91,1,twofour,,,,,,,,,,,,,,,,,,,,,,,,,,,,,,,,,,,,,,,,,,,,,,,,,,,,,,,,,,,,,,,,,,,,,,,,,,,,,,,,,,,,,,,,,,,,,,,,,,,,,,,,,,,,,,,,,,,,,,,,,,,,,,,,,,,,,,,,,,,,,,,,,,,,,,,,,,,,,
,,,,,,60ede6577c93b8e4d7f6bbdf,62c538d74f260ff71db91f20,2022-07-06_08h25.40.070,Colour_Asymmetry_Pilot,2022.1.3,Win32,143.5544071,62c50e9c1127f2cd403a315f,0,104,104,14,1,fourtwo,,,,,,,,,,,,,,,,,,,,,,,,,,,,,,,,,,,,,,,,,,,,,,,,,,,,,,,,,,,,,,,,,,,,,,,,,,,,,,,,,,,,,,,,,,,,,,,,,,,,,,,,,,,,,,,,,,,,,,,,,,,,,,,,,,,,,,,,,,,,,,,,,,,,,,,,,,,,,
,,,,,,60ede6577c93b8e4d7f6bbdf,62c538d74f260ff71db91f20,2022-07-06_08h25.40.070,Colour_Asymmetry_Pilot,2022.1.3,Win32,143.5544071,62c50e9c1127f2cd403a315f,0,105,105,106,1,twoone,,,,,,,,,,,,,,,,,,,,,,,,,,,,,,,,,,,,,,,,,,,,,,,,,,,,,,,,,,,,,,,,,,,,,,,,,,,,,,,,,,,,,,,,,,,,,,,,,,,,,,,,,,,,,,,,,,,,,,,,,,,,,,,,,,,,,,,,,,,,,,,,,,,,,,,,,,,,,
,,,,,,60ede6577c93b8e4d7f6bbdf,62c538d74f260ff71db91f20,2022-07-06_08h25.40.070,Colour_Asymmetry_Pilot,2022.1.3,Win32,143.5544071,62c50e9c1127f2cd403a315f,0,106,106,1,1,onethree,,,,,,,,,,,,,,,,,,,,,,,,,,,,,,,,,,,,,,,,,,,,,,,,,,,,,,,,,,,,,,,,,,,,,,,,,,,,,,,,,,,,,,,,,,,,,,,,,,,,,,,,,,,,,,,,,,,,,,,,,,,,,,,,,,,,,,,,,,,,,,,,,,,,,,,,,,,,,
,,,,,,60ede6577c93b8e4d7f6bbdf,62c538d74f260ff71db91f20,2022-07-06_08h25.40.070,Colour_Asymmetry_Pilot,2022.1.3,Win32,143.5544071,62c50e9c1127f2cd403a315f,0,107,107,49,1,onethree,,,,,,,,,,,,,,,,,,,,,,,,,,,,,,,,,,,,,,,,,,,,,,,,,,,,,,,,,,,,,,,,,,,,,,,,,,,,,,,,,,,,,,,,,,,,,,,,,,,,,,,,,,,,,,,,,,,,,,,,,,,,,,,,,,,,,,,,,,,,,,,,,,,,,,,,,,,,,
,,,,,,60ede6577c93b8e4d7f6bbdf,62c538d74f260ff71db91f20,2022-07-06_08h25.40.070,Colour_Asymmetry_Pilot,2022.1.3,Win32,143.5544071,62c50e9c1127f2cd403a315f,0,108,108,53,1,threefour,,,,,,,,,,,,,,,,,,,,,,,,,,,,,,,,,,,,,,,,,,,,,,,,,,,,,,,,,,,,,,,,,,,,,,,,,,,,,,,,,,,,,,,,,,,,,,,,,,,,,,,,,,,,,,,,,,,,,,,,,,,,,,,,,,,,,,,,,,,,,,,,,,,,,,,,,,,,,
,,,,,,60ede6577c93b8e4d7f6bbdf,62c538d74f260ff71db91f20,2022-07-06_08h25.40.070,Colour_Asymmetry_Pilot,2022.1.3,Win32,143.5544071,62c50e9c1127f2cd403a315f,0,109,109,96,1,onetwo,,,,,,,,,,,,,,,,,,,,,,,,,,,,,,,,,,,,,,,,,,,,,,,,,,,,,,,,,,,,,,,,,,,,,,,,,,,,,,,,,,,,,,,,,,,,,,,,,,,,,,,,,,,,,,,,,,,,,,,,,,,,,,,,,,,,,,,,,,,,,,,,,,,,,,,,,,,,,
,,,,,,60ede6577c93b8e4d7f6bbdf,62c538d74f260ff71db91f20,2022-07-06_08h25.40.070,Colour_Asymmetry_Pilot,2022.1.3,Win32,143.5544071,62c50e9c1127f2cd403a315f,0,110,110,59,1,twofour,,,,,,,,,,,,,,,,,,,,,,,,,,,,,,,,,,,,,,,,,,,,,,,,,,,,,,,,,,,,,,,,,,,,,,,,,,,,,,,,,,,,,,,,,,,,,,,,,,,,,,,,,,,,,,,,,,,,,,,,,,,,,,,,,,,,,,,,,,,,,,,,,,,,,,,,,,,,,
,,,,,,60ede6577c93b8e4d7f6bbdf,62c538d74f260ff71db91f20,2022-07-06_08h25.40.070,Colour_Asymmetry_Pilot,2022.1.3,Win32,143.5544071,62c50e9c1127f2cd403a315f,0,111,111,45,1,threefour,,,,,,,,,,,,,,,,,,,,,,,,,,,,,,,,,,,,,,,,,,,,,,,,,,,,,,,,,,,,,,,,,,,,,,,,,,,,,,,,,,,,,,,,,,,,,,,,,,,,,,,,,,,,,,,,,,,,,,,,,,,,,,,,,,,,,,,,,,,,,,,,,,,,,,,,,,,,,
,,,,,,60ede6577c93b8e4d7f6bbdf,62c538d74f260ff71db91f20,2022-07-06_08h25.40.070,Colour_Asymmetry_Pilot,2022.1.3,Win32,143.5544071,62c50e9c1127f2cd403a315f,0,112,112,63,1,fourthree,,,,,,,,,,,,,,,,,,,,,,,,,,,,,,,,,,,,,,,,,,,,,,,,,,,,,,,,,,,,,,,,,,,,,,,,,,,,,,,,,,,,,,,,,,,,,,,,,,,,,,,,,,,,,,,,,,,,,,,,,,,,,,,,,,,,,,,,,,,,,,,,,,,,,,,,,,,,,
,,,,,,60ede6577c93b8e4d7f6bbdf,62c538d74f260ff71db91f20,2022-07-06_08h25.40.070,Colour_Asymmetry_Pilot,2022.1.3,Win32,143.5544071,62c50e9c1127f2cd403a315f,0,113,113,47,1,fourthree,,,,,,,,,,,,,,,,,,,,,,,,,,,,,,,,,,,,,,,,,,,,,,,,,,,,,,,,,,,,,,,,,,,,,,,,,,,,,,,,,,,,,,,,,,,,,,,,,,,,,,,,,,,,,,,,,,,,,,,,,,,,,,,,,,,,,,,,,,,,,,,,,,,,,,,,,,,,,
,,,,,,60ede6577c93b8e4d7f6bbdf,62c538d74f260ff71db91f20,2022-07-06_08h25.40.070,Colour_Asymmetry_Pilot,2022.1.3,Win32,143.5544071,62c50e9c1127f2cd403a315f,0,114,114,31,1,fourthree,,,,,,,,,,,,,,,,,,,,,,,,,,,,,,,,,,,,,,,,,,,,,,,,,,,,,,,,,,,,,,,,,,,,,,,,,,,,,,,,,,,,,,,,,,,,,,,,,,,,,,,,,,,,,,,,,,,,,,,,,,,,,,,,,,,,,,,,,,,,,,,,,,,,,,,,,,,,,
,,,,,,60ede6577c93b8e4d7f6bbdf,62c538d74f260ff71db91f20,2022-07-06_08h25.40.070,Colour_Asymmetry_Pilot,2022.1.3,Win32,143.5544071,62c50e9c1127f2cd403a315f,0,115,115,76,1,threeone,,,,,,,,,,,,,,,,,,,,,,,,,,,,,,,,,,,,,,,,,,,,,,,,,,,,,,,,,,,,,,,,,,,,,,,,,,,,,,,,,,,,,,,,,,,,,,,,,,,,,,,,,,,,,,,,,,,,,,,,,,,,,,,,,,,,,,,,,,,,,,,,,,,,,,,,,,,,,
,,,,,,60ede6577c93b8e4d7f6bbdf,62c538d74f260ff71db91f20,2022-07-06_08h25.40.070,Colour_Asymmetry_Pilot,2022.1.3,Win32,143.5544071,62c50e9c1127f2cd403a315f,0,116,116,150,1,fourtwo,,,,,,,,,,,,,,,,,,,,,,,,,,,,,,,,,,,,,,,,,,,,,,,,,,,,,,,,,,,,,,,,,,,,,,,,,,,,,,,,,,,,,,,,,,,,,,,,,,,,,,,,,,,,,,,,,,,,,,,,,,,,,,,,,,,,,,,,,,,,,,,,,,,,,,,,,,,,,
,,,,,,60ede6577c93b8e4d7f6bbdf,62c538d74f260ff71db91f20,2022-07-06_08h25.40.070,Colour_Asymmetry_Pilot,2022.1.3,Win32,143.5544071,62c50e9c1127f2cd403a315f,0,117,117,125,1,threefour,,,,,,,,,,,,,,,,,,,,,,,,,,,,,,,,,,,,,,,,,,,,,,,,,,,,,,,,,,,,,,,,,,,,,,,,,,,,,,,,,,,,,,,,,,,,,,,,,,,,,,,,,,,,,,,,,,,,,,,,,,,,,,,,,,,,,,,,,,,,,,,,,,,,,,,,,,,,,
,,,,,,60ede6577c93b8e4d7f6bbdf,62c538d74f260ff71db91f20,2022-07-06_08h25.40.070,Colour_Asymmetry_Pilot,2022.1.3,Win32,143.5544071,62c50e9c1127f2cd403a315f,0,118,118,77,1,threefour,,,,,,,,,,,,,,,,,,,,,,,,,,,,,,,,,,,,,,,,,,,,,,,,,,,,,,,,,,,,,,,,,,,,,,,,,,,,,,,,,,,,,,,,,,,,,,,,,,,,,,,,,,,,,,,,,,,,,,,,,,,,,,,,,,,,,,,,,,,,,,,,,,,,,,,,,,,,,
,,,,,,60ede6577c93b8e4d7f6bbdf,62c538d74f260ff71db91f20,2022-07-06_08h25.40.070,Colour_Asymmetry_Pilot,2022.1.3,Win32,143.5544071,62c50e9c1127f2cd403a315f,0,119,119,5,1,threefour,,,,,,,,,,,,,,,,,,,,,,,,,,,,,,,,,,,,,,,,,,,,,,,,,,,,,,,,,,,,,,,,,,,,,,,,,,,,,,,,,,,,,,,,,,,,,,,,,,,,,,,,,,,,,,,,,,,,,,,,,,,,,,,,,,,,,,,,,,,,,,,,,,,,,,,,,,,,,
,,,,,,60ede6577c93b8e4d7f6bbdf,62c538d74f260ff71db91f20,2022-07-06_08h25.40.070,Colour_Asymmetry_Pilot,2022.1.3,Win32,143.5544071,62c50e9c1127f2cd403a315f,0,120,120,81,1,onethree,,,,,,,,,,,,,,,,,,,,,,,,,,,,,,,,,,,,,,,,,,,,,,,,,,,,,,,,,,,,,,,,,,,,,,,,,,,,,,,,,,,,,,,,,,,,,,,,,,,,,,,,,,,,,,,,,,,,,,,,,,,,,,,,,,,,,,,,,,,,,,,,,,,,,,,,,,,,,
,,,,,,60ede6577c93b8e4d7f6bbdf,62c538d74f260ff71db91f20,2022-07-06_08h25.40.070,Colour_Asymmetry_Pilot,2022.1.3,Win32,143.5544071,62c50e9c1127f2cd403a315f,0,121,121,147,1,twofour,,,,,,,,,,,,,,,,,,,,,,,,,,,,,,,,,,,,,,,,,,,,,,,,,,,,,,,,,,,,,,,,,,,,,,,,,,,,,,,,,,,,,,,,,,,,,,,,,,,,,,,,,,,,,,,,,,,,,,,,,,,,,,,,,,,,,,,,,,,,,,,,,,,,,,,,,,,,,
,,,,,,60ede6577c93b8e4d7f6bbdf,62c538d74f260ff71db91f20,2022-07-06_08h25.40.070,Colour_Asymmetry_Pilot,2022.1.3,Win32,143.5544071,62c50e9c1127f2cd403a315f,0,122,122,36,1,threeone,,,,,,,,,,,,,,,,,,,,,,,,,,,,,,,,,,,,,,,,,,,,,,,,,,,,,,,,,,,,,,,,,,,,,,,,,,,,,,,,,,,,,,,,,,,,,,,,,,,,,,,,,,,,,,,,,,,,,,,,,,,,,,,,,,,,,,,,,,,,,,,,,,,,,,,,,,,,,
,,,,,,60ede6577c93b8e4d7f6bbdf,62c538d74f260ff71db91f20,2022-07-06_08h25.40.070,Colour_Asymmetry_Pilot,2022.1.3,Win32,143.5544071,62c50e9c1127f2cd403a315f,0,123,123,122,1,twoone,,,,,,,,,,,,,,,,,,,,,,,,,,,,,,,,,,,,,,,,,,,,,,,,,,,,,,,,,,,,,,,,,,,,,,,,,,,,,,,,,,,,,,,,,,,,,,,,,,,,,,,,,,,,,,,,,,,,,,,,,,,,,,,,,,,,,,,,,,,,,,,,,,,,,,,,,,,,,
,,,,,,60ede6577c93b8e4d7f6bbdf,62c538d74f260ff71db91f20,2022-07-06_08h25.40.070,Colour_Asymmetry_Pilot,2022.1.3,Win32,143.5544071,62c50e9c1127f2cd403a315f,0,124,124,50,1,twoone,,,,,,,,,,,,,,,,,,,,,,,,,,,,,,,,,,,,,,,,,,,,,,,,,,,,,,,,,,,,,,,,,,,,,,,,,,,,,,,,,,,,,,,,,,,,,,,,,,,,,,,,,,,,,,,,,,,,,,,,,,,,,,,,,,,,,,,,,,,,,,,,,,,,,,,,,,,,,
,,,,,,60ede6577c93b8e4d7f6bbdf,62c538d74f260ff71db91f20,2022-07-06_08h25.40.070,Colour_Asymmetry_Pilot,2022.1.3,Win32,143.5544071,62c50e9c1127f2cd403a315f,0,125,125,84,1,threeone,,,,,,,,,,,,,,,,,,,,,,,,,,,,,,,,,,,,,,,,,,,,,,,,,,,,,,,,,,,,,,,,,,,,,,,,,,,,,,,,,,,,,,,,,,,,,,,,,,,,,,,,,,,,,,,,,,,,,,,,,,,,,,,,,,,,,,,,,,,,,,,,,,,,,,,,,,,,,
,,,,,,60ede6577c93b8e4d7f6bbdf,62c538d74f260ff71db91f20,2022-07-06_08h25.40.070,Colour_Asymmetry_Pilot,2022.1.3,Win32,143.5544071,62c50e9c1127f2cd403a315f,0,126,126,148,1,threeone,,,,,,,,,,,,,,,,,,,,,,,,,,,,,,,,,,,,,,,,,,,,,,,,,,,,,,,,,,,,,,,,,,,,,,,,,,,,,,,,,,,,,,,,,,,,,,,,,,,,,,,,,,,,,,,,,,,,,,,,,,,,,,,,,,,,,,,,,,,,,,,,,,,,,,,,,,,,,
,,,,,,60ede6577c93b8e4d7f6bbdf,62c538d74f260ff71db91f20,2022-07-06_08h25.40.070,Colour_Asymmetry_Pilot,2022.1.3,Win32,143.5544071,62c50e9c1127f2cd403a315f,0,127,127,159,1,fourthree,,,,,,,,,,,,,,,,,,,,,,,,,,,,,,,,,,,,,,,,,,,,,,,,,,,,,,,,,,,,,,,,,,,,,,,,,,,,,,,,,,,,,,,,,,,,,,,,,,,,,,,,,,,,,,,,,,,,,,,,,,,,,,,,,,,,,,,,,,,,,,,,,,,,,,,,,,,,,
,,,,,,60ede6577c93b8e4d7f6bbdf,62c538d74f260ff71db91f20,2022-07-06_08h25.40.070,Colour_Asymmetry_Pilot,2022.1.3,Win32,143.5544071,62c50e9c1127f2cd403a315f,0,128,128,131,1,twofour,,,,,,,,,,,,,,,,,,,,,,,,,,,,,,,,,,,,,,,,,,,,,,,,,,,,,,,,,,,,,,,,,,,,,,,,,,,,,,,,,,,,,,,,,,,,,,,,,,,,,,,,,,,,,,,,,,,,,,,,,,,,,,,,,,,,,,,,,,,,,,,,,,,,,,,,,,,,,
,,,,,,60ede6577c93b8e4d7f6bbdf,62c538d74f260ff71db91f20,2022-07-06_08h25.40.070,Colour_Asymmetry_Pilot,2022.1.3,Win32,143.5544071,62c50e9c1127f2cd403a315f,0,129,129,6,1,fourtwo,,,,,,,,,,,,,,,,,,,,,,,,,,,,,,,,,,,,,,,,,,,,,,,,,,,,,,,,,,,,,,,,,,,,,,,,,,,,,,,,,,,,,,,,,,,,,,,,,,,,,,,,,,,,,,,,,,,,,,,,,,,,,,,,,,,,,,,,,,,,,,,,,,,,,,,,,,,,,
,,,,,,60ede6577c93b8e4d7f6bbdf,62c538d74f260ff71db91f20,2022-07-06_08h25.40.070,Colour_Asymmetry_Pilot,2022.1.3,Win32,143.5544071,62c50e9c1127f2cd403a315f,0,130,130,116,1,threeone,,,,,,,,,,,,,,,,,,,,,,,,,,,,,,,,,,,,,,,,,,,,,,,,,,,,,,,,,,,,,,,,,,,,,,,,,,,,,,,,,,,,,,,,,,,,,,,,,,,,,,,,,,,,,,,,,,,,,,,,,,,,,,,,,,,,,,,,,,,,,,,,,,,,,,,,,,,,,
,,,,,,60ede6577c93b8e4d7f6bbdf,62c538d74f260ff71db91f20,2022-07-06_08h25.40.070,Colour_Asymmetry_Pilot,2022.1.3,Win32,143.5544071,62c50e9c1127f2cd403a315f,0,131,131,154,1,twoone,,,,,,,,,,,,,,,,,,,,,,,,,,,,,,,,,,,,,,,,,,,,,,,,,,,,,,,,,,,,,,,,,,,,,,,,,,,,,,,,,,,,,,,,,,,,,,,,,,,,,,,,,,,,,,,,,,,,,,,,,,,,,,,,,,,,,,,,,,,,,,,,,,,,,,,,,,,,,
,,,,,,60ede6577c93b8e4d7f6bbdf,62c538d74f260ff71db91f20,2022-07-06_08h25.40.070,Colour_Asymmetry_Pilot,2022.1.3,Win32,143.5544071,62c50e9c1127f2cd403a315f,0,132,132,48,1,onetwo,,,,,,,,,,,,,,,,,,,,,,,,,,,,,,,,,,,,,,,,,,,,,,,,,,,,,,,,,,,,,,,,,,,,,,,,,,,,,,,,,,,,,,,,,,,,,,,,,,,,,,,,,,,,,,,,,,,,,,,,,,,,,,,,,,,,,,,,,,,,,,,,,,,,,,,,,,,,,
,,,,,,60ede6577c93b8e4d7f6bbdf,62c538d74f260ff71db91f20,2022-07-06_08h25.40.070,Colour_Asymmetry_Pilot,2022.1.3,Win32,143.5544071,62c50e9c1127f2cd403a315f,0,133,133,40,1,onetwo,,,,,,,,,,,,,,,,,,,,,,,,,,,,,,,,,,,,,,,,,,,,,,,,,,,,,,,,,,,,,,,,,,,,,,,,,,,,,,,,,,,,,,,,,,,,,,,,,,,,,,,,,,,,,,,,,,,,,,,,,,,,,,,,,,,,,,,,,,,,,,,,,,,,,,,,,,,,,
,,,,,,60ede6577c93b8e4d7f6bbdf,62c538d74f260ff71db91f20,2022-07-06_08h25.40.070,Colour_Asymmetry_Pilot,2022.1.3,Win32,143.5544071,62c50e9c1127f2cd403a315f,0,134,134,101,1,threefour,,,,,,,,,,,,,,,,,,,,,,,,,,,,,,,,,,,,,,,,,,,,,,,,,,,,,,,,,,,,,,,,,,,,,,,,,,,,,,,,,,,,,,,,,,,,,,,,,,,,,,,,,,,,,,,,,,,,,,,,,,,,,,,,,,,,,,,,,,,,,,,,,,,,,,,,,,,,,
,,,,,,60ede6577c93b8e4d7f6bbdf,62c538d74f260ff71db91f20,2022-07-06_08h25.40.070,Colour_Asymmetry_Pilot,2022.1.3,Win32,143.5544071,62c50e9c1127f2cd403a315f,0,135,135,73,1,onethree,,,,,,,,,,,,,,,,,,,,,,,,,,,,,,,,,,,,,,,,,,,,,,,,,,,,,,,,,,,,,,,,,,,,,,,,,,,,,,,,,,,,,,,,,,,,,,,,,,,,,,,,,,,,,,,,,,,,,,,,,,,,,,,,,,,,,,,,,,,,,,,,,,,,,,,,,,,,,
,,,,,,60ede6577c93b8e4d7f6bbdf,62c538d74f260ff71db91f20,2022-07-06_08h25.40.070,Colour_Asymmetry_Pilot,2022.1.3,Win32,143.5544071,62c50e9c1127f2cd403a315f,0,136,136,64,1,onetwo,,,,,,,,,,,,,,,,,,,,,,,,,,,,,,,,,,,,,,,,,,,,,,,,,,,,,,,,,,,,,,,,,,,,,,,,,,,,,,,,,,,,,,,,,,,,,,,,,,,,,,,,,,,,,,,,,,,,,,,,,,,,,,,,,,,,,,,,,,,,,,,,,,,,,,,,,,,,,
,,,,,,60ede6577c93b8e4d7f6bbdf,62c538d74f260ff71db91f20,2022-07-06_08h25.40.070,Colour_Asymmetry_Pilot,2022.1.3,Win32,143.5544071,62c50e9c1127f2cd403a315f,0,137,137,58,1,twoone,,,,,,,,,,,,,,,,,,,,,,,,,,,,,,,,,,,,,,,,,,,,,,,,,,,,,,,,,,,,,,,,,,,,,,,,,,,,,,,,,,,,,,,,,,,,,,,,,,,,,,,,,,,,,,,,,,,,,,,,,,,,,,,,,,,,,,,,,,,,,,,,,,,,,,,,,,,,,
,,,,,,60ede6577c93b8e4d7f6bbdf,62c538d74f260ff71db91f20,2022-07-06_08h25.40.070,Colour_Asymmetry_Pilot,2022.1.3,Win32,143.5544071,62c50e9c1127f2cd403a315f,0,138,138,68,1,threeone,,,,,,,,,,,,,,,,,,,,,,,,,,,,,,,,,,,,,,,,,,,,,,,,,,,,,,,,,,,,,,,,,,,,,,,,,,,,,,,,,,,,,,,,,,,,,,,,,,,,,,,,,,,,,,,,,,,,,,,,,,,,,,,,,,,,,,,,,,,,,,,,,,,,,,,,,,,,,
,,,,,,60ede6577c93b8e4d7f6bbdf,62c538d74f260ff71db91f20,2022-07-06_08h25.40.070,Colour_Asymmetry_Pilot,2022.1.3,Win32,143.5544071,62c50e9c1127f2cd403a315f,0,139,139,103,1,fourthree,,,,,,,,,,,,,,,,,,,,,,,,,,,,,,,,,,,,,,,,,,,,,,,,,,,,,,,,,,,,,,,,,,,,,,,,,,,,,,,,,,,,,,,,,,,,,,,,,,,,,,,,,,,,,,,,,,,,,,,,,,,,,,,,,,,,,,,,,,,,,,,,,,,,,,,,,,,,,
,,,,,,60ede6577c93b8e4d7f6bbdf,62c538d74f260ff71db91f20,2022-07-06_08h25.40.070,Colour_Asymmetry_Pilot,2022.1.3,Win32,143.5544071,62c50e9c1127f2cd403a315f,0,140,140,104,1,onetwo,,,,,,,,,,,,,,,,,,,,,,,,,,,,,,,,,,,,,,,,,,,,,,,,,,,,,,,,,,,,,,,,,,,,,,,,,,,,,,,,,,,,,,,,,,,,,,,,,,,,,,,,,,,,,,,,,,,,,,,,,,,,,,,,,,,,,,,,,,,,,,,,,,,,,,,,,,,,,
,,,,,,60ede6577c93b8e4d7f6bbdf,62c538d74f260ff71db91f20,2022-07-06_08h25.40.070,Colour_Asymmetry_Pilot,2022.1.3,Win32,143.5544071,62c50e9c1127f2cd403a315f,0,141,141,89,1,onethree,,,,,,,,,,,,,,,,,,,,,,,,,,,,,,,,,,,,,,,,,,,,,,,,,,,,,,,,,,,,,,,,,,,,,,,,,,,,,,,,,,,,,,,,,,,,,,,,,,,,,,,,,,,,,,,,,,,,,,,,,,,,,,,,,,,,,,,,,,,,,,,,,,,,,,,,,,,,,
,,,,,,60ede6577c93b8e4d7f6bbdf,62c538d74f260ff71db91f20,2022-07-06_08h25.40.070,Colour_Asymmetry_Pilot,2022.1.3,Win32,143.5544071,62c50e9c1127f2cd403a315f,0,142,142,139,1,twofour,,,,,,,,,,,,,,,,,,,,,,,,,,,,,,,,,,,,,,,,,,,,,,,,,,,,,,,,,,,,,,,,,,,,,,,,,,,,,,,,,,,,,,,,,,,,,,,,,,,,,,,,,,,,,,,,,,,,,,,,,,,,,,,,,,,,,,,,,,,,,,,,,,,,,,,,,,,,,
,,,,,,60ede6577c93b8e4d7f6bbdf,62c538d74f260ff71db91f20,2022-07-06_08h25.40.070,Colour_Asymmetry_Pilot,2022.1.3,Win32,143.5544071,62c50e9c1127f2cd403a315f,0,143,143,109,1,threefour,,,,,,,,,,,,,,,,,,,,,,,,,,,,,,,,,,,,,,,,,,,,,,,,,,,,,,,,,,,,,,,,,,,,,,,,,,,,,,,,,,,,,,,,,,,,,,,,,,,,,,,,,,,,,,,,,,,,,,,,,,,,,,,,,,,,,,,,,,,,,,,,,,,,,,,,,,,,,
,,,,,,60ede6577c93b8e4d7f6bbdf,62c538d74f260ff71db91f20,2022-07-06_08h25.40.070,Colour_Asymmetry_Pilot,2022.1.3,Win32,143.5544071,62c50e9c1127f2cd403a315f,0,144,144,43,1,twofour,,,,,,,,,,,,,,,,,,,,,,,,,,,,,,,,,,,,,,,,,,,,,,,,,,,,,,,,,,,,,,,,,,,,,,,,,,,,,,,,,,,,,,,,,,,,,,,,,,,,,,,,,,,,,,,,,,,,,,,,,,,,,,,,,,,,,,,,,,,,,,,,,,,,,,,,,,,,,
,,,,,,60ede6577c93b8e4d7f6bbdf,62c538d74f260ff71db91f20,2022-07-06_08h25.40.070,Colour_Asymmetry_Pilot,2022.1.3,Win32,143.5544071,62c50e9c1127f2cd403a315f,0,145,145,143,1,fourthree,,,,,,,,,,,,,,,,,,,,,,,,,,,,,,,,,,,,,,,,,,,,,,,,,,,,,,,,,,,,,,,,,,,,,,,,,,,,,,,,,,,,,,,,,,,,,,,,,,,,,,,,,,,,,,,,,,,,,,,,,,,,,,,,,,,,,,,,,,,,,,,,,,,,,,,,,,,,,
,,,,,,60ede6577c93b8e4d7f6bbdf,62c538d74f260ff71db91f20,2022-07-06_08h25.40.070,Colour_Asymmetry_Pilot,2022.1.3,Win32,143.5544071,62c50e9c1127f2cd403a315f,0,146,146,129,1,onethree,,,,,,,,,,,,,,,,,,,,,,,,,,,,,,,,,,,,,,,,,,,,,,,,,,,,,,,,,,,,,,,,,,,,,,,,,,,,,,,,,,,,,,,,,,,,,,,,,,,,,,,,,,,,,,,,,,,,,,,,,,,,,,,,,,,,,,,,,,,,,,,,,,,,,,,,,,,,,
,,,,,,60ede6577c93b8e4d7f6bbdf,62c538d74f260ff71db91f20,2022-07-06_08h25.40.070,Colour_Asymmetry_Pilot,2022.1.3,Win32,143.5544071,62c50e9c1127f2cd403a315f,0,147,147,42,1,twoone,,,,,,,,,,,,,,,,,,,,,,,,,,,,,,,,,,,,,,,,,,,,,,,,,,,,,,,,,,,,,,,,,,,,,,,,,,,,,,,,,,,,,,,,,,,,,,,,,,,,,,,,,,,,,,,,,,,,,,,,,,,,,,,,,,,,,,,,,,,,,,,,,,,,,,,,,,,,,
,,,,,,60ede6577c93b8e4d7f6bbdf,62c538d74f260ff71db91f20,2022-07-06_08h25.40.070,Colour_Asymmetry_Pilot,2022.1.3,Win32,143.5544071,62c50e9c1127f2cd403a315f,0,148,148,13,1,threefour,,,,,,,,,,,,,,,,,,,,,,,,,,,,,,,,,,,,,,,,,,,,,,,,,,,,,,,,,,,,,,,,,,,,,,,,,,,,,,,,,,,,,,,,,,,,,,,,,,,,,,,,,,,,,,,,,,,,,,,,,,,,,,,,,,,,,,,,,,,,,,,,,,,,,,,,,,,,,
,,,,,,60ede6577c93b8e4d7f6bbdf,62c538d74f260ff71db91f20,2022-07-06_08h25.40.070,Colour_Asymmetry_Pilot,2022.1.3,Win32,143.5544071,62c50e9c1127f2cd403a315f,0,149,149,85,1,threefour,,,,,,,,,,,,,,,,,,,,,,,,,,,,,,,,,,,,,,,,,,,,,,,,,,,,,,,,,,,,,,,,,,,,,,,,,,,,,,,,,,,,,,,,,,,,,,,,,,,,,,,,,,,,,,,,,,,,,,,,,,,,,,,,,,,,,,,,,,,,,,,,,,,,,,,,,,,,,
,,,,,,60ede6577c93b8e4d7f6bbdf,62c538d74f260ff71db91f20,2022-07-06_08h25.40.070,Colour_Asymmetry_Pilot,2022.1.3,Win32,143.5544071,62c50e9c1127f2cd403a315f,0,150,150,18,1,twoone,,,,,,,,,,,,,,,,,,,,,,,,,,,,,,,,,,,,,,,,,,,,,,,,,,,,,,,,,,,,,,,,,,,,,,,,,,,,,,,,,,,,,,,,,,,,,,,,,,,,,,,,,,,,,,,,,,,,,,,,,,,,,,,,,,,,,,,,,,,,,,,,,,,,,,,,,,,,,
,,,,,,60ede6577c93b8e4d7f6bbdf,62c538d74f260ff71db91f20,2022-07-06_08h25.40.070,Colour_Asymmetry_Pilot,2022.1.3,Win32,143.5544071,62c50e9c1127f2cd403a315f,0,151,151,97,1,onethree,,,,,,,,,,,,,,,,,,,,,,,,,,,,,,,,,,,,,,,,,,,,,,,,,,,,,,,,,,,,,,,,,,,,,,,,,,,,,,,,,,,,,,,,,,,,,,,,,,,,,,,,,,,,,,,,,,,,,,,,,,,,,,,,,,,,,,,,,,,,,,,,,,,,,,,,,,,,,
,,,,,,60ede6577c93b8e4d7f6bbdf,62c538d74f260ff71db91f20,2022-07-06_08h25.40.070,Colour_Asymmetry_Pilot,2022.1.3,Win32,143.5544071,62c50e9c1127f2cd403a315f,0,152,152,120,1,onetwo,,,,,,,,,,,,,,,,,,,,,,,,,,,,,,,,,,,,,,,,,,,,,,,,,,,,,,,,,,,,,,,,,,,,,,,,,,,,,,,,,,,,,,,,,,,,,,,,,,,,,,,,,,,,,,,,,,,,,,,,,,,,,,,,,,,,,,,,,,,,,,,,,,,,,,,,,,,,,
,,,,,,60ede6577c93b8e4d7f6bbdf,62c538d74f260ff71db91f20,2022-07-06_08h25.40.070,Colour_Asymmetry_Pilot,2022.1.3,Win32,143.5544071,62c50e9c1127f2cd403a315f,0,153,153,108,1,threeone,,,,,,,,,,,,,,,,,,,,,,,,,,,,,,,,,,,,,,,,,,,,,,,,,,,,,,,,,,,,,,,,,,,,,,,,,,,,,,,,,,,,,,,,,,,,,,,,,,,,,,,,,,,,,,,,,,,,,,,,,,,,,,,,,,,,,,,,,,,,,,,,,,,,,,,,,,,,,
,,,,,,60ede6577c93b8e4d7f6bbdf,62c538d74f260ff71db91f20,2022-07-06_08h25.40.070,Colour_Asymmetry_Pilot,2022.1.3,Win32,143.5544071,62c50e9c1127f2cd403a315f,0,154,154,33,1,onethree,,,,,,,,,,,,,,,,,,,,,,,,,,,,,,,,,,,,,,,,,,,,,,,,,,,,,,,,,,,,,,,,,,,,,,,,,,,,,,,,,,,,,,,,,,,,,,,,,,,,,,,,,,,,,,,,,,,,,,,,,,,,,,,,,,,,,,,,,,,,,,,,,,,,,,,,,,,,,
,,,,,,60ede6577c93b8e4d7f6bbdf,62c538d74f260ff71db91f20,2022-07-06_08h25.40.070,Colour_Asymmetry_Pilot,2022.1.3,Win32,143.5544071,62c50e9c1127f2cd403a315f,0,155,155,72,1,onetwo,,,,,,,,,,,,,,,,,,,,,,,,,,,,,,,,,,,,,,,,,,,,,,,,,,,,,,,,,,,,,,,,,,,,,,,,,,,,,,,,,,,,,,,,,,,,,,,,,,,,,,,,,,,,,,,,,,,,,,,,,,,,,,,,,,,,,,,,,,,,,,,,,,,,,,,,,,,,,
,,,,,,60ede6577c93b8e4d7f6bbdf,62c538d74f260ff71db91f20,2022-07-06_08h25.40.070,Colour_Asymmetry_Pilot,2022.1.3,Win32,143.5544071,62c50e9c1127f2cd403a315f,0,156,156,99,1,twofour,,,,,,,,,,,,,,,,,,,,,,,,,,,,,,,,,,,,,,,,,,,,,,,,,,,,,,,,,,,,,,,,,,,,,,,,,,,,,,,,,,,,,,,,,,,,,,,,,,,,,,,,,,,,,,,,,,,,,,,,,,,,,,,,,,,,,,,,,,,,,,,,,,,,,,,,,,,,,
,,,,,,60ede6577c93b8e4d7f6bbdf,62c538d74f260ff71db91f20,2022-07-06_08h25.40.070,Colour_Asymmetry_Pilot,2022.1.3,Win32,143.5544071,62c50e9c1127f2cd403a315f,0,157,157,110,1,fourtwo,,,,,,,,,,,,,,,,,,,,,,,,,,,,,,,,,,,,,,,,,,,,,,,,,,,,,,,,,,,,,,,,,,,,,,,,,,,,,,,,,,,,,,,,,,,,,,,,,,,,,,,,,,,,,,,,,,,,,,,,,,,,,,,,,,,,,,,,,,,,,,,,,,,,,,,,,,,,,
,,,,,,60ede6577c93b8e4d7f6bbdf,62c538d74f260ff71db91f20,2022-07-06_08h25.40.070,Colour_Asymmetry_Pilot,2022.1.3,Win32,143.5544071,62c50e9c1127f2cd403a315f,0,158,158,105,1,onethree,,,,,,,,,,,,,,,,,,,,,,,,,,,,,,,,,,,,,,,,,,,,,,,,,,,,,,,,,,,,,,,,,,,,,,,,,,,,,,,,,,,,,,,,,,,,,,,,,,,,,,,,,,,,,,,,,,,,,,,,,,,,,,,,,,,,,,,,,,,,,,,,,,,,,,,,,,,,,
,,,,,,60ede6577c93b8e4d7f6bbdf,62c538d74f260ff71db91f20,2022-07-06_08h25.40.070,Colour_Asymmetry_Pilot,2022.1.3,Win32,143.5544071,62c50e9c1127f2cd403a315f,0,159,159,28,1,threeone,,,,,,,,,,,,,,,,,,,,,,,,,,,,,,,,,,,,,,,,,,,,,,,,,,,,,,,,,,,,,,,,,,,,,,,,,,,,,,,,,,,,,,,,,,,,,,,,,,,,,,,,,,,,,,,,,,,,,,,,,,,,,,,,,,,,,,,,,,,,,,,,,,,,,,,,,,,,,
,,,,,,60ede6577c93b8e4d7f6bbdf,62c538d74f260ff71db91f20,2022-07-06_08h25.40.070,Colour_Asymmetry_Pilot,2022.1.3,Win32,143.5544071,62c50e9c1127f2cd403a315f,0,160,160,61,1,threefour,,,,,,,,,,,,,,,,,,,,,,,,,,,,,,,,,,,,,,,,,,,,,,,,,,,,,,,,,,,,,,,,,,,,,,,,,,,,,,,,,,,,,,,,,,,,,,,,,,,,,,,,,,,,,,,,,,,,,,,,,,,,,,,,,,,,,,,,,,,,,,,,,,,,,,,,,,,,,
,,,,,,60ede6577c93b8e4d7f6bbdf,62c538d74f260ff71db91f20,2022-07-06_08h25.40.070,Colour_Asymmetry_Pilot,2022.1.3,Win32,143.5544071,62c50e9c1127f2cd403a315f,0,161,161,107,1,twofour,,,,,,,,,,,,,,,,,,,,,,,,,,,,,,,,,,,,,,,,,,,,,,,,,,,,,,,,,,,,,,,,,,,,,,,,,,,,,,,,,,,,,,,,,,,,,,,,,,,,,,,,,,,,,,,,,,,,,,,,,,,,,,,,,,,,,,,,,,,,,,,,,,,,,,,,,,,,,
,,,,,,60ede6577c93b8e4d7f6bbdf,62c538d74f260ff71db91f20,2022-07-06_08h25.40.070,Colour_Asymmetry_Pilot,2022.1.3,Win32,143.5544071,62c50e9c1127f2cd403a315f,,,,,,,space,2.8987,space,12.0974,space,23.8988,space,1.9518,space,0.6484,space,3.1132,"[0.9763999999999999,0.30979999999999985,-0.6786]",threefour,"[0.23920000000000008,0.2704,0.16060000000000008]",-2,1.1596,-88,-80,1,0,0,response5disk_5,-4,11,1,0,0,rectangle_8,51,-140,1,0,0,response3disk_7,4,1,-3,-5,1,0,0,rectangle_4,0,0,0,0,1,,,,,,,,,,,,,,,,,,,,,,,,,,,,,,,,,,,,,,,,,,,,,,,,,,,,,,,,,,,,,,,,,,,,,,,,,,,,,,,,,,,,,,,,,,,,,,,,,,,,,,,,,,,,,
,,,,,,60ede6577c93b8e4d7f6bbdf,62c538d74f260ff71db91f20,2022-07-06_08h25.40.070,Colour_Asymmetry_Pilot,2022.1.3,Win32,143.5544071,62c50e9c1127f2cd403a315f,,,,,,,,,,,,,,,,,,,"[0.5449999999999999,-0.31000000000000005,-0.0354000000000001]",onetwo,"[0.34099999999999997,0.12939999999999996,-0.9766]",1,20.1836,50,-113,1,0,0,response3disk_5,-9,6,1,0,0,rectangle_8,-9,6,1,0,0,,,1,-9,6,1,0,0,,1,0,1,0,1,,,,,,,,,,,,,,,,,,,,,,,,,,,,,,,,,,,,,,,,,,,,,,,,,,,,,,,,,,,,,,,,,,,,,,,,,,,,,,,,,,,,,,,,,,,,,,,,,,,,,,,,,,,,,
,,,,,,60ede6577c93b8e4d7f6bbdf,62c538d74f260ff71db91f20,2022-07-06_08h25.40.070,Colour_Asymmetry_Pilot,2022.1.3,Win32,143.5544071,62c50e9c1127f2cd403a315f,,,,,,,,,,,,,,,,,,,"[0.22340000000000004,-0.9296,-0.7884]",onetwo,"[0.9686000000000001,0.5763999999999998,0.11359999999999992]",-2,2.299,-97,-48,1,0,0,response5disk_5,3,-5,1,0,0,rectangle_8,3,-5,1,0,0,,,1,3,-5,1,0,0,,2,0,2,0,1,,,,,,,,,,,,,,,,,,,,,,,,,,,,,,,,,,,,,,,,,,,,,,,,,,,,,,,,,,,,,,,,,,,,,,,,,,,,,,,,,,,,,,,,,,,,,,,,,,,,,,,,,,,,,
,,,,,,60ede6577c93b8e4d7f6bbdf,62c538d74f260ff71db91f20,2022-07-06_08h25.40.070,Colour_Asymmetry_Pilot,2022.1.3,Win32,143.5544071,62c50e9c1127f2cd403a315f,,,,,,,,,,,,,,,,,,,"[-0.2942,-0.24719999999999998,-0.357]",onetwo,"[0.8115999999999999,-0.0040000000000000036,-0.09819999999999995]",-1,2.6115,-50,-111,1,0,0,response5disk_5,2,18,1,0,0,rectangle_8,2,18,1,0,0,,,1,2,18,1,0,0,,3,0,3,0,1,,,,,,,,,,,,,,,,,,,,,,,,,,,,,,,,,,,,,,,,,,,,,,,,,,,,,,,,,,,,,,,,,,,,,,,,,,,,,,,,,,,,,,,,,,,,,,,,,,,,,,,,,,,,,
,,,,,,60ede6577c93b8e4d7f6bbdf,62c538d74f260ff71db91f20,2022-07-06_08h25.40.070,Colour_Asymmetry_Pilot,2022.1.3,Win32,143.5544071,62c50e9c1127f2cd403a315f,,,,,,,,,,,,,,,,,,,"[0.6625999999999999,0.4980000000000002,-0.357]",onethree,"[0.40379999999999994,0.09000000000000008,0.44300000000000006]",-2,1.6112,-82,-36,1,0,0,response5disk_5,-16,-9,1,0,0,rectangle_8,-16,-9,1,0,0,,,1,-16,-9,1,0,0,,4,0,4,0,1,,,,,,,,,,,,,,,,,,,,,,,,,,,,,,,,,,,,,,,,,,,,,,,,,,,,,,,,,,,,,,,,,,,,,,,,,,,,,,,,,,,,,,,,,,,,,,,,,,,,,,,,,,,,,
,,,,,,60ede6577c93b8e4d7f6bbdf,62c538d74f260ff71db91f20,2022-07-06_08h25.40.070,Colour_Asymmetry_Pilot,2022.1.3,Win32,143.5544071,62c50e9c1127f2cd403a315f,,,,,,,,,,,,,,,,,,,"[0.2784,-0.31000000000000005,-0.5452]",twoone,"[0.2862,0.7802,0.3568]",-3,1.8687,-118,46,1,0,0,response7disk_5,35,-10,1,0,0,rectangle_8,44,-119,1,0,0,response3disk_7,4,1,-2,1,1,0,0,rectangle_4,5,0,5,0,1,,,,,,,,,,,,,,,,,,,,,,,,,,,,,,,,,,,,,,,,,,,,,,,,,,,,,,,,,,,,,,,,,,,,,,,,,,,,,,,,,,,,,,,,,,,,,,,,,,,,,,,,,,,,,
,,,,,,60ede6577c93b8e4d7f6bbdf,62c538d74f260ff71db91f20,2022-07-06_08h25.40.070,Colour_Asymmetry_Pilot,2022.1.3,Win32,143.5544071,62c50e9c1127f2cd403a315f,,,,,,,,,,,,,,,,,,,"[-0.4668,-0.8746,-0.2942]",onetwo,"[0.04299999999999993,0.16060000000000008,-0.6628000000000001]",-2,8.9527,-98,-58,1,0,0,response5disk_5,-4,7,1,0,0,rectangle_8,-4,7,1,0,0,,,1,-4,7,1,0,0,,6,0,6,0,1,,,,,,,,,,,,,,,,,,,,,,,,,,,,,,,,,,,,,,,,,,,,,,,,,,,,,,,,,,,,,,,,,,,,,,,,,,,,,,,,,,,,,,,,,,,,,,,,,,,,,,,,,,,,,
,,,,,,60ede6577c93b8e4d7f6bbdf,62c538d74f260ff71db91f20,2022-07-06_08h25.40.070,Colour_Asymmetry_Pilot,2022.1.3,Win32,143.5544071,62c50e9c1127f2cd403a315f,,,,,,,,,,,,,,,,,,,,threefour,,3,1.5628,,,,,,,,,,,,,,,,,,,,,,,,,,,,,,,,space,57.7511,"[0.12939999999999996,-0.2864,0.3253999999999999]","[-0.24719999999999998,-0.0354000000000001,0.3175999999999999]",121,49,1,0,0,response1disk,9,-6,1,0,0,rectangle,9,-6,1,0,0,,1,0.0006,0,9,-6,1,0,0,0,0,0,56,1,56,first,,,,,,,,,,,,,,,,,,,,,,,,,,,,,,,,,,,,,,,,,,,,,,,,,,,,,,,,,,,,,,,,,,,,,,,,
,,,,,,60ede6577c93b8e4d7f6bbdf,62c538d74f260ff71db91f20,2022-07-06_08h25.40.070,Colour_Asymmetry_Pilot,2022.1.3,Win32,143.5544071,62c50e9c1127f2cd403a315f,,,,,,,,,,,,,,,,,,,,twoone,,1,1.2988,,,,,,,,,,,,,,,,,,,,,,,,,,,,,,,,,,"[-0.38039999999999996,-0.4276,-0.1452]","[0.23120000000000007,-0.7726,-0.34120000000000006]",65,-133,1,0,0,response3disk,1,8,1,0,0,rectangle,1,8,1,0,0,,1,0.0002,0,1,8,1,0,0,0,1,1,150,1,69,second,,,,,,,,,,,,,,,,,,,,,,,,,,,,,,,,,,,,,,,,,,,,,,,,,,,,,,,,,,,,,,,,,,,,,,,,
,,,,,,60ede6577c93b8e4d7f6bbdf,62c538d74f260ff71db91f20,2022-07-06_08h25.40.070,Colour_Asymmetry_Pilot,2022.1.3,Win32,143.5544071,62c50e9c1127f2cd403a315f,,,,,,,,,,,,,,,,,,,,twofour,,1,0.5348,,,,,,,,,,,,,,,,,,,,,,,,,,,,,,,,,,"[0.2784,-0.31000000000000005,-0.5452]","[0.6547999999999998,-0.043199999999999905,-0.011800000000000033]",55,-128,1,0,0,response3disk,-13,10,1,0,0,rectangle,-13,10,1,0,0,,2,0.0005,0,-13,10,1,0,0,0,2,2,94,1,13,second,,,,,,,,,,,,,,,,,,,,,,,,,,,,,,,,,,,,,,,,,,,,,,,,,,,,,,,,,,,,,,,,,,,,,,,,
,,,,,,60ede6577c93b8e4d7f6bbdf,62c538d74f260ff71db91f20,2022-07-06_08h25.40.070,Colour_Asymmetry_Pilot,2022.1.3,Win32,143.5544071,62c50e9c1127f2cd403a315f,,,,,,,,,,,,,,,,,,,,threeone,,-1,2.3823,,,,,,,,,,,,,,,,,,,,,,,,,,,,,,,,,,"[-0.20799999999999996,-0.655,-0.01980000000000004]","[0.34099999999999997,0.12939999999999996,-0.9766]",-62,-104,1,0,0,response5disk,2,-8,1,0,0,rectangle,2,-8,1,0,0,,1,0.0003,0,2,-8,1,0,0,0,3,3,95,1,14,second,,,,,,,,,,,,,,,,,,,,,,,,,,,,,,,,,,,,,,,,,,,,,,,,,,,,,,,,,,,,,,,,,,,,,,,,
,,,,,,60ede6577c93b8e4d7f6bbdf,62c538d74f260ff71db91f20,2022-07-06_08h25.40.070,Colour_Asymmetry_Pilot,2022.1.3,Win32,143.5544071,62c50e9c1127f2cd403a315f,,,,,,,,,,,,,,,,,,,,threeone,,1,0.5348,,,,,,,,,,,,,,,,,,,,,,,,,,,,,,,,,,"[0.19199999999999995,0.18419999999999992,0.5136000000000001]","[-0.4746,-0.0354000000000001,0.5449999999999999]",38,-93,1,0,0,response3disk,7,6,1,0,0,rectangle,7,6,1,0,0,,1,0,0,7,6,1,0,0,0,4,4,158,1,77,second,,,,,,,,,,,,,,,,,,,,,,,,,,,,,,,,,,,,,,,,,,,,,,,,,,,,,,,,,,,,,,,,,,,,,,,,
,,,,,,60ede6577c93b8e4d7f6bbdf,62c538d74f260ff71db91f20,2022-07-06_08h25.40.070,Colour_Asymmetry_Pilot,2022.1.3,Win32,143.5544071,62c50e9c1127f2cd403a315f,,,,,,,,,,,,,,,,,,,,fourthree,,-3,0.389,,,,,,,,,,,,,,,,,,,,,,,,,,,,,,,,,,"[0.40379999999999994,0.09000000000000008,0.44300000000000006]","[1,0.12939999999999996,-1]",-91,47,1,0,0,response7disk,8,1,1,0,0,rectangle,8,1,1,0,0,,1,0,0,8,1,1,0,0,0,5,5,5,1,5,first,,,,,,,,,,,,,,,,,,,,,,,,,,,,,,,,,,,,,,,,,,,,,,,,,,,,,,,,,,,,,,,,,,,,,,,,
,,,,,,60ede6577c93b8e4d7f6bbdf,62c538d74f260ff71db91f20,2022-07-06_08h25.40.070,Colour_Asymmetry_Pilot,2022.1.3,Win32,143.5544071,62c50e9c1127f2cd403a315f,,,,,,,,,,,,,,,,,,,,onethree,,-4,0.5835,,,,,,,,,,,,,,,,,,,,,,,,,,,,,,,,,,"[-0.7412000000000001,-0.08239999999999992,-0.6864]","[0.40379999999999994,0.09000000000000008,0.44300000000000006]",-52,118,1,0,0,response7disk,-13,13,1,0,0,rectangle,-13,13,1,0,0,,1,0.0001,0,-13,13,1,0,0,0,6,6,110,1,29,second,,,,,,,,,,,,,,,,,,,,,,,,,,,,,,,,,,,,,,,,,,,,,,,,,,,,,,,,,,,,,,,,,,,,,,,,
,,,,,,60ede6577c93b8e4d7f6bbdf,62c538d74f260ff71db91f20,2022-07-06_08h25.40.070,Colour_Asymmetry_Pilot,2022.1.3,Win32,143.5544071,62c50e9c1127f2cd403a315f,,,,,,,,,,,,,,,,,,,,twoone,,-3,1.8404,,,,,,,,,,,,,,,,,,,,,,,,,,,,,,,,,,"[0.04299999999999993,0.16060000000000008,-0.6628000000000001]","[0.23120000000000007,-0.7726,-0.34120000000000006]",-123,21,1,0,0,response7disk,7,-10,1,0,0,rectangle,7,-10,1,0,0,,2,0.0004,0,7,-10,1,0,0,0,7,7,61,1,61,first,,,,,,,,,,,,,,,,,,,,,,,,,,,,,,,,,,,,,,,,,,,,,,,,,,,,,,,,,,,,,,,,,,,,,,,,
,,,,,,60ede6577c93b8e4d7f6bbdf,62c538d74f260ff71db91f20,2022-07-06_08h25.40.070,Colour_Asymmetry_Pilot,2022.1.3,Win32,143.5544071,62c50e9c1127f2cd403a315f,,,,,,,,,,,,,,,,,,,,onetwo,,1,3.0976,,,,,,,,,,,,,,,,,,,,,,,,,,,,,,,,,,"[0.3881999999999999,-0.23939999999999995,-0.05040000000000011]","[-0.0040000000000000036,0.02739999999999987,-0.08239999999999992]",40,-139,1,0,0,response3disk,-8,15,1,0,0,rectangle,-8,15,1,0,0,,2,0,0,-8,15,1,0,0,0,8,8,100,1,19,second,,,,,,,,,,,,,,,,,,,,,,,,,,,,,,,,,,,,,,,,,,,,,,,,,,,,,,,,,,,,,,,,,,,,,,,,
,,,,,,60ede6577c93b8e4d7f6bbdf,62c538d74f260ff71db91f20,2022-07-06_08h25.40.070,Colour_Asymmetry_Pilot,2022.1.3,Win32,143.5544071,62c50e9c1127f2cd403a315f,,,,,,,,,,,,,,,,,,,,threefour,,-3,1.278,,,,,,,,,,,,,,,,,,,,,,,,,,,,,,,,,,"[0.19199999999999995,0.18419999999999992,0.5136000000000001]","[-0.5688,-0.08239999999999992,-0.1844]",-112,56,1,0,0,response7disk,-14,13,1,0,0,rectangle,-14,13,1,0,0,,3,0.0004,0,-14,13,1,0,0,0,9,9,25,1,25,first,,,,,,,,,,,,,,,,,,,,,,,,,,,,,,,,,,,,,,,,,,,,,,,,,,,,,,,,,,,,,,,,,,,,,,,,
,,,,,,60ede6577c93b8e4d7f6bbdf,62c538d74f260ff71db91f20,2022-07-06_08h25.40.070,Colour_Asymmetry_Pilot,2022.1.3,Win32,143.5544071,62c50e9c1127f2cd403a315f,,,,,,,,,,,,,,,,,,,,fourthree,,-3,2.0769,,,,,,,,,,,,,,,,,,,,,,,,,,,,,,,,,,"[-0.24719999999999998,0.5213999999999999,-0.12959999999999994]","[-0.2942,-0.7648,-0.7492000000000001]",-99,28,1,0,0,response7disk,-11,-11,1,0,0,rectangle,-11,-11,1,0,0,,3,0.0001,0,-11,-11,1,0,0,0,10,10,57,1,57,first,,,,,,,,,,,,,,,,,,,,,,,,,,,,,,,,,,,,,,,,,,,,,,,,,,,,,,,,,,,,,,,,,,,,,,,,
,,,,,,60ede6577c93b8e4d7f6bbdf,62c538d74f260ff71db91f20,2022-07-06_08h25.40.070,Colour_Asymmetry_Pilot,2022.1.3,Win32,143.5544071,62c50e9c1127f2cd403a315f,,,,,,,,,,,,,,,,,,,,onethree,,-2,0.4305,,,,,,,,,,,,,,,,,,,,,,,,,,,,,,,,,,"[1,0.12939999999999996,-1]","[0.40379999999999994,0.09000000000000008,0.44300000000000006]",-106,-38,1,0,0,response5disk,33,1,1,0,0,rectangle,33,1,1,0,0,,3,0.0001,0,33,1,1,0,0,0,11,11,86,1,5,second,,,,,,,,,,,,,,,,,,,,,,,,,,,,,,,,,,,,,,,,,,,,,,,,,,,,,,,,,,,,,,,,,,,,,,,,
,,,,,,60ede6577c93b8e4d7f6bbdf,62c538d74f260ff71db91f20,2022-07-06_08h25.40.070,Colour_Asymmetry_Pilot,2022.1.3,Win32,143.5544071,62c50e9c1127f2cd403a315f,,,,,,,,,,,,,,,,,,,,twoone,,-2,0.4604,,,,,,,,,,,,,,,,,,,,,,,,,,,,,,,,,,"[0.3802000000000001,0.19199999999999995,-0.6394]","[0.40379999999999994,0.09000000000000008,0.44300000000000006]",-114,-43,1,0,0,response5disk,-6,-4,1,0,0,rectangle,-6,-4,1,0,0,,3,0,0,-6,-4,1,0,0,0,12,12,53,1,53,first,,,,,,,,,,,,,,,,,,,,,,,,,,,,,,,,,,,,,,,,,,,,,,,,,,,,,,,,,,,,,,,,,,,,,,,,
,,,,,,60ede6577c93b8e4d7f6bbdf,62c538d74f260ff71db91f20,2022-07-06_08h25.40.070,Colour_Asymmetry_Pilot,2022.1.3,Win32,143.5544071,62c50e9c1127f2cd403a315f,,,,,,,,,,,,,,,,,,,,fourtwo,,-3,0.6811,,,,,,,,,,,,,,,,,,,,,,,,,,,,,,,,,,"[-0.4902000000000001,0.2704,-0.45899999999999996]","[-0.9216,-0.5529999999999999,-0.3962]",-124,36,1,0,0,response7disk,-31,-10,1,0,0,rectangle,-31,-10,1,0,0,,2,0.0004,0,-31,-10,1,0,0,0,13,13,80,1,80,first,,,,,,,,,,,,,,,,,,,,,,,,,,,,,,,,,,,,,,,,,,,,,,,,,,,,,,,,,,,,,,,,,,,,,,,,
,,,,,,60ede6577c93b8e4d7f6bbdf,62c538d74f260ff71db91f20,2022-07-06_08h25.40.070,Colour_Asymmetry_Pilot,2022.1.3,Win32,143.5544071,62c50e9c1127f2cd403a315f,,,,,,,,,,,,,,,,,,,,twoone,,3,1.2432,,,,,,,,,,,,,,,,,,,,,,,,,,,,,,,,,,"[0.37240000000000006,0.4980000000000002,-0.2864]","[0.2862,0.7802,0.3568]",133,62,1,0,0,response1disk,26,-7,1,0,0,rectangle,26,-7,1,0,0,,3,0.0003,0,26,-7,1,0,0,0,14,14,9,1,9,first,,,,,,,,,,,,,,,,,,,,,,,,,,,,,,,,,,,,,,,,,,,,,,,,,,,,,,,,,,,,,,,,,,,,,,,,
,,,,,,60ede6577c93b8e4d7f6bbdf,62c538d74f260ff71db91f20,2022-07-06_08h25.40.070,Colour_Asymmetry_Pilot,2022.1.3,Win32,143.5544071,62c50e9c1127f2cd403a315f,,,,,,,,,,,,,,,,,,,,twofour,,-4,1.5002,,,,,,,,,,,,,,,,,,,,,,,,,,,,,,,,,,"[1,0.12939999999999996,-1]","[-0.5452,-0.608,0.2470000000000001]",-62,110,1,0,0,response7disk,-13,-1,1,0,0,rectangle,-13,-1,1,0,0,,2,0.0003,0,-13,-1,1,0,0,0,15,15,50,1,50,first,,,,,,,,,,,,,,,,,,,,,,,,,,,,,,,,,,,,,,,,,,,,,,,,,,,,,,,,,,,,,,,,,,,,,,,,
,,,,,,60ede6577c93b8e4d7f6bbdf,62c538d74f260ff71db91f20,2022-07-06_08h25.40.070,Colour_Asymmetry_Pilot,2022.1.3,Win32,143.5544071,62c50e9c1127f2cd403a315f,,,,,,,,,,,,,,,,,,,,threefour,,-2,2.0281,,,,,,,,,,,,,,,,,,,,,,,,,,,,,,,,,,"[0.8274000000000001,-0.5844,-0.9452]","[-0.5922000000000001,-0.7492000000000001,-0.5296000000000001]",-123,-57,1,0,0,response5disk,-13,-4,1,0,0,rectangle,65,-158,1,0,0,1,1,2.7778,1,-7,-9,1,0,0,0,16,16,76,1,76,first,response3disk_3,rectangle,,,,,,,,,,,,,,,,,,,,,,,,,,,,,,,,,,,,,,,,,,,,,,,,,,,,,,,,,,,,,,,,,,,,,,
